startup.started,startup.stopped,Prolific ID*,date,expName,psychopyVersion,OS,frameRate,participant,study_id,session,stimpositions.started,stimpositions.stopped,hardcoded_stimulus_positions.thisRepN,hardcoded_stimulus_positions.thisTrialN,hardcoded_stimulus_positions.thisN,hardcoded_stimulus_positions.thisIndex,hardcoded_stimulus_positions.ran,StimulusPos,stimorientation.started,stimorientation.stopped,prac_stimorientation_import_loop.thisRepN,prac_stimorientation_import_loop.thisTrialN,prac_stimorientation_import_loop.thisN,prac_stimorientation_import_loop.thisIndex,prac_stimorientation_import_loop.ran,Stimorientation,welcome_instr.started,welcome_instr.stopped,key_resp.keys,key_resp.rt,key_resp.duration,response_steppedout_1.started,response_steppedout_1.stopped,key_resp_20.keys,key_resp_20.rt,key_resp_20.duration,response_steppedout_2.started,response_steppedout_2.stopped,key_resp_19.keys,key_resp_19.rt,key_resp_19.duration,stim_response_instr.started,stim_response_instr.stopped,key_resp_15.keys,key_resp_15.rt,key_resp_15.duration,direction_instr_2.started,direction_instr_2.stopped,key_resp_9.keys,key_resp_9.rt,key_resp_9.duration,instr_prac.started,instr_prac.stopped,key_resp_10.keys,key_resp_10.rt,key_resp_10.duration,Stim1_display_prac.started,Stim1_display_prac.stopped,Ecc,Circle1_ori,Circle2_ori,response_prac.started,similarity,response_time,response_prac.stopped,mouse_5.x,mouse_5.y,mouse_5.leftButton,mouse_5.midButton,mouse_5.rightButton,mouse_5.clicked_name,responseprac_feedback.started,responseprac_feedback.stopped,summary2_prac.started,summary2_prac.stopped,mouse_6.x,mouse_6.y,mouse_6.leftButton,mouse_6.midButton,mouse_6.rightButton,mouse_6.clicked_name,duringprac.thisRepN,duringprac.thisTrialN,duringprac.thisN,duringprac.thisIndex,duringprac.ran,begin.started,begin.stopped,key_resp_22.keys,key_resp_22.rt,key_resp_22.duration,Stim1_display.started,Stim1_display.stopped,circle1_ori,circle2_ori,blank.started,blank.stopped,response.started,response.stopped,mouse.x,mouse.y,mouse.leftButton,mouse.midButton,mouse.rightButton,mouse.clicked_name,response_2.started,response_2.stopped,mouse_2.x,mouse_2.y,mouse_2.leftButton,mouse_2.midButton,mouse_2.rightButton,mouse_2.clicked_name,special_trial.started,special_trial.stopped,catch_1.started,catch_1.stopped,mouse_3.x,mouse_3.y,mouse_3.leftButton,mouse_3.midButton,mouse_3.rightButton,catchresponse,catchnumber,response_time_catch,Catch,response_sum.started,response_sum.stopped,mouse_11.x,mouse_11.y,mouse_11.leftButton,mouse_11.midButton,mouse_11.rightButton,main_trial.thisRepN,main_trial.thisTrialN,main_trial.thisN,main_trial.thisIndex,main_trial.ran,Orientationtrialno,xcircle1_ori,xcircle2_ori,flip_presentation_sequence_for_double_pass.started,flip_presentation_sequence_for_double_pass.stopped,double_pass.thisRepN,double_pass.thisTrialN,double_pass.thisN,double_pass.thisIndex,double_pass.ran,goodbye.started,goodbye.stopped,key_resp_3.keys,key_resp_3.rt,key_resp_3.duration
0.0109,0.0111,5fa472cf29a8e70f22c5d521,2023-12-07_07h31.43.141,kallum_motion_pilot,2023.2.3,Win32,30.14318011,5fa472cf29a8e70f22c5d521,6560176e4d91f764e2a42c74,657158935aaa6fe1a29dea10,,,,,,,,,,,,,,,,,,,,,,,,,,,,,,,,,,,,,,,,,,,,,,,,,,,,,,,,,,,,,,,,,,,,,,,,,,,,,,,,,,,,,,,,,,,,,,,,,,,,,,,,,,,,,,,,,,,,,,,,,,,,,,,,,,,,,,,,,,,,,,,
,,5fa472cf29a8e70f22c5d521,2023-12-07_07h31.43.141,kallum_motion_pilot,2023.2.3,Win32,30.14318011,5fa472cf29a8e70f22c5d521,6560176e4d91f764e2a42c74,657158935aaa6fe1a29dea10,0.0728,0.0733,0,0,0,96,1,fivesix,,,,,,,,,,,,,,,,,,,,,,,,,,,,,,,,,,,,,,,,,,,,,,,,,,,,,,,,,,,,,,,,,,,,,,,,,,,,,,,,,,,,,,,,,,,,,,,,,,,,,,,,,,,,,,,,,,,,,,,,,,,,,,,,,,,,,,,
,,5fa472cf29a8e70f22c5d521,2023-12-07_07h31.43.141,kallum_motion_pilot,2023.2.3,Win32,30.14318011,5fa472cf29a8e70f22c5d521,6560176e4d91f764e2a42c74,657158935aaa6fe1a29dea10,0.074,0.0742,0,1,1,86,1,eightsix,,,,,,,,,,,,,,,,,,,,,,,,,,,,,,,,,,,,,,,,,,,,,,,,,,,,,,,,,,,,,,,,,,,,,,,,,,,,,,,,,,,,,,,,,,,,,,,,,,,,,,,,,,,,,,,,,,,,,,,,,,,,,,,,,,,,,,,
,,5fa472cf29a8e70f22c5d521,2023-12-07_07h31.43.141,kallum_motion_pilot,2023.2.3,Win32,30.14318011,5fa472cf29a8e70f22c5d521,6560176e4d91f764e2a42c74,657158935aaa6fe1a29dea10,0.0747,0.075,0,2,2,80,1,fivesix,,,,,,,,,,,,,,,,,,,,,,,,,,,,,,,,,,,,,,,,,,,,,,,,,,,,,,,,,,,,,,,,,,,,,,,,,,,,,,,,,,,,,,,,,,,,,,,,,,,,,,,,,,,,,,,,,,,,,,,,,,,,,,,,,,,,,,,
,,5fa472cf29a8e70f22c5d521,2023-12-07_07h31.43.141,kallum_motion_pilot,2023.2.3,Win32,30.14318011,5fa472cf29a8e70f22c5d521,6560176e4d91f764e2a42c74,657158935aaa6fe1a29dea10,0.0754,0.0756,0,3,3,107,1,sixeight,,,,,,,,,,,,,,,,,,,,,,,,,,,,,,,,,,,,,,,,,,,,,,,,,,,,,,,,,,,,,,,,,,,,,,,,,,,,,,,,,,,,,,,,,,,,,,,,,,,,,,,,,,,,,,,,,,,,,,,,,,,,,,,,,,,,,,,
,,5fa472cf29a8e70f22c5d521,2023-12-07_07h31.43.141,kallum_motion_pilot,2023.2.3,Win32,30.14318011,5fa472cf29a8e70f22c5d521,6560176e4d91f764e2a42c74,657158935aaa6fe1a29dea10,0.076,0.0762,0,4,4,72,1,onetwo,,,,,,,,,,,,,,,,,,,,,,,,,,,,,,,,,,,,,,,,,,,,,,,,,,,,,,,,,,,,,,,,,,,,,,,,,,,,,,,,,,,,,,,,,,,,,,,,,,,,,,,,,,,,,,,,,,,,,,,,,,,,,,,,,,,,,,,
,,5fa472cf29a8e70f22c5d521,2023-12-07_07h31.43.141,kallum_motion_pilot,2023.2.3,Win32,30.14318011,5fa472cf29a8e70f22c5d521,6560176e4d91f764e2a42c74,657158935aaa6fe1a29dea10,0.0768,0.077,0,5,5,160,1,fivesix,,,,,,,,,,,,,,,,,,,,,,,,,,,,,,,,,,,,,,,,,,,,,,,,,,,,,,,,,,,,,,,,,,,,,,,,,,,,,,,,,,,,,,,,,,,,,,,,,,,,,,,,,,,,,,,,,,,,,,,,,,,,,,,,,,,,,,,
,,5fa472cf29a8e70f22c5d521,2023-12-07_07h31.43.141,kallum_motion_pilot,2023.2.3,Win32,30.14318011,5fa472cf29a8e70f22c5d521,6560176e4d91f764e2a42c74,657158935aaa6fe1a29dea10,0.0775,0.0777,0,6,6,146,1,sixfive,,,,,,,,,,,,,,,,,,,,,,,,,,,,,,,,,,,,,,,,,,,,,,,,,,,,,,,,,,,,,,,,,,,,,,,,,,,,,,,,,,,,,,,,,,,,,,,,,,,,,,,,,,,,,,,,,,,,,,,,,,,,,,,,,,,,,,,
,,5fa472cf29a8e70f22c5d521,2023-12-07_07h31.43.141,kallum_motion_pilot,2023.2.3,Win32,30.14318011,5fa472cf29a8e70f22c5d521,6560176e4d91f764e2a42c74,657158935aaa6fe1a29dea10,0.0781,0.0783,0,7,7,28,1,threeone,,,,,,,,,,,,,,,,,,,,,,,,,,,,,,,,,,,,,,,,,,,,,,,,,,,,,,,,,,,,,,,,,,,,,,,,,,,,,,,,,,,,,,,,,,,,,,,,,,,,,,,,,,,,,,,,,,,,,,,,,,,,,,,,,,,,,,,
,,5fa472cf29a8e70f22c5d521,2023-12-07_07h31.43.141,kallum_motion_pilot,2023.2.3,Win32,30.14318011,5fa472cf29a8e70f22c5d521,6560176e4d91f764e2a42c74,657158935aaa6fe1a29dea10,0.0787,0.0789,0,8,8,130,1,sixfive,,,,,,,,,,,,,,,,,,,,,,,,,,,,,,,,,,,,,,,,,,,,,,,,,,,,,,,,,,,,,,,,,,,,,,,,,,,,,,,,,,,,,,,,,,,,,,,,,,,,,,,,,,,,,,,,,,,,,,,,,,,,,,,,,,,,,,,
,,5fa472cf29a8e70f22c5d521,2023-12-07_07h31.43.141,kallum_motion_pilot,2023.2.3,Win32,30.14318011,5fa472cf29a8e70f22c5d521,6560176e4d91f764e2a42c74,657158935aaa6fe1a29dea10,0.0793,0.0796,0,9,9,128,1,fivesix,,,,,,,,,,,,,,,,,,,,,,,,,,,,,,,,,,,,,,,,,,,,,,,,,,,,,,,,,,,,,,,,,,,,,,,,,,,,,,,,,,,,,,,,,,,,,,,,,,,,,,,,,,,,,,,,,,,,,,,,,,,,,,,,,,,,,,,
,,5fa472cf29a8e70f22c5d521,2023-12-07_07h31.43.141,kallum_motion_pilot,2023.2.3,Win32,30.14318011,5fa472cf29a8e70f22c5d521,6560176e4d91f764e2a42c74,657158935aaa6fe1a29dea10,0.0799,0.0801,0,10,10,161,1,fiveseven,,,,,,,,,,,,,,,,,,,,,,,,,,,,,,,,,,,,,,,,,,,,,,,,,,,,,,,,,,,,,,,,,,,,,,,,,,,,,,,,,,,,,,,,,,,,,,,,,,,,,,,,,,,,,,,,,,,,,,,,,,,,,,,,,,,,,,,
,,5fa472cf29a8e70f22c5d521,2023-12-07_07h31.43.141,kallum_motion_pilot,2023.2.3,Win32,30.14318011,5fa472cf29a8e70f22c5d521,6560176e4d91f764e2a42c74,657158935aaa6fe1a29dea10,0.0806,0.0808,0,11,11,121,1,fiveseven,,,,,,,,,,,,,,,,,,,,,,,,,,,,,,,,,,,,,,,,,,,,,,,,,,,,,,,,,,,,,,,,,,,,,,,,,,,,,,,,,,,,,,,,,,,,,,,,,,,,,,,,,,,,,,,,,,,,,,,,,,,,,,,,,,,,,,,
,,5fa472cf29a8e70f22c5d521,2023-12-07_07h31.43.141,kallum_motion_pilot,2023.2.3,Win32,30.14318011,5fa472cf29a8e70f22c5d521,6560176e4d91f764e2a42c74,657158935aaa6fe1a29dea10,0.0812,0.0814,0,12,12,4,1,threeone,,,,,,,,,,,,,,,,,,,,,,,,,,,,,,,,,,,,,,,,,,,,,,,,,,,,,,,,,,,,,,,,,,,,,,,,,,,,,,,,,,,,,,,,,,,,,,,,,,,,,,,,,,,,,,,,,,,,,,,,,,,,,,,,,,,,,,,
,,5fa472cf29a8e70f22c5d521,2023-12-07_07h31.43.141,kallum_motion_pilot,2023.2.3,Win32,30.14318011,5fa472cf29a8e70f22c5d521,6560176e4d91f764e2a42c74,657158935aaa6fe1a29dea10,0.0817,0.0819,0,13,13,104,1,fivesix,,,,,,,,,,,,,,,,,,,,,,,,,,,,,,,,,,,,,,,,,,,,,,,,,,,,,,,,,,,,,,,,,,,,,,,,,,,,,,,,,,,,,,,,,,,,,,,,,,,,,,,,,,,,,,,,,,,,,,,,,,,,,,,,,,,,,,,
,,5fa472cf29a8e70f22c5d521,2023-12-07_07h31.43.141,kallum_motion_pilot,2023.2.3,Win32,30.14318011,5fa472cf29a8e70f22c5d521,6560176e4d91f764e2a42c74,657158935aaa6fe1a29dea10,0.0823,0.0825,0,14,14,0,1,onetwo,,,,,,,,,,,,,,,,,,,,,,,,,,,,,,,,,,,,,,,,,,,,,,,,,,,,,,,,,,,,,,,,,,,,,,,,,,,,,,,,,,,,,,,,,,,,,,,,,,,,,,,,,,,,,,,,,,,,,,,,,,,,,,,,,,,,,,,
,,5fa472cf29a8e70f22c5d521,2023-12-07_07h31.43.141,kallum_motion_pilot,2023.2.3,Win32,30.14318011,5fa472cf29a8e70f22c5d521,6560176e4d91f764e2a42c74,657158935aaa6fe1a29dea10,0.0829,0.0831,0,15,15,69,1,threefour,,,,,,,,,,,,,,,,,,,,,,,,,,,,,,,,,,,,,,,,,,,,,,,,,,,,,,,,,,,,,,,,,,,,,,,,,,,,,,,,,,,,,,,,,,,,,,,,,,,,,,,,,,,,,,,,,,,,,,,,,,,,,,,,,,,,,,,
,,5fa472cf29a8e70f22c5d521,2023-12-07_07h31.43.141,kallum_motion_pilot,2023.2.3,Win32,30.14318011,5fa472cf29a8e70f22c5d521,6560176e4d91f764e2a42c74,657158935aaa6fe1a29dea10,0.0835,0.0837,0,16,16,13,1,threefour,,,,,,,,,,,,,,,,,,,,,,,,,,,,,,,,,,,,,,,,,,,,,,,,,,,,,,,,,,,,,,,,,,,,,,,,,,,,,,,,,,,,,,,,,,,,,,,,,,,,,,,,,,,,,,,,,,,,,,,,,,,,,,,,,,,,,,,
,,5fa472cf29a8e70f22c5d521,2023-12-07_07h31.43.141,kallum_motion_pilot,2023.2.3,Win32,30.14318011,5fa472cf29a8e70f22c5d521,6560176e4d91f764e2a42c74,657158935aaa6fe1a29dea10,0.084,0.0843,0,17,17,54,1,fourtwo,,,,,,,,,,,,,,,,,,,,,,,,,,,,,,,,,,,,,,,,,,,,,,,,,,,,,,,,,,,,,,,,,,,,,,,,,,,,,,,,,,,,,,,,,,,,,,,,,,,,,,,,,,,,,,,,,,,,,,,,,,,,,,,,,,,,,,,
,,5fa472cf29a8e70f22c5d521,2023-12-07_07h31.43.141,kallum_motion_pilot,2023.2.3,Win32,30.14318011,5fa472cf29a8e70f22c5d521,6560176e4d91f764e2a42c74,657158935aaa6fe1a29dea10,0.0847,0.0848,0,18,18,59,1,twofour,,,,,,,,,,,,,,,,,,,,,,,,,,,,,,,,,,,,,,,,,,,,,,,,,,,,,,,,,,,,,,,,,,,,,,,,,,,,,,,,,,,,,,,,,,,,,,,,,,,,,,,,,,,,,,,,,,,,,,,,,,,,,,,,,,,,,,,
,,5fa472cf29a8e70f22c5d521,2023-12-07_07h31.43.141,kallum_motion_pilot,2023.2.3,Win32,30.14318011,5fa472cf29a8e70f22c5d521,6560176e4d91f764e2a42c74,657158935aaa6fe1a29dea10,0.0852,0.0855,0,19,19,66,1,twoone,,,,,,,,,,,,,,,,,,,,,,,,,,,,,,,,,,,,,,,,,,,,,,,,,,,,,,,,,,,,,,,,,,,,,,,,,,,,,,,,,,,,,,,,,,,,,,,,,,,,,,,,,,,,,,,,,,,,,,,,,,,,,,,,,,,,,,,
,,5fa472cf29a8e70f22c5d521,2023-12-07_07h31.43.141,kallum_motion_pilot,2023.2.3,Win32,30.14318011,5fa472cf29a8e70f22c5d521,6560176e4d91f764e2a42c74,657158935aaa6fe1a29dea10,0.0858,0.086,0,20,20,8,1,onetwo,,,,,,,,,,,,,,,,,,,,,,,,,,,,,,,,,,,,,,,,,,,,,,,,,,,,,,,,,,,,,,,,,,,,,,,,,,,,,,,,,,,,,,,,,,,,,,,,,,,,,,,,,,,,,,,,,,,,,,,,,,,,,,,,,,,,,,,
,,5fa472cf29a8e70f22c5d521,2023-12-07_07h31.43.141,kallum_motion_pilot,2023.2.3,Win32,30.14318011,5fa472cf29a8e70f22c5d521,6560176e4d91f764e2a42c74,657158935aaa6fe1a29dea10,0.0864,0.0866,0,21,21,95,1,eightseven,,,,,,,,,,,,,,,,,,,,,,,,,,,,,,,,,,,,,,,,,,,,,,,,,,,,,,,,,,,,,,,,,,,,,,,,,,,,,,,,,,,,,,,,,,,,,,,,,,,,,,,,,,,,,,,,,,,,,,,,,,,,,,,,,,,,,,,
,,5fa472cf29a8e70f22c5d521,2023-12-07_07h31.43.141,kallum_motion_pilot,2023.2.3,Win32,30.14318011,5fa472cf29a8e70f22c5d521,6560176e4d91f764e2a42c74,657158935aaa6fe1a29dea10,0.087,0.0872,0,22,22,19,1,twofour,,,,,,,,,,,,,,,,,,,,,,,,,,,,,,,,,,,,,,,,,,,,,,,,,,,,,,,,,,,,,,,,,,,,,,,,,,,,,,,,,,,,,,,,,,,,,,,,,,,,,,,,,,,,,,,,,,,,,,,,,,,,,,,,,,,,,,,
,,5fa472cf29a8e70f22c5d521,2023-12-07_07h31.43.141,kallum_motion_pilot,2023.2.3,Win32,30.14318011,5fa472cf29a8e70f22c5d521,6560176e4d91f764e2a42c74,657158935aaa6fe1a29dea10,0.0875,0.0878,0,23,23,27,1,twofour,,,,,,,,,,,,,,,,,,,,,,,,,,,,,,,,,,,,,,,,,,,,,,,,,,,,,,,,,,,,,,,,,,,,,,,,,,,,,,,,,,,,,,,,,,,,,,,,,,,,,,,,,,,,,,,,,,,,,,,,,,,,,,,,,,,,,,,
,,5fa472cf29a8e70f22c5d521,2023-12-07_07h31.43.141,kallum_motion_pilot,2023.2.3,Win32,30.14318011,5fa472cf29a8e70f22c5d521,6560176e4d91f764e2a42c74,657158935aaa6fe1a29dea10,0.0881,0.0888,0,24,24,45,1,threefour,,,,,,,,,,,,,,,,,,,,,,,,,,,,,,,,,,,,,,,,,,,,,,,,,,,,,,,,,,,,,,,,,,,,,,,,,,,,,,,,,,,,,,,,,,,,,,,,,,,,,,,,,,,,,,,,,,,,,,,,,,,,,,,,,,,,,,,
,,5fa472cf29a8e70f22c5d521,2023-12-07_07h31.43.141,kallum_motion_pilot,2023.2.3,Win32,30.14318011,5fa472cf29a8e70f22c5d521,6560176e4d91f764e2a42c74,657158935aaa6fe1a29dea10,0.0892,0.0894,0,25,25,38,1,fourtwo,,,,,,,,,,,,,,,,,,,,,,,,,,,,,,,,,,,,,,,,,,,,,,,,,,,,,,,,,,,,,,,,,,,,,,,,,,,,,,,,,,,,,,,,,,,,,,,,,,,,,,,,,,,,,,,,,,,,,,,,,,,,,,,,,,,,,,,
,,5fa472cf29a8e70f22c5d521,2023-12-07_07h31.43.141,kallum_motion_pilot,2023.2.3,Win32,30.14318011,5fa472cf29a8e70f22c5d521,6560176e4d91f764e2a42c74,657158935aaa6fe1a29dea10,0.0898,0.09,0,26,26,62,1,fourtwo,,,,,,,,,,,,,,,,,,,,,,,,,,,,,,,,,,,,,,,,,,,,,,,,,,,,,,,,,,,,,,,,,,,,,,,,,,,,,,,,,,,,,,,,,,,,,,,,,,,,,,,,,,,,,,,,,,,,,,,,,,,,,,,,,,,,,,,
,,5fa472cf29a8e70f22c5d521,2023-12-07_07h31.43.141,kallum_motion_pilot,2023.2.3,Win32,30.14318011,5fa472cf29a8e70f22c5d521,6560176e4d91f764e2a42c74,657158935aaa6fe1a29dea10,0.0904,0.0906,0,27,27,111,1,eightseven,,,,,,,,,,,,,,,,,,,,,,,,,,,,,,,,,,,,,,,,,,,,,,,,,,,,,,,,,,,,,,,,,,,,,,,,,,,,,,,,,,,,,,,,,,,,,,,,,,,,,,,,,,,,,,,,,,,,,,,,,,,,,,,,,,,,,,,
,,5fa472cf29a8e70f22c5d521,2023-12-07_07h31.43.141,kallum_motion_pilot,2023.2.3,Win32,30.14318011,5fa472cf29a8e70f22c5d521,6560176e4d91f764e2a42c74,657158935aaa6fe1a29dea10,0.091,0.0912,0,28,28,71,1,fourthree,,,,,,,,,,,,,,,,,,,,,,,,,,,,,,,,,,,,,,,,,,,,,,,,,,,,,,,,,,,,,,,,,,,,,,,,,,,,,,,,,,,,,,,,,,,,,,,,,,,,,,,,,,,,,,,,,,,,,,,,,,,,,,,,,,,,,,,
,,5fa472cf29a8e70f22c5d521,2023-12-07_07h31.43.141,kallum_motion_pilot,2023.2.3,Win32,30.14318011,5fa472cf29a8e70f22c5d521,6560176e4d91f764e2a42c74,657158935aaa6fe1a29dea10,0.0915,0.0918,0,29,29,98,1,sixfive,,,,,,,,,,,,,,,,,,,,,,,,,,,,,,,,,,,,,,,,,,,,,,,,,,,,,,,,,,,,,,,,,,,,,,,,,,,,,,,,,,,,,,,,,,,,,,,,,,,,,,,,,,,,,,,,,,,,,,,,,,,,,,,,,,,,,,,
,,5fa472cf29a8e70f22c5d521,2023-12-07_07h31.43.141,kallum_motion_pilot,2023.2.3,Win32,30.14318011,5fa472cf29a8e70f22c5d521,6560176e4d91f764e2a42c74,657158935aaa6fe1a29dea10,0.0921,0.0924,0,30,30,77,1,threefour,,,,,,,,,,,,,,,,,,,,,,,,,,,,,,,,,,,,,,,,,,,,,,,,,,,,,,,,,,,,,,,,,,,,,,,,,,,,,,,,,,,,,,,,,,,,,,,,,,,,,,,,,,,,,,,,,,,,,,,,,,,,,,,,,,,,,,,
,,5fa472cf29a8e70f22c5d521,2023-12-07_07h31.43.141,kallum_motion_pilot,2023.2.3,Win32,30.14318011,5fa472cf29a8e70f22c5d521,6560176e4d91f764e2a42c74,657158935aaa6fe1a29dea10,0.0927,0.0929,0,31,31,60,1,threeone,,,,,,,,,,,,,,,,,,,,,,,,,,,,,,,,,,,,,,,,,,,,,,,,,,,,,,,,,,,,,,,,,,,,,,,,,,,,,,,,,,,,,,,,,,,,,,,,,,,,,,,,,,,,,,,,,,,,,,,,,,,,,,,,,,,,,,,
,,5fa472cf29a8e70f22c5d521,2023-12-07_07h31.43.141,kallum_motion_pilot,2023.2.3,Win32,30.14318011,5fa472cf29a8e70f22c5d521,6560176e4d91f764e2a42c74,657158935aaa6fe1a29dea10,0.0934,0.0936,0,32,32,99,1,sixeight,,,,,,,,,,,,,,,,,,,,,,,,,,,,,,,,,,,,,,,,,,,,,,,,,,,,,,,,,,,,,,,,,,,,,,,,,,,,,,,,,,,,,,,,,,,,,,,,,,,,,,,,,,,,,,,,,,,,,,,,,,,,,,,,,,,,,,,
,,5fa472cf29a8e70f22c5d521,2023-12-07_07h31.43.141,kallum_motion_pilot,2023.2.3,Win32,30.14318011,5fa472cf29a8e70f22c5d521,6560176e4d91f764e2a42c74,657158935aaa6fe1a29dea10,0.0939,0.0942,0,33,33,32,1,onetwo,,,,,,,,,,,,,,,,,,,,,,,,,,,,,,,,,,,,,,,,,,,,,,,,,,,,,,,,,,,,,,,,,,,,,,,,,,,,,,,,,,,,,,,,,,,,,,,,,,,,,,,,,,,,,,,,,,,,,,,,,,,,,,,,,,,,,,,
,,5fa472cf29a8e70f22c5d521,2023-12-07_07h31.43.141,kallum_motion_pilot,2023.2.3,Win32,30.14318011,5fa472cf29a8e70f22c5d521,6560176e4d91f764e2a42c74,657158935aaa6fe1a29dea10,0.0946,0.0948,0,34,34,57,1,onethree,,,,,,,,,,,,,,,,,,,,,,,,,,,,,,,,,,,,,,,,,,,,,,,,,,,,,,,,,,,,,,,,,,,,,,,,,,,,,,,,,,,,,,,,,,,,,,,,,,,,,,,,,,,,,,,,,,,,,,,,,,,,,,,,,,,,,,,
,,5fa472cf29a8e70f22c5d521,2023-12-07_07h31.43.141,kallum_motion_pilot,2023.2.3,Win32,30.14318011,5fa472cf29a8e70f22c5d521,6560176e4d91f764e2a42c74,657158935aaa6fe1a29dea10,0.0951,0.0953,0,35,35,29,1,threefour,,,,,,,,,,,,,,,,,,,,,,,,,,,,,,,,,,,,,,,,,,,,,,,,,,,,,,,,,,,,,,,,,,,,,,,,,,,,,,,,,,,,,,,,,,,,,,,,,,,,,,,,,,,,,,,,,,,,,,,,,,,,,,,,,,,,,,,
,,5fa472cf29a8e70f22c5d521,2023-12-07_07h31.43.141,kallum_motion_pilot,2023.2.3,Win32,30.14318011,5fa472cf29a8e70f22c5d521,6560176e4d91f764e2a42c74,657158935aaa6fe1a29dea10,0.0957,0.0959,0,36,36,119,1,eightseven,,,,,,,,,,,,,,,,,,,,,,,,,,,,,,,,,,,,,,,,,,,,,,,,,,,,,,,,,,,,,,,,,,,,,,,,,,,,,,,,,,,,,,,,,,,,,,,,,,,,,,,,,,,,,,,,,,,,,,,,,,,,,,,,,,,,,,,
,,5fa472cf29a8e70f22c5d521,2023-12-07_07h31.43.141,kallum_motion_pilot,2023.2.3,Win32,30.14318011,5fa472cf29a8e70f22c5d521,6560176e4d91f764e2a42c74,657158935aaa6fe1a29dea10,0.0963,0.0965,0,37,37,46,1,fourtwo,,,,,,,,,,,,,,,,,,,,,,,,,,,,,,,,,,,,,,,,,,,,,,,,,,,,,,,,,,,,,,,,,,,,,,,,,,,,,,,,,,,,,,,,,,,,,,,,,,,,,,,,,,,,,,,,,,,,,,,,,,,,,,,,,,,,,,,
,,5fa472cf29a8e70f22c5d521,2023-12-07_07h31.43.141,kallum_motion_pilot,2023.2.3,Win32,30.14318011,5fa472cf29a8e70f22c5d521,6560176e4d91f764e2a42c74,657158935aaa6fe1a29dea10,0.0968,0.0971,0,38,38,142,1,eightsix,,,,,,,,,,,,,,,,,,,,,,,,,,,,,,,,,,,,,,,,,,,,,,,,,,,,,,,,,,,,,,,,,,,,,,,,,,,,,,,,,,,,,,,,,,,,,,,,,,,,,,,,,,,,,,,,,,,,,,,,,,,,,,,,,,,,,,,
,,5fa472cf29a8e70f22c5d521,2023-12-07_07h31.43.141,kallum_motion_pilot,2023.2.3,Win32,30.14318011,5fa472cf29a8e70f22c5d521,6560176e4d91f764e2a42c74,657158935aaa6fe1a29dea10,0.0975,0.0977,0,39,39,91,1,sixeight,,,,,,,,,,,,,,,,,,,,,,,,,,,,,,,,,,,,,,,,,,,,,,,,,,,,,,,,,,,,,,,,,,,,,,,,,,,,,,,,,,,,,,,,,,,,,,,,,,,,,,,,,,,,,,,,,,,,,,,,,,,,,,,,,,,,,,,
,,5fa472cf29a8e70f22c5d521,2023-12-07_07h31.43.141,kallum_motion_pilot,2023.2.3,Win32,30.14318011,5fa472cf29a8e70f22c5d521,6560176e4d91f764e2a42c74,657158935aaa6fe1a29dea10,0.098,0.0983,0,40,40,87,1,eightseven,,,,,,,,,,,,,,,,,,,,,,,,,,,,,,,,,,,,,,,,,,,,,,,,,,,,,,,,,,,,,,,,,,,,,,,,,,,,,,,,,,,,,,,,,,,,,,,,,,,,,,,,,,,,,,,,,,,,,,,,,,,,,,,,,,,,,,,
,,5fa472cf29a8e70f22c5d521,2023-12-07_07h31.43.141,kallum_motion_pilot,2023.2.3,Win32,30.14318011,5fa472cf29a8e70f22c5d521,6560176e4d91f764e2a42c74,657158935aaa6fe1a29dea10,0.0986,0.0989,0,41,41,24,1,onetwo,,,,,,,,,,,,,,,,,,,,,,,,,,,,,,,,,,,,,,,,,,,,,,,,,,,,,,,,,,,,,,,,,,,,,,,,,,,,,,,,,,,,,,,,,,,,,,,,,,,,,,,,,,,,,,,,,,,,,,,,,,,,,,,,,,,,,,,
,,5fa472cf29a8e70f22c5d521,2023-12-07_07h31.43.141,kallum_motion_pilot,2023.2.3,Win32,30.14318011,5fa472cf29a8e70f22c5d521,6560176e4d91f764e2a42c74,657158935aaa6fe1a29dea10,0.0992,0.0994,0,42,42,20,1,threeone,,,,,,,,,,,,,,,,,,,,,,,,,,,,,,,,,,,,,,,,,,,,,,,,,,,,,,,,,,,,,,,,,,,,,,,,,,,,,,,,,,,,,,,,,,,,,,,,,,,,,,,,,,,,,,,,,,,,,,,,,,,,,,,,,,,,,,,
,,5fa472cf29a8e70f22c5d521,2023-12-07_07h31.43.141,kallum_motion_pilot,2023.2.3,Win32,30.14318011,5fa472cf29a8e70f22c5d521,6560176e4d91f764e2a42c74,657158935aaa6fe1a29dea10,0.1001,0.1003,0,43,43,41,1,onethree,,,,,,,,,,,,,,,,,,,,,,,,,,,,,,,,,,,,,,,,,,,,,,,,,,,,,,,,,,,,,,,,,,,,,,,,,,,,,,,,,,,,,,,,,,,,,,,,,,,,,,,,,,,,,,,,,,,,,,,,,,,,,,,,,,,,,,,
,,5fa472cf29a8e70f22c5d521,2023-12-07_07h31.43.141,kallum_motion_pilot,2023.2.3,Win32,30.14318011,5fa472cf29a8e70f22c5d521,6560176e4d91f764e2a42c74,657158935aaa6fe1a29dea10,0.1007,0.1009,0,44,44,51,1,twofour,,,,,,,,,,,,,,,,,,,,,,,,,,,,,,,,,,,,,,,,,,,,,,,,,,,,,,,,,,,,,,,,,,,,,,,,,,,,,,,,,,,,,,,,,,,,,,,,,,,,,,,,,,,,,,,,,,,,,,,,,,,,,,,,,,,,,,,
,,5fa472cf29a8e70f22c5d521,2023-12-07_07h31.43.141,kallum_motion_pilot,2023.2.3,Win32,30.14318011,5fa472cf29a8e70f22c5d521,6560176e4d91f764e2a42c74,657158935aaa6fe1a29dea10,0.1013,0.1016,0,45,45,12,1,threeone,,,,,,,,,,,,,,,,,,,,,,,,,,,,,,,,,,,,,,,,,,,,,,,,,,,,,,,,,,,,,,,,,,,,,,,,,,,,,,,,,,,,,,,,,,,,,,,,,,,,,,,,,,,,,,,,,,,,,,,,,,,,,,,,,,,,,,,
,,5fa472cf29a8e70f22c5d521,2023-12-07_07h31.43.141,kallum_motion_pilot,2023.2.3,Win32,30.14318011,5fa472cf29a8e70f22c5d521,6560176e4d91f764e2a42c74,657158935aaa6fe1a29dea10,0.1019,0.1022,0,46,46,44,1,threeone,,,,,,,,,,,,,,,,,,,,,,,,,,,,,,,,,,,,,,,,,,,,,,,,,,,,,,,,,,,,,,,,,,,,,,,,,,,,,,,,,,,,,,,,,,,,,,,,,,,,,,,,,,,,,,,,,,,,,,,,,,,,,,,,,,,,,,,
,,5fa472cf29a8e70f22c5d521,2023-12-07_07h31.43.141,kallum_motion_pilot,2023.2.3,Win32,30.14318011,5fa472cf29a8e70f22c5d521,6560176e4d91f764e2a42c74,657158935aaa6fe1a29dea10,0.1025,0.1027,0,47,47,155,1,sixeight,,,,,,,,,,,,,,,,,,,,,,,,,,,,,,,,,,,,,,,,,,,,,,,,,,,,,,,,,,,,,,,,,,,,,,,,,,,,,,,,,,,,,,,,,,,,,,,,,,,,,,,,,,,,,,,,,,,,,,,,,,,,,,,,,,,,,,,
,,5fa472cf29a8e70f22c5d521,2023-12-07_07h31.43.141,kallum_motion_pilot,2023.2.3,Win32,30.14318011,5fa472cf29a8e70f22c5d521,6560176e4d91f764e2a42c74,657158935aaa6fe1a29dea10,0.1031,0.1033,0,48,48,42,1,twoone,,,,,,,,,,,,,,,,,,,,,,,,,,,,,,,,,,,,,,,,,,,,,,,,,,,,,,,,,,,,,,,,,,,,,,,,,,,,,,,,,,,,,,,,,,,,,,,,,,,,,,,,,,,,,,,,,,,,,,,,,,,,,,,,,,,,,,,
,,5fa472cf29a8e70f22c5d521,2023-12-07_07h31.43.141,kallum_motion_pilot,2023.2.3,Win32,30.14318011,5fa472cf29a8e70f22c5d521,6560176e4d91f764e2a42c74,657158935aaa6fe1a29dea10,0.1037,0.1039,0,49,49,93,1,seveneight,,,,,,,,,,,,,,,,,,,,,,,,,,,,,,,,,,,,,,,,,,,,,,,,,,,,,,,,,,,,,,,,,,,,,,,,,,,,,,,,,,,,,,,,,,,,,,,,,,,,,,,,,,,,,,,,,,,,,,,,,,,,,,,,,,,,,,,
,,5fa472cf29a8e70f22c5d521,2023-12-07_07h31.43.141,kallum_motion_pilot,2023.2.3,Win32,30.14318011,5fa472cf29a8e70f22c5d521,6560176e4d91f764e2a42c74,657158935aaa6fe1a29dea10,0.1043,0.1045,0,50,50,124,1,sevenfive,,,,,,,,,,,,,,,,,,,,,,,,,,,,,,,,,,,,,,,,,,,,,,,,,,,,,,,,,,,,,,,,,,,,,,,,,,,,,,,,,,,,,,,,,,,,,,,,,,,,,,,,,,,,,,,,,,,,,,,,,,,,,,,,,,,,,,,
,,5fa472cf29a8e70f22c5d521,2023-12-07_07h31.43.141,kallum_motion_pilot,2023.2.3,Win32,30.14318011,5fa472cf29a8e70f22c5d521,6560176e4d91f764e2a42c74,657158935aaa6fe1a29dea10,0.1053,0.1056,0,51,51,75,1,twofour,,,,,,,,,,,,,,,,,,,,,,,,,,,,,,,,,,,,,,,,,,,,,,,,,,,,,,,,,,,,,,,,,,,,,,,,,,,,,,,,,,,,,,,,,,,,,,,,,,,,,,,,,,,,,,,,,,,,,,,,,,,,,,,,,,,,,,,
,,5fa472cf29a8e70f22c5d521,2023-12-07_07h31.43.141,kallum_motion_pilot,2023.2.3,Win32,30.14318011,5fa472cf29a8e70f22c5d521,6560176e4d91f764e2a42c74,657158935aaa6fe1a29dea10,0.1059,0.1062,0,52,52,26,1,twoone,,,,,,,,,,,,,,,,,,,,,,,,,,,,,,,,,,,,,,,,,,,,,,,,,,,,,,,,,,,,,,,,,,,,,,,,,,,,,,,,,,,,,,,,,,,,,,,,,,,,,,,,,,,,,,,,,,,,,,,,,,,,,,,,,,,,,,,
,,5fa472cf29a8e70f22c5d521,2023-12-07_07h31.43.141,kallum_motion_pilot,2023.2.3,Win32,30.14318011,5fa472cf29a8e70f22c5d521,6560176e4d91f764e2a42c74,657158935aaa6fe1a29dea10,0.1066,0.1068,0,53,53,73,1,onethree,,,,,,,,,,,,,,,,,,,,,,,,,,,,,,,,,,,,,,,,,,,,,,,,,,,,,,,,,,,,,,,,,,,,,,,,,,,,,,,,,,,,,,,,,,,,,,,,,,,,,,,,,,,,,,,,,,,,,,,,,,,,,,,,,,,,,,,
,,5fa472cf29a8e70f22c5d521,2023-12-07_07h31.43.141,kallum_motion_pilot,2023.2.3,Win32,30.14318011,5fa472cf29a8e70f22c5d521,6560176e4d91f764e2a42c74,657158935aaa6fe1a29dea10,0.1072,0.1074,0,54,54,79,1,eightseven,,,,,,,,,,,,,,,,,,,,,,,,,,,,,,,,,,,,,,,,,,,,,,,,,,,,,,,,,,,,,,,,,,,,,,,,,,,,,,,,,,,,,,,,,,,,,,,,,,,,,,,,,,,,,,,,,,,,,,,,,,,,,,,,,,,,,,,
,,5fa472cf29a8e70f22c5d521,2023-12-07_07h31.43.141,kallum_motion_pilot,2023.2.3,Win32,30.14318011,5fa472cf29a8e70f22c5d521,6560176e4d91f764e2a42c74,657158935aaa6fe1a29dea10,0.1078,0.108,0,55,55,129,1,fiveseven,,,,,,,,,,,,,,,,,,,,,,,,,,,,,,,,,,,,,,,,,,,,,,,,,,,,,,,,,,,,,,,,,,,,,,,,,,,,,,,,,,,,,,,,,,,,,,,,,,,,,,,,,,,,,,,,,,,,,,,,,,,,,,,,,,,,,,,
,,5fa472cf29a8e70f22c5d521,2023-12-07_07h31.43.141,kallum_motion_pilot,2023.2.3,Win32,30.14318011,5fa472cf29a8e70f22c5d521,6560176e4d91f764e2a42c74,657158935aaa6fe1a29dea10,0.1084,0.1086,0,56,56,76,1,threeone,,,,,,,,,,,,,,,,,,,,,,,,,,,,,,,,,,,,,,,,,,,,,,,,,,,,,,,,,,,,,,,,,,,,,,,,,,,,,,,,,,,,,,,,,,,,,,,,,,,,,,,,,,,,,,,,,,,,,,,,,,,,,,,,,,,,,,,
,,5fa472cf29a8e70f22c5d521,2023-12-07_07h31.43.141,kallum_motion_pilot,2023.2.3,Win32,30.14318011,5fa472cf29a8e70f22c5d521,6560176e4d91f764e2a42c74,657158935aaa6fe1a29dea10,0.109,0.1093,0,57,57,152,1,fivesix,,,,,,,,,,,,,,,,,,,,,,,,,,,,,,,,,,,,,,,,,,,,,,,,,,,,,,,,,,,,,,,,,,,,,,,,,,,,,,,,,,,,,,,,,,,,,,,,,,,,,,,,,,,,,,,,,,,,,,,,,,,,,,,,,,,,,,,
,,5fa472cf29a8e70f22c5d521,2023-12-07_07h31.43.141,kallum_motion_pilot,2023.2.3,Win32,30.14318011,5fa472cf29a8e70f22c5d521,6560176e4d91f764e2a42c74,657158935aaa6fe1a29dea10,0.1096,0.1099,0,58,58,6,1,fourtwo,,,,,,,,,,,,,,,,,,,,,,,,,,,,,,,,,,,,,,,,,,,,,,,,,,,,,,,,,,,,,,,,,,,,,,,,,,,,,,,,,,,,,,,,,,,,,,,,,,,,,,,,,,,,,,,,,,,,,,,,,,,,,,,,,,,,,,,
,,5fa472cf29a8e70f22c5d521,2023-12-07_07h31.43.141,kallum_motion_pilot,2023.2.3,Win32,30.14318011,5fa472cf29a8e70f22c5d521,6560176e4d91f764e2a42c74,657158935aaa6fe1a29dea10,0.1103,0.1105,0,59,59,154,1,sixfive,,,,,,,,,,,,,,,,,,,,,,,,,,,,,,,,,,,,,,,,,,,,,,,,,,,,,,,,,,,,,,,,,,,,,,,,,,,,,,,,,,,,,,,,,,,,,,,,,,,,,,,,,,,,,,,,,,,,,,,,,,,,,,,,,,,,,,,
,,5fa472cf29a8e70f22c5d521,2023-12-07_07h31.43.141,kallum_motion_pilot,2023.2.3,Win32,30.14318011,5fa472cf29a8e70f22c5d521,6560176e4d91f764e2a42c74,657158935aaa6fe1a29dea10,0.1109,0.1112,0,60,60,141,1,seveneight,,,,,,,,,,,,,,,,,,,,,,,,,,,,,,,,,,,,,,,,,,,,,,,,,,,,,,,,,,,,,,,,,,,,,,,,,,,,,,,,,,,,,,,,,,,,,,,,,,,,,,,,,,,,,,,,,,,,,,,,,,,,,,,,,,,,,,,
,,5fa472cf29a8e70f22c5d521,2023-12-07_07h31.43.141,kallum_motion_pilot,2023.2.3,Win32,30.14318011,5fa472cf29a8e70f22c5d521,6560176e4d91f764e2a42c74,657158935aaa6fe1a29dea10,0.1115,0.1118,0,61,61,2,1,twoone,,,,,,,,,,,,,,,,,,,,,,,,,,,,,,,,,,,,,,,,,,,,,,,,,,,,,,,,,,,,,,,,,,,,,,,,,,,,,,,,,,,,,,,,,,,,,,,,,,,,,,,,,,,,,,,,,,,,,,,,,,,,,,,,,,,,,,,
,,5fa472cf29a8e70f22c5d521,2023-12-07_07h31.43.141,kallum_motion_pilot,2023.2.3,Win32,30.14318011,5fa472cf29a8e70f22c5d521,6560176e4d91f764e2a42c74,657158935aaa6fe1a29dea10,0.1121,0.1123,0,62,62,15,1,fourthree,,,,,,,,,,,,,,,,,,,,,,,,,,,,,,,,,,,,,,,,,,,,,,,,,,,,,,,,,,,,,,,,,,,,,,,,,,,,,,,,,,,,,,,,,,,,,,,,,,,,,,,,,,,,,,,,,,,,,,,,,,,,,,,,,,,,,,,
,,5fa472cf29a8e70f22c5d521,2023-12-07_07h31.43.141,kallum_motion_pilot,2023.2.3,Win32,30.14318011,5fa472cf29a8e70f22c5d521,6560176e4d91f764e2a42c74,657158935aaa6fe1a29dea10,0.1127,0.113,0,63,63,48,1,onetwo,,,,,,,,,,,,,,,,,,,,,,,,,,,,,,,,,,,,,,,,,,,,,,,,,,,,,,,,,,,,,,,,,,,,,,,,,,,,,,,,,,,,,,,,,,,,,,,,,,,,,,,,,,,,,,,,,,,,,,,,,,,,,,,,,,,,,,,
,,5fa472cf29a8e70f22c5d521,2023-12-07_07h31.43.141,kallum_motion_pilot,2023.2.3,Win32,30.14318011,5fa472cf29a8e70f22c5d521,6560176e4d91f764e2a42c74,657158935aaa6fe1a29dea10,0.1134,0.1136,0,64,64,114,1,sixfive,,,,,,,,,,,,,,,,,,,,,,,,,,,,,,,,,,,,,,,,,,,,,,,,,,,,,,,,,,,,,,,,,,,,,,,,,,,,,,,,,,,,,,,,,,,,,,,,,,,,,,,,,,,,,,,,,,,,,,,,,,,,,,,,,,,,,,,
,,5fa472cf29a8e70f22c5d521,2023-12-07_07h31.43.141,kallum_motion_pilot,2023.2.3,Win32,30.14318011,5fa472cf29a8e70f22c5d521,6560176e4d91f764e2a42c74,657158935aaa6fe1a29dea10,0.114,0.1142,0,65,65,118,1,eightsix,,,,,,,,,,,,,,,,,,,,,,,,,,,,,,,,,,,,,,,,,,,,,,,,,,,,,,,,,,,,,,,,,,,,,,,,,,,,,,,,,,,,,,,,,,,,,,,,,,,,,,,,,,,,,,,,,,,,,,,,,,,,,,,,,,,,,,,
,,5fa472cf29a8e70f22c5d521,2023-12-07_07h31.43.141,kallum_motion_pilot,2023.2.3,Win32,30.14318011,5fa472cf29a8e70f22c5d521,6560176e4d91f764e2a42c74,657158935aaa6fe1a29dea10,0.1146,0.1149,0,66,66,39,1,fourthree,,,,,,,,,,,,,,,,,,,,,,,,,,,,,,,,,,,,,,,,,,,,,,,,,,,,,,,,,,,,,,,,,,,,,,,,,,,,,,,,,,,,,,,,,,,,,,,,,,,,,,,,,,,,,,,,,,,,,,,,,,,,,,,,,,,,,,,
,,5fa472cf29a8e70f22c5d521,2023-12-07_07h31.43.141,kallum_motion_pilot,2023.2.3,Win32,30.14318011,5fa472cf29a8e70f22c5d521,6560176e4d91f764e2a42c74,657158935aaa6fe1a29dea10,0.1153,0.1156,0,67,67,35,1,twofour,,,,,,,,,,,,,,,,,,,,,,,,,,,,,,,,,,,,,,,,,,,,,,,,,,,,,,,,,,,,,,,,,,,,,,,,,,,,,,,,,,,,,,,,,,,,,,,,,,,,,,,,,,,,,,,,,,,,,,,,,,,,,,,,,,,,,,,
,,5fa472cf29a8e70f22c5d521,2023-12-07_07h31.43.141,kallum_motion_pilot,2023.2.3,Win32,30.14318011,5fa472cf29a8e70f22c5d521,6560176e4d91f764e2a42c74,657158935aaa6fe1a29dea10,0.1159,0.1162,0,68,68,68,1,threeone,,,,,,,,,,,,,,,,,,,,,,,,,,,,,,,,,,,,,,,,,,,,,,,,,,,,,,,,,,,,,,,,,,,,,,,,,,,,,,,,,,,,,,,,,,,,,,,,,,,,,,,,,,,,,,,,,,,,,,,,,,,,,,,,,,,,,,,
,,5fa472cf29a8e70f22c5d521,2023-12-07_07h31.43.141,kallum_motion_pilot,2023.2.3,Win32,30.14318011,5fa472cf29a8e70f22c5d521,6560176e4d91f764e2a42c74,657158935aaa6fe1a29dea10,0.1165,0.1168,0,69,69,102,1,eightsix,,,,,,,,,,,,,,,,,,,,,,,,,,,,,,,,,,,,,,,,,,,,,,,,,,,,,,,,,,,,,,,,,,,,,,,,,,,,,,,,,,,,,,,,,,,,,,,,,,,,,,,,,,,,,,,,,,,,,,,,,,,,,,,,,,,,,,,
,,5fa472cf29a8e70f22c5d521,2023-12-07_07h31.43.141,kallum_motion_pilot,2023.2.3,Win32,30.14318011,5fa472cf29a8e70f22c5d521,6560176e4d91f764e2a42c74,657158935aaa6fe1a29dea10,0.1172,0.1175,0,70,70,117,1,seveneight,,,,,,,,,,,,,,,,,,,,,,,,,,,,,,,,,,,,,,,,,,,,,,,,,,,,,,,,,,,,,,,,,,,,,,,,,,,,,,,,,,,,,,,,,,,,,,,,,,,,,,,,,,,,,,,,,,,,,,,,,,,,,,,,,,,,,,,
,,5fa472cf29a8e70f22c5d521,2023-12-07_07h31.43.141,kallum_motion_pilot,2023.2.3,Win32,30.14318011,5fa472cf29a8e70f22c5d521,6560176e4d91f764e2a42c74,657158935aaa6fe1a29dea10,0.1179,0.118,0,71,71,137,1,fiveseven,,,,,,,,,,,,,,,,,,,,,,,,,,,,,,,,,,,,,,,,,,,,,,,,,,,,,,,,,,,,,,,,,,,,,,,,,,,,,,,,,,,,,,,,,,,,,,,,,,,,,,,,,,,,,,,,,,,,,,,,,,,,,,,,,,,,,,,
,,5fa472cf29a8e70f22c5d521,2023-12-07_07h31.43.141,kallum_motion_pilot,2023.2.3,Win32,30.14318011,5fa472cf29a8e70f22c5d521,6560176e4d91f764e2a42c74,657158935aaa6fe1a29dea10,0.1185,0.1186,0,72,72,147,1,sixeight,,,,,,,,,,,,,,,,,,,,,,,,,,,,,,,,,,,,,,,,,,,,,,,,,,,,,,,,,,,,,,,,,,,,,,,,,,,,,,,,,,,,,,,,,,,,,,,,,,,,,,,,,,,,,,,,,,,,,,,,,,,,,,,,,,,,,,,
,,5fa472cf29a8e70f22c5d521,2023-12-07_07h31.43.141,kallum_motion_pilot,2023.2.3,Win32,30.14318011,5fa472cf29a8e70f22c5d521,6560176e4d91f764e2a42c74,657158935aaa6fe1a29dea10,0.1189,0.1192,0,73,73,88,1,fivesix,,,,,,,,,,,,,,,,,,,,,,,,,,,,,,,,,,,,,,,,,,,,,,,,,,,,,,,,,,,,,,,,,,,,,,,,,,,,,,,,,,,,,,,,,,,,,,,,,,,,,,,,,,,,,,,,,,,,,,,,,,,,,,,,,,,,,,,
,,5fa472cf29a8e70f22c5d521,2023-12-07_07h31.43.141,kallum_motion_pilot,2023.2.3,Win32,30.14318011,5fa472cf29a8e70f22c5d521,6560176e4d91f764e2a42c74,657158935aaa6fe1a29dea10,0.1196,0.1199,0,74,74,25,1,onethree,,,,,,,,,,,,,,,,,,,,,,,,,,,,,,,,,,,,,,,,,,,,,,,,,,,,,,,,,,,,,,,,,,,,,,,,,,,,,,,,,,,,,,,,,,,,,,,,,,,,,,,,,,,,,,,,,,,,,,,,,,,,,,,,,,,,,,,
,,5fa472cf29a8e70f22c5d521,2023-12-07_07h31.43.141,kallum_motion_pilot,2023.2.3,Win32,30.14318011,5fa472cf29a8e70f22c5d521,6560176e4d91f764e2a42c74,657158935aaa6fe1a29dea10,0.1204,0.1207,0,75,75,85,1,seveneight,,,,,,,,,,,,,,,,,,,,,,,,,,,,,,,,,,,,,,,,,,,,,,,,,,,,,,,,,,,,,,,,,,,,,,,,,,,,,,,,,,,,,,,,,,,,,,,,,,,,,,,,,,,,,,,,,,,,,,,,,,,,,,,,,,,,,,,
,,5fa472cf29a8e70f22c5d521,2023-12-07_07h31.43.141,kallum_motion_pilot,2023.2.3,Win32,30.14318011,5fa472cf29a8e70f22c5d521,6560176e4d91f764e2a42c74,657158935aaa6fe1a29dea10,0.121,0.1211,0,76,76,9,1,onethree,,,,,,,,,,,,,,,,,,,,,,,,,,,,,,,,,,,,,,,,,,,,,,,,,,,,,,,,,,,,,,,,,,,,,,,,,,,,,,,,,,,,,,,,,,,,,,,,,,,,,,,,,,,,,,,,,,,,,,,,,,,,,,,,,,,,,,,
,,5fa472cf29a8e70f22c5d521,2023-12-07_07h31.43.141,kallum_motion_pilot,2023.2.3,Win32,30.14318011,5fa472cf29a8e70f22c5d521,6560176e4d91f764e2a42c74,657158935aaa6fe1a29dea10,0.1215,0.1219,0,77,77,23,1,fourthree,,,,,,,,,,,,,,,,,,,,,,,,,,,,,,,,,,,,,,,,,,,,,,,,,,,,,,,,,,,,,,,,,,,,,,,,,,,,,,,,,,,,,,,,,,,,,,,,,,,,,,,,,,,,,,,,,,,,,,,,,,,,,,,,,,,,,,,
,,5fa472cf29a8e70f22c5d521,2023-12-07_07h31.43.141,kallum_motion_pilot,2023.2.3,Win32,30.14318011,5fa472cf29a8e70f22c5d521,6560176e4d91f764e2a42c74,657158935aaa6fe1a29dea10,0.1224,0.1225,0,78,78,149,1,seveneight,,,,,,,,,,,,,,,,,,,,,,,,,,,,,,,,,,,,,,,,,,,,,,,,,,,,,,,,,,,,,,,,,,,,,,,,,,,,,,,,,,,,,,,,,,,,,,,,,,,,,,,,,,,,,,,,,,,,,,,,,,,,,,,,,,,,,,,
,,5fa472cf29a8e70f22c5d521,2023-12-07_07h31.43.141,kallum_motion_pilot,2023.2.3,Win32,30.14318011,5fa472cf29a8e70f22c5d521,6560176e4d91f764e2a42c74,657158935aaa6fe1a29dea10,0.1227,0.123,0,79,79,138,1,sixfive,,,,,,,,,,,,,,,,,,,,,,,,,,,,,,,,,,,,,,,,,,,,,,,,,,,,,,,,,,,,,,,,,,,,,,,,,,,,,,,,,,,,,,,,,,,,,,,,,,,,,,,,,,,,,,,,,,,,,,,,,,,,,,,,,,,,,,,
,,5fa472cf29a8e70f22c5d521,2023-12-07_07h31.43.141,kallum_motion_pilot,2023.2.3,Win32,30.14318011,5fa472cf29a8e70f22c5d521,6560176e4d91f764e2a42c74,657158935aaa6fe1a29dea10,0.1232,0.1233,0,80,80,144,1,fivesix,,,,,,,,,,,,,,,,,,,,,,,,,,,,,,,,,,,,,,,,,,,,,,,,,,,,,,,,,,,,,,,,,,,,,,,,,,,,,,,,,,,,,,,,,,,,,,,,,,,,,,,,,,,,,,,,,,,,,,,,,,,,,,,,,,,,,,,
,,5fa472cf29a8e70f22c5d521,2023-12-07_07h31.43.141,kallum_motion_pilot,2023.2.3,Win32,30.14318011,5fa472cf29a8e70f22c5d521,6560176e4d91f764e2a42c74,657158935aaa6fe1a29dea10,0.1237,0.1238,0,81,81,157,1,seveneight,,,,,,,,,,,,,,,,,,,,,,,,,,,,,,,,,,,,,,,,,,,,,,,,,,,,,,,,,,,,,,,,,,,,,,,,,,,,,,,,,,,,,,,,,,,,,,,,,,,,,,,,,,,,,,,,,,,,,,,,,,,,,,,,,,,,,,,
,,5fa472cf29a8e70f22c5d521,2023-12-07_07h31.43.141,kallum_motion_pilot,2023.2.3,Win32,30.14318011,5fa472cf29a8e70f22c5d521,6560176e4d91f764e2a42c74,657158935aaa6fe1a29dea10,0.124,0.1242,0,82,82,140,1,sevenfive,,,,,,,,,,,,,,,,,,,,,,,,,,,,,,,,,,,,,,,,,,,,,,,,,,,,,,,,,,,,,,,,,,,,,,,,,,,,,,,,,,,,,,,,,,,,,,,,,,,,,,,,,,,,,,,,,,,,,,,,,,,,,,,,,,,,,,,
,,5fa472cf29a8e70f22c5d521,2023-12-07_07h31.43.141,kallum_motion_pilot,2023.2.3,Win32,30.14318011,5fa472cf29a8e70f22c5d521,6560176e4d91f764e2a42c74,657158935aaa6fe1a29dea10,0.1245,0.1246,0,83,83,143,1,eightseven,,,,,,,,,,,,,,,,,,,,,,,,,,,,,,,,,,,,,,,,,,,,,,,,,,,,,,,,,,,,,,,,,,,,,,,,,,,,,,,,,,,,,,,,,,,,,,,,,,,,,,,,,,,,,,,,,,,,,,,,,,,,,,,,,,,,,,,
,,5fa472cf29a8e70f22c5d521,2023-12-07_07h31.43.141,kallum_motion_pilot,2023.2.3,Win32,30.14318011,5fa472cf29a8e70f22c5d521,6560176e4d91f764e2a42c74,657158935aaa6fe1a29dea10,0.1249,0.125,0,84,84,139,1,sixeight,,,,,,,,,,,,,,,,,,,,,,,,,,,,,,,,,,,,,,,,,,,,,,,,,,,,,,,,,,,,,,,,,,,,,,,,,,,,,,,,,,,,,,,,,,,,,,,,,,,,,,,,,,,,,,,,,,,,,,,,,,,,,,,,,,,,,,,
,,5fa472cf29a8e70f22c5d521,2023-12-07_07h31.43.141,kallum_motion_pilot,2023.2.3,Win32,30.14318011,5fa472cf29a8e70f22c5d521,6560176e4d91f764e2a42c74,657158935aaa6fe1a29dea10,0.1253,0.1255,0,85,85,97,1,fiveseven,,,,,,,,,,,,,,,,,,,,,,,,,,,,,,,,,,,,,,,,,,,,,,,,,,,,,,,,,,,,,,,,,,,,,,,,,,,,,,,,,,,,,,,,,,,,,,,,,,,,,,,,,,,,,,,,,,,,,,,,,,,,,,,,,,,,,,,
,,5fa472cf29a8e70f22c5d521,2023-12-07_07h31.43.141,kallum_motion_pilot,2023.2.3,Win32,30.14318011,5fa472cf29a8e70f22c5d521,6560176e4d91f764e2a42c74,657158935aaa6fe1a29dea10,0.1257,0.1259,0,86,86,134,1,eightsix,,,,,,,,,,,,,,,,,,,,,,,,,,,,,,,,,,,,,,,,,,,,,,,,,,,,,,,,,,,,,,,,,,,,,,,,,,,,,,,,,,,,,,,,,,,,,,,,,,,,,,,,,,,,,,,,,,,,,,,,,,,,,,,,,,,,,,,
,,5fa472cf29a8e70f22c5d521,2023-12-07_07h31.43.141,kallum_motion_pilot,2023.2.3,Win32,30.14318011,5fa472cf29a8e70f22c5d521,6560176e4d91f764e2a42c74,657158935aaa6fe1a29dea10,0.1262,0.1263,0,87,87,123,1,sixeight,,,,,,,,,,,,,,,,,,,,,,,,,,,,,,,,,,,,,,,,,,,,,,,,,,,,,,,,,,,,,,,,,,,,,,,,,,,,,,,,,,,,,,,,,,,,,,,,,,,,,,,,,,,,,,,,,,,,,,,,,,,,,,,,,,,,,,,
,,5fa472cf29a8e70f22c5d521,2023-12-07_07h31.43.141,kallum_motion_pilot,2023.2.3,Win32,30.14318011,5fa472cf29a8e70f22c5d521,6560176e4d91f764e2a42c74,657158935aaa6fe1a29dea10,0.1266,0.1267,0,88,88,33,1,onethree,,,,,,,,,,,,,,,,,,,,,,,,,,,,,,,,,,,,,,,,,,,,,,,,,,,,,,,,,,,,,,,,,,,,,,,,,,,,,,,,,,,,,,,,,,,,,,,,,,,,,,,,,,,,,,,,,,,,,,,,,,,,,,,,,,,,,,,
,,5fa472cf29a8e70f22c5d521,2023-12-07_07h31.43.141,kallum_motion_pilot,2023.2.3,Win32,30.14318011,5fa472cf29a8e70f22c5d521,6560176e4d91f764e2a42c74,657158935aaa6fe1a29dea10,0.1269,0.1271,0,89,89,103,1,eightseven,,,,,,,,,,,,,,,,,,,,,,,,,,,,,,,,,,,,,,,,,,,,,,,,,,,,,,,,,,,,,,,,,,,,,,,,,,,,,,,,,,,,,,,,,,,,,,,,,,,,,,,,,,,,,,,,,,,,,,,,,,,,,,,,,,,,,,,
,,5fa472cf29a8e70f22c5d521,2023-12-07_07h31.43.141,kallum_motion_pilot,2023.2.3,Win32,30.14318011,5fa472cf29a8e70f22c5d521,6560176e4d91f764e2a42c74,657158935aaa6fe1a29dea10,0.1274,0.1276,0,90,90,112,1,fivesix,,,,,,,,,,,,,,,,,,,,,,,,,,,,,,,,,,,,,,,,,,,,,,,,,,,,,,,,,,,,,,,,,,,,,,,,,,,,,,,,,,,,,,,,,,,,,,,,,,,,,,,,,,,,,,,,,,,,,,,,,,,,,,,,,,,,,,,
,,5fa472cf29a8e70f22c5d521,2023-12-07_07h31.43.141,kallum_motion_pilot,2023.2.3,Win32,30.14318011,5fa472cf29a8e70f22c5d521,6560176e4d91f764e2a42c74,657158935aaa6fe1a29dea10,0.1279,0.128,0,91,91,55,1,fourthree,,,,,,,,,,,,,,,,,,,,,,,,,,,,,,,,,,,,,,,,,,,,,,,,,,,,,,,,,,,,,,,,,,,,,,,,,,,,,,,,,,,,,,,,,,,,,,,,,,,,,,,,,,,,,,,,,,,,,,,,,,,,,,,,,,,,,,,
,,5fa472cf29a8e70f22c5d521,2023-12-07_07h31.43.141,kallum_motion_pilot,2023.2.3,Win32,30.14318011,5fa472cf29a8e70f22c5d521,6560176e4d91f764e2a42c74,657158935aaa6fe1a29dea10,0.1283,0.1285,0,92,92,5,1,threefour,,,,,,,,,,,,,,,,,,,,,,,,,,,,,,,,,,,,,,,,,,,,,,,,,,,,,,,,,,,,,,,,,,,,,,,,,,,,,,,,,,,,,,,,,,,,,,,,,,,,,,,,,,,,,,,,,,,,,,,,,,,,,,,,,,,,,,,
,,5fa472cf29a8e70f22c5d521,2023-12-07_07h31.43.141,kallum_motion_pilot,2023.2.3,Win32,30.14318011,5fa472cf29a8e70f22c5d521,6560176e4d91f764e2a42c74,657158935aaa6fe1a29dea10,0.1287,0.1288,0,93,93,120,1,fivesix,,,,,,,,,,,,,,,,,,,,,,,,,,,,,,,,,,,,,,,,,,,,,,,,,,,,,,,,,,,,,,,,,,,,,,,,,,,,,,,,,,,,,,,,,,,,,,,,,,,,,,,,,,,,,,,,,,,,,,,,,,,,,,,,,,,,,,,
,,5fa472cf29a8e70f22c5d521,2023-12-07_07h31.43.141,kallum_motion_pilot,2023.2.3,Win32,30.14318011,5fa472cf29a8e70f22c5d521,6560176e4d91f764e2a42c74,657158935aaa6fe1a29dea10,0.1292,0.1293,0,94,94,18,1,twoone,,,,,,,,,,,,,,,,,,,,,,,,,,,,,,,,,,,,,,,,,,,,,,,,,,,,,,,,,,,,,,,,,,,,,,,,,,,,,,,,,,,,,,,,,,,,,,,,,,,,,,,,,,,,,,,,,,,,,,,,,,,,,,,,,,,,,,,
,,5fa472cf29a8e70f22c5d521,2023-12-07_07h31.43.141,kallum_motion_pilot,2023.2.3,Win32,30.14318011,5fa472cf29a8e70f22c5d521,6560176e4d91f764e2a42c74,657158935aaa6fe1a29dea10,0.1296,0.1297,0,95,95,131,1,sixeight,,,,,,,,,,,,,,,,,,,,,,,,,,,,,,,,,,,,,,,,,,,,,,,,,,,,,,,,,,,,,,,,,,,,,,,,,,,,,,,,,,,,,,,,,,,,,,,,,,,,,,,,,,,,,,,,,,,,,,,,,,,,,,,,,,,,,,,
,,5fa472cf29a8e70f22c5d521,2023-12-07_07h31.43.141,kallum_motion_pilot,2023.2.3,Win32,30.14318011,5fa472cf29a8e70f22c5d521,6560176e4d91f764e2a42c74,657158935aaa6fe1a29dea10,0.1301,0.1304,0,96,96,100,1,sevenfive,,,,,,,,,,,,,,,,,,,,,,,,,,,,,,,,,,,,,,,,,,,,,,,,,,,,,,,,,,,,,,,,,,,,,,,,,,,,,,,,,,,,,,,,,,,,,,,,,,,,,,,,,,,,,,,,,,,,,,,,,,,,,,,,,,,,,,,
,,5fa472cf29a8e70f22c5d521,2023-12-07_07h31.43.141,kallum_motion_pilot,2023.2.3,Win32,30.14318011,5fa472cf29a8e70f22c5d521,6560176e4d91f764e2a42c74,657158935aaa6fe1a29dea10,0.1306,0.1307,0,97,97,116,1,sevenfive,,,,,,,,,,,,,,,,,,,,,,,,,,,,,,,,,,,,,,,,,,,,,,,,,,,,,,,,,,,,,,,,,,,,,,,,,,,,,,,,,,,,,,,,,,,,,,,,,,,,,,,,,,,,,,,,,,,,,,,,,,,,,,,,,,,,,,,
,,5fa472cf29a8e70f22c5d521,2023-12-07_07h31.43.141,kallum_motion_pilot,2023.2.3,Win32,30.14318011,5fa472cf29a8e70f22c5d521,6560176e4d91f764e2a42c74,657158935aaa6fe1a29dea10,0.1312,0.1314,0,98,98,11,1,twofour,,,,,,,,,,,,,,,,,,,,,,,,,,,,,,,,,,,,,,,,,,,,,,,,,,,,,,,,,,,,,,,,,,,,,,,,,,,,,,,,,,,,,,,,,,,,,,,,,,,,,,,,,,,,,,,,,,,,,,,,,,,,,,,,,,,,,,,
,,5fa472cf29a8e70f22c5d521,2023-12-07_07h31.43.141,kallum_motion_pilot,2023.2.3,Win32,30.14318011,5fa472cf29a8e70f22c5d521,6560176e4d91f764e2a42c74,657158935aaa6fe1a29dea10,0.1317,0.132,0,99,99,58,1,twoone,,,,,,,,,,,,,,,,,,,,,,,,,,,,,,,,,,,,,,,,,,,,,,,,,,,,,,,,,,,,,,,,,,,,,,,,,,,,,,,,,,,,,,,,,,,,,,,,,,,,,,,,,,,,,,,,,,,,,,,,,,,,,,,,,,,,,,,
,,5fa472cf29a8e70f22c5d521,2023-12-07_07h31.43.141,kallum_motion_pilot,2023.2.3,Win32,30.14318011,5fa472cf29a8e70f22c5d521,6560176e4d91f764e2a42c74,657158935aaa6fe1a29dea10,0.1324,0.1325,0,100,100,30,1,fourtwo,,,,,,,,,,,,,,,,,,,,,,,,,,,,,,,,,,,,,,,,,,,,,,,,,,,,,,,,,,,,,,,,,,,,,,,,,,,,,,,,,,,,,,,,,,,,,,,,,,,,,,,,,,,,,,,,,,,,,,,,,,,,,,,,,,,,,,,
,,5fa472cf29a8e70f22c5d521,2023-12-07_07h31.43.141,kallum_motion_pilot,2023.2.3,Win32,30.14318011,5fa472cf29a8e70f22c5d521,6560176e4d91f764e2a42c74,657158935aaa6fe1a29dea10,0.133,0.1331,0,101,101,90,1,sixfive,,,,,,,,,,,,,,,,,,,,,,,,,,,,,,,,,,,,,,,,,,,,,,,,,,,,,,,,,,,,,,,,,,,,,,,,,,,,,,,,,,,,,,,,,,,,,,,,,,,,,,,,,,,,,,,,,,,,,,,,,,,,,,,,,,,,,,,
,,5fa472cf29a8e70f22c5d521,2023-12-07_07h31.43.141,kallum_motion_pilot,2023.2.3,Win32,30.14318011,5fa472cf29a8e70f22c5d521,6560176e4d91f764e2a42c74,657158935aaa6fe1a29dea10,0.1334,0.1335,0,102,102,31,1,fourthree,,,,,,,,,,,,,,,,,,,,,,,,,,,,,,,,,,,,,,,,,,,,,,,,,,,,,,,,,,,,,,,,,,,,,,,,,,,,,,,,,,,,,,,,,,,,,,,,,,,,,,,,,,,,,,,,,,,,,,,,,,,,,,,,,,,,,,,
,,5fa472cf29a8e70f22c5d521,2023-12-07_07h31.43.141,kallum_motion_pilot,2023.2.3,Win32,30.14318011,5fa472cf29a8e70f22c5d521,6560176e4d91f764e2a42c74,657158935aaa6fe1a29dea10,0.1339,0.1339,0,103,103,50,1,twoone,,,,,,,,,,,,,,,,,,,,,,,,,,,,,,,,,,,,,,,,,,,,,,,,,,,,,,,,,,,,,,,,,,,,,,,,,,,,,,,,,,,,,,,,,,,,,,,,,,,,,,,,,,,,,,,,,,,,,,,,,,,,,,,,,,,,,,,
,,5fa472cf29a8e70f22c5d521,2023-12-07_07h31.43.141,kallum_motion_pilot,2023.2.3,Win32,30.14318011,5fa472cf29a8e70f22c5d521,6560176e4d91f764e2a42c74,657158935aaa6fe1a29dea10,0.1344,0.1345,0,104,104,40,1,onetwo,,,,,,,,,,,,,,,,,,,,,,,,,,,,,,,,,,,,,,,,,,,,,,,,,,,,,,,,,,,,,,,,,,,,,,,,,,,,,,,,,,,,,,,,,,,,,,,,,,,,,,,,,,,,,,,,,,,,,,,,,,,,,,,,,,,,,,,
,,5fa472cf29a8e70f22c5d521,2023-12-07_07h31.43.141,kallum_motion_pilot,2023.2.3,Win32,30.14318011,5fa472cf29a8e70f22c5d521,6560176e4d91f764e2a42c74,657158935aaa6fe1a29dea10,0.135,0.1351,0,105,105,63,1,fourthree,,,,,,,,,,,,,,,,,,,,,,,,,,,,,,,,,,,,,,,,,,,,,,,,,,,,,,,,,,,,,,,,,,,,,,,,,,,,,,,,,,,,,,,,,,,,,,,,,,,,,,,,,,,,,,,,,,,,,,,,,,,,,,,,,,,,,,,
,,5fa472cf29a8e70f22c5d521,2023-12-07_07h31.43.141,kallum_motion_pilot,2023.2.3,Win32,30.14318011,5fa472cf29a8e70f22c5d521,6560176e4d91f764e2a42c74,657158935aaa6fe1a29dea10,0.1354,0.1357,0,106,106,126,1,eightsix,,,,,,,,,,,,,,,,,,,,,,,,,,,,,,,,,,,,,,,,,,,,,,,,,,,,,,,,,,,,,,,,,,,,,,,,,,,,,,,,,,,,,,,,,,,,,,,,,,,,,,,,,,,,,,,,,,,,,,,,,,,,,,,,,,,,,,,
,,5fa472cf29a8e70f22c5d521,2023-12-07_07h31.43.141,kallum_motion_pilot,2023.2.3,Win32,30.14318011,5fa472cf29a8e70f22c5d521,6560176e4d91f764e2a42c74,657158935aaa6fe1a29dea10,0.1359,0.136,0,107,107,83,1,sixeight,,,,,,,,,,,,,,,,,,,,,,,,,,,,,,,,,,,,,,,,,,,,,,,,,,,,,,,,,,,,,,,,,,,,,,,,,,,,,,,,,,,,,,,,,,,,,,,,,,,,,,,,,,,,,,,,,,,,,,,,,,,,,,,,,,,,,,,
,,5fa472cf29a8e70f22c5d521,2023-12-07_07h31.43.141,kallum_motion_pilot,2023.2.3,Win32,30.14318011,5fa472cf29a8e70f22c5d521,6560176e4d91f764e2a42c74,657158935aaa6fe1a29dea10,0.1363,0.1365,0,108,108,64,1,onetwo,,,,,,,,,,,,,,,,,,,,,,,,,,,,,,,,,,,,,,,,,,,,,,,,,,,,,,,,,,,,,,,,,,,,,,,,,,,,,,,,,,,,,,,,,,,,,,,,,,,,,,,,,,,,,,,,,,,,,,,,,,,,,,,,,,,,,,,
,,5fa472cf29a8e70f22c5d521,2023-12-07_07h31.43.141,kallum_motion_pilot,2023.2.3,Win32,30.14318011,5fa472cf29a8e70f22c5d521,6560176e4d91f764e2a42c74,657158935aaa6fe1a29dea10,0.1367,0.1369,0,109,109,159,1,eightseven,,,,,,,,,,,,,,,,,,,,,,,,,,,,,,,,,,,,,,,,,,,,,,,,,,,,,,,,,,,,,,,,,,,,,,,,,,,,,,,,,,,,,,,,,,,,,,,,,,,,,,,,,,,,,,,,,,,,,,,,,,,,,,,,,,,,,,,
,,5fa472cf29a8e70f22c5d521,2023-12-07_07h31.43.141,kallum_motion_pilot,2023.2.3,Win32,30.14318011,5fa472cf29a8e70f22c5d521,6560176e4d91f764e2a42c74,657158935aaa6fe1a29dea10,0.1372,0.1373,0,110,110,127,1,eightseven,,,,,,,,,,,,,,,,,,,,,,,,,,,,,,,,,,,,,,,,,,,,,,,,,,,,,,,,,,,,,,,,,,,,,,,,,,,,,,,,,,,,,,,,,,,,,,,,,,,,,,,,,,,,,,,,,,,,,,,,,,,,,,,,,,,,,,,
,,5fa472cf29a8e70f22c5d521,2023-12-07_07h31.43.141,kallum_motion_pilot,2023.2.3,Win32,30.14318011,5fa472cf29a8e70f22c5d521,6560176e4d91f764e2a42c74,657158935aaa6fe1a29dea10,0.1376,0.1377,0,111,111,65,1,onethree,,,,,,,,,,,,,,,,,,,,,,,,,,,,,,,,,,,,,,,,,,,,,,,,,,,,,,,,,,,,,,,,,,,,,,,,,,,,,,,,,,,,,,,,,,,,,,,,,,,,,,,,,,,,,,,,,,,,,,,,,,,,,,,,,,,,,,,
,,5fa472cf29a8e70f22c5d521,2023-12-07_07h31.43.141,kallum_motion_pilot,2023.2.3,Win32,30.14318011,5fa472cf29a8e70f22c5d521,6560176e4d91f764e2a42c74,657158935aaa6fe1a29dea10,0.138,0.1381,0,112,112,7,1,fourthree,,,,,,,,,,,,,,,,,,,,,,,,,,,,,,,,,,,,,,,,,,,,,,,,,,,,,,,,,,,,,,,,,,,,,,,,,,,,,,,,,,,,,,,,,,,,,,,,,,,,,,,,,,,,,,,,,,,,,,,,,,,,,,,,,,,,,,,
,,5fa472cf29a8e70f22c5d521,2023-12-07_07h31.43.141,kallum_motion_pilot,2023.2.3,Win32,30.14318011,5fa472cf29a8e70f22c5d521,6560176e4d91f764e2a42c74,657158935aaa6fe1a29dea10,0.1386,0.1388,0,113,113,17,1,onethree,,,,,,,,,,,,,,,,,,,,,,,,,,,,,,,,,,,,,,,,,,,,,,,,,,,,,,,,,,,,,,,,,,,,,,,,,,,,,,,,,,,,,,,,,,,,,,,,,,,,,,,,,,,,,,,,,,,,,,,,,,,,,,,,,,,,,,,
,,5fa472cf29a8e70f22c5d521,2023-12-07_07h31.43.141,kallum_motion_pilot,2023.2.3,Win32,30.14318011,5fa472cf29a8e70f22c5d521,6560176e4d91f764e2a42c74,657158935aaa6fe1a29dea10,0.139,0.1393,0,114,114,43,1,twofour,,,,,,,,,,,,,,,,,,,,,,,,,,,,,,,,,,,,,,,,,,,,,,,,,,,,,,,,,,,,,,,,,,,,,,,,,,,,,,,,,,,,,,,,,,,,,,,,,,,,,,,,,,,,,,,,,,,,,,,,,,,,,,,,,,,,,,,
,,5fa472cf29a8e70f22c5d521,2023-12-07_07h31.43.141,kallum_motion_pilot,2023.2.3,Win32,30.14318011,5fa472cf29a8e70f22c5d521,6560176e4d91f764e2a42c74,657158935aaa6fe1a29dea10,0.1394,0.1396,0,115,115,151,1,eightseven,,,,,,,,,,,,,,,,,,,,,,,,,,,,,,,,,,,,,,,,,,,,,,,,,,,,,,,,,,,,,,,,,,,,,,,,,,,,,,,,,,,,,,,,,,,,,,,,,,,,,,,,,,,,,,,,,,,,,,,,,,,,,,,,,,,,,,,
,,5fa472cf29a8e70f22c5d521,2023-12-07_07h31.43.141,kallum_motion_pilot,2023.2.3,Win32,30.14318011,5fa472cf29a8e70f22c5d521,6560176e4d91f764e2a42c74,657158935aaa6fe1a29dea10,0.1399,0.1401,0,116,116,158,1,eightsix,,,,,,,,,,,,,,,,,,,,,,,,,,,,,,,,,,,,,,,,,,,,,,,,,,,,,,,,,,,,,,,,,,,,,,,,,,,,,,,,,,,,,,,,,,,,,,,,,,,,,,,,,,,,,,,,,,,,,,,,,,,,,,,,,,,,,,,
,,5fa472cf29a8e70f22c5d521,2023-12-07_07h31.43.141,kallum_motion_pilot,2023.2.3,Win32,30.14318011,5fa472cf29a8e70f22c5d521,6560176e4d91f764e2a42c74,657158935aaa6fe1a29dea10,0.1403,0.1405,0,117,117,92,1,sevenfive,,,,,,,,,,,,,,,,,,,,,,,,,,,,,,,,,,,,,,,,,,,,,,,,,,,,,,,,,,,,,,,,,,,,,,,,,,,,,,,,,,,,,,,,,,,,,,,,,,,,,,,,,,,,,,,,,,,,,,,,,,,,,,,,,,,,,,,
,,5fa472cf29a8e70f22c5d521,2023-12-07_07h31.43.141,kallum_motion_pilot,2023.2.3,Win32,30.14318011,5fa472cf29a8e70f22c5d521,6560176e4d91f764e2a42c74,657158935aaa6fe1a29dea10,0.1408,0.1409,0,118,118,108,1,sevenfive,,,,,,,,,,,,,,,,,,,,,,,,,,,,,,,,,,,,,,,,,,,,,,,,,,,,,,,,,,,,,,,,,,,,,,,,,,,,,,,,,,,,,,,,,,,,,,,,,,,,,,,,,,,,,,,,,,,,,,,,,,,,,,,,,,,,,,,
,,5fa472cf29a8e70f22c5d521,2023-12-07_07h31.43.141,kallum_motion_pilot,2023.2.3,Win32,30.14318011,5fa472cf29a8e70f22c5d521,6560176e4d91f764e2a42c74,657158935aaa6fe1a29dea10,0.1412,0.1413,0,119,119,61,1,threefour,,,,,,,,,,,,,,,,,,,,,,,,,,,,,,,,,,,,,,,,,,,,,,,,,,,,,,,,,,,,,,,,,,,,,,,,,,,,,,,,,,,,,,,,,,,,,,,,,,,,,,,,,,,,,,,,,,,,,,,,,,,,,,,,,,,,,,,
,,5fa472cf29a8e70f22c5d521,2023-12-07_07h31.43.141,kallum_motion_pilot,2023.2.3,Win32,30.14318011,5fa472cf29a8e70f22c5d521,6560176e4d91f764e2a42c74,657158935aaa6fe1a29dea10,0.1417,0.1418,0,120,120,16,1,onetwo,,,,,,,,,,,,,,,,,,,,,,,,,,,,,,,,,,,,,,,,,,,,,,,,,,,,,,,,,,,,,,,,,,,,,,,,,,,,,,,,,,,,,,,,,,,,,,,,,,,,,,,,,,,,,,,,,,,,,,,,,,,,,,,,,,,,,,,
,,5fa472cf29a8e70f22c5d521,2023-12-07_07h31.43.141,kallum_motion_pilot,2023.2.3,Win32,30.14318011,5fa472cf29a8e70f22c5d521,6560176e4d91f764e2a42c74,657158935aaa6fe1a29dea10,0.142,0.1422,0,121,121,133,1,seveneight,,,,,,,,,,,,,,,,,,,,,,,,,,,,,,,,,,,,,,,,,,,,,,,,,,,,,,,,,,,,,,,,,,,,,,,,,,,,,,,,,,,,,,,,,,,,,,,,,,,,,,,,,,,,,,,,,,,,,,,,,,,,,,,,,,,,,,,
,,5fa472cf29a8e70f22c5d521,2023-12-07_07h31.43.141,kallum_motion_pilot,2023.2.3,Win32,30.14318011,5fa472cf29a8e70f22c5d521,6560176e4d91f764e2a42c74,657158935aaa6fe1a29dea10,0.1424,0.1426,0,122,122,52,1,threeone,,,,,,,,,,,,,,,,,,,,,,,,,,,,,,,,,,,,,,,,,,,,,,,,,,,,,,,,,,,,,,,,,,,,,,,,,,,,,,,,,,,,,,,,,,,,,,,,,,,,,,,,,,,,,,,,,,,,,,,,,,,,,,,,,,,,,,,
,,5fa472cf29a8e70f22c5d521,2023-12-07_07h31.43.141,kallum_motion_pilot,2023.2.3,Win32,30.14318011,5fa472cf29a8e70f22c5d521,6560176e4d91f764e2a42c74,657158935aaa6fe1a29dea10,0.1429,0.1431,0,123,123,34,1,twoone,,,,,,,,,,,,,,,,,,,,,,,,,,,,,,,,,,,,,,,,,,,,,,,,,,,,,,,,,,,,,,,,,,,,,,,,,,,,,,,,,,,,,,,,,,,,,,,,,,,,,,,,,,,,,,,,,,,,,,,,,,,,,,,,,,,,,,,
,,5fa472cf29a8e70f22c5d521,2023-12-07_07h31.43.141,kallum_motion_pilot,2023.2.3,Win32,30.14318011,5fa472cf29a8e70f22c5d521,6560176e4d91f764e2a42c74,657158935aaa6fe1a29dea10,0.1434,0.1436,0,124,124,82,1,sixfive,,,,,,,,,,,,,,,,,,,,,,,,,,,,,,,,,,,,,,,,,,,,,,,,,,,,,,,,,,,,,,,,,,,,,,,,,,,,,,,,,,,,,,,,,,,,,,,,,,,,,,,,,,,,,,,,,,,,,,,,,,,,,,,,,,,,,,,
,,5fa472cf29a8e70f22c5d521,2023-12-07_07h31.43.141,kallum_motion_pilot,2023.2.3,Win32,30.14318011,5fa472cf29a8e70f22c5d521,6560176e4d91f764e2a42c74,657158935aaa6fe1a29dea10,0.1439,0.1441,0,125,125,36,1,threeone,,,,,,,,,,,,,,,,,,,,,,,,,,,,,,,,,,,,,,,,,,,,,,,,,,,,,,,,,,,,,,,,,,,,,,,,,,,,,,,,,,,,,,,,,,,,,,,,,,,,,,,,,,,,,,,,,,,,,,,,,,,,,,,,,,,,,,,
,,5fa472cf29a8e70f22c5d521,2023-12-07_07h31.43.141,kallum_motion_pilot,2023.2.3,Win32,30.14318011,5fa472cf29a8e70f22c5d521,6560176e4d91f764e2a42c74,657158935aaa6fe1a29dea10,0.1443,0.1445,0,126,126,125,1,seveneight,,,,,,,,,,,,,,,,,,,,,,,,,,,,,,,,,,,,,,,,,,,,,,,,,,,,,,,,,,,,,,,,,,,,,,,,,,,,,,,,,,,,,,,,,,,,,,,,,,,,,,,,,,,,,,,,,,,,,,,,,,,,,,,,,,,,,,,
,,5fa472cf29a8e70f22c5d521,2023-12-07_07h31.43.141,kallum_motion_pilot,2023.2.3,Win32,30.14318011,5fa472cf29a8e70f22c5d521,6560176e4d91f764e2a42c74,657158935aaa6fe1a29dea10,0.1449,0.145,0,127,127,47,1,fourthree,,,,,,,,,,,,,,,,,,,,,,,,,,,,,,,,,,,,,,,,,,,,,,,,,,,,,,,,,,,,,,,,,,,,,,,,,,,,,,,,,,,,,,,,,,,,,,,,,,,,,,,,,,,,,,,,,,,,,,,,,,,,,,,,,,,,,,,
,,5fa472cf29a8e70f22c5d521,2023-12-07_07h31.43.141,kallum_motion_pilot,2023.2.3,Win32,30.14318011,5fa472cf29a8e70f22c5d521,6560176e4d91f764e2a42c74,657158935aaa6fe1a29dea10,0.1453,0.1455,0,128,128,145,1,fiveseven,,,,,,,,,,,,,,,,,,,,,,,,,,,,,,,,,,,,,,,,,,,,,,,,,,,,,,,,,,,,,,,,,,,,,,,,,,,,,,,,,,,,,,,,,,,,,,,,,,,,,,,,,,,,,,,,,,,,,,,,,,,,,,,,,,,,,,,
,,5fa472cf29a8e70f22c5d521,2023-12-07_07h31.43.141,kallum_motion_pilot,2023.2.3,Win32,30.14318011,5fa472cf29a8e70f22c5d521,6560176e4d91f764e2a42c74,657158935aaa6fe1a29dea10,0.1458,0.146,0,129,129,78,1,fourtwo,,,,,,,,,,,,,,,,,,,,,,,,,,,,,,,,,,,,,,,,,,,,,,,,,,,,,,,,,,,,,,,,,,,,,,,,,,,,,,,,,,,,,,,,,,,,,,,,,,,,,,,,,,,,,,,,,,,,,,,,,,,,,,,,,,,,,,,
,,5fa472cf29a8e70f22c5d521,2023-12-07_07h31.43.141,kallum_motion_pilot,2023.2.3,Win32,30.14318011,5fa472cf29a8e70f22c5d521,6560176e4d91f764e2a42c74,657158935aaa6fe1a29dea10,0.1462,0.1464,0,130,130,148,1,sevenfive,,,,,,,,,,,,,,,,,,,,,,,,,,,,,,,,,,,,,,,,,,,,,,,,,,,,,,,,,,,,,,,,,,,,,,,,,,,,,,,,,,,,,,,,,,,,,,,,,,,,,,,,,,,,,,,,,,,,,,,,,,,,,,,,,,,,,,,
,,5fa472cf29a8e70f22c5d521,2023-12-07_07h31.43.141,kallum_motion_pilot,2023.2.3,Win32,30.14318011,5fa472cf29a8e70f22c5d521,6560176e4d91f764e2a42c74,657158935aaa6fe1a29dea10,0.1466,0.1468,0,131,131,101,1,seveneight,,,,,,,,,,,,,,,,,,,,,,,,,,,,,,,,,,,,,,,,,,,,,,,,,,,,,,,,,,,,,,,,,,,,,,,,,,,,,,,,,,,,,,,,,,,,,,,,,,,,,,,,,,,,,,,,,,,,,,,,,,,,,,,,,,,,,,,
,,5fa472cf29a8e70f22c5d521,2023-12-07_07h31.43.141,kallum_motion_pilot,2023.2.3,Win32,30.14318011,5fa472cf29a8e70f22c5d521,6560176e4d91f764e2a42c74,657158935aaa6fe1a29dea10,0.1471,0.1472,0,132,132,14,1,fourtwo,,,,,,,,,,,,,,,,,,,,,,,,,,,,,,,,,,,,,,,,,,,,,,,,,,,,,,,,,,,,,,,,,,,,,,,,,,,,,,,,,,,,,,,,,,,,,,,,,,,,,,,,,,,,,,,,,,,,,,,,,,,,,,,,,,,,,,,
,,5fa472cf29a8e70f22c5d521,2023-12-07_07h31.43.141,kallum_motion_pilot,2023.2.3,Win32,30.14318011,5fa472cf29a8e70f22c5d521,6560176e4d91f764e2a42c74,657158935aaa6fe1a29dea10,0.1475,0.1476,0,133,133,22,1,fourtwo,,,,,,,,,,,,,,,,,,,,,,,,,,,,,,,,,,,,,,,,,,,,,,,,,,,,,,,,,,,,,,,,,,,,,,,,,,,,,,,,,,,,,,,,,,,,,,,,,,,,,,,,,,,,,,,,,,,,,,,,,,,,,,,,,,,,,,,
,,5fa472cf29a8e70f22c5d521,2023-12-07_07h31.43.141,kallum_motion_pilot,2023.2.3,Win32,30.14318011,5fa472cf29a8e70f22c5d521,6560176e4d91f764e2a42c74,657158935aaa6fe1a29dea10,0.1479,0.1481,0,134,134,105,1,fiveseven,,,,,,,,,,,,,,,,,,,,,,,,,,,,,,,,,,,,,,,,,,,,,,,,,,,,,,,,,,,,,,,,,,,,,,,,,,,,,,,,,,,,,,,,,,,,,,,,,,,,,,,,,,,,,,,,,,,,,,,,,,,,,,,,,,,,,,,
,,5fa472cf29a8e70f22c5d521,2023-12-07_07h31.43.141,kallum_motion_pilot,2023.2.3,Win32,30.14318011,5fa472cf29a8e70f22c5d521,6560176e4d91f764e2a42c74,657158935aaa6fe1a29dea10,0.1483,0.1485,0,135,135,3,1,twofour,,,,,,,,,,,,,,,,,,,,,,,,,,,,,,,,,,,,,,,,,,,,,,,,,,,,,,,,,,,,,,,,,,,,,,,,,,,,,,,,,,,,,,,,,,,,,,,,,,,,,,,,,,,,,,,,,,,,,,,,,,,,,,,,,,,,,,,
,,5fa472cf29a8e70f22c5d521,2023-12-07_07h31.43.141,kallum_motion_pilot,2023.2.3,Win32,30.14318011,5fa472cf29a8e70f22c5d521,6560176e4d91f764e2a42c74,657158935aaa6fe1a29dea10,0.1487,0.1489,0,136,136,153,1,fiveseven,,,,,,,,,,,,,,,,,,,,,,,,,,,,,,,,,,,,,,,,,,,,,,,,,,,,,,,,,,,,,,,,,,,,,,,,,,,,,,,,,,,,,,,,,,,,,,,,,,,,,,,,,,,,,,,,,,,,,,,,,,,,,,,,,,,,,,,
,,5fa472cf29a8e70f22c5d521,2023-12-07_07h31.43.141,kallum_motion_pilot,2023.2.3,Win32,30.14318011,5fa472cf29a8e70f22c5d521,6560176e4d91f764e2a42c74,657158935aaa6fe1a29dea10,0.1492,0.1493,0,137,137,84,1,sevenfive,,,,,,,,,,,,,,,,,,,,,,,,,,,,,,,,,,,,,,,,,,,,,,,,,,,,,,,,,,,,,,,,,,,,,,,,,,,,,,,,,,,,,,,,,,,,,,,,,,,,,,,,,,,,,,,,,,,,,,,,,,,,,,,,,,,,,,,
,,5fa472cf29a8e70f22c5d521,2023-12-07_07h31.43.141,kallum_motion_pilot,2023.2.3,Win32,30.14318011,5fa472cf29a8e70f22c5d521,6560176e4d91f764e2a42c74,657158935aaa6fe1a29dea10,0.1497,0.1498,0,138,138,49,1,onethree,,,,,,,,,,,,,,,,,,,,,,,,,,,,,,,,,,,,,,,,,,,,,,,,,,,,,,,,,,,,,,,,,,,,,,,,,,,,,,,,,,,,,,,,,,,,,,,,,,,,,,,,,,,,,,,,,,,,,,,,,,,,,,,,,,,,,,,
,,5fa472cf29a8e70f22c5d521,2023-12-07_07h31.43.141,kallum_motion_pilot,2023.2.3,Win32,30.14318011,5fa472cf29a8e70f22c5d521,6560176e4d91f764e2a42c74,657158935aaa6fe1a29dea10,0.1501,0.1503,0,139,139,122,1,sixfive,,,,,,,,,,,,,,,,,,,,,,,,,,,,,,,,,,,,,,,,,,,,,,,,,,,,,,,,,,,,,,,,,,,,,,,,,,,,,,,,,,,,,,,,,,,,,,,,,,,,,,,,,,,,,,,,,,,,,,,,,,,,,,,,,,,,,,,
,,5fa472cf29a8e70f22c5d521,2023-12-07_07h31.43.141,kallum_motion_pilot,2023.2.3,Win32,30.14318011,5fa472cf29a8e70f22c5d521,6560176e4d91f764e2a42c74,657158935aaa6fe1a29dea10,0.1505,0.1507,0,140,140,81,1,fiveseven,,,,,,,,,,,,,,,,,,,,,,,,,,,,,,,,,,,,,,,,,,,,,,,,,,,,,,,,,,,,,,,,,,,,,,,,,,,,,,,,,,,,,,,,,,,,,,,,,,,,,,,,,,,,,,,,,,,,,,,,,,,,,,,,,,,,,,,
,,5fa472cf29a8e70f22c5d521,2023-12-07_07h31.43.141,kallum_motion_pilot,2023.2.3,Win32,30.14318011,5fa472cf29a8e70f22c5d521,6560176e4d91f764e2a42c74,657158935aaa6fe1a29dea10,0.1509,0.1511,0,141,141,94,1,eightsix,,,,,,,,,,,,,,,,,,,,,,,,,,,,,,,,,,,,,,,,,,,,,,,,,,,,,,,,,,,,,,,,,,,,,,,,,,,,,,,,,,,,,,,,,,,,,,,,,,,,,,,,,,,,,,,,,,,,,,,,,,,,,,,,,,,,,,,
,,5fa472cf29a8e70f22c5d521,2023-12-07_07h31.43.141,kallum_motion_pilot,2023.2.3,Win32,30.14318011,5fa472cf29a8e70f22c5d521,6560176e4d91f764e2a42c74,657158935aaa6fe1a29dea10,0.1513,0.1515,0,142,142,106,1,sixfive,,,,,,,,,,,,,,,,,,,,,,,,,,,,,,,,,,,,,,,,,,,,,,,,,,,,,,,,,,,,,,,,,,,,,,,,,,,,,,,,,,,,,,,,,,,,,,,,,,,,,,,,,,,,,,,,,,,,,,,,,,,,,,,,,,,,,,,
,,5fa472cf29a8e70f22c5d521,2023-12-07_07h31.43.141,kallum_motion_pilot,2023.2.3,Win32,30.14318011,5fa472cf29a8e70f22c5d521,6560176e4d91f764e2a42c74,657158935aaa6fe1a29dea10,0.1518,0.152,0,143,143,67,1,twofour,,,,,,,,,,,,,,,,,,,,,,,,,,,,,,,,,,,,,,,,,,,,,,,,,,,,,,,,,,,,,,,,,,,,,,,,,,,,,,,,,,,,,,,,,,,,,,,,,,,,,,,,,,,,,,,,,,,,,,,,,,,,,,,,,,,,,,,
,,5fa472cf29a8e70f22c5d521,2023-12-07_07h31.43.141,kallum_motion_pilot,2023.2.3,Win32,30.14318011,5fa472cf29a8e70f22c5d521,6560176e4d91f764e2a42c74,657158935aaa6fe1a29dea10,0.1523,0.1523,0,144,144,56,1,onetwo,,,,,,,,,,,,,,,,,,,,,,,,,,,,,,,,,,,,,,,,,,,,,,,,,,,,,,,,,,,,,,,,,,,,,,,,,,,,,,,,,,,,,,,,,,,,,,,,,,,,,,,,,,,,,,,,,,,,,,,,,,,,,,,,,,,,,,,
,,5fa472cf29a8e70f22c5d521,2023-12-07_07h31.43.141,kallum_motion_pilot,2023.2.3,Win32,30.14318011,5fa472cf29a8e70f22c5d521,6560176e4d91f764e2a42c74,657158935aaa6fe1a29dea10,0.1527,0.1528,0,145,145,156,1,sevenfive,,,,,,,,,,,,,,,,,,,,,,,,,,,,,,,,,,,,,,,,,,,,,,,,,,,,,,,,,,,,,,,,,,,,,,,,,,,,,,,,,,,,,,,,,,,,,,,,,,,,,,,,,,,,,,,,,,,,,,,,,,,,,,,,,,,,,,,
,,5fa472cf29a8e70f22c5d521,2023-12-07_07h31.43.141,kallum_motion_pilot,2023.2.3,Win32,30.14318011,5fa472cf29a8e70f22c5d521,6560176e4d91f764e2a42c74,657158935aaa6fe1a29dea10,0.153,0.1532,0,146,146,89,1,fiveseven,,,,,,,,,,,,,,,,,,,,,,,,,,,,,,,,,,,,,,,,,,,,,,,,,,,,,,,,,,,,,,,,,,,,,,,,,,,,,,,,,,,,,,,,,,,,,,,,,,,,,,,,,,,,,,,,,,,,,,,,,,,,,,,,,,,,,,,
,,5fa472cf29a8e70f22c5d521,2023-12-07_07h31.43.141,kallum_motion_pilot,2023.2.3,Win32,30.14318011,5fa472cf29a8e70f22c5d521,6560176e4d91f764e2a42c74,657158935aaa6fe1a29dea10,0.1535,0.1536,0,147,147,113,1,fiveseven,,,,,,,,,,,,,,,,,,,,,,,,,,,,,,,,,,,,,,,,,,,,,,,,,,,,,,,,,,,,,,,,,,,,,,,,,,,,,,,,,,,,,,,,,,,,,,,,,,,,,,,,,,,,,,,,,,,,,,,,,,,,,,,,,,,,,,,
,,5fa472cf29a8e70f22c5d521,2023-12-07_07h31.43.141,kallum_motion_pilot,2023.2.3,Win32,30.14318011,5fa472cf29a8e70f22c5d521,6560176e4d91f764e2a42c74,657158935aaa6fe1a29dea10,0.1539,0.1542,0,148,148,21,1,threefour,,,,,,,,,,,,,,,,,,,,,,,,,,,,,,,,,,,,,,,,,,,,,,,,,,,,,,,,,,,,,,,,,,,,,,,,,,,,,,,,,,,,,,,,,,,,,,,,,,,,,,,,,,,,,,,,,,,,,,,,,,,,,,,,,,,,,,,
,,5fa472cf29a8e70f22c5d521,2023-12-07_07h31.43.141,kallum_motion_pilot,2023.2.3,Win32,30.14318011,5fa472cf29a8e70f22c5d521,6560176e4d91f764e2a42c74,657158935aaa6fe1a29dea10,0.1543,0.1547,0,149,149,135,1,eightseven,,,,,,,,,,,,,,,,,,,,,,,,,,,,,,,,,,,,,,,,,,,,,,,,,,,,,,,,,,,,,,,,,,,,,,,,,,,,,,,,,,,,,,,,,,,,,,,,,,,,,,,,,,,,,,,,,,,,,,,,,,,,,,,,,,,,,,,
,,5fa472cf29a8e70f22c5d521,2023-12-07_07h31.43.141,kallum_motion_pilot,2023.2.3,Win32,30.14318011,5fa472cf29a8e70f22c5d521,6560176e4d91f764e2a42c74,657158935aaa6fe1a29dea10,0.1554,0.1559,0,150,150,109,1,seveneight,,,,,,,,,,,,,,,,,,,,,,,,,,,,,,,,,,,,,,,,,,,,,,,,,,,,,,,,,,,,,,,,,,,,,,,,,,,,,,,,,,,,,,,,,,,,,,,,,,,,,,,,,,,,,,,,,,,,,,,,,,,,,,,,,,,,,,,
,,5fa472cf29a8e70f22c5d521,2023-12-07_07h31.43.141,kallum_motion_pilot,2023.2.3,Win32,30.14318011,5fa472cf29a8e70f22c5d521,6560176e4d91f764e2a42c74,657158935aaa6fe1a29dea10,0.1564,0.1567,0,151,151,74,1,twoone,,,,,,,,,,,,,,,,,,,,,,,,,,,,,,,,,,,,,,,,,,,,,,,,,,,,,,,,,,,,,,,,,,,,,,,,,,,,,,,,,,,,,,,,,,,,,,,,,,,,,,,,,,,,,,,,,,,,,,,,,,,,,,,,,,,,,,,
,,5fa472cf29a8e70f22c5d521,2023-12-07_07h31.43.141,kallum_motion_pilot,2023.2.3,Win32,30.14318011,5fa472cf29a8e70f22c5d521,6560176e4d91f764e2a42c74,657158935aaa6fe1a29dea10,0.1571,0.1573,0,152,152,132,1,sevenfive,,,,,,,,,,,,,,,,,,,,,,,,,,,,,,,,,,,,,,,,,,,,,,,,,,,,,,,,,,,,,,,,,,,,,,,,,,,,,,,,,,,,,,,,,,,,,,,,,,,,,,,,,,,,,,,,,,,,,,,,,,,,,,,,,,,,,,,
,,5fa472cf29a8e70f22c5d521,2023-12-07_07h31.43.141,kallum_motion_pilot,2023.2.3,Win32,30.14318011,5fa472cf29a8e70f22c5d521,6560176e4d91f764e2a42c74,657158935aaa6fe1a29dea10,0.1577,0.1579,0,153,153,70,1,fourtwo,,,,,,,,,,,,,,,,,,,,,,,,,,,,,,,,,,,,,,,,,,,,,,,,,,,,,,,,,,,,,,,,,,,,,,,,,,,,,,,,,,,,,,,,,,,,,,,,,,,,,,,,,,,,,,,,,,,,,,,,,,,,,,,,,,,,,,,
,,5fa472cf29a8e70f22c5d521,2023-12-07_07h31.43.141,kallum_motion_pilot,2023.2.3,Win32,30.14318011,5fa472cf29a8e70f22c5d521,6560176e4d91f764e2a42c74,657158935aaa6fe1a29dea10,0.1583,0.1586,0,154,154,53,1,threefour,,,,,,,,,,,,,,,,,,,,,,,,,,,,,,,,,,,,,,,,,,,,,,,,,,,,,,,,,,,,,,,,,,,,,,,,,,,,,,,,,,,,,,,,,,,,,,,,,,,,,,,,,,,,,,,,,,,,,,,,,,,,,,,,,,,,,,,
,,5fa472cf29a8e70f22c5d521,2023-12-07_07h31.43.141,kallum_motion_pilot,2023.2.3,Win32,30.14318011,5fa472cf29a8e70f22c5d521,6560176e4d91f764e2a42c74,657158935aaa6fe1a29dea10,0.1589,0.1592,0,155,155,37,1,threefour,,,,,,,,,,,,,,,,,,,,,,,,,,,,,,,,,,,,,,,,,,,,,,,,,,,,,,,,,,,,,,,,,,,,,,,,,,,,,,,,,,,,,,,,,,,,,,,,,,,,,,,,,,,,,,,,,,,,,,,,,,,,,,,,,,,,,,,
,,5fa472cf29a8e70f22c5d521,2023-12-07_07h31.43.141,kallum_motion_pilot,2023.2.3,Win32,30.14318011,5fa472cf29a8e70f22c5d521,6560176e4d91f764e2a42c74,657158935aaa6fe1a29dea10,0.1596,0.1598,0,156,156,136,1,fivesix,,,,,,,,,,,,,,,,,,,,,,,,,,,,,,,,,,,,,,,,,,,,,,,,,,,,,,,,,,,,,,,,,,,,,,,,,,,,,,,,,,,,,,,,,,,,,,,,,,,,,,,,,,,,,,,,,,,,,,,,,,,,,,,,,,,,,,,
,,5fa472cf29a8e70f22c5d521,2023-12-07_07h31.43.141,kallum_motion_pilot,2023.2.3,Win32,30.14318011,5fa472cf29a8e70f22c5d521,6560176e4d91f764e2a42c74,657158935aaa6fe1a29dea10,0.1603,0.1605,0,157,157,115,1,sixeight,,,,,,,,,,,,,,,,,,,,,,,,,,,,,,,,,,,,,,,,,,,,,,,,,,,,,,,,,,,,,,,,,,,,,,,,,,,,,,,,,,,,,,,,,,,,,,,,,,,,,,,,,,,,,,,,,,,,,,,,,,,,,,,,,,,,,,,
,,5fa472cf29a8e70f22c5d521,2023-12-07_07h31.43.141,kallum_motion_pilot,2023.2.3,Win32,30.14318011,5fa472cf29a8e70f22c5d521,6560176e4d91f764e2a42c74,657158935aaa6fe1a29dea10,0.1609,0.1612,0,158,158,10,1,twoone,,,,,,,,,,,,,,,,,,,,,,,,,,,,,,,,,,,,,,,,,,,,,,,,,,,,,,,,,,,,,,,,,,,,,,,,,,,,,,,,,,,,,,,,,,,,,,,,,,,,,,,,,,,,,,,,,,,,,,,,,,,,,,,,,,,,,,,
,,5fa472cf29a8e70f22c5d521,2023-12-07_07h31.43.141,kallum_motion_pilot,2023.2.3,Win32,30.14318011,5fa472cf29a8e70f22c5d521,6560176e4d91f764e2a42c74,657158935aaa6fe1a29dea10,0.1616,0.1619,0,159,159,1,1,onethree,,,,,,,,,,,,,,,,,,,,,,,,,,,,,,,,,,,,,,,,,,,,,,,,,,,,,,,,,,,,,,,,,,,,,,,,,,,,,,,,,,,,,,,,,,,,,,,,,,,,,,,,,,,,,,,,,,,,,,,,,,,,,,,,,,,,,,,
,,5fa472cf29a8e70f22c5d521,2023-12-07_07h31.43.141,kallum_motion_pilot,2023.2.3,Win32,30.14318011,5fa472cf29a8e70f22c5d521,6560176e4d91f764e2a42c74,657158935aaa6fe1a29dea10,0.1622,0.1625,0,160,160,150,1,eightsix,,,,,,,,,,,,,,,,,,,,,,,,,,,,,,,,,,,,,,,,,,,,,,,,,,,,,,,,,,,,,,,,,,,,,,,,,,,,,,,,,,,,,,,,,,,,,,,,,,,,,,,,,,,,,,,,,,,,,,,,,,,,,,,,,,,,,,,
,,5fa472cf29a8e70f22c5d521,2023-12-07_07h31.43.141,kallum_motion_pilot,2023.2.3,Win32,30.14318011,5fa472cf29a8e70f22c5d521,6560176e4d91f764e2a42c74,657158935aaa6fe1a29dea10,0.1628,0.1631,0,161,161,110,1,eightsix,,,,,,,,,,,,,,,,,,,,,,,,,,,,,,,,,,,,,,,,,,,,,,,,,,,,,,,,,,,,,,,,,,,,,,,,,,,,,,,,,,,,,,,,,,,,,,,,,,,,,,,,,,,,,,,,,,,,,,,,,,,,,,,,,,,,,,,
,,5fa472cf29a8e70f22c5d521,2023-12-07_07h31.43.141,kallum_motion_pilot,2023.2.3,Win32,30.14318011,5fa472cf29a8e70f22c5d521,6560176e4d91f764e2a42c74,657158935aaa6fe1a29dea10,0.1635,0.1637,1,0,162,82,1,sixfive,,,,,,,,,,,,,,,,,,,,,,,,,,,,,,,,,,,,,,,,,,,,,,,,,,,,,,,,,,,,,,,,,,,,,,,,,,,,,,,,,,,,,,,,,,,,,,,,,,,,,,,,,,,,,,,,,,,,,,,,,,,,,,,,,,,,,,,
,,5fa472cf29a8e70f22c5d521,2023-12-07_07h31.43.141,kallum_motion_pilot,2023.2.3,Win32,30.14318011,5fa472cf29a8e70f22c5d521,6560176e4d91f764e2a42c74,657158935aaa6fe1a29dea10,0.1641,0.1645,1,1,163,153,1,fiveseven,,,,,,,,,,,,,,,,,,,,,,,,,,,,,,,,,,,,,,,,,,,,,,,,,,,,,,,,,,,,,,,,,,,,,,,,,,,,,,,,,,,,,,,,,,,,,,,,,,,,,,,,,,,,,,,,,,,,,,,,,,,,,,,,,,,,,,,
,,5fa472cf29a8e70f22c5d521,2023-12-07_07h31.43.141,kallum_motion_pilot,2023.2.3,Win32,30.14318011,5fa472cf29a8e70f22c5d521,6560176e4d91f764e2a42c74,657158935aaa6fe1a29dea10,0.1648,0.1651,1,2,164,131,1,sixeight,,,,,,,,,,,,,,,,,,,,,,,,,,,,,,,,,,,,,,,,,,,,,,,,,,,,,,,,,,,,,,,,,,,,,,,,,,,,,,,,,,,,,,,,,,,,,,,,,,,,,,,,,,,,,,,,,,,,,,,,,,,,,,,,,,,,,,,
,,5fa472cf29a8e70f22c5d521,2023-12-07_07h31.43.141,kallum_motion_pilot,2023.2.3,Win32,30.14318011,5fa472cf29a8e70f22c5d521,6560176e4d91f764e2a42c74,657158935aaa6fe1a29dea10,0.1654,0.1657,1,3,165,25,1,onethree,,,,,,,,,,,,,,,,,,,,,,,,,,,,,,,,,,,,,,,,,,,,,,,,,,,,,,,,,,,,,,,,,,,,,,,,,,,,,,,,,,,,,,,,,,,,,,,,,,,,,,,,,,,,,,,,,,,,,,,,,,,,,,,,,,,,,,,
,,5fa472cf29a8e70f22c5d521,2023-12-07_07h31.43.141,kallum_motion_pilot,2023.2.3,Win32,30.14318011,5fa472cf29a8e70f22c5d521,6560176e4d91f764e2a42c74,657158935aaa6fe1a29dea10,0.1661,0.1664,1,4,166,133,1,seveneight,,,,,,,,,,,,,,,,,,,,,,,,,,,,,,,,,,,,,,,,,,,,,,,,,,,,,,,,,,,,,,,,,,,,,,,,,,,,,,,,,,,,,,,,,,,,,,,,,,,,,,,,,,,,,,,,,,,,,,,,,,,,,,,,,,,,,,,
,,5fa472cf29a8e70f22c5d521,2023-12-07_07h31.43.141,kallum_motion_pilot,2023.2.3,Win32,30.14318011,5fa472cf29a8e70f22c5d521,6560176e4d91f764e2a42c74,657158935aaa6fe1a29dea10,0.1667,0.1671,1,5,167,30,1,fourtwo,,,,,,,,,,,,,,,,,,,,,,,,,,,,,,,,,,,,,,,,,,,,,,,,,,,,,,,,,,,,,,,,,,,,,,,,,,,,,,,,,,,,,,,,,,,,,,,,,,,,,,,,,,,,,,,,,,,,,,,,,,,,,,,,,,,,,,,
,,5fa472cf29a8e70f22c5d521,2023-12-07_07h31.43.141,kallum_motion_pilot,2023.2.3,Win32,30.14318011,5fa472cf29a8e70f22c5d521,6560176e4d91f764e2a42c74,657158935aaa6fe1a29dea10,0.1674,0.1704,1,6,168,74,1,twoone,,,,,,,,,,,,,,,,,,,,,,,,,,,,,,,,,,,,,,,,,,,,,,,,,,,,,,,,,,,,,,,,,,,,,,,,,,,,,,,,,,,,,,,,,,,,,,,,,,,,,,,,,,,,,,,,,,,,,,,,,,,,,,,,,,,,,,,
,,5fa472cf29a8e70f22c5d521,2023-12-07_07h31.43.141,kallum_motion_pilot,2023.2.3,Win32,30.14318011,5fa472cf29a8e70f22c5d521,6560176e4d91f764e2a42c74,657158935aaa6fe1a29dea10,0.1711,0.1714,1,7,169,141,1,seveneight,,,,,,,,,,,,,,,,,,,,,,,,,,,,,,,,,,,,,,,,,,,,,,,,,,,,,,,,,,,,,,,,,,,,,,,,,,,,,,,,,,,,,,,,,,,,,,,,,,,,,,,,,,,,,,,,,,,,,,,,,,,,,,,,,,,,,,,
,,5fa472cf29a8e70f22c5d521,2023-12-07_07h31.43.141,kallum_motion_pilot,2023.2.3,Win32,30.14318011,5fa472cf29a8e70f22c5d521,6560176e4d91f764e2a42c74,657158935aaa6fe1a29dea10,0.1723,0.1726,1,8,170,26,1,twoone,,,,,,,,,,,,,,,,,,,,,,,,,,,,,,,,,,,,,,,,,,,,,,,,,,,,,,,,,,,,,,,,,,,,,,,,,,,,,,,,,,,,,,,,,,,,,,,,,,,,,,,,,,,,,,,,,,,,,,,,,,,,,,,,,,,,,,,
,,5fa472cf29a8e70f22c5d521,2023-12-07_07h31.43.141,kallum_motion_pilot,2023.2.3,Win32,30.14318011,5fa472cf29a8e70f22c5d521,6560176e4d91f764e2a42c74,657158935aaa6fe1a29dea10,0.1729,0.1732,1,9,171,150,1,eightsix,,,,,,,,,,,,,,,,,,,,,,,,,,,,,,,,,,,,,,,,,,,,,,,,,,,,,,,,,,,,,,,,,,,,,,,,,,,,,,,,,,,,,,,,,,,,,,,,,,,,,,,,,,,,,,,,,,,,,,,,,,,,,,,,,,,,,,,
,,5fa472cf29a8e70f22c5d521,2023-12-07_07h31.43.141,kallum_motion_pilot,2023.2.3,Win32,30.14318011,5fa472cf29a8e70f22c5d521,6560176e4d91f764e2a42c74,657158935aaa6fe1a29dea10,0.1735,0.1738,1,10,172,92,1,sevenfive,,,,,,,,,,,,,,,,,,,,,,,,,,,,,,,,,,,,,,,,,,,,,,,,,,,,,,,,,,,,,,,,,,,,,,,,,,,,,,,,,,,,,,,,,,,,,,,,,,,,,,,,,,,,,,,,,,,,,,,,,,,,,,,,,,,,,,,
,,5fa472cf29a8e70f22c5d521,2023-12-07_07h31.43.141,kallum_motion_pilot,2023.2.3,Win32,30.14318011,5fa472cf29a8e70f22c5d521,6560176e4d91f764e2a42c74,657158935aaa6fe1a29dea10,0.1742,0.1745,1,11,173,39,1,fourthree,,,,,,,,,,,,,,,,,,,,,,,,,,,,,,,,,,,,,,,,,,,,,,,,,,,,,,,,,,,,,,,,,,,,,,,,,,,,,,,,,,,,,,,,,,,,,,,,,,,,,,,,,,,,,,,,,,,,,,,,,,,,,,,,,,,,,,,
,,5fa472cf29a8e70f22c5d521,2023-12-07_07h31.43.141,kallum_motion_pilot,2023.2.3,Win32,30.14318011,5fa472cf29a8e70f22c5d521,6560176e4d91f764e2a42c74,657158935aaa6fe1a29dea10,0.1747,0.1749,1,12,174,34,1,twoone,,,,,,,,,,,,,,,,,,,,,,,,,,,,,,,,,,,,,,,,,,,,,,,,,,,,,,,,,,,,,,,,,,,,,,,,,,,,,,,,,,,,,,,,,,,,,,,,,,,,,,,,,,,,,,,,,,,,,,,,,,,,,,,,,,,,,,,
,,5fa472cf29a8e70f22c5d521,2023-12-07_07h31.43.141,kallum_motion_pilot,2023.2.3,Win32,30.14318011,5fa472cf29a8e70f22c5d521,6560176e4d91f764e2a42c74,657158935aaa6fe1a29dea10,0.1751,0.1753,1,13,175,12,1,threeone,,,,,,,,,,,,,,,,,,,,,,,,,,,,,,,,,,,,,,,,,,,,,,,,,,,,,,,,,,,,,,,,,,,,,,,,,,,,,,,,,,,,,,,,,,,,,,,,,,,,,,,,,,,,,,,,,,,,,,,,,,,,,,,,,,,,,,,
,,5fa472cf29a8e70f22c5d521,2023-12-07_07h31.43.141,kallum_motion_pilot,2023.2.3,Win32,30.14318011,5fa472cf29a8e70f22c5d521,6560176e4d91f764e2a42c74,657158935aaa6fe1a29dea10,0.1756,0.1757,1,14,176,47,1,fourthree,,,,,,,,,,,,,,,,,,,,,,,,,,,,,,,,,,,,,,,,,,,,,,,,,,,,,,,,,,,,,,,,,,,,,,,,,,,,,,,,,,,,,,,,,,,,,,,,,,,,,,,,,,,,,,,,,,,,,,,,,,,,,,,,,,,,,,,
,,5fa472cf29a8e70f22c5d521,2023-12-07_07h31.43.141,kallum_motion_pilot,2023.2.3,Win32,30.14318011,5fa472cf29a8e70f22c5d521,6560176e4d91f764e2a42c74,657158935aaa6fe1a29dea10,0.1759,0.1762,1,15,177,158,1,eightsix,,,,,,,,,,,,,,,,,,,,,,,,,,,,,,,,,,,,,,,,,,,,,,,,,,,,,,,,,,,,,,,,,,,,,,,,,,,,,,,,,,,,,,,,,,,,,,,,,,,,,,,,,,,,,,,,,,,,,,,,,,,,,,,,,,,,,,,
,,5fa472cf29a8e70f22c5d521,2023-12-07_07h31.43.141,kallum_motion_pilot,2023.2.3,Win32,30.14318011,5fa472cf29a8e70f22c5d521,6560176e4d91f764e2a42c74,657158935aaa6fe1a29dea10,0.1765,0.1766,1,16,178,91,1,sixeight,,,,,,,,,,,,,,,,,,,,,,,,,,,,,,,,,,,,,,,,,,,,,,,,,,,,,,,,,,,,,,,,,,,,,,,,,,,,,,,,,,,,,,,,,,,,,,,,,,,,,,,,,,,,,,,,,,,,,,,,,,,,,,,,,,,,,,,
,,5fa472cf29a8e70f22c5d521,2023-12-07_07h31.43.141,kallum_motion_pilot,2023.2.3,Win32,30.14318011,5fa472cf29a8e70f22c5d521,6560176e4d91f764e2a42c74,657158935aaa6fe1a29dea10,0.1768,0.177,1,17,179,138,1,sixfive,,,,,,,,,,,,,,,,,,,,,,,,,,,,,,,,,,,,,,,,,,,,,,,,,,,,,,,,,,,,,,,,,,,,,,,,,,,,,,,,,,,,,,,,,,,,,,,,,,,,,,,,,,,,,,,,,,,,,,,,,,,,,,,,,,,,,,,
,,5fa472cf29a8e70f22c5d521,2023-12-07_07h31.43.141,kallum_motion_pilot,2023.2.3,Win32,30.14318011,5fa472cf29a8e70f22c5d521,6560176e4d91f764e2a42c74,657158935aaa6fe1a29dea10,0.1773,0.1775,1,18,180,0,1,onetwo,,,,,,,,,,,,,,,,,,,,,,,,,,,,,,,,,,,,,,,,,,,,,,,,,,,,,,,,,,,,,,,,,,,,,,,,,,,,,,,,,,,,,,,,,,,,,,,,,,,,,,,,,,,,,,,,,,,,,,,,,,,,,,,,,,,,,,,
,,5fa472cf29a8e70f22c5d521,2023-12-07_07h31.43.141,kallum_motion_pilot,2023.2.3,Win32,30.14318011,5fa472cf29a8e70f22c5d521,6560176e4d91f764e2a42c74,657158935aaa6fe1a29dea10,0.1778,0.1779,1,19,181,81,1,fiveseven,,,,,,,,,,,,,,,,,,,,,,,,,,,,,,,,,,,,,,,,,,,,,,,,,,,,,,,,,,,,,,,,,,,,,,,,,,,,,,,,,,,,,,,,,,,,,,,,,,,,,,,,,,,,,,,,,,,,,,,,,,,,,,,,,,,,,,,
,,5fa472cf29a8e70f22c5d521,2023-12-07_07h31.43.141,kallum_motion_pilot,2023.2.3,Win32,30.14318011,5fa472cf29a8e70f22c5d521,6560176e4d91f764e2a42c74,657158935aaa6fe1a29dea10,0.1782,0.1783,1,20,182,117,1,seveneight,,,,,,,,,,,,,,,,,,,,,,,,,,,,,,,,,,,,,,,,,,,,,,,,,,,,,,,,,,,,,,,,,,,,,,,,,,,,,,,,,,,,,,,,,,,,,,,,,,,,,,,,,,,,,,,,,,,,,,,,,,,,,,,,,,,,,,,
,,5fa472cf29a8e70f22c5d521,2023-12-07_07h31.43.141,kallum_motion_pilot,2023.2.3,Win32,30.14318011,5fa472cf29a8e70f22c5d521,6560176e4d91f764e2a42c74,657158935aaa6fe1a29dea10,0.1786,0.1788,1,21,183,66,1,twoone,,,,,,,,,,,,,,,,,,,,,,,,,,,,,,,,,,,,,,,,,,,,,,,,,,,,,,,,,,,,,,,,,,,,,,,,,,,,,,,,,,,,,,,,,,,,,,,,,,,,,,,,,,,,,,,,,,,,,,,,,,,,,,,,,,,,,,,
,,5fa472cf29a8e70f22c5d521,2023-12-07_07h31.43.141,kallum_motion_pilot,2023.2.3,Win32,30.14318011,5fa472cf29a8e70f22c5d521,6560176e4d91f764e2a42c74,657158935aaa6fe1a29dea10,0.1791,0.1793,1,22,184,132,1,sevenfive,,,,,,,,,,,,,,,,,,,,,,,,,,,,,,,,,,,,,,,,,,,,,,,,,,,,,,,,,,,,,,,,,,,,,,,,,,,,,,,,,,,,,,,,,,,,,,,,,,,,,,,,,,,,,,,,,,,,,,,,,,,,,,,,,,,,,,,
,,5fa472cf29a8e70f22c5d521,2023-12-07_07h31.43.141,kallum_motion_pilot,2023.2.3,Win32,30.14318011,5fa472cf29a8e70f22c5d521,6560176e4d91f764e2a42c74,657158935aaa6fe1a29dea10,0.1795,0.1798,1,23,185,70,1,fourtwo,,,,,,,,,,,,,,,,,,,,,,,,,,,,,,,,,,,,,,,,,,,,,,,,,,,,,,,,,,,,,,,,,,,,,,,,,,,,,,,,,,,,,,,,,,,,,,,,,,,,,,,,,,,,,,,,,,,,,,,,,,,,,,,,,,,,,,,
,,5fa472cf29a8e70f22c5d521,2023-12-07_07h31.43.141,kallum_motion_pilot,2023.2.3,Win32,30.14318011,5fa472cf29a8e70f22c5d521,6560176e4d91f764e2a42c74,657158935aaa6fe1a29dea10,0.18,0.1801,1,24,186,24,1,onetwo,,,,,,,,,,,,,,,,,,,,,,,,,,,,,,,,,,,,,,,,,,,,,,,,,,,,,,,,,,,,,,,,,,,,,,,,,,,,,,,,,,,,,,,,,,,,,,,,,,,,,,,,,,,,,,,,,,,,,,,,,,,,,,,,,,,,,,,
,,5fa472cf29a8e70f22c5d521,2023-12-07_07h31.43.141,kallum_motion_pilot,2023.2.3,Win32,30.14318011,5fa472cf29a8e70f22c5d521,6560176e4d91f764e2a42c74,657158935aaa6fe1a29dea10,0.1803,0.1805,1,25,187,98,1,sixfive,,,,,,,,,,,,,,,,,,,,,,,,,,,,,,,,,,,,,,,,,,,,,,,,,,,,,,,,,,,,,,,,,,,,,,,,,,,,,,,,,,,,,,,,,,,,,,,,,,,,,,,,,,,,,,,,,,,,,,,,,,,,,,,,,,,,,,,
,,5fa472cf29a8e70f22c5d521,2023-12-07_07h31.43.141,kallum_motion_pilot,2023.2.3,Win32,30.14318011,5fa472cf29a8e70f22c5d521,6560176e4d91f764e2a42c74,657158935aaa6fe1a29dea10,0.1808,0.181,1,26,188,75,1,twofour,,,,,,,,,,,,,,,,,,,,,,,,,,,,,,,,,,,,,,,,,,,,,,,,,,,,,,,,,,,,,,,,,,,,,,,,,,,,,,,,,,,,,,,,,,,,,,,,,,,,,,,,,,,,,,,,,,,,,,,,,,,,,,,,,,,,,,,
,,5fa472cf29a8e70f22c5d521,2023-12-07_07h31.43.141,kallum_motion_pilot,2023.2.3,Win32,30.14318011,5fa472cf29a8e70f22c5d521,6560176e4d91f764e2a42c74,657158935aaa6fe1a29dea10,0.1813,0.1816,1,27,189,33,1,onethree,,,,,,,,,,,,,,,,,,,,,,,,,,,,,,,,,,,,,,,,,,,,,,,,,,,,,,,,,,,,,,,,,,,,,,,,,,,,,,,,,,,,,,,,,,,,,,,,,,,,,,,,,,,,,,,,,,,,,,,,,,,,,,,,,,,,,,,
,,5fa472cf29a8e70f22c5d521,2023-12-07_07h31.43.141,kallum_motion_pilot,2023.2.3,Win32,30.14318011,5fa472cf29a8e70f22c5d521,6560176e4d91f764e2a42c74,657158935aaa6fe1a29dea10,0.1818,0.182,1,28,190,109,1,seveneight,,,,,,,,,,,,,,,,,,,,,,,,,,,,,,,,,,,,,,,,,,,,,,,,,,,,,,,,,,,,,,,,,,,,,,,,,,,,,,,,,,,,,,,,,,,,,,,,,,,,,,,,,,,,,,,,,,,,,,,,,,,,,,,,,,,,,,,
,,5fa472cf29a8e70f22c5d521,2023-12-07_07h31.43.141,kallum_motion_pilot,2023.2.3,Win32,30.14318011,5fa472cf29a8e70f22c5d521,6560176e4d91f764e2a42c74,657158935aaa6fe1a29dea10,0.1822,0.1824,1,29,191,102,1,eightsix,,,,,,,,,,,,,,,,,,,,,,,,,,,,,,,,,,,,,,,,,,,,,,,,,,,,,,,,,,,,,,,,,,,,,,,,,,,,,,,,,,,,,,,,,,,,,,,,,,,,,,,,,,,,,,,,,,,,,,,,,,,,,,,,,,,,,,,
,,5fa472cf29a8e70f22c5d521,2023-12-07_07h31.43.141,kallum_motion_pilot,2023.2.3,Win32,30.14318011,5fa472cf29a8e70f22c5d521,6560176e4d91f764e2a42c74,657158935aaa6fe1a29dea10,0.1826,0.1828,1,30,192,85,1,seveneight,,,,,,,,,,,,,,,,,,,,,,,,,,,,,,,,,,,,,,,,,,,,,,,,,,,,,,,,,,,,,,,,,,,,,,,,,,,,,,,,,,,,,,,,,,,,,,,,,,,,,,,,,,,,,,,,,,,,,,,,,,,,,,,,,,,,,,,
,,5fa472cf29a8e70f22c5d521,2023-12-07_07h31.43.141,kallum_motion_pilot,2023.2.3,Win32,30.14318011,5fa472cf29a8e70f22c5d521,6560176e4d91f764e2a42c74,657158935aaa6fe1a29dea10,0.1831,0.1832,1,31,193,23,1,fourthree,,,,,,,,,,,,,,,,,,,,,,,,,,,,,,,,,,,,,,,,,,,,,,,,,,,,,,,,,,,,,,,,,,,,,,,,,,,,,,,,,,,,,,,,,,,,,,,,,,,,,,,,,,,,,,,,,,,,,,,,,,,,,,,,,,,,,,,
,,5fa472cf29a8e70f22c5d521,2023-12-07_07h31.43.141,kallum_motion_pilot,2023.2.3,Win32,30.14318011,5fa472cf29a8e70f22c5d521,6560176e4d91f764e2a42c74,657158935aaa6fe1a29dea10,0.1834,0.1837,1,32,194,65,1,onethree,,,,,,,,,,,,,,,,,,,,,,,,,,,,,,,,,,,,,,,,,,,,,,,,,,,,,,,,,,,,,,,,,,,,,,,,,,,,,,,,,,,,,,,,,,,,,,,,,,,,,,,,,,,,,,,,,,,,,,,,,,,,,,,,,,,,,,,
,,5fa472cf29a8e70f22c5d521,2023-12-07_07h31.43.141,kallum_motion_pilot,2023.2.3,Win32,30.14318011,5fa472cf29a8e70f22c5d521,6560176e4d91f764e2a42c74,657158935aaa6fe1a29dea10,0.1839,0.184,1,33,195,21,1,threefour,,,,,,,,,,,,,,,,,,,,,,,,,,,,,,,,,,,,,,,,,,,,,,,,,,,,,,,,,,,,,,,,,,,,,,,,,,,,,,,,,,,,,,,,,,,,,,,,,,,,,,,,,,,,,,,,,,,,,,,,,,,,,,,,,,,,,,,
,,5fa472cf29a8e70f22c5d521,2023-12-07_07h31.43.141,kallum_motion_pilot,2023.2.3,Win32,30.14318011,5fa472cf29a8e70f22c5d521,6560176e4d91f764e2a42c74,657158935aaa6fe1a29dea10,0.1842,0.1845,1,34,196,14,1,fourtwo,,,,,,,,,,,,,,,,,,,,,,,,,,,,,,,,,,,,,,,,,,,,,,,,,,,,,,,,,,,,,,,,,,,,,,,,,,,,,,,,,,,,,,,,,,,,,,,,,,,,,,,,,,,,,,,,,,,,,,,,,,,,,,,,,,,,,,,
,,5fa472cf29a8e70f22c5d521,2023-12-07_07h31.43.141,kallum_motion_pilot,2023.2.3,Win32,30.14318011,5fa472cf29a8e70f22c5d521,6560176e4d91f764e2a42c74,657158935aaa6fe1a29dea10,0.1847,0.1849,1,35,197,124,1,sevenfive,,,,,,,,,,,,,,,,,,,,,,,,,,,,,,,,,,,,,,,,,,,,,,,,,,,,,,,,,,,,,,,,,,,,,,,,,,,,,,,,,,,,,,,,,,,,,,,,,,,,,,,,,,,,,,,,,,,,,,,,,,,,,,,,,,,,,,,
,,5fa472cf29a8e70f22c5d521,2023-12-07_07h31.43.141,kallum_motion_pilot,2023.2.3,Win32,30.14318011,5fa472cf29a8e70f22c5d521,6560176e4d91f764e2a42c74,657158935aaa6fe1a29dea10,0.1851,0.1853,1,36,198,20,1,threeone,,,,,,,,,,,,,,,,,,,,,,,,,,,,,,,,,,,,,,,,,,,,,,,,,,,,,,,,,,,,,,,,,,,,,,,,,,,,,,,,,,,,,,,,,,,,,,,,,,,,,,,,,,,,,,,,,,,,,,,,,,,,,,,,,,,,,,,
,,5fa472cf29a8e70f22c5d521,2023-12-07_07h31.43.141,kallum_motion_pilot,2023.2.3,Win32,30.14318011,5fa472cf29a8e70f22c5d521,6560176e4d91f764e2a42c74,657158935aaa6fe1a29dea10,0.1857,0.1859,1,37,199,88,1,fivesix,,,,,,,,,,,,,,,,,,,,,,,,,,,,,,,,,,,,,,,,,,,,,,,,,,,,,,,,,,,,,,,,,,,,,,,,,,,,,,,,,,,,,,,,,,,,,,,,,,,,,,,,,,,,,,,,,,,,,,,,,,,,,,,,,,,,,,,
,,5fa472cf29a8e70f22c5d521,2023-12-07_07h31.43.141,kallum_motion_pilot,2023.2.3,Win32,30.14318011,5fa472cf29a8e70f22c5d521,6560176e4d91f764e2a42c74,657158935aaa6fe1a29dea10,0.1861,0.1863,1,38,200,4,1,threeone,,,,,,,,,,,,,,,,,,,,,,,,,,,,,,,,,,,,,,,,,,,,,,,,,,,,,,,,,,,,,,,,,,,,,,,,,,,,,,,,,,,,,,,,,,,,,,,,,,,,,,,,,,,,,,,,,,,,,,,,,,,,,,,,,,,,,,,
,,5fa472cf29a8e70f22c5d521,2023-12-07_07h31.43.141,kallum_motion_pilot,2023.2.3,Win32,30.14318011,5fa472cf29a8e70f22c5d521,6560176e4d91f764e2a42c74,657158935aaa6fe1a29dea10,0.1865,0.1867,1,39,201,90,1,sixfive,,,,,,,,,,,,,,,,,,,,,,,,,,,,,,,,,,,,,,,,,,,,,,,,,,,,,,,,,,,,,,,,,,,,,,,,,,,,,,,,,,,,,,,,,,,,,,,,,,,,,,,,,,,,,,,,,,,,,,,,,,,,,,,,,,,,,,,
,,5fa472cf29a8e70f22c5d521,2023-12-07_07h31.43.141,kallum_motion_pilot,2023.2.3,Win32,30.14318011,5fa472cf29a8e70f22c5d521,6560176e4d91f764e2a42c74,657158935aaa6fe1a29dea10,0.1869,0.1871,1,40,202,49,1,onethree,,,,,,,,,,,,,,,,,,,,,,,,,,,,,,,,,,,,,,,,,,,,,,,,,,,,,,,,,,,,,,,,,,,,,,,,,,,,,,,,,,,,,,,,,,,,,,,,,,,,,,,,,,,,,,,,,,,,,,,,,,,,,,,,,,,,,,,
,,5fa472cf29a8e70f22c5d521,2023-12-07_07h31.43.141,kallum_motion_pilot,2023.2.3,Win32,30.14318011,5fa472cf29a8e70f22c5d521,6560176e4d91f764e2a42c74,657158935aaa6fe1a29dea10,0.1874,0.1875,1,41,203,5,1,threefour,,,,,,,,,,,,,,,,,,,,,,,,,,,,,,,,,,,,,,,,,,,,,,,,,,,,,,,,,,,,,,,,,,,,,,,,,,,,,,,,,,,,,,,,,,,,,,,,,,,,,,,,,,,,,,,,,,,,,,,,,,,,,,,,,,,,,,,
,,5fa472cf29a8e70f22c5d521,2023-12-07_07h31.43.141,kallum_motion_pilot,2023.2.3,Win32,30.14318011,5fa472cf29a8e70f22c5d521,6560176e4d91f764e2a42c74,657158935aaa6fe1a29dea10,0.1878,0.1879,1,42,204,72,1,onetwo,,,,,,,,,,,,,,,,,,,,,,,,,,,,,,,,,,,,,,,,,,,,,,,,,,,,,,,,,,,,,,,,,,,,,,,,,,,,,,,,,,,,,,,,,,,,,,,,,,,,,,,,,,,,,,,,,,,,,,,,,,,,,,,,,,,,,,,
,,5fa472cf29a8e70f22c5d521,2023-12-07_07h31.43.141,kallum_motion_pilot,2023.2.3,Win32,30.14318011,5fa472cf29a8e70f22c5d521,6560176e4d91f764e2a42c74,657158935aaa6fe1a29dea10,0.1886,0.1888,1,43,205,94,1,eightsix,,,,,,,,,,,,,,,,,,,,,,,,,,,,,,,,,,,,,,,,,,,,,,,,,,,,,,,,,,,,,,,,,,,,,,,,,,,,,,,,,,,,,,,,,,,,,,,,,,,,,,,,,,,,,,,,,,,,,,,,,,,,,,,,,,,,,,,
,,5fa472cf29a8e70f22c5d521,2023-12-07_07h31.43.141,kallum_motion_pilot,2023.2.3,Win32,30.14318011,5fa472cf29a8e70f22c5d521,6560176e4d91f764e2a42c74,657158935aaa6fe1a29dea10,0.1891,0.1893,1,44,206,63,1,fourthree,,,,,,,,,,,,,,,,,,,,,,,,,,,,,,,,,,,,,,,,,,,,,,,,,,,,,,,,,,,,,,,,,,,,,,,,,,,,,,,,,,,,,,,,,,,,,,,,,,,,,,,,,,,,,,,,,,,,,,,,,,,,,,,,,,,,,,,
,,5fa472cf29a8e70f22c5d521,2023-12-07_07h31.43.141,kallum_motion_pilot,2023.2.3,Win32,30.14318011,5fa472cf29a8e70f22c5d521,6560176e4d91f764e2a42c74,657158935aaa6fe1a29dea10,0.1896,0.1897,1,45,207,110,1,eightsix,,,,,,,,,,,,,,,,,,,,,,,,,,,,,,,,,,,,,,,,,,,,,,,,,,,,,,,,,,,,,,,,,,,,,,,,,,,,,,,,,,,,,,,,,,,,,,,,,,,,,,,,,,,,,,,,,,,,,,,,,,,,,,,,,,,,,,,
,,5fa472cf29a8e70f22c5d521,2023-12-07_07h31.43.141,kallum_motion_pilot,2023.2.3,Win32,30.14318011,5fa472cf29a8e70f22c5d521,6560176e4d91f764e2a42c74,657158935aaa6fe1a29dea10,0.19,0.1902,1,46,208,27,1,twofour,,,,,,,,,,,,,,,,,,,,,,,,,,,,,,,,,,,,,,,,,,,,,,,,,,,,,,,,,,,,,,,,,,,,,,,,,,,,,,,,,,,,,,,,,,,,,,,,,,,,,,,,,,,,,,,,,,,,,,,,,,,,,,,,,,,,,,,
,,5fa472cf29a8e70f22c5d521,2023-12-07_07h31.43.141,kallum_motion_pilot,2023.2.3,Win32,30.14318011,5fa472cf29a8e70f22c5d521,6560176e4d91f764e2a42c74,657158935aaa6fe1a29dea10,0.1904,0.1906,1,47,209,97,1,fiveseven,,,,,,,,,,,,,,,,,,,,,,,,,,,,,,,,,,,,,,,,,,,,,,,,,,,,,,,,,,,,,,,,,,,,,,,,,,,,,,,,,,,,,,,,,,,,,,,,,,,,,,,,,,,,,,,,,,,,,,,,,,,,,,,,,,,,,,,
,,5fa472cf29a8e70f22c5d521,2023-12-07_07h31.43.141,kallum_motion_pilot,2023.2.3,Win32,30.14318011,5fa472cf29a8e70f22c5d521,6560176e4d91f764e2a42c74,657158935aaa6fe1a29dea10,0.1908,0.191,1,48,210,67,1,twofour,,,,,,,,,,,,,,,,,,,,,,,,,,,,,,,,,,,,,,,,,,,,,,,,,,,,,,,,,,,,,,,,,,,,,,,,,,,,,,,,,,,,,,,,,,,,,,,,,,,,,,,,,,,,,,,,,,,,,,,,,,,,,,,,,,,,,,,
,,5fa472cf29a8e70f22c5d521,2023-12-07_07h31.43.141,kallum_motion_pilot,2023.2.3,Win32,30.14318011,5fa472cf29a8e70f22c5d521,6560176e4d91f764e2a42c74,657158935aaa6fe1a29dea10,0.1913,0.1915,1,49,211,44,1,threeone,,,,,,,,,,,,,,,,,,,,,,,,,,,,,,,,,,,,,,,,,,,,,,,,,,,,,,,,,,,,,,,,,,,,,,,,,,,,,,,,,,,,,,,,,,,,,,,,,,,,,,,,,,,,,,,,,,,,,,,,,,,,,,,,,,,,,,,
,,5fa472cf29a8e70f22c5d521,2023-12-07_07h31.43.141,kallum_motion_pilot,2023.2.3,Win32,30.14318011,5fa472cf29a8e70f22c5d521,6560176e4d91f764e2a42c74,657158935aaa6fe1a29dea10,0.1917,0.1919,1,50,212,112,1,fivesix,,,,,,,,,,,,,,,,,,,,,,,,,,,,,,,,,,,,,,,,,,,,,,,,,,,,,,,,,,,,,,,,,,,,,,,,,,,,,,,,,,,,,,,,,,,,,,,,,,,,,,,,,,,,,,,,,,,,,,,,,,,,,,,,,,,,,,,
,,5fa472cf29a8e70f22c5d521,2023-12-07_07h31.43.141,kallum_motion_pilot,2023.2.3,Win32,30.14318011,5fa472cf29a8e70f22c5d521,6560176e4d91f764e2a42c74,657158935aaa6fe1a29dea10,0.1924,0.1928,1,51,213,17,1,onethree,,,,,,,,,,,,,,,,,,,,,,,,,,,,,,,,,,,,,,,,,,,,,,,,,,,,,,,,,,,,,,,,,,,,,,,,,,,,,,,,,,,,,,,,,,,,,,,,,,,,,,,,,,,,,,,,,,,,,,,,,,,,,,,,,,,,,,,
,,5fa472cf29a8e70f22c5d521,2023-12-07_07h31.43.141,kallum_motion_pilot,2023.2.3,Win32,30.14318011,5fa472cf29a8e70f22c5d521,6560176e4d91f764e2a42c74,657158935aaa6fe1a29dea10,0.1931,0.1935,1,52,214,107,1,sixeight,,,,,,,,,,,,,,,,,,,,,,,,,,,,,,,,,,,,,,,,,,,,,,,,,,,,,,,,,,,,,,,,,,,,,,,,,,,,,,,,,,,,,,,,,,,,,,,,,,,,,,,,,,,,,,,,,,,,,,,,,,,,,,,,,,,,,,,
,,5fa472cf29a8e70f22c5d521,2023-12-07_07h31.43.141,kallum_motion_pilot,2023.2.3,Win32,30.14318011,5fa472cf29a8e70f22c5d521,6560176e4d91f764e2a42c74,657158935aaa6fe1a29dea10,0.1938,0.1942,1,53,215,58,1,twoone,,,,,,,,,,,,,,,,,,,,,,,,,,,,,,,,,,,,,,,,,,,,,,,,,,,,,,,,,,,,,,,,,,,,,,,,,,,,,,,,,,,,,,,,,,,,,,,,,,,,,,,,,,,,,,,,,,,,,,,,,,,,,,,,,,,,,,,
,,5fa472cf29a8e70f22c5d521,2023-12-07_07h31.43.141,kallum_motion_pilot,2023.2.3,Win32,30.14318011,5fa472cf29a8e70f22c5d521,6560176e4d91f764e2a42c74,657158935aaa6fe1a29dea10,0.1945,0.1947,1,54,216,147,1,sixeight,,,,,,,,,,,,,,,,,,,,,,,,,,,,,,,,,,,,,,,,,,,,,,,,,,,,,,,,,,,,,,,,,,,,,,,,,,,,,,,,,,,,,,,,,,,,,,,,,,,,,,,,,,,,,,,,,,,,,,,,,,,,,,,,,,,,,,,
,,5fa472cf29a8e70f22c5d521,2023-12-07_07h31.43.141,kallum_motion_pilot,2023.2.3,Win32,30.14318011,5fa472cf29a8e70f22c5d521,6560176e4d91f764e2a42c74,657158935aaa6fe1a29dea10,0.195,0.1959,1,55,217,22,1,fourtwo,,,,,,,,,,,,,,,,,,,,,,,,,,,,,,,,,,,,,,,,,,,,,,,,,,,,,,,,,,,,,,,,,,,,,,,,,,,,,,,,,,,,,,,,,,,,,,,,,,,,,,,,,,,,,,,,,,,,,,,,,,,,,,,,,,,,,,,
,,5fa472cf29a8e70f22c5d521,2023-12-07_07h31.43.141,kallum_motion_pilot,2023.2.3,Win32,30.14318011,5fa472cf29a8e70f22c5d521,6560176e4d91f764e2a42c74,657158935aaa6fe1a29dea10,0.1969,0.1971,1,56,218,1,1,onethree,,,,,,,,,,,,,,,,,,,,,,,,,,,,,,,,,,,,,,,,,,,,,,,,,,,,,,,,,,,,,,,,,,,,,,,,,,,,,,,,,,,,,,,,,,,,,,,,,,,,,,,,,,,,,,,,,,,,,,,,,,,,,,,,,,,,,,,
,,5fa472cf29a8e70f22c5d521,2023-12-07_07h31.43.141,kallum_motion_pilot,2023.2.3,Win32,30.14318011,5fa472cf29a8e70f22c5d521,6560176e4d91f764e2a42c74,657158935aaa6fe1a29dea10,0.1975,0.1979,1,57,219,68,1,threeone,,,,,,,,,,,,,,,,,,,,,,,,,,,,,,,,,,,,,,,,,,,,,,,,,,,,,,,,,,,,,,,,,,,,,,,,,,,,,,,,,,,,,,,,,,,,,,,,,,,,,,,,,,,,,,,,,,,,,,,,,,,,,,,,,,,,,,,
,,5fa472cf29a8e70f22c5d521,2023-12-07_07h31.43.141,kallum_motion_pilot,2023.2.3,Win32,30.14318011,5fa472cf29a8e70f22c5d521,6560176e4d91f764e2a42c74,657158935aaa6fe1a29dea10,0.1986,0.1991,1,58,220,135,1,eightseven,,,,,,,,,,,,,,,,,,,,,,,,,,,,,,,,,,,,,,,,,,,,,,,,,,,,,,,,,,,,,,,,,,,,,,,,,,,,,,,,,,,,,,,,,,,,,,,,,,,,,,,,,,,,,,,,,,,,,,,,,,,,,,,,,,,,,,,
,,5fa472cf29a8e70f22c5d521,2023-12-07_07h31.43.141,kallum_motion_pilot,2023.2.3,Win32,30.14318011,5fa472cf29a8e70f22c5d521,6560176e4d91f764e2a42c74,657158935aaa6fe1a29dea10,0.1994,0.1998,1,59,221,8,1,onetwo,,,,,,,,,,,,,,,,,,,,,,,,,,,,,,,,,,,,,,,,,,,,,,,,,,,,,,,,,,,,,,,,,,,,,,,,,,,,,,,,,,,,,,,,,,,,,,,,,,,,,,,,,,,,,,,,,,,,,,,,,,,,,,,,,,,,,,,
,,5fa472cf29a8e70f22c5d521,2023-12-07_07h31.43.141,kallum_motion_pilot,2023.2.3,Win32,30.14318011,5fa472cf29a8e70f22c5d521,6560176e4d91f764e2a42c74,657158935aaa6fe1a29dea10,0.2002,0.2006,1,60,222,160,1,fivesix,,,,,,,,,,,,,,,,,,,,,,,,,,,,,,,,,,,,,,,,,,,,,,,,,,,,,,,,,,,,,,,,,,,,,,,,,,,,,,,,,,,,,,,,,,,,,,,,,,,,,,,,,,,,,,,,,,,,,,,,,,,,,,,,,,,,,,,
,,5fa472cf29a8e70f22c5d521,2023-12-07_07h31.43.141,kallum_motion_pilot,2023.2.3,Win32,30.14318011,5fa472cf29a8e70f22c5d521,6560176e4d91f764e2a42c74,657158935aaa6fe1a29dea10,0.201,0.2019,1,61,223,53,1,threefour,,,,,,,,,,,,,,,,,,,,,,,,,,,,,,,,,,,,,,,,,,,,,,,,,,,,,,,,,,,,,,,,,,,,,,,,,,,,,,,,,,,,,,,,,,,,,,,,,,,,,,,,,,,,,,,,,,,,,,,,,,,,,,,,,,,,,,,
,,5fa472cf29a8e70f22c5d521,2023-12-07_07h31.43.141,kallum_motion_pilot,2023.2.3,Win32,30.14318011,5fa472cf29a8e70f22c5d521,6560176e4d91f764e2a42c74,657158935aaa6fe1a29dea10,0.2024,0.2027,1,62,224,140,1,sevenfive,,,,,,,,,,,,,,,,,,,,,,,,,,,,,,,,,,,,,,,,,,,,,,,,,,,,,,,,,,,,,,,,,,,,,,,,,,,,,,,,,,,,,,,,,,,,,,,,,,,,,,,,,,,,,,,,,,,,,,,,,,,,,,,,,,,,,,,
,,5fa472cf29a8e70f22c5d521,2023-12-07_07h31.43.141,kallum_motion_pilot,2023.2.3,Win32,30.14318011,5fa472cf29a8e70f22c5d521,6560176e4d91f764e2a42c74,657158935aaa6fe1a29dea10,0.2029,0.2032,1,63,225,152,1,fivesix,,,,,,,,,,,,,,,,,,,,,,,,,,,,,,,,,,,,,,,,,,,,,,,,,,,,,,,,,,,,,,,,,,,,,,,,,,,,,,,,,,,,,,,,,,,,,,,,,,,,,,,,,,,,,,,,,,,,,,,,,,,,,,,,,,,,,,,
,,5fa472cf29a8e70f22c5d521,2023-12-07_07h31.43.141,kallum_motion_pilot,2023.2.3,Win32,30.14318011,5fa472cf29a8e70f22c5d521,6560176e4d91f764e2a42c74,657158935aaa6fe1a29dea10,0.2035,0.2036,1,64,226,36,1,threeone,,,,,,,,,,,,,,,,,,,,,,,,,,,,,,,,,,,,,,,,,,,,,,,,,,,,,,,,,,,,,,,,,,,,,,,,,,,,,,,,,,,,,,,,,,,,,,,,,,,,,,,,,,,,,,,,,,,,,,,,,,,,,,,,,,,,,,,
,,5fa472cf29a8e70f22c5d521,2023-12-07_07h31.43.141,kallum_motion_pilot,2023.2.3,Win32,30.14318011,5fa472cf29a8e70f22c5d521,6560176e4d91f764e2a42c74,657158935aaa6fe1a29dea10,0.2039,0.2041,1,65,227,16,1,onetwo,,,,,,,,,,,,,,,,,,,,,,,,,,,,,,,,,,,,,,,,,,,,,,,,,,,,,,,,,,,,,,,,,,,,,,,,,,,,,,,,,,,,,,,,,,,,,,,,,,,,,,,,,,,,,,,,,,,,,,,,,,,,,,,,,,,,,,,
,,5fa472cf29a8e70f22c5d521,2023-12-07_07h31.43.141,kallum_motion_pilot,2023.2.3,Win32,30.14318011,5fa472cf29a8e70f22c5d521,6560176e4d91f764e2a42c74,657158935aaa6fe1a29dea10,0.2043,0.2046,1,66,228,134,1,eightsix,,,,,,,,,,,,,,,,,,,,,,,,,,,,,,,,,,,,,,,,,,,,,,,,,,,,,,,,,,,,,,,,,,,,,,,,,,,,,,,,,,,,,,,,,,,,,,,,,,,,,,,,,,,,,,,,,,,,,,,,,,,,,,,,,,,,,,,
,,5fa472cf29a8e70f22c5d521,2023-12-07_07h31.43.141,kallum_motion_pilot,2023.2.3,Win32,30.14318011,5fa472cf29a8e70f22c5d521,6560176e4d91f764e2a42c74,657158935aaa6fe1a29dea10,0.2048,0.2053,1,67,229,40,1,onetwo,,,,,,,,,,,,,,,,,,,,,,,,,,,,,,,,,,,,,,,,,,,,,,,,,,,,,,,,,,,,,,,,,,,,,,,,,,,,,,,,,,,,,,,,,,,,,,,,,,,,,,,,,,,,,,,,,,,,,,,,,,,,,,,,,,,,,,,
,,5fa472cf29a8e70f22c5d521,2023-12-07_07h31.43.141,kallum_motion_pilot,2023.2.3,Win32,30.14318011,5fa472cf29a8e70f22c5d521,6560176e4d91f764e2a42c74,657158935aaa6fe1a29dea10,0.2055,0.2058,1,68,230,10,1,twoone,,,,,,,,,,,,,,,,,,,,,,,,,,,,,,,,,,,,,,,,,,,,,,,,,,,,,,,,,,,,,,,,,,,,,,,,,,,,,,,,,,,,,,,,,,,,,,,,,,,,,,,,,,,,,,,,,,,,,,,,,,,,,,,,,,,,,,,
,,5fa472cf29a8e70f22c5d521,2023-12-07_07h31.43.141,kallum_motion_pilot,2023.2.3,Win32,30.14318011,5fa472cf29a8e70f22c5d521,6560176e4d91f764e2a42c74,657158935aaa6fe1a29dea10,0.206,0.2062,1,69,231,55,1,fourthree,,,,,,,,,,,,,,,,,,,,,,,,,,,,,,,,,,,,,,,,,,,,,,,,,,,,,,,,,,,,,,,,,,,,,,,,,,,,,,,,,,,,,,,,,,,,,,,,,,,,,,,,,,,,,,,,,,,,,,,,,,,,,,,,,,,,,,,
,,5fa472cf29a8e70f22c5d521,2023-12-07_07h31.43.141,kallum_motion_pilot,2023.2.3,Win32,30.14318011,5fa472cf29a8e70f22c5d521,6560176e4d91f764e2a42c74,657158935aaa6fe1a29dea10,0.2066,0.2068,1,70,232,9,1,onethree,,,,,,,,,,,,,,,,,,,,,,,,,,,,,,,,,,,,,,,,,,,,,,,,,,,,,,,,,,,,,,,,,,,,,,,,,,,,,,,,,,,,,,,,,,,,,,,,,,,,,,,,,,,,,,,,,,,,,,,,,,,,,,,,,,,,,,,
,,5fa472cf29a8e70f22c5d521,2023-12-07_07h31.43.141,kallum_motion_pilot,2023.2.3,Win32,30.14318011,5fa472cf29a8e70f22c5d521,6560176e4d91f764e2a42c74,657158935aaa6fe1a29dea10,0.2071,0.2073,1,71,233,121,1,fiveseven,,,,,,,,,,,,,,,,,,,,,,,,,,,,,,,,,,,,,,,,,,,,,,,,,,,,,,,,,,,,,,,,,,,,,,,,,,,,,,,,,,,,,,,,,,,,,,,,,,,,,,,,,,,,,,,,,,,,,,,,,,,,,,,,,,,,,,,
,,5fa472cf29a8e70f22c5d521,2023-12-07_07h31.43.141,kallum_motion_pilot,2023.2.3,Win32,30.14318011,5fa472cf29a8e70f22c5d521,6560176e4d91f764e2a42c74,657158935aaa6fe1a29dea10,0.2075,0.2078,1,72,234,115,1,sixeight,,,,,,,,,,,,,,,,,,,,,,,,,,,,,,,,,,,,,,,,,,,,,,,,,,,,,,,,,,,,,,,,,,,,,,,,,,,,,,,,,,,,,,,,,,,,,,,,,,,,,,,,,,,,,,,,,,,,,,,,,,,,,,,,,,,,,,,
,,5fa472cf29a8e70f22c5d521,2023-12-07_07h31.43.141,kallum_motion_pilot,2023.2.3,Win32,30.14318011,5fa472cf29a8e70f22c5d521,6560176e4d91f764e2a42c74,657158935aaa6fe1a29dea10,0.208,0.2083,1,73,235,86,1,eightsix,,,,,,,,,,,,,,,,,,,,,,,,,,,,,,,,,,,,,,,,,,,,,,,,,,,,,,,,,,,,,,,,,,,,,,,,,,,,,,,,,,,,,,,,,,,,,,,,,,,,,,,,,,,,,,,,,,,,,,,,,,,,,,,,,,,,,,,
,,5fa472cf29a8e70f22c5d521,2023-12-07_07h31.43.141,kallum_motion_pilot,2023.2.3,Win32,30.14318011,5fa472cf29a8e70f22c5d521,6560176e4d91f764e2a42c74,657158935aaa6fe1a29dea10,0.2085,0.2087,1,74,236,119,1,eightseven,,,,,,,,,,,,,,,,,,,,,,,,,,,,,,,,,,,,,,,,,,,,,,,,,,,,,,,,,,,,,,,,,,,,,,,,,,,,,,,,,,,,,,,,,,,,,,,,,,,,,,,,,,,,,,,,,,,,,,,,,,,,,,,,,,,,,,,
,,5fa472cf29a8e70f22c5d521,2023-12-07_07h31.43.141,kallum_motion_pilot,2023.2.3,Win32,30.14318011,5fa472cf29a8e70f22c5d521,6560176e4d91f764e2a42c74,657158935aaa6fe1a29dea10,0.209,0.2092,1,75,237,35,1,twofour,,,,,,,,,,,,,,,,,,,,,,,,,,,,,,,,,,,,,,,,,,,,,,,,,,,,,,,,,,,,,,,,,,,,,,,,,,,,,,,,,,,,,,,,,,,,,,,,,,,,,,,,,,,,,,,,,,,,,,,,,,,,,,,,,,,,,,,
,,5fa472cf29a8e70f22c5d521,2023-12-07_07h31.43.141,kallum_motion_pilot,2023.2.3,Win32,30.14318011,5fa472cf29a8e70f22c5d521,6560176e4d91f764e2a42c74,657158935aaa6fe1a29dea10,0.2094,0.2097,1,76,238,161,1,fiveseven,,,,,,,,,,,,,,,,,,,,,,,,,,,,,,,,,,,,,,,,,,,,,,,,,,,,,,,,,,,,,,,,,,,,,,,,,,,,,,,,,,,,,,,,,,,,,,,,,,,,,,,,,,,,,,,,,,,,,,,,,,,,,,,,,,,,,,,
,,5fa472cf29a8e70f22c5d521,2023-12-07_07h31.43.141,kallum_motion_pilot,2023.2.3,Win32,30.14318011,5fa472cf29a8e70f22c5d521,6560176e4d91f764e2a42c74,657158935aaa6fe1a29dea10,0.21,0.2101,1,77,239,32,1,onetwo,,,,,,,,,,,,,,,,,,,,,,,,,,,,,,,,,,,,,,,,,,,,,,,,,,,,,,,,,,,,,,,,,,,,,,,,,,,,,,,,,,,,,,,,,,,,,,,,,,,,,,,,,,,,,,,,,,,,,,,,,,,,,,,,,,,,,,,
,,5fa472cf29a8e70f22c5d521,2023-12-07_07h31.43.141,kallum_motion_pilot,2023.2.3,Win32,30.14318011,5fa472cf29a8e70f22c5d521,6560176e4d91f764e2a42c74,657158935aaa6fe1a29dea10,0.2104,0.2106,1,78,240,93,1,seveneight,,,,,,,,,,,,,,,,,,,,,,,,,,,,,,,,,,,,,,,,,,,,,,,,,,,,,,,,,,,,,,,,,,,,,,,,,,,,,,,,,,,,,,,,,,,,,,,,,,,,,,,,,,,,,,,,,,,,,,,,,,,,,,,,,,,,,,,
,,5fa472cf29a8e70f22c5d521,2023-12-07_07h31.43.141,kallum_motion_pilot,2023.2.3,Win32,30.14318011,5fa472cf29a8e70f22c5d521,6560176e4d91f764e2a42c74,657158935aaa6fe1a29dea10,0.2108,0.2111,1,79,241,108,1,sevenfive,,,,,,,,,,,,,,,,,,,,,,,,,,,,,,,,,,,,,,,,,,,,,,,,,,,,,,,,,,,,,,,,,,,,,,,,,,,,,,,,,,,,,,,,,,,,,,,,,,,,,,,,,,,,,,,,,,,,,,,,,,,,,,,,,,,,,,,
,,5fa472cf29a8e70f22c5d521,2023-12-07_07h31.43.141,kallum_motion_pilot,2023.2.3,Win32,30.14318011,5fa472cf29a8e70f22c5d521,6560176e4d91f764e2a42c74,657158935aaa6fe1a29dea10,0.2114,0.2115,1,80,242,114,1,sixfive,,,,,,,,,,,,,,,,,,,,,,,,,,,,,,,,,,,,,,,,,,,,,,,,,,,,,,,,,,,,,,,,,,,,,,,,,,,,,,,,,,,,,,,,,,,,,,,,,,,,,,,,,,,,,,,,,,,,,,,,,,,,,,,,,,,,,,,
,,5fa472cf29a8e70f22c5d521,2023-12-07_07h31.43.141,kallum_motion_pilot,2023.2.3,Win32,30.14318011,5fa472cf29a8e70f22c5d521,6560176e4d91f764e2a42c74,657158935aaa6fe1a29dea10,0.2118,0.212,1,81,243,144,1,fivesix,,,,,,,,,,,,,,,,,,,,,,,,,,,,,,,,,,,,,,,,,,,,,,,,,,,,,,,,,,,,,,,,,,,,,,,,,,,,,,,,,,,,,,,,,,,,,,,,,,,,,,,,,,,,,,,,,,,,,,,,,,,,,,,,,,,,,,,
,,5fa472cf29a8e70f22c5d521,2023-12-07_07h31.43.141,kallum_motion_pilot,2023.2.3,Win32,30.14318011,5fa472cf29a8e70f22c5d521,6560176e4d91f764e2a42c74,657158935aaa6fe1a29dea10,0.2123,0.2124,1,82,244,99,1,sixeight,,,,,,,,,,,,,,,,,,,,,,,,,,,,,,,,,,,,,,,,,,,,,,,,,,,,,,,,,,,,,,,,,,,,,,,,,,,,,,,,,,,,,,,,,,,,,,,,,,,,,,,,,,,,,,,,,,,,,,,,,,,,,,,,,,,,,,,
,,5fa472cf29a8e70f22c5d521,2023-12-07_07h31.43.141,kallum_motion_pilot,2023.2.3,Win32,30.14318011,5fa472cf29a8e70f22c5d521,6560176e4d91f764e2a42c74,657158935aaa6fe1a29dea10,0.2127,0.213,1,83,245,18,1,twoone,,,,,,,,,,,,,,,,,,,,,,,,,,,,,,,,,,,,,,,,,,,,,,,,,,,,,,,,,,,,,,,,,,,,,,,,,,,,,,,,,,,,,,,,,,,,,,,,,,,,,,,,,,,,,,,,,,,,,,,,,,,,,,,,,,,,,,,
,,5fa472cf29a8e70f22c5d521,2023-12-07_07h31.43.141,kallum_motion_pilot,2023.2.3,Win32,30.14318011,5fa472cf29a8e70f22c5d521,6560176e4d91f764e2a42c74,657158935aaa6fe1a29dea10,0.2131,0.2134,1,84,246,42,1,twoone,,,,,,,,,,,,,,,,,,,,,,,,,,,,,,,,,,,,,,,,,,,,,,,,,,,,,,,,,,,,,,,,,,,,,,,,,,,,,,,,,,,,,,,,,,,,,,,,,,,,,,,,,,,,,,,,,,,,,,,,,,,,,,,,,,,,,,,
,,5fa472cf29a8e70f22c5d521,2023-12-07_07h31.43.141,kallum_motion_pilot,2023.2.3,Win32,30.14318011,5fa472cf29a8e70f22c5d521,6560176e4d91f764e2a42c74,657158935aaa6fe1a29dea10,0.2136,0.2138,1,85,247,106,1,sixfive,,,,,,,,,,,,,,,,,,,,,,,,,,,,,,,,,,,,,,,,,,,,,,,,,,,,,,,,,,,,,,,,,,,,,,,,,,,,,,,,,,,,,,,,,,,,,,,,,,,,,,,,,,,,,,,,,,,,,,,,,,,,,,,,,,,,,,,
,,5fa472cf29a8e70f22c5d521,2023-12-07_07h31.43.141,kallum_motion_pilot,2023.2.3,Win32,30.14318011,5fa472cf29a8e70f22c5d521,6560176e4d91f764e2a42c74,657158935aaa6fe1a29dea10,0.214,0.2143,1,86,248,62,1,fourtwo,,,,,,,,,,,,,,,,,,,,,,,,,,,,,,,,,,,,,,,,,,,,,,,,,,,,,,,,,,,,,,,,,,,,,,,,,,,,,,,,,,,,,,,,,,,,,,,,,,,,,,,,,,,,,,,,,,,,,,,,,,,,,,,,,,,,,,,
,,5fa472cf29a8e70f22c5d521,2023-12-07_07h31.43.141,kallum_motion_pilot,2023.2.3,Win32,30.14318011,5fa472cf29a8e70f22c5d521,6560176e4d91f764e2a42c74,657158935aaa6fe1a29dea10,0.2146,0.2147,1,87,249,50,1,twoone,,,,,,,,,,,,,,,,,,,,,,,,,,,,,,,,,,,,,,,,,,,,,,,,,,,,,,,,,,,,,,,,,,,,,,,,,,,,,,,,,,,,,,,,,,,,,,,,,,,,,,,,,,,,,,,,,,,,,,,,,,,,,,,,,,,,,,,
,,5fa472cf29a8e70f22c5d521,2023-12-07_07h31.43.141,kallum_motion_pilot,2023.2.3,Win32,30.14318011,5fa472cf29a8e70f22c5d521,6560176e4d91f764e2a42c74,657158935aaa6fe1a29dea10,0.215,0.2153,1,88,250,142,1,eightsix,,,,,,,,,,,,,,,,,,,,,,,,,,,,,,,,,,,,,,,,,,,,,,,,,,,,,,,,,,,,,,,,,,,,,,,,,,,,,,,,,,,,,,,,,,,,,,,,,,,,,,,,,,,,,,,,,,,,,,,,,,,,,,,,,,,,,,,
,,5fa472cf29a8e70f22c5d521,2023-12-07_07h31.43.141,kallum_motion_pilot,2023.2.3,Win32,30.14318011,5fa472cf29a8e70f22c5d521,6560176e4d91f764e2a42c74,657158935aaa6fe1a29dea10,0.2156,0.2158,1,89,251,128,1,fivesix,,,,,,,,,,,,,,,,,,,,,,,,,,,,,,,,,,,,,,,,,,,,,,,,,,,,,,,,,,,,,,,,,,,,,,,,,,,,,,,,,,,,,,,,,,,,,,,,,,,,,,,,,,,,,,,,,,,,,,,,,,,,,,,,,,,,,,,
,,5fa472cf29a8e70f22c5d521,2023-12-07_07h31.43.141,kallum_motion_pilot,2023.2.3,Win32,30.14318011,5fa472cf29a8e70f22c5d521,6560176e4d91f764e2a42c74,657158935aaa6fe1a29dea10,0.2162,0.2165,1,90,252,123,1,sixeight,,,,,,,,,,,,,,,,,,,,,,,,,,,,,,,,,,,,,,,,,,,,,,,,,,,,,,,,,,,,,,,,,,,,,,,,,,,,,,,,,,,,,,,,,,,,,,,,,,,,,,,,,,,,,,,,,,,,,,,,,,,,,,,,,,,,,,,
,,5fa472cf29a8e70f22c5d521,2023-12-07_07h31.43.141,kallum_motion_pilot,2023.2.3,Win32,30.14318011,5fa472cf29a8e70f22c5d521,6560176e4d91f764e2a42c74,657158935aaa6fe1a29dea10,0.2168,0.217,1,91,253,139,1,sixeight,,,,,,,,,,,,,,,,,,,,,,,,,,,,,,,,,,,,,,,,,,,,,,,,,,,,,,,,,,,,,,,,,,,,,,,,,,,,,,,,,,,,,,,,,,,,,,,,,,,,,,,,,,,,,,,,,,,,,,,,,,,,,,,,,,,,,,,
,,5fa472cf29a8e70f22c5d521,2023-12-07_07h31.43.141,kallum_motion_pilot,2023.2.3,Win32,30.14318011,5fa472cf29a8e70f22c5d521,6560176e4d91f764e2a42c74,657158935aaa6fe1a29dea10,0.2174,0.2178,1,92,254,77,1,threefour,,,,,,,,,,,,,,,,,,,,,,,,,,,,,,,,,,,,,,,,,,,,,,,,,,,,,,,,,,,,,,,,,,,,,,,,,,,,,,,,,,,,,,,,,,,,,,,,,,,,,,,,,,,,,,,,,,,,,,,,,,,,,,,,,,,,,,,
,,5fa472cf29a8e70f22c5d521,2023-12-07_07h31.43.141,kallum_motion_pilot,2023.2.3,Win32,30.14318011,5fa472cf29a8e70f22c5d521,6560176e4d91f764e2a42c74,657158935aaa6fe1a29dea10,0.2183,0.2186,1,93,255,57,1,onethree,,,,,,,,,,,,,,,,,,,,,,,,,,,,,,,,,,,,,,,,,,,,,,,,,,,,,,,,,,,,,,,,,,,,,,,,,,,,,,,,,,,,,,,,,,,,,,,,,,,,,,,,,,,,,,,,,,,,,,,,,,,,,,,,,,,,,,,
,,5fa472cf29a8e70f22c5d521,2023-12-07_07h31.43.141,kallum_motion_pilot,2023.2.3,Win32,30.14318011,5fa472cf29a8e70f22c5d521,6560176e4d91f764e2a42c74,657158935aaa6fe1a29dea10,0.2188,0.2191,1,94,256,28,1,threeone,,,,,,,,,,,,,,,,,,,,,,,,,,,,,,,,,,,,,,,,,,,,,,,,,,,,,,,,,,,,,,,,,,,,,,,,,,,,,,,,,,,,,,,,,,,,,,,,,,,,,,,,,,,,,,,,,,,,,,,,,,,,,,,,,,,,,,,
,,5fa472cf29a8e70f22c5d521,2023-12-07_07h31.43.141,kallum_motion_pilot,2023.2.3,Win32,30.14318011,5fa472cf29a8e70f22c5d521,6560176e4d91f764e2a42c74,657158935aaa6fe1a29dea10,0.2194,0.2196,1,95,257,7,1,fourthree,,,,,,,,,,,,,,,,,,,,,,,,,,,,,,,,,,,,,,,,,,,,,,,,,,,,,,,,,,,,,,,,,,,,,,,,,,,,,,,,,,,,,,,,,,,,,,,,,,,,,,,,,,,,,,,,,,,,,,,,,,,,,,,,,,,,,,,
,,5fa472cf29a8e70f22c5d521,2023-12-07_07h31.43.141,kallum_motion_pilot,2023.2.3,Win32,30.14318011,5fa472cf29a8e70f22c5d521,6560176e4d91f764e2a42c74,657158935aaa6fe1a29dea10,0.2198,0.2201,1,96,258,156,1,sevenfive,,,,,,,,,,,,,,,,,,,,,,,,,,,,,,,,,,,,,,,,,,,,,,,,,,,,,,,,,,,,,,,,,,,,,,,,,,,,,,,,,,,,,,,,,,,,,,,,,,,,,,,,,,,,,,,,,,,,,,,,,,,,,,,,,,,,,,,
,,5fa472cf29a8e70f22c5d521,2023-12-07_07h31.43.141,kallum_motion_pilot,2023.2.3,Win32,30.14318011,5fa472cf29a8e70f22c5d521,6560176e4d91f764e2a42c74,657158935aaa6fe1a29dea10,0.2203,0.2206,1,97,259,105,1,fiveseven,,,,,,,,,,,,,,,,,,,,,,,,,,,,,,,,,,,,,,,,,,,,,,,,,,,,,,,,,,,,,,,,,,,,,,,,,,,,,,,,,,,,,,,,,,,,,,,,,,,,,,,,,,,,,,,,,,,,,,,,,,,,,,,,,,,,,,,
,,5fa472cf29a8e70f22c5d521,2023-12-07_07h31.43.141,kallum_motion_pilot,2023.2.3,Win32,30.14318011,5fa472cf29a8e70f22c5d521,6560176e4d91f764e2a42c74,657158935aaa6fe1a29dea10,0.2207,0.221,1,98,260,13,1,threefour,,,,,,,,,,,,,,,,,,,,,,,,,,,,,,,,,,,,,,,,,,,,,,,,,,,,,,,,,,,,,,,,,,,,,,,,,,,,,,,,,,,,,,,,,,,,,,,,,,,,,,,,,,,,,,,,,,,,,,,,,,,,,,,,,,,,,,,
,,5fa472cf29a8e70f22c5d521,2023-12-07_07h31.43.141,kallum_motion_pilot,2023.2.3,Win32,30.14318011,5fa472cf29a8e70f22c5d521,6560176e4d91f764e2a42c74,657158935aaa6fe1a29dea10,0.2213,0.2215,1,99,261,29,1,threefour,,,,,,,,,,,,,,,,,,,,,,,,,,,,,,,,,,,,,,,,,,,,,,,,,,,,,,,,,,,,,,,,,,,,,,,,,,,,,,,,,,,,,,,,,,,,,,,,,,,,,,,,,,,,,,,,,,,,,,,,,,,,,,,,,,,,,,,
,,5fa472cf29a8e70f22c5d521,2023-12-07_07h31.43.141,kallum_motion_pilot,2023.2.3,Win32,30.14318011,5fa472cf29a8e70f22c5d521,6560176e4d91f764e2a42c74,657158935aaa6fe1a29dea10,0.2221,0.2222,1,100,262,96,1,fivesix,,,,,,,,,,,,,,,,,,,,,,,,,,,,,,,,,,,,,,,,,,,,,,,,,,,,,,,,,,,,,,,,,,,,,,,,,,,,,,,,,,,,,,,,,,,,,,,,,,,,,,,,,,,,,,,,,,,,,,,,,,,,,,,,,,,,,,,
,,5fa472cf29a8e70f22c5d521,2023-12-07_07h31.43.141,kallum_motion_pilot,2023.2.3,Win32,30.14318011,5fa472cf29a8e70f22c5d521,6560176e4d91f764e2a42c74,657158935aaa6fe1a29dea10,0.2225,0.2227,1,101,263,48,1,onetwo,,,,,,,,,,,,,,,,,,,,,,,,,,,,,,,,,,,,,,,,,,,,,,,,,,,,,,,,,,,,,,,,,,,,,,,,,,,,,,,,,,,,,,,,,,,,,,,,,,,,,,,,,,,,,,,,,,,,,,,,,,,,,,,,,,,,,,,
,,5fa472cf29a8e70f22c5d521,2023-12-07_07h31.43.141,kallum_motion_pilot,2023.2.3,Win32,30.14318011,5fa472cf29a8e70f22c5d521,6560176e4d91f764e2a42c74,657158935aaa6fe1a29dea10,0.223,0.2232,1,102,264,59,1,twofour,,,,,,,,,,,,,,,,,,,,,,,,,,,,,,,,,,,,,,,,,,,,,,,,,,,,,,,,,,,,,,,,,,,,,,,,,,,,,,,,,,,,,,,,,,,,,,,,,,,,,,,,,,,,,,,,,,,,,,,,,,,,,,,,,,,,,,,
,,5fa472cf29a8e70f22c5d521,2023-12-07_07h31.43.141,kallum_motion_pilot,2023.2.3,Win32,30.14318011,5fa472cf29a8e70f22c5d521,6560176e4d91f764e2a42c74,657158935aaa6fe1a29dea10,0.2235,0.2236,1,103,265,137,1,fiveseven,,,,,,,,,,,,,,,,,,,,,,,,,,,,,,,,,,,,,,,,,,,,,,,,,,,,,,,,,,,,,,,,,,,,,,,,,,,,,,,,,,,,,,,,,,,,,,,,,,,,,,,,,,,,,,,,,,,,,,,,,,,,,,,,,,,,,,,
,,5fa472cf29a8e70f22c5d521,2023-12-07_07h31.43.141,kallum_motion_pilot,2023.2.3,Win32,30.14318011,5fa472cf29a8e70f22c5d521,6560176e4d91f764e2a42c74,657158935aaa6fe1a29dea10,0.224,0.2241,1,104,266,100,1,sevenfive,,,,,,,,,,,,,,,,,,,,,,,,,,,,,,,,,,,,,,,,,,,,,,,,,,,,,,,,,,,,,,,,,,,,,,,,,,,,,,,,,,,,,,,,,,,,,,,,,,,,,,,,,,,,,,,,,,,,,,,,,,,,,,,,,,,,,,,
,,5fa472cf29a8e70f22c5d521,2023-12-07_07h31.43.141,kallum_motion_pilot,2023.2.3,Win32,30.14318011,5fa472cf29a8e70f22c5d521,6560176e4d91f764e2a42c74,657158935aaa6fe1a29dea10,0.2243,0.2246,1,105,267,116,1,sevenfive,,,,,,,,,,,,,,,,,,,,,,,,,,,,,,,,,,,,,,,,,,,,,,,,,,,,,,,,,,,,,,,,,,,,,,,,,,,,,,,,,,,,,,,,,,,,,,,,,,,,,,,,,,,,,,,,,,,,,,,,,,,,,,,,,,,,,,,
,,5fa472cf29a8e70f22c5d521,2023-12-07_07h31.43.141,kallum_motion_pilot,2023.2.3,Win32,30.14318011,5fa472cf29a8e70f22c5d521,6560176e4d91f764e2a42c74,657158935aaa6fe1a29dea10,0.2248,0.2251,1,106,268,103,1,eightseven,,,,,,,,,,,,,,,,,,,,,,,,,,,,,,,,,,,,,,,,,,,,,,,,,,,,,,,,,,,,,,,,,,,,,,,,,,,,,,,,,,,,,,,,,,,,,,,,,,,,,,,,,,,,,,,,,,,,,,,,,,,,,,,,,,,,,,,
,,5fa472cf29a8e70f22c5d521,2023-12-07_07h31.43.141,kallum_motion_pilot,2023.2.3,Win32,30.14318011,5fa472cf29a8e70f22c5d521,6560176e4d91f764e2a42c74,657158935aaa6fe1a29dea10,0.2253,0.2255,1,107,269,146,1,sixfive,,,,,,,,,,,,,,,,,,,,,,,,,,,,,,,,,,,,,,,,,,,,,,,,,,,,,,,,,,,,,,,,,,,,,,,,,,,,,,,,,,,,,,,,,,,,,,,,,,,,,,,,,,,,,,,,,,,,,,,,,,,,,,,,,,,,,,,
,,5fa472cf29a8e70f22c5d521,2023-12-07_07h31.43.141,kallum_motion_pilot,2023.2.3,Win32,30.14318011,5fa472cf29a8e70f22c5d521,6560176e4d91f764e2a42c74,657158935aaa6fe1a29dea10,0.2261,0.2262,1,108,270,95,1,eightseven,,,,,,,,,,,,,,,,,,,,,,,,,,,,,,,,,,,,,,,,,,,,,,,,,,,,,,,,,,,,,,,,,,,,,,,,,,,,,,,,,,,,,,,,,,,,,,,,,,,,,,,,,,,,,,,,,,,,,,,,,,,,,,,,,,,,,,,
,,5fa472cf29a8e70f22c5d521,2023-12-07_07h31.43.141,kallum_motion_pilot,2023.2.3,Win32,30.14318011,5fa472cf29a8e70f22c5d521,6560176e4d91f764e2a42c74,657158935aaa6fe1a29dea10,0.2267,0.2271,1,109,271,104,1,fivesix,,,,,,,,,,,,,,,,,,,,,,,,,,,,,,,,,,,,,,,,,,,,,,,,,,,,,,,,,,,,,,,,,,,,,,,,,,,,,,,,,,,,,,,,,,,,,,,,,,,,,,,,,,,,,,,,,,,,,,,,,,,,,,,,,,,,,,,
,,5fa472cf29a8e70f22c5d521,2023-12-07_07h31.43.141,kallum_motion_pilot,2023.2.3,Win32,30.14318011,5fa472cf29a8e70f22c5d521,6560176e4d91f764e2a42c74,657158935aaa6fe1a29dea10,0.2274,0.2278,1,110,272,118,1,eightsix,,,,,,,,,,,,,,,,,,,,,,,,,,,,,,,,,,,,,,,,,,,,,,,,,,,,,,,,,,,,,,,,,,,,,,,,,,,,,,,,,,,,,,,,,,,,,,,,,,,,,,,,,,,,,,,,,,,,,,,,,,,,,,,,,,,,,,,
,,5fa472cf29a8e70f22c5d521,2023-12-07_07h31.43.141,kallum_motion_pilot,2023.2.3,Win32,30.14318011,5fa472cf29a8e70f22c5d521,6560176e4d91f764e2a42c74,657158935aaa6fe1a29dea10,0.228,0.2282,1,111,273,125,1,seveneight,,,,,,,,,,,,,,,,,,,,,,,,,,,,,,,,,,,,,,,,,,,,,,,,,,,,,,,,,,,,,,,,,,,,,,,,,,,,,,,,,,,,,,,,,,,,,,,,,,,,,,,,,,,,,,,,,,,,,,,,,,,,,,,,,,,,,,,
,,5fa472cf29a8e70f22c5d521,2023-12-07_07h31.43.141,kallum_motion_pilot,2023.2.3,Win32,30.14318011,5fa472cf29a8e70f22c5d521,6560176e4d91f764e2a42c74,657158935aaa6fe1a29dea10,0.2285,0.2287,1,112,274,130,1,sixfive,,,,,,,,,,,,,,,,,,,,,,,,,,,,,,,,,,,,,,,,,,,,,,,,,,,,,,,,,,,,,,,,,,,,,,,,,,,,,,,,,,,,,,,,,,,,,,,,,,,,,,,,,,,,,,,,,,,,,,,,,,,,,,,,,,,,,,,
,,5fa472cf29a8e70f22c5d521,2023-12-07_07h31.43.141,kallum_motion_pilot,2023.2.3,Win32,30.14318011,5fa472cf29a8e70f22c5d521,6560176e4d91f764e2a42c74,657158935aaa6fe1a29dea10,0.2323,0.2327,1,113,275,51,1,twofour,,,,,,,,,,,,,,,,,,,,,,,,,,,,,,,,,,,,,,,,,,,,,,,,,,,,,,,,,,,,,,,,,,,,,,,,,,,,,,,,,,,,,,,,,,,,,,,,,,,,,,,,,,,,,,,,,,,,,,,,,,,,,,,,,,,,,,,
,,5fa472cf29a8e70f22c5d521,2023-12-07_07h31.43.141,kallum_motion_pilot,2023.2.3,Win32,30.14318011,5fa472cf29a8e70f22c5d521,6560176e4d91f764e2a42c74,657158935aaa6fe1a29dea10,0.2333,0.2335,1,114,276,78,1,fourtwo,,,,,,,,,,,,,,,,,,,,,,,,,,,,,,,,,,,,,,,,,,,,,,,,,,,,,,,,,,,,,,,,,,,,,,,,,,,,,,,,,,,,,,,,,,,,,,,,,,,,,,,,,,,,,,,,,,,,,,,,,,,,,,,,,,,,,,,
,,5fa472cf29a8e70f22c5d521,2023-12-07_07h31.43.141,kallum_motion_pilot,2023.2.3,Win32,30.14318011,5fa472cf29a8e70f22c5d521,6560176e4d91f764e2a42c74,657158935aaa6fe1a29dea10,0.2338,0.234,1,115,277,76,1,threeone,,,,,,,,,,,,,,,,,,,,,,,,,,,,,,,,,,,,,,,,,,,,,,,,,,,,,,,,,,,,,,,,,,,,,,,,,,,,,,,,,,,,,,,,,,,,,,,,,,,,,,,,,,,,,,,,,,,,,,,,,,,,,,,,,,,,,,,
,,5fa472cf29a8e70f22c5d521,2023-12-07_07h31.43.141,kallum_motion_pilot,2023.2.3,Win32,30.14318011,5fa472cf29a8e70f22c5d521,6560176e4d91f764e2a42c74,657158935aaa6fe1a29dea10,0.2343,0.2345,1,116,278,127,1,eightseven,,,,,,,,,,,,,,,,,,,,,,,,,,,,,,,,,,,,,,,,,,,,,,,,,,,,,,,,,,,,,,,,,,,,,,,,,,,,,,,,,,,,,,,,,,,,,,,,,,,,,,,,,,,,,,,,,,,,,,,,,,,,,,,,,,,,,,,
,,5fa472cf29a8e70f22c5d521,2023-12-07_07h31.43.141,kallum_motion_pilot,2023.2.3,Win32,30.14318011,5fa472cf29a8e70f22c5d521,6560176e4d91f764e2a42c74,657158935aaa6fe1a29dea10,0.2348,0.2349,1,117,279,15,1,fourthree,,,,,,,,,,,,,,,,,,,,,,,,,,,,,,,,,,,,,,,,,,,,,,,,,,,,,,,,,,,,,,,,,,,,,,,,,,,,,,,,,,,,,,,,,,,,,,,,,,,,,,,,,,,,,,,,,,,,,,,,,,,,,,,,,,,,,,,
