startup.started,startup.stopped,Prolific ID*,date,expName,psychopyVersion,OS,frameRate,participant,study_id,session,stimpositions.started,stimpositions.stopped,hardcoded_stimulus_positions.thisRepN,hardcoded_stimulus_positions.thisTrialN,hardcoded_stimulus_positions.thisN,hardcoded_stimulus_positions.thisIndex,hardcoded_stimulus_positions.ran,StimulusPos,stimorientation.started,stimorientation.stopped,prac_stimorientation_import_loop.thisRepN,prac_stimorientation_import_loop.thisTrialN,prac_stimorientation_import_loop.thisN,prac_stimorientation_import_loop.thisIndex,prac_stimorientation_import_loop.ran,Stimorientation,welcome_instr.started,welcome_instr.stopped,key_resp.keys,key_resp.rt,key_resp.duration,response_steppedout_1.started,response_steppedout_1.stopped,key_resp_20.keys,key_resp_20.rt,key_resp_20.duration,response_steppedout_2.started,response_steppedout_2.stopped,key_resp_19.keys,key_resp_19.rt,key_resp_19.duration,stim_response_instr.started,stim_response_instr.stopped,key_resp_15.keys,key_resp_15.rt,key_resp_15.duration,direction_instr_2.started,direction_instr_2.stopped,key_resp_9.keys,key_resp_9.rt,key_resp_9.duration,instr_prac.started,instr_prac.stopped,key_resp_10.keys,key_resp_10.rt,key_resp_10.duration,Stim1_display_prac.started,Stim1_display_prac.stopped,Ecc,Circle1_ori,Circle2_ori,response_prac.started,similarity,response_time,response_prac.stopped,mouse_5.x,mouse_5.y,mouse_5.leftButton,mouse_5.midButton,mouse_5.rightButton,mouse_5.clicked_name,responseprac_feedback.started,responseprac_feedback.stopped,summary2_prac.started,summary2_prac.stopped,mouse_6.x,mouse_6.y,mouse_6.leftButton,mouse_6.midButton,mouse_6.rightButton,mouse_6.clicked_name,duringprac.thisRepN,duringprac.thisTrialN,duringprac.thisN,duringprac.thisIndex,duringprac.ran,begin.started,begin.stopped,key_resp_22.keys,key_resp_22.rt,key_resp_22.duration,Stim1_display.started,Stim1_display.stopped,circle1_ori,circle2_ori,blank.started,blank.stopped,response.started,response.stopped,mouse.x,mouse.y,mouse.leftButton,mouse.midButton,mouse.rightButton,mouse.clicked_name,response_2.started,response_2.stopped,mouse_2.x,mouse_2.y,mouse_2.leftButton,mouse_2.midButton,mouse_2.rightButton,mouse_2.clicked_name,special_trial.started,special_trial.stopped,catch_1.started,catch_1.stopped,mouse_3.x,mouse_3.y,mouse_3.leftButton,mouse_3.midButton,mouse_3.rightButton,catchresponse,catchnumber,response_time_catch,Catch,response_sum.started,response_sum.stopped,mouse_11.x,mouse_11.y,mouse_11.leftButton,mouse_11.midButton,mouse_11.rightButton,main_trial.thisRepN,main_trial.thisTrialN,main_trial.thisN,main_trial.thisIndex,main_trial.ran,Orientationtrialno,xcircle1_ori,xcircle2_ori,flip_presentation_sequence_for_double_pass.started,flip_presentation_sequence_for_double_pass.stopped,double_pass.thisRepN,double_pass.thisTrialN,double_pass.thisN,double_pass.thisIndex,double_pass.ran,goodbye.started,goodbye.stopped,key_resp_3.keys,key_resp_3.rt,key_resp_3.duration
0.0004,0.0006,60920010e7bfd828a698e5dd,2023-12-06_23h31.52.384,kallum_motion_pilot,2023.2.3,Win32,60.38282712,60920010e7bfd828a698e5dd,6560176e4d91f764e2a42c74,657158a0152a70f66ac313cf,,,,,,,,,,,,,,,,,,,,,,,,,,,,,,,,,,,,,,,,,,,,,,,,,,,,,,,,,,,,,,,,,,,,,,,,,,,,,,,,,,,,,,,,,,,,,,,,,,,,,,,,,,,,,,,,,,,,,,,,,,,,,,,,,,,,,,,,,,,,,,,
,,60920010e7bfd828a698e5dd,2023-12-06_23h31.52.384,kallum_motion_pilot,2023.2.3,Win32,60.38282712,60920010e7bfd828a698e5dd,6560176e4d91f764e2a42c74,657158a0152a70f66ac313cf,0.0459,0.0468,0,0,0,7,1,fourthree,,,,,,,,,,,,,,,,,,,,,,,,,,,,,,,,,,,,,,,,,,,,,,,,,,,,,,,,,,,,,,,,,,,,,,,,,,,,,,,,,,,,,,,,,,,,,,,,,,,,,,,,,,,,,,,,,,,,,,,,,,,,,,,,,,,,,,,
,,60920010e7bfd828a698e5dd,2023-12-06_23h31.52.384,kallum_motion_pilot,2023.2.3,Win32,60.38282712,60920010e7bfd828a698e5dd,6560176e4d91f764e2a42c74,657158a0152a70f66ac313cf,0.0475,0.0477,0,1,1,125,1,seveneight,,,,,,,,,,,,,,,,,,,,,,,,,,,,,,,,,,,,,,,,,,,,,,,,,,,,,,,,,,,,,,,,,,,,,,,,,,,,,,,,,,,,,,,,,,,,,,,,,,,,,,,,,,,,,,,,,,,,,,,,,,,,,,,,,,,,,,,
,,60920010e7bfd828a698e5dd,2023-12-06_23h31.52.384,kallum_motion_pilot,2023.2.3,Win32,60.38282712,60920010e7bfd828a698e5dd,6560176e4d91f764e2a42c74,657158a0152a70f66ac313cf,0.0483,0.0485,0,2,2,68,1,threeone,,,,,,,,,,,,,,,,,,,,,,,,,,,,,,,,,,,,,,,,,,,,,,,,,,,,,,,,,,,,,,,,,,,,,,,,,,,,,,,,,,,,,,,,,,,,,,,,,,,,,,,,,,,,,,,,,,,,,,,,,,,,,,,,,,,,,,,
,,60920010e7bfd828a698e5dd,2023-12-06_23h31.52.384,kallum_motion_pilot,2023.2.3,Win32,60.38282712,60920010e7bfd828a698e5dd,6560176e4d91f764e2a42c74,657158a0152a70f66ac313cf,0.049,0.0493,0,3,3,8,1,onetwo,,,,,,,,,,,,,,,,,,,,,,,,,,,,,,,,,,,,,,,,,,,,,,,,,,,,,,,,,,,,,,,,,,,,,,,,,,,,,,,,,,,,,,,,,,,,,,,,,,,,,,,,,,,,,,,,,,,,,,,,,,,,,,,,,,,,,,,
,,60920010e7bfd828a698e5dd,2023-12-06_23h31.52.384,kallum_motion_pilot,2023.2.3,Win32,60.38282712,60920010e7bfd828a698e5dd,6560176e4d91f764e2a42c74,657158a0152a70f66ac313cf,0.0497,0.0499,0,4,4,4,1,threeone,,,,,,,,,,,,,,,,,,,,,,,,,,,,,,,,,,,,,,,,,,,,,,,,,,,,,,,,,,,,,,,,,,,,,,,,,,,,,,,,,,,,,,,,,,,,,,,,,,,,,,,,,,,,,,,,,,,,,,,,,,,,,,,,,,,,,,,
,,60920010e7bfd828a698e5dd,2023-12-06_23h31.52.384,kallum_motion_pilot,2023.2.3,Win32,60.38282712,60920010e7bfd828a698e5dd,6560176e4d91f764e2a42c74,657158a0152a70f66ac313cf,0.0506,0.0507,0,5,5,19,1,twofour,,,,,,,,,,,,,,,,,,,,,,,,,,,,,,,,,,,,,,,,,,,,,,,,,,,,,,,,,,,,,,,,,,,,,,,,,,,,,,,,,,,,,,,,,,,,,,,,,,,,,,,,,,,,,,,,,,,,,,,,,,,,,,,,,,,,,,,
,,60920010e7bfd828a698e5dd,2023-12-06_23h31.52.384,kallum_motion_pilot,2023.2.3,Win32,60.38282712,60920010e7bfd828a698e5dd,6560176e4d91f764e2a42c74,657158a0152a70f66ac313cf,0.0513,0.0513,0,6,6,154,1,sixfive,,,,,,,,,,,,,,,,,,,,,,,,,,,,,,,,,,,,,,,,,,,,,,,,,,,,,,,,,,,,,,,,,,,,,,,,,,,,,,,,,,,,,,,,,,,,,,,,,,,,,,,,,,,,,,,,,,,,,,,,,,,,,,,,,,,,,,,
,,60920010e7bfd828a698e5dd,2023-12-06_23h31.52.384,kallum_motion_pilot,2023.2.3,Win32,60.38282712,60920010e7bfd828a698e5dd,6560176e4d91f764e2a42c74,657158a0152a70f66ac313cf,0.0517,0.052,0,7,7,145,1,fiveseven,,,,,,,,,,,,,,,,,,,,,,,,,,,,,,,,,,,,,,,,,,,,,,,,,,,,,,,,,,,,,,,,,,,,,,,,,,,,,,,,,,,,,,,,,,,,,,,,,,,,,,,,,,,,,,,,,,,,,,,,,,,,,,,,,,,,,,,
,,60920010e7bfd828a698e5dd,2023-12-06_23h31.52.384,kallum_motion_pilot,2023.2.3,Win32,60.38282712,60920010e7bfd828a698e5dd,6560176e4d91f764e2a42c74,657158a0152a70f66ac313cf,0.0525,0.0526,0,8,8,151,1,eightseven,,,,,,,,,,,,,,,,,,,,,,,,,,,,,,,,,,,,,,,,,,,,,,,,,,,,,,,,,,,,,,,,,,,,,,,,,,,,,,,,,,,,,,,,,,,,,,,,,,,,,,,,,,,,,,,,,,,,,,,,,,,,,,,,,,,,,,,
,,60920010e7bfd828a698e5dd,2023-12-06_23h31.52.384,kallum_motion_pilot,2023.2.3,Win32,60.38282712,60920010e7bfd828a698e5dd,6560176e4d91f764e2a42c74,657158a0152a70f66ac313cf,0.0532,0.0534,0,9,9,34,1,twoone,,,,,,,,,,,,,,,,,,,,,,,,,,,,,,,,,,,,,,,,,,,,,,,,,,,,,,,,,,,,,,,,,,,,,,,,,,,,,,,,,,,,,,,,,,,,,,,,,,,,,,,,,,,,,,,,,,,,,,,,,,,,,,,,,,,,,,,
,,60920010e7bfd828a698e5dd,2023-12-06_23h31.52.384,kallum_motion_pilot,2023.2.3,Win32,60.38282712,60920010e7bfd828a698e5dd,6560176e4d91f764e2a42c74,657158a0152a70f66ac313cf,0.0538,0.0541,0,10,10,78,1,fourtwo,,,,,,,,,,,,,,,,,,,,,,,,,,,,,,,,,,,,,,,,,,,,,,,,,,,,,,,,,,,,,,,,,,,,,,,,,,,,,,,,,,,,,,,,,,,,,,,,,,,,,,,,,,,,,,,,,,,,,,,,,,,,,,,,,,,,,,,
,,60920010e7bfd828a698e5dd,2023-12-06_23h31.52.384,kallum_motion_pilot,2023.2.3,Win32,60.38282712,60920010e7bfd828a698e5dd,6560176e4d91f764e2a42c74,657158a0152a70f66ac313cf,0.0545,0.0548,0,11,11,39,1,fourthree,,,,,,,,,,,,,,,,,,,,,,,,,,,,,,,,,,,,,,,,,,,,,,,,,,,,,,,,,,,,,,,,,,,,,,,,,,,,,,,,,,,,,,,,,,,,,,,,,,,,,,,,,,,,,,,,,,,,,,,,,,,,,,,,,,,,,,,
,,60920010e7bfd828a698e5dd,2023-12-06_23h31.52.384,kallum_motion_pilot,2023.2.3,Win32,60.38282712,60920010e7bfd828a698e5dd,6560176e4d91f764e2a42c74,657158a0152a70f66ac313cf,0.0552,0.0552,0,12,12,106,1,sixfive,,,,,,,,,,,,,,,,,,,,,,,,,,,,,,,,,,,,,,,,,,,,,,,,,,,,,,,,,,,,,,,,,,,,,,,,,,,,,,,,,,,,,,,,,,,,,,,,,,,,,,,,,,,,,,,,,,,,,,,,,,,,,,,,,,,,,,,
,,60920010e7bfd828a698e5dd,2023-12-06_23h31.52.384,kallum_motion_pilot,2023.2.3,Win32,60.38282712,60920010e7bfd828a698e5dd,6560176e4d91f764e2a42c74,657158a0152a70f66ac313cf,0.0564,0.0565,0,13,13,69,1,threefour,,,,,,,,,,,,,,,,,,,,,,,,,,,,,,,,,,,,,,,,,,,,,,,,,,,,,,,,,,,,,,,,,,,,,,,,,,,,,,,,,,,,,,,,,,,,,,,,,,,,,,,,,,,,,,,,,,,,,,,,,,,,,,,,,,,,,,,
,,60920010e7bfd828a698e5dd,2023-12-06_23h31.52.384,kallum_motion_pilot,2023.2.3,Win32,60.38282712,60920010e7bfd828a698e5dd,6560176e4d91f764e2a42c74,657158a0152a70f66ac313cf,0.057,0.057,0,14,14,47,1,fourthree,,,,,,,,,,,,,,,,,,,,,,,,,,,,,,,,,,,,,,,,,,,,,,,,,,,,,,,,,,,,,,,,,,,,,,,,,,,,,,,,,,,,,,,,,,,,,,,,,,,,,,,,,,,,,,,,,,,,,,,,,,,,,,,,,,,,,,,
,,60920010e7bfd828a698e5dd,2023-12-06_23h31.52.384,kallum_motion_pilot,2023.2.3,Win32,60.38282712,60920010e7bfd828a698e5dd,6560176e4d91f764e2a42c74,657158a0152a70f66ac313cf,0.0575,0.0577,0,15,15,161,1,fiveseven,,,,,,,,,,,,,,,,,,,,,,,,,,,,,,,,,,,,,,,,,,,,,,,,,,,,,,,,,,,,,,,,,,,,,,,,,,,,,,,,,,,,,,,,,,,,,,,,,,,,,,,,,,,,,,,,,,,,,,,,,,,,,,,,,,,,,,,
,,60920010e7bfd828a698e5dd,2023-12-06_23h31.52.384,kallum_motion_pilot,2023.2.3,Win32,60.38282712,60920010e7bfd828a698e5dd,6560176e4d91f764e2a42c74,657158a0152a70f66ac313cf,0.0582,0.0584,0,16,16,51,1,twofour,,,,,,,,,,,,,,,,,,,,,,,,,,,,,,,,,,,,,,,,,,,,,,,,,,,,,,,,,,,,,,,,,,,,,,,,,,,,,,,,,,,,,,,,,,,,,,,,,,,,,,,,,,,,,,,,,,,,,,,,,,,,,,,,,,,,,,,
,,60920010e7bfd828a698e5dd,2023-12-06_23h31.52.384,kallum_motion_pilot,2023.2.3,Win32,60.38282712,60920010e7bfd828a698e5dd,6560176e4d91f764e2a42c74,657158a0152a70f66ac313cf,0.059,0.0591,0,17,17,37,1,threefour,,,,,,,,,,,,,,,,,,,,,,,,,,,,,,,,,,,,,,,,,,,,,,,,,,,,,,,,,,,,,,,,,,,,,,,,,,,,,,,,,,,,,,,,,,,,,,,,,,,,,,,,,,,,,,,,,,,,,,,,,,,,,,,,,,,,,,,
,,60920010e7bfd828a698e5dd,2023-12-06_23h31.52.384,kallum_motion_pilot,2023.2.3,Win32,60.38282712,60920010e7bfd828a698e5dd,6560176e4d91f764e2a42c74,657158a0152a70f66ac313cf,0.0595,0.0597,0,18,18,43,1,twofour,,,,,,,,,,,,,,,,,,,,,,,,,,,,,,,,,,,,,,,,,,,,,,,,,,,,,,,,,,,,,,,,,,,,,,,,,,,,,,,,,,,,,,,,,,,,,,,,,,,,,,,,,,,,,,,,,,,,,,,,,,,,,,,,,,,,,,,
,,60920010e7bfd828a698e5dd,2023-12-06_23h31.52.384,kallum_motion_pilot,2023.2.3,Win32,60.38282712,60920010e7bfd828a698e5dd,6560176e4d91f764e2a42c74,657158a0152a70f66ac313cf,0.0608,0.0613,0,19,19,136,1,fivesix,,,,,,,,,,,,,,,,,,,,,,,,,,,,,,,,,,,,,,,,,,,,,,,,,,,,,,,,,,,,,,,,,,,,,,,,,,,,,,,,,,,,,,,,,,,,,,,,,,,,,,,,,,,,,,,,,,,,,,,,,,,,,,,,,,,,,,,
,,60920010e7bfd828a698e5dd,2023-12-06_23h31.52.384,kallum_motion_pilot,2023.2.3,Win32,60.38282712,60920010e7bfd828a698e5dd,6560176e4d91f764e2a42c74,657158a0152a70f66ac313cf,0.0621,0.0624,0,20,20,56,1,onetwo,,,,,,,,,,,,,,,,,,,,,,,,,,,,,,,,,,,,,,,,,,,,,,,,,,,,,,,,,,,,,,,,,,,,,,,,,,,,,,,,,,,,,,,,,,,,,,,,,,,,,,,,,,,,,,,,,,,,,,,,,,,,,,,,,,,,,,,
,,60920010e7bfd828a698e5dd,2023-12-06_23h31.52.384,kallum_motion_pilot,2023.2.3,Win32,60.38282712,60920010e7bfd828a698e5dd,6560176e4d91f764e2a42c74,657158a0152a70f66ac313cf,0.0635,0.0637,0,21,21,50,1,twoone,,,,,,,,,,,,,,,,,,,,,,,,,,,,,,,,,,,,,,,,,,,,,,,,,,,,,,,,,,,,,,,,,,,,,,,,,,,,,,,,,,,,,,,,,,,,,,,,,,,,,,,,,,,,,,,,,,,,,,,,,,,,,,,,,,,,,,,
,,60920010e7bfd828a698e5dd,2023-12-06_23h31.52.384,kallum_motion_pilot,2023.2.3,Win32,60.38282712,60920010e7bfd828a698e5dd,6560176e4d91f764e2a42c74,657158a0152a70f66ac313cf,0.0646,0.0664,0,22,22,1,1,onethree,,,,,,,,,,,,,,,,,,,,,,,,,,,,,,,,,,,,,,,,,,,,,,,,,,,,,,,,,,,,,,,,,,,,,,,,,,,,,,,,,,,,,,,,,,,,,,,,,,,,,,,,,,,,,,,,,,,,,,,,,,,,,,,,,,,,,,,
,,60920010e7bfd828a698e5dd,2023-12-06_23h31.52.384,kallum_motion_pilot,2023.2.3,Win32,60.38282712,60920010e7bfd828a698e5dd,6560176e4d91f764e2a42c74,657158a0152a70f66ac313cf,0.0669,0.0672,0,23,23,54,1,fourtwo,,,,,,,,,,,,,,,,,,,,,,,,,,,,,,,,,,,,,,,,,,,,,,,,,,,,,,,,,,,,,,,,,,,,,,,,,,,,,,,,,,,,,,,,,,,,,,,,,,,,,,,,,,,,,,,,,,,,,,,,,,,,,,,,,,,,,,,
,,60920010e7bfd828a698e5dd,2023-12-06_23h31.52.384,kallum_motion_pilot,2023.2.3,Win32,60.38282712,60920010e7bfd828a698e5dd,6560176e4d91f764e2a42c74,657158a0152a70f66ac313cf,0.0676,0.0679,0,24,24,108,1,sevenfive,,,,,,,,,,,,,,,,,,,,,,,,,,,,,,,,,,,,,,,,,,,,,,,,,,,,,,,,,,,,,,,,,,,,,,,,,,,,,,,,,,,,,,,,,,,,,,,,,,,,,,,,,,,,,,,,,,,,,,,,,,,,,,,,,,,,,,,
,,60920010e7bfd828a698e5dd,2023-12-06_23h31.52.384,kallum_motion_pilot,2023.2.3,Win32,60.38282712,60920010e7bfd828a698e5dd,6560176e4d91f764e2a42c74,657158a0152a70f66ac313cf,0.0688,0.0695,0,25,25,90,1,sixfive,,,,,,,,,,,,,,,,,,,,,,,,,,,,,,,,,,,,,,,,,,,,,,,,,,,,,,,,,,,,,,,,,,,,,,,,,,,,,,,,,,,,,,,,,,,,,,,,,,,,,,,,,,,,,,,,,,,,,,,,,,,,,,,,,,,,,,,
,,60920010e7bfd828a698e5dd,2023-12-06_23h31.52.384,kallum_motion_pilot,2023.2.3,Win32,60.38282712,60920010e7bfd828a698e5dd,6560176e4d91f764e2a42c74,657158a0152a70f66ac313cf,0.0705,0.0711,0,26,26,121,1,fiveseven,,,,,,,,,,,,,,,,,,,,,,,,,,,,,,,,,,,,,,,,,,,,,,,,,,,,,,,,,,,,,,,,,,,,,,,,,,,,,,,,,,,,,,,,,,,,,,,,,,,,,,,,,,,,,,,,,,,,,,,,,,,,,,,,,,,,,,,
,,60920010e7bfd828a698e5dd,2023-12-06_23h31.52.384,kallum_motion_pilot,2023.2.3,Win32,60.38282712,60920010e7bfd828a698e5dd,6560176e4d91f764e2a42c74,657158a0152a70f66ac313cf,0.072,0.0725,0,27,27,17,1,onethree,,,,,,,,,,,,,,,,,,,,,,,,,,,,,,,,,,,,,,,,,,,,,,,,,,,,,,,,,,,,,,,,,,,,,,,,,,,,,,,,,,,,,,,,,,,,,,,,,,,,,,,,,,,,,,,,,,,,,,,,,,,,,,,,,,,,,,,
,,60920010e7bfd828a698e5dd,2023-12-06_23h31.52.384,kallum_motion_pilot,2023.2.3,Win32,60.38282712,60920010e7bfd828a698e5dd,6560176e4d91f764e2a42c74,657158a0152a70f66ac313cf,0.0734,0.0738,0,28,28,115,1,sixeight,,,,,,,,,,,,,,,,,,,,,,,,,,,,,,,,,,,,,,,,,,,,,,,,,,,,,,,,,,,,,,,,,,,,,,,,,,,,,,,,,,,,,,,,,,,,,,,,,,,,,,,,,,,,,,,,,,,,,,,,,,,,,,,,,,,,,,,
,,60920010e7bfd828a698e5dd,2023-12-06_23h31.52.384,kallum_motion_pilot,2023.2.3,Win32,60.38282712,60920010e7bfd828a698e5dd,6560176e4d91f764e2a42c74,657158a0152a70f66ac313cf,0.0747,0.0752,0,29,29,36,1,threeone,,,,,,,,,,,,,,,,,,,,,,,,,,,,,,,,,,,,,,,,,,,,,,,,,,,,,,,,,,,,,,,,,,,,,,,,,,,,,,,,,,,,,,,,,,,,,,,,,,,,,,,,,,,,,,,,,,,,,,,,,,,,,,,,,,,,,,,
,,60920010e7bfd828a698e5dd,2023-12-06_23h31.52.384,kallum_motion_pilot,2023.2.3,Win32,60.38282712,60920010e7bfd828a698e5dd,6560176e4d91f764e2a42c74,657158a0152a70f66ac313cf,0.0762,0.0764,0,30,30,97,1,fiveseven,,,,,,,,,,,,,,,,,,,,,,,,,,,,,,,,,,,,,,,,,,,,,,,,,,,,,,,,,,,,,,,,,,,,,,,,,,,,,,,,,,,,,,,,,,,,,,,,,,,,,,,,,,,,,,,,,,,,,,,,,,,,,,,,,,,,,,,
,,60920010e7bfd828a698e5dd,2023-12-06_23h31.52.384,kallum_motion_pilot,2023.2.3,Win32,60.38282712,60920010e7bfd828a698e5dd,6560176e4d91f764e2a42c74,657158a0152a70f66ac313cf,0.0769,0.0772,0,31,31,103,1,eightseven,,,,,,,,,,,,,,,,,,,,,,,,,,,,,,,,,,,,,,,,,,,,,,,,,,,,,,,,,,,,,,,,,,,,,,,,,,,,,,,,,,,,,,,,,,,,,,,,,,,,,,,,,,,,,,,,,,,,,,,,,,,,,,,,,,,,,,,
,,60920010e7bfd828a698e5dd,2023-12-06_23h31.52.384,kallum_motion_pilot,2023.2.3,Win32,60.38282712,60920010e7bfd828a698e5dd,6560176e4d91f764e2a42c74,657158a0152a70f66ac313cf,0.0776,0.0779,0,32,32,155,1,sixeight,,,,,,,,,,,,,,,,,,,,,,,,,,,,,,,,,,,,,,,,,,,,,,,,,,,,,,,,,,,,,,,,,,,,,,,,,,,,,,,,,,,,,,,,,,,,,,,,,,,,,,,,,,,,,,,,,,,,,,,,,,,,,,,,,,,,,,,
,,60920010e7bfd828a698e5dd,2023-12-06_23h31.52.384,kallum_motion_pilot,2023.2.3,Win32,60.38282712,60920010e7bfd828a698e5dd,6560176e4d91f764e2a42c74,657158a0152a70f66ac313cf,0.0783,0.0785,0,33,33,87,1,eightseven,,,,,,,,,,,,,,,,,,,,,,,,,,,,,,,,,,,,,,,,,,,,,,,,,,,,,,,,,,,,,,,,,,,,,,,,,,,,,,,,,,,,,,,,,,,,,,,,,,,,,,,,,,,,,,,,,,,,,,,,,,,,,,,,,,,,,,,
,,60920010e7bfd828a698e5dd,2023-12-06_23h31.52.384,kallum_motion_pilot,2023.2.3,Win32,60.38282712,60920010e7bfd828a698e5dd,6560176e4d91f764e2a42c74,657158a0152a70f66ac313cf,0.0815,0.0817,0,34,34,144,1,fivesix,,,,,,,,,,,,,,,,,,,,,,,,,,,,,,,,,,,,,,,,,,,,,,,,,,,,,,,,,,,,,,,,,,,,,,,,,,,,,,,,,,,,,,,,,,,,,,,,,,,,,,,,,,,,,,,,,,,,,,,,,,,,,,,,,,,,,,,
,,60920010e7bfd828a698e5dd,2023-12-06_23h31.52.384,kallum_motion_pilot,2023.2.3,Win32,60.38282712,60920010e7bfd828a698e5dd,6560176e4d91f764e2a42c74,657158a0152a70f66ac313cf,0.0821,0.0822,0,35,35,141,1,seveneight,,,,,,,,,,,,,,,,,,,,,,,,,,,,,,,,,,,,,,,,,,,,,,,,,,,,,,,,,,,,,,,,,,,,,,,,,,,,,,,,,,,,,,,,,,,,,,,,,,,,,,,,,,,,,,,,,,,,,,,,,,,,,,,,,,,,,,,
,,60920010e7bfd828a698e5dd,2023-12-06_23h31.52.384,kallum_motion_pilot,2023.2.3,Win32,60.38282712,60920010e7bfd828a698e5dd,6560176e4d91f764e2a42c74,657158a0152a70f66ac313cf,0.0828,0.0831,0,36,36,0,1,onetwo,,,,,,,,,,,,,,,,,,,,,,,,,,,,,,,,,,,,,,,,,,,,,,,,,,,,,,,,,,,,,,,,,,,,,,,,,,,,,,,,,,,,,,,,,,,,,,,,,,,,,,,,,,,,,,,,,,,,,,,,,,,,,,,,,,,,,,,
,,60920010e7bfd828a698e5dd,2023-12-06_23h31.52.384,kallum_motion_pilot,2023.2.3,Win32,60.38282712,60920010e7bfd828a698e5dd,6560176e4d91f764e2a42c74,657158a0152a70f66ac313cf,0.0838,0.0843,0,37,37,147,1,sixeight,,,,,,,,,,,,,,,,,,,,,,,,,,,,,,,,,,,,,,,,,,,,,,,,,,,,,,,,,,,,,,,,,,,,,,,,,,,,,,,,,,,,,,,,,,,,,,,,,,,,,,,,,,,,,,,,,,,,,,,,,,,,,,,,,,,,,,,
,,60920010e7bfd828a698e5dd,2023-12-06_23h31.52.384,kallum_motion_pilot,2023.2.3,Win32,60.38282712,60920010e7bfd828a698e5dd,6560176e4d91f764e2a42c74,657158a0152a70f66ac313cf,0.0848,0.0852,0,38,38,99,1,sixeight,,,,,,,,,,,,,,,,,,,,,,,,,,,,,,,,,,,,,,,,,,,,,,,,,,,,,,,,,,,,,,,,,,,,,,,,,,,,,,,,,,,,,,,,,,,,,,,,,,,,,,,,,,,,,,,,,,,,,,,,,,,,,,,,,,,,,,,
,,60920010e7bfd828a698e5dd,2023-12-06_23h31.52.384,kallum_motion_pilot,2023.2.3,Win32,60.38282712,60920010e7bfd828a698e5dd,6560176e4d91f764e2a42c74,657158a0152a70f66ac313cf,0.0857,0.0858,0,39,39,5,1,threefour,,,,,,,,,,,,,,,,,,,,,,,,,,,,,,,,,,,,,,,,,,,,,,,,,,,,,,,,,,,,,,,,,,,,,,,,,,,,,,,,,,,,,,,,,,,,,,,,,,,,,,,,,,,,,,,,,,,,,,,,,,,,,,,,,,,,,,,
,,60920010e7bfd828a698e5dd,2023-12-06_23h31.52.384,kallum_motion_pilot,2023.2.3,Win32,60.38282712,60920010e7bfd828a698e5dd,6560176e4d91f764e2a42c74,657158a0152a70f66ac313cf,0.0867,0.0868,0,40,40,42,1,twoone,,,,,,,,,,,,,,,,,,,,,,,,,,,,,,,,,,,,,,,,,,,,,,,,,,,,,,,,,,,,,,,,,,,,,,,,,,,,,,,,,,,,,,,,,,,,,,,,,,,,,,,,,,,,,,,,,,,,,,,,,,,,,,,,,,,,,,,
,,60920010e7bfd828a698e5dd,2023-12-06_23h31.52.384,kallum_motion_pilot,2023.2.3,Win32,60.38282712,60920010e7bfd828a698e5dd,6560176e4d91f764e2a42c74,657158a0152a70f66ac313cf,0.0873,0.0875,0,41,41,2,1,twoone,,,,,,,,,,,,,,,,,,,,,,,,,,,,,,,,,,,,,,,,,,,,,,,,,,,,,,,,,,,,,,,,,,,,,,,,,,,,,,,,,,,,,,,,,,,,,,,,,,,,,,,,,,,,,,,,,,,,,,,,,,,,,,,,,,,,,,,
,,60920010e7bfd828a698e5dd,2023-12-06_23h31.52.384,kallum_motion_pilot,2023.2.3,Win32,60.38282712,60920010e7bfd828a698e5dd,6560176e4d91f764e2a42c74,657158a0152a70f66ac313cf,0.0878,0.088,0,42,42,140,1,sevenfive,,,,,,,,,,,,,,,,,,,,,,,,,,,,,,,,,,,,,,,,,,,,,,,,,,,,,,,,,,,,,,,,,,,,,,,,,,,,,,,,,,,,,,,,,,,,,,,,,,,,,,,,,,,,,,,,,,,,,,,,,,,,,,,,,,,,,,,
,,60920010e7bfd828a698e5dd,2023-12-06_23h31.52.384,kallum_motion_pilot,2023.2.3,Win32,60.38282712,60920010e7bfd828a698e5dd,6560176e4d91f764e2a42c74,657158a0152a70f66ac313cf,0.0884,0.0887,0,43,43,21,1,threefour,,,,,,,,,,,,,,,,,,,,,,,,,,,,,,,,,,,,,,,,,,,,,,,,,,,,,,,,,,,,,,,,,,,,,,,,,,,,,,,,,,,,,,,,,,,,,,,,,,,,,,,,,,,,,,,,,,,,,,,,,,,,,,,,,,,,,,,
,,60920010e7bfd828a698e5dd,2023-12-06_23h31.52.384,kallum_motion_pilot,2023.2.3,Win32,60.38282712,60920010e7bfd828a698e5dd,6560176e4d91f764e2a42c74,657158a0152a70f66ac313cf,0.0892,0.0893,0,44,44,150,1,eightsix,,,,,,,,,,,,,,,,,,,,,,,,,,,,,,,,,,,,,,,,,,,,,,,,,,,,,,,,,,,,,,,,,,,,,,,,,,,,,,,,,,,,,,,,,,,,,,,,,,,,,,,,,,,,,,,,,,,,,,,,,,,,,,,,,,,,,,,
,,60920010e7bfd828a698e5dd,2023-12-06_23h31.52.384,kallum_motion_pilot,2023.2.3,Win32,60.38282712,60920010e7bfd828a698e5dd,6560176e4d91f764e2a42c74,657158a0152a70f66ac313cf,0.0897,0.09,0,45,45,143,1,eightseven,,,,,,,,,,,,,,,,,,,,,,,,,,,,,,,,,,,,,,,,,,,,,,,,,,,,,,,,,,,,,,,,,,,,,,,,,,,,,,,,,,,,,,,,,,,,,,,,,,,,,,,,,,,,,,,,,,,,,,,,,,,,,,,,,,,,,,,
,,60920010e7bfd828a698e5dd,2023-12-06_23h31.52.384,kallum_motion_pilot,2023.2.3,Win32,60.38282712,60920010e7bfd828a698e5dd,6560176e4d91f764e2a42c74,657158a0152a70f66ac313cf,0.0904,0.0906,0,46,46,98,1,sixfive,,,,,,,,,,,,,,,,,,,,,,,,,,,,,,,,,,,,,,,,,,,,,,,,,,,,,,,,,,,,,,,,,,,,,,,,,,,,,,,,,,,,,,,,,,,,,,,,,,,,,,,,,,,,,,,,,,,,,,,,,,,,,,,,,,,,,,,
,,60920010e7bfd828a698e5dd,2023-12-06_23h31.52.384,kallum_motion_pilot,2023.2.3,Win32,60.38282712,60920010e7bfd828a698e5dd,6560176e4d91f764e2a42c74,657158a0152a70f66ac313cf,0.0911,0.0914,0,47,47,29,1,threefour,,,,,,,,,,,,,,,,,,,,,,,,,,,,,,,,,,,,,,,,,,,,,,,,,,,,,,,,,,,,,,,,,,,,,,,,,,,,,,,,,,,,,,,,,,,,,,,,,,,,,,,,,,,,,,,,,,,,,,,,,,,,,,,,,,,,,,,
,,60920010e7bfd828a698e5dd,2023-12-06_23h31.52.384,kallum_motion_pilot,2023.2.3,Win32,60.38282712,60920010e7bfd828a698e5dd,6560176e4d91f764e2a42c74,657158a0152a70f66ac313cf,0.0917,0.092,0,48,48,123,1,sixeight,,,,,,,,,,,,,,,,,,,,,,,,,,,,,,,,,,,,,,,,,,,,,,,,,,,,,,,,,,,,,,,,,,,,,,,,,,,,,,,,,,,,,,,,,,,,,,,,,,,,,,,,,,,,,,,,,,,,,,,,,,,,,,,,,,,,,,,
,,60920010e7bfd828a698e5dd,2023-12-06_23h31.52.384,kallum_motion_pilot,2023.2.3,Win32,60.38282712,60920010e7bfd828a698e5dd,6560176e4d91f764e2a42c74,657158a0152a70f66ac313cf,0.0924,0.0927,0,49,49,107,1,sixeight,,,,,,,,,,,,,,,,,,,,,,,,,,,,,,,,,,,,,,,,,,,,,,,,,,,,,,,,,,,,,,,,,,,,,,,,,,,,,,,,,,,,,,,,,,,,,,,,,,,,,,,,,,,,,,,,,,,,,,,,,,,,,,,,,,,,,,,
,,60920010e7bfd828a698e5dd,2023-12-06_23h31.52.384,kallum_motion_pilot,2023.2.3,Win32,60.38282712,60920010e7bfd828a698e5dd,6560176e4d91f764e2a42c74,657158a0152a70f66ac313cf,0.0931,0.0933,0,50,50,149,1,seveneight,,,,,,,,,,,,,,,,,,,,,,,,,,,,,,,,,,,,,,,,,,,,,,,,,,,,,,,,,,,,,,,,,,,,,,,,,,,,,,,,,,,,,,,,,,,,,,,,,,,,,,,,,,,,,,,,,,,,,,,,,,,,,,,,,,,,,,,
,,60920010e7bfd828a698e5dd,2023-12-06_23h31.52.384,kallum_motion_pilot,2023.2.3,Win32,60.38282712,60920010e7bfd828a698e5dd,6560176e4d91f764e2a42c74,657158a0152a70f66ac313cf,0.0936,0.0938,0,51,51,104,1,fivesix,,,,,,,,,,,,,,,,,,,,,,,,,,,,,,,,,,,,,,,,,,,,,,,,,,,,,,,,,,,,,,,,,,,,,,,,,,,,,,,,,,,,,,,,,,,,,,,,,,,,,,,,,,,,,,,,,,,,,,,,,,,,,,,,,,,,,,,
,,60920010e7bfd828a698e5dd,2023-12-06_23h31.52.384,kallum_motion_pilot,2023.2.3,Win32,60.38282712,60920010e7bfd828a698e5dd,6560176e4d91f764e2a42c74,657158a0152a70f66ac313cf,0.0941,0.0944,0,52,52,63,1,fourthree,,,,,,,,,,,,,,,,,,,,,,,,,,,,,,,,,,,,,,,,,,,,,,,,,,,,,,,,,,,,,,,,,,,,,,,,,,,,,,,,,,,,,,,,,,,,,,,,,,,,,,,,,,,,,,,,,,,,,,,,,,,,,,,,,,,,,,,
,,60920010e7bfd828a698e5dd,2023-12-06_23h31.52.384,kallum_motion_pilot,2023.2.3,Win32,60.38282712,60920010e7bfd828a698e5dd,6560176e4d91f764e2a42c74,657158a0152a70f66ac313cf,0.0948,0.095,0,53,53,62,1,fourtwo,,,,,,,,,,,,,,,,,,,,,,,,,,,,,,,,,,,,,,,,,,,,,,,,,,,,,,,,,,,,,,,,,,,,,,,,,,,,,,,,,,,,,,,,,,,,,,,,,,,,,,,,,,,,,,,,,,,,,,,,,,,,,,,,,,,,,,,
,,60920010e7bfd828a698e5dd,2023-12-06_23h31.52.384,kallum_motion_pilot,2023.2.3,Win32,60.38282712,60920010e7bfd828a698e5dd,6560176e4d91f764e2a42c74,657158a0152a70f66ac313cf,0.0954,0.0956,0,54,54,79,1,eightseven,,,,,,,,,,,,,,,,,,,,,,,,,,,,,,,,,,,,,,,,,,,,,,,,,,,,,,,,,,,,,,,,,,,,,,,,,,,,,,,,,,,,,,,,,,,,,,,,,,,,,,,,,,,,,,,,,,,,,,,,,,,,,,,,,,,,,,,
,,60920010e7bfd828a698e5dd,2023-12-06_23h31.52.384,kallum_motion_pilot,2023.2.3,Win32,60.38282712,60920010e7bfd828a698e5dd,6560176e4d91f764e2a42c74,657158a0152a70f66ac313cf,0.0967,0.0968,0,55,55,38,1,fourtwo,,,,,,,,,,,,,,,,,,,,,,,,,,,,,,,,,,,,,,,,,,,,,,,,,,,,,,,,,,,,,,,,,,,,,,,,,,,,,,,,,,,,,,,,,,,,,,,,,,,,,,,,,,,,,,,,,,,,,,,,,,,,,,,,,,,,,,,
,,60920010e7bfd828a698e5dd,2023-12-06_23h31.52.384,kallum_motion_pilot,2023.2.3,Win32,60.38282712,60920010e7bfd828a698e5dd,6560176e4d91f764e2a42c74,657158a0152a70f66ac313cf,0.0975,0.0976,0,56,56,124,1,sevenfive,,,,,,,,,,,,,,,,,,,,,,,,,,,,,,,,,,,,,,,,,,,,,,,,,,,,,,,,,,,,,,,,,,,,,,,,,,,,,,,,,,,,,,,,,,,,,,,,,,,,,,,,,,,,,,,,,,,,,,,,,,,,,,,,,,,,,,,
,,60920010e7bfd828a698e5dd,2023-12-06_23h31.52.384,kallum_motion_pilot,2023.2.3,Win32,60.38282712,60920010e7bfd828a698e5dd,6560176e4d91f764e2a42c74,657158a0152a70f66ac313cf,0.0981,0.0984,0,57,57,81,1,fiveseven,,,,,,,,,,,,,,,,,,,,,,,,,,,,,,,,,,,,,,,,,,,,,,,,,,,,,,,,,,,,,,,,,,,,,,,,,,,,,,,,,,,,,,,,,,,,,,,,,,,,,,,,,,,,,,,,,,,,,,,,,,,,,,,,,,,,,,,
,,60920010e7bfd828a698e5dd,2023-12-06_23h31.52.384,kallum_motion_pilot,2023.2.3,Win32,60.38282712,60920010e7bfd828a698e5dd,6560176e4d91f764e2a42c74,657158a0152a70f66ac313cf,0.0989,0.0991,0,58,58,71,1,fourthree,,,,,,,,,,,,,,,,,,,,,,,,,,,,,,,,,,,,,,,,,,,,,,,,,,,,,,,,,,,,,,,,,,,,,,,,,,,,,,,,,,,,,,,,,,,,,,,,,,,,,,,,,,,,,,,,,,,,,,,,,,,,,,,,,,,,,,,
,,60920010e7bfd828a698e5dd,2023-12-06_23h31.52.384,kallum_motion_pilot,2023.2.3,Win32,60.38282712,60920010e7bfd828a698e5dd,6560176e4d91f764e2a42c74,657158a0152a70f66ac313cf,0.0995,0.0998,0,59,59,157,1,seveneight,,,,,,,,,,,,,,,,,,,,,,,,,,,,,,,,,,,,,,,,,,,,,,,,,,,,,,,,,,,,,,,,,,,,,,,,,,,,,,,,,,,,,,,,,,,,,,,,,,,,,,,,,,,,,,,,,,,,,,,,,,,,,,,,,,,,,,,
,,60920010e7bfd828a698e5dd,2023-12-06_23h31.52.384,kallum_motion_pilot,2023.2.3,Win32,60.38282712,60920010e7bfd828a698e5dd,6560176e4d91f764e2a42c74,657158a0152a70f66ac313cf,0.1002,0.1004,0,60,60,15,1,fourthree,,,,,,,,,,,,,,,,,,,,,,,,,,,,,,,,,,,,,,,,,,,,,,,,,,,,,,,,,,,,,,,,,,,,,,,,,,,,,,,,,,,,,,,,,,,,,,,,,,,,,,,,,,,,,,,,,,,,,,,,,,,,,,,,,,,,,,,
,,60920010e7bfd828a698e5dd,2023-12-06_23h31.52.384,kallum_motion_pilot,2023.2.3,Win32,60.38282712,60920010e7bfd828a698e5dd,6560176e4d91f764e2a42c74,657158a0152a70f66ac313cf,0.1007,0.101,0,61,61,95,1,eightseven,,,,,,,,,,,,,,,,,,,,,,,,,,,,,,,,,,,,,,,,,,,,,,,,,,,,,,,,,,,,,,,,,,,,,,,,,,,,,,,,,,,,,,,,,,,,,,,,,,,,,,,,,,,,,,,,,,,,,,,,,,,,,,,,,,,,,,,
,,60920010e7bfd828a698e5dd,2023-12-06_23h31.52.384,kallum_motion_pilot,2023.2.3,Win32,60.38282712,60920010e7bfd828a698e5dd,6560176e4d91f764e2a42c74,657158a0152a70f66ac313cf,0.1015,0.1018,0,62,62,80,1,fivesix,,,,,,,,,,,,,,,,,,,,,,,,,,,,,,,,,,,,,,,,,,,,,,,,,,,,,,,,,,,,,,,,,,,,,,,,,,,,,,,,,,,,,,,,,,,,,,,,,,,,,,,,,,,,,,,,,,,,,,,,,,,,,,,,,,,,,,,
,,60920010e7bfd828a698e5dd,2023-12-06_23h31.52.384,kallum_motion_pilot,2023.2.3,Win32,60.38282712,60920010e7bfd828a698e5dd,6560176e4d91f764e2a42c74,657158a0152a70f66ac313cf,0.1023,0.1025,0,63,63,110,1,eightsix,,,,,,,,,,,,,,,,,,,,,,,,,,,,,,,,,,,,,,,,,,,,,,,,,,,,,,,,,,,,,,,,,,,,,,,,,,,,,,,,,,,,,,,,,,,,,,,,,,,,,,,,,,,,,,,,,,,,,,,,,,,,,,,,,,,,,,,
,,60920010e7bfd828a698e5dd,2023-12-06_23h31.52.384,kallum_motion_pilot,2023.2.3,Win32,60.38282712,60920010e7bfd828a698e5dd,6560176e4d91f764e2a42c74,657158a0152a70f66ac313cf,0.103,0.1032,0,64,64,3,1,twofour,,,,,,,,,,,,,,,,,,,,,,,,,,,,,,,,,,,,,,,,,,,,,,,,,,,,,,,,,,,,,,,,,,,,,,,,,,,,,,,,,,,,,,,,,,,,,,,,,,,,,,,,,,,,,,,,,,,,,,,,,,,,,,,,,,,,,,,
,,60920010e7bfd828a698e5dd,2023-12-06_23h31.52.384,kallum_motion_pilot,2023.2.3,Win32,60.38282712,60920010e7bfd828a698e5dd,6560176e4d91f764e2a42c74,657158a0152a70f66ac313cf,0.1037,0.1039,0,65,65,146,1,sixfive,,,,,,,,,,,,,,,,,,,,,,,,,,,,,,,,,,,,,,,,,,,,,,,,,,,,,,,,,,,,,,,,,,,,,,,,,,,,,,,,,,,,,,,,,,,,,,,,,,,,,,,,,,,,,,,,,,,,,,,,,,,,,,,,,,,,,,,
,,60920010e7bfd828a698e5dd,2023-12-06_23h31.52.384,kallum_motion_pilot,2023.2.3,Win32,60.38282712,60920010e7bfd828a698e5dd,6560176e4d91f764e2a42c74,657158a0152a70f66ac313cf,0.1044,0.1048,0,66,66,41,1,onethree,,,,,,,,,,,,,,,,,,,,,,,,,,,,,,,,,,,,,,,,,,,,,,,,,,,,,,,,,,,,,,,,,,,,,,,,,,,,,,,,,,,,,,,,,,,,,,,,,,,,,,,,,,,,,,,,,,,,,,,,,,,,,,,,,,,,,,,
,,60920010e7bfd828a698e5dd,2023-12-06_23h31.52.384,kallum_motion_pilot,2023.2.3,Win32,60.38282712,60920010e7bfd828a698e5dd,6560176e4d91f764e2a42c74,657158a0152a70f66ac313cf,0.1052,0.1055,0,67,67,152,1,fivesix,,,,,,,,,,,,,,,,,,,,,,,,,,,,,,,,,,,,,,,,,,,,,,,,,,,,,,,,,,,,,,,,,,,,,,,,,,,,,,,,,,,,,,,,,,,,,,,,,,,,,,,,,,,,,,,,,,,,,,,,,,,,,,,,,,,,,,,
,,60920010e7bfd828a698e5dd,2023-12-06_23h31.52.384,kallum_motion_pilot,2023.2.3,Win32,60.38282712,60920010e7bfd828a698e5dd,6560176e4d91f764e2a42c74,657158a0152a70f66ac313cf,0.106,0.1063,0,68,68,52,1,threeone,,,,,,,,,,,,,,,,,,,,,,,,,,,,,,,,,,,,,,,,,,,,,,,,,,,,,,,,,,,,,,,,,,,,,,,,,,,,,,,,,,,,,,,,,,,,,,,,,,,,,,,,,,,,,,,,,,,,,,,,,,,,,,,,,,,,,,,
,,60920010e7bfd828a698e5dd,2023-12-06_23h31.52.384,kallum_motion_pilot,2023.2.3,Win32,60.38282712,60920010e7bfd828a698e5dd,6560176e4d91f764e2a42c74,657158a0152a70f66ac313cf,0.107,0.1073,0,69,69,10,1,twoone,,,,,,,,,,,,,,,,,,,,,,,,,,,,,,,,,,,,,,,,,,,,,,,,,,,,,,,,,,,,,,,,,,,,,,,,,,,,,,,,,,,,,,,,,,,,,,,,,,,,,,,,,,,,,,,,,,,,,,,,,,,,,,,,,,,,,,,
,,60920010e7bfd828a698e5dd,2023-12-06_23h31.52.384,kallum_motion_pilot,2023.2.3,Win32,60.38282712,60920010e7bfd828a698e5dd,6560176e4d91f764e2a42c74,657158a0152a70f66ac313cf,0.1078,0.108,0,70,70,31,1,fourthree,,,,,,,,,,,,,,,,,,,,,,,,,,,,,,,,,,,,,,,,,,,,,,,,,,,,,,,,,,,,,,,,,,,,,,,,,,,,,,,,,,,,,,,,,,,,,,,,,,,,,,,,,,,,,,,,,,,,,,,,,,,,,,,,,,,,,,,
,,60920010e7bfd828a698e5dd,2023-12-06_23h31.52.384,kallum_motion_pilot,2023.2.3,Win32,60.38282712,60920010e7bfd828a698e5dd,6560176e4d91f764e2a42c74,657158a0152a70f66ac313cf,0.1085,0.1088,0,71,71,44,1,threeone,,,,,,,,,,,,,,,,,,,,,,,,,,,,,,,,,,,,,,,,,,,,,,,,,,,,,,,,,,,,,,,,,,,,,,,,,,,,,,,,,,,,,,,,,,,,,,,,,,,,,,,,,,,,,,,,,,,,,,,,,,,,,,,,,,,,,,,
,,60920010e7bfd828a698e5dd,2023-12-06_23h31.52.384,kallum_motion_pilot,2023.2.3,Win32,60.38282712,60920010e7bfd828a698e5dd,6560176e4d91f764e2a42c74,657158a0152a70f66ac313cf,0.1093,0.1096,0,72,72,111,1,eightseven,,,,,,,,,,,,,,,,,,,,,,,,,,,,,,,,,,,,,,,,,,,,,,,,,,,,,,,,,,,,,,,,,,,,,,,,,,,,,,,,,,,,,,,,,,,,,,,,,,,,,,,,,,,,,,,,,,,,,,,,,,,,,,,,,,,,,,,
,,60920010e7bfd828a698e5dd,2023-12-06_23h31.52.384,kallum_motion_pilot,2023.2.3,Win32,60.38282712,60920010e7bfd828a698e5dd,6560176e4d91f764e2a42c74,657158a0152a70f66ac313cf,0.1102,0.1104,0,73,73,9,1,onethree,,,,,,,,,,,,,,,,,,,,,,,,,,,,,,,,,,,,,,,,,,,,,,,,,,,,,,,,,,,,,,,,,,,,,,,,,,,,,,,,,,,,,,,,,,,,,,,,,,,,,,,,,,,,,,,,,,,,,,,,,,,,,,,,,,,,,,,
,,60920010e7bfd828a698e5dd,2023-12-06_23h31.52.384,kallum_motion_pilot,2023.2.3,Win32,60.38282712,60920010e7bfd828a698e5dd,6560176e4d91f764e2a42c74,657158a0152a70f66ac313cf,0.1118,0.1122,0,74,74,119,1,eightseven,,,,,,,,,,,,,,,,,,,,,,,,,,,,,,,,,,,,,,,,,,,,,,,,,,,,,,,,,,,,,,,,,,,,,,,,,,,,,,,,,,,,,,,,,,,,,,,,,,,,,,,,,,,,,,,,,,,,,,,,,,,,,,,,,,,,,,,
,,60920010e7bfd828a698e5dd,2023-12-06_23h31.52.384,kallum_motion_pilot,2023.2.3,Win32,60.38282712,60920010e7bfd828a698e5dd,6560176e4d91f764e2a42c74,657158a0152a70f66ac313cf,0.1133,0.1137,0,75,75,116,1,sevenfive,,,,,,,,,,,,,,,,,,,,,,,,,,,,,,,,,,,,,,,,,,,,,,,,,,,,,,,,,,,,,,,,,,,,,,,,,,,,,,,,,,,,,,,,,,,,,,,,,,,,,,,,,,,,,,,,,,,,,,,,,,,,,,,,,,,,,,,
,,60920010e7bfd828a698e5dd,2023-12-06_23h31.52.384,kallum_motion_pilot,2023.2.3,Win32,60.38282712,60920010e7bfd828a698e5dd,6560176e4d91f764e2a42c74,657158a0152a70f66ac313cf,0.1141,0.1144,0,76,76,129,1,fiveseven,,,,,,,,,,,,,,,,,,,,,,,,,,,,,,,,,,,,,,,,,,,,,,,,,,,,,,,,,,,,,,,,,,,,,,,,,,,,,,,,,,,,,,,,,,,,,,,,,,,,,,,,,,,,,,,,,,,,,,,,,,,,,,,,,,,,,,,
,,60920010e7bfd828a698e5dd,2023-12-06_23h31.52.384,kallum_motion_pilot,2023.2.3,Win32,60.38282712,60920010e7bfd828a698e5dd,6560176e4d91f764e2a42c74,657158a0152a70f66ac313cf,0.1148,0.1154,0,77,77,159,1,eightseven,,,,,,,,,,,,,,,,,,,,,,,,,,,,,,,,,,,,,,,,,,,,,,,,,,,,,,,,,,,,,,,,,,,,,,,,,,,,,,,,,,,,,,,,,,,,,,,,,,,,,,,,,,,,,,,,,,,,,,,,,,,,,,,,,,,,,,,
,,60920010e7bfd828a698e5dd,2023-12-06_23h31.52.384,kallum_motion_pilot,2023.2.3,Win32,60.38282712,60920010e7bfd828a698e5dd,6560176e4d91f764e2a42c74,657158a0152a70f66ac313cf,0.1159,0.1164,0,78,78,67,1,twofour,,,,,,,,,,,,,,,,,,,,,,,,,,,,,,,,,,,,,,,,,,,,,,,,,,,,,,,,,,,,,,,,,,,,,,,,,,,,,,,,,,,,,,,,,,,,,,,,,,,,,,,,,,,,,,,,,,,,,,,,,,,,,,,,,,,,,,,
,,60920010e7bfd828a698e5dd,2023-12-06_23h31.52.384,kallum_motion_pilot,2023.2.3,Win32,60.38282712,60920010e7bfd828a698e5dd,6560176e4d91f764e2a42c74,657158a0152a70f66ac313cf,0.1172,0.1174,0,79,79,139,1,sixeight,,,,,,,,,,,,,,,,,,,,,,,,,,,,,,,,,,,,,,,,,,,,,,,,,,,,,,,,,,,,,,,,,,,,,,,,,,,,,,,,,,,,,,,,,,,,,,,,,,,,,,,,,,,,,,,,,,,,,,,,,,,,,,,,,,,,,,,
,,60920010e7bfd828a698e5dd,2023-12-06_23h31.52.384,kallum_motion_pilot,2023.2.3,Win32,60.38282712,60920010e7bfd828a698e5dd,6560176e4d91f764e2a42c74,657158a0152a70f66ac313cf,0.1178,0.1182,0,80,80,60,1,threeone,,,,,,,,,,,,,,,,,,,,,,,,,,,,,,,,,,,,,,,,,,,,,,,,,,,,,,,,,,,,,,,,,,,,,,,,,,,,,,,,,,,,,,,,,,,,,,,,,,,,,,,,,,,,,,,,,,,,,,,,,,,,,,,,,,,,,,,
,,60920010e7bfd828a698e5dd,2023-12-06_23h31.52.384,kallum_motion_pilot,2023.2.3,Win32,60.38282712,60920010e7bfd828a698e5dd,6560176e4d91f764e2a42c74,657158a0152a70f66ac313cf,0.1186,0.1189,0,81,81,131,1,sixeight,,,,,,,,,,,,,,,,,,,,,,,,,,,,,,,,,,,,,,,,,,,,,,,,,,,,,,,,,,,,,,,,,,,,,,,,,,,,,,,,,,,,,,,,,,,,,,,,,,,,,,,,,,,,,,,,,,,,,,,,,,,,,,,,,,,,,,,
,,60920010e7bfd828a698e5dd,2023-12-06_23h31.52.384,kallum_motion_pilot,2023.2.3,Win32,60.38282712,60920010e7bfd828a698e5dd,6560176e4d91f764e2a42c74,657158a0152a70f66ac313cf,0.1193,0.1197,0,82,82,59,1,twofour,,,,,,,,,,,,,,,,,,,,,,,,,,,,,,,,,,,,,,,,,,,,,,,,,,,,,,,,,,,,,,,,,,,,,,,,,,,,,,,,,,,,,,,,,,,,,,,,,,,,,,,,,,,,,,,,,,,,,,,,,,,,,,,,,,,,,,,
,,60920010e7bfd828a698e5dd,2023-12-06_23h31.52.384,kallum_motion_pilot,2023.2.3,Win32,60.38282712,60920010e7bfd828a698e5dd,6560176e4d91f764e2a42c74,657158a0152a70f66ac313cf,0.1201,0.1204,0,83,83,66,1,twoone,,,,,,,,,,,,,,,,,,,,,,,,,,,,,,,,,,,,,,,,,,,,,,,,,,,,,,,,,,,,,,,,,,,,,,,,,,,,,,,,,,,,,,,,,,,,,,,,,,,,,,,,,,,,,,,,,,,,,,,,,,,,,,,,,,,,,,,
,,60920010e7bfd828a698e5dd,2023-12-06_23h31.52.384,kallum_motion_pilot,2023.2.3,Win32,60.38282712,60920010e7bfd828a698e5dd,6560176e4d91f764e2a42c74,657158a0152a70f66ac313cf,0.1207,0.121,0,84,84,134,1,eightsix,,,,,,,,,,,,,,,,,,,,,,,,,,,,,,,,,,,,,,,,,,,,,,,,,,,,,,,,,,,,,,,,,,,,,,,,,,,,,,,,,,,,,,,,,,,,,,,,,,,,,,,,,,,,,,,,,,,,,,,,,,,,,,,,,,,,,,,
,,60920010e7bfd828a698e5dd,2023-12-06_23h31.52.384,kallum_motion_pilot,2023.2.3,Win32,60.38282712,60920010e7bfd828a698e5dd,6560176e4d91f764e2a42c74,657158a0152a70f66ac313cf,0.1215,0.1219,0,85,85,83,1,sixeight,,,,,,,,,,,,,,,,,,,,,,,,,,,,,,,,,,,,,,,,,,,,,,,,,,,,,,,,,,,,,,,,,,,,,,,,,,,,,,,,,,,,,,,,,,,,,,,,,,,,,,,,,,,,,,,,,,,,,,,,,,,,,,,,,,,,,,,
,,60920010e7bfd828a698e5dd,2023-12-06_23h31.52.384,kallum_motion_pilot,2023.2.3,Win32,60.38282712,60920010e7bfd828a698e5dd,6560176e4d91f764e2a42c74,657158a0152a70f66ac313cf,0.1222,0.1226,0,86,86,137,1,fiveseven,,,,,,,,,,,,,,,,,,,,,,,,,,,,,,,,,,,,,,,,,,,,,,,,,,,,,,,,,,,,,,,,,,,,,,,,,,,,,,,,,,,,,,,,,,,,,,,,,,,,,,,,,,,,,,,,,,,,,,,,,,,,,,,,,,,,,,,
,,60920010e7bfd828a698e5dd,2023-12-06_23h31.52.384,kallum_motion_pilot,2023.2.3,Win32,60.38282712,60920010e7bfd828a698e5dd,6560176e4d91f764e2a42c74,657158a0152a70f66ac313cf,0.123,0.1234,0,87,87,132,1,sevenfive,,,,,,,,,,,,,,,,,,,,,,,,,,,,,,,,,,,,,,,,,,,,,,,,,,,,,,,,,,,,,,,,,,,,,,,,,,,,,,,,,,,,,,,,,,,,,,,,,,,,,,,,,,,,,,,,,,,,,,,,,,,,,,,,,,,,,,,
,,60920010e7bfd828a698e5dd,2023-12-06_23h31.52.384,kallum_motion_pilot,2023.2.3,Win32,60.38282712,60920010e7bfd828a698e5dd,6560176e4d91f764e2a42c74,657158a0152a70f66ac313cf,0.1238,0.1241,0,88,88,14,1,fourtwo,,,,,,,,,,,,,,,,,,,,,,,,,,,,,,,,,,,,,,,,,,,,,,,,,,,,,,,,,,,,,,,,,,,,,,,,,,,,,,,,,,,,,,,,,,,,,,,,,,,,,,,,,,,,,,,,,,,,,,,,,,,,,,,,,,,,,,,
,,60920010e7bfd828a698e5dd,2023-12-06_23h31.52.384,kallum_motion_pilot,2023.2.3,Win32,60.38282712,60920010e7bfd828a698e5dd,6560176e4d91f764e2a42c74,657158a0152a70f66ac313cf,0.1245,0.1248,0,89,89,58,1,twoone,,,,,,,,,,,,,,,,,,,,,,,,,,,,,,,,,,,,,,,,,,,,,,,,,,,,,,,,,,,,,,,,,,,,,,,,,,,,,,,,,,,,,,,,,,,,,,,,,,,,,,,,,,,,,,,,,,,,,,,,,,,,,,,,,,,,,,,
,,60920010e7bfd828a698e5dd,2023-12-06_23h31.52.384,kallum_motion_pilot,2023.2.3,Win32,60.38282712,60920010e7bfd828a698e5dd,6560176e4d91f764e2a42c74,657158a0152a70f66ac313cf,0.1253,0.1256,0,90,90,122,1,sixfive,,,,,,,,,,,,,,,,,,,,,,,,,,,,,,,,,,,,,,,,,,,,,,,,,,,,,,,,,,,,,,,,,,,,,,,,,,,,,,,,,,,,,,,,,,,,,,,,,,,,,,,,,,,,,,,,,,,,,,,,,,,,,,,,,,,,,,,
,,60920010e7bfd828a698e5dd,2023-12-06_23h31.52.384,kallum_motion_pilot,2023.2.3,Win32,60.38282712,60920010e7bfd828a698e5dd,6560176e4d91f764e2a42c74,657158a0152a70f66ac313cf,0.126,0.1263,0,91,91,23,1,fourthree,,,,,,,,,,,,,,,,,,,,,,,,,,,,,,,,,,,,,,,,,,,,,,,,,,,,,,,,,,,,,,,,,,,,,,,,,,,,,,,,,,,,,,,,,,,,,,,,,,,,,,,,,,,,,,,,,,,,,,,,,,,,,,,,,,,,,,,
,,60920010e7bfd828a698e5dd,2023-12-06_23h31.52.384,kallum_motion_pilot,2023.2.3,Win32,60.38282712,60920010e7bfd828a698e5dd,6560176e4d91f764e2a42c74,657158a0152a70f66ac313cf,0.1267,0.1278,0,92,92,76,1,threeone,,,,,,,,,,,,,,,,,,,,,,,,,,,,,,,,,,,,,,,,,,,,,,,,,,,,,,,,,,,,,,,,,,,,,,,,,,,,,,,,,,,,,,,,,,,,,,,,,,,,,,,,,,,,,,,,,,,,,,,,,,,,,,,,,,,,,,,
,,60920010e7bfd828a698e5dd,2023-12-06_23h31.52.384,kallum_motion_pilot,2023.2.3,Win32,60.38282712,60920010e7bfd828a698e5dd,6560176e4d91f764e2a42c74,657158a0152a70f66ac313cf,0.1282,0.1285,0,93,93,18,1,twoone,,,,,,,,,,,,,,,,,,,,,,,,,,,,,,,,,,,,,,,,,,,,,,,,,,,,,,,,,,,,,,,,,,,,,,,,,,,,,,,,,,,,,,,,,,,,,,,,,,,,,,,,,,,,,,,,,,,,,,,,,,,,,,,,,,,,,,,
,,60920010e7bfd828a698e5dd,2023-12-06_23h31.52.384,kallum_motion_pilot,2023.2.3,Win32,60.38282712,60920010e7bfd828a698e5dd,6560176e4d91f764e2a42c74,657158a0152a70f66ac313cf,0.1297,0.13,0,94,94,91,1,sixeight,,,,,,,,,,,,,,,,,,,,,,,,,,,,,,,,,,,,,,,,,,,,,,,,,,,,,,,,,,,,,,,,,,,,,,,,,,,,,,,,,,,,,,,,,,,,,,,,,,,,,,,,,,,,,,,,,,,,,,,,,,,,,,,,,,,,,,,
,,60920010e7bfd828a698e5dd,2023-12-06_23h31.52.384,kallum_motion_pilot,2023.2.3,Win32,60.38282712,60920010e7bfd828a698e5dd,6560176e4d91f764e2a42c74,657158a0152a70f66ac313cf,0.1306,0.131,0,95,95,128,1,fivesix,,,,,,,,,,,,,,,,,,,,,,,,,,,,,,,,,,,,,,,,,,,,,,,,,,,,,,,,,,,,,,,,,,,,,,,,,,,,,,,,,,,,,,,,,,,,,,,,,,,,,,,,,,,,,,,,,,,,,,,,,,,,,,,,,,,,,,,
,,60920010e7bfd828a698e5dd,2023-12-06_23h31.52.384,kallum_motion_pilot,2023.2.3,Win32,60.38282712,60920010e7bfd828a698e5dd,6560176e4d91f764e2a42c74,657158a0152a70f66ac313cf,0.1314,0.1318,0,96,96,120,1,fivesix,,,,,,,,,,,,,,,,,,,,,,,,,,,,,,,,,,,,,,,,,,,,,,,,,,,,,,,,,,,,,,,,,,,,,,,,,,,,,,,,,,,,,,,,,,,,,,,,,,,,,,,,,,,,,,,,,,,,,,,,,,,,,,,,,,,,,,,
,,60920010e7bfd828a698e5dd,2023-12-06_23h31.52.384,kallum_motion_pilot,2023.2.3,Win32,60.38282712,60920010e7bfd828a698e5dd,6560176e4d91f764e2a42c74,657158a0152a70f66ac313cf,0.1323,0.1327,0,97,97,158,1,eightsix,,,,,,,,,,,,,,,,,,,,,,,,,,,,,,,,,,,,,,,,,,,,,,,,,,,,,,,,,,,,,,,,,,,,,,,,,,,,,,,,,,,,,,,,,,,,,,,,,,,,,,,,,,,,,,,,,,,,,,,,,,,,,,,,,,,,,,,
,,60920010e7bfd828a698e5dd,2023-12-06_23h31.52.384,kallum_motion_pilot,2023.2.3,Win32,60.38282712,60920010e7bfd828a698e5dd,6560176e4d91f764e2a42c74,657158a0152a70f66ac313cf,0.1331,0.1335,0,98,98,12,1,threeone,,,,,,,,,,,,,,,,,,,,,,,,,,,,,,,,,,,,,,,,,,,,,,,,,,,,,,,,,,,,,,,,,,,,,,,,,,,,,,,,,,,,,,,,,,,,,,,,,,,,,,,,,,,,,,,,,,,,,,,,,,,,,,,,,,,,,,,
,,60920010e7bfd828a698e5dd,2023-12-06_23h31.52.384,kallum_motion_pilot,2023.2.3,Win32,60.38282712,60920010e7bfd828a698e5dd,6560176e4d91f764e2a42c74,657158a0152a70f66ac313cf,0.134,0.1344,0,99,99,24,1,onetwo,,,,,,,,,,,,,,,,,,,,,,,,,,,,,,,,,,,,,,,,,,,,,,,,,,,,,,,,,,,,,,,,,,,,,,,,,,,,,,,,,,,,,,,,,,,,,,,,,,,,,,,,,,,,,,,,,,,,,,,,,,,,,,,,,,,,,,,
,,60920010e7bfd828a698e5dd,2023-12-06_23h31.52.384,kallum_motion_pilot,2023.2.3,Win32,60.38282712,60920010e7bfd828a698e5dd,6560176e4d91f764e2a42c74,657158a0152a70f66ac313cf,0.1348,0.1351,0,100,100,133,1,seveneight,,,,,,,,,,,,,,,,,,,,,,,,,,,,,,,,,,,,,,,,,,,,,,,,,,,,,,,,,,,,,,,,,,,,,,,,,,,,,,,,,,,,,,,,,,,,,,,,,,,,,,,,,,,,,,,,,,,,,,,,,,,,,,,,,,,,,,,
,,60920010e7bfd828a698e5dd,2023-12-06_23h31.52.384,kallum_motion_pilot,2023.2.3,Win32,60.38282712,60920010e7bfd828a698e5dd,6560176e4d91f764e2a42c74,657158a0152a70f66ac313cf,0.1357,0.136,0,101,101,28,1,threeone,,,,,,,,,,,,,,,,,,,,,,,,,,,,,,,,,,,,,,,,,,,,,,,,,,,,,,,,,,,,,,,,,,,,,,,,,,,,,,,,,,,,,,,,,,,,,,,,,,,,,,,,,,,,,,,,,,,,,,,,,,,,,,,,,,,,,,,
,,60920010e7bfd828a698e5dd,2023-12-06_23h31.52.384,kallum_motion_pilot,2023.2.3,Win32,60.38282712,60920010e7bfd828a698e5dd,6560176e4d91f764e2a42c74,657158a0152a70f66ac313cf,0.1365,0.1368,0,102,102,112,1,fivesix,,,,,,,,,,,,,,,,,,,,,,,,,,,,,,,,,,,,,,,,,,,,,,,,,,,,,,,,,,,,,,,,,,,,,,,,,,,,,,,,,,,,,,,,,,,,,,,,,,,,,,,,,,,,,,,,,,,,,,,,,,,,,,,,,,,,,,,
,,60920010e7bfd828a698e5dd,2023-12-06_23h31.52.384,kallum_motion_pilot,2023.2.3,Win32,60.38282712,60920010e7bfd828a698e5dd,6560176e4d91f764e2a42c74,657158a0152a70f66ac313cf,0.1374,0.138,0,103,103,53,1,threefour,,,,,,,,,,,,,,,,,,,,,,,,,,,,,,,,,,,,,,,,,,,,,,,,,,,,,,,,,,,,,,,,,,,,,,,,,,,,,,,,,,,,,,,,,,,,,,,,,,,,,,,,,,,,,,,,,,,,,,,,,,,,,,,,,,,,,,,
,,60920010e7bfd828a698e5dd,2023-12-06_23h31.52.384,kallum_motion_pilot,2023.2.3,Win32,60.38282712,60920010e7bfd828a698e5dd,6560176e4d91f764e2a42c74,657158a0152a70f66ac313cf,0.1386,0.1388,0,104,104,64,1,onetwo,,,,,,,,,,,,,,,,,,,,,,,,,,,,,,,,,,,,,,,,,,,,,,,,,,,,,,,,,,,,,,,,,,,,,,,,,,,,,,,,,,,,,,,,,,,,,,,,,,,,,,,,,,,,,,,,,,,,,,,,,,,,,,,,,,,,,,,
,,60920010e7bfd828a698e5dd,2023-12-06_23h31.52.384,kallum_motion_pilot,2023.2.3,Win32,60.38282712,60920010e7bfd828a698e5dd,6560176e4d91f764e2a42c74,657158a0152a70f66ac313cf,0.1394,0.1396,0,105,105,48,1,onetwo,,,,,,,,,,,,,,,,,,,,,,,,,,,,,,,,,,,,,,,,,,,,,,,,,,,,,,,,,,,,,,,,,,,,,,,,,,,,,,,,,,,,,,,,,,,,,,,,,,,,,,,,,,,,,,,,,,,,,,,,,,,,,,,,,,,,,,,
,,60920010e7bfd828a698e5dd,2023-12-06_23h31.52.384,kallum_motion_pilot,2023.2.3,Win32,60.38282712,60920010e7bfd828a698e5dd,6560176e4d91f764e2a42c74,657158a0152a70f66ac313cf,0.1402,0.1405,0,106,106,142,1,eightsix,,,,,,,,,,,,,,,,,,,,,,,,,,,,,,,,,,,,,,,,,,,,,,,,,,,,,,,,,,,,,,,,,,,,,,,,,,,,,,,,,,,,,,,,,,,,,,,,,,,,,,,,,,,,,,,,,,,,,,,,,,,,,,,,,,,,,,,
,,60920010e7bfd828a698e5dd,2023-12-06_23h31.52.384,kallum_motion_pilot,2023.2.3,Win32,60.38282712,60920010e7bfd828a698e5dd,6560176e4d91f764e2a42c74,657158a0152a70f66ac313cf,0.141,0.1414,0,107,107,156,1,sevenfive,,,,,,,,,,,,,,,,,,,,,,,,,,,,,,,,,,,,,,,,,,,,,,,,,,,,,,,,,,,,,,,,,,,,,,,,,,,,,,,,,,,,,,,,,,,,,,,,,,,,,,,,,,,,,,,,,,,,,,,,,,,,,,,,,,,,,,,
,,60920010e7bfd828a698e5dd,2023-12-06_23h31.52.384,kallum_motion_pilot,2023.2.3,Win32,60.38282712,60920010e7bfd828a698e5dd,6560176e4d91f764e2a42c74,657158a0152a70f66ac313cf,0.1416,0.1422,0,108,108,109,1,seveneight,,,,,,,,,,,,,,,,,,,,,,,,,,,,,,,,,,,,,,,,,,,,,,,,,,,,,,,,,,,,,,,,,,,,,,,,,,,,,,,,,,,,,,,,,,,,,,,,,,,,,,,,,,,,,,,,,,,,,,,,,,,,,,,,,,,,,,,
,,60920010e7bfd828a698e5dd,2023-12-06_23h31.52.384,kallum_motion_pilot,2023.2.3,Win32,60.38282712,60920010e7bfd828a698e5dd,6560176e4d91f764e2a42c74,657158a0152a70f66ac313cf,0.1442,0.1445,0,109,109,160,1,fivesix,,,,,,,,,,,,,,,,,,,,,,,,,,,,,,,,,,,,,,,,,,,,,,,,,,,,,,,,,,,,,,,,,,,,,,,,,,,,,,,,,,,,,,,,,,,,,,,,,,,,,,,,,,,,,,,,,,,,,,,,,,,,,,,,,,,,,,,
,,60920010e7bfd828a698e5dd,2023-12-06_23h31.52.384,kallum_motion_pilot,2023.2.3,Win32,60.38282712,60920010e7bfd828a698e5dd,6560176e4d91f764e2a42c74,657158a0152a70f66ac313cf,0.145,0.1453,0,110,110,25,1,onethree,,,,,,,,,,,,,,,,,,,,,,,,,,,,,,,,,,,,,,,,,,,,,,,,,,,,,,,,,,,,,,,,,,,,,,,,,,,,,,,,,,,,,,,,,,,,,,,,,,,,,,,,,,,,,,,,,,,,,,,,,,,,,,,,,,,,,,,
,,60920010e7bfd828a698e5dd,2023-12-06_23h31.52.384,kallum_motion_pilot,2023.2.3,Win32,60.38282712,60920010e7bfd828a698e5dd,6560176e4d91f764e2a42c74,657158a0152a70f66ac313cf,0.1464,0.1465,0,111,111,153,1,fiveseven,,,,,,,,,,,,,,,,,,,,,,,,,,,,,,,,,,,,,,,,,,,,,,,,,,,,,,,,,,,,,,,,,,,,,,,,,,,,,,,,,,,,,,,,,,,,,,,,,,,,,,,,,,,,,,,,,,,,,,,,,,,,,,,,,,,,,,,
,,60920010e7bfd828a698e5dd,2023-12-06_23h31.52.384,kallum_motion_pilot,2023.2.3,Win32,60.38282712,60920010e7bfd828a698e5dd,6560176e4d91f764e2a42c74,657158a0152a70f66ac313cf,0.147,0.1474,0,112,112,118,1,eightsix,,,,,,,,,,,,,,,,,,,,,,,,,,,,,,,,,,,,,,,,,,,,,,,,,,,,,,,,,,,,,,,,,,,,,,,,,,,,,,,,,,,,,,,,,,,,,,,,,,,,,,,,,,,,,,,,,,,,,,,,,,,,,,,,,,,,,,,
,,60920010e7bfd828a698e5dd,2023-12-06_23h31.52.384,kallum_motion_pilot,2023.2.3,Win32,60.38282712,60920010e7bfd828a698e5dd,6560176e4d91f764e2a42c74,657158a0152a70f66ac313cf,0.1482,0.1486,0,113,113,102,1,eightsix,,,,,,,,,,,,,,,,,,,,,,,,,,,,,,,,,,,,,,,,,,,,,,,,,,,,,,,,,,,,,,,,,,,,,,,,,,,,,,,,,,,,,,,,,,,,,,,,,,,,,,,,,,,,,,,,,,,,,,,,,,,,,,,,,,,,,,,
,,60920010e7bfd828a698e5dd,2023-12-06_23h31.52.384,kallum_motion_pilot,2023.2.3,Win32,60.38282712,60920010e7bfd828a698e5dd,6560176e4d91f764e2a42c74,657158a0152a70f66ac313cf,0.1489,0.1493,0,114,114,26,1,twoone,,,,,,,,,,,,,,,,,,,,,,,,,,,,,,,,,,,,,,,,,,,,,,,,,,,,,,,,,,,,,,,,,,,,,,,,,,,,,,,,,,,,,,,,,,,,,,,,,,,,,,,,,,,,,,,,,,,,,,,,,,,,,,,,,,,,,,,
,,60920010e7bfd828a698e5dd,2023-12-06_23h31.52.384,kallum_motion_pilot,2023.2.3,Win32,60.38282712,60920010e7bfd828a698e5dd,6560176e4d91f764e2a42c74,657158a0152a70f66ac313cf,0.1496,0.15,0,115,115,20,1,threeone,,,,,,,,,,,,,,,,,,,,,,,,,,,,,,,,,,,,,,,,,,,,,,,,,,,,,,,,,,,,,,,,,,,,,,,,,,,,,,,,,,,,,,,,,,,,,,,,,,,,,,,,,,,,,,,,,,,,,,,,,,,,,,,,,,,,,,,
,,60920010e7bfd828a698e5dd,2023-12-06_23h31.52.384,kallum_motion_pilot,2023.2.3,Win32,60.38282712,60920010e7bfd828a698e5dd,6560176e4d91f764e2a42c74,657158a0152a70f66ac313cf,0.1503,0.1507,0,116,116,100,1,sevenfive,,,,,,,,,,,,,,,,,,,,,,,,,,,,,,,,,,,,,,,,,,,,,,,,,,,,,,,,,,,,,,,,,,,,,,,,,,,,,,,,,,,,,,,,,,,,,,,,,,,,,,,,,,,,,,,,,,,,,,,,,,,,,,,,,,,,,,,
,,60920010e7bfd828a698e5dd,2023-12-06_23h31.52.384,kallum_motion_pilot,2023.2.3,Win32,60.38282712,60920010e7bfd828a698e5dd,6560176e4d91f764e2a42c74,657158a0152a70f66ac313cf,0.1511,0.1515,0,117,117,92,1,sevenfive,,,,,,,,,,,,,,,,,,,,,,,,,,,,,,,,,,,,,,,,,,,,,,,,,,,,,,,,,,,,,,,,,,,,,,,,,,,,,,,,,,,,,,,,,,,,,,,,,,,,,,,,,,,,,,,,,,,,,,,,,,,,,,,,,,,,,,,
,,60920010e7bfd828a698e5dd,2023-12-06_23h31.52.384,kallum_motion_pilot,2023.2.3,Win32,60.38282712,60920010e7bfd828a698e5dd,6560176e4d91f764e2a42c74,657158a0152a70f66ac313cf,0.1518,0.1522,0,118,118,30,1,fourtwo,,,,,,,,,,,,,,,,,,,,,,,,,,,,,,,,,,,,,,,,,,,,,,,,,,,,,,,,,,,,,,,,,,,,,,,,,,,,,,,,,,,,,,,,,,,,,,,,,,,,,,,,,,,,,,,,,,,,,,,,,,,,,,,,,,,,,,,
,,60920010e7bfd828a698e5dd,2023-12-06_23h31.52.384,kallum_motion_pilot,2023.2.3,Win32,60.38282712,60920010e7bfd828a698e5dd,6560176e4d91f764e2a42c74,657158a0152a70f66ac313cf,0.1525,0.153,0,119,119,22,1,fourtwo,,,,,,,,,,,,,,,,,,,,,,,,,,,,,,,,,,,,,,,,,,,,,,,,,,,,,,,,,,,,,,,,,,,,,,,,,,,,,,,,,,,,,,,,,,,,,,,,,,,,,,,,,,,,,,,,,,,,,,,,,,,,,,,,,,,,,,,
,,60920010e7bfd828a698e5dd,2023-12-06_23h31.52.384,kallum_motion_pilot,2023.2.3,Win32,60.38282712,60920010e7bfd828a698e5dd,6560176e4d91f764e2a42c74,657158a0152a70f66ac313cf,0.1534,0.1537,0,120,120,94,1,eightsix,,,,,,,,,,,,,,,,,,,,,,,,,,,,,,,,,,,,,,,,,,,,,,,,,,,,,,,,,,,,,,,,,,,,,,,,,,,,,,,,,,,,,,,,,,,,,,,,,,,,,,,,,,,,,,,,,,,,,,,,,,,,,,,,,,,,,,,
,,60920010e7bfd828a698e5dd,2023-12-06_23h31.52.384,kallum_motion_pilot,2023.2.3,Win32,60.38282712,60920010e7bfd828a698e5dd,6560176e4d91f764e2a42c74,657158a0152a70f66ac313cf,0.1541,0.1545,0,121,121,72,1,onetwo,,,,,,,,,,,,,,,,,,,,,,,,,,,,,,,,,,,,,,,,,,,,,,,,,,,,,,,,,,,,,,,,,,,,,,,,,,,,,,,,,,,,,,,,,,,,,,,,,,,,,,,,,,,,,,,,,,,,,,,,,,,,,,,,,,,,,,,
,,60920010e7bfd828a698e5dd,2023-12-06_23h31.52.384,kallum_motion_pilot,2023.2.3,Win32,60.38282712,60920010e7bfd828a698e5dd,6560176e4d91f764e2a42c74,657158a0152a70f66ac313cf,0.1549,0.1553,0,122,122,11,1,twofour,,,,,,,,,,,,,,,,,,,,,,,,,,,,,,,,,,,,,,,,,,,,,,,,,,,,,,,,,,,,,,,,,,,,,,,,,,,,,,,,,,,,,,,,,,,,,,,,,,,,,,,,,,,,,,,,,,,,,,,,,,,,,,,,,,,,,,,
,,60920010e7bfd828a698e5dd,2023-12-06_23h31.52.384,kallum_motion_pilot,2023.2.3,Win32,60.38282712,60920010e7bfd828a698e5dd,6560176e4d91f764e2a42c74,657158a0152a70f66ac313cf,0.1558,0.156,0,123,123,126,1,eightsix,,,,,,,,,,,,,,,,,,,,,,,,,,,,,,,,,,,,,,,,,,,,,,,,,,,,,,,,,,,,,,,,,,,,,,,,,,,,,,,,,,,,,,,,,,,,,,,,,,,,,,,,,,,,,,,,,,,,,,,,,,,,,,,,,,,,,,,
,,60920010e7bfd828a698e5dd,2023-12-06_23h31.52.384,kallum_motion_pilot,2023.2.3,Win32,60.38282712,60920010e7bfd828a698e5dd,6560176e4d91f764e2a42c74,657158a0152a70f66ac313cf,0.1566,0.1568,0,124,124,73,1,onethree,,,,,,,,,,,,,,,,,,,,,,,,,,,,,,,,,,,,,,,,,,,,,,,,,,,,,,,,,,,,,,,,,,,,,,,,,,,,,,,,,,,,,,,,,,,,,,,,,,,,,,,,,,,,,,,,,,,,,,,,,,,,,,,,,,,,,,,
,,60920010e7bfd828a698e5dd,2023-12-06_23h31.52.384,kallum_motion_pilot,2023.2.3,Win32,60.38282712,60920010e7bfd828a698e5dd,6560176e4d91f764e2a42c74,657158a0152a70f66ac313cf,0.1585,0.1588,0,125,125,13,1,threefour,,,,,,,,,,,,,,,,,,,,,,,,,,,,,,,,,,,,,,,,,,,,,,,,,,,,,,,,,,,,,,,,,,,,,,,,,,,,,,,,,,,,,,,,,,,,,,,,,,,,,,,,,,,,,,,,,,,,,,,,,,,,,,,,,,,,,,,
,,60920010e7bfd828a698e5dd,2023-12-06_23h31.52.384,kallum_motion_pilot,2023.2.3,Win32,60.38282712,60920010e7bfd828a698e5dd,6560176e4d91f764e2a42c74,657158a0152a70f66ac313cf,0.1594,0.1597,0,126,126,49,1,onethree,,,,,,,,,,,,,,,,,,,,,,,,,,,,,,,,,,,,,,,,,,,,,,,,,,,,,,,,,,,,,,,,,,,,,,,,,,,,,,,,,,,,,,,,,,,,,,,,,,,,,,,,,,,,,,,,,,,,,,,,,,,,,,,,,,,,,,,
,,60920010e7bfd828a698e5dd,2023-12-06_23h31.52.384,kallum_motion_pilot,2023.2.3,Win32,60.38282712,60920010e7bfd828a698e5dd,6560176e4d91f764e2a42c74,657158a0152a70f66ac313cf,0.1602,0.1605,0,127,127,135,1,eightseven,,,,,,,,,,,,,,,,,,,,,,,,,,,,,,,,,,,,,,,,,,,,,,,,,,,,,,,,,,,,,,,,,,,,,,,,,,,,,,,,,,,,,,,,,,,,,,,,,,,,,,,,,,,,,,,,,,,,,,,,,,,,,,,,,,,,,,,
,,60920010e7bfd828a698e5dd,2023-12-06_23h31.52.384,kallum_motion_pilot,2023.2.3,Win32,60.38282712,60920010e7bfd828a698e5dd,6560176e4d91f764e2a42c74,657158a0152a70f66ac313cf,0.1609,0.1613,0,128,128,105,1,fiveseven,,,,,,,,,,,,,,,,,,,,,,,,,,,,,,,,,,,,,,,,,,,,,,,,,,,,,,,,,,,,,,,,,,,,,,,,,,,,,,,,,,,,,,,,,,,,,,,,,,,,,,,,,,,,,,,,,,,,,,,,,,,,,,,,,,,,,,,
,,60920010e7bfd828a698e5dd,2023-12-06_23h31.52.384,kallum_motion_pilot,2023.2.3,Win32,60.38282712,60920010e7bfd828a698e5dd,6560176e4d91f764e2a42c74,657158a0152a70f66ac313cf,0.1618,0.1621,0,129,129,138,1,sixfive,,,,,,,,,,,,,,,,,,,,,,,,,,,,,,,,,,,,,,,,,,,,,,,,,,,,,,,,,,,,,,,,,,,,,,,,,,,,,,,,,,,,,,,,,,,,,,,,,,,,,,,,,,,,,,,,,,,,,,,,,,,,,,,,,,,,,,,
,,60920010e7bfd828a698e5dd,2023-12-06_23h31.52.384,kallum_motion_pilot,2023.2.3,Win32,60.38282712,60920010e7bfd828a698e5dd,6560176e4d91f764e2a42c74,657158a0152a70f66ac313cf,0.1631,0.1634,0,130,130,27,1,twofour,,,,,,,,,,,,,,,,,,,,,,,,,,,,,,,,,,,,,,,,,,,,,,,,,,,,,,,,,,,,,,,,,,,,,,,,,,,,,,,,,,,,,,,,,,,,,,,,,,,,,,,,,,,,,,,,,,,,,,,,,,,,,,,,,,,,,,,
,,60920010e7bfd828a698e5dd,2023-12-06_23h31.52.384,kallum_motion_pilot,2023.2.3,Win32,60.38282712,60920010e7bfd828a698e5dd,6560176e4d91f764e2a42c74,657158a0152a70f66ac313cf,0.1638,0.1641,0,131,131,127,1,eightseven,,,,,,,,,,,,,,,,,,,,,,,,,,,,,,,,,,,,,,,,,,,,,,,,,,,,,,,,,,,,,,,,,,,,,,,,,,,,,,,,,,,,,,,,,,,,,,,,,,,,,,,,,,,,,,,,,,,,,,,,,,,,,,,,,,,,,,,
,,60920010e7bfd828a698e5dd,2023-12-06_23h31.52.384,kallum_motion_pilot,2023.2.3,Win32,60.38282712,60920010e7bfd828a698e5dd,6560176e4d91f764e2a42c74,657158a0152a70f66ac313cf,0.1646,0.165,0,132,132,75,1,twofour,,,,,,,,,,,,,,,,,,,,,,,,,,,,,,,,,,,,,,,,,,,,,,,,,,,,,,,,,,,,,,,,,,,,,,,,,,,,,,,,,,,,,,,,,,,,,,,,,,,,,,,,,,,,,,,,,,,,,,,,,,,,,,,,,,,,,,,
,,60920010e7bfd828a698e5dd,2023-12-06_23h31.52.384,kallum_motion_pilot,2023.2.3,Win32,60.38282712,60920010e7bfd828a698e5dd,6560176e4d91f764e2a42c74,657158a0152a70f66ac313cf,0.1655,0.1658,0,133,133,82,1,sixfive,,,,,,,,,,,,,,,,,,,,,,,,,,,,,,,,,,,,,,,,,,,,,,,,,,,,,,,,,,,,,,,,,,,,,,,,,,,,,,,,,,,,,,,,,,,,,,,,,,,,,,,,,,,,,,,,,,,,,,,,,,,,,,,,,,,,,,,
,,60920010e7bfd828a698e5dd,2023-12-06_23h31.52.384,kallum_motion_pilot,2023.2.3,Win32,60.38282712,60920010e7bfd828a698e5dd,6560176e4d91f764e2a42c74,657158a0152a70f66ac313cf,0.1665,0.1667,0,134,134,84,1,sevenfive,,,,,,,,,,,,,,,,,,,,,,,,,,,,,,,,,,,,,,,,,,,,,,,,,,,,,,,,,,,,,,,,,,,,,,,,,,,,,,,,,,,,,,,,,,,,,,,,,,,,,,,,,,,,,,,,,,,,,,,,,,,,,,,,,,,,,,,
,,60920010e7bfd828a698e5dd,2023-12-06_23h31.52.384,kallum_motion_pilot,2023.2.3,Win32,60.38282712,60920010e7bfd828a698e5dd,6560176e4d91f764e2a42c74,657158a0152a70f66ac313cf,0.1673,0.1676,0,135,135,96,1,fivesix,,,,,,,,,,,,,,,,,,,,,,,,,,,,,,,,,,,,,,,,,,,,,,,,,,,,,,,,,,,,,,,,,,,,,,,,,,,,,,,,,,,,,,,,,,,,,,,,,,,,,,,,,,,,,,,,,,,,,,,,,,,,,,,,,,,,,,,
,,60920010e7bfd828a698e5dd,2023-12-06_23h31.52.384,kallum_motion_pilot,2023.2.3,Win32,60.38282712,60920010e7bfd828a698e5dd,6560176e4d91f764e2a42c74,657158a0152a70f66ac313cf,0.1684,0.1685,0,136,136,70,1,fourtwo,,,,,,,,,,,,,,,,,,,,,,,,,,,,,,,,,,,,,,,,,,,,,,,,,,,,,,,,,,,,,,,,,,,,,,,,,,,,,,,,,,,,,,,,,,,,,,,,,,,,,,,,,,,,,,,,,,,,,,,,,,,,,,,,,,,,,,,
,,60920010e7bfd828a698e5dd,2023-12-06_23h31.52.384,kallum_motion_pilot,2023.2.3,Win32,60.38282712,60920010e7bfd828a698e5dd,6560176e4d91f764e2a42c74,657158a0152a70f66ac313cf,0.1692,0.1696,0,137,137,85,1,seveneight,,,,,,,,,,,,,,,,,,,,,,,,,,,,,,,,,,,,,,,,,,,,,,,,,,,,,,,,,,,,,,,,,,,,,,,,,,,,,,,,,,,,,,,,,,,,,,,,,,,,,,,,,,,,,,,,,,,,,,,,,,,,,,,,,,,,,,,
,,60920010e7bfd828a698e5dd,2023-12-06_23h31.52.384,kallum_motion_pilot,2023.2.3,Win32,60.38282712,60920010e7bfd828a698e5dd,6560176e4d91f764e2a42c74,657158a0152a70f66ac313cf,0.17,0.1704,0,138,138,88,1,fivesix,,,,,,,,,,,,,,,,,,,,,,,,,,,,,,,,,,,,,,,,,,,,,,,,,,,,,,,,,,,,,,,,,,,,,,,,,,,,,,,,,,,,,,,,,,,,,,,,,,,,,,,,,,,,,,,,,,,,,,,,,,,,,,,,,,,,,,,
,,60920010e7bfd828a698e5dd,2023-12-06_23h31.52.384,kallum_motion_pilot,2023.2.3,Win32,60.38282712,60920010e7bfd828a698e5dd,6560176e4d91f764e2a42c74,657158a0152a70f66ac313cf,0.1707,0.1712,0,139,139,32,1,onetwo,,,,,,,,,,,,,,,,,,,,,,,,,,,,,,,,,,,,,,,,,,,,,,,,,,,,,,,,,,,,,,,,,,,,,,,,,,,,,,,,,,,,,,,,,,,,,,,,,,,,,,,,,,,,,,,,,,,,,,,,,,,,,,,,,,,,,,,
,,60920010e7bfd828a698e5dd,2023-12-06_23h31.52.384,kallum_motion_pilot,2023.2.3,Win32,60.38282712,60920010e7bfd828a698e5dd,6560176e4d91f764e2a42c74,657158a0152a70f66ac313cf,0.1716,0.172,0,140,140,113,1,fiveseven,,,,,,,,,,,,,,,,,,,,,,,,,,,,,,,,,,,,,,,,,,,,,,,,,,,,,,,,,,,,,,,,,,,,,,,,,,,,,,,,,,,,,,,,,,,,,,,,,,,,,,,,,,,,,,,,,,,,,,,,,,,,,,,,,,,,,,,
,,60920010e7bfd828a698e5dd,2023-12-06_23h31.52.384,kallum_motion_pilot,2023.2.3,Win32,60.38282712,60920010e7bfd828a698e5dd,6560176e4d91f764e2a42c74,657158a0152a70f66ac313cf,0.1724,0.1729,0,141,141,33,1,onethree,,,,,,,,,,,,,,,,,,,,,,,,,,,,,,,,,,,,,,,,,,,,,,,,,,,,,,,,,,,,,,,,,,,,,,,,,,,,,,,,,,,,,,,,,,,,,,,,,,,,,,,,,,,,,,,,,,,,,,,,,,,,,,,,,,,,,,,
,,60920010e7bfd828a698e5dd,2023-12-06_23h31.52.384,kallum_motion_pilot,2023.2.3,Win32,60.38282712,60920010e7bfd828a698e5dd,6560176e4d91f764e2a42c74,657158a0152a70f66ac313cf,0.1737,0.1741,0,142,142,40,1,onetwo,,,,,,,,,,,,,,,,,,,,,,,,,,,,,,,,,,,,,,,,,,,,,,,,,,,,,,,,,,,,,,,,,,,,,,,,,,,,,,,,,,,,,,,,,,,,,,,,,,,,,,,,,,,,,,,,,,,,,,,,,,,,,,,,,,,,,,,
,,60920010e7bfd828a698e5dd,2023-12-06_23h31.52.384,kallum_motion_pilot,2023.2.3,Win32,60.38282712,60920010e7bfd828a698e5dd,6560176e4d91f764e2a42c74,657158a0152a70f66ac313cf,0.1745,0.175,0,143,143,89,1,fiveseven,,,,,,,,,,,,,,,,,,,,,,,,,,,,,,,,,,,,,,,,,,,,,,,,,,,,,,,,,,,,,,,,,,,,,,,,,,,,,,,,,,,,,,,,,,,,,,,,,,,,,,,,,,,,,,,,,,,,,,,,,,,,,,,,,,,,,,,
,,60920010e7bfd828a698e5dd,2023-12-06_23h31.52.384,kallum_motion_pilot,2023.2.3,Win32,60.38282712,60920010e7bfd828a698e5dd,6560176e4d91f764e2a42c74,657158a0152a70f66ac313cf,0.1754,0.1758,0,144,144,86,1,eightsix,,,,,,,,,,,,,,,,,,,,,,,,,,,,,,,,,,,,,,,,,,,,,,,,,,,,,,,,,,,,,,,,,,,,,,,,,,,,,,,,,,,,,,,,,,,,,,,,,,,,,,,,,,,,,,,,,,,,,,,,,,,,,,,,,,,,,,,
,,60920010e7bfd828a698e5dd,2023-12-06_23h31.52.384,kallum_motion_pilot,2023.2.3,Win32,60.38282712,60920010e7bfd828a698e5dd,6560176e4d91f764e2a42c74,657158a0152a70f66ac313cf,0.1762,0.1766,0,145,145,45,1,threefour,,,,,,,,,,,,,,,,,,,,,,,,,,,,,,,,,,,,,,,,,,,,,,,,,,,,,,,,,,,,,,,,,,,,,,,,,,,,,,,,,,,,,,,,,,,,,,,,,,,,,,,,,,,,,,,,,,,,,,,,,,,,,,,,,,,,,,,
,,60920010e7bfd828a698e5dd,2023-12-06_23h31.52.384,kallum_motion_pilot,2023.2.3,Win32,60.38282712,60920010e7bfd828a698e5dd,6560176e4d91f764e2a42c74,657158a0152a70f66ac313cf,0.177,0.1774,0,146,146,35,1,twofour,,,,,,,,,,,,,,,,,,,,,,,,,,,,,,,,,,,,,,,,,,,,,,,,,,,,,,,,,,,,,,,,,,,,,,,,,,,,,,,,,,,,,,,,,,,,,,,,,,,,,,,,,,,,,,,,,,,,,,,,,,,,,,,,,,,,,,,
,,60920010e7bfd828a698e5dd,2023-12-06_23h31.52.384,kallum_motion_pilot,2023.2.3,Win32,60.38282712,60920010e7bfd828a698e5dd,6560176e4d91f764e2a42c74,657158a0152a70f66ac313cf,0.1777,0.1785,0,147,147,61,1,threefour,,,,,,,,,,,,,,,,,,,,,,,,,,,,,,,,,,,,,,,,,,,,,,,,,,,,,,,,,,,,,,,,,,,,,,,,,,,,,,,,,,,,,,,,,,,,,,,,,,,,,,,,,,,,,,,,,,,,,,,,,,,,,,,,,,,,,,,
,,60920010e7bfd828a698e5dd,2023-12-06_23h31.52.384,kallum_motion_pilot,2023.2.3,Win32,60.38282712,60920010e7bfd828a698e5dd,6560176e4d91f764e2a42c74,657158a0152a70f66ac313cf,0.1796,0.1799,0,148,148,74,1,twoone,,,,,,,,,,,,,,,,,,,,,,,,,,,,,,,,,,,,,,,,,,,,,,,,,,,,,,,,,,,,,,,,,,,,,,,,,,,,,,,,,,,,,,,,,,,,,,,,,,,,,,,,,,,,,,,,,,,,,,,,,,,,,,,,,,,,,,,
,,60920010e7bfd828a698e5dd,2023-12-06_23h31.52.384,kallum_motion_pilot,2023.2.3,Win32,60.38282712,60920010e7bfd828a698e5dd,6560176e4d91f764e2a42c74,657158a0152a70f66ac313cf,0.1804,0.1808,0,149,149,130,1,sixfive,,,,,,,,,,,,,,,,,,,,,,,,,,,,,,,,,,,,,,,,,,,,,,,,,,,,,,,,,,,,,,,,,,,,,,,,,,,,,,,,,,,,,,,,,,,,,,,,,,,,,,,,,,,,,,,,,,,,,,,,,,,,,,,,,,,,,,,
,,60920010e7bfd828a698e5dd,2023-12-06_23h31.52.384,kallum_motion_pilot,2023.2.3,Win32,60.38282712,60920010e7bfd828a698e5dd,6560176e4d91f764e2a42c74,657158a0152a70f66ac313cf,0.1812,0.1816,0,150,150,93,1,seveneight,,,,,,,,,,,,,,,,,,,,,,,,,,,,,,,,,,,,,,,,,,,,,,,,,,,,,,,,,,,,,,,,,,,,,,,,,,,,,,,,,,,,,,,,,,,,,,,,,,,,,,,,,,,,,,,,,,,,,,,,,,,,,,,,,,,,,,,
,,60920010e7bfd828a698e5dd,2023-12-06_23h31.52.384,kallum_motion_pilot,2023.2.3,Win32,60.38282712,60920010e7bfd828a698e5dd,6560176e4d91f764e2a42c74,657158a0152a70f66ac313cf,0.1821,0.1825,0,151,151,114,1,sixfive,,,,,,,,,,,,,,,,,,,,,,,,,,,,,,,,,,,,,,,,,,,,,,,,,,,,,,,,,,,,,,,,,,,,,,,,,,,,,,,,,,,,,,,,,,,,,,,,,,,,,,,,,,,,,,,,,,,,,,,,,,,,,,,,,,,,,,,
,,60920010e7bfd828a698e5dd,2023-12-06_23h31.52.384,kallum_motion_pilot,2023.2.3,Win32,60.38282712,60920010e7bfd828a698e5dd,6560176e4d91f764e2a42c74,657158a0152a70f66ac313cf,0.1828,0.1833,0,152,152,16,1,onetwo,,,,,,,,,,,,,,,,,,,,,,,,,,,,,,,,,,,,,,,,,,,,,,,,,,,,,,,,,,,,,,,,,,,,,,,,,,,,,,,,,,,,,,,,,,,,,,,,,,,,,,,,,,,,,,,,,,,,,,,,,,,,,,,,,,,,,,,
,,60920010e7bfd828a698e5dd,2023-12-06_23h31.52.384,kallum_motion_pilot,2023.2.3,Win32,60.38282712,60920010e7bfd828a698e5dd,6560176e4d91f764e2a42c74,657158a0152a70f66ac313cf,0.1837,0.1841,0,153,153,6,1,fourtwo,,,,,,,,,,,,,,,,,,,,,,,,,,,,,,,,,,,,,,,,,,,,,,,,,,,,,,,,,,,,,,,,,,,,,,,,,,,,,,,,,,,,,,,,,,,,,,,,,,,,,,,,,,,,,,,,,,,,,,,,,,,,,,,,,,,,,,,
,,60920010e7bfd828a698e5dd,2023-12-06_23h31.52.384,kallum_motion_pilot,2023.2.3,Win32,60.38282712,60920010e7bfd828a698e5dd,6560176e4d91f764e2a42c74,657158a0152a70f66ac313cf,0.1846,0.185,0,154,154,46,1,fourtwo,,,,,,,,,,,,,,,,,,,,,,,,,,,,,,,,,,,,,,,,,,,,,,,,,,,,,,,,,,,,,,,,,,,,,,,,,,,,,,,,,,,,,,,,,,,,,,,,,,,,,,,,,,,,,,,,,,,,,,,,,,,,,,,,,,,,,,,
,,60920010e7bfd828a698e5dd,2023-12-06_23h31.52.384,kallum_motion_pilot,2023.2.3,Win32,60.38282712,60920010e7bfd828a698e5dd,6560176e4d91f764e2a42c74,657158a0152a70f66ac313cf,0.1855,0.1858,0,155,155,117,1,seveneight,,,,,,,,,,,,,,,,,,,,,,,,,,,,,,,,,,,,,,,,,,,,,,,,,,,,,,,,,,,,,,,,,,,,,,,,,,,,,,,,,,,,,,,,,,,,,,,,,,,,,,,,,,,,,,,,,,,,,,,,,,,,,,,,,,,,,,,
,,60920010e7bfd828a698e5dd,2023-12-06_23h31.52.384,kallum_motion_pilot,2023.2.3,Win32,60.38282712,60920010e7bfd828a698e5dd,6560176e4d91f764e2a42c74,657158a0152a70f66ac313cf,0.1862,0.1866,0,156,156,77,1,threefour,,,,,,,,,,,,,,,,,,,,,,,,,,,,,,,,,,,,,,,,,,,,,,,,,,,,,,,,,,,,,,,,,,,,,,,,,,,,,,,,,,,,,,,,,,,,,,,,,,,,,,,,,,,,,,,,,,,,,,,,,,,,,,,,,,,,,,,
,,60920010e7bfd828a698e5dd,2023-12-06_23h31.52.384,kallum_motion_pilot,2023.2.3,Win32,60.38282712,60920010e7bfd828a698e5dd,6560176e4d91f764e2a42c74,657158a0152a70f66ac313cf,0.187,0.1874,0,157,157,57,1,onethree,,,,,,,,,,,,,,,,,,,,,,,,,,,,,,,,,,,,,,,,,,,,,,,,,,,,,,,,,,,,,,,,,,,,,,,,,,,,,,,,,,,,,,,,,,,,,,,,,,,,,,,,,,,,,,,,,,,,,,,,,,,,,,,,,,,,,,,
,,60920010e7bfd828a698e5dd,2023-12-06_23h31.52.384,kallum_motion_pilot,2023.2.3,Win32,60.38282712,60920010e7bfd828a698e5dd,6560176e4d91f764e2a42c74,657158a0152a70f66ac313cf,0.1878,0.1883,0,158,158,65,1,onethree,,,,,,,,,,,,,,,,,,,,,,,,,,,,,,,,,,,,,,,,,,,,,,,,,,,,,,,,,,,,,,,,,,,,,,,,,,,,,,,,,,,,,,,,,,,,,,,,,,,,,,,,,,,,,,,,,,,,,,,,,,,,,,,,,,,,,,,
,,60920010e7bfd828a698e5dd,2023-12-06_23h31.52.384,kallum_motion_pilot,2023.2.3,Win32,60.38282712,60920010e7bfd828a698e5dd,6560176e4d91f764e2a42c74,657158a0152a70f66ac313cf,0.1893,0.1899,0,159,159,55,1,fourthree,,,,,,,,,,,,,,,,,,,,,,,,,,,,,,,,,,,,,,,,,,,,,,,,,,,,,,,,,,,,,,,,,,,,,,,,,,,,,,,,,,,,,,,,,,,,,,,,,,,,,,,,,,,,,,,,,,,,,,,,,,,,,,,,,,,,,,,
,,60920010e7bfd828a698e5dd,2023-12-06_23h31.52.384,kallum_motion_pilot,2023.2.3,Win32,60.38282712,60920010e7bfd828a698e5dd,6560176e4d91f764e2a42c74,657158a0152a70f66ac313cf,0.1907,0.1913,0,160,160,148,1,sevenfive,,,,,,,,,,,,,,,,,,,,,,,,,,,,,,,,,,,,,,,,,,,,,,,,,,,,,,,,,,,,,,,,,,,,,,,,,,,,,,,,,,,,,,,,,,,,,,,,,,,,,,,,,,,,,,,,,,,,,,,,,,,,,,,,,,,,,,,
,,60920010e7bfd828a698e5dd,2023-12-06_23h31.52.384,kallum_motion_pilot,2023.2.3,Win32,60.38282712,60920010e7bfd828a698e5dd,6560176e4d91f764e2a42c74,657158a0152a70f66ac313cf,0.192,0.1922,0,161,161,101,1,seveneight,,,,,,,,,,,,,,,,,,,,,,,,,,,,,,,,,,,,,,,,,,,,,,,,,,,,,,,,,,,,,,,,,,,,,,,,,,,,,,,,,,,,,,,,,,,,,,,,,,,,,,,,,,,,,,,,,,,,,,,,,,,,,,,,,,,,,,,
,,60920010e7bfd828a698e5dd,2023-12-06_23h31.52.384,kallum_motion_pilot,2023.2.3,Win32,60.38282712,60920010e7bfd828a698e5dd,6560176e4d91f764e2a42c74,657158a0152a70f66ac313cf,0.1928,0.1932,1,0,162,4,1,threeone,,,,,,,,,,,,,,,,,,,,,,,,,,,,,,,,,,,,,,,,,,,,,,,,,,,,,,,,,,,,,,,,,,,,,,,,,,,,,,,,,,,,,,,,,,,,,,,,,,,,,,,,,,,,,,,,,,,,,,,,,,,,,,,,,,,,,,,
,,60920010e7bfd828a698e5dd,2023-12-06_23h31.52.384,kallum_motion_pilot,2023.2.3,Win32,60.38282712,60920010e7bfd828a698e5dd,6560176e4d91f764e2a42c74,657158a0152a70f66ac313cf,0.1937,0.1943,1,1,163,58,1,twoone,,,,,,,,,,,,,,,,,,,,,,,,,,,,,,,,,,,,,,,,,,,,,,,,,,,,,,,,,,,,,,,,,,,,,,,,,,,,,,,,,,,,,,,,,,,,,,,,,,,,,,,,,,,,,,,,,,,,,,,,,,,,,,,,,,,,,,,
,,60920010e7bfd828a698e5dd,2023-12-06_23h31.52.384,kallum_motion_pilot,2023.2.3,Win32,60.38282712,60920010e7bfd828a698e5dd,6560176e4d91f764e2a42c74,657158a0152a70f66ac313cf,0.1948,0.1951,1,2,164,28,1,threeone,,,,,,,,,,,,,,,,,,,,,,,,,,,,,,,,,,,,,,,,,,,,,,,,,,,,,,,,,,,,,,,,,,,,,,,,,,,,,,,,,,,,,,,,,,,,,,,,,,,,,,,,,,,,,,,,,,,,,,,,,,,,,,,,,,,,,,,
,,60920010e7bfd828a698e5dd,2023-12-06_23h31.52.384,kallum_motion_pilot,2023.2.3,Win32,60.38282712,60920010e7bfd828a698e5dd,6560176e4d91f764e2a42c74,657158a0152a70f66ac313cf,0.1962,0.1966,1,3,165,47,1,fourthree,,,,,,,,,,,,,,,,,,,,,,,,,,,,,,,,,,,,,,,,,,,,,,,,,,,,,,,,,,,,,,,,,,,,,,,,,,,,,,,,,,,,,,,,,,,,,,,,,,,,,,,,,,,,,,,,,,,,,,,,,,,,,,,,,,,,,,,
,,60920010e7bfd828a698e5dd,2023-12-06_23h31.52.384,kallum_motion_pilot,2023.2.3,Win32,60.38282712,60920010e7bfd828a698e5dd,6560176e4d91f764e2a42c74,657158a0152a70f66ac313cf,0.197,0.1974,1,4,166,146,1,sixfive,,,,,,,,,,,,,,,,,,,,,,,,,,,,,,,,,,,,,,,,,,,,,,,,,,,,,,,,,,,,,,,,,,,,,,,,,,,,,,,,,,,,,,,,,,,,,,,,,,,,,,,,,,,,,,,,,,,,,,,,,,,,,,,,,,,,,,,
,,60920010e7bfd828a698e5dd,2023-12-06_23h31.52.384,kallum_motion_pilot,2023.2.3,Win32,60.38282712,60920010e7bfd828a698e5dd,6560176e4d91f764e2a42c74,657158a0152a70f66ac313cf,0.1978,0.1983,1,5,167,153,1,fiveseven,,,,,,,,,,,,,,,,,,,,,,,,,,,,,,,,,,,,,,,,,,,,,,,,,,,,,,,,,,,,,,,,,,,,,,,,,,,,,,,,,,,,,,,,,,,,,,,,,,,,,,,,,,,,,,,,,,,,,,,,,,,,,,,,,,,,,,,
,,60920010e7bfd828a698e5dd,2023-12-06_23h31.52.384,kallum_motion_pilot,2023.2.3,Win32,60.38282712,60920010e7bfd828a698e5dd,6560176e4d91f764e2a42c74,657158a0152a70f66ac313cf,0.199,0.1993,1,6,168,79,1,eightseven,,,,,,,,,,,,,,,,,,,,,,,,,,,,,,,,,,,,,,,,,,,,,,,,,,,,,,,,,,,,,,,,,,,,,,,,,,,,,,,,,,,,,,,,,,,,,,,,,,,,,,,,,,,,,,,,,,,,,,,,,,,,,,,,,,,,,,,
,,60920010e7bfd828a698e5dd,2023-12-06_23h31.52.384,kallum_motion_pilot,2023.2.3,Win32,60.38282712,60920010e7bfd828a698e5dd,6560176e4d91f764e2a42c74,657158a0152a70f66ac313cf,0.1999,0.2002,1,7,169,31,1,fourthree,,,,,,,,,,,,,,,,,,,,,,,,,,,,,,,,,,,,,,,,,,,,,,,,,,,,,,,,,,,,,,,,,,,,,,,,,,,,,,,,,,,,,,,,,,,,,,,,,,,,,,,,,,,,,,,,,,,,,,,,,,,,,,,,,,,,,,,
,,60920010e7bfd828a698e5dd,2023-12-06_23h31.52.384,kallum_motion_pilot,2023.2.3,Win32,60.38282712,60920010e7bfd828a698e5dd,6560176e4d91f764e2a42c74,657158a0152a70f66ac313cf,0.2006,0.2011,1,8,170,3,1,twofour,,,,,,,,,,,,,,,,,,,,,,,,,,,,,,,,,,,,,,,,,,,,,,,,,,,,,,,,,,,,,,,,,,,,,,,,,,,,,,,,,,,,,,,,,,,,,,,,,,,,,,,,,,,,,,,,,,,,,,,,,,,,,,,,,,,,,,,
,,60920010e7bfd828a698e5dd,2023-12-06_23h31.52.384,kallum_motion_pilot,2023.2.3,Win32,60.38282712,60920010e7bfd828a698e5dd,6560176e4d91f764e2a42c74,657158a0152a70f66ac313cf,0.2015,0.2019,1,9,171,122,1,sixfive,,,,,,,,,,,,,,,,,,,,,,,,,,,,,,,,,,,,,,,,,,,,,,,,,,,,,,,,,,,,,,,,,,,,,,,,,,,,,,,,,,,,,,,,,,,,,,,,,,,,,,,,,,,,,,,,,,,,,,,,,,,,,,,,,,,,,,,
,,60920010e7bfd828a698e5dd,2023-12-06_23h31.52.384,kallum_motion_pilot,2023.2.3,Win32,60.38282712,60920010e7bfd828a698e5dd,6560176e4d91f764e2a42c74,657158a0152a70f66ac313cf,0.2023,0.2028,1,10,172,51,1,twofour,,,,,,,,,,,,,,,,,,,,,,,,,,,,,,,,,,,,,,,,,,,,,,,,,,,,,,,,,,,,,,,,,,,,,,,,,,,,,,,,,,,,,,,,,,,,,,,,,,,,,,,,,,,,,,,,,,,,,,,,,,,,,,,,,,,,,,,
,,60920010e7bfd828a698e5dd,2023-12-06_23h31.52.384,kallum_motion_pilot,2023.2.3,Win32,60.38282712,60920010e7bfd828a698e5dd,6560176e4d91f764e2a42c74,657158a0152a70f66ac313cf,0.2032,0.2036,1,11,173,6,1,fourtwo,,,,,,,,,,,,,,,,,,,,,,,,,,,,,,,,,,,,,,,,,,,,,,,,,,,,,,,,,,,,,,,,,,,,,,,,,,,,,,,,,,,,,,,,,,,,,,,,,,,,,,,,,,,,,,,,,,,,,,,,,,,,,,,,,,,,,,,
,,60920010e7bfd828a698e5dd,2023-12-06_23h31.52.384,kallum_motion_pilot,2023.2.3,Win32,60.38282712,60920010e7bfd828a698e5dd,6560176e4d91f764e2a42c74,657158a0152a70f66ac313cf,0.204,0.2044,1,12,174,25,1,onethree,,,,,,,,,,,,,,,,,,,,,,,,,,,,,,,,,,,,,,,,,,,,,,,,,,,,,,,,,,,,,,,,,,,,,,,,,,,,,,,,,,,,,,,,,,,,,,,,,,,,,,,,,,,,,,,,,,,,,,,,,,,,,,,,,,,,,,,
,,60920010e7bfd828a698e5dd,2023-12-06_23h31.52.384,kallum_motion_pilot,2023.2.3,Win32,60.38282712,60920010e7bfd828a698e5dd,6560176e4d91f764e2a42c74,657158a0152a70f66ac313cf,0.2048,0.2053,1,13,175,135,1,eightseven,,,,,,,,,,,,,,,,,,,,,,,,,,,,,,,,,,,,,,,,,,,,,,,,,,,,,,,,,,,,,,,,,,,,,,,,,,,,,,,,,,,,,,,,,,,,,,,,,,,,,,,,,,,,,,,,,,,,,,,,,,,,,,,,,,,,,,,
,,60920010e7bfd828a698e5dd,2023-12-06_23h31.52.384,kallum_motion_pilot,2023.2.3,Win32,60.38282712,60920010e7bfd828a698e5dd,6560176e4d91f764e2a42c74,657158a0152a70f66ac313cf,0.2057,0.2061,1,14,176,112,1,fivesix,,,,,,,,,,,,,,,,,,,,,,,,,,,,,,,,,,,,,,,,,,,,,,,,,,,,,,,,,,,,,,,,,,,,,,,,,,,,,,,,,,,,,,,,,,,,,,,,,,,,,,,,,,,,,,,,,,,,,,,,,,,,,,,,,,,,,,,
,,60920010e7bfd828a698e5dd,2023-12-06_23h31.52.384,kallum_motion_pilot,2023.2.3,Win32,60.38282712,60920010e7bfd828a698e5dd,6560176e4d91f764e2a42c74,657158a0152a70f66ac313cf,0.2066,0.207,1,15,177,13,1,threefour,,,,,,,,,,,,,,,,,,,,,,,,,,,,,,,,,,,,,,,,,,,,,,,,,,,,,,,,,,,,,,,,,,,,,,,,,,,,,,,,,,,,,,,,,,,,,,,,,,,,,,,,,,,,,,,,,,,,,,,,,,,,,,,,,,,,,,,
,,60920010e7bfd828a698e5dd,2023-12-06_23h31.52.384,kallum_motion_pilot,2023.2.3,Win32,60.38282712,60920010e7bfd828a698e5dd,6560176e4d91f764e2a42c74,657158a0152a70f66ac313cf,0.2075,0.2079,1,16,178,109,1,seveneight,,,,,,,,,,,,,,,,,,,,,,,,,,,,,,,,,,,,,,,,,,,,,,,,,,,,,,,,,,,,,,,,,,,,,,,,,,,,,,,,,,,,,,,,,,,,,,,,,,,,,,,,,,,,,,,,,,,,,,,,,,,,,,,,,,,,,,,
,,60920010e7bfd828a698e5dd,2023-12-06_23h31.52.384,kallum_motion_pilot,2023.2.3,Win32,60.38282712,60920010e7bfd828a698e5dd,6560176e4d91f764e2a42c74,657158a0152a70f66ac313cf,0.2084,0.2092,1,17,179,119,1,eightseven,,,,,,,,,,,,,,,,,,,,,,,,,,,,,,,,,,,,,,,,,,,,,,,,,,,,,,,,,,,,,,,,,,,,,,,,,,,,,,,,,,,,,,,,,,,,,,,,,,,,,,,,,,,,,,,,,,,,,,,,,,,,,,,,,,,,,,,
,,60920010e7bfd828a698e5dd,2023-12-06_23h31.52.384,kallum_motion_pilot,2023.2.3,Win32,60.38282712,60920010e7bfd828a698e5dd,6560176e4d91f764e2a42c74,657158a0152a70f66ac313cf,0.2096,0.2102,1,18,180,121,1,fiveseven,,,,,,,,,,,,,,,,,,,,,,,,,,,,,,,,,,,,,,,,,,,,,,,,,,,,,,,,,,,,,,,,,,,,,,,,,,,,,,,,,,,,,,,,,,,,,,,,,,,,,,,,,,,,,,,,,,,,,,,,,,,,,,,,,,,,,,,
,,60920010e7bfd828a698e5dd,2023-12-06_23h31.52.384,kallum_motion_pilot,2023.2.3,Win32,60.38282712,60920010e7bfd828a698e5dd,6560176e4d91f764e2a42c74,657158a0152a70f66ac313cf,0.2105,0.211,1,19,181,129,1,fiveseven,,,,,,,,,,,,,,,,,,,,,,,,,,,,,,,,,,,,,,,,,,,,,,,,,,,,,,,,,,,,,,,,,,,,,,,,,,,,,,,,,,,,,,,,,,,,,,,,,,,,,,,,,,,,,,,,,,,,,,,,,,,,,,,,,,,,,,,
,,60920010e7bfd828a698e5dd,2023-12-06_23h31.52.384,kallum_motion_pilot,2023.2.3,Win32,60.38282712,60920010e7bfd828a698e5dd,6560176e4d91f764e2a42c74,657158a0152a70f66ac313cf,0.2114,0.2118,1,20,182,9,1,onethree,,,,,,,,,,,,,,,,,,,,,,,,,,,,,,,,,,,,,,,,,,,,,,,,,,,,,,,,,,,,,,,,,,,,,,,,,,,,,,,,,,,,,,,,,,,,,,,,,,,,,,,,,,,,,,,,,,,,,,,,,,,,,,,,,,,,,,,
,,60920010e7bfd828a698e5dd,2023-12-06_23h31.52.384,kallum_motion_pilot,2023.2.3,Win32,60.38282712,60920010e7bfd828a698e5dd,6560176e4d91f764e2a42c74,657158a0152a70f66ac313cf,0.2129,0.2132,1,21,183,73,1,onethree,,,,,,,,,,,,,,,,,,,,,,,,,,,,,,,,,,,,,,,,,,,,,,,,,,,,,,,,,,,,,,,,,,,,,,,,,,,,,,,,,,,,,,,,,,,,,,,,,,,,,,,,,,,,,,,,,,,,,,,,,,,,,,,,,,,,,,,
,,60920010e7bfd828a698e5dd,2023-12-06_23h31.52.384,kallum_motion_pilot,2023.2.3,Win32,60.38282712,60920010e7bfd828a698e5dd,6560176e4d91f764e2a42c74,657158a0152a70f66ac313cf,0.2138,0.2142,1,22,184,103,1,eightseven,,,,,,,,,,,,,,,,,,,,,,,,,,,,,,,,,,,,,,,,,,,,,,,,,,,,,,,,,,,,,,,,,,,,,,,,,,,,,,,,,,,,,,,,,,,,,,,,,,,,,,,,,,,,,,,,,,,,,,,,,,,,,,,,,,,,,,,
,,60920010e7bfd828a698e5dd,2023-12-06_23h31.52.384,kallum_motion_pilot,2023.2.3,Win32,60.38282712,60920010e7bfd828a698e5dd,6560176e4d91f764e2a42c74,657158a0152a70f66ac313cf,0.2146,0.2151,1,23,185,110,1,eightsix,,,,,,,,,,,,,,,,,,,,,,,,,,,,,,,,,,,,,,,,,,,,,,,,,,,,,,,,,,,,,,,,,,,,,,,,,,,,,,,,,,,,,,,,,,,,,,,,,,,,,,,,,,,,,,,,,,,,,,,,,,,,,,,,,,,,,,,
,,60920010e7bfd828a698e5dd,2023-12-06_23h31.52.384,kallum_motion_pilot,2023.2.3,Win32,60.38282712,60920010e7bfd828a698e5dd,6560176e4d91f764e2a42c74,657158a0152a70f66ac313cf,0.2156,0.2159,1,24,186,26,1,twoone,,,,,,,,,,,,,,,,,,,,,,,,,,,,,,,,,,,,,,,,,,,,,,,,,,,,,,,,,,,,,,,,,,,,,,,,,,,,,,,,,,,,,,,,,,,,,,,,,,,,,,,,,,,,,,,,,,,,,,,,,,,,,,,,,,,,,,,
,,60920010e7bfd828a698e5dd,2023-12-06_23h31.52.384,kallum_motion_pilot,2023.2.3,Win32,60.38282712,60920010e7bfd828a698e5dd,6560176e4d91f764e2a42c74,657158a0152a70f66ac313cf,0.2165,0.2169,1,25,187,74,1,twoone,,,,,,,,,,,,,,,,,,,,,,,,,,,,,,,,,,,,,,,,,,,,,,,,,,,,,,,,,,,,,,,,,,,,,,,,,,,,,,,,,,,,,,,,,,,,,,,,,,,,,,,,,,,,,,,,,,,,,,,,,,,,,,,,,,,,,,,
,,60920010e7bfd828a698e5dd,2023-12-06_23h31.52.384,kallum_motion_pilot,2023.2.3,Win32,60.38282712,60920010e7bfd828a698e5dd,6560176e4d91f764e2a42c74,657158a0152a70f66ac313cf,0.2173,0.2178,1,26,188,17,1,onethree,,,,,,,,,,,,,,,,,,,,,,,,,,,,,,,,,,,,,,,,,,,,,,,,,,,,,,,,,,,,,,,,,,,,,,,,,,,,,,,,,,,,,,,,,,,,,,,,,,,,,,,,,,,,,,,,,,,,,,,,,,,,,,,,,,,,,,,
,,60920010e7bfd828a698e5dd,2023-12-06_23h31.52.384,kallum_motion_pilot,2023.2.3,Win32,60.38282712,60920010e7bfd828a698e5dd,6560176e4d91f764e2a42c74,657158a0152a70f66ac313cf,0.2184,0.2189,1,27,189,68,1,threeone,,,,,,,,,,,,,,,,,,,,,,,,,,,,,,,,,,,,,,,,,,,,,,,,,,,,,,,,,,,,,,,,,,,,,,,,,,,,,,,,,,,,,,,,,,,,,,,,,,,,,,,,,,,,,,,,,,,,,,,,,,,,,,,,,,,,,,,
,,60920010e7bfd828a698e5dd,2023-12-06_23h31.52.384,kallum_motion_pilot,2023.2.3,Win32,60.38282712,60920010e7bfd828a698e5dd,6560176e4d91f764e2a42c74,657158a0152a70f66ac313cf,0.2196,0.2199,1,28,190,42,1,twoone,,,,,,,,,,,,,,,,,,,,,,,,,,,,,,,,,,,,,,,,,,,,,,,,,,,,,,,,,,,,,,,,,,,,,,,,,,,,,,,,,,,,,,,,,,,,,,,,,,,,,,,,,,,,,,,,,,,,,,,,,,,,,,,,,,,,,,,
,,60920010e7bfd828a698e5dd,2023-12-06_23h31.52.384,kallum_motion_pilot,2023.2.3,Win32,60.38282712,60920010e7bfd828a698e5dd,6560176e4d91f764e2a42c74,657158a0152a70f66ac313cf,0.2204,0.2208,1,29,191,161,1,fiveseven,,,,,,,,,,,,,,,,,,,,,,,,,,,,,,,,,,,,,,,,,,,,,,,,,,,,,,,,,,,,,,,,,,,,,,,,,,,,,,,,,,,,,,,,,,,,,,,,,,,,,,,,,,,,,,,,,,,,,,,,,,,,,,,,,,,,,,,
,,60920010e7bfd828a698e5dd,2023-12-06_23h31.52.384,kallum_motion_pilot,2023.2.3,Win32,60.38282712,60920010e7bfd828a698e5dd,6560176e4d91f764e2a42c74,657158a0152a70f66ac313cf,0.2213,0.2216,1,30,192,150,1,eightsix,,,,,,,,,,,,,,,,,,,,,,,,,,,,,,,,,,,,,,,,,,,,,,,,,,,,,,,,,,,,,,,,,,,,,,,,,,,,,,,,,,,,,,,,,,,,,,,,,,,,,,,,,,,,,,,,,,,,,,,,,,,,,,,,,,,,,,,
,,60920010e7bfd828a698e5dd,2023-12-06_23h31.52.384,kallum_motion_pilot,2023.2.3,Win32,60.38282712,60920010e7bfd828a698e5dd,6560176e4d91f764e2a42c74,657158a0152a70f66ac313cf,0.222,0.2225,1,31,193,99,1,sixeight,,,,,,,,,,,,,,,,,,,,,,,,,,,,,,,,,,,,,,,,,,,,,,,,,,,,,,,,,,,,,,,,,,,,,,,,,,,,,,,,,,,,,,,,,,,,,,,,,,,,,,,,,,,,,,,,,,,,,,,,,,,,,,,,,,,,,,,
,,60920010e7bfd828a698e5dd,2023-12-06_23h31.52.384,kallum_motion_pilot,2023.2.3,Win32,60.38282712,60920010e7bfd828a698e5dd,6560176e4d91f764e2a42c74,657158a0152a70f66ac313cf,0.2229,0.2234,1,32,194,152,1,fivesix,,,,,,,,,,,,,,,,,,,,,,,,,,,,,,,,,,,,,,,,,,,,,,,,,,,,,,,,,,,,,,,,,,,,,,,,,,,,,,,,,,,,,,,,,,,,,,,,,,,,,,,,,,,,,,,,,,,,,,,,,,,,,,,,,,,,,,,
,,60920010e7bfd828a698e5dd,2023-12-06_23h31.52.384,kallum_motion_pilot,2023.2.3,Win32,60.38282712,60920010e7bfd828a698e5dd,6560176e4d91f764e2a42c74,657158a0152a70f66ac313cf,0.2239,0.2242,1,33,195,54,1,fourtwo,,,,,,,,,,,,,,,,,,,,,,,,,,,,,,,,,,,,,,,,,,,,,,,,,,,,,,,,,,,,,,,,,,,,,,,,,,,,,,,,,,,,,,,,,,,,,,,,,,,,,,,,,,,,,,,,,,,,,,,,,,,,,,,,,,,,,,,
,,60920010e7bfd828a698e5dd,2023-12-06_23h31.52.384,kallum_motion_pilot,2023.2.3,Win32,60.38282712,60920010e7bfd828a698e5dd,6560176e4d91f764e2a42c74,657158a0152a70f66ac313cf,0.2247,0.2251,1,34,196,83,1,sixeight,,,,,,,,,,,,,,,,,,,,,,,,,,,,,,,,,,,,,,,,,,,,,,,,,,,,,,,,,,,,,,,,,,,,,,,,,,,,,,,,,,,,,,,,,,,,,,,,,,,,,,,,,,,,,,,,,,,,,,,,,,,,,,,,,,,,,,,
,,60920010e7bfd828a698e5dd,2023-12-06_23h31.52.384,kallum_motion_pilot,2023.2.3,Win32,60.38282712,60920010e7bfd828a698e5dd,6560176e4d91f764e2a42c74,657158a0152a70f66ac313cf,0.2258,0.226,1,35,197,62,1,fourtwo,,,,,,,,,,,,,,,,,,,,,,,,,,,,,,,,,,,,,,,,,,,,,,,,,,,,,,,,,,,,,,,,,,,,,,,,,,,,,,,,,,,,,,,,,,,,,,,,,,,,,,,,,,,,,,,,,,,,,,,,,,,,,,,,,,,,,,,
,,60920010e7bfd828a698e5dd,2023-12-06_23h31.52.384,kallum_motion_pilot,2023.2.3,Win32,60.38282712,60920010e7bfd828a698e5dd,6560176e4d91f764e2a42c74,657158a0152a70f66ac313cf,0.2266,0.2269,1,36,198,117,1,seveneight,,,,,,,,,,,,,,,,,,,,,,,,,,,,,,,,,,,,,,,,,,,,,,,,,,,,,,,,,,,,,,,,,,,,,,,,,,,,,,,,,,,,,,,,,,,,,,,,,,,,,,,,,,,,,,,,,,,,,,,,,,,,,,,,,,,,,,,
,,60920010e7bfd828a698e5dd,2023-12-06_23h31.52.384,kallum_motion_pilot,2023.2.3,Win32,60.38282712,60920010e7bfd828a698e5dd,6560176e4d91f764e2a42c74,657158a0152a70f66ac313cf,0.2274,0.2278,1,37,199,107,1,sixeight,,,,,,,,,,,,,,,,,,,,,,,,,,,,,,,,,,,,,,,,,,,,,,,,,,,,,,,,,,,,,,,,,,,,,,,,,,,,,,,,,,,,,,,,,,,,,,,,,,,,,,,,,,,,,,,,,,,,,,,,,,,,,,,,,,,,,,,
,,60920010e7bfd828a698e5dd,2023-12-06_23h31.52.384,kallum_motion_pilot,2023.2.3,Win32,60.38282712,60920010e7bfd828a698e5dd,6560176e4d91f764e2a42c74,657158a0152a70f66ac313cf,0.2283,0.229,1,38,200,130,1,sixfive,,,,,,,,,,,,,,,,,,,,,,,,,,,,,,,,,,,,,,,,,,,,,,,,,,,,,,,,,,,,,,,,,,,,,,,,,,,,,,,,,,,,,,,,,,,,,,,,,,,,,,,,,,,,,,,,,,,,,,,,,,,,,,,,,,,,,,,
,,60920010e7bfd828a698e5dd,2023-12-06_23h31.52.384,kallum_motion_pilot,2023.2.3,Win32,60.38282712,60920010e7bfd828a698e5dd,6560176e4d91f764e2a42c74,657158a0152a70f66ac313cf,0.23,0.2304,1,39,201,33,1,onethree,,,,,,,,,,,,,,,,,,,,,,,,,,,,,,,,,,,,,,,,,,,,,,,,,,,,,,,,,,,,,,,,,,,,,,,,,,,,,,,,,,,,,,,,,,,,,,,,,,,,,,,,,,,,,,,,,,,,,,,,,,,,,,,,,,,,,,,
,,60920010e7bfd828a698e5dd,2023-12-06_23h31.52.384,kallum_motion_pilot,2023.2.3,Win32,60.38282712,60920010e7bfd828a698e5dd,6560176e4d91f764e2a42c74,657158a0152a70f66ac313cf,0.2309,0.2312,1,40,202,10,1,twoone,,,,,,,,,,,,,,,,,,,,,,,,,,,,,,,,,,,,,,,,,,,,,,,,,,,,,,,,,,,,,,,,,,,,,,,,,,,,,,,,,,,,,,,,,,,,,,,,,,,,,,,,,,,,,,,,,,,,,,,,,,,,,,,,,,,,,,,
,,60920010e7bfd828a698e5dd,2023-12-06_23h31.52.384,kallum_motion_pilot,2023.2.3,Win32,60.38282712,60920010e7bfd828a698e5dd,6560176e4d91f764e2a42c74,657158a0152a70f66ac313cf,0.2316,0.2321,1,41,203,44,1,threeone,,,,,,,,,,,,,,,,,,,,,,,,,,,,,,,,,,,,,,,,,,,,,,,,,,,,,,,,,,,,,,,,,,,,,,,,,,,,,,,,,,,,,,,,,,,,,,,,,,,,,,,,,,,,,,,,,,,,,,,,,,,,,,,,,,,,,,,
,,60920010e7bfd828a698e5dd,2023-12-06_23h31.52.384,kallum_motion_pilot,2023.2.3,Win32,60.38282712,60920010e7bfd828a698e5dd,6560176e4d91f764e2a42c74,657158a0152a70f66ac313cf,0.2324,0.2329,1,42,204,40,1,onetwo,,,,,,,,,,,,,,,,,,,,,,,,,,,,,,,,,,,,,,,,,,,,,,,,,,,,,,,,,,,,,,,,,,,,,,,,,,,,,,,,,,,,,,,,,,,,,,,,,,,,,,,,,,,,,,,,,,,,,,,,,,,,,,,,,,,,,,,
,,60920010e7bfd828a698e5dd,2023-12-06_23h31.52.384,kallum_motion_pilot,2023.2.3,Win32,60.38282712,60920010e7bfd828a698e5dd,6560176e4d91f764e2a42c74,657158a0152a70f66ac313cf,0.2332,0.2337,1,43,205,82,1,sixfive,,,,,,,,,,,,,,,,,,,,,,,,,,,,,,,,,,,,,,,,,,,,,,,,,,,,,,,,,,,,,,,,,,,,,,,,,,,,,,,,,,,,,,,,,,,,,,,,,,,,,,,,,,,,,,,,,,,,,,,,,,,,,,,,,,,,,,,
,,60920010e7bfd828a698e5dd,2023-12-06_23h31.52.384,kallum_motion_pilot,2023.2.3,Win32,60.38282712,60920010e7bfd828a698e5dd,6560176e4d91f764e2a42c74,657158a0152a70f66ac313cf,0.2341,0.2345,1,44,206,141,1,seveneight,,,,,,,,,,,,,,,,,,,,,,,,,,,,,,,,,,,,,,,,,,,,,,,,,,,,,,,,,,,,,,,,,,,,,,,,,,,,,,,,,,,,,,,,,,,,,,,,,,,,,,,,,,,,,,,,,,,,,,,,,,,,,,,,,,,,,,,
,,60920010e7bfd828a698e5dd,2023-12-06_23h31.52.384,kallum_motion_pilot,2023.2.3,Win32,60.38282712,60920010e7bfd828a698e5dd,6560176e4d91f764e2a42c74,657158a0152a70f66ac313cf,0.2351,0.2355,1,45,207,100,1,sevenfive,,,,,,,,,,,,,,,,,,,,,,,,,,,,,,,,,,,,,,,,,,,,,,,,,,,,,,,,,,,,,,,,,,,,,,,,,,,,,,,,,,,,,,,,,,,,,,,,,,,,,,,,,,,,,,,,,,,,,,,,,,,,,,,,,,,,,,,
,,60920010e7bfd828a698e5dd,2023-12-06_23h31.52.384,kallum_motion_pilot,2023.2.3,Win32,60.38282712,60920010e7bfd828a698e5dd,6560176e4d91f764e2a42c74,657158a0152a70f66ac313cf,0.2359,0.2363,1,46,208,132,1,sevenfive,,,,,,,,,,,,,,,,,,,,,,,,,,,,,,,,,,,,,,,,,,,,,,,,,,,,,,,,,,,,,,,,,,,,,,,,,,,,,,,,,,,,,,,,,,,,,,,,,,,,,,,,,,,,,,,,,,,,,,,,,,,,,,,,,,,,,,,
,,60920010e7bfd828a698e5dd,2023-12-06_23h31.52.384,kallum_motion_pilot,2023.2.3,Win32,60.38282712,60920010e7bfd828a698e5dd,6560176e4d91f764e2a42c74,657158a0152a70f66ac313cf,0.2367,0.2372,1,47,209,57,1,onethree,,,,,,,,,,,,,,,,,,,,,,,,,,,,,,,,,,,,,,,,,,,,,,,,,,,,,,,,,,,,,,,,,,,,,,,,,,,,,,,,,,,,,,,,,,,,,,,,,,,,,,,,,,,,,,,,,,,,,,,,,,,,,,,,,,,,,,,
,,60920010e7bfd828a698e5dd,2023-12-06_23h31.52.384,kallum_motion_pilot,2023.2.3,Win32,60.38282712,60920010e7bfd828a698e5dd,6560176e4d91f764e2a42c74,657158a0152a70f66ac313cf,0.2377,0.2382,1,48,210,46,1,fourtwo,,,,,,,,,,,,,,,,,,,,,,,,,,,,,,,,,,,,,,,,,,,,,,,,,,,,,,,,,,,,,,,,,,,,,,,,,,,,,,,,,,,,,,,,,,,,,,,,,,,,,,,,,,,,,,,,,,,,,,,,,,,,,,,,,,,,,,,
,,60920010e7bfd828a698e5dd,2023-12-06_23h31.52.384,kallum_motion_pilot,2023.2.3,Win32,60.38282712,60920010e7bfd828a698e5dd,6560176e4d91f764e2a42c74,657158a0152a70f66ac313cf,0.2386,0.2391,1,49,211,56,1,onetwo,,,,,,,,,,,,,,,,,,,,,,,,,,,,,,,,,,,,,,,,,,,,,,,,,,,,,,,,,,,,,,,,,,,,,,,,,,,,,,,,,,,,,,,,,,,,,,,,,,,,,,,,,,,,,,,,,,,,,,,,,,,,,,,,,,,,,,,
,,60920010e7bfd828a698e5dd,2023-12-06_23h31.52.384,kallum_motion_pilot,2023.2.3,Win32,60.38282712,60920010e7bfd828a698e5dd,6560176e4d91f764e2a42c74,657158a0152a70f66ac313cf,0.2401,0.2404,1,50,212,145,1,fiveseven,,,,,,,,,,,,,,,,,,,,,,,,,,,,,,,,,,,,,,,,,,,,,,,,,,,,,,,,,,,,,,,,,,,,,,,,,,,,,,,,,,,,,,,,,,,,,,,,,,,,,,,,,,,,,,,,,,,,,,,,,,,,,,,,,,,,,,,
,,60920010e7bfd828a698e5dd,2023-12-06_23h31.52.384,kallum_motion_pilot,2023.2.3,Win32,60.38282712,60920010e7bfd828a698e5dd,6560176e4d91f764e2a42c74,657158a0152a70f66ac313cf,0.2409,0.2412,1,51,213,111,1,eightseven,,,,,,,,,,,,,,,,,,,,,,,,,,,,,,,,,,,,,,,,,,,,,,,,,,,,,,,,,,,,,,,,,,,,,,,,,,,,,,,,,,,,,,,,,,,,,,,,,,,,,,,,,,,,,,,,,,,,,,,,,,,,,,,,,,,,,,,
,,60920010e7bfd828a698e5dd,2023-12-06_23h31.52.384,kallum_motion_pilot,2023.2.3,Win32,60.38282712,60920010e7bfd828a698e5dd,6560176e4d91f764e2a42c74,657158a0152a70f66ac313cf,0.2417,0.242,1,52,214,19,1,twofour,,,,,,,,,,,,,,,,,,,,,,,,,,,,,,,,,,,,,,,,,,,,,,,,,,,,,,,,,,,,,,,,,,,,,,,,,,,,,,,,,,,,,,,,,,,,,,,,,,,,,,,,,,,,,,,,,,,,,,,,,,,,,,,,,,,,,,,
,,60920010e7bfd828a698e5dd,2023-12-06_23h31.52.384,kallum_motion_pilot,2023.2.3,Win32,60.38282712,60920010e7bfd828a698e5dd,6560176e4d91f764e2a42c74,657158a0152a70f66ac313cf,0.2425,0.2429,1,53,215,2,1,twoone,,,,,,,,,,,,,,,,,,,,,,,,,,,,,,,,,,,,,,,,,,,,,,,,,,,,,,,,,,,,,,,,,,,,,,,,,,,,,,,,,,,,,,,,,,,,,,,,,,,,,,,,,,,,,,,,,,,,,,,,,,,,,,,,,,,,,,,
,,60920010e7bfd828a698e5dd,2023-12-06_23h31.52.384,kallum_motion_pilot,2023.2.3,Win32,60.38282712,60920010e7bfd828a698e5dd,6560176e4d91f764e2a42c74,657158a0152a70f66ac313cf,0.2434,0.2438,1,54,216,45,1,threefour,,,,,,,,,,,,,,,,,,,,,,,,,,,,,,,,,,,,,,,,,,,,,,,,,,,,,,,,,,,,,,,,,,,,,,,,,,,,,,,,,,,,,,,,,,,,,,,,,,,,,,,,,,,,,,,,,,,,,,,,,,,,,,,,,,,,,,,
,,60920010e7bfd828a698e5dd,2023-12-06_23h31.52.384,kallum_motion_pilot,2023.2.3,Win32,60.38282712,60920010e7bfd828a698e5dd,6560176e4d91f764e2a42c74,657158a0152a70f66ac313cf,0.2459,0.2461,1,55,217,155,1,sixeight,,,,,,,,,,,,,,,,,,,,,,,,,,,,,,,,,,,,,,,,,,,,,,,,,,,,,,,,,,,,,,,,,,,,,,,,,,,,,,,,,,,,,,,,,,,,,,,,,,,,,,,,,,,,,,,,,,,,,,,,,,,,,,,,,,,,,,,
,,60920010e7bfd828a698e5dd,2023-12-06_23h31.52.384,kallum_motion_pilot,2023.2.3,Win32,60.38282712,60920010e7bfd828a698e5dd,6560176e4d91f764e2a42c74,657158a0152a70f66ac313cf,0.2467,0.247,1,56,218,123,1,sixeight,,,,,,,,,,,,,,,,,,,,,,,,,,,,,,,,,,,,,,,,,,,,,,,,,,,,,,,,,,,,,,,,,,,,,,,,,,,,,,,,,,,,,,,,,,,,,,,,,,,,,,,,,,,,,,,,,,,,,,,,,,,,,,,,,,,,,,,
,,60920010e7bfd828a698e5dd,2023-12-06_23h31.52.384,kallum_motion_pilot,2023.2.3,Win32,60.38282712,60920010e7bfd828a698e5dd,6560176e4d91f764e2a42c74,657158a0152a70f66ac313cf,0.2477,0.248,1,57,219,41,1,onethree,,,,,,,,,,,,,,,,,,,,,,,,,,,,,,,,,,,,,,,,,,,,,,,,,,,,,,,,,,,,,,,,,,,,,,,,,,,,,,,,,,,,,,,,,,,,,,,,,,,,,,,,,,,,,,,,,,,,,,,,,,,,,,,,,,,,,,,
,,60920010e7bfd828a698e5dd,2023-12-06_23h31.52.384,kallum_motion_pilot,2023.2.3,Win32,60.38282712,60920010e7bfd828a698e5dd,6560176e4d91f764e2a42c74,657158a0152a70f66ac313cf,0.249,0.25,1,58,220,142,1,eightsix,,,,,,,,,,,,,,,,,,,,,,,,,,,,,,,,,,,,,,,,,,,,,,,,,,,,,,,,,,,,,,,,,,,,,,,,,,,,,,,,,,,,,,,,,,,,,,,,,,,,,,,,,,,,,,,,,,,,,,,,,,,,,,,,,,,,,,,
,,60920010e7bfd828a698e5dd,2023-12-06_23h31.52.384,kallum_motion_pilot,2023.2.3,Win32,60.38282712,60920010e7bfd828a698e5dd,6560176e4d91f764e2a42c74,657158a0152a70f66ac313cf,0.2505,0.251,1,59,221,64,1,onetwo,,,,,,,,,,,,,,,,,,,,,,,,,,,,,,,,,,,,,,,,,,,,,,,,,,,,,,,,,,,,,,,,,,,,,,,,,,,,,,,,,,,,,,,,,,,,,,,,,,,,,,,,,,,,,,,,,,,,,,,,,,,,,,,,,,,,,,,
,,60920010e7bfd828a698e5dd,2023-12-06_23h31.52.384,kallum_motion_pilot,2023.2.3,Win32,60.38282712,60920010e7bfd828a698e5dd,6560176e4d91f764e2a42c74,657158a0152a70f66ac313cf,0.2514,0.2518,1,60,222,5,1,threefour,,,,,,,,,,,,,,,,,,,,,,,,,,,,,,,,,,,,,,,,,,,,,,,,,,,,,,,,,,,,,,,,,,,,,,,,,,,,,,,,,,,,,,,,,,,,,,,,,,,,,,,,,,,,,,,,,,,,,,,,,,,,,,,,,,,,,,,
,,60920010e7bfd828a698e5dd,2023-12-06_23h31.52.384,kallum_motion_pilot,2023.2.3,Win32,60.38282712,60920010e7bfd828a698e5dd,6560176e4d91f764e2a42c74,657158a0152a70f66ac313cf,0.2523,0.2527,1,61,223,104,1,fivesix,,,,,,,,,,,,,,,,,,,,,,,,,,,,,,,,,,,,,,,,,,,,,,,,,,,,,,,,,,,,,,,,,,,,,,,,,,,,,,,,,,,,,,,,,,,,,,,,,,,,,,,,,,,,,,,,,,,,,,,,,,,,,,,,,,,,,,,
,,60920010e7bfd828a698e5dd,2023-12-06_23h31.52.384,kallum_motion_pilot,2023.2.3,Win32,60.38282712,60920010e7bfd828a698e5dd,6560176e4d91f764e2a42c74,657158a0152a70f66ac313cf,0.2535,0.2537,1,62,224,158,1,eightsix,,,,,,,,,,,,,,,,,,,,,,,,,,,,,,,,,,,,,,,,,,,,,,,,,,,,,,,,,,,,,,,,,,,,,,,,,,,,,,,,,,,,,,,,,,,,,,,,,,,,,,,,,,,,,,,,,,,,,,,,,,,,,,,,,,,,,,,
,,60920010e7bfd828a698e5dd,2023-12-06_23h31.52.384,kallum_motion_pilot,2023.2.3,Win32,60.38282712,60920010e7bfd828a698e5dd,6560176e4d91f764e2a42c74,657158a0152a70f66ac313cf,0.2543,0.2545,1,63,225,21,1,threefour,,,,,,,,,,,,,,,,,,,,,,,,,,,,,,,,,,,,,,,,,,,,,,,,,,,,,,,,,,,,,,,,,,,,,,,,,,,,,,,,,,,,,,,,,,,,,,,,,,,,,,,,,,,,,,,,,,,,,,,,,,,,,,,,,,,,,,,
,,60920010e7bfd828a698e5dd,2023-12-06_23h31.52.384,kallum_motion_pilot,2023.2.3,Win32,60.38282712,60920010e7bfd828a698e5dd,6560176e4d91f764e2a42c74,657158a0152a70f66ac313cf,0.255,0.2556,1,64,226,127,1,eightseven,,,,,,,,,,,,,,,,,,,,,,,,,,,,,,,,,,,,,,,,,,,,,,,,,,,,,,,,,,,,,,,,,,,,,,,,,,,,,,,,,,,,,,,,,,,,,,,,,,,,,,,,,,,,,,,,,,,,,,,,,,,,,,,,,,,,,,,
,,60920010e7bfd828a698e5dd,2023-12-06_23h31.52.384,kallum_motion_pilot,2023.2.3,Win32,60.38282712,60920010e7bfd828a698e5dd,6560176e4d91f764e2a42c74,657158a0152a70f66ac313cf,0.256,0.2563,1,65,227,144,1,fivesix,,,,,,,,,,,,,,,,,,,,,,,,,,,,,,,,,,,,,,,,,,,,,,,,,,,,,,,,,,,,,,,,,,,,,,,,,,,,,,,,,,,,,,,,,,,,,,,,,,,,,,,,,,,,,,,,,,,,,,,,,,,,,,,,,,,,,,,
,,60920010e7bfd828a698e5dd,2023-12-06_23h31.52.384,kallum_motion_pilot,2023.2.3,Win32,60.38282712,60920010e7bfd828a698e5dd,6560176e4d91f764e2a42c74,657158a0152a70f66ac313cf,0.2569,0.2572,1,66,228,8,1,onetwo,,,,,,,,,,,,,,,,,,,,,,,,,,,,,,,,,,,,,,,,,,,,,,,,,,,,,,,,,,,,,,,,,,,,,,,,,,,,,,,,,,,,,,,,,,,,,,,,,,,,,,,,,,,,,,,,,,,,,,,,,,,,,,,,,,,,,,,
,,60920010e7bfd828a698e5dd,2023-12-06_23h31.52.384,kallum_motion_pilot,2023.2.3,Win32,60.38282712,60920010e7bfd828a698e5dd,6560176e4d91f764e2a42c74,657158a0152a70f66ac313cf,0.2578,0.2582,1,67,229,12,1,threeone,,,,,,,,,,,,,,,,,,,,,,,,,,,,,,,,,,,,,,,,,,,,,,,,,,,,,,,,,,,,,,,,,,,,,,,,,,,,,,,,,,,,,,,,,,,,,,,,,,,,,,,,,,,,,,,,,,,,,,,,,,,,,,,,,,,,,,,
,,60920010e7bfd828a698e5dd,2023-12-06_23h31.52.384,kallum_motion_pilot,2023.2.3,Win32,60.38282712,60920010e7bfd828a698e5dd,6560176e4d91f764e2a42c74,657158a0152a70f66ac313cf,0.2587,0.2589,1,68,230,60,1,threeone,,,,,,,,,,,,,,,,,,,,,,,,,,,,,,,,,,,,,,,,,,,,,,,,,,,,,,,,,,,,,,,,,,,,,,,,,,,,,,,,,,,,,,,,,,,,,,,,,,,,,,,,,,,,,,,,,,,,,,,,,,,,,,,,,,,,,,,
,,60920010e7bfd828a698e5dd,2023-12-06_23h31.52.384,kallum_motion_pilot,2023.2.3,Win32,60.38282712,60920010e7bfd828a698e5dd,6560176e4d91f764e2a42c74,657158a0152a70f66ac313cf,0.2595,0.2598,1,69,231,1,1,onethree,,,,,,,,,,,,,,,,,,,,,,,,,,,,,,,,,,,,,,,,,,,,,,,,,,,,,,,,,,,,,,,,,,,,,,,,,,,,,,,,,,,,,,,,,,,,,,,,,,,,,,,,,,,,,,,,,,,,,,,,,,,,,,,,,,,,,,,
,,60920010e7bfd828a698e5dd,2023-12-06_23h31.52.384,kallum_motion_pilot,2023.2.3,Win32,60.38282712,60920010e7bfd828a698e5dd,6560176e4d91f764e2a42c74,657158a0152a70f66ac313cf,0.261,0.2615,1,70,232,81,1,fiveseven,,,,,,,,,,,,,,,,,,,,,,,,,,,,,,,,,,,,,,,,,,,,,,,,,,,,,,,,,,,,,,,,,,,,,,,,,,,,,,,,,,,,,,,,,,,,,,,,,,,,,,,,,,,,,,,,,,,,,,,,,,,,,,,,,,,,,,,
,,60920010e7bfd828a698e5dd,2023-12-06_23h31.52.384,kallum_motion_pilot,2023.2.3,Win32,60.38282712,60920010e7bfd828a698e5dd,6560176e4d91f764e2a42c74,657158a0152a70f66ac313cf,0.2626,0.2636,1,71,233,143,1,eightseven,,,,,,,,,,,,,,,,,,,,,,,,,,,,,,,,,,,,,,,,,,,,,,,,,,,,,,,,,,,,,,,,,,,,,,,,,,,,,,,,,,,,,,,,,,,,,,,,,,,,,,,,,,,,,,,,,,,,,,,,,,,,,,,,,,,,,,,
,,60920010e7bfd828a698e5dd,2023-12-06_23h31.52.384,kallum_motion_pilot,2023.2.3,Win32,60.38282712,60920010e7bfd828a698e5dd,6560176e4d91f764e2a42c74,657158a0152a70f66ac313cf,0.2644,0.2651,1,72,234,29,1,threefour,,,,,,,,,,,,,,,,,,,,,,,,,,,,,,,,,,,,,,,,,,,,,,,,,,,,,,,,,,,,,,,,,,,,,,,,,,,,,,,,,,,,,,,,,,,,,,,,,,,,,,,,,,,,,,,,,,,,,,,,,,,,,,,,,,,,,,,
,,60920010e7bfd828a698e5dd,2023-12-06_23h31.52.384,kallum_motion_pilot,2023.2.3,Win32,60.38282712,60920010e7bfd828a698e5dd,6560176e4d91f764e2a42c74,657158a0152a70f66ac313cf,0.266,0.2667,1,73,235,159,1,eightseven,,,,,,,,,,,,,,,,,,,,,,,,,,,,,,,,,,,,,,,,,,,,,,,,,,,,,,,,,,,,,,,,,,,,,,,,,,,,,,,,,,,,,,,,,,,,,,,,,,,,,,,,,,,,,,,,,,,,,,,,,,,,,,,,,,,,,,,
,,60920010e7bfd828a698e5dd,2023-12-06_23h31.52.384,kallum_motion_pilot,2023.2.3,Win32,60.38282712,60920010e7bfd828a698e5dd,6560176e4d91f764e2a42c74,657158a0152a70f66ac313cf,0.2675,0.2682,1,74,236,75,1,twofour,,,,,,,,,,,,,,,,,,,,,,,,,,,,,,,,,,,,,,,,,,,,,,,,,,,,,,,,,,,,,,,,,,,,,,,,,,,,,,,,,,,,,,,,,,,,,,,,,,,,,,,,,,,,,,,,,,,,,,,,,,,,,,,,,,,,,,,
,,60920010e7bfd828a698e5dd,2023-12-06_23h31.52.384,kallum_motion_pilot,2023.2.3,Win32,60.38282712,60920010e7bfd828a698e5dd,6560176e4d91f764e2a42c74,657158a0152a70f66ac313cf,0.2707,0.2714,1,75,237,113,1,fiveseven,,,,,,,,,,,,,,,,,,,,,,,,,,,,,,,,,,,,,,,,,,,,,,,,,,,,,,,,,,,,,,,,,,,,,,,,,,,,,,,,,,,,,,,,,,,,,,,,,,,,,,,,,,,,,,,,,,,,,,,,,,,,,,,,,,,,,,,
,,60920010e7bfd828a698e5dd,2023-12-06_23h31.52.384,kallum_motion_pilot,2023.2.3,Win32,60.38282712,60920010e7bfd828a698e5dd,6560176e4d91f764e2a42c74,657158a0152a70f66ac313cf,0.2718,0.2723,1,76,238,95,1,eightseven,,,,,,,,,,,,,,,,,,,,,,,,,,,,,,,,,,,,,,,,,,,,,,,,,,,,,,,,,,,,,,,,,,,,,,,,,,,,,,,,,,,,,,,,,,,,,,,,,,,,,,,,,,,,,,,,,,,,,,,,,,,,,,,,,,,,,,,
,,60920010e7bfd828a698e5dd,2023-12-06_23h31.52.384,kallum_motion_pilot,2023.2.3,Win32,60.38282712,60920010e7bfd828a698e5dd,6560176e4d91f764e2a42c74,657158a0152a70f66ac313cf,0.273,0.2733,1,77,239,39,1,fourthree,,,,,,,,,,,,,,,,,,,,,,,,,,,,,,,,,,,,,,,,,,,,,,,,,,,,,,,,,,,,,,,,,,,,,,,,,,,,,,,,,,,,,,,,,,,,,,,,,,,,,,,,,,,,,,,,,,,,,,,,,,,,,,,,,,,,,,,
,,60920010e7bfd828a698e5dd,2023-12-06_23h31.52.384,kallum_motion_pilot,2023.2.3,Win32,60.38282712,60920010e7bfd828a698e5dd,6560176e4d91f764e2a42c74,657158a0152a70f66ac313cf,0.274,0.2742,1,78,240,138,1,sixfive,,,,,,,,,,,,,,,,,,,,,,,,,,,,,,,,,,,,,,,,,,,,,,,,,,,,,,,,,,,,,,,,,,,,,,,,,,,,,,,,,,,,,,,,,,,,,,,,,,,,,,,,,,,,,,,,,,,,,,,,,,,,,,,,,,,,,,,
,,60920010e7bfd828a698e5dd,2023-12-06_23h31.52.384,kallum_motion_pilot,2023.2.3,Win32,60.38282712,60920010e7bfd828a698e5dd,6560176e4d91f764e2a42c74,657158a0152a70f66ac313cf,0.2749,0.2752,1,79,241,53,1,threefour,,,,,,,,,,,,,,,,,,,,,,,,,,,,,,,,,,,,,,,,,,,,,,,,,,,,,,,,,,,,,,,,,,,,,,,,,,,,,,,,,,,,,,,,,,,,,,,,,,,,,,,,,,,,,,,,,,,,,,,,,,,,,,,,,,,,,,,
,,60920010e7bfd828a698e5dd,2023-12-06_23h31.52.384,kallum_motion_pilot,2023.2.3,Win32,60.38282712,60920010e7bfd828a698e5dd,6560176e4d91f764e2a42c74,657158a0152a70f66ac313cf,0.2759,0.2764,1,80,242,67,1,twofour,,,,,,,,,,,,,,,,,,,,,,,,,,,,,,,,,,,,,,,,,,,,,,,,,,,,,,,,,,,,,,,,,,,,,,,,,,,,,,,,,,,,,,,,,,,,,,,,,,,,,,,,,,,,,,,,,,,,,,,,,,,,,,,,,,,,,,,
,,60920010e7bfd828a698e5dd,2023-12-06_23h31.52.384,kallum_motion_pilot,2023.2.3,Win32,60.38282712,60920010e7bfd828a698e5dd,6560176e4d91f764e2a42c74,657158a0152a70f66ac313cf,0.277,0.2773,1,81,243,151,1,eightseven,,,,,,,,,,,,,,,,,,,,,,,,,,,,,,,,,,,,,,,,,,,,,,,,,,,,,,,,,,,,,,,,,,,,,,,,,,,,,,,,,,,,,,,,,,,,,,,,,,,,,,,,,,,,,,,,,,,,,,,,,,,,,,,,,,,,,,,
,,60920010e7bfd828a698e5dd,2023-12-06_23h31.52.384,kallum_motion_pilot,2023.2.3,Win32,60.38282712,60920010e7bfd828a698e5dd,6560176e4d91f764e2a42c74,657158a0152a70f66ac313cf,0.2778,0.2782,1,82,244,126,1,eightsix,,,,,,,,,,,,,,,,,,,,,,,,,,,,,,,,,,,,,,,,,,,,,,,,,,,,,,,,,,,,,,,,,,,,,,,,,,,,,,,,,,,,,,,,,,,,,,,,,,,,,,,,,,,,,,,,,,,,,,,,,,,,,,,,,,,,,,,
,,60920010e7bfd828a698e5dd,2023-12-06_23h31.52.384,kallum_motion_pilot,2023.2.3,Win32,60.38282712,60920010e7bfd828a698e5dd,6560176e4d91f764e2a42c74,657158a0152a70f66ac313cf,0.2792,0.2796,1,83,245,88,1,fivesix,,,,,,,,,,,,,,,,,,,,,,,,,,,,,,,,,,,,,,,,,,,,,,,,,,,,,,,,,,,,,,,,,,,,,,,,,,,,,,,,,,,,,,,,,,,,,,,,,,,,,,,,,,,,,,,,,,,,,,,,,,,,,,,,,,,,,,,
,,60920010e7bfd828a698e5dd,2023-12-06_23h31.52.384,kallum_motion_pilot,2023.2.3,Win32,60.38282712,60920010e7bfd828a698e5dd,6560176e4d91f764e2a42c74,657158a0152a70f66ac313cf,0.2801,0.281,1,84,246,131,1,sixeight,,,,,,,,,,,,,,,,,,,,,,,,,,,,,,,,,,,,,,,,,,,,,,,,,,,,,,,,,,,,,,,,,,,,,,,,,,,,,,,,,,,,,,,,,,,,,,,,,,,,,,,,,,,,,,,,,,,,,,,,,,,,,,,,,,,,,,,
,,60920010e7bfd828a698e5dd,2023-12-06_23h31.52.384,kallum_motion_pilot,2023.2.3,Win32,60.38282712,60920010e7bfd828a698e5dd,6560176e4d91f764e2a42c74,657158a0152a70f66ac313cf,0.2814,0.2819,1,85,247,128,1,fivesix,,,,,,,,,,,,,,,,,,,,,,,,,,,,,,,,,,,,,,,,,,,,,,,,,,,,,,,,,,,,,,,,,,,,,,,,,,,,,,,,,,,,,,,,,,,,,,,,,,,,,,,,,,,,,,,,,,,,,,,,,,,,,,,,,,,,,,,
,,60920010e7bfd828a698e5dd,2023-12-06_23h31.52.384,kallum_motion_pilot,2023.2.3,Win32,60.38282712,60920010e7bfd828a698e5dd,6560176e4d91f764e2a42c74,657158a0152a70f66ac313cf,0.2823,0.2826,1,86,248,20,1,threeone,,,,,,,,,,,,,,,,,,,,,,,,,,,,,,,,,,,,,,,,,,,,,,,,,,,,,,,,,,,,,,,,,,,,,,,,,,,,,,,,,,,,,,,,,,,,,,,,,,,,,,,,,,,,,,,,,,,,,,,,,,,,,,,,,,,,,,,
,,60920010e7bfd828a698e5dd,2023-12-06_23h31.52.384,kallum_motion_pilot,2023.2.3,Win32,60.38282712,60920010e7bfd828a698e5dd,6560176e4d91f764e2a42c74,657158a0152a70f66ac313cf,0.2831,0.2834,1,87,249,137,1,fiveseven,,,,,,,,,,,,,,,,,,,,,,,,,,,,,,,,,,,,,,,,,,,,,,,,,,,,,,,,,,,,,,,,,,,,,,,,,,,,,,,,,,,,,,,,,,,,,,,,,,,,,,,,,,,,,,,,,,,,,,,,,,,,,,,,,,,,,,,
,,60920010e7bfd828a698e5dd,2023-12-06_23h31.52.384,kallum_motion_pilot,2023.2.3,Win32,60.38282712,60920010e7bfd828a698e5dd,6560176e4d91f764e2a42c74,657158a0152a70f66ac313cf,0.2845,0.2855,1,88,250,134,1,eightsix,,,,,,,,,,,,,,,,,,,,,,,,,,,,,,,,,,,,,,,,,,,,,,,,,,,,,,,,,,,,,,,,,,,,,,,,,,,,,,,,,,,,,,,,,,,,,,,,,,,,,,,,,,,,,,,,,,,,,,,,,,,,,,,,,,,,,,,
,,60920010e7bfd828a698e5dd,2023-12-06_23h31.52.384,kallum_motion_pilot,2023.2.3,Win32,60.38282712,60920010e7bfd828a698e5dd,6560176e4d91f764e2a42c74,657158a0152a70f66ac313cf,0.2861,0.2865,1,89,251,23,1,fourthree,,,,,,,,,,,,,,,,,,,,,,,,,,,,,,,,,,,,,,,,,,,,,,,,,,,,,,,,,,,,,,,,,,,,,,,,,,,,,,,,,,,,,,,,,,,,,,,,,,,,,,,,,,,,,,,,,,,,,,,,,,,,,,,,,,,,,,,
,,60920010e7bfd828a698e5dd,2023-12-06_23h31.52.384,kallum_motion_pilot,2023.2.3,Win32,60.38282712,60920010e7bfd828a698e5dd,6560176e4d91f764e2a42c74,657158a0152a70f66ac313cf,0.287,0.2874,1,90,252,101,1,seveneight,,,,,,,,,,,,,,,,,,,,,,,,,,,,,,,,,,,,,,,,,,,,,,,,,,,,,,,,,,,,,,,,,,,,,,,,,,,,,,,,,,,,,,,,,,,,,,,,,,,,,,,,,,,,,,,,,,,,,,,,,,,,,,,,,,,,,,,
,,60920010e7bfd828a698e5dd,2023-12-06_23h31.52.384,kallum_motion_pilot,2023.2.3,Win32,60.38282712,60920010e7bfd828a698e5dd,6560176e4d91f764e2a42c74,657158a0152a70f66ac313cf,0.2879,0.2882,1,91,253,61,1,threefour,,,,,,,,,,,,,,,,,,,,,,,,,,,,,,,,,,,,,,,,,,,,,,,,,,,,,,,,,,,,,,,,,,,,,,,,,,,,,,,,,,,,,,,,,,,,,,,,,,,,,,,,,,,,,,,,,,,,,,,,,,,,,,,,,,,,,,,
,,60920010e7bfd828a698e5dd,2023-12-06_23h31.52.384,kallum_motion_pilot,2023.2.3,Win32,60.38282712,60920010e7bfd828a698e5dd,6560176e4d91f764e2a42c74,657158a0152a70f66ac313cf,0.2887,0.289,1,92,254,154,1,sixfive,,,,,,,,,,,,,,,,,,,,,,,,,,,,,,,,,,,,,,,,,,,,,,,,,,,,,,,,,,,,,,,,,,,,,,,,,,,,,,,,,,,,,,,,,,,,,,,,,,,,,,,,,,,,,,,,,,,,,,,,,,,,,,,,,,,,,,,
,,60920010e7bfd828a698e5dd,2023-12-06_23h31.52.384,kallum_motion_pilot,2023.2.3,Win32,60.38282712,60920010e7bfd828a698e5dd,6560176e4d91f764e2a42c74,657158a0152a70f66ac313cf,0.2897,0.2902,1,93,255,116,1,sevenfive,,,,,,,,,,,,,,,,,,,,,,,,,,,,,,,,,,,,,,,,,,,,,,,,,,,,,,,,,,,,,,,,,,,,,,,,,,,,,,,,,,,,,,,,,,,,,,,,,,,,,,,,,,,,,,,,,,,,,,,,,,,,,,,,,,,,,,,
,,60920010e7bfd828a698e5dd,2023-12-06_23h31.52.384,kallum_motion_pilot,2023.2.3,Win32,60.38282712,60920010e7bfd828a698e5dd,6560176e4d91f764e2a42c74,657158a0152a70f66ac313cf,0.2912,0.2915,1,94,256,84,1,sevenfive,,,,,,,,,,,,,,,,,,,,,,,,,,,,,,,,,,,,,,,,,,,,,,,,,,,,,,,,,,,,,,,,,,,,,,,,,,,,,,,,,,,,,,,,,,,,,,,,,,,,,,,,,,,,,,,,,,,,,,,,,,,,,,,,,,,,,,,
,,60920010e7bfd828a698e5dd,2023-12-06_23h31.52.384,kallum_motion_pilot,2023.2.3,Win32,60.38282712,60920010e7bfd828a698e5dd,6560176e4d91f764e2a42c74,657158a0152a70f66ac313cf,0.292,0.2923,1,95,257,156,1,sevenfive,,,,,,,,,,,,,,,,,,,,,,,,,,,,,,,,,,,,,,,,,,,,,,,,,,,,,,,,,,,,,,,,,,,,,,,,,,,,,,,,,,,,,,,,,,,,,,,,,,,,,,,,,,,,,,,,,,,,,,,,,,,,,,,,,,,,,,,
,,60920010e7bfd828a698e5dd,2023-12-06_23h31.52.384,kallum_motion_pilot,2023.2.3,Win32,60.38282712,60920010e7bfd828a698e5dd,6560176e4d91f764e2a42c74,657158a0152a70f66ac313cf,0.2929,0.2933,1,96,258,35,1,twofour,,,,,,,,,,,,,,,,,,,,,,,,,,,,,,,,,,,,,,,,,,,,,,,,,,,,,,,,,,,,,,,,,,,,,,,,,,,,,,,,,,,,,,,,,,,,,,,,,,,,,,,,,,,,,,,,,,,,,,,,,,,,,,,,,,,,,,,
,,60920010e7bfd828a698e5dd,2023-12-06_23h31.52.384,kallum_motion_pilot,2023.2.3,Win32,60.38282712,60920010e7bfd828a698e5dd,6560176e4d91f764e2a42c74,657158a0152a70f66ac313cf,0.2938,0.2942,1,97,259,18,1,twoone,,,,,,,,,,,,,,,,,,,,,,,,,,,,,,,,,,,,,,,,,,,,,,,,,,,,,,,,,,,,,,,,,,,,,,,,,,,,,,,,,,,,,,,,,,,,,,,,,,,,,,,,,,,,,,,,,,,,,,,,,,,,,,,,,,,,,,,
,,60920010e7bfd828a698e5dd,2023-12-06_23h31.52.384,kallum_motion_pilot,2023.2.3,Win32,60.38282712,60920010e7bfd828a698e5dd,6560176e4d91f764e2a42c74,657158a0152a70f66ac313cf,0.2946,0.2958,1,98,260,15,1,fourthree,,,,,,,,,,,,,,,,,,,,,,,,,,,,,,,,,,,,,,,,,,,,,,,,,,,,,,,,,,,,,,,,,,,,,,,,,,,,,,,,,,,,,,,,,,,,,,,,,,,,,,,,,,,,,,,,,,,,,,,,,,,,,,,,,,,,,,,
,,60920010e7bfd828a698e5dd,2023-12-06_23h31.52.384,kallum_motion_pilot,2023.2.3,Win32,60.38282712,60920010e7bfd828a698e5dd,6560176e4d91f764e2a42c74,657158a0152a70f66ac313cf,0.2961,0.2966,1,99,261,102,1,eightsix,,,,,,,,,,,,,,,,,,,,,,,,,,,,,,,,,,,,,,,,,,,,,,,,,,,,,,,,,,,,,,,,,,,,,,,,,,,,,,,,,,,,,,,,,,,,,,,,,,,,,,,,,,,,,,,,,,,,,,,,,,,,,,,,,,,,,,,
,,60920010e7bfd828a698e5dd,2023-12-06_23h31.52.384,kallum_motion_pilot,2023.2.3,Win32,60.38282712,60920010e7bfd828a698e5dd,6560176e4d91f764e2a42c74,657158a0152a70f66ac313cf,0.2971,0.2973,1,100,262,86,1,eightsix,,,,,,,,,,,,,,,,,,,,,,,,,,,,,,,,,,,,,,,,,,,,,,,,,,,,,,,,,,,,,,,,,,,,,,,,,,,,,,,,,,,,,,,,,,,,,,,,,,,,,,,,,,,,,,,,,,,,,,,,,,,,,,,,,,,,,,,
,,60920010e7bfd828a698e5dd,2023-12-06_23h31.52.384,kallum_motion_pilot,2023.2.3,Win32,60.38282712,60920010e7bfd828a698e5dd,6560176e4d91f764e2a42c74,657158a0152a70f66ac313cf,0.2979,0.2982,1,101,263,32,1,onetwo,,,,,,,,,,,,,,,,,,,,,,,,,,,,,,,,,,,,,,,,,,,,,,,,,,,,,,,,,,,,,,,,,,,,,,,,,,,,,,,,,,,,,,,,,,,,,,,,,,,,,,,,,,,,,,,,,,,,,,,,,,,,,,,,,,,,,,,
,,60920010e7bfd828a698e5dd,2023-12-06_23h31.52.384,kallum_motion_pilot,2023.2.3,Win32,60.38282712,60920010e7bfd828a698e5dd,6560176e4d91f764e2a42c74,657158a0152a70f66ac313cf,0.2988,0.2998,1,102,264,72,1,onetwo,,,,,,,,,,,,,,,,,,,,,,,,,,,,,,,,,,,,,,,,,,,,,,,,,,,,,,,,,,,,,,,,,,,,,,,,,,,,,,,,,,,,,,,,,,,,,,,,,,,,,,,,,,,,,,,,,,,,,,,,,,,,,,,,,,,,,,,
,,60920010e7bfd828a698e5dd,2023-12-06_23h31.52.384,kallum_motion_pilot,2023.2.3,Win32,60.38282712,60920010e7bfd828a698e5dd,6560176e4d91f764e2a42c74,657158a0152a70f66ac313cf,0.3003,0.3006,1,103,265,115,1,sixeight,,,,,,,,,,,,,,,,,,,,,,,,,,,,,,,,,,,,,,,,,,,,,,,,,,,,,,,,,,,,,,,,,,,,,,,,,,,,,,,,,,,,,,,,,,,,,,,,,,,,,,,,,,,,,,,,,,,,,,,,,,,,,,,,,,,,,,,
,,60920010e7bfd828a698e5dd,2023-12-06_23h31.52.384,kallum_motion_pilot,2023.2.3,Win32,60.38282712,60920010e7bfd828a698e5dd,6560176e4d91f764e2a42c74,657158a0152a70f66ac313cf,0.3016,0.3019,1,104,266,76,1,threeone,,,,,,,,,,,,,,,,,,,,,,,,,,,,,,,,,,,,,,,,,,,,,,,,,,,,,,,,,,,,,,,,,,,,,,,,,,,,,,,,,,,,,,,,,,,,,,,,,,,,,,,,,,,,,,,,,,,,,,,,,,,,,,,,,,,,,,,
,,60920010e7bfd828a698e5dd,2023-12-06_23h31.52.384,kallum_motion_pilot,2023.2.3,Win32,60.38282712,60920010e7bfd828a698e5dd,6560176e4d91f764e2a42c74,657158a0152a70f66ac313cf,0.3024,0.3027,1,105,267,120,1,fivesix,,,,,,,,,,,,,,,,,,,,,,,,,,,,,,,,,,,,,,,,,,,,,,,,,,,,,,,,,,,,,,,,,,,,,,,,,,,,,,,,,,,,,,,,,,,,,,,,,,,,,,,,,,,,,,,,,,,,,,,,,,,,,,,,,,,,,,,
,,60920010e7bfd828a698e5dd,2023-12-06_23h31.52.384,kallum_motion_pilot,2023.2.3,Win32,60.38282712,60920010e7bfd828a698e5dd,6560176e4d91f764e2a42c74,657158a0152a70f66ac313cf,0.3033,0.3035,1,106,268,27,1,twofour,,,,,,,,,,,,,,,,,,,,,,,,,,,,,,,,,,,,,,,,,,,,,,,,,,,,,,,,,,,,,,,,,,,,,,,,,,,,,,,,,,,,,,,,,,,,,,,,,,,,,,,,,,,,,,,,,,,,,,,,,,,,,,,,,,,,,,,
,,60920010e7bfd828a698e5dd,2023-12-06_23h31.52.384,kallum_motion_pilot,2023.2.3,Win32,60.38282712,60920010e7bfd828a698e5dd,6560176e4d91f764e2a42c74,657158a0152a70f66ac313cf,0.3041,0.3045,1,107,269,36,1,threeone,,,,,,,,,,,,,,,,,,,,,,,,,,,,,,,,,,,,,,,,,,,,,,,,,,,,,,,,,,,,,,,,,,,,,,,,,,,,,,,,,,,,,,,,,,,,,,,,,,,,,,,,,,,,,,,,,,,,,,,,,,,,,,,,,,,,,,,
,,60920010e7bfd828a698e5dd,2023-12-06_23h31.52.384,kallum_motion_pilot,2023.2.3,Win32,60.38282712,60920010e7bfd828a698e5dd,6560176e4d91f764e2a42c74,657158a0152a70f66ac313cf,0.3051,0.3054,1,108,270,49,1,onethree,,,,,,,,,,,,,,,,,,,,,,,,,,,,,,,,,,,,,,,,,,,,,,,,,,,,,,,,,,,,,,,,,,,,,,,,,,,,,,,,,,,,,,,,,,,,,,,,,,,,,,,,,,,,,,,,,,,,,,,,,,,,,,,,,,,,,,,
,,60920010e7bfd828a698e5dd,2023-12-06_23h31.52.384,kallum_motion_pilot,2023.2.3,Win32,60.38282712,60920010e7bfd828a698e5dd,6560176e4d91f764e2a42c74,657158a0152a70f66ac313cf,0.3059,0.3064,1,109,271,70,1,fourtwo,,,,,,,,,,,,,,,,,,,,,,,,,,,,,,,,,,,,,,,,,,,,,,,,,,,,,,,,,,,,,,,,,,,,,,,,,,,,,,,,,,,,,,,,,,,,,,,,,,,,,,,,,,,,,,,,,,,,,,,,,,,,,,,,,,,,,,,
,,60920010e7bfd828a698e5dd,2023-12-06_23h31.52.384,kallum_motion_pilot,2023.2.3,Win32,60.38282712,60920010e7bfd828a698e5dd,6560176e4d91f764e2a42c74,657158a0152a70f66ac313cf,0.3069,0.3074,1,110,272,105,1,fiveseven,,,,,,,,,,,,,,,,,,,,,,,,,,,,,,,,,,,,,,,,,,,,,,,,,,,,,,,,,,,,,,,,,,,,,,,,,,,,,,,,,,,,,,,,,,,,,,,,,,,,,,,,,,,,,,,,,,,,,,,,,,,,,,,,,,,,,,,
,,60920010e7bfd828a698e5dd,2023-12-06_23h31.52.384,kallum_motion_pilot,2023.2.3,Win32,60.38282712,60920010e7bfd828a698e5dd,6560176e4d91f764e2a42c74,657158a0152a70f66ac313cf,0.3079,0.3083,1,111,273,106,1,sixfive,,,,,,,,,,,,,,,,,,,,,,,,,,,,,,,,,,,,,,,,,,,,,,,,,,,,,,,,,,,,,,,,,,,,,,,,,,,,,,,,,,,,,,,,,,,,,,,,,,,,,,,,,,,,,,,,,,,,,,,,,,,,,,,,,,,,,,,
,,60920010e7bfd828a698e5dd,2023-12-06_23h31.52.384,kallum_motion_pilot,2023.2.3,Win32,60.38282712,60920010e7bfd828a698e5dd,6560176e4d91f764e2a42c74,657158a0152a70f66ac313cf,0.3088,0.3091,1,112,274,108,1,sevenfive,,,,,,,,,,,,,,,,,,,,,,,,,,,,,,,,,,,,,,,,,,,,,,,,,,,,,,,,,,,,,,,,,,,,,,,,,,,,,,,,,,,,,,,,,,,,,,,,,,,,,,,,,,,,,,,,,,,,,,,,,,,,,,,,,,,,,,,
,,60920010e7bfd828a698e5dd,2023-12-06_23h31.52.384,kallum_motion_pilot,2023.2.3,Win32,60.38282712,60920010e7bfd828a698e5dd,6560176e4d91f764e2a42c74,657158a0152a70f66ac313cf,0.3097,0.31,1,113,275,92,1,sevenfive,,,,,,,,,,,,,,,,,,,,,,,,,,,,,,,,,,,,,,,,,,,,,,,,,,,,,,,,,,,,,,,,,,,,,,,,,,,,,,,,,,,,,,,,,,,,,,,,,,,,,,,,,,,,,,,,,,,,,,,,,,,,,,,,,,,,,,,
,,60920010e7bfd828a698e5dd,2023-12-06_23h31.52.384,kallum_motion_pilot,2023.2.3,Win32,60.38282712,60920010e7bfd828a698e5dd,6560176e4d91f764e2a42c74,657158a0152a70f66ac313cf,0.3106,0.3109,1,114,276,114,1,sixfive,,,,,,,,,,,,,,,,,,,,,,,,,,,,,,,,,,,,,,,,,,,,,,,,,,,,,,,,,,,,,,,,,,,,,,,,,,,,,,,,,,,,,,,,,,,,,,,,,,,,,,,,,,,,,,,,,,,,,,,,,,,,,,,,,,,,,,,
,,60920010e7bfd828a698e5dd,2023-12-06_23h31.52.384,kallum_motion_pilot,2023.2.3,Win32,60.38282712,60920010e7bfd828a698e5dd,6560176e4d91f764e2a42c74,657158a0152a70f66ac313cf,0.3124,0.3128,1,115,277,0,1,onetwo,,,,,,,,,,,,,,,,,,,,,,,,,,,,,,,,,,,,,,,,,,,,,,,,,,,,,,,,,,,,,,,,,,,,,,,,,,,,,,,,,,,,,,,,,,,,,,,,,,,,,,,,,,,,,,,,,,,,,,,,,,,,,,,,,,,,,,,
,,60920010e7bfd828a698e5dd,2023-12-06_23h31.52.384,kallum_motion_pilot,2023.2.3,Win32,60.38282712,60920010e7bfd828a698e5dd,6560176e4d91f764e2a42c74,657158a0152a70f66ac313cf,0.3134,0.3137,1,116,278,94,1,eightsix,,,,,,,,,,,,,,,,,,,,,,,,,,,,,,,,,,,,,,,,,,,,,,,,,,,,,,,,,,,,,,,,,,,,,,,,,,,,,,,,,,,,,,,,,,,,,,,,,,,,,,,,,,,,,,,,,,,,,,,,,,,,,,,,,,,,,,,
,,60920010e7bfd828a698e5dd,2023-12-06_23h31.52.384,kallum_motion_pilot,2023.2.3,Win32,60.38282712,60920010e7bfd828a698e5dd,6560176e4d91f764e2a42c74,657158a0152a70f66ac313cf,0.3153,0.3157,1,117,279,80,1,fivesix,,,,,,,,,,,,,,,,,,,,,,,,,,,,,,,,,,,,,,,,,,,,,,,,,,,,,,,,,,,,,,,,,,,,,,,,,,,,,,,,,,,,,,,,,,,,,,,,,,,,,,,,,,,,,,,,,,,,,,,,,,,,,,,,,,,,,,,
