startup.started,startup.stopped,Prolific ID*,date,expName,psychopyVersion,OS,frameRate,participant,study_id,session,stimpositions.started,stimpositions.stopped,hardcoded_stimulus_positions.thisRepN,hardcoded_stimulus_positions.thisTrialN,hardcoded_stimulus_positions.thisN,hardcoded_stimulus_positions.thisIndex,hardcoded_stimulus_positions.ran,StimulusPos,stimorientation.started,stimorientation.stopped,prac_stimorientation_import_loop.thisRepN,prac_stimorientation_import_loop.thisTrialN,prac_stimorientation_import_loop.thisN,prac_stimorientation_import_loop.thisIndex,prac_stimorientation_import_loop.ran,Stimorientation,welcome_instr.started,welcome_instr.stopped,key_resp.keys,key_resp.rt,key_resp.duration,response_steppedout_1.started,response_steppedout_1.stopped,key_resp_20.keys,key_resp_20.rt,key_resp_20.duration,response_steppedout_2.started,response_steppedout_2.stopped,key_resp_19.keys,key_resp_19.rt,key_resp_19.duration,stim_response_instr.started,stim_response_instr.stopped,key_resp_15.keys,key_resp_15.rt,key_resp_15.duration,direction_instr_2.started,direction_instr_2.stopped,key_resp_9.keys,key_resp_9.rt,key_resp_9.duration,instr_prac.started,instr_prac.stopped,key_resp_10.keys,key_resp_10.rt,key_resp_10.duration,Stim1_display_prac.started,Stim1_display_prac.stopped,Ecc,Circle1_ori,Circle2_ori,response_prac.started,similarity,response_time,response_prac.stopped,mouse_5.x,mouse_5.y,mouse_5.leftButton,mouse_5.midButton,mouse_5.rightButton,mouse_5.clicked_name,responseprac_feedback.started,responseprac_feedback.stopped,summary2_prac.started,summary2_prac.stopped,mouse_6.x,mouse_6.y,mouse_6.leftButton,mouse_6.midButton,mouse_6.rightButton,mouse_6.clicked_name,duringprac.thisRepN,duringprac.thisTrialN,duringprac.thisN,duringprac.thisIndex,duringprac.ran,begin.started,begin.stopped,key_resp_22.keys,key_resp_22.rt,key_resp_22.duration,Stim1_display.started,Stim1_display.stopped,circle1_ori,circle2_ori,blank.started,blank.stopped,response.started,response.stopped,mouse.x,mouse.y,mouse.leftButton,mouse.midButton,mouse.rightButton,mouse.clicked_name,response_2.started,response_2.stopped,mouse_2.x,mouse_2.y,mouse_2.leftButton,mouse_2.midButton,mouse_2.rightButton,mouse_2.clicked_name,special_trial.started,special_trial.stopped,catch_1.started,catch_1.stopped,mouse_3.x,mouse_3.y,mouse_3.leftButton,mouse_3.midButton,mouse_3.rightButton,catchresponse,catchnumber,response_time_catch,Catch,response_sum.started,response_sum.stopped,mouse_11.x,mouse_11.y,mouse_11.leftButton,mouse_11.midButton,mouse_11.rightButton,main_trial.thisRepN,main_trial.thisTrialN,main_trial.thisN,main_trial.thisIndex,main_trial.ran,Orientationtrialno,xcircle1_ori,xcircle2_ori,flip_presentation_sequence_for_double_pass.started,flip_presentation_sequence_for_double_pass.stopped,double_pass.thisRepN,double_pass.thisTrialN,double_pass.thisN,double_pass.thisIndex,double_pass.ran,goodbye.started,goodbye.stopped,key_resp_3.keys,key_resp_3.rt,key_resp_3.duration
0.0002,0.0002,60aadeb9e6e8147089f7eced,2023-12-07_07h28.11.461,kallum_motion_pilot,2023.2.3,Win32,59.97361161,60aadeb9e6e8147089f7eced,6560176e4d91f764e2a42c74,657157d20ea19e92901e6c77,,,,,,,,,,,,,,,,,,,,,,,,,,,,,,,,,,,,,,,,,,,,,,,,,,,,,,,,,,,,,,,,,,,,,,,,,,,,,,,,,,,,,,,,,,,,,,,,,,,,,,,,,,,,,,,,,,,,,,,,,,,,,,,,,,,,,,,,,,,,,,,
,,60aadeb9e6e8147089f7eced,2023-12-07_07h28.11.461,kallum_motion_pilot,2023.2.3,Win32,59.97361161,60aadeb9e6e8147089f7eced,6560176e4d91f764e2a42c74,657157d20ea19e92901e6c77,0.0158,0.016,0,0,0,113,1,fiveseven,,,,,,,,,,,,,,,,,,,,,,,,,,,,,,,,,,,,,,,,,,,,,,,,,,,,,,,,,,,,,,,,,,,,,,,,,,,,,,,,,,,,,,,,,,,,,,,,,,,,,,,,,,,,,,,,,,,,,,,,,,,,,,,,,,,,,,,
,,60aadeb9e6e8147089f7eced,2023-12-07_07h28.11.461,kallum_motion_pilot,2023.2.3,Win32,59.97361161,60aadeb9e6e8147089f7eced,6560176e4d91f764e2a42c74,657157d20ea19e92901e6c77,0.0161,0.0161,0,1,1,102,1,eightsix,,,,,,,,,,,,,,,,,,,,,,,,,,,,,,,,,,,,,,,,,,,,,,,,,,,,,,,,,,,,,,,,,,,,,,,,,,,,,,,,,,,,,,,,,,,,,,,,,,,,,,,,,,,,,,,,,,,,,,,,,,,,,,,,,,,,,,,
,,60aadeb9e6e8147089f7eced,2023-12-07_07h28.11.461,kallum_motion_pilot,2023.2.3,Win32,59.97361161,60aadeb9e6e8147089f7eced,6560176e4d91f764e2a42c74,657157d20ea19e92901e6c77,0.0163,0.0163,0,2,2,20,1,threeone,,,,,,,,,,,,,,,,,,,,,,,,,,,,,,,,,,,,,,,,,,,,,,,,,,,,,,,,,,,,,,,,,,,,,,,,,,,,,,,,,,,,,,,,,,,,,,,,,,,,,,,,,,,,,,,,,,,,,,,,,,,,,,,,,,,,,,,
,,60aadeb9e6e8147089f7eced,2023-12-07_07h28.11.461,kallum_motion_pilot,2023.2.3,Win32,59.97361161,60aadeb9e6e8147089f7eced,6560176e4d91f764e2a42c74,657157d20ea19e92901e6c77,0.0163,0.0163,0,3,3,51,1,twofour,,,,,,,,,,,,,,,,,,,,,,,,,,,,,,,,,,,,,,,,,,,,,,,,,,,,,,,,,,,,,,,,,,,,,,,,,,,,,,,,,,,,,,,,,,,,,,,,,,,,,,,,,,,,,,,,,,,,,,,,,,,,,,,,,,,,,,,
,,60aadeb9e6e8147089f7eced,2023-12-07_07h28.11.461,kallum_motion_pilot,2023.2.3,Win32,59.97361161,60aadeb9e6e8147089f7eced,6560176e4d91f764e2a42c74,657157d20ea19e92901e6c77,0.0164,0.0164,0,4,4,99,1,sixeight,,,,,,,,,,,,,,,,,,,,,,,,,,,,,,,,,,,,,,,,,,,,,,,,,,,,,,,,,,,,,,,,,,,,,,,,,,,,,,,,,,,,,,,,,,,,,,,,,,,,,,,,,,,,,,,,,,,,,,,,,,,,,,,,,,,,,,,
,,60aadeb9e6e8147089f7eced,2023-12-07_07h28.11.461,kallum_motion_pilot,2023.2.3,Win32,59.97361161,60aadeb9e6e8147089f7eced,6560176e4d91f764e2a42c74,657157d20ea19e92901e6c77,0.0164,0.0164,0,5,5,49,1,onethree,,,,,,,,,,,,,,,,,,,,,,,,,,,,,,,,,,,,,,,,,,,,,,,,,,,,,,,,,,,,,,,,,,,,,,,,,,,,,,,,,,,,,,,,,,,,,,,,,,,,,,,,,,,,,,,,,,,,,,,,,,,,,,,,,,,,,,,
,,60aadeb9e6e8147089f7eced,2023-12-07_07h28.11.461,kallum_motion_pilot,2023.2.3,Win32,59.97361161,60aadeb9e6e8147089f7eced,6560176e4d91f764e2a42c74,657157d20ea19e92901e6c77,0.0171,0.0171,0,6,6,120,1,fivesix,,,,,,,,,,,,,,,,,,,,,,,,,,,,,,,,,,,,,,,,,,,,,,,,,,,,,,,,,,,,,,,,,,,,,,,,,,,,,,,,,,,,,,,,,,,,,,,,,,,,,,,,,,,,,,,,,,,,,,,,,,,,,,,,,,,,,,,
,,60aadeb9e6e8147089f7eced,2023-12-07_07h28.11.461,kallum_motion_pilot,2023.2.3,Win32,59.97361161,60aadeb9e6e8147089f7eced,6560176e4d91f764e2a42c74,657157d20ea19e92901e6c77,0.0172,0.0172,0,7,7,65,1,onethree,,,,,,,,,,,,,,,,,,,,,,,,,,,,,,,,,,,,,,,,,,,,,,,,,,,,,,,,,,,,,,,,,,,,,,,,,,,,,,,,,,,,,,,,,,,,,,,,,,,,,,,,,,,,,,,,,,,,,,,,,,,,,,,,,,,,,,,
,,60aadeb9e6e8147089f7eced,2023-12-07_07h28.11.461,kallum_motion_pilot,2023.2.3,Win32,59.97361161,60aadeb9e6e8147089f7eced,6560176e4d91f764e2a42c74,657157d20ea19e92901e6c77,0.0173,0.0173,0,8,8,110,1,eightsix,,,,,,,,,,,,,,,,,,,,,,,,,,,,,,,,,,,,,,,,,,,,,,,,,,,,,,,,,,,,,,,,,,,,,,,,,,,,,,,,,,,,,,,,,,,,,,,,,,,,,,,,,,,,,,,,,,,,,,,,,,,,,,,,,,,,,,,
,,60aadeb9e6e8147089f7eced,2023-12-07_07h28.11.461,kallum_motion_pilot,2023.2.3,Win32,59.97361161,60aadeb9e6e8147089f7eced,6560176e4d91f764e2a42c74,657157d20ea19e92901e6c77,0.0174,0.0174,0,9,9,158,1,eightsix,,,,,,,,,,,,,,,,,,,,,,,,,,,,,,,,,,,,,,,,,,,,,,,,,,,,,,,,,,,,,,,,,,,,,,,,,,,,,,,,,,,,,,,,,,,,,,,,,,,,,,,,,,,,,,,,,,,,,,,,,,,,,,,,,,,,,,,
,,60aadeb9e6e8147089f7eced,2023-12-07_07h28.11.461,kallum_motion_pilot,2023.2.3,Win32,59.97361161,60aadeb9e6e8147089f7eced,6560176e4d91f764e2a42c74,657157d20ea19e92901e6c77,0.0174,0.0175,0,10,10,38,1,fourtwo,,,,,,,,,,,,,,,,,,,,,,,,,,,,,,,,,,,,,,,,,,,,,,,,,,,,,,,,,,,,,,,,,,,,,,,,,,,,,,,,,,,,,,,,,,,,,,,,,,,,,,,,,,,,,,,,,,,,,,,,,,,,,,,,,,,,,,,
,,60aadeb9e6e8147089f7eced,2023-12-07_07h28.11.461,kallum_motion_pilot,2023.2.3,Win32,59.97361161,60aadeb9e6e8147089f7eced,6560176e4d91f764e2a42c74,657157d20ea19e92901e6c77,0.0175,0.0175,0,11,11,63,1,fourthree,,,,,,,,,,,,,,,,,,,,,,,,,,,,,,,,,,,,,,,,,,,,,,,,,,,,,,,,,,,,,,,,,,,,,,,,,,,,,,,,,,,,,,,,,,,,,,,,,,,,,,,,,,,,,,,,,,,,,,,,,,,,,,,,,,,,,,,
,,60aadeb9e6e8147089f7eced,2023-12-07_07h28.11.461,kallum_motion_pilot,2023.2.3,Win32,59.97361161,60aadeb9e6e8147089f7eced,6560176e4d91f764e2a42c74,657157d20ea19e92901e6c77,0.0175,0.0175,0,12,12,140,1,sevenfive,,,,,,,,,,,,,,,,,,,,,,,,,,,,,,,,,,,,,,,,,,,,,,,,,,,,,,,,,,,,,,,,,,,,,,,,,,,,,,,,,,,,,,,,,,,,,,,,,,,,,,,,,,,,,,,,,,,,,,,,,,,,,,,,,,,,,,,
,,60aadeb9e6e8147089f7eced,2023-12-07_07h28.11.461,kallum_motion_pilot,2023.2.3,Win32,59.97361161,60aadeb9e6e8147089f7eced,6560176e4d91f764e2a42c74,657157d20ea19e92901e6c77,0.0175,0.0176,0,13,13,35,1,twofour,,,,,,,,,,,,,,,,,,,,,,,,,,,,,,,,,,,,,,,,,,,,,,,,,,,,,,,,,,,,,,,,,,,,,,,,,,,,,,,,,,,,,,,,,,,,,,,,,,,,,,,,,,,,,,,,,,,,,,,,,,,,,,,,,,,,,,,
,,60aadeb9e6e8147089f7eced,2023-12-07_07h28.11.461,kallum_motion_pilot,2023.2.3,Win32,59.97361161,60aadeb9e6e8147089f7eced,6560176e4d91f764e2a42c74,657157d20ea19e92901e6c77,0.0176,0.0176,0,14,14,27,1,twofour,,,,,,,,,,,,,,,,,,,,,,,,,,,,,,,,,,,,,,,,,,,,,,,,,,,,,,,,,,,,,,,,,,,,,,,,,,,,,,,,,,,,,,,,,,,,,,,,,,,,,,,,,,,,,,,,,,,,,,,,,,,,,,,,,,,,,,,
,,60aadeb9e6e8147089f7eced,2023-12-07_07h28.11.461,kallum_motion_pilot,2023.2.3,Win32,59.97361161,60aadeb9e6e8147089f7eced,6560176e4d91f764e2a42c74,657157d20ea19e92901e6c77,0.0176,0.0176,0,15,15,147,1,sixeight,,,,,,,,,,,,,,,,,,,,,,,,,,,,,,,,,,,,,,,,,,,,,,,,,,,,,,,,,,,,,,,,,,,,,,,,,,,,,,,,,,,,,,,,,,,,,,,,,,,,,,,,,,,,,,,,,,,,,,,,,,,,,,,,,,,,,,,
,,60aadeb9e6e8147089f7eced,2023-12-07_07h28.11.461,kallum_motion_pilot,2023.2.3,Win32,59.97361161,60aadeb9e6e8147089f7eced,6560176e4d91f764e2a42c74,657157d20ea19e92901e6c77,0.0177,0.0177,0,16,16,12,1,threeone,,,,,,,,,,,,,,,,,,,,,,,,,,,,,,,,,,,,,,,,,,,,,,,,,,,,,,,,,,,,,,,,,,,,,,,,,,,,,,,,,,,,,,,,,,,,,,,,,,,,,,,,,,,,,,,,,,,,,,,,,,,,,,,,,,,,,,,
,,60aadeb9e6e8147089f7eced,2023-12-07_07h28.11.461,kallum_motion_pilot,2023.2.3,Win32,59.97361161,60aadeb9e6e8147089f7eced,6560176e4d91f764e2a42c74,657157d20ea19e92901e6c77,0.0178,0.0178,0,17,17,34,1,twoone,,,,,,,,,,,,,,,,,,,,,,,,,,,,,,,,,,,,,,,,,,,,,,,,,,,,,,,,,,,,,,,,,,,,,,,,,,,,,,,,,,,,,,,,,,,,,,,,,,,,,,,,,,,,,,,,,,,,,,,,,,,,,,,,,,,,,,,
,,60aadeb9e6e8147089f7eced,2023-12-07_07h28.11.461,kallum_motion_pilot,2023.2.3,Win32,59.97361161,60aadeb9e6e8147089f7eced,6560176e4d91f764e2a42c74,657157d20ea19e92901e6c77,0.0178,0.0179,0,18,18,28,1,threeone,,,,,,,,,,,,,,,,,,,,,,,,,,,,,,,,,,,,,,,,,,,,,,,,,,,,,,,,,,,,,,,,,,,,,,,,,,,,,,,,,,,,,,,,,,,,,,,,,,,,,,,,,,,,,,,,,,,,,,,,,,,,,,,,,,,,,,,
,,60aadeb9e6e8147089f7eced,2023-12-07_07h28.11.461,kallum_motion_pilot,2023.2.3,Win32,59.97361161,60aadeb9e6e8147089f7eced,6560176e4d91f764e2a42c74,657157d20ea19e92901e6c77,0.0179,0.0179,0,19,19,123,1,sixeight,,,,,,,,,,,,,,,,,,,,,,,,,,,,,,,,,,,,,,,,,,,,,,,,,,,,,,,,,,,,,,,,,,,,,,,,,,,,,,,,,,,,,,,,,,,,,,,,,,,,,,,,,,,,,,,,,,,,,,,,,,,,,,,,,,,,,,,
,,60aadeb9e6e8147089f7eced,2023-12-07_07h28.11.461,kallum_motion_pilot,2023.2.3,Win32,59.97361161,60aadeb9e6e8147089f7eced,6560176e4d91f764e2a42c74,657157d20ea19e92901e6c77,0.0179,0.0179,0,20,20,151,1,eightseven,,,,,,,,,,,,,,,,,,,,,,,,,,,,,,,,,,,,,,,,,,,,,,,,,,,,,,,,,,,,,,,,,,,,,,,,,,,,,,,,,,,,,,,,,,,,,,,,,,,,,,,,,,,,,,,,,,,,,,,,,,,,,,,,,,,,,,,
,,60aadeb9e6e8147089f7eced,2023-12-07_07h28.11.461,kallum_motion_pilot,2023.2.3,Win32,59.97361161,60aadeb9e6e8147089f7eced,6560176e4d91f764e2a42c74,657157d20ea19e92901e6c77,0.0179,0.0179,0,21,21,131,1,sixeight,,,,,,,,,,,,,,,,,,,,,,,,,,,,,,,,,,,,,,,,,,,,,,,,,,,,,,,,,,,,,,,,,,,,,,,,,,,,,,,,,,,,,,,,,,,,,,,,,,,,,,,,,,,,,,,,,,,,,,,,,,,,,,,,,,,,,,,
,,60aadeb9e6e8147089f7eced,2023-12-07_07h28.11.461,kallum_motion_pilot,2023.2.3,Win32,59.97361161,60aadeb9e6e8147089f7eced,6560176e4d91f764e2a42c74,657157d20ea19e92901e6c77,0.018,0.018,0,22,22,160,1,fivesix,,,,,,,,,,,,,,,,,,,,,,,,,,,,,,,,,,,,,,,,,,,,,,,,,,,,,,,,,,,,,,,,,,,,,,,,,,,,,,,,,,,,,,,,,,,,,,,,,,,,,,,,,,,,,,,,,,,,,,,,,,,,,,,,,,,,,,,
,,60aadeb9e6e8147089f7eced,2023-12-07_07h28.11.461,kallum_motion_pilot,2023.2.3,Win32,59.97361161,60aadeb9e6e8147089f7eced,6560176e4d91f764e2a42c74,657157d20ea19e92901e6c77,0.018,0.0181,0,23,23,103,1,eightseven,,,,,,,,,,,,,,,,,,,,,,,,,,,,,,,,,,,,,,,,,,,,,,,,,,,,,,,,,,,,,,,,,,,,,,,,,,,,,,,,,,,,,,,,,,,,,,,,,,,,,,,,,,,,,,,,,,,,,,,,,,,,,,,,,,,,,,,
,,60aadeb9e6e8147089f7eced,2023-12-07_07h28.11.461,kallum_motion_pilot,2023.2.3,Win32,59.97361161,60aadeb9e6e8147089f7eced,6560176e4d91f764e2a42c74,657157d20ea19e92901e6c77,0.0181,0.0181,0,24,24,53,1,threefour,,,,,,,,,,,,,,,,,,,,,,,,,,,,,,,,,,,,,,,,,,,,,,,,,,,,,,,,,,,,,,,,,,,,,,,,,,,,,,,,,,,,,,,,,,,,,,,,,,,,,,,,,,,,,,,,,,,,,,,,,,,,,,,,,,,,,,,
,,60aadeb9e6e8147089f7eced,2023-12-07_07h28.11.461,kallum_motion_pilot,2023.2.3,Win32,59.97361161,60aadeb9e6e8147089f7eced,6560176e4d91f764e2a42c74,657157d20ea19e92901e6c77,0.0182,0.0182,0,25,25,8,1,onetwo,,,,,,,,,,,,,,,,,,,,,,,,,,,,,,,,,,,,,,,,,,,,,,,,,,,,,,,,,,,,,,,,,,,,,,,,,,,,,,,,,,,,,,,,,,,,,,,,,,,,,,,,,,,,,,,,,,,,,,,,,,,,,,,,,,,,,,,
,,60aadeb9e6e8147089f7eced,2023-12-07_07h28.11.461,kallum_motion_pilot,2023.2.3,Win32,59.97361161,60aadeb9e6e8147089f7eced,6560176e4d91f764e2a42c74,657157d20ea19e92901e6c77,0.0182,0.0183,0,26,26,146,1,sixfive,,,,,,,,,,,,,,,,,,,,,,,,,,,,,,,,,,,,,,,,,,,,,,,,,,,,,,,,,,,,,,,,,,,,,,,,,,,,,,,,,,,,,,,,,,,,,,,,,,,,,,,,,,,,,,,,,,,,,,,,,,,,,,,,,,,,,,,
,,60aadeb9e6e8147089f7eced,2023-12-07_07h28.11.461,kallum_motion_pilot,2023.2.3,Win32,59.97361161,60aadeb9e6e8147089f7eced,6560176e4d91f764e2a42c74,657157d20ea19e92901e6c77,0.0183,0.0183,0,27,27,92,1,sevenfive,,,,,,,,,,,,,,,,,,,,,,,,,,,,,,,,,,,,,,,,,,,,,,,,,,,,,,,,,,,,,,,,,,,,,,,,,,,,,,,,,,,,,,,,,,,,,,,,,,,,,,,,,,,,,,,,,,,,,,,,,,,,,,,,,,,,,,,
,,60aadeb9e6e8147089f7eced,2023-12-07_07h28.11.461,kallum_motion_pilot,2023.2.3,Win32,59.97361161,60aadeb9e6e8147089f7eced,6560176e4d91f764e2a42c74,657157d20ea19e92901e6c77,0.0183,0.0183,0,28,28,138,1,sixfive,,,,,,,,,,,,,,,,,,,,,,,,,,,,,,,,,,,,,,,,,,,,,,,,,,,,,,,,,,,,,,,,,,,,,,,,,,,,,,,,,,,,,,,,,,,,,,,,,,,,,,,,,,,,,,,,,,,,,,,,,,,,,,,,,,,,,,,
,,60aadeb9e6e8147089f7eced,2023-12-07_07h28.11.461,kallum_motion_pilot,2023.2.3,Win32,59.97361161,60aadeb9e6e8147089f7eced,6560176e4d91f764e2a42c74,657157d20ea19e92901e6c77,0.0183,0.0183,0,29,29,96,1,fivesix,,,,,,,,,,,,,,,,,,,,,,,,,,,,,,,,,,,,,,,,,,,,,,,,,,,,,,,,,,,,,,,,,,,,,,,,,,,,,,,,,,,,,,,,,,,,,,,,,,,,,,,,,,,,,,,,,,,,,,,,,,,,,,,,,,,,,,,
,,60aadeb9e6e8147089f7eced,2023-12-07_07h28.11.461,kallum_motion_pilot,2023.2.3,Win32,59.97361161,60aadeb9e6e8147089f7eced,6560176e4d91f764e2a42c74,657157d20ea19e92901e6c77,0.0184,0.0184,0,30,30,141,1,seveneight,,,,,,,,,,,,,,,,,,,,,,,,,,,,,,,,,,,,,,,,,,,,,,,,,,,,,,,,,,,,,,,,,,,,,,,,,,,,,,,,,,,,,,,,,,,,,,,,,,,,,,,,,,,,,,,,,,,,,,,,,,,,,,,,,,,,,,,
,,60aadeb9e6e8147089f7eced,2023-12-07_07h28.11.461,kallum_motion_pilot,2023.2.3,Win32,59.97361161,60aadeb9e6e8147089f7eced,6560176e4d91f764e2a42c74,657157d20ea19e92901e6c77,0.0184,0.0185,0,31,31,0,1,onetwo,,,,,,,,,,,,,,,,,,,,,,,,,,,,,,,,,,,,,,,,,,,,,,,,,,,,,,,,,,,,,,,,,,,,,,,,,,,,,,,,,,,,,,,,,,,,,,,,,,,,,,,,,,,,,,,,,,,,,,,,,,,,,,,,,,,,,,,
,,60aadeb9e6e8147089f7eced,2023-12-07_07h28.11.461,kallum_motion_pilot,2023.2.3,Win32,59.97361161,60aadeb9e6e8147089f7eced,6560176e4d91f764e2a42c74,657157d20ea19e92901e6c77,0.0185,0.0185,0,32,32,111,1,eightseven,,,,,,,,,,,,,,,,,,,,,,,,,,,,,,,,,,,,,,,,,,,,,,,,,,,,,,,,,,,,,,,,,,,,,,,,,,,,,,,,,,,,,,,,,,,,,,,,,,,,,,,,,,,,,,,,,,,,,,,,,,,,,,,,,,,,,,,
,,60aadeb9e6e8147089f7eced,2023-12-07_07h28.11.461,kallum_motion_pilot,2023.2.3,Win32,59.97361161,60aadeb9e6e8147089f7eced,6560176e4d91f764e2a42c74,657157d20ea19e92901e6c77,0.0185,0.0185,0,33,33,22,1,fourtwo,,,,,,,,,,,,,,,,,,,,,,,,,,,,,,,,,,,,,,,,,,,,,,,,,,,,,,,,,,,,,,,,,,,,,,,,,,,,,,,,,,,,,,,,,,,,,,,,,,,,,,,,,,,,,,,,,,,,,,,,,,,,,,,,,,,,,,,
,,60aadeb9e6e8147089f7eced,2023-12-07_07h28.11.461,kallum_motion_pilot,2023.2.3,Win32,59.97361161,60aadeb9e6e8147089f7eced,6560176e4d91f764e2a42c74,657157d20ea19e92901e6c77,0.0185,0.0185,0,34,34,81,1,fiveseven,,,,,,,,,,,,,,,,,,,,,,,,,,,,,,,,,,,,,,,,,,,,,,,,,,,,,,,,,,,,,,,,,,,,,,,,,,,,,,,,,,,,,,,,,,,,,,,,,,,,,,,,,,,,,,,,,,,,,,,,,,,,,,,,,,,,,,,
,,60aadeb9e6e8147089f7eced,2023-12-07_07h28.11.461,kallum_motion_pilot,2023.2.3,Win32,59.97361161,60aadeb9e6e8147089f7eced,6560176e4d91f764e2a42c74,657157d20ea19e92901e6c77,0.0186,0.0186,0,35,35,32,1,onetwo,,,,,,,,,,,,,,,,,,,,,,,,,,,,,,,,,,,,,,,,,,,,,,,,,,,,,,,,,,,,,,,,,,,,,,,,,,,,,,,,,,,,,,,,,,,,,,,,,,,,,,,,,,,,,,,,,,,,,,,,,,,,,,,,,,,,,,,
,,60aadeb9e6e8147089f7eced,2023-12-07_07h28.11.461,kallum_motion_pilot,2023.2.3,Win32,59.97361161,60aadeb9e6e8147089f7eced,6560176e4d91f764e2a42c74,657157d20ea19e92901e6c77,0.0187,0.0187,0,36,36,30,1,fourtwo,,,,,,,,,,,,,,,,,,,,,,,,,,,,,,,,,,,,,,,,,,,,,,,,,,,,,,,,,,,,,,,,,,,,,,,,,,,,,,,,,,,,,,,,,,,,,,,,,,,,,,,,,,,,,,,,,,,,,,,,,,,,,,,,,,,,,,,
,,60aadeb9e6e8147089f7eced,2023-12-07_07h28.11.461,kallum_motion_pilot,2023.2.3,Win32,59.97361161,60aadeb9e6e8147089f7eced,6560176e4d91f764e2a42c74,657157d20ea19e92901e6c77,0.0187,0.0187,0,37,37,26,1,twoone,,,,,,,,,,,,,,,,,,,,,,,,,,,,,,,,,,,,,,,,,,,,,,,,,,,,,,,,,,,,,,,,,,,,,,,,,,,,,,,,,,,,,,,,,,,,,,,,,,,,,,,,,,,,,,,,,,,,,,,,,,,,,,,,,,,,,,,
,,60aadeb9e6e8147089f7eced,2023-12-07_07h28.11.461,kallum_motion_pilot,2023.2.3,Win32,59.97361161,60aadeb9e6e8147089f7eced,6560176e4d91f764e2a42c74,657157d20ea19e92901e6c77,0.0187,0.0188,0,38,38,126,1,eightsix,,,,,,,,,,,,,,,,,,,,,,,,,,,,,,,,,,,,,,,,,,,,,,,,,,,,,,,,,,,,,,,,,,,,,,,,,,,,,,,,,,,,,,,,,,,,,,,,,,,,,,,,,,,,,,,,,,,,,,,,,,,,,,,,,,,,,,,
,,60aadeb9e6e8147089f7eced,2023-12-07_07h28.11.461,kallum_motion_pilot,2023.2.3,Win32,59.97361161,60aadeb9e6e8147089f7eced,6560176e4d91f764e2a42c74,657157d20ea19e92901e6c77,0.0188,0.0188,0,39,39,122,1,sixfive,,,,,,,,,,,,,,,,,,,,,,,,,,,,,,,,,,,,,,,,,,,,,,,,,,,,,,,,,,,,,,,,,,,,,,,,,,,,,,,,,,,,,,,,,,,,,,,,,,,,,,,,,,,,,,,,,,,,,,,,,,,,,,,,,,,,,,,
,,60aadeb9e6e8147089f7eced,2023-12-07_07h28.11.461,kallum_motion_pilot,2023.2.3,Win32,59.97361161,60aadeb9e6e8147089f7eced,6560176e4d91f764e2a42c74,657157d20ea19e92901e6c77,0.0189,0.0189,0,40,40,109,1,seveneight,,,,,,,,,,,,,,,,,,,,,,,,,,,,,,,,,,,,,,,,,,,,,,,,,,,,,,,,,,,,,,,,,,,,,,,,,,,,,,,,,,,,,,,,,,,,,,,,,,,,,,,,,,,,,,,,,,,,,,,,,,,,,,,,,,,,,,,
,,60aadeb9e6e8147089f7eced,2023-12-07_07h28.11.461,kallum_motion_pilot,2023.2.3,Win32,59.97361161,60aadeb9e6e8147089f7eced,6560176e4d91f764e2a42c74,657157d20ea19e92901e6c77,0.0189,0.0189,0,41,41,23,1,fourthree,,,,,,,,,,,,,,,,,,,,,,,,,,,,,,,,,,,,,,,,,,,,,,,,,,,,,,,,,,,,,,,,,,,,,,,,,,,,,,,,,,,,,,,,,,,,,,,,,,,,,,,,,,,,,,,,,,,,,,,,,,,,,,,,,,,,,,,
,,60aadeb9e6e8147089f7eced,2023-12-07_07h28.11.461,kallum_motion_pilot,2023.2.3,Win32,59.97361161,60aadeb9e6e8147089f7eced,6560176e4d91f764e2a42c74,657157d20ea19e92901e6c77,0.019,0.019,0,42,42,58,1,twoone,,,,,,,,,,,,,,,,,,,,,,,,,,,,,,,,,,,,,,,,,,,,,,,,,,,,,,,,,,,,,,,,,,,,,,,,,,,,,,,,,,,,,,,,,,,,,,,,,,,,,,,,,,,,,,,,,,,,,,,,,,,,,,,,,,,,,,,
,,60aadeb9e6e8147089f7eced,2023-12-07_07h28.11.461,kallum_motion_pilot,2023.2.3,Win32,59.97361161,60aadeb9e6e8147089f7eced,6560176e4d91f764e2a42c74,657157d20ea19e92901e6c77,0.019,0.019,0,43,43,2,1,twoone,,,,,,,,,,,,,,,,,,,,,,,,,,,,,,,,,,,,,,,,,,,,,,,,,,,,,,,,,,,,,,,,,,,,,,,,,,,,,,,,,,,,,,,,,,,,,,,,,,,,,,,,,,,,,,,,,,,,,,,,,,,,,,,,,,,,,,,
,,60aadeb9e6e8147089f7eced,2023-12-07_07h28.11.461,kallum_motion_pilot,2023.2.3,Win32,59.97361161,60aadeb9e6e8147089f7eced,6560176e4d91f764e2a42c74,657157d20ea19e92901e6c77,0.019,0.0191,0,44,44,142,1,eightsix,,,,,,,,,,,,,,,,,,,,,,,,,,,,,,,,,,,,,,,,,,,,,,,,,,,,,,,,,,,,,,,,,,,,,,,,,,,,,,,,,,,,,,,,,,,,,,,,,,,,,,,,,,,,,,,,,,,,,,,,,,,,,,,,,,,,,,,
,,60aadeb9e6e8147089f7eced,2023-12-07_07h28.11.461,kallum_motion_pilot,2023.2.3,Win32,59.97361161,60aadeb9e6e8147089f7eced,6560176e4d91f764e2a42c74,657157d20ea19e92901e6c77,0.0191,0.0191,0,45,45,54,1,fourtwo,,,,,,,,,,,,,,,,,,,,,,,,,,,,,,,,,,,,,,,,,,,,,,,,,,,,,,,,,,,,,,,,,,,,,,,,,,,,,,,,,,,,,,,,,,,,,,,,,,,,,,,,,,,,,,,,,,,,,,,,,,,,,,,,,,,,,,,
,,60aadeb9e6e8147089f7eced,2023-12-07_07h28.11.461,kallum_motion_pilot,2023.2.3,Win32,59.97361161,60aadeb9e6e8147089f7eced,6560176e4d91f764e2a42c74,657157d20ea19e92901e6c77,0.0191,0.0192,0,46,46,97,1,fiveseven,,,,,,,,,,,,,,,,,,,,,,,,,,,,,,,,,,,,,,,,,,,,,,,,,,,,,,,,,,,,,,,,,,,,,,,,,,,,,,,,,,,,,,,,,,,,,,,,,,,,,,,,,,,,,,,,,,,,,,,,,,,,,,,,,,,,,,,
,,60aadeb9e6e8147089f7eced,2023-12-07_07h28.11.461,kallum_motion_pilot,2023.2.3,Win32,59.97361161,60aadeb9e6e8147089f7eced,6560176e4d91f764e2a42c74,657157d20ea19e92901e6c77,0.0192,0.0192,0,47,47,24,1,onetwo,,,,,,,,,,,,,,,,,,,,,,,,,,,,,,,,,,,,,,,,,,,,,,,,,,,,,,,,,,,,,,,,,,,,,,,,,,,,,,,,,,,,,,,,,,,,,,,,,,,,,,,,,,,,,,,,,,,,,,,,,,,,,,,,,,,,,,,
,,60aadeb9e6e8147089f7eced,2023-12-07_07h28.11.461,kallum_motion_pilot,2023.2.3,Win32,59.97361161,60aadeb9e6e8147089f7eced,6560176e4d91f764e2a42c74,657157d20ea19e92901e6c77,0.0192,0.0193,0,48,48,144,1,fivesix,,,,,,,,,,,,,,,,,,,,,,,,,,,,,,,,,,,,,,,,,,,,,,,,,,,,,,,,,,,,,,,,,,,,,,,,,,,,,,,,,,,,,,,,,,,,,,,,,,,,,,,,,,,,,,,,,,,,,,,,,,,,,,,,,,,,,,,
,,60aadeb9e6e8147089f7eced,2023-12-07_07h28.11.461,kallum_motion_pilot,2023.2.3,Win32,59.97361161,60aadeb9e6e8147089f7eced,6560176e4d91f764e2a42c74,657157d20ea19e92901e6c77,0.0193,0.0193,0,49,49,76,1,threeone,,,,,,,,,,,,,,,,,,,,,,,,,,,,,,,,,,,,,,,,,,,,,,,,,,,,,,,,,,,,,,,,,,,,,,,,,,,,,,,,,,,,,,,,,,,,,,,,,,,,,,,,,,,,,,,,,,,,,,,,,,,,,,,,,,,,,,,
,,60aadeb9e6e8147089f7eced,2023-12-07_07h28.11.461,kallum_motion_pilot,2023.2.3,Win32,59.97361161,60aadeb9e6e8147089f7eced,6560176e4d91f764e2a42c74,657157d20ea19e92901e6c77,0.0193,0.0193,0,50,50,67,1,twofour,,,,,,,,,,,,,,,,,,,,,,,,,,,,,,,,,,,,,,,,,,,,,,,,,,,,,,,,,,,,,,,,,,,,,,,,,,,,,,,,,,,,,,,,,,,,,,,,,,,,,,,,,,,,,,,,,,,,,,,,,,,,,,,,,,,,,,,
,,60aadeb9e6e8147089f7eced,2023-12-07_07h28.11.461,kallum_motion_pilot,2023.2.3,Win32,59.97361161,60aadeb9e6e8147089f7eced,6560176e4d91f764e2a42c74,657157d20ea19e92901e6c77,0.0194,0.0194,0,51,51,4,1,threeone,,,,,,,,,,,,,,,,,,,,,,,,,,,,,,,,,,,,,,,,,,,,,,,,,,,,,,,,,,,,,,,,,,,,,,,,,,,,,,,,,,,,,,,,,,,,,,,,,,,,,,,,,,,,,,,,,,,,,,,,,,,,,,,,,,,,,,,
,,60aadeb9e6e8147089f7eced,2023-12-07_07h28.11.461,kallum_motion_pilot,2023.2.3,Win32,59.97361161,60aadeb9e6e8147089f7eced,6560176e4d91f764e2a42c74,657157d20ea19e92901e6c77,0.0194,0.0194,0,52,52,68,1,threeone,,,,,,,,,,,,,,,,,,,,,,,,,,,,,,,,,,,,,,,,,,,,,,,,,,,,,,,,,,,,,,,,,,,,,,,,,,,,,,,,,,,,,,,,,,,,,,,,,,,,,,,,,,,,,,,,,,,,,,,,,,,,,,,,,,,,,,,
,,60aadeb9e6e8147089f7eced,2023-12-07_07h28.11.461,kallum_motion_pilot,2023.2.3,Win32,59.97361161,60aadeb9e6e8147089f7eced,6560176e4d91f764e2a42c74,657157d20ea19e92901e6c77,0.0195,0.0195,0,53,53,45,1,threefour,,,,,,,,,,,,,,,,,,,,,,,,,,,,,,,,,,,,,,,,,,,,,,,,,,,,,,,,,,,,,,,,,,,,,,,,,,,,,,,,,,,,,,,,,,,,,,,,,,,,,,,,,,,,,,,,,,,,,,,,,,,,,,,,,,,,,,,
,,60aadeb9e6e8147089f7eced,2023-12-07_07h28.11.461,kallum_motion_pilot,2023.2.3,Win32,59.97361161,60aadeb9e6e8147089f7eced,6560176e4d91f764e2a42c74,657157d20ea19e92901e6c77,0.0195,0.0195,0,54,54,69,1,threefour,,,,,,,,,,,,,,,,,,,,,,,,,,,,,,,,,,,,,,,,,,,,,,,,,,,,,,,,,,,,,,,,,,,,,,,,,,,,,,,,,,,,,,,,,,,,,,,,,,,,,,,,,,,,,,,,,,,,,,,,,,,,,,,,,,,,,,,
,,60aadeb9e6e8147089f7eced,2023-12-07_07h28.11.461,kallum_motion_pilot,2023.2.3,Win32,59.97361161,60aadeb9e6e8147089f7eced,6560176e4d91f764e2a42c74,657157d20ea19e92901e6c77,0.0195,0.0195,0,55,55,155,1,sixeight,,,,,,,,,,,,,,,,,,,,,,,,,,,,,,,,,,,,,,,,,,,,,,,,,,,,,,,,,,,,,,,,,,,,,,,,,,,,,,,,,,,,,,,,,,,,,,,,,,,,,,,,,,,,,,,,,,,,,,,,,,,,,,,,,,,,,,,
,,60aadeb9e6e8147089f7eced,2023-12-07_07h28.11.461,kallum_motion_pilot,2023.2.3,Win32,59.97361161,60aadeb9e6e8147089f7eced,6560176e4d91f764e2a42c74,657157d20ea19e92901e6c77,0.0196,0.0196,0,56,56,145,1,fiveseven,,,,,,,,,,,,,,,,,,,,,,,,,,,,,,,,,,,,,,,,,,,,,,,,,,,,,,,,,,,,,,,,,,,,,,,,,,,,,,,,,,,,,,,,,,,,,,,,,,,,,,,,,,,,,,,,,,,,,,,,,,,,,,,,,,,,,,,
,,60aadeb9e6e8147089f7eced,2023-12-07_07h28.11.461,kallum_motion_pilot,2023.2.3,Win32,59.97361161,60aadeb9e6e8147089f7eced,6560176e4d91f764e2a42c74,657157d20ea19e92901e6c77,0.0196,0.0197,0,57,57,112,1,fivesix,,,,,,,,,,,,,,,,,,,,,,,,,,,,,,,,,,,,,,,,,,,,,,,,,,,,,,,,,,,,,,,,,,,,,,,,,,,,,,,,,,,,,,,,,,,,,,,,,,,,,,,,,,,,,,,,,,,,,,,,,,,,,,,,,,,,,,,
,,60aadeb9e6e8147089f7eced,2023-12-07_07h28.11.461,kallum_motion_pilot,2023.2.3,Win32,59.97361161,60aadeb9e6e8147089f7eced,6560176e4d91f764e2a42c74,657157d20ea19e92901e6c77,0.0197,0.0197,0,58,58,18,1,twoone,,,,,,,,,,,,,,,,,,,,,,,,,,,,,,,,,,,,,,,,,,,,,,,,,,,,,,,,,,,,,,,,,,,,,,,,,,,,,,,,,,,,,,,,,,,,,,,,,,,,,,,,,,,,,,,,,,,,,,,,,,,,,,,,,,,,,,,
,,60aadeb9e6e8147089f7eced,2023-12-07_07h28.11.461,kallum_motion_pilot,2023.2.3,Win32,59.97361161,60aadeb9e6e8147089f7eced,6560176e4d91f764e2a42c74,657157d20ea19e92901e6c77,0.0197,0.0197,0,59,59,134,1,eightsix,,,,,,,,,,,,,,,,,,,,,,,,,,,,,,,,,,,,,,,,,,,,,,,,,,,,,,,,,,,,,,,,,,,,,,,,,,,,,,,,,,,,,,,,,,,,,,,,,,,,,,,,,,,,,,,,,,,,,,,,,,,,,,,,,,,,,,,
,,60aadeb9e6e8147089f7eced,2023-12-07_07h28.11.461,kallum_motion_pilot,2023.2.3,Win32,59.97361161,60aadeb9e6e8147089f7eced,6560176e4d91f764e2a42c74,657157d20ea19e92901e6c77,0.0197,0.0198,0,60,60,152,1,fivesix,,,,,,,,,,,,,,,,,,,,,,,,,,,,,,,,,,,,,,,,,,,,,,,,,,,,,,,,,,,,,,,,,,,,,,,,,,,,,,,,,,,,,,,,,,,,,,,,,,,,,,,,,,,,,,,,,,,,,,,,,,,,,,,,,,,,,,,
,,60aadeb9e6e8147089f7eced,2023-12-07_07h28.11.461,kallum_motion_pilot,2023.2.3,Win32,59.97361161,60aadeb9e6e8147089f7eced,6560176e4d91f764e2a42c74,657157d20ea19e92901e6c77,0.0199,0.0199,0,61,61,132,1,sevenfive,,,,,,,,,,,,,,,,,,,,,,,,,,,,,,,,,,,,,,,,,,,,,,,,,,,,,,,,,,,,,,,,,,,,,,,,,,,,,,,,,,,,,,,,,,,,,,,,,,,,,,,,,,,,,,,,,,,,,,,,,,,,,,,,,,,,,,,
,,60aadeb9e6e8147089f7eced,2023-12-07_07h28.11.461,kallum_motion_pilot,2023.2.3,Win32,59.97361161,60aadeb9e6e8147089f7eced,6560176e4d91f764e2a42c74,657157d20ea19e92901e6c77,0.0199,0.0199,0,62,62,16,1,onetwo,,,,,,,,,,,,,,,,,,,,,,,,,,,,,,,,,,,,,,,,,,,,,,,,,,,,,,,,,,,,,,,,,,,,,,,,,,,,,,,,,,,,,,,,,,,,,,,,,,,,,,,,,,,,,,,,,,,,,,,,,,,,,,,,,,,,,,,
,,60aadeb9e6e8147089f7eced,2023-12-07_07h28.11.461,kallum_motion_pilot,2023.2.3,Win32,59.97361161,60aadeb9e6e8147089f7eced,6560176e4d91f764e2a42c74,657157d20ea19e92901e6c77,0.02,0.02,0,63,63,117,1,seveneight,,,,,,,,,,,,,,,,,,,,,,,,,,,,,,,,,,,,,,,,,,,,,,,,,,,,,,,,,,,,,,,,,,,,,,,,,,,,,,,,,,,,,,,,,,,,,,,,,,,,,,,,,,,,,,,,,,,,,,,,,,,,,,,,,,,,,,,
,,60aadeb9e6e8147089f7eced,2023-12-07_07h28.11.461,kallum_motion_pilot,2023.2.3,Win32,59.97361161,60aadeb9e6e8147089f7eced,6560176e4d91f764e2a42c74,657157d20ea19e92901e6c77,0.02,0.02,0,64,64,156,1,sevenfive,,,,,,,,,,,,,,,,,,,,,,,,,,,,,,,,,,,,,,,,,,,,,,,,,,,,,,,,,,,,,,,,,,,,,,,,,,,,,,,,,,,,,,,,,,,,,,,,,,,,,,,,,,,,,,,,,,,,,,,,,,,,,,,,,,,,,,,
,,60aadeb9e6e8147089f7eced,2023-12-07_07h28.11.461,kallum_motion_pilot,2023.2.3,Win32,59.97361161,60aadeb9e6e8147089f7eced,6560176e4d91f764e2a42c74,657157d20ea19e92901e6c77,0.0201,0.0201,0,65,65,7,1,fourthree,,,,,,,,,,,,,,,,,,,,,,,,,,,,,,,,,,,,,,,,,,,,,,,,,,,,,,,,,,,,,,,,,,,,,,,,,,,,,,,,,,,,,,,,,,,,,,,,,,,,,,,,,,,,,,,,,,,,,,,,,,,,,,,,,,,,,,,
,,60aadeb9e6e8147089f7eced,2023-12-07_07h28.11.461,kallum_motion_pilot,2023.2.3,Win32,59.97361161,60aadeb9e6e8147089f7eced,6560176e4d91f764e2a42c74,657157d20ea19e92901e6c77,0.0201,0.0202,0,66,66,150,1,eightsix,,,,,,,,,,,,,,,,,,,,,,,,,,,,,,,,,,,,,,,,,,,,,,,,,,,,,,,,,,,,,,,,,,,,,,,,,,,,,,,,,,,,,,,,,,,,,,,,,,,,,,,,,,,,,,,,,,,,,,,,,,,,,,,,,,,,,,,
,,60aadeb9e6e8147089f7eced,2023-12-07_07h28.11.461,kallum_motion_pilot,2023.2.3,Win32,59.97361161,60aadeb9e6e8147089f7eced,6560176e4d91f764e2a42c74,657157d20ea19e92901e6c77,0.0202,0.0202,0,67,67,56,1,onetwo,,,,,,,,,,,,,,,,,,,,,,,,,,,,,,,,,,,,,,,,,,,,,,,,,,,,,,,,,,,,,,,,,,,,,,,,,,,,,,,,,,,,,,,,,,,,,,,,,,,,,,,,,,,,,,,,,,,,,,,,,,,,,,,,,,,,,,,
,,60aadeb9e6e8147089f7eced,2023-12-07_07h28.11.461,kallum_motion_pilot,2023.2.3,Win32,59.97361161,60aadeb9e6e8147089f7eced,6560176e4d91f764e2a42c74,657157d20ea19e92901e6c77,0.0202,0.0202,0,68,68,71,1,fourthree,,,,,,,,,,,,,,,,,,,,,,,,,,,,,,,,,,,,,,,,,,,,,,,,,,,,,,,,,,,,,,,,,,,,,,,,,,,,,,,,,,,,,,,,,,,,,,,,,,,,,,,,,,,,,,,,,,,,,,,,,,,,,,,,,,,,,,,
,,60aadeb9e6e8147089f7eced,2023-12-07_07h28.11.461,kallum_motion_pilot,2023.2.3,Win32,59.97361161,60aadeb9e6e8147089f7eced,6560176e4d91f764e2a42c74,657157d20ea19e92901e6c77,0.0203,0.0203,0,69,69,91,1,sixeight,,,,,,,,,,,,,,,,,,,,,,,,,,,,,,,,,,,,,,,,,,,,,,,,,,,,,,,,,,,,,,,,,,,,,,,,,,,,,,,,,,,,,,,,,,,,,,,,,,,,,,,,,,,,,,,,,,,,,,,,,,,,,,,,,,,,,,,
,,60aadeb9e6e8147089f7eced,2023-12-07_07h28.11.461,kallum_motion_pilot,2023.2.3,Win32,59.97361161,60aadeb9e6e8147089f7eced,6560176e4d91f764e2a42c74,657157d20ea19e92901e6c77,0.0204,0.0204,0,70,70,10,1,twoone,,,,,,,,,,,,,,,,,,,,,,,,,,,,,,,,,,,,,,,,,,,,,,,,,,,,,,,,,,,,,,,,,,,,,,,,,,,,,,,,,,,,,,,,,,,,,,,,,,,,,,,,,,,,,,,,,,,,,,,,,,,,,,,,,,,,,,,
,,60aadeb9e6e8147089f7eced,2023-12-07_07h28.11.461,kallum_motion_pilot,2023.2.3,Win32,59.97361161,60aadeb9e6e8147089f7eced,6560176e4d91f764e2a42c74,657157d20ea19e92901e6c77,0.0205,0.0205,0,71,71,161,1,fiveseven,,,,,,,,,,,,,,,,,,,,,,,,,,,,,,,,,,,,,,,,,,,,,,,,,,,,,,,,,,,,,,,,,,,,,,,,,,,,,,,,,,,,,,,,,,,,,,,,,,,,,,,,,,,,,,,,,,,,,,,,,,,,,,,,,,,,,,,
,,60aadeb9e6e8147089f7eced,2023-12-07_07h28.11.461,kallum_motion_pilot,2023.2.3,Win32,59.97361161,60aadeb9e6e8147089f7eced,6560176e4d91f764e2a42c74,657157d20ea19e92901e6c77,0.0205,0.0205,0,72,72,31,1,fourthree,,,,,,,,,,,,,,,,,,,,,,,,,,,,,,,,,,,,,,,,,,,,,,,,,,,,,,,,,,,,,,,,,,,,,,,,,,,,,,,,,,,,,,,,,,,,,,,,,,,,,,,,,,,,,,,,,,,,,,,,,,,,,,,,,,,,,,,
,,60aadeb9e6e8147089f7eced,2023-12-07_07h28.11.461,kallum_motion_pilot,2023.2.3,Win32,59.97361161,60aadeb9e6e8147089f7eced,6560176e4d91f764e2a42c74,657157d20ea19e92901e6c77,0.0205,0.0205,0,73,73,130,1,sixfive,,,,,,,,,,,,,,,,,,,,,,,,,,,,,,,,,,,,,,,,,,,,,,,,,,,,,,,,,,,,,,,,,,,,,,,,,,,,,,,,,,,,,,,,,,,,,,,,,,,,,,,,,,,,,,,,,,,,,,,,,,,,,,,,,,,,,,,
,,60aadeb9e6e8147089f7eced,2023-12-07_07h28.11.461,kallum_motion_pilot,2023.2.3,Win32,59.97361161,60aadeb9e6e8147089f7eced,6560176e4d91f764e2a42c74,657157d20ea19e92901e6c77,0.0205,0.0206,0,74,74,17,1,onethree,,,,,,,,,,,,,,,,,,,,,,,,,,,,,,,,,,,,,,,,,,,,,,,,,,,,,,,,,,,,,,,,,,,,,,,,,,,,,,,,,,,,,,,,,,,,,,,,,,,,,,,,,,,,,,,,,,,,,,,,,,,,,,,,,,,,,,,
,,60aadeb9e6e8147089f7eced,2023-12-07_07h28.11.461,kallum_motion_pilot,2023.2.3,Win32,59.97361161,60aadeb9e6e8147089f7eced,6560176e4d91f764e2a42c74,657157d20ea19e92901e6c77,0.0206,0.0207,0,75,75,25,1,onethree,,,,,,,,,,,,,,,,,,,,,,,,,,,,,,,,,,,,,,,,,,,,,,,,,,,,,,,,,,,,,,,,,,,,,,,,,,,,,,,,,,,,,,,,,,,,,,,,,,,,,,,,,,,,,,,,,,,,,,,,,,,,,,,,,,,,,,,
,,60aadeb9e6e8147089f7eced,2023-12-07_07h28.11.461,kallum_motion_pilot,2023.2.3,Win32,59.97361161,60aadeb9e6e8147089f7eced,6560176e4d91f764e2a42c74,657157d20ea19e92901e6c77,0.0207,0.0207,0,76,76,101,1,seveneight,,,,,,,,,,,,,,,,,,,,,,,,,,,,,,,,,,,,,,,,,,,,,,,,,,,,,,,,,,,,,,,,,,,,,,,,,,,,,,,,,,,,,,,,,,,,,,,,,,,,,,,,,,,,,,,,,,,,,,,,,,,,,,,,,,,,,,,
,,60aadeb9e6e8147089f7eced,2023-12-07_07h28.11.461,kallum_motion_pilot,2023.2.3,Win32,59.97361161,60aadeb9e6e8147089f7eced,6560176e4d91f764e2a42c74,657157d20ea19e92901e6c77,0.0208,0.0208,0,77,77,82,1,sixfive,,,,,,,,,,,,,,,,,,,,,,,,,,,,,,,,,,,,,,,,,,,,,,,,,,,,,,,,,,,,,,,,,,,,,,,,,,,,,,,,,,,,,,,,,,,,,,,,,,,,,,,,,,,,,,,,,,,,,,,,,,,,,,,,,,,,,,,
,,60aadeb9e6e8147089f7eced,2023-12-07_07h28.11.461,kallum_motion_pilot,2023.2.3,Win32,59.97361161,60aadeb9e6e8147089f7eced,6560176e4d91f764e2a42c74,657157d20ea19e92901e6c77,0.0208,0.0209,0,78,78,104,1,fivesix,,,,,,,,,,,,,,,,,,,,,,,,,,,,,,,,,,,,,,,,,,,,,,,,,,,,,,,,,,,,,,,,,,,,,,,,,,,,,,,,,,,,,,,,,,,,,,,,,,,,,,,,,,,,,,,,,,,,,,,,,,,,,,,,,,,,,,,
,,60aadeb9e6e8147089f7eced,2023-12-07_07h28.11.461,kallum_motion_pilot,2023.2.3,Win32,59.97361161,60aadeb9e6e8147089f7eced,6560176e4d91f764e2a42c74,657157d20ea19e92901e6c77,0.0209,0.0209,0,79,79,74,1,twoone,,,,,,,,,,,,,,,,,,,,,,,,,,,,,,,,,,,,,,,,,,,,,,,,,,,,,,,,,,,,,,,,,,,,,,,,,,,,,,,,,,,,,,,,,,,,,,,,,,,,,,,,,,,,,,,,,,,,,,,,,,,,,,,,,,,,,,,
,,60aadeb9e6e8147089f7eced,2023-12-07_07h28.11.461,kallum_motion_pilot,2023.2.3,Win32,59.97361161,60aadeb9e6e8147089f7eced,6560176e4d91f764e2a42c74,657157d20ea19e92901e6c77,0.0209,0.0209,0,80,80,33,1,onethree,,,,,,,,,,,,,,,,,,,,,,,,,,,,,,,,,,,,,,,,,,,,,,,,,,,,,,,,,,,,,,,,,,,,,,,,,,,,,,,,,,,,,,,,,,,,,,,,,,,,,,,,,,,,,,,,,,,,,,,,,,,,,,,,,,,,,,,
,,60aadeb9e6e8147089f7eced,2023-12-07_07h28.11.461,kallum_motion_pilot,2023.2.3,Win32,59.97361161,60aadeb9e6e8147089f7eced,6560176e4d91f764e2a42c74,657157d20ea19e92901e6c77,0.0209,0.021,0,81,81,159,1,eightseven,,,,,,,,,,,,,,,,,,,,,,,,,,,,,,,,,,,,,,,,,,,,,,,,,,,,,,,,,,,,,,,,,,,,,,,,,,,,,,,,,,,,,,,,,,,,,,,,,,,,,,,,,,,,,,,,,,,,,,,,,,,,,,,,,,,,,,,
,,60aadeb9e6e8147089f7eced,2023-12-07_07h28.11.461,kallum_motion_pilot,2023.2.3,Win32,59.97361161,60aadeb9e6e8147089f7eced,6560176e4d91f764e2a42c74,657157d20ea19e92901e6c77,0.021,0.0211,0,82,82,40,1,onetwo,,,,,,,,,,,,,,,,,,,,,,,,,,,,,,,,,,,,,,,,,,,,,,,,,,,,,,,,,,,,,,,,,,,,,,,,,,,,,,,,,,,,,,,,,,,,,,,,,,,,,,,,,,,,,,,,,,,,,,,,,,,,,,,,,,,,,,,
,,60aadeb9e6e8147089f7eced,2023-12-07_07h28.11.461,kallum_motion_pilot,2023.2.3,Win32,59.97361161,60aadeb9e6e8147089f7eced,6560176e4d91f764e2a42c74,657157d20ea19e92901e6c77,0.0211,0.0211,0,83,83,80,1,fivesix,,,,,,,,,,,,,,,,,,,,,,,,,,,,,,,,,,,,,,,,,,,,,,,,,,,,,,,,,,,,,,,,,,,,,,,,,,,,,,,,,,,,,,,,,,,,,,,,,,,,,,,,,,,,,,,,,,,,,,,,,,,,,,,,,,,,,,,
,,60aadeb9e6e8147089f7eced,2023-12-07_07h28.11.461,kallum_motion_pilot,2023.2.3,Win32,59.97361161,60aadeb9e6e8147089f7eced,6560176e4d91f764e2a42c74,657157d20ea19e92901e6c77,0.0211,0.0212,0,84,84,78,1,fourtwo,,,,,,,,,,,,,,,,,,,,,,,,,,,,,,,,,,,,,,,,,,,,,,,,,,,,,,,,,,,,,,,,,,,,,,,,,,,,,,,,,,,,,,,,,,,,,,,,,,,,,,,,,,,,,,,,,,,,,,,,,,,,,,,,,,,,,,,
,,60aadeb9e6e8147089f7eced,2023-12-07_07h28.11.461,kallum_motion_pilot,2023.2.3,Win32,59.97361161,60aadeb9e6e8147089f7eced,6560176e4d91f764e2a42c74,657157d20ea19e92901e6c77,0.0212,0.0212,0,85,85,19,1,twofour,,,,,,,,,,,,,,,,,,,,,,,,,,,,,,,,,,,,,,,,,,,,,,,,,,,,,,,,,,,,,,,,,,,,,,,,,,,,,,,,,,,,,,,,,,,,,,,,,,,,,,,,,,,,,,,,,,,,,,,,,,,,,,,,,,,,,,,
,,60aadeb9e6e8147089f7eced,2023-12-07_07h28.11.461,kallum_motion_pilot,2023.2.3,Win32,59.97361161,60aadeb9e6e8147089f7eced,6560176e4d91f764e2a42c74,657157d20ea19e92901e6c77,0.0212,0.0212,0,86,86,52,1,threeone,,,,,,,,,,,,,,,,,,,,,,,,,,,,,,,,,,,,,,,,,,,,,,,,,,,,,,,,,,,,,,,,,,,,,,,,,,,,,,,,,,,,,,,,,,,,,,,,,,,,,,,,,,,,,,,,,,,,,,,,,,,,,,,,,,,,,,,
,,60aadeb9e6e8147089f7eced,2023-12-07_07h28.11.461,kallum_motion_pilot,2023.2.3,Win32,59.97361161,60aadeb9e6e8147089f7eced,6560176e4d91f764e2a42c74,657157d20ea19e92901e6c77,0.0212,0.0213,0,87,87,14,1,fourtwo,,,,,,,,,,,,,,,,,,,,,,,,,,,,,,,,,,,,,,,,,,,,,,,,,,,,,,,,,,,,,,,,,,,,,,,,,,,,,,,,,,,,,,,,,,,,,,,,,,,,,,,,,,,,,,,,,,,,,,,,,,,,,,,,,,,,,,,
,,60aadeb9e6e8147089f7eced,2023-12-07_07h28.11.461,kallum_motion_pilot,2023.2.3,Win32,59.97361161,60aadeb9e6e8147089f7eced,6560176e4d91f764e2a42c74,657157d20ea19e92901e6c77,0.0214,0.0214,0,88,88,129,1,fiveseven,,,,,,,,,,,,,,,,,,,,,,,,,,,,,,,,,,,,,,,,,,,,,,,,,,,,,,,,,,,,,,,,,,,,,,,,,,,,,,,,,,,,,,,,,,,,,,,,,,,,,,,,,,,,,,,,,,,,,,,,,,,,,,,,,,,,,,,
,,60aadeb9e6e8147089f7eced,2023-12-07_07h28.11.461,kallum_motion_pilot,2023.2.3,Win32,59.97361161,60aadeb9e6e8147089f7eced,6560176e4d91f764e2a42c74,657157d20ea19e92901e6c77,0.0214,0.0214,0,89,89,57,1,onethree,,,,,,,,,,,,,,,,,,,,,,,,,,,,,,,,,,,,,,,,,,,,,,,,,,,,,,,,,,,,,,,,,,,,,,,,,,,,,,,,,,,,,,,,,,,,,,,,,,,,,,,,,,,,,,,,,,,,,,,,,,,,,,,,,,,,,,,
,,60aadeb9e6e8147089f7eced,2023-12-07_07h28.11.461,kallum_motion_pilot,2023.2.3,Win32,59.97361161,60aadeb9e6e8147089f7eced,6560176e4d91f764e2a42c74,657157d20ea19e92901e6c77,0.0214,0.0214,0,90,90,106,1,sixfive,,,,,,,,,,,,,,,,,,,,,,,,,,,,,,,,,,,,,,,,,,,,,,,,,,,,,,,,,,,,,,,,,,,,,,,,,,,,,,,,,,,,,,,,,,,,,,,,,,,,,,,,,,,,,,,,,,,,,,,,,,,,,,,,,,,,,,,
,,60aadeb9e6e8147089f7eced,2023-12-07_07h28.11.461,kallum_motion_pilot,2023.2.3,Win32,59.97361161,60aadeb9e6e8147089f7eced,6560176e4d91f764e2a42c74,657157d20ea19e92901e6c77,0.0215,0.0215,0,91,91,15,1,fourthree,,,,,,,,,,,,,,,,,,,,,,,,,,,,,,,,,,,,,,,,,,,,,,,,,,,,,,,,,,,,,,,,,,,,,,,,,,,,,,,,,,,,,,,,,,,,,,,,,,,,,,,,,,,,,,,,,,,,,,,,,,,,,,,,,,,,,,,
,,60aadeb9e6e8147089f7eced,2023-12-07_07h28.11.461,kallum_motion_pilot,2023.2.3,Win32,59.97361161,60aadeb9e6e8147089f7eced,6560176e4d91f764e2a42c74,657157d20ea19e92901e6c77,0.0216,0.0216,0,92,92,98,1,sixfive,,,,,,,,,,,,,,,,,,,,,,,,,,,,,,,,,,,,,,,,,,,,,,,,,,,,,,,,,,,,,,,,,,,,,,,,,,,,,,,,,,,,,,,,,,,,,,,,,,,,,,,,,,,,,,,,,,,,,,,,,,,,,,,,,,,,,,,
,,60aadeb9e6e8147089f7eced,2023-12-07_07h28.11.461,kallum_motion_pilot,2023.2.3,Win32,59.97361161,60aadeb9e6e8147089f7eced,6560176e4d91f764e2a42c74,657157d20ea19e92901e6c77,0.0216,0.0216,0,93,93,105,1,fiveseven,,,,,,,,,,,,,,,,,,,,,,,,,,,,,,,,,,,,,,,,,,,,,,,,,,,,,,,,,,,,,,,,,,,,,,,,,,,,,,,,,,,,,,,,,,,,,,,,,,,,,,,,,,,,,,,,,,,,,,,,,,,,,,,,,,,,,,,
,,60aadeb9e6e8147089f7eced,2023-12-07_07h28.11.461,kallum_motion_pilot,2023.2.3,Win32,59.97361161,60aadeb9e6e8147089f7eced,6560176e4d91f764e2a42c74,657157d20ea19e92901e6c77,0.0217,0.0217,0,94,94,135,1,eightseven,,,,,,,,,,,,,,,,,,,,,,,,,,,,,,,,,,,,,,,,,,,,,,,,,,,,,,,,,,,,,,,,,,,,,,,,,,,,,,,,,,,,,,,,,,,,,,,,,,,,,,,,,,,,,,,,,,,,,,,,,,,,,,,,,,,,,,,
,,60aadeb9e6e8147089f7eced,2023-12-07_07h28.11.461,kallum_motion_pilot,2023.2.3,Win32,59.97361161,60aadeb9e6e8147089f7eced,6560176e4d91f764e2a42c74,657157d20ea19e92901e6c77,0.0217,0.0218,0,95,95,61,1,threefour,,,,,,,,,,,,,,,,,,,,,,,,,,,,,,,,,,,,,,,,,,,,,,,,,,,,,,,,,,,,,,,,,,,,,,,,,,,,,,,,,,,,,,,,,,,,,,,,,,,,,,,,,,,,,,,,,,,,,,,,,,,,,,,,,,,,,,,
,,60aadeb9e6e8147089f7eced,2023-12-07_07h28.11.461,kallum_motion_pilot,2023.2.3,Win32,59.97361161,60aadeb9e6e8147089f7eced,6560176e4d91f764e2a42c74,657157d20ea19e92901e6c77,0.0218,0.0219,0,96,96,114,1,sixfive,,,,,,,,,,,,,,,,,,,,,,,,,,,,,,,,,,,,,,,,,,,,,,,,,,,,,,,,,,,,,,,,,,,,,,,,,,,,,,,,,,,,,,,,,,,,,,,,,,,,,,,,,,,,,,,,,,,,,,,,,,,,,,,,,,,,,,,
,,60aadeb9e6e8147089f7eced,2023-12-07_07h28.11.461,kallum_motion_pilot,2023.2.3,Win32,59.97361161,60aadeb9e6e8147089f7eced,6560176e4d91f764e2a42c74,657157d20ea19e92901e6c77,0.0219,0.0219,0,97,97,21,1,threefour,,,,,,,,,,,,,,,,,,,,,,,,,,,,,,,,,,,,,,,,,,,,,,,,,,,,,,,,,,,,,,,,,,,,,,,,,,,,,,,,,,,,,,,,,,,,,,,,,,,,,,,,,,,,,,,,,,,,,,,,,,,,,,,,,,,,,,,
,,60aadeb9e6e8147089f7eced,2023-12-07_07h28.11.461,kallum_motion_pilot,2023.2.3,Win32,59.97361161,60aadeb9e6e8147089f7eced,6560176e4d91f764e2a42c74,657157d20ea19e92901e6c77,0.022,0.022,0,98,98,94,1,eightsix,,,,,,,,,,,,,,,,,,,,,,,,,,,,,,,,,,,,,,,,,,,,,,,,,,,,,,,,,,,,,,,,,,,,,,,,,,,,,,,,,,,,,,,,,,,,,,,,,,,,,,,,,,,,,,,,,,,,,,,,,,,,,,,,,,,,,,,
,,60aadeb9e6e8147089f7eced,2023-12-07_07h28.11.461,kallum_motion_pilot,2023.2.3,Win32,59.97361161,60aadeb9e6e8147089f7eced,6560176e4d91f764e2a42c74,657157d20ea19e92901e6c77,0.022,0.022,0,99,99,133,1,seveneight,,,,,,,,,,,,,,,,,,,,,,,,,,,,,,,,,,,,,,,,,,,,,,,,,,,,,,,,,,,,,,,,,,,,,,,,,,,,,,,,,,,,,,,,,,,,,,,,,,,,,,,,,,,,,,,,,,,,,,,,,,,,,,,,,,,,,,,
,,60aadeb9e6e8147089f7eced,2023-12-07_07h28.11.461,kallum_motion_pilot,2023.2.3,Win32,59.97361161,60aadeb9e6e8147089f7eced,6560176e4d91f764e2a42c74,657157d20ea19e92901e6c77,0.0221,0.0221,0,100,100,66,1,twoone,,,,,,,,,,,,,,,,,,,,,,,,,,,,,,,,,,,,,,,,,,,,,,,,,,,,,,,,,,,,,,,,,,,,,,,,,,,,,,,,,,,,,,,,,,,,,,,,,,,,,,,,,,,,,,,,,,,,,,,,,,,,,,,,,,,,,,,
,,60aadeb9e6e8147089f7eced,2023-12-07_07h28.11.461,kallum_motion_pilot,2023.2.3,Win32,59.97361161,60aadeb9e6e8147089f7eced,6560176e4d91f764e2a42c74,657157d20ea19e92901e6c77,0.0222,0.0222,0,101,101,13,1,threefour,,,,,,,,,,,,,,,,,,,,,,,,,,,,,,,,,,,,,,,,,,,,,,,,,,,,,,,,,,,,,,,,,,,,,,,,,,,,,,,,,,,,,,,,,,,,,,,,,,,,,,,,,,,,,,,,,,,,,,,,,,,,,,,,,,,,,,,
,,60aadeb9e6e8147089f7eced,2023-12-07_07h28.11.461,kallum_motion_pilot,2023.2.3,Win32,59.97361161,60aadeb9e6e8147089f7eced,6560176e4d91f764e2a42c74,657157d20ea19e92901e6c77,0.0222,0.0222,0,102,102,153,1,fiveseven,,,,,,,,,,,,,,,,,,,,,,,,,,,,,,,,,,,,,,,,,,,,,,,,,,,,,,,,,,,,,,,,,,,,,,,,,,,,,,,,,,,,,,,,,,,,,,,,,,,,,,,,,,,,,,,,,,,,,,,,,,,,,,,,,,,,,,,
,,60aadeb9e6e8147089f7eced,2023-12-07_07h28.11.461,kallum_motion_pilot,2023.2.3,Win32,59.97361161,60aadeb9e6e8147089f7eced,6560176e4d91f764e2a42c74,657157d20ea19e92901e6c77,0.0223,0.0223,0,103,103,95,1,eightseven,,,,,,,,,,,,,,,,,,,,,,,,,,,,,,,,,,,,,,,,,,,,,,,,,,,,,,,,,,,,,,,,,,,,,,,,,,,,,,,,,,,,,,,,,,,,,,,,,,,,,,,,,,,,,,,,,,,,,,,,,,,,,,,,,,,,,,,
,,60aadeb9e6e8147089f7eced,2023-12-07_07h28.11.461,kallum_motion_pilot,2023.2.3,Win32,59.97361161,60aadeb9e6e8147089f7eced,6560176e4d91f764e2a42c74,657157d20ea19e92901e6c77,0.0223,0.0223,0,104,104,148,1,sevenfive,,,,,,,,,,,,,,,,,,,,,,,,,,,,,,,,,,,,,,,,,,,,,,,,,,,,,,,,,,,,,,,,,,,,,,,,,,,,,,,,,,,,,,,,,,,,,,,,,,,,,,,,,,,,,,,,,,,,,,,,,,,,,,,,,,,,,,,
,,60aadeb9e6e8147089f7eced,2023-12-07_07h28.11.461,kallum_motion_pilot,2023.2.3,Win32,59.97361161,60aadeb9e6e8147089f7eced,6560176e4d91f764e2a42c74,657157d20ea19e92901e6c77,0.0224,0.0224,0,105,105,70,1,fourtwo,,,,,,,,,,,,,,,,,,,,,,,,,,,,,,,,,,,,,,,,,,,,,,,,,,,,,,,,,,,,,,,,,,,,,,,,,,,,,,,,,,,,,,,,,,,,,,,,,,,,,,,,,,,,,,,,,,,,,,,,,,,,,,,,,,,,,,,
,,60aadeb9e6e8147089f7eced,2023-12-07_07h28.11.461,kallum_motion_pilot,2023.2.3,Win32,59.97361161,60aadeb9e6e8147089f7eced,6560176e4d91f764e2a42c74,657157d20ea19e92901e6c77,0.0224,0.0224,0,106,106,125,1,seveneight,,,,,,,,,,,,,,,,,,,,,,,,,,,,,,,,,,,,,,,,,,,,,,,,,,,,,,,,,,,,,,,,,,,,,,,,,,,,,,,,,,,,,,,,,,,,,,,,,,,,,,,,,,,,,,,,,,,,,,,,,,,,,,,,,,,,,,,
,,60aadeb9e6e8147089f7eced,2023-12-07_07h28.11.461,kallum_motion_pilot,2023.2.3,Win32,59.97361161,60aadeb9e6e8147089f7eced,6560176e4d91f764e2a42c74,657157d20ea19e92901e6c77,0.0225,0.0225,0,107,107,139,1,sixeight,,,,,,,,,,,,,,,,,,,,,,,,,,,,,,,,,,,,,,,,,,,,,,,,,,,,,,,,,,,,,,,,,,,,,,,,,,,,,,,,,,,,,,,,,,,,,,,,,,,,,,,,,,,,,,,,,,,,,,,,,,,,,,,,,,,,,,,
,,60aadeb9e6e8147089f7eced,2023-12-07_07h28.11.461,kallum_motion_pilot,2023.2.3,Win32,59.97361161,60aadeb9e6e8147089f7eced,6560176e4d91f764e2a42c74,657157d20ea19e92901e6c77,0.0226,0.0226,0,108,108,115,1,sixeight,,,,,,,,,,,,,,,,,,,,,,,,,,,,,,,,,,,,,,,,,,,,,,,,,,,,,,,,,,,,,,,,,,,,,,,,,,,,,,,,,,,,,,,,,,,,,,,,,,,,,,,,,,,,,,,,,,,,,,,,,,,,,,,,,,,,,,,
,,60aadeb9e6e8147089f7eced,2023-12-07_07h28.11.461,kallum_motion_pilot,2023.2.3,Win32,59.97361161,60aadeb9e6e8147089f7eced,6560176e4d91f764e2a42c74,657157d20ea19e92901e6c77,0.0226,0.0226,0,109,109,60,1,threeone,,,,,,,,,,,,,,,,,,,,,,,,,,,,,,,,,,,,,,,,,,,,,,,,,,,,,,,,,,,,,,,,,,,,,,,,,,,,,,,,,,,,,,,,,,,,,,,,,,,,,,,,,,,,,,,,,,,,,,,,,,,,,,,,,,,,,,,
,,60aadeb9e6e8147089f7eced,2023-12-07_07h28.11.461,kallum_motion_pilot,2023.2.3,Win32,59.97361161,60aadeb9e6e8147089f7eced,6560176e4d91f764e2a42c74,657157d20ea19e92901e6c77,0.0226,0.0227,0,110,110,84,1,sevenfive,,,,,,,,,,,,,,,,,,,,,,,,,,,,,,,,,,,,,,,,,,,,,,,,,,,,,,,,,,,,,,,,,,,,,,,,,,,,,,,,,,,,,,,,,,,,,,,,,,,,,,,,,,,,,,,,,,,,,,,,,,,,,,,,,,,,,,,
,,60aadeb9e6e8147089f7eced,2023-12-07_07h28.11.461,kallum_motion_pilot,2023.2.3,Win32,59.97361161,60aadeb9e6e8147089f7eced,6560176e4d91f764e2a42c74,657157d20ea19e92901e6c77,0.0227,0.0228,0,111,111,42,1,twoone,,,,,,,,,,,,,,,,,,,,,,,,,,,,,,,,,,,,,,,,,,,,,,,,,,,,,,,,,,,,,,,,,,,,,,,,,,,,,,,,,,,,,,,,,,,,,,,,,,,,,,,,,,,,,,,,,,,,,,,,,,,,,,,,,,,,,,,
,,60aadeb9e6e8147089f7eced,2023-12-07_07h28.11.461,kallum_motion_pilot,2023.2.3,Win32,59.97361161,60aadeb9e6e8147089f7eced,6560176e4d91f764e2a42c74,657157d20ea19e92901e6c77,0.0228,0.0228,0,112,112,36,1,threeone,,,,,,,,,,,,,,,,,,,,,,,,,,,,,,,,,,,,,,,,,,,,,,,,,,,,,,,,,,,,,,,,,,,,,,,,,,,,,,,,,,,,,,,,,,,,,,,,,,,,,,,,,,,,,,,,,,,,,,,,,,,,,,,,,,,,,,,
,,60aadeb9e6e8147089f7eced,2023-12-07_07h28.11.461,kallum_motion_pilot,2023.2.3,Win32,59.97361161,60aadeb9e6e8147089f7eced,6560176e4d91f764e2a42c74,657157d20ea19e92901e6c77,0.0228,0.0228,0,113,113,50,1,twoone,,,,,,,,,,,,,,,,,,,,,,,,,,,,,,,,,,,,,,,,,,,,,,,,,,,,,,,,,,,,,,,,,,,,,,,,,,,,,,,,,,,,,,,,,,,,,,,,,,,,,,,,,,,,,,,,,,,,,,,,,,,,,,,,,,,,,,,
,,60aadeb9e6e8147089f7eced,2023-12-07_07h28.11.461,kallum_motion_pilot,2023.2.3,Win32,59.97361161,60aadeb9e6e8147089f7eced,6560176e4d91f764e2a42c74,657157d20ea19e92901e6c77,0.0228,0.0229,0,114,114,88,1,fivesix,,,,,,,,,,,,,,,,,,,,,,,,,,,,,,,,,,,,,,,,,,,,,,,,,,,,,,,,,,,,,,,,,,,,,,,,,,,,,,,,,,,,,,,,,,,,,,,,,,,,,,,,,,,,,,,,,,,,,,,,,,,,,,,,,,,,,,,
,,60aadeb9e6e8147089f7eced,2023-12-07_07h28.11.461,kallum_motion_pilot,2023.2.3,Win32,59.97361161,60aadeb9e6e8147089f7eced,6560176e4d91f764e2a42c74,657157d20ea19e92901e6c77,0.0229,0.023,0,115,115,143,1,eightseven,,,,,,,,,,,,,,,,,,,,,,,,,,,,,,,,,,,,,,,,,,,,,,,,,,,,,,,,,,,,,,,,,,,,,,,,,,,,,,,,,,,,,,,,,,,,,,,,,,,,,,,,,,,,,,,,,,,,,,,,,,,,,,,,,,,,,,,
,,60aadeb9e6e8147089f7eced,2023-12-07_07h28.11.461,kallum_motion_pilot,2023.2.3,Win32,59.97361161,60aadeb9e6e8147089f7eced,6560176e4d91f764e2a42c74,657157d20ea19e92901e6c77,0.023,0.023,0,116,116,116,1,sevenfive,,,,,,,,,,,,,,,,,,,,,,,,,,,,,,,,,,,,,,,,,,,,,,,,,,,,,,,,,,,,,,,,,,,,,,,,,,,,,,,,,,,,,,,,,,,,,,,,,,,,,,,,,,,,,,,,,,,,,,,,,,,,,,,,,,,,,,,
,,60aadeb9e6e8147089f7eced,2023-12-07_07h28.11.461,kallum_motion_pilot,2023.2.3,Win32,59.97361161,60aadeb9e6e8147089f7eced,6560176e4d91f764e2a42c74,657157d20ea19e92901e6c77,0.023,0.023,0,117,117,37,1,threefour,,,,,,,,,,,,,,,,,,,,,,,,,,,,,,,,,,,,,,,,,,,,,,,,,,,,,,,,,,,,,,,,,,,,,,,,,,,,,,,,,,,,,,,,,,,,,,,,,,,,,,,,,,,,,,,,,,,,,,,,,,,,,,,,,,,,,,,
,,60aadeb9e6e8147089f7eced,2023-12-07_07h28.11.461,kallum_motion_pilot,2023.2.3,Win32,59.97361161,60aadeb9e6e8147089f7eced,6560176e4d91f764e2a42c74,657157d20ea19e92901e6c77,0.0231,0.0232,0,118,118,43,1,twofour,,,,,,,,,,,,,,,,,,,,,,,,,,,,,,,,,,,,,,,,,,,,,,,,,,,,,,,,,,,,,,,,,,,,,,,,,,,,,,,,,,,,,,,,,,,,,,,,,,,,,,,,,,,,,,,,,,,,,,,,,,,,,,,,,,,,,,,
,,60aadeb9e6e8147089f7eced,2023-12-07_07h28.11.461,kallum_motion_pilot,2023.2.3,Win32,59.97361161,60aadeb9e6e8147089f7eced,6560176e4d91f764e2a42c74,657157d20ea19e92901e6c77,0.0232,0.0232,0,119,119,149,1,seveneight,,,,,,,,,,,,,,,,,,,,,,,,,,,,,,,,,,,,,,,,,,,,,,,,,,,,,,,,,,,,,,,,,,,,,,,,,,,,,,,,,,,,,,,,,,,,,,,,,,,,,,,,,,,,,,,,,,,,,,,,,,,,,,,,,,,,,,,
,,60aadeb9e6e8147089f7eced,2023-12-07_07h28.11.461,kallum_motion_pilot,2023.2.3,Win32,59.97361161,60aadeb9e6e8147089f7eced,6560176e4d91f764e2a42c74,657157d20ea19e92901e6c77,0.0232,0.0233,0,120,120,11,1,twofour,,,,,,,,,,,,,,,,,,,,,,,,,,,,,,,,,,,,,,,,,,,,,,,,,,,,,,,,,,,,,,,,,,,,,,,,,,,,,,,,,,,,,,,,,,,,,,,,,,,,,,,,,,,,,,,,,,,,,,,,,,,,,,,,,,,,,,,
,,60aadeb9e6e8147089f7eced,2023-12-07_07h28.11.461,kallum_motion_pilot,2023.2.3,Win32,59.97361161,60aadeb9e6e8147089f7eced,6560176e4d91f764e2a42c74,657157d20ea19e92901e6c77,0.0233,0.0233,0,121,121,137,1,fiveseven,,,,,,,,,,,,,,,,,,,,,,,,,,,,,,,,,,,,,,,,,,,,,,,,,,,,,,,,,,,,,,,,,,,,,,,,,,,,,,,,,,,,,,,,,,,,,,,,,,,,,,,,,,,,,,,,,,,,,,,,,,,,,,,,,,,,,,,
,,60aadeb9e6e8147089f7eced,2023-12-07_07h28.11.461,kallum_motion_pilot,2023.2.3,Win32,59.97361161,60aadeb9e6e8147089f7eced,6560176e4d91f764e2a42c74,657157d20ea19e92901e6c77,0.0233,0.0234,0,122,122,39,1,fourthree,,,,,,,,,,,,,,,,,,,,,,,,,,,,,,,,,,,,,,,,,,,,,,,,,,,,,,,,,,,,,,,,,,,,,,,,,,,,,,,,,,,,,,,,,,,,,,,,,,,,,,,,,,,,,,,,,,,,,,,,,,,,,,,,,,,,,,,
,,60aadeb9e6e8147089f7eced,2023-12-07_07h28.11.461,kallum_motion_pilot,2023.2.3,Win32,59.97361161,60aadeb9e6e8147089f7eced,6560176e4d91f764e2a42c74,657157d20ea19e92901e6c77,0.0234,0.0234,0,123,123,47,1,fourthree,,,,,,,,,,,,,,,,,,,,,,,,,,,,,,,,,,,,,,,,,,,,,,,,,,,,,,,,,,,,,,,,,,,,,,,,,,,,,,,,,,,,,,,,,,,,,,,,,,,,,,,,,,,,,,,,,,,,,,,,,,,,,,,,,,,,,,,
,,60aadeb9e6e8147089f7eced,2023-12-07_07h28.11.461,kallum_motion_pilot,2023.2.3,Win32,59.97361161,60aadeb9e6e8147089f7eced,6560176e4d91f764e2a42c74,657157d20ea19e92901e6c77,0.0234,0.0235,0,124,124,77,1,threefour,,,,,,,,,,,,,,,,,,,,,,,,,,,,,,,,,,,,,,,,,,,,,,,,,,,,,,,,,,,,,,,,,,,,,,,,,,,,,,,,,,,,,,,,,,,,,,,,,,,,,,,,,,,,,,,,,,,,,,,,,,,,,,,,,,,,,,,
,,60aadeb9e6e8147089f7eced,2023-12-07_07h28.11.461,kallum_motion_pilot,2023.2.3,Win32,59.97361161,60aadeb9e6e8147089f7eced,6560176e4d91f764e2a42c74,657157d20ea19e92901e6c77,0.0235,0.0235,0,125,125,41,1,onethree,,,,,,,,,,,,,,,,,,,,,,,,,,,,,,,,,,,,,,,,,,,,,,,,,,,,,,,,,,,,,,,,,,,,,,,,,,,,,,,,,,,,,,,,,,,,,,,,,,,,,,,,,,,,,,,,,,,,,,,,,,,,,,,,,,,,,,,
,,60aadeb9e6e8147089f7eced,2023-12-07_07h28.11.461,kallum_motion_pilot,2023.2.3,Win32,59.97361161,60aadeb9e6e8147089f7eced,6560176e4d91f764e2a42c74,657157d20ea19e92901e6c77,0.0236,0.0236,0,126,126,121,1,fiveseven,,,,,,,,,,,,,,,,,,,,,,,,,,,,,,,,,,,,,,,,,,,,,,,,,,,,,,,,,,,,,,,,,,,,,,,,,,,,,,,,,,,,,,,,,,,,,,,,,,,,,,,,,,,,,,,,,,,,,,,,,,,,,,,,,,,,,,,
,,60aadeb9e6e8147089f7eced,2023-12-07_07h28.11.461,kallum_motion_pilot,2023.2.3,Win32,59.97361161,60aadeb9e6e8147089f7eced,6560176e4d91f764e2a42c74,657157d20ea19e92901e6c77,0.0237,0.0237,0,127,127,157,1,seveneight,,,,,,,,,,,,,,,,,,,,,,,,,,,,,,,,,,,,,,,,,,,,,,,,,,,,,,,,,,,,,,,,,,,,,,,,,,,,,,,,,,,,,,,,,,,,,,,,,,,,,,,,,,,,,,,,,,,,,,,,,,,,,,,,,,,,,,,
,,60aadeb9e6e8147089f7eced,2023-12-07_07h28.11.461,kallum_motion_pilot,2023.2.3,Win32,59.97361161,60aadeb9e6e8147089f7eced,6560176e4d91f764e2a42c74,657157d20ea19e92901e6c77,0.0237,0.0238,0,128,128,128,1,fivesix,,,,,,,,,,,,,,,,,,,,,,,,,,,,,,,,,,,,,,,,,,,,,,,,,,,,,,,,,,,,,,,,,,,,,,,,,,,,,,,,,,,,,,,,,,,,,,,,,,,,,,,,,,,,,,,,,,,,,,,,,,,,,,,,,,,,,,,
,,60aadeb9e6e8147089f7eced,2023-12-07_07h28.11.461,kallum_motion_pilot,2023.2.3,Win32,59.97361161,60aadeb9e6e8147089f7eced,6560176e4d91f764e2a42c74,657157d20ea19e92901e6c77,0.0238,0.0239,0,129,129,127,1,eightseven,,,,,,,,,,,,,,,,,,,,,,,,,,,,,,,,,,,,,,,,,,,,,,,,,,,,,,,,,,,,,,,,,,,,,,,,,,,,,,,,,,,,,,,,,,,,,,,,,,,,,,,,,,,,,,,,,,,,,,,,,,,,,,,,,,,,,,,
,,60aadeb9e6e8147089f7eced,2023-12-07_07h28.11.461,kallum_motion_pilot,2023.2.3,Win32,59.97361161,60aadeb9e6e8147089f7eced,6560176e4d91f764e2a42c74,657157d20ea19e92901e6c77,0.0239,0.0239,0,130,130,59,1,twofour,,,,,,,,,,,,,,,,,,,,,,,,,,,,,,,,,,,,,,,,,,,,,,,,,,,,,,,,,,,,,,,,,,,,,,,,,,,,,,,,,,,,,,,,,,,,,,,,,,,,,,,,,,,,,,,,,,,,,,,,,,,,,,,,,,,,,,,
,,60aadeb9e6e8147089f7eced,2023-12-07_07h28.11.461,kallum_motion_pilot,2023.2.3,Win32,59.97361161,60aadeb9e6e8147089f7eced,6560176e4d91f764e2a42c74,657157d20ea19e92901e6c77,0.0239,0.024,0,131,131,75,1,twofour,,,,,,,,,,,,,,,,,,,,,,,,,,,,,,,,,,,,,,,,,,,,,,,,,,,,,,,,,,,,,,,,,,,,,,,,,,,,,,,,,,,,,,,,,,,,,,,,,,,,,,,,,,,,,,,,,,,,,,,,,,,,,,,,,,,,,,,
,,60aadeb9e6e8147089f7eced,2023-12-07_07h28.11.461,kallum_motion_pilot,2023.2.3,Win32,59.97361161,60aadeb9e6e8147089f7eced,6560176e4d91f764e2a42c74,657157d20ea19e92901e6c77,0.024,0.024,0,132,132,64,1,onetwo,,,,,,,,,,,,,,,,,,,,,,,,,,,,,,,,,,,,,,,,,,,,,,,,,,,,,,,,,,,,,,,,,,,,,,,,,,,,,,,,,,,,,,,,,,,,,,,,,,,,,,,,,,,,,,,,,,,,,,,,,,,,,,,,,,,,,,,
,,60aadeb9e6e8147089f7eced,2023-12-07_07h28.11.461,kallum_motion_pilot,2023.2.3,Win32,59.97361161,60aadeb9e6e8147089f7eced,6560176e4d91f764e2a42c74,657157d20ea19e92901e6c77,0.0241,0.0241,0,133,133,9,1,onethree,,,,,,,,,,,,,,,,,,,,,,,,,,,,,,,,,,,,,,,,,,,,,,,,,,,,,,,,,,,,,,,,,,,,,,,,,,,,,,,,,,,,,,,,,,,,,,,,,,,,,,,,,,,,,,,,,,,,,,,,,,,,,,,,,,,,,,,
,,60aadeb9e6e8147089f7eced,2023-12-07_07h28.11.461,kallum_motion_pilot,2023.2.3,Win32,59.97361161,60aadeb9e6e8147089f7eced,6560176e4d91f764e2a42c74,657157d20ea19e92901e6c77,0.0241,0.0241,0,134,134,154,1,sixfive,,,,,,,,,,,,,,,,,,,,,,,,,,,,,,,,,,,,,,,,,,,,,,,,,,,,,,,,,,,,,,,,,,,,,,,,,,,,,,,,,,,,,,,,,,,,,,,,,,,,,,,,,,,,,,,,,,,,,,,,,,,,,,,,,,,,,,,
,,60aadeb9e6e8147089f7eced,2023-12-07_07h28.11.461,kallum_motion_pilot,2023.2.3,Win32,59.97361161,60aadeb9e6e8147089f7eced,6560176e4d91f764e2a42c74,657157d20ea19e92901e6c77,0.0241,0.0241,0,135,135,100,1,sevenfive,,,,,,,,,,,,,,,,,,,,,,,,,,,,,,,,,,,,,,,,,,,,,,,,,,,,,,,,,,,,,,,,,,,,,,,,,,,,,,,,,,,,,,,,,,,,,,,,,,,,,,,,,,,,,,,,,,,,,,,,,,,,,,,,,,,,,,,
,,60aadeb9e6e8147089f7eced,2023-12-07_07h28.11.461,kallum_motion_pilot,2023.2.3,Win32,59.97361161,60aadeb9e6e8147089f7eced,6560176e4d91f764e2a42c74,657157d20ea19e92901e6c77,0.0242,0.0242,0,136,136,46,1,fourtwo,,,,,,,,,,,,,,,,,,,,,,,,,,,,,,,,,,,,,,,,,,,,,,,,,,,,,,,,,,,,,,,,,,,,,,,,,,,,,,,,,,,,,,,,,,,,,,,,,,,,,,,,,,,,,,,,,,,,,,,,,,,,,,,,,,,,,,,
,,60aadeb9e6e8147089f7eced,2023-12-07_07h28.11.461,kallum_motion_pilot,2023.2.3,Win32,59.97361161,60aadeb9e6e8147089f7eced,6560176e4d91f764e2a42c74,657157d20ea19e92901e6c77,0.0243,0.0243,0,137,137,119,1,eightseven,,,,,,,,,,,,,,,,,,,,,,,,,,,,,,,,,,,,,,,,,,,,,,,,,,,,,,,,,,,,,,,,,,,,,,,,,,,,,,,,,,,,,,,,,,,,,,,,,,,,,,,,,,,,,,,,,,,,,,,,,,,,,,,,,,,,,,,
,,60aadeb9e6e8147089f7eced,2023-12-07_07h28.11.461,kallum_motion_pilot,2023.2.3,Win32,59.97361161,60aadeb9e6e8147089f7eced,6560176e4d91f764e2a42c74,657157d20ea19e92901e6c77,0.0244,0.0244,0,138,138,48,1,onetwo,,,,,,,,,,,,,,,,,,,,,,,,,,,,,,,,,,,,,,,,,,,,,,,,,,,,,,,,,,,,,,,,,,,,,,,,,,,,,,,,,,,,,,,,,,,,,,,,,,,,,,,,,,,,,,,,,,,,,,,,,,,,,,,,,,,,,,,
,,60aadeb9e6e8147089f7eced,2023-12-07_07h28.11.461,kallum_motion_pilot,2023.2.3,Win32,59.97361161,60aadeb9e6e8147089f7eced,6560176e4d91f764e2a42c74,657157d20ea19e92901e6c77,0.0244,0.0245,0,139,139,72,1,onetwo,,,,,,,,,,,,,,,,,,,,,,,,,,,,,,,,,,,,,,,,,,,,,,,,,,,,,,,,,,,,,,,,,,,,,,,,,,,,,,,,,,,,,,,,,,,,,,,,,,,,,,,,,,,,,,,,,,,,,,,,,,,,,,,,,,,,,,,
,,60aadeb9e6e8147089f7eced,2023-12-07_07h28.11.461,kallum_motion_pilot,2023.2.3,Win32,59.97361161,60aadeb9e6e8147089f7eced,6560176e4d91f764e2a42c74,657157d20ea19e92901e6c77,0.0245,0.0245,0,140,140,86,1,eightsix,,,,,,,,,,,,,,,,,,,,,,,,,,,,,,,,,,,,,,,,,,,,,,,,,,,,,,,,,,,,,,,,,,,,,,,,,,,,,,,,,,,,,,,,,,,,,,,,,,,,,,,,,,,,,,,,,,,,,,,,,,,,,,,,,,,,,,,
,,60aadeb9e6e8147089f7eced,2023-12-07_07h28.11.461,kallum_motion_pilot,2023.2.3,Win32,59.97361161,60aadeb9e6e8147089f7eced,6560176e4d91f764e2a42c74,657157d20ea19e92901e6c77,0.0245,0.0246,0,141,141,73,1,onethree,,,,,,,,,,,,,,,,,,,,,,,,,,,,,,,,,,,,,,,,,,,,,,,,,,,,,,,,,,,,,,,,,,,,,,,,,,,,,,,,,,,,,,,,,,,,,,,,,,,,,,,,,,,,,,,,,,,,,,,,,,,,,,,,,,,,,,,
,,60aadeb9e6e8147089f7eced,2023-12-07_07h28.11.461,kallum_motion_pilot,2023.2.3,Win32,59.97361161,60aadeb9e6e8147089f7eced,6560176e4d91f764e2a42c74,657157d20ea19e92901e6c77,0.0246,0.0246,0,142,142,6,1,fourtwo,,,,,,,,,,,,,,,,,,,,,,,,,,,,,,,,,,,,,,,,,,,,,,,,,,,,,,,,,,,,,,,,,,,,,,,,,,,,,,,,,,,,,,,,,,,,,,,,,,,,,,,,,,,,,,,,,,,,,,,,,,,,,,,,,,,,,,,
,,60aadeb9e6e8147089f7eced,2023-12-07_07h28.11.461,kallum_motion_pilot,2023.2.3,Win32,59.97361161,60aadeb9e6e8147089f7eced,6560176e4d91f764e2a42c74,657157d20ea19e92901e6c77,0.0246,0.0247,0,143,143,79,1,eightseven,,,,,,,,,,,,,,,,,,,,,,,,,,,,,,,,,,,,,,,,,,,,,,,,,,,,,,,,,,,,,,,,,,,,,,,,,,,,,,,,,,,,,,,,,,,,,,,,,,,,,,,,,,,,,,,,,,,,,,,,,,,,,,,,,,,,,,,
,,60aadeb9e6e8147089f7eced,2023-12-07_07h28.11.461,kallum_motion_pilot,2023.2.3,Win32,59.97361161,60aadeb9e6e8147089f7eced,6560176e4d91f764e2a42c74,657157d20ea19e92901e6c77,0.0247,0.0248,0,144,144,93,1,seveneight,,,,,,,,,,,,,,,,,,,,,,,,,,,,,,,,,,,,,,,,,,,,,,,,,,,,,,,,,,,,,,,,,,,,,,,,,,,,,,,,,,,,,,,,,,,,,,,,,,,,,,,,,,,,,,,,,,,,,,,,,,,,,,,,,,,,,,,
,,60aadeb9e6e8147089f7eced,2023-12-07_07h28.11.461,kallum_motion_pilot,2023.2.3,Win32,59.97361161,60aadeb9e6e8147089f7eced,6560176e4d91f764e2a42c74,657157d20ea19e92901e6c77,0.0248,0.0248,0,145,145,83,1,sixeight,,,,,,,,,,,,,,,,,,,,,,,,,,,,,,,,,,,,,,,,,,,,,,,,,,,,,,,,,,,,,,,,,,,,,,,,,,,,,,,,,,,,,,,,,,,,,,,,,,,,,,,,,,,,,,,,,,,,,,,,,,,,,,,,,,,,,,,
,,60aadeb9e6e8147089f7eced,2023-12-07_07h28.11.461,kallum_motion_pilot,2023.2.3,Win32,59.97361161,60aadeb9e6e8147089f7eced,6560176e4d91f764e2a42c74,657157d20ea19e92901e6c77,0.0249,0.0249,0,146,146,136,1,fivesix,,,,,,,,,,,,,,,,,,,,,,,,,,,,,,,,,,,,,,,,,,,,,,,,,,,,,,,,,,,,,,,,,,,,,,,,,,,,,,,,,,,,,,,,,,,,,,,,,,,,,,,,,,,,,,,,,,,,,,,,,,,,,,,,,,,,,,,
,,60aadeb9e6e8147089f7eced,2023-12-07_07h28.11.461,kallum_motion_pilot,2023.2.3,Win32,59.97361161,60aadeb9e6e8147089f7eced,6560176e4d91f764e2a42c74,657157d20ea19e92901e6c77,0.0249,0.0249,0,147,147,3,1,twofour,,,,,,,,,,,,,,,,,,,,,,,,,,,,,,,,,,,,,,,,,,,,,,,,,,,,,,,,,,,,,,,,,,,,,,,,,,,,,,,,,,,,,,,,,,,,,,,,,,,,,,,,,,,,,,,,,,,,,,,,,,,,,,,,,,,,,,,
,,60aadeb9e6e8147089f7eced,2023-12-07_07h28.11.461,kallum_motion_pilot,2023.2.3,Win32,59.97361161,60aadeb9e6e8147089f7eced,6560176e4d91f764e2a42c74,657157d20ea19e92901e6c77,0.0249,0.025,0,148,148,44,1,threeone,,,,,,,,,,,,,,,,,,,,,,,,,,,,,,,,,,,,,,,,,,,,,,,,,,,,,,,,,,,,,,,,,,,,,,,,,,,,,,,,,,,,,,,,,,,,,,,,,,,,,,,,,,,,,,,,,,,,,,,,,,,,,,,,,,,,,,,
,,60aadeb9e6e8147089f7eced,2023-12-07_07h28.11.461,kallum_motion_pilot,2023.2.3,Win32,59.97361161,60aadeb9e6e8147089f7eced,6560176e4d91f764e2a42c74,657157d20ea19e92901e6c77,0.025,0.025,0,149,149,124,1,sevenfive,,,,,,,,,,,,,,,,,,,,,,,,,,,,,,,,,,,,,,,,,,,,,,,,,,,,,,,,,,,,,,,,,,,,,,,,,,,,,,,,,,,,,,,,,,,,,,,,,,,,,,,,,,,,,,,,,,,,,,,,,,,,,,,,,,,,,,,
,,60aadeb9e6e8147089f7eced,2023-12-07_07h28.11.461,kallum_motion_pilot,2023.2.3,Win32,59.97361161,60aadeb9e6e8147089f7eced,6560176e4d91f764e2a42c74,657157d20ea19e92901e6c77,0.025,0.0251,0,150,150,107,1,sixeight,,,,,,,,,,,,,,,,,,,,,,,,,,,,,,,,,,,,,,,,,,,,,,,,,,,,,,,,,,,,,,,,,,,,,,,,,,,,,,,,,,,,,,,,,,,,,,,,,,,,,,,,,,,,,,,,,,,,,,,,,,,,,,,,,,,,,,,
,,60aadeb9e6e8147089f7eced,2023-12-07_07h28.11.461,kallum_motion_pilot,2023.2.3,Win32,59.97361161,60aadeb9e6e8147089f7eced,6560176e4d91f764e2a42c74,657157d20ea19e92901e6c77,0.0251,0.0251,0,151,151,118,1,eightsix,,,,,,,,,,,,,,,,,,,,,,,,,,,,,,,,,,,,,,,,,,,,,,,,,,,,,,,,,,,,,,,,,,,,,,,,,,,,,,,,,,,,,,,,,,,,,,,,,,,,,,,,,,,,,,,,,,,,,,,,,,,,,,,,,,,,,,,
,,60aadeb9e6e8147089f7eced,2023-12-07_07h28.11.461,kallum_motion_pilot,2023.2.3,Win32,59.97361161,60aadeb9e6e8147089f7eced,6560176e4d91f764e2a42c74,657157d20ea19e92901e6c77,0.0252,0.0252,0,152,152,5,1,threefour,,,,,,,,,,,,,,,,,,,,,,,,,,,,,,,,,,,,,,,,,,,,,,,,,,,,,,,,,,,,,,,,,,,,,,,,,,,,,,,,,,,,,,,,,,,,,,,,,,,,,,,,,,,,,,,,,,,,,,,,,,,,,,,,,,,,,,,
,,60aadeb9e6e8147089f7eced,2023-12-07_07h28.11.461,kallum_motion_pilot,2023.2.3,Win32,59.97361161,60aadeb9e6e8147089f7eced,6560176e4d91f764e2a42c74,657157d20ea19e92901e6c77,0.0253,0.0253,0,153,153,55,1,fourthree,,,,,,,,,,,,,,,,,,,,,,,,,,,,,,,,,,,,,,,,,,,,,,,,,,,,,,,,,,,,,,,,,,,,,,,,,,,,,,,,,,,,,,,,,,,,,,,,,,,,,,,,,,,,,,,,,,,,,,,,,,,,,,,,,,,,,,,
,,60aadeb9e6e8147089f7eced,2023-12-07_07h28.11.461,kallum_motion_pilot,2023.2.3,Win32,59.97361161,60aadeb9e6e8147089f7eced,6560176e4d91f764e2a42c74,657157d20ea19e92901e6c77,0.0253,0.0253,0,154,154,29,1,threefour,,,,,,,,,,,,,,,,,,,,,,,,,,,,,,,,,,,,,,,,,,,,,,,,,,,,,,,,,,,,,,,,,,,,,,,,,,,,,,,,,,,,,,,,,,,,,,,,,,,,,,,,,,,,,,,,,,,,,,,,,,,,,,,,,,,,,,,
,,60aadeb9e6e8147089f7eced,2023-12-07_07h28.11.461,kallum_motion_pilot,2023.2.3,Win32,59.97361161,60aadeb9e6e8147089f7eced,6560176e4d91f764e2a42c74,657157d20ea19e92901e6c77,0.0254,0.0254,0,155,155,1,1,onethree,,,,,,,,,,,,,,,,,,,,,,,,,,,,,,,,,,,,,,,,,,,,,,,,,,,,,,,,,,,,,,,,,,,,,,,,,,,,,,,,,,,,,,,,,,,,,,,,,,,,,,,,,,,,,,,,,,,,,,,,,,,,,,,,,,,,,,,
,,60aadeb9e6e8147089f7eced,2023-12-07_07h28.11.461,kallum_motion_pilot,2023.2.3,Win32,59.97361161,60aadeb9e6e8147089f7eced,6560176e4d91f764e2a42c74,657157d20ea19e92901e6c77,0.0255,0.0255,0,156,156,87,1,eightseven,,,,,,,,,,,,,,,,,,,,,,,,,,,,,,,,,,,,,,,,,,,,,,,,,,,,,,,,,,,,,,,,,,,,,,,,,,,,,,,,,,,,,,,,,,,,,,,,,,,,,,,,,,,,,,,,,,,,,,,,,,,,,,,,,,,,,,,
,,60aadeb9e6e8147089f7eced,2023-12-07_07h28.11.461,kallum_motion_pilot,2023.2.3,Win32,59.97361161,60aadeb9e6e8147089f7eced,6560176e4d91f764e2a42c74,657157d20ea19e92901e6c77,0.0255,0.0256,0,157,157,90,1,sixfive,,,,,,,,,,,,,,,,,,,,,,,,,,,,,,,,,,,,,,,,,,,,,,,,,,,,,,,,,,,,,,,,,,,,,,,,,,,,,,,,,,,,,,,,,,,,,,,,,,,,,,,,,,,,,,,,,,,,,,,,,,,,,,,,,,,,,,,
,,60aadeb9e6e8147089f7eced,2023-12-07_07h28.11.461,kallum_motion_pilot,2023.2.3,Win32,59.97361161,60aadeb9e6e8147089f7eced,6560176e4d91f764e2a42c74,657157d20ea19e92901e6c77,0.0256,0.0256,0,158,158,85,1,seveneight,,,,,,,,,,,,,,,,,,,,,,,,,,,,,,,,,,,,,,,,,,,,,,,,,,,,,,,,,,,,,,,,,,,,,,,,,,,,,,,,,,,,,,,,,,,,,,,,,,,,,,,,,,,,,,,,,,,,,,,,,,,,,,,,,,,,,,,
,,60aadeb9e6e8147089f7eced,2023-12-07_07h28.11.461,kallum_motion_pilot,2023.2.3,Win32,59.97361161,60aadeb9e6e8147089f7eced,6560176e4d91f764e2a42c74,657157d20ea19e92901e6c77,0.0256,0.0256,0,159,159,62,1,fourtwo,,,,,,,,,,,,,,,,,,,,,,,,,,,,,,,,,,,,,,,,,,,,,,,,,,,,,,,,,,,,,,,,,,,,,,,,,,,,,,,,,,,,,,,,,,,,,,,,,,,,,,,,,,,,,,,,,,,,,,,,,,,,,,,,,,,,,,,
,,60aadeb9e6e8147089f7eced,2023-12-07_07h28.11.461,kallum_motion_pilot,2023.2.3,Win32,59.97361161,60aadeb9e6e8147089f7eced,6560176e4d91f764e2a42c74,657157d20ea19e92901e6c77,0.0257,0.0257,0,160,160,89,1,fiveseven,,,,,,,,,,,,,,,,,,,,,,,,,,,,,,,,,,,,,,,,,,,,,,,,,,,,,,,,,,,,,,,,,,,,,,,,,,,,,,,,,,,,,,,,,,,,,,,,,,,,,,,,,,,,,,,,,,,,,,,,,,,,,,,,,,,,,,,
,,60aadeb9e6e8147089f7eced,2023-12-07_07h28.11.461,kallum_motion_pilot,2023.2.3,Win32,59.97361161,60aadeb9e6e8147089f7eced,6560176e4d91f764e2a42c74,657157d20ea19e92901e6c77,0.0257,0.0257,0,161,161,108,1,sevenfive,,,,,,,,,,,,,,,,,,,,,,,,,,,,,,,,,,,,,,,,,,,,,,,,,,,,,,,,,,,,,,,,,,,,,,,,,,,,,,,,,,,,,,,,,,,,,,,,,,,,,,,,,,,,,,,,,,,,,,,,,,,,,,,,,,,,,,,
,,60aadeb9e6e8147089f7eced,2023-12-07_07h28.11.461,kallum_motion_pilot,2023.2.3,Win32,59.97361161,60aadeb9e6e8147089f7eced,6560176e4d91f764e2a42c74,657157d20ea19e92901e6c77,0.0258,0.0258,1,0,162,107,1,sixeight,,,,,,,,,,,,,,,,,,,,,,,,,,,,,,,,,,,,,,,,,,,,,,,,,,,,,,,,,,,,,,,,,,,,,,,,,,,,,,,,,,,,,,,,,,,,,,,,,,,,,,,,,,,,,,,,,,,,,,,,,,,,,,,,,,,,,,,
,,60aadeb9e6e8147089f7eced,2023-12-07_07h28.11.461,kallum_motion_pilot,2023.2.3,Win32,59.97361161,60aadeb9e6e8147089f7eced,6560176e4d91f764e2a42c74,657157d20ea19e92901e6c77,0.0258,0.0259,1,1,163,67,1,twofour,,,,,,,,,,,,,,,,,,,,,,,,,,,,,,,,,,,,,,,,,,,,,,,,,,,,,,,,,,,,,,,,,,,,,,,,,,,,,,,,,,,,,,,,,,,,,,,,,,,,,,,,,,,,,,,,,,,,,,,,,,,,,,,,,,,,,,,
,,60aadeb9e6e8147089f7eced,2023-12-07_07h28.11.461,kallum_motion_pilot,2023.2.3,Win32,59.97361161,60aadeb9e6e8147089f7eced,6560176e4d91f764e2a42c74,657157d20ea19e92901e6c77,0.0259,0.026,1,2,164,152,1,fivesix,,,,,,,,,,,,,,,,,,,,,,,,,,,,,,,,,,,,,,,,,,,,,,,,,,,,,,,,,,,,,,,,,,,,,,,,,,,,,,,,,,,,,,,,,,,,,,,,,,,,,,,,,,,,,,,,,,,,,,,,,,,,,,,,,,,,,,,
,,60aadeb9e6e8147089f7eced,2023-12-07_07h28.11.461,kallum_motion_pilot,2023.2.3,Win32,59.97361161,60aadeb9e6e8147089f7eced,6560176e4d91f764e2a42c74,657157d20ea19e92901e6c77,0.026,0.026,1,3,165,100,1,sevenfive,,,,,,,,,,,,,,,,,,,,,,,,,,,,,,,,,,,,,,,,,,,,,,,,,,,,,,,,,,,,,,,,,,,,,,,,,,,,,,,,,,,,,,,,,,,,,,,,,,,,,,,,,,,,,,,,,,,,,,,,,,,,,,,,,,,,,,,
,,60aadeb9e6e8147089f7eced,2023-12-07_07h28.11.461,kallum_motion_pilot,2023.2.3,Win32,59.97361161,60aadeb9e6e8147089f7eced,6560176e4d91f764e2a42c74,657157d20ea19e92901e6c77,0.026,0.026,1,4,166,31,1,fourthree,,,,,,,,,,,,,,,,,,,,,,,,,,,,,,,,,,,,,,,,,,,,,,,,,,,,,,,,,,,,,,,,,,,,,,,,,,,,,,,,,,,,,,,,,,,,,,,,,,,,,,,,,,,,,,,,,,,,,,,,,,,,,,,,,,,,,,,
,,60aadeb9e6e8147089f7eced,2023-12-07_07h28.11.461,kallum_motion_pilot,2023.2.3,Win32,59.97361161,60aadeb9e6e8147089f7eced,6560176e4d91f764e2a42c74,657157d20ea19e92901e6c77,0.0262,0.0262,1,5,167,125,1,seveneight,,,,,,,,,,,,,,,,,,,,,,,,,,,,,,,,,,,,,,,,,,,,,,,,,,,,,,,,,,,,,,,,,,,,,,,,,,,,,,,,,,,,,,,,,,,,,,,,,,,,,,,,,,,,,,,,,,,,,,,,,,,,,,,,,,,,,,,
,,60aadeb9e6e8147089f7eced,2023-12-07_07h28.11.461,kallum_motion_pilot,2023.2.3,Win32,59.97361161,60aadeb9e6e8147089f7eced,6560176e4d91f764e2a42c74,657157d20ea19e92901e6c77,0.0262,0.0262,1,6,168,87,1,eightseven,,,,,,,,,,,,,,,,,,,,,,,,,,,,,,,,,,,,,,,,,,,,,,,,,,,,,,,,,,,,,,,,,,,,,,,,,,,,,,,,,,,,,,,,,,,,,,,,,,,,,,,,,,,,,,,,,,,,,,,,,,,,,,,,,,,,,,,
,,60aadeb9e6e8147089f7eced,2023-12-07_07h28.11.461,kallum_motion_pilot,2023.2.3,Win32,59.97361161,60aadeb9e6e8147089f7eced,6560176e4d91f764e2a42c74,657157d20ea19e92901e6c77,0.0263,0.0263,1,7,169,50,1,twoone,,,,,,,,,,,,,,,,,,,,,,,,,,,,,,,,,,,,,,,,,,,,,,,,,,,,,,,,,,,,,,,,,,,,,,,,,,,,,,,,,,,,,,,,,,,,,,,,,,,,,,,,,,,,,,,,,,,,,,,,,,,,,,,,,,,,,,,
,,60aadeb9e6e8147089f7eced,2023-12-07_07h28.11.461,kallum_motion_pilot,2023.2.3,Win32,59.97361161,60aadeb9e6e8147089f7eced,6560176e4d91f764e2a42c74,657157d20ea19e92901e6c77,0.0263,0.0264,1,8,170,140,1,sevenfive,,,,,,,,,,,,,,,,,,,,,,,,,,,,,,,,,,,,,,,,,,,,,,,,,,,,,,,,,,,,,,,,,,,,,,,,,,,,,,,,,,,,,,,,,,,,,,,,,,,,,,,,,,,,,,,,,,,,,,,,,,,,,,,,,,,,,,,
,,60aadeb9e6e8147089f7eced,2023-12-07_07h28.11.461,kallum_motion_pilot,2023.2.3,Win32,59.97361161,60aadeb9e6e8147089f7eced,6560176e4d91f764e2a42c74,657157d20ea19e92901e6c77,0.0264,0.0264,1,9,171,153,1,fiveseven,,,,,,,,,,,,,,,,,,,,,,,,,,,,,,,,,,,,,,,,,,,,,,,,,,,,,,,,,,,,,,,,,,,,,,,,,,,,,,,,,,,,,,,,,,,,,,,,,,,,,,,,,,,,,,,,,,,,,,,,,,,,,,,,,,,,,,,
,,60aadeb9e6e8147089f7eced,2023-12-07_07h28.11.461,kallum_motion_pilot,2023.2.3,Win32,59.97361161,60aadeb9e6e8147089f7eced,6560176e4d91f764e2a42c74,657157d20ea19e92901e6c77,0.0264,0.0264,1,10,172,148,1,sevenfive,,,,,,,,,,,,,,,,,,,,,,,,,,,,,,,,,,,,,,,,,,,,,,,,,,,,,,,,,,,,,,,,,,,,,,,,,,,,,,,,,,,,,,,,,,,,,,,,,,,,,,,,,,,,,,,,,,,,,,,,,,,,,,,,,,,,,,,
,,60aadeb9e6e8147089f7eced,2023-12-07_07h28.11.461,kallum_motion_pilot,2023.2.3,Win32,59.97361161,60aadeb9e6e8147089f7eced,6560176e4d91f764e2a42c74,657157d20ea19e92901e6c77,0.0265,0.0265,1,11,173,21,1,threefour,,,,,,,,,,,,,,,,,,,,,,,,,,,,,,,,,,,,,,,,,,,,,,,,,,,,,,,,,,,,,,,,,,,,,,,,,,,,,,,,,,,,,,,,,,,,,,,,,,,,,,,,,,,,,,,,,,,,,,,,,,,,,,,,,,,,,,,
,,60aadeb9e6e8147089f7eced,2023-12-07_07h28.11.461,kallum_motion_pilot,2023.2.3,Win32,59.97361161,60aadeb9e6e8147089f7eced,6560176e4d91f764e2a42c74,657157d20ea19e92901e6c77,0.0265,0.0266,1,12,174,161,1,fiveseven,,,,,,,,,,,,,,,,,,,,,,,,,,,,,,,,,,,,,,,,,,,,,,,,,,,,,,,,,,,,,,,,,,,,,,,,,,,,,,,,,,,,,,,,,,,,,,,,,,,,,,,,,,,,,,,,,,,,,,,,,,,,,,,,,,,,,,,
,,60aadeb9e6e8147089f7eced,2023-12-07_07h28.11.461,kallum_motion_pilot,2023.2.3,Win32,59.97361161,60aadeb9e6e8147089f7eced,6560176e4d91f764e2a42c74,657157d20ea19e92901e6c77,0.0266,0.0266,1,13,175,143,1,eightseven,,,,,,,,,,,,,,,,,,,,,,,,,,,,,,,,,,,,,,,,,,,,,,,,,,,,,,,,,,,,,,,,,,,,,,,,,,,,,,,,,,,,,,,,,,,,,,,,,,,,,,,,,,,,,,,,,,,,,,,,,,,,,,,,,,,,,,,
,,60aadeb9e6e8147089f7eced,2023-12-07_07h28.11.461,kallum_motion_pilot,2023.2.3,Win32,59.97361161,60aadeb9e6e8147089f7eced,6560176e4d91f764e2a42c74,657157d20ea19e92901e6c77,0.0267,0.0267,1,14,176,23,1,fourthree,,,,,,,,,,,,,,,,,,,,,,,,,,,,,,,,,,,,,,,,,,,,,,,,,,,,,,,,,,,,,,,,,,,,,,,,,,,,,,,,,,,,,,,,,,,,,,,,,,,,,,,,,,,,,,,,,,,,,,,,,,,,,,,,,,,,,,,
,,60aadeb9e6e8147089f7eced,2023-12-07_07h28.11.461,kallum_motion_pilot,2023.2.3,Win32,59.97361161,60aadeb9e6e8147089f7eced,6560176e4d91f764e2a42c74,657157d20ea19e92901e6c77,0.0267,0.0268,1,15,177,154,1,sixfive,,,,,,,,,,,,,,,,,,,,,,,,,,,,,,,,,,,,,,,,,,,,,,,,,,,,,,,,,,,,,,,,,,,,,,,,,,,,,,,,,,,,,,,,,,,,,,,,,,,,,,,,,,,,,,,,,,,,,,,,,,,,,,,,,,,,,,,
,,60aadeb9e6e8147089f7eced,2023-12-07_07h28.11.461,kallum_motion_pilot,2023.2.3,Win32,59.97361161,60aadeb9e6e8147089f7eced,6560176e4d91f764e2a42c74,657157d20ea19e92901e6c77,0.0269,0.0269,1,16,178,111,1,eightseven,,,,,,,,,,,,,,,,,,,,,,,,,,,,,,,,,,,,,,,,,,,,,,,,,,,,,,,,,,,,,,,,,,,,,,,,,,,,,,,,,,,,,,,,,,,,,,,,,,,,,,,,,,,,,,,,,,,,,,,,,,,,,,,,,,,,,,,
,,60aadeb9e6e8147089f7eced,2023-12-07_07h28.11.461,kallum_motion_pilot,2023.2.3,Win32,59.97361161,60aadeb9e6e8147089f7eced,6560176e4d91f764e2a42c74,657157d20ea19e92901e6c77,0.0269,0.0269,1,17,179,94,1,eightsix,,,,,,,,,,,,,,,,,,,,,,,,,,,,,,,,,,,,,,,,,,,,,,,,,,,,,,,,,,,,,,,,,,,,,,,,,,,,,,,,,,,,,,,,,,,,,,,,,,,,,,,,,,,,,,,,,,,,,,,,,,,,,,,,,,,,,,,
,,60aadeb9e6e8147089f7eced,2023-12-07_07h28.11.461,kallum_motion_pilot,2023.2.3,Win32,59.97361161,60aadeb9e6e8147089f7eced,6560176e4d91f764e2a42c74,657157d20ea19e92901e6c77,0.0269,0.027,1,18,180,66,1,twoone,,,,,,,,,,,,,,,,,,,,,,,,,,,,,,,,,,,,,,,,,,,,,,,,,,,,,,,,,,,,,,,,,,,,,,,,,,,,,,,,,,,,,,,,,,,,,,,,,,,,,,,,,,,,,,,,,,,,,,,,,,,,,,,,,,,,,,,
,,60aadeb9e6e8147089f7eced,2023-12-07_07h28.11.461,kallum_motion_pilot,2023.2.3,Win32,59.97361161,60aadeb9e6e8147089f7eced,6560176e4d91f764e2a42c74,657157d20ea19e92901e6c77,0.0275,0.0275,1,19,181,41,1,onethree,,,,,,,,,,,,,,,,,,,,,,,,,,,,,,,,,,,,,,,,,,,,,,,,,,,,,,,,,,,,,,,,,,,,,,,,,,,,,,,,,,,,,,,,,,,,,,,,,,,,,,,,,,,,,,,,,,,,,,,,,,,,,,,,,,,,,,,
,,60aadeb9e6e8147089f7eced,2023-12-07_07h28.11.461,kallum_motion_pilot,2023.2.3,Win32,59.97361161,60aadeb9e6e8147089f7eced,6560176e4d91f764e2a42c74,657157d20ea19e92901e6c77,0.0276,0.0277,1,20,182,3,1,twofour,,,,,,,,,,,,,,,,,,,,,,,,,,,,,,,,,,,,,,,,,,,,,,,,,,,,,,,,,,,,,,,,,,,,,,,,,,,,,,,,,,,,,,,,,,,,,,,,,,,,,,,,,,,,,,,,,,,,,,,,,,,,,,,,,,,,,,,
,,60aadeb9e6e8147089f7eced,2023-12-07_07h28.11.461,kallum_motion_pilot,2023.2.3,Win32,59.97361161,60aadeb9e6e8147089f7eced,6560176e4d91f764e2a42c74,657157d20ea19e92901e6c77,0.0277,0.0277,1,21,183,42,1,twoone,,,,,,,,,,,,,,,,,,,,,,,,,,,,,,,,,,,,,,,,,,,,,,,,,,,,,,,,,,,,,,,,,,,,,,,,,,,,,,,,,,,,,,,,,,,,,,,,,,,,,,,,,,,,,,,,,,,,,,,,,,,,,,,,,,,,,,,
,,60aadeb9e6e8147089f7eced,2023-12-07_07h28.11.461,kallum_motion_pilot,2023.2.3,Win32,59.97361161,60aadeb9e6e8147089f7eced,6560176e4d91f764e2a42c74,657157d20ea19e92901e6c77,0.0277,0.0278,1,22,184,130,1,sixfive,,,,,,,,,,,,,,,,,,,,,,,,,,,,,,,,,,,,,,,,,,,,,,,,,,,,,,,,,,,,,,,,,,,,,,,,,,,,,,,,,,,,,,,,,,,,,,,,,,,,,,,,,,,,,,,,,,,,,,,,,,,,,,,,,,,,,,,
,,60aadeb9e6e8147089f7eced,2023-12-07_07h28.11.461,kallum_motion_pilot,2023.2.3,Win32,59.97361161,60aadeb9e6e8147089f7eced,6560176e4d91f764e2a42c74,657157d20ea19e92901e6c77,0.0279,0.0279,1,23,185,101,1,seveneight,,,,,,,,,,,,,,,,,,,,,,,,,,,,,,,,,,,,,,,,,,,,,,,,,,,,,,,,,,,,,,,,,,,,,,,,,,,,,,,,,,,,,,,,,,,,,,,,,,,,,,,,,,,,,,,,,,,,,,,,,,,,,,,,,,,,,,,
,,60aadeb9e6e8147089f7eced,2023-12-07_07h28.11.461,kallum_motion_pilot,2023.2.3,Win32,59.97361161,60aadeb9e6e8147089f7eced,6560176e4d91f764e2a42c74,657157d20ea19e92901e6c77,0.028,0.028,1,24,186,84,1,sevenfive,,,,,,,,,,,,,,,,,,,,,,,,,,,,,,,,,,,,,,,,,,,,,,,,,,,,,,,,,,,,,,,,,,,,,,,,,,,,,,,,,,,,,,,,,,,,,,,,,,,,,,,,,,,,,,,,,,,,,,,,,,,,,,,,,,,,,,,
,,60aadeb9e6e8147089f7eced,2023-12-07_07h28.11.461,kallum_motion_pilot,2023.2.3,Win32,59.97361161,60aadeb9e6e8147089f7eced,6560176e4d91f764e2a42c74,657157d20ea19e92901e6c77,0.028,0.028,1,25,187,123,1,sixeight,,,,,,,,,,,,,,,,,,,,,,,,,,,,,,,,,,,,,,,,,,,,,,,,,,,,,,,,,,,,,,,,,,,,,,,,,,,,,,,,,,,,,,,,,,,,,,,,,,,,,,,,,,,,,,,,,,,,,,,,,,,,,,,,,,,,,,,
,,60aadeb9e6e8147089f7eced,2023-12-07_07h28.11.461,kallum_motion_pilot,2023.2.3,Win32,59.97361161,60aadeb9e6e8147089f7eced,6560176e4d91f764e2a42c74,657157d20ea19e92901e6c77,0.028,0.0281,1,26,188,8,1,onetwo,,,,,,,,,,,,,,,,,,,,,,,,,,,,,,,,,,,,,,,,,,,,,,,,,,,,,,,,,,,,,,,,,,,,,,,,,,,,,,,,,,,,,,,,,,,,,,,,,,,,,,,,,,,,,,,,,,,,,,,,,,,,,,,,,,,,,,,
,,60aadeb9e6e8147089f7eced,2023-12-07_07h28.11.461,kallum_motion_pilot,2023.2.3,Win32,59.97361161,60aadeb9e6e8147089f7eced,6560176e4d91f764e2a42c74,657157d20ea19e92901e6c77,0.0282,0.0283,1,27,189,13,1,threefour,,,,,,,,,,,,,,,,,,,,,,,,,,,,,,,,,,,,,,,,,,,,,,,,,,,,,,,,,,,,,,,,,,,,,,,,,,,,,,,,,,,,,,,,,,,,,,,,,,,,,,,,,,,,,,,,,,,,,,,,,,,,,,,,,,,,,,,
,,60aadeb9e6e8147089f7eced,2023-12-07_07h28.11.461,kallum_motion_pilot,2023.2.3,Win32,59.97361161,60aadeb9e6e8147089f7eced,6560176e4d91f764e2a42c74,657157d20ea19e92901e6c77,0.0287,0.0289,1,28,190,116,1,sevenfive,,,,,,,,,,,,,,,,,,,,,,,,,,,,,,,,,,,,,,,,,,,,,,,,,,,,,,,,,,,,,,,,,,,,,,,,,,,,,,,,,,,,,,,,,,,,,,,,,,,,,,,,,,,,,,,,,,,,,,,,,,,,,,,,,,,,,,,
,,60aadeb9e6e8147089f7eced,2023-12-07_07h28.11.461,kallum_motion_pilot,2023.2.3,Win32,59.97361161,60aadeb9e6e8147089f7eced,6560176e4d91f764e2a42c74,657157d20ea19e92901e6c77,0.0296,0.0299,1,29,191,118,1,eightsix,,,,,,,,,,,,,,,,,,,,,,,,,,,,,,,,,,,,,,,,,,,,,,,,,,,,,,,,,,,,,,,,,,,,,,,,,,,,,,,,,,,,,,,,,,,,,,,,,,,,,,,,,,,,,,,,,,,,,,,,,,,,,,,,,,,,,,,
,,60aadeb9e6e8147089f7eced,2023-12-07_07h28.11.461,kallum_motion_pilot,2023.2.3,Win32,59.97361161,60aadeb9e6e8147089f7eced,6560176e4d91f764e2a42c74,657157d20ea19e92901e6c77,0.03,0.0301,1,30,192,70,1,fourtwo,,,,,,,,,,,,,,,,,,,,,,,,,,,,,,,,,,,,,,,,,,,,,,,,,,,,,,,,,,,,,,,,,,,,,,,,,,,,,,,,,,,,,,,,,,,,,,,,,,,,,,,,,,,,,,,,,,,,,,,,,,,,,,,,,,,,,,,
,,60aadeb9e6e8147089f7eced,2023-12-07_07h28.11.461,kallum_motion_pilot,2023.2.3,Win32,59.97361161,60aadeb9e6e8147089f7eced,6560176e4d91f764e2a42c74,657157d20ea19e92901e6c77,0.0301,0.0301,1,31,193,38,1,fourtwo,,,,,,,,,,,,,,,,,,,,,,,,,,,,,,,,,,,,,,,,,,,,,,,,,,,,,,,,,,,,,,,,,,,,,,,,,,,,,,,,,,,,,,,,,,,,,,,,,,,,,,,,,,,,,,,,,,,,,,,,,,,,,,,,,,,,,,,
,,60aadeb9e6e8147089f7eced,2023-12-07_07h28.11.461,kallum_motion_pilot,2023.2.3,Win32,59.97361161,60aadeb9e6e8147089f7eced,6560176e4d91f764e2a42c74,657157d20ea19e92901e6c77,0.0304,0.0304,1,32,194,96,1,fivesix,,,,,,,,,,,,,,,,,,,,,,,,,,,,,,,,,,,,,,,,,,,,,,,,,,,,,,,,,,,,,,,,,,,,,,,,,,,,,,,,,,,,,,,,,,,,,,,,,,,,,,,,,,,,,,,,,,,,,,,,,,,,,,,,,,,,,,,
,,60aadeb9e6e8147089f7eced,2023-12-07_07h28.11.461,kallum_motion_pilot,2023.2.3,Win32,59.97361161,60aadeb9e6e8147089f7eced,6560176e4d91f764e2a42c74,657157d20ea19e92901e6c77,0.0304,0.0305,1,33,195,97,1,fiveseven,,,,,,,,,,,,,,,,,,,,,,,,,,,,,,,,,,,,,,,,,,,,,,,,,,,,,,,,,,,,,,,,,,,,,,,,,,,,,,,,,,,,,,,,,,,,,,,,,,,,,,,,,,,,,,,,,,,,,,,,,,,,,,,,,,,,,,,
,,60aadeb9e6e8147089f7eced,2023-12-07_07h28.11.461,kallum_motion_pilot,2023.2.3,Win32,59.97361161,60aadeb9e6e8147089f7eced,6560176e4d91f764e2a42c74,657157d20ea19e92901e6c77,0.0306,0.0306,1,34,196,134,1,eightsix,,,,,,,,,,,,,,,,,,,,,,,,,,,,,,,,,,,,,,,,,,,,,,,,,,,,,,,,,,,,,,,,,,,,,,,,,,,,,,,,,,,,,,,,,,,,,,,,,,,,,,,,,,,,,,,,,,,,,,,,,,,,,,,,,,,,,,,
,,60aadeb9e6e8147089f7eced,2023-12-07_07h28.11.461,kallum_motion_pilot,2023.2.3,Win32,59.97361161,60aadeb9e6e8147089f7eced,6560176e4d91f764e2a42c74,657157d20ea19e92901e6c77,0.0307,0.0308,1,35,197,79,1,eightseven,,,,,,,,,,,,,,,,,,,,,,,,,,,,,,,,,,,,,,,,,,,,,,,,,,,,,,,,,,,,,,,,,,,,,,,,,,,,,,,,,,,,,,,,,,,,,,,,,,,,,,,,,,,,,,,,,,,,,,,,,,,,,,,,,,,,,,,
,,60aadeb9e6e8147089f7eced,2023-12-07_07h28.11.461,kallum_motion_pilot,2023.2.3,Win32,59.97361161,60aadeb9e6e8147089f7eced,6560176e4d91f764e2a42c74,657157d20ea19e92901e6c77,0.0308,0.0309,1,36,198,155,1,sixeight,,,,,,,,,,,,,,,,,,,,,,,,,,,,,,,,,,,,,,,,,,,,,,,,,,,,,,,,,,,,,,,,,,,,,,,,,,,,,,,,,,,,,,,,,,,,,,,,,,,,,,,,,,,,,,,,,,,,,,,,,,,,,,,,,,,,,,,
,,60aadeb9e6e8147089f7eced,2023-12-07_07h28.11.461,kallum_motion_pilot,2023.2.3,Win32,59.97361161,60aadeb9e6e8147089f7eced,6560176e4d91f764e2a42c74,657157d20ea19e92901e6c77,0.0309,0.031,1,37,199,93,1,seveneight,,,,,,,,,,,,,,,,,,,,,,,,,,,,,,,,,,,,,,,,,,,,,,,,,,,,,,,,,,,,,,,,,,,,,,,,,,,,,,,,,,,,,,,,,,,,,,,,,,,,,,,,,,,,,,,,,,,,,,,,,,,,,,,,,,,,,,,
,,60aadeb9e6e8147089f7eced,2023-12-07_07h28.11.461,kallum_motion_pilot,2023.2.3,Win32,59.97361161,60aadeb9e6e8147089f7eced,6560176e4d91f764e2a42c74,657157d20ea19e92901e6c77,0.031,0.0312,1,38,200,115,1,sixeight,,,,,,,,,,,,,,,,,,,,,,,,,,,,,,,,,,,,,,,,,,,,,,,,,,,,,,,,,,,,,,,,,,,,,,,,,,,,,,,,,,,,,,,,,,,,,,,,,,,,,,,,,,,,,,,,,,,,,,,,,,,,,,,,,,,,,,,
,,60aadeb9e6e8147089f7eced,2023-12-07_07h28.11.461,kallum_motion_pilot,2023.2.3,Win32,59.97361161,60aadeb9e6e8147089f7eced,6560176e4d91f764e2a42c74,657157d20ea19e92901e6c77,0.0312,0.0313,1,39,201,28,1,threeone,,,,,,,,,,,,,,,,,,,,,,,,,,,,,,,,,,,,,,,,,,,,,,,,,,,,,,,,,,,,,,,,,,,,,,,,,,,,,,,,,,,,,,,,,,,,,,,,,,,,,,,,,,,,,,,,,,,,,,,,,,,,,,,,,,,,,,,
,,60aadeb9e6e8147089f7eced,2023-12-07_07h28.11.461,kallum_motion_pilot,2023.2.3,Win32,59.97361161,60aadeb9e6e8147089f7eced,6560176e4d91f764e2a42c74,657157d20ea19e92901e6c77,0.0313,0.0313,1,40,202,35,1,twofour,,,,,,,,,,,,,,,,,,,,,,,,,,,,,,,,,,,,,,,,,,,,,,,,,,,,,,,,,,,,,,,,,,,,,,,,,,,,,,,,,,,,,,,,,,,,,,,,,,,,,,,,,,,,,,,,,,,,,,,,,,,,,,,,,,,,,,,
,,60aadeb9e6e8147089f7eced,2023-12-07_07h28.11.461,kallum_motion_pilot,2023.2.3,Win32,59.97361161,60aadeb9e6e8147089f7eced,6560176e4d91f764e2a42c74,657157d20ea19e92901e6c77,0.0314,0.0315,1,41,203,146,1,sixfive,,,,,,,,,,,,,,,,,,,,,,,,,,,,,,,,,,,,,,,,,,,,,,,,,,,,,,,,,,,,,,,,,,,,,,,,,,,,,,,,,,,,,,,,,,,,,,,,,,,,,,,,,,,,,,,,,,,,,,,,,,,,,,,,,,,,,,,
,,60aadeb9e6e8147089f7eced,2023-12-07_07h28.11.461,kallum_motion_pilot,2023.2.3,Win32,59.97361161,60aadeb9e6e8147089f7eced,6560176e4d91f764e2a42c74,657157d20ea19e92901e6c77,0.0315,0.0316,1,42,204,132,1,sevenfive,,,,,,,,,,,,,,,,,,,,,,,,,,,,,,,,,,,,,,,,,,,,,,,,,,,,,,,,,,,,,,,,,,,,,,,,,,,,,,,,,,,,,,,,,,,,,,,,,,,,,,,,,,,,,,,,,,,,,,,,,,,,,,,,,,,,,,,
,,60aadeb9e6e8147089f7eced,2023-12-07_07h28.11.461,kallum_motion_pilot,2023.2.3,Win32,59.97361161,60aadeb9e6e8147089f7eced,6560176e4d91f764e2a42c74,657157d20ea19e92901e6c77,0.0317,0.0317,1,43,205,1,1,onethree,,,,,,,,,,,,,,,,,,,,,,,,,,,,,,,,,,,,,,,,,,,,,,,,,,,,,,,,,,,,,,,,,,,,,,,,,,,,,,,,,,,,,,,,,,,,,,,,,,,,,,,,,,,,,,,,,,,,,,,,,,,,,,,,,,,,,,,
,,60aadeb9e6e8147089f7eced,2023-12-07_07h28.11.461,kallum_motion_pilot,2023.2.3,Win32,59.97361161,60aadeb9e6e8147089f7eced,6560176e4d91f764e2a42c74,657157d20ea19e92901e6c77,0.0319,0.0319,1,44,206,30,1,fourtwo,,,,,,,,,,,,,,,,,,,,,,,,,,,,,,,,,,,,,,,,,,,,,,,,,,,,,,,,,,,,,,,,,,,,,,,,,,,,,,,,,,,,,,,,,,,,,,,,,,,,,,,,,,,,,,,,,,,,,,,,,,,,,,,,,,,,,,,
,,60aadeb9e6e8147089f7eced,2023-12-07_07h28.11.461,kallum_motion_pilot,2023.2.3,Win32,59.97361161,60aadeb9e6e8147089f7eced,6560176e4d91f764e2a42c74,657157d20ea19e92901e6c77,0.032,0.0321,1,45,207,141,1,seveneight,,,,,,,,,,,,,,,,,,,,,,,,,,,,,,,,,,,,,,,,,,,,,,,,,,,,,,,,,,,,,,,,,,,,,,,,,,,,,,,,,,,,,,,,,,,,,,,,,,,,,,,,,,,,,,,,,,,,,,,,,,,,,,,,,,,,,,,
,,60aadeb9e6e8147089f7eced,2023-12-07_07h28.11.461,kallum_motion_pilot,2023.2.3,Win32,59.97361161,60aadeb9e6e8147089f7eced,6560176e4d91f764e2a42c74,657157d20ea19e92901e6c77,0.0321,0.0322,1,46,208,99,1,sixeight,,,,,,,,,,,,,,,,,,,,,,,,,,,,,,,,,,,,,,,,,,,,,,,,,,,,,,,,,,,,,,,,,,,,,,,,,,,,,,,,,,,,,,,,,,,,,,,,,,,,,,,,,,,,,,,,,,,,,,,,,,,,,,,,,,,,,,,
,,60aadeb9e6e8147089f7eced,2023-12-07_07h28.11.461,kallum_motion_pilot,2023.2.3,Win32,59.97361161,60aadeb9e6e8147089f7eced,6560176e4d91f764e2a42c74,657157d20ea19e92901e6c77,0.0323,0.0323,1,47,209,53,1,threefour,,,,,,,,,,,,,,,,,,,,,,,,,,,,,,,,,,,,,,,,,,,,,,,,,,,,,,,,,,,,,,,,,,,,,,,,,,,,,,,,,,,,,,,,,,,,,,,,,,,,,,,,,,,,,,,,,,,,,,,,,,,,,,,,,,,,,,,
,,60aadeb9e6e8147089f7eced,2023-12-07_07h28.11.461,kallum_motion_pilot,2023.2.3,Win32,59.97361161,60aadeb9e6e8147089f7eced,6560176e4d91f764e2a42c74,657157d20ea19e92901e6c77,0.0323,0.0325,1,48,210,24,1,onetwo,,,,,,,,,,,,,,,,,,,,,,,,,,,,,,,,,,,,,,,,,,,,,,,,,,,,,,,,,,,,,,,,,,,,,,,,,,,,,,,,,,,,,,,,,,,,,,,,,,,,,,,,,,,,,,,,,,,,,,,,,,,,,,,,,,,,,,,
,,60aadeb9e6e8147089f7eced,2023-12-07_07h28.11.461,kallum_motion_pilot,2023.2.3,Win32,59.97361161,60aadeb9e6e8147089f7eced,6560176e4d91f764e2a42c74,657157d20ea19e92901e6c77,0.0325,0.0327,1,49,211,98,1,sixfive,,,,,,,,,,,,,,,,,,,,,,,,,,,,,,,,,,,,,,,,,,,,,,,,,,,,,,,,,,,,,,,,,,,,,,,,,,,,,,,,,,,,,,,,,,,,,,,,,,,,,,,,,,,,,,,,,,,,,,,,,,,,,,,,,,,,,,,
,,60aadeb9e6e8147089f7eced,2023-12-07_07h28.11.461,kallum_motion_pilot,2023.2.3,Win32,59.97361161,60aadeb9e6e8147089f7eced,6560176e4d91f764e2a42c74,657157d20ea19e92901e6c77,0.0327,0.0328,1,50,212,58,1,twoone,,,,,,,,,,,,,,,,,,,,,,,,,,,,,,,,,,,,,,,,,,,,,,,,,,,,,,,,,,,,,,,,,,,,,,,,,,,,,,,,,,,,,,,,,,,,,,,,,,,,,,,,,,,,,,,,,,,,,,,,,,,,,,,,,,,,,,,
,,60aadeb9e6e8147089f7eced,2023-12-07_07h28.11.461,kallum_motion_pilot,2023.2.3,Win32,59.97361161,60aadeb9e6e8147089f7eced,6560176e4d91f764e2a42c74,657157d20ea19e92901e6c77,0.0328,0.0329,1,51,213,33,1,onethree,,,,,,,,,,,,,,,,,,,,,,,,,,,,,,,,,,,,,,,,,,,,,,,,,,,,,,,,,,,,,,,,,,,,,,,,,,,,,,,,,,,,,,,,,,,,,,,,,,,,,,,,,,,,,,,,,,,,,,,,,,,,,,,,,,,,,,,
,,60aadeb9e6e8147089f7eced,2023-12-07_07h28.11.461,kallum_motion_pilot,2023.2.3,Win32,59.97361161,60aadeb9e6e8147089f7eced,6560176e4d91f764e2a42c74,657157d20ea19e92901e6c77,0.0329,0.033,1,52,214,102,1,eightsix,,,,,,,,,,,,,,,,,,,,,,,,,,,,,,,,,,,,,,,,,,,,,,,,,,,,,,,,,,,,,,,,,,,,,,,,,,,,,,,,,,,,,,,,,,,,,,,,,,,,,,,,,,,,,,,,,,,,,,,,,,,,,,,,,,,,,,,
,,60aadeb9e6e8147089f7eced,2023-12-07_07h28.11.461,kallum_motion_pilot,2023.2.3,Win32,59.97361161,60aadeb9e6e8147089f7eced,6560176e4d91f764e2a42c74,657157d20ea19e92901e6c77,0.033,0.0331,1,53,215,110,1,eightsix,,,,,,,,,,,,,,,,,,,,,,,,,,,,,,,,,,,,,,,,,,,,,,,,,,,,,,,,,,,,,,,,,,,,,,,,,,,,,,,,,,,,,,,,,,,,,,,,,,,,,,,,,,,,,,,,,,,,,,,,,,,,,,,,,,,,,,,
,,60aadeb9e6e8147089f7eced,2023-12-07_07h28.11.461,kallum_motion_pilot,2023.2.3,Win32,59.97361161,60aadeb9e6e8147089f7eced,6560176e4d91f764e2a42c74,657157d20ea19e92901e6c77,0.0332,0.0332,1,54,216,59,1,twofour,,,,,,,,,,,,,,,,,,,,,,,,,,,,,,,,,,,,,,,,,,,,,,,,,,,,,,,,,,,,,,,,,,,,,,,,,,,,,,,,,,,,,,,,,,,,,,,,,,,,,,,,,,,,,,,,,,,,,,,,,,,,,,,,,,,,,,,
,,60aadeb9e6e8147089f7eced,2023-12-07_07h28.11.461,kallum_motion_pilot,2023.2.3,Win32,59.97361161,60aadeb9e6e8147089f7eced,6560176e4d91f764e2a42c74,657157d20ea19e92901e6c77,0.0332,0.0333,1,55,217,83,1,sixeight,,,,,,,,,,,,,,,,,,,,,,,,,,,,,,,,,,,,,,,,,,,,,,,,,,,,,,,,,,,,,,,,,,,,,,,,,,,,,,,,,,,,,,,,,,,,,,,,,,,,,,,,,,,,,,,,,,,,,,,,,,,,,,,,,,,,,,,
,,60aadeb9e6e8147089f7eced,2023-12-07_07h28.11.461,kallum_motion_pilot,2023.2.3,Win32,59.97361161,60aadeb9e6e8147089f7eced,6560176e4d91f764e2a42c74,657157d20ea19e92901e6c77,0.0334,0.0334,1,56,218,128,1,fivesix,,,,,,,,,,,,,,,,,,,,,,,,,,,,,,,,,,,,,,,,,,,,,,,,,,,,,,,,,,,,,,,,,,,,,,,,,,,,,,,,,,,,,,,,,,,,,,,,,,,,,,,,,,,,,,,,,,,,,,,,,,,,,,,,,,,,,,,
,,60aadeb9e6e8147089f7eced,2023-12-07_07h28.11.461,kallum_motion_pilot,2023.2.3,Win32,59.97361161,60aadeb9e6e8147089f7eced,6560176e4d91f764e2a42c74,657157d20ea19e92901e6c77,0.0336,0.0336,1,57,219,37,1,threefour,,,,,,,,,,,,,,,,,,,,,,,,,,,,,,,,,,,,,,,,,,,,,,,,,,,,,,,,,,,,,,,,,,,,,,,,,,,,,,,,,,,,,,,,,,,,,,,,,,,,,,,,,,,,,,,,,,,,,,,,,,,,,,,,,,,,,,,
,,60aadeb9e6e8147089f7eced,2023-12-07_07h28.11.461,kallum_motion_pilot,2023.2.3,Win32,59.97361161,60aadeb9e6e8147089f7eced,6560176e4d91f764e2a42c74,657157d20ea19e92901e6c77,0.0337,0.0338,1,58,220,32,1,onetwo,,,,,,,,,,,,,,,,,,,,,,,,,,,,,,,,,,,,,,,,,,,,,,,,,,,,,,,,,,,,,,,,,,,,,,,,,,,,,,,,,,,,,,,,,,,,,,,,,,,,,,,,,,,,,,,,,,,,,,,,,,,,,,,,,,,,,,,
,,60aadeb9e6e8147089f7eced,2023-12-07_07h28.11.461,kallum_motion_pilot,2023.2.3,Win32,59.97361161,60aadeb9e6e8147089f7eced,6560176e4d91f764e2a42c74,657157d20ea19e92901e6c77,0.0338,0.034,1,59,221,16,1,onetwo,,,,,,,,,,,,,,,,,,,,,,,,,,,,,,,,,,,,,,,,,,,,,,,,,,,,,,,,,,,,,,,,,,,,,,,,,,,,,,,,,,,,,,,,,,,,,,,,,,,,,,,,,,,,,,,,,,,,,,,,,,,,,,,,,,,,,,,
,,60aadeb9e6e8147089f7eced,2023-12-07_07h28.11.461,kallum_motion_pilot,2023.2.3,Win32,59.97361161,60aadeb9e6e8147089f7eced,6560176e4d91f764e2a42c74,657157d20ea19e92901e6c77,0.0341,0.0341,1,60,222,22,1,fourtwo,,,,,,,,,,,,,,,,,,,,,,,,,,,,,,,,,,,,,,,,,,,,,,,,,,,,,,,,,,,,,,,,,,,,,,,,,,,,,,,,,,,,,,,,,,,,,,,,,,,,,,,,,,,,,,,,,,,,,,,,,,,,,,,,,,,,,,,
,,60aadeb9e6e8147089f7eced,2023-12-07_07h28.11.461,kallum_motion_pilot,2023.2.3,Win32,59.97361161,60aadeb9e6e8147089f7eced,6560176e4d91f764e2a42c74,657157d20ea19e92901e6c77,0.0342,0.0342,1,61,223,137,1,fiveseven,,,,,,,,,,,,,,,,,,,,,,,,,,,,,,,,,,,,,,,,,,,,,,,,,,,,,,,,,,,,,,,,,,,,,,,,,,,,,,,,,,,,,,,,,,,,,,,,,,,,,,,,,,,,,,,,,,,,,,,,,,,,,,,,,,,,,,,
,,60aadeb9e6e8147089f7eced,2023-12-07_07h28.11.461,kallum_motion_pilot,2023.2.3,Win32,59.97361161,60aadeb9e6e8147089f7eced,6560176e4d91f764e2a42c74,657157d20ea19e92901e6c77,0.0343,0.0343,1,62,224,6,1,fourtwo,,,,,,,,,,,,,,,,,,,,,,,,,,,,,,,,,,,,,,,,,,,,,,,,,,,,,,,,,,,,,,,,,,,,,,,,,,,,,,,,,,,,,,,,,,,,,,,,,,,,,,,,,,,,,,,,,,,,,,,,,,,,,,,,,,,,,,,
,,60aadeb9e6e8147089f7eced,2023-12-07_07h28.11.461,kallum_motion_pilot,2023.2.3,Win32,59.97361161,60aadeb9e6e8147089f7eced,6560176e4d91f764e2a42c74,657157d20ea19e92901e6c77,0.0344,0.0345,1,63,225,12,1,threeone,,,,,,,,,,,,,,,,,,,,,,,,,,,,,,,,,,,,,,,,,,,,,,,,,,,,,,,,,,,,,,,,,,,,,,,,,,,,,,,,,,,,,,,,,,,,,,,,,,,,,,,,,,,,,,,,,,,,,,,,,,,,,,,,,,,,,,,
,,60aadeb9e6e8147089f7eced,2023-12-07_07h28.11.461,kallum_motion_pilot,2023.2.3,Win32,59.97361161,60aadeb9e6e8147089f7eced,6560176e4d91f764e2a42c74,657157d20ea19e92901e6c77,0.0345,0.0345,1,64,226,36,1,threeone,,,,,,,,,,,,,,,,,,,,,,,,,,,,,,,,,,,,,,,,,,,,,,,,,,,,,,,,,,,,,,,,,,,,,,,,,,,,,,,,,,,,,,,,,,,,,,,,,,,,,,,,,,,,,,,,,,,,,,,,,,,,,,,,,,,,,,,
,,60aadeb9e6e8147089f7eced,2023-12-07_07h28.11.461,kallum_motion_pilot,2023.2.3,Win32,59.97361161,60aadeb9e6e8147089f7eced,6560176e4d91f764e2a42c74,657157d20ea19e92901e6c77,0.0347,0.0347,1,65,227,156,1,sevenfive,,,,,,,,,,,,,,,,,,,,,,,,,,,,,,,,,,,,,,,,,,,,,,,,,,,,,,,,,,,,,,,,,,,,,,,,,,,,,,,,,,,,,,,,,,,,,,,,,,,,,,,,,,,,,,,,,,,,,,,,,,,,,,,,,,,,,,,
,,60aadeb9e6e8147089f7eced,2023-12-07_07h28.11.461,kallum_motion_pilot,2023.2.3,Win32,59.97361161,60aadeb9e6e8147089f7eced,6560176e4d91f764e2a42c74,657157d20ea19e92901e6c77,0.0347,0.0348,1,66,228,55,1,fourthree,,,,,,,,,,,,,,,,,,,,,,,,,,,,,,,,,,,,,,,,,,,,,,,,,,,,,,,,,,,,,,,,,,,,,,,,,,,,,,,,,,,,,,,,,,,,,,,,,,,,,,,,,,,,,,,,,,,,,,,,,,,,,,,,,,,,,,,
,,60aadeb9e6e8147089f7eced,2023-12-07_07h28.11.461,kallum_motion_pilot,2023.2.3,Win32,59.97361161,60aadeb9e6e8147089f7eced,6560176e4d91f764e2a42c74,657157d20ea19e92901e6c77,0.0348,0.0349,1,67,229,133,1,seveneight,,,,,,,,,,,,,,,,,,,,,,,,,,,,,,,,,,,,,,,,,,,,,,,,,,,,,,,,,,,,,,,,,,,,,,,,,,,,,,,,,,,,,,,,,,,,,,,,,,,,,,,,,,,,,,,,,,,,,,,,,,,,,,,,,,,,,,,
,,60aadeb9e6e8147089f7eced,2023-12-07_07h28.11.461,kallum_motion_pilot,2023.2.3,Win32,59.97361161,60aadeb9e6e8147089f7eced,6560176e4d91f764e2a42c74,657157d20ea19e92901e6c77,0.035,0.035,1,68,230,4,1,threeone,,,,,,,,,,,,,,,,,,,,,,,,,,,,,,,,,,,,,,,,,,,,,,,,,,,,,,,,,,,,,,,,,,,,,,,,,,,,,,,,,,,,,,,,,,,,,,,,,,,,,,,,,,,,,,,,,,,,,,,,,,,,,,,,,,,,,,,
,,60aadeb9e6e8147089f7eced,2023-12-07_07h28.11.461,kallum_motion_pilot,2023.2.3,Win32,59.97361161,60aadeb9e6e8147089f7eced,6560176e4d91f764e2a42c74,657157d20ea19e92901e6c77,0.0351,0.0351,1,69,231,103,1,eightseven,,,,,,,,,,,,,,,,,,,,,,,,,,,,,,,,,,,,,,,,,,,,,,,,,,,,,,,,,,,,,,,,,,,,,,,,,,,,,,,,,,,,,,,,,,,,,,,,,,,,,,,,,,,,,,,,,,,,,,,,,,,,,,,,,,,,,,,
,,60aadeb9e6e8147089f7eced,2023-12-07_07h28.11.461,kallum_motion_pilot,2023.2.3,Win32,59.97361161,60aadeb9e6e8147089f7eced,6560176e4d91f764e2a42c74,657157d20ea19e92901e6c77,0.0351,0.0352,1,70,232,27,1,twofour,,,,,,,,,,,,,,,,,,,,,,,,,,,,,,,,,,,,,,,,,,,,,,,,,,,,,,,,,,,,,,,,,,,,,,,,,,,,,,,,,,,,,,,,,,,,,,,,,,,,,,,,,,,,,,,,,,,,,,,,,,,,,,,,,,,,,,,
,,60aadeb9e6e8147089f7eced,2023-12-07_07h28.11.461,kallum_motion_pilot,2023.2.3,Win32,59.97361161,60aadeb9e6e8147089f7eced,6560176e4d91f764e2a42c74,657157d20ea19e92901e6c77,0.0353,0.0353,1,71,233,64,1,onetwo,,,,,,,,,,,,,,,,,,,,,,,,,,,,,,,,,,,,,,,,,,,,,,,,,,,,,,,,,,,,,,,,,,,,,,,,,,,,,,,,,,,,,,,,,,,,,,,,,,,,,,,,,,,,,,,,,,,,,,,,,,,,,,,,,,,,,,,
,,60aadeb9e6e8147089f7eced,2023-12-07_07h28.11.461,kallum_motion_pilot,2023.2.3,Win32,59.97361161,60aadeb9e6e8147089f7eced,6560176e4d91f764e2a42c74,657157d20ea19e92901e6c77,0.0354,0.0354,1,72,234,60,1,threeone,,,,,,,,,,,,,,,,,,,,,,,,,,,,,,,,,,,,,,,,,,,,,,,,,,,,,,,,,,,,,,,,,,,,,,,,,,,,,,,,,,,,,,,,,,,,,,,,,,,,,,,,,,,,,,,,,,,,,,,,,,,,,,,,,,,,,,,
,,60aadeb9e6e8147089f7eced,2023-12-07_07h28.11.461,kallum_motion_pilot,2023.2.3,Win32,59.97361161,60aadeb9e6e8147089f7eced,6560176e4d91f764e2a42c74,657157d20ea19e92901e6c77,0.0354,0.0355,1,73,235,0,1,onetwo,,,,,,,,,,,,,,,,,,,,,,,,,,,,,,,,,,,,,,,,,,,,,,,,,,,,,,,,,,,,,,,,,,,,,,,,,,,,,,,,,,,,,,,,,,,,,,,,,,,,,,,,,,,,,,,,,,,,,,,,,,,,,,,,,,,,,,,
,,60aadeb9e6e8147089f7eced,2023-12-07_07h28.11.461,kallum_motion_pilot,2023.2.3,Win32,59.97361161,60aadeb9e6e8147089f7eced,6560176e4d91f764e2a42c74,657157d20ea19e92901e6c77,0.0356,0.0357,1,74,236,157,1,seveneight,,,,,,,,,,,,,,,,,,,,,,,,,,,,,,,,,,,,,,,,,,,,,,,,,,,,,,,,,,,,,,,,,,,,,,,,,,,,,,,,,,,,,,,,,,,,,,,,,,,,,,,,,,,,,,,,,,,,,,,,,,,,,,,,,,,,,,,
,,60aadeb9e6e8147089f7eced,2023-12-07_07h28.11.461,kallum_motion_pilot,2023.2.3,Win32,59.97361161,60aadeb9e6e8147089f7eced,6560176e4d91f764e2a42c74,657157d20ea19e92901e6c77,0.0357,0.0358,1,75,237,25,1,onethree,,,,,,,,,,,,,,,,,,,,,,,,,,,,,,,,,,,,,,,,,,,,,,,,,,,,,,,,,,,,,,,,,,,,,,,,,,,,,,,,,,,,,,,,,,,,,,,,,,,,,,,,,,,,,,,,,,,,,,,,,,,,,,,,,,,,,,,
,,60aadeb9e6e8147089f7eced,2023-12-07_07h28.11.461,kallum_motion_pilot,2023.2.3,Win32,59.97361161,60aadeb9e6e8147089f7eced,6560176e4d91f764e2a42c74,657157d20ea19e92901e6c77,0.0359,0.036,1,76,238,63,1,fourthree,,,,,,,,,,,,,,,,,,,,,,,,,,,,,,,,,,,,,,,,,,,,,,,,,,,,,,,,,,,,,,,,,,,,,,,,,,,,,,,,,,,,,,,,,,,,,,,,,,,,,,,,,,,,,,,,,,,,,,,,,,,,,,,,,,,,,,,
,,60aadeb9e6e8147089f7eced,2023-12-07_07h28.11.461,kallum_motion_pilot,2023.2.3,Win32,59.97361161,60aadeb9e6e8147089f7eced,6560176e4d91f764e2a42c74,657157d20ea19e92901e6c77,0.0361,0.0361,1,77,239,149,1,seveneight,,,,,,,,,,,,,,,,,,,,,,,,,,,,,,,,,,,,,,,,,,,,,,,,,,,,,,,,,,,,,,,,,,,,,,,,,,,,,,,,,,,,,,,,,,,,,,,,,,,,,,,,,,,,,,,,,,,,,,,,,,,,,,,,,,,,,,,
,,60aadeb9e6e8147089f7eced,2023-12-07_07h28.11.461,kallum_motion_pilot,2023.2.3,Win32,59.97361161,60aadeb9e6e8147089f7eced,6560176e4d91f764e2a42c74,657157d20ea19e92901e6c77,0.0361,0.0363,1,78,240,43,1,twofour,,,,,,,,,,,,,,,,,,,,,,,,,,,,,,,,,,,,,,,,,,,,,,,,,,,,,,,,,,,,,,,,,,,,,,,,,,,,,,,,,,,,,,,,,,,,,,,,,,,,,,,,,,,,,,,,,,,,,,,,,,,,,,,,,,,,,,,
,,60aadeb9e6e8147089f7eced,2023-12-07_07h28.11.461,kallum_motion_pilot,2023.2.3,Win32,59.97361161,60aadeb9e6e8147089f7eced,6560176e4d91f764e2a42c74,657157d20ea19e92901e6c77,0.0363,0.0365,1,79,241,82,1,sixfive,,,,,,,,,,,,,,,,,,,,,,,,,,,,,,,,,,,,,,,,,,,,,,,,,,,,,,,,,,,,,,,,,,,,,,,,,,,,,,,,,,,,,,,,,,,,,,,,,,,,,,,,,,,,,,,,,,,,,,,,,,,,,,,,,,,,,,,
,,60aadeb9e6e8147089f7eced,2023-12-07_07h28.11.461,kallum_motion_pilot,2023.2.3,Win32,59.97361161,60aadeb9e6e8147089f7eced,6560176e4d91f764e2a42c74,657157d20ea19e92901e6c77,0.0365,0.0366,1,80,242,62,1,fourtwo,,,,,,,,,,,,,,,,,,,,,,,,,,,,,,,,,,,,,,,,,,,,,,,,,,,,,,,,,,,,,,,,,,,,,,,,,,,,,,,,,,,,,,,,,,,,,,,,,,,,,,,,,,,,,,,,,,,,,,,,,,,,,,,,,,,,,,,
,,60aadeb9e6e8147089f7eced,2023-12-07_07h28.11.461,kallum_motion_pilot,2023.2.3,Win32,59.97361161,60aadeb9e6e8147089f7eced,6560176e4d91f764e2a42c74,657157d20ea19e92901e6c77,0.0366,0.0367,1,81,243,26,1,twoone,,,,,,,,,,,,,,,,,,,,,,,,,,,,,,,,,,,,,,,,,,,,,,,,,,,,,,,,,,,,,,,,,,,,,,,,,,,,,,,,,,,,,,,,,,,,,,,,,,,,,,,,,,,,,,,,,,,,,,,,,,,,,,,,,,,,,,,
,,60aadeb9e6e8147089f7eced,2023-12-07_07h28.11.461,kallum_motion_pilot,2023.2.3,Win32,59.97361161,60aadeb9e6e8147089f7eced,6560176e4d91f764e2a42c74,657157d20ea19e92901e6c77,0.0368,0.0369,1,82,244,9,1,onethree,,,,,,,,,,,,,,,,,,,,,,,,,,,,,,,,,,,,,,,,,,,,,,,,,,,,,,,,,,,,,,,,,,,,,,,,,,,,,,,,,,,,,,,,,,,,,,,,,,,,,,,,,,,,,,,,,,,,,,,,,,,,,,,,,,,,,,,
,,60aadeb9e6e8147089f7eced,2023-12-07_07h28.11.461,kallum_motion_pilot,2023.2.3,Win32,59.97361161,60aadeb9e6e8147089f7eced,6560176e4d91f764e2a42c74,657157d20ea19e92901e6c77,0.0369,0.037,1,83,245,114,1,sixfive,,,,,,,,,,,,,,,,,,,,,,,,,,,,,,,,,,,,,,,,,,,,,,,,,,,,,,,,,,,,,,,,,,,,,,,,,,,,,,,,,,,,,,,,,,,,,,,,,,,,,,,,,,,,,,,,,,,,,,,,,,,,,,,,,,,,,,,
,,60aadeb9e6e8147089f7eced,2023-12-07_07h28.11.461,kallum_motion_pilot,2023.2.3,Win32,59.97361161,60aadeb9e6e8147089f7eced,6560176e4d91f764e2a42c74,657157d20ea19e92901e6c77,0.037,0.0371,1,84,246,91,1,sixeight,,,,,,,,,,,,,,,,,,,,,,,,,,,,,,,,,,,,,,,,,,,,,,,,,,,,,,,,,,,,,,,,,,,,,,,,,,,,,,,,,,,,,,,,,,,,,,,,,,,,,,,,,,,,,,,,,,,,,,,,,,,,,,,,,,,,,,,
,,60aadeb9e6e8147089f7eced,2023-12-07_07h28.11.461,kallum_motion_pilot,2023.2.3,Win32,59.97361161,60aadeb9e6e8147089f7eced,6560176e4d91f764e2a42c74,657157d20ea19e92901e6c77,0.0372,0.0373,1,85,247,144,1,fivesix,,,,,,,,,,,,,,,,,,,,,,,,,,,,,,,,,,,,,,,,,,,,,,,,,,,,,,,,,,,,,,,,,,,,,,,,,,,,,,,,,,,,,,,,,,,,,,,,,,,,,,,,,,,,,,,,,,,,,,,,,,,,,,,,,,,,,,,
,,60aadeb9e6e8147089f7eced,2023-12-07_07h28.11.461,kallum_motion_pilot,2023.2.3,Win32,59.97361161,60aadeb9e6e8147089f7eced,6560176e4d91f764e2a42c74,657157d20ea19e92901e6c77,0.0373,0.0375,1,86,248,10,1,twoone,,,,,,,,,,,,,,,,,,,,,,,,,,,,,,,,,,,,,,,,,,,,,,,,,,,,,,,,,,,,,,,,,,,,,,,,,,,,,,,,,,,,,,,,,,,,,,,,,,,,,,,,,,,,,,,,,,,,,,,,,,,,,,,,,,,,,,,
,,60aadeb9e6e8147089f7eced,2023-12-07_07h28.11.461,kallum_motion_pilot,2023.2.3,Win32,59.97361161,60aadeb9e6e8147089f7eced,6560176e4d91f764e2a42c74,657157d20ea19e92901e6c77,0.0376,0.0376,1,87,249,2,1,twoone,,,,,,,,,,,,,,,,,,,,,,,,,,,,,,,,,,,,,,,,,,,,,,,,,,,,,,,,,,,,,,,,,,,,,,,,,,,,,,,,,,,,,,,,,,,,,,,,,,,,,,,,,,,,,,,,,,,,,,,,,,,,,,,,,,,,,,,
,,60aadeb9e6e8147089f7eced,2023-12-07_07h28.11.461,kallum_motion_pilot,2023.2.3,Win32,59.97361161,60aadeb9e6e8147089f7eced,6560176e4d91f764e2a42c74,657157d20ea19e92901e6c77,0.0377,0.0378,1,88,250,44,1,threeone,,,,,,,,,,,,,,,,,,,,,,,,,,,,,,,,,,,,,,,,,,,,,,,,,,,,,,,,,,,,,,,,,,,,,,,,,,,,,,,,,,,,,,,,,,,,,,,,,,,,,,,,,,,,,,,,,,,,,,,,,,,,,,,,,,,,,,,
,,60aadeb9e6e8147089f7eced,2023-12-07_07h28.11.461,kallum_motion_pilot,2023.2.3,Win32,59.97361161,60aadeb9e6e8147089f7eced,6560176e4d91f764e2a42c74,657157d20ea19e92901e6c77,0.0379,0.038,1,89,251,34,1,twoone,,,,,,,,,,,,,,,,,,,,,,,,,,,,,,,,,,,,,,,,,,,,,,,,,,,,,,,,,,,,,,,,,,,,,,,,,,,,,,,,,,,,,,,,,,,,,,,,,,,,,,,,,,,,,,,,,,,,,,,,,,,,,,,,,,,,,,,
,,60aadeb9e6e8147089f7eced,2023-12-07_07h28.11.461,kallum_motion_pilot,2023.2.3,Win32,59.97361161,60aadeb9e6e8147089f7eced,6560176e4d91f764e2a42c74,657157d20ea19e92901e6c77,0.0382,0.0382,1,90,252,142,1,eightsix,,,,,,,,,,,,,,,,,,,,,,,,,,,,,,,,,,,,,,,,,,,,,,,,,,,,,,,,,,,,,,,,,,,,,,,,,,,,,,,,,,,,,,,,,,,,,,,,,,,,,,,,,,,,,,,,,,,,,,,,,,,,,,,,,,,,,,,
,,60aadeb9e6e8147089f7eced,2023-12-07_07h28.11.461,kallum_motion_pilot,2023.2.3,Win32,59.97361161,60aadeb9e6e8147089f7eced,6560176e4d91f764e2a42c74,657157d20ea19e92901e6c77,0.0384,0.0384,1,91,253,45,1,threefour,,,,,,,,,,,,,,,,,,,,,,,,,,,,,,,,,,,,,,,,,,,,,,,,,,,,,,,,,,,,,,,,,,,,,,,,,,,,,,,,,,,,,,,,,,,,,,,,,,,,,,,,,,,,,,,,,,,,,,,,,,,,,,,,,,,,,,,
,,60aadeb9e6e8147089f7eced,2023-12-07_07h28.11.461,kallum_motion_pilot,2023.2.3,Win32,59.97361161,60aadeb9e6e8147089f7eced,6560176e4d91f764e2a42c74,657157d20ea19e92901e6c77,0.0385,0.0385,1,92,254,135,1,eightseven,,,,,,,,,,,,,,,,,,,,,,,,,,,,,,,,,,,,,,,,,,,,,,,,,,,,,,,,,,,,,,,,,,,,,,,,,,,,,,,,,,,,,,,,,,,,,,,,,,,,,,,,,,,,,,,,,,,,,,,,,,,,,,,,,,,,,,,
,,60aadeb9e6e8147089f7eced,2023-12-07_07h28.11.461,kallum_motion_pilot,2023.2.3,Win32,59.97361161,60aadeb9e6e8147089f7eced,6560176e4d91f764e2a42c74,657157d20ea19e92901e6c77,0.0386,0.0387,1,93,255,48,1,onetwo,,,,,,,,,,,,,,,,,,,,,,,,,,,,,,,,,,,,,,,,,,,,,,,,,,,,,,,,,,,,,,,,,,,,,,,,,,,,,,,,,,,,,,,,,,,,,,,,,,,,,,,,,,,,,,,,,,,,,,,,,,,,,,,,,,,,,,,
,,60aadeb9e6e8147089f7eced,2023-12-07_07h28.11.461,kallum_motion_pilot,2023.2.3,Win32,59.97361161,60aadeb9e6e8147089f7eced,6560176e4d91f764e2a42c74,657157d20ea19e92901e6c77,0.0388,0.0388,1,94,256,17,1,onethree,,,,,,,,,,,,,,,,,,,,,,,,,,,,,,,,,,,,,,,,,,,,,,,,,,,,,,,,,,,,,,,,,,,,,,,,,,,,,,,,,,,,,,,,,,,,,,,,,,,,,,,,,,,,,,,,,,,,,,,,,,,,,,,,,,,,,,,
,,60aadeb9e6e8147089f7eced,2023-12-07_07h28.11.461,kallum_motion_pilot,2023.2.3,Win32,59.97361161,60aadeb9e6e8147089f7eced,6560176e4d91f764e2a42c74,657157d20ea19e92901e6c77,0.039,0.039,1,95,257,104,1,fivesix,,,,,,,,,,,,,,,,,,,,,,,,,,,,,,,,,,,,,,,,,,,,,,,,,,,,,,,,,,,,,,,,,,,,,,,,,,,,,,,,,,,,,,,,,,,,,,,,,,,,,,,,,,,,,,,,,,,,,,,,,,,,,,,,,,,,,,,
,,60aadeb9e6e8147089f7eced,2023-12-07_07h28.11.461,kallum_motion_pilot,2023.2.3,Win32,59.97361161,60aadeb9e6e8147089f7eced,6560176e4d91f764e2a42c74,657157d20ea19e92901e6c77,0.039,0.0391,1,96,258,7,1,fourthree,,,,,,,,,,,,,,,,,,,,,,,,,,,,,,,,,,,,,,,,,,,,,,,,,,,,,,,,,,,,,,,,,,,,,,,,,,,,,,,,,,,,,,,,,,,,,,,,,,,,,,,,,,,,,,,,,,,,,,,,,,,,,,,,,,,,,,,
,,60aadeb9e6e8147089f7eced,2023-12-07_07h28.11.461,kallum_motion_pilot,2023.2.3,Win32,59.97361161,60aadeb9e6e8147089f7eced,6560176e4d91f764e2a42c74,657157d20ea19e92901e6c77,0.0392,0.0392,1,97,259,78,1,fourtwo,,,,,,,,,,,,,,,,,,,,,,,,,,,,,,,,,,,,,,,,,,,,,,,,,,,,,,,,,,,,,,,,,,,,,,,,,,,,,,,,,,,,,,,,,,,,,,,,,,,,,,,,,,,,,,,,,,,,,,,,,,,,,,,,,,,,,,,
,,60aadeb9e6e8147089f7eced,2023-12-07_07h28.11.461,kallum_motion_pilot,2023.2.3,Win32,59.97361161,60aadeb9e6e8147089f7eced,6560176e4d91f764e2a42c74,657157d20ea19e92901e6c77,0.0394,0.0395,1,98,260,86,1,eightsix,,,,,,,,,,,,,,,,,,,,,,,,,,,,,,,,,,,,,,,,,,,,,,,,,,,,,,,,,,,,,,,,,,,,,,,,,,,,,,,,,,,,,,,,,,,,,,,,,,,,,,,,,,,,,,,,,,,,,,,,,,,,,,,,,,,,,,,
,,60aadeb9e6e8147089f7eced,2023-12-07_07h28.11.461,kallum_motion_pilot,2023.2.3,Win32,59.97361161,60aadeb9e6e8147089f7eced,6560176e4d91f764e2a42c74,657157d20ea19e92901e6c77,0.0395,0.0396,1,99,261,119,1,eightseven,,,,,,,,,,,,,,,,,,,,,,,,,,,,,,,,,,,,,,,,,,,,,,,,,,,,,,,,,,,,,,,,,,,,,,,,,,,,,,,,,,,,,,,,,,,,,,,,,,,,,,,,,,,,,,,,,,,,,,,,,,,,,,,,,,,,,,,
,,60aadeb9e6e8147089f7eced,2023-12-07_07h28.11.461,kallum_motion_pilot,2023.2.3,Win32,59.97361161,60aadeb9e6e8147089f7eced,6560176e4d91f764e2a42c74,657157d20ea19e92901e6c77,0.0396,0.0396,1,100,262,117,1,seveneight,,,,,,,,,,,,,,,,,,,,,,,,,,,,,,,,,,,,,,,,,,,,,,,,,,,,,,,,,,,,,,,,,,,,,,,,,,,,,,,,,,,,,,,,,,,,,,,,,,,,,,,,,,,,,,,,,,,,,,,,,,,,,,,,,,,,,,,
,,60aadeb9e6e8147089f7eced,2023-12-07_07h28.11.461,kallum_motion_pilot,2023.2.3,Win32,59.97361161,60aadeb9e6e8147089f7eced,6560176e4d91f764e2a42c74,657157d20ea19e92901e6c77,0.0397,0.0397,1,101,263,57,1,onethree,,,,,,,,,,,,,,,,,,,,,,,,,,,,,,,,,,,,,,,,,,,,,,,,,,,,,,,,,,,,,,,,,,,,,,,,,,,,,,,,,,,,,,,,,,,,,,,,,,,,,,,,,,,,,,,,,,,,,,,,,,,,,,,,,,,,,,,
,,60aadeb9e6e8147089f7eced,2023-12-07_07h28.11.461,kallum_motion_pilot,2023.2.3,Win32,59.97361161,60aadeb9e6e8147089f7eced,6560176e4d91f764e2a42c74,657157d20ea19e92901e6c77,0.0397,0.0398,1,102,264,108,1,sevenfive,,,,,,,,,,,,,,,,,,,,,,,,,,,,,,,,,,,,,,,,,,,,,,,,,,,,,,,,,,,,,,,,,,,,,,,,,,,,,,,,,,,,,,,,,,,,,,,,,,,,,,,,,,,,,,,,,,,,,,,,,,,,,,,,,,,,,,,
,,60aadeb9e6e8147089f7eced,2023-12-07_07h28.11.461,kallum_motion_pilot,2023.2.3,Win32,59.97361161,60aadeb9e6e8147089f7eced,6560176e4d91f764e2a42c74,657157d20ea19e92901e6c77,0.0398,0.0398,1,103,265,85,1,seveneight,,,,,,,,,,,,,,,,,,,,,,,,,,,,,,,,,,,,,,,,,,,,,,,,,,,,,,,,,,,,,,,,,,,,,,,,,,,,,,,,,,,,,,,,,,,,,,,,,,,,,,,,,,,,,,,,,,,,,,,,,,,,,,,,,,,,,,,
,,60aadeb9e6e8147089f7eced,2023-12-07_07h28.11.461,kallum_motion_pilot,2023.2.3,Win32,59.97361161,60aadeb9e6e8147089f7eced,6560176e4d91f764e2a42c74,657157d20ea19e92901e6c77,0.0398,0.04,1,104,266,15,1,fourthree,,,,,,,,,,,,,,,,,,,,,,,,,,,,,,,,,,,,,,,,,,,,,,,,,,,,,,,,,,,,,,,,,,,,,,,,,,,,,,,,,,,,,,,,,,,,,,,,,,,,,,,,,,,,,,,,,,,,,,,,,,,,,,,,,,,,,,,
,,60aadeb9e6e8147089f7eced,2023-12-07_07h28.11.461,kallum_motion_pilot,2023.2.3,Win32,59.97361161,60aadeb9e6e8147089f7eced,6560176e4d91f764e2a42c74,657157d20ea19e92901e6c77,0.04,0.04,1,105,267,160,1,fivesix,,,,,,,,,,,,,,,,,,,,,,,,,,,,,,,,,,,,,,,,,,,,,,,,,,,,,,,,,,,,,,,,,,,,,,,,,,,,,,,,,,,,,,,,,,,,,,,,,,,,,,,,,,,,,,,,,,,,,,,,,,,,,,,,,,,,,,,
,,60aadeb9e6e8147089f7eced,2023-12-07_07h28.11.461,kallum_motion_pilot,2023.2.3,Win32,59.97361161,60aadeb9e6e8147089f7eced,6560176e4d91f764e2a42c74,657157d20ea19e92901e6c77,0.04,0.04,1,106,268,112,1,fivesix,,,,,,,,,,,,,,,,,,,,,,,,,,,,,,,,,,,,,,,,,,,,,,,,,,,,,,,,,,,,,,,,,,,,,,,,,,,,,,,,,,,,,,,,,,,,,,,,,,,,,,,,,,,,,,,,,,,,,,,,,,,,,,,,,,,,,,,
,,60aadeb9e6e8147089f7eced,2023-12-07_07h28.11.461,kallum_motion_pilot,2023.2.3,Win32,59.97361161,60aadeb9e6e8147089f7eced,6560176e4d91f764e2a42c74,657157d20ea19e92901e6c77,0.0401,0.0401,1,107,269,109,1,seveneight,,,,,,,,,,,,,,,,,,,,,,,,,,,,,,,,,,,,,,,,,,,,,,,,,,,,,,,,,,,,,,,,,,,,,,,,,,,,,,,,,,,,,,,,,,,,,,,,,,,,,,,,,,,,,,,,,,,,,,,,,,,,,,,,,,,,,,,
,,60aadeb9e6e8147089f7eced,2023-12-07_07h28.11.461,kallum_motion_pilot,2023.2.3,Win32,59.97361161,60aadeb9e6e8147089f7eced,6560176e4d91f764e2a42c74,657157d20ea19e92901e6c77,0.0401,0.0402,1,108,270,54,1,fourtwo,,,,,,,,,,,,,,,,,,,,,,,,,,,,,,,,,,,,,,,,,,,,,,,,,,,,,,,,,,,,,,,,,,,,,,,,,,,,,,,,,,,,,,,,,,,,,,,,,,,,,,,,,,,,,,,,,,,,,,,,,,,,,,,,,,,,,,,
,,60aadeb9e6e8147089f7eced,2023-12-07_07h28.11.461,kallum_motion_pilot,2023.2.3,Win32,59.97361161,60aadeb9e6e8147089f7eced,6560176e4d91f764e2a42c74,657157d20ea19e92901e6c77,0.0402,0.0403,1,109,271,11,1,twofour,,,,,,,,,,,,,,,,,,,,,,,,,,,,,,,,,,,,,,,,,,,,,,,,,,,,,,,,,,,,,,,,,,,,,,,,,,,,,,,,,,,,,,,,,,,,,,,,,,,,,,,,,,,,,,,,,,,,,,,,,,,,,,,,,,,,,,,
,,60aadeb9e6e8147089f7eced,2023-12-07_07h28.11.461,kallum_motion_pilot,2023.2.3,Win32,59.97361161,60aadeb9e6e8147089f7eced,6560176e4d91f764e2a42c74,657157d20ea19e92901e6c77,0.0403,0.0404,1,110,272,150,1,eightsix,,,,,,,,,,,,,,,,,,,,,,,,,,,,,,,,,,,,,,,,,,,,,,,,,,,,,,,,,,,,,,,,,,,,,,,,,,,,,,,,,,,,,,,,,,,,,,,,,,,,,,,,,,,,,,,,,,,,,,,,,,,,,,,,,,,,,,,
,,60aadeb9e6e8147089f7eced,2023-12-07_07h28.11.461,kallum_motion_pilot,2023.2.3,Win32,59.97361161,60aadeb9e6e8147089f7eced,6560176e4d91f764e2a42c74,657157d20ea19e92901e6c77,0.0404,0.0405,1,111,273,129,1,fiveseven,,,,,,,,,,,,,,,,,,,,,,,,,,,,,,,,,,,,,,,,,,,,,,,,,,,,,,,,,,,,,,,,,,,,,,,,,,,,,,,,,,,,,,,,,,,,,,,,,,,,,,,,,,,,,,,,,,,,,,,,,,,,,,,,,,,,,,,
,,60aadeb9e6e8147089f7eced,2023-12-07_07h28.11.461,kallum_motion_pilot,2023.2.3,Win32,59.97361161,60aadeb9e6e8147089f7eced,6560176e4d91f764e2a42c74,657157d20ea19e92901e6c77,0.0405,0.0405,1,112,274,29,1,threefour,,,,,,,,,,,,,,,,,,,,,,,,,,,,,,,,,,,,,,,,,,,,,,,,,,,,,,,,,,,,,,,,,,,,,,,,,,,,,,,,,,,,,,,,,,,,,,,,,,,,,,,,,,,,,,,,,,,,,,,,,,,,,,,,,,,,,,,
,,60aadeb9e6e8147089f7eced,2023-12-07_07h28.11.461,kallum_motion_pilot,2023.2.3,Win32,59.97361161,60aadeb9e6e8147089f7eced,6560176e4d91f764e2a42c74,657157d20ea19e92901e6c77,0.0405,0.0406,1,113,275,159,1,eightseven,,,,,,,,,,,,,,,,,,,,,,,,,,,,,,,,,,,,,,,,,,,,,,,,,,,,,,,,,,,,,,,,,,,,,,,,,,,,,,,,,,,,,,,,,,,,,,,,,,,,,,,,,,,,,,,,,,,,,,,,,,,,,,,,,,,,,,,
,,60aadeb9e6e8147089f7eced,2023-12-07_07h28.11.461,kallum_motion_pilot,2023.2.3,Win32,59.97361161,60aadeb9e6e8147089f7eced,6560176e4d91f764e2a42c74,657157d20ea19e92901e6c77,0.0406,0.0406,1,114,276,105,1,fiveseven,,,,,,,,,,,,,,,,,,,,,,,,,,,,,,,,,,,,,,,,,,,,,,,,,,,,,,,,,,,,,,,,,,,,,,,,,,,,,,,,,,,,,,,,,,,,,,,,,,,,,,,,,,,,,,,,,,,,,,,,,,,,,,,,,,,,,,,
,,60aadeb9e6e8147089f7eced,2023-12-07_07h28.11.461,kallum_motion_pilot,2023.2.3,Win32,59.97361161,60aadeb9e6e8147089f7eced,6560176e4d91f764e2a42c74,657157d20ea19e92901e6c77,0.0407,0.0407,1,115,277,81,1,fiveseven,,,,,,,,,,,,,,,,,,,,,,,,,,,,,,,,,,,,,,,,,,,,,,,,,,,,,,,,,,,,,,,,,,,,,,,,,,,,,,,,,,,,,,,,,,,,,,,,,,,,,,,,,,,,,,,,,,,,,,,,,,,,,,,,,,,,,,,
,,60aadeb9e6e8147089f7eced,2023-12-07_07h28.11.461,kallum_motion_pilot,2023.2.3,Win32,59.97361161,60aadeb9e6e8147089f7eced,6560176e4d91f764e2a42c74,657157d20ea19e92901e6c77,0.0407,0.0408,1,116,278,47,1,fourthree,,,,,,,,,,,,,,,,,,,,,,,,,,,,,,,,,,,,,,,,,,,,,,,,,,,,,,,,,,,,,,,,,,,,,,,,,,,,,,,,,,,,,,,,,,,,,,,,,,,,,,,,,,,,,,,,,,,,,,,,,,,,,,,,,,,,,,,
,,60aadeb9e6e8147089f7eced,2023-12-07_07h28.11.461,kallum_motion_pilot,2023.2.3,Win32,59.97361161,60aadeb9e6e8147089f7eced,6560176e4d91f764e2a42c74,657157d20ea19e92901e6c77,0.0408,0.0409,1,117,279,131,1,sixeight,,,,,,,,,,,,,,,,,,,,,,,,,,,,,,,,,,,,,,,,,,,,,,,,,,,,,,,,,,,,,,,,,,,,,,,,,,,,,,,,,,,,,,,,,,,,,,,,,,,,,,,,,,,,,,,,,,,,,,,,,,,,,,,,,,,,,,,
