startup.started,startup.stopped,Prolific ID*,date,expName,psychopyVersion,OS,frameRate,participant,study_id,session,stimpositions.started,stimpositions.stopped,hardcoded_stimulus_positions.thisRepN,hardcoded_stimulus_positions.thisTrialN,hardcoded_stimulus_positions.thisN,hardcoded_stimulus_positions.thisIndex,hardcoded_stimulus_positions.ran,StimulusPos,stimorientation.started,stimorientation.stopped,prac_stimorientation_import_loop.thisRepN,prac_stimorientation_import_loop.thisTrialN,prac_stimorientation_import_loop.thisN,prac_stimorientation_import_loop.thisIndex,prac_stimorientation_import_loop.ran,Stimorientation,welcome_instr.started,welcome_instr.stopped,key_resp.keys,key_resp.rt,key_resp.duration,response_steppedout_1.started,response_steppedout_1.stopped,key_resp_20.keys,key_resp_20.rt,key_resp_20.duration,response_steppedout_2.started,response_steppedout_2.stopped,key_resp_19.keys,key_resp_19.rt,key_resp_19.duration,stim_response_instr.started,stim_response_instr.stopped,key_resp_15.keys,key_resp_15.rt,key_resp_15.duration,direction_instr_2.started,direction_instr_2.stopped,key_resp_9.keys,key_resp_9.rt,key_resp_9.duration,instr_prac.started,instr_prac.stopped,key_resp_10.keys,key_resp_10.rt,key_resp_10.duration,Stim1_display_prac.started,Stim1_display_prac.stopped,Ecc,Circle1_ori,Circle2_ori,response_prac.started,similarity,response_time,response_prac.stopped,mouse_5.x,mouse_5.y,mouse_5.leftButton,mouse_5.midButton,mouse_5.rightButton,mouse_5.clicked_name,responseprac_feedback.started,responseprac_feedback.stopped,summary2_prac.started,summary2_prac.stopped,mouse_6.x,mouse_6.y,mouse_6.leftButton,mouse_6.midButton,mouse_6.rightButton,mouse_6.clicked_name,duringprac.thisRepN,duringprac.thisTrialN,duringprac.thisN,duringprac.thisIndex,duringprac.ran,begin.started,begin.stopped,key_resp_22.keys,key_resp_22.rt,key_resp_22.duration,Stim1_display.started,Stim1_display.stopped,circle1_ori,circle2_ori,blank.started,blank.stopped,response.started,response.stopped,mouse.x,mouse.y,mouse.leftButton,mouse.midButton,mouse.rightButton,mouse.clicked_name,response_2.started,response_2.stopped,mouse_2.x,mouse_2.y,mouse_2.leftButton,mouse_2.midButton,mouse_2.rightButton,mouse_2.clicked_name,special_trial.started,special_trial.stopped,catch_1.started,catch_1.stopped,mouse_3.x,mouse_3.y,mouse_3.leftButton,mouse_3.midButton,mouse_3.rightButton,catchresponse,catchnumber,response_time_catch,Catch,response_sum.started,response_sum.stopped,mouse_11.x,mouse_11.y,mouse_11.leftButton,mouse_11.midButton,mouse_11.rightButton,main_trial.thisRepN,main_trial.thisTrialN,main_trial.thisN,main_trial.thisIndex,main_trial.ran,Orientationtrialno,xcircle1_ori,xcircle2_ori,flip_presentation_sequence_for_double_pass.started,flip_presentation_sequence_for_double_pass.stopped,double_pass.thisRepN,double_pass.thisTrialN,double_pass.thisN,double_pass.thisIndex,double_pass.ran,goodbye.started,goodbye.stopped,key_resp_3.keys,key_resp_3.rt,key_resp_3.duration
0.0006,0.0009,60de7deffb38fe0ad1684964,2023-12-06_23h17.11.590,kallum_motion_pilot,2023.2.3,Win32,60.0024001,60de7deffb38fe0ad1684964,6560176e4d91f764e2a42c74,657158be5fb55eb8ed8fd23a,,,,,,,,,,,,,,,,,,,,,,,,,,,,,,,,,,,,,,,,,,,,,,,,,,,,,,,,,,,,,,,,,,,,,,,,,,,,,,,,,,,,,,,,,,,,,,,,,,,,,,,,,,,,,,,,,,,,,,,,,,,,,,,,,,,,,,,,,,,,,,,
,,60de7deffb38fe0ad1684964,2023-12-06_23h17.11.590,kallum_motion_pilot,2023.2.3,Win32,60.0024001,60de7deffb38fe0ad1684964,6560176e4d91f764e2a42c74,657158be5fb55eb8ed8fd23a,0.0696,0.07,0,0,0,23,1,fourthree,,,,,,,,,,,,,,,,,,,,,,,,,,,,,,,,,,,,,,,,,,,,,,,,,,,,,,,,,,,,,,,,,,,,,,,,,,,,,,,,,,,,,,,,,,,,,,,,,,,,,,,,,,,,,,,,,,,,,,,,,,,,,,,,,,,,,,,
,,60de7deffb38fe0ad1684964,2023-12-06_23h17.11.590,kallum_motion_pilot,2023.2.3,Win32,60.0024001,60de7deffb38fe0ad1684964,6560176e4d91f764e2a42c74,657158be5fb55eb8ed8fd23a,0.0706,0.0707,0,1,1,67,1,twofour,,,,,,,,,,,,,,,,,,,,,,,,,,,,,,,,,,,,,,,,,,,,,,,,,,,,,,,,,,,,,,,,,,,,,,,,,,,,,,,,,,,,,,,,,,,,,,,,,,,,,,,,,,,,,,,,,,,,,,,,,,,,,,,,,,,,,,,
,,60de7deffb38fe0ad1684964,2023-12-06_23h17.11.590,kallum_motion_pilot,2023.2.3,Win32,60.0024001,60de7deffb38fe0ad1684964,6560176e4d91f764e2a42c74,657158be5fb55eb8ed8fd23a,0.071,0.0711,0,2,2,47,1,fourthree,,,,,,,,,,,,,,,,,,,,,,,,,,,,,,,,,,,,,,,,,,,,,,,,,,,,,,,,,,,,,,,,,,,,,,,,,,,,,,,,,,,,,,,,,,,,,,,,,,,,,,,,,,,,,,,,,,,,,,,,,,,,,,,,,,,,,,,
,,60de7deffb38fe0ad1684964,2023-12-06_23h17.11.590,kallum_motion_pilot,2023.2.3,Win32,60.0024001,60de7deffb38fe0ad1684964,6560176e4d91f764e2a42c74,657158be5fb55eb8ed8fd23a,0.0716,0.0717,0,3,3,76,1,threeone,,,,,,,,,,,,,,,,,,,,,,,,,,,,,,,,,,,,,,,,,,,,,,,,,,,,,,,,,,,,,,,,,,,,,,,,,,,,,,,,,,,,,,,,,,,,,,,,,,,,,,,,,,,,,,,,,,,,,,,,,,,,,,,,,,,,,,,
,,60de7deffb38fe0ad1684964,2023-12-06_23h17.11.590,kallum_motion_pilot,2023.2.3,Win32,60.0024001,60de7deffb38fe0ad1684964,6560176e4d91f764e2a42c74,657158be5fb55eb8ed8fd23a,0.072,0.0721,0,4,4,44,1,threeone,,,,,,,,,,,,,,,,,,,,,,,,,,,,,,,,,,,,,,,,,,,,,,,,,,,,,,,,,,,,,,,,,,,,,,,,,,,,,,,,,,,,,,,,,,,,,,,,,,,,,,,,,,,,,,,,,,,,,,,,,,,,,,,,,,,,,,,
,,60de7deffb38fe0ad1684964,2023-12-06_23h17.11.590,kallum_motion_pilot,2023.2.3,Win32,60.0024001,60de7deffb38fe0ad1684964,6560176e4d91f764e2a42c74,657158be5fb55eb8ed8fd23a,0.0724,0.0724,0,5,5,135,1,eightseven,,,,,,,,,,,,,,,,,,,,,,,,,,,,,,,,,,,,,,,,,,,,,,,,,,,,,,,,,,,,,,,,,,,,,,,,,,,,,,,,,,,,,,,,,,,,,,,,,,,,,,,,,,,,,,,,,,,,,,,,,,,,,,,,,,,,,,,
,,60de7deffb38fe0ad1684964,2023-12-06_23h17.11.590,kallum_motion_pilot,2023.2.3,Win32,60.0024001,60de7deffb38fe0ad1684964,6560176e4d91f764e2a42c74,657158be5fb55eb8ed8fd23a,0.0726,0.0727,0,6,6,34,1,twoone,,,,,,,,,,,,,,,,,,,,,,,,,,,,,,,,,,,,,,,,,,,,,,,,,,,,,,,,,,,,,,,,,,,,,,,,,,,,,,,,,,,,,,,,,,,,,,,,,,,,,,,,,,,,,,,,,,,,,,,,,,,,,,,,,,,,,,,
,,60de7deffb38fe0ad1684964,2023-12-06_23h17.11.590,kallum_motion_pilot,2023.2.3,Win32,60.0024001,60de7deffb38fe0ad1684964,6560176e4d91f764e2a42c74,657158be5fb55eb8ed8fd23a,0.0732,0.0733,0,7,7,121,1,fiveseven,,,,,,,,,,,,,,,,,,,,,,,,,,,,,,,,,,,,,,,,,,,,,,,,,,,,,,,,,,,,,,,,,,,,,,,,,,,,,,,,,,,,,,,,,,,,,,,,,,,,,,,,,,,,,,,,,,,,,,,,,,,,,,,,,,,,,,,
,,60de7deffb38fe0ad1684964,2023-12-06_23h17.11.590,kallum_motion_pilot,2023.2.3,Win32,60.0024001,60de7deffb38fe0ad1684964,6560176e4d91f764e2a42c74,657158be5fb55eb8ed8fd23a,0.0737,0.0738,0,8,8,96,1,fivesix,,,,,,,,,,,,,,,,,,,,,,,,,,,,,,,,,,,,,,,,,,,,,,,,,,,,,,,,,,,,,,,,,,,,,,,,,,,,,,,,,,,,,,,,,,,,,,,,,,,,,,,,,,,,,,,,,,,,,,,,,,,,,,,,,,,,,,,
,,60de7deffb38fe0ad1684964,2023-12-06_23h17.11.590,kallum_motion_pilot,2023.2.3,Win32,60.0024001,60de7deffb38fe0ad1684964,6560176e4d91f764e2a42c74,657158be5fb55eb8ed8fd23a,0.0741,0.0742,0,9,9,65,1,onethree,,,,,,,,,,,,,,,,,,,,,,,,,,,,,,,,,,,,,,,,,,,,,,,,,,,,,,,,,,,,,,,,,,,,,,,,,,,,,,,,,,,,,,,,,,,,,,,,,,,,,,,,,,,,,,,,,,,,,,,,,,,,,,,,,,,,,,,
,,60de7deffb38fe0ad1684964,2023-12-06_23h17.11.590,kallum_motion_pilot,2023.2.3,Win32,60.0024001,60de7deffb38fe0ad1684964,6560176e4d91f764e2a42c74,657158be5fb55eb8ed8fd23a,0.0745,0.0746,0,10,10,101,1,seveneight,,,,,,,,,,,,,,,,,,,,,,,,,,,,,,,,,,,,,,,,,,,,,,,,,,,,,,,,,,,,,,,,,,,,,,,,,,,,,,,,,,,,,,,,,,,,,,,,,,,,,,,,,,,,,,,,,,,,,,,,,,,,,,,,,,,,,,,
,,60de7deffb38fe0ad1684964,2023-12-06_23h17.11.590,kallum_motion_pilot,2023.2.3,Win32,60.0024001,60de7deffb38fe0ad1684964,6560176e4d91f764e2a42c74,657158be5fb55eb8ed8fd23a,0.0749,0.075,0,11,11,50,1,twoone,,,,,,,,,,,,,,,,,,,,,,,,,,,,,,,,,,,,,,,,,,,,,,,,,,,,,,,,,,,,,,,,,,,,,,,,,,,,,,,,,,,,,,,,,,,,,,,,,,,,,,,,,,,,,,,,,,,,,,,,,,,,,,,,,,,,,,,
,,60de7deffb38fe0ad1684964,2023-12-06_23h17.11.590,kallum_motion_pilot,2023.2.3,Win32,60.0024001,60de7deffb38fe0ad1684964,6560176e4d91f764e2a42c74,657158be5fb55eb8ed8fd23a,0.0752,0.0753,0,12,12,92,1,sevenfive,,,,,,,,,,,,,,,,,,,,,,,,,,,,,,,,,,,,,,,,,,,,,,,,,,,,,,,,,,,,,,,,,,,,,,,,,,,,,,,,,,,,,,,,,,,,,,,,,,,,,,,,,,,,,,,,,,,,,,,,,,,,,,,,,,,,,,,
,,60de7deffb38fe0ad1684964,2023-12-06_23h17.11.590,kallum_motion_pilot,2023.2.3,Win32,60.0024001,60de7deffb38fe0ad1684964,6560176e4d91f764e2a42c74,657158be5fb55eb8ed8fd23a,0.0755,0.0755,0,13,13,97,1,fiveseven,,,,,,,,,,,,,,,,,,,,,,,,,,,,,,,,,,,,,,,,,,,,,,,,,,,,,,,,,,,,,,,,,,,,,,,,,,,,,,,,,,,,,,,,,,,,,,,,,,,,,,,,,,,,,,,,,,,,,,,,,,,,,,,,,,,,,,,
,,60de7deffb38fe0ad1684964,2023-12-06_23h17.11.590,kallum_motion_pilot,2023.2.3,Win32,60.0024001,60de7deffb38fe0ad1684964,6560176e4d91f764e2a42c74,657158be5fb55eb8ed8fd23a,0.0758,0.0758,0,14,14,51,1,twofour,,,,,,,,,,,,,,,,,,,,,,,,,,,,,,,,,,,,,,,,,,,,,,,,,,,,,,,,,,,,,,,,,,,,,,,,,,,,,,,,,,,,,,,,,,,,,,,,,,,,,,,,,,,,,,,,,,,,,,,,,,,,,,,,,,,,,,,
,,60de7deffb38fe0ad1684964,2023-12-06_23h17.11.590,kallum_motion_pilot,2023.2.3,Win32,60.0024001,60de7deffb38fe0ad1684964,6560176e4d91f764e2a42c74,657158be5fb55eb8ed8fd23a,0.076,0.0761,0,15,15,103,1,eightseven,,,,,,,,,,,,,,,,,,,,,,,,,,,,,,,,,,,,,,,,,,,,,,,,,,,,,,,,,,,,,,,,,,,,,,,,,,,,,,,,,,,,,,,,,,,,,,,,,,,,,,,,,,,,,,,,,,,,,,,,,,,,,,,,,,,,,,,
,,60de7deffb38fe0ad1684964,2023-12-06_23h17.11.590,kallum_motion_pilot,2023.2.3,Win32,60.0024001,60de7deffb38fe0ad1684964,6560176e4d91f764e2a42c74,657158be5fb55eb8ed8fd23a,0.0763,0.0764,0,16,16,93,1,seveneight,,,,,,,,,,,,,,,,,,,,,,,,,,,,,,,,,,,,,,,,,,,,,,,,,,,,,,,,,,,,,,,,,,,,,,,,,,,,,,,,,,,,,,,,,,,,,,,,,,,,,,,,,,,,,,,,,,,,,,,,,,,,,,,,,,,,,,,
,,60de7deffb38fe0ad1684964,2023-12-06_23h17.11.590,kallum_motion_pilot,2023.2.3,Win32,60.0024001,60de7deffb38fe0ad1684964,6560176e4d91f764e2a42c74,657158be5fb55eb8ed8fd23a,0.0765,0.0766,0,17,17,49,1,onethree,,,,,,,,,,,,,,,,,,,,,,,,,,,,,,,,,,,,,,,,,,,,,,,,,,,,,,,,,,,,,,,,,,,,,,,,,,,,,,,,,,,,,,,,,,,,,,,,,,,,,,,,,,,,,,,,,,,,,,,,,,,,,,,,,,,,,,,
,,60de7deffb38fe0ad1684964,2023-12-06_23h17.11.590,kallum_motion_pilot,2023.2.3,Win32,60.0024001,60de7deffb38fe0ad1684964,6560176e4d91f764e2a42c74,657158be5fb55eb8ed8fd23a,0.0769,0.0769,0,18,18,66,1,twoone,,,,,,,,,,,,,,,,,,,,,,,,,,,,,,,,,,,,,,,,,,,,,,,,,,,,,,,,,,,,,,,,,,,,,,,,,,,,,,,,,,,,,,,,,,,,,,,,,,,,,,,,,,,,,,,,,,,,,,,,,,,,,,,,,,,,,,,
,,60de7deffb38fe0ad1684964,2023-12-06_23h17.11.590,kallum_motion_pilot,2023.2.3,Win32,60.0024001,60de7deffb38fe0ad1684964,6560176e4d91f764e2a42c74,657158be5fb55eb8ed8fd23a,0.0771,0.0771,0,19,19,12,1,threeone,,,,,,,,,,,,,,,,,,,,,,,,,,,,,,,,,,,,,,,,,,,,,,,,,,,,,,,,,,,,,,,,,,,,,,,,,,,,,,,,,,,,,,,,,,,,,,,,,,,,,,,,,,,,,,,,,,,,,,,,,,,,,,,,,,,,,,,
,,60de7deffb38fe0ad1684964,2023-12-06_23h17.11.590,kallum_motion_pilot,2023.2.3,Win32,60.0024001,60de7deffb38fe0ad1684964,6560176e4d91f764e2a42c74,657158be5fb55eb8ed8fd23a,0.0773,0.0774,0,20,20,105,1,fiveseven,,,,,,,,,,,,,,,,,,,,,,,,,,,,,,,,,,,,,,,,,,,,,,,,,,,,,,,,,,,,,,,,,,,,,,,,,,,,,,,,,,,,,,,,,,,,,,,,,,,,,,,,,,,,,,,,,,,,,,,,,,,,,,,,,,,,,,,
,,60de7deffb38fe0ad1684964,2023-12-06_23h17.11.590,kallum_motion_pilot,2023.2.3,Win32,60.0024001,60de7deffb38fe0ad1684964,6560176e4d91f764e2a42c74,657158be5fb55eb8ed8fd23a,0.0776,0.0777,0,21,21,10,1,twoone,,,,,,,,,,,,,,,,,,,,,,,,,,,,,,,,,,,,,,,,,,,,,,,,,,,,,,,,,,,,,,,,,,,,,,,,,,,,,,,,,,,,,,,,,,,,,,,,,,,,,,,,,,,,,,,,,,,,,,,,,,,,,,,,,,,,,,,
,,60de7deffb38fe0ad1684964,2023-12-06_23h17.11.590,kallum_motion_pilot,2023.2.3,Win32,60.0024001,60de7deffb38fe0ad1684964,6560176e4d91f764e2a42c74,657158be5fb55eb8ed8fd23a,0.0778,0.0779,0,22,22,69,1,threefour,,,,,,,,,,,,,,,,,,,,,,,,,,,,,,,,,,,,,,,,,,,,,,,,,,,,,,,,,,,,,,,,,,,,,,,,,,,,,,,,,,,,,,,,,,,,,,,,,,,,,,,,,,,,,,,,,,,,,,,,,,,,,,,,,,,,,,,
,,60de7deffb38fe0ad1684964,2023-12-06_23h17.11.590,kallum_motion_pilot,2023.2.3,Win32,60.0024001,60de7deffb38fe0ad1684964,6560176e4d91f764e2a42c74,657158be5fb55eb8ed8fd23a,0.0785,0.0786,0,23,23,141,1,seveneight,,,,,,,,,,,,,,,,,,,,,,,,,,,,,,,,,,,,,,,,,,,,,,,,,,,,,,,,,,,,,,,,,,,,,,,,,,,,,,,,,,,,,,,,,,,,,,,,,,,,,,,,,,,,,,,,,,,,,,,,,,,,,,,,,,,,,,,
,,60de7deffb38fe0ad1684964,2023-12-06_23h17.11.590,kallum_motion_pilot,2023.2.3,Win32,60.0024001,60de7deffb38fe0ad1684964,6560176e4d91f764e2a42c74,657158be5fb55eb8ed8fd23a,0.0789,0.079,0,24,24,48,1,onetwo,,,,,,,,,,,,,,,,,,,,,,,,,,,,,,,,,,,,,,,,,,,,,,,,,,,,,,,,,,,,,,,,,,,,,,,,,,,,,,,,,,,,,,,,,,,,,,,,,,,,,,,,,,,,,,,,,,,,,,,,,,,,,,,,,,,,,,,
,,60de7deffb38fe0ad1684964,2023-12-06_23h17.11.590,kallum_motion_pilot,2023.2.3,Win32,60.0024001,60de7deffb38fe0ad1684964,6560176e4d91f764e2a42c74,657158be5fb55eb8ed8fd23a,0.0793,0.0793,0,25,25,99,1,sixeight,,,,,,,,,,,,,,,,,,,,,,,,,,,,,,,,,,,,,,,,,,,,,,,,,,,,,,,,,,,,,,,,,,,,,,,,,,,,,,,,,,,,,,,,,,,,,,,,,,,,,,,,,,,,,,,,,,,,,,,,,,,,,,,,,,,,,,,
,,60de7deffb38fe0ad1684964,2023-12-06_23h17.11.590,kallum_motion_pilot,2023.2.3,Win32,60.0024001,60de7deffb38fe0ad1684964,6560176e4d91f764e2a42c74,657158be5fb55eb8ed8fd23a,0.0795,0.0797,0,26,26,35,1,twofour,,,,,,,,,,,,,,,,,,,,,,,,,,,,,,,,,,,,,,,,,,,,,,,,,,,,,,,,,,,,,,,,,,,,,,,,,,,,,,,,,,,,,,,,,,,,,,,,,,,,,,,,,,,,,,,,,,,,,,,,,,,,,,,,,,,,,,,
,,60de7deffb38fe0ad1684964,2023-12-06_23h17.11.590,kallum_motion_pilot,2023.2.3,Win32,60.0024001,60de7deffb38fe0ad1684964,6560176e4d91f764e2a42c74,657158be5fb55eb8ed8fd23a,0.0798,0.0799,0,27,27,98,1,sixfive,,,,,,,,,,,,,,,,,,,,,,,,,,,,,,,,,,,,,,,,,,,,,,,,,,,,,,,,,,,,,,,,,,,,,,,,,,,,,,,,,,,,,,,,,,,,,,,,,,,,,,,,,,,,,,,,,,,,,,,,,,,,,,,,,,,,,,,
,,60de7deffb38fe0ad1684964,2023-12-06_23h17.11.590,kallum_motion_pilot,2023.2.3,Win32,60.0024001,60de7deffb38fe0ad1684964,6560176e4d91f764e2a42c74,657158be5fb55eb8ed8fd23a,0.0801,0.0802,0,28,28,115,1,sixeight,,,,,,,,,,,,,,,,,,,,,,,,,,,,,,,,,,,,,,,,,,,,,,,,,,,,,,,,,,,,,,,,,,,,,,,,,,,,,,,,,,,,,,,,,,,,,,,,,,,,,,,,,,,,,,,,,,,,,,,,,,,,,,,,,,,,,,,
,,60de7deffb38fe0ad1684964,2023-12-06_23h17.11.590,kallum_motion_pilot,2023.2.3,Win32,60.0024001,60de7deffb38fe0ad1684964,6560176e4d91f764e2a42c74,657158be5fb55eb8ed8fd23a,0.0803,0.0803,0,29,29,25,1,onethree,,,,,,,,,,,,,,,,,,,,,,,,,,,,,,,,,,,,,,,,,,,,,,,,,,,,,,,,,,,,,,,,,,,,,,,,,,,,,,,,,,,,,,,,,,,,,,,,,,,,,,,,,,,,,,,,,,,,,,,,,,,,,,,,,,,,,,,
,,60de7deffb38fe0ad1684964,2023-12-06_23h17.11.590,kallum_motion_pilot,2023.2.3,Win32,60.0024001,60de7deffb38fe0ad1684964,6560176e4d91f764e2a42c74,657158be5fb55eb8ed8fd23a,0.0806,0.0807,0,30,30,38,1,fourtwo,,,,,,,,,,,,,,,,,,,,,,,,,,,,,,,,,,,,,,,,,,,,,,,,,,,,,,,,,,,,,,,,,,,,,,,,,,,,,,,,,,,,,,,,,,,,,,,,,,,,,,,,,,,,,,,,,,,,,,,,,,,,,,,,,,,,,,,
,,60de7deffb38fe0ad1684964,2023-12-06_23h17.11.590,kallum_motion_pilot,2023.2.3,Win32,60.0024001,60de7deffb38fe0ad1684964,6560176e4d91f764e2a42c74,657158be5fb55eb8ed8fd23a,0.0808,0.0809,0,31,31,91,1,sixeight,,,,,,,,,,,,,,,,,,,,,,,,,,,,,,,,,,,,,,,,,,,,,,,,,,,,,,,,,,,,,,,,,,,,,,,,,,,,,,,,,,,,,,,,,,,,,,,,,,,,,,,,,,,,,,,,,,,,,,,,,,,,,,,,,,,,,,,
,,60de7deffb38fe0ad1684964,2023-12-06_23h17.11.590,kallum_motion_pilot,2023.2.3,Win32,60.0024001,60de7deffb38fe0ad1684964,6560176e4d91f764e2a42c74,657158be5fb55eb8ed8fd23a,0.0812,0.0812,0,32,32,139,1,sixeight,,,,,,,,,,,,,,,,,,,,,,,,,,,,,,,,,,,,,,,,,,,,,,,,,,,,,,,,,,,,,,,,,,,,,,,,,,,,,,,,,,,,,,,,,,,,,,,,,,,,,,,,,,,,,,,,,,,,,,,,,,,,,,,,,,,,,,,
,,60de7deffb38fe0ad1684964,2023-12-06_23h17.11.590,kallum_motion_pilot,2023.2.3,Win32,60.0024001,60de7deffb38fe0ad1684964,6560176e4d91f764e2a42c74,657158be5fb55eb8ed8fd23a,0.0813,0.0814,0,33,33,100,1,sevenfive,,,,,,,,,,,,,,,,,,,,,,,,,,,,,,,,,,,,,,,,,,,,,,,,,,,,,,,,,,,,,,,,,,,,,,,,,,,,,,,,,,,,,,,,,,,,,,,,,,,,,,,,,,,,,,,,,,,,,,,,,,,,,,,,,,,,,,,
,,60de7deffb38fe0ad1684964,2023-12-06_23h17.11.590,kallum_motion_pilot,2023.2.3,Win32,60.0024001,60de7deffb38fe0ad1684964,6560176e4d91f764e2a42c74,657158be5fb55eb8ed8fd23a,0.0816,0.0817,0,34,34,90,1,sixfive,,,,,,,,,,,,,,,,,,,,,,,,,,,,,,,,,,,,,,,,,,,,,,,,,,,,,,,,,,,,,,,,,,,,,,,,,,,,,,,,,,,,,,,,,,,,,,,,,,,,,,,,,,,,,,,,,,,,,,,,,,,,,,,,,,,,,,,
,,60de7deffb38fe0ad1684964,2023-12-06_23h17.11.590,kallum_motion_pilot,2023.2.3,Win32,60.0024001,60de7deffb38fe0ad1684964,6560176e4d91f764e2a42c74,657158be5fb55eb8ed8fd23a,0.0819,0.0819,0,35,35,71,1,fourthree,,,,,,,,,,,,,,,,,,,,,,,,,,,,,,,,,,,,,,,,,,,,,,,,,,,,,,,,,,,,,,,,,,,,,,,,,,,,,,,,,,,,,,,,,,,,,,,,,,,,,,,,,,,,,,,,,,,,,,,,,,,,,,,,,,,,,,,
,,60de7deffb38fe0ad1684964,2023-12-06_23h17.11.590,kallum_motion_pilot,2023.2.3,Win32,60.0024001,60de7deffb38fe0ad1684964,6560176e4d91f764e2a42c74,657158be5fb55eb8ed8fd23a,0.0822,0.0823,0,36,36,2,1,twoone,,,,,,,,,,,,,,,,,,,,,,,,,,,,,,,,,,,,,,,,,,,,,,,,,,,,,,,,,,,,,,,,,,,,,,,,,,,,,,,,,,,,,,,,,,,,,,,,,,,,,,,,,,,,,,,,,,,,,,,,,,,,,,,,,,,,,,,
,,60de7deffb38fe0ad1684964,2023-12-06_23h17.11.590,kallum_motion_pilot,2023.2.3,Win32,60.0024001,60de7deffb38fe0ad1684964,6560176e4d91f764e2a42c74,657158be5fb55eb8ed8fd23a,0.0825,0.0826,0,37,37,64,1,onetwo,,,,,,,,,,,,,,,,,,,,,,,,,,,,,,,,,,,,,,,,,,,,,,,,,,,,,,,,,,,,,,,,,,,,,,,,,,,,,,,,,,,,,,,,,,,,,,,,,,,,,,,,,,,,,,,,,,,,,,,,,,,,,,,,,,,,,,,
,,60de7deffb38fe0ad1684964,2023-12-06_23h17.11.590,kallum_motion_pilot,2023.2.3,Win32,60.0024001,60de7deffb38fe0ad1684964,6560176e4d91f764e2a42c74,657158be5fb55eb8ed8fd23a,0.0827,0.0829,0,38,38,77,1,threefour,,,,,,,,,,,,,,,,,,,,,,,,,,,,,,,,,,,,,,,,,,,,,,,,,,,,,,,,,,,,,,,,,,,,,,,,,,,,,,,,,,,,,,,,,,,,,,,,,,,,,,,,,,,,,,,,,,,,,,,,,,,,,,,,,,,,,,,
,,60de7deffb38fe0ad1684964,2023-12-06_23h17.11.590,kallum_motion_pilot,2023.2.3,Win32,60.0024001,60de7deffb38fe0ad1684964,6560176e4d91f764e2a42c74,657158be5fb55eb8ed8fd23a,0.0832,0.0834,0,39,39,148,1,sevenfive,,,,,,,,,,,,,,,,,,,,,,,,,,,,,,,,,,,,,,,,,,,,,,,,,,,,,,,,,,,,,,,,,,,,,,,,,,,,,,,,,,,,,,,,,,,,,,,,,,,,,,,,,,,,,,,,,,,,,,,,,,,,,,,,,,,,,,,
,,60de7deffb38fe0ad1684964,2023-12-06_23h17.11.590,kallum_motion_pilot,2023.2.3,Win32,60.0024001,60de7deffb38fe0ad1684964,6560176e4d91f764e2a42c74,657158be5fb55eb8ed8fd23a,0.0837,0.0838,0,40,40,78,1,fourtwo,,,,,,,,,,,,,,,,,,,,,,,,,,,,,,,,,,,,,,,,,,,,,,,,,,,,,,,,,,,,,,,,,,,,,,,,,,,,,,,,,,,,,,,,,,,,,,,,,,,,,,,,,,,,,,,,,,,,,,,,,,,,,,,,,,,,,,,
,,60de7deffb38fe0ad1684964,2023-12-06_23h17.11.590,kallum_motion_pilot,2023.2.3,Win32,60.0024001,60de7deffb38fe0ad1684964,6560176e4d91f764e2a42c74,657158be5fb55eb8ed8fd23a,0.0841,0.0843,0,41,41,126,1,eightsix,,,,,,,,,,,,,,,,,,,,,,,,,,,,,,,,,,,,,,,,,,,,,,,,,,,,,,,,,,,,,,,,,,,,,,,,,,,,,,,,,,,,,,,,,,,,,,,,,,,,,,,,,,,,,,,,,,,,,,,,,,,,,,,,,,,,,,,
,,60de7deffb38fe0ad1684964,2023-12-06_23h17.11.590,kallum_motion_pilot,2023.2.3,Win32,60.0024001,60de7deffb38fe0ad1684964,6560176e4d91f764e2a42c74,657158be5fb55eb8ed8fd23a,0.0845,0.0845,0,42,42,104,1,fivesix,,,,,,,,,,,,,,,,,,,,,,,,,,,,,,,,,,,,,,,,,,,,,,,,,,,,,,,,,,,,,,,,,,,,,,,,,,,,,,,,,,,,,,,,,,,,,,,,,,,,,,,,,,,,,,,,,,,,,,,,,,,,,,,,,,,,,,,
,,60de7deffb38fe0ad1684964,2023-12-06_23h17.11.590,kallum_motion_pilot,2023.2.3,Win32,60.0024001,60de7deffb38fe0ad1684964,6560176e4d91f764e2a42c74,657158be5fb55eb8ed8fd23a,0.0848,0.0848,0,43,43,18,1,twoone,,,,,,,,,,,,,,,,,,,,,,,,,,,,,,,,,,,,,,,,,,,,,,,,,,,,,,,,,,,,,,,,,,,,,,,,,,,,,,,,,,,,,,,,,,,,,,,,,,,,,,,,,,,,,,,,,,,,,,,,,,,,,,,,,,,,,,,
,,60de7deffb38fe0ad1684964,2023-12-06_23h17.11.590,kallum_motion_pilot,2023.2.3,Win32,60.0024001,60de7deffb38fe0ad1684964,6560176e4d91f764e2a42c74,657158be5fb55eb8ed8fd23a,0.0851,0.0853,0,44,44,36,1,threeone,,,,,,,,,,,,,,,,,,,,,,,,,,,,,,,,,,,,,,,,,,,,,,,,,,,,,,,,,,,,,,,,,,,,,,,,,,,,,,,,,,,,,,,,,,,,,,,,,,,,,,,,,,,,,,,,,,,,,,,,,,,,,,,,,,,,,,,
,,60de7deffb38fe0ad1684964,2023-12-06_23h17.11.590,kallum_motion_pilot,2023.2.3,Win32,60.0024001,60de7deffb38fe0ad1684964,6560176e4d91f764e2a42c74,657158be5fb55eb8ed8fd23a,0.0855,0.0856,0,45,45,32,1,onetwo,,,,,,,,,,,,,,,,,,,,,,,,,,,,,,,,,,,,,,,,,,,,,,,,,,,,,,,,,,,,,,,,,,,,,,,,,,,,,,,,,,,,,,,,,,,,,,,,,,,,,,,,,,,,,,,,,,,,,,,,,,,,,,,,,,,,,,,
,,60de7deffb38fe0ad1684964,2023-12-06_23h17.11.590,kallum_motion_pilot,2023.2.3,Win32,60.0024001,60de7deffb38fe0ad1684964,6560176e4d91f764e2a42c74,657158be5fb55eb8ed8fd23a,0.0858,0.0859,0,46,46,140,1,sevenfive,,,,,,,,,,,,,,,,,,,,,,,,,,,,,,,,,,,,,,,,,,,,,,,,,,,,,,,,,,,,,,,,,,,,,,,,,,,,,,,,,,,,,,,,,,,,,,,,,,,,,,,,,,,,,,,,,,,,,,,,,,,,,,,,,,,,,,,
,,60de7deffb38fe0ad1684964,2023-12-06_23h17.11.590,kallum_motion_pilot,2023.2.3,Win32,60.0024001,60de7deffb38fe0ad1684964,6560176e4d91f764e2a42c74,657158be5fb55eb8ed8fd23a,0.0861,0.0863,0,47,47,144,1,fivesix,,,,,,,,,,,,,,,,,,,,,,,,,,,,,,,,,,,,,,,,,,,,,,,,,,,,,,,,,,,,,,,,,,,,,,,,,,,,,,,,,,,,,,,,,,,,,,,,,,,,,,,,,,,,,,,,,,,,,,,,,,,,,,,,,,,,,,,
,,60de7deffb38fe0ad1684964,2023-12-06_23h17.11.590,kallum_motion_pilot,2023.2.3,Win32,60.0024001,60de7deffb38fe0ad1684964,6560176e4d91f764e2a42c74,657158be5fb55eb8ed8fd23a,0.0865,0.0866,0,48,48,63,1,fourthree,,,,,,,,,,,,,,,,,,,,,,,,,,,,,,,,,,,,,,,,,,,,,,,,,,,,,,,,,,,,,,,,,,,,,,,,,,,,,,,,,,,,,,,,,,,,,,,,,,,,,,,,,,,,,,,,,,,,,,,,,,,,,,,,,,,,,,,
,,60de7deffb38fe0ad1684964,2023-12-06_23h17.11.590,kallum_motion_pilot,2023.2.3,Win32,60.0024001,60de7deffb38fe0ad1684964,6560176e4d91f764e2a42c74,657158be5fb55eb8ed8fd23a,0.0868,0.0869,0,49,49,142,1,eightsix,,,,,,,,,,,,,,,,,,,,,,,,,,,,,,,,,,,,,,,,,,,,,,,,,,,,,,,,,,,,,,,,,,,,,,,,,,,,,,,,,,,,,,,,,,,,,,,,,,,,,,,,,,,,,,,,,,,,,,,,,,,,,,,,,,,,,,,
,,60de7deffb38fe0ad1684964,2023-12-06_23h17.11.590,kallum_motion_pilot,2023.2.3,Win32,60.0024001,60de7deffb38fe0ad1684964,6560176e4d91f764e2a42c74,657158be5fb55eb8ed8fd23a,0.0873,0.0874,0,50,50,145,1,fiveseven,,,,,,,,,,,,,,,,,,,,,,,,,,,,,,,,,,,,,,,,,,,,,,,,,,,,,,,,,,,,,,,,,,,,,,,,,,,,,,,,,,,,,,,,,,,,,,,,,,,,,,,,,,,,,,,,,,,,,,,,,,,,,,,,,,,,,,,
,,60de7deffb38fe0ad1684964,2023-12-06_23h17.11.590,kallum_motion_pilot,2023.2.3,Win32,60.0024001,60de7deffb38fe0ad1684964,6560176e4d91f764e2a42c74,657158be5fb55eb8ed8fd23a,0.0876,0.0877,0,51,51,73,1,onethree,,,,,,,,,,,,,,,,,,,,,,,,,,,,,,,,,,,,,,,,,,,,,,,,,,,,,,,,,,,,,,,,,,,,,,,,,,,,,,,,,,,,,,,,,,,,,,,,,,,,,,,,,,,,,,,,,,,,,,,,,,,,,,,,,,,,,,,
,,60de7deffb38fe0ad1684964,2023-12-06_23h17.11.590,kallum_motion_pilot,2023.2.3,Win32,60.0024001,60de7deffb38fe0ad1684964,6560176e4d91f764e2a42c74,657158be5fb55eb8ed8fd23a,0.0879,0.0881,0,52,52,60,1,threeone,,,,,,,,,,,,,,,,,,,,,,,,,,,,,,,,,,,,,,,,,,,,,,,,,,,,,,,,,,,,,,,,,,,,,,,,,,,,,,,,,,,,,,,,,,,,,,,,,,,,,,,,,,,,,,,,,,,,,,,,,,,,,,,,,,,,,,,
,,60de7deffb38fe0ad1684964,2023-12-06_23h17.11.590,kallum_motion_pilot,2023.2.3,Win32,60.0024001,60de7deffb38fe0ad1684964,6560176e4d91f764e2a42c74,657158be5fb55eb8ed8fd23a,0.0883,0.0884,0,53,53,15,1,fourthree,,,,,,,,,,,,,,,,,,,,,,,,,,,,,,,,,,,,,,,,,,,,,,,,,,,,,,,,,,,,,,,,,,,,,,,,,,,,,,,,,,,,,,,,,,,,,,,,,,,,,,,,,,,,,,,,,,,,,,,,,,,,,,,,,,,,,,,
,,60de7deffb38fe0ad1684964,2023-12-06_23h17.11.590,kallum_motion_pilot,2023.2.3,Win32,60.0024001,60de7deffb38fe0ad1684964,6560176e4d91f764e2a42c74,657158be5fb55eb8ed8fd23a,0.0886,0.0888,0,54,54,88,1,fivesix,,,,,,,,,,,,,,,,,,,,,,,,,,,,,,,,,,,,,,,,,,,,,,,,,,,,,,,,,,,,,,,,,,,,,,,,,,,,,,,,,,,,,,,,,,,,,,,,,,,,,,,,,,,,,,,,,,,,,,,,,,,,,,,,,,,,,,,
,,60de7deffb38fe0ad1684964,2023-12-06_23h17.11.590,kallum_motion_pilot,2023.2.3,Win32,60.0024001,60de7deffb38fe0ad1684964,6560176e4d91f764e2a42c74,657158be5fb55eb8ed8fd23a,0.089,0.0891,0,55,55,56,1,onetwo,,,,,,,,,,,,,,,,,,,,,,,,,,,,,,,,,,,,,,,,,,,,,,,,,,,,,,,,,,,,,,,,,,,,,,,,,,,,,,,,,,,,,,,,,,,,,,,,,,,,,,,,,,,,,,,,,,,,,,,,,,,,,,,,,,,,,,,
,,60de7deffb38fe0ad1684964,2023-12-06_23h17.11.590,kallum_motion_pilot,2023.2.3,Win32,60.0024001,60de7deffb38fe0ad1684964,6560176e4d91f764e2a42c74,657158be5fb55eb8ed8fd23a,0.0894,0.0894,0,56,56,40,1,onetwo,,,,,,,,,,,,,,,,,,,,,,,,,,,,,,,,,,,,,,,,,,,,,,,,,,,,,,,,,,,,,,,,,,,,,,,,,,,,,,,,,,,,,,,,,,,,,,,,,,,,,,,,,,,,,,,,,,,,,,,,,,,,,,,,,,,,,,,
,,60de7deffb38fe0ad1684964,2023-12-06_23h17.11.590,kallum_motion_pilot,2023.2.3,Win32,60.0024001,60de7deffb38fe0ad1684964,6560176e4d91f764e2a42c74,657158be5fb55eb8ed8fd23a,0.0896,0.0897,0,57,57,16,1,onetwo,,,,,,,,,,,,,,,,,,,,,,,,,,,,,,,,,,,,,,,,,,,,,,,,,,,,,,,,,,,,,,,,,,,,,,,,,,,,,,,,,,,,,,,,,,,,,,,,,,,,,,,,,,,,,,,,,,,,,,,,,,,,,,,,,,,,,,,
,,60de7deffb38fe0ad1684964,2023-12-06_23h17.11.590,kallum_motion_pilot,2023.2.3,Win32,60.0024001,60de7deffb38fe0ad1684964,6560176e4d91f764e2a42c74,657158be5fb55eb8ed8fd23a,0.0899,0.09,0,58,58,146,1,sixfive,,,,,,,,,,,,,,,,,,,,,,,,,,,,,,,,,,,,,,,,,,,,,,,,,,,,,,,,,,,,,,,,,,,,,,,,,,,,,,,,,,,,,,,,,,,,,,,,,,,,,,,,,,,,,,,,,,,,,,,,,,,,,,,,,,,,,,,
,,60de7deffb38fe0ad1684964,2023-12-06_23h17.11.590,kallum_motion_pilot,2023.2.3,Win32,60.0024001,60de7deffb38fe0ad1684964,6560176e4d91f764e2a42c74,657158be5fb55eb8ed8fd23a,0.0902,0.0902,0,59,59,134,1,eightsix,,,,,,,,,,,,,,,,,,,,,,,,,,,,,,,,,,,,,,,,,,,,,,,,,,,,,,,,,,,,,,,,,,,,,,,,,,,,,,,,,,,,,,,,,,,,,,,,,,,,,,,,,,,,,,,,,,,,,,,,,,,,,,,,,,,,,,,
,,60de7deffb38fe0ad1684964,2023-12-06_23h17.11.590,kallum_motion_pilot,2023.2.3,Win32,60.0024001,60de7deffb38fe0ad1684964,6560176e4d91f764e2a42c74,657158be5fb55eb8ed8fd23a,0.0905,0.0906,0,60,60,83,1,sixeight,,,,,,,,,,,,,,,,,,,,,,,,,,,,,,,,,,,,,,,,,,,,,,,,,,,,,,,,,,,,,,,,,,,,,,,,,,,,,,,,,,,,,,,,,,,,,,,,,,,,,,,,,,,,,,,,,,,,,,,,,,,,,,,,,,,,,,,
,,60de7deffb38fe0ad1684964,2023-12-06_23h17.11.590,kallum_motion_pilot,2023.2.3,Win32,60.0024001,60de7deffb38fe0ad1684964,6560176e4d91f764e2a42c74,657158be5fb55eb8ed8fd23a,0.0908,0.0909,0,61,61,74,1,twoone,,,,,,,,,,,,,,,,,,,,,,,,,,,,,,,,,,,,,,,,,,,,,,,,,,,,,,,,,,,,,,,,,,,,,,,,,,,,,,,,,,,,,,,,,,,,,,,,,,,,,,,,,,,,,,,,,,,,,,,,,,,,,,,,,,,,,,,
,,60de7deffb38fe0ad1684964,2023-12-06_23h17.11.590,kallum_motion_pilot,2023.2.3,Win32,60.0024001,60de7deffb38fe0ad1684964,6560176e4d91f764e2a42c74,657158be5fb55eb8ed8fd23a,0.0911,0.0912,0,62,62,123,1,sixeight,,,,,,,,,,,,,,,,,,,,,,,,,,,,,,,,,,,,,,,,,,,,,,,,,,,,,,,,,,,,,,,,,,,,,,,,,,,,,,,,,,,,,,,,,,,,,,,,,,,,,,,,,,,,,,,,,,,,,,,,,,,,,,,,,,,,,,,
,,60de7deffb38fe0ad1684964,2023-12-06_23h17.11.590,kallum_motion_pilot,2023.2.3,Win32,60.0024001,60de7deffb38fe0ad1684964,6560176e4d91f764e2a42c74,657158be5fb55eb8ed8fd23a,0.0915,0.0915,0,63,63,131,1,sixeight,,,,,,,,,,,,,,,,,,,,,,,,,,,,,,,,,,,,,,,,,,,,,,,,,,,,,,,,,,,,,,,,,,,,,,,,,,,,,,,,,,,,,,,,,,,,,,,,,,,,,,,,,,,,,,,,,,,,,,,,,,,,,,,,,,,,,,,
,,60de7deffb38fe0ad1684964,2023-12-06_23h17.11.590,kallum_motion_pilot,2023.2.3,Win32,60.0024001,60de7deffb38fe0ad1684964,6560176e4d91f764e2a42c74,657158be5fb55eb8ed8fd23a,0.092,0.0922,0,64,64,94,1,eightsix,,,,,,,,,,,,,,,,,,,,,,,,,,,,,,,,,,,,,,,,,,,,,,,,,,,,,,,,,,,,,,,,,,,,,,,,,,,,,,,,,,,,,,,,,,,,,,,,,,,,,,,,,,,,,,,,,,,,,,,,,,,,,,,,,,,,,,,
,,60de7deffb38fe0ad1684964,2023-12-06_23h17.11.590,kallum_motion_pilot,2023.2.3,Win32,60.0024001,60de7deffb38fe0ad1684964,6560176e4d91f764e2a42c74,657158be5fb55eb8ed8fd23a,0.0925,0.0926,0,65,65,1,1,onethree,,,,,,,,,,,,,,,,,,,,,,,,,,,,,,,,,,,,,,,,,,,,,,,,,,,,,,,,,,,,,,,,,,,,,,,,,,,,,,,,,,,,,,,,,,,,,,,,,,,,,,,,,,,,,,,,,,,,,,,,,,,,,,,,,,,,,,,
,,60de7deffb38fe0ad1684964,2023-12-06_23h17.11.590,kallum_motion_pilot,2023.2.3,Win32,60.0024001,60de7deffb38fe0ad1684964,6560176e4d91f764e2a42c74,657158be5fb55eb8ed8fd23a,0.0929,0.093,0,66,66,106,1,sixfive,,,,,,,,,,,,,,,,,,,,,,,,,,,,,,,,,,,,,,,,,,,,,,,,,,,,,,,,,,,,,,,,,,,,,,,,,,,,,,,,,,,,,,,,,,,,,,,,,,,,,,,,,,,,,,,,,,,,,,,,,,,,,,,,,,,,,,,
,,60de7deffb38fe0ad1684964,2023-12-06_23h17.11.590,kallum_motion_pilot,2023.2.3,Win32,60.0024001,60de7deffb38fe0ad1684964,6560176e4d91f764e2a42c74,657158be5fb55eb8ed8fd23a,0.0934,0.0935,0,67,67,19,1,twofour,,,,,,,,,,,,,,,,,,,,,,,,,,,,,,,,,,,,,,,,,,,,,,,,,,,,,,,,,,,,,,,,,,,,,,,,,,,,,,,,,,,,,,,,,,,,,,,,,,,,,,,,,,,,,,,,,,,,,,,,,,,,,,,,,,,,,,,
,,60de7deffb38fe0ad1684964,2023-12-06_23h17.11.590,kallum_motion_pilot,2023.2.3,Win32,60.0024001,60de7deffb38fe0ad1684964,6560176e4d91f764e2a42c74,657158be5fb55eb8ed8fd23a,0.0937,0.0938,0,68,68,127,1,eightseven,,,,,,,,,,,,,,,,,,,,,,,,,,,,,,,,,,,,,,,,,,,,,,,,,,,,,,,,,,,,,,,,,,,,,,,,,,,,,,,,,,,,,,,,,,,,,,,,,,,,,,,,,,,,,,,,,,,,,,,,,,,,,,,,,,,,,,,
,,60de7deffb38fe0ad1684964,2023-12-06_23h17.11.590,kallum_motion_pilot,2023.2.3,Win32,60.0024001,60de7deffb38fe0ad1684964,6560176e4d91f764e2a42c74,657158be5fb55eb8ed8fd23a,0.0941,0.0942,0,69,69,86,1,eightsix,,,,,,,,,,,,,,,,,,,,,,,,,,,,,,,,,,,,,,,,,,,,,,,,,,,,,,,,,,,,,,,,,,,,,,,,,,,,,,,,,,,,,,,,,,,,,,,,,,,,,,,,,,,,,,,,,,,,,,,,,,,,,,,,,,,,,,,
,,60de7deffb38fe0ad1684964,2023-12-06_23h17.11.590,kallum_motion_pilot,2023.2.3,Win32,60.0024001,60de7deffb38fe0ad1684964,6560176e4d91f764e2a42c74,657158be5fb55eb8ed8fd23a,0.0944,0.0945,0,70,70,58,1,twoone,,,,,,,,,,,,,,,,,,,,,,,,,,,,,,,,,,,,,,,,,,,,,,,,,,,,,,,,,,,,,,,,,,,,,,,,,,,,,,,,,,,,,,,,,,,,,,,,,,,,,,,,,,,,,,,,,,,,,,,,,,,,,,,,,,,,,,,
,,60de7deffb38fe0ad1684964,2023-12-06_23h17.11.590,kallum_motion_pilot,2023.2.3,Win32,60.0024001,60de7deffb38fe0ad1684964,6560176e4d91f764e2a42c74,657158be5fb55eb8ed8fd23a,0.095,0.0952,0,71,71,62,1,fourtwo,,,,,,,,,,,,,,,,,,,,,,,,,,,,,,,,,,,,,,,,,,,,,,,,,,,,,,,,,,,,,,,,,,,,,,,,,,,,,,,,,,,,,,,,,,,,,,,,,,,,,,,,,,,,,,,,,,,,,,,,,,,,,,,,,,,,,,,
,,60de7deffb38fe0ad1684964,2023-12-06_23h17.11.590,kallum_motion_pilot,2023.2.3,Win32,60.0024001,60de7deffb38fe0ad1684964,6560176e4d91f764e2a42c74,657158be5fb55eb8ed8fd23a,0.0954,0.0955,0,72,72,109,1,seveneight,,,,,,,,,,,,,,,,,,,,,,,,,,,,,,,,,,,,,,,,,,,,,,,,,,,,,,,,,,,,,,,,,,,,,,,,,,,,,,,,,,,,,,,,,,,,,,,,,,,,,,,,,,,,,,,,,,,,,,,,,,,,,,,,,,,,,,,
,,60de7deffb38fe0ad1684964,2023-12-06_23h17.11.590,kallum_motion_pilot,2023.2.3,Win32,60.0024001,60de7deffb38fe0ad1684964,6560176e4d91f764e2a42c74,657158be5fb55eb8ed8fd23a,0.0958,0.0959,0,73,73,143,1,eightseven,,,,,,,,,,,,,,,,,,,,,,,,,,,,,,,,,,,,,,,,,,,,,,,,,,,,,,,,,,,,,,,,,,,,,,,,,,,,,,,,,,,,,,,,,,,,,,,,,,,,,,,,,,,,,,,,,,,,,,,,,,,,,,,,,,,,,,,
,,60de7deffb38fe0ad1684964,2023-12-06_23h17.11.590,kallum_motion_pilot,2023.2.3,Win32,60.0024001,60de7deffb38fe0ad1684964,6560176e4d91f764e2a42c74,657158be5fb55eb8ed8fd23a,0.0961,0.0962,0,74,74,161,1,fiveseven,,,,,,,,,,,,,,,,,,,,,,,,,,,,,,,,,,,,,,,,,,,,,,,,,,,,,,,,,,,,,,,,,,,,,,,,,,,,,,,,,,,,,,,,,,,,,,,,,,,,,,,,,,,,,,,,,,,,,,,,,,,,,,,,,,,,,,,
,,60de7deffb38fe0ad1684964,2023-12-06_23h17.11.590,kallum_motion_pilot,2023.2.3,Win32,60.0024001,60de7deffb38fe0ad1684964,6560176e4d91f764e2a42c74,657158be5fb55eb8ed8fd23a,0.0965,0.0965,0,75,75,114,1,sixfive,,,,,,,,,,,,,,,,,,,,,,,,,,,,,,,,,,,,,,,,,,,,,,,,,,,,,,,,,,,,,,,,,,,,,,,,,,,,,,,,,,,,,,,,,,,,,,,,,,,,,,,,,,,,,,,,,,,,,,,,,,,,,,,,,,,,,,,
,,60de7deffb38fe0ad1684964,2023-12-06_23h17.11.590,kallum_motion_pilot,2023.2.3,Win32,60.0024001,60de7deffb38fe0ad1684964,6560176e4d91f764e2a42c74,657158be5fb55eb8ed8fd23a,0.0967,0.0969,0,76,76,137,1,fiveseven,,,,,,,,,,,,,,,,,,,,,,,,,,,,,,,,,,,,,,,,,,,,,,,,,,,,,,,,,,,,,,,,,,,,,,,,,,,,,,,,,,,,,,,,,,,,,,,,,,,,,,,,,,,,,,,,,,,,,,,,,,,,,,,,,,,,,,,
,,60de7deffb38fe0ad1684964,2023-12-06_23h17.11.590,kallum_motion_pilot,2023.2.3,Win32,60.0024001,60de7deffb38fe0ad1684964,6560176e4d91f764e2a42c74,657158be5fb55eb8ed8fd23a,0.0971,0.0972,0,77,77,70,1,fourtwo,,,,,,,,,,,,,,,,,,,,,,,,,,,,,,,,,,,,,,,,,,,,,,,,,,,,,,,,,,,,,,,,,,,,,,,,,,,,,,,,,,,,,,,,,,,,,,,,,,,,,,,,,,,,,,,,,,,,,,,,,,,,,,,,,,,,,,,
,,60de7deffb38fe0ad1684964,2023-12-06_23h17.11.590,kallum_motion_pilot,2023.2.3,Win32,60.0024001,60de7deffb38fe0ad1684964,6560176e4d91f764e2a42c74,657158be5fb55eb8ed8fd23a,0.0974,0.0976,0,78,78,28,1,threeone,,,,,,,,,,,,,,,,,,,,,,,,,,,,,,,,,,,,,,,,,,,,,,,,,,,,,,,,,,,,,,,,,,,,,,,,,,,,,,,,,,,,,,,,,,,,,,,,,,,,,,,,,,,,,,,,,,,,,,,,,,,,,,,,,,,,,,,
,,60de7deffb38fe0ad1684964,2023-12-06_23h17.11.590,kallum_motion_pilot,2023.2.3,Win32,60.0024001,60de7deffb38fe0ad1684964,6560176e4d91f764e2a42c74,657158be5fb55eb8ed8fd23a,0.0977,0.0978,0,79,79,157,1,seveneight,,,,,,,,,,,,,,,,,,,,,,,,,,,,,,,,,,,,,,,,,,,,,,,,,,,,,,,,,,,,,,,,,,,,,,,,,,,,,,,,,,,,,,,,,,,,,,,,,,,,,,,,,,,,,,,,,,,,,,,,,,,,,,,,,,,,,,,
,,60de7deffb38fe0ad1684964,2023-12-06_23h17.11.590,kallum_motion_pilot,2023.2.3,Win32,60.0024001,60de7deffb38fe0ad1684964,6560176e4d91f764e2a42c74,657158be5fb55eb8ed8fd23a,0.0981,0.0982,0,80,80,153,1,fiveseven,,,,,,,,,,,,,,,,,,,,,,,,,,,,,,,,,,,,,,,,,,,,,,,,,,,,,,,,,,,,,,,,,,,,,,,,,,,,,,,,,,,,,,,,,,,,,,,,,,,,,,,,,,,,,,,,,,,,,,,,,,,,,,,,,,,,,,,
,,60de7deffb38fe0ad1684964,2023-12-06_23h17.11.590,kallum_motion_pilot,2023.2.3,Win32,60.0024001,60de7deffb38fe0ad1684964,6560176e4d91f764e2a42c74,657158be5fb55eb8ed8fd23a,0.0985,0.0986,0,81,81,155,1,sixeight,,,,,,,,,,,,,,,,,,,,,,,,,,,,,,,,,,,,,,,,,,,,,,,,,,,,,,,,,,,,,,,,,,,,,,,,,,,,,,,,,,,,,,,,,,,,,,,,,,,,,,,,,,,,,,,,,,,,,,,,,,,,,,,,,,,,,,,
,,60de7deffb38fe0ad1684964,2023-12-06_23h17.11.590,kallum_motion_pilot,2023.2.3,Win32,60.0024001,60de7deffb38fe0ad1684964,6560176e4d91f764e2a42c74,657158be5fb55eb8ed8fd23a,0.0989,0.099,0,82,82,85,1,seveneight,,,,,,,,,,,,,,,,,,,,,,,,,,,,,,,,,,,,,,,,,,,,,,,,,,,,,,,,,,,,,,,,,,,,,,,,,,,,,,,,,,,,,,,,,,,,,,,,,,,,,,,,,,,,,,,,,,,,,,,,,,,,,,,,,,,,,,,
,,60de7deffb38fe0ad1684964,2023-12-06_23h17.11.590,kallum_motion_pilot,2023.2.3,Win32,60.0024001,60de7deffb38fe0ad1684964,6560176e4d91f764e2a42c74,657158be5fb55eb8ed8fd23a,0.0992,0.0993,0,83,83,30,1,fourtwo,,,,,,,,,,,,,,,,,,,,,,,,,,,,,,,,,,,,,,,,,,,,,,,,,,,,,,,,,,,,,,,,,,,,,,,,,,,,,,,,,,,,,,,,,,,,,,,,,,,,,,,,,,,,,,,,,,,,,,,,,,,,,,,,,,,,,,,
,,60de7deffb38fe0ad1684964,2023-12-06_23h17.11.590,kallum_motion_pilot,2023.2.3,Win32,60.0024001,60de7deffb38fe0ad1684964,6560176e4d91f764e2a42c74,657158be5fb55eb8ed8fd23a,0.0995,0.0996,0,84,84,52,1,threeone,,,,,,,,,,,,,,,,,,,,,,,,,,,,,,,,,,,,,,,,,,,,,,,,,,,,,,,,,,,,,,,,,,,,,,,,,,,,,,,,,,,,,,,,,,,,,,,,,,,,,,,,,,,,,,,,,,,,,,,,,,,,,,,,,,,,,,,
,,60de7deffb38fe0ad1684964,2023-12-06_23h17.11.590,kallum_motion_pilot,2023.2.3,Win32,60.0024001,60de7deffb38fe0ad1684964,6560176e4d91f764e2a42c74,657158be5fb55eb8ed8fd23a,0.0999,0.1,0,85,85,125,1,seveneight,,,,,,,,,,,,,,,,,,,,,,,,,,,,,,,,,,,,,,,,,,,,,,,,,,,,,,,,,,,,,,,,,,,,,,,,,,,,,,,,,,,,,,,,,,,,,,,,,,,,,,,,,,,,,,,,,,,,,,,,,,,,,,,,,,,,,,,
,,60de7deffb38fe0ad1684964,2023-12-06_23h17.11.590,kallum_motion_pilot,2023.2.3,Win32,60.0024001,60de7deffb38fe0ad1684964,6560176e4d91f764e2a42c74,657158be5fb55eb8ed8fd23a,0.1002,0.1003,0,86,86,102,1,eightsix,,,,,,,,,,,,,,,,,,,,,,,,,,,,,,,,,,,,,,,,,,,,,,,,,,,,,,,,,,,,,,,,,,,,,,,,,,,,,,,,,,,,,,,,,,,,,,,,,,,,,,,,,,,,,,,,,,,,,,,,,,,,,,,,,,,,,,,
,,60de7deffb38fe0ad1684964,2023-12-06_23h17.11.590,kallum_motion_pilot,2023.2.3,Win32,60.0024001,60de7deffb38fe0ad1684964,6560176e4d91f764e2a42c74,657158be5fb55eb8ed8fd23a,0.1005,0.1006,0,87,87,13,1,threefour,,,,,,,,,,,,,,,,,,,,,,,,,,,,,,,,,,,,,,,,,,,,,,,,,,,,,,,,,,,,,,,,,,,,,,,,,,,,,,,,,,,,,,,,,,,,,,,,,,,,,,,,,,,,,,,,,,,,,,,,,,,,,,,,,,,,,,,
,,60de7deffb38fe0ad1684964,2023-12-06_23h17.11.590,kallum_motion_pilot,2023.2.3,Win32,60.0024001,60de7deffb38fe0ad1684964,6560176e4d91f764e2a42c74,657158be5fb55eb8ed8fd23a,0.1008,0.1009,0,88,88,53,1,threefour,,,,,,,,,,,,,,,,,,,,,,,,,,,,,,,,,,,,,,,,,,,,,,,,,,,,,,,,,,,,,,,,,,,,,,,,,,,,,,,,,,,,,,,,,,,,,,,,,,,,,,,,,,,,,,,,,,,,,,,,,,,,,,,,,,,,,,,
,,60de7deffb38fe0ad1684964,2023-12-06_23h17.11.590,kallum_motion_pilot,2023.2.3,Win32,60.0024001,60de7deffb38fe0ad1684964,6560176e4d91f764e2a42c74,657158be5fb55eb8ed8fd23a,0.1012,0.1013,0,89,89,33,1,onethree,,,,,,,,,,,,,,,,,,,,,,,,,,,,,,,,,,,,,,,,,,,,,,,,,,,,,,,,,,,,,,,,,,,,,,,,,,,,,,,,,,,,,,,,,,,,,,,,,,,,,,,,,,,,,,,,,,,,,,,,,,,,,,,,,,,,,,,
,,60de7deffb38fe0ad1684964,2023-12-06_23h17.11.590,kallum_motion_pilot,2023.2.3,Win32,60.0024001,60de7deffb38fe0ad1684964,6560176e4d91f764e2a42c74,657158be5fb55eb8ed8fd23a,0.1014,0.1015,0,90,90,57,1,onethree,,,,,,,,,,,,,,,,,,,,,,,,,,,,,,,,,,,,,,,,,,,,,,,,,,,,,,,,,,,,,,,,,,,,,,,,,,,,,,,,,,,,,,,,,,,,,,,,,,,,,,,,,,,,,,,,,,,,,,,,,,,,,,,,,,,,,,,
,,60de7deffb38fe0ad1684964,2023-12-06_23h17.11.590,kallum_motion_pilot,2023.2.3,Win32,60.0024001,60de7deffb38fe0ad1684964,6560176e4d91f764e2a42c74,657158be5fb55eb8ed8fd23a,0.1018,0.1019,0,91,91,87,1,eightseven,,,,,,,,,,,,,,,,,,,,,,,,,,,,,,,,,,,,,,,,,,,,,,,,,,,,,,,,,,,,,,,,,,,,,,,,,,,,,,,,,,,,,,,,,,,,,,,,,,,,,,,,,,,,,,,,,,,,,,,,,,,,,,,,,,,,,,,
,,60de7deffb38fe0ad1684964,2023-12-06_23h17.11.590,kallum_motion_pilot,2023.2.3,Win32,60.0024001,60de7deffb38fe0ad1684964,6560176e4d91f764e2a42c74,657158be5fb55eb8ed8fd23a,0.1021,0.1022,0,92,92,120,1,fivesix,,,,,,,,,,,,,,,,,,,,,,,,,,,,,,,,,,,,,,,,,,,,,,,,,,,,,,,,,,,,,,,,,,,,,,,,,,,,,,,,,,,,,,,,,,,,,,,,,,,,,,,,,,,,,,,,,,,,,,,,,,,,,,,,,,,,,,,
,,60de7deffb38fe0ad1684964,2023-12-06_23h17.11.590,kallum_motion_pilot,2023.2.3,Win32,60.0024001,60de7deffb38fe0ad1684964,6560176e4d91f764e2a42c74,657158be5fb55eb8ed8fd23a,0.1024,0.1025,0,93,93,26,1,twoone,,,,,,,,,,,,,,,,,,,,,,,,,,,,,,,,,,,,,,,,,,,,,,,,,,,,,,,,,,,,,,,,,,,,,,,,,,,,,,,,,,,,,,,,,,,,,,,,,,,,,,,,,,,,,,,,,,,,,,,,,,,,,,,,,,,,,,,
,,60de7deffb38fe0ad1684964,2023-12-06_23h17.11.590,kallum_motion_pilot,2023.2.3,Win32,60.0024001,60de7deffb38fe0ad1684964,6560176e4d91f764e2a42c74,657158be5fb55eb8ed8fd23a,0.1029,0.1032,0,94,94,27,1,twofour,,,,,,,,,,,,,,,,,,,,,,,,,,,,,,,,,,,,,,,,,,,,,,,,,,,,,,,,,,,,,,,,,,,,,,,,,,,,,,,,,,,,,,,,,,,,,,,,,,,,,,,,,,,,,,,,,,,,,,,,,,,,,,,,,,,,,,,
,,60de7deffb38fe0ad1684964,2023-12-06_23h17.11.590,kallum_motion_pilot,2023.2.3,Win32,60.0024001,60de7deffb38fe0ad1684964,6560176e4d91f764e2a42c74,657158be5fb55eb8ed8fd23a,0.1036,0.1037,0,95,95,55,1,fourthree,,,,,,,,,,,,,,,,,,,,,,,,,,,,,,,,,,,,,,,,,,,,,,,,,,,,,,,,,,,,,,,,,,,,,,,,,,,,,,,,,,,,,,,,,,,,,,,,,,,,,,,,,,,,,,,,,,,,,,,,,,,,,,,,,,,,,,,
,,60de7deffb38fe0ad1684964,2023-12-06_23h17.11.590,kallum_motion_pilot,2023.2.3,Win32,60.0024001,60de7deffb38fe0ad1684964,6560176e4d91f764e2a42c74,657158be5fb55eb8ed8fd23a,0.1039,0.1041,0,96,96,39,1,fourthree,,,,,,,,,,,,,,,,,,,,,,,,,,,,,,,,,,,,,,,,,,,,,,,,,,,,,,,,,,,,,,,,,,,,,,,,,,,,,,,,,,,,,,,,,,,,,,,,,,,,,,,,,,,,,,,,,,,,,,,,,,,,,,,,,,,,,,,
,,60de7deffb38fe0ad1684964,2023-12-06_23h17.11.590,kallum_motion_pilot,2023.2.3,Win32,60.0024001,60de7deffb38fe0ad1684964,6560176e4d91f764e2a42c74,657158be5fb55eb8ed8fd23a,0.1044,0.1045,0,97,97,124,1,sevenfive,,,,,,,,,,,,,,,,,,,,,,,,,,,,,,,,,,,,,,,,,,,,,,,,,,,,,,,,,,,,,,,,,,,,,,,,,,,,,,,,,,,,,,,,,,,,,,,,,,,,,,,,,,,,,,,,,,,,,,,,,,,,,,,,,,,,,,,
,,60de7deffb38fe0ad1684964,2023-12-06_23h17.11.590,kallum_motion_pilot,2023.2.3,Win32,60.0024001,60de7deffb38fe0ad1684964,6560176e4d91f764e2a42c74,657158be5fb55eb8ed8fd23a,0.1047,0.1048,0,98,98,21,1,threefour,,,,,,,,,,,,,,,,,,,,,,,,,,,,,,,,,,,,,,,,,,,,,,,,,,,,,,,,,,,,,,,,,,,,,,,,,,,,,,,,,,,,,,,,,,,,,,,,,,,,,,,,,,,,,,,,,,,,,,,,,,,,,,,,,,,,,,,
,,60de7deffb38fe0ad1684964,2023-12-06_23h17.11.590,kallum_motion_pilot,2023.2.3,Win32,60.0024001,60de7deffb38fe0ad1684964,6560176e4d91f764e2a42c74,657158be5fb55eb8ed8fd23a,0.1051,0.1051,0,99,99,160,1,fivesix,,,,,,,,,,,,,,,,,,,,,,,,,,,,,,,,,,,,,,,,,,,,,,,,,,,,,,,,,,,,,,,,,,,,,,,,,,,,,,,,,,,,,,,,,,,,,,,,,,,,,,,,,,,,,,,,,,,,,,,,,,,,,,,,,,,,,,,
,,60de7deffb38fe0ad1684964,2023-12-06_23h17.11.590,kallum_motion_pilot,2023.2.3,Win32,60.0024001,60de7deffb38fe0ad1684964,6560176e4d91f764e2a42c74,657158be5fb55eb8ed8fd23a,0.1054,0.1055,0,100,100,8,1,onetwo,,,,,,,,,,,,,,,,,,,,,,,,,,,,,,,,,,,,,,,,,,,,,,,,,,,,,,,,,,,,,,,,,,,,,,,,,,,,,,,,,,,,,,,,,,,,,,,,,,,,,,,,,,,,,,,,,,,,,,,,,,,,,,,,,,,,,,,
,,60de7deffb38fe0ad1684964,2023-12-06_23h17.11.590,kallum_motion_pilot,2023.2.3,Win32,60.0024001,60de7deffb38fe0ad1684964,6560176e4d91f764e2a42c74,657158be5fb55eb8ed8fd23a,0.1057,0.1059,0,101,101,72,1,onetwo,,,,,,,,,,,,,,,,,,,,,,,,,,,,,,,,,,,,,,,,,,,,,,,,,,,,,,,,,,,,,,,,,,,,,,,,,,,,,,,,,,,,,,,,,,,,,,,,,,,,,,,,,,,,,,,,,,,,,,,,,,,,,,,,,,,,,,,
,,60de7deffb38fe0ad1684964,2023-12-06_23h17.11.590,kallum_motion_pilot,2023.2.3,Win32,60.0024001,60de7deffb38fe0ad1684964,6560176e4d91f764e2a42c74,657158be5fb55eb8ed8fd23a,0.1061,0.1062,0,102,102,9,1,onethree,,,,,,,,,,,,,,,,,,,,,,,,,,,,,,,,,,,,,,,,,,,,,,,,,,,,,,,,,,,,,,,,,,,,,,,,,,,,,,,,,,,,,,,,,,,,,,,,,,,,,,,,,,,,,,,,,,,,,,,,,,,,,,,,,,,,,,,
,,60de7deffb38fe0ad1684964,2023-12-06_23h17.11.590,kallum_motion_pilot,2023.2.3,Win32,60.0024001,60de7deffb38fe0ad1684964,6560176e4d91f764e2a42c74,657158be5fb55eb8ed8fd23a,0.1065,0.1065,0,103,103,4,1,threeone,,,,,,,,,,,,,,,,,,,,,,,,,,,,,,,,,,,,,,,,,,,,,,,,,,,,,,,,,,,,,,,,,,,,,,,,,,,,,,,,,,,,,,,,,,,,,,,,,,,,,,,,,,,,,,,,,,,,,,,,,,,,,,,,,,,,,,,
,,60de7deffb38fe0ad1684964,2023-12-06_23h17.11.590,kallum_motion_pilot,2023.2.3,Win32,60.0024001,60de7deffb38fe0ad1684964,6560176e4d91f764e2a42c74,657158be5fb55eb8ed8fd23a,0.1068,0.1069,0,104,104,118,1,eightsix,,,,,,,,,,,,,,,,,,,,,,,,,,,,,,,,,,,,,,,,,,,,,,,,,,,,,,,,,,,,,,,,,,,,,,,,,,,,,,,,,,,,,,,,,,,,,,,,,,,,,,,,,,,,,,,,,,,,,,,,,,,,,,,,,,,,,,,
,,60de7deffb38fe0ad1684964,2023-12-06_23h17.11.590,kallum_motion_pilot,2023.2.3,Win32,60.0024001,60de7deffb38fe0ad1684964,6560176e4d91f764e2a42c74,657158be5fb55eb8ed8fd23a,0.1071,0.1072,0,105,105,42,1,twoone,,,,,,,,,,,,,,,,,,,,,,,,,,,,,,,,,,,,,,,,,,,,,,,,,,,,,,,,,,,,,,,,,,,,,,,,,,,,,,,,,,,,,,,,,,,,,,,,,,,,,,,,,,,,,,,,,,,,,,,,,,,,,,,,,,,,,,,
,,60de7deffb38fe0ad1684964,2023-12-06_23h17.11.590,kallum_motion_pilot,2023.2.3,Win32,60.0024001,60de7deffb38fe0ad1684964,6560176e4d91f764e2a42c74,657158be5fb55eb8ed8fd23a,0.1075,0.1076,0,106,106,7,1,fourthree,,,,,,,,,,,,,,,,,,,,,,,,,,,,,,,,,,,,,,,,,,,,,,,,,,,,,,,,,,,,,,,,,,,,,,,,,,,,,,,,,,,,,,,,,,,,,,,,,,,,,,,,,,,,,,,,,,,,,,,,,,,,,,,,,,,,,,,
,,60de7deffb38fe0ad1684964,2023-12-06_23h17.11.590,kallum_motion_pilot,2023.2.3,Win32,60.0024001,60de7deffb38fe0ad1684964,6560176e4d91f764e2a42c74,657158be5fb55eb8ed8fd23a,0.1078,0.108,0,107,107,147,1,sixeight,,,,,,,,,,,,,,,,,,,,,,,,,,,,,,,,,,,,,,,,,,,,,,,,,,,,,,,,,,,,,,,,,,,,,,,,,,,,,,,,,,,,,,,,,,,,,,,,,,,,,,,,,,,,,,,,,,,,,,,,,,,,,,,,,,,,,,,
,,60de7deffb38fe0ad1684964,2023-12-06_23h17.11.590,kallum_motion_pilot,2023.2.3,Win32,60.0024001,60de7deffb38fe0ad1684964,6560176e4d91f764e2a42c74,657158be5fb55eb8ed8fd23a,0.1082,0.1083,0,108,108,61,1,threefour,,,,,,,,,,,,,,,,,,,,,,,,,,,,,,,,,,,,,,,,,,,,,,,,,,,,,,,,,,,,,,,,,,,,,,,,,,,,,,,,,,,,,,,,,,,,,,,,,,,,,,,,,,,,,,,,,,,,,,,,,,,,,,,,,,,,,,,
,,60de7deffb38fe0ad1684964,2023-12-06_23h17.11.590,kallum_motion_pilot,2023.2.3,Win32,60.0024001,60de7deffb38fe0ad1684964,6560176e4d91f764e2a42c74,657158be5fb55eb8ed8fd23a,0.1085,0.1086,0,109,109,5,1,threefour,,,,,,,,,,,,,,,,,,,,,,,,,,,,,,,,,,,,,,,,,,,,,,,,,,,,,,,,,,,,,,,,,,,,,,,,,,,,,,,,,,,,,,,,,,,,,,,,,,,,,,,,,,,,,,,,,,,,,,,,,,,,,,,,,,,,,,,
,,60de7deffb38fe0ad1684964,2023-12-06_23h17.11.590,kallum_motion_pilot,2023.2.3,Win32,60.0024001,60de7deffb38fe0ad1684964,6560176e4d91f764e2a42c74,657158be5fb55eb8ed8fd23a,0.1088,0.1089,0,110,110,46,1,fourtwo,,,,,,,,,,,,,,,,,,,,,,,,,,,,,,,,,,,,,,,,,,,,,,,,,,,,,,,,,,,,,,,,,,,,,,,,,,,,,,,,,,,,,,,,,,,,,,,,,,,,,,,,,,,,,,,,,,,,,,,,,,,,,,,,,,,,,,,
,,60de7deffb38fe0ad1684964,2023-12-06_23h17.11.590,kallum_motion_pilot,2023.2.3,Win32,60.0024001,60de7deffb38fe0ad1684964,6560176e4d91f764e2a42c74,657158be5fb55eb8ed8fd23a,0.1092,0.1093,0,111,111,14,1,fourtwo,,,,,,,,,,,,,,,,,,,,,,,,,,,,,,,,,,,,,,,,,,,,,,,,,,,,,,,,,,,,,,,,,,,,,,,,,,,,,,,,,,,,,,,,,,,,,,,,,,,,,,,,,,,,,,,,,,,,,,,,,,,,,,,,,,,,,,,
,,60de7deffb38fe0ad1684964,2023-12-06_23h17.11.590,kallum_motion_pilot,2023.2.3,Win32,60.0024001,60de7deffb38fe0ad1684964,6560176e4d91f764e2a42c74,657158be5fb55eb8ed8fd23a,0.1096,0.1096,0,112,112,95,1,eightseven,,,,,,,,,,,,,,,,,,,,,,,,,,,,,,,,,,,,,,,,,,,,,,,,,,,,,,,,,,,,,,,,,,,,,,,,,,,,,,,,,,,,,,,,,,,,,,,,,,,,,,,,,,,,,,,,,,,,,,,,,,,,,,,,,,,,,,,
,,60de7deffb38fe0ad1684964,2023-12-06_23h17.11.590,kallum_motion_pilot,2023.2.3,Win32,60.0024001,60de7deffb38fe0ad1684964,6560176e4d91f764e2a42c74,657158be5fb55eb8ed8fd23a,0.1098,0.11,0,113,113,132,1,sevenfive,,,,,,,,,,,,,,,,,,,,,,,,,,,,,,,,,,,,,,,,,,,,,,,,,,,,,,,,,,,,,,,,,,,,,,,,,,,,,,,,,,,,,,,,,,,,,,,,,,,,,,,,,,,,,,,,,,,,,,,,,,,,,,,,,,,,,,,
,,60de7deffb38fe0ad1684964,2023-12-06_23h17.11.590,kallum_motion_pilot,2023.2.3,Win32,60.0024001,60de7deffb38fe0ad1684964,6560176e4d91f764e2a42c74,657158be5fb55eb8ed8fd23a,0.1103,0.1104,0,114,114,116,1,sevenfive,,,,,,,,,,,,,,,,,,,,,,,,,,,,,,,,,,,,,,,,,,,,,,,,,,,,,,,,,,,,,,,,,,,,,,,,,,,,,,,,,,,,,,,,,,,,,,,,,,,,,,,,,,,,,,,,,,,,,,,,,,,,,,,,,,,,,,,
,,60de7deffb38fe0ad1684964,2023-12-06_23h17.11.590,kallum_motion_pilot,2023.2.3,Win32,60.0024001,60de7deffb38fe0ad1684964,6560176e4d91f764e2a42c74,657158be5fb55eb8ed8fd23a,0.1106,0.1107,0,115,115,129,1,fiveseven,,,,,,,,,,,,,,,,,,,,,,,,,,,,,,,,,,,,,,,,,,,,,,,,,,,,,,,,,,,,,,,,,,,,,,,,,,,,,,,,,,,,,,,,,,,,,,,,,,,,,,,,,,,,,,,,,,,,,,,,,,,,,,,,,,,,,,,
,,60de7deffb38fe0ad1684964,2023-12-06_23h17.11.590,kallum_motion_pilot,2023.2.3,Win32,60.0024001,60de7deffb38fe0ad1684964,6560176e4d91f764e2a42c74,657158be5fb55eb8ed8fd23a,0.1109,0.111,0,116,116,122,1,sixfive,,,,,,,,,,,,,,,,,,,,,,,,,,,,,,,,,,,,,,,,,,,,,,,,,,,,,,,,,,,,,,,,,,,,,,,,,,,,,,,,,,,,,,,,,,,,,,,,,,,,,,,,,,,,,,,,,,,,,,,,,,,,,,,,,,,,,,,
,,60de7deffb38fe0ad1684964,2023-12-06_23h17.11.590,kallum_motion_pilot,2023.2.3,Win32,60.0024001,60de7deffb38fe0ad1684964,6560176e4d91f764e2a42c74,657158be5fb55eb8ed8fd23a,0.1114,0.1117,0,117,117,130,1,sixfive,,,,,,,,,,,,,,,,,,,,,,,,,,,,,,,,,,,,,,,,,,,,,,,,,,,,,,,,,,,,,,,,,,,,,,,,,,,,,,,,,,,,,,,,,,,,,,,,,,,,,,,,,,,,,,,,,,,,,,,,,,,,,,,,,,,,,,,
,,60de7deffb38fe0ad1684964,2023-12-06_23h17.11.590,kallum_motion_pilot,2023.2.3,Win32,60.0024001,60de7deffb38fe0ad1684964,6560176e4d91f764e2a42c74,657158be5fb55eb8ed8fd23a,0.112,0.1121,0,118,118,6,1,fourtwo,,,,,,,,,,,,,,,,,,,,,,,,,,,,,,,,,,,,,,,,,,,,,,,,,,,,,,,,,,,,,,,,,,,,,,,,,,,,,,,,,,,,,,,,,,,,,,,,,,,,,,,,,,,,,,,,,,,,,,,,,,,,,,,,,,,,,,,
,,60de7deffb38fe0ad1684964,2023-12-06_23h17.11.590,kallum_motion_pilot,2023.2.3,Win32,60.0024001,60de7deffb38fe0ad1684964,6560176e4d91f764e2a42c74,657158be5fb55eb8ed8fd23a,0.1123,0.1125,0,119,119,11,1,twofour,,,,,,,,,,,,,,,,,,,,,,,,,,,,,,,,,,,,,,,,,,,,,,,,,,,,,,,,,,,,,,,,,,,,,,,,,,,,,,,,,,,,,,,,,,,,,,,,,,,,,,,,,,,,,,,,,,,,,,,,,,,,,,,,,,,,,,,
,,60de7deffb38fe0ad1684964,2023-12-06_23h17.11.590,kallum_motion_pilot,2023.2.3,Win32,60.0024001,60de7deffb38fe0ad1684964,6560176e4d91f764e2a42c74,657158be5fb55eb8ed8fd23a,0.1128,0.113,0,120,120,45,1,threefour,,,,,,,,,,,,,,,,,,,,,,,,,,,,,,,,,,,,,,,,,,,,,,,,,,,,,,,,,,,,,,,,,,,,,,,,,,,,,,,,,,,,,,,,,,,,,,,,,,,,,,,,,,,,,,,,,,,,,,,,,,,,,,,,,,,,,,,
,,60de7deffb38fe0ad1684964,2023-12-06_23h17.11.590,kallum_motion_pilot,2023.2.3,Win32,60.0024001,60de7deffb38fe0ad1684964,6560176e4d91f764e2a42c74,657158be5fb55eb8ed8fd23a,0.1134,0.1135,0,121,121,84,1,sevenfive,,,,,,,,,,,,,,,,,,,,,,,,,,,,,,,,,,,,,,,,,,,,,,,,,,,,,,,,,,,,,,,,,,,,,,,,,,,,,,,,,,,,,,,,,,,,,,,,,,,,,,,,,,,,,,,,,,,,,,,,,,,,,,,,,,,,,,,
,,60de7deffb38fe0ad1684964,2023-12-06_23h17.11.590,kallum_motion_pilot,2023.2.3,Win32,60.0024001,60de7deffb38fe0ad1684964,6560176e4d91f764e2a42c74,657158be5fb55eb8ed8fd23a,0.1138,0.1139,0,122,122,119,1,eightseven,,,,,,,,,,,,,,,,,,,,,,,,,,,,,,,,,,,,,,,,,,,,,,,,,,,,,,,,,,,,,,,,,,,,,,,,,,,,,,,,,,,,,,,,,,,,,,,,,,,,,,,,,,,,,,,,,,,,,,,,,,,,,,,,,,,,,,,
,,60de7deffb38fe0ad1684964,2023-12-06_23h17.11.590,kallum_motion_pilot,2023.2.3,Win32,60.0024001,60de7deffb38fe0ad1684964,6560176e4d91f764e2a42c74,657158be5fb55eb8ed8fd23a,0.1141,0.1144,0,123,123,117,1,seveneight,,,,,,,,,,,,,,,,,,,,,,,,,,,,,,,,,,,,,,,,,,,,,,,,,,,,,,,,,,,,,,,,,,,,,,,,,,,,,,,,,,,,,,,,,,,,,,,,,,,,,,,,,,,,,,,,,,,,,,,,,,,,,,,,,,,,,,,
,,60de7deffb38fe0ad1684964,2023-12-06_23h17.11.590,kallum_motion_pilot,2023.2.3,Win32,60.0024001,60de7deffb38fe0ad1684964,6560176e4d91f764e2a42c74,657158be5fb55eb8ed8fd23a,0.1147,0.1148,0,124,124,112,1,fivesix,,,,,,,,,,,,,,,,,,,,,,,,,,,,,,,,,,,,,,,,,,,,,,,,,,,,,,,,,,,,,,,,,,,,,,,,,,,,,,,,,,,,,,,,,,,,,,,,,,,,,,,,,,,,,,,,,,,,,,,,,,,,,,,,,,,,,,,
,,60de7deffb38fe0ad1684964,2023-12-06_23h17.11.590,kallum_motion_pilot,2023.2.3,Win32,60.0024001,60de7deffb38fe0ad1684964,6560176e4d91f764e2a42c74,657158be5fb55eb8ed8fd23a,0.1151,0.1153,0,125,125,113,1,fiveseven,,,,,,,,,,,,,,,,,,,,,,,,,,,,,,,,,,,,,,,,,,,,,,,,,,,,,,,,,,,,,,,,,,,,,,,,,,,,,,,,,,,,,,,,,,,,,,,,,,,,,,,,,,,,,,,,,,,,,,,,,,,,,,,,,,,,,,,
,,60de7deffb38fe0ad1684964,2023-12-06_23h17.11.590,kallum_motion_pilot,2023.2.3,Win32,60.0024001,60de7deffb38fe0ad1684964,6560176e4d91f764e2a42c74,657158be5fb55eb8ed8fd23a,0.1155,0.1157,0,126,126,133,1,seveneight,,,,,,,,,,,,,,,,,,,,,,,,,,,,,,,,,,,,,,,,,,,,,,,,,,,,,,,,,,,,,,,,,,,,,,,,,,,,,,,,,,,,,,,,,,,,,,,,,,,,,,,,,,,,,,,,,,,,,,,,,,,,,,,,,,,,,,,
,,60de7deffb38fe0ad1684964,2023-12-06_23h17.11.590,kallum_motion_pilot,2023.2.3,Win32,60.0024001,60de7deffb38fe0ad1684964,6560176e4d91f764e2a42c74,657158be5fb55eb8ed8fd23a,0.1159,0.1162,0,127,127,20,1,threeone,,,,,,,,,,,,,,,,,,,,,,,,,,,,,,,,,,,,,,,,,,,,,,,,,,,,,,,,,,,,,,,,,,,,,,,,,,,,,,,,,,,,,,,,,,,,,,,,,,,,,,,,,,,,,,,,,,,,,,,,,,,,,,,,,,,,,,,
,,60de7deffb38fe0ad1684964,2023-12-06_23h17.11.590,kallum_motion_pilot,2023.2.3,Win32,60.0024001,60de7deffb38fe0ad1684964,6560176e4d91f764e2a42c74,657158be5fb55eb8ed8fd23a,0.1165,0.1167,0,128,128,150,1,eightsix,,,,,,,,,,,,,,,,,,,,,,,,,,,,,,,,,,,,,,,,,,,,,,,,,,,,,,,,,,,,,,,,,,,,,,,,,,,,,,,,,,,,,,,,,,,,,,,,,,,,,,,,,,,,,,,,,,,,,,,,,,,,,,,,,,,,,,,
,,60de7deffb38fe0ad1684964,2023-12-06_23h17.11.590,kallum_motion_pilot,2023.2.3,Win32,60.0024001,60de7deffb38fe0ad1684964,6560176e4d91f764e2a42c74,657158be5fb55eb8ed8fd23a,0.117,0.1171,0,129,129,17,1,onethree,,,,,,,,,,,,,,,,,,,,,,,,,,,,,,,,,,,,,,,,,,,,,,,,,,,,,,,,,,,,,,,,,,,,,,,,,,,,,,,,,,,,,,,,,,,,,,,,,,,,,,,,,,,,,,,,,,,,,,,,,,,,,,,,,,,,,,,
,,60de7deffb38fe0ad1684964,2023-12-06_23h17.11.590,kallum_motion_pilot,2023.2.3,Win32,60.0024001,60de7deffb38fe0ad1684964,6560176e4d91f764e2a42c74,657158be5fb55eb8ed8fd23a,0.1175,0.1176,0,130,130,151,1,eightseven,,,,,,,,,,,,,,,,,,,,,,,,,,,,,,,,,,,,,,,,,,,,,,,,,,,,,,,,,,,,,,,,,,,,,,,,,,,,,,,,,,,,,,,,,,,,,,,,,,,,,,,,,,,,,,,,,,,,,,,,,,,,,,,,,,,,,,,
,,60de7deffb38fe0ad1684964,2023-12-06_23h17.11.590,kallum_motion_pilot,2023.2.3,Win32,60.0024001,60de7deffb38fe0ad1684964,6560176e4d91f764e2a42c74,657158be5fb55eb8ed8fd23a,0.118,0.1185,0,131,131,138,1,sixfive,,,,,,,,,,,,,,,,,,,,,,,,,,,,,,,,,,,,,,,,,,,,,,,,,,,,,,,,,,,,,,,,,,,,,,,,,,,,,,,,,,,,,,,,,,,,,,,,,,,,,,,,,,,,,,,,,,,,,,,,,,,,,,,,,,,,,,,
,,60de7deffb38fe0ad1684964,2023-12-06_23h17.11.590,kallum_motion_pilot,2023.2.3,Win32,60.0024001,60de7deffb38fe0ad1684964,6560176e4d91f764e2a42c74,657158be5fb55eb8ed8fd23a,0.1189,0.1192,0,132,132,24,1,onetwo,,,,,,,,,,,,,,,,,,,,,,,,,,,,,,,,,,,,,,,,,,,,,,,,,,,,,,,,,,,,,,,,,,,,,,,,,,,,,,,,,,,,,,,,,,,,,,,,,,,,,,,,,,,,,,,,,,,,,,,,,,,,,,,,,,,,,,,
,,60de7deffb38fe0ad1684964,2023-12-06_23h17.11.590,kallum_motion_pilot,2023.2.3,Win32,60.0024001,60de7deffb38fe0ad1684964,6560176e4d91f764e2a42c74,657158be5fb55eb8ed8fd23a,0.1196,0.1199,0,133,133,80,1,fivesix,,,,,,,,,,,,,,,,,,,,,,,,,,,,,,,,,,,,,,,,,,,,,,,,,,,,,,,,,,,,,,,,,,,,,,,,,,,,,,,,,,,,,,,,,,,,,,,,,,,,,,,,,,,,,,,,,,,,,,,,,,,,,,,,,,,,,,,
,,60de7deffb38fe0ad1684964,2023-12-06_23h17.11.590,kallum_motion_pilot,2023.2.3,Win32,60.0024001,60de7deffb38fe0ad1684964,6560176e4d91f764e2a42c74,657158be5fb55eb8ed8fd23a,0.1202,0.1205,0,134,134,156,1,sevenfive,,,,,,,,,,,,,,,,,,,,,,,,,,,,,,,,,,,,,,,,,,,,,,,,,,,,,,,,,,,,,,,,,,,,,,,,,,,,,,,,,,,,,,,,,,,,,,,,,,,,,,,,,,,,,,,,,,,,,,,,,,,,,,,,,,,,,,,
,,60de7deffb38fe0ad1684964,2023-12-06_23h17.11.590,kallum_motion_pilot,2023.2.3,Win32,60.0024001,60de7deffb38fe0ad1684964,6560176e4d91f764e2a42c74,657158be5fb55eb8ed8fd23a,0.1208,0.1211,0,135,135,110,1,eightsix,,,,,,,,,,,,,,,,,,,,,,,,,,,,,,,,,,,,,,,,,,,,,,,,,,,,,,,,,,,,,,,,,,,,,,,,,,,,,,,,,,,,,,,,,,,,,,,,,,,,,,,,,,,,,,,,,,,,,,,,,,,,,,,,,,,,,,,
,,60de7deffb38fe0ad1684964,2023-12-06_23h17.11.590,kallum_motion_pilot,2023.2.3,Win32,60.0024001,60de7deffb38fe0ad1684964,6560176e4d91f764e2a42c74,657158be5fb55eb8ed8fd23a,0.1216,0.1218,0,136,136,59,1,twofour,,,,,,,,,,,,,,,,,,,,,,,,,,,,,,,,,,,,,,,,,,,,,,,,,,,,,,,,,,,,,,,,,,,,,,,,,,,,,,,,,,,,,,,,,,,,,,,,,,,,,,,,,,,,,,,,,,,,,,,,,,,,,,,,,,,,,,,
,,60de7deffb38fe0ad1684964,2023-12-06_23h17.11.590,kallum_motion_pilot,2023.2.3,Win32,60.0024001,60de7deffb38fe0ad1684964,6560176e4d91f764e2a42c74,657158be5fb55eb8ed8fd23a,0.1222,0.1224,0,137,137,0,1,onetwo,,,,,,,,,,,,,,,,,,,,,,,,,,,,,,,,,,,,,,,,,,,,,,,,,,,,,,,,,,,,,,,,,,,,,,,,,,,,,,,,,,,,,,,,,,,,,,,,,,,,,,,,,,,,,,,,,,,,,,,,,,,,,,,,,,,,,,,
,,60de7deffb38fe0ad1684964,2023-12-06_23h17.11.590,kallum_motion_pilot,2023.2.3,Win32,60.0024001,60de7deffb38fe0ad1684964,6560176e4d91f764e2a42c74,657158be5fb55eb8ed8fd23a,0.1233,0.1235,0,138,138,22,1,fourtwo,,,,,,,,,,,,,,,,,,,,,,,,,,,,,,,,,,,,,,,,,,,,,,,,,,,,,,,,,,,,,,,,,,,,,,,,,,,,,,,,,,,,,,,,,,,,,,,,,,,,,,,,,,,,,,,,,,,,,,,,,,,,,,,,,,,,,,,
,,60de7deffb38fe0ad1684964,2023-12-06_23h17.11.590,kallum_motion_pilot,2023.2.3,Win32,60.0024001,60de7deffb38fe0ad1684964,6560176e4d91f764e2a42c74,657158be5fb55eb8ed8fd23a,0.1239,0.124,0,139,139,29,1,threefour,,,,,,,,,,,,,,,,,,,,,,,,,,,,,,,,,,,,,,,,,,,,,,,,,,,,,,,,,,,,,,,,,,,,,,,,,,,,,,,,,,,,,,,,,,,,,,,,,,,,,,,,,,,,,,,,,,,,,,,,,,,,,,,,,,,,,,,
,,60de7deffb38fe0ad1684964,2023-12-06_23h17.11.590,kallum_motion_pilot,2023.2.3,Win32,60.0024001,60de7deffb38fe0ad1684964,6560176e4d91f764e2a42c74,657158be5fb55eb8ed8fd23a,0.1244,0.1245,0,140,140,159,1,eightseven,,,,,,,,,,,,,,,,,,,,,,,,,,,,,,,,,,,,,,,,,,,,,,,,,,,,,,,,,,,,,,,,,,,,,,,,,,,,,,,,,,,,,,,,,,,,,,,,,,,,,,,,,,,,,,,,,,,,,,,,,,,,,,,,,,,,,,,
,,60de7deffb38fe0ad1684964,2023-12-06_23h17.11.590,kallum_motion_pilot,2023.2.3,Win32,60.0024001,60de7deffb38fe0ad1684964,6560176e4d91f764e2a42c74,657158be5fb55eb8ed8fd23a,0.1249,0.1252,0,141,141,82,1,sixfive,,,,,,,,,,,,,,,,,,,,,,,,,,,,,,,,,,,,,,,,,,,,,,,,,,,,,,,,,,,,,,,,,,,,,,,,,,,,,,,,,,,,,,,,,,,,,,,,,,,,,,,,,,,,,,,,,,,,,,,,,,,,,,,,,,,,,,,
,,60de7deffb38fe0ad1684964,2023-12-06_23h17.11.590,kallum_motion_pilot,2023.2.3,Win32,60.0024001,60de7deffb38fe0ad1684964,6560176e4d91f764e2a42c74,657158be5fb55eb8ed8fd23a,0.1255,0.1257,0,142,142,108,1,sevenfive,,,,,,,,,,,,,,,,,,,,,,,,,,,,,,,,,,,,,,,,,,,,,,,,,,,,,,,,,,,,,,,,,,,,,,,,,,,,,,,,,,,,,,,,,,,,,,,,,,,,,,,,,,,,,,,,,,,,,,,,,,,,,,,,,,,,,,,
,,60de7deffb38fe0ad1684964,2023-12-06_23h17.11.590,kallum_motion_pilot,2023.2.3,Win32,60.0024001,60de7deffb38fe0ad1684964,6560176e4d91f764e2a42c74,657158be5fb55eb8ed8fd23a,0.1259,0.1261,0,143,143,89,1,fiveseven,,,,,,,,,,,,,,,,,,,,,,,,,,,,,,,,,,,,,,,,,,,,,,,,,,,,,,,,,,,,,,,,,,,,,,,,,,,,,,,,,,,,,,,,,,,,,,,,,,,,,,,,,,,,,,,,,,,,,,,,,,,,,,,,,,,,,,,
,,60de7deffb38fe0ad1684964,2023-12-06_23h17.11.590,kallum_motion_pilot,2023.2.3,Win32,60.0024001,60de7deffb38fe0ad1684964,6560176e4d91f764e2a42c74,657158be5fb55eb8ed8fd23a,0.1263,0.1264,0,144,144,111,1,eightseven,,,,,,,,,,,,,,,,,,,,,,,,,,,,,,,,,,,,,,,,,,,,,,,,,,,,,,,,,,,,,,,,,,,,,,,,,,,,,,,,,,,,,,,,,,,,,,,,,,,,,,,,,,,,,,,,,,,,,,,,,,,,,,,,,,,,,,,
,,60de7deffb38fe0ad1684964,2023-12-06_23h17.11.590,kallum_motion_pilot,2023.2.3,Win32,60.0024001,60de7deffb38fe0ad1684964,6560176e4d91f764e2a42c74,657158be5fb55eb8ed8fd23a,0.1267,0.1268,0,145,145,37,1,threefour,,,,,,,,,,,,,,,,,,,,,,,,,,,,,,,,,,,,,,,,,,,,,,,,,,,,,,,,,,,,,,,,,,,,,,,,,,,,,,,,,,,,,,,,,,,,,,,,,,,,,,,,,,,,,,,,,,,,,,,,,,,,,,,,,,,,,,,
,,60de7deffb38fe0ad1684964,2023-12-06_23h17.11.590,kallum_motion_pilot,2023.2.3,Win32,60.0024001,60de7deffb38fe0ad1684964,6560176e4d91f764e2a42c74,657158be5fb55eb8ed8fd23a,0.127,0.1273,0,146,146,75,1,twofour,,,,,,,,,,,,,,,,,,,,,,,,,,,,,,,,,,,,,,,,,,,,,,,,,,,,,,,,,,,,,,,,,,,,,,,,,,,,,,,,,,,,,,,,,,,,,,,,,,,,,,,,,,,,,,,,,,,,,,,,,,,,,,,,,,,,,,,
,,60de7deffb38fe0ad1684964,2023-12-06_23h17.11.590,kallum_motion_pilot,2023.2.3,Win32,60.0024001,60de7deffb38fe0ad1684964,6560176e4d91f764e2a42c74,657158be5fb55eb8ed8fd23a,0.1276,0.1282,0,147,147,158,1,eightsix,,,,,,,,,,,,,,,,,,,,,,,,,,,,,,,,,,,,,,,,,,,,,,,,,,,,,,,,,,,,,,,,,,,,,,,,,,,,,,,,,,,,,,,,,,,,,,,,,,,,,,,,,,,,,,,,,,,,,,,,,,,,,,,,,,,,,,,
,,60de7deffb38fe0ad1684964,2023-12-06_23h17.11.590,kallum_motion_pilot,2023.2.3,Win32,60.0024001,60de7deffb38fe0ad1684964,6560176e4d91f764e2a42c74,657158be5fb55eb8ed8fd23a,0.1285,0.1288,0,148,148,81,1,fiveseven,,,,,,,,,,,,,,,,,,,,,,,,,,,,,,,,,,,,,,,,,,,,,,,,,,,,,,,,,,,,,,,,,,,,,,,,,,,,,,,,,,,,,,,,,,,,,,,,,,,,,,,,,,,,,,,,,,,,,,,,,,,,,,,,,,,,,,,
,,60de7deffb38fe0ad1684964,2023-12-06_23h17.11.590,kallum_motion_pilot,2023.2.3,Win32,60.0024001,60de7deffb38fe0ad1684964,6560176e4d91f764e2a42c74,657158be5fb55eb8ed8fd23a,0.1289,0.1291,0,149,149,136,1,fivesix,,,,,,,,,,,,,,,,,,,,,,,,,,,,,,,,,,,,,,,,,,,,,,,,,,,,,,,,,,,,,,,,,,,,,,,,,,,,,,,,,,,,,,,,,,,,,,,,,,,,,,,,,,,,,,,,,,,,,,,,,,,,,,,,,,,,,,,
,,60de7deffb38fe0ad1684964,2023-12-06_23h17.11.590,kallum_motion_pilot,2023.2.3,Win32,60.0024001,60de7deffb38fe0ad1684964,6560176e4d91f764e2a42c74,657158be5fb55eb8ed8fd23a,0.1293,0.1295,0,150,150,54,1,fourtwo,,,,,,,,,,,,,,,,,,,,,,,,,,,,,,,,,,,,,,,,,,,,,,,,,,,,,,,,,,,,,,,,,,,,,,,,,,,,,,,,,,,,,,,,,,,,,,,,,,,,,,,,,,,,,,,,,,,,,,,,,,,,,,,,,,,,,,,
,,60de7deffb38fe0ad1684964,2023-12-06_23h17.11.590,kallum_motion_pilot,2023.2.3,Win32,60.0024001,60de7deffb38fe0ad1684964,6560176e4d91f764e2a42c74,657158be5fb55eb8ed8fd23a,0.1297,0.1298,0,151,151,149,1,seveneight,,,,,,,,,,,,,,,,,,,,,,,,,,,,,,,,,,,,,,,,,,,,,,,,,,,,,,,,,,,,,,,,,,,,,,,,,,,,,,,,,,,,,,,,,,,,,,,,,,,,,,,,,,,,,,,,,,,,,,,,,,,,,,,,,,,,,,,
,,60de7deffb38fe0ad1684964,2023-12-06_23h17.11.590,kallum_motion_pilot,2023.2.3,Win32,60.0024001,60de7deffb38fe0ad1684964,6560176e4d91f764e2a42c74,657158be5fb55eb8ed8fd23a,0.1301,0.1302,0,152,152,31,1,fourthree,,,,,,,,,,,,,,,,,,,,,,,,,,,,,,,,,,,,,,,,,,,,,,,,,,,,,,,,,,,,,,,,,,,,,,,,,,,,,,,,,,,,,,,,,,,,,,,,,,,,,,,,,,,,,,,,,,,,,,,,,,,,,,,,,,,,,,,
,,60de7deffb38fe0ad1684964,2023-12-06_23h17.11.590,kallum_motion_pilot,2023.2.3,Win32,60.0024001,60de7deffb38fe0ad1684964,6560176e4d91f764e2a42c74,657158be5fb55eb8ed8fd23a,0.1304,0.1306,0,153,153,152,1,fivesix,,,,,,,,,,,,,,,,,,,,,,,,,,,,,,,,,,,,,,,,,,,,,,,,,,,,,,,,,,,,,,,,,,,,,,,,,,,,,,,,,,,,,,,,,,,,,,,,,,,,,,,,,,,,,,,,,,,,,,,,,,,,,,,,,,,,,,,
,,60de7deffb38fe0ad1684964,2023-12-06_23h17.11.590,kallum_motion_pilot,2023.2.3,Win32,60.0024001,60de7deffb38fe0ad1684964,6560176e4d91f764e2a42c74,657158be5fb55eb8ed8fd23a,0.1308,0.1309,0,154,154,41,1,onethree,,,,,,,,,,,,,,,,,,,,,,,,,,,,,,,,,,,,,,,,,,,,,,,,,,,,,,,,,,,,,,,,,,,,,,,,,,,,,,,,,,,,,,,,,,,,,,,,,,,,,,,,,,,,,,,,,,,,,,,,,,,,,,,,,,,,,,,
,,60de7deffb38fe0ad1684964,2023-12-06_23h17.11.590,kallum_motion_pilot,2023.2.3,Win32,60.0024001,60de7deffb38fe0ad1684964,6560176e4d91f764e2a42c74,657158be5fb55eb8ed8fd23a,0.1311,0.1313,0,155,155,107,1,sixeight,,,,,,,,,,,,,,,,,,,,,,,,,,,,,,,,,,,,,,,,,,,,,,,,,,,,,,,,,,,,,,,,,,,,,,,,,,,,,,,,,,,,,,,,,,,,,,,,,,,,,,,,,,,,,,,,,,,,,,,,,,,,,,,,,,,,,,,
,,60de7deffb38fe0ad1684964,2023-12-06_23h17.11.590,kallum_motion_pilot,2023.2.3,Win32,60.0024001,60de7deffb38fe0ad1684964,6560176e4d91f764e2a42c74,657158be5fb55eb8ed8fd23a,0.1315,0.1317,0,156,156,154,1,sixfive,,,,,,,,,,,,,,,,,,,,,,,,,,,,,,,,,,,,,,,,,,,,,,,,,,,,,,,,,,,,,,,,,,,,,,,,,,,,,,,,,,,,,,,,,,,,,,,,,,,,,,,,,,,,,,,,,,,,,,,,,,,,,,,,,,,,,,,
,,60de7deffb38fe0ad1684964,2023-12-06_23h17.11.590,kallum_motion_pilot,2023.2.3,Win32,60.0024001,60de7deffb38fe0ad1684964,6560176e4d91f764e2a42c74,657158be5fb55eb8ed8fd23a,0.1318,0.1321,0,157,157,128,1,fivesix,,,,,,,,,,,,,,,,,,,,,,,,,,,,,,,,,,,,,,,,,,,,,,,,,,,,,,,,,,,,,,,,,,,,,,,,,,,,,,,,,,,,,,,,,,,,,,,,,,,,,,,,,,,,,,,,,,,,,,,,,,,,,,,,,,,,,,,
,,60de7deffb38fe0ad1684964,2023-12-06_23h17.11.590,kallum_motion_pilot,2023.2.3,Win32,60.0024001,60de7deffb38fe0ad1684964,6560176e4d91f764e2a42c74,657158be5fb55eb8ed8fd23a,0.1323,0.1324,0,158,158,68,1,threeone,,,,,,,,,,,,,,,,,,,,,,,,,,,,,,,,,,,,,,,,,,,,,,,,,,,,,,,,,,,,,,,,,,,,,,,,,,,,,,,,,,,,,,,,,,,,,,,,,,,,,,,,,,,,,,,,,,,,,,,,,,,,,,,,,,,,,,,
,,60de7deffb38fe0ad1684964,2023-12-06_23h17.11.590,kallum_motion_pilot,2023.2.3,Win32,60.0024001,60de7deffb38fe0ad1684964,6560176e4d91f764e2a42c74,657158be5fb55eb8ed8fd23a,0.1326,0.1329,0,159,159,43,1,twofour,,,,,,,,,,,,,,,,,,,,,,,,,,,,,,,,,,,,,,,,,,,,,,,,,,,,,,,,,,,,,,,,,,,,,,,,,,,,,,,,,,,,,,,,,,,,,,,,,,,,,,,,,,,,,,,,,,,,,,,,,,,,,,,,,,,,,,,
,,60de7deffb38fe0ad1684964,2023-12-06_23h17.11.590,kallum_motion_pilot,2023.2.3,Win32,60.0024001,60de7deffb38fe0ad1684964,6560176e4d91f764e2a42c74,657158be5fb55eb8ed8fd23a,0.1333,0.1335,0,160,160,79,1,eightseven,,,,,,,,,,,,,,,,,,,,,,,,,,,,,,,,,,,,,,,,,,,,,,,,,,,,,,,,,,,,,,,,,,,,,,,,,,,,,,,,,,,,,,,,,,,,,,,,,,,,,,,,,,,,,,,,,,,,,,,,,,,,,,,,,,,,,,,
,,60de7deffb38fe0ad1684964,2023-12-06_23h17.11.590,kallum_motion_pilot,2023.2.3,Win32,60.0024001,60de7deffb38fe0ad1684964,6560176e4d91f764e2a42c74,657158be5fb55eb8ed8fd23a,0.1338,0.1339,0,161,161,3,1,twofour,,,,,,,,,,,,,,,,,,,,,,,,,,,,,,,,,,,,,,,,,,,,,,,,,,,,,,,,,,,,,,,,,,,,,,,,,,,,,,,,,,,,,,,,,,,,,,,,,,,,,,,,,,,,,,,,,,,,,,,,,,,,,,,,,,,,,,,
,,60de7deffb38fe0ad1684964,2023-12-06_23h17.11.590,kallum_motion_pilot,2023.2.3,Win32,60.0024001,60de7deffb38fe0ad1684964,6560176e4d91f764e2a42c74,657158be5fb55eb8ed8fd23a,0.1342,0.136,1,0,162,147,1,sixeight,,,,,,,,,,,,,,,,,,,,,,,,,,,,,,,,,,,,,,,,,,,,,,,,,,,,,,,,,,,,,,,,,,,,,,,,,,,,,,,,,,,,,,,,,,,,,,,,,,,,,,,,,,,,,,,,,,,,,,,,,,,,,,,,,,,,,,,
,,60de7deffb38fe0ad1684964,2023-12-06_23h17.11.590,kallum_motion_pilot,2023.2.3,Win32,60.0024001,60de7deffb38fe0ad1684964,6560176e4d91f764e2a42c74,657158be5fb55eb8ed8fd23a,0.1363,0.1365,1,1,163,134,1,eightsix,,,,,,,,,,,,,,,,,,,,,,,,,,,,,,,,,,,,,,,,,,,,,,,,,,,,,,,,,,,,,,,,,,,,,,,,,,,,,,,,,,,,,,,,,,,,,,,,,,,,,,,,,,,,,,,,,,,,,,,,,,,,,,,,,,,,,,,
,,60de7deffb38fe0ad1684964,2023-12-06_23h17.11.590,kallum_motion_pilot,2023.2.3,Win32,60.0024001,60de7deffb38fe0ad1684964,6560176e4d91f764e2a42c74,657158be5fb55eb8ed8fd23a,0.1369,0.137,1,2,164,33,1,onethree,,,,,,,,,,,,,,,,,,,,,,,,,,,,,,,,,,,,,,,,,,,,,,,,,,,,,,,,,,,,,,,,,,,,,,,,,,,,,,,,,,,,,,,,,,,,,,,,,,,,,,,,,,,,,,,,,,,,,,,,,,,,,,,,,,,,,,,
,,60de7deffb38fe0ad1684964,2023-12-06_23h17.11.590,kallum_motion_pilot,2023.2.3,Win32,60.0024001,60de7deffb38fe0ad1684964,6560176e4d91f764e2a42c74,657158be5fb55eb8ed8fd23a,0.1372,0.1375,1,3,165,75,1,twofour,,,,,,,,,,,,,,,,,,,,,,,,,,,,,,,,,,,,,,,,,,,,,,,,,,,,,,,,,,,,,,,,,,,,,,,,,,,,,,,,,,,,,,,,,,,,,,,,,,,,,,,,,,,,,,,,,,,,,,,,,,,,,,,,,,,,,,,
,,60de7deffb38fe0ad1684964,2023-12-06_23h17.11.590,kallum_motion_pilot,2023.2.3,Win32,60.0024001,60de7deffb38fe0ad1684964,6560176e4d91f764e2a42c74,657158be5fb55eb8ed8fd23a,0.1378,0.138,1,4,166,153,1,fiveseven,,,,,,,,,,,,,,,,,,,,,,,,,,,,,,,,,,,,,,,,,,,,,,,,,,,,,,,,,,,,,,,,,,,,,,,,,,,,,,,,,,,,,,,,,,,,,,,,,,,,,,,,,,,,,,,,,,,,,,,,,,,,,,,,,,,,,,,
,,60de7deffb38fe0ad1684964,2023-12-06_23h17.11.590,kallum_motion_pilot,2023.2.3,Win32,60.0024001,60de7deffb38fe0ad1684964,6560176e4d91f764e2a42c74,657158be5fb55eb8ed8fd23a,0.1382,0.1383,1,5,167,3,1,twofour,,,,,,,,,,,,,,,,,,,,,,,,,,,,,,,,,,,,,,,,,,,,,,,,,,,,,,,,,,,,,,,,,,,,,,,,,,,,,,,,,,,,,,,,,,,,,,,,,,,,,,,,,,,,,,,,,,,,,,,,,,,,,,,,,,,,,,,
,,60de7deffb38fe0ad1684964,2023-12-06_23h17.11.590,kallum_motion_pilot,2023.2.3,Win32,60.0024001,60de7deffb38fe0ad1684964,6560176e4d91f764e2a42c74,657158be5fb55eb8ed8fd23a,0.1386,0.1387,1,6,168,108,1,sevenfive,,,,,,,,,,,,,,,,,,,,,,,,,,,,,,,,,,,,,,,,,,,,,,,,,,,,,,,,,,,,,,,,,,,,,,,,,,,,,,,,,,,,,,,,,,,,,,,,,,,,,,,,,,,,,,,,,,,,,,,,,,,,,,,,,,,,,,,
,,60de7deffb38fe0ad1684964,2023-12-06_23h17.11.590,kallum_motion_pilot,2023.2.3,Win32,60.0024001,60de7deffb38fe0ad1684964,6560176e4d91f764e2a42c74,657158be5fb55eb8ed8fd23a,0.139,0.1392,1,7,169,73,1,onethree,,,,,,,,,,,,,,,,,,,,,,,,,,,,,,,,,,,,,,,,,,,,,,,,,,,,,,,,,,,,,,,,,,,,,,,,,,,,,,,,,,,,,,,,,,,,,,,,,,,,,,,,,,,,,,,,,,,,,,,,,,,,,,,,,,,,,,,
,,60de7deffb38fe0ad1684964,2023-12-06_23h17.11.590,kallum_motion_pilot,2023.2.3,Win32,60.0024001,60de7deffb38fe0ad1684964,6560176e4d91f764e2a42c74,657158be5fb55eb8ed8fd23a,0.1393,0.1396,1,8,170,53,1,threefour,,,,,,,,,,,,,,,,,,,,,,,,,,,,,,,,,,,,,,,,,,,,,,,,,,,,,,,,,,,,,,,,,,,,,,,,,,,,,,,,,,,,,,,,,,,,,,,,,,,,,,,,,,,,,,,,,,,,,,,,,,,,,,,,,,,,,,,
,,60de7deffb38fe0ad1684964,2023-12-06_23h17.11.590,kallum_motion_pilot,2023.2.3,Win32,60.0024001,60de7deffb38fe0ad1684964,6560176e4d91f764e2a42c74,657158be5fb55eb8ed8fd23a,0.1398,0.1399,1,9,171,123,1,sixeight,,,,,,,,,,,,,,,,,,,,,,,,,,,,,,,,,,,,,,,,,,,,,,,,,,,,,,,,,,,,,,,,,,,,,,,,,,,,,,,,,,,,,,,,,,,,,,,,,,,,,,,,,,,,,,,,,,,,,,,,,,,,,,,,,,,,,,,
,,60de7deffb38fe0ad1684964,2023-12-06_23h17.11.590,kallum_motion_pilot,2023.2.3,Win32,60.0024001,60de7deffb38fe0ad1684964,6560176e4d91f764e2a42c74,657158be5fb55eb8ed8fd23a,0.1402,0.1404,1,10,172,115,1,sixeight,,,,,,,,,,,,,,,,,,,,,,,,,,,,,,,,,,,,,,,,,,,,,,,,,,,,,,,,,,,,,,,,,,,,,,,,,,,,,,,,,,,,,,,,,,,,,,,,,,,,,,,,,,,,,,,,,,,,,,,,,,,,,,,,,,,,,,,
,,60de7deffb38fe0ad1684964,2023-12-06_23h17.11.590,kallum_motion_pilot,2023.2.3,Win32,60.0024001,60de7deffb38fe0ad1684964,6560176e4d91f764e2a42c74,657158be5fb55eb8ed8fd23a,0.1406,0.1407,1,11,173,150,1,eightsix,,,,,,,,,,,,,,,,,,,,,,,,,,,,,,,,,,,,,,,,,,,,,,,,,,,,,,,,,,,,,,,,,,,,,,,,,,,,,,,,,,,,,,,,,,,,,,,,,,,,,,,,,,,,,,,,,,,,,,,,,,,,,,,,,,,,,,,
,,60de7deffb38fe0ad1684964,2023-12-06_23h17.11.590,kallum_motion_pilot,2023.2.3,Win32,60.0024001,60de7deffb38fe0ad1684964,6560176e4d91f764e2a42c74,657158be5fb55eb8ed8fd23a,0.1409,0.1411,1,12,174,85,1,seveneight,,,,,,,,,,,,,,,,,,,,,,,,,,,,,,,,,,,,,,,,,,,,,,,,,,,,,,,,,,,,,,,,,,,,,,,,,,,,,,,,,,,,,,,,,,,,,,,,,,,,,,,,,,,,,,,,,,,,,,,,,,,,,,,,,,,,,,,
,,60de7deffb38fe0ad1684964,2023-12-06_23h17.11.590,kallum_motion_pilot,2023.2.3,Win32,60.0024001,60de7deffb38fe0ad1684964,6560176e4d91f764e2a42c74,657158be5fb55eb8ed8fd23a,0.1413,0.1414,1,13,175,67,1,twofour,,,,,,,,,,,,,,,,,,,,,,,,,,,,,,,,,,,,,,,,,,,,,,,,,,,,,,,,,,,,,,,,,,,,,,,,,,,,,,,,,,,,,,,,,,,,,,,,,,,,,,,,,,,,,,,,,,,,,,,,,,,,,,,,,,,,,,,
,,60de7deffb38fe0ad1684964,2023-12-06_23h17.11.590,kallum_motion_pilot,2023.2.3,Win32,60.0024001,60de7deffb38fe0ad1684964,6560176e4d91f764e2a42c74,657158be5fb55eb8ed8fd23a,0.1416,0.1418,1,14,176,137,1,fiveseven,,,,,,,,,,,,,,,,,,,,,,,,,,,,,,,,,,,,,,,,,,,,,,,,,,,,,,,,,,,,,,,,,,,,,,,,,,,,,,,,,,,,,,,,,,,,,,,,,,,,,,,,,,,,,,,,,,,,,,,,,,,,,,,,,,,,,,,
,,60de7deffb38fe0ad1684964,2023-12-06_23h17.11.590,kallum_motion_pilot,2023.2.3,Win32,60.0024001,60de7deffb38fe0ad1684964,6560176e4d91f764e2a42c74,657158be5fb55eb8ed8fd23a,0.142,0.1423,1,15,177,90,1,sixfive,,,,,,,,,,,,,,,,,,,,,,,,,,,,,,,,,,,,,,,,,,,,,,,,,,,,,,,,,,,,,,,,,,,,,,,,,,,,,,,,,,,,,,,,,,,,,,,,,,,,,,,,,,,,,,,,,,,,,,,,,,,,,,,,,,,,,,,
,,60de7deffb38fe0ad1684964,2023-12-06_23h17.11.590,kallum_motion_pilot,2023.2.3,Win32,60.0024001,60de7deffb38fe0ad1684964,6560176e4d91f764e2a42c74,657158be5fb55eb8ed8fd23a,0.1425,0.1428,1,16,178,132,1,sevenfive,,,,,,,,,,,,,,,,,,,,,,,,,,,,,,,,,,,,,,,,,,,,,,,,,,,,,,,,,,,,,,,,,,,,,,,,,,,,,,,,,,,,,,,,,,,,,,,,,,,,,,,,,,,,,,,,,,,,,,,,,,,,,,,,,,,,,,,
,,60de7deffb38fe0ad1684964,2023-12-06_23h17.11.590,kallum_motion_pilot,2023.2.3,Win32,60.0024001,60de7deffb38fe0ad1684964,6560176e4d91f764e2a42c74,657158be5fb55eb8ed8fd23a,0.1433,0.1434,1,17,179,144,1,fivesix,,,,,,,,,,,,,,,,,,,,,,,,,,,,,,,,,,,,,,,,,,,,,,,,,,,,,,,,,,,,,,,,,,,,,,,,,,,,,,,,,,,,,,,,,,,,,,,,,,,,,,,,,,,,,,,,,,,,,,,,,,,,,,,,,,,,,,,
,,60de7deffb38fe0ad1684964,2023-12-06_23h17.11.590,kallum_motion_pilot,2023.2.3,Win32,60.0024001,60de7deffb38fe0ad1684964,6560176e4d91f764e2a42c74,657158be5fb55eb8ed8fd23a,0.1437,0.1439,1,18,180,22,1,fourtwo,,,,,,,,,,,,,,,,,,,,,,,,,,,,,,,,,,,,,,,,,,,,,,,,,,,,,,,,,,,,,,,,,,,,,,,,,,,,,,,,,,,,,,,,,,,,,,,,,,,,,,,,,,,,,,,,,,,,,,,,,,,,,,,,,,,,,,,
,,60de7deffb38fe0ad1684964,2023-12-06_23h17.11.590,kallum_motion_pilot,2023.2.3,Win32,60.0024001,60de7deffb38fe0ad1684964,6560176e4d91f764e2a42c74,657158be5fb55eb8ed8fd23a,0.1441,0.1443,1,19,181,49,1,onethree,,,,,,,,,,,,,,,,,,,,,,,,,,,,,,,,,,,,,,,,,,,,,,,,,,,,,,,,,,,,,,,,,,,,,,,,,,,,,,,,,,,,,,,,,,,,,,,,,,,,,,,,,,,,,,,,,,,,,,,,,,,,,,,,,,,,,,,
,,60de7deffb38fe0ad1684964,2023-12-06_23h17.11.590,kallum_motion_pilot,2023.2.3,Win32,60.0024001,60de7deffb38fe0ad1684964,6560176e4d91f764e2a42c74,657158be5fb55eb8ed8fd23a,0.1447,0.145,1,20,182,48,1,onetwo,,,,,,,,,,,,,,,,,,,,,,,,,,,,,,,,,,,,,,,,,,,,,,,,,,,,,,,,,,,,,,,,,,,,,,,,,,,,,,,,,,,,,,,,,,,,,,,,,,,,,,,,,,,,,,,,,,,,,,,,,,,,,,,,,,,,,,,
,,60de7deffb38fe0ad1684964,2023-12-06_23h17.11.590,kallum_motion_pilot,2023.2.3,Win32,60.0024001,60de7deffb38fe0ad1684964,6560176e4d91f764e2a42c74,657158be5fb55eb8ed8fd23a,0.1452,0.1454,1,21,183,26,1,twoone,,,,,,,,,,,,,,,,,,,,,,,,,,,,,,,,,,,,,,,,,,,,,,,,,,,,,,,,,,,,,,,,,,,,,,,,,,,,,,,,,,,,,,,,,,,,,,,,,,,,,,,,,,,,,,,,,,,,,,,,,,,,,,,,,,,,,,,
,,60de7deffb38fe0ad1684964,2023-12-06_23h17.11.590,kallum_motion_pilot,2023.2.3,Win32,60.0024001,60de7deffb38fe0ad1684964,6560176e4d91f764e2a42c74,657158be5fb55eb8ed8fd23a,0.1458,0.146,1,22,184,93,1,seveneight,,,,,,,,,,,,,,,,,,,,,,,,,,,,,,,,,,,,,,,,,,,,,,,,,,,,,,,,,,,,,,,,,,,,,,,,,,,,,,,,,,,,,,,,,,,,,,,,,,,,,,,,,,,,,,,,,,,,,,,,,,,,,,,,,,,,,,,
,,60de7deffb38fe0ad1684964,2023-12-06_23h17.11.590,kallum_motion_pilot,2023.2.3,Win32,60.0024001,60de7deffb38fe0ad1684964,6560176e4d91f764e2a42c74,657158be5fb55eb8ed8fd23a,0.1462,0.1464,1,23,185,56,1,onetwo,,,,,,,,,,,,,,,,,,,,,,,,,,,,,,,,,,,,,,,,,,,,,,,,,,,,,,,,,,,,,,,,,,,,,,,,,,,,,,,,,,,,,,,,,,,,,,,,,,,,,,,,,,,,,,,,,,,,,,,,,,,,,,,,,,,,,,,
,,60de7deffb38fe0ad1684964,2023-12-06_23h17.11.590,kallum_motion_pilot,2023.2.3,Win32,60.0024001,60de7deffb38fe0ad1684964,6560176e4d91f764e2a42c74,657158be5fb55eb8ed8fd23a,0.1466,0.1468,1,24,186,109,1,seveneight,,,,,,,,,,,,,,,,,,,,,,,,,,,,,,,,,,,,,,,,,,,,,,,,,,,,,,,,,,,,,,,,,,,,,,,,,,,,,,,,,,,,,,,,,,,,,,,,,,,,,,,,,,,,,,,,,,,,,,,,,,,,,,,,,,,,,,,
,,60de7deffb38fe0ad1684964,2023-12-06_23h17.11.590,kallum_motion_pilot,2023.2.3,Win32,60.0024001,60de7deffb38fe0ad1684964,6560176e4d91f764e2a42c74,657158be5fb55eb8ed8fd23a,0.147,0.1472,1,25,187,16,1,onetwo,,,,,,,,,,,,,,,,,,,,,,,,,,,,,,,,,,,,,,,,,,,,,,,,,,,,,,,,,,,,,,,,,,,,,,,,,,,,,,,,,,,,,,,,,,,,,,,,,,,,,,,,,,,,,,,,,,,,,,,,,,,,,,,,,,,,,,,
,,60de7deffb38fe0ad1684964,2023-12-06_23h17.11.590,kallum_motion_pilot,2023.2.3,Win32,60.0024001,60de7deffb38fe0ad1684964,6560176e4d91f764e2a42c74,657158be5fb55eb8ed8fd23a,0.1474,0.1475,1,26,188,159,1,eightseven,,,,,,,,,,,,,,,,,,,,,,,,,,,,,,,,,,,,,,,,,,,,,,,,,,,,,,,,,,,,,,,,,,,,,,,,,,,,,,,,,,,,,,,,,,,,,,,,,,,,,,,,,,,,,,,,,,,,,,,,,,,,,,,,,,,,,,,
,,60de7deffb38fe0ad1684964,2023-12-06_23h17.11.590,kallum_motion_pilot,2023.2.3,Win32,60.0024001,60de7deffb38fe0ad1684964,6560176e4d91f764e2a42c74,657158be5fb55eb8ed8fd23a,0.1478,0.148,1,27,189,17,1,onethree,,,,,,,,,,,,,,,,,,,,,,,,,,,,,,,,,,,,,,,,,,,,,,,,,,,,,,,,,,,,,,,,,,,,,,,,,,,,,,,,,,,,,,,,,,,,,,,,,,,,,,,,,,,,,,,,,,,,,,,,,,,,,,,,,,,,,,,
,,60de7deffb38fe0ad1684964,2023-12-06_23h17.11.590,kallum_motion_pilot,2023.2.3,Win32,60.0024001,60de7deffb38fe0ad1684964,6560176e4d91f764e2a42c74,657158be5fb55eb8ed8fd23a,0.1482,0.1483,1,28,190,131,1,sixeight,,,,,,,,,,,,,,,,,,,,,,,,,,,,,,,,,,,,,,,,,,,,,,,,,,,,,,,,,,,,,,,,,,,,,,,,,,,,,,,,,,,,,,,,,,,,,,,,,,,,,,,,,,,,,,,,,,,,,,,,,,,,,,,,,,,,,,,
,,60de7deffb38fe0ad1684964,2023-12-06_23h17.11.590,kallum_motion_pilot,2023.2.3,Win32,60.0024001,60de7deffb38fe0ad1684964,6560176e4d91f764e2a42c74,657158be5fb55eb8ed8fd23a,0.1486,0.1488,1,29,191,41,1,onethree,,,,,,,,,,,,,,,,,,,,,,,,,,,,,,,,,,,,,,,,,,,,,,,,,,,,,,,,,,,,,,,,,,,,,,,,,,,,,,,,,,,,,,,,,,,,,,,,,,,,,,,,,,,,,,,,,,,,,,,,,,,,,,,,,,,,,,,
,,60de7deffb38fe0ad1684964,2023-12-06_23h17.11.590,kallum_motion_pilot,2023.2.3,Win32,60.0024001,60de7deffb38fe0ad1684964,6560176e4d91f764e2a42c74,657158be5fb55eb8ed8fd23a,0.149,0.1493,1,30,192,82,1,sixfive,,,,,,,,,,,,,,,,,,,,,,,,,,,,,,,,,,,,,,,,,,,,,,,,,,,,,,,,,,,,,,,,,,,,,,,,,,,,,,,,,,,,,,,,,,,,,,,,,,,,,,,,,,,,,,,,,,,,,,,,,,,,,,,,,,,,,,,
,,60de7deffb38fe0ad1684964,2023-12-06_23h17.11.590,kallum_motion_pilot,2023.2.3,Win32,60.0024001,60de7deffb38fe0ad1684964,6560176e4d91f764e2a42c74,657158be5fb55eb8ed8fd23a,0.1497,0.1499,1,31,193,11,1,twofour,,,,,,,,,,,,,,,,,,,,,,,,,,,,,,,,,,,,,,,,,,,,,,,,,,,,,,,,,,,,,,,,,,,,,,,,,,,,,,,,,,,,,,,,,,,,,,,,,,,,,,,,,,,,,,,,,,,,,,,,,,,,,,,,,,,,,,,
,,60de7deffb38fe0ad1684964,2023-12-06_23h17.11.590,kallum_motion_pilot,2023.2.3,Win32,60.0024001,60de7deffb38fe0ad1684964,6560176e4d91f764e2a42c74,657158be5fb55eb8ed8fd23a,0.1501,0.1503,1,32,194,120,1,fivesix,,,,,,,,,,,,,,,,,,,,,,,,,,,,,,,,,,,,,,,,,,,,,,,,,,,,,,,,,,,,,,,,,,,,,,,,,,,,,,,,,,,,,,,,,,,,,,,,,,,,,,,,,,,,,,,,,,,,,,,,,,,,,,,,,,,,,,,
,,60de7deffb38fe0ad1684964,2023-12-06_23h17.11.590,kallum_motion_pilot,2023.2.3,Win32,60.0024001,60de7deffb38fe0ad1684964,6560176e4d91f764e2a42c74,657158be5fb55eb8ed8fd23a,0.1505,0.1507,1,33,195,101,1,seveneight,,,,,,,,,,,,,,,,,,,,,,,,,,,,,,,,,,,,,,,,,,,,,,,,,,,,,,,,,,,,,,,,,,,,,,,,,,,,,,,,,,,,,,,,,,,,,,,,,,,,,,,,,,,,,,,,,,,,,,,,,,,,,,,,,,,,,,,
,,60de7deffb38fe0ad1684964,2023-12-06_23h17.11.590,kallum_motion_pilot,2023.2.3,Win32,60.0024001,60de7deffb38fe0ad1684964,6560176e4d91f764e2a42c74,657158be5fb55eb8ed8fd23a,0.1509,0.1511,1,34,196,87,1,eightseven,,,,,,,,,,,,,,,,,,,,,,,,,,,,,,,,,,,,,,,,,,,,,,,,,,,,,,,,,,,,,,,,,,,,,,,,,,,,,,,,,,,,,,,,,,,,,,,,,,,,,,,,,,,,,,,,,,,,,,,,,,,,,,,,,,,,,,,
,,60de7deffb38fe0ad1684964,2023-12-06_23h17.11.590,kallum_motion_pilot,2023.2.3,Win32,60.0024001,60de7deffb38fe0ad1684964,6560176e4d91f764e2a42c74,657158be5fb55eb8ed8fd23a,0.1512,0.1515,1,35,197,34,1,twoone,,,,,,,,,,,,,,,,,,,,,,,,,,,,,,,,,,,,,,,,,,,,,,,,,,,,,,,,,,,,,,,,,,,,,,,,,,,,,,,,,,,,,,,,,,,,,,,,,,,,,,,,,,,,,,,,,,,,,,,,,,,,,,,,,,,,,,,
,,60de7deffb38fe0ad1684964,2023-12-06_23h17.11.590,kallum_motion_pilot,2023.2.3,Win32,60.0024001,60de7deffb38fe0ad1684964,6560176e4d91f764e2a42c74,657158be5fb55eb8ed8fd23a,0.1516,0.1518,1,36,198,149,1,seveneight,,,,,,,,,,,,,,,,,,,,,,,,,,,,,,,,,,,,,,,,,,,,,,,,,,,,,,,,,,,,,,,,,,,,,,,,,,,,,,,,,,,,,,,,,,,,,,,,,,,,,,,,,,,,,,,,,,,,,,,,,,,,,,,,,,,,,,,
,,60de7deffb38fe0ad1684964,2023-12-06_23h17.11.590,kallum_motion_pilot,2023.2.3,Win32,60.0024001,60de7deffb38fe0ad1684964,6560176e4d91f764e2a42c74,657158be5fb55eb8ed8fd23a,0.152,0.1521,1,37,199,45,1,threefour,,,,,,,,,,,,,,,,,,,,,,,,,,,,,,,,,,,,,,,,,,,,,,,,,,,,,,,,,,,,,,,,,,,,,,,,,,,,,,,,,,,,,,,,,,,,,,,,,,,,,,,,,,,,,,,,,,,,,,,,,,,,,,,,,,,,,,,
,,60de7deffb38fe0ad1684964,2023-12-06_23h17.11.590,kallum_motion_pilot,2023.2.3,Win32,60.0024001,60de7deffb38fe0ad1684964,6560176e4d91f764e2a42c74,657158be5fb55eb8ed8fd23a,0.1523,0.1525,1,38,200,12,1,threeone,,,,,,,,,,,,,,,,,,,,,,,,,,,,,,,,,,,,,,,,,,,,,,,,,,,,,,,,,,,,,,,,,,,,,,,,,,,,,,,,,,,,,,,,,,,,,,,,,,,,,,,,,,,,,,,,,,,,,,,,,,,,,,,,,,,,,,,
,,60de7deffb38fe0ad1684964,2023-12-06_23h17.11.590,kallum_motion_pilot,2023.2.3,Win32,60.0024001,60de7deffb38fe0ad1684964,6560176e4d91f764e2a42c74,657158be5fb55eb8ed8fd23a,0.1527,0.153,1,39,201,136,1,fivesix,,,,,,,,,,,,,,,,,,,,,,,,,,,,,,,,,,,,,,,,,,,,,,,,,,,,,,,,,,,,,,,,,,,,,,,,,,,,,,,,,,,,,,,,,,,,,,,,,,,,,,,,,,,,,,,,,,,,,,,,,,,,,,,,,,,,,,,
,,60de7deffb38fe0ad1684964,2023-12-06_23h17.11.590,kallum_motion_pilot,2023.2.3,Win32,60.0024001,60de7deffb38fe0ad1684964,6560176e4d91f764e2a42c74,657158be5fb55eb8ed8fd23a,0.1533,0.1535,1,40,202,2,1,twoone,,,,,,,,,,,,,,,,,,,,,,,,,,,,,,,,,,,,,,,,,,,,,,,,,,,,,,,,,,,,,,,,,,,,,,,,,,,,,,,,,,,,,,,,,,,,,,,,,,,,,,,,,,,,,,,,,,,,,,,,,,,,,,,,,,,,,,,
,,60de7deffb38fe0ad1684964,2023-12-06_23h17.11.590,kallum_motion_pilot,2023.2.3,Win32,60.0024001,60de7deffb38fe0ad1684964,6560176e4d91f764e2a42c74,657158be5fb55eb8ed8fd23a,0.1536,0.1538,1,41,203,61,1,threefour,,,,,,,,,,,,,,,,,,,,,,,,,,,,,,,,,,,,,,,,,,,,,,,,,,,,,,,,,,,,,,,,,,,,,,,,,,,,,,,,,,,,,,,,,,,,,,,,,,,,,,,,,,,,,,,,,,,,,,,,,,,,,,,,,,,,,,,
,,60de7deffb38fe0ad1684964,2023-12-06_23h17.11.590,kallum_motion_pilot,2023.2.3,Win32,60.0024001,60de7deffb38fe0ad1684964,6560176e4d91f764e2a42c74,657158be5fb55eb8ed8fd23a,0.154,0.1542,1,42,204,122,1,sixfive,,,,,,,,,,,,,,,,,,,,,,,,,,,,,,,,,,,,,,,,,,,,,,,,,,,,,,,,,,,,,,,,,,,,,,,,,,,,,,,,,,,,,,,,,,,,,,,,,,,,,,,,,,,,,,,,,,,,,,,,,,,,,,,,,,,,,,,
,,60de7deffb38fe0ad1684964,2023-12-06_23h17.11.590,kallum_motion_pilot,2023.2.3,Win32,60.0024001,60de7deffb38fe0ad1684964,6560176e4d91f764e2a42c74,657158be5fb55eb8ed8fd23a,0.1544,0.1546,1,43,205,10,1,twoone,,,,,,,,,,,,,,,,,,,,,,,,,,,,,,,,,,,,,,,,,,,,,,,,,,,,,,,,,,,,,,,,,,,,,,,,,,,,,,,,,,,,,,,,,,,,,,,,,,,,,,,,,,,,,,,,,,,,,,,,,,,,,,,,,,,,,,,
,,60de7deffb38fe0ad1684964,2023-12-06_23h17.11.590,kallum_motion_pilot,2023.2.3,Win32,60.0024001,60de7deffb38fe0ad1684964,6560176e4d91f764e2a42c74,657158be5fb55eb8ed8fd23a,0.1548,0.1549,1,44,206,92,1,sevenfive,,,,,,,,,,,,,,,,,,,,,,,,,,,,,,,,,,,,,,,,,,,,,,,,,,,,,,,,,,,,,,,,,,,,,,,,,,,,,,,,,,,,,,,,,,,,,,,,,,,,,,,,,,,,,,,,,,,,,,,,,,,,,,,,,,,,,,,
,,60de7deffb38fe0ad1684964,2023-12-06_23h17.11.590,kallum_motion_pilot,2023.2.3,Win32,60.0024001,60de7deffb38fe0ad1684964,6560176e4d91f764e2a42c74,657158be5fb55eb8ed8fd23a,0.1552,0.1554,1,45,207,31,1,fourthree,,,,,,,,,,,,,,,,,,,,,,,,,,,,,,,,,,,,,,,,,,,,,,,,,,,,,,,,,,,,,,,,,,,,,,,,,,,,,,,,,,,,,,,,,,,,,,,,,,,,,,,,,,,,,,,,,,,,,,,,,,,,,,,,,,,,,,,
,,60de7deffb38fe0ad1684964,2023-12-06_23h17.11.590,kallum_motion_pilot,2023.2.3,Win32,60.0024001,60de7deffb38fe0ad1684964,6560176e4d91f764e2a42c74,657158be5fb55eb8ed8fd23a,0.1557,0.1559,1,46,208,70,1,fourtwo,,,,,,,,,,,,,,,,,,,,,,,,,,,,,,,,,,,,,,,,,,,,,,,,,,,,,,,,,,,,,,,,,,,,,,,,,,,,,,,,,,,,,,,,,,,,,,,,,,,,,,,,,,,,,,,,,,,,,,,,,,,,,,,,,,,,,,,
,,60de7deffb38fe0ad1684964,2023-12-06_23h17.11.590,kallum_motion_pilot,2023.2.3,Win32,60.0024001,60de7deffb38fe0ad1684964,6560176e4d91f764e2a42c74,657158be5fb55eb8ed8fd23a,0.1561,0.1563,1,47,209,125,1,seveneight,,,,,,,,,,,,,,,,,,,,,,,,,,,,,,,,,,,,,,,,,,,,,,,,,,,,,,,,,,,,,,,,,,,,,,,,,,,,,,,,,,,,,,,,,,,,,,,,,,,,,,,,,,,,,,,,,,,,,,,,,,,,,,,,,,,,,,,
,,60de7deffb38fe0ad1684964,2023-12-06_23h17.11.590,kallum_motion_pilot,2023.2.3,Win32,60.0024001,60de7deffb38fe0ad1684964,6560176e4d91f764e2a42c74,657158be5fb55eb8ed8fd23a,0.1565,0.1567,1,48,210,110,1,eightsix,,,,,,,,,,,,,,,,,,,,,,,,,,,,,,,,,,,,,,,,,,,,,,,,,,,,,,,,,,,,,,,,,,,,,,,,,,,,,,,,,,,,,,,,,,,,,,,,,,,,,,,,,,,,,,,,,,,,,,,,,,,,,,,,,,,,,,,
,,60de7deffb38fe0ad1684964,2023-12-06_23h17.11.590,kallum_motion_pilot,2023.2.3,Win32,60.0024001,60de7deffb38fe0ad1684964,6560176e4d91f764e2a42c74,657158be5fb55eb8ed8fd23a,0.1569,0.1572,1,49,211,1,1,onethree,,,,,,,,,,,,,,,,,,,,,,,,,,,,,,,,,,,,,,,,,,,,,,,,,,,,,,,,,,,,,,,,,,,,,,,,,,,,,,,,,,,,,,,,,,,,,,,,,,,,,,,,,,,,,,,,,,,,,,,,,,,,,,,,,,,,,,,
,,60de7deffb38fe0ad1684964,2023-12-06_23h17.11.590,kallum_motion_pilot,2023.2.3,Win32,60.0024001,60de7deffb38fe0ad1684964,6560176e4d91f764e2a42c74,657158be5fb55eb8ed8fd23a,0.1573,0.1575,1,50,212,36,1,threeone,,,,,,,,,,,,,,,,,,,,,,,,,,,,,,,,,,,,,,,,,,,,,,,,,,,,,,,,,,,,,,,,,,,,,,,,,,,,,,,,,,,,,,,,,,,,,,,,,,,,,,,,,,,,,,,,,,,,,,,,,,,,,,,,,,,,,,,
,,60de7deffb38fe0ad1684964,2023-12-06_23h17.11.590,kallum_motion_pilot,2023.2.3,Win32,60.0024001,60de7deffb38fe0ad1684964,6560176e4d91f764e2a42c74,657158be5fb55eb8ed8fd23a,0.1576,0.1579,1,51,213,146,1,sixfive,,,,,,,,,,,,,,,,,,,,,,,,,,,,,,,,,,,,,,,,,,,,,,,,,,,,,,,,,,,,,,,,,,,,,,,,,,,,,,,,,,,,,,,,,,,,,,,,,,,,,,,,,,,,,,,,,,,,,,,,,,,,,,,,,,,,,,,
,,60de7deffb38fe0ad1684964,2023-12-06_23h17.11.590,kallum_motion_pilot,2023.2.3,Win32,60.0024001,60de7deffb38fe0ad1684964,6560176e4d91f764e2a42c74,657158be5fb55eb8ed8fd23a,0.1582,0.1584,1,52,214,66,1,twoone,,,,,,,,,,,,,,,,,,,,,,,,,,,,,,,,,,,,,,,,,,,,,,,,,,,,,,,,,,,,,,,,,,,,,,,,,,,,,,,,,,,,,,,,,,,,,,,,,,,,,,,,,,,,,,,,,,,,,,,,,,,,,,,,,,,,,,,
,,60de7deffb38fe0ad1684964,2023-12-06_23h17.11.590,kallum_motion_pilot,2023.2.3,Win32,60.0024001,60de7deffb38fe0ad1684964,6560176e4d91f764e2a42c74,657158be5fb55eb8ed8fd23a,0.1586,0.1588,1,53,215,35,1,twofour,,,,,,,,,,,,,,,,,,,,,,,,,,,,,,,,,,,,,,,,,,,,,,,,,,,,,,,,,,,,,,,,,,,,,,,,,,,,,,,,,,,,,,,,,,,,,,,,,,,,,,,,,,,,,,,,,,,,,,,,,,,,,,,,,,,,,,,
,,60de7deffb38fe0ad1684964,2023-12-06_23h17.11.590,kallum_motion_pilot,2023.2.3,Win32,60.0024001,60de7deffb38fe0ad1684964,6560176e4d91f764e2a42c74,657158be5fb55eb8ed8fd23a,0.1591,0.1592,1,54,216,86,1,eightsix,,,,,,,,,,,,,,,,,,,,,,,,,,,,,,,,,,,,,,,,,,,,,,,,,,,,,,,,,,,,,,,,,,,,,,,,,,,,,,,,,,,,,,,,,,,,,,,,,,,,,,,,,,,,,,,,,,,,,,,,,,,,,,,,,,,,,,,
,,60de7deffb38fe0ad1684964,2023-12-06_23h17.11.590,kallum_motion_pilot,2023.2.3,Win32,60.0024001,60de7deffb38fe0ad1684964,6560176e4d91f764e2a42c74,657158be5fb55eb8ed8fd23a,0.1595,0.1596,1,55,217,156,1,sevenfive,,,,,,,,,,,,,,,,,,,,,,,,,,,,,,,,,,,,,,,,,,,,,,,,,,,,,,,,,,,,,,,,,,,,,,,,,,,,,,,,,,,,,,,,,,,,,,,,,,,,,,,,,,,,,,,,,,,,,,,,,,,,,,,,,,,,,,,
,,60de7deffb38fe0ad1684964,2023-12-06_23h17.11.590,kallum_motion_pilot,2023.2.3,Win32,60.0024001,60de7deffb38fe0ad1684964,6560176e4d91f764e2a42c74,657158be5fb55eb8ed8fd23a,0.1598,0.1599,1,56,218,0,1,onetwo,,,,,,,,,,,,,,,,,,,,,,,,,,,,,,,,,,,,,,,,,,,,,,,,,,,,,,,,,,,,,,,,,,,,,,,,,,,,,,,,,,,,,,,,,,,,,,,,,,,,,,,,,,,,,,,,,,,,,,,,,,,,,,,,,,,,,,,
,,60de7deffb38fe0ad1684964,2023-12-06_23h17.11.590,kallum_motion_pilot,2023.2.3,Win32,60.0024001,60de7deffb38fe0ad1684964,6560176e4d91f764e2a42c74,657158be5fb55eb8ed8fd23a,0.1602,0.1604,1,57,219,102,1,eightsix,,,,,,,,,,,,,,,,,,,,,,,,,,,,,,,,,,,,,,,,,,,,,,,,,,,,,,,,,,,,,,,,,,,,,,,,,,,,,,,,,,,,,,,,,,,,,,,,,,,,,,,,,,,,,,,,,,,,,,,,,,,,,,,,,,,,,,,
,,60de7deffb38fe0ad1684964,2023-12-06_23h17.11.590,kallum_motion_pilot,2023.2.3,Win32,60.0024001,60de7deffb38fe0ad1684964,6560176e4d91f764e2a42c74,657158be5fb55eb8ed8fd23a,0.1606,0.1609,1,58,220,68,1,threeone,,,,,,,,,,,,,,,,,,,,,,,,,,,,,,,,,,,,,,,,,,,,,,,,,,,,,,,,,,,,,,,,,,,,,,,,,,,,,,,,,,,,,,,,,,,,,,,,,,,,,,,,,,,,,,,,,,,,,,,,,,,,,,,,,,,,,,,
,,60de7deffb38fe0ad1684964,2023-12-06_23h17.11.590,kallum_motion_pilot,2023.2.3,Win32,60.0024001,60de7deffb38fe0ad1684964,6560176e4d91f764e2a42c74,657158be5fb55eb8ed8fd23a,0.161,0.1612,1,59,221,8,1,onetwo,,,,,,,,,,,,,,,,,,,,,,,,,,,,,,,,,,,,,,,,,,,,,,,,,,,,,,,,,,,,,,,,,,,,,,,,,,,,,,,,,,,,,,,,,,,,,,,,,,,,,,,,,,,,,,,,,,,,,,,,,,,,,,,,,,,,,,,
,,60de7deffb38fe0ad1684964,2023-12-06_23h17.11.590,kallum_motion_pilot,2023.2.3,Win32,60.0024001,60de7deffb38fe0ad1684964,6560176e4d91f764e2a42c74,657158be5fb55eb8ed8fd23a,0.1618,0.162,1,60,222,133,1,seveneight,,,,,,,,,,,,,,,,,,,,,,,,,,,,,,,,,,,,,,,,,,,,,,,,,,,,,,,,,,,,,,,,,,,,,,,,,,,,,,,,,,,,,,,,,,,,,,,,,,,,,,,,,,,,,,,,,,,,,,,,,,,,,,,,,,,,,,,
,,60de7deffb38fe0ad1684964,2023-12-06_23h17.11.590,kallum_motion_pilot,2023.2.3,Win32,60.0024001,60de7deffb38fe0ad1684964,6560176e4d91f764e2a42c74,657158be5fb55eb8ed8fd23a,0.1625,0.1626,1,61,223,98,1,sixfive,,,,,,,,,,,,,,,,,,,,,,,,,,,,,,,,,,,,,,,,,,,,,,,,,,,,,,,,,,,,,,,,,,,,,,,,,,,,,,,,,,,,,,,,,,,,,,,,,,,,,,,,,,,,,,,,,,,,,,,,,,,,,,,,,,,,,,,
,,60de7deffb38fe0ad1684964,2023-12-06_23h17.11.590,kallum_motion_pilot,2023.2.3,Win32,60.0024001,60de7deffb38fe0ad1684964,6560176e4d91f764e2a42c74,657158be5fb55eb8ed8fd23a,0.1631,0.1634,1,62,224,23,1,fourthree,,,,,,,,,,,,,,,,,,,,,,,,,,,,,,,,,,,,,,,,,,,,,,,,,,,,,,,,,,,,,,,,,,,,,,,,,,,,,,,,,,,,,,,,,,,,,,,,,,,,,,,,,,,,,,,,,,,,,,,,,,,,,,,,,,,,,,,
,,60de7deffb38fe0ad1684964,2023-12-06_23h17.11.590,kallum_motion_pilot,2023.2.3,Win32,60.0024001,60de7deffb38fe0ad1684964,6560176e4d91f764e2a42c74,657158be5fb55eb8ed8fd23a,0.1637,0.1639,1,63,225,113,1,fiveseven,,,,,,,,,,,,,,,,,,,,,,,,,,,,,,,,,,,,,,,,,,,,,,,,,,,,,,,,,,,,,,,,,,,,,,,,,,,,,,,,,,,,,,,,,,,,,,,,,,,,,,,,,,,,,,,,,,,,,,,,,,,,,,,,,,,,,,,
,,60de7deffb38fe0ad1684964,2023-12-06_23h17.11.590,kallum_motion_pilot,2023.2.3,Win32,60.0024001,60de7deffb38fe0ad1684964,6560176e4d91f764e2a42c74,657158be5fb55eb8ed8fd23a,0.1642,0.1643,1,64,226,21,1,threefour,,,,,,,,,,,,,,,,,,,,,,,,,,,,,,,,,,,,,,,,,,,,,,,,,,,,,,,,,,,,,,,,,,,,,,,,,,,,,,,,,,,,,,,,,,,,,,,,,,,,,,,,,,,,,,,,,,,,,,,,,,,,,,,,,,,,,,,
,,60de7deffb38fe0ad1684964,2023-12-06_23h17.11.590,kallum_motion_pilot,2023.2.3,Win32,60.0024001,60de7deffb38fe0ad1684964,6560176e4d91f764e2a42c74,657158be5fb55eb8ed8fd23a,0.1646,0.1648,1,65,227,112,1,fivesix,,,,,,,,,,,,,,,,,,,,,,,,,,,,,,,,,,,,,,,,,,,,,,,,,,,,,,,,,,,,,,,,,,,,,,,,,,,,,,,,,,,,,,,,,,,,,,,,,,,,,,,,,,,,,,,,,,,,,,,,,,,,,,,,,,,,,,,
,,60de7deffb38fe0ad1684964,2023-12-06_23h17.11.590,kallum_motion_pilot,2023.2.3,Win32,60.0024001,60de7deffb38fe0ad1684964,6560176e4d91f764e2a42c74,657158be5fb55eb8ed8fd23a,0.1652,0.1654,1,66,228,63,1,fourthree,,,,,,,,,,,,,,,,,,,,,,,,,,,,,,,,,,,,,,,,,,,,,,,,,,,,,,,,,,,,,,,,,,,,,,,,,,,,,,,,,,,,,,,,,,,,,,,,,,,,,,,,,,,,,,,,,,,,,,,,,,,,,,,,,,,,,,,
,,60de7deffb38fe0ad1684964,2023-12-06_23h17.11.590,kallum_motion_pilot,2023.2.3,Win32,60.0024001,60de7deffb38fe0ad1684964,6560176e4d91f764e2a42c74,657158be5fb55eb8ed8fd23a,0.1657,0.1658,1,67,229,160,1,fivesix,,,,,,,,,,,,,,,,,,,,,,,,,,,,,,,,,,,,,,,,,,,,,,,,,,,,,,,,,,,,,,,,,,,,,,,,,,,,,,,,,,,,,,,,,,,,,,,,,,,,,,,,,,,,,,,,,,,,,,,,,,,,,,,,,,,,,,,
,,60de7deffb38fe0ad1684964,2023-12-06_23h17.11.590,kallum_motion_pilot,2023.2.3,Win32,60.0024001,60de7deffb38fe0ad1684964,6560176e4d91f764e2a42c74,657158be5fb55eb8ed8fd23a,0.166,0.1663,1,68,230,91,1,sixeight,,,,,,,,,,,,,,,,,,,,,,,,,,,,,,,,,,,,,,,,,,,,,,,,,,,,,,,,,,,,,,,,,,,,,,,,,,,,,,,,,,,,,,,,,,,,,,,,,,,,,,,,,,,,,,,,,,,,,,,,,,,,,,,,,,,,,,,
,,60de7deffb38fe0ad1684964,2023-12-06_23h17.11.590,kallum_motion_pilot,2023.2.3,Win32,60.0024001,60de7deffb38fe0ad1684964,6560176e4d91f764e2a42c74,657158be5fb55eb8ed8fd23a,0.1665,0.1667,1,69,231,118,1,eightsix,,,,,,,,,,,,,,,,,,,,,,,,,,,,,,,,,,,,,,,,,,,,,,,,,,,,,,,,,,,,,,,,,,,,,,,,,,,,,,,,,,,,,,,,,,,,,,,,,,,,,,,,,,,,,,,,,,,,,,,,,,,,,,,,,,,,,,,
,,60de7deffb38fe0ad1684964,2023-12-06_23h17.11.590,kallum_motion_pilot,2023.2.3,Win32,60.0024001,60de7deffb38fe0ad1684964,6560176e4d91f764e2a42c74,657158be5fb55eb8ed8fd23a,0.1669,0.1671,1,70,232,148,1,sevenfive,,,,,,,,,,,,,,,,,,,,,,,,,,,,,,,,,,,,,,,,,,,,,,,,,,,,,,,,,,,,,,,,,,,,,,,,,,,,,,,,,,,,,,,,,,,,,,,,,,,,,,,,,,,,,,,,,,,,,,,,,,,,,,,,,,,,,,,
,,60de7deffb38fe0ad1684964,2023-12-06_23h17.11.590,kallum_motion_pilot,2023.2.3,Win32,60.0024001,60de7deffb38fe0ad1684964,6560176e4d91f764e2a42c74,657158be5fb55eb8ed8fd23a,0.1672,0.1675,1,71,233,39,1,fourthree,,,,,,,,,,,,,,,,,,,,,,,,,,,,,,,,,,,,,,,,,,,,,,,,,,,,,,,,,,,,,,,,,,,,,,,,,,,,,,,,,,,,,,,,,,,,,,,,,,,,,,,,,,,,,,,,,,,,,,,,,,,,,,,,,,,,,,,
,,60de7deffb38fe0ad1684964,2023-12-06_23h17.11.590,kallum_motion_pilot,2023.2.3,Win32,60.0024001,60de7deffb38fe0ad1684964,6560176e4d91f764e2a42c74,657158be5fb55eb8ed8fd23a,0.1678,0.168,1,72,234,158,1,eightsix,,,,,,,,,,,,,,,,,,,,,,,,,,,,,,,,,,,,,,,,,,,,,,,,,,,,,,,,,,,,,,,,,,,,,,,,,,,,,,,,,,,,,,,,,,,,,,,,,,,,,,,,,,,,,,,,,,,,,,,,,,,,,,,,,,,,,,,
,,60de7deffb38fe0ad1684964,2023-12-06_23h17.11.590,kallum_motion_pilot,2023.2.3,Win32,60.0024001,60de7deffb38fe0ad1684964,6560176e4d91f764e2a42c74,657158be5fb55eb8ed8fd23a,0.1683,0.1686,1,73,235,135,1,eightseven,,,,,,,,,,,,,,,,,,,,,,,,,,,,,,,,,,,,,,,,,,,,,,,,,,,,,,,,,,,,,,,,,,,,,,,,,,,,,,,,,,,,,,,,,,,,,,,,,,,,,,,,,,,,,,,,,,,,,,,,,,,,,,,,,,,,,,,
,,60de7deffb38fe0ad1684964,2023-12-06_23h17.11.590,kallum_motion_pilot,2023.2.3,Win32,60.0024001,60de7deffb38fe0ad1684964,6560176e4d91f764e2a42c74,657158be5fb55eb8ed8fd23a,0.1687,0.169,1,74,236,18,1,twoone,,,,,,,,,,,,,,,,,,,,,,,,,,,,,,,,,,,,,,,,,,,,,,,,,,,,,,,,,,,,,,,,,,,,,,,,,,,,,,,,,,,,,,,,,,,,,,,,,,,,,,,,,,,,,,,,,,,,,,,,,,,,,,,,,,,,,,,
,,60de7deffb38fe0ad1684964,2023-12-06_23h17.11.590,kallum_motion_pilot,2023.2.3,Win32,60.0024001,60de7deffb38fe0ad1684964,6560176e4d91f764e2a42c74,657158be5fb55eb8ed8fd23a,0.1692,0.1694,1,75,237,89,1,fiveseven,,,,,,,,,,,,,,,,,,,,,,,,,,,,,,,,,,,,,,,,,,,,,,,,,,,,,,,,,,,,,,,,,,,,,,,,,,,,,,,,,,,,,,,,,,,,,,,,,,,,,,,,,,,,,,,,,,,,,,,,,,,,,,,,,,,,,,,
,,60de7deffb38fe0ad1684964,2023-12-06_23h17.11.590,kallum_motion_pilot,2023.2.3,Win32,60.0024001,60de7deffb38fe0ad1684964,6560176e4d91f764e2a42c74,657158be5fb55eb8ed8fd23a,0.1696,0.1698,1,76,238,114,1,sixfive,,,,,,,,,,,,,,,,,,,,,,,,,,,,,,,,,,,,,,,,,,,,,,,,,,,,,,,,,,,,,,,,,,,,,,,,,,,,,,,,,,,,,,,,,,,,,,,,,,,,,,,,,,,,,,,,,,,,,,,,,,,,,,,,,,,,,,,
,,60de7deffb38fe0ad1684964,2023-12-06_23h17.11.590,kallum_motion_pilot,2023.2.3,Win32,60.0024001,60de7deffb38fe0ad1684964,6560176e4d91f764e2a42c74,657158be5fb55eb8ed8fd23a,0.17,0.1703,1,77,239,83,1,sixeight,,,,,,,,,,,,,,,,,,,,,,,,,,,,,,,,,,,,,,,,,,,,,,,,,,,,,,,,,,,,,,,,,,,,,,,,,,,,,,,,,,,,,,,,,,,,,,,,,,,,,,,,,,,,,,,,,,,,,,,,,,,,,,,,,,,,,,,
,,60de7deffb38fe0ad1684964,2023-12-06_23h17.11.590,kallum_motion_pilot,2023.2.3,Win32,60.0024001,60de7deffb38fe0ad1684964,6560176e4d91f764e2a42c74,657158be5fb55eb8ed8fd23a,0.1704,0.1707,1,78,240,145,1,fiveseven,,,,,,,,,,,,,,,,,,,,,,,,,,,,,,,,,,,,,,,,,,,,,,,,,,,,,,,,,,,,,,,,,,,,,,,,,,,,,,,,,,,,,,,,,,,,,,,,,,,,,,,,,,,,,,,,,,,,,,,,,,,,,,,,,,,,,,,
,,60de7deffb38fe0ad1684964,2023-12-06_23h17.11.590,kallum_motion_pilot,2023.2.3,Win32,60.0024001,60de7deffb38fe0ad1684964,6560176e4d91f764e2a42c74,657158be5fb55eb8ed8fd23a,0.1709,0.171,1,79,241,127,1,eightseven,,,,,,,,,,,,,,,,,,,,,,,,,,,,,,,,,,,,,,,,,,,,,,,,,,,,,,,,,,,,,,,,,,,,,,,,,,,,,,,,,,,,,,,,,,,,,,,,,,,,,,,,,,,,,,,,,,,,,,,,,,,,,,,,,,,,,,,
,,60de7deffb38fe0ad1684964,2023-12-06_23h17.11.590,kallum_motion_pilot,2023.2.3,Win32,60.0024001,60de7deffb38fe0ad1684964,6560176e4d91f764e2a42c74,657158be5fb55eb8ed8fd23a,0.1712,0.1714,1,80,242,121,1,fiveseven,,,,,,,,,,,,,,,,,,,,,,,,,,,,,,,,,,,,,,,,,,,,,,,,,,,,,,,,,,,,,,,,,,,,,,,,,,,,,,,,,,,,,,,,,,,,,,,,,,,,,,,,,,,,,,,,,,,,,,,,,,,,,,,,,,,,,,,
,,60de7deffb38fe0ad1684964,2023-12-06_23h17.11.590,kallum_motion_pilot,2023.2.3,Win32,60.0024001,60de7deffb38fe0ad1684964,6560176e4d91f764e2a42c74,657158be5fb55eb8ed8fd23a,0.1717,0.1719,1,81,243,94,1,eightsix,,,,,,,,,,,,,,,,,,,,,,,,,,,,,,,,,,,,,,,,,,,,,,,,,,,,,,,,,,,,,,,,,,,,,,,,,,,,,,,,,,,,,,,,,,,,,,,,,,,,,,,,,,,,,,,,,,,,,,,,,,,,,,,,,,,,,,,
,,60de7deffb38fe0ad1684964,2023-12-06_23h17.11.590,kallum_motion_pilot,2023.2.3,Win32,60.0024001,60de7deffb38fe0ad1684964,6560176e4d91f764e2a42c74,657158be5fb55eb8ed8fd23a,0.1721,0.1723,1,82,244,57,1,onethree,,,,,,,,,,,,,,,,,,,,,,,,,,,,,,,,,,,,,,,,,,,,,,,,,,,,,,,,,,,,,,,,,,,,,,,,,,,,,,,,,,,,,,,,,,,,,,,,,,,,,,,,,,,,,,,,,,,,,,,,,,,,,,,,,,,,,,,
,,60de7deffb38fe0ad1684964,2023-12-06_23h17.11.590,kallum_motion_pilot,2023.2.3,Win32,60.0024001,60de7deffb38fe0ad1684964,6560176e4d91f764e2a42c74,657158be5fb55eb8ed8fd23a,0.1725,0.1727,1,83,245,30,1,fourtwo,,,,,,,,,,,,,,,,,,,,,,,,,,,,,,,,,,,,,,,,,,,,,,,,,,,,,,,,,,,,,,,,,,,,,,,,,,,,,,,,,,,,,,,,,,,,,,,,,,,,,,,,,,,,,,,,,,,,,,,,,,,,,,,,,,,,,,,
,,60de7deffb38fe0ad1684964,2023-12-06_23h17.11.590,kallum_motion_pilot,2023.2.3,Win32,60.0024001,60de7deffb38fe0ad1684964,6560176e4d91f764e2a42c74,657158be5fb55eb8ed8fd23a,0.1731,0.1733,1,84,246,60,1,threeone,,,,,,,,,,,,,,,,,,,,,,,,,,,,,,,,,,,,,,,,,,,,,,,,,,,,,,,,,,,,,,,,,,,,,,,,,,,,,,,,,,,,,,,,,,,,,,,,,,,,,,,,,,,,,,,,,,,,,,,,,,,,,,,,,,,,,,,
,,60de7deffb38fe0ad1684964,2023-12-06_23h17.11.590,kallum_motion_pilot,2023.2.3,Win32,60.0024001,60de7deffb38fe0ad1684964,6560176e4d91f764e2a42c74,657158be5fb55eb8ed8fd23a,0.1736,0.1738,1,85,247,116,1,sevenfive,,,,,,,,,,,,,,,,,,,,,,,,,,,,,,,,,,,,,,,,,,,,,,,,,,,,,,,,,,,,,,,,,,,,,,,,,,,,,,,,,,,,,,,,,,,,,,,,,,,,,,,,,,,,,,,,,,,,,,,,,,,,,,,,,,,,,,,
,,60de7deffb38fe0ad1684964,2023-12-06_23h17.11.590,kallum_motion_pilot,2023.2.3,Win32,60.0024001,60de7deffb38fe0ad1684964,6560176e4d91f764e2a42c74,657158be5fb55eb8ed8fd23a,0.1741,0.1743,1,86,248,6,1,fourtwo,,,,,,,,,,,,,,,,,,,,,,,,,,,,,,,,,,,,,,,,,,,,,,,,,,,,,,,,,,,,,,,,,,,,,,,,,,,,,,,,,,,,,,,,,,,,,,,,,,,,,,,,,,,,,,,,,,,,,,,,,,,,,,,,,,,,,,,
,,60de7deffb38fe0ad1684964,2023-12-06_23h17.11.590,kallum_motion_pilot,2023.2.3,Win32,60.0024001,60de7deffb38fe0ad1684964,6560176e4d91f764e2a42c74,657158be5fb55eb8ed8fd23a,0.1746,0.1749,1,87,249,37,1,threefour,,,,,,,,,,,,,,,,,,,,,,,,,,,,,,,,,,,,,,,,,,,,,,,,,,,,,,,,,,,,,,,,,,,,,,,,,,,,,,,,,,,,,,,,,,,,,,,,,,,,,,,,,,,,,,,,,,,,,,,,,,,,,,,,,,,,,,,
,,60de7deffb38fe0ad1684964,2023-12-06_23h17.11.590,kallum_motion_pilot,2023.2.3,Win32,60.0024001,60de7deffb38fe0ad1684964,6560176e4d91f764e2a42c74,657158be5fb55eb8ed8fd23a,0.1751,0.1752,1,88,250,96,1,fivesix,,,,,,,,,,,,,,,,,,,,,,,,,,,,,,,,,,,,,,,,,,,,,,,,,,,,,,,,,,,,,,,,,,,,,,,,,,,,,,,,,,,,,,,,,,,,,,,,,,,,,,,,,,,,,,,,,,,,,,,,,,,,,,,,,,,,,,,
,,60de7deffb38fe0ad1684964,2023-12-06_23h17.11.590,kallum_motion_pilot,2023.2.3,Win32,60.0024001,60de7deffb38fe0ad1684964,6560176e4d91f764e2a42c74,657158be5fb55eb8ed8fd23a,0.1755,0.1757,1,89,251,69,1,threefour,,,,,,,,,,,,,,,,,,,,,,,,,,,,,,,,,,,,,,,,,,,,,,,,,,,,,,,,,,,,,,,,,,,,,,,,,,,,,,,,,,,,,,,,,,,,,,,,,,,,,,,,,,,,,,,,,,,,,,,,,,,,,,,,,,,,,,,
,,60de7deffb38fe0ad1684964,2023-12-06_23h17.11.590,kallum_motion_pilot,2023.2.3,Win32,60.0024001,60de7deffb38fe0ad1684964,6560176e4d91f764e2a42c74,657158be5fb55eb8ed8fd23a,0.1759,0.1762,1,90,252,152,1,fivesix,,,,,,,,,,,,,,,,,,,,,,,,,,,,,,,,,,,,,,,,,,,,,,,,,,,,,,,,,,,,,,,,,,,,,,,,,,,,,,,,,,,,,,,,,,,,,,,,,,,,,,,,,,,,,,,,,,,,,,,,,,,,,,,,,,,,,,,
,,60de7deffb38fe0ad1684964,2023-12-06_23h17.11.590,kallum_motion_pilot,2023.2.3,Win32,60.0024001,60de7deffb38fe0ad1684964,6560176e4d91f764e2a42c74,657158be5fb55eb8ed8fd23a,0.1764,0.1765,1,91,253,24,1,onetwo,,,,,,,,,,,,,,,,,,,,,,,,,,,,,,,,,,,,,,,,,,,,,,,,,,,,,,,,,,,,,,,,,,,,,,,,,,,,,,,,,,,,,,,,,,,,,,,,,,,,,,,,,,,,,,,,,,,,,,,,,,,,,,,,,,,,,,,
,,60de7deffb38fe0ad1684964,2023-12-06_23h17.11.590,kallum_motion_pilot,2023.2.3,Win32,60.0024001,60de7deffb38fe0ad1684964,6560176e4d91f764e2a42c74,657158be5fb55eb8ed8fd23a,0.1768,0.177,1,92,254,9,1,onethree,,,,,,,,,,,,,,,,,,,,,,,,,,,,,,,,,,,,,,,,,,,,,,,,,,,,,,,,,,,,,,,,,,,,,,,,,,,,,,,,,,,,,,,,,,,,,,,,,,,,,,,,,,,,,,,,,,,,,,,,,,,,,,,,,,,,,,,
,,60de7deffb38fe0ad1684964,2023-12-06_23h17.11.590,kallum_motion_pilot,2023.2.3,Win32,60.0024001,60de7deffb38fe0ad1684964,6560176e4d91f764e2a42c74,657158be5fb55eb8ed8fd23a,0.1773,0.1775,1,93,255,103,1,eightseven,,,,,,,,,,,,,,,,,,,,,,,,,,,,,,,,,,,,,,,,,,,,,,,,,,,,,,,,,,,,,,,,,,,,,,,,,,,,,,,,,,,,,,,,,,,,,,,,,,,,,,,,,,,,,,,,,,,,,,,,,,,,,,,,,,,,,,,
,,60de7deffb38fe0ad1684964,2023-12-06_23h17.11.590,kallum_motion_pilot,2023.2.3,Win32,60.0024001,60de7deffb38fe0ad1684964,6560176e4d91f764e2a42c74,657158be5fb55eb8ed8fd23a,0.1782,0.1785,1,94,256,13,1,threefour,,,,,,,,,,,,,,,,,,,,,,,,,,,,,,,,,,,,,,,,,,,,,,,,,,,,,,,,,,,,,,,,,,,,,,,,,,,,,,,,,,,,,,,,,,,,,,,,,,,,,,,,,,,,,,,,,,,,,,,,,,,,,,,,,,,,,,,
,,60de7deffb38fe0ad1684964,2023-12-06_23h17.11.590,kallum_motion_pilot,2023.2.3,Win32,60.0024001,60de7deffb38fe0ad1684964,6560176e4d91f764e2a42c74,657158be5fb55eb8ed8fd23a,0.1788,0.1791,1,95,257,14,1,fourtwo,,,,,,,,,,,,,,,,,,,,,,,,,,,,,,,,,,,,,,,,,,,,,,,,,,,,,,,,,,,,,,,,,,,,,,,,,,,,,,,,,,,,,,,,,,,,,,,,,,,,,,,,,,,,,,,,,,,,,,,,,,,,,,,,,,,,,,,
,,60de7deffb38fe0ad1684964,2023-12-06_23h17.11.590,kallum_motion_pilot,2023.2.3,Win32,60.0024001,60de7deffb38fe0ad1684964,6560176e4d91f764e2a42c74,657158be5fb55eb8ed8fd23a,0.1792,0.1795,1,96,258,72,1,onetwo,,,,,,,,,,,,,,,,,,,,,,,,,,,,,,,,,,,,,,,,,,,,,,,,,,,,,,,,,,,,,,,,,,,,,,,,,,,,,,,,,,,,,,,,,,,,,,,,,,,,,,,,,,,,,,,,,,,,,,,,,,,,,,,,,,,,,,,
,,60de7deffb38fe0ad1684964,2023-12-06_23h17.11.590,kallum_motion_pilot,2023.2.3,Win32,60.0024001,60de7deffb38fe0ad1684964,6560176e4d91f764e2a42c74,657158be5fb55eb8ed8fd23a,0.1797,0.18,1,97,259,58,1,twoone,,,,,,,,,,,,,,,,,,,,,,,,,,,,,,,,,,,,,,,,,,,,,,,,,,,,,,,,,,,,,,,,,,,,,,,,,,,,,,,,,,,,,,,,,,,,,,,,,,,,,,,,,,,,,,,,,,,,,,,,,,,,,,,,,,,,,,,
,,60de7deffb38fe0ad1684964,2023-12-06_23h17.11.590,kallum_motion_pilot,2023.2.3,Win32,60.0024001,60de7deffb38fe0ad1684964,6560176e4d91f764e2a42c74,657158be5fb55eb8ed8fd23a,0.1802,0.1804,1,98,260,44,1,threeone,,,,,,,,,,,,,,,,,,,,,,,,,,,,,,,,,,,,,,,,,,,,,,,,,,,,,,,,,,,,,,,,,,,,,,,,,,,,,,,,,,,,,,,,,,,,,,,,,,,,,,,,,,,,,,,,,,,,,,,,,,,,,,,,,,,,,,,
,,60de7deffb38fe0ad1684964,2023-12-06_23h17.11.590,kallum_motion_pilot,2023.2.3,Win32,60.0024001,60de7deffb38fe0ad1684964,6560176e4d91f764e2a42c74,657158be5fb55eb8ed8fd23a,0.1806,0.1808,1,99,261,77,1,threefour,,,,,,,,,,,,,,,,,,,,,,,,,,,,,,,,,,,,,,,,,,,,,,,,,,,,,,,,,,,,,,,,,,,,,,,,,,,,,,,,,,,,,,,,,,,,,,,,,,,,,,,,,,,,,,,,,,,,,,,,,,,,,,,,,,,,,,,
,,60de7deffb38fe0ad1684964,2023-12-06_23h17.11.590,kallum_motion_pilot,2023.2.3,Win32,60.0024001,60de7deffb38fe0ad1684964,6560176e4d91f764e2a42c74,657158be5fb55eb8ed8fd23a,0.181,0.1814,1,100,262,126,1,eightsix,,,,,,,,,,,,,,,,,,,,,,,,,,,,,,,,,,,,,,,,,,,,,,,,,,,,,,,,,,,,,,,,,,,,,,,,,,,,,,,,,,,,,,,,,,,,,,,,,,,,,,,,,,,,,,,,,,,,,,,,,,,,,,,,,,,,,,,
,,60de7deffb38fe0ad1684964,2023-12-06_23h17.11.590,kallum_motion_pilot,2023.2.3,Win32,60.0024001,60de7deffb38fe0ad1684964,6560176e4d91f764e2a42c74,657158be5fb55eb8ed8fd23a,0.1818,0.182,1,101,263,100,1,sevenfive,,,,,,,,,,,,,,,,,,,,,,,,,,,,,,,,,,,,,,,,,,,,,,,,,,,,,,,,,,,,,,,,,,,,,,,,,,,,,,,,,,,,,,,,,,,,,,,,,,,,,,,,,,,,,,,,,,,,,,,,,,,,,,,,,,,,,,,
,,60de7deffb38fe0ad1684964,2023-12-06_23h17.11.590,kallum_motion_pilot,2023.2.3,Win32,60.0024001,60de7deffb38fe0ad1684964,6560176e4d91f764e2a42c74,657158be5fb55eb8ed8fd23a,0.1823,0.1825,1,102,264,7,1,fourthree,,,,,,,,,,,,,,,,,,,,,,,,,,,,,,,,,,,,,,,,,,,,,,,,,,,,,,,,,,,,,,,,,,,,,,,,,,,,,,,,,,,,,,,,,,,,,,,,,,,,,,,,,,,,,,,,,,,,,,,,,,,,,,,,,,,,,,,
,,60de7deffb38fe0ad1684964,2023-12-06_23h17.11.590,kallum_motion_pilot,2023.2.3,Win32,60.0024001,60de7deffb38fe0ad1684964,6560176e4d91f764e2a42c74,657158be5fb55eb8ed8fd23a,0.1832,0.1834,1,103,265,111,1,eightseven,,,,,,,,,,,,,,,,,,,,,,,,,,,,,,,,,,,,,,,,,,,,,,,,,,,,,,,,,,,,,,,,,,,,,,,,,,,,,,,,,,,,,,,,,,,,,,,,,,,,,,,,,,,,,,,,,,,,,,,,,,,,,,,,,,,,,,,
,,60de7deffb38fe0ad1684964,2023-12-06_23h17.11.590,kallum_motion_pilot,2023.2.3,Win32,60.0024001,60de7deffb38fe0ad1684964,6560176e4d91f764e2a42c74,657158be5fb55eb8ed8fd23a,0.1836,0.1839,1,104,266,88,1,fivesix,,,,,,,,,,,,,,,,,,,,,,,,,,,,,,,,,,,,,,,,,,,,,,,,,,,,,,,,,,,,,,,,,,,,,,,,,,,,,,,,,,,,,,,,,,,,,,,,,,,,,,,,,,,,,,,,,,,,,,,,,,,,,,,,,,,,,,,
,,60de7deffb38fe0ad1684964,2023-12-06_23h17.11.590,kallum_motion_pilot,2023.2.3,Win32,60.0024001,60de7deffb38fe0ad1684964,6560176e4d91f764e2a42c74,657158be5fb55eb8ed8fd23a,0.1843,0.1846,1,105,267,65,1,onethree,,,,,,,,,,,,,,,,,,,,,,,,,,,,,,,,,,,,,,,,,,,,,,,,,,,,,,,,,,,,,,,,,,,,,,,,,,,,,,,,,,,,,,,,,,,,,,,,,,,,,,,,,,,,,,,,,,,,,,,,,,,,,,,,,,,,,,,
,,60de7deffb38fe0ad1684964,2023-12-06_23h17.11.590,kallum_motion_pilot,2023.2.3,Win32,60.0024001,60de7deffb38fe0ad1684964,6560176e4d91f764e2a42c74,657158be5fb55eb8ed8fd23a,0.1848,0.185,1,106,268,52,1,threeone,,,,,,,,,,,,,,,,,,,,,,,,,,,,,,,,,,,,,,,,,,,,,,,,,,,,,,,,,,,,,,,,,,,,,,,,,,,,,,,,,,,,,,,,,,,,,,,,,,,,,,,,,,,,,,,,,,,,,,,,,,,,,,,,,,,,,,,
,,60de7deffb38fe0ad1684964,2023-12-06_23h17.11.590,kallum_motion_pilot,2023.2.3,Win32,60.0024001,60de7deffb38fe0ad1684964,6560176e4d91f764e2a42c74,657158be5fb55eb8ed8fd23a,0.1855,0.1857,1,107,269,155,1,sixeight,,,,,,,,,,,,,,,,,,,,,,,,,,,,,,,,,,,,,,,,,,,,,,,,,,,,,,,,,,,,,,,,,,,,,,,,,,,,,,,,,,,,,,,,,,,,,,,,,,,,,,,,,,,,,,,,,,,,,,,,,,,,,,,,,,,,,,,
,,60de7deffb38fe0ad1684964,2023-12-06_23h17.11.590,kallum_motion_pilot,2023.2.3,Win32,60.0024001,60de7deffb38fe0ad1684964,6560176e4d91f764e2a42c74,657158be5fb55eb8ed8fd23a,0.1859,0.1862,1,108,270,19,1,twofour,,,,,,,,,,,,,,,,,,,,,,,,,,,,,,,,,,,,,,,,,,,,,,,,,,,,,,,,,,,,,,,,,,,,,,,,,,,,,,,,,,,,,,,,,,,,,,,,,,,,,,,,,,,,,,,,,,,,,,,,,,,,,,,,,,,,,,,
,,60de7deffb38fe0ad1684964,2023-12-06_23h17.11.590,kallum_motion_pilot,2023.2.3,Win32,60.0024001,60de7deffb38fe0ad1684964,6560176e4d91f764e2a42c74,657158be5fb55eb8ed8fd23a,0.1865,0.1867,1,109,271,62,1,fourtwo,,,,,,,,,,,,,,,,,,,,,,,,,,,,,,,,,,,,,,,,,,,,,,,,,,,,,,,,,,,,,,,,,,,,,,,,,,,,,,,,,,,,,,,,,,,,,,,,,,,,,,,,,,,,,,,,,,,,,,,,,,,,,,,,,,,,,,,
,,60de7deffb38fe0ad1684964,2023-12-06_23h17.11.590,kallum_motion_pilot,2023.2.3,Win32,60.0024001,60de7deffb38fe0ad1684964,6560176e4d91f764e2a42c74,657158be5fb55eb8ed8fd23a,0.1869,0.1872,1,110,272,130,1,sixfive,,,,,,,,,,,,,,,,,,,,,,,,,,,,,,,,,,,,,,,,,,,,,,,,,,,,,,,,,,,,,,,,,,,,,,,,,,,,,,,,,,,,,,,,,,,,,,,,,,,,,,,,,,,,,,,,,,,,,,,,,,,,,,,,,,,,,,,
,,60de7deffb38fe0ad1684964,2023-12-06_23h17.11.590,kallum_motion_pilot,2023.2.3,Win32,60.0024001,60de7deffb38fe0ad1684964,6560176e4d91f764e2a42c74,657158be5fb55eb8ed8fd23a,0.1874,0.1878,1,111,273,140,1,sevenfive,,,,,,,,,,,,,,,,,,,,,,,,,,,,,,,,,,,,,,,,,,,,,,,,,,,,,,,,,,,,,,,,,,,,,,,,,,,,,,,,,,,,,,,,,,,,,,,,,,,,,,,,,,,,,,,,,,,,,,,,,,,,,,,,,,,,,,,
,,60de7deffb38fe0ad1684964,2023-12-06_23h17.11.590,kallum_motion_pilot,2023.2.3,Win32,60.0024001,60de7deffb38fe0ad1684964,6560176e4d91f764e2a42c74,657158be5fb55eb8ed8fd23a,0.188,0.1883,1,112,274,154,1,sixfive,,,,,,,,,,,,,,,,,,,,,,,,,,,,,,,,,,,,,,,,,,,,,,,,,,,,,,,,,,,,,,,,,,,,,,,,,,,,,,,,,,,,,,,,,,,,,,,,,,,,,,,,,,,,,,,,,,,,,,,,,,,,,,,,,,,,,,,
,,60de7deffb38fe0ad1684964,2023-12-06_23h17.11.590,kallum_motion_pilot,2023.2.3,Win32,60.0024001,60de7deffb38fe0ad1684964,6560176e4d91f764e2a42c74,657158be5fb55eb8ed8fd23a,0.1885,0.1887,1,113,275,74,1,twoone,,,,,,,,,,,,,,,,,,,,,,,,,,,,,,,,,,,,,,,,,,,,,,,,,,,,,,,,,,,,,,,,,,,,,,,,,,,,,,,,,,,,,,,,,,,,,,,,,,,,,,,,,,,,,,,,,,,,,,,,,,,,,,,,,,,,,,,
,,60de7deffb38fe0ad1684964,2023-12-06_23h17.11.590,kallum_motion_pilot,2023.2.3,Win32,60.0024001,60de7deffb38fe0ad1684964,6560176e4d91f764e2a42c74,657158be5fb55eb8ed8fd23a,0.1889,0.1891,1,114,276,119,1,eightseven,,,,,,,,,,,,,,,,,,,,,,,,,,,,,,,,,,,,,,,,,,,,,,,,,,,,,,,,,,,,,,,,,,,,,,,,,,,,,,,,,,,,,,,,,,,,,,,,,,,,,,,,,,,,,,,,,,,,,,,,,,,,,,,,,,,,,,,
,,60de7deffb38fe0ad1684964,2023-12-06_23h17.11.590,kallum_motion_pilot,2023.2.3,Win32,60.0024001,60de7deffb38fe0ad1684964,6560176e4d91f764e2a42c74,657158be5fb55eb8ed8fd23a,0.1894,0.1896,1,115,277,107,1,sixeight,,,,,,,,,,,,,,,,,,,,,,,,,,,,,,,,,,,,,,,,,,,,,,,,,,,,,,,,,,,,,,,,,,,,,,,,,,,,,,,,,,,,,,,,,,,,,,,,,,,,,,,,,,,,,,,,,,,,,,,,,,,,,,,,,,,,,,,
,,60de7deffb38fe0ad1684964,2023-12-06_23h17.11.590,kallum_motion_pilot,2023.2.3,Win32,60.0024001,60de7deffb38fe0ad1684964,6560176e4d91f764e2a42c74,657158be5fb55eb8ed8fd23a,0.1899,0.19,1,116,278,40,1,onetwo,,,,,,,,,,,,,,,,,,,,,,,,,,,,,,,,,,,,,,,,,,,,,,,,,,,,,,,,,,,,,,,,,,,,,,,,,,,,,,,,,,,,,,,,,,,,,,,,,,,,,,,,,,,,,,,,,,,,,,,,,,,,,,,,,,,,,,,
,,60de7deffb38fe0ad1684964,2023-12-06_23h17.11.590,kallum_motion_pilot,2023.2.3,Win32,60.0024001,60de7deffb38fe0ad1684964,6560176e4d91f764e2a42c74,657158be5fb55eb8ed8fd23a,0.1902,0.1904,1,117,279,143,1,eightseven,,,,,,,,,,,,,,,,,,,,,,,,,,,,,,,,,,,,,,,,,,,,,,,,,,,,,,,,,,,,,,,,,,,,,,,,,,,,,,,,,,,,,,,,,,,,,,,,,,,,,,,,,,,,,,,,,,,,,,,,,,,,,,,,,,,,,,,
,,60de7deffb38fe0ad1684964,2023-12-06_23h17.11.590,kallum_motion_pilot,2023.2.3,Win32,60.0024001,60de7deffb38fe0ad1684964,6560176e4d91f764e2a42c74,657158be5fb55eb8ed8fd23a,0.1906,0.1909,1,118,280,138,1,sixfive,,,,,,,,,,,,,,,,,,,,,,,,,,,,,,,,,,,,,,,,,,,,,,,,,,,,,,,,,,,,,,,,,,,,,,,,,,,,,,,,,,,,,,,,,,,,,,,,,,,,,,,,,,,,,,,,,,,,,,,,,,,,,,,,,,,,,,,
