startup.started,startup.stopped,Prolific ID*,date,expName,psychopyVersion,OS,frameRate,participant,study_id,session,stimpositions.started,stimpositions.stopped,hardcoded_stimulus_positions.thisRepN,hardcoded_stimulus_positions.thisTrialN,hardcoded_stimulus_positions.thisN,hardcoded_stimulus_positions.thisIndex,hardcoded_stimulus_positions.ran,StimulusPos,stimorientation.started,stimorientation.stopped,prac_stimorientation_import_loop.thisRepN,prac_stimorientation_import_loop.thisTrialN,prac_stimorientation_import_loop.thisN,prac_stimorientation_import_loop.thisIndex,prac_stimorientation_import_loop.ran,Stimorientation,welcome_instr.started,welcome_instr.stopped,key_resp.keys,key_resp.rt,key_resp.duration,response_steppedout_1.started,response_steppedout_1.stopped,key_resp_20.keys,key_resp_20.rt,key_resp_20.duration,response_steppedout_2.started,response_steppedout_2.stopped,key_resp_19.keys,key_resp_19.rt,key_resp_19.duration,stim_response_instr.started,stim_response_instr.stopped,key_resp_15.keys,key_resp_15.rt,key_resp_15.duration,direction_instr_2.started,direction_instr_2.stopped,key_resp_9.keys,key_resp_9.rt,key_resp_9.duration,instr_prac.started,instr_prac.stopped,key_resp_10.keys,key_resp_10.rt,key_resp_10.duration,Stim1_display_prac.started,Stim1_display_prac.stopped,Ecc,Circle1_ori,Circle2_ori,response_prac.started,similarity,response_time,response_prac.stopped,mouse_5.x,mouse_5.y,mouse_5.leftButton,mouse_5.midButton,mouse_5.rightButton,mouse_5.clicked_name,responseprac_feedback.started,responseprac_feedback.stopped,summary2_prac.started,summary2_prac.stopped,mouse_6.x,mouse_6.y,mouse_6.leftButton,mouse_6.midButton,mouse_6.rightButton,mouse_6.clicked_name,duringprac.thisRepN,duringprac.thisTrialN,duringprac.thisN,duringprac.thisIndex,duringprac.ran,begin.started,begin.stopped,key_resp_22.keys,key_resp_22.rt,key_resp_22.duration,Stim1_display.started,Stim1_display.stopped,circle1_ori,circle2_ori,blank.started,blank.stopped,response.started,response.stopped,mouse.x,mouse.y,mouse.leftButton,mouse.midButton,mouse.rightButton,mouse.clicked_name,response_2.started,response_2.stopped,mouse_2.x,mouse_2.y,mouse_2.leftButton,mouse_2.midButton,mouse_2.rightButton,mouse_2.clicked_name,special_trial.started,special_trial.stopped,catch_1.started,catch_1.stopped,mouse_3.x,mouse_3.y,mouse_3.leftButton,mouse_3.midButton,mouse_3.rightButton,catchresponse,catchnumber,response_time_catch,Catch,response_sum.started,response_sum.stopped,mouse_11.x,mouse_11.y,mouse_11.leftButton,mouse_11.midButton,mouse_11.rightButton,main_trial.thisRepN,main_trial.thisTrialN,main_trial.thisN,main_trial.thisIndex,main_trial.ran,Orientationtrialno,xcircle1_ori,xcircle2_ori,flip_presentation_sequence_for_double_pass.started,flip_presentation_sequence_for_double_pass.stopped,double_pass.thisRepN,double_pass.thisTrialN,double_pass.thisN,double_pass.thisIndex,double_pass.ran,goodbye.started,goodbye.stopped,key_resp_3.keys,key_resp_3.rt,key_resp_3.duration
0.0005,0.0007,611ce3140be0fc75d7cf2c67,2023-12-07_07h38.17.202,kallum_motion_pilot,2023.2.3,Win32,59.88023952,611ce3140be0fc75d7cf2c67,6560176e4d91f764e2a42c74,657159bc117ba01906a79147,,,,,,,,,,,,,,,,,,,,,,,,,,,,,,,,,,,,,,,,,,,,,,,,,,,,,,,,,,,,,,,,,,,,,,,,,,,,,,,,,,,,,,,,,,,,,,,,,,,,,,,,,,,,,,,,,,,,,,,,,,,,,,,,,,,,,,,,,,,,,,,
,,611ce3140be0fc75d7cf2c67,2023-12-07_07h38.17.202,kallum_motion_pilot,2023.2.3,Win32,59.88023952,611ce3140be0fc75d7cf2c67,6560176e4d91f764e2a42c74,657159bc117ba01906a79147,0.5596,0.56,0,0,0,28,1,threeone,,,,,,,,,,,,,,,,,,,,,,,,,,,,,,,,,,,,,,,,,,,,,,,,,,,,,,,,,,,,,,,,,,,,,,,,,,,,,,,,,,,,,,,,,,,,,,,,,,,,,,,,,,,,,,,,,,,,,,,,,,,,,,,,,,,,,,,
,,611ce3140be0fc75d7cf2c67,2023-12-07_07h38.17.202,kallum_motion_pilot,2023.2.3,Win32,59.88023952,611ce3140be0fc75d7cf2c67,6560176e4d91f764e2a42c74,657159bc117ba01906a79147,0.5606,0.5607,0,1,1,116,1,sevenfive,,,,,,,,,,,,,,,,,,,,,,,,,,,,,,,,,,,,,,,,,,,,,,,,,,,,,,,,,,,,,,,,,,,,,,,,,,,,,,,,,,,,,,,,,,,,,,,,,,,,,,,,,,,,,,,,,,,,,,,,,,,,,,,,,,,,,,,
,,611ce3140be0fc75d7cf2c67,2023-12-07_07h38.17.202,kallum_motion_pilot,2023.2.3,Win32,59.88023952,611ce3140be0fc75d7cf2c67,6560176e4d91f764e2a42c74,657159bc117ba01906a79147,0.5612,0.5614,0,2,2,131,1,sixeight,,,,,,,,,,,,,,,,,,,,,,,,,,,,,,,,,,,,,,,,,,,,,,,,,,,,,,,,,,,,,,,,,,,,,,,,,,,,,,,,,,,,,,,,,,,,,,,,,,,,,,,,,,,,,,,,,,,,,,,,,,,,,,,,,,,,,,,
,,611ce3140be0fc75d7cf2c67,2023-12-07_07h38.17.202,kallum_motion_pilot,2023.2.3,Win32,59.88023952,611ce3140be0fc75d7cf2c67,6560176e4d91f764e2a42c74,657159bc117ba01906a79147,0.5619,0.5622,0,3,3,80,1,fivesix,,,,,,,,,,,,,,,,,,,,,,,,,,,,,,,,,,,,,,,,,,,,,,,,,,,,,,,,,,,,,,,,,,,,,,,,,,,,,,,,,,,,,,,,,,,,,,,,,,,,,,,,,,,,,,,,,,,,,,,,,,,,,,,,,,,,,,,
,,611ce3140be0fc75d7cf2c67,2023-12-07_07h38.17.202,kallum_motion_pilot,2023.2.3,Win32,59.88023952,611ce3140be0fc75d7cf2c67,6560176e4d91f764e2a42c74,657159bc117ba01906a79147,0.5626,0.5629,0,4,4,135,1,eightseven,,,,,,,,,,,,,,,,,,,,,,,,,,,,,,,,,,,,,,,,,,,,,,,,,,,,,,,,,,,,,,,,,,,,,,,,,,,,,,,,,,,,,,,,,,,,,,,,,,,,,,,,,,,,,,,,,,,,,,,,,,,,,,,,,,,,,,,
,,611ce3140be0fc75d7cf2c67,2023-12-07_07h38.17.202,kallum_motion_pilot,2023.2.3,Win32,59.88023952,611ce3140be0fc75d7cf2c67,6560176e4d91f764e2a42c74,657159bc117ba01906a79147,0.5633,0.5636,0,5,5,77,1,threefour,,,,,,,,,,,,,,,,,,,,,,,,,,,,,,,,,,,,,,,,,,,,,,,,,,,,,,,,,,,,,,,,,,,,,,,,,,,,,,,,,,,,,,,,,,,,,,,,,,,,,,,,,,,,,,,,,,,,,,,,,,,,,,,,,,,,,,,
,,611ce3140be0fc75d7cf2c67,2023-12-07_07h38.17.202,kallum_motion_pilot,2023.2.3,Win32,59.88023952,611ce3140be0fc75d7cf2c67,6560176e4d91f764e2a42c74,657159bc117ba01906a79147,0.564,0.5643,0,6,6,51,1,twofour,,,,,,,,,,,,,,,,,,,,,,,,,,,,,,,,,,,,,,,,,,,,,,,,,,,,,,,,,,,,,,,,,,,,,,,,,,,,,,,,,,,,,,,,,,,,,,,,,,,,,,,,,,,,,,,,,,,,,,,,,,,,,,,,,,,,,,,
,,611ce3140be0fc75d7cf2c67,2023-12-07_07h38.17.202,kallum_motion_pilot,2023.2.3,Win32,59.88023952,611ce3140be0fc75d7cf2c67,6560176e4d91f764e2a42c74,657159bc117ba01906a79147,0.5647,0.5649,0,7,7,157,1,seveneight,,,,,,,,,,,,,,,,,,,,,,,,,,,,,,,,,,,,,,,,,,,,,,,,,,,,,,,,,,,,,,,,,,,,,,,,,,,,,,,,,,,,,,,,,,,,,,,,,,,,,,,,,,,,,,,,,,,,,,,,,,,,,,,,,,,,,,,
,,611ce3140be0fc75d7cf2c67,2023-12-07_07h38.17.202,kallum_motion_pilot,2023.2.3,Win32,59.88023952,611ce3140be0fc75d7cf2c67,6560176e4d91f764e2a42c74,657159bc117ba01906a79147,0.5657,0.5658,0,8,8,42,1,twoone,,,,,,,,,,,,,,,,,,,,,,,,,,,,,,,,,,,,,,,,,,,,,,,,,,,,,,,,,,,,,,,,,,,,,,,,,,,,,,,,,,,,,,,,,,,,,,,,,,,,,,,,,,,,,,,,,,,,,,,,,,,,,,,,,,,,,,,
,,611ce3140be0fc75d7cf2c67,2023-12-07_07h38.17.202,kallum_motion_pilot,2023.2.3,Win32,59.88023952,611ce3140be0fc75d7cf2c67,6560176e4d91f764e2a42c74,657159bc117ba01906a79147,0.5662,0.5663,0,9,9,58,1,twoone,,,,,,,,,,,,,,,,,,,,,,,,,,,,,,,,,,,,,,,,,,,,,,,,,,,,,,,,,,,,,,,,,,,,,,,,,,,,,,,,,,,,,,,,,,,,,,,,,,,,,,,,,,,,,,,,,,,,,,,,,,,,,,,,,,,,,,,
,,611ce3140be0fc75d7cf2c67,2023-12-07_07h38.17.202,kallum_motion_pilot,2023.2.3,Win32,59.88023952,611ce3140be0fc75d7cf2c67,6560176e4d91f764e2a42c74,657159bc117ba01906a79147,0.5668,0.5671,0,10,10,99,1,sixeight,,,,,,,,,,,,,,,,,,,,,,,,,,,,,,,,,,,,,,,,,,,,,,,,,,,,,,,,,,,,,,,,,,,,,,,,,,,,,,,,,,,,,,,,,,,,,,,,,,,,,,,,,,,,,,,,,,,,,,,,,,,,,,,,,,,,,,,
,,611ce3140be0fc75d7cf2c67,2023-12-07_07h38.17.202,kallum_motion_pilot,2023.2.3,Win32,59.88023952,611ce3140be0fc75d7cf2c67,6560176e4d91f764e2a42c74,657159bc117ba01906a79147,0.5674,0.5676,0,11,11,150,1,eightsix,,,,,,,,,,,,,,,,,,,,,,,,,,,,,,,,,,,,,,,,,,,,,,,,,,,,,,,,,,,,,,,,,,,,,,,,,,,,,,,,,,,,,,,,,,,,,,,,,,,,,,,,,,,,,,,,,,,,,,,,,,,,,,,,,,,,,,,
,,611ce3140be0fc75d7cf2c67,2023-12-07_07h38.17.202,kallum_motion_pilot,2023.2.3,Win32,59.88023952,611ce3140be0fc75d7cf2c67,6560176e4d91f764e2a42c74,657159bc117ba01906a79147,0.5681,0.5683,0,12,12,134,1,eightsix,,,,,,,,,,,,,,,,,,,,,,,,,,,,,,,,,,,,,,,,,,,,,,,,,,,,,,,,,,,,,,,,,,,,,,,,,,,,,,,,,,,,,,,,,,,,,,,,,,,,,,,,,,,,,,,,,,,,,,,,,,,,,,,,,,,,,,,
,,611ce3140be0fc75d7cf2c67,2023-12-07_07h38.17.202,kallum_motion_pilot,2023.2.3,Win32,59.88023952,611ce3140be0fc75d7cf2c67,6560176e4d91f764e2a42c74,657159bc117ba01906a79147,0.5687,0.5692,0,13,13,6,1,fourtwo,,,,,,,,,,,,,,,,,,,,,,,,,,,,,,,,,,,,,,,,,,,,,,,,,,,,,,,,,,,,,,,,,,,,,,,,,,,,,,,,,,,,,,,,,,,,,,,,,,,,,,,,,,,,,,,,,,,,,,,,,,,,,,,,,,,,,,,
,,611ce3140be0fc75d7cf2c67,2023-12-07_07h38.17.202,kallum_motion_pilot,2023.2.3,Win32,59.88023952,611ce3140be0fc75d7cf2c67,6560176e4d91f764e2a42c74,657159bc117ba01906a79147,0.5697,0.5698,0,14,14,159,1,eightseven,,,,,,,,,,,,,,,,,,,,,,,,,,,,,,,,,,,,,,,,,,,,,,,,,,,,,,,,,,,,,,,,,,,,,,,,,,,,,,,,,,,,,,,,,,,,,,,,,,,,,,,,,,,,,,,,,,,,,,,,,,,,,,,,,,,,,,,
,,611ce3140be0fc75d7cf2c67,2023-12-07_07h38.17.202,kallum_motion_pilot,2023.2.3,Win32,59.88023952,611ce3140be0fc75d7cf2c67,6560176e4d91f764e2a42c74,657159bc117ba01906a79147,0.5702,0.5703,0,15,15,151,1,eightseven,,,,,,,,,,,,,,,,,,,,,,,,,,,,,,,,,,,,,,,,,,,,,,,,,,,,,,,,,,,,,,,,,,,,,,,,,,,,,,,,,,,,,,,,,,,,,,,,,,,,,,,,,,,,,,,,,,,,,,,,,,,,,,,,,,,,,,,
,,611ce3140be0fc75d7cf2c67,2023-12-07_07h38.17.202,kallum_motion_pilot,2023.2.3,Win32,59.88023952,611ce3140be0fc75d7cf2c67,6560176e4d91f764e2a42c74,657159bc117ba01906a79147,0.5707,0.5708,0,16,16,94,1,eightsix,,,,,,,,,,,,,,,,,,,,,,,,,,,,,,,,,,,,,,,,,,,,,,,,,,,,,,,,,,,,,,,,,,,,,,,,,,,,,,,,,,,,,,,,,,,,,,,,,,,,,,,,,,,,,,,,,,,,,,,,,,,,,,,,,,,,,,,
,,611ce3140be0fc75d7cf2c67,2023-12-07_07h38.17.202,kallum_motion_pilot,2023.2.3,Win32,59.88023952,611ce3140be0fc75d7cf2c67,6560176e4d91f764e2a42c74,657159bc117ba01906a79147,0.5712,0.5715,0,17,17,31,1,fourthree,,,,,,,,,,,,,,,,,,,,,,,,,,,,,,,,,,,,,,,,,,,,,,,,,,,,,,,,,,,,,,,,,,,,,,,,,,,,,,,,,,,,,,,,,,,,,,,,,,,,,,,,,,,,,,,,,,,,,,,,,,,,,,,,,,,,,,,
,,611ce3140be0fc75d7cf2c67,2023-12-07_07h38.17.202,kallum_motion_pilot,2023.2.3,Win32,59.88023952,611ce3140be0fc75d7cf2c67,6560176e4d91f764e2a42c74,657159bc117ba01906a79147,0.5719,0.5721,0,18,18,38,1,fourtwo,,,,,,,,,,,,,,,,,,,,,,,,,,,,,,,,,,,,,,,,,,,,,,,,,,,,,,,,,,,,,,,,,,,,,,,,,,,,,,,,,,,,,,,,,,,,,,,,,,,,,,,,,,,,,,,,,,,,,,,,,,,,,,,,,,,,,,,
,,611ce3140be0fc75d7cf2c67,2023-12-07_07h38.17.202,kallum_motion_pilot,2023.2.3,Win32,59.88023952,611ce3140be0fc75d7cf2c67,6560176e4d91f764e2a42c74,657159bc117ba01906a79147,0.5726,0.5728,0,19,19,71,1,fourthree,,,,,,,,,,,,,,,,,,,,,,,,,,,,,,,,,,,,,,,,,,,,,,,,,,,,,,,,,,,,,,,,,,,,,,,,,,,,,,,,,,,,,,,,,,,,,,,,,,,,,,,,,,,,,,,,,,,,,,,,,,,,,,,,,,,,,,,
,,611ce3140be0fc75d7cf2c67,2023-12-07_07h38.17.202,kallum_motion_pilot,2023.2.3,Win32,59.88023952,611ce3140be0fc75d7cf2c67,6560176e4d91f764e2a42c74,657159bc117ba01906a79147,0.5731,0.5733,0,20,20,60,1,threeone,,,,,,,,,,,,,,,,,,,,,,,,,,,,,,,,,,,,,,,,,,,,,,,,,,,,,,,,,,,,,,,,,,,,,,,,,,,,,,,,,,,,,,,,,,,,,,,,,,,,,,,,,,,,,,,,,,,,,,,,,,,,,,,,,,,,,,,
,,611ce3140be0fc75d7cf2c67,2023-12-07_07h38.17.202,kallum_motion_pilot,2023.2.3,Win32,59.88023952,611ce3140be0fc75d7cf2c67,6560176e4d91f764e2a42c74,657159bc117ba01906a79147,0.5736,0.5738,0,21,21,124,1,sevenfive,,,,,,,,,,,,,,,,,,,,,,,,,,,,,,,,,,,,,,,,,,,,,,,,,,,,,,,,,,,,,,,,,,,,,,,,,,,,,,,,,,,,,,,,,,,,,,,,,,,,,,,,,,,,,,,,,,,,,,,,,,,,,,,,,,,,,,,
,,611ce3140be0fc75d7cf2c67,2023-12-07_07h38.17.202,kallum_motion_pilot,2023.2.3,Win32,59.88023952,611ce3140be0fc75d7cf2c67,6560176e4d91f764e2a42c74,657159bc117ba01906a79147,0.5741,0.5742,0,22,22,22,1,fourtwo,,,,,,,,,,,,,,,,,,,,,,,,,,,,,,,,,,,,,,,,,,,,,,,,,,,,,,,,,,,,,,,,,,,,,,,,,,,,,,,,,,,,,,,,,,,,,,,,,,,,,,,,,,,,,,,,,,,,,,,,,,,,,,,,,,,,,,,
,,611ce3140be0fc75d7cf2c67,2023-12-07_07h38.17.202,kallum_motion_pilot,2023.2.3,Win32,59.88023952,611ce3140be0fc75d7cf2c67,6560176e4d91f764e2a42c74,657159bc117ba01906a79147,0.5745,0.5746,0,23,23,117,1,seveneight,,,,,,,,,,,,,,,,,,,,,,,,,,,,,,,,,,,,,,,,,,,,,,,,,,,,,,,,,,,,,,,,,,,,,,,,,,,,,,,,,,,,,,,,,,,,,,,,,,,,,,,,,,,,,,,,,,,,,,,,,,,,,,,,,,,,,,,
,,611ce3140be0fc75d7cf2c67,2023-12-07_07h38.17.202,kallum_motion_pilot,2023.2.3,Win32,59.88023952,611ce3140be0fc75d7cf2c67,6560176e4d91f764e2a42c74,657159bc117ba01906a79147,0.575,0.5752,0,24,24,16,1,onetwo,,,,,,,,,,,,,,,,,,,,,,,,,,,,,,,,,,,,,,,,,,,,,,,,,,,,,,,,,,,,,,,,,,,,,,,,,,,,,,,,,,,,,,,,,,,,,,,,,,,,,,,,,,,,,,,,,,,,,,,,,,,,,,,,,,,,,,,
,,611ce3140be0fc75d7cf2c67,2023-12-07_07h38.17.202,kallum_motion_pilot,2023.2.3,Win32,59.88023952,611ce3140be0fc75d7cf2c67,6560176e4d91f764e2a42c74,657159bc117ba01906a79147,0.5755,0.5756,0,25,25,87,1,eightseven,,,,,,,,,,,,,,,,,,,,,,,,,,,,,,,,,,,,,,,,,,,,,,,,,,,,,,,,,,,,,,,,,,,,,,,,,,,,,,,,,,,,,,,,,,,,,,,,,,,,,,,,,,,,,,,,,,,,,,,,,,,,,,,,,,,,,,,
,,611ce3140be0fc75d7cf2c67,2023-12-07_07h38.17.202,kallum_motion_pilot,2023.2.3,Win32,59.88023952,611ce3140be0fc75d7cf2c67,6560176e4d91f764e2a42c74,657159bc117ba01906a79147,0.5759,0.5761,0,26,26,7,1,fourthree,,,,,,,,,,,,,,,,,,,,,,,,,,,,,,,,,,,,,,,,,,,,,,,,,,,,,,,,,,,,,,,,,,,,,,,,,,,,,,,,,,,,,,,,,,,,,,,,,,,,,,,,,,,,,,,,,,,,,,,,,,,,,,,,,,,,,,,
,,611ce3140be0fc75d7cf2c67,2023-12-07_07h38.17.202,kallum_motion_pilot,2023.2.3,Win32,59.88023952,611ce3140be0fc75d7cf2c67,6560176e4d91f764e2a42c74,657159bc117ba01906a79147,0.5764,0.5766,0,27,27,73,1,onethree,,,,,,,,,,,,,,,,,,,,,,,,,,,,,,,,,,,,,,,,,,,,,,,,,,,,,,,,,,,,,,,,,,,,,,,,,,,,,,,,,,,,,,,,,,,,,,,,,,,,,,,,,,,,,,,,,,,,,,,,,,,,,,,,,,,,,,,
,,611ce3140be0fc75d7cf2c67,2023-12-07_07h38.17.202,kallum_motion_pilot,2023.2.3,Win32,59.88023952,611ce3140be0fc75d7cf2c67,6560176e4d91f764e2a42c74,657159bc117ba01906a79147,0.5768,0.577,0,28,28,86,1,eightsix,,,,,,,,,,,,,,,,,,,,,,,,,,,,,,,,,,,,,,,,,,,,,,,,,,,,,,,,,,,,,,,,,,,,,,,,,,,,,,,,,,,,,,,,,,,,,,,,,,,,,,,,,,,,,,,,,,,,,,,,,,,,,,,,,,,,,,,
,,611ce3140be0fc75d7cf2c67,2023-12-07_07h38.17.202,kallum_motion_pilot,2023.2.3,Win32,59.88023952,611ce3140be0fc75d7cf2c67,6560176e4d91f764e2a42c74,657159bc117ba01906a79147,0.5774,0.5776,0,29,29,133,1,seveneight,,,,,,,,,,,,,,,,,,,,,,,,,,,,,,,,,,,,,,,,,,,,,,,,,,,,,,,,,,,,,,,,,,,,,,,,,,,,,,,,,,,,,,,,,,,,,,,,,,,,,,,,,,,,,,,,,,,,,,,,,,,,,,,,,,,,,,,
,,611ce3140be0fc75d7cf2c67,2023-12-07_07h38.17.202,kallum_motion_pilot,2023.2.3,Win32,59.88023952,611ce3140be0fc75d7cf2c67,6560176e4d91f764e2a42c74,657159bc117ba01906a79147,0.5781,0.5782,0,30,30,139,1,sixeight,,,,,,,,,,,,,,,,,,,,,,,,,,,,,,,,,,,,,,,,,,,,,,,,,,,,,,,,,,,,,,,,,,,,,,,,,,,,,,,,,,,,,,,,,,,,,,,,,,,,,,,,,,,,,,,,,,,,,,,,,,,,,,,,,,,,,,,
,,611ce3140be0fc75d7cf2c67,2023-12-07_07h38.17.202,kallum_motion_pilot,2023.2.3,Win32,59.88023952,611ce3140be0fc75d7cf2c67,6560176e4d91f764e2a42c74,657159bc117ba01906a79147,0.5785,0.5787,0,31,31,70,1,fourtwo,,,,,,,,,,,,,,,,,,,,,,,,,,,,,,,,,,,,,,,,,,,,,,,,,,,,,,,,,,,,,,,,,,,,,,,,,,,,,,,,,,,,,,,,,,,,,,,,,,,,,,,,,,,,,,,,,,,,,,,,,,,,,,,,,,,,,,,
,,611ce3140be0fc75d7cf2c67,2023-12-07_07h38.17.202,kallum_motion_pilot,2023.2.3,Win32,59.88023952,611ce3140be0fc75d7cf2c67,6560176e4d91f764e2a42c74,657159bc117ba01906a79147,0.579,0.5793,0,32,32,148,1,sevenfive,,,,,,,,,,,,,,,,,,,,,,,,,,,,,,,,,,,,,,,,,,,,,,,,,,,,,,,,,,,,,,,,,,,,,,,,,,,,,,,,,,,,,,,,,,,,,,,,,,,,,,,,,,,,,,,,,,,,,,,,,,,,,,,,,,,,,,,
,,611ce3140be0fc75d7cf2c67,2023-12-07_07h38.17.202,kallum_motion_pilot,2023.2.3,Win32,59.88023952,611ce3140be0fc75d7cf2c67,6560176e4d91f764e2a42c74,657159bc117ba01906a79147,0.5797,0.58,0,33,33,123,1,sixeight,,,,,,,,,,,,,,,,,,,,,,,,,,,,,,,,,,,,,,,,,,,,,,,,,,,,,,,,,,,,,,,,,,,,,,,,,,,,,,,,,,,,,,,,,,,,,,,,,,,,,,,,,,,,,,,,,,,,,,,,,,,,,,,,,,,,,,,
,,611ce3140be0fc75d7cf2c67,2023-12-07_07h38.17.202,kallum_motion_pilot,2023.2.3,Win32,59.88023952,611ce3140be0fc75d7cf2c67,6560176e4d91f764e2a42c74,657159bc117ba01906a79147,0.581,0.5812,0,34,34,130,1,sixfive,,,,,,,,,,,,,,,,,,,,,,,,,,,,,,,,,,,,,,,,,,,,,,,,,,,,,,,,,,,,,,,,,,,,,,,,,,,,,,,,,,,,,,,,,,,,,,,,,,,,,,,,,,,,,,,,,,,,,,,,,,,,,,,,,,,,,,,
,,611ce3140be0fc75d7cf2c67,2023-12-07_07h38.17.202,kallum_motion_pilot,2023.2.3,Win32,59.88023952,611ce3140be0fc75d7cf2c67,6560176e4d91f764e2a42c74,657159bc117ba01906a79147,0.585,0.5852,0,35,35,88,1,fivesix,,,,,,,,,,,,,,,,,,,,,,,,,,,,,,,,,,,,,,,,,,,,,,,,,,,,,,,,,,,,,,,,,,,,,,,,,,,,,,,,,,,,,,,,,,,,,,,,,,,,,,,,,,,,,,,,,,,,,,,,,,,,,,,,,,,,,,,
,,611ce3140be0fc75d7cf2c67,2023-12-07_07h38.17.202,kallum_motion_pilot,2023.2.3,Win32,59.88023952,611ce3140be0fc75d7cf2c67,6560176e4d91f764e2a42c74,657159bc117ba01906a79147,0.5856,0.5858,0,36,36,141,1,seveneight,,,,,,,,,,,,,,,,,,,,,,,,,,,,,,,,,,,,,,,,,,,,,,,,,,,,,,,,,,,,,,,,,,,,,,,,,,,,,,,,,,,,,,,,,,,,,,,,,,,,,,,,,,,,,,,,,,,,,,,,,,,,,,,,,,,,,,,
,,611ce3140be0fc75d7cf2c67,2023-12-07_07h38.17.202,kallum_motion_pilot,2023.2.3,Win32,59.88023952,611ce3140be0fc75d7cf2c67,6560176e4d91f764e2a42c74,657159bc117ba01906a79147,0.6496,0.6497,0,37,37,20,1,threeone,,,,,,,,,,,,,,,,,,,,,,,,,,,,,,,,,,,,,,,,,,,,,,,,,,,,,,,,,,,,,,,,,,,,,,,,,,,,,,,,,,,,,,,,,,,,,,,,,,,,,,,,,,,,,,,,,,,,,,,,,,,,,,,,,,,,,,,
,,611ce3140be0fc75d7cf2c67,2023-12-07_07h38.17.202,kallum_motion_pilot,2023.2.3,Win32,59.88023952,611ce3140be0fc75d7cf2c67,6560176e4d91f764e2a42c74,657159bc117ba01906a79147,0.65,0.6501,0,38,38,144,1,fivesix,,,,,,,,,,,,,,,,,,,,,,,,,,,,,,,,,,,,,,,,,,,,,,,,,,,,,,,,,,,,,,,,,,,,,,,,,,,,,,,,,,,,,,,,,,,,,,,,,,,,,,,,,,,,,,,,,,,,,,,,,,,,,,,,,,,,,,,
,,611ce3140be0fc75d7cf2c67,2023-12-07_07h38.17.202,kallum_motion_pilot,2023.2.3,Win32,59.88023952,611ce3140be0fc75d7cf2c67,6560176e4d91f764e2a42c74,657159bc117ba01906a79147,0.6503,0.6504,0,39,39,69,1,threefour,,,,,,,,,,,,,,,,,,,,,,,,,,,,,,,,,,,,,,,,,,,,,,,,,,,,,,,,,,,,,,,,,,,,,,,,,,,,,,,,,,,,,,,,,,,,,,,,,,,,,,,,,,,,,,,,,,,,,,,,,,,,,,,,,,,,,,,
,,611ce3140be0fc75d7cf2c67,2023-12-07_07h38.17.202,kallum_motion_pilot,2023.2.3,Win32,59.88023952,611ce3140be0fc75d7cf2c67,6560176e4d91f764e2a42c74,657159bc117ba01906a79147,0.6506,0.6508,0,40,40,142,1,eightsix,,,,,,,,,,,,,,,,,,,,,,,,,,,,,,,,,,,,,,,,,,,,,,,,,,,,,,,,,,,,,,,,,,,,,,,,,,,,,,,,,,,,,,,,,,,,,,,,,,,,,,,,,,,,,,,,,,,,,,,,,,,,,,,,,,,,,,,
,,611ce3140be0fc75d7cf2c67,2023-12-07_07h38.17.202,kallum_motion_pilot,2023.2.3,Win32,59.88023952,611ce3140be0fc75d7cf2c67,6560176e4d91f764e2a42c74,657159bc117ba01906a79147,0.6509,0.651,0,41,41,10,1,twoone,,,,,,,,,,,,,,,,,,,,,,,,,,,,,,,,,,,,,,,,,,,,,,,,,,,,,,,,,,,,,,,,,,,,,,,,,,,,,,,,,,,,,,,,,,,,,,,,,,,,,,,,,,,,,,,,,,,,,,,,,,,,,,,,,,,,,,,
,,611ce3140be0fc75d7cf2c67,2023-12-07_07h38.17.202,kallum_motion_pilot,2023.2.3,Win32,59.88023952,611ce3140be0fc75d7cf2c67,6560176e4d91f764e2a42c74,657159bc117ba01906a79147,0.6512,0.6514,0,42,42,138,1,sixfive,,,,,,,,,,,,,,,,,,,,,,,,,,,,,,,,,,,,,,,,,,,,,,,,,,,,,,,,,,,,,,,,,,,,,,,,,,,,,,,,,,,,,,,,,,,,,,,,,,,,,,,,,,,,,,,,,,,,,,,,,,,,,,,,,,,,,,,
,,611ce3140be0fc75d7cf2c67,2023-12-07_07h38.17.202,kallum_motion_pilot,2023.2.3,Win32,59.88023952,611ce3140be0fc75d7cf2c67,6560176e4d91f764e2a42c74,657159bc117ba01906a79147,0.6516,0.6517,0,43,43,34,1,twoone,,,,,,,,,,,,,,,,,,,,,,,,,,,,,,,,,,,,,,,,,,,,,,,,,,,,,,,,,,,,,,,,,,,,,,,,,,,,,,,,,,,,,,,,,,,,,,,,,,,,,,,,,,,,,,,,,,,,,,,,,,,,,,,,,,,,,,,
,,611ce3140be0fc75d7cf2c67,2023-12-07_07h38.17.202,kallum_motion_pilot,2023.2.3,Win32,59.88023952,611ce3140be0fc75d7cf2c67,6560176e4d91f764e2a42c74,657159bc117ba01906a79147,0.652,0.6521,0,44,44,136,1,fivesix,,,,,,,,,,,,,,,,,,,,,,,,,,,,,,,,,,,,,,,,,,,,,,,,,,,,,,,,,,,,,,,,,,,,,,,,,,,,,,,,,,,,,,,,,,,,,,,,,,,,,,,,,,,,,,,,,,,,,,,,,,,,,,,,,,,,,,,
,,611ce3140be0fc75d7cf2c67,2023-12-07_07h38.17.202,kallum_motion_pilot,2023.2.3,Win32,59.88023952,611ce3140be0fc75d7cf2c67,6560176e4d91f764e2a42c74,657159bc117ba01906a79147,0.6522,0.6524,0,45,45,110,1,eightsix,,,,,,,,,,,,,,,,,,,,,,,,,,,,,,,,,,,,,,,,,,,,,,,,,,,,,,,,,,,,,,,,,,,,,,,,,,,,,,,,,,,,,,,,,,,,,,,,,,,,,,,,,,,,,,,,,,,,,,,,,,,,,,,,,,,,,,,
,,611ce3140be0fc75d7cf2c67,2023-12-07_07h38.17.202,kallum_motion_pilot,2023.2.3,Win32,59.88023952,611ce3140be0fc75d7cf2c67,6560176e4d91f764e2a42c74,657159bc117ba01906a79147,0.6526,0.6527,0,46,46,105,1,fiveseven,,,,,,,,,,,,,,,,,,,,,,,,,,,,,,,,,,,,,,,,,,,,,,,,,,,,,,,,,,,,,,,,,,,,,,,,,,,,,,,,,,,,,,,,,,,,,,,,,,,,,,,,,,,,,,,,,,,,,,,,,,,,,,,,,,,,,,,
,,611ce3140be0fc75d7cf2c67,2023-12-07_07h38.17.202,kallum_motion_pilot,2023.2.3,Win32,59.88023952,611ce3140be0fc75d7cf2c67,6560176e4d91f764e2a42c74,657159bc117ba01906a79147,0.6529,0.653,0,47,47,120,1,fivesix,,,,,,,,,,,,,,,,,,,,,,,,,,,,,,,,,,,,,,,,,,,,,,,,,,,,,,,,,,,,,,,,,,,,,,,,,,,,,,,,,,,,,,,,,,,,,,,,,,,,,,,,,,,,,,,,,,,,,,,,,,,,,,,,,,,,,,,
,,611ce3140be0fc75d7cf2c67,2023-12-07_07h38.17.202,kallum_motion_pilot,2023.2.3,Win32,59.88023952,611ce3140be0fc75d7cf2c67,6560176e4d91f764e2a42c74,657159bc117ba01906a79147,0.6532,0.6533,0,48,48,78,1,fourtwo,,,,,,,,,,,,,,,,,,,,,,,,,,,,,,,,,,,,,,,,,,,,,,,,,,,,,,,,,,,,,,,,,,,,,,,,,,,,,,,,,,,,,,,,,,,,,,,,,,,,,,,,,,,,,,,,,,,,,,,,,,,,,,,,,,,,,,,
,,611ce3140be0fc75d7cf2c67,2023-12-07_07h38.17.202,kallum_motion_pilot,2023.2.3,Win32,59.88023952,611ce3140be0fc75d7cf2c67,6560176e4d91f764e2a42c74,657159bc117ba01906a79147,0.6536,0.6536,0,49,49,48,1,onetwo,,,,,,,,,,,,,,,,,,,,,,,,,,,,,,,,,,,,,,,,,,,,,,,,,,,,,,,,,,,,,,,,,,,,,,,,,,,,,,,,,,,,,,,,,,,,,,,,,,,,,,,,,,,,,,,,,,,,,,,,,,,,,,,,,,,,,,,
,,611ce3140be0fc75d7cf2c67,2023-12-07_07h38.17.202,kallum_motion_pilot,2023.2.3,Win32,59.88023952,611ce3140be0fc75d7cf2c67,6560176e4d91f764e2a42c74,657159bc117ba01906a79147,0.6538,0.654,0,50,50,19,1,twofour,,,,,,,,,,,,,,,,,,,,,,,,,,,,,,,,,,,,,,,,,,,,,,,,,,,,,,,,,,,,,,,,,,,,,,,,,,,,,,,,,,,,,,,,,,,,,,,,,,,,,,,,,,,,,,,,,,,,,,,,,,,,,,,,,,,,,,,
,,611ce3140be0fc75d7cf2c67,2023-12-07_07h38.17.202,kallum_motion_pilot,2023.2.3,Win32,59.88023952,611ce3140be0fc75d7cf2c67,6560176e4d91f764e2a42c74,657159bc117ba01906a79147,0.6542,0.6544,0,51,51,74,1,twoone,,,,,,,,,,,,,,,,,,,,,,,,,,,,,,,,,,,,,,,,,,,,,,,,,,,,,,,,,,,,,,,,,,,,,,,,,,,,,,,,,,,,,,,,,,,,,,,,,,,,,,,,,,,,,,,,,,,,,,,,,,,,,,,,,,,,,,,
,,611ce3140be0fc75d7cf2c67,2023-12-07_07h38.17.202,kallum_motion_pilot,2023.2.3,Win32,59.88023952,611ce3140be0fc75d7cf2c67,6560176e4d91f764e2a42c74,657159bc117ba01906a79147,0.6545,0.6546,0,52,52,102,1,eightsix,,,,,,,,,,,,,,,,,,,,,,,,,,,,,,,,,,,,,,,,,,,,,,,,,,,,,,,,,,,,,,,,,,,,,,,,,,,,,,,,,,,,,,,,,,,,,,,,,,,,,,,,,,,,,,,,,,,,,,,,,,,,,,,,,,,,,,,
,,611ce3140be0fc75d7cf2c67,2023-12-07_07h38.17.202,kallum_motion_pilot,2023.2.3,Win32,59.88023952,611ce3140be0fc75d7cf2c67,6560176e4d91f764e2a42c74,657159bc117ba01906a79147,0.6548,0.6549,0,53,53,122,1,sixfive,,,,,,,,,,,,,,,,,,,,,,,,,,,,,,,,,,,,,,,,,,,,,,,,,,,,,,,,,,,,,,,,,,,,,,,,,,,,,,,,,,,,,,,,,,,,,,,,,,,,,,,,,,,,,,,,,,,,,,,,,,,,,,,,,,,,,,,
,,611ce3140be0fc75d7cf2c67,2023-12-07_07h38.17.202,kallum_motion_pilot,2023.2.3,Win32,59.88023952,611ce3140be0fc75d7cf2c67,6560176e4d91f764e2a42c74,657159bc117ba01906a79147,0.6552,0.6554,0,54,54,111,1,eightseven,,,,,,,,,,,,,,,,,,,,,,,,,,,,,,,,,,,,,,,,,,,,,,,,,,,,,,,,,,,,,,,,,,,,,,,,,,,,,,,,,,,,,,,,,,,,,,,,,,,,,,,,,,,,,,,,,,,,,,,,,,,,,,,,,,,,,,,
,,611ce3140be0fc75d7cf2c67,2023-12-07_07h38.17.202,kallum_motion_pilot,2023.2.3,Win32,59.88023952,611ce3140be0fc75d7cf2c67,6560176e4d91f764e2a42c74,657159bc117ba01906a79147,0.6557,0.6557,0,55,55,43,1,twofour,,,,,,,,,,,,,,,,,,,,,,,,,,,,,,,,,,,,,,,,,,,,,,,,,,,,,,,,,,,,,,,,,,,,,,,,,,,,,,,,,,,,,,,,,,,,,,,,,,,,,,,,,,,,,,,,,,,,,,,,,,,,,,,,,,,,,,,
,,611ce3140be0fc75d7cf2c67,2023-12-07_07h38.17.202,kallum_motion_pilot,2023.2.3,Win32,59.88023952,611ce3140be0fc75d7cf2c67,6560176e4d91f764e2a42c74,657159bc117ba01906a79147,0.656,0.6561,0,56,56,118,1,eightsix,,,,,,,,,,,,,,,,,,,,,,,,,,,,,,,,,,,,,,,,,,,,,,,,,,,,,,,,,,,,,,,,,,,,,,,,,,,,,,,,,,,,,,,,,,,,,,,,,,,,,,,,,,,,,,,,,,,,,,,,,,,,,,,,,,,,,,,
,,611ce3140be0fc75d7cf2c67,2023-12-07_07h38.17.202,kallum_motion_pilot,2023.2.3,Win32,59.88023952,611ce3140be0fc75d7cf2c67,6560176e4d91f764e2a42c74,657159bc117ba01906a79147,0.6563,0.6564,0,57,57,103,1,eightseven,,,,,,,,,,,,,,,,,,,,,,,,,,,,,,,,,,,,,,,,,,,,,,,,,,,,,,,,,,,,,,,,,,,,,,,,,,,,,,,,,,,,,,,,,,,,,,,,,,,,,,,,,,,,,,,,,,,,,,,,,,,,,,,,,,,,,,,
,,611ce3140be0fc75d7cf2c67,2023-12-07_07h38.17.202,kallum_motion_pilot,2023.2.3,Win32,59.88023952,611ce3140be0fc75d7cf2c67,6560176e4d91f764e2a42c74,657159bc117ba01906a79147,0.6566,0.6568,0,58,58,109,1,seveneight,,,,,,,,,,,,,,,,,,,,,,,,,,,,,,,,,,,,,,,,,,,,,,,,,,,,,,,,,,,,,,,,,,,,,,,,,,,,,,,,,,,,,,,,,,,,,,,,,,,,,,,,,,,,,,,,,,,,,,,,,,,,,,,,,,,,,,,
,,611ce3140be0fc75d7cf2c67,2023-12-07_07h38.17.202,kallum_motion_pilot,2023.2.3,Win32,59.88023952,611ce3140be0fc75d7cf2c67,6560176e4d91f764e2a42c74,657159bc117ba01906a79147,0.657,0.6571,0,59,59,143,1,eightseven,,,,,,,,,,,,,,,,,,,,,,,,,,,,,,,,,,,,,,,,,,,,,,,,,,,,,,,,,,,,,,,,,,,,,,,,,,,,,,,,,,,,,,,,,,,,,,,,,,,,,,,,,,,,,,,,,,,,,,,,,,,,,,,,,,,,,,,
,,611ce3140be0fc75d7cf2c67,2023-12-07_07h38.17.202,kallum_motion_pilot,2023.2.3,Win32,59.88023952,611ce3140be0fc75d7cf2c67,6560176e4d91f764e2a42c74,657159bc117ba01906a79147,0.6573,0.6573,0,60,60,107,1,sixeight,,,,,,,,,,,,,,,,,,,,,,,,,,,,,,,,,,,,,,,,,,,,,,,,,,,,,,,,,,,,,,,,,,,,,,,,,,,,,,,,,,,,,,,,,,,,,,,,,,,,,,,,,,,,,,,,,,,,,,,,,,,,,,,,,,,,,,,
,,611ce3140be0fc75d7cf2c67,2023-12-07_07h38.17.202,kallum_motion_pilot,2023.2.3,Win32,59.88023952,611ce3140be0fc75d7cf2c67,6560176e4d91f764e2a42c74,657159bc117ba01906a79147,0.6575,0.6578,0,61,61,3,1,twofour,,,,,,,,,,,,,,,,,,,,,,,,,,,,,,,,,,,,,,,,,,,,,,,,,,,,,,,,,,,,,,,,,,,,,,,,,,,,,,,,,,,,,,,,,,,,,,,,,,,,,,,,,,,,,,,,,,,,,,,,,,,,,,,,,,,,,,,
,,611ce3140be0fc75d7cf2c67,2023-12-07_07h38.17.202,kallum_motion_pilot,2023.2.3,Win32,59.88023952,611ce3140be0fc75d7cf2c67,6560176e4d91f764e2a42c74,657159bc117ba01906a79147,0.658,0.6582,0,62,62,4,1,threeone,,,,,,,,,,,,,,,,,,,,,,,,,,,,,,,,,,,,,,,,,,,,,,,,,,,,,,,,,,,,,,,,,,,,,,,,,,,,,,,,,,,,,,,,,,,,,,,,,,,,,,,,,,,,,,,,,,,,,,,,,,,,,,,,,,,,,,,
,,611ce3140be0fc75d7cf2c67,2023-12-07_07h38.17.202,kallum_motion_pilot,2023.2.3,Win32,59.88023952,611ce3140be0fc75d7cf2c67,6560176e4d91f764e2a42c74,657159bc117ba01906a79147,0.6584,0.6585,0,63,63,0,1,onetwo,,,,,,,,,,,,,,,,,,,,,,,,,,,,,,,,,,,,,,,,,,,,,,,,,,,,,,,,,,,,,,,,,,,,,,,,,,,,,,,,,,,,,,,,,,,,,,,,,,,,,,,,,,,,,,,,,,,,,,,,,,,,,,,,,,,,,,,
,,611ce3140be0fc75d7cf2c67,2023-12-07_07h38.17.202,kallum_motion_pilot,2023.2.3,Win32,59.88023952,611ce3140be0fc75d7cf2c67,6560176e4d91f764e2a42c74,657159bc117ba01906a79147,0.6587,0.6589,0,64,64,76,1,threeone,,,,,,,,,,,,,,,,,,,,,,,,,,,,,,,,,,,,,,,,,,,,,,,,,,,,,,,,,,,,,,,,,,,,,,,,,,,,,,,,,,,,,,,,,,,,,,,,,,,,,,,,,,,,,,,,,,,,,,,,,,,,,,,,,,,,,,,
,,611ce3140be0fc75d7cf2c67,2023-12-07_07h38.17.202,kallum_motion_pilot,2023.2.3,Win32,59.88023952,611ce3140be0fc75d7cf2c67,6560176e4d91f764e2a42c74,657159bc117ba01906a79147,0.659,0.6592,0,65,65,47,1,fourthree,,,,,,,,,,,,,,,,,,,,,,,,,,,,,,,,,,,,,,,,,,,,,,,,,,,,,,,,,,,,,,,,,,,,,,,,,,,,,,,,,,,,,,,,,,,,,,,,,,,,,,,,,,,,,,,,,,,,,,,,,,,,,,,,,,,,,,,
,,611ce3140be0fc75d7cf2c67,2023-12-07_07h38.17.202,kallum_motion_pilot,2023.2.3,Win32,59.88023952,611ce3140be0fc75d7cf2c67,6560176e4d91f764e2a42c74,657159bc117ba01906a79147,0.6594,0.6595,0,66,66,45,1,threefour,,,,,,,,,,,,,,,,,,,,,,,,,,,,,,,,,,,,,,,,,,,,,,,,,,,,,,,,,,,,,,,,,,,,,,,,,,,,,,,,,,,,,,,,,,,,,,,,,,,,,,,,,,,,,,,,,,,,,,,,,,,,,,,,,,,,,,,
,,611ce3140be0fc75d7cf2c67,2023-12-07_07h38.17.202,kallum_motion_pilot,2023.2.3,Win32,59.88023952,611ce3140be0fc75d7cf2c67,6560176e4d91f764e2a42c74,657159bc117ba01906a79147,0.6597,0.6599,0,67,67,91,1,sixeight,,,,,,,,,,,,,,,,,,,,,,,,,,,,,,,,,,,,,,,,,,,,,,,,,,,,,,,,,,,,,,,,,,,,,,,,,,,,,,,,,,,,,,,,,,,,,,,,,,,,,,,,,,,,,,,,,,,,,,,,,,,,,,,,,,,,,,,
,,611ce3140be0fc75d7cf2c67,2023-12-07_07h38.17.202,kallum_motion_pilot,2023.2.3,Win32,59.88023952,611ce3140be0fc75d7cf2c67,6560176e4d91f764e2a42c74,657159bc117ba01906a79147,0.66,0.6602,0,68,68,101,1,seveneight,,,,,,,,,,,,,,,,,,,,,,,,,,,,,,,,,,,,,,,,,,,,,,,,,,,,,,,,,,,,,,,,,,,,,,,,,,,,,,,,,,,,,,,,,,,,,,,,,,,,,,,,,,,,,,,,,,,,,,,,,,,,,,,,,,,,,,,
,,611ce3140be0fc75d7cf2c67,2023-12-07_07h38.17.202,kallum_motion_pilot,2023.2.3,Win32,59.88023952,611ce3140be0fc75d7cf2c67,6560176e4d91f764e2a42c74,657159bc117ba01906a79147,0.6604,0.6605,0,69,69,52,1,threeone,,,,,,,,,,,,,,,,,,,,,,,,,,,,,,,,,,,,,,,,,,,,,,,,,,,,,,,,,,,,,,,,,,,,,,,,,,,,,,,,,,,,,,,,,,,,,,,,,,,,,,,,,,,,,,,,,,,,,,,,,,,,,,,,,,,,,,,
,,611ce3140be0fc75d7cf2c67,2023-12-07_07h38.17.202,kallum_motion_pilot,2023.2.3,Win32,59.88023952,611ce3140be0fc75d7cf2c67,6560176e4d91f764e2a42c74,657159bc117ba01906a79147,0.6607,0.6608,0,70,70,161,1,fiveseven,,,,,,,,,,,,,,,,,,,,,,,,,,,,,,,,,,,,,,,,,,,,,,,,,,,,,,,,,,,,,,,,,,,,,,,,,,,,,,,,,,,,,,,,,,,,,,,,,,,,,,,,,,,,,,,,,,,,,,,,,,,,,,,,,,,,,,,
,,611ce3140be0fc75d7cf2c67,2023-12-07_07h38.17.202,kallum_motion_pilot,2023.2.3,Win32,59.88023952,611ce3140be0fc75d7cf2c67,6560176e4d91f764e2a42c74,657159bc117ba01906a79147,0.6609,0.6612,0,71,71,1,1,onethree,,,,,,,,,,,,,,,,,,,,,,,,,,,,,,,,,,,,,,,,,,,,,,,,,,,,,,,,,,,,,,,,,,,,,,,,,,,,,,,,,,,,,,,,,,,,,,,,,,,,,,,,,,,,,,,,,,,,,,,,,,,,,,,,,,,,,,,
,,611ce3140be0fc75d7cf2c67,2023-12-07_07h38.17.202,kallum_motion_pilot,2023.2.3,Win32,59.88023952,611ce3140be0fc75d7cf2c67,6560176e4d91f764e2a42c74,657159bc117ba01906a79147,0.6613,0.6615,0,72,72,153,1,fiveseven,,,,,,,,,,,,,,,,,,,,,,,,,,,,,,,,,,,,,,,,,,,,,,,,,,,,,,,,,,,,,,,,,,,,,,,,,,,,,,,,,,,,,,,,,,,,,,,,,,,,,,,,,,,,,,,,,,,,,,,,,,,,,,,,,,,,,,,
,,611ce3140be0fc75d7cf2c67,2023-12-07_07h38.17.202,kallum_motion_pilot,2023.2.3,Win32,59.88023952,611ce3140be0fc75d7cf2c67,6560176e4d91f764e2a42c74,657159bc117ba01906a79147,0.6617,0.6618,0,73,73,106,1,sixfive,,,,,,,,,,,,,,,,,,,,,,,,,,,,,,,,,,,,,,,,,,,,,,,,,,,,,,,,,,,,,,,,,,,,,,,,,,,,,,,,,,,,,,,,,,,,,,,,,,,,,,,,,,,,,,,,,,,,,,,,,,,,,,,,,,,,,,,
,,611ce3140be0fc75d7cf2c67,2023-12-07_07h38.17.202,kallum_motion_pilot,2023.2.3,Win32,59.88023952,611ce3140be0fc75d7cf2c67,6560176e4d91f764e2a42c74,657159bc117ba01906a79147,0.662,0.662,0,74,74,63,1,fourthree,,,,,,,,,,,,,,,,,,,,,,,,,,,,,,,,,,,,,,,,,,,,,,,,,,,,,,,,,,,,,,,,,,,,,,,,,,,,,,,,,,,,,,,,,,,,,,,,,,,,,,,,,,,,,,,,,,,,,,,,,,,,,,,,,,,,,,,
,,611ce3140be0fc75d7cf2c67,2023-12-07_07h38.17.202,kallum_motion_pilot,2023.2.3,Win32,59.88023952,611ce3140be0fc75d7cf2c67,6560176e4d91f764e2a42c74,657159bc117ba01906a79147,0.6623,0.6624,0,75,75,40,1,onetwo,,,,,,,,,,,,,,,,,,,,,,,,,,,,,,,,,,,,,,,,,,,,,,,,,,,,,,,,,,,,,,,,,,,,,,,,,,,,,,,,,,,,,,,,,,,,,,,,,,,,,,,,,,,,,,,,,,,,,,,,,,,,,,,,,,,,,,,
,,611ce3140be0fc75d7cf2c67,2023-12-07_07h38.17.202,kallum_motion_pilot,2023.2.3,Win32,59.88023952,611ce3140be0fc75d7cf2c67,6560176e4d91f764e2a42c74,657159bc117ba01906a79147,0.6626,0.6627,0,76,76,21,1,threefour,,,,,,,,,,,,,,,,,,,,,,,,,,,,,,,,,,,,,,,,,,,,,,,,,,,,,,,,,,,,,,,,,,,,,,,,,,,,,,,,,,,,,,,,,,,,,,,,,,,,,,,,,,,,,,,,,,,,,,,,,,,,,,,,,,,,,,,
,,611ce3140be0fc75d7cf2c67,2023-12-07_07h38.17.202,kallum_motion_pilot,2023.2.3,Win32,59.88023952,611ce3140be0fc75d7cf2c67,6560176e4d91f764e2a42c74,657159bc117ba01906a79147,0.6629,0.663,0,77,77,95,1,eightseven,,,,,,,,,,,,,,,,,,,,,,,,,,,,,,,,,,,,,,,,,,,,,,,,,,,,,,,,,,,,,,,,,,,,,,,,,,,,,,,,,,,,,,,,,,,,,,,,,,,,,,,,,,,,,,,,,,,,,,,,,,,,,,,,,,,,,,,
,,611ce3140be0fc75d7cf2c67,2023-12-07_07h38.17.202,kallum_motion_pilot,2023.2.3,Win32,59.88023952,611ce3140be0fc75d7cf2c67,6560176e4d91f764e2a42c74,657159bc117ba01906a79147,0.6632,0.6634,0,78,78,132,1,sevenfive,,,,,,,,,,,,,,,,,,,,,,,,,,,,,,,,,,,,,,,,,,,,,,,,,,,,,,,,,,,,,,,,,,,,,,,,,,,,,,,,,,,,,,,,,,,,,,,,,,,,,,,,,,,,,,,,,,,,,,,,,,,,,,,,,,,,,,,
,,611ce3140be0fc75d7cf2c67,2023-12-07_07h38.17.202,kallum_motion_pilot,2023.2.3,Win32,59.88023952,611ce3140be0fc75d7cf2c67,6560176e4d91f764e2a42c74,657159bc117ba01906a79147,0.6635,0.6638,0,79,79,85,1,seveneight,,,,,,,,,,,,,,,,,,,,,,,,,,,,,,,,,,,,,,,,,,,,,,,,,,,,,,,,,,,,,,,,,,,,,,,,,,,,,,,,,,,,,,,,,,,,,,,,,,,,,,,,,,,,,,,,,,,,,,,,,,,,,,,,,,,,,,,
,,611ce3140be0fc75d7cf2c67,2023-12-07_07h38.17.202,kallum_motion_pilot,2023.2.3,Win32,59.88023952,611ce3140be0fc75d7cf2c67,6560176e4d91f764e2a42c74,657159bc117ba01906a79147,0.664,0.6642,0,80,80,41,1,onethree,,,,,,,,,,,,,,,,,,,,,,,,,,,,,,,,,,,,,,,,,,,,,,,,,,,,,,,,,,,,,,,,,,,,,,,,,,,,,,,,,,,,,,,,,,,,,,,,,,,,,,,,,,,,,,,,,,,,,,,,,,,,,,,,,,,,,,,
,,611ce3140be0fc75d7cf2c67,2023-12-07_07h38.17.202,kallum_motion_pilot,2023.2.3,Win32,59.88023952,611ce3140be0fc75d7cf2c67,6560176e4d91f764e2a42c74,657159bc117ba01906a79147,0.6643,0.6645,0,81,81,92,1,sevenfive,,,,,,,,,,,,,,,,,,,,,,,,,,,,,,,,,,,,,,,,,,,,,,,,,,,,,,,,,,,,,,,,,,,,,,,,,,,,,,,,,,,,,,,,,,,,,,,,,,,,,,,,,,,,,,,,,,,,,,,,,,,,,,,,,,,,,,,
,,611ce3140be0fc75d7cf2c67,2023-12-07_07h38.17.202,kallum_motion_pilot,2023.2.3,Win32,59.88023952,611ce3140be0fc75d7cf2c67,6560176e4d91f764e2a42c74,657159bc117ba01906a79147,0.6646,0.6648,0,82,82,147,1,sixeight,,,,,,,,,,,,,,,,,,,,,,,,,,,,,,,,,,,,,,,,,,,,,,,,,,,,,,,,,,,,,,,,,,,,,,,,,,,,,,,,,,,,,,,,,,,,,,,,,,,,,,,,,,,,,,,,,,,,,,,,,,,,,,,,,,,,,,,
,,611ce3140be0fc75d7cf2c67,2023-12-07_07h38.17.202,kallum_motion_pilot,2023.2.3,Win32,59.88023952,611ce3140be0fc75d7cf2c67,6560176e4d91f764e2a42c74,657159bc117ba01906a79147,0.6653,0.6655,0,83,83,67,1,twofour,,,,,,,,,,,,,,,,,,,,,,,,,,,,,,,,,,,,,,,,,,,,,,,,,,,,,,,,,,,,,,,,,,,,,,,,,,,,,,,,,,,,,,,,,,,,,,,,,,,,,,,,,,,,,,,,,,,,,,,,,,,,,,,,,,,,,,,
,,611ce3140be0fc75d7cf2c67,2023-12-07_07h38.17.202,kallum_motion_pilot,2023.2.3,Win32,59.88023952,611ce3140be0fc75d7cf2c67,6560176e4d91f764e2a42c74,657159bc117ba01906a79147,0.6657,0.6658,0,84,84,62,1,fourtwo,,,,,,,,,,,,,,,,,,,,,,,,,,,,,,,,,,,,,,,,,,,,,,,,,,,,,,,,,,,,,,,,,,,,,,,,,,,,,,,,,,,,,,,,,,,,,,,,,,,,,,,,,,,,,,,,,,,,,,,,,,,,,,,,,,,,,,,
,,611ce3140be0fc75d7cf2c67,2023-12-07_07h38.17.202,kallum_motion_pilot,2023.2.3,Win32,59.88023952,611ce3140be0fc75d7cf2c67,6560176e4d91f764e2a42c74,657159bc117ba01906a79147,0.6661,0.6661,0,85,85,33,1,onethree,,,,,,,,,,,,,,,,,,,,,,,,,,,,,,,,,,,,,,,,,,,,,,,,,,,,,,,,,,,,,,,,,,,,,,,,,,,,,,,,,,,,,,,,,,,,,,,,,,,,,,,,,,,,,,,,,,,,,,,,,,,,,,,,,,,,,,,
,,611ce3140be0fc75d7cf2c67,2023-12-07_07h38.17.202,kallum_motion_pilot,2023.2.3,Win32,59.88023952,611ce3140be0fc75d7cf2c67,6560176e4d91f764e2a42c74,657159bc117ba01906a79147,0.6664,0.6665,0,86,86,39,1,fourthree,,,,,,,,,,,,,,,,,,,,,,,,,,,,,,,,,,,,,,,,,,,,,,,,,,,,,,,,,,,,,,,,,,,,,,,,,,,,,,,,,,,,,,,,,,,,,,,,,,,,,,,,,,,,,,,,,,,,,,,,,,,,,,,,,,,,,,,
,,611ce3140be0fc75d7cf2c67,2023-12-07_07h38.17.202,kallum_motion_pilot,2023.2.3,Win32,59.88023952,611ce3140be0fc75d7cf2c67,6560176e4d91f764e2a42c74,657159bc117ba01906a79147,0.6667,0.6668,0,87,87,112,1,fivesix,,,,,,,,,,,,,,,,,,,,,,,,,,,,,,,,,,,,,,,,,,,,,,,,,,,,,,,,,,,,,,,,,,,,,,,,,,,,,,,,,,,,,,,,,,,,,,,,,,,,,,,,,,,,,,,,,,,,,,,,,,,,,,,,,,,,,,,
,,611ce3140be0fc75d7cf2c67,2023-12-07_07h38.17.202,kallum_motion_pilot,2023.2.3,Win32,59.88023952,611ce3140be0fc75d7cf2c67,6560176e4d91f764e2a42c74,657159bc117ba01906a79147,0.667,0.6671,0,88,88,56,1,onetwo,,,,,,,,,,,,,,,,,,,,,,,,,,,,,,,,,,,,,,,,,,,,,,,,,,,,,,,,,,,,,,,,,,,,,,,,,,,,,,,,,,,,,,,,,,,,,,,,,,,,,,,,,,,,,,,,,,,,,,,,,,,,,,,,,,,,,,,
,,611ce3140be0fc75d7cf2c67,2023-12-07_07h38.17.202,kallum_motion_pilot,2023.2.3,Win32,59.88023952,611ce3140be0fc75d7cf2c67,6560176e4d91f764e2a42c74,657159bc117ba01906a79147,0.6674,0.6674,0,89,89,44,1,threeone,,,,,,,,,,,,,,,,,,,,,,,,,,,,,,,,,,,,,,,,,,,,,,,,,,,,,,,,,,,,,,,,,,,,,,,,,,,,,,,,,,,,,,,,,,,,,,,,,,,,,,,,,,,,,,,,,,,,,,,,,,,,,,,,,,,,,,,
,,611ce3140be0fc75d7cf2c67,2023-12-07_07h38.17.202,kallum_motion_pilot,2023.2.3,Win32,59.88023952,611ce3140be0fc75d7cf2c67,6560176e4d91f764e2a42c74,657159bc117ba01906a79147,0.6676,0.6678,0,90,90,24,1,onetwo,,,,,,,,,,,,,,,,,,,,,,,,,,,,,,,,,,,,,,,,,,,,,,,,,,,,,,,,,,,,,,,,,,,,,,,,,,,,,,,,,,,,,,,,,,,,,,,,,,,,,,,,,,,,,,,,,,,,,,,,,,,,,,,,,,,,,,,
,,611ce3140be0fc75d7cf2c67,2023-12-07_07h38.17.202,kallum_motion_pilot,2023.2.3,Win32,59.88023952,611ce3140be0fc75d7cf2c67,6560176e4d91f764e2a42c74,657159bc117ba01906a79147,0.668,0.6682,0,91,91,98,1,sixfive,,,,,,,,,,,,,,,,,,,,,,,,,,,,,,,,,,,,,,,,,,,,,,,,,,,,,,,,,,,,,,,,,,,,,,,,,,,,,,,,,,,,,,,,,,,,,,,,,,,,,,,,,,,,,,,,,,,,,,,,,,,,,,,,,,,,,,,
,,611ce3140be0fc75d7cf2c67,2023-12-07_07h38.17.202,kallum_motion_pilot,2023.2.3,Win32,59.88023952,611ce3140be0fc75d7cf2c67,6560176e4d91f764e2a42c74,657159bc117ba01906a79147,0.6683,0.6684,0,92,92,66,1,twoone,,,,,,,,,,,,,,,,,,,,,,,,,,,,,,,,,,,,,,,,,,,,,,,,,,,,,,,,,,,,,,,,,,,,,,,,,,,,,,,,,,,,,,,,,,,,,,,,,,,,,,,,,,,,,,,,,,,,,,,,,,,,,,,,,,,,,,,
,,611ce3140be0fc75d7cf2c67,2023-12-07_07h38.17.202,kallum_motion_pilot,2023.2.3,Win32,59.88023952,611ce3140be0fc75d7cf2c67,6560176e4d91f764e2a42c74,657159bc117ba01906a79147,0.6687,0.6688,0,93,93,12,1,threeone,,,,,,,,,,,,,,,,,,,,,,,,,,,,,,,,,,,,,,,,,,,,,,,,,,,,,,,,,,,,,,,,,,,,,,,,,,,,,,,,,,,,,,,,,,,,,,,,,,,,,,,,,,,,,,,,,,,,,,,,,,,,,,,,,,,,,,,
,,611ce3140be0fc75d7cf2c67,2023-12-07_07h38.17.202,kallum_motion_pilot,2023.2.3,Win32,59.88023952,611ce3140be0fc75d7cf2c67,6560176e4d91f764e2a42c74,657159bc117ba01906a79147,0.669,0.6691,0,94,94,108,1,sevenfive,,,,,,,,,,,,,,,,,,,,,,,,,,,,,,,,,,,,,,,,,,,,,,,,,,,,,,,,,,,,,,,,,,,,,,,,,,,,,,,,,,,,,,,,,,,,,,,,,,,,,,,,,,,,,,,,,,,,,,,,,,,,,,,,,,,,,,,
,,611ce3140be0fc75d7cf2c67,2023-12-07_07h38.17.202,kallum_motion_pilot,2023.2.3,Win32,59.88023952,611ce3140be0fc75d7cf2c67,6560176e4d91f764e2a42c74,657159bc117ba01906a79147,0.6693,0.6695,0,95,95,29,1,threefour,,,,,,,,,,,,,,,,,,,,,,,,,,,,,,,,,,,,,,,,,,,,,,,,,,,,,,,,,,,,,,,,,,,,,,,,,,,,,,,,,,,,,,,,,,,,,,,,,,,,,,,,,,,,,,,,,,,,,,,,,,,,,,,,,,,,,,,
,,611ce3140be0fc75d7cf2c67,2023-12-07_07h38.17.202,kallum_motion_pilot,2023.2.3,Win32,59.88023952,611ce3140be0fc75d7cf2c67,6560176e4d91f764e2a42c74,657159bc117ba01906a79147,0.6697,0.6698,0,96,96,61,1,threefour,,,,,,,,,,,,,,,,,,,,,,,,,,,,,,,,,,,,,,,,,,,,,,,,,,,,,,,,,,,,,,,,,,,,,,,,,,,,,,,,,,,,,,,,,,,,,,,,,,,,,,,,,,,,,,,,,,,,,,,,,,,,,,,,,,,,,,,
,,611ce3140be0fc75d7cf2c67,2023-12-07_07h38.17.202,kallum_motion_pilot,2023.2.3,Win32,59.88023952,611ce3140be0fc75d7cf2c67,6560176e4d91f764e2a42c74,657159bc117ba01906a79147,0.67,0.6701,0,97,97,146,1,sixfive,,,,,,,,,,,,,,,,,,,,,,,,,,,,,,,,,,,,,,,,,,,,,,,,,,,,,,,,,,,,,,,,,,,,,,,,,,,,,,,,,,,,,,,,,,,,,,,,,,,,,,,,,,,,,,,,,,,,,,,,,,,,,,,,,,,,,,,
,,611ce3140be0fc75d7cf2c67,2023-12-07_07h38.17.202,kallum_motion_pilot,2023.2.3,Win32,59.88023952,611ce3140be0fc75d7cf2c67,6560176e4d91f764e2a42c74,657159bc117ba01906a79147,0.6703,0.6705,0,98,98,25,1,onethree,,,,,,,,,,,,,,,,,,,,,,,,,,,,,,,,,,,,,,,,,,,,,,,,,,,,,,,,,,,,,,,,,,,,,,,,,,,,,,,,,,,,,,,,,,,,,,,,,,,,,,,,,,,,,,,,,,,,,,,,,,,,,,,,,,,,,,,
,,611ce3140be0fc75d7cf2c67,2023-12-07_07h38.17.202,kallum_motion_pilot,2023.2.3,Win32,59.88023952,611ce3140be0fc75d7cf2c67,6560176e4d91f764e2a42c74,657159bc117ba01906a79147,0.6707,0.6708,0,99,99,37,1,threefour,,,,,,,,,,,,,,,,,,,,,,,,,,,,,,,,,,,,,,,,,,,,,,,,,,,,,,,,,,,,,,,,,,,,,,,,,,,,,,,,,,,,,,,,,,,,,,,,,,,,,,,,,,,,,,,,,,,,,,,,,,,,,,,,,,,,,,,
,,611ce3140be0fc75d7cf2c67,2023-12-07_07h38.17.202,kallum_motion_pilot,2023.2.3,Win32,59.88023952,611ce3140be0fc75d7cf2c67,6560176e4d91f764e2a42c74,657159bc117ba01906a79147,0.671,0.6712,0,100,100,68,1,threeone,,,,,,,,,,,,,,,,,,,,,,,,,,,,,,,,,,,,,,,,,,,,,,,,,,,,,,,,,,,,,,,,,,,,,,,,,,,,,,,,,,,,,,,,,,,,,,,,,,,,,,,,,,,,,,,,,,,,,,,,,,,,,,,,,,,,,,,
,,611ce3140be0fc75d7cf2c67,2023-12-07_07h38.17.202,kallum_motion_pilot,2023.2.3,Win32,59.88023952,611ce3140be0fc75d7cf2c67,6560176e4d91f764e2a42c74,657159bc117ba01906a79147,0.6713,0.6715,0,101,101,125,1,seveneight,,,,,,,,,,,,,,,,,,,,,,,,,,,,,,,,,,,,,,,,,,,,,,,,,,,,,,,,,,,,,,,,,,,,,,,,,,,,,,,,,,,,,,,,,,,,,,,,,,,,,,,,,,,,,,,,,,,,,,,,,,,,,,,,,,,,,,,
,,611ce3140be0fc75d7cf2c67,2023-12-07_07h38.17.202,kallum_motion_pilot,2023.2.3,Win32,59.88023952,611ce3140be0fc75d7cf2c67,6560176e4d91f764e2a42c74,657159bc117ba01906a79147,0.6716,0.6719,0,102,102,79,1,eightseven,,,,,,,,,,,,,,,,,,,,,,,,,,,,,,,,,,,,,,,,,,,,,,,,,,,,,,,,,,,,,,,,,,,,,,,,,,,,,,,,,,,,,,,,,,,,,,,,,,,,,,,,,,,,,,,,,,,,,,,,,,,,,,,,,,,,,,,
,,611ce3140be0fc75d7cf2c67,2023-12-07_07h38.17.202,kallum_motion_pilot,2023.2.3,Win32,59.88023952,611ce3140be0fc75d7cf2c67,6560176e4d91f764e2a42c74,657159bc117ba01906a79147,0.6722,0.6723,0,103,103,155,1,sixeight,,,,,,,,,,,,,,,,,,,,,,,,,,,,,,,,,,,,,,,,,,,,,,,,,,,,,,,,,,,,,,,,,,,,,,,,,,,,,,,,,,,,,,,,,,,,,,,,,,,,,,,,,,,,,,,,,,,,,,,,,,,,,,,,,,,,,,,
,,611ce3140be0fc75d7cf2c67,2023-12-07_07h38.17.202,kallum_motion_pilot,2023.2.3,Win32,59.88023952,611ce3140be0fc75d7cf2c67,6560176e4d91f764e2a42c74,657159bc117ba01906a79147,0.6725,0.6726,0,104,104,84,1,sevenfive,,,,,,,,,,,,,,,,,,,,,,,,,,,,,,,,,,,,,,,,,,,,,,,,,,,,,,,,,,,,,,,,,,,,,,,,,,,,,,,,,,,,,,,,,,,,,,,,,,,,,,,,,,,,,,,,,,,,,,,,,,,,,,,,,,,,,,,
,,611ce3140be0fc75d7cf2c67,2023-12-07_07h38.17.202,kallum_motion_pilot,2023.2.3,Win32,59.88023952,611ce3140be0fc75d7cf2c67,6560176e4d91f764e2a42c74,657159bc117ba01906a79147,0.6729,0.673,0,105,105,59,1,twofour,,,,,,,,,,,,,,,,,,,,,,,,,,,,,,,,,,,,,,,,,,,,,,,,,,,,,,,,,,,,,,,,,,,,,,,,,,,,,,,,,,,,,,,,,,,,,,,,,,,,,,,,,,,,,,,,,,,,,,,,,,,,,,,,,,,,,,,
,,611ce3140be0fc75d7cf2c67,2023-12-07_07h38.17.202,kallum_motion_pilot,2023.2.3,Win32,59.88023952,611ce3140be0fc75d7cf2c67,6560176e4d91f764e2a42c74,657159bc117ba01906a79147,0.6732,0.6733,0,106,106,46,1,fourtwo,,,,,,,,,,,,,,,,,,,,,,,,,,,,,,,,,,,,,,,,,,,,,,,,,,,,,,,,,,,,,,,,,,,,,,,,,,,,,,,,,,,,,,,,,,,,,,,,,,,,,,,,,,,,,,,,,,,,,,,,,,,,,,,,,,,,,,,
,,611ce3140be0fc75d7cf2c67,2023-12-07_07h38.17.202,kallum_motion_pilot,2023.2.3,Win32,59.88023952,611ce3140be0fc75d7cf2c67,6560176e4d91f764e2a42c74,657159bc117ba01906a79147,0.6736,0.6736,0,107,107,156,1,sevenfive,,,,,,,,,,,,,,,,,,,,,,,,,,,,,,,,,,,,,,,,,,,,,,,,,,,,,,,,,,,,,,,,,,,,,,,,,,,,,,,,,,,,,,,,,,,,,,,,,,,,,,,,,,,,,,,,,,,,,,,,,,,,,,,,,,,,,,,
,,611ce3140be0fc75d7cf2c67,2023-12-07_07h38.17.202,kallum_motion_pilot,2023.2.3,Win32,59.88023952,611ce3140be0fc75d7cf2c67,6560176e4d91f764e2a42c74,657159bc117ba01906a79147,0.6743,0.6744,0,108,108,89,1,fiveseven,,,,,,,,,,,,,,,,,,,,,,,,,,,,,,,,,,,,,,,,,,,,,,,,,,,,,,,,,,,,,,,,,,,,,,,,,,,,,,,,,,,,,,,,,,,,,,,,,,,,,,,,,,,,,,,,,,,,,,,,,,,,,,,,,,,,,,,
,,611ce3140be0fc75d7cf2c67,2023-12-07_07h38.17.202,kallum_motion_pilot,2023.2.3,Win32,59.88023952,611ce3140be0fc75d7cf2c67,6560176e4d91f764e2a42c74,657159bc117ba01906a79147,0.6747,0.6748,0,109,109,121,1,fiveseven,,,,,,,,,,,,,,,,,,,,,,,,,,,,,,,,,,,,,,,,,,,,,,,,,,,,,,,,,,,,,,,,,,,,,,,,,,,,,,,,,,,,,,,,,,,,,,,,,,,,,,,,,,,,,,,,,,,,,,,,,,,,,,,,,,,,,,,
,,611ce3140be0fc75d7cf2c67,2023-12-07_07h38.17.202,kallum_motion_pilot,2023.2.3,Win32,59.88023952,611ce3140be0fc75d7cf2c67,6560176e4d91f764e2a42c74,657159bc117ba01906a79147,0.675,0.6751,0,110,110,100,1,sevenfive,,,,,,,,,,,,,,,,,,,,,,,,,,,,,,,,,,,,,,,,,,,,,,,,,,,,,,,,,,,,,,,,,,,,,,,,,,,,,,,,,,,,,,,,,,,,,,,,,,,,,,,,,,,,,,,,,,,,,,,,,,,,,,,,,,,,,,,
,,611ce3140be0fc75d7cf2c67,2023-12-07_07h38.17.202,kallum_motion_pilot,2023.2.3,Win32,59.88023952,611ce3140be0fc75d7cf2c67,6560176e4d91f764e2a42c74,657159bc117ba01906a79147,0.6753,0.6755,0,111,111,35,1,twofour,,,,,,,,,,,,,,,,,,,,,,,,,,,,,,,,,,,,,,,,,,,,,,,,,,,,,,,,,,,,,,,,,,,,,,,,,,,,,,,,,,,,,,,,,,,,,,,,,,,,,,,,,,,,,,,,,,,,,,,,,,,,,,,,,,,,,,,
,,611ce3140be0fc75d7cf2c67,2023-12-07_07h38.17.202,kallum_motion_pilot,2023.2.3,Win32,59.88023952,611ce3140be0fc75d7cf2c67,6560176e4d91f764e2a42c74,657159bc117ba01906a79147,0.6756,0.6758,0,112,112,72,1,onetwo,,,,,,,,,,,,,,,,,,,,,,,,,,,,,,,,,,,,,,,,,,,,,,,,,,,,,,,,,,,,,,,,,,,,,,,,,,,,,,,,,,,,,,,,,,,,,,,,,,,,,,,,,,,,,,,,,,,,,,,,,,,,,,,,,,,,,,,
,,611ce3140be0fc75d7cf2c67,2023-12-07_07h38.17.202,kallum_motion_pilot,2023.2.3,Win32,59.88023952,611ce3140be0fc75d7cf2c67,6560176e4d91f764e2a42c74,657159bc117ba01906a79147,0.676,0.6762,0,113,113,158,1,eightsix,,,,,,,,,,,,,,,,,,,,,,,,,,,,,,,,,,,,,,,,,,,,,,,,,,,,,,,,,,,,,,,,,,,,,,,,,,,,,,,,,,,,,,,,,,,,,,,,,,,,,,,,,,,,,,,,,,,,,,,,,,,,,,,,,,,,,,,
,,611ce3140be0fc75d7cf2c67,2023-12-07_07h38.17.202,kallum_motion_pilot,2023.2.3,Win32,59.88023952,611ce3140be0fc75d7cf2c67,6560176e4d91f764e2a42c74,657159bc117ba01906a79147,0.6763,0.6765,0,114,114,17,1,onethree,,,,,,,,,,,,,,,,,,,,,,,,,,,,,,,,,,,,,,,,,,,,,,,,,,,,,,,,,,,,,,,,,,,,,,,,,,,,,,,,,,,,,,,,,,,,,,,,,,,,,,,,,,,,,,,,,,,,,,,,,,,,,,,,,,,,,,,
,,611ce3140be0fc75d7cf2c67,2023-12-07_07h38.17.202,kallum_motion_pilot,2023.2.3,Win32,59.88023952,611ce3140be0fc75d7cf2c67,6560176e4d91f764e2a42c74,657159bc117ba01906a79147,0.6767,0.6768,0,115,115,140,1,sevenfive,,,,,,,,,,,,,,,,,,,,,,,,,,,,,,,,,,,,,,,,,,,,,,,,,,,,,,,,,,,,,,,,,,,,,,,,,,,,,,,,,,,,,,,,,,,,,,,,,,,,,,,,,,,,,,,,,,,,,,,,,,,,,,,,,,,,,,,
,,611ce3140be0fc75d7cf2c67,2023-12-07_07h38.17.202,kallum_motion_pilot,2023.2.3,Win32,59.88023952,611ce3140be0fc75d7cf2c67,6560176e4d91f764e2a42c74,657159bc117ba01906a79147,0.6771,0.6772,0,116,116,15,1,fourthree,,,,,,,,,,,,,,,,,,,,,,,,,,,,,,,,,,,,,,,,,,,,,,,,,,,,,,,,,,,,,,,,,,,,,,,,,,,,,,,,,,,,,,,,,,,,,,,,,,,,,,,,,,,,,,,,,,,,,,,,,,,,,,,,,,,,,,,
,,611ce3140be0fc75d7cf2c67,2023-12-07_07h38.17.202,kallum_motion_pilot,2023.2.3,Win32,59.88023952,611ce3140be0fc75d7cf2c67,6560176e4d91f764e2a42c74,657159bc117ba01906a79147,0.6774,0.6776,0,117,117,2,1,twoone,,,,,,,,,,,,,,,,,,,,,,,,,,,,,,,,,,,,,,,,,,,,,,,,,,,,,,,,,,,,,,,,,,,,,,,,,,,,,,,,,,,,,,,,,,,,,,,,,,,,,,,,,,,,,,,,,,,,,,,,,,,,,,,,,,,,,,,
,,611ce3140be0fc75d7cf2c67,2023-12-07_07h38.17.202,kallum_motion_pilot,2023.2.3,Win32,59.88023952,611ce3140be0fc75d7cf2c67,6560176e4d91f764e2a42c74,657159bc117ba01906a79147,0.6777,0.6779,0,118,118,115,1,sixeight,,,,,,,,,,,,,,,,,,,,,,,,,,,,,,,,,,,,,,,,,,,,,,,,,,,,,,,,,,,,,,,,,,,,,,,,,,,,,,,,,,,,,,,,,,,,,,,,,,,,,,,,,,,,,,,,,,,,,,,,,,,,,,,,,,,,,,,
,,611ce3140be0fc75d7cf2c67,2023-12-07_07h38.17.202,kallum_motion_pilot,2023.2.3,Win32,59.88023952,611ce3140be0fc75d7cf2c67,6560176e4d91f764e2a42c74,657159bc117ba01906a79147,0.678,0.6783,0,119,119,64,1,onetwo,,,,,,,,,,,,,,,,,,,,,,,,,,,,,,,,,,,,,,,,,,,,,,,,,,,,,,,,,,,,,,,,,,,,,,,,,,,,,,,,,,,,,,,,,,,,,,,,,,,,,,,,,,,,,,,,,,,,,,,,,,,,,,,,,,,,,,,
,,611ce3140be0fc75d7cf2c67,2023-12-07_07h38.17.202,kallum_motion_pilot,2023.2.3,Win32,59.88023952,611ce3140be0fc75d7cf2c67,6560176e4d91f764e2a42c74,657159bc117ba01906a79147,0.6784,0.6786,0,120,120,30,1,fourtwo,,,,,,,,,,,,,,,,,,,,,,,,,,,,,,,,,,,,,,,,,,,,,,,,,,,,,,,,,,,,,,,,,,,,,,,,,,,,,,,,,,,,,,,,,,,,,,,,,,,,,,,,,,,,,,,,,,,,,,,,,,,,,,,,,,,,,,,
,,611ce3140be0fc75d7cf2c67,2023-12-07_07h38.17.202,kallum_motion_pilot,2023.2.3,Win32,59.88023952,611ce3140be0fc75d7cf2c67,6560176e4d91f764e2a42c74,657159bc117ba01906a79147,0.6787,0.679,0,121,121,53,1,threefour,,,,,,,,,,,,,,,,,,,,,,,,,,,,,,,,,,,,,,,,,,,,,,,,,,,,,,,,,,,,,,,,,,,,,,,,,,,,,,,,,,,,,,,,,,,,,,,,,,,,,,,,,,,,,,,,,,,,,,,,,,,,,,,,,,,,,,,
,,611ce3140be0fc75d7cf2c67,2023-12-07_07h38.17.202,kallum_motion_pilot,2023.2.3,Win32,59.88023952,611ce3140be0fc75d7cf2c67,6560176e4d91f764e2a42c74,657159bc117ba01906a79147,0.6792,0.6793,0,122,122,126,1,eightsix,,,,,,,,,,,,,,,,,,,,,,,,,,,,,,,,,,,,,,,,,,,,,,,,,,,,,,,,,,,,,,,,,,,,,,,,,,,,,,,,,,,,,,,,,,,,,,,,,,,,,,,,,,,,,,,,,,,,,,,,,,,,,,,,,,,,,,,
,,611ce3140be0fc75d7cf2c67,2023-12-07_07h38.17.202,kallum_motion_pilot,2023.2.3,Win32,59.88023952,611ce3140be0fc75d7cf2c67,6560176e4d91f764e2a42c74,657159bc117ba01906a79147,0.6795,0.6796,0,123,123,18,1,twoone,,,,,,,,,,,,,,,,,,,,,,,,,,,,,,,,,,,,,,,,,,,,,,,,,,,,,,,,,,,,,,,,,,,,,,,,,,,,,,,,,,,,,,,,,,,,,,,,,,,,,,,,,,,,,,,,,,,,,,,,,,,,,,,,,,,,,,,
,,611ce3140be0fc75d7cf2c67,2023-12-07_07h38.17.202,kallum_motion_pilot,2023.2.3,Win32,59.88023952,611ce3140be0fc75d7cf2c67,6560176e4d91f764e2a42c74,657159bc117ba01906a79147,0.6799,0.6801,0,124,124,154,1,sixfive,,,,,,,,,,,,,,,,,,,,,,,,,,,,,,,,,,,,,,,,,,,,,,,,,,,,,,,,,,,,,,,,,,,,,,,,,,,,,,,,,,,,,,,,,,,,,,,,,,,,,,,,,,,,,,,,,,,,,,,,,,,,,,,,,,,,,,,
,,611ce3140be0fc75d7cf2c67,2023-12-07_07h38.17.202,kallum_motion_pilot,2023.2.3,Win32,59.88023952,611ce3140be0fc75d7cf2c67,6560176e4d91f764e2a42c74,657159bc117ba01906a79147,0.6803,0.6806,0,125,125,82,1,sixfive,,,,,,,,,,,,,,,,,,,,,,,,,,,,,,,,,,,,,,,,,,,,,,,,,,,,,,,,,,,,,,,,,,,,,,,,,,,,,,,,,,,,,,,,,,,,,,,,,,,,,,,,,,,,,,,,,,,,,,,,,,,,,,,,,,,,,,,
,,611ce3140be0fc75d7cf2c67,2023-12-07_07h38.17.202,kallum_motion_pilot,2023.2.3,Win32,59.88023952,611ce3140be0fc75d7cf2c67,6560176e4d91f764e2a42c74,657159bc117ba01906a79147,0.6807,0.6808,0,126,126,145,1,fiveseven,,,,,,,,,,,,,,,,,,,,,,,,,,,,,,,,,,,,,,,,,,,,,,,,,,,,,,,,,,,,,,,,,,,,,,,,,,,,,,,,,,,,,,,,,,,,,,,,,,,,,,,,,,,,,,,,,,,,,,,,,,,,,,,,,,,,,,,
,,611ce3140be0fc75d7cf2c67,2023-12-07_07h38.17.202,kallum_motion_pilot,2023.2.3,Win32,59.88023952,611ce3140be0fc75d7cf2c67,6560176e4d91f764e2a42c74,657159bc117ba01906a79147,0.6811,0.6812,0,127,127,113,1,fiveseven,,,,,,,,,,,,,,,,,,,,,,,,,,,,,,,,,,,,,,,,,,,,,,,,,,,,,,,,,,,,,,,,,,,,,,,,,,,,,,,,,,,,,,,,,,,,,,,,,,,,,,,,,,,,,,,,,,,,,,,,,,,,,,,,,,,,,,,
,,611ce3140be0fc75d7cf2c67,2023-12-07_07h38.17.202,kallum_motion_pilot,2023.2.3,Win32,59.88023952,611ce3140be0fc75d7cf2c67,6560176e4d91f764e2a42c74,657159bc117ba01906a79147,0.6815,0.6816,0,128,128,5,1,threefour,,,,,,,,,,,,,,,,,,,,,,,,,,,,,,,,,,,,,,,,,,,,,,,,,,,,,,,,,,,,,,,,,,,,,,,,,,,,,,,,,,,,,,,,,,,,,,,,,,,,,,,,,,,,,,,,,,,,,,,,,,,,,,,,,,,,,,,
,,611ce3140be0fc75d7cf2c67,2023-12-07_07h38.17.202,kallum_motion_pilot,2023.2.3,Win32,59.88023952,611ce3140be0fc75d7cf2c67,6560176e4d91f764e2a42c74,657159bc117ba01906a79147,0.682,0.6821,0,129,129,54,1,fourtwo,,,,,,,,,,,,,,,,,,,,,,,,,,,,,,,,,,,,,,,,,,,,,,,,,,,,,,,,,,,,,,,,,,,,,,,,,,,,,,,,,,,,,,,,,,,,,,,,,,,,,,,,,,,,,,,,,,,,,,,,,,,,,,,,,,,,,,,
,,611ce3140be0fc75d7cf2c67,2023-12-07_07h38.17.202,kallum_motion_pilot,2023.2.3,Win32,59.88023952,611ce3140be0fc75d7cf2c67,6560176e4d91f764e2a42c74,657159bc117ba01906a79147,0.6823,0.6825,0,130,130,23,1,fourthree,,,,,,,,,,,,,,,,,,,,,,,,,,,,,,,,,,,,,,,,,,,,,,,,,,,,,,,,,,,,,,,,,,,,,,,,,,,,,,,,,,,,,,,,,,,,,,,,,,,,,,,,,,,,,,,,,,,,,,,,,,,,,,,,,,,,,,,
,,611ce3140be0fc75d7cf2c67,2023-12-07_07h38.17.202,kallum_motion_pilot,2023.2.3,Win32,59.88023952,611ce3140be0fc75d7cf2c67,6560176e4d91f764e2a42c74,657159bc117ba01906a79147,0.6827,0.6828,0,131,131,129,1,fiveseven,,,,,,,,,,,,,,,,,,,,,,,,,,,,,,,,,,,,,,,,,,,,,,,,,,,,,,,,,,,,,,,,,,,,,,,,,,,,,,,,,,,,,,,,,,,,,,,,,,,,,,,,,,,,,,,,,,,,,,,,,,,,,,,,,,,,,,,
,,611ce3140be0fc75d7cf2c67,2023-12-07_07h38.17.202,kallum_motion_pilot,2023.2.3,Win32,59.88023952,611ce3140be0fc75d7cf2c67,6560176e4d91f764e2a42c74,657159bc117ba01906a79147,0.6831,0.6832,0,132,132,97,1,fiveseven,,,,,,,,,,,,,,,,,,,,,,,,,,,,,,,,,,,,,,,,,,,,,,,,,,,,,,,,,,,,,,,,,,,,,,,,,,,,,,,,,,,,,,,,,,,,,,,,,,,,,,,,,,,,,,,,,,,,,,,,,,,,,,,,,,,,,,,
,,611ce3140be0fc75d7cf2c67,2023-12-07_07h38.17.202,kallum_motion_pilot,2023.2.3,Win32,59.88023952,611ce3140be0fc75d7cf2c67,6560176e4d91f764e2a42c74,657159bc117ba01906a79147,0.6834,0.6836,0,133,133,13,1,threefour,,,,,,,,,,,,,,,,,,,,,,,,,,,,,,,,,,,,,,,,,,,,,,,,,,,,,,,,,,,,,,,,,,,,,,,,,,,,,,,,,,,,,,,,,,,,,,,,,,,,,,,,,,,,,,,,,,,,,,,,,,,,,,,,,,,,,,,
,,611ce3140be0fc75d7cf2c67,2023-12-07_07h38.17.202,kallum_motion_pilot,2023.2.3,Win32,59.88023952,611ce3140be0fc75d7cf2c67,6560176e4d91f764e2a42c74,657159bc117ba01906a79147,0.6838,0.6839,0,134,134,152,1,fivesix,,,,,,,,,,,,,,,,,,,,,,,,,,,,,,,,,,,,,,,,,,,,,,,,,,,,,,,,,,,,,,,,,,,,,,,,,,,,,,,,,,,,,,,,,,,,,,,,,,,,,,,,,,,,,,,,,,,,,,,,,,,,,,,,,,,,,,,
,,611ce3140be0fc75d7cf2c67,2023-12-07_07h38.17.202,kallum_motion_pilot,2023.2.3,Win32,59.88023952,611ce3140be0fc75d7cf2c67,6560176e4d91f764e2a42c74,657159bc117ba01906a79147,0.684,0.6846,0,135,135,36,1,threeone,,,,,,,,,,,,,,,,,,,,,,,,,,,,,,,,,,,,,,,,,,,,,,,,,,,,,,,,,,,,,,,,,,,,,,,,,,,,,,,,,,,,,,,,,,,,,,,,,,,,,,,,,,,,,,,,,,,,,,,,,,,,,,,,,,,,,,,
,,611ce3140be0fc75d7cf2c67,2023-12-07_07h38.17.202,kallum_motion_pilot,2023.2.3,Win32,59.88023952,611ce3140be0fc75d7cf2c67,6560176e4d91f764e2a42c74,657159bc117ba01906a79147,0.6849,0.6852,0,136,136,27,1,twofour,,,,,,,,,,,,,,,,,,,,,,,,,,,,,,,,,,,,,,,,,,,,,,,,,,,,,,,,,,,,,,,,,,,,,,,,,,,,,,,,,,,,,,,,,,,,,,,,,,,,,,,,,,,,,,,,,,,,,,,,,,,,,,,,,,,,,,,
,,611ce3140be0fc75d7cf2c67,2023-12-07_07h38.17.202,kallum_motion_pilot,2023.2.3,Win32,59.88023952,611ce3140be0fc75d7cf2c67,6560176e4d91f764e2a42c74,657159bc117ba01906a79147,0.6855,0.6858,0,137,137,9,1,onethree,,,,,,,,,,,,,,,,,,,,,,,,,,,,,,,,,,,,,,,,,,,,,,,,,,,,,,,,,,,,,,,,,,,,,,,,,,,,,,,,,,,,,,,,,,,,,,,,,,,,,,,,,,,,,,,,,,,,,,,,,,,,,,,,,,,,,,,
,,611ce3140be0fc75d7cf2c67,2023-12-07_07h38.17.202,kallum_motion_pilot,2023.2.3,Win32,59.88023952,611ce3140be0fc75d7cf2c67,6560176e4d91f764e2a42c74,657159bc117ba01906a79147,0.6861,0.6864,0,138,138,93,1,seveneight,,,,,,,,,,,,,,,,,,,,,,,,,,,,,,,,,,,,,,,,,,,,,,,,,,,,,,,,,,,,,,,,,,,,,,,,,,,,,,,,,,,,,,,,,,,,,,,,,,,,,,,,,,,,,,,,,,,,,,,,,,,,,,,,,,,,,,,
,,611ce3140be0fc75d7cf2c67,2023-12-07_07h38.17.202,kallum_motion_pilot,2023.2.3,Win32,59.88023952,611ce3140be0fc75d7cf2c67,6560176e4d91f764e2a42c74,657159bc117ba01906a79147,0.6868,0.687,0,139,139,119,1,eightseven,,,,,,,,,,,,,,,,,,,,,,,,,,,,,,,,,,,,,,,,,,,,,,,,,,,,,,,,,,,,,,,,,,,,,,,,,,,,,,,,,,,,,,,,,,,,,,,,,,,,,,,,,,,,,,,,,,,,,,,,,,,,,,,,,,,,,,,
,,611ce3140be0fc75d7cf2c67,2023-12-07_07h38.17.202,kallum_motion_pilot,2023.2.3,Win32,59.88023952,611ce3140be0fc75d7cf2c67,6560176e4d91f764e2a42c74,657159bc117ba01906a79147,0.6872,0.6874,0,140,140,8,1,onetwo,,,,,,,,,,,,,,,,,,,,,,,,,,,,,,,,,,,,,,,,,,,,,,,,,,,,,,,,,,,,,,,,,,,,,,,,,,,,,,,,,,,,,,,,,,,,,,,,,,,,,,,,,,,,,,,,,,,,,,,,,,,,,,,,,,,,,,,
,,611ce3140be0fc75d7cf2c67,2023-12-07_07h38.17.202,kallum_motion_pilot,2023.2.3,Win32,59.88023952,611ce3140be0fc75d7cf2c67,6560176e4d91f764e2a42c74,657159bc117ba01906a79147,0.6909,0.6911,0,141,141,50,1,twoone,,,,,,,,,,,,,,,,,,,,,,,,,,,,,,,,,,,,,,,,,,,,,,,,,,,,,,,,,,,,,,,,,,,,,,,,,,,,,,,,,,,,,,,,,,,,,,,,,,,,,,,,,,,,,,,,,,,,,,,,,,,,,,,,,,,,,,,
,,611ce3140be0fc75d7cf2c67,2023-12-07_07h38.17.202,kallum_motion_pilot,2023.2.3,Win32,59.88023952,611ce3140be0fc75d7cf2c67,6560176e4d91f764e2a42c74,657159bc117ba01906a79147,0.6915,0.6916,0,142,142,49,1,onethree,,,,,,,,,,,,,,,,,,,,,,,,,,,,,,,,,,,,,,,,,,,,,,,,,,,,,,,,,,,,,,,,,,,,,,,,,,,,,,,,,,,,,,,,,,,,,,,,,,,,,,,,,,,,,,,,,,,,,,,,,,,,,,,,,,,,,,,
,,611ce3140be0fc75d7cf2c67,2023-12-07_07h38.17.202,kallum_motion_pilot,2023.2.3,Win32,59.88023952,611ce3140be0fc75d7cf2c67,6560176e4d91f764e2a42c74,657159bc117ba01906a79147,0.6917,0.6919,0,143,143,83,1,sixeight,,,,,,,,,,,,,,,,,,,,,,,,,,,,,,,,,,,,,,,,,,,,,,,,,,,,,,,,,,,,,,,,,,,,,,,,,,,,,,,,,,,,,,,,,,,,,,,,,,,,,,,,,,,,,,,,,,,,,,,,,,,,,,,,,,,,,,,
,,611ce3140be0fc75d7cf2c67,2023-12-07_07h38.17.202,kallum_motion_pilot,2023.2.3,Win32,59.88023952,611ce3140be0fc75d7cf2c67,6560176e4d91f764e2a42c74,657159bc117ba01906a79147,0.6922,0.6925,0,144,144,75,1,twofour,,,,,,,,,,,,,,,,,,,,,,,,,,,,,,,,,,,,,,,,,,,,,,,,,,,,,,,,,,,,,,,,,,,,,,,,,,,,,,,,,,,,,,,,,,,,,,,,,,,,,,,,,,,,,,,,,,,,,,,,,,,,,,,,,,,,,,,
,,611ce3140be0fc75d7cf2c67,2023-12-07_07h38.17.202,kallum_motion_pilot,2023.2.3,Win32,59.88023952,611ce3140be0fc75d7cf2c67,6560176e4d91f764e2a42c74,657159bc117ba01906a79147,0.6927,0.6929,0,145,145,137,1,fiveseven,,,,,,,,,,,,,,,,,,,,,,,,,,,,,,,,,,,,,,,,,,,,,,,,,,,,,,,,,,,,,,,,,,,,,,,,,,,,,,,,,,,,,,,,,,,,,,,,,,,,,,,,,,,,,,,,,,,,,,,,,,,,,,,,,,,,,,,
,,611ce3140be0fc75d7cf2c67,2023-12-07_07h38.17.202,kallum_motion_pilot,2023.2.3,Win32,59.88023952,611ce3140be0fc75d7cf2c67,6560176e4d91f764e2a42c74,657159bc117ba01906a79147,0.6931,0.6932,0,146,146,114,1,sixfive,,,,,,,,,,,,,,,,,,,,,,,,,,,,,,,,,,,,,,,,,,,,,,,,,,,,,,,,,,,,,,,,,,,,,,,,,,,,,,,,,,,,,,,,,,,,,,,,,,,,,,,,,,,,,,,,,,,,,,,,,,,,,,,,,,,,,,,
,,611ce3140be0fc75d7cf2c67,2023-12-07_07h38.17.202,kallum_motion_pilot,2023.2.3,Win32,59.88023952,611ce3140be0fc75d7cf2c67,6560176e4d91f764e2a42c74,657159bc117ba01906a79147,0.6934,0.6936,0,147,147,11,1,twofour,,,,,,,,,,,,,,,,,,,,,,,,,,,,,,,,,,,,,,,,,,,,,,,,,,,,,,,,,,,,,,,,,,,,,,,,,,,,,,,,,,,,,,,,,,,,,,,,,,,,,,,,,,,,,,,,,,,,,,,,,,,,,,,,,,,,,,,
,,611ce3140be0fc75d7cf2c67,2023-12-07_07h38.17.202,kallum_motion_pilot,2023.2.3,Win32,59.88023952,611ce3140be0fc75d7cf2c67,6560176e4d91f764e2a42c74,657159bc117ba01906a79147,0.6938,0.694,0,148,148,14,1,fourtwo,,,,,,,,,,,,,,,,,,,,,,,,,,,,,,,,,,,,,,,,,,,,,,,,,,,,,,,,,,,,,,,,,,,,,,,,,,,,,,,,,,,,,,,,,,,,,,,,,,,,,,,,,,,,,,,,,,,,,,,,,,,,,,,,,,,,,,,
,,611ce3140be0fc75d7cf2c67,2023-12-07_07h38.17.202,kallum_motion_pilot,2023.2.3,Win32,59.88023952,611ce3140be0fc75d7cf2c67,6560176e4d91f764e2a42c74,657159bc117ba01906a79147,0.6942,0.6944,0,149,149,149,1,seveneight,,,,,,,,,,,,,,,,,,,,,,,,,,,,,,,,,,,,,,,,,,,,,,,,,,,,,,,,,,,,,,,,,,,,,,,,,,,,,,,,,,,,,,,,,,,,,,,,,,,,,,,,,,,,,,,,,,,,,,,,,,,,,,,,,,,,,,,
,,611ce3140be0fc75d7cf2c67,2023-12-07_07h38.17.202,kallum_motion_pilot,2023.2.3,Win32,59.88023952,611ce3140be0fc75d7cf2c67,6560176e4d91f764e2a42c74,657159bc117ba01906a79147,0.6946,0.6948,0,150,150,65,1,onethree,,,,,,,,,,,,,,,,,,,,,,,,,,,,,,,,,,,,,,,,,,,,,,,,,,,,,,,,,,,,,,,,,,,,,,,,,,,,,,,,,,,,,,,,,,,,,,,,,,,,,,,,,,,,,,,,,,,,,,,,,,,,,,,,,,,,,,,
,,611ce3140be0fc75d7cf2c67,2023-12-07_07h38.17.202,kallum_motion_pilot,2023.2.3,Win32,59.88023952,611ce3140be0fc75d7cf2c67,6560176e4d91f764e2a42c74,657159bc117ba01906a79147,0.695,0.6952,0,151,151,55,1,fourthree,,,,,,,,,,,,,,,,,,,,,,,,,,,,,,,,,,,,,,,,,,,,,,,,,,,,,,,,,,,,,,,,,,,,,,,,,,,,,,,,,,,,,,,,,,,,,,,,,,,,,,,,,,,,,,,,,,,,,,,,,,,,,,,,,,,,,,,
,,611ce3140be0fc75d7cf2c67,2023-12-07_07h38.17.202,kallum_motion_pilot,2023.2.3,Win32,59.88023952,611ce3140be0fc75d7cf2c67,6560176e4d91f764e2a42c74,657159bc117ba01906a79147,0.6954,0.6955,0,152,152,160,1,fivesix,,,,,,,,,,,,,,,,,,,,,,,,,,,,,,,,,,,,,,,,,,,,,,,,,,,,,,,,,,,,,,,,,,,,,,,,,,,,,,,,,,,,,,,,,,,,,,,,,,,,,,,,,,,,,,,,,,,,,,,,,,,,,,,,,,,,,,,
,,611ce3140be0fc75d7cf2c67,2023-12-07_07h38.17.202,kallum_motion_pilot,2023.2.3,Win32,59.88023952,611ce3140be0fc75d7cf2c67,6560176e4d91f764e2a42c74,657159bc117ba01906a79147,0.6957,0.6959,0,153,153,127,1,eightseven,,,,,,,,,,,,,,,,,,,,,,,,,,,,,,,,,,,,,,,,,,,,,,,,,,,,,,,,,,,,,,,,,,,,,,,,,,,,,,,,,,,,,,,,,,,,,,,,,,,,,,,,,,,,,,,,,,,,,,,,,,,,,,,,,,,,,,,
,,611ce3140be0fc75d7cf2c67,2023-12-07_07h38.17.202,kallum_motion_pilot,2023.2.3,Win32,59.88023952,611ce3140be0fc75d7cf2c67,6560176e4d91f764e2a42c74,657159bc117ba01906a79147,0.6961,0.6962,0,154,154,32,1,onetwo,,,,,,,,,,,,,,,,,,,,,,,,,,,,,,,,,,,,,,,,,,,,,,,,,,,,,,,,,,,,,,,,,,,,,,,,,,,,,,,,,,,,,,,,,,,,,,,,,,,,,,,,,,,,,,,,,,,,,,,,,,,,,,,,,,,,,,,
,,611ce3140be0fc75d7cf2c67,2023-12-07_07h38.17.202,kallum_motion_pilot,2023.2.3,Win32,59.88023952,611ce3140be0fc75d7cf2c67,6560176e4d91f764e2a42c74,657159bc117ba01906a79147,0.6964,0.6966,0,155,155,96,1,fivesix,,,,,,,,,,,,,,,,,,,,,,,,,,,,,,,,,,,,,,,,,,,,,,,,,,,,,,,,,,,,,,,,,,,,,,,,,,,,,,,,,,,,,,,,,,,,,,,,,,,,,,,,,,,,,,,,,,,,,,,,,,,,,,,,,,,,,,,
,,611ce3140be0fc75d7cf2c67,2023-12-07_07h38.17.202,kallum_motion_pilot,2023.2.3,Win32,59.88023952,611ce3140be0fc75d7cf2c67,6560176e4d91f764e2a42c74,657159bc117ba01906a79147,0.6969,0.6971,0,156,156,26,1,twoone,,,,,,,,,,,,,,,,,,,,,,,,,,,,,,,,,,,,,,,,,,,,,,,,,,,,,,,,,,,,,,,,,,,,,,,,,,,,,,,,,,,,,,,,,,,,,,,,,,,,,,,,,,,,,,,,,,,,,,,,,,,,,,,,,,,,,,,
,,611ce3140be0fc75d7cf2c67,2023-12-07_07h38.17.202,kallum_motion_pilot,2023.2.3,Win32,59.88023952,611ce3140be0fc75d7cf2c67,6560176e4d91f764e2a42c74,657159bc117ba01906a79147,0.6973,0.6974,0,157,157,104,1,fivesix,,,,,,,,,,,,,,,,,,,,,,,,,,,,,,,,,,,,,,,,,,,,,,,,,,,,,,,,,,,,,,,,,,,,,,,,,,,,,,,,,,,,,,,,,,,,,,,,,,,,,,,,,,,,,,,,,,,,,,,,,,,,,,,,,,,,,,,
,,611ce3140be0fc75d7cf2c67,2023-12-07_07h38.17.202,kallum_motion_pilot,2023.2.3,Win32,59.88023952,611ce3140be0fc75d7cf2c67,6560176e4d91f764e2a42c74,657159bc117ba01906a79147,0.6977,0.6978,0,158,158,57,1,onethree,,,,,,,,,,,,,,,,,,,,,,,,,,,,,,,,,,,,,,,,,,,,,,,,,,,,,,,,,,,,,,,,,,,,,,,,,,,,,,,,,,,,,,,,,,,,,,,,,,,,,,,,,,,,,,,,,,,,,,,,,,,,,,,,,,,,,,,
,,611ce3140be0fc75d7cf2c67,2023-12-07_07h38.17.202,kallum_motion_pilot,2023.2.3,Win32,59.88023952,611ce3140be0fc75d7cf2c67,6560176e4d91f764e2a42c74,657159bc117ba01906a79147,0.698,0.6982,0,159,159,81,1,fiveseven,,,,,,,,,,,,,,,,,,,,,,,,,,,,,,,,,,,,,,,,,,,,,,,,,,,,,,,,,,,,,,,,,,,,,,,,,,,,,,,,,,,,,,,,,,,,,,,,,,,,,,,,,,,,,,,,,,,,,,,,,,,,,,,,,,,,,,,
,,611ce3140be0fc75d7cf2c67,2023-12-07_07h38.17.202,kallum_motion_pilot,2023.2.3,Win32,59.88023952,611ce3140be0fc75d7cf2c67,6560176e4d91f764e2a42c74,657159bc117ba01906a79147,0.6986,0.6989,0,160,160,90,1,sixfive,,,,,,,,,,,,,,,,,,,,,,,,,,,,,,,,,,,,,,,,,,,,,,,,,,,,,,,,,,,,,,,,,,,,,,,,,,,,,,,,,,,,,,,,,,,,,,,,,,,,,,,,,,,,,,,,,,,,,,,,,,,,,,,,,,,,,,,
,,611ce3140be0fc75d7cf2c67,2023-12-07_07h38.17.202,kallum_motion_pilot,2023.2.3,Win32,59.88023952,611ce3140be0fc75d7cf2c67,6560176e4d91f764e2a42c74,657159bc117ba01906a79147,0.6992,0.6995,0,161,161,128,1,fivesix,,,,,,,,,,,,,,,,,,,,,,,,,,,,,,,,,,,,,,,,,,,,,,,,,,,,,,,,,,,,,,,,,,,,,,,,,,,,,,,,,,,,,,,,,,,,,,,,,,,,,,,,,,,,,,,,,,,,,,,,,,,,,,,,,,,,,,,
,,611ce3140be0fc75d7cf2c67,2023-12-07_07h38.17.202,kallum_motion_pilot,2023.2.3,Win32,59.88023952,611ce3140be0fc75d7cf2c67,6560176e4d91f764e2a42c74,657159bc117ba01906a79147,0.6998,0.7,1,0,162,68,1,threeone,,,,,,,,,,,,,,,,,,,,,,,,,,,,,,,,,,,,,,,,,,,,,,,,,,,,,,,,,,,,,,,,,,,,,,,,,,,,,,,,,,,,,,,,,,,,,,,,,,,,,,,,,,,,,,,,,,,,,,,,,,,,,,,,,,,,,,,
,,611ce3140be0fc75d7cf2c67,2023-12-07_07h38.17.202,kallum_motion_pilot,2023.2.3,Win32,59.88023952,611ce3140be0fc75d7cf2c67,6560176e4d91f764e2a42c74,657159bc117ba01906a79147,0.7003,0.7005,1,1,163,131,1,sixeight,,,,,,,,,,,,,,,,,,,,,,,,,,,,,,,,,,,,,,,,,,,,,,,,,,,,,,,,,,,,,,,,,,,,,,,,,,,,,,,,,,,,,,,,,,,,,,,,,,,,,,,,,,,,,,,,,,,,,,,,,,,,,,,,,,,,,,,
,,611ce3140be0fc75d7cf2c67,2023-12-07_07h38.17.202,kallum_motion_pilot,2023.2.3,Win32,59.88023952,611ce3140be0fc75d7cf2c67,6560176e4d91f764e2a42c74,657159bc117ba01906a79147,0.7008,0.7011,1,2,164,86,1,eightsix,,,,,,,,,,,,,,,,,,,,,,,,,,,,,,,,,,,,,,,,,,,,,,,,,,,,,,,,,,,,,,,,,,,,,,,,,,,,,,,,,,,,,,,,,,,,,,,,,,,,,,,,,,,,,,,,,,,,,,,,,,,,,,,,,,,,,,,
,,611ce3140be0fc75d7cf2c67,2023-12-07_07h38.17.202,kallum_motion_pilot,2023.2.3,Win32,59.88023952,611ce3140be0fc75d7cf2c67,6560176e4d91f764e2a42c74,657159bc117ba01906a79147,0.7014,0.7018,1,3,165,127,1,eightseven,,,,,,,,,,,,,,,,,,,,,,,,,,,,,,,,,,,,,,,,,,,,,,,,,,,,,,,,,,,,,,,,,,,,,,,,,,,,,,,,,,,,,,,,,,,,,,,,,,,,,,,,,,,,,,,,,,,,,,,,,,,,,,,,,,,,,,,
,,611ce3140be0fc75d7cf2c67,2023-12-07_07h38.17.202,kallum_motion_pilot,2023.2.3,Win32,59.88023952,611ce3140be0fc75d7cf2c67,6560176e4d91f764e2a42c74,657159bc117ba01906a79147,0.7019,0.7022,1,4,166,109,1,seveneight,,,,,,,,,,,,,,,,,,,,,,,,,,,,,,,,,,,,,,,,,,,,,,,,,,,,,,,,,,,,,,,,,,,,,,,,,,,,,,,,,,,,,,,,,,,,,,,,,,,,,,,,,,,,,,,,,,,,,,,,,,,,,,,,,,,,,,,
,,611ce3140be0fc75d7cf2c67,2023-12-07_07h38.17.202,kallum_motion_pilot,2023.2.3,Win32,59.88023952,611ce3140be0fc75d7cf2c67,6560176e4d91f764e2a42c74,657159bc117ba01906a79147,0.7024,0.7026,1,5,167,124,1,sevenfive,,,,,,,,,,,,,,,,,,,,,,,,,,,,,,,,,,,,,,,,,,,,,,,,,,,,,,,,,,,,,,,,,,,,,,,,,,,,,,,,,,,,,,,,,,,,,,,,,,,,,,,,,,,,,,,,,,,,,,,,,,,,,,,,,,,,,,,
,,611ce3140be0fc75d7cf2c67,2023-12-07_07h38.17.202,kallum_motion_pilot,2023.2.3,Win32,59.88023952,611ce3140be0fc75d7cf2c67,6560176e4d91f764e2a42c74,657159bc117ba01906a79147,0.7028,0.703,1,6,168,106,1,sixfive,,,,,,,,,,,,,,,,,,,,,,,,,,,,,,,,,,,,,,,,,,,,,,,,,,,,,,,,,,,,,,,,,,,,,,,,,,,,,,,,,,,,,,,,,,,,,,,,,,,,,,,,,,,,,,,,,,,,,,,,,,,,,,,,,,,,,,,
,,611ce3140be0fc75d7cf2c67,2023-12-07_07h38.17.202,kallum_motion_pilot,2023.2.3,Win32,59.88023952,611ce3140be0fc75d7cf2c67,6560176e4d91f764e2a42c74,657159bc117ba01906a79147,0.9366,0.9369,1,7,169,73,1,onethree,,,,,,,,,,,,,,,,,,,,,,,,,,,,,,,,,,,,,,,,,,,,,,,,,,,,,,,,,,,,,,,,,,,,,,,,,,,,,,,,,,,,,,,,,,,,,,,,,,,,,,,,,,,,,,,,,,,,,,,,,,,,,,,,,,,,,,,
,,611ce3140be0fc75d7cf2c67,2023-12-07_07h38.17.202,kallum_motion_pilot,2023.2.3,Win32,59.88023952,611ce3140be0fc75d7cf2c67,6560176e4d91f764e2a42c74,657159bc117ba01906a79147,0.9373,0.9375,1,8,170,96,1,fivesix,,,,,,,,,,,,,,,,,,,,,,,,,,,,,,,,,,,,,,,,,,,,,,,,,,,,,,,,,,,,,,,,,,,,,,,,,,,,,,,,,,,,,,,,,,,,,,,,,,,,,,,,,,,,,,,,,,,,,,,,,,,,,,,,,,,,,,,
,,611ce3140be0fc75d7cf2c67,2023-12-07_07h38.17.202,kallum_motion_pilot,2023.2.3,Win32,59.88023952,611ce3140be0fc75d7cf2c67,6560176e4d91f764e2a42c74,657159bc117ba01906a79147,0.9377,0.9379,1,9,171,128,1,fivesix,,,,,,,,,,,,,,,,,,,,,,,,,,,,,,,,,,,,,,,,,,,,,,,,,,,,,,,,,,,,,,,,,,,,,,,,,,,,,,,,,,,,,,,,,,,,,,,,,,,,,,,,,,,,,,,,,,,,,,,,,,,,,,,,,,,,,,,
,,611ce3140be0fc75d7cf2c67,2023-12-07_07h38.17.202,kallum_motion_pilot,2023.2.3,Win32,59.88023952,611ce3140be0fc75d7cf2c67,6560176e4d91f764e2a42c74,657159bc117ba01906a79147,0.9381,0.9383,1,10,172,129,1,fiveseven,,,,,,,,,,,,,,,,,,,,,,,,,,,,,,,,,,,,,,,,,,,,,,,,,,,,,,,,,,,,,,,,,,,,,,,,,,,,,,,,,,,,,,,,,,,,,,,,,,,,,,,,,,,,,,,,,,,,,,,,,,,,,,,,,,,,,,,
,,611ce3140be0fc75d7cf2c67,2023-12-07_07h38.17.202,kallum_motion_pilot,2023.2.3,Win32,59.88023952,611ce3140be0fc75d7cf2c67,6560176e4d91f764e2a42c74,657159bc117ba01906a79147,0.9385,0.9386,1,11,173,107,1,sixeight,,,,,,,,,,,,,,,,,,,,,,,,,,,,,,,,,,,,,,,,,,,,,,,,,,,,,,,,,,,,,,,,,,,,,,,,,,,,,,,,,,,,,,,,,,,,,,,,,,,,,,,,,,,,,,,,,,,,,,,,,,,,,,,,,,,,,,,
,,611ce3140be0fc75d7cf2c67,2023-12-07_07h38.17.202,kallum_motion_pilot,2023.2.3,Win32,59.88023952,611ce3140be0fc75d7cf2c67,6560176e4d91f764e2a42c74,657159bc117ba01906a79147,0.9389,0.939,1,12,174,98,1,sixfive,,,,,,,,,,,,,,,,,,,,,,,,,,,,,,,,,,,,,,,,,,,,,,,,,,,,,,,,,,,,,,,,,,,,,,,,,,,,,,,,,,,,,,,,,,,,,,,,,,,,,,,,,,,,,,,,,,,,,,,,,,,,,,,,,,,,,,,
,,611ce3140be0fc75d7cf2c67,2023-12-07_07h38.17.202,kallum_motion_pilot,2023.2.3,Win32,59.88023952,611ce3140be0fc75d7cf2c67,6560176e4d91f764e2a42c74,657159bc117ba01906a79147,0.9393,0.9394,1,13,175,90,1,sixfive,,,,,,,,,,,,,,,,,,,,,,,,,,,,,,,,,,,,,,,,,,,,,,,,,,,,,,,,,,,,,,,,,,,,,,,,,,,,,,,,,,,,,,,,,,,,,,,,,,,,,,,,,,,,,,,,,,,,,,,,,,,,,,,,,,,,,,,
,,611ce3140be0fc75d7cf2c67,2023-12-07_07h38.17.202,kallum_motion_pilot,2023.2.3,Win32,59.88023952,611ce3140be0fc75d7cf2c67,6560176e4d91f764e2a42c74,657159bc117ba01906a79147,0.9396,0.9398,1,14,176,32,1,onetwo,,,,,,,,,,,,,,,,,,,,,,,,,,,,,,,,,,,,,,,,,,,,,,,,,,,,,,,,,,,,,,,,,,,,,,,,,,,,,,,,,,,,,,,,,,,,,,,,,,,,,,,,,,,,,,,,,,,,,,,,,,,,,,,,,,,,,,,
,,611ce3140be0fc75d7cf2c67,2023-12-07_07h38.17.202,kallum_motion_pilot,2023.2.3,Win32,59.88023952,611ce3140be0fc75d7cf2c67,6560176e4d91f764e2a42c74,657159bc117ba01906a79147,0.9402,0.9404,1,15,177,120,1,fivesix,,,,,,,,,,,,,,,,,,,,,,,,,,,,,,,,,,,,,,,,,,,,,,,,,,,,,,,,,,,,,,,,,,,,,,,,,,,,,,,,,,,,,,,,,,,,,,,,,,,,,,,,,,,,,,,,,,,,,,,,,,,,,,,,,,,,,,,
,,611ce3140be0fc75d7cf2c67,2023-12-07_07h38.17.202,kallum_motion_pilot,2023.2.3,Win32,59.88023952,611ce3140be0fc75d7cf2c67,6560176e4d91f764e2a42c74,657159bc117ba01906a79147,0.9406,0.9408,1,16,178,138,1,sixfive,,,,,,,,,,,,,,,,,,,,,,,,,,,,,,,,,,,,,,,,,,,,,,,,,,,,,,,,,,,,,,,,,,,,,,,,,,,,,,,,,,,,,,,,,,,,,,,,,,,,,,,,,,,,,,,,,,,,,,,,,,,,,,,,,,,,,,,
,,611ce3140be0fc75d7cf2c67,2023-12-07_07h38.17.202,kallum_motion_pilot,2023.2.3,Win32,59.88023952,611ce3140be0fc75d7cf2c67,6560176e4d91f764e2a42c74,657159bc117ba01906a79147,0.941,0.9412,1,17,179,80,1,fivesix,,,,,,,,,,,,,,,,,,,,,,,,,,,,,,,,,,,,,,,,,,,,,,,,,,,,,,,,,,,,,,,,,,,,,,,,,,,,,,,,,,,,,,,,,,,,,,,,,,,,,,,,,,,,,,,,,,,,,,,,,,,,,,,,,,,,,,,
,,611ce3140be0fc75d7cf2c67,2023-12-07_07h38.17.202,kallum_motion_pilot,2023.2.3,Win32,59.88023952,611ce3140be0fc75d7cf2c67,6560176e4d91f764e2a42c74,657159bc117ba01906a79147,0.9414,0.9415,1,18,180,76,1,threeone,,,,,,,,,,,,,,,,,,,,,,,,,,,,,,,,,,,,,,,,,,,,,,,,,,,,,,,,,,,,,,,,,,,,,,,,,,,,,,,,,,,,,,,,,,,,,,,,,,,,,,,,,,,,,,,,,,,,,,,,,,,,,,,,,,,,,,,
,,611ce3140be0fc75d7cf2c67,2023-12-07_07h38.17.202,kallum_motion_pilot,2023.2.3,Win32,59.88023952,611ce3140be0fc75d7cf2c67,6560176e4d91f764e2a42c74,657159bc117ba01906a79147,0.9418,0.9421,1,19,181,101,1,seveneight,,,,,,,,,,,,,,,,,,,,,,,,,,,,,,,,,,,,,,,,,,,,,,,,,,,,,,,,,,,,,,,,,,,,,,,,,,,,,,,,,,,,,,,,,,,,,,,,,,,,,,,,,,,,,,,,,,,,,,,,,,,,,,,,,,,,,,,
,,611ce3140be0fc75d7cf2c67,2023-12-07_07h38.17.202,kallum_motion_pilot,2023.2.3,Win32,59.88023952,611ce3140be0fc75d7cf2c67,6560176e4d91f764e2a42c74,657159bc117ba01906a79147,0.9422,0.9424,1,20,182,119,1,eightseven,,,,,,,,,,,,,,,,,,,,,,,,,,,,,,,,,,,,,,,,,,,,,,,,,,,,,,,,,,,,,,,,,,,,,,,,,,,,,,,,,,,,,,,,,,,,,,,,,,,,,,,,,,,,,,,,,,,,,,,,,,,,,,,,,,,,,,,
,,611ce3140be0fc75d7cf2c67,2023-12-07_07h38.17.202,kallum_motion_pilot,2023.2.3,Win32,59.88023952,611ce3140be0fc75d7cf2c67,6560176e4d91f764e2a42c74,657159bc117ba01906a79147,0.9427,0.9428,1,21,183,62,1,fourtwo,,,,,,,,,,,,,,,,,,,,,,,,,,,,,,,,,,,,,,,,,,,,,,,,,,,,,,,,,,,,,,,,,,,,,,,,,,,,,,,,,,,,,,,,,,,,,,,,,,,,,,,,,,,,,,,,,,,,,,,,,,,,,,,,,,,,,,,
,,611ce3140be0fc75d7cf2c67,2023-12-07_07h38.17.202,kallum_motion_pilot,2023.2.3,Win32,59.88023952,611ce3140be0fc75d7cf2c67,6560176e4d91f764e2a42c74,657159bc117ba01906a79147,0.9431,0.9433,1,22,184,151,1,eightseven,,,,,,,,,,,,,,,,,,,,,,,,,,,,,,,,,,,,,,,,,,,,,,,,,,,,,,,,,,,,,,,,,,,,,,,,,,,,,,,,,,,,,,,,,,,,,,,,,,,,,,,,,,,,,,,,,,,,,,,,,,,,,,,,,,,,,,,
,,611ce3140be0fc75d7cf2c67,2023-12-07_07h38.17.202,kallum_motion_pilot,2023.2.3,Win32,59.88023952,611ce3140be0fc75d7cf2c67,6560176e4d91f764e2a42c74,657159bc117ba01906a79147,0.9435,0.9437,1,23,185,41,1,onethree,,,,,,,,,,,,,,,,,,,,,,,,,,,,,,,,,,,,,,,,,,,,,,,,,,,,,,,,,,,,,,,,,,,,,,,,,,,,,,,,,,,,,,,,,,,,,,,,,,,,,,,,,,,,,,,,,,,,,,,,,,,,,,,,,,,,,,,
,,611ce3140be0fc75d7cf2c67,2023-12-07_07h38.17.202,kallum_motion_pilot,2023.2.3,Win32,59.88023952,611ce3140be0fc75d7cf2c67,6560176e4d91f764e2a42c74,657159bc117ba01906a79147,0.9439,0.9441,1,24,186,115,1,sixeight,,,,,,,,,,,,,,,,,,,,,,,,,,,,,,,,,,,,,,,,,,,,,,,,,,,,,,,,,,,,,,,,,,,,,,,,,,,,,,,,,,,,,,,,,,,,,,,,,,,,,,,,,,,,,,,,,,,,,,,,,,,,,,,,,,,,,,,
,,611ce3140be0fc75d7cf2c67,2023-12-07_07h38.17.202,kallum_motion_pilot,2023.2.3,Win32,59.88023952,611ce3140be0fc75d7cf2c67,6560176e4d91f764e2a42c74,657159bc117ba01906a79147,0.9443,0.9445,1,25,187,55,1,fourthree,,,,,,,,,,,,,,,,,,,,,,,,,,,,,,,,,,,,,,,,,,,,,,,,,,,,,,,,,,,,,,,,,,,,,,,,,,,,,,,,,,,,,,,,,,,,,,,,,,,,,,,,,,,,,,,,,,,,,,,,,,,,,,,,,,,,,,,
,,611ce3140be0fc75d7cf2c67,2023-12-07_07h38.17.202,kallum_motion_pilot,2023.2.3,Win32,59.88023952,611ce3140be0fc75d7cf2c67,6560176e4d91f764e2a42c74,657159bc117ba01906a79147,0.9447,0.9449,1,26,188,88,1,fivesix,,,,,,,,,,,,,,,,,,,,,,,,,,,,,,,,,,,,,,,,,,,,,,,,,,,,,,,,,,,,,,,,,,,,,,,,,,,,,,,,,,,,,,,,,,,,,,,,,,,,,,,,,,,,,,,,,,,,,,,,,,,,,,,,,,,,,,,
,,611ce3140be0fc75d7cf2c67,2023-12-07_07h38.17.202,kallum_motion_pilot,2023.2.3,Win32,59.88023952,611ce3140be0fc75d7cf2c67,6560176e4d91f764e2a42c74,657159bc117ba01906a79147,0.9451,0.9453,1,27,189,49,1,onethree,,,,,,,,,,,,,,,,,,,,,,,,,,,,,,,,,,,,,,,,,,,,,,,,,,,,,,,,,,,,,,,,,,,,,,,,,,,,,,,,,,,,,,,,,,,,,,,,,,,,,,,,,,,,,,,,,,,,,,,,,,,,,,,,,,,,,,,
,,611ce3140be0fc75d7cf2c67,2023-12-07_07h38.17.202,kallum_motion_pilot,2023.2.3,Win32,59.88023952,611ce3140be0fc75d7cf2c67,6560176e4d91f764e2a42c74,657159bc117ba01906a79147,0.9457,0.9459,1,28,190,61,1,threefour,,,,,,,,,,,,,,,,,,,,,,,,,,,,,,,,,,,,,,,,,,,,,,,,,,,,,,,,,,,,,,,,,,,,,,,,,,,,,,,,,,,,,,,,,,,,,,,,,,,,,,,,,,,,,,,,,,,,,,,,,,,,,,,,,,,,,,,
,,611ce3140be0fc75d7cf2c67,2023-12-07_07h38.17.202,kallum_motion_pilot,2023.2.3,Win32,59.88023952,611ce3140be0fc75d7cf2c67,6560176e4d91f764e2a42c74,657159bc117ba01906a79147,0.9461,0.9462,1,29,191,156,1,sevenfive,,,,,,,,,,,,,,,,,,,,,,,,,,,,,,,,,,,,,,,,,,,,,,,,,,,,,,,,,,,,,,,,,,,,,,,,,,,,,,,,,,,,,,,,,,,,,,,,,,,,,,,,,,,,,,,,,,,,,,,,,,,,,,,,,,,,,,,
,,611ce3140be0fc75d7cf2c67,2023-12-07_07h38.17.202,kallum_motion_pilot,2023.2.3,Win32,59.88023952,611ce3140be0fc75d7cf2c67,6560176e4d91f764e2a42c74,657159bc117ba01906a79147,0.9464,0.9467,1,30,192,4,1,threeone,,,,,,,,,,,,,,,,,,,,,,,,,,,,,,,,,,,,,,,,,,,,,,,,,,,,,,,,,,,,,,,,,,,,,,,,,,,,,,,,,,,,,,,,,,,,,,,,,,,,,,,,,,,,,,,,,,,,,,,,,,,,,,,,,,,,,,,
,,611ce3140be0fc75d7cf2c67,2023-12-07_07h38.17.202,kallum_motion_pilot,2023.2.3,Win32,59.88023952,611ce3140be0fc75d7cf2c67,6560176e4d91f764e2a42c74,657159bc117ba01906a79147,0.9468,0.947,1,31,193,116,1,sevenfive,,,,,,,,,,,,,,,,,,,,,,,,,,,,,,,,,,,,,,,,,,,,,,,,,,,,,,,,,,,,,,,,,,,,,,,,,,,,,,,,,,,,,,,,,,,,,,,,,,,,,,,,,,,,,,,,,,,,,,,,,,,,,,,,,,,,,,,
,,611ce3140be0fc75d7cf2c67,2023-12-07_07h38.17.202,kallum_motion_pilot,2023.2.3,Win32,59.88023952,611ce3140be0fc75d7cf2c67,6560176e4d91f764e2a42c74,657159bc117ba01906a79147,0.9472,0.9474,1,32,194,27,1,twofour,,,,,,,,,,,,,,,,,,,,,,,,,,,,,,,,,,,,,,,,,,,,,,,,,,,,,,,,,,,,,,,,,,,,,,,,,,,,,,,,,,,,,,,,,,,,,,,,,,,,,,,,,,,,,,,,,,,,,,,,,,,,,,,,,,,,,,,
,,611ce3140be0fc75d7cf2c67,2023-12-07_07h38.17.202,kallum_motion_pilot,2023.2.3,Win32,59.88023952,611ce3140be0fc75d7cf2c67,6560176e4d91f764e2a42c74,657159bc117ba01906a79147,0.9476,0.9478,1,33,195,56,1,onetwo,,,,,,,,,,,,,,,,,,,,,,,,,,,,,,,,,,,,,,,,,,,,,,,,,,,,,,,,,,,,,,,,,,,,,,,,,,,,,,,,,,,,,,,,,,,,,,,,,,,,,,,,,,,,,,,,,,,,,,,,,,,,,,,,,,,,,,,
,,611ce3140be0fc75d7cf2c67,2023-12-07_07h38.17.202,kallum_motion_pilot,2023.2.3,Win32,59.88023952,611ce3140be0fc75d7cf2c67,6560176e4d91f764e2a42c74,657159bc117ba01906a79147,0.948,0.9482,1,34,196,50,1,twoone,,,,,,,,,,,,,,,,,,,,,,,,,,,,,,,,,,,,,,,,,,,,,,,,,,,,,,,,,,,,,,,,,,,,,,,,,,,,,,,,,,,,,,,,,,,,,,,,,,,,,,,,,,,,,,,,,,,,,,,,,,,,,,,,,,,,,,,
,,611ce3140be0fc75d7cf2c67,2023-12-07_07h38.17.202,kallum_motion_pilot,2023.2.3,Win32,59.88023952,611ce3140be0fc75d7cf2c67,6560176e4d91f764e2a42c74,657159bc117ba01906a79147,0.9487,0.9489,1,35,197,148,1,sevenfive,,,,,,,,,,,,,,,,,,,,,,,,,,,,,,,,,,,,,,,,,,,,,,,,,,,,,,,,,,,,,,,,,,,,,,,,,,,,,,,,,,,,,,,,,,,,,,,,,,,,,,,,,,,,,,,,,,,,,,,,,,,,,,,,,,,,,,,
,,611ce3140be0fc75d7cf2c67,2023-12-07_07h38.17.202,kallum_motion_pilot,2023.2.3,Win32,59.88023952,611ce3140be0fc75d7cf2c67,6560176e4d91f764e2a42c74,657159bc117ba01906a79147,0.9491,0.9493,1,36,198,44,1,threeone,,,,,,,,,,,,,,,,,,,,,,,,,,,,,,,,,,,,,,,,,,,,,,,,,,,,,,,,,,,,,,,,,,,,,,,,,,,,,,,,,,,,,,,,,,,,,,,,,,,,,,,,,,,,,,,,,,,,,,,,,,,,,,,,,,,,,,,
,,611ce3140be0fc75d7cf2c67,2023-12-07_07h38.17.202,kallum_motion_pilot,2023.2.3,Win32,59.88023952,611ce3140be0fc75d7cf2c67,6560176e4d91f764e2a42c74,657159bc117ba01906a79147,0.9495,0.9497,1,37,199,72,1,onetwo,,,,,,,,,,,,,,,,,,,,,,,,,,,,,,,,,,,,,,,,,,,,,,,,,,,,,,,,,,,,,,,,,,,,,,,,,,,,,,,,,,,,,,,,,,,,,,,,,,,,,,,,,,,,,,,,,,,,,,,,,,,,,,,,,,,,,,,
,,611ce3140be0fc75d7cf2c67,2023-12-07_07h38.17.202,kallum_motion_pilot,2023.2.3,Win32,59.88023952,611ce3140be0fc75d7cf2c67,6560176e4d91f764e2a42c74,657159bc117ba01906a79147,0.9498,0.9501,1,38,200,147,1,sixeight,,,,,,,,,,,,,,,,,,,,,,,,,,,,,,,,,,,,,,,,,,,,,,,,,,,,,,,,,,,,,,,,,,,,,,,,,,,,,,,,,,,,,,,,,,,,,,,,,,,,,,,,,,,,,,,,,,,,,,,,,,,,,,,,,,,,,,,
,,611ce3140be0fc75d7cf2c67,2023-12-07_07h38.17.202,kallum_motion_pilot,2023.2.3,Win32,59.88023952,611ce3140be0fc75d7cf2c67,6560176e4d91f764e2a42c74,657159bc117ba01906a79147,0.9503,0.9506,1,39,201,113,1,fiveseven,,,,,,,,,,,,,,,,,,,,,,,,,,,,,,,,,,,,,,,,,,,,,,,,,,,,,,,,,,,,,,,,,,,,,,,,,,,,,,,,,,,,,,,,,,,,,,,,,,,,,,,,,,,,,,,,,,,,,,,,,,,,,,,,,,,,,,,
,,611ce3140be0fc75d7cf2c67,2023-12-07_07h38.17.202,kallum_motion_pilot,2023.2.3,Win32,59.88023952,611ce3140be0fc75d7cf2c67,6560176e4d91f764e2a42c74,657159bc117ba01906a79147,0.9507,0.9509,1,40,202,18,1,twoone,,,,,,,,,,,,,,,,,,,,,,,,,,,,,,,,,,,,,,,,,,,,,,,,,,,,,,,,,,,,,,,,,,,,,,,,,,,,,,,,,,,,,,,,,,,,,,,,,,,,,,,,,,,,,,,,,,,,,,,,,,,,,,,,,,,,,,,
,,611ce3140be0fc75d7cf2c67,2023-12-07_07h38.17.202,kallum_motion_pilot,2023.2.3,Win32,59.88023952,611ce3140be0fc75d7cf2c67,6560176e4d91f764e2a42c74,657159bc117ba01906a79147,0.9511,0.9513,1,41,203,134,1,eightsix,,,,,,,,,,,,,,,,,,,,,,,,,,,,,,,,,,,,,,,,,,,,,,,,,,,,,,,,,,,,,,,,,,,,,,,,,,,,,,,,,,,,,,,,,,,,,,,,,,,,,,,,,,,,,,,,,,,,,,,,,,,,,,,,,,,,,,,
,,611ce3140be0fc75d7cf2c67,2023-12-07_07h38.17.202,kallum_motion_pilot,2023.2.3,Win32,59.88023952,611ce3140be0fc75d7cf2c67,6560176e4d91f764e2a42c74,657159bc117ba01906a79147,0.9515,0.9516,1,42,204,141,1,seveneight,,,,,,,,,,,,,,,,,,,,,,,,,,,,,,,,,,,,,,,,,,,,,,,,,,,,,,,,,,,,,,,,,,,,,,,,,,,,,,,,,,,,,,,,,,,,,,,,,,,,,,,,,,,,,,,,,,,,,,,,,,,,,,,,,,,,,,,
,,611ce3140be0fc75d7cf2c67,2023-12-07_07h38.17.202,kallum_motion_pilot,2023.2.3,Win32,59.88023952,611ce3140be0fc75d7cf2c67,6560176e4d91f764e2a42c74,657159bc117ba01906a79147,0.9519,0.952,1,43,205,59,1,twofour,,,,,,,,,,,,,,,,,,,,,,,,,,,,,,,,,,,,,,,,,,,,,,,,,,,,,,,,,,,,,,,,,,,,,,,,,,,,,,,,,,,,,,,,,,,,,,,,,,,,,,,,,,,,,,,,,,,,,,,,,,,,,,,,,,,,,,,
,,611ce3140be0fc75d7cf2c67,2023-12-07_07h38.17.202,kallum_motion_pilot,2023.2.3,Win32,59.88023952,611ce3140be0fc75d7cf2c67,6560176e4d91f764e2a42c74,657159bc117ba01906a79147,0.9522,0.9524,1,44,206,103,1,eightseven,,,,,,,,,,,,,,,,,,,,,,,,,,,,,,,,,,,,,,,,,,,,,,,,,,,,,,,,,,,,,,,,,,,,,,,,,,,,,,,,,,,,,,,,,,,,,,,,,,,,,,,,,,,,,,,,,,,,,,,,,,,,,,,,,,,,,,,
,,611ce3140be0fc75d7cf2c67,2023-12-07_07h38.17.202,kallum_motion_pilot,2023.2.3,Win32,59.88023952,611ce3140be0fc75d7cf2c67,6560176e4d91f764e2a42c74,657159bc117ba01906a79147,0.9526,0.9528,1,45,207,157,1,seveneight,,,,,,,,,,,,,,,,,,,,,,,,,,,,,,,,,,,,,,,,,,,,,,,,,,,,,,,,,,,,,,,,,,,,,,,,,,,,,,,,,,,,,,,,,,,,,,,,,,,,,,,,,,,,,,,,,,,,,,,,,,,,,,,,,,,,,,,
,,611ce3140be0fc75d7cf2c67,2023-12-07_07h38.17.202,kallum_motion_pilot,2023.2.3,Win32,59.88023952,611ce3140be0fc75d7cf2c67,6560176e4d91f764e2a42c74,657159bc117ba01906a79147,0.9531,0.9532,1,46,208,81,1,fiveseven,,,,,,,,,,,,,,,,,,,,,,,,,,,,,,,,,,,,,,,,,,,,,,,,,,,,,,,,,,,,,,,,,,,,,,,,,,,,,,,,,,,,,,,,,,,,,,,,,,,,,,,,,,,,,,,,,,,,,,,,,,,,,,,,,,,,,,,
,,611ce3140be0fc75d7cf2c67,2023-12-07_07h38.17.202,kallum_motion_pilot,2023.2.3,Win32,59.88023952,611ce3140be0fc75d7cf2c67,6560176e4d91f764e2a42c74,657159bc117ba01906a79147,0.9534,0.9538,1,47,209,67,1,twofour,,,,,,,,,,,,,,,,,,,,,,,,,,,,,,,,,,,,,,,,,,,,,,,,,,,,,,,,,,,,,,,,,,,,,,,,,,,,,,,,,,,,,,,,,,,,,,,,,,,,,,,,,,,,,,,,,,,,,,,,,,,,,,,,,,,,,,,
,,611ce3140be0fc75d7cf2c67,2023-12-07_07h38.17.202,kallum_motion_pilot,2023.2.3,Win32,59.88023952,611ce3140be0fc75d7cf2c67,6560176e4d91f764e2a42c74,657159bc117ba01906a79147,0.9541,0.9544,1,48,210,35,1,twofour,,,,,,,,,,,,,,,,,,,,,,,,,,,,,,,,,,,,,,,,,,,,,,,,,,,,,,,,,,,,,,,,,,,,,,,,,,,,,,,,,,,,,,,,,,,,,,,,,,,,,,,,,,,,,,,,,,,,,,,,,,,,,,,,,,,,,,,
,,611ce3140be0fc75d7cf2c67,2023-12-07_07h38.17.202,kallum_motion_pilot,2023.2.3,Win32,59.88023952,611ce3140be0fc75d7cf2c67,6560176e4d91f764e2a42c74,657159bc117ba01906a79147,0.9547,0.955,1,49,211,146,1,sixfive,,,,,,,,,,,,,,,,,,,,,,,,,,,,,,,,,,,,,,,,,,,,,,,,,,,,,,,,,,,,,,,,,,,,,,,,,,,,,,,,,,,,,,,,,,,,,,,,,,,,,,,,,,,,,,,,,,,,,,,,,,,,,,,,,,,,,,,
,,611ce3140be0fc75d7cf2c67,2023-12-07_07h38.17.202,kallum_motion_pilot,2023.2.3,Win32,59.88023952,611ce3140be0fc75d7cf2c67,6560176e4d91f764e2a42c74,657159bc117ba01906a79147,0.9552,0.9554,1,50,212,94,1,eightsix,,,,,,,,,,,,,,,,,,,,,,,,,,,,,,,,,,,,,,,,,,,,,,,,,,,,,,,,,,,,,,,,,,,,,,,,,,,,,,,,,,,,,,,,,,,,,,,,,,,,,,,,,,,,,,,,,,,,,,,,,,,,,,,,,,,,,,,
,,611ce3140be0fc75d7cf2c67,2023-12-07_07h38.17.202,kallum_motion_pilot,2023.2.3,Win32,59.88023952,611ce3140be0fc75d7cf2c67,6560176e4d91f764e2a42c74,657159bc117ba01906a79147,0.9556,0.9558,1,51,213,54,1,fourtwo,,,,,,,,,,,,,,,,,,,,,,,,,,,,,,,,,,,,,,,,,,,,,,,,,,,,,,,,,,,,,,,,,,,,,,,,,,,,,,,,,,,,,,,,,,,,,,,,,,,,,,,,,,,,,,,,,,,,,,,,,,,,,,,,,,,,,,,
,,611ce3140be0fc75d7cf2c67,2023-12-07_07h38.17.202,kallum_motion_pilot,2023.2.3,Win32,59.88023952,611ce3140be0fc75d7cf2c67,6560176e4d91f764e2a42c74,657159bc117ba01906a79147,0.956,0.9562,1,52,214,34,1,twoone,,,,,,,,,,,,,,,,,,,,,,,,,,,,,,,,,,,,,,,,,,,,,,,,,,,,,,,,,,,,,,,,,,,,,,,,,,,,,,,,,,,,,,,,,,,,,,,,,,,,,,,,,,,,,,,,,,,,,,,,,,,,,,,,,,,,,,,
,,611ce3140be0fc75d7cf2c67,2023-12-07_07h38.17.202,kallum_motion_pilot,2023.2.3,Win32,59.88023952,611ce3140be0fc75d7cf2c67,6560176e4d91f764e2a42c74,657159bc117ba01906a79147,0.9566,0.9569,1,53,215,11,1,twofour,,,,,,,,,,,,,,,,,,,,,,,,,,,,,,,,,,,,,,,,,,,,,,,,,,,,,,,,,,,,,,,,,,,,,,,,,,,,,,,,,,,,,,,,,,,,,,,,,,,,,,,,,,,,,,,,,,,,,,,,,,,,,,,,,,,,,,,
,,611ce3140be0fc75d7cf2c67,2023-12-07_07h38.17.202,kallum_motion_pilot,2023.2.3,Win32,59.88023952,611ce3140be0fc75d7cf2c67,6560176e4d91f764e2a42c74,657159bc117ba01906a79147,0.9573,0.9576,1,54,216,92,1,sevenfive,,,,,,,,,,,,,,,,,,,,,,,,,,,,,,,,,,,,,,,,,,,,,,,,,,,,,,,,,,,,,,,,,,,,,,,,,,,,,,,,,,,,,,,,,,,,,,,,,,,,,,,,,,,,,,,,,,,,,,,,,,,,,,,,,,,,,,,
,,611ce3140be0fc75d7cf2c67,2023-12-07_07h38.17.202,kallum_motion_pilot,2023.2.3,Win32,59.88023952,611ce3140be0fc75d7cf2c67,6560176e4d91f764e2a42c74,657159bc117ba01906a79147,0.9579,0.9582,1,55,217,29,1,threefour,,,,,,,,,,,,,,,,,,,,,,,,,,,,,,,,,,,,,,,,,,,,,,,,,,,,,,,,,,,,,,,,,,,,,,,,,,,,,,,,,,,,,,,,,,,,,,,,,,,,,,,,,,,,,,,,,,,,,,,,,,,,,,,,,,,,,,,
,,611ce3140be0fc75d7cf2c67,2023-12-07_07h38.17.202,kallum_motion_pilot,2023.2.3,Win32,59.88023952,611ce3140be0fc75d7cf2c67,6560176e4d91f764e2a42c74,657159bc117ba01906a79147,0.9585,0.9586,1,56,218,91,1,sixeight,,,,,,,,,,,,,,,,,,,,,,,,,,,,,,,,,,,,,,,,,,,,,,,,,,,,,,,,,,,,,,,,,,,,,,,,,,,,,,,,,,,,,,,,,,,,,,,,,,,,,,,,,,,,,,,,,,,,,,,,,,,,,,,,,,,,,,,
,,611ce3140be0fc75d7cf2c67,2023-12-07_07h38.17.202,kallum_motion_pilot,2023.2.3,Win32,59.88023952,611ce3140be0fc75d7cf2c67,6560176e4d91f764e2a42c74,657159bc117ba01906a79147,0.9589,0.959,1,57,219,16,1,onetwo,,,,,,,,,,,,,,,,,,,,,,,,,,,,,,,,,,,,,,,,,,,,,,,,,,,,,,,,,,,,,,,,,,,,,,,,,,,,,,,,,,,,,,,,,,,,,,,,,,,,,,,,,,,,,,,,,,,,,,,,,,,,,,,,,,,,,,,
,,611ce3140be0fc75d7cf2c67,2023-12-07_07h38.17.202,kallum_motion_pilot,2023.2.3,Win32,59.88023952,611ce3140be0fc75d7cf2c67,6560176e4d91f764e2a42c74,657159bc117ba01906a79147,0.9593,0.9595,1,58,220,77,1,threefour,,,,,,,,,,,,,,,,,,,,,,,,,,,,,,,,,,,,,,,,,,,,,,,,,,,,,,,,,,,,,,,,,,,,,,,,,,,,,,,,,,,,,,,,,,,,,,,,,,,,,,,,,,,,,,,,,,,,,,,,,,,,,,,,,,,,,,,
,,611ce3140be0fc75d7cf2c67,2023-12-07_07h38.17.202,kallum_motion_pilot,2023.2.3,Win32,59.88023952,611ce3140be0fc75d7cf2c67,6560176e4d91f764e2a42c74,657159bc117ba01906a79147,0.9597,0.96,1,59,221,132,1,sevenfive,,,,,,,,,,,,,,,,,,,,,,,,,,,,,,,,,,,,,,,,,,,,,,,,,,,,,,,,,,,,,,,,,,,,,,,,,,,,,,,,,,,,,,,,,,,,,,,,,,,,,,,,,,,,,,,,,,,,,,,,,,,,,,,,,,,,,,,
,,611ce3140be0fc75d7cf2c67,2023-12-07_07h38.17.202,kallum_motion_pilot,2023.2.3,Win32,59.88023952,611ce3140be0fc75d7cf2c67,6560176e4d91f764e2a42c74,657159bc117ba01906a79147,0.9601,0.9603,1,60,222,100,1,sevenfive,,,,,,,,,,,,,,,,,,,,,,,,,,,,,,,,,,,,,,,,,,,,,,,,,,,,,,,,,,,,,,,,,,,,,,,,,,,,,,,,,,,,,,,,,,,,,,,,,,,,,,,,,,,,,,,,,,,,,,,,,,,,,,,,,,,,,,,
,,611ce3140be0fc75d7cf2c67,2023-12-07_07h38.17.202,kallum_motion_pilot,2023.2.3,Win32,59.88023952,611ce3140be0fc75d7cf2c67,6560176e4d91f764e2a42c74,657159bc117ba01906a79147,0.9605,0.9607,1,61,223,2,1,twoone,,,,,,,,,,,,,,,,,,,,,,,,,,,,,,,,,,,,,,,,,,,,,,,,,,,,,,,,,,,,,,,,,,,,,,,,,,,,,,,,,,,,,,,,,,,,,,,,,,,,,,,,,,,,,,,,,,,,,,,,,,,,,,,,,,,,,,,
,,611ce3140be0fc75d7cf2c67,2023-12-07_07h38.17.202,kallum_motion_pilot,2023.2.3,Win32,59.88023952,611ce3140be0fc75d7cf2c67,6560176e4d91f764e2a42c74,657159bc117ba01906a79147,0.9609,0.9611,1,62,224,82,1,sixfive,,,,,,,,,,,,,,,,,,,,,,,,,,,,,,,,,,,,,,,,,,,,,,,,,,,,,,,,,,,,,,,,,,,,,,,,,,,,,,,,,,,,,,,,,,,,,,,,,,,,,,,,,,,,,,,,,,,,,,,,,,,,,,,,,,,,,,,
,,611ce3140be0fc75d7cf2c67,2023-12-07_07h38.17.202,kallum_motion_pilot,2023.2.3,Win32,59.88023952,611ce3140be0fc75d7cf2c67,6560176e4d91f764e2a42c74,657159bc117ba01906a79147,0.9613,0.9615,1,63,225,143,1,eightseven,,,,,,,,,,,,,,,,,,,,,,,,,,,,,,,,,,,,,,,,,,,,,,,,,,,,,,,,,,,,,,,,,,,,,,,,,,,,,,,,,,,,,,,,,,,,,,,,,,,,,,,,,,,,,,,,,,,,,,,,,,,,,,,,,,,,,,,
,,611ce3140be0fc75d7cf2c67,2023-12-07_07h38.17.202,kallum_motion_pilot,2023.2.3,Win32,59.88023952,611ce3140be0fc75d7cf2c67,6560176e4d91f764e2a42c74,657159bc117ba01906a79147,0.9617,0.9619,1,64,226,47,1,fourthree,,,,,,,,,,,,,,,,,,,,,,,,,,,,,,,,,,,,,,,,,,,,,,,,,,,,,,,,,,,,,,,,,,,,,,,,,,,,,,,,,,,,,,,,,,,,,,,,,,,,,,,,,,,,,,,,,,,,,,,,,,,,,,,,,,,,,,,
,,611ce3140be0fc75d7cf2c67,2023-12-07_07h38.17.202,kallum_motion_pilot,2023.2.3,Win32,59.88023952,611ce3140be0fc75d7cf2c67,6560176e4d91f764e2a42c74,657159bc117ba01906a79147,0.9621,0.9623,1,65,227,71,1,fourthree,,,,,,,,,,,,,,,,,,,,,,,,,,,,,,,,,,,,,,,,,,,,,,,,,,,,,,,,,,,,,,,,,,,,,,,,,,,,,,,,,,,,,,,,,,,,,,,,,,,,,,,,,,,,,,,,,,,,,,,,,,,,,,,,,,,,,,,
,,611ce3140be0fc75d7cf2c67,2023-12-07_07h38.17.202,kallum_motion_pilot,2023.2.3,Win32,59.88023952,611ce3140be0fc75d7cf2c67,6560176e4d91f764e2a42c74,657159bc117ba01906a79147,0.9626,0.9628,1,66,228,144,1,fivesix,,,,,,,,,,,,,,,,,,,,,,,,,,,,,,,,,,,,,,,,,,,,,,,,,,,,,,,,,,,,,,,,,,,,,,,,,,,,,,,,,,,,,,,,,,,,,,,,,,,,,,,,,,,,,,,,,,,,,,,,,,,,,,,,,,,,,,,
,,611ce3140be0fc75d7cf2c67,2023-12-07_07h38.17.202,kallum_motion_pilot,2023.2.3,Win32,59.88023952,611ce3140be0fc75d7cf2c67,6560176e4d91f764e2a42c74,657159bc117ba01906a79147,0.9629,0.9631,1,67,229,137,1,fiveseven,,,,,,,,,,,,,,,,,,,,,,,,,,,,,,,,,,,,,,,,,,,,,,,,,,,,,,,,,,,,,,,,,,,,,,,,,,,,,,,,,,,,,,,,,,,,,,,,,,,,,,,,,,,,,,,,,,,,,,,,,,,,,,,,,,,,,,,
,,611ce3140be0fc75d7cf2c67,2023-12-07_07h38.17.202,kallum_motion_pilot,2023.2.3,Win32,59.88023952,611ce3140be0fc75d7cf2c67,6560176e4d91f764e2a42c74,657159bc117ba01906a79147,0.9634,0.9636,1,68,230,84,1,sevenfive,,,,,,,,,,,,,,,,,,,,,,,,,,,,,,,,,,,,,,,,,,,,,,,,,,,,,,,,,,,,,,,,,,,,,,,,,,,,,,,,,,,,,,,,,,,,,,,,,,,,,,,,,,,,,,,,,,,,,,,,,,,,,,,,,,,,,,,
,,611ce3140be0fc75d7cf2c67,2023-12-07_07h38.17.202,kallum_motion_pilot,2023.2.3,Win32,59.88023952,611ce3140be0fc75d7cf2c67,6560176e4d91f764e2a42c74,657159bc117ba01906a79147,0.9638,0.9639,1,69,231,110,1,eightsix,,,,,,,,,,,,,,,,,,,,,,,,,,,,,,,,,,,,,,,,,,,,,,,,,,,,,,,,,,,,,,,,,,,,,,,,,,,,,,,,,,,,,,,,,,,,,,,,,,,,,,,,,,,,,,,,,,,,,,,,,,,,,,,,,,,,,,,
,,611ce3140be0fc75d7cf2c67,2023-12-07_07h38.17.202,kallum_motion_pilot,2023.2.3,Win32,59.88023952,611ce3140be0fc75d7cf2c67,6560176e4d91f764e2a42c74,657159bc117ba01906a79147,0.9641,0.9644,1,70,232,7,1,fourthree,,,,,,,,,,,,,,,,,,,,,,,,,,,,,,,,,,,,,,,,,,,,,,,,,,,,,,,,,,,,,,,,,,,,,,,,,,,,,,,,,,,,,,,,,,,,,,,,,,,,,,,,,,,,,,,,,,,,,,,,,,,,,,,,,,,,,,,
,,611ce3140be0fc75d7cf2c67,2023-12-07_07h38.17.202,kallum_motion_pilot,2023.2.3,Win32,59.88023952,611ce3140be0fc75d7cf2c67,6560176e4d91f764e2a42c74,657159bc117ba01906a79147,0.9646,0.9648,1,71,233,57,1,onethree,,,,,,,,,,,,,,,,,,,,,,,,,,,,,,,,,,,,,,,,,,,,,,,,,,,,,,,,,,,,,,,,,,,,,,,,,,,,,,,,,,,,,,,,,,,,,,,,,,,,,,,,,,,,,,,,,,,,,,,,,,,,,,,,,,,,,,,
,,611ce3140be0fc75d7cf2c67,2023-12-07_07h38.17.202,kallum_motion_pilot,2023.2.3,Win32,59.88023952,611ce3140be0fc75d7cf2c67,6560176e4d91f764e2a42c74,657159bc117ba01906a79147,0.9654,0.9657,1,72,234,74,1,twoone,,,,,,,,,,,,,,,,,,,,,,,,,,,,,,,,,,,,,,,,,,,,,,,,,,,,,,,,,,,,,,,,,,,,,,,,,,,,,,,,,,,,,,,,,,,,,,,,,,,,,,,,,,,,,,,,,,,,,,,,,,,,,,,,,,,,,,,
,,611ce3140be0fc75d7cf2c67,2023-12-07_07h38.17.202,kallum_motion_pilot,2023.2.3,Win32,59.88023952,611ce3140be0fc75d7cf2c67,6560176e4d91f764e2a42c74,657159bc117ba01906a79147,0.9659,0.9661,1,73,235,104,1,fivesix,,,,,,,,,,,,,,,,,,,,,,,,,,,,,,,,,,,,,,,,,,,,,,,,,,,,,,,,,,,,,,,,,,,,,,,,,,,,,,,,,,,,,,,,,,,,,,,,,,,,,,,,,,,,,,,,,,,,,,,,,,,,,,,,,,,,,,,
,,611ce3140be0fc75d7cf2c67,2023-12-07_07h38.17.202,kallum_motion_pilot,2023.2.3,Win32,59.88023952,611ce3140be0fc75d7cf2c67,6560176e4d91f764e2a42c74,657159bc117ba01906a79147,0.9663,0.9667,1,74,236,121,1,fiveseven,,,,,,,,,,,,,,,,,,,,,,,,,,,,,,,,,,,,,,,,,,,,,,,,,,,,,,,,,,,,,,,,,,,,,,,,,,,,,,,,,,,,,,,,,,,,,,,,,,,,,,,,,,,,,,,,,,,,,,,,,,,,,,,,,,,,,,,
,,611ce3140be0fc75d7cf2c67,2023-12-07_07h38.17.202,kallum_motion_pilot,2023.2.3,Win32,59.88023952,611ce3140be0fc75d7cf2c67,6560176e4d91f764e2a42c74,657159bc117ba01906a79147,0.9669,0.9671,1,75,237,19,1,twofour,,,,,,,,,,,,,,,,,,,,,,,,,,,,,,,,,,,,,,,,,,,,,,,,,,,,,,,,,,,,,,,,,,,,,,,,,,,,,,,,,,,,,,,,,,,,,,,,,,,,,,,,,,,,,,,,,,,,,,,,,,,,,,,,,,,,,,,
,,611ce3140be0fc75d7cf2c67,2023-12-07_07h38.17.202,kallum_motion_pilot,2023.2.3,Win32,59.88023952,611ce3140be0fc75d7cf2c67,6560176e4d91f764e2a42c74,657159bc117ba01906a79147,0.9672,0.9675,1,76,238,38,1,fourtwo,,,,,,,,,,,,,,,,,,,,,,,,,,,,,,,,,,,,,,,,,,,,,,,,,,,,,,,,,,,,,,,,,,,,,,,,,,,,,,,,,,,,,,,,,,,,,,,,,,,,,,,,,,,,,,,,,,,,,,,,,,,,,,,,,,,,,,,
,,611ce3140be0fc75d7cf2c67,2023-12-07_07h38.17.202,kallum_motion_pilot,2023.2.3,Win32,59.88023952,611ce3140be0fc75d7cf2c67,6560176e4d91f764e2a42c74,657159bc117ba01906a79147,0.9678,0.9679,1,77,239,60,1,threeone,,,,,,,,,,,,,,,,,,,,,,,,,,,,,,,,,,,,,,,,,,,,,,,,,,,,,,,,,,,,,,,,,,,,,,,,,,,,,,,,,,,,,,,,,,,,,,,,,,,,,,,,,,,,,,,,,,,,,,,,,,,,,,,,,,,,,,,
,,611ce3140be0fc75d7cf2c67,2023-12-07_07h38.17.202,kallum_motion_pilot,2023.2.3,Win32,59.88023952,611ce3140be0fc75d7cf2c67,6560176e4d91f764e2a42c74,657159bc117ba01906a79147,0.9681,0.9683,1,78,240,28,1,threeone,,,,,,,,,,,,,,,,,,,,,,,,,,,,,,,,,,,,,,,,,,,,,,,,,,,,,,,,,,,,,,,,,,,,,,,,,,,,,,,,,,,,,,,,,,,,,,,,,,,,,,,,,,,,,,,,,,,,,,,,,,,,,,,,,,,,,,,
,,611ce3140be0fc75d7cf2c67,2023-12-07_07h38.17.202,kallum_motion_pilot,2023.2.3,Win32,59.88023952,611ce3140be0fc75d7cf2c67,6560176e4d91f764e2a42c74,657159bc117ba01906a79147,0.9685,0.9687,1,79,241,145,1,fiveseven,,,,,,,,,,,,,,,,,,,,,,,,,,,,,,,,,,,,,,,,,,,,,,,,,,,,,,,,,,,,,,,,,,,,,,,,,,,,,,,,,,,,,,,,,,,,,,,,,,,,,,,,,,,,,,,,,,,,,,,,,,,,,,,,,,,,,,,
,,611ce3140be0fc75d7cf2c67,2023-12-07_07h38.17.202,kallum_motion_pilot,2023.2.3,Win32,59.88023952,611ce3140be0fc75d7cf2c67,6560176e4d91f764e2a42c74,657159bc117ba01906a79147,0.9689,0.9692,1,80,242,136,1,fivesix,,,,,,,,,,,,,,,,,,,,,,,,,,,,,,,,,,,,,,,,,,,,,,,,,,,,,,,,,,,,,,,,,,,,,,,,,,,,,,,,,,,,,,,,,,,,,,,,,,,,,,,,,,,,,,,,,,,,,,,,,,,,,,,,,,,,,,,
,,611ce3140be0fc75d7cf2c67,2023-12-07_07h38.17.202,kallum_motion_pilot,2023.2.3,Win32,59.88023952,611ce3140be0fc75d7cf2c67,6560176e4d91f764e2a42c74,657159bc117ba01906a79147,1.2566,1.2571,1,81,243,142,1,eightsix,,,,,,,,,,,,,,,,,,,,,,,,,,,,,,,,,,,,,,,,,,,,,,,,,,,,,,,,,,,,,,,,,,,,,,,,,,,,,,,,,,,,,,,,,,,,,,,,,,,,,,,,,,,,,,,,,,,,,,,,,,,,,,,,,,,,,,,
,,611ce3140be0fc75d7cf2c67,2023-12-07_07h38.17.202,kallum_motion_pilot,2023.2.3,Win32,59.88023952,611ce3140be0fc75d7cf2c67,6560176e4d91f764e2a42c74,657159bc117ba01906a79147,1.2579,1.2583,1,82,244,63,1,fourthree,,,,,,,,,,,,,,,,,,,,,,,,,,,,,,,,,,,,,,,,,,,,,,,,,,,,,,,,,,,,,,,,,,,,,,,,,,,,,,,,,,,,,,,,,,,,,,,,,,,,,,,,,,,,,,,,,,,,,,,,,,,,,,,,,,,,,,,
,,611ce3140be0fc75d7cf2c67,2023-12-07_07h38.17.202,kallum_motion_pilot,2023.2.3,Win32,59.88023952,611ce3140be0fc75d7cf2c67,6560176e4d91f764e2a42c74,657159bc117ba01906a79147,1.259,1.2595,1,83,245,17,1,onethree,,,,,,,,,,,,,,,,,,,,,,,,,,,,,,,,,,,,,,,,,,,,,,,,,,,,,,,,,,,,,,,,,,,,,,,,,,,,,,,,,,,,,,,,,,,,,,,,,,,,,,,,,,,,,,,,,,,,,,,,,,,,,,,,,,,,,,,
,,611ce3140be0fc75d7cf2c67,2023-12-07_07h38.17.202,kallum_motion_pilot,2023.2.3,Win32,59.88023952,611ce3140be0fc75d7cf2c67,6560176e4d91f764e2a42c74,657159bc117ba01906a79147,1.2602,1.2607,1,84,246,6,1,fourtwo,,,,,,,,,,,,,,,,,,,,,,,,,,,,,,,,,,,,,,,,,,,,,,,,,,,,,,,,,,,,,,,,,,,,,,,,,,,,,,,,,,,,,,,,,,,,,,,,,,,,,,,,,,,,,,,,,,,,,,,,,,,,,,,,,,,,,,,
,,611ce3140be0fc75d7cf2c67,2023-12-07_07h38.17.202,kallum_motion_pilot,2023.2.3,Win32,59.88023952,611ce3140be0fc75d7cf2c67,6560176e4d91f764e2a42c74,657159bc117ba01906a79147,1.2612,1.2617,1,85,247,31,1,fourthree,,,,,,,,,,,,,,,,,,,,,,,,,,,,,,,,,,,,,,,,,,,,,,,,,,,,,,,,,,,,,,,,,,,,,,,,,,,,,,,,,,,,,,,,,,,,,,,,,,,,,,,,,,,,,,,,,,,,,,,,,,,,,,,,,,,,,,,
,,611ce3140be0fc75d7cf2c67,2023-12-07_07h38.17.202,kallum_motion_pilot,2023.2.3,Win32,59.88023952,611ce3140be0fc75d7cf2c67,6560176e4d91f764e2a42c74,657159bc117ba01906a79147,1.2623,1.2628,1,86,248,153,1,fiveseven,,,,,,,,,,,,,,,,,,,,,,,,,,,,,,,,,,,,,,,,,,,,,,,,,,,,,,,,,,,,,,,,,,,,,,,,,,,,,,,,,,,,,,,,,,,,,,,,,,,,,,,,,,,,,,,,,,,,,,,,,,,,,,,,,,,,,,,
,,611ce3140be0fc75d7cf2c67,2023-12-07_07h38.17.202,kallum_motion_pilot,2023.2.3,Win32,59.88023952,611ce3140be0fc75d7cf2c67,6560176e4d91f764e2a42c74,657159bc117ba01906a79147,1.2637,1.264,1,87,249,155,1,sixeight,,,,,,,,,,,,,,,,,,,,,,,,,,,,,,,,,,,,,,,,,,,,,,,,,,,,,,,,,,,,,,,,,,,,,,,,,,,,,,,,,,,,,,,,,,,,,,,,,,,,,,,,,,,,,,,,,,,,,,,,,,,,,,,,,,,,,,,
,,611ce3140be0fc75d7cf2c67,2023-12-07_07h38.17.202,kallum_motion_pilot,2023.2.3,Win32,59.88023952,611ce3140be0fc75d7cf2c67,6560176e4d91f764e2a42c74,657159bc117ba01906a79147,1.2642,1.2644,1,88,250,23,1,fourthree,,,,,,,,,,,,,,,,,,,,,,,,,,,,,,,,,,,,,,,,,,,,,,,,,,,,,,,,,,,,,,,,,,,,,,,,,,,,,,,,,,,,,,,,,,,,,,,,,,,,,,,,,,,,,,,,,,,,,,,,,,,,,,,,,,,,,,,
,,611ce3140be0fc75d7cf2c67,2023-12-07_07h38.17.202,kallum_motion_pilot,2023.2.3,Win32,59.88023952,611ce3140be0fc75d7cf2c67,6560176e4d91f764e2a42c74,657159bc117ba01906a79147,1.2646,1.2648,1,89,251,130,1,sixfive,,,,,,,,,,,,,,,,,,,,,,,,,,,,,,,,,,,,,,,,,,,,,,,,,,,,,,,,,,,,,,,,,,,,,,,,,,,,,,,,,,,,,,,,,,,,,,,,,,,,,,,,,,,,,,,,,,,,,,,,,,,,,,,,,,,,,,,
,,611ce3140be0fc75d7cf2c67,2023-12-07_07h38.17.202,kallum_motion_pilot,2023.2.3,Win32,59.88023952,611ce3140be0fc75d7cf2c67,6560176e4d91f764e2a42c74,657159bc117ba01906a79147,1.2663,1.2668,1,90,252,15,1,fourthree,,,,,,,,,,,,,,,,,,,,,,,,,,,,,,,,,,,,,,,,,,,,,,,,,,,,,,,,,,,,,,,,,,,,,,,,,,,,,,,,,,,,,,,,,,,,,,,,,,,,,,,,,,,,,,,,,,,,,,,,,,,,,,,,,,,,,,,
,,611ce3140be0fc75d7cf2c67,2023-12-07_07h38.17.202,kallum_motion_pilot,2023.2.3,Win32,59.88023952,611ce3140be0fc75d7cf2c67,6560176e4d91f764e2a42c74,657159bc117ba01906a79147,1.2671,1.2673,1,91,253,111,1,eightseven,,,,,,,,,,,,,,,,,,,,,,,,,,,,,,,,,,,,,,,,,,,,,,,,,,,,,,,,,,,,,,,,,,,,,,,,,,,,,,,,,,,,,,,,,,,,,,,,,,,,,,,,,,,,,,,,,,,,,,,,,,,,,,,,,,,,,,,
,,611ce3140be0fc75d7cf2c67,2023-12-07_07h38.17.202,kallum_motion_pilot,2023.2.3,Win32,59.88023952,611ce3140be0fc75d7cf2c67,6560176e4d91f764e2a42c74,657159bc117ba01906a79147,1.2675,1.2677,1,92,254,66,1,twoone,,,,,,,,,,,,,,,,,,,,,,,,,,,,,,,,,,,,,,,,,,,,,,,,,,,,,,,,,,,,,,,,,,,,,,,,,,,,,,,,,,,,,,,,,,,,,,,,,,,,,,,,,,,,,,,,,,,,,,,,,,,,,,,,,,,,,,,
,,611ce3140be0fc75d7cf2c67,2023-12-07_07h38.17.202,kallum_motion_pilot,2023.2.3,Win32,59.88023952,611ce3140be0fc75d7cf2c67,6560176e4d91f764e2a42c74,657159bc117ba01906a79147,1.268,1.2682,1,93,255,36,1,threeone,,,,,,,,,,,,,,,,,,,,,,,,,,,,,,,,,,,,,,,,,,,,,,,,,,,,,,,,,,,,,,,,,,,,,,,,,,,,,,,,,,,,,,,,,,,,,,,,,,,,,,,,,,,,,,,,,,,,,,,,,,,,,,,,,,,,,,,
,,611ce3140be0fc75d7cf2c67,2023-12-07_07h38.17.202,kallum_motion_pilot,2023.2.3,Win32,59.88023952,611ce3140be0fc75d7cf2c67,6560176e4d91f764e2a42c74,657159bc117ba01906a79147,1.2684,1.2686,1,94,256,150,1,eightsix,,,,,,,,,,,,,,,,,,,,,,,,,,,,,,,,,,,,,,,,,,,,,,,,,,,,,,,,,,,,,,,,,,,,,,,,,,,,,,,,,,,,,,,,,,,,,,,,,,,,,,,,,,,,,,,,,,,,,,,,,,,,,,,,,,,,,,,
,,611ce3140be0fc75d7cf2c67,2023-12-07_07h38.17.202,kallum_motion_pilot,2023.2.3,Win32,59.88023952,611ce3140be0fc75d7cf2c67,6560176e4d91f764e2a42c74,657159bc117ba01906a79147,1.2689,1.269,1,95,257,161,1,fiveseven,,,,,,,,,,,,,,,,,,,,,,,,,,,,,,,,,,,,,,,,,,,,,,,,,,,,,,,,,,,,,,,,,,,,,,,,,,,,,,,,,,,,,,,,,,,,,,,,,,,,,,,,,,,,,,,,,,,,,,,,,,,,,,,,,,,,,,,
,,611ce3140be0fc75d7cf2c67,2023-12-07_07h38.17.202,kallum_motion_pilot,2023.2.3,Win32,59.88023952,611ce3140be0fc75d7cf2c67,6560176e4d91f764e2a42c74,657159bc117ba01906a79147,1.2693,1.2695,1,96,258,89,1,fiveseven,,,,,,,,,,,,,,,,,,,,,,,,,,,,,,,,,,,,,,,,,,,,,,,,,,,,,,,,,,,,,,,,,,,,,,,,,,,,,,,,,,,,,,,,,,,,,,,,,,,,,,,,,,,,,,,,,,,,,,,,,,,,,,,,,,,,,,,
,,611ce3140be0fc75d7cf2c67,2023-12-07_07h38.17.202,kallum_motion_pilot,2023.2.3,Win32,59.88023952,611ce3140be0fc75d7cf2c67,6560176e4d91f764e2a42c74,657159bc117ba01906a79147,1.2697,1.2699,1,97,259,112,1,fivesix,,,,,,,,,,,,,,,,,,,,,,,,,,,,,,,,,,,,,,,,,,,,,,,,,,,,,,,,,,,,,,,,,,,,,,,,,,,,,,,,,,,,,,,,,,,,,,,,,,,,,,,,,,,,,,,,,,,,,,,,,,,,,,,,,,,,,,,
,,611ce3140be0fc75d7cf2c67,2023-12-07_07h38.17.202,kallum_motion_pilot,2023.2.3,Win32,59.88023952,611ce3140be0fc75d7cf2c67,6560176e4d91f764e2a42c74,657159bc117ba01906a79147,1.2701,1.2703,1,98,260,12,1,threeone,,,,,,,,,,,,,,,,,,,,,,,,,,,,,,,,,,,,,,,,,,,,,,,,,,,,,,,,,,,,,,,,,,,,,,,,,,,,,,,,,,,,,,,,,,,,,,,,,,,,,,,,,,,,,,,,,,,,,,,,,,,,,,,,,,,,,,,
,,611ce3140be0fc75d7cf2c67,2023-12-07_07h38.17.202,kallum_motion_pilot,2023.2.3,Win32,59.88023952,611ce3140be0fc75d7cf2c67,6560176e4d91f764e2a42c74,657159bc117ba01906a79147,1.2705,1.2707,1,99,261,75,1,twofour,,,,,,,,,,,,,,,,,,,,,,,,,,,,,,,,,,,,,,,,,,,,,,,,,,,,,,,,,,,,,,,,,,,,,,,,,,,,,,,,,,,,,,,,,,,,,,,,,,,,,,,,,,,,,,,,,,,,,,,,,,,,,,,,,,,,,,,
,,611ce3140be0fc75d7cf2c67,2023-12-07_07h38.17.202,kallum_motion_pilot,2023.2.3,Win32,59.88023952,611ce3140be0fc75d7cf2c67,6560176e4d91f764e2a42c74,657159bc117ba01906a79147,1.2709,1.2712,1,100,262,126,1,eightsix,,,,,,,,,,,,,,,,,,,,,,,,,,,,,,,,,,,,,,,,,,,,,,,,,,,,,,,,,,,,,,,,,,,,,,,,,,,,,,,,,,,,,,,,,,,,,,,,,,,,,,,,,,,,,,,,,,,,,,,,,,,,,,,,,,,,,,,
,,611ce3140be0fc75d7cf2c67,2023-12-07_07h38.17.202,kallum_motion_pilot,2023.2.3,Win32,59.88023952,611ce3140be0fc75d7cf2c67,6560176e4d91f764e2a42c74,657159bc117ba01906a79147,1.2714,1.2716,1,101,263,53,1,threefour,,,,,,,,,,,,,,,,,,,,,,,,,,,,,,,,,,,,,,,,,,,,,,,,,,,,,,,,,,,,,,,,,,,,,,,,,,,,,,,,,,,,,,,,,,,,,,,,,,,,,,,,,,,,,,,,,,,,,,,,,,,,,,,,,,,,,,,
,,611ce3140be0fc75d7cf2c67,2023-12-07_07h38.17.202,kallum_motion_pilot,2023.2.3,Win32,59.88023952,611ce3140be0fc75d7cf2c67,6560176e4d91f764e2a42c74,657159bc117ba01906a79147,1.2719,1.2721,1,102,264,85,1,seveneight,,,,,,,,,,,,,,,,,,,,,,,,,,,,,,,,,,,,,,,,,,,,,,,,,,,,,,,,,,,,,,,,,,,,,,,,,,,,,,,,,,,,,,,,,,,,,,,,,,,,,,,,,,,,,,,,,,,,,,,,,,,,,,,,,,,,,,,
,,611ce3140be0fc75d7cf2c67,2023-12-07_07h38.17.202,kallum_motion_pilot,2023.2.3,Win32,59.88023952,611ce3140be0fc75d7cf2c67,6560176e4d91f764e2a42c74,657159bc117ba01906a79147,1.2722,1.2725,1,103,265,140,1,sevenfive,,,,,,,,,,,,,,,,,,,,,,,,,,,,,,,,,,,,,,,,,,,,,,,,,,,,,,,,,,,,,,,,,,,,,,,,,,,,,,,,,,,,,,,,,,,,,,,,,,,,,,,,,,,,,,,,,,,,,,,,,,,,,,,,,,,,,,,
,,611ce3140be0fc75d7cf2c67,2023-12-07_07h38.17.202,kallum_motion_pilot,2023.2.3,Win32,59.88023952,611ce3140be0fc75d7cf2c67,6560176e4d91f764e2a42c74,657159bc117ba01906a79147,1.2726,1.2728,1,104,266,79,1,eightseven,,,,,,,,,,,,,,,,,,,,,,,,,,,,,,,,,,,,,,,,,,,,,,,,,,,,,,,,,,,,,,,,,,,,,,,,,,,,,,,,,,,,,,,,,,,,,,,,,,,,,,,,,,,,,,,,,,,,,,,,,,,,,,,,,,,,,,,
,,611ce3140be0fc75d7cf2c67,2023-12-07_07h38.17.202,kallum_motion_pilot,2023.2.3,Win32,59.88023952,611ce3140be0fc75d7cf2c67,6560176e4d91f764e2a42c74,657159bc117ba01906a79147,1.2731,1.2733,1,105,267,65,1,onethree,,,,,,,,,,,,,,,,,,,,,,,,,,,,,,,,,,,,,,,,,,,,,,,,,,,,,,,,,,,,,,,,,,,,,,,,,,,,,,,,,,,,,,,,,,,,,,,,,,,,,,,,,,,,,,,,,,,,,,,,,,,,,,,,,,,,,,,
,,611ce3140be0fc75d7cf2c67,2023-12-07_07h38.17.202,kallum_motion_pilot,2023.2.3,Win32,59.88023952,611ce3140be0fc75d7cf2c67,6560176e4d91f764e2a42c74,657159bc117ba01906a79147,1.2735,1.2737,1,106,268,25,1,onethree,,,,,,,,,,,,,,,,,,,,,,,,,,,,,,,,,,,,,,,,,,,,,,,,,,,,,,,,,,,,,,,,,,,,,,,,,,,,,,,,,,,,,,,,,,,,,,,,,,,,,,,,,,,,,,,,,,,,,,,,,,,,,,,,,,,,,,,
,,611ce3140be0fc75d7cf2c67,2023-12-07_07h38.17.202,kallum_motion_pilot,2023.2.3,Win32,59.88023952,611ce3140be0fc75d7cf2c67,6560176e4d91f764e2a42c74,657159bc117ba01906a79147,1.2739,1.2742,1,107,269,30,1,fourtwo,,,,,,,,,,,,,,,,,,,,,,,,,,,,,,,,,,,,,,,,,,,,,,,,,,,,,,,,,,,,,,,,,,,,,,,,,,,,,,,,,,,,,,,,,,,,,,,,,,,,,,,,,,,,,,,,,,,,,,,,,,,,,,,,,,,,,,,
,,611ce3140be0fc75d7cf2c67,2023-12-07_07h38.17.202,kallum_motion_pilot,2023.2.3,Win32,59.88023952,611ce3140be0fc75d7cf2c67,6560176e4d91f764e2a42c74,657159bc117ba01906a79147,1.2743,1.2745,1,108,270,139,1,sixeight,,,,,,,,,,,,,,,,,,,,,,,,,,,,,,,,,,,,,,,,,,,,,,,,,,,,,,,,,,,,,,,,,,,,,,,,,,,,,,,,,,,,,,,,,,,,,,,,,,,,,,,,,,,,,,,,,,,,,,,,,,,,,,,,,,,,,,,
,,611ce3140be0fc75d7cf2c67,2023-12-07_07h38.17.202,kallum_motion_pilot,2023.2.3,Win32,59.88023952,611ce3140be0fc75d7cf2c67,6560176e4d91f764e2a42c74,657159bc117ba01906a79147,1.2748,1.275,1,109,271,123,1,sixeight,,,,,,,,,,,,,,,,,,,,,,,,,,,,,,,,,,,,,,,,,,,,,,,,,,,,,,,,,,,,,,,,,,,,,,,,,,,,,,,,,,,,,,,,,,,,,,,,,,,,,,,,,,,,,,,,,,,,,,,,,,,,,,,,,,,,,,,
,,611ce3140be0fc75d7cf2c67,2023-12-07_07h38.17.202,kallum_motion_pilot,2023.2.3,Win32,59.88023952,611ce3140be0fc75d7cf2c67,6560176e4d91f764e2a42c74,657159bc117ba01906a79147,1.2752,1.2754,1,110,272,51,1,twofour,,,,,,,,,,,,,,,,,,,,,,,,,,,,,,,,,,,,,,,,,,,,,,,,,,,,,,,,,,,,,,,,,,,,,,,,,,,,,,,,,,,,,,,,,,,,,,,,,,,,,,,,,,,,,,,,,,,,,,,,,,,,,,,,,,,,,,,
,,611ce3140be0fc75d7cf2c67,2023-12-07_07h38.17.202,kallum_motion_pilot,2023.2.3,Win32,59.88023952,611ce3140be0fc75d7cf2c67,6560176e4d91f764e2a42c74,657159bc117ba01906a79147,1.2756,1.2758,1,111,273,26,1,twoone,,,,,,,,,,,,,,,,,,,,,,,,,,,,,,,,,,,,,,,,,,,,,,,,,,,,,,,,,,,,,,,,,,,,,,,,,,,,,,,,,,,,,,,,,,,,,,,,,,,,,,,,,,,,,,,,,,,,,,,,,,,,,,,,,,,,,,,
,,611ce3140be0fc75d7cf2c67,2023-12-07_07h38.17.202,kallum_motion_pilot,2023.2.3,Win32,59.88023952,611ce3140be0fc75d7cf2c67,6560176e4d91f764e2a42c74,657159bc117ba01906a79147,1.276,1.2763,1,112,274,87,1,eightseven,,,,,,,,,,,,,,,,,,,,,,,,,,,,,,,,,,,,,,,,,,,,,,,,,,,,,,,,,,,,,,,,,,,,,,,,,,,,,,,,,,,,,,,,,,,,,,,,,,,,,,,,,,,,,,,,,,,,,,,,,,,,,,,,,,,,,,,
,,611ce3140be0fc75d7cf2c67,2023-12-07_07h38.17.202,kallum_motion_pilot,2023.2.3,Win32,59.88023952,611ce3140be0fc75d7cf2c67,6560176e4d91f764e2a42c74,657159bc117ba01906a79147,1.2765,1.2767,1,113,275,0,1,onetwo,,,,,,,,,,,,,,,,,,,,,,,,,,,,,,,,,,,,,,,,,,,,,,,,,,,,,,,,,,,,,,,,,,,,,,,,,,,,,,,,,,,,,,,,,,,,,,,,,,,,,,,,,,,,,,,,,,,,,,,,,,,,,,,,,,,,,,,
,,611ce3140be0fc75d7cf2c67,2023-12-07_07h38.17.202,kallum_motion_pilot,2023.2.3,Win32,59.88023952,611ce3140be0fc75d7cf2c67,6560176e4d91f764e2a42c74,657159bc117ba01906a79147,1.2768,1.2771,1,114,276,118,1,eightsix,,,,,,,,,,,,,,,,,,,,,,,,,,,,,,,,,,,,,,,,,,,,,,,,,,,,,,,,,,,,,,,,,,,,,,,,,,,,,,,,,,,,,,,,,,,,,,,,,,,,,,,,,,,,,,,,,,,,,,,,,,,,,,,,,,,,,,,
,,611ce3140be0fc75d7cf2c67,2023-12-07_07h38.17.202,kallum_motion_pilot,2023.2.3,Win32,59.88023952,611ce3140be0fc75d7cf2c67,6560176e4d91f764e2a42c74,657159bc117ba01906a79147,1.2773,1.2775,1,115,277,159,1,eightseven,,,,,,,,,,,,,,,,,,,,,,,,,,,,,,,,,,,,,,,,,,,,,,,,,,,,,,,,,,,,,,,,,,,,,,,,,,,,,,,,,,,,,,,,,,,,,,,,,,,,,,,,,,,,,,,,,,,,,,,,,,,,,,,,,,,,,,,
,,611ce3140be0fc75d7cf2c67,2023-12-07_07h38.17.202,kallum_motion_pilot,2023.2.3,Win32,59.88023952,611ce3140be0fc75d7cf2c67,6560176e4d91f764e2a42c74,657159bc117ba01906a79147,1.2777,1.2778,1,116,278,9,1,onethree,,,,,,,,,,,,,,,,,,,,,,,,,,,,,,,,,,,,,,,,,,,,,,,,,,,,,,,,,,,,,,,,,,,,,,,,,,,,,,,,,,,,,,,,,,,,,,,,,,,,,,,,,,,,,,,,,,,,,,,,,,,,,,,,,,,,,,,
,,611ce3140be0fc75d7cf2c67,2023-12-07_07h38.17.202,kallum_motion_pilot,2023.2.3,Win32,59.88023952,611ce3140be0fc75d7cf2c67,6560176e4d91f764e2a42c74,657159bc117ba01906a79147,1.2781,1.2783,1,117,279,40,1,onetwo,,,,,,,,,,,,,,,,,,,,,,,,,,,,,,,,,,,,,,,,,,,,,,,,,,,,,,,,,,,,,,,,,,,,,,,,,,,,,,,,,,,,,,,,,,,,,,,,,,,,,,,,,,,,,,,,,,,,,,,,,,,,,,,,,,,,,,,
