startup.started,startup.stopped,Prolific ID*,date,expName,psychopyVersion,OS,frameRate,participant,study_id,session,stimpositions.started,stimpositions.stopped,hardcoded_stimulus_positions.thisRepN,hardcoded_stimulus_positions.thisTrialN,hardcoded_stimulus_positions.thisN,hardcoded_stimulus_positions.thisIndex,hardcoded_stimulus_positions.ran,StimulusPos,stimorientation.started,stimorientation.stopped,prac_stimorientation_import_loop.thisRepN,prac_stimorientation_import_loop.thisTrialN,prac_stimorientation_import_loop.thisN,prac_stimorientation_import_loop.thisIndex,prac_stimorientation_import_loop.ran,Stimorientation,welcome_instr.started,welcome_instr.stopped,key_resp.keys,key_resp.rt,key_resp.duration,response_steppedout_1.started,response_steppedout_1.stopped,key_resp_20.keys,key_resp_20.rt,key_resp_20.duration,response_steppedout_2.started,response_steppedout_2.stopped,key_resp_19.keys,key_resp_19.rt,key_resp_19.duration,stim_response_instr.started,stim_response_instr.stopped,key_resp_15.keys,key_resp_15.rt,key_resp_15.duration,direction_instr_2.started,direction_instr_2.stopped,key_resp_9.keys,key_resp_9.rt,key_resp_9.duration,instr_prac.started,instr_prac.stopped,key_resp_10.keys,key_resp_10.rt,key_resp_10.duration,Stim1_display_prac.started,Stim1_display_prac.stopped,Ecc,Circle1_ori,Circle2_ori,response_prac.started,similarity,response_time,response_prac.stopped,mouse_5.x,mouse_5.y,mouse_5.leftButton,mouse_5.midButton,mouse_5.rightButton,mouse_5.clicked_name,responseprac_feedback.started,responseprac_feedback.stopped,summary2_prac.started,summary2_prac.stopped,mouse_6.x,mouse_6.y,mouse_6.leftButton,mouse_6.midButton,mouse_6.rightButton,mouse_6.clicked_name,duringprac.thisRepN,duringprac.thisTrialN,duringprac.thisN,duringprac.thisIndex,duringprac.ran,begin.started,begin.stopped,key_resp_22.keys,key_resp_22.rt,key_resp_22.duration,Stim1_display.started,Stim1_display.stopped,circle1_ori,circle2_ori,blank.started,blank.stopped,response.started,response.stopped,mouse.x,mouse.y,mouse.leftButton,mouse.midButton,mouse.rightButton,mouse.clicked_name,response_2.started,response_2.stopped,mouse_2.x,mouse_2.y,mouse_2.leftButton,mouse_2.midButton,mouse_2.rightButton,mouse_2.clicked_name,special_trial.started,special_trial.stopped,catch_1.started,catch_1.stopped,mouse_3.x,mouse_3.y,mouse_3.leftButton,mouse_3.midButton,mouse_3.rightButton,catchresponse,catchnumber,response_time_catch,Catch,response_sum.started,response_sum.stopped,mouse_11.x,mouse_11.y,mouse_11.leftButton,mouse_11.midButton,mouse_11.rightButton,main_trial.thisRepN,main_trial.thisTrialN,main_trial.thisN,main_trial.thisIndex,main_trial.ran,Orientationtrialno,xcircle1_ori,xcircle2_ori,flip_presentation_sequence_for_double_pass.started,flip_presentation_sequence_for_double_pass.stopped,double_pass.thisRepN,double_pass.thisTrialN,double_pass.thisN,double_pass.thisIndex,double_pass.ran,goodbye.started,goodbye.stopped,key_resp_3.keys,key_resp_3.rt,key_resp_3.duration
0.0006,0.0007,614a4c9d8172751921452626,2023-12-06_21h31.22.155,kallum_motion_pilot,2023.2.3,Win32,8.571257146,614a4c9d8172751921452626,6560176e4d91f764e2a42c74,657158800a4f152cb553a97a,,,,,,,,,,,,,,,,,,,,,,,,,,,,,,,,,,,,,,,,,,,,,,,,,,,,,,,,,,,,,,,,,,,,,,,,,,,,,,,,,,,,,,,,,,,,,,,,,,,,,,,,,,,,,,,,,,,,,,,,,,,,,,,,,,,,,,,,,,,,,,,
,,614a4c9d8172751921452626,2023-12-06_21h31.22.155,kallum_motion_pilot,2023.2.3,Win32,8.571257146,614a4c9d8172751921452626,6560176e4d91f764e2a42c74,657158800a4f152cb553a97a,0.022,0.0222,0,0,0,0,1,onetwo,,,,,,,,,,,,,,,,,,,,,,,,,,,,,,,,,,,,,,,,,,,,,,,,,,,,,,,,,,,,,,,,,,,,,,,,,,,,,,,,,,,,,,,,,,,,,,,,,,,,,,,,,,,,,,,,,,,,,,,,,,,,,,,,,,,,,,,
,,614a4c9d8172751921452626,2023-12-06_21h31.22.155,kallum_motion_pilot,2023.2.3,Win32,8.571257146,614a4c9d8172751921452626,6560176e4d91f764e2a42c74,657158800a4f152cb553a97a,0.0224,0.0225,0,1,1,73,1,onethree,,,,,,,,,,,,,,,,,,,,,,,,,,,,,,,,,,,,,,,,,,,,,,,,,,,,,,,,,,,,,,,,,,,,,,,,,,,,,,,,,,,,,,,,,,,,,,,,,,,,,,,,,,,,,,,,,,,,,,,,,,,,,,,,,,,,,,,
,,614a4c9d8172751921452626,2023-12-06_21h31.22.155,kallum_motion_pilot,2023.2.3,Win32,8.571257146,614a4c9d8172751921452626,6560176e4d91f764e2a42c74,657158800a4f152cb553a97a,0.0226,0.0227,0,2,2,30,1,fourtwo,,,,,,,,,,,,,,,,,,,,,,,,,,,,,,,,,,,,,,,,,,,,,,,,,,,,,,,,,,,,,,,,,,,,,,,,,,,,,,,,,,,,,,,,,,,,,,,,,,,,,,,,,,,,,,,,,,,,,,,,,,,,,,,,,,,,,,,
,,614a4c9d8172751921452626,2023-12-06_21h31.22.155,kallum_motion_pilot,2023.2.3,Win32,8.571257146,614a4c9d8172751921452626,6560176e4d91f764e2a42c74,657158800a4f152cb553a97a,0.0228,0.0228,0,3,3,133,1,seveneight,,,,,,,,,,,,,,,,,,,,,,,,,,,,,,,,,,,,,,,,,,,,,,,,,,,,,,,,,,,,,,,,,,,,,,,,,,,,,,,,,,,,,,,,,,,,,,,,,,,,,,,,,,,,,,,,,,,,,,,,,,,,,,,,,,,,,,,
,,614a4c9d8172751921452626,2023-12-06_21h31.22.155,kallum_motion_pilot,2023.2.3,Win32,8.571257146,614a4c9d8172751921452626,6560176e4d91f764e2a42c74,657158800a4f152cb553a97a,0.0229,0.023,0,4,4,152,1,fivesix,,,,,,,,,,,,,,,,,,,,,,,,,,,,,,,,,,,,,,,,,,,,,,,,,,,,,,,,,,,,,,,,,,,,,,,,,,,,,,,,,,,,,,,,,,,,,,,,,,,,,,,,,,,,,,,,,,,,,,,,,,,,,,,,,,,,,,,
,,614a4c9d8172751921452626,2023-12-06_21h31.22.155,kallum_motion_pilot,2023.2.3,Win32,8.571257146,614a4c9d8172751921452626,6560176e4d91f764e2a42c74,657158800a4f152cb553a97a,0.023,0.0231,0,5,5,55,1,fourthree,,,,,,,,,,,,,,,,,,,,,,,,,,,,,,,,,,,,,,,,,,,,,,,,,,,,,,,,,,,,,,,,,,,,,,,,,,,,,,,,,,,,,,,,,,,,,,,,,,,,,,,,,,,,,,,,,,,,,,,,,,,,,,,,,,,,,,,
,,614a4c9d8172751921452626,2023-12-06_21h31.22.155,kallum_motion_pilot,2023.2.3,Win32,8.571257146,614a4c9d8172751921452626,6560176e4d91f764e2a42c74,657158800a4f152cb553a97a,0.0232,0.0232,0,6,6,80,1,fivesix,,,,,,,,,,,,,,,,,,,,,,,,,,,,,,,,,,,,,,,,,,,,,,,,,,,,,,,,,,,,,,,,,,,,,,,,,,,,,,,,,,,,,,,,,,,,,,,,,,,,,,,,,,,,,,,,,,,,,,,,,,,,,,,,,,,,,,,
,,614a4c9d8172751921452626,2023-12-06_21h31.22.155,kallum_motion_pilot,2023.2.3,Win32,8.571257146,614a4c9d8172751921452626,6560176e4d91f764e2a42c74,657158800a4f152cb553a97a,0.0232,0.0233,0,7,7,94,1,eightsix,,,,,,,,,,,,,,,,,,,,,,,,,,,,,,,,,,,,,,,,,,,,,,,,,,,,,,,,,,,,,,,,,,,,,,,,,,,,,,,,,,,,,,,,,,,,,,,,,,,,,,,,,,,,,,,,,,,,,,,,,,,,,,,,,,,,,,,
,,614a4c9d8172751921452626,2023-12-06_21h31.22.155,kallum_motion_pilot,2023.2.3,Win32,8.571257146,614a4c9d8172751921452626,6560176e4d91f764e2a42c74,657158800a4f152cb553a97a,0.0234,0.0234,0,8,8,153,1,fiveseven,,,,,,,,,,,,,,,,,,,,,,,,,,,,,,,,,,,,,,,,,,,,,,,,,,,,,,,,,,,,,,,,,,,,,,,,,,,,,,,,,,,,,,,,,,,,,,,,,,,,,,,,,,,,,,,,,,,,,,,,,,,,,,,,,,,,,,,
,,614a4c9d8172751921452626,2023-12-06_21h31.22.155,kallum_motion_pilot,2023.2.3,Win32,8.571257146,614a4c9d8172751921452626,6560176e4d91f764e2a42c74,657158800a4f152cb553a97a,0.0235,0.0235,0,9,9,125,1,seveneight,,,,,,,,,,,,,,,,,,,,,,,,,,,,,,,,,,,,,,,,,,,,,,,,,,,,,,,,,,,,,,,,,,,,,,,,,,,,,,,,,,,,,,,,,,,,,,,,,,,,,,,,,,,,,,,,,,,,,,,,,,,,,,,,,,,,,,,
,,614a4c9d8172751921452626,2023-12-06_21h31.22.155,kallum_motion_pilot,2023.2.3,Win32,8.571257146,614a4c9d8172751921452626,6560176e4d91f764e2a42c74,657158800a4f152cb553a97a,0.0243,0.0243,0,10,10,138,1,sixfive,,,,,,,,,,,,,,,,,,,,,,,,,,,,,,,,,,,,,,,,,,,,,,,,,,,,,,,,,,,,,,,,,,,,,,,,,,,,,,,,,,,,,,,,,,,,,,,,,,,,,,,,,,,,,,,,,,,,,,,,,,,,,,,,,,,,,,,
,,614a4c9d8172751921452626,2023-12-06_21h31.22.155,kallum_motion_pilot,2023.2.3,Win32,8.571257146,614a4c9d8172751921452626,6560176e4d91f764e2a42c74,657158800a4f152cb553a97a,0.0244,0.0244,0,11,11,127,1,eightseven,,,,,,,,,,,,,,,,,,,,,,,,,,,,,,,,,,,,,,,,,,,,,,,,,,,,,,,,,,,,,,,,,,,,,,,,,,,,,,,,,,,,,,,,,,,,,,,,,,,,,,,,,,,,,,,,,,,,,,,,,,,,,,,,,,,,,,,
,,614a4c9d8172751921452626,2023-12-06_21h31.22.155,kallum_motion_pilot,2023.2.3,Win32,8.571257146,614a4c9d8172751921452626,6560176e4d91f764e2a42c74,657158800a4f152cb553a97a,0.0244,0.0245,0,12,12,3,1,twofour,,,,,,,,,,,,,,,,,,,,,,,,,,,,,,,,,,,,,,,,,,,,,,,,,,,,,,,,,,,,,,,,,,,,,,,,,,,,,,,,,,,,,,,,,,,,,,,,,,,,,,,,,,,,,,,,,,,,,,,,,,,,,,,,,,,,,,,
,,614a4c9d8172751921452626,2023-12-06_21h31.22.155,kallum_motion_pilot,2023.2.3,Win32,8.571257146,614a4c9d8172751921452626,6560176e4d91f764e2a42c74,657158800a4f152cb553a97a,0.0246,0.0246,0,13,13,28,1,threeone,,,,,,,,,,,,,,,,,,,,,,,,,,,,,,,,,,,,,,,,,,,,,,,,,,,,,,,,,,,,,,,,,,,,,,,,,,,,,,,,,,,,,,,,,,,,,,,,,,,,,,,,,,,,,,,,,,,,,,,,,,,,,,,,,,,,,,,
,,614a4c9d8172751921452626,2023-12-06_21h31.22.155,kallum_motion_pilot,2023.2.3,Win32,8.571257146,614a4c9d8172751921452626,6560176e4d91f764e2a42c74,657158800a4f152cb553a97a,0.0247,0.0247,0,14,14,75,1,twofour,,,,,,,,,,,,,,,,,,,,,,,,,,,,,,,,,,,,,,,,,,,,,,,,,,,,,,,,,,,,,,,,,,,,,,,,,,,,,,,,,,,,,,,,,,,,,,,,,,,,,,,,,,,,,,,,,,,,,,,,,,,,,,,,,,,,,,,
,,614a4c9d8172751921452626,2023-12-06_21h31.22.155,kallum_motion_pilot,2023.2.3,Win32,8.571257146,614a4c9d8172751921452626,6560176e4d91f764e2a42c74,657158800a4f152cb553a97a,0.0247,0.0248,0,15,15,27,1,twofour,,,,,,,,,,,,,,,,,,,,,,,,,,,,,,,,,,,,,,,,,,,,,,,,,,,,,,,,,,,,,,,,,,,,,,,,,,,,,,,,,,,,,,,,,,,,,,,,,,,,,,,,,,,,,,,,,,,,,,,,,,,,,,,,,,,,,,,
,,614a4c9d8172751921452626,2023-12-06_21h31.22.155,kallum_motion_pilot,2023.2.3,Win32,8.571257146,614a4c9d8172751921452626,6560176e4d91f764e2a42c74,657158800a4f152cb553a97a,0.0248,0.0249,0,16,16,134,1,eightsix,,,,,,,,,,,,,,,,,,,,,,,,,,,,,,,,,,,,,,,,,,,,,,,,,,,,,,,,,,,,,,,,,,,,,,,,,,,,,,,,,,,,,,,,,,,,,,,,,,,,,,,,,,,,,,,,,,,,,,,,,,,,,,,,,,,,,,,
,,614a4c9d8172751921452626,2023-12-06_21h31.22.155,kallum_motion_pilot,2023.2.3,Win32,8.571257146,614a4c9d8172751921452626,6560176e4d91f764e2a42c74,657158800a4f152cb553a97a,0.0249,0.025,0,17,17,53,1,threefour,,,,,,,,,,,,,,,,,,,,,,,,,,,,,,,,,,,,,,,,,,,,,,,,,,,,,,,,,,,,,,,,,,,,,,,,,,,,,,,,,,,,,,,,,,,,,,,,,,,,,,,,,,,,,,,,,,,,,,,,,,,,,,,,,,,,,,,
,,614a4c9d8172751921452626,2023-12-06_21h31.22.155,kallum_motion_pilot,2023.2.3,Win32,8.571257146,614a4c9d8172751921452626,6560176e4d91f764e2a42c74,657158800a4f152cb553a97a,0.025,0.025,0,18,18,120,1,fivesix,,,,,,,,,,,,,,,,,,,,,,,,,,,,,,,,,,,,,,,,,,,,,,,,,,,,,,,,,,,,,,,,,,,,,,,,,,,,,,,,,,,,,,,,,,,,,,,,,,,,,,,,,,,,,,,,,,,,,,,,,,,,,,,,,,,,,,,
,,614a4c9d8172751921452626,2023-12-06_21h31.22.155,kallum_motion_pilot,2023.2.3,Win32,8.571257146,614a4c9d8172751921452626,6560176e4d91f764e2a42c74,657158800a4f152cb553a97a,0.0251,0.0251,0,19,19,89,1,fiveseven,,,,,,,,,,,,,,,,,,,,,,,,,,,,,,,,,,,,,,,,,,,,,,,,,,,,,,,,,,,,,,,,,,,,,,,,,,,,,,,,,,,,,,,,,,,,,,,,,,,,,,,,,,,,,,,,,,,,,,,,,,,,,,,,,,,,,,,
,,614a4c9d8172751921452626,2023-12-06_21h31.22.155,kallum_motion_pilot,2023.2.3,Win32,8.571257146,614a4c9d8172751921452626,6560176e4d91f764e2a42c74,657158800a4f152cb553a97a,0.0252,0.0252,0,20,20,4,1,threeone,,,,,,,,,,,,,,,,,,,,,,,,,,,,,,,,,,,,,,,,,,,,,,,,,,,,,,,,,,,,,,,,,,,,,,,,,,,,,,,,,,,,,,,,,,,,,,,,,,,,,,,,,,,,,,,,,,,,,,,,,,,,,,,,,,,,,,,
,,614a4c9d8172751921452626,2023-12-06_21h31.22.155,kallum_motion_pilot,2023.2.3,Win32,8.571257146,614a4c9d8172751921452626,6560176e4d91f764e2a42c74,657158800a4f152cb553a97a,0.0252,0.0252,0,21,21,111,1,eightseven,,,,,,,,,,,,,,,,,,,,,,,,,,,,,,,,,,,,,,,,,,,,,,,,,,,,,,,,,,,,,,,,,,,,,,,,,,,,,,,,,,,,,,,,,,,,,,,,,,,,,,,,,,,,,,,,,,,,,,,,,,,,,,,,,,,,,,,
,,614a4c9d8172751921452626,2023-12-06_21h31.22.155,kallum_motion_pilot,2023.2.3,Win32,8.571257146,614a4c9d8172751921452626,6560176e4d91f764e2a42c74,657158800a4f152cb553a97a,0.0254,0.0254,0,22,22,131,1,sixeight,,,,,,,,,,,,,,,,,,,,,,,,,,,,,,,,,,,,,,,,,,,,,,,,,,,,,,,,,,,,,,,,,,,,,,,,,,,,,,,,,,,,,,,,,,,,,,,,,,,,,,,,,,,,,,,,,,,,,,,,,,,,,,,,,,,,,,,
,,614a4c9d8172751921452626,2023-12-06_21h31.22.155,kallum_motion_pilot,2023.2.3,Win32,8.571257146,614a4c9d8172751921452626,6560176e4d91f764e2a42c74,657158800a4f152cb553a97a,0.0255,0.0255,0,23,23,99,1,sixeight,,,,,,,,,,,,,,,,,,,,,,,,,,,,,,,,,,,,,,,,,,,,,,,,,,,,,,,,,,,,,,,,,,,,,,,,,,,,,,,,,,,,,,,,,,,,,,,,,,,,,,,,,,,,,,,,,,,,,,,,,,,,,,,,,,,,,,,
,,614a4c9d8172751921452626,2023-12-06_21h31.22.155,kallum_motion_pilot,2023.2.3,Win32,8.571257146,614a4c9d8172751921452626,6560176e4d91f764e2a42c74,657158800a4f152cb553a97a,0.0256,0.0256,0,24,24,109,1,seveneight,,,,,,,,,,,,,,,,,,,,,,,,,,,,,,,,,,,,,,,,,,,,,,,,,,,,,,,,,,,,,,,,,,,,,,,,,,,,,,,,,,,,,,,,,,,,,,,,,,,,,,,,,,,,,,,,,,,,,,,,,,,,,,,,,,,,,,,
,,614a4c9d8172751921452626,2023-12-06_21h31.22.155,kallum_motion_pilot,2023.2.3,Win32,8.571257146,614a4c9d8172751921452626,6560176e4d91f764e2a42c74,657158800a4f152cb553a97a,0.0258,0.0258,0,25,25,72,1,onetwo,,,,,,,,,,,,,,,,,,,,,,,,,,,,,,,,,,,,,,,,,,,,,,,,,,,,,,,,,,,,,,,,,,,,,,,,,,,,,,,,,,,,,,,,,,,,,,,,,,,,,,,,,,,,,,,,,,,,,,,,,,,,,,,,,,,,,,,
,,614a4c9d8172751921452626,2023-12-06_21h31.22.155,kallum_motion_pilot,2023.2.3,Win32,8.571257146,614a4c9d8172751921452626,6560176e4d91f764e2a42c74,657158800a4f152cb553a97a,0.0259,0.0259,0,26,26,50,1,twoone,,,,,,,,,,,,,,,,,,,,,,,,,,,,,,,,,,,,,,,,,,,,,,,,,,,,,,,,,,,,,,,,,,,,,,,,,,,,,,,,,,,,,,,,,,,,,,,,,,,,,,,,,,,,,,,,,,,,,,,,,,,,,,,,,,,,,,,
,,614a4c9d8172751921452626,2023-12-06_21h31.22.155,kallum_motion_pilot,2023.2.3,Win32,8.571257146,614a4c9d8172751921452626,6560176e4d91f764e2a42c74,657158800a4f152cb553a97a,0.0259,0.0259,0,27,27,54,1,fourtwo,,,,,,,,,,,,,,,,,,,,,,,,,,,,,,,,,,,,,,,,,,,,,,,,,,,,,,,,,,,,,,,,,,,,,,,,,,,,,,,,,,,,,,,,,,,,,,,,,,,,,,,,,,,,,,,,,,,,,,,,,,,,,,,,,,,,,,,
,,614a4c9d8172751921452626,2023-12-06_21h31.22.155,kallum_motion_pilot,2023.2.3,Win32,8.571257146,614a4c9d8172751921452626,6560176e4d91f764e2a42c74,657158800a4f152cb553a97a,0.026,0.026,0,28,28,29,1,threefour,,,,,,,,,,,,,,,,,,,,,,,,,,,,,,,,,,,,,,,,,,,,,,,,,,,,,,,,,,,,,,,,,,,,,,,,,,,,,,,,,,,,,,,,,,,,,,,,,,,,,,,,,,,,,,,,,,,,,,,,,,,,,,,,,,,,,,,
,,614a4c9d8172751921452626,2023-12-06_21h31.22.155,kallum_motion_pilot,2023.2.3,Win32,8.571257146,614a4c9d8172751921452626,6560176e4d91f764e2a42c74,657158800a4f152cb553a97a,0.0261,0.0261,0,29,29,118,1,eightsix,,,,,,,,,,,,,,,,,,,,,,,,,,,,,,,,,,,,,,,,,,,,,,,,,,,,,,,,,,,,,,,,,,,,,,,,,,,,,,,,,,,,,,,,,,,,,,,,,,,,,,,,,,,,,,,,,,,,,,,,,,,,,,,,,,,,,,,
,,614a4c9d8172751921452626,2023-12-06_21h31.22.155,kallum_motion_pilot,2023.2.3,Win32,8.571257146,614a4c9d8172751921452626,6560176e4d91f764e2a42c74,657158800a4f152cb553a97a,0.0262,0.0262,0,30,30,64,1,onetwo,,,,,,,,,,,,,,,,,,,,,,,,,,,,,,,,,,,,,,,,,,,,,,,,,,,,,,,,,,,,,,,,,,,,,,,,,,,,,,,,,,,,,,,,,,,,,,,,,,,,,,,,,,,,,,,,,,,,,,,,,,,,,,,,,,,,,,,
,,614a4c9d8172751921452626,2023-12-06_21h31.22.155,kallum_motion_pilot,2023.2.3,Win32,8.571257146,614a4c9d8172751921452626,6560176e4d91f764e2a42c74,657158800a4f152cb553a97a,0.0262,0.0262,0,31,31,71,1,fourthree,,,,,,,,,,,,,,,,,,,,,,,,,,,,,,,,,,,,,,,,,,,,,,,,,,,,,,,,,,,,,,,,,,,,,,,,,,,,,,,,,,,,,,,,,,,,,,,,,,,,,,,,,,,,,,,,,,,,,,,,,,,,,,,,,,,,,,,
,,614a4c9d8172751921452626,2023-12-06_21h31.22.155,kallum_motion_pilot,2023.2.3,Win32,8.571257146,614a4c9d8172751921452626,6560176e4d91f764e2a42c74,657158800a4f152cb553a97a,0.0263,0.0263,0,32,32,83,1,sixeight,,,,,,,,,,,,,,,,,,,,,,,,,,,,,,,,,,,,,,,,,,,,,,,,,,,,,,,,,,,,,,,,,,,,,,,,,,,,,,,,,,,,,,,,,,,,,,,,,,,,,,,,,,,,,,,,,,,,,,,,,,,,,,,,,,,,,,,
,,614a4c9d8172751921452626,2023-12-06_21h31.22.155,kallum_motion_pilot,2023.2.3,Win32,8.571257146,614a4c9d8172751921452626,6560176e4d91f764e2a42c74,657158800a4f152cb553a97a,0.0263,0.0264,0,33,33,62,1,fourtwo,,,,,,,,,,,,,,,,,,,,,,,,,,,,,,,,,,,,,,,,,,,,,,,,,,,,,,,,,,,,,,,,,,,,,,,,,,,,,,,,,,,,,,,,,,,,,,,,,,,,,,,,,,,,,,,,,,,,,,,,,,,,,,,,,,,,,,,
,,614a4c9d8172751921452626,2023-12-06_21h31.22.155,kallum_motion_pilot,2023.2.3,Win32,8.571257146,614a4c9d8172751921452626,6560176e4d91f764e2a42c74,657158800a4f152cb553a97a,0.0265,0.0265,0,34,34,161,1,fiveseven,,,,,,,,,,,,,,,,,,,,,,,,,,,,,,,,,,,,,,,,,,,,,,,,,,,,,,,,,,,,,,,,,,,,,,,,,,,,,,,,,,,,,,,,,,,,,,,,,,,,,,,,,,,,,,,,,,,,,,,,,,,,,,,,,,,,,,,
,,614a4c9d8172751921452626,2023-12-06_21h31.22.155,kallum_motion_pilot,2023.2.3,Win32,8.571257146,614a4c9d8172751921452626,6560176e4d91f764e2a42c74,657158800a4f152cb553a97a,0.0266,0.0266,0,35,35,59,1,twofour,,,,,,,,,,,,,,,,,,,,,,,,,,,,,,,,,,,,,,,,,,,,,,,,,,,,,,,,,,,,,,,,,,,,,,,,,,,,,,,,,,,,,,,,,,,,,,,,,,,,,,,,,,,,,,,,,,,,,,,,,,,,,,,,,,,,,,,
,,614a4c9d8172751921452626,2023-12-06_21h31.22.155,kallum_motion_pilot,2023.2.3,Win32,8.571257146,614a4c9d8172751921452626,6560176e4d91f764e2a42c74,657158800a4f152cb553a97a,0.0267,0.0267,0,36,36,76,1,threeone,,,,,,,,,,,,,,,,,,,,,,,,,,,,,,,,,,,,,,,,,,,,,,,,,,,,,,,,,,,,,,,,,,,,,,,,,,,,,,,,,,,,,,,,,,,,,,,,,,,,,,,,,,,,,,,,,,,,,,,,,,,,,,,,,,,,,,,
,,614a4c9d8172751921452626,2023-12-06_21h31.22.155,kallum_motion_pilot,2023.2.3,Win32,8.571257146,614a4c9d8172751921452626,6560176e4d91f764e2a42c74,657158800a4f152cb553a97a,0.0268,0.0268,0,37,37,122,1,sixfive,,,,,,,,,,,,,,,,,,,,,,,,,,,,,,,,,,,,,,,,,,,,,,,,,,,,,,,,,,,,,,,,,,,,,,,,,,,,,,,,,,,,,,,,,,,,,,,,,,,,,,,,,,,,,,,,,,,,,,,,,,,,,,,,,,,,,,,
,,614a4c9d8172751921452626,2023-12-06_21h31.22.155,kallum_motion_pilot,2023.2.3,Win32,8.571257146,614a4c9d8172751921452626,6560176e4d91f764e2a42c74,657158800a4f152cb553a97a,0.0269,0.0269,0,38,38,45,1,threefour,,,,,,,,,,,,,,,,,,,,,,,,,,,,,,,,,,,,,,,,,,,,,,,,,,,,,,,,,,,,,,,,,,,,,,,,,,,,,,,,,,,,,,,,,,,,,,,,,,,,,,,,,,,,,,,,,,,,,,,,,,,,,,,,,,,,,,,
,,614a4c9d8172751921452626,2023-12-06_21h31.22.155,kallum_motion_pilot,2023.2.3,Win32,8.571257146,614a4c9d8172751921452626,6560176e4d91f764e2a42c74,657158800a4f152cb553a97a,0.027,0.027,0,39,39,82,1,sixfive,,,,,,,,,,,,,,,,,,,,,,,,,,,,,,,,,,,,,,,,,,,,,,,,,,,,,,,,,,,,,,,,,,,,,,,,,,,,,,,,,,,,,,,,,,,,,,,,,,,,,,,,,,,,,,,,,,,,,,,,,,,,,,,,,,,,,,,
,,614a4c9d8172751921452626,2023-12-06_21h31.22.155,kallum_motion_pilot,2023.2.3,Win32,8.571257146,614a4c9d8172751921452626,6560176e4d91f764e2a42c74,657158800a4f152cb553a97a,0.0271,0.0271,0,40,40,18,1,twoone,,,,,,,,,,,,,,,,,,,,,,,,,,,,,,,,,,,,,,,,,,,,,,,,,,,,,,,,,,,,,,,,,,,,,,,,,,,,,,,,,,,,,,,,,,,,,,,,,,,,,,,,,,,,,,,,,,,,,,,,,,,,,,,,,,,,,,,
,,614a4c9d8172751921452626,2023-12-06_21h31.22.155,kallum_motion_pilot,2023.2.3,Win32,8.571257146,614a4c9d8172751921452626,6560176e4d91f764e2a42c74,657158800a4f152cb553a97a,0.0272,0.0272,0,41,41,5,1,threefour,,,,,,,,,,,,,,,,,,,,,,,,,,,,,,,,,,,,,,,,,,,,,,,,,,,,,,,,,,,,,,,,,,,,,,,,,,,,,,,,,,,,,,,,,,,,,,,,,,,,,,,,,,,,,,,,,,,,,,,,,,,,,,,,,,,,,,,
,,614a4c9d8172751921452626,2023-12-06_21h31.22.155,kallum_motion_pilot,2023.2.3,Win32,8.571257146,614a4c9d8172751921452626,6560176e4d91f764e2a42c74,657158800a4f152cb553a97a,0.0273,0.0273,0,42,42,105,1,fiveseven,,,,,,,,,,,,,,,,,,,,,,,,,,,,,,,,,,,,,,,,,,,,,,,,,,,,,,,,,,,,,,,,,,,,,,,,,,,,,,,,,,,,,,,,,,,,,,,,,,,,,,,,,,,,,,,,,,,,,,,,,,,,,,,,,,,,,,,
,,614a4c9d8172751921452626,2023-12-06_21h31.22.155,kallum_motion_pilot,2023.2.3,Win32,8.571257146,614a4c9d8172751921452626,6560176e4d91f764e2a42c74,657158800a4f152cb553a97a,0.0274,0.0274,0,43,43,69,1,threefour,,,,,,,,,,,,,,,,,,,,,,,,,,,,,,,,,,,,,,,,,,,,,,,,,,,,,,,,,,,,,,,,,,,,,,,,,,,,,,,,,,,,,,,,,,,,,,,,,,,,,,,,,,,,,,,,,,,,,,,,,,,,,,,,,,,,,,,
,,614a4c9d8172751921452626,2023-12-06_21h31.22.155,kallum_motion_pilot,2023.2.3,Win32,8.571257146,614a4c9d8172751921452626,6560176e4d91f764e2a42c74,657158800a4f152cb553a97a,0.0276,0.0276,0,44,44,39,1,fourthree,,,,,,,,,,,,,,,,,,,,,,,,,,,,,,,,,,,,,,,,,,,,,,,,,,,,,,,,,,,,,,,,,,,,,,,,,,,,,,,,,,,,,,,,,,,,,,,,,,,,,,,,,,,,,,,,,,,,,,,,,,,,,,,,,,,,,,,
,,614a4c9d8172751921452626,2023-12-06_21h31.22.155,kallum_motion_pilot,2023.2.3,Win32,8.571257146,614a4c9d8172751921452626,6560176e4d91f764e2a42c74,657158800a4f152cb553a97a,0.0277,0.0277,0,45,45,158,1,eightsix,,,,,,,,,,,,,,,,,,,,,,,,,,,,,,,,,,,,,,,,,,,,,,,,,,,,,,,,,,,,,,,,,,,,,,,,,,,,,,,,,,,,,,,,,,,,,,,,,,,,,,,,,,,,,,,,,,,,,,,,,,,,,,,,,,,,,,,
,,614a4c9d8172751921452626,2023-12-06_21h31.22.155,kallum_motion_pilot,2023.2.3,Win32,8.571257146,614a4c9d8172751921452626,6560176e4d91f764e2a42c74,657158800a4f152cb553a97a,0.0278,0.0278,0,46,46,135,1,eightseven,,,,,,,,,,,,,,,,,,,,,,,,,,,,,,,,,,,,,,,,,,,,,,,,,,,,,,,,,,,,,,,,,,,,,,,,,,,,,,,,,,,,,,,,,,,,,,,,,,,,,,,,,,,,,,,,,,,,,,,,,,,,,,,,,,,,,,,
,,614a4c9d8172751921452626,2023-12-06_21h31.22.155,kallum_motion_pilot,2023.2.3,Win32,8.571257146,614a4c9d8172751921452626,6560176e4d91f764e2a42c74,657158800a4f152cb553a97a,0.0279,0.0279,0,47,47,151,1,eightseven,,,,,,,,,,,,,,,,,,,,,,,,,,,,,,,,,,,,,,,,,,,,,,,,,,,,,,,,,,,,,,,,,,,,,,,,,,,,,,,,,,,,,,,,,,,,,,,,,,,,,,,,,,,,,,,,,,,,,,,,,,,,,,,,,,,,,,,
,,614a4c9d8172751921452626,2023-12-06_21h31.22.155,kallum_motion_pilot,2023.2.3,Win32,8.571257146,614a4c9d8172751921452626,6560176e4d91f764e2a42c74,657158800a4f152cb553a97a,0.028,0.0281,0,48,48,61,1,threefour,,,,,,,,,,,,,,,,,,,,,,,,,,,,,,,,,,,,,,,,,,,,,,,,,,,,,,,,,,,,,,,,,,,,,,,,,,,,,,,,,,,,,,,,,,,,,,,,,,,,,,,,,,,,,,,,,,,,,,,,,,,,,,,,,,,,,,,
,,614a4c9d8172751921452626,2023-12-06_21h31.22.155,kallum_motion_pilot,2023.2.3,Win32,8.571257146,614a4c9d8172751921452626,6560176e4d91f764e2a42c74,657158800a4f152cb553a97a,0.0281,0.0281,0,49,49,78,1,fourtwo,,,,,,,,,,,,,,,,,,,,,,,,,,,,,,,,,,,,,,,,,,,,,,,,,,,,,,,,,,,,,,,,,,,,,,,,,,,,,,,,,,,,,,,,,,,,,,,,,,,,,,,,,,,,,,,,,,,,,,,,,,,,,,,,,,,,,,,
,,614a4c9d8172751921452626,2023-12-06_21h31.22.155,kallum_motion_pilot,2023.2.3,Win32,8.571257146,614a4c9d8172751921452626,6560176e4d91f764e2a42c74,657158800a4f152cb553a97a,0.0282,0.0282,0,50,50,128,1,fivesix,,,,,,,,,,,,,,,,,,,,,,,,,,,,,,,,,,,,,,,,,,,,,,,,,,,,,,,,,,,,,,,,,,,,,,,,,,,,,,,,,,,,,,,,,,,,,,,,,,,,,,,,,,,,,,,,,,,,,,,,,,,,,,,,,,,,,,,
,,614a4c9d8172751921452626,2023-12-06_21h31.22.155,kallum_motion_pilot,2023.2.3,Win32,8.571257146,614a4c9d8172751921452626,6560176e4d91f764e2a42c74,657158800a4f152cb553a97a,0.0282,0.0283,0,51,51,140,1,sevenfive,,,,,,,,,,,,,,,,,,,,,,,,,,,,,,,,,,,,,,,,,,,,,,,,,,,,,,,,,,,,,,,,,,,,,,,,,,,,,,,,,,,,,,,,,,,,,,,,,,,,,,,,,,,,,,,,,,,,,,,,,,,,,,,,,,,,,,,
,,614a4c9d8172751921452626,2023-12-06_21h31.22.155,kallum_motion_pilot,2023.2.3,Win32,8.571257146,614a4c9d8172751921452626,6560176e4d91f764e2a42c74,657158800a4f152cb553a97a,0.0283,0.0283,0,52,52,34,1,twoone,,,,,,,,,,,,,,,,,,,,,,,,,,,,,,,,,,,,,,,,,,,,,,,,,,,,,,,,,,,,,,,,,,,,,,,,,,,,,,,,,,,,,,,,,,,,,,,,,,,,,,,,,,,,,,,,,,,,,,,,,,,,,,,,,,,,,,,
,,614a4c9d8172751921452626,2023-12-06_21h31.22.155,kallum_motion_pilot,2023.2.3,Win32,8.571257146,614a4c9d8172751921452626,6560176e4d91f764e2a42c74,657158800a4f152cb553a97a,0.0285,0.0285,0,53,53,77,1,threefour,,,,,,,,,,,,,,,,,,,,,,,,,,,,,,,,,,,,,,,,,,,,,,,,,,,,,,,,,,,,,,,,,,,,,,,,,,,,,,,,,,,,,,,,,,,,,,,,,,,,,,,,,,,,,,,,,,,,,,,,,,,,,,,,,,,,,,,
,,614a4c9d8172751921452626,2023-12-06_21h31.22.155,kallum_motion_pilot,2023.2.3,Win32,8.571257146,614a4c9d8172751921452626,6560176e4d91f764e2a42c74,657158800a4f152cb553a97a,0.0285,0.0285,0,54,54,22,1,fourtwo,,,,,,,,,,,,,,,,,,,,,,,,,,,,,,,,,,,,,,,,,,,,,,,,,,,,,,,,,,,,,,,,,,,,,,,,,,,,,,,,,,,,,,,,,,,,,,,,,,,,,,,,,,,,,,,,,,,,,,,,,,,,,,,,,,,,,,,
,,614a4c9d8172751921452626,2023-12-06_21h31.22.155,kallum_motion_pilot,2023.2.3,Win32,8.571257146,614a4c9d8172751921452626,6560176e4d91f764e2a42c74,657158800a4f152cb553a97a,0.0285,0.0286,0,55,55,68,1,threeone,,,,,,,,,,,,,,,,,,,,,,,,,,,,,,,,,,,,,,,,,,,,,,,,,,,,,,,,,,,,,,,,,,,,,,,,,,,,,,,,,,,,,,,,,,,,,,,,,,,,,,,,,,,,,,,,,,,,,,,,,,,,,,,,,,,,,,,
,,614a4c9d8172751921452626,2023-12-06_21h31.22.155,kallum_motion_pilot,2023.2.3,Win32,8.571257146,614a4c9d8172751921452626,6560176e4d91f764e2a42c74,657158800a4f152cb553a97a,0.0287,0.0287,0,56,56,130,1,sixfive,,,,,,,,,,,,,,,,,,,,,,,,,,,,,,,,,,,,,,,,,,,,,,,,,,,,,,,,,,,,,,,,,,,,,,,,,,,,,,,,,,,,,,,,,,,,,,,,,,,,,,,,,,,,,,,,,,,,,,,,,,,,,,,,,,,,,,,
,,614a4c9d8172751921452626,2023-12-06_21h31.22.155,kallum_motion_pilot,2023.2.3,Win32,8.571257146,614a4c9d8172751921452626,6560176e4d91f764e2a42c74,657158800a4f152cb553a97a,0.0287,0.0288,0,57,57,150,1,eightsix,,,,,,,,,,,,,,,,,,,,,,,,,,,,,,,,,,,,,,,,,,,,,,,,,,,,,,,,,,,,,,,,,,,,,,,,,,,,,,,,,,,,,,,,,,,,,,,,,,,,,,,,,,,,,,,,,,,,,,,,,,,,,,,,,,,,,,,
,,614a4c9d8172751921452626,2023-12-06_21h31.22.155,kallum_motion_pilot,2023.2.3,Win32,8.571257146,614a4c9d8172751921452626,6560176e4d91f764e2a42c74,657158800a4f152cb553a97a,0.0288,0.0288,0,58,58,132,1,sevenfive,,,,,,,,,,,,,,,,,,,,,,,,,,,,,,,,,,,,,,,,,,,,,,,,,,,,,,,,,,,,,,,,,,,,,,,,,,,,,,,,,,,,,,,,,,,,,,,,,,,,,,,,,,,,,,,,,,,,,,,,,,,,,,,,,,,,,,,
,,614a4c9d8172751921452626,2023-12-06_21h31.22.155,kallum_motion_pilot,2023.2.3,Win32,8.571257146,614a4c9d8172751921452626,6560176e4d91f764e2a42c74,657158800a4f152cb553a97a,0.0289,0.0289,0,59,59,160,1,fivesix,,,,,,,,,,,,,,,,,,,,,,,,,,,,,,,,,,,,,,,,,,,,,,,,,,,,,,,,,,,,,,,,,,,,,,,,,,,,,,,,,,,,,,,,,,,,,,,,,,,,,,,,,,,,,,,,,,,,,,,,,,,,,,,,,,,,,,,
,,614a4c9d8172751921452626,2023-12-06_21h31.22.155,kallum_motion_pilot,2023.2.3,Win32,8.571257146,614a4c9d8172751921452626,6560176e4d91f764e2a42c74,657158800a4f152cb553a97a,0.0289,0.029,0,60,60,14,1,fourtwo,,,,,,,,,,,,,,,,,,,,,,,,,,,,,,,,,,,,,,,,,,,,,,,,,,,,,,,,,,,,,,,,,,,,,,,,,,,,,,,,,,,,,,,,,,,,,,,,,,,,,,,,,,,,,,,,,,,,,,,,,,,,,,,,,,,,,,,
,,614a4c9d8172751921452626,2023-12-06_21h31.22.155,kallum_motion_pilot,2023.2.3,Win32,8.571257146,614a4c9d8172751921452626,6560176e4d91f764e2a42c74,657158800a4f152cb553a97a,0.029,0.029,0,61,61,116,1,sevenfive,,,,,,,,,,,,,,,,,,,,,,,,,,,,,,,,,,,,,,,,,,,,,,,,,,,,,,,,,,,,,,,,,,,,,,,,,,,,,,,,,,,,,,,,,,,,,,,,,,,,,,,,,,,,,,,,,,,,,,,,,,,,,,,,,,,,,,,
,,614a4c9d8172751921452626,2023-12-06_21h31.22.155,kallum_motion_pilot,2023.2.3,Win32,8.571257146,614a4c9d8172751921452626,6560176e4d91f764e2a42c74,657158800a4f152cb553a97a,0.0291,0.0291,0,62,62,44,1,threeone,,,,,,,,,,,,,,,,,,,,,,,,,,,,,,,,,,,,,,,,,,,,,,,,,,,,,,,,,,,,,,,,,,,,,,,,,,,,,,,,,,,,,,,,,,,,,,,,,,,,,,,,,,,,,,,,,,,,,,,,,,,,,,,,,,,,,,,
,,614a4c9d8172751921452626,2023-12-06_21h31.22.155,kallum_motion_pilot,2023.2.3,Win32,8.571257146,614a4c9d8172751921452626,6560176e4d91f764e2a42c74,657158800a4f152cb553a97a,0.0292,0.0292,0,63,63,129,1,fiveseven,,,,,,,,,,,,,,,,,,,,,,,,,,,,,,,,,,,,,,,,,,,,,,,,,,,,,,,,,,,,,,,,,,,,,,,,,,,,,,,,,,,,,,,,,,,,,,,,,,,,,,,,,,,,,,,,,,,,,,,,,,,,,,,,,,,,,,,
,,614a4c9d8172751921452626,2023-12-06_21h31.22.155,kallum_motion_pilot,2023.2.3,Win32,8.571257146,614a4c9d8172751921452626,6560176e4d91f764e2a42c74,657158800a4f152cb553a97a,0.0293,0.0294,0,64,64,9,1,onethree,,,,,,,,,,,,,,,,,,,,,,,,,,,,,,,,,,,,,,,,,,,,,,,,,,,,,,,,,,,,,,,,,,,,,,,,,,,,,,,,,,,,,,,,,,,,,,,,,,,,,,,,,,,,,,,,,,,,,,,,,,,,,,,,,,,,,,,
,,614a4c9d8172751921452626,2023-12-06_21h31.22.155,kallum_motion_pilot,2023.2.3,Win32,8.571257146,614a4c9d8172751921452626,6560176e4d91f764e2a42c74,657158800a4f152cb553a97a,0.0294,0.0294,0,65,65,112,1,fivesix,,,,,,,,,,,,,,,,,,,,,,,,,,,,,,,,,,,,,,,,,,,,,,,,,,,,,,,,,,,,,,,,,,,,,,,,,,,,,,,,,,,,,,,,,,,,,,,,,,,,,,,,,,,,,,,,,,,,,,,,,,,,,,,,,,,,,,,
,,614a4c9d8172751921452626,2023-12-06_21h31.22.155,kallum_motion_pilot,2023.2.3,Win32,8.571257146,614a4c9d8172751921452626,6560176e4d91f764e2a42c74,657158800a4f152cb553a97a,0.0295,0.0296,0,66,66,139,1,sixeight,,,,,,,,,,,,,,,,,,,,,,,,,,,,,,,,,,,,,,,,,,,,,,,,,,,,,,,,,,,,,,,,,,,,,,,,,,,,,,,,,,,,,,,,,,,,,,,,,,,,,,,,,,,,,,,,,,,,,,,,,,,,,,,,,,,,,,,
,,614a4c9d8172751921452626,2023-12-06_21h31.22.155,kallum_motion_pilot,2023.2.3,Win32,8.571257146,614a4c9d8172751921452626,6560176e4d91f764e2a42c74,657158800a4f152cb553a97a,0.0296,0.0296,0,67,67,38,1,fourtwo,,,,,,,,,,,,,,,,,,,,,,,,,,,,,,,,,,,,,,,,,,,,,,,,,,,,,,,,,,,,,,,,,,,,,,,,,,,,,,,,,,,,,,,,,,,,,,,,,,,,,,,,,,,,,,,,,,,,,,,,,,,,,,,,,,,,,,,
,,614a4c9d8172751921452626,2023-12-06_21h31.22.155,kallum_motion_pilot,2023.2.3,Win32,8.571257146,614a4c9d8172751921452626,6560176e4d91f764e2a42c74,657158800a4f152cb553a97a,0.0297,0.0297,0,68,68,49,1,onethree,,,,,,,,,,,,,,,,,,,,,,,,,,,,,,,,,,,,,,,,,,,,,,,,,,,,,,,,,,,,,,,,,,,,,,,,,,,,,,,,,,,,,,,,,,,,,,,,,,,,,,,,,,,,,,,,,,,,,,,,,,,,,,,,,,,,,,,
,,614a4c9d8172751921452626,2023-12-06_21h31.22.155,kallum_motion_pilot,2023.2.3,Win32,8.571257146,614a4c9d8172751921452626,6560176e4d91f764e2a42c74,657158800a4f152cb553a97a,0.0298,0.0298,0,69,69,84,1,sevenfive,,,,,,,,,,,,,,,,,,,,,,,,,,,,,,,,,,,,,,,,,,,,,,,,,,,,,,,,,,,,,,,,,,,,,,,,,,,,,,,,,,,,,,,,,,,,,,,,,,,,,,,,,,,,,,,,,,,,,,,,,,,,,,,,,,,,,,,
,,614a4c9d8172751921452626,2023-12-06_21h31.22.155,kallum_motion_pilot,2023.2.3,Win32,8.571257146,614a4c9d8172751921452626,6560176e4d91f764e2a42c74,657158800a4f152cb553a97a,0.0299,0.03,0,70,70,46,1,fourtwo,,,,,,,,,,,,,,,,,,,,,,,,,,,,,,,,,,,,,,,,,,,,,,,,,,,,,,,,,,,,,,,,,,,,,,,,,,,,,,,,,,,,,,,,,,,,,,,,,,,,,,,,,,,,,,,,,,,,,,,,,,,,,,,,,,,,,,,
,,614a4c9d8172751921452626,2023-12-06_21h31.22.155,kallum_motion_pilot,2023.2.3,Win32,8.571257146,614a4c9d8172751921452626,6560176e4d91f764e2a42c74,657158800a4f152cb553a97a,0.03,0.0301,0,71,71,23,1,fourthree,,,,,,,,,,,,,,,,,,,,,,,,,,,,,,,,,,,,,,,,,,,,,,,,,,,,,,,,,,,,,,,,,,,,,,,,,,,,,,,,,,,,,,,,,,,,,,,,,,,,,,,,,,,,,,,,,,,,,,,,,,,,,,,,,,,,,,,
,,614a4c9d8172751921452626,2023-12-06_21h31.22.155,kallum_motion_pilot,2023.2.3,Win32,8.571257146,614a4c9d8172751921452626,6560176e4d91f764e2a42c74,657158800a4f152cb553a97a,0.0301,0.0301,0,72,72,121,1,fiveseven,,,,,,,,,,,,,,,,,,,,,,,,,,,,,,,,,,,,,,,,,,,,,,,,,,,,,,,,,,,,,,,,,,,,,,,,,,,,,,,,,,,,,,,,,,,,,,,,,,,,,,,,,,,,,,,,,,,,,,,,,,,,,,,,,,,,,,,
,,614a4c9d8172751921452626,2023-12-06_21h31.22.155,kallum_motion_pilot,2023.2.3,Win32,8.571257146,614a4c9d8172751921452626,6560176e4d91f764e2a42c74,657158800a4f152cb553a97a,0.0302,0.0302,0,73,73,56,1,onetwo,,,,,,,,,,,,,,,,,,,,,,,,,,,,,,,,,,,,,,,,,,,,,,,,,,,,,,,,,,,,,,,,,,,,,,,,,,,,,,,,,,,,,,,,,,,,,,,,,,,,,,,,,,,,,,,,,,,,,,,,,,,,,,,,,,,,,,,
,,614a4c9d8172751921452626,2023-12-06_21h31.22.155,kallum_motion_pilot,2023.2.3,Win32,8.571257146,614a4c9d8172751921452626,6560176e4d91f764e2a42c74,657158800a4f152cb553a97a,0.0303,0.0303,0,74,74,70,1,fourtwo,,,,,,,,,,,,,,,,,,,,,,,,,,,,,,,,,,,,,,,,,,,,,,,,,,,,,,,,,,,,,,,,,,,,,,,,,,,,,,,,,,,,,,,,,,,,,,,,,,,,,,,,,,,,,,,,,,,,,,,,,,,,,,,,,,,,,,,
,,614a4c9d8172751921452626,2023-12-06_21h31.22.155,kallum_motion_pilot,2023.2.3,Win32,8.571257146,614a4c9d8172751921452626,6560176e4d91f764e2a42c74,657158800a4f152cb553a97a,0.0304,0.0305,0,75,75,40,1,onetwo,,,,,,,,,,,,,,,,,,,,,,,,,,,,,,,,,,,,,,,,,,,,,,,,,,,,,,,,,,,,,,,,,,,,,,,,,,,,,,,,,,,,,,,,,,,,,,,,,,,,,,,,,,,,,,,,,,,,,,,,,,,,,,,,,,,,,,,
,,614a4c9d8172751921452626,2023-12-06_21h31.22.155,kallum_motion_pilot,2023.2.3,Win32,8.571257146,614a4c9d8172751921452626,6560176e4d91f764e2a42c74,657158800a4f152cb553a97a,0.0305,0.0306,0,76,76,137,1,fiveseven,,,,,,,,,,,,,,,,,,,,,,,,,,,,,,,,,,,,,,,,,,,,,,,,,,,,,,,,,,,,,,,,,,,,,,,,,,,,,,,,,,,,,,,,,,,,,,,,,,,,,,,,,,,,,,,,,,,,,,,,,,,,,,,,,,,,,,,
,,614a4c9d8172751921452626,2023-12-06_21h31.22.155,kallum_motion_pilot,2023.2.3,Win32,8.571257146,614a4c9d8172751921452626,6560176e4d91f764e2a42c74,657158800a4f152cb553a97a,0.0306,0.0307,0,77,77,24,1,onetwo,,,,,,,,,,,,,,,,,,,,,,,,,,,,,,,,,,,,,,,,,,,,,,,,,,,,,,,,,,,,,,,,,,,,,,,,,,,,,,,,,,,,,,,,,,,,,,,,,,,,,,,,,,,,,,,,,,,,,,,,,,,,,,,,,,,,,,,
,,614a4c9d8172751921452626,2023-12-06_21h31.22.155,kallum_motion_pilot,2023.2.3,Win32,8.571257146,614a4c9d8172751921452626,6560176e4d91f764e2a42c74,657158800a4f152cb553a97a,0.0307,0.0308,0,78,78,144,1,fivesix,,,,,,,,,,,,,,,,,,,,,,,,,,,,,,,,,,,,,,,,,,,,,,,,,,,,,,,,,,,,,,,,,,,,,,,,,,,,,,,,,,,,,,,,,,,,,,,,,,,,,,,,,,,,,,,,,,,,,,,,,,,,,,,,,,,,,,,
,,614a4c9d8172751921452626,2023-12-06_21h31.22.155,kallum_motion_pilot,2023.2.3,Win32,8.571257146,614a4c9d8172751921452626,6560176e4d91f764e2a42c74,657158800a4f152cb553a97a,0.0314,0.0315,0,79,79,47,1,fourthree,,,,,,,,,,,,,,,,,,,,,,,,,,,,,,,,,,,,,,,,,,,,,,,,,,,,,,,,,,,,,,,,,,,,,,,,,,,,,,,,,,,,,,,,,,,,,,,,,,,,,,,,,,,,,,,,,,,,,,,,,,,,,,,,,,,,,,,
,,614a4c9d8172751921452626,2023-12-06_21h31.22.155,kallum_motion_pilot,2023.2.3,Win32,8.571257146,614a4c9d8172751921452626,6560176e4d91f764e2a42c74,657158800a4f152cb553a97a,0.0315,0.0317,0,80,80,155,1,sixeight,,,,,,,,,,,,,,,,,,,,,,,,,,,,,,,,,,,,,,,,,,,,,,,,,,,,,,,,,,,,,,,,,,,,,,,,,,,,,,,,,,,,,,,,,,,,,,,,,,,,,,,,,,,,,,,,,,,,,,,,,,,,,,,,,,,,,,,
,,614a4c9d8172751921452626,2023-12-06_21h31.22.155,kallum_motion_pilot,2023.2.3,Win32,8.571257146,614a4c9d8172751921452626,6560176e4d91f764e2a42c74,657158800a4f152cb553a97a,0.0317,0.0317,0,81,81,106,1,sixfive,,,,,,,,,,,,,,,,,,,,,,,,,,,,,,,,,,,,,,,,,,,,,,,,,,,,,,,,,,,,,,,,,,,,,,,,,,,,,,,,,,,,,,,,,,,,,,,,,,,,,,,,,,,,,,,,,,,,,,,,,,,,,,,,,,,,,,,
,,614a4c9d8172751921452626,2023-12-06_21h31.22.155,kallum_motion_pilot,2023.2.3,Win32,8.571257146,614a4c9d8172751921452626,6560176e4d91f764e2a42c74,657158800a4f152cb553a97a,0.0319,0.0319,0,82,82,103,1,eightseven,,,,,,,,,,,,,,,,,,,,,,,,,,,,,,,,,,,,,,,,,,,,,,,,,,,,,,,,,,,,,,,,,,,,,,,,,,,,,,,,,,,,,,,,,,,,,,,,,,,,,,,,,,,,,,,,,,,,,,,,,,,,,,,,,,,,,,,
,,614a4c9d8172751921452626,2023-12-06_21h31.22.155,kallum_motion_pilot,2023.2.3,Win32,8.571257146,614a4c9d8172751921452626,6560176e4d91f764e2a42c74,657158800a4f152cb553a97a,0.032,0.0321,0,83,83,108,1,sevenfive,,,,,,,,,,,,,,,,,,,,,,,,,,,,,,,,,,,,,,,,,,,,,,,,,,,,,,,,,,,,,,,,,,,,,,,,,,,,,,,,,,,,,,,,,,,,,,,,,,,,,,,,,,,,,,,,,,,,,,,,,,,,,,,,,,,,,,,
,,614a4c9d8172751921452626,2023-12-06_21h31.22.155,kallum_motion_pilot,2023.2.3,Win32,8.571257146,614a4c9d8172751921452626,6560176e4d91f764e2a42c74,657158800a4f152cb553a97a,0.0321,0.0322,0,84,84,57,1,onethree,,,,,,,,,,,,,,,,,,,,,,,,,,,,,,,,,,,,,,,,,,,,,,,,,,,,,,,,,,,,,,,,,,,,,,,,,,,,,,,,,,,,,,,,,,,,,,,,,,,,,,,,,,,,,,,,,,,,,,,,,,,,,,,,,,,,,,,
,,614a4c9d8172751921452626,2023-12-06_21h31.22.155,kallum_motion_pilot,2023.2.3,Win32,8.571257146,614a4c9d8172751921452626,6560176e4d91f764e2a42c74,657158800a4f152cb553a97a,0.0323,0.0323,0,85,85,48,1,onetwo,,,,,,,,,,,,,,,,,,,,,,,,,,,,,,,,,,,,,,,,,,,,,,,,,,,,,,,,,,,,,,,,,,,,,,,,,,,,,,,,,,,,,,,,,,,,,,,,,,,,,,,,,,,,,,,,,,,,,,,,,,,,,,,,,,,,,,,
,,614a4c9d8172751921452626,2023-12-06_21h31.22.155,kallum_motion_pilot,2023.2.3,Win32,8.571257146,614a4c9d8172751921452626,6560176e4d91f764e2a42c74,657158800a4f152cb553a97a,0.0323,0.0324,0,86,86,81,1,fiveseven,,,,,,,,,,,,,,,,,,,,,,,,,,,,,,,,,,,,,,,,,,,,,,,,,,,,,,,,,,,,,,,,,,,,,,,,,,,,,,,,,,,,,,,,,,,,,,,,,,,,,,,,,,,,,,,,,,,,,,,,,,,,,,,,,,,,,,,
,,614a4c9d8172751921452626,2023-12-06_21h31.22.155,kallum_motion_pilot,2023.2.3,Win32,8.571257146,614a4c9d8172751921452626,6560176e4d91f764e2a42c74,657158800a4f152cb553a97a,0.0325,0.0325,0,87,87,74,1,twoone,,,,,,,,,,,,,,,,,,,,,,,,,,,,,,,,,,,,,,,,,,,,,,,,,,,,,,,,,,,,,,,,,,,,,,,,,,,,,,,,,,,,,,,,,,,,,,,,,,,,,,,,,,,,,,,,,,,,,,,,,,,,,,,,,,,,,,,
,,614a4c9d8172751921452626,2023-12-06_21h31.22.155,kallum_motion_pilot,2023.2.3,Win32,8.571257146,614a4c9d8172751921452626,6560176e4d91f764e2a42c74,657158800a4f152cb553a97a,0.0325,0.0326,0,88,88,85,1,seveneight,,,,,,,,,,,,,,,,,,,,,,,,,,,,,,,,,,,,,,,,,,,,,,,,,,,,,,,,,,,,,,,,,,,,,,,,,,,,,,,,,,,,,,,,,,,,,,,,,,,,,,,,,,,,,,,,,,,,,,,,,,,,,,,,,,,,,,,
,,614a4c9d8172751921452626,2023-12-06_21h31.22.155,kallum_motion_pilot,2023.2.3,Win32,8.571257146,614a4c9d8172751921452626,6560176e4d91f764e2a42c74,657158800a4f152cb553a97a,0.0326,0.0328,0,89,89,102,1,eightsix,,,,,,,,,,,,,,,,,,,,,,,,,,,,,,,,,,,,,,,,,,,,,,,,,,,,,,,,,,,,,,,,,,,,,,,,,,,,,,,,,,,,,,,,,,,,,,,,,,,,,,,,,,,,,,,,,,,,,,,,,,,,,,,,,,,,,,,
,,614a4c9d8172751921452626,2023-12-06_21h31.22.155,kallum_motion_pilot,2023.2.3,Win32,8.571257146,614a4c9d8172751921452626,6560176e4d91f764e2a42c74,657158800a4f152cb553a97a,0.0328,0.0329,0,90,90,124,1,sevenfive,,,,,,,,,,,,,,,,,,,,,,,,,,,,,,,,,,,,,,,,,,,,,,,,,,,,,,,,,,,,,,,,,,,,,,,,,,,,,,,,,,,,,,,,,,,,,,,,,,,,,,,,,,,,,,,,,,,,,,,,,,,,,,,,,,,,,,,
,,614a4c9d8172751921452626,2023-12-06_21h31.22.155,kallum_motion_pilot,2023.2.3,Win32,8.571257146,614a4c9d8172751921452626,6560176e4d91f764e2a42c74,657158800a4f152cb553a97a,0.0329,0.0329,0,91,91,51,1,twofour,,,,,,,,,,,,,,,,,,,,,,,,,,,,,,,,,,,,,,,,,,,,,,,,,,,,,,,,,,,,,,,,,,,,,,,,,,,,,,,,,,,,,,,,,,,,,,,,,,,,,,,,,,,,,,,,,,,,,,,,,,,,,,,,,,,,,,,
,,614a4c9d8172751921452626,2023-12-06_21h31.22.155,kallum_motion_pilot,2023.2.3,Win32,8.571257146,614a4c9d8172751921452626,6560176e4d91f764e2a42c74,657158800a4f152cb553a97a,0.0331,0.0331,0,92,92,20,1,threeone,,,,,,,,,,,,,,,,,,,,,,,,,,,,,,,,,,,,,,,,,,,,,,,,,,,,,,,,,,,,,,,,,,,,,,,,,,,,,,,,,,,,,,,,,,,,,,,,,,,,,,,,,,,,,,,,,,,,,,,,,,,,,,,,,,,,,,,
,,614a4c9d8172751921452626,2023-12-06_21h31.22.155,kallum_motion_pilot,2023.2.3,Win32,8.571257146,614a4c9d8172751921452626,6560176e4d91f764e2a42c74,657158800a4f152cb553a97a,0.0331,0.0331,0,93,93,96,1,fivesix,,,,,,,,,,,,,,,,,,,,,,,,,,,,,,,,,,,,,,,,,,,,,,,,,,,,,,,,,,,,,,,,,,,,,,,,,,,,,,,,,,,,,,,,,,,,,,,,,,,,,,,,,,,,,,,,,,,,,,,,,,,,,,,,,,,,,,,
,,614a4c9d8172751921452626,2023-12-06_21h31.22.155,kallum_motion_pilot,2023.2.3,Win32,8.571257146,614a4c9d8172751921452626,6560176e4d91f764e2a42c74,657158800a4f152cb553a97a,0.0333,0.0333,0,94,94,58,1,twoone,,,,,,,,,,,,,,,,,,,,,,,,,,,,,,,,,,,,,,,,,,,,,,,,,,,,,,,,,,,,,,,,,,,,,,,,,,,,,,,,,,,,,,,,,,,,,,,,,,,,,,,,,,,,,,,,,,,,,,,,,,,,,,,,,,,,,,,
,,614a4c9d8172751921452626,2023-12-06_21h31.22.155,kallum_motion_pilot,2023.2.3,Win32,8.571257146,614a4c9d8172751921452626,6560176e4d91f764e2a42c74,657158800a4f152cb553a97a,0.0334,0.0334,0,95,95,79,1,eightseven,,,,,,,,,,,,,,,,,,,,,,,,,,,,,,,,,,,,,,,,,,,,,,,,,,,,,,,,,,,,,,,,,,,,,,,,,,,,,,,,,,,,,,,,,,,,,,,,,,,,,,,,,,,,,,,,,,,,,,,,,,,,,,,,,,,,,,,
,,614a4c9d8172751921452626,2023-12-06_21h31.22.155,kallum_motion_pilot,2023.2.3,Win32,8.571257146,614a4c9d8172751921452626,6560176e4d91f764e2a42c74,657158800a4f152cb553a97a,0.0335,0.0335,0,96,96,100,1,sevenfive,,,,,,,,,,,,,,,,,,,,,,,,,,,,,,,,,,,,,,,,,,,,,,,,,,,,,,,,,,,,,,,,,,,,,,,,,,,,,,,,,,,,,,,,,,,,,,,,,,,,,,,,,,,,,,,,,,,,,,,,,,,,,,,,,,,,,,,
,,614a4c9d8172751921452626,2023-12-06_21h31.22.155,kallum_motion_pilot,2023.2.3,Win32,8.571257146,614a4c9d8172751921452626,6560176e4d91f764e2a42c74,657158800a4f152cb553a97a,0.0336,0.0336,0,97,97,52,1,threeone,,,,,,,,,,,,,,,,,,,,,,,,,,,,,,,,,,,,,,,,,,,,,,,,,,,,,,,,,,,,,,,,,,,,,,,,,,,,,,,,,,,,,,,,,,,,,,,,,,,,,,,,,,,,,,,,,,,,,,,,,,,,,,,,,,,,,,,
,,614a4c9d8172751921452626,2023-12-06_21h31.22.155,kallum_motion_pilot,2023.2.3,Win32,8.571257146,614a4c9d8172751921452626,6560176e4d91f764e2a42c74,657158800a4f152cb553a97a,0.0336,0.0336,0,98,98,115,1,sixeight,,,,,,,,,,,,,,,,,,,,,,,,,,,,,,,,,,,,,,,,,,,,,,,,,,,,,,,,,,,,,,,,,,,,,,,,,,,,,,,,,,,,,,,,,,,,,,,,,,,,,,,,,,,,,,,,,,,,,,,,,,,,,,,,,,,,,,,
,,614a4c9d8172751921452626,2023-12-06_21h31.22.155,kallum_motion_pilot,2023.2.3,Win32,8.571257146,614a4c9d8172751921452626,6560176e4d91f764e2a42c74,657158800a4f152cb553a97a,0.0337,0.0338,0,99,99,86,1,eightsix,,,,,,,,,,,,,,,,,,,,,,,,,,,,,,,,,,,,,,,,,,,,,,,,,,,,,,,,,,,,,,,,,,,,,,,,,,,,,,,,,,,,,,,,,,,,,,,,,,,,,,,,,,,,,,,,,,,,,,,,,,,,,,,,,,,,,,,
,,614a4c9d8172751921452626,2023-12-06_21h31.22.155,kallum_motion_pilot,2023.2.3,Win32,8.571257146,614a4c9d8172751921452626,6560176e4d91f764e2a42c74,657158800a4f152cb553a97a,0.0339,0.0339,0,100,100,31,1,fourthree,,,,,,,,,,,,,,,,,,,,,,,,,,,,,,,,,,,,,,,,,,,,,,,,,,,,,,,,,,,,,,,,,,,,,,,,,,,,,,,,,,,,,,,,,,,,,,,,,,,,,,,,,,,,,,,,,,,,,,,,,,,,,,,,,,,,,,,
,,614a4c9d8172751921452626,2023-12-06_21h31.22.155,kallum_motion_pilot,2023.2.3,Win32,8.571257146,614a4c9d8172751921452626,6560176e4d91f764e2a42c74,657158800a4f152cb553a97a,0.0339,0.0339,0,101,101,43,1,twofour,,,,,,,,,,,,,,,,,,,,,,,,,,,,,,,,,,,,,,,,,,,,,,,,,,,,,,,,,,,,,,,,,,,,,,,,,,,,,,,,,,,,,,,,,,,,,,,,,,,,,,,,,,,,,,,,,,,,,,,,,,,,,,,,,,,,,,,
,,614a4c9d8172751921452626,2023-12-06_21h31.22.155,kallum_motion_pilot,2023.2.3,Win32,8.571257146,614a4c9d8172751921452626,6560176e4d91f764e2a42c74,657158800a4f152cb553a97a,0.0341,0.0341,0,102,102,67,1,twofour,,,,,,,,,,,,,,,,,,,,,,,,,,,,,,,,,,,,,,,,,,,,,,,,,,,,,,,,,,,,,,,,,,,,,,,,,,,,,,,,,,,,,,,,,,,,,,,,,,,,,,,,,,,,,,,,,,,,,,,,,,,,,,,,,,,,,,,
,,614a4c9d8172751921452626,2023-12-06_21h31.22.155,kallum_motion_pilot,2023.2.3,Win32,8.571257146,614a4c9d8172751921452626,6560176e4d91f764e2a42c74,657158800a4f152cb553a97a,0.0342,0.0342,0,103,103,117,1,seveneight,,,,,,,,,,,,,,,,,,,,,,,,,,,,,,,,,,,,,,,,,,,,,,,,,,,,,,,,,,,,,,,,,,,,,,,,,,,,,,,,,,,,,,,,,,,,,,,,,,,,,,,,,,,,,,,,,,,,,,,,,,,,,,,,,,,,,,,
,,614a4c9d8172751921452626,2023-12-06_21h31.22.155,kallum_motion_pilot,2023.2.3,Win32,8.571257146,614a4c9d8172751921452626,6560176e4d91f764e2a42c74,657158800a4f152cb553a97a,0.0342,0.0343,0,104,104,110,1,eightsix,,,,,,,,,,,,,,,,,,,,,,,,,,,,,,,,,,,,,,,,,,,,,,,,,,,,,,,,,,,,,,,,,,,,,,,,,,,,,,,,,,,,,,,,,,,,,,,,,,,,,,,,,,,,,,,,,,,,,,,,,,,,,,,,,,,,,,,
,,614a4c9d8172751921452626,2023-12-06_21h31.22.155,kallum_motion_pilot,2023.2.3,Win32,8.571257146,614a4c9d8172751921452626,6560176e4d91f764e2a42c74,657158800a4f152cb553a97a,0.0343,0.0343,0,105,105,32,1,onetwo,,,,,,,,,,,,,,,,,,,,,,,,,,,,,,,,,,,,,,,,,,,,,,,,,,,,,,,,,,,,,,,,,,,,,,,,,,,,,,,,,,,,,,,,,,,,,,,,,,,,,,,,,,,,,,,,,,,,,,,,,,,,,,,,,,,,,,,
,,614a4c9d8172751921452626,2023-12-06_21h31.22.155,kallum_motion_pilot,2023.2.3,Win32,8.571257146,614a4c9d8172751921452626,6560176e4d91f764e2a42c74,657158800a4f152cb553a97a,0.0345,0.0345,0,106,106,95,1,eightseven,,,,,,,,,,,,,,,,,,,,,,,,,,,,,,,,,,,,,,,,,,,,,,,,,,,,,,,,,,,,,,,,,,,,,,,,,,,,,,,,,,,,,,,,,,,,,,,,,,,,,,,,,,,,,,,,,,,,,,,,,,,,,,,,,,,,,,,
,,614a4c9d8172751921452626,2023-12-06_21h31.22.155,kallum_motion_pilot,2023.2.3,Win32,8.571257146,614a4c9d8172751921452626,6560176e4d91f764e2a42c74,657158800a4f152cb553a97a,0.0345,0.0347,0,107,107,60,1,threeone,,,,,,,,,,,,,,,,,,,,,,,,,,,,,,,,,,,,,,,,,,,,,,,,,,,,,,,,,,,,,,,,,,,,,,,,,,,,,,,,,,,,,,,,,,,,,,,,,,,,,,,,,,,,,,,,,,,,,,,,,,,,,,,,,,,,,,,
,,614a4c9d8172751921452626,2023-12-06_21h31.22.155,kallum_motion_pilot,2023.2.3,Win32,8.571257146,614a4c9d8172751921452626,6560176e4d91f764e2a42c74,657158800a4f152cb553a97a,0.0348,0.0348,0,108,108,11,1,twofour,,,,,,,,,,,,,,,,,,,,,,,,,,,,,,,,,,,,,,,,,,,,,,,,,,,,,,,,,,,,,,,,,,,,,,,,,,,,,,,,,,,,,,,,,,,,,,,,,,,,,,,,,,,,,,,,,,,,,,,,,,,,,,,,,,,,,,,
,,614a4c9d8172751921452626,2023-12-06_21h31.22.155,kallum_motion_pilot,2023.2.3,Win32,8.571257146,614a4c9d8172751921452626,6560176e4d91f764e2a42c74,657158800a4f152cb553a97a,0.0349,0.0349,0,109,109,2,1,twoone,,,,,,,,,,,,,,,,,,,,,,,,,,,,,,,,,,,,,,,,,,,,,,,,,,,,,,,,,,,,,,,,,,,,,,,,,,,,,,,,,,,,,,,,,,,,,,,,,,,,,,,,,,,,,,,,,,,,,,,,,,,,,,,,,,,,,,,
,,614a4c9d8172751921452626,2023-12-06_21h31.22.155,kallum_motion_pilot,2023.2.3,Win32,8.571257146,614a4c9d8172751921452626,6560176e4d91f764e2a42c74,657158800a4f152cb553a97a,0.0349,0.035,0,110,110,136,1,fivesix,,,,,,,,,,,,,,,,,,,,,,,,,,,,,,,,,,,,,,,,,,,,,,,,,,,,,,,,,,,,,,,,,,,,,,,,,,,,,,,,,,,,,,,,,,,,,,,,,,,,,,,,,,,,,,,,,,,,,,,,,,,,,,,,,,,,,,,
,,614a4c9d8172751921452626,2023-12-06_21h31.22.155,kallum_motion_pilot,2023.2.3,Win32,8.571257146,614a4c9d8172751921452626,6560176e4d91f764e2a42c74,657158800a4f152cb553a97a,0.035,0.0351,0,111,111,42,1,twoone,,,,,,,,,,,,,,,,,,,,,,,,,,,,,,,,,,,,,,,,,,,,,,,,,,,,,,,,,,,,,,,,,,,,,,,,,,,,,,,,,,,,,,,,,,,,,,,,,,,,,,,,,,,,,,,,,,,,,,,,,,,,,,,,,,,,,,,
,,614a4c9d8172751921452626,2023-12-06_21h31.22.155,kallum_motion_pilot,2023.2.3,Win32,8.571257146,614a4c9d8172751921452626,6560176e4d91f764e2a42c74,657158800a4f152cb553a97a,0.0352,0.0353,0,112,112,97,1,fiveseven,,,,,,,,,,,,,,,,,,,,,,,,,,,,,,,,,,,,,,,,,,,,,,,,,,,,,,,,,,,,,,,,,,,,,,,,,,,,,,,,,,,,,,,,,,,,,,,,,,,,,,,,,,,,,,,,,,,,,,,,,,,,,,,,,,,,,,,
,,614a4c9d8172751921452626,2023-12-06_21h31.22.155,kallum_motion_pilot,2023.2.3,Win32,8.571257146,614a4c9d8172751921452626,6560176e4d91f764e2a42c74,657158800a4f152cb553a97a,0.0353,0.0353,0,113,113,19,1,twofour,,,,,,,,,,,,,,,,,,,,,,,,,,,,,,,,,,,,,,,,,,,,,,,,,,,,,,,,,,,,,,,,,,,,,,,,,,,,,,,,,,,,,,,,,,,,,,,,,,,,,,,,,,,,,,,,,,,,,,,,,,,,,,,,,,,,,,,
,,614a4c9d8172751921452626,2023-12-06_21h31.22.155,kallum_motion_pilot,2023.2.3,Win32,8.571257146,614a4c9d8172751921452626,6560176e4d91f764e2a42c74,657158800a4f152cb553a97a,0.0355,0.0356,0,114,114,35,1,twofour,,,,,,,,,,,,,,,,,,,,,,,,,,,,,,,,,,,,,,,,,,,,,,,,,,,,,,,,,,,,,,,,,,,,,,,,,,,,,,,,,,,,,,,,,,,,,,,,,,,,,,,,,,,,,,,,,,,,,,,,,,,,,,,,,,,,,,,
,,614a4c9d8172751921452626,2023-12-06_21h31.22.155,kallum_motion_pilot,2023.2.3,Win32,8.571257146,614a4c9d8172751921452626,6560176e4d91f764e2a42c74,657158800a4f152cb553a97a,0.0357,0.0357,0,115,115,26,1,twoone,,,,,,,,,,,,,,,,,,,,,,,,,,,,,,,,,,,,,,,,,,,,,,,,,,,,,,,,,,,,,,,,,,,,,,,,,,,,,,,,,,,,,,,,,,,,,,,,,,,,,,,,,,,,,,,,,,,,,,,,,,,,,,,,,,,,,,,
,,614a4c9d8172751921452626,2023-12-06_21h31.22.155,kallum_motion_pilot,2023.2.3,Win32,8.571257146,614a4c9d8172751921452626,6560176e4d91f764e2a42c74,657158800a4f152cb553a97a,0.0359,0.0359,0,116,116,113,1,fiveseven,,,,,,,,,,,,,,,,,,,,,,,,,,,,,,,,,,,,,,,,,,,,,,,,,,,,,,,,,,,,,,,,,,,,,,,,,,,,,,,,,,,,,,,,,,,,,,,,,,,,,,,,,,,,,,,,,,,,,,,,,,,,,,,,,,,,,,,
,,614a4c9d8172751921452626,2023-12-06_21h31.22.155,kallum_motion_pilot,2023.2.3,Win32,8.571257146,614a4c9d8172751921452626,6560176e4d91f764e2a42c74,657158800a4f152cb553a97a,0.036,0.036,0,117,117,126,1,eightsix,,,,,,,,,,,,,,,,,,,,,,,,,,,,,,,,,,,,,,,,,,,,,,,,,,,,,,,,,,,,,,,,,,,,,,,,,,,,,,,,,,,,,,,,,,,,,,,,,,,,,,,,,,,,,,,,,,,,,,,,,,,,,,,,,,,,,,,
,,614a4c9d8172751921452626,2023-12-06_21h31.22.155,kallum_motion_pilot,2023.2.3,Win32,8.571257146,614a4c9d8172751921452626,6560176e4d91f764e2a42c74,657158800a4f152cb553a97a,0.0362,0.0362,0,118,118,88,1,fivesix,,,,,,,,,,,,,,,,,,,,,,,,,,,,,,,,,,,,,,,,,,,,,,,,,,,,,,,,,,,,,,,,,,,,,,,,,,,,,,,,,,,,,,,,,,,,,,,,,,,,,,,,,,,,,,,,,,,,,,,,,,,,,,,,,,,,,,,
,,614a4c9d8172751921452626,2023-12-06_21h31.22.155,kallum_motion_pilot,2023.2.3,Win32,8.571257146,614a4c9d8172751921452626,6560176e4d91f764e2a42c74,657158800a4f152cb553a97a,0.0363,0.0363,0,119,119,114,1,sixfive,,,,,,,,,,,,,,,,,,,,,,,,,,,,,,,,,,,,,,,,,,,,,,,,,,,,,,,,,,,,,,,,,,,,,,,,,,,,,,,,,,,,,,,,,,,,,,,,,,,,,,,,,,,,,,,,,,,,,,,,,,,,,,,,,,,,,,,
,,614a4c9d8172751921452626,2023-12-06_21h31.22.155,kallum_motion_pilot,2023.2.3,Win32,8.571257146,614a4c9d8172751921452626,6560176e4d91f764e2a42c74,657158800a4f152cb553a97a,0.0364,0.0365,0,120,120,10,1,twoone,,,,,,,,,,,,,,,,,,,,,,,,,,,,,,,,,,,,,,,,,,,,,,,,,,,,,,,,,,,,,,,,,,,,,,,,,,,,,,,,,,,,,,,,,,,,,,,,,,,,,,,,,,,,,,,,,,,,,,,,,,,,,,,,,,,,,,,
,,614a4c9d8172751921452626,2023-12-06_21h31.22.155,kallum_motion_pilot,2023.2.3,Win32,8.571257146,614a4c9d8172751921452626,6560176e4d91f764e2a42c74,657158800a4f152cb553a97a,0.0365,0.0365,0,121,121,37,1,threefour,,,,,,,,,,,,,,,,,,,,,,,,,,,,,,,,,,,,,,,,,,,,,,,,,,,,,,,,,,,,,,,,,,,,,,,,,,,,,,,,,,,,,,,,,,,,,,,,,,,,,,,,,,,,,,,,,,,,,,,,,,,,,,,,,,,,,,,
,,614a4c9d8172751921452626,2023-12-06_21h31.22.155,kallum_motion_pilot,2023.2.3,Win32,8.571257146,614a4c9d8172751921452626,6560176e4d91f764e2a42c74,657158800a4f152cb553a97a,0.0366,0.0367,0,122,122,157,1,seveneight,,,,,,,,,,,,,,,,,,,,,,,,,,,,,,,,,,,,,,,,,,,,,,,,,,,,,,,,,,,,,,,,,,,,,,,,,,,,,,,,,,,,,,,,,,,,,,,,,,,,,,,,,,,,,,,,,,,,,,,,,,,,,,,,,,,,,,,
,,614a4c9d8172751921452626,2023-12-06_21h31.22.155,kallum_motion_pilot,2023.2.3,Win32,8.571257146,614a4c9d8172751921452626,6560176e4d91f764e2a42c74,657158800a4f152cb553a97a,0.0367,0.0368,0,123,123,41,1,onethree,,,,,,,,,,,,,,,,,,,,,,,,,,,,,,,,,,,,,,,,,,,,,,,,,,,,,,,,,,,,,,,,,,,,,,,,,,,,,,,,,,,,,,,,,,,,,,,,,,,,,,,,,,,,,,,,,,,,,,,,,,,,,,,,,,,,,,,
,,614a4c9d8172751921452626,2023-12-06_21h31.22.155,kallum_motion_pilot,2023.2.3,Win32,8.571257146,614a4c9d8172751921452626,6560176e4d91f764e2a42c74,657158800a4f152cb553a97a,0.0368,0.0369,0,124,124,21,1,threefour,,,,,,,,,,,,,,,,,,,,,,,,,,,,,,,,,,,,,,,,,,,,,,,,,,,,,,,,,,,,,,,,,,,,,,,,,,,,,,,,,,,,,,,,,,,,,,,,,,,,,,,,,,,,,,,,,,,,,,,,,,,,,,,,,,,,,,,
,,614a4c9d8172751921452626,2023-12-06_21h31.22.155,kallum_motion_pilot,2023.2.3,Win32,8.571257146,614a4c9d8172751921452626,6560176e4d91f764e2a42c74,657158800a4f152cb553a97a,0.0369,0.037,0,125,125,101,1,seveneight,,,,,,,,,,,,,,,,,,,,,,,,,,,,,,,,,,,,,,,,,,,,,,,,,,,,,,,,,,,,,,,,,,,,,,,,,,,,,,,,,,,,,,,,,,,,,,,,,,,,,,,,,,,,,,,,,,,,,,,,,,,,,,,,,,,,,,,
,,614a4c9d8172751921452626,2023-12-06_21h31.22.155,kallum_motion_pilot,2023.2.3,Win32,8.571257146,614a4c9d8172751921452626,6560176e4d91f764e2a42c74,657158800a4f152cb553a97a,0.0371,0.0371,0,126,126,107,1,sixeight,,,,,,,,,,,,,,,,,,,,,,,,,,,,,,,,,,,,,,,,,,,,,,,,,,,,,,,,,,,,,,,,,,,,,,,,,,,,,,,,,,,,,,,,,,,,,,,,,,,,,,,,,,,,,,,,,,,,,,,,,,,,,,,,,,,,,,,
,,614a4c9d8172751921452626,2023-12-06_21h31.22.155,kallum_motion_pilot,2023.2.3,Win32,8.571257146,614a4c9d8172751921452626,6560176e4d91f764e2a42c74,657158800a4f152cb553a97a,0.0371,0.0372,0,127,127,8,1,onetwo,,,,,,,,,,,,,,,,,,,,,,,,,,,,,,,,,,,,,,,,,,,,,,,,,,,,,,,,,,,,,,,,,,,,,,,,,,,,,,,,,,,,,,,,,,,,,,,,,,,,,,,,,,,,,,,,,,,,,,,,,,,,,,,,,,,,,,,
,,614a4c9d8172751921452626,2023-12-06_21h31.22.155,kallum_motion_pilot,2023.2.3,Win32,8.571257146,614a4c9d8172751921452626,6560176e4d91f764e2a42c74,657158800a4f152cb553a97a,0.0373,0.0374,0,128,128,91,1,sixeight,,,,,,,,,,,,,,,,,,,,,,,,,,,,,,,,,,,,,,,,,,,,,,,,,,,,,,,,,,,,,,,,,,,,,,,,,,,,,,,,,,,,,,,,,,,,,,,,,,,,,,,,,,,,,,,,,,,,,,,,,,,,,,,,,,,,,,,
,,614a4c9d8172751921452626,2023-12-06_21h31.22.155,kallum_motion_pilot,2023.2.3,Win32,8.571257146,614a4c9d8172751921452626,6560176e4d91f764e2a42c74,657158800a4f152cb553a97a,0.0374,0.0375,0,129,129,156,1,sevenfive,,,,,,,,,,,,,,,,,,,,,,,,,,,,,,,,,,,,,,,,,,,,,,,,,,,,,,,,,,,,,,,,,,,,,,,,,,,,,,,,,,,,,,,,,,,,,,,,,,,,,,,,,,,,,,,,,,,,,,,,,,,,,,,,,,,,,,,
,,614a4c9d8172751921452626,2023-12-06_21h31.22.155,kallum_motion_pilot,2023.2.3,Win32,8.571257146,614a4c9d8172751921452626,6560176e4d91f764e2a42c74,657158800a4f152cb553a97a,0.0376,0.0376,0,130,130,87,1,eightseven,,,,,,,,,,,,,,,,,,,,,,,,,,,,,,,,,,,,,,,,,,,,,,,,,,,,,,,,,,,,,,,,,,,,,,,,,,,,,,,,,,,,,,,,,,,,,,,,,,,,,,,,,,,,,,,,,,,,,,,,,,,,,,,,,,,,,,,
,,614a4c9d8172751921452626,2023-12-06_21h31.22.155,kallum_motion_pilot,2023.2.3,Win32,8.571257146,614a4c9d8172751921452626,6560176e4d91f764e2a42c74,657158800a4f152cb553a97a,0.0376,0.0376,0,131,131,148,1,sevenfive,,,,,,,,,,,,,,,,,,,,,,,,,,,,,,,,,,,,,,,,,,,,,,,,,,,,,,,,,,,,,,,,,,,,,,,,,,,,,,,,,,,,,,,,,,,,,,,,,,,,,,,,,,,,,,,,,,,,,,,,,,,,,,,,,,,,,,,
,,614a4c9d8172751921452626,2023-12-06_21h31.22.155,kallum_motion_pilot,2023.2.3,Win32,8.571257146,614a4c9d8172751921452626,6560176e4d91f764e2a42c74,657158800a4f152cb553a97a,0.0377,0.0377,0,132,132,146,1,sixfive,,,,,,,,,,,,,,,,,,,,,,,,,,,,,,,,,,,,,,,,,,,,,,,,,,,,,,,,,,,,,,,,,,,,,,,,,,,,,,,,,,,,,,,,,,,,,,,,,,,,,,,,,,,,,,,,,,,,,,,,,,,,,,,,,,,,,,,
,,614a4c9d8172751921452626,2023-12-06_21h31.22.155,kallum_motion_pilot,2023.2.3,Win32,8.571257146,614a4c9d8172751921452626,6560176e4d91f764e2a42c74,657158800a4f152cb553a97a,0.0378,0.0379,0,133,133,6,1,fourtwo,,,,,,,,,,,,,,,,,,,,,,,,,,,,,,,,,,,,,,,,,,,,,,,,,,,,,,,,,,,,,,,,,,,,,,,,,,,,,,,,,,,,,,,,,,,,,,,,,,,,,,,,,,,,,,,,,,,,,,,,,,,,,,,,,,,,,,,
,,614a4c9d8172751921452626,2023-12-06_21h31.22.155,kallum_motion_pilot,2023.2.3,Win32,8.571257146,614a4c9d8172751921452626,6560176e4d91f764e2a42c74,657158800a4f152cb553a97a,0.0379,0.038,0,134,134,141,1,seveneight,,,,,,,,,,,,,,,,,,,,,,,,,,,,,,,,,,,,,,,,,,,,,,,,,,,,,,,,,,,,,,,,,,,,,,,,,,,,,,,,,,,,,,,,,,,,,,,,,,,,,,,,,,,,,,,,,,,,,,,,,,,,,,,,,,,,,,,
,,614a4c9d8172751921452626,2023-12-06_21h31.22.155,kallum_motion_pilot,2023.2.3,Win32,8.571257146,614a4c9d8172751921452626,6560176e4d91f764e2a42c74,657158800a4f152cb553a97a,0.038,0.0381,0,135,135,15,1,fourthree,,,,,,,,,,,,,,,,,,,,,,,,,,,,,,,,,,,,,,,,,,,,,,,,,,,,,,,,,,,,,,,,,,,,,,,,,,,,,,,,,,,,,,,,,,,,,,,,,,,,,,,,,,,,,,,,,,,,,,,,,,,,,,,,,,,,,,,
,,614a4c9d8172751921452626,2023-12-06_21h31.22.155,kallum_motion_pilot,2023.2.3,Win32,8.571257146,614a4c9d8172751921452626,6560176e4d91f764e2a42c74,657158800a4f152cb553a97a,0.0381,0.0381,0,136,136,149,1,seveneight,,,,,,,,,,,,,,,,,,,,,,,,,,,,,,,,,,,,,,,,,,,,,,,,,,,,,,,,,,,,,,,,,,,,,,,,,,,,,,,,,,,,,,,,,,,,,,,,,,,,,,,,,,,,,,,,,,,,,,,,,,,,,,,,,,,,,,,
,,614a4c9d8172751921452626,2023-12-06_21h31.22.155,kallum_motion_pilot,2023.2.3,Win32,8.571257146,614a4c9d8172751921452626,6560176e4d91f764e2a42c74,657158800a4f152cb553a97a,0.0382,0.0382,0,137,137,98,1,sixfive,,,,,,,,,,,,,,,,,,,,,,,,,,,,,,,,,,,,,,,,,,,,,,,,,,,,,,,,,,,,,,,,,,,,,,,,,,,,,,,,,,,,,,,,,,,,,,,,,,,,,,,,,,,,,,,,,,,,,,,,,,,,,,,,,,,,,,,
,,614a4c9d8172751921452626,2023-12-06_21h31.22.155,kallum_motion_pilot,2023.2.3,Win32,8.571257146,614a4c9d8172751921452626,6560176e4d91f764e2a42c74,657158800a4f152cb553a97a,0.0383,0.0383,0,138,138,7,1,fourthree,,,,,,,,,,,,,,,,,,,,,,,,,,,,,,,,,,,,,,,,,,,,,,,,,,,,,,,,,,,,,,,,,,,,,,,,,,,,,,,,,,,,,,,,,,,,,,,,,,,,,,,,,,,,,,,,,,,,,,,,,,,,,,,,,,,,,,,
,,614a4c9d8172751921452626,2023-12-06_21h31.22.155,kallum_motion_pilot,2023.2.3,Win32,8.571257146,614a4c9d8172751921452626,6560176e4d91f764e2a42c74,657158800a4f152cb553a97a,0.0384,0.0384,0,139,139,33,1,onethree,,,,,,,,,,,,,,,,,,,,,,,,,,,,,,,,,,,,,,,,,,,,,,,,,,,,,,,,,,,,,,,,,,,,,,,,,,,,,,,,,,,,,,,,,,,,,,,,,,,,,,,,,,,,,,,,,,,,,,,,,,,,,,,,,,,,,,,
,,614a4c9d8172751921452626,2023-12-06_21h31.22.155,kallum_motion_pilot,2023.2.3,Win32,8.571257146,614a4c9d8172751921452626,6560176e4d91f764e2a42c74,657158800a4f152cb553a97a,0.0385,0.0385,0,140,140,142,1,eightsix,,,,,,,,,,,,,,,,,,,,,,,,,,,,,,,,,,,,,,,,,,,,,,,,,,,,,,,,,,,,,,,,,,,,,,,,,,,,,,,,,,,,,,,,,,,,,,,,,,,,,,,,,,,,,,,,,,,,,,,,,,,,,,,,,,,,,,,
,,614a4c9d8172751921452626,2023-12-06_21h31.22.155,kallum_motion_pilot,2023.2.3,Win32,8.571257146,614a4c9d8172751921452626,6560176e4d91f764e2a42c74,657158800a4f152cb553a97a,0.0386,0.0386,0,141,141,36,1,threeone,,,,,,,,,,,,,,,,,,,,,,,,,,,,,,,,,,,,,,,,,,,,,,,,,,,,,,,,,,,,,,,,,,,,,,,,,,,,,,,,,,,,,,,,,,,,,,,,,,,,,,,,,,,,,,,,,,,,,,,,,,,,,,,,,,,,,,,
,,614a4c9d8172751921452626,2023-12-06_21h31.22.155,kallum_motion_pilot,2023.2.3,Win32,8.571257146,614a4c9d8172751921452626,6560176e4d91f764e2a42c74,657158800a4f152cb553a97a,0.0387,0.0388,0,142,142,66,1,twoone,,,,,,,,,,,,,,,,,,,,,,,,,,,,,,,,,,,,,,,,,,,,,,,,,,,,,,,,,,,,,,,,,,,,,,,,,,,,,,,,,,,,,,,,,,,,,,,,,,,,,,,,,,,,,,,,,,,,,,,,,,,,,,,,,,,,,,,
,,614a4c9d8172751921452626,2023-12-06_21h31.22.155,kallum_motion_pilot,2023.2.3,Win32,8.571257146,614a4c9d8172751921452626,6560176e4d91f764e2a42c74,657158800a4f152cb553a97a,0.0388,0.0389,0,143,143,104,1,fivesix,,,,,,,,,,,,,,,,,,,,,,,,,,,,,,,,,,,,,,,,,,,,,,,,,,,,,,,,,,,,,,,,,,,,,,,,,,,,,,,,,,,,,,,,,,,,,,,,,,,,,,,,,,,,,,,,,,,,,,,,,,,,,,,,,,,,,,,
,,614a4c9d8172751921452626,2023-12-06_21h31.22.155,kallum_motion_pilot,2023.2.3,Win32,8.571257146,614a4c9d8172751921452626,6560176e4d91f764e2a42c74,657158800a4f152cb553a97a,0.0389,0.039,0,144,144,17,1,onethree,,,,,,,,,,,,,,,,,,,,,,,,,,,,,,,,,,,,,,,,,,,,,,,,,,,,,,,,,,,,,,,,,,,,,,,,,,,,,,,,,,,,,,,,,,,,,,,,,,,,,,,,,,,,,,,,,,,,,,,,,,,,,,,,,,,,,,,
,,614a4c9d8172751921452626,2023-12-06_21h31.22.155,kallum_motion_pilot,2023.2.3,Win32,8.571257146,614a4c9d8172751921452626,6560176e4d91f764e2a42c74,657158800a4f152cb553a97a,0.039,0.0391,0,145,145,92,1,sevenfive,,,,,,,,,,,,,,,,,,,,,,,,,,,,,,,,,,,,,,,,,,,,,,,,,,,,,,,,,,,,,,,,,,,,,,,,,,,,,,,,,,,,,,,,,,,,,,,,,,,,,,,,,,,,,,,,,,,,,,,,,,,,,,,,,,,,,,,
,,614a4c9d8172751921452626,2023-12-06_21h31.22.155,kallum_motion_pilot,2023.2.3,Win32,8.571257146,614a4c9d8172751921452626,6560176e4d91f764e2a42c74,657158800a4f152cb553a97a,0.0391,0.0392,0,146,146,147,1,sixeight,,,,,,,,,,,,,,,,,,,,,,,,,,,,,,,,,,,,,,,,,,,,,,,,,,,,,,,,,,,,,,,,,,,,,,,,,,,,,,,,,,,,,,,,,,,,,,,,,,,,,,,,,,,,,,,,,,,,,,,,,,,,,,,,,,,,,,,
,,614a4c9d8172751921452626,2023-12-06_21h31.22.155,kallum_motion_pilot,2023.2.3,Win32,8.571257146,614a4c9d8172751921452626,6560176e4d91f764e2a42c74,657158800a4f152cb553a97a,0.0392,0.0392,0,147,147,12,1,threeone,,,,,,,,,,,,,,,,,,,,,,,,,,,,,,,,,,,,,,,,,,,,,,,,,,,,,,,,,,,,,,,,,,,,,,,,,,,,,,,,,,,,,,,,,,,,,,,,,,,,,,,,,,,,,,,,,,,,,,,,,,,,,,,,,,,,,,,
,,614a4c9d8172751921452626,2023-12-06_21h31.22.155,kallum_motion_pilot,2023.2.3,Win32,8.571257146,614a4c9d8172751921452626,6560176e4d91f764e2a42c74,657158800a4f152cb553a97a,0.0394,0.0394,0,148,148,154,1,sixfive,,,,,,,,,,,,,,,,,,,,,,,,,,,,,,,,,,,,,,,,,,,,,,,,,,,,,,,,,,,,,,,,,,,,,,,,,,,,,,,,,,,,,,,,,,,,,,,,,,,,,,,,,,,,,,,,,,,,,,,,,,,,,,,,,,,,,,,
,,614a4c9d8172751921452626,2023-12-06_21h31.22.155,kallum_motion_pilot,2023.2.3,Win32,8.571257146,614a4c9d8172751921452626,6560176e4d91f764e2a42c74,657158800a4f152cb553a97a,0.0395,0.0395,0,149,149,119,1,eightseven,,,,,,,,,,,,,,,,,,,,,,,,,,,,,,,,,,,,,,,,,,,,,,,,,,,,,,,,,,,,,,,,,,,,,,,,,,,,,,,,,,,,,,,,,,,,,,,,,,,,,,,,,,,,,,,,,,,,,,,,,,,,,,,,,,,,,,,
,,614a4c9d8172751921452626,2023-12-06_21h31.22.155,kallum_motion_pilot,2023.2.3,Win32,8.571257146,614a4c9d8172751921452626,6560176e4d91f764e2a42c74,657158800a4f152cb553a97a,0.0396,0.0396,0,150,150,90,1,sixfive,,,,,,,,,,,,,,,,,,,,,,,,,,,,,,,,,,,,,,,,,,,,,,,,,,,,,,,,,,,,,,,,,,,,,,,,,,,,,,,,,,,,,,,,,,,,,,,,,,,,,,,,,,,,,,,,,,,,,,,,,,,,,,,,,,,,,,,
,,614a4c9d8172751921452626,2023-12-06_21h31.22.155,kallum_motion_pilot,2023.2.3,Win32,8.571257146,614a4c9d8172751921452626,6560176e4d91f764e2a42c74,657158800a4f152cb553a97a,0.0396,0.0397,0,151,151,93,1,seveneight,,,,,,,,,,,,,,,,,,,,,,,,,,,,,,,,,,,,,,,,,,,,,,,,,,,,,,,,,,,,,,,,,,,,,,,,,,,,,,,,,,,,,,,,,,,,,,,,,,,,,,,,,,,,,,,,,,,,,,,,,,,,,,,,,,,,,,,
,,614a4c9d8172751921452626,2023-12-06_21h31.22.155,kallum_motion_pilot,2023.2.3,Win32,8.571257146,614a4c9d8172751921452626,6560176e4d91f764e2a42c74,657158800a4f152cb553a97a,0.0398,0.0398,0,152,152,159,1,eightseven,,,,,,,,,,,,,,,,,,,,,,,,,,,,,,,,,,,,,,,,,,,,,,,,,,,,,,,,,,,,,,,,,,,,,,,,,,,,,,,,,,,,,,,,,,,,,,,,,,,,,,,,,,,,,,,,,,,,,,,,,,,,,,,,,,,,,,,
,,614a4c9d8172751921452626,2023-12-06_21h31.22.155,kallum_motion_pilot,2023.2.3,Win32,8.571257146,614a4c9d8172751921452626,6560176e4d91f764e2a42c74,657158800a4f152cb553a97a,0.0399,0.0399,0,153,153,1,1,onethree,,,,,,,,,,,,,,,,,,,,,,,,,,,,,,,,,,,,,,,,,,,,,,,,,,,,,,,,,,,,,,,,,,,,,,,,,,,,,,,,,,,,,,,,,,,,,,,,,,,,,,,,,,,,,,,,,,,,,,,,,,,,,,,,,,,,,,,
,,614a4c9d8172751921452626,2023-12-06_21h31.22.155,kallum_motion_pilot,2023.2.3,Win32,8.571257146,614a4c9d8172751921452626,6560176e4d91f764e2a42c74,657158800a4f152cb553a97a,0.04,0.04,0,154,154,145,1,fiveseven,,,,,,,,,,,,,,,,,,,,,,,,,,,,,,,,,,,,,,,,,,,,,,,,,,,,,,,,,,,,,,,,,,,,,,,,,,,,,,,,,,,,,,,,,,,,,,,,,,,,,,,,,,,,,,,,,,,,,,,,,,,,,,,,,,,,,,,
,,614a4c9d8172751921452626,2023-12-06_21h31.22.155,kallum_motion_pilot,2023.2.3,Win32,8.571257146,614a4c9d8172751921452626,6560176e4d91f764e2a42c74,657158800a4f152cb553a97a,0.0401,0.0402,0,155,155,16,1,onetwo,,,,,,,,,,,,,,,,,,,,,,,,,,,,,,,,,,,,,,,,,,,,,,,,,,,,,,,,,,,,,,,,,,,,,,,,,,,,,,,,,,,,,,,,,,,,,,,,,,,,,,,,,,,,,,,,,,,,,,,,,,,,,,,,,,,,,,,
,,614a4c9d8172751921452626,2023-12-06_21h31.22.155,kallum_motion_pilot,2023.2.3,Win32,8.571257146,614a4c9d8172751921452626,6560176e4d91f764e2a42c74,657158800a4f152cb553a97a,0.0402,0.0402,0,156,156,143,1,eightseven,,,,,,,,,,,,,,,,,,,,,,,,,,,,,,,,,,,,,,,,,,,,,,,,,,,,,,,,,,,,,,,,,,,,,,,,,,,,,,,,,,,,,,,,,,,,,,,,,,,,,,,,,,,,,,,,,,,,,,,,,,,,,,,,,,,,,,,
,,614a4c9d8172751921452626,2023-12-06_21h31.22.155,kallum_motion_pilot,2023.2.3,Win32,8.571257146,614a4c9d8172751921452626,6560176e4d91f764e2a42c74,657158800a4f152cb553a97a,0.0403,0.0404,0,157,157,25,1,onethree,,,,,,,,,,,,,,,,,,,,,,,,,,,,,,,,,,,,,,,,,,,,,,,,,,,,,,,,,,,,,,,,,,,,,,,,,,,,,,,,,,,,,,,,,,,,,,,,,,,,,,,,,,,,,,,,,,,,,,,,,,,,,,,,,,,,,,,
,,614a4c9d8172751921452626,2023-12-06_21h31.22.155,kallum_motion_pilot,2023.2.3,Win32,8.571257146,614a4c9d8172751921452626,6560176e4d91f764e2a42c74,657158800a4f152cb553a97a,0.0405,0.0405,0,158,158,65,1,onethree,,,,,,,,,,,,,,,,,,,,,,,,,,,,,,,,,,,,,,,,,,,,,,,,,,,,,,,,,,,,,,,,,,,,,,,,,,,,,,,,,,,,,,,,,,,,,,,,,,,,,,,,,,,,,,,,,,,,,,,,,,,,,,,,,,,,,,,
,,614a4c9d8172751921452626,2023-12-06_21h31.22.155,kallum_motion_pilot,2023.2.3,Win32,8.571257146,614a4c9d8172751921452626,6560176e4d91f764e2a42c74,657158800a4f152cb553a97a,0.0405,0.0406,0,159,159,123,1,sixeight,,,,,,,,,,,,,,,,,,,,,,,,,,,,,,,,,,,,,,,,,,,,,,,,,,,,,,,,,,,,,,,,,,,,,,,,,,,,,,,,,,,,,,,,,,,,,,,,,,,,,,,,,,,,,,,,,,,,,,,,,,,,,,,,,,,,,,,
,,614a4c9d8172751921452626,2023-12-06_21h31.22.155,kallum_motion_pilot,2023.2.3,Win32,8.571257146,614a4c9d8172751921452626,6560176e4d91f764e2a42c74,657158800a4f152cb553a97a,0.0407,0.0407,0,160,160,63,1,fourthree,,,,,,,,,,,,,,,,,,,,,,,,,,,,,,,,,,,,,,,,,,,,,,,,,,,,,,,,,,,,,,,,,,,,,,,,,,,,,,,,,,,,,,,,,,,,,,,,,,,,,,,,,,,,,,,,,,,,,,,,,,,,,,,,,,,,,,,
,,614a4c9d8172751921452626,2023-12-06_21h31.22.155,kallum_motion_pilot,2023.2.3,Win32,8.571257146,614a4c9d8172751921452626,6560176e4d91f764e2a42c74,657158800a4f152cb553a97a,0.0408,0.0409,0,161,161,13,1,threefour,,,,,,,,,,,,,,,,,,,,,,,,,,,,,,,,,,,,,,,,,,,,,,,,,,,,,,,,,,,,,,,,,,,,,,,,,,,,,,,,,,,,,,,,,,,,,,,,,,,,,,,,,,,,,,,,,,,,,,,,,,,,,,,,,,,,,,,
,,614a4c9d8172751921452626,2023-12-06_21h31.22.155,kallum_motion_pilot,2023.2.3,Win32,8.571257146,614a4c9d8172751921452626,6560176e4d91f764e2a42c74,657158800a4f152cb553a97a,0.0409,0.0409,1,0,162,75,1,twofour,,,,,,,,,,,,,,,,,,,,,,,,,,,,,,,,,,,,,,,,,,,,,,,,,,,,,,,,,,,,,,,,,,,,,,,,,,,,,,,,,,,,,,,,,,,,,,,,,,,,,,,,,,,,,,,,,,,,,,,,,,,,,,,,,,,,,,,
,,614a4c9d8172751921452626,2023-12-06_21h31.22.155,kallum_motion_pilot,2023.2.3,Win32,8.571257146,614a4c9d8172751921452626,6560176e4d91f764e2a42c74,657158800a4f152cb553a97a,0.041,0.041,1,1,163,115,1,sixeight,,,,,,,,,,,,,,,,,,,,,,,,,,,,,,,,,,,,,,,,,,,,,,,,,,,,,,,,,,,,,,,,,,,,,,,,,,,,,,,,,,,,,,,,,,,,,,,,,,,,,,,,,,,,,,,,,,,,,,,,,,,,,,,,,,,,,,,
,,614a4c9d8172751921452626,2023-12-06_21h31.22.155,kallum_motion_pilot,2023.2.3,Win32,8.571257146,614a4c9d8172751921452626,6560176e4d91f764e2a42c74,657158800a4f152cb553a97a,0.0411,0.0411,1,2,164,98,1,sixfive,,,,,,,,,,,,,,,,,,,,,,,,,,,,,,,,,,,,,,,,,,,,,,,,,,,,,,,,,,,,,,,,,,,,,,,,,,,,,,,,,,,,,,,,,,,,,,,,,,,,,,,,,,,,,,,,,,,,,,,,,,,,,,,,,,,,,,,
,,614a4c9d8172751921452626,2023-12-06_21h31.22.155,kallum_motion_pilot,2023.2.3,Win32,8.571257146,614a4c9d8172751921452626,6560176e4d91f764e2a42c74,657158800a4f152cb553a97a,0.0411,0.0412,1,3,165,6,1,fourtwo,,,,,,,,,,,,,,,,,,,,,,,,,,,,,,,,,,,,,,,,,,,,,,,,,,,,,,,,,,,,,,,,,,,,,,,,,,,,,,,,,,,,,,,,,,,,,,,,,,,,,,,,,,,,,,,,,,,,,,,,,,,,,,,,,,,,,,,
,,614a4c9d8172751921452626,2023-12-06_21h31.22.155,kallum_motion_pilot,2023.2.3,Win32,8.571257146,614a4c9d8172751921452626,6560176e4d91f764e2a42c74,657158800a4f152cb553a97a,0.0413,0.0414,1,4,166,116,1,sevenfive,,,,,,,,,,,,,,,,,,,,,,,,,,,,,,,,,,,,,,,,,,,,,,,,,,,,,,,,,,,,,,,,,,,,,,,,,,,,,,,,,,,,,,,,,,,,,,,,,,,,,,,,,,,,,,,,,,,,,,,,,,,,,,,,,,,,,,,
,,614a4c9d8172751921452626,2023-12-06_21h31.22.155,kallum_motion_pilot,2023.2.3,Win32,8.571257146,614a4c9d8172751921452626,6560176e4d91f764e2a42c74,657158800a4f152cb553a97a,0.0414,0.0415,1,5,167,68,1,threeone,,,,,,,,,,,,,,,,,,,,,,,,,,,,,,,,,,,,,,,,,,,,,,,,,,,,,,,,,,,,,,,,,,,,,,,,,,,,,,,,,,,,,,,,,,,,,,,,,,,,,,,,,,,,,,,,,,,,,,,,,,,,,,,,,,,,,,,
,,614a4c9d8172751921452626,2023-12-06_21h31.22.155,kallum_motion_pilot,2023.2.3,Win32,8.571257146,614a4c9d8172751921452626,6560176e4d91f764e2a42c74,657158800a4f152cb553a97a,0.0415,0.0416,1,6,168,128,1,fivesix,,,,,,,,,,,,,,,,,,,,,,,,,,,,,,,,,,,,,,,,,,,,,,,,,,,,,,,,,,,,,,,,,,,,,,,,,,,,,,,,,,,,,,,,,,,,,,,,,,,,,,,,,,,,,,,,,,,,,,,,,,,,,,,,,,,,,,,
,,614a4c9d8172751921452626,2023-12-06_21h31.22.155,kallum_motion_pilot,2023.2.3,Win32,8.571257146,614a4c9d8172751921452626,6560176e4d91f764e2a42c74,657158800a4f152cb553a97a,0.0417,0.0417,1,7,169,18,1,twoone,,,,,,,,,,,,,,,,,,,,,,,,,,,,,,,,,,,,,,,,,,,,,,,,,,,,,,,,,,,,,,,,,,,,,,,,,,,,,,,,,,,,,,,,,,,,,,,,,,,,,,,,,,,,,,,,,,,,,,,,,,,,,,,,,,,,,,,
,,614a4c9d8172751921452626,2023-12-06_21h31.22.155,kallum_motion_pilot,2023.2.3,Win32,8.571257146,614a4c9d8172751921452626,6560176e4d91f764e2a42c74,657158800a4f152cb553a97a,0.0418,0.0418,1,8,170,2,1,twoone,,,,,,,,,,,,,,,,,,,,,,,,,,,,,,,,,,,,,,,,,,,,,,,,,,,,,,,,,,,,,,,,,,,,,,,,,,,,,,,,,,,,,,,,,,,,,,,,,,,,,,,,,,,,,,,,,,,,,,,,,,,,,,,,,,,,,,,
,,614a4c9d8172751921452626,2023-12-06_21h31.22.155,kallum_motion_pilot,2023.2.3,Win32,8.571257146,614a4c9d8172751921452626,6560176e4d91f764e2a42c74,657158800a4f152cb553a97a,0.0418,0.0419,1,9,171,121,1,fiveseven,,,,,,,,,,,,,,,,,,,,,,,,,,,,,,,,,,,,,,,,,,,,,,,,,,,,,,,,,,,,,,,,,,,,,,,,,,,,,,,,,,,,,,,,,,,,,,,,,,,,,,,,,,,,,,,,,,,,,,,,,,,,,,,,,,,,,,,
,,614a4c9d8172751921452626,2023-12-06_21h31.22.155,kallum_motion_pilot,2023.2.3,Win32,8.571257146,614a4c9d8172751921452626,6560176e4d91f764e2a42c74,657158800a4f152cb553a97a,0.042,0.042,1,10,172,54,1,fourtwo,,,,,,,,,,,,,,,,,,,,,,,,,,,,,,,,,,,,,,,,,,,,,,,,,,,,,,,,,,,,,,,,,,,,,,,,,,,,,,,,,,,,,,,,,,,,,,,,,,,,,,,,,,,,,,,,,,,,,,,,,,,,,,,,,,,,,,,
,,614a4c9d8172751921452626,2023-12-06_21h31.22.155,kallum_motion_pilot,2023.2.3,Win32,8.571257146,614a4c9d8172751921452626,6560176e4d91f764e2a42c74,657158800a4f152cb553a97a,0.0421,0.0422,1,11,173,34,1,twoone,,,,,,,,,,,,,,,,,,,,,,,,,,,,,,,,,,,,,,,,,,,,,,,,,,,,,,,,,,,,,,,,,,,,,,,,,,,,,,,,,,,,,,,,,,,,,,,,,,,,,,,,,,,,,,,,,,,,,,,,,,,,,,,,,,,,,,,
,,614a4c9d8172751921452626,2023-12-06_21h31.22.155,kallum_motion_pilot,2023.2.3,Win32,8.571257146,614a4c9d8172751921452626,6560176e4d91f764e2a42c74,657158800a4f152cb553a97a,0.0422,0.0423,1,12,174,38,1,fourtwo,,,,,,,,,,,,,,,,,,,,,,,,,,,,,,,,,,,,,,,,,,,,,,,,,,,,,,,,,,,,,,,,,,,,,,,,,,,,,,,,,,,,,,,,,,,,,,,,,,,,,,,,,,,,,,,,,,,,,,,,,,,,,,,,,,,,,,,
,,614a4c9d8172751921452626,2023-12-06_21h31.22.155,kallum_motion_pilot,2023.2.3,Win32,8.571257146,614a4c9d8172751921452626,6560176e4d91f764e2a42c74,657158800a4f152cb553a97a,0.0423,0.0424,1,13,175,12,1,threeone,,,,,,,,,,,,,,,,,,,,,,,,,,,,,,,,,,,,,,,,,,,,,,,,,,,,,,,,,,,,,,,,,,,,,,,,,,,,,,,,,,,,,,,,,,,,,,,,,,,,,,,,,,,,,,,,,,,,,,,,,,,,,,,,,,,,,,,
,,614a4c9d8172751921452626,2023-12-06_21h31.22.155,kallum_motion_pilot,2023.2.3,Win32,8.571257146,614a4c9d8172751921452626,6560176e4d91f764e2a42c74,657158800a4f152cb553a97a,0.0425,0.0425,1,14,176,137,1,fiveseven,,,,,,,,,,,,,,,,,,,,,,,,,,,,,,,,,,,,,,,,,,,,,,,,,,,,,,,,,,,,,,,,,,,,,,,,,,,,,,,,,,,,,,,,,,,,,,,,,,,,,,,,,,,,,,,,,,,,,,,,,,,,,,,,,,,,,,,
,,614a4c9d8172751921452626,2023-12-06_21h31.22.155,kallum_motion_pilot,2023.2.3,Win32,8.571257146,614a4c9d8172751921452626,6560176e4d91f764e2a42c74,657158800a4f152cb553a97a,0.0426,0.0426,1,15,177,129,1,fiveseven,,,,,,,,,,,,,,,,,,,,,,,,,,,,,,,,,,,,,,,,,,,,,,,,,,,,,,,,,,,,,,,,,,,,,,,,,,,,,,,,,,,,,,,,,,,,,,,,,,,,,,,,,,,,,,,,,,,,,,,,,,,,,,,,,,,,,,,
,,614a4c9d8172751921452626,2023-12-06_21h31.22.155,kallum_motion_pilot,2023.2.3,Win32,8.571257146,614a4c9d8172751921452626,6560176e4d91f764e2a42c74,657158800a4f152cb553a97a,0.0427,0.0428,1,16,178,9,1,onethree,,,,,,,,,,,,,,,,,,,,,,,,,,,,,,,,,,,,,,,,,,,,,,,,,,,,,,,,,,,,,,,,,,,,,,,,,,,,,,,,,,,,,,,,,,,,,,,,,,,,,,,,,,,,,,,,,,,,,,,,,,,,,,,,,,,,,,,
,,614a4c9d8172751921452626,2023-12-06_21h31.22.155,kallum_motion_pilot,2023.2.3,Win32,8.571257146,614a4c9d8172751921452626,6560176e4d91f764e2a42c74,657158800a4f152cb553a97a,0.0428,0.0428,1,17,179,94,1,eightsix,,,,,,,,,,,,,,,,,,,,,,,,,,,,,,,,,,,,,,,,,,,,,,,,,,,,,,,,,,,,,,,,,,,,,,,,,,,,,,,,,,,,,,,,,,,,,,,,,,,,,,,,,,,,,,,,,,,,,,,,,,,,,,,,,,,,,,,
,,614a4c9d8172751921452626,2023-12-06_21h31.22.155,kallum_motion_pilot,2023.2.3,Win32,8.571257146,614a4c9d8172751921452626,6560176e4d91f764e2a42c74,657158800a4f152cb553a97a,0.0428,0.0429,1,18,180,13,1,threefour,,,,,,,,,,,,,,,,,,,,,,,,,,,,,,,,,,,,,,,,,,,,,,,,,,,,,,,,,,,,,,,,,,,,,,,,,,,,,,,,,,,,,,,,,,,,,,,,,,,,,,,,,,,,,,,,,,,,,,,,,,,,,,,,,,,,,,,
,,614a4c9d8172751921452626,2023-12-06_21h31.22.155,kallum_motion_pilot,2023.2.3,Win32,8.571257146,614a4c9d8172751921452626,6560176e4d91f764e2a42c74,657158800a4f152cb553a97a,0.0432,0.0433,1,19,181,117,1,seveneight,,,,,,,,,,,,,,,,,,,,,,,,,,,,,,,,,,,,,,,,,,,,,,,,,,,,,,,,,,,,,,,,,,,,,,,,,,,,,,,,,,,,,,,,,,,,,,,,,,,,,,,,,,,,,,,,,,,,,,,,,,,,,,,,,,,,,,,
,,614a4c9d8172751921452626,2023-12-06_21h31.22.155,kallum_motion_pilot,2023.2.3,Win32,8.571257146,614a4c9d8172751921452626,6560176e4d91f764e2a42c74,657158800a4f152cb553a97a,0.0433,0.0435,1,20,182,51,1,twofour,,,,,,,,,,,,,,,,,,,,,,,,,,,,,,,,,,,,,,,,,,,,,,,,,,,,,,,,,,,,,,,,,,,,,,,,,,,,,,,,,,,,,,,,,,,,,,,,,,,,,,,,,,,,,,,,,,,,,,,,,,,,,,,,,,,,,,,
,,614a4c9d8172751921452626,2023-12-06_21h31.22.155,kallum_motion_pilot,2023.2.3,Win32,8.571257146,614a4c9d8172751921452626,6560176e4d91f764e2a42c74,657158800a4f152cb553a97a,0.0435,0.0435,1,21,183,140,1,sevenfive,,,,,,,,,,,,,,,,,,,,,,,,,,,,,,,,,,,,,,,,,,,,,,,,,,,,,,,,,,,,,,,,,,,,,,,,,,,,,,,,,,,,,,,,,,,,,,,,,,,,,,,,,,,,,,,,,,,,,,,,,,,,,,,,,,,,,,,
,,614a4c9d8172751921452626,2023-12-06_21h31.22.155,kallum_motion_pilot,2023.2.3,Win32,8.571257146,614a4c9d8172751921452626,6560176e4d91f764e2a42c74,657158800a4f152cb553a97a,0.0436,0.0437,1,22,184,104,1,fivesix,,,,,,,,,,,,,,,,,,,,,,,,,,,,,,,,,,,,,,,,,,,,,,,,,,,,,,,,,,,,,,,,,,,,,,,,,,,,,,,,,,,,,,,,,,,,,,,,,,,,,,,,,,,,,,,,,,,,,,,,,,,,,,,,,,,,,,,
,,614a4c9d8172751921452626,2023-12-06_21h31.22.155,kallum_motion_pilot,2023.2.3,Win32,8.571257146,614a4c9d8172751921452626,6560176e4d91f764e2a42c74,657158800a4f152cb553a97a,0.0437,0.0438,1,23,185,11,1,twofour,,,,,,,,,,,,,,,,,,,,,,,,,,,,,,,,,,,,,,,,,,,,,,,,,,,,,,,,,,,,,,,,,,,,,,,,,,,,,,,,,,,,,,,,,,,,,,,,,,,,,,,,,,,,,,,,,,,,,,,,,,,,,,,,,,,,,,,
,,614a4c9d8172751921452626,2023-12-06_21h31.22.155,kallum_motion_pilot,2023.2.3,Win32,8.571257146,614a4c9d8172751921452626,6560176e4d91f764e2a42c74,657158800a4f152cb553a97a,0.0438,0.0438,1,24,186,84,1,sevenfive,,,,,,,,,,,,,,,,,,,,,,,,,,,,,,,,,,,,,,,,,,,,,,,,,,,,,,,,,,,,,,,,,,,,,,,,,,,,,,,,,,,,,,,,,,,,,,,,,,,,,,,,,,,,,,,,,,,,,,,,,,,,,,,,,,,,,,,
,,614a4c9d8172751921452626,2023-12-06_21h31.22.155,kallum_motion_pilot,2023.2.3,Win32,8.571257146,614a4c9d8172751921452626,6560176e4d91f764e2a42c74,657158800a4f152cb553a97a,0.044,0.0441,1,25,187,47,1,fourthree,,,,,,,,,,,,,,,,,,,,,,,,,,,,,,,,,,,,,,,,,,,,,,,,,,,,,,,,,,,,,,,,,,,,,,,,,,,,,,,,,,,,,,,,,,,,,,,,,,,,,,,,,,,,,,,,,,,,,,,,,,,,,,,,,,,,,,,
,,614a4c9d8172751921452626,2023-12-06_21h31.22.155,kallum_motion_pilot,2023.2.3,Win32,8.571257146,614a4c9d8172751921452626,6560176e4d91f764e2a42c74,657158800a4f152cb553a97a,0.0441,0.0441,1,26,188,108,1,sevenfive,,,,,,,,,,,,,,,,,,,,,,,,,,,,,,,,,,,,,,,,,,,,,,,,,,,,,,,,,,,,,,,,,,,,,,,,,,,,,,,,,,,,,,,,,,,,,,,,,,,,,,,,,,,,,,,,,,,,,,,,,,,,,,,,,,,,,,,
,,614a4c9d8172751921452626,2023-12-06_21h31.22.155,kallum_motion_pilot,2023.2.3,Win32,8.571257146,614a4c9d8172751921452626,6560176e4d91f764e2a42c74,657158800a4f152cb553a97a,0.0442,0.0442,1,27,189,52,1,threeone,,,,,,,,,,,,,,,,,,,,,,,,,,,,,,,,,,,,,,,,,,,,,,,,,,,,,,,,,,,,,,,,,,,,,,,,,,,,,,,,,,,,,,,,,,,,,,,,,,,,,,,,,,,,,,,,,,,,,,,,,,,,,,,,,,,,,,,
,,614a4c9d8172751921452626,2023-12-06_21h31.22.155,kallum_motion_pilot,2023.2.3,Win32,8.571257146,614a4c9d8172751921452626,6560176e4d91f764e2a42c74,657158800a4f152cb553a97a,0.0443,0.0443,1,28,190,81,1,fiveseven,,,,,,,,,,,,,,,,,,,,,,,,,,,,,,,,,,,,,,,,,,,,,,,,,,,,,,,,,,,,,,,,,,,,,,,,,,,,,,,,,,,,,,,,,,,,,,,,,,,,,,,,,,,,,,,,,,,,,,,,,,,,,,,,,,,,,,,
,,614a4c9d8172751921452626,2023-12-06_21h31.22.155,kallum_motion_pilot,2023.2.3,Win32,8.571257146,614a4c9d8172751921452626,6560176e4d91f764e2a42c74,657158800a4f152cb553a97a,0.0445,0.0445,1,29,191,76,1,threeone,,,,,,,,,,,,,,,,,,,,,,,,,,,,,,,,,,,,,,,,,,,,,,,,,,,,,,,,,,,,,,,,,,,,,,,,,,,,,,,,,,,,,,,,,,,,,,,,,,,,,,,,,,,,,,,,,,,,,,,,,,,,,,,,,,,,,,,
,,614a4c9d8172751921452626,2023-12-06_21h31.22.155,kallum_motion_pilot,2023.2.3,Win32,8.571257146,614a4c9d8172751921452626,6560176e4d91f764e2a42c74,657158800a4f152cb553a97a,0.0446,0.0447,1,30,192,56,1,onetwo,,,,,,,,,,,,,,,,,,,,,,,,,,,,,,,,,,,,,,,,,,,,,,,,,,,,,,,,,,,,,,,,,,,,,,,,,,,,,,,,,,,,,,,,,,,,,,,,,,,,,,,,,,,,,,,,,,,,,,,,,,,,,,,,,,,,,,,
,,614a4c9d8172751921452626,2023-12-06_21h31.22.155,kallum_motion_pilot,2023.2.3,Win32,8.571257146,614a4c9d8172751921452626,6560176e4d91f764e2a42c74,657158800a4f152cb553a97a,0.0447,0.0448,1,31,193,64,1,onetwo,,,,,,,,,,,,,,,,,,,,,,,,,,,,,,,,,,,,,,,,,,,,,,,,,,,,,,,,,,,,,,,,,,,,,,,,,,,,,,,,,,,,,,,,,,,,,,,,,,,,,,,,,,,,,,,,,,,,,,,,,,,,,,,,,,,,,,,
,,614a4c9d8172751921452626,2023-12-06_21h31.22.155,kallum_motion_pilot,2023.2.3,Win32,8.571257146,614a4c9d8172751921452626,6560176e4d91f764e2a42c74,657158800a4f152cb553a97a,0.0448,0.0449,1,32,194,132,1,sevenfive,,,,,,,,,,,,,,,,,,,,,,,,,,,,,,,,,,,,,,,,,,,,,,,,,,,,,,,,,,,,,,,,,,,,,,,,,,,,,,,,,,,,,,,,,,,,,,,,,,,,,,,,,,,,,,,,,,,,,,,,,,,,,,,,,,,,,,,
,,614a4c9d8172751921452626,2023-12-06_21h31.22.155,kallum_motion_pilot,2023.2.3,Win32,8.571257146,614a4c9d8172751921452626,6560176e4d91f764e2a42c74,657158800a4f152cb553a97a,0.0449,0.045,1,33,195,69,1,threefour,,,,,,,,,,,,,,,,,,,,,,,,,,,,,,,,,,,,,,,,,,,,,,,,,,,,,,,,,,,,,,,,,,,,,,,,,,,,,,,,,,,,,,,,,,,,,,,,,,,,,,,,,,,,,,,,,,,,,,,,,,,,,,,,,,,,,,,
,,614a4c9d8172751921452626,2023-12-06_21h31.22.155,kallum_motion_pilot,2023.2.3,Win32,8.571257146,614a4c9d8172751921452626,6560176e4d91f764e2a42c74,657158800a4f152cb553a97a,0.045,0.045,1,34,196,143,1,eightseven,,,,,,,,,,,,,,,,,,,,,,,,,,,,,,,,,,,,,,,,,,,,,,,,,,,,,,,,,,,,,,,,,,,,,,,,,,,,,,,,,,,,,,,,,,,,,,,,,,,,,,,,,,,,,,,,,,,,,,,,,,,,,,,,,,,,,,,
,,614a4c9d8172751921452626,2023-12-06_21h31.22.155,kallum_motion_pilot,2023.2.3,Win32,8.571257146,614a4c9d8172751921452626,6560176e4d91f764e2a42c74,657158800a4f152cb553a97a,0.0451,0.0452,1,35,197,106,1,sixfive,,,,,,,,,,,,,,,,,,,,,,,,,,,,,,,,,,,,,,,,,,,,,,,,,,,,,,,,,,,,,,,,,,,,,,,,,,,,,,,,,,,,,,,,,,,,,,,,,,,,,,,,,,,,,,,,,,,,,,,,,,,,,,,,,,,,,,,
,,614a4c9d8172751921452626,2023-12-06_21h31.22.155,kallum_motion_pilot,2023.2.3,Win32,8.571257146,614a4c9d8172751921452626,6560176e4d91f764e2a42c74,657158800a4f152cb553a97a,0.0452,0.0453,1,36,198,113,1,fiveseven,,,,,,,,,,,,,,,,,,,,,,,,,,,,,,,,,,,,,,,,,,,,,,,,,,,,,,,,,,,,,,,,,,,,,,,,,,,,,,,,,,,,,,,,,,,,,,,,,,,,,,,,,,,,,,,,,,,,,,,,,,,,,,,,,,,,,,,
,,614a4c9d8172751921452626,2023-12-06_21h31.22.155,kallum_motion_pilot,2023.2.3,Win32,8.571257146,614a4c9d8172751921452626,6560176e4d91f764e2a42c74,657158800a4f152cb553a97a,0.0454,0.0454,1,37,199,35,1,twofour,,,,,,,,,,,,,,,,,,,,,,,,,,,,,,,,,,,,,,,,,,,,,,,,,,,,,,,,,,,,,,,,,,,,,,,,,,,,,,,,,,,,,,,,,,,,,,,,,,,,,,,,,,,,,,,,,,,,,,,,,,,,,,,,,,,,,,,
,,614a4c9d8172751921452626,2023-12-06_21h31.22.155,kallum_motion_pilot,2023.2.3,Win32,8.571257146,614a4c9d8172751921452626,6560176e4d91f764e2a42c74,657158800a4f152cb553a97a,0.0455,0.0456,1,38,200,148,1,sevenfive,,,,,,,,,,,,,,,,,,,,,,,,,,,,,,,,,,,,,,,,,,,,,,,,,,,,,,,,,,,,,,,,,,,,,,,,,,,,,,,,,,,,,,,,,,,,,,,,,,,,,,,,,,,,,,,,,,,,,,,,,,,,,,,,,,,,,,,
,,614a4c9d8172751921452626,2023-12-06_21h31.22.155,kallum_motion_pilot,2023.2.3,Win32,8.571257146,614a4c9d8172751921452626,6560176e4d91f764e2a42c74,657158800a4f152cb553a97a,0.0456,0.0456,1,39,201,74,1,twoone,,,,,,,,,,,,,,,,,,,,,,,,,,,,,,,,,,,,,,,,,,,,,,,,,,,,,,,,,,,,,,,,,,,,,,,,,,,,,,,,,,,,,,,,,,,,,,,,,,,,,,,,,,,,,,,,,,,,,,,,,,,,,,,,,,,,,,,
,,614a4c9d8172751921452626,2023-12-06_21h31.22.155,kallum_motion_pilot,2023.2.3,Win32,8.571257146,614a4c9d8172751921452626,6560176e4d91f764e2a42c74,657158800a4f152cb553a97a,0.0457,0.0457,1,40,202,142,1,eightsix,,,,,,,,,,,,,,,,,,,,,,,,,,,,,,,,,,,,,,,,,,,,,,,,,,,,,,,,,,,,,,,,,,,,,,,,,,,,,,,,,,,,,,,,,,,,,,,,,,,,,,,,,,,,,,,,,,,,,,,,,,,,,,,,,,,,,,,
,,614a4c9d8172751921452626,2023-12-06_21h31.22.155,kallum_motion_pilot,2023.2.3,Win32,8.571257146,614a4c9d8172751921452626,6560176e4d91f764e2a42c74,657158800a4f152cb553a97a,0.0458,0.0459,1,41,203,144,1,fivesix,,,,,,,,,,,,,,,,,,,,,,,,,,,,,,,,,,,,,,,,,,,,,,,,,,,,,,,,,,,,,,,,,,,,,,,,,,,,,,,,,,,,,,,,,,,,,,,,,,,,,,,,,,,,,,,,,,,,,,,,,,,,,,,,,,,,,,,
,,614a4c9d8172751921452626,2023-12-06_21h31.22.155,kallum_motion_pilot,2023.2.3,Win32,8.571257146,614a4c9d8172751921452626,6560176e4d91f764e2a42c74,657158800a4f152cb553a97a,0.0459,0.0459,1,42,204,152,1,fivesix,,,,,,,,,,,,,,,,,,,,,,,,,,,,,,,,,,,,,,,,,,,,,,,,,,,,,,,,,,,,,,,,,,,,,,,,,,,,,,,,,,,,,,,,,,,,,,,,,,,,,,,,,,,,,,,,,,,,,,,,,,,,,,,,,,,,,,,
,,614a4c9d8172751921452626,2023-12-06_21h31.22.155,kallum_motion_pilot,2023.2.3,Win32,8.571257146,614a4c9d8172751921452626,6560176e4d91f764e2a42c74,657158800a4f152cb553a97a,0.0461,0.0461,1,43,205,53,1,threefour,,,,,,,,,,,,,,,,,,,,,,,,,,,,,,,,,,,,,,,,,,,,,,,,,,,,,,,,,,,,,,,,,,,,,,,,,,,,,,,,,,,,,,,,,,,,,,,,,,,,,,,,,,,,,,,,,,,,,,,,,,,,,,,,,,,,,,,
,,614a4c9d8172751921452626,2023-12-06_21h31.22.155,kallum_motion_pilot,2023.2.3,Win32,8.571257146,614a4c9d8172751921452626,6560176e4d91f764e2a42c74,657158800a4f152cb553a97a,0.0461,0.0462,1,44,206,111,1,eightseven,,,,,,,,,,,,,,,,,,,,,,,,,,,,,,,,,,,,,,,,,,,,,,,,,,,,,,,,,,,,,,,,,,,,,,,,,,,,,,,,,,,,,,,,,,,,,,,,,,,,,,,,,,,,,,,,,,,,,,,,,,,,,,,,,,,,,,,
,,614a4c9d8172751921452626,2023-12-06_21h31.22.155,kallum_motion_pilot,2023.2.3,Win32,8.571257146,614a4c9d8172751921452626,6560176e4d91f764e2a42c74,657158800a4f152cb553a97a,0.0463,0.0463,1,45,207,124,1,sevenfive,,,,,,,,,,,,,,,,,,,,,,,,,,,,,,,,,,,,,,,,,,,,,,,,,,,,,,,,,,,,,,,,,,,,,,,,,,,,,,,,,,,,,,,,,,,,,,,,,,,,,,,,,,,,,,,,,,,,,,,,,,,,,,,,,,,,,,,
,,614a4c9d8172751921452626,2023-12-06_21h31.22.155,kallum_motion_pilot,2023.2.3,Win32,8.571257146,614a4c9d8172751921452626,6560176e4d91f764e2a42c74,657158800a4f152cb553a97a,0.0464,0.0464,1,46,208,125,1,seveneight,,,,,,,,,,,,,,,,,,,,,,,,,,,,,,,,,,,,,,,,,,,,,,,,,,,,,,,,,,,,,,,,,,,,,,,,,,,,,,,,,,,,,,,,,,,,,,,,,,,,,,,,,,,,,,,,,,,,,,,,,,,,,,,,,,,,,,,
,,614a4c9d8172751921452626,2023-12-06_21h31.22.155,kallum_motion_pilot,2023.2.3,Win32,8.571257146,614a4c9d8172751921452626,6560176e4d91f764e2a42c74,657158800a4f152cb553a97a,0.0465,0.0466,1,47,209,87,1,eightseven,,,,,,,,,,,,,,,,,,,,,,,,,,,,,,,,,,,,,,,,,,,,,,,,,,,,,,,,,,,,,,,,,,,,,,,,,,,,,,,,,,,,,,,,,,,,,,,,,,,,,,,,,,,,,,,,,,,,,,,,,,,,,,,,,,,,,,,
,,614a4c9d8172751921452626,2023-12-06_21h31.22.155,kallum_motion_pilot,2023.2.3,Win32,8.571257146,614a4c9d8172751921452626,6560176e4d91f764e2a42c74,657158800a4f152cb553a97a,0.0466,0.0466,1,48,210,46,1,fourtwo,,,,,,,,,,,,,,,,,,,,,,,,,,,,,,,,,,,,,,,,,,,,,,,,,,,,,,,,,,,,,,,,,,,,,,,,,,,,,,,,,,,,,,,,,,,,,,,,,,,,,,,,,,,,,,,,,,,,,,,,,,,,,,,,,,,,,,,
,,614a4c9d8172751921452626,2023-12-06_21h31.22.155,kallum_motion_pilot,2023.2.3,Win32,8.571257146,614a4c9d8172751921452626,6560176e4d91f764e2a42c74,657158800a4f152cb553a97a,0.0467,0.0467,1,49,211,73,1,onethree,,,,,,,,,,,,,,,,,,,,,,,,,,,,,,,,,,,,,,,,,,,,,,,,,,,,,,,,,,,,,,,,,,,,,,,,,,,,,,,,,,,,,,,,,,,,,,,,,,,,,,,,,,,,,,,,,,,,,,,,,,,,,,,,,,,,,,,
,,614a4c9d8172751921452626,2023-12-06_21h31.22.155,kallum_motion_pilot,2023.2.3,Win32,8.571257146,614a4c9d8172751921452626,6560176e4d91f764e2a42c74,657158800a4f152cb553a97a,0.0469,0.0469,1,50,212,70,1,fourtwo,,,,,,,,,,,,,,,,,,,,,,,,,,,,,,,,,,,,,,,,,,,,,,,,,,,,,,,,,,,,,,,,,,,,,,,,,,,,,,,,,,,,,,,,,,,,,,,,,,,,,,,,,,,,,,,,,,,,,,,,,,,,,,,,,,,,,,,
,,614a4c9d8172751921452626,2023-12-06_21h31.22.155,kallum_motion_pilot,2023.2.3,Win32,8.571257146,614a4c9d8172751921452626,6560176e4d91f764e2a42c74,657158800a4f152cb553a97a,0.047,0.047,1,51,213,147,1,sixeight,,,,,,,,,,,,,,,,,,,,,,,,,,,,,,,,,,,,,,,,,,,,,,,,,,,,,,,,,,,,,,,,,,,,,,,,,,,,,,,,,,,,,,,,,,,,,,,,,,,,,,,,,,,,,,,,,,,,,,,,,,,,,,,,,,,,,,,
,,614a4c9d8172751921452626,2023-12-06_21h31.22.155,kallum_motion_pilot,2023.2.3,Win32,8.571257146,614a4c9d8172751921452626,6560176e4d91f764e2a42c74,657158800a4f152cb553a97a,0.0471,0.0471,1,52,214,36,1,threeone,,,,,,,,,,,,,,,,,,,,,,,,,,,,,,,,,,,,,,,,,,,,,,,,,,,,,,,,,,,,,,,,,,,,,,,,,,,,,,,,,,,,,,,,,,,,,,,,,,,,,,,,,,,,,,,,,,,,,,,,,,,,,,,,,,,,,,,
,,614a4c9d8172751921452626,2023-12-06_21h31.22.155,kallum_motion_pilot,2023.2.3,Win32,8.571257146,614a4c9d8172751921452626,6560176e4d91f764e2a42c74,657158800a4f152cb553a97a,0.0472,0.0473,1,53,215,40,1,onetwo,,,,,,,,,,,,,,,,,,,,,,,,,,,,,,,,,,,,,,,,,,,,,,,,,,,,,,,,,,,,,,,,,,,,,,,,,,,,,,,,,,,,,,,,,,,,,,,,,,,,,,,,,,,,,,,,,,,,,,,,,,,,,,,,,,,,,,,
,,614a4c9d8172751921452626,2023-12-06_21h31.22.155,kallum_motion_pilot,2023.2.3,Win32,8.571257146,614a4c9d8172751921452626,6560176e4d91f764e2a42c74,657158800a4f152cb553a97a,0.0473,0.0473,1,54,216,90,1,sixfive,,,,,,,,,,,,,,,,,,,,,,,,,,,,,,,,,,,,,,,,,,,,,,,,,,,,,,,,,,,,,,,,,,,,,,,,,,,,,,,,,,,,,,,,,,,,,,,,,,,,,,,,,,,,,,,,,,,,,,,,,,,,,,,,,,,,,,,
,,614a4c9d8172751921452626,2023-12-06_21h31.22.155,kallum_motion_pilot,2023.2.3,Win32,8.571257146,614a4c9d8172751921452626,6560176e4d91f764e2a42c74,657158800a4f152cb553a97a,0.0475,0.0475,1,55,217,149,1,seveneight,,,,,,,,,,,,,,,,,,,,,,,,,,,,,,,,,,,,,,,,,,,,,,,,,,,,,,,,,,,,,,,,,,,,,,,,,,,,,,,,,,,,,,,,,,,,,,,,,,,,,,,,,,,,,,,,,,,,,,,,,,,,,,,,,,,,,,,
,,614a4c9d8172751921452626,2023-12-06_21h31.22.155,kallum_motion_pilot,2023.2.3,Win32,8.571257146,614a4c9d8172751921452626,6560176e4d91f764e2a42c74,657158800a4f152cb553a97a,0.0475,0.0476,1,56,218,65,1,onethree,,,,,,,,,,,,,,,,,,,,,,,,,,,,,,,,,,,,,,,,,,,,,,,,,,,,,,,,,,,,,,,,,,,,,,,,,,,,,,,,,,,,,,,,,,,,,,,,,,,,,,,,,,,,,,,,,,,,,,,,,,,,,,,,,,,,,,,
,,614a4c9d8172751921452626,2023-12-06_21h31.22.155,kallum_motion_pilot,2023.2.3,Win32,8.571257146,614a4c9d8172751921452626,6560176e4d91f764e2a42c74,657158800a4f152cb553a97a,0.0476,0.0477,1,57,219,57,1,onethree,,,,,,,,,,,,,,,,,,,,,,,,,,,,,,,,,,,,,,,,,,,,,,,,,,,,,,,,,,,,,,,,,,,,,,,,,,,,,,,,,,,,,,,,,,,,,,,,,,,,,,,,,,,,,,,,,,,,,,,,,,,,,,,,,,,,,,,
,,614a4c9d8172751921452626,2023-12-06_21h31.22.155,kallum_motion_pilot,2023.2.3,Win32,8.571257146,614a4c9d8172751921452626,6560176e4d91f764e2a42c74,657158800a4f152cb553a97a,0.0478,0.0479,1,58,220,20,1,threeone,,,,,,,,,,,,,,,,,,,,,,,,,,,,,,,,,,,,,,,,,,,,,,,,,,,,,,,,,,,,,,,,,,,,,,,,,,,,,,,,,,,,,,,,,,,,,,,,,,,,,,,,,,,,,,,,,,,,,,,,,,,,,,,,,,,,,,,
,,614a4c9d8172751921452626,2023-12-06_21h31.22.155,kallum_motion_pilot,2023.2.3,Win32,8.571257146,614a4c9d8172751921452626,6560176e4d91f764e2a42c74,657158800a4f152cb553a97a,0.0479,0.048,1,59,221,86,1,eightsix,,,,,,,,,,,,,,,,,,,,,,,,,,,,,,,,,,,,,,,,,,,,,,,,,,,,,,,,,,,,,,,,,,,,,,,,,,,,,,,,,,,,,,,,,,,,,,,,,,,,,,,,,,,,,,,,,,,,,,,,,,,,,,,,,,,,,,,
,,614a4c9d8172751921452626,2023-12-06_21h31.22.155,kallum_motion_pilot,2023.2.3,Win32,8.571257146,614a4c9d8172751921452626,6560176e4d91f764e2a42c74,657158800a4f152cb553a97a,0.048,0.0481,1,60,222,31,1,fourthree,,,,,,,,,,,,,,,,,,,,,,,,,,,,,,,,,,,,,,,,,,,,,,,,,,,,,,,,,,,,,,,,,,,,,,,,,,,,,,,,,,,,,,,,,,,,,,,,,,,,,,,,,,,,,,,,,,,,,,,,,,,,,,,,,,,,,,,
,,614a4c9d8172751921452626,2023-12-06_21h31.22.155,kallum_motion_pilot,2023.2.3,Win32,8.571257146,614a4c9d8172751921452626,6560176e4d91f764e2a42c74,657158800a4f152cb553a97a,0.0482,0.0483,1,61,223,155,1,sixeight,,,,,,,,,,,,,,,,,,,,,,,,,,,,,,,,,,,,,,,,,,,,,,,,,,,,,,,,,,,,,,,,,,,,,,,,,,,,,,,,,,,,,,,,,,,,,,,,,,,,,,,,,,,,,,,,,,,,,,,,,,,,,,,,,,,,,,,
,,614a4c9d8172751921452626,2023-12-06_21h31.22.155,kallum_motion_pilot,2023.2.3,Win32,8.571257146,614a4c9d8172751921452626,6560176e4d91f764e2a42c74,657158800a4f152cb553a97a,0.0484,0.0484,1,62,224,29,1,threefour,,,,,,,,,,,,,,,,,,,,,,,,,,,,,,,,,,,,,,,,,,,,,,,,,,,,,,,,,,,,,,,,,,,,,,,,,,,,,,,,,,,,,,,,,,,,,,,,,,,,,,,,,,,,,,,,,,,,,,,,,,,,,,,,,,,,,,,
,,614a4c9d8172751921452626,2023-12-06_21h31.22.155,kallum_motion_pilot,2023.2.3,Win32,8.571257146,614a4c9d8172751921452626,6560176e4d91f764e2a42c74,657158800a4f152cb553a97a,0.0485,0.0485,1,63,225,8,1,onetwo,,,,,,,,,,,,,,,,,,,,,,,,,,,,,,,,,,,,,,,,,,,,,,,,,,,,,,,,,,,,,,,,,,,,,,,,,,,,,,,,,,,,,,,,,,,,,,,,,,,,,,,,,,,,,,,,,,,,,,,,,,,,,,,,,,,,,,,
,,614a4c9d8172751921452626,2023-12-06_21h31.22.155,kallum_motion_pilot,2023.2.3,Win32,8.571257146,614a4c9d8172751921452626,6560176e4d91f764e2a42c74,657158800a4f152cb553a97a,0.0487,0.0487,1,64,226,126,1,eightsix,,,,,,,,,,,,,,,,,,,,,,,,,,,,,,,,,,,,,,,,,,,,,,,,,,,,,,,,,,,,,,,,,,,,,,,,,,,,,,,,,,,,,,,,,,,,,,,,,,,,,,,,,,,,,,,,,,,,,,,,,,,,,,,,,,,,,,,
,,614a4c9d8172751921452626,2023-12-06_21h31.22.155,kallum_motion_pilot,2023.2.3,Win32,8.571257146,614a4c9d8172751921452626,6560176e4d91f764e2a42c74,657158800a4f152cb553a97a,0.0488,0.0488,1,65,227,105,1,fiveseven,,,,,,,,,,,,,,,,,,,,,,,,,,,,,,,,,,,,,,,,,,,,,,,,,,,,,,,,,,,,,,,,,,,,,,,,,,,,,,,,,,,,,,,,,,,,,,,,,,,,,,,,,,,,,,,,,,,,,,,,,,,,,,,,,,,,,,,
,,614a4c9d8172751921452626,2023-12-06_21h31.22.155,kallum_motion_pilot,2023.2.3,Win32,8.571257146,614a4c9d8172751921452626,6560176e4d91f764e2a42c74,657158800a4f152cb553a97a,0.0489,0.049,1,66,228,141,1,seveneight,,,,,,,,,,,,,,,,,,,,,,,,,,,,,,,,,,,,,,,,,,,,,,,,,,,,,,,,,,,,,,,,,,,,,,,,,,,,,,,,,,,,,,,,,,,,,,,,,,,,,,,,,,,,,,,,,,,,,,,,,,,,,,,,,,,,,,,
,,614a4c9d8172751921452626,2023-12-06_21h31.22.155,kallum_motion_pilot,2023.2.3,Win32,8.571257146,614a4c9d8172751921452626,6560176e4d91f764e2a42c74,657158800a4f152cb553a97a,0.0491,0.0491,1,67,229,157,1,seveneight,,,,,,,,,,,,,,,,,,,,,,,,,,,,,,,,,,,,,,,,,,,,,,,,,,,,,,,,,,,,,,,,,,,,,,,,,,,,,,,,,,,,,,,,,,,,,,,,,,,,,,,,,,,,,,,,,,,,,,,,,,,,,,,,,,,,,,,
,,614a4c9d8172751921452626,2023-12-06_21h31.22.155,kallum_motion_pilot,2023.2.3,Win32,8.571257146,614a4c9d8172751921452626,6560176e4d91f764e2a42c74,657158800a4f152cb553a97a,0.0492,0.0493,1,68,230,103,1,eightseven,,,,,,,,,,,,,,,,,,,,,,,,,,,,,,,,,,,,,,,,,,,,,,,,,,,,,,,,,,,,,,,,,,,,,,,,,,,,,,,,,,,,,,,,,,,,,,,,,,,,,,,,,,,,,,,,,,,,,,,,,,,,,,,,,,,,,,,
,,614a4c9d8172751921452626,2023-12-06_21h31.22.155,kallum_motion_pilot,2023.2.3,Win32,8.571257146,614a4c9d8172751921452626,6560176e4d91f764e2a42c74,657158800a4f152cb553a97a,0.0494,0.0494,1,69,231,77,1,threefour,,,,,,,,,,,,,,,,,,,,,,,,,,,,,,,,,,,,,,,,,,,,,,,,,,,,,,,,,,,,,,,,,,,,,,,,,,,,,,,,,,,,,,,,,,,,,,,,,,,,,,,,,,,,,,,,,,,,,,,,,,,,,,,,,,,,,,,
,,614a4c9d8172751921452626,2023-12-06_21h31.22.155,kallum_motion_pilot,2023.2.3,Win32,8.571257146,614a4c9d8172751921452626,6560176e4d91f764e2a42c74,657158800a4f152cb553a97a,0.0495,0.0495,1,70,232,4,1,threeone,,,,,,,,,,,,,,,,,,,,,,,,,,,,,,,,,,,,,,,,,,,,,,,,,,,,,,,,,,,,,,,,,,,,,,,,,,,,,,,,,,,,,,,,,,,,,,,,,,,,,,,,,,,,,,,,,,,,,,,,,,,,,,,,,,,,,,,
,,614a4c9d8172751921452626,2023-12-06_21h31.22.155,kallum_motion_pilot,2023.2.3,Win32,8.571257146,614a4c9d8172751921452626,6560176e4d91f764e2a42c74,657158800a4f152cb553a97a,0.0496,0.0496,1,71,233,151,1,eightseven,,,,,,,,,,,,,,,,,,,,,,,,,,,,,,,,,,,,,,,,,,,,,,,,,,,,,,,,,,,,,,,,,,,,,,,,,,,,,,,,,,,,,,,,,,,,,,,,,,,,,,,,,,,,,,,,,,,,,,,,,,,,,,,,,,,,,,,
,,614a4c9d8172751921452626,2023-12-06_21h31.22.155,kallum_motion_pilot,2023.2.3,Win32,8.571257146,614a4c9d8172751921452626,6560176e4d91f764e2a42c74,657158800a4f152cb553a97a,0.0497,0.0497,1,72,234,32,1,onetwo,,,,,,,,,,,,,,,,,,,,,,,,,,,,,,,,,,,,,,,,,,,,,,,,,,,,,,,,,,,,,,,,,,,,,,,,,,,,,,,,,,,,,,,,,,,,,,,,,,,,,,,,,,,,,,,,,,,,,,,,,,,,,,,,,,,,,,,
,,614a4c9d8172751921452626,2023-12-06_21h31.22.155,kallum_motion_pilot,2023.2.3,Win32,8.571257146,614a4c9d8172751921452626,6560176e4d91f764e2a42c74,657158800a4f152cb553a97a,0.0498,0.0499,1,73,235,112,1,fivesix,,,,,,,,,,,,,,,,,,,,,,,,,,,,,,,,,,,,,,,,,,,,,,,,,,,,,,,,,,,,,,,,,,,,,,,,,,,,,,,,,,,,,,,,,,,,,,,,,,,,,,,,,,,,,,,,,,,,,,,,,,,,,,,,,,,,,,,
,,614a4c9d8172751921452626,2023-12-06_21h31.22.155,kallum_motion_pilot,2023.2.3,Win32,8.571257146,614a4c9d8172751921452626,6560176e4d91f764e2a42c74,657158800a4f152cb553a97a,0.0499,0.05,1,74,236,60,1,threeone,,,,,,,,,,,,,,,,,,,,,,,,,,,,,,,,,,,,,,,,,,,,,,,,,,,,,,,,,,,,,,,,,,,,,,,,,,,,,,,,,,,,,,,,,,,,,,,,,,,,,,,,,,,,,,,,,,,,,,,,,,,,,,,,,,,,,,,
,,614a4c9d8172751921452626,2023-12-06_21h31.22.155,kallum_motion_pilot,2023.2.3,Win32,8.571257146,614a4c9d8172751921452626,6560176e4d91f764e2a42c74,657158800a4f152cb553a97a,0.0501,0.0502,1,75,237,59,1,twofour,,,,,,,,,,,,,,,,,,,,,,,,,,,,,,,,,,,,,,,,,,,,,,,,,,,,,,,,,,,,,,,,,,,,,,,,,,,,,,,,,,,,,,,,,,,,,,,,,,,,,,,,,,,,,,,,,,,,,,,,,,,,,,,,,,,,,,,
,,614a4c9d8172751921452626,2023-12-06_21h31.22.155,kallum_motion_pilot,2023.2.3,Win32,8.571257146,614a4c9d8172751921452626,6560176e4d91f764e2a42c74,657158800a4f152cb553a97a,0.0503,0.0504,1,76,238,138,1,sixfive,,,,,,,,,,,,,,,,,,,,,,,,,,,,,,,,,,,,,,,,,,,,,,,,,,,,,,,,,,,,,,,,,,,,,,,,,,,,,,,,,,,,,,,,,,,,,,,,,,,,,,,,,,,,,,,,,,,,,,,,,,,,,,,,,,,,,,,
,,614a4c9d8172751921452626,2023-12-06_21h31.22.155,kallum_motion_pilot,2023.2.3,Win32,8.571257146,614a4c9d8172751921452626,6560176e4d91f764e2a42c74,657158800a4f152cb553a97a,0.0505,0.0507,1,77,239,16,1,onetwo,,,,,,,,,,,,,,,,,,,,,,,,,,,,,,,,,,,,,,,,,,,,,,,,,,,,,,,,,,,,,,,,,,,,,,,,,,,,,,,,,,,,,,,,,,,,,,,,,,,,,,,,,,,,,,,,,,,,,,,,,,,,,,,,,,,,,,,
,,614a4c9d8172751921452626,2023-12-06_21h31.22.155,kallum_motion_pilot,2023.2.3,Win32,8.571257146,614a4c9d8172751921452626,6560176e4d91f764e2a42c74,657158800a4f152cb553a97a,0.0507,0.0508,1,78,240,39,1,fourthree,,,,,,,,,,,,,,,,,,,,,,,,,,,,,,,,,,,,,,,,,,,,,,,,,,,,,,,,,,,,,,,,,,,,,,,,,,,,,,,,,,,,,,,,,,,,,,,,,,,,,,,,,,,,,,,,,,,,,,,,,,,,,,,,,,,,,,,
,,614a4c9d8172751921452626,2023-12-06_21h31.22.155,kallum_motion_pilot,2023.2.3,Win32,8.571257146,614a4c9d8172751921452626,6560176e4d91f764e2a42c74,657158800a4f152cb553a97a,0.0508,0.0509,1,79,241,49,1,onethree,,,,,,,,,,,,,,,,,,,,,,,,,,,,,,,,,,,,,,,,,,,,,,,,,,,,,,,,,,,,,,,,,,,,,,,,,,,,,,,,,,,,,,,,,,,,,,,,,,,,,,,,,,,,,,,,,,,,,,,,,,,,,,,,,,,,,,,
,,614a4c9d8172751921452626,2023-12-06_21h31.22.155,kallum_motion_pilot,2023.2.3,Win32,8.571257146,614a4c9d8172751921452626,6560176e4d91f764e2a42c74,657158800a4f152cb553a97a,0.051,0.051,1,80,242,41,1,onethree,,,,,,,,,,,,,,,,,,,,,,,,,,,,,,,,,,,,,,,,,,,,,,,,,,,,,,,,,,,,,,,,,,,,,,,,,,,,,,,,,,,,,,,,,,,,,,,,,,,,,,,,,,,,,,,,,,,,,,,,,,,,,,,,,,,,,,,
,,614a4c9d8172751921452626,2023-12-06_21h31.22.155,kallum_motion_pilot,2023.2.3,Win32,8.571257146,614a4c9d8172751921452626,6560176e4d91f764e2a42c74,657158800a4f152cb553a97a,0.0511,0.0511,1,81,243,99,1,sixeight,,,,,,,,,,,,,,,,,,,,,,,,,,,,,,,,,,,,,,,,,,,,,,,,,,,,,,,,,,,,,,,,,,,,,,,,,,,,,,,,,,,,,,,,,,,,,,,,,,,,,,,,,,,,,,,,,,,,,,,,,,,,,,,,,,,,,,,
,,614a4c9d8172751921452626,2023-12-06_21h31.22.155,kallum_motion_pilot,2023.2.3,Win32,8.571257146,614a4c9d8172751921452626,6560176e4d91f764e2a42c74,657158800a4f152cb553a97a,0.0512,0.0513,1,82,244,89,1,fiveseven,,,,,,,,,,,,,,,,,,,,,,,,,,,,,,,,,,,,,,,,,,,,,,,,,,,,,,,,,,,,,,,,,,,,,,,,,,,,,,,,,,,,,,,,,,,,,,,,,,,,,,,,,,,,,,,,,,,,,,,,,,,,,,,,,,,,,,,
,,614a4c9d8172751921452626,2023-12-06_21h31.22.155,kallum_motion_pilot,2023.2.3,Win32,8.571257146,614a4c9d8172751921452626,6560176e4d91f764e2a42c74,657158800a4f152cb553a97a,0.0514,0.0515,1,83,245,55,1,fourthree,,,,,,,,,,,,,,,,,,,,,,,,,,,,,,,,,,,,,,,,,,,,,,,,,,,,,,,,,,,,,,,,,,,,,,,,,,,,,,,,,,,,,,,,,,,,,,,,,,,,,,,,,,,,,,,,,,,,,,,,,,,,,,,,,,,,,,,
,,614a4c9d8172751921452626,2023-12-06_21h31.22.155,kallum_motion_pilot,2023.2.3,Win32,8.571257146,614a4c9d8172751921452626,6560176e4d91f764e2a42c74,657158800a4f152cb553a97a,0.0515,0.0516,1,84,246,154,1,sixfive,,,,,,,,,,,,,,,,,,,,,,,,,,,,,,,,,,,,,,,,,,,,,,,,,,,,,,,,,,,,,,,,,,,,,,,,,,,,,,,,,,,,,,,,,,,,,,,,,,,,,,,,,,,,,,,,,,,,,,,,,,,,,,,,,,,,,,,
,,614a4c9d8172751921452626,2023-12-06_21h31.22.155,kallum_motion_pilot,2023.2.3,Win32,8.571257146,614a4c9d8172751921452626,6560176e4d91f764e2a42c74,657158800a4f152cb553a97a,0.0516,0.0517,1,85,247,110,1,eightsix,,,,,,,,,,,,,,,,,,,,,,,,,,,,,,,,,,,,,,,,,,,,,,,,,,,,,,,,,,,,,,,,,,,,,,,,,,,,,,,,,,,,,,,,,,,,,,,,,,,,,,,,,,,,,,,,,,,,,,,,,,,,,,,,,,,,,,,
,,614a4c9d8172751921452626,2023-12-06_21h31.22.155,kallum_motion_pilot,2023.2.3,Win32,8.571257146,614a4c9d8172751921452626,6560176e4d91f764e2a42c74,657158800a4f152cb553a97a,0.0518,0.0518,1,86,248,107,1,sixeight,,,,,,,,,,,,,,,,,,,,,,,,,,,,,,,,,,,,,,,,,,,,,,,,,,,,,,,,,,,,,,,,,,,,,,,,,,,,,,,,,,,,,,,,,,,,,,,,,,,,,,,,,,,,,,,,,,,,,,,,,,,,,,,,,,,,,,,
,,614a4c9d8172751921452626,2023-12-06_21h31.22.155,kallum_motion_pilot,2023.2.3,Win32,8.571257146,614a4c9d8172751921452626,6560176e4d91f764e2a42c74,657158800a4f152cb553a97a,0.0519,0.052,1,87,249,22,1,fourtwo,,,,,,,,,,,,,,,,,,,,,,,,,,,,,,,,,,,,,,,,,,,,,,,,,,,,,,,,,,,,,,,,,,,,,,,,,,,,,,,,,,,,,,,,,,,,,,,,,,,,,,,,,,,,,,,,,,,,,,,,,,,,,,,,,,,,,,,
,,614a4c9d8172751921452626,2023-12-06_21h31.22.155,kallum_motion_pilot,2023.2.3,Win32,8.571257146,614a4c9d8172751921452626,6560176e4d91f764e2a42c74,657158800a4f152cb553a97a,0.052,0.0521,1,88,250,7,1,fourthree,,,,,,,,,,,,,,,,,,,,,,,,,,,,,,,,,,,,,,,,,,,,,,,,,,,,,,,,,,,,,,,,,,,,,,,,,,,,,,,,,,,,,,,,,,,,,,,,,,,,,,,,,,,,,,,,,,,,,,,,,,,,,,,,,,,,,,,
,,614a4c9d8172751921452626,2023-12-06_21h31.22.155,kallum_motion_pilot,2023.2.3,Win32,8.571257146,614a4c9d8172751921452626,6560176e4d91f764e2a42c74,657158800a4f152cb553a97a,0.0521,0.0523,1,89,251,95,1,eightseven,,,,,,,,,,,,,,,,,,,,,,,,,,,,,,,,,,,,,,,,,,,,,,,,,,,,,,,,,,,,,,,,,,,,,,,,,,,,,,,,,,,,,,,,,,,,,,,,,,,,,,,,,,,,,,,,,,,,,,,,,,,,,,,,,,,,,,,
,,614a4c9d8172751921452626,2023-12-06_21h31.22.155,kallum_motion_pilot,2023.2.3,Win32,8.571257146,614a4c9d8172751921452626,6560176e4d91f764e2a42c74,657158800a4f152cb553a97a,0.0523,0.0525,1,90,252,10,1,twoone,,,,,,,,,,,,,,,,,,,,,,,,,,,,,,,,,,,,,,,,,,,,,,,,,,,,,,,,,,,,,,,,,,,,,,,,,,,,,,,,,,,,,,,,,,,,,,,,,,,,,,,,,,,,,,,,,,,,,,,,,,,,,,,,,,,,,,,
,,614a4c9d8172751921452626,2023-12-06_21h31.22.155,kallum_motion_pilot,2023.2.3,Win32,8.571257146,614a4c9d8172751921452626,6560176e4d91f764e2a42c74,657158800a4f152cb553a97a,0.0528,0.0529,1,91,253,156,1,sevenfive,,,,,,,,,,,,,,,,,,,,,,,,,,,,,,,,,,,,,,,,,,,,,,,,,,,,,,,,,,,,,,,,,,,,,,,,,,,,,,,,,,,,,,,,,,,,,,,,,,,,,,,,,,,,,,,,,,,,,,,,,,,,,,,,,,,,,,,
,,614a4c9d8172751921452626,2023-12-06_21h31.22.155,kallum_motion_pilot,2023.2.3,Win32,8.571257146,614a4c9d8172751921452626,6560176e4d91f764e2a42c74,657158800a4f152cb553a97a,0.053,0.0531,1,92,254,21,1,threefour,,,,,,,,,,,,,,,,,,,,,,,,,,,,,,,,,,,,,,,,,,,,,,,,,,,,,,,,,,,,,,,,,,,,,,,,,,,,,,,,,,,,,,,,,,,,,,,,,,,,,,,,,,,,,,,,,,,,,,,,,,,,,,,,,,,,,,,
,,614a4c9d8172751921452626,2023-12-06_21h31.22.155,kallum_motion_pilot,2023.2.3,Win32,8.571257146,614a4c9d8172751921452626,6560176e4d91f764e2a42c74,657158800a4f152cb553a97a,0.0534,0.0536,1,93,255,118,1,eightsix,,,,,,,,,,,,,,,,,,,,,,,,,,,,,,,,,,,,,,,,,,,,,,,,,,,,,,,,,,,,,,,,,,,,,,,,,,,,,,,,,,,,,,,,,,,,,,,,,,,,,,,,,,,,,,,,,,,,,,,,,,,,,,,,,,,,,,,
,,614a4c9d8172751921452626,2023-12-06_21h31.22.155,kallum_motion_pilot,2023.2.3,Win32,8.571257146,614a4c9d8172751921452626,6560176e4d91f764e2a42c74,657158800a4f152cb553a97a,0.0537,0.0537,1,94,256,88,1,fivesix,,,,,,,,,,,,,,,,,,,,,,,,,,,,,,,,,,,,,,,,,,,,,,,,,,,,,,,,,,,,,,,,,,,,,,,,,,,,,,,,,,,,,,,,,,,,,,,,,,,,,,,,,,,,,,,,,,,,,,,,,,,,,,,,,,,,,,,
,,614a4c9d8172751921452626,2023-12-06_21h31.22.155,kallum_motion_pilot,2023.2.3,Win32,8.571257146,614a4c9d8172751921452626,6560176e4d91f764e2a42c74,657158800a4f152cb553a97a,0.0539,0.054,1,95,257,61,1,threefour,,,,,,,,,,,,,,,,,,,,,,,,,,,,,,,,,,,,,,,,,,,,,,,,,,,,,,,,,,,,,,,,,,,,,,,,,,,,,,,,,,,,,,,,,,,,,,,,,,,,,,,,,,,,,,,,,,,,,,,,,,,,,,,,,,,,,,,
,,614a4c9d8172751921452626,2023-12-06_21h31.22.155,kallum_motion_pilot,2023.2.3,Win32,8.571257146,614a4c9d8172751921452626,6560176e4d91f764e2a42c74,657158800a4f152cb553a97a,0.054,0.0541,1,96,258,91,1,sixeight,,,,,,,,,,,,,,,,,,,,,,,,,,,,,,,,,,,,,,,,,,,,,,,,,,,,,,,,,,,,,,,,,,,,,,,,,,,,,,,,,,,,,,,,,,,,,,,,,,,,,,,,,,,,,,,,,,,,,,,,,,,,,,,,,,,,,,,
,,614a4c9d8172751921452626,2023-12-06_21h31.22.155,kallum_motion_pilot,2023.2.3,Win32,8.571257146,614a4c9d8172751921452626,6560176e4d91f764e2a42c74,657158800a4f152cb553a97a,0.0542,0.0543,1,97,259,123,1,sixeight,,,,,,,,,,,,,,,,,,,,,,,,,,,,,,,,,,,,,,,,,,,,,,,,,,,,,,,,,,,,,,,,,,,,,,,,,,,,,,,,,,,,,,,,,,,,,,,,,,,,,,,,,,,,,,,,,,,,,,,,,,,,,,,,,,,,,,,
,,614a4c9d8172751921452626,2023-12-06_21h31.22.155,kallum_motion_pilot,2023.2.3,Win32,8.571257146,614a4c9d8172751921452626,6560176e4d91f764e2a42c74,657158800a4f152cb553a97a,0.0543,0.0544,1,98,260,62,1,fourtwo,,,,,,,,,,,,,,,,,,,,,,,,,,,,,,,,,,,,,,,,,,,,,,,,,,,,,,,,,,,,,,,,,,,,,,,,,,,,,,,,,,,,,,,,,,,,,,,,,,,,,,,,,,,,,,,,,,,,,,,,,,,,,,,,,,,,,,,
,,614a4c9d8172751921452626,2023-12-06_21h31.22.155,kallum_motion_pilot,2023.2.3,Win32,8.571257146,614a4c9d8172751921452626,6560176e4d91f764e2a42c74,657158800a4f152cb553a97a,0.0545,0.0545,1,99,261,17,1,onethree,,,,,,,,,,,,,,,,,,,,,,,,,,,,,,,,,,,,,,,,,,,,,,,,,,,,,,,,,,,,,,,,,,,,,,,,,,,,,,,,,,,,,,,,,,,,,,,,,,,,,,,,,,,,,,,,,,,,,,,,,,,,,,,,,,,,,,,
,,614a4c9d8172751921452626,2023-12-06_21h31.22.155,kallum_motion_pilot,2023.2.3,Win32,8.571257146,614a4c9d8172751921452626,6560176e4d91f764e2a42c74,657158800a4f152cb553a97a,0.0546,0.0546,1,100,262,25,1,onethree,,,,,,,,,,,,,,,,,,,,,,,,,,,,,,,,,,,,,,,,,,,,,,,,,,,,,,,,,,,,,,,,,,,,,,,,,,,,,,,,,,,,,,,,,,,,,,,,,,,,,,,,,,,,,,,,,,,,,,,,,,,,,,,,,,,,,,,
,,614a4c9d8172751921452626,2023-12-06_21h31.22.155,kallum_motion_pilot,2023.2.3,Win32,8.571257146,614a4c9d8172751921452626,6560176e4d91f764e2a42c74,657158800a4f152cb553a97a,0.0547,0.0547,1,101,263,146,1,sixfive,,,,,,,,,,,,,,,,,,,,,,,,,,,,,,,,,,,,,,,,,,,,,,,,,,,,,,,,,,,,,,,,,,,,,,,,,,,,,,,,,,,,,,,,,,,,,,,,,,,,,,,,,,,,,,,,,,,,,,,,,,,,,,,,,,,,,,,
,,614a4c9d8172751921452626,2023-12-06_21h31.22.155,kallum_motion_pilot,2023.2.3,Win32,8.571257146,614a4c9d8172751921452626,6560176e4d91f764e2a42c74,657158800a4f152cb553a97a,0.0548,0.0549,1,102,264,33,1,onethree,,,,,,,,,,,,,,,,,,,,,,,,,,,,,,,,,,,,,,,,,,,,,,,,,,,,,,,,,,,,,,,,,,,,,,,,,,,,,,,,,,,,,,,,,,,,,,,,,,,,,,,,,,,,,,,,,,,,,,,,,,,,,,,,,,,,,,,
,,614a4c9d8172751921452626,2023-12-06_21h31.22.155,kallum_motion_pilot,2023.2.3,Win32,8.571257146,614a4c9d8172751921452626,6560176e4d91f764e2a42c74,657158800a4f152cb553a97a,0.055,0.055,1,103,265,28,1,threeone,,,,,,,,,,,,,,,,,,,,,,,,,,,,,,,,,,,,,,,,,,,,,,,,,,,,,,,,,,,,,,,,,,,,,,,,,,,,,,,,,,,,,,,,,,,,,,,,,,,,,,,,,,,,,,,,,,,,,,,,,,,,,,,,,,,,,,,
,,614a4c9d8172751921452626,2023-12-06_21h31.22.155,kallum_motion_pilot,2023.2.3,Win32,8.571257146,614a4c9d8172751921452626,6560176e4d91f764e2a42c74,657158800a4f152cb553a97a,0.0551,0.0552,1,104,266,160,1,fivesix,,,,,,,,,,,,,,,,,,,,,,,,,,,,,,,,,,,,,,,,,,,,,,,,,,,,,,,,,,,,,,,,,,,,,,,,,,,,,,,,,,,,,,,,,,,,,,,,,,,,,,,,,,,,,,,,,,,,,,,,,,,,,,,,,,,,,,,
,,614a4c9d8172751921452626,2023-12-06_21h31.22.155,kallum_motion_pilot,2023.2.3,Win32,8.571257146,614a4c9d8172751921452626,6560176e4d91f764e2a42c74,657158800a4f152cb553a97a,0.0553,0.0553,1,105,267,96,1,fivesix,,,,,,,,,,,,,,,,,,,,,,,,,,,,,,,,,,,,,,,,,,,,,,,,,,,,,,,,,,,,,,,,,,,,,,,,,,,,,,,,,,,,,,,,,,,,,,,,,,,,,,,,,,,,,,,,,,,,,,,,,,,,,,,,,,,,,,,
,,614a4c9d8172751921452626,2023-12-06_21h31.22.155,kallum_motion_pilot,2023.2.3,Win32,8.571257146,614a4c9d8172751921452626,6560176e4d91f764e2a42c74,657158800a4f152cb553a97a,0.0554,0.0554,1,106,268,66,1,twoone,,,,,,,,,,,,,,,,,,,,,,,,,,,,,,,,,,,,,,,,,,,,,,,,,,,,,,,,,,,,,,,,,,,,,,,,,,,,,,,,,,,,,,,,,,,,,,,,,,,,,,,,,,,,,,,,,,,,,,,,,,,,,,,,,,,,,,,
,,614a4c9d8172751921452626,2023-12-06_21h31.22.155,kallum_motion_pilot,2023.2.3,Win32,8.571257146,614a4c9d8172751921452626,6560176e4d91f764e2a42c74,657158800a4f152cb553a97a,0.0555,0.0555,1,107,269,101,1,seveneight,,,,,,,,,,,,,,,,,,,,,,,,,,,,,,,,,,,,,,,,,,,,,,,,,,,,,,,,,,,,,,,,,,,,,,,,,,,,,,,,,,,,,,,,,,,,,,,,,,,,,,,,,,,,,,,,,,,,,,,,,,,,,,,,,,,,,,,
,,614a4c9d8172751921452626,2023-12-06_21h31.22.155,kallum_motion_pilot,2023.2.3,Win32,8.571257146,614a4c9d8172751921452626,6560176e4d91f764e2a42c74,657158800a4f152cb553a97a,0.0556,0.0556,1,108,270,153,1,fiveseven,,,,,,,,,,,,,,,,,,,,,,,,,,,,,,,,,,,,,,,,,,,,,,,,,,,,,,,,,,,,,,,,,,,,,,,,,,,,,,,,,,,,,,,,,,,,,,,,,,,,,,,,,,,,,,,,,,,,,,,,,,,,,,,,,,,,,,,
,,614a4c9d8172751921452626,2023-12-06_21h31.22.155,kallum_motion_pilot,2023.2.3,Win32,8.571257146,614a4c9d8172751921452626,6560176e4d91f764e2a42c74,657158800a4f152cb553a97a,0.0557,0.0558,1,109,271,82,1,sixfive,,,,,,,,,,,,,,,,,,,,,,,,,,,,,,,,,,,,,,,,,,,,,,,,,,,,,,,,,,,,,,,,,,,,,,,,,,,,,,,,,,,,,,,,,,,,,,,,,,,,,,,,,,,,,,,,,,,,,,,,,,,,,,,,,,,,,,,
,,614a4c9d8172751921452626,2023-12-06_21h31.22.155,kallum_motion_pilot,2023.2.3,Win32,8.571257146,614a4c9d8172751921452626,6560176e4d91f764e2a42c74,657158800a4f152cb553a97a,0.0558,0.0559,1,110,272,72,1,onetwo,,,,,,,,,,,,,,,,,,,,,,,,,,,,,,,,,,,,,,,,,,,,,,,,,,,,,,,,,,,,,,,,,,,,,,,,,,,,,,,,,,,,,,,,,,,,,,,,,,,,,,,,,,,,,,,,,,,,,,,,,,,,,,,,,,,,,,,
,,614a4c9d8172751921452626,2023-12-06_21h31.22.155,kallum_motion_pilot,2023.2.3,Win32,8.571257146,614a4c9d8172751921452626,6560176e4d91f764e2a42c74,657158800a4f152cb553a97a,0.056,0.056,1,111,273,58,1,twoone,,,,,,,,,,,,,,,,,,,,,,,,,,,,,,,,,,,,,,,,,,,,,,,,,,,,,,,,,,,,,,,,,,,,,,,,,,,,,,,,,,,,,,,,,,,,,,,,,,,,,,,,,,,,,,,,,,,,,,,,,,,,,,,,,,,,,,,
,,614a4c9d8172751921452626,2023-12-06_21h31.22.155,kallum_motion_pilot,2023.2.3,Win32,8.571257146,614a4c9d8172751921452626,6560176e4d91f764e2a42c74,657158800a4f152cb553a97a,0.056,0.0561,1,112,274,42,1,twoone,,,,,,,,,,,,,,,,,,,,,,,,,,,,,,,,,,,,,,,,,,,,,,,,,,,,,,,,,,,,,,,,,,,,,,,,,,,,,,,,,,,,,,,,,,,,,,,,,,,,,,,,,,,,,,,,,,,,,,,,,,,,,,,,,,,,,,,
,,614a4c9d8172751921452626,2023-12-06_21h31.22.155,kallum_motion_pilot,2023.2.3,Win32,8.571257146,614a4c9d8172751921452626,6560176e4d91f764e2a42c74,657158800a4f152cb553a97a,0.0561,0.0562,1,113,275,3,1,twofour,,,,,,,,,,,,,,,,,,,,,,,,,,,,,,,,,,,,,,,,,,,,,,,,,,,,,,,,,,,,,,,,,,,,,,,,,,,,,,,,,,,,,,,,,,,,,,,,,,,,,,,,,,,,,,,,,,,,,,,,,,,,,,,,,,,,,,,
,,614a4c9d8172751921452626,2023-12-06_21h31.22.155,kallum_motion_pilot,2023.2.3,Win32,8.571257146,614a4c9d8172751921452626,6560176e4d91f764e2a42c74,657158800a4f152cb553a97a,0.0563,0.0564,1,114,276,45,1,threefour,,,,,,,,,,,,,,,,,,,,,,,,,,,,,,,,,,,,,,,,,,,,,,,,,,,,,,,,,,,,,,,,,,,,,,,,,,,,,,,,,,,,,,,,,,,,,,,,,,,,,,,,,,,,,,,,,,,,,,,,,,,,,,,,,,,,,,,
,,614a4c9d8172751921452626,2023-12-06_21h31.22.155,kallum_motion_pilot,2023.2.3,Win32,8.571257146,614a4c9d8172751921452626,6560176e4d91f764e2a42c74,657158800a4f152cb553a97a,0.0565,0.0565,1,115,277,27,1,twofour,,,,,,,,,,,,,,,,,,,,,,,,,,,,,,,,,,,,,,,,,,,,,,,,,,,,,,,,,,,,,,,,,,,,,,,,,,,,,,,,,,,,,,,,,,,,,,,,,,,,,,,,,,,,,,,,,,,,,,,,,,,,,,,,,,,,,,,
,,614a4c9d8172751921452626,2023-12-06_21h31.22.155,kallum_motion_pilot,2023.2.3,Win32,8.571257146,614a4c9d8172751921452626,6560176e4d91f764e2a42c74,657158800a4f152cb553a97a,0.0565,0.0566,1,116,278,158,1,eightsix,,,,,,,,,,,,,,,,,,,,,,,,,,,,,,,,,,,,,,,,,,,,,,,,,,,,,,,,,,,,,,,,,,,,,,,,,,,,,,,,,,,,,,,,,,,,,,,,,,,,,,,,,,,,,,,,,,,,,,,,,,,,,,,,,,,,,,,
,,614a4c9d8172751921452626,2023-12-06_21h31.22.155,kallum_motion_pilot,2023.2.3,Win32,8.571257146,614a4c9d8172751921452626,6560176e4d91f764e2a42c74,657158800a4f152cb553a97a,0.0567,0.0568,1,117,279,71,1,fourthree,,,,,,,,,,,,,,,,,,,,,,,,,,,,,,,,,,,,,,,,,,,,,,,,,,,,,,,,,,,,,,,,,,,,,,,,,,,,,,,,,,,,,,,,,,,,,,,,,,,,,,,,,,,,,,,,,,,,,,,,,,,,,,,,,,,,,,,
