startup.started,startup.stopped,Prolific ID*,date,expName,psychopyVersion,OS,frameRate,participant,study_id,session,stimpositions.started,stimpositions.stopped,hardcoded_stimulus_positions.thisRepN,hardcoded_stimulus_positions.thisTrialN,hardcoded_stimulus_positions.thisN,hardcoded_stimulus_positions.thisIndex,hardcoded_stimulus_positions.ran,StimulusPos,stimorientation.started,stimorientation.stopped,prac_stimorientation_import_loop.thisRepN,prac_stimorientation_import_loop.thisTrialN,prac_stimorientation_import_loop.thisN,prac_stimorientation_import_loop.thisIndex,prac_stimorientation_import_loop.ran,Stimorientation,welcome_instr.started,welcome_instr.stopped,key_resp.keys,key_resp.rt,key_resp.duration,response_steppedout_1.started,response_steppedout_1.stopped,key_resp_20.keys,key_resp_20.rt,key_resp_20.duration,response_steppedout_2.started,response_steppedout_2.stopped,key_resp_19.keys,key_resp_19.rt,key_resp_19.duration,stim_response_instr.started,stim_response_instr.stopped,key_resp_15.keys,key_resp_15.rt,key_resp_15.duration,direction_instr_2.started,direction_instr_2.stopped,key_resp_9.keys,key_resp_9.rt,key_resp_9.duration,instr_prac.started,instr_prac.stopped,key_resp_10.keys,key_resp_10.rt,key_resp_10.duration,Stim1_display_prac.started,Stim1_display_prac.stopped,Ecc,Circle1_ori,Circle2_ori,response_prac.started,similarity,response_time,response_prac.stopped,mouse_5.x,mouse_5.y,mouse_5.leftButton,mouse_5.midButton,mouse_5.rightButton,mouse_5.clicked_name,responseprac_feedback.started,responseprac_feedback.stopped,summary2_prac.started,summary2_prac.stopped,mouse_6.x,mouse_6.y,mouse_6.leftButton,mouse_6.midButton,mouse_6.rightButton,mouse_6.clicked_name,duringprac.thisRepN,duringprac.thisTrialN,duringprac.thisN,duringprac.thisIndex,duringprac.ran,begin.started,begin.stopped,key_resp_22.keys,key_resp_22.rt,key_resp_22.duration,Stim1_display.started,Stim1_display.stopped,circle1_ori,circle2_ori,blank.started,blank.stopped,response.started,response.stopped,mouse.x,mouse.y,mouse.leftButton,mouse.midButton,mouse.rightButton,mouse.clicked_name,response_2.started,response_2.stopped,mouse_2.x,mouse_2.y,mouse_2.leftButton,mouse_2.midButton,mouse_2.rightButton,mouse_2.clicked_name,special_trial.started,special_trial.stopped,catch_1.started,catch_1.stopped,mouse_3.x,mouse_3.y,mouse_3.leftButton,mouse_3.midButton,mouse_3.rightButton,catchresponse,catchnumber,response_time_catch,Catch,response_sum.started,response_sum.stopped,mouse_11.x,mouse_11.y,mouse_11.leftButton,mouse_11.midButton,mouse_11.rightButton,main_trial.thisRepN,main_trial.thisTrialN,main_trial.thisN,main_trial.thisIndex,main_trial.ran,Orientationtrialno,xcircle1_ori,xcircle2_ori,flip_presentation_sequence_for_double_pass.started,flip_presentation_sequence_for_double_pass.stopped,double_pass.thisRepN,double_pass.thisTrialN,double_pass.thisN,double_pass.thisIndex,double_pass.ran,goodbye.started,goodbye.stopped,key_resp_3.keys,key_resp_3.rt,key_resp_3.duration
0,0.001,61577c2dc44ccc73b11049ee,2023-12-07_05h37.54.128,kallum_motion_pilot,2023.2.3,MacIntel,250,61577c2dc44ccc73b11049ee,6560176e4d91f764e2a42c74,657158a757ad15ef0ca313b6,,,,,,,,,,,,,,,,,,,,,,,,,,,,,,,,,,,,,,,,,,,,,,,,,,,,,,,,,,,,,,,,,,,,,,,,,,,,,,,,,,,,,,,,,,,,,,,,,,,,,,,,,,,,,,,,,,,,,,,,,,,,,,,,,,,,,,,,,,,,,,,
,,61577c2dc44ccc73b11049ee,2023-12-07_05h37.54.128,kallum_motion_pilot,2023.2.3,MacIntel,250,61577c2dc44ccc73b11049ee,6560176e4d91f764e2a42c74,657158a757ad15ef0ca313b6,0.013,0.014,0,0,0,147,1,sixeight,,,,,,,,,,,,,,,,,,,,,,,,,,,,,,,,,,,,,,,,,,,,,,,,,,,,,,,,,,,,,,,,,,,,,,,,,,,,,,,,,,,,,,,,,,,,,,,,,,,,,,,,,,,,,,,,,,,,,,,,,,,,,,,,,,,,,,,
,,61577c2dc44ccc73b11049ee,2023-12-07_05h37.54.128,kallum_motion_pilot,2023.2.3,MacIntel,250,61577c2dc44ccc73b11049ee,6560176e4d91f764e2a42c74,657158a757ad15ef0ca313b6,0.014,0.014,0,1,1,122,1,sixfive,,,,,,,,,,,,,,,,,,,,,,,,,,,,,,,,,,,,,,,,,,,,,,,,,,,,,,,,,,,,,,,,,,,,,,,,,,,,,,,,,,,,,,,,,,,,,,,,,,,,,,,,,,,,,,,,,,,,,,,,,,,,,,,,,,,,,,,
,,61577c2dc44ccc73b11049ee,2023-12-07_05h37.54.128,kallum_motion_pilot,2023.2.3,MacIntel,250,61577c2dc44ccc73b11049ee,6560176e4d91f764e2a42c74,657158a757ad15ef0ca313b6,0.014,0.014,0,2,2,76,1,threeone,,,,,,,,,,,,,,,,,,,,,,,,,,,,,,,,,,,,,,,,,,,,,,,,,,,,,,,,,,,,,,,,,,,,,,,,,,,,,,,,,,,,,,,,,,,,,,,,,,,,,,,,,,,,,,,,,,,,,,,,,,,,,,,,,,,,,,,
,,61577c2dc44ccc73b11049ee,2023-12-07_05h37.54.128,kallum_motion_pilot,2023.2.3,MacIntel,250,61577c2dc44ccc73b11049ee,6560176e4d91f764e2a42c74,657158a757ad15ef0ca313b6,0.014,0.014,0,3,3,141,1,seveneight,,,,,,,,,,,,,,,,,,,,,,,,,,,,,,,,,,,,,,,,,,,,,,,,,,,,,,,,,,,,,,,,,,,,,,,,,,,,,,,,,,,,,,,,,,,,,,,,,,,,,,,,,,,,,,,,,,,,,,,,,,,,,,,,,,,,,,,
,,61577c2dc44ccc73b11049ee,2023-12-07_05h37.54.128,kallum_motion_pilot,2023.2.3,MacIntel,250,61577c2dc44ccc73b11049ee,6560176e4d91f764e2a42c74,657158a757ad15ef0ca313b6,0.014,0.014,0,4,4,89,1,fiveseven,,,,,,,,,,,,,,,,,,,,,,,,,,,,,,,,,,,,,,,,,,,,,,,,,,,,,,,,,,,,,,,,,,,,,,,,,,,,,,,,,,,,,,,,,,,,,,,,,,,,,,,,,,,,,,,,,,,,,,,,,,,,,,,,,,,,,,,
,,61577c2dc44ccc73b11049ee,2023-12-07_05h37.54.128,kallum_motion_pilot,2023.2.3,MacIntel,250,61577c2dc44ccc73b11049ee,6560176e4d91f764e2a42c74,657158a757ad15ef0ca313b6,0.014,0.014,0,5,5,51,1,twofour,,,,,,,,,,,,,,,,,,,,,,,,,,,,,,,,,,,,,,,,,,,,,,,,,,,,,,,,,,,,,,,,,,,,,,,,,,,,,,,,,,,,,,,,,,,,,,,,,,,,,,,,,,,,,,,,,,,,,,,,,,,,,,,,,,,,,,,
,,61577c2dc44ccc73b11049ee,2023-12-07_05h37.54.128,kallum_motion_pilot,2023.2.3,MacIntel,250,61577c2dc44ccc73b11049ee,6560176e4d91f764e2a42c74,657158a757ad15ef0ca313b6,0.014,0.014,0,6,6,90,1,sixfive,,,,,,,,,,,,,,,,,,,,,,,,,,,,,,,,,,,,,,,,,,,,,,,,,,,,,,,,,,,,,,,,,,,,,,,,,,,,,,,,,,,,,,,,,,,,,,,,,,,,,,,,,,,,,,,,,,,,,,,,,,,,,,,,,,,,,,,
,,61577c2dc44ccc73b11049ee,2023-12-07_05h37.54.128,kallum_motion_pilot,2023.2.3,MacIntel,250,61577c2dc44ccc73b11049ee,6560176e4d91f764e2a42c74,657158a757ad15ef0ca313b6,0.014,0.014,0,7,7,80,1,fivesix,,,,,,,,,,,,,,,,,,,,,,,,,,,,,,,,,,,,,,,,,,,,,,,,,,,,,,,,,,,,,,,,,,,,,,,,,,,,,,,,,,,,,,,,,,,,,,,,,,,,,,,,,,,,,,,,,,,,,,,,,,,,,,,,,,,,,,,
,,61577c2dc44ccc73b11049ee,2023-12-07_05h37.54.128,kallum_motion_pilot,2023.2.3,MacIntel,250,61577c2dc44ccc73b11049ee,6560176e4d91f764e2a42c74,657158a757ad15ef0ca313b6,0.014,0.014,0,8,8,155,1,sixeight,,,,,,,,,,,,,,,,,,,,,,,,,,,,,,,,,,,,,,,,,,,,,,,,,,,,,,,,,,,,,,,,,,,,,,,,,,,,,,,,,,,,,,,,,,,,,,,,,,,,,,,,,,,,,,,,,,,,,,,,,,,,,,,,,,,,,,,
,,61577c2dc44ccc73b11049ee,2023-12-07_05h37.54.128,kallum_motion_pilot,2023.2.3,MacIntel,250,61577c2dc44ccc73b11049ee,6560176e4d91f764e2a42c74,657158a757ad15ef0ca313b6,0.014,0.014,0,9,9,41,1,onethree,,,,,,,,,,,,,,,,,,,,,,,,,,,,,,,,,,,,,,,,,,,,,,,,,,,,,,,,,,,,,,,,,,,,,,,,,,,,,,,,,,,,,,,,,,,,,,,,,,,,,,,,,,,,,,,,,,,,,,,,,,,,,,,,,,,,,,,
,,61577c2dc44ccc73b11049ee,2023-12-07_05h37.54.128,kallum_motion_pilot,2023.2.3,MacIntel,250,61577c2dc44ccc73b11049ee,6560176e4d91f764e2a42c74,657158a757ad15ef0ca313b6,0.014,0.014,0,10,10,83,1,sixeight,,,,,,,,,,,,,,,,,,,,,,,,,,,,,,,,,,,,,,,,,,,,,,,,,,,,,,,,,,,,,,,,,,,,,,,,,,,,,,,,,,,,,,,,,,,,,,,,,,,,,,,,,,,,,,,,,,,,,,,,,,,,,,,,,,,,,,,
,,61577c2dc44ccc73b11049ee,2023-12-07_05h37.54.128,kallum_motion_pilot,2023.2.3,MacIntel,250,61577c2dc44ccc73b11049ee,6560176e4d91f764e2a42c74,657158a757ad15ef0ca313b6,0.014,0.014,0,11,11,10,1,twoone,,,,,,,,,,,,,,,,,,,,,,,,,,,,,,,,,,,,,,,,,,,,,,,,,,,,,,,,,,,,,,,,,,,,,,,,,,,,,,,,,,,,,,,,,,,,,,,,,,,,,,,,,,,,,,,,,,,,,,,,,,,,,,,,,,,,,,,
,,61577c2dc44ccc73b11049ee,2023-12-07_05h37.54.128,kallum_motion_pilot,2023.2.3,MacIntel,250,61577c2dc44ccc73b11049ee,6560176e4d91f764e2a42c74,657158a757ad15ef0ca313b6,0.014,0.014,0,12,12,56,1,onetwo,,,,,,,,,,,,,,,,,,,,,,,,,,,,,,,,,,,,,,,,,,,,,,,,,,,,,,,,,,,,,,,,,,,,,,,,,,,,,,,,,,,,,,,,,,,,,,,,,,,,,,,,,,,,,,,,,,,,,,,,,,,,,,,,,,,,,,,
,,61577c2dc44ccc73b11049ee,2023-12-07_05h37.54.128,kallum_motion_pilot,2023.2.3,MacIntel,250,61577c2dc44ccc73b11049ee,6560176e4d91f764e2a42c74,657158a757ad15ef0ca313b6,0.014,0.014,0,13,13,98,1,sixfive,,,,,,,,,,,,,,,,,,,,,,,,,,,,,,,,,,,,,,,,,,,,,,,,,,,,,,,,,,,,,,,,,,,,,,,,,,,,,,,,,,,,,,,,,,,,,,,,,,,,,,,,,,,,,,,,,,,,,,,,,,,,,,,,,,,,,,,
,,61577c2dc44ccc73b11049ee,2023-12-07_05h37.54.128,kallum_motion_pilot,2023.2.3,MacIntel,250,61577c2dc44ccc73b11049ee,6560176e4d91f764e2a42c74,657158a757ad15ef0ca313b6,0.014,0.014,0,14,14,67,1,twofour,,,,,,,,,,,,,,,,,,,,,,,,,,,,,,,,,,,,,,,,,,,,,,,,,,,,,,,,,,,,,,,,,,,,,,,,,,,,,,,,,,,,,,,,,,,,,,,,,,,,,,,,,,,,,,,,,,,,,,,,,,,,,,,,,,,,,,,
,,61577c2dc44ccc73b11049ee,2023-12-07_05h37.54.128,kallum_motion_pilot,2023.2.3,MacIntel,250,61577c2dc44ccc73b11049ee,6560176e4d91f764e2a42c74,657158a757ad15ef0ca313b6,0.014,0.014,0,15,15,2,1,twoone,,,,,,,,,,,,,,,,,,,,,,,,,,,,,,,,,,,,,,,,,,,,,,,,,,,,,,,,,,,,,,,,,,,,,,,,,,,,,,,,,,,,,,,,,,,,,,,,,,,,,,,,,,,,,,,,,,,,,,,,,,,,,,,,,,,,,,,
,,61577c2dc44ccc73b11049ee,2023-12-07_05h37.54.128,kallum_motion_pilot,2023.2.3,MacIntel,250,61577c2dc44ccc73b11049ee,6560176e4d91f764e2a42c74,657158a757ad15ef0ca313b6,0.014,0.014,0,16,16,144,1,fivesix,,,,,,,,,,,,,,,,,,,,,,,,,,,,,,,,,,,,,,,,,,,,,,,,,,,,,,,,,,,,,,,,,,,,,,,,,,,,,,,,,,,,,,,,,,,,,,,,,,,,,,,,,,,,,,,,,,,,,,,,,,,,,,,,,,,,,,,
,,61577c2dc44ccc73b11049ee,2023-12-07_05h37.54.128,kallum_motion_pilot,2023.2.3,MacIntel,250,61577c2dc44ccc73b11049ee,6560176e4d91f764e2a42c74,657158a757ad15ef0ca313b6,0.014,0.014,0,17,17,34,1,twoone,,,,,,,,,,,,,,,,,,,,,,,,,,,,,,,,,,,,,,,,,,,,,,,,,,,,,,,,,,,,,,,,,,,,,,,,,,,,,,,,,,,,,,,,,,,,,,,,,,,,,,,,,,,,,,,,,,,,,,,,,,,,,,,,,,,,,,,
,,61577c2dc44ccc73b11049ee,2023-12-07_05h37.54.128,kallum_motion_pilot,2023.2.3,MacIntel,250,61577c2dc44ccc73b11049ee,6560176e4d91f764e2a42c74,657158a757ad15ef0ca313b6,0.014,0.014,0,18,18,46,1,fourtwo,,,,,,,,,,,,,,,,,,,,,,,,,,,,,,,,,,,,,,,,,,,,,,,,,,,,,,,,,,,,,,,,,,,,,,,,,,,,,,,,,,,,,,,,,,,,,,,,,,,,,,,,,,,,,,,,,,,,,,,,,,,,,,,,,,,,,,,
,,61577c2dc44ccc73b11049ee,2023-12-07_05h37.54.128,kallum_motion_pilot,2023.2.3,MacIntel,250,61577c2dc44ccc73b11049ee,6560176e4d91f764e2a42c74,657158a757ad15ef0ca313b6,0.014,0.014,0,19,19,123,1,sixeight,,,,,,,,,,,,,,,,,,,,,,,,,,,,,,,,,,,,,,,,,,,,,,,,,,,,,,,,,,,,,,,,,,,,,,,,,,,,,,,,,,,,,,,,,,,,,,,,,,,,,,,,,,,,,,,,,,,,,,,,,,,,,,,,,,,,,,,
,,61577c2dc44ccc73b11049ee,2023-12-07_05h37.54.128,kallum_motion_pilot,2023.2.3,MacIntel,250,61577c2dc44ccc73b11049ee,6560176e4d91f764e2a42c74,657158a757ad15ef0ca313b6,0.014,0.015,0,20,20,87,1,eightseven,,,,,,,,,,,,,,,,,,,,,,,,,,,,,,,,,,,,,,,,,,,,,,,,,,,,,,,,,,,,,,,,,,,,,,,,,,,,,,,,,,,,,,,,,,,,,,,,,,,,,,,,,,,,,,,,,,,,,,,,,,,,,,,,,,,,,,,
,,61577c2dc44ccc73b11049ee,2023-12-07_05h37.54.128,kallum_motion_pilot,2023.2.3,MacIntel,250,61577c2dc44ccc73b11049ee,6560176e4d91f764e2a42c74,657158a757ad15ef0ca313b6,0.015,0.015,0,21,21,69,1,threefour,,,,,,,,,,,,,,,,,,,,,,,,,,,,,,,,,,,,,,,,,,,,,,,,,,,,,,,,,,,,,,,,,,,,,,,,,,,,,,,,,,,,,,,,,,,,,,,,,,,,,,,,,,,,,,,,,,,,,,,,,,,,,,,,,,,,,,,
,,61577c2dc44ccc73b11049ee,2023-12-07_05h37.54.128,kallum_motion_pilot,2023.2.3,MacIntel,250,61577c2dc44ccc73b11049ee,6560176e4d91f764e2a42c74,657158a757ad15ef0ca313b6,0.015,0.015,0,22,22,139,1,sixeight,,,,,,,,,,,,,,,,,,,,,,,,,,,,,,,,,,,,,,,,,,,,,,,,,,,,,,,,,,,,,,,,,,,,,,,,,,,,,,,,,,,,,,,,,,,,,,,,,,,,,,,,,,,,,,,,,,,,,,,,,,,,,,,,,,,,,,,
,,61577c2dc44ccc73b11049ee,2023-12-07_05h37.54.128,kallum_motion_pilot,2023.2.3,MacIntel,250,61577c2dc44ccc73b11049ee,6560176e4d91f764e2a42c74,657158a757ad15ef0ca313b6,0.015,0.015,0,23,23,148,1,sevenfive,,,,,,,,,,,,,,,,,,,,,,,,,,,,,,,,,,,,,,,,,,,,,,,,,,,,,,,,,,,,,,,,,,,,,,,,,,,,,,,,,,,,,,,,,,,,,,,,,,,,,,,,,,,,,,,,,,,,,,,,,,,,,,,,,,,,,,,
,,61577c2dc44ccc73b11049ee,2023-12-07_05h37.54.128,kallum_motion_pilot,2023.2.3,MacIntel,250,61577c2dc44ccc73b11049ee,6560176e4d91f764e2a42c74,657158a757ad15ef0ca313b6,0.015,0.015,0,24,24,61,1,threefour,,,,,,,,,,,,,,,,,,,,,,,,,,,,,,,,,,,,,,,,,,,,,,,,,,,,,,,,,,,,,,,,,,,,,,,,,,,,,,,,,,,,,,,,,,,,,,,,,,,,,,,,,,,,,,,,,,,,,,,,,,,,,,,,,,,,,,,
,,61577c2dc44ccc73b11049ee,2023-12-07_05h37.54.128,kallum_motion_pilot,2023.2.3,MacIntel,250,61577c2dc44ccc73b11049ee,6560176e4d91f764e2a42c74,657158a757ad15ef0ca313b6,0.015,0.015,0,25,25,134,1,eightsix,,,,,,,,,,,,,,,,,,,,,,,,,,,,,,,,,,,,,,,,,,,,,,,,,,,,,,,,,,,,,,,,,,,,,,,,,,,,,,,,,,,,,,,,,,,,,,,,,,,,,,,,,,,,,,,,,,,,,,,,,,,,,,,,,,,,,,,
,,61577c2dc44ccc73b11049ee,2023-12-07_05h37.54.128,kallum_motion_pilot,2023.2.3,MacIntel,250,61577c2dc44ccc73b11049ee,6560176e4d91f764e2a42c74,657158a757ad15ef0ca313b6,0.015,0.015,0,26,26,33,1,onethree,,,,,,,,,,,,,,,,,,,,,,,,,,,,,,,,,,,,,,,,,,,,,,,,,,,,,,,,,,,,,,,,,,,,,,,,,,,,,,,,,,,,,,,,,,,,,,,,,,,,,,,,,,,,,,,,,,,,,,,,,,,,,,,,,,,,,,,
,,61577c2dc44ccc73b11049ee,2023-12-07_05h37.54.128,kallum_motion_pilot,2023.2.3,MacIntel,250,61577c2dc44ccc73b11049ee,6560176e4d91f764e2a42c74,657158a757ad15ef0ca313b6,0.015,0.015,0,27,27,38,1,fourtwo,,,,,,,,,,,,,,,,,,,,,,,,,,,,,,,,,,,,,,,,,,,,,,,,,,,,,,,,,,,,,,,,,,,,,,,,,,,,,,,,,,,,,,,,,,,,,,,,,,,,,,,,,,,,,,,,,,,,,,,,,,,,,,,,,,,,,,,
,,61577c2dc44ccc73b11049ee,2023-12-07_05h37.54.128,kallum_motion_pilot,2023.2.3,MacIntel,250,61577c2dc44ccc73b11049ee,6560176e4d91f764e2a42c74,657158a757ad15ef0ca313b6,0.015,0.015,0,28,28,84,1,sevenfive,,,,,,,,,,,,,,,,,,,,,,,,,,,,,,,,,,,,,,,,,,,,,,,,,,,,,,,,,,,,,,,,,,,,,,,,,,,,,,,,,,,,,,,,,,,,,,,,,,,,,,,,,,,,,,,,,,,,,,,,,,,,,,,,,,,,,,,
,,61577c2dc44ccc73b11049ee,2023-12-07_05h37.54.128,kallum_motion_pilot,2023.2.3,MacIntel,250,61577c2dc44ccc73b11049ee,6560176e4d91f764e2a42c74,657158a757ad15ef0ca313b6,0.015,0.015,0,29,29,16,1,onetwo,,,,,,,,,,,,,,,,,,,,,,,,,,,,,,,,,,,,,,,,,,,,,,,,,,,,,,,,,,,,,,,,,,,,,,,,,,,,,,,,,,,,,,,,,,,,,,,,,,,,,,,,,,,,,,,,,,,,,,,,,,,,,,,,,,,,,,,
,,61577c2dc44ccc73b11049ee,2023-12-07_05h37.54.128,kallum_motion_pilot,2023.2.3,MacIntel,250,61577c2dc44ccc73b11049ee,6560176e4d91f764e2a42c74,657158a757ad15ef0ca313b6,0.015,0.015,0,30,30,24,1,onetwo,,,,,,,,,,,,,,,,,,,,,,,,,,,,,,,,,,,,,,,,,,,,,,,,,,,,,,,,,,,,,,,,,,,,,,,,,,,,,,,,,,,,,,,,,,,,,,,,,,,,,,,,,,,,,,,,,,,,,,,,,,,,,,,,,,,,,,,
,,61577c2dc44ccc73b11049ee,2023-12-07_05h37.54.128,kallum_motion_pilot,2023.2.3,MacIntel,250,61577c2dc44ccc73b11049ee,6560176e4d91f764e2a42c74,657158a757ad15ef0ca313b6,0.015,0.015,0,31,31,55,1,fourthree,,,,,,,,,,,,,,,,,,,,,,,,,,,,,,,,,,,,,,,,,,,,,,,,,,,,,,,,,,,,,,,,,,,,,,,,,,,,,,,,,,,,,,,,,,,,,,,,,,,,,,,,,,,,,,,,,,,,,,,,,,,,,,,,,,,,,,,
,,61577c2dc44ccc73b11049ee,2023-12-07_05h37.54.128,kallum_motion_pilot,2023.2.3,MacIntel,250,61577c2dc44ccc73b11049ee,6560176e4d91f764e2a42c74,657158a757ad15ef0ca313b6,0.015,0.015,0,32,32,65,1,onethree,,,,,,,,,,,,,,,,,,,,,,,,,,,,,,,,,,,,,,,,,,,,,,,,,,,,,,,,,,,,,,,,,,,,,,,,,,,,,,,,,,,,,,,,,,,,,,,,,,,,,,,,,,,,,,,,,,,,,,,,,,,,,,,,,,,,,,,
,,61577c2dc44ccc73b11049ee,2023-12-07_05h37.54.128,kallum_motion_pilot,2023.2.3,MacIntel,250,61577c2dc44ccc73b11049ee,6560176e4d91f764e2a42c74,657158a757ad15ef0ca313b6,0.015,0.015,0,33,33,96,1,fivesix,,,,,,,,,,,,,,,,,,,,,,,,,,,,,,,,,,,,,,,,,,,,,,,,,,,,,,,,,,,,,,,,,,,,,,,,,,,,,,,,,,,,,,,,,,,,,,,,,,,,,,,,,,,,,,,,,,,,,,,,,,,,,,,,,,,,,,,
,,61577c2dc44ccc73b11049ee,2023-12-07_05h37.54.128,kallum_motion_pilot,2023.2.3,MacIntel,250,61577c2dc44ccc73b11049ee,6560176e4d91f764e2a42c74,657158a757ad15ef0ca313b6,0.015,0.015,0,34,34,78,1,fourtwo,,,,,,,,,,,,,,,,,,,,,,,,,,,,,,,,,,,,,,,,,,,,,,,,,,,,,,,,,,,,,,,,,,,,,,,,,,,,,,,,,,,,,,,,,,,,,,,,,,,,,,,,,,,,,,,,,,,,,,,,,,,,,,,,,,,,,,,
,,61577c2dc44ccc73b11049ee,2023-12-07_05h37.54.128,kallum_motion_pilot,2023.2.3,MacIntel,250,61577c2dc44ccc73b11049ee,6560176e4d91f764e2a42c74,657158a757ad15ef0ca313b6,0.015,0.015,0,35,35,15,1,fourthree,,,,,,,,,,,,,,,,,,,,,,,,,,,,,,,,,,,,,,,,,,,,,,,,,,,,,,,,,,,,,,,,,,,,,,,,,,,,,,,,,,,,,,,,,,,,,,,,,,,,,,,,,,,,,,,,,,,,,,,,,,,,,,,,,,,,,,,
,,61577c2dc44ccc73b11049ee,2023-12-07_05h37.54.128,kallum_motion_pilot,2023.2.3,MacIntel,250,61577c2dc44ccc73b11049ee,6560176e4d91f764e2a42c74,657158a757ad15ef0ca313b6,0.015,0.015,0,36,36,63,1,fourthree,,,,,,,,,,,,,,,,,,,,,,,,,,,,,,,,,,,,,,,,,,,,,,,,,,,,,,,,,,,,,,,,,,,,,,,,,,,,,,,,,,,,,,,,,,,,,,,,,,,,,,,,,,,,,,,,,,,,,,,,,,,,,,,,,,,,,,,
,,61577c2dc44ccc73b11049ee,2023-12-07_05h37.54.128,kallum_motion_pilot,2023.2.3,MacIntel,250,61577c2dc44ccc73b11049ee,6560176e4d91f764e2a42c74,657158a757ad15ef0ca313b6,0.015,0.015,0,37,37,126,1,eightsix,,,,,,,,,,,,,,,,,,,,,,,,,,,,,,,,,,,,,,,,,,,,,,,,,,,,,,,,,,,,,,,,,,,,,,,,,,,,,,,,,,,,,,,,,,,,,,,,,,,,,,,,,,,,,,,,,,,,,,,,,,,,,,,,,,,,,,,
,,61577c2dc44ccc73b11049ee,2023-12-07_05h37.54.128,kallum_motion_pilot,2023.2.3,MacIntel,250,61577c2dc44ccc73b11049ee,6560176e4d91f764e2a42c74,657158a757ad15ef0ca313b6,0.015,0.015,0,38,38,101,1,seveneight,,,,,,,,,,,,,,,,,,,,,,,,,,,,,,,,,,,,,,,,,,,,,,,,,,,,,,,,,,,,,,,,,,,,,,,,,,,,,,,,,,,,,,,,,,,,,,,,,,,,,,,,,,,,,,,,,,,,,,,,,,,,,,,,,,,,,,,
,,61577c2dc44ccc73b11049ee,2023-12-07_05h37.54.128,kallum_motion_pilot,2023.2.3,MacIntel,250,61577c2dc44ccc73b11049ee,6560176e4d91f764e2a42c74,657158a757ad15ef0ca313b6,0.015,0.015,0,39,39,135,1,eightseven,,,,,,,,,,,,,,,,,,,,,,,,,,,,,,,,,,,,,,,,,,,,,,,,,,,,,,,,,,,,,,,,,,,,,,,,,,,,,,,,,,,,,,,,,,,,,,,,,,,,,,,,,,,,,,,,,,,,,,,,,,,,,,,,,,,,,,,
,,61577c2dc44ccc73b11049ee,2023-12-07_05h37.54.128,kallum_motion_pilot,2023.2.3,MacIntel,250,61577c2dc44ccc73b11049ee,6560176e4d91f764e2a42c74,657158a757ad15ef0ca313b6,0.015,0.015,0,40,40,116,1,sevenfive,,,,,,,,,,,,,,,,,,,,,,,,,,,,,,,,,,,,,,,,,,,,,,,,,,,,,,,,,,,,,,,,,,,,,,,,,,,,,,,,,,,,,,,,,,,,,,,,,,,,,,,,,,,,,,,,,,,,,,,,,,,,,,,,,,,,,,,
,,61577c2dc44ccc73b11049ee,2023-12-07_05h37.54.128,kallum_motion_pilot,2023.2.3,MacIntel,250,61577c2dc44ccc73b11049ee,6560176e4d91f764e2a42c74,657158a757ad15ef0ca313b6,0.015,0.015,0,41,41,115,1,sixeight,,,,,,,,,,,,,,,,,,,,,,,,,,,,,,,,,,,,,,,,,,,,,,,,,,,,,,,,,,,,,,,,,,,,,,,,,,,,,,,,,,,,,,,,,,,,,,,,,,,,,,,,,,,,,,,,,,,,,,,,,,,,,,,,,,,,,,,
,,61577c2dc44ccc73b11049ee,2023-12-07_05h37.54.128,kallum_motion_pilot,2023.2.3,MacIntel,250,61577c2dc44ccc73b11049ee,6560176e4d91f764e2a42c74,657158a757ad15ef0ca313b6,0.015,0.015,0,42,42,132,1,sevenfive,,,,,,,,,,,,,,,,,,,,,,,,,,,,,,,,,,,,,,,,,,,,,,,,,,,,,,,,,,,,,,,,,,,,,,,,,,,,,,,,,,,,,,,,,,,,,,,,,,,,,,,,,,,,,,,,,,,,,,,,,,,,,,,,,,,,,,,
,,61577c2dc44ccc73b11049ee,2023-12-07_05h37.54.128,kallum_motion_pilot,2023.2.3,MacIntel,250,61577c2dc44ccc73b11049ee,6560176e4d91f764e2a42c74,657158a757ad15ef0ca313b6,0.015,0.015,0,43,43,130,1,sixfive,,,,,,,,,,,,,,,,,,,,,,,,,,,,,,,,,,,,,,,,,,,,,,,,,,,,,,,,,,,,,,,,,,,,,,,,,,,,,,,,,,,,,,,,,,,,,,,,,,,,,,,,,,,,,,,,,,,,,,,,,,,,,,,,,,,,,,,
,,61577c2dc44ccc73b11049ee,2023-12-07_05h37.54.128,kallum_motion_pilot,2023.2.3,MacIntel,250,61577c2dc44ccc73b11049ee,6560176e4d91f764e2a42c74,657158a757ad15ef0ca313b6,0.015,0.015,0,44,44,85,1,seveneight,,,,,,,,,,,,,,,,,,,,,,,,,,,,,,,,,,,,,,,,,,,,,,,,,,,,,,,,,,,,,,,,,,,,,,,,,,,,,,,,,,,,,,,,,,,,,,,,,,,,,,,,,,,,,,,,,,,,,,,,,,,,,,,,,,,,,,,
,,61577c2dc44ccc73b11049ee,2023-12-07_05h37.54.128,kallum_motion_pilot,2023.2.3,MacIntel,250,61577c2dc44ccc73b11049ee,6560176e4d91f764e2a42c74,657158a757ad15ef0ca313b6,0.015,0.015,0,45,45,151,1,eightseven,,,,,,,,,,,,,,,,,,,,,,,,,,,,,,,,,,,,,,,,,,,,,,,,,,,,,,,,,,,,,,,,,,,,,,,,,,,,,,,,,,,,,,,,,,,,,,,,,,,,,,,,,,,,,,,,,,,,,,,,,,,,,,,,,,,,,,,
,,61577c2dc44ccc73b11049ee,2023-12-07_05h37.54.128,kallum_motion_pilot,2023.2.3,MacIntel,250,61577c2dc44ccc73b11049ee,6560176e4d91f764e2a42c74,657158a757ad15ef0ca313b6,0.016,0.016,0,46,46,50,1,twoone,,,,,,,,,,,,,,,,,,,,,,,,,,,,,,,,,,,,,,,,,,,,,,,,,,,,,,,,,,,,,,,,,,,,,,,,,,,,,,,,,,,,,,,,,,,,,,,,,,,,,,,,,,,,,,,,,,,,,,,,,,,,,,,,,,,,,,,
,,61577c2dc44ccc73b11049ee,2023-12-07_05h37.54.128,kallum_motion_pilot,2023.2.3,MacIntel,250,61577c2dc44ccc73b11049ee,6560176e4d91f764e2a42c74,657158a757ad15ef0ca313b6,0.016,0.016,0,47,47,88,1,fivesix,,,,,,,,,,,,,,,,,,,,,,,,,,,,,,,,,,,,,,,,,,,,,,,,,,,,,,,,,,,,,,,,,,,,,,,,,,,,,,,,,,,,,,,,,,,,,,,,,,,,,,,,,,,,,,,,,,,,,,,,,,,,,,,,,,,,,,,
,,61577c2dc44ccc73b11049ee,2023-12-07_05h37.54.128,kallum_motion_pilot,2023.2.3,MacIntel,250,61577c2dc44ccc73b11049ee,6560176e4d91f764e2a42c74,657158a757ad15ef0ca313b6,0.016,0.016,0,48,48,37,1,threefour,,,,,,,,,,,,,,,,,,,,,,,,,,,,,,,,,,,,,,,,,,,,,,,,,,,,,,,,,,,,,,,,,,,,,,,,,,,,,,,,,,,,,,,,,,,,,,,,,,,,,,,,,,,,,,,,,,,,,,,,,,,,,,,,,,,,,,,
,,61577c2dc44ccc73b11049ee,2023-12-07_05h37.54.128,kallum_motion_pilot,2023.2.3,MacIntel,250,61577c2dc44ccc73b11049ee,6560176e4d91f764e2a42c74,657158a757ad15ef0ca313b6,0.016,0.016,0,49,49,22,1,fourtwo,,,,,,,,,,,,,,,,,,,,,,,,,,,,,,,,,,,,,,,,,,,,,,,,,,,,,,,,,,,,,,,,,,,,,,,,,,,,,,,,,,,,,,,,,,,,,,,,,,,,,,,,,,,,,,,,,,,,,,,,,,,,,,,,,,,,,,,
,,61577c2dc44ccc73b11049ee,2023-12-07_05h37.54.128,kallum_motion_pilot,2023.2.3,MacIntel,250,61577c2dc44ccc73b11049ee,6560176e4d91f764e2a42c74,657158a757ad15ef0ca313b6,0.016,0.016,0,50,50,133,1,seveneight,,,,,,,,,,,,,,,,,,,,,,,,,,,,,,,,,,,,,,,,,,,,,,,,,,,,,,,,,,,,,,,,,,,,,,,,,,,,,,,,,,,,,,,,,,,,,,,,,,,,,,,,,,,,,,,,,,,,,,,,,,,,,,,,,,,,,,,
,,61577c2dc44ccc73b11049ee,2023-12-07_05h37.54.128,kallum_motion_pilot,2023.2.3,MacIntel,250,61577c2dc44ccc73b11049ee,6560176e4d91f764e2a42c74,657158a757ad15ef0ca313b6,0.016,0.016,0,51,51,54,1,fourtwo,,,,,,,,,,,,,,,,,,,,,,,,,,,,,,,,,,,,,,,,,,,,,,,,,,,,,,,,,,,,,,,,,,,,,,,,,,,,,,,,,,,,,,,,,,,,,,,,,,,,,,,,,,,,,,,,,,,,,,,,,,,,,,,,,,,,,,,
,,61577c2dc44ccc73b11049ee,2023-12-07_05h37.54.128,kallum_motion_pilot,2023.2.3,MacIntel,250,61577c2dc44ccc73b11049ee,6560176e4d91f764e2a42c74,657158a757ad15ef0ca313b6,0.016,0.016,0,52,52,107,1,sixeight,,,,,,,,,,,,,,,,,,,,,,,,,,,,,,,,,,,,,,,,,,,,,,,,,,,,,,,,,,,,,,,,,,,,,,,,,,,,,,,,,,,,,,,,,,,,,,,,,,,,,,,,,,,,,,,,,,,,,,,,,,,,,,,,,,,,,,,
,,61577c2dc44ccc73b11049ee,2023-12-07_05h37.54.128,kallum_motion_pilot,2023.2.3,MacIntel,250,61577c2dc44ccc73b11049ee,6560176e4d91f764e2a42c74,657158a757ad15ef0ca313b6,0.016,0.016,0,53,53,117,1,seveneight,,,,,,,,,,,,,,,,,,,,,,,,,,,,,,,,,,,,,,,,,,,,,,,,,,,,,,,,,,,,,,,,,,,,,,,,,,,,,,,,,,,,,,,,,,,,,,,,,,,,,,,,,,,,,,,,,,,,,,,,,,,,,,,,,,,,,,,
,,61577c2dc44ccc73b11049ee,2023-12-07_05h37.54.128,kallum_motion_pilot,2023.2.3,MacIntel,250,61577c2dc44ccc73b11049ee,6560176e4d91f764e2a42c74,657158a757ad15ef0ca313b6,0.016,0.016,0,54,54,99,1,sixeight,,,,,,,,,,,,,,,,,,,,,,,,,,,,,,,,,,,,,,,,,,,,,,,,,,,,,,,,,,,,,,,,,,,,,,,,,,,,,,,,,,,,,,,,,,,,,,,,,,,,,,,,,,,,,,,,,,,,,,,,,,,,,,,,,,,,,,,
,,61577c2dc44ccc73b11049ee,2023-12-07_05h37.54.128,kallum_motion_pilot,2023.2.3,MacIntel,250,61577c2dc44ccc73b11049ee,6560176e4d91f764e2a42c74,657158a757ad15ef0ca313b6,0.016,0.016,0,55,55,112,1,fivesix,,,,,,,,,,,,,,,,,,,,,,,,,,,,,,,,,,,,,,,,,,,,,,,,,,,,,,,,,,,,,,,,,,,,,,,,,,,,,,,,,,,,,,,,,,,,,,,,,,,,,,,,,,,,,,,,,,,,,,,,,,,,,,,,,,,,,,,
,,61577c2dc44ccc73b11049ee,2023-12-07_05h37.54.128,kallum_motion_pilot,2023.2.3,MacIntel,250,61577c2dc44ccc73b11049ee,6560176e4d91f764e2a42c74,657158a757ad15ef0ca313b6,0.016,0.016,0,56,56,156,1,sevenfive,,,,,,,,,,,,,,,,,,,,,,,,,,,,,,,,,,,,,,,,,,,,,,,,,,,,,,,,,,,,,,,,,,,,,,,,,,,,,,,,,,,,,,,,,,,,,,,,,,,,,,,,,,,,,,,,,,,,,,,,,,,,,,,,,,,,,,,
,,61577c2dc44ccc73b11049ee,2023-12-07_05h37.54.128,kallum_motion_pilot,2023.2.3,MacIntel,250,61577c2dc44ccc73b11049ee,6560176e4d91f764e2a42c74,657158a757ad15ef0ca313b6,0.016,0.016,0,57,57,9,1,onethree,,,,,,,,,,,,,,,,,,,,,,,,,,,,,,,,,,,,,,,,,,,,,,,,,,,,,,,,,,,,,,,,,,,,,,,,,,,,,,,,,,,,,,,,,,,,,,,,,,,,,,,,,,,,,,,,,,,,,,,,,,,,,,,,,,,,,,,
,,61577c2dc44ccc73b11049ee,2023-12-07_05h37.54.128,kallum_motion_pilot,2023.2.3,MacIntel,250,61577c2dc44ccc73b11049ee,6560176e4d91f764e2a42c74,657158a757ad15ef0ca313b6,0.016,0.016,0,58,58,103,1,eightseven,,,,,,,,,,,,,,,,,,,,,,,,,,,,,,,,,,,,,,,,,,,,,,,,,,,,,,,,,,,,,,,,,,,,,,,,,,,,,,,,,,,,,,,,,,,,,,,,,,,,,,,,,,,,,,,,,,,,,,,,,,,,,,,,,,,,,,,
,,61577c2dc44ccc73b11049ee,2023-12-07_05h37.54.128,kallum_motion_pilot,2023.2.3,MacIntel,250,61577c2dc44ccc73b11049ee,6560176e4d91f764e2a42c74,657158a757ad15ef0ca313b6,0.016,0.016,0,59,59,75,1,twofour,,,,,,,,,,,,,,,,,,,,,,,,,,,,,,,,,,,,,,,,,,,,,,,,,,,,,,,,,,,,,,,,,,,,,,,,,,,,,,,,,,,,,,,,,,,,,,,,,,,,,,,,,,,,,,,,,,,,,,,,,,,,,,,,,,,,,,,
,,61577c2dc44ccc73b11049ee,2023-12-07_05h37.54.128,kallum_motion_pilot,2023.2.3,MacIntel,250,61577c2dc44ccc73b11049ee,6560176e4d91f764e2a42c74,657158a757ad15ef0ca313b6,0.016,0.016,0,60,60,77,1,threefour,,,,,,,,,,,,,,,,,,,,,,,,,,,,,,,,,,,,,,,,,,,,,,,,,,,,,,,,,,,,,,,,,,,,,,,,,,,,,,,,,,,,,,,,,,,,,,,,,,,,,,,,,,,,,,,,,,,,,,,,,,,,,,,,,,,,,,,
,,61577c2dc44ccc73b11049ee,2023-12-07_05h37.54.128,kallum_motion_pilot,2023.2.3,MacIntel,250,61577c2dc44ccc73b11049ee,6560176e4d91f764e2a42c74,657158a757ad15ef0ca313b6,0.016,0.016,0,61,61,105,1,fiveseven,,,,,,,,,,,,,,,,,,,,,,,,,,,,,,,,,,,,,,,,,,,,,,,,,,,,,,,,,,,,,,,,,,,,,,,,,,,,,,,,,,,,,,,,,,,,,,,,,,,,,,,,,,,,,,,,,,,,,,,,,,,,,,,,,,,,,,,
,,61577c2dc44ccc73b11049ee,2023-12-07_05h37.54.128,kallum_motion_pilot,2023.2.3,MacIntel,250,61577c2dc44ccc73b11049ee,6560176e4d91f764e2a42c74,657158a757ad15ef0ca313b6,0.016,0.016,0,62,62,14,1,fourtwo,,,,,,,,,,,,,,,,,,,,,,,,,,,,,,,,,,,,,,,,,,,,,,,,,,,,,,,,,,,,,,,,,,,,,,,,,,,,,,,,,,,,,,,,,,,,,,,,,,,,,,,,,,,,,,,,,,,,,,,,,,,,,,,,,,,,,,,
,,61577c2dc44ccc73b11049ee,2023-12-07_05h37.54.128,kallum_motion_pilot,2023.2.3,MacIntel,250,61577c2dc44ccc73b11049ee,6560176e4d91f764e2a42c74,657158a757ad15ef0ca313b6,0.016,0.016,0,63,63,127,1,eightseven,,,,,,,,,,,,,,,,,,,,,,,,,,,,,,,,,,,,,,,,,,,,,,,,,,,,,,,,,,,,,,,,,,,,,,,,,,,,,,,,,,,,,,,,,,,,,,,,,,,,,,,,,,,,,,,,,,,,,,,,,,,,,,,,,,,,,,,
,,61577c2dc44ccc73b11049ee,2023-12-07_05h37.54.128,kallum_motion_pilot,2023.2.3,MacIntel,250,61577c2dc44ccc73b11049ee,6560176e4d91f764e2a42c74,657158a757ad15ef0ca313b6,0.016,0.016,0,64,64,18,1,twoone,,,,,,,,,,,,,,,,,,,,,,,,,,,,,,,,,,,,,,,,,,,,,,,,,,,,,,,,,,,,,,,,,,,,,,,,,,,,,,,,,,,,,,,,,,,,,,,,,,,,,,,,,,,,,,,,,,,,,,,,,,,,,,,,,,,,,,,
,,61577c2dc44ccc73b11049ee,2023-12-07_05h37.54.128,kallum_motion_pilot,2023.2.3,MacIntel,250,61577c2dc44ccc73b11049ee,6560176e4d91f764e2a42c74,657158a757ad15ef0ca313b6,0.016,0.016,0,65,65,91,1,sixeight,,,,,,,,,,,,,,,,,,,,,,,,,,,,,,,,,,,,,,,,,,,,,,,,,,,,,,,,,,,,,,,,,,,,,,,,,,,,,,,,,,,,,,,,,,,,,,,,,,,,,,,,,,,,,,,,,,,,,,,,,,,,,,,,,,,,,,,
,,61577c2dc44ccc73b11049ee,2023-12-07_05h37.54.128,kallum_motion_pilot,2023.2.3,MacIntel,250,61577c2dc44ccc73b11049ee,6560176e4d91f764e2a42c74,657158a757ad15ef0ca313b6,0.016,0.016,0,66,66,28,1,threeone,,,,,,,,,,,,,,,,,,,,,,,,,,,,,,,,,,,,,,,,,,,,,,,,,,,,,,,,,,,,,,,,,,,,,,,,,,,,,,,,,,,,,,,,,,,,,,,,,,,,,,,,,,,,,,,,,,,,,,,,,,,,,,,,,,,,,,,
,,61577c2dc44ccc73b11049ee,2023-12-07_05h37.54.128,kallum_motion_pilot,2023.2.3,MacIntel,250,61577c2dc44ccc73b11049ee,6560176e4d91f764e2a42c74,657158a757ad15ef0ca313b6,0.016,0.016,0,67,67,113,1,fiveseven,,,,,,,,,,,,,,,,,,,,,,,,,,,,,,,,,,,,,,,,,,,,,,,,,,,,,,,,,,,,,,,,,,,,,,,,,,,,,,,,,,,,,,,,,,,,,,,,,,,,,,,,,,,,,,,,,,,,,,,,,,,,,,,,,,,,,,,
,,61577c2dc44ccc73b11049ee,2023-12-07_05h37.54.128,kallum_motion_pilot,2023.2.3,MacIntel,250,61577c2dc44ccc73b11049ee,6560176e4d91f764e2a42c74,657158a757ad15ef0ca313b6,0.016,0.016,0,68,68,109,1,seveneight,,,,,,,,,,,,,,,,,,,,,,,,,,,,,,,,,,,,,,,,,,,,,,,,,,,,,,,,,,,,,,,,,,,,,,,,,,,,,,,,,,,,,,,,,,,,,,,,,,,,,,,,,,,,,,,,,,,,,,,,,,,,,,,,,,,,,,,
,,61577c2dc44ccc73b11049ee,2023-12-07_05h37.54.128,kallum_motion_pilot,2023.2.3,MacIntel,250,61577c2dc44ccc73b11049ee,6560176e4d91f764e2a42c74,657158a757ad15ef0ca313b6,0.016,0.016,0,69,69,149,1,seveneight,,,,,,,,,,,,,,,,,,,,,,,,,,,,,,,,,,,,,,,,,,,,,,,,,,,,,,,,,,,,,,,,,,,,,,,,,,,,,,,,,,,,,,,,,,,,,,,,,,,,,,,,,,,,,,,,,,,,,,,,,,,,,,,,,,,,,,,
,,61577c2dc44ccc73b11049ee,2023-12-07_05h37.54.128,kallum_motion_pilot,2023.2.3,MacIntel,250,61577c2dc44ccc73b11049ee,6560176e4d91f764e2a42c74,657158a757ad15ef0ca313b6,0.016,0.016,0,70,70,26,1,twoone,,,,,,,,,,,,,,,,,,,,,,,,,,,,,,,,,,,,,,,,,,,,,,,,,,,,,,,,,,,,,,,,,,,,,,,,,,,,,,,,,,,,,,,,,,,,,,,,,,,,,,,,,,,,,,,,,,,,,,,,,,,,,,,,,,,,,,,
,,61577c2dc44ccc73b11049ee,2023-12-07_05h37.54.128,kallum_motion_pilot,2023.2.3,MacIntel,250,61577c2dc44ccc73b11049ee,6560176e4d91f764e2a42c74,657158a757ad15ef0ca313b6,0.016,0.016,0,71,71,19,1,twofour,,,,,,,,,,,,,,,,,,,,,,,,,,,,,,,,,,,,,,,,,,,,,,,,,,,,,,,,,,,,,,,,,,,,,,,,,,,,,,,,,,,,,,,,,,,,,,,,,,,,,,,,,,,,,,,,,,,,,,,,,,,,,,,,,,,,,,,
,,61577c2dc44ccc73b11049ee,2023-12-07_05h37.54.128,kallum_motion_pilot,2023.2.3,MacIntel,250,61577c2dc44ccc73b11049ee,6560176e4d91f764e2a42c74,657158a757ad15ef0ca313b6,0.016,0.016,0,72,72,82,1,sixfive,,,,,,,,,,,,,,,,,,,,,,,,,,,,,,,,,,,,,,,,,,,,,,,,,,,,,,,,,,,,,,,,,,,,,,,,,,,,,,,,,,,,,,,,,,,,,,,,,,,,,,,,,,,,,,,,,,,,,,,,,,,,,,,,,,,,,,,
,,61577c2dc44ccc73b11049ee,2023-12-07_05h37.54.128,kallum_motion_pilot,2023.2.3,MacIntel,250,61577c2dc44ccc73b11049ee,6560176e4d91f764e2a42c74,657158a757ad15ef0ca313b6,0.016,0.016,0,73,73,110,1,eightsix,,,,,,,,,,,,,,,,,,,,,,,,,,,,,,,,,,,,,,,,,,,,,,,,,,,,,,,,,,,,,,,,,,,,,,,,,,,,,,,,,,,,,,,,,,,,,,,,,,,,,,,,,,,,,,,,,,,,,,,,,,,,,,,,,,,,,,,
,,61577c2dc44ccc73b11049ee,2023-12-07_05h37.54.128,kallum_motion_pilot,2023.2.3,MacIntel,250,61577c2dc44ccc73b11049ee,6560176e4d91f764e2a42c74,657158a757ad15ef0ca313b6,0.016,0.016,0,74,74,157,1,seveneight,,,,,,,,,,,,,,,,,,,,,,,,,,,,,,,,,,,,,,,,,,,,,,,,,,,,,,,,,,,,,,,,,,,,,,,,,,,,,,,,,,,,,,,,,,,,,,,,,,,,,,,,,,,,,,,,,,,,,,,,,,,,,,,,,,,,,,,
,,61577c2dc44ccc73b11049ee,2023-12-07_05h37.54.128,kallum_motion_pilot,2023.2.3,MacIntel,250,61577c2dc44ccc73b11049ee,6560176e4d91f764e2a42c74,657158a757ad15ef0ca313b6,0.016,0.016,0,75,75,118,1,eightsix,,,,,,,,,,,,,,,,,,,,,,,,,,,,,,,,,,,,,,,,,,,,,,,,,,,,,,,,,,,,,,,,,,,,,,,,,,,,,,,,,,,,,,,,,,,,,,,,,,,,,,,,,,,,,,,,,,,,,,,,,,,,,,,,,,,,,,,
,,61577c2dc44ccc73b11049ee,2023-12-07_05h37.54.128,kallum_motion_pilot,2023.2.3,MacIntel,250,61577c2dc44ccc73b11049ee,6560176e4d91f764e2a42c74,657158a757ad15ef0ca313b6,0.016,0.016,0,76,76,104,1,fivesix,,,,,,,,,,,,,,,,,,,,,,,,,,,,,,,,,,,,,,,,,,,,,,,,,,,,,,,,,,,,,,,,,,,,,,,,,,,,,,,,,,,,,,,,,,,,,,,,,,,,,,,,,,,,,,,,,,,,,,,,,,,,,,,,,,,,,,,
,,61577c2dc44ccc73b11049ee,2023-12-07_05h37.54.128,kallum_motion_pilot,2023.2.3,MacIntel,250,61577c2dc44ccc73b11049ee,6560176e4d91f764e2a42c74,657158a757ad15ef0ca313b6,0.016,0.016,0,77,77,119,1,eightseven,,,,,,,,,,,,,,,,,,,,,,,,,,,,,,,,,,,,,,,,,,,,,,,,,,,,,,,,,,,,,,,,,,,,,,,,,,,,,,,,,,,,,,,,,,,,,,,,,,,,,,,,,,,,,,,,,,,,,,,,,,,,,,,,,,,,,,,
,,61577c2dc44ccc73b11049ee,2023-12-07_05h37.54.128,kallum_motion_pilot,2023.2.3,MacIntel,250,61577c2dc44ccc73b11049ee,6560176e4d91f764e2a42c74,657158a757ad15ef0ca313b6,0.016,0.016,0,78,78,5,1,threefour,,,,,,,,,,,,,,,,,,,,,,,,,,,,,,,,,,,,,,,,,,,,,,,,,,,,,,,,,,,,,,,,,,,,,,,,,,,,,,,,,,,,,,,,,,,,,,,,,,,,,,,,,,,,,,,,,,,,,,,,,,,,,,,,,,,,,,,
,,61577c2dc44ccc73b11049ee,2023-12-07_05h37.54.128,kallum_motion_pilot,2023.2.3,MacIntel,250,61577c2dc44ccc73b11049ee,6560176e4d91f764e2a42c74,657158a757ad15ef0ca313b6,0.016,0.016,0,79,79,64,1,onetwo,,,,,,,,,,,,,,,,,,,,,,,,,,,,,,,,,,,,,,,,,,,,,,,,,,,,,,,,,,,,,,,,,,,,,,,,,,,,,,,,,,,,,,,,,,,,,,,,,,,,,,,,,,,,,,,,,,,,,,,,,,,,,,,,,,,,,,,
,,61577c2dc44ccc73b11049ee,2023-12-07_05h37.54.128,kallum_motion_pilot,2023.2.3,MacIntel,250,61577c2dc44ccc73b11049ee,6560176e4d91f764e2a42c74,657158a757ad15ef0ca313b6,0.016,0.016,0,80,80,106,1,sixfive,,,,,,,,,,,,,,,,,,,,,,,,,,,,,,,,,,,,,,,,,,,,,,,,,,,,,,,,,,,,,,,,,,,,,,,,,,,,,,,,,,,,,,,,,,,,,,,,,,,,,,,,,,,,,,,,,,,,,,,,,,,,,,,,,,,,,,,
,,61577c2dc44ccc73b11049ee,2023-12-07_05h37.54.128,kallum_motion_pilot,2023.2.3,MacIntel,250,61577c2dc44ccc73b11049ee,6560176e4d91f764e2a42c74,657158a757ad15ef0ca313b6,0.016,0.016,0,81,81,13,1,threefour,,,,,,,,,,,,,,,,,,,,,,,,,,,,,,,,,,,,,,,,,,,,,,,,,,,,,,,,,,,,,,,,,,,,,,,,,,,,,,,,,,,,,,,,,,,,,,,,,,,,,,,,,,,,,,,,,,,,,,,,,,,,,,,,,,,,,,,
,,61577c2dc44ccc73b11049ee,2023-12-07_05h37.54.128,kallum_motion_pilot,2023.2.3,MacIntel,250,61577c2dc44ccc73b11049ee,6560176e4d91f764e2a42c74,657158a757ad15ef0ca313b6,0.016,0.016,0,82,82,42,1,twoone,,,,,,,,,,,,,,,,,,,,,,,,,,,,,,,,,,,,,,,,,,,,,,,,,,,,,,,,,,,,,,,,,,,,,,,,,,,,,,,,,,,,,,,,,,,,,,,,,,,,,,,,,,,,,,,,,,,,,,,,,,,,,,,,,,,,,,,
,,61577c2dc44ccc73b11049ee,2023-12-07_05h37.54.128,kallum_motion_pilot,2023.2.3,MacIntel,250,61577c2dc44ccc73b11049ee,6560176e4d91f764e2a42c74,657158a757ad15ef0ca313b6,0.017,0.017,0,83,83,93,1,seveneight,,,,,,,,,,,,,,,,,,,,,,,,,,,,,,,,,,,,,,,,,,,,,,,,,,,,,,,,,,,,,,,,,,,,,,,,,,,,,,,,,,,,,,,,,,,,,,,,,,,,,,,,,,,,,,,,,,,,,,,,,,,,,,,,,,,,,,,
,,61577c2dc44ccc73b11049ee,2023-12-07_05h37.54.128,kallum_motion_pilot,2023.2.3,MacIntel,250,61577c2dc44ccc73b11049ee,6560176e4d91f764e2a42c74,657158a757ad15ef0ca313b6,0.017,0.017,0,84,84,0,1,onetwo,,,,,,,,,,,,,,,,,,,,,,,,,,,,,,,,,,,,,,,,,,,,,,,,,,,,,,,,,,,,,,,,,,,,,,,,,,,,,,,,,,,,,,,,,,,,,,,,,,,,,,,,,,,,,,,,,,,,,,,,,,,,,,,,,,,,,,,
,,61577c2dc44ccc73b11049ee,2023-12-07_05h37.54.128,kallum_motion_pilot,2023.2.3,MacIntel,250,61577c2dc44ccc73b11049ee,6560176e4d91f764e2a42c74,657158a757ad15ef0ca313b6,0.017,0.017,0,85,85,124,1,sevenfive,,,,,,,,,,,,,,,,,,,,,,,,,,,,,,,,,,,,,,,,,,,,,,,,,,,,,,,,,,,,,,,,,,,,,,,,,,,,,,,,,,,,,,,,,,,,,,,,,,,,,,,,,,,,,,,,,,,,,,,,,,,,,,,,,,,,,,,
,,61577c2dc44ccc73b11049ee,2023-12-07_05h37.54.128,kallum_motion_pilot,2023.2.3,MacIntel,250,61577c2dc44ccc73b11049ee,6560176e4d91f764e2a42c74,657158a757ad15ef0ca313b6,0.017,0.017,0,86,86,102,1,eightsix,,,,,,,,,,,,,,,,,,,,,,,,,,,,,,,,,,,,,,,,,,,,,,,,,,,,,,,,,,,,,,,,,,,,,,,,,,,,,,,,,,,,,,,,,,,,,,,,,,,,,,,,,,,,,,,,,,,,,,,,,,,,,,,,,,,,,,,
,,61577c2dc44ccc73b11049ee,2023-12-07_05h37.54.128,kallum_motion_pilot,2023.2.3,MacIntel,250,61577c2dc44ccc73b11049ee,6560176e4d91f764e2a42c74,657158a757ad15ef0ca313b6,0.017,0.017,0,87,87,35,1,twofour,,,,,,,,,,,,,,,,,,,,,,,,,,,,,,,,,,,,,,,,,,,,,,,,,,,,,,,,,,,,,,,,,,,,,,,,,,,,,,,,,,,,,,,,,,,,,,,,,,,,,,,,,,,,,,,,,,,,,,,,,,,,,,,,,,,,,,,
,,61577c2dc44ccc73b11049ee,2023-12-07_05h37.54.128,kallum_motion_pilot,2023.2.3,MacIntel,250,61577c2dc44ccc73b11049ee,6560176e4d91f764e2a42c74,657158a757ad15ef0ca313b6,0.017,0.017,0,88,88,11,1,twofour,,,,,,,,,,,,,,,,,,,,,,,,,,,,,,,,,,,,,,,,,,,,,,,,,,,,,,,,,,,,,,,,,,,,,,,,,,,,,,,,,,,,,,,,,,,,,,,,,,,,,,,,,,,,,,,,,,,,,,,,,,,,,,,,,,,,,,,
,,61577c2dc44ccc73b11049ee,2023-12-07_05h37.54.128,kallum_motion_pilot,2023.2.3,MacIntel,250,61577c2dc44ccc73b11049ee,6560176e4d91f764e2a42c74,657158a757ad15ef0ca313b6,0.017,0.017,0,89,89,29,1,threefour,,,,,,,,,,,,,,,,,,,,,,,,,,,,,,,,,,,,,,,,,,,,,,,,,,,,,,,,,,,,,,,,,,,,,,,,,,,,,,,,,,,,,,,,,,,,,,,,,,,,,,,,,,,,,,,,,,,,,,,,,,,,,,,,,,,,,,,
,,61577c2dc44ccc73b11049ee,2023-12-07_05h37.54.128,kallum_motion_pilot,2023.2.3,MacIntel,250,61577c2dc44ccc73b11049ee,6560176e4d91f764e2a42c74,657158a757ad15ef0ca313b6,0.017,0.017,0,90,90,39,1,fourthree,,,,,,,,,,,,,,,,,,,,,,,,,,,,,,,,,,,,,,,,,,,,,,,,,,,,,,,,,,,,,,,,,,,,,,,,,,,,,,,,,,,,,,,,,,,,,,,,,,,,,,,,,,,,,,,,,,,,,,,,,,,,,,,,,,,,,,,
,,61577c2dc44ccc73b11049ee,2023-12-07_05h37.54.128,kallum_motion_pilot,2023.2.3,MacIntel,250,61577c2dc44ccc73b11049ee,6560176e4d91f764e2a42c74,657158a757ad15ef0ca313b6,0.017,0.017,0,91,91,70,1,fourtwo,,,,,,,,,,,,,,,,,,,,,,,,,,,,,,,,,,,,,,,,,,,,,,,,,,,,,,,,,,,,,,,,,,,,,,,,,,,,,,,,,,,,,,,,,,,,,,,,,,,,,,,,,,,,,,,,,,,,,,,,,,,,,,,,,,,,,,,
,,61577c2dc44ccc73b11049ee,2023-12-07_05h37.54.128,kallum_motion_pilot,2023.2.3,MacIntel,250,61577c2dc44ccc73b11049ee,6560176e4d91f764e2a42c74,657158a757ad15ef0ca313b6,0.017,0.017,0,92,92,45,1,threefour,,,,,,,,,,,,,,,,,,,,,,,,,,,,,,,,,,,,,,,,,,,,,,,,,,,,,,,,,,,,,,,,,,,,,,,,,,,,,,,,,,,,,,,,,,,,,,,,,,,,,,,,,,,,,,,,,,,,,,,,,,,,,,,,,,,,,,,
,,61577c2dc44ccc73b11049ee,2023-12-07_05h37.54.128,kallum_motion_pilot,2023.2.3,MacIntel,250,61577c2dc44ccc73b11049ee,6560176e4d91f764e2a42c74,657158a757ad15ef0ca313b6,0.017,0.017,0,93,93,100,1,sevenfive,,,,,,,,,,,,,,,,,,,,,,,,,,,,,,,,,,,,,,,,,,,,,,,,,,,,,,,,,,,,,,,,,,,,,,,,,,,,,,,,,,,,,,,,,,,,,,,,,,,,,,,,,,,,,,,,,,,,,,,,,,,,,,,,,,,,,,,
,,61577c2dc44ccc73b11049ee,2023-12-07_05h37.54.128,kallum_motion_pilot,2023.2.3,MacIntel,250,61577c2dc44ccc73b11049ee,6560176e4d91f764e2a42c74,657158a757ad15ef0ca313b6,0.017,0.017,0,94,94,131,1,sixeight,,,,,,,,,,,,,,,,,,,,,,,,,,,,,,,,,,,,,,,,,,,,,,,,,,,,,,,,,,,,,,,,,,,,,,,,,,,,,,,,,,,,,,,,,,,,,,,,,,,,,,,,,,,,,,,,,,,,,,,,,,,,,,,,,,,,,,,
,,61577c2dc44ccc73b11049ee,2023-12-07_05h37.54.128,kallum_motion_pilot,2023.2.3,MacIntel,250,61577c2dc44ccc73b11049ee,6560176e4d91f764e2a42c74,657158a757ad15ef0ca313b6,0.017,0.017,0,95,95,57,1,onethree,,,,,,,,,,,,,,,,,,,,,,,,,,,,,,,,,,,,,,,,,,,,,,,,,,,,,,,,,,,,,,,,,,,,,,,,,,,,,,,,,,,,,,,,,,,,,,,,,,,,,,,,,,,,,,,,,,,,,,,,,,,,,,,,,,,,,,,
,,61577c2dc44ccc73b11049ee,2023-12-07_05h37.54.128,kallum_motion_pilot,2023.2.3,MacIntel,250,61577c2dc44ccc73b11049ee,6560176e4d91f764e2a42c74,657158a757ad15ef0ca313b6,0.017,0.017,0,96,96,48,1,onetwo,,,,,,,,,,,,,,,,,,,,,,,,,,,,,,,,,,,,,,,,,,,,,,,,,,,,,,,,,,,,,,,,,,,,,,,,,,,,,,,,,,,,,,,,,,,,,,,,,,,,,,,,,,,,,,,,,,,,,,,,,,,,,,,,,,,,,,,
,,61577c2dc44ccc73b11049ee,2023-12-07_05h37.54.128,kallum_motion_pilot,2023.2.3,MacIntel,250,61577c2dc44ccc73b11049ee,6560176e4d91f764e2a42c74,657158a757ad15ef0ca313b6,0.017,0.017,0,97,97,150,1,eightsix,,,,,,,,,,,,,,,,,,,,,,,,,,,,,,,,,,,,,,,,,,,,,,,,,,,,,,,,,,,,,,,,,,,,,,,,,,,,,,,,,,,,,,,,,,,,,,,,,,,,,,,,,,,,,,,,,,,,,,,,,,,,,,,,,,,,,,,
,,61577c2dc44ccc73b11049ee,2023-12-07_05h37.54.128,kallum_motion_pilot,2023.2.3,MacIntel,250,61577c2dc44ccc73b11049ee,6560176e4d91f764e2a42c74,657158a757ad15ef0ca313b6,0.017,0.017,0,98,98,71,1,fourthree,,,,,,,,,,,,,,,,,,,,,,,,,,,,,,,,,,,,,,,,,,,,,,,,,,,,,,,,,,,,,,,,,,,,,,,,,,,,,,,,,,,,,,,,,,,,,,,,,,,,,,,,,,,,,,,,,,,,,,,,,,,,,,,,,,,,,,,
,,61577c2dc44ccc73b11049ee,2023-12-07_05h37.54.128,kallum_motion_pilot,2023.2.3,MacIntel,250,61577c2dc44ccc73b11049ee,6560176e4d91f764e2a42c74,657158a757ad15ef0ca313b6,0.017,0.017,0,99,99,97,1,fiveseven,,,,,,,,,,,,,,,,,,,,,,,,,,,,,,,,,,,,,,,,,,,,,,,,,,,,,,,,,,,,,,,,,,,,,,,,,,,,,,,,,,,,,,,,,,,,,,,,,,,,,,,,,,,,,,,,,,,,,,,,,,,,,,,,,,,,,,,
,,61577c2dc44ccc73b11049ee,2023-12-07_05h37.54.128,kallum_motion_pilot,2023.2.3,MacIntel,250,61577c2dc44ccc73b11049ee,6560176e4d91f764e2a42c74,657158a757ad15ef0ca313b6,0.017,0.017,0,100,100,44,1,threeone,,,,,,,,,,,,,,,,,,,,,,,,,,,,,,,,,,,,,,,,,,,,,,,,,,,,,,,,,,,,,,,,,,,,,,,,,,,,,,,,,,,,,,,,,,,,,,,,,,,,,,,,,,,,,,,,,,,,,,,,,,,,,,,,,,,,,,,
,,61577c2dc44ccc73b11049ee,2023-12-07_05h37.54.128,kallum_motion_pilot,2023.2.3,MacIntel,250,61577c2dc44ccc73b11049ee,6560176e4d91f764e2a42c74,657158a757ad15ef0ca313b6,0.017,0.017,0,101,101,60,1,threeone,,,,,,,,,,,,,,,,,,,,,,,,,,,,,,,,,,,,,,,,,,,,,,,,,,,,,,,,,,,,,,,,,,,,,,,,,,,,,,,,,,,,,,,,,,,,,,,,,,,,,,,,,,,,,,,,,,,,,,,,,,,,,,,,,,,,,,,
,,61577c2dc44ccc73b11049ee,2023-12-07_05h37.54.128,kallum_motion_pilot,2023.2.3,MacIntel,250,61577c2dc44ccc73b11049ee,6560176e4d91f764e2a42c74,657158a757ad15ef0ca313b6,0.017,0.017,0,102,102,3,1,twofour,,,,,,,,,,,,,,,,,,,,,,,,,,,,,,,,,,,,,,,,,,,,,,,,,,,,,,,,,,,,,,,,,,,,,,,,,,,,,,,,,,,,,,,,,,,,,,,,,,,,,,,,,,,,,,,,,,,,,,,,,,,,,,,,,,,,,,,
,,61577c2dc44ccc73b11049ee,2023-12-07_05h37.54.128,kallum_motion_pilot,2023.2.3,MacIntel,250,61577c2dc44ccc73b11049ee,6560176e4d91f764e2a42c74,657158a757ad15ef0ca313b6,0.017,0.017,0,103,103,153,1,fiveseven,,,,,,,,,,,,,,,,,,,,,,,,,,,,,,,,,,,,,,,,,,,,,,,,,,,,,,,,,,,,,,,,,,,,,,,,,,,,,,,,,,,,,,,,,,,,,,,,,,,,,,,,,,,,,,,,,,,,,,,,,,,,,,,,,,,,,,,
,,61577c2dc44ccc73b11049ee,2023-12-07_05h37.54.128,kallum_motion_pilot,2023.2.3,MacIntel,250,61577c2dc44ccc73b11049ee,6560176e4d91f764e2a42c74,657158a757ad15ef0ca313b6,0.017,0.017,0,104,104,8,1,onetwo,,,,,,,,,,,,,,,,,,,,,,,,,,,,,,,,,,,,,,,,,,,,,,,,,,,,,,,,,,,,,,,,,,,,,,,,,,,,,,,,,,,,,,,,,,,,,,,,,,,,,,,,,,,,,,,,,,,,,,,,,,,,,,,,,,,,,,,
,,61577c2dc44ccc73b11049ee,2023-12-07_05h37.54.128,kallum_motion_pilot,2023.2.3,MacIntel,250,61577c2dc44ccc73b11049ee,6560176e4d91f764e2a42c74,657158a757ad15ef0ca313b6,0.017,0.017,0,105,105,7,1,fourthree,,,,,,,,,,,,,,,,,,,,,,,,,,,,,,,,,,,,,,,,,,,,,,,,,,,,,,,,,,,,,,,,,,,,,,,,,,,,,,,,,,,,,,,,,,,,,,,,,,,,,,,,,,,,,,,,,,,,,,,,,,,,,,,,,,,,,,,
,,61577c2dc44ccc73b11049ee,2023-12-07_05h37.54.128,kallum_motion_pilot,2023.2.3,MacIntel,250,61577c2dc44ccc73b11049ee,6560176e4d91f764e2a42c74,657158a757ad15ef0ca313b6,0.017,0.017,0,106,106,158,1,eightsix,,,,,,,,,,,,,,,,,,,,,,,,,,,,,,,,,,,,,,,,,,,,,,,,,,,,,,,,,,,,,,,,,,,,,,,,,,,,,,,,,,,,,,,,,,,,,,,,,,,,,,,,,,,,,,,,,,,,,,,,,,,,,,,,,,,,,,,
,,61577c2dc44ccc73b11049ee,2023-12-07_05h37.54.128,kallum_motion_pilot,2023.2.3,MacIntel,250,61577c2dc44ccc73b11049ee,6560176e4d91f764e2a42c74,657158a757ad15ef0ca313b6,0.017,0.017,0,107,107,62,1,fourtwo,,,,,,,,,,,,,,,,,,,,,,,,,,,,,,,,,,,,,,,,,,,,,,,,,,,,,,,,,,,,,,,,,,,,,,,,,,,,,,,,,,,,,,,,,,,,,,,,,,,,,,,,,,,,,,,,,,,,,,,,,,,,,,,,,,,,,,,
,,61577c2dc44ccc73b11049ee,2023-12-07_05h37.54.128,kallum_motion_pilot,2023.2.3,MacIntel,250,61577c2dc44ccc73b11049ee,6560176e4d91f764e2a42c74,657158a757ad15ef0ca313b6,0.017,0.017,0,108,108,53,1,threefour,,,,,,,,,,,,,,,,,,,,,,,,,,,,,,,,,,,,,,,,,,,,,,,,,,,,,,,,,,,,,,,,,,,,,,,,,,,,,,,,,,,,,,,,,,,,,,,,,,,,,,,,,,,,,,,,,,,,,,,,,,,,,,,,,,,,,,,
,,61577c2dc44ccc73b11049ee,2023-12-07_05h37.54.128,kallum_motion_pilot,2023.2.3,MacIntel,250,61577c2dc44ccc73b11049ee,6560176e4d91f764e2a42c74,657158a757ad15ef0ca313b6,0.017,0.017,0,109,109,136,1,fivesix,,,,,,,,,,,,,,,,,,,,,,,,,,,,,,,,,,,,,,,,,,,,,,,,,,,,,,,,,,,,,,,,,,,,,,,,,,,,,,,,,,,,,,,,,,,,,,,,,,,,,,,,,,,,,,,,,,,,,,,,,,,,,,,,,,,,,,,
,,61577c2dc44ccc73b11049ee,2023-12-07_05h37.54.128,kallum_motion_pilot,2023.2.3,MacIntel,250,61577c2dc44ccc73b11049ee,6560176e4d91f764e2a42c74,657158a757ad15ef0ca313b6,0.017,0.017,0,110,110,152,1,fivesix,,,,,,,,,,,,,,,,,,,,,,,,,,,,,,,,,,,,,,,,,,,,,,,,,,,,,,,,,,,,,,,,,,,,,,,,,,,,,,,,,,,,,,,,,,,,,,,,,,,,,,,,,,,,,,,,,,,,,,,,,,,,,,,,,,,,,,,
,,61577c2dc44ccc73b11049ee,2023-12-07_05h37.54.128,kallum_motion_pilot,2023.2.3,MacIntel,250,61577c2dc44ccc73b11049ee,6560176e4d91f764e2a42c74,657158a757ad15ef0ca313b6,0.017,0.017,0,111,111,72,1,onetwo,,,,,,,,,,,,,,,,,,,,,,,,,,,,,,,,,,,,,,,,,,,,,,,,,,,,,,,,,,,,,,,,,,,,,,,,,,,,,,,,,,,,,,,,,,,,,,,,,,,,,,,,,,,,,,,,,,,,,,,,,,,,,,,,,,,,,,,
,,61577c2dc44ccc73b11049ee,2023-12-07_05h37.54.128,kallum_motion_pilot,2023.2.3,MacIntel,250,61577c2dc44ccc73b11049ee,6560176e4d91f764e2a42c74,657158a757ad15ef0ca313b6,0.017,0.017,0,112,112,58,1,twoone,,,,,,,,,,,,,,,,,,,,,,,,,,,,,,,,,,,,,,,,,,,,,,,,,,,,,,,,,,,,,,,,,,,,,,,,,,,,,,,,,,,,,,,,,,,,,,,,,,,,,,,,,,,,,,,,,,,,,,,,,,,,,,,,,,,,,,,
,,61577c2dc44ccc73b11049ee,2023-12-07_05h37.54.128,kallum_motion_pilot,2023.2.3,MacIntel,250,61577c2dc44ccc73b11049ee,6560176e4d91f764e2a42c74,657158a757ad15ef0ca313b6,0.017,0.017,0,113,113,74,1,twoone,,,,,,,,,,,,,,,,,,,,,,,,,,,,,,,,,,,,,,,,,,,,,,,,,,,,,,,,,,,,,,,,,,,,,,,,,,,,,,,,,,,,,,,,,,,,,,,,,,,,,,,,,,,,,,,,,,,,,,,,,,,,,,,,,,,,,,,
,,61577c2dc44ccc73b11049ee,2023-12-07_05h37.54.128,kallum_motion_pilot,2023.2.3,MacIntel,250,61577c2dc44ccc73b11049ee,6560176e4d91f764e2a42c74,657158a757ad15ef0ca313b6,0.017,0.017,0,114,114,1,1,onethree,,,,,,,,,,,,,,,,,,,,,,,,,,,,,,,,,,,,,,,,,,,,,,,,,,,,,,,,,,,,,,,,,,,,,,,,,,,,,,,,,,,,,,,,,,,,,,,,,,,,,,,,,,,,,,,,,,,,,,,,,,,,,,,,,,,,,,,
,,61577c2dc44ccc73b11049ee,2023-12-07_05h37.54.128,kallum_motion_pilot,2023.2.3,MacIntel,250,61577c2dc44ccc73b11049ee,6560176e4d91f764e2a42c74,657158a757ad15ef0ca313b6,0.017,0.017,0,115,115,31,1,fourthree,,,,,,,,,,,,,,,,,,,,,,,,,,,,,,,,,,,,,,,,,,,,,,,,,,,,,,,,,,,,,,,,,,,,,,,,,,,,,,,,,,,,,,,,,,,,,,,,,,,,,,,,,,,,,,,,,,,,,,,,,,,,,,,,,,,,,,,
,,61577c2dc44ccc73b11049ee,2023-12-07_05h37.54.128,kallum_motion_pilot,2023.2.3,MacIntel,250,61577c2dc44ccc73b11049ee,6560176e4d91f764e2a42c74,657158a757ad15ef0ca313b6,0.017,0.017,0,116,116,138,1,sixfive,,,,,,,,,,,,,,,,,,,,,,,,,,,,,,,,,,,,,,,,,,,,,,,,,,,,,,,,,,,,,,,,,,,,,,,,,,,,,,,,,,,,,,,,,,,,,,,,,,,,,,,,,,,,,,,,,,,,,,,,,,,,,,,,,,,,,,,
,,61577c2dc44ccc73b11049ee,2023-12-07_05h37.54.128,kallum_motion_pilot,2023.2.3,MacIntel,250,61577c2dc44ccc73b11049ee,6560176e4d91f764e2a42c74,657158a757ad15ef0ca313b6,0.017,0.017,0,117,117,92,1,sevenfive,,,,,,,,,,,,,,,,,,,,,,,,,,,,,,,,,,,,,,,,,,,,,,,,,,,,,,,,,,,,,,,,,,,,,,,,,,,,,,,,,,,,,,,,,,,,,,,,,,,,,,,,,,,,,,,,,,,,,,,,,,,,,,,,,,,,,,,
,,61577c2dc44ccc73b11049ee,2023-12-07_05h37.54.128,kallum_motion_pilot,2023.2.3,MacIntel,250,61577c2dc44ccc73b11049ee,6560176e4d91f764e2a42c74,657158a757ad15ef0ca313b6,0.017,0.017,0,118,118,17,1,onethree,,,,,,,,,,,,,,,,,,,,,,,,,,,,,,,,,,,,,,,,,,,,,,,,,,,,,,,,,,,,,,,,,,,,,,,,,,,,,,,,,,,,,,,,,,,,,,,,,,,,,,,,,,,,,,,,,,,,,,,,,,,,,,,,,,,,,,,
,,61577c2dc44ccc73b11049ee,2023-12-07_05h37.54.128,kallum_motion_pilot,2023.2.3,MacIntel,250,61577c2dc44ccc73b11049ee,6560176e4d91f764e2a42c74,657158a757ad15ef0ca313b6,0.017,0.017,0,119,119,142,1,eightsix,,,,,,,,,,,,,,,,,,,,,,,,,,,,,,,,,,,,,,,,,,,,,,,,,,,,,,,,,,,,,,,,,,,,,,,,,,,,,,,,,,,,,,,,,,,,,,,,,,,,,,,,,,,,,,,,,,,,,,,,,,,,,,,,,,,,,,,
,,61577c2dc44ccc73b11049ee,2023-12-07_05h37.54.128,kallum_motion_pilot,2023.2.3,MacIntel,250,61577c2dc44ccc73b11049ee,6560176e4d91f764e2a42c74,657158a757ad15ef0ca313b6,0.017,0.017,0,120,120,120,1,fivesix,,,,,,,,,,,,,,,,,,,,,,,,,,,,,,,,,,,,,,,,,,,,,,,,,,,,,,,,,,,,,,,,,,,,,,,,,,,,,,,,,,,,,,,,,,,,,,,,,,,,,,,,,,,,,,,,,,,,,,,,,,,,,,,,,,,,,,,
,,61577c2dc44ccc73b11049ee,2023-12-07_05h37.54.128,kallum_motion_pilot,2023.2.3,MacIntel,250,61577c2dc44ccc73b11049ee,6560176e4d91f764e2a42c74,657158a757ad15ef0ca313b6,0.017,0.017,0,121,121,59,1,twofour,,,,,,,,,,,,,,,,,,,,,,,,,,,,,,,,,,,,,,,,,,,,,,,,,,,,,,,,,,,,,,,,,,,,,,,,,,,,,,,,,,,,,,,,,,,,,,,,,,,,,,,,,,,,,,,,,,,,,,,,,,,,,,,,,,,,,,,
,,61577c2dc44ccc73b11049ee,2023-12-07_05h37.54.128,kallum_motion_pilot,2023.2.3,MacIntel,250,61577c2dc44ccc73b11049ee,6560176e4d91f764e2a42c74,657158a757ad15ef0ca313b6,0.017,0.017,0,122,122,12,1,threeone,,,,,,,,,,,,,,,,,,,,,,,,,,,,,,,,,,,,,,,,,,,,,,,,,,,,,,,,,,,,,,,,,,,,,,,,,,,,,,,,,,,,,,,,,,,,,,,,,,,,,,,,,,,,,,,,,,,,,,,,,,,,,,,,,,,,,,,
,,61577c2dc44ccc73b11049ee,2023-12-07_05h37.54.128,kallum_motion_pilot,2023.2.3,MacIntel,250,61577c2dc44ccc73b11049ee,6560176e4d91f764e2a42c74,657158a757ad15ef0ca313b6,0.017,0.017,0,123,123,20,1,threeone,,,,,,,,,,,,,,,,,,,,,,,,,,,,,,,,,,,,,,,,,,,,,,,,,,,,,,,,,,,,,,,,,,,,,,,,,,,,,,,,,,,,,,,,,,,,,,,,,,,,,,,,,,,,,,,,,,,,,,,,,,,,,,,,,,,,,,,
,,61577c2dc44ccc73b11049ee,2023-12-07_05h37.54.128,kallum_motion_pilot,2023.2.3,MacIntel,250,61577c2dc44ccc73b11049ee,6560176e4d91f764e2a42c74,657158a757ad15ef0ca313b6,0.018,0.018,0,124,124,52,1,threeone,,,,,,,,,,,,,,,,,,,,,,,,,,,,,,,,,,,,,,,,,,,,,,,,,,,,,,,,,,,,,,,,,,,,,,,,,,,,,,,,,,,,,,,,,,,,,,,,,,,,,,,,,,,,,,,,,,,,,,,,,,,,,,,,,,,,,,,
,,61577c2dc44ccc73b11049ee,2023-12-07_05h37.54.128,kallum_motion_pilot,2023.2.3,MacIntel,250,61577c2dc44ccc73b11049ee,6560176e4d91f764e2a42c74,657158a757ad15ef0ca313b6,0.018,0.018,0,125,125,125,1,seveneight,,,,,,,,,,,,,,,,,,,,,,,,,,,,,,,,,,,,,,,,,,,,,,,,,,,,,,,,,,,,,,,,,,,,,,,,,,,,,,,,,,,,,,,,,,,,,,,,,,,,,,,,,,,,,,,,,,,,,,,,,,,,,,,,,,,,,,,
,,61577c2dc44ccc73b11049ee,2023-12-07_05h37.54.128,kallum_motion_pilot,2023.2.3,MacIntel,250,61577c2dc44ccc73b11049ee,6560176e4d91f764e2a42c74,657158a757ad15ef0ca313b6,0.018,0.018,0,126,126,145,1,fiveseven,,,,,,,,,,,,,,,,,,,,,,,,,,,,,,,,,,,,,,,,,,,,,,,,,,,,,,,,,,,,,,,,,,,,,,,,,,,,,,,,,,,,,,,,,,,,,,,,,,,,,,,,,,,,,,,,,,,,,,,,,,,,,,,,,,,,,,,
,,61577c2dc44ccc73b11049ee,2023-12-07_05h37.54.128,kallum_motion_pilot,2023.2.3,MacIntel,250,61577c2dc44ccc73b11049ee,6560176e4d91f764e2a42c74,657158a757ad15ef0ca313b6,0.018,0.018,0,127,127,40,1,onetwo,,,,,,,,,,,,,,,,,,,,,,,,,,,,,,,,,,,,,,,,,,,,,,,,,,,,,,,,,,,,,,,,,,,,,,,,,,,,,,,,,,,,,,,,,,,,,,,,,,,,,,,,,,,,,,,,,,,,,,,,,,,,,,,,,,,,,,,
,,61577c2dc44ccc73b11049ee,2023-12-07_05h37.54.128,kallum_motion_pilot,2023.2.3,MacIntel,250,61577c2dc44ccc73b11049ee,6560176e4d91f764e2a42c74,657158a757ad15ef0ca313b6,0.018,0.018,0,128,128,30,1,fourtwo,,,,,,,,,,,,,,,,,,,,,,,,,,,,,,,,,,,,,,,,,,,,,,,,,,,,,,,,,,,,,,,,,,,,,,,,,,,,,,,,,,,,,,,,,,,,,,,,,,,,,,,,,,,,,,,,,,,,,,,,,,,,,,,,,,,,,,,
,,61577c2dc44ccc73b11049ee,2023-12-07_05h37.54.128,kallum_motion_pilot,2023.2.3,MacIntel,250,61577c2dc44ccc73b11049ee,6560176e4d91f764e2a42c74,657158a757ad15ef0ca313b6,0.018,0.018,0,129,129,143,1,eightseven,,,,,,,,,,,,,,,,,,,,,,,,,,,,,,,,,,,,,,,,,,,,,,,,,,,,,,,,,,,,,,,,,,,,,,,,,,,,,,,,,,,,,,,,,,,,,,,,,,,,,,,,,,,,,,,,,,,,,,,,,,,,,,,,,,,,,,,
,,61577c2dc44ccc73b11049ee,2023-12-07_05h37.54.128,kallum_motion_pilot,2023.2.3,MacIntel,250,61577c2dc44ccc73b11049ee,6560176e4d91f764e2a42c74,657158a757ad15ef0ca313b6,0.018,0.018,0,130,130,114,1,sixfive,,,,,,,,,,,,,,,,,,,,,,,,,,,,,,,,,,,,,,,,,,,,,,,,,,,,,,,,,,,,,,,,,,,,,,,,,,,,,,,,,,,,,,,,,,,,,,,,,,,,,,,,,,,,,,,,,,,,,,,,,,,,,,,,,,,,,,,
,,61577c2dc44ccc73b11049ee,2023-12-07_05h37.54.128,kallum_motion_pilot,2023.2.3,MacIntel,250,61577c2dc44ccc73b11049ee,6560176e4d91f764e2a42c74,657158a757ad15ef0ca313b6,0.018,0.018,0,131,131,27,1,twofour,,,,,,,,,,,,,,,,,,,,,,,,,,,,,,,,,,,,,,,,,,,,,,,,,,,,,,,,,,,,,,,,,,,,,,,,,,,,,,,,,,,,,,,,,,,,,,,,,,,,,,,,,,,,,,,,,,,,,,,,,,,,,,,,,,,,,,,
,,61577c2dc44ccc73b11049ee,2023-12-07_05h37.54.128,kallum_motion_pilot,2023.2.3,MacIntel,250,61577c2dc44ccc73b11049ee,6560176e4d91f764e2a42c74,657158a757ad15ef0ca313b6,0.018,0.018,0,132,132,73,1,onethree,,,,,,,,,,,,,,,,,,,,,,,,,,,,,,,,,,,,,,,,,,,,,,,,,,,,,,,,,,,,,,,,,,,,,,,,,,,,,,,,,,,,,,,,,,,,,,,,,,,,,,,,,,,,,,,,,,,,,,,,,,,,,,,,,,,,,,,
,,61577c2dc44ccc73b11049ee,2023-12-07_05h37.54.128,kallum_motion_pilot,2023.2.3,MacIntel,250,61577c2dc44ccc73b11049ee,6560176e4d91f764e2a42c74,657158a757ad15ef0ca313b6,0.018,0.018,0,133,133,161,1,fiveseven,,,,,,,,,,,,,,,,,,,,,,,,,,,,,,,,,,,,,,,,,,,,,,,,,,,,,,,,,,,,,,,,,,,,,,,,,,,,,,,,,,,,,,,,,,,,,,,,,,,,,,,,,,,,,,,,,,,,,,,,,,,,,,,,,,,,,,,
,,61577c2dc44ccc73b11049ee,2023-12-07_05h37.54.128,kallum_motion_pilot,2023.2.3,MacIntel,250,61577c2dc44ccc73b11049ee,6560176e4d91f764e2a42c74,657158a757ad15ef0ca313b6,0.018,0.018,0,134,134,94,1,eightsix,,,,,,,,,,,,,,,,,,,,,,,,,,,,,,,,,,,,,,,,,,,,,,,,,,,,,,,,,,,,,,,,,,,,,,,,,,,,,,,,,,,,,,,,,,,,,,,,,,,,,,,,,,,,,,,,,,,,,,,,,,,,,,,,,,,,,,,
,,61577c2dc44ccc73b11049ee,2023-12-07_05h37.54.128,kallum_motion_pilot,2023.2.3,MacIntel,250,61577c2dc44ccc73b11049ee,6560176e4d91f764e2a42c74,657158a757ad15ef0ca313b6,0.018,0.018,0,135,135,81,1,fiveseven,,,,,,,,,,,,,,,,,,,,,,,,,,,,,,,,,,,,,,,,,,,,,,,,,,,,,,,,,,,,,,,,,,,,,,,,,,,,,,,,,,,,,,,,,,,,,,,,,,,,,,,,,,,,,,,,,,,,,,,,,,,,,,,,,,,,,,,
,,61577c2dc44ccc73b11049ee,2023-12-07_05h37.54.128,kallum_motion_pilot,2023.2.3,MacIntel,250,61577c2dc44ccc73b11049ee,6560176e4d91f764e2a42c74,657158a757ad15ef0ca313b6,0.018,0.018,0,136,136,128,1,fivesix,,,,,,,,,,,,,,,,,,,,,,,,,,,,,,,,,,,,,,,,,,,,,,,,,,,,,,,,,,,,,,,,,,,,,,,,,,,,,,,,,,,,,,,,,,,,,,,,,,,,,,,,,,,,,,,,,,,,,,,,,,,,,,,,,,,,,,,
,,61577c2dc44ccc73b11049ee,2023-12-07_05h37.54.128,kallum_motion_pilot,2023.2.3,MacIntel,250,61577c2dc44ccc73b11049ee,6560176e4d91f764e2a42c74,657158a757ad15ef0ca313b6,0.018,0.018,0,137,137,47,1,fourthree,,,,,,,,,,,,,,,,,,,,,,,,,,,,,,,,,,,,,,,,,,,,,,,,,,,,,,,,,,,,,,,,,,,,,,,,,,,,,,,,,,,,,,,,,,,,,,,,,,,,,,,,,,,,,,,,,,,,,,,,,,,,,,,,,,,,,,,
,,61577c2dc44ccc73b11049ee,2023-12-07_05h37.54.128,kallum_motion_pilot,2023.2.3,MacIntel,250,61577c2dc44ccc73b11049ee,6560176e4d91f764e2a42c74,657158a757ad15ef0ca313b6,0.018,0.018,0,138,138,154,1,sixfive,,,,,,,,,,,,,,,,,,,,,,,,,,,,,,,,,,,,,,,,,,,,,,,,,,,,,,,,,,,,,,,,,,,,,,,,,,,,,,,,,,,,,,,,,,,,,,,,,,,,,,,,,,,,,,,,,,,,,,,,,,,,,,,,,,,,,,,
,,61577c2dc44ccc73b11049ee,2023-12-07_05h37.54.128,kallum_motion_pilot,2023.2.3,MacIntel,250,61577c2dc44ccc73b11049ee,6560176e4d91f764e2a42c74,657158a757ad15ef0ca313b6,0.018,0.018,0,139,139,140,1,sevenfive,,,,,,,,,,,,,,,,,,,,,,,,,,,,,,,,,,,,,,,,,,,,,,,,,,,,,,,,,,,,,,,,,,,,,,,,,,,,,,,,,,,,,,,,,,,,,,,,,,,,,,,,,,,,,,,,,,,,,,,,,,,,,,,,,,,,,,,
,,61577c2dc44ccc73b11049ee,2023-12-07_05h37.54.128,kallum_motion_pilot,2023.2.3,MacIntel,250,61577c2dc44ccc73b11049ee,6560176e4d91f764e2a42c74,657158a757ad15ef0ca313b6,0.018,0.018,0,140,140,43,1,twofour,,,,,,,,,,,,,,,,,,,,,,,,,,,,,,,,,,,,,,,,,,,,,,,,,,,,,,,,,,,,,,,,,,,,,,,,,,,,,,,,,,,,,,,,,,,,,,,,,,,,,,,,,,,,,,,,,,,,,,,,,,,,,,,,,,,,,,,
,,61577c2dc44ccc73b11049ee,2023-12-07_05h37.54.128,kallum_motion_pilot,2023.2.3,MacIntel,250,61577c2dc44ccc73b11049ee,6560176e4d91f764e2a42c74,657158a757ad15ef0ca313b6,0.018,0.018,0,141,141,6,1,fourtwo,,,,,,,,,,,,,,,,,,,,,,,,,,,,,,,,,,,,,,,,,,,,,,,,,,,,,,,,,,,,,,,,,,,,,,,,,,,,,,,,,,,,,,,,,,,,,,,,,,,,,,,,,,,,,,,,,,,,,,,,,,,,,,,,,,,,,,,
,,61577c2dc44ccc73b11049ee,2023-12-07_05h37.54.128,kallum_motion_pilot,2023.2.3,MacIntel,250,61577c2dc44ccc73b11049ee,6560176e4d91f764e2a42c74,657158a757ad15ef0ca313b6,0.018,0.018,0,142,142,159,1,eightseven,,,,,,,,,,,,,,,,,,,,,,,,,,,,,,,,,,,,,,,,,,,,,,,,,,,,,,,,,,,,,,,,,,,,,,,,,,,,,,,,,,,,,,,,,,,,,,,,,,,,,,,,,,,,,,,,,,,,,,,,,,,,,,,,,,,,,,,
,,61577c2dc44ccc73b11049ee,2023-12-07_05h37.54.128,kallum_motion_pilot,2023.2.3,MacIntel,250,61577c2dc44ccc73b11049ee,6560176e4d91f764e2a42c74,657158a757ad15ef0ca313b6,0.018,0.018,0,143,143,32,1,onetwo,,,,,,,,,,,,,,,,,,,,,,,,,,,,,,,,,,,,,,,,,,,,,,,,,,,,,,,,,,,,,,,,,,,,,,,,,,,,,,,,,,,,,,,,,,,,,,,,,,,,,,,,,,,,,,,,,,,,,,,,,,,,,,,,,,,,,,,
,,61577c2dc44ccc73b11049ee,2023-12-07_05h37.54.128,kallum_motion_pilot,2023.2.3,MacIntel,250,61577c2dc44ccc73b11049ee,6560176e4d91f764e2a42c74,657158a757ad15ef0ca313b6,0.018,0.018,0,144,144,121,1,fiveseven,,,,,,,,,,,,,,,,,,,,,,,,,,,,,,,,,,,,,,,,,,,,,,,,,,,,,,,,,,,,,,,,,,,,,,,,,,,,,,,,,,,,,,,,,,,,,,,,,,,,,,,,,,,,,,,,,,,,,,,,,,,,,,,,,,,,,,,
,,61577c2dc44ccc73b11049ee,2023-12-07_05h37.54.128,kallum_motion_pilot,2023.2.3,MacIntel,250,61577c2dc44ccc73b11049ee,6560176e4d91f764e2a42c74,657158a757ad15ef0ca313b6,0.018,0.018,0,145,145,79,1,eightseven,,,,,,,,,,,,,,,,,,,,,,,,,,,,,,,,,,,,,,,,,,,,,,,,,,,,,,,,,,,,,,,,,,,,,,,,,,,,,,,,,,,,,,,,,,,,,,,,,,,,,,,,,,,,,,,,,,,,,,,,,,,,,,,,,,,,,,,
,,61577c2dc44ccc73b11049ee,2023-12-07_05h37.54.128,kallum_motion_pilot,2023.2.3,MacIntel,250,61577c2dc44ccc73b11049ee,6560176e4d91f764e2a42c74,657158a757ad15ef0ca313b6,0.018,0.018,0,146,146,66,1,twoone,,,,,,,,,,,,,,,,,,,,,,,,,,,,,,,,,,,,,,,,,,,,,,,,,,,,,,,,,,,,,,,,,,,,,,,,,,,,,,,,,,,,,,,,,,,,,,,,,,,,,,,,,,,,,,,,,,,,,,,,,,,,,,,,,,,,,,,
,,61577c2dc44ccc73b11049ee,2023-12-07_05h37.54.128,kallum_motion_pilot,2023.2.3,MacIntel,250,61577c2dc44ccc73b11049ee,6560176e4d91f764e2a42c74,657158a757ad15ef0ca313b6,0.018,0.018,0,147,147,160,1,fivesix,,,,,,,,,,,,,,,,,,,,,,,,,,,,,,,,,,,,,,,,,,,,,,,,,,,,,,,,,,,,,,,,,,,,,,,,,,,,,,,,,,,,,,,,,,,,,,,,,,,,,,,,,,,,,,,,,,,,,,,,,,,,,,,,,,,,,,,
,,61577c2dc44ccc73b11049ee,2023-12-07_05h37.54.128,kallum_motion_pilot,2023.2.3,MacIntel,250,61577c2dc44ccc73b11049ee,6560176e4d91f764e2a42c74,657158a757ad15ef0ca313b6,0.018,0.018,0,148,148,23,1,fourthree,,,,,,,,,,,,,,,,,,,,,,,,,,,,,,,,,,,,,,,,,,,,,,,,,,,,,,,,,,,,,,,,,,,,,,,,,,,,,,,,,,,,,,,,,,,,,,,,,,,,,,,,,,,,,,,,,,,,,,,,,,,,,,,,,,,,,,,
,,61577c2dc44ccc73b11049ee,2023-12-07_05h37.54.128,kallum_motion_pilot,2023.2.3,MacIntel,250,61577c2dc44ccc73b11049ee,6560176e4d91f764e2a42c74,657158a757ad15ef0ca313b6,0.018,0.018,0,149,149,4,1,threeone,,,,,,,,,,,,,,,,,,,,,,,,,,,,,,,,,,,,,,,,,,,,,,,,,,,,,,,,,,,,,,,,,,,,,,,,,,,,,,,,,,,,,,,,,,,,,,,,,,,,,,,,,,,,,,,,,,,,,,,,,,,,,,,,,,,,,,,
,,61577c2dc44ccc73b11049ee,2023-12-07_05h37.54.128,kallum_motion_pilot,2023.2.3,MacIntel,250,61577c2dc44ccc73b11049ee,6560176e4d91f764e2a42c74,657158a757ad15ef0ca313b6,0.018,0.018,0,150,150,111,1,eightseven,,,,,,,,,,,,,,,,,,,,,,,,,,,,,,,,,,,,,,,,,,,,,,,,,,,,,,,,,,,,,,,,,,,,,,,,,,,,,,,,,,,,,,,,,,,,,,,,,,,,,,,,,,,,,,,,,,,,,,,,,,,,,,,,,,,,,,,
,,61577c2dc44ccc73b11049ee,2023-12-07_05h37.54.128,kallum_motion_pilot,2023.2.3,MacIntel,250,61577c2dc44ccc73b11049ee,6560176e4d91f764e2a42c74,657158a757ad15ef0ca313b6,0.018,0.018,0,151,151,49,1,onethree,,,,,,,,,,,,,,,,,,,,,,,,,,,,,,,,,,,,,,,,,,,,,,,,,,,,,,,,,,,,,,,,,,,,,,,,,,,,,,,,,,,,,,,,,,,,,,,,,,,,,,,,,,,,,,,,,,,,,,,,,,,,,,,,,,,,,,,
,,61577c2dc44ccc73b11049ee,2023-12-07_05h37.54.128,kallum_motion_pilot,2023.2.3,MacIntel,250,61577c2dc44ccc73b11049ee,6560176e4d91f764e2a42c74,657158a757ad15ef0ca313b6,0.018,0.018,0,152,152,25,1,onethree,,,,,,,,,,,,,,,,,,,,,,,,,,,,,,,,,,,,,,,,,,,,,,,,,,,,,,,,,,,,,,,,,,,,,,,,,,,,,,,,,,,,,,,,,,,,,,,,,,,,,,,,,,,,,,,,,,,,,,,,,,,,,,,,,,,,,,,
,,61577c2dc44ccc73b11049ee,2023-12-07_05h37.54.128,kallum_motion_pilot,2023.2.3,MacIntel,250,61577c2dc44ccc73b11049ee,6560176e4d91f764e2a42c74,657158a757ad15ef0ca313b6,0.018,0.018,0,153,153,146,1,sixfive,,,,,,,,,,,,,,,,,,,,,,,,,,,,,,,,,,,,,,,,,,,,,,,,,,,,,,,,,,,,,,,,,,,,,,,,,,,,,,,,,,,,,,,,,,,,,,,,,,,,,,,,,,,,,,,,,,,,,,,,,,,,,,,,,,,,,,,
,,61577c2dc44ccc73b11049ee,2023-12-07_05h37.54.128,kallum_motion_pilot,2023.2.3,MacIntel,250,61577c2dc44ccc73b11049ee,6560176e4d91f764e2a42c74,657158a757ad15ef0ca313b6,0.018,0.018,0,154,154,36,1,threeone,,,,,,,,,,,,,,,,,,,,,,,,,,,,,,,,,,,,,,,,,,,,,,,,,,,,,,,,,,,,,,,,,,,,,,,,,,,,,,,,,,,,,,,,,,,,,,,,,,,,,,,,,,,,,,,,,,,,,,,,,,,,,,,,,,,,,,,
,,61577c2dc44ccc73b11049ee,2023-12-07_05h37.54.128,kallum_motion_pilot,2023.2.3,MacIntel,250,61577c2dc44ccc73b11049ee,6560176e4d91f764e2a42c74,657158a757ad15ef0ca313b6,0.018,0.018,0,155,155,108,1,sevenfive,,,,,,,,,,,,,,,,,,,,,,,,,,,,,,,,,,,,,,,,,,,,,,,,,,,,,,,,,,,,,,,,,,,,,,,,,,,,,,,,,,,,,,,,,,,,,,,,,,,,,,,,,,,,,,,,,,,,,,,,,,,,,,,,,,,,,,,
,,61577c2dc44ccc73b11049ee,2023-12-07_05h37.54.128,kallum_motion_pilot,2023.2.3,MacIntel,250,61577c2dc44ccc73b11049ee,6560176e4d91f764e2a42c74,657158a757ad15ef0ca313b6,0.018,0.018,0,156,156,95,1,eightseven,,,,,,,,,,,,,,,,,,,,,,,,,,,,,,,,,,,,,,,,,,,,,,,,,,,,,,,,,,,,,,,,,,,,,,,,,,,,,,,,,,,,,,,,,,,,,,,,,,,,,,,,,,,,,,,,,,,,,,,,,,,,,,,,,,,,,,,
,,61577c2dc44ccc73b11049ee,2023-12-07_05h37.54.128,kallum_motion_pilot,2023.2.3,MacIntel,250,61577c2dc44ccc73b11049ee,6560176e4d91f764e2a42c74,657158a757ad15ef0ca313b6,0.018,0.018,0,157,157,21,1,threefour,,,,,,,,,,,,,,,,,,,,,,,,,,,,,,,,,,,,,,,,,,,,,,,,,,,,,,,,,,,,,,,,,,,,,,,,,,,,,,,,,,,,,,,,,,,,,,,,,,,,,,,,,,,,,,,,,,,,,,,,,,,,,,,,,,,,,,,
,,61577c2dc44ccc73b11049ee,2023-12-07_05h37.54.128,kallum_motion_pilot,2023.2.3,MacIntel,250,61577c2dc44ccc73b11049ee,6560176e4d91f764e2a42c74,657158a757ad15ef0ca313b6,0.018,0.018,0,158,158,68,1,threeone,,,,,,,,,,,,,,,,,,,,,,,,,,,,,,,,,,,,,,,,,,,,,,,,,,,,,,,,,,,,,,,,,,,,,,,,,,,,,,,,,,,,,,,,,,,,,,,,,,,,,,,,,,,,,,,,,,,,,,,,,,,,,,,,,,,,,,,
,,61577c2dc44ccc73b11049ee,2023-12-07_05h37.54.128,kallum_motion_pilot,2023.2.3,MacIntel,250,61577c2dc44ccc73b11049ee,6560176e4d91f764e2a42c74,657158a757ad15ef0ca313b6,0.018,0.018,0,159,159,129,1,fiveseven,,,,,,,,,,,,,,,,,,,,,,,,,,,,,,,,,,,,,,,,,,,,,,,,,,,,,,,,,,,,,,,,,,,,,,,,,,,,,,,,,,,,,,,,,,,,,,,,,,,,,,,,,,,,,,,,,,,,,,,,,,,,,,,,,,,,,,,
,,61577c2dc44ccc73b11049ee,2023-12-07_05h37.54.128,kallum_motion_pilot,2023.2.3,MacIntel,250,61577c2dc44ccc73b11049ee,6560176e4d91f764e2a42c74,657158a757ad15ef0ca313b6,0.018,0.018,0,160,160,86,1,eightsix,,,,,,,,,,,,,,,,,,,,,,,,,,,,,,,,,,,,,,,,,,,,,,,,,,,,,,,,,,,,,,,,,,,,,,,,,,,,,,,,,,,,,,,,,,,,,,,,,,,,,,,,,,,,,,,,,,,,,,,,,,,,,,,,,,,,,,,
,,61577c2dc44ccc73b11049ee,2023-12-07_05h37.54.128,kallum_motion_pilot,2023.2.3,MacIntel,250,61577c2dc44ccc73b11049ee,6560176e4d91f764e2a42c74,657158a757ad15ef0ca313b6,0.018,0.018,0,161,161,137,1,fiveseven,,,,,,,,,,,,,,,,,,,,,,,,,,,,,,,,,,,,,,,,,,,,,,,,,,,,,,,,,,,,,,,,,,,,,,,,,,,,,,,,,,,,,,,,,,,,,,,,,,,,,,,,,,,,,,,,,,,,,,,,,,,,,,,,,,,,,,,
,,61577c2dc44ccc73b11049ee,2023-12-07_05h37.54.128,kallum_motion_pilot,2023.2.3,MacIntel,250,61577c2dc44ccc73b11049ee,6560176e4d91f764e2a42c74,657158a757ad15ef0ca313b6,0.018,0.019,1,0,162,12,1,threeone,,,,,,,,,,,,,,,,,,,,,,,,,,,,,,,,,,,,,,,,,,,,,,,,,,,,,,,,,,,,,,,,,,,,,,,,,,,,,,,,,,,,,,,,,,,,,,,,,,,,,,,,,,,,,,,,,,,,,,,,,,,,,,,,,,,,,,,
,,61577c2dc44ccc73b11049ee,2023-12-07_05h37.54.128,kallum_motion_pilot,2023.2.3,MacIntel,250,61577c2dc44ccc73b11049ee,6560176e4d91f764e2a42c74,657158a757ad15ef0ca313b6,0.019,0.019,1,1,163,71,1,fourthree,,,,,,,,,,,,,,,,,,,,,,,,,,,,,,,,,,,,,,,,,,,,,,,,,,,,,,,,,,,,,,,,,,,,,,,,,,,,,,,,,,,,,,,,,,,,,,,,,,,,,,,,,,,,,,,,,,,,,,,,,,,,,,,,,,,,,,,
,,61577c2dc44ccc73b11049ee,2023-12-07_05h37.54.128,kallum_motion_pilot,2023.2.3,MacIntel,250,61577c2dc44ccc73b11049ee,6560176e4d91f764e2a42c74,657158a757ad15ef0ca313b6,0.019,0.019,1,2,164,5,1,threefour,,,,,,,,,,,,,,,,,,,,,,,,,,,,,,,,,,,,,,,,,,,,,,,,,,,,,,,,,,,,,,,,,,,,,,,,,,,,,,,,,,,,,,,,,,,,,,,,,,,,,,,,,,,,,,,,,,,,,,,,,,,,,,,,,,,,,,,
,,61577c2dc44ccc73b11049ee,2023-12-07_05h37.54.128,kallum_motion_pilot,2023.2.3,MacIntel,250,61577c2dc44ccc73b11049ee,6560176e4d91f764e2a42c74,657158a757ad15ef0ca313b6,0.019,0.019,1,3,165,125,1,seveneight,,,,,,,,,,,,,,,,,,,,,,,,,,,,,,,,,,,,,,,,,,,,,,,,,,,,,,,,,,,,,,,,,,,,,,,,,,,,,,,,,,,,,,,,,,,,,,,,,,,,,,,,,,,,,,,,,,,,,,,,,,,,,,,,,,,,,,,
,,61577c2dc44ccc73b11049ee,2023-12-07_05h37.54.128,kallum_motion_pilot,2023.2.3,MacIntel,250,61577c2dc44ccc73b11049ee,6560176e4d91f764e2a42c74,657158a757ad15ef0ca313b6,0.019,0.019,1,4,166,96,1,fivesix,,,,,,,,,,,,,,,,,,,,,,,,,,,,,,,,,,,,,,,,,,,,,,,,,,,,,,,,,,,,,,,,,,,,,,,,,,,,,,,,,,,,,,,,,,,,,,,,,,,,,,,,,,,,,,,,,,,,,,,,,,,,,,,,,,,,,,,
,,61577c2dc44ccc73b11049ee,2023-12-07_05h37.54.128,kallum_motion_pilot,2023.2.3,MacIntel,250,61577c2dc44ccc73b11049ee,6560176e4d91f764e2a42c74,657158a757ad15ef0ca313b6,0.019,0.019,1,5,167,136,1,fivesix,,,,,,,,,,,,,,,,,,,,,,,,,,,,,,,,,,,,,,,,,,,,,,,,,,,,,,,,,,,,,,,,,,,,,,,,,,,,,,,,,,,,,,,,,,,,,,,,,,,,,,,,,,,,,,,,,,,,,,,,,,,,,,,,,,,,,,,
,,61577c2dc44ccc73b11049ee,2023-12-07_05h37.54.128,kallum_motion_pilot,2023.2.3,MacIntel,250,61577c2dc44ccc73b11049ee,6560176e4d91f764e2a42c74,657158a757ad15ef0ca313b6,0.019,0.019,1,6,168,60,1,threeone,,,,,,,,,,,,,,,,,,,,,,,,,,,,,,,,,,,,,,,,,,,,,,,,,,,,,,,,,,,,,,,,,,,,,,,,,,,,,,,,,,,,,,,,,,,,,,,,,,,,,,,,,,,,,,,,,,,,,,,,,,,,,,,,,,,,,,,
,,61577c2dc44ccc73b11049ee,2023-12-07_05h37.54.128,kallum_motion_pilot,2023.2.3,MacIntel,250,61577c2dc44ccc73b11049ee,6560176e4d91f764e2a42c74,657158a757ad15ef0ca313b6,0.019,0.019,1,7,169,110,1,eightsix,,,,,,,,,,,,,,,,,,,,,,,,,,,,,,,,,,,,,,,,,,,,,,,,,,,,,,,,,,,,,,,,,,,,,,,,,,,,,,,,,,,,,,,,,,,,,,,,,,,,,,,,,,,,,,,,,,,,,,,,,,,,,,,,,,,,,,,
,,61577c2dc44ccc73b11049ee,2023-12-07_05h37.54.128,kallum_motion_pilot,2023.2.3,MacIntel,250,61577c2dc44ccc73b11049ee,6560176e4d91f764e2a42c74,657158a757ad15ef0ca313b6,0.019,0.019,1,8,170,56,1,onetwo,,,,,,,,,,,,,,,,,,,,,,,,,,,,,,,,,,,,,,,,,,,,,,,,,,,,,,,,,,,,,,,,,,,,,,,,,,,,,,,,,,,,,,,,,,,,,,,,,,,,,,,,,,,,,,,,,,,,,,,,,,,,,,,,,,,,,,,
,,61577c2dc44ccc73b11049ee,2023-12-07_05h37.54.128,kallum_motion_pilot,2023.2.3,MacIntel,250,61577c2dc44ccc73b11049ee,6560176e4d91f764e2a42c74,657158a757ad15ef0ca313b6,0.019,0.019,1,9,171,152,1,fivesix,,,,,,,,,,,,,,,,,,,,,,,,,,,,,,,,,,,,,,,,,,,,,,,,,,,,,,,,,,,,,,,,,,,,,,,,,,,,,,,,,,,,,,,,,,,,,,,,,,,,,,,,,,,,,,,,,,,,,,,,,,,,,,,,,,,,,,,
,,61577c2dc44ccc73b11049ee,2023-12-07_05h37.54.128,kallum_motion_pilot,2023.2.3,MacIntel,250,61577c2dc44ccc73b11049ee,6560176e4d91f764e2a42c74,657158a757ad15ef0ca313b6,0.019,0.019,1,10,172,113,1,fiveseven,,,,,,,,,,,,,,,,,,,,,,,,,,,,,,,,,,,,,,,,,,,,,,,,,,,,,,,,,,,,,,,,,,,,,,,,,,,,,,,,,,,,,,,,,,,,,,,,,,,,,,,,,,,,,,,,,,,,,,,,,,,,,,,,,,,,,,,
,,61577c2dc44ccc73b11049ee,2023-12-07_05h37.54.128,kallum_motion_pilot,2023.2.3,MacIntel,250,61577c2dc44ccc73b11049ee,6560176e4d91f764e2a42c74,657158a757ad15ef0ca313b6,0.019,0.019,1,11,173,112,1,fivesix,,,,,,,,,,,,,,,,,,,,,,,,,,,,,,,,,,,,,,,,,,,,,,,,,,,,,,,,,,,,,,,,,,,,,,,,,,,,,,,,,,,,,,,,,,,,,,,,,,,,,,,,,,,,,,,,,,,,,,,,,,,,,,,,,,,,,,,
,,61577c2dc44ccc73b11049ee,2023-12-07_05h37.54.128,kallum_motion_pilot,2023.2.3,MacIntel,250,61577c2dc44ccc73b11049ee,6560176e4d91f764e2a42c74,657158a757ad15ef0ca313b6,0.019,0.019,1,12,174,105,1,fiveseven,,,,,,,,,,,,,,,,,,,,,,,,,,,,,,,,,,,,,,,,,,,,,,,,,,,,,,,,,,,,,,,,,,,,,,,,,,,,,,,,,,,,,,,,,,,,,,,,,,,,,,,,,,,,,,,,,,,,,,,,,,,,,,,,,,,,,,,
,,61577c2dc44ccc73b11049ee,2023-12-07_05h37.54.128,kallum_motion_pilot,2023.2.3,MacIntel,250,61577c2dc44ccc73b11049ee,6560176e4d91f764e2a42c74,657158a757ad15ef0ca313b6,0.019,0.019,1,13,175,86,1,eightsix,,,,,,,,,,,,,,,,,,,,,,,,,,,,,,,,,,,,,,,,,,,,,,,,,,,,,,,,,,,,,,,,,,,,,,,,,,,,,,,,,,,,,,,,,,,,,,,,,,,,,,,,,,,,,,,,,,,,,,,,,,,,,,,,,,,,,,,
,,61577c2dc44ccc73b11049ee,2023-12-07_05h37.54.128,kallum_motion_pilot,2023.2.3,MacIntel,250,61577c2dc44ccc73b11049ee,6560176e4d91f764e2a42c74,657158a757ad15ef0ca313b6,0.019,0.019,1,14,176,42,1,twoone,,,,,,,,,,,,,,,,,,,,,,,,,,,,,,,,,,,,,,,,,,,,,,,,,,,,,,,,,,,,,,,,,,,,,,,,,,,,,,,,,,,,,,,,,,,,,,,,,,,,,,,,,,,,,,,,,,,,,,,,,,,,,,,,,,,,,,,
,,61577c2dc44ccc73b11049ee,2023-12-07_05h37.54.128,kallum_motion_pilot,2023.2.3,MacIntel,250,61577c2dc44ccc73b11049ee,6560176e4d91f764e2a42c74,657158a757ad15ef0ca313b6,0.019,0.019,1,15,177,20,1,threeone,,,,,,,,,,,,,,,,,,,,,,,,,,,,,,,,,,,,,,,,,,,,,,,,,,,,,,,,,,,,,,,,,,,,,,,,,,,,,,,,,,,,,,,,,,,,,,,,,,,,,,,,,,,,,,,,,,,,,,,,,,,,,,,,,,,,,,,
,,61577c2dc44ccc73b11049ee,2023-12-07_05h37.54.128,kallum_motion_pilot,2023.2.3,MacIntel,250,61577c2dc44ccc73b11049ee,6560176e4d91f764e2a42c74,657158a757ad15ef0ca313b6,0.019,0.019,1,16,178,27,1,twofour,,,,,,,,,,,,,,,,,,,,,,,,,,,,,,,,,,,,,,,,,,,,,,,,,,,,,,,,,,,,,,,,,,,,,,,,,,,,,,,,,,,,,,,,,,,,,,,,,,,,,,,,,,,,,,,,,,,,,,,,,,,,,,,,,,,,,,,
,,61577c2dc44ccc73b11049ee,2023-12-07_05h37.54.128,kallum_motion_pilot,2023.2.3,MacIntel,250,61577c2dc44ccc73b11049ee,6560176e4d91f764e2a42c74,657158a757ad15ef0ca313b6,0.019,0.019,1,17,179,52,1,threeone,,,,,,,,,,,,,,,,,,,,,,,,,,,,,,,,,,,,,,,,,,,,,,,,,,,,,,,,,,,,,,,,,,,,,,,,,,,,,,,,,,,,,,,,,,,,,,,,,,,,,,,,,,,,,,,,,,,,,,,,,,,,,,,,,,,,,,,
,,61577c2dc44ccc73b11049ee,2023-12-07_05h37.54.128,kallum_motion_pilot,2023.2.3,MacIntel,250,61577c2dc44ccc73b11049ee,6560176e4d91f764e2a42c74,657158a757ad15ef0ca313b6,0.019,0.019,1,18,180,107,1,sixeight,,,,,,,,,,,,,,,,,,,,,,,,,,,,,,,,,,,,,,,,,,,,,,,,,,,,,,,,,,,,,,,,,,,,,,,,,,,,,,,,,,,,,,,,,,,,,,,,,,,,,,,,,,,,,,,,,,,,,,,,,,,,,,,,,,,,,,,
,,61577c2dc44ccc73b11049ee,2023-12-07_05h37.54.128,kallum_motion_pilot,2023.2.3,MacIntel,250,61577c2dc44ccc73b11049ee,6560176e4d91f764e2a42c74,657158a757ad15ef0ca313b6,0.019,0.019,1,19,181,114,1,sixfive,,,,,,,,,,,,,,,,,,,,,,,,,,,,,,,,,,,,,,,,,,,,,,,,,,,,,,,,,,,,,,,,,,,,,,,,,,,,,,,,,,,,,,,,,,,,,,,,,,,,,,,,,,,,,,,,,,,,,,,,,,,,,,,,,,,,,,,
,,61577c2dc44ccc73b11049ee,2023-12-07_05h37.54.128,kallum_motion_pilot,2023.2.3,MacIntel,250,61577c2dc44ccc73b11049ee,6560176e4d91f764e2a42c74,657158a757ad15ef0ca313b6,0.019,0.019,1,20,182,87,1,eightseven,,,,,,,,,,,,,,,,,,,,,,,,,,,,,,,,,,,,,,,,,,,,,,,,,,,,,,,,,,,,,,,,,,,,,,,,,,,,,,,,,,,,,,,,,,,,,,,,,,,,,,,,,,,,,,,,,,,,,,,,,,,,,,,,,,,,,,,
,,61577c2dc44ccc73b11049ee,2023-12-07_05h37.54.128,kallum_motion_pilot,2023.2.3,MacIntel,250,61577c2dc44ccc73b11049ee,6560176e4d91f764e2a42c74,657158a757ad15ef0ca313b6,0.019,0.019,1,21,183,31,1,fourthree,,,,,,,,,,,,,,,,,,,,,,,,,,,,,,,,,,,,,,,,,,,,,,,,,,,,,,,,,,,,,,,,,,,,,,,,,,,,,,,,,,,,,,,,,,,,,,,,,,,,,,,,,,,,,,,,,,,,,,,,,,,,,,,,,,,,,,,
,,61577c2dc44ccc73b11049ee,2023-12-07_05h37.54.128,kallum_motion_pilot,2023.2.3,MacIntel,250,61577c2dc44ccc73b11049ee,6560176e4d91f764e2a42c74,657158a757ad15ef0ca313b6,0.019,0.019,1,22,184,28,1,threeone,,,,,,,,,,,,,,,,,,,,,,,,,,,,,,,,,,,,,,,,,,,,,,,,,,,,,,,,,,,,,,,,,,,,,,,,,,,,,,,,,,,,,,,,,,,,,,,,,,,,,,,,,,,,,,,,,,,,,,,,,,,,,,,,,,,,,,,
,,61577c2dc44ccc73b11049ee,2023-12-07_05h37.54.128,kallum_motion_pilot,2023.2.3,MacIntel,250,61577c2dc44ccc73b11049ee,6560176e4d91f764e2a42c74,657158a757ad15ef0ca313b6,0.019,0.019,1,23,185,72,1,onetwo,,,,,,,,,,,,,,,,,,,,,,,,,,,,,,,,,,,,,,,,,,,,,,,,,,,,,,,,,,,,,,,,,,,,,,,,,,,,,,,,,,,,,,,,,,,,,,,,,,,,,,,,,,,,,,,,,,,,,,,,,,,,,,,,,,,,,,,
,,61577c2dc44ccc73b11049ee,2023-12-07_05h37.54.128,kallum_motion_pilot,2023.2.3,MacIntel,250,61577c2dc44ccc73b11049ee,6560176e4d91f764e2a42c74,657158a757ad15ef0ca313b6,0.019,0.019,1,24,186,3,1,twofour,,,,,,,,,,,,,,,,,,,,,,,,,,,,,,,,,,,,,,,,,,,,,,,,,,,,,,,,,,,,,,,,,,,,,,,,,,,,,,,,,,,,,,,,,,,,,,,,,,,,,,,,,,,,,,,,,,,,,,,,,,,,,,,,,,,,,,,
,,61577c2dc44ccc73b11049ee,2023-12-07_05h37.54.128,kallum_motion_pilot,2023.2.3,MacIntel,250,61577c2dc44ccc73b11049ee,6560176e4d91f764e2a42c74,657158a757ad15ef0ca313b6,0.019,0.019,1,25,187,148,1,sevenfive,,,,,,,,,,,,,,,,,,,,,,,,,,,,,,,,,,,,,,,,,,,,,,,,,,,,,,,,,,,,,,,,,,,,,,,,,,,,,,,,,,,,,,,,,,,,,,,,,,,,,,,,,,,,,,,,,,,,,,,,,,,,,,,,,,,,,,,
,,61577c2dc44ccc73b11049ee,2023-12-07_05h37.54.128,kallum_motion_pilot,2023.2.3,MacIntel,250,61577c2dc44ccc73b11049ee,6560176e4d91f764e2a42c74,657158a757ad15ef0ca313b6,0.019,0.019,1,26,188,83,1,sixeight,,,,,,,,,,,,,,,,,,,,,,,,,,,,,,,,,,,,,,,,,,,,,,,,,,,,,,,,,,,,,,,,,,,,,,,,,,,,,,,,,,,,,,,,,,,,,,,,,,,,,,,,,,,,,,,,,,,,,,,,,,,,,,,,,,,,,,,
,,61577c2dc44ccc73b11049ee,2023-12-07_05h37.54.128,kallum_motion_pilot,2023.2.3,MacIntel,250,61577c2dc44ccc73b11049ee,6560176e4d91f764e2a42c74,657158a757ad15ef0ca313b6,0.019,0.019,1,27,189,158,1,eightsix,,,,,,,,,,,,,,,,,,,,,,,,,,,,,,,,,,,,,,,,,,,,,,,,,,,,,,,,,,,,,,,,,,,,,,,,,,,,,,,,,,,,,,,,,,,,,,,,,,,,,,,,,,,,,,,,,,,,,,,,,,,,,,,,,,,,,,,
,,61577c2dc44ccc73b11049ee,2023-12-07_05h37.54.128,kallum_motion_pilot,2023.2.3,MacIntel,250,61577c2dc44ccc73b11049ee,6560176e4d91f764e2a42c74,657158a757ad15ef0ca313b6,0.019,0.019,1,28,190,150,1,eightsix,,,,,,,,,,,,,,,,,,,,,,,,,,,,,,,,,,,,,,,,,,,,,,,,,,,,,,,,,,,,,,,,,,,,,,,,,,,,,,,,,,,,,,,,,,,,,,,,,,,,,,,,,,,,,,,,,,,,,,,,,,,,,,,,,,,,,,,
,,61577c2dc44ccc73b11049ee,2023-12-07_05h37.54.128,kallum_motion_pilot,2023.2.3,MacIntel,250,61577c2dc44ccc73b11049ee,6560176e4d91f764e2a42c74,657158a757ad15ef0ca313b6,0.019,0.019,1,29,191,151,1,eightseven,,,,,,,,,,,,,,,,,,,,,,,,,,,,,,,,,,,,,,,,,,,,,,,,,,,,,,,,,,,,,,,,,,,,,,,,,,,,,,,,,,,,,,,,,,,,,,,,,,,,,,,,,,,,,,,,,,,,,,,,,,,,,,,,,,,,,,,
,,61577c2dc44ccc73b11049ee,2023-12-07_05h37.54.128,kallum_motion_pilot,2023.2.3,MacIntel,250,61577c2dc44ccc73b11049ee,6560176e4d91f764e2a42c74,657158a757ad15ef0ca313b6,0.019,0.019,1,30,192,138,1,sixfive,,,,,,,,,,,,,,,,,,,,,,,,,,,,,,,,,,,,,,,,,,,,,,,,,,,,,,,,,,,,,,,,,,,,,,,,,,,,,,,,,,,,,,,,,,,,,,,,,,,,,,,,,,,,,,,,,,,,,,,,,,,,,,,,,,,,,,,
,,61577c2dc44ccc73b11049ee,2023-12-07_05h37.54.128,kallum_motion_pilot,2023.2.3,MacIntel,250,61577c2dc44ccc73b11049ee,6560176e4d91f764e2a42c74,657158a757ad15ef0ca313b6,0.019,0.019,1,31,193,157,1,seveneight,,,,,,,,,,,,,,,,,,,,,,,,,,,,,,,,,,,,,,,,,,,,,,,,,,,,,,,,,,,,,,,,,,,,,,,,,,,,,,,,,,,,,,,,,,,,,,,,,,,,,,,,,,,,,,,,,,,,,,,,,,,,,,,,,,,,,,,
,,61577c2dc44ccc73b11049ee,2023-12-07_05h37.54.128,kallum_motion_pilot,2023.2.3,MacIntel,250,61577c2dc44ccc73b11049ee,6560176e4d91f764e2a42c74,657158a757ad15ef0ca313b6,0.019,0.019,1,32,194,22,1,fourtwo,,,,,,,,,,,,,,,,,,,,,,,,,,,,,,,,,,,,,,,,,,,,,,,,,,,,,,,,,,,,,,,,,,,,,,,,,,,,,,,,,,,,,,,,,,,,,,,,,,,,,,,,,,,,,,,,,,,,,,,,,,,,,,,,,,,,,,,
,,61577c2dc44ccc73b11049ee,2023-12-07_05h37.54.128,kallum_motion_pilot,2023.2.3,MacIntel,250,61577c2dc44ccc73b11049ee,6560176e4d91f764e2a42c74,657158a757ad15ef0ca313b6,0.019,0.019,1,33,195,78,1,fourtwo,,,,,,,,,,,,,,,,,,,,,,,,,,,,,,,,,,,,,,,,,,,,,,,,,,,,,,,,,,,,,,,,,,,,,,,,,,,,,,,,,,,,,,,,,,,,,,,,,,,,,,,,,,,,,,,,,,,,,,,,,,,,,,,,,,,,,,,
,,61577c2dc44ccc73b11049ee,2023-12-07_05h37.54.128,kallum_motion_pilot,2023.2.3,MacIntel,250,61577c2dc44ccc73b11049ee,6560176e4d91f764e2a42c74,657158a757ad15ef0ca313b6,0.019,0.019,1,34,196,90,1,sixfive,,,,,,,,,,,,,,,,,,,,,,,,,,,,,,,,,,,,,,,,,,,,,,,,,,,,,,,,,,,,,,,,,,,,,,,,,,,,,,,,,,,,,,,,,,,,,,,,,,,,,,,,,,,,,,,,,,,,,,,,,,,,,,,,,,,,,,,
,,61577c2dc44ccc73b11049ee,2023-12-07_05h37.54.128,kallum_motion_pilot,2023.2.3,MacIntel,250,61577c2dc44ccc73b11049ee,6560176e4d91f764e2a42c74,657158a757ad15ef0ca313b6,0.019,0.019,1,35,197,88,1,fivesix,,,,,,,,,,,,,,,,,,,,,,,,,,,,,,,,,,,,,,,,,,,,,,,,,,,,,,,,,,,,,,,,,,,,,,,,,,,,,,,,,,,,,,,,,,,,,,,,,,,,,,,,,,,,,,,,,,,,,,,,,,,,,,,,,,,,,,,
,,61577c2dc44ccc73b11049ee,2023-12-07_05h37.54.128,kallum_motion_pilot,2023.2.3,MacIntel,250,61577c2dc44ccc73b11049ee,6560176e4d91f764e2a42c74,657158a757ad15ef0ca313b6,0.019,0.019,1,36,198,79,1,eightseven,,,,,,,,,,,,,,,,,,,,,,,,,,,,,,,,,,,,,,,,,,,,,,,,,,,,,,,,,,,,,,,,,,,,,,,,,,,,,,,,,,,,,,,,,,,,,,,,,,,,,,,,,,,,,,,,,,,,,,,,,,,,,,,,,,,,,,,
,,61577c2dc44ccc73b11049ee,2023-12-07_05h37.54.128,kallum_motion_pilot,2023.2.3,MacIntel,250,61577c2dc44ccc73b11049ee,6560176e4d91f764e2a42c74,657158a757ad15ef0ca313b6,0.019,0.019,1,37,199,69,1,threefour,,,,,,,,,,,,,,,,,,,,,,,,,,,,,,,,,,,,,,,,,,,,,,,,,,,,,,,,,,,,,,,,,,,,,,,,,,,,,,,,,,,,,,,,,,,,,,,,,,,,,,,,,,,,,,,,,,,,,,,,,,,,,,,,,,,,,,,
,,61577c2dc44ccc73b11049ee,2023-12-07_05h37.54.128,kallum_motion_pilot,2023.2.3,MacIntel,250,61577c2dc44ccc73b11049ee,6560176e4d91f764e2a42c74,657158a757ad15ef0ca313b6,0.019,0.019,1,38,200,29,1,threefour,,,,,,,,,,,,,,,,,,,,,,,,,,,,,,,,,,,,,,,,,,,,,,,,,,,,,,,,,,,,,,,,,,,,,,,,,,,,,,,,,,,,,,,,,,,,,,,,,,,,,,,,,,,,,,,,,,,,,,,,,,,,,,,,,,,,,,,
,,61577c2dc44ccc73b11049ee,2023-12-07_05h37.54.128,kallum_motion_pilot,2023.2.3,MacIntel,250,61577c2dc44ccc73b11049ee,6560176e4d91f764e2a42c74,657158a757ad15ef0ca313b6,0.019,0.019,1,39,201,59,1,twofour,,,,,,,,,,,,,,,,,,,,,,,,,,,,,,,,,,,,,,,,,,,,,,,,,,,,,,,,,,,,,,,,,,,,,,,,,,,,,,,,,,,,,,,,,,,,,,,,,,,,,,,,,,,,,,,,,,,,,,,,,,,,,,,,,,,,,,,
,,61577c2dc44ccc73b11049ee,2023-12-07_05h37.54.128,kallum_motion_pilot,2023.2.3,MacIntel,250,61577c2dc44ccc73b11049ee,6560176e4d91f764e2a42c74,657158a757ad15ef0ca313b6,0.019,0.019,1,40,202,145,1,fiveseven,,,,,,,,,,,,,,,,,,,,,,,,,,,,,,,,,,,,,,,,,,,,,,,,,,,,,,,,,,,,,,,,,,,,,,,,,,,,,,,,,,,,,,,,,,,,,,,,,,,,,,,,,,,,,,,,,,,,,,,,,,,,,,,,,,,,,,,
,,61577c2dc44ccc73b11049ee,2023-12-07_05h37.54.128,kallum_motion_pilot,2023.2.3,MacIntel,250,61577c2dc44ccc73b11049ee,6560176e4d91f764e2a42c74,657158a757ad15ef0ca313b6,0.02,0.02,1,41,203,155,1,sixeight,,,,,,,,,,,,,,,,,,,,,,,,,,,,,,,,,,,,,,,,,,,,,,,,,,,,,,,,,,,,,,,,,,,,,,,,,,,,,,,,,,,,,,,,,,,,,,,,,,,,,,,,,,,,,,,,,,,,,,,,,,,,,,,,,,,,,,,
,,61577c2dc44ccc73b11049ee,2023-12-07_05h37.54.128,kallum_motion_pilot,2023.2.3,MacIntel,250,61577c2dc44ccc73b11049ee,6560176e4d91f764e2a42c74,657158a757ad15ef0ca313b6,0.02,0.02,1,42,204,116,1,sevenfive,,,,,,,,,,,,,,,,,,,,,,,,,,,,,,,,,,,,,,,,,,,,,,,,,,,,,,,,,,,,,,,,,,,,,,,,,,,,,,,,,,,,,,,,,,,,,,,,,,,,,,,,,,,,,,,,,,,,,,,,,,,,,,,,,,,,,,,
,,61577c2dc44ccc73b11049ee,2023-12-07_05h37.54.128,kallum_motion_pilot,2023.2.3,MacIntel,250,61577c2dc44ccc73b11049ee,6560176e4d91f764e2a42c74,657158a757ad15ef0ca313b6,0.02,0.02,1,43,205,2,1,twoone,,,,,,,,,,,,,,,,,,,,,,,,,,,,,,,,,,,,,,,,,,,,,,,,,,,,,,,,,,,,,,,,,,,,,,,,,,,,,,,,,,,,,,,,,,,,,,,,,,,,,,,,,,,,,,,,,,,,,,,,,,,,,,,,,,,,,,,
,,61577c2dc44ccc73b11049ee,2023-12-07_05h37.54.128,kallum_motion_pilot,2023.2.3,MacIntel,250,61577c2dc44ccc73b11049ee,6560176e4d91f764e2a42c74,657158a757ad15ef0ca313b6,0.02,0.02,1,44,206,25,1,onethree,,,,,,,,,,,,,,,,,,,,,,,,,,,,,,,,,,,,,,,,,,,,,,,,,,,,,,,,,,,,,,,,,,,,,,,,,,,,,,,,,,,,,,,,,,,,,,,,,,,,,,,,,,,,,,,,,,,,,,,,,,,,,,,,,,,,,,,
,,61577c2dc44ccc73b11049ee,2023-12-07_05h37.54.128,kallum_motion_pilot,2023.2.3,MacIntel,250,61577c2dc44ccc73b11049ee,6560176e4d91f764e2a42c74,657158a757ad15ef0ca313b6,0.02,0.02,1,45,207,75,1,twofour,,,,,,,,,,,,,,,,,,,,,,,,,,,,,,,,,,,,,,,,,,,,,,,,,,,,,,,,,,,,,,,,,,,,,,,,,,,,,,,,,,,,,,,,,,,,,,,,,,,,,,,,,,,,,,,,,,,,,,,,,,,,,,,,,,,,,,,
,,61577c2dc44ccc73b11049ee,2023-12-07_05h37.54.128,kallum_motion_pilot,2023.2.3,MacIntel,250,61577c2dc44ccc73b11049ee,6560176e4d91f764e2a42c74,657158a757ad15ef0ca313b6,0.02,0.02,1,46,208,36,1,threeone,,,,,,,,,,,,,,,,,,,,,,,,,,,,,,,,,,,,,,,,,,,,,,,,,,,,,,,,,,,,,,,,,,,,,,,,,,,,,,,,,,,,,,,,,,,,,,,,,,,,,,,,,,,,,,,,,,,,,,,,,,,,,,,,,,,,,,,
,,61577c2dc44ccc73b11049ee,2023-12-07_05h37.54.128,kallum_motion_pilot,2023.2.3,MacIntel,250,61577c2dc44ccc73b11049ee,6560176e4d91f764e2a42c74,657158a757ad15ef0ca313b6,0.02,0.02,1,47,209,11,1,twofour,,,,,,,,,,,,,,,,,,,,,,,,,,,,,,,,,,,,,,,,,,,,,,,,,,,,,,,,,,,,,,,,,,,,,,,,,,,,,,,,,,,,,,,,,,,,,,,,,,,,,,,,,,,,,,,,,,,,,,,,,,,,,,,,,,,,,,,
,,61577c2dc44ccc73b11049ee,2023-12-07_05h37.54.128,kallum_motion_pilot,2023.2.3,MacIntel,250,61577c2dc44ccc73b11049ee,6560176e4d91f764e2a42c74,657158a757ad15ef0ca313b6,0.02,0.02,1,48,210,104,1,fivesix,,,,,,,,,,,,,,,,,,,,,,,,,,,,,,,,,,,,,,,,,,,,,,,,,,,,,,,,,,,,,,,,,,,,,,,,,,,,,,,,,,,,,,,,,,,,,,,,,,,,,,,,,,,,,,,,,,,,,,,,,,,,,,,,,,,,,,,
,,61577c2dc44ccc73b11049ee,2023-12-07_05h37.54.128,kallum_motion_pilot,2023.2.3,MacIntel,250,61577c2dc44ccc73b11049ee,6560176e4d91f764e2a42c74,657158a757ad15ef0ca313b6,0.02,0.02,1,49,211,45,1,threefour,,,,,,,,,,,,,,,,,,,,,,,,,,,,,,,,,,,,,,,,,,,,,,,,,,,,,,,,,,,,,,,,,,,,,,,,,,,,,,,,,,,,,,,,,,,,,,,,,,,,,,,,,,,,,,,,,,,,,,,,,,,,,,,,,,,,,,,
,,61577c2dc44ccc73b11049ee,2023-12-07_05h37.54.128,kallum_motion_pilot,2023.2.3,MacIntel,250,61577c2dc44ccc73b11049ee,6560176e4d91f764e2a42c74,657158a757ad15ef0ca313b6,0.02,0.02,1,50,212,44,1,threeone,,,,,,,,,,,,,,,,,,,,,,,,,,,,,,,,,,,,,,,,,,,,,,,,,,,,,,,,,,,,,,,,,,,,,,,,,,,,,,,,,,,,,,,,,,,,,,,,,,,,,,,,,,,,,,,,,,,,,,,,,,,,,,,,,,,,,,,
,,61577c2dc44ccc73b11049ee,2023-12-07_05h37.54.128,kallum_motion_pilot,2023.2.3,MacIntel,250,61577c2dc44ccc73b11049ee,6560176e4d91f764e2a42c74,657158a757ad15ef0ca313b6,0.02,0.02,1,51,213,65,1,onethree,,,,,,,,,,,,,,,,,,,,,,,,,,,,,,,,,,,,,,,,,,,,,,,,,,,,,,,,,,,,,,,,,,,,,,,,,,,,,,,,,,,,,,,,,,,,,,,,,,,,,,,,,,,,,,,,,,,,,,,,,,,,,,,,,,,,,,,
,,61577c2dc44ccc73b11049ee,2023-12-07_05h37.54.128,kallum_motion_pilot,2023.2.3,MacIntel,250,61577c2dc44ccc73b11049ee,6560176e4d91f764e2a42c74,657158a757ad15ef0ca313b6,0.02,0.02,1,52,214,129,1,fiveseven,,,,,,,,,,,,,,,,,,,,,,,,,,,,,,,,,,,,,,,,,,,,,,,,,,,,,,,,,,,,,,,,,,,,,,,,,,,,,,,,,,,,,,,,,,,,,,,,,,,,,,,,,,,,,,,,,,,,,,,,,,,,,,,,,,,,,,,
,,61577c2dc44ccc73b11049ee,2023-12-07_05h37.54.128,kallum_motion_pilot,2023.2.3,MacIntel,250,61577c2dc44ccc73b11049ee,6560176e4d91f764e2a42c74,657158a757ad15ef0ca313b6,0.02,0.02,1,53,215,34,1,twoone,,,,,,,,,,,,,,,,,,,,,,,,,,,,,,,,,,,,,,,,,,,,,,,,,,,,,,,,,,,,,,,,,,,,,,,,,,,,,,,,,,,,,,,,,,,,,,,,,,,,,,,,,,,,,,,,,,,,,,,,,,,,,,,,,,,,,,,
,,61577c2dc44ccc73b11049ee,2023-12-07_05h37.54.128,kallum_motion_pilot,2023.2.3,MacIntel,250,61577c2dc44ccc73b11049ee,6560176e4d91f764e2a42c74,657158a757ad15ef0ca313b6,0.02,0.02,1,54,216,63,1,fourthree,,,,,,,,,,,,,,,,,,,,,,,,,,,,,,,,,,,,,,,,,,,,,,,,,,,,,,,,,,,,,,,,,,,,,,,,,,,,,,,,,,,,,,,,,,,,,,,,,,,,,,,,,,,,,,,,,,,,,,,,,,,,,,,,,,,,,,,
,,61577c2dc44ccc73b11049ee,2023-12-07_05h37.54.128,kallum_motion_pilot,2023.2.3,MacIntel,250,61577c2dc44ccc73b11049ee,6560176e4d91f764e2a42c74,657158a757ad15ef0ca313b6,0.02,0.02,1,55,217,30,1,fourtwo,,,,,,,,,,,,,,,,,,,,,,,,,,,,,,,,,,,,,,,,,,,,,,,,,,,,,,,,,,,,,,,,,,,,,,,,,,,,,,,,,,,,,,,,,,,,,,,,,,,,,,,,,,,,,,,,,,,,,,,,,,,,,,,,,,,,,,,
,,61577c2dc44ccc73b11049ee,2023-12-07_05h37.54.128,kallum_motion_pilot,2023.2.3,MacIntel,250,61577c2dc44ccc73b11049ee,6560176e4d91f764e2a42c74,657158a757ad15ef0ca313b6,0.02,0.02,1,56,218,97,1,fiveseven,,,,,,,,,,,,,,,,,,,,,,,,,,,,,,,,,,,,,,,,,,,,,,,,,,,,,,,,,,,,,,,,,,,,,,,,,,,,,,,,,,,,,,,,,,,,,,,,,,,,,,,,,,,,,,,,,,,,,,,,,,,,,,,,,,,,,,,
,,61577c2dc44ccc73b11049ee,2023-12-07_05h37.54.128,kallum_motion_pilot,2023.2.3,MacIntel,250,61577c2dc44ccc73b11049ee,6560176e4d91f764e2a42c74,657158a757ad15ef0ca313b6,0.02,0.02,1,57,219,8,1,onetwo,,,,,,,,,,,,,,,,,,,,,,,,,,,,,,,,,,,,,,,,,,,,,,,,,,,,,,,,,,,,,,,,,,,,,,,,,,,,,,,,,,,,,,,,,,,,,,,,,,,,,,,,,,,,,,,,,,,,,,,,,,,,,,,,,,,,,,,
,,61577c2dc44ccc73b11049ee,2023-12-07_05h37.54.128,kallum_motion_pilot,2023.2.3,MacIntel,250,61577c2dc44ccc73b11049ee,6560176e4d91f764e2a42c74,657158a757ad15ef0ca313b6,0.02,0.02,1,58,220,61,1,threefour,,,,,,,,,,,,,,,,,,,,,,,,,,,,,,,,,,,,,,,,,,,,,,,,,,,,,,,,,,,,,,,,,,,,,,,,,,,,,,,,,,,,,,,,,,,,,,,,,,,,,,,,,,,,,,,,,,,,,,,,,,,,,,,,,,,,,,,
,,61577c2dc44ccc73b11049ee,2023-12-07_05h37.54.128,kallum_motion_pilot,2023.2.3,MacIntel,250,61577c2dc44ccc73b11049ee,6560176e4d91f764e2a42c74,657158a757ad15ef0ca313b6,0.02,0.02,1,59,221,40,1,onetwo,,,,,,,,,,,,,,,,,,,,,,,,,,,,,,,,,,,,,,,,,,,,,,,,,,,,,,,,,,,,,,,,,,,,,,,,,,,,,,,,,,,,,,,,,,,,,,,,,,,,,,,,,,,,,,,,,,,,,,,,,,,,,,,,,,,,,,,
,,61577c2dc44ccc73b11049ee,2023-12-07_05h37.54.128,kallum_motion_pilot,2023.2.3,MacIntel,250,61577c2dc44ccc73b11049ee,6560176e4d91f764e2a42c74,657158a757ad15ef0ca313b6,0.02,0.02,1,60,222,18,1,twoone,,,,,,,,,,,,,,,,,,,,,,,,,,,,,,,,,,,,,,,,,,,,,,,,,,,,,,,,,,,,,,,,,,,,,,,,,,,,,,,,,,,,,,,,,,,,,,,,,,,,,,,,,,,,,,,,,,,,,,,,,,,,,,,,,,,,,,,
,,61577c2dc44ccc73b11049ee,2023-12-07_05h37.54.128,kallum_motion_pilot,2023.2.3,MacIntel,250,61577c2dc44ccc73b11049ee,6560176e4d91f764e2a42c74,657158a757ad15ef0ca313b6,0.02,0.02,1,61,223,41,1,onethree,,,,,,,,,,,,,,,,,,,,,,,,,,,,,,,,,,,,,,,,,,,,,,,,,,,,,,,,,,,,,,,,,,,,,,,,,,,,,,,,,,,,,,,,,,,,,,,,,,,,,,,,,,,,,,,,,,,,,,,,,,,,,,,,,,,,,,,
,,61577c2dc44ccc73b11049ee,2023-12-07_05h37.54.128,kallum_motion_pilot,2023.2.3,MacIntel,250,61577c2dc44ccc73b11049ee,6560176e4d91f764e2a42c74,657158a757ad15ef0ca313b6,0.02,0.02,1,62,224,24,1,onetwo,,,,,,,,,,,,,,,,,,,,,,,,,,,,,,,,,,,,,,,,,,,,,,,,,,,,,,,,,,,,,,,,,,,,,,,,,,,,,,,,,,,,,,,,,,,,,,,,,,,,,,,,,,,,,,,,,,,,,,,,,,,,,,,,,,,,,,,
,,61577c2dc44ccc73b11049ee,2023-12-07_05h37.54.128,kallum_motion_pilot,2023.2.3,MacIntel,250,61577c2dc44ccc73b11049ee,6560176e4d91f764e2a42c74,657158a757ad15ef0ca313b6,0.02,0.02,1,63,225,48,1,onetwo,,,,,,,,,,,,,,,,,,,,,,,,,,,,,,,,,,,,,,,,,,,,,,,,,,,,,,,,,,,,,,,,,,,,,,,,,,,,,,,,,,,,,,,,,,,,,,,,,,,,,,,,,,,,,,,,,,,,,,,,,,,,,,,,,,,,,,,
,,61577c2dc44ccc73b11049ee,2023-12-07_05h37.54.128,kallum_motion_pilot,2023.2.3,MacIntel,250,61577c2dc44ccc73b11049ee,6560176e4d91f764e2a42c74,657158a757ad15ef0ca313b6,0.02,0.02,1,64,226,68,1,threeone,,,,,,,,,,,,,,,,,,,,,,,,,,,,,,,,,,,,,,,,,,,,,,,,,,,,,,,,,,,,,,,,,,,,,,,,,,,,,,,,,,,,,,,,,,,,,,,,,,,,,,,,,,,,,,,,,,,,,,,,,,,,,,,,,,,,,,,
,,61577c2dc44ccc73b11049ee,2023-12-07_05h37.54.128,kallum_motion_pilot,2023.2.3,MacIntel,250,61577c2dc44ccc73b11049ee,6560176e4d91f764e2a42c74,657158a757ad15ef0ca313b6,0.02,0.02,1,65,227,122,1,sixfive,,,,,,,,,,,,,,,,,,,,,,,,,,,,,,,,,,,,,,,,,,,,,,,,,,,,,,,,,,,,,,,,,,,,,,,,,,,,,,,,,,,,,,,,,,,,,,,,,,,,,,,,,,,,,,,,,,,,,,,,,,,,,,,,,,,,,,,
,,61577c2dc44ccc73b11049ee,2023-12-07_05h37.54.128,kallum_motion_pilot,2023.2.3,MacIntel,250,61577c2dc44ccc73b11049ee,6560176e4d91f764e2a42c74,657158a757ad15ef0ca313b6,0.02,0.02,1,66,228,137,1,fiveseven,,,,,,,,,,,,,,,,,,,,,,,,,,,,,,,,,,,,,,,,,,,,,,,,,,,,,,,,,,,,,,,,,,,,,,,,,,,,,,,,,,,,,,,,,,,,,,,,,,,,,,,,,,,,,,,,,,,,,,,,,,,,,,,,,,,,,,,
,,61577c2dc44ccc73b11049ee,2023-12-07_05h37.54.128,kallum_motion_pilot,2023.2.3,MacIntel,250,61577c2dc44ccc73b11049ee,6560176e4d91f764e2a42c74,657158a757ad15ef0ca313b6,0.02,0.02,1,67,229,144,1,fivesix,,,,,,,,,,,,,,,,,,,,,,,,,,,,,,,,,,,,,,,,,,,,,,,,,,,,,,,,,,,,,,,,,,,,,,,,,,,,,,,,,,,,,,,,,,,,,,,,,,,,,,,,,,,,,,,,,,,,,,,,,,,,,,,,,,,,,,,
,,61577c2dc44ccc73b11049ee,2023-12-07_05h37.54.128,kallum_motion_pilot,2023.2.3,MacIntel,250,61577c2dc44ccc73b11049ee,6560176e4d91f764e2a42c74,657158a757ad15ef0ca313b6,0.02,0.02,1,68,230,93,1,seveneight,,,,,,,,,,,,,,,,,,,,,,,,,,,,,,,,,,,,,,,,,,,,,,,,,,,,,,,,,,,,,,,,,,,,,,,,,,,,,,,,,,,,,,,,,,,,,,,,,,,,,,,,,,,,,,,,,,,,,,,,,,,,,,,,,,,,,,,
,,61577c2dc44ccc73b11049ee,2023-12-07_05h37.54.128,kallum_motion_pilot,2023.2.3,MacIntel,250,61577c2dc44ccc73b11049ee,6560176e4d91f764e2a42c74,657158a757ad15ef0ca313b6,0.02,0.02,1,69,231,141,1,seveneight,,,,,,,,,,,,,,,,,,,,,,,,,,,,,,,,,,,,,,,,,,,,,,,,,,,,,,,,,,,,,,,,,,,,,,,,,,,,,,,,,,,,,,,,,,,,,,,,,,,,,,,,,,,,,,,,,,,,,,,,,,,,,,,,,,,,,,,
,,61577c2dc44ccc73b11049ee,2023-12-07_05h37.54.128,kallum_motion_pilot,2023.2.3,MacIntel,250,61577c2dc44ccc73b11049ee,6560176e4d91f764e2a42c74,657158a757ad15ef0ca313b6,0.02,0.02,1,70,232,7,1,fourthree,,,,,,,,,,,,,,,,,,,,,,,,,,,,,,,,,,,,,,,,,,,,,,,,,,,,,,,,,,,,,,,,,,,,,,,,,,,,,,,,,,,,,,,,,,,,,,,,,,,,,,,,,,,,,,,,,,,,,,,,,,,,,,,,,,,,,,,
,,61577c2dc44ccc73b11049ee,2023-12-07_05h37.54.128,kallum_motion_pilot,2023.2.3,MacIntel,250,61577c2dc44ccc73b11049ee,6560176e4d91f764e2a42c74,657158a757ad15ef0ca313b6,0.02,0.02,1,71,233,134,1,eightsix,,,,,,,,,,,,,,,,,,,,,,,,,,,,,,,,,,,,,,,,,,,,,,,,,,,,,,,,,,,,,,,,,,,,,,,,,,,,,,,,,,,,,,,,,,,,,,,,,,,,,,,,,,,,,,,,,,,,,,,,,,,,,,,,,,,,,,,
,,61577c2dc44ccc73b11049ee,2023-12-07_05h37.54.128,kallum_motion_pilot,2023.2.3,MacIntel,250,61577c2dc44ccc73b11049ee,6560176e4d91f764e2a42c74,657158a757ad15ef0ca313b6,0.02,0.02,1,72,234,115,1,sixeight,,,,,,,,,,,,,,,,,,,,,,,,,,,,,,,,,,,,,,,,,,,,,,,,,,,,,,,,,,,,,,,,,,,,,,,,,,,,,,,,,,,,,,,,,,,,,,,,,,,,,,,,,,,,,,,,,,,,,,,,,,,,,,,,,,,,,,,
,,61577c2dc44ccc73b11049ee,2023-12-07_05h37.54.128,kallum_motion_pilot,2023.2.3,MacIntel,250,61577c2dc44ccc73b11049ee,6560176e4d91f764e2a42c74,657158a757ad15ef0ca313b6,0.02,0.02,1,73,235,82,1,sixfive,,,,,,,,,,,,,,,,,,,,,,,,,,,,,,,,,,,,,,,,,,,,,,,,,,,,,,,,,,,,,,,,,,,,,,,,,,,,,,,,,,,,,,,,,,,,,,,,,,,,,,,,,,,,,,,,,,,,,,,,,,,,,,,,,,,,,,,
,,61577c2dc44ccc73b11049ee,2023-12-07_05h37.54.128,kallum_motion_pilot,2023.2.3,MacIntel,250,61577c2dc44ccc73b11049ee,6560176e4d91f764e2a42c74,657158a757ad15ef0ca313b6,0.02,0.02,1,74,236,0,1,onetwo,,,,,,,,,,,,,,,,,,,,,,,,,,,,,,,,,,,,,,,,,,,,,,,,,,,,,,,,,,,,,,,,,,,,,,,,,,,,,,,,,,,,,,,,,,,,,,,,,,,,,,,,,,,,,,,,,,,,,,,,,,,,,,,,,,,,,,,
,,61577c2dc44ccc73b11049ee,2023-12-07_05h37.54.128,kallum_motion_pilot,2023.2.3,MacIntel,250,61577c2dc44ccc73b11049ee,6560176e4d91f764e2a42c74,657158a757ad15ef0ca313b6,0.02,0.02,1,75,237,62,1,fourtwo,,,,,,,,,,,,,,,,,,,,,,,,,,,,,,,,,,,,,,,,,,,,,,,,,,,,,,,,,,,,,,,,,,,,,,,,,,,,,,,,,,,,,,,,,,,,,,,,,,,,,,,,,,,,,,,,,,,,,,,,,,,,,,,,,,,,,,,
,,61577c2dc44ccc73b11049ee,2023-12-07_05h37.54.128,kallum_motion_pilot,2023.2.3,MacIntel,250,61577c2dc44ccc73b11049ee,6560176e4d91f764e2a42c74,657158a757ad15ef0ca313b6,0.02,0.02,1,76,238,39,1,fourthree,,,,,,,,,,,,,,,,,,,,,,,,,,,,,,,,,,,,,,,,,,,,,,,,,,,,,,,,,,,,,,,,,,,,,,,,,,,,,,,,,,,,,,,,,,,,,,,,,,,,,,,,,,,,,,,,,,,,,,,,,,,,,,,,,,,,,,,
,,61577c2dc44ccc73b11049ee,2023-12-07_05h37.54.128,kallum_motion_pilot,2023.2.3,MacIntel,250,61577c2dc44ccc73b11049ee,6560176e4d91f764e2a42c74,657158a757ad15ef0ca313b6,0.02,0.02,1,77,239,127,1,eightseven,,,,,,,,,,,,,,,,,,,,,,,,,,,,,,,,,,,,,,,,,,,,,,,,,,,,,,,,,,,,,,,,,,,,,,,,,,,,,,,,,,,,,,,,,,,,,,,,,,,,,,,,,,,,,,,,,,,,,,,,,,,,,,,,,,,,,,,
,,61577c2dc44ccc73b11049ee,2023-12-07_05h37.54.128,kallum_motion_pilot,2023.2.3,MacIntel,250,61577c2dc44ccc73b11049ee,6560176e4d91f764e2a42c74,657158a757ad15ef0ca313b6,0.02,0.02,1,78,240,9,1,onethree,,,,,,,,,,,,,,,,,,,,,,,,,,,,,,,,,,,,,,,,,,,,,,,,,,,,,,,,,,,,,,,,,,,,,,,,,,,,,,,,,,,,,,,,,,,,,,,,,,,,,,,,,,,,,,,,,,,,,,,,,,,,,,,,,,,,,,,
,,61577c2dc44ccc73b11049ee,2023-12-07_05h37.54.128,kallum_motion_pilot,2023.2.3,MacIntel,250,61577c2dc44ccc73b11049ee,6560176e4d91f764e2a42c74,657158a757ad15ef0ca313b6,0.02,0.02,1,79,241,85,1,seveneight,,,,,,,,,,,,,,,,,,,,,,,,,,,,,,,,,,,,,,,,,,,,,,,,,,,,,,,,,,,,,,,,,,,,,,,,,,,,,,,,,,,,,,,,,,,,,,,,,,,,,,,,,,,,,,,,,,,,,,,,,,,,,,,,,,,,,,,
,,61577c2dc44ccc73b11049ee,2023-12-07_05h37.54.128,kallum_motion_pilot,2023.2.3,MacIntel,250,61577c2dc44ccc73b11049ee,6560176e4d91f764e2a42c74,657158a757ad15ef0ca313b6,0.02,0.02,1,80,242,146,1,sixfive,,,,,,,,,,,,,,,,,,,,,,,,,,,,,,,,,,,,,,,,,,,,,,,,,,,,,,,,,,,,,,,,,,,,,,,,,,,,,,,,,,,,,,,,,,,,,,,,,,,,,,,,,,,,,,,,,,,,,,,,,,,,,,,,,,,,,,,
,,61577c2dc44ccc73b11049ee,2023-12-07_05h37.54.128,kallum_motion_pilot,2023.2.3,MacIntel,250,61577c2dc44ccc73b11049ee,6560176e4d91f764e2a42c74,657158a757ad15ef0ca313b6,0.02,0.02,1,81,243,64,1,onetwo,,,,,,,,,,,,,,,,,,,,,,,,,,,,,,,,,,,,,,,,,,,,,,,,,,,,,,,,,,,,,,,,,,,,,,,,,,,,,,,,,,,,,,,,,,,,,,,,,,,,,,,,,,,,,,,,,,,,,,,,,,,,,,,,,,,,,,,
,,61577c2dc44ccc73b11049ee,2023-12-07_05h37.54.128,kallum_motion_pilot,2023.2.3,MacIntel,250,61577c2dc44ccc73b11049ee,6560176e4d91f764e2a42c74,657158a757ad15ef0ca313b6,0.022,0.022,1,82,244,106,1,sixfive,,,,,,,,,,,,,,,,,,,,,,,,,,,,,,,,,,,,,,,,,,,,,,,,,,,,,,,,,,,,,,,,,,,,,,,,,,,,,,,,,,,,,,,,,,,,,,,,,,,,,,,,,,,,,,,,,,,,,,,,,,,,,,,,,,,,,,,
,,61577c2dc44ccc73b11049ee,2023-12-07_05h37.54.128,kallum_motion_pilot,2023.2.3,MacIntel,250,61577c2dc44ccc73b11049ee,6560176e4d91f764e2a42c74,657158a757ad15ef0ca313b6,0.022,0.022,1,83,245,6,1,fourtwo,,,,,,,,,,,,,,,,,,,,,,,,,,,,,,,,,,,,,,,,,,,,,,,,,,,,,,,,,,,,,,,,,,,,,,,,,,,,,,,,,,,,,,,,,,,,,,,,,,,,,,,,,,,,,,,,,,,,,,,,,,,,,,,,,,,,,,,
,,61577c2dc44ccc73b11049ee,2023-12-07_05h37.54.128,kallum_motion_pilot,2023.2.3,MacIntel,250,61577c2dc44ccc73b11049ee,6560176e4d91f764e2a42c74,657158a757ad15ef0ca313b6,0.022,0.022,1,84,246,17,1,onethree,,,,,,,,,,,,,,,,,,,,,,,,,,,,,,,,,,,,,,,,,,,,,,,,,,,,,,,,,,,,,,,,,,,,,,,,,,,,,,,,,,,,,,,,,,,,,,,,,,,,,,,,,,,,,,,,,,,,,,,,,,,,,,,,,,,,,,,
,,61577c2dc44ccc73b11049ee,2023-12-07_05h37.54.128,kallum_motion_pilot,2023.2.3,MacIntel,250,61577c2dc44ccc73b11049ee,6560176e4d91f764e2a42c74,657158a757ad15ef0ca313b6,0.022,0.022,1,85,247,32,1,onetwo,,,,,,,,,,,,,,,,,,,,,,,,,,,,,,,,,,,,,,,,,,,,,,,,,,,,,,,,,,,,,,,,,,,,,,,,,,,,,,,,,,,,,,,,,,,,,,,,,,,,,,,,,,,,,,,,,,,,,,,,,,,,,,,,,,,,,,,
,,61577c2dc44ccc73b11049ee,2023-12-07_05h37.54.128,kallum_motion_pilot,2023.2.3,MacIntel,250,61577c2dc44ccc73b11049ee,6560176e4d91f764e2a42c74,657158a757ad15ef0ca313b6,0.024,0.024,1,86,248,89,1,fiveseven,,,,,,,,,,,,,,,,,,,,,,,,,,,,,,,,,,,,,,,,,,,,,,,,,,,,,,,,,,,,,,,,,,,,,,,,,,,,,,,,,,,,,,,,,,,,,,,,,,,,,,,,,,,,,,,,,,,,,,,,,,,,,,,,,,,,,,,
,,61577c2dc44ccc73b11049ee,2023-12-07_05h37.54.128,kallum_motion_pilot,2023.2.3,MacIntel,250,61577c2dc44ccc73b11049ee,6560176e4d91f764e2a42c74,657158a757ad15ef0ca313b6,0.024,0.024,1,87,249,35,1,twofour,,,,,,,,,,,,,,,,,,,,,,,,,,,,,,,,,,,,,,,,,,,,,,,,,,,,,,,,,,,,,,,,,,,,,,,,,,,,,,,,,,,,,,,,,,,,,,,,,,,,,,,,,,,,,,,,,,,,,,,,,,,,,,,,,,,,,,,
,,61577c2dc44ccc73b11049ee,2023-12-07_05h37.54.128,kallum_motion_pilot,2023.2.3,MacIntel,250,61577c2dc44ccc73b11049ee,6560176e4d91f764e2a42c74,657158a757ad15ef0ca313b6,0.024,0.024,1,88,250,119,1,eightseven,,,,,,,,,,,,,,,,,,,,,,,,,,,,,,,,,,,,,,,,,,,,,,,,,,,,,,,,,,,,,,,,,,,,,,,,,,,,,,,,,,,,,,,,,,,,,,,,,,,,,,,,,,,,,,,,,,,,,,,,,,,,,,,,,,,,,,,
,,61577c2dc44ccc73b11049ee,2023-12-07_05h37.54.128,kallum_motion_pilot,2023.2.3,MacIntel,250,61577c2dc44ccc73b11049ee,6560176e4d91f764e2a42c74,657158a757ad15ef0ca313b6,0.024,0.024,1,89,251,154,1,sixfive,,,,,,,,,,,,,,,,,,,,,,,,,,,,,,,,,,,,,,,,,,,,,,,,,,,,,,,,,,,,,,,,,,,,,,,,,,,,,,,,,,,,,,,,,,,,,,,,,,,,,,,,,,,,,,,,,,,,,,,,,,,,,,,,,,,,,,,
,,61577c2dc44ccc73b11049ee,2023-12-07_05h37.54.128,kallum_motion_pilot,2023.2.3,MacIntel,250,61577c2dc44ccc73b11049ee,6560176e4d91f764e2a42c74,657158a757ad15ef0ca313b6,0.024,0.024,1,90,252,92,1,sevenfive,,,,,,,,,,,,,,,,,,,,,,,,,,,,,,,,,,,,,,,,,,,,,,,,,,,,,,,,,,,,,,,,,,,,,,,,,,,,,,,,,,,,,,,,,,,,,,,,,,,,,,,,,,,,,,,,,,,,,,,,,,,,,,,,,,,,,,,
,,61577c2dc44ccc73b11049ee,2023-12-07_05h37.54.128,kallum_motion_pilot,2023.2.3,MacIntel,250,61577c2dc44ccc73b11049ee,6560176e4d91f764e2a42c74,657158a757ad15ef0ca313b6,0.024,0.024,1,91,253,49,1,onethree,,,,,,,,,,,,,,,,,,,,,,,,,,,,,,,,,,,,,,,,,,,,,,,,,,,,,,,,,,,,,,,,,,,,,,,,,,,,,,,,,,,,,,,,,,,,,,,,,,,,,,,,,,,,,,,,,,,,,,,,,,,,,,,,,,,,,,,
,,61577c2dc44ccc73b11049ee,2023-12-07_05h37.54.128,kallum_motion_pilot,2023.2.3,MacIntel,250,61577c2dc44ccc73b11049ee,6560176e4d91f764e2a42c74,657158a757ad15ef0ca313b6,0.024,0.024,1,92,254,26,1,twoone,,,,,,,,,,,,,,,,,,,,,,,,,,,,,,,,,,,,,,,,,,,,,,,,,,,,,,,,,,,,,,,,,,,,,,,,,,,,,,,,,,,,,,,,,,,,,,,,,,,,,,,,,,,,,,,,,,,,,,,,,,,,,,,,,,,,,,,
,,61577c2dc44ccc73b11049ee,2023-12-07_05h37.54.128,kallum_motion_pilot,2023.2.3,MacIntel,250,61577c2dc44ccc73b11049ee,6560176e4d91f764e2a42c74,657158a757ad15ef0ca313b6,0.024,0.024,1,93,255,161,1,fiveseven,,,,,,,,,,,,,,,,,,,,,,,,,,,,,,,,,,,,,,,,,,,,,,,,,,,,,,,,,,,,,,,,,,,,,,,,,,,,,,,,,,,,,,,,,,,,,,,,,,,,,,,,,,,,,,,,,,,,,,,,,,,,,,,,,,,,,,,
,,61577c2dc44ccc73b11049ee,2023-12-07_05h37.54.128,kallum_motion_pilot,2023.2.3,MacIntel,250,61577c2dc44ccc73b11049ee,6560176e4d91f764e2a42c74,657158a757ad15ef0ca313b6,0.024,0.024,1,94,256,43,1,twofour,,,,,,,,,,,,,,,,,,,,,,,,,,,,,,,,,,,,,,,,,,,,,,,,,,,,,,,,,,,,,,,,,,,,,,,,,,,,,,,,,,,,,,,,,,,,,,,,,,,,,,,,,,,,,,,,,,,,,,,,,,,,,,,,,,,,,,,
,,61577c2dc44ccc73b11049ee,2023-12-07_05h37.54.128,kallum_motion_pilot,2023.2.3,MacIntel,250,61577c2dc44ccc73b11049ee,6560176e4d91f764e2a42c74,657158a757ad15ef0ca313b6,0.024,0.024,1,95,257,91,1,sixeight,,,,,,,,,,,,,,,,,,,,,,,,,,,,,,,,,,,,,,,,,,,,,,,,,,,,,,,,,,,,,,,,,,,,,,,,,,,,,,,,,,,,,,,,,,,,,,,,,,,,,,,,,,,,,,,,,,,,,,,,,,,,,,,,,,,,,,,
,,61577c2dc44ccc73b11049ee,2023-12-07_05h37.54.128,kallum_motion_pilot,2023.2.3,MacIntel,250,61577c2dc44ccc73b11049ee,6560176e4d91f764e2a42c74,657158a757ad15ef0ca313b6,0.024,0.024,1,96,258,135,1,eightseven,,,,,,,,,,,,,,,,,,,,,,,,,,,,,,,,,,,,,,,,,,,,,,,,,,,,,,,,,,,,,,,,,,,,,,,,,,,,,,,,,,,,,,,,,,,,,,,,,,,,,,,,,,,,,,,,,,,,,,,,,,,,,,,,,,,,,,,
,,61577c2dc44ccc73b11049ee,2023-12-07_05h37.54.128,kallum_motion_pilot,2023.2.3,MacIntel,250,61577c2dc44ccc73b11049ee,6560176e4d91f764e2a42c74,657158a757ad15ef0ca313b6,0.024,0.024,1,97,259,23,1,fourthree,,,,,,,,,,,,,,,,,,,,,,,,,,,,,,,,,,,,,,,,,,,,,,,,,,,,,,,,,,,,,,,,,,,,,,,,,,,,,,,,,,,,,,,,,,,,,,,,,,,,,,,,,,,,,,,,,,,,,,,,,,,,,,,,,,,,,,,
,,61577c2dc44ccc73b11049ee,2023-12-07_05h37.54.128,kallum_motion_pilot,2023.2.3,MacIntel,250,61577c2dc44ccc73b11049ee,6560176e4d91f764e2a42c74,657158a757ad15ef0ca313b6,0.024,0.024,1,98,260,53,1,threefour,,,,,,,,,,,,,,,,,,,,,,,,,,,,,,,,,,,,,,,,,,,,,,,,,,,,,,,,,,,,,,,,,,,,,,,,,,,,,,,,,,,,,,,,,,,,,,,,,,,,,,,,,,,,,,,,,,,,,,,,,,,,,,,,,,,,,,,
,,61577c2dc44ccc73b11049ee,2023-12-07_05h37.54.128,kallum_motion_pilot,2023.2.3,MacIntel,250,61577c2dc44ccc73b11049ee,6560176e4d91f764e2a42c74,657158a757ad15ef0ca313b6,0.024,0.024,1,99,261,19,1,twofour,,,,,,,,,,,,,,,,,,,,,,,,,,,,,,,,,,,,,,,,,,,,,,,,,,,,,,,,,,,,,,,,,,,,,,,,,,,,,,,,,,,,,,,,,,,,,,,,,,,,,,,,,,,,,,,,,,,,,,,,,,,,,,,,,,,,,,,
,,61577c2dc44ccc73b11049ee,2023-12-07_05h37.54.128,kallum_motion_pilot,2023.2.3,MacIntel,250,61577c2dc44ccc73b11049ee,6560176e4d91f764e2a42c74,657158a757ad15ef0ca313b6,0.024,0.024,1,100,262,46,1,fourtwo,,,,,,,,,,,,,,,,,,,,,,,,,,,,,,,,,,,,,,,,,,,,,,,,,,,,,,,,,,,,,,,,,,,,,,,,,,,,,,,,,,,,,,,,,,,,,,,,,,,,,,,,,,,,,,,,,,,,,,,,,,,,,,,,,,,,,,,
,,61577c2dc44ccc73b11049ee,2023-12-07_05h37.54.128,kallum_motion_pilot,2023.2.3,MacIntel,250,61577c2dc44ccc73b11049ee,6560176e4d91f764e2a42c74,657158a757ad15ef0ca313b6,0.024,0.024,1,101,263,70,1,fourtwo,,,,,,,,,,,,,,,,,,,,,,,,,,,,,,,,,,,,,,,,,,,,,,,,,,,,,,,,,,,,,,,,,,,,,,,,,,,,,,,,,,,,,,,,,,,,,,,,,,,,,,,,,,,,,,,,,,,,,,,,,,,,,,,,,,,,,,,
,,61577c2dc44ccc73b11049ee,2023-12-07_05h37.54.128,kallum_motion_pilot,2023.2.3,MacIntel,250,61577c2dc44ccc73b11049ee,6560176e4d91f764e2a42c74,657158a757ad15ef0ca313b6,0.024,0.024,1,102,264,80,1,fivesix,,,,,,,,,,,,,,,,,,,,,,,,,,,,,,,,,,,,,,,,,,,,,,,,,,,,,,,,,,,,,,,,,,,,,,,,,,,,,,,,,,,,,,,,,,,,,,,,,,,,,,,,,,,,,,,,,,,,,,,,,,,,,,,,,,,,,,,
,,61577c2dc44ccc73b11049ee,2023-12-07_05h37.54.128,kallum_motion_pilot,2023.2.3,MacIntel,250,61577c2dc44ccc73b11049ee,6560176e4d91f764e2a42c74,657158a757ad15ef0ca313b6,0.024,0.024,1,103,265,37,1,threefour,,,,,,,,,,,,,,,,,,,,,,,,,,,,,,,,,,,,,,,,,,,,,,,,,,,,,,,,,,,,,,,,,,,,,,,,,,,,,,,,,,,,,,,,,,,,,,,,,,,,,,,,,,,,,,,,,,,,,,,,,,,,,,,,,,,,,,,
,,61577c2dc44ccc73b11049ee,2023-12-07_05h37.54.128,kallum_motion_pilot,2023.2.3,MacIntel,250,61577c2dc44ccc73b11049ee,6560176e4d91f764e2a42c74,657158a757ad15ef0ca313b6,0.024,0.024,1,104,266,38,1,fourtwo,,,,,,,,,,,,,,,,,,,,,,,,,,,,,,,,,,,,,,,,,,,,,,,,,,,,,,,,,,,,,,,,,,,,,,,,,,,,,,,,,,,,,,,,,,,,,,,,,,,,,,,,,,,,,,,,,,,,,,,,,,,,,,,,,,,,,,,
,,61577c2dc44ccc73b11049ee,2023-12-07_05h37.54.128,kallum_motion_pilot,2023.2.3,MacIntel,250,61577c2dc44ccc73b11049ee,6560176e4d91f764e2a42c74,657158a757ad15ef0ca313b6,0.024,0.024,1,105,267,117,1,seveneight,,,,,,,,,,,,,,,,,,,,,,,,,,,,,,,,,,,,,,,,,,,,,,,,,,,,,,,,,,,,,,,,,,,,,,,,,,,,,,,,,,,,,,,,,,,,,,,,,,,,,,,,,,,,,,,,,,,,,,,,,,,,,,,,,,,,,,,
,,61577c2dc44ccc73b11049ee,2023-12-07_05h37.54.128,kallum_motion_pilot,2023.2.3,MacIntel,250,61577c2dc44ccc73b11049ee,6560176e4d91f764e2a42c74,657158a757ad15ef0ca313b6,0.024,0.024,1,106,268,81,1,fiveseven,,,,,,,,,,,,,,,,,,,,,,,,,,,,,,,,,,,,,,,,,,,,,,,,,,,,,,,,,,,,,,,,,,,,,,,,,,,,,,,,,,,,,,,,,,,,,,,,,,,,,,,,,,,,,,,,,,,,,,,,,,,,,,,,,,,,,,,
,,61577c2dc44ccc73b11049ee,2023-12-07_05h37.54.128,kallum_motion_pilot,2023.2.3,MacIntel,250,61577c2dc44ccc73b11049ee,6560176e4d91f764e2a42c74,657158a757ad15ef0ca313b6,0.024,0.024,1,107,269,14,1,fourtwo,,,,,,,,,,,,,,,,,,,,,,,,,,,,,,,,,,,,,,,,,,,,,,,,,,,,,,,,,,,,,,,,,,,,,,,,,,,,,,,,,,,,,,,,,,,,,,,,,,,,,,,,,,,,,,,,,,,,,,,,,,,,,,,,,,,,,,,
,,61577c2dc44ccc73b11049ee,2023-12-07_05h37.54.128,kallum_motion_pilot,2023.2.3,MacIntel,250,61577c2dc44ccc73b11049ee,6560176e4d91f764e2a42c74,657158a757ad15ef0ca313b6,0.024,0.024,1,108,270,121,1,fiveseven,,,,,,,,,,,,,,,,,,,,,,,,,,,,,,,,,,,,,,,,,,,,,,,,,,,,,,,,,,,,,,,,,,,,,,,,,,,,,,,,,,,,,,,,,,,,,,,,,,,,,,,,,,,,,,,,,,,,,,,,,,,,,,,,,,,,,,,
,,61577c2dc44ccc73b11049ee,2023-12-07_05h37.54.128,kallum_motion_pilot,2023.2.3,MacIntel,250,61577c2dc44ccc73b11049ee,6560176e4d91f764e2a42c74,657158a757ad15ef0ca313b6,0.024,0.024,1,109,271,84,1,sevenfive,,,,,,,,,,,,,,,,,,,,,,,,,,,,,,,,,,,,,,,,,,,,,,,,,,,,,,,,,,,,,,,,,,,,,,,,,,,,,,,,,,,,,,,,,,,,,,,,,,,,,,,,,,,,,,,,,,,,,,,,,,,,,,,,,,,,,,,
,,61577c2dc44ccc73b11049ee,2023-12-07_05h37.54.128,kallum_motion_pilot,2023.2.3,MacIntel,250,61577c2dc44ccc73b11049ee,6560176e4d91f764e2a42c74,657158a757ad15ef0ca313b6,0.024,0.024,1,110,272,118,1,eightsix,,,,,,,,,,,,,,,,,,,,,,,,,,,,,,,,,,,,,,,,,,,,,,,,,,,,,,,,,,,,,,,,,,,,,,,,,,,,,,,,,,,,,,,,,,,,,,,,,,,,,,,,,,,,,,,,,,,,,,,,,,,,,,,,,,,,,,,
,,61577c2dc44ccc73b11049ee,2023-12-07_05h37.54.128,kallum_motion_pilot,2023.2.3,MacIntel,250,61577c2dc44ccc73b11049ee,6560176e4d91f764e2a42c74,657158a757ad15ef0ca313b6,0.024,0.024,1,111,273,126,1,eightsix,,,,,,,,,,,,,,,,,,,,,,,,,,,,,,,,,,,,,,,,,,,,,,,,,,,,,,,,,,,,,,,,,,,,,,,,,,,,,,,,,,,,,,,,,,,,,,,,,,,,,,,,,,,,,,,,,,,,,,,,,,,,,,,,,,,,,,,
,,61577c2dc44ccc73b11049ee,2023-12-07_05h37.54.128,kallum_motion_pilot,2023.2.3,MacIntel,250,61577c2dc44ccc73b11049ee,6560176e4d91f764e2a42c74,657158a757ad15ef0ca313b6,0.024,0.024,1,112,274,109,1,seveneight,,,,,,,,,,,,,,,,,,,,,,,,,,,,,,,,,,,,,,,,,,,,,,,,,,,,,,,,,,,,,,,,,,,,,,,,,,,,,,,,,,,,,,,,,,,,,,,,,,,,,,,,,,,,,,,,,,,,,,,,,,,,,,,,,,,,,,,
,,61577c2dc44ccc73b11049ee,2023-12-07_05h37.54.128,kallum_motion_pilot,2023.2.3,MacIntel,250,61577c2dc44ccc73b11049ee,6560176e4d91f764e2a42c74,657158a757ad15ef0ca313b6,0.024,0.024,1,113,275,103,1,eightseven,,,,,,,,,,,,,,,,,,,,,,,,,,,,,,,,,,,,,,,,,,,,,,,,,,,,,,,,,,,,,,,,,,,,,,,,,,,,,,,,,,,,,,,,,,,,,,,,,,,,,,,,,,,,,,,,,,,,,,,,,,,,,,,,,,,,,,,
,,61577c2dc44ccc73b11049ee,2023-12-07_05h37.54.128,kallum_motion_pilot,2023.2.3,MacIntel,250,61577c2dc44ccc73b11049ee,6560176e4d91f764e2a42c74,657158a757ad15ef0ca313b6,0.025,0.025,1,114,276,98,1,sixfive,,,,,,,,,,,,,,,,,,,,,,,,,,,,,,,,,,,,,,,,,,,,,,,,,,,,,,,,,,,,,,,,,,,,,,,,,,,,,,,,,,,,,,,,,,,,,,,,,,,,,,,,,,,,,,,,,,,,,,,,,,,,,,,,,,,,,,,
,,61577c2dc44ccc73b11049ee,2023-12-07_05h37.54.128,kallum_motion_pilot,2023.2.3,MacIntel,250,61577c2dc44ccc73b11049ee,6560176e4d91f764e2a42c74,657158a757ad15ef0ca313b6,0.025,0.025,1,115,277,73,1,onethree,,,,,,,,,,,,,,,,,,,,,,,,,,,,,,,,,,,,,,,,,,,,,,,,,,,,,,,,,,,,,,,,,,,,,,,,,,,,,,,,,,,,,,,,,,,,,,,,,,,,,,,,,,,,,,,,,,,,,,,,,,,,,,,,,,,,,,,
,,61577c2dc44ccc73b11049ee,2023-12-07_05h37.54.128,kallum_motion_pilot,2023.2.3,MacIntel,250,61577c2dc44ccc73b11049ee,6560176e4d91f764e2a42c74,657158a757ad15ef0ca313b6,0.025,0.025,1,116,278,21,1,threefour,,,,,,,,,,,,,,,,,,,,,,,,,,,,,,,,,,,,,,,,,,,,,,,,,,,,,,,,,,,,,,,,,,,,,,,,,,,,,,,,,,,,,,,,,,,,,,,,,,,,,,,,,,,,,,,,,,,,,,,,,,,,,,,,,,,,,,,
,,61577c2dc44ccc73b11049ee,2023-12-07_05h37.54.128,kallum_motion_pilot,2023.2.3,MacIntel,250,61577c2dc44ccc73b11049ee,6560176e4d91f764e2a42c74,657158a757ad15ef0ca313b6,0.025,0.025,1,117,279,130,1,sixfive,,,,,,,,,,,,,,,,,,,,,,,,,,,,,,,,,,,,,,,,,,,,,,,,,,,,,,,,,,,,,,,,,,,,,,,,,,,,,,,,,,,,,,,,,,,,,,,,,,,,,,,,,,,,,,,,,,,,,,,,,,,,,,,,,,,,,,,
,,61577c2dc44ccc73b11049ee,2023-12-07_05h37.54.128,kallum_motion_pilot,2023.2.3,MacIntel,250,61577c2dc44ccc73b11049ee,6560176e4d91f764e2a42c74,657158a757ad15ef0ca313b6,0.025,0.025,1,118,280,156,1,sevenfive,,,,,,,,,,,,,,,,,,,,,,,,,,,,,,,,,,,,,,,,,,,,,,,,,,,,,,,,,,,,,,,,,,,,,,,,,,,,,,,,,,,,,,,,,,,,,,,,,,,,,,,,,,,,,,,,,,,,,,,,,,,,,,,,,,,,,,,
,,61577c2dc44ccc73b11049ee,2023-12-07_05h37.54.128,kallum_motion_pilot,2023.2.3,MacIntel,250,61577c2dc44ccc73b11049ee,6560176e4d91f764e2a42c74,657158a757ad15ef0ca313b6,0.025,0.025,1,119,281,57,1,onethree,,,,,,,,,,,,,,,,,,,,,,,,,,,,,,,,,,,,,,,,,,,,,,,,,,,,,,,,,,,,,,,,,,,,,,,,,,,,,,,,,,,,,,,,,,,,,,,,,,,,,,,,,,,,,,,,,,,,,,,,,,,,,,,,,,,,,,,
,,61577c2dc44ccc73b11049ee,2023-12-07_05h37.54.128,kallum_motion_pilot,2023.2.3,MacIntel,250,61577c2dc44ccc73b11049ee,6560176e4d91f764e2a42c74,657158a757ad15ef0ca313b6,0.025,0.025,1,120,282,132,1,sevenfive,,,,,,,,,,,,,,,,,,,,,,,,,,,,,,,,,,,,,,,,,,,,,,,,,,,,,,,,,,,,,,,,,,,,,,,,,,,,,,,,,,,,,,,,,,,,,,,,,,,,,,,,,,,,,,,,,,,,,,,,,,,,,,,,,,,,,,,
,,61577c2dc44ccc73b11049ee,2023-12-07_05h37.54.128,kallum_motion_pilot,2023.2.3,MacIntel,250,61577c2dc44ccc73b11049ee,6560176e4d91f764e2a42c74,657158a757ad15ef0ca313b6,0.025,0.025,1,121,283,74,1,twoone,,,,,,,,,,,,,,,,,,,,,,,,,,,,,,,,,,,,,,,,,,,,,,,,,,,,,,,,,,,,,,,,,,,,,,,,,,,,,,,,,,,,,,,,,,,,,,,,,,,,,,,,,,,,,,,,,,,,,,,,,,,,,,,,,,,,,,,
,,61577c2dc44ccc73b11049ee,2023-12-07_05h37.54.128,kallum_motion_pilot,2023.2.3,MacIntel,250,61577c2dc44ccc73b11049ee,6560176e4d91f764e2a42c74,657158a757ad15ef0ca313b6,0.025,0.025,1,122,284,149,1,seveneight,,,,,,,,,,,,,,,,,,,,,,,,,,,,,,,,,,,,,,,,,,,,,,,,,,,,,,,,,,,,,,,,,,,,,,,,,,,,,,,,,,,,,,,,,,,,,,,,,,,,,,,,,,,,,,,,,,,,,,,,,,,,,,,,,,,,,,,
,,61577c2dc44ccc73b11049ee,2023-12-07_05h37.54.128,kallum_motion_pilot,2023.2.3,MacIntel,250,61577c2dc44ccc73b11049ee,6560176e4d91f764e2a42c74,657158a757ad15ef0ca313b6,0.025,0.025,1,123,285,140,1,sevenfive,,,,,,,,,,,,,,,,,,,,,,,,,,,,,,,,,,,,,,,,,,,,,,,,,,,,,,,,,,,,,,,,,,,,,,,,,,,,,,,,,,,,,,,,,,,,,,,,,,,,,,,,,,,,,,,,,,,,,,,,,,,,,,,,,,,,,,,
