startup.started,startup.stopped,Prolific ID*,date,expName,psychopyVersion,OS,frameRate,participant,study_id,session,stimpositions.started,stimpositions.stopped,hardcoded_stimulus_positions.thisRepN,hardcoded_stimulus_positions.thisTrialN,hardcoded_stimulus_positions.thisN,hardcoded_stimulus_positions.thisIndex,hardcoded_stimulus_positions.ran,StimulusPos,stimorientation.started,stimorientation.stopped,prac_stimorientation_import_loop.thisRepN,prac_stimorientation_import_loop.thisTrialN,prac_stimorientation_import_loop.thisN,prac_stimorientation_import_loop.thisIndex,prac_stimorientation_import_loop.ran,Stimorientation,welcome_instr.started,welcome_instr.stopped,key_resp.keys,key_resp.rt,key_resp.duration,response_steppedout_1.started,response_steppedout_1.stopped,key_resp_20.keys,key_resp_20.rt,key_resp_20.duration,response_steppedout_2.started,response_steppedout_2.stopped,key_resp_19.keys,key_resp_19.rt,key_resp_19.duration,stim_response_instr.started,stim_response_instr.stopped,key_resp_15.keys,key_resp_15.rt,key_resp_15.duration,direction_instr_2.started,direction_instr_2.stopped,key_resp_9.keys,key_resp_9.rt,key_resp_9.duration,instr_prac.started,instr_prac.stopped,key_resp_10.keys,key_resp_10.rt,key_resp_10.duration,Stim1_display_prac.started,Stim1_display_prac.stopped,Ecc,Circle1_ori,Circle2_ori,response_prac.started,similarity,response_time,response_prac.stopped,mouse_5.x,mouse_5.y,mouse_5.leftButton,mouse_5.midButton,mouse_5.rightButton,mouse_5.clicked_name,responseprac_feedback.started,responseprac_feedback.stopped,summary2_prac.started,summary2_prac.stopped,mouse_6.x,mouse_6.y,mouse_6.leftButton,mouse_6.midButton,mouse_6.rightButton,mouse_6.clicked_name,duringprac.thisRepN,duringprac.thisTrialN,duringprac.thisN,duringprac.thisIndex,duringprac.ran,begin.started,begin.stopped,key_resp_22.keys,key_resp_22.rt,key_resp_22.duration,Stim1_display.started,Stim1_display.stopped,circle1_ori,circle2_ori,blank.started,blank.stopped,response.started,response.stopped,mouse.x,mouse.y,mouse.leftButton,mouse.midButton,mouse.rightButton,mouse.clicked_name,response_2.started,response_2.stopped,mouse_2.x,mouse_2.y,mouse_2.leftButton,mouse_2.midButton,mouse_2.rightButton,mouse_2.clicked_name,special_trial.started,special_trial.stopped,catch_1.started,catch_1.stopped,mouse_3.x,mouse_3.y,mouse_3.leftButton,mouse_3.midButton,mouse_3.rightButton,catchresponse,catchnumber,response_time_catch,Catch,response_sum.started,response_sum.stopped,mouse_11.x,mouse_11.y,mouse_11.leftButton,mouse_11.midButton,mouse_11.rightButton,main_trial.thisRepN,main_trial.thisTrialN,main_trial.thisN,main_trial.thisIndex,main_trial.ran,Orientationtrialno,xcircle1_ori,xcircle2_ori,flip_presentation_sequence_for_double_pass.started,flip_presentation_sequence_for_double_pass.stopped,double_pass.thisRepN,double_pass.thisTrialN,double_pass.thisN,double_pass.thisIndex,double_pass.ran,goodbye.started,goodbye.stopped,key_resp_3.keys,key_resp_3.rt,key_resp_3.duration
0.0037,0.0039,6159e8d7327e9932b6cc3333,2023-12-07_07h35.14.084,kallum_motion_pilot,2023.2.3,MacIntel,60.0024001,6159e8d7327e9932b6cc3333,6560176e4d91f764e2a42c74,657158154b34750c7e471c55,,,,,,,,,,,,,,,,,,,,,,,,,,,,,,,,,,,,,,,,,,,,,,,,,,,,,,,,,,,,,,,,,,,,,,,,,,,,,,,,,,,,,,,,,,,,,,,,,,,,,,,,,,,,,,,,,,,,,,,,,,,,,,,,,,,,,,,,,,,,,,,
,,6159e8d7327e9932b6cc3333,2023-12-07_07h35.14.084,kallum_motion_pilot,2023.2.3,MacIntel,60.0024001,6159e8d7327e9932b6cc3333,6560176e4d91f764e2a42c74,657158154b34750c7e471c55,0.042,0.0423,0,0,0,126,1,eightsix,,,,,,,,,,,,,,,,,,,,,,,,,,,,,,,,,,,,,,,,,,,,,,,,,,,,,,,,,,,,,,,,,,,,,,,,,,,,,,,,,,,,,,,,,,,,,,,,,,,,,,,,,,,,,,,,,,,,,,,,,,,,,,,,,,,,,,,
,,6159e8d7327e9932b6cc3333,2023-12-07_07h35.14.084,kallum_motion_pilot,2023.2.3,MacIntel,60.0024001,6159e8d7327e9932b6cc3333,6560176e4d91f764e2a42c74,657158154b34750c7e471c55,0.0426,0.0427,0,1,1,5,1,threefour,,,,,,,,,,,,,,,,,,,,,,,,,,,,,,,,,,,,,,,,,,,,,,,,,,,,,,,,,,,,,,,,,,,,,,,,,,,,,,,,,,,,,,,,,,,,,,,,,,,,,,,,,,,,,,,,,,,,,,,,,,,,,,,,,,,,,,,
,,6159e8d7327e9932b6cc3333,2023-12-07_07h35.14.084,kallum_motion_pilot,2023.2.3,MacIntel,60.0024001,6159e8d7327e9932b6cc3333,6560176e4d91f764e2a42c74,657158154b34750c7e471c55,0.0429,0.043,0,2,2,101,1,seveneight,,,,,,,,,,,,,,,,,,,,,,,,,,,,,,,,,,,,,,,,,,,,,,,,,,,,,,,,,,,,,,,,,,,,,,,,,,,,,,,,,,,,,,,,,,,,,,,,,,,,,,,,,,,,,,,,,,,,,,,,,,,,,,,,,,,,,,,
,,6159e8d7327e9932b6cc3333,2023-12-07_07h35.14.084,kallum_motion_pilot,2023.2.3,MacIntel,60.0024001,6159e8d7327e9932b6cc3333,6560176e4d91f764e2a42c74,657158154b34750c7e471c55,0.0432,0.0432,0,3,3,16,1,onetwo,,,,,,,,,,,,,,,,,,,,,,,,,,,,,,,,,,,,,,,,,,,,,,,,,,,,,,,,,,,,,,,,,,,,,,,,,,,,,,,,,,,,,,,,,,,,,,,,,,,,,,,,,,,,,,,,,,,,,,,,,,,,,,,,,,,,,,,
,,6159e8d7327e9932b6cc3333,2023-12-07_07h35.14.084,kallum_motion_pilot,2023.2.3,MacIntel,60.0024001,6159e8d7327e9932b6cc3333,6560176e4d91f764e2a42c74,657158154b34750c7e471c55,0.0434,0.0438,0,4,4,58,1,twoone,,,,,,,,,,,,,,,,,,,,,,,,,,,,,,,,,,,,,,,,,,,,,,,,,,,,,,,,,,,,,,,,,,,,,,,,,,,,,,,,,,,,,,,,,,,,,,,,,,,,,,,,,,,,,,,,,,,,,,,,,,,,,,,,,,,,,,,
,,6159e8d7327e9932b6cc3333,2023-12-07_07h35.14.084,kallum_motion_pilot,2023.2.3,MacIntel,60.0024001,6159e8d7327e9932b6cc3333,6560176e4d91f764e2a42c74,657158154b34750c7e471c55,0.044,0.044,0,5,5,146,1,sixfive,,,,,,,,,,,,,,,,,,,,,,,,,,,,,,,,,,,,,,,,,,,,,,,,,,,,,,,,,,,,,,,,,,,,,,,,,,,,,,,,,,,,,,,,,,,,,,,,,,,,,,,,,,,,,,,,,,,,,,,,,,,,,,,,,,,,,,,
,,6159e8d7327e9932b6cc3333,2023-12-07_07h35.14.084,kallum_motion_pilot,2023.2.3,MacIntel,60.0024001,6159e8d7327e9932b6cc3333,6560176e4d91f764e2a42c74,657158154b34750c7e471c55,0.0442,0.0443,0,6,6,22,1,fourtwo,,,,,,,,,,,,,,,,,,,,,,,,,,,,,,,,,,,,,,,,,,,,,,,,,,,,,,,,,,,,,,,,,,,,,,,,,,,,,,,,,,,,,,,,,,,,,,,,,,,,,,,,,,,,,,,,,,,,,,,,,,,,,,,,,,,,,,,
,,6159e8d7327e9932b6cc3333,2023-12-07_07h35.14.084,kallum_motion_pilot,2023.2.3,MacIntel,60.0024001,6159e8d7327e9932b6cc3333,6560176e4d91f764e2a42c74,657158154b34750c7e471c55,0.0445,0.0446,0,7,7,89,1,fiveseven,,,,,,,,,,,,,,,,,,,,,,,,,,,,,,,,,,,,,,,,,,,,,,,,,,,,,,,,,,,,,,,,,,,,,,,,,,,,,,,,,,,,,,,,,,,,,,,,,,,,,,,,,,,,,,,,,,,,,,,,,,,,,,,,,,,,,,,
,,6159e8d7327e9932b6cc3333,2023-12-07_07h35.14.084,kallum_motion_pilot,2023.2.3,MacIntel,60.0024001,6159e8d7327e9932b6cc3333,6560176e4d91f764e2a42c74,657158154b34750c7e471c55,0.0448,0.045,0,8,8,117,1,seveneight,,,,,,,,,,,,,,,,,,,,,,,,,,,,,,,,,,,,,,,,,,,,,,,,,,,,,,,,,,,,,,,,,,,,,,,,,,,,,,,,,,,,,,,,,,,,,,,,,,,,,,,,,,,,,,,,,,,,,,,,,,,,,,,,,,,,,,,
,,6159e8d7327e9932b6cc3333,2023-12-07_07h35.14.084,kallum_motion_pilot,2023.2.3,MacIntel,60.0024001,6159e8d7327e9932b6cc3333,6560176e4d91f764e2a42c74,657158154b34750c7e471c55,0.0452,0.0452,0,9,9,43,1,twofour,,,,,,,,,,,,,,,,,,,,,,,,,,,,,,,,,,,,,,,,,,,,,,,,,,,,,,,,,,,,,,,,,,,,,,,,,,,,,,,,,,,,,,,,,,,,,,,,,,,,,,,,,,,,,,,,,,,,,,,,,,,,,,,,,,,,,,,
,,6159e8d7327e9932b6cc3333,2023-12-07_07h35.14.084,kallum_motion_pilot,2023.2.3,MacIntel,60.0024001,6159e8d7327e9932b6cc3333,6560176e4d91f764e2a42c74,657158154b34750c7e471c55,0.0453,0.0454,0,10,10,155,1,sixeight,,,,,,,,,,,,,,,,,,,,,,,,,,,,,,,,,,,,,,,,,,,,,,,,,,,,,,,,,,,,,,,,,,,,,,,,,,,,,,,,,,,,,,,,,,,,,,,,,,,,,,,,,,,,,,,,,,,,,,,,,,,,,,,,,,,,,,,
,,6159e8d7327e9932b6cc3333,2023-12-07_07h35.14.084,kallum_motion_pilot,2023.2.3,MacIntel,60.0024001,6159e8d7327e9932b6cc3333,6560176e4d91f764e2a42c74,657158154b34750c7e471c55,0.0457,0.0457,0,11,11,148,1,sevenfive,,,,,,,,,,,,,,,,,,,,,,,,,,,,,,,,,,,,,,,,,,,,,,,,,,,,,,,,,,,,,,,,,,,,,,,,,,,,,,,,,,,,,,,,,,,,,,,,,,,,,,,,,,,,,,,,,,,,,,,,,,,,,,,,,,,,,,,
,,6159e8d7327e9932b6cc3333,2023-12-07_07h35.14.084,kallum_motion_pilot,2023.2.3,MacIntel,60.0024001,6159e8d7327e9932b6cc3333,6560176e4d91f764e2a42c74,657158154b34750c7e471c55,0.0459,0.046,0,12,12,9,1,onethree,,,,,,,,,,,,,,,,,,,,,,,,,,,,,,,,,,,,,,,,,,,,,,,,,,,,,,,,,,,,,,,,,,,,,,,,,,,,,,,,,,,,,,,,,,,,,,,,,,,,,,,,,,,,,,,,,,,,,,,,,,,,,,,,,,,,,,,
,,6159e8d7327e9932b6cc3333,2023-12-07_07h35.14.084,kallum_motion_pilot,2023.2.3,MacIntel,60.0024001,6159e8d7327e9932b6cc3333,6560176e4d91f764e2a42c74,657158154b34750c7e471c55,0.0461,0.0462,0,13,13,91,1,sixeight,,,,,,,,,,,,,,,,,,,,,,,,,,,,,,,,,,,,,,,,,,,,,,,,,,,,,,,,,,,,,,,,,,,,,,,,,,,,,,,,,,,,,,,,,,,,,,,,,,,,,,,,,,,,,,,,,,,,,,,,,,,,,,,,,,,,,,,
,,6159e8d7327e9932b6cc3333,2023-12-07_07h35.14.084,kallum_motion_pilot,2023.2.3,MacIntel,60.0024001,6159e8d7327e9932b6cc3333,6560176e4d91f764e2a42c74,657158154b34750c7e471c55,0.0465,0.0466,0,14,14,110,1,eightsix,,,,,,,,,,,,,,,,,,,,,,,,,,,,,,,,,,,,,,,,,,,,,,,,,,,,,,,,,,,,,,,,,,,,,,,,,,,,,,,,,,,,,,,,,,,,,,,,,,,,,,,,,,,,,,,,,,,,,,,,,,,,,,,,,,,,,,,
,,6159e8d7327e9932b6cc3333,2023-12-07_07h35.14.084,kallum_motion_pilot,2023.2.3,MacIntel,60.0024001,6159e8d7327e9932b6cc3333,6560176e4d91f764e2a42c74,657158154b34750c7e471c55,0.0467,0.0467,0,15,15,48,1,onetwo,,,,,,,,,,,,,,,,,,,,,,,,,,,,,,,,,,,,,,,,,,,,,,,,,,,,,,,,,,,,,,,,,,,,,,,,,,,,,,,,,,,,,,,,,,,,,,,,,,,,,,,,,,,,,,,,,,,,,,,,,,,,,,,,,,,,,,,
,,6159e8d7327e9932b6cc3333,2023-12-07_07h35.14.084,kallum_motion_pilot,2023.2.3,MacIntel,60.0024001,6159e8d7327e9932b6cc3333,6560176e4d91f764e2a42c74,657158154b34750c7e471c55,0.0469,0.047,0,16,16,7,1,fourthree,,,,,,,,,,,,,,,,,,,,,,,,,,,,,,,,,,,,,,,,,,,,,,,,,,,,,,,,,,,,,,,,,,,,,,,,,,,,,,,,,,,,,,,,,,,,,,,,,,,,,,,,,,,,,,,,,,,,,,,,,,,,,,,,,,,,,,,
,,6159e8d7327e9932b6cc3333,2023-12-07_07h35.14.084,kallum_motion_pilot,2023.2.3,MacIntel,60.0024001,6159e8d7327e9932b6cc3333,6560176e4d91f764e2a42c74,657158154b34750c7e471c55,0.047,0.047,0,17,17,145,1,fiveseven,,,,,,,,,,,,,,,,,,,,,,,,,,,,,,,,,,,,,,,,,,,,,,,,,,,,,,,,,,,,,,,,,,,,,,,,,,,,,,,,,,,,,,,,,,,,,,,,,,,,,,,,,,,,,,,,,,,,,,,,,,,,,,,,,,,,,,,
,,6159e8d7327e9932b6cc3333,2023-12-07_07h35.14.084,kallum_motion_pilot,2023.2.3,MacIntel,60.0024001,6159e8d7327e9932b6cc3333,6560176e4d91f764e2a42c74,657158154b34750c7e471c55,0.0472,0.0473,0,18,18,132,1,sevenfive,,,,,,,,,,,,,,,,,,,,,,,,,,,,,,,,,,,,,,,,,,,,,,,,,,,,,,,,,,,,,,,,,,,,,,,,,,,,,,,,,,,,,,,,,,,,,,,,,,,,,,,,,,,,,,,,,,,,,,,,,,,,,,,,,,,,,,,
,,6159e8d7327e9932b6cc3333,2023-12-07_07h35.14.084,kallum_motion_pilot,2023.2.3,MacIntel,60.0024001,6159e8d7327e9932b6cc3333,6560176e4d91f764e2a42c74,657158154b34750c7e471c55,0.0474,0.0476,0,19,19,72,1,onetwo,,,,,,,,,,,,,,,,,,,,,,,,,,,,,,,,,,,,,,,,,,,,,,,,,,,,,,,,,,,,,,,,,,,,,,,,,,,,,,,,,,,,,,,,,,,,,,,,,,,,,,,,,,,,,,,,,,,,,,,,,,,,,,,,,,,,,,,
,,6159e8d7327e9932b6cc3333,2023-12-07_07h35.14.084,kallum_motion_pilot,2023.2.3,MacIntel,60.0024001,6159e8d7327e9932b6cc3333,6560176e4d91f764e2a42c74,657158154b34750c7e471c55,0.0478,0.0478,0,20,20,25,1,onethree,,,,,,,,,,,,,,,,,,,,,,,,,,,,,,,,,,,,,,,,,,,,,,,,,,,,,,,,,,,,,,,,,,,,,,,,,,,,,,,,,,,,,,,,,,,,,,,,,,,,,,,,,,,,,,,,,,,,,,,,,,,,,,,,,,,,,,,
,,6159e8d7327e9932b6cc3333,2023-12-07_07h35.14.084,kallum_motion_pilot,2023.2.3,MacIntel,60.0024001,6159e8d7327e9932b6cc3333,6560176e4d91f764e2a42c74,657158154b34750c7e471c55,0.048,0.0481,0,21,21,45,1,threefour,,,,,,,,,,,,,,,,,,,,,,,,,,,,,,,,,,,,,,,,,,,,,,,,,,,,,,,,,,,,,,,,,,,,,,,,,,,,,,,,,,,,,,,,,,,,,,,,,,,,,,,,,,,,,,,,,,,,,,,,,,,,,,,,,,,,,,,
,,6159e8d7327e9932b6cc3333,2023-12-07_07h35.14.084,kallum_motion_pilot,2023.2.3,MacIntel,60.0024001,6159e8d7327e9932b6cc3333,6560176e4d91f764e2a42c74,657158154b34750c7e471c55,0.0484,0.0485,0,22,22,20,1,threeone,,,,,,,,,,,,,,,,,,,,,,,,,,,,,,,,,,,,,,,,,,,,,,,,,,,,,,,,,,,,,,,,,,,,,,,,,,,,,,,,,,,,,,,,,,,,,,,,,,,,,,,,,,,,,,,,,,,,,,,,,,,,,,,,,,,,,,,
,,6159e8d7327e9932b6cc3333,2023-12-07_07h35.14.084,kallum_motion_pilot,2023.2.3,MacIntel,60.0024001,6159e8d7327e9932b6cc3333,6560176e4d91f764e2a42c74,657158154b34750c7e471c55,0.0495,0.0496,0,23,23,86,1,eightsix,,,,,,,,,,,,,,,,,,,,,,,,,,,,,,,,,,,,,,,,,,,,,,,,,,,,,,,,,,,,,,,,,,,,,,,,,,,,,,,,,,,,,,,,,,,,,,,,,,,,,,,,,,,,,,,,,,,,,,,,,,,,,,,,,,,,,,,
,,6159e8d7327e9932b6cc3333,2023-12-07_07h35.14.084,kallum_motion_pilot,2023.2.3,MacIntel,60.0024001,6159e8d7327e9932b6cc3333,6560176e4d91f764e2a42c74,657158154b34750c7e471c55,0.0501,0.0503,0,24,24,31,1,fourthree,,,,,,,,,,,,,,,,,,,,,,,,,,,,,,,,,,,,,,,,,,,,,,,,,,,,,,,,,,,,,,,,,,,,,,,,,,,,,,,,,,,,,,,,,,,,,,,,,,,,,,,,,,,,,,,,,,,,,,,,,,,,,,,,,,,,,,,
,,6159e8d7327e9932b6cc3333,2023-12-07_07h35.14.084,kallum_motion_pilot,2023.2.3,MacIntel,60.0024001,6159e8d7327e9932b6cc3333,6560176e4d91f764e2a42c74,657158154b34750c7e471c55,0.0506,0.0507,0,25,25,30,1,fourtwo,,,,,,,,,,,,,,,,,,,,,,,,,,,,,,,,,,,,,,,,,,,,,,,,,,,,,,,,,,,,,,,,,,,,,,,,,,,,,,,,,,,,,,,,,,,,,,,,,,,,,,,,,,,,,,,,,,,,,,,,,,,,,,,,,,,,,,,
,,6159e8d7327e9932b6cc3333,2023-12-07_07h35.14.084,kallum_motion_pilot,2023.2.3,MacIntel,60.0024001,6159e8d7327e9932b6cc3333,6560176e4d91f764e2a42c74,657158154b34750c7e471c55,0.0509,0.053,0,26,26,149,1,seveneight,,,,,,,,,,,,,,,,,,,,,,,,,,,,,,,,,,,,,,,,,,,,,,,,,,,,,,,,,,,,,,,,,,,,,,,,,,,,,,,,,,,,,,,,,,,,,,,,,,,,,,,,,,,,,,,,,,,,,,,,,,,,,,,,,,,,,,,
,,6159e8d7327e9932b6cc3333,2023-12-07_07h35.14.084,kallum_motion_pilot,2023.2.3,MacIntel,60.0024001,6159e8d7327e9932b6cc3333,6560176e4d91f764e2a42c74,657158154b34750c7e471c55,0.0532,0.0533,0,27,27,18,1,twoone,,,,,,,,,,,,,,,,,,,,,,,,,,,,,,,,,,,,,,,,,,,,,,,,,,,,,,,,,,,,,,,,,,,,,,,,,,,,,,,,,,,,,,,,,,,,,,,,,,,,,,,,,,,,,,,,,,,,,,,,,,,,,,,,,,,,,,,
,,6159e8d7327e9932b6cc3333,2023-12-07_07h35.14.084,kallum_motion_pilot,2023.2.3,MacIntel,60.0024001,6159e8d7327e9932b6cc3333,6560176e4d91f764e2a42c74,657158154b34750c7e471c55,0.0535,0.0535,0,28,28,95,1,eightseven,,,,,,,,,,,,,,,,,,,,,,,,,,,,,,,,,,,,,,,,,,,,,,,,,,,,,,,,,,,,,,,,,,,,,,,,,,,,,,,,,,,,,,,,,,,,,,,,,,,,,,,,,,,,,,,,,,,,,,,,,,,,,,,,,,,,,,,
,,6159e8d7327e9932b6cc3333,2023-12-07_07h35.14.084,kallum_motion_pilot,2023.2.3,MacIntel,60.0024001,6159e8d7327e9932b6cc3333,6560176e4d91f764e2a42c74,657158154b34750c7e471c55,0.0536,0.0537,0,29,29,44,1,threeone,,,,,,,,,,,,,,,,,,,,,,,,,,,,,,,,,,,,,,,,,,,,,,,,,,,,,,,,,,,,,,,,,,,,,,,,,,,,,,,,,,,,,,,,,,,,,,,,,,,,,,,,,,,,,,,,,,,,,,,,,,,,,,,,,,,,,,,
,,6159e8d7327e9932b6cc3333,2023-12-07_07h35.14.084,kallum_motion_pilot,2023.2.3,MacIntel,60.0024001,6159e8d7327e9932b6cc3333,6560176e4d91f764e2a42c74,657158154b34750c7e471c55,0.0539,0.0539,0,30,30,147,1,sixeight,,,,,,,,,,,,,,,,,,,,,,,,,,,,,,,,,,,,,,,,,,,,,,,,,,,,,,,,,,,,,,,,,,,,,,,,,,,,,,,,,,,,,,,,,,,,,,,,,,,,,,,,,,,,,,,,,,,,,,,,,,,,,,,,,,,,,,,
,,6159e8d7327e9932b6cc3333,2023-12-07_07h35.14.084,kallum_motion_pilot,2023.2.3,MacIntel,60.0024001,6159e8d7327e9932b6cc3333,6560176e4d91f764e2a42c74,657158154b34750c7e471c55,0.0541,0.0541,0,31,31,71,1,fourthree,,,,,,,,,,,,,,,,,,,,,,,,,,,,,,,,,,,,,,,,,,,,,,,,,,,,,,,,,,,,,,,,,,,,,,,,,,,,,,,,,,,,,,,,,,,,,,,,,,,,,,,,,,,,,,,,,,,,,,,,,,,,,,,,,,,,,,,
,,6159e8d7327e9932b6cc3333,2023-12-07_07h35.14.084,kallum_motion_pilot,2023.2.3,MacIntel,60.0024001,6159e8d7327e9932b6cc3333,6560176e4d91f764e2a42c74,657158154b34750c7e471c55,0.0545,0.0546,0,32,32,129,1,fiveseven,,,,,,,,,,,,,,,,,,,,,,,,,,,,,,,,,,,,,,,,,,,,,,,,,,,,,,,,,,,,,,,,,,,,,,,,,,,,,,,,,,,,,,,,,,,,,,,,,,,,,,,,,,,,,,,,,,,,,,,,,,,,,,,,,,,,,,,
,,6159e8d7327e9932b6cc3333,2023-12-07_07h35.14.084,kallum_motion_pilot,2023.2.3,MacIntel,60.0024001,6159e8d7327e9932b6cc3333,6560176e4d91f764e2a42c74,657158154b34750c7e471c55,0.0548,0.0548,0,33,33,40,1,onetwo,,,,,,,,,,,,,,,,,,,,,,,,,,,,,,,,,,,,,,,,,,,,,,,,,,,,,,,,,,,,,,,,,,,,,,,,,,,,,,,,,,,,,,,,,,,,,,,,,,,,,,,,,,,,,,,,,,,,,,,,,,,,,,,,,,,,,,,
,,6159e8d7327e9932b6cc3333,2023-12-07_07h35.14.084,kallum_motion_pilot,2023.2.3,MacIntel,60.0024001,6159e8d7327e9932b6cc3333,6560176e4d91f764e2a42c74,657158154b34750c7e471c55,0.0549,0.0551,0,34,34,92,1,sevenfive,,,,,,,,,,,,,,,,,,,,,,,,,,,,,,,,,,,,,,,,,,,,,,,,,,,,,,,,,,,,,,,,,,,,,,,,,,,,,,,,,,,,,,,,,,,,,,,,,,,,,,,,,,,,,,,,,,,,,,,,,,,,,,,,,,,,,,,
,,6159e8d7327e9932b6cc3333,2023-12-07_07h35.14.084,kallum_motion_pilot,2023.2.3,MacIntel,60.0024001,6159e8d7327e9932b6cc3333,6560176e4d91f764e2a42c74,657158154b34750c7e471c55,0.0552,0.0552,0,35,35,12,1,threeone,,,,,,,,,,,,,,,,,,,,,,,,,,,,,,,,,,,,,,,,,,,,,,,,,,,,,,,,,,,,,,,,,,,,,,,,,,,,,,,,,,,,,,,,,,,,,,,,,,,,,,,,,,,,,,,,,,,,,,,,,,,,,,,,,,,,,,,
,,6159e8d7327e9932b6cc3333,2023-12-07_07h35.14.084,kallum_motion_pilot,2023.2.3,MacIntel,60.0024001,6159e8d7327e9932b6cc3333,6560176e4d91f764e2a42c74,657158154b34750c7e471c55,0.0555,0.0557,0,36,36,84,1,sevenfive,,,,,,,,,,,,,,,,,,,,,,,,,,,,,,,,,,,,,,,,,,,,,,,,,,,,,,,,,,,,,,,,,,,,,,,,,,,,,,,,,,,,,,,,,,,,,,,,,,,,,,,,,,,,,,,,,,,,,,,,,,,,,,,,,,,,,,,
,,6159e8d7327e9932b6cc3333,2023-12-07_07h35.14.084,kallum_motion_pilot,2023.2.3,MacIntel,60.0024001,6159e8d7327e9932b6cc3333,6560176e4d91f764e2a42c74,657158154b34750c7e471c55,0.0557,0.056,0,37,37,21,1,threefour,,,,,,,,,,,,,,,,,,,,,,,,,,,,,,,,,,,,,,,,,,,,,,,,,,,,,,,,,,,,,,,,,,,,,,,,,,,,,,,,,,,,,,,,,,,,,,,,,,,,,,,,,,,,,,,,,,,,,,,,,,,,,,,,,,,,,,,
,,6159e8d7327e9932b6cc3333,2023-12-07_07h35.14.084,kallum_motion_pilot,2023.2.3,MacIntel,60.0024001,6159e8d7327e9932b6cc3333,6560176e4d91f764e2a42c74,657158154b34750c7e471c55,0.0561,0.0562,0,38,38,144,1,fivesix,,,,,,,,,,,,,,,,,,,,,,,,,,,,,,,,,,,,,,,,,,,,,,,,,,,,,,,,,,,,,,,,,,,,,,,,,,,,,,,,,,,,,,,,,,,,,,,,,,,,,,,,,,,,,,,,,,,,,,,,,,,,,,,,,,,,,,,
,,6159e8d7327e9932b6cc3333,2023-12-07_07h35.14.084,kallum_motion_pilot,2023.2.3,MacIntel,60.0024001,6159e8d7327e9932b6cc3333,6560176e4d91f764e2a42c74,657158154b34750c7e471c55,0.0563,0.0563,0,39,39,36,1,threeone,,,,,,,,,,,,,,,,,,,,,,,,,,,,,,,,,,,,,,,,,,,,,,,,,,,,,,,,,,,,,,,,,,,,,,,,,,,,,,,,,,,,,,,,,,,,,,,,,,,,,,,,,,,,,,,,,,,,,,,,,,,,,,,,,,,,,,,
,,6159e8d7327e9932b6cc3333,2023-12-07_07h35.14.084,kallum_motion_pilot,2023.2.3,MacIntel,60.0024001,6159e8d7327e9932b6cc3333,6560176e4d91f764e2a42c74,657158154b34750c7e471c55,0.0564,0.0565,0,40,40,2,1,twoone,,,,,,,,,,,,,,,,,,,,,,,,,,,,,,,,,,,,,,,,,,,,,,,,,,,,,,,,,,,,,,,,,,,,,,,,,,,,,,,,,,,,,,,,,,,,,,,,,,,,,,,,,,,,,,,,,,,,,,,,,,,,,,,,,,,,,,,
,,6159e8d7327e9932b6cc3333,2023-12-07_07h35.14.084,kallum_motion_pilot,2023.2.3,MacIntel,60.0024001,6159e8d7327e9932b6cc3333,6560176e4d91f764e2a42c74,657158154b34750c7e471c55,0.0566,0.0567,0,41,41,38,1,fourtwo,,,,,,,,,,,,,,,,,,,,,,,,,,,,,,,,,,,,,,,,,,,,,,,,,,,,,,,,,,,,,,,,,,,,,,,,,,,,,,,,,,,,,,,,,,,,,,,,,,,,,,,,,,,,,,,,,,,,,,,,,,,,,,,,,,,,,,,
,,6159e8d7327e9932b6cc3333,2023-12-07_07h35.14.084,kallum_motion_pilot,2023.2.3,MacIntel,60.0024001,6159e8d7327e9932b6cc3333,6560176e4d91f764e2a42c74,657158154b34750c7e471c55,0.057,0.0572,0,42,42,46,1,fourtwo,,,,,,,,,,,,,,,,,,,,,,,,,,,,,,,,,,,,,,,,,,,,,,,,,,,,,,,,,,,,,,,,,,,,,,,,,,,,,,,,,,,,,,,,,,,,,,,,,,,,,,,,,,,,,,,,,,,,,,,,,,,,,,,,,,,,,,,
,,6159e8d7327e9932b6cc3333,2023-12-07_07h35.14.084,kallum_motion_pilot,2023.2.3,MacIntel,60.0024001,6159e8d7327e9932b6cc3333,6560176e4d91f764e2a42c74,657158154b34750c7e471c55,0.0573,0.0573,0,43,43,97,1,fiveseven,,,,,,,,,,,,,,,,,,,,,,,,,,,,,,,,,,,,,,,,,,,,,,,,,,,,,,,,,,,,,,,,,,,,,,,,,,,,,,,,,,,,,,,,,,,,,,,,,,,,,,,,,,,,,,,,,,,,,,,,,,,,,,,,,,,,,,,
,,6159e8d7327e9932b6cc3333,2023-12-07_07h35.14.084,kallum_motion_pilot,2023.2.3,MacIntel,60.0024001,6159e8d7327e9932b6cc3333,6560176e4d91f764e2a42c74,657158154b34750c7e471c55,0.0575,0.0576,0,44,44,109,1,seveneight,,,,,,,,,,,,,,,,,,,,,,,,,,,,,,,,,,,,,,,,,,,,,,,,,,,,,,,,,,,,,,,,,,,,,,,,,,,,,,,,,,,,,,,,,,,,,,,,,,,,,,,,,,,,,,,,,,,,,,,,,,,,,,,,,,,,,,,
,,6159e8d7327e9932b6cc3333,2023-12-07_07h35.14.084,kallum_motion_pilot,2023.2.3,MacIntel,60.0024001,6159e8d7327e9932b6cc3333,6560176e4d91f764e2a42c74,657158154b34750c7e471c55,0.0577,0.0577,0,45,45,99,1,sixeight,,,,,,,,,,,,,,,,,,,,,,,,,,,,,,,,,,,,,,,,,,,,,,,,,,,,,,,,,,,,,,,,,,,,,,,,,,,,,,,,,,,,,,,,,,,,,,,,,,,,,,,,,,,,,,,,,,,,,,,,,,,,,,,,,,,,,,,
,,6159e8d7327e9932b6cc3333,2023-12-07_07h35.14.084,kallum_motion_pilot,2023.2.3,MacIntel,60.0024001,6159e8d7327e9932b6cc3333,6560176e4d91f764e2a42c74,657158154b34750c7e471c55,0.0579,0.0579,0,46,46,131,1,sixeight,,,,,,,,,,,,,,,,,,,,,,,,,,,,,,,,,,,,,,,,,,,,,,,,,,,,,,,,,,,,,,,,,,,,,,,,,,,,,,,,,,,,,,,,,,,,,,,,,,,,,,,,,,,,,,,,,,,,,,,,,,,,,,,,,,,,,,,
,,6159e8d7327e9932b6cc3333,2023-12-07_07h35.14.084,kallum_motion_pilot,2023.2.3,MacIntel,60.0024001,6159e8d7327e9932b6cc3333,6560176e4d91f764e2a42c74,657158154b34750c7e471c55,0.0581,0.0583,0,47,47,76,1,threeone,,,,,,,,,,,,,,,,,,,,,,,,,,,,,,,,,,,,,,,,,,,,,,,,,,,,,,,,,,,,,,,,,,,,,,,,,,,,,,,,,,,,,,,,,,,,,,,,,,,,,,,,,,,,,,,,,,,,,,,,,,,,,,,,,,,,,,,
,,6159e8d7327e9932b6cc3333,2023-12-07_07h35.14.084,kallum_motion_pilot,2023.2.3,MacIntel,60.0024001,6159e8d7327e9932b6cc3333,6560176e4d91f764e2a42c74,657158154b34750c7e471c55,0.0584,0.0584,0,48,48,74,1,twoone,,,,,,,,,,,,,,,,,,,,,,,,,,,,,,,,,,,,,,,,,,,,,,,,,,,,,,,,,,,,,,,,,,,,,,,,,,,,,,,,,,,,,,,,,,,,,,,,,,,,,,,,,,,,,,,,,,,,,,,,,,,,,,,,,,,,,,,
,,6159e8d7327e9932b6cc3333,2023-12-07_07h35.14.084,kallum_motion_pilot,2023.2.3,MacIntel,60.0024001,6159e8d7327e9932b6cc3333,6560176e4d91f764e2a42c74,657158154b34750c7e471c55,0.0585,0.0587,0,49,49,100,1,sevenfive,,,,,,,,,,,,,,,,,,,,,,,,,,,,,,,,,,,,,,,,,,,,,,,,,,,,,,,,,,,,,,,,,,,,,,,,,,,,,,,,,,,,,,,,,,,,,,,,,,,,,,,,,,,,,,,,,,,,,,,,,,,,,,,,,,,,,,,
,,6159e8d7327e9932b6cc3333,2023-12-07_07h35.14.084,kallum_motion_pilot,2023.2.3,MacIntel,60.0024001,6159e8d7327e9932b6cc3333,6560176e4d91f764e2a42c74,657158154b34750c7e471c55,0.0588,0.0588,0,50,50,114,1,sixfive,,,,,,,,,,,,,,,,,,,,,,,,,,,,,,,,,,,,,,,,,,,,,,,,,,,,,,,,,,,,,,,,,,,,,,,,,,,,,,,,,,,,,,,,,,,,,,,,,,,,,,,,,,,,,,,,,,,,,,,,,,,,,,,,,,,,,,,
,,6159e8d7327e9932b6cc3333,2023-12-07_07h35.14.084,kallum_motion_pilot,2023.2.3,MacIntel,60.0024001,6159e8d7327e9932b6cc3333,6560176e4d91f764e2a42c74,657158154b34750c7e471c55,0.0591,0.0591,0,51,51,83,1,sixeight,,,,,,,,,,,,,,,,,,,,,,,,,,,,,,,,,,,,,,,,,,,,,,,,,,,,,,,,,,,,,,,,,,,,,,,,,,,,,,,,,,,,,,,,,,,,,,,,,,,,,,,,,,,,,,,,,,,,,,,,,,,,,,,,,,,,,,,
,,6159e8d7327e9932b6cc3333,2023-12-07_07h35.14.084,kallum_motion_pilot,2023.2.3,MacIntel,60.0024001,6159e8d7327e9932b6cc3333,6560176e4d91f764e2a42c74,657158154b34750c7e471c55,0.0593,0.0593,0,52,52,121,1,fiveseven,,,,,,,,,,,,,,,,,,,,,,,,,,,,,,,,,,,,,,,,,,,,,,,,,,,,,,,,,,,,,,,,,,,,,,,,,,,,,,,,,,,,,,,,,,,,,,,,,,,,,,,,,,,,,,,,,,,,,,,,,,,,,,,,,,,,,,,
,,6159e8d7327e9932b6cc3333,2023-12-07_07h35.14.084,kallum_motion_pilot,2023.2.3,MacIntel,60.0024001,6159e8d7327e9932b6cc3333,6560176e4d91f764e2a42c74,657158154b34750c7e471c55,0.0598,0.0599,0,53,53,3,1,twofour,,,,,,,,,,,,,,,,,,,,,,,,,,,,,,,,,,,,,,,,,,,,,,,,,,,,,,,,,,,,,,,,,,,,,,,,,,,,,,,,,,,,,,,,,,,,,,,,,,,,,,,,,,,,,,,,,,,,,,,,,,,,,,,,,,,,,,,
,,6159e8d7327e9932b6cc3333,2023-12-07_07h35.14.084,kallum_motion_pilot,2023.2.3,MacIntel,60.0024001,6159e8d7327e9932b6cc3333,6560176e4d91f764e2a42c74,657158154b34750c7e471c55,0.06,0.0601,0,54,54,106,1,sixfive,,,,,,,,,,,,,,,,,,,,,,,,,,,,,,,,,,,,,,,,,,,,,,,,,,,,,,,,,,,,,,,,,,,,,,,,,,,,,,,,,,,,,,,,,,,,,,,,,,,,,,,,,,,,,,,,,,,,,,,,,,,,,,,,,,,,,,,
,,6159e8d7327e9932b6cc3333,2023-12-07_07h35.14.084,kallum_motion_pilot,2023.2.3,MacIntel,60.0024001,6159e8d7327e9932b6cc3333,6560176e4d91f764e2a42c74,657158154b34750c7e471c55,0.0603,0.0604,0,55,55,6,1,fourtwo,,,,,,,,,,,,,,,,,,,,,,,,,,,,,,,,,,,,,,,,,,,,,,,,,,,,,,,,,,,,,,,,,,,,,,,,,,,,,,,,,,,,,,,,,,,,,,,,,,,,,,,,,,,,,,,,,,,,,,,,,,,,,,,,,,,,,,,
,,6159e8d7327e9932b6cc3333,2023-12-07_07h35.14.084,kallum_motion_pilot,2023.2.3,MacIntel,60.0024001,6159e8d7327e9932b6cc3333,6560176e4d91f764e2a42c74,657158154b34750c7e471c55,0.0605,0.0605,0,56,56,124,1,sevenfive,,,,,,,,,,,,,,,,,,,,,,,,,,,,,,,,,,,,,,,,,,,,,,,,,,,,,,,,,,,,,,,,,,,,,,,,,,,,,,,,,,,,,,,,,,,,,,,,,,,,,,,,,,,,,,,,,,,,,,,,,,,,,,,,,,,,,,,
,,6159e8d7327e9932b6cc3333,2023-12-07_07h35.14.084,kallum_motion_pilot,2023.2.3,MacIntel,60.0024001,6159e8d7327e9932b6cc3333,6560176e4d91f764e2a42c74,657158154b34750c7e471c55,0.0607,0.0608,0,57,57,8,1,onetwo,,,,,,,,,,,,,,,,,,,,,,,,,,,,,,,,,,,,,,,,,,,,,,,,,,,,,,,,,,,,,,,,,,,,,,,,,,,,,,,,,,,,,,,,,,,,,,,,,,,,,,,,,,,,,,,,,,,,,,,,,,,,,,,,,,,,,,,
,,6159e8d7327e9932b6cc3333,2023-12-07_07h35.14.084,kallum_motion_pilot,2023.2.3,MacIntel,60.0024001,6159e8d7327e9932b6cc3333,6560176e4d91f764e2a42c74,657158154b34750c7e471c55,0.0609,0.0609,0,58,58,122,1,sixfive,,,,,,,,,,,,,,,,,,,,,,,,,,,,,,,,,,,,,,,,,,,,,,,,,,,,,,,,,,,,,,,,,,,,,,,,,,,,,,,,,,,,,,,,,,,,,,,,,,,,,,,,,,,,,,,,,,,,,,,,,,,,,,,,,,,,,,,
,,6159e8d7327e9932b6cc3333,2023-12-07_07h35.14.084,kallum_motion_pilot,2023.2.3,MacIntel,60.0024001,6159e8d7327e9932b6cc3333,6560176e4d91f764e2a42c74,657158154b34750c7e471c55,0.0611,0.0612,0,59,59,82,1,sixfive,,,,,,,,,,,,,,,,,,,,,,,,,,,,,,,,,,,,,,,,,,,,,,,,,,,,,,,,,,,,,,,,,,,,,,,,,,,,,,,,,,,,,,,,,,,,,,,,,,,,,,,,,,,,,,,,,,,,,,,,,,,,,,,,,,,,,,,
,,6159e8d7327e9932b6cc3333,2023-12-07_07h35.14.084,kallum_motion_pilot,2023.2.3,MacIntel,60.0024001,6159e8d7327e9932b6cc3333,6560176e4d91f764e2a42c74,657158154b34750c7e471c55,0.0613,0.0615,0,60,60,47,1,fourthree,,,,,,,,,,,,,,,,,,,,,,,,,,,,,,,,,,,,,,,,,,,,,,,,,,,,,,,,,,,,,,,,,,,,,,,,,,,,,,,,,,,,,,,,,,,,,,,,,,,,,,,,,,,,,,,,,,,,,,,,,,,,,,,,,,,,,,,
,,6159e8d7327e9932b6cc3333,2023-12-07_07h35.14.084,kallum_motion_pilot,2023.2.3,MacIntel,60.0024001,6159e8d7327e9932b6cc3333,6560176e4d91f764e2a42c74,657158154b34750c7e471c55,0.0616,0.0617,0,61,61,123,1,sixeight,,,,,,,,,,,,,,,,,,,,,,,,,,,,,,,,,,,,,,,,,,,,,,,,,,,,,,,,,,,,,,,,,,,,,,,,,,,,,,,,,,,,,,,,,,,,,,,,,,,,,,,,,,,,,,,,,,,,,,,,,,,,,,,,,,,,,,,
,,6159e8d7327e9932b6cc3333,2023-12-07_07h35.14.084,kallum_motion_pilot,2023.2.3,MacIntel,60.0024001,6159e8d7327e9932b6cc3333,6560176e4d91f764e2a42c74,657158154b34750c7e471c55,0.0619,0.0619,0,62,62,139,1,sixeight,,,,,,,,,,,,,,,,,,,,,,,,,,,,,,,,,,,,,,,,,,,,,,,,,,,,,,,,,,,,,,,,,,,,,,,,,,,,,,,,,,,,,,,,,,,,,,,,,,,,,,,,,,,,,,,,,,,,,,,,,,,,,,,,,,,,,,,
,,6159e8d7327e9932b6cc3333,2023-12-07_07h35.14.084,kallum_motion_pilot,2023.2.3,MacIntel,60.0024001,6159e8d7327e9932b6cc3333,6560176e4d91f764e2a42c74,657158154b34750c7e471c55,0.0625,0.0626,0,63,63,85,1,seveneight,,,,,,,,,,,,,,,,,,,,,,,,,,,,,,,,,,,,,,,,,,,,,,,,,,,,,,,,,,,,,,,,,,,,,,,,,,,,,,,,,,,,,,,,,,,,,,,,,,,,,,,,,,,,,,,,,,,,,,,,,,,,,,,,,,,,,,,
,,6159e8d7327e9932b6cc3333,2023-12-07_07h35.14.084,kallum_motion_pilot,2023.2.3,MacIntel,60.0024001,6159e8d7327e9932b6cc3333,6560176e4d91f764e2a42c74,657158154b34750c7e471c55,0.0628,0.0629,0,64,64,11,1,twofour,,,,,,,,,,,,,,,,,,,,,,,,,,,,,,,,,,,,,,,,,,,,,,,,,,,,,,,,,,,,,,,,,,,,,,,,,,,,,,,,,,,,,,,,,,,,,,,,,,,,,,,,,,,,,,,,,,,,,,,,,,,,,,,,,,,,,,,
,,6159e8d7327e9932b6cc3333,2023-12-07_07h35.14.084,kallum_motion_pilot,2023.2.3,MacIntel,60.0024001,6159e8d7327e9932b6cc3333,6560176e4d91f764e2a42c74,657158154b34750c7e471c55,0.063,0.063,0,65,65,102,1,eightsix,,,,,,,,,,,,,,,,,,,,,,,,,,,,,,,,,,,,,,,,,,,,,,,,,,,,,,,,,,,,,,,,,,,,,,,,,,,,,,,,,,,,,,,,,,,,,,,,,,,,,,,,,,,,,,,,,,,,,,,,,,,,,,,,,,,,,,,
,,6159e8d7327e9932b6cc3333,2023-12-07_07h35.14.084,kallum_motion_pilot,2023.2.3,MacIntel,60.0024001,6159e8d7327e9932b6cc3333,6560176e4d91f764e2a42c74,657158154b34750c7e471c55,0.0633,0.0634,0,66,66,50,1,twoone,,,,,,,,,,,,,,,,,,,,,,,,,,,,,,,,,,,,,,,,,,,,,,,,,,,,,,,,,,,,,,,,,,,,,,,,,,,,,,,,,,,,,,,,,,,,,,,,,,,,,,,,,,,,,,,,,,,,,,,,,,,,,,,,,,,,,,,
,,6159e8d7327e9932b6cc3333,2023-12-07_07h35.14.084,kallum_motion_pilot,2023.2.3,MacIntel,60.0024001,6159e8d7327e9932b6cc3333,6560176e4d91f764e2a42c74,657158154b34750c7e471c55,0.0634,0.0635,0,67,67,61,1,threefour,,,,,,,,,,,,,,,,,,,,,,,,,,,,,,,,,,,,,,,,,,,,,,,,,,,,,,,,,,,,,,,,,,,,,,,,,,,,,,,,,,,,,,,,,,,,,,,,,,,,,,,,,,,,,,,,,,,,,,,,,,,,,,,,,,,,,,,
,,6159e8d7327e9932b6cc3333,2023-12-07_07h35.14.084,kallum_motion_pilot,2023.2.3,MacIntel,60.0024001,6159e8d7327e9932b6cc3333,6560176e4d91f764e2a42c74,657158154b34750c7e471c55,0.0637,0.0637,0,68,68,19,1,twofour,,,,,,,,,,,,,,,,,,,,,,,,,,,,,,,,,,,,,,,,,,,,,,,,,,,,,,,,,,,,,,,,,,,,,,,,,,,,,,,,,,,,,,,,,,,,,,,,,,,,,,,,,,,,,,,,,,,,,,,,,,,,,,,,,,,,,,,
,,6159e8d7327e9932b6cc3333,2023-12-07_07h35.14.084,kallum_motion_pilot,2023.2.3,MacIntel,60.0024001,6159e8d7327e9932b6cc3333,6560176e4d91f764e2a42c74,657158154b34750c7e471c55,0.0639,0.064,0,69,69,23,1,fourthree,,,,,,,,,,,,,,,,,,,,,,,,,,,,,,,,,,,,,,,,,,,,,,,,,,,,,,,,,,,,,,,,,,,,,,,,,,,,,,,,,,,,,,,,,,,,,,,,,,,,,,,,,,,,,,,,,,,,,,,,,,,,,,,,,,,,,,,
,,6159e8d7327e9932b6cc3333,2023-12-07_07h35.14.084,kallum_motion_pilot,2023.2.3,MacIntel,60.0024001,6159e8d7327e9932b6cc3333,6560176e4d91f764e2a42c74,657158154b34750c7e471c55,0.0643,0.0644,0,70,70,137,1,fiveseven,,,,,,,,,,,,,,,,,,,,,,,,,,,,,,,,,,,,,,,,,,,,,,,,,,,,,,,,,,,,,,,,,,,,,,,,,,,,,,,,,,,,,,,,,,,,,,,,,,,,,,,,,,,,,,,,,,,,,,,,,,,,,,,,,,,,,,,
,,6159e8d7327e9932b6cc3333,2023-12-07_07h35.14.084,kallum_motion_pilot,2023.2.3,MacIntel,60.0024001,6159e8d7327e9932b6cc3333,6560176e4d91f764e2a42c74,657158154b34750c7e471c55,0.0646,0.0646,0,71,71,0,1,onetwo,,,,,,,,,,,,,,,,,,,,,,,,,,,,,,,,,,,,,,,,,,,,,,,,,,,,,,,,,,,,,,,,,,,,,,,,,,,,,,,,,,,,,,,,,,,,,,,,,,,,,,,,,,,,,,,,,,,,,,,,,,,,,,,,,,,,,,,
,,6159e8d7327e9932b6cc3333,2023-12-07_07h35.14.084,kallum_motion_pilot,2023.2.3,MacIntel,60.0024001,6159e8d7327e9932b6cc3333,6560176e4d91f764e2a42c74,657158154b34750c7e471c55,0.0658,0.066,0,72,72,52,1,threeone,,,,,,,,,,,,,,,,,,,,,,,,,,,,,,,,,,,,,,,,,,,,,,,,,,,,,,,,,,,,,,,,,,,,,,,,,,,,,,,,,,,,,,,,,,,,,,,,,,,,,,,,,,,,,,,,,,,,,,,,,,,,,,,,,,,,,,,
,,6159e8d7327e9932b6cc3333,2023-12-07_07h35.14.084,kallum_motion_pilot,2023.2.3,MacIntel,60.0024001,6159e8d7327e9932b6cc3333,6560176e4d91f764e2a42c74,657158154b34750c7e471c55,0.0662,0.0662,0,73,73,96,1,fivesix,,,,,,,,,,,,,,,,,,,,,,,,,,,,,,,,,,,,,,,,,,,,,,,,,,,,,,,,,,,,,,,,,,,,,,,,,,,,,,,,,,,,,,,,,,,,,,,,,,,,,,,,,,,,,,,,,,,,,,,,,,,,,,,,,,,,,,,
,,6159e8d7327e9932b6cc3333,2023-12-07_07h35.14.084,kallum_motion_pilot,2023.2.3,MacIntel,60.0024001,6159e8d7327e9932b6cc3333,6560176e4d91f764e2a42c74,657158154b34750c7e471c55,0.0665,0.0666,0,74,74,138,1,sixfive,,,,,,,,,,,,,,,,,,,,,,,,,,,,,,,,,,,,,,,,,,,,,,,,,,,,,,,,,,,,,,,,,,,,,,,,,,,,,,,,,,,,,,,,,,,,,,,,,,,,,,,,,,,,,,,,,,,,,,,,,,,,,,,,,,,,,,,
,,6159e8d7327e9932b6cc3333,2023-12-07_07h35.14.084,kallum_motion_pilot,2023.2.3,MacIntel,60.0024001,6159e8d7327e9932b6cc3333,6560176e4d91f764e2a42c74,657158154b34750c7e471c55,0.0668,0.067,0,75,75,133,1,seveneight,,,,,,,,,,,,,,,,,,,,,,,,,,,,,,,,,,,,,,,,,,,,,,,,,,,,,,,,,,,,,,,,,,,,,,,,,,,,,,,,,,,,,,,,,,,,,,,,,,,,,,,,,,,,,,,,,,,,,,,,,,,,,,,,,,,,,,,
,,6159e8d7327e9932b6cc3333,2023-12-07_07h35.14.084,kallum_motion_pilot,2023.2.3,MacIntel,60.0024001,6159e8d7327e9932b6cc3333,6560176e4d91f764e2a42c74,657158154b34750c7e471c55,0.0671,0.0673,0,76,76,157,1,seveneight,,,,,,,,,,,,,,,,,,,,,,,,,,,,,,,,,,,,,,,,,,,,,,,,,,,,,,,,,,,,,,,,,,,,,,,,,,,,,,,,,,,,,,,,,,,,,,,,,,,,,,,,,,,,,,,,,,,,,,,,,,,,,,,,,,,,,,,
,,6159e8d7327e9932b6cc3333,2023-12-07_07h35.14.084,kallum_motion_pilot,2023.2.3,MacIntel,60.0024001,6159e8d7327e9932b6cc3333,6560176e4d91f764e2a42c74,657158154b34750c7e471c55,0.0674,0.0675,0,77,77,59,1,twofour,,,,,,,,,,,,,,,,,,,,,,,,,,,,,,,,,,,,,,,,,,,,,,,,,,,,,,,,,,,,,,,,,,,,,,,,,,,,,,,,,,,,,,,,,,,,,,,,,,,,,,,,,,,,,,,,,,,,,,,,,,,,,,,,,,,,,,,
,,6159e8d7327e9932b6cc3333,2023-12-07_07h35.14.084,kallum_motion_pilot,2023.2.3,MacIntel,60.0024001,6159e8d7327e9932b6cc3333,6560176e4d91f764e2a42c74,657158154b34750c7e471c55,0.0677,0.0679,0,78,78,116,1,sevenfive,,,,,,,,,,,,,,,,,,,,,,,,,,,,,,,,,,,,,,,,,,,,,,,,,,,,,,,,,,,,,,,,,,,,,,,,,,,,,,,,,,,,,,,,,,,,,,,,,,,,,,,,,,,,,,,,,,,,,,,,,,,,,,,,,,,,,,,
,,6159e8d7327e9932b6cc3333,2023-12-07_07h35.14.084,kallum_motion_pilot,2023.2.3,MacIntel,60.0024001,6159e8d7327e9932b6cc3333,6560176e4d91f764e2a42c74,657158154b34750c7e471c55,0.068,0.068,0,79,79,49,1,onethree,,,,,,,,,,,,,,,,,,,,,,,,,,,,,,,,,,,,,,,,,,,,,,,,,,,,,,,,,,,,,,,,,,,,,,,,,,,,,,,,,,,,,,,,,,,,,,,,,,,,,,,,,,,,,,,,,,,,,,,,,,,,,,,,,,,,,,,
,,6159e8d7327e9932b6cc3333,2023-12-07_07h35.14.084,kallum_motion_pilot,2023.2.3,MacIntel,60.0024001,6159e8d7327e9932b6cc3333,6560176e4d91f764e2a42c74,657158154b34750c7e471c55,0.0682,0.0683,0,80,80,103,1,eightseven,,,,,,,,,,,,,,,,,,,,,,,,,,,,,,,,,,,,,,,,,,,,,,,,,,,,,,,,,,,,,,,,,,,,,,,,,,,,,,,,,,,,,,,,,,,,,,,,,,,,,,,,,,,,,,,,,,,,,,,,,,,,,,,,,,,,,,,
,,6159e8d7327e9932b6cc3333,2023-12-07_07h35.14.084,kallum_motion_pilot,2023.2.3,MacIntel,60.0024001,6159e8d7327e9932b6cc3333,6560176e4d91f764e2a42c74,657158154b34750c7e471c55,0.0686,0.0687,0,81,81,63,1,fourthree,,,,,,,,,,,,,,,,,,,,,,,,,,,,,,,,,,,,,,,,,,,,,,,,,,,,,,,,,,,,,,,,,,,,,,,,,,,,,,,,,,,,,,,,,,,,,,,,,,,,,,,,,,,,,,,,,,,,,,,,,,,,,,,,,,,,,,,
,,6159e8d7327e9932b6cc3333,2023-12-07_07h35.14.084,kallum_motion_pilot,2023.2.3,MacIntel,60.0024001,6159e8d7327e9932b6cc3333,6560176e4d91f764e2a42c74,657158154b34750c7e471c55,0.069,0.0693,0,82,82,24,1,onetwo,,,,,,,,,,,,,,,,,,,,,,,,,,,,,,,,,,,,,,,,,,,,,,,,,,,,,,,,,,,,,,,,,,,,,,,,,,,,,,,,,,,,,,,,,,,,,,,,,,,,,,,,,,,,,,,,,,,,,,,,,,,,,,,,,,,,,,,
,,6159e8d7327e9932b6cc3333,2023-12-07_07h35.14.084,kallum_motion_pilot,2023.2.3,MacIntel,60.0024001,6159e8d7327e9932b6cc3333,6560176e4d91f764e2a42c74,657158154b34750c7e471c55,0.0696,0.0696,0,83,83,143,1,eightseven,,,,,,,,,,,,,,,,,,,,,,,,,,,,,,,,,,,,,,,,,,,,,,,,,,,,,,,,,,,,,,,,,,,,,,,,,,,,,,,,,,,,,,,,,,,,,,,,,,,,,,,,,,,,,,,,,,,,,,,,,,,,,,,,,,,,,,,
,,6159e8d7327e9932b6cc3333,2023-12-07_07h35.14.084,kallum_motion_pilot,2023.2.3,MacIntel,60.0024001,6159e8d7327e9932b6cc3333,6560176e4d91f764e2a42c74,657158154b34750c7e471c55,0.0698,0.0699,0,84,84,80,1,fivesix,,,,,,,,,,,,,,,,,,,,,,,,,,,,,,,,,,,,,,,,,,,,,,,,,,,,,,,,,,,,,,,,,,,,,,,,,,,,,,,,,,,,,,,,,,,,,,,,,,,,,,,,,,,,,,,,,,,,,,,,,,,,,,,,,,,,,,,
,,6159e8d7327e9932b6cc3333,2023-12-07_07h35.14.084,kallum_motion_pilot,2023.2.3,MacIntel,60.0024001,6159e8d7327e9932b6cc3333,6560176e4d91f764e2a42c74,657158154b34750c7e471c55,0.0701,0.0705,0,85,85,29,1,threefour,,,,,,,,,,,,,,,,,,,,,,,,,,,,,,,,,,,,,,,,,,,,,,,,,,,,,,,,,,,,,,,,,,,,,,,,,,,,,,,,,,,,,,,,,,,,,,,,,,,,,,,,,,,,,,,,,,,,,,,,,,,,,,,,,,,,,,,
,,6159e8d7327e9932b6cc3333,2023-12-07_07h35.14.084,kallum_motion_pilot,2023.2.3,MacIntel,60.0024001,6159e8d7327e9932b6cc3333,6560176e4d91f764e2a42c74,657158154b34750c7e471c55,0.0706,0.0707,0,86,86,75,1,twofour,,,,,,,,,,,,,,,,,,,,,,,,,,,,,,,,,,,,,,,,,,,,,,,,,,,,,,,,,,,,,,,,,,,,,,,,,,,,,,,,,,,,,,,,,,,,,,,,,,,,,,,,,,,,,,,,,,,,,,,,,,,,,,,,,,,,,,,
,,6159e8d7327e9932b6cc3333,2023-12-07_07h35.14.084,kallum_motion_pilot,2023.2.3,MacIntel,60.0024001,6159e8d7327e9932b6cc3333,6560176e4d91f764e2a42c74,657158154b34750c7e471c55,0.0709,0.071,0,87,87,94,1,eightsix,,,,,,,,,,,,,,,,,,,,,,,,,,,,,,,,,,,,,,,,,,,,,,,,,,,,,,,,,,,,,,,,,,,,,,,,,,,,,,,,,,,,,,,,,,,,,,,,,,,,,,,,,,,,,,,,,,,,,,,,,,,,,,,,,,,,,,,
,,6159e8d7327e9932b6cc3333,2023-12-07_07h35.14.084,kallum_motion_pilot,2023.2.3,MacIntel,60.0024001,6159e8d7327e9932b6cc3333,6560176e4d91f764e2a42c74,657158154b34750c7e471c55,0.0711,0.0713,0,88,88,136,1,fivesix,,,,,,,,,,,,,,,,,,,,,,,,,,,,,,,,,,,,,,,,,,,,,,,,,,,,,,,,,,,,,,,,,,,,,,,,,,,,,,,,,,,,,,,,,,,,,,,,,,,,,,,,,,,,,,,,,,,,,,,,,,,,,,,,,,,,,,,
,,6159e8d7327e9932b6cc3333,2023-12-07_07h35.14.084,kallum_motion_pilot,2023.2.3,MacIntel,60.0024001,6159e8d7327e9932b6cc3333,6560176e4d91f764e2a42c74,657158154b34750c7e471c55,0.0713,0.0714,0,89,89,39,1,fourthree,,,,,,,,,,,,,,,,,,,,,,,,,,,,,,,,,,,,,,,,,,,,,,,,,,,,,,,,,,,,,,,,,,,,,,,,,,,,,,,,,,,,,,,,,,,,,,,,,,,,,,,,,,,,,,,,,,,,,,,,,,,,,,,,,,,,,,,
,,6159e8d7327e9932b6cc3333,2023-12-07_07h35.14.084,kallum_motion_pilot,2023.2.3,MacIntel,60.0024001,6159e8d7327e9932b6cc3333,6560176e4d91f764e2a42c74,657158154b34750c7e471c55,0.0716,0.0717,0,90,90,53,1,threefour,,,,,,,,,,,,,,,,,,,,,,,,,,,,,,,,,,,,,,,,,,,,,,,,,,,,,,,,,,,,,,,,,,,,,,,,,,,,,,,,,,,,,,,,,,,,,,,,,,,,,,,,,,,,,,,,,,,,,,,,,,,,,,,,,,,,,,,
,,6159e8d7327e9932b6cc3333,2023-12-07_07h35.14.084,kallum_motion_pilot,2023.2.3,MacIntel,60.0024001,6159e8d7327e9932b6cc3333,6560176e4d91f764e2a42c74,657158154b34750c7e471c55,0.0718,0.0719,0,91,91,66,1,twoone,,,,,,,,,,,,,,,,,,,,,,,,,,,,,,,,,,,,,,,,,,,,,,,,,,,,,,,,,,,,,,,,,,,,,,,,,,,,,,,,,,,,,,,,,,,,,,,,,,,,,,,,,,,,,,,,,,,,,,,,,,,,,,,,,,,,,,,
,,6159e8d7327e9932b6cc3333,2023-12-07_07h35.14.084,kallum_motion_pilot,2023.2.3,MacIntel,60.0024001,6159e8d7327e9932b6cc3333,6560176e4d91f764e2a42c74,657158154b34750c7e471c55,0.0721,0.0722,0,92,92,33,1,onethree,,,,,,,,,,,,,,,,,,,,,,,,,,,,,,,,,,,,,,,,,,,,,,,,,,,,,,,,,,,,,,,,,,,,,,,,,,,,,,,,,,,,,,,,,,,,,,,,,,,,,,,,,,,,,,,,,,,,,,,,,,,,,,,,,,,,,,,
,,6159e8d7327e9932b6cc3333,2023-12-07_07h35.14.084,kallum_motion_pilot,2023.2.3,MacIntel,60.0024001,6159e8d7327e9932b6cc3333,6560176e4d91f764e2a42c74,657158154b34750c7e471c55,0.0723,0.0724,0,93,93,1,1,onethree,,,,,,,,,,,,,,,,,,,,,,,,,,,,,,,,,,,,,,,,,,,,,,,,,,,,,,,,,,,,,,,,,,,,,,,,,,,,,,,,,,,,,,,,,,,,,,,,,,,,,,,,,,,,,,,,,,,,,,,,,,,,,,,,,,,,,,,
,,6159e8d7327e9932b6cc3333,2023-12-07_07h35.14.084,kallum_motion_pilot,2023.2.3,MacIntel,60.0024001,6159e8d7327e9932b6cc3333,6560176e4d91f764e2a42c74,657158154b34750c7e471c55,0.0727,0.0728,0,94,94,32,1,onetwo,,,,,,,,,,,,,,,,,,,,,,,,,,,,,,,,,,,,,,,,,,,,,,,,,,,,,,,,,,,,,,,,,,,,,,,,,,,,,,,,,,,,,,,,,,,,,,,,,,,,,,,,,,,,,,,,,,,,,,,,,,,,,,,,,,,,,,,
,,6159e8d7327e9932b6cc3333,2023-12-07_07h35.14.084,kallum_motion_pilot,2023.2.3,MacIntel,60.0024001,6159e8d7327e9932b6cc3333,6560176e4d91f764e2a42c74,657158154b34750c7e471c55,0.0732,0.0733,0,95,95,54,1,fourtwo,,,,,,,,,,,,,,,,,,,,,,,,,,,,,,,,,,,,,,,,,,,,,,,,,,,,,,,,,,,,,,,,,,,,,,,,,,,,,,,,,,,,,,,,,,,,,,,,,,,,,,,,,,,,,,,,,,,,,,,,,,,,,,,,,,,,,,,
,,6159e8d7327e9932b6cc3333,2023-12-07_07h35.14.084,kallum_motion_pilot,2023.2.3,MacIntel,60.0024001,6159e8d7327e9932b6cc3333,6560176e4d91f764e2a42c74,657158154b34750c7e471c55,0.0745,0.0746,0,96,96,28,1,threeone,,,,,,,,,,,,,,,,,,,,,,,,,,,,,,,,,,,,,,,,,,,,,,,,,,,,,,,,,,,,,,,,,,,,,,,,,,,,,,,,,,,,,,,,,,,,,,,,,,,,,,,,,,,,,,,,,,,,,,,,,,,,,,,,,,,,,,,
,,6159e8d7327e9932b6cc3333,2023-12-07_07h35.14.084,kallum_motion_pilot,2023.2.3,MacIntel,60.0024001,6159e8d7327e9932b6cc3333,6560176e4d91f764e2a42c74,657158154b34750c7e471c55,0.0748,0.0749,0,97,97,160,1,fivesix,,,,,,,,,,,,,,,,,,,,,,,,,,,,,,,,,,,,,,,,,,,,,,,,,,,,,,,,,,,,,,,,,,,,,,,,,,,,,,,,,,,,,,,,,,,,,,,,,,,,,,,,,,,,,,,,,,,,,,,,,,,,,,,,,,,,,,,
,,6159e8d7327e9932b6cc3333,2023-12-07_07h35.14.084,kallum_motion_pilot,2023.2.3,MacIntel,60.0024001,6159e8d7327e9932b6cc3333,6560176e4d91f764e2a42c74,657158154b34750c7e471c55,0.075,0.0751,0,98,98,161,1,fiveseven,,,,,,,,,,,,,,,,,,,,,,,,,,,,,,,,,,,,,,,,,,,,,,,,,,,,,,,,,,,,,,,,,,,,,,,,,,,,,,,,,,,,,,,,,,,,,,,,,,,,,,,,,,,,,,,,,,,,,,,,,,,,,,,,,,,,,,,
,,6159e8d7327e9932b6cc3333,2023-12-07_07h35.14.084,kallum_motion_pilot,2023.2.3,MacIntel,60.0024001,6159e8d7327e9932b6cc3333,6560176e4d91f764e2a42c74,657158154b34750c7e471c55,0.0753,0.0754,0,99,99,65,1,onethree,,,,,,,,,,,,,,,,,,,,,,,,,,,,,,,,,,,,,,,,,,,,,,,,,,,,,,,,,,,,,,,,,,,,,,,,,,,,,,,,,,,,,,,,,,,,,,,,,,,,,,,,,,,,,,,,,,,,,,,,,,,,,,,,,,,,,,,
,,6159e8d7327e9932b6cc3333,2023-12-07_07h35.14.084,kallum_motion_pilot,2023.2.3,MacIntel,60.0024001,6159e8d7327e9932b6cc3333,6560176e4d91f764e2a42c74,657158154b34750c7e471c55,0.0757,0.0759,0,100,100,141,1,seveneight,,,,,,,,,,,,,,,,,,,,,,,,,,,,,,,,,,,,,,,,,,,,,,,,,,,,,,,,,,,,,,,,,,,,,,,,,,,,,,,,,,,,,,,,,,,,,,,,,,,,,,,,,,,,,,,,,,,,,,,,,,,,,,,,,,,,,,,
,,6159e8d7327e9932b6cc3333,2023-12-07_07h35.14.084,kallum_motion_pilot,2023.2.3,MacIntel,60.0024001,6159e8d7327e9932b6cc3333,6560176e4d91f764e2a42c74,657158154b34750c7e471c55,0.0761,0.0761,0,101,101,93,1,seveneight,,,,,,,,,,,,,,,,,,,,,,,,,,,,,,,,,,,,,,,,,,,,,,,,,,,,,,,,,,,,,,,,,,,,,,,,,,,,,,,,,,,,,,,,,,,,,,,,,,,,,,,,,,,,,,,,,,,,,,,,,,,,,,,,,,,,,,,
,,6159e8d7327e9932b6cc3333,2023-12-07_07h35.14.084,kallum_motion_pilot,2023.2.3,MacIntel,60.0024001,6159e8d7327e9932b6cc3333,6560176e4d91f764e2a42c74,657158154b34750c7e471c55,0.0763,0.0765,0,102,102,67,1,twofour,,,,,,,,,,,,,,,,,,,,,,,,,,,,,,,,,,,,,,,,,,,,,,,,,,,,,,,,,,,,,,,,,,,,,,,,,,,,,,,,,,,,,,,,,,,,,,,,,,,,,,,,,,,,,,,,,,,,,,,,,,,,,,,,,,,,,,,
,,6159e8d7327e9932b6cc3333,2023-12-07_07h35.14.084,kallum_motion_pilot,2023.2.3,MacIntel,60.0024001,6159e8d7327e9932b6cc3333,6560176e4d91f764e2a42c74,657158154b34750c7e471c55,0.0766,0.0768,0,103,103,130,1,sixfive,,,,,,,,,,,,,,,,,,,,,,,,,,,,,,,,,,,,,,,,,,,,,,,,,,,,,,,,,,,,,,,,,,,,,,,,,,,,,,,,,,,,,,,,,,,,,,,,,,,,,,,,,,,,,,,,,,,,,,,,,,,,,,,,,,,,,,,
,,6159e8d7327e9932b6cc3333,2023-12-07_07h35.14.084,kallum_motion_pilot,2023.2.3,MacIntel,60.0024001,6159e8d7327e9932b6cc3333,6560176e4d91f764e2a42c74,657158154b34750c7e471c55,0.0768,0.0769,0,104,104,108,1,sevenfive,,,,,,,,,,,,,,,,,,,,,,,,,,,,,,,,,,,,,,,,,,,,,,,,,,,,,,,,,,,,,,,,,,,,,,,,,,,,,,,,,,,,,,,,,,,,,,,,,,,,,,,,,,,,,,,,,,,,,,,,,,,,,,,,,,,,,,,
,,6159e8d7327e9932b6cc3333,2023-12-07_07h35.14.084,kallum_motion_pilot,2023.2.3,MacIntel,60.0024001,6159e8d7327e9932b6cc3333,6560176e4d91f764e2a42c74,657158154b34750c7e471c55,0.0771,0.0772,0,105,105,73,1,onethree,,,,,,,,,,,,,,,,,,,,,,,,,,,,,,,,,,,,,,,,,,,,,,,,,,,,,,,,,,,,,,,,,,,,,,,,,,,,,,,,,,,,,,,,,,,,,,,,,,,,,,,,,,,,,,,,,,,,,,,,,,,,,,,,,,,,,,,
,,6159e8d7327e9932b6cc3333,2023-12-07_07h35.14.084,kallum_motion_pilot,2023.2.3,MacIntel,60.0024001,6159e8d7327e9932b6cc3333,6560176e4d91f764e2a42c74,657158154b34750c7e471c55,0.0773,0.0775,0,106,106,78,1,fourtwo,,,,,,,,,,,,,,,,,,,,,,,,,,,,,,,,,,,,,,,,,,,,,,,,,,,,,,,,,,,,,,,,,,,,,,,,,,,,,,,,,,,,,,,,,,,,,,,,,,,,,,,,,,,,,,,,,,,,,,,,,,,,,,,,,,,,,,,
,,6159e8d7327e9932b6cc3333,2023-12-07_07h35.14.084,kallum_motion_pilot,2023.2.3,MacIntel,60.0024001,6159e8d7327e9932b6cc3333,6560176e4d91f764e2a42c74,657158154b34750c7e471c55,0.0777,0.0778,0,107,107,125,1,seveneight,,,,,,,,,,,,,,,,,,,,,,,,,,,,,,,,,,,,,,,,,,,,,,,,,,,,,,,,,,,,,,,,,,,,,,,,,,,,,,,,,,,,,,,,,,,,,,,,,,,,,,,,,,,,,,,,,,,,,,,,,,,,,,,,,,,,,,,
,,6159e8d7327e9932b6cc3333,2023-12-07_07h35.14.084,kallum_motion_pilot,2023.2.3,MacIntel,60.0024001,6159e8d7327e9932b6cc3333,6560176e4d91f764e2a42c74,657158154b34750c7e471c55,0.078,0.078,0,108,108,79,1,eightseven,,,,,,,,,,,,,,,,,,,,,,,,,,,,,,,,,,,,,,,,,,,,,,,,,,,,,,,,,,,,,,,,,,,,,,,,,,,,,,,,,,,,,,,,,,,,,,,,,,,,,,,,,,,,,,,,,,,,,,,,,,,,,,,,,,,,,,,
,,6159e8d7327e9932b6cc3333,2023-12-07_07h35.14.084,kallum_motion_pilot,2023.2.3,MacIntel,60.0024001,6159e8d7327e9932b6cc3333,6560176e4d91f764e2a42c74,657158154b34750c7e471c55,0.0783,0.0785,0,109,109,112,1,fivesix,,,,,,,,,,,,,,,,,,,,,,,,,,,,,,,,,,,,,,,,,,,,,,,,,,,,,,,,,,,,,,,,,,,,,,,,,,,,,,,,,,,,,,,,,,,,,,,,,,,,,,,,,,,,,,,,,,,,,,,,,,,,,,,,,,,,,,,
,,6159e8d7327e9932b6cc3333,2023-12-07_07h35.14.084,kallum_motion_pilot,2023.2.3,MacIntel,60.0024001,6159e8d7327e9932b6cc3333,6560176e4d91f764e2a42c74,657158154b34750c7e471c55,0.0786,0.0787,0,110,110,14,1,fourtwo,,,,,,,,,,,,,,,,,,,,,,,,,,,,,,,,,,,,,,,,,,,,,,,,,,,,,,,,,,,,,,,,,,,,,,,,,,,,,,,,,,,,,,,,,,,,,,,,,,,,,,,,,,,,,,,,,,,,,,,,,,,,,,,,,,,,,,,
,,6159e8d7327e9932b6cc3333,2023-12-07_07h35.14.084,kallum_motion_pilot,2023.2.3,MacIntel,60.0024001,6159e8d7327e9932b6cc3333,6560176e4d91f764e2a42c74,657158154b34750c7e471c55,0.0789,0.0789,0,111,111,104,1,fivesix,,,,,,,,,,,,,,,,,,,,,,,,,,,,,,,,,,,,,,,,,,,,,,,,,,,,,,,,,,,,,,,,,,,,,,,,,,,,,,,,,,,,,,,,,,,,,,,,,,,,,,,,,,,,,,,,,,,,,,,,,,,,,,,,,,,,,,,
,,6159e8d7327e9932b6cc3333,2023-12-07_07h35.14.084,kallum_motion_pilot,2023.2.3,MacIntel,60.0024001,6159e8d7327e9932b6cc3333,6560176e4d91f764e2a42c74,657158154b34750c7e471c55,0.0792,0.0792,0,112,112,142,1,eightsix,,,,,,,,,,,,,,,,,,,,,,,,,,,,,,,,,,,,,,,,,,,,,,,,,,,,,,,,,,,,,,,,,,,,,,,,,,,,,,,,,,,,,,,,,,,,,,,,,,,,,,,,,,,,,,,,,,,,,,,,,,,,,,,,,,,,,,,
,,6159e8d7327e9932b6cc3333,2023-12-07_07h35.14.084,kallum_motion_pilot,2023.2.3,MacIntel,60.0024001,6159e8d7327e9932b6cc3333,6560176e4d91f764e2a42c74,657158154b34750c7e471c55,0.0794,0.0795,0,113,113,127,1,eightseven,,,,,,,,,,,,,,,,,,,,,,,,,,,,,,,,,,,,,,,,,,,,,,,,,,,,,,,,,,,,,,,,,,,,,,,,,,,,,,,,,,,,,,,,,,,,,,,,,,,,,,,,,,,,,,,,,,,,,,,,,,,,,,,,,,,,,,,
,,6159e8d7327e9932b6cc3333,2023-12-07_07h35.14.084,kallum_motion_pilot,2023.2.3,MacIntel,60.0024001,6159e8d7327e9932b6cc3333,6560176e4d91f764e2a42c74,657158154b34750c7e471c55,0.0796,0.0797,0,114,114,87,1,eightseven,,,,,,,,,,,,,,,,,,,,,,,,,,,,,,,,,,,,,,,,,,,,,,,,,,,,,,,,,,,,,,,,,,,,,,,,,,,,,,,,,,,,,,,,,,,,,,,,,,,,,,,,,,,,,,,,,,,,,,,,,,,,,,,,,,,,,,,
,,6159e8d7327e9932b6cc3333,2023-12-07_07h35.14.084,kallum_motion_pilot,2023.2.3,MacIntel,60.0024001,6159e8d7327e9932b6cc3333,6560176e4d91f764e2a42c74,657158154b34750c7e471c55,0.0798,0.0799,0,115,115,35,1,twofour,,,,,,,,,,,,,,,,,,,,,,,,,,,,,,,,,,,,,,,,,,,,,,,,,,,,,,,,,,,,,,,,,,,,,,,,,,,,,,,,,,,,,,,,,,,,,,,,,,,,,,,,,,,,,,,,,,,,,,,,,,,,,,,,,,,,,,,
,,6159e8d7327e9932b6cc3333,2023-12-07_07h35.14.084,kallum_motion_pilot,2023.2.3,MacIntel,60.0024001,6159e8d7327e9932b6cc3333,6560176e4d91f764e2a42c74,657158154b34750c7e471c55,0.0801,0.0802,0,116,116,77,1,threefour,,,,,,,,,,,,,,,,,,,,,,,,,,,,,,,,,,,,,,,,,,,,,,,,,,,,,,,,,,,,,,,,,,,,,,,,,,,,,,,,,,,,,,,,,,,,,,,,,,,,,,,,,,,,,,,,,,,,,,,,,,,,,,,,,,,,,,,
,,6159e8d7327e9932b6cc3333,2023-12-07_07h35.14.084,kallum_motion_pilot,2023.2.3,MacIntel,60.0024001,6159e8d7327e9932b6cc3333,6560176e4d91f764e2a42c74,657158154b34750c7e471c55,0.0803,0.0804,0,117,117,111,1,eightseven,,,,,,,,,,,,,,,,,,,,,,,,,,,,,,,,,,,,,,,,,,,,,,,,,,,,,,,,,,,,,,,,,,,,,,,,,,,,,,,,,,,,,,,,,,,,,,,,,,,,,,,,,,,,,,,,,,,,,,,,,,,,,,,,,,,,,,,
,,6159e8d7327e9932b6cc3333,2023-12-07_07h35.14.084,kallum_motion_pilot,2023.2.3,MacIntel,60.0024001,6159e8d7327e9932b6cc3333,6560176e4d91f764e2a42c74,657158154b34750c7e471c55,0.0806,0.0807,0,118,118,81,1,fiveseven,,,,,,,,,,,,,,,,,,,,,,,,,,,,,,,,,,,,,,,,,,,,,,,,,,,,,,,,,,,,,,,,,,,,,,,,,,,,,,,,,,,,,,,,,,,,,,,,,,,,,,,,,,,,,,,,,,,,,,,,,,,,,,,,,,,,,,,
,,6159e8d7327e9932b6cc3333,2023-12-07_07h35.14.084,kallum_motion_pilot,2023.2.3,MacIntel,60.0024001,6159e8d7327e9932b6cc3333,6560176e4d91f764e2a42c74,657158154b34750c7e471c55,0.0814,0.0816,0,119,119,55,1,fourthree,,,,,,,,,,,,,,,,,,,,,,,,,,,,,,,,,,,,,,,,,,,,,,,,,,,,,,,,,,,,,,,,,,,,,,,,,,,,,,,,,,,,,,,,,,,,,,,,,,,,,,,,,,,,,,,,,,,,,,,,,,,,,,,,,,,,,,,
,,6159e8d7327e9932b6cc3333,2023-12-07_07h35.14.084,kallum_motion_pilot,2023.2.3,MacIntel,60.0024001,6159e8d7327e9932b6cc3333,6560176e4d91f764e2a42c74,657158154b34750c7e471c55,0.0821,0.0823,0,120,120,150,1,eightsix,,,,,,,,,,,,,,,,,,,,,,,,,,,,,,,,,,,,,,,,,,,,,,,,,,,,,,,,,,,,,,,,,,,,,,,,,,,,,,,,,,,,,,,,,,,,,,,,,,,,,,,,,,,,,,,,,,,,,,,,,,,,,,,,,,,,,,,
,,6159e8d7327e9932b6cc3333,2023-12-07_07h35.14.084,kallum_motion_pilot,2023.2.3,MacIntel,60.0024001,6159e8d7327e9932b6cc3333,6560176e4d91f764e2a42c74,657158154b34750c7e471c55,0.0825,0.0826,0,121,121,158,1,eightsix,,,,,,,,,,,,,,,,,,,,,,,,,,,,,,,,,,,,,,,,,,,,,,,,,,,,,,,,,,,,,,,,,,,,,,,,,,,,,,,,,,,,,,,,,,,,,,,,,,,,,,,,,,,,,,,,,,,,,,,,,,,,,,,,,,,,,,,
,,6159e8d7327e9932b6cc3333,2023-12-07_07h35.14.084,kallum_motion_pilot,2023.2.3,MacIntel,60.0024001,6159e8d7327e9932b6cc3333,6560176e4d91f764e2a42c74,657158154b34750c7e471c55,0.0828,0.0831,0,122,122,128,1,fivesix,,,,,,,,,,,,,,,,,,,,,,,,,,,,,,,,,,,,,,,,,,,,,,,,,,,,,,,,,,,,,,,,,,,,,,,,,,,,,,,,,,,,,,,,,,,,,,,,,,,,,,,,,,,,,,,,,,,,,,,,,,,,,,,,,,,,,,,
,,6159e8d7327e9932b6cc3333,2023-12-07_07h35.14.084,kallum_motion_pilot,2023.2.3,MacIntel,60.0024001,6159e8d7327e9932b6cc3333,6560176e4d91f764e2a42c74,657158154b34750c7e471c55,0.0833,0.0834,0,123,123,90,1,sixfive,,,,,,,,,,,,,,,,,,,,,,,,,,,,,,,,,,,,,,,,,,,,,,,,,,,,,,,,,,,,,,,,,,,,,,,,,,,,,,,,,,,,,,,,,,,,,,,,,,,,,,,,,,,,,,,,,,,,,,,,,,,,,,,,,,,,,,,
,,6159e8d7327e9932b6cc3333,2023-12-07_07h35.14.084,kallum_motion_pilot,2023.2.3,MacIntel,60.0024001,6159e8d7327e9932b6cc3333,6560176e4d91f764e2a42c74,657158154b34750c7e471c55,0.0838,0.0841,0,124,124,60,1,threeone,,,,,,,,,,,,,,,,,,,,,,,,,,,,,,,,,,,,,,,,,,,,,,,,,,,,,,,,,,,,,,,,,,,,,,,,,,,,,,,,,,,,,,,,,,,,,,,,,,,,,,,,,,,,,,,,,,,,,,,,,,,,,,,,,,,,,,,
,,6159e8d7327e9932b6cc3333,2023-12-07_07h35.14.084,kallum_motion_pilot,2023.2.3,MacIntel,60.0024001,6159e8d7327e9932b6cc3333,6560176e4d91f764e2a42c74,657158154b34750c7e471c55,0.0843,0.0845,0,125,125,107,1,sixeight,,,,,,,,,,,,,,,,,,,,,,,,,,,,,,,,,,,,,,,,,,,,,,,,,,,,,,,,,,,,,,,,,,,,,,,,,,,,,,,,,,,,,,,,,,,,,,,,,,,,,,,,,,,,,,,,,,,,,,,,,,,,,,,,,,,,,,,
,,6159e8d7327e9932b6cc3333,2023-12-07_07h35.14.084,kallum_motion_pilot,2023.2.3,MacIntel,60.0024001,6159e8d7327e9932b6cc3333,6560176e4d91f764e2a42c74,657158154b34750c7e471c55,0.0847,0.0848,0,126,126,118,1,eightsix,,,,,,,,,,,,,,,,,,,,,,,,,,,,,,,,,,,,,,,,,,,,,,,,,,,,,,,,,,,,,,,,,,,,,,,,,,,,,,,,,,,,,,,,,,,,,,,,,,,,,,,,,,,,,,,,,,,,,,,,,,,,,,,,,,,,,,,
,,6159e8d7327e9932b6cc3333,2023-12-07_07h35.14.084,kallum_motion_pilot,2023.2.3,MacIntel,60.0024001,6159e8d7327e9932b6cc3333,6560176e4d91f764e2a42c74,657158154b34750c7e471c55,0.0852,0.0853,0,127,127,113,1,fiveseven,,,,,,,,,,,,,,,,,,,,,,,,,,,,,,,,,,,,,,,,,,,,,,,,,,,,,,,,,,,,,,,,,,,,,,,,,,,,,,,,,,,,,,,,,,,,,,,,,,,,,,,,,,,,,,,,,,,,,,,,,,,,,,,,,,,,,,,
,,6159e8d7327e9932b6cc3333,2023-12-07_07h35.14.084,kallum_motion_pilot,2023.2.3,MacIntel,60.0024001,6159e8d7327e9932b6cc3333,6560176e4d91f764e2a42c74,657158154b34750c7e471c55,0.0856,0.086,0,128,128,135,1,eightseven,,,,,,,,,,,,,,,,,,,,,,,,,,,,,,,,,,,,,,,,,,,,,,,,,,,,,,,,,,,,,,,,,,,,,,,,,,,,,,,,,,,,,,,,,,,,,,,,,,,,,,,,,,,,,,,,,,,,,,,,,,,,,,,,,,,,,,,
,,6159e8d7327e9932b6cc3333,2023-12-07_07h35.14.084,kallum_motion_pilot,2023.2.3,MacIntel,60.0024001,6159e8d7327e9932b6cc3333,6560176e4d91f764e2a42c74,657158154b34750c7e471c55,0.0866,0.0868,0,129,129,88,1,fivesix,,,,,,,,,,,,,,,,,,,,,,,,,,,,,,,,,,,,,,,,,,,,,,,,,,,,,,,,,,,,,,,,,,,,,,,,,,,,,,,,,,,,,,,,,,,,,,,,,,,,,,,,,,,,,,,,,,,,,,,,,,,,,,,,,,,,,,,
,,6159e8d7327e9932b6cc3333,2023-12-07_07h35.14.084,kallum_motion_pilot,2023.2.3,MacIntel,60.0024001,6159e8d7327e9932b6cc3333,6560176e4d91f764e2a42c74,657158154b34750c7e471c55,0.0869,0.087,0,130,130,156,1,sevenfive,,,,,,,,,,,,,,,,,,,,,,,,,,,,,,,,,,,,,,,,,,,,,,,,,,,,,,,,,,,,,,,,,,,,,,,,,,,,,,,,,,,,,,,,,,,,,,,,,,,,,,,,,,,,,,,,,,,,,,,,,,,,,,,,,,,,,,,
,,6159e8d7327e9932b6cc3333,2023-12-07_07h35.14.084,kallum_motion_pilot,2023.2.3,MacIntel,60.0024001,6159e8d7327e9932b6cc3333,6560176e4d91f764e2a42c74,657158154b34750c7e471c55,0.0872,0.0873,0,131,131,151,1,eightseven,,,,,,,,,,,,,,,,,,,,,,,,,,,,,,,,,,,,,,,,,,,,,,,,,,,,,,,,,,,,,,,,,,,,,,,,,,,,,,,,,,,,,,,,,,,,,,,,,,,,,,,,,,,,,,,,,,,,,,,,,,,,,,,,,,,,,,,
,,6159e8d7327e9932b6cc3333,2023-12-07_07h35.14.084,kallum_motion_pilot,2023.2.3,MacIntel,60.0024001,6159e8d7327e9932b6cc3333,6560176e4d91f764e2a42c74,657158154b34750c7e471c55,0.0874,0.0875,0,132,132,68,1,threeone,,,,,,,,,,,,,,,,,,,,,,,,,,,,,,,,,,,,,,,,,,,,,,,,,,,,,,,,,,,,,,,,,,,,,,,,,,,,,,,,,,,,,,,,,,,,,,,,,,,,,,,,,,,,,,,,,,,,,,,,,,,,,,,,,,,,,,,
,,6159e8d7327e9932b6cc3333,2023-12-07_07h35.14.084,kallum_motion_pilot,2023.2.3,MacIntel,60.0024001,6159e8d7327e9932b6cc3333,6560176e4d91f764e2a42c74,657158154b34750c7e471c55,0.0877,0.0878,0,133,133,115,1,sixeight,,,,,,,,,,,,,,,,,,,,,,,,,,,,,,,,,,,,,,,,,,,,,,,,,,,,,,,,,,,,,,,,,,,,,,,,,,,,,,,,,,,,,,,,,,,,,,,,,,,,,,,,,,,,,,,,,,,,,,,,,,,,,,,,,,,,,,,
,,6159e8d7327e9932b6cc3333,2023-12-07_07h35.14.084,kallum_motion_pilot,2023.2.3,MacIntel,60.0024001,6159e8d7327e9932b6cc3333,6560176e4d91f764e2a42c74,657158154b34750c7e471c55,0.0879,0.088,0,134,134,119,1,eightseven,,,,,,,,,,,,,,,,,,,,,,,,,,,,,,,,,,,,,,,,,,,,,,,,,,,,,,,,,,,,,,,,,,,,,,,,,,,,,,,,,,,,,,,,,,,,,,,,,,,,,,,,,,,,,,,,,,,,,,,,,,,,,,,,,,,,,,,
,,6159e8d7327e9932b6cc3333,2023-12-07_07h35.14.084,kallum_motion_pilot,2023.2.3,MacIntel,60.0024001,6159e8d7327e9932b6cc3333,6560176e4d91f764e2a42c74,657158154b34750c7e471c55,0.0882,0.0882,0,135,135,62,1,fourtwo,,,,,,,,,,,,,,,,,,,,,,,,,,,,,,,,,,,,,,,,,,,,,,,,,,,,,,,,,,,,,,,,,,,,,,,,,,,,,,,,,,,,,,,,,,,,,,,,,,,,,,,,,,,,,,,,,,,,,,,,,,,,,,,,,,,,,,,
,,6159e8d7327e9932b6cc3333,2023-12-07_07h35.14.084,kallum_motion_pilot,2023.2.3,MacIntel,60.0024001,6159e8d7327e9932b6cc3333,6560176e4d91f764e2a42c74,657158154b34750c7e471c55,0.0884,0.0884,0,136,136,64,1,onetwo,,,,,,,,,,,,,,,,,,,,,,,,,,,,,,,,,,,,,,,,,,,,,,,,,,,,,,,,,,,,,,,,,,,,,,,,,,,,,,,,,,,,,,,,,,,,,,,,,,,,,,,,,,,,,,,,,,,,,,,,,,,,,,,,,,,,,,,
,,6159e8d7327e9932b6cc3333,2023-12-07_07h35.14.084,kallum_motion_pilot,2023.2.3,MacIntel,60.0024001,6159e8d7327e9932b6cc3333,6560176e4d91f764e2a42c74,657158154b34750c7e471c55,0.0886,0.0887,0,137,137,153,1,fiveseven,,,,,,,,,,,,,,,,,,,,,,,,,,,,,,,,,,,,,,,,,,,,,,,,,,,,,,,,,,,,,,,,,,,,,,,,,,,,,,,,,,,,,,,,,,,,,,,,,,,,,,,,,,,,,,,,,,,,,,,,,,,,,,,,,,,,,,,
,,6159e8d7327e9932b6cc3333,2023-12-07_07h35.14.084,kallum_motion_pilot,2023.2.3,MacIntel,60.0024001,6159e8d7327e9932b6cc3333,6560176e4d91f764e2a42c74,657158154b34750c7e471c55,0.089,0.0891,0,138,138,13,1,threefour,,,,,,,,,,,,,,,,,,,,,,,,,,,,,,,,,,,,,,,,,,,,,,,,,,,,,,,,,,,,,,,,,,,,,,,,,,,,,,,,,,,,,,,,,,,,,,,,,,,,,,,,,,,,,,,,,,,,,,,,,,,,,,,,,,,,,,,
,,6159e8d7327e9932b6cc3333,2023-12-07_07h35.14.084,kallum_motion_pilot,2023.2.3,MacIntel,60.0024001,6159e8d7327e9932b6cc3333,6560176e4d91f764e2a42c74,657158154b34750c7e471c55,0.0893,0.0894,0,139,139,15,1,fourthree,,,,,,,,,,,,,,,,,,,,,,,,,,,,,,,,,,,,,,,,,,,,,,,,,,,,,,,,,,,,,,,,,,,,,,,,,,,,,,,,,,,,,,,,,,,,,,,,,,,,,,,,,,,,,,,,,,,,,,,,,,,,,,,,,,,,,,,
,,6159e8d7327e9932b6cc3333,2023-12-07_07h35.14.084,kallum_motion_pilot,2023.2.3,MacIntel,60.0024001,6159e8d7327e9932b6cc3333,6560176e4d91f764e2a42c74,657158154b34750c7e471c55,0.0896,0.0897,0,140,140,70,1,fourtwo,,,,,,,,,,,,,,,,,,,,,,,,,,,,,,,,,,,,,,,,,,,,,,,,,,,,,,,,,,,,,,,,,,,,,,,,,,,,,,,,,,,,,,,,,,,,,,,,,,,,,,,,,,,,,,,,,,,,,,,,,,,,,,,,,,,,,,,
,,6159e8d7327e9932b6cc3333,2023-12-07_07h35.14.084,kallum_motion_pilot,2023.2.3,MacIntel,60.0024001,6159e8d7327e9932b6cc3333,6560176e4d91f764e2a42c74,657158154b34750c7e471c55,0.0898,0.09,0,141,141,57,1,onethree,,,,,,,,,,,,,,,,,,,,,,,,,,,,,,,,,,,,,,,,,,,,,,,,,,,,,,,,,,,,,,,,,,,,,,,,,,,,,,,,,,,,,,,,,,,,,,,,,,,,,,,,,,,,,,,,,,,,,,,,,,,,,,,,,,,,,,,
,,6159e8d7327e9932b6cc3333,2023-12-07_07h35.14.084,kallum_motion_pilot,2023.2.3,MacIntel,60.0024001,6159e8d7327e9932b6cc3333,6560176e4d91f764e2a42c74,657158154b34750c7e471c55,0.0901,0.0902,0,142,142,27,1,twofour,,,,,,,,,,,,,,,,,,,,,,,,,,,,,,,,,,,,,,,,,,,,,,,,,,,,,,,,,,,,,,,,,,,,,,,,,,,,,,,,,,,,,,,,,,,,,,,,,,,,,,,,,,,,,,,,,,,,,,,,,,,,,,,,,,,,,,,
,,6159e8d7327e9932b6cc3333,2023-12-07_07h35.14.084,kallum_motion_pilot,2023.2.3,MacIntel,60.0024001,6159e8d7327e9932b6cc3333,6560176e4d91f764e2a42c74,657158154b34750c7e471c55,0.0903,0.0905,0,143,143,56,1,onetwo,,,,,,,,,,,,,,,,,,,,,,,,,,,,,,,,,,,,,,,,,,,,,,,,,,,,,,,,,,,,,,,,,,,,,,,,,,,,,,,,,,,,,,,,,,,,,,,,,,,,,,,,,,,,,,,,,,,,,,,,,,,,,,,,,,,,,,,
,,6159e8d7327e9932b6cc3333,2023-12-07_07h35.14.084,kallum_motion_pilot,2023.2.3,MacIntel,60.0024001,6159e8d7327e9932b6cc3333,6560176e4d91f764e2a42c74,657158154b34750c7e471c55,0.0907,0.0907,0,144,144,159,1,eightseven,,,,,,,,,,,,,,,,,,,,,,,,,,,,,,,,,,,,,,,,,,,,,,,,,,,,,,,,,,,,,,,,,,,,,,,,,,,,,,,,,,,,,,,,,,,,,,,,,,,,,,,,,,,,,,,,,,,,,,,,,,,,,,,,,,,,,,,
,,6159e8d7327e9932b6cc3333,2023-12-07_07h35.14.084,kallum_motion_pilot,2023.2.3,MacIntel,60.0024001,6159e8d7327e9932b6cc3333,6560176e4d91f764e2a42c74,657158154b34750c7e471c55,0.0909,0.091,0,145,145,42,1,twoone,,,,,,,,,,,,,,,,,,,,,,,,,,,,,,,,,,,,,,,,,,,,,,,,,,,,,,,,,,,,,,,,,,,,,,,,,,,,,,,,,,,,,,,,,,,,,,,,,,,,,,,,,,,,,,,,,,,,,,,,,,,,,,,,,,,,,,,
,,6159e8d7327e9932b6cc3333,2023-12-07_07h35.14.084,kallum_motion_pilot,2023.2.3,MacIntel,60.0024001,6159e8d7327e9932b6cc3333,6560176e4d91f764e2a42c74,657158154b34750c7e471c55,0.0912,0.0913,0,146,146,105,1,fiveseven,,,,,,,,,,,,,,,,,,,,,,,,,,,,,,,,,,,,,,,,,,,,,,,,,,,,,,,,,,,,,,,,,,,,,,,,,,,,,,,,,,,,,,,,,,,,,,,,,,,,,,,,,,,,,,,,,,,,,,,,,,,,,,,,,,,,,,,
,,6159e8d7327e9932b6cc3333,2023-12-07_07h35.14.084,kallum_motion_pilot,2023.2.3,MacIntel,60.0024001,6159e8d7327e9932b6cc3333,6560176e4d91f764e2a42c74,657158154b34750c7e471c55,0.0914,0.0919,0,147,147,34,1,twoone,,,,,,,,,,,,,,,,,,,,,,,,,,,,,,,,,,,,,,,,,,,,,,,,,,,,,,,,,,,,,,,,,,,,,,,,,,,,,,,,,,,,,,,,,,,,,,,,,,,,,,,,,,,,,,,,,,,,,,,,,,,,,,,,,,,,,,,
,,6159e8d7327e9932b6cc3333,2023-12-07_07h35.14.084,kallum_motion_pilot,2023.2.3,MacIntel,60.0024001,6159e8d7327e9932b6cc3333,6560176e4d91f764e2a42c74,657158154b34750c7e471c55,0.0921,0.0922,0,148,148,4,1,threeone,,,,,,,,,,,,,,,,,,,,,,,,,,,,,,,,,,,,,,,,,,,,,,,,,,,,,,,,,,,,,,,,,,,,,,,,,,,,,,,,,,,,,,,,,,,,,,,,,,,,,,,,,,,,,,,,,,,,,,,,,,,,,,,,,,,,,,,
,,6159e8d7327e9932b6cc3333,2023-12-07_07h35.14.084,kallum_motion_pilot,2023.2.3,MacIntel,60.0024001,6159e8d7327e9932b6cc3333,6560176e4d91f764e2a42c74,657158154b34750c7e471c55,0.0923,0.0924,0,149,149,41,1,onethree,,,,,,,,,,,,,,,,,,,,,,,,,,,,,,,,,,,,,,,,,,,,,,,,,,,,,,,,,,,,,,,,,,,,,,,,,,,,,,,,,,,,,,,,,,,,,,,,,,,,,,,,,,,,,,,,,,,,,,,,,,,,,,,,,,,,,,,
,,6159e8d7327e9932b6cc3333,2023-12-07_07h35.14.084,kallum_motion_pilot,2023.2.3,MacIntel,60.0024001,6159e8d7327e9932b6cc3333,6560176e4d91f764e2a42c74,657158154b34750c7e471c55,0.0926,0.0927,0,150,150,69,1,threefour,,,,,,,,,,,,,,,,,,,,,,,,,,,,,,,,,,,,,,,,,,,,,,,,,,,,,,,,,,,,,,,,,,,,,,,,,,,,,,,,,,,,,,,,,,,,,,,,,,,,,,,,,,,,,,,,,,,,,,,,,,,,,,,,,,,,,,,
,,6159e8d7327e9932b6cc3333,2023-12-07_07h35.14.084,kallum_motion_pilot,2023.2.3,MacIntel,60.0024001,6159e8d7327e9932b6cc3333,6560176e4d91f764e2a42c74,657158154b34750c7e471c55,0.0928,0.0929,0,151,151,120,1,fivesix,,,,,,,,,,,,,,,,,,,,,,,,,,,,,,,,,,,,,,,,,,,,,,,,,,,,,,,,,,,,,,,,,,,,,,,,,,,,,,,,,,,,,,,,,,,,,,,,,,,,,,,,,,,,,,,,,,,,,,,,,,,,,,,,,,,,,,,
,,6159e8d7327e9932b6cc3333,2023-12-07_07h35.14.084,kallum_motion_pilot,2023.2.3,MacIntel,60.0024001,6159e8d7327e9932b6cc3333,6560176e4d91f764e2a42c74,657158154b34750c7e471c55,0.0931,0.0932,0,152,152,17,1,onethree,,,,,,,,,,,,,,,,,,,,,,,,,,,,,,,,,,,,,,,,,,,,,,,,,,,,,,,,,,,,,,,,,,,,,,,,,,,,,,,,,,,,,,,,,,,,,,,,,,,,,,,,,,,,,,,,,,,,,,,,,,,,,,,,,,,,,,,
,,6159e8d7327e9932b6cc3333,2023-12-07_07h35.14.084,kallum_motion_pilot,2023.2.3,MacIntel,60.0024001,6159e8d7327e9932b6cc3333,6560176e4d91f764e2a42c74,657158154b34750c7e471c55,0.0934,0.0935,0,153,153,140,1,sevenfive,,,,,,,,,,,,,,,,,,,,,,,,,,,,,,,,,,,,,,,,,,,,,,,,,,,,,,,,,,,,,,,,,,,,,,,,,,,,,,,,,,,,,,,,,,,,,,,,,,,,,,,,,,,,,,,,,,,,,,,,,,,,,,,,,,,,,,,
,,6159e8d7327e9932b6cc3333,2023-12-07_07h35.14.084,kallum_motion_pilot,2023.2.3,MacIntel,60.0024001,6159e8d7327e9932b6cc3333,6560176e4d91f764e2a42c74,657158154b34750c7e471c55,0.0936,0.0938,0,154,154,26,1,twoone,,,,,,,,,,,,,,,,,,,,,,,,,,,,,,,,,,,,,,,,,,,,,,,,,,,,,,,,,,,,,,,,,,,,,,,,,,,,,,,,,,,,,,,,,,,,,,,,,,,,,,,,,,,,,,,,,,,,,,,,,,,,,,,,,,,,,,,
,,6159e8d7327e9932b6cc3333,2023-12-07_07h35.14.084,kallum_motion_pilot,2023.2.3,MacIntel,60.0024001,6159e8d7327e9932b6cc3333,6560176e4d91f764e2a42c74,657158154b34750c7e471c55,0.094,0.094,0,155,155,37,1,threefour,,,,,,,,,,,,,,,,,,,,,,,,,,,,,,,,,,,,,,,,,,,,,,,,,,,,,,,,,,,,,,,,,,,,,,,,,,,,,,,,,,,,,,,,,,,,,,,,,,,,,,,,,,,,,,,,,,,,,,,,,,,,,,,,,,,,,,,
,,6159e8d7327e9932b6cc3333,2023-12-07_07h35.14.084,kallum_motion_pilot,2023.2.3,MacIntel,60.0024001,6159e8d7327e9932b6cc3333,6560176e4d91f764e2a42c74,657158154b34750c7e471c55,0.0943,0.0944,0,156,156,134,1,eightsix,,,,,,,,,,,,,,,,,,,,,,,,,,,,,,,,,,,,,,,,,,,,,,,,,,,,,,,,,,,,,,,,,,,,,,,,,,,,,,,,,,,,,,,,,,,,,,,,,,,,,,,,,,,,,,,,,,,,,,,,,,,,,,,,,,,,,,,
,,6159e8d7327e9932b6cc3333,2023-12-07_07h35.14.084,kallum_motion_pilot,2023.2.3,MacIntel,60.0024001,6159e8d7327e9932b6cc3333,6560176e4d91f764e2a42c74,657158154b34750c7e471c55,0.0946,0.0948,0,157,157,10,1,twoone,,,,,,,,,,,,,,,,,,,,,,,,,,,,,,,,,,,,,,,,,,,,,,,,,,,,,,,,,,,,,,,,,,,,,,,,,,,,,,,,,,,,,,,,,,,,,,,,,,,,,,,,,,,,,,,,,,,,,,,,,,,,,,,,,,,,,,,
,,6159e8d7327e9932b6cc3333,2023-12-07_07h35.14.084,kallum_motion_pilot,2023.2.3,MacIntel,60.0024001,6159e8d7327e9932b6cc3333,6560176e4d91f764e2a42c74,657158154b34750c7e471c55,0.0949,0.095,0,158,158,98,1,sixfive,,,,,,,,,,,,,,,,,,,,,,,,,,,,,,,,,,,,,,,,,,,,,,,,,,,,,,,,,,,,,,,,,,,,,,,,,,,,,,,,,,,,,,,,,,,,,,,,,,,,,,,,,,,,,,,,,,,,,,,,,,,,,,,,,,,,,,,
,,6159e8d7327e9932b6cc3333,2023-12-07_07h35.14.084,kallum_motion_pilot,2023.2.3,MacIntel,60.0024001,6159e8d7327e9932b6cc3333,6560176e4d91f764e2a42c74,657158154b34750c7e471c55,0.0951,0.0953,0,159,159,154,1,sixfive,,,,,,,,,,,,,,,,,,,,,,,,,,,,,,,,,,,,,,,,,,,,,,,,,,,,,,,,,,,,,,,,,,,,,,,,,,,,,,,,,,,,,,,,,,,,,,,,,,,,,,,,,,,,,,,,,,,,,,,,,,,,,,,,,,,,,,,
,,6159e8d7327e9932b6cc3333,2023-12-07_07h35.14.084,kallum_motion_pilot,2023.2.3,MacIntel,60.0024001,6159e8d7327e9932b6cc3333,6560176e4d91f764e2a42c74,657158154b34750c7e471c55,0.0954,0.0955,0,160,160,51,1,twofour,,,,,,,,,,,,,,,,,,,,,,,,,,,,,,,,,,,,,,,,,,,,,,,,,,,,,,,,,,,,,,,,,,,,,,,,,,,,,,,,,,,,,,,,,,,,,,,,,,,,,,,,,,,,,,,,,,,,,,,,,,,,,,,,,,,,,,,
,,6159e8d7327e9932b6cc3333,2023-12-07_07h35.14.084,kallum_motion_pilot,2023.2.3,MacIntel,60.0024001,6159e8d7327e9932b6cc3333,6560176e4d91f764e2a42c74,657158154b34750c7e471c55,0.0957,0.0958,0,161,161,152,1,fivesix,,,,,,,,,,,,,,,,,,,,,,,,,,,,,,,,,,,,,,,,,,,,,,,,,,,,,,,,,,,,,,,,,,,,,,,,,,,,,,,,,,,,,,,,,,,,,,,,,,,,,,,,,,,,,,,,,,,,,,,,,,,,,,,,,,,,,,,
,,6159e8d7327e9932b6cc3333,2023-12-07_07h35.14.084,kallum_motion_pilot,2023.2.3,MacIntel,60.0024001,6159e8d7327e9932b6cc3333,6560176e4d91f764e2a42c74,657158154b34750c7e471c55,0.0959,0.0961,1,0,162,42,1,twoone,,,,,,,,,,,,,,,,,,,,,,,,,,,,,,,,,,,,,,,,,,,,,,,,,,,,,,,,,,,,,,,,,,,,,,,,,,,,,,,,,,,,,,,,,,,,,,,,,,,,,,,,,,,,,,,,,,,,,,,,,,,,,,,,,,,,,,,
,,6159e8d7327e9932b6cc3333,2023-12-07_07h35.14.084,kallum_motion_pilot,2023.2.3,MacIntel,60.0024001,6159e8d7327e9932b6cc3333,6560176e4d91f764e2a42c74,657158154b34750c7e471c55,0.0963,0.0963,1,1,163,0,1,onetwo,,,,,,,,,,,,,,,,,,,,,,,,,,,,,,,,,,,,,,,,,,,,,,,,,,,,,,,,,,,,,,,,,,,,,,,,,,,,,,,,,,,,,,,,,,,,,,,,,,,,,,,,,,,,,,,,,,,,,,,,,,,,,,,,,,,,,,,
,,6159e8d7327e9932b6cc3333,2023-12-07_07h35.14.084,kallum_motion_pilot,2023.2.3,MacIntel,60.0024001,6159e8d7327e9932b6cc3333,6560176e4d91f764e2a42c74,657158154b34750c7e471c55,0.0965,0.0966,1,2,164,152,1,fivesix,,,,,,,,,,,,,,,,,,,,,,,,,,,,,,,,,,,,,,,,,,,,,,,,,,,,,,,,,,,,,,,,,,,,,,,,,,,,,,,,,,,,,,,,,,,,,,,,,,,,,,,,,,,,,,,,,,,,,,,,,,,,,,,,,,,,,,,
,,6159e8d7327e9932b6cc3333,2023-12-07_07h35.14.084,kallum_motion_pilot,2023.2.3,MacIntel,60.0024001,6159e8d7327e9932b6cc3333,6560176e4d91f764e2a42c74,657158154b34750c7e471c55,0.0968,0.0972,1,3,165,149,1,seveneight,,,,,,,,,,,,,,,,,,,,,,,,,,,,,,,,,,,,,,,,,,,,,,,,,,,,,,,,,,,,,,,,,,,,,,,,,,,,,,,,,,,,,,,,,,,,,,,,,,,,,,,,,,,,,,,,,,,,,,,,,,,,,,,,,,,,,,,
,,6159e8d7327e9932b6cc3333,2023-12-07_07h35.14.084,kallum_motion_pilot,2023.2.3,MacIntel,60.0024001,6159e8d7327e9932b6cc3333,6560176e4d91f764e2a42c74,657158154b34750c7e471c55,0.0973,0.0977,1,4,166,4,1,threeone,,,,,,,,,,,,,,,,,,,,,,,,,,,,,,,,,,,,,,,,,,,,,,,,,,,,,,,,,,,,,,,,,,,,,,,,,,,,,,,,,,,,,,,,,,,,,,,,,,,,,,,,,,,,,,,,,,,,,,,,,,,,,,,,,,,,,,,
,,6159e8d7327e9932b6cc3333,2023-12-07_07h35.14.084,kallum_motion_pilot,2023.2.3,MacIntel,60.0024001,6159e8d7327e9932b6cc3333,6560176e4d91f764e2a42c74,657158154b34750c7e471c55,0.0979,0.098,1,5,167,91,1,sixeight,,,,,,,,,,,,,,,,,,,,,,,,,,,,,,,,,,,,,,,,,,,,,,,,,,,,,,,,,,,,,,,,,,,,,,,,,,,,,,,,,,,,,,,,,,,,,,,,,,,,,,,,,,,,,,,,,,,,,,,,,,,,,,,,,,,,,,,
,,6159e8d7327e9932b6cc3333,2023-12-07_07h35.14.084,kallum_motion_pilot,2023.2.3,MacIntel,60.0024001,6159e8d7327e9932b6cc3333,6560176e4d91f764e2a42c74,657158154b34750c7e471c55,0.0983,0.0986,1,6,168,103,1,eightseven,,,,,,,,,,,,,,,,,,,,,,,,,,,,,,,,,,,,,,,,,,,,,,,,,,,,,,,,,,,,,,,,,,,,,,,,,,,,,,,,,,,,,,,,,,,,,,,,,,,,,,,,,,,,,,,,,,,,,,,,,,,,,,,,,,,,,,,
,,6159e8d7327e9932b6cc3333,2023-12-07_07h35.14.084,kallum_motion_pilot,2023.2.3,MacIntel,60.0024001,6159e8d7327e9932b6cc3333,6560176e4d91f764e2a42c74,657158154b34750c7e471c55,0.0988,0.0991,1,7,169,156,1,sevenfive,,,,,,,,,,,,,,,,,,,,,,,,,,,,,,,,,,,,,,,,,,,,,,,,,,,,,,,,,,,,,,,,,,,,,,,,,,,,,,,,,,,,,,,,,,,,,,,,,,,,,,,,,,,,,,,,,,,,,,,,,,,,,,,,,,,,,,,
,,6159e8d7327e9932b6cc3333,2023-12-07_07h35.14.084,kallum_motion_pilot,2023.2.3,MacIntel,60.0024001,6159e8d7327e9932b6cc3333,6560176e4d91f764e2a42c74,657158154b34750c7e471c55,0.0993,0.0995,1,8,170,111,1,eightseven,,,,,,,,,,,,,,,,,,,,,,,,,,,,,,,,,,,,,,,,,,,,,,,,,,,,,,,,,,,,,,,,,,,,,,,,,,,,,,,,,,,,,,,,,,,,,,,,,,,,,,,,,,,,,,,,,,,,,,,,,,,,,,,,,,,,,,,
,,6159e8d7327e9932b6cc3333,2023-12-07_07h35.14.084,kallum_motion_pilot,2023.2.3,MacIntel,60.0024001,6159e8d7327e9932b6cc3333,6560176e4d91f764e2a42c74,657158154b34750c7e471c55,0.1001,0.1002,1,9,171,95,1,eightseven,,,,,,,,,,,,,,,,,,,,,,,,,,,,,,,,,,,,,,,,,,,,,,,,,,,,,,,,,,,,,,,,,,,,,,,,,,,,,,,,,,,,,,,,,,,,,,,,,,,,,,,,,,,,,,,,,,,,,,,,,,,,,,,,,,,,,,,
,,6159e8d7327e9932b6cc3333,2023-12-07_07h35.14.084,kallum_motion_pilot,2023.2.3,MacIntel,60.0024001,6159e8d7327e9932b6cc3333,6560176e4d91f764e2a42c74,657158154b34750c7e471c55,0.1004,0.1006,1,10,172,64,1,onetwo,,,,,,,,,,,,,,,,,,,,,,,,,,,,,,,,,,,,,,,,,,,,,,,,,,,,,,,,,,,,,,,,,,,,,,,,,,,,,,,,,,,,,,,,,,,,,,,,,,,,,,,,,,,,,,,,,,,,,,,,,,,,,,,,,,,,,,,
,,6159e8d7327e9932b6cc3333,2023-12-07_07h35.14.084,kallum_motion_pilot,2023.2.3,MacIntel,60.0024001,6159e8d7327e9932b6cc3333,6560176e4d91f764e2a42c74,657158154b34750c7e471c55,0.1007,0.1009,1,11,173,40,1,onetwo,,,,,,,,,,,,,,,,,,,,,,,,,,,,,,,,,,,,,,,,,,,,,,,,,,,,,,,,,,,,,,,,,,,,,,,,,,,,,,,,,,,,,,,,,,,,,,,,,,,,,,,,,,,,,,,,,,,,,,,,,,,,,,,,,,,,,,,
,,6159e8d7327e9932b6cc3333,2023-12-07_07h35.14.084,kallum_motion_pilot,2023.2.3,MacIntel,60.0024001,6159e8d7327e9932b6cc3333,6560176e4d91f764e2a42c74,657158154b34750c7e471c55,0.101,0.1012,1,12,174,16,1,onetwo,,,,,,,,,,,,,,,,,,,,,,,,,,,,,,,,,,,,,,,,,,,,,,,,,,,,,,,,,,,,,,,,,,,,,,,,,,,,,,,,,,,,,,,,,,,,,,,,,,,,,,,,,,,,,,,,,,,,,,,,,,,,,,,,,,,,,,,
,,6159e8d7327e9932b6cc3333,2023-12-07_07h35.14.084,kallum_motion_pilot,2023.2.3,MacIntel,60.0024001,6159e8d7327e9932b6cc3333,6560176e4d91f764e2a42c74,657158154b34750c7e471c55,0.1014,0.1015,1,13,175,117,1,seveneight,,,,,,,,,,,,,,,,,,,,,,,,,,,,,,,,,,,,,,,,,,,,,,,,,,,,,,,,,,,,,,,,,,,,,,,,,,,,,,,,,,,,,,,,,,,,,,,,,,,,,,,,,,,,,,,,,,,,,,,,,,,,,,,,,,,,,,,
,,6159e8d7327e9932b6cc3333,2023-12-07_07h35.14.084,kallum_motion_pilot,2023.2.3,MacIntel,60.0024001,6159e8d7327e9932b6cc3333,6560176e4d91f764e2a42c74,657158154b34750c7e471c55,0.1016,0.1018,1,14,176,39,1,fourthree,,,,,,,,,,,,,,,,,,,,,,,,,,,,,,,,,,,,,,,,,,,,,,,,,,,,,,,,,,,,,,,,,,,,,,,,,,,,,,,,,,,,,,,,,,,,,,,,,,,,,,,,,,,,,,,,,,,,,,,,,,,,,,,,,,,,,,,
,,6159e8d7327e9932b6cc3333,2023-12-07_07h35.14.084,kallum_motion_pilot,2023.2.3,MacIntel,60.0024001,6159e8d7327e9932b6cc3333,6560176e4d91f764e2a42c74,657158154b34750c7e471c55,0.1021,0.1024,1,15,177,148,1,sevenfive,,,,,,,,,,,,,,,,,,,,,,,,,,,,,,,,,,,,,,,,,,,,,,,,,,,,,,,,,,,,,,,,,,,,,,,,,,,,,,,,,,,,,,,,,,,,,,,,,,,,,,,,,,,,,,,,,,,,,,,,,,,,,,,,,,,,,,,
,,6159e8d7327e9932b6cc3333,2023-12-07_07h35.14.084,kallum_motion_pilot,2023.2.3,MacIntel,60.0024001,6159e8d7327e9932b6cc3333,6560176e4d91f764e2a42c74,657158154b34750c7e471c55,0.1032,0.1033,1,16,178,113,1,fiveseven,,,,,,,,,,,,,,,,,,,,,,,,,,,,,,,,,,,,,,,,,,,,,,,,,,,,,,,,,,,,,,,,,,,,,,,,,,,,,,,,,,,,,,,,,,,,,,,,,,,,,,,,,,,,,,,,,,,,,,,,,,,,,,,,,,,,,,,
,,6159e8d7327e9932b6cc3333,2023-12-07_07h35.14.084,kallum_motion_pilot,2023.2.3,MacIntel,60.0024001,6159e8d7327e9932b6cc3333,6560176e4d91f764e2a42c74,657158154b34750c7e471c55,0.1035,0.1036,1,17,179,93,1,seveneight,,,,,,,,,,,,,,,,,,,,,,,,,,,,,,,,,,,,,,,,,,,,,,,,,,,,,,,,,,,,,,,,,,,,,,,,,,,,,,,,,,,,,,,,,,,,,,,,,,,,,,,,,,,,,,,,,,,,,,,,,,,,,,,,,,,,,,,
,,6159e8d7327e9932b6cc3333,2023-12-07_07h35.14.084,kallum_motion_pilot,2023.2.3,MacIntel,60.0024001,6159e8d7327e9932b6cc3333,6560176e4d91f764e2a42c74,657158154b34750c7e471c55,0.1037,0.1039,1,18,180,153,1,fiveseven,,,,,,,,,,,,,,,,,,,,,,,,,,,,,,,,,,,,,,,,,,,,,,,,,,,,,,,,,,,,,,,,,,,,,,,,,,,,,,,,,,,,,,,,,,,,,,,,,,,,,,,,,,,,,,,,,,,,,,,,,,,,,,,,,,,,,,,
,,6159e8d7327e9932b6cc3333,2023-12-07_07h35.14.084,kallum_motion_pilot,2023.2.3,MacIntel,60.0024001,6159e8d7327e9932b6cc3333,6560176e4d91f764e2a42c74,657158154b34750c7e471c55,0.104,0.1041,1,19,181,19,1,twofour,,,,,,,,,,,,,,,,,,,,,,,,,,,,,,,,,,,,,,,,,,,,,,,,,,,,,,,,,,,,,,,,,,,,,,,,,,,,,,,,,,,,,,,,,,,,,,,,,,,,,,,,,,,,,,,,,,,,,,,,,,,,,,,,,,,,,,,
,,6159e8d7327e9932b6cc3333,2023-12-07_07h35.14.084,kallum_motion_pilot,2023.2.3,MacIntel,60.0024001,6159e8d7327e9932b6cc3333,6560176e4d91f764e2a42c74,657158154b34750c7e471c55,0.1042,0.1044,1,20,182,44,1,threeone,,,,,,,,,,,,,,,,,,,,,,,,,,,,,,,,,,,,,,,,,,,,,,,,,,,,,,,,,,,,,,,,,,,,,,,,,,,,,,,,,,,,,,,,,,,,,,,,,,,,,,,,,,,,,,,,,,,,,,,,,,,,,,,,,,,,,,,
,,6159e8d7327e9932b6cc3333,2023-12-07_07h35.14.084,kallum_motion_pilot,2023.2.3,MacIntel,60.0024001,6159e8d7327e9932b6cc3333,6560176e4d91f764e2a42c74,657158154b34750c7e471c55,0.1046,0.1047,1,21,183,59,1,twofour,,,,,,,,,,,,,,,,,,,,,,,,,,,,,,,,,,,,,,,,,,,,,,,,,,,,,,,,,,,,,,,,,,,,,,,,,,,,,,,,,,,,,,,,,,,,,,,,,,,,,,,,,,,,,,,,,,,,,,,,,,,,,,,,,,,,,,,
,,6159e8d7327e9932b6cc3333,2023-12-07_07h35.14.084,kallum_motion_pilot,2023.2.3,MacIntel,60.0024001,6159e8d7327e9932b6cc3333,6560176e4d91f764e2a42c74,657158154b34750c7e471c55,0.1055,0.1055,1,22,184,60,1,threeone,,,,,,,,,,,,,,,,,,,,,,,,,,,,,,,,,,,,,,,,,,,,,,,,,,,,,,,,,,,,,,,,,,,,,,,,,,,,,,,,,,,,,,,,,,,,,,,,,,,,,,,,,,,,,,,,,,,,,,,,,,,,,,,,,,,,,,,
,,6159e8d7327e9932b6cc3333,2023-12-07_07h35.14.084,kallum_motion_pilot,2023.2.3,MacIntel,60.0024001,6159e8d7327e9932b6cc3333,6560176e4d91f764e2a42c74,657158154b34750c7e471c55,0.1058,0.1058,1,23,185,140,1,sevenfive,,,,,,,,,,,,,,,,,,,,,,,,,,,,,,,,,,,,,,,,,,,,,,,,,,,,,,,,,,,,,,,,,,,,,,,,,,,,,,,,,,,,,,,,,,,,,,,,,,,,,,,,,,,,,,,,,,,,,,,,,,,,,,,,,,,,,,,
,,6159e8d7327e9932b6cc3333,2023-12-07_07h35.14.084,kallum_motion_pilot,2023.2.3,MacIntel,60.0024001,6159e8d7327e9932b6cc3333,6560176e4d91f764e2a42c74,657158154b34750c7e471c55,0.106,0.1062,1,24,186,82,1,sixfive,,,,,,,,,,,,,,,,,,,,,,,,,,,,,,,,,,,,,,,,,,,,,,,,,,,,,,,,,,,,,,,,,,,,,,,,,,,,,,,,,,,,,,,,,,,,,,,,,,,,,,,,,,,,,,,,,,,,,,,,,,,,,,,,,,,,,,,
,,6159e8d7327e9932b6cc3333,2023-12-07_07h35.14.084,kallum_motion_pilot,2023.2.3,MacIntel,60.0024001,6159e8d7327e9932b6cc3333,6560176e4d91f764e2a42c74,657158154b34750c7e471c55,0.1063,0.1064,1,25,187,25,1,onethree,,,,,,,,,,,,,,,,,,,,,,,,,,,,,,,,,,,,,,,,,,,,,,,,,,,,,,,,,,,,,,,,,,,,,,,,,,,,,,,,,,,,,,,,,,,,,,,,,,,,,,,,,,,,,,,,,,,,,,,,,,,,,,,,,,,,,,,
,,6159e8d7327e9932b6cc3333,2023-12-07_07h35.14.084,kallum_motion_pilot,2023.2.3,MacIntel,60.0024001,6159e8d7327e9932b6cc3333,6560176e4d91f764e2a42c74,657158154b34750c7e471c55,0.1066,0.1067,1,26,188,98,1,sixfive,,,,,,,,,,,,,,,,,,,,,,,,,,,,,,,,,,,,,,,,,,,,,,,,,,,,,,,,,,,,,,,,,,,,,,,,,,,,,,,,,,,,,,,,,,,,,,,,,,,,,,,,,,,,,,,,,,,,,,,,,,,,,,,,,,,,,,,
,,6159e8d7327e9932b6cc3333,2023-12-07_07h35.14.084,kallum_motion_pilot,2023.2.3,MacIntel,60.0024001,6159e8d7327e9932b6cc3333,6560176e4d91f764e2a42c74,657158154b34750c7e471c55,0.1069,0.107,1,27,189,63,1,fourthree,,,,,,,,,,,,,,,,,,,,,,,,,,,,,,,,,,,,,,,,,,,,,,,,,,,,,,,,,,,,,,,,,,,,,,,,,,,,,,,,,,,,,,,,,,,,,,,,,,,,,,,,,,,,,,,,,,,,,,,,,,,,,,,,,,,,,,,
,,6159e8d7327e9932b6cc3333,2023-12-07_07h35.14.084,kallum_motion_pilot,2023.2.3,MacIntel,60.0024001,6159e8d7327e9932b6cc3333,6560176e4d91f764e2a42c74,657158154b34750c7e471c55,0.1072,0.1073,1,28,190,13,1,threefour,,,,,,,,,,,,,,,,,,,,,,,,,,,,,,,,,,,,,,,,,,,,,,,,,,,,,,,,,,,,,,,,,,,,,,,,,,,,,,,,,,,,,,,,,,,,,,,,,,,,,,,,,,,,,,,,,,,,,,,,,,,,,,,,,,,,,,,
,,6159e8d7327e9932b6cc3333,2023-12-07_07h35.14.084,kallum_motion_pilot,2023.2.3,MacIntel,60.0024001,6159e8d7327e9932b6cc3333,6560176e4d91f764e2a42c74,657158154b34750c7e471c55,0.1079,0.108,1,29,191,74,1,twoone,,,,,,,,,,,,,,,,,,,,,,,,,,,,,,,,,,,,,,,,,,,,,,,,,,,,,,,,,,,,,,,,,,,,,,,,,,,,,,,,,,,,,,,,,,,,,,,,,,,,,,,,,,,,,,,,,,,,,,,,,,,,,,,,,,,,,,,
,,6159e8d7327e9932b6cc3333,2023-12-07_07h35.14.084,kallum_motion_pilot,2023.2.3,MacIntel,60.0024001,6159e8d7327e9932b6cc3333,6560176e4d91f764e2a42c74,657158154b34750c7e471c55,0.1082,0.1083,1,30,192,52,1,threeone,,,,,,,,,,,,,,,,,,,,,,,,,,,,,,,,,,,,,,,,,,,,,,,,,,,,,,,,,,,,,,,,,,,,,,,,,,,,,,,,,,,,,,,,,,,,,,,,,,,,,,,,,,,,,,,,,,,,,,,,,,,,,,,,,,,,,,,
,,6159e8d7327e9932b6cc3333,2023-12-07_07h35.14.084,kallum_motion_pilot,2023.2.3,MacIntel,60.0024001,6159e8d7327e9932b6cc3333,6560176e4d91f764e2a42c74,657158154b34750c7e471c55,0.1084,0.1086,1,31,193,100,1,sevenfive,,,,,,,,,,,,,,,,,,,,,,,,,,,,,,,,,,,,,,,,,,,,,,,,,,,,,,,,,,,,,,,,,,,,,,,,,,,,,,,,,,,,,,,,,,,,,,,,,,,,,,,,,,,,,,,,,,,,,,,,,,,,,,,,,,,,,,,
,,6159e8d7327e9932b6cc3333,2023-12-07_07h35.14.084,kallum_motion_pilot,2023.2.3,MacIntel,60.0024001,6159e8d7327e9932b6cc3333,6560176e4d91f764e2a42c74,657158154b34750c7e471c55,0.1088,0.1088,1,32,194,47,1,fourthree,,,,,,,,,,,,,,,,,,,,,,,,,,,,,,,,,,,,,,,,,,,,,,,,,,,,,,,,,,,,,,,,,,,,,,,,,,,,,,,,,,,,,,,,,,,,,,,,,,,,,,,,,,,,,,,,,,,,,,,,,,,,,,,,,,,,,,,
,,6159e8d7327e9932b6cc3333,2023-12-07_07h35.14.084,kallum_motion_pilot,2023.2.3,MacIntel,60.0024001,6159e8d7327e9932b6cc3333,6560176e4d91f764e2a42c74,657158154b34750c7e471c55,0.1092,0.1094,1,33,195,71,1,fourthree,,,,,,,,,,,,,,,,,,,,,,,,,,,,,,,,,,,,,,,,,,,,,,,,,,,,,,,,,,,,,,,,,,,,,,,,,,,,,,,,,,,,,,,,,,,,,,,,,,,,,,,,,,,,,,,,,,,,,,,,,,,,,,,,,,,,,,,
,,6159e8d7327e9932b6cc3333,2023-12-07_07h35.14.084,kallum_motion_pilot,2023.2.3,MacIntel,60.0024001,6159e8d7327e9932b6cc3333,6560176e4d91f764e2a42c74,657158154b34750c7e471c55,0.1096,0.1097,1,34,196,17,1,onethree,,,,,,,,,,,,,,,,,,,,,,,,,,,,,,,,,,,,,,,,,,,,,,,,,,,,,,,,,,,,,,,,,,,,,,,,,,,,,,,,,,,,,,,,,,,,,,,,,,,,,,,,,,,,,,,,,,,,,,,,,,,,,,,,,,,,,,,
,,6159e8d7327e9932b6cc3333,2023-12-07_07h35.14.084,kallum_motion_pilot,2023.2.3,MacIntel,60.0024001,6159e8d7327e9932b6cc3333,6560176e4d91f764e2a42c74,657158154b34750c7e471c55,0.1099,0.1099,1,35,197,116,1,sevenfive,,,,,,,,,,,,,,,,,,,,,,,,,,,,,,,,,,,,,,,,,,,,,,,,,,,,,,,,,,,,,,,,,,,,,,,,,,,,,,,,,,,,,,,,,,,,,,,,,,,,,,,,,,,,,,,,,,,,,,,,,,,,,,,,,,,,,,,
,,6159e8d7327e9932b6cc3333,2023-12-07_07h35.14.084,kallum_motion_pilot,2023.2.3,MacIntel,60.0024001,6159e8d7327e9932b6cc3333,6560176e4d91f764e2a42c74,657158154b34750c7e471c55,0.1101,0.1104,1,36,198,145,1,fiveseven,,,,,,,,,,,,,,,,,,,,,,,,,,,,,,,,,,,,,,,,,,,,,,,,,,,,,,,,,,,,,,,,,,,,,,,,,,,,,,,,,,,,,,,,,,,,,,,,,,,,,,,,,,,,,,,,,,,,,,,,,,,,,,,,,,,,,,,
,,6159e8d7327e9932b6cc3333,2023-12-07_07h35.14.084,kallum_motion_pilot,2023.2.3,MacIntel,60.0024001,6159e8d7327e9932b6cc3333,6560176e4d91f764e2a42c74,657158154b34750c7e471c55,0.1106,0.1107,1,37,199,97,1,fiveseven,,,,,,,,,,,,,,,,,,,,,,,,,,,,,,,,,,,,,,,,,,,,,,,,,,,,,,,,,,,,,,,,,,,,,,,,,,,,,,,,,,,,,,,,,,,,,,,,,,,,,,,,,,,,,,,,,,,,,,,,,,,,,,,,,,,,,,,
,,6159e8d7327e9932b6cc3333,2023-12-07_07h35.14.084,kallum_motion_pilot,2023.2.3,MacIntel,60.0024001,6159e8d7327e9932b6cc3333,6560176e4d91f764e2a42c74,657158154b34750c7e471c55,0.1109,0.111,1,38,200,137,1,fiveseven,,,,,,,,,,,,,,,,,,,,,,,,,,,,,,,,,,,,,,,,,,,,,,,,,,,,,,,,,,,,,,,,,,,,,,,,,,,,,,,,,,,,,,,,,,,,,,,,,,,,,,,,,,,,,,,,,,,,,,,,,,,,,,,,,,,,,,,
,,6159e8d7327e9932b6cc3333,2023-12-07_07h35.14.084,kallum_motion_pilot,2023.2.3,MacIntel,60.0024001,6159e8d7327e9932b6cc3333,6560176e4d91f764e2a42c74,657158154b34750c7e471c55,0.1111,0.1113,1,39,201,151,1,eightseven,,,,,,,,,,,,,,,,,,,,,,,,,,,,,,,,,,,,,,,,,,,,,,,,,,,,,,,,,,,,,,,,,,,,,,,,,,,,,,,,,,,,,,,,,,,,,,,,,,,,,,,,,,,,,,,,,,,,,,,,,,,,,,,,,,,,,,,
,,6159e8d7327e9932b6cc3333,2023-12-07_07h35.14.084,kallum_motion_pilot,2023.2.3,MacIntel,60.0024001,6159e8d7327e9932b6cc3333,6560176e4d91f764e2a42c74,657158154b34750c7e471c55,0.1114,0.1116,1,40,202,135,1,eightseven,,,,,,,,,,,,,,,,,,,,,,,,,,,,,,,,,,,,,,,,,,,,,,,,,,,,,,,,,,,,,,,,,,,,,,,,,,,,,,,,,,,,,,,,,,,,,,,,,,,,,,,,,,,,,,,,,,,,,,,,,,,,,,,,,,,,,,,
,,6159e8d7327e9932b6cc3333,2023-12-07_07h35.14.084,kallum_motion_pilot,2023.2.3,MacIntel,60.0024001,6159e8d7327e9932b6cc3333,6560176e4d91f764e2a42c74,657158154b34750c7e471c55,0.1118,0.1119,1,41,203,57,1,onethree,,,,,,,,,,,,,,,,,,,,,,,,,,,,,,,,,,,,,,,,,,,,,,,,,,,,,,,,,,,,,,,,,,,,,,,,,,,,,,,,,,,,,,,,,,,,,,,,,,,,,,,,,,,,,,,,,,,,,,,,,,,,,,,,,,,,,,,
,,6159e8d7327e9932b6cc3333,2023-12-07_07h35.14.084,kallum_motion_pilot,2023.2.3,MacIntel,60.0024001,6159e8d7327e9932b6cc3333,6560176e4d91f764e2a42c74,657158154b34750c7e471c55,0.1121,0.1123,1,42,204,88,1,fivesix,,,,,,,,,,,,,,,,,,,,,,,,,,,,,,,,,,,,,,,,,,,,,,,,,,,,,,,,,,,,,,,,,,,,,,,,,,,,,,,,,,,,,,,,,,,,,,,,,,,,,,,,,,,,,,,,,,,,,,,,,,,,,,,,,,,,,,,
,,6159e8d7327e9932b6cc3333,2023-12-07_07h35.14.084,kallum_motion_pilot,2023.2.3,MacIntel,60.0024001,6159e8d7327e9932b6cc3333,6560176e4d91f764e2a42c74,657158154b34750c7e471c55,0.1124,0.1126,1,43,205,155,1,sixeight,,,,,,,,,,,,,,,,,,,,,,,,,,,,,,,,,,,,,,,,,,,,,,,,,,,,,,,,,,,,,,,,,,,,,,,,,,,,,,,,,,,,,,,,,,,,,,,,,,,,,,,,,,,,,,,,,,,,,,,,,,,,,,,,,,,,,,,
,,6159e8d7327e9932b6cc3333,2023-12-07_07h35.14.084,kallum_motion_pilot,2023.2.3,MacIntel,60.0024001,6159e8d7327e9932b6cc3333,6560176e4d91f764e2a42c74,657158154b34750c7e471c55,0.1127,0.1131,1,44,206,127,1,eightseven,,,,,,,,,,,,,,,,,,,,,,,,,,,,,,,,,,,,,,,,,,,,,,,,,,,,,,,,,,,,,,,,,,,,,,,,,,,,,,,,,,,,,,,,,,,,,,,,,,,,,,,,,,,,,,,,,,,,,,,,,,,,,,,,,,,,,,,
,,6159e8d7327e9932b6cc3333,2023-12-07_07h35.14.084,kallum_motion_pilot,2023.2.3,MacIntel,60.0024001,6159e8d7327e9932b6cc3333,6560176e4d91f764e2a42c74,657158154b34750c7e471c55,0.1132,0.1134,1,45,207,73,1,onethree,,,,,,,,,,,,,,,,,,,,,,,,,,,,,,,,,,,,,,,,,,,,,,,,,,,,,,,,,,,,,,,,,,,,,,,,,,,,,,,,,,,,,,,,,,,,,,,,,,,,,,,,,,,,,,,,,,,,,,,,,,,,,,,,,,,,,,,
,,6159e8d7327e9932b6cc3333,2023-12-07_07h35.14.084,kallum_motion_pilot,2023.2.3,MacIntel,60.0024001,6159e8d7327e9932b6cc3333,6560176e4d91f764e2a42c74,657158154b34750c7e471c55,0.1135,0.1137,1,46,208,132,1,sevenfive,,,,,,,,,,,,,,,,,,,,,,,,,,,,,,,,,,,,,,,,,,,,,,,,,,,,,,,,,,,,,,,,,,,,,,,,,,,,,,,,,,,,,,,,,,,,,,,,,,,,,,,,,,,,,,,,,,,,,,,,,,,,,,,,,,,,,,,
,,6159e8d7327e9932b6cc3333,2023-12-07_07h35.14.084,kallum_motion_pilot,2023.2.3,MacIntel,60.0024001,6159e8d7327e9932b6cc3333,6560176e4d91f764e2a42c74,657158154b34750c7e471c55,0.1138,0.1139,1,47,209,87,1,eightseven,,,,,,,,,,,,,,,,,,,,,,,,,,,,,,,,,,,,,,,,,,,,,,,,,,,,,,,,,,,,,,,,,,,,,,,,,,,,,,,,,,,,,,,,,,,,,,,,,,,,,,,,,,,,,,,,,,,,,,,,,,,,,,,,,,,,,,,
,,6159e8d7327e9932b6cc3333,2023-12-07_07h35.14.084,kallum_motion_pilot,2023.2.3,MacIntel,60.0024001,6159e8d7327e9932b6cc3333,6560176e4d91f764e2a42c74,657158154b34750c7e471c55,0.1141,0.1143,1,48,210,21,1,threefour,,,,,,,,,,,,,,,,,,,,,,,,,,,,,,,,,,,,,,,,,,,,,,,,,,,,,,,,,,,,,,,,,,,,,,,,,,,,,,,,,,,,,,,,,,,,,,,,,,,,,,,,,,,,,,,,,,,,,,,,,,,,,,,,,,,,,,,
,,6159e8d7327e9932b6cc3333,2023-12-07_07h35.14.084,kallum_motion_pilot,2023.2.3,MacIntel,60.0024001,6159e8d7327e9932b6cc3333,6560176e4d91f764e2a42c74,657158154b34750c7e471c55,0.1145,0.1147,1,49,211,20,1,threeone,,,,,,,,,,,,,,,,,,,,,,,,,,,,,,,,,,,,,,,,,,,,,,,,,,,,,,,,,,,,,,,,,,,,,,,,,,,,,,,,,,,,,,,,,,,,,,,,,,,,,,,,,,,,,,,,,,,,,,,,,,,,,,,,,,,,,,,
,,6159e8d7327e9932b6cc3333,2023-12-07_07h35.14.084,kallum_motion_pilot,2023.2.3,MacIntel,60.0024001,6159e8d7327e9932b6cc3333,6560176e4d91f764e2a42c74,657158154b34750c7e471c55,0.115,0.1152,1,50,212,123,1,sixeight,,,,,,,,,,,,,,,,,,,,,,,,,,,,,,,,,,,,,,,,,,,,,,,,,,,,,,,,,,,,,,,,,,,,,,,,,,,,,,,,,,,,,,,,,,,,,,,,,,,,,,,,,,,,,,,,,,,,,,,,,,,,,,,,,,,,,,,
,,6159e8d7327e9932b6cc3333,2023-12-07_07h35.14.084,kallum_motion_pilot,2023.2.3,MacIntel,60.0024001,6159e8d7327e9932b6cc3333,6560176e4d91f764e2a42c74,657158154b34750c7e471c55,0.1157,0.1159,1,51,213,70,1,fourtwo,,,,,,,,,,,,,,,,,,,,,,,,,,,,,,,,,,,,,,,,,,,,,,,,,,,,,,,,,,,,,,,,,,,,,,,,,,,,,,,,,,,,,,,,,,,,,,,,,,,,,,,,,,,,,,,,,,,,,,,,,,,,,,,,,,,,,,,
,,6159e8d7327e9932b6cc3333,2023-12-07_07h35.14.084,kallum_motion_pilot,2023.2.3,MacIntel,60.0024001,6159e8d7327e9932b6cc3333,6560176e4d91f764e2a42c74,657158154b34750c7e471c55,0.1161,0.1163,1,52,214,108,1,sevenfive,,,,,,,,,,,,,,,,,,,,,,,,,,,,,,,,,,,,,,,,,,,,,,,,,,,,,,,,,,,,,,,,,,,,,,,,,,,,,,,,,,,,,,,,,,,,,,,,,,,,,,,,,,,,,,,,,,,,,,,,,,,,,,,,,,,,,,,
,,6159e8d7327e9932b6cc3333,2023-12-07_07h35.14.084,kallum_motion_pilot,2023.2.3,MacIntel,60.0024001,6159e8d7327e9932b6cc3333,6560176e4d91f764e2a42c74,657158154b34750c7e471c55,0.1166,0.1167,1,53,215,129,1,fiveseven,,,,,,,,,,,,,,,,,,,,,,,,,,,,,,,,,,,,,,,,,,,,,,,,,,,,,,,,,,,,,,,,,,,,,,,,,,,,,,,,,,,,,,,,,,,,,,,,,,,,,,,,,,,,,,,,,,,,,,,,,,,,,,,,,,,,,,,
,,6159e8d7327e9932b6cc3333,2023-12-07_07h35.14.084,kallum_motion_pilot,2023.2.3,MacIntel,60.0024001,6159e8d7327e9932b6cc3333,6560176e4d91f764e2a42c74,657158154b34750c7e471c55,0.1169,0.117,1,54,216,124,1,sevenfive,,,,,,,,,,,,,,,,,,,,,,,,,,,,,,,,,,,,,,,,,,,,,,,,,,,,,,,,,,,,,,,,,,,,,,,,,,,,,,,,,,,,,,,,,,,,,,,,,,,,,,,,,,,,,,,,,,,,,,,,,,,,,,,,,,,,,,,
,,6159e8d7327e9932b6cc3333,2023-12-07_07h35.14.084,kallum_motion_pilot,2023.2.3,MacIntel,60.0024001,6159e8d7327e9932b6cc3333,6560176e4d91f764e2a42c74,657158154b34750c7e471c55,0.1171,0.1172,1,55,217,15,1,fourthree,,,,,,,,,,,,,,,,,,,,,,,,,,,,,,,,,,,,,,,,,,,,,,,,,,,,,,,,,,,,,,,,,,,,,,,,,,,,,,,,,,,,,,,,,,,,,,,,,,,,,,,,,,,,,,,,,,,,,,,,,,,,,,,,,,,,,,,
,,6159e8d7327e9932b6cc3333,2023-12-07_07h35.14.084,kallum_motion_pilot,2023.2.3,MacIntel,60.0024001,6159e8d7327e9932b6cc3333,6560176e4d91f764e2a42c74,657158154b34750c7e471c55,0.1174,0.1175,1,56,218,159,1,eightseven,,,,,,,,,,,,,,,,,,,,,,,,,,,,,,,,,,,,,,,,,,,,,,,,,,,,,,,,,,,,,,,,,,,,,,,,,,,,,,,,,,,,,,,,,,,,,,,,,,,,,,,,,,,,,,,,,,,,,,,,,,,,,,,,,,,,,,,
,,6159e8d7327e9932b6cc3333,2023-12-07_07h35.14.084,kallum_motion_pilot,2023.2.3,MacIntel,60.0024001,6159e8d7327e9932b6cc3333,6560176e4d91f764e2a42c74,657158154b34750c7e471c55,0.1176,0.1178,1,57,219,46,1,fourtwo,,,,,,,,,,,,,,,,,,,,,,,,,,,,,,,,,,,,,,,,,,,,,,,,,,,,,,,,,,,,,,,,,,,,,,,,,,,,,,,,,,,,,,,,,,,,,,,,,,,,,,,,,,,,,,,,,,,,,,,,,,,,,,,,,,,,,,,
,,6159e8d7327e9932b6cc3333,2023-12-07_07h35.14.084,kallum_motion_pilot,2023.2.3,MacIntel,60.0024001,6159e8d7327e9932b6cc3333,6560176e4d91f764e2a42c74,657158154b34750c7e471c55,0.1181,0.1196,1,58,220,154,1,sixfive,,,,,,,,,,,,,,,,,,,,,,,,,,,,,,,,,,,,,,,,,,,,,,,,,,,,,,,,,,,,,,,,,,,,,,,,,,,,,,,,,,,,,,,,,,,,,,,,,,,,,,,,,,,,,,,,,,,,,,,,,,,,,,,,,,,,,,,
,,6159e8d7327e9932b6cc3333,2023-12-07_07h35.14.084,kallum_motion_pilot,2023.2.3,MacIntel,60.0024001,6159e8d7327e9932b6cc3333,6560176e4d91f764e2a42c74,657158154b34750c7e471c55,0.1199,0.1201,1,59,221,69,1,threefour,,,,,,,,,,,,,,,,,,,,,,,,,,,,,,,,,,,,,,,,,,,,,,,,,,,,,,,,,,,,,,,,,,,,,,,,,,,,,,,,,,,,,,,,,,,,,,,,,,,,,,,,,,,,,,,,,,,,,,,,,,,,,,,,,,,,,,,
,,6159e8d7327e9932b6cc3333,2023-12-07_07h35.14.084,kallum_motion_pilot,2023.2.3,MacIntel,60.0024001,6159e8d7327e9932b6cc3333,6560176e4d91f764e2a42c74,657158154b34750c7e471c55,0.1202,0.1204,1,60,222,51,1,twofour,,,,,,,,,,,,,,,,,,,,,,,,,,,,,,,,,,,,,,,,,,,,,,,,,,,,,,,,,,,,,,,,,,,,,,,,,,,,,,,,,,,,,,,,,,,,,,,,,,,,,,,,,,,,,,,,,,,,,,,,,,,,,,,,,,,,,,,
,,6159e8d7327e9932b6cc3333,2023-12-07_07h35.14.084,kallum_motion_pilot,2023.2.3,MacIntel,60.0024001,6159e8d7327e9932b6cc3333,6560176e4d91f764e2a42c74,657158154b34750c7e471c55,0.1205,0.1207,1,61,223,75,1,twofour,,,,,,,,,,,,,,,,,,,,,,,,,,,,,,,,,,,,,,,,,,,,,,,,,,,,,,,,,,,,,,,,,,,,,,,,,,,,,,,,,,,,,,,,,,,,,,,,,,,,,,,,,,,,,,,,,,,,,,,,,,,,,,,,,,,,,,,
,,6159e8d7327e9932b6cc3333,2023-12-07_07h35.14.084,kallum_motion_pilot,2023.2.3,MacIntel,60.0024001,6159e8d7327e9932b6cc3333,6560176e4d91f764e2a42c74,657158154b34750c7e471c55,0.121,0.1212,1,62,224,32,1,onetwo,,,,,,,,,,,,,,,,,,,,,,,,,,,,,,,,,,,,,,,,,,,,,,,,,,,,,,,,,,,,,,,,,,,,,,,,,,,,,,,,,,,,,,,,,,,,,,,,,,,,,,,,,,,,,,,,,,,,,,,,,,,,,,,,,,,,,,,
,,6159e8d7327e9932b6cc3333,2023-12-07_07h35.14.084,kallum_motion_pilot,2023.2.3,MacIntel,60.0024001,6159e8d7327e9932b6cc3333,6560176e4d91f764e2a42c74,657158154b34750c7e471c55,0.1213,0.1215,1,63,225,86,1,eightsix,,,,,,,,,,,,,,,,,,,,,,,,,,,,,,,,,,,,,,,,,,,,,,,,,,,,,,,,,,,,,,,,,,,,,,,,,,,,,,,,,,,,,,,,,,,,,,,,,,,,,,,,,,,,,,,,,,,,,,,,,,,,,,,,,,,,,,,
,,6159e8d7327e9932b6cc3333,2023-12-07_07h35.14.084,kallum_motion_pilot,2023.2.3,MacIntel,60.0024001,6159e8d7327e9932b6cc3333,6560176e4d91f764e2a42c74,657158154b34750c7e471c55,0.1216,0.1218,1,64,226,10,1,twoone,,,,,,,,,,,,,,,,,,,,,,,,,,,,,,,,,,,,,,,,,,,,,,,,,,,,,,,,,,,,,,,,,,,,,,,,,,,,,,,,,,,,,,,,,,,,,,,,,,,,,,,,,,,,,,,,,,,,,,,,,,,,,,,,,,,,,,,
,,6159e8d7327e9932b6cc3333,2023-12-07_07h35.14.084,kallum_motion_pilot,2023.2.3,MacIntel,60.0024001,6159e8d7327e9932b6cc3333,6560176e4d91f764e2a42c74,657158154b34750c7e471c55,0.1219,0.1221,1,65,227,84,1,sevenfive,,,,,,,,,,,,,,,,,,,,,,,,,,,,,,,,,,,,,,,,,,,,,,,,,,,,,,,,,,,,,,,,,,,,,,,,,,,,,,,,,,,,,,,,,,,,,,,,,,,,,,,,,,,,,,,,,,,,,,,,,,,,,,,,,,,,,,,
,,6159e8d7327e9932b6cc3333,2023-12-07_07h35.14.084,kallum_motion_pilot,2023.2.3,MacIntel,60.0024001,6159e8d7327e9932b6cc3333,6560176e4d91f764e2a42c74,657158154b34750c7e471c55,0.1222,0.1224,1,66,228,150,1,eightsix,,,,,,,,,,,,,,,,,,,,,,,,,,,,,,,,,,,,,,,,,,,,,,,,,,,,,,,,,,,,,,,,,,,,,,,,,,,,,,,,,,,,,,,,,,,,,,,,,,,,,,,,,,,,,,,,,,,,,,,,,,,,,,,,,,,,,,,
,,6159e8d7327e9932b6cc3333,2023-12-07_07h35.14.084,kallum_motion_pilot,2023.2.3,MacIntel,60.0024001,6159e8d7327e9932b6cc3333,6560176e4d91f764e2a42c74,657158154b34750c7e471c55,0.1225,0.1227,1,67,229,99,1,sixeight,,,,,,,,,,,,,,,,,,,,,,,,,,,,,,,,,,,,,,,,,,,,,,,,,,,,,,,,,,,,,,,,,,,,,,,,,,,,,,,,,,,,,,,,,,,,,,,,,,,,,,,,,,,,,,,,,,,,,,,,,,,,,,,,,,,,,,,
,,6159e8d7327e9932b6cc3333,2023-12-07_07h35.14.084,kallum_motion_pilot,2023.2.3,MacIntel,60.0024001,6159e8d7327e9932b6cc3333,6560176e4d91f764e2a42c74,657158154b34750c7e471c55,0.1228,0.123,1,68,230,125,1,seveneight,,,,,,,,,,,,,,,,,,,,,,,,,,,,,,,,,,,,,,,,,,,,,,,,,,,,,,,,,,,,,,,,,,,,,,,,,,,,,,,,,,,,,,,,,,,,,,,,,,,,,,,,,,,,,,,,,,,,,,,,,,,,,,,,,,,,,,,
,,6159e8d7327e9932b6cc3333,2023-12-07_07h35.14.084,kallum_motion_pilot,2023.2.3,MacIntel,60.0024001,6159e8d7327e9932b6cc3333,6560176e4d91f764e2a42c74,657158154b34750c7e471c55,0.1232,0.1233,1,69,231,2,1,twoone,,,,,,,,,,,,,,,,,,,,,,,,,,,,,,,,,,,,,,,,,,,,,,,,,,,,,,,,,,,,,,,,,,,,,,,,,,,,,,,,,,,,,,,,,,,,,,,,,,,,,,,,,,,,,,,,,,,,,,,,,,,,,,,,,,,,,,,
,,6159e8d7327e9932b6cc3333,2023-12-07_07h35.14.084,kallum_motion_pilot,2023.2.3,MacIntel,60.0024001,6159e8d7327e9932b6cc3333,6560176e4d91f764e2a42c74,657158154b34750c7e471c55,0.1235,0.1238,1,70,232,79,1,eightseven,,,,,,,,,,,,,,,,,,,,,,,,,,,,,,,,,,,,,,,,,,,,,,,,,,,,,,,,,,,,,,,,,,,,,,,,,,,,,,,,,,,,,,,,,,,,,,,,,,,,,,,,,,,,,,,,,,,,,,,,,,,,,,,,,,,,,,,
,,6159e8d7327e9932b6cc3333,2023-12-07_07h35.14.084,kallum_motion_pilot,2023.2.3,MacIntel,60.0024001,6159e8d7327e9932b6cc3333,6560176e4d91f764e2a42c74,657158154b34750c7e471c55,0.124,0.124,1,71,233,6,1,fourtwo,,,,,,,,,,,,,,,,,,,,,,,,,,,,,,,,,,,,,,,,,,,,,,,,,,,,,,,,,,,,,,,,,,,,,,,,,,,,,,,,,,,,,,,,,,,,,,,,,,,,,,,,,,,,,,,,,,,,,,,,,,,,,,,,,,,,,,,
,,6159e8d7327e9932b6cc3333,2023-12-07_07h35.14.084,kallum_motion_pilot,2023.2.3,MacIntel,60.0024001,6159e8d7327e9932b6cc3333,6560176e4d91f764e2a42c74,657158154b34750c7e471c55,0.1243,0.1244,1,72,234,122,1,sixfive,,,,,,,,,,,,,,,,,,,,,,,,,,,,,,,,,,,,,,,,,,,,,,,,,,,,,,,,,,,,,,,,,,,,,,,,,,,,,,,,,,,,,,,,,,,,,,,,,,,,,,,,,,,,,,,,,,,,,,,,,,,,,,,,,,,,,,,
,,6159e8d7327e9932b6cc3333,2023-12-07_07h35.14.084,kallum_motion_pilot,2023.2.3,MacIntel,60.0024001,6159e8d7327e9932b6cc3333,6560176e4d91f764e2a42c74,657158154b34750c7e471c55,0.1246,0.1246,1,73,235,27,1,twofour,,,,,,,,,,,,,,,,,,,,,,,,,,,,,,,,,,,,,,,,,,,,,,,,,,,,,,,,,,,,,,,,,,,,,,,,,,,,,,,,,,,,,,,,,,,,,,,,,,,,,,,,,,,,,,,,,,,,,,,,,,,,,,,,,,,,,,,
,,6159e8d7327e9932b6cc3333,2023-12-07_07h35.14.084,kallum_motion_pilot,2023.2.3,MacIntel,60.0024001,6159e8d7327e9932b6cc3333,6560176e4d91f764e2a42c74,657158154b34750c7e471c55,0.1248,0.125,1,74,236,67,1,twofour,,,,,,,,,,,,,,,,,,,,,,,,,,,,,,,,,,,,,,,,,,,,,,,,,,,,,,,,,,,,,,,,,,,,,,,,,,,,,,,,,,,,,,,,,,,,,,,,,,,,,,,,,,,,,,,,,,,,,,,,,,,,,,,,,,,,,,,
,,6159e8d7327e9932b6cc3333,2023-12-07_07h35.14.084,kallum_motion_pilot,2023.2.3,MacIntel,60.0024001,6159e8d7327e9932b6cc3333,6560176e4d91f764e2a42c74,657158154b34750c7e471c55,0.1251,0.1253,1,75,237,45,1,threefour,,,,,,,,,,,,,,,,,,,,,,,,,,,,,,,,,,,,,,,,,,,,,,,,,,,,,,,,,,,,,,,,,,,,,,,,,,,,,,,,,,,,,,,,,,,,,,,,,,,,,,,,,,,,,,,,,,,,,,,,,,,,,,,,,,,,,,,
,,6159e8d7327e9932b6cc3333,2023-12-07_07h35.14.084,kallum_motion_pilot,2023.2.3,MacIntel,60.0024001,6159e8d7327e9932b6cc3333,6560176e4d91f764e2a42c74,657158154b34750c7e471c55,0.1255,0.1256,1,76,238,158,1,eightsix,,,,,,,,,,,,,,,,,,,,,,,,,,,,,,,,,,,,,,,,,,,,,,,,,,,,,,,,,,,,,,,,,,,,,,,,,,,,,,,,,,,,,,,,,,,,,,,,,,,,,,,,,,,,,,,,,,,,,,,,,,,,,,,,,,,,,,,
,,6159e8d7327e9932b6cc3333,2023-12-07_07h35.14.084,kallum_motion_pilot,2023.2.3,MacIntel,60.0024001,6159e8d7327e9932b6cc3333,6560176e4d91f764e2a42c74,657158154b34750c7e471c55,0.1257,0.1259,1,77,239,106,1,sixfive,,,,,,,,,,,,,,,,,,,,,,,,,,,,,,,,,,,,,,,,,,,,,,,,,,,,,,,,,,,,,,,,,,,,,,,,,,,,,,,,,,,,,,,,,,,,,,,,,,,,,,,,,,,,,,,,,,,,,,,,,,,,,,,,,,,,,,,
,,6159e8d7327e9932b6cc3333,2023-12-07_07h35.14.084,kallum_motion_pilot,2023.2.3,MacIntel,60.0024001,6159e8d7327e9932b6cc3333,6560176e4d91f764e2a42c74,657158154b34750c7e471c55,0.126,0.1261,1,78,240,77,1,threefour,,,,,,,,,,,,,,,,,,,,,,,,,,,,,,,,,,,,,,,,,,,,,,,,,,,,,,,,,,,,,,,,,,,,,,,,,,,,,,,,,,,,,,,,,,,,,,,,,,,,,,,,,,,,,,,,,,,,,,,,,,,,,,,,,,,,,,,
,,6159e8d7327e9932b6cc3333,2023-12-07_07h35.14.084,kallum_motion_pilot,2023.2.3,MacIntel,60.0024001,6159e8d7327e9932b6cc3333,6560176e4d91f764e2a42c74,657158154b34750c7e471c55,0.1265,0.1266,1,79,241,49,1,onethree,,,,,,,,,,,,,,,,,,,,,,,,,,,,,,,,,,,,,,,,,,,,,,,,,,,,,,,,,,,,,,,,,,,,,,,,,,,,,,,,,,,,,,,,,,,,,,,,,,,,,,,,,,,,,,,,,,,,,,,,,,,,,,,,,,,,,,,
,,6159e8d7327e9932b6cc3333,2023-12-07_07h35.14.084,kallum_motion_pilot,2023.2.3,MacIntel,60.0024001,6159e8d7327e9932b6cc3333,6560176e4d91f764e2a42c74,657158154b34750c7e471c55,0.1268,0.1269,1,80,242,48,1,onetwo,,,,,,,,,,,,,,,,,,,,,,,,,,,,,,,,,,,,,,,,,,,,,,,,,,,,,,,,,,,,,,,,,,,,,,,,,,,,,,,,,,,,,,,,,,,,,,,,,,,,,,,,,,,,,,,,,,,,,,,,,,,,,,,,,,,,,,,
,,6159e8d7327e9932b6cc3333,2023-12-07_07h35.14.084,kallum_motion_pilot,2023.2.3,MacIntel,60.0024001,6159e8d7327e9932b6cc3333,6560176e4d91f764e2a42c74,657158154b34750c7e471c55,0.1271,0.1271,1,81,243,96,1,fivesix,,,,,,,,,,,,,,,,,,,,,,,,,,,,,,,,,,,,,,,,,,,,,,,,,,,,,,,,,,,,,,,,,,,,,,,,,,,,,,,,,,,,,,,,,,,,,,,,,,,,,,,,,,,,,,,,,,,,,,,,,,,,,,,,,,,,,,,
,,6159e8d7327e9932b6cc3333,2023-12-07_07h35.14.084,kallum_motion_pilot,2023.2.3,MacIntel,60.0024001,6159e8d7327e9932b6cc3333,6560176e4d91f764e2a42c74,657158154b34750c7e471c55,0.1274,0.1275,1,82,244,61,1,threefour,,,,,,,,,,,,,,,,,,,,,,,,,,,,,,,,,,,,,,,,,,,,,,,,,,,,,,,,,,,,,,,,,,,,,,,,,,,,,,,,,,,,,,,,,,,,,,,,,,,,,,,,,,,,,,,,,,,,,,,,,,,,,,,,,,,,,,,
,,6159e8d7327e9932b6cc3333,2023-12-07_07h35.14.084,kallum_motion_pilot,2023.2.3,MacIntel,60.0024001,6159e8d7327e9932b6cc3333,6560176e4d91f764e2a42c74,657158154b34750c7e471c55,0.1276,0.1277,1,83,245,146,1,sixfive,,,,,,,,,,,,,,,,,,,,,,,,,,,,,,,,,,,,,,,,,,,,,,,,,,,,,,,,,,,,,,,,,,,,,,,,,,,,,,,,,,,,,,,,,,,,,,,,,,,,,,,,,,,,,,,,,,,,,,,,,,,,,,,,,,,,,,,
,,6159e8d7327e9932b6cc3333,2023-12-07_07h35.14.084,kallum_motion_pilot,2023.2.3,MacIntel,60.0024001,6159e8d7327e9932b6cc3333,6560176e4d91f764e2a42c74,657158154b34750c7e471c55,0.1279,0.1281,1,84,246,120,1,fivesix,,,,,,,,,,,,,,,,,,,,,,,,,,,,,,,,,,,,,,,,,,,,,,,,,,,,,,,,,,,,,,,,,,,,,,,,,,,,,,,,,,,,,,,,,,,,,,,,,,,,,,,,,,,,,,,,,,,,,,,,,,,,,,,,,,,,,,,
,,6159e8d7327e9932b6cc3333,2023-12-07_07h35.14.084,kallum_motion_pilot,2023.2.3,MacIntel,60.0024001,6159e8d7327e9932b6cc3333,6560176e4d91f764e2a42c74,657158154b34750c7e471c55,0.1283,0.1284,1,85,247,89,1,fiveseven,,,,,,,,,,,,,,,,,,,,,,,,,,,,,,,,,,,,,,,,,,,,,,,,,,,,,,,,,,,,,,,,,,,,,,,,,,,,,,,,,,,,,,,,,,,,,,,,,,,,,,,,,,,,,,,,,,,,,,,,,,,,,,,,,,,,,,,
,,6159e8d7327e9932b6cc3333,2023-12-07_07h35.14.084,kallum_motion_pilot,2023.2.3,MacIntel,60.0024001,6159e8d7327e9932b6cc3333,6560176e4d91f764e2a42c74,657158154b34750c7e471c55,0.1285,0.1286,1,86,248,8,1,onetwo,,,,,,,,,,,,,,,,,,,,,,,,,,,,,,,,,,,,,,,,,,,,,,,,,,,,,,,,,,,,,,,,,,,,,,,,,,,,,,,,,,,,,,,,,,,,,,,,,,,,,,,,,,,,,,,,,,,,,,,,,,,,,,,,,,,,,,,
,,6159e8d7327e9932b6cc3333,2023-12-07_07h35.14.084,kallum_motion_pilot,2023.2.3,MacIntel,60.0024001,6159e8d7327e9932b6cc3333,6560176e4d91f764e2a42c74,657158154b34750c7e471c55,0.1288,0.1292,1,87,249,31,1,fourthree,,,,,,,,,,,,,,,,,,,,,,,,,,,,,,,,,,,,,,,,,,,,,,,,,,,,,,,,,,,,,,,,,,,,,,,,,,,,,,,,,,,,,,,,,,,,,,,,,,,,,,,,,,,,,,,,,,,,,,,,,,,,,,,,,,,,,,,
,,6159e8d7327e9932b6cc3333,2023-12-07_07h35.14.084,kallum_motion_pilot,2023.2.3,MacIntel,60.0024001,6159e8d7327e9932b6cc3333,6560176e4d91f764e2a42c74,657158154b34750c7e471c55,0.1293,0.1295,1,88,250,90,1,sixfive,,,,,,,,,,,,,,,,,,,,,,,,,,,,,,,,,,,,,,,,,,,,,,,,,,,,,,,,,,,,,,,,,,,,,,,,,,,,,,,,,,,,,,,,,,,,,,,,,,,,,,,,,,,,,,,,,,,,,,,,,,,,,,,,,,,,,,,
,,6159e8d7327e9932b6cc3333,2023-12-07_07h35.14.084,kallum_motion_pilot,2023.2.3,MacIntel,60.0024001,6159e8d7327e9932b6cc3333,6560176e4d91f764e2a42c74,657158154b34750c7e471c55,0.1297,0.1298,1,89,251,118,1,eightsix,,,,,,,,,,,,,,,,,,,,,,,,,,,,,,,,,,,,,,,,,,,,,,,,,,,,,,,,,,,,,,,,,,,,,,,,,,,,,,,,,,,,,,,,,,,,,,,,,,,,,,,,,,,,,,,,,,,,,,,,,,,,,,,,,,,,,,,
,,6159e8d7327e9932b6cc3333,2023-12-07_07h35.14.084,kallum_motion_pilot,2023.2.3,MacIntel,60.0024001,6159e8d7327e9932b6cc3333,6560176e4d91f764e2a42c74,657158154b34750c7e471c55,0.13,0.1301,1,90,252,24,1,onetwo,,,,,,,,,,,,,,,,,,,,,,,,,,,,,,,,,,,,,,,,,,,,,,,,,,,,,,,,,,,,,,,,,,,,,,,,,,,,,,,,,,,,,,,,,,,,,,,,,,,,,,,,,,,,,,,,,,,,,,,,,,,,,,,,,,,,,,,
,,6159e8d7327e9932b6cc3333,2023-12-07_07h35.14.084,kallum_motion_pilot,2023.2.3,MacIntel,60.0024001,6159e8d7327e9932b6cc3333,6560176e4d91f764e2a42c74,657158154b34750c7e471c55,0.1302,0.1304,1,91,253,130,1,sixfive,,,,,,,,,,,,,,,,,,,,,,,,,,,,,,,,,,,,,,,,,,,,,,,,,,,,,,,,,,,,,,,,,,,,,,,,,,,,,,,,,,,,,,,,,,,,,,,,,,,,,,,,,,,,,,,,,,,,,,,,,,,,,,,,,,,,,,,
,,6159e8d7327e9932b6cc3333,2023-12-07_07h35.14.084,kallum_motion_pilot,2023.2.3,MacIntel,60.0024001,6159e8d7327e9932b6cc3333,6560176e4d91f764e2a42c74,657158154b34750c7e471c55,0.1305,0.1306,1,92,254,85,1,seveneight,,,,,,,,,,,,,,,,,,,,,,,,,,,,,,,,,,,,,,,,,,,,,,,,,,,,,,,,,,,,,,,,,,,,,,,,,,,,,,,,,,,,,,,,,,,,,,,,,,,,,,,,,,,,,,,,,,,,,,,,,,,,,,,,,,,,,,,
,,6159e8d7327e9932b6cc3333,2023-12-07_07h35.14.084,kallum_motion_pilot,2023.2.3,MacIntel,60.0024001,6159e8d7327e9932b6cc3333,6560176e4d91f764e2a42c74,657158154b34750c7e471c55,0.1313,0.1319,1,93,255,23,1,fourthree,,,,,,,,,,,,,,,,,,,,,,,,,,,,,,,,,,,,,,,,,,,,,,,,,,,,,,,,,,,,,,,,,,,,,,,,,,,,,,,,,,,,,,,,,,,,,,,,,,,,,,,,,,,,,,,,,,,,,,,,,,,,,,,,,,,,,,,
,,6159e8d7327e9932b6cc3333,2023-12-07_07h35.14.084,kallum_motion_pilot,2023.2.3,MacIntel,60.0024001,6159e8d7327e9932b6cc3333,6560176e4d91f764e2a42c74,657158154b34750c7e471c55,0.1324,0.1325,1,94,256,104,1,fivesix,,,,,,,,,,,,,,,,,,,,,,,,,,,,,,,,,,,,,,,,,,,,,,,,,,,,,,,,,,,,,,,,,,,,,,,,,,,,,,,,,,,,,,,,,,,,,,,,,,,,,,,,,,,,,,,,,,,,,,,,,,,,,,,,,,,,,,,
,,6159e8d7327e9932b6cc3333,2023-12-07_07h35.14.084,kallum_motion_pilot,2023.2.3,MacIntel,60.0024001,6159e8d7327e9932b6cc3333,6560176e4d91f764e2a42c74,657158154b34750c7e471c55,0.1328,0.133,1,95,257,105,1,fiveseven,,,,,,,,,,,,,,,,,,,,,,,,,,,,,,,,,,,,,,,,,,,,,,,,,,,,,,,,,,,,,,,,,,,,,,,,,,,,,,,,,,,,,,,,,,,,,,,,,,,,,,,,,,,,,,,,,,,,,,,,,,,,,,,,,,,,,,,
,,6159e8d7327e9932b6cc3333,2023-12-07_07h35.14.084,kallum_motion_pilot,2023.2.3,MacIntel,60.0024001,6159e8d7327e9932b6cc3333,6560176e4d91f764e2a42c74,657158154b34750c7e471c55,0.1332,0.1334,1,96,258,35,1,twofour,,,,,,,,,,,,,,,,,,,,,,,,,,,,,,,,,,,,,,,,,,,,,,,,,,,,,,,,,,,,,,,,,,,,,,,,,,,,,,,,,,,,,,,,,,,,,,,,,,,,,,,,,,,,,,,,,,,,,,,,,,,,,,,,,,,,,,,
,,6159e8d7327e9932b6cc3333,2023-12-07_07h35.14.084,kallum_motion_pilot,2023.2.3,MacIntel,60.0024001,6159e8d7327e9932b6cc3333,6560176e4d91f764e2a42c74,657158154b34750c7e471c55,0.1335,0.1336,1,97,259,83,1,sixeight,,,,,,,,,,,,,,,,,,,,,,,,,,,,,,,,,,,,,,,,,,,,,,,,,,,,,,,,,,,,,,,,,,,,,,,,,,,,,,,,,,,,,,,,,,,,,,,,,,,,,,,,,,,,,,,,,,,,,,,,,,,,,,,,,,,,,,,
,,6159e8d7327e9932b6cc3333,2023-12-07_07h35.14.084,kallum_motion_pilot,2023.2.3,MacIntel,60.0024001,6159e8d7327e9932b6cc3333,6560176e4d91f764e2a42c74,657158154b34750c7e471c55,0.1338,0.1339,1,98,260,14,1,fourtwo,,,,,,,,,,,,,,,,,,,,,,,,,,,,,,,,,,,,,,,,,,,,,,,,,,,,,,,,,,,,,,,,,,,,,,,,,,,,,,,,,,,,,,,,,,,,,,,,,,,,,,,,,,,,,,,,,,,,,,,,,,,,,,,,,,,,,,,
,,6159e8d7327e9932b6cc3333,2023-12-07_07h35.14.084,kallum_motion_pilot,2023.2.3,MacIntel,60.0024001,6159e8d7327e9932b6cc3333,6560176e4d91f764e2a42c74,657158154b34750c7e471c55,0.1344,0.1346,1,99,261,110,1,eightsix,,,,,,,,,,,,,,,,,,,,,,,,,,,,,,,,,,,,,,,,,,,,,,,,,,,,,,,,,,,,,,,,,,,,,,,,,,,,,,,,,,,,,,,,,,,,,,,,,,,,,,,,,,,,,,,,,,,,,,,,,,,,,,,,,,,,,,,
,,6159e8d7327e9932b6cc3333,2023-12-07_07h35.14.084,kallum_motion_pilot,2023.2.3,MacIntel,60.0024001,6159e8d7327e9932b6cc3333,6560176e4d91f764e2a42c74,657158154b34750c7e471c55,0.1347,0.1349,1,100,262,126,1,eightsix,,,,,,,,,,,,,,,,,,,,,,,,,,,,,,,,,,,,,,,,,,,,,,,,,,,,,,,,,,,,,,,,,,,,,,,,,,,,,,,,,,,,,,,,,,,,,,,,,,,,,,,,,,,,,,,,,,,,,,,,,,,,,,,,,,,,,,,
,,6159e8d7327e9932b6cc3333,2023-12-07_07h35.14.084,kallum_motion_pilot,2023.2.3,MacIntel,60.0024001,6159e8d7327e9932b6cc3333,6560176e4d91f764e2a42c74,657158154b34750c7e471c55,0.1351,0.1352,1,101,263,136,1,fivesix,,,,,,,,,,,,,,,,,,,,,,,,,,,,,,,,,,,,,,,,,,,,,,,,,,,,,,,,,,,,,,,,,,,,,,,,,,,,,,,,,,,,,,,,,,,,,,,,,,,,,,,,,,,,,,,,,,,,,,,,,,,,,,,,,,,,,,,
,,6159e8d7327e9932b6cc3333,2023-12-07_07h35.14.084,kallum_motion_pilot,2023.2.3,MacIntel,60.0024001,6159e8d7327e9932b6cc3333,6560176e4d91f764e2a42c74,657158154b34750c7e471c55,0.1353,0.1356,1,102,264,37,1,threefour,,,,,,,,,,,,,,,,,,,,,,,,,,,,,,,,,,,,,,,,,,,,,,,,,,,,,,,,,,,,,,,,,,,,,,,,,,,,,,,,,,,,,,,,,,,,,,,,,,,,,,,,,,,,,,,,,,,,,,,,,,,,,,,,,,,,,,,
,,6159e8d7327e9932b6cc3333,2023-12-07_07h35.14.084,kallum_motion_pilot,2023.2.3,MacIntel,60.0024001,6159e8d7327e9932b6cc3333,6560176e4d91f764e2a42c74,657158154b34750c7e471c55,0.1358,0.1362,1,103,265,56,1,onetwo,,,,,,,,,,,,,,,,,,,,,,,,,,,,,,,,,,,,,,,,,,,,,,,,,,,,,,,,,,,,,,,,,,,,,,,,,,,,,,,,,,,,,,,,,,,,,,,,,,,,,,,,,,,,,,,,,,,,,,,,,,,,,,,,,,,,,,,
,,6159e8d7327e9932b6cc3333,2023-12-07_07h35.14.084,kallum_motion_pilot,2023.2.3,MacIntel,60.0024001,6159e8d7327e9932b6cc3333,6560176e4d91f764e2a42c74,657158154b34750c7e471c55,0.1365,0.1367,1,104,266,121,1,fiveseven,,,,,,,,,,,,,,,,,,,,,,,,,,,,,,,,,,,,,,,,,,,,,,,,,,,,,,,,,,,,,,,,,,,,,,,,,,,,,,,,,,,,,,,,,,,,,,,,,,,,,,,,,,,,,,,,,,,,,,,,,,,,,,,,,,,,,,,
,,6159e8d7327e9932b6cc3333,2023-12-07_07h35.14.084,kallum_motion_pilot,2023.2.3,MacIntel,60.0024001,6159e8d7327e9932b6cc3333,6560176e4d91f764e2a42c74,657158154b34750c7e471c55,0.137,0.1372,1,105,267,5,1,threefour,,,,,,,,,,,,,,,,,,,,,,,,,,,,,,,,,,,,,,,,,,,,,,,,,,,,,,,,,,,,,,,,,,,,,,,,,,,,,,,,,,,,,,,,,,,,,,,,,,,,,,,,,,,,,,,,,,,,,,,,,,,,,,,,,,,,,,,
,,6159e8d7327e9932b6cc3333,2023-12-07_07h35.14.084,kallum_motion_pilot,2023.2.3,MacIntel,60.0024001,6159e8d7327e9932b6cc3333,6560176e4d91f764e2a42c74,657158154b34750c7e471c55,0.1373,0.1375,1,106,268,18,1,twoone,,,,,,,,,,,,,,,,,,,,,,,,,,,,,,,,,,,,,,,,,,,,,,,,,,,,,,,,,,,,,,,,,,,,,,,,,,,,,,,,,,,,,,,,,,,,,,,,,,,,,,,,,,,,,,,,,,,,,,,,,,,,,,,,,,,,,,,
,,6159e8d7327e9932b6cc3333,2023-12-07_07h35.14.084,kallum_motion_pilot,2023.2.3,MacIntel,60.0024001,6159e8d7327e9932b6cc3333,6560176e4d91f764e2a42c74,657158154b34750c7e471c55,0.1376,0.1378,1,107,269,112,1,fivesix,,,,,,,,,,,,,,,,,,,,,,,,,,,,,,,,,,,,,,,,,,,,,,,,,,,,,,,,,,,,,,,,,,,,,,,,,,,,,,,,,,,,,,,,,,,,,,,,,,,,,,,,,,,,,,,,,,,,,,,,,,,,,,,,,,,,,,,
,,6159e8d7327e9932b6cc3333,2023-12-07_07h35.14.084,kallum_motion_pilot,2023.2.3,MacIntel,60.0024001,6159e8d7327e9932b6cc3333,6560176e4d91f764e2a42c74,657158154b34750c7e471c55,0.1379,0.138,1,108,270,80,1,fivesix,,,,,,,,,,,,,,,,,,,,,,,,,,,,,,,,,,,,,,,,,,,,,,,,,,,,,,,,,,,,,,,,,,,,,,,,,,,,,,,,,,,,,,,,,,,,,,,,,,,,,,,,,,,,,,,,,,,,,,,,,,,,,,,,,,,,,,,
,,6159e8d7327e9932b6cc3333,2023-12-07_07h35.14.084,kallum_motion_pilot,2023.2.3,MacIntel,60.0024001,6159e8d7327e9932b6cc3333,6560176e4d91f764e2a42c74,657158154b34750c7e471c55,0.1381,0.1383,1,109,271,76,1,threeone,,,,,,,,,,,,,,,,,,,,,,,,,,,,,,,,,,,,,,,,,,,,,,,,,,,,,,,,,,,,,,,,,,,,,,,,,,,,,,,,,,,,,,,,,,,,,,,,,,,,,,,,,,,,,,,,,,,,,,,,,,,,,,,,,,,,,,,
,,6159e8d7327e9932b6cc3333,2023-12-07_07h35.14.084,kallum_motion_pilot,2023.2.3,MacIntel,60.0024001,6159e8d7327e9932b6cc3333,6560176e4d91f764e2a42c74,657158154b34750c7e471c55,0.1384,0.1386,1,110,272,1,1,onethree,,,,,,,,,,,,,,,,,,,,,,,,,,,,,,,,,,,,,,,,,,,,,,,,,,,,,,,,,,,,,,,,,,,,,,,,,,,,,,,,,,,,,,,,,,,,,,,,,,,,,,,,,,,,,,,,,,,,,,,,,,,,,,,,,,,,,,,
,,6159e8d7327e9932b6cc3333,2023-12-07_07h35.14.084,kallum_motion_pilot,2023.2.3,MacIntel,60.0024001,6159e8d7327e9932b6cc3333,6560176e4d91f764e2a42c74,657158154b34750c7e471c55,0.1387,0.1388,1,111,273,161,1,fiveseven,,,,,,,,,,,,,,,,,,,,,,,,,,,,,,,,,,,,,,,,,,,,,,,,,,,,,,,,,,,,,,,,,,,,,,,,,,,,,,,,,,,,,,,,,,,,,,,,,,,,,,,,,,,,,,,,,,,,,,,,,,,,,,,,,,,,,,,
,,6159e8d7327e9932b6cc3333,2023-12-07_07h35.14.084,kallum_motion_pilot,2023.2.3,MacIntel,60.0024001,6159e8d7327e9932b6cc3333,6560176e4d91f764e2a42c74,657158154b34750c7e471c55,0.139,0.1391,1,112,274,55,1,fourthree,,,,,,,,,,,,,,,,,,,,,,,,,,,,,,,,,,,,,,,,,,,,,,,,,,,,,,,,,,,,,,,,,,,,,,,,,,,,,,,,,,,,,,,,,,,,,,,,,,,,,,,,,,,,,,,,,,,,,,,,,,,,,,,,,,,,,,,
,,6159e8d7327e9932b6cc3333,2023-12-07_07h35.14.084,kallum_motion_pilot,2023.2.3,MacIntel,60.0024001,6159e8d7327e9932b6cc3333,6560176e4d91f764e2a42c74,657158154b34750c7e471c55,0.1392,0.1394,1,113,275,81,1,fiveseven,,,,,,,,,,,,,,,,,,,,,,,,,,,,,,,,,,,,,,,,,,,,,,,,,,,,,,,,,,,,,,,,,,,,,,,,,,,,,,,,,,,,,,,,,,,,,,,,,,,,,,,,,,,,,,,,,,,,,,,,,,,,,,,,,,,,,,,
,,6159e8d7327e9932b6cc3333,2023-12-07_07h35.14.084,kallum_motion_pilot,2023.2.3,MacIntel,60.0024001,6159e8d7327e9932b6cc3333,6560176e4d91f764e2a42c74,657158154b34750c7e471c55,0.1398,0.1399,1,114,276,131,1,sixeight,,,,,,,,,,,,,,,,,,,,,,,,,,,,,,,,,,,,,,,,,,,,,,,,,,,,,,,,,,,,,,,,,,,,,,,,,,,,,,,,,,,,,,,,,,,,,,,,,,,,,,,,,,,,,,,,,,,,,,,,,,,,,,,,,,,,,,,
,,6159e8d7327e9932b6cc3333,2023-12-07_07h35.14.084,kallum_motion_pilot,2023.2.3,MacIntel,60.0024001,6159e8d7327e9932b6cc3333,6560176e4d91f764e2a42c74,657158154b34750c7e471c55,0.1402,0.1403,1,115,277,141,1,seveneight,,,,,,,,,,,,,,,,,,,,,,,,,,,,,,,,,,,,,,,,,,,,,,,,,,,,,,,,,,,,,,,,,,,,,,,,,,,,,,,,,,,,,,,,,,,,,,,,,,,,,,,,,,,,,,,,,,,,,,,,,,,,,,,,,,,,,,,
