startup.started,startup.stopped,Prolific ID*,date,expName,psychopyVersion,OS,frameRate,participant,study_id,session,stimpositions.started,stimpositions.stopped,hardcoded_stimulus_positions.thisRepN,hardcoded_stimulus_positions.thisTrialN,hardcoded_stimulus_positions.thisN,hardcoded_stimulus_positions.thisIndex,hardcoded_stimulus_positions.ran,StimulusPos,stimorientation.started,stimorientation.stopped,prac_stimorientation_import_loop.thisRepN,prac_stimorientation_import_loop.thisTrialN,prac_stimorientation_import_loop.thisN,prac_stimorientation_import_loop.thisIndex,prac_stimorientation_import_loop.ran,Stimorientation,welcome_instr.started,welcome_instr.stopped,key_resp.keys,key_resp.rt,key_resp.duration,response_steppedout_1.started,response_steppedout_1.stopped,key_resp_20.keys,key_resp_20.rt,key_resp_20.duration,response_steppedout_2.started,response_steppedout_2.stopped,key_resp_19.keys,key_resp_19.rt,key_resp_19.duration,stim_response_instr.started,stim_response_instr.stopped,key_resp_15.keys,key_resp_15.rt,key_resp_15.duration,direction_instr_2.started,direction_instr_2.stopped,key_resp_9.keys,key_resp_9.rt,key_resp_9.duration,instr_prac.started,instr_prac.stopped,key_resp_10.keys,key_resp_10.rt,key_resp_10.duration,Stim1_display_prac.started,Stim1_display_prac.stopped,Ecc,Circle1_ori,Circle2_ori,response_prac.started,similarity,response_time,response_prac.stopped,mouse_5.x,mouse_5.y,mouse_5.leftButton,mouse_5.midButton,mouse_5.rightButton,mouse_5.clicked_name,responseprac_feedback.started,responseprac_feedback.stopped,summary2_prac.started,summary2_prac.stopped,mouse_6.x,mouse_6.y,mouse_6.leftButton,mouse_6.midButton,mouse_6.rightButton,mouse_6.clicked_name,duringprac.thisRepN,duringprac.thisTrialN,duringprac.thisN,duringprac.thisIndex,duringprac.ran,begin.started,begin.stopped,key_resp_22.keys,key_resp_22.rt,key_resp_22.duration,Stim1_display.started,Stim1_display.stopped,circle1_ori,circle2_ori,blank.started,blank.stopped,response.started,response.stopped,mouse.x,mouse.y,mouse.leftButton,mouse.midButton,mouse.rightButton,mouse.clicked_name,response_2.started,response_2.stopped,mouse_2.x,mouse_2.y,mouse_2.leftButton,mouse_2.midButton,mouse_2.rightButton,mouse_2.clicked_name,special_trial.started,special_trial.stopped,catch_1.started,catch_1.stopped,mouse_3.x,mouse_3.y,mouse_3.leftButton,mouse_3.midButton,mouse_3.rightButton,catchresponse,catchnumber,response_time_catch,Catch,response_sum.started,response_sum.stopped,mouse_11.x,mouse_11.y,mouse_11.leftButton,mouse_11.midButton,mouse_11.rightButton,main_trial.thisRepN,main_trial.thisTrialN,main_trial.thisN,main_trial.thisIndex,main_trial.ran,Orientationtrialno,xcircle1_ori,xcircle2_ori,flip_presentation_sequence_for_double_pass.started,flip_presentation_sequence_for_double_pass.stopped,double_pass.thisRepN,double_pass.thisTrialN,double_pass.thisN,double_pass.thisIndex,double_pass.ran,goodbye.started,goodbye.stopped,key_resp_3.keys,key_resp_3.rt,key_resp_3.duration
0.0003,0.0003,64ae13e7175228ade1bbaeb6,2023-12-06_23h57.10.229,kallum_motion_pilot,2023.2.3,Win32,163.9344262,64ae13e7175228ade1bbaeb6,6560176e4d91f764e2a42c74,65715d07deac88baee067799,,,,,,,,,,,,,,,,,,,,,,,,,,,,,,,,,,,,,,,,,,,,,,,,,,,,,,,,,,,,,,,,,,,,,,,,,,,,,,,,,,,,,,,,,,,,,,,,,,,,,,,,,,,,,,,,,,,,,,,,,,,,,,,,,,,,,,,,,,,,,,,
,,64ae13e7175228ade1bbaeb6,2023-12-06_23h57.10.229,kallum_motion_pilot,2023.2.3,Win32,163.9344262,64ae13e7175228ade1bbaeb6,6560176e4d91f764e2a42c74,65715d07deac88baee067799,0.018,0.0181,0,0,0,37,1,threefour,,,,,,,,,,,,,,,,,,,,,,,,,,,,,,,,,,,,,,,,,,,,,,,,,,,,,,,,,,,,,,,,,,,,,,,,,,,,,,,,,,,,,,,,,,,,,,,,,,,,,,,,,,,,,,,,,,,,,,,,,,,,,,,,,,,,,,,
,,64ae13e7175228ade1bbaeb6,2023-12-06_23h57.10.229,kallum_motion_pilot,2023.2.3,Win32,163.9344262,64ae13e7175228ade1bbaeb6,6560176e4d91f764e2a42c74,65715d07deac88baee067799,0.0182,0.0183,0,1,1,34,1,twoone,,,,,,,,,,,,,,,,,,,,,,,,,,,,,,,,,,,,,,,,,,,,,,,,,,,,,,,,,,,,,,,,,,,,,,,,,,,,,,,,,,,,,,,,,,,,,,,,,,,,,,,,,,,,,,,,,,,,,,,,,,,,,,,,,,,,,,,
,,64ae13e7175228ade1bbaeb6,2023-12-06_23h57.10.229,kallum_motion_pilot,2023.2.3,Win32,163.9344262,64ae13e7175228ade1bbaeb6,6560176e4d91f764e2a42c74,65715d07deac88baee067799,0.0183,0.0183,0,2,2,105,1,fiveseven,,,,,,,,,,,,,,,,,,,,,,,,,,,,,,,,,,,,,,,,,,,,,,,,,,,,,,,,,,,,,,,,,,,,,,,,,,,,,,,,,,,,,,,,,,,,,,,,,,,,,,,,,,,,,,,,,,,,,,,,,,,,,,,,,,,,,,,
,,64ae13e7175228ade1bbaeb6,2023-12-06_23h57.10.229,kallum_motion_pilot,2023.2.3,Win32,163.9344262,64ae13e7175228ade1bbaeb6,6560176e4d91f764e2a42c74,65715d07deac88baee067799,0.0185,0.0185,0,3,3,148,1,sevenfive,,,,,,,,,,,,,,,,,,,,,,,,,,,,,,,,,,,,,,,,,,,,,,,,,,,,,,,,,,,,,,,,,,,,,,,,,,,,,,,,,,,,,,,,,,,,,,,,,,,,,,,,,,,,,,,,,,,,,,,,,,,,,,,,,,,,,,,
,,64ae13e7175228ade1bbaeb6,2023-12-06_23h57.10.229,kallum_motion_pilot,2023.2.3,Win32,163.9344262,64ae13e7175228ade1bbaeb6,6560176e4d91f764e2a42c74,65715d07deac88baee067799,0.0186,0.0186,0,4,4,6,1,fourtwo,,,,,,,,,,,,,,,,,,,,,,,,,,,,,,,,,,,,,,,,,,,,,,,,,,,,,,,,,,,,,,,,,,,,,,,,,,,,,,,,,,,,,,,,,,,,,,,,,,,,,,,,,,,,,,,,,,,,,,,,,,,,,,,,,,,,,,,
,,64ae13e7175228ade1bbaeb6,2023-12-06_23h57.10.229,kallum_motion_pilot,2023.2.3,Win32,163.9344262,64ae13e7175228ade1bbaeb6,6560176e4d91f764e2a42c74,65715d07deac88baee067799,0.0186,0.0186,0,5,5,134,1,eightsix,,,,,,,,,,,,,,,,,,,,,,,,,,,,,,,,,,,,,,,,,,,,,,,,,,,,,,,,,,,,,,,,,,,,,,,,,,,,,,,,,,,,,,,,,,,,,,,,,,,,,,,,,,,,,,,,,,,,,,,,,,,,,,,,,,,,,,,
,,64ae13e7175228ade1bbaeb6,2023-12-06_23h57.10.229,kallum_motion_pilot,2023.2.3,Win32,163.9344262,64ae13e7175228ade1bbaeb6,6560176e4d91f764e2a42c74,65715d07deac88baee067799,0.0187,0.0187,0,6,6,131,1,sixeight,,,,,,,,,,,,,,,,,,,,,,,,,,,,,,,,,,,,,,,,,,,,,,,,,,,,,,,,,,,,,,,,,,,,,,,,,,,,,,,,,,,,,,,,,,,,,,,,,,,,,,,,,,,,,,,,,,,,,,,,,,,,,,,,,,,,,,,
,,64ae13e7175228ade1bbaeb6,2023-12-06_23h57.10.229,kallum_motion_pilot,2023.2.3,Win32,163.9344262,64ae13e7175228ade1bbaeb6,6560176e4d91f764e2a42c74,65715d07deac88baee067799,0.0188,0.0188,0,7,7,79,1,eightseven,,,,,,,,,,,,,,,,,,,,,,,,,,,,,,,,,,,,,,,,,,,,,,,,,,,,,,,,,,,,,,,,,,,,,,,,,,,,,,,,,,,,,,,,,,,,,,,,,,,,,,,,,,,,,,,,,,,,,,,,,,,,,,,,,,,,,,,
,,64ae13e7175228ade1bbaeb6,2023-12-06_23h57.10.229,kallum_motion_pilot,2023.2.3,Win32,163.9344262,64ae13e7175228ade1bbaeb6,6560176e4d91f764e2a42c74,65715d07deac88baee067799,0.0189,0.0189,0,8,8,40,1,onetwo,,,,,,,,,,,,,,,,,,,,,,,,,,,,,,,,,,,,,,,,,,,,,,,,,,,,,,,,,,,,,,,,,,,,,,,,,,,,,,,,,,,,,,,,,,,,,,,,,,,,,,,,,,,,,,,,,,,,,,,,,,,,,,,,,,,,,,,
,,64ae13e7175228ade1bbaeb6,2023-12-06_23h57.10.229,kallum_motion_pilot,2023.2.3,Win32,163.9344262,64ae13e7175228ade1bbaeb6,6560176e4d91f764e2a42c74,65715d07deac88baee067799,0.0191,0.0191,0,9,9,61,1,threefour,,,,,,,,,,,,,,,,,,,,,,,,,,,,,,,,,,,,,,,,,,,,,,,,,,,,,,,,,,,,,,,,,,,,,,,,,,,,,,,,,,,,,,,,,,,,,,,,,,,,,,,,,,,,,,,,,,,,,,,,,,,,,,,,,,,,,,,
,,64ae13e7175228ade1bbaeb6,2023-12-06_23h57.10.229,kallum_motion_pilot,2023.2.3,Win32,163.9344262,64ae13e7175228ade1bbaeb6,6560176e4d91f764e2a42c74,65715d07deac88baee067799,0.0191,0.0191,0,10,10,59,1,twofour,,,,,,,,,,,,,,,,,,,,,,,,,,,,,,,,,,,,,,,,,,,,,,,,,,,,,,,,,,,,,,,,,,,,,,,,,,,,,,,,,,,,,,,,,,,,,,,,,,,,,,,,,,,,,,,,,,,,,,,,,,,,,,,,,,,,,,,
,,64ae13e7175228ade1bbaeb6,2023-12-06_23h57.10.229,kallum_motion_pilot,2023.2.3,Win32,163.9344262,64ae13e7175228ade1bbaeb6,6560176e4d91f764e2a42c74,65715d07deac88baee067799,0.0192,0.0192,0,11,11,111,1,eightseven,,,,,,,,,,,,,,,,,,,,,,,,,,,,,,,,,,,,,,,,,,,,,,,,,,,,,,,,,,,,,,,,,,,,,,,,,,,,,,,,,,,,,,,,,,,,,,,,,,,,,,,,,,,,,,,,,,,,,,,,,,,,,,,,,,,,,,,
,,64ae13e7175228ade1bbaeb6,2023-12-06_23h57.10.229,kallum_motion_pilot,2023.2.3,Win32,163.9344262,64ae13e7175228ade1bbaeb6,6560176e4d91f764e2a42c74,65715d07deac88baee067799,0.0193,0.0193,0,12,12,44,1,threeone,,,,,,,,,,,,,,,,,,,,,,,,,,,,,,,,,,,,,,,,,,,,,,,,,,,,,,,,,,,,,,,,,,,,,,,,,,,,,,,,,,,,,,,,,,,,,,,,,,,,,,,,,,,,,,,,,,,,,,,,,,,,,,,,,,,,,,,
,,64ae13e7175228ade1bbaeb6,2023-12-06_23h57.10.229,kallum_motion_pilot,2023.2.3,Win32,163.9344262,64ae13e7175228ade1bbaeb6,6560176e4d91f764e2a42c74,65715d07deac88baee067799,0.0194,0.0194,0,13,13,110,1,eightsix,,,,,,,,,,,,,,,,,,,,,,,,,,,,,,,,,,,,,,,,,,,,,,,,,,,,,,,,,,,,,,,,,,,,,,,,,,,,,,,,,,,,,,,,,,,,,,,,,,,,,,,,,,,,,,,,,,,,,,,,,,,,,,,,,,,,,,,
,,64ae13e7175228ade1bbaeb6,2023-12-06_23h57.10.229,kallum_motion_pilot,2023.2.3,Win32,163.9344262,64ae13e7175228ade1bbaeb6,6560176e4d91f764e2a42c74,65715d07deac88baee067799,0.0194,0.0194,0,14,14,81,1,fiveseven,,,,,,,,,,,,,,,,,,,,,,,,,,,,,,,,,,,,,,,,,,,,,,,,,,,,,,,,,,,,,,,,,,,,,,,,,,,,,,,,,,,,,,,,,,,,,,,,,,,,,,,,,,,,,,,,,,,,,,,,,,,,,,,,,,,,,,,
,,64ae13e7175228ade1bbaeb6,2023-12-06_23h57.10.229,kallum_motion_pilot,2023.2.3,Win32,163.9344262,64ae13e7175228ade1bbaeb6,6560176e4d91f764e2a42c74,65715d07deac88baee067799,0.0195,0.0195,0,15,15,140,1,sevenfive,,,,,,,,,,,,,,,,,,,,,,,,,,,,,,,,,,,,,,,,,,,,,,,,,,,,,,,,,,,,,,,,,,,,,,,,,,,,,,,,,,,,,,,,,,,,,,,,,,,,,,,,,,,,,,,,,,,,,,,,,,,,,,,,,,,,,,,
,,64ae13e7175228ade1bbaeb6,2023-12-06_23h57.10.229,kallum_motion_pilot,2023.2.3,Win32,163.9344262,64ae13e7175228ade1bbaeb6,6560176e4d91f764e2a42c74,65715d07deac88baee067799,0.0196,0.0197,0,16,16,153,1,fiveseven,,,,,,,,,,,,,,,,,,,,,,,,,,,,,,,,,,,,,,,,,,,,,,,,,,,,,,,,,,,,,,,,,,,,,,,,,,,,,,,,,,,,,,,,,,,,,,,,,,,,,,,,,,,,,,,,,,,,,,,,,,,,,,,,,,,,,,,
,,64ae13e7175228ade1bbaeb6,2023-12-06_23h57.10.229,kallum_motion_pilot,2023.2.3,Win32,163.9344262,64ae13e7175228ade1bbaeb6,6560176e4d91f764e2a42c74,65715d07deac88baee067799,0.0197,0.0198,0,17,17,154,1,sixfive,,,,,,,,,,,,,,,,,,,,,,,,,,,,,,,,,,,,,,,,,,,,,,,,,,,,,,,,,,,,,,,,,,,,,,,,,,,,,,,,,,,,,,,,,,,,,,,,,,,,,,,,,,,,,,,,,,,,,,,,,,,,,,,,,,,,,,,
,,64ae13e7175228ade1bbaeb6,2023-12-06_23h57.10.229,kallum_motion_pilot,2023.2.3,Win32,163.9344262,64ae13e7175228ade1bbaeb6,6560176e4d91f764e2a42c74,65715d07deac88baee067799,0.0198,0.0198,0,18,18,55,1,fourthree,,,,,,,,,,,,,,,,,,,,,,,,,,,,,,,,,,,,,,,,,,,,,,,,,,,,,,,,,,,,,,,,,,,,,,,,,,,,,,,,,,,,,,,,,,,,,,,,,,,,,,,,,,,,,,,,,,,,,,,,,,,,,,,,,,,,,,,
,,64ae13e7175228ade1bbaeb6,2023-12-06_23h57.10.229,kallum_motion_pilot,2023.2.3,Win32,163.9344262,64ae13e7175228ade1bbaeb6,6560176e4d91f764e2a42c74,65715d07deac88baee067799,0.0199,0.0199,0,19,19,102,1,eightsix,,,,,,,,,,,,,,,,,,,,,,,,,,,,,,,,,,,,,,,,,,,,,,,,,,,,,,,,,,,,,,,,,,,,,,,,,,,,,,,,,,,,,,,,,,,,,,,,,,,,,,,,,,,,,,,,,,,,,,,,,,,,,,,,,,,,,,,
,,64ae13e7175228ade1bbaeb6,2023-12-06_23h57.10.229,kallum_motion_pilot,2023.2.3,Win32,163.9344262,64ae13e7175228ade1bbaeb6,6560176e4d91f764e2a42c74,65715d07deac88baee067799,0.02,0.02,0,20,20,87,1,eightseven,,,,,,,,,,,,,,,,,,,,,,,,,,,,,,,,,,,,,,,,,,,,,,,,,,,,,,,,,,,,,,,,,,,,,,,,,,,,,,,,,,,,,,,,,,,,,,,,,,,,,,,,,,,,,,,,,,,,,,,,,,,,,,,,,,,,,,,
,,64ae13e7175228ade1bbaeb6,2023-12-06_23h57.10.229,kallum_motion_pilot,2023.2.3,Win32,163.9344262,64ae13e7175228ade1bbaeb6,6560176e4d91f764e2a42c74,65715d07deac88baee067799,0.0201,0.0201,0,21,21,157,1,seveneight,,,,,,,,,,,,,,,,,,,,,,,,,,,,,,,,,,,,,,,,,,,,,,,,,,,,,,,,,,,,,,,,,,,,,,,,,,,,,,,,,,,,,,,,,,,,,,,,,,,,,,,,,,,,,,,,,,,,,,,,,,,,,,,,,,,,,,,
,,64ae13e7175228ade1bbaeb6,2023-12-06_23h57.10.229,kallum_motion_pilot,2023.2.3,Win32,163.9344262,64ae13e7175228ade1bbaeb6,6560176e4d91f764e2a42c74,65715d07deac88baee067799,0.0202,0.0202,0,22,22,108,1,sevenfive,,,,,,,,,,,,,,,,,,,,,,,,,,,,,,,,,,,,,,,,,,,,,,,,,,,,,,,,,,,,,,,,,,,,,,,,,,,,,,,,,,,,,,,,,,,,,,,,,,,,,,,,,,,,,,,,,,,,,,,,,,,,,,,,,,,,,,,
,,64ae13e7175228ade1bbaeb6,2023-12-06_23h57.10.229,kallum_motion_pilot,2023.2.3,Win32,163.9344262,64ae13e7175228ade1bbaeb6,6560176e4d91f764e2a42c74,65715d07deac88baee067799,0.0203,0.0203,0,23,23,125,1,seveneight,,,,,,,,,,,,,,,,,,,,,,,,,,,,,,,,,,,,,,,,,,,,,,,,,,,,,,,,,,,,,,,,,,,,,,,,,,,,,,,,,,,,,,,,,,,,,,,,,,,,,,,,,,,,,,,,,,,,,,,,,,,,,,,,,,,,,,,
,,64ae13e7175228ade1bbaeb6,2023-12-06_23h57.10.229,kallum_motion_pilot,2023.2.3,Win32,163.9344262,64ae13e7175228ade1bbaeb6,6560176e4d91f764e2a42c74,65715d07deac88baee067799,0.0204,0.0204,0,24,24,159,1,eightseven,,,,,,,,,,,,,,,,,,,,,,,,,,,,,,,,,,,,,,,,,,,,,,,,,,,,,,,,,,,,,,,,,,,,,,,,,,,,,,,,,,,,,,,,,,,,,,,,,,,,,,,,,,,,,,,,,,,,,,,,,,,,,,,,,,,,,,,
,,64ae13e7175228ade1bbaeb6,2023-12-06_23h57.10.229,kallum_motion_pilot,2023.2.3,Win32,163.9344262,64ae13e7175228ade1bbaeb6,6560176e4d91f764e2a42c74,65715d07deac88baee067799,0.0205,0.0206,0,25,25,83,1,sixeight,,,,,,,,,,,,,,,,,,,,,,,,,,,,,,,,,,,,,,,,,,,,,,,,,,,,,,,,,,,,,,,,,,,,,,,,,,,,,,,,,,,,,,,,,,,,,,,,,,,,,,,,,,,,,,,,,,,,,,,,,,,,,,,,,,,,,,,
,,64ae13e7175228ade1bbaeb6,2023-12-06_23h57.10.229,kallum_motion_pilot,2023.2.3,Win32,163.9344262,64ae13e7175228ade1bbaeb6,6560176e4d91f764e2a42c74,65715d07deac88baee067799,0.0206,0.0207,0,26,26,98,1,sixfive,,,,,,,,,,,,,,,,,,,,,,,,,,,,,,,,,,,,,,,,,,,,,,,,,,,,,,,,,,,,,,,,,,,,,,,,,,,,,,,,,,,,,,,,,,,,,,,,,,,,,,,,,,,,,,,,,,,,,,,,,,,,,,,,,,,,,,,
,,64ae13e7175228ade1bbaeb6,2023-12-06_23h57.10.229,kallum_motion_pilot,2023.2.3,Win32,163.9344262,64ae13e7175228ade1bbaeb6,6560176e4d91f764e2a42c74,65715d07deac88baee067799,0.0208,0.0208,0,27,27,41,1,onethree,,,,,,,,,,,,,,,,,,,,,,,,,,,,,,,,,,,,,,,,,,,,,,,,,,,,,,,,,,,,,,,,,,,,,,,,,,,,,,,,,,,,,,,,,,,,,,,,,,,,,,,,,,,,,,,,,,,,,,,,,,,,,,,,,,,,,,,
,,64ae13e7175228ade1bbaeb6,2023-12-06_23h57.10.229,kallum_motion_pilot,2023.2.3,Win32,163.9344262,64ae13e7175228ade1bbaeb6,6560176e4d91f764e2a42c74,65715d07deac88baee067799,0.0209,0.0209,0,28,28,94,1,eightsix,,,,,,,,,,,,,,,,,,,,,,,,,,,,,,,,,,,,,,,,,,,,,,,,,,,,,,,,,,,,,,,,,,,,,,,,,,,,,,,,,,,,,,,,,,,,,,,,,,,,,,,,,,,,,,,,,,,,,,,,,,,,,,,,,,,,,,,
,,64ae13e7175228ade1bbaeb6,2023-12-06_23h57.10.229,kallum_motion_pilot,2023.2.3,Win32,163.9344262,64ae13e7175228ade1bbaeb6,6560176e4d91f764e2a42c74,65715d07deac88baee067799,0.0209,0.021,0,29,29,128,1,fivesix,,,,,,,,,,,,,,,,,,,,,,,,,,,,,,,,,,,,,,,,,,,,,,,,,,,,,,,,,,,,,,,,,,,,,,,,,,,,,,,,,,,,,,,,,,,,,,,,,,,,,,,,,,,,,,,,,,,,,,,,,,,,,,,,,,,,,,,
,,64ae13e7175228ade1bbaeb6,2023-12-06_23h57.10.229,kallum_motion_pilot,2023.2.3,Win32,163.9344262,64ae13e7175228ade1bbaeb6,6560176e4d91f764e2a42c74,65715d07deac88baee067799,0.0211,0.0211,0,30,30,28,1,threeone,,,,,,,,,,,,,,,,,,,,,,,,,,,,,,,,,,,,,,,,,,,,,,,,,,,,,,,,,,,,,,,,,,,,,,,,,,,,,,,,,,,,,,,,,,,,,,,,,,,,,,,,,,,,,,,,,,,,,,,,,,,,,,,,,,,,,,,
,,64ae13e7175228ade1bbaeb6,2023-12-06_23h57.10.229,kallum_motion_pilot,2023.2.3,Win32,163.9344262,64ae13e7175228ade1bbaeb6,6560176e4d91f764e2a42c74,65715d07deac88baee067799,0.0212,0.0213,0,31,31,115,1,sixeight,,,,,,,,,,,,,,,,,,,,,,,,,,,,,,,,,,,,,,,,,,,,,,,,,,,,,,,,,,,,,,,,,,,,,,,,,,,,,,,,,,,,,,,,,,,,,,,,,,,,,,,,,,,,,,,,,,,,,,,,,,,,,,,,,,,,,,,
,,64ae13e7175228ade1bbaeb6,2023-12-06_23h57.10.229,kallum_motion_pilot,2023.2.3,Win32,163.9344262,64ae13e7175228ade1bbaeb6,6560176e4d91f764e2a42c74,65715d07deac88baee067799,0.0214,0.0214,0,32,32,150,1,eightsix,,,,,,,,,,,,,,,,,,,,,,,,,,,,,,,,,,,,,,,,,,,,,,,,,,,,,,,,,,,,,,,,,,,,,,,,,,,,,,,,,,,,,,,,,,,,,,,,,,,,,,,,,,,,,,,,,,,,,,,,,,,,,,,,,,,,,,,
,,64ae13e7175228ade1bbaeb6,2023-12-06_23h57.10.229,kallum_motion_pilot,2023.2.3,Win32,163.9344262,64ae13e7175228ade1bbaeb6,6560176e4d91f764e2a42c74,65715d07deac88baee067799,0.0215,0.0215,0,33,33,20,1,threeone,,,,,,,,,,,,,,,,,,,,,,,,,,,,,,,,,,,,,,,,,,,,,,,,,,,,,,,,,,,,,,,,,,,,,,,,,,,,,,,,,,,,,,,,,,,,,,,,,,,,,,,,,,,,,,,,,,,,,,,,,,,,,,,,,,,,,,,
,,64ae13e7175228ade1bbaeb6,2023-12-06_23h57.10.229,kallum_motion_pilot,2023.2.3,Win32,163.9344262,64ae13e7175228ade1bbaeb6,6560176e4d91f764e2a42c74,65715d07deac88baee067799,0.0216,0.0217,0,34,34,139,1,sixeight,,,,,,,,,,,,,,,,,,,,,,,,,,,,,,,,,,,,,,,,,,,,,,,,,,,,,,,,,,,,,,,,,,,,,,,,,,,,,,,,,,,,,,,,,,,,,,,,,,,,,,,,,,,,,,,,,,,,,,,,,,,,,,,,,,,,,,,
,,64ae13e7175228ade1bbaeb6,2023-12-06_23h57.10.229,kallum_motion_pilot,2023.2.3,Win32,163.9344262,64ae13e7175228ade1bbaeb6,6560176e4d91f764e2a42c74,65715d07deac88baee067799,0.0218,0.0218,0,35,35,19,1,twofour,,,,,,,,,,,,,,,,,,,,,,,,,,,,,,,,,,,,,,,,,,,,,,,,,,,,,,,,,,,,,,,,,,,,,,,,,,,,,,,,,,,,,,,,,,,,,,,,,,,,,,,,,,,,,,,,,,,,,,,,,,,,,,,,,,,,,,,
,,64ae13e7175228ade1bbaeb6,2023-12-06_23h57.10.229,kallum_motion_pilot,2023.2.3,Win32,163.9344262,64ae13e7175228ade1bbaeb6,6560176e4d91f764e2a42c74,65715d07deac88baee067799,0.0219,0.0219,0,36,36,126,1,eightsix,,,,,,,,,,,,,,,,,,,,,,,,,,,,,,,,,,,,,,,,,,,,,,,,,,,,,,,,,,,,,,,,,,,,,,,,,,,,,,,,,,,,,,,,,,,,,,,,,,,,,,,,,,,,,,,,,,,,,,,,,,,,,,,,,,,,,,,
,,64ae13e7175228ade1bbaeb6,2023-12-06_23h57.10.229,kallum_motion_pilot,2023.2.3,Win32,163.9344262,64ae13e7175228ade1bbaeb6,6560176e4d91f764e2a42c74,65715d07deac88baee067799,0.022,0.0221,0,37,37,119,1,eightseven,,,,,,,,,,,,,,,,,,,,,,,,,,,,,,,,,,,,,,,,,,,,,,,,,,,,,,,,,,,,,,,,,,,,,,,,,,,,,,,,,,,,,,,,,,,,,,,,,,,,,,,,,,,,,,,,,,,,,,,,,,,,,,,,,,,,,,,
,,64ae13e7175228ade1bbaeb6,2023-12-06_23h57.10.229,kallum_motion_pilot,2023.2.3,Win32,163.9344262,64ae13e7175228ade1bbaeb6,6560176e4d91f764e2a42c74,65715d07deac88baee067799,0.0222,0.0222,0,38,38,63,1,fourthree,,,,,,,,,,,,,,,,,,,,,,,,,,,,,,,,,,,,,,,,,,,,,,,,,,,,,,,,,,,,,,,,,,,,,,,,,,,,,,,,,,,,,,,,,,,,,,,,,,,,,,,,,,,,,,,,,,,,,,,,,,,,,,,,,,,,,,,
,,64ae13e7175228ade1bbaeb6,2023-12-06_23h57.10.229,kallum_motion_pilot,2023.2.3,Win32,163.9344262,64ae13e7175228ade1bbaeb6,6560176e4d91f764e2a42c74,65715d07deac88baee067799,0.0223,0.0223,0,39,39,42,1,twoone,,,,,,,,,,,,,,,,,,,,,,,,,,,,,,,,,,,,,,,,,,,,,,,,,,,,,,,,,,,,,,,,,,,,,,,,,,,,,,,,,,,,,,,,,,,,,,,,,,,,,,,,,,,,,,,,,,,,,,,,,,,,,,,,,,,,,,,
,,64ae13e7175228ade1bbaeb6,2023-12-06_23h57.10.229,kallum_motion_pilot,2023.2.3,Win32,163.9344262,64ae13e7175228ade1bbaeb6,6560176e4d91f764e2a42c74,65715d07deac88baee067799,0.0224,0.0224,0,40,40,66,1,twoone,,,,,,,,,,,,,,,,,,,,,,,,,,,,,,,,,,,,,,,,,,,,,,,,,,,,,,,,,,,,,,,,,,,,,,,,,,,,,,,,,,,,,,,,,,,,,,,,,,,,,,,,,,,,,,,,,,,,,,,,,,,,,,,,,,,,,,,
,,64ae13e7175228ade1bbaeb6,2023-12-06_23h57.10.229,kallum_motion_pilot,2023.2.3,Win32,163.9344262,64ae13e7175228ade1bbaeb6,6560176e4d91f764e2a42c74,65715d07deac88baee067799,0.0224,0.0224,0,41,41,32,1,onetwo,,,,,,,,,,,,,,,,,,,,,,,,,,,,,,,,,,,,,,,,,,,,,,,,,,,,,,,,,,,,,,,,,,,,,,,,,,,,,,,,,,,,,,,,,,,,,,,,,,,,,,,,,,,,,,,,,,,,,,,,,,,,,,,,,,,,,,,
,,64ae13e7175228ade1bbaeb6,2023-12-06_23h57.10.229,kallum_motion_pilot,2023.2.3,Win32,163.9344262,64ae13e7175228ade1bbaeb6,6560176e4d91f764e2a42c74,65715d07deac88baee067799,0.0225,0.0225,0,42,42,67,1,twofour,,,,,,,,,,,,,,,,,,,,,,,,,,,,,,,,,,,,,,,,,,,,,,,,,,,,,,,,,,,,,,,,,,,,,,,,,,,,,,,,,,,,,,,,,,,,,,,,,,,,,,,,,,,,,,,,,,,,,,,,,,,,,,,,,,,,,,,
,,64ae13e7175228ade1bbaeb6,2023-12-06_23h57.10.229,kallum_motion_pilot,2023.2.3,Win32,163.9344262,64ae13e7175228ade1bbaeb6,6560176e4d91f764e2a42c74,65715d07deac88baee067799,0.0225,0.0225,0,43,43,64,1,onetwo,,,,,,,,,,,,,,,,,,,,,,,,,,,,,,,,,,,,,,,,,,,,,,,,,,,,,,,,,,,,,,,,,,,,,,,,,,,,,,,,,,,,,,,,,,,,,,,,,,,,,,,,,,,,,,,,,,,,,,,,,,,,,,,,,,,,,,,
,,64ae13e7175228ade1bbaeb6,2023-12-06_23h57.10.229,kallum_motion_pilot,2023.2.3,Win32,163.9344262,64ae13e7175228ade1bbaeb6,6560176e4d91f764e2a42c74,65715d07deac88baee067799,0.0226,0.0226,0,44,44,82,1,sixfive,,,,,,,,,,,,,,,,,,,,,,,,,,,,,,,,,,,,,,,,,,,,,,,,,,,,,,,,,,,,,,,,,,,,,,,,,,,,,,,,,,,,,,,,,,,,,,,,,,,,,,,,,,,,,,,,,,,,,,,,,,,,,,,,,,,,,,,
,,64ae13e7175228ade1bbaeb6,2023-12-06_23h57.10.229,kallum_motion_pilot,2023.2.3,Win32,163.9344262,64ae13e7175228ade1bbaeb6,6560176e4d91f764e2a42c74,65715d07deac88baee067799,0.0227,0.0227,0,45,45,3,1,twofour,,,,,,,,,,,,,,,,,,,,,,,,,,,,,,,,,,,,,,,,,,,,,,,,,,,,,,,,,,,,,,,,,,,,,,,,,,,,,,,,,,,,,,,,,,,,,,,,,,,,,,,,,,,,,,,,,,,,,,,,,,,,,,,,,,,,,,,
,,64ae13e7175228ade1bbaeb6,2023-12-06_23h57.10.229,kallum_motion_pilot,2023.2.3,Win32,163.9344262,64ae13e7175228ade1bbaeb6,6560176e4d91f764e2a42c74,65715d07deac88baee067799,0.0228,0.0228,0,46,46,27,1,twofour,,,,,,,,,,,,,,,,,,,,,,,,,,,,,,,,,,,,,,,,,,,,,,,,,,,,,,,,,,,,,,,,,,,,,,,,,,,,,,,,,,,,,,,,,,,,,,,,,,,,,,,,,,,,,,,,,,,,,,,,,,,,,,,,,,,,,,,
,,64ae13e7175228ade1bbaeb6,2023-12-06_23h57.10.229,kallum_motion_pilot,2023.2.3,Win32,163.9344262,64ae13e7175228ade1bbaeb6,6560176e4d91f764e2a42c74,65715d07deac88baee067799,0.0229,0.0229,0,47,47,5,1,threefour,,,,,,,,,,,,,,,,,,,,,,,,,,,,,,,,,,,,,,,,,,,,,,,,,,,,,,,,,,,,,,,,,,,,,,,,,,,,,,,,,,,,,,,,,,,,,,,,,,,,,,,,,,,,,,,,,,,,,,,,,,,,,,,,,,,,,,,
,,64ae13e7175228ade1bbaeb6,2023-12-06_23h57.10.229,kallum_motion_pilot,2023.2.3,Win32,163.9344262,64ae13e7175228ade1bbaeb6,6560176e4d91f764e2a42c74,65715d07deac88baee067799,0.0229,0.023,0,48,48,129,1,fiveseven,,,,,,,,,,,,,,,,,,,,,,,,,,,,,,,,,,,,,,,,,,,,,,,,,,,,,,,,,,,,,,,,,,,,,,,,,,,,,,,,,,,,,,,,,,,,,,,,,,,,,,,,,,,,,,,,,,,,,,,,,,,,,,,,,,,,,,,
,,64ae13e7175228ade1bbaeb6,2023-12-06_23h57.10.229,kallum_motion_pilot,2023.2.3,Win32,163.9344262,64ae13e7175228ade1bbaeb6,6560176e4d91f764e2a42c74,65715d07deac88baee067799,0.0231,0.0231,0,49,49,124,1,sevenfive,,,,,,,,,,,,,,,,,,,,,,,,,,,,,,,,,,,,,,,,,,,,,,,,,,,,,,,,,,,,,,,,,,,,,,,,,,,,,,,,,,,,,,,,,,,,,,,,,,,,,,,,,,,,,,,,,,,,,,,,,,,,,,,,,,,,,,,
,,64ae13e7175228ade1bbaeb6,2023-12-06_23h57.10.229,kallum_motion_pilot,2023.2.3,Win32,163.9344262,64ae13e7175228ade1bbaeb6,6560176e4d91f764e2a42c74,65715d07deac88baee067799,0.0231,0.0232,0,50,50,9,1,onethree,,,,,,,,,,,,,,,,,,,,,,,,,,,,,,,,,,,,,,,,,,,,,,,,,,,,,,,,,,,,,,,,,,,,,,,,,,,,,,,,,,,,,,,,,,,,,,,,,,,,,,,,,,,,,,,,,,,,,,,,,,,,,,,,,,,,,,,
,,64ae13e7175228ade1bbaeb6,2023-12-06_23h57.10.229,kallum_motion_pilot,2023.2.3,Win32,163.9344262,64ae13e7175228ade1bbaeb6,6560176e4d91f764e2a42c74,65715d07deac88baee067799,0.0232,0.0232,0,51,51,14,1,fourtwo,,,,,,,,,,,,,,,,,,,,,,,,,,,,,,,,,,,,,,,,,,,,,,,,,,,,,,,,,,,,,,,,,,,,,,,,,,,,,,,,,,,,,,,,,,,,,,,,,,,,,,,,,,,,,,,,,,,,,,,,,,,,,,,,,,,,,,,
,,64ae13e7175228ade1bbaeb6,2023-12-06_23h57.10.229,kallum_motion_pilot,2023.2.3,Win32,163.9344262,64ae13e7175228ade1bbaeb6,6560176e4d91f764e2a42c74,65715d07deac88baee067799,0.0233,0.0234,0,52,52,76,1,threeone,,,,,,,,,,,,,,,,,,,,,,,,,,,,,,,,,,,,,,,,,,,,,,,,,,,,,,,,,,,,,,,,,,,,,,,,,,,,,,,,,,,,,,,,,,,,,,,,,,,,,,,,,,,,,,,,,,,,,,,,,,,,,,,,,,,,,,,
,,64ae13e7175228ade1bbaeb6,2023-12-06_23h57.10.229,kallum_motion_pilot,2023.2.3,Win32,163.9344262,64ae13e7175228ade1bbaeb6,6560176e4d91f764e2a42c74,65715d07deac88baee067799,0.0234,0.0234,0,53,53,56,1,onetwo,,,,,,,,,,,,,,,,,,,,,,,,,,,,,,,,,,,,,,,,,,,,,,,,,,,,,,,,,,,,,,,,,,,,,,,,,,,,,,,,,,,,,,,,,,,,,,,,,,,,,,,,,,,,,,,,,,,,,,,,,,,,,,,,,,,,,,,
,,64ae13e7175228ade1bbaeb6,2023-12-06_23h57.10.229,kallum_motion_pilot,2023.2.3,Win32,163.9344262,64ae13e7175228ade1bbaeb6,6560176e4d91f764e2a42c74,65715d07deac88baee067799,0.0235,0.0235,0,54,54,38,1,fourtwo,,,,,,,,,,,,,,,,,,,,,,,,,,,,,,,,,,,,,,,,,,,,,,,,,,,,,,,,,,,,,,,,,,,,,,,,,,,,,,,,,,,,,,,,,,,,,,,,,,,,,,,,,,,,,,,,,,,,,,,,,,,,,,,,,,,,,,,
,,64ae13e7175228ade1bbaeb6,2023-12-06_23h57.10.229,kallum_motion_pilot,2023.2.3,Win32,163.9344262,64ae13e7175228ade1bbaeb6,6560176e4d91f764e2a42c74,65715d07deac88baee067799,0.0235,0.0235,0,55,55,84,1,sevenfive,,,,,,,,,,,,,,,,,,,,,,,,,,,,,,,,,,,,,,,,,,,,,,,,,,,,,,,,,,,,,,,,,,,,,,,,,,,,,,,,,,,,,,,,,,,,,,,,,,,,,,,,,,,,,,,,,,,,,,,,,,,,,,,,,,,,,,,
,,64ae13e7175228ade1bbaeb6,2023-12-06_23h57.10.229,kallum_motion_pilot,2023.2.3,Win32,163.9344262,64ae13e7175228ade1bbaeb6,6560176e4d91f764e2a42c74,65715d07deac88baee067799,0.0236,0.0236,0,56,56,50,1,twoone,,,,,,,,,,,,,,,,,,,,,,,,,,,,,,,,,,,,,,,,,,,,,,,,,,,,,,,,,,,,,,,,,,,,,,,,,,,,,,,,,,,,,,,,,,,,,,,,,,,,,,,,,,,,,,,,,,,,,,,,,,,,,,,,,,,,,,,
,,64ae13e7175228ade1bbaeb6,2023-12-06_23h57.10.229,kallum_motion_pilot,2023.2.3,Win32,163.9344262,64ae13e7175228ade1bbaeb6,6560176e4d91f764e2a42c74,65715d07deac88baee067799,0.0237,0.0237,0,57,57,36,1,threeone,,,,,,,,,,,,,,,,,,,,,,,,,,,,,,,,,,,,,,,,,,,,,,,,,,,,,,,,,,,,,,,,,,,,,,,,,,,,,,,,,,,,,,,,,,,,,,,,,,,,,,,,,,,,,,,,,,,,,,,,,,,,,,,,,,,,,,,
,,64ae13e7175228ade1bbaeb6,2023-12-06_23h57.10.229,kallum_motion_pilot,2023.2.3,Win32,163.9344262,64ae13e7175228ade1bbaeb6,6560176e4d91f764e2a42c74,65715d07deac88baee067799,0.0238,0.0238,0,58,58,104,1,fivesix,,,,,,,,,,,,,,,,,,,,,,,,,,,,,,,,,,,,,,,,,,,,,,,,,,,,,,,,,,,,,,,,,,,,,,,,,,,,,,,,,,,,,,,,,,,,,,,,,,,,,,,,,,,,,,,,,,,,,,,,,,,,,,,,,,,,,,,
,,64ae13e7175228ade1bbaeb6,2023-12-06_23h57.10.229,kallum_motion_pilot,2023.2.3,Win32,163.9344262,64ae13e7175228ade1bbaeb6,6560176e4d91f764e2a42c74,65715d07deac88baee067799,0.0238,0.0239,0,59,59,91,1,sixeight,,,,,,,,,,,,,,,,,,,,,,,,,,,,,,,,,,,,,,,,,,,,,,,,,,,,,,,,,,,,,,,,,,,,,,,,,,,,,,,,,,,,,,,,,,,,,,,,,,,,,,,,,,,,,,,,,,,,,,,,,,,,,,,,,,,,,,,
,,64ae13e7175228ade1bbaeb6,2023-12-06_23h57.10.229,kallum_motion_pilot,2023.2.3,Win32,163.9344262,64ae13e7175228ade1bbaeb6,6560176e4d91f764e2a42c74,65715d07deac88baee067799,0.0239,0.024,0,60,60,88,1,fivesix,,,,,,,,,,,,,,,,,,,,,,,,,,,,,,,,,,,,,,,,,,,,,,,,,,,,,,,,,,,,,,,,,,,,,,,,,,,,,,,,,,,,,,,,,,,,,,,,,,,,,,,,,,,,,,,,,,,,,,,,,,,,,,,,,,,,,,,
,,64ae13e7175228ade1bbaeb6,2023-12-06_23h57.10.229,kallum_motion_pilot,2023.2.3,Win32,163.9344262,64ae13e7175228ade1bbaeb6,6560176e4d91f764e2a42c74,65715d07deac88baee067799,0.024,0.024,0,61,61,35,1,twofour,,,,,,,,,,,,,,,,,,,,,,,,,,,,,,,,,,,,,,,,,,,,,,,,,,,,,,,,,,,,,,,,,,,,,,,,,,,,,,,,,,,,,,,,,,,,,,,,,,,,,,,,,,,,,,,,,,,,,,,,,,,,,,,,,,,,,,,
,,64ae13e7175228ade1bbaeb6,2023-12-06_23h57.10.229,kallum_motion_pilot,2023.2.3,Win32,163.9344262,64ae13e7175228ade1bbaeb6,6560176e4d91f764e2a42c74,65715d07deac88baee067799,0.024,0.0242,0,62,62,12,1,threeone,,,,,,,,,,,,,,,,,,,,,,,,,,,,,,,,,,,,,,,,,,,,,,,,,,,,,,,,,,,,,,,,,,,,,,,,,,,,,,,,,,,,,,,,,,,,,,,,,,,,,,,,,,,,,,,,,,,,,,,,,,,,,,,,,,,,,,,
,,64ae13e7175228ade1bbaeb6,2023-12-06_23h57.10.229,kallum_motion_pilot,2023.2.3,Win32,163.9344262,64ae13e7175228ade1bbaeb6,6560176e4d91f764e2a42c74,65715d07deac88baee067799,0.0242,0.0242,0,63,63,18,1,twoone,,,,,,,,,,,,,,,,,,,,,,,,,,,,,,,,,,,,,,,,,,,,,,,,,,,,,,,,,,,,,,,,,,,,,,,,,,,,,,,,,,,,,,,,,,,,,,,,,,,,,,,,,,,,,,,,,,,,,,,,,,,,,,,,,,,,,,,
,,64ae13e7175228ade1bbaeb6,2023-12-06_23h57.10.229,kallum_motion_pilot,2023.2.3,Win32,163.9344262,64ae13e7175228ade1bbaeb6,6560176e4d91f764e2a42c74,65715d07deac88baee067799,0.0243,0.0243,0,64,64,10,1,twoone,,,,,,,,,,,,,,,,,,,,,,,,,,,,,,,,,,,,,,,,,,,,,,,,,,,,,,,,,,,,,,,,,,,,,,,,,,,,,,,,,,,,,,,,,,,,,,,,,,,,,,,,,,,,,,,,,,,,,,,,,,,,,,,,,,,,,,,
,,64ae13e7175228ade1bbaeb6,2023-12-06_23h57.10.229,kallum_motion_pilot,2023.2.3,Win32,163.9344262,64ae13e7175228ade1bbaeb6,6560176e4d91f764e2a42c74,65715d07deac88baee067799,0.0244,0.0244,0,65,65,133,1,seveneight,,,,,,,,,,,,,,,,,,,,,,,,,,,,,,,,,,,,,,,,,,,,,,,,,,,,,,,,,,,,,,,,,,,,,,,,,,,,,,,,,,,,,,,,,,,,,,,,,,,,,,,,,,,,,,,,,,,,,,,,,,,,,,,,,,,,,,,
,,64ae13e7175228ade1bbaeb6,2023-12-06_23h57.10.229,kallum_motion_pilot,2023.2.3,Win32,163.9344262,64ae13e7175228ade1bbaeb6,6560176e4d91f764e2a42c74,65715d07deac88baee067799,0.0245,0.0245,0,66,66,113,1,fiveseven,,,,,,,,,,,,,,,,,,,,,,,,,,,,,,,,,,,,,,,,,,,,,,,,,,,,,,,,,,,,,,,,,,,,,,,,,,,,,,,,,,,,,,,,,,,,,,,,,,,,,,,,,,,,,,,,,,,,,,,,,,,,,,,,,,,,,,,
,,64ae13e7175228ade1bbaeb6,2023-12-06_23h57.10.229,kallum_motion_pilot,2023.2.3,Win32,163.9344262,64ae13e7175228ade1bbaeb6,6560176e4d91f764e2a42c74,65715d07deac88baee067799,0.0246,0.0246,0,67,67,109,1,seveneight,,,,,,,,,,,,,,,,,,,,,,,,,,,,,,,,,,,,,,,,,,,,,,,,,,,,,,,,,,,,,,,,,,,,,,,,,,,,,,,,,,,,,,,,,,,,,,,,,,,,,,,,,,,,,,,,,,,,,,,,,,,,,,,,,,,,,,,
,,64ae13e7175228ade1bbaeb6,2023-12-06_23h57.10.229,kallum_motion_pilot,2023.2.3,Win32,163.9344262,64ae13e7175228ade1bbaeb6,6560176e4d91f764e2a42c74,65715d07deac88baee067799,0.0247,0.0247,0,68,68,65,1,onethree,,,,,,,,,,,,,,,,,,,,,,,,,,,,,,,,,,,,,,,,,,,,,,,,,,,,,,,,,,,,,,,,,,,,,,,,,,,,,,,,,,,,,,,,,,,,,,,,,,,,,,,,,,,,,,,,,,,,,,,,,,,,,,,,,,,,,,,
,,64ae13e7175228ade1bbaeb6,2023-12-06_23h57.10.229,kallum_motion_pilot,2023.2.3,Win32,163.9344262,64ae13e7175228ade1bbaeb6,6560176e4d91f764e2a42c74,65715d07deac88baee067799,0.0247,0.0248,0,69,69,39,1,fourthree,,,,,,,,,,,,,,,,,,,,,,,,,,,,,,,,,,,,,,,,,,,,,,,,,,,,,,,,,,,,,,,,,,,,,,,,,,,,,,,,,,,,,,,,,,,,,,,,,,,,,,,,,,,,,,,,,,,,,,,,,,,,,,,,,,,,,,,
,,64ae13e7175228ade1bbaeb6,2023-12-06_23h57.10.229,kallum_motion_pilot,2023.2.3,Win32,163.9344262,64ae13e7175228ade1bbaeb6,6560176e4d91f764e2a42c74,65715d07deac88baee067799,0.0248,0.0249,0,70,70,51,1,twofour,,,,,,,,,,,,,,,,,,,,,,,,,,,,,,,,,,,,,,,,,,,,,,,,,,,,,,,,,,,,,,,,,,,,,,,,,,,,,,,,,,,,,,,,,,,,,,,,,,,,,,,,,,,,,,,,,,,,,,,,,,,,,,,,,,,,,,,
,,64ae13e7175228ade1bbaeb6,2023-12-06_23h57.10.229,kallum_motion_pilot,2023.2.3,Win32,163.9344262,64ae13e7175228ade1bbaeb6,6560176e4d91f764e2a42c74,65715d07deac88baee067799,0.0249,0.0249,0,71,71,78,1,fourtwo,,,,,,,,,,,,,,,,,,,,,,,,,,,,,,,,,,,,,,,,,,,,,,,,,,,,,,,,,,,,,,,,,,,,,,,,,,,,,,,,,,,,,,,,,,,,,,,,,,,,,,,,,,,,,,,,,,,,,,,,,,,,,,,,,,,,,,,
,,64ae13e7175228ade1bbaeb6,2023-12-06_23h57.10.229,kallum_motion_pilot,2023.2.3,Win32,163.9344262,64ae13e7175228ade1bbaeb6,6560176e4d91f764e2a42c74,65715d07deac88baee067799,0.0249,0.025,0,72,72,161,1,fiveseven,,,,,,,,,,,,,,,,,,,,,,,,,,,,,,,,,,,,,,,,,,,,,,,,,,,,,,,,,,,,,,,,,,,,,,,,,,,,,,,,,,,,,,,,,,,,,,,,,,,,,,,,,,,,,,,,,,,,,,,,,,,,,,,,,,,,,,,
,,64ae13e7175228ade1bbaeb6,2023-12-06_23h57.10.229,kallum_motion_pilot,2023.2.3,Win32,163.9344262,64ae13e7175228ade1bbaeb6,6560176e4d91f764e2a42c74,65715d07deac88baee067799,0.0251,0.0251,0,73,73,146,1,sixfive,,,,,,,,,,,,,,,,,,,,,,,,,,,,,,,,,,,,,,,,,,,,,,,,,,,,,,,,,,,,,,,,,,,,,,,,,,,,,,,,,,,,,,,,,,,,,,,,,,,,,,,,,,,,,,,,,,,,,,,,,,,,,,,,,,,,,,,
,,64ae13e7175228ade1bbaeb6,2023-12-06_23h57.10.229,kallum_motion_pilot,2023.2.3,Win32,163.9344262,64ae13e7175228ade1bbaeb6,6560176e4d91f764e2a42c74,65715d07deac88baee067799,0.0252,0.0252,0,74,74,121,1,fiveseven,,,,,,,,,,,,,,,,,,,,,,,,,,,,,,,,,,,,,,,,,,,,,,,,,,,,,,,,,,,,,,,,,,,,,,,,,,,,,,,,,,,,,,,,,,,,,,,,,,,,,,,,,,,,,,,,,,,,,,,,,,,,,,,,,,,,,,,
,,64ae13e7175228ade1bbaeb6,2023-12-06_23h57.10.229,kallum_motion_pilot,2023.2.3,Win32,163.9344262,64ae13e7175228ade1bbaeb6,6560176e4d91f764e2a42c74,65715d07deac88baee067799,0.0252,0.0252,0,75,75,23,1,fourthree,,,,,,,,,,,,,,,,,,,,,,,,,,,,,,,,,,,,,,,,,,,,,,,,,,,,,,,,,,,,,,,,,,,,,,,,,,,,,,,,,,,,,,,,,,,,,,,,,,,,,,,,,,,,,,,,,,,,,,,,,,,,,,,,,,,,,,,
,,64ae13e7175228ade1bbaeb6,2023-12-06_23h57.10.229,kallum_motion_pilot,2023.2.3,Win32,163.9344262,64ae13e7175228ade1bbaeb6,6560176e4d91f764e2a42c74,65715d07deac88baee067799,0.0253,0.0253,0,76,76,145,1,fiveseven,,,,,,,,,,,,,,,,,,,,,,,,,,,,,,,,,,,,,,,,,,,,,,,,,,,,,,,,,,,,,,,,,,,,,,,,,,,,,,,,,,,,,,,,,,,,,,,,,,,,,,,,,,,,,,,,,,,,,,,,,,,,,,,,,,,,,,,
,,64ae13e7175228ade1bbaeb6,2023-12-06_23h57.10.229,kallum_motion_pilot,2023.2.3,Win32,163.9344262,64ae13e7175228ade1bbaeb6,6560176e4d91f764e2a42c74,65715d07deac88baee067799,0.0254,0.0255,0,77,77,24,1,onetwo,,,,,,,,,,,,,,,,,,,,,,,,,,,,,,,,,,,,,,,,,,,,,,,,,,,,,,,,,,,,,,,,,,,,,,,,,,,,,,,,,,,,,,,,,,,,,,,,,,,,,,,,,,,,,,,,,,,,,,,,,,,,,,,,,,,,,,,
,,64ae13e7175228ade1bbaeb6,2023-12-06_23h57.10.229,kallum_motion_pilot,2023.2.3,Win32,163.9344262,64ae13e7175228ade1bbaeb6,6560176e4d91f764e2a42c74,65715d07deac88baee067799,0.0256,0.0256,0,78,78,77,1,threefour,,,,,,,,,,,,,,,,,,,,,,,,,,,,,,,,,,,,,,,,,,,,,,,,,,,,,,,,,,,,,,,,,,,,,,,,,,,,,,,,,,,,,,,,,,,,,,,,,,,,,,,,,,,,,,,,,,,,,,,,,,,,,,,,,,,,,,,
,,64ae13e7175228ade1bbaeb6,2023-12-06_23h57.10.229,kallum_motion_pilot,2023.2.3,Win32,163.9344262,64ae13e7175228ade1bbaeb6,6560176e4d91f764e2a42c74,65715d07deac88baee067799,0.0257,0.0257,0,79,79,46,1,fourtwo,,,,,,,,,,,,,,,,,,,,,,,,,,,,,,,,,,,,,,,,,,,,,,,,,,,,,,,,,,,,,,,,,,,,,,,,,,,,,,,,,,,,,,,,,,,,,,,,,,,,,,,,,,,,,,,,,,,,,,,,,,,,,,,,,,,,,,,
,,64ae13e7175228ade1bbaeb6,2023-12-06_23h57.10.229,kallum_motion_pilot,2023.2.3,Win32,163.9344262,64ae13e7175228ade1bbaeb6,6560176e4d91f764e2a42c74,65715d07deac88baee067799,0.0257,0.0258,0,80,80,137,1,fiveseven,,,,,,,,,,,,,,,,,,,,,,,,,,,,,,,,,,,,,,,,,,,,,,,,,,,,,,,,,,,,,,,,,,,,,,,,,,,,,,,,,,,,,,,,,,,,,,,,,,,,,,,,,,,,,,,,,,,,,,,,,,,,,,,,,,,,,,,
,,64ae13e7175228ade1bbaeb6,2023-12-06_23h57.10.229,kallum_motion_pilot,2023.2.3,Win32,163.9344262,64ae13e7175228ade1bbaeb6,6560176e4d91f764e2a42c74,65715d07deac88baee067799,0.0259,0.0259,0,81,81,144,1,fivesix,,,,,,,,,,,,,,,,,,,,,,,,,,,,,,,,,,,,,,,,,,,,,,,,,,,,,,,,,,,,,,,,,,,,,,,,,,,,,,,,,,,,,,,,,,,,,,,,,,,,,,,,,,,,,,,,,,,,,,,,,,,,,,,,,,,,,,,
,,64ae13e7175228ade1bbaeb6,2023-12-06_23h57.10.229,kallum_motion_pilot,2023.2.3,Win32,163.9344262,64ae13e7175228ade1bbaeb6,6560176e4d91f764e2a42c74,65715d07deac88baee067799,0.026,0.026,0,82,82,103,1,eightseven,,,,,,,,,,,,,,,,,,,,,,,,,,,,,,,,,,,,,,,,,,,,,,,,,,,,,,,,,,,,,,,,,,,,,,,,,,,,,,,,,,,,,,,,,,,,,,,,,,,,,,,,,,,,,,,,,,,,,,,,,,,,,,,,,,,,,,,
,,64ae13e7175228ade1bbaeb6,2023-12-06_23h57.10.229,kallum_motion_pilot,2023.2.3,Win32,163.9344262,64ae13e7175228ade1bbaeb6,6560176e4d91f764e2a42c74,65715d07deac88baee067799,0.0261,0.0262,0,83,83,99,1,sixeight,,,,,,,,,,,,,,,,,,,,,,,,,,,,,,,,,,,,,,,,,,,,,,,,,,,,,,,,,,,,,,,,,,,,,,,,,,,,,,,,,,,,,,,,,,,,,,,,,,,,,,,,,,,,,,,,,,,,,,,,,,,,,,,,,,,,,,,
,,64ae13e7175228ade1bbaeb6,2023-12-06_23h57.10.229,kallum_motion_pilot,2023.2.3,Win32,163.9344262,64ae13e7175228ade1bbaeb6,6560176e4d91f764e2a42c74,65715d07deac88baee067799,0.0263,0.0263,0,84,84,60,1,threeone,,,,,,,,,,,,,,,,,,,,,,,,,,,,,,,,,,,,,,,,,,,,,,,,,,,,,,,,,,,,,,,,,,,,,,,,,,,,,,,,,,,,,,,,,,,,,,,,,,,,,,,,,,,,,,,,,,,,,,,,,,,,,,,,,,,,,,,
,,64ae13e7175228ade1bbaeb6,2023-12-06_23h57.10.229,kallum_motion_pilot,2023.2.3,Win32,163.9344262,64ae13e7175228ade1bbaeb6,6560176e4d91f764e2a42c74,65715d07deac88baee067799,0.0264,0.0265,0,85,85,33,1,onethree,,,,,,,,,,,,,,,,,,,,,,,,,,,,,,,,,,,,,,,,,,,,,,,,,,,,,,,,,,,,,,,,,,,,,,,,,,,,,,,,,,,,,,,,,,,,,,,,,,,,,,,,,,,,,,,,,,,,,,,,,,,,,,,,,,,,,,,
,,64ae13e7175228ade1bbaeb6,2023-12-06_23h57.10.229,kallum_motion_pilot,2023.2.3,Win32,163.9344262,64ae13e7175228ade1bbaeb6,6560176e4d91f764e2a42c74,65715d07deac88baee067799,0.0265,0.0266,0,86,86,85,1,seveneight,,,,,,,,,,,,,,,,,,,,,,,,,,,,,,,,,,,,,,,,,,,,,,,,,,,,,,,,,,,,,,,,,,,,,,,,,,,,,,,,,,,,,,,,,,,,,,,,,,,,,,,,,,,,,,,,,,,,,,,,,,,,,,,,,,,,,,,
,,64ae13e7175228ade1bbaeb6,2023-12-06_23h57.10.229,kallum_motion_pilot,2023.2.3,Win32,163.9344262,64ae13e7175228ade1bbaeb6,6560176e4d91f764e2a42c74,65715d07deac88baee067799,0.0267,0.0268,0,87,87,4,1,threeone,,,,,,,,,,,,,,,,,,,,,,,,,,,,,,,,,,,,,,,,,,,,,,,,,,,,,,,,,,,,,,,,,,,,,,,,,,,,,,,,,,,,,,,,,,,,,,,,,,,,,,,,,,,,,,,,,,,,,,,,,,,,,,,,,,,,,,,
,,64ae13e7175228ade1bbaeb6,2023-12-06_23h57.10.229,kallum_motion_pilot,2023.2.3,Win32,163.9344262,64ae13e7175228ade1bbaeb6,6560176e4d91f764e2a42c74,65715d07deac88baee067799,0.0268,0.0269,0,88,88,100,1,sevenfive,,,,,,,,,,,,,,,,,,,,,,,,,,,,,,,,,,,,,,,,,,,,,,,,,,,,,,,,,,,,,,,,,,,,,,,,,,,,,,,,,,,,,,,,,,,,,,,,,,,,,,,,,,,,,,,,,,,,,,,,,,,,,,,,,,,,,,,
,,64ae13e7175228ade1bbaeb6,2023-12-06_23h57.10.229,kallum_motion_pilot,2023.2.3,Win32,163.9344262,64ae13e7175228ade1bbaeb6,6560176e4d91f764e2a42c74,65715d07deac88baee067799,0.0269,0.027,0,89,89,95,1,eightseven,,,,,,,,,,,,,,,,,,,,,,,,,,,,,,,,,,,,,,,,,,,,,,,,,,,,,,,,,,,,,,,,,,,,,,,,,,,,,,,,,,,,,,,,,,,,,,,,,,,,,,,,,,,,,,,,,,,,,,,,,,,,,,,,,,,,,,,
,,64ae13e7175228ade1bbaeb6,2023-12-06_23h57.10.229,kallum_motion_pilot,2023.2.3,Win32,163.9344262,64ae13e7175228ade1bbaeb6,6560176e4d91f764e2a42c74,65715d07deac88baee067799,0.0271,0.0271,0,90,90,31,1,fourthree,,,,,,,,,,,,,,,,,,,,,,,,,,,,,,,,,,,,,,,,,,,,,,,,,,,,,,,,,,,,,,,,,,,,,,,,,,,,,,,,,,,,,,,,,,,,,,,,,,,,,,,,,,,,,,,,,,,,,,,,,,,,,,,,,,,,,,,
,,64ae13e7175228ade1bbaeb6,2023-12-06_23h57.10.229,kallum_motion_pilot,2023.2.3,Win32,163.9344262,64ae13e7175228ade1bbaeb6,6560176e4d91f764e2a42c74,65715d07deac88baee067799,0.0273,0.0273,0,91,91,158,1,eightsix,,,,,,,,,,,,,,,,,,,,,,,,,,,,,,,,,,,,,,,,,,,,,,,,,,,,,,,,,,,,,,,,,,,,,,,,,,,,,,,,,,,,,,,,,,,,,,,,,,,,,,,,,,,,,,,,,,,,,,,,,,,,,,,,,,,,,,,
,,64ae13e7175228ade1bbaeb6,2023-12-06_23h57.10.229,kallum_motion_pilot,2023.2.3,Win32,163.9344262,64ae13e7175228ade1bbaeb6,6560176e4d91f764e2a42c74,65715d07deac88baee067799,0.0273,0.0275,0,92,92,155,1,sixeight,,,,,,,,,,,,,,,,,,,,,,,,,,,,,,,,,,,,,,,,,,,,,,,,,,,,,,,,,,,,,,,,,,,,,,,,,,,,,,,,,,,,,,,,,,,,,,,,,,,,,,,,,,,,,,,,,,,,,,,,,,,,,,,,,,,,,,,
,,64ae13e7175228ade1bbaeb6,2023-12-06_23h57.10.229,kallum_motion_pilot,2023.2.3,Win32,163.9344262,64ae13e7175228ade1bbaeb6,6560176e4d91f764e2a42c74,65715d07deac88baee067799,0.0275,0.0275,0,93,93,57,1,onethree,,,,,,,,,,,,,,,,,,,,,,,,,,,,,,,,,,,,,,,,,,,,,,,,,,,,,,,,,,,,,,,,,,,,,,,,,,,,,,,,,,,,,,,,,,,,,,,,,,,,,,,,,,,,,,,,,,,,,,,,,,,,,,,,,,,,,,,
,,64ae13e7175228ade1bbaeb6,2023-12-06_23h57.10.229,kallum_motion_pilot,2023.2.3,Win32,163.9344262,64ae13e7175228ade1bbaeb6,6560176e4d91f764e2a42c74,65715d07deac88baee067799,0.0277,0.0277,0,94,94,112,1,fivesix,,,,,,,,,,,,,,,,,,,,,,,,,,,,,,,,,,,,,,,,,,,,,,,,,,,,,,,,,,,,,,,,,,,,,,,,,,,,,,,,,,,,,,,,,,,,,,,,,,,,,,,,,,,,,,,,,,,,,,,,,,,,,,,,,,,,,,,
,,64ae13e7175228ade1bbaeb6,2023-12-06_23h57.10.229,kallum_motion_pilot,2023.2.3,Win32,163.9344262,64ae13e7175228ade1bbaeb6,6560176e4d91f764e2a42c74,65715d07deac88baee067799,0.0279,0.0279,0,95,95,53,1,threefour,,,,,,,,,,,,,,,,,,,,,,,,,,,,,,,,,,,,,,,,,,,,,,,,,,,,,,,,,,,,,,,,,,,,,,,,,,,,,,,,,,,,,,,,,,,,,,,,,,,,,,,,,,,,,,,,,,,,,,,,,,,,,,,,,,,,,,,
,,64ae13e7175228ade1bbaeb6,2023-12-06_23h57.10.229,kallum_motion_pilot,2023.2.3,Win32,163.9344262,64ae13e7175228ade1bbaeb6,6560176e4d91f764e2a42c74,65715d07deac88baee067799,0.0279,0.028,0,96,96,25,1,onethree,,,,,,,,,,,,,,,,,,,,,,,,,,,,,,,,,,,,,,,,,,,,,,,,,,,,,,,,,,,,,,,,,,,,,,,,,,,,,,,,,,,,,,,,,,,,,,,,,,,,,,,,,,,,,,,,,,,,,,,,,,,,,,,,,,,,,,,
,,64ae13e7175228ade1bbaeb6,2023-12-06_23h57.10.229,kallum_motion_pilot,2023.2.3,Win32,163.9344262,64ae13e7175228ade1bbaeb6,6560176e4d91f764e2a42c74,65715d07deac88baee067799,0.028,0.0281,0,97,97,132,1,sevenfive,,,,,,,,,,,,,,,,,,,,,,,,,,,,,,,,,,,,,,,,,,,,,,,,,,,,,,,,,,,,,,,,,,,,,,,,,,,,,,,,,,,,,,,,,,,,,,,,,,,,,,,,,,,,,,,,,,,,,,,,,,,,,,,,,,,,,,,
,,64ae13e7175228ade1bbaeb6,2023-12-06_23h57.10.229,kallum_motion_pilot,2023.2.3,Win32,163.9344262,64ae13e7175228ade1bbaeb6,6560176e4d91f764e2a42c74,65715d07deac88baee067799,0.0281,0.0281,0,98,98,30,1,fourtwo,,,,,,,,,,,,,,,,,,,,,,,,,,,,,,,,,,,,,,,,,,,,,,,,,,,,,,,,,,,,,,,,,,,,,,,,,,,,,,,,,,,,,,,,,,,,,,,,,,,,,,,,,,,,,,,,,,,,,,,,,,,,,,,,,,,,,,,
,,64ae13e7175228ade1bbaeb6,2023-12-06_23h57.10.229,kallum_motion_pilot,2023.2.3,Win32,163.9344262,64ae13e7175228ade1bbaeb6,6560176e4d91f764e2a42c74,65715d07deac88baee067799,0.0283,0.0283,0,99,99,13,1,threefour,,,,,,,,,,,,,,,,,,,,,,,,,,,,,,,,,,,,,,,,,,,,,,,,,,,,,,,,,,,,,,,,,,,,,,,,,,,,,,,,,,,,,,,,,,,,,,,,,,,,,,,,,,,,,,,,,,,,,,,,,,,,,,,,,,,,,,,
,,64ae13e7175228ade1bbaeb6,2023-12-06_23h57.10.229,kallum_motion_pilot,2023.2.3,Win32,163.9344262,64ae13e7175228ade1bbaeb6,6560176e4d91f764e2a42c74,65715d07deac88baee067799,0.0284,0.0285,0,100,100,122,1,sixfive,,,,,,,,,,,,,,,,,,,,,,,,,,,,,,,,,,,,,,,,,,,,,,,,,,,,,,,,,,,,,,,,,,,,,,,,,,,,,,,,,,,,,,,,,,,,,,,,,,,,,,,,,,,,,,,,,,,,,,,,,,,,,,,,,,,,,,,
,,64ae13e7175228ade1bbaeb6,2023-12-06_23h57.10.229,kallum_motion_pilot,2023.2.3,Win32,163.9344262,64ae13e7175228ade1bbaeb6,6560176e4d91f764e2a42c74,65715d07deac88baee067799,0.0285,0.0285,0,101,101,15,1,fourthree,,,,,,,,,,,,,,,,,,,,,,,,,,,,,,,,,,,,,,,,,,,,,,,,,,,,,,,,,,,,,,,,,,,,,,,,,,,,,,,,,,,,,,,,,,,,,,,,,,,,,,,,,,,,,,,,,,,,,,,,,,,,,,,,,,,,,,,
,,64ae13e7175228ade1bbaeb6,2023-12-06_23h57.10.229,kallum_motion_pilot,2023.2.3,Win32,163.9344262,64ae13e7175228ade1bbaeb6,6560176e4d91f764e2a42c74,65715d07deac88baee067799,0.0286,0.0287,0,102,102,48,1,onetwo,,,,,,,,,,,,,,,,,,,,,,,,,,,,,,,,,,,,,,,,,,,,,,,,,,,,,,,,,,,,,,,,,,,,,,,,,,,,,,,,,,,,,,,,,,,,,,,,,,,,,,,,,,,,,,,,,,,,,,,,,,,,,,,,,,,,,,,
,,64ae13e7175228ade1bbaeb6,2023-12-06_23h57.10.229,kallum_motion_pilot,2023.2.3,Win32,163.9344262,64ae13e7175228ade1bbaeb6,6560176e4d91f764e2a42c74,65715d07deac88baee067799,0.0287,0.0287,0,103,103,93,1,seveneight,,,,,,,,,,,,,,,,,,,,,,,,,,,,,,,,,,,,,,,,,,,,,,,,,,,,,,,,,,,,,,,,,,,,,,,,,,,,,,,,,,,,,,,,,,,,,,,,,,,,,,,,,,,,,,,,,,,,,,,,,,,,,,,,,,,,,,,
,,64ae13e7175228ade1bbaeb6,2023-12-06_23h57.10.229,kallum_motion_pilot,2023.2.3,Win32,163.9344262,64ae13e7175228ade1bbaeb6,6560176e4d91f764e2a42c74,65715d07deac88baee067799,0.0288,0.0288,0,104,104,11,1,twofour,,,,,,,,,,,,,,,,,,,,,,,,,,,,,,,,,,,,,,,,,,,,,,,,,,,,,,,,,,,,,,,,,,,,,,,,,,,,,,,,,,,,,,,,,,,,,,,,,,,,,,,,,,,,,,,,,,,,,,,,,,,,,,,,,,,,,,,
,,64ae13e7175228ade1bbaeb6,2023-12-06_23h57.10.229,kallum_motion_pilot,2023.2.3,Win32,163.9344262,64ae13e7175228ade1bbaeb6,6560176e4d91f764e2a42c74,65715d07deac88baee067799,0.0288,0.0289,0,105,105,52,1,threeone,,,,,,,,,,,,,,,,,,,,,,,,,,,,,,,,,,,,,,,,,,,,,,,,,,,,,,,,,,,,,,,,,,,,,,,,,,,,,,,,,,,,,,,,,,,,,,,,,,,,,,,,,,,,,,,,,,,,,,,,,,,,,,,,,,,,,,,
,,64ae13e7175228ade1bbaeb6,2023-12-06_23h57.10.229,kallum_motion_pilot,2023.2.3,Win32,163.9344262,64ae13e7175228ade1bbaeb6,6560176e4d91f764e2a42c74,65715d07deac88baee067799,0.0289,0.0289,0,106,106,2,1,twoone,,,,,,,,,,,,,,,,,,,,,,,,,,,,,,,,,,,,,,,,,,,,,,,,,,,,,,,,,,,,,,,,,,,,,,,,,,,,,,,,,,,,,,,,,,,,,,,,,,,,,,,,,,,,,,,,,,,,,,,,,,,,,,,,,,,,,,,
,,64ae13e7175228ade1bbaeb6,2023-12-06_23h57.10.229,kallum_motion_pilot,2023.2.3,Win32,163.9344262,64ae13e7175228ade1bbaeb6,6560176e4d91f764e2a42c74,65715d07deac88baee067799,0.029,0.0298,0,107,107,96,1,fivesix,,,,,,,,,,,,,,,,,,,,,,,,,,,,,,,,,,,,,,,,,,,,,,,,,,,,,,,,,,,,,,,,,,,,,,,,,,,,,,,,,,,,,,,,,,,,,,,,,,,,,,,,,,,,,,,,,,,,,,,,,,,,,,,,,,,,,,,
,,64ae13e7175228ade1bbaeb6,2023-12-06_23h57.10.229,kallum_motion_pilot,2023.2.3,Win32,163.9344262,64ae13e7175228ade1bbaeb6,6560176e4d91f764e2a42c74,65715d07deac88baee067799,0.0299,0.03,0,108,108,136,1,fivesix,,,,,,,,,,,,,,,,,,,,,,,,,,,,,,,,,,,,,,,,,,,,,,,,,,,,,,,,,,,,,,,,,,,,,,,,,,,,,,,,,,,,,,,,,,,,,,,,,,,,,,,,,,,,,,,,,,,,,,,,,,,,,,,,,,,,,,,
,,64ae13e7175228ade1bbaeb6,2023-12-06_23h57.10.229,kallum_motion_pilot,2023.2.3,Win32,163.9344262,64ae13e7175228ade1bbaeb6,6560176e4d91f764e2a42c74,65715d07deac88baee067799,0.0301,0.0301,0,109,109,107,1,sixeight,,,,,,,,,,,,,,,,,,,,,,,,,,,,,,,,,,,,,,,,,,,,,,,,,,,,,,,,,,,,,,,,,,,,,,,,,,,,,,,,,,,,,,,,,,,,,,,,,,,,,,,,,,,,,,,,,,,,,,,,,,,,,,,,,,,,,,,
,,64ae13e7175228ade1bbaeb6,2023-12-06_23h57.10.229,kallum_motion_pilot,2023.2.3,Win32,163.9344262,64ae13e7175228ade1bbaeb6,6560176e4d91f764e2a42c74,65715d07deac88baee067799,0.0302,0.0302,0,110,110,0,1,onetwo,,,,,,,,,,,,,,,,,,,,,,,,,,,,,,,,,,,,,,,,,,,,,,,,,,,,,,,,,,,,,,,,,,,,,,,,,,,,,,,,,,,,,,,,,,,,,,,,,,,,,,,,,,,,,,,,,,,,,,,,,,,,,,,,,,,,,,,
,,64ae13e7175228ade1bbaeb6,2023-12-06_23h57.10.229,kallum_motion_pilot,2023.2.3,Win32,163.9344262,64ae13e7175228ade1bbaeb6,6560176e4d91f764e2a42c74,65715d07deac88baee067799,0.0302,0.0303,0,111,111,116,1,sevenfive,,,,,,,,,,,,,,,,,,,,,,,,,,,,,,,,,,,,,,,,,,,,,,,,,,,,,,,,,,,,,,,,,,,,,,,,,,,,,,,,,,,,,,,,,,,,,,,,,,,,,,,,,,,,,,,,,,,,,,,,,,,,,,,,,,,,,,,
,,64ae13e7175228ade1bbaeb6,2023-12-06_23h57.10.229,kallum_motion_pilot,2023.2.3,Win32,163.9344262,64ae13e7175228ade1bbaeb6,6560176e4d91f764e2a42c74,65715d07deac88baee067799,0.0303,0.0303,0,112,112,120,1,fivesix,,,,,,,,,,,,,,,,,,,,,,,,,,,,,,,,,,,,,,,,,,,,,,,,,,,,,,,,,,,,,,,,,,,,,,,,,,,,,,,,,,,,,,,,,,,,,,,,,,,,,,,,,,,,,,,,,,,,,,,,,,,,,,,,,,,,,,,
,,64ae13e7175228ade1bbaeb6,2023-12-06_23h57.10.229,kallum_motion_pilot,2023.2.3,Win32,163.9344262,64ae13e7175228ade1bbaeb6,6560176e4d91f764e2a42c74,65715d07deac88baee067799,0.0304,0.0305,0,113,113,89,1,fiveseven,,,,,,,,,,,,,,,,,,,,,,,,,,,,,,,,,,,,,,,,,,,,,,,,,,,,,,,,,,,,,,,,,,,,,,,,,,,,,,,,,,,,,,,,,,,,,,,,,,,,,,,,,,,,,,,,,,,,,,,,,,,,,,,,,,,,,,,
,,64ae13e7175228ade1bbaeb6,2023-12-06_23h57.10.229,kallum_motion_pilot,2023.2.3,Win32,163.9344262,64ae13e7175228ade1bbaeb6,6560176e4d91f764e2a42c74,65715d07deac88baee067799,0.0305,0.0305,0,114,114,26,1,twoone,,,,,,,,,,,,,,,,,,,,,,,,,,,,,,,,,,,,,,,,,,,,,,,,,,,,,,,,,,,,,,,,,,,,,,,,,,,,,,,,,,,,,,,,,,,,,,,,,,,,,,,,,,,,,,,,,,,,,,,,,,,,,,,,,,,,,,,
,,64ae13e7175228ade1bbaeb6,2023-12-06_23h57.10.229,kallum_motion_pilot,2023.2.3,Win32,163.9344262,64ae13e7175228ade1bbaeb6,6560176e4d91f764e2a42c74,65715d07deac88baee067799,0.0306,0.0306,0,115,115,138,1,sixfive,,,,,,,,,,,,,,,,,,,,,,,,,,,,,,,,,,,,,,,,,,,,,,,,,,,,,,,,,,,,,,,,,,,,,,,,,,,,,,,,,,,,,,,,,,,,,,,,,,,,,,,,,,,,,,,,,,,,,,,,,,,,,,,,,,,,,,,
,,64ae13e7175228ade1bbaeb6,2023-12-06_23h57.10.229,kallum_motion_pilot,2023.2.3,Win32,163.9344262,64ae13e7175228ade1bbaeb6,6560176e4d91f764e2a42c74,65715d07deac88baee067799,0.0307,0.0307,0,116,116,80,1,fivesix,,,,,,,,,,,,,,,,,,,,,,,,,,,,,,,,,,,,,,,,,,,,,,,,,,,,,,,,,,,,,,,,,,,,,,,,,,,,,,,,,,,,,,,,,,,,,,,,,,,,,,,,,,,,,,,,,,,,,,,,,,,,,,,,,,,,,,,
,,64ae13e7175228ade1bbaeb6,2023-12-06_23h57.10.229,kallum_motion_pilot,2023.2.3,Win32,163.9344262,64ae13e7175228ade1bbaeb6,6560176e4d91f764e2a42c74,65715d07deac88baee067799,0.0307,0.0308,0,117,117,106,1,sixfive,,,,,,,,,,,,,,,,,,,,,,,,,,,,,,,,,,,,,,,,,,,,,,,,,,,,,,,,,,,,,,,,,,,,,,,,,,,,,,,,,,,,,,,,,,,,,,,,,,,,,,,,,,,,,,,,,,,,,,,,,,,,,,,,,,,,,,,
,,64ae13e7175228ade1bbaeb6,2023-12-06_23h57.10.229,kallum_motion_pilot,2023.2.3,Win32,163.9344262,64ae13e7175228ade1bbaeb6,6560176e4d91f764e2a42c74,65715d07deac88baee067799,0.0308,0.0309,0,118,118,130,1,sixfive,,,,,,,,,,,,,,,,,,,,,,,,,,,,,,,,,,,,,,,,,,,,,,,,,,,,,,,,,,,,,,,,,,,,,,,,,,,,,,,,,,,,,,,,,,,,,,,,,,,,,,,,,,,,,,,,,,,,,,,,,,,,,,,,,,,,,,,
,,64ae13e7175228ade1bbaeb6,2023-12-06_23h57.10.229,kallum_motion_pilot,2023.2.3,Win32,163.9344262,64ae13e7175228ade1bbaeb6,6560176e4d91f764e2a42c74,65715d07deac88baee067799,0.031,0.031,0,119,119,92,1,sevenfive,,,,,,,,,,,,,,,,,,,,,,,,,,,,,,,,,,,,,,,,,,,,,,,,,,,,,,,,,,,,,,,,,,,,,,,,,,,,,,,,,,,,,,,,,,,,,,,,,,,,,,,,,,,,,,,,,,,,,,,,,,,,,,,,,,,,,,,
,,64ae13e7175228ade1bbaeb6,2023-12-06_23h57.10.229,kallum_motion_pilot,2023.2.3,Win32,163.9344262,64ae13e7175228ade1bbaeb6,6560176e4d91f764e2a42c74,65715d07deac88baee067799,0.0311,0.0311,0,120,120,75,1,twofour,,,,,,,,,,,,,,,,,,,,,,,,,,,,,,,,,,,,,,,,,,,,,,,,,,,,,,,,,,,,,,,,,,,,,,,,,,,,,,,,,,,,,,,,,,,,,,,,,,,,,,,,,,,,,,,,,,,,,,,,,,,,,,,,,,,,,,,
,,64ae13e7175228ade1bbaeb6,2023-12-06_23h57.10.229,kallum_motion_pilot,2023.2.3,Win32,163.9344262,64ae13e7175228ade1bbaeb6,6560176e4d91f764e2a42c74,65715d07deac88baee067799,0.0311,0.0312,0,121,121,71,1,fourthree,,,,,,,,,,,,,,,,,,,,,,,,,,,,,,,,,,,,,,,,,,,,,,,,,,,,,,,,,,,,,,,,,,,,,,,,,,,,,,,,,,,,,,,,,,,,,,,,,,,,,,,,,,,,,,,,,,,,,,,,,,,,,,,,,,,,,,,
,,64ae13e7175228ade1bbaeb6,2023-12-06_23h57.10.229,kallum_motion_pilot,2023.2.3,Win32,163.9344262,64ae13e7175228ade1bbaeb6,6560176e4d91f764e2a42c74,65715d07deac88baee067799,0.0312,0.0313,0,122,122,118,1,eightsix,,,,,,,,,,,,,,,,,,,,,,,,,,,,,,,,,,,,,,,,,,,,,,,,,,,,,,,,,,,,,,,,,,,,,,,,,,,,,,,,,,,,,,,,,,,,,,,,,,,,,,,,,,,,,,,,,,,,,,,,,,,,,,,,,,,,,,,
,,64ae13e7175228ade1bbaeb6,2023-12-06_23h57.10.229,kallum_motion_pilot,2023.2.3,Win32,163.9344262,64ae13e7175228ade1bbaeb6,6560176e4d91f764e2a42c74,65715d07deac88baee067799,0.0313,0.0313,0,123,123,135,1,eightseven,,,,,,,,,,,,,,,,,,,,,,,,,,,,,,,,,,,,,,,,,,,,,,,,,,,,,,,,,,,,,,,,,,,,,,,,,,,,,,,,,,,,,,,,,,,,,,,,,,,,,,,,,,,,,,,,,,,,,,,,,,,,,,,,,,,,,,,
,,64ae13e7175228ade1bbaeb6,2023-12-06_23h57.10.229,kallum_motion_pilot,2023.2.3,Win32,163.9344262,64ae13e7175228ade1bbaeb6,6560176e4d91f764e2a42c74,65715d07deac88baee067799,0.0314,0.0314,0,124,124,58,1,twoone,,,,,,,,,,,,,,,,,,,,,,,,,,,,,,,,,,,,,,,,,,,,,,,,,,,,,,,,,,,,,,,,,,,,,,,,,,,,,,,,,,,,,,,,,,,,,,,,,,,,,,,,,,,,,,,,,,,,,,,,,,,,,,,,,,,,,,,
,,64ae13e7175228ade1bbaeb6,2023-12-06_23h57.10.229,kallum_motion_pilot,2023.2.3,Win32,163.9344262,64ae13e7175228ade1bbaeb6,6560176e4d91f764e2a42c74,65715d07deac88baee067799,0.0315,0.0316,0,125,125,147,1,sixeight,,,,,,,,,,,,,,,,,,,,,,,,,,,,,,,,,,,,,,,,,,,,,,,,,,,,,,,,,,,,,,,,,,,,,,,,,,,,,,,,,,,,,,,,,,,,,,,,,,,,,,,,,,,,,,,,,,,,,,,,,,,,,,,,,,,,,,,
,,64ae13e7175228ade1bbaeb6,2023-12-06_23h57.10.229,kallum_motion_pilot,2023.2.3,Win32,163.9344262,64ae13e7175228ade1bbaeb6,6560176e4d91f764e2a42c74,65715d07deac88baee067799,0.0316,0.0317,0,126,126,101,1,seveneight,,,,,,,,,,,,,,,,,,,,,,,,,,,,,,,,,,,,,,,,,,,,,,,,,,,,,,,,,,,,,,,,,,,,,,,,,,,,,,,,,,,,,,,,,,,,,,,,,,,,,,,,,,,,,,,,,,,,,,,,,,,,,,,,,,,,,,,
,,64ae13e7175228ade1bbaeb6,2023-12-06_23h57.10.229,kallum_motion_pilot,2023.2.3,Win32,163.9344262,64ae13e7175228ade1bbaeb6,6560176e4d91f764e2a42c74,65715d07deac88baee067799,0.0317,0.0317,0,127,127,68,1,threeone,,,,,,,,,,,,,,,,,,,,,,,,,,,,,,,,,,,,,,,,,,,,,,,,,,,,,,,,,,,,,,,,,,,,,,,,,,,,,,,,,,,,,,,,,,,,,,,,,,,,,,,,,,,,,,,,,,,,,,,,,,,,,,,,,,,,,,,
,,64ae13e7175228ade1bbaeb6,2023-12-06_23h57.10.229,kallum_motion_pilot,2023.2.3,Win32,163.9344262,64ae13e7175228ade1bbaeb6,6560176e4d91f764e2a42c74,65715d07deac88baee067799,0.0319,0.0319,0,128,128,54,1,fourtwo,,,,,,,,,,,,,,,,,,,,,,,,,,,,,,,,,,,,,,,,,,,,,,,,,,,,,,,,,,,,,,,,,,,,,,,,,,,,,,,,,,,,,,,,,,,,,,,,,,,,,,,,,,,,,,,,,,,,,,,,,,,,,,,,,,,,,,,
,,64ae13e7175228ade1bbaeb6,2023-12-06_23h57.10.229,kallum_motion_pilot,2023.2.3,Win32,163.9344262,64ae13e7175228ade1bbaeb6,6560176e4d91f764e2a42c74,65715d07deac88baee067799,0.0319,0.032,0,129,129,8,1,onetwo,,,,,,,,,,,,,,,,,,,,,,,,,,,,,,,,,,,,,,,,,,,,,,,,,,,,,,,,,,,,,,,,,,,,,,,,,,,,,,,,,,,,,,,,,,,,,,,,,,,,,,,,,,,,,,,,,,,,,,,,,,,,,,,,,,,,,,,
,,64ae13e7175228ade1bbaeb6,2023-12-06_23h57.10.229,kallum_motion_pilot,2023.2.3,Win32,163.9344262,64ae13e7175228ade1bbaeb6,6560176e4d91f764e2a42c74,65715d07deac88baee067799,0.0321,0.0321,0,130,130,45,1,threefour,,,,,,,,,,,,,,,,,,,,,,,,,,,,,,,,,,,,,,,,,,,,,,,,,,,,,,,,,,,,,,,,,,,,,,,,,,,,,,,,,,,,,,,,,,,,,,,,,,,,,,,,,,,,,,,,,,,,,,,,,,,,,,,,,,,,,,,
,,64ae13e7175228ade1bbaeb6,2023-12-06_23h57.10.229,kallum_motion_pilot,2023.2.3,Win32,163.9344262,64ae13e7175228ade1bbaeb6,6560176e4d91f764e2a42c74,65715d07deac88baee067799,0.0321,0.0322,0,131,131,74,1,twoone,,,,,,,,,,,,,,,,,,,,,,,,,,,,,,,,,,,,,,,,,,,,,,,,,,,,,,,,,,,,,,,,,,,,,,,,,,,,,,,,,,,,,,,,,,,,,,,,,,,,,,,,,,,,,,,,,,,,,,,,,,,,,,,,,,,,,,,
,,64ae13e7175228ade1bbaeb6,2023-12-06_23h57.10.229,kallum_motion_pilot,2023.2.3,Win32,163.9344262,64ae13e7175228ade1bbaeb6,6560176e4d91f764e2a42c74,65715d07deac88baee067799,0.0323,0.0324,0,132,132,123,1,sixeight,,,,,,,,,,,,,,,,,,,,,,,,,,,,,,,,,,,,,,,,,,,,,,,,,,,,,,,,,,,,,,,,,,,,,,,,,,,,,,,,,,,,,,,,,,,,,,,,,,,,,,,,,,,,,,,,,,,,,,,,,,,,,,,,,,,,,,,
,,64ae13e7175228ade1bbaeb6,2023-12-06_23h57.10.229,kallum_motion_pilot,2023.2.3,Win32,163.9344262,64ae13e7175228ade1bbaeb6,6560176e4d91f764e2a42c74,65715d07deac88baee067799,0.0324,0.0325,0,133,133,141,1,seveneight,,,,,,,,,,,,,,,,,,,,,,,,,,,,,,,,,,,,,,,,,,,,,,,,,,,,,,,,,,,,,,,,,,,,,,,,,,,,,,,,,,,,,,,,,,,,,,,,,,,,,,,,,,,,,,,,,,,,,,,,,,,,,,,,,,,,,,,
,,64ae13e7175228ade1bbaeb6,2023-12-06_23h57.10.229,kallum_motion_pilot,2023.2.3,Win32,163.9344262,64ae13e7175228ade1bbaeb6,6560176e4d91f764e2a42c74,65715d07deac88baee067799,0.0325,0.0326,0,134,134,127,1,eightseven,,,,,,,,,,,,,,,,,,,,,,,,,,,,,,,,,,,,,,,,,,,,,,,,,,,,,,,,,,,,,,,,,,,,,,,,,,,,,,,,,,,,,,,,,,,,,,,,,,,,,,,,,,,,,,,,,,,,,,,,,,,,,,,,,,,,,,,
,,64ae13e7175228ade1bbaeb6,2023-12-06_23h57.10.229,kallum_motion_pilot,2023.2.3,Win32,163.9344262,64ae13e7175228ade1bbaeb6,6560176e4d91f764e2a42c74,65715d07deac88baee067799,0.0327,0.0328,0,135,135,86,1,eightsix,,,,,,,,,,,,,,,,,,,,,,,,,,,,,,,,,,,,,,,,,,,,,,,,,,,,,,,,,,,,,,,,,,,,,,,,,,,,,,,,,,,,,,,,,,,,,,,,,,,,,,,,,,,,,,,,,,,,,,,,,,,,,,,,,,,,,,,
,,64ae13e7175228ade1bbaeb6,2023-12-06_23h57.10.229,kallum_motion_pilot,2023.2.3,Win32,163.9344262,64ae13e7175228ade1bbaeb6,6560176e4d91f764e2a42c74,65715d07deac88baee067799,0.0328,0.0328,0,136,136,21,1,threefour,,,,,,,,,,,,,,,,,,,,,,,,,,,,,,,,,,,,,,,,,,,,,,,,,,,,,,,,,,,,,,,,,,,,,,,,,,,,,,,,,,,,,,,,,,,,,,,,,,,,,,,,,,,,,,,,,,,,,,,,,,,,,,,,,,,,,,,
,,64ae13e7175228ade1bbaeb6,2023-12-06_23h57.10.229,kallum_motion_pilot,2023.2.3,Win32,163.9344262,64ae13e7175228ade1bbaeb6,6560176e4d91f764e2a42c74,65715d07deac88baee067799,0.0329,0.033,0,137,137,70,1,fourtwo,,,,,,,,,,,,,,,,,,,,,,,,,,,,,,,,,,,,,,,,,,,,,,,,,,,,,,,,,,,,,,,,,,,,,,,,,,,,,,,,,,,,,,,,,,,,,,,,,,,,,,,,,,,,,,,,,,,,,,,,,,,,,,,,,,,,,,,
,,64ae13e7175228ade1bbaeb6,2023-12-06_23h57.10.229,kallum_motion_pilot,2023.2.3,Win32,163.9344262,64ae13e7175228ade1bbaeb6,6560176e4d91f764e2a42c74,65715d07deac88baee067799,0.0331,0.0331,0,138,138,16,1,onetwo,,,,,,,,,,,,,,,,,,,,,,,,,,,,,,,,,,,,,,,,,,,,,,,,,,,,,,,,,,,,,,,,,,,,,,,,,,,,,,,,,,,,,,,,,,,,,,,,,,,,,,,,,,,,,,,,,,,,,,,,,,,,,,,,,,,,,,,
,,64ae13e7175228ade1bbaeb6,2023-12-06_23h57.10.229,kallum_motion_pilot,2023.2.3,Win32,163.9344262,64ae13e7175228ade1bbaeb6,6560176e4d91f764e2a42c74,65715d07deac88baee067799,0.0332,0.0332,0,139,139,22,1,fourtwo,,,,,,,,,,,,,,,,,,,,,,,,,,,,,,,,,,,,,,,,,,,,,,,,,,,,,,,,,,,,,,,,,,,,,,,,,,,,,,,,,,,,,,,,,,,,,,,,,,,,,,,,,,,,,,,,,,,,,,,,,,,,,,,,,,,,,,,
,,64ae13e7175228ade1bbaeb6,2023-12-06_23h57.10.229,kallum_motion_pilot,2023.2.3,Win32,163.9344262,64ae13e7175228ade1bbaeb6,6560176e4d91f764e2a42c74,65715d07deac88baee067799,0.0333,0.0334,0,140,140,114,1,sixfive,,,,,,,,,,,,,,,,,,,,,,,,,,,,,,,,,,,,,,,,,,,,,,,,,,,,,,,,,,,,,,,,,,,,,,,,,,,,,,,,,,,,,,,,,,,,,,,,,,,,,,,,,,,,,,,,,,,,,,,,,,,,,,,,,,,,,,,
,,64ae13e7175228ade1bbaeb6,2023-12-06_23h57.10.229,kallum_motion_pilot,2023.2.3,Win32,163.9344262,64ae13e7175228ade1bbaeb6,6560176e4d91f764e2a42c74,65715d07deac88baee067799,0.0335,0.0335,0,141,141,97,1,fiveseven,,,,,,,,,,,,,,,,,,,,,,,,,,,,,,,,,,,,,,,,,,,,,,,,,,,,,,,,,,,,,,,,,,,,,,,,,,,,,,,,,,,,,,,,,,,,,,,,,,,,,,,,,,,,,,,,,,,,,,,,,,,,,,,,,,,,,,,
,,64ae13e7175228ade1bbaeb6,2023-12-06_23h57.10.229,kallum_motion_pilot,2023.2.3,Win32,163.9344262,64ae13e7175228ade1bbaeb6,6560176e4d91f764e2a42c74,65715d07deac88baee067799,0.0336,0.0336,0,142,142,151,1,eightseven,,,,,,,,,,,,,,,,,,,,,,,,,,,,,,,,,,,,,,,,,,,,,,,,,,,,,,,,,,,,,,,,,,,,,,,,,,,,,,,,,,,,,,,,,,,,,,,,,,,,,,,,,,,,,,,,,,,,,,,,,,,,,,,,,,,,,,,
,,64ae13e7175228ade1bbaeb6,2023-12-06_23h57.10.229,kallum_motion_pilot,2023.2.3,Win32,163.9344262,64ae13e7175228ade1bbaeb6,6560176e4d91f764e2a42c74,65715d07deac88baee067799,0.0336,0.0337,0,143,143,1,1,onethree,,,,,,,,,,,,,,,,,,,,,,,,,,,,,,,,,,,,,,,,,,,,,,,,,,,,,,,,,,,,,,,,,,,,,,,,,,,,,,,,,,,,,,,,,,,,,,,,,,,,,,,,,,,,,,,,,,,,,,,,,,,,,,,,,,,,,,,
,,64ae13e7175228ade1bbaeb6,2023-12-06_23h57.10.229,kallum_motion_pilot,2023.2.3,Win32,163.9344262,64ae13e7175228ade1bbaeb6,6560176e4d91f764e2a42c74,65715d07deac88baee067799,0.0338,0.0339,0,144,144,29,1,threefour,,,,,,,,,,,,,,,,,,,,,,,,,,,,,,,,,,,,,,,,,,,,,,,,,,,,,,,,,,,,,,,,,,,,,,,,,,,,,,,,,,,,,,,,,,,,,,,,,,,,,,,,,,,,,,,,,,,,,,,,,,,,,,,,,,,,,,,
,,64ae13e7175228ade1bbaeb6,2023-12-06_23h57.10.229,kallum_motion_pilot,2023.2.3,Win32,163.9344262,64ae13e7175228ade1bbaeb6,6560176e4d91f764e2a42c74,65715d07deac88baee067799,0.034,0.034,0,145,145,152,1,fivesix,,,,,,,,,,,,,,,,,,,,,,,,,,,,,,,,,,,,,,,,,,,,,,,,,,,,,,,,,,,,,,,,,,,,,,,,,,,,,,,,,,,,,,,,,,,,,,,,,,,,,,,,,,,,,,,,,,,,,,,,,,,,,,,,,,,,,,,
,,64ae13e7175228ade1bbaeb6,2023-12-06_23h57.10.229,kallum_motion_pilot,2023.2.3,Win32,163.9344262,64ae13e7175228ade1bbaeb6,6560176e4d91f764e2a42c74,65715d07deac88baee067799,0.034,0.0341,0,146,146,156,1,sevenfive,,,,,,,,,,,,,,,,,,,,,,,,,,,,,,,,,,,,,,,,,,,,,,,,,,,,,,,,,,,,,,,,,,,,,,,,,,,,,,,,,,,,,,,,,,,,,,,,,,,,,,,,,,,,,,,,,,,,,,,,,,,,,,,,,,,,,,,
,,64ae13e7175228ade1bbaeb6,2023-12-06_23h57.10.229,kallum_motion_pilot,2023.2.3,Win32,163.9344262,64ae13e7175228ade1bbaeb6,6560176e4d91f764e2a42c74,65715d07deac88baee067799,0.0342,0.0343,0,147,147,62,1,fourtwo,,,,,,,,,,,,,,,,,,,,,,,,,,,,,,,,,,,,,,,,,,,,,,,,,,,,,,,,,,,,,,,,,,,,,,,,,,,,,,,,,,,,,,,,,,,,,,,,,,,,,,,,,,,,,,,,,,,,,,,,,,,,,,,,,,,,,,,
,,64ae13e7175228ade1bbaeb6,2023-12-06_23h57.10.229,kallum_motion_pilot,2023.2.3,Win32,163.9344262,64ae13e7175228ade1bbaeb6,6560176e4d91f764e2a42c74,65715d07deac88baee067799,0.0343,0.0344,0,148,148,160,1,fivesix,,,,,,,,,,,,,,,,,,,,,,,,,,,,,,,,,,,,,,,,,,,,,,,,,,,,,,,,,,,,,,,,,,,,,,,,,,,,,,,,,,,,,,,,,,,,,,,,,,,,,,,,,,,,,,,,,,,,,,,,,,,,,,,,,,,,,,,
,,64ae13e7175228ade1bbaeb6,2023-12-06_23h57.10.229,kallum_motion_pilot,2023.2.3,Win32,163.9344262,64ae13e7175228ade1bbaeb6,6560176e4d91f764e2a42c74,65715d07deac88baee067799,0.0344,0.0345,0,149,149,117,1,seveneight,,,,,,,,,,,,,,,,,,,,,,,,,,,,,,,,,,,,,,,,,,,,,,,,,,,,,,,,,,,,,,,,,,,,,,,,,,,,,,,,,,,,,,,,,,,,,,,,,,,,,,,,,,,,,,,,,,,,,,,,,,,,,,,,,,,,,,,
,,64ae13e7175228ade1bbaeb6,2023-12-06_23h57.10.229,kallum_motion_pilot,2023.2.3,Win32,163.9344262,64ae13e7175228ade1bbaeb6,6560176e4d91f764e2a42c74,65715d07deac88baee067799,0.0346,0.0347,0,150,150,142,1,eightsix,,,,,,,,,,,,,,,,,,,,,,,,,,,,,,,,,,,,,,,,,,,,,,,,,,,,,,,,,,,,,,,,,,,,,,,,,,,,,,,,,,,,,,,,,,,,,,,,,,,,,,,,,,,,,,,,,,,,,,,,,,,,,,,,,,,,,,,
,,64ae13e7175228ade1bbaeb6,2023-12-06_23h57.10.229,kallum_motion_pilot,2023.2.3,Win32,163.9344262,64ae13e7175228ade1bbaeb6,6560176e4d91f764e2a42c74,65715d07deac88baee067799,0.0347,0.0348,0,151,151,43,1,twofour,,,,,,,,,,,,,,,,,,,,,,,,,,,,,,,,,,,,,,,,,,,,,,,,,,,,,,,,,,,,,,,,,,,,,,,,,,,,,,,,,,,,,,,,,,,,,,,,,,,,,,,,,,,,,,,,,,,,,,,,,,,,,,,,,,,,,,,
,,64ae13e7175228ade1bbaeb6,2023-12-06_23h57.10.229,kallum_motion_pilot,2023.2.3,Win32,163.9344262,64ae13e7175228ade1bbaeb6,6560176e4d91f764e2a42c74,65715d07deac88baee067799,0.0348,0.0349,0,152,152,17,1,onethree,,,,,,,,,,,,,,,,,,,,,,,,,,,,,,,,,,,,,,,,,,,,,,,,,,,,,,,,,,,,,,,,,,,,,,,,,,,,,,,,,,,,,,,,,,,,,,,,,,,,,,,,,,,,,,,,,,,,,,,,,,,,,,,,,,,,,,,
,,64ae13e7175228ade1bbaeb6,2023-12-06_23h57.10.229,kallum_motion_pilot,2023.2.3,Win32,163.9344262,64ae13e7175228ade1bbaeb6,6560176e4d91f764e2a42c74,65715d07deac88baee067799,0.035,0.035,0,153,153,49,1,onethree,,,,,,,,,,,,,,,,,,,,,,,,,,,,,,,,,,,,,,,,,,,,,,,,,,,,,,,,,,,,,,,,,,,,,,,,,,,,,,,,,,,,,,,,,,,,,,,,,,,,,,,,,,,,,,,,,,,,,,,,,,,,,,,,,,,,,,,
,,64ae13e7175228ade1bbaeb6,2023-12-06_23h57.10.229,kallum_motion_pilot,2023.2.3,Win32,163.9344262,64ae13e7175228ade1bbaeb6,6560176e4d91f764e2a42c74,65715d07deac88baee067799,0.0351,0.0352,0,154,154,149,1,seveneight,,,,,,,,,,,,,,,,,,,,,,,,,,,,,,,,,,,,,,,,,,,,,,,,,,,,,,,,,,,,,,,,,,,,,,,,,,,,,,,,,,,,,,,,,,,,,,,,,,,,,,,,,,,,,,,,,,,,,,,,,,,,,,,,,,,,,,,
,,64ae13e7175228ade1bbaeb6,2023-12-06_23h57.10.229,kallum_motion_pilot,2023.2.3,Win32,163.9344262,64ae13e7175228ade1bbaeb6,6560176e4d91f764e2a42c74,65715d07deac88baee067799,0.0353,0.0354,0,155,155,69,1,threefour,,,,,,,,,,,,,,,,,,,,,,,,,,,,,,,,,,,,,,,,,,,,,,,,,,,,,,,,,,,,,,,,,,,,,,,,,,,,,,,,,,,,,,,,,,,,,,,,,,,,,,,,,,,,,,,,,,,,,,,,,,,,,,,,,,,,,,,
,,64ae13e7175228ade1bbaeb6,2023-12-06_23h57.10.229,kallum_motion_pilot,2023.2.3,Win32,163.9344262,64ae13e7175228ade1bbaeb6,6560176e4d91f764e2a42c74,65715d07deac88baee067799,0.0354,0.0354,0,156,156,143,1,eightseven,,,,,,,,,,,,,,,,,,,,,,,,,,,,,,,,,,,,,,,,,,,,,,,,,,,,,,,,,,,,,,,,,,,,,,,,,,,,,,,,,,,,,,,,,,,,,,,,,,,,,,,,,,,,,,,,,,,,,,,,,,,,,,,,,,,,,,,
,,64ae13e7175228ade1bbaeb6,2023-12-06_23h57.10.229,kallum_motion_pilot,2023.2.3,Win32,163.9344262,64ae13e7175228ade1bbaeb6,6560176e4d91f764e2a42c74,65715d07deac88baee067799,0.0355,0.0356,0,157,157,47,1,fourthree,,,,,,,,,,,,,,,,,,,,,,,,,,,,,,,,,,,,,,,,,,,,,,,,,,,,,,,,,,,,,,,,,,,,,,,,,,,,,,,,,,,,,,,,,,,,,,,,,,,,,,,,,,,,,,,,,,,,,,,,,,,,,,,,,,,,,,,
,,64ae13e7175228ade1bbaeb6,2023-12-06_23h57.10.229,kallum_motion_pilot,2023.2.3,Win32,163.9344262,64ae13e7175228ade1bbaeb6,6560176e4d91f764e2a42c74,65715d07deac88baee067799,0.0357,0.0357,0,158,158,7,1,fourthree,,,,,,,,,,,,,,,,,,,,,,,,,,,,,,,,,,,,,,,,,,,,,,,,,,,,,,,,,,,,,,,,,,,,,,,,,,,,,,,,,,,,,,,,,,,,,,,,,,,,,,,,,,,,,,,,,,,,,,,,,,,,,,,,,,,,,,,
,,64ae13e7175228ade1bbaeb6,2023-12-06_23h57.10.229,kallum_motion_pilot,2023.2.3,Win32,163.9344262,64ae13e7175228ade1bbaeb6,6560176e4d91f764e2a42c74,65715d07deac88baee067799,0.0358,0.0359,0,159,159,90,1,sixfive,,,,,,,,,,,,,,,,,,,,,,,,,,,,,,,,,,,,,,,,,,,,,,,,,,,,,,,,,,,,,,,,,,,,,,,,,,,,,,,,,,,,,,,,,,,,,,,,,,,,,,,,,,,,,,,,,,,,,,,,,,,,,,,,,,,,,,,
,,64ae13e7175228ade1bbaeb6,2023-12-06_23h57.10.229,kallum_motion_pilot,2023.2.3,Win32,163.9344262,64ae13e7175228ade1bbaeb6,6560176e4d91f764e2a42c74,65715d07deac88baee067799,0.0359,0.0359,0,160,160,72,1,onetwo,,,,,,,,,,,,,,,,,,,,,,,,,,,,,,,,,,,,,,,,,,,,,,,,,,,,,,,,,,,,,,,,,,,,,,,,,,,,,,,,,,,,,,,,,,,,,,,,,,,,,,,,,,,,,,,,,,,,,,,,,,,,,,,,,,,,,,,
,,64ae13e7175228ade1bbaeb6,2023-12-06_23h57.10.229,kallum_motion_pilot,2023.2.3,Win32,163.9344262,64ae13e7175228ade1bbaeb6,6560176e4d91f764e2a42c74,65715d07deac88baee067799,0.036,0.0361,0,161,161,73,1,onethree,,,,,,,,,,,,,,,,,,,,,,,,,,,,,,,,,,,,,,,,,,,,,,,,,,,,,,,,,,,,,,,,,,,,,,,,,,,,,,,,,,,,,,,,,,,,,,,,,,,,,,,,,,,,,,,,,,,,,,,,,,,,,,,,,,,,,,,
,,64ae13e7175228ade1bbaeb6,2023-12-06_23h57.10.229,kallum_motion_pilot,2023.2.3,Win32,163.9344262,64ae13e7175228ade1bbaeb6,6560176e4d91f764e2a42c74,65715d07deac88baee067799,0.0362,0.0362,1,0,162,21,1,threefour,,,,,,,,,,,,,,,,,,,,,,,,,,,,,,,,,,,,,,,,,,,,,,,,,,,,,,,,,,,,,,,,,,,,,,,,,,,,,,,,,,,,,,,,,,,,,,,,,,,,,,,,,,,,,,,,,,,,,,,,,,,,,,,,,,,,,,,
,,64ae13e7175228ade1bbaeb6,2023-12-06_23h57.10.229,kallum_motion_pilot,2023.2.3,Win32,163.9344262,64ae13e7175228ade1bbaeb6,6560176e4d91f764e2a42c74,65715d07deac88baee067799,0.0363,0.0364,1,1,163,103,1,eightseven,,,,,,,,,,,,,,,,,,,,,,,,,,,,,,,,,,,,,,,,,,,,,,,,,,,,,,,,,,,,,,,,,,,,,,,,,,,,,,,,,,,,,,,,,,,,,,,,,,,,,,,,,,,,,,,,,,,,,,,,,,,,,,,,,,,,,,,
,,64ae13e7175228ade1bbaeb6,2023-12-06_23h57.10.229,kallum_motion_pilot,2023.2.3,Win32,163.9344262,64ae13e7175228ade1bbaeb6,6560176e4d91f764e2a42c74,65715d07deac88baee067799,0.0365,0.0365,1,2,164,4,1,threeone,,,,,,,,,,,,,,,,,,,,,,,,,,,,,,,,,,,,,,,,,,,,,,,,,,,,,,,,,,,,,,,,,,,,,,,,,,,,,,,,,,,,,,,,,,,,,,,,,,,,,,,,,,,,,,,,,,,,,,,,,,,,,,,,,,,,,,,
,,64ae13e7175228ade1bbaeb6,2023-12-06_23h57.10.229,kallum_motion_pilot,2023.2.3,Win32,163.9344262,64ae13e7175228ade1bbaeb6,6560176e4d91f764e2a42c74,65715d07deac88baee067799,0.0366,0.0366,1,3,165,153,1,fiveseven,,,,,,,,,,,,,,,,,,,,,,,,,,,,,,,,,,,,,,,,,,,,,,,,,,,,,,,,,,,,,,,,,,,,,,,,,,,,,,,,,,,,,,,,,,,,,,,,,,,,,,,,,,,,,,,,,,,,,,,,,,,,,,,,,,,,,,,
,,64ae13e7175228ade1bbaeb6,2023-12-06_23h57.10.229,kallum_motion_pilot,2023.2.3,Win32,163.9344262,64ae13e7175228ade1bbaeb6,6560176e4d91f764e2a42c74,65715d07deac88baee067799,0.0367,0.0368,1,4,166,6,1,fourtwo,,,,,,,,,,,,,,,,,,,,,,,,,,,,,,,,,,,,,,,,,,,,,,,,,,,,,,,,,,,,,,,,,,,,,,,,,,,,,,,,,,,,,,,,,,,,,,,,,,,,,,,,,,,,,,,,,,,,,,,,,,,,,,,,,,,,,,,
,,64ae13e7175228ade1bbaeb6,2023-12-06_23h57.10.229,kallum_motion_pilot,2023.2.3,Win32,163.9344262,64ae13e7175228ade1bbaeb6,6560176e4d91f764e2a42c74,65715d07deac88baee067799,0.0369,0.0369,1,5,167,127,1,eightseven,,,,,,,,,,,,,,,,,,,,,,,,,,,,,,,,,,,,,,,,,,,,,,,,,,,,,,,,,,,,,,,,,,,,,,,,,,,,,,,,,,,,,,,,,,,,,,,,,,,,,,,,,,,,,,,,,,,,,,,,,,,,,,,,,,,,,,,
,,64ae13e7175228ade1bbaeb6,2023-12-06_23h57.10.229,kallum_motion_pilot,2023.2.3,Win32,163.9344262,64ae13e7175228ade1bbaeb6,6560176e4d91f764e2a42c74,65715d07deac88baee067799,0.037,0.0371,1,6,168,119,1,eightseven,,,,,,,,,,,,,,,,,,,,,,,,,,,,,,,,,,,,,,,,,,,,,,,,,,,,,,,,,,,,,,,,,,,,,,,,,,,,,,,,,,,,,,,,,,,,,,,,,,,,,,,,,,,,,,,,,,,,,,,,,,,,,,,,,,,,,,,
,,64ae13e7175228ade1bbaeb6,2023-12-06_23h57.10.229,kallum_motion_pilot,2023.2.3,Win32,163.9344262,64ae13e7175228ade1bbaeb6,6560176e4d91f764e2a42c74,65715d07deac88baee067799,0.0372,0.0372,1,7,169,62,1,fourtwo,,,,,,,,,,,,,,,,,,,,,,,,,,,,,,,,,,,,,,,,,,,,,,,,,,,,,,,,,,,,,,,,,,,,,,,,,,,,,,,,,,,,,,,,,,,,,,,,,,,,,,,,,,,,,,,,,,,,,,,,,,,,,,,,,,,,,,,
,,64ae13e7175228ade1bbaeb6,2023-12-06_23h57.10.229,kallum_motion_pilot,2023.2.3,Win32,163.9344262,64ae13e7175228ade1bbaeb6,6560176e4d91f764e2a42c74,65715d07deac88baee067799,0.0372,0.0373,1,8,170,139,1,sixeight,,,,,,,,,,,,,,,,,,,,,,,,,,,,,,,,,,,,,,,,,,,,,,,,,,,,,,,,,,,,,,,,,,,,,,,,,,,,,,,,,,,,,,,,,,,,,,,,,,,,,,,,,,,,,,,,,,,,,,,,,,,,,,,,,,,,,,,
,,64ae13e7175228ade1bbaeb6,2023-12-06_23h57.10.229,kallum_motion_pilot,2023.2.3,Win32,163.9344262,64ae13e7175228ade1bbaeb6,6560176e4d91f764e2a42c74,65715d07deac88baee067799,0.0374,0.0375,1,9,171,125,1,seveneight,,,,,,,,,,,,,,,,,,,,,,,,,,,,,,,,,,,,,,,,,,,,,,,,,,,,,,,,,,,,,,,,,,,,,,,,,,,,,,,,,,,,,,,,,,,,,,,,,,,,,,,,,,,,,,,,,,,,,,,,,,,,,,,,,,,,,,,
,,64ae13e7175228ade1bbaeb6,2023-12-06_23h57.10.229,kallum_motion_pilot,2023.2.3,Win32,163.9344262,64ae13e7175228ade1bbaeb6,6560176e4d91f764e2a42c74,65715d07deac88baee067799,0.0375,0.0376,1,10,172,19,1,twofour,,,,,,,,,,,,,,,,,,,,,,,,,,,,,,,,,,,,,,,,,,,,,,,,,,,,,,,,,,,,,,,,,,,,,,,,,,,,,,,,,,,,,,,,,,,,,,,,,,,,,,,,,,,,,,,,,,,,,,,,,,,,,,,,,,,,,,,
,,64ae13e7175228ade1bbaeb6,2023-12-06_23h57.10.229,kallum_motion_pilot,2023.2.3,Win32,163.9344262,64ae13e7175228ade1bbaeb6,6560176e4d91f764e2a42c74,65715d07deac88baee067799,0.0377,0.0377,1,11,173,109,1,seveneight,,,,,,,,,,,,,,,,,,,,,,,,,,,,,,,,,,,,,,,,,,,,,,,,,,,,,,,,,,,,,,,,,,,,,,,,,,,,,,,,,,,,,,,,,,,,,,,,,,,,,,,,,,,,,,,,,,,,,,,,,,,,,,,,,,,,,,,
,,64ae13e7175228ade1bbaeb6,2023-12-06_23h57.10.229,kallum_motion_pilot,2023.2.3,Win32,163.9344262,64ae13e7175228ade1bbaeb6,6560176e4d91f764e2a42c74,65715d07deac88baee067799,0.0378,0.0378,1,12,174,37,1,threefour,,,,,,,,,,,,,,,,,,,,,,,,,,,,,,,,,,,,,,,,,,,,,,,,,,,,,,,,,,,,,,,,,,,,,,,,,,,,,,,,,,,,,,,,,,,,,,,,,,,,,,,,,,,,,,,,,,,,,,,,,,,,,,,,,,,,,,,
,,64ae13e7175228ade1bbaeb6,2023-12-06_23h57.10.229,kallum_motion_pilot,2023.2.3,Win32,163.9344262,64ae13e7175228ade1bbaeb6,6560176e4d91f764e2a42c74,65715d07deac88baee067799,0.0379,0.038,1,13,175,35,1,twofour,,,,,,,,,,,,,,,,,,,,,,,,,,,,,,,,,,,,,,,,,,,,,,,,,,,,,,,,,,,,,,,,,,,,,,,,,,,,,,,,,,,,,,,,,,,,,,,,,,,,,,,,,,,,,,,,,,,,,,,,,,,,,,,,,,,,,,,
,,64ae13e7175228ade1bbaeb6,2023-12-06_23h57.10.229,kallum_motion_pilot,2023.2.3,Win32,163.9344262,64ae13e7175228ade1bbaeb6,6560176e4d91f764e2a42c74,65715d07deac88baee067799,0.0381,0.0381,1,14,176,79,1,eightseven,,,,,,,,,,,,,,,,,,,,,,,,,,,,,,,,,,,,,,,,,,,,,,,,,,,,,,,,,,,,,,,,,,,,,,,,,,,,,,,,,,,,,,,,,,,,,,,,,,,,,,,,,,,,,,,,,,,,,,,,,,,,,,,,,,,,,,,
,,64ae13e7175228ade1bbaeb6,2023-12-06_23h57.10.229,kallum_motion_pilot,2023.2.3,Win32,163.9344262,64ae13e7175228ade1bbaeb6,6560176e4d91f764e2a42c74,65715d07deac88baee067799,0.0382,0.0382,1,15,177,130,1,sixfive,,,,,,,,,,,,,,,,,,,,,,,,,,,,,,,,,,,,,,,,,,,,,,,,,,,,,,,,,,,,,,,,,,,,,,,,,,,,,,,,,,,,,,,,,,,,,,,,,,,,,,,,,,,,,,,,,,,,,,,,,,,,,,,,,,,,,,,
,,64ae13e7175228ade1bbaeb6,2023-12-06_23h57.10.229,kallum_motion_pilot,2023.2.3,Win32,163.9344262,64ae13e7175228ade1bbaeb6,6560176e4d91f764e2a42c74,65715d07deac88baee067799,0.0384,0.0384,1,16,178,53,1,threefour,,,,,,,,,,,,,,,,,,,,,,,,,,,,,,,,,,,,,,,,,,,,,,,,,,,,,,,,,,,,,,,,,,,,,,,,,,,,,,,,,,,,,,,,,,,,,,,,,,,,,,,,,,,,,,,,,,,,,,,,,,,,,,,,,,,,,,,
,,64ae13e7175228ade1bbaeb6,2023-12-06_23h57.10.229,kallum_motion_pilot,2023.2.3,Win32,163.9344262,64ae13e7175228ade1bbaeb6,6560176e4d91f764e2a42c74,65715d07deac88baee067799,0.0385,0.0385,1,17,179,45,1,threefour,,,,,,,,,,,,,,,,,,,,,,,,,,,,,,,,,,,,,,,,,,,,,,,,,,,,,,,,,,,,,,,,,,,,,,,,,,,,,,,,,,,,,,,,,,,,,,,,,,,,,,,,,,,,,,,,,,,,,,,,,,,,,,,,,,,,,,,
,,64ae13e7175228ade1bbaeb6,2023-12-06_23h57.10.229,kallum_motion_pilot,2023.2.3,Win32,163.9344262,64ae13e7175228ade1bbaeb6,6560176e4d91f764e2a42c74,65715d07deac88baee067799,0.0386,0.0387,1,18,180,5,1,threefour,,,,,,,,,,,,,,,,,,,,,,,,,,,,,,,,,,,,,,,,,,,,,,,,,,,,,,,,,,,,,,,,,,,,,,,,,,,,,,,,,,,,,,,,,,,,,,,,,,,,,,,,,,,,,,,,,,,,,,,,,,,,,,,,,,,,,,,
,,64ae13e7175228ade1bbaeb6,2023-12-06_23h57.10.229,kallum_motion_pilot,2023.2.3,Win32,163.9344262,64ae13e7175228ade1bbaeb6,6560176e4d91f764e2a42c74,65715d07deac88baee067799,0.0387,0.0388,1,19,181,36,1,threeone,,,,,,,,,,,,,,,,,,,,,,,,,,,,,,,,,,,,,,,,,,,,,,,,,,,,,,,,,,,,,,,,,,,,,,,,,,,,,,,,,,,,,,,,,,,,,,,,,,,,,,,,,,,,,,,,,,,,,,,,,,,,,,,,,,,,,,,
,,64ae13e7175228ade1bbaeb6,2023-12-06_23h57.10.229,kallum_motion_pilot,2023.2.3,Win32,163.9344262,64ae13e7175228ade1bbaeb6,6560176e4d91f764e2a42c74,65715d07deac88baee067799,0.0389,0.039,1,20,182,38,1,fourtwo,,,,,,,,,,,,,,,,,,,,,,,,,,,,,,,,,,,,,,,,,,,,,,,,,,,,,,,,,,,,,,,,,,,,,,,,,,,,,,,,,,,,,,,,,,,,,,,,,,,,,,,,,,,,,,,,,,,,,,,,,,,,,,,,,,,,,,,
,,64ae13e7175228ade1bbaeb6,2023-12-06_23h57.10.229,kallum_motion_pilot,2023.2.3,Win32,163.9344262,64ae13e7175228ade1bbaeb6,6560176e4d91f764e2a42c74,65715d07deac88baee067799,0.039,0.0391,1,21,183,29,1,threefour,,,,,,,,,,,,,,,,,,,,,,,,,,,,,,,,,,,,,,,,,,,,,,,,,,,,,,,,,,,,,,,,,,,,,,,,,,,,,,,,,,,,,,,,,,,,,,,,,,,,,,,,,,,,,,,,,,,,,,,,,,,,,,,,,,,,,,,
,,64ae13e7175228ade1bbaeb6,2023-12-06_23h57.10.229,kallum_motion_pilot,2023.2.3,Win32,163.9344262,64ae13e7175228ade1bbaeb6,6560176e4d91f764e2a42c74,65715d07deac88baee067799,0.0392,0.0393,1,22,184,128,1,fivesix,,,,,,,,,,,,,,,,,,,,,,,,,,,,,,,,,,,,,,,,,,,,,,,,,,,,,,,,,,,,,,,,,,,,,,,,,,,,,,,,,,,,,,,,,,,,,,,,,,,,,,,,,,,,,,,,,,,,,,,,,,,,,,,,,,,,,,,
,,64ae13e7175228ade1bbaeb6,2023-12-06_23h57.10.229,kallum_motion_pilot,2023.2.3,Win32,163.9344262,64ae13e7175228ade1bbaeb6,6560176e4d91f764e2a42c74,65715d07deac88baee067799,0.0393,0.0394,1,23,185,146,1,sixfive,,,,,,,,,,,,,,,,,,,,,,,,,,,,,,,,,,,,,,,,,,,,,,,,,,,,,,,,,,,,,,,,,,,,,,,,,,,,,,,,,,,,,,,,,,,,,,,,,,,,,,,,,,,,,,,,,,,,,,,,,,,,,,,,,,,,,,,
,,64ae13e7175228ade1bbaeb6,2023-12-06_23h57.10.229,kallum_motion_pilot,2023.2.3,Win32,163.9344262,64ae13e7175228ade1bbaeb6,6560176e4d91f764e2a42c74,65715d07deac88baee067799,0.0395,0.0396,1,24,186,39,1,fourthree,,,,,,,,,,,,,,,,,,,,,,,,,,,,,,,,,,,,,,,,,,,,,,,,,,,,,,,,,,,,,,,,,,,,,,,,,,,,,,,,,,,,,,,,,,,,,,,,,,,,,,,,,,,,,,,,,,,,,,,,,,,,,,,,,,,,,,,
,,64ae13e7175228ade1bbaeb6,2023-12-06_23h57.10.229,kallum_motion_pilot,2023.2.3,Win32,163.9344262,64ae13e7175228ade1bbaeb6,6560176e4d91f764e2a42c74,65715d07deac88baee067799,0.0397,0.0398,1,25,187,147,1,sixeight,,,,,,,,,,,,,,,,,,,,,,,,,,,,,,,,,,,,,,,,,,,,,,,,,,,,,,,,,,,,,,,,,,,,,,,,,,,,,,,,,,,,,,,,,,,,,,,,,,,,,,,,,,,,,,,,,,,,,,,,,,,,,,,,,,,,,,,
,,64ae13e7175228ade1bbaeb6,2023-12-06_23h57.10.229,kallum_motion_pilot,2023.2.3,Win32,163.9344262,64ae13e7175228ade1bbaeb6,6560176e4d91f764e2a42c74,65715d07deac88baee067799,0.0399,0.04,1,26,188,82,1,sixfive,,,,,,,,,,,,,,,,,,,,,,,,,,,,,,,,,,,,,,,,,,,,,,,,,,,,,,,,,,,,,,,,,,,,,,,,,,,,,,,,,,,,,,,,,,,,,,,,,,,,,,,,,,,,,,,,,,,,,,,,,,,,,,,,,,,,,,,
,,64ae13e7175228ade1bbaeb6,2023-12-06_23h57.10.229,kallum_motion_pilot,2023.2.3,Win32,163.9344262,64ae13e7175228ade1bbaeb6,6560176e4d91f764e2a42c74,65715d07deac88baee067799,0.04,0.04,1,27,189,0,1,onetwo,,,,,,,,,,,,,,,,,,,,,,,,,,,,,,,,,,,,,,,,,,,,,,,,,,,,,,,,,,,,,,,,,,,,,,,,,,,,,,,,,,,,,,,,,,,,,,,,,,,,,,,,,,,,,,,,,,,,,,,,,,,,,,,,,,,,,,,
,,64ae13e7175228ade1bbaeb6,2023-12-06_23h57.10.229,kallum_motion_pilot,2023.2.3,Win32,163.9344262,64ae13e7175228ade1bbaeb6,6560176e4d91f764e2a42c74,65715d07deac88baee067799,0.0401,0.0401,1,28,190,138,1,sixfive,,,,,,,,,,,,,,,,,,,,,,,,,,,,,,,,,,,,,,,,,,,,,,,,,,,,,,,,,,,,,,,,,,,,,,,,,,,,,,,,,,,,,,,,,,,,,,,,,,,,,,,,,,,,,,,,,,,,,,,,,,,,,,,,,,,,,,,
,,64ae13e7175228ade1bbaeb6,2023-12-06_23h57.10.229,kallum_motion_pilot,2023.2.3,Win32,163.9344262,64ae13e7175228ade1bbaeb6,6560176e4d91f764e2a42c74,65715d07deac88baee067799,0.0402,0.0402,1,29,191,129,1,fiveseven,,,,,,,,,,,,,,,,,,,,,,,,,,,,,,,,,,,,,,,,,,,,,,,,,,,,,,,,,,,,,,,,,,,,,,,,,,,,,,,,,,,,,,,,,,,,,,,,,,,,,,,,,,,,,,,,,,,,,,,,,,,,,,,,,,,,,,,
,,64ae13e7175228ade1bbaeb6,2023-12-06_23h57.10.229,kallum_motion_pilot,2023.2.3,Win32,163.9344262,64ae13e7175228ade1bbaeb6,6560176e4d91f764e2a42c74,65715d07deac88baee067799,0.0403,0.0404,1,30,192,66,1,twoone,,,,,,,,,,,,,,,,,,,,,,,,,,,,,,,,,,,,,,,,,,,,,,,,,,,,,,,,,,,,,,,,,,,,,,,,,,,,,,,,,,,,,,,,,,,,,,,,,,,,,,,,,,,,,,,,,,,,,,,,,,,,,,,,,,,,,,,
,,64ae13e7175228ade1bbaeb6,2023-12-06_23h57.10.229,kallum_motion_pilot,2023.2.3,Win32,163.9344262,64ae13e7175228ade1bbaeb6,6560176e4d91f764e2a42c74,65715d07deac88baee067799,0.0405,0.0405,1,31,193,64,1,onetwo,,,,,,,,,,,,,,,,,,,,,,,,,,,,,,,,,,,,,,,,,,,,,,,,,,,,,,,,,,,,,,,,,,,,,,,,,,,,,,,,,,,,,,,,,,,,,,,,,,,,,,,,,,,,,,,,,,,,,,,,,,,,,,,,,,,,,,,
,,64ae13e7175228ade1bbaeb6,2023-12-06_23h57.10.229,kallum_motion_pilot,2023.2.3,Win32,163.9344262,64ae13e7175228ade1bbaeb6,6560176e4d91f764e2a42c74,65715d07deac88baee067799,0.0405,0.0406,1,32,194,61,1,threefour,,,,,,,,,,,,,,,,,,,,,,,,,,,,,,,,,,,,,,,,,,,,,,,,,,,,,,,,,,,,,,,,,,,,,,,,,,,,,,,,,,,,,,,,,,,,,,,,,,,,,,,,,,,,,,,,,,,,,,,,,,,,,,,,,,,,,,,
,,64ae13e7175228ade1bbaeb6,2023-12-06_23h57.10.229,kallum_motion_pilot,2023.2.3,Win32,163.9344262,64ae13e7175228ade1bbaeb6,6560176e4d91f764e2a42c74,65715d07deac88baee067799,0.0407,0.0407,1,33,195,145,1,fiveseven,,,,,,,,,,,,,,,,,,,,,,,,,,,,,,,,,,,,,,,,,,,,,,,,,,,,,,,,,,,,,,,,,,,,,,,,,,,,,,,,,,,,,,,,,,,,,,,,,,,,,,,,,,,,,,,,,,,,,,,,,,,,,,,,,,,,,,,
,,64ae13e7175228ade1bbaeb6,2023-12-06_23h57.10.229,kallum_motion_pilot,2023.2.3,Win32,163.9344262,64ae13e7175228ade1bbaeb6,6560176e4d91f764e2a42c74,65715d07deac88baee067799,0.0408,0.0408,1,34,196,93,1,seveneight,,,,,,,,,,,,,,,,,,,,,,,,,,,,,,,,,,,,,,,,,,,,,,,,,,,,,,,,,,,,,,,,,,,,,,,,,,,,,,,,,,,,,,,,,,,,,,,,,,,,,,,,,,,,,,,,,,,,,,,,,,,,,,,,,,,,,,,
,,64ae13e7175228ade1bbaeb6,2023-12-06_23h57.10.229,kallum_motion_pilot,2023.2.3,Win32,163.9344262,64ae13e7175228ade1bbaeb6,6560176e4d91f764e2a42c74,65715d07deac88baee067799,0.0409,0.041,1,35,197,10,1,twoone,,,,,,,,,,,,,,,,,,,,,,,,,,,,,,,,,,,,,,,,,,,,,,,,,,,,,,,,,,,,,,,,,,,,,,,,,,,,,,,,,,,,,,,,,,,,,,,,,,,,,,,,,,,,,,,,,,,,,,,,,,,,,,,,,,,,,,,
,,64ae13e7175228ade1bbaeb6,2023-12-06_23h57.10.229,kallum_motion_pilot,2023.2.3,Win32,163.9344262,64ae13e7175228ade1bbaeb6,6560176e4d91f764e2a42c74,65715d07deac88baee067799,0.041,0.0411,1,36,198,160,1,fivesix,,,,,,,,,,,,,,,,,,,,,,,,,,,,,,,,,,,,,,,,,,,,,,,,,,,,,,,,,,,,,,,,,,,,,,,,,,,,,,,,,,,,,,,,,,,,,,,,,,,,,,,,,,,,,,,,,,,,,,,,,,,,,,,,,,,,,,,
,,64ae13e7175228ade1bbaeb6,2023-12-06_23h57.10.229,kallum_motion_pilot,2023.2.3,Win32,163.9344262,64ae13e7175228ade1bbaeb6,6560176e4d91f764e2a42c74,65715d07deac88baee067799,0.0411,0.0411,1,37,199,17,1,onethree,,,,,,,,,,,,,,,,,,,,,,,,,,,,,,,,,,,,,,,,,,,,,,,,,,,,,,,,,,,,,,,,,,,,,,,,,,,,,,,,,,,,,,,,,,,,,,,,,,,,,,,,,,,,,,,,,,,,,,,,,,,,,,,,,,,,,,,
,,64ae13e7175228ade1bbaeb6,2023-12-06_23h57.10.229,kallum_motion_pilot,2023.2.3,Win32,163.9344262,64ae13e7175228ade1bbaeb6,6560176e4d91f764e2a42c74,65715d07deac88baee067799,0.0412,0.0412,1,38,200,14,1,fourtwo,,,,,,,,,,,,,,,,,,,,,,,,,,,,,,,,,,,,,,,,,,,,,,,,,,,,,,,,,,,,,,,,,,,,,,,,,,,,,,,,,,,,,,,,,,,,,,,,,,,,,,,,,,,,,,,,,,,,,,,,,,,,,,,,,,,,,,,
,,64ae13e7175228ade1bbaeb6,2023-12-06_23h57.10.229,kallum_motion_pilot,2023.2.3,Win32,163.9344262,64ae13e7175228ade1bbaeb6,6560176e4d91f764e2a42c74,65715d07deac88baee067799,0.0413,0.0414,1,39,201,88,1,fivesix,,,,,,,,,,,,,,,,,,,,,,,,,,,,,,,,,,,,,,,,,,,,,,,,,,,,,,,,,,,,,,,,,,,,,,,,,,,,,,,,,,,,,,,,,,,,,,,,,,,,,,,,,,,,,,,,,,,,,,,,,,,,,,,,,,,,,,,
,,64ae13e7175228ade1bbaeb6,2023-12-06_23h57.10.229,kallum_motion_pilot,2023.2.3,Win32,163.9344262,64ae13e7175228ade1bbaeb6,6560176e4d91f764e2a42c74,65715d07deac88baee067799,0.0414,0.0415,1,40,202,141,1,seveneight,,,,,,,,,,,,,,,,,,,,,,,,,,,,,,,,,,,,,,,,,,,,,,,,,,,,,,,,,,,,,,,,,,,,,,,,,,,,,,,,,,,,,,,,,,,,,,,,,,,,,,,,,,,,,,,,,,,,,,,,,,,,,,,,,,,,,,,
,,64ae13e7175228ade1bbaeb6,2023-12-06_23h57.10.229,kallum_motion_pilot,2023.2.3,Win32,163.9344262,64ae13e7175228ade1bbaeb6,6560176e4d91f764e2a42c74,65715d07deac88baee067799,0.0415,0.0416,1,41,203,94,1,eightsix,,,,,,,,,,,,,,,,,,,,,,,,,,,,,,,,,,,,,,,,,,,,,,,,,,,,,,,,,,,,,,,,,,,,,,,,,,,,,,,,,,,,,,,,,,,,,,,,,,,,,,,,,,,,,,,,,,,,,,,,,,,,,,,,,,,,,,,
,,64ae13e7175228ade1bbaeb6,2023-12-06_23h57.10.229,kallum_motion_pilot,2023.2.3,Win32,163.9344262,64ae13e7175228ade1bbaeb6,6560176e4d91f764e2a42c74,65715d07deac88baee067799,0.0416,0.0417,1,42,204,12,1,threeone,,,,,,,,,,,,,,,,,,,,,,,,,,,,,,,,,,,,,,,,,,,,,,,,,,,,,,,,,,,,,,,,,,,,,,,,,,,,,,,,,,,,,,,,,,,,,,,,,,,,,,,,,,,,,,,,,,,,,,,,,,,,,,,,,,,,,,,
,,64ae13e7175228ade1bbaeb6,2023-12-06_23h57.10.229,kallum_motion_pilot,2023.2.3,Win32,163.9344262,64ae13e7175228ade1bbaeb6,6560176e4d91f764e2a42c74,65715d07deac88baee067799,0.0418,0.0418,1,43,205,83,1,sixeight,,,,,,,,,,,,,,,,,,,,,,,,,,,,,,,,,,,,,,,,,,,,,,,,,,,,,,,,,,,,,,,,,,,,,,,,,,,,,,,,,,,,,,,,,,,,,,,,,,,,,,,,,,,,,,,,,,,,,,,,,,,,,,,,,,,,,,,
,,64ae13e7175228ade1bbaeb6,2023-12-06_23h57.10.229,kallum_motion_pilot,2023.2.3,Win32,163.9344262,64ae13e7175228ade1bbaeb6,6560176e4d91f764e2a42c74,65715d07deac88baee067799,0.0418,0.0419,1,44,206,34,1,twoone,,,,,,,,,,,,,,,,,,,,,,,,,,,,,,,,,,,,,,,,,,,,,,,,,,,,,,,,,,,,,,,,,,,,,,,,,,,,,,,,,,,,,,,,,,,,,,,,,,,,,,,,,,,,,,,,,,,,,,,,,,,,,,,,,,,,,,,
,,64ae13e7175228ade1bbaeb6,2023-12-06_23h57.10.229,kallum_motion_pilot,2023.2.3,Win32,163.9344262,64ae13e7175228ade1bbaeb6,6560176e4d91f764e2a42c74,65715d07deac88baee067799,0.042,0.042,1,45,207,87,1,eightseven,,,,,,,,,,,,,,,,,,,,,,,,,,,,,,,,,,,,,,,,,,,,,,,,,,,,,,,,,,,,,,,,,,,,,,,,,,,,,,,,,,,,,,,,,,,,,,,,,,,,,,,,,,,,,,,,,,,,,,,,,,,,,,,,,,,,,,,
,,64ae13e7175228ade1bbaeb6,2023-12-06_23h57.10.229,kallum_motion_pilot,2023.2.3,Win32,163.9344262,64ae13e7175228ade1bbaeb6,6560176e4d91f764e2a42c74,65715d07deac88baee067799,0.042,0.0421,1,46,208,78,1,fourtwo,,,,,,,,,,,,,,,,,,,,,,,,,,,,,,,,,,,,,,,,,,,,,,,,,,,,,,,,,,,,,,,,,,,,,,,,,,,,,,,,,,,,,,,,,,,,,,,,,,,,,,,,,,,,,,,,,,,,,,,,,,,,,,,,,,,,,,,
,,64ae13e7175228ade1bbaeb6,2023-12-06_23h57.10.229,kallum_motion_pilot,2023.2.3,Win32,163.9344262,64ae13e7175228ade1bbaeb6,6560176e4d91f764e2a42c74,65715d07deac88baee067799,0.0421,0.0422,1,47,209,11,1,twofour,,,,,,,,,,,,,,,,,,,,,,,,,,,,,,,,,,,,,,,,,,,,,,,,,,,,,,,,,,,,,,,,,,,,,,,,,,,,,,,,,,,,,,,,,,,,,,,,,,,,,,,,,,,,,,,,,,,,,,,,,,,,,,,,,,,,,,,
,,64ae13e7175228ade1bbaeb6,2023-12-06_23h57.10.229,kallum_motion_pilot,2023.2.3,Win32,163.9344262,64ae13e7175228ade1bbaeb6,6560176e4d91f764e2a42c74,65715d07deac88baee067799,0.0422,0.0424,1,48,210,73,1,onethree,,,,,,,,,,,,,,,,,,,,,,,,,,,,,,,,,,,,,,,,,,,,,,,,,,,,,,,,,,,,,,,,,,,,,,,,,,,,,,,,,,,,,,,,,,,,,,,,,,,,,,,,,,,,,,,,,,,,,,,,,,,,,,,,,,,,,,,
,,64ae13e7175228ade1bbaeb6,2023-12-06_23h57.10.229,kallum_motion_pilot,2023.2.3,Win32,163.9344262,64ae13e7175228ade1bbaeb6,6560176e4d91f764e2a42c74,65715d07deac88baee067799,0.0424,0.0424,1,49,211,9,1,onethree,,,,,,,,,,,,,,,,,,,,,,,,,,,,,,,,,,,,,,,,,,,,,,,,,,,,,,,,,,,,,,,,,,,,,,,,,,,,,,,,,,,,,,,,,,,,,,,,,,,,,,,,,,,,,,,,,,,,,,,,,,,,,,,,,,,,,,,
,,64ae13e7175228ade1bbaeb6,2023-12-06_23h57.10.229,kallum_motion_pilot,2023.2.3,Win32,163.9344262,64ae13e7175228ade1bbaeb6,6560176e4d91f764e2a42c74,65715d07deac88baee067799,0.0424,0.0425,1,50,212,140,1,sevenfive,,,,,,,,,,,,,,,,,,,,,,,,,,,,,,,,,,,,,,,,,,,,,,,,,,,,,,,,,,,,,,,,,,,,,,,,,,,,,,,,,,,,,,,,,,,,,,,,,,,,,,,,,,,,,,,,,,,,,,,,,,,,,,,,,,,,,,,
,,64ae13e7175228ade1bbaeb6,2023-12-06_23h57.10.229,kallum_motion_pilot,2023.2.3,Win32,163.9344262,64ae13e7175228ade1bbaeb6,6560176e4d91f764e2a42c74,65715d07deac88baee067799,0.0426,0.0426,1,51,213,116,1,sevenfive,,,,,,,,,,,,,,,,,,,,,,,,,,,,,,,,,,,,,,,,,,,,,,,,,,,,,,,,,,,,,,,,,,,,,,,,,,,,,,,,,,,,,,,,,,,,,,,,,,,,,,,,,,,,,,,,,,,,,,,,,,,,,,,,,,,,,,,
,,64ae13e7175228ade1bbaeb6,2023-12-06_23h57.10.229,kallum_motion_pilot,2023.2.3,Win32,163.9344262,64ae13e7175228ade1bbaeb6,6560176e4d91f764e2a42c74,65715d07deac88baee067799,0.0427,0.0428,1,52,214,134,1,eightsix,,,,,,,,,,,,,,,,,,,,,,,,,,,,,,,,,,,,,,,,,,,,,,,,,,,,,,,,,,,,,,,,,,,,,,,,,,,,,,,,,,,,,,,,,,,,,,,,,,,,,,,,,,,,,,,,,,,,,,,,,,,,,,,,,,,,,,,
,,64ae13e7175228ade1bbaeb6,2023-12-06_23h57.10.229,kallum_motion_pilot,2023.2.3,Win32,163.9344262,64ae13e7175228ade1bbaeb6,6560176e4d91f764e2a42c74,65715d07deac88baee067799,0.0429,0.0429,1,53,215,68,1,threeone,,,,,,,,,,,,,,,,,,,,,,,,,,,,,,,,,,,,,,,,,,,,,,,,,,,,,,,,,,,,,,,,,,,,,,,,,,,,,,,,,,,,,,,,,,,,,,,,,,,,,,,,,,,,,,,,,,,,,,,,,,,,,,,,,,,,,,,
,,64ae13e7175228ade1bbaeb6,2023-12-06_23h57.10.229,kallum_motion_pilot,2023.2.3,Win32,163.9344262,64ae13e7175228ade1bbaeb6,6560176e4d91f764e2a42c74,65715d07deac88baee067799,0.0429,0.043,1,54,216,18,1,twoone,,,,,,,,,,,,,,,,,,,,,,,,,,,,,,,,,,,,,,,,,,,,,,,,,,,,,,,,,,,,,,,,,,,,,,,,,,,,,,,,,,,,,,,,,,,,,,,,,,,,,,,,,,,,,,,,,,,,,,,,,,,,,,,,,,,,,,,
,,64ae13e7175228ade1bbaeb6,2023-12-06_23h57.10.229,kallum_motion_pilot,2023.2.3,Win32,163.9344262,64ae13e7175228ade1bbaeb6,6560176e4d91f764e2a42c74,65715d07deac88baee067799,0.0431,0.0431,1,55,217,113,1,fiveseven,,,,,,,,,,,,,,,,,,,,,,,,,,,,,,,,,,,,,,,,,,,,,,,,,,,,,,,,,,,,,,,,,,,,,,,,,,,,,,,,,,,,,,,,,,,,,,,,,,,,,,,,,,,,,,,,,,,,,,,,,,,,,,,,,,,,,,,
,,64ae13e7175228ade1bbaeb6,2023-12-06_23h57.10.229,kallum_motion_pilot,2023.2.3,Win32,163.9344262,64ae13e7175228ade1bbaeb6,6560176e4d91f764e2a42c74,65715d07deac88baee067799,0.0432,0.0432,1,56,218,26,1,twoone,,,,,,,,,,,,,,,,,,,,,,,,,,,,,,,,,,,,,,,,,,,,,,,,,,,,,,,,,,,,,,,,,,,,,,,,,,,,,,,,,,,,,,,,,,,,,,,,,,,,,,,,,,,,,,,,,,,,,,,,,,,,,,,,,,,,,,,
,,64ae13e7175228ade1bbaeb6,2023-12-06_23h57.10.229,kallum_motion_pilot,2023.2.3,Win32,163.9344262,64ae13e7175228ade1bbaeb6,6560176e4d91f764e2a42c74,65715d07deac88baee067799,0.0432,0.0433,1,57,219,70,1,fourtwo,,,,,,,,,,,,,,,,,,,,,,,,,,,,,,,,,,,,,,,,,,,,,,,,,,,,,,,,,,,,,,,,,,,,,,,,,,,,,,,,,,,,,,,,,,,,,,,,,,,,,,,,,,,,,,,,,,,,,,,,,,,,,,,,,,,,,,,
,,64ae13e7175228ade1bbaeb6,2023-12-06_23h57.10.229,kallum_motion_pilot,2023.2.3,Win32,163.9344262,64ae13e7175228ade1bbaeb6,6560176e4d91f764e2a42c74,65715d07deac88baee067799,0.0434,0.0434,1,58,220,89,1,fiveseven,,,,,,,,,,,,,,,,,,,,,,,,,,,,,,,,,,,,,,,,,,,,,,,,,,,,,,,,,,,,,,,,,,,,,,,,,,,,,,,,,,,,,,,,,,,,,,,,,,,,,,,,,,,,,,,,,,,,,,,,,,,,,,,,,,,,,,,
,,64ae13e7175228ade1bbaeb6,2023-12-06_23h57.10.229,kallum_motion_pilot,2023.2.3,Win32,163.9344262,64ae13e7175228ade1bbaeb6,6560176e4d91f764e2a42c74,65715d07deac88baee067799,0.0435,0.0436,1,59,221,90,1,sixfive,,,,,,,,,,,,,,,,,,,,,,,,,,,,,,,,,,,,,,,,,,,,,,,,,,,,,,,,,,,,,,,,,,,,,,,,,,,,,,,,,,,,,,,,,,,,,,,,,,,,,,,,,,,,,,,,,,,,,,,,,,,,,,,,,,,,,,,
,,64ae13e7175228ade1bbaeb6,2023-12-06_23h57.10.229,kallum_motion_pilot,2023.2.3,Win32,163.9344262,64ae13e7175228ade1bbaeb6,6560176e4d91f764e2a42c74,65715d07deac88baee067799,0.0437,0.0437,1,60,222,25,1,onethree,,,,,,,,,,,,,,,,,,,,,,,,,,,,,,,,,,,,,,,,,,,,,,,,,,,,,,,,,,,,,,,,,,,,,,,,,,,,,,,,,,,,,,,,,,,,,,,,,,,,,,,,,,,,,,,,,,,,,,,,,,,,,,,,,,,,,,,
,,64ae13e7175228ade1bbaeb6,2023-12-06_23h57.10.229,kallum_motion_pilot,2023.2.3,Win32,163.9344262,64ae13e7175228ade1bbaeb6,6560176e4d91f764e2a42c74,65715d07deac88baee067799,0.0437,0.0438,1,61,223,72,1,onetwo,,,,,,,,,,,,,,,,,,,,,,,,,,,,,,,,,,,,,,,,,,,,,,,,,,,,,,,,,,,,,,,,,,,,,,,,,,,,,,,,,,,,,,,,,,,,,,,,,,,,,,,,,,,,,,,,,,,,,,,,,,,,,,,,,,,,,,,
,,64ae13e7175228ade1bbaeb6,2023-12-06_23h57.10.229,kallum_motion_pilot,2023.2.3,Win32,163.9344262,64ae13e7175228ade1bbaeb6,6560176e4d91f764e2a42c74,65715d07deac88baee067799,0.0439,0.044,1,62,224,65,1,onethree,,,,,,,,,,,,,,,,,,,,,,,,,,,,,,,,,,,,,,,,,,,,,,,,,,,,,,,,,,,,,,,,,,,,,,,,,,,,,,,,,,,,,,,,,,,,,,,,,,,,,,,,,,,,,,,,,,,,,,,,,,,,,,,,,,,,,,,
,,64ae13e7175228ade1bbaeb6,2023-12-06_23h57.10.229,kallum_motion_pilot,2023.2.3,Win32,163.9344262,64ae13e7175228ade1bbaeb6,6560176e4d91f764e2a42c74,65715d07deac88baee067799,0.044,0.0441,1,63,225,108,1,sevenfive,,,,,,,,,,,,,,,,,,,,,,,,,,,,,,,,,,,,,,,,,,,,,,,,,,,,,,,,,,,,,,,,,,,,,,,,,,,,,,,,,,,,,,,,,,,,,,,,,,,,,,,,,,,,,,,,,,,,,,,,,,,,,,,,,,,,,,,
,,64ae13e7175228ade1bbaeb6,2023-12-06_23h57.10.229,kallum_motion_pilot,2023.2.3,Win32,163.9344262,64ae13e7175228ade1bbaeb6,6560176e4d91f764e2a42c74,65715d07deac88baee067799,0.0442,0.0443,1,64,226,100,1,sevenfive,,,,,,,,,,,,,,,,,,,,,,,,,,,,,,,,,,,,,,,,,,,,,,,,,,,,,,,,,,,,,,,,,,,,,,,,,,,,,,,,,,,,,,,,,,,,,,,,,,,,,,,,,,,,,,,,,,,,,,,,,,,,,,,,,,,,,,,
,,64ae13e7175228ade1bbaeb6,2023-12-06_23h57.10.229,kallum_motion_pilot,2023.2.3,Win32,163.9344262,64ae13e7175228ade1bbaeb6,6560176e4d91f764e2a42c74,65715d07deac88baee067799,0.0443,0.0444,1,65,227,56,1,onetwo,,,,,,,,,,,,,,,,,,,,,,,,,,,,,,,,,,,,,,,,,,,,,,,,,,,,,,,,,,,,,,,,,,,,,,,,,,,,,,,,,,,,,,,,,,,,,,,,,,,,,,,,,,,,,,,,,,,,,,,,,,,,,,,,,,,,,,,
,,64ae13e7175228ade1bbaeb6,2023-12-06_23h57.10.229,kallum_motion_pilot,2023.2.3,Win32,163.9344262,64ae13e7175228ade1bbaeb6,6560176e4d91f764e2a42c74,65715d07deac88baee067799,0.0444,0.0444,1,66,228,50,1,twoone,,,,,,,,,,,,,,,,,,,,,,,,,,,,,,,,,,,,,,,,,,,,,,,,,,,,,,,,,,,,,,,,,,,,,,,,,,,,,,,,,,,,,,,,,,,,,,,,,,,,,,,,,,,,,,,,,,,,,,,,,,,,,,,,,,,,,,,
,,64ae13e7175228ade1bbaeb6,2023-12-06_23h57.10.229,kallum_motion_pilot,2023.2.3,Win32,163.9344262,64ae13e7175228ade1bbaeb6,6560176e4d91f764e2a42c74,65715d07deac88baee067799,0.0445,0.0445,1,67,229,52,1,threeone,,,,,,,,,,,,,,,,,,,,,,,,,,,,,,,,,,,,,,,,,,,,,,,,,,,,,,,,,,,,,,,,,,,,,,,,,,,,,,,,,,,,,,,,,,,,,,,,,,,,,,,,,,,,,,,,,,,,,,,,,,,,,,,,,,,,,,,
,,64ae13e7175228ade1bbaeb6,2023-12-06_23h57.10.229,kallum_motion_pilot,2023.2.3,Win32,163.9344262,64ae13e7175228ade1bbaeb6,6560176e4d91f764e2a42c74,65715d07deac88baee067799,0.0446,0.0447,1,68,230,20,1,threeone,,,,,,,,,,,,,,,,,,,,,,,,,,,,,,,,,,,,,,,,,,,,,,,,,,,,,,,,,,,,,,,,,,,,,,,,,,,,,,,,,,,,,,,,,,,,,,,,,,,,,,,,,,,,,,,,,,,,,,,,,,,,,,,,,,,,,,,
,,64ae13e7175228ade1bbaeb6,2023-12-06_23h57.10.229,kallum_motion_pilot,2023.2.3,Win32,163.9344262,64ae13e7175228ade1bbaeb6,6560176e4d91f764e2a42c74,65715d07deac88baee067799,0.0447,0.0448,1,69,231,114,1,sixfive,,,,,,,,,,,,,,,,,,,,,,,,,,,,,,,,,,,,,,,,,,,,,,,,,,,,,,,,,,,,,,,,,,,,,,,,,,,,,,,,,,,,,,,,,,,,,,,,,,,,,,,,,,,,,,,,,,,,,,,,,,,,,,,,,,,,,,,
,,64ae13e7175228ade1bbaeb6,2023-12-06_23h57.10.229,kallum_motion_pilot,2023.2.3,Win32,163.9344262,64ae13e7175228ade1bbaeb6,6560176e4d91f764e2a42c74,65715d07deac88baee067799,0.0449,0.0449,1,70,232,13,1,threefour,,,,,,,,,,,,,,,,,,,,,,,,,,,,,,,,,,,,,,,,,,,,,,,,,,,,,,,,,,,,,,,,,,,,,,,,,,,,,,,,,,,,,,,,,,,,,,,,,,,,,,,,,,,,,,,,,,,,,,,,,,,,,,,,,,,,,,,
,,64ae13e7175228ade1bbaeb6,2023-12-06_23h57.10.229,kallum_motion_pilot,2023.2.3,Win32,163.9344262,64ae13e7175228ade1bbaeb6,6560176e4d91f764e2a42c74,65715d07deac88baee067799,0.045,0.045,1,71,233,81,1,fiveseven,,,,,,,,,,,,,,,,,,,,,,,,,,,,,,,,,,,,,,,,,,,,,,,,,,,,,,,,,,,,,,,,,,,,,,,,,,,,,,,,,,,,,,,,,,,,,,,,,,,,,,,,,,,,,,,,,,,,,,,,,,,,,,,,,,,,,,,
,,64ae13e7175228ade1bbaeb6,2023-12-06_23h57.10.229,kallum_motion_pilot,2023.2.3,Win32,163.9344262,64ae13e7175228ade1bbaeb6,6560176e4d91f764e2a42c74,65715d07deac88baee067799,0.0451,0.0451,1,72,234,27,1,twofour,,,,,,,,,,,,,,,,,,,,,,,,,,,,,,,,,,,,,,,,,,,,,,,,,,,,,,,,,,,,,,,,,,,,,,,,,,,,,,,,,,,,,,,,,,,,,,,,,,,,,,,,,,,,,,,,,,,,,,,,,,,,,,,,,,,,,,,
,,64ae13e7175228ade1bbaeb6,2023-12-06_23h57.10.229,kallum_motion_pilot,2023.2.3,Win32,163.9344262,64ae13e7175228ade1bbaeb6,6560176e4d91f764e2a42c74,65715d07deac88baee067799,0.0452,0.0452,1,73,235,23,1,fourthree,,,,,,,,,,,,,,,,,,,,,,,,,,,,,,,,,,,,,,,,,,,,,,,,,,,,,,,,,,,,,,,,,,,,,,,,,,,,,,,,,,,,,,,,,,,,,,,,,,,,,,,,,,,,,,,,,,,,,,,,,,,,,,,,,,,,,,,
,,64ae13e7175228ade1bbaeb6,2023-12-06_23h57.10.229,kallum_motion_pilot,2023.2.3,Win32,163.9344262,64ae13e7175228ade1bbaeb6,6560176e4d91f764e2a42c74,65715d07deac88baee067799,0.0453,0.0454,1,74,236,132,1,sevenfive,,,,,,,,,,,,,,,,,,,,,,,,,,,,,,,,,,,,,,,,,,,,,,,,,,,,,,,,,,,,,,,,,,,,,,,,,,,,,,,,,,,,,,,,,,,,,,,,,,,,,,,,,,,,,,,,,,,,,,,,,,,,,,,,,,,,,,,
,,64ae13e7175228ade1bbaeb6,2023-12-06_23h57.10.229,kallum_motion_pilot,2023.2.3,Win32,163.9344262,64ae13e7175228ade1bbaeb6,6560176e4d91f764e2a42c74,65715d07deac88baee067799,0.0454,0.0455,1,75,237,154,1,sixfive,,,,,,,,,,,,,,,,,,,,,,,,,,,,,,,,,,,,,,,,,,,,,,,,,,,,,,,,,,,,,,,,,,,,,,,,,,,,,,,,,,,,,,,,,,,,,,,,,,,,,,,,,,,,,,,,,,,,,,,,,,,,,,,,,,,,,,,
,,64ae13e7175228ade1bbaeb6,2023-12-06_23h57.10.229,kallum_motion_pilot,2023.2.3,Win32,163.9344262,64ae13e7175228ade1bbaeb6,6560176e4d91f764e2a42c74,65715d07deac88baee067799,0.0455,0.0456,1,76,238,111,1,eightseven,,,,,,,,,,,,,,,,,,,,,,,,,,,,,,,,,,,,,,,,,,,,,,,,,,,,,,,,,,,,,,,,,,,,,,,,,,,,,,,,,,,,,,,,,,,,,,,,,,,,,,,,,,,,,,,,,,,,,,,,,,,,,,,,,,,,,,,
,,64ae13e7175228ade1bbaeb6,2023-12-06_23h57.10.229,kallum_motion_pilot,2023.2.3,Win32,163.9344262,64ae13e7175228ade1bbaeb6,6560176e4d91f764e2a42c74,65715d07deac88baee067799,0.0457,0.0458,1,77,239,155,1,sixeight,,,,,,,,,,,,,,,,,,,,,,,,,,,,,,,,,,,,,,,,,,,,,,,,,,,,,,,,,,,,,,,,,,,,,,,,,,,,,,,,,,,,,,,,,,,,,,,,,,,,,,,,,,,,,,,,,,,,,,,,,,,,,,,,,,,,,,,
,,64ae13e7175228ade1bbaeb6,2023-12-06_23h57.10.229,kallum_motion_pilot,2023.2.3,Win32,163.9344262,64ae13e7175228ade1bbaeb6,6560176e4d91f764e2a42c74,65715d07deac88baee067799,0.0458,0.0459,1,78,240,84,1,sevenfive,,,,,,,,,,,,,,,,,,,,,,,,,,,,,,,,,,,,,,,,,,,,,,,,,,,,,,,,,,,,,,,,,,,,,,,,,,,,,,,,,,,,,,,,,,,,,,,,,,,,,,,,,,,,,,,,,,,,,,,,,,,,,,,,,,,,,,,
,,64ae13e7175228ade1bbaeb6,2023-12-06_23h57.10.229,kallum_motion_pilot,2023.2.3,Win32,163.9344262,64ae13e7175228ade1bbaeb6,6560176e4d91f764e2a42c74,65715d07deac88baee067799,0.0459,0.046,1,79,241,151,1,eightseven,,,,,,,,,,,,,,,,,,,,,,,,,,,,,,,,,,,,,,,,,,,,,,,,,,,,,,,,,,,,,,,,,,,,,,,,,,,,,,,,,,,,,,,,,,,,,,,,,,,,,,,,,,,,,,,,,,,,,,,,,,,,,,,,,,,,,,,
,,64ae13e7175228ade1bbaeb6,2023-12-06_23h57.10.229,kallum_motion_pilot,2023.2.3,Win32,163.9344262,64ae13e7175228ade1bbaeb6,6560176e4d91f764e2a42c74,65715d07deac88baee067799,0.046,0.0461,1,80,242,101,1,seveneight,,,,,,,,,,,,,,,,,,,,,,,,,,,,,,,,,,,,,,,,,,,,,,,,,,,,,,,,,,,,,,,,,,,,,,,,,,,,,,,,,,,,,,,,,,,,,,,,,,,,,,,,,,,,,,,,,,,,,,,,,,,,,,,,,,,,,,,
,,64ae13e7175228ade1bbaeb6,2023-12-06_23h57.10.229,kallum_motion_pilot,2023.2.3,Win32,163.9344262,64ae13e7175228ade1bbaeb6,6560176e4d91f764e2a42c74,65715d07deac88baee067799,0.0462,0.0462,1,81,243,30,1,fourtwo,,,,,,,,,,,,,,,,,,,,,,,,,,,,,,,,,,,,,,,,,,,,,,,,,,,,,,,,,,,,,,,,,,,,,,,,,,,,,,,,,,,,,,,,,,,,,,,,,,,,,,,,,,,,,,,,,,,,,,,,,,,,,,,,,,,,,,,
,,64ae13e7175228ade1bbaeb6,2023-12-06_23h57.10.229,kallum_motion_pilot,2023.2.3,Win32,163.9344262,64ae13e7175228ade1bbaeb6,6560176e4d91f764e2a42c74,65715d07deac88baee067799,0.0463,0.0463,1,82,244,3,1,twofour,,,,,,,,,,,,,,,,,,,,,,,,,,,,,,,,,,,,,,,,,,,,,,,,,,,,,,,,,,,,,,,,,,,,,,,,,,,,,,,,,,,,,,,,,,,,,,,,,,,,,,,,,,,,,,,,,,,,,,,,,,,,,,,,,,,,,,,
,,64ae13e7175228ade1bbaeb6,2023-12-06_23h57.10.229,kallum_motion_pilot,2023.2.3,Win32,163.9344262,64ae13e7175228ade1bbaeb6,6560176e4d91f764e2a42c74,65715d07deac88baee067799,0.0464,0.0464,1,83,245,58,1,twoone,,,,,,,,,,,,,,,,,,,,,,,,,,,,,,,,,,,,,,,,,,,,,,,,,,,,,,,,,,,,,,,,,,,,,,,,,,,,,,,,,,,,,,,,,,,,,,,,,,,,,,,,,,,,,,,,,,,,,,,,,,,,,,,,,,,,,,,
,,64ae13e7175228ade1bbaeb6,2023-12-06_23h57.10.229,kallum_motion_pilot,2023.2.3,Win32,163.9344262,64ae13e7175228ade1bbaeb6,6560176e4d91f764e2a42c74,65715d07deac88baee067799,0.0465,0.0465,1,84,246,99,1,sixeight,,,,,,,,,,,,,,,,,,,,,,,,,,,,,,,,,,,,,,,,,,,,,,,,,,,,,,,,,,,,,,,,,,,,,,,,,,,,,,,,,,,,,,,,,,,,,,,,,,,,,,,,,,,,,,,,,,,,,,,,,,,,,,,,,,,,,,,
,,64ae13e7175228ade1bbaeb6,2023-12-06_23h57.10.229,kallum_motion_pilot,2023.2.3,Win32,163.9344262,64ae13e7175228ade1bbaeb6,6560176e4d91f764e2a42c74,65715d07deac88baee067799,0.0466,0.0467,1,85,247,48,1,onetwo,,,,,,,,,,,,,,,,,,,,,,,,,,,,,,,,,,,,,,,,,,,,,,,,,,,,,,,,,,,,,,,,,,,,,,,,,,,,,,,,,,,,,,,,,,,,,,,,,,,,,,,,,,,,,,,,,,,,,,,,,,,,,,,,,,,,,,,
,,64ae13e7175228ade1bbaeb6,2023-12-06_23h57.10.229,kallum_motion_pilot,2023.2.3,Win32,163.9344262,64ae13e7175228ade1bbaeb6,6560176e4d91f764e2a42c74,65715d07deac88baee067799,0.0467,0.0468,1,86,248,112,1,fivesix,,,,,,,,,,,,,,,,,,,,,,,,,,,,,,,,,,,,,,,,,,,,,,,,,,,,,,,,,,,,,,,,,,,,,,,,,,,,,,,,,,,,,,,,,,,,,,,,,,,,,,,,,,,,,,,,,,,,,,,,,,,,,,,,,,,,,,,
,,64ae13e7175228ade1bbaeb6,2023-12-06_23h57.10.229,kallum_motion_pilot,2023.2.3,Win32,163.9344262,64ae13e7175228ade1bbaeb6,6560176e4d91f764e2a42c74,65715d07deac88baee067799,0.0469,0.0469,1,87,249,144,1,fivesix,,,,,,,,,,,,,,,,,,,,,,,,,,,,,,,,,,,,,,,,,,,,,,,,,,,,,,,,,,,,,,,,,,,,,,,,,,,,,,,,,,,,,,,,,,,,,,,,,,,,,,,,,,,,,,,,,,,,,,,,,,,,,,,,,,,,,,,
,,64ae13e7175228ade1bbaeb6,2023-12-06_23h57.10.229,kallum_motion_pilot,2023.2.3,Win32,163.9344262,64ae13e7175228ade1bbaeb6,6560176e4d91f764e2a42c74,65715d07deac88baee067799,0.047,0.0471,1,88,250,149,1,seveneight,,,,,,,,,,,,,,,,,,,,,,,,,,,,,,,,,,,,,,,,,,,,,,,,,,,,,,,,,,,,,,,,,,,,,,,,,,,,,,,,,,,,,,,,,,,,,,,,,,,,,,,,,,,,,,,,,,,,,,,,,,,,,,,,,,,,,,,
,,64ae13e7175228ade1bbaeb6,2023-12-06_23h57.10.229,kallum_motion_pilot,2023.2.3,Win32,163.9344262,64ae13e7175228ade1bbaeb6,6560176e4d91f764e2a42c74,65715d07deac88baee067799,0.0471,0.0471,1,89,251,71,1,fourthree,,,,,,,,,,,,,,,,,,,,,,,,,,,,,,,,,,,,,,,,,,,,,,,,,,,,,,,,,,,,,,,,,,,,,,,,,,,,,,,,,,,,,,,,,,,,,,,,,,,,,,,,,,,,,,,,,,,,,,,,,,,,,,,,,,,,,,,
,,64ae13e7175228ade1bbaeb6,2023-12-06_23h57.10.229,kallum_motion_pilot,2023.2.3,Win32,163.9344262,64ae13e7175228ade1bbaeb6,6560176e4d91f764e2a42c74,65715d07deac88baee067799,0.0473,0.0473,1,90,252,85,1,seveneight,,,,,,,,,,,,,,,,,,,,,,,,,,,,,,,,,,,,,,,,,,,,,,,,,,,,,,,,,,,,,,,,,,,,,,,,,,,,,,,,,,,,,,,,,,,,,,,,,,,,,,,,,,,,,,,,,,,,,,,,,,,,,,,,,,,,,,,
,,64ae13e7175228ade1bbaeb6,2023-12-06_23h57.10.229,kallum_motion_pilot,2023.2.3,Win32,163.9344262,64ae13e7175228ade1bbaeb6,6560176e4d91f764e2a42c74,65715d07deac88baee067799,0.0474,0.0474,1,91,253,44,1,threeone,,,,,,,,,,,,,,,,,,,,,,,,,,,,,,,,,,,,,,,,,,,,,,,,,,,,,,,,,,,,,,,,,,,,,,,,,,,,,,,,,,,,,,,,,,,,,,,,,,,,,,,,,,,,,,,,,,,,,,,,,,,,,,,,,,,,,,,
,,64ae13e7175228ade1bbaeb6,2023-12-06_23h57.10.229,kallum_motion_pilot,2023.2.3,Win32,163.9344262,64ae13e7175228ade1bbaeb6,6560176e4d91f764e2a42c74,65715d07deac88baee067799,0.0475,0.0476,1,92,254,133,1,seveneight,,,,,,,,,,,,,,,,,,,,,,,,,,,,,,,,,,,,,,,,,,,,,,,,,,,,,,,,,,,,,,,,,,,,,,,,,,,,,,,,,,,,,,,,,,,,,,,,,,,,,,,,,,,,,,,,,,,,,,,,,,,,,,,,,,,,,,,
,,64ae13e7175228ade1bbaeb6,2023-12-06_23h57.10.229,kallum_motion_pilot,2023.2.3,Win32,163.9344262,64ae13e7175228ade1bbaeb6,6560176e4d91f764e2a42c74,65715d07deac88baee067799,0.0477,0.0477,1,93,255,1,1,onethree,,,,,,,,,,,,,,,,,,,,,,,,,,,,,,,,,,,,,,,,,,,,,,,,,,,,,,,,,,,,,,,,,,,,,,,,,,,,,,,,,,,,,,,,,,,,,,,,,,,,,,,,,,,,,,,,,,,,,,,,,,,,,,,,,,,,,,,
,,64ae13e7175228ade1bbaeb6,2023-12-06_23h57.10.229,kallum_motion_pilot,2023.2.3,Win32,163.9344262,64ae13e7175228ade1bbaeb6,6560176e4d91f764e2a42c74,65715d07deac88baee067799,0.0478,0.0478,1,94,256,117,1,seveneight,,,,,,,,,,,,,,,,,,,,,,,,,,,,,,,,,,,,,,,,,,,,,,,,,,,,,,,,,,,,,,,,,,,,,,,,,,,,,,,,,,,,,,,,,,,,,,,,,,,,,,,,,,,,,,,,,,,,,,,,,,,,,,,,,,,,,,,
,,64ae13e7175228ade1bbaeb6,2023-12-06_23h57.10.229,kallum_motion_pilot,2023.2.3,Win32,163.9344262,64ae13e7175228ade1bbaeb6,6560176e4d91f764e2a42c74,65715d07deac88baee067799,0.0479,0.048,1,95,257,47,1,fourthree,,,,,,,,,,,,,,,,,,,,,,,,,,,,,,,,,,,,,,,,,,,,,,,,,,,,,,,,,,,,,,,,,,,,,,,,,,,,,,,,,,,,,,,,,,,,,,,,,,,,,,,,,,,,,,,,,,,,,,,,,,,,,,,,,,,,,,,
,,64ae13e7175228ade1bbaeb6,2023-12-06_23h57.10.229,kallum_motion_pilot,2023.2.3,Win32,163.9344262,64ae13e7175228ade1bbaeb6,6560176e4d91f764e2a42c74,65715d07deac88baee067799,0.048,0.0481,1,96,258,136,1,fivesix,,,,,,,,,,,,,,,,,,,,,,,,,,,,,,,,,,,,,,,,,,,,,,,,,,,,,,,,,,,,,,,,,,,,,,,,,,,,,,,,,,,,,,,,,,,,,,,,,,,,,,,,,,,,,,,,,,,,,,,,,,,,,,,,,,,,,,,
,,64ae13e7175228ade1bbaeb6,2023-12-06_23h57.10.229,kallum_motion_pilot,2023.2.3,Win32,163.9344262,64ae13e7175228ade1bbaeb6,6560176e4d91f764e2a42c74,65715d07deac88baee067799,0.0481,0.0483,1,97,259,105,1,fiveseven,,,,,,,,,,,,,,,,,,,,,,,,,,,,,,,,,,,,,,,,,,,,,,,,,,,,,,,,,,,,,,,,,,,,,,,,,,,,,,,,,,,,,,,,,,,,,,,,,,,,,,,,,,,,,,,,,,,,,,,,,,,,,,,,,,,,,,,
,,64ae13e7175228ade1bbaeb6,2023-12-06_23h57.10.229,kallum_motion_pilot,2023.2.3,Win32,163.9344262,64ae13e7175228ade1bbaeb6,6560176e4d91f764e2a42c74,65715d07deac88baee067799,0.0483,0.0484,1,98,260,40,1,onetwo,,,,,,,,,,,,,,,,,,,,,,,,,,,,,,,,,,,,,,,,,,,,,,,,,,,,,,,,,,,,,,,,,,,,,,,,,,,,,,,,,,,,,,,,,,,,,,,,,,,,,,,,,,,,,,,,,,,,,,,,,,,,,,,,,,,,,,,
,,64ae13e7175228ade1bbaeb6,2023-12-06_23h57.10.229,kallum_motion_pilot,2023.2.3,Win32,163.9344262,64ae13e7175228ade1bbaeb6,6560176e4d91f764e2a42c74,65715d07deac88baee067799,0.0485,0.0485,1,99,261,161,1,fiveseven,,,,,,,,,,,,,,,,,,,,,,,,,,,,,,,,,,,,,,,,,,,,,,,,,,,,,,,,,,,,,,,,,,,,,,,,,,,,,,,,,,,,,,,,,,,,,,,,,,,,,,,,,,,,,,,,,,,,,,,,,,,,,,,,,,,,,,,
,,64ae13e7175228ade1bbaeb6,2023-12-06_23h57.10.229,kallum_motion_pilot,2023.2.3,Win32,163.9344262,64ae13e7175228ade1bbaeb6,6560176e4d91f764e2a42c74,65715d07deac88baee067799,0.0486,0.0487,1,100,262,106,1,sixfive,,,,,,,,,,,,,,,,,,,,,,,,,,,,,,,,,,,,,,,,,,,,,,,,,,,,,,,,,,,,,,,,,,,,,,,,,,,,,,,,,,,,,,,,,,,,,,,,,,,,,,,,,,,,,,,,,,,,,,,,,,,,,,,,,,,,,,,
,,64ae13e7175228ade1bbaeb6,2023-12-06_23h57.10.229,kallum_motion_pilot,2023.2.3,Win32,163.9344262,64ae13e7175228ade1bbaeb6,6560176e4d91f764e2a42c74,65715d07deac88baee067799,0.0487,0.0487,1,101,263,152,1,fivesix,,,,,,,,,,,,,,,,,,,,,,,,,,,,,,,,,,,,,,,,,,,,,,,,,,,,,,,,,,,,,,,,,,,,,,,,,,,,,,,,,,,,,,,,,,,,,,,,,,,,,,,,,,,,,,,,,,,,,,,,,,,,,,,,,,,,,,,
,,64ae13e7175228ade1bbaeb6,2023-12-06_23h57.10.229,kallum_motion_pilot,2023.2.3,Win32,163.9344262,64ae13e7175228ade1bbaeb6,6560176e4d91f764e2a42c74,65715d07deac88baee067799,0.0489,0.0489,1,102,264,8,1,onetwo,,,,,,,,,,,,,,,,,,,,,,,,,,,,,,,,,,,,,,,,,,,,,,,,,,,,,,,,,,,,,,,,,,,,,,,,,,,,,,,,,,,,,,,,,,,,,,,,,,,,,,,,,,,,,,,,,,,,,,,,,,,,,,,,,,,,,,,
,,64ae13e7175228ade1bbaeb6,2023-12-06_23h57.10.229,kallum_motion_pilot,2023.2.3,Win32,163.9344262,64ae13e7175228ade1bbaeb6,6560176e4d91f764e2a42c74,65715d07deac88baee067799,0.049,0.0491,1,103,265,59,1,twofour,,,,,,,,,,,,,,,,,,,,,,,,,,,,,,,,,,,,,,,,,,,,,,,,,,,,,,,,,,,,,,,,,,,,,,,,,,,,,,,,,,,,,,,,,,,,,,,,,,,,,,,,,,,,,,,,,,,,,,,,,,,,,,,,,,,,,,,
,,64ae13e7175228ade1bbaeb6,2023-12-06_23h57.10.229,kallum_motion_pilot,2023.2.3,Win32,163.9344262,64ae13e7175228ade1bbaeb6,6560176e4d91f764e2a42c74,65715d07deac88baee067799,0.0491,0.0491,1,104,266,158,1,eightsix,,,,,,,,,,,,,,,,,,,,,,,,,,,,,,,,,,,,,,,,,,,,,,,,,,,,,,,,,,,,,,,,,,,,,,,,,,,,,,,,,,,,,,,,,,,,,,,,,,,,,,,,,,,,,,,,,,,,,,,,,,,,,,,,,,,,,,,
,,64ae13e7175228ade1bbaeb6,2023-12-06_23h57.10.229,kallum_motion_pilot,2023.2.3,Win32,163.9344262,64ae13e7175228ade1bbaeb6,6560176e4d91f764e2a42c74,65715d07deac88baee067799,0.0492,0.0493,1,105,267,77,1,threefour,,,,,,,,,,,,,,,,,,,,,,,,,,,,,,,,,,,,,,,,,,,,,,,,,,,,,,,,,,,,,,,,,,,,,,,,,,,,,,,,,,,,,,,,,,,,,,,,,,,,,,,,,,,,,,,,,,,,,,,,,,,,,,,,,,,,,,,
,,64ae13e7175228ade1bbaeb6,2023-12-06_23h57.10.229,kallum_motion_pilot,2023.2.3,Win32,163.9344262,64ae13e7175228ade1bbaeb6,6560176e4d91f764e2a42c74,65715d07deac88baee067799,0.0493,0.0493,1,106,268,110,1,eightsix,,,,,,,,,,,,,,,,,,,,,,,,,,,,,,,,,,,,,,,,,,,,,,,,,,,,,,,,,,,,,,,,,,,,,,,,,,,,,,,,,,,,,,,,,,,,,,,,,,,,,,,,,,,,,,,,,,,,,,,,,,,,,,,,,,,,,,,
,,64ae13e7175228ade1bbaeb6,2023-12-06_23h57.10.229,kallum_motion_pilot,2023.2.3,Win32,163.9344262,64ae13e7175228ade1bbaeb6,6560176e4d91f764e2a42c74,65715d07deac88baee067799,0.0494,0.0496,1,107,269,63,1,fourthree,,,,,,,,,,,,,,,,,,,,,,,,,,,,,,,,,,,,,,,,,,,,,,,,,,,,,,,,,,,,,,,,,,,,,,,,,,,,,,,,,,,,,,,,,,,,,,,,,,,,,,,,,,,,,,,,,,,,,,,,,,,,,,,,,,,,,,,
,,64ae13e7175228ade1bbaeb6,2023-12-06_23h57.10.229,kallum_motion_pilot,2023.2.3,Win32,163.9344262,64ae13e7175228ade1bbaeb6,6560176e4d91f764e2a42c74,65715d07deac88baee067799,0.0496,0.0496,1,108,270,92,1,sevenfive,,,,,,,,,,,,,,,,,,,,,,,,,,,,,,,,,,,,,,,,,,,,,,,,,,,,,,,,,,,,,,,,,,,,,,,,,,,,,,,,,,,,,,,,,,,,,,,,,,,,,,,,,,,,,,,,,,,,,,,,,,,,,,,,,,,,,,,
,,64ae13e7175228ade1bbaeb6,2023-12-06_23h57.10.229,kallum_motion_pilot,2023.2.3,Win32,163.9344262,64ae13e7175228ade1bbaeb6,6560176e4d91f764e2a42c74,65715d07deac88baee067799,0.0498,0.0498,1,109,271,143,1,eightseven,,,,,,,,,,,,,,,,,,,,,,,,,,,,,,,,,,,,,,,,,,,,,,,,,,,,,,,,,,,,,,,,,,,,,,,,,,,,,,,,,,,,,,,,,,,,,,,,,,,,,,,,,,,,,,,,,,,,,,,,,,,,,,,,,,,,,,,
,,64ae13e7175228ade1bbaeb6,2023-12-06_23h57.10.229,kallum_motion_pilot,2023.2.3,Win32,163.9344262,64ae13e7175228ade1bbaeb6,6560176e4d91f764e2a42c74,65715d07deac88baee067799,0.0498,0.0499,1,110,272,60,1,threeone,,,,,,,,,,,,,,,,,,,,,,,,,,,,,,,,,,,,,,,,,,,,,,,,,,,,,,,,,,,,,,,,,,,,,,,,,,,,,,,,,,,,,,,,,,,,,,,,,,,,,,,,,,,,,,,,,,,,,,,,,,,,,,,,,,,,,,,
,,64ae13e7175228ade1bbaeb6,2023-12-06_23h57.10.229,kallum_motion_pilot,2023.2.3,Win32,163.9344262,64ae13e7175228ade1bbaeb6,6560176e4d91f764e2a42c74,65715d07deac88baee067799,0.0499,0.05,1,111,273,123,1,sixeight,,,,,,,,,,,,,,,,,,,,,,,,,,,,,,,,,,,,,,,,,,,,,,,,,,,,,,,,,,,,,,,,,,,,,,,,,,,,,,,,,,,,,,,,,,,,,,,,,,,,,,,,,,,,,,,,,,,,,,,,,,,,,,,,,,,,,,,
,,64ae13e7175228ade1bbaeb6,2023-12-06_23h57.10.229,kallum_motion_pilot,2023.2.3,Win32,163.9344262,64ae13e7175228ade1bbaeb6,6560176e4d91f764e2a42c74,65715d07deac88baee067799,0.0501,0.0501,1,112,274,55,1,fourthree,,,,,,,,,,,,,,,,,,,,,,,,,,,,,,,,,,,,,,,,,,,,,,,,,,,,,,,,,,,,,,,,,,,,,,,,,,,,,,,,,,,,,,,,,,,,,,,,,,,,,,,,,,,,,,,,,,,,,,,,,,,,,,,,,,,,,,,
,,64ae13e7175228ade1bbaeb6,2023-12-06_23h57.10.229,kallum_motion_pilot,2023.2.3,Win32,163.9344262,64ae13e7175228ade1bbaeb6,6560176e4d91f764e2a42c74,65715d07deac88baee067799,0.0502,0.0503,1,113,275,28,1,threeone,,,,,,,,,,,,,,,,,,,,,,,,,,,,,,,,,,,,,,,,,,,,,,,,,,,,,,,,,,,,,,,,,,,,,,,,,,,,,,,,,,,,,,,,,,,,,,,,,,,,,,,,,,,,,,,,,,,,,,,,,,,,,,,,,,,,,,,
,,64ae13e7175228ade1bbaeb6,2023-12-06_23h57.10.229,kallum_motion_pilot,2023.2.3,Win32,163.9344262,64ae13e7175228ade1bbaeb6,6560176e4d91f764e2a42c74,65715d07deac88baee067799,0.0503,0.0504,1,114,276,43,1,twofour,,,,,,,,,,,,,,,,,,,,,,,,,,,,,,,,,,,,,,,,,,,,,,,,,,,,,,,,,,,,,,,,,,,,,,,,,,,,,,,,,,,,,,,,,,,,,,,,,,,,,,,,,,,,,,,,,,,,,,,,,,,,,,,,,,,,,,,
,,64ae13e7175228ade1bbaeb6,2023-12-06_23h57.10.229,kallum_motion_pilot,2023.2.3,Win32,163.9344262,64ae13e7175228ade1bbaeb6,6560176e4d91f764e2a42c74,65715d07deac88baee067799,0.0505,0.0506,1,115,277,122,1,sixfive,,,,,,,,,,,,,,,,,,,,,,,,,,,,,,,,,,,,,,,,,,,,,,,,,,,,,,,,,,,,,,,,,,,,,,,,,,,,,,,,,,,,,,,,,,,,,,,,,,,,,,,,,,,,,,,,,,,,,,,,,,,,,,,,,,,,,,,
,,64ae13e7175228ade1bbaeb6,2023-12-06_23h57.10.229,kallum_motion_pilot,2023.2.3,Win32,163.9344262,64ae13e7175228ade1bbaeb6,6560176e4d91f764e2a42c74,65715d07deac88baee067799,0.0507,0.0507,1,116,278,102,1,eightsix,,,,,,,,,,,,,,,,,,,,,,,,,,,,,,,,,,,,,,,,,,,,,,,,,,,,,,,,,,,,,,,,,,,,,,,,,,,,,,,,,,,,,,,,,,,,,,,,,,,,,,,,,,,,,,,,,,,,,,,,,,,,,,,,,,,,,,,
,,64ae13e7175228ade1bbaeb6,2023-12-06_23h57.10.229,kallum_motion_pilot,2023.2.3,Win32,163.9344262,64ae13e7175228ade1bbaeb6,6560176e4d91f764e2a42c74,65715d07deac88baee067799,0.0508,0.0509,1,117,279,41,1,onethree,,,,,,,,,,,,,,,,,,,,,,,,,,,,,,,,,,,,,,,,,,,,,,,,,,,,,,,,,,,,,,,,,,,,,,,,,,,,,,,,,,,,,,,,,,,,,,,,,,,,,,,,,,,,,,,,,,,,,,,,,,,,,,,,,,,,,,,
