startup.started,startup.stopped,Prolific ID*,date,expName,psychopyVersion,OS,frameRate,participant,study_id,session,stimpositions.started,stimpositions.stopped,hardcoded_stimulus_positions.thisRepN,hardcoded_stimulus_positions.thisTrialN,hardcoded_stimulus_positions.thisN,hardcoded_stimulus_positions.thisIndex,hardcoded_stimulus_positions.ran,StimulusPos,stimorientation.started,stimorientation.stopped,prac_stimorientation_import_loop.thisRepN,prac_stimorientation_import_loop.thisTrialN,prac_stimorientation_import_loop.thisN,prac_stimorientation_import_loop.thisIndex,prac_stimorientation_import_loop.ran,Stimorientation,welcome_instr.started,welcome_instr.stopped,key_resp.keys,key_resp.rt,key_resp.duration,response_steppedout_1.started,response_steppedout_1.stopped,key_resp_20.keys,key_resp_20.rt,key_resp_20.duration,response_steppedout_2.started,response_steppedout_2.stopped,key_resp_19.keys,key_resp_19.rt,key_resp_19.duration,stim_response_instr.started,stim_response_instr.stopped,key_resp_15.keys,key_resp_15.rt,key_resp_15.duration,direction_instr_2.started,direction_instr_2.stopped,key_resp_9.keys,key_resp_9.rt,key_resp_9.duration,instr_prac.started,instr_prac.stopped,key_resp_10.keys,key_resp_10.rt,key_resp_10.duration,Stim1_display_prac.started,Stim1_display_prac.stopped,Ecc,Circle1_ori,Circle2_ori,response_prac.started,similarity,response_time,response_prac.stopped,mouse_5.x,mouse_5.y,mouse_5.leftButton,mouse_5.midButton,mouse_5.rightButton,mouse_5.clicked_name,responseprac_feedback.started,responseprac_feedback.stopped,summary2_prac.started,summary2_prac.stopped,mouse_6.x,mouse_6.y,mouse_6.leftButton,mouse_6.midButton,mouse_6.rightButton,mouse_6.clicked_name,duringprac.thisRepN,duringprac.thisTrialN,duringprac.thisN,duringprac.thisIndex,duringprac.ran,begin.started,begin.stopped,key_resp_22.keys,key_resp_22.rt,key_resp_22.duration,Stim1_display.started,Stim1_display.stopped,circle1_ori,circle2_ori,blank.started,blank.stopped,response.started,response.stopped,mouse.x,mouse.y,mouse.leftButton,mouse.midButton,mouse.rightButton,mouse.clicked_name,response_2.started,response_2.stopped,mouse_2.x,mouse_2.y,mouse_2.leftButton,mouse_2.midButton,mouse_2.rightButton,mouse_2.clicked_name,special_trial.started,special_trial.stopped,catch_1.started,catch_1.stopped,mouse_3.x,mouse_3.y,mouse_3.leftButton,mouse_3.midButton,mouse_3.rightButton,catchresponse,catchnumber,response_time_catch,Catch,response_sum.started,response_sum.stopped,mouse_11.x,mouse_11.y,mouse_11.leftButton,mouse_11.midButton,mouse_11.rightButton,main_trial.thisRepN,main_trial.thisTrialN,main_trial.thisN,main_trial.thisIndex,main_trial.ran,Orientationtrialno,xcircle1_ori,xcircle2_ori,flip_presentation_sequence_for_double_pass.started,flip_presentation_sequence_for_double_pass.stopped,double_pass.thisRepN,double_pass.thisTrialN,double_pass.thisN,double_pass.thisIndex,double_pass.ran,goodbye.started,goodbye.stopped,key_resp_3.keys,key_resp_3.rt,key_resp_3.duration
0.0002,0.0003,650309a7aa388e72bb5f3d22,2023-12-07_08h05.36.738,kallum_motion_pilot,2023.2.3,Win32,60.17209218,650309a7aa388e72bb5f3d22,6560176e4d91f764e2a42c74,65716d7385b7c4c7ee00e1a0,,,,,,,,,,,,,,,,,,,,,,,,,,,,,,,,,,,,,,,,,,,,,,,,,,,,,,,,,,,,,,,,,,,,,,,,,,,,,,,,,,,,,,,,,,,,,,,,,,,,,,,,,,,,,,,,,,,,,,,,,,,,,,,,,,,,,,,,,,,,,,,
,,650309a7aa388e72bb5f3d22,2023-12-07_08h05.36.738,kallum_motion_pilot,2023.2.3,Win32,60.17209218,650309a7aa388e72bb5f3d22,6560176e4d91f764e2a42c74,65716d7385b7c4c7ee00e1a0,0.0127,0.0128,0,0,0,7,1,fourthree,,,,,,,,,,,,,,,,,,,,,,,,,,,,,,,,,,,,,,,,,,,,,,,,,,,,,,,,,,,,,,,,,,,,,,,,,,,,,,,,,,,,,,,,,,,,,,,,,,,,,,,,,,,,,,,,,,,,,,,,,,,,,,,,,,,,,,,
,,650309a7aa388e72bb5f3d22,2023-12-07_08h05.36.738,kallum_motion_pilot,2023.2.3,Win32,60.17209218,650309a7aa388e72bb5f3d22,6560176e4d91f764e2a42c74,65716d7385b7c4c7ee00e1a0,0.0129,0.013,0,1,1,49,1,onethree,,,,,,,,,,,,,,,,,,,,,,,,,,,,,,,,,,,,,,,,,,,,,,,,,,,,,,,,,,,,,,,,,,,,,,,,,,,,,,,,,,,,,,,,,,,,,,,,,,,,,,,,,,,,,,,,,,,,,,,,,,,,,,,,,,,,,,,
,,650309a7aa388e72bb5f3d22,2023-12-07_08h05.36.738,kallum_motion_pilot,2023.2.3,Win32,60.17209218,650309a7aa388e72bb5f3d22,6560176e4d91f764e2a42c74,65716d7385b7c4c7ee00e1a0,0.013,0.013,0,2,2,27,1,twofour,,,,,,,,,,,,,,,,,,,,,,,,,,,,,,,,,,,,,,,,,,,,,,,,,,,,,,,,,,,,,,,,,,,,,,,,,,,,,,,,,,,,,,,,,,,,,,,,,,,,,,,,,,,,,,,,,,,,,,,,,,,,,,,,,,,,,,,
,,650309a7aa388e72bb5f3d22,2023-12-07_08h05.36.738,kallum_motion_pilot,2023.2.3,Win32,60.17209218,650309a7aa388e72bb5f3d22,6560176e4d91f764e2a42c74,65716d7385b7c4c7ee00e1a0,0.0131,0.0131,0,3,3,14,1,fourtwo,,,,,,,,,,,,,,,,,,,,,,,,,,,,,,,,,,,,,,,,,,,,,,,,,,,,,,,,,,,,,,,,,,,,,,,,,,,,,,,,,,,,,,,,,,,,,,,,,,,,,,,,,,,,,,,,,,,,,,,,,,,,,,,,,,,,,,,
,,650309a7aa388e72bb5f3d22,2023-12-07_08h05.36.738,kallum_motion_pilot,2023.2.3,Win32,60.17209218,650309a7aa388e72bb5f3d22,6560176e4d91f764e2a42c74,65716d7385b7c4c7ee00e1a0,0.0132,0.0132,0,4,4,37,1,threefour,,,,,,,,,,,,,,,,,,,,,,,,,,,,,,,,,,,,,,,,,,,,,,,,,,,,,,,,,,,,,,,,,,,,,,,,,,,,,,,,,,,,,,,,,,,,,,,,,,,,,,,,,,,,,,,,,,,,,,,,,,,,,,,,,,,,,,,
,,650309a7aa388e72bb5f3d22,2023-12-07_08h05.36.738,kallum_motion_pilot,2023.2.3,Win32,60.17209218,650309a7aa388e72bb5f3d22,6560176e4d91f764e2a42c74,65716d7385b7c4c7ee00e1a0,0.0133,0.0133,0,5,5,53,1,threefour,,,,,,,,,,,,,,,,,,,,,,,,,,,,,,,,,,,,,,,,,,,,,,,,,,,,,,,,,,,,,,,,,,,,,,,,,,,,,,,,,,,,,,,,,,,,,,,,,,,,,,,,,,,,,,,,,,,,,,,,,,,,,,,,,,,,,,,
,,650309a7aa388e72bb5f3d22,2023-12-07_08h05.36.738,kallum_motion_pilot,2023.2.3,Win32,60.17209218,650309a7aa388e72bb5f3d22,6560176e4d91f764e2a42c74,65716d7385b7c4c7ee00e1a0,0.0133,0.0134,0,6,6,127,1,eightseven,,,,,,,,,,,,,,,,,,,,,,,,,,,,,,,,,,,,,,,,,,,,,,,,,,,,,,,,,,,,,,,,,,,,,,,,,,,,,,,,,,,,,,,,,,,,,,,,,,,,,,,,,,,,,,,,,,,,,,,,,,,,,,,,,,,,,,,
,,650309a7aa388e72bb5f3d22,2023-12-07_08h05.36.738,kallum_motion_pilot,2023.2.3,Win32,60.17209218,650309a7aa388e72bb5f3d22,6560176e4d91f764e2a42c74,65716d7385b7c4c7ee00e1a0,0.0134,0.0134,0,7,7,91,1,sixeight,,,,,,,,,,,,,,,,,,,,,,,,,,,,,,,,,,,,,,,,,,,,,,,,,,,,,,,,,,,,,,,,,,,,,,,,,,,,,,,,,,,,,,,,,,,,,,,,,,,,,,,,,,,,,,,,,,,,,,,,,,,,,,,,,,,,,,,
,,650309a7aa388e72bb5f3d22,2023-12-07_08h05.36.738,kallum_motion_pilot,2023.2.3,Win32,60.17209218,650309a7aa388e72bb5f3d22,6560176e4d91f764e2a42c74,65716d7385b7c4c7ee00e1a0,0.0134,0.0134,0,8,8,48,1,onetwo,,,,,,,,,,,,,,,,,,,,,,,,,,,,,,,,,,,,,,,,,,,,,,,,,,,,,,,,,,,,,,,,,,,,,,,,,,,,,,,,,,,,,,,,,,,,,,,,,,,,,,,,,,,,,,,,,,,,,,,,,,,,,,,,,,,,,,,
,,650309a7aa388e72bb5f3d22,2023-12-07_08h05.36.738,kallum_motion_pilot,2023.2.3,Win32,60.17209218,650309a7aa388e72bb5f3d22,6560176e4d91f764e2a42c74,65716d7385b7c4c7ee00e1a0,0.0135,0.0136,0,9,9,121,1,fiveseven,,,,,,,,,,,,,,,,,,,,,,,,,,,,,,,,,,,,,,,,,,,,,,,,,,,,,,,,,,,,,,,,,,,,,,,,,,,,,,,,,,,,,,,,,,,,,,,,,,,,,,,,,,,,,,,,,,,,,,,,,,,,,,,,,,,,,,,
,,650309a7aa388e72bb5f3d22,2023-12-07_08h05.36.738,kallum_motion_pilot,2023.2.3,Win32,60.17209218,650309a7aa388e72bb5f3d22,6560176e4d91f764e2a42c74,65716d7385b7c4c7ee00e1a0,0.0136,0.0136,0,10,10,98,1,sixfive,,,,,,,,,,,,,,,,,,,,,,,,,,,,,,,,,,,,,,,,,,,,,,,,,,,,,,,,,,,,,,,,,,,,,,,,,,,,,,,,,,,,,,,,,,,,,,,,,,,,,,,,,,,,,,,,,,,,,,,,,,,,,,,,,,,,,,,
,,650309a7aa388e72bb5f3d22,2023-12-07_08h05.36.738,kallum_motion_pilot,2023.2.3,Win32,60.17209218,650309a7aa388e72bb5f3d22,6560176e4d91f764e2a42c74,65716d7385b7c4c7ee00e1a0,0.0137,0.0137,0,11,11,141,1,seveneight,,,,,,,,,,,,,,,,,,,,,,,,,,,,,,,,,,,,,,,,,,,,,,,,,,,,,,,,,,,,,,,,,,,,,,,,,,,,,,,,,,,,,,,,,,,,,,,,,,,,,,,,,,,,,,,,,,,,,,,,,,,,,,,,,,,,,,,
,,650309a7aa388e72bb5f3d22,2023-12-07_08h05.36.738,kallum_motion_pilot,2023.2.3,Win32,60.17209218,650309a7aa388e72bb5f3d22,6560176e4d91f764e2a42c74,65716d7385b7c4c7ee00e1a0,0.0137,0.0137,0,12,12,51,1,twofour,,,,,,,,,,,,,,,,,,,,,,,,,,,,,,,,,,,,,,,,,,,,,,,,,,,,,,,,,,,,,,,,,,,,,,,,,,,,,,,,,,,,,,,,,,,,,,,,,,,,,,,,,,,,,,,,,,,,,,,,,,,,,,,,,,,,,,,
,,650309a7aa388e72bb5f3d22,2023-12-07_08h05.36.738,kallum_motion_pilot,2023.2.3,Win32,60.17209218,650309a7aa388e72bb5f3d22,6560176e4d91f764e2a42c74,65716d7385b7c4c7ee00e1a0,0.0137,0.0137,0,13,13,120,1,fivesix,,,,,,,,,,,,,,,,,,,,,,,,,,,,,,,,,,,,,,,,,,,,,,,,,,,,,,,,,,,,,,,,,,,,,,,,,,,,,,,,,,,,,,,,,,,,,,,,,,,,,,,,,,,,,,,,,,,,,,,,,,,,,,,,,,,,,,,
,,650309a7aa388e72bb5f3d22,2023-12-07_08h05.36.738,kallum_motion_pilot,2023.2.3,Win32,60.17209218,650309a7aa388e72bb5f3d22,6560176e4d91f764e2a42c74,65716d7385b7c4c7ee00e1a0,0.0138,0.0138,0,14,14,151,1,eightseven,,,,,,,,,,,,,,,,,,,,,,,,,,,,,,,,,,,,,,,,,,,,,,,,,,,,,,,,,,,,,,,,,,,,,,,,,,,,,,,,,,,,,,,,,,,,,,,,,,,,,,,,,,,,,,,,,,,,,,,,,,,,,,,,,,,,,,,
,,650309a7aa388e72bb5f3d22,2023-12-07_08h05.36.738,kallum_motion_pilot,2023.2.3,Win32,60.17209218,650309a7aa388e72bb5f3d22,6560176e4d91f764e2a42c74,65716d7385b7c4c7ee00e1a0,0.0138,0.0138,0,15,15,83,1,sixeight,,,,,,,,,,,,,,,,,,,,,,,,,,,,,,,,,,,,,,,,,,,,,,,,,,,,,,,,,,,,,,,,,,,,,,,,,,,,,,,,,,,,,,,,,,,,,,,,,,,,,,,,,,,,,,,,,,,,,,,,,,,,,,,,,,,,,,,
,,650309a7aa388e72bb5f3d22,2023-12-07_08h05.36.738,kallum_motion_pilot,2023.2.3,Win32,60.17209218,650309a7aa388e72bb5f3d22,6560176e4d91f764e2a42c74,65716d7385b7c4c7ee00e1a0,0.0139,0.0139,0,16,16,73,1,onethree,,,,,,,,,,,,,,,,,,,,,,,,,,,,,,,,,,,,,,,,,,,,,,,,,,,,,,,,,,,,,,,,,,,,,,,,,,,,,,,,,,,,,,,,,,,,,,,,,,,,,,,,,,,,,,,,,,,,,,,,,,,,,,,,,,,,,,,
,,650309a7aa388e72bb5f3d22,2023-12-07_08h05.36.738,kallum_motion_pilot,2023.2.3,Win32,60.17209218,650309a7aa388e72bb5f3d22,6560176e4d91f764e2a42c74,65716d7385b7c4c7ee00e1a0,0.0139,0.0139,0,17,17,103,1,eightseven,,,,,,,,,,,,,,,,,,,,,,,,,,,,,,,,,,,,,,,,,,,,,,,,,,,,,,,,,,,,,,,,,,,,,,,,,,,,,,,,,,,,,,,,,,,,,,,,,,,,,,,,,,,,,,,,,,,,,,,,,,,,,,,,,,,,,,,
,,650309a7aa388e72bb5f3d22,2023-12-07_08h05.36.738,kallum_motion_pilot,2023.2.3,Win32,60.17209218,650309a7aa388e72bb5f3d22,6560176e4d91f764e2a42c74,65716d7385b7c4c7ee00e1a0,0.014,0.014,0,18,18,119,1,eightseven,,,,,,,,,,,,,,,,,,,,,,,,,,,,,,,,,,,,,,,,,,,,,,,,,,,,,,,,,,,,,,,,,,,,,,,,,,,,,,,,,,,,,,,,,,,,,,,,,,,,,,,,,,,,,,,,,,,,,,,,,,,,,,,,,,,,,,,
,,650309a7aa388e72bb5f3d22,2023-12-07_08h05.36.738,kallum_motion_pilot,2023.2.3,Win32,60.17209218,650309a7aa388e72bb5f3d22,6560176e4d91f764e2a42c74,65716d7385b7c4c7ee00e1a0,0.014,0.0141,0,19,19,82,1,sixfive,,,,,,,,,,,,,,,,,,,,,,,,,,,,,,,,,,,,,,,,,,,,,,,,,,,,,,,,,,,,,,,,,,,,,,,,,,,,,,,,,,,,,,,,,,,,,,,,,,,,,,,,,,,,,,,,,,,,,,,,,,,,,,,,,,,,,,,
,,650309a7aa388e72bb5f3d22,2023-12-07_08h05.36.738,kallum_motion_pilot,2023.2.3,Win32,60.17209218,650309a7aa388e72bb5f3d22,6560176e4d91f764e2a42c74,65716d7385b7c4c7ee00e1a0,0.0141,0.0141,0,20,20,158,1,eightsix,,,,,,,,,,,,,,,,,,,,,,,,,,,,,,,,,,,,,,,,,,,,,,,,,,,,,,,,,,,,,,,,,,,,,,,,,,,,,,,,,,,,,,,,,,,,,,,,,,,,,,,,,,,,,,,,,,,,,,,,,,,,,,,,,,,,,,,
,,650309a7aa388e72bb5f3d22,2023-12-07_08h05.36.738,kallum_motion_pilot,2023.2.3,Win32,60.17209218,650309a7aa388e72bb5f3d22,6560176e4d91f764e2a42c74,65716d7385b7c4c7ee00e1a0,0.0141,0.0141,0,21,21,15,1,fourthree,,,,,,,,,,,,,,,,,,,,,,,,,,,,,,,,,,,,,,,,,,,,,,,,,,,,,,,,,,,,,,,,,,,,,,,,,,,,,,,,,,,,,,,,,,,,,,,,,,,,,,,,,,,,,,,,,,,,,,,,,,,,,,,,,,,,,,,
,,650309a7aa388e72bb5f3d22,2023-12-07_08h05.36.738,kallum_motion_pilot,2023.2.3,Win32,60.17209218,650309a7aa388e72bb5f3d22,6560176e4d91f764e2a42c74,65716d7385b7c4c7ee00e1a0,0.0141,0.0141,0,22,22,66,1,twoone,,,,,,,,,,,,,,,,,,,,,,,,,,,,,,,,,,,,,,,,,,,,,,,,,,,,,,,,,,,,,,,,,,,,,,,,,,,,,,,,,,,,,,,,,,,,,,,,,,,,,,,,,,,,,,,,,,,,,,,,,,,,,,,,,,,,,,,
,,650309a7aa388e72bb5f3d22,2023-12-07_08h05.36.738,kallum_motion_pilot,2023.2.3,Win32,60.17209218,650309a7aa388e72bb5f3d22,6560176e4d91f764e2a42c74,65716d7385b7c4c7ee00e1a0,0.0143,0.0143,0,23,23,76,1,threeone,,,,,,,,,,,,,,,,,,,,,,,,,,,,,,,,,,,,,,,,,,,,,,,,,,,,,,,,,,,,,,,,,,,,,,,,,,,,,,,,,,,,,,,,,,,,,,,,,,,,,,,,,,,,,,,,,,,,,,,,,,,,,,,,,,,,,,,
,,650309a7aa388e72bb5f3d22,2023-12-07_08h05.36.738,kallum_motion_pilot,2023.2.3,Win32,60.17209218,650309a7aa388e72bb5f3d22,6560176e4d91f764e2a42c74,65716d7385b7c4c7ee00e1a0,0.0143,0.0143,0,24,24,29,1,threefour,,,,,,,,,,,,,,,,,,,,,,,,,,,,,,,,,,,,,,,,,,,,,,,,,,,,,,,,,,,,,,,,,,,,,,,,,,,,,,,,,,,,,,,,,,,,,,,,,,,,,,,,,,,,,,,,,,,,,,,,,,,,,,,,,,,,,,,
,,650309a7aa388e72bb5f3d22,2023-12-07_08h05.36.738,kallum_motion_pilot,2023.2.3,Win32,60.17209218,650309a7aa388e72bb5f3d22,6560176e4d91f764e2a42c74,65716d7385b7c4c7ee00e1a0,0.0144,0.0144,0,25,25,140,1,sevenfive,,,,,,,,,,,,,,,,,,,,,,,,,,,,,,,,,,,,,,,,,,,,,,,,,,,,,,,,,,,,,,,,,,,,,,,,,,,,,,,,,,,,,,,,,,,,,,,,,,,,,,,,,,,,,,,,,,,,,,,,,,,,,,,,,,,,,,,
,,650309a7aa388e72bb5f3d22,2023-12-07_08h05.36.738,kallum_motion_pilot,2023.2.3,Win32,60.17209218,650309a7aa388e72bb5f3d22,6560176e4d91f764e2a42c74,65716d7385b7c4c7ee00e1a0,0.0144,0.0144,0,26,26,9,1,onethree,,,,,,,,,,,,,,,,,,,,,,,,,,,,,,,,,,,,,,,,,,,,,,,,,,,,,,,,,,,,,,,,,,,,,,,,,,,,,,,,,,,,,,,,,,,,,,,,,,,,,,,,,,,,,,,,,,,,,,,,,,,,,,,,,,,,,,,
,,650309a7aa388e72bb5f3d22,2023-12-07_08h05.36.738,kallum_motion_pilot,2023.2.3,Win32,60.17209218,650309a7aa388e72bb5f3d22,6560176e4d91f764e2a42c74,65716d7385b7c4c7ee00e1a0,0.0145,0.0145,0,27,27,148,1,sevenfive,,,,,,,,,,,,,,,,,,,,,,,,,,,,,,,,,,,,,,,,,,,,,,,,,,,,,,,,,,,,,,,,,,,,,,,,,,,,,,,,,,,,,,,,,,,,,,,,,,,,,,,,,,,,,,,,,,,,,,,,,,,,,,,,,,,,,,,
,,650309a7aa388e72bb5f3d22,2023-12-07_08h05.36.738,kallum_motion_pilot,2023.2.3,Win32,60.17209218,650309a7aa388e72bb5f3d22,6560176e4d91f764e2a42c74,65716d7385b7c4c7ee00e1a0,0.0145,0.0145,0,28,28,130,1,sixfive,,,,,,,,,,,,,,,,,,,,,,,,,,,,,,,,,,,,,,,,,,,,,,,,,,,,,,,,,,,,,,,,,,,,,,,,,,,,,,,,,,,,,,,,,,,,,,,,,,,,,,,,,,,,,,,,,,,,,,,,,,,,,,,,,,,,,,,
,,650309a7aa388e72bb5f3d22,2023-12-07_08h05.36.738,kallum_motion_pilot,2023.2.3,Win32,60.17209218,650309a7aa388e72bb5f3d22,6560176e4d91f764e2a42c74,65716d7385b7c4c7ee00e1a0,0.0145,0.0145,0,29,29,159,1,eightseven,,,,,,,,,,,,,,,,,,,,,,,,,,,,,,,,,,,,,,,,,,,,,,,,,,,,,,,,,,,,,,,,,,,,,,,,,,,,,,,,,,,,,,,,,,,,,,,,,,,,,,,,,,,,,,,,,,,,,,,,,,,,,,,,,,,,,,,
,,650309a7aa388e72bb5f3d22,2023-12-07_08h05.36.738,kallum_motion_pilot,2023.2.3,Win32,60.17209218,650309a7aa388e72bb5f3d22,6560176e4d91f764e2a42c74,65716d7385b7c4c7ee00e1a0,0.0145,0.0146,0,30,30,135,1,eightseven,,,,,,,,,,,,,,,,,,,,,,,,,,,,,,,,,,,,,,,,,,,,,,,,,,,,,,,,,,,,,,,,,,,,,,,,,,,,,,,,,,,,,,,,,,,,,,,,,,,,,,,,,,,,,,,,,,,,,,,,,,,,,,,,,,,,,,,
,,650309a7aa388e72bb5f3d22,2023-12-07_08h05.36.738,kallum_motion_pilot,2023.2.3,Win32,60.17209218,650309a7aa388e72bb5f3d22,6560176e4d91f764e2a42c74,65716d7385b7c4c7ee00e1a0,0.0147,0.0147,0,31,31,137,1,fiveseven,,,,,,,,,,,,,,,,,,,,,,,,,,,,,,,,,,,,,,,,,,,,,,,,,,,,,,,,,,,,,,,,,,,,,,,,,,,,,,,,,,,,,,,,,,,,,,,,,,,,,,,,,,,,,,,,,,,,,,,,,,,,,,,,,,,,,,,
,,650309a7aa388e72bb5f3d22,2023-12-07_08h05.36.738,kallum_motion_pilot,2023.2.3,Win32,60.17209218,650309a7aa388e72bb5f3d22,6560176e4d91f764e2a42c74,65716d7385b7c4c7ee00e1a0,0.0148,0.0148,0,32,32,116,1,sevenfive,,,,,,,,,,,,,,,,,,,,,,,,,,,,,,,,,,,,,,,,,,,,,,,,,,,,,,,,,,,,,,,,,,,,,,,,,,,,,,,,,,,,,,,,,,,,,,,,,,,,,,,,,,,,,,,,,,,,,,,,,,,,,,,,,,,,,,,
,,650309a7aa388e72bb5f3d22,2023-12-07_08h05.36.738,kallum_motion_pilot,2023.2.3,Win32,60.17209218,650309a7aa388e72bb5f3d22,6560176e4d91f764e2a42c74,65716d7385b7c4c7ee00e1a0,0.0155,0.0155,0,33,33,105,1,fiveseven,,,,,,,,,,,,,,,,,,,,,,,,,,,,,,,,,,,,,,,,,,,,,,,,,,,,,,,,,,,,,,,,,,,,,,,,,,,,,,,,,,,,,,,,,,,,,,,,,,,,,,,,,,,,,,,,,,,,,,,,,,,,,,,,,,,,,,,
,,650309a7aa388e72bb5f3d22,2023-12-07_08h05.36.738,kallum_motion_pilot,2023.2.3,Win32,60.17209218,650309a7aa388e72bb5f3d22,6560176e4d91f764e2a42c74,65716d7385b7c4c7ee00e1a0,0.0156,0.0157,0,34,34,30,1,fourtwo,,,,,,,,,,,,,,,,,,,,,,,,,,,,,,,,,,,,,,,,,,,,,,,,,,,,,,,,,,,,,,,,,,,,,,,,,,,,,,,,,,,,,,,,,,,,,,,,,,,,,,,,,,,,,,,,,,,,,,,,,,,,,,,,,,,,,,,
,,650309a7aa388e72bb5f3d22,2023-12-07_08h05.36.738,kallum_motion_pilot,2023.2.3,Win32,60.17209218,650309a7aa388e72bb5f3d22,6560176e4d91f764e2a42c74,65716d7385b7c4c7ee00e1a0,0.0157,0.0157,0,35,35,21,1,threefour,,,,,,,,,,,,,,,,,,,,,,,,,,,,,,,,,,,,,,,,,,,,,,,,,,,,,,,,,,,,,,,,,,,,,,,,,,,,,,,,,,,,,,,,,,,,,,,,,,,,,,,,,,,,,,,,,,,,,,,,,,,,,,,,,,,,,,,
,,650309a7aa388e72bb5f3d22,2023-12-07_08h05.36.738,kallum_motion_pilot,2023.2.3,Win32,60.17209218,650309a7aa388e72bb5f3d22,6560176e4d91f764e2a42c74,65716d7385b7c4c7ee00e1a0,0.0157,0.0158,0,36,36,0,1,onetwo,,,,,,,,,,,,,,,,,,,,,,,,,,,,,,,,,,,,,,,,,,,,,,,,,,,,,,,,,,,,,,,,,,,,,,,,,,,,,,,,,,,,,,,,,,,,,,,,,,,,,,,,,,,,,,,,,,,,,,,,,,,,,,,,,,,,,,,
,,650309a7aa388e72bb5f3d22,2023-12-07_08h05.36.738,kallum_motion_pilot,2023.2.3,Win32,60.17209218,650309a7aa388e72bb5f3d22,6560176e4d91f764e2a42c74,65716d7385b7c4c7ee00e1a0,0.0159,0.0159,0,37,37,125,1,seveneight,,,,,,,,,,,,,,,,,,,,,,,,,,,,,,,,,,,,,,,,,,,,,,,,,,,,,,,,,,,,,,,,,,,,,,,,,,,,,,,,,,,,,,,,,,,,,,,,,,,,,,,,,,,,,,,,,,,,,,,,,,,,,,,,,,,,,,,
,,650309a7aa388e72bb5f3d22,2023-12-07_08h05.36.738,kallum_motion_pilot,2023.2.3,Win32,60.17209218,650309a7aa388e72bb5f3d22,6560176e4d91f764e2a42c74,65716d7385b7c4c7ee00e1a0,0.0159,0.016,0,38,38,45,1,threefour,,,,,,,,,,,,,,,,,,,,,,,,,,,,,,,,,,,,,,,,,,,,,,,,,,,,,,,,,,,,,,,,,,,,,,,,,,,,,,,,,,,,,,,,,,,,,,,,,,,,,,,,,,,,,,,,,,,,,,,,,,,,,,,,,,,,,,,
,,650309a7aa388e72bb5f3d22,2023-12-07_08h05.36.738,kallum_motion_pilot,2023.2.3,Win32,60.17209218,650309a7aa388e72bb5f3d22,6560176e4d91f764e2a42c74,65716d7385b7c4c7ee00e1a0,0.016,0.016,0,39,39,79,1,eightseven,,,,,,,,,,,,,,,,,,,,,,,,,,,,,,,,,,,,,,,,,,,,,,,,,,,,,,,,,,,,,,,,,,,,,,,,,,,,,,,,,,,,,,,,,,,,,,,,,,,,,,,,,,,,,,,,,,,,,,,,,,,,,,,,,,,,,,,
,,650309a7aa388e72bb5f3d22,2023-12-07_08h05.36.738,kallum_motion_pilot,2023.2.3,Win32,60.17209218,650309a7aa388e72bb5f3d22,6560176e4d91f764e2a42c74,65716d7385b7c4c7ee00e1a0,0.0161,0.0161,0,40,40,85,1,seveneight,,,,,,,,,,,,,,,,,,,,,,,,,,,,,,,,,,,,,,,,,,,,,,,,,,,,,,,,,,,,,,,,,,,,,,,,,,,,,,,,,,,,,,,,,,,,,,,,,,,,,,,,,,,,,,,,,,,,,,,,,,,,,,,,,,,,,,,
,,650309a7aa388e72bb5f3d22,2023-12-07_08h05.36.738,kallum_motion_pilot,2023.2.3,Win32,60.17209218,650309a7aa388e72bb5f3d22,6560176e4d91f764e2a42c74,65716d7385b7c4c7ee00e1a0,0.0161,0.0162,0,41,41,38,1,fourtwo,,,,,,,,,,,,,,,,,,,,,,,,,,,,,,,,,,,,,,,,,,,,,,,,,,,,,,,,,,,,,,,,,,,,,,,,,,,,,,,,,,,,,,,,,,,,,,,,,,,,,,,,,,,,,,,,,,,,,,,,,,,,,,,,,,,,,,,
,,650309a7aa388e72bb5f3d22,2023-12-07_08h05.36.738,kallum_motion_pilot,2023.2.3,Win32,60.17209218,650309a7aa388e72bb5f3d22,6560176e4d91f764e2a42c74,65716d7385b7c4c7ee00e1a0,0.0163,0.0164,0,42,42,87,1,eightseven,,,,,,,,,,,,,,,,,,,,,,,,,,,,,,,,,,,,,,,,,,,,,,,,,,,,,,,,,,,,,,,,,,,,,,,,,,,,,,,,,,,,,,,,,,,,,,,,,,,,,,,,,,,,,,,,,,,,,,,,,,,,,,,,,,,,,,,
,,650309a7aa388e72bb5f3d22,2023-12-07_08h05.36.738,kallum_motion_pilot,2023.2.3,Win32,60.17209218,650309a7aa388e72bb5f3d22,6560176e4d91f764e2a42c74,65716d7385b7c4c7ee00e1a0,0.0164,0.0165,0,43,43,20,1,threeone,,,,,,,,,,,,,,,,,,,,,,,,,,,,,,,,,,,,,,,,,,,,,,,,,,,,,,,,,,,,,,,,,,,,,,,,,,,,,,,,,,,,,,,,,,,,,,,,,,,,,,,,,,,,,,,,,,,,,,,,,,,,,,,,,,,,,,,
,,650309a7aa388e72bb5f3d22,2023-12-07_08h05.36.738,kallum_motion_pilot,2023.2.3,Win32,60.17209218,650309a7aa388e72bb5f3d22,6560176e4d91f764e2a42c74,65716d7385b7c4c7ee00e1a0,0.0165,0.0166,0,44,44,74,1,twoone,,,,,,,,,,,,,,,,,,,,,,,,,,,,,,,,,,,,,,,,,,,,,,,,,,,,,,,,,,,,,,,,,,,,,,,,,,,,,,,,,,,,,,,,,,,,,,,,,,,,,,,,,,,,,,,,,,,,,,,,,,,,,,,,,,,,,,,
,,650309a7aa388e72bb5f3d22,2023-12-07_08h05.36.738,kallum_motion_pilot,2023.2.3,Win32,60.17209218,650309a7aa388e72bb5f3d22,6560176e4d91f764e2a42c74,65716d7385b7c4c7ee00e1a0,0.0167,0.0167,0,45,45,57,1,onethree,,,,,,,,,,,,,,,,,,,,,,,,,,,,,,,,,,,,,,,,,,,,,,,,,,,,,,,,,,,,,,,,,,,,,,,,,,,,,,,,,,,,,,,,,,,,,,,,,,,,,,,,,,,,,,,,,,,,,,,,,,,,,,,,,,,,,,,
,,650309a7aa388e72bb5f3d22,2023-12-07_08h05.36.738,kallum_motion_pilot,2023.2.3,Win32,60.17209218,650309a7aa388e72bb5f3d22,6560176e4d91f764e2a42c74,65716d7385b7c4c7ee00e1a0,0.0167,0.0167,0,46,46,104,1,fivesix,,,,,,,,,,,,,,,,,,,,,,,,,,,,,,,,,,,,,,,,,,,,,,,,,,,,,,,,,,,,,,,,,,,,,,,,,,,,,,,,,,,,,,,,,,,,,,,,,,,,,,,,,,,,,,,,,,,,,,,,,,,,,,,,,,,,,,,
,,650309a7aa388e72bb5f3d22,2023-12-07_08h05.36.738,kallum_motion_pilot,2023.2.3,Win32,60.17209218,650309a7aa388e72bb5f3d22,6560176e4d91f764e2a42c74,65716d7385b7c4c7ee00e1a0,0.0168,0.0168,0,47,47,61,1,threefour,,,,,,,,,,,,,,,,,,,,,,,,,,,,,,,,,,,,,,,,,,,,,,,,,,,,,,,,,,,,,,,,,,,,,,,,,,,,,,,,,,,,,,,,,,,,,,,,,,,,,,,,,,,,,,,,,,,,,,,,,,,,,,,,,,,,,,,
,,650309a7aa388e72bb5f3d22,2023-12-07_08h05.36.738,kallum_motion_pilot,2023.2.3,Win32,60.17209218,650309a7aa388e72bb5f3d22,6560176e4d91f764e2a42c74,65716d7385b7c4c7ee00e1a0,0.0168,0.0169,0,48,48,102,1,eightsix,,,,,,,,,,,,,,,,,,,,,,,,,,,,,,,,,,,,,,,,,,,,,,,,,,,,,,,,,,,,,,,,,,,,,,,,,,,,,,,,,,,,,,,,,,,,,,,,,,,,,,,,,,,,,,,,,,,,,,,,,,,,,,,,,,,,,,,
,,650309a7aa388e72bb5f3d22,2023-12-07_08h05.36.738,kallum_motion_pilot,2023.2.3,Win32,60.17209218,650309a7aa388e72bb5f3d22,6560176e4d91f764e2a42c74,65716d7385b7c4c7ee00e1a0,0.0169,0.0169,0,49,49,36,1,threeone,,,,,,,,,,,,,,,,,,,,,,,,,,,,,,,,,,,,,,,,,,,,,,,,,,,,,,,,,,,,,,,,,,,,,,,,,,,,,,,,,,,,,,,,,,,,,,,,,,,,,,,,,,,,,,,,,,,,,,,,,,,,,,,,,,,,,,,
,,650309a7aa388e72bb5f3d22,2023-12-07_08h05.36.738,kallum_motion_pilot,2023.2.3,Win32,60.17209218,650309a7aa388e72bb5f3d22,6560176e4d91f764e2a42c74,65716d7385b7c4c7ee00e1a0,0.0171,0.0171,0,50,50,106,1,sixfive,,,,,,,,,,,,,,,,,,,,,,,,,,,,,,,,,,,,,,,,,,,,,,,,,,,,,,,,,,,,,,,,,,,,,,,,,,,,,,,,,,,,,,,,,,,,,,,,,,,,,,,,,,,,,,,,,,,,,,,,,,,,,,,,,,,,,,,
,,650309a7aa388e72bb5f3d22,2023-12-07_08h05.36.738,kallum_motion_pilot,2023.2.3,Win32,60.17209218,650309a7aa388e72bb5f3d22,6560176e4d91f764e2a42c74,65716d7385b7c4c7ee00e1a0,0.0171,0.0171,0,51,51,75,1,twofour,,,,,,,,,,,,,,,,,,,,,,,,,,,,,,,,,,,,,,,,,,,,,,,,,,,,,,,,,,,,,,,,,,,,,,,,,,,,,,,,,,,,,,,,,,,,,,,,,,,,,,,,,,,,,,,,,,,,,,,,,,,,,,,,,,,,,,,
,,650309a7aa388e72bb5f3d22,2023-12-07_08h05.36.738,kallum_motion_pilot,2023.2.3,Win32,60.17209218,650309a7aa388e72bb5f3d22,6560176e4d91f764e2a42c74,65716d7385b7c4c7ee00e1a0,0.0172,0.0172,0,52,52,22,1,fourtwo,,,,,,,,,,,,,,,,,,,,,,,,,,,,,,,,,,,,,,,,,,,,,,,,,,,,,,,,,,,,,,,,,,,,,,,,,,,,,,,,,,,,,,,,,,,,,,,,,,,,,,,,,,,,,,,,,,,,,,,,,,,,,,,,,,,,,,,
,,650309a7aa388e72bb5f3d22,2023-12-07_08h05.36.738,kallum_motion_pilot,2023.2.3,Win32,60.17209218,650309a7aa388e72bb5f3d22,6560176e4d91f764e2a42c74,65716d7385b7c4c7ee00e1a0,0.0173,0.0173,0,53,53,24,1,onetwo,,,,,,,,,,,,,,,,,,,,,,,,,,,,,,,,,,,,,,,,,,,,,,,,,,,,,,,,,,,,,,,,,,,,,,,,,,,,,,,,,,,,,,,,,,,,,,,,,,,,,,,,,,,,,,,,,,,,,,,,,,,,,,,,,,,,,,,
,,650309a7aa388e72bb5f3d22,2023-12-07_08h05.36.738,kallum_motion_pilot,2023.2.3,Win32,60.17209218,650309a7aa388e72bb5f3d22,6560176e4d91f764e2a42c74,65716d7385b7c4c7ee00e1a0,0.0173,0.0174,0,54,54,113,1,fiveseven,,,,,,,,,,,,,,,,,,,,,,,,,,,,,,,,,,,,,,,,,,,,,,,,,,,,,,,,,,,,,,,,,,,,,,,,,,,,,,,,,,,,,,,,,,,,,,,,,,,,,,,,,,,,,,,,,,,,,,,,,,,,,,,,,,,,,,,
,,650309a7aa388e72bb5f3d22,2023-12-07_08h05.36.738,kallum_motion_pilot,2023.2.3,Win32,60.17209218,650309a7aa388e72bb5f3d22,6560176e4d91f764e2a42c74,65716d7385b7c4c7ee00e1a0,0.0174,0.0174,0,55,55,6,1,fourtwo,,,,,,,,,,,,,,,,,,,,,,,,,,,,,,,,,,,,,,,,,,,,,,,,,,,,,,,,,,,,,,,,,,,,,,,,,,,,,,,,,,,,,,,,,,,,,,,,,,,,,,,,,,,,,,,,,,,,,,,,,,,,,,,,,,,,,,,
,,650309a7aa388e72bb5f3d22,2023-12-07_08h05.36.738,kallum_motion_pilot,2023.2.3,Win32,60.17209218,650309a7aa388e72bb5f3d22,6560176e4d91f764e2a42c74,65716d7385b7c4c7ee00e1a0,0.0175,0.0176,0,56,56,39,1,fourthree,,,,,,,,,,,,,,,,,,,,,,,,,,,,,,,,,,,,,,,,,,,,,,,,,,,,,,,,,,,,,,,,,,,,,,,,,,,,,,,,,,,,,,,,,,,,,,,,,,,,,,,,,,,,,,,,,,,,,,,,,,,,,,,,,,,,,,,
,,650309a7aa388e72bb5f3d22,2023-12-07_08h05.36.738,kallum_motion_pilot,2023.2.3,Win32,60.17209218,650309a7aa388e72bb5f3d22,6560176e4d91f764e2a42c74,65716d7385b7c4c7ee00e1a0,0.0176,0.0176,0,57,57,142,1,eightsix,,,,,,,,,,,,,,,,,,,,,,,,,,,,,,,,,,,,,,,,,,,,,,,,,,,,,,,,,,,,,,,,,,,,,,,,,,,,,,,,,,,,,,,,,,,,,,,,,,,,,,,,,,,,,,,,,,,,,,,,,,,,,,,,,,,,,,,
,,650309a7aa388e72bb5f3d22,2023-12-07_08h05.36.738,kallum_motion_pilot,2023.2.3,Win32,60.17209218,650309a7aa388e72bb5f3d22,6560176e4d91f764e2a42c74,65716d7385b7c4c7ee00e1a0,0.0176,0.0176,0,58,58,112,1,fivesix,,,,,,,,,,,,,,,,,,,,,,,,,,,,,,,,,,,,,,,,,,,,,,,,,,,,,,,,,,,,,,,,,,,,,,,,,,,,,,,,,,,,,,,,,,,,,,,,,,,,,,,,,,,,,,,,,,,,,,,,,,,,,,,,,,,,,,,
,,650309a7aa388e72bb5f3d22,2023-12-07_08h05.36.738,kallum_motion_pilot,2023.2.3,Win32,60.17209218,650309a7aa388e72bb5f3d22,6560176e4d91f764e2a42c74,65716d7385b7c4c7ee00e1a0,0.0177,0.0177,0,59,59,150,1,eightsix,,,,,,,,,,,,,,,,,,,,,,,,,,,,,,,,,,,,,,,,,,,,,,,,,,,,,,,,,,,,,,,,,,,,,,,,,,,,,,,,,,,,,,,,,,,,,,,,,,,,,,,,,,,,,,,,,,,,,,,,,,,,,,,,,,,,,,,
,,650309a7aa388e72bb5f3d22,2023-12-07_08h05.36.738,kallum_motion_pilot,2023.2.3,Win32,60.17209218,650309a7aa388e72bb5f3d22,6560176e4d91f764e2a42c74,65716d7385b7c4c7ee00e1a0,0.0178,0.0178,0,60,60,99,1,sixeight,,,,,,,,,,,,,,,,,,,,,,,,,,,,,,,,,,,,,,,,,,,,,,,,,,,,,,,,,,,,,,,,,,,,,,,,,,,,,,,,,,,,,,,,,,,,,,,,,,,,,,,,,,,,,,,,,,,,,,,,,,,,,,,,,,,,,,,
,,650309a7aa388e72bb5f3d22,2023-12-07_08h05.36.738,kallum_motion_pilot,2023.2.3,Win32,60.17209218,650309a7aa388e72bb5f3d22,6560176e4d91f764e2a42c74,65716d7385b7c4c7ee00e1a0,0.0178,0.0178,0,61,61,3,1,twofour,,,,,,,,,,,,,,,,,,,,,,,,,,,,,,,,,,,,,,,,,,,,,,,,,,,,,,,,,,,,,,,,,,,,,,,,,,,,,,,,,,,,,,,,,,,,,,,,,,,,,,,,,,,,,,,,,,,,,,,,,,,,,,,,,,,,,,,
,,650309a7aa388e72bb5f3d22,2023-12-07_08h05.36.738,kallum_motion_pilot,2023.2.3,Win32,60.17209218,650309a7aa388e72bb5f3d22,6560176e4d91f764e2a42c74,65716d7385b7c4c7ee00e1a0,0.0179,0.018,0,62,62,62,1,fourtwo,,,,,,,,,,,,,,,,,,,,,,,,,,,,,,,,,,,,,,,,,,,,,,,,,,,,,,,,,,,,,,,,,,,,,,,,,,,,,,,,,,,,,,,,,,,,,,,,,,,,,,,,,,,,,,,,,,,,,,,,,,,,,,,,,,,,,,,
,,650309a7aa388e72bb5f3d22,2023-12-07_08h05.36.738,kallum_motion_pilot,2023.2.3,Win32,60.17209218,650309a7aa388e72bb5f3d22,6560176e4d91f764e2a42c74,65716d7385b7c4c7ee00e1a0,0.0181,0.0181,0,63,63,71,1,fourthree,,,,,,,,,,,,,,,,,,,,,,,,,,,,,,,,,,,,,,,,,,,,,,,,,,,,,,,,,,,,,,,,,,,,,,,,,,,,,,,,,,,,,,,,,,,,,,,,,,,,,,,,,,,,,,,,,,,,,,,,,,,,,,,,,,,,,,,
,,650309a7aa388e72bb5f3d22,2023-12-07_08h05.36.738,kallum_motion_pilot,2023.2.3,Win32,60.17209218,650309a7aa388e72bb5f3d22,6560176e4d91f764e2a42c74,65716d7385b7c4c7ee00e1a0,0.0183,0.0183,0,64,64,32,1,onetwo,,,,,,,,,,,,,,,,,,,,,,,,,,,,,,,,,,,,,,,,,,,,,,,,,,,,,,,,,,,,,,,,,,,,,,,,,,,,,,,,,,,,,,,,,,,,,,,,,,,,,,,,,,,,,,,,,,,,,,,,,,,,,,,,,,,,,,,
,,650309a7aa388e72bb5f3d22,2023-12-07_08h05.36.738,kallum_motion_pilot,2023.2.3,Win32,60.17209218,650309a7aa388e72bb5f3d22,6560176e4d91f764e2a42c74,65716d7385b7c4c7ee00e1a0,0.0183,0.0183,0,65,65,78,1,fourtwo,,,,,,,,,,,,,,,,,,,,,,,,,,,,,,,,,,,,,,,,,,,,,,,,,,,,,,,,,,,,,,,,,,,,,,,,,,,,,,,,,,,,,,,,,,,,,,,,,,,,,,,,,,,,,,,,,,,,,,,,,,,,,,,,,,,,,,,
,,650309a7aa388e72bb5f3d22,2023-12-07_08h05.36.738,kallum_motion_pilot,2023.2.3,Win32,60.17209218,650309a7aa388e72bb5f3d22,6560176e4d91f764e2a42c74,65716d7385b7c4c7ee00e1a0,0.0185,0.0185,0,66,66,50,1,twoone,,,,,,,,,,,,,,,,,,,,,,,,,,,,,,,,,,,,,,,,,,,,,,,,,,,,,,,,,,,,,,,,,,,,,,,,,,,,,,,,,,,,,,,,,,,,,,,,,,,,,,,,,,,,,,,,,,,,,,,,,,,,,,,,,,,,,,,
,,650309a7aa388e72bb5f3d22,2023-12-07_08h05.36.738,kallum_motion_pilot,2023.2.3,Win32,60.17209218,650309a7aa388e72bb5f3d22,6560176e4d91f764e2a42c74,65716d7385b7c4c7ee00e1a0,0.0185,0.0185,0,67,67,46,1,fourtwo,,,,,,,,,,,,,,,,,,,,,,,,,,,,,,,,,,,,,,,,,,,,,,,,,,,,,,,,,,,,,,,,,,,,,,,,,,,,,,,,,,,,,,,,,,,,,,,,,,,,,,,,,,,,,,,,,,,,,,,,,,,,,,,,,,,,,,,
,,650309a7aa388e72bb5f3d22,2023-12-07_08h05.36.738,kallum_motion_pilot,2023.2.3,Win32,60.17209218,650309a7aa388e72bb5f3d22,6560176e4d91f764e2a42c74,65716d7385b7c4c7ee00e1a0,0.0187,0.0187,0,68,68,56,1,onetwo,,,,,,,,,,,,,,,,,,,,,,,,,,,,,,,,,,,,,,,,,,,,,,,,,,,,,,,,,,,,,,,,,,,,,,,,,,,,,,,,,,,,,,,,,,,,,,,,,,,,,,,,,,,,,,,,,,,,,,,,,,,,,,,,,,,,,,,
,,650309a7aa388e72bb5f3d22,2023-12-07_08h05.36.738,kallum_motion_pilot,2023.2.3,Win32,60.17209218,650309a7aa388e72bb5f3d22,6560176e4d91f764e2a42c74,65716d7385b7c4c7ee00e1a0,0.0187,0.0188,0,69,69,154,1,sixfive,,,,,,,,,,,,,,,,,,,,,,,,,,,,,,,,,,,,,,,,,,,,,,,,,,,,,,,,,,,,,,,,,,,,,,,,,,,,,,,,,,,,,,,,,,,,,,,,,,,,,,,,,,,,,,,,,,,,,,,,,,,,,,,,,,,,,,,
,,650309a7aa388e72bb5f3d22,2023-12-07_08h05.36.738,kallum_motion_pilot,2023.2.3,Win32,60.17209218,650309a7aa388e72bb5f3d22,6560176e4d91f764e2a42c74,65716d7385b7c4c7ee00e1a0,0.0189,0.0189,0,70,70,115,1,sixeight,,,,,,,,,,,,,,,,,,,,,,,,,,,,,,,,,,,,,,,,,,,,,,,,,,,,,,,,,,,,,,,,,,,,,,,,,,,,,,,,,,,,,,,,,,,,,,,,,,,,,,,,,,,,,,,,,,,,,,,,,,,,,,,,,,,,,,,
,,650309a7aa388e72bb5f3d22,2023-12-07_08h05.36.738,kallum_motion_pilot,2023.2.3,Win32,60.17209218,650309a7aa388e72bb5f3d22,6560176e4d91f764e2a42c74,65716d7385b7c4c7ee00e1a0,0.0189,0.019,0,71,71,123,1,sixeight,,,,,,,,,,,,,,,,,,,,,,,,,,,,,,,,,,,,,,,,,,,,,,,,,,,,,,,,,,,,,,,,,,,,,,,,,,,,,,,,,,,,,,,,,,,,,,,,,,,,,,,,,,,,,,,,,,,,,,,,,,,,,,,,,,,,,,,
,,650309a7aa388e72bb5f3d22,2023-12-07_08h05.36.738,kallum_motion_pilot,2023.2.3,Win32,60.17209218,650309a7aa388e72bb5f3d22,6560176e4d91f764e2a42c74,65716d7385b7c4c7ee00e1a0,0.019,0.019,0,72,72,107,1,sixeight,,,,,,,,,,,,,,,,,,,,,,,,,,,,,,,,,,,,,,,,,,,,,,,,,,,,,,,,,,,,,,,,,,,,,,,,,,,,,,,,,,,,,,,,,,,,,,,,,,,,,,,,,,,,,,,,,,,,,,,,,,,,,,,,,,,,,,,
,,650309a7aa388e72bb5f3d22,2023-12-07_08h05.36.738,kallum_motion_pilot,2023.2.3,Win32,60.17209218,650309a7aa388e72bb5f3d22,6560176e4d91f764e2a42c74,65716d7385b7c4c7ee00e1a0,0.0191,0.0191,0,73,73,160,1,fivesix,,,,,,,,,,,,,,,,,,,,,,,,,,,,,,,,,,,,,,,,,,,,,,,,,,,,,,,,,,,,,,,,,,,,,,,,,,,,,,,,,,,,,,,,,,,,,,,,,,,,,,,,,,,,,,,,,,,,,,,,,,,,,,,,,,,,,,,
,,650309a7aa388e72bb5f3d22,2023-12-07_08h05.36.738,kallum_motion_pilot,2023.2.3,Win32,60.17209218,650309a7aa388e72bb5f3d22,6560176e4d91f764e2a42c74,65716d7385b7c4c7ee00e1a0,0.0191,0.0191,0,74,74,90,1,sixfive,,,,,,,,,,,,,,,,,,,,,,,,,,,,,,,,,,,,,,,,,,,,,,,,,,,,,,,,,,,,,,,,,,,,,,,,,,,,,,,,,,,,,,,,,,,,,,,,,,,,,,,,,,,,,,,,,,,,,,,,,,,,,,,,,,,,,,,
,,650309a7aa388e72bb5f3d22,2023-12-07_08h05.36.738,kallum_motion_pilot,2023.2.3,Win32,60.17209218,650309a7aa388e72bb5f3d22,6560176e4d91f764e2a42c74,65716d7385b7c4c7ee00e1a0,0.0193,0.0193,0,75,75,80,1,fivesix,,,,,,,,,,,,,,,,,,,,,,,,,,,,,,,,,,,,,,,,,,,,,,,,,,,,,,,,,,,,,,,,,,,,,,,,,,,,,,,,,,,,,,,,,,,,,,,,,,,,,,,,,,,,,,,,,,,,,,,,,,,,,,,,,,,,,,,
,,650309a7aa388e72bb5f3d22,2023-12-07_08h05.36.738,kallum_motion_pilot,2023.2.3,Win32,60.17209218,650309a7aa388e72bb5f3d22,6560176e4d91f764e2a42c74,65716d7385b7c4c7ee00e1a0,0.0193,0.0193,0,76,76,136,1,fivesix,,,,,,,,,,,,,,,,,,,,,,,,,,,,,,,,,,,,,,,,,,,,,,,,,,,,,,,,,,,,,,,,,,,,,,,,,,,,,,,,,,,,,,,,,,,,,,,,,,,,,,,,,,,,,,,,,,,,,,,,,,,,,,,,,,,,,,,
,,650309a7aa388e72bb5f3d22,2023-12-07_08h05.36.738,kallum_motion_pilot,2023.2.3,Win32,60.17209218,650309a7aa388e72bb5f3d22,6560176e4d91f764e2a42c74,65716d7385b7c4c7ee00e1a0,0.0194,0.0194,0,77,77,64,1,onetwo,,,,,,,,,,,,,,,,,,,,,,,,,,,,,,,,,,,,,,,,,,,,,,,,,,,,,,,,,,,,,,,,,,,,,,,,,,,,,,,,,,,,,,,,,,,,,,,,,,,,,,,,,,,,,,,,,,,,,,,,,,,,,,,,,,,,,,,
,,650309a7aa388e72bb5f3d22,2023-12-07_08h05.36.738,kallum_motion_pilot,2023.2.3,Win32,60.17209218,650309a7aa388e72bb5f3d22,6560176e4d91f764e2a42c74,65716d7385b7c4c7ee00e1a0,0.0195,0.0195,0,78,78,58,1,twoone,,,,,,,,,,,,,,,,,,,,,,,,,,,,,,,,,,,,,,,,,,,,,,,,,,,,,,,,,,,,,,,,,,,,,,,,,,,,,,,,,,,,,,,,,,,,,,,,,,,,,,,,,,,,,,,,,,,,,,,,,,,,,,,,,,,,,,,
,,650309a7aa388e72bb5f3d22,2023-12-07_08h05.36.738,kallum_motion_pilot,2023.2.3,Win32,60.17209218,650309a7aa388e72bb5f3d22,6560176e4d91f764e2a42c74,65716d7385b7c4c7ee00e1a0,0.0196,0.0196,0,79,79,139,1,sixeight,,,,,,,,,,,,,,,,,,,,,,,,,,,,,,,,,,,,,,,,,,,,,,,,,,,,,,,,,,,,,,,,,,,,,,,,,,,,,,,,,,,,,,,,,,,,,,,,,,,,,,,,,,,,,,,,,,,,,,,,,,,,,,,,,,,,,,,
,,650309a7aa388e72bb5f3d22,2023-12-07_08h05.36.738,kallum_motion_pilot,2023.2.3,Win32,60.17209218,650309a7aa388e72bb5f3d22,6560176e4d91f764e2a42c74,65716d7385b7c4c7ee00e1a0,0.0196,0.0196,0,80,80,10,1,twoone,,,,,,,,,,,,,,,,,,,,,,,,,,,,,,,,,,,,,,,,,,,,,,,,,,,,,,,,,,,,,,,,,,,,,,,,,,,,,,,,,,,,,,,,,,,,,,,,,,,,,,,,,,,,,,,,,,,,,,,,,,,,,,,,,,,,,,,
,,650309a7aa388e72bb5f3d22,2023-12-07_08h05.36.738,kallum_motion_pilot,2023.2.3,Win32,60.17209218,650309a7aa388e72bb5f3d22,6560176e4d91f764e2a42c74,65716d7385b7c4c7ee00e1a0,0.0197,0.0197,0,81,81,13,1,threefour,,,,,,,,,,,,,,,,,,,,,,,,,,,,,,,,,,,,,,,,,,,,,,,,,,,,,,,,,,,,,,,,,,,,,,,,,,,,,,,,,,,,,,,,,,,,,,,,,,,,,,,,,,,,,,,,,,,,,,,,,,,,,,,,,,,,,,,
,,650309a7aa388e72bb5f3d22,2023-12-07_08h05.36.738,kallum_motion_pilot,2023.2.3,Win32,60.17209218,650309a7aa388e72bb5f3d22,6560176e4d91f764e2a42c74,65716d7385b7c4c7ee00e1a0,0.0198,0.0198,0,82,82,70,1,fourtwo,,,,,,,,,,,,,,,,,,,,,,,,,,,,,,,,,,,,,,,,,,,,,,,,,,,,,,,,,,,,,,,,,,,,,,,,,,,,,,,,,,,,,,,,,,,,,,,,,,,,,,,,,,,,,,,,,,,,,,,,,,,,,,,,,,,,,,,
,,650309a7aa388e72bb5f3d22,2023-12-07_08h05.36.738,kallum_motion_pilot,2023.2.3,Win32,60.17209218,650309a7aa388e72bb5f3d22,6560176e4d91f764e2a42c74,65716d7385b7c4c7ee00e1a0,0.0199,0.0199,0,83,83,129,1,fiveseven,,,,,,,,,,,,,,,,,,,,,,,,,,,,,,,,,,,,,,,,,,,,,,,,,,,,,,,,,,,,,,,,,,,,,,,,,,,,,,,,,,,,,,,,,,,,,,,,,,,,,,,,,,,,,,,,,,,,,,,,,,,,,,,,,,,,,,,
,,650309a7aa388e72bb5f3d22,2023-12-07_08h05.36.738,kallum_motion_pilot,2023.2.3,Win32,60.17209218,650309a7aa388e72bb5f3d22,6560176e4d91f764e2a42c74,65716d7385b7c4c7ee00e1a0,0.0199,0.0199,0,84,84,124,1,sevenfive,,,,,,,,,,,,,,,,,,,,,,,,,,,,,,,,,,,,,,,,,,,,,,,,,,,,,,,,,,,,,,,,,,,,,,,,,,,,,,,,,,,,,,,,,,,,,,,,,,,,,,,,,,,,,,,,,,,,,,,,,,,,,,,,,,,,,,,
,,650309a7aa388e72bb5f3d22,2023-12-07_08h05.36.738,kallum_motion_pilot,2023.2.3,Win32,60.17209218,650309a7aa388e72bb5f3d22,6560176e4d91f764e2a42c74,65716d7385b7c4c7ee00e1a0,0.0201,0.0201,0,85,85,63,1,fourthree,,,,,,,,,,,,,,,,,,,,,,,,,,,,,,,,,,,,,,,,,,,,,,,,,,,,,,,,,,,,,,,,,,,,,,,,,,,,,,,,,,,,,,,,,,,,,,,,,,,,,,,,,,,,,,,,,,,,,,,,,,,,,,,,,,,,,,,
,,650309a7aa388e72bb5f3d22,2023-12-07_08h05.36.738,kallum_motion_pilot,2023.2.3,Win32,60.17209218,650309a7aa388e72bb5f3d22,6560176e4d91f764e2a42c74,65716d7385b7c4c7ee00e1a0,0.0201,0.0202,0,86,86,69,1,threefour,,,,,,,,,,,,,,,,,,,,,,,,,,,,,,,,,,,,,,,,,,,,,,,,,,,,,,,,,,,,,,,,,,,,,,,,,,,,,,,,,,,,,,,,,,,,,,,,,,,,,,,,,,,,,,,,,,,,,,,,,,,,,,,,,,,,,,,
,,650309a7aa388e72bb5f3d22,2023-12-07_08h05.36.738,kallum_motion_pilot,2023.2.3,Win32,60.17209218,650309a7aa388e72bb5f3d22,6560176e4d91f764e2a42c74,65716d7385b7c4c7ee00e1a0,0.0202,0.0202,0,87,87,153,1,fiveseven,,,,,,,,,,,,,,,,,,,,,,,,,,,,,,,,,,,,,,,,,,,,,,,,,,,,,,,,,,,,,,,,,,,,,,,,,,,,,,,,,,,,,,,,,,,,,,,,,,,,,,,,,,,,,,,,,,,,,,,,,,,,,,,,,,,,,,,
,,650309a7aa388e72bb5f3d22,2023-12-07_08h05.36.738,kallum_motion_pilot,2023.2.3,Win32,60.17209218,650309a7aa388e72bb5f3d22,6560176e4d91f764e2a42c74,65716d7385b7c4c7ee00e1a0,0.0202,0.0203,0,88,88,144,1,fivesix,,,,,,,,,,,,,,,,,,,,,,,,,,,,,,,,,,,,,,,,,,,,,,,,,,,,,,,,,,,,,,,,,,,,,,,,,,,,,,,,,,,,,,,,,,,,,,,,,,,,,,,,,,,,,,,,,,,,,,,,,,,,,,,,,,,,,,,
,,650309a7aa388e72bb5f3d22,2023-12-07_08h05.36.738,kallum_motion_pilot,2023.2.3,Win32,60.17209218,650309a7aa388e72bb5f3d22,6560176e4d91f764e2a42c74,65716d7385b7c4c7ee00e1a0,0.0204,0.0204,0,89,89,67,1,twofour,,,,,,,,,,,,,,,,,,,,,,,,,,,,,,,,,,,,,,,,,,,,,,,,,,,,,,,,,,,,,,,,,,,,,,,,,,,,,,,,,,,,,,,,,,,,,,,,,,,,,,,,,,,,,,,,,,,,,,,,,,,,,,,,,,,,,,,
,,650309a7aa388e72bb5f3d22,2023-12-07_08h05.36.738,kallum_motion_pilot,2023.2.3,Win32,60.17209218,650309a7aa388e72bb5f3d22,6560176e4d91f764e2a42c74,65716d7385b7c4c7ee00e1a0,0.0204,0.0204,0,90,90,5,1,threefour,,,,,,,,,,,,,,,,,,,,,,,,,,,,,,,,,,,,,,,,,,,,,,,,,,,,,,,,,,,,,,,,,,,,,,,,,,,,,,,,,,,,,,,,,,,,,,,,,,,,,,,,,,,,,,,,,,,,,,,,,,,,,,,,,,,,,,,
,,650309a7aa388e72bb5f3d22,2023-12-07_08h05.36.738,kallum_motion_pilot,2023.2.3,Win32,60.17209218,650309a7aa388e72bb5f3d22,6560176e4d91f764e2a42c74,65716d7385b7c4c7ee00e1a0,0.0204,0.0205,0,91,91,28,1,threeone,,,,,,,,,,,,,,,,,,,,,,,,,,,,,,,,,,,,,,,,,,,,,,,,,,,,,,,,,,,,,,,,,,,,,,,,,,,,,,,,,,,,,,,,,,,,,,,,,,,,,,,,,,,,,,,,,,,,,,,,,,,,,,,,,,,,,,,
,,650309a7aa388e72bb5f3d22,2023-12-07_08h05.36.738,kallum_motion_pilot,2023.2.3,Win32,60.17209218,650309a7aa388e72bb5f3d22,6560176e4d91f764e2a42c74,65716d7385b7c4c7ee00e1a0,0.0205,0.0205,0,92,92,40,1,onetwo,,,,,,,,,,,,,,,,,,,,,,,,,,,,,,,,,,,,,,,,,,,,,,,,,,,,,,,,,,,,,,,,,,,,,,,,,,,,,,,,,,,,,,,,,,,,,,,,,,,,,,,,,,,,,,,,,,,,,,,,,,,,,,,,,,,,,,,
,,650309a7aa388e72bb5f3d22,2023-12-07_08h05.36.738,kallum_motion_pilot,2023.2.3,Win32,60.17209218,650309a7aa388e72bb5f3d22,6560176e4d91f764e2a42c74,65716d7385b7c4c7ee00e1a0,0.0206,0.0207,0,93,93,81,1,fiveseven,,,,,,,,,,,,,,,,,,,,,,,,,,,,,,,,,,,,,,,,,,,,,,,,,,,,,,,,,,,,,,,,,,,,,,,,,,,,,,,,,,,,,,,,,,,,,,,,,,,,,,,,,,,,,,,,,,,,,,,,,,,,,,,,,,,,,,,
,,650309a7aa388e72bb5f3d22,2023-12-07_08h05.36.738,kallum_motion_pilot,2023.2.3,Win32,60.17209218,650309a7aa388e72bb5f3d22,6560176e4d91f764e2a42c74,65716d7385b7c4c7ee00e1a0,0.0207,0.0207,0,94,94,161,1,fiveseven,,,,,,,,,,,,,,,,,,,,,,,,,,,,,,,,,,,,,,,,,,,,,,,,,,,,,,,,,,,,,,,,,,,,,,,,,,,,,,,,,,,,,,,,,,,,,,,,,,,,,,,,,,,,,,,,,,,,,,,,,,,,,,,,,,,,,,,
,,650309a7aa388e72bb5f3d22,2023-12-07_08h05.36.738,kallum_motion_pilot,2023.2.3,Win32,60.17209218,650309a7aa388e72bb5f3d22,6560176e4d91f764e2a42c74,65716d7385b7c4c7ee00e1a0,0.0208,0.0208,0,95,95,152,1,fivesix,,,,,,,,,,,,,,,,,,,,,,,,,,,,,,,,,,,,,,,,,,,,,,,,,,,,,,,,,,,,,,,,,,,,,,,,,,,,,,,,,,,,,,,,,,,,,,,,,,,,,,,,,,,,,,,,,,,,,,,,,,,,,,,,,,,,,,,
,,650309a7aa388e72bb5f3d22,2023-12-07_08h05.36.738,kallum_motion_pilot,2023.2.3,Win32,60.17209218,650309a7aa388e72bb5f3d22,6560176e4d91f764e2a42c74,65716d7385b7c4c7ee00e1a0,0.0208,0.0208,0,96,96,89,1,fiveseven,,,,,,,,,,,,,,,,,,,,,,,,,,,,,,,,,,,,,,,,,,,,,,,,,,,,,,,,,,,,,,,,,,,,,,,,,,,,,,,,,,,,,,,,,,,,,,,,,,,,,,,,,,,,,,,,,,,,,,,,,,,,,,,,,,,,,,,
,,650309a7aa388e72bb5f3d22,2023-12-07_08h05.36.738,kallum_motion_pilot,2023.2.3,Win32,60.17209218,650309a7aa388e72bb5f3d22,6560176e4d91f764e2a42c74,65716d7385b7c4c7ee00e1a0,0.0209,0.0209,0,97,97,101,1,seveneight,,,,,,,,,,,,,,,,,,,,,,,,,,,,,,,,,,,,,,,,,,,,,,,,,,,,,,,,,,,,,,,,,,,,,,,,,,,,,,,,,,,,,,,,,,,,,,,,,,,,,,,,,,,,,,,,,,,,,,,,,,,,,,,,,,,,,,,
,,650309a7aa388e72bb5f3d22,2023-12-07_08h05.36.738,kallum_motion_pilot,2023.2.3,Win32,60.17209218,650309a7aa388e72bb5f3d22,6560176e4d91f764e2a42c74,65716d7385b7c4c7ee00e1a0,0.021,0.021,0,98,98,43,1,twofour,,,,,,,,,,,,,,,,,,,,,,,,,,,,,,,,,,,,,,,,,,,,,,,,,,,,,,,,,,,,,,,,,,,,,,,,,,,,,,,,,,,,,,,,,,,,,,,,,,,,,,,,,,,,,,,,,,,,,,,,,,,,,,,,,,,,,,,
,,650309a7aa388e72bb5f3d22,2023-12-07_08h05.36.738,kallum_motion_pilot,2023.2.3,Win32,60.17209218,650309a7aa388e72bb5f3d22,6560176e4d91f764e2a42c74,65716d7385b7c4c7ee00e1a0,0.0211,0.0211,0,99,99,86,1,eightsix,,,,,,,,,,,,,,,,,,,,,,,,,,,,,,,,,,,,,,,,,,,,,,,,,,,,,,,,,,,,,,,,,,,,,,,,,,,,,,,,,,,,,,,,,,,,,,,,,,,,,,,,,,,,,,,,,,,,,,,,,,,,,,,,,,,,,,,
,,650309a7aa388e72bb5f3d22,2023-12-07_08h05.36.738,kallum_motion_pilot,2023.2.3,Win32,60.17209218,650309a7aa388e72bb5f3d22,6560176e4d91f764e2a42c74,65716d7385b7c4c7ee00e1a0,0.0211,0.0212,0,100,100,117,1,seveneight,,,,,,,,,,,,,,,,,,,,,,,,,,,,,,,,,,,,,,,,,,,,,,,,,,,,,,,,,,,,,,,,,,,,,,,,,,,,,,,,,,,,,,,,,,,,,,,,,,,,,,,,,,,,,,,,,,,,,,,,,,,,,,,,,,,,,,,
,,650309a7aa388e72bb5f3d22,2023-12-07_08h05.36.738,kallum_motion_pilot,2023.2.3,Win32,60.17209218,650309a7aa388e72bb5f3d22,6560176e4d91f764e2a42c74,65716d7385b7c4c7ee00e1a0,0.0212,0.0212,0,101,101,35,1,twofour,,,,,,,,,,,,,,,,,,,,,,,,,,,,,,,,,,,,,,,,,,,,,,,,,,,,,,,,,,,,,,,,,,,,,,,,,,,,,,,,,,,,,,,,,,,,,,,,,,,,,,,,,,,,,,,,,,,,,,,,,,,,,,,,,,,,,,,
,,650309a7aa388e72bb5f3d22,2023-12-07_08h05.36.738,kallum_motion_pilot,2023.2.3,Win32,60.17209218,650309a7aa388e72bb5f3d22,6560176e4d91f764e2a42c74,65716d7385b7c4c7ee00e1a0,0.0213,0.0214,0,102,102,17,1,onethree,,,,,,,,,,,,,,,,,,,,,,,,,,,,,,,,,,,,,,,,,,,,,,,,,,,,,,,,,,,,,,,,,,,,,,,,,,,,,,,,,,,,,,,,,,,,,,,,,,,,,,,,,,,,,,,,,,,,,,,,,,,,,,,,,,,,,,,
,,650309a7aa388e72bb5f3d22,2023-12-07_08h05.36.738,kallum_motion_pilot,2023.2.3,Win32,60.17209218,650309a7aa388e72bb5f3d22,6560176e4d91f764e2a42c74,65716d7385b7c4c7ee00e1a0,0.0214,0.0214,0,103,103,59,1,twofour,,,,,,,,,,,,,,,,,,,,,,,,,,,,,,,,,,,,,,,,,,,,,,,,,,,,,,,,,,,,,,,,,,,,,,,,,,,,,,,,,,,,,,,,,,,,,,,,,,,,,,,,,,,,,,,,,,,,,,,,,,,,,,,,,,,,,,,
,,650309a7aa388e72bb5f3d22,2023-12-07_08h05.36.738,kallum_motion_pilot,2023.2.3,Win32,60.17209218,650309a7aa388e72bb5f3d22,6560176e4d91f764e2a42c74,65716d7385b7c4c7ee00e1a0,0.0214,0.0215,0,104,104,143,1,eightseven,,,,,,,,,,,,,,,,,,,,,,,,,,,,,,,,,,,,,,,,,,,,,,,,,,,,,,,,,,,,,,,,,,,,,,,,,,,,,,,,,,,,,,,,,,,,,,,,,,,,,,,,,,,,,,,,,,,,,,,,,,,,,,,,,,,,,,,
,,650309a7aa388e72bb5f3d22,2023-12-07_08h05.36.738,kallum_motion_pilot,2023.2.3,Win32,60.17209218,650309a7aa388e72bb5f3d22,6560176e4d91f764e2a42c74,65716d7385b7c4c7ee00e1a0,0.0216,0.022,0,105,105,8,1,onetwo,,,,,,,,,,,,,,,,,,,,,,,,,,,,,,,,,,,,,,,,,,,,,,,,,,,,,,,,,,,,,,,,,,,,,,,,,,,,,,,,,,,,,,,,,,,,,,,,,,,,,,,,,,,,,,,,,,,,,,,,,,,,,,,,,,,,,,,
,,650309a7aa388e72bb5f3d22,2023-12-07_08h05.36.738,kallum_motion_pilot,2023.2.3,Win32,60.17209218,650309a7aa388e72bb5f3d22,6560176e4d91f764e2a42c74,65716d7385b7c4c7ee00e1a0,0.022,0.022,0,106,106,84,1,sevenfive,,,,,,,,,,,,,,,,,,,,,,,,,,,,,,,,,,,,,,,,,,,,,,,,,,,,,,,,,,,,,,,,,,,,,,,,,,,,,,,,,,,,,,,,,,,,,,,,,,,,,,,,,,,,,,,,,,,,,,,,,,,,,,,,,,,,,,,
,,650309a7aa388e72bb5f3d22,2023-12-07_08h05.36.738,kallum_motion_pilot,2023.2.3,Win32,60.17209218,650309a7aa388e72bb5f3d22,6560176e4d91f764e2a42c74,65716d7385b7c4c7ee00e1a0,0.0222,0.0222,0,107,107,52,1,threeone,,,,,,,,,,,,,,,,,,,,,,,,,,,,,,,,,,,,,,,,,,,,,,,,,,,,,,,,,,,,,,,,,,,,,,,,,,,,,,,,,,,,,,,,,,,,,,,,,,,,,,,,,,,,,,,,,,,,,,,,,,,,,,,,,,,,,,,
,,650309a7aa388e72bb5f3d22,2023-12-07_08h05.36.738,kallum_motion_pilot,2023.2.3,Win32,60.17209218,650309a7aa388e72bb5f3d22,6560176e4d91f764e2a42c74,65716d7385b7c4c7ee00e1a0,0.0222,0.0223,0,108,108,92,1,sevenfive,,,,,,,,,,,,,,,,,,,,,,,,,,,,,,,,,,,,,,,,,,,,,,,,,,,,,,,,,,,,,,,,,,,,,,,,,,,,,,,,,,,,,,,,,,,,,,,,,,,,,,,,,,,,,,,,,,,,,,,,,,,,,,,,,,,,,,,
,,650309a7aa388e72bb5f3d22,2023-12-07_08h05.36.738,kallum_motion_pilot,2023.2.3,Win32,60.17209218,650309a7aa388e72bb5f3d22,6560176e4d91f764e2a42c74,65716d7385b7c4c7ee00e1a0,0.0223,0.0223,0,109,109,108,1,sevenfive,,,,,,,,,,,,,,,,,,,,,,,,,,,,,,,,,,,,,,,,,,,,,,,,,,,,,,,,,,,,,,,,,,,,,,,,,,,,,,,,,,,,,,,,,,,,,,,,,,,,,,,,,,,,,,,,,,,,,,,,,,,,,,,,,,,,,,,
,,650309a7aa388e72bb5f3d22,2023-12-07_08h05.36.738,kallum_motion_pilot,2023.2.3,Win32,60.17209218,650309a7aa388e72bb5f3d22,6560176e4d91f764e2a42c74,65716d7385b7c4c7ee00e1a0,0.0224,0.0224,0,110,110,77,1,threefour,,,,,,,,,,,,,,,,,,,,,,,,,,,,,,,,,,,,,,,,,,,,,,,,,,,,,,,,,,,,,,,,,,,,,,,,,,,,,,,,,,,,,,,,,,,,,,,,,,,,,,,,,,,,,,,,,,,,,,,,,,,,,,,,,,,,,,,
,,650309a7aa388e72bb5f3d22,2023-12-07_08h05.36.738,kallum_motion_pilot,2023.2.3,Win32,60.17209218,650309a7aa388e72bb5f3d22,6560176e4d91f764e2a42c74,65716d7385b7c4c7ee00e1a0,0.0224,0.0224,0,111,111,1,1,onethree,,,,,,,,,,,,,,,,,,,,,,,,,,,,,,,,,,,,,,,,,,,,,,,,,,,,,,,,,,,,,,,,,,,,,,,,,,,,,,,,,,,,,,,,,,,,,,,,,,,,,,,,,,,,,,,,,,,,,,,,,,,,,,,,,,,,,,,
,,650309a7aa388e72bb5f3d22,2023-12-07_08h05.36.738,kallum_motion_pilot,2023.2.3,Win32,60.17209218,650309a7aa388e72bb5f3d22,6560176e4d91f764e2a42c74,65716d7385b7c4c7ee00e1a0,0.0225,0.0225,0,112,112,44,1,threeone,,,,,,,,,,,,,,,,,,,,,,,,,,,,,,,,,,,,,,,,,,,,,,,,,,,,,,,,,,,,,,,,,,,,,,,,,,,,,,,,,,,,,,,,,,,,,,,,,,,,,,,,,,,,,,,,,,,,,,,,,,,,,,,,,,,,,,,
,,650309a7aa388e72bb5f3d22,2023-12-07_08h05.36.738,kallum_motion_pilot,2023.2.3,Win32,60.17209218,650309a7aa388e72bb5f3d22,6560176e4d91f764e2a42c74,65716d7385b7c4c7ee00e1a0,0.0226,0.0226,0,113,113,65,1,onethree,,,,,,,,,,,,,,,,,,,,,,,,,,,,,,,,,,,,,,,,,,,,,,,,,,,,,,,,,,,,,,,,,,,,,,,,,,,,,,,,,,,,,,,,,,,,,,,,,,,,,,,,,,,,,,,,,,,,,,,,,,,,,,,,,,,,,,,
,,650309a7aa388e72bb5f3d22,2023-12-07_08h05.36.738,kallum_motion_pilot,2023.2.3,Win32,60.17209218,650309a7aa388e72bb5f3d22,6560176e4d91f764e2a42c74,65716d7385b7c4c7ee00e1a0,0.0226,0.0227,0,114,114,18,1,twoone,,,,,,,,,,,,,,,,,,,,,,,,,,,,,,,,,,,,,,,,,,,,,,,,,,,,,,,,,,,,,,,,,,,,,,,,,,,,,,,,,,,,,,,,,,,,,,,,,,,,,,,,,,,,,,,,,,,,,,,,,,,,,,,,,,,,,,,
,,650309a7aa388e72bb5f3d22,2023-12-07_08h05.36.738,kallum_motion_pilot,2023.2.3,Win32,60.17209218,650309a7aa388e72bb5f3d22,6560176e4d91f764e2a42c74,65716d7385b7c4c7ee00e1a0,0.0227,0.0227,0,115,115,60,1,threeone,,,,,,,,,,,,,,,,,,,,,,,,,,,,,,,,,,,,,,,,,,,,,,,,,,,,,,,,,,,,,,,,,,,,,,,,,,,,,,,,,,,,,,,,,,,,,,,,,,,,,,,,,,,,,,,,,,,,,,,,,,,,,,,,,,,,,,,
,,650309a7aa388e72bb5f3d22,2023-12-07_08h05.36.738,kallum_motion_pilot,2023.2.3,Win32,60.17209218,650309a7aa388e72bb5f3d22,6560176e4d91f764e2a42c74,65716d7385b7c4c7ee00e1a0,0.0229,0.0229,0,116,116,34,1,twoone,,,,,,,,,,,,,,,,,,,,,,,,,,,,,,,,,,,,,,,,,,,,,,,,,,,,,,,,,,,,,,,,,,,,,,,,,,,,,,,,,,,,,,,,,,,,,,,,,,,,,,,,,,,,,,,,,,,,,,,,,,,,,,,,,,,,,,,
,,650309a7aa388e72bb5f3d22,2023-12-07_08h05.36.738,kallum_motion_pilot,2023.2.3,Win32,60.17209218,650309a7aa388e72bb5f3d22,6560176e4d91f764e2a42c74,65716d7385b7c4c7ee00e1a0,0.0229,0.023,0,117,117,146,1,sixfive,,,,,,,,,,,,,,,,,,,,,,,,,,,,,,,,,,,,,,,,,,,,,,,,,,,,,,,,,,,,,,,,,,,,,,,,,,,,,,,,,,,,,,,,,,,,,,,,,,,,,,,,,,,,,,,,,,,,,,,,,,,,,,,,,,,,,,,
,,650309a7aa388e72bb5f3d22,2023-12-07_08h05.36.738,kallum_motion_pilot,2023.2.3,Win32,60.17209218,650309a7aa388e72bb5f3d22,6560176e4d91f764e2a42c74,65716d7385b7c4c7ee00e1a0,0.023,0.023,0,118,118,54,1,fourtwo,,,,,,,,,,,,,,,,,,,,,,,,,,,,,,,,,,,,,,,,,,,,,,,,,,,,,,,,,,,,,,,,,,,,,,,,,,,,,,,,,,,,,,,,,,,,,,,,,,,,,,,,,,,,,,,,,,,,,,,,,,,,,,,,,,,,,,,
,,650309a7aa388e72bb5f3d22,2023-12-07_08h05.36.738,kallum_motion_pilot,2023.2.3,Win32,60.17209218,650309a7aa388e72bb5f3d22,6560176e4d91f764e2a42c74,65716d7385b7c4c7ee00e1a0,0.023,0.0231,0,119,119,23,1,fourthree,,,,,,,,,,,,,,,,,,,,,,,,,,,,,,,,,,,,,,,,,,,,,,,,,,,,,,,,,,,,,,,,,,,,,,,,,,,,,,,,,,,,,,,,,,,,,,,,,,,,,,,,,,,,,,,,,,,,,,,,,,,,,,,,,,,,,,,
,,650309a7aa388e72bb5f3d22,2023-12-07_08h05.36.738,kallum_motion_pilot,2023.2.3,Win32,60.17209218,650309a7aa388e72bb5f3d22,6560176e4d91f764e2a42c74,65716d7385b7c4c7ee00e1a0,0.0232,0.0232,0,120,120,47,1,fourthree,,,,,,,,,,,,,,,,,,,,,,,,,,,,,,,,,,,,,,,,,,,,,,,,,,,,,,,,,,,,,,,,,,,,,,,,,,,,,,,,,,,,,,,,,,,,,,,,,,,,,,,,,,,,,,,,,,,,,,,,,,,,,,,,,,,,,,,
,,650309a7aa388e72bb5f3d22,2023-12-07_08h05.36.738,kallum_motion_pilot,2023.2.3,Win32,60.17209218,650309a7aa388e72bb5f3d22,6560176e4d91f764e2a42c74,65716d7385b7c4c7ee00e1a0,0.0232,0.0232,0,121,121,133,1,seveneight,,,,,,,,,,,,,,,,,,,,,,,,,,,,,,,,,,,,,,,,,,,,,,,,,,,,,,,,,,,,,,,,,,,,,,,,,,,,,,,,,,,,,,,,,,,,,,,,,,,,,,,,,,,,,,,,,,,,,,,,,,,,,,,,,,,,,,,
,,650309a7aa388e72bb5f3d22,2023-12-07_08h05.36.738,kallum_motion_pilot,2023.2.3,Win32,60.17209218,650309a7aa388e72bb5f3d22,6560176e4d91f764e2a42c74,65716d7385b7c4c7ee00e1a0,0.0232,0.0233,0,122,122,96,1,fivesix,,,,,,,,,,,,,,,,,,,,,,,,,,,,,,,,,,,,,,,,,,,,,,,,,,,,,,,,,,,,,,,,,,,,,,,,,,,,,,,,,,,,,,,,,,,,,,,,,,,,,,,,,,,,,,,,,,,,,,,,,,,,,,,,,,,,,,,
,,650309a7aa388e72bb5f3d22,2023-12-07_08h05.36.738,kallum_motion_pilot,2023.2.3,Win32,60.17209218,650309a7aa388e72bb5f3d22,6560176e4d91f764e2a42c74,65716d7385b7c4c7ee00e1a0,0.0234,0.0234,0,123,123,72,1,onetwo,,,,,,,,,,,,,,,,,,,,,,,,,,,,,,,,,,,,,,,,,,,,,,,,,,,,,,,,,,,,,,,,,,,,,,,,,,,,,,,,,,,,,,,,,,,,,,,,,,,,,,,,,,,,,,,,,,,,,,,,,,,,,,,,,,,,,,,
,,650309a7aa388e72bb5f3d22,2023-12-07_08h05.36.738,kallum_motion_pilot,2023.2.3,Win32,60.17209218,650309a7aa388e72bb5f3d22,6560176e4d91f764e2a42c74,65716d7385b7c4c7ee00e1a0,0.0235,0.0235,0,124,124,126,1,eightsix,,,,,,,,,,,,,,,,,,,,,,,,,,,,,,,,,,,,,,,,,,,,,,,,,,,,,,,,,,,,,,,,,,,,,,,,,,,,,,,,,,,,,,,,,,,,,,,,,,,,,,,,,,,,,,,,,,,,,,,,,,,,,,,,,,,,,,,
,,650309a7aa388e72bb5f3d22,2023-12-07_08h05.36.738,kallum_motion_pilot,2023.2.3,Win32,60.17209218,650309a7aa388e72bb5f3d22,6560176e4d91f764e2a42c74,65716d7385b7c4c7ee00e1a0,0.0235,0.0235,0,125,125,132,1,sevenfive,,,,,,,,,,,,,,,,,,,,,,,,,,,,,,,,,,,,,,,,,,,,,,,,,,,,,,,,,,,,,,,,,,,,,,,,,,,,,,,,,,,,,,,,,,,,,,,,,,,,,,,,,,,,,,,,,,,,,,,,,,,,,,,,,,,,,,,
,,650309a7aa388e72bb5f3d22,2023-12-07_08h05.36.738,kallum_motion_pilot,2023.2.3,Win32,60.17209218,650309a7aa388e72bb5f3d22,6560176e4d91f764e2a42c74,65716d7385b7c4c7ee00e1a0,0.0236,0.0236,0,126,126,157,1,seveneight,,,,,,,,,,,,,,,,,,,,,,,,,,,,,,,,,,,,,,,,,,,,,,,,,,,,,,,,,,,,,,,,,,,,,,,,,,,,,,,,,,,,,,,,,,,,,,,,,,,,,,,,,,,,,,,,,,,,,,,,,,,,,,,,,,,,,,,
,,650309a7aa388e72bb5f3d22,2023-12-07_08h05.36.738,kallum_motion_pilot,2023.2.3,Win32,60.17209218,650309a7aa388e72bb5f3d22,6560176e4d91f764e2a42c74,65716d7385b7c4c7ee00e1a0,0.0237,0.0238,0,127,127,31,1,fourthree,,,,,,,,,,,,,,,,,,,,,,,,,,,,,,,,,,,,,,,,,,,,,,,,,,,,,,,,,,,,,,,,,,,,,,,,,,,,,,,,,,,,,,,,,,,,,,,,,,,,,,,,,,,,,,,,,,,,,,,,,,,,,,,,,,,,,,,
,,650309a7aa388e72bb5f3d22,2023-12-07_08h05.36.738,kallum_motion_pilot,2023.2.3,Win32,60.17209218,650309a7aa388e72bb5f3d22,6560176e4d91f764e2a42c74,65716d7385b7c4c7ee00e1a0,0.0238,0.0238,0,128,128,145,1,fiveseven,,,,,,,,,,,,,,,,,,,,,,,,,,,,,,,,,,,,,,,,,,,,,,,,,,,,,,,,,,,,,,,,,,,,,,,,,,,,,,,,,,,,,,,,,,,,,,,,,,,,,,,,,,,,,,,,,,,,,,,,,,,,,,,,,,,,,,,
,,650309a7aa388e72bb5f3d22,2023-12-07_08h05.36.738,kallum_motion_pilot,2023.2.3,Win32,60.17209218,650309a7aa388e72bb5f3d22,6560176e4d91f764e2a42c74,65716d7385b7c4c7ee00e1a0,0.0239,0.0239,0,129,129,95,1,eightseven,,,,,,,,,,,,,,,,,,,,,,,,,,,,,,,,,,,,,,,,,,,,,,,,,,,,,,,,,,,,,,,,,,,,,,,,,,,,,,,,,,,,,,,,,,,,,,,,,,,,,,,,,,,,,,,,,,,,,,,,,,,,,,,,,,,,,,,
,,650309a7aa388e72bb5f3d22,2023-12-07_08h05.36.738,kallum_motion_pilot,2023.2.3,Win32,60.17209218,650309a7aa388e72bb5f3d22,6560176e4d91f764e2a42c74,65716d7385b7c4c7ee00e1a0,0.024,0.024,0,130,130,88,1,fivesix,,,,,,,,,,,,,,,,,,,,,,,,,,,,,,,,,,,,,,,,,,,,,,,,,,,,,,,,,,,,,,,,,,,,,,,,,,,,,,,,,,,,,,,,,,,,,,,,,,,,,,,,,,,,,,,,,,,,,,,,,,,,,,,,,,,,,,,
,,650309a7aa388e72bb5f3d22,2023-12-07_08h05.36.738,kallum_motion_pilot,2023.2.3,Win32,60.17209218,650309a7aa388e72bb5f3d22,6560176e4d91f764e2a42c74,65716d7385b7c4c7ee00e1a0,0.0241,0.0241,0,131,131,156,1,sevenfive,,,,,,,,,,,,,,,,,,,,,,,,,,,,,,,,,,,,,,,,,,,,,,,,,,,,,,,,,,,,,,,,,,,,,,,,,,,,,,,,,,,,,,,,,,,,,,,,,,,,,,,,,,,,,,,,,,,,,,,,,,,,,,,,,,,,,,,
,,650309a7aa388e72bb5f3d22,2023-12-07_08h05.36.738,kallum_motion_pilot,2023.2.3,Win32,60.17209218,650309a7aa388e72bb5f3d22,6560176e4d91f764e2a42c74,65716d7385b7c4c7ee00e1a0,0.0242,0.0242,0,132,132,114,1,sixfive,,,,,,,,,,,,,,,,,,,,,,,,,,,,,,,,,,,,,,,,,,,,,,,,,,,,,,,,,,,,,,,,,,,,,,,,,,,,,,,,,,,,,,,,,,,,,,,,,,,,,,,,,,,,,,,,,,,,,,,,,,,,,,,,,,,,,,,
,,650309a7aa388e72bb5f3d22,2023-12-07_08h05.36.738,kallum_motion_pilot,2023.2.3,Win32,60.17209218,650309a7aa388e72bb5f3d22,6560176e4d91f764e2a42c74,65716d7385b7c4c7ee00e1a0,0.0242,0.0242,0,133,133,138,1,sixfive,,,,,,,,,,,,,,,,,,,,,,,,,,,,,,,,,,,,,,,,,,,,,,,,,,,,,,,,,,,,,,,,,,,,,,,,,,,,,,,,,,,,,,,,,,,,,,,,,,,,,,,,,,,,,,,,,,,,,,,,,,,,,,,,,,,,,,,
,,650309a7aa388e72bb5f3d22,2023-12-07_08h05.36.738,kallum_motion_pilot,2023.2.3,Win32,60.17209218,650309a7aa388e72bb5f3d22,6560176e4d91f764e2a42c74,65716d7385b7c4c7ee00e1a0,0.0243,0.0243,0,134,134,68,1,threeone,,,,,,,,,,,,,,,,,,,,,,,,,,,,,,,,,,,,,,,,,,,,,,,,,,,,,,,,,,,,,,,,,,,,,,,,,,,,,,,,,,,,,,,,,,,,,,,,,,,,,,,,,,,,,,,,,,,,,,,,,,,,,,,,,,,,,,,
,,650309a7aa388e72bb5f3d22,2023-12-07_08h05.36.738,kallum_motion_pilot,2023.2.3,Win32,60.17209218,650309a7aa388e72bb5f3d22,6560176e4d91f764e2a42c74,65716d7385b7c4c7ee00e1a0,0.0243,0.0244,0,135,135,97,1,fiveseven,,,,,,,,,,,,,,,,,,,,,,,,,,,,,,,,,,,,,,,,,,,,,,,,,,,,,,,,,,,,,,,,,,,,,,,,,,,,,,,,,,,,,,,,,,,,,,,,,,,,,,,,,,,,,,,,,,,,,,,,,,,,,,,,,,,,,,,
,,650309a7aa388e72bb5f3d22,2023-12-07_08h05.36.738,kallum_motion_pilot,2023.2.3,Win32,60.17209218,650309a7aa388e72bb5f3d22,6560176e4d91f764e2a42c74,65716d7385b7c4c7ee00e1a0,0.0244,0.0245,0,136,136,155,1,sixeight,,,,,,,,,,,,,,,,,,,,,,,,,,,,,,,,,,,,,,,,,,,,,,,,,,,,,,,,,,,,,,,,,,,,,,,,,,,,,,,,,,,,,,,,,,,,,,,,,,,,,,,,,,,,,,,,,,,,,,,,,,,,,,,,,,,,,,,
,,650309a7aa388e72bb5f3d22,2023-12-07_08h05.36.738,kallum_motion_pilot,2023.2.3,Win32,60.17209218,650309a7aa388e72bb5f3d22,6560176e4d91f764e2a42c74,65716d7385b7c4c7ee00e1a0,0.0245,0.0245,0,137,137,16,1,onetwo,,,,,,,,,,,,,,,,,,,,,,,,,,,,,,,,,,,,,,,,,,,,,,,,,,,,,,,,,,,,,,,,,,,,,,,,,,,,,,,,,,,,,,,,,,,,,,,,,,,,,,,,,,,,,,,,,,,,,,,,,,,,,,,,,,,,,,,
,,650309a7aa388e72bb5f3d22,2023-12-07_08h05.36.738,kallum_motion_pilot,2023.2.3,Win32,60.17209218,650309a7aa388e72bb5f3d22,6560176e4d91f764e2a42c74,65716d7385b7c4c7ee00e1a0,0.0246,0.0247,0,138,138,109,1,seveneight,,,,,,,,,,,,,,,,,,,,,,,,,,,,,,,,,,,,,,,,,,,,,,,,,,,,,,,,,,,,,,,,,,,,,,,,,,,,,,,,,,,,,,,,,,,,,,,,,,,,,,,,,,,,,,,,,,,,,,,,,,,,,,,,,,,,,,,
,,650309a7aa388e72bb5f3d22,2023-12-07_08h05.36.738,kallum_motion_pilot,2023.2.3,Win32,60.17209218,650309a7aa388e72bb5f3d22,6560176e4d91f764e2a42c74,65716d7385b7c4c7ee00e1a0,0.0247,0.0247,0,139,139,93,1,seveneight,,,,,,,,,,,,,,,,,,,,,,,,,,,,,,,,,,,,,,,,,,,,,,,,,,,,,,,,,,,,,,,,,,,,,,,,,,,,,,,,,,,,,,,,,,,,,,,,,,,,,,,,,,,,,,,,,,,,,,,,,,,,,,,,,,,,,,,
,,650309a7aa388e72bb5f3d22,2023-12-07_08h05.36.738,kallum_motion_pilot,2023.2.3,Win32,60.17209218,650309a7aa388e72bb5f3d22,6560176e4d91f764e2a42c74,65716d7385b7c4c7ee00e1a0,0.0248,0.0248,0,140,140,33,1,onethree,,,,,,,,,,,,,,,,,,,,,,,,,,,,,,,,,,,,,,,,,,,,,,,,,,,,,,,,,,,,,,,,,,,,,,,,,,,,,,,,,,,,,,,,,,,,,,,,,,,,,,,,,,,,,,,,,,,,,,,,,,,,,,,,,,,,,,,
,,650309a7aa388e72bb5f3d22,2023-12-07_08h05.36.738,kallum_motion_pilot,2023.2.3,Win32,60.17209218,650309a7aa388e72bb5f3d22,6560176e4d91f764e2a42c74,65716d7385b7c4c7ee00e1a0,0.0249,0.0249,0,141,141,131,1,sixeight,,,,,,,,,,,,,,,,,,,,,,,,,,,,,,,,,,,,,,,,,,,,,,,,,,,,,,,,,,,,,,,,,,,,,,,,,,,,,,,,,,,,,,,,,,,,,,,,,,,,,,,,,,,,,,,,,,,,,,,,,,,,,,,,,,,,,,,
,,650309a7aa388e72bb5f3d22,2023-12-07_08h05.36.738,kallum_motion_pilot,2023.2.3,Win32,60.17209218,650309a7aa388e72bb5f3d22,6560176e4d91f764e2a42c74,65716d7385b7c4c7ee00e1a0,0.025,0.025,0,142,142,147,1,sixeight,,,,,,,,,,,,,,,,,,,,,,,,,,,,,,,,,,,,,,,,,,,,,,,,,,,,,,,,,,,,,,,,,,,,,,,,,,,,,,,,,,,,,,,,,,,,,,,,,,,,,,,,,,,,,,,,,,,,,,,,,,,,,,,,,,,,,,,
,,650309a7aa388e72bb5f3d22,2023-12-07_08h05.36.738,kallum_motion_pilot,2023.2.3,Win32,60.17209218,650309a7aa388e72bb5f3d22,6560176e4d91f764e2a42c74,65716d7385b7c4c7ee00e1a0,0.025,0.025,0,143,143,42,1,twoone,,,,,,,,,,,,,,,,,,,,,,,,,,,,,,,,,,,,,,,,,,,,,,,,,,,,,,,,,,,,,,,,,,,,,,,,,,,,,,,,,,,,,,,,,,,,,,,,,,,,,,,,,,,,,,,,,,,,,,,,,,,,,,,,,,,,,,,
,,650309a7aa388e72bb5f3d22,2023-12-07_08h05.36.738,kallum_motion_pilot,2023.2.3,Win32,60.17209218,650309a7aa388e72bb5f3d22,6560176e4d91f764e2a42c74,65716d7385b7c4c7ee00e1a0,0.0251,0.0251,0,144,144,149,1,seveneight,,,,,,,,,,,,,,,,,,,,,,,,,,,,,,,,,,,,,,,,,,,,,,,,,,,,,,,,,,,,,,,,,,,,,,,,,,,,,,,,,,,,,,,,,,,,,,,,,,,,,,,,,,,,,,,,,,,,,,,,,,,,,,,,,,,,,,,
,,650309a7aa388e72bb5f3d22,2023-12-07_08h05.36.738,kallum_motion_pilot,2023.2.3,Win32,60.17209218,650309a7aa388e72bb5f3d22,6560176e4d91f764e2a42c74,65716d7385b7c4c7ee00e1a0,0.0252,0.0252,0,145,145,11,1,twofour,,,,,,,,,,,,,,,,,,,,,,,,,,,,,,,,,,,,,,,,,,,,,,,,,,,,,,,,,,,,,,,,,,,,,,,,,,,,,,,,,,,,,,,,,,,,,,,,,,,,,,,,,,,,,,,,,,,,,,,,,,,,,,,,,,,,,,,
,,650309a7aa388e72bb5f3d22,2023-12-07_08h05.36.738,kallum_motion_pilot,2023.2.3,Win32,60.17209218,650309a7aa388e72bb5f3d22,6560176e4d91f764e2a42c74,65716d7385b7c4c7ee00e1a0,0.0252,0.0253,0,146,146,111,1,eightseven,,,,,,,,,,,,,,,,,,,,,,,,,,,,,,,,,,,,,,,,,,,,,,,,,,,,,,,,,,,,,,,,,,,,,,,,,,,,,,,,,,,,,,,,,,,,,,,,,,,,,,,,,,,,,,,,,,,,,,,,,,,,,,,,,,,,,,,
,,650309a7aa388e72bb5f3d22,2023-12-07_08h05.36.738,kallum_motion_pilot,2023.2.3,Win32,60.17209218,650309a7aa388e72bb5f3d22,6560176e4d91f764e2a42c74,65716d7385b7c4c7ee00e1a0,0.0253,0.0254,0,147,147,100,1,sevenfive,,,,,,,,,,,,,,,,,,,,,,,,,,,,,,,,,,,,,,,,,,,,,,,,,,,,,,,,,,,,,,,,,,,,,,,,,,,,,,,,,,,,,,,,,,,,,,,,,,,,,,,,,,,,,,,,,,,,,,,,,,,,,,,,,,,,,,,
,,650309a7aa388e72bb5f3d22,2023-12-07_08h05.36.738,kallum_motion_pilot,2023.2.3,Win32,60.17209218,650309a7aa388e72bb5f3d22,6560176e4d91f764e2a42c74,65716d7385b7c4c7ee00e1a0,0.0254,0.0254,0,148,148,25,1,onethree,,,,,,,,,,,,,,,,,,,,,,,,,,,,,,,,,,,,,,,,,,,,,,,,,,,,,,,,,,,,,,,,,,,,,,,,,,,,,,,,,,,,,,,,,,,,,,,,,,,,,,,,,,,,,,,,,,,,,,,,,,,,,,,,,,,,,,,
,,650309a7aa388e72bb5f3d22,2023-12-07_08h05.36.738,kallum_motion_pilot,2023.2.3,Win32,60.17209218,650309a7aa388e72bb5f3d22,6560176e4d91f764e2a42c74,65716d7385b7c4c7ee00e1a0,0.0255,0.0255,0,149,149,128,1,fivesix,,,,,,,,,,,,,,,,,,,,,,,,,,,,,,,,,,,,,,,,,,,,,,,,,,,,,,,,,,,,,,,,,,,,,,,,,,,,,,,,,,,,,,,,,,,,,,,,,,,,,,,,,,,,,,,,,,,,,,,,,,,,,,,,,,,,,,,
,,650309a7aa388e72bb5f3d22,2023-12-07_08h05.36.738,kallum_motion_pilot,2023.2.3,Win32,60.17209218,650309a7aa388e72bb5f3d22,6560176e4d91f764e2a42c74,65716d7385b7c4c7ee00e1a0,0.0255,0.0257,0,150,150,41,1,onethree,,,,,,,,,,,,,,,,,,,,,,,,,,,,,,,,,,,,,,,,,,,,,,,,,,,,,,,,,,,,,,,,,,,,,,,,,,,,,,,,,,,,,,,,,,,,,,,,,,,,,,,,,,,,,,,,,,,,,,,,,,,,,,,,,,,,,,,
,,650309a7aa388e72bb5f3d22,2023-12-07_08h05.36.738,kallum_motion_pilot,2023.2.3,Win32,60.17209218,650309a7aa388e72bb5f3d22,6560176e4d91f764e2a42c74,65716d7385b7c4c7ee00e1a0,0.0257,0.0257,0,151,151,118,1,eightsix,,,,,,,,,,,,,,,,,,,,,,,,,,,,,,,,,,,,,,,,,,,,,,,,,,,,,,,,,,,,,,,,,,,,,,,,,,,,,,,,,,,,,,,,,,,,,,,,,,,,,,,,,,,,,,,,,,,,,,,,,,,,,,,,,,,,,,,
,,650309a7aa388e72bb5f3d22,2023-12-07_08h05.36.738,kallum_motion_pilot,2023.2.3,Win32,60.17209218,650309a7aa388e72bb5f3d22,6560176e4d91f764e2a42c74,65716d7385b7c4c7ee00e1a0,0.0257,0.0257,0,152,152,94,1,eightsix,,,,,,,,,,,,,,,,,,,,,,,,,,,,,,,,,,,,,,,,,,,,,,,,,,,,,,,,,,,,,,,,,,,,,,,,,,,,,,,,,,,,,,,,,,,,,,,,,,,,,,,,,,,,,,,,,,,,,,,,,,,,,,,,,,,,,,,
,,650309a7aa388e72bb5f3d22,2023-12-07_08h05.36.738,kallum_motion_pilot,2023.2.3,Win32,60.17209218,650309a7aa388e72bb5f3d22,6560176e4d91f764e2a42c74,65716d7385b7c4c7ee00e1a0,0.0259,0.0259,0,153,153,55,1,fourthree,,,,,,,,,,,,,,,,,,,,,,,,,,,,,,,,,,,,,,,,,,,,,,,,,,,,,,,,,,,,,,,,,,,,,,,,,,,,,,,,,,,,,,,,,,,,,,,,,,,,,,,,,,,,,,,,,,,,,,,,,,,,,,,,,,,,,,,
,,650309a7aa388e72bb5f3d22,2023-12-07_08h05.36.738,kallum_motion_pilot,2023.2.3,Win32,60.17209218,650309a7aa388e72bb5f3d22,6560176e4d91f764e2a42c74,65716d7385b7c4c7ee00e1a0,0.0259,0.0259,0,154,154,4,1,threeone,,,,,,,,,,,,,,,,,,,,,,,,,,,,,,,,,,,,,,,,,,,,,,,,,,,,,,,,,,,,,,,,,,,,,,,,,,,,,,,,,,,,,,,,,,,,,,,,,,,,,,,,,,,,,,,,,,,,,,,,,,,,,,,,,,,,,,,
,,650309a7aa388e72bb5f3d22,2023-12-07_08h05.36.738,kallum_motion_pilot,2023.2.3,Win32,60.17209218,650309a7aa388e72bb5f3d22,6560176e4d91f764e2a42c74,65716d7385b7c4c7ee00e1a0,0.026,0.0261,0,155,155,134,1,eightsix,,,,,,,,,,,,,,,,,,,,,,,,,,,,,,,,,,,,,,,,,,,,,,,,,,,,,,,,,,,,,,,,,,,,,,,,,,,,,,,,,,,,,,,,,,,,,,,,,,,,,,,,,,,,,,,,,,,,,,,,,,,,,,,,,,,,,,,
,,650309a7aa388e72bb5f3d22,2023-12-07_08h05.36.738,kallum_motion_pilot,2023.2.3,Win32,60.17209218,650309a7aa388e72bb5f3d22,6560176e4d91f764e2a42c74,65716d7385b7c4c7ee00e1a0,0.0261,0.0261,0,156,156,122,1,sixfive,,,,,,,,,,,,,,,,,,,,,,,,,,,,,,,,,,,,,,,,,,,,,,,,,,,,,,,,,,,,,,,,,,,,,,,,,,,,,,,,,,,,,,,,,,,,,,,,,,,,,,,,,,,,,,,,,,,,,,,,,,,,,,,,,,,,,,,
,,650309a7aa388e72bb5f3d22,2023-12-07_08h05.36.738,kallum_motion_pilot,2023.2.3,Win32,60.17209218,650309a7aa388e72bb5f3d22,6560176e4d91f764e2a42c74,65716d7385b7c4c7ee00e1a0,0.0261,0.0262,0,157,157,12,1,threeone,,,,,,,,,,,,,,,,,,,,,,,,,,,,,,,,,,,,,,,,,,,,,,,,,,,,,,,,,,,,,,,,,,,,,,,,,,,,,,,,,,,,,,,,,,,,,,,,,,,,,,,,,,,,,,,,,,,,,,,,,,,,,,,,,,,,,,,
,,650309a7aa388e72bb5f3d22,2023-12-07_08h05.36.738,kallum_motion_pilot,2023.2.3,Win32,60.17209218,650309a7aa388e72bb5f3d22,6560176e4d91f764e2a42c74,65716d7385b7c4c7ee00e1a0,0.0262,0.0263,0,158,158,19,1,twofour,,,,,,,,,,,,,,,,,,,,,,,,,,,,,,,,,,,,,,,,,,,,,,,,,,,,,,,,,,,,,,,,,,,,,,,,,,,,,,,,,,,,,,,,,,,,,,,,,,,,,,,,,,,,,,,,,,,,,,,,,,,,,,,,,,,,,,,
,,650309a7aa388e72bb5f3d22,2023-12-07_08h05.36.738,kallum_motion_pilot,2023.2.3,Win32,60.17209218,650309a7aa388e72bb5f3d22,6560176e4d91f764e2a42c74,65716d7385b7c4c7ee00e1a0,0.0264,0.0264,0,159,159,2,1,twoone,,,,,,,,,,,,,,,,,,,,,,,,,,,,,,,,,,,,,,,,,,,,,,,,,,,,,,,,,,,,,,,,,,,,,,,,,,,,,,,,,,,,,,,,,,,,,,,,,,,,,,,,,,,,,,,,,,,,,,,,,,,,,,,,,,,,,,,
,,650309a7aa388e72bb5f3d22,2023-12-07_08h05.36.738,kallum_motion_pilot,2023.2.3,Win32,60.17209218,650309a7aa388e72bb5f3d22,6560176e4d91f764e2a42c74,65716d7385b7c4c7ee00e1a0,0.0264,0.0265,0,160,160,110,1,eightsix,,,,,,,,,,,,,,,,,,,,,,,,,,,,,,,,,,,,,,,,,,,,,,,,,,,,,,,,,,,,,,,,,,,,,,,,,,,,,,,,,,,,,,,,,,,,,,,,,,,,,,,,,,,,,,,,,,,,,,,,,,,,,,,,,,,,,,,
,,650309a7aa388e72bb5f3d22,2023-12-07_08h05.36.738,kallum_motion_pilot,2023.2.3,Win32,60.17209218,650309a7aa388e72bb5f3d22,6560176e4d91f764e2a42c74,65716d7385b7c4c7ee00e1a0,0.0265,0.0266,0,161,161,26,1,twoone,,,,,,,,,,,,,,,,,,,,,,,,,,,,,,,,,,,,,,,,,,,,,,,,,,,,,,,,,,,,,,,,,,,,,,,,,,,,,,,,,,,,,,,,,,,,,,,,,,,,,,,,,,,,,,,,,,,,,,,,,,,,,,,,,,,,,,,
,,650309a7aa388e72bb5f3d22,2023-12-07_08h05.36.738,kallum_motion_pilot,2023.2.3,Win32,60.17209218,650309a7aa388e72bb5f3d22,6560176e4d91f764e2a42c74,65716d7385b7c4c7ee00e1a0,0.0266,0.0266,1,0,162,154,1,sixfive,,,,,,,,,,,,,,,,,,,,,,,,,,,,,,,,,,,,,,,,,,,,,,,,,,,,,,,,,,,,,,,,,,,,,,,,,,,,,,,,,,,,,,,,,,,,,,,,,,,,,,,,,,,,,,,,,,,,,,,,,,,,,,,,,,,,,,,
,,650309a7aa388e72bb5f3d22,2023-12-07_08h05.36.738,kallum_motion_pilot,2023.2.3,Win32,60.17209218,650309a7aa388e72bb5f3d22,6560176e4d91f764e2a42c74,65716d7385b7c4c7ee00e1a0,0.0267,0.0267,1,1,163,149,1,seveneight,,,,,,,,,,,,,,,,,,,,,,,,,,,,,,,,,,,,,,,,,,,,,,,,,,,,,,,,,,,,,,,,,,,,,,,,,,,,,,,,,,,,,,,,,,,,,,,,,,,,,,,,,,,,,,,,,,,,,,,,,,,,,,,,,,,,,,,
,,650309a7aa388e72bb5f3d22,2023-12-07_08h05.36.738,kallum_motion_pilot,2023.2.3,Win32,60.17209218,650309a7aa388e72bb5f3d22,6560176e4d91f764e2a42c74,65716d7385b7c4c7ee00e1a0,0.0267,0.0267,1,2,164,85,1,seveneight,,,,,,,,,,,,,,,,,,,,,,,,,,,,,,,,,,,,,,,,,,,,,,,,,,,,,,,,,,,,,,,,,,,,,,,,,,,,,,,,,,,,,,,,,,,,,,,,,,,,,,,,,,,,,,,,,,,,,,,,,,,,,,,,,,,,,,,
,,650309a7aa388e72bb5f3d22,2023-12-07_08h05.36.738,kallum_motion_pilot,2023.2.3,Win32,60.17209218,650309a7aa388e72bb5f3d22,6560176e4d91f764e2a42c74,65716d7385b7c4c7ee00e1a0,0.0268,0.0268,1,3,165,53,1,threefour,,,,,,,,,,,,,,,,,,,,,,,,,,,,,,,,,,,,,,,,,,,,,,,,,,,,,,,,,,,,,,,,,,,,,,,,,,,,,,,,,,,,,,,,,,,,,,,,,,,,,,,,,,,,,,,,,,,,,,,,,,,,,,,,,,,,,,,
,,650309a7aa388e72bb5f3d22,2023-12-07_08h05.36.738,kallum_motion_pilot,2023.2.3,Win32,60.17209218,650309a7aa388e72bb5f3d22,6560176e4d91f764e2a42c74,65716d7385b7c4c7ee00e1a0,0.0269,0.027,1,4,166,48,1,onetwo,,,,,,,,,,,,,,,,,,,,,,,,,,,,,,,,,,,,,,,,,,,,,,,,,,,,,,,,,,,,,,,,,,,,,,,,,,,,,,,,,,,,,,,,,,,,,,,,,,,,,,,,,,,,,,,,,,,,,,,,,,,,,,,,,,,,,,,
,,650309a7aa388e72bb5f3d22,2023-12-07_08h05.36.738,kallum_motion_pilot,2023.2.3,Win32,60.17209218,650309a7aa388e72bb5f3d22,6560176e4d91f764e2a42c74,65716d7385b7c4c7ee00e1a0,0.027,0.0271,1,5,167,24,1,onetwo,,,,,,,,,,,,,,,,,,,,,,,,,,,,,,,,,,,,,,,,,,,,,,,,,,,,,,,,,,,,,,,,,,,,,,,,,,,,,,,,,,,,,,,,,,,,,,,,,,,,,,,,,,,,,,,,,,,,,,,,,,,,,,,,,,,,,,,
,,650309a7aa388e72bb5f3d22,2023-12-07_08h05.36.738,kallum_motion_pilot,2023.2.3,Win32,60.17209218,650309a7aa388e72bb5f3d22,6560176e4d91f764e2a42c74,65716d7385b7c4c7ee00e1a0,0.0271,0.0271,1,6,168,133,1,seveneight,,,,,,,,,,,,,,,,,,,,,,,,,,,,,,,,,,,,,,,,,,,,,,,,,,,,,,,,,,,,,,,,,,,,,,,,,,,,,,,,,,,,,,,,,,,,,,,,,,,,,,,,,,,,,,,,,,,,,,,,,,,,,,,,,,,,,,,
,,650309a7aa388e72bb5f3d22,2023-12-07_08h05.36.738,kallum_motion_pilot,2023.2.3,Win32,60.17209218,650309a7aa388e72bb5f3d22,6560176e4d91f764e2a42c74,65716d7385b7c4c7ee00e1a0,0.0272,0.0272,1,7,169,17,1,onethree,,,,,,,,,,,,,,,,,,,,,,,,,,,,,,,,,,,,,,,,,,,,,,,,,,,,,,,,,,,,,,,,,,,,,,,,,,,,,,,,,,,,,,,,,,,,,,,,,,,,,,,,,,,,,,,,,,,,,,,,,,,,,,,,,,,,,,,
,,650309a7aa388e72bb5f3d22,2023-12-07_08h05.36.738,kallum_motion_pilot,2023.2.3,Win32,60.17209218,650309a7aa388e72bb5f3d22,6560176e4d91f764e2a42c74,65716d7385b7c4c7ee00e1a0,0.0273,0.0273,1,8,170,112,1,fivesix,,,,,,,,,,,,,,,,,,,,,,,,,,,,,,,,,,,,,,,,,,,,,,,,,,,,,,,,,,,,,,,,,,,,,,,,,,,,,,,,,,,,,,,,,,,,,,,,,,,,,,,,,,,,,,,,,,,,,,,,,,,,,,,,,,,,,,,
,,650309a7aa388e72bb5f3d22,2023-12-07_08h05.36.738,kallum_motion_pilot,2023.2.3,Win32,60.17209218,650309a7aa388e72bb5f3d22,6560176e4d91f764e2a42c74,65716d7385b7c4c7ee00e1a0,0.0274,0.0274,1,9,171,66,1,twoone,,,,,,,,,,,,,,,,,,,,,,,,,,,,,,,,,,,,,,,,,,,,,,,,,,,,,,,,,,,,,,,,,,,,,,,,,,,,,,,,,,,,,,,,,,,,,,,,,,,,,,,,,,,,,,,,,,,,,,,,,,,,,,,,,,,,,,,
,,650309a7aa388e72bb5f3d22,2023-12-07_08h05.36.738,kallum_motion_pilot,2023.2.3,Win32,60.17209218,650309a7aa388e72bb5f3d22,6560176e4d91f764e2a42c74,65716d7385b7c4c7ee00e1a0,0.0274,0.0275,1,10,172,152,1,fivesix,,,,,,,,,,,,,,,,,,,,,,,,,,,,,,,,,,,,,,,,,,,,,,,,,,,,,,,,,,,,,,,,,,,,,,,,,,,,,,,,,,,,,,,,,,,,,,,,,,,,,,,,,,,,,,,,,,,,,,,,,,,,,,,,,,,,,,,
,,650309a7aa388e72bb5f3d22,2023-12-07_08h05.36.738,kallum_motion_pilot,2023.2.3,Win32,60.17209218,650309a7aa388e72bb5f3d22,6560176e4d91f764e2a42c74,65716d7385b7c4c7ee00e1a0,0.0275,0.0275,1,11,173,121,1,fiveseven,,,,,,,,,,,,,,,,,,,,,,,,,,,,,,,,,,,,,,,,,,,,,,,,,,,,,,,,,,,,,,,,,,,,,,,,,,,,,,,,,,,,,,,,,,,,,,,,,,,,,,,,,,,,,,,,,,,,,,,,,,,,,,,,,,,,,,,
,,650309a7aa388e72bb5f3d22,2023-12-07_08h05.36.738,kallum_motion_pilot,2023.2.3,Win32,60.17209218,650309a7aa388e72bb5f3d22,6560176e4d91f764e2a42c74,65716d7385b7c4c7ee00e1a0,0.0276,0.0276,1,12,174,38,1,fourtwo,,,,,,,,,,,,,,,,,,,,,,,,,,,,,,,,,,,,,,,,,,,,,,,,,,,,,,,,,,,,,,,,,,,,,,,,,,,,,,,,,,,,,,,,,,,,,,,,,,,,,,,,,,,,,,,,,,,,,,,,,,,,,,,,,,,,,,,
,,650309a7aa388e72bb5f3d22,2023-12-07_08h05.36.738,kallum_motion_pilot,2023.2.3,Win32,60.17209218,650309a7aa388e72bb5f3d22,6560176e4d91f764e2a42c74,65716d7385b7c4c7ee00e1a0,0.0277,0.0277,1,13,175,15,1,fourthree,,,,,,,,,,,,,,,,,,,,,,,,,,,,,,,,,,,,,,,,,,,,,,,,,,,,,,,,,,,,,,,,,,,,,,,,,,,,,,,,,,,,,,,,,,,,,,,,,,,,,,,,,,,,,,,,,,,,,,,,,,,,,,,,,,,,,,,
,,650309a7aa388e72bb5f3d22,2023-12-07_08h05.36.738,kallum_motion_pilot,2023.2.3,Win32,60.17209218,650309a7aa388e72bb5f3d22,6560176e4d91f764e2a42c74,65716d7385b7c4c7ee00e1a0,0.0277,0.0278,1,14,176,95,1,eightseven,,,,,,,,,,,,,,,,,,,,,,,,,,,,,,,,,,,,,,,,,,,,,,,,,,,,,,,,,,,,,,,,,,,,,,,,,,,,,,,,,,,,,,,,,,,,,,,,,,,,,,,,,,,,,,,,,,,,,,,,,,,,,,,,,,,,,,,
,,650309a7aa388e72bb5f3d22,2023-12-07_08h05.36.738,kallum_motion_pilot,2023.2.3,Win32,60.17209218,650309a7aa388e72bb5f3d22,6560176e4d91f764e2a42c74,65716d7385b7c4c7ee00e1a0,0.0278,0.0279,1,15,177,31,1,fourthree,,,,,,,,,,,,,,,,,,,,,,,,,,,,,,,,,,,,,,,,,,,,,,,,,,,,,,,,,,,,,,,,,,,,,,,,,,,,,,,,,,,,,,,,,,,,,,,,,,,,,,,,,,,,,,,,,,,,,,,,,,,,,,,,,,,,,,,
,,650309a7aa388e72bb5f3d22,2023-12-07_08h05.36.738,kallum_motion_pilot,2023.2.3,Win32,60.17209218,650309a7aa388e72bb5f3d22,6560176e4d91f764e2a42c74,65716d7385b7c4c7ee00e1a0,0.028,0.028,1,16,178,35,1,twofour,,,,,,,,,,,,,,,,,,,,,,,,,,,,,,,,,,,,,,,,,,,,,,,,,,,,,,,,,,,,,,,,,,,,,,,,,,,,,,,,,,,,,,,,,,,,,,,,,,,,,,,,,,,,,,,,,,,,,,,,,,,,,,,,,,,,,,,
,,650309a7aa388e72bb5f3d22,2023-12-07_08h05.36.738,kallum_motion_pilot,2023.2.3,Win32,60.17209218,650309a7aa388e72bb5f3d22,6560176e4d91f764e2a42c74,65716d7385b7c4c7ee00e1a0,0.028,0.028,1,17,179,16,1,onetwo,,,,,,,,,,,,,,,,,,,,,,,,,,,,,,,,,,,,,,,,,,,,,,,,,,,,,,,,,,,,,,,,,,,,,,,,,,,,,,,,,,,,,,,,,,,,,,,,,,,,,,,,,,,,,,,,,,,,,,,,,,,,,,,,,,,,,,,
,,650309a7aa388e72bb5f3d22,2023-12-07_08h05.36.738,kallum_motion_pilot,2023.2.3,Win32,60.17209218,650309a7aa388e72bb5f3d22,6560176e4d91f764e2a42c74,65716d7385b7c4c7ee00e1a0,0.0281,0.0281,1,18,180,101,1,seveneight,,,,,,,,,,,,,,,,,,,,,,,,,,,,,,,,,,,,,,,,,,,,,,,,,,,,,,,,,,,,,,,,,,,,,,,,,,,,,,,,,,,,,,,,,,,,,,,,,,,,,,,,,,,,,,,,,,,,,,,,,,,,,,,,,,,,,,,
,,650309a7aa388e72bb5f3d22,2023-12-07_08h05.36.738,kallum_motion_pilot,2023.2.3,Win32,60.17209218,650309a7aa388e72bb5f3d22,6560176e4d91f764e2a42c74,65716d7385b7c4c7ee00e1a0,0.0282,0.0283,1,19,181,9,1,onethree,,,,,,,,,,,,,,,,,,,,,,,,,,,,,,,,,,,,,,,,,,,,,,,,,,,,,,,,,,,,,,,,,,,,,,,,,,,,,,,,,,,,,,,,,,,,,,,,,,,,,,,,,,,,,,,,,,,,,,,,,,,,,,,,,,,,,,,
,,650309a7aa388e72bb5f3d22,2023-12-07_08h05.36.738,kallum_motion_pilot,2023.2.3,Win32,60.17209218,650309a7aa388e72bb5f3d22,6560176e4d91f764e2a42c74,65716d7385b7c4c7ee00e1a0,0.0283,0.0284,1,20,182,76,1,threeone,,,,,,,,,,,,,,,,,,,,,,,,,,,,,,,,,,,,,,,,,,,,,,,,,,,,,,,,,,,,,,,,,,,,,,,,,,,,,,,,,,,,,,,,,,,,,,,,,,,,,,,,,,,,,,,,,,,,,,,,,,,,,,,,,,,,,,,
,,650309a7aa388e72bb5f3d22,2023-12-07_08h05.36.738,kallum_motion_pilot,2023.2.3,Win32,60.17209218,650309a7aa388e72bb5f3d22,6560176e4d91f764e2a42c74,65716d7385b7c4c7ee00e1a0,0.0284,0.0284,1,21,183,75,1,twofour,,,,,,,,,,,,,,,,,,,,,,,,,,,,,,,,,,,,,,,,,,,,,,,,,,,,,,,,,,,,,,,,,,,,,,,,,,,,,,,,,,,,,,,,,,,,,,,,,,,,,,,,,,,,,,,,,,,,,,,,,,,,,,,,,,,,,,,
,,650309a7aa388e72bb5f3d22,2023-12-07_08h05.36.738,kallum_motion_pilot,2023.2.3,Win32,60.17209218,650309a7aa388e72bb5f3d22,6560176e4d91f764e2a42c74,65716d7385b7c4c7ee00e1a0,0.0284,0.0286,1,22,184,50,1,twoone,,,,,,,,,,,,,,,,,,,,,,,,,,,,,,,,,,,,,,,,,,,,,,,,,,,,,,,,,,,,,,,,,,,,,,,,,,,,,,,,,,,,,,,,,,,,,,,,,,,,,,,,,,,,,,,,,,,,,,,,,,,,,,,,,,,,,,,
,,650309a7aa388e72bb5f3d22,2023-12-07_08h05.36.738,kallum_motion_pilot,2023.2.3,Win32,60.17209218,650309a7aa388e72bb5f3d22,6560176e4d91f764e2a42c74,65716d7385b7c4c7ee00e1a0,0.0286,0.0286,1,23,185,1,1,onethree,,,,,,,,,,,,,,,,,,,,,,,,,,,,,,,,,,,,,,,,,,,,,,,,,,,,,,,,,,,,,,,,,,,,,,,,,,,,,,,,,,,,,,,,,,,,,,,,,,,,,,,,,,,,,,,,,,,,,,,,,,,,,,,,,,,,,,,
,,650309a7aa388e72bb5f3d22,2023-12-07_08h05.36.738,kallum_motion_pilot,2023.2.3,Win32,60.17209218,650309a7aa388e72bb5f3d22,6560176e4d91f764e2a42c74,65716d7385b7c4c7ee00e1a0,0.0287,0.0288,1,24,186,142,1,eightsix,,,,,,,,,,,,,,,,,,,,,,,,,,,,,,,,,,,,,,,,,,,,,,,,,,,,,,,,,,,,,,,,,,,,,,,,,,,,,,,,,,,,,,,,,,,,,,,,,,,,,,,,,,,,,,,,,,,,,,,,,,,,,,,,,,,,,,,
,,650309a7aa388e72bb5f3d22,2023-12-07_08h05.36.738,kallum_motion_pilot,2023.2.3,Win32,60.17209218,650309a7aa388e72bb5f3d22,6560176e4d91f764e2a42c74,65716d7385b7c4c7ee00e1a0,0.0288,0.0288,1,25,187,113,1,fiveseven,,,,,,,,,,,,,,,,,,,,,,,,,,,,,,,,,,,,,,,,,,,,,,,,,,,,,,,,,,,,,,,,,,,,,,,,,,,,,,,,,,,,,,,,,,,,,,,,,,,,,,,,,,,,,,,,,,,,,,,,,,,,,,,,,,,,,,,
,,650309a7aa388e72bb5f3d22,2023-12-07_08h05.36.738,kallum_motion_pilot,2023.2.3,Win32,60.17209218,650309a7aa388e72bb5f3d22,6560176e4d91f764e2a42c74,65716d7385b7c4c7ee00e1a0,0.0289,0.029,1,26,188,7,1,fourthree,,,,,,,,,,,,,,,,,,,,,,,,,,,,,,,,,,,,,,,,,,,,,,,,,,,,,,,,,,,,,,,,,,,,,,,,,,,,,,,,,,,,,,,,,,,,,,,,,,,,,,,,,,,,,,,,,,,,,,,,,,,,,,,,,,,,,,,
,,650309a7aa388e72bb5f3d22,2023-12-07_08h05.36.738,kallum_motion_pilot,2023.2.3,Win32,60.17209218,650309a7aa388e72bb5f3d22,6560176e4d91f764e2a42c74,65716d7385b7c4c7ee00e1a0,0.029,0.029,1,27,189,11,1,twofour,,,,,,,,,,,,,,,,,,,,,,,,,,,,,,,,,,,,,,,,,,,,,,,,,,,,,,,,,,,,,,,,,,,,,,,,,,,,,,,,,,,,,,,,,,,,,,,,,,,,,,,,,,,,,,,,,,,,,,,,,,,,,,,,,,,,,,,
,,650309a7aa388e72bb5f3d22,2023-12-07_08h05.36.738,kallum_motion_pilot,2023.2.3,Win32,60.17209218,650309a7aa388e72bb5f3d22,6560176e4d91f764e2a42c74,65716d7385b7c4c7ee00e1a0,0.0291,0.0292,1,28,190,26,1,twoone,,,,,,,,,,,,,,,,,,,,,,,,,,,,,,,,,,,,,,,,,,,,,,,,,,,,,,,,,,,,,,,,,,,,,,,,,,,,,,,,,,,,,,,,,,,,,,,,,,,,,,,,,,,,,,,,,,,,,,,,,,,,,,,,,,,,,,,
,,650309a7aa388e72bb5f3d22,2023-12-07_08h05.36.738,kallum_motion_pilot,2023.2.3,Win32,60.17209218,650309a7aa388e72bb5f3d22,6560176e4d91f764e2a42c74,65716d7385b7c4c7ee00e1a0,0.0292,0.0292,1,29,191,42,1,twoone,,,,,,,,,,,,,,,,,,,,,,,,,,,,,,,,,,,,,,,,,,,,,,,,,,,,,,,,,,,,,,,,,,,,,,,,,,,,,,,,,,,,,,,,,,,,,,,,,,,,,,,,,,,,,,,,,,,,,,,,,,,,,,,,,,,,,,,
,,650309a7aa388e72bb5f3d22,2023-12-07_08h05.36.738,kallum_motion_pilot,2023.2.3,Win32,60.17209218,650309a7aa388e72bb5f3d22,6560176e4d91f764e2a42c74,65716d7385b7c4c7ee00e1a0,0.0293,0.0294,1,30,192,4,1,threeone,,,,,,,,,,,,,,,,,,,,,,,,,,,,,,,,,,,,,,,,,,,,,,,,,,,,,,,,,,,,,,,,,,,,,,,,,,,,,,,,,,,,,,,,,,,,,,,,,,,,,,,,,,,,,,,,,,,,,,,,,,,,,,,,,,,,,,,
,,650309a7aa388e72bb5f3d22,2023-12-07_08h05.36.738,kallum_motion_pilot,2023.2.3,Win32,60.17209218,650309a7aa388e72bb5f3d22,6560176e4d91f764e2a42c74,65716d7385b7c4c7ee00e1a0,0.0294,0.0295,1,31,193,62,1,fourtwo,,,,,,,,,,,,,,,,,,,,,,,,,,,,,,,,,,,,,,,,,,,,,,,,,,,,,,,,,,,,,,,,,,,,,,,,,,,,,,,,,,,,,,,,,,,,,,,,,,,,,,,,,,,,,,,,,,,,,,,,,,,,,,,,,,,,,,,
,,650309a7aa388e72bb5f3d22,2023-12-07_08h05.36.738,kallum_motion_pilot,2023.2.3,Win32,60.17209218,650309a7aa388e72bb5f3d22,6560176e4d91f764e2a42c74,65716d7385b7c4c7ee00e1a0,0.0295,0.0296,1,32,194,81,1,fiveseven,,,,,,,,,,,,,,,,,,,,,,,,,,,,,,,,,,,,,,,,,,,,,,,,,,,,,,,,,,,,,,,,,,,,,,,,,,,,,,,,,,,,,,,,,,,,,,,,,,,,,,,,,,,,,,,,,,,,,,,,,,,,,,,,,,,,,,,
,,650309a7aa388e72bb5f3d22,2023-12-07_08h05.36.738,kallum_motion_pilot,2023.2.3,Win32,60.17209218,650309a7aa388e72bb5f3d22,6560176e4d91f764e2a42c74,65716d7385b7c4c7ee00e1a0,0.0296,0.0296,1,33,195,106,1,sixfive,,,,,,,,,,,,,,,,,,,,,,,,,,,,,,,,,,,,,,,,,,,,,,,,,,,,,,,,,,,,,,,,,,,,,,,,,,,,,,,,,,,,,,,,,,,,,,,,,,,,,,,,,,,,,,,,,,,,,,,,,,,,,,,,,,,,,,,
,,650309a7aa388e72bb5f3d22,2023-12-07_08h05.36.738,kallum_motion_pilot,2023.2.3,Win32,60.17209218,650309a7aa388e72bb5f3d22,6560176e4d91f764e2a42c74,65716d7385b7c4c7ee00e1a0,0.0297,0.0297,1,34,196,23,1,fourthree,,,,,,,,,,,,,,,,,,,,,,,,,,,,,,,,,,,,,,,,,,,,,,,,,,,,,,,,,,,,,,,,,,,,,,,,,,,,,,,,,,,,,,,,,,,,,,,,,,,,,,,,,,,,,,,,,,,,,,,,,,,,,,,,,,,,,,,
,,650309a7aa388e72bb5f3d22,2023-12-07_08h05.36.738,kallum_motion_pilot,2023.2.3,Win32,60.17209218,650309a7aa388e72bb5f3d22,6560176e4d91f764e2a42c74,65716d7385b7c4c7ee00e1a0,0.0298,0.0298,1,35,197,78,1,fourtwo,,,,,,,,,,,,,,,,,,,,,,,,,,,,,,,,,,,,,,,,,,,,,,,,,,,,,,,,,,,,,,,,,,,,,,,,,,,,,,,,,,,,,,,,,,,,,,,,,,,,,,,,,,,,,,,,,,,,,,,,,,,,,,,,,,,,,,,
,,650309a7aa388e72bb5f3d22,2023-12-07_08h05.36.738,kallum_motion_pilot,2023.2.3,Win32,60.17209218,650309a7aa388e72bb5f3d22,6560176e4d91f764e2a42c74,65716d7385b7c4c7ee00e1a0,0.0298,0.0299,1,36,198,3,1,twofour,,,,,,,,,,,,,,,,,,,,,,,,,,,,,,,,,,,,,,,,,,,,,,,,,,,,,,,,,,,,,,,,,,,,,,,,,,,,,,,,,,,,,,,,,,,,,,,,,,,,,,,,,,,,,,,,,,,,,,,,,,,,,,,,,,,,,,,
,,650309a7aa388e72bb5f3d22,2023-12-07_08h05.36.738,kallum_motion_pilot,2023.2.3,Win32,60.17209218,650309a7aa388e72bb5f3d22,6560176e4d91f764e2a42c74,65716d7385b7c4c7ee00e1a0,0.0299,0.0299,1,37,199,65,1,onethree,,,,,,,,,,,,,,,,,,,,,,,,,,,,,,,,,,,,,,,,,,,,,,,,,,,,,,,,,,,,,,,,,,,,,,,,,,,,,,,,,,,,,,,,,,,,,,,,,,,,,,,,,,,,,,,,,,,,,,,,,,,,,,,,,,,,,,,
,,650309a7aa388e72bb5f3d22,2023-12-07_08h05.36.738,kallum_motion_pilot,2023.2.3,Win32,60.17209218,650309a7aa388e72bb5f3d22,6560176e4d91f764e2a42c74,65716d7385b7c4c7ee00e1a0,0.0299,0.0299,1,38,200,138,1,sixfive,,,,,,,,,,,,,,,,,,,,,,,,,,,,,,,,,,,,,,,,,,,,,,,,,,,,,,,,,,,,,,,,,,,,,,,,,,,,,,,,,,,,,,,,,,,,,,,,,,,,,,,,,,,,,,,,,,,,,,,,,,,,,,,,,,,,,,,
,,650309a7aa388e72bb5f3d22,2023-12-07_08h05.36.738,kallum_motion_pilot,2023.2.3,Win32,60.17209218,650309a7aa388e72bb5f3d22,6560176e4d91f764e2a42c74,65716d7385b7c4c7ee00e1a0,0.03,0.0301,1,39,201,118,1,eightsix,,,,,,,,,,,,,,,,,,,,,,,,,,,,,,,,,,,,,,,,,,,,,,,,,,,,,,,,,,,,,,,,,,,,,,,,,,,,,,,,,,,,,,,,,,,,,,,,,,,,,,,,,,,,,,,,,,,,,,,,,,,,,,,,,,,,,,,
,,650309a7aa388e72bb5f3d22,2023-12-07_08h05.36.738,kallum_motion_pilot,2023.2.3,Win32,60.17209218,650309a7aa388e72bb5f3d22,6560176e4d91f764e2a42c74,65716d7385b7c4c7ee00e1a0,0.0301,0.0301,1,40,202,6,1,fourtwo,,,,,,,,,,,,,,,,,,,,,,,,,,,,,,,,,,,,,,,,,,,,,,,,,,,,,,,,,,,,,,,,,,,,,,,,,,,,,,,,,,,,,,,,,,,,,,,,,,,,,,,,,,,,,,,,,,,,,,,,,,,,,,,,,,,,,,,
,,650309a7aa388e72bb5f3d22,2023-12-07_08h05.36.738,kallum_motion_pilot,2023.2.3,Win32,60.17209218,650309a7aa388e72bb5f3d22,6560176e4d91f764e2a42c74,65716d7385b7c4c7ee00e1a0,0.0301,0.0302,1,41,203,132,1,sevenfive,,,,,,,,,,,,,,,,,,,,,,,,,,,,,,,,,,,,,,,,,,,,,,,,,,,,,,,,,,,,,,,,,,,,,,,,,,,,,,,,,,,,,,,,,,,,,,,,,,,,,,,,,,,,,,,,,,,,,,,,,,,,,,,,,,,,,,,
,,650309a7aa388e72bb5f3d22,2023-12-07_08h05.36.738,kallum_motion_pilot,2023.2.3,Win32,60.17209218,650309a7aa388e72bb5f3d22,6560176e4d91f764e2a42c74,65716d7385b7c4c7ee00e1a0,0.0302,0.0302,1,42,204,22,1,fourtwo,,,,,,,,,,,,,,,,,,,,,,,,,,,,,,,,,,,,,,,,,,,,,,,,,,,,,,,,,,,,,,,,,,,,,,,,,,,,,,,,,,,,,,,,,,,,,,,,,,,,,,,,,,,,,,,,,,,,,,,,,,,,,,,,,,,,,,,
,,650309a7aa388e72bb5f3d22,2023-12-07_08h05.36.738,kallum_motion_pilot,2023.2.3,Win32,60.17209218,650309a7aa388e72bb5f3d22,6560176e4d91f764e2a42c74,65716d7385b7c4c7ee00e1a0,0.0302,0.0302,1,43,205,55,1,fourthree,,,,,,,,,,,,,,,,,,,,,,,,,,,,,,,,,,,,,,,,,,,,,,,,,,,,,,,,,,,,,,,,,,,,,,,,,,,,,,,,,,,,,,,,,,,,,,,,,,,,,,,,,,,,,,,,,,,,,,,,,,,,,,,,,,,,,,,
,,650309a7aa388e72bb5f3d22,2023-12-07_08h05.36.738,kallum_motion_pilot,2023.2.3,Win32,60.17209218,650309a7aa388e72bb5f3d22,6560176e4d91f764e2a42c74,65716d7385b7c4c7ee00e1a0,0.0303,0.0303,1,44,206,51,1,twofour,,,,,,,,,,,,,,,,,,,,,,,,,,,,,,,,,,,,,,,,,,,,,,,,,,,,,,,,,,,,,,,,,,,,,,,,,,,,,,,,,,,,,,,,,,,,,,,,,,,,,,,,,,,,,,,,,,,,,,,,,,,,,,,,,,,,,,,
,,650309a7aa388e72bb5f3d22,2023-12-07_08h05.36.738,kallum_motion_pilot,2023.2.3,Win32,60.17209218,650309a7aa388e72bb5f3d22,6560176e4d91f764e2a42c74,65716d7385b7c4c7ee00e1a0,0.0303,0.0304,1,45,207,18,1,twoone,,,,,,,,,,,,,,,,,,,,,,,,,,,,,,,,,,,,,,,,,,,,,,,,,,,,,,,,,,,,,,,,,,,,,,,,,,,,,,,,,,,,,,,,,,,,,,,,,,,,,,,,,,,,,,,,,,,,,,,,,,,,,,,,,,,,,,,
,,650309a7aa388e72bb5f3d22,2023-12-07_08h05.36.738,kallum_motion_pilot,2023.2.3,Win32,60.17209218,650309a7aa388e72bb5f3d22,6560176e4d91f764e2a42c74,65716d7385b7c4c7ee00e1a0,0.0304,0.0306,1,46,208,79,1,eightseven,,,,,,,,,,,,,,,,,,,,,,,,,,,,,,,,,,,,,,,,,,,,,,,,,,,,,,,,,,,,,,,,,,,,,,,,,,,,,,,,,,,,,,,,,,,,,,,,,,,,,,,,,,,,,,,,,,,,,,,,,,,,,,,,,,,,,,,
,,650309a7aa388e72bb5f3d22,2023-12-07_08h05.36.738,kallum_motion_pilot,2023.2.3,Win32,60.17209218,650309a7aa388e72bb5f3d22,6560176e4d91f764e2a42c74,65716d7385b7c4c7ee00e1a0,0.0307,0.0307,1,47,209,69,1,threefour,,,,,,,,,,,,,,,,,,,,,,,,,,,,,,,,,,,,,,,,,,,,,,,,,,,,,,,,,,,,,,,,,,,,,,,,,,,,,,,,,,,,,,,,,,,,,,,,,,,,,,,,,,,,,,,,,,,,,,,,,,,,,,,,,,,,,,,
,,650309a7aa388e72bb5f3d22,2023-12-07_08h05.36.738,kallum_motion_pilot,2023.2.3,Win32,60.17209218,650309a7aa388e72bb5f3d22,6560176e4d91f764e2a42c74,65716d7385b7c4c7ee00e1a0,0.0307,0.0307,1,48,210,60,1,threeone,,,,,,,,,,,,,,,,,,,,,,,,,,,,,,,,,,,,,,,,,,,,,,,,,,,,,,,,,,,,,,,,,,,,,,,,,,,,,,,,,,,,,,,,,,,,,,,,,,,,,,,,,,,,,,,,,,,,,,,,,,,,,,,,,,,,,,,
,,650309a7aa388e72bb5f3d22,2023-12-07_08h05.36.738,kallum_motion_pilot,2023.2.3,Win32,60.17209218,650309a7aa388e72bb5f3d22,6560176e4d91f764e2a42c74,65716d7385b7c4c7ee00e1a0,0.0308,0.0308,1,49,211,99,1,sixeight,,,,,,,,,,,,,,,,,,,,,,,,,,,,,,,,,,,,,,,,,,,,,,,,,,,,,,,,,,,,,,,,,,,,,,,,,,,,,,,,,,,,,,,,,,,,,,,,,,,,,,,,,,,,,,,,,,,,,,,,,,,,,,,,,,,,,,,
,,650309a7aa388e72bb5f3d22,2023-12-07_08h05.36.738,kallum_motion_pilot,2023.2.3,Win32,60.17209218,650309a7aa388e72bb5f3d22,6560176e4d91f764e2a42c74,65716d7385b7c4c7ee00e1a0,0.0309,0.0309,1,50,212,10,1,twoone,,,,,,,,,,,,,,,,,,,,,,,,,,,,,,,,,,,,,,,,,,,,,,,,,,,,,,,,,,,,,,,,,,,,,,,,,,,,,,,,,,,,,,,,,,,,,,,,,,,,,,,,,,,,,,,,,,,,,,,,,,,,,,,,,,,,,,,
,,650309a7aa388e72bb5f3d22,2023-12-07_08h05.36.738,kallum_motion_pilot,2023.2.3,Win32,60.17209218,650309a7aa388e72bb5f3d22,6560176e4d91f764e2a42c74,65716d7385b7c4c7ee00e1a0,0.0309,0.031,1,51,213,145,1,fiveseven,,,,,,,,,,,,,,,,,,,,,,,,,,,,,,,,,,,,,,,,,,,,,,,,,,,,,,,,,,,,,,,,,,,,,,,,,,,,,,,,,,,,,,,,,,,,,,,,,,,,,,,,,,,,,,,,,,,,,,,,,,,,,,,,,,,,,,,
,,650309a7aa388e72bb5f3d22,2023-12-07_08h05.36.738,kallum_motion_pilot,2023.2.3,Win32,60.17209218,650309a7aa388e72bb5f3d22,6560176e4d91f764e2a42c74,65716d7385b7c4c7ee00e1a0,0.031,0.031,1,52,214,29,1,threefour,,,,,,,,,,,,,,,,,,,,,,,,,,,,,,,,,,,,,,,,,,,,,,,,,,,,,,,,,,,,,,,,,,,,,,,,,,,,,,,,,,,,,,,,,,,,,,,,,,,,,,,,,,,,,,,,,,,,,,,,,,,,,,,,,,,,,,,
,,650309a7aa388e72bb5f3d22,2023-12-07_08h05.36.738,kallum_motion_pilot,2023.2.3,Win32,60.17209218,650309a7aa388e72bb5f3d22,6560176e4d91f764e2a42c74,65716d7385b7c4c7ee00e1a0,0.0311,0.0311,1,53,215,143,1,eightseven,,,,,,,,,,,,,,,,,,,,,,,,,,,,,,,,,,,,,,,,,,,,,,,,,,,,,,,,,,,,,,,,,,,,,,,,,,,,,,,,,,,,,,,,,,,,,,,,,,,,,,,,,,,,,,,,,,,,,,,,,,,,,,,,,,,,,,,
,,650309a7aa388e72bb5f3d22,2023-12-07_08h05.36.738,kallum_motion_pilot,2023.2.3,Win32,60.17209218,650309a7aa388e72bb5f3d22,6560176e4d91f764e2a42c74,65716d7385b7c4c7ee00e1a0,0.0311,0.0312,1,54,216,161,1,fiveseven,,,,,,,,,,,,,,,,,,,,,,,,,,,,,,,,,,,,,,,,,,,,,,,,,,,,,,,,,,,,,,,,,,,,,,,,,,,,,,,,,,,,,,,,,,,,,,,,,,,,,,,,,,,,,,,,,,,,,,,,,,,,,,,,,,,,,,,
,,650309a7aa388e72bb5f3d22,2023-12-07_08h05.36.738,kallum_motion_pilot,2023.2.3,Win32,60.17209218,650309a7aa388e72bb5f3d22,6560176e4d91f764e2a42c74,65716d7385b7c4c7ee00e1a0,0.0312,0.0312,1,55,217,130,1,sixfive,,,,,,,,,,,,,,,,,,,,,,,,,,,,,,,,,,,,,,,,,,,,,,,,,,,,,,,,,,,,,,,,,,,,,,,,,,,,,,,,,,,,,,,,,,,,,,,,,,,,,,,,,,,,,,,,,,,,,,,,,,,,,,,,,,,,,,,
,,650309a7aa388e72bb5f3d22,2023-12-07_08h05.36.738,kallum_motion_pilot,2023.2.3,Win32,60.17209218,650309a7aa388e72bb5f3d22,6560176e4d91f764e2a42c74,65716d7385b7c4c7ee00e1a0,0.0313,0.0314,1,56,218,52,1,threeone,,,,,,,,,,,,,,,,,,,,,,,,,,,,,,,,,,,,,,,,,,,,,,,,,,,,,,,,,,,,,,,,,,,,,,,,,,,,,,,,,,,,,,,,,,,,,,,,,,,,,,,,,,,,,,,,,,,,,,,,,,,,,,,,,,,,,,,
,,650309a7aa388e72bb5f3d22,2023-12-07_08h05.36.738,kallum_motion_pilot,2023.2.3,Win32,60.17209218,650309a7aa388e72bb5f3d22,6560176e4d91f764e2a42c74,65716d7385b7c4c7ee00e1a0,0.0314,0.0314,1,57,219,40,1,onetwo,,,,,,,,,,,,,,,,,,,,,,,,,,,,,,,,,,,,,,,,,,,,,,,,,,,,,,,,,,,,,,,,,,,,,,,,,,,,,,,,,,,,,,,,,,,,,,,,,,,,,,,,,,,,,,,,,,,,,,,,,,,,,,,,,,,,,,,
,,650309a7aa388e72bb5f3d22,2023-12-07_08h05.36.738,kallum_motion_pilot,2023.2.3,Win32,60.17209218,650309a7aa388e72bb5f3d22,6560176e4d91f764e2a42c74,65716d7385b7c4c7ee00e1a0,0.0315,0.0315,1,58,220,122,1,sixfive,,,,,,,,,,,,,,,,,,,,,,,,,,,,,,,,,,,,,,,,,,,,,,,,,,,,,,,,,,,,,,,,,,,,,,,,,,,,,,,,,,,,,,,,,,,,,,,,,,,,,,,,,,,,,,,,,,,,,,,,,,,,,,,,,,,,,,,
,,650309a7aa388e72bb5f3d22,2023-12-07_08h05.36.738,kallum_motion_pilot,2023.2.3,Win32,60.17209218,650309a7aa388e72bb5f3d22,6560176e4d91f764e2a42c74,65716d7385b7c4c7ee00e1a0,0.0315,0.0316,1,59,221,27,1,twofour,,,,,,,,,,,,,,,,,,,,,,,,,,,,,,,,,,,,,,,,,,,,,,,,,,,,,,,,,,,,,,,,,,,,,,,,,,,,,,,,,,,,,,,,,,,,,,,,,,,,,,,,,,,,,,,,,,,,,,,,,,,,,,,,,,,,,,,
,,650309a7aa388e72bb5f3d22,2023-12-07_08h05.36.738,kallum_motion_pilot,2023.2.3,Win32,60.17209218,650309a7aa388e72bb5f3d22,6560176e4d91f764e2a42c74,65716d7385b7c4c7ee00e1a0,0.0316,0.0317,1,60,222,103,1,eightseven,,,,,,,,,,,,,,,,,,,,,,,,,,,,,,,,,,,,,,,,,,,,,,,,,,,,,,,,,,,,,,,,,,,,,,,,,,,,,,,,,,,,,,,,,,,,,,,,,,,,,,,,,,,,,,,,,,,,,,,,,,,,,,,,,,,,,,,
,,650309a7aa388e72bb5f3d22,2023-12-07_08h05.36.738,kallum_motion_pilot,2023.2.3,Win32,60.17209218,650309a7aa388e72bb5f3d22,6560176e4d91f764e2a42c74,65716d7385b7c4c7ee00e1a0,0.0318,0.0318,1,61,223,8,1,onetwo,,,,,,,,,,,,,,,,,,,,,,,,,,,,,,,,,,,,,,,,,,,,,,,,,,,,,,,,,,,,,,,,,,,,,,,,,,,,,,,,,,,,,,,,,,,,,,,,,,,,,,,,,,,,,,,,,,,,,,,,,,,,,,,,,,,,,,,
,,650309a7aa388e72bb5f3d22,2023-12-07_08h05.36.738,kallum_motion_pilot,2023.2.3,Win32,60.17209218,650309a7aa388e72bb5f3d22,6560176e4d91f764e2a42c74,65716d7385b7c4c7ee00e1a0,0.0318,0.0318,1,62,224,0,1,onetwo,,,,,,,,,,,,,,,,,,,,,,,,,,,,,,,,,,,,,,,,,,,,,,,,,,,,,,,,,,,,,,,,,,,,,,,,,,,,,,,,,,,,,,,,,,,,,,,,,,,,,,,,,,,,,,,,,,,,,,,,,,,,,,,,,,,,,,,
,,650309a7aa388e72bb5f3d22,2023-12-07_08h05.36.738,kallum_motion_pilot,2023.2.3,Win32,60.17209218,650309a7aa388e72bb5f3d22,6560176e4d91f764e2a42c74,65716d7385b7c4c7ee00e1a0,0.0319,0.032,1,63,225,147,1,sixeight,,,,,,,,,,,,,,,,,,,,,,,,,,,,,,,,,,,,,,,,,,,,,,,,,,,,,,,,,,,,,,,,,,,,,,,,,,,,,,,,,,,,,,,,,,,,,,,,,,,,,,,,,,,,,,,,,,,,,,,,,,,,,,,,,,,,,,,
,,650309a7aa388e72bb5f3d22,2023-12-07_08h05.36.738,kallum_motion_pilot,2023.2.3,Win32,60.17209218,650309a7aa388e72bb5f3d22,6560176e4d91f764e2a42c74,65716d7385b7c4c7ee00e1a0,0.032,0.032,1,64,226,30,1,fourtwo,,,,,,,,,,,,,,,,,,,,,,,,,,,,,,,,,,,,,,,,,,,,,,,,,,,,,,,,,,,,,,,,,,,,,,,,,,,,,,,,,,,,,,,,,,,,,,,,,,,,,,,,,,,,,,,,,,,,,,,,,,,,,,,,,,,,,,,
,,650309a7aa388e72bb5f3d22,2023-12-07_08h05.36.738,kallum_motion_pilot,2023.2.3,Win32,60.17209218,650309a7aa388e72bb5f3d22,6560176e4d91f764e2a42c74,65716d7385b7c4c7ee00e1a0,0.0321,0.0321,1,65,227,109,1,seveneight,,,,,,,,,,,,,,,,,,,,,,,,,,,,,,,,,,,,,,,,,,,,,,,,,,,,,,,,,,,,,,,,,,,,,,,,,,,,,,,,,,,,,,,,,,,,,,,,,,,,,,,,,,,,,,,,,,,,,,,,,,,,,,,,,,,,,,,
,,650309a7aa388e72bb5f3d22,2023-12-07_08h05.36.738,kallum_motion_pilot,2023.2.3,Win32,60.17209218,650309a7aa388e72bb5f3d22,6560176e4d91f764e2a42c74,65716d7385b7c4c7ee00e1a0,0.0322,0.0322,1,66,228,34,1,twoone,,,,,,,,,,,,,,,,,,,,,,,,,,,,,,,,,,,,,,,,,,,,,,,,,,,,,,,,,,,,,,,,,,,,,,,,,,,,,,,,,,,,,,,,,,,,,,,,,,,,,,,,,,,,,,,,,,,,,,,,,,,,,,,,,,,,,,,
,,650309a7aa388e72bb5f3d22,2023-12-07_08h05.36.738,kallum_motion_pilot,2023.2.3,Win32,60.17209218,650309a7aa388e72bb5f3d22,6560176e4d91f764e2a42c74,65716d7385b7c4c7ee00e1a0,0.0322,0.0322,1,67,229,129,1,fiveseven,,,,,,,,,,,,,,,,,,,,,,,,,,,,,,,,,,,,,,,,,,,,,,,,,,,,,,,,,,,,,,,,,,,,,,,,,,,,,,,,,,,,,,,,,,,,,,,,,,,,,,,,,,,,,,,,,,,,,,,,,,,,,,,,,,,,,,,
,,650309a7aa388e72bb5f3d22,2023-12-07_08h05.36.738,kallum_motion_pilot,2023.2.3,Win32,60.17209218,650309a7aa388e72bb5f3d22,6560176e4d91f764e2a42c74,65716d7385b7c4c7ee00e1a0,0.0322,0.0322,1,68,230,156,1,sevenfive,,,,,,,,,,,,,,,,,,,,,,,,,,,,,,,,,,,,,,,,,,,,,,,,,,,,,,,,,,,,,,,,,,,,,,,,,,,,,,,,,,,,,,,,,,,,,,,,,,,,,,,,,,,,,,,,,,,,,,,,,,,,,,,,,,,,,,,
,,650309a7aa388e72bb5f3d22,2023-12-07_08h05.36.738,kallum_motion_pilot,2023.2.3,Win32,60.17209218,650309a7aa388e72bb5f3d22,6560176e4d91f764e2a42c74,65716d7385b7c4c7ee00e1a0,0.0324,0.0324,1,69,231,116,1,sevenfive,,,,,,,,,,,,,,,,,,,,,,,,,,,,,,,,,,,,,,,,,,,,,,,,,,,,,,,,,,,,,,,,,,,,,,,,,,,,,,,,,,,,,,,,,,,,,,,,,,,,,,,,,,,,,,,,,,,,,,,,,,,,,,,,,,,,,,,
,,650309a7aa388e72bb5f3d22,2023-12-07_08h05.36.738,kallum_motion_pilot,2023.2.3,Win32,60.17209218,650309a7aa388e72bb5f3d22,6560176e4d91f764e2a42c74,65716d7385b7c4c7ee00e1a0,0.0324,0.0324,1,70,232,49,1,onethree,,,,,,,,,,,,,,,,,,,,,,,,,,,,,,,,,,,,,,,,,,,,,,,,,,,,,,,,,,,,,,,,,,,,,,,,,,,,,,,,,,,,,,,,,,,,,,,,,,,,,,,,,,,,,,,,,,,,,,,,,,,,,,,,,,,,,,,
,,650309a7aa388e72bb5f3d22,2023-12-07_08h05.36.738,kallum_motion_pilot,2023.2.3,Win32,60.17209218,650309a7aa388e72bb5f3d22,6560176e4d91f764e2a42c74,65716d7385b7c4c7ee00e1a0,0.0325,0.0325,1,71,233,82,1,sixfive,,,,,,,,,,,,,,,,,,,,,,,,,,,,,,,,,,,,,,,,,,,,,,,,,,,,,,,,,,,,,,,,,,,,,,,,,,,,,,,,,,,,,,,,,,,,,,,,,,,,,,,,,,,,,,,,,,,,,,,,,,,,,,,,,,,,,,,
,,650309a7aa388e72bb5f3d22,2023-12-07_08h05.36.738,kallum_motion_pilot,2023.2.3,Win32,60.17209218,650309a7aa388e72bb5f3d22,6560176e4d91f764e2a42c74,65716d7385b7c4c7ee00e1a0,0.0325,0.0325,1,72,234,5,1,threefour,,,,,,,,,,,,,,,,,,,,,,,,,,,,,,,,,,,,,,,,,,,,,,,,,,,,,,,,,,,,,,,,,,,,,,,,,,,,,,,,,,,,,,,,,,,,,,,,,,,,,,,,,,,,,,,,,,,,,,,,,,,,,,,,,,,,,,,
,,650309a7aa388e72bb5f3d22,2023-12-07_08h05.36.738,kallum_motion_pilot,2023.2.3,Win32,60.17209218,650309a7aa388e72bb5f3d22,6560176e4d91f764e2a42c74,65716d7385b7c4c7ee00e1a0,0.0326,0.0326,1,73,235,20,1,threeone,,,,,,,,,,,,,,,,,,,,,,,,,,,,,,,,,,,,,,,,,,,,,,,,,,,,,,,,,,,,,,,,,,,,,,,,,,,,,,,,,,,,,,,,,,,,,,,,,,,,,,,,,,,,,,,,,,,,,,,,,,,,,,,,,,,,,,,
,,650309a7aa388e72bb5f3d22,2023-12-07_08h05.36.738,kallum_motion_pilot,2023.2.3,Win32,60.17209218,650309a7aa388e72bb5f3d22,6560176e4d91f764e2a42c74,65716d7385b7c4c7ee00e1a0,0.0327,0.0327,1,74,236,139,1,sixeight,,,,,,,,,,,,,,,,,,,,,,,,,,,,,,,,,,,,,,,,,,,,,,,,,,,,,,,,,,,,,,,,,,,,,,,,,,,,,,,,,,,,,,,,,,,,,,,,,,,,,,,,,,,,,,,,,,,,,,,,,,,,,,,,,,,,,,,
,,650309a7aa388e72bb5f3d22,2023-12-07_08h05.36.738,kallum_motion_pilot,2023.2.3,Win32,60.17209218,650309a7aa388e72bb5f3d22,6560176e4d91f764e2a42c74,65716d7385b7c4c7ee00e1a0,0.0328,0.0328,1,75,237,125,1,seveneight,,,,,,,,,,,,,,,,,,,,,,,,,,,,,,,,,,,,,,,,,,,,,,,,,,,,,,,,,,,,,,,,,,,,,,,,,,,,,,,,,,,,,,,,,,,,,,,,,,,,,,,,,,,,,,,,,,,,,,,,,,,,,,,,,,,,,,,
,,650309a7aa388e72bb5f3d22,2023-12-07_08h05.36.738,kallum_motion_pilot,2023.2.3,Win32,60.17209218,650309a7aa388e72bb5f3d22,6560176e4d91f764e2a42c74,65716d7385b7c4c7ee00e1a0,0.0328,0.0328,1,76,238,84,1,sevenfive,,,,,,,,,,,,,,,,,,,,,,,,,,,,,,,,,,,,,,,,,,,,,,,,,,,,,,,,,,,,,,,,,,,,,,,,,,,,,,,,,,,,,,,,,,,,,,,,,,,,,,,,,,,,,,,,,,,,,,,,,,,,,,,,,,,,,,,
,,650309a7aa388e72bb5f3d22,2023-12-07_08h05.36.738,kallum_motion_pilot,2023.2.3,Win32,60.17209218,650309a7aa388e72bb5f3d22,6560176e4d91f764e2a42c74,65716d7385b7c4c7ee00e1a0,0.0328,0.0329,1,77,239,54,1,fourtwo,,,,,,,,,,,,,,,,,,,,,,,,,,,,,,,,,,,,,,,,,,,,,,,,,,,,,,,,,,,,,,,,,,,,,,,,,,,,,,,,,,,,,,,,,,,,,,,,,,,,,,,,,,,,,,,,,,,,,,,,,,,,,,,,,,,,,,,
,,650309a7aa388e72bb5f3d22,2023-12-07_08h05.36.738,kallum_motion_pilot,2023.2.3,Win32,60.17209218,650309a7aa388e72bb5f3d22,6560176e4d91f764e2a42c74,65716d7385b7c4c7ee00e1a0,0.0329,0.033,1,78,240,102,1,eightsix,,,,,,,,,,,,,,,,,,,,,,,,,,,,,,,,,,,,,,,,,,,,,,,,,,,,,,,,,,,,,,,,,,,,,,,,,,,,,,,,,,,,,,,,,,,,,,,,,,,,,,,,,,,,,,,,,,,,,,,,,,,,,,,,,,,,,,,
,,650309a7aa388e72bb5f3d22,2023-12-07_08h05.36.738,kallum_motion_pilot,2023.2.3,Win32,60.17209218,650309a7aa388e72bb5f3d22,6560176e4d91f764e2a42c74,65716d7385b7c4c7ee00e1a0,0.033,0.033,1,79,241,72,1,onetwo,,,,,,,,,,,,,,,,,,,,,,,,,,,,,,,,,,,,,,,,,,,,,,,,,,,,,,,,,,,,,,,,,,,,,,,,,,,,,,,,,,,,,,,,,,,,,,,,,,,,,,,,,,,,,,,,,,,,,,,,,,,,,,,,,,,,,,,
,,650309a7aa388e72bb5f3d22,2023-12-07_08h05.36.738,kallum_motion_pilot,2023.2.3,Win32,60.17209218,650309a7aa388e72bb5f3d22,6560176e4d91f764e2a42c74,65716d7385b7c4c7ee00e1a0,0.0331,0.0331,1,80,242,148,1,sevenfive,,,,,,,,,,,,,,,,,,,,,,,,,,,,,,,,,,,,,,,,,,,,,,,,,,,,,,,,,,,,,,,,,,,,,,,,,,,,,,,,,,,,,,,,,,,,,,,,,,,,,,,,,,,,,,,,,,,,,,,,,,,,,,,,,,,,,,,
,,650309a7aa388e72bb5f3d22,2023-12-07_08h05.36.738,kallum_motion_pilot,2023.2.3,Win32,60.17209218,650309a7aa388e72bb5f3d22,6560176e4d91f764e2a42c74,65716d7385b7c4c7ee00e1a0,0.0332,0.0332,1,81,243,94,1,eightsix,,,,,,,,,,,,,,,,,,,,,,,,,,,,,,,,,,,,,,,,,,,,,,,,,,,,,,,,,,,,,,,,,,,,,,,,,,,,,,,,,,,,,,,,,,,,,,,,,,,,,,,,,,,,,,,,,,,,,,,,,,,,,,,,,,,,,,,
,,650309a7aa388e72bb5f3d22,2023-12-07_08h05.36.738,kallum_motion_pilot,2023.2.3,Win32,60.17209218,650309a7aa388e72bb5f3d22,6560176e4d91f764e2a42c74,65716d7385b7c4c7ee00e1a0,0.0333,0.0333,1,82,244,151,1,eightseven,,,,,,,,,,,,,,,,,,,,,,,,,,,,,,,,,,,,,,,,,,,,,,,,,,,,,,,,,,,,,,,,,,,,,,,,,,,,,,,,,,,,,,,,,,,,,,,,,,,,,,,,,,,,,,,,,,,,,,,,,,,,,,,,,,,,,,,
,,650309a7aa388e72bb5f3d22,2023-12-07_08h05.36.738,kallum_motion_pilot,2023.2.3,Win32,60.17209218,650309a7aa388e72bb5f3d22,6560176e4d91f764e2a42c74,65716d7385b7c4c7ee00e1a0,0.0333,0.0333,1,83,245,25,1,onethree,,,,,,,,,,,,,,,,,,,,,,,,,,,,,,,,,,,,,,,,,,,,,,,,,,,,,,,,,,,,,,,,,,,,,,,,,,,,,,,,,,,,,,,,,,,,,,,,,,,,,,,,,,,,,,,,,,,,,,,,,,,,,,,,,,,,,,,
,,650309a7aa388e72bb5f3d22,2023-12-07_08h05.36.738,kallum_motion_pilot,2023.2.3,Win32,60.17209218,650309a7aa388e72bb5f3d22,6560176e4d91f764e2a42c74,65716d7385b7c4c7ee00e1a0,0.0333,0.0334,1,84,246,127,1,eightseven,,,,,,,,,,,,,,,,,,,,,,,,,,,,,,,,,,,,,,,,,,,,,,,,,,,,,,,,,,,,,,,,,,,,,,,,,,,,,,,,,,,,,,,,,,,,,,,,,,,,,,,,,,,,,,,,,,,,,,,,,,,,,,,,,,,,,,,
,,650309a7aa388e72bb5f3d22,2023-12-07_08h05.36.738,kallum_motion_pilot,2023.2.3,Win32,60.17209218,650309a7aa388e72bb5f3d22,6560176e4d91f764e2a42c74,65716d7385b7c4c7ee00e1a0,0.0334,0.0335,1,85,247,86,1,eightsix,,,,,,,,,,,,,,,,,,,,,,,,,,,,,,,,,,,,,,,,,,,,,,,,,,,,,,,,,,,,,,,,,,,,,,,,,,,,,,,,,,,,,,,,,,,,,,,,,,,,,,,,,,,,,,,,,,,,,,,,,,,,,,,,,,,,,,,
,,650309a7aa388e72bb5f3d22,2023-12-07_08h05.36.738,kallum_motion_pilot,2023.2.3,Win32,60.17209218,650309a7aa388e72bb5f3d22,6560176e4d91f764e2a42c74,65716d7385b7c4c7ee00e1a0,0.0335,0.0335,1,86,248,87,1,eightseven,,,,,,,,,,,,,,,,,,,,,,,,,,,,,,,,,,,,,,,,,,,,,,,,,,,,,,,,,,,,,,,,,,,,,,,,,,,,,,,,,,,,,,,,,,,,,,,,,,,,,,,,,,,,,,,,,,,,,,,,,,,,,,,,,,,,,,,
,,650309a7aa388e72bb5f3d22,2023-12-07_08h05.36.738,kallum_motion_pilot,2023.2.3,Win32,60.17209218,650309a7aa388e72bb5f3d22,6560176e4d91f764e2a42c74,65716d7385b7c4c7ee00e1a0,0.0336,0.0336,1,87,249,68,1,threeone,,,,,,,,,,,,,,,,,,,,,,,,,,,,,,,,,,,,,,,,,,,,,,,,,,,,,,,,,,,,,,,,,,,,,,,,,,,,,,,,,,,,,,,,,,,,,,,,,,,,,,,,,,,,,,,,,,,,,,,,,,,,,,,,,,,,,,,
,,650309a7aa388e72bb5f3d22,2023-12-07_08h05.36.738,kallum_motion_pilot,2023.2.3,Win32,60.17209218,650309a7aa388e72bb5f3d22,6560176e4d91f764e2a42c74,65716d7385b7c4c7ee00e1a0,0.0337,0.0337,1,88,250,71,1,fourthree,,,,,,,,,,,,,,,,,,,,,,,,,,,,,,,,,,,,,,,,,,,,,,,,,,,,,,,,,,,,,,,,,,,,,,,,,,,,,,,,,,,,,,,,,,,,,,,,,,,,,,,,,,,,,,,,,,,,,,,,,,,,,,,,,,,,,,,
,,650309a7aa388e72bb5f3d22,2023-12-07_08h05.36.738,kallum_motion_pilot,2023.2.3,Win32,60.17209218,650309a7aa388e72bb5f3d22,6560176e4d91f764e2a42c74,65716d7385b7c4c7ee00e1a0,0.0337,0.0338,1,89,251,115,1,sixeight,,,,,,,,,,,,,,,,,,,,,,,,,,,,,,,,,,,,,,,,,,,,,,,,,,,,,,,,,,,,,,,,,,,,,,,,,,,,,,,,,,,,,,,,,,,,,,,,,,,,,,,,,,,,,,,,,,,,,,,,,,,,,,,,,,,,,,,
,,650309a7aa388e72bb5f3d22,2023-12-07_08h05.36.738,kallum_motion_pilot,2023.2.3,Win32,60.17209218,650309a7aa388e72bb5f3d22,6560176e4d91f764e2a42c74,65716d7385b7c4c7ee00e1a0,0.0338,0.0338,1,90,252,128,1,fivesix,,,,,,,,,,,,,,,,,,,,,,,,,,,,,,,,,,,,,,,,,,,,,,,,,,,,,,,,,,,,,,,,,,,,,,,,,,,,,,,,,,,,,,,,,,,,,,,,,,,,,,,,,,,,,,,,,,,,,,,,,,,,,,,,,,,,,,,
,,650309a7aa388e72bb5f3d22,2023-12-07_08h05.36.738,kallum_motion_pilot,2023.2.3,Win32,60.17209218,650309a7aa388e72bb5f3d22,6560176e4d91f764e2a42c74,65716d7385b7c4c7ee00e1a0,0.0338,0.0339,1,91,253,150,1,eightsix,,,,,,,,,,,,,,,,,,,,,,,,,,,,,,,,,,,,,,,,,,,,,,,,,,,,,,,,,,,,,,,,,,,,,,,,,,,,,,,,,,,,,,,,,,,,,,,,,,,,,,,,,,,,,,,,,,,,,,,,,,,,,,,,,,,,,,,
,,650309a7aa388e72bb5f3d22,2023-12-07_08h05.36.738,kallum_motion_pilot,2023.2.3,Win32,60.17209218,650309a7aa388e72bb5f3d22,6560176e4d91f764e2a42c74,65716d7385b7c4c7ee00e1a0,0.034,0.034,1,92,254,123,1,sixeight,,,,,,,,,,,,,,,,,,,,,,,,,,,,,,,,,,,,,,,,,,,,,,,,,,,,,,,,,,,,,,,,,,,,,,,,,,,,,,,,,,,,,,,,,,,,,,,,,,,,,,,,,,,,,,,,,,,,,,,,,,,,,,,,,,,,,,,
,,650309a7aa388e72bb5f3d22,2023-12-07_08h05.36.738,kallum_motion_pilot,2023.2.3,Win32,60.17209218,650309a7aa388e72bb5f3d22,6560176e4d91f764e2a42c74,65716d7385b7c4c7ee00e1a0,0.034,0.0341,1,93,255,144,1,fivesix,,,,,,,,,,,,,,,,,,,,,,,,,,,,,,,,,,,,,,,,,,,,,,,,,,,,,,,,,,,,,,,,,,,,,,,,,,,,,,,,,,,,,,,,,,,,,,,,,,,,,,,,,,,,,,,,,,,,,,,,,,,,,,,,,,,,,,,
,,650309a7aa388e72bb5f3d22,2023-12-07_08h05.36.738,kallum_motion_pilot,2023.2.3,Win32,60.17209218,650309a7aa388e72bb5f3d22,6560176e4d91f764e2a42c74,65716d7385b7c4c7ee00e1a0,0.0341,0.0341,1,94,256,19,1,twofour,,,,,,,,,,,,,,,,,,,,,,,,,,,,,,,,,,,,,,,,,,,,,,,,,,,,,,,,,,,,,,,,,,,,,,,,,,,,,,,,,,,,,,,,,,,,,,,,,,,,,,,,,,,,,,,,,,,,,,,,,,,,,,,,,,,,,,,
,,650309a7aa388e72bb5f3d22,2023-12-07_08h05.36.738,kallum_motion_pilot,2023.2.3,Win32,60.17209218,650309a7aa388e72bb5f3d22,6560176e4d91f764e2a42c74,65716d7385b7c4c7ee00e1a0,0.0342,0.0342,1,95,257,157,1,seveneight,,,,,,,,,,,,,,,,,,,,,,,,,,,,,,,,,,,,,,,,,,,,,,,,,,,,,,,,,,,,,,,,,,,,,,,,,,,,,,,,,,,,,,,,,,,,,,,,,,,,,,,,,,,,,,,,,,,,,,,,,,,,,,,,,,,,,,,
,,650309a7aa388e72bb5f3d22,2023-12-07_08h05.36.738,kallum_motion_pilot,2023.2.3,Win32,60.17209218,650309a7aa388e72bb5f3d22,6560176e4d91f764e2a42c74,65716d7385b7c4c7ee00e1a0,0.0342,0.0343,1,96,258,98,1,sixfive,,,,,,,,,,,,,,,,,,,,,,,,,,,,,,,,,,,,,,,,,,,,,,,,,,,,,,,,,,,,,,,,,,,,,,,,,,,,,,,,,,,,,,,,,,,,,,,,,,,,,,,,,,,,,,,,,,,,,,,,,,,,,,,,,,,,,,,
,,650309a7aa388e72bb5f3d22,2023-12-07_08h05.36.738,kallum_motion_pilot,2023.2.3,Win32,60.17209218,650309a7aa388e72bb5f3d22,6560176e4d91f764e2a42c74,65716d7385b7c4c7ee00e1a0,0.0343,0.0344,1,97,259,137,1,fiveseven,,,,,,,,,,,,,,,,,,,,,,,,,,,,,,,,,,,,,,,,,,,,,,,,,,,,,,,,,,,,,,,,,,,,,,,,,,,,,,,,,,,,,,,,,,,,,,,,,,,,,,,,,,,,,,,,,,,,,,,,,,,,,,,,,,,,,,,
,,650309a7aa388e72bb5f3d22,2023-12-07_08h05.36.738,kallum_motion_pilot,2023.2.3,Win32,60.17209218,650309a7aa388e72bb5f3d22,6560176e4d91f764e2a42c74,65716d7385b7c4c7ee00e1a0,0.0344,0.0345,1,98,260,100,1,sevenfive,,,,,,,,,,,,,,,,,,,,,,,,,,,,,,,,,,,,,,,,,,,,,,,,,,,,,,,,,,,,,,,,,,,,,,,,,,,,,,,,,,,,,,,,,,,,,,,,,,,,,,,,,,,,,,,,,,,,,,,,,,,,,,,,,,,,,,,
,,650309a7aa388e72bb5f3d22,2023-12-07_08h05.36.738,kallum_motion_pilot,2023.2.3,Win32,60.17209218,650309a7aa388e72bb5f3d22,6560176e4d91f764e2a42c74,65716d7385b7c4c7ee00e1a0,0.0345,0.0346,1,99,261,57,1,onethree,,,,,,,,,,,,,,,,,,,,,,,,,,,,,,,,,,,,,,,,,,,,,,,,,,,,,,,,,,,,,,,,,,,,,,,,,,,,,,,,,,,,,,,,,,,,,,,,,,,,,,,,,,,,,,,,,,,,,,,,,,,,,,,,,,,,,,,
,,650309a7aa388e72bb5f3d22,2023-12-07_08h05.36.738,kallum_motion_pilot,2023.2.3,Win32,60.17209218,650309a7aa388e72bb5f3d22,6560176e4d91f764e2a42c74,65716d7385b7c4c7ee00e1a0,0.0346,0.0346,1,100,262,43,1,twofour,,,,,,,,,,,,,,,,,,,,,,,,,,,,,,,,,,,,,,,,,,,,,,,,,,,,,,,,,,,,,,,,,,,,,,,,,,,,,,,,,,,,,,,,,,,,,,,,,,,,,,,,,,,,,,,,,,,,,,,,,,,,,,,,,,,,,,,
,,650309a7aa388e72bb5f3d22,2023-12-07_08h05.36.738,kallum_motion_pilot,2023.2.3,Win32,60.17209218,650309a7aa388e72bb5f3d22,6560176e4d91f764e2a42c74,65716d7385b7c4c7ee00e1a0,0.0348,0.0348,1,101,263,146,1,sixfive,,,,,,,,,,,,,,,,,,,,,,,,,,,,,,,,,,,,,,,,,,,,,,,,,,,,,,,,,,,,,,,,,,,,,,,,,,,,,,,,,,,,,,,,,,,,,,,,,,,,,,,,,,,,,,,,,,,,,,,,,,,,,,,,,,,,,,,
,,650309a7aa388e72bb5f3d22,2023-12-07_08h05.36.738,kallum_motion_pilot,2023.2.3,Win32,60.17209218,650309a7aa388e72bb5f3d22,6560176e4d91f764e2a42c74,65716d7385b7c4c7ee00e1a0,0.0349,0.0349,1,102,264,134,1,eightsix,,,,,,,,,,,,,,,,,,,,,,,,,,,,,,,,,,,,,,,,,,,,,,,,,,,,,,,,,,,,,,,,,,,,,,,,,,,,,,,,,,,,,,,,,,,,,,,,,,,,,,,,,,,,,,,,,,,,,,,,,,,,,,,,,,,,,,,
,,650309a7aa388e72bb5f3d22,2023-12-07_08h05.36.738,kallum_motion_pilot,2023.2.3,Win32,60.17209218,650309a7aa388e72bb5f3d22,6560176e4d91f764e2a42c74,65716d7385b7c4c7ee00e1a0,0.035,0.0351,1,103,265,159,1,eightseven,,,,,,,,,,,,,,,,,,,,,,,,,,,,,,,,,,,,,,,,,,,,,,,,,,,,,,,,,,,,,,,,,,,,,,,,,,,,,,,,,,,,,,,,,,,,,,,,,,,,,,,,,,,,,,,,,,,,,,,,,,,,,,,,,,,,,,,
,,650309a7aa388e72bb5f3d22,2023-12-07_08h05.36.738,kallum_motion_pilot,2023.2.3,Win32,60.17209218,650309a7aa388e72bb5f3d22,6560176e4d91f764e2a42c74,65716d7385b7c4c7ee00e1a0,0.0351,0.0352,1,104,266,89,1,fiveseven,,,,,,,,,,,,,,,,,,,,,,,,,,,,,,,,,,,,,,,,,,,,,,,,,,,,,,,,,,,,,,,,,,,,,,,,,,,,,,,,,,,,,,,,,,,,,,,,,,,,,,,,,,,,,,,,,,,,,,,,,,,,,,,,,,,,,,,
,,650309a7aa388e72bb5f3d22,2023-12-07_08h05.36.738,kallum_motion_pilot,2023.2.3,Win32,60.17209218,650309a7aa388e72bb5f3d22,6560176e4d91f764e2a42c74,65716d7385b7c4c7ee00e1a0,0.0353,0.0354,1,105,267,77,1,threefour,,,,,,,,,,,,,,,,,,,,,,,,,,,,,,,,,,,,,,,,,,,,,,,,,,,,,,,,,,,,,,,,,,,,,,,,,,,,,,,,,,,,,,,,,,,,,,,,,,,,,,,,,,,,,,,,,,,,,,,,,,,,,,,,,,,,,,,
,,650309a7aa388e72bb5f3d22,2023-12-07_08h05.36.738,kallum_motion_pilot,2023.2.3,Win32,60.17209218,650309a7aa388e72bb5f3d22,6560176e4d91f764e2a42c74,65716d7385b7c4c7ee00e1a0,0.0355,0.0355,1,106,268,36,1,threeone,,,,,,,,,,,,,,,,,,,,,,,,,,,,,,,,,,,,,,,,,,,,,,,,,,,,,,,,,,,,,,,,,,,,,,,,,,,,,,,,,,,,,,,,,,,,,,,,,,,,,,,,,,,,,,,,,,,,,,,,,,,,,,,,,,,,,,,
,,650309a7aa388e72bb5f3d22,2023-12-07_08h05.36.738,kallum_motion_pilot,2023.2.3,Win32,60.17209218,650309a7aa388e72bb5f3d22,6560176e4d91f764e2a42c74,65716d7385b7c4c7ee00e1a0,0.0356,0.0356,1,107,269,47,1,fourthree,,,,,,,,,,,,,,,,,,,,,,,,,,,,,,,,,,,,,,,,,,,,,,,,,,,,,,,,,,,,,,,,,,,,,,,,,,,,,,,,,,,,,,,,,,,,,,,,,,,,,,,,,,,,,,,,,,,,,,,,,,,,,,,,,,,,,,,
,,650309a7aa388e72bb5f3d22,2023-12-07_08h05.36.738,kallum_motion_pilot,2023.2.3,Win32,60.17209218,650309a7aa388e72bb5f3d22,6560176e4d91f764e2a42c74,65716d7385b7c4c7ee00e1a0,0.0356,0.0357,1,108,270,80,1,fivesix,,,,,,,,,,,,,,,,,,,,,,,,,,,,,,,,,,,,,,,,,,,,,,,,,,,,,,,,,,,,,,,,,,,,,,,,,,,,,,,,,,,,,,,,,,,,,,,,,,,,,,,,,,,,,,,,,,,,,,,,,,,,,,,,,,,,,,,
,,650309a7aa388e72bb5f3d22,2023-12-07_08h05.36.738,kallum_motion_pilot,2023.2.3,Win32,60.17209218,650309a7aa388e72bb5f3d22,6560176e4d91f764e2a42c74,65716d7385b7c4c7ee00e1a0,0.0357,0.0358,1,109,271,104,1,fivesix,,,,,,,,,,,,,,,,,,,,,,,,,,,,,,,,,,,,,,,,,,,,,,,,,,,,,,,,,,,,,,,,,,,,,,,,,,,,,,,,,,,,,,,,,,,,,,,,,,,,,,,,,,,,,,,,,,,,,,,,,,,,,,,,,,,,,,,
,,650309a7aa388e72bb5f3d22,2023-12-07_08h05.36.738,kallum_motion_pilot,2023.2.3,Win32,60.17209218,650309a7aa388e72bb5f3d22,6560176e4d91f764e2a42c74,65716d7385b7c4c7ee00e1a0,0.0358,0.0358,1,110,272,39,1,fourthree,,,,,,,,,,,,,,,,,,,,,,,,,,,,,,,,,,,,,,,,,,,,,,,,,,,,,,,,,,,,,,,,,,,,,,,,,,,,,,,,,,,,,,,,,,,,,,,,,,,,,,,,,,,,,,,,,,,,,,,,,,,,,,,,,,,,,,,
,,650309a7aa388e72bb5f3d22,2023-12-07_08h05.36.738,kallum_motion_pilot,2023.2.3,Win32,60.17209218,650309a7aa388e72bb5f3d22,6560176e4d91f764e2a42c74,65716d7385b7c4c7ee00e1a0,0.0359,0.0359,1,111,273,14,1,fourtwo,,,,,,,,,,,,,,,,,,,,,,,,,,,,,,,,,,,,,,,,,,,,,,,,,,,,,,,,,,,,,,,,,,,,,,,,,,,,,,,,,,,,,,,,,,,,,,,,,,,,,,,,,,,,,,,,,,,,,,,,,,,,,,,,,,,,,,,
,,650309a7aa388e72bb5f3d22,2023-12-07_08h05.36.738,kallum_motion_pilot,2023.2.3,Win32,60.17209218,650309a7aa388e72bb5f3d22,6560176e4d91f764e2a42c74,65716d7385b7c4c7ee00e1a0,0.0359,0.0359,1,112,274,28,1,threeone,,,,,,,,,,,,,,,,,,,,,,,,,,,,,,,,,,,,,,,,,,,,,,,,,,,,,,,,,,,,,,,,,,,,,,,,,,,,,,,,,,,,,,,,,,,,,,,,,,,,,,,,,,,,,,,,,,,,,,,,,,,,,,,,,,,,,,,
,,650309a7aa388e72bb5f3d22,2023-12-07_08h05.36.738,kallum_motion_pilot,2023.2.3,Win32,60.17209218,650309a7aa388e72bb5f3d22,6560176e4d91f764e2a42c74,65716d7385b7c4c7ee00e1a0,0.036,0.036,1,113,275,135,1,eightseven,,,,,,,,,,,,,,,,,,,,,,,,,,,,,,,,,,,,,,,,,,,,,,,,,,,,,,,,,,,,,,,,,,,,,,,,,,,,,,,,,,,,,,,,,,,,,,,,,,,,,,,,,,,,,,,,,,,,,,,,,,,,,,,,,,,,,,,
,,650309a7aa388e72bb5f3d22,2023-12-07_08h05.36.738,kallum_motion_pilot,2023.2.3,Win32,60.17209218,650309a7aa388e72bb5f3d22,6560176e4d91f764e2a42c74,65716d7385b7c4c7ee00e1a0,0.036,0.036,1,114,276,117,1,seveneight,,,,,,,,,,,,,,,,,,,,,,,,,,,,,,,,,,,,,,,,,,,,,,,,,,,,,,,,,,,,,,,,,,,,,,,,,,,,,,,,,,,,,,,,,,,,,,,,,,,,,,,,,,,,,,,,,,,,,,,,,,,,,,,,,,,,,,,
,,650309a7aa388e72bb5f3d22,2023-12-07_08h05.36.738,kallum_motion_pilot,2023.2.3,Win32,60.17209218,650309a7aa388e72bb5f3d22,6560176e4d91f764e2a42c74,65716d7385b7c4c7ee00e1a0,0.0361,0.0362,1,115,277,45,1,threefour,,,,,,,,,,,,,,,,,,,,,,,,,,,,,,,,,,,,,,,,,,,,,,,,,,,,,,,,,,,,,,,,,,,,,,,,,,,,,,,,,,,,,,,,,,,,,,,,,,,,,,,,,,,,,,,,,,,,,,,,,,,,,,,,,,,,,,,
,,650309a7aa388e72bb5f3d22,2023-12-07_08h05.36.738,kallum_motion_pilot,2023.2.3,Win32,60.17209218,650309a7aa388e72bb5f3d22,6560176e4d91f764e2a42c74,65716d7385b7c4c7ee00e1a0,0.0362,0.0362,1,116,278,119,1,eightseven,,,,,,,,,,,,,,,,,,,,,,,,,,,,,,,,,,,,,,,,,,,,,,,,,,,,,,,,,,,,,,,,,,,,,,,,,,,,,,,,,,,,,,,,,,,,,,,,,,,,,,,,,,,,,,,,,,,,,,,,,,,,,,,,,,,,,,,
,,650309a7aa388e72bb5f3d22,2023-12-07_08h05.36.738,kallum_motion_pilot,2023.2.3,Win32,60.17209218,650309a7aa388e72bb5f3d22,6560176e4d91f764e2a42c74,65716d7385b7c4c7ee00e1a0,0.0362,0.0363,1,117,279,120,1,fivesix,,,,,,,,,,,,,,,,,,,,,,,,,,,,,,,,,,,,,,,,,,,,,,,,,,,,,,,,,,,,,,,,,,,,,,,,,,,,,,,,,,,,,,,,,,,,,,,,,,,,,,,,,,,,,,,,,,,,,,,,,,,,,,,,,,,,,,,
