startup.started,startup.stopped,Prolific ID*,date,expName,psychopyVersion,OS,frameRate,participant,study_id,session,stimpositions.started,stimpositions.stopped,hardcoded_stimulus_positions.thisRepN,hardcoded_stimulus_positions.thisTrialN,hardcoded_stimulus_positions.thisN,hardcoded_stimulus_positions.thisIndex,hardcoded_stimulus_positions.ran,StimulusPos,stimorientation.started,stimorientation.stopped,prac_stimorientation_import_loop.thisRepN,prac_stimorientation_import_loop.thisTrialN,prac_stimorientation_import_loop.thisN,prac_stimorientation_import_loop.thisIndex,prac_stimorientation_import_loop.ran,Stimorientation,welcome_instr.started,welcome_instr.stopped,key_resp.keys,key_resp.rt,key_resp.duration,response_steppedout_1.started,response_steppedout_1.stopped,key_resp_20.keys,key_resp_20.rt,key_resp_20.duration,response_steppedout_2.started,response_steppedout_2.stopped,key_resp_19.keys,key_resp_19.rt,key_resp_19.duration,stim_response_instr.started,stim_response_instr.stopped,key_resp_15.keys,key_resp_15.rt,key_resp_15.duration,direction_instr_2.started,direction_instr_2.stopped,key_resp_9.keys,key_resp_9.rt,key_resp_9.duration,instr_prac.started,instr_prac.stopped,key_resp_10.keys,key_resp_10.rt,key_resp_10.duration,Stim1_display_prac.started,Stim1_display_prac.stopped,Ecc,Circle1_ori,Circle2_ori,response_prac.started,similarity,response_time,response_prac.stopped,mouse_5.x,mouse_5.y,mouse_5.leftButton,mouse_5.midButton,mouse_5.rightButton,mouse_5.clicked_name,responseprac_feedback.started,responseprac_feedback.stopped,summary2_prac.started,summary2_prac.stopped,mouse_6.x,mouse_6.y,mouse_6.leftButton,mouse_6.midButton,mouse_6.rightButton,mouse_6.clicked_name,duringprac.thisRepN,duringprac.thisTrialN,duringprac.thisN,duringprac.thisIndex,duringprac.ran,begin.started,begin.stopped,key_resp_22.keys,key_resp_22.rt,key_resp_22.duration,Stim1_display.started,Stim1_display.stopped,circle1_ori,circle2_ori,blank.started,blank.stopped,response.started,response.stopped,mouse.x,mouse.y,mouse.leftButton,mouse.midButton,mouse.rightButton,mouse.clicked_name,response_2.started,response_2.stopped,mouse_2.x,mouse_2.y,mouse_2.leftButton,mouse_2.midButton,mouse_2.rightButton,mouse_2.clicked_name,special_trial.started,special_trial.stopped,catch_1.started,catch_1.stopped,mouse_3.x,mouse_3.y,mouse_3.leftButton,mouse_3.midButton,mouse_3.rightButton,catchresponse,catchnumber,response_time_catch,Catch,response_sum.started,response_sum.stopped,mouse_11.x,mouse_11.y,mouse_11.leftButton,mouse_11.midButton,mouse_11.rightButton,main_trial.thisRepN,main_trial.thisTrialN,main_trial.thisN,main_trial.thisIndex,main_trial.ran,Orientationtrialno,xcircle1_ori,xcircle2_ori,flip_presentation_sequence_for_double_pass.started,flip_presentation_sequence_for_double_pass.stopped,double_pass.thisRepN,double_pass.thisTrialN,double_pass.thisN,double_pass.thisIndex,double_pass.ran,goodbye.started,goodbye.stopped,key_resp_3.keys,key_resp_3.rt,key_resp_3.duration
0.0033,0.0034,6507915c6aa0147b8e6b201d,2023-12-07_15h29.07.953,kallum_motion_pilot,2023.2.3,Win32,15.00307563,6507915c6aa0147b8e6b201d,6560176e4d91f764e2a42c74,657157fc3c149fa70816bc8a,,,,,,,,,,,,,,,,,,,,,,,,,,,,,,,,,,,,,,,,,,,,,,,,,,,,,,,,,,,,,,,,,,,,,,,,,,,,,,,,,,,,,,,,,,,,,,,,,,,,,,,,,,,,,,,,,,,,,,,,,,,,,,,,,,,,,,,,,,,,,,,
,,6507915c6aa0147b8e6b201d,2023-12-07_15h29.07.953,kallum_motion_pilot,2023.2.3,Win32,15.00307563,6507915c6aa0147b8e6b201d,6560176e4d91f764e2a42c74,657157fc3c149fa70816bc8a,0.0221,0.0222,0,0,0,11,1,twofour,,,,,,,,,,,,,,,,,,,,,,,,,,,,,,,,,,,,,,,,,,,,,,,,,,,,,,,,,,,,,,,,,,,,,,,,,,,,,,,,,,,,,,,,,,,,,,,,,,,,,,,,,,,,,,,,,,,,,,,,,,,,,,,,,,,,,,,
,,6507915c6aa0147b8e6b201d,2023-12-07_15h29.07.953,kallum_motion_pilot,2023.2.3,Win32,15.00307563,6507915c6aa0147b8e6b201d,6560176e4d91f764e2a42c74,657157fc3c149fa70816bc8a,0.0224,0.0224,0,1,1,54,1,fourtwo,,,,,,,,,,,,,,,,,,,,,,,,,,,,,,,,,,,,,,,,,,,,,,,,,,,,,,,,,,,,,,,,,,,,,,,,,,,,,,,,,,,,,,,,,,,,,,,,,,,,,,,,,,,,,,,,,,,,,,,,,,,,,,,,,,,,,,,
,,6507915c6aa0147b8e6b201d,2023-12-07_15h29.07.953,kallum_motion_pilot,2023.2.3,Win32,15.00307563,6507915c6aa0147b8e6b201d,6560176e4d91f764e2a42c74,657157fc3c149fa70816bc8a,0.0225,0.0225,0,2,2,148,1,sevenfive,,,,,,,,,,,,,,,,,,,,,,,,,,,,,,,,,,,,,,,,,,,,,,,,,,,,,,,,,,,,,,,,,,,,,,,,,,,,,,,,,,,,,,,,,,,,,,,,,,,,,,,,,,,,,,,,,,,,,,,,,,,,,,,,,,,,,,,
,,6507915c6aa0147b8e6b201d,2023-12-07_15h29.07.953,kallum_motion_pilot,2023.2.3,Win32,15.00307563,6507915c6aa0147b8e6b201d,6560176e4d91f764e2a42c74,657157fc3c149fa70816bc8a,0.0226,0.0227,0,3,3,160,1,fivesix,,,,,,,,,,,,,,,,,,,,,,,,,,,,,,,,,,,,,,,,,,,,,,,,,,,,,,,,,,,,,,,,,,,,,,,,,,,,,,,,,,,,,,,,,,,,,,,,,,,,,,,,,,,,,,,,,,,,,,,,,,,,,,,,,,,,,,,
,,6507915c6aa0147b8e6b201d,2023-12-07_15h29.07.953,kallum_motion_pilot,2023.2.3,Win32,15.00307563,6507915c6aa0147b8e6b201d,6560176e4d91f764e2a42c74,657157fc3c149fa70816bc8a,0.0228,0.0228,0,4,4,96,1,fivesix,,,,,,,,,,,,,,,,,,,,,,,,,,,,,,,,,,,,,,,,,,,,,,,,,,,,,,,,,,,,,,,,,,,,,,,,,,,,,,,,,,,,,,,,,,,,,,,,,,,,,,,,,,,,,,,,,,,,,,,,,,,,,,,,,,,,,,,
,,6507915c6aa0147b8e6b201d,2023-12-07_15h29.07.953,kallum_motion_pilot,2023.2.3,Win32,15.00307563,6507915c6aa0147b8e6b201d,6560176e4d91f764e2a42c74,657157fc3c149fa70816bc8a,0.0228,0.0228,0,5,5,34,1,twoone,,,,,,,,,,,,,,,,,,,,,,,,,,,,,,,,,,,,,,,,,,,,,,,,,,,,,,,,,,,,,,,,,,,,,,,,,,,,,,,,,,,,,,,,,,,,,,,,,,,,,,,,,,,,,,,,,,,,,,,,,,,,,,,,,,,,,,,
,,6507915c6aa0147b8e6b201d,2023-12-07_15h29.07.953,kallum_motion_pilot,2023.2.3,Win32,15.00307563,6507915c6aa0147b8e6b201d,6560176e4d91f764e2a42c74,657157fc3c149fa70816bc8a,0.0229,0.0229,0,6,6,144,1,fivesix,,,,,,,,,,,,,,,,,,,,,,,,,,,,,,,,,,,,,,,,,,,,,,,,,,,,,,,,,,,,,,,,,,,,,,,,,,,,,,,,,,,,,,,,,,,,,,,,,,,,,,,,,,,,,,,,,,,,,,,,,,,,,,,,,,,,,,,
,,6507915c6aa0147b8e6b201d,2023-12-07_15h29.07.953,kallum_motion_pilot,2023.2.3,Win32,15.00307563,6507915c6aa0147b8e6b201d,6560176e4d91f764e2a42c74,657157fc3c149fa70816bc8a,0.023,0.023,0,7,7,92,1,sevenfive,,,,,,,,,,,,,,,,,,,,,,,,,,,,,,,,,,,,,,,,,,,,,,,,,,,,,,,,,,,,,,,,,,,,,,,,,,,,,,,,,,,,,,,,,,,,,,,,,,,,,,,,,,,,,,,,,,,,,,,,,,,,,,,,,,,,,,,
,,6507915c6aa0147b8e6b201d,2023-12-07_15h29.07.953,kallum_motion_pilot,2023.2.3,Win32,15.00307563,6507915c6aa0147b8e6b201d,6560176e4d91f764e2a42c74,657157fc3c149fa70816bc8a,0.0231,0.0231,0,8,8,108,1,sevenfive,,,,,,,,,,,,,,,,,,,,,,,,,,,,,,,,,,,,,,,,,,,,,,,,,,,,,,,,,,,,,,,,,,,,,,,,,,,,,,,,,,,,,,,,,,,,,,,,,,,,,,,,,,,,,,,,,,,,,,,,,,,,,,,,,,,,,,,
,,6507915c6aa0147b8e6b201d,2023-12-07_15h29.07.953,kallum_motion_pilot,2023.2.3,Win32,15.00307563,6507915c6aa0147b8e6b201d,6560176e4d91f764e2a42c74,657157fc3c149fa70816bc8a,0.0232,0.0232,0,9,9,156,1,sevenfive,,,,,,,,,,,,,,,,,,,,,,,,,,,,,,,,,,,,,,,,,,,,,,,,,,,,,,,,,,,,,,,,,,,,,,,,,,,,,,,,,,,,,,,,,,,,,,,,,,,,,,,,,,,,,,,,,,,,,,,,,,,,,,,,,,,,,,,
,,6507915c6aa0147b8e6b201d,2023-12-07_15h29.07.953,kallum_motion_pilot,2023.2.3,Win32,15.00307563,6507915c6aa0147b8e6b201d,6560176e4d91f764e2a42c74,657157fc3c149fa70816bc8a,0.0233,0.0233,0,10,10,138,1,sixfive,,,,,,,,,,,,,,,,,,,,,,,,,,,,,,,,,,,,,,,,,,,,,,,,,,,,,,,,,,,,,,,,,,,,,,,,,,,,,,,,,,,,,,,,,,,,,,,,,,,,,,,,,,,,,,,,,,,,,,,,,,,,,,,,,,,,,,,
,,6507915c6aa0147b8e6b201d,2023-12-07_15h29.07.953,kallum_motion_pilot,2023.2.3,Win32,15.00307563,6507915c6aa0147b8e6b201d,6560176e4d91f764e2a42c74,657157fc3c149fa70816bc8a,0.0234,0.0234,0,11,11,24,1,onetwo,,,,,,,,,,,,,,,,,,,,,,,,,,,,,,,,,,,,,,,,,,,,,,,,,,,,,,,,,,,,,,,,,,,,,,,,,,,,,,,,,,,,,,,,,,,,,,,,,,,,,,,,,,,,,,,,,,,,,,,,,,,,,,,,,,,,,,,
,,6507915c6aa0147b8e6b201d,2023-12-07_15h29.07.953,kallum_motion_pilot,2023.2.3,Win32,15.00307563,6507915c6aa0147b8e6b201d,6560176e4d91f764e2a42c74,657157fc3c149fa70816bc8a,0.0235,0.0235,0,12,12,73,1,onethree,,,,,,,,,,,,,,,,,,,,,,,,,,,,,,,,,,,,,,,,,,,,,,,,,,,,,,,,,,,,,,,,,,,,,,,,,,,,,,,,,,,,,,,,,,,,,,,,,,,,,,,,,,,,,,,,,,,,,,,,,,,,,,,,,,,,,,,
,,6507915c6aa0147b8e6b201d,2023-12-07_15h29.07.953,kallum_motion_pilot,2023.2.3,Win32,15.00307563,6507915c6aa0147b8e6b201d,6560176e4d91f764e2a42c74,657157fc3c149fa70816bc8a,0.0236,0.0236,0,13,13,145,1,fiveseven,,,,,,,,,,,,,,,,,,,,,,,,,,,,,,,,,,,,,,,,,,,,,,,,,,,,,,,,,,,,,,,,,,,,,,,,,,,,,,,,,,,,,,,,,,,,,,,,,,,,,,,,,,,,,,,,,,,,,,,,,,,,,,,,,,,,,,,
,,6507915c6aa0147b8e6b201d,2023-12-07_15h29.07.953,kallum_motion_pilot,2023.2.3,Win32,15.00307563,6507915c6aa0147b8e6b201d,6560176e4d91f764e2a42c74,657157fc3c149fa70816bc8a,0.0237,0.0237,0,14,14,17,1,onethree,,,,,,,,,,,,,,,,,,,,,,,,,,,,,,,,,,,,,,,,,,,,,,,,,,,,,,,,,,,,,,,,,,,,,,,,,,,,,,,,,,,,,,,,,,,,,,,,,,,,,,,,,,,,,,,,,,,,,,,,,,,,,,,,,,,,,,,
,,6507915c6aa0147b8e6b201d,2023-12-07_15h29.07.953,kallum_motion_pilot,2023.2.3,Win32,15.00307563,6507915c6aa0147b8e6b201d,6560176e4d91f764e2a42c74,657157fc3c149fa70816bc8a,0.0238,0.0239,0,15,15,142,1,eightsix,,,,,,,,,,,,,,,,,,,,,,,,,,,,,,,,,,,,,,,,,,,,,,,,,,,,,,,,,,,,,,,,,,,,,,,,,,,,,,,,,,,,,,,,,,,,,,,,,,,,,,,,,,,,,,,,,,,,,,,,,,,,,,,,,,,,,,,
,,6507915c6aa0147b8e6b201d,2023-12-07_15h29.07.953,kallum_motion_pilot,2023.2.3,Win32,15.00307563,6507915c6aa0147b8e6b201d,6560176e4d91f764e2a42c74,657157fc3c149fa70816bc8a,0.0239,0.0239,0,16,16,65,1,onethree,,,,,,,,,,,,,,,,,,,,,,,,,,,,,,,,,,,,,,,,,,,,,,,,,,,,,,,,,,,,,,,,,,,,,,,,,,,,,,,,,,,,,,,,,,,,,,,,,,,,,,,,,,,,,,,,,,,,,,,,,,,,,,,,,,,,,,,
,,6507915c6aa0147b8e6b201d,2023-12-07_15h29.07.953,kallum_motion_pilot,2023.2.3,Win32,15.00307563,6507915c6aa0147b8e6b201d,6560176e4d91f764e2a42c74,657157fc3c149fa70816bc8a,0.024,0.024,0,17,17,70,1,fourtwo,,,,,,,,,,,,,,,,,,,,,,,,,,,,,,,,,,,,,,,,,,,,,,,,,,,,,,,,,,,,,,,,,,,,,,,,,,,,,,,,,,,,,,,,,,,,,,,,,,,,,,,,,,,,,,,,,,,,,,,,,,,,,,,,,,,,,,,
,,6507915c6aa0147b8e6b201d,2023-12-07_15h29.07.953,kallum_motion_pilot,2023.2.3,Win32,15.00307563,6507915c6aa0147b8e6b201d,6560176e4d91f764e2a42c74,657157fc3c149fa70816bc8a,0.024,0.0241,0,18,18,41,1,onethree,,,,,,,,,,,,,,,,,,,,,,,,,,,,,,,,,,,,,,,,,,,,,,,,,,,,,,,,,,,,,,,,,,,,,,,,,,,,,,,,,,,,,,,,,,,,,,,,,,,,,,,,,,,,,,,,,,,,,,,,,,,,,,,,,,,,,,,
,,6507915c6aa0147b8e6b201d,2023-12-07_15h29.07.953,kallum_motion_pilot,2023.2.3,Win32,15.00307563,6507915c6aa0147b8e6b201d,6560176e4d91f764e2a42c74,657157fc3c149fa70816bc8a,0.0242,0.0242,0,19,19,139,1,sixeight,,,,,,,,,,,,,,,,,,,,,,,,,,,,,,,,,,,,,,,,,,,,,,,,,,,,,,,,,,,,,,,,,,,,,,,,,,,,,,,,,,,,,,,,,,,,,,,,,,,,,,,,,,,,,,,,,,,,,,,,,,,,,,,,,,,,,,,
,,6507915c6aa0147b8e6b201d,2023-12-07_15h29.07.953,kallum_motion_pilot,2023.2.3,Win32,15.00307563,6507915c6aa0147b8e6b201d,6560176e4d91f764e2a42c74,657157fc3c149fa70816bc8a,0.0243,0.0243,0,20,20,6,1,fourtwo,,,,,,,,,,,,,,,,,,,,,,,,,,,,,,,,,,,,,,,,,,,,,,,,,,,,,,,,,,,,,,,,,,,,,,,,,,,,,,,,,,,,,,,,,,,,,,,,,,,,,,,,,,,,,,,,,,,,,,,,,,,,,,,,,,,,,,,
,,6507915c6aa0147b8e6b201d,2023-12-07_15h29.07.953,kallum_motion_pilot,2023.2.3,Win32,15.00307563,6507915c6aa0147b8e6b201d,6560176e4d91f764e2a42c74,657157fc3c149fa70816bc8a,0.0244,0.0244,0,21,21,75,1,twofour,,,,,,,,,,,,,,,,,,,,,,,,,,,,,,,,,,,,,,,,,,,,,,,,,,,,,,,,,,,,,,,,,,,,,,,,,,,,,,,,,,,,,,,,,,,,,,,,,,,,,,,,,,,,,,,,,,,,,,,,,,,,,,,,,,,,,,,
,,6507915c6aa0147b8e6b201d,2023-12-07_15h29.07.953,kallum_motion_pilot,2023.2.3,Win32,15.00307563,6507915c6aa0147b8e6b201d,6560176e4d91f764e2a42c74,657157fc3c149fa70816bc8a,0.0244,0.0244,0,22,22,26,1,twoone,,,,,,,,,,,,,,,,,,,,,,,,,,,,,,,,,,,,,,,,,,,,,,,,,,,,,,,,,,,,,,,,,,,,,,,,,,,,,,,,,,,,,,,,,,,,,,,,,,,,,,,,,,,,,,,,,,,,,,,,,,,,,,,,,,,,,,,
,,6507915c6aa0147b8e6b201d,2023-12-07_15h29.07.953,kallum_motion_pilot,2023.2.3,Win32,15.00307563,6507915c6aa0147b8e6b201d,6560176e4d91f764e2a42c74,657157fc3c149fa70816bc8a,0.0245,0.0245,0,23,23,125,1,seveneight,,,,,,,,,,,,,,,,,,,,,,,,,,,,,,,,,,,,,,,,,,,,,,,,,,,,,,,,,,,,,,,,,,,,,,,,,,,,,,,,,,,,,,,,,,,,,,,,,,,,,,,,,,,,,,,,,,,,,,,,,,,,,,,,,,,,,,,
,,6507915c6aa0147b8e6b201d,2023-12-07_15h29.07.953,kallum_motion_pilot,2023.2.3,Win32,15.00307563,6507915c6aa0147b8e6b201d,6560176e4d91f764e2a42c74,657157fc3c149fa70816bc8a,0.0246,0.0246,0,24,24,36,1,threeone,,,,,,,,,,,,,,,,,,,,,,,,,,,,,,,,,,,,,,,,,,,,,,,,,,,,,,,,,,,,,,,,,,,,,,,,,,,,,,,,,,,,,,,,,,,,,,,,,,,,,,,,,,,,,,,,,,,,,,,,,,,,,,,,,,,,,,,
,,6507915c6aa0147b8e6b201d,2023-12-07_15h29.07.953,kallum_motion_pilot,2023.2.3,Win32,15.00307563,6507915c6aa0147b8e6b201d,6560176e4d91f764e2a42c74,657157fc3c149fa70816bc8a,0.0247,0.0247,0,25,25,9,1,onethree,,,,,,,,,,,,,,,,,,,,,,,,,,,,,,,,,,,,,,,,,,,,,,,,,,,,,,,,,,,,,,,,,,,,,,,,,,,,,,,,,,,,,,,,,,,,,,,,,,,,,,,,,,,,,,,,,,,,,,,,,,,,,,,,,,,,,,,
,,6507915c6aa0147b8e6b201d,2023-12-07_15h29.07.953,kallum_motion_pilot,2023.2.3,Win32,15.00307563,6507915c6aa0147b8e6b201d,6560176e4d91f764e2a42c74,657157fc3c149fa70816bc8a,0.0247,0.0248,0,26,26,23,1,fourthree,,,,,,,,,,,,,,,,,,,,,,,,,,,,,,,,,,,,,,,,,,,,,,,,,,,,,,,,,,,,,,,,,,,,,,,,,,,,,,,,,,,,,,,,,,,,,,,,,,,,,,,,,,,,,,,,,,,,,,,,,,,,,,,,,,,,,,,
,,6507915c6aa0147b8e6b201d,2023-12-07_15h29.07.953,kallum_motion_pilot,2023.2.3,Win32,15.00307563,6507915c6aa0147b8e6b201d,6560176e4d91f764e2a42c74,657157fc3c149fa70816bc8a,0.0249,0.0249,0,27,27,137,1,fiveseven,,,,,,,,,,,,,,,,,,,,,,,,,,,,,,,,,,,,,,,,,,,,,,,,,,,,,,,,,,,,,,,,,,,,,,,,,,,,,,,,,,,,,,,,,,,,,,,,,,,,,,,,,,,,,,,,,,,,,,,,,,,,,,,,,,,,,,,
,,6507915c6aa0147b8e6b201d,2023-12-07_15h29.07.953,kallum_motion_pilot,2023.2.3,Win32,15.00307563,6507915c6aa0147b8e6b201d,6560176e4d91f764e2a42c74,657157fc3c149fa70816bc8a,0.025,0.025,0,28,28,14,1,fourtwo,,,,,,,,,,,,,,,,,,,,,,,,,,,,,,,,,,,,,,,,,,,,,,,,,,,,,,,,,,,,,,,,,,,,,,,,,,,,,,,,,,,,,,,,,,,,,,,,,,,,,,,,,,,,,,,,,,,,,,,,,,,,,,,,,,,,,,,
,,6507915c6aa0147b8e6b201d,2023-12-07_15h29.07.953,kallum_motion_pilot,2023.2.3,Win32,15.00307563,6507915c6aa0147b8e6b201d,6560176e4d91f764e2a42c74,657157fc3c149fa70816bc8a,0.0251,0.0251,0,29,29,28,1,threeone,,,,,,,,,,,,,,,,,,,,,,,,,,,,,,,,,,,,,,,,,,,,,,,,,,,,,,,,,,,,,,,,,,,,,,,,,,,,,,,,,,,,,,,,,,,,,,,,,,,,,,,,,,,,,,,,,,,,,,,,,,,,,,,,,,,,,,,
,,6507915c6aa0147b8e6b201d,2023-12-07_15h29.07.953,kallum_motion_pilot,2023.2.3,Win32,15.00307563,6507915c6aa0147b8e6b201d,6560176e4d91f764e2a42c74,657157fc3c149fa70816bc8a,0.0251,0.0251,0,30,30,45,1,threefour,,,,,,,,,,,,,,,,,,,,,,,,,,,,,,,,,,,,,,,,,,,,,,,,,,,,,,,,,,,,,,,,,,,,,,,,,,,,,,,,,,,,,,,,,,,,,,,,,,,,,,,,,,,,,,,,,,,,,,,,,,,,,,,,,,,,,,,
,,6507915c6aa0147b8e6b201d,2023-12-07_15h29.07.953,kallum_motion_pilot,2023.2.3,Win32,15.00307563,6507915c6aa0147b8e6b201d,6560176e4d91f764e2a42c74,657157fc3c149fa70816bc8a,0.0252,0.0253,0,31,31,86,1,eightsix,,,,,,,,,,,,,,,,,,,,,,,,,,,,,,,,,,,,,,,,,,,,,,,,,,,,,,,,,,,,,,,,,,,,,,,,,,,,,,,,,,,,,,,,,,,,,,,,,,,,,,,,,,,,,,,,,,,,,,,,,,,,,,,,,,,,,,,
,,6507915c6aa0147b8e6b201d,2023-12-07_15h29.07.953,kallum_motion_pilot,2023.2.3,Win32,15.00307563,6507915c6aa0147b8e6b201d,6560176e4d91f764e2a42c74,657157fc3c149fa70816bc8a,0.0253,0.0253,0,32,32,81,1,fiveseven,,,,,,,,,,,,,,,,,,,,,,,,,,,,,,,,,,,,,,,,,,,,,,,,,,,,,,,,,,,,,,,,,,,,,,,,,,,,,,,,,,,,,,,,,,,,,,,,,,,,,,,,,,,,,,,,,,,,,,,,,,,,,,,,,,,,,,,
,,6507915c6aa0147b8e6b201d,2023-12-07_15h29.07.953,kallum_motion_pilot,2023.2.3,Win32,15.00307563,6507915c6aa0147b8e6b201d,6560176e4d91f764e2a42c74,657157fc3c149fa70816bc8a,0.0254,0.0254,0,33,33,56,1,onetwo,,,,,,,,,,,,,,,,,,,,,,,,,,,,,,,,,,,,,,,,,,,,,,,,,,,,,,,,,,,,,,,,,,,,,,,,,,,,,,,,,,,,,,,,,,,,,,,,,,,,,,,,,,,,,,,,,,,,,,,,,,,,,,,,,,,,,,,
,,6507915c6aa0147b8e6b201d,2023-12-07_15h29.07.953,kallum_motion_pilot,2023.2.3,Win32,15.00307563,6507915c6aa0147b8e6b201d,6560176e4d91f764e2a42c74,657157fc3c149fa70816bc8a,0.0255,0.0255,0,34,34,149,1,seveneight,,,,,,,,,,,,,,,,,,,,,,,,,,,,,,,,,,,,,,,,,,,,,,,,,,,,,,,,,,,,,,,,,,,,,,,,,,,,,,,,,,,,,,,,,,,,,,,,,,,,,,,,,,,,,,,,,,,,,,,,,,,,,,,,,,,,,,,
,,6507915c6aa0147b8e6b201d,2023-12-07_15h29.07.953,kallum_motion_pilot,2023.2.3,Win32,15.00307563,6507915c6aa0147b8e6b201d,6560176e4d91f764e2a42c74,657157fc3c149fa70816bc8a,0.0256,0.0256,0,35,35,53,1,threefour,,,,,,,,,,,,,,,,,,,,,,,,,,,,,,,,,,,,,,,,,,,,,,,,,,,,,,,,,,,,,,,,,,,,,,,,,,,,,,,,,,,,,,,,,,,,,,,,,,,,,,,,,,,,,,,,,,,,,,,,,,,,,,,,,,,,,,,
,,6507915c6aa0147b8e6b201d,2023-12-07_15h29.07.953,kallum_motion_pilot,2023.2.3,Win32,15.00307563,6507915c6aa0147b8e6b201d,6560176e4d91f764e2a42c74,657157fc3c149fa70816bc8a,0.0257,0.0257,0,36,36,0,1,onetwo,,,,,,,,,,,,,,,,,,,,,,,,,,,,,,,,,,,,,,,,,,,,,,,,,,,,,,,,,,,,,,,,,,,,,,,,,,,,,,,,,,,,,,,,,,,,,,,,,,,,,,,,,,,,,,,,,,,,,,,,,,,,,,,,,,,,,,,
,,6507915c6aa0147b8e6b201d,2023-12-07_15h29.07.953,kallum_motion_pilot,2023.2.3,Win32,15.00307563,6507915c6aa0147b8e6b201d,6560176e4d91f764e2a42c74,657157fc3c149fa70816bc8a,0.0258,0.0259,0,37,37,102,1,eightsix,,,,,,,,,,,,,,,,,,,,,,,,,,,,,,,,,,,,,,,,,,,,,,,,,,,,,,,,,,,,,,,,,,,,,,,,,,,,,,,,,,,,,,,,,,,,,,,,,,,,,,,,,,,,,,,,,,,,,,,,,,,,,,,,,,,,,,,
,,6507915c6aa0147b8e6b201d,2023-12-07_15h29.07.953,kallum_motion_pilot,2023.2.3,Win32,15.00307563,6507915c6aa0147b8e6b201d,6560176e4d91f764e2a42c74,657157fc3c149fa70816bc8a,0.0259,0.0259,0,38,38,82,1,sixfive,,,,,,,,,,,,,,,,,,,,,,,,,,,,,,,,,,,,,,,,,,,,,,,,,,,,,,,,,,,,,,,,,,,,,,,,,,,,,,,,,,,,,,,,,,,,,,,,,,,,,,,,,,,,,,,,,,,,,,,,,,,,,,,,,,,,,,,
,,6507915c6aa0147b8e6b201d,2023-12-07_15h29.07.953,kallum_motion_pilot,2023.2.3,Win32,15.00307563,6507915c6aa0147b8e6b201d,6560176e4d91f764e2a42c74,657157fc3c149fa70816bc8a,0.026,0.026,0,39,39,115,1,sixeight,,,,,,,,,,,,,,,,,,,,,,,,,,,,,,,,,,,,,,,,,,,,,,,,,,,,,,,,,,,,,,,,,,,,,,,,,,,,,,,,,,,,,,,,,,,,,,,,,,,,,,,,,,,,,,,,,,,,,,,,,,,,,,,,,,,,,,,
,,6507915c6aa0147b8e6b201d,2023-12-07_15h29.07.953,kallum_motion_pilot,2023.2.3,Win32,15.00307563,6507915c6aa0147b8e6b201d,6560176e4d91f764e2a42c74,657157fc3c149fa70816bc8a,0.026,0.026,0,40,40,114,1,sixfive,,,,,,,,,,,,,,,,,,,,,,,,,,,,,,,,,,,,,,,,,,,,,,,,,,,,,,,,,,,,,,,,,,,,,,,,,,,,,,,,,,,,,,,,,,,,,,,,,,,,,,,,,,,,,,,,,,,,,,,,,,,,,,,,,,,,,,,
,,6507915c6aa0147b8e6b201d,2023-12-07_15h29.07.953,kallum_motion_pilot,2023.2.3,Win32,15.00307563,6507915c6aa0147b8e6b201d,6560176e4d91f764e2a42c74,657157fc3c149fa70816bc8a,0.0261,0.0262,0,41,41,120,1,fivesix,,,,,,,,,,,,,,,,,,,,,,,,,,,,,,,,,,,,,,,,,,,,,,,,,,,,,,,,,,,,,,,,,,,,,,,,,,,,,,,,,,,,,,,,,,,,,,,,,,,,,,,,,,,,,,,,,,,,,,,,,,,,,,,,,,,,,,,
,,6507915c6aa0147b8e6b201d,2023-12-07_15h29.07.953,kallum_motion_pilot,2023.2.3,Win32,15.00307563,6507915c6aa0147b8e6b201d,6560176e4d91f764e2a42c74,657157fc3c149fa70816bc8a,0.0262,0.0262,0,42,42,131,1,sixeight,,,,,,,,,,,,,,,,,,,,,,,,,,,,,,,,,,,,,,,,,,,,,,,,,,,,,,,,,,,,,,,,,,,,,,,,,,,,,,,,,,,,,,,,,,,,,,,,,,,,,,,,,,,,,,,,,,,,,,,,,,,,,,,,,,,,,,,
,,6507915c6aa0147b8e6b201d,2023-12-07_15h29.07.953,kallum_motion_pilot,2023.2.3,Win32,15.00307563,6507915c6aa0147b8e6b201d,6560176e4d91f764e2a42c74,657157fc3c149fa70816bc8a,0.0263,0.0263,0,43,43,62,1,fourtwo,,,,,,,,,,,,,,,,,,,,,,,,,,,,,,,,,,,,,,,,,,,,,,,,,,,,,,,,,,,,,,,,,,,,,,,,,,,,,,,,,,,,,,,,,,,,,,,,,,,,,,,,,,,,,,,,,,,,,,,,,,,,,,,,,,,,,,,
,,6507915c6aa0147b8e6b201d,2023-12-07_15h29.07.953,kallum_motion_pilot,2023.2.3,Win32,15.00307563,6507915c6aa0147b8e6b201d,6560176e4d91f764e2a42c74,657157fc3c149fa70816bc8a,0.0264,0.0264,0,44,44,69,1,threefour,,,,,,,,,,,,,,,,,,,,,,,,,,,,,,,,,,,,,,,,,,,,,,,,,,,,,,,,,,,,,,,,,,,,,,,,,,,,,,,,,,,,,,,,,,,,,,,,,,,,,,,,,,,,,,,,,,,,,,,,,,,,,,,,,,,,,,,
,,6507915c6aa0147b8e6b201d,2023-12-07_15h29.07.953,kallum_motion_pilot,2023.2.3,Win32,15.00307563,6507915c6aa0147b8e6b201d,6560176e4d91f764e2a42c74,657157fc3c149fa70816bc8a,0.0265,0.0265,0,45,45,88,1,fivesix,,,,,,,,,,,,,,,,,,,,,,,,,,,,,,,,,,,,,,,,,,,,,,,,,,,,,,,,,,,,,,,,,,,,,,,,,,,,,,,,,,,,,,,,,,,,,,,,,,,,,,,,,,,,,,,,,,,,,,,,,,,,,,,,,,,,,,,
,,6507915c6aa0147b8e6b201d,2023-12-07_15h29.07.953,kallum_motion_pilot,2023.2.3,Win32,15.00307563,6507915c6aa0147b8e6b201d,6560176e4d91f764e2a42c74,657157fc3c149fa70816bc8a,0.0266,0.0266,0,46,46,97,1,fiveseven,,,,,,,,,,,,,,,,,,,,,,,,,,,,,,,,,,,,,,,,,,,,,,,,,,,,,,,,,,,,,,,,,,,,,,,,,,,,,,,,,,,,,,,,,,,,,,,,,,,,,,,,,,,,,,,,,,,,,,,,,,,,,,,,,,,,,,,
,,6507915c6aa0147b8e6b201d,2023-12-07_15h29.07.953,kallum_motion_pilot,2023.2.3,Win32,15.00307563,6507915c6aa0147b8e6b201d,6560176e4d91f764e2a42c74,657157fc3c149fa70816bc8a,0.0267,0.0267,0,47,47,152,1,fivesix,,,,,,,,,,,,,,,,,,,,,,,,,,,,,,,,,,,,,,,,,,,,,,,,,,,,,,,,,,,,,,,,,,,,,,,,,,,,,,,,,,,,,,,,,,,,,,,,,,,,,,,,,,,,,,,,,,,,,,,,,,,,,,,,,,,,,,,
,,6507915c6aa0147b8e6b201d,2023-12-07_15h29.07.953,kallum_motion_pilot,2023.2.3,Win32,15.00307563,6507915c6aa0147b8e6b201d,6560176e4d91f764e2a42c74,657157fc3c149fa70816bc8a,0.0267,0.0268,0,48,48,71,1,fourthree,,,,,,,,,,,,,,,,,,,,,,,,,,,,,,,,,,,,,,,,,,,,,,,,,,,,,,,,,,,,,,,,,,,,,,,,,,,,,,,,,,,,,,,,,,,,,,,,,,,,,,,,,,,,,,,,,,,,,,,,,,,,,,,,,,,,,,,
,,6507915c6aa0147b8e6b201d,2023-12-07_15h29.07.953,kallum_motion_pilot,2023.2.3,Win32,15.00307563,6507915c6aa0147b8e6b201d,6560176e4d91f764e2a42c74,657157fc3c149fa70816bc8a,0.0268,0.0269,0,49,49,93,1,seveneight,,,,,,,,,,,,,,,,,,,,,,,,,,,,,,,,,,,,,,,,,,,,,,,,,,,,,,,,,,,,,,,,,,,,,,,,,,,,,,,,,,,,,,,,,,,,,,,,,,,,,,,,,,,,,,,,,,,,,,,,,,,,,,,,,,,,,,,
,,6507915c6aa0147b8e6b201d,2023-12-07_15h29.07.953,kallum_motion_pilot,2023.2.3,Win32,15.00307563,6507915c6aa0147b8e6b201d,6560176e4d91f764e2a42c74,657157fc3c149fa70816bc8a,0.0269,0.027,0,50,50,118,1,eightsix,,,,,,,,,,,,,,,,,,,,,,,,,,,,,,,,,,,,,,,,,,,,,,,,,,,,,,,,,,,,,,,,,,,,,,,,,,,,,,,,,,,,,,,,,,,,,,,,,,,,,,,,,,,,,,,,,,,,,,,,,,,,,,,,,,,,,,,
,,6507915c6aa0147b8e6b201d,2023-12-07_15h29.07.953,kallum_motion_pilot,2023.2.3,Win32,15.00307563,6507915c6aa0147b8e6b201d,6560176e4d91f764e2a42c74,657157fc3c149fa70816bc8a,0.0271,0.0271,0,51,51,85,1,seveneight,,,,,,,,,,,,,,,,,,,,,,,,,,,,,,,,,,,,,,,,,,,,,,,,,,,,,,,,,,,,,,,,,,,,,,,,,,,,,,,,,,,,,,,,,,,,,,,,,,,,,,,,,,,,,,,,,,,,,,,,,,,,,,,,,,,,,,,
,,6507915c6aa0147b8e6b201d,2023-12-07_15h29.07.953,kallum_motion_pilot,2023.2.3,Win32,15.00307563,6507915c6aa0147b8e6b201d,6560176e4d91f764e2a42c74,657157fc3c149fa70816bc8a,0.0272,0.0272,0,52,52,13,1,threefour,,,,,,,,,,,,,,,,,,,,,,,,,,,,,,,,,,,,,,,,,,,,,,,,,,,,,,,,,,,,,,,,,,,,,,,,,,,,,,,,,,,,,,,,,,,,,,,,,,,,,,,,,,,,,,,,,,,,,,,,,,,,,,,,,,,,,,,
,,6507915c6aa0147b8e6b201d,2023-12-07_15h29.07.953,kallum_motion_pilot,2023.2.3,Win32,15.00307563,6507915c6aa0147b8e6b201d,6560176e4d91f764e2a42c74,657157fc3c149fa70816bc8a,0.0273,0.0273,0,53,53,128,1,fivesix,,,,,,,,,,,,,,,,,,,,,,,,,,,,,,,,,,,,,,,,,,,,,,,,,,,,,,,,,,,,,,,,,,,,,,,,,,,,,,,,,,,,,,,,,,,,,,,,,,,,,,,,,,,,,,,,,,,,,,,,,,,,,,,,,,,,,,,
,,6507915c6aa0147b8e6b201d,2023-12-07_15h29.07.953,kallum_motion_pilot,2023.2.3,Win32,15.00307563,6507915c6aa0147b8e6b201d,6560176e4d91f764e2a42c74,657157fc3c149fa70816bc8a,0.0273,0.0273,0,54,54,110,1,eightsix,,,,,,,,,,,,,,,,,,,,,,,,,,,,,,,,,,,,,,,,,,,,,,,,,,,,,,,,,,,,,,,,,,,,,,,,,,,,,,,,,,,,,,,,,,,,,,,,,,,,,,,,,,,,,,,,,,,,,,,,,,,,,,,,,,,,,,,
,,6507915c6aa0147b8e6b201d,2023-12-07_15h29.07.953,kallum_motion_pilot,2023.2.3,Win32,15.00307563,6507915c6aa0147b8e6b201d,6560176e4d91f764e2a42c74,657157fc3c149fa70816bc8a,0.0274,0.0274,0,55,55,141,1,seveneight,,,,,,,,,,,,,,,,,,,,,,,,,,,,,,,,,,,,,,,,,,,,,,,,,,,,,,,,,,,,,,,,,,,,,,,,,,,,,,,,,,,,,,,,,,,,,,,,,,,,,,,,,,,,,,,,,,,,,,,,,,,,,,,,,,,,,,,
,,6507915c6aa0147b8e6b201d,2023-12-07_15h29.07.953,kallum_motion_pilot,2023.2.3,Win32,15.00307563,6507915c6aa0147b8e6b201d,6560176e4d91f764e2a42c74,657157fc3c149fa70816bc8a,0.0275,0.0275,0,56,56,109,1,seveneight,,,,,,,,,,,,,,,,,,,,,,,,,,,,,,,,,,,,,,,,,,,,,,,,,,,,,,,,,,,,,,,,,,,,,,,,,,,,,,,,,,,,,,,,,,,,,,,,,,,,,,,,,,,,,,,,,,,,,,,,,,,,,,,,,,,,,,,
,,6507915c6aa0147b8e6b201d,2023-12-07_15h29.07.953,kallum_motion_pilot,2023.2.3,Win32,15.00307563,6507915c6aa0147b8e6b201d,6560176e4d91f764e2a42c74,657157fc3c149fa70816bc8a,0.0276,0.0276,0,57,57,105,1,fiveseven,,,,,,,,,,,,,,,,,,,,,,,,,,,,,,,,,,,,,,,,,,,,,,,,,,,,,,,,,,,,,,,,,,,,,,,,,,,,,,,,,,,,,,,,,,,,,,,,,,,,,,,,,,,,,,,,,,,,,,,,,,,,,,,,,,,,,,,
,,6507915c6aa0147b8e6b201d,2023-12-07_15h29.07.953,kallum_motion_pilot,2023.2.3,Win32,15.00307563,6507915c6aa0147b8e6b201d,6560176e4d91f764e2a42c74,657157fc3c149fa70816bc8a,0.0277,0.0277,0,58,58,159,1,eightseven,,,,,,,,,,,,,,,,,,,,,,,,,,,,,,,,,,,,,,,,,,,,,,,,,,,,,,,,,,,,,,,,,,,,,,,,,,,,,,,,,,,,,,,,,,,,,,,,,,,,,,,,,,,,,,,,,,,,,,,,,,,,,,,,,,,,,,,
,,6507915c6aa0147b8e6b201d,2023-12-07_15h29.07.953,kallum_motion_pilot,2023.2.3,Win32,15.00307563,6507915c6aa0147b8e6b201d,6560176e4d91f764e2a42c74,657157fc3c149fa70816bc8a,0.0277,0.0278,0,59,59,78,1,fourtwo,,,,,,,,,,,,,,,,,,,,,,,,,,,,,,,,,,,,,,,,,,,,,,,,,,,,,,,,,,,,,,,,,,,,,,,,,,,,,,,,,,,,,,,,,,,,,,,,,,,,,,,,,,,,,,,,,,,,,,,,,,,,,,,,,,,,,,,
,,6507915c6aa0147b8e6b201d,2023-12-07_15h29.07.953,kallum_motion_pilot,2023.2.3,Win32,15.00307563,6507915c6aa0147b8e6b201d,6560176e4d91f764e2a42c74,657157fc3c149fa70816bc8a,0.0279,0.0279,0,60,60,104,1,fivesix,,,,,,,,,,,,,,,,,,,,,,,,,,,,,,,,,,,,,,,,,,,,,,,,,,,,,,,,,,,,,,,,,,,,,,,,,,,,,,,,,,,,,,,,,,,,,,,,,,,,,,,,,,,,,,,,,,,,,,,,,,,,,,,,,,,,,,,
,,6507915c6aa0147b8e6b201d,2023-12-07_15h29.07.953,kallum_motion_pilot,2023.2.3,Win32,15.00307563,6507915c6aa0147b8e6b201d,6560176e4d91f764e2a42c74,657157fc3c149fa70816bc8a,0.0279,0.028,0,61,61,16,1,onetwo,,,,,,,,,,,,,,,,,,,,,,,,,,,,,,,,,,,,,,,,,,,,,,,,,,,,,,,,,,,,,,,,,,,,,,,,,,,,,,,,,,,,,,,,,,,,,,,,,,,,,,,,,,,,,,,,,,,,,,,,,,,,,,,,,,,,,,,
,,6507915c6aa0147b8e6b201d,2023-12-07_15h29.07.953,kallum_motion_pilot,2023.2.3,Win32,15.00307563,6507915c6aa0147b8e6b201d,6560176e4d91f764e2a42c74,657157fc3c149fa70816bc8a,0.0281,0.0281,0,62,62,161,1,fiveseven,,,,,,,,,,,,,,,,,,,,,,,,,,,,,,,,,,,,,,,,,,,,,,,,,,,,,,,,,,,,,,,,,,,,,,,,,,,,,,,,,,,,,,,,,,,,,,,,,,,,,,,,,,,,,,,,,,,,,,,,,,,,,,,,,,,,,,,
,,6507915c6aa0147b8e6b201d,2023-12-07_15h29.07.953,kallum_motion_pilot,2023.2.3,Win32,15.00307563,6507915c6aa0147b8e6b201d,6560176e4d91f764e2a42c74,657157fc3c149fa70816bc8a,0.0281,0.0282,0,63,63,47,1,fourthree,,,,,,,,,,,,,,,,,,,,,,,,,,,,,,,,,,,,,,,,,,,,,,,,,,,,,,,,,,,,,,,,,,,,,,,,,,,,,,,,,,,,,,,,,,,,,,,,,,,,,,,,,,,,,,,,,,,,,,,,,,,,,,,,,,,,,,,
,,6507915c6aa0147b8e6b201d,2023-12-07_15h29.07.953,kallum_motion_pilot,2023.2.3,Win32,15.00307563,6507915c6aa0147b8e6b201d,6560176e4d91f764e2a42c74,657157fc3c149fa70816bc8a,0.0283,0.0283,0,64,64,101,1,seveneight,,,,,,,,,,,,,,,,,,,,,,,,,,,,,,,,,,,,,,,,,,,,,,,,,,,,,,,,,,,,,,,,,,,,,,,,,,,,,,,,,,,,,,,,,,,,,,,,,,,,,,,,,,,,,,,,,,,,,,,,,,,,,,,,,,,,,,,
,,6507915c6aa0147b8e6b201d,2023-12-07_15h29.07.953,kallum_motion_pilot,2023.2.3,Win32,15.00307563,6507915c6aa0147b8e6b201d,6560176e4d91f764e2a42c74,657157fc3c149fa70816bc8a,0.0283,0.0283,0,65,65,22,1,fourtwo,,,,,,,,,,,,,,,,,,,,,,,,,,,,,,,,,,,,,,,,,,,,,,,,,,,,,,,,,,,,,,,,,,,,,,,,,,,,,,,,,,,,,,,,,,,,,,,,,,,,,,,,,,,,,,,,,,,,,,,,,,,,,,,,,,,,,,,
,,6507915c6aa0147b8e6b201d,2023-12-07_15h29.07.953,kallum_motion_pilot,2023.2.3,Win32,15.00307563,6507915c6aa0147b8e6b201d,6560176e4d91f764e2a42c74,657157fc3c149fa70816bc8a,0.0285,0.0285,0,66,66,126,1,eightsix,,,,,,,,,,,,,,,,,,,,,,,,,,,,,,,,,,,,,,,,,,,,,,,,,,,,,,,,,,,,,,,,,,,,,,,,,,,,,,,,,,,,,,,,,,,,,,,,,,,,,,,,,,,,,,,,,,,,,,,,,,,,,,,,,,,,,,,
,,6507915c6aa0147b8e6b201d,2023-12-07_15h29.07.953,kallum_motion_pilot,2023.2.3,Win32,15.00307563,6507915c6aa0147b8e6b201d,6560176e4d91f764e2a42c74,657157fc3c149fa70816bc8a,0.0286,0.0286,0,67,67,107,1,sixeight,,,,,,,,,,,,,,,,,,,,,,,,,,,,,,,,,,,,,,,,,,,,,,,,,,,,,,,,,,,,,,,,,,,,,,,,,,,,,,,,,,,,,,,,,,,,,,,,,,,,,,,,,,,,,,,,,,,,,,,,,,,,,,,,,,,,,,,
,,6507915c6aa0147b8e6b201d,2023-12-07_15h29.07.953,kallum_motion_pilot,2023.2.3,Win32,15.00307563,6507915c6aa0147b8e6b201d,6560176e4d91f764e2a42c74,657157fc3c149fa70816bc8a,0.0287,0.0287,0,68,68,12,1,threeone,,,,,,,,,,,,,,,,,,,,,,,,,,,,,,,,,,,,,,,,,,,,,,,,,,,,,,,,,,,,,,,,,,,,,,,,,,,,,,,,,,,,,,,,,,,,,,,,,,,,,,,,,,,,,,,,,,,,,,,,,,,,,,,,,,,,,,,
,,6507915c6aa0147b8e6b201d,2023-12-07_15h29.07.953,kallum_motion_pilot,2023.2.3,Win32,15.00307563,6507915c6aa0147b8e6b201d,6560176e4d91f764e2a42c74,657157fc3c149fa70816bc8a,0.0287,0.0287,0,69,69,58,1,twoone,,,,,,,,,,,,,,,,,,,,,,,,,,,,,,,,,,,,,,,,,,,,,,,,,,,,,,,,,,,,,,,,,,,,,,,,,,,,,,,,,,,,,,,,,,,,,,,,,,,,,,,,,,,,,,,,,,,,,,,,,,,,,,,,,,,,,,,
,,6507915c6aa0147b8e6b201d,2023-12-07_15h29.07.953,kallum_motion_pilot,2023.2.3,Win32,15.00307563,6507915c6aa0147b8e6b201d,6560176e4d91f764e2a42c74,657157fc3c149fa70816bc8a,0.0289,0.0289,0,70,70,121,1,fiveseven,,,,,,,,,,,,,,,,,,,,,,,,,,,,,,,,,,,,,,,,,,,,,,,,,,,,,,,,,,,,,,,,,,,,,,,,,,,,,,,,,,,,,,,,,,,,,,,,,,,,,,,,,,,,,,,,,,,,,,,,,,,,,,,,,,,,,,,
,,6507915c6aa0147b8e6b201d,2023-12-07_15h29.07.953,kallum_motion_pilot,2023.2.3,Win32,15.00307563,6507915c6aa0147b8e6b201d,6560176e4d91f764e2a42c74,657157fc3c149fa70816bc8a,0.0289,0.0289,0,71,71,151,1,eightseven,,,,,,,,,,,,,,,,,,,,,,,,,,,,,,,,,,,,,,,,,,,,,,,,,,,,,,,,,,,,,,,,,,,,,,,,,,,,,,,,,,,,,,,,,,,,,,,,,,,,,,,,,,,,,,,,,,,,,,,,,,,,,,,,,,,,,,,
,,6507915c6aa0147b8e6b201d,2023-12-07_15h29.07.953,kallum_motion_pilot,2023.2.3,Win32,15.00307563,6507915c6aa0147b8e6b201d,6560176e4d91f764e2a42c74,657157fc3c149fa70816bc8a,0.0291,0.0291,0,72,72,31,1,fourthree,,,,,,,,,,,,,,,,,,,,,,,,,,,,,,,,,,,,,,,,,,,,,,,,,,,,,,,,,,,,,,,,,,,,,,,,,,,,,,,,,,,,,,,,,,,,,,,,,,,,,,,,,,,,,,,,,,,,,,,,,,,,,,,,,,,,,,,
,,6507915c6aa0147b8e6b201d,2023-12-07_15h29.07.953,kallum_motion_pilot,2023.2.3,Win32,15.00307563,6507915c6aa0147b8e6b201d,6560176e4d91f764e2a42c74,657157fc3c149fa70816bc8a,0.0291,0.0291,0,73,73,153,1,fiveseven,,,,,,,,,,,,,,,,,,,,,,,,,,,,,,,,,,,,,,,,,,,,,,,,,,,,,,,,,,,,,,,,,,,,,,,,,,,,,,,,,,,,,,,,,,,,,,,,,,,,,,,,,,,,,,,,,,,,,,,,,,,,,,,,,,,,,,,
,,6507915c6aa0147b8e6b201d,2023-12-07_15h29.07.953,kallum_motion_pilot,2023.2.3,Win32,15.00307563,6507915c6aa0147b8e6b201d,6560176e4d91f764e2a42c74,657157fc3c149fa70816bc8a,0.0292,0.0292,0,74,74,113,1,fiveseven,,,,,,,,,,,,,,,,,,,,,,,,,,,,,,,,,,,,,,,,,,,,,,,,,,,,,,,,,,,,,,,,,,,,,,,,,,,,,,,,,,,,,,,,,,,,,,,,,,,,,,,,,,,,,,,,,,,,,,,,,,,,,,,,,,,,,,,
,,6507915c6aa0147b8e6b201d,2023-12-07_15h29.07.953,kallum_motion_pilot,2023.2.3,Win32,15.00307563,6507915c6aa0147b8e6b201d,6560176e4d91f764e2a42c74,657157fc3c149fa70816bc8a,0.0293,0.0294,0,75,75,59,1,twofour,,,,,,,,,,,,,,,,,,,,,,,,,,,,,,,,,,,,,,,,,,,,,,,,,,,,,,,,,,,,,,,,,,,,,,,,,,,,,,,,,,,,,,,,,,,,,,,,,,,,,,,,,,,,,,,,,,,,,,,,,,,,,,,,,,,,,,,
,,6507915c6aa0147b8e6b201d,2023-12-07_15h29.07.953,kallum_motion_pilot,2023.2.3,Win32,15.00307563,6507915c6aa0147b8e6b201d,6560176e4d91f764e2a42c74,657157fc3c149fa70816bc8a,0.0295,0.0295,0,76,76,35,1,twofour,,,,,,,,,,,,,,,,,,,,,,,,,,,,,,,,,,,,,,,,,,,,,,,,,,,,,,,,,,,,,,,,,,,,,,,,,,,,,,,,,,,,,,,,,,,,,,,,,,,,,,,,,,,,,,,,,,,,,,,,,,,,,,,,,,,,,,,
,,6507915c6aa0147b8e6b201d,2023-12-07_15h29.07.953,kallum_motion_pilot,2023.2.3,Win32,15.00307563,6507915c6aa0147b8e6b201d,6560176e4d91f764e2a42c74,657157fc3c149fa70816bc8a,0.0295,0.0295,0,77,77,157,1,seveneight,,,,,,,,,,,,,,,,,,,,,,,,,,,,,,,,,,,,,,,,,,,,,,,,,,,,,,,,,,,,,,,,,,,,,,,,,,,,,,,,,,,,,,,,,,,,,,,,,,,,,,,,,,,,,,,,,,,,,,,,,,,,,,,,,,,,,,,
,,6507915c6aa0147b8e6b201d,2023-12-07_15h29.07.953,kallum_motion_pilot,2023.2.3,Win32,15.00307563,6507915c6aa0147b8e6b201d,6560176e4d91f764e2a42c74,657157fc3c149fa70816bc8a,0.0296,0.0296,0,78,78,38,1,fourtwo,,,,,,,,,,,,,,,,,,,,,,,,,,,,,,,,,,,,,,,,,,,,,,,,,,,,,,,,,,,,,,,,,,,,,,,,,,,,,,,,,,,,,,,,,,,,,,,,,,,,,,,,,,,,,,,,,,,,,,,,,,,,,,,,,,,,,,,
,,6507915c6aa0147b8e6b201d,2023-12-07_15h29.07.953,kallum_motion_pilot,2023.2.3,Win32,15.00307563,6507915c6aa0147b8e6b201d,6560176e4d91f764e2a42c74,657157fc3c149fa70816bc8a,0.0297,0.0297,0,79,79,25,1,onethree,,,,,,,,,,,,,,,,,,,,,,,,,,,,,,,,,,,,,,,,,,,,,,,,,,,,,,,,,,,,,,,,,,,,,,,,,,,,,,,,,,,,,,,,,,,,,,,,,,,,,,,,,,,,,,,,,,,,,,,,,,,,,,,,,,,,,,,
,,6507915c6aa0147b8e6b201d,2023-12-07_15h29.07.953,kallum_motion_pilot,2023.2.3,Win32,15.00307563,6507915c6aa0147b8e6b201d,6560176e4d91f764e2a42c74,657157fc3c149fa70816bc8a,0.0298,0.0299,0,80,80,39,1,fourthree,,,,,,,,,,,,,,,,,,,,,,,,,,,,,,,,,,,,,,,,,,,,,,,,,,,,,,,,,,,,,,,,,,,,,,,,,,,,,,,,,,,,,,,,,,,,,,,,,,,,,,,,,,,,,,,,,,,,,,,,,,,,,,,,,,,,,,,
,,6507915c6aa0147b8e6b201d,2023-12-07_15h29.07.953,kallum_motion_pilot,2023.2.3,Win32,15.00307563,6507915c6aa0147b8e6b201d,6560176e4d91f764e2a42c74,657157fc3c149fa70816bc8a,0.0299,0.0299,0,81,81,50,1,twoone,,,,,,,,,,,,,,,,,,,,,,,,,,,,,,,,,,,,,,,,,,,,,,,,,,,,,,,,,,,,,,,,,,,,,,,,,,,,,,,,,,,,,,,,,,,,,,,,,,,,,,,,,,,,,,,,,,,,,,,,,,,,,,,,,,,,,,,
,,6507915c6aa0147b8e6b201d,2023-12-07_15h29.07.953,kallum_motion_pilot,2023.2.3,Win32,15.00307563,6507915c6aa0147b8e6b201d,6560176e4d91f764e2a42c74,657157fc3c149fa70816bc8a,0.03,0.03,0,82,82,132,1,sevenfive,,,,,,,,,,,,,,,,,,,,,,,,,,,,,,,,,,,,,,,,,,,,,,,,,,,,,,,,,,,,,,,,,,,,,,,,,,,,,,,,,,,,,,,,,,,,,,,,,,,,,,,,,,,,,,,,,,,,,,,,,,,,,,,,,,,,,,,
,,6507915c6aa0147b8e6b201d,2023-12-07_15h29.07.953,kallum_motion_pilot,2023.2.3,Win32,15.00307563,6507915c6aa0147b8e6b201d,6560176e4d91f764e2a42c74,657157fc3c149fa70816bc8a,0.0301,0.0301,0,83,83,94,1,eightsix,,,,,,,,,,,,,,,,,,,,,,,,,,,,,,,,,,,,,,,,,,,,,,,,,,,,,,,,,,,,,,,,,,,,,,,,,,,,,,,,,,,,,,,,,,,,,,,,,,,,,,,,,,,,,,,,,,,,,,,,,,,,,,,,,,,,,,,
,,6507915c6aa0147b8e6b201d,2023-12-07_15h29.07.953,kallum_motion_pilot,2023.2.3,Win32,15.00307563,6507915c6aa0147b8e6b201d,6560176e4d91f764e2a42c74,657157fc3c149fa70816bc8a,0.0301,0.0302,0,84,84,127,1,eightseven,,,,,,,,,,,,,,,,,,,,,,,,,,,,,,,,,,,,,,,,,,,,,,,,,,,,,,,,,,,,,,,,,,,,,,,,,,,,,,,,,,,,,,,,,,,,,,,,,,,,,,,,,,,,,,,,,,,,,,,,,,,,,,,,,,,,,,,
,,6507915c6aa0147b8e6b201d,2023-12-07_15h29.07.953,kallum_motion_pilot,2023.2.3,Win32,15.00307563,6507915c6aa0147b8e6b201d,6560176e4d91f764e2a42c74,657157fc3c149fa70816bc8a,0.0302,0.0303,0,85,85,158,1,eightsix,,,,,,,,,,,,,,,,,,,,,,,,,,,,,,,,,,,,,,,,,,,,,,,,,,,,,,,,,,,,,,,,,,,,,,,,,,,,,,,,,,,,,,,,,,,,,,,,,,,,,,,,,,,,,,,,,,,,,,,,,,,,,,,,,,,,,,,
,,6507915c6aa0147b8e6b201d,2023-12-07_15h29.07.953,kallum_motion_pilot,2023.2.3,Win32,15.00307563,6507915c6aa0147b8e6b201d,6560176e4d91f764e2a42c74,657157fc3c149fa70816bc8a,0.0304,0.0304,0,86,86,18,1,twoone,,,,,,,,,,,,,,,,,,,,,,,,,,,,,,,,,,,,,,,,,,,,,,,,,,,,,,,,,,,,,,,,,,,,,,,,,,,,,,,,,,,,,,,,,,,,,,,,,,,,,,,,,,,,,,,,,,,,,,,,,,,,,,,,,,,,,,,
,,6507915c6aa0147b8e6b201d,2023-12-07_15h29.07.953,kallum_motion_pilot,2023.2.3,Win32,15.00307563,6507915c6aa0147b8e6b201d,6560176e4d91f764e2a42c74,657157fc3c149fa70816bc8a,0.0305,0.0305,0,87,87,116,1,sevenfive,,,,,,,,,,,,,,,,,,,,,,,,,,,,,,,,,,,,,,,,,,,,,,,,,,,,,,,,,,,,,,,,,,,,,,,,,,,,,,,,,,,,,,,,,,,,,,,,,,,,,,,,,,,,,,,,,,,,,,,,,,,,,,,,,,,,,,,
,,6507915c6aa0147b8e6b201d,2023-12-07_15h29.07.953,kallum_motion_pilot,2023.2.3,Win32,15.00307563,6507915c6aa0147b8e6b201d,6560176e4d91f764e2a42c74,657157fc3c149fa70816bc8a,0.0306,0.0307,0,88,88,146,1,sixfive,,,,,,,,,,,,,,,,,,,,,,,,,,,,,,,,,,,,,,,,,,,,,,,,,,,,,,,,,,,,,,,,,,,,,,,,,,,,,,,,,,,,,,,,,,,,,,,,,,,,,,,,,,,,,,,,,,,,,,,,,,,,,,,,,,,,,,,
,,6507915c6aa0147b8e6b201d,2023-12-07_15h29.07.953,kallum_motion_pilot,2023.2.3,Win32,15.00307563,6507915c6aa0147b8e6b201d,6560176e4d91f764e2a42c74,657157fc3c149fa70816bc8a,0.0307,0.0307,0,89,89,21,1,threefour,,,,,,,,,,,,,,,,,,,,,,,,,,,,,,,,,,,,,,,,,,,,,,,,,,,,,,,,,,,,,,,,,,,,,,,,,,,,,,,,,,,,,,,,,,,,,,,,,,,,,,,,,,,,,,,,,,,,,,,,,,,,,,,,,,,,,,,
,,6507915c6aa0147b8e6b201d,2023-12-07_15h29.07.953,kallum_motion_pilot,2023.2.3,Win32,15.00307563,6507915c6aa0147b8e6b201d,6560176e4d91f764e2a42c74,657157fc3c149fa70816bc8a,0.0308,0.0308,0,90,90,42,1,twoone,,,,,,,,,,,,,,,,,,,,,,,,,,,,,,,,,,,,,,,,,,,,,,,,,,,,,,,,,,,,,,,,,,,,,,,,,,,,,,,,,,,,,,,,,,,,,,,,,,,,,,,,,,,,,,,,,,,,,,,,,,,,,,,,,,,,,,,
,,6507915c6aa0147b8e6b201d,2023-12-07_15h29.07.953,kallum_motion_pilot,2023.2.3,Win32,15.00307563,6507915c6aa0147b8e6b201d,6560176e4d91f764e2a42c74,657157fc3c149fa70816bc8a,0.0309,0.0309,0,91,91,111,1,eightseven,,,,,,,,,,,,,,,,,,,,,,,,,,,,,,,,,,,,,,,,,,,,,,,,,,,,,,,,,,,,,,,,,,,,,,,,,,,,,,,,,,,,,,,,,,,,,,,,,,,,,,,,,,,,,,,,,,,,,,,,,,,,,,,,,,,,,,,
,,6507915c6aa0147b8e6b201d,2023-12-07_15h29.07.953,kallum_motion_pilot,2023.2.3,Win32,15.00307563,6507915c6aa0147b8e6b201d,6560176e4d91f764e2a42c74,657157fc3c149fa70816bc8a,0.031,0.031,0,92,92,3,1,twofour,,,,,,,,,,,,,,,,,,,,,,,,,,,,,,,,,,,,,,,,,,,,,,,,,,,,,,,,,,,,,,,,,,,,,,,,,,,,,,,,,,,,,,,,,,,,,,,,,,,,,,,,,,,,,,,,,,,,,,,,,,,,,,,,,,,,,,,
,,6507915c6aa0147b8e6b201d,2023-12-07_15h29.07.953,kallum_motion_pilot,2023.2.3,Win32,15.00307563,6507915c6aa0147b8e6b201d,6560176e4d91f764e2a42c74,657157fc3c149fa70816bc8a,0.0311,0.0311,0,93,93,27,1,twofour,,,,,,,,,,,,,,,,,,,,,,,,,,,,,,,,,,,,,,,,,,,,,,,,,,,,,,,,,,,,,,,,,,,,,,,,,,,,,,,,,,,,,,,,,,,,,,,,,,,,,,,,,,,,,,,,,,,,,,,,,,,,,,,,,,,,,,,
,,6507915c6aa0147b8e6b201d,2023-12-07_15h29.07.953,kallum_motion_pilot,2023.2.3,Win32,15.00307563,6507915c6aa0147b8e6b201d,6560176e4d91f764e2a42c74,657157fc3c149fa70816bc8a,0.0312,0.0312,0,94,94,95,1,eightseven,,,,,,,,,,,,,,,,,,,,,,,,,,,,,,,,,,,,,,,,,,,,,,,,,,,,,,,,,,,,,,,,,,,,,,,,,,,,,,,,,,,,,,,,,,,,,,,,,,,,,,,,,,,,,,,,,,,,,,,,,,,,,,,,,,,,,,,
,,6507915c6aa0147b8e6b201d,2023-12-07_15h29.07.953,kallum_motion_pilot,2023.2.3,Win32,15.00307563,6507915c6aa0147b8e6b201d,6560176e4d91f764e2a42c74,657157fc3c149fa70816bc8a,0.0313,0.0313,0,95,95,20,1,threeone,,,,,,,,,,,,,,,,,,,,,,,,,,,,,,,,,,,,,,,,,,,,,,,,,,,,,,,,,,,,,,,,,,,,,,,,,,,,,,,,,,,,,,,,,,,,,,,,,,,,,,,,,,,,,,,,,,,,,,,,,,,,,,,,,,,,,,,
,,6507915c6aa0147b8e6b201d,2023-12-07_15h29.07.953,kallum_motion_pilot,2023.2.3,Win32,15.00307563,6507915c6aa0147b8e6b201d,6560176e4d91f764e2a42c74,657157fc3c149fa70816bc8a,0.0314,0.0315,0,96,96,136,1,fivesix,,,,,,,,,,,,,,,,,,,,,,,,,,,,,,,,,,,,,,,,,,,,,,,,,,,,,,,,,,,,,,,,,,,,,,,,,,,,,,,,,,,,,,,,,,,,,,,,,,,,,,,,,,,,,,,,,,,,,,,,,,,,,,,,,,,,,,,
,,6507915c6aa0147b8e6b201d,2023-12-07_15h29.07.953,kallum_motion_pilot,2023.2.3,Win32,15.00307563,6507915c6aa0147b8e6b201d,6560176e4d91f764e2a42c74,657157fc3c149fa70816bc8a,0.0316,0.0316,0,97,97,68,1,threeone,,,,,,,,,,,,,,,,,,,,,,,,,,,,,,,,,,,,,,,,,,,,,,,,,,,,,,,,,,,,,,,,,,,,,,,,,,,,,,,,,,,,,,,,,,,,,,,,,,,,,,,,,,,,,,,,,,,,,,,,,,,,,,,,,,,,,,,
,,6507915c6aa0147b8e6b201d,2023-12-07_15h29.07.953,kallum_motion_pilot,2023.2.3,Win32,15.00307563,6507915c6aa0147b8e6b201d,6560176e4d91f764e2a42c74,657157fc3c149fa70816bc8a,0.0316,0.0316,0,98,98,74,1,twoone,,,,,,,,,,,,,,,,,,,,,,,,,,,,,,,,,,,,,,,,,,,,,,,,,,,,,,,,,,,,,,,,,,,,,,,,,,,,,,,,,,,,,,,,,,,,,,,,,,,,,,,,,,,,,,,,,,,,,,,,,,,,,,,,,,,,,,,
,,6507915c6aa0147b8e6b201d,2023-12-07_15h29.07.953,kallum_motion_pilot,2023.2.3,Win32,15.00307563,6507915c6aa0147b8e6b201d,6560176e4d91f764e2a42c74,657157fc3c149fa70816bc8a,0.0318,0.0318,0,99,99,87,1,eightseven,,,,,,,,,,,,,,,,,,,,,,,,,,,,,,,,,,,,,,,,,,,,,,,,,,,,,,,,,,,,,,,,,,,,,,,,,,,,,,,,,,,,,,,,,,,,,,,,,,,,,,,,,,,,,,,,,,,,,,,,,,,,,,,,,,,,,,,
,,6507915c6aa0147b8e6b201d,2023-12-07_15h29.07.953,kallum_motion_pilot,2023.2.3,Win32,15.00307563,6507915c6aa0147b8e6b201d,6560176e4d91f764e2a42c74,657157fc3c149fa70816bc8a,0.0318,0.0318,0,100,100,32,1,onetwo,,,,,,,,,,,,,,,,,,,,,,,,,,,,,,,,,,,,,,,,,,,,,,,,,,,,,,,,,,,,,,,,,,,,,,,,,,,,,,,,,,,,,,,,,,,,,,,,,,,,,,,,,,,,,,,,,,,,,,,,,,,,,,,,,,,,,,,
,,6507915c6aa0147b8e6b201d,2023-12-07_15h29.07.953,kallum_motion_pilot,2023.2.3,Win32,15.00307563,6507915c6aa0147b8e6b201d,6560176e4d91f764e2a42c74,657157fc3c149fa70816bc8a,0.0319,0.0319,0,101,101,5,1,threefour,,,,,,,,,,,,,,,,,,,,,,,,,,,,,,,,,,,,,,,,,,,,,,,,,,,,,,,,,,,,,,,,,,,,,,,,,,,,,,,,,,,,,,,,,,,,,,,,,,,,,,,,,,,,,,,,,,,,,,,,,,,,,,,,,,,,,,,
,,6507915c6aa0147b8e6b201d,2023-12-07_15h29.07.953,kallum_motion_pilot,2023.2.3,Win32,15.00307563,6507915c6aa0147b8e6b201d,6560176e4d91f764e2a42c74,657157fc3c149fa70816bc8a,0.0321,0.0321,0,102,102,60,1,threeone,,,,,,,,,,,,,,,,,,,,,,,,,,,,,,,,,,,,,,,,,,,,,,,,,,,,,,,,,,,,,,,,,,,,,,,,,,,,,,,,,,,,,,,,,,,,,,,,,,,,,,,,,,,,,,,,,,,,,,,,,,,,,,,,,,,,,,,
,,6507915c6aa0147b8e6b201d,2023-12-07_15h29.07.953,kallum_motion_pilot,2023.2.3,Win32,15.00307563,6507915c6aa0147b8e6b201d,6560176e4d91f764e2a42c74,657157fc3c149fa70816bc8a,0.0321,0.0322,0,103,103,33,1,onethree,,,,,,,,,,,,,,,,,,,,,,,,,,,,,,,,,,,,,,,,,,,,,,,,,,,,,,,,,,,,,,,,,,,,,,,,,,,,,,,,,,,,,,,,,,,,,,,,,,,,,,,,,,,,,,,,,,,,,,,,,,,,,,,,,,,,,,,
,,6507915c6aa0147b8e6b201d,2023-12-07_15h29.07.953,kallum_motion_pilot,2023.2.3,Win32,15.00307563,6507915c6aa0147b8e6b201d,6560176e4d91f764e2a42c74,657157fc3c149fa70816bc8a,0.0322,0.0323,0,104,104,129,1,fiveseven,,,,,,,,,,,,,,,,,,,,,,,,,,,,,,,,,,,,,,,,,,,,,,,,,,,,,,,,,,,,,,,,,,,,,,,,,,,,,,,,,,,,,,,,,,,,,,,,,,,,,,,,,,,,,,,,,,,,,,,,,,,,,,,,,,,,,,,
,,6507915c6aa0147b8e6b201d,2023-12-07_15h29.07.953,kallum_motion_pilot,2023.2.3,Win32,15.00307563,6507915c6aa0147b8e6b201d,6560176e4d91f764e2a42c74,657157fc3c149fa70816bc8a,0.0323,0.0324,0,105,105,40,1,onetwo,,,,,,,,,,,,,,,,,,,,,,,,,,,,,,,,,,,,,,,,,,,,,,,,,,,,,,,,,,,,,,,,,,,,,,,,,,,,,,,,,,,,,,,,,,,,,,,,,,,,,,,,,,,,,,,,,,,,,,,,,,,,,,,,,,,,,,,
,,6507915c6aa0147b8e6b201d,2023-12-07_15h29.07.953,kallum_motion_pilot,2023.2.3,Win32,15.00307563,6507915c6aa0147b8e6b201d,6560176e4d91f764e2a42c74,657157fc3c149fa70816bc8a,0.0325,0.0325,0,106,106,29,1,threefour,,,,,,,,,,,,,,,,,,,,,,,,,,,,,,,,,,,,,,,,,,,,,,,,,,,,,,,,,,,,,,,,,,,,,,,,,,,,,,,,,,,,,,,,,,,,,,,,,,,,,,,,,,,,,,,,,,,,,,,,,,,,,,,,,,,,,,,
,,6507915c6aa0147b8e6b201d,2023-12-07_15h29.07.953,kallum_motion_pilot,2023.2.3,Win32,15.00307563,6507915c6aa0147b8e6b201d,6560176e4d91f764e2a42c74,657157fc3c149fa70816bc8a,0.0326,0.0326,0,107,107,123,1,sixeight,,,,,,,,,,,,,,,,,,,,,,,,,,,,,,,,,,,,,,,,,,,,,,,,,,,,,,,,,,,,,,,,,,,,,,,,,,,,,,,,,,,,,,,,,,,,,,,,,,,,,,,,,,,,,,,,,,,,,,,,,,,,,,,,,,,,,,,
,,6507915c6aa0147b8e6b201d,2023-12-07_15h29.07.953,kallum_motion_pilot,2023.2.3,Win32,15.00307563,6507915c6aa0147b8e6b201d,6560176e4d91f764e2a42c74,657157fc3c149fa70816bc8a,0.0327,0.0327,0,108,108,37,1,threefour,,,,,,,,,,,,,,,,,,,,,,,,,,,,,,,,,,,,,,,,,,,,,,,,,,,,,,,,,,,,,,,,,,,,,,,,,,,,,,,,,,,,,,,,,,,,,,,,,,,,,,,,,,,,,,,,,,,,,,,,,,,,,,,,,,,,,,,
,,6507915c6aa0147b8e6b201d,2023-12-07_15h29.07.953,kallum_motion_pilot,2023.2.3,Win32,15.00307563,6507915c6aa0147b8e6b201d,6560176e4d91f764e2a42c74,657157fc3c149fa70816bc8a,0.0328,0.0328,0,109,109,46,1,fourtwo,,,,,,,,,,,,,,,,,,,,,,,,,,,,,,,,,,,,,,,,,,,,,,,,,,,,,,,,,,,,,,,,,,,,,,,,,,,,,,,,,,,,,,,,,,,,,,,,,,,,,,,,,,,,,,,,,,,,,,,,,,,,,,,,,,,,,,,
,,6507915c6aa0147b8e6b201d,2023-12-07_15h29.07.953,kallum_motion_pilot,2023.2.3,Win32,15.00307563,6507915c6aa0147b8e6b201d,6560176e4d91f764e2a42c74,657157fc3c149fa70816bc8a,0.0329,0.0329,0,110,110,122,1,sixfive,,,,,,,,,,,,,,,,,,,,,,,,,,,,,,,,,,,,,,,,,,,,,,,,,,,,,,,,,,,,,,,,,,,,,,,,,,,,,,,,,,,,,,,,,,,,,,,,,,,,,,,,,,,,,,,,,,,,,,,,,,,,,,,,,,,,,,,
,,6507915c6aa0147b8e6b201d,2023-12-07_15h29.07.953,kallum_motion_pilot,2023.2.3,Win32,15.00307563,6507915c6aa0147b8e6b201d,6560176e4d91f764e2a42c74,657157fc3c149fa70816bc8a,0.0329,0.033,0,111,111,66,1,twoone,,,,,,,,,,,,,,,,,,,,,,,,,,,,,,,,,,,,,,,,,,,,,,,,,,,,,,,,,,,,,,,,,,,,,,,,,,,,,,,,,,,,,,,,,,,,,,,,,,,,,,,,,,,,,,,,,,,,,,,,,,,,,,,,,,,,,,,
,,6507915c6aa0147b8e6b201d,2023-12-07_15h29.07.953,kallum_motion_pilot,2023.2.3,Win32,15.00307563,6507915c6aa0147b8e6b201d,6560176e4d91f764e2a42c74,657157fc3c149fa70816bc8a,0.0331,0.0331,0,112,112,130,1,sixfive,,,,,,,,,,,,,,,,,,,,,,,,,,,,,,,,,,,,,,,,,,,,,,,,,,,,,,,,,,,,,,,,,,,,,,,,,,,,,,,,,,,,,,,,,,,,,,,,,,,,,,,,,,,,,,,,,,,,,,,,,,,,,,,,,,,,,,,
,,6507915c6aa0147b8e6b201d,2023-12-07_15h29.07.953,kallum_motion_pilot,2023.2.3,Win32,15.00307563,6507915c6aa0147b8e6b201d,6560176e4d91f764e2a42c74,657157fc3c149fa70816bc8a,0.0332,0.0332,0,113,113,43,1,twofour,,,,,,,,,,,,,,,,,,,,,,,,,,,,,,,,,,,,,,,,,,,,,,,,,,,,,,,,,,,,,,,,,,,,,,,,,,,,,,,,,,,,,,,,,,,,,,,,,,,,,,,,,,,,,,,,,,,,,,,,,,,,,,,,,,,,,,,
,,6507915c6aa0147b8e6b201d,2023-12-07_15h29.07.953,kallum_motion_pilot,2023.2.3,Win32,15.00307563,6507915c6aa0147b8e6b201d,6560176e4d91f764e2a42c74,657157fc3c149fa70816bc8a,0.0333,0.0333,0,114,114,154,1,sixfive,,,,,,,,,,,,,,,,,,,,,,,,,,,,,,,,,,,,,,,,,,,,,,,,,,,,,,,,,,,,,,,,,,,,,,,,,,,,,,,,,,,,,,,,,,,,,,,,,,,,,,,,,,,,,,,,,,,,,,,,,,,,,,,,,,,,,,,
,,6507915c6aa0147b8e6b201d,2023-12-07_15h29.07.953,kallum_motion_pilot,2023.2.3,Win32,15.00307563,6507915c6aa0147b8e6b201d,6560176e4d91f764e2a42c74,657157fc3c149fa70816bc8a,0.0334,0.0334,0,115,115,7,1,fourthree,,,,,,,,,,,,,,,,,,,,,,,,,,,,,,,,,,,,,,,,,,,,,,,,,,,,,,,,,,,,,,,,,,,,,,,,,,,,,,,,,,,,,,,,,,,,,,,,,,,,,,,,,,,,,,,,,,,,,,,,,,,,,,,,,,,,,,,
,,6507915c6aa0147b8e6b201d,2023-12-07_15h29.07.953,kallum_motion_pilot,2023.2.3,Win32,15.00307563,6507915c6aa0147b8e6b201d,6560176e4d91f764e2a42c74,657157fc3c149fa70816bc8a,0.0335,0.0335,0,116,116,84,1,sevenfive,,,,,,,,,,,,,,,,,,,,,,,,,,,,,,,,,,,,,,,,,,,,,,,,,,,,,,,,,,,,,,,,,,,,,,,,,,,,,,,,,,,,,,,,,,,,,,,,,,,,,,,,,,,,,,,,,,,,,,,,,,,,,,,,,,,,,,,
,,6507915c6aa0147b8e6b201d,2023-12-07_15h29.07.953,kallum_motion_pilot,2023.2.3,Win32,15.00307563,6507915c6aa0147b8e6b201d,6560176e4d91f764e2a42c74,657157fc3c149fa70816bc8a,0.0336,0.0336,0,117,117,155,1,sixeight,,,,,,,,,,,,,,,,,,,,,,,,,,,,,,,,,,,,,,,,,,,,,,,,,,,,,,,,,,,,,,,,,,,,,,,,,,,,,,,,,,,,,,,,,,,,,,,,,,,,,,,,,,,,,,,,,,,,,,,,,,,,,,,,,,,,,,,
,,6507915c6aa0147b8e6b201d,2023-12-07_15h29.07.953,kallum_motion_pilot,2023.2.3,Win32,15.00307563,6507915c6aa0147b8e6b201d,6560176e4d91f764e2a42c74,657157fc3c149fa70816bc8a,0.0337,0.0338,0,118,118,100,1,sevenfive,,,,,,,,,,,,,,,,,,,,,,,,,,,,,,,,,,,,,,,,,,,,,,,,,,,,,,,,,,,,,,,,,,,,,,,,,,,,,,,,,,,,,,,,,,,,,,,,,,,,,,,,,,,,,,,,,,,,,,,,,,,,,,,,,,,,,,,
,,6507915c6aa0147b8e6b201d,2023-12-07_15h29.07.953,kallum_motion_pilot,2023.2.3,Win32,15.00307563,6507915c6aa0147b8e6b201d,6560176e4d91f764e2a42c74,657157fc3c149fa70816bc8a,0.0338,0.0339,0,119,119,8,1,onetwo,,,,,,,,,,,,,,,,,,,,,,,,,,,,,,,,,,,,,,,,,,,,,,,,,,,,,,,,,,,,,,,,,,,,,,,,,,,,,,,,,,,,,,,,,,,,,,,,,,,,,,,,,,,,,,,,,,,,,,,,,,,,,,,,,,,,,,,
,,6507915c6aa0147b8e6b201d,2023-12-07_15h29.07.953,kallum_motion_pilot,2023.2.3,Win32,15.00307563,6507915c6aa0147b8e6b201d,6560176e4d91f764e2a42c74,657157fc3c149fa70816bc8a,0.0339,0.034,0,120,120,117,1,seveneight,,,,,,,,,,,,,,,,,,,,,,,,,,,,,,,,,,,,,,,,,,,,,,,,,,,,,,,,,,,,,,,,,,,,,,,,,,,,,,,,,,,,,,,,,,,,,,,,,,,,,,,,,,,,,,,,,,,,,,,,,,,,,,,,,,,,,,,
,,6507915c6aa0147b8e6b201d,2023-12-07_15h29.07.953,kallum_motion_pilot,2023.2.3,Win32,15.00307563,6507915c6aa0147b8e6b201d,6560176e4d91f764e2a42c74,657157fc3c149fa70816bc8a,0.0341,0.0341,0,121,121,15,1,fourthree,,,,,,,,,,,,,,,,,,,,,,,,,,,,,,,,,,,,,,,,,,,,,,,,,,,,,,,,,,,,,,,,,,,,,,,,,,,,,,,,,,,,,,,,,,,,,,,,,,,,,,,,,,,,,,,,,,,,,,,,,,,,,,,,,,,,,,,
,,6507915c6aa0147b8e6b201d,2023-12-07_15h29.07.953,kallum_motion_pilot,2023.2.3,Win32,15.00307563,6507915c6aa0147b8e6b201d,6560176e4d91f764e2a42c74,657157fc3c149fa70816bc8a,0.0341,0.0341,0,122,122,124,1,sevenfive,,,,,,,,,,,,,,,,,,,,,,,,,,,,,,,,,,,,,,,,,,,,,,,,,,,,,,,,,,,,,,,,,,,,,,,,,,,,,,,,,,,,,,,,,,,,,,,,,,,,,,,,,,,,,,,,,,,,,,,,,,,,,,,,,,,,,,,
,,6507915c6aa0147b8e6b201d,2023-12-07_15h29.07.953,kallum_motion_pilot,2023.2.3,Win32,15.00307563,6507915c6aa0147b8e6b201d,6560176e4d91f764e2a42c74,657157fc3c149fa70816bc8a,0.0343,0.0343,0,123,123,99,1,sixeight,,,,,,,,,,,,,,,,,,,,,,,,,,,,,,,,,,,,,,,,,,,,,,,,,,,,,,,,,,,,,,,,,,,,,,,,,,,,,,,,,,,,,,,,,,,,,,,,,,,,,,,,,,,,,,,,,,,,,,,,,,,,,,,,,,,,,,,
,,6507915c6aa0147b8e6b201d,2023-12-07_15h29.07.953,kallum_motion_pilot,2023.2.3,Win32,15.00307563,6507915c6aa0147b8e6b201d,6560176e4d91f764e2a42c74,657157fc3c149fa70816bc8a,0.0344,0.0344,0,124,124,10,1,twoone,,,,,,,,,,,,,,,,,,,,,,,,,,,,,,,,,,,,,,,,,,,,,,,,,,,,,,,,,,,,,,,,,,,,,,,,,,,,,,,,,,,,,,,,,,,,,,,,,,,,,,,,,,,,,,,,,,,,,,,,,,,,,,,,,,,,,,,
,,6507915c6aa0147b8e6b201d,2023-12-07_15h29.07.953,kallum_motion_pilot,2023.2.3,Win32,15.00307563,6507915c6aa0147b8e6b201d,6560176e4d91f764e2a42c74,657157fc3c149fa70816bc8a,0.0344,0.0344,0,125,125,134,1,eightsix,,,,,,,,,,,,,,,,,,,,,,,,,,,,,,,,,,,,,,,,,,,,,,,,,,,,,,,,,,,,,,,,,,,,,,,,,,,,,,,,,,,,,,,,,,,,,,,,,,,,,,,,,,,,,,,,,,,,,,,,,,,,,,,,,,,,,,,
,,6507915c6aa0147b8e6b201d,2023-12-07_15h29.07.953,kallum_motion_pilot,2023.2.3,Win32,15.00307563,6507915c6aa0147b8e6b201d,6560176e4d91f764e2a42c74,657157fc3c149fa70816bc8a,0.0346,0.0346,0,126,126,106,1,sixfive,,,,,,,,,,,,,,,,,,,,,,,,,,,,,,,,,,,,,,,,,,,,,,,,,,,,,,,,,,,,,,,,,,,,,,,,,,,,,,,,,,,,,,,,,,,,,,,,,,,,,,,,,,,,,,,,,,,,,,,,,,,,,,,,,,,,,,,
,,6507915c6aa0147b8e6b201d,2023-12-07_15h29.07.953,kallum_motion_pilot,2023.2.3,Win32,15.00307563,6507915c6aa0147b8e6b201d,6560176e4d91f764e2a42c74,657157fc3c149fa70816bc8a,0.0347,0.0347,0,127,127,44,1,threeone,,,,,,,,,,,,,,,,,,,,,,,,,,,,,,,,,,,,,,,,,,,,,,,,,,,,,,,,,,,,,,,,,,,,,,,,,,,,,,,,,,,,,,,,,,,,,,,,,,,,,,,,,,,,,,,,,,,,,,,,,,,,,,,,,,,,,,,
,,6507915c6aa0147b8e6b201d,2023-12-07_15h29.07.953,kallum_motion_pilot,2023.2.3,Win32,15.00307563,6507915c6aa0147b8e6b201d,6560176e4d91f764e2a42c74,657157fc3c149fa70816bc8a,0.0348,0.0348,0,128,128,51,1,twofour,,,,,,,,,,,,,,,,,,,,,,,,,,,,,,,,,,,,,,,,,,,,,,,,,,,,,,,,,,,,,,,,,,,,,,,,,,,,,,,,,,,,,,,,,,,,,,,,,,,,,,,,,,,,,,,,,,,,,,,,,,,,,,,,,,,,,,,
,,6507915c6aa0147b8e6b201d,2023-12-07_15h29.07.953,kallum_motion_pilot,2023.2.3,Win32,15.00307563,6507915c6aa0147b8e6b201d,6560176e4d91f764e2a42c74,657157fc3c149fa70816bc8a,0.035,0.035,0,129,129,140,1,sevenfive,,,,,,,,,,,,,,,,,,,,,,,,,,,,,,,,,,,,,,,,,,,,,,,,,,,,,,,,,,,,,,,,,,,,,,,,,,,,,,,,,,,,,,,,,,,,,,,,,,,,,,,,,,,,,,,,,,,,,,,,,,,,,,,,,,,,,,,
,,6507915c6aa0147b8e6b201d,2023-12-07_15h29.07.953,kallum_motion_pilot,2023.2.3,Win32,15.00307563,6507915c6aa0147b8e6b201d,6560176e4d91f764e2a42c74,657157fc3c149fa70816bc8a,0.0351,0.0351,0,130,130,89,1,fiveseven,,,,,,,,,,,,,,,,,,,,,,,,,,,,,,,,,,,,,,,,,,,,,,,,,,,,,,,,,,,,,,,,,,,,,,,,,,,,,,,,,,,,,,,,,,,,,,,,,,,,,,,,,,,,,,,,,,,,,,,,,,,,,,,,,,,,,,,
,,6507915c6aa0147b8e6b201d,2023-12-07_15h29.07.953,kallum_motion_pilot,2023.2.3,Win32,15.00307563,6507915c6aa0147b8e6b201d,6560176e4d91f764e2a42c74,657157fc3c149fa70816bc8a,0.0351,0.0351,0,131,131,55,1,fourthree,,,,,,,,,,,,,,,,,,,,,,,,,,,,,,,,,,,,,,,,,,,,,,,,,,,,,,,,,,,,,,,,,,,,,,,,,,,,,,,,,,,,,,,,,,,,,,,,,,,,,,,,,,,,,,,,,,,,,,,,,,,,,,,,,,,,,,,
,,6507915c6aa0147b8e6b201d,2023-12-07_15h29.07.953,kallum_motion_pilot,2023.2.3,Win32,15.00307563,6507915c6aa0147b8e6b201d,6560176e4d91f764e2a42c74,657157fc3c149fa70816bc8a,0.0353,0.0353,0,132,132,90,1,sixfive,,,,,,,,,,,,,,,,,,,,,,,,,,,,,,,,,,,,,,,,,,,,,,,,,,,,,,,,,,,,,,,,,,,,,,,,,,,,,,,,,,,,,,,,,,,,,,,,,,,,,,,,,,,,,,,,,,,,,,,,,,,,,,,,,,,,,,,
,,6507915c6aa0147b8e6b201d,2023-12-07_15h29.07.953,kallum_motion_pilot,2023.2.3,Win32,15.00307563,6507915c6aa0147b8e6b201d,6560176e4d91f764e2a42c74,657157fc3c149fa70816bc8a,0.0353,0.0354,0,133,133,150,1,eightsix,,,,,,,,,,,,,,,,,,,,,,,,,,,,,,,,,,,,,,,,,,,,,,,,,,,,,,,,,,,,,,,,,,,,,,,,,,,,,,,,,,,,,,,,,,,,,,,,,,,,,,,,,,,,,,,,,,,,,,,,,,,,,,,,,,,,,,,
,,6507915c6aa0147b8e6b201d,2023-12-07_15h29.07.953,kallum_motion_pilot,2023.2.3,Win32,15.00307563,6507915c6aa0147b8e6b201d,6560176e4d91f764e2a42c74,657157fc3c149fa70816bc8a,0.0355,0.0355,0,134,134,103,1,eightseven,,,,,,,,,,,,,,,,,,,,,,,,,,,,,,,,,,,,,,,,,,,,,,,,,,,,,,,,,,,,,,,,,,,,,,,,,,,,,,,,,,,,,,,,,,,,,,,,,,,,,,,,,,,,,,,,,,,,,,,,,,,,,,,,,,,,,,,
,,6507915c6aa0147b8e6b201d,2023-12-07_15h29.07.953,kallum_motion_pilot,2023.2.3,Win32,15.00307563,6507915c6aa0147b8e6b201d,6560176e4d91f764e2a42c74,657157fc3c149fa70816bc8a,0.0355,0.0356,0,135,135,48,1,onetwo,,,,,,,,,,,,,,,,,,,,,,,,,,,,,,,,,,,,,,,,,,,,,,,,,,,,,,,,,,,,,,,,,,,,,,,,,,,,,,,,,,,,,,,,,,,,,,,,,,,,,,,,,,,,,,,,,,,,,,,,,,,,,,,,,,,,,,,
,,6507915c6aa0147b8e6b201d,2023-12-07_15h29.07.953,kallum_motion_pilot,2023.2.3,Win32,15.00307563,6507915c6aa0147b8e6b201d,6560176e4d91f764e2a42c74,657157fc3c149fa70816bc8a,0.0357,0.0358,0,136,136,135,1,eightseven,,,,,,,,,,,,,,,,,,,,,,,,,,,,,,,,,,,,,,,,,,,,,,,,,,,,,,,,,,,,,,,,,,,,,,,,,,,,,,,,,,,,,,,,,,,,,,,,,,,,,,,,,,,,,,,,,,,,,,,,,,,,,,,,,,,,,,,
,,6507915c6aa0147b8e6b201d,2023-12-07_15h29.07.953,kallum_motion_pilot,2023.2.3,Win32,15.00307563,6507915c6aa0147b8e6b201d,6560176e4d91f764e2a42c74,657157fc3c149fa70816bc8a,0.0359,0.0359,0,137,137,72,1,onetwo,,,,,,,,,,,,,,,,,,,,,,,,,,,,,,,,,,,,,,,,,,,,,,,,,,,,,,,,,,,,,,,,,,,,,,,,,,,,,,,,,,,,,,,,,,,,,,,,,,,,,,,,,,,,,,,,,,,,,,,,,,,,,,,,,,,,,,,
,,6507915c6aa0147b8e6b201d,2023-12-07_15h29.07.953,kallum_motion_pilot,2023.2.3,Win32,15.00307563,6507915c6aa0147b8e6b201d,6560176e4d91f764e2a42c74,657157fc3c149fa70816bc8a,0.036,0.036,0,138,138,77,1,threefour,,,,,,,,,,,,,,,,,,,,,,,,,,,,,,,,,,,,,,,,,,,,,,,,,,,,,,,,,,,,,,,,,,,,,,,,,,,,,,,,,,,,,,,,,,,,,,,,,,,,,,,,,,,,,,,,,,,,,,,,,,,,,,,,,,,,,,,
,,6507915c6aa0147b8e6b201d,2023-12-07_15h29.07.953,kallum_motion_pilot,2023.2.3,Win32,15.00307563,6507915c6aa0147b8e6b201d,6560176e4d91f764e2a42c74,657157fc3c149fa70816bc8a,0.036,0.0361,0,139,139,2,1,twoone,,,,,,,,,,,,,,,,,,,,,,,,,,,,,,,,,,,,,,,,,,,,,,,,,,,,,,,,,,,,,,,,,,,,,,,,,,,,,,,,,,,,,,,,,,,,,,,,,,,,,,,,,,,,,,,,,,,,,,,,,,,,,,,,,,,,,,,
,,6507915c6aa0147b8e6b201d,2023-12-07_15h29.07.953,kallum_motion_pilot,2023.2.3,Win32,15.00307563,6507915c6aa0147b8e6b201d,6560176e4d91f764e2a42c74,657157fc3c149fa70816bc8a,0.0362,0.0362,0,140,140,147,1,sixeight,,,,,,,,,,,,,,,,,,,,,,,,,,,,,,,,,,,,,,,,,,,,,,,,,,,,,,,,,,,,,,,,,,,,,,,,,,,,,,,,,,,,,,,,,,,,,,,,,,,,,,,,,,,,,,,,,,,,,,,,,,,,,,,,,,,,,,,
,,6507915c6aa0147b8e6b201d,2023-12-07_15h29.07.953,kallum_motion_pilot,2023.2.3,Win32,15.00307563,6507915c6aa0147b8e6b201d,6560176e4d91f764e2a42c74,657157fc3c149fa70816bc8a,0.0363,0.0364,0,141,141,4,1,threeone,,,,,,,,,,,,,,,,,,,,,,,,,,,,,,,,,,,,,,,,,,,,,,,,,,,,,,,,,,,,,,,,,,,,,,,,,,,,,,,,,,,,,,,,,,,,,,,,,,,,,,,,,,,,,,,,,,,,,,,,,,,,,,,,,,,,,,,
,,6507915c6aa0147b8e6b201d,2023-12-07_15h29.07.953,kallum_motion_pilot,2023.2.3,Win32,15.00307563,6507915c6aa0147b8e6b201d,6560176e4d91f764e2a42c74,657157fc3c149fa70816bc8a,0.0364,0.0364,0,142,142,133,1,seveneight,,,,,,,,,,,,,,,,,,,,,,,,,,,,,,,,,,,,,,,,,,,,,,,,,,,,,,,,,,,,,,,,,,,,,,,,,,,,,,,,,,,,,,,,,,,,,,,,,,,,,,,,,,,,,,,,,,,,,,,,,,,,,,,,,,,,,,,
,,6507915c6aa0147b8e6b201d,2023-12-07_15h29.07.953,kallum_motion_pilot,2023.2.3,Win32,15.00307563,6507915c6aa0147b8e6b201d,6560176e4d91f764e2a42c74,657157fc3c149fa70816bc8a,0.0365,0.0366,0,143,143,63,1,fourthree,,,,,,,,,,,,,,,,,,,,,,,,,,,,,,,,,,,,,,,,,,,,,,,,,,,,,,,,,,,,,,,,,,,,,,,,,,,,,,,,,,,,,,,,,,,,,,,,,,,,,,,,,,,,,,,,,,,,,,,,,,,,,,,,,,,,,,,
,,6507915c6aa0147b8e6b201d,2023-12-07_15h29.07.953,kallum_motion_pilot,2023.2.3,Win32,15.00307563,6507915c6aa0147b8e6b201d,6560176e4d91f764e2a42c74,657157fc3c149fa70816bc8a,0.0367,0.0367,0,144,144,83,1,sixeight,,,,,,,,,,,,,,,,,,,,,,,,,,,,,,,,,,,,,,,,,,,,,,,,,,,,,,,,,,,,,,,,,,,,,,,,,,,,,,,,,,,,,,,,,,,,,,,,,,,,,,,,,,,,,,,,,,,,,,,,,,,,,,,,,,,,,,,
,,6507915c6aa0147b8e6b201d,2023-12-07_15h29.07.953,kallum_motion_pilot,2023.2.3,Win32,15.00307563,6507915c6aa0147b8e6b201d,6560176e4d91f764e2a42c74,657157fc3c149fa70816bc8a,0.0368,0.0368,0,145,145,49,1,onethree,,,,,,,,,,,,,,,,,,,,,,,,,,,,,,,,,,,,,,,,,,,,,,,,,,,,,,,,,,,,,,,,,,,,,,,,,,,,,,,,,,,,,,,,,,,,,,,,,,,,,,,,,,,,,,,,,,,,,,,,,,,,,,,,,,,,,,,
,,6507915c6aa0147b8e6b201d,2023-12-07_15h29.07.953,kallum_motion_pilot,2023.2.3,Win32,15.00307563,6507915c6aa0147b8e6b201d,6560176e4d91f764e2a42c74,657157fc3c149fa70816bc8a,0.0369,0.0369,0,146,146,80,1,fivesix,,,,,,,,,,,,,,,,,,,,,,,,,,,,,,,,,,,,,,,,,,,,,,,,,,,,,,,,,,,,,,,,,,,,,,,,,,,,,,,,,,,,,,,,,,,,,,,,,,,,,,,,,,,,,,,,,,,,,,,,,,,,,,,,,,,,,,,
,,6507915c6aa0147b8e6b201d,2023-12-07_15h29.07.953,kallum_motion_pilot,2023.2.3,Win32,15.00307563,6507915c6aa0147b8e6b201d,6560176e4d91f764e2a42c74,657157fc3c149fa70816bc8a,0.037,0.037,0,147,147,52,1,threeone,,,,,,,,,,,,,,,,,,,,,,,,,,,,,,,,,,,,,,,,,,,,,,,,,,,,,,,,,,,,,,,,,,,,,,,,,,,,,,,,,,,,,,,,,,,,,,,,,,,,,,,,,,,,,,,,,,,,,,,,,,,,,,,,,,,,,,,
,,6507915c6aa0147b8e6b201d,2023-12-07_15h29.07.953,kallum_motion_pilot,2023.2.3,Win32,15.00307563,6507915c6aa0147b8e6b201d,6560176e4d91f764e2a42c74,657157fc3c149fa70816bc8a,0.0371,0.0372,0,148,148,1,1,onethree,,,,,,,,,,,,,,,,,,,,,,,,,,,,,,,,,,,,,,,,,,,,,,,,,,,,,,,,,,,,,,,,,,,,,,,,,,,,,,,,,,,,,,,,,,,,,,,,,,,,,,,,,,,,,,,,,,,,,,,,,,,,,,,,,,,,,,,
,,6507915c6aa0147b8e6b201d,2023-12-07_15h29.07.953,kallum_motion_pilot,2023.2.3,Win32,15.00307563,6507915c6aa0147b8e6b201d,6560176e4d91f764e2a42c74,657157fc3c149fa70816bc8a,0.0379,0.038,0,149,149,64,1,onetwo,,,,,,,,,,,,,,,,,,,,,,,,,,,,,,,,,,,,,,,,,,,,,,,,,,,,,,,,,,,,,,,,,,,,,,,,,,,,,,,,,,,,,,,,,,,,,,,,,,,,,,,,,,,,,,,,,,,,,,,,,,,,,,,,,,,,,,,
,,6507915c6aa0147b8e6b201d,2023-12-07_15h29.07.953,kallum_motion_pilot,2023.2.3,Win32,15.00307563,6507915c6aa0147b8e6b201d,6560176e4d91f764e2a42c74,657157fc3c149fa70816bc8a,0.0381,0.0381,0,150,150,76,1,threeone,,,,,,,,,,,,,,,,,,,,,,,,,,,,,,,,,,,,,,,,,,,,,,,,,,,,,,,,,,,,,,,,,,,,,,,,,,,,,,,,,,,,,,,,,,,,,,,,,,,,,,,,,,,,,,,,,,,,,,,,,,,,,,,,,,,,,,,
,,6507915c6aa0147b8e6b201d,2023-12-07_15h29.07.953,kallum_motion_pilot,2023.2.3,Win32,15.00307563,6507915c6aa0147b8e6b201d,6560176e4d91f764e2a42c74,657157fc3c149fa70816bc8a,0.0381,0.0383,0,151,151,112,1,fivesix,,,,,,,,,,,,,,,,,,,,,,,,,,,,,,,,,,,,,,,,,,,,,,,,,,,,,,,,,,,,,,,,,,,,,,,,,,,,,,,,,,,,,,,,,,,,,,,,,,,,,,,,,,,,,,,,,,,,,,,,,,,,,,,,,,,,,,,
,,6507915c6aa0147b8e6b201d,2023-12-07_15h29.07.953,kallum_motion_pilot,2023.2.3,Win32,15.00307563,6507915c6aa0147b8e6b201d,6560176e4d91f764e2a42c74,657157fc3c149fa70816bc8a,0.0383,0.0384,0,152,152,57,1,onethree,,,,,,,,,,,,,,,,,,,,,,,,,,,,,,,,,,,,,,,,,,,,,,,,,,,,,,,,,,,,,,,,,,,,,,,,,,,,,,,,,,,,,,,,,,,,,,,,,,,,,,,,,,,,,,,,,,,,,,,,,,,,,,,,,,,,,,,
,,6507915c6aa0147b8e6b201d,2023-12-07_15h29.07.953,kallum_motion_pilot,2023.2.3,Win32,15.00307563,6507915c6aa0147b8e6b201d,6560176e4d91f764e2a42c74,657157fc3c149fa70816bc8a,0.0384,0.0384,0,153,153,143,1,eightseven,,,,,,,,,,,,,,,,,,,,,,,,,,,,,,,,,,,,,,,,,,,,,,,,,,,,,,,,,,,,,,,,,,,,,,,,,,,,,,,,,,,,,,,,,,,,,,,,,,,,,,,,,,,,,,,,,,,,,,,,,,,,,,,,,,,,,,,
,,6507915c6aa0147b8e6b201d,2023-12-07_15h29.07.953,kallum_motion_pilot,2023.2.3,Win32,15.00307563,6507915c6aa0147b8e6b201d,6560176e4d91f764e2a42c74,657157fc3c149fa70816bc8a,0.0385,0.0385,0,154,154,67,1,twofour,,,,,,,,,,,,,,,,,,,,,,,,,,,,,,,,,,,,,,,,,,,,,,,,,,,,,,,,,,,,,,,,,,,,,,,,,,,,,,,,,,,,,,,,,,,,,,,,,,,,,,,,,,,,,,,,,,,,,,,,,,,,,,,,,,,,,,,
,,6507915c6aa0147b8e6b201d,2023-12-07_15h29.07.953,kallum_motion_pilot,2023.2.3,Win32,15.00307563,6507915c6aa0147b8e6b201d,6560176e4d91f764e2a42c74,657157fc3c149fa70816bc8a,0.0386,0.0387,0,155,155,61,1,threefour,,,,,,,,,,,,,,,,,,,,,,,,,,,,,,,,,,,,,,,,,,,,,,,,,,,,,,,,,,,,,,,,,,,,,,,,,,,,,,,,,,,,,,,,,,,,,,,,,,,,,,,,,,,,,,,,,,,,,,,,,,,,,,,,,,,,,,,
,,6507915c6aa0147b8e6b201d,2023-12-07_15h29.07.953,kallum_motion_pilot,2023.2.3,Win32,15.00307563,6507915c6aa0147b8e6b201d,6560176e4d91f764e2a42c74,657157fc3c149fa70816bc8a,0.0387,0.0388,0,156,156,119,1,eightseven,,,,,,,,,,,,,,,,,,,,,,,,,,,,,,,,,,,,,,,,,,,,,,,,,,,,,,,,,,,,,,,,,,,,,,,,,,,,,,,,,,,,,,,,,,,,,,,,,,,,,,,,,,,,,,,,,,,,,,,,,,,,,,,,,,,,,,,
,,6507915c6aa0147b8e6b201d,2023-12-07_15h29.07.953,kallum_motion_pilot,2023.2.3,Win32,15.00307563,6507915c6aa0147b8e6b201d,6560176e4d91f764e2a42c74,657157fc3c149fa70816bc8a,0.0388,0.0388,0,157,157,30,1,fourtwo,,,,,,,,,,,,,,,,,,,,,,,,,,,,,,,,,,,,,,,,,,,,,,,,,,,,,,,,,,,,,,,,,,,,,,,,,,,,,,,,,,,,,,,,,,,,,,,,,,,,,,,,,,,,,,,,,,,,,,,,,,,,,,,,,,,,,,,
,,6507915c6aa0147b8e6b201d,2023-12-07_15h29.07.953,kallum_motion_pilot,2023.2.3,Win32,15.00307563,6507915c6aa0147b8e6b201d,6560176e4d91f764e2a42c74,657157fc3c149fa70816bc8a,0.0389,0.0389,0,158,158,79,1,eightseven,,,,,,,,,,,,,,,,,,,,,,,,,,,,,,,,,,,,,,,,,,,,,,,,,,,,,,,,,,,,,,,,,,,,,,,,,,,,,,,,,,,,,,,,,,,,,,,,,,,,,,,,,,,,,,,,,,,,,,,,,,,,,,,,,,,,,,,
,,6507915c6aa0147b8e6b201d,2023-12-07_15h29.07.953,kallum_motion_pilot,2023.2.3,Win32,15.00307563,6507915c6aa0147b8e6b201d,6560176e4d91f764e2a42c74,657157fc3c149fa70816bc8a,0.0391,0.0391,0,159,159,98,1,sixfive,,,,,,,,,,,,,,,,,,,,,,,,,,,,,,,,,,,,,,,,,,,,,,,,,,,,,,,,,,,,,,,,,,,,,,,,,,,,,,,,,,,,,,,,,,,,,,,,,,,,,,,,,,,,,,,,,,,,,,,,,,,,,,,,,,,,,,,
,,6507915c6aa0147b8e6b201d,2023-12-07_15h29.07.953,kallum_motion_pilot,2023.2.3,Win32,15.00307563,6507915c6aa0147b8e6b201d,6560176e4d91f764e2a42c74,657157fc3c149fa70816bc8a,0.0391,0.0391,0,160,160,91,1,sixeight,,,,,,,,,,,,,,,,,,,,,,,,,,,,,,,,,,,,,,,,,,,,,,,,,,,,,,,,,,,,,,,,,,,,,,,,,,,,,,,,,,,,,,,,,,,,,,,,,,,,,,,,,,,,,,,,,,,,,,,,,,,,,,,,,,,,,,,
,,6507915c6aa0147b8e6b201d,2023-12-07_15h29.07.953,kallum_motion_pilot,2023.2.3,Win32,15.00307563,6507915c6aa0147b8e6b201d,6560176e4d91f764e2a42c74,657157fc3c149fa70816bc8a,0.0392,0.0393,0,161,161,19,1,twofour,,,,,,,,,,,,,,,,,,,,,,,,,,,,,,,,,,,,,,,,,,,,,,,,,,,,,,,,,,,,,,,,,,,,,,,,,,,,,,,,,,,,,,,,,,,,,,,,,,,,,,,,,,,,,,,,,,,,,,,,,,,,,,,,,,,,,,,
,,6507915c6aa0147b8e6b201d,2023-12-07_15h29.07.953,kallum_motion_pilot,2023.2.3,Win32,15.00307563,6507915c6aa0147b8e6b201d,6560176e4d91f764e2a42c74,657157fc3c149fa70816bc8a,0.0394,0.0394,1,0,162,28,1,threeone,,,,,,,,,,,,,,,,,,,,,,,,,,,,,,,,,,,,,,,,,,,,,,,,,,,,,,,,,,,,,,,,,,,,,,,,,,,,,,,,,,,,,,,,,,,,,,,,,,,,,,,,,,,,,,,,,,,,,,,,,,,,,,,,,,,,,,,
,,6507915c6aa0147b8e6b201d,2023-12-07_15h29.07.953,kallum_motion_pilot,2023.2.3,Win32,15.00307563,6507915c6aa0147b8e6b201d,6560176e4d91f764e2a42c74,657157fc3c149fa70816bc8a,0.0395,0.0395,1,1,163,116,1,sevenfive,,,,,,,,,,,,,,,,,,,,,,,,,,,,,,,,,,,,,,,,,,,,,,,,,,,,,,,,,,,,,,,,,,,,,,,,,,,,,,,,,,,,,,,,,,,,,,,,,,,,,,,,,,,,,,,,,,,,,,,,,,,,,,,,,,,,,,,
,,6507915c6aa0147b8e6b201d,2023-12-07_15h29.07.953,kallum_motion_pilot,2023.2.3,Win32,15.00307563,6507915c6aa0147b8e6b201d,6560176e4d91f764e2a42c74,657157fc3c149fa70816bc8a,0.0396,0.0397,1,2,164,31,1,fourthree,,,,,,,,,,,,,,,,,,,,,,,,,,,,,,,,,,,,,,,,,,,,,,,,,,,,,,,,,,,,,,,,,,,,,,,,,,,,,,,,,,,,,,,,,,,,,,,,,,,,,,,,,,,,,,,,,,,,,,,,,,,,,,,,,,,,,,,
,,6507915c6aa0147b8e6b201d,2023-12-07_15h29.07.953,kallum_motion_pilot,2023.2.3,Win32,15.00307563,6507915c6aa0147b8e6b201d,6560176e4d91f764e2a42c74,657157fc3c149fa70816bc8a,0.0397,0.0397,1,3,165,86,1,eightsix,,,,,,,,,,,,,,,,,,,,,,,,,,,,,,,,,,,,,,,,,,,,,,,,,,,,,,,,,,,,,,,,,,,,,,,,,,,,,,,,,,,,,,,,,,,,,,,,,,,,,,,,,,,,,,,,,,,,,,,,,,,,,,,,,,,,,,,
,,6507915c6aa0147b8e6b201d,2023-12-07_15h29.07.953,kallum_motion_pilot,2023.2.3,Win32,15.00307563,6507915c6aa0147b8e6b201d,6560176e4d91f764e2a42c74,657157fc3c149fa70816bc8a,0.0398,0.0399,1,4,166,42,1,twoone,,,,,,,,,,,,,,,,,,,,,,,,,,,,,,,,,,,,,,,,,,,,,,,,,,,,,,,,,,,,,,,,,,,,,,,,,,,,,,,,,,,,,,,,,,,,,,,,,,,,,,,,,,,,,,,,,,,,,,,,,,,,,,,,,,,,,,,
,,6507915c6aa0147b8e6b201d,2023-12-07_15h29.07.953,kallum_motion_pilot,2023.2.3,Win32,15.00307563,6507915c6aa0147b8e6b201d,6560176e4d91f764e2a42c74,657157fc3c149fa70816bc8a,0.0399,0.04,1,5,167,145,1,fiveseven,,,,,,,,,,,,,,,,,,,,,,,,,,,,,,,,,,,,,,,,,,,,,,,,,,,,,,,,,,,,,,,,,,,,,,,,,,,,,,,,,,,,,,,,,,,,,,,,,,,,,,,,,,,,,,,,,,,,,,,,,,,,,,,,,,,,,,,
,,6507915c6aa0147b8e6b201d,2023-12-07_15h29.07.953,kallum_motion_pilot,2023.2.3,Win32,15.00307563,6507915c6aa0147b8e6b201d,6560176e4d91f764e2a42c74,657157fc3c149fa70816bc8a,0.04,0.04,1,6,168,46,1,fourtwo,,,,,,,,,,,,,,,,,,,,,,,,,,,,,,,,,,,,,,,,,,,,,,,,,,,,,,,,,,,,,,,,,,,,,,,,,,,,,,,,,,,,,,,,,,,,,,,,,,,,,,,,,,,,,,,,,,,,,,,,,,,,,,,,,,,,,,,
,,6507915c6aa0147b8e6b201d,2023-12-07_15h29.07.953,kallum_motion_pilot,2023.2.3,Win32,15.00307563,6507915c6aa0147b8e6b201d,6560176e4d91f764e2a42c74,657157fc3c149fa70816bc8a,0.0401,0.0402,1,7,169,78,1,fourtwo,,,,,,,,,,,,,,,,,,,,,,,,,,,,,,,,,,,,,,,,,,,,,,,,,,,,,,,,,,,,,,,,,,,,,,,,,,,,,,,,,,,,,,,,,,,,,,,,,,,,,,,,,,,,,,,,,,,,,,,,,,,,,,,,,,,,,,,
,,6507915c6aa0147b8e6b201d,2023-12-07_15h29.07.953,kallum_motion_pilot,2023.2.3,Win32,15.00307563,6507915c6aa0147b8e6b201d,6560176e4d91f764e2a42c74,657157fc3c149fa70816bc8a,0.0402,0.0402,1,8,170,146,1,sixfive,,,,,,,,,,,,,,,,,,,,,,,,,,,,,,,,,,,,,,,,,,,,,,,,,,,,,,,,,,,,,,,,,,,,,,,,,,,,,,,,,,,,,,,,,,,,,,,,,,,,,,,,,,,,,,,,,,,,,,,,,,,,,,,,,,,,,,,
,,6507915c6aa0147b8e6b201d,2023-12-07_15h29.07.953,kallum_motion_pilot,2023.2.3,Win32,15.00307563,6507915c6aa0147b8e6b201d,6560176e4d91f764e2a42c74,657157fc3c149fa70816bc8a,0.0403,0.0404,1,9,171,55,1,fourthree,,,,,,,,,,,,,,,,,,,,,,,,,,,,,,,,,,,,,,,,,,,,,,,,,,,,,,,,,,,,,,,,,,,,,,,,,,,,,,,,,,,,,,,,,,,,,,,,,,,,,,,,,,,,,,,,,,,,,,,,,,,,,,,,,,,,,,,
,,6507915c6aa0147b8e6b201d,2023-12-07_15h29.07.953,kallum_motion_pilot,2023.2.3,Win32,15.00307563,6507915c6aa0147b8e6b201d,6560176e4d91f764e2a42c74,657157fc3c149fa70816bc8a,0.0404,0.0405,1,10,172,73,1,onethree,,,,,,,,,,,,,,,,,,,,,,,,,,,,,,,,,,,,,,,,,,,,,,,,,,,,,,,,,,,,,,,,,,,,,,,,,,,,,,,,,,,,,,,,,,,,,,,,,,,,,,,,,,,,,,,,,,,,,,,,,,,,,,,,,,,,,,,
,,6507915c6aa0147b8e6b201d,2023-12-07_15h29.07.953,kallum_motion_pilot,2023.2.3,Win32,15.00307563,6507915c6aa0147b8e6b201d,6560176e4d91f764e2a42c74,657157fc3c149fa70816bc8a,0.0406,0.0406,1,11,173,95,1,eightseven,,,,,,,,,,,,,,,,,,,,,,,,,,,,,,,,,,,,,,,,,,,,,,,,,,,,,,,,,,,,,,,,,,,,,,,,,,,,,,,,,,,,,,,,,,,,,,,,,,,,,,,,,,,,,,,,,,,,,,,,,,,,,,,,,,,,,,,
,,6507915c6aa0147b8e6b201d,2023-12-07_15h29.07.953,kallum_motion_pilot,2023.2.3,Win32,15.00307563,6507915c6aa0147b8e6b201d,6560176e4d91f764e2a42c74,657157fc3c149fa70816bc8a,0.0407,0.0408,1,12,174,13,1,threefour,,,,,,,,,,,,,,,,,,,,,,,,,,,,,,,,,,,,,,,,,,,,,,,,,,,,,,,,,,,,,,,,,,,,,,,,,,,,,,,,,,,,,,,,,,,,,,,,,,,,,,,,,,,,,,,,,,,,,,,,,,,,,,,,,,,,,,,
,,6507915c6aa0147b8e6b201d,2023-12-07_15h29.07.953,kallum_motion_pilot,2023.2.3,Win32,15.00307563,6507915c6aa0147b8e6b201d,6560176e4d91f764e2a42c74,657157fc3c149fa70816bc8a,0.0408,0.0409,1,13,175,22,1,fourtwo,,,,,,,,,,,,,,,,,,,,,,,,,,,,,,,,,,,,,,,,,,,,,,,,,,,,,,,,,,,,,,,,,,,,,,,,,,,,,,,,,,,,,,,,,,,,,,,,,,,,,,,,,,,,,,,,,,,,,,,,,,,,,,,,,,,,,,,
,,6507915c6aa0147b8e6b201d,2023-12-07_15h29.07.953,kallum_motion_pilot,2023.2.3,Win32,15.00307563,6507915c6aa0147b8e6b201d,6560176e4d91f764e2a42c74,657157fc3c149fa70816bc8a,0.0409,0.041,1,14,176,17,1,onethree,,,,,,,,,,,,,,,,,,,,,,,,,,,,,,,,,,,,,,,,,,,,,,,,,,,,,,,,,,,,,,,,,,,,,,,,,,,,,,,,,,,,,,,,,,,,,,,,,,,,,,,,,,,,,,,,,,,,,,,,,,,,,,,,,,,,,,,
,,6507915c6aa0147b8e6b201d,2023-12-07_15h29.07.953,kallum_motion_pilot,2023.2.3,Win32,15.00307563,6507915c6aa0147b8e6b201d,6560176e4d91f764e2a42c74,657157fc3c149fa70816bc8a,0.041,0.0412,1,15,177,84,1,sevenfive,,,,,,,,,,,,,,,,,,,,,,,,,,,,,,,,,,,,,,,,,,,,,,,,,,,,,,,,,,,,,,,,,,,,,,,,,,,,,,,,,,,,,,,,,,,,,,,,,,,,,,,,,,,,,,,,,,,,,,,,,,,,,,,,,,,,,,,
,,6507915c6aa0147b8e6b201d,2023-12-07_15h29.07.953,kallum_motion_pilot,2023.2.3,Win32,15.00307563,6507915c6aa0147b8e6b201d,6560176e4d91f764e2a42c74,657157fc3c149fa70816bc8a,0.0412,0.0413,1,16,178,93,1,seveneight,,,,,,,,,,,,,,,,,,,,,,,,,,,,,,,,,,,,,,,,,,,,,,,,,,,,,,,,,,,,,,,,,,,,,,,,,,,,,,,,,,,,,,,,,,,,,,,,,,,,,,,,,,,,,,,,,,,,,,,,,,,,,,,,,,,,,,,
,,6507915c6aa0147b8e6b201d,2023-12-07_15h29.07.953,kallum_motion_pilot,2023.2.3,Win32,15.00307563,6507915c6aa0147b8e6b201d,6560176e4d91f764e2a42c74,657157fc3c149fa70816bc8a,0.0413,0.0414,1,17,179,54,1,fourtwo,,,,,,,,,,,,,,,,,,,,,,,,,,,,,,,,,,,,,,,,,,,,,,,,,,,,,,,,,,,,,,,,,,,,,,,,,,,,,,,,,,,,,,,,,,,,,,,,,,,,,,,,,,,,,,,,,,,,,,,,,,,,,,,,,,,,,,,
,,6507915c6aa0147b8e6b201d,2023-12-07_15h29.07.953,kallum_motion_pilot,2023.2.3,Win32,15.00307563,6507915c6aa0147b8e6b201d,6560176e4d91f764e2a42c74,657157fc3c149fa70816bc8a,0.0415,0.0415,1,18,180,71,1,fourthree,,,,,,,,,,,,,,,,,,,,,,,,,,,,,,,,,,,,,,,,,,,,,,,,,,,,,,,,,,,,,,,,,,,,,,,,,,,,,,,,,,,,,,,,,,,,,,,,,,,,,,,,,,,,,,,,,,,,,,,,,,,,,,,,,,,,,,,
,,6507915c6aa0147b8e6b201d,2023-12-07_15h29.07.953,kallum_motion_pilot,2023.2.3,Win32,15.00307563,6507915c6aa0147b8e6b201d,6560176e4d91f764e2a42c74,657157fc3c149fa70816bc8a,0.0416,0.0416,1,19,181,138,1,sixfive,,,,,,,,,,,,,,,,,,,,,,,,,,,,,,,,,,,,,,,,,,,,,,,,,,,,,,,,,,,,,,,,,,,,,,,,,,,,,,,,,,,,,,,,,,,,,,,,,,,,,,,,,,,,,,,,,,,,,,,,,,,,,,,,,,,,,,,
,,6507915c6aa0147b8e6b201d,2023-12-07_15h29.07.953,kallum_motion_pilot,2023.2.3,Win32,15.00307563,6507915c6aa0147b8e6b201d,6560176e4d91f764e2a42c74,657157fc3c149fa70816bc8a,0.0416,0.0417,1,20,182,106,1,sixfive,,,,,,,,,,,,,,,,,,,,,,,,,,,,,,,,,,,,,,,,,,,,,,,,,,,,,,,,,,,,,,,,,,,,,,,,,,,,,,,,,,,,,,,,,,,,,,,,,,,,,,,,,,,,,,,,,,,,,,,,,,,,,,,,,,,,,,,
,,6507915c6aa0147b8e6b201d,2023-12-07_15h29.07.953,kallum_motion_pilot,2023.2.3,Win32,15.00307563,6507915c6aa0147b8e6b201d,6560176e4d91f764e2a42c74,657157fc3c149fa70816bc8a,0.0418,0.0418,1,21,183,115,1,sixeight,,,,,,,,,,,,,,,,,,,,,,,,,,,,,,,,,,,,,,,,,,,,,,,,,,,,,,,,,,,,,,,,,,,,,,,,,,,,,,,,,,,,,,,,,,,,,,,,,,,,,,,,,,,,,,,,,,,,,,,,,,,,,,,,,,,,,,,
,,6507915c6aa0147b8e6b201d,2023-12-07_15h29.07.953,kallum_motion_pilot,2023.2.3,Win32,15.00307563,6507915c6aa0147b8e6b201d,6560176e4d91f764e2a42c74,657157fc3c149fa70816bc8a,0.0419,0.042,1,22,184,117,1,seveneight,,,,,,,,,,,,,,,,,,,,,,,,,,,,,,,,,,,,,,,,,,,,,,,,,,,,,,,,,,,,,,,,,,,,,,,,,,,,,,,,,,,,,,,,,,,,,,,,,,,,,,,,,,,,,,,,,,,,,,,,,,,,,,,,,,,,,,,
,,6507915c6aa0147b8e6b201d,2023-12-07_15h29.07.953,kallum_motion_pilot,2023.2.3,Win32,15.00307563,6507915c6aa0147b8e6b201d,6560176e4d91f764e2a42c74,657157fc3c149fa70816bc8a,0.042,0.0421,1,23,185,121,1,fiveseven,,,,,,,,,,,,,,,,,,,,,,,,,,,,,,,,,,,,,,,,,,,,,,,,,,,,,,,,,,,,,,,,,,,,,,,,,,,,,,,,,,,,,,,,,,,,,,,,,,,,,,,,,,,,,,,,,,,,,,,,,,,,,,,,,,,,,,,
,,6507915c6aa0147b8e6b201d,2023-12-07_15h29.07.953,kallum_motion_pilot,2023.2.3,Win32,15.00307563,6507915c6aa0147b8e6b201d,6560176e4d91f764e2a42c74,657157fc3c149fa70816bc8a,0.0421,0.0422,1,24,186,80,1,fivesix,,,,,,,,,,,,,,,,,,,,,,,,,,,,,,,,,,,,,,,,,,,,,,,,,,,,,,,,,,,,,,,,,,,,,,,,,,,,,,,,,,,,,,,,,,,,,,,,,,,,,,,,,,,,,,,,,,,,,,,,,,,,,,,,,,,,,,,
,,6507915c6aa0147b8e6b201d,2023-12-07_15h29.07.953,kallum_motion_pilot,2023.2.3,Win32,15.00307563,6507915c6aa0147b8e6b201d,6560176e4d91f764e2a42c74,657157fc3c149fa70816bc8a,0.0423,0.0424,1,25,187,20,1,threeone,,,,,,,,,,,,,,,,,,,,,,,,,,,,,,,,,,,,,,,,,,,,,,,,,,,,,,,,,,,,,,,,,,,,,,,,,,,,,,,,,,,,,,,,,,,,,,,,,,,,,,,,,,,,,,,,,,,,,,,,,,,,,,,,,,,,,,,
,,6507915c6aa0147b8e6b201d,2023-12-07_15h29.07.953,kallum_motion_pilot,2023.2.3,Win32,15.00307563,6507915c6aa0147b8e6b201d,6560176e4d91f764e2a42c74,657157fc3c149fa70816bc8a,0.0424,0.0424,1,26,188,124,1,sevenfive,,,,,,,,,,,,,,,,,,,,,,,,,,,,,,,,,,,,,,,,,,,,,,,,,,,,,,,,,,,,,,,,,,,,,,,,,,,,,,,,,,,,,,,,,,,,,,,,,,,,,,,,,,,,,,,,,,,,,,,,,,,,,,,,,,,,,,,
,,6507915c6aa0147b8e6b201d,2023-12-07_15h29.07.953,kallum_motion_pilot,2023.2.3,Win32,15.00307563,6507915c6aa0147b8e6b201d,6560176e4d91f764e2a42c74,657157fc3c149fa70816bc8a,0.0425,0.0425,1,27,189,44,1,threeone,,,,,,,,,,,,,,,,,,,,,,,,,,,,,,,,,,,,,,,,,,,,,,,,,,,,,,,,,,,,,,,,,,,,,,,,,,,,,,,,,,,,,,,,,,,,,,,,,,,,,,,,,,,,,,,,,,,,,,,,,,,,,,,,,,,,,,,
,,6507915c6aa0147b8e6b201d,2023-12-07_15h29.07.953,kallum_motion_pilot,2023.2.3,Win32,15.00307563,6507915c6aa0147b8e6b201d,6560176e4d91f764e2a42c74,657157fc3c149fa70816bc8a,0.0426,0.0427,1,28,190,155,1,sixeight,,,,,,,,,,,,,,,,,,,,,,,,,,,,,,,,,,,,,,,,,,,,,,,,,,,,,,,,,,,,,,,,,,,,,,,,,,,,,,,,,,,,,,,,,,,,,,,,,,,,,,,,,,,,,,,,,,,,,,,,,,,,,,,,,,,,,,,
,,6507915c6aa0147b8e6b201d,2023-12-07_15h29.07.953,kallum_motion_pilot,2023.2.3,Win32,15.00307563,6507915c6aa0147b8e6b201d,6560176e4d91f764e2a42c74,657157fc3c149fa70816bc8a,0.0427,0.0428,1,29,191,40,1,onetwo,,,,,,,,,,,,,,,,,,,,,,,,,,,,,,,,,,,,,,,,,,,,,,,,,,,,,,,,,,,,,,,,,,,,,,,,,,,,,,,,,,,,,,,,,,,,,,,,,,,,,,,,,,,,,,,,,,,,,,,,,,,,,,,,,,,,,,,
,,6507915c6aa0147b8e6b201d,2023-12-07_15h29.07.953,kallum_motion_pilot,2023.2.3,Win32,15.00307563,6507915c6aa0147b8e6b201d,6560176e4d91f764e2a42c74,657157fc3c149fa70816bc8a,0.0428,0.0429,1,30,192,152,1,fivesix,,,,,,,,,,,,,,,,,,,,,,,,,,,,,,,,,,,,,,,,,,,,,,,,,,,,,,,,,,,,,,,,,,,,,,,,,,,,,,,,,,,,,,,,,,,,,,,,,,,,,,,,,,,,,,,,,,,,,,,,,,,,,,,,,,,,,,,
,,6507915c6aa0147b8e6b201d,2023-12-07_15h29.07.953,kallum_motion_pilot,2023.2.3,Win32,15.00307563,6507915c6aa0147b8e6b201d,6560176e4d91f764e2a42c74,657157fc3c149fa70816bc8a,0.0429,0.0431,1,31,193,26,1,twoone,,,,,,,,,,,,,,,,,,,,,,,,,,,,,,,,,,,,,,,,,,,,,,,,,,,,,,,,,,,,,,,,,,,,,,,,,,,,,,,,,,,,,,,,,,,,,,,,,,,,,,,,,,,,,,,,,,,,,,,,,,,,,,,,,,,,,,,
,,6507915c6aa0147b8e6b201d,2023-12-07_15h29.07.953,kallum_motion_pilot,2023.2.3,Win32,15.00307563,6507915c6aa0147b8e6b201d,6560176e4d91f764e2a42c74,657157fc3c149fa70816bc8a,0.0431,0.0432,1,32,194,79,1,eightseven,,,,,,,,,,,,,,,,,,,,,,,,,,,,,,,,,,,,,,,,,,,,,,,,,,,,,,,,,,,,,,,,,,,,,,,,,,,,,,,,,,,,,,,,,,,,,,,,,,,,,,,,,,,,,,,,,,,,,,,,,,,,,,,,,,,,,,,
,,6507915c6aa0147b8e6b201d,2023-12-07_15h29.07.953,kallum_motion_pilot,2023.2.3,Win32,15.00307563,6507915c6aa0147b8e6b201d,6560176e4d91f764e2a42c74,657157fc3c149fa70816bc8a,0.0432,0.0432,1,33,195,49,1,onethree,,,,,,,,,,,,,,,,,,,,,,,,,,,,,,,,,,,,,,,,,,,,,,,,,,,,,,,,,,,,,,,,,,,,,,,,,,,,,,,,,,,,,,,,,,,,,,,,,,,,,,,,,,,,,,,,,,,,,,,,,,,,,,,,,,,,,,,
,,6507915c6aa0147b8e6b201d,2023-12-07_15h29.07.953,kallum_motion_pilot,2023.2.3,Win32,15.00307563,6507915c6aa0147b8e6b201d,6560176e4d91f764e2a42c74,657157fc3c149fa70816bc8a,0.0433,0.0434,1,34,196,133,1,seveneight,,,,,,,,,,,,,,,,,,,,,,,,,,,,,,,,,,,,,,,,,,,,,,,,,,,,,,,,,,,,,,,,,,,,,,,,,,,,,,,,,,,,,,,,,,,,,,,,,,,,,,,,,,,,,,,,,,,,,,,,,,,,,,,,,,,,,,,
,,6507915c6aa0147b8e6b201d,2023-12-07_15h29.07.953,kallum_motion_pilot,2023.2.3,Win32,15.00307563,6507915c6aa0147b8e6b201d,6560176e4d91f764e2a42c74,657157fc3c149fa70816bc8a,0.0434,0.0435,1,35,197,53,1,threefour,,,,,,,,,,,,,,,,,,,,,,,,,,,,,,,,,,,,,,,,,,,,,,,,,,,,,,,,,,,,,,,,,,,,,,,,,,,,,,,,,,,,,,,,,,,,,,,,,,,,,,,,,,,,,,,,,,,,,,,,,,,,,,,,,,,,,,,
,,6507915c6aa0147b8e6b201d,2023-12-07_15h29.07.953,kallum_motion_pilot,2023.2.3,Win32,15.00307563,6507915c6aa0147b8e6b201d,6560176e4d91f764e2a42c74,657157fc3c149fa70816bc8a,0.0436,0.0436,1,36,198,59,1,twofour,,,,,,,,,,,,,,,,,,,,,,,,,,,,,,,,,,,,,,,,,,,,,,,,,,,,,,,,,,,,,,,,,,,,,,,,,,,,,,,,,,,,,,,,,,,,,,,,,,,,,,,,,,,,,,,,,,,,,,,,,,,,,,,,,,,,,,,
,,6507915c6aa0147b8e6b201d,2023-12-07_15h29.07.953,kallum_motion_pilot,2023.2.3,Win32,15.00307563,6507915c6aa0147b8e6b201d,6560176e4d91f764e2a42c74,657157fc3c149fa70816bc8a,0.0437,0.0437,1,37,199,16,1,onetwo,,,,,,,,,,,,,,,,,,,,,,,,,,,,,,,,,,,,,,,,,,,,,,,,,,,,,,,,,,,,,,,,,,,,,,,,,,,,,,,,,,,,,,,,,,,,,,,,,,,,,,,,,,,,,,,,,,,,,,,,,,,,,,,,,,,,,,,
,,6507915c6aa0147b8e6b201d,2023-12-07_15h29.07.953,kallum_motion_pilot,2023.2.3,Win32,15.00307563,6507915c6aa0147b8e6b201d,6560176e4d91f764e2a42c74,657157fc3c149fa70816bc8a,0.0437,0.0438,1,38,200,21,1,threefour,,,,,,,,,,,,,,,,,,,,,,,,,,,,,,,,,,,,,,,,,,,,,,,,,,,,,,,,,,,,,,,,,,,,,,,,,,,,,,,,,,,,,,,,,,,,,,,,,,,,,,,,,,,,,,,,,,,,,,,,,,,,,,,,,,,,,,,
,,6507915c6aa0147b8e6b201d,2023-12-07_15h29.07.953,kallum_motion_pilot,2023.2.3,Win32,15.00307563,6507915c6aa0147b8e6b201d,6560176e4d91f764e2a42c74,657157fc3c149fa70816bc8a,0.0439,0.044,1,39,201,153,1,fiveseven,,,,,,,,,,,,,,,,,,,,,,,,,,,,,,,,,,,,,,,,,,,,,,,,,,,,,,,,,,,,,,,,,,,,,,,,,,,,,,,,,,,,,,,,,,,,,,,,,,,,,,,,,,,,,,,,,,,,,,,,,,,,,,,,,,,,,,,
,,6507915c6aa0147b8e6b201d,2023-12-07_15h29.07.953,kallum_motion_pilot,2023.2.3,Win32,15.00307563,6507915c6aa0147b8e6b201d,6560176e4d91f764e2a42c74,657157fc3c149fa70816bc8a,0.044,0.044,1,40,202,101,1,seveneight,,,,,,,,,,,,,,,,,,,,,,,,,,,,,,,,,,,,,,,,,,,,,,,,,,,,,,,,,,,,,,,,,,,,,,,,,,,,,,,,,,,,,,,,,,,,,,,,,,,,,,,,,,,,,,,,,,,,,,,,,,,,,,,,,,,,,,,
,,6507915c6aa0147b8e6b201d,2023-12-07_15h29.07.953,kallum_motion_pilot,2023.2.3,Win32,15.00307563,6507915c6aa0147b8e6b201d,6560176e4d91f764e2a42c74,657157fc3c149fa70816bc8a,0.0441,0.0442,1,41,203,15,1,fourthree,,,,,,,,,,,,,,,,,,,,,,,,,,,,,,,,,,,,,,,,,,,,,,,,,,,,,,,,,,,,,,,,,,,,,,,,,,,,,,,,,,,,,,,,,,,,,,,,,,,,,,,,,,,,,,,,,,,,,,,,,,,,,,,,,,,,,,,
,,6507915c6aa0147b8e6b201d,2023-12-07_15h29.07.953,kallum_motion_pilot,2023.2.3,Win32,15.00307563,6507915c6aa0147b8e6b201d,6560176e4d91f764e2a42c74,657157fc3c149fa70816bc8a,0.0442,0.0443,1,42,204,76,1,threeone,,,,,,,,,,,,,,,,,,,,,,,,,,,,,,,,,,,,,,,,,,,,,,,,,,,,,,,,,,,,,,,,,,,,,,,,,,,,,,,,,,,,,,,,,,,,,,,,,,,,,,,,,,,,,,,,,,,,,,,,,,,,,,,,,,,,,,,
,,6507915c6aa0147b8e6b201d,2023-12-07_15h29.07.953,kallum_motion_pilot,2023.2.3,Win32,15.00307563,6507915c6aa0147b8e6b201d,6560176e4d91f764e2a42c74,657157fc3c149fa70816bc8a,0.0444,0.0444,1,43,205,64,1,onetwo,,,,,,,,,,,,,,,,,,,,,,,,,,,,,,,,,,,,,,,,,,,,,,,,,,,,,,,,,,,,,,,,,,,,,,,,,,,,,,,,,,,,,,,,,,,,,,,,,,,,,,,,,,,,,,,,,,,,,,,,,,,,,,,,,,,,,,,
,,6507915c6aa0147b8e6b201d,2023-12-07_15h29.07.953,kallum_motion_pilot,2023.2.3,Win32,15.00307563,6507915c6aa0147b8e6b201d,6560176e4d91f764e2a42c74,657157fc3c149fa70816bc8a,0.0445,0.0446,1,44,206,11,1,twofour,,,,,,,,,,,,,,,,,,,,,,,,,,,,,,,,,,,,,,,,,,,,,,,,,,,,,,,,,,,,,,,,,,,,,,,,,,,,,,,,,,,,,,,,,,,,,,,,,,,,,,,,,,,,,,,,,,,,,,,,,,,,,,,,,,,,,,,
,,6507915c6aa0147b8e6b201d,2023-12-07_15h29.07.953,kallum_motion_pilot,2023.2.3,Win32,15.00307563,6507915c6aa0147b8e6b201d,6560176e4d91f764e2a42c74,657157fc3c149fa70816bc8a,0.0446,0.0446,1,45,207,103,1,eightseven,,,,,,,,,,,,,,,,,,,,,,,,,,,,,,,,,,,,,,,,,,,,,,,,,,,,,,,,,,,,,,,,,,,,,,,,,,,,,,,,,,,,,,,,,,,,,,,,,,,,,,,,,,,,,,,,,,,,,,,,,,,,,,,,,,,,,,,
,,6507915c6aa0147b8e6b201d,2023-12-07_15h29.07.953,kallum_motion_pilot,2023.2.3,Win32,15.00307563,6507915c6aa0147b8e6b201d,6560176e4d91f764e2a42c74,657157fc3c149fa70816bc8a,0.0447,0.0448,1,46,208,89,1,fiveseven,,,,,,,,,,,,,,,,,,,,,,,,,,,,,,,,,,,,,,,,,,,,,,,,,,,,,,,,,,,,,,,,,,,,,,,,,,,,,,,,,,,,,,,,,,,,,,,,,,,,,,,,,,,,,,,,,,,,,,,,,,,,,,,,,,,,,,,
,,6507915c6aa0147b8e6b201d,2023-12-07_15h29.07.953,kallum_motion_pilot,2023.2.3,Win32,15.00307563,6507915c6aa0147b8e6b201d,6560176e4d91f764e2a42c74,657157fc3c149fa70816bc8a,0.0449,0.0449,1,47,209,70,1,fourtwo,,,,,,,,,,,,,,,,,,,,,,,,,,,,,,,,,,,,,,,,,,,,,,,,,,,,,,,,,,,,,,,,,,,,,,,,,,,,,,,,,,,,,,,,,,,,,,,,,,,,,,,,,,,,,,,,,,,,,,,,,,,,,,,,,,,,,,,
,,6507915c6aa0147b8e6b201d,2023-12-07_15h29.07.953,kallum_motion_pilot,2023.2.3,Win32,15.00307563,6507915c6aa0147b8e6b201d,6560176e4d91f764e2a42c74,657157fc3c149fa70816bc8a,0.0449,0.045,1,48,210,77,1,threefour,,,,,,,,,,,,,,,,,,,,,,,,,,,,,,,,,,,,,,,,,,,,,,,,,,,,,,,,,,,,,,,,,,,,,,,,,,,,,,,,,,,,,,,,,,,,,,,,,,,,,,,,,,,,,,,,,,,,,,,,,,,,,,,,,,,,,,,
,,6507915c6aa0147b8e6b201d,2023-12-07_15h29.07.953,kallum_motion_pilot,2023.2.3,Win32,15.00307563,6507915c6aa0147b8e6b201d,6560176e4d91f764e2a42c74,657157fc3c149fa70816bc8a,0.0451,0.0451,1,49,211,112,1,fivesix,,,,,,,,,,,,,,,,,,,,,,,,,,,,,,,,,,,,,,,,,,,,,,,,,,,,,,,,,,,,,,,,,,,,,,,,,,,,,,,,,,,,,,,,,,,,,,,,,,,,,,,,,,,,,,,,,,,,,,,,,,,,,,,,,,,,,,,
,,6507915c6aa0147b8e6b201d,2023-12-07_15h29.07.953,kallum_motion_pilot,2023.2.3,Win32,15.00307563,6507915c6aa0147b8e6b201d,6560176e4d91f764e2a42c74,657157fc3c149fa70816bc8a,0.0452,0.0452,1,50,212,109,1,seveneight,,,,,,,,,,,,,,,,,,,,,,,,,,,,,,,,,,,,,,,,,,,,,,,,,,,,,,,,,,,,,,,,,,,,,,,,,,,,,,,,,,,,,,,,,,,,,,,,,,,,,,,,,,,,,,,,,,,,,,,,,,,,,,,,,,,,,,,
,,6507915c6aa0147b8e6b201d,2023-12-07_15h29.07.953,kallum_motion_pilot,2023.2.3,Win32,15.00307563,6507915c6aa0147b8e6b201d,6560176e4d91f764e2a42c74,657157fc3c149fa70816bc8a,0.0453,0.0454,1,51,213,157,1,seveneight,,,,,,,,,,,,,,,,,,,,,,,,,,,,,,,,,,,,,,,,,,,,,,,,,,,,,,,,,,,,,,,,,,,,,,,,,,,,,,,,,,,,,,,,,,,,,,,,,,,,,,,,,,,,,,,,,,,,,,,,,,,,,,,,,,,,,,,
,,6507915c6aa0147b8e6b201d,2023-12-07_15h29.07.953,kallum_motion_pilot,2023.2.3,Win32,15.00307563,6507915c6aa0147b8e6b201d,6560176e4d91f764e2a42c74,657157fc3c149fa70816bc8a,0.0454,0.0455,1,52,214,113,1,fiveseven,,,,,,,,,,,,,,,,,,,,,,,,,,,,,,,,,,,,,,,,,,,,,,,,,,,,,,,,,,,,,,,,,,,,,,,,,,,,,,,,,,,,,,,,,,,,,,,,,,,,,,,,,,,,,,,,,,,,,,,,,,,,,,,,,,,,,,,
,,6507915c6aa0147b8e6b201d,2023-12-07_15h29.07.953,kallum_motion_pilot,2023.2.3,Win32,15.00307563,6507915c6aa0147b8e6b201d,6560176e4d91f764e2a42c74,657157fc3c149fa70816bc8a,0.0455,0.0456,1,53,215,60,1,threeone,,,,,,,,,,,,,,,,,,,,,,,,,,,,,,,,,,,,,,,,,,,,,,,,,,,,,,,,,,,,,,,,,,,,,,,,,,,,,,,,,,,,,,,,,,,,,,,,,,,,,,,,,,,,,,,,,,,,,,,,,,,,,,,,,,,,,,,
,,6507915c6aa0147b8e6b201d,2023-12-07_15h29.07.953,kallum_motion_pilot,2023.2.3,Win32,15.00307563,6507915c6aa0147b8e6b201d,6560176e4d91f764e2a42c74,657157fc3c149fa70816bc8a,0.0457,0.0458,1,54,216,105,1,fiveseven,,,,,,,,,,,,,,,,,,,,,,,,,,,,,,,,,,,,,,,,,,,,,,,,,,,,,,,,,,,,,,,,,,,,,,,,,,,,,,,,,,,,,,,,,,,,,,,,,,,,,,,,,,,,,,,,,,,,,,,,,,,,,,,,,,,,,,,
,,6507915c6aa0147b8e6b201d,2023-12-07_15h29.07.953,kallum_motion_pilot,2023.2.3,Win32,15.00307563,6507915c6aa0147b8e6b201d,6560176e4d91f764e2a42c74,657157fc3c149fa70816bc8a,0.0458,0.0458,1,55,217,7,1,fourthree,,,,,,,,,,,,,,,,,,,,,,,,,,,,,,,,,,,,,,,,,,,,,,,,,,,,,,,,,,,,,,,,,,,,,,,,,,,,,,,,,,,,,,,,,,,,,,,,,,,,,,,,,,,,,,,,,,,,,,,,,,,,,,,,,,,,,,,
,,6507915c6aa0147b8e6b201d,2023-12-07_15h29.07.953,kallum_motion_pilot,2023.2.3,Win32,15.00307563,6507915c6aa0147b8e6b201d,6560176e4d91f764e2a42c74,657157fc3c149fa70816bc8a,0.0459,0.046,1,56,218,81,1,fiveseven,,,,,,,,,,,,,,,,,,,,,,,,,,,,,,,,,,,,,,,,,,,,,,,,,,,,,,,,,,,,,,,,,,,,,,,,,,,,,,,,,,,,,,,,,,,,,,,,,,,,,,,,,,,,,,,,,,,,,,,,,,,,,,,,,,,,,,,
,,6507915c6aa0147b8e6b201d,2023-12-07_15h29.07.953,kallum_motion_pilot,2023.2.3,Win32,15.00307563,6507915c6aa0147b8e6b201d,6560176e4d91f764e2a42c74,657157fc3c149fa70816bc8a,0.0461,0.0461,1,57,219,48,1,onetwo,,,,,,,,,,,,,,,,,,,,,,,,,,,,,,,,,,,,,,,,,,,,,,,,,,,,,,,,,,,,,,,,,,,,,,,,,,,,,,,,,,,,,,,,,,,,,,,,,,,,,,,,,,,,,,,,,,,,,,,,,,,,,,,,,,,,,,,
,,6507915c6aa0147b8e6b201d,2023-12-07_15h29.07.953,kallum_motion_pilot,2023.2.3,Win32,15.00307563,6507915c6aa0147b8e6b201d,6560176e4d91f764e2a42c74,657157fc3c149fa70816bc8a,0.0461,0.0462,1,58,220,83,1,sixeight,,,,,,,,,,,,,,,,,,,,,,,,,,,,,,,,,,,,,,,,,,,,,,,,,,,,,,,,,,,,,,,,,,,,,,,,,,,,,,,,,,,,,,,,,,,,,,,,,,,,,,,,,,,,,,,,,,,,,,,,,,,,,,,,,,,,,,,
,,6507915c6aa0147b8e6b201d,2023-12-07_15h29.07.953,kallum_motion_pilot,2023.2.3,Win32,15.00307563,6507915c6aa0147b8e6b201d,6560176e4d91f764e2a42c74,657157fc3c149fa70816bc8a,0.0463,0.0463,1,59,221,125,1,seveneight,,,,,,,,,,,,,,,,,,,,,,,,,,,,,,,,,,,,,,,,,,,,,,,,,,,,,,,,,,,,,,,,,,,,,,,,,,,,,,,,,,,,,,,,,,,,,,,,,,,,,,,,,,,,,,,,,,,,,,,,,,,,,,,,,,,,,,,
,,6507915c6aa0147b8e6b201d,2023-12-07_15h29.07.953,kallum_motion_pilot,2023.2.3,Win32,15.00307563,6507915c6aa0147b8e6b201d,6560176e4d91f764e2a42c74,657157fc3c149fa70816bc8a,0.0464,0.0464,1,60,222,140,1,sevenfive,,,,,,,,,,,,,,,,,,,,,,,,,,,,,,,,,,,,,,,,,,,,,,,,,,,,,,,,,,,,,,,,,,,,,,,,,,,,,,,,,,,,,,,,,,,,,,,,,,,,,,,,,,,,,,,,,,,,,,,,,,,,,,,,,,,,,,,
,,6507915c6aa0147b8e6b201d,2023-12-07_15h29.07.953,kallum_motion_pilot,2023.2.3,Win32,15.00307563,6507915c6aa0147b8e6b201d,6560176e4d91f764e2a42c74,657157fc3c149fa70816bc8a,0.0465,0.0466,1,61,223,91,1,sixeight,,,,,,,,,,,,,,,,,,,,,,,,,,,,,,,,,,,,,,,,,,,,,,,,,,,,,,,,,,,,,,,,,,,,,,,,,,,,,,,,,,,,,,,,,,,,,,,,,,,,,,,,,,,,,,,,,,,,,,,,,,,,,,,,,,,,,,,
,,6507915c6aa0147b8e6b201d,2023-12-07_15h29.07.953,kallum_motion_pilot,2023.2.3,Win32,15.00307563,6507915c6aa0147b8e6b201d,6560176e4d91f764e2a42c74,657157fc3c149fa70816bc8a,0.0466,0.0467,1,62,224,99,1,sixeight,,,,,,,,,,,,,,,,,,,,,,,,,,,,,,,,,,,,,,,,,,,,,,,,,,,,,,,,,,,,,,,,,,,,,,,,,,,,,,,,,,,,,,,,,,,,,,,,,,,,,,,,,,,,,,,,,,,,,,,,,,,,,,,,,,,,,,,
,,6507915c6aa0147b8e6b201d,2023-12-07_15h29.07.953,kallum_motion_pilot,2023.2.3,Win32,15.00307563,6507915c6aa0147b8e6b201d,6560176e4d91f764e2a42c74,657157fc3c149fa70816bc8a,0.0468,0.0468,1,63,225,18,1,twoone,,,,,,,,,,,,,,,,,,,,,,,,,,,,,,,,,,,,,,,,,,,,,,,,,,,,,,,,,,,,,,,,,,,,,,,,,,,,,,,,,,,,,,,,,,,,,,,,,,,,,,,,,,,,,,,,,,,,,,,,,,,,,,,,,,,,,,,
,,6507915c6aa0147b8e6b201d,2023-12-07_15h29.07.953,kallum_motion_pilot,2023.2.3,Win32,15.00307563,6507915c6aa0147b8e6b201d,6560176e4d91f764e2a42c74,657157fc3c149fa70816bc8a,0.0469,0.047,1,64,226,149,1,seveneight,,,,,,,,,,,,,,,,,,,,,,,,,,,,,,,,,,,,,,,,,,,,,,,,,,,,,,,,,,,,,,,,,,,,,,,,,,,,,,,,,,,,,,,,,,,,,,,,,,,,,,,,,,,,,,,,,,,,,,,,,,,,,,,,,,,,,,,
,,6507915c6aa0147b8e6b201d,2023-12-07_15h29.07.953,kallum_motion_pilot,2023.2.3,Win32,15.00307563,6507915c6aa0147b8e6b201d,6560176e4d91f764e2a42c74,657157fc3c149fa70816bc8a,0.047,0.047,1,65,227,128,1,fivesix,,,,,,,,,,,,,,,,,,,,,,,,,,,,,,,,,,,,,,,,,,,,,,,,,,,,,,,,,,,,,,,,,,,,,,,,,,,,,,,,,,,,,,,,,,,,,,,,,,,,,,,,,,,,,,,,,,,,,,,,,,,,,,,,,,,,,,,
,,6507915c6aa0147b8e6b201d,2023-12-07_15h29.07.953,kallum_motion_pilot,2023.2.3,Win32,15.00307563,6507915c6aa0147b8e6b201d,6560176e4d91f764e2a42c74,657157fc3c149fa70816bc8a,0.0471,0.0472,1,66,228,151,1,eightseven,,,,,,,,,,,,,,,,,,,,,,,,,,,,,,,,,,,,,,,,,,,,,,,,,,,,,,,,,,,,,,,,,,,,,,,,,,,,,,,,,,,,,,,,,,,,,,,,,,,,,,,,,,,,,,,,,,,,,,,,,,,,,,,,,,,,,,,
,,6507915c6aa0147b8e6b201d,2023-12-07_15h29.07.953,kallum_motion_pilot,2023.2.3,Win32,15.00307563,6507915c6aa0147b8e6b201d,6560176e4d91f764e2a42c74,657157fc3c149fa70816bc8a,0.0472,0.0473,1,67,229,107,1,sixeight,,,,,,,,,,,,,,,,,,,,,,,,,,,,,,,,,,,,,,,,,,,,,,,,,,,,,,,,,,,,,,,,,,,,,,,,,,,,,,,,,,,,,,,,,,,,,,,,,,,,,,,,,,,,,,,,,,,,,,,,,,,,,,,,,,,,,,,
,,6507915c6aa0147b8e6b201d,2023-12-07_15h29.07.953,kallum_motion_pilot,2023.2.3,Win32,15.00307563,6507915c6aa0147b8e6b201d,6560176e4d91f764e2a42c74,657157fc3c149fa70816bc8a,0.0474,0.0474,1,68,230,135,1,eightseven,,,,,,,,,,,,,,,,,,,,,,,,,,,,,,,,,,,,,,,,,,,,,,,,,,,,,,,,,,,,,,,,,,,,,,,,,,,,,,,,,,,,,,,,,,,,,,,,,,,,,,,,,,,,,,,,,,,,,,,,,,,,,,,,,,,,,,,
,,6507915c6aa0147b8e6b201d,2023-12-07_15h29.07.953,kallum_motion_pilot,2023.2.3,Win32,15.00307563,6507915c6aa0147b8e6b201d,6560176e4d91f764e2a42c74,657157fc3c149fa70816bc8a,0.0475,0.0475,1,69,231,88,1,fivesix,,,,,,,,,,,,,,,,,,,,,,,,,,,,,,,,,,,,,,,,,,,,,,,,,,,,,,,,,,,,,,,,,,,,,,,,,,,,,,,,,,,,,,,,,,,,,,,,,,,,,,,,,,,,,,,,,,,,,,,,,,,,,,,,,,,,,,,
,,6507915c6aa0147b8e6b201d,2023-12-07_15h29.07.953,kallum_motion_pilot,2023.2.3,Win32,15.00307563,6507915c6aa0147b8e6b201d,6560176e4d91f764e2a42c74,657157fc3c149fa70816bc8a,0.0476,0.0477,1,70,232,87,1,eightseven,,,,,,,,,,,,,,,,,,,,,,,,,,,,,,,,,,,,,,,,,,,,,,,,,,,,,,,,,,,,,,,,,,,,,,,,,,,,,,,,,,,,,,,,,,,,,,,,,,,,,,,,,,,,,,,,,,,,,,,,,,,,,,,,,,,,,,,
,,6507915c6aa0147b8e6b201d,2023-12-07_15h29.07.953,kallum_motion_pilot,2023.2.3,Win32,15.00307563,6507915c6aa0147b8e6b201d,6560176e4d91f764e2a42c74,657157fc3c149fa70816bc8a,0.0477,0.0478,1,71,233,63,1,fourthree,,,,,,,,,,,,,,,,,,,,,,,,,,,,,,,,,,,,,,,,,,,,,,,,,,,,,,,,,,,,,,,,,,,,,,,,,,,,,,,,,,,,,,,,,,,,,,,,,,,,,,,,,,,,,,,,,,,,,,,,,,,,,,,,,,,,,,,
,,6507915c6aa0147b8e6b201d,2023-12-07_15h29.07.953,kallum_motion_pilot,2023.2.3,Win32,15.00307563,6507915c6aa0147b8e6b201d,6560176e4d91f764e2a42c74,657157fc3c149fa70816bc8a,0.0479,0.048,1,72,234,82,1,sixfive,,,,,,,,,,,,,,,,,,,,,,,,,,,,,,,,,,,,,,,,,,,,,,,,,,,,,,,,,,,,,,,,,,,,,,,,,,,,,,,,,,,,,,,,,,,,,,,,,,,,,,,,,,,,,,,,,,,,,,,,,,,,,,,,,,,,,,,
,,6507915c6aa0147b8e6b201d,2023-12-07_15h29.07.953,kallum_motion_pilot,2023.2.3,Win32,15.00307563,6507915c6aa0147b8e6b201d,6560176e4d91f764e2a42c74,657157fc3c149fa70816bc8a,0.0481,0.0481,1,73,235,67,1,twofour,,,,,,,,,,,,,,,,,,,,,,,,,,,,,,,,,,,,,,,,,,,,,,,,,,,,,,,,,,,,,,,,,,,,,,,,,,,,,,,,,,,,,,,,,,,,,,,,,,,,,,,,,,,,,,,,,,,,,,,,,,,,,,,,,,,,,,,
,,6507915c6aa0147b8e6b201d,2023-12-07_15h29.07.953,kallum_motion_pilot,2023.2.3,Win32,15.00307563,6507915c6aa0147b8e6b201d,6560176e4d91f764e2a42c74,657157fc3c149fa70816bc8a,0.0482,0.0482,1,74,236,111,1,eightseven,,,,,,,,,,,,,,,,,,,,,,,,,,,,,,,,,,,,,,,,,,,,,,,,,,,,,,,,,,,,,,,,,,,,,,,,,,,,,,,,,,,,,,,,,,,,,,,,,,,,,,,,,,,,,,,,,,,,,,,,,,,,,,,,,,,,,,,
,,6507915c6aa0147b8e6b201d,2023-12-07_15h29.07.953,kallum_motion_pilot,2023.2.3,Win32,15.00307563,6507915c6aa0147b8e6b201d,6560176e4d91f764e2a42c74,657157fc3c149fa70816bc8a,0.0483,0.0483,1,75,237,29,1,threefour,,,,,,,,,,,,,,,,,,,,,,,,,,,,,,,,,,,,,,,,,,,,,,,,,,,,,,,,,,,,,,,,,,,,,,,,,,,,,,,,,,,,,,,,,,,,,,,,,,,,,,,,,,,,,,,,,,,,,,,,,,,,,,,,,,,,,,,
,,6507915c6aa0147b8e6b201d,2023-12-07_15h29.07.953,kallum_motion_pilot,2023.2.3,Win32,15.00307563,6507915c6aa0147b8e6b201d,6560176e4d91f764e2a42c74,657157fc3c149fa70816bc8a,0.0484,0.0484,1,76,238,1,1,onethree,,,,,,,,,,,,,,,,,,,,,,,,,,,,,,,,,,,,,,,,,,,,,,,,,,,,,,,,,,,,,,,,,,,,,,,,,,,,,,,,,,,,,,,,,,,,,,,,,,,,,,,,,,,,,,,,,,,,,,,,,,,,,,,,,,,,,,,
,,6507915c6aa0147b8e6b201d,2023-12-07_15h29.07.953,kallum_motion_pilot,2023.2.3,Win32,15.00307563,6507915c6aa0147b8e6b201d,6560176e4d91f764e2a42c74,657157fc3c149fa70816bc8a,0.0485,0.0485,1,77,239,43,1,twofour,,,,,,,,,,,,,,,,,,,,,,,,,,,,,,,,,,,,,,,,,,,,,,,,,,,,,,,,,,,,,,,,,,,,,,,,,,,,,,,,,,,,,,,,,,,,,,,,,,,,,,,,,,,,,,,,,,,,,,,,,,,,,,,,,,,,,,,
,,6507915c6aa0147b8e6b201d,2023-12-07_15h29.07.953,kallum_motion_pilot,2023.2.3,Win32,15.00307563,6507915c6aa0147b8e6b201d,6560176e4d91f764e2a42c74,657157fc3c149fa70816bc8a,0.0487,0.0487,1,78,240,57,1,onethree,,,,,,,,,,,,,,,,,,,,,,,,,,,,,,,,,,,,,,,,,,,,,,,,,,,,,,,,,,,,,,,,,,,,,,,,,,,,,,,,,,,,,,,,,,,,,,,,,,,,,,,,,,,,,,,,,,,,,,,,,,,,,,,,,,,,,,,
,,6507915c6aa0147b8e6b201d,2023-12-07_15h29.07.953,kallum_motion_pilot,2023.2.3,Win32,15.00307563,6507915c6aa0147b8e6b201d,6560176e4d91f764e2a42c74,657157fc3c149fa70816bc8a,0.0488,0.0489,1,79,241,141,1,seveneight,,,,,,,,,,,,,,,,,,,,,,,,,,,,,,,,,,,,,,,,,,,,,,,,,,,,,,,,,,,,,,,,,,,,,,,,,,,,,,,,,,,,,,,,,,,,,,,,,,,,,,,,,,,,,,,,,,,,,,,,,,,,,,,,,,,,,,,
,,6507915c6aa0147b8e6b201d,2023-12-07_15h29.07.953,kallum_motion_pilot,2023.2.3,Win32,15.00307563,6507915c6aa0147b8e6b201d,6560176e4d91f764e2a42c74,657157fc3c149fa70816bc8a,0.0489,0.049,1,80,242,45,1,threefour,,,,,,,,,,,,,,,,,,,,,,,,,,,,,,,,,,,,,,,,,,,,,,,,,,,,,,,,,,,,,,,,,,,,,,,,,,,,,,,,,,,,,,,,,,,,,,,,,,,,,,,,,,,,,,,,,,,,,,,,,,,,,,,,,,,,,,,
,,6507915c6aa0147b8e6b201d,2023-12-07_15h29.07.953,kallum_motion_pilot,2023.2.3,Win32,15.00307563,6507915c6aa0147b8e6b201d,6560176e4d91f764e2a42c74,657157fc3c149fa70816bc8a,0.0491,0.0491,1,81,243,143,1,eightseven,,,,,,,,,,,,,,,,,,,,,,,,,,,,,,,,,,,,,,,,,,,,,,,,,,,,,,,,,,,,,,,,,,,,,,,,,,,,,,,,,,,,,,,,,,,,,,,,,,,,,,,,,,,,,,,,,,,,,,,,,,,,,,,,,,,,,,,
,,6507915c6aa0147b8e6b201d,2023-12-07_15h29.07.953,kallum_motion_pilot,2023.2.3,Win32,15.00307563,6507915c6aa0147b8e6b201d,6560176e4d91f764e2a42c74,657157fc3c149fa70816bc8a,0.0492,0.0492,1,82,244,131,1,sixeight,,,,,,,,,,,,,,,,,,,,,,,,,,,,,,,,,,,,,,,,,,,,,,,,,,,,,,,,,,,,,,,,,,,,,,,,,,,,,,,,,,,,,,,,,,,,,,,,,,,,,,,,,,,,,,,,,,,,,,,,,,,,,,,,,,,,,,,
,,6507915c6aa0147b8e6b201d,2023-12-07_15h29.07.953,kallum_motion_pilot,2023.2.3,Win32,15.00307563,6507915c6aa0147b8e6b201d,6560176e4d91f764e2a42c74,657157fc3c149fa70816bc8a,0.0492,0.0493,1,83,245,75,1,twofour,,,,,,,,,,,,,,,,,,,,,,,,,,,,,,,,,,,,,,,,,,,,,,,,,,,,,,,,,,,,,,,,,,,,,,,,,,,,,,,,,,,,,,,,,,,,,,,,,,,,,,,,,,,,,,,,,,,,,,,,,,,,,,,,,,,,,,,
,,6507915c6aa0147b8e6b201d,2023-12-07_15h29.07.953,kallum_motion_pilot,2023.2.3,Win32,15.00307563,6507915c6aa0147b8e6b201d,6560176e4d91f764e2a42c74,657157fc3c149fa70816bc8a,0.0494,0.0495,1,84,246,118,1,eightsix,,,,,,,,,,,,,,,,,,,,,,,,,,,,,,,,,,,,,,,,,,,,,,,,,,,,,,,,,,,,,,,,,,,,,,,,,,,,,,,,,,,,,,,,,,,,,,,,,,,,,,,,,,,,,,,,,,,,,,,,,,,,,,,,,,,,,,,
,,6507915c6aa0147b8e6b201d,2023-12-07_15h29.07.953,kallum_motion_pilot,2023.2.3,Win32,15.00307563,6507915c6aa0147b8e6b201d,6560176e4d91f764e2a42c74,657157fc3c149fa70816bc8a,0.0495,0.0496,1,85,247,119,1,eightseven,,,,,,,,,,,,,,,,,,,,,,,,,,,,,,,,,,,,,,,,,,,,,,,,,,,,,,,,,,,,,,,,,,,,,,,,,,,,,,,,,,,,,,,,,,,,,,,,,,,,,,,,,,,,,,,,,,,,,,,,,,,,,,,,,,,,,,,
,,6507915c6aa0147b8e6b201d,2023-12-07_15h29.07.953,kallum_motion_pilot,2023.2.3,Win32,15.00307563,6507915c6aa0147b8e6b201d,6560176e4d91f764e2a42c74,657157fc3c149fa70816bc8a,0.0496,0.0497,1,86,248,24,1,onetwo,,,,,,,,,,,,,,,,,,,,,,,,,,,,,,,,,,,,,,,,,,,,,,,,,,,,,,,,,,,,,,,,,,,,,,,,,,,,,,,,,,,,,,,,,,,,,,,,,,,,,,,,,,,,,,,,,,,,,,,,,,,,,,,,,,,,,,,
,,6507915c6aa0147b8e6b201d,2023-12-07_15h29.07.953,kallum_motion_pilot,2023.2.3,Win32,15.00307563,6507915c6aa0147b8e6b201d,6560176e4d91f764e2a42c74,657157fc3c149fa70816bc8a,0.0498,0.0498,1,87,249,19,1,twofour,,,,,,,,,,,,,,,,,,,,,,,,,,,,,,,,,,,,,,,,,,,,,,,,,,,,,,,,,,,,,,,,,,,,,,,,,,,,,,,,,,,,,,,,,,,,,,,,,,,,,,,,,,,,,,,,,,,,,,,,,,,,,,,,,,,,,,,
,,6507915c6aa0147b8e6b201d,2023-12-07_15h29.07.953,kallum_motion_pilot,2023.2.3,Win32,15.00307563,6507915c6aa0147b8e6b201d,6560176e4d91f764e2a42c74,657157fc3c149fa70816bc8a,0.0499,0.0499,1,88,250,142,1,eightsix,,,,,,,,,,,,,,,,,,,,,,,,,,,,,,,,,,,,,,,,,,,,,,,,,,,,,,,,,,,,,,,,,,,,,,,,,,,,,,,,,,,,,,,,,,,,,,,,,,,,,,,,,,,,,,,,,,,,,,,,,,,,,,,,,,,,,,,
,,6507915c6aa0147b8e6b201d,2023-12-07_15h29.07.953,kallum_motion_pilot,2023.2.3,Win32,15.00307563,6507915c6aa0147b8e6b201d,6560176e4d91f764e2a42c74,657157fc3c149fa70816bc8a,0.0501,0.0501,1,89,251,139,1,sixeight,,,,,,,,,,,,,,,,,,,,,,,,,,,,,,,,,,,,,,,,,,,,,,,,,,,,,,,,,,,,,,,,,,,,,,,,,,,,,,,,,,,,,,,,,,,,,,,,,,,,,,,,,,,,,,,,,,,,,,,,,,,,,,,,,,,,,,,
,,6507915c6aa0147b8e6b201d,2023-12-07_15h29.07.953,kallum_motion_pilot,2023.2.3,Win32,15.00307563,6507915c6aa0147b8e6b201d,6560176e4d91f764e2a42c74,657157fc3c149fa70816bc8a,0.0502,0.0502,1,90,252,2,1,twoone,,,,,,,,,,,,,,,,,,,,,,,,,,,,,,,,,,,,,,,,,,,,,,,,,,,,,,,,,,,,,,,,,,,,,,,,,,,,,,,,,,,,,,,,,,,,,,,,,,,,,,,,,,,,,,,,,,,,,,,,,,,,,,,,,,,,,,,
,,6507915c6aa0147b8e6b201d,2023-12-07_15h29.07.953,kallum_motion_pilot,2023.2.3,Win32,15.00307563,6507915c6aa0147b8e6b201d,6560176e4d91f764e2a42c74,657157fc3c149fa70816bc8a,0.0503,0.0504,1,91,253,154,1,sixfive,,,,,,,,,,,,,,,,,,,,,,,,,,,,,,,,,,,,,,,,,,,,,,,,,,,,,,,,,,,,,,,,,,,,,,,,,,,,,,,,,,,,,,,,,,,,,,,,,,,,,,,,,,,,,,,,,,,,,,,,,,,,,,,,,,,,,,,
,,6507915c6aa0147b8e6b201d,2023-12-07_15h29.07.953,kallum_motion_pilot,2023.2.3,Win32,15.00307563,6507915c6aa0147b8e6b201d,6560176e4d91f764e2a42c74,657157fc3c149fa70816bc8a,0.0504,0.0505,1,92,254,110,1,eightsix,,,,,,,,,,,,,,,,,,,,,,,,,,,,,,,,,,,,,,,,,,,,,,,,,,,,,,,,,,,,,,,,,,,,,,,,,,,,,,,,,,,,,,,,,,,,,,,,,,,,,,,,,,,,,,,,,,,,,,,,,,,,,,,,,,,,,,,
,,6507915c6aa0147b8e6b201d,2023-12-07_15h29.07.953,kallum_motion_pilot,2023.2.3,Win32,15.00307563,6507915c6aa0147b8e6b201d,6560176e4d91f764e2a42c74,657157fc3c149fa70816bc8a,0.0506,0.0506,1,93,255,0,1,onetwo,,,,,,,,,,,,,,,,,,,,,,,,,,,,,,,,,,,,,,,,,,,,,,,,,,,,,,,,,,,,,,,,,,,,,,,,,,,,,,,,,,,,,,,,,,,,,,,,,,,,,,,,,,,,,,,,,,,,,,,,,,,,,,,,,,,,,,,
,,6507915c6aa0147b8e6b201d,2023-12-07_15h29.07.953,kallum_motion_pilot,2023.2.3,Win32,15.00307563,6507915c6aa0147b8e6b201d,6560176e4d91f764e2a42c74,657157fc3c149fa70816bc8a,0.0507,0.0507,1,94,256,25,1,onethree,,,,,,,,,,,,,,,,,,,,,,,,,,,,,,,,,,,,,,,,,,,,,,,,,,,,,,,,,,,,,,,,,,,,,,,,,,,,,,,,,,,,,,,,,,,,,,,,,,,,,,,,,,,,,,,,,,,,,,,,,,,,,,,,,,,,,,,
,,6507915c6aa0147b8e6b201d,2023-12-07_15h29.07.953,kallum_motion_pilot,2023.2.3,Win32,15.00307563,6507915c6aa0147b8e6b201d,6560176e4d91f764e2a42c74,657157fc3c149fa70816bc8a,0.0509,0.0509,1,95,257,148,1,sevenfive,,,,,,,,,,,,,,,,,,,,,,,,,,,,,,,,,,,,,,,,,,,,,,,,,,,,,,,,,,,,,,,,,,,,,,,,,,,,,,,,,,,,,,,,,,,,,,,,,,,,,,,,,,,,,,,,,,,,,,,,,,,,,,,,,,,,,,,
,,6507915c6aa0147b8e6b201d,2023-12-07_15h29.07.953,kallum_motion_pilot,2023.2.3,Win32,15.00307563,6507915c6aa0147b8e6b201d,6560176e4d91f764e2a42c74,657157fc3c149fa70816bc8a,0.0509,0.051,1,96,258,66,1,twoone,,,,,,,,,,,,,,,,,,,,,,,,,,,,,,,,,,,,,,,,,,,,,,,,,,,,,,,,,,,,,,,,,,,,,,,,,,,,,,,,,,,,,,,,,,,,,,,,,,,,,,,,,,,,,,,,,,,,,,,,,,,,,,,,,,,,,,,
,,6507915c6aa0147b8e6b201d,2023-12-07_15h29.07.953,kallum_motion_pilot,2023.2.3,Win32,15.00307563,6507915c6aa0147b8e6b201d,6560176e4d91f764e2a42c74,657157fc3c149fa70816bc8a,0.051,0.0511,1,97,259,122,1,sixfive,,,,,,,,,,,,,,,,,,,,,,,,,,,,,,,,,,,,,,,,,,,,,,,,,,,,,,,,,,,,,,,,,,,,,,,,,,,,,,,,,,,,,,,,,,,,,,,,,,,,,,,,,,,,,,,,,,,,,,,,,,,,,,,,,,,,,,,
,,6507915c6aa0147b8e6b201d,2023-12-07_15h29.07.953,kallum_motion_pilot,2023.2.3,Win32,15.00307563,6507915c6aa0147b8e6b201d,6560176e4d91f764e2a42c74,657157fc3c149fa70816bc8a,0.0512,0.0513,1,98,260,37,1,threefour,,,,,,,,,,,,,,,,,,,,,,,,,,,,,,,,,,,,,,,,,,,,,,,,,,,,,,,,,,,,,,,,,,,,,,,,,,,,,,,,,,,,,,,,,,,,,,,,,,,,,,,,,,,,,,,,,,,,,,,,,,,,,,,,,,,,,,,
,,6507915c6aa0147b8e6b201d,2023-12-07_15h29.07.953,kallum_motion_pilot,2023.2.3,Win32,15.00307563,6507915c6aa0147b8e6b201d,6560176e4d91f764e2a42c74,657157fc3c149fa70816bc8a,0.0514,0.0514,1,99,261,156,1,sevenfive,,,,,,,,,,,,,,,,,,,,,,,,,,,,,,,,,,,,,,,,,,,,,,,,,,,,,,,,,,,,,,,,,,,,,,,,,,,,,,,,,,,,,,,,,,,,,,,,,,,,,,,,,,,,,,,,,,,,,,,,,,,,,,,,,,,,,,,
,,6507915c6aa0147b8e6b201d,2023-12-07_15h29.07.953,kallum_motion_pilot,2023.2.3,Win32,15.00307563,6507915c6aa0147b8e6b201d,6560176e4d91f764e2a42c74,657157fc3c149fa70816bc8a,0.0514,0.0515,1,100,262,159,1,eightseven,,,,,,,,,,,,,,,,,,,,,,,,,,,,,,,,,,,,,,,,,,,,,,,,,,,,,,,,,,,,,,,,,,,,,,,,,,,,,,,,,,,,,,,,,,,,,,,,,,,,,,,,,,,,,,,,,,,,,,,,,,,,,,,,,,,,,,,
,,6507915c6aa0147b8e6b201d,2023-12-07_15h29.07.953,kallum_motion_pilot,2023.2.3,Win32,15.00307563,6507915c6aa0147b8e6b201d,6560176e4d91f764e2a42c74,657157fc3c149fa70816bc8a,0.0516,0.0517,1,101,263,160,1,fivesix,,,,,,,,,,,,,,,,,,,,,,,,,,,,,,,,,,,,,,,,,,,,,,,,,,,,,,,,,,,,,,,,,,,,,,,,,,,,,,,,,,,,,,,,,,,,,,,,,,,,,,,,,,,,,,,,,,,,,,,,,,,,,,,,,,,,,,,
,,6507915c6aa0147b8e6b201d,2023-12-07_15h29.07.953,kallum_motion_pilot,2023.2.3,Win32,15.00307563,6507915c6aa0147b8e6b201d,6560176e4d91f764e2a42c74,657157fc3c149fa70816bc8a,0.0518,0.0518,1,102,264,3,1,twofour,,,,,,,,,,,,,,,,,,,,,,,,,,,,,,,,,,,,,,,,,,,,,,,,,,,,,,,,,,,,,,,,,,,,,,,,,,,,,,,,,,,,,,,,,,,,,,,,,,,,,,,,,,,,,,,,,,,,,,,,,,,,,,,,,,,,,,,
,,6507915c6aa0147b8e6b201d,2023-12-07_15h29.07.953,kallum_motion_pilot,2023.2.3,Win32,15.00307563,6507915c6aa0147b8e6b201d,6560176e4d91f764e2a42c74,657157fc3c149fa70816bc8a,0.0518,0.0519,1,103,265,14,1,fourtwo,,,,,,,,,,,,,,,,,,,,,,,,,,,,,,,,,,,,,,,,,,,,,,,,,,,,,,,,,,,,,,,,,,,,,,,,,,,,,,,,,,,,,,,,,,,,,,,,,,,,,,,,,,,,,,,,,,,,,,,,,,,,,,,,,,,,,,,
,,6507915c6aa0147b8e6b201d,2023-12-07_15h29.07.953,kallum_motion_pilot,2023.2.3,Win32,15.00307563,6507915c6aa0147b8e6b201d,6560176e4d91f764e2a42c74,657157fc3c149fa70816bc8a,0.052,0.0521,1,104,266,130,1,sixfive,,,,,,,,,,,,,,,,,,,,,,,,,,,,,,,,,,,,,,,,,,,,,,,,,,,,,,,,,,,,,,,,,,,,,,,,,,,,,,,,,,,,,,,,,,,,,,,,,,,,,,,,,,,,,,,,,,,,,,,,,,,,,,,,,,,,,,,
,,6507915c6aa0147b8e6b201d,2023-12-07_15h29.07.953,kallum_motion_pilot,2023.2.3,Win32,15.00307563,6507915c6aa0147b8e6b201d,6560176e4d91f764e2a42c74,657157fc3c149fa70816bc8a,0.0521,0.0522,1,105,267,129,1,fiveseven,,,,,,,,,,,,,,,,,,,,,,,,,,,,,,,,,,,,,,,,,,,,,,,,,,,,,,,,,,,,,,,,,,,,,,,,,,,,,,,,,,,,,,,,,,,,,,,,,,,,,,,,,,,,,,,,,,,,,,,,,,,,,,,,,,,,,,,
,,6507915c6aa0147b8e6b201d,2023-12-07_15h29.07.953,kallum_motion_pilot,2023.2.3,Win32,15.00307563,6507915c6aa0147b8e6b201d,6560176e4d91f764e2a42c74,657157fc3c149fa70816bc8a,0.0523,0.0523,1,106,268,127,1,eightseven,,,,,,,,,,,,,,,,,,,,,,,,,,,,,,,,,,,,,,,,,,,,,,,,,,,,,,,,,,,,,,,,,,,,,,,,,,,,,,,,,,,,,,,,,,,,,,,,,,,,,,,,,,,,,,,,,,,,,,,,,,,,,,,,,,,,,,,
,,6507915c6aa0147b8e6b201d,2023-12-07_15h29.07.953,kallum_motion_pilot,2023.2.3,Win32,15.00307563,6507915c6aa0147b8e6b201d,6560176e4d91f764e2a42c74,657157fc3c149fa70816bc8a,0.0524,0.0525,1,107,269,123,1,sixeight,,,,,,,,,,,,,,,,,,,,,,,,,,,,,,,,,,,,,,,,,,,,,,,,,,,,,,,,,,,,,,,,,,,,,,,,,,,,,,,,,,,,,,,,,,,,,,,,,,,,,,,,,,,,,,,,,,,,,,,,,,,,,,,,,,,,,,,
,,6507915c6aa0147b8e6b201d,2023-12-07_15h29.07.953,kallum_motion_pilot,2023.2.3,Win32,15.00307563,6507915c6aa0147b8e6b201d,6560176e4d91f764e2a42c74,657157fc3c149fa70816bc8a,0.0525,0.0525,1,108,270,98,1,sixfive,,,,,,,,,,,,,,,,,,,,,,,,,,,,,,,,,,,,,,,,,,,,,,,,,,,,,,,,,,,,,,,,,,,,,,,,,,,,,,,,,,,,,,,,,,,,,,,,,,,,,,,,,,,,,,,,,,,,,,,,,,,,,,,,,,,,,,,
,,6507915c6aa0147b8e6b201d,2023-12-07_15h29.07.953,kallum_motion_pilot,2023.2.3,Win32,15.00307563,6507915c6aa0147b8e6b201d,6560176e4d91f764e2a42c74,657157fc3c149fa70816bc8a,0.0527,0.0527,1,109,271,85,1,seveneight,,,,,,,,,,,,,,,,,,,,,,,,,,,,,,,,,,,,,,,,,,,,,,,,,,,,,,,,,,,,,,,,,,,,,,,,,,,,,,,,,,,,,,,,,,,,,,,,,,,,,,,,,,,,,,,,,,,,,,,,,,,,,,,,,,,,,,,
,,6507915c6aa0147b8e6b201d,2023-12-07_15h29.07.953,kallum_motion_pilot,2023.2.3,Win32,15.00307563,6507915c6aa0147b8e6b201d,6560176e4d91f764e2a42c74,657157fc3c149fa70816bc8a,0.0527,0.0529,1,110,272,100,1,sevenfive,,,,,,,,,,,,,,,,,,,,,,,,,,,,,,,,,,,,,,,,,,,,,,,,,,,,,,,,,,,,,,,,,,,,,,,,,,,,,,,,,,,,,,,,,,,,,,,,,,,,,,,,,,,,,,,,,,,,,,,,,,,,,,,,,,,,,,,
,,6507915c6aa0147b8e6b201d,2023-12-07_15h29.07.953,kallum_motion_pilot,2023.2.3,Win32,15.00307563,6507915c6aa0147b8e6b201d,6560176e4d91f764e2a42c74,657157fc3c149fa70816bc8a,0.0529,0.053,1,111,273,144,1,fivesix,,,,,,,,,,,,,,,,,,,,,,,,,,,,,,,,,,,,,,,,,,,,,,,,,,,,,,,,,,,,,,,,,,,,,,,,,,,,,,,,,,,,,,,,,,,,,,,,,,,,,,,,,,,,,,,,,,,,,,,,,,,,,,,,,,,,,,,
,,6507915c6aa0147b8e6b201d,2023-12-07_15h29.07.953,kallum_motion_pilot,2023.2.3,Win32,15.00307563,6507915c6aa0147b8e6b201d,6560176e4d91f764e2a42c74,657157fc3c149fa70816bc8a,0.053,0.0531,1,112,274,132,1,sevenfive,,,,,,,,,,,,,,,,,,,,,,,,,,,,,,,,,,,,,,,,,,,,,,,,,,,,,,,,,,,,,,,,,,,,,,,,,,,,,,,,,,,,,,,,,,,,,,,,,,,,,,,,,,,,,,,,,,,,,,,,,,,,,,,,,,,,,,,
,,6507915c6aa0147b8e6b201d,2023-12-07_15h29.07.953,kallum_motion_pilot,2023.2.3,Win32,15.00307563,6507915c6aa0147b8e6b201d,6560176e4d91f764e2a42c74,657157fc3c149fa70816bc8a,0.0531,0.0532,1,113,275,47,1,fourthree,,,,,,,,,,,,,,,,,,,,,,,,,,,,,,,,,,,,,,,,,,,,,,,,,,,,,,,,,,,,,,,,,,,,,,,,,,,,,,,,,,,,,,,,,,,,,,,,,,,,,,,,,,,,,,,,,,,,,,,,,,,,,,,,,,,,,,,
,,6507915c6aa0147b8e6b201d,2023-12-07_15h29.07.953,kallum_motion_pilot,2023.2.3,Win32,15.00307563,6507915c6aa0147b8e6b201d,6560176e4d91f764e2a42c74,657157fc3c149fa70816bc8a,0.0533,0.0533,1,114,276,120,1,fivesix,,,,,,,,,,,,,,,,,,,,,,,,,,,,,,,,,,,,,,,,,,,,,,,,,,,,,,,,,,,,,,,,,,,,,,,,,,,,,,,,,,,,,,,,,,,,,,,,,,,,,,,,,,,,,,,,,,,,,,,,,,,,,,,,,,,,,,,
,,6507915c6aa0147b8e6b201d,2023-12-07_15h29.07.953,kallum_motion_pilot,2023.2.3,Win32,15.00307563,6507915c6aa0147b8e6b201d,6560176e4d91f764e2a42c74,657157fc3c149fa70816bc8a,0.0534,0.0535,1,115,277,12,1,threeone,,,,,,,,,,,,,,,,,,,,,,,,,,,,,,,,,,,,,,,,,,,,,,,,,,,,,,,,,,,,,,,,,,,,,,,,,,,,,,,,,,,,,,,,,,,,,,,,,,,,,,,,,,,,,,,,,,,,,,,,,,,,,,,,,,,,,,,
,,6507915c6aa0147b8e6b201d,2023-12-07_15h29.07.953,kallum_motion_pilot,2023.2.3,Win32,15.00307563,6507915c6aa0147b8e6b201d,6560176e4d91f764e2a42c74,657157fc3c149fa70816bc8a,0.0535,0.0536,1,116,278,50,1,twoone,,,,,,,,,,,,,,,,,,,,,,,,,,,,,,,,,,,,,,,,,,,,,,,,,,,,,,,,,,,,,,,,,,,,,,,,,,,,,,,,,,,,,,,,,,,,,,,,,,,,,,,,,,,,,,,,,,,,,,,,,,,,,,,,,,,,,,,
,,6507915c6aa0147b8e6b201d,2023-12-07_15h29.07.953,kallum_motion_pilot,2023.2.3,Win32,15.00307563,6507915c6aa0147b8e6b201d,6560176e4d91f764e2a42c74,657157fc3c149fa70816bc8a,0.0537,0.0537,1,117,279,38,1,fourtwo,,,,,,,,,,,,,,,,,,,,,,,,,,,,,,,,,,,,,,,,,,,,,,,,,,,,,,,,,,,,,,,,,,,,,,,,,,,,,,,,,,,,,,,,,,,,,,,,,,,,,,,,,,,,,,,,,,,,,,,,,,,,,,,,,,,,,,,
