startup.started,startup.stopped,Prolific ID*,date,expName,psychopyVersion,OS,frameRate,participant,study_id,session,stimpositions.started,stimpositions.stopped,hardcoded_stimulus_positions.thisRepN,hardcoded_stimulus_positions.thisTrialN,hardcoded_stimulus_positions.thisN,hardcoded_stimulus_positions.thisIndex,hardcoded_stimulus_positions.ran,StimulusPos,stimorientation.started,stimorientation.stopped,prac_stimorientation_import_loop.thisRepN,prac_stimorientation_import_loop.thisTrialN,prac_stimorientation_import_loop.thisN,prac_stimorientation_import_loop.thisIndex,prac_stimorientation_import_loop.ran,Stimorientation,welcome_instr.started,welcome_instr.stopped,key_resp.keys,key_resp.rt,key_resp.duration,response_steppedout_1.started,response_steppedout_1.stopped,key_resp_20.keys,key_resp_20.rt,key_resp_20.duration,response_steppedout_2.started,response_steppedout_2.stopped,key_resp_19.keys,key_resp_19.rt,key_resp_19.duration,stim_response_instr.started,stim_response_instr.stopped,key_resp_15.keys,key_resp_15.rt,key_resp_15.duration,direction_instr_2.started,direction_instr_2.stopped,key_resp_9.keys,key_resp_9.rt,key_resp_9.duration,instr_prac.started,instr_prac.stopped,key_resp_10.keys,key_resp_10.rt,key_resp_10.duration,Stim1_display_prac.started,Stim1_display_prac.stopped,Ecc,Circle1_ori,Circle2_ori,response_prac.started,similarity,response_time,response_prac.stopped,mouse_5.x,mouse_5.y,mouse_5.leftButton,mouse_5.midButton,mouse_5.rightButton,mouse_5.clicked_name,responseprac_feedback.started,responseprac_feedback.stopped,summary2_prac.started,summary2_prac.stopped,mouse_6.x,mouse_6.y,mouse_6.leftButton,mouse_6.midButton,mouse_6.rightButton,mouse_6.clicked_name,duringprac.thisRepN,duringprac.thisTrialN,duringprac.thisN,duringprac.thisIndex,duringprac.ran,begin.started,begin.stopped,key_resp_22.keys,key_resp_22.rt,key_resp_22.duration,Stim1_display.started,Stim1_display.stopped,circle1_ori,circle2_ori,blank.started,blank.stopped,response.started,response.stopped,mouse.x,mouse.y,mouse.leftButton,mouse.midButton,mouse.rightButton,mouse.clicked_name,response_2.started,response_2.stopped,mouse_2.x,mouse_2.y,mouse_2.leftButton,mouse_2.midButton,mouse_2.rightButton,mouse_2.clicked_name,special_trial.started,special_trial.stopped,catch_1.started,catch_1.stopped,mouse_3.x,mouse_3.y,mouse_3.leftButton,mouse_3.midButton,mouse_3.rightButton,catchresponse,catchnumber,response_time_catch,Catch,response_sum.started,response_sum.stopped,mouse_11.x,mouse_11.y,mouse_11.leftButton,mouse_11.midButton,mouse_11.rightButton,main_trial.thisRepN,main_trial.thisTrialN,main_trial.thisN,main_trial.thisIndex,main_trial.ran,Orientationtrialno,xcircle1_ori,xcircle2_ori,flip_presentation_sequence_for_double_pass.started,flip_presentation_sequence_for_double_pass.stopped,double_pass.thisRepN,double_pass.thisTrialN,double_pass.thisN,double_pass.thisIndex,double_pass.ran,goodbye.started,goodbye.stopped,key_resp_3.keys,key_resp_3.rt,key_resp_3.duration
0.0002,0.0003,652985d179fb620c91ac14a1,2023-12-07_08h02.22.429,kallum_motion_pilot,2023.2.3,Win32,59.69436485,652985d179fb620c91ac14a1,6560176e4d91f764e2a42c74,65716d719e2550a2ba47008e,,,,,,,,,,,,,,,,,,,,,,,,,,,,,,,,,,,,,,,,,,,,,,,,,,,,,,,,,,,,,,,,,,,,,,,,,,,,,,,,,,,,,,,,,,,,,,,,,,,,,,,,,,,,,,,,,,,,,,,,,,,,,,,,,,,,,,,,,,,,,,,
,,652985d179fb620c91ac14a1,2023-12-07_08h02.22.429,kallum_motion_pilot,2023.2.3,Win32,59.69436485,652985d179fb620c91ac14a1,6560176e4d91f764e2a42c74,65716d719e2550a2ba47008e,0.0181,0.0183,0,0,0,11,1,twofour,,,,,,,,,,,,,,,,,,,,,,,,,,,,,,,,,,,,,,,,,,,,,,,,,,,,,,,,,,,,,,,,,,,,,,,,,,,,,,,,,,,,,,,,,,,,,,,,,,,,,,,,,,,,,,,,,,,,,,,,,,,,,,,,,,,,,,,
,,652985d179fb620c91ac14a1,2023-12-07_08h02.22.429,kallum_motion_pilot,2023.2.3,Win32,59.69436485,652985d179fb620c91ac14a1,6560176e4d91f764e2a42c74,65716d719e2550a2ba47008e,0.0185,0.0185,0,1,1,59,1,twofour,,,,,,,,,,,,,,,,,,,,,,,,,,,,,,,,,,,,,,,,,,,,,,,,,,,,,,,,,,,,,,,,,,,,,,,,,,,,,,,,,,,,,,,,,,,,,,,,,,,,,,,,,,,,,,,,,,,,,,,,,,,,,,,,,,,,,,,
,,652985d179fb620c91ac14a1,2023-12-07_08h02.22.429,kallum_motion_pilot,2023.2.3,Win32,59.69436485,652985d179fb620c91ac14a1,6560176e4d91f764e2a42c74,65716d719e2550a2ba47008e,0.0185,0.0185,0,2,2,73,1,onethree,,,,,,,,,,,,,,,,,,,,,,,,,,,,,,,,,,,,,,,,,,,,,,,,,,,,,,,,,,,,,,,,,,,,,,,,,,,,,,,,,,,,,,,,,,,,,,,,,,,,,,,,,,,,,,,,,,,,,,,,,,,,,,,,,,,,,,,
,,652985d179fb620c91ac14a1,2023-12-07_08h02.22.429,kallum_motion_pilot,2023.2.3,Win32,59.69436485,652985d179fb620c91ac14a1,6560176e4d91f764e2a42c74,65716d719e2550a2ba47008e,0.0186,0.0186,0,3,3,118,1,eightsix,,,,,,,,,,,,,,,,,,,,,,,,,,,,,,,,,,,,,,,,,,,,,,,,,,,,,,,,,,,,,,,,,,,,,,,,,,,,,,,,,,,,,,,,,,,,,,,,,,,,,,,,,,,,,,,,,,,,,,,,,,,,,,,,,,,,,,,
,,652985d179fb620c91ac14a1,2023-12-07_08h02.22.429,kallum_motion_pilot,2023.2.3,Win32,59.69436485,652985d179fb620c91ac14a1,6560176e4d91f764e2a42c74,65716d719e2550a2ba47008e,0.0188,0.0188,0,4,4,55,1,fourthree,,,,,,,,,,,,,,,,,,,,,,,,,,,,,,,,,,,,,,,,,,,,,,,,,,,,,,,,,,,,,,,,,,,,,,,,,,,,,,,,,,,,,,,,,,,,,,,,,,,,,,,,,,,,,,,,,,,,,,,,,,,,,,,,,,,,,,,
,,652985d179fb620c91ac14a1,2023-12-07_08h02.22.429,kallum_motion_pilot,2023.2.3,Win32,59.69436485,652985d179fb620c91ac14a1,6560176e4d91f764e2a42c74,65716d719e2550a2ba47008e,0.0189,0.0189,0,5,5,7,1,fourthree,,,,,,,,,,,,,,,,,,,,,,,,,,,,,,,,,,,,,,,,,,,,,,,,,,,,,,,,,,,,,,,,,,,,,,,,,,,,,,,,,,,,,,,,,,,,,,,,,,,,,,,,,,,,,,,,,,,,,,,,,,,,,,,,,,,,,,,
,,652985d179fb620c91ac14a1,2023-12-07_08h02.22.429,kallum_motion_pilot,2023.2.3,Win32,59.69436485,652985d179fb620c91ac14a1,6560176e4d91f764e2a42c74,65716d719e2550a2ba47008e,0.019,0.019,0,6,6,113,1,fiveseven,,,,,,,,,,,,,,,,,,,,,,,,,,,,,,,,,,,,,,,,,,,,,,,,,,,,,,,,,,,,,,,,,,,,,,,,,,,,,,,,,,,,,,,,,,,,,,,,,,,,,,,,,,,,,,,,,,,,,,,,,,,,,,,,,,,,,,,
,,652985d179fb620c91ac14a1,2023-12-07_08h02.22.429,kallum_motion_pilot,2023.2.3,Win32,59.69436485,652985d179fb620c91ac14a1,6560176e4d91f764e2a42c74,65716d719e2550a2ba47008e,0.019,0.019,0,7,7,27,1,twofour,,,,,,,,,,,,,,,,,,,,,,,,,,,,,,,,,,,,,,,,,,,,,,,,,,,,,,,,,,,,,,,,,,,,,,,,,,,,,,,,,,,,,,,,,,,,,,,,,,,,,,,,,,,,,,,,,,,,,,,,,,,,,,,,,,,,,,,
,,652985d179fb620c91ac14a1,2023-12-07_08h02.22.429,kallum_motion_pilot,2023.2.3,Win32,59.69436485,652985d179fb620c91ac14a1,6560176e4d91f764e2a42c74,65716d719e2550a2ba47008e,0.0191,0.0191,0,8,8,4,1,threeone,,,,,,,,,,,,,,,,,,,,,,,,,,,,,,,,,,,,,,,,,,,,,,,,,,,,,,,,,,,,,,,,,,,,,,,,,,,,,,,,,,,,,,,,,,,,,,,,,,,,,,,,,,,,,,,,,,,,,,,,,,,,,,,,,,,,,,,
,,652985d179fb620c91ac14a1,2023-12-07_08h02.22.429,kallum_motion_pilot,2023.2.3,Win32,59.69436485,652985d179fb620c91ac14a1,6560176e4d91f764e2a42c74,65716d719e2550a2ba47008e,0.0192,0.0192,0,9,9,147,1,sixeight,,,,,,,,,,,,,,,,,,,,,,,,,,,,,,,,,,,,,,,,,,,,,,,,,,,,,,,,,,,,,,,,,,,,,,,,,,,,,,,,,,,,,,,,,,,,,,,,,,,,,,,,,,,,,,,,,,,,,,,,,,,,,,,,,,,,,,,
,,652985d179fb620c91ac14a1,2023-12-07_08h02.22.429,kallum_motion_pilot,2023.2.3,Win32,59.69436485,652985d179fb620c91ac14a1,6560176e4d91f764e2a42c74,65716d719e2550a2ba47008e,0.0194,0.0194,0,10,10,85,1,seveneight,,,,,,,,,,,,,,,,,,,,,,,,,,,,,,,,,,,,,,,,,,,,,,,,,,,,,,,,,,,,,,,,,,,,,,,,,,,,,,,,,,,,,,,,,,,,,,,,,,,,,,,,,,,,,,,,,,,,,,,,,,,,,,,,,,,,,,,
,,652985d179fb620c91ac14a1,2023-12-07_08h02.22.429,kallum_motion_pilot,2023.2.3,Win32,59.69436485,652985d179fb620c91ac14a1,6560176e4d91f764e2a42c74,65716d719e2550a2ba47008e,0.0195,0.0195,0,11,11,111,1,eightseven,,,,,,,,,,,,,,,,,,,,,,,,,,,,,,,,,,,,,,,,,,,,,,,,,,,,,,,,,,,,,,,,,,,,,,,,,,,,,,,,,,,,,,,,,,,,,,,,,,,,,,,,,,,,,,,,,,,,,,,,,,,,,,,,,,,,,,,
,,652985d179fb620c91ac14a1,2023-12-07_08h02.22.429,kallum_motion_pilot,2023.2.3,Win32,59.69436485,652985d179fb620c91ac14a1,6560176e4d91f764e2a42c74,65716d719e2550a2ba47008e,0.0195,0.0195,0,12,12,157,1,seveneight,,,,,,,,,,,,,,,,,,,,,,,,,,,,,,,,,,,,,,,,,,,,,,,,,,,,,,,,,,,,,,,,,,,,,,,,,,,,,,,,,,,,,,,,,,,,,,,,,,,,,,,,,,,,,,,,,,,,,,,,,,,,,,,,,,,,,,,
,,652985d179fb620c91ac14a1,2023-12-07_08h02.22.429,kallum_motion_pilot,2023.2.3,Win32,59.69436485,652985d179fb620c91ac14a1,6560176e4d91f764e2a42c74,65716d719e2550a2ba47008e,0.0196,0.0196,0,13,13,129,1,fiveseven,,,,,,,,,,,,,,,,,,,,,,,,,,,,,,,,,,,,,,,,,,,,,,,,,,,,,,,,,,,,,,,,,,,,,,,,,,,,,,,,,,,,,,,,,,,,,,,,,,,,,,,,,,,,,,,,,,,,,,,,,,,,,,,,,,,,,,,
,,652985d179fb620c91ac14a1,2023-12-07_08h02.22.429,kallum_motion_pilot,2023.2.3,Win32,59.69436485,652985d179fb620c91ac14a1,6560176e4d91f764e2a42c74,65716d719e2550a2ba47008e,0.0197,0.0197,0,14,14,99,1,sixeight,,,,,,,,,,,,,,,,,,,,,,,,,,,,,,,,,,,,,,,,,,,,,,,,,,,,,,,,,,,,,,,,,,,,,,,,,,,,,,,,,,,,,,,,,,,,,,,,,,,,,,,,,,,,,,,,,,,,,,,,,,,,,,,,,,,,,,,
,,652985d179fb620c91ac14a1,2023-12-07_08h02.22.429,kallum_motion_pilot,2023.2.3,Win32,59.69436485,652985d179fb620c91ac14a1,6560176e4d91f764e2a42c74,65716d719e2550a2ba47008e,0.0197,0.0198,0,15,15,23,1,fourthree,,,,,,,,,,,,,,,,,,,,,,,,,,,,,,,,,,,,,,,,,,,,,,,,,,,,,,,,,,,,,,,,,,,,,,,,,,,,,,,,,,,,,,,,,,,,,,,,,,,,,,,,,,,,,,,,,,,,,,,,,,,,,,,,,,,,,,,
,,652985d179fb620c91ac14a1,2023-12-07_08h02.22.429,kallum_motion_pilot,2023.2.3,Win32,59.69436485,652985d179fb620c91ac14a1,6560176e4d91f764e2a42c74,65716d719e2550a2ba47008e,0.0198,0.0198,0,16,16,125,1,seveneight,,,,,,,,,,,,,,,,,,,,,,,,,,,,,,,,,,,,,,,,,,,,,,,,,,,,,,,,,,,,,,,,,,,,,,,,,,,,,,,,,,,,,,,,,,,,,,,,,,,,,,,,,,,,,,,,,,,,,,,,,,,,,,,,,,,,,,,
,,652985d179fb620c91ac14a1,2023-12-07_08h02.22.429,kallum_motion_pilot,2023.2.3,Win32,59.69436485,652985d179fb620c91ac14a1,6560176e4d91f764e2a42c74,65716d719e2550a2ba47008e,0.0199,0.0199,0,17,17,54,1,fourtwo,,,,,,,,,,,,,,,,,,,,,,,,,,,,,,,,,,,,,,,,,,,,,,,,,,,,,,,,,,,,,,,,,,,,,,,,,,,,,,,,,,,,,,,,,,,,,,,,,,,,,,,,,,,,,,,,,,,,,,,,,,,,,,,,,,,,,,,
,,652985d179fb620c91ac14a1,2023-12-07_08h02.22.429,kallum_motion_pilot,2023.2.3,Win32,59.69436485,652985d179fb620c91ac14a1,6560176e4d91f764e2a42c74,65716d719e2550a2ba47008e,0.0199,0.0199,0,18,18,33,1,onethree,,,,,,,,,,,,,,,,,,,,,,,,,,,,,,,,,,,,,,,,,,,,,,,,,,,,,,,,,,,,,,,,,,,,,,,,,,,,,,,,,,,,,,,,,,,,,,,,,,,,,,,,,,,,,,,,,,,,,,,,,,,,,,,,,,,,,,,
,,652985d179fb620c91ac14a1,2023-12-07_08h02.22.429,kallum_motion_pilot,2023.2.3,Win32,59.69436485,652985d179fb620c91ac14a1,6560176e4d91f764e2a42c74,65716d719e2550a2ba47008e,0.02,0.02,0,19,19,155,1,sixeight,,,,,,,,,,,,,,,,,,,,,,,,,,,,,,,,,,,,,,,,,,,,,,,,,,,,,,,,,,,,,,,,,,,,,,,,,,,,,,,,,,,,,,,,,,,,,,,,,,,,,,,,,,,,,,,,,,,,,,,,,,,,,,,,,,,,,,,
,,652985d179fb620c91ac14a1,2023-12-07_08h02.22.429,kallum_motion_pilot,2023.2.3,Win32,59.69436485,652985d179fb620c91ac14a1,6560176e4d91f764e2a42c74,65716d719e2550a2ba47008e,0.0201,0.0201,0,20,20,61,1,threefour,,,,,,,,,,,,,,,,,,,,,,,,,,,,,,,,,,,,,,,,,,,,,,,,,,,,,,,,,,,,,,,,,,,,,,,,,,,,,,,,,,,,,,,,,,,,,,,,,,,,,,,,,,,,,,,,,,,,,,,,,,,,,,,,,,,,,,,
,,652985d179fb620c91ac14a1,2023-12-07_08h02.22.429,kallum_motion_pilot,2023.2.3,Win32,59.69436485,652985d179fb620c91ac14a1,6560176e4d91f764e2a42c74,65716d719e2550a2ba47008e,0.0202,0.0202,0,21,21,78,1,fourtwo,,,,,,,,,,,,,,,,,,,,,,,,,,,,,,,,,,,,,,,,,,,,,,,,,,,,,,,,,,,,,,,,,,,,,,,,,,,,,,,,,,,,,,,,,,,,,,,,,,,,,,,,,,,,,,,,,,,,,,,,,,,,,,,,,,,,,,,
,,652985d179fb620c91ac14a1,2023-12-07_08h02.22.429,kallum_motion_pilot,2023.2.3,Win32,59.69436485,652985d179fb620c91ac14a1,6560176e4d91f764e2a42c74,65716d719e2550a2ba47008e,0.0202,0.0202,0,22,22,100,1,sevenfive,,,,,,,,,,,,,,,,,,,,,,,,,,,,,,,,,,,,,,,,,,,,,,,,,,,,,,,,,,,,,,,,,,,,,,,,,,,,,,,,,,,,,,,,,,,,,,,,,,,,,,,,,,,,,,,,,,,,,,,,,,,,,,,,,,,,,,,
,,652985d179fb620c91ac14a1,2023-12-07_08h02.22.429,kallum_motion_pilot,2023.2.3,Win32,59.69436485,652985d179fb620c91ac14a1,6560176e4d91f764e2a42c74,65716d719e2550a2ba47008e,0.0203,0.0203,0,23,23,133,1,seveneight,,,,,,,,,,,,,,,,,,,,,,,,,,,,,,,,,,,,,,,,,,,,,,,,,,,,,,,,,,,,,,,,,,,,,,,,,,,,,,,,,,,,,,,,,,,,,,,,,,,,,,,,,,,,,,,,,,,,,,,,,,,,,,,,,,,,,,,
,,652985d179fb620c91ac14a1,2023-12-07_08h02.22.429,kallum_motion_pilot,2023.2.3,Win32,59.69436485,652985d179fb620c91ac14a1,6560176e4d91f764e2a42c74,65716d719e2550a2ba47008e,0.0204,0.0204,0,24,24,127,1,eightseven,,,,,,,,,,,,,,,,,,,,,,,,,,,,,,,,,,,,,,,,,,,,,,,,,,,,,,,,,,,,,,,,,,,,,,,,,,,,,,,,,,,,,,,,,,,,,,,,,,,,,,,,,,,,,,,,,,,,,,,,,,,,,,,,,,,,,,,
,,652985d179fb620c91ac14a1,2023-12-07_08h02.22.429,kallum_motion_pilot,2023.2.3,Win32,59.69436485,652985d179fb620c91ac14a1,6560176e4d91f764e2a42c74,65716d719e2550a2ba47008e,0.0205,0.0205,0,25,25,29,1,threefour,,,,,,,,,,,,,,,,,,,,,,,,,,,,,,,,,,,,,,,,,,,,,,,,,,,,,,,,,,,,,,,,,,,,,,,,,,,,,,,,,,,,,,,,,,,,,,,,,,,,,,,,,,,,,,,,,,,,,,,,,,,,,,,,,,,,,,,
,,652985d179fb620c91ac14a1,2023-12-07_08h02.22.429,kallum_motion_pilot,2023.2.3,Win32,59.69436485,652985d179fb620c91ac14a1,6560176e4d91f764e2a42c74,65716d719e2550a2ba47008e,0.0206,0.0206,0,26,26,70,1,fourtwo,,,,,,,,,,,,,,,,,,,,,,,,,,,,,,,,,,,,,,,,,,,,,,,,,,,,,,,,,,,,,,,,,,,,,,,,,,,,,,,,,,,,,,,,,,,,,,,,,,,,,,,,,,,,,,,,,,,,,,,,,,,,,,,,,,,,,,,
,,652985d179fb620c91ac14a1,2023-12-07_08h02.22.429,kallum_motion_pilot,2023.2.3,Win32,59.69436485,652985d179fb620c91ac14a1,6560176e4d91f764e2a42c74,65716d719e2550a2ba47008e,0.0207,0.0207,0,27,27,93,1,seveneight,,,,,,,,,,,,,,,,,,,,,,,,,,,,,,,,,,,,,,,,,,,,,,,,,,,,,,,,,,,,,,,,,,,,,,,,,,,,,,,,,,,,,,,,,,,,,,,,,,,,,,,,,,,,,,,,,,,,,,,,,,,,,,,,,,,,,,,
,,652985d179fb620c91ac14a1,2023-12-07_08h02.22.429,kallum_motion_pilot,2023.2.3,Win32,59.69436485,652985d179fb620c91ac14a1,6560176e4d91f764e2a42c74,65716d719e2550a2ba47008e,0.0207,0.0208,0,28,28,77,1,threefour,,,,,,,,,,,,,,,,,,,,,,,,,,,,,,,,,,,,,,,,,,,,,,,,,,,,,,,,,,,,,,,,,,,,,,,,,,,,,,,,,,,,,,,,,,,,,,,,,,,,,,,,,,,,,,,,,,,,,,,,,,,,,,,,,,,,,,,
,,652985d179fb620c91ac14a1,2023-12-07_08h02.22.429,kallum_motion_pilot,2023.2.3,Win32,59.69436485,652985d179fb620c91ac14a1,6560176e4d91f764e2a42c74,65716d719e2550a2ba47008e,0.0209,0.0209,0,29,29,159,1,eightseven,,,,,,,,,,,,,,,,,,,,,,,,,,,,,,,,,,,,,,,,,,,,,,,,,,,,,,,,,,,,,,,,,,,,,,,,,,,,,,,,,,,,,,,,,,,,,,,,,,,,,,,,,,,,,,,,,,,,,,,,,,,,,,,,,,,,,,,
,,652985d179fb620c91ac14a1,2023-12-07_08h02.22.429,kallum_motion_pilot,2023.2.3,Win32,59.69436485,652985d179fb620c91ac14a1,6560176e4d91f764e2a42c74,65716d719e2550a2ba47008e,0.021,0.021,0,30,30,20,1,threeone,,,,,,,,,,,,,,,,,,,,,,,,,,,,,,,,,,,,,,,,,,,,,,,,,,,,,,,,,,,,,,,,,,,,,,,,,,,,,,,,,,,,,,,,,,,,,,,,,,,,,,,,,,,,,,,,,,,,,,,,,,,,,,,,,,,,,,,
,,652985d179fb620c91ac14a1,2023-12-07_08h02.22.429,kallum_motion_pilot,2023.2.3,Win32,59.69436485,652985d179fb620c91ac14a1,6560176e4d91f764e2a42c74,65716d719e2550a2ba47008e,0.021,0.021,0,31,31,89,1,fiveseven,,,,,,,,,,,,,,,,,,,,,,,,,,,,,,,,,,,,,,,,,,,,,,,,,,,,,,,,,,,,,,,,,,,,,,,,,,,,,,,,,,,,,,,,,,,,,,,,,,,,,,,,,,,,,,,,,,,,,,,,,,,,,,,,,,,,,,,
,,652985d179fb620c91ac14a1,2023-12-07_08h02.22.429,kallum_motion_pilot,2023.2.3,Win32,59.69436485,652985d179fb620c91ac14a1,6560176e4d91f764e2a42c74,65716d719e2550a2ba47008e,0.0211,0.0211,0,32,32,57,1,onethree,,,,,,,,,,,,,,,,,,,,,,,,,,,,,,,,,,,,,,,,,,,,,,,,,,,,,,,,,,,,,,,,,,,,,,,,,,,,,,,,,,,,,,,,,,,,,,,,,,,,,,,,,,,,,,,,,,,,,,,,,,,,,,,,,,,,,,,
,,652985d179fb620c91ac14a1,2023-12-07_08h02.22.429,kallum_motion_pilot,2023.2.3,Win32,59.69436485,652985d179fb620c91ac14a1,6560176e4d91f764e2a42c74,65716d719e2550a2ba47008e,0.0211,0.0211,0,33,33,6,1,fourtwo,,,,,,,,,,,,,,,,,,,,,,,,,,,,,,,,,,,,,,,,,,,,,,,,,,,,,,,,,,,,,,,,,,,,,,,,,,,,,,,,,,,,,,,,,,,,,,,,,,,,,,,,,,,,,,,,,,,,,,,,,,,,,,,,,,,,,,,
,,652985d179fb620c91ac14a1,2023-12-07_08h02.22.429,kallum_motion_pilot,2023.2.3,Win32,59.69436485,652985d179fb620c91ac14a1,6560176e4d91f764e2a42c74,65716d719e2550a2ba47008e,0.0212,0.0212,0,34,34,71,1,fourthree,,,,,,,,,,,,,,,,,,,,,,,,,,,,,,,,,,,,,,,,,,,,,,,,,,,,,,,,,,,,,,,,,,,,,,,,,,,,,,,,,,,,,,,,,,,,,,,,,,,,,,,,,,,,,,,,,,,,,,,,,,,,,,,,,,,,,,,
,,652985d179fb620c91ac14a1,2023-12-07_08h02.22.429,kallum_motion_pilot,2023.2.3,Win32,59.69436485,652985d179fb620c91ac14a1,6560176e4d91f764e2a42c74,65716d719e2550a2ba47008e,0.0213,0.0214,0,35,35,153,1,fiveseven,,,,,,,,,,,,,,,,,,,,,,,,,,,,,,,,,,,,,,,,,,,,,,,,,,,,,,,,,,,,,,,,,,,,,,,,,,,,,,,,,,,,,,,,,,,,,,,,,,,,,,,,,,,,,,,,,,,,,,,,,,,,,,,,,,,,,,,
,,652985d179fb620c91ac14a1,2023-12-07_08h02.22.429,kallum_motion_pilot,2023.2.3,Win32,59.69436485,652985d179fb620c91ac14a1,6560176e4d91f764e2a42c74,65716d719e2550a2ba47008e,0.0214,0.0214,0,36,36,53,1,threefour,,,,,,,,,,,,,,,,,,,,,,,,,,,,,,,,,,,,,,,,,,,,,,,,,,,,,,,,,,,,,,,,,,,,,,,,,,,,,,,,,,,,,,,,,,,,,,,,,,,,,,,,,,,,,,,,,,,,,,,,,,,,,,,,,,,,,,,
,,652985d179fb620c91ac14a1,2023-12-07_08h02.22.429,kallum_motion_pilot,2023.2.3,Win32,59.69436485,652985d179fb620c91ac14a1,6560176e4d91f764e2a42c74,65716d719e2550a2ba47008e,0.0215,0.0215,0,37,37,135,1,eightseven,,,,,,,,,,,,,,,,,,,,,,,,,,,,,,,,,,,,,,,,,,,,,,,,,,,,,,,,,,,,,,,,,,,,,,,,,,,,,,,,,,,,,,,,,,,,,,,,,,,,,,,,,,,,,,,,,,,,,,,,,,,,,,,,,,,,,,,
,,652985d179fb620c91ac14a1,2023-12-07_08h02.22.429,kallum_motion_pilot,2023.2.3,Win32,59.69436485,652985d179fb620c91ac14a1,6560176e4d91f764e2a42c74,65716d719e2550a2ba47008e,0.0216,0.0216,0,38,38,76,1,threeone,,,,,,,,,,,,,,,,,,,,,,,,,,,,,,,,,,,,,,,,,,,,,,,,,,,,,,,,,,,,,,,,,,,,,,,,,,,,,,,,,,,,,,,,,,,,,,,,,,,,,,,,,,,,,,,,,,,,,,,,,,,,,,,,,,,,,,,
,,652985d179fb620c91ac14a1,2023-12-07_08h02.22.429,kallum_motion_pilot,2023.2.3,Win32,59.69436485,652985d179fb620c91ac14a1,6560176e4d91f764e2a42c74,65716d719e2550a2ba47008e,0.0217,0.0217,0,39,39,126,1,eightsix,,,,,,,,,,,,,,,,,,,,,,,,,,,,,,,,,,,,,,,,,,,,,,,,,,,,,,,,,,,,,,,,,,,,,,,,,,,,,,,,,,,,,,,,,,,,,,,,,,,,,,,,,,,,,,,,,,,,,,,,,,,,,,,,,,,,,,,
,,652985d179fb620c91ac14a1,2023-12-07_08h02.22.429,kallum_motion_pilot,2023.2.3,Win32,59.69436485,652985d179fb620c91ac14a1,6560176e4d91f764e2a42c74,65716d719e2550a2ba47008e,0.0217,0.0218,0,40,40,16,1,onetwo,,,,,,,,,,,,,,,,,,,,,,,,,,,,,,,,,,,,,,,,,,,,,,,,,,,,,,,,,,,,,,,,,,,,,,,,,,,,,,,,,,,,,,,,,,,,,,,,,,,,,,,,,,,,,,,,,,,,,,,,,,,,,,,,,,,,,,,
,,652985d179fb620c91ac14a1,2023-12-07_08h02.22.429,kallum_motion_pilot,2023.2.3,Win32,59.69436485,652985d179fb620c91ac14a1,6560176e4d91f764e2a42c74,65716d719e2550a2ba47008e,0.0218,0.0218,0,41,41,114,1,sixfive,,,,,,,,,,,,,,,,,,,,,,,,,,,,,,,,,,,,,,,,,,,,,,,,,,,,,,,,,,,,,,,,,,,,,,,,,,,,,,,,,,,,,,,,,,,,,,,,,,,,,,,,,,,,,,,,,,,,,,,,,,,,,,,,,,,,,,,
,,652985d179fb620c91ac14a1,2023-12-07_08h02.22.429,kallum_motion_pilot,2023.2.3,Win32,59.69436485,652985d179fb620c91ac14a1,6560176e4d91f764e2a42c74,65716d719e2550a2ba47008e,0.0219,0.0219,0,42,42,116,1,sevenfive,,,,,,,,,,,,,,,,,,,,,,,,,,,,,,,,,,,,,,,,,,,,,,,,,,,,,,,,,,,,,,,,,,,,,,,,,,,,,,,,,,,,,,,,,,,,,,,,,,,,,,,,,,,,,,,,,,,,,,,,,,,,,,,,,,,,,,,
,,652985d179fb620c91ac14a1,2023-12-07_08h02.22.429,kallum_motion_pilot,2023.2.3,Win32,59.69436485,652985d179fb620c91ac14a1,6560176e4d91f764e2a42c74,65716d719e2550a2ba47008e,0.0219,0.022,0,43,43,141,1,seveneight,,,,,,,,,,,,,,,,,,,,,,,,,,,,,,,,,,,,,,,,,,,,,,,,,,,,,,,,,,,,,,,,,,,,,,,,,,,,,,,,,,,,,,,,,,,,,,,,,,,,,,,,,,,,,,,,,,,,,,,,,,,,,,,,,,,,,,,
,,652985d179fb620c91ac14a1,2023-12-07_08h02.22.429,kallum_motion_pilot,2023.2.3,Win32,59.69436485,652985d179fb620c91ac14a1,6560176e4d91f764e2a42c74,65716d719e2550a2ba47008e,0.0221,0.0221,0,44,44,51,1,twofour,,,,,,,,,,,,,,,,,,,,,,,,,,,,,,,,,,,,,,,,,,,,,,,,,,,,,,,,,,,,,,,,,,,,,,,,,,,,,,,,,,,,,,,,,,,,,,,,,,,,,,,,,,,,,,,,,,,,,,,,,,,,,,,,,,,,,,,
,,652985d179fb620c91ac14a1,2023-12-07_08h02.22.429,kallum_motion_pilot,2023.2.3,Win32,59.69436485,652985d179fb620c91ac14a1,6560176e4d91f764e2a42c74,65716d719e2550a2ba47008e,0.0221,0.0222,0,45,45,120,1,fivesix,,,,,,,,,,,,,,,,,,,,,,,,,,,,,,,,,,,,,,,,,,,,,,,,,,,,,,,,,,,,,,,,,,,,,,,,,,,,,,,,,,,,,,,,,,,,,,,,,,,,,,,,,,,,,,,,,,,,,,,,,,,,,,,,,,,,,,,
,,652985d179fb620c91ac14a1,2023-12-07_08h02.22.429,kallum_motion_pilot,2023.2.3,Win32,59.69436485,652985d179fb620c91ac14a1,6560176e4d91f764e2a42c74,65716d719e2550a2ba47008e,0.0222,0.0223,0,46,46,97,1,fiveseven,,,,,,,,,,,,,,,,,,,,,,,,,,,,,,,,,,,,,,,,,,,,,,,,,,,,,,,,,,,,,,,,,,,,,,,,,,,,,,,,,,,,,,,,,,,,,,,,,,,,,,,,,,,,,,,,,,,,,,,,,,,,,,,,,,,,,,,
,,652985d179fb620c91ac14a1,2023-12-07_08h02.22.429,kallum_motion_pilot,2023.2.3,Win32,59.69436485,652985d179fb620c91ac14a1,6560176e4d91f764e2a42c74,65716d719e2550a2ba47008e,0.0223,0.0223,0,47,47,45,1,threefour,,,,,,,,,,,,,,,,,,,,,,,,,,,,,,,,,,,,,,,,,,,,,,,,,,,,,,,,,,,,,,,,,,,,,,,,,,,,,,,,,,,,,,,,,,,,,,,,,,,,,,,,,,,,,,,,,,,,,,,,,,,,,,,,,,,,,,,
,,652985d179fb620c91ac14a1,2023-12-07_08h02.22.429,kallum_motion_pilot,2023.2.3,Win32,59.69436485,652985d179fb620c91ac14a1,6560176e4d91f764e2a42c74,65716d719e2550a2ba47008e,0.0224,0.0224,0,48,48,130,1,sixfive,,,,,,,,,,,,,,,,,,,,,,,,,,,,,,,,,,,,,,,,,,,,,,,,,,,,,,,,,,,,,,,,,,,,,,,,,,,,,,,,,,,,,,,,,,,,,,,,,,,,,,,,,,,,,,,,,,,,,,,,,,,,,,,,,,,,,,,
,,652985d179fb620c91ac14a1,2023-12-07_08h02.22.429,kallum_motion_pilot,2023.2.3,Win32,59.69436485,652985d179fb620c91ac14a1,6560176e4d91f764e2a42c74,65716d719e2550a2ba47008e,0.0224,0.0225,0,49,49,151,1,eightseven,,,,,,,,,,,,,,,,,,,,,,,,,,,,,,,,,,,,,,,,,,,,,,,,,,,,,,,,,,,,,,,,,,,,,,,,,,,,,,,,,,,,,,,,,,,,,,,,,,,,,,,,,,,,,,,,,,,,,,,,,,,,,,,,,,,,,,,
,,652985d179fb620c91ac14a1,2023-12-07_08h02.22.429,kallum_motion_pilot,2023.2.3,Win32,59.69436485,652985d179fb620c91ac14a1,6560176e4d91f764e2a42c74,65716d719e2550a2ba47008e,0.0225,0.0225,0,50,50,1,1,onethree,,,,,,,,,,,,,,,,,,,,,,,,,,,,,,,,,,,,,,,,,,,,,,,,,,,,,,,,,,,,,,,,,,,,,,,,,,,,,,,,,,,,,,,,,,,,,,,,,,,,,,,,,,,,,,,,,,,,,,,,,,,,,,,,,,,,,,,
,,652985d179fb620c91ac14a1,2023-12-07_08h02.22.429,kallum_motion_pilot,2023.2.3,Win32,59.69436485,652985d179fb620c91ac14a1,6560176e4d91f764e2a42c74,65716d719e2550a2ba47008e,0.0226,0.0227,0,51,51,9,1,onethree,,,,,,,,,,,,,,,,,,,,,,,,,,,,,,,,,,,,,,,,,,,,,,,,,,,,,,,,,,,,,,,,,,,,,,,,,,,,,,,,,,,,,,,,,,,,,,,,,,,,,,,,,,,,,,,,,,,,,,,,,,,,,,,,,,,,,,,
,,652985d179fb620c91ac14a1,2023-12-07_08h02.22.429,kallum_motion_pilot,2023.2.3,Win32,59.69436485,652985d179fb620c91ac14a1,6560176e4d91f764e2a42c74,65716d719e2550a2ba47008e,0.0227,0.0227,0,52,52,94,1,eightsix,,,,,,,,,,,,,,,,,,,,,,,,,,,,,,,,,,,,,,,,,,,,,,,,,,,,,,,,,,,,,,,,,,,,,,,,,,,,,,,,,,,,,,,,,,,,,,,,,,,,,,,,,,,,,,,,,,,,,,,,,,,,,,,,,,,,,,,
,,652985d179fb620c91ac14a1,2023-12-07_08h02.22.429,kallum_motion_pilot,2023.2.3,Win32,59.69436485,652985d179fb620c91ac14a1,6560176e4d91f764e2a42c74,65716d719e2550a2ba47008e,0.0228,0.0228,0,53,53,131,1,sixeight,,,,,,,,,,,,,,,,,,,,,,,,,,,,,,,,,,,,,,,,,,,,,,,,,,,,,,,,,,,,,,,,,,,,,,,,,,,,,,,,,,,,,,,,,,,,,,,,,,,,,,,,,,,,,,,,,,,,,,,,,,,,,,,,,,,,,,,
,,652985d179fb620c91ac14a1,2023-12-07_08h02.22.429,kallum_motion_pilot,2023.2.3,Win32,59.69436485,652985d179fb620c91ac14a1,6560176e4d91f764e2a42c74,65716d719e2550a2ba47008e,0.0229,0.0229,0,54,54,42,1,twoone,,,,,,,,,,,,,,,,,,,,,,,,,,,,,,,,,,,,,,,,,,,,,,,,,,,,,,,,,,,,,,,,,,,,,,,,,,,,,,,,,,,,,,,,,,,,,,,,,,,,,,,,,,,,,,,,,,,,,,,,,,,,,,,,,,,,,,,
,,652985d179fb620c91ac14a1,2023-12-07_08h02.22.429,kallum_motion_pilot,2023.2.3,Win32,59.69436485,652985d179fb620c91ac14a1,6560176e4d91f764e2a42c74,65716d719e2550a2ba47008e,0.0229,0.023,0,55,55,144,1,fivesix,,,,,,,,,,,,,,,,,,,,,,,,,,,,,,,,,,,,,,,,,,,,,,,,,,,,,,,,,,,,,,,,,,,,,,,,,,,,,,,,,,,,,,,,,,,,,,,,,,,,,,,,,,,,,,,,,,,,,,,,,,,,,,,,,,,,,,,
,,652985d179fb620c91ac14a1,2023-12-07_08h02.22.429,kallum_motion_pilot,2023.2.3,Win32,59.69436485,652985d179fb620c91ac14a1,6560176e4d91f764e2a42c74,65716d719e2550a2ba47008e,0.023,0.023,0,56,56,0,1,onetwo,,,,,,,,,,,,,,,,,,,,,,,,,,,,,,,,,,,,,,,,,,,,,,,,,,,,,,,,,,,,,,,,,,,,,,,,,,,,,,,,,,,,,,,,,,,,,,,,,,,,,,,,,,,,,,,,,,,,,,,,,,,,,,,,,,,,,,,
,,652985d179fb620c91ac14a1,2023-12-07_08h02.22.429,kallum_motion_pilot,2023.2.3,Win32,59.69436485,652985d179fb620c91ac14a1,6560176e4d91f764e2a42c74,65716d719e2550a2ba47008e,0.0231,0.0231,0,57,57,92,1,sevenfive,,,,,,,,,,,,,,,,,,,,,,,,,,,,,,,,,,,,,,,,,,,,,,,,,,,,,,,,,,,,,,,,,,,,,,,,,,,,,,,,,,,,,,,,,,,,,,,,,,,,,,,,,,,,,,,,,,,,,,,,,,,,,,,,,,,,,,,
,,652985d179fb620c91ac14a1,2023-12-07_08h02.22.429,kallum_motion_pilot,2023.2.3,Win32,59.69436485,652985d179fb620c91ac14a1,6560176e4d91f764e2a42c74,65716d719e2550a2ba47008e,0.0232,0.0232,0,58,58,3,1,twofour,,,,,,,,,,,,,,,,,,,,,,,,,,,,,,,,,,,,,,,,,,,,,,,,,,,,,,,,,,,,,,,,,,,,,,,,,,,,,,,,,,,,,,,,,,,,,,,,,,,,,,,,,,,,,,,,,,,,,,,,,,,,,,,,,,,,,,,
,,652985d179fb620c91ac14a1,2023-12-07_08h02.22.429,kallum_motion_pilot,2023.2.3,Win32,59.69436485,652985d179fb620c91ac14a1,6560176e4d91f764e2a42c74,65716d719e2550a2ba47008e,0.0233,0.0233,0,59,59,39,1,fourthree,,,,,,,,,,,,,,,,,,,,,,,,,,,,,,,,,,,,,,,,,,,,,,,,,,,,,,,,,,,,,,,,,,,,,,,,,,,,,,,,,,,,,,,,,,,,,,,,,,,,,,,,,,,,,,,,,,,,,,,,,,,,,,,,,,,,,,,
,,652985d179fb620c91ac14a1,2023-12-07_08h02.22.429,kallum_motion_pilot,2023.2.3,Win32,59.69436485,652985d179fb620c91ac14a1,6560176e4d91f764e2a42c74,65716d719e2550a2ba47008e,0.0233,0.0233,0,60,60,52,1,threeone,,,,,,,,,,,,,,,,,,,,,,,,,,,,,,,,,,,,,,,,,,,,,,,,,,,,,,,,,,,,,,,,,,,,,,,,,,,,,,,,,,,,,,,,,,,,,,,,,,,,,,,,,,,,,,,,,,,,,,,,,,,,,,,,,,,,,,,
,,652985d179fb620c91ac14a1,2023-12-07_08h02.22.429,kallum_motion_pilot,2023.2.3,Win32,59.69436485,652985d179fb620c91ac14a1,6560176e4d91f764e2a42c74,65716d719e2550a2ba47008e,0.0234,0.0235,0,61,61,46,1,fourtwo,,,,,,,,,,,,,,,,,,,,,,,,,,,,,,,,,,,,,,,,,,,,,,,,,,,,,,,,,,,,,,,,,,,,,,,,,,,,,,,,,,,,,,,,,,,,,,,,,,,,,,,,,,,,,,,,,,,,,,,,,,,,,,,,,,,,,,,
,,652985d179fb620c91ac14a1,2023-12-07_08h02.22.429,kallum_motion_pilot,2023.2.3,Win32,59.69436485,652985d179fb620c91ac14a1,6560176e4d91f764e2a42c74,65716d719e2550a2ba47008e,0.0235,0.0235,0,62,62,142,1,eightsix,,,,,,,,,,,,,,,,,,,,,,,,,,,,,,,,,,,,,,,,,,,,,,,,,,,,,,,,,,,,,,,,,,,,,,,,,,,,,,,,,,,,,,,,,,,,,,,,,,,,,,,,,,,,,,,,,,,,,,,,,,,,,,,,,,,,,,,
,,652985d179fb620c91ac14a1,2023-12-07_08h02.22.429,kallum_motion_pilot,2023.2.3,Win32,59.69436485,652985d179fb620c91ac14a1,6560176e4d91f764e2a42c74,65716d719e2550a2ba47008e,0.0241,0.0242,0,63,63,146,1,sixfive,,,,,,,,,,,,,,,,,,,,,,,,,,,,,,,,,,,,,,,,,,,,,,,,,,,,,,,,,,,,,,,,,,,,,,,,,,,,,,,,,,,,,,,,,,,,,,,,,,,,,,,,,,,,,,,,,,,,,,,,,,,,,,,,,,,,,,,
,,652985d179fb620c91ac14a1,2023-12-07_08h02.22.429,kallum_motion_pilot,2023.2.3,Win32,59.69436485,652985d179fb620c91ac14a1,6560176e4d91f764e2a42c74,65716d719e2550a2ba47008e,0.0243,0.0243,0,64,64,128,1,fivesix,,,,,,,,,,,,,,,,,,,,,,,,,,,,,,,,,,,,,,,,,,,,,,,,,,,,,,,,,,,,,,,,,,,,,,,,,,,,,,,,,,,,,,,,,,,,,,,,,,,,,,,,,,,,,,,,,,,,,,,,,,,,,,,,,,,,,,,
,,652985d179fb620c91ac14a1,2023-12-07_08h02.22.429,kallum_motion_pilot,2023.2.3,Win32,59.69436485,652985d179fb620c91ac14a1,6560176e4d91f764e2a42c74,65716d719e2550a2ba47008e,0.0243,0.0244,0,65,65,14,1,fourtwo,,,,,,,,,,,,,,,,,,,,,,,,,,,,,,,,,,,,,,,,,,,,,,,,,,,,,,,,,,,,,,,,,,,,,,,,,,,,,,,,,,,,,,,,,,,,,,,,,,,,,,,,,,,,,,,,,,,,,,,,,,,,,,,,,,,,,,,
,,652985d179fb620c91ac14a1,2023-12-07_08h02.22.429,kallum_motion_pilot,2023.2.3,Win32,59.69436485,652985d179fb620c91ac14a1,6560176e4d91f764e2a42c74,65716d719e2550a2ba47008e,0.0244,0.0244,0,66,66,68,1,threeone,,,,,,,,,,,,,,,,,,,,,,,,,,,,,,,,,,,,,,,,,,,,,,,,,,,,,,,,,,,,,,,,,,,,,,,,,,,,,,,,,,,,,,,,,,,,,,,,,,,,,,,,,,,,,,,,,,,,,,,,,,,,,,,,,,,,,,,
,,652985d179fb620c91ac14a1,2023-12-07_08h02.22.429,kallum_motion_pilot,2023.2.3,Win32,59.69436485,652985d179fb620c91ac14a1,6560176e4d91f764e2a42c74,65716d719e2550a2ba47008e,0.0245,0.0245,0,67,67,158,1,eightsix,,,,,,,,,,,,,,,,,,,,,,,,,,,,,,,,,,,,,,,,,,,,,,,,,,,,,,,,,,,,,,,,,,,,,,,,,,,,,,,,,,,,,,,,,,,,,,,,,,,,,,,,,,,,,,,,,,,,,,,,,,,,,,,,,,,,,,,
,,652985d179fb620c91ac14a1,2023-12-07_08h02.22.429,kallum_motion_pilot,2023.2.3,Win32,59.69436485,652985d179fb620c91ac14a1,6560176e4d91f764e2a42c74,65716d719e2550a2ba47008e,0.0246,0.0246,0,68,68,88,1,fivesix,,,,,,,,,,,,,,,,,,,,,,,,,,,,,,,,,,,,,,,,,,,,,,,,,,,,,,,,,,,,,,,,,,,,,,,,,,,,,,,,,,,,,,,,,,,,,,,,,,,,,,,,,,,,,,,,,,,,,,,,,,,,,,,,,,,,,,,
,,652985d179fb620c91ac14a1,2023-12-07_08h02.22.429,kallum_motion_pilot,2023.2.3,Win32,59.69436485,652985d179fb620c91ac14a1,6560176e4d91f764e2a42c74,65716d719e2550a2ba47008e,0.0247,0.0247,0,69,69,123,1,sixeight,,,,,,,,,,,,,,,,,,,,,,,,,,,,,,,,,,,,,,,,,,,,,,,,,,,,,,,,,,,,,,,,,,,,,,,,,,,,,,,,,,,,,,,,,,,,,,,,,,,,,,,,,,,,,,,,,,,,,,,,,,,,,,,,,,,,,,,
,,652985d179fb620c91ac14a1,2023-12-07_08h02.22.429,kallum_motion_pilot,2023.2.3,Win32,59.69436485,652985d179fb620c91ac14a1,6560176e4d91f764e2a42c74,65716d719e2550a2ba47008e,0.0248,0.0248,0,70,70,35,1,twofour,,,,,,,,,,,,,,,,,,,,,,,,,,,,,,,,,,,,,,,,,,,,,,,,,,,,,,,,,,,,,,,,,,,,,,,,,,,,,,,,,,,,,,,,,,,,,,,,,,,,,,,,,,,,,,,,,,,,,,,,,,,,,,,,,,,,,,,
,,652985d179fb620c91ac14a1,2023-12-07_08h02.22.429,kallum_motion_pilot,2023.2.3,Win32,59.69436485,652985d179fb620c91ac14a1,6560176e4d91f764e2a42c74,65716d719e2550a2ba47008e,0.0248,0.0249,0,71,71,154,1,sixfive,,,,,,,,,,,,,,,,,,,,,,,,,,,,,,,,,,,,,,,,,,,,,,,,,,,,,,,,,,,,,,,,,,,,,,,,,,,,,,,,,,,,,,,,,,,,,,,,,,,,,,,,,,,,,,,,,,,,,,,,,,,,,,,,,,,,,,,
,,652985d179fb620c91ac14a1,2023-12-07_08h02.22.429,kallum_motion_pilot,2023.2.3,Win32,59.69436485,652985d179fb620c91ac14a1,6560176e4d91f764e2a42c74,65716d719e2550a2ba47008e,0.0249,0.025,0,72,72,32,1,onetwo,,,,,,,,,,,,,,,,,,,,,,,,,,,,,,,,,,,,,,,,,,,,,,,,,,,,,,,,,,,,,,,,,,,,,,,,,,,,,,,,,,,,,,,,,,,,,,,,,,,,,,,,,,,,,,,,,,,,,,,,,,,,,,,,,,,,,,,
,,652985d179fb620c91ac14a1,2023-12-07_08h02.22.429,kallum_motion_pilot,2023.2.3,Win32,59.69436485,652985d179fb620c91ac14a1,6560176e4d91f764e2a42c74,65716d719e2550a2ba47008e,0.0251,0.0251,0,73,73,83,1,sixeight,,,,,,,,,,,,,,,,,,,,,,,,,,,,,,,,,,,,,,,,,,,,,,,,,,,,,,,,,,,,,,,,,,,,,,,,,,,,,,,,,,,,,,,,,,,,,,,,,,,,,,,,,,,,,,,,,,,,,,,,,,,,,,,,,,,,,,,
,,652985d179fb620c91ac14a1,2023-12-07_08h02.22.429,kallum_motion_pilot,2023.2.3,Win32,59.69436485,652985d179fb620c91ac14a1,6560176e4d91f764e2a42c74,65716d719e2550a2ba47008e,0.0252,0.0253,0,74,74,145,1,fiveseven,,,,,,,,,,,,,,,,,,,,,,,,,,,,,,,,,,,,,,,,,,,,,,,,,,,,,,,,,,,,,,,,,,,,,,,,,,,,,,,,,,,,,,,,,,,,,,,,,,,,,,,,,,,,,,,,,,,,,,,,,,,,,,,,,,,,,,,
,,652985d179fb620c91ac14a1,2023-12-07_08h02.22.429,kallum_motion_pilot,2023.2.3,Win32,59.69436485,652985d179fb620c91ac14a1,6560176e4d91f764e2a42c74,65716d719e2550a2ba47008e,0.0254,0.0255,0,75,75,38,1,fourtwo,,,,,,,,,,,,,,,,,,,,,,,,,,,,,,,,,,,,,,,,,,,,,,,,,,,,,,,,,,,,,,,,,,,,,,,,,,,,,,,,,,,,,,,,,,,,,,,,,,,,,,,,,,,,,,,,,,,,,,,,,,,,,,,,,,,,,,,
,,652985d179fb620c91ac14a1,2023-12-07_08h02.22.429,kallum_motion_pilot,2023.2.3,Win32,59.69436485,652985d179fb620c91ac14a1,6560176e4d91f764e2a42c74,65716d719e2550a2ba47008e,0.0255,0.0256,0,76,76,47,1,fourthree,,,,,,,,,,,,,,,,,,,,,,,,,,,,,,,,,,,,,,,,,,,,,,,,,,,,,,,,,,,,,,,,,,,,,,,,,,,,,,,,,,,,,,,,,,,,,,,,,,,,,,,,,,,,,,,,,,,,,,,,,,,,,,,,,,,,,,,
,,652985d179fb620c91ac14a1,2023-12-07_08h02.22.429,kallum_motion_pilot,2023.2.3,Win32,59.69436485,652985d179fb620c91ac14a1,6560176e4d91f764e2a42c74,65716d719e2550a2ba47008e,0.0256,0.0257,0,77,77,112,1,fivesix,,,,,,,,,,,,,,,,,,,,,,,,,,,,,,,,,,,,,,,,,,,,,,,,,,,,,,,,,,,,,,,,,,,,,,,,,,,,,,,,,,,,,,,,,,,,,,,,,,,,,,,,,,,,,,,,,,,,,,,,,,,,,,,,,,,,,,,
,,652985d179fb620c91ac14a1,2023-12-07_08h02.22.429,kallum_motion_pilot,2023.2.3,Win32,59.69436485,652985d179fb620c91ac14a1,6560176e4d91f764e2a42c74,65716d719e2550a2ba47008e,0.0257,0.0257,0,78,78,95,1,eightseven,,,,,,,,,,,,,,,,,,,,,,,,,,,,,,,,,,,,,,,,,,,,,,,,,,,,,,,,,,,,,,,,,,,,,,,,,,,,,,,,,,,,,,,,,,,,,,,,,,,,,,,,,,,,,,,,,,,,,,,,,,,,,,,,,,,,,,,
,,652985d179fb620c91ac14a1,2023-12-07_08h02.22.429,kallum_motion_pilot,2023.2.3,Win32,59.69436485,652985d179fb620c91ac14a1,6560176e4d91f764e2a42c74,65716d719e2550a2ba47008e,0.0259,0.0259,0,79,79,81,1,fiveseven,,,,,,,,,,,,,,,,,,,,,,,,,,,,,,,,,,,,,,,,,,,,,,,,,,,,,,,,,,,,,,,,,,,,,,,,,,,,,,,,,,,,,,,,,,,,,,,,,,,,,,,,,,,,,,,,,,,,,,,,,,,,,,,,,,,,,,,
,,652985d179fb620c91ac14a1,2023-12-07_08h02.22.429,kallum_motion_pilot,2023.2.3,Win32,59.69436485,652985d179fb620c91ac14a1,6560176e4d91f764e2a42c74,65716d719e2550a2ba47008e,0.0259,0.0259,0,80,80,96,1,fivesix,,,,,,,,,,,,,,,,,,,,,,,,,,,,,,,,,,,,,,,,,,,,,,,,,,,,,,,,,,,,,,,,,,,,,,,,,,,,,,,,,,,,,,,,,,,,,,,,,,,,,,,,,,,,,,,,,,,,,,,,,,,,,,,,,,,,,,,
,,652985d179fb620c91ac14a1,2023-12-07_08h02.22.429,kallum_motion_pilot,2023.2.3,Win32,59.69436485,652985d179fb620c91ac14a1,6560176e4d91f764e2a42c74,65716d719e2550a2ba47008e,0.026,0.0261,0,81,81,79,1,eightseven,,,,,,,,,,,,,,,,,,,,,,,,,,,,,,,,,,,,,,,,,,,,,,,,,,,,,,,,,,,,,,,,,,,,,,,,,,,,,,,,,,,,,,,,,,,,,,,,,,,,,,,,,,,,,,,,,,,,,,,,,,,,,,,,,,,,,,,
,,652985d179fb620c91ac14a1,2023-12-07_08h02.22.429,kallum_motion_pilot,2023.2.3,Win32,59.69436485,652985d179fb620c91ac14a1,6560176e4d91f764e2a42c74,65716d719e2550a2ba47008e,0.0261,0.0261,0,82,82,109,1,seveneight,,,,,,,,,,,,,,,,,,,,,,,,,,,,,,,,,,,,,,,,,,,,,,,,,,,,,,,,,,,,,,,,,,,,,,,,,,,,,,,,,,,,,,,,,,,,,,,,,,,,,,,,,,,,,,,,,,,,,,,,,,,,,,,,,,,,,,,
,,652985d179fb620c91ac14a1,2023-12-07_08h02.22.429,kallum_motion_pilot,2023.2.3,Win32,59.69436485,652985d179fb620c91ac14a1,6560176e4d91f764e2a42c74,65716d719e2550a2ba47008e,0.0262,0.0262,0,83,83,132,1,sevenfive,,,,,,,,,,,,,,,,,,,,,,,,,,,,,,,,,,,,,,,,,,,,,,,,,,,,,,,,,,,,,,,,,,,,,,,,,,,,,,,,,,,,,,,,,,,,,,,,,,,,,,,,,,,,,,,,,,,,,,,,,,,,,,,,,,,,,,,
,,652985d179fb620c91ac14a1,2023-12-07_08h02.22.429,kallum_motion_pilot,2023.2.3,Win32,59.69436485,652985d179fb620c91ac14a1,6560176e4d91f764e2a42c74,65716d719e2550a2ba47008e,0.0263,0.0264,0,84,84,69,1,threefour,,,,,,,,,,,,,,,,,,,,,,,,,,,,,,,,,,,,,,,,,,,,,,,,,,,,,,,,,,,,,,,,,,,,,,,,,,,,,,,,,,,,,,,,,,,,,,,,,,,,,,,,,,,,,,,,,,,,,,,,,,,,,,,,,,,,,,,
,,652985d179fb620c91ac14a1,2023-12-07_08h02.22.429,kallum_motion_pilot,2023.2.3,Win32,59.69436485,652985d179fb620c91ac14a1,6560176e4d91f764e2a42c74,65716d719e2550a2ba47008e,0.0264,0.0264,0,85,85,122,1,sixfive,,,,,,,,,,,,,,,,,,,,,,,,,,,,,,,,,,,,,,,,,,,,,,,,,,,,,,,,,,,,,,,,,,,,,,,,,,,,,,,,,,,,,,,,,,,,,,,,,,,,,,,,,,,,,,,,,,,,,,,,,,,,,,,,,,,,,,,
,,652985d179fb620c91ac14a1,2023-12-07_08h02.22.429,kallum_motion_pilot,2023.2.3,Win32,59.69436485,652985d179fb620c91ac14a1,6560176e4d91f764e2a42c74,65716d719e2550a2ba47008e,0.0265,0.0265,0,86,86,8,1,onetwo,,,,,,,,,,,,,,,,,,,,,,,,,,,,,,,,,,,,,,,,,,,,,,,,,,,,,,,,,,,,,,,,,,,,,,,,,,,,,,,,,,,,,,,,,,,,,,,,,,,,,,,,,,,,,,,,,,,,,,,,,,,,,,,,,,,,,,,
,,652985d179fb620c91ac14a1,2023-12-07_08h02.22.429,kallum_motion_pilot,2023.2.3,Win32,59.69436485,652985d179fb620c91ac14a1,6560176e4d91f764e2a42c74,65716d719e2550a2ba47008e,0.0266,0.0266,0,87,87,31,1,fourthree,,,,,,,,,,,,,,,,,,,,,,,,,,,,,,,,,,,,,,,,,,,,,,,,,,,,,,,,,,,,,,,,,,,,,,,,,,,,,,,,,,,,,,,,,,,,,,,,,,,,,,,,,,,,,,,,,,,,,,,,,,,,,,,,,,,,,,,
,,652985d179fb620c91ac14a1,2023-12-07_08h02.22.429,kallum_motion_pilot,2023.2.3,Win32,59.69436485,652985d179fb620c91ac14a1,6560176e4d91f764e2a42c74,65716d719e2550a2ba47008e,0.0267,0.0267,0,88,88,105,1,fiveseven,,,,,,,,,,,,,,,,,,,,,,,,,,,,,,,,,,,,,,,,,,,,,,,,,,,,,,,,,,,,,,,,,,,,,,,,,,,,,,,,,,,,,,,,,,,,,,,,,,,,,,,,,,,,,,,,,,,,,,,,,,,,,,,,,,,,,,,
,,652985d179fb620c91ac14a1,2023-12-07_08h02.22.429,kallum_motion_pilot,2023.2.3,Win32,59.69436485,652985d179fb620c91ac14a1,6560176e4d91f764e2a42c74,65716d719e2550a2ba47008e,0.0268,0.0268,0,89,89,140,1,sevenfive,,,,,,,,,,,,,,,,,,,,,,,,,,,,,,,,,,,,,,,,,,,,,,,,,,,,,,,,,,,,,,,,,,,,,,,,,,,,,,,,,,,,,,,,,,,,,,,,,,,,,,,,,,,,,,,,,,,,,,,,,,,,,,,,,,,,,,,
,,652985d179fb620c91ac14a1,2023-12-07_08h02.22.429,kallum_motion_pilot,2023.2.3,Win32,59.69436485,652985d179fb620c91ac14a1,6560176e4d91f764e2a42c74,65716d719e2550a2ba47008e,0.0268,0.0269,0,90,90,5,1,threefour,,,,,,,,,,,,,,,,,,,,,,,,,,,,,,,,,,,,,,,,,,,,,,,,,,,,,,,,,,,,,,,,,,,,,,,,,,,,,,,,,,,,,,,,,,,,,,,,,,,,,,,,,,,,,,,,,,,,,,,,,,,,,,,,,,,,,,,
,,652985d179fb620c91ac14a1,2023-12-07_08h02.22.429,kallum_motion_pilot,2023.2.3,Win32,59.69436485,652985d179fb620c91ac14a1,6560176e4d91f764e2a42c74,65716d719e2550a2ba47008e,0.0269,0.027,0,91,91,150,1,eightsix,,,,,,,,,,,,,,,,,,,,,,,,,,,,,,,,,,,,,,,,,,,,,,,,,,,,,,,,,,,,,,,,,,,,,,,,,,,,,,,,,,,,,,,,,,,,,,,,,,,,,,,,,,,,,,,,,,,,,,,,,,,,,,,,,,,,,,,
,,652985d179fb620c91ac14a1,2023-12-07_08h02.22.429,kallum_motion_pilot,2023.2.3,Win32,59.69436485,652985d179fb620c91ac14a1,6560176e4d91f764e2a42c74,65716d719e2550a2ba47008e,0.027,0.027,0,92,92,25,1,onethree,,,,,,,,,,,,,,,,,,,,,,,,,,,,,,,,,,,,,,,,,,,,,,,,,,,,,,,,,,,,,,,,,,,,,,,,,,,,,,,,,,,,,,,,,,,,,,,,,,,,,,,,,,,,,,,,,,,,,,,,,,,,,,,,,,,,,,,
,,652985d179fb620c91ac14a1,2023-12-07_08h02.22.429,kallum_motion_pilot,2023.2.3,Win32,59.69436485,652985d179fb620c91ac14a1,6560176e4d91f764e2a42c74,65716d719e2550a2ba47008e,0.0271,0.0271,0,93,93,36,1,threeone,,,,,,,,,,,,,,,,,,,,,,,,,,,,,,,,,,,,,,,,,,,,,,,,,,,,,,,,,,,,,,,,,,,,,,,,,,,,,,,,,,,,,,,,,,,,,,,,,,,,,,,,,,,,,,,,,,,,,,,,,,,,,,,,,,,,,,,
,,652985d179fb620c91ac14a1,2023-12-07_08h02.22.429,kallum_motion_pilot,2023.2.3,Win32,59.69436485,652985d179fb620c91ac14a1,6560176e4d91f764e2a42c74,65716d719e2550a2ba47008e,0.0272,0.0272,0,94,94,21,1,threefour,,,,,,,,,,,,,,,,,,,,,,,,,,,,,,,,,,,,,,,,,,,,,,,,,,,,,,,,,,,,,,,,,,,,,,,,,,,,,,,,,,,,,,,,,,,,,,,,,,,,,,,,,,,,,,,,,,,,,,,,,,,,,,,,,,,,,,,
,,652985d179fb620c91ac14a1,2023-12-07_08h02.22.429,kallum_motion_pilot,2023.2.3,Win32,59.69436485,652985d179fb620c91ac14a1,6560176e4d91f764e2a42c74,65716d719e2550a2ba47008e,0.0273,0.0273,0,95,95,44,1,threeone,,,,,,,,,,,,,,,,,,,,,,,,,,,,,,,,,,,,,,,,,,,,,,,,,,,,,,,,,,,,,,,,,,,,,,,,,,,,,,,,,,,,,,,,,,,,,,,,,,,,,,,,,,,,,,,,,,,,,,,,,,,,,,,,,,,,,,,
,,652985d179fb620c91ac14a1,2023-12-07_08h02.22.429,kallum_motion_pilot,2023.2.3,Win32,59.69436485,652985d179fb620c91ac14a1,6560176e4d91f764e2a42c74,65716d719e2550a2ba47008e,0.0274,0.0274,0,96,96,64,1,onetwo,,,,,,,,,,,,,,,,,,,,,,,,,,,,,,,,,,,,,,,,,,,,,,,,,,,,,,,,,,,,,,,,,,,,,,,,,,,,,,,,,,,,,,,,,,,,,,,,,,,,,,,,,,,,,,,,,,,,,,,,,,,,,,,,,,,,,,,
,,652985d179fb620c91ac14a1,2023-12-07_08h02.22.429,kallum_motion_pilot,2023.2.3,Win32,59.69436485,652985d179fb620c91ac14a1,6560176e4d91f764e2a42c74,65716d719e2550a2ba47008e,0.0275,0.0276,0,97,97,18,1,twoone,,,,,,,,,,,,,,,,,,,,,,,,,,,,,,,,,,,,,,,,,,,,,,,,,,,,,,,,,,,,,,,,,,,,,,,,,,,,,,,,,,,,,,,,,,,,,,,,,,,,,,,,,,,,,,,,,,,,,,,,,,,,,,,,,,,,,,,
,,652985d179fb620c91ac14a1,2023-12-07_08h02.22.429,kallum_motion_pilot,2023.2.3,Win32,59.69436485,652985d179fb620c91ac14a1,6560176e4d91f764e2a42c74,65716d719e2550a2ba47008e,0.0276,0.0276,0,98,98,138,1,sixfive,,,,,,,,,,,,,,,,,,,,,,,,,,,,,,,,,,,,,,,,,,,,,,,,,,,,,,,,,,,,,,,,,,,,,,,,,,,,,,,,,,,,,,,,,,,,,,,,,,,,,,,,,,,,,,,,,,,,,,,,,,,,,,,,,,,,,,,
,,652985d179fb620c91ac14a1,2023-12-07_08h02.22.429,kallum_motion_pilot,2023.2.3,Win32,59.69436485,652985d179fb620c91ac14a1,6560176e4d91f764e2a42c74,65716d719e2550a2ba47008e,0.0277,0.0277,0,99,99,137,1,fiveseven,,,,,,,,,,,,,,,,,,,,,,,,,,,,,,,,,,,,,,,,,,,,,,,,,,,,,,,,,,,,,,,,,,,,,,,,,,,,,,,,,,,,,,,,,,,,,,,,,,,,,,,,,,,,,,,,,,,,,,,,,,,,,,,,,,,,,,,
,,652985d179fb620c91ac14a1,2023-12-07_08h02.22.429,kallum_motion_pilot,2023.2.3,Win32,59.69436485,652985d179fb620c91ac14a1,6560176e4d91f764e2a42c74,65716d719e2550a2ba47008e,0.0277,0.0278,0,100,100,115,1,sixeight,,,,,,,,,,,,,,,,,,,,,,,,,,,,,,,,,,,,,,,,,,,,,,,,,,,,,,,,,,,,,,,,,,,,,,,,,,,,,,,,,,,,,,,,,,,,,,,,,,,,,,,,,,,,,,,,,,,,,,,,,,,,,,,,,,,,,,,
,,652985d179fb620c91ac14a1,2023-12-07_08h02.22.429,kallum_motion_pilot,2023.2.3,Win32,59.69436485,652985d179fb620c91ac14a1,6560176e4d91f764e2a42c74,65716d719e2550a2ba47008e,0.0279,0.0279,0,101,101,161,1,fiveseven,,,,,,,,,,,,,,,,,,,,,,,,,,,,,,,,,,,,,,,,,,,,,,,,,,,,,,,,,,,,,,,,,,,,,,,,,,,,,,,,,,,,,,,,,,,,,,,,,,,,,,,,,,,,,,,,,,,,,,,,,,,,,,,,,,,,,,,
,,652985d179fb620c91ac14a1,2023-12-07_08h02.22.429,kallum_motion_pilot,2023.2.3,Win32,59.69436485,652985d179fb620c91ac14a1,6560176e4d91f764e2a42c74,65716d719e2550a2ba47008e,0.028,0.028,0,102,102,104,1,fivesix,,,,,,,,,,,,,,,,,,,,,,,,,,,,,,,,,,,,,,,,,,,,,,,,,,,,,,,,,,,,,,,,,,,,,,,,,,,,,,,,,,,,,,,,,,,,,,,,,,,,,,,,,,,,,,,,,,,,,,,,,,,,,,,,,,,,,,,
,,652985d179fb620c91ac14a1,2023-12-07_08h02.22.429,kallum_motion_pilot,2023.2.3,Win32,59.69436485,652985d179fb620c91ac14a1,6560176e4d91f764e2a42c74,65716d719e2550a2ba47008e,0.028,0.0281,0,103,103,37,1,threefour,,,,,,,,,,,,,,,,,,,,,,,,,,,,,,,,,,,,,,,,,,,,,,,,,,,,,,,,,,,,,,,,,,,,,,,,,,,,,,,,,,,,,,,,,,,,,,,,,,,,,,,,,,,,,,,,,,,,,,,,,,,,,,,,,,,,,,,
,,652985d179fb620c91ac14a1,2023-12-07_08h02.22.429,kallum_motion_pilot,2023.2.3,Win32,59.69436485,652985d179fb620c91ac14a1,6560176e4d91f764e2a42c74,65716d719e2550a2ba47008e,0.0281,0.0282,0,104,104,72,1,onetwo,,,,,,,,,,,,,,,,,,,,,,,,,,,,,,,,,,,,,,,,,,,,,,,,,,,,,,,,,,,,,,,,,,,,,,,,,,,,,,,,,,,,,,,,,,,,,,,,,,,,,,,,,,,,,,,,,,,,,,,,,,,,,,,,,,,,,,,
,,652985d179fb620c91ac14a1,2023-12-07_08h02.22.429,kallum_motion_pilot,2023.2.3,Win32,59.69436485,652985d179fb620c91ac14a1,6560176e4d91f764e2a42c74,65716d719e2550a2ba47008e,0.0282,0.0283,0,105,105,17,1,onethree,,,,,,,,,,,,,,,,,,,,,,,,,,,,,,,,,,,,,,,,,,,,,,,,,,,,,,,,,,,,,,,,,,,,,,,,,,,,,,,,,,,,,,,,,,,,,,,,,,,,,,,,,,,,,,,,,,,,,,,,,,,,,,,,,,,,,,,
,,652985d179fb620c91ac14a1,2023-12-07_08h02.22.429,kallum_motion_pilot,2023.2.3,Win32,59.69436485,652985d179fb620c91ac14a1,6560176e4d91f764e2a42c74,65716d719e2550a2ba47008e,0.0284,0.0284,0,106,106,12,1,threeone,,,,,,,,,,,,,,,,,,,,,,,,,,,,,,,,,,,,,,,,,,,,,,,,,,,,,,,,,,,,,,,,,,,,,,,,,,,,,,,,,,,,,,,,,,,,,,,,,,,,,,,,,,,,,,,,,,,,,,,,,,,,,,,,,,,,,,,
,,652985d179fb620c91ac14a1,2023-12-07_08h02.22.429,kallum_motion_pilot,2023.2.3,Win32,59.69436485,652985d179fb620c91ac14a1,6560176e4d91f764e2a42c74,65716d719e2550a2ba47008e,0.0284,0.0284,0,107,107,108,1,sevenfive,,,,,,,,,,,,,,,,,,,,,,,,,,,,,,,,,,,,,,,,,,,,,,,,,,,,,,,,,,,,,,,,,,,,,,,,,,,,,,,,,,,,,,,,,,,,,,,,,,,,,,,,,,,,,,,,,,,,,,,,,,,,,,,,,,,,,,,
,,652985d179fb620c91ac14a1,2023-12-07_08h02.22.429,kallum_motion_pilot,2023.2.3,Win32,59.69436485,652985d179fb620c91ac14a1,6560176e4d91f764e2a42c74,65716d719e2550a2ba47008e,0.0286,0.0286,0,108,108,102,1,eightsix,,,,,,,,,,,,,,,,,,,,,,,,,,,,,,,,,,,,,,,,,,,,,,,,,,,,,,,,,,,,,,,,,,,,,,,,,,,,,,,,,,,,,,,,,,,,,,,,,,,,,,,,,,,,,,,,,,,,,,,,,,,,,,,,,,,,,,,
,,652985d179fb620c91ac14a1,2023-12-07_08h02.22.429,kallum_motion_pilot,2023.2.3,Win32,59.69436485,652985d179fb620c91ac14a1,6560176e4d91f764e2a42c74,65716d719e2550a2ba47008e,0.0286,0.0286,0,109,109,2,1,twoone,,,,,,,,,,,,,,,,,,,,,,,,,,,,,,,,,,,,,,,,,,,,,,,,,,,,,,,,,,,,,,,,,,,,,,,,,,,,,,,,,,,,,,,,,,,,,,,,,,,,,,,,,,,,,,,,,,,,,,,,,,,,,,,,,,,,,,,
,,652985d179fb620c91ac14a1,2023-12-07_08h02.22.429,kallum_motion_pilot,2023.2.3,Win32,59.69436485,652985d179fb620c91ac14a1,6560176e4d91f764e2a42c74,65716d719e2550a2ba47008e,0.0287,0.0287,0,110,110,91,1,sixeight,,,,,,,,,,,,,,,,,,,,,,,,,,,,,,,,,,,,,,,,,,,,,,,,,,,,,,,,,,,,,,,,,,,,,,,,,,,,,,,,,,,,,,,,,,,,,,,,,,,,,,,,,,,,,,,,,,,,,,,,,,,,,,,,,,,,,,,
,,652985d179fb620c91ac14a1,2023-12-07_08h02.22.429,kallum_motion_pilot,2023.2.3,Win32,59.69436485,652985d179fb620c91ac14a1,6560176e4d91f764e2a42c74,65716d719e2550a2ba47008e,0.0288,0.0288,0,111,111,107,1,sixeight,,,,,,,,,,,,,,,,,,,,,,,,,,,,,,,,,,,,,,,,,,,,,,,,,,,,,,,,,,,,,,,,,,,,,,,,,,,,,,,,,,,,,,,,,,,,,,,,,,,,,,,,,,,,,,,,,,,,,,,,,,,,,,,,,,,,,,,
,,652985d179fb620c91ac14a1,2023-12-07_08h02.22.429,kallum_motion_pilot,2023.2.3,Win32,59.69436485,652985d179fb620c91ac14a1,6560176e4d91f764e2a42c74,65716d719e2550a2ba47008e,0.0289,0.029,0,112,112,119,1,eightseven,,,,,,,,,,,,,,,,,,,,,,,,,,,,,,,,,,,,,,,,,,,,,,,,,,,,,,,,,,,,,,,,,,,,,,,,,,,,,,,,,,,,,,,,,,,,,,,,,,,,,,,,,,,,,,,,,,,,,,,,,,,,,,,,,,,,,,,
,,652985d179fb620c91ac14a1,2023-12-07_08h02.22.429,kallum_motion_pilot,2023.2.3,Win32,59.69436485,652985d179fb620c91ac14a1,6560176e4d91f764e2a42c74,65716d719e2550a2ba47008e,0.029,0.0291,0,113,113,82,1,sixfive,,,,,,,,,,,,,,,,,,,,,,,,,,,,,,,,,,,,,,,,,,,,,,,,,,,,,,,,,,,,,,,,,,,,,,,,,,,,,,,,,,,,,,,,,,,,,,,,,,,,,,,,,,,,,,,,,,,,,,,,,,,,,,,,,,,,,,,
,,652985d179fb620c91ac14a1,2023-12-07_08h02.22.429,kallum_motion_pilot,2023.2.3,Win32,59.69436485,652985d179fb620c91ac14a1,6560176e4d91f764e2a42c74,65716d719e2550a2ba47008e,0.0291,0.0292,0,114,114,74,1,twoone,,,,,,,,,,,,,,,,,,,,,,,,,,,,,,,,,,,,,,,,,,,,,,,,,,,,,,,,,,,,,,,,,,,,,,,,,,,,,,,,,,,,,,,,,,,,,,,,,,,,,,,,,,,,,,,,,,,,,,,,,,,,,,,,,,,,,,,
,,652985d179fb620c91ac14a1,2023-12-07_08h02.22.429,kallum_motion_pilot,2023.2.3,Win32,59.69436485,652985d179fb620c91ac14a1,6560176e4d91f764e2a42c74,65716d719e2550a2ba47008e,0.0292,0.0292,0,115,115,80,1,fivesix,,,,,,,,,,,,,,,,,,,,,,,,,,,,,,,,,,,,,,,,,,,,,,,,,,,,,,,,,,,,,,,,,,,,,,,,,,,,,,,,,,,,,,,,,,,,,,,,,,,,,,,,,,,,,,,,,,,,,,,,,,,,,,,,,,,,,,,
,,652985d179fb620c91ac14a1,2023-12-07_08h02.22.429,kallum_motion_pilot,2023.2.3,Win32,59.69436485,652985d179fb620c91ac14a1,6560176e4d91f764e2a42c74,65716d719e2550a2ba47008e,0.0293,0.0293,0,116,116,34,1,twoone,,,,,,,,,,,,,,,,,,,,,,,,,,,,,,,,,,,,,,,,,,,,,,,,,,,,,,,,,,,,,,,,,,,,,,,,,,,,,,,,,,,,,,,,,,,,,,,,,,,,,,,,,,,,,,,,,,,,,,,,,,,,,,,,,,,,,,,
,,652985d179fb620c91ac14a1,2023-12-07_08h02.22.429,kallum_motion_pilot,2023.2.3,Win32,59.69436485,652985d179fb620c91ac14a1,6560176e4d91f764e2a42c74,65716d719e2550a2ba47008e,0.0293,0.0295,0,117,117,30,1,fourtwo,,,,,,,,,,,,,,,,,,,,,,,,,,,,,,,,,,,,,,,,,,,,,,,,,,,,,,,,,,,,,,,,,,,,,,,,,,,,,,,,,,,,,,,,,,,,,,,,,,,,,,,,,,,,,,,,,,,,,,,,,,,,,,,,,,,,,,,
,,652985d179fb620c91ac14a1,2023-12-07_08h02.22.429,kallum_motion_pilot,2023.2.3,Win32,59.69436485,652985d179fb620c91ac14a1,6560176e4d91f764e2a42c74,65716d719e2550a2ba47008e,0.0295,0.0296,0,118,118,22,1,fourtwo,,,,,,,,,,,,,,,,,,,,,,,,,,,,,,,,,,,,,,,,,,,,,,,,,,,,,,,,,,,,,,,,,,,,,,,,,,,,,,,,,,,,,,,,,,,,,,,,,,,,,,,,,,,,,,,,,,,,,,,,,,,,,,,,,,,,,,,
,,652985d179fb620c91ac14a1,2023-12-07_08h02.22.429,kallum_motion_pilot,2023.2.3,Win32,59.69436485,652985d179fb620c91ac14a1,6560176e4d91f764e2a42c74,65716d719e2550a2ba47008e,0.0296,0.0296,0,119,119,26,1,twoone,,,,,,,,,,,,,,,,,,,,,,,,,,,,,,,,,,,,,,,,,,,,,,,,,,,,,,,,,,,,,,,,,,,,,,,,,,,,,,,,,,,,,,,,,,,,,,,,,,,,,,,,,,,,,,,,,,,,,,,,,,,,,,,,,,,,,,,
,,652985d179fb620c91ac14a1,2023-12-07_08h02.22.429,kallum_motion_pilot,2023.2.3,Win32,59.69436485,652985d179fb620c91ac14a1,6560176e4d91f764e2a42c74,65716d719e2550a2ba47008e,0.0297,0.0297,0,120,120,40,1,onetwo,,,,,,,,,,,,,,,,,,,,,,,,,,,,,,,,,,,,,,,,,,,,,,,,,,,,,,,,,,,,,,,,,,,,,,,,,,,,,,,,,,,,,,,,,,,,,,,,,,,,,,,,,,,,,,,,,,,,,,,,,,,,,,,,,,,,,,,
,,652985d179fb620c91ac14a1,2023-12-07_08h02.22.429,kallum_motion_pilot,2023.2.3,Win32,59.69436485,652985d179fb620c91ac14a1,6560176e4d91f764e2a42c74,65716d719e2550a2ba47008e,0.0298,0.0298,0,121,121,24,1,onetwo,,,,,,,,,,,,,,,,,,,,,,,,,,,,,,,,,,,,,,,,,,,,,,,,,,,,,,,,,,,,,,,,,,,,,,,,,,,,,,,,,,,,,,,,,,,,,,,,,,,,,,,,,,,,,,,,,,,,,,,,,,,,,,,,,,,,,,,
,,652985d179fb620c91ac14a1,2023-12-07_08h02.22.429,kallum_motion_pilot,2023.2.3,Win32,59.69436485,652985d179fb620c91ac14a1,6560176e4d91f764e2a42c74,65716d719e2550a2ba47008e,0.0298,0.0299,0,122,122,124,1,sevenfive,,,,,,,,,,,,,,,,,,,,,,,,,,,,,,,,,,,,,,,,,,,,,,,,,,,,,,,,,,,,,,,,,,,,,,,,,,,,,,,,,,,,,,,,,,,,,,,,,,,,,,,,,,,,,,,,,,,,,,,,,,,,,,,,,,,,,,,
,,652985d179fb620c91ac14a1,2023-12-07_08h02.22.429,kallum_motion_pilot,2023.2.3,Win32,59.69436485,652985d179fb620c91ac14a1,6560176e4d91f764e2a42c74,65716d719e2550a2ba47008e,0.03,0.03,0,123,123,60,1,threeone,,,,,,,,,,,,,,,,,,,,,,,,,,,,,,,,,,,,,,,,,,,,,,,,,,,,,,,,,,,,,,,,,,,,,,,,,,,,,,,,,,,,,,,,,,,,,,,,,,,,,,,,,,,,,,,,,,,,,,,,,,,,,,,,,,,,,,,
,,652985d179fb620c91ac14a1,2023-12-07_08h02.22.429,kallum_motion_pilot,2023.2.3,Win32,59.69436485,652985d179fb620c91ac14a1,6560176e4d91f764e2a42c74,65716d719e2550a2ba47008e,0.0301,0.0302,0,124,124,136,1,fivesix,,,,,,,,,,,,,,,,,,,,,,,,,,,,,,,,,,,,,,,,,,,,,,,,,,,,,,,,,,,,,,,,,,,,,,,,,,,,,,,,,,,,,,,,,,,,,,,,,,,,,,,,,,,,,,,,,,,,,,,,,,,,,,,,,,,,,,,
,,652985d179fb620c91ac14a1,2023-12-07_08h02.22.429,kallum_motion_pilot,2023.2.3,Win32,59.69436485,652985d179fb620c91ac14a1,6560176e4d91f764e2a42c74,65716d719e2550a2ba47008e,0.0302,0.0302,0,125,125,28,1,threeone,,,,,,,,,,,,,,,,,,,,,,,,,,,,,,,,,,,,,,,,,,,,,,,,,,,,,,,,,,,,,,,,,,,,,,,,,,,,,,,,,,,,,,,,,,,,,,,,,,,,,,,,,,,,,,,,,,,,,,,,,,,,,,,,,,,,,,,
,,652985d179fb620c91ac14a1,2023-12-07_08h02.22.429,kallum_motion_pilot,2023.2.3,Win32,59.69436485,652985d179fb620c91ac14a1,6560176e4d91f764e2a42c74,65716d719e2550a2ba47008e,0.0303,0.0303,0,126,126,143,1,eightseven,,,,,,,,,,,,,,,,,,,,,,,,,,,,,,,,,,,,,,,,,,,,,,,,,,,,,,,,,,,,,,,,,,,,,,,,,,,,,,,,,,,,,,,,,,,,,,,,,,,,,,,,,,,,,,,,,,,,,,,,,,,,,,,,,,,,,,,
,,652985d179fb620c91ac14a1,2023-12-07_08h02.22.429,kallum_motion_pilot,2023.2.3,Win32,59.69436485,652985d179fb620c91ac14a1,6560176e4d91f764e2a42c74,65716d719e2550a2ba47008e,0.0304,0.0304,0,127,127,58,1,twoone,,,,,,,,,,,,,,,,,,,,,,,,,,,,,,,,,,,,,,,,,,,,,,,,,,,,,,,,,,,,,,,,,,,,,,,,,,,,,,,,,,,,,,,,,,,,,,,,,,,,,,,,,,,,,,,,,,,,,,,,,,,,,,,,,,,,,,,
,,652985d179fb620c91ac14a1,2023-12-07_08h02.22.429,kallum_motion_pilot,2023.2.3,Win32,59.69436485,652985d179fb620c91ac14a1,6560176e4d91f764e2a42c74,65716d719e2550a2ba47008e,0.0305,0.0306,0,128,128,103,1,eightseven,,,,,,,,,,,,,,,,,,,,,,,,,,,,,,,,,,,,,,,,,,,,,,,,,,,,,,,,,,,,,,,,,,,,,,,,,,,,,,,,,,,,,,,,,,,,,,,,,,,,,,,,,,,,,,,,,,,,,,,,,,,,,,,,,,,,,,,
,,652985d179fb620c91ac14a1,2023-12-07_08h02.22.429,kallum_motion_pilot,2023.2.3,Win32,59.69436485,652985d179fb620c91ac14a1,6560176e4d91f764e2a42c74,65716d719e2550a2ba47008e,0.0306,0.0307,0,129,129,152,1,fivesix,,,,,,,,,,,,,,,,,,,,,,,,,,,,,,,,,,,,,,,,,,,,,,,,,,,,,,,,,,,,,,,,,,,,,,,,,,,,,,,,,,,,,,,,,,,,,,,,,,,,,,,,,,,,,,,,,,,,,,,,,,,,,,,,,,,,,,,
,,652985d179fb620c91ac14a1,2023-12-07_08h02.22.429,kallum_motion_pilot,2023.2.3,Win32,59.69436485,652985d179fb620c91ac14a1,6560176e4d91f764e2a42c74,65716d719e2550a2ba47008e,0.0307,0.0307,0,130,130,63,1,fourthree,,,,,,,,,,,,,,,,,,,,,,,,,,,,,,,,,,,,,,,,,,,,,,,,,,,,,,,,,,,,,,,,,,,,,,,,,,,,,,,,,,,,,,,,,,,,,,,,,,,,,,,,,,,,,,,,,,,,,,,,,,,,,,,,,,,,,,,
,,652985d179fb620c91ac14a1,2023-12-07_08h02.22.429,kallum_motion_pilot,2023.2.3,Win32,59.69436485,652985d179fb620c91ac14a1,6560176e4d91f764e2a42c74,65716d719e2550a2ba47008e,0.0308,0.0309,0,131,131,86,1,eightsix,,,,,,,,,,,,,,,,,,,,,,,,,,,,,,,,,,,,,,,,,,,,,,,,,,,,,,,,,,,,,,,,,,,,,,,,,,,,,,,,,,,,,,,,,,,,,,,,,,,,,,,,,,,,,,,,,,,,,,,,,,,,,,,,,,,,,,,
,,652985d179fb620c91ac14a1,2023-12-07_08h02.22.429,kallum_motion_pilot,2023.2.3,Win32,59.69436485,652985d179fb620c91ac14a1,6560176e4d91f764e2a42c74,65716d719e2550a2ba47008e,0.0309,0.0309,0,132,132,87,1,eightseven,,,,,,,,,,,,,,,,,,,,,,,,,,,,,,,,,,,,,,,,,,,,,,,,,,,,,,,,,,,,,,,,,,,,,,,,,,,,,,,,,,,,,,,,,,,,,,,,,,,,,,,,,,,,,,,,,,,,,,,,,,,,,,,,,,,,,,,
,,652985d179fb620c91ac14a1,2023-12-07_08h02.22.429,kallum_motion_pilot,2023.2.3,Win32,59.69436485,652985d179fb620c91ac14a1,6560176e4d91f764e2a42c74,65716d719e2550a2ba47008e,0.031,0.031,0,133,133,121,1,fiveseven,,,,,,,,,,,,,,,,,,,,,,,,,,,,,,,,,,,,,,,,,,,,,,,,,,,,,,,,,,,,,,,,,,,,,,,,,,,,,,,,,,,,,,,,,,,,,,,,,,,,,,,,,,,,,,,,,,,,,,,,,,,,,,,,,,,,,,,
,,652985d179fb620c91ac14a1,2023-12-07_08h02.22.429,kallum_motion_pilot,2023.2.3,Win32,59.69436485,652985d179fb620c91ac14a1,6560176e4d91f764e2a42c74,65716d719e2550a2ba47008e,0.0311,0.0311,0,134,134,43,1,twofour,,,,,,,,,,,,,,,,,,,,,,,,,,,,,,,,,,,,,,,,,,,,,,,,,,,,,,,,,,,,,,,,,,,,,,,,,,,,,,,,,,,,,,,,,,,,,,,,,,,,,,,,,,,,,,,,,,,,,,,,,,,,,,,,,,,,,,,
,,652985d179fb620c91ac14a1,2023-12-07_08h02.22.429,kallum_motion_pilot,2023.2.3,Win32,59.69436485,652985d179fb620c91ac14a1,6560176e4d91f764e2a42c74,65716d719e2550a2ba47008e,0.0312,0.0312,0,135,135,19,1,twofour,,,,,,,,,,,,,,,,,,,,,,,,,,,,,,,,,,,,,,,,,,,,,,,,,,,,,,,,,,,,,,,,,,,,,,,,,,,,,,,,,,,,,,,,,,,,,,,,,,,,,,,,,,,,,,,,,,,,,,,,,,,,,,,,,,,,,,,
,,652985d179fb620c91ac14a1,2023-12-07_08h02.22.429,kallum_motion_pilot,2023.2.3,Win32,59.69436485,652985d179fb620c91ac14a1,6560176e4d91f764e2a42c74,65716d719e2550a2ba47008e,0.0313,0.0313,0,136,136,90,1,sixfive,,,,,,,,,,,,,,,,,,,,,,,,,,,,,,,,,,,,,,,,,,,,,,,,,,,,,,,,,,,,,,,,,,,,,,,,,,,,,,,,,,,,,,,,,,,,,,,,,,,,,,,,,,,,,,,,,,,,,,,,,,,,,,,,,,,,,,,
,,652985d179fb620c91ac14a1,2023-12-07_08h02.22.429,kallum_motion_pilot,2023.2.3,Win32,59.69436485,652985d179fb620c91ac14a1,6560176e4d91f764e2a42c74,65716d719e2550a2ba47008e,0.0313,0.0315,0,137,137,149,1,seveneight,,,,,,,,,,,,,,,,,,,,,,,,,,,,,,,,,,,,,,,,,,,,,,,,,,,,,,,,,,,,,,,,,,,,,,,,,,,,,,,,,,,,,,,,,,,,,,,,,,,,,,,,,,,,,,,,,,,,,,,,,,,,,,,,,,,,,,,
,,652985d179fb620c91ac14a1,2023-12-07_08h02.22.429,kallum_motion_pilot,2023.2.3,Win32,59.69436485,652985d179fb620c91ac14a1,6560176e4d91f764e2a42c74,65716d719e2550a2ba47008e,0.0315,0.0315,0,138,138,75,1,twofour,,,,,,,,,,,,,,,,,,,,,,,,,,,,,,,,,,,,,,,,,,,,,,,,,,,,,,,,,,,,,,,,,,,,,,,,,,,,,,,,,,,,,,,,,,,,,,,,,,,,,,,,,,,,,,,,,,,,,,,,,,,,,,,,,,,,,,,
,,652985d179fb620c91ac14a1,2023-12-07_08h02.22.429,kallum_motion_pilot,2023.2.3,Win32,59.69436485,652985d179fb620c91ac14a1,6560176e4d91f764e2a42c74,65716d719e2550a2ba47008e,0.0316,0.0316,0,139,139,117,1,seveneight,,,,,,,,,,,,,,,,,,,,,,,,,,,,,,,,,,,,,,,,,,,,,,,,,,,,,,,,,,,,,,,,,,,,,,,,,,,,,,,,,,,,,,,,,,,,,,,,,,,,,,,,,,,,,,,,,,,,,,,,,,,,,,,,,,,,,,,
,,652985d179fb620c91ac14a1,2023-12-07_08h02.22.429,kallum_motion_pilot,2023.2.3,Win32,59.69436485,652985d179fb620c91ac14a1,6560176e4d91f764e2a42c74,65716d719e2550a2ba47008e,0.0317,0.0317,0,140,140,15,1,fourthree,,,,,,,,,,,,,,,,,,,,,,,,,,,,,,,,,,,,,,,,,,,,,,,,,,,,,,,,,,,,,,,,,,,,,,,,,,,,,,,,,,,,,,,,,,,,,,,,,,,,,,,,,,,,,,,,,,,,,,,,,,,,,,,,,,,,,,,
,,652985d179fb620c91ac14a1,2023-12-07_08h02.22.429,kallum_motion_pilot,2023.2.3,Win32,59.69436485,652985d179fb620c91ac14a1,6560176e4d91f764e2a42c74,65716d719e2550a2ba47008e,0.0318,0.0319,0,141,141,65,1,onethree,,,,,,,,,,,,,,,,,,,,,,,,,,,,,,,,,,,,,,,,,,,,,,,,,,,,,,,,,,,,,,,,,,,,,,,,,,,,,,,,,,,,,,,,,,,,,,,,,,,,,,,,,,,,,,,,,,,,,,,,,,,,,,,,,,,,,,,
,,652985d179fb620c91ac14a1,2023-12-07_08h02.22.429,kallum_motion_pilot,2023.2.3,Win32,59.69436485,652985d179fb620c91ac14a1,6560176e4d91f764e2a42c74,65716d719e2550a2ba47008e,0.0319,0.032,0,142,142,48,1,onetwo,,,,,,,,,,,,,,,,,,,,,,,,,,,,,,,,,,,,,,,,,,,,,,,,,,,,,,,,,,,,,,,,,,,,,,,,,,,,,,,,,,,,,,,,,,,,,,,,,,,,,,,,,,,,,,,,,,,,,,,,,,,,,,,,,,,,,,,
,,652985d179fb620c91ac14a1,2023-12-07_08h02.22.429,kallum_motion_pilot,2023.2.3,Win32,59.69436485,652985d179fb620c91ac14a1,6560176e4d91f764e2a42c74,65716d719e2550a2ba47008e,0.032,0.0321,0,143,143,98,1,sixfive,,,,,,,,,,,,,,,,,,,,,,,,,,,,,,,,,,,,,,,,,,,,,,,,,,,,,,,,,,,,,,,,,,,,,,,,,,,,,,,,,,,,,,,,,,,,,,,,,,,,,,,,,,,,,,,,,,,,,,,,,,,,,,,,,,,,,,,
,,652985d179fb620c91ac14a1,2023-12-07_08h02.22.429,kallum_motion_pilot,2023.2.3,Win32,59.69436485,652985d179fb620c91ac14a1,6560176e4d91f764e2a42c74,65716d719e2550a2ba47008e,0.0321,0.0322,0,144,144,56,1,onetwo,,,,,,,,,,,,,,,,,,,,,,,,,,,,,,,,,,,,,,,,,,,,,,,,,,,,,,,,,,,,,,,,,,,,,,,,,,,,,,,,,,,,,,,,,,,,,,,,,,,,,,,,,,,,,,,,,,,,,,,,,,,,,,,,,,,,,,,
,,652985d179fb620c91ac14a1,2023-12-07_08h02.22.429,kallum_motion_pilot,2023.2.3,Win32,59.69436485,652985d179fb620c91ac14a1,6560176e4d91f764e2a42c74,65716d719e2550a2ba47008e,0.0322,0.0322,0,145,145,41,1,onethree,,,,,,,,,,,,,,,,,,,,,,,,,,,,,,,,,,,,,,,,,,,,,,,,,,,,,,,,,,,,,,,,,,,,,,,,,,,,,,,,,,,,,,,,,,,,,,,,,,,,,,,,,,,,,,,,,,,,,,,,,,,,,,,,,,,,,,,
,,652985d179fb620c91ac14a1,2023-12-07_08h02.22.429,kallum_motion_pilot,2023.2.3,Win32,59.69436485,652985d179fb620c91ac14a1,6560176e4d91f764e2a42c74,65716d719e2550a2ba47008e,0.0322,0.0324,0,146,146,106,1,sixfive,,,,,,,,,,,,,,,,,,,,,,,,,,,,,,,,,,,,,,,,,,,,,,,,,,,,,,,,,,,,,,,,,,,,,,,,,,,,,,,,,,,,,,,,,,,,,,,,,,,,,,,,,,,,,,,,,,,,,,,,,,,,,,,,,,,,,,,
,,652985d179fb620c91ac14a1,2023-12-07_08h02.22.429,kallum_motion_pilot,2023.2.3,Win32,59.69436485,652985d179fb620c91ac14a1,6560176e4d91f764e2a42c74,65716d719e2550a2ba47008e,0.0324,0.0324,0,147,147,10,1,twoone,,,,,,,,,,,,,,,,,,,,,,,,,,,,,,,,,,,,,,,,,,,,,,,,,,,,,,,,,,,,,,,,,,,,,,,,,,,,,,,,,,,,,,,,,,,,,,,,,,,,,,,,,,,,,,,,,,,,,,,,,,,,,,,,,,,,,,,
,,652985d179fb620c91ac14a1,2023-12-07_08h02.22.429,kallum_motion_pilot,2023.2.3,Win32,59.69436485,652985d179fb620c91ac14a1,6560176e4d91f764e2a42c74,65716d719e2550a2ba47008e,0.0324,0.0326,0,148,148,13,1,threefour,,,,,,,,,,,,,,,,,,,,,,,,,,,,,,,,,,,,,,,,,,,,,,,,,,,,,,,,,,,,,,,,,,,,,,,,,,,,,,,,,,,,,,,,,,,,,,,,,,,,,,,,,,,,,,,,,,,,,,,,,,,,,,,,,,,,,,,
,,652985d179fb620c91ac14a1,2023-12-07_08h02.22.429,kallum_motion_pilot,2023.2.3,Win32,59.69436485,652985d179fb620c91ac14a1,6560176e4d91f764e2a42c74,65716d719e2550a2ba47008e,0.0326,0.0327,0,149,149,139,1,sixeight,,,,,,,,,,,,,,,,,,,,,,,,,,,,,,,,,,,,,,,,,,,,,,,,,,,,,,,,,,,,,,,,,,,,,,,,,,,,,,,,,,,,,,,,,,,,,,,,,,,,,,,,,,,,,,,,,,,,,,,,,,,,,,,,,,,,,,,
,,652985d179fb620c91ac14a1,2023-12-07_08h02.22.429,kallum_motion_pilot,2023.2.3,Win32,59.69436485,652985d179fb620c91ac14a1,6560176e4d91f764e2a42c74,65716d719e2550a2ba47008e,0.0327,0.0327,0,150,150,84,1,sevenfive,,,,,,,,,,,,,,,,,,,,,,,,,,,,,,,,,,,,,,,,,,,,,,,,,,,,,,,,,,,,,,,,,,,,,,,,,,,,,,,,,,,,,,,,,,,,,,,,,,,,,,,,,,,,,,,,,,,,,,,,,,,,,,,,,,,,,,,
,,652985d179fb620c91ac14a1,2023-12-07_08h02.22.429,kallum_motion_pilot,2023.2.3,Win32,59.69436485,652985d179fb620c91ac14a1,6560176e4d91f764e2a42c74,65716d719e2550a2ba47008e,0.0328,0.0328,0,151,151,148,1,sevenfive,,,,,,,,,,,,,,,,,,,,,,,,,,,,,,,,,,,,,,,,,,,,,,,,,,,,,,,,,,,,,,,,,,,,,,,,,,,,,,,,,,,,,,,,,,,,,,,,,,,,,,,,,,,,,,,,,,,,,,,,,,,,,,,,,,,,,,,
,,652985d179fb620c91ac14a1,2023-12-07_08h02.22.429,kallum_motion_pilot,2023.2.3,Win32,59.69436485,652985d179fb620c91ac14a1,6560176e4d91f764e2a42c74,65716d719e2550a2ba47008e,0.0329,0.0329,0,152,152,50,1,twoone,,,,,,,,,,,,,,,,,,,,,,,,,,,,,,,,,,,,,,,,,,,,,,,,,,,,,,,,,,,,,,,,,,,,,,,,,,,,,,,,,,,,,,,,,,,,,,,,,,,,,,,,,,,,,,,,,,,,,,,,,,,,,,,,,,,,,,,
,,652985d179fb620c91ac14a1,2023-12-07_08h02.22.429,kallum_motion_pilot,2023.2.3,Win32,59.69436485,652985d179fb620c91ac14a1,6560176e4d91f764e2a42c74,65716d719e2550a2ba47008e,0.033,0.0331,0,153,153,160,1,fivesix,,,,,,,,,,,,,,,,,,,,,,,,,,,,,,,,,,,,,,,,,,,,,,,,,,,,,,,,,,,,,,,,,,,,,,,,,,,,,,,,,,,,,,,,,,,,,,,,,,,,,,,,,,,,,,,,,,,,,,,,,,,,,,,,,,,,,,,
,,652985d179fb620c91ac14a1,2023-12-07_08h02.22.429,kallum_motion_pilot,2023.2.3,Win32,59.69436485,652985d179fb620c91ac14a1,6560176e4d91f764e2a42c74,65716d719e2550a2ba47008e,0.0335,0.0336,0,154,154,62,1,fourtwo,,,,,,,,,,,,,,,,,,,,,,,,,,,,,,,,,,,,,,,,,,,,,,,,,,,,,,,,,,,,,,,,,,,,,,,,,,,,,,,,,,,,,,,,,,,,,,,,,,,,,,,,,,,,,,,,,,,,,,,,,,,,,,,,,,,,,,,
,,652985d179fb620c91ac14a1,2023-12-07_08h02.22.429,kallum_motion_pilot,2023.2.3,Win32,59.69436485,652985d179fb620c91ac14a1,6560176e4d91f764e2a42c74,65716d719e2550a2ba47008e,0.0337,0.0337,0,155,155,101,1,seveneight,,,,,,,,,,,,,,,,,,,,,,,,,,,,,,,,,,,,,,,,,,,,,,,,,,,,,,,,,,,,,,,,,,,,,,,,,,,,,,,,,,,,,,,,,,,,,,,,,,,,,,,,,,,,,,,,,,,,,,,,,,,,,,,,,,,,,,,
,,652985d179fb620c91ac14a1,2023-12-07_08h02.22.429,kallum_motion_pilot,2023.2.3,Win32,59.69436485,652985d179fb620c91ac14a1,6560176e4d91f764e2a42c74,65716d719e2550a2ba47008e,0.0338,0.0339,0,156,156,110,1,eightsix,,,,,,,,,,,,,,,,,,,,,,,,,,,,,,,,,,,,,,,,,,,,,,,,,,,,,,,,,,,,,,,,,,,,,,,,,,,,,,,,,,,,,,,,,,,,,,,,,,,,,,,,,,,,,,,,,,,,,,,,,,,,,,,,,,,,,,,
,,652985d179fb620c91ac14a1,2023-12-07_08h02.22.429,kallum_motion_pilot,2023.2.3,Win32,59.69436485,652985d179fb620c91ac14a1,6560176e4d91f764e2a42c74,65716d719e2550a2ba47008e,0.0339,0.034,0,157,157,49,1,onethree,,,,,,,,,,,,,,,,,,,,,,,,,,,,,,,,,,,,,,,,,,,,,,,,,,,,,,,,,,,,,,,,,,,,,,,,,,,,,,,,,,,,,,,,,,,,,,,,,,,,,,,,,,,,,,,,,,,,,,,,,,,,,,,,,,,,,,,
,,652985d179fb620c91ac14a1,2023-12-07_08h02.22.429,kallum_motion_pilot,2023.2.3,Win32,59.69436485,652985d179fb620c91ac14a1,6560176e4d91f764e2a42c74,65716d719e2550a2ba47008e,0.0341,0.0341,0,158,158,66,1,twoone,,,,,,,,,,,,,,,,,,,,,,,,,,,,,,,,,,,,,,,,,,,,,,,,,,,,,,,,,,,,,,,,,,,,,,,,,,,,,,,,,,,,,,,,,,,,,,,,,,,,,,,,,,,,,,,,,,,,,,,,,,,,,,,,,,,,,,,
,,652985d179fb620c91ac14a1,2023-12-07_08h02.22.429,kallum_motion_pilot,2023.2.3,Win32,59.69436485,652985d179fb620c91ac14a1,6560176e4d91f764e2a42c74,65716d719e2550a2ba47008e,0.0341,0.0342,0,159,159,67,1,twofour,,,,,,,,,,,,,,,,,,,,,,,,,,,,,,,,,,,,,,,,,,,,,,,,,,,,,,,,,,,,,,,,,,,,,,,,,,,,,,,,,,,,,,,,,,,,,,,,,,,,,,,,,,,,,,,,,,,,,,,,,,,,,,,,,,,,,,,
,,652985d179fb620c91ac14a1,2023-12-07_08h02.22.429,kallum_motion_pilot,2023.2.3,Win32,59.69436485,652985d179fb620c91ac14a1,6560176e4d91f764e2a42c74,65716d719e2550a2ba47008e,0.0342,0.0342,0,160,160,156,1,sevenfive,,,,,,,,,,,,,,,,,,,,,,,,,,,,,,,,,,,,,,,,,,,,,,,,,,,,,,,,,,,,,,,,,,,,,,,,,,,,,,,,,,,,,,,,,,,,,,,,,,,,,,,,,,,,,,,,,,,,,,,,,,,,,,,,,,,,,,,
,,652985d179fb620c91ac14a1,2023-12-07_08h02.22.429,kallum_motion_pilot,2023.2.3,Win32,59.69436485,652985d179fb620c91ac14a1,6560176e4d91f764e2a42c74,65716d719e2550a2ba47008e,0.0343,0.0343,0,161,161,134,1,eightsix,,,,,,,,,,,,,,,,,,,,,,,,,,,,,,,,,,,,,,,,,,,,,,,,,,,,,,,,,,,,,,,,,,,,,,,,,,,,,,,,,,,,,,,,,,,,,,,,,,,,,,,,,,,,,,,,,,,,,,,,,,,,,,,,,,,,,,,
,,652985d179fb620c91ac14a1,2023-12-07_08h02.22.429,kallum_motion_pilot,2023.2.3,Win32,59.69436485,652985d179fb620c91ac14a1,6560176e4d91f764e2a42c74,65716d719e2550a2ba47008e,0.0345,0.0345,1,0,162,70,1,fourtwo,,,,,,,,,,,,,,,,,,,,,,,,,,,,,,,,,,,,,,,,,,,,,,,,,,,,,,,,,,,,,,,,,,,,,,,,,,,,,,,,,,,,,,,,,,,,,,,,,,,,,,,,,,,,,,,,,,,,,,,,,,,,,,,,,,,,,,,
,,652985d179fb620c91ac14a1,2023-12-07_08h02.22.429,kallum_motion_pilot,2023.2.3,Win32,59.69436485,652985d179fb620c91ac14a1,6560176e4d91f764e2a42c74,65716d719e2550a2ba47008e,0.0346,0.0346,1,1,163,59,1,twofour,,,,,,,,,,,,,,,,,,,,,,,,,,,,,,,,,,,,,,,,,,,,,,,,,,,,,,,,,,,,,,,,,,,,,,,,,,,,,,,,,,,,,,,,,,,,,,,,,,,,,,,,,,,,,,,,,,,,,,,,,,,,,,,,,,,,,,,
,,652985d179fb620c91ac14a1,2023-12-07_08h02.22.429,kallum_motion_pilot,2023.2.3,Win32,59.69436485,652985d179fb620c91ac14a1,6560176e4d91f764e2a42c74,65716d719e2550a2ba47008e,0.0346,0.0347,1,2,164,56,1,onetwo,,,,,,,,,,,,,,,,,,,,,,,,,,,,,,,,,,,,,,,,,,,,,,,,,,,,,,,,,,,,,,,,,,,,,,,,,,,,,,,,,,,,,,,,,,,,,,,,,,,,,,,,,,,,,,,,,,,,,,,,,,,,,,,,,,,,,,,
,,652985d179fb620c91ac14a1,2023-12-07_08h02.22.429,kallum_motion_pilot,2023.2.3,Win32,59.69436485,652985d179fb620c91ac14a1,6560176e4d91f764e2a42c74,65716d719e2550a2ba47008e,0.0347,0.0348,1,3,165,5,1,threefour,,,,,,,,,,,,,,,,,,,,,,,,,,,,,,,,,,,,,,,,,,,,,,,,,,,,,,,,,,,,,,,,,,,,,,,,,,,,,,,,,,,,,,,,,,,,,,,,,,,,,,,,,,,,,,,,,,,,,,,,,,,,,,,,,,,,,,,
,,652985d179fb620c91ac14a1,2023-12-07_08h02.22.429,kallum_motion_pilot,2023.2.3,Win32,59.69436485,652985d179fb620c91ac14a1,6560176e4d91f764e2a42c74,65716d719e2550a2ba47008e,0.0348,0.0349,1,4,166,78,1,fourtwo,,,,,,,,,,,,,,,,,,,,,,,,,,,,,,,,,,,,,,,,,,,,,,,,,,,,,,,,,,,,,,,,,,,,,,,,,,,,,,,,,,,,,,,,,,,,,,,,,,,,,,,,,,,,,,,,,,,,,,,,,,,,,,,,,,,,,,,
,,652985d179fb620c91ac14a1,2023-12-07_08h02.22.429,kallum_motion_pilot,2023.2.3,Win32,59.69436485,652985d179fb620c91ac14a1,6560176e4d91f764e2a42c74,65716d719e2550a2ba47008e,0.035,0.035,1,5,167,14,1,fourtwo,,,,,,,,,,,,,,,,,,,,,,,,,,,,,,,,,,,,,,,,,,,,,,,,,,,,,,,,,,,,,,,,,,,,,,,,,,,,,,,,,,,,,,,,,,,,,,,,,,,,,,,,,,,,,,,,,,,,,,,,,,,,,,,,,,,,,,,
,,652985d179fb620c91ac14a1,2023-12-07_08h02.22.429,kallum_motion_pilot,2023.2.3,Win32,59.69436485,652985d179fb620c91ac14a1,6560176e4d91f764e2a42c74,65716d719e2550a2ba47008e,0.0351,0.0351,1,6,168,50,1,twoone,,,,,,,,,,,,,,,,,,,,,,,,,,,,,,,,,,,,,,,,,,,,,,,,,,,,,,,,,,,,,,,,,,,,,,,,,,,,,,,,,,,,,,,,,,,,,,,,,,,,,,,,,,,,,,,,,,,,,,,,,,,,,,,,,,,,,,,
,,652985d179fb620c91ac14a1,2023-12-07_08h02.22.429,kallum_motion_pilot,2023.2.3,Win32,59.69436485,652985d179fb620c91ac14a1,6560176e4d91f764e2a42c74,65716d719e2550a2ba47008e,0.0352,0.0352,1,7,169,71,1,fourthree,,,,,,,,,,,,,,,,,,,,,,,,,,,,,,,,,,,,,,,,,,,,,,,,,,,,,,,,,,,,,,,,,,,,,,,,,,,,,,,,,,,,,,,,,,,,,,,,,,,,,,,,,,,,,,,,,,,,,,,,,,,,,,,,,,,,,,,
,,652985d179fb620c91ac14a1,2023-12-07_08h02.22.429,kallum_motion_pilot,2023.2.3,Win32,59.69436485,652985d179fb620c91ac14a1,6560176e4d91f764e2a42c74,65716d719e2550a2ba47008e,0.0353,0.0354,1,8,170,1,1,onethree,,,,,,,,,,,,,,,,,,,,,,,,,,,,,,,,,,,,,,,,,,,,,,,,,,,,,,,,,,,,,,,,,,,,,,,,,,,,,,,,,,,,,,,,,,,,,,,,,,,,,,,,,,,,,,,,,,,,,,,,,,,,,,,,,,,,,,,
,,652985d179fb620c91ac14a1,2023-12-07_08h02.22.429,kallum_motion_pilot,2023.2.3,Win32,59.69436485,652985d179fb620c91ac14a1,6560176e4d91f764e2a42c74,65716d719e2550a2ba47008e,0.0354,0.0354,1,9,171,110,1,eightsix,,,,,,,,,,,,,,,,,,,,,,,,,,,,,,,,,,,,,,,,,,,,,,,,,,,,,,,,,,,,,,,,,,,,,,,,,,,,,,,,,,,,,,,,,,,,,,,,,,,,,,,,,,,,,,,,,,,,,,,,,,,,,,,,,,,,,,,
,,652985d179fb620c91ac14a1,2023-12-07_08h02.22.429,kallum_motion_pilot,2023.2.3,Win32,59.69436485,652985d179fb620c91ac14a1,6560176e4d91f764e2a42c74,65716d719e2550a2ba47008e,0.0355,0.0355,1,10,172,54,1,fourtwo,,,,,,,,,,,,,,,,,,,,,,,,,,,,,,,,,,,,,,,,,,,,,,,,,,,,,,,,,,,,,,,,,,,,,,,,,,,,,,,,,,,,,,,,,,,,,,,,,,,,,,,,,,,,,,,,,,,,,,,,,,,,,,,,,,,,,,,
,,652985d179fb620c91ac14a1,2023-12-07_08h02.22.429,kallum_motion_pilot,2023.2.3,Win32,59.69436485,652985d179fb620c91ac14a1,6560176e4d91f764e2a42c74,65716d719e2550a2ba47008e,0.0356,0.0357,1,11,173,94,1,eightsix,,,,,,,,,,,,,,,,,,,,,,,,,,,,,,,,,,,,,,,,,,,,,,,,,,,,,,,,,,,,,,,,,,,,,,,,,,,,,,,,,,,,,,,,,,,,,,,,,,,,,,,,,,,,,,,,,,,,,,,,,,,,,,,,,,,,,,,
,,652985d179fb620c91ac14a1,2023-12-07_08h02.22.429,kallum_motion_pilot,2023.2.3,Win32,59.69436485,652985d179fb620c91ac14a1,6560176e4d91f764e2a42c74,65716d719e2550a2ba47008e,0.0357,0.0357,1,12,174,76,1,threeone,,,,,,,,,,,,,,,,,,,,,,,,,,,,,,,,,,,,,,,,,,,,,,,,,,,,,,,,,,,,,,,,,,,,,,,,,,,,,,,,,,,,,,,,,,,,,,,,,,,,,,,,,,,,,,,,,,,,,,,,,,,,,,,,,,,,,,,
,,652985d179fb620c91ac14a1,2023-12-07_08h02.22.429,kallum_motion_pilot,2023.2.3,Win32,59.69436485,652985d179fb620c91ac14a1,6560176e4d91f764e2a42c74,65716d719e2550a2ba47008e,0.0358,0.0359,1,13,175,113,1,fiveseven,,,,,,,,,,,,,,,,,,,,,,,,,,,,,,,,,,,,,,,,,,,,,,,,,,,,,,,,,,,,,,,,,,,,,,,,,,,,,,,,,,,,,,,,,,,,,,,,,,,,,,,,,,,,,,,,,,,,,,,,,,,,,,,,,,,,,,,
,,652985d179fb620c91ac14a1,2023-12-07_08h02.22.429,kallum_motion_pilot,2023.2.3,Win32,59.69436485,652985d179fb620c91ac14a1,6560176e4d91f764e2a42c74,65716d719e2550a2ba47008e,0.0359,0.036,1,14,176,112,1,fivesix,,,,,,,,,,,,,,,,,,,,,,,,,,,,,,,,,,,,,,,,,,,,,,,,,,,,,,,,,,,,,,,,,,,,,,,,,,,,,,,,,,,,,,,,,,,,,,,,,,,,,,,,,,,,,,,,,,,,,,,,,,,,,,,,,,,,,,,
,,652985d179fb620c91ac14a1,2023-12-07_08h02.22.429,kallum_motion_pilot,2023.2.3,Win32,59.69436485,652985d179fb620c91ac14a1,6560176e4d91f764e2a42c74,65716d719e2550a2ba47008e,0.036,0.0361,1,15,177,16,1,onetwo,,,,,,,,,,,,,,,,,,,,,,,,,,,,,,,,,,,,,,,,,,,,,,,,,,,,,,,,,,,,,,,,,,,,,,,,,,,,,,,,,,,,,,,,,,,,,,,,,,,,,,,,,,,,,,,,,,,,,,,,,,,,,,,,,,,,,,,
,,652985d179fb620c91ac14a1,2023-12-07_08h02.22.429,kallum_motion_pilot,2023.2.3,Win32,59.69436485,652985d179fb620c91ac14a1,6560176e4d91f764e2a42c74,65716d719e2550a2ba47008e,0.0361,0.0362,1,16,178,62,1,fourtwo,,,,,,,,,,,,,,,,,,,,,,,,,,,,,,,,,,,,,,,,,,,,,,,,,,,,,,,,,,,,,,,,,,,,,,,,,,,,,,,,,,,,,,,,,,,,,,,,,,,,,,,,,,,,,,,,,,,,,,,,,,,,,,,,,,,,,,,
,,652985d179fb620c91ac14a1,2023-12-07_08h02.22.429,kallum_motion_pilot,2023.2.3,Win32,59.69436485,652985d179fb620c91ac14a1,6560176e4d91f764e2a42c74,65716d719e2550a2ba47008e,0.0362,0.0363,1,17,179,25,1,onethree,,,,,,,,,,,,,,,,,,,,,,,,,,,,,,,,,,,,,,,,,,,,,,,,,,,,,,,,,,,,,,,,,,,,,,,,,,,,,,,,,,,,,,,,,,,,,,,,,,,,,,,,,,,,,,,,,,,,,,,,,,,,,,,,,,,,,,,
,,652985d179fb620c91ac14a1,2023-12-07_08h02.22.429,kallum_motion_pilot,2023.2.3,Win32,59.69436485,652985d179fb620c91ac14a1,6560176e4d91f764e2a42c74,65716d719e2550a2ba47008e,0.0363,0.0364,1,18,180,49,1,onethree,,,,,,,,,,,,,,,,,,,,,,,,,,,,,,,,,,,,,,,,,,,,,,,,,,,,,,,,,,,,,,,,,,,,,,,,,,,,,,,,,,,,,,,,,,,,,,,,,,,,,,,,,,,,,,,,,,,,,,,,,,,,,,,,,,,,,,,
,,652985d179fb620c91ac14a1,2023-12-07_08h02.22.429,kallum_motion_pilot,2023.2.3,Win32,59.69436485,652985d179fb620c91ac14a1,6560176e4d91f764e2a42c74,65716d719e2550a2ba47008e,0.0365,0.0365,1,19,181,133,1,seveneight,,,,,,,,,,,,,,,,,,,,,,,,,,,,,,,,,,,,,,,,,,,,,,,,,,,,,,,,,,,,,,,,,,,,,,,,,,,,,,,,,,,,,,,,,,,,,,,,,,,,,,,,,,,,,,,,,,,,,,,,,,,,,,,,,,,,,,,
,,652985d179fb620c91ac14a1,2023-12-07_08h02.22.429,kallum_motion_pilot,2023.2.3,Win32,59.69436485,652985d179fb620c91ac14a1,6560176e4d91f764e2a42c74,65716d719e2550a2ba47008e,0.0365,0.0366,1,20,182,109,1,seveneight,,,,,,,,,,,,,,,,,,,,,,,,,,,,,,,,,,,,,,,,,,,,,,,,,,,,,,,,,,,,,,,,,,,,,,,,,,,,,,,,,,,,,,,,,,,,,,,,,,,,,,,,,,,,,,,,,,,,,,,,,,,,,,,,,,,,,,,
,,652985d179fb620c91ac14a1,2023-12-07_08h02.22.429,kallum_motion_pilot,2023.2.3,Win32,59.69436485,652985d179fb620c91ac14a1,6560176e4d91f764e2a42c74,65716d719e2550a2ba47008e,0.0366,0.0367,1,21,183,92,1,sevenfive,,,,,,,,,,,,,,,,,,,,,,,,,,,,,,,,,,,,,,,,,,,,,,,,,,,,,,,,,,,,,,,,,,,,,,,,,,,,,,,,,,,,,,,,,,,,,,,,,,,,,,,,,,,,,,,,,,,,,,,,,,,,,,,,,,,,,,,
,,652985d179fb620c91ac14a1,2023-12-07_08h02.22.429,kallum_motion_pilot,2023.2.3,Win32,59.69436485,652985d179fb620c91ac14a1,6560176e4d91f764e2a42c74,65716d719e2550a2ba47008e,0.0368,0.0369,1,22,184,157,1,seveneight,,,,,,,,,,,,,,,,,,,,,,,,,,,,,,,,,,,,,,,,,,,,,,,,,,,,,,,,,,,,,,,,,,,,,,,,,,,,,,,,,,,,,,,,,,,,,,,,,,,,,,,,,,,,,,,,,,,,,,,,,,,,,,,,,,,,,,,
,,652985d179fb620c91ac14a1,2023-12-07_08h02.22.429,kallum_motion_pilot,2023.2.3,Win32,59.69436485,652985d179fb620c91ac14a1,6560176e4d91f764e2a42c74,65716d719e2550a2ba47008e,0.0369,0.037,1,23,185,42,1,twoone,,,,,,,,,,,,,,,,,,,,,,,,,,,,,,,,,,,,,,,,,,,,,,,,,,,,,,,,,,,,,,,,,,,,,,,,,,,,,,,,,,,,,,,,,,,,,,,,,,,,,,,,,,,,,,,,,,,,,,,,,,,,,,,,,,,,,,,
,,652985d179fb620c91ac14a1,2023-12-07_08h02.22.429,kallum_motion_pilot,2023.2.3,Win32,59.69436485,652985d179fb620c91ac14a1,6560176e4d91f764e2a42c74,65716d719e2550a2ba47008e,0.037,0.0371,1,24,186,120,1,fivesix,,,,,,,,,,,,,,,,,,,,,,,,,,,,,,,,,,,,,,,,,,,,,,,,,,,,,,,,,,,,,,,,,,,,,,,,,,,,,,,,,,,,,,,,,,,,,,,,,,,,,,,,,,,,,,,,,,,,,,,,,,,,,,,,,,,,,,,
,,652985d179fb620c91ac14a1,2023-12-07_08h02.22.429,kallum_motion_pilot,2023.2.3,Win32,59.69436485,652985d179fb620c91ac14a1,6560176e4d91f764e2a42c74,65716d719e2550a2ba47008e,0.0372,0.0372,1,25,187,24,1,onetwo,,,,,,,,,,,,,,,,,,,,,,,,,,,,,,,,,,,,,,,,,,,,,,,,,,,,,,,,,,,,,,,,,,,,,,,,,,,,,,,,,,,,,,,,,,,,,,,,,,,,,,,,,,,,,,,,,,,,,,,,,,,,,,,,,,,,,,,
,,652985d179fb620c91ac14a1,2023-12-07_08h02.22.429,kallum_motion_pilot,2023.2.3,Win32,59.69436485,652985d179fb620c91ac14a1,6560176e4d91f764e2a42c74,65716d719e2550a2ba47008e,0.0373,0.0373,1,26,188,107,1,sixeight,,,,,,,,,,,,,,,,,,,,,,,,,,,,,,,,,,,,,,,,,,,,,,,,,,,,,,,,,,,,,,,,,,,,,,,,,,,,,,,,,,,,,,,,,,,,,,,,,,,,,,,,,,,,,,,,,,,,,,,,,,,,,,,,,,,,,,,
,,652985d179fb620c91ac14a1,2023-12-07_08h02.22.429,kallum_motion_pilot,2023.2.3,Win32,59.69436485,652985d179fb620c91ac14a1,6560176e4d91f764e2a42c74,65716d719e2550a2ba47008e,0.0374,0.0374,1,27,189,135,1,eightseven,,,,,,,,,,,,,,,,,,,,,,,,,,,,,,,,,,,,,,,,,,,,,,,,,,,,,,,,,,,,,,,,,,,,,,,,,,,,,,,,,,,,,,,,,,,,,,,,,,,,,,,,,,,,,,,,,,,,,,,,,,,,,,,,,,,,,,,
,,652985d179fb620c91ac14a1,2023-12-07_08h02.22.429,kallum_motion_pilot,2023.2.3,Win32,59.69436485,652985d179fb620c91ac14a1,6560176e4d91f764e2a42c74,65716d719e2550a2ba47008e,0.0375,0.0375,1,28,190,93,1,seveneight,,,,,,,,,,,,,,,,,,,,,,,,,,,,,,,,,,,,,,,,,,,,,,,,,,,,,,,,,,,,,,,,,,,,,,,,,,,,,,,,,,,,,,,,,,,,,,,,,,,,,,,,,,,,,,,,,,,,,,,,,,,,,,,,,,,,,,,
,,652985d179fb620c91ac14a1,2023-12-07_08h02.22.429,kallum_motion_pilot,2023.2.3,Win32,59.69436485,652985d179fb620c91ac14a1,6560176e4d91f764e2a42c74,65716d719e2550a2ba47008e,0.0376,0.0377,1,29,191,77,1,threefour,,,,,,,,,,,,,,,,,,,,,,,,,,,,,,,,,,,,,,,,,,,,,,,,,,,,,,,,,,,,,,,,,,,,,,,,,,,,,,,,,,,,,,,,,,,,,,,,,,,,,,,,,,,,,,,,,,,,,,,,,,,,,,,,,,,,,,,
,,652985d179fb620c91ac14a1,2023-12-07_08h02.22.429,kallum_motion_pilot,2023.2.3,Win32,59.69436485,652985d179fb620c91ac14a1,6560176e4d91f764e2a42c74,65716d719e2550a2ba47008e,0.0377,0.0378,1,30,192,158,1,eightsix,,,,,,,,,,,,,,,,,,,,,,,,,,,,,,,,,,,,,,,,,,,,,,,,,,,,,,,,,,,,,,,,,,,,,,,,,,,,,,,,,,,,,,,,,,,,,,,,,,,,,,,,,,,,,,,,,,,,,,,,,,,,,,,,,,,,,,,
,,652985d179fb620c91ac14a1,2023-12-07_08h02.22.429,kallum_motion_pilot,2023.2.3,Win32,59.69436485,652985d179fb620c91ac14a1,6560176e4d91f764e2a42c74,65716d719e2550a2ba47008e,0.0378,0.0379,1,31,193,141,1,seveneight,,,,,,,,,,,,,,,,,,,,,,,,,,,,,,,,,,,,,,,,,,,,,,,,,,,,,,,,,,,,,,,,,,,,,,,,,,,,,,,,,,,,,,,,,,,,,,,,,,,,,,,,,,,,,,,,,,,,,,,,,,,,,,,,,,,,,,,
,,652985d179fb620c91ac14a1,2023-12-07_08h02.22.429,kallum_motion_pilot,2023.2.3,Win32,59.69436485,652985d179fb620c91ac14a1,6560176e4d91f764e2a42c74,65716d719e2550a2ba47008e,0.038,0.0381,1,32,194,145,1,fiveseven,,,,,,,,,,,,,,,,,,,,,,,,,,,,,,,,,,,,,,,,,,,,,,,,,,,,,,,,,,,,,,,,,,,,,,,,,,,,,,,,,,,,,,,,,,,,,,,,,,,,,,,,,,,,,,,,,,,,,,,,,,,,,,,,,,,,,,,
,,652985d179fb620c91ac14a1,2023-12-07_08h02.22.429,kallum_motion_pilot,2023.2.3,Win32,59.69436485,652985d179fb620c91ac14a1,6560176e4d91f764e2a42c74,65716d719e2550a2ba47008e,0.0381,0.0382,1,33,195,138,1,sixfive,,,,,,,,,,,,,,,,,,,,,,,,,,,,,,,,,,,,,,,,,,,,,,,,,,,,,,,,,,,,,,,,,,,,,,,,,,,,,,,,,,,,,,,,,,,,,,,,,,,,,,,,,,,,,,,,,,,,,,,,,,,,,,,,,,,,,,,
,,652985d179fb620c91ac14a1,2023-12-07_08h02.22.429,kallum_motion_pilot,2023.2.3,Win32,59.69436485,652985d179fb620c91ac14a1,6560176e4d91f764e2a42c74,65716d719e2550a2ba47008e,0.0382,0.0383,1,34,196,90,1,sixfive,,,,,,,,,,,,,,,,,,,,,,,,,,,,,,,,,,,,,,,,,,,,,,,,,,,,,,,,,,,,,,,,,,,,,,,,,,,,,,,,,,,,,,,,,,,,,,,,,,,,,,,,,,,,,,,,,,,,,,,,,,,,,,,,,,,,,,,
,,652985d179fb620c91ac14a1,2023-12-07_08h02.22.429,kallum_motion_pilot,2023.2.3,Win32,59.69436485,652985d179fb620c91ac14a1,6560176e4d91f764e2a42c74,65716d719e2550a2ba47008e,0.0383,0.0384,1,35,197,147,1,sixeight,,,,,,,,,,,,,,,,,,,,,,,,,,,,,,,,,,,,,,,,,,,,,,,,,,,,,,,,,,,,,,,,,,,,,,,,,,,,,,,,,,,,,,,,,,,,,,,,,,,,,,,,,,,,,,,,,,,,,,,,,,,,,,,,,,,,,,,
,,652985d179fb620c91ac14a1,2023-12-07_08h02.22.429,kallum_motion_pilot,2023.2.3,Win32,59.69436485,652985d179fb620c91ac14a1,6560176e4d91f764e2a42c74,65716d719e2550a2ba47008e,0.0385,0.0385,1,36,198,19,1,twofour,,,,,,,,,,,,,,,,,,,,,,,,,,,,,,,,,,,,,,,,,,,,,,,,,,,,,,,,,,,,,,,,,,,,,,,,,,,,,,,,,,,,,,,,,,,,,,,,,,,,,,,,,,,,,,,,,,,,,,,,,,,,,,,,,,,,,,,
,,652985d179fb620c91ac14a1,2023-12-07_08h02.22.429,kallum_motion_pilot,2023.2.3,Win32,59.69436485,652985d179fb620c91ac14a1,6560176e4d91f764e2a42c74,65716d719e2550a2ba47008e,0.0386,0.0386,1,37,199,26,1,twoone,,,,,,,,,,,,,,,,,,,,,,,,,,,,,,,,,,,,,,,,,,,,,,,,,,,,,,,,,,,,,,,,,,,,,,,,,,,,,,,,,,,,,,,,,,,,,,,,,,,,,,,,,,,,,,,,,,,,,,,,,,,,,,,,,,,,,,,
,,652985d179fb620c91ac14a1,2023-12-07_08h02.22.429,kallum_motion_pilot,2023.2.3,Win32,59.69436485,652985d179fb620c91ac14a1,6560176e4d91f764e2a42c74,65716d719e2550a2ba47008e,0.0387,0.0387,1,38,200,153,1,fiveseven,,,,,,,,,,,,,,,,,,,,,,,,,,,,,,,,,,,,,,,,,,,,,,,,,,,,,,,,,,,,,,,,,,,,,,,,,,,,,,,,,,,,,,,,,,,,,,,,,,,,,,,,,,,,,,,,,,,,,,,,,,,,,,,,,,,,,,,
,,652985d179fb620c91ac14a1,2023-12-07_08h02.22.429,kallum_motion_pilot,2023.2.3,Win32,59.69436485,652985d179fb620c91ac14a1,6560176e4d91f764e2a42c74,65716d719e2550a2ba47008e,0.0388,0.0388,1,39,201,118,1,eightsix,,,,,,,,,,,,,,,,,,,,,,,,,,,,,,,,,,,,,,,,,,,,,,,,,,,,,,,,,,,,,,,,,,,,,,,,,,,,,,,,,,,,,,,,,,,,,,,,,,,,,,,,,,,,,,,,,,,,,,,,,,,,,,,,,,,,,,,
,,652985d179fb620c91ac14a1,2023-12-07_08h02.22.429,kallum_motion_pilot,2023.2.3,Win32,59.69436485,652985d179fb620c91ac14a1,6560176e4d91f764e2a42c74,65716d719e2550a2ba47008e,0.0389,0.0389,1,40,202,87,1,eightseven,,,,,,,,,,,,,,,,,,,,,,,,,,,,,,,,,,,,,,,,,,,,,,,,,,,,,,,,,,,,,,,,,,,,,,,,,,,,,,,,,,,,,,,,,,,,,,,,,,,,,,,,,,,,,,,,,,,,,,,,,,,,,,,,,,,,,,,
,,652985d179fb620c91ac14a1,2023-12-07_08h02.22.429,kallum_motion_pilot,2023.2.3,Win32,59.69436485,652985d179fb620c91ac14a1,6560176e4d91f764e2a42c74,65716d719e2550a2ba47008e,0.039,0.039,1,41,203,108,1,sevenfive,,,,,,,,,,,,,,,,,,,,,,,,,,,,,,,,,,,,,,,,,,,,,,,,,,,,,,,,,,,,,,,,,,,,,,,,,,,,,,,,,,,,,,,,,,,,,,,,,,,,,,,,,,,,,,,,,,,,,,,,,,,,,,,,,,,,,,,
,,652985d179fb620c91ac14a1,2023-12-07_08h02.22.429,kallum_motion_pilot,2023.2.3,Win32,59.69436485,652985d179fb620c91ac14a1,6560176e4d91f764e2a42c74,65716d719e2550a2ba47008e,0.0391,0.0392,1,42,204,117,1,seveneight,,,,,,,,,,,,,,,,,,,,,,,,,,,,,,,,,,,,,,,,,,,,,,,,,,,,,,,,,,,,,,,,,,,,,,,,,,,,,,,,,,,,,,,,,,,,,,,,,,,,,,,,,,,,,,,,,,,,,,,,,,,,,,,,,,,,,,,
,,652985d179fb620c91ac14a1,2023-12-07_08h02.22.429,kallum_motion_pilot,2023.2.3,Win32,59.69436485,652985d179fb620c91ac14a1,6560176e4d91f764e2a42c74,65716d719e2550a2ba47008e,0.0393,0.0393,1,43,205,32,1,onetwo,,,,,,,,,,,,,,,,,,,,,,,,,,,,,,,,,,,,,,,,,,,,,,,,,,,,,,,,,,,,,,,,,,,,,,,,,,,,,,,,,,,,,,,,,,,,,,,,,,,,,,,,,,,,,,,,,,,,,,,,,,,,,,,,,,,,,,,
,,652985d179fb620c91ac14a1,2023-12-07_08h02.22.429,kallum_motion_pilot,2023.2.3,Win32,59.69436485,652985d179fb620c91ac14a1,6560176e4d91f764e2a42c74,65716d719e2550a2ba47008e,0.0393,0.0394,1,44,206,33,1,onethree,,,,,,,,,,,,,,,,,,,,,,,,,,,,,,,,,,,,,,,,,,,,,,,,,,,,,,,,,,,,,,,,,,,,,,,,,,,,,,,,,,,,,,,,,,,,,,,,,,,,,,,,,,,,,,,,,,,,,,,,,,,,,,,,,,,,,,,
,,652985d179fb620c91ac14a1,2023-12-07_08h02.22.429,kallum_motion_pilot,2023.2.3,Win32,59.69436485,652985d179fb620c91ac14a1,6560176e4d91f764e2a42c74,65716d719e2550a2ba47008e,0.0395,0.0395,1,45,207,20,1,threeone,,,,,,,,,,,,,,,,,,,,,,,,,,,,,,,,,,,,,,,,,,,,,,,,,,,,,,,,,,,,,,,,,,,,,,,,,,,,,,,,,,,,,,,,,,,,,,,,,,,,,,,,,,,,,,,,,,,,,,,,,,,,,,,,,,,,,,,
,,652985d179fb620c91ac14a1,2023-12-07_08h02.22.429,kallum_motion_pilot,2023.2.3,Win32,59.69436485,652985d179fb620c91ac14a1,6560176e4d91f764e2a42c74,65716d719e2550a2ba47008e,0.0396,0.0396,1,46,208,10,1,twoone,,,,,,,,,,,,,,,,,,,,,,,,,,,,,,,,,,,,,,,,,,,,,,,,,,,,,,,,,,,,,,,,,,,,,,,,,,,,,,,,,,,,,,,,,,,,,,,,,,,,,,,,,,,,,,,,,,,,,,,,,,,,,,,,,,,,,,,
,,652985d179fb620c91ac14a1,2023-12-07_08h02.22.429,kallum_motion_pilot,2023.2.3,Win32,59.69436485,652985d179fb620c91ac14a1,6560176e4d91f764e2a42c74,65716d719e2550a2ba47008e,0.0397,0.0397,1,47,209,75,1,twofour,,,,,,,,,,,,,,,,,,,,,,,,,,,,,,,,,,,,,,,,,,,,,,,,,,,,,,,,,,,,,,,,,,,,,,,,,,,,,,,,,,,,,,,,,,,,,,,,,,,,,,,,,,,,,,,,,,,,,,,,,,,,,,,,,,,,,,,
,,652985d179fb620c91ac14a1,2023-12-07_08h02.22.429,kallum_motion_pilot,2023.2.3,Win32,59.69436485,652985d179fb620c91ac14a1,6560176e4d91f764e2a42c74,65716d719e2550a2ba47008e,0.0398,0.0398,1,48,210,123,1,sixeight,,,,,,,,,,,,,,,,,,,,,,,,,,,,,,,,,,,,,,,,,,,,,,,,,,,,,,,,,,,,,,,,,,,,,,,,,,,,,,,,,,,,,,,,,,,,,,,,,,,,,,,,,,,,,,,,,,,,,,,,,,,,,,,,,,,,,,,
,,652985d179fb620c91ac14a1,2023-12-07_08h02.22.429,kallum_motion_pilot,2023.2.3,Win32,59.69436485,652985d179fb620c91ac14a1,6560176e4d91f764e2a42c74,65716d719e2550a2ba47008e,0.0399,0.04,1,49,211,79,1,eightseven,,,,,,,,,,,,,,,,,,,,,,,,,,,,,,,,,,,,,,,,,,,,,,,,,,,,,,,,,,,,,,,,,,,,,,,,,,,,,,,,,,,,,,,,,,,,,,,,,,,,,,,,,,,,,,,,,,,,,,,,,,,,,,,,,,,,,,,
,,652985d179fb620c91ac14a1,2023-12-07_08h02.22.429,kallum_motion_pilot,2023.2.3,Win32,59.69436485,652985d179fb620c91ac14a1,6560176e4d91f764e2a42c74,65716d719e2550a2ba47008e,0.04,0.04,1,50,212,152,1,fivesix,,,,,,,,,,,,,,,,,,,,,,,,,,,,,,,,,,,,,,,,,,,,,,,,,,,,,,,,,,,,,,,,,,,,,,,,,,,,,,,,,,,,,,,,,,,,,,,,,,,,,,,,,,,,,,,,,,,,,,,,,,,,,,,,,,,,,,,
,,652985d179fb620c91ac14a1,2023-12-07_08h02.22.429,kallum_motion_pilot,2023.2.3,Win32,59.69436485,652985d179fb620c91ac14a1,6560176e4d91f764e2a42c74,65716d719e2550a2ba47008e,0.0401,0.0401,1,51,213,43,1,twofour,,,,,,,,,,,,,,,,,,,,,,,,,,,,,,,,,,,,,,,,,,,,,,,,,,,,,,,,,,,,,,,,,,,,,,,,,,,,,,,,,,,,,,,,,,,,,,,,,,,,,,,,,,,,,,,,,,,,,,,,,,,,,,,,,,,,,,,
,,652985d179fb620c91ac14a1,2023-12-07_08h02.22.429,kallum_motion_pilot,2023.2.3,Win32,59.69436485,652985d179fb620c91ac14a1,6560176e4d91f764e2a42c74,65716d719e2550a2ba47008e,0.0402,0.0403,1,52,214,111,1,eightseven,,,,,,,,,,,,,,,,,,,,,,,,,,,,,,,,,,,,,,,,,,,,,,,,,,,,,,,,,,,,,,,,,,,,,,,,,,,,,,,,,,,,,,,,,,,,,,,,,,,,,,,,,,,,,,,,,,,,,,,,,,,,,,,,,,,,,,,
,,652985d179fb620c91ac14a1,2023-12-07_08h02.22.429,kallum_motion_pilot,2023.2.3,Win32,59.69436485,652985d179fb620c91ac14a1,6560176e4d91f764e2a42c74,65716d719e2550a2ba47008e,0.0403,0.0403,1,53,215,98,1,sixfive,,,,,,,,,,,,,,,,,,,,,,,,,,,,,,,,,,,,,,,,,,,,,,,,,,,,,,,,,,,,,,,,,,,,,,,,,,,,,,,,,,,,,,,,,,,,,,,,,,,,,,,,,,,,,,,,,,,,,,,,,,,,,,,,,,,,,,,
,,652985d179fb620c91ac14a1,2023-12-07_08h02.22.429,kallum_motion_pilot,2023.2.3,Win32,59.69436485,652985d179fb620c91ac14a1,6560176e4d91f764e2a42c74,65716d719e2550a2ba47008e,0.0404,0.0404,1,54,216,136,1,fivesix,,,,,,,,,,,,,,,,,,,,,,,,,,,,,,,,,,,,,,,,,,,,,,,,,,,,,,,,,,,,,,,,,,,,,,,,,,,,,,,,,,,,,,,,,,,,,,,,,,,,,,,,,,,,,,,,,,,,,,,,,,,,,,,,,,,,,,,
,,652985d179fb620c91ac14a1,2023-12-07_08h02.22.429,kallum_motion_pilot,2023.2.3,Win32,59.69436485,652985d179fb620c91ac14a1,6560176e4d91f764e2a42c74,65716d719e2550a2ba47008e,0.0405,0.0406,1,55,217,11,1,twofour,,,,,,,,,,,,,,,,,,,,,,,,,,,,,,,,,,,,,,,,,,,,,,,,,,,,,,,,,,,,,,,,,,,,,,,,,,,,,,,,,,,,,,,,,,,,,,,,,,,,,,,,,,,,,,,,,,,,,,,,,,,,,,,,,,,,,,,
,,652985d179fb620c91ac14a1,2023-12-07_08h02.22.429,kallum_motion_pilot,2023.2.3,Win32,59.69436485,652985d179fb620c91ac14a1,6560176e4d91f764e2a42c74,65716d719e2550a2ba47008e,0.0406,0.0407,1,56,218,17,1,onethree,,,,,,,,,,,,,,,,,,,,,,,,,,,,,,,,,,,,,,,,,,,,,,,,,,,,,,,,,,,,,,,,,,,,,,,,,,,,,,,,,,,,,,,,,,,,,,,,,,,,,,,,,,,,,,,,,,,,,,,,,,,,,,,,,,,,,,,
,,652985d179fb620c91ac14a1,2023-12-07_08h02.22.429,kallum_motion_pilot,2023.2.3,Win32,59.69436485,652985d179fb620c91ac14a1,6560176e4d91f764e2a42c74,65716d719e2550a2ba47008e,0.0408,0.0408,1,57,219,91,1,sixeight,,,,,,,,,,,,,,,,,,,,,,,,,,,,,,,,,,,,,,,,,,,,,,,,,,,,,,,,,,,,,,,,,,,,,,,,,,,,,,,,,,,,,,,,,,,,,,,,,,,,,,,,,,,,,,,,,,,,,,,,,,,,,,,,,,,,,,,
,,652985d179fb620c91ac14a1,2023-12-07_08h02.22.429,kallum_motion_pilot,2023.2.3,Win32,59.69436485,652985d179fb620c91ac14a1,6560176e4d91f764e2a42c74,65716d719e2550a2ba47008e,0.0409,0.041,1,58,220,156,1,sevenfive,,,,,,,,,,,,,,,,,,,,,,,,,,,,,,,,,,,,,,,,,,,,,,,,,,,,,,,,,,,,,,,,,,,,,,,,,,,,,,,,,,,,,,,,,,,,,,,,,,,,,,,,,,,,,,,,,,,,,,,,,,,,,,,,,,,,,,,
,,652985d179fb620c91ac14a1,2023-12-07_08h02.22.429,kallum_motion_pilot,2023.2.3,Win32,59.69436485,652985d179fb620c91ac14a1,6560176e4d91f764e2a42c74,65716d719e2550a2ba47008e,0.041,0.041,1,59,221,101,1,seveneight,,,,,,,,,,,,,,,,,,,,,,,,,,,,,,,,,,,,,,,,,,,,,,,,,,,,,,,,,,,,,,,,,,,,,,,,,,,,,,,,,,,,,,,,,,,,,,,,,,,,,,,,,,,,,,,,,,,,,,,,,,,,,,,,,,,,,,,
,,652985d179fb620c91ac14a1,2023-12-07_08h02.22.429,kallum_motion_pilot,2023.2.3,Win32,59.69436485,652985d179fb620c91ac14a1,6560176e4d91f764e2a42c74,65716d719e2550a2ba47008e,0.0411,0.0412,1,60,222,102,1,eightsix,,,,,,,,,,,,,,,,,,,,,,,,,,,,,,,,,,,,,,,,,,,,,,,,,,,,,,,,,,,,,,,,,,,,,,,,,,,,,,,,,,,,,,,,,,,,,,,,,,,,,,,,,,,,,,,,,,,,,,,,,,,,,,,,,,,,,,,
,,652985d179fb620c91ac14a1,2023-12-07_08h02.22.429,kallum_motion_pilot,2023.2.3,Win32,59.69436485,652985d179fb620c91ac14a1,6560176e4d91f764e2a42c74,65716d719e2550a2ba47008e,0.0412,0.0413,1,61,223,21,1,threefour,,,,,,,,,,,,,,,,,,,,,,,,,,,,,,,,,,,,,,,,,,,,,,,,,,,,,,,,,,,,,,,,,,,,,,,,,,,,,,,,,,,,,,,,,,,,,,,,,,,,,,,,,,,,,,,,,,,,,,,,,,,,,,,,,,,,,,,
,,652985d179fb620c91ac14a1,2023-12-07_08h02.22.429,kallum_motion_pilot,2023.2.3,Win32,59.69436485,652985d179fb620c91ac14a1,6560176e4d91f764e2a42c74,65716d719e2550a2ba47008e,0.0414,0.0414,1,62,224,154,1,sixfive,,,,,,,,,,,,,,,,,,,,,,,,,,,,,,,,,,,,,,,,,,,,,,,,,,,,,,,,,,,,,,,,,,,,,,,,,,,,,,,,,,,,,,,,,,,,,,,,,,,,,,,,,,,,,,,,,,,,,,,,,,,,,,,,,,,,,,,
,,652985d179fb620c91ac14a1,2023-12-07_08h02.22.429,kallum_motion_pilot,2023.2.3,Win32,59.69436485,652985d179fb620c91ac14a1,6560176e4d91f764e2a42c74,65716d719e2550a2ba47008e,0.0415,0.0416,1,63,225,48,1,onetwo,,,,,,,,,,,,,,,,,,,,,,,,,,,,,,,,,,,,,,,,,,,,,,,,,,,,,,,,,,,,,,,,,,,,,,,,,,,,,,,,,,,,,,,,,,,,,,,,,,,,,,,,,,,,,,,,,,,,,,,,,,,,,,,,,,,,,,,
,,652985d179fb620c91ac14a1,2023-12-07_08h02.22.429,kallum_motion_pilot,2023.2.3,Win32,59.69436485,652985d179fb620c91ac14a1,6560176e4d91f764e2a42c74,65716d719e2550a2ba47008e,0.0416,0.0417,1,64,226,9,1,onethree,,,,,,,,,,,,,,,,,,,,,,,,,,,,,,,,,,,,,,,,,,,,,,,,,,,,,,,,,,,,,,,,,,,,,,,,,,,,,,,,,,,,,,,,,,,,,,,,,,,,,,,,,,,,,,,,,,,,,,,,,,,,,,,,,,,,,,,
,,652985d179fb620c91ac14a1,2023-12-07_08h02.22.429,kallum_motion_pilot,2023.2.3,Win32,59.69436485,652985d179fb620c91ac14a1,6560176e4d91f764e2a42c74,65716d719e2550a2ba47008e,0.0418,0.042,1,65,227,139,1,sixeight,,,,,,,,,,,,,,,,,,,,,,,,,,,,,,,,,,,,,,,,,,,,,,,,,,,,,,,,,,,,,,,,,,,,,,,,,,,,,,,,,,,,,,,,,,,,,,,,,,,,,,,,,,,,,,,,,,,,,,,,,,,,,,,,,,,,,,,
,,652985d179fb620c91ac14a1,2023-12-07_08h02.22.429,kallum_motion_pilot,2023.2.3,Win32,59.69436485,652985d179fb620c91ac14a1,6560176e4d91f764e2a42c74,65716d719e2550a2ba47008e,0.042,0.042,1,66,228,44,1,threeone,,,,,,,,,,,,,,,,,,,,,,,,,,,,,,,,,,,,,,,,,,,,,,,,,,,,,,,,,,,,,,,,,,,,,,,,,,,,,,,,,,,,,,,,,,,,,,,,,,,,,,,,,,,,,,,,,,,,,,,,,,,,,,,,,,,,,,,
,,652985d179fb620c91ac14a1,2023-12-07_08h02.22.429,kallum_motion_pilot,2023.2.3,Win32,59.69436485,652985d179fb620c91ac14a1,6560176e4d91f764e2a42c74,65716d719e2550a2ba47008e,0.0422,0.0423,1,67,229,57,1,onethree,,,,,,,,,,,,,,,,,,,,,,,,,,,,,,,,,,,,,,,,,,,,,,,,,,,,,,,,,,,,,,,,,,,,,,,,,,,,,,,,,,,,,,,,,,,,,,,,,,,,,,,,,,,,,,,,,,,,,,,,,,,,,,,,,,,,,,,
,,652985d179fb620c91ac14a1,2023-12-07_08h02.22.429,kallum_motion_pilot,2023.2.3,Win32,59.69436485,652985d179fb620c91ac14a1,6560176e4d91f764e2a42c74,65716d719e2550a2ba47008e,0.0424,0.0424,1,68,230,29,1,threefour,,,,,,,,,,,,,,,,,,,,,,,,,,,,,,,,,,,,,,,,,,,,,,,,,,,,,,,,,,,,,,,,,,,,,,,,,,,,,,,,,,,,,,,,,,,,,,,,,,,,,,,,,,,,,,,,,,,,,,,,,,,,,,,,,,,,,,,
,,652985d179fb620c91ac14a1,2023-12-07_08h02.22.429,kallum_motion_pilot,2023.2.3,Win32,59.69436485,652985d179fb620c91ac14a1,6560176e4d91f764e2a42c74,65716d719e2550a2ba47008e,0.0425,0.0426,1,69,231,58,1,twoone,,,,,,,,,,,,,,,,,,,,,,,,,,,,,,,,,,,,,,,,,,,,,,,,,,,,,,,,,,,,,,,,,,,,,,,,,,,,,,,,,,,,,,,,,,,,,,,,,,,,,,,,,,,,,,,,,,,,,,,,,,,,,,,,,,,,,,,
,,652985d179fb620c91ac14a1,2023-12-07_08h02.22.429,kallum_motion_pilot,2023.2.3,Win32,59.69436485,652985d179fb620c91ac14a1,6560176e4d91f764e2a42c74,65716d719e2550a2ba47008e,0.0426,0.0427,1,70,232,155,1,sixeight,,,,,,,,,,,,,,,,,,,,,,,,,,,,,,,,,,,,,,,,,,,,,,,,,,,,,,,,,,,,,,,,,,,,,,,,,,,,,,,,,,,,,,,,,,,,,,,,,,,,,,,,,,,,,,,,,,,,,,,,,,,,,,,,,,,,,,,
,,652985d179fb620c91ac14a1,2023-12-07_08h02.22.429,kallum_motion_pilot,2023.2.3,Win32,59.69436485,652985d179fb620c91ac14a1,6560176e4d91f764e2a42c74,65716d719e2550a2ba47008e,0.0427,0.0428,1,71,233,7,1,fourthree,,,,,,,,,,,,,,,,,,,,,,,,,,,,,,,,,,,,,,,,,,,,,,,,,,,,,,,,,,,,,,,,,,,,,,,,,,,,,,,,,,,,,,,,,,,,,,,,,,,,,,,,,,,,,,,,,,,,,,,,,,,,,,,,,,,,,,,
,,652985d179fb620c91ac14a1,2023-12-07_08h02.22.429,kallum_motion_pilot,2023.2.3,Win32,59.69436485,652985d179fb620c91ac14a1,6560176e4d91f764e2a42c74,65716d719e2550a2ba47008e,0.0428,0.0429,1,72,234,39,1,fourthree,,,,,,,,,,,,,,,,,,,,,,,,,,,,,,,,,,,,,,,,,,,,,,,,,,,,,,,,,,,,,,,,,,,,,,,,,,,,,,,,,,,,,,,,,,,,,,,,,,,,,,,,,,,,,,,,,,,,,,,,,,,,,,,,,,,,,,,
,,652985d179fb620c91ac14a1,2023-12-07_08h02.22.429,kallum_motion_pilot,2023.2.3,Win32,59.69436485,652985d179fb620c91ac14a1,6560176e4d91f764e2a42c74,65716d719e2550a2ba47008e,0.043,0.043,1,73,235,69,1,threefour,,,,,,,,,,,,,,,,,,,,,,,,,,,,,,,,,,,,,,,,,,,,,,,,,,,,,,,,,,,,,,,,,,,,,,,,,,,,,,,,,,,,,,,,,,,,,,,,,,,,,,,,,,,,,,,,,,,,,,,,,,,,,,,,,,,,,,,
,,652985d179fb620c91ac14a1,2023-12-07_08h02.22.429,kallum_motion_pilot,2023.2.3,Win32,59.69436485,652985d179fb620c91ac14a1,6560176e4d91f764e2a42c74,65716d719e2550a2ba47008e,0.043,0.0431,1,74,236,31,1,fourthree,,,,,,,,,,,,,,,,,,,,,,,,,,,,,,,,,,,,,,,,,,,,,,,,,,,,,,,,,,,,,,,,,,,,,,,,,,,,,,,,,,,,,,,,,,,,,,,,,,,,,,,,,,,,,,,,,,,,,,,,,,,,,,,,,,,,,,,
,,652985d179fb620c91ac14a1,2023-12-07_08h02.22.429,kallum_motion_pilot,2023.2.3,Win32,59.69436485,652985d179fb620c91ac14a1,6560176e4d91f764e2a42c74,65716d719e2550a2ba47008e,0.0432,0.0433,1,75,237,95,1,eightseven,,,,,,,,,,,,,,,,,,,,,,,,,,,,,,,,,,,,,,,,,,,,,,,,,,,,,,,,,,,,,,,,,,,,,,,,,,,,,,,,,,,,,,,,,,,,,,,,,,,,,,,,,,,,,,,,,,,,,,,,,,,,,,,,,,,,,,,
,,652985d179fb620c91ac14a1,2023-12-07_08h02.22.429,kallum_motion_pilot,2023.2.3,Win32,59.69436485,652985d179fb620c91ac14a1,6560176e4d91f764e2a42c74,65716d719e2550a2ba47008e,0.0433,0.0434,1,76,238,72,1,onetwo,,,,,,,,,,,,,,,,,,,,,,,,,,,,,,,,,,,,,,,,,,,,,,,,,,,,,,,,,,,,,,,,,,,,,,,,,,,,,,,,,,,,,,,,,,,,,,,,,,,,,,,,,,,,,,,,,,,,,,,,,,,,,,,,,,,,,,,
,,652985d179fb620c91ac14a1,2023-12-07_08h02.22.429,kallum_motion_pilot,2023.2.3,Win32,59.69436485,652985d179fb620c91ac14a1,6560176e4d91f764e2a42c74,65716d719e2550a2ba47008e,0.0434,0.0435,1,77,239,104,1,fivesix,,,,,,,,,,,,,,,,,,,,,,,,,,,,,,,,,,,,,,,,,,,,,,,,,,,,,,,,,,,,,,,,,,,,,,,,,,,,,,,,,,,,,,,,,,,,,,,,,,,,,,,,,,,,,,,,,,,,,,,,,,,,,,,,,,,,,,,
,,652985d179fb620c91ac14a1,2023-12-07_08h02.22.429,kallum_motion_pilot,2023.2.3,Win32,59.69436485,652985d179fb620c91ac14a1,6560176e4d91f764e2a42c74,65716d719e2550a2ba47008e,0.0436,0.0436,1,78,240,160,1,fivesix,,,,,,,,,,,,,,,,,,,,,,,,,,,,,,,,,,,,,,,,,,,,,,,,,,,,,,,,,,,,,,,,,,,,,,,,,,,,,,,,,,,,,,,,,,,,,,,,,,,,,,,,,,,,,,,,,,,,,,,,,,,,,,,,,,,,,,,
,,652985d179fb620c91ac14a1,2023-12-07_08h02.22.429,kallum_motion_pilot,2023.2.3,Win32,59.69436485,652985d179fb620c91ac14a1,6560176e4d91f764e2a42c74,65716d719e2550a2ba47008e,0.0437,0.0437,1,79,241,114,1,sixfive,,,,,,,,,,,,,,,,,,,,,,,,,,,,,,,,,,,,,,,,,,,,,,,,,,,,,,,,,,,,,,,,,,,,,,,,,,,,,,,,,,,,,,,,,,,,,,,,,,,,,,,,,,,,,,,,,,,,,,,,,,,,,,,,,,,,,,,
,,652985d179fb620c91ac14a1,2023-12-07_08h02.22.429,kallum_motion_pilot,2023.2.3,Win32,59.69436485,652985d179fb620c91ac14a1,6560176e4d91f764e2a42c74,65716d719e2550a2ba47008e,0.0438,0.0438,1,80,242,144,1,fivesix,,,,,,,,,,,,,,,,,,,,,,,,,,,,,,,,,,,,,,,,,,,,,,,,,,,,,,,,,,,,,,,,,,,,,,,,,,,,,,,,,,,,,,,,,,,,,,,,,,,,,,,,,,,,,,,,,,,,,,,,,,,,,,,,,,,,,,,
,,652985d179fb620c91ac14a1,2023-12-07_08h02.22.429,kallum_motion_pilot,2023.2.3,Win32,59.69436485,652985d179fb620c91ac14a1,6560176e4d91f764e2a42c74,65716d719e2550a2ba47008e,0.0439,0.044,1,81,243,81,1,fiveseven,,,,,,,,,,,,,,,,,,,,,,,,,,,,,,,,,,,,,,,,,,,,,,,,,,,,,,,,,,,,,,,,,,,,,,,,,,,,,,,,,,,,,,,,,,,,,,,,,,,,,,,,,,,,,,,,,,,,,,,,,,,,,,,,,,,,,,,
,,652985d179fb620c91ac14a1,2023-12-07_08h02.22.429,kallum_motion_pilot,2023.2.3,Win32,59.69436485,652985d179fb620c91ac14a1,6560176e4d91f764e2a42c74,65716d719e2550a2ba47008e,0.0441,0.0441,1,82,244,159,1,eightseven,,,,,,,,,,,,,,,,,,,,,,,,,,,,,,,,,,,,,,,,,,,,,,,,,,,,,,,,,,,,,,,,,,,,,,,,,,,,,,,,,,,,,,,,,,,,,,,,,,,,,,,,,,,,,,,,,,,,,,,,,,,,,,,,,,,,,,,
,,652985d179fb620c91ac14a1,2023-12-07_08h02.22.429,kallum_motion_pilot,2023.2.3,Win32,59.69436485,652985d179fb620c91ac14a1,6560176e4d91f764e2a42c74,65716d719e2550a2ba47008e,0.0442,0.0442,1,83,245,124,1,sevenfive,,,,,,,,,,,,,,,,,,,,,,,,,,,,,,,,,,,,,,,,,,,,,,,,,,,,,,,,,,,,,,,,,,,,,,,,,,,,,,,,,,,,,,,,,,,,,,,,,,,,,,,,,,,,,,,,,,,,,,,,,,,,,,,,,,,,,,,
,,652985d179fb620c91ac14a1,2023-12-07_08h02.22.429,kallum_motion_pilot,2023.2.3,Win32,59.69436485,652985d179fb620c91ac14a1,6560176e4d91f764e2a42c74,65716d719e2550a2ba47008e,0.0443,0.0443,1,84,246,47,1,fourthree,,,,,,,,,,,,,,,,,,,,,,,,,,,,,,,,,,,,,,,,,,,,,,,,,,,,,,,,,,,,,,,,,,,,,,,,,,,,,,,,,,,,,,,,,,,,,,,,,,,,,,,,,,,,,,,,,,,,,,,,,,,,,,,,,,,,,,,
,,652985d179fb620c91ac14a1,2023-12-07_08h02.22.429,kallum_motion_pilot,2023.2.3,Win32,59.69436485,652985d179fb620c91ac14a1,6560176e4d91f764e2a42c74,65716d719e2550a2ba47008e,0.0443,0.0444,1,85,247,55,1,fourthree,,,,,,,,,,,,,,,,,,,,,,,,,,,,,,,,,,,,,,,,,,,,,,,,,,,,,,,,,,,,,,,,,,,,,,,,,,,,,,,,,,,,,,,,,,,,,,,,,,,,,,,,,,,,,,,,,,,,,,,,,,,,,,,,,,,,,,,
,,652985d179fb620c91ac14a1,2023-12-07_08h02.22.429,kallum_motion_pilot,2023.2.3,Win32,59.69436485,652985d179fb620c91ac14a1,6560176e4d91f764e2a42c74,65716d719e2550a2ba47008e,0.0445,0.0445,1,86,248,28,1,threeone,,,,,,,,,,,,,,,,,,,,,,,,,,,,,,,,,,,,,,,,,,,,,,,,,,,,,,,,,,,,,,,,,,,,,,,,,,,,,,,,,,,,,,,,,,,,,,,,,,,,,,,,,,,,,,,,,,,,,,,,,,,,,,,,,,,,,,,
,,652985d179fb620c91ac14a1,2023-12-07_08h02.22.429,kallum_motion_pilot,2023.2.3,Win32,59.69436485,652985d179fb620c91ac14a1,6560176e4d91f764e2a42c74,65716d719e2550a2ba47008e,0.0446,0.0447,1,87,249,22,1,fourtwo,,,,,,,,,,,,,,,,,,,,,,,,,,,,,,,,,,,,,,,,,,,,,,,,,,,,,,,,,,,,,,,,,,,,,,,,,,,,,,,,,,,,,,,,,,,,,,,,,,,,,,,,,,,,,,,,,,,,,,,,,,,,,,,,,,,,,,,
,,652985d179fb620c91ac14a1,2023-12-07_08h02.22.429,kallum_motion_pilot,2023.2.3,Win32,59.69436485,652985d179fb620c91ac14a1,6560176e4d91f764e2a42c74,65716d719e2550a2ba47008e,0.0447,0.0447,1,88,250,129,1,fiveseven,,,,,,,,,,,,,,,,,,,,,,,,,,,,,,,,,,,,,,,,,,,,,,,,,,,,,,,,,,,,,,,,,,,,,,,,,,,,,,,,,,,,,,,,,,,,,,,,,,,,,,,,,,,,,,,,,,,,,,,,,,,,,,,,,,,,,,,
,,652985d179fb620c91ac14a1,2023-12-07_08h02.22.429,kallum_motion_pilot,2023.2.3,Win32,59.69436485,652985d179fb620c91ac14a1,6560176e4d91f764e2a42c74,65716d719e2550a2ba47008e,0.0448,0.0449,1,89,251,103,1,eightseven,,,,,,,,,,,,,,,,,,,,,,,,,,,,,,,,,,,,,,,,,,,,,,,,,,,,,,,,,,,,,,,,,,,,,,,,,,,,,,,,,,,,,,,,,,,,,,,,,,,,,,,,,,,,,,,,,,,,,,,,,,,,,,,,,,,,,,,
,,652985d179fb620c91ac14a1,2023-12-07_08h02.22.429,kallum_motion_pilot,2023.2.3,Win32,59.69436485,652985d179fb620c91ac14a1,6560176e4d91f764e2a42c74,65716d719e2550a2ba47008e,0.0449,0.045,1,90,252,137,1,fiveseven,,,,,,,,,,,,,,,,,,,,,,,,,,,,,,,,,,,,,,,,,,,,,,,,,,,,,,,,,,,,,,,,,,,,,,,,,,,,,,,,,,,,,,,,,,,,,,,,,,,,,,,,,,,,,,,,,,,,,,,,,,,,,,,,,,,,,,,
,,652985d179fb620c91ac14a1,2023-12-07_08h02.22.429,kallum_motion_pilot,2023.2.3,Win32,59.69436485,652985d179fb620c91ac14a1,6560176e4d91f764e2a42c74,65716d719e2550a2ba47008e,0.045,0.0452,1,91,253,37,1,threefour,,,,,,,,,,,,,,,,,,,,,,,,,,,,,,,,,,,,,,,,,,,,,,,,,,,,,,,,,,,,,,,,,,,,,,,,,,,,,,,,,,,,,,,,,,,,,,,,,,,,,,,,,,,,,,,,,,,,,,,,,,,,,,,,,,,,,,,
,,652985d179fb620c91ac14a1,2023-12-07_08h02.22.429,kallum_motion_pilot,2023.2.3,Win32,59.69436485,652985d179fb620c91ac14a1,6560176e4d91f764e2a42c74,65716d719e2550a2ba47008e,0.0452,0.0452,1,92,254,41,1,onethree,,,,,,,,,,,,,,,,,,,,,,,,,,,,,,,,,,,,,,,,,,,,,,,,,,,,,,,,,,,,,,,,,,,,,,,,,,,,,,,,,,,,,,,,,,,,,,,,,,,,,,,,,,,,,,,,,,,,,,,,,,,,,,,,,,,,,,,
,,652985d179fb620c91ac14a1,2023-12-07_08h02.22.429,kallum_motion_pilot,2023.2.3,Win32,59.69436485,652985d179fb620c91ac14a1,6560176e4d91f764e2a42c74,65716d719e2550a2ba47008e,0.0454,0.0454,1,93,255,13,1,threefour,,,,,,,,,,,,,,,,,,,,,,,,,,,,,,,,,,,,,,,,,,,,,,,,,,,,,,,,,,,,,,,,,,,,,,,,,,,,,,,,,,,,,,,,,,,,,,,,,,,,,,,,,,,,,,,,,,,,,,,,,,,,,,,,,,,,,,,
,,652985d179fb620c91ac14a1,2023-12-07_08h02.22.429,kallum_motion_pilot,2023.2.3,Win32,59.69436485,652985d179fb620c91ac14a1,6560176e4d91f764e2a42c74,65716d719e2550a2ba47008e,0.0455,0.0455,1,94,256,30,1,fourtwo,,,,,,,,,,,,,,,,,,,,,,,,,,,,,,,,,,,,,,,,,,,,,,,,,,,,,,,,,,,,,,,,,,,,,,,,,,,,,,,,,,,,,,,,,,,,,,,,,,,,,,,,,,,,,,,,,,,,,,,,,,,,,,,,,,,,,,,
,,652985d179fb620c91ac14a1,2023-12-07_08h02.22.429,kallum_motion_pilot,2023.2.3,Win32,59.69436485,652985d179fb620c91ac14a1,6560176e4d91f764e2a42c74,65716d719e2550a2ba47008e,0.0456,0.0457,1,95,257,36,1,threeone,,,,,,,,,,,,,,,,,,,,,,,,,,,,,,,,,,,,,,,,,,,,,,,,,,,,,,,,,,,,,,,,,,,,,,,,,,,,,,,,,,,,,,,,,,,,,,,,,,,,,,,,,,,,,,,,,,,,,,,,,,,,,,,,,,,,,,,
,,652985d179fb620c91ac14a1,2023-12-07_08h02.22.429,kallum_motion_pilot,2023.2.3,Win32,59.69436485,652985d179fb620c91ac14a1,6560176e4d91f764e2a42c74,65716d719e2550a2ba47008e,0.0457,0.0458,1,96,258,105,1,fiveseven,,,,,,,,,,,,,,,,,,,,,,,,,,,,,,,,,,,,,,,,,,,,,,,,,,,,,,,,,,,,,,,,,,,,,,,,,,,,,,,,,,,,,,,,,,,,,,,,,,,,,,,,,,,,,,,,,,,,,,,,,,,,,,,,,,,,,,,
,,652985d179fb620c91ac14a1,2023-12-07_08h02.22.429,kallum_motion_pilot,2023.2.3,Win32,59.69436485,652985d179fb620c91ac14a1,6560176e4d91f764e2a42c74,65716d719e2550a2ba47008e,0.0459,0.0459,1,97,259,40,1,onetwo,,,,,,,,,,,,,,,,,,,,,,,,,,,,,,,,,,,,,,,,,,,,,,,,,,,,,,,,,,,,,,,,,,,,,,,,,,,,,,,,,,,,,,,,,,,,,,,,,,,,,,,,,,,,,,,,,,,,,,,,,,,,,,,,,,,,,,,
,,652985d179fb620c91ac14a1,2023-12-07_08h02.22.429,kallum_motion_pilot,2023.2.3,Win32,59.69436485,652985d179fb620c91ac14a1,6560176e4d91f764e2a42c74,65716d719e2550a2ba47008e,0.046,0.046,1,98,260,66,1,twoone,,,,,,,,,,,,,,,,,,,,,,,,,,,,,,,,,,,,,,,,,,,,,,,,,,,,,,,,,,,,,,,,,,,,,,,,,,,,,,,,,,,,,,,,,,,,,,,,,,,,,,,,,,,,,,,,,,,,,,,,,,,,,,,,,,,,,,,
,,652985d179fb620c91ac14a1,2023-12-07_08h02.22.429,kallum_motion_pilot,2023.2.3,Win32,59.69436485,652985d179fb620c91ac14a1,6560176e4d91f764e2a42c74,65716d719e2550a2ba47008e,0.0461,0.0461,1,99,261,51,1,twofour,,,,,,,,,,,,,,,,,,,,,,,,,,,,,,,,,,,,,,,,,,,,,,,,,,,,,,,,,,,,,,,,,,,,,,,,,,,,,,,,,,,,,,,,,,,,,,,,,,,,,,,,,,,,,,,,,,,,,,,,,,,,,,,,,,,,,,,
,,652985d179fb620c91ac14a1,2023-12-07_08h02.22.429,kallum_motion_pilot,2023.2.3,Win32,59.69436485,652985d179fb620c91ac14a1,6560176e4d91f764e2a42c74,65716d719e2550a2ba47008e,0.0462,0.0463,1,100,262,23,1,fourthree,,,,,,,,,,,,,,,,,,,,,,,,,,,,,,,,,,,,,,,,,,,,,,,,,,,,,,,,,,,,,,,,,,,,,,,,,,,,,,,,,,,,,,,,,,,,,,,,,,,,,,,,,,,,,,,,,,,,,,,,,,,,,,,,,,,,,,,
,,652985d179fb620c91ac14a1,2023-12-07_08h02.22.429,kallum_motion_pilot,2023.2.3,Win32,59.69436485,652985d179fb620c91ac14a1,6560176e4d91f764e2a42c74,65716d719e2550a2ba47008e,0.0463,0.0464,1,101,263,100,1,sevenfive,,,,,,,,,,,,,,,,,,,,,,,,,,,,,,,,,,,,,,,,,,,,,,,,,,,,,,,,,,,,,,,,,,,,,,,,,,,,,,,,,,,,,,,,,,,,,,,,,,,,,,,,,,,,,,,,,,,,,,,,,,,,,,,,,,,,,,,
,,652985d179fb620c91ac14a1,2023-12-07_08h02.22.429,kallum_motion_pilot,2023.2.3,Win32,59.69436485,652985d179fb620c91ac14a1,6560176e4d91f764e2a42c74,65716d719e2550a2ba47008e,0.0464,0.0465,1,102,264,148,1,sevenfive,,,,,,,,,,,,,,,,,,,,,,,,,,,,,,,,,,,,,,,,,,,,,,,,,,,,,,,,,,,,,,,,,,,,,,,,,,,,,,,,,,,,,,,,,,,,,,,,,,,,,,,,,,,,,,,,,,,,,,,,,,,,,,,,,,,,,,,
,,652985d179fb620c91ac14a1,2023-12-07_08h02.22.429,kallum_motion_pilot,2023.2.3,Win32,59.69436485,652985d179fb620c91ac14a1,6560176e4d91f764e2a42c74,65716d719e2550a2ba47008e,0.0466,0.0466,1,103,265,6,1,fourtwo,,,,,,,,,,,,,,,,,,,,,,,,,,,,,,,,,,,,,,,,,,,,,,,,,,,,,,,,,,,,,,,,,,,,,,,,,,,,,,,,,,,,,,,,,,,,,,,,,,,,,,,,,,,,,,,,,,,,,,,,,,,,,,,,,,,,,,,
,,652985d179fb620c91ac14a1,2023-12-07_08h02.22.429,kallum_motion_pilot,2023.2.3,Win32,59.69436485,652985d179fb620c91ac14a1,6560176e4d91f764e2a42c74,65716d719e2550a2ba47008e,0.0467,0.0467,1,104,266,131,1,sixeight,,,,,,,,,,,,,,,,,,,,,,,,,,,,,,,,,,,,,,,,,,,,,,,,,,,,,,,,,,,,,,,,,,,,,,,,,,,,,,,,,,,,,,,,,,,,,,,,,,,,,,,,,,,,,,,,,,,,,,,,,,,,,,,,,,,,,,,
,,652985d179fb620c91ac14a1,2023-12-07_08h02.22.429,kallum_motion_pilot,2023.2.3,Win32,59.69436485,652985d179fb620c91ac14a1,6560176e4d91f764e2a42c74,65716d719e2550a2ba47008e,0.0468,0.0469,1,105,267,132,1,sevenfive,,,,,,,,,,,,,,,,,,,,,,,,,,,,,,,,,,,,,,,,,,,,,,,,,,,,,,,,,,,,,,,,,,,,,,,,,,,,,,,,,,,,,,,,,,,,,,,,,,,,,,,,,,,,,,,,,,,,,,,,,,,,,,,,,,,,,,,
,,652985d179fb620c91ac14a1,2023-12-07_08h02.22.429,kallum_motion_pilot,2023.2.3,Win32,59.69436485,652985d179fb620c91ac14a1,6560176e4d91f764e2a42c74,65716d719e2550a2ba47008e,0.0469,0.047,1,106,268,82,1,sixfive,,,,,,,,,,,,,,,,,,,,,,,,,,,,,,,,,,,,,,,,,,,,,,,,,,,,,,,,,,,,,,,,,,,,,,,,,,,,,,,,,,,,,,,,,,,,,,,,,,,,,,,,,,,,,,,,,,,,,,,,,,,,,,,,,,,,,,,
,,652985d179fb620c91ac14a1,2023-12-07_08h02.22.429,kallum_motion_pilot,2023.2.3,Win32,59.69436485,652985d179fb620c91ac14a1,6560176e4d91f764e2a42c74,65716d719e2550a2ba47008e,0.047,0.0471,1,107,269,125,1,seveneight,,,,,,,,,,,,,,,,,,,,,,,,,,,,,,,,,,,,,,,,,,,,,,,,,,,,,,,,,,,,,,,,,,,,,,,,,,,,,,,,,,,,,,,,,,,,,,,,,,,,,,,,,,,,,,,,,,,,,,,,,,,,,,,,,,,,,,,
,,652985d179fb620c91ac14a1,2023-12-07_08h02.22.429,kallum_motion_pilot,2023.2.3,Win32,59.69436485,652985d179fb620c91ac14a1,6560176e4d91f764e2a42c74,65716d719e2550a2ba47008e,0.0471,0.0471,1,108,270,134,1,eightsix,,,,,,,,,,,,,,,,,,,,,,,,,,,,,,,,,,,,,,,,,,,,,,,,,,,,,,,,,,,,,,,,,,,,,,,,,,,,,,,,,,,,,,,,,,,,,,,,,,,,,,,,,,,,,,,,,,,,,,,,,,,,,,,,,,,,,,,
,,652985d179fb620c91ac14a1,2023-12-07_08h02.22.429,kallum_motion_pilot,2023.2.3,Win32,59.69436485,652985d179fb620c91ac14a1,6560176e4d91f764e2a42c74,65716d719e2550a2ba47008e,0.0472,0.0473,1,109,271,80,1,fivesix,,,,,,,,,,,,,,,,,,,,,,,,,,,,,,,,,,,,,,,,,,,,,,,,,,,,,,,,,,,,,,,,,,,,,,,,,,,,,,,,,,,,,,,,,,,,,,,,,,,,,,,,,,,,,,,,,,,,,,,,,,,,,,,,,,,,,,,
,,652985d179fb620c91ac14a1,2023-12-07_08h02.22.429,kallum_motion_pilot,2023.2.3,Win32,59.69436485,652985d179fb620c91ac14a1,6560176e4d91f764e2a42c74,65716d719e2550a2ba47008e,0.0473,0.0475,1,110,272,88,1,fivesix,,,,,,,,,,,,,,,,,,,,,,,,,,,,,,,,,,,,,,,,,,,,,,,,,,,,,,,,,,,,,,,,,,,,,,,,,,,,,,,,,,,,,,,,,,,,,,,,,,,,,,,,,,,,,,,,,,,,,,,,,,,,,,,,,,,,,,,
,,652985d179fb620c91ac14a1,2023-12-07_08h02.22.429,kallum_motion_pilot,2023.2.3,Win32,59.69436485,652985d179fb620c91ac14a1,6560176e4d91f764e2a42c74,65716d719e2550a2ba47008e,0.0475,0.0475,1,111,273,115,1,sixeight,,,,,,,,,,,,,,,,,,,,,,,,,,,,,,,,,,,,,,,,,,,,,,,,,,,,,,,,,,,,,,,,,,,,,,,,,,,,,,,,,,,,,,,,,,,,,,,,,,,,,,,,,,,,,,,,,,,,,,,,,,,,,,,,,,,,,,,
,,652985d179fb620c91ac14a1,2023-12-07_08h02.22.429,kallum_motion_pilot,2023.2.3,Win32,59.69436485,652985d179fb620c91ac14a1,6560176e4d91f764e2a42c74,65716d719e2550a2ba47008e,0.0476,0.0476,1,112,274,8,1,onetwo,,,,,,,,,,,,,,,,,,,,,,,,,,,,,,,,,,,,,,,,,,,,,,,,,,,,,,,,,,,,,,,,,,,,,,,,,,,,,,,,,,,,,,,,,,,,,,,,,,,,,,,,,,,,,,,,,,,,,,,,,,,,,,,,,,,,,,,
,,652985d179fb620c91ac14a1,2023-12-07_08h02.22.429,kallum_motion_pilot,2023.2.3,Win32,59.69436485,652985d179fb620c91ac14a1,6560176e4d91f764e2a42c74,65716d719e2550a2ba47008e,0.0477,0.0478,1,113,275,46,1,fourtwo,,,,,,,,,,,,,,,,,,,,,,,,,,,,,,,,,,,,,,,,,,,,,,,,,,,,,,,,,,,,,,,,,,,,,,,,,,,,,,,,,,,,,,,,,,,,,,,,,,,,,,,,,,,,,,,,,,,,,,,,,,,,,,,,,,,,,,,
,,652985d179fb620c91ac14a1,2023-12-07_08h02.22.429,kallum_motion_pilot,2023.2.3,Win32,59.69436485,652985d179fb620c91ac14a1,6560176e4d91f764e2a42c74,65716d719e2550a2ba47008e,0.0479,0.0479,1,114,276,89,1,fiveseven,,,,,,,,,,,,,,,,,,,,,,,,,,,,,,,,,,,,,,,,,,,,,,,,,,,,,,,,,,,,,,,,,,,,,,,,,,,,,,,,,,,,,,,,,,,,,,,,,,,,,,,,,,,,,,,,,,,,,,,,,,,,,,,,,,,,,,,
,,652985d179fb620c91ac14a1,2023-12-07_08h02.22.429,kallum_motion_pilot,2023.2.3,Win32,59.69436485,652985d179fb620c91ac14a1,6560176e4d91f764e2a42c74,65716d719e2550a2ba47008e,0.0479,0.048,1,115,277,146,1,sixfive,,,,,,,,,,,,,,,,,,,,,,,,,,,,,,,,,,,,,,,,,,,,,,,,,,,,,,,,,,,,,,,,,,,,,,,,,,,,,,,,,,,,,,,,,,,,,,,,,,,,,,,,,,,,,,,,,,,,,,,,,,,,,,,,,,,,,,,
,,652985d179fb620c91ac14a1,2023-12-07_08h02.22.429,kallum_motion_pilot,2023.2.3,Win32,59.69436485,652985d179fb620c91ac14a1,6560176e4d91f764e2a42c74,65716d719e2550a2ba47008e,0.048,0.0481,1,116,278,142,1,eightsix,,,,,,,,,,,,,,,,,,,,,,,,,,,,,,,,,,,,,,,,,,,,,,,,,,,,,,,,,,,,,,,,,,,,,,,,,,,,,,,,,,,,,,,,,,,,,,,,,,,,,,,,,,,,,,,,,,,,,,,,,,,,,,,,,,,,,,,
,,652985d179fb620c91ac14a1,2023-12-07_08h02.22.429,kallum_motion_pilot,2023.2.3,Win32,59.69436485,652985d179fb620c91ac14a1,6560176e4d91f764e2a42c74,65716d719e2550a2ba47008e,0.0482,0.0482,1,117,279,122,1,sixfive,,,,,,,,,,,,,,,,,,,,,,,,,,,,,,,,,,,,,,,,,,,,,,,,,,,,,,,,,,,,,,,,,,,,,,,,,,,,,,,,,,,,,,,,,,,,,,,,,,,,,,,,,,,,,,,,,,,,,,,,,,,,,,,,,,,,,,,
