startup.started,startup.stopped,Prolific ID*,date,expName,psychopyVersion,OS,frameRate,participant,study_id,session,stimpositions.started,stimpositions.stopped,hardcoded_stimulus_positions.thisRepN,hardcoded_stimulus_positions.thisTrialN,hardcoded_stimulus_positions.thisN,hardcoded_stimulus_positions.thisIndex,hardcoded_stimulus_positions.ran,StimulusPos,stimorientation.started,stimorientation.stopped,prac_stimorientation_import_loop.thisRepN,prac_stimorientation_import_loop.thisTrialN,prac_stimorientation_import_loop.thisN,prac_stimorientation_import_loop.thisIndex,prac_stimorientation_import_loop.ran,Stimorientation,welcome_instr.started,welcome_instr.stopped,key_resp.keys,key_resp.rt,key_resp.duration,response_steppedout_1.started,response_steppedout_1.stopped,key_resp_20.keys,key_resp_20.rt,key_resp_20.duration,response_steppedout_2.started,response_steppedout_2.stopped,key_resp_19.keys,key_resp_19.rt,key_resp_19.duration,stim_response_instr.started,stim_response_instr.stopped,key_resp_15.keys,key_resp_15.rt,key_resp_15.duration,direction_instr_2.started,direction_instr_2.stopped,key_resp_9.keys,key_resp_9.rt,key_resp_9.duration,instr_prac.started,instr_prac.stopped,key_resp_10.keys,key_resp_10.rt,key_resp_10.duration,Stim1_display_prac.started,Stim1_display_prac.stopped,Ecc,Circle1_ori,Circle2_ori,response_prac.started,similarity,response_time,response_prac.stopped,mouse_5.x,mouse_5.y,mouse_5.leftButton,mouse_5.midButton,mouse_5.rightButton,mouse_5.clicked_name,responseprac_feedback.started,responseprac_feedback.stopped,summary2_prac.started,summary2_prac.stopped,mouse_6.x,mouse_6.y,mouse_6.leftButton,mouse_6.midButton,mouse_6.rightButton,mouse_6.clicked_name,duringprac.thisRepN,duringprac.thisTrialN,duringprac.thisN,duringprac.thisIndex,duringprac.ran,begin.started,begin.stopped,key_resp_22.keys,key_resp_22.rt,key_resp_22.duration,Stim1_display.started,Stim1_display.stopped,circle1_ori,circle2_ori,blank.started,blank.stopped,response.started,response.stopped,mouse.x,mouse.y,mouse.leftButton,mouse.midButton,mouse.rightButton,mouse.clicked_name,response_2.started,response_2.stopped,mouse_2.x,mouse_2.y,mouse_2.leftButton,mouse_2.midButton,mouse_2.rightButton,mouse_2.clicked_name,special_trial.started,special_trial.stopped,catch_1.started,catch_1.stopped,mouse_3.x,mouse_3.y,mouse_3.leftButton,mouse_3.midButton,mouse_3.rightButton,catchresponse,catchnumber,response_time_catch,Catch,response_sum.started,response_sum.stopped,mouse_11.x,mouse_11.y,mouse_11.leftButton,mouse_11.midButton,mouse_11.rightButton,main_trial.thisRepN,main_trial.thisTrialN,main_trial.thisN,main_trial.thisIndex,main_trial.ran,Orientationtrialno,xcircle1_ori,xcircle2_ori,flip_presentation_sequence_for_double_pass.started,flip_presentation_sequence_for_double_pass.stopped,double_pass.thisRepN,double_pass.thisTrialN,double_pass.thisN,double_pass.thisIndex,double_pass.ran,goodbye.started,goodbye.stopped,key_resp_3.keys,key_resp_3.rt,key_resp_3.duration
0.0005,0.0007,65414690ff22af1e0e59a54d,2023-12-06_22h33.45.579,kallum_motion_pilot,2023.2.3,Win32,60.0276127,65414690ff22af1e0e59a54d,6560176e4d91f764e2a42c74,657158768340dfc74274b66c,,,,,,,,,,,,,,,,,,,,,,,,,,,,,,,,,,,,,,,,,,,,,,,,,,,,,,,,,,,,,,,,,,,,,,,,,,,,,,,,,,,,,,,,,,,,,,,,,,,,,,,,,,,,,,,,,,,,,,,,,,,,,,,,,,,,,,,,,,,,,,,
,,65414690ff22af1e0e59a54d,2023-12-06_22h33.45.579,kallum_motion_pilot,2023.2.3,Win32,60.0276127,65414690ff22af1e0e59a54d,6560176e4d91f764e2a42c74,657158768340dfc74274b66c,0.0544,0.0547,0,0,0,19,1,twofour,,,,,,,,,,,,,,,,,,,,,,,,,,,,,,,,,,,,,,,,,,,,,,,,,,,,,,,,,,,,,,,,,,,,,,,,,,,,,,,,,,,,,,,,,,,,,,,,,,,,,,,,,,,,,,,,,,,,,,,,,,,,,,,,,,,,,,,
,,65414690ff22af1e0e59a54d,2023-12-06_22h33.45.579,kallum_motion_pilot,2023.2.3,Win32,60.0276127,65414690ff22af1e0e59a54d,6560176e4d91f764e2a42c74,657158768340dfc74274b66c,0.0553,0.0554,0,1,1,126,1,eightsix,,,,,,,,,,,,,,,,,,,,,,,,,,,,,,,,,,,,,,,,,,,,,,,,,,,,,,,,,,,,,,,,,,,,,,,,,,,,,,,,,,,,,,,,,,,,,,,,,,,,,,,,,,,,,,,,,,,,,,,,,,,,,,,,,,,,,,,
,,65414690ff22af1e0e59a54d,2023-12-06_22h33.45.579,kallum_motion_pilot,2023.2.3,Win32,60.0276127,65414690ff22af1e0e59a54d,6560176e4d91f764e2a42c74,657158768340dfc74274b66c,0.0559,0.0561,0,2,2,70,1,fourtwo,,,,,,,,,,,,,,,,,,,,,,,,,,,,,,,,,,,,,,,,,,,,,,,,,,,,,,,,,,,,,,,,,,,,,,,,,,,,,,,,,,,,,,,,,,,,,,,,,,,,,,,,,,,,,,,,,,,,,,,,,,,,,,,,,,,,,,,
,,65414690ff22af1e0e59a54d,2023-12-06_22h33.45.579,kallum_motion_pilot,2023.2.3,Win32,60.0276127,65414690ff22af1e0e59a54d,6560176e4d91f764e2a42c74,657158768340dfc74274b66c,0.0565,0.0566,0,3,3,24,1,onetwo,,,,,,,,,,,,,,,,,,,,,,,,,,,,,,,,,,,,,,,,,,,,,,,,,,,,,,,,,,,,,,,,,,,,,,,,,,,,,,,,,,,,,,,,,,,,,,,,,,,,,,,,,,,,,,,,,,,,,,,,,,,,,,,,,,,,,,,
,,65414690ff22af1e0e59a54d,2023-12-06_22h33.45.579,kallum_motion_pilot,2023.2.3,Win32,60.0276127,65414690ff22af1e0e59a54d,6560176e4d91f764e2a42c74,657158768340dfc74274b66c,0.0569,0.0569,0,4,4,23,1,fourthree,,,,,,,,,,,,,,,,,,,,,,,,,,,,,,,,,,,,,,,,,,,,,,,,,,,,,,,,,,,,,,,,,,,,,,,,,,,,,,,,,,,,,,,,,,,,,,,,,,,,,,,,,,,,,,,,,,,,,,,,,,,,,,,,,,,,,,,
,,65414690ff22af1e0e59a54d,2023-12-06_22h33.45.579,kallum_motion_pilot,2023.2.3,Win32,60.0276127,65414690ff22af1e0e59a54d,6560176e4d91f764e2a42c74,657158768340dfc74274b66c,0.0573,0.0573,0,5,5,28,1,threeone,,,,,,,,,,,,,,,,,,,,,,,,,,,,,,,,,,,,,,,,,,,,,,,,,,,,,,,,,,,,,,,,,,,,,,,,,,,,,,,,,,,,,,,,,,,,,,,,,,,,,,,,,,,,,,,,,,,,,,,,,,,,,,,,,,,,,,,
,,65414690ff22af1e0e59a54d,2023-12-06_22h33.45.579,kallum_motion_pilot,2023.2.3,Win32,60.0276127,65414690ff22af1e0e59a54d,6560176e4d91f764e2a42c74,657158768340dfc74274b66c,0.0575,0.0576,0,6,6,59,1,twofour,,,,,,,,,,,,,,,,,,,,,,,,,,,,,,,,,,,,,,,,,,,,,,,,,,,,,,,,,,,,,,,,,,,,,,,,,,,,,,,,,,,,,,,,,,,,,,,,,,,,,,,,,,,,,,,,,,,,,,,,,,,,,,,,,,,,,,,
,,65414690ff22af1e0e59a54d,2023-12-06_22h33.45.579,kallum_motion_pilot,2023.2.3,Win32,60.0276127,65414690ff22af1e0e59a54d,6560176e4d91f764e2a42c74,657158768340dfc74274b66c,0.0578,0.0579,0,7,7,80,1,fivesix,,,,,,,,,,,,,,,,,,,,,,,,,,,,,,,,,,,,,,,,,,,,,,,,,,,,,,,,,,,,,,,,,,,,,,,,,,,,,,,,,,,,,,,,,,,,,,,,,,,,,,,,,,,,,,,,,,,,,,,,,,,,,,,,,,,,,,,
,,65414690ff22af1e0e59a54d,2023-12-06_22h33.45.579,kallum_motion_pilot,2023.2.3,Win32,60.0276127,65414690ff22af1e0e59a54d,6560176e4d91f764e2a42c74,657158768340dfc74274b66c,0.0581,0.0582,0,8,8,21,1,threefour,,,,,,,,,,,,,,,,,,,,,,,,,,,,,,,,,,,,,,,,,,,,,,,,,,,,,,,,,,,,,,,,,,,,,,,,,,,,,,,,,,,,,,,,,,,,,,,,,,,,,,,,,,,,,,,,,,,,,,,,,,,,,,,,,,,,,,,
,,65414690ff22af1e0e59a54d,2023-12-06_22h33.45.579,kallum_motion_pilot,2023.2.3,Win32,60.0276127,65414690ff22af1e0e59a54d,6560176e4d91f764e2a42c74,657158768340dfc74274b66c,0.0585,0.0586,0,9,9,136,1,fivesix,,,,,,,,,,,,,,,,,,,,,,,,,,,,,,,,,,,,,,,,,,,,,,,,,,,,,,,,,,,,,,,,,,,,,,,,,,,,,,,,,,,,,,,,,,,,,,,,,,,,,,,,,,,,,,,,,,,,,,,,,,,,,,,,,,,,,,,
,,65414690ff22af1e0e59a54d,2023-12-06_22h33.45.579,kallum_motion_pilot,2023.2.3,Win32,60.0276127,65414690ff22af1e0e59a54d,6560176e4d91f764e2a42c74,657158768340dfc74274b66c,0.0587,0.0588,0,10,10,86,1,eightsix,,,,,,,,,,,,,,,,,,,,,,,,,,,,,,,,,,,,,,,,,,,,,,,,,,,,,,,,,,,,,,,,,,,,,,,,,,,,,,,,,,,,,,,,,,,,,,,,,,,,,,,,,,,,,,,,,,,,,,,,,,,,,,,,,,,,,,,
,,65414690ff22af1e0e59a54d,2023-12-06_22h33.45.579,kallum_motion_pilot,2023.2.3,Win32,60.0276127,65414690ff22af1e0e59a54d,6560176e4d91f764e2a42c74,657158768340dfc74274b66c,0.059,0.059,0,11,11,97,1,fiveseven,,,,,,,,,,,,,,,,,,,,,,,,,,,,,,,,,,,,,,,,,,,,,,,,,,,,,,,,,,,,,,,,,,,,,,,,,,,,,,,,,,,,,,,,,,,,,,,,,,,,,,,,,,,,,,,,,,,,,,,,,,,,,,,,,,,,,,,
,,65414690ff22af1e0e59a54d,2023-12-06_22h33.45.579,kallum_motion_pilot,2023.2.3,Win32,60.0276127,65414690ff22af1e0e59a54d,6560176e4d91f764e2a42c74,657158768340dfc74274b66c,0.0593,0.0593,0,12,12,155,1,sixeight,,,,,,,,,,,,,,,,,,,,,,,,,,,,,,,,,,,,,,,,,,,,,,,,,,,,,,,,,,,,,,,,,,,,,,,,,,,,,,,,,,,,,,,,,,,,,,,,,,,,,,,,,,,,,,,,,,,,,,,,,,,,,,,,,,,,,,,
,,65414690ff22af1e0e59a54d,2023-12-06_22h33.45.579,kallum_motion_pilot,2023.2.3,Win32,60.0276127,65414690ff22af1e0e59a54d,6560176e4d91f764e2a42c74,657158768340dfc74274b66c,0.0595,0.0595,0,13,13,9,1,onethree,,,,,,,,,,,,,,,,,,,,,,,,,,,,,,,,,,,,,,,,,,,,,,,,,,,,,,,,,,,,,,,,,,,,,,,,,,,,,,,,,,,,,,,,,,,,,,,,,,,,,,,,,,,,,,,,,,,,,,,,,,,,,,,,,,,,,,,
,,65414690ff22af1e0e59a54d,2023-12-06_22h33.45.579,kallum_motion_pilot,2023.2.3,Win32,60.0276127,65414690ff22af1e0e59a54d,6560176e4d91f764e2a42c74,657158768340dfc74274b66c,0.0597,0.0598,0,14,14,114,1,sixfive,,,,,,,,,,,,,,,,,,,,,,,,,,,,,,,,,,,,,,,,,,,,,,,,,,,,,,,,,,,,,,,,,,,,,,,,,,,,,,,,,,,,,,,,,,,,,,,,,,,,,,,,,,,,,,,,,,,,,,,,,,,,,,,,,,,,,,,
,,65414690ff22af1e0e59a54d,2023-12-06_22h33.45.579,kallum_motion_pilot,2023.2.3,Win32,60.0276127,65414690ff22af1e0e59a54d,6560176e4d91f764e2a42c74,657158768340dfc74274b66c,0.06,0.06,0,15,15,35,1,twofour,,,,,,,,,,,,,,,,,,,,,,,,,,,,,,,,,,,,,,,,,,,,,,,,,,,,,,,,,,,,,,,,,,,,,,,,,,,,,,,,,,,,,,,,,,,,,,,,,,,,,,,,,,,,,,,,,,,,,,,,,,,,,,,,,,,,,,,
,,65414690ff22af1e0e59a54d,2023-12-06_22h33.45.579,kallum_motion_pilot,2023.2.3,Win32,60.0276127,65414690ff22af1e0e59a54d,6560176e4d91f764e2a42c74,657158768340dfc74274b66c,0.0602,0.0603,0,16,16,122,1,sixfive,,,,,,,,,,,,,,,,,,,,,,,,,,,,,,,,,,,,,,,,,,,,,,,,,,,,,,,,,,,,,,,,,,,,,,,,,,,,,,,,,,,,,,,,,,,,,,,,,,,,,,,,,,,,,,,,,,,,,,,,,,,,,,,,,,,,,,,
,,65414690ff22af1e0e59a54d,2023-12-06_22h33.45.579,kallum_motion_pilot,2023.2.3,Win32,60.0276127,65414690ff22af1e0e59a54d,6560176e4d91f764e2a42c74,657158768340dfc74274b66c,0.0605,0.0605,0,17,17,4,1,threeone,,,,,,,,,,,,,,,,,,,,,,,,,,,,,,,,,,,,,,,,,,,,,,,,,,,,,,,,,,,,,,,,,,,,,,,,,,,,,,,,,,,,,,,,,,,,,,,,,,,,,,,,,,,,,,,,,,,,,,,,,,,,,,,,,,,,,,,
,,65414690ff22af1e0e59a54d,2023-12-06_22h33.45.579,kallum_motion_pilot,2023.2.3,Win32,60.0276127,65414690ff22af1e0e59a54d,6560176e4d91f764e2a42c74,657158768340dfc74274b66c,0.0607,0.0607,0,18,18,149,1,seveneight,,,,,,,,,,,,,,,,,,,,,,,,,,,,,,,,,,,,,,,,,,,,,,,,,,,,,,,,,,,,,,,,,,,,,,,,,,,,,,,,,,,,,,,,,,,,,,,,,,,,,,,,,,,,,,,,,,,,,,,,,,,,,,,,,,,,,,,
,,65414690ff22af1e0e59a54d,2023-12-06_22h33.45.579,kallum_motion_pilot,2023.2.3,Win32,60.0276127,65414690ff22af1e0e59a54d,6560176e4d91f764e2a42c74,657158768340dfc74274b66c,0.0609,0.061,0,19,19,53,1,threefour,,,,,,,,,,,,,,,,,,,,,,,,,,,,,,,,,,,,,,,,,,,,,,,,,,,,,,,,,,,,,,,,,,,,,,,,,,,,,,,,,,,,,,,,,,,,,,,,,,,,,,,,,,,,,,,,,,,,,,,,,,,,,,,,,,,,,,,
,,65414690ff22af1e0e59a54d,2023-12-06_22h33.45.579,kallum_motion_pilot,2023.2.3,Win32,60.0276127,65414690ff22af1e0e59a54d,6560176e4d91f764e2a42c74,657158768340dfc74274b66c,0.0611,0.0612,0,20,20,113,1,fiveseven,,,,,,,,,,,,,,,,,,,,,,,,,,,,,,,,,,,,,,,,,,,,,,,,,,,,,,,,,,,,,,,,,,,,,,,,,,,,,,,,,,,,,,,,,,,,,,,,,,,,,,,,,,,,,,,,,,,,,,,,,,,,,,,,,,,,,,,
,,65414690ff22af1e0e59a54d,2023-12-06_22h33.45.579,kallum_motion_pilot,2023.2.3,Win32,60.0276127,65414690ff22af1e0e59a54d,6560176e4d91f764e2a42c74,657158768340dfc74274b66c,0.0613,0.0615,0,21,21,34,1,twoone,,,,,,,,,,,,,,,,,,,,,,,,,,,,,,,,,,,,,,,,,,,,,,,,,,,,,,,,,,,,,,,,,,,,,,,,,,,,,,,,,,,,,,,,,,,,,,,,,,,,,,,,,,,,,,,,,,,,,,,,,,,,,,,,,,,,,,,
,,65414690ff22af1e0e59a54d,2023-12-06_22h33.45.579,kallum_motion_pilot,2023.2.3,Win32,60.0276127,65414690ff22af1e0e59a54d,6560176e4d91f764e2a42c74,657158768340dfc74274b66c,0.0616,0.0617,0,22,22,67,1,twofour,,,,,,,,,,,,,,,,,,,,,,,,,,,,,,,,,,,,,,,,,,,,,,,,,,,,,,,,,,,,,,,,,,,,,,,,,,,,,,,,,,,,,,,,,,,,,,,,,,,,,,,,,,,,,,,,,,,,,,,,,,,,,,,,,,,,,,,
,,65414690ff22af1e0e59a54d,2023-12-06_22h33.45.579,kallum_motion_pilot,2023.2.3,Win32,60.0276127,65414690ff22af1e0e59a54d,6560176e4d91f764e2a42c74,657158768340dfc74274b66c,0.0619,0.0619,0,23,23,46,1,fourtwo,,,,,,,,,,,,,,,,,,,,,,,,,,,,,,,,,,,,,,,,,,,,,,,,,,,,,,,,,,,,,,,,,,,,,,,,,,,,,,,,,,,,,,,,,,,,,,,,,,,,,,,,,,,,,,,,,,,,,,,,,,,,,,,,,,,,,,,
,,65414690ff22af1e0e59a54d,2023-12-06_22h33.45.579,kallum_motion_pilot,2023.2.3,Win32,60.0276127,65414690ff22af1e0e59a54d,6560176e4d91f764e2a42c74,657158768340dfc74274b66c,0.0621,0.0622,0,24,24,85,1,seveneight,,,,,,,,,,,,,,,,,,,,,,,,,,,,,,,,,,,,,,,,,,,,,,,,,,,,,,,,,,,,,,,,,,,,,,,,,,,,,,,,,,,,,,,,,,,,,,,,,,,,,,,,,,,,,,,,,,,,,,,,,,,,,,,,,,,,,,,
,,65414690ff22af1e0e59a54d,2023-12-06_22h33.45.579,kallum_motion_pilot,2023.2.3,Win32,60.0276127,65414690ff22af1e0e59a54d,6560176e4d91f764e2a42c74,657158768340dfc74274b66c,0.0624,0.0625,0,25,25,55,1,fourthree,,,,,,,,,,,,,,,,,,,,,,,,,,,,,,,,,,,,,,,,,,,,,,,,,,,,,,,,,,,,,,,,,,,,,,,,,,,,,,,,,,,,,,,,,,,,,,,,,,,,,,,,,,,,,,,,,,,,,,,,,,,,,,,,,,,,,,,
,,65414690ff22af1e0e59a54d,2023-12-06_22h33.45.579,kallum_motion_pilot,2023.2.3,Win32,60.0276127,65414690ff22af1e0e59a54d,6560176e4d91f764e2a42c74,657158768340dfc74274b66c,0.0627,0.0628,0,26,26,137,1,fiveseven,,,,,,,,,,,,,,,,,,,,,,,,,,,,,,,,,,,,,,,,,,,,,,,,,,,,,,,,,,,,,,,,,,,,,,,,,,,,,,,,,,,,,,,,,,,,,,,,,,,,,,,,,,,,,,,,,,,,,,,,,,,,,,,,,,,,,,,
,,65414690ff22af1e0e59a54d,2023-12-06_22h33.45.579,kallum_motion_pilot,2023.2.3,Win32,60.0276127,65414690ff22af1e0e59a54d,6560176e4d91f764e2a42c74,657158768340dfc74274b66c,0.0629,0.063,0,27,27,1,1,onethree,,,,,,,,,,,,,,,,,,,,,,,,,,,,,,,,,,,,,,,,,,,,,,,,,,,,,,,,,,,,,,,,,,,,,,,,,,,,,,,,,,,,,,,,,,,,,,,,,,,,,,,,,,,,,,,,,,,,,,,,,,,,,,,,,,,,,,,
,,65414690ff22af1e0e59a54d,2023-12-06_22h33.45.579,kallum_motion_pilot,2023.2.3,Win32,60.0276127,65414690ff22af1e0e59a54d,6560176e4d91f764e2a42c74,657158768340dfc74274b66c,0.0632,0.0633,0,28,28,145,1,fiveseven,,,,,,,,,,,,,,,,,,,,,,,,,,,,,,,,,,,,,,,,,,,,,,,,,,,,,,,,,,,,,,,,,,,,,,,,,,,,,,,,,,,,,,,,,,,,,,,,,,,,,,,,,,,,,,,,,,,,,,,,,,,,,,,,,,,,,,,
,,65414690ff22af1e0e59a54d,2023-12-06_22h33.45.579,kallum_motion_pilot,2023.2.3,Win32,60.0276127,65414690ff22af1e0e59a54d,6560176e4d91f764e2a42c74,657158768340dfc74274b66c,0.0636,0.0637,0,29,29,31,1,fourthree,,,,,,,,,,,,,,,,,,,,,,,,,,,,,,,,,,,,,,,,,,,,,,,,,,,,,,,,,,,,,,,,,,,,,,,,,,,,,,,,,,,,,,,,,,,,,,,,,,,,,,,,,,,,,,,,,,,,,,,,,,,,,,,,,,,,,,,
,,65414690ff22af1e0e59a54d,2023-12-06_22h33.45.579,kallum_motion_pilot,2023.2.3,Win32,60.0276127,65414690ff22af1e0e59a54d,6560176e4d91f764e2a42c74,657158768340dfc74274b66c,0.0639,0.064,0,30,30,37,1,threefour,,,,,,,,,,,,,,,,,,,,,,,,,,,,,,,,,,,,,,,,,,,,,,,,,,,,,,,,,,,,,,,,,,,,,,,,,,,,,,,,,,,,,,,,,,,,,,,,,,,,,,,,,,,,,,,,,,,,,,,,,,,,,,,,,,,,,,,
,,65414690ff22af1e0e59a54d,2023-12-06_22h33.45.579,kallum_motion_pilot,2023.2.3,Win32,60.0276127,65414690ff22af1e0e59a54d,6560176e4d91f764e2a42c74,657158768340dfc74274b66c,0.0643,0.0643,0,31,31,81,1,fiveseven,,,,,,,,,,,,,,,,,,,,,,,,,,,,,,,,,,,,,,,,,,,,,,,,,,,,,,,,,,,,,,,,,,,,,,,,,,,,,,,,,,,,,,,,,,,,,,,,,,,,,,,,,,,,,,,,,,,,,,,,,,,,,,,,,,,,,,,
,,65414690ff22af1e0e59a54d,2023-12-06_22h33.45.579,kallum_motion_pilot,2023.2.3,Win32,60.0276127,65414690ff22af1e0e59a54d,6560176e4d91f764e2a42c74,657158768340dfc74274b66c,0.0645,0.0646,0,32,32,107,1,sixeight,,,,,,,,,,,,,,,,,,,,,,,,,,,,,,,,,,,,,,,,,,,,,,,,,,,,,,,,,,,,,,,,,,,,,,,,,,,,,,,,,,,,,,,,,,,,,,,,,,,,,,,,,,,,,,,,,,,,,,,,,,,,,,,,,,,,,,,
,,65414690ff22af1e0e59a54d,2023-12-06_22h33.45.579,kallum_motion_pilot,2023.2.3,Win32,60.0276127,65414690ff22af1e0e59a54d,6560176e4d91f764e2a42c74,657158768340dfc74274b66c,0.0648,0.0648,0,33,33,74,1,twoone,,,,,,,,,,,,,,,,,,,,,,,,,,,,,,,,,,,,,,,,,,,,,,,,,,,,,,,,,,,,,,,,,,,,,,,,,,,,,,,,,,,,,,,,,,,,,,,,,,,,,,,,,,,,,,,,,,,,,,,,,,,,,,,,,,,,,,,
,,65414690ff22af1e0e59a54d,2023-12-06_22h33.45.579,kallum_motion_pilot,2023.2.3,Win32,60.0276127,65414690ff22af1e0e59a54d,6560176e4d91f764e2a42c74,657158768340dfc74274b66c,0.0652,0.0652,0,34,34,160,1,fivesix,,,,,,,,,,,,,,,,,,,,,,,,,,,,,,,,,,,,,,,,,,,,,,,,,,,,,,,,,,,,,,,,,,,,,,,,,,,,,,,,,,,,,,,,,,,,,,,,,,,,,,,,,,,,,,,,,,,,,,,,,,,,,,,,,,,,,,,
,,65414690ff22af1e0e59a54d,2023-12-06_22h33.45.579,kallum_motion_pilot,2023.2.3,Win32,60.0276127,65414690ff22af1e0e59a54d,6560176e4d91f764e2a42c74,657158768340dfc74274b66c,0.0654,0.0655,0,35,35,50,1,twoone,,,,,,,,,,,,,,,,,,,,,,,,,,,,,,,,,,,,,,,,,,,,,,,,,,,,,,,,,,,,,,,,,,,,,,,,,,,,,,,,,,,,,,,,,,,,,,,,,,,,,,,,,,,,,,,,,,,,,,,,,,,,,,,,,,,,,,,
,,65414690ff22af1e0e59a54d,2023-12-06_22h33.45.579,kallum_motion_pilot,2023.2.3,Win32,60.0276127,65414690ff22af1e0e59a54d,6560176e4d91f764e2a42c74,657158768340dfc74274b66c,0.0657,0.0658,0,36,36,22,1,fourtwo,,,,,,,,,,,,,,,,,,,,,,,,,,,,,,,,,,,,,,,,,,,,,,,,,,,,,,,,,,,,,,,,,,,,,,,,,,,,,,,,,,,,,,,,,,,,,,,,,,,,,,,,,,,,,,,,,,,,,,,,,,,,,,,,,,,,,,,
,,65414690ff22af1e0e59a54d,2023-12-06_22h33.45.579,kallum_motion_pilot,2023.2.3,Win32,60.0276127,65414690ff22af1e0e59a54d,6560176e4d91f764e2a42c74,657158768340dfc74274b66c,0.066,0.0661,0,37,37,7,1,fourthree,,,,,,,,,,,,,,,,,,,,,,,,,,,,,,,,,,,,,,,,,,,,,,,,,,,,,,,,,,,,,,,,,,,,,,,,,,,,,,,,,,,,,,,,,,,,,,,,,,,,,,,,,,,,,,,,,,,,,,,,,,,,,,,,,,,,,,,
,,65414690ff22af1e0e59a54d,2023-12-06_22h33.45.579,kallum_motion_pilot,2023.2.3,Win32,60.0276127,65414690ff22af1e0e59a54d,6560176e4d91f764e2a42c74,657158768340dfc74274b66c,0.0662,0.0663,0,38,38,124,1,sevenfive,,,,,,,,,,,,,,,,,,,,,,,,,,,,,,,,,,,,,,,,,,,,,,,,,,,,,,,,,,,,,,,,,,,,,,,,,,,,,,,,,,,,,,,,,,,,,,,,,,,,,,,,,,,,,,,,,,,,,,,,,,,,,,,,,,,,,,,
,,65414690ff22af1e0e59a54d,2023-12-06_22h33.45.579,kallum_motion_pilot,2023.2.3,Win32,60.0276127,65414690ff22af1e0e59a54d,6560176e4d91f764e2a42c74,657158768340dfc74274b66c,0.0666,0.0666,0,39,39,131,1,sixeight,,,,,,,,,,,,,,,,,,,,,,,,,,,,,,,,,,,,,,,,,,,,,,,,,,,,,,,,,,,,,,,,,,,,,,,,,,,,,,,,,,,,,,,,,,,,,,,,,,,,,,,,,,,,,,,,,,,,,,,,,,,,,,,,,,,,,,,
,,65414690ff22af1e0e59a54d,2023-12-06_22h33.45.579,kallum_motion_pilot,2023.2.3,Win32,60.0276127,65414690ff22af1e0e59a54d,6560176e4d91f764e2a42c74,657158768340dfc74274b66c,0.0668,0.0669,0,40,40,115,1,sixeight,,,,,,,,,,,,,,,,,,,,,,,,,,,,,,,,,,,,,,,,,,,,,,,,,,,,,,,,,,,,,,,,,,,,,,,,,,,,,,,,,,,,,,,,,,,,,,,,,,,,,,,,,,,,,,,,,,,,,,,,,,,,,,,,,,,,,,,
,,65414690ff22af1e0e59a54d,2023-12-06_22h33.45.579,kallum_motion_pilot,2023.2.3,Win32,60.0276127,65414690ff22af1e0e59a54d,6560176e4d91f764e2a42c74,657158768340dfc74274b66c,0.0671,0.0672,0,41,41,5,1,threefour,,,,,,,,,,,,,,,,,,,,,,,,,,,,,,,,,,,,,,,,,,,,,,,,,,,,,,,,,,,,,,,,,,,,,,,,,,,,,,,,,,,,,,,,,,,,,,,,,,,,,,,,,,,,,,,,,,,,,,,,,,,,,,,,,,,,,,,
,,65414690ff22af1e0e59a54d,2023-12-06_22h33.45.579,kallum_motion_pilot,2023.2.3,Win32,60.0276127,65414690ff22af1e0e59a54d,6560176e4d91f764e2a42c74,657158768340dfc74274b66c,0.0673,0.0675,0,42,42,141,1,seveneight,,,,,,,,,,,,,,,,,,,,,,,,,,,,,,,,,,,,,,,,,,,,,,,,,,,,,,,,,,,,,,,,,,,,,,,,,,,,,,,,,,,,,,,,,,,,,,,,,,,,,,,,,,,,,,,,,,,,,,,,,,,,,,,,,,,,,,,
,,65414690ff22af1e0e59a54d,2023-12-06_22h33.45.579,kallum_motion_pilot,2023.2.3,Win32,60.0276127,65414690ff22af1e0e59a54d,6560176e4d91f764e2a42c74,657158768340dfc74274b66c,0.0676,0.0677,0,43,43,63,1,fourthree,,,,,,,,,,,,,,,,,,,,,,,,,,,,,,,,,,,,,,,,,,,,,,,,,,,,,,,,,,,,,,,,,,,,,,,,,,,,,,,,,,,,,,,,,,,,,,,,,,,,,,,,,,,,,,,,,,,,,,,,,,,,,,,,,,,,,,,
,,65414690ff22af1e0e59a54d,2023-12-06_22h33.45.579,kallum_motion_pilot,2023.2.3,Win32,60.0276127,65414690ff22af1e0e59a54d,6560176e4d91f764e2a42c74,657158768340dfc74274b66c,0.0679,0.0679,0,44,44,30,1,fourtwo,,,,,,,,,,,,,,,,,,,,,,,,,,,,,,,,,,,,,,,,,,,,,,,,,,,,,,,,,,,,,,,,,,,,,,,,,,,,,,,,,,,,,,,,,,,,,,,,,,,,,,,,,,,,,,,,,,,,,,,,,,,,,,,,,,,,,,,
,,65414690ff22af1e0e59a54d,2023-12-06_22h33.45.579,kallum_motion_pilot,2023.2.3,Win32,60.0276127,65414690ff22af1e0e59a54d,6560176e4d91f764e2a42c74,657158768340dfc74274b66c,0.0684,0.0685,0,45,45,148,1,sevenfive,,,,,,,,,,,,,,,,,,,,,,,,,,,,,,,,,,,,,,,,,,,,,,,,,,,,,,,,,,,,,,,,,,,,,,,,,,,,,,,,,,,,,,,,,,,,,,,,,,,,,,,,,,,,,,,,,,,,,,,,,,,,,,,,,,,,,,,
,,65414690ff22af1e0e59a54d,2023-12-06_22h33.45.579,kallum_motion_pilot,2023.2.3,Win32,60.0276127,65414690ff22af1e0e59a54d,6560176e4d91f764e2a42c74,657158768340dfc74274b66c,0.069,0.0691,0,46,46,92,1,sevenfive,,,,,,,,,,,,,,,,,,,,,,,,,,,,,,,,,,,,,,,,,,,,,,,,,,,,,,,,,,,,,,,,,,,,,,,,,,,,,,,,,,,,,,,,,,,,,,,,,,,,,,,,,,,,,,,,,,,,,,,,,,,,,,,,,,,,,,,
,,65414690ff22af1e0e59a54d,2023-12-06_22h33.45.579,kallum_motion_pilot,2023.2.3,Win32,60.0276127,65414690ff22af1e0e59a54d,6560176e4d91f764e2a42c74,657158768340dfc74274b66c,0.0694,0.0696,0,47,47,138,1,sixfive,,,,,,,,,,,,,,,,,,,,,,,,,,,,,,,,,,,,,,,,,,,,,,,,,,,,,,,,,,,,,,,,,,,,,,,,,,,,,,,,,,,,,,,,,,,,,,,,,,,,,,,,,,,,,,,,,,,,,,,,,,,,,,,,,,,,,,,
,,65414690ff22af1e0e59a54d,2023-12-06_22h33.45.579,kallum_motion_pilot,2023.2.3,Win32,60.0276127,65414690ff22af1e0e59a54d,6560176e4d91f764e2a42c74,657158768340dfc74274b66c,0.0697,0.0698,0,48,48,84,1,sevenfive,,,,,,,,,,,,,,,,,,,,,,,,,,,,,,,,,,,,,,,,,,,,,,,,,,,,,,,,,,,,,,,,,,,,,,,,,,,,,,,,,,,,,,,,,,,,,,,,,,,,,,,,,,,,,,,,,,,,,,,,,,,,,,,,,,,,,,,
,,65414690ff22af1e0e59a54d,2023-12-06_22h33.45.579,kallum_motion_pilot,2023.2.3,Win32,60.0276127,65414690ff22af1e0e59a54d,6560176e4d91f764e2a42c74,657158768340dfc74274b66c,0.0701,0.0714,0,49,49,130,1,sixfive,,,,,,,,,,,,,,,,,,,,,,,,,,,,,,,,,,,,,,,,,,,,,,,,,,,,,,,,,,,,,,,,,,,,,,,,,,,,,,,,,,,,,,,,,,,,,,,,,,,,,,,,,,,,,,,,,,,,,,,,,,,,,,,,,,,,,,,
,,65414690ff22af1e0e59a54d,2023-12-06_22h33.45.579,kallum_motion_pilot,2023.2.3,Win32,60.0276127,65414690ff22af1e0e59a54d,6560176e4d91f764e2a42c74,657158768340dfc74274b66c,0.0717,0.0718,0,50,50,144,1,fivesix,,,,,,,,,,,,,,,,,,,,,,,,,,,,,,,,,,,,,,,,,,,,,,,,,,,,,,,,,,,,,,,,,,,,,,,,,,,,,,,,,,,,,,,,,,,,,,,,,,,,,,,,,,,,,,,,,,,,,,,,,,,,,,,,,,,,,,,
,,65414690ff22af1e0e59a54d,2023-12-06_22h33.45.579,kallum_motion_pilot,2023.2.3,Win32,60.0276127,65414690ff22af1e0e59a54d,6560176e4d91f764e2a42c74,657158768340dfc74274b66c,0.0721,0.0722,0,51,51,106,1,sixfive,,,,,,,,,,,,,,,,,,,,,,,,,,,,,,,,,,,,,,,,,,,,,,,,,,,,,,,,,,,,,,,,,,,,,,,,,,,,,,,,,,,,,,,,,,,,,,,,,,,,,,,,,,,,,,,,,,,,,,,,,,,,,,,,,,,,,,,
,,65414690ff22af1e0e59a54d,2023-12-06_22h33.45.579,kallum_motion_pilot,2023.2.3,Win32,60.0276127,65414690ff22af1e0e59a54d,6560176e4d91f764e2a42c74,657158768340dfc74274b66c,0.0725,0.0726,0,52,52,51,1,twofour,,,,,,,,,,,,,,,,,,,,,,,,,,,,,,,,,,,,,,,,,,,,,,,,,,,,,,,,,,,,,,,,,,,,,,,,,,,,,,,,,,,,,,,,,,,,,,,,,,,,,,,,,,,,,,,,,,,,,,,,,,,,,,,,,,,,,,,
,,65414690ff22af1e0e59a54d,2023-12-06_22h33.45.579,kallum_motion_pilot,2023.2.3,Win32,60.0276127,65414690ff22af1e0e59a54d,6560176e4d91f764e2a42c74,657158768340dfc74274b66c,0.073,0.0731,0,53,53,134,1,eightsix,,,,,,,,,,,,,,,,,,,,,,,,,,,,,,,,,,,,,,,,,,,,,,,,,,,,,,,,,,,,,,,,,,,,,,,,,,,,,,,,,,,,,,,,,,,,,,,,,,,,,,,,,,,,,,,,,,,,,,,,,,,,,,,,,,,,,,,
,,65414690ff22af1e0e59a54d,2023-12-06_22h33.45.579,kallum_motion_pilot,2023.2.3,Win32,60.0276127,65414690ff22af1e0e59a54d,6560176e4d91f764e2a42c74,657158768340dfc74274b66c,0.0733,0.0734,0,54,54,40,1,onetwo,,,,,,,,,,,,,,,,,,,,,,,,,,,,,,,,,,,,,,,,,,,,,,,,,,,,,,,,,,,,,,,,,,,,,,,,,,,,,,,,,,,,,,,,,,,,,,,,,,,,,,,,,,,,,,,,,,,,,,,,,,,,,,,,,,,,,,,
,,65414690ff22af1e0e59a54d,2023-12-06_22h33.45.579,kallum_motion_pilot,2023.2.3,Win32,60.0276127,65414690ff22af1e0e59a54d,6560176e4d91f764e2a42c74,657158768340dfc74274b66c,0.0736,0.0737,0,55,55,104,1,fivesix,,,,,,,,,,,,,,,,,,,,,,,,,,,,,,,,,,,,,,,,,,,,,,,,,,,,,,,,,,,,,,,,,,,,,,,,,,,,,,,,,,,,,,,,,,,,,,,,,,,,,,,,,,,,,,,,,,,,,,,,,,,,,,,,,,,,,,,
,,65414690ff22af1e0e59a54d,2023-12-06_22h33.45.579,kallum_motion_pilot,2023.2.3,Win32,60.0276127,65414690ff22af1e0e59a54d,6560176e4d91f764e2a42c74,657158768340dfc74274b66c,0.0739,0.074,0,56,56,159,1,eightseven,,,,,,,,,,,,,,,,,,,,,,,,,,,,,,,,,,,,,,,,,,,,,,,,,,,,,,,,,,,,,,,,,,,,,,,,,,,,,,,,,,,,,,,,,,,,,,,,,,,,,,,,,,,,,,,,,,,,,,,,,,,,,,,,,,,,,,,
,,65414690ff22af1e0e59a54d,2023-12-06_22h33.45.579,kallum_motion_pilot,2023.2.3,Win32,60.0276127,65414690ff22af1e0e59a54d,6560176e4d91f764e2a42c74,657158768340dfc74274b66c,0.0742,0.0744,0,57,57,118,1,eightsix,,,,,,,,,,,,,,,,,,,,,,,,,,,,,,,,,,,,,,,,,,,,,,,,,,,,,,,,,,,,,,,,,,,,,,,,,,,,,,,,,,,,,,,,,,,,,,,,,,,,,,,,,,,,,,,,,,,,,,,,,,,,,,,,,,,,,,,
,,65414690ff22af1e0e59a54d,2023-12-06_22h33.45.579,kallum_motion_pilot,2023.2.3,Win32,60.0276127,65414690ff22af1e0e59a54d,6560176e4d91f764e2a42c74,657158768340dfc74274b66c,0.0746,0.0746,0,58,58,95,1,eightseven,,,,,,,,,,,,,,,,,,,,,,,,,,,,,,,,,,,,,,,,,,,,,,,,,,,,,,,,,,,,,,,,,,,,,,,,,,,,,,,,,,,,,,,,,,,,,,,,,,,,,,,,,,,,,,,,,,,,,,,,,,,,,,,,,,,,,,,
,,65414690ff22af1e0e59a54d,2023-12-06_22h33.45.579,kallum_motion_pilot,2023.2.3,Win32,60.0276127,65414690ff22af1e0e59a54d,6560176e4d91f764e2a42c74,657158768340dfc74274b66c,0.0748,0.0749,0,59,59,2,1,twoone,,,,,,,,,,,,,,,,,,,,,,,,,,,,,,,,,,,,,,,,,,,,,,,,,,,,,,,,,,,,,,,,,,,,,,,,,,,,,,,,,,,,,,,,,,,,,,,,,,,,,,,,,,,,,,,,,,,,,,,,,,,,,,,,,,,,,,,
,,65414690ff22af1e0e59a54d,2023-12-06_22h33.45.579,kallum_motion_pilot,2023.2.3,Win32,60.0276127,65414690ff22af1e0e59a54d,6560176e4d91f764e2a42c74,657158768340dfc74274b66c,0.0751,0.0752,0,60,60,98,1,sixfive,,,,,,,,,,,,,,,,,,,,,,,,,,,,,,,,,,,,,,,,,,,,,,,,,,,,,,,,,,,,,,,,,,,,,,,,,,,,,,,,,,,,,,,,,,,,,,,,,,,,,,,,,,,,,,,,,,,,,,,,,,,,,,,,,,,,,,,
,,65414690ff22af1e0e59a54d,2023-12-06_22h33.45.579,kallum_motion_pilot,2023.2.3,Win32,60.0276127,65414690ff22af1e0e59a54d,6560176e4d91f764e2a42c74,657158768340dfc74274b66c,0.0755,0.0756,0,61,61,10,1,twoone,,,,,,,,,,,,,,,,,,,,,,,,,,,,,,,,,,,,,,,,,,,,,,,,,,,,,,,,,,,,,,,,,,,,,,,,,,,,,,,,,,,,,,,,,,,,,,,,,,,,,,,,,,,,,,,,,,,,,,,,,,,,,,,,,,,,,,,
,,65414690ff22af1e0e59a54d,2023-12-06_22h33.45.579,kallum_motion_pilot,2023.2.3,Win32,60.0276127,65414690ff22af1e0e59a54d,6560176e4d91f764e2a42c74,657158768340dfc74274b66c,0.0758,0.0758,0,62,62,36,1,threeone,,,,,,,,,,,,,,,,,,,,,,,,,,,,,,,,,,,,,,,,,,,,,,,,,,,,,,,,,,,,,,,,,,,,,,,,,,,,,,,,,,,,,,,,,,,,,,,,,,,,,,,,,,,,,,,,,,,,,,,,,,,,,,,,,,,,,,,
,,65414690ff22af1e0e59a54d,2023-12-06_22h33.45.579,kallum_motion_pilot,2023.2.3,Win32,60.0276127,65414690ff22af1e0e59a54d,6560176e4d91f764e2a42c74,657158768340dfc74274b66c,0.0761,0.0761,0,63,63,143,1,eightseven,,,,,,,,,,,,,,,,,,,,,,,,,,,,,,,,,,,,,,,,,,,,,,,,,,,,,,,,,,,,,,,,,,,,,,,,,,,,,,,,,,,,,,,,,,,,,,,,,,,,,,,,,,,,,,,,,,,,,,,,,,,,,,,,,,,,,,,
,,65414690ff22af1e0e59a54d,2023-12-06_22h33.45.579,kallum_motion_pilot,2023.2.3,Win32,60.0276127,65414690ff22af1e0e59a54d,6560176e4d91f764e2a42c74,657158768340dfc74274b66c,0.0764,0.0765,0,64,64,27,1,twofour,,,,,,,,,,,,,,,,,,,,,,,,,,,,,,,,,,,,,,,,,,,,,,,,,,,,,,,,,,,,,,,,,,,,,,,,,,,,,,,,,,,,,,,,,,,,,,,,,,,,,,,,,,,,,,,,,,,,,,,,,,,,,,,,,,,,,,,
,,65414690ff22af1e0e59a54d,2023-12-06_22h33.45.579,kallum_motion_pilot,2023.2.3,Win32,60.0276127,65414690ff22af1e0e59a54d,6560176e4d91f764e2a42c74,657158768340dfc74274b66c,0.0767,0.0768,0,65,65,60,1,threeone,,,,,,,,,,,,,,,,,,,,,,,,,,,,,,,,,,,,,,,,,,,,,,,,,,,,,,,,,,,,,,,,,,,,,,,,,,,,,,,,,,,,,,,,,,,,,,,,,,,,,,,,,,,,,,,,,,,,,,,,,,,,,,,,,,,,,,,
,,65414690ff22af1e0e59a54d,2023-12-06_22h33.45.579,kallum_motion_pilot,2023.2.3,Win32,60.0276127,65414690ff22af1e0e59a54d,6560176e4d91f764e2a42c74,657158768340dfc74274b66c,0.077,0.0771,0,66,66,65,1,onethree,,,,,,,,,,,,,,,,,,,,,,,,,,,,,,,,,,,,,,,,,,,,,,,,,,,,,,,,,,,,,,,,,,,,,,,,,,,,,,,,,,,,,,,,,,,,,,,,,,,,,,,,,,,,,,,,,,,,,,,,,,,,,,,,,,,,,,,
,,65414690ff22af1e0e59a54d,2023-12-06_22h33.45.579,kallum_motion_pilot,2023.2.3,Win32,60.0276127,65414690ff22af1e0e59a54d,6560176e4d91f764e2a42c74,657158768340dfc74274b66c,0.0773,0.0774,0,67,67,72,1,onetwo,,,,,,,,,,,,,,,,,,,,,,,,,,,,,,,,,,,,,,,,,,,,,,,,,,,,,,,,,,,,,,,,,,,,,,,,,,,,,,,,,,,,,,,,,,,,,,,,,,,,,,,,,,,,,,,,,,,,,,,,,,,,,,,,,,,,,,,
,,65414690ff22af1e0e59a54d,2023-12-06_22h33.45.579,kallum_motion_pilot,2023.2.3,Win32,60.0276127,65414690ff22af1e0e59a54d,6560176e4d91f764e2a42c74,657158768340dfc74274b66c,0.0776,0.0777,0,68,68,142,1,eightsix,,,,,,,,,,,,,,,,,,,,,,,,,,,,,,,,,,,,,,,,,,,,,,,,,,,,,,,,,,,,,,,,,,,,,,,,,,,,,,,,,,,,,,,,,,,,,,,,,,,,,,,,,,,,,,,,,,,,,,,,,,,,,,,,,,,,,,,
,,65414690ff22af1e0e59a54d,2023-12-06_22h33.45.579,kallum_motion_pilot,2023.2.3,Win32,60.0276127,65414690ff22af1e0e59a54d,6560176e4d91f764e2a42c74,657158768340dfc74274b66c,0.0778,0.0779,0,69,69,64,1,onetwo,,,,,,,,,,,,,,,,,,,,,,,,,,,,,,,,,,,,,,,,,,,,,,,,,,,,,,,,,,,,,,,,,,,,,,,,,,,,,,,,,,,,,,,,,,,,,,,,,,,,,,,,,,,,,,,,,,,,,,,,,,,,,,,,,,,,,,,
,,65414690ff22af1e0e59a54d,2023-12-06_22h33.45.579,kallum_motion_pilot,2023.2.3,Win32,60.0276127,65414690ff22af1e0e59a54d,6560176e4d91f764e2a42c74,657158768340dfc74274b66c,0.0781,0.0782,0,70,70,78,1,fourtwo,,,,,,,,,,,,,,,,,,,,,,,,,,,,,,,,,,,,,,,,,,,,,,,,,,,,,,,,,,,,,,,,,,,,,,,,,,,,,,,,,,,,,,,,,,,,,,,,,,,,,,,,,,,,,,,,,,,,,,,,,,,,,,,,,,,,,,,
,,65414690ff22af1e0e59a54d,2023-12-06_22h33.45.579,kallum_motion_pilot,2023.2.3,Win32,60.0276127,65414690ff22af1e0e59a54d,6560176e4d91f764e2a42c74,657158768340dfc74274b66c,0.0784,0.0785,0,71,71,54,1,fourtwo,,,,,,,,,,,,,,,,,,,,,,,,,,,,,,,,,,,,,,,,,,,,,,,,,,,,,,,,,,,,,,,,,,,,,,,,,,,,,,,,,,,,,,,,,,,,,,,,,,,,,,,,,,,,,,,,,,,,,,,,,,,,,,,,,,,,,,,
,,65414690ff22af1e0e59a54d,2023-12-06_22h33.45.579,kallum_motion_pilot,2023.2.3,Win32,60.0276127,65414690ff22af1e0e59a54d,6560176e4d91f764e2a42c74,657158768340dfc74274b66c,0.0787,0.0788,0,72,72,151,1,eightseven,,,,,,,,,,,,,,,,,,,,,,,,,,,,,,,,,,,,,,,,,,,,,,,,,,,,,,,,,,,,,,,,,,,,,,,,,,,,,,,,,,,,,,,,,,,,,,,,,,,,,,,,,,,,,,,,,,,,,,,,,,,,,,,,,,,,,,,
,,65414690ff22af1e0e59a54d,2023-12-06_22h33.45.579,kallum_motion_pilot,2023.2.3,Win32,60.0276127,65414690ff22af1e0e59a54d,6560176e4d91f764e2a42c74,657158768340dfc74274b66c,0.079,0.0791,0,73,73,112,1,fivesix,,,,,,,,,,,,,,,,,,,,,,,,,,,,,,,,,,,,,,,,,,,,,,,,,,,,,,,,,,,,,,,,,,,,,,,,,,,,,,,,,,,,,,,,,,,,,,,,,,,,,,,,,,,,,,,,,,,,,,,,,,,,,,,,,,,,,,,
,,65414690ff22af1e0e59a54d,2023-12-06_22h33.45.579,kallum_motion_pilot,2023.2.3,Win32,60.0276127,65414690ff22af1e0e59a54d,6560176e4d91f764e2a42c74,657158768340dfc74274b66c,0.0792,0.0793,0,74,74,83,1,sixeight,,,,,,,,,,,,,,,,,,,,,,,,,,,,,,,,,,,,,,,,,,,,,,,,,,,,,,,,,,,,,,,,,,,,,,,,,,,,,,,,,,,,,,,,,,,,,,,,,,,,,,,,,,,,,,,,,,,,,,,,,,,,,,,,,,,,,,,
,,65414690ff22af1e0e59a54d,2023-12-06_22h33.45.579,kallum_motion_pilot,2023.2.3,Win32,60.0276127,65414690ff22af1e0e59a54d,6560176e4d91f764e2a42c74,657158768340dfc74274b66c,0.0796,0.0798,0,75,75,17,1,onethree,,,,,,,,,,,,,,,,,,,,,,,,,,,,,,,,,,,,,,,,,,,,,,,,,,,,,,,,,,,,,,,,,,,,,,,,,,,,,,,,,,,,,,,,,,,,,,,,,,,,,,,,,,,,,,,,,,,,,,,,,,,,,,,,,,,,,,,
,,65414690ff22af1e0e59a54d,2023-12-06_22h33.45.579,kallum_motion_pilot,2023.2.3,Win32,60.0276127,65414690ff22af1e0e59a54d,6560176e4d91f764e2a42c74,657158768340dfc74274b66c,0.0801,0.0803,0,76,76,139,1,sixeight,,,,,,,,,,,,,,,,,,,,,,,,,,,,,,,,,,,,,,,,,,,,,,,,,,,,,,,,,,,,,,,,,,,,,,,,,,,,,,,,,,,,,,,,,,,,,,,,,,,,,,,,,,,,,,,,,,,,,,,,,,,,,,,,,,,,,,,
,,65414690ff22af1e0e59a54d,2023-12-06_22h33.45.579,kallum_motion_pilot,2023.2.3,Win32,60.0276127,65414690ff22af1e0e59a54d,6560176e4d91f764e2a42c74,657158768340dfc74274b66c,0.0806,0.0806,0,77,77,123,1,sixeight,,,,,,,,,,,,,,,,,,,,,,,,,,,,,,,,,,,,,,,,,,,,,,,,,,,,,,,,,,,,,,,,,,,,,,,,,,,,,,,,,,,,,,,,,,,,,,,,,,,,,,,,,,,,,,,,,,,,,,,,,,,,,,,,,,,,,,,
,,65414690ff22af1e0e59a54d,2023-12-06_22h33.45.579,kallum_motion_pilot,2023.2.3,Win32,60.0276127,65414690ff22af1e0e59a54d,6560176e4d91f764e2a42c74,657158768340dfc74274b66c,0.0809,0.081,0,78,78,152,1,fivesix,,,,,,,,,,,,,,,,,,,,,,,,,,,,,,,,,,,,,,,,,,,,,,,,,,,,,,,,,,,,,,,,,,,,,,,,,,,,,,,,,,,,,,,,,,,,,,,,,,,,,,,,,,,,,,,,,,,,,,,,,,,,,,,,,,,,,,,
,,65414690ff22af1e0e59a54d,2023-12-06_22h33.45.579,kallum_motion_pilot,2023.2.3,Win32,60.0276127,65414690ff22af1e0e59a54d,6560176e4d91f764e2a42c74,657158768340dfc74274b66c,0.0812,0.0813,0,79,79,18,1,twoone,,,,,,,,,,,,,,,,,,,,,,,,,,,,,,,,,,,,,,,,,,,,,,,,,,,,,,,,,,,,,,,,,,,,,,,,,,,,,,,,,,,,,,,,,,,,,,,,,,,,,,,,,,,,,,,,,,,,,,,,,,,,,,,,,,,,,,,
,,65414690ff22af1e0e59a54d,2023-12-06_22h33.45.579,kallum_motion_pilot,2023.2.3,Win32,60.0276127,65414690ff22af1e0e59a54d,6560176e4d91f764e2a42c74,657158768340dfc74274b66c,0.0815,0.0816,0,80,80,77,1,threefour,,,,,,,,,,,,,,,,,,,,,,,,,,,,,,,,,,,,,,,,,,,,,,,,,,,,,,,,,,,,,,,,,,,,,,,,,,,,,,,,,,,,,,,,,,,,,,,,,,,,,,,,,,,,,,,,,,,,,,,,,,,,,,,,,,,,,,,
,,65414690ff22af1e0e59a54d,2023-12-06_22h33.45.579,kallum_motion_pilot,2023.2.3,Win32,60.0276127,65414690ff22af1e0e59a54d,6560176e4d91f764e2a42c74,657158768340dfc74274b66c,0.0818,0.0819,0,81,81,153,1,fiveseven,,,,,,,,,,,,,,,,,,,,,,,,,,,,,,,,,,,,,,,,,,,,,,,,,,,,,,,,,,,,,,,,,,,,,,,,,,,,,,,,,,,,,,,,,,,,,,,,,,,,,,,,,,,,,,,,,,,,,,,,,,,,,,,,,,,,,,,
,,65414690ff22af1e0e59a54d,2023-12-06_22h33.45.579,kallum_motion_pilot,2023.2.3,Win32,60.0276127,65414690ff22af1e0e59a54d,6560176e4d91f764e2a42c74,657158768340dfc74274b66c,0.0821,0.0822,0,82,82,42,1,twoone,,,,,,,,,,,,,,,,,,,,,,,,,,,,,,,,,,,,,,,,,,,,,,,,,,,,,,,,,,,,,,,,,,,,,,,,,,,,,,,,,,,,,,,,,,,,,,,,,,,,,,,,,,,,,,,,,,,,,,,,,,,,,,,,,,,,,,,
,,65414690ff22af1e0e59a54d,2023-12-06_22h33.45.579,kallum_motion_pilot,2023.2.3,Win32,60.0276127,65414690ff22af1e0e59a54d,6560176e4d91f764e2a42c74,657158768340dfc74274b66c,0.0824,0.0825,0,83,83,33,1,onethree,,,,,,,,,,,,,,,,,,,,,,,,,,,,,,,,,,,,,,,,,,,,,,,,,,,,,,,,,,,,,,,,,,,,,,,,,,,,,,,,,,,,,,,,,,,,,,,,,,,,,,,,,,,,,,,,,,,,,,,,,,,,,,,,,,,,,,,
,,65414690ff22af1e0e59a54d,2023-12-06_22h33.45.579,kallum_motion_pilot,2023.2.3,Win32,60.0276127,65414690ff22af1e0e59a54d,6560176e4d91f764e2a42c74,657158768340dfc74274b66c,0.0827,0.0828,0,84,84,99,1,sixeight,,,,,,,,,,,,,,,,,,,,,,,,,,,,,,,,,,,,,,,,,,,,,,,,,,,,,,,,,,,,,,,,,,,,,,,,,,,,,,,,,,,,,,,,,,,,,,,,,,,,,,,,,,,,,,,,,,,,,,,,,,,,,,,,,,,,,,,
,,65414690ff22af1e0e59a54d,2023-12-06_22h33.45.579,kallum_motion_pilot,2023.2.3,Win32,60.0276127,65414690ff22af1e0e59a54d,6560176e4d91f764e2a42c74,657158768340dfc74274b66c,0.083,0.0831,0,85,85,128,1,fivesix,,,,,,,,,,,,,,,,,,,,,,,,,,,,,,,,,,,,,,,,,,,,,,,,,,,,,,,,,,,,,,,,,,,,,,,,,,,,,,,,,,,,,,,,,,,,,,,,,,,,,,,,,,,,,,,,,,,,,,,,,,,,,,,,,,,,,,,
,,65414690ff22af1e0e59a54d,2023-12-06_22h33.45.579,kallum_motion_pilot,2023.2.3,Win32,60.0276127,65414690ff22af1e0e59a54d,6560176e4d91f764e2a42c74,657158768340dfc74274b66c,0.0833,0.0834,0,86,86,38,1,fourtwo,,,,,,,,,,,,,,,,,,,,,,,,,,,,,,,,,,,,,,,,,,,,,,,,,,,,,,,,,,,,,,,,,,,,,,,,,,,,,,,,,,,,,,,,,,,,,,,,,,,,,,,,,,,,,,,,,,,,,,,,,,,,,,,,,,,,,,,
,,65414690ff22af1e0e59a54d,2023-12-06_22h33.45.579,kallum_motion_pilot,2023.2.3,Win32,60.0276127,65414690ff22af1e0e59a54d,6560176e4d91f764e2a42c74,657158768340dfc74274b66c,0.0836,0.0836,0,87,87,110,1,eightsix,,,,,,,,,,,,,,,,,,,,,,,,,,,,,,,,,,,,,,,,,,,,,,,,,,,,,,,,,,,,,,,,,,,,,,,,,,,,,,,,,,,,,,,,,,,,,,,,,,,,,,,,,,,,,,,,,,,,,,,,,,,,,,,,,,,,,,,
,,65414690ff22af1e0e59a54d,2023-12-06_22h33.45.579,kallum_motion_pilot,2023.2.3,Win32,60.0276127,65414690ff22af1e0e59a54d,6560176e4d91f764e2a42c74,657158768340dfc74274b66c,0.0838,0.084,0,88,88,119,1,eightseven,,,,,,,,,,,,,,,,,,,,,,,,,,,,,,,,,,,,,,,,,,,,,,,,,,,,,,,,,,,,,,,,,,,,,,,,,,,,,,,,,,,,,,,,,,,,,,,,,,,,,,,,,,,,,,,,,,,,,,,,,,,,,,,,,,,,,,,
,,65414690ff22af1e0e59a54d,2023-12-06_22h33.45.579,kallum_motion_pilot,2023.2.3,Win32,60.0276127,65414690ff22af1e0e59a54d,6560176e4d91f764e2a42c74,657158768340dfc74274b66c,0.0842,0.0843,0,89,89,13,1,threefour,,,,,,,,,,,,,,,,,,,,,,,,,,,,,,,,,,,,,,,,,,,,,,,,,,,,,,,,,,,,,,,,,,,,,,,,,,,,,,,,,,,,,,,,,,,,,,,,,,,,,,,,,,,,,,,,,,,,,,,,,,,,,,,,,,,,,,,
,,65414690ff22af1e0e59a54d,2023-12-06_22h33.45.579,kallum_motion_pilot,2023.2.3,Win32,60.0276127,65414690ff22af1e0e59a54d,6560176e4d91f764e2a42c74,657158768340dfc74274b66c,0.0844,0.0846,0,90,90,120,1,fivesix,,,,,,,,,,,,,,,,,,,,,,,,,,,,,,,,,,,,,,,,,,,,,,,,,,,,,,,,,,,,,,,,,,,,,,,,,,,,,,,,,,,,,,,,,,,,,,,,,,,,,,,,,,,,,,,,,,,,,,,,,,,,,,,,,,,,,,,
,,65414690ff22af1e0e59a54d,2023-12-06_22h33.45.579,kallum_motion_pilot,2023.2.3,Win32,60.0276127,65414690ff22af1e0e59a54d,6560176e4d91f764e2a42c74,657158768340dfc74274b66c,0.0851,0.0852,0,91,91,32,1,onetwo,,,,,,,,,,,,,,,,,,,,,,,,,,,,,,,,,,,,,,,,,,,,,,,,,,,,,,,,,,,,,,,,,,,,,,,,,,,,,,,,,,,,,,,,,,,,,,,,,,,,,,,,,,,,,,,,,,,,,,,,,,,,,,,,,,,,,,,
,,65414690ff22af1e0e59a54d,2023-12-06_22h33.45.579,kallum_motion_pilot,2023.2.3,Win32,60.0276127,65414690ff22af1e0e59a54d,6560176e4d91f764e2a42c74,657158768340dfc74274b66c,0.0857,0.0858,0,92,92,89,1,fiveseven,,,,,,,,,,,,,,,,,,,,,,,,,,,,,,,,,,,,,,,,,,,,,,,,,,,,,,,,,,,,,,,,,,,,,,,,,,,,,,,,,,,,,,,,,,,,,,,,,,,,,,,,,,,,,,,,,,,,,,,,,,,,,,,,,,,,,,,
,,65414690ff22af1e0e59a54d,2023-12-06_22h33.45.579,kallum_motion_pilot,2023.2.3,Win32,60.0276127,65414690ff22af1e0e59a54d,6560176e4d91f764e2a42c74,657158768340dfc74274b66c,0.0861,0.0863,0,93,93,116,1,sevenfive,,,,,,,,,,,,,,,,,,,,,,,,,,,,,,,,,,,,,,,,,,,,,,,,,,,,,,,,,,,,,,,,,,,,,,,,,,,,,,,,,,,,,,,,,,,,,,,,,,,,,,,,,,,,,,,,,,,,,,,,,,,,,,,,,,,,,,,
,,65414690ff22af1e0e59a54d,2023-12-06_22h33.45.579,kallum_motion_pilot,2023.2.3,Win32,60.0276127,65414690ff22af1e0e59a54d,6560176e4d91f764e2a42c74,657158768340dfc74274b66c,0.0865,0.0868,0,94,94,161,1,fiveseven,,,,,,,,,,,,,,,,,,,,,,,,,,,,,,,,,,,,,,,,,,,,,,,,,,,,,,,,,,,,,,,,,,,,,,,,,,,,,,,,,,,,,,,,,,,,,,,,,,,,,,,,,,,,,,,,,,,,,,,,,,,,,,,,,,,,,,,
,,65414690ff22af1e0e59a54d,2023-12-06_22h33.45.579,kallum_motion_pilot,2023.2.3,Win32,60.0276127,65414690ff22af1e0e59a54d,6560176e4d91f764e2a42c74,657158768340dfc74274b66c,0.0872,0.0873,0,95,95,91,1,sixeight,,,,,,,,,,,,,,,,,,,,,,,,,,,,,,,,,,,,,,,,,,,,,,,,,,,,,,,,,,,,,,,,,,,,,,,,,,,,,,,,,,,,,,,,,,,,,,,,,,,,,,,,,,,,,,,,,,,,,,,,,,,,,,,,,,,,,,,
,,65414690ff22af1e0e59a54d,2023-12-06_22h33.45.579,kallum_motion_pilot,2023.2.3,Win32,60.0276127,65414690ff22af1e0e59a54d,6560176e4d91f764e2a42c74,657158768340dfc74274b66c,0.0874,0.0877,0,96,96,49,1,onethree,,,,,,,,,,,,,,,,,,,,,,,,,,,,,,,,,,,,,,,,,,,,,,,,,,,,,,,,,,,,,,,,,,,,,,,,,,,,,,,,,,,,,,,,,,,,,,,,,,,,,,,,,,,,,,,,,,,,,,,,,,,,,,,,,,,,,,,
,,65414690ff22af1e0e59a54d,2023-12-06_22h33.45.579,kallum_motion_pilot,2023.2.3,Win32,60.0276127,65414690ff22af1e0e59a54d,6560176e4d91f764e2a42c74,657158768340dfc74274b66c,0.0878,0.088,0,97,97,109,1,seveneight,,,,,,,,,,,,,,,,,,,,,,,,,,,,,,,,,,,,,,,,,,,,,,,,,,,,,,,,,,,,,,,,,,,,,,,,,,,,,,,,,,,,,,,,,,,,,,,,,,,,,,,,,,,,,,,,,,,,,,,,,,,,,,,,,,,,,,,
,,65414690ff22af1e0e59a54d,2023-12-06_22h33.45.579,kallum_motion_pilot,2023.2.3,Win32,60.0276127,65414690ff22af1e0e59a54d,6560176e4d91f764e2a42c74,657158768340dfc74274b66c,0.0882,0.0883,0,98,98,66,1,twoone,,,,,,,,,,,,,,,,,,,,,,,,,,,,,,,,,,,,,,,,,,,,,,,,,,,,,,,,,,,,,,,,,,,,,,,,,,,,,,,,,,,,,,,,,,,,,,,,,,,,,,,,,,,,,,,,,,,,,,,,,,,,,,,,,,,,,,,
,,65414690ff22af1e0e59a54d,2023-12-06_22h33.45.579,kallum_motion_pilot,2023.2.3,Win32,60.0276127,65414690ff22af1e0e59a54d,6560176e4d91f764e2a42c74,657158768340dfc74274b66c,0.0887,0.0889,0,99,99,15,1,fourthree,,,,,,,,,,,,,,,,,,,,,,,,,,,,,,,,,,,,,,,,,,,,,,,,,,,,,,,,,,,,,,,,,,,,,,,,,,,,,,,,,,,,,,,,,,,,,,,,,,,,,,,,,,,,,,,,,,,,,,,,,,,,,,,,,,,,,,,
,,65414690ff22af1e0e59a54d,2023-12-06_22h33.45.579,kallum_motion_pilot,2023.2.3,Win32,60.0276127,65414690ff22af1e0e59a54d,6560176e4d91f764e2a42c74,657158768340dfc74274b66c,0.0895,0.0896,0,100,100,71,1,fourthree,,,,,,,,,,,,,,,,,,,,,,,,,,,,,,,,,,,,,,,,,,,,,,,,,,,,,,,,,,,,,,,,,,,,,,,,,,,,,,,,,,,,,,,,,,,,,,,,,,,,,,,,,,,,,,,,,,,,,,,,,,,,,,,,,,,,,,,
,,65414690ff22af1e0e59a54d,2023-12-06_22h33.45.579,kallum_motion_pilot,2023.2.3,Win32,60.0276127,65414690ff22af1e0e59a54d,6560176e4d91f764e2a42c74,657158768340dfc74274b66c,0.0898,0.0899,0,101,101,100,1,sevenfive,,,,,,,,,,,,,,,,,,,,,,,,,,,,,,,,,,,,,,,,,,,,,,,,,,,,,,,,,,,,,,,,,,,,,,,,,,,,,,,,,,,,,,,,,,,,,,,,,,,,,,,,,,,,,,,,,,,,,,,,,,,,,,,,,,,,,,,
,,65414690ff22af1e0e59a54d,2023-12-06_22h33.45.579,kallum_motion_pilot,2023.2.3,Win32,60.0276127,65414690ff22af1e0e59a54d,6560176e4d91f764e2a42c74,657158768340dfc74274b66c,0.0902,0.0904,0,102,102,73,1,onethree,,,,,,,,,,,,,,,,,,,,,,,,,,,,,,,,,,,,,,,,,,,,,,,,,,,,,,,,,,,,,,,,,,,,,,,,,,,,,,,,,,,,,,,,,,,,,,,,,,,,,,,,,,,,,,,,,,,,,,,,,,,,,,,,,,,,,,,
,,65414690ff22af1e0e59a54d,2023-12-06_22h33.45.579,kallum_motion_pilot,2023.2.3,Win32,60.0276127,65414690ff22af1e0e59a54d,6560176e4d91f764e2a42c74,657158768340dfc74274b66c,0.0907,0.0908,0,103,103,82,1,sixfive,,,,,,,,,,,,,,,,,,,,,,,,,,,,,,,,,,,,,,,,,,,,,,,,,,,,,,,,,,,,,,,,,,,,,,,,,,,,,,,,,,,,,,,,,,,,,,,,,,,,,,,,,,,,,,,,,,,,,,,,,,,,,,,,,,,,,,,
,,65414690ff22af1e0e59a54d,2023-12-06_22h33.45.579,kallum_motion_pilot,2023.2.3,Win32,60.0276127,65414690ff22af1e0e59a54d,6560176e4d91f764e2a42c74,657158768340dfc74274b66c,0.091,0.0911,0,104,104,129,1,fiveseven,,,,,,,,,,,,,,,,,,,,,,,,,,,,,,,,,,,,,,,,,,,,,,,,,,,,,,,,,,,,,,,,,,,,,,,,,,,,,,,,,,,,,,,,,,,,,,,,,,,,,,,,,,,,,,,,,,,,,,,,,,,,,,,,,,,,,,,
,,65414690ff22af1e0e59a54d,2023-12-06_22h33.45.579,kallum_motion_pilot,2023.2.3,Win32,60.0276127,65414690ff22af1e0e59a54d,6560176e4d91f764e2a42c74,657158768340dfc74274b66c,0.0914,0.0916,0,105,105,61,1,threefour,,,,,,,,,,,,,,,,,,,,,,,,,,,,,,,,,,,,,,,,,,,,,,,,,,,,,,,,,,,,,,,,,,,,,,,,,,,,,,,,,,,,,,,,,,,,,,,,,,,,,,,,,,,,,,,,,,,,,,,,,,,,,,,,,,,,,,,
,,65414690ff22af1e0e59a54d,2023-12-06_22h33.45.579,kallum_motion_pilot,2023.2.3,Win32,60.0276127,65414690ff22af1e0e59a54d,6560176e4d91f764e2a42c74,657158768340dfc74274b66c,0.0917,0.0919,0,106,106,26,1,twoone,,,,,,,,,,,,,,,,,,,,,,,,,,,,,,,,,,,,,,,,,,,,,,,,,,,,,,,,,,,,,,,,,,,,,,,,,,,,,,,,,,,,,,,,,,,,,,,,,,,,,,,,,,,,,,,,,,,,,,,,,,,,,,,,,,,,,,,
,,65414690ff22af1e0e59a54d,2023-12-06_22h33.45.579,kallum_motion_pilot,2023.2.3,Win32,60.0276127,65414690ff22af1e0e59a54d,6560176e4d91f764e2a42c74,657158768340dfc74274b66c,0.0921,0.0922,0,107,107,68,1,threeone,,,,,,,,,,,,,,,,,,,,,,,,,,,,,,,,,,,,,,,,,,,,,,,,,,,,,,,,,,,,,,,,,,,,,,,,,,,,,,,,,,,,,,,,,,,,,,,,,,,,,,,,,,,,,,,,,,,,,,,,,,,,,,,,,,,,,,,
,,65414690ff22af1e0e59a54d,2023-12-06_22h33.45.579,kallum_motion_pilot,2023.2.3,Win32,60.0276127,65414690ff22af1e0e59a54d,6560176e4d91f764e2a42c74,657158768340dfc74274b66c,0.0924,0.0925,0,108,108,6,1,fourtwo,,,,,,,,,,,,,,,,,,,,,,,,,,,,,,,,,,,,,,,,,,,,,,,,,,,,,,,,,,,,,,,,,,,,,,,,,,,,,,,,,,,,,,,,,,,,,,,,,,,,,,,,,,,,,,,,,,,,,,,,,,,,,,,,,,,,,,,
,,65414690ff22af1e0e59a54d,2023-12-06_22h33.45.579,kallum_motion_pilot,2023.2.3,Win32,60.0276127,65414690ff22af1e0e59a54d,6560176e4d91f764e2a42c74,657158768340dfc74274b66c,0.0928,0.0929,0,109,109,25,1,onethree,,,,,,,,,,,,,,,,,,,,,,,,,,,,,,,,,,,,,,,,,,,,,,,,,,,,,,,,,,,,,,,,,,,,,,,,,,,,,,,,,,,,,,,,,,,,,,,,,,,,,,,,,,,,,,,,,,,,,,,,,,,,,,,,,,,,,,,
,,65414690ff22af1e0e59a54d,2023-12-06_22h33.45.579,kallum_motion_pilot,2023.2.3,Win32,60.0276127,65414690ff22af1e0e59a54d,6560176e4d91f764e2a42c74,657158768340dfc74274b66c,0.0931,0.0932,0,110,110,14,1,fourtwo,,,,,,,,,,,,,,,,,,,,,,,,,,,,,,,,,,,,,,,,,,,,,,,,,,,,,,,,,,,,,,,,,,,,,,,,,,,,,,,,,,,,,,,,,,,,,,,,,,,,,,,,,,,,,,,,,,,,,,,,,,,,,,,,,,,,,,,
,,65414690ff22af1e0e59a54d,2023-12-06_22h33.45.579,kallum_motion_pilot,2023.2.3,Win32,60.0276127,65414690ff22af1e0e59a54d,6560176e4d91f764e2a42c74,657158768340dfc74274b66c,0.0935,0.0936,0,111,111,29,1,threefour,,,,,,,,,,,,,,,,,,,,,,,,,,,,,,,,,,,,,,,,,,,,,,,,,,,,,,,,,,,,,,,,,,,,,,,,,,,,,,,,,,,,,,,,,,,,,,,,,,,,,,,,,,,,,,,,,,,,,,,,,,,,,,,,,,,,,,,
,,65414690ff22af1e0e59a54d,2023-12-06_22h33.45.579,kallum_motion_pilot,2023.2.3,Win32,60.0276127,65414690ff22af1e0e59a54d,6560176e4d91f764e2a42c74,657158768340dfc74274b66c,0.0938,0.0939,0,112,112,127,1,eightseven,,,,,,,,,,,,,,,,,,,,,,,,,,,,,,,,,,,,,,,,,,,,,,,,,,,,,,,,,,,,,,,,,,,,,,,,,,,,,,,,,,,,,,,,,,,,,,,,,,,,,,,,,,,,,,,,,,,,,,,,,,,,,,,,,,,,,,,
,,65414690ff22af1e0e59a54d,2023-12-06_22h33.45.579,kallum_motion_pilot,2023.2.3,Win32,60.0276127,65414690ff22af1e0e59a54d,6560176e4d91f764e2a42c74,657158768340dfc74274b66c,0.0941,0.0942,0,113,113,56,1,onetwo,,,,,,,,,,,,,,,,,,,,,,,,,,,,,,,,,,,,,,,,,,,,,,,,,,,,,,,,,,,,,,,,,,,,,,,,,,,,,,,,,,,,,,,,,,,,,,,,,,,,,,,,,,,,,,,,,,,,,,,,,,,,,,,,,,,,,,,
,,65414690ff22af1e0e59a54d,2023-12-06_22h33.45.579,kallum_motion_pilot,2023.2.3,Win32,60.0276127,65414690ff22af1e0e59a54d,6560176e4d91f764e2a42c74,657158768340dfc74274b66c,0.0944,0.0946,0,114,114,39,1,fourthree,,,,,,,,,,,,,,,,,,,,,,,,,,,,,,,,,,,,,,,,,,,,,,,,,,,,,,,,,,,,,,,,,,,,,,,,,,,,,,,,,,,,,,,,,,,,,,,,,,,,,,,,,,,,,,,,,,,,,,,,,,,,,,,,,,,,,,,
,,65414690ff22af1e0e59a54d,2023-12-06_22h33.45.579,kallum_motion_pilot,2023.2.3,Win32,60.0276127,65414690ff22af1e0e59a54d,6560176e4d91f764e2a42c74,657158768340dfc74274b66c,0.0948,0.0949,0,115,115,62,1,fourtwo,,,,,,,,,,,,,,,,,,,,,,,,,,,,,,,,,,,,,,,,,,,,,,,,,,,,,,,,,,,,,,,,,,,,,,,,,,,,,,,,,,,,,,,,,,,,,,,,,,,,,,,,,,,,,,,,,,,,,,,,,,,,,,,,,,,,,,,
,,65414690ff22af1e0e59a54d,2023-12-06_22h33.45.579,kallum_motion_pilot,2023.2.3,Win32,60.0276127,65414690ff22af1e0e59a54d,6560176e4d91f764e2a42c74,657158768340dfc74274b66c,0.0952,0.0954,0,116,116,105,1,fiveseven,,,,,,,,,,,,,,,,,,,,,,,,,,,,,,,,,,,,,,,,,,,,,,,,,,,,,,,,,,,,,,,,,,,,,,,,,,,,,,,,,,,,,,,,,,,,,,,,,,,,,,,,,,,,,,,,,,,,,,,,,,,,,,,,,,,,,,,
,,65414690ff22af1e0e59a54d,2023-12-06_22h33.45.579,kallum_motion_pilot,2023.2.3,Win32,60.0276127,65414690ff22af1e0e59a54d,6560176e4d91f764e2a42c74,657158768340dfc74274b66c,0.0956,0.0958,0,117,117,11,1,twofour,,,,,,,,,,,,,,,,,,,,,,,,,,,,,,,,,,,,,,,,,,,,,,,,,,,,,,,,,,,,,,,,,,,,,,,,,,,,,,,,,,,,,,,,,,,,,,,,,,,,,,,,,,,,,,,,,,,,,,,,,,,,,,,,,,,,,,,
,,65414690ff22af1e0e59a54d,2023-12-06_22h33.45.579,kallum_motion_pilot,2023.2.3,Win32,60.0276127,65414690ff22af1e0e59a54d,6560176e4d91f764e2a42c74,657158768340dfc74274b66c,0.0961,0.0962,0,118,118,48,1,onetwo,,,,,,,,,,,,,,,,,,,,,,,,,,,,,,,,,,,,,,,,,,,,,,,,,,,,,,,,,,,,,,,,,,,,,,,,,,,,,,,,,,,,,,,,,,,,,,,,,,,,,,,,,,,,,,,,,,,,,,,,,,,,,,,,,,,,,,,
,,65414690ff22af1e0e59a54d,2023-12-06_22h33.45.579,kallum_motion_pilot,2023.2.3,Win32,60.0276127,65414690ff22af1e0e59a54d,6560176e4d91f764e2a42c74,657158768340dfc74274b66c,0.0964,0.0965,0,119,119,158,1,eightsix,,,,,,,,,,,,,,,,,,,,,,,,,,,,,,,,,,,,,,,,,,,,,,,,,,,,,,,,,,,,,,,,,,,,,,,,,,,,,,,,,,,,,,,,,,,,,,,,,,,,,,,,,,,,,,,,,,,,,,,,,,,,,,,,,,,,,,,
,,65414690ff22af1e0e59a54d,2023-12-06_22h33.45.579,kallum_motion_pilot,2023.2.3,Win32,60.0276127,65414690ff22af1e0e59a54d,6560176e4d91f764e2a42c74,657158768340dfc74274b66c,0.0968,0.0969,0,120,120,147,1,sixeight,,,,,,,,,,,,,,,,,,,,,,,,,,,,,,,,,,,,,,,,,,,,,,,,,,,,,,,,,,,,,,,,,,,,,,,,,,,,,,,,,,,,,,,,,,,,,,,,,,,,,,,,,,,,,,,,,,,,,,,,,,,,,,,,,,,,,,,
,,65414690ff22af1e0e59a54d,2023-12-06_22h33.45.579,kallum_motion_pilot,2023.2.3,Win32,60.0276127,65414690ff22af1e0e59a54d,6560176e4d91f764e2a42c74,657158768340dfc74274b66c,0.0972,0.0973,0,121,121,111,1,eightseven,,,,,,,,,,,,,,,,,,,,,,,,,,,,,,,,,,,,,,,,,,,,,,,,,,,,,,,,,,,,,,,,,,,,,,,,,,,,,,,,,,,,,,,,,,,,,,,,,,,,,,,,,,,,,,,,,,,,,,,,,,,,,,,,,,,,,,,
,,65414690ff22af1e0e59a54d,2023-12-06_22h33.45.579,kallum_motion_pilot,2023.2.3,Win32,60.0276127,65414690ff22af1e0e59a54d,6560176e4d91f764e2a42c74,657158768340dfc74274b66c,0.0993,0.0994,0,122,122,96,1,fivesix,,,,,,,,,,,,,,,,,,,,,,,,,,,,,,,,,,,,,,,,,,,,,,,,,,,,,,,,,,,,,,,,,,,,,,,,,,,,,,,,,,,,,,,,,,,,,,,,,,,,,,,,,,,,,,,,,,,,,,,,,,,,,,,,,,,,,,,
,,65414690ff22af1e0e59a54d,2023-12-06_22h33.45.579,kallum_motion_pilot,2023.2.3,Win32,60.0276127,65414690ff22af1e0e59a54d,6560176e4d91f764e2a42c74,657158768340dfc74274b66c,0.0997,0.0998,0,123,123,117,1,seveneight,,,,,,,,,,,,,,,,,,,,,,,,,,,,,,,,,,,,,,,,,,,,,,,,,,,,,,,,,,,,,,,,,,,,,,,,,,,,,,,,,,,,,,,,,,,,,,,,,,,,,,,,,,,,,,,,,,,,,,,,,,,,,,,,,,,,,,,
,,65414690ff22af1e0e59a54d,2023-12-06_22h33.45.579,kallum_motion_pilot,2023.2.3,Win32,60.0276127,65414690ff22af1e0e59a54d,6560176e4d91f764e2a42c74,657158768340dfc74274b66c,0.1002,0.1002,0,124,124,94,1,eightsix,,,,,,,,,,,,,,,,,,,,,,,,,,,,,,,,,,,,,,,,,,,,,,,,,,,,,,,,,,,,,,,,,,,,,,,,,,,,,,,,,,,,,,,,,,,,,,,,,,,,,,,,,,,,,,,,,,,,,,,,,,,,,,,,,,,,,,,
,,65414690ff22af1e0e59a54d,2023-12-06_22h33.45.579,kallum_motion_pilot,2023.2.3,Win32,60.0276127,65414690ff22af1e0e59a54d,6560176e4d91f764e2a42c74,657158768340dfc74274b66c,0.1005,0.1007,0,125,125,20,1,threeone,,,,,,,,,,,,,,,,,,,,,,,,,,,,,,,,,,,,,,,,,,,,,,,,,,,,,,,,,,,,,,,,,,,,,,,,,,,,,,,,,,,,,,,,,,,,,,,,,,,,,,,,,,,,,,,,,,,,,,,,,,,,,,,,,,,,,,,
,,65414690ff22af1e0e59a54d,2023-12-06_22h33.45.579,kallum_motion_pilot,2023.2.3,Win32,60.0276127,65414690ff22af1e0e59a54d,6560176e4d91f764e2a42c74,657158768340dfc74274b66c,0.1009,0.1012,0,126,126,90,1,sixfive,,,,,,,,,,,,,,,,,,,,,,,,,,,,,,,,,,,,,,,,,,,,,,,,,,,,,,,,,,,,,,,,,,,,,,,,,,,,,,,,,,,,,,,,,,,,,,,,,,,,,,,,,,,,,,,,,,,,,,,,,,,,,,,,,,,,,,,
,,65414690ff22af1e0e59a54d,2023-12-06_22h33.45.579,kallum_motion_pilot,2023.2.3,Win32,60.0276127,65414690ff22af1e0e59a54d,6560176e4d91f764e2a42c74,657158768340dfc74274b66c,0.1016,0.1018,0,127,127,140,1,sevenfive,,,,,,,,,,,,,,,,,,,,,,,,,,,,,,,,,,,,,,,,,,,,,,,,,,,,,,,,,,,,,,,,,,,,,,,,,,,,,,,,,,,,,,,,,,,,,,,,,,,,,,,,,,,,,,,,,,,,,,,,,,,,,,,,,,,,,,,
,,65414690ff22af1e0e59a54d,2023-12-06_22h33.45.579,kallum_motion_pilot,2023.2.3,Win32,60.0276127,65414690ff22af1e0e59a54d,6560176e4d91f764e2a42c74,657158768340dfc74274b66c,0.102,0.1022,0,128,128,132,1,sevenfive,,,,,,,,,,,,,,,,,,,,,,,,,,,,,,,,,,,,,,,,,,,,,,,,,,,,,,,,,,,,,,,,,,,,,,,,,,,,,,,,,,,,,,,,,,,,,,,,,,,,,,,,,,,,,,,,,,,,,,,,,,,,,,,,,,,,,,,
,,65414690ff22af1e0e59a54d,2023-12-06_22h33.45.579,kallum_motion_pilot,2023.2.3,Win32,60.0276127,65414690ff22af1e0e59a54d,6560176e4d91f764e2a42c74,657158768340dfc74274b66c,0.1025,0.1026,0,129,129,156,1,sevenfive,,,,,,,,,,,,,,,,,,,,,,,,,,,,,,,,,,,,,,,,,,,,,,,,,,,,,,,,,,,,,,,,,,,,,,,,,,,,,,,,,,,,,,,,,,,,,,,,,,,,,,,,,,,,,,,,,,,,,,,,,,,,,,,,,,,,,,,
,,65414690ff22af1e0e59a54d,2023-12-06_22h33.45.579,kallum_motion_pilot,2023.2.3,Win32,60.0276127,65414690ff22af1e0e59a54d,6560176e4d91f764e2a42c74,657158768340dfc74274b66c,0.1029,0.1031,0,130,130,76,1,threeone,,,,,,,,,,,,,,,,,,,,,,,,,,,,,,,,,,,,,,,,,,,,,,,,,,,,,,,,,,,,,,,,,,,,,,,,,,,,,,,,,,,,,,,,,,,,,,,,,,,,,,,,,,,,,,,,,,,,,,,,,,,,,,,,,,,,,,,
,,65414690ff22af1e0e59a54d,2023-12-06_22h33.45.579,kallum_motion_pilot,2023.2.3,Win32,60.0276127,65414690ff22af1e0e59a54d,6560176e4d91f764e2a42c74,657158768340dfc74274b66c,0.1034,0.1036,0,131,131,150,1,eightsix,,,,,,,,,,,,,,,,,,,,,,,,,,,,,,,,,,,,,,,,,,,,,,,,,,,,,,,,,,,,,,,,,,,,,,,,,,,,,,,,,,,,,,,,,,,,,,,,,,,,,,,,,,,,,,,,,,,,,,,,,,,,,,,,,,,,,,,
,,65414690ff22af1e0e59a54d,2023-12-06_22h33.45.579,kallum_motion_pilot,2023.2.3,Win32,60.0276127,65414690ff22af1e0e59a54d,6560176e4d91f764e2a42c74,657158768340dfc74274b66c,0.1039,0.104,0,132,132,93,1,seveneight,,,,,,,,,,,,,,,,,,,,,,,,,,,,,,,,,,,,,,,,,,,,,,,,,,,,,,,,,,,,,,,,,,,,,,,,,,,,,,,,,,,,,,,,,,,,,,,,,,,,,,,,,,,,,,,,,,,,,,,,,,,,,,,,,,,,,,,
,,65414690ff22af1e0e59a54d,2023-12-06_22h33.45.579,kallum_motion_pilot,2023.2.3,Win32,60.0276127,65414690ff22af1e0e59a54d,6560176e4d91f764e2a42c74,657158768340dfc74274b66c,0.1042,0.1044,0,133,133,102,1,eightsix,,,,,,,,,,,,,,,,,,,,,,,,,,,,,,,,,,,,,,,,,,,,,,,,,,,,,,,,,,,,,,,,,,,,,,,,,,,,,,,,,,,,,,,,,,,,,,,,,,,,,,,,,,,,,,,,,,,,,,,,,,,,,,,,,,,,,,,
,,65414690ff22af1e0e59a54d,2023-12-06_22h33.45.579,kallum_motion_pilot,2023.2.3,Win32,60.0276127,65414690ff22af1e0e59a54d,6560176e4d91f764e2a42c74,657158768340dfc74274b66c,0.1046,0.1047,0,134,134,103,1,eightseven,,,,,,,,,,,,,,,,,,,,,,,,,,,,,,,,,,,,,,,,,,,,,,,,,,,,,,,,,,,,,,,,,,,,,,,,,,,,,,,,,,,,,,,,,,,,,,,,,,,,,,,,,,,,,,,,,,,,,,,,,,,,,,,,,,,,,,,
,,65414690ff22af1e0e59a54d,2023-12-06_22h33.45.579,kallum_motion_pilot,2023.2.3,Win32,60.0276127,65414690ff22af1e0e59a54d,6560176e4d91f764e2a42c74,657158768340dfc74274b66c,0.1051,0.1052,0,135,135,125,1,seveneight,,,,,,,,,,,,,,,,,,,,,,,,,,,,,,,,,,,,,,,,,,,,,,,,,,,,,,,,,,,,,,,,,,,,,,,,,,,,,,,,,,,,,,,,,,,,,,,,,,,,,,,,,,,,,,,,,,,,,,,,,,,,,,,,,,,,,,,
,,65414690ff22af1e0e59a54d,2023-12-06_22h33.45.579,kallum_motion_pilot,2023.2.3,Win32,60.0276127,65414690ff22af1e0e59a54d,6560176e4d91f764e2a42c74,657158768340dfc74274b66c,0.1055,0.1057,0,136,136,79,1,eightseven,,,,,,,,,,,,,,,,,,,,,,,,,,,,,,,,,,,,,,,,,,,,,,,,,,,,,,,,,,,,,,,,,,,,,,,,,,,,,,,,,,,,,,,,,,,,,,,,,,,,,,,,,,,,,,,,,,,,,,,,,,,,,,,,,,,,,,,
,,65414690ff22af1e0e59a54d,2023-12-06_22h33.45.579,kallum_motion_pilot,2023.2.3,Win32,60.0276127,65414690ff22af1e0e59a54d,6560176e4d91f764e2a42c74,657158768340dfc74274b66c,0.1059,0.106,0,137,137,157,1,seveneight,,,,,,,,,,,,,,,,,,,,,,,,,,,,,,,,,,,,,,,,,,,,,,,,,,,,,,,,,,,,,,,,,,,,,,,,,,,,,,,,,,,,,,,,,,,,,,,,,,,,,,,,,,,,,,,,,,,,,,,,,,,,,,,,,,,,,,,
,,65414690ff22af1e0e59a54d,2023-12-06_22h33.45.579,kallum_motion_pilot,2023.2.3,Win32,60.0276127,65414690ff22af1e0e59a54d,6560176e4d91f764e2a42c74,657158768340dfc74274b66c,0.1062,0.1064,0,138,138,3,1,twofour,,,,,,,,,,,,,,,,,,,,,,,,,,,,,,,,,,,,,,,,,,,,,,,,,,,,,,,,,,,,,,,,,,,,,,,,,,,,,,,,,,,,,,,,,,,,,,,,,,,,,,,,,,,,,,,,,,,,,,,,,,,,,,,,,,,,,,,
,,65414690ff22af1e0e59a54d,2023-12-06_22h33.45.579,kallum_motion_pilot,2023.2.3,Win32,60.0276127,65414690ff22af1e0e59a54d,6560176e4d91f764e2a42c74,657158768340dfc74274b66c,0.1066,0.1067,0,139,139,75,1,twofour,,,,,,,,,,,,,,,,,,,,,,,,,,,,,,,,,,,,,,,,,,,,,,,,,,,,,,,,,,,,,,,,,,,,,,,,,,,,,,,,,,,,,,,,,,,,,,,,,,,,,,,,,,,,,,,,,,,,,,,,,,,,,,,,,,,,,,,
,,65414690ff22af1e0e59a54d,2023-12-06_22h33.45.579,kallum_motion_pilot,2023.2.3,Win32,60.0276127,65414690ff22af1e0e59a54d,6560176e4d91f764e2a42c74,657158768340dfc74274b66c,0.107,0.1072,0,140,140,69,1,threefour,,,,,,,,,,,,,,,,,,,,,,,,,,,,,,,,,,,,,,,,,,,,,,,,,,,,,,,,,,,,,,,,,,,,,,,,,,,,,,,,,,,,,,,,,,,,,,,,,,,,,,,,,,,,,,,,,,,,,,,,,,,,,,,,,,,,,,,
,,65414690ff22af1e0e59a54d,2023-12-06_22h33.45.579,kallum_motion_pilot,2023.2.3,Win32,60.0276127,65414690ff22af1e0e59a54d,6560176e4d91f764e2a42c74,657158768340dfc74274b66c,0.1074,0.1075,0,141,141,87,1,eightseven,,,,,,,,,,,,,,,,,,,,,,,,,,,,,,,,,,,,,,,,,,,,,,,,,,,,,,,,,,,,,,,,,,,,,,,,,,,,,,,,,,,,,,,,,,,,,,,,,,,,,,,,,,,,,,,,,,,,,,,,,,,,,,,,,,,,,,,
,,65414690ff22af1e0e59a54d,2023-12-06_22h33.45.579,kallum_motion_pilot,2023.2.3,Win32,60.0276127,65414690ff22af1e0e59a54d,6560176e4d91f764e2a42c74,657158768340dfc74274b66c,0.1077,0.1078,0,142,142,57,1,onethree,,,,,,,,,,,,,,,,,,,,,,,,,,,,,,,,,,,,,,,,,,,,,,,,,,,,,,,,,,,,,,,,,,,,,,,,,,,,,,,,,,,,,,,,,,,,,,,,,,,,,,,,,,,,,,,,,,,,,,,,,,,,,,,,,,,,,,,
,,65414690ff22af1e0e59a54d,2023-12-06_22h33.45.579,kallum_motion_pilot,2023.2.3,Win32,60.0276127,65414690ff22af1e0e59a54d,6560176e4d91f764e2a42c74,657158768340dfc74274b66c,0.108,0.1081,0,143,143,146,1,sixfive,,,,,,,,,,,,,,,,,,,,,,,,,,,,,,,,,,,,,,,,,,,,,,,,,,,,,,,,,,,,,,,,,,,,,,,,,,,,,,,,,,,,,,,,,,,,,,,,,,,,,,,,,,,,,,,,,,,,,,,,,,,,,,,,,,,,,,,
,,65414690ff22af1e0e59a54d,2023-12-06_22h33.45.579,kallum_motion_pilot,2023.2.3,Win32,60.0276127,65414690ff22af1e0e59a54d,6560176e4d91f764e2a42c74,657158768340dfc74274b66c,0.1083,0.1085,0,144,144,135,1,eightseven,,,,,,,,,,,,,,,,,,,,,,,,,,,,,,,,,,,,,,,,,,,,,,,,,,,,,,,,,,,,,,,,,,,,,,,,,,,,,,,,,,,,,,,,,,,,,,,,,,,,,,,,,,,,,,,,,,,,,,,,,,,,,,,,,,,,,,,
,,65414690ff22af1e0e59a54d,2023-12-06_22h33.45.579,kallum_motion_pilot,2023.2.3,Win32,60.0276127,65414690ff22af1e0e59a54d,6560176e4d91f764e2a42c74,657158768340dfc74274b66c,0.1087,0.1088,0,145,145,8,1,onetwo,,,,,,,,,,,,,,,,,,,,,,,,,,,,,,,,,,,,,,,,,,,,,,,,,,,,,,,,,,,,,,,,,,,,,,,,,,,,,,,,,,,,,,,,,,,,,,,,,,,,,,,,,,,,,,,,,,,,,,,,,,,,,,,,,,,,,,,
,,65414690ff22af1e0e59a54d,2023-12-06_22h33.45.579,kallum_motion_pilot,2023.2.3,Win32,60.0276127,65414690ff22af1e0e59a54d,6560176e4d91f764e2a42c74,657158768340dfc74274b66c,0.1091,0.1092,0,146,146,133,1,seveneight,,,,,,,,,,,,,,,,,,,,,,,,,,,,,,,,,,,,,,,,,,,,,,,,,,,,,,,,,,,,,,,,,,,,,,,,,,,,,,,,,,,,,,,,,,,,,,,,,,,,,,,,,,,,,,,,,,,,,,,,,,,,,,,,,,,,,,,
,,65414690ff22af1e0e59a54d,2023-12-06_22h33.45.579,kallum_motion_pilot,2023.2.3,Win32,60.0276127,65414690ff22af1e0e59a54d,6560176e4d91f764e2a42c74,657158768340dfc74274b66c,0.1094,0.1096,0,147,147,12,1,threeone,,,,,,,,,,,,,,,,,,,,,,,,,,,,,,,,,,,,,,,,,,,,,,,,,,,,,,,,,,,,,,,,,,,,,,,,,,,,,,,,,,,,,,,,,,,,,,,,,,,,,,,,,,,,,,,,,,,,,,,,,,,,,,,,,,,,,,,
,,65414690ff22af1e0e59a54d,2023-12-06_22h33.45.579,kallum_motion_pilot,2023.2.3,Win32,60.0276127,65414690ff22af1e0e59a54d,6560176e4d91f764e2a42c74,657158768340dfc74274b66c,0.1097,0.1099,0,148,148,43,1,twofour,,,,,,,,,,,,,,,,,,,,,,,,,,,,,,,,,,,,,,,,,,,,,,,,,,,,,,,,,,,,,,,,,,,,,,,,,,,,,,,,,,,,,,,,,,,,,,,,,,,,,,,,,,,,,,,,,,,,,,,,,,,,,,,,,,,,,,,
,,65414690ff22af1e0e59a54d,2023-12-06_22h33.45.579,kallum_motion_pilot,2023.2.3,Win32,60.0276127,65414690ff22af1e0e59a54d,6560176e4d91f764e2a42c74,657158768340dfc74274b66c,0.1101,0.1103,0,149,149,41,1,onethree,,,,,,,,,,,,,,,,,,,,,,,,,,,,,,,,,,,,,,,,,,,,,,,,,,,,,,,,,,,,,,,,,,,,,,,,,,,,,,,,,,,,,,,,,,,,,,,,,,,,,,,,,,,,,,,,,,,,,,,,,,,,,,,,,,,,,,,
,,65414690ff22af1e0e59a54d,2023-12-06_22h33.45.579,kallum_motion_pilot,2023.2.3,Win32,60.0276127,65414690ff22af1e0e59a54d,6560176e4d91f764e2a42c74,657158768340dfc74274b66c,0.1105,0.1107,0,150,150,44,1,threeone,,,,,,,,,,,,,,,,,,,,,,,,,,,,,,,,,,,,,,,,,,,,,,,,,,,,,,,,,,,,,,,,,,,,,,,,,,,,,,,,,,,,,,,,,,,,,,,,,,,,,,,,,,,,,,,,,,,,,,,,,,,,,,,,,,,,,,,
,,65414690ff22af1e0e59a54d,2023-12-06_22h33.45.579,kallum_motion_pilot,2023.2.3,Win32,60.0276127,65414690ff22af1e0e59a54d,6560176e4d91f764e2a42c74,657158768340dfc74274b66c,0.1109,0.111,0,151,151,121,1,fiveseven,,,,,,,,,,,,,,,,,,,,,,,,,,,,,,,,,,,,,,,,,,,,,,,,,,,,,,,,,,,,,,,,,,,,,,,,,,,,,,,,,,,,,,,,,,,,,,,,,,,,,,,,,,,,,,,,,,,,,,,,,,,,,,,,,,,,,,,
,,65414690ff22af1e0e59a54d,2023-12-06_22h33.45.579,kallum_motion_pilot,2023.2.3,Win32,60.0276127,65414690ff22af1e0e59a54d,6560176e4d91f764e2a42c74,657158768340dfc74274b66c,0.1113,0.1115,0,152,152,101,1,seveneight,,,,,,,,,,,,,,,,,,,,,,,,,,,,,,,,,,,,,,,,,,,,,,,,,,,,,,,,,,,,,,,,,,,,,,,,,,,,,,,,,,,,,,,,,,,,,,,,,,,,,,,,,,,,,,,,,,,,,,,,,,,,,,,,,,,,,,,
,,65414690ff22af1e0e59a54d,2023-12-06_22h33.45.579,kallum_motion_pilot,2023.2.3,Win32,60.0276127,65414690ff22af1e0e59a54d,6560176e4d91f764e2a42c74,657158768340dfc74274b66c,0.1117,0.1118,0,153,153,154,1,sixfive,,,,,,,,,,,,,,,,,,,,,,,,,,,,,,,,,,,,,,,,,,,,,,,,,,,,,,,,,,,,,,,,,,,,,,,,,,,,,,,,,,,,,,,,,,,,,,,,,,,,,,,,,,,,,,,,,,,,,,,,,,,,,,,,,,,,,,,
,,65414690ff22af1e0e59a54d,2023-12-06_22h33.45.579,kallum_motion_pilot,2023.2.3,Win32,60.0276127,65414690ff22af1e0e59a54d,6560176e4d91f764e2a42c74,657158768340dfc74274b66c,0.1121,0.1121,0,154,154,0,1,onetwo,,,,,,,,,,,,,,,,,,,,,,,,,,,,,,,,,,,,,,,,,,,,,,,,,,,,,,,,,,,,,,,,,,,,,,,,,,,,,,,,,,,,,,,,,,,,,,,,,,,,,,,,,,,,,,,,,,,,,,,,,,,,,,,,,,,,,,,
,,65414690ff22af1e0e59a54d,2023-12-06_22h33.45.579,kallum_motion_pilot,2023.2.3,Win32,60.0276127,65414690ff22af1e0e59a54d,6560176e4d91f764e2a42c74,657158768340dfc74274b66c,0.1124,0.1125,0,155,155,88,1,fivesix,,,,,,,,,,,,,,,,,,,,,,,,,,,,,,,,,,,,,,,,,,,,,,,,,,,,,,,,,,,,,,,,,,,,,,,,,,,,,,,,,,,,,,,,,,,,,,,,,,,,,,,,,,,,,,,,,,,,,,,,,,,,,,,,,,,,,,,
,,65414690ff22af1e0e59a54d,2023-12-06_22h33.45.579,kallum_motion_pilot,2023.2.3,Win32,60.0276127,65414690ff22af1e0e59a54d,6560176e4d91f764e2a42c74,657158768340dfc74274b66c,0.1127,0.1129,0,156,156,52,1,threeone,,,,,,,,,,,,,,,,,,,,,,,,,,,,,,,,,,,,,,,,,,,,,,,,,,,,,,,,,,,,,,,,,,,,,,,,,,,,,,,,,,,,,,,,,,,,,,,,,,,,,,,,,,,,,,,,,,,,,,,,,,,,,,,,,,,,,,,
,,65414690ff22af1e0e59a54d,2023-12-06_22h33.45.579,kallum_motion_pilot,2023.2.3,Win32,60.0276127,65414690ff22af1e0e59a54d,6560176e4d91f764e2a42c74,657158768340dfc74274b66c,0.1131,0.1132,0,157,157,45,1,threefour,,,,,,,,,,,,,,,,,,,,,,,,,,,,,,,,,,,,,,,,,,,,,,,,,,,,,,,,,,,,,,,,,,,,,,,,,,,,,,,,,,,,,,,,,,,,,,,,,,,,,,,,,,,,,,,,,,,,,,,,,,,,,,,,,,,,,,,
,,65414690ff22af1e0e59a54d,2023-12-06_22h33.45.579,kallum_motion_pilot,2023.2.3,Win32,60.0276127,65414690ff22af1e0e59a54d,6560176e4d91f764e2a42c74,657158768340dfc74274b66c,0.1134,0.1135,0,158,158,58,1,twoone,,,,,,,,,,,,,,,,,,,,,,,,,,,,,,,,,,,,,,,,,,,,,,,,,,,,,,,,,,,,,,,,,,,,,,,,,,,,,,,,,,,,,,,,,,,,,,,,,,,,,,,,,,,,,,,,,,,,,,,,,,,,,,,,,,,,,,,
,,65414690ff22af1e0e59a54d,2023-12-06_22h33.45.579,kallum_motion_pilot,2023.2.3,Win32,60.0276127,65414690ff22af1e0e59a54d,6560176e4d91f764e2a42c74,657158768340dfc74274b66c,0.1137,0.1139,0,159,159,47,1,fourthree,,,,,,,,,,,,,,,,,,,,,,,,,,,,,,,,,,,,,,,,,,,,,,,,,,,,,,,,,,,,,,,,,,,,,,,,,,,,,,,,,,,,,,,,,,,,,,,,,,,,,,,,,,,,,,,,,,,,,,,,,,,,,,,,,,,,,,,
,,65414690ff22af1e0e59a54d,2023-12-06_22h33.45.579,kallum_motion_pilot,2023.2.3,Win32,60.0276127,65414690ff22af1e0e59a54d,6560176e4d91f764e2a42c74,657158768340dfc74274b66c,0.1141,0.1142,0,160,160,16,1,onetwo,,,,,,,,,,,,,,,,,,,,,,,,,,,,,,,,,,,,,,,,,,,,,,,,,,,,,,,,,,,,,,,,,,,,,,,,,,,,,,,,,,,,,,,,,,,,,,,,,,,,,,,,,,,,,,,,,,,,,,,,,,,,,,,,,,,,,,,
,,65414690ff22af1e0e59a54d,2023-12-06_22h33.45.579,kallum_motion_pilot,2023.2.3,Win32,60.0276127,65414690ff22af1e0e59a54d,6560176e4d91f764e2a42c74,657158768340dfc74274b66c,0.1144,0.1145,0,161,161,108,1,sevenfive,,,,,,,,,,,,,,,,,,,,,,,,,,,,,,,,,,,,,,,,,,,,,,,,,,,,,,,,,,,,,,,,,,,,,,,,,,,,,,,,,,,,,,,,,,,,,,,,,,,,,,,,,,,,,,,,,,,,,,,,,,,,,,,,,,,,,,,
,,65414690ff22af1e0e59a54d,2023-12-06_22h33.45.579,kallum_motion_pilot,2023.2.3,Win32,60.0276127,65414690ff22af1e0e59a54d,6560176e4d91f764e2a42c74,657158768340dfc74274b66c,0.1148,0.1148,1,0,162,125,1,seveneight,,,,,,,,,,,,,,,,,,,,,,,,,,,,,,,,,,,,,,,,,,,,,,,,,,,,,,,,,,,,,,,,,,,,,,,,,,,,,,,,,,,,,,,,,,,,,,,,,,,,,,,,,,,,,,,,,,,,,,,,,,,,,,,,,,,,,,,
,,65414690ff22af1e0e59a54d,2023-12-06_22h33.45.579,kallum_motion_pilot,2023.2.3,Win32,60.0276127,65414690ff22af1e0e59a54d,6560176e4d91f764e2a42c74,657158768340dfc74274b66c,0.1151,0.1152,1,1,163,69,1,threefour,,,,,,,,,,,,,,,,,,,,,,,,,,,,,,,,,,,,,,,,,,,,,,,,,,,,,,,,,,,,,,,,,,,,,,,,,,,,,,,,,,,,,,,,,,,,,,,,,,,,,,,,,,,,,,,,,,,,,,,,,,,,,,,,,,,,,,,
,,65414690ff22af1e0e59a54d,2023-12-06_22h33.45.579,kallum_motion_pilot,2023.2.3,Win32,60.0276127,65414690ff22af1e0e59a54d,6560176e4d91f764e2a42c74,657158768340dfc74274b66c,0.1154,0.1156,1,2,164,1,1,onethree,,,,,,,,,,,,,,,,,,,,,,,,,,,,,,,,,,,,,,,,,,,,,,,,,,,,,,,,,,,,,,,,,,,,,,,,,,,,,,,,,,,,,,,,,,,,,,,,,,,,,,,,,,,,,,,,,,,,,,,,,,,,,,,,,,,,,,,
,,65414690ff22af1e0e59a54d,2023-12-06_22h33.45.579,kallum_motion_pilot,2023.2.3,Win32,60.0276127,65414690ff22af1e0e59a54d,6560176e4d91f764e2a42c74,657158768340dfc74274b66c,0.1158,0.1159,1,3,165,68,1,threeone,,,,,,,,,,,,,,,,,,,,,,,,,,,,,,,,,,,,,,,,,,,,,,,,,,,,,,,,,,,,,,,,,,,,,,,,,,,,,,,,,,,,,,,,,,,,,,,,,,,,,,,,,,,,,,,,,,,,,,,,,,,,,,,,,,,,,,,
,,65414690ff22af1e0e59a54d,2023-12-06_22h33.45.579,kallum_motion_pilot,2023.2.3,Win32,60.0276127,65414690ff22af1e0e59a54d,6560176e4d91f764e2a42c74,657158768340dfc74274b66c,0.116,0.1162,1,4,166,132,1,sevenfive,,,,,,,,,,,,,,,,,,,,,,,,,,,,,,,,,,,,,,,,,,,,,,,,,,,,,,,,,,,,,,,,,,,,,,,,,,,,,,,,,,,,,,,,,,,,,,,,,,,,,,,,,,,,,,,,,,,,,,,,,,,,,,,,,,,,,,,
,,65414690ff22af1e0e59a54d,2023-12-06_22h33.45.579,kallum_motion_pilot,2023.2.3,Win32,60.0276127,65414690ff22af1e0e59a54d,6560176e4d91f764e2a42c74,657158768340dfc74274b66c,0.1164,0.1165,1,5,167,121,1,fiveseven,,,,,,,,,,,,,,,,,,,,,,,,,,,,,,,,,,,,,,,,,,,,,,,,,,,,,,,,,,,,,,,,,,,,,,,,,,,,,,,,,,,,,,,,,,,,,,,,,,,,,,,,,,,,,,,,,,,,,,,,,,,,,,,,,,,,,,,
,,65414690ff22af1e0e59a54d,2023-12-06_22h33.45.579,kallum_motion_pilot,2023.2.3,Win32,60.0276127,65414690ff22af1e0e59a54d,6560176e4d91f764e2a42c74,657158768340dfc74274b66c,0.1168,0.1169,1,6,168,57,1,onethree,,,,,,,,,,,,,,,,,,,,,,,,,,,,,,,,,,,,,,,,,,,,,,,,,,,,,,,,,,,,,,,,,,,,,,,,,,,,,,,,,,,,,,,,,,,,,,,,,,,,,,,,,,,,,,,,,,,,,,,,,,,,,,,,,,,,,,,
,,65414690ff22af1e0e59a54d,2023-12-06_22h33.45.579,kallum_motion_pilot,2023.2.3,Win32,60.0276127,65414690ff22af1e0e59a54d,6560176e4d91f764e2a42c74,657158768340dfc74274b66c,0.1172,0.1175,1,7,169,157,1,seveneight,,,,,,,,,,,,,,,,,,,,,,,,,,,,,,,,,,,,,,,,,,,,,,,,,,,,,,,,,,,,,,,,,,,,,,,,,,,,,,,,,,,,,,,,,,,,,,,,,,,,,,,,,,,,,,,,,,,,,,,,,,,,,,,,,,,,,,,
,,65414690ff22af1e0e59a54d,2023-12-06_22h33.45.579,kallum_motion_pilot,2023.2.3,Win32,60.0276127,65414690ff22af1e0e59a54d,6560176e4d91f764e2a42c74,657158768340dfc74274b66c,0.1177,0.1178,1,8,170,110,1,eightsix,,,,,,,,,,,,,,,,,,,,,,,,,,,,,,,,,,,,,,,,,,,,,,,,,,,,,,,,,,,,,,,,,,,,,,,,,,,,,,,,,,,,,,,,,,,,,,,,,,,,,,,,,,,,,,,,,,,,,,,,,,,,,,,,,,,,,,,
,,65414690ff22af1e0e59a54d,2023-12-06_22h33.45.579,kallum_motion_pilot,2023.2.3,Win32,60.0276127,65414690ff22af1e0e59a54d,6560176e4d91f764e2a42c74,657158768340dfc74274b66c,0.1183,0.1185,1,9,171,97,1,fiveseven,,,,,,,,,,,,,,,,,,,,,,,,,,,,,,,,,,,,,,,,,,,,,,,,,,,,,,,,,,,,,,,,,,,,,,,,,,,,,,,,,,,,,,,,,,,,,,,,,,,,,,,,,,,,,,,,,,,,,,,,,,,,,,,,,,,,,,,
,,65414690ff22af1e0e59a54d,2023-12-06_22h33.45.579,kallum_motion_pilot,2023.2.3,Win32,60.0276127,65414690ff22af1e0e59a54d,6560176e4d91f764e2a42c74,657158768340dfc74274b66c,0.1187,0.1189,1,10,172,67,1,twofour,,,,,,,,,,,,,,,,,,,,,,,,,,,,,,,,,,,,,,,,,,,,,,,,,,,,,,,,,,,,,,,,,,,,,,,,,,,,,,,,,,,,,,,,,,,,,,,,,,,,,,,,,,,,,,,,,,,,,,,,,,,,,,,,,,,,,,,
,,65414690ff22af1e0e59a54d,2023-12-06_22h33.45.579,kallum_motion_pilot,2023.2.3,Win32,60.0276127,65414690ff22af1e0e59a54d,6560176e4d91f764e2a42c74,657158768340dfc74274b66c,0.1191,0.1193,1,11,173,94,1,eightsix,,,,,,,,,,,,,,,,,,,,,,,,,,,,,,,,,,,,,,,,,,,,,,,,,,,,,,,,,,,,,,,,,,,,,,,,,,,,,,,,,,,,,,,,,,,,,,,,,,,,,,,,,,,,,,,,,,,,,,,,,,,,,,,,,,,,,,,
,,65414690ff22af1e0e59a54d,2023-12-06_22h33.45.579,kallum_motion_pilot,2023.2.3,Win32,60.0276127,65414690ff22af1e0e59a54d,6560176e4d91f764e2a42c74,657158768340dfc74274b66c,0.1196,0.1197,1,12,174,72,1,onetwo,,,,,,,,,,,,,,,,,,,,,,,,,,,,,,,,,,,,,,,,,,,,,,,,,,,,,,,,,,,,,,,,,,,,,,,,,,,,,,,,,,,,,,,,,,,,,,,,,,,,,,,,,,,,,,,,,,,,,,,,,,,,,,,,,,,,,,,
,,65414690ff22af1e0e59a54d,2023-12-06_22h33.45.579,kallum_motion_pilot,2023.2.3,Win32,60.0276127,65414690ff22af1e0e59a54d,6560176e4d91f764e2a42c74,657158768340dfc74274b66c,0.1199,0.12,1,13,175,33,1,onethree,,,,,,,,,,,,,,,,,,,,,,,,,,,,,,,,,,,,,,,,,,,,,,,,,,,,,,,,,,,,,,,,,,,,,,,,,,,,,,,,,,,,,,,,,,,,,,,,,,,,,,,,,,,,,,,,,,,,,,,,,,,,,,,,,,,,,,,
,,65414690ff22af1e0e59a54d,2023-12-06_22h33.45.579,kallum_motion_pilot,2023.2.3,Win32,60.0276127,65414690ff22af1e0e59a54d,6560176e4d91f764e2a42c74,657158768340dfc74274b66c,0.1202,0.1204,1,14,176,55,1,fourthree,,,,,,,,,,,,,,,,,,,,,,,,,,,,,,,,,,,,,,,,,,,,,,,,,,,,,,,,,,,,,,,,,,,,,,,,,,,,,,,,,,,,,,,,,,,,,,,,,,,,,,,,,,,,,,,,,,,,,,,,,,,,,,,,,,,,,,,
,,65414690ff22af1e0e59a54d,2023-12-06_22h33.45.579,kallum_motion_pilot,2023.2.3,Win32,60.0276127,65414690ff22af1e0e59a54d,6560176e4d91f764e2a42c74,657158768340dfc74274b66c,0.1205,0.1207,1,15,177,24,1,onetwo,,,,,,,,,,,,,,,,,,,,,,,,,,,,,,,,,,,,,,,,,,,,,,,,,,,,,,,,,,,,,,,,,,,,,,,,,,,,,,,,,,,,,,,,,,,,,,,,,,,,,,,,,,,,,,,,,,,,,,,,,,,,,,,,,,,,,,,
,,65414690ff22af1e0e59a54d,2023-12-06_22h33.45.579,kallum_motion_pilot,2023.2.3,Win32,60.0276127,65414690ff22af1e0e59a54d,6560176e4d91f764e2a42c74,657158768340dfc74274b66c,0.1209,0.1211,1,16,178,79,1,eightseven,,,,,,,,,,,,,,,,,,,,,,,,,,,,,,,,,,,,,,,,,,,,,,,,,,,,,,,,,,,,,,,,,,,,,,,,,,,,,,,,,,,,,,,,,,,,,,,,,,,,,,,,,,,,,,,,,,,,,,,,,,,,,,,,,,,,,,,
,,65414690ff22af1e0e59a54d,2023-12-06_22h33.45.579,kallum_motion_pilot,2023.2.3,Win32,60.0276127,65414690ff22af1e0e59a54d,6560176e4d91f764e2a42c74,657158768340dfc74274b66c,0.1212,0.1214,1,17,179,53,1,threefour,,,,,,,,,,,,,,,,,,,,,,,,,,,,,,,,,,,,,,,,,,,,,,,,,,,,,,,,,,,,,,,,,,,,,,,,,,,,,,,,,,,,,,,,,,,,,,,,,,,,,,,,,,,,,,,,,,,,,,,,,,,,,,,,,,,,,,,
,,65414690ff22af1e0e59a54d,2023-12-06_22h33.45.579,kallum_motion_pilot,2023.2.3,Win32,60.0276127,65414690ff22af1e0e59a54d,6560176e4d91f764e2a42c74,657158768340dfc74274b66c,0.1216,0.1216,1,18,180,99,1,sixeight,,,,,,,,,,,,,,,,,,,,,,,,,,,,,,,,,,,,,,,,,,,,,,,,,,,,,,,,,,,,,,,,,,,,,,,,,,,,,,,,,,,,,,,,,,,,,,,,,,,,,,,,,,,,,,,,,,,,,,,,,,,,,,,,,,,,,,,
,,65414690ff22af1e0e59a54d,2023-12-06_22h33.45.579,kallum_motion_pilot,2023.2.3,Win32,60.0276127,65414690ff22af1e0e59a54d,6560176e4d91f764e2a42c74,657158768340dfc74274b66c,0.1219,0.122,1,19,181,49,1,onethree,,,,,,,,,,,,,,,,,,,,,,,,,,,,,,,,,,,,,,,,,,,,,,,,,,,,,,,,,,,,,,,,,,,,,,,,,,,,,,,,,,,,,,,,,,,,,,,,,,,,,,,,,,,,,,,,,,,,,,,,,,,,,,,,,,,,,,,
,,65414690ff22af1e0e59a54d,2023-12-06_22h33.45.579,kallum_motion_pilot,2023.2.3,Win32,60.0276127,65414690ff22af1e0e59a54d,6560176e4d91f764e2a42c74,657158768340dfc74274b66c,0.1222,0.1223,1,20,182,136,1,fivesix,,,,,,,,,,,,,,,,,,,,,,,,,,,,,,,,,,,,,,,,,,,,,,,,,,,,,,,,,,,,,,,,,,,,,,,,,,,,,,,,,,,,,,,,,,,,,,,,,,,,,,,,,,,,,,,,,,,,,,,,,,,,,,,,,,,,,,,
,,65414690ff22af1e0e59a54d,2023-12-06_22h33.45.579,kallum_motion_pilot,2023.2.3,Win32,60.0276127,65414690ff22af1e0e59a54d,6560176e4d91f764e2a42c74,657158768340dfc74274b66c,0.1227,0.1229,1,21,183,100,1,sevenfive,,,,,,,,,,,,,,,,,,,,,,,,,,,,,,,,,,,,,,,,,,,,,,,,,,,,,,,,,,,,,,,,,,,,,,,,,,,,,,,,,,,,,,,,,,,,,,,,,,,,,,,,,,,,,,,,,,,,,,,,,,,,,,,,,,,,,,,
,,65414690ff22af1e0e59a54d,2023-12-06_22h33.45.579,kallum_motion_pilot,2023.2.3,Win32,60.0276127,65414690ff22af1e0e59a54d,6560176e4d91f764e2a42c74,657158768340dfc74274b66c,0.1231,0.1233,1,22,184,20,1,threeone,,,,,,,,,,,,,,,,,,,,,,,,,,,,,,,,,,,,,,,,,,,,,,,,,,,,,,,,,,,,,,,,,,,,,,,,,,,,,,,,,,,,,,,,,,,,,,,,,,,,,,,,,,,,,,,,,,,,,,,,,,,,,,,,,,,,,,,
,,65414690ff22af1e0e59a54d,2023-12-06_22h33.45.579,kallum_motion_pilot,2023.2.3,Win32,60.0276127,65414690ff22af1e0e59a54d,6560176e4d91f764e2a42c74,657158768340dfc74274b66c,0.1235,0.1236,1,23,185,38,1,fourtwo,,,,,,,,,,,,,,,,,,,,,,,,,,,,,,,,,,,,,,,,,,,,,,,,,,,,,,,,,,,,,,,,,,,,,,,,,,,,,,,,,,,,,,,,,,,,,,,,,,,,,,,,,,,,,,,,,,,,,,,,,,,,,,,,,,,,,,,
,,65414690ff22af1e0e59a54d,2023-12-06_22h33.45.579,kallum_motion_pilot,2023.2.3,Win32,60.0276127,65414690ff22af1e0e59a54d,6560176e4d91f764e2a42c74,657158768340dfc74274b66c,0.1239,0.124,1,24,186,17,1,onethree,,,,,,,,,,,,,,,,,,,,,,,,,,,,,,,,,,,,,,,,,,,,,,,,,,,,,,,,,,,,,,,,,,,,,,,,,,,,,,,,,,,,,,,,,,,,,,,,,,,,,,,,,,,,,,,,,,,,,,,,,,,,,,,,,,,,,,,
,,65414690ff22af1e0e59a54d,2023-12-06_22h33.45.579,kallum_motion_pilot,2023.2.3,Win32,60.0276127,65414690ff22af1e0e59a54d,6560176e4d91f764e2a42c74,657158768340dfc74274b66c,0.1244,0.1246,1,25,187,27,1,twofour,,,,,,,,,,,,,,,,,,,,,,,,,,,,,,,,,,,,,,,,,,,,,,,,,,,,,,,,,,,,,,,,,,,,,,,,,,,,,,,,,,,,,,,,,,,,,,,,,,,,,,,,,,,,,,,,,,,,,,,,,,,,,,,,,,,,,,,
,,65414690ff22af1e0e59a54d,2023-12-06_22h33.45.579,kallum_motion_pilot,2023.2.3,Win32,60.0276127,65414690ff22af1e0e59a54d,6560176e4d91f764e2a42c74,657158768340dfc74274b66c,0.125,0.125,1,26,188,138,1,sixfive,,,,,,,,,,,,,,,,,,,,,,,,,,,,,,,,,,,,,,,,,,,,,,,,,,,,,,,,,,,,,,,,,,,,,,,,,,,,,,,,,,,,,,,,,,,,,,,,,,,,,,,,,,,,,,,,,,,,,,,,,,,,,,,,,,,,,,,
,,65414690ff22af1e0e59a54d,2023-12-06_22h33.45.579,kallum_motion_pilot,2023.2.3,Win32,60.0276127,65414690ff22af1e0e59a54d,6560176e4d91f764e2a42c74,657158768340dfc74274b66c,0.1253,0.1254,1,27,189,9,1,onethree,,,,,,,,,,,,,,,,,,,,,,,,,,,,,,,,,,,,,,,,,,,,,,,,,,,,,,,,,,,,,,,,,,,,,,,,,,,,,,,,,,,,,,,,,,,,,,,,,,,,,,,,,,,,,,,,,,,,,,,,,,,,,,,,,,,,,,,
,,65414690ff22af1e0e59a54d,2023-12-06_22h33.45.579,kallum_motion_pilot,2023.2.3,Win32,60.0276127,65414690ff22af1e0e59a54d,6560176e4d91f764e2a42c74,657158768340dfc74274b66c,0.1257,0.1259,1,28,190,130,1,sixfive,,,,,,,,,,,,,,,,,,,,,,,,,,,,,,,,,,,,,,,,,,,,,,,,,,,,,,,,,,,,,,,,,,,,,,,,,,,,,,,,,,,,,,,,,,,,,,,,,,,,,,,,,,,,,,,,,,,,,,,,,,,,,,,,,,,,,,,
,,65414690ff22af1e0e59a54d,2023-12-06_22h33.45.579,kallum_motion_pilot,2023.2.3,Win32,60.0276127,65414690ff22af1e0e59a54d,6560176e4d91f764e2a42c74,657158768340dfc74274b66c,0.126,0.1262,1,29,191,42,1,twoone,,,,,,,,,,,,,,,,,,,,,,,,,,,,,,,,,,,,,,,,,,,,,,,,,,,,,,,,,,,,,,,,,,,,,,,,,,,,,,,,,,,,,,,,,,,,,,,,,,,,,,,,,,,,,,,,,,,,,,,,,,,,,,,,,,,,,,,
,,65414690ff22af1e0e59a54d,2023-12-06_22h33.45.579,kallum_motion_pilot,2023.2.3,Win32,60.0276127,65414690ff22af1e0e59a54d,6560176e4d91f764e2a42c74,657158768340dfc74274b66c,0.1263,0.1265,1,30,192,5,1,threefour,,,,,,,,,,,,,,,,,,,,,,,,,,,,,,,,,,,,,,,,,,,,,,,,,,,,,,,,,,,,,,,,,,,,,,,,,,,,,,,,,,,,,,,,,,,,,,,,,,,,,,,,,,,,,,,,,,,,,,,,,,,,,,,,,,,,,,,
,,65414690ff22af1e0e59a54d,2023-12-06_22h33.45.579,kallum_motion_pilot,2023.2.3,Win32,60.0276127,65414690ff22af1e0e59a54d,6560176e4d91f764e2a42c74,657158768340dfc74274b66c,0.1267,0.1269,1,31,193,143,1,eightseven,,,,,,,,,,,,,,,,,,,,,,,,,,,,,,,,,,,,,,,,,,,,,,,,,,,,,,,,,,,,,,,,,,,,,,,,,,,,,,,,,,,,,,,,,,,,,,,,,,,,,,,,,,,,,,,,,,,,,,,,,,,,,,,,,,,,,,,
,,65414690ff22af1e0e59a54d,2023-12-06_22h33.45.579,kallum_motion_pilot,2023.2.3,Win32,60.0276127,65414690ff22af1e0e59a54d,6560176e4d91f764e2a42c74,657158768340dfc74274b66c,0.1271,0.1273,1,32,194,11,1,twofour,,,,,,,,,,,,,,,,,,,,,,,,,,,,,,,,,,,,,,,,,,,,,,,,,,,,,,,,,,,,,,,,,,,,,,,,,,,,,,,,,,,,,,,,,,,,,,,,,,,,,,,,,,,,,,,,,,,,,,,,,,,,,,,,,,,,,,,
,,65414690ff22af1e0e59a54d,2023-12-06_22h33.45.579,kallum_motion_pilot,2023.2.3,Win32,60.0276127,65414690ff22af1e0e59a54d,6560176e4d91f764e2a42c74,657158768340dfc74274b66c,0.1274,0.1276,1,33,195,117,1,seveneight,,,,,,,,,,,,,,,,,,,,,,,,,,,,,,,,,,,,,,,,,,,,,,,,,,,,,,,,,,,,,,,,,,,,,,,,,,,,,,,,,,,,,,,,,,,,,,,,,,,,,,,,,,,,,,,,,,,,,,,,,,,,,,,,,,,,,,,
,,65414690ff22af1e0e59a54d,2023-12-06_22h33.45.579,kallum_motion_pilot,2023.2.3,Win32,60.0276127,65414690ff22af1e0e59a54d,6560176e4d91f764e2a42c74,657158768340dfc74274b66c,0.1278,0.1279,1,34,196,95,1,eightseven,,,,,,,,,,,,,,,,,,,,,,,,,,,,,,,,,,,,,,,,,,,,,,,,,,,,,,,,,,,,,,,,,,,,,,,,,,,,,,,,,,,,,,,,,,,,,,,,,,,,,,,,,,,,,,,,,,,,,,,,,,,,,,,,,,,,,,,
,,65414690ff22af1e0e59a54d,2023-12-06_22h33.45.579,kallum_motion_pilot,2023.2.3,Win32,60.0276127,65414690ff22af1e0e59a54d,6560176e4d91f764e2a42c74,657158768340dfc74274b66c,0.1281,0.1282,1,35,197,19,1,twofour,,,,,,,,,,,,,,,,,,,,,,,,,,,,,,,,,,,,,,,,,,,,,,,,,,,,,,,,,,,,,,,,,,,,,,,,,,,,,,,,,,,,,,,,,,,,,,,,,,,,,,,,,,,,,,,,,,,,,,,,,,,,,,,,,,,,,,,
,,65414690ff22af1e0e59a54d,2023-12-06_22h33.45.579,kallum_motion_pilot,2023.2.3,Win32,60.0276127,65414690ff22af1e0e59a54d,6560176e4d91f764e2a42c74,657158768340dfc74274b66c,0.1285,0.1285,1,36,198,90,1,sixfive,,,,,,,,,,,,,,,,,,,,,,,,,,,,,,,,,,,,,,,,,,,,,,,,,,,,,,,,,,,,,,,,,,,,,,,,,,,,,,,,,,,,,,,,,,,,,,,,,,,,,,,,,,,,,,,,,,,,,,,,,,,,,,,,,,,,,,,
,,65414690ff22af1e0e59a54d,2023-12-06_22h33.45.579,kallum_motion_pilot,2023.2.3,Win32,60.0276127,65414690ff22af1e0e59a54d,6560176e4d91f764e2a42c74,657158768340dfc74274b66c,0.1288,0.1289,1,37,199,48,1,onetwo,,,,,,,,,,,,,,,,,,,,,,,,,,,,,,,,,,,,,,,,,,,,,,,,,,,,,,,,,,,,,,,,,,,,,,,,,,,,,,,,,,,,,,,,,,,,,,,,,,,,,,,,,,,,,,,,,,,,,,,,,,,,,,,,,,,,,,,
,,65414690ff22af1e0e59a54d,2023-12-06_22h33.45.579,kallum_motion_pilot,2023.2.3,Win32,60.0276127,65414690ff22af1e0e59a54d,6560176e4d91f764e2a42c74,657158768340dfc74274b66c,0.1291,0.1293,1,38,200,161,1,fiveseven,,,,,,,,,,,,,,,,,,,,,,,,,,,,,,,,,,,,,,,,,,,,,,,,,,,,,,,,,,,,,,,,,,,,,,,,,,,,,,,,,,,,,,,,,,,,,,,,,,,,,,,,,,,,,,,,,,,,,,,,,,,,,,,,,,,,,,,
,,65414690ff22af1e0e59a54d,2023-12-06_22h33.45.579,kallum_motion_pilot,2023.2.3,Win32,60.0276127,65414690ff22af1e0e59a54d,6560176e4d91f764e2a42c74,657158768340dfc74274b66c,0.1294,0.1296,1,39,201,91,1,sixeight,,,,,,,,,,,,,,,,,,,,,,,,,,,,,,,,,,,,,,,,,,,,,,,,,,,,,,,,,,,,,,,,,,,,,,,,,,,,,,,,,,,,,,,,,,,,,,,,,,,,,,,,,,,,,,,,,,,,,,,,,,,,,,,,,,,,,,,
,,65414690ff22af1e0e59a54d,2023-12-06_22h33.45.579,kallum_motion_pilot,2023.2.3,Win32,60.0276127,65414690ff22af1e0e59a54d,6560176e4d91f764e2a42c74,657158768340dfc74274b66c,0.1298,0.1299,1,40,202,133,1,seveneight,,,,,,,,,,,,,,,,,,,,,,,,,,,,,,,,,,,,,,,,,,,,,,,,,,,,,,,,,,,,,,,,,,,,,,,,,,,,,,,,,,,,,,,,,,,,,,,,,,,,,,,,,,,,,,,,,,,,,,,,,,,,,,,,,,,,,,,
,,65414690ff22af1e0e59a54d,2023-12-06_22h33.45.579,kallum_motion_pilot,2023.2.3,Win32,60.0276127,65414690ff22af1e0e59a54d,6560176e4d91f764e2a42c74,657158768340dfc74274b66c,0.1303,0.1305,1,41,203,145,1,fiveseven,,,,,,,,,,,,,,,,,,,,,,,,,,,,,,,,,,,,,,,,,,,,,,,,,,,,,,,,,,,,,,,,,,,,,,,,,,,,,,,,,,,,,,,,,,,,,,,,,,,,,,,,,,,,,,,,,,,,,,,,,,,,,,,,,,,,,,,
,,65414690ff22af1e0e59a54d,2023-12-06_22h33.45.579,kallum_motion_pilot,2023.2.3,Win32,60.0276127,65414690ff22af1e0e59a54d,6560176e4d91f764e2a42c74,657158768340dfc74274b66c,0.1308,0.131,1,42,204,65,1,onethree,,,,,,,,,,,,,,,,,,,,,,,,,,,,,,,,,,,,,,,,,,,,,,,,,,,,,,,,,,,,,,,,,,,,,,,,,,,,,,,,,,,,,,,,,,,,,,,,,,,,,,,,,,,,,,,,,,,,,,,,,,,,,,,,,,,,,,,
,,65414690ff22af1e0e59a54d,2023-12-06_22h33.45.579,kallum_motion_pilot,2023.2.3,Win32,60.0276127,65414690ff22af1e0e59a54d,6560176e4d91f764e2a42c74,657158768340dfc74274b66c,0.1313,0.1315,1,43,205,147,1,sixeight,,,,,,,,,,,,,,,,,,,,,,,,,,,,,,,,,,,,,,,,,,,,,,,,,,,,,,,,,,,,,,,,,,,,,,,,,,,,,,,,,,,,,,,,,,,,,,,,,,,,,,,,,,,,,,,,,,,,,,,,,,,,,,,,,,,,,,,
,,65414690ff22af1e0e59a54d,2023-12-06_22h33.45.579,kallum_motion_pilot,2023.2.3,Win32,60.0276127,65414690ff22af1e0e59a54d,6560176e4d91f764e2a42c74,657158768340dfc74274b66c,0.1316,0.1318,1,44,206,80,1,fivesix,,,,,,,,,,,,,,,,,,,,,,,,,,,,,,,,,,,,,,,,,,,,,,,,,,,,,,,,,,,,,,,,,,,,,,,,,,,,,,,,,,,,,,,,,,,,,,,,,,,,,,,,,,,,,,,,,,,,,,,,,,,,,,,,,,,,,,,
,,65414690ff22af1e0e59a54d,2023-12-06_22h33.45.579,kallum_motion_pilot,2023.2.3,Win32,60.0276127,65414690ff22af1e0e59a54d,6560176e4d91f764e2a42c74,657158768340dfc74274b66c,0.1319,0.1322,1,45,207,146,1,sixfive,,,,,,,,,,,,,,,,,,,,,,,,,,,,,,,,,,,,,,,,,,,,,,,,,,,,,,,,,,,,,,,,,,,,,,,,,,,,,,,,,,,,,,,,,,,,,,,,,,,,,,,,,,,,,,,,,,,,,,,,,,,,,,,,,,,,,,,
,,65414690ff22af1e0e59a54d,2023-12-06_22h33.45.579,kallum_motion_pilot,2023.2.3,Win32,60.0276127,65414690ff22af1e0e59a54d,6560176e4d91f764e2a42c74,657158768340dfc74274b66c,0.1324,0.1326,1,46,208,131,1,sixeight,,,,,,,,,,,,,,,,,,,,,,,,,,,,,,,,,,,,,,,,,,,,,,,,,,,,,,,,,,,,,,,,,,,,,,,,,,,,,,,,,,,,,,,,,,,,,,,,,,,,,,,,,,,,,,,,,,,,,,,,,,,,,,,,,,,,,,,
,,65414690ff22af1e0e59a54d,2023-12-06_22h33.45.579,kallum_motion_pilot,2023.2.3,Win32,60.0276127,65414690ff22af1e0e59a54d,6560176e4d91f764e2a42c74,657158768340dfc74274b66c,0.1327,0.1329,1,47,209,102,1,eightsix,,,,,,,,,,,,,,,,,,,,,,,,,,,,,,,,,,,,,,,,,,,,,,,,,,,,,,,,,,,,,,,,,,,,,,,,,,,,,,,,,,,,,,,,,,,,,,,,,,,,,,,,,,,,,,,,,,,,,,,,,,,,,,,,,,,,,,,
,,65414690ff22af1e0e59a54d,2023-12-06_22h33.45.579,kallum_motion_pilot,2023.2.3,Win32,60.0276127,65414690ff22af1e0e59a54d,6560176e4d91f764e2a42c74,657158768340dfc74274b66c,0.1331,0.1333,1,48,210,141,1,seveneight,,,,,,,,,,,,,,,,,,,,,,,,,,,,,,,,,,,,,,,,,,,,,,,,,,,,,,,,,,,,,,,,,,,,,,,,,,,,,,,,,,,,,,,,,,,,,,,,,,,,,,,,,,,,,,,,,,,,,,,,,,,,,,,,,,,,,,,
,,65414690ff22af1e0e59a54d,2023-12-06_22h33.45.579,kallum_motion_pilot,2023.2.3,Win32,60.0276127,65414690ff22af1e0e59a54d,6560176e4d91f764e2a42c74,657158768340dfc74274b66c,0.1335,0.1337,1,49,211,116,1,sevenfive,,,,,,,,,,,,,,,,,,,,,,,,,,,,,,,,,,,,,,,,,,,,,,,,,,,,,,,,,,,,,,,,,,,,,,,,,,,,,,,,,,,,,,,,,,,,,,,,,,,,,,,,,,,,,,,,,,,,,,,,,,,,,,,,,,,,,,,
,,65414690ff22af1e0e59a54d,2023-12-06_22h33.45.579,kallum_motion_pilot,2023.2.3,Win32,60.0276127,65414690ff22af1e0e59a54d,6560176e4d91f764e2a42c74,657158768340dfc74274b66c,0.1339,0.1341,1,50,212,119,1,eightseven,,,,,,,,,,,,,,,,,,,,,,,,,,,,,,,,,,,,,,,,,,,,,,,,,,,,,,,,,,,,,,,,,,,,,,,,,,,,,,,,,,,,,,,,,,,,,,,,,,,,,,,,,,,,,,,,,,,,,,,,,,,,,,,,,,,,,,,
,,65414690ff22af1e0e59a54d,2023-12-06_22h33.45.579,kallum_motion_pilot,2023.2.3,Win32,60.0276127,65414690ff22af1e0e59a54d,6560176e4d91f764e2a42c74,657158768340dfc74274b66c,0.1343,0.1345,1,51,213,59,1,twofour,,,,,,,,,,,,,,,,,,,,,,,,,,,,,,,,,,,,,,,,,,,,,,,,,,,,,,,,,,,,,,,,,,,,,,,,,,,,,,,,,,,,,,,,,,,,,,,,,,,,,,,,,,,,,,,,,,,,,,,,,,,,,,,,,,,,,,,
,,65414690ff22af1e0e59a54d,2023-12-06_22h33.45.579,kallum_motion_pilot,2023.2.3,Win32,60.0276127,65414690ff22af1e0e59a54d,6560176e4d91f764e2a42c74,657158768340dfc74274b66c,0.1348,0.1349,1,52,214,8,1,onetwo,,,,,,,,,,,,,,,,,,,,,,,,,,,,,,,,,,,,,,,,,,,,,,,,,,,,,,,,,,,,,,,,,,,,,,,,,,,,,,,,,,,,,,,,,,,,,,,,,,,,,,,,,,,,,,,,,,,,,,,,,,,,,,,,,,,,,,,
,,65414690ff22af1e0e59a54d,2023-12-06_22h33.45.579,kallum_motion_pilot,2023.2.3,Win32,60.0276127,65414690ff22af1e0e59a54d,6560176e4d91f764e2a42c74,657158768340dfc74274b66c,0.1352,0.1354,1,53,215,153,1,fiveseven,,,,,,,,,,,,,,,,,,,,,,,,,,,,,,,,,,,,,,,,,,,,,,,,,,,,,,,,,,,,,,,,,,,,,,,,,,,,,,,,,,,,,,,,,,,,,,,,,,,,,,,,,,,,,,,,,,,,,,,,,,,,,,,,,,,,,,,
,,65414690ff22af1e0e59a54d,2023-12-06_22h33.45.579,kallum_motion_pilot,2023.2.3,Win32,60.0276127,65414690ff22af1e0e59a54d,6560176e4d91f764e2a42c74,657158768340dfc74274b66c,0.1356,0.1358,1,54,216,44,1,threeone,,,,,,,,,,,,,,,,,,,,,,,,,,,,,,,,,,,,,,,,,,,,,,,,,,,,,,,,,,,,,,,,,,,,,,,,,,,,,,,,,,,,,,,,,,,,,,,,,,,,,,,,,,,,,,,,,,,,,,,,,,,,,,,,,,,,,,,
,,65414690ff22af1e0e59a54d,2023-12-06_22h33.45.579,kallum_motion_pilot,2023.2.3,Win32,60.0276127,65414690ff22af1e0e59a54d,6560176e4d91f764e2a42c74,657158768340dfc74274b66c,0.136,0.1363,1,55,217,160,1,fivesix,,,,,,,,,,,,,,,,,,,,,,,,,,,,,,,,,,,,,,,,,,,,,,,,,,,,,,,,,,,,,,,,,,,,,,,,,,,,,,,,,,,,,,,,,,,,,,,,,,,,,,,,,,,,,,,,,,,,,,,,,,,,,,,,,,,,,,,
,,65414690ff22af1e0e59a54d,2023-12-06_22h33.45.579,kallum_motion_pilot,2023.2.3,Win32,60.0276127,65414690ff22af1e0e59a54d,6560176e4d91f764e2a42c74,657158768340dfc74274b66c,0.1365,0.1366,1,56,218,156,1,sevenfive,,,,,,,,,,,,,,,,,,,,,,,,,,,,,,,,,,,,,,,,,,,,,,,,,,,,,,,,,,,,,,,,,,,,,,,,,,,,,,,,,,,,,,,,,,,,,,,,,,,,,,,,,,,,,,,,,,,,,,,,,,,,,,,,,,,,,,,
,,65414690ff22af1e0e59a54d,2023-12-06_22h33.45.579,kallum_motion_pilot,2023.2.3,Win32,60.0276127,65414690ff22af1e0e59a54d,6560176e4d91f764e2a42c74,657158768340dfc74274b66c,0.1369,0.1371,1,57,219,54,1,fourtwo,,,,,,,,,,,,,,,,,,,,,,,,,,,,,,,,,,,,,,,,,,,,,,,,,,,,,,,,,,,,,,,,,,,,,,,,,,,,,,,,,,,,,,,,,,,,,,,,,,,,,,,,,,,,,,,,,,,,,,,,,,,,,,,,,,,,,,,
,,65414690ff22af1e0e59a54d,2023-12-06_22h33.45.579,kallum_motion_pilot,2023.2.3,Win32,60.0276127,65414690ff22af1e0e59a54d,6560176e4d91f764e2a42c74,657158768340dfc74274b66c,0.1372,0.1374,1,58,220,37,1,threefour,,,,,,,,,,,,,,,,,,,,,,,,,,,,,,,,,,,,,,,,,,,,,,,,,,,,,,,,,,,,,,,,,,,,,,,,,,,,,,,,,,,,,,,,,,,,,,,,,,,,,,,,,,,,,,,,,,,,,,,,,,,,,,,,,,,,,,,
,,65414690ff22af1e0e59a54d,2023-12-06_22h33.45.579,kallum_motion_pilot,2023.2.3,Win32,60.0276127,65414690ff22af1e0e59a54d,6560176e4d91f764e2a42c74,657158768340dfc74274b66c,0.1377,0.1379,1,59,221,83,1,sixeight,,,,,,,,,,,,,,,,,,,,,,,,,,,,,,,,,,,,,,,,,,,,,,,,,,,,,,,,,,,,,,,,,,,,,,,,,,,,,,,,,,,,,,,,,,,,,,,,,,,,,,,,,,,,,,,,,,,,,,,,,,,,,,,,,,,,,,,
,,65414690ff22af1e0e59a54d,2023-12-06_22h33.45.579,kallum_motion_pilot,2023.2.3,Win32,60.0276127,65414690ff22af1e0e59a54d,6560176e4d91f764e2a42c74,657158768340dfc74274b66c,0.1381,0.1384,1,60,222,134,1,eightsix,,,,,,,,,,,,,,,,,,,,,,,,,,,,,,,,,,,,,,,,,,,,,,,,,,,,,,,,,,,,,,,,,,,,,,,,,,,,,,,,,,,,,,,,,,,,,,,,,,,,,,,,,,,,,,,,,,,,,,,,,,,,,,,,,,,,,,,
,,65414690ff22af1e0e59a54d,2023-12-06_22h33.45.579,kallum_motion_pilot,2023.2.3,Win32,60.0276127,65414690ff22af1e0e59a54d,6560176e4d91f764e2a42c74,657158768340dfc74274b66c,0.1392,0.1393,1,61,223,43,1,twofour,,,,,,,,,,,,,,,,,,,,,,,,,,,,,,,,,,,,,,,,,,,,,,,,,,,,,,,,,,,,,,,,,,,,,,,,,,,,,,,,,,,,,,,,,,,,,,,,,,,,,,,,,,,,,,,,,,,,,,,,,,,,,,,,,,,,,,,
,,65414690ff22af1e0e59a54d,2023-12-06_22h33.45.579,kallum_motion_pilot,2023.2.3,Win32,60.0276127,65414690ff22af1e0e59a54d,6560176e4d91f764e2a42c74,657158768340dfc74274b66c,0.1395,0.1398,1,62,224,124,1,sevenfive,,,,,,,,,,,,,,,,,,,,,,,,,,,,,,,,,,,,,,,,,,,,,,,,,,,,,,,,,,,,,,,,,,,,,,,,,,,,,,,,,,,,,,,,,,,,,,,,,,,,,,,,,,,,,,,,,,,,,,,,,,,,,,,,,,,,,,,
,,65414690ff22af1e0e59a54d,2023-12-06_22h33.45.579,kallum_motion_pilot,2023.2.3,Win32,60.0276127,65414690ff22af1e0e59a54d,6560176e4d91f764e2a42c74,657158768340dfc74274b66c,0.14,0.1402,1,63,225,61,1,threefour,,,,,,,,,,,,,,,,,,,,,,,,,,,,,,,,,,,,,,,,,,,,,,,,,,,,,,,,,,,,,,,,,,,,,,,,,,,,,,,,,,,,,,,,,,,,,,,,,,,,,,,,,,,,,,,,,,,,,,,,,,,,,,,,,,,,,,,
,,65414690ff22af1e0e59a54d,2023-12-06_22h33.45.579,kallum_motion_pilot,2023.2.3,Win32,60.0276127,65414690ff22af1e0e59a54d,6560176e4d91f764e2a42c74,657158768340dfc74274b66c,0.1405,0.1407,1,64,226,127,1,eightseven,,,,,,,,,,,,,,,,,,,,,,,,,,,,,,,,,,,,,,,,,,,,,,,,,,,,,,,,,,,,,,,,,,,,,,,,,,,,,,,,,,,,,,,,,,,,,,,,,,,,,,,,,,,,,,,,,,,,,,,,,,,,,,,,,,,,,,,
,,65414690ff22af1e0e59a54d,2023-12-06_22h33.45.579,kallum_motion_pilot,2023.2.3,Win32,60.0276127,65414690ff22af1e0e59a54d,6560176e4d91f764e2a42c74,657158768340dfc74274b66c,0.141,0.1411,1,65,227,64,1,onetwo,,,,,,,,,,,,,,,,,,,,,,,,,,,,,,,,,,,,,,,,,,,,,,,,,,,,,,,,,,,,,,,,,,,,,,,,,,,,,,,,,,,,,,,,,,,,,,,,,,,,,,,,,,,,,,,,,,,,,,,,,,,,,,,,,,,,,,,
,,65414690ff22af1e0e59a54d,2023-12-06_22h33.45.579,kallum_motion_pilot,2023.2.3,Win32,60.0276127,65414690ff22af1e0e59a54d,6560176e4d91f764e2a42c74,657158768340dfc74274b66c,0.1414,0.1415,1,66,228,129,1,fiveseven,,,,,,,,,,,,,,,,,,,,,,,,,,,,,,,,,,,,,,,,,,,,,,,,,,,,,,,,,,,,,,,,,,,,,,,,,,,,,,,,,,,,,,,,,,,,,,,,,,,,,,,,,,,,,,,,,,,,,,,,,,,,,,,,,,,,,,,
,,65414690ff22af1e0e59a54d,2023-12-06_22h33.45.579,kallum_motion_pilot,2023.2.3,Win32,60.0276127,65414690ff22af1e0e59a54d,6560176e4d91f764e2a42c74,657158768340dfc74274b66c,0.1418,0.142,1,67,229,137,1,fiveseven,,,,,,,,,,,,,,,,,,,,,,,,,,,,,,,,,,,,,,,,,,,,,,,,,,,,,,,,,,,,,,,,,,,,,,,,,,,,,,,,,,,,,,,,,,,,,,,,,,,,,,,,,,,,,,,,,,,,,,,,,,,,,,,,,,,,,,,
,,65414690ff22af1e0e59a54d,2023-12-06_22h33.45.579,kallum_motion_pilot,2023.2.3,Win32,60.0276127,65414690ff22af1e0e59a54d,6560176e4d91f764e2a42c74,657158768340dfc74274b66c,0.1422,0.1423,1,68,230,148,1,sevenfive,,,,,,,,,,,,,,,,,,,,,,,,,,,,,,,,,,,,,,,,,,,,,,,,,,,,,,,,,,,,,,,,,,,,,,,,,,,,,,,,,,,,,,,,,,,,,,,,,,,,,,,,,,,,,,,,,,,,,,,,,,,,,,,,,,,,,,,
,,65414690ff22af1e0e59a54d,2023-12-06_22h33.45.579,kallum_motion_pilot,2023.2.3,Win32,60.0276127,65414690ff22af1e0e59a54d,6560176e4d91f764e2a42c74,657158768340dfc74274b66c,0.1425,0.1426,1,69,231,120,1,fivesix,,,,,,,,,,,,,,,,,,,,,,,,,,,,,,,,,,,,,,,,,,,,,,,,,,,,,,,,,,,,,,,,,,,,,,,,,,,,,,,,,,,,,,,,,,,,,,,,,,,,,,,,,,,,,,,,,,,,,,,,,,,,,,,,,,,,,,,
,,65414690ff22af1e0e59a54d,2023-12-06_22h33.45.579,kallum_motion_pilot,2023.2.3,Win32,60.0276127,65414690ff22af1e0e59a54d,6560176e4d91f764e2a42c74,657158768340dfc74274b66c,0.1429,0.143,1,70,232,155,1,sixeight,,,,,,,,,,,,,,,,,,,,,,,,,,,,,,,,,,,,,,,,,,,,,,,,,,,,,,,,,,,,,,,,,,,,,,,,,,,,,,,,,,,,,,,,,,,,,,,,,,,,,,,,,,,,,,,,,,,,,,,,,,,,,,,,,,,,,,,
,,65414690ff22af1e0e59a54d,2023-12-06_22h33.45.579,kallum_motion_pilot,2023.2.3,Win32,60.0276127,65414690ff22af1e0e59a54d,6560176e4d91f764e2a42c74,657158768340dfc74274b66c,0.1432,0.1434,1,71,233,151,1,eightseven,,,,,,,,,,,,,,,,,,,,,,,,,,,,,,,,,,,,,,,,,,,,,,,,,,,,,,,,,,,,,,,,,,,,,,,,,,,,,,,,,,,,,,,,,,,,,,,,,,,,,,,,,,,,,,,,,,,,,,,,,,,,,,,,,,,,,,,
,,65414690ff22af1e0e59a54d,2023-12-06_22h33.45.579,kallum_motion_pilot,2023.2.3,Win32,60.0276127,65414690ff22af1e0e59a54d,6560176e4d91f764e2a42c74,657158768340dfc74274b66c,0.1436,0.1438,1,72,234,128,1,fivesix,,,,,,,,,,,,,,,,,,,,,,,,,,,,,,,,,,,,,,,,,,,,,,,,,,,,,,,,,,,,,,,,,,,,,,,,,,,,,,,,,,,,,,,,,,,,,,,,,,,,,,,,,,,,,,,,,,,,,,,,,,,,,,,,,,,,,,,
,,65414690ff22af1e0e59a54d,2023-12-06_22h33.45.579,kallum_motion_pilot,2023.2.3,Win32,60.0276127,65414690ff22af1e0e59a54d,6560176e4d91f764e2a42c74,657158768340dfc74274b66c,0.1439,0.1441,1,73,235,82,1,sixfive,,,,,,,,,,,,,,,,,,,,,,,,,,,,,,,,,,,,,,,,,,,,,,,,,,,,,,,,,,,,,,,,,,,,,,,,,,,,,,,,,,,,,,,,,,,,,,,,,,,,,,,,,,,,,,,,,,,,,,,,,,,,,,,,,,,,,,,
,,65414690ff22af1e0e59a54d,2023-12-06_22h33.45.579,kallum_motion_pilot,2023.2.3,Win32,60.0276127,65414690ff22af1e0e59a54d,6560176e4d91f764e2a42c74,657158768340dfc74274b66c,0.1444,0.1446,1,74,236,4,1,threeone,,,,,,,,,,,,,,,,,,,,,,,,,,,,,,,,,,,,,,,,,,,,,,,,,,,,,,,,,,,,,,,,,,,,,,,,,,,,,,,,,,,,,,,,,,,,,,,,,,,,,,,,,,,,,,,,,,,,,,,,,,,,,,,,,,,,,,,
,,65414690ff22af1e0e59a54d,2023-12-06_22h33.45.579,kallum_motion_pilot,2023.2.3,Win32,60.0276127,65414690ff22af1e0e59a54d,6560176e4d91f764e2a42c74,657158768340dfc74274b66c,0.1449,0.1451,1,75,237,46,1,fourtwo,,,,,,,,,,,,,,,,,,,,,,,,,,,,,,,,,,,,,,,,,,,,,,,,,,,,,,,,,,,,,,,,,,,,,,,,,,,,,,,,,,,,,,,,,,,,,,,,,,,,,,,,,,,,,,,,,,,,,,,,,,,,,,,,,,,,,,,
,,65414690ff22af1e0e59a54d,2023-12-06_22h33.45.579,kallum_motion_pilot,2023.2.3,Win32,60.0276127,65414690ff22af1e0e59a54d,6560176e4d91f764e2a42c74,657158768340dfc74274b66c,0.1452,0.1454,1,76,238,96,1,fivesix,,,,,,,,,,,,,,,,,,,,,,,,,,,,,,,,,,,,,,,,,,,,,,,,,,,,,,,,,,,,,,,,,,,,,,,,,,,,,,,,,,,,,,,,,,,,,,,,,,,,,,,,,,,,,,,,,,,,,,,,,,,,,,,,,,,,,,,
,,65414690ff22af1e0e59a54d,2023-12-06_22h33.45.579,kallum_motion_pilot,2023.2.3,Win32,60.0276127,65414690ff22af1e0e59a54d,6560176e4d91f764e2a42c74,657158768340dfc74274b66c,0.1457,0.1457,1,77,239,12,1,threeone,,,,,,,,,,,,,,,,,,,,,,,,,,,,,,,,,,,,,,,,,,,,,,,,,,,,,,,,,,,,,,,,,,,,,,,,,,,,,,,,,,,,,,,,,,,,,,,,,,,,,,,,,,,,,,,,,,,,,,,,,,,,,,,,,,,,,,,
,,65414690ff22af1e0e59a54d,2023-12-06_22h33.45.579,kallum_motion_pilot,2023.2.3,Win32,60.0276127,65414690ff22af1e0e59a54d,6560176e4d91f764e2a42c74,657158768340dfc74274b66c,0.1459,0.1461,1,78,240,15,1,fourthree,,,,,,,,,,,,,,,,,,,,,,,,,,,,,,,,,,,,,,,,,,,,,,,,,,,,,,,,,,,,,,,,,,,,,,,,,,,,,,,,,,,,,,,,,,,,,,,,,,,,,,,,,,,,,,,,,,,,,,,,,,,,,,,,,,,,,,,
,,65414690ff22af1e0e59a54d,2023-12-06_22h33.45.579,kallum_motion_pilot,2023.2.3,Win32,60.0276127,65414690ff22af1e0e59a54d,6560176e4d91f764e2a42c74,657158768340dfc74274b66c,0.1463,0.1465,1,79,241,63,1,fourthree,,,,,,,,,,,,,,,,,,,,,,,,,,,,,,,,,,,,,,,,,,,,,,,,,,,,,,,,,,,,,,,,,,,,,,,,,,,,,,,,,,,,,,,,,,,,,,,,,,,,,,,,,,,,,,,,,,,,,,,,,,,,,,,,,,,,,,,
,,65414690ff22af1e0e59a54d,2023-12-06_22h33.45.579,kallum_motion_pilot,2023.2.3,Win32,60.0276127,65414690ff22af1e0e59a54d,6560176e4d91f764e2a42c74,657158768340dfc74274b66c,0.1468,0.1469,1,80,242,140,1,sevenfive,,,,,,,,,,,,,,,,,,,,,,,,,,,,,,,,,,,,,,,,,,,,,,,,,,,,,,,,,,,,,,,,,,,,,,,,,,,,,,,,,,,,,,,,,,,,,,,,,,,,,,,,,,,,,,,,,,,,,,,,,,,,,,,,,,,,,,,
,,65414690ff22af1e0e59a54d,2023-12-06_22h33.45.579,kallum_motion_pilot,2023.2.3,Win32,60.0276127,65414690ff22af1e0e59a54d,6560176e4d91f764e2a42c74,657158768340dfc74274b66c,0.1472,0.1474,1,81,243,159,1,eightseven,,,,,,,,,,,,,,,,,,,,,,,,,,,,,,,,,,,,,,,,,,,,,,,,,,,,,,,,,,,,,,,,,,,,,,,,,,,,,,,,,,,,,,,,,,,,,,,,,,,,,,,,,,,,,,,,,,,,,,,,,,,,,,,,,,,,,,,
,,65414690ff22af1e0e59a54d,2023-12-06_22h33.45.579,kallum_motion_pilot,2023.2.3,Win32,60.0276127,65414690ff22af1e0e59a54d,6560176e4d91f764e2a42c74,657158768340dfc74274b66c,0.1476,0.1478,1,82,244,75,1,twofour,,,,,,,,,,,,,,,,,,,,,,,,,,,,,,,,,,,,,,,,,,,,,,,,,,,,,,,,,,,,,,,,,,,,,,,,,,,,,,,,,,,,,,,,,,,,,,,,,,,,,,,,,,,,,,,,,,,,,,,,,,,,,,,,,,,,,,,
,,65414690ff22af1e0e59a54d,2023-12-06_22h33.45.579,kallum_motion_pilot,2023.2.3,Win32,60.0276127,65414690ff22af1e0e59a54d,6560176e4d91f764e2a42c74,657158768340dfc74274b66c,0.148,0.1481,1,83,245,51,1,twofour,,,,,,,,,,,,,,,,,,,,,,,,,,,,,,,,,,,,,,,,,,,,,,,,,,,,,,,,,,,,,,,,,,,,,,,,,,,,,,,,,,,,,,,,,,,,,,,,,,,,,,,,,,,,,,,,,,,,,,,,,,,,,,,,,,,,,,,
,,65414690ff22af1e0e59a54d,2023-12-06_22h33.45.579,kallum_motion_pilot,2023.2.3,Win32,60.0276127,65414690ff22af1e0e59a54d,6560176e4d91f764e2a42c74,657158768340dfc74274b66c,0.1483,0.1485,1,84,246,104,1,fivesix,,,,,,,,,,,,,,,,,,,,,,,,,,,,,,,,,,,,,,,,,,,,,,,,,,,,,,,,,,,,,,,,,,,,,,,,,,,,,,,,,,,,,,,,,,,,,,,,,,,,,,,,,,,,,,,,,,,,,,,,,,,,,,,,,,,,,,,
,,65414690ff22af1e0e59a54d,2023-12-06_22h33.45.579,kallum_motion_pilot,2023.2.3,Win32,60.0276127,65414690ff22af1e0e59a54d,6560176e4d91f764e2a42c74,657158768340dfc74274b66c,0.1487,0.1489,1,85,247,105,1,fiveseven,,,,,,,,,,,,,,,,,,,,,,,,,,,,,,,,,,,,,,,,,,,,,,,,,,,,,,,,,,,,,,,,,,,,,,,,,,,,,,,,,,,,,,,,,,,,,,,,,,,,,,,,,,,,,,,,,,,,,,,,,,,,,,,,,,,,,,,
,,65414690ff22af1e0e59a54d,2023-12-06_22h33.45.579,kallum_motion_pilot,2023.2.3,Win32,60.0276127,65414690ff22af1e0e59a54d,6560176e4d91f764e2a42c74,657158768340dfc74274b66c,0.149,0.1492,1,86,248,16,1,onetwo,,,,,,,,,,,,,,,,,,,,,,,,,,,,,,,,,,,,,,,,,,,,,,,,,,,,,,,,,,,,,,,,,,,,,,,,,,,,,,,,,,,,,,,,,,,,,,,,,,,,,,,,,,,,,,,,,,,,,,,,,,,,,,,,,,,,,,,
,,65414690ff22af1e0e59a54d,2023-12-06_22h33.45.579,kallum_motion_pilot,2023.2.3,Win32,60.0276127,65414690ff22af1e0e59a54d,6560176e4d91f764e2a42c74,657158768340dfc74274b66c,0.1494,0.1496,1,87,249,58,1,twoone,,,,,,,,,,,,,,,,,,,,,,,,,,,,,,,,,,,,,,,,,,,,,,,,,,,,,,,,,,,,,,,,,,,,,,,,,,,,,,,,,,,,,,,,,,,,,,,,,,,,,,,,,,,,,,,,,,,,,,,,,,,,,,,,,,,,,,,
,,65414690ff22af1e0e59a54d,2023-12-06_22h33.45.579,kallum_motion_pilot,2023.2.3,Win32,60.0276127,65414690ff22af1e0e59a54d,6560176e4d91f764e2a42c74,657158768340dfc74274b66c,0.1498,0.15,1,88,250,84,1,sevenfive,,,,,,,,,,,,,,,,,,,,,,,,,,,,,,,,,,,,,,,,,,,,,,,,,,,,,,,,,,,,,,,,,,,,,,,,,,,,,,,,,,,,,,,,,,,,,,,,,,,,,,,,,,,,,,,,,,,,,,,,,,,,,,,,,,,,,,,
,,65414690ff22af1e0e59a54d,2023-12-06_22h33.45.579,kallum_motion_pilot,2023.2.3,Win32,60.0276127,65414690ff22af1e0e59a54d,6560176e4d91f764e2a42c74,657158768340dfc74274b66c,0.1502,0.1504,1,89,251,98,1,sixfive,,,,,,,,,,,,,,,,,,,,,,,,,,,,,,,,,,,,,,,,,,,,,,,,,,,,,,,,,,,,,,,,,,,,,,,,,,,,,,,,,,,,,,,,,,,,,,,,,,,,,,,,,,,,,,,,,,,,,,,,,,,,,,,,,,,,,,,
,,65414690ff22af1e0e59a54d,2023-12-06_22h33.45.579,kallum_motion_pilot,2023.2.3,Win32,60.0276127,65414690ff22af1e0e59a54d,6560176e4d91f764e2a42c74,657158768340dfc74274b66c,0.1507,0.1508,1,90,252,109,1,seveneight,,,,,,,,,,,,,,,,,,,,,,,,,,,,,,,,,,,,,,,,,,,,,,,,,,,,,,,,,,,,,,,,,,,,,,,,,,,,,,,,,,,,,,,,,,,,,,,,,,,,,,,,,,,,,,,,,,,,,,,,,,,,,,,,,,,,,,,
,,65414690ff22af1e0e59a54d,2023-12-06_22h33.45.579,kallum_motion_pilot,2023.2.3,Win32,60.0276127,65414690ff22af1e0e59a54d,6560176e4d91f764e2a42c74,657158768340dfc74274b66c,0.151,0.1512,1,91,253,149,1,seveneight,,,,,,,,,,,,,,,,,,,,,,,,,,,,,,,,,,,,,,,,,,,,,,,,,,,,,,,,,,,,,,,,,,,,,,,,,,,,,,,,,,,,,,,,,,,,,,,,,,,,,,,,,,,,,,,,,,,,,,,,,,,,,,,,,,,,,,,
,,65414690ff22af1e0e59a54d,2023-12-06_22h33.45.579,kallum_motion_pilot,2023.2.3,Win32,60.0276127,65414690ff22af1e0e59a54d,6560176e4d91f764e2a42c74,657158768340dfc74274b66c,0.1515,0.1517,1,92,254,88,1,fivesix,,,,,,,,,,,,,,,,,,,,,,,,,,,,,,,,,,,,,,,,,,,,,,,,,,,,,,,,,,,,,,,,,,,,,,,,,,,,,,,,,,,,,,,,,,,,,,,,,,,,,,,,,,,,,,,,,,,,,,,,,,,,,,,,,,,,,,,
,,65414690ff22af1e0e59a54d,2023-12-06_22h33.45.579,kallum_motion_pilot,2023.2.3,Win32,60.0276127,65414690ff22af1e0e59a54d,6560176e4d91f764e2a42c74,657158768340dfc74274b66c,0.152,0.1522,1,93,255,25,1,onethree,,,,,,,,,,,,,,,,,,,,,,,,,,,,,,,,,,,,,,,,,,,,,,,,,,,,,,,,,,,,,,,,,,,,,,,,,,,,,,,,,,,,,,,,,,,,,,,,,,,,,,,,,,,,,,,,,,,,,,,,,,,,,,,,,,,,,,,
,,65414690ff22af1e0e59a54d,2023-12-06_22h33.45.579,kallum_motion_pilot,2023.2.3,Win32,60.0276127,65414690ff22af1e0e59a54d,6560176e4d91f764e2a42c74,657158768340dfc74274b66c,0.1525,0.1526,1,94,256,106,1,sixfive,,,,,,,,,,,,,,,,,,,,,,,,,,,,,,,,,,,,,,,,,,,,,,,,,,,,,,,,,,,,,,,,,,,,,,,,,,,,,,,,,,,,,,,,,,,,,,,,,,,,,,,,,,,,,,,,,,,,,,,,,,,,,,,,,,,,,,,
,,65414690ff22af1e0e59a54d,2023-12-06_22h33.45.579,kallum_motion_pilot,2023.2.3,Win32,60.0276127,65414690ff22af1e0e59a54d,6560176e4d91f764e2a42c74,657158768340dfc74274b66c,0.1529,0.153,1,95,257,139,1,sixeight,,,,,,,,,,,,,,,,,,,,,,,,,,,,,,,,,,,,,,,,,,,,,,,,,,,,,,,,,,,,,,,,,,,,,,,,,,,,,,,,,,,,,,,,,,,,,,,,,,,,,,,,,,,,,,,,,,,,,,,,,,,,,,,,,,,,,,,
,,65414690ff22af1e0e59a54d,2023-12-06_22h33.45.579,kallum_motion_pilot,2023.2.3,Win32,60.0276127,65414690ff22af1e0e59a54d,6560176e4d91f764e2a42c74,657158768340dfc74274b66c,0.1532,0.1534,1,96,258,70,1,fourtwo,,,,,,,,,,,,,,,,,,,,,,,,,,,,,,,,,,,,,,,,,,,,,,,,,,,,,,,,,,,,,,,,,,,,,,,,,,,,,,,,,,,,,,,,,,,,,,,,,,,,,,,,,,,,,,,,,,,,,,,,,,,,,,,,,,,,,,,
,,65414690ff22af1e0e59a54d,2023-12-06_22h33.45.579,kallum_motion_pilot,2023.2.3,Win32,60.0276127,65414690ff22af1e0e59a54d,6560176e4d91f764e2a42c74,657158768340dfc74274b66c,0.1536,0.1538,1,97,259,36,1,threeone,,,,,,,,,,,,,,,,,,,,,,,,,,,,,,,,,,,,,,,,,,,,,,,,,,,,,,,,,,,,,,,,,,,,,,,,,,,,,,,,,,,,,,,,,,,,,,,,,,,,,,,,,,,,,,,,,,,,,,,,,,,,,,,,,,,,,,,
,,65414690ff22af1e0e59a54d,2023-12-06_22h33.45.579,kallum_motion_pilot,2023.2.3,Win32,60.0276127,65414690ff22af1e0e59a54d,6560176e4d91f764e2a42c74,657158768340dfc74274b66c,0.154,0.1542,1,98,260,118,1,eightsix,,,,,,,,,,,,,,,,,,,,,,,,,,,,,,,,,,,,,,,,,,,,,,,,,,,,,,,,,,,,,,,,,,,,,,,,,,,,,,,,,,,,,,,,,,,,,,,,,,,,,,,,,,,,,,,,,,,,,,,,,,,,,,,,,,,,,,,
,,65414690ff22af1e0e59a54d,2023-12-06_22h33.45.579,kallum_motion_pilot,2023.2.3,Win32,60.0276127,65414690ff22af1e0e59a54d,6560176e4d91f764e2a42c74,657158768340dfc74274b66c,0.1544,0.1546,1,99,261,77,1,threefour,,,,,,,,,,,,,,,,,,,,,,,,,,,,,,,,,,,,,,,,,,,,,,,,,,,,,,,,,,,,,,,,,,,,,,,,,,,,,,,,,,,,,,,,,,,,,,,,,,,,,,,,,,,,,,,,,,,,,,,,,,,,,,,,,,,,,,,
,,65414690ff22af1e0e59a54d,2023-12-06_22h33.45.579,kallum_motion_pilot,2023.2.3,Win32,60.0276127,65414690ff22af1e0e59a54d,6560176e4d91f764e2a42c74,657158768340dfc74274b66c,0.1548,0.155,1,100,262,23,1,fourthree,,,,,,,,,,,,,,,,,,,,,,,,,,,,,,,,,,,,,,,,,,,,,,,,,,,,,,,,,,,,,,,,,,,,,,,,,,,,,,,,,,,,,,,,,,,,,,,,,,,,,,,,,,,,,,,,,,,,,,,,,,,,,,,,,,,,,,,
,,65414690ff22af1e0e59a54d,2023-12-06_22h33.45.579,kallum_motion_pilot,2023.2.3,Win32,60.0276127,65414690ff22af1e0e59a54d,6560176e4d91f764e2a42c74,657158768340dfc74274b66c,0.1552,0.1553,1,101,263,114,1,sixfive,,,,,,,,,,,,,,,,,,,,,,,,,,,,,,,,,,,,,,,,,,,,,,,,,,,,,,,,,,,,,,,,,,,,,,,,,,,,,,,,,,,,,,,,,,,,,,,,,,,,,,,,,,,,,,,,,,,,,,,,,,,,,,,,,,,,,,,
,,65414690ff22af1e0e59a54d,2023-12-06_22h33.45.579,kallum_motion_pilot,2023.2.3,Win32,60.0276127,65414690ff22af1e0e59a54d,6560176e4d91f764e2a42c74,657158768340dfc74274b66c,0.1556,0.1558,1,102,264,30,1,fourtwo,,,,,,,,,,,,,,,,,,,,,,,,,,,,,,,,,,,,,,,,,,,,,,,,,,,,,,,,,,,,,,,,,,,,,,,,,,,,,,,,,,,,,,,,,,,,,,,,,,,,,,,,,,,,,,,,,,,,,,,,,,,,,,,,,,,,,,,
,,65414690ff22af1e0e59a54d,2023-12-06_22h33.45.579,kallum_motion_pilot,2023.2.3,Win32,60.0276127,65414690ff22af1e0e59a54d,6560176e4d91f764e2a42c74,657158768340dfc74274b66c,0.156,0.1562,1,103,265,56,1,onetwo,,,,,,,,,,,,,,,,,,,,,,,,,,,,,,,,,,,,,,,,,,,,,,,,,,,,,,,,,,,,,,,,,,,,,,,,,,,,,,,,,,,,,,,,,,,,,,,,,,,,,,,,,,,,,,,,,,,,,,,,,,,,,,,,,,,,,,,
,,65414690ff22af1e0e59a54d,2023-12-06_22h33.45.579,kallum_motion_pilot,2023.2.3,Win32,60.0276127,65414690ff22af1e0e59a54d,6560176e4d91f764e2a42c74,657158768340dfc74274b66c,0.1564,0.1566,1,104,266,85,1,seveneight,,,,,,,,,,,,,,,,,,,,,,,,,,,,,,,,,,,,,,,,,,,,,,,,,,,,,,,,,,,,,,,,,,,,,,,,,,,,,,,,,,,,,,,,,,,,,,,,,,,,,,,,,,,,,,,,,,,,,,,,,,,,,,,,,,,,,,,
,,65414690ff22af1e0e59a54d,2023-12-06_22h33.45.579,kallum_motion_pilot,2023.2.3,Win32,60.0276127,65414690ff22af1e0e59a54d,6560176e4d91f764e2a42c74,657158768340dfc74274b66c,0.1568,0.157,1,105,267,3,1,twofour,,,,,,,,,,,,,,,,,,,,,,,,,,,,,,,,,,,,,,,,,,,,,,,,,,,,,,,,,,,,,,,,,,,,,,,,,,,,,,,,,,,,,,,,,,,,,,,,,,,,,,,,,,,,,,,,,,,,,,,,,,,,,,,,,,,,,,,
,,65414690ff22af1e0e59a54d,2023-12-06_22h33.45.579,kallum_motion_pilot,2023.2.3,Win32,60.0276127,65414690ff22af1e0e59a54d,6560176e4d91f764e2a42c74,657158768340dfc74274b66c,0.1573,0.1575,1,106,268,150,1,eightsix,,,,,,,,,,,,,,,,,,,,,,,,,,,,,,,,,,,,,,,,,,,,,,,,,,,,,,,,,,,,,,,,,,,,,,,,,,,,,,,,,,,,,,,,,,,,,,,,,,,,,,,,,,,,,,,,,,,,,,,,,,,,,,,,,,,,,,,
,,65414690ff22af1e0e59a54d,2023-12-06_22h33.45.579,kallum_motion_pilot,2023.2.3,Win32,60.0276127,65414690ff22af1e0e59a54d,6560176e4d91f764e2a42c74,657158768340dfc74274b66c,0.1577,0.1579,1,107,269,62,1,fourtwo,,,,,,,,,,,,,,,,,,,,,,,,,,,,,,,,,,,,,,,,,,,,,,,,,,,,,,,,,,,,,,,,,,,,,,,,,,,,,,,,,,,,,,,,,,,,,,,,,,,,,,,,,,,,,,,,,,,,,,,,,,,,,,,,,,,,,,,
,,65414690ff22af1e0e59a54d,2023-12-06_22h33.45.579,kallum_motion_pilot,2023.2.3,Win32,60.0276127,65414690ff22af1e0e59a54d,6560176e4d91f764e2a42c74,657158768340dfc74274b66c,0.1581,0.1583,1,108,270,35,1,twofour,,,,,,,,,,,,,,,,,,,,,,,,,,,,,,,,,,,,,,,,,,,,,,,,,,,,,,,,,,,,,,,,,,,,,,,,,,,,,,,,,,,,,,,,,,,,,,,,,,,,,,,,,,,,,,,,,,,,,,,,,,,,,,,,,,,,,,,
,,65414690ff22af1e0e59a54d,2023-12-06_22h33.45.579,kallum_motion_pilot,2023.2.3,Win32,60.0276127,65414690ff22af1e0e59a54d,6560176e4d91f764e2a42c74,657158768340dfc74274b66c,0.1585,0.1587,1,109,271,78,1,fourtwo,,,,,,,,,,,,,,,,,,,,,,,,,,,,,,,,,,,,,,,,,,,,,,,,,,,,,,,,,,,,,,,,,,,,,,,,,,,,,,,,,,,,,,,,,,,,,,,,,,,,,,,,,,,,,,,,,,,,,,,,,,,,,,,,,,,,,,,
,,65414690ff22af1e0e59a54d,2023-12-06_22h33.45.579,kallum_motion_pilot,2023.2.3,Win32,60.0276127,65414690ff22af1e0e59a54d,6560176e4d91f764e2a42c74,657158768340dfc74274b66c,0.1589,0.159,1,110,272,40,1,onetwo,,,,,,,,,,,,,,,,,,,,,,,,,,,,,,,,,,,,,,,,,,,,,,,,,,,,,,,,,,,,,,,,,,,,,,,,,,,,,,,,,,,,,,,,,,,,,,,,,,,,,,,,,,,,,,,,,,,,,,,,,,,,,,,,,,,,,,,
,,65414690ff22af1e0e59a54d,2023-12-06_22h33.45.579,kallum_motion_pilot,2023.2.3,Win32,60.0276127,65414690ff22af1e0e59a54d,6560176e4d91f764e2a42c74,657158768340dfc74274b66c,0.1592,0.1593,1,111,273,60,1,threeone,,,,,,,,,,,,,,,,,,,,,,,,,,,,,,,,,,,,,,,,,,,,,,,,,,,,,,,,,,,,,,,,,,,,,,,,,,,,,,,,,,,,,,,,,,,,,,,,,,,,,,,,,,,,,,,,,,,,,,,,,,,,,,,,,,,,,,,
,,65414690ff22af1e0e59a54d,2023-12-06_22h33.45.579,kallum_motion_pilot,2023.2.3,Win32,60.0276127,65414690ff22af1e0e59a54d,6560176e4d91f764e2a42c74,657158768340dfc74274b66c,0.1596,0.1597,1,112,274,7,1,fourthree,,,,,,,,,,,,,,,,,,,,,,,,,,,,,,,,,,,,,,,,,,,,,,,,,,,,,,,,,,,,,,,,,,,,,,,,,,,,,,,,,,,,,,,,,,,,,,,,,,,,,,,,,,,,,,,,,,,,,,,,,,,,,,,,,,,,,,,
,,65414690ff22af1e0e59a54d,2023-12-06_22h33.45.579,kallum_motion_pilot,2023.2.3,Win32,60.0276127,65414690ff22af1e0e59a54d,6560176e4d91f764e2a42c74,657158768340dfc74274b66c,0.1599,0.1601,1,113,275,158,1,eightsix,,,,,,,,,,,,,,,,,,,,,,,,,,,,,,,,,,,,,,,,,,,,,,,,,,,,,,,,,,,,,,,,,,,,,,,,,,,,,,,,,,,,,,,,,,,,,,,,,,,,,,,,,,,,,,,,,,,,,,,,,,,,,,,,,,,,,,,
,,65414690ff22af1e0e59a54d,2023-12-06_22h33.45.579,kallum_motion_pilot,2023.2.3,Win32,60.0276127,65414690ff22af1e0e59a54d,6560176e4d91f764e2a42c74,657158768340dfc74274b66c,0.1604,0.1607,1,114,276,52,1,threeone,,,,,,,,,,,,,,,,,,,,,,,,,,,,,,,,,,,,,,,,,,,,,,,,,,,,,,,,,,,,,,,,,,,,,,,,,,,,,,,,,,,,,,,,,,,,,,,,,,,,,,,,,,,,,,,,,,,,,,,,,,,,,,,,,,,,,,,
,,65414690ff22af1e0e59a54d,2023-12-06_22h33.45.579,kallum_motion_pilot,2023.2.3,Win32,60.0276127,65414690ff22af1e0e59a54d,6560176e4d91f764e2a42c74,657158768340dfc74274b66c,0.1609,0.161,1,115,277,71,1,fourthree,,,,,,,,,,,,,,,,,,,,,,,,,,,,,,,,,,,,,,,,,,,,,,,,,,,,,,,,,,,,,,,,,,,,,,,,,,,,,,,,,,,,,,,,,,,,,,,,,,,,,,,,,,,,,,,,,,,,,,,,,,,,,,,,,,,,,,,
,,65414690ff22af1e0e59a54d,2023-12-06_22h33.45.579,kallum_motion_pilot,2023.2.3,Win32,60.0276127,65414690ff22af1e0e59a54d,6560176e4d91f764e2a42c74,657158768340dfc74274b66c,0.1612,0.1615,1,116,278,66,1,twoone,,,,,,,,,,,,,,,,,,,,,,,,,,,,,,,,,,,,,,,,,,,,,,,,,,,,,,,,,,,,,,,,,,,,,,,,,,,,,,,,,,,,,,,,,,,,,,,,,,,,,,,,,,,,,,,,,,,,,,,,,,,,,,,,,,,,,,,
,,65414690ff22af1e0e59a54d,2023-12-06_22h33.45.579,kallum_motion_pilot,2023.2.3,Win32,60.0276127,65414690ff22af1e0e59a54d,6560176e4d91f764e2a42c74,657158768340dfc74274b66c,0.1617,0.1618,1,117,279,126,1,eightsix,,,,,,,,,,,,,,,,,,,,,,,,,,,,,,,,,,,,,,,,,,,,,,,,,,,,,,,,,,,,,,,,,,,,,,,,,,,,,,,,,,,,,,,,,,,,,,,,,,,,,,,,,,,,,,,,,,,,,,,,,,,,,,,,,,,,,,,
,,65414690ff22af1e0e59a54d,2023-12-06_22h33.45.579,kallum_motion_pilot,2023.2.3,Win32,60.0276127,65414690ff22af1e0e59a54d,6560176e4d91f764e2a42c74,657158768340dfc74274b66c,0.162,0.1621,1,118,280,10,1,twoone,,,,,,,,,,,,,,,,,,,,,,,,,,,,,,,,,,,,,,,,,,,,,,,,,,,,,,,,,,,,,,,,,,,,,,,,,,,,,,,,,,,,,,,,,,,,,,,,,,,,,,,,,,,,,,,,,,,,,,,,,,,,,,,,,,,,,,,
