startup.started,startup.stopped,Prolific ID*,date,expName,psychopyVersion,OS,frameRate,participant,study_id,session,stimpositions.started,stimpositions.stopped,hardcoded_stimulus_positions.thisRepN,hardcoded_stimulus_positions.thisTrialN,hardcoded_stimulus_positions.thisN,hardcoded_stimulus_positions.thisIndex,hardcoded_stimulus_positions.ran,StimulusPos,stimorientation.started,stimorientation.stopped,prac_stimorientation_import_loop.thisRepN,prac_stimorientation_import_loop.thisTrialN,prac_stimorientation_import_loop.thisN,prac_stimorientation_import_loop.thisIndex,prac_stimorientation_import_loop.ran,Stimorientation,welcome_instr.started,welcome_instr.stopped,key_resp.keys,key_resp.rt,key_resp.duration,response_steppedout_1.started,response_steppedout_1.stopped,key_resp_20.keys,key_resp_20.rt,key_resp_20.duration,response_steppedout_2.started,response_steppedout_2.stopped,key_resp_19.keys,key_resp_19.rt,key_resp_19.duration,stim_response_instr.started,stim_response_instr.stopped,key_resp_15.keys,key_resp_15.rt,key_resp_15.duration,direction_instr_2.started,direction_instr_2.stopped,key_resp_9.keys,key_resp_9.rt,key_resp_9.duration,instr_prac.started,instr_prac.stopped,key_resp_10.keys,key_resp_10.rt,key_resp_10.duration,Stim1_display_prac.started,Stim1_display_prac.stopped,Ecc,Circle1_ori,Circle2_ori,response_prac.started,similarity,response_time,response_prac.stopped,mouse_5.x,mouse_5.y,mouse_5.leftButton,mouse_5.midButton,mouse_5.rightButton,mouse_5.clicked_name,responseprac_feedback.started,responseprac_feedback.stopped,summary2_prac.started,summary2_prac.stopped,mouse_6.x,mouse_6.y,mouse_6.leftButton,mouse_6.midButton,mouse_6.rightButton,mouse_6.clicked_name,duringprac.thisRepN,duringprac.thisTrialN,duringprac.thisN,duringprac.thisIndex,duringprac.ran,begin.started,begin.stopped,key_resp_22.keys,key_resp_22.rt,key_resp_22.duration,Stim1_display.started,Stim1_display.stopped,circle1_ori,circle2_ori,blank.started,blank.stopped,response.started,response.stopped,mouse.x,mouse.y,mouse.leftButton,mouse.midButton,mouse.rightButton,mouse.clicked_name,response_2.started,response_2.stopped,mouse_2.x,mouse_2.y,mouse_2.leftButton,mouse_2.midButton,mouse_2.rightButton,mouse_2.clicked_name,special_trial.started,special_trial.stopped,catch_1.started,catch_1.stopped,mouse_3.x,mouse_3.y,mouse_3.leftButton,mouse_3.midButton,mouse_3.rightButton,catchresponse,catchnumber,response_time_catch,Catch,response_sum.started,response_sum.stopped,mouse_11.x,mouse_11.y,mouse_11.leftButton,mouse_11.midButton,mouse_11.rightButton,main_trial.thisRepN,main_trial.thisTrialN,main_trial.thisN,main_trial.thisIndex,main_trial.ran,Orientationtrialno,xcircle1_ori,xcircle2_ori,flip_presentation_sequence_for_double_pass.started,flip_presentation_sequence_for_double_pass.stopped,double_pass.thisRepN,double_pass.thisTrialN,double_pass.thisN,double_pass.thisIndex,double_pass.ran,goodbye.started,goodbye.stopped,key_resp_3.keys,key_resp_3.rt,key_resp_3.duration
0.0021,0.0024,655424abfafb67fe33ca8476,2023-12-06_21h35.56.416,kallum_motion_pilot,2023.2.3,Win32,142.8571429,655424abfafb67fe33ca8476,6560176e4d91f764e2a42c74,657159ab04878fbbb10a632c,,,,,,,,,,,,,,,,,,,,,,,,,,,,,,,,,,,,,,,,,,,,,,,,,,,,,,,,,,,,,,,,,,,,,,,,,,,,,,,,,,,,,,,,,,,,,,,,,,,,,,,,,,,,,,,,,,,,,,,,,,,,,,,,,,,,,,,,,,,,,,,
,,655424abfafb67fe33ca8476,2023-12-06_21h35.56.416,kallum_motion_pilot,2023.2.3,Win32,142.8571429,655424abfafb67fe33ca8476,6560176e4d91f764e2a42c74,657159ab04878fbbb10a632c,0.0376,0.0377,0,0,0,128,1,fivesix,,,,,,,,,,,,,,,,,,,,,,,,,,,,,,,,,,,,,,,,,,,,,,,,,,,,,,,,,,,,,,,,,,,,,,,,,,,,,,,,,,,,,,,,,,,,,,,,,,,,,,,,,,,,,,,,,,,,,,,,,,,,,,,,,,,,,,,
,,655424abfafb67fe33ca8476,2023-12-06_21h35.56.416,kallum_motion_pilot,2023.2.3,Win32,142.8571429,655424abfafb67fe33ca8476,6560176e4d91f764e2a42c74,657159ab04878fbbb10a632c,0.038,0.038,0,1,1,64,1,onetwo,,,,,,,,,,,,,,,,,,,,,,,,,,,,,,,,,,,,,,,,,,,,,,,,,,,,,,,,,,,,,,,,,,,,,,,,,,,,,,,,,,,,,,,,,,,,,,,,,,,,,,,,,,,,,,,,,,,,,,,,,,,,,,,,,,,,,,,
,,655424abfafb67fe33ca8476,2023-12-06_21h35.56.416,kallum_motion_pilot,2023.2.3,Win32,142.8571429,655424abfafb67fe33ca8476,6560176e4d91f764e2a42c74,657159ab04878fbbb10a632c,0.0382,0.0382,0,2,2,22,1,fourtwo,,,,,,,,,,,,,,,,,,,,,,,,,,,,,,,,,,,,,,,,,,,,,,,,,,,,,,,,,,,,,,,,,,,,,,,,,,,,,,,,,,,,,,,,,,,,,,,,,,,,,,,,,,,,,,,,,,,,,,,,,,,,,,,,,,,,,,,
,,655424abfafb67fe33ca8476,2023-12-06_21h35.56.416,kallum_motion_pilot,2023.2.3,Win32,142.8571429,655424abfafb67fe33ca8476,6560176e4d91f764e2a42c74,657159ab04878fbbb10a632c,0.0384,0.0385,0,3,3,144,1,fivesix,,,,,,,,,,,,,,,,,,,,,,,,,,,,,,,,,,,,,,,,,,,,,,,,,,,,,,,,,,,,,,,,,,,,,,,,,,,,,,,,,,,,,,,,,,,,,,,,,,,,,,,,,,,,,,,,,,,,,,,,,,,,,,,,,,,,,,,
,,655424abfafb67fe33ca8476,2023-12-06_21h35.56.416,kallum_motion_pilot,2023.2.3,Win32,142.8571429,655424abfafb67fe33ca8476,6560176e4d91f764e2a42c74,657159ab04878fbbb10a632c,0.0386,0.0386,0,4,4,49,1,onethree,,,,,,,,,,,,,,,,,,,,,,,,,,,,,,,,,,,,,,,,,,,,,,,,,,,,,,,,,,,,,,,,,,,,,,,,,,,,,,,,,,,,,,,,,,,,,,,,,,,,,,,,,,,,,,,,,,,,,,,,,,,,,,,,,,,,,,,
,,655424abfafb67fe33ca8476,2023-12-06_21h35.56.416,kallum_motion_pilot,2023.2.3,Win32,142.8571429,655424abfafb67fe33ca8476,6560176e4d91f764e2a42c74,657159ab04878fbbb10a632c,0.0388,0.0388,0,5,5,46,1,fourtwo,,,,,,,,,,,,,,,,,,,,,,,,,,,,,,,,,,,,,,,,,,,,,,,,,,,,,,,,,,,,,,,,,,,,,,,,,,,,,,,,,,,,,,,,,,,,,,,,,,,,,,,,,,,,,,,,,,,,,,,,,,,,,,,,,,,,,,,
,,655424abfafb67fe33ca8476,2023-12-06_21h35.56.416,kallum_motion_pilot,2023.2.3,Win32,142.8571429,655424abfafb67fe33ca8476,6560176e4d91f764e2a42c74,657159ab04878fbbb10a632c,0.0389,0.0389,0,6,6,53,1,threefour,,,,,,,,,,,,,,,,,,,,,,,,,,,,,,,,,,,,,,,,,,,,,,,,,,,,,,,,,,,,,,,,,,,,,,,,,,,,,,,,,,,,,,,,,,,,,,,,,,,,,,,,,,,,,,,,,,,,,,,,,,,,,,,,,,,,,,,
,,655424abfafb67fe33ca8476,2023-12-06_21h35.56.416,kallum_motion_pilot,2023.2.3,Win32,142.8571429,655424abfafb67fe33ca8476,6560176e4d91f764e2a42c74,657159ab04878fbbb10a632c,0.0391,0.0391,0,7,7,129,1,fiveseven,,,,,,,,,,,,,,,,,,,,,,,,,,,,,,,,,,,,,,,,,,,,,,,,,,,,,,,,,,,,,,,,,,,,,,,,,,,,,,,,,,,,,,,,,,,,,,,,,,,,,,,,,,,,,,,,,,,,,,,,,,,,,,,,,,,,,,,
,,655424abfafb67fe33ca8476,2023-12-06_21h35.56.416,kallum_motion_pilot,2023.2.3,Win32,142.8571429,655424abfafb67fe33ca8476,6560176e4d91f764e2a42c74,657159ab04878fbbb10a632c,0.0393,0.0393,0,8,8,89,1,fiveseven,,,,,,,,,,,,,,,,,,,,,,,,,,,,,,,,,,,,,,,,,,,,,,,,,,,,,,,,,,,,,,,,,,,,,,,,,,,,,,,,,,,,,,,,,,,,,,,,,,,,,,,,,,,,,,,,,,,,,,,,,,,,,,,,,,,,,,,
,,655424abfafb67fe33ca8476,2023-12-06_21h35.56.416,kallum_motion_pilot,2023.2.3,Win32,142.8571429,655424abfafb67fe33ca8476,6560176e4d91f764e2a42c74,657159ab04878fbbb10a632c,0.0395,0.0395,0,9,9,25,1,onethree,,,,,,,,,,,,,,,,,,,,,,,,,,,,,,,,,,,,,,,,,,,,,,,,,,,,,,,,,,,,,,,,,,,,,,,,,,,,,,,,,,,,,,,,,,,,,,,,,,,,,,,,,,,,,,,,,,,,,,,,,,,,,,,,,,,,,,,
,,655424abfafb67fe33ca8476,2023-12-06_21h35.56.416,kallum_motion_pilot,2023.2.3,Win32,142.8571429,655424abfafb67fe33ca8476,6560176e4d91f764e2a42c74,657159ab04878fbbb10a632c,0.0396,0.0397,0,10,10,5,1,threefour,,,,,,,,,,,,,,,,,,,,,,,,,,,,,,,,,,,,,,,,,,,,,,,,,,,,,,,,,,,,,,,,,,,,,,,,,,,,,,,,,,,,,,,,,,,,,,,,,,,,,,,,,,,,,,,,,,,,,,,,,,,,,,,,,,,,,,,
,,655424abfafb67fe33ca8476,2023-12-06_21h35.56.416,kallum_motion_pilot,2023.2.3,Win32,142.8571429,655424abfafb67fe33ca8476,6560176e4d91f764e2a42c74,657159ab04878fbbb10a632c,0.0398,0.0399,0,11,11,140,1,sevenfive,,,,,,,,,,,,,,,,,,,,,,,,,,,,,,,,,,,,,,,,,,,,,,,,,,,,,,,,,,,,,,,,,,,,,,,,,,,,,,,,,,,,,,,,,,,,,,,,,,,,,,,,,,,,,,,,,,,,,,,,,,,,,,,,,,,,,,,
,,655424abfafb67fe33ca8476,2023-12-06_21h35.56.416,kallum_motion_pilot,2023.2.3,Win32,142.8571429,655424abfafb67fe33ca8476,6560176e4d91f764e2a42c74,657159ab04878fbbb10a632c,0.04,0.04,0,12,12,108,1,sevenfive,,,,,,,,,,,,,,,,,,,,,,,,,,,,,,,,,,,,,,,,,,,,,,,,,,,,,,,,,,,,,,,,,,,,,,,,,,,,,,,,,,,,,,,,,,,,,,,,,,,,,,,,,,,,,,,,,,,,,,,,,,,,,,,,,,,,,,,
,,655424abfafb67fe33ca8476,2023-12-06_21h35.56.416,kallum_motion_pilot,2023.2.3,Win32,142.8571429,655424abfafb67fe33ca8476,6560176e4d91f764e2a42c74,657159ab04878fbbb10a632c,0.0401,0.0401,0,13,13,80,1,fivesix,,,,,,,,,,,,,,,,,,,,,,,,,,,,,,,,,,,,,,,,,,,,,,,,,,,,,,,,,,,,,,,,,,,,,,,,,,,,,,,,,,,,,,,,,,,,,,,,,,,,,,,,,,,,,,,,,,,,,,,,,,,,,,,,,,,,,,,
,,655424abfafb67fe33ca8476,2023-12-06_21h35.56.416,kallum_motion_pilot,2023.2.3,Win32,142.8571429,655424abfafb67fe33ca8476,6560176e4d91f764e2a42c74,657159ab04878fbbb10a632c,0.0403,0.0403,0,14,14,31,1,fourthree,,,,,,,,,,,,,,,,,,,,,,,,,,,,,,,,,,,,,,,,,,,,,,,,,,,,,,,,,,,,,,,,,,,,,,,,,,,,,,,,,,,,,,,,,,,,,,,,,,,,,,,,,,,,,,,,,,,,,,,,,,,,,,,,,,,,,,,
,,655424abfafb67fe33ca8476,2023-12-06_21h35.56.416,kallum_motion_pilot,2023.2.3,Win32,142.8571429,655424abfafb67fe33ca8476,6560176e4d91f764e2a42c74,657159ab04878fbbb10a632c,0.0404,0.0405,0,15,15,106,1,sixfive,,,,,,,,,,,,,,,,,,,,,,,,,,,,,,,,,,,,,,,,,,,,,,,,,,,,,,,,,,,,,,,,,,,,,,,,,,,,,,,,,,,,,,,,,,,,,,,,,,,,,,,,,,,,,,,,,,,,,,,,,,,,,,,,,,,,,,,
,,655424abfafb67fe33ca8476,2023-12-06_21h35.56.416,kallum_motion_pilot,2023.2.3,Win32,142.8571429,655424abfafb67fe33ca8476,6560176e4d91f764e2a42c74,657159ab04878fbbb10a632c,0.0406,0.0406,0,16,16,44,1,threeone,,,,,,,,,,,,,,,,,,,,,,,,,,,,,,,,,,,,,,,,,,,,,,,,,,,,,,,,,,,,,,,,,,,,,,,,,,,,,,,,,,,,,,,,,,,,,,,,,,,,,,,,,,,,,,,,,,,,,,,,,,,,,,,,,,,,,,,
,,655424abfafb67fe33ca8476,2023-12-06_21h35.56.416,kallum_motion_pilot,2023.2.3,Win32,142.8571429,655424abfafb67fe33ca8476,6560176e4d91f764e2a42c74,657159ab04878fbbb10a632c,0.0407,0.0408,0,17,17,111,1,eightseven,,,,,,,,,,,,,,,,,,,,,,,,,,,,,,,,,,,,,,,,,,,,,,,,,,,,,,,,,,,,,,,,,,,,,,,,,,,,,,,,,,,,,,,,,,,,,,,,,,,,,,,,,,,,,,,,,,,,,,,,,,,,,,,,,,,,,,,
,,655424abfafb67fe33ca8476,2023-12-06_21h35.56.416,kallum_motion_pilot,2023.2.3,Win32,142.8571429,655424abfafb67fe33ca8476,6560176e4d91f764e2a42c74,657159ab04878fbbb10a632c,0.0408,0.0409,0,18,18,51,1,twofour,,,,,,,,,,,,,,,,,,,,,,,,,,,,,,,,,,,,,,,,,,,,,,,,,,,,,,,,,,,,,,,,,,,,,,,,,,,,,,,,,,,,,,,,,,,,,,,,,,,,,,,,,,,,,,,,,,,,,,,,,,,,,,,,,,,,,,,
,,655424abfafb67fe33ca8476,2023-12-06_21h35.56.416,kallum_motion_pilot,2023.2.3,Win32,142.8571429,655424abfafb67fe33ca8476,6560176e4d91f764e2a42c74,657159ab04878fbbb10a632c,0.041,0.041,0,19,19,55,1,fourthree,,,,,,,,,,,,,,,,,,,,,,,,,,,,,,,,,,,,,,,,,,,,,,,,,,,,,,,,,,,,,,,,,,,,,,,,,,,,,,,,,,,,,,,,,,,,,,,,,,,,,,,,,,,,,,,,,,,,,,,,,,,,,,,,,,,,,,,
,,655424abfafb67fe33ca8476,2023-12-06_21h35.56.416,kallum_motion_pilot,2023.2.3,Win32,142.8571429,655424abfafb67fe33ca8476,6560176e4d91f764e2a42c74,657159ab04878fbbb10a632c,0.0412,0.0412,0,20,20,139,1,sixeight,,,,,,,,,,,,,,,,,,,,,,,,,,,,,,,,,,,,,,,,,,,,,,,,,,,,,,,,,,,,,,,,,,,,,,,,,,,,,,,,,,,,,,,,,,,,,,,,,,,,,,,,,,,,,,,,,,,,,,,,,,,,,,,,,,,,,,,
,,655424abfafb67fe33ca8476,2023-12-06_21h35.56.416,kallum_motion_pilot,2023.2.3,Win32,142.8571429,655424abfafb67fe33ca8476,6560176e4d91f764e2a42c74,657159ab04878fbbb10a632c,0.0414,0.0414,0,21,21,146,1,sixfive,,,,,,,,,,,,,,,,,,,,,,,,,,,,,,,,,,,,,,,,,,,,,,,,,,,,,,,,,,,,,,,,,,,,,,,,,,,,,,,,,,,,,,,,,,,,,,,,,,,,,,,,,,,,,,,,,,,,,,,,,,,,,,,,,,,,,,,
,,655424abfafb67fe33ca8476,2023-12-06_21h35.56.416,kallum_motion_pilot,2023.2.3,Win32,142.8571429,655424abfafb67fe33ca8476,6560176e4d91f764e2a42c74,657159ab04878fbbb10a632c,0.0415,0.0415,0,22,22,48,1,onetwo,,,,,,,,,,,,,,,,,,,,,,,,,,,,,,,,,,,,,,,,,,,,,,,,,,,,,,,,,,,,,,,,,,,,,,,,,,,,,,,,,,,,,,,,,,,,,,,,,,,,,,,,,,,,,,,,,,,,,,,,,,,,,,,,,,,,,,,
,,655424abfafb67fe33ca8476,2023-12-06_21h35.56.416,kallum_motion_pilot,2023.2.3,Win32,142.8571429,655424abfafb67fe33ca8476,6560176e4d91f764e2a42c74,657159ab04878fbbb10a632c,0.0417,0.0417,0,23,23,4,1,threeone,,,,,,,,,,,,,,,,,,,,,,,,,,,,,,,,,,,,,,,,,,,,,,,,,,,,,,,,,,,,,,,,,,,,,,,,,,,,,,,,,,,,,,,,,,,,,,,,,,,,,,,,,,,,,,,,,,,,,,,,,,,,,,,,,,,,,,,
,,655424abfafb67fe33ca8476,2023-12-06_21h35.56.416,kallum_motion_pilot,2023.2.3,Win32,142.8571429,655424abfafb67fe33ca8476,6560176e4d91f764e2a42c74,657159ab04878fbbb10a632c,0.0419,0.0419,0,24,24,134,1,eightsix,,,,,,,,,,,,,,,,,,,,,,,,,,,,,,,,,,,,,,,,,,,,,,,,,,,,,,,,,,,,,,,,,,,,,,,,,,,,,,,,,,,,,,,,,,,,,,,,,,,,,,,,,,,,,,,,,,,,,,,,,,,,,,,,,,,,,,,
,,655424abfafb67fe33ca8476,2023-12-06_21h35.56.416,kallum_motion_pilot,2023.2.3,Win32,142.8571429,655424abfafb67fe33ca8476,6560176e4d91f764e2a42c74,657159ab04878fbbb10a632c,0.0437,0.0438,0,25,25,143,1,eightseven,,,,,,,,,,,,,,,,,,,,,,,,,,,,,,,,,,,,,,,,,,,,,,,,,,,,,,,,,,,,,,,,,,,,,,,,,,,,,,,,,,,,,,,,,,,,,,,,,,,,,,,,,,,,,,,,,,,,,,,,,,,,,,,,,,,,,,,
,,655424abfafb67fe33ca8476,2023-12-06_21h35.56.416,kallum_motion_pilot,2023.2.3,Win32,142.8571429,655424abfafb67fe33ca8476,6560176e4d91f764e2a42c74,657159ab04878fbbb10a632c,0.0439,0.044,0,26,26,92,1,sevenfive,,,,,,,,,,,,,,,,,,,,,,,,,,,,,,,,,,,,,,,,,,,,,,,,,,,,,,,,,,,,,,,,,,,,,,,,,,,,,,,,,,,,,,,,,,,,,,,,,,,,,,,,,,,,,,,,,,,,,,,,,,,,,,,,,,,,,,,
,,655424abfafb67fe33ca8476,2023-12-06_21h35.56.416,kallum_motion_pilot,2023.2.3,Win32,142.8571429,655424abfafb67fe33ca8476,6560176e4d91f764e2a42c74,657159ab04878fbbb10a632c,0.0441,0.0441,0,27,27,68,1,threeone,,,,,,,,,,,,,,,,,,,,,,,,,,,,,,,,,,,,,,,,,,,,,,,,,,,,,,,,,,,,,,,,,,,,,,,,,,,,,,,,,,,,,,,,,,,,,,,,,,,,,,,,,,,,,,,,,,,,,,,,,,,,,,,,,,,,,,,
,,655424abfafb67fe33ca8476,2023-12-06_21h35.56.416,kallum_motion_pilot,2023.2.3,Win32,142.8571429,655424abfafb67fe33ca8476,6560176e4d91f764e2a42c74,657159ab04878fbbb10a632c,0.0443,0.0443,0,28,28,10,1,twoone,,,,,,,,,,,,,,,,,,,,,,,,,,,,,,,,,,,,,,,,,,,,,,,,,,,,,,,,,,,,,,,,,,,,,,,,,,,,,,,,,,,,,,,,,,,,,,,,,,,,,,,,,,,,,,,,,,,,,,,,,,,,,,,,,,,,,,,
,,655424abfafb67fe33ca8476,2023-12-06_21h35.56.416,kallum_motion_pilot,2023.2.3,Win32,142.8571429,655424abfafb67fe33ca8476,6560176e4d91f764e2a42c74,657159ab04878fbbb10a632c,0.0445,0.0445,0,29,29,95,1,eightseven,,,,,,,,,,,,,,,,,,,,,,,,,,,,,,,,,,,,,,,,,,,,,,,,,,,,,,,,,,,,,,,,,,,,,,,,,,,,,,,,,,,,,,,,,,,,,,,,,,,,,,,,,,,,,,,,,,,,,,,,,,,,,,,,,,,,,,,
,,655424abfafb67fe33ca8476,2023-12-06_21h35.56.416,kallum_motion_pilot,2023.2.3,Win32,142.8571429,655424abfafb67fe33ca8476,6560176e4d91f764e2a42c74,657159ab04878fbbb10a632c,0.0446,0.0446,0,30,30,138,1,sixfive,,,,,,,,,,,,,,,,,,,,,,,,,,,,,,,,,,,,,,,,,,,,,,,,,,,,,,,,,,,,,,,,,,,,,,,,,,,,,,,,,,,,,,,,,,,,,,,,,,,,,,,,,,,,,,,,,,,,,,,,,,,,,,,,,,,,,,,
,,655424abfafb67fe33ca8476,2023-12-06_21h35.56.416,kallum_motion_pilot,2023.2.3,Win32,142.8571429,655424abfafb67fe33ca8476,6560176e4d91f764e2a42c74,657159ab04878fbbb10a632c,0.0447,0.0448,0,31,31,136,1,fivesix,,,,,,,,,,,,,,,,,,,,,,,,,,,,,,,,,,,,,,,,,,,,,,,,,,,,,,,,,,,,,,,,,,,,,,,,,,,,,,,,,,,,,,,,,,,,,,,,,,,,,,,,,,,,,,,,,,,,,,,,,,,,,,,,,,,,,,,
,,655424abfafb67fe33ca8476,2023-12-06_21h35.56.416,kallum_motion_pilot,2023.2.3,Win32,142.8571429,655424abfafb67fe33ca8476,6560176e4d91f764e2a42c74,657159ab04878fbbb10a632c,0.045,0.045,0,32,32,47,1,fourthree,,,,,,,,,,,,,,,,,,,,,,,,,,,,,,,,,,,,,,,,,,,,,,,,,,,,,,,,,,,,,,,,,,,,,,,,,,,,,,,,,,,,,,,,,,,,,,,,,,,,,,,,,,,,,,,,,,,,,,,,,,,,,,,,,,,,,,,
,,655424abfafb67fe33ca8476,2023-12-06_21h35.56.416,kallum_motion_pilot,2023.2.3,Win32,142.8571429,655424abfafb67fe33ca8476,6560176e4d91f764e2a42c74,657159ab04878fbbb10a632c,0.0451,0.0451,0,33,33,36,1,threeone,,,,,,,,,,,,,,,,,,,,,,,,,,,,,,,,,,,,,,,,,,,,,,,,,,,,,,,,,,,,,,,,,,,,,,,,,,,,,,,,,,,,,,,,,,,,,,,,,,,,,,,,,,,,,,,,,,,,,,,,,,,,,,,,,,,,,,,
,,655424abfafb67fe33ca8476,2023-12-06_21h35.56.416,kallum_motion_pilot,2023.2.3,Win32,142.8571429,655424abfafb67fe33ca8476,6560176e4d91f764e2a42c74,657159ab04878fbbb10a632c,0.0453,0.0453,0,34,34,154,1,sixfive,,,,,,,,,,,,,,,,,,,,,,,,,,,,,,,,,,,,,,,,,,,,,,,,,,,,,,,,,,,,,,,,,,,,,,,,,,,,,,,,,,,,,,,,,,,,,,,,,,,,,,,,,,,,,,,,,,,,,,,,,,,,,,,,,,,,,,,
,,655424abfafb67fe33ca8476,2023-12-06_21h35.56.416,kallum_motion_pilot,2023.2.3,Win32,142.8571429,655424abfafb67fe33ca8476,6560176e4d91f764e2a42c74,657159ab04878fbbb10a632c,0.0454,0.0455,0,35,35,84,1,sevenfive,,,,,,,,,,,,,,,,,,,,,,,,,,,,,,,,,,,,,,,,,,,,,,,,,,,,,,,,,,,,,,,,,,,,,,,,,,,,,,,,,,,,,,,,,,,,,,,,,,,,,,,,,,,,,,,,,,,,,,,,,,,,,,,,,,,,,,,
,,655424abfafb67fe33ca8476,2023-12-06_21h35.56.416,kallum_motion_pilot,2023.2.3,Win32,142.8571429,655424abfafb67fe33ca8476,6560176e4d91f764e2a42c74,657159ab04878fbbb10a632c,0.0457,0.0457,0,36,36,54,1,fourtwo,,,,,,,,,,,,,,,,,,,,,,,,,,,,,,,,,,,,,,,,,,,,,,,,,,,,,,,,,,,,,,,,,,,,,,,,,,,,,,,,,,,,,,,,,,,,,,,,,,,,,,,,,,,,,,,,,,,,,,,,,,,,,,,,,,,,,,,
,,655424abfafb67fe33ca8476,2023-12-06_21h35.56.416,kallum_motion_pilot,2023.2.3,Win32,142.8571429,655424abfafb67fe33ca8476,6560176e4d91f764e2a42c74,657159ab04878fbbb10a632c,0.0458,0.0459,0,37,37,159,1,eightseven,,,,,,,,,,,,,,,,,,,,,,,,,,,,,,,,,,,,,,,,,,,,,,,,,,,,,,,,,,,,,,,,,,,,,,,,,,,,,,,,,,,,,,,,,,,,,,,,,,,,,,,,,,,,,,,,,,,,,,,,,,,,,,,,,,,,,,,
,,655424abfafb67fe33ca8476,2023-12-06_21h35.56.416,kallum_motion_pilot,2023.2.3,Win32,142.8571429,655424abfafb67fe33ca8476,6560176e4d91f764e2a42c74,657159ab04878fbbb10a632c,0.046,0.046,0,38,38,93,1,seveneight,,,,,,,,,,,,,,,,,,,,,,,,,,,,,,,,,,,,,,,,,,,,,,,,,,,,,,,,,,,,,,,,,,,,,,,,,,,,,,,,,,,,,,,,,,,,,,,,,,,,,,,,,,,,,,,,,,,,,,,,,,,,,,,,,,,,,,,
,,655424abfafb67fe33ca8476,2023-12-06_21h35.56.416,kallum_motion_pilot,2023.2.3,Win32,142.8571429,655424abfafb67fe33ca8476,6560176e4d91f764e2a42c74,657159ab04878fbbb10a632c,0.0462,0.0462,0,39,39,83,1,sixeight,,,,,,,,,,,,,,,,,,,,,,,,,,,,,,,,,,,,,,,,,,,,,,,,,,,,,,,,,,,,,,,,,,,,,,,,,,,,,,,,,,,,,,,,,,,,,,,,,,,,,,,,,,,,,,,,,,,,,,,,,,,,,,,,,,,,,,,
,,655424abfafb67fe33ca8476,2023-12-06_21h35.56.416,kallum_motion_pilot,2023.2.3,Win32,142.8571429,655424abfafb67fe33ca8476,6560176e4d91f764e2a42c74,657159ab04878fbbb10a632c,0.0463,0.0464,0,40,40,155,1,sixeight,,,,,,,,,,,,,,,,,,,,,,,,,,,,,,,,,,,,,,,,,,,,,,,,,,,,,,,,,,,,,,,,,,,,,,,,,,,,,,,,,,,,,,,,,,,,,,,,,,,,,,,,,,,,,,,,,,,,,,,,,,,,,,,,,,,,,,,
,,655424abfafb67fe33ca8476,2023-12-06_21h35.56.416,kallum_motion_pilot,2023.2.3,Win32,142.8571429,655424abfafb67fe33ca8476,6560176e4d91f764e2a42c74,657159ab04878fbbb10a632c,0.0465,0.0465,0,41,41,100,1,sevenfive,,,,,,,,,,,,,,,,,,,,,,,,,,,,,,,,,,,,,,,,,,,,,,,,,,,,,,,,,,,,,,,,,,,,,,,,,,,,,,,,,,,,,,,,,,,,,,,,,,,,,,,,,,,,,,,,,,,,,,,,,,,,,,,,,,,,,,,
,,655424abfafb67fe33ca8476,2023-12-06_21h35.56.416,kallum_motion_pilot,2023.2.3,Win32,142.8571429,655424abfafb67fe33ca8476,6560176e4d91f764e2a42c74,657159ab04878fbbb10a632c,0.0466,0.0467,0,42,42,110,1,eightsix,,,,,,,,,,,,,,,,,,,,,,,,,,,,,,,,,,,,,,,,,,,,,,,,,,,,,,,,,,,,,,,,,,,,,,,,,,,,,,,,,,,,,,,,,,,,,,,,,,,,,,,,,,,,,,,,,,,,,,,,,,,,,,,,,,,,,,,
,,655424abfafb67fe33ca8476,2023-12-06_21h35.56.416,kallum_motion_pilot,2023.2.3,Win32,142.8571429,655424abfafb67fe33ca8476,6560176e4d91f764e2a42c74,657159ab04878fbbb10a632c,0.0469,0.0469,0,43,43,12,1,threeone,,,,,,,,,,,,,,,,,,,,,,,,,,,,,,,,,,,,,,,,,,,,,,,,,,,,,,,,,,,,,,,,,,,,,,,,,,,,,,,,,,,,,,,,,,,,,,,,,,,,,,,,,,,,,,,,,,,,,,,,,,,,,,,,,,,,,,,
,,655424abfafb67fe33ca8476,2023-12-06_21h35.56.416,kallum_motion_pilot,2023.2.3,Win32,142.8571429,655424abfafb67fe33ca8476,6560176e4d91f764e2a42c74,657159ab04878fbbb10a632c,0.0471,0.0471,0,44,44,52,1,threeone,,,,,,,,,,,,,,,,,,,,,,,,,,,,,,,,,,,,,,,,,,,,,,,,,,,,,,,,,,,,,,,,,,,,,,,,,,,,,,,,,,,,,,,,,,,,,,,,,,,,,,,,,,,,,,,,,,,,,,,,,,,,,,,,,,,,,,,
,,655424abfafb67fe33ca8476,2023-12-06_21h35.56.416,kallum_motion_pilot,2023.2.3,Win32,142.8571429,655424abfafb67fe33ca8476,6560176e4d91f764e2a42c74,657159ab04878fbbb10a632c,0.0472,0.0472,0,45,45,101,1,seveneight,,,,,,,,,,,,,,,,,,,,,,,,,,,,,,,,,,,,,,,,,,,,,,,,,,,,,,,,,,,,,,,,,,,,,,,,,,,,,,,,,,,,,,,,,,,,,,,,,,,,,,,,,,,,,,,,,,,,,,,,,,,,,,,,,,,,,,,
,,655424abfafb67fe33ca8476,2023-12-06_21h35.56.416,kallum_motion_pilot,2023.2.3,Win32,142.8571429,655424abfafb67fe33ca8476,6560176e4d91f764e2a42c74,657159ab04878fbbb10a632c,0.0474,0.0474,0,46,46,73,1,onethree,,,,,,,,,,,,,,,,,,,,,,,,,,,,,,,,,,,,,,,,,,,,,,,,,,,,,,,,,,,,,,,,,,,,,,,,,,,,,,,,,,,,,,,,,,,,,,,,,,,,,,,,,,,,,,,,,,,,,,,,,,,,,,,,,,,,,,,
,,655424abfafb67fe33ca8476,2023-12-06_21h35.56.416,kallum_motion_pilot,2023.2.3,Win32,142.8571429,655424abfafb67fe33ca8476,6560176e4d91f764e2a42c74,657159ab04878fbbb10a632c,0.0476,0.0476,0,47,47,123,1,sixeight,,,,,,,,,,,,,,,,,,,,,,,,,,,,,,,,,,,,,,,,,,,,,,,,,,,,,,,,,,,,,,,,,,,,,,,,,,,,,,,,,,,,,,,,,,,,,,,,,,,,,,,,,,,,,,,,,,,,,,,,,,,,,,,,,,,,,,,
,,655424abfafb67fe33ca8476,2023-12-06_21h35.56.416,kallum_motion_pilot,2023.2.3,Win32,142.8571429,655424abfafb67fe33ca8476,6560176e4d91f764e2a42c74,657159ab04878fbbb10a632c,0.0477,0.0479,0,48,48,50,1,twoone,,,,,,,,,,,,,,,,,,,,,,,,,,,,,,,,,,,,,,,,,,,,,,,,,,,,,,,,,,,,,,,,,,,,,,,,,,,,,,,,,,,,,,,,,,,,,,,,,,,,,,,,,,,,,,,,,,,,,,,,,,,,,,,,,,,,,,,
,,655424abfafb67fe33ca8476,2023-12-06_21h35.56.416,kallum_motion_pilot,2023.2.3,Win32,142.8571429,655424abfafb67fe33ca8476,6560176e4d91f764e2a42c74,657159ab04878fbbb10a632c,0.0479,0.048,0,49,49,41,1,onethree,,,,,,,,,,,,,,,,,,,,,,,,,,,,,,,,,,,,,,,,,,,,,,,,,,,,,,,,,,,,,,,,,,,,,,,,,,,,,,,,,,,,,,,,,,,,,,,,,,,,,,,,,,,,,,,,,,,,,,,,,,,,,,,,,,,,,,,
,,655424abfafb67fe33ca8476,2023-12-06_21h35.56.416,kallum_motion_pilot,2023.2.3,Win32,142.8571429,655424abfafb67fe33ca8476,6560176e4d91f764e2a42c74,657159ab04878fbbb10a632c,0.0482,0.0482,0,50,50,29,1,threefour,,,,,,,,,,,,,,,,,,,,,,,,,,,,,,,,,,,,,,,,,,,,,,,,,,,,,,,,,,,,,,,,,,,,,,,,,,,,,,,,,,,,,,,,,,,,,,,,,,,,,,,,,,,,,,,,,,,,,,,,,,,,,,,,,,,,,,,
,,655424abfafb67fe33ca8476,2023-12-06_21h35.56.416,kallum_motion_pilot,2023.2.3,Win32,142.8571429,655424abfafb67fe33ca8476,6560176e4d91f764e2a42c74,657159ab04878fbbb10a632c,0.0484,0.0485,0,51,51,62,1,fourtwo,,,,,,,,,,,,,,,,,,,,,,,,,,,,,,,,,,,,,,,,,,,,,,,,,,,,,,,,,,,,,,,,,,,,,,,,,,,,,,,,,,,,,,,,,,,,,,,,,,,,,,,,,,,,,,,,,,,,,,,,,,,,,,,,,,,,,,,
,,655424abfafb67fe33ca8476,2023-12-06_21h35.56.416,kallum_motion_pilot,2023.2.3,Win32,142.8571429,655424abfafb67fe33ca8476,6560176e4d91f764e2a42c74,657159ab04878fbbb10a632c,0.0486,0.0487,0,52,52,67,1,twofour,,,,,,,,,,,,,,,,,,,,,,,,,,,,,,,,,,,,,,,,,,,,,,,,,,,,,,,,,,,,,,,,,,,,,,,,,,,,,,,,,,,,,,,,,,,,,,,,,,,,,,,,,,,,,,,,,,,,,,,,,,,,,,,,,,,,,,,
,,655424abfafb67fe33ca8476,2023-12-06_21h35.56.416,kallum_motion_pilot,2023.2.3,Win32,142.8571429,655424abfafb67fe33ca8476,6560176e4d91f764e2a42c74,657159ab04878fbbb10a632c,0.0488,0.0488,0,53,53,131,1,sixeight,,,,,,,,,,,,,,,,,,,,,,,,,,,,,,,,,,,,,,,,,,,,,,,,,,,,,,,,,,,,,,,,,,,,,,,,,,,,,,,,,,,,,,,,,,,,,,,,,,,,,,,,,,,,,,,,,,,,,,,,,,,,,,,,,,,,,,,
,,655424abfafb67fe33ca8476,2023-12-06_21h35.56.416,kallum_motion_pilot,2023.2.3,Win32,142.8571429,655424abfafb67fe33ca8476,6560176e4d91f764e2a42c74,657159ab04878fbbb10a632c,0.049,0.049,0,54,54,34,1,twoone,,,,,,,,,,,,,,,,,,,,,,,,,,,,,,,,,,,,,,,,,,,,,,,,,,,,,,,,,,,,,,,,,,,,,,,,,,,,,,,,,,,,,,,,,,,,,,,,,,,,,,,,,,,,,,,,,,,,,,,,,,,,,,,,,,,,,,,
,,655424abfafb67fe33ca8476,2023-12-06_21h35.56.416,kallum_motion_pilot,2023.2.3,Win32,142.8571429,655424abfafb67fe33ca8476,6560176e4d91f764e2a42c74,657159ab04878fbbb10a632c,0.0491,0.0492,0,55,55,70,1,fourtwo,,,,,,,,,,,,,,,,,,,,,,,,,,,,,,,,,,,,,,,,,,,,,,,,,,,,,,,,,,,,,,,,,,,,,,,,,,,,,,,,,,,,,,,,,,,,,,,,,,,,,,,,,,,,,,,,,,,,,,,,,,,,,,,,,,,,,,,
,,655424abfafb67fe33ca8476,2023-12-06_21h35.56.416,kallum_motion_pilot,2023.2.3,Win32,142.8571429,655424abfafb67fe33ca8476,6560176e4d91f764e2a42c74,657159ab04878fbbb10a632c,0.0493,0.0493,0,56,56,14,1,fourtwo,,,,,,,,,,,,,,,,,,,,,,,,,,,,,,,,,,,,,,,,,,,,,,,,,,,,,,,,,,,,,,,,,,,,,,,,,,,,,,,,,,,,,,,,,,,,,,,,,,,,,,,,,,,,,,,,,,,,,,,,,,,,,,,,,,,,,,,
,,655424abfafb67fe33ca8476,2023-12-06_21h35.56.416,kallum_motion_pilot,2023.2.3,Win32,142.8571429,655424abfafb67fe33ca8476,6560176e4d91f764e2a42c74,657159ab04878fbbb10a632c,0.0495,0.0496,0,57,57,90,1,sixfive,,,,,,,,,,,,,,,,,,,,,,,,,,,,,,,,,,,,,,,,,,,,,,,,,,,,,,,,,,,,,,,,,,,,,,,,,,,,,,,,,,,,,,,,,,,,,,,,,,,,,,,,,,,,,,,,,,,,,,,,,,,,,,,,,,,,,,,
,,655424abfafb67fe33ca8476,2023-12-06_21h35.56.416,kallum_motion_pilot,2023.2.3,Win32,142.8571429,655424abfafb67fe33ca8476,6560176e4d91f764e2a42c74,657159ab04878fbbb10a632c,0.0497,0.0498,0,58,58,59,1,twofour,,,,,,,,,,,,,,,,,,,,,,,,,,,,,,,,,,,,,,,,,,,,,,,,,,,,,,,,,,,,,,,,,,,,,,,,,,,,,,,,,,,,,,,,,,,,,,,,,,,,,,,,,,,,,,,,,,,,,,,,,,,,,,,,,,,,,,,
,,655424abfafb67fe33ca8476,2023-12-06_21h35.56.416,kallum_motion_pilot,2023.2.3,Win32,142.8571429,655424abfafb67fe33ca8476,6560176e4d91f764e2a42c74,657159ab04878fbbb10a632c,0.0499,0.05,0,59,59,113,1,fiveseven,,,,,,,,,,,,,,,,,,,,,,,,,,,,,,,,,,,,,,,,,,,,,,,,,,,,,,,,,,,,,,,,,,,,,,,,,,,,,,,,,,,,,,,,,,,,,,,,,,,,,,,,,,,,,,,,,,,,,,,,,,,,,,,,,,,,,,,
,,655424abfafb67fe33ca8476,2023-12-06_21h35.56.416,kallum_motion_pilot,2023.2.3,Win32,142.8571429,655424abfafb67fe33ca8476,6560176e4d91f764e2a42c74,657159ab04878fbbb10a632c,0.05,0.05,0,60,60,87,1,eightseven,,,,,,,,,,,,,,,,,,,,,,,,,,,,,,,,,,,,,,,,,,,,,,,,,,,,,,,,,,,,,,,,,,,,,,,,,,,,,,,,,,,,,,,,,,,,,,,,,,,,,,,,,,,,,,,,,,,,,,,,,,,,,,,,,,,,,,,
,,655424abfafb67fe33ca8476,2023-12-06_21h35.56.416,kallum_motion_pilot,2023.2.3,Win32,142.8571429,655424abfafb67fe33ca8476,6560176e4d91f764e2a42c74,657159ab04878fbbb10a632c,0.0501,0.0501,0,61,61,1,1,onethree,,,,,,,,,,,,,,,,,,,,,,,,,,,,,,,,,,,,,,,,,,,,,,,,,,,,,,,,,,,,,,,,,,,,,,,,,,,,,,,,,,,,,,,,,,,,,,,,,,,,,,,,,,,,,,,,,,,,,,,,,,,,,,,,,,,,,,,
,,655424abfafb67fe33ca8476,2023-12-06_21h35.56.416,kallum_motion_pilot,2023.2.3,Win32,142.8571429,655424abfafb67fe33ca8476,6560176e4d91f764e2a42c74,657159ab04878fbbb10a632c,0.0503,0.0503,0,62,62,107,1,sixeight,,,,,,,,,,,,,,,,,,,,,,,,,,,,,,,,,,,,,,,,,,,,,,,,,,,,,,,,,,,,,,,,,,,,,,,,,,,,,,,,,,,,,,,,,,,,,,,,,,,,,,,,,,,,,,,,,,,,,,,,,,,,,,,,,,,,,,,
,,655424abfafb67fe33ca8476,2023-12-06_21h35.56.416,kallum_motion_pilot,2023.2.3,Win32,142.8571429,655424abfafb67fe33ca8476,6560176e4d91f764e2a42c74,657159ab04878fbbb10a632c,0.0504,0.0505,0,63,63,30,1,fourtwo,,,,,,,,,,,,,,,,,,,,,,,,,,,,,,,,,,,,,,,,,,,,,,,,,,,,,,,,,,,,,,,,,,,,,,,,,,,,,,,,,,,,,,,,,,,,,,,,,,,,,,,,,,,,,,,,,,,,,,,,,,,,,,,,,,,,,,,
,,655424abfafb67fe33ca8476,2023-12-06_21h35.56.416,kallum_motion_pilot,2023.2.3,Win32,142.8571429,655424abfafb67fe33ca8476,6560176e4d91f764e2a42c74,657159ab04878fbbb10a632c,0.0506,0.0507,0,64,64,151,1,eightseven,,,,,,,,,,,,,,,,,,,,,,,,,,,,,,,,,,,,,,,,,,,,,,,,,,,,,,,,,,,,,,,,,,,,,,,,,,,,,,,,,,,,,,,,,,,,,,,,,,,,,,,,,,,,,,,,,,,,,,,,,,,,,,,,,,,,,,,
,,655424abfafb67fe33ca8476,2023-12-06_21h35.56.416,kallum_motion_pilot,2023.2.3,Win32,142.8571429,655424abfafb67fe33ca8476,6560176e4d91f764e2a42c74,657159ab04878fbbb10a632c,0.0507,0.0507,0,65,65,2,1,twoone,,,,,,,,,,,,,,,,,,,,,,,,,,,,,,,,,,,,,,,,,,,,,,,,,,,,,,,,,,,,,,,,,,,,,,,,,,,,,,,,,,,,,,,,,,,,,,,,,,,,,,,,,,,,,,,,,,,,,,,,,,,,,,,,,,,,,,,
,,655424abfafb67fe33ca8476,2023-12-06_21h35.56.416,kallum_motion_pilot,2023.2.3,Win32,142.8571429,655424abfafb67fe33ca8476,6560176e4d91f764e2a42c74,657159ab04878fbbb10a632c,0.0509,0.051,0,66,66,103,1,eightseven,,,,,,,,,,,,,,,,,,,,,,,,,,,,,,,,,,,,,,,,,,,,,,,,,,,,,,,,,,,,,,,,,,,,,,,,,,,,,,,,,,,,,,,,,,,,,,,,,,,,,,,,,,,,,,,,,,,,,,,,,,,,,,,,,,,,,,,
,,655424abfafb67fe33ca8476,2023-12-06_21h35.56.416,kallum_motion_pilot,2023.2.3,Win32,142.8571429,655424abfafb67fe33ca8476,6560176e4d91f764e2a42c74,657159ab04878fbbb10a632c,0.051,0.051,0,67,67,112,1,fivesix,,,,,,,,,,,,,,,,,,,,,,,,,,,,,,,,,,,,,,,,,,,,,,,,,,,,,,,,,,,,,,,,,,,,,,,,,,,,,,,,,,,,,,,,,,,,,,,,,,,,,,,,,,,,,,,,,,,,,,,,,,,,,,,,,,,,,,,
,,655424abfafb67fe33ca8476,2023-12-06_21h35.56.416,kallum_motion_pilot,2023.2.3,Win32,142.8571429,655424abfafb67fe33ca8476,6560176e4d91f764e2a42c74,657159ab04878fbbb10a632c,0.0512,0.0513,0,68,68,152,1,fivesix,,,,,,,,,,,,,,,,,,,,,,,,,,,,,,,,,,,,,,,,,,,,,,,,,,,,,,,,,,,,,,,,,,,,,,,,,,,,,,,,,,,,,,,,,,,,,,,,,,,,,,,,,,,,,,,,,,,,,,,,,,,,,,,,,,,,,,,
,,655424abfafb67fe33ca8476,2023-12-06_21h35.56.416,kallum_motion_pilot,2023.2.3,Win32,142.8571429,655424abfafb67fe33ca8476,6560176e4d91f764e2a42c74,657159ab04878fbbb10a632c,0.0514,0.0514,0,69,69,157,1,seveneight,,,,,,,,,,,,,,,,,,,,,,,,,,,,,,,,,,,,,,,,,,,,,,,,,,,,,,,,,,,,,,,,,,,,,,,,,,,,,,,,,,,,,,,,,,,,,,,,,,,,,,,,,,,,,,,,,,,,,,,,,,,,,,,,,,,,,,,
,,655424abfafb67fe33ca8476,2023-12-06_21h35.56.416,kallum_motion_pilot,2023.2.3,Win32,142.8571429,655424abfafb67fe33ca8476,6560176e4d91f764e2a42c74,657159ab04878fbbb10a632c,0.0515,0.0515,0,70,70,20,1,threeone,,,,,,,,,,,,,,,,,,,,,,,,,,,,,,,,,,,,,,,,,,,,,,,,,,,,,,,,,,,,,,,,,,,,,,,,,,,,,,,,,,,,,,,,,,,,,,,,,,,,,,,,,,,,,,,,,,,,,,,,,,,,,,,,,,,,,,,
,,655424abfafb67fe33ca8476,2023-12-06_21h35.56.416,kallum_motion_pilot,2023.2.3,Win32,142.8571429,655424abfafb67fe33ca8476,6560176e4d91f764e2a42c74,657159ab04878fbbb10a632c,0.0516,0.0517,0,71,71,0,1,onetwo,,,,,,,,,,,,,,,,,,,,,,,,,,,,,,,,,,,,,,,,,,,,,,,,,,,,,,,,,,,,,,,,,,,,,,,,,,,,,,,,,,,,,,,,,,,,,,,,,,,,,,,,,,,,,,,,,,,,,,,,,,,,,,,,,,,,,,,
,,655424abfafb67fe33ca8476,2023-12-06_21h35.56.416,kallum_motion_pilot,2023.2.3,Win32,142.8571429,655424abfafb67fe33ca8476,6560176e4d91f764e2a42c74,657159ab04878fbbb10a632c,0.0519,0.0519,0,72,72,105,1,fiveseven,,,,,,,,,,,,,,,,,,,,,,,,,,,,,,,,,,,,,,,,,,,,,,,,,,,,,,,,,,,,,,,,,,,,,,,,,,,,,,,,,,,,,,,,,,,,,,,,,,,,,,,,,,,,,,,,,,,,,,,,,,,,,,,,,,,,,,,
,,655424abfafb67fe33ca8476,2023-12-06_21h35.56.416,kallum_motion_pilot,2023.2.3,Win32,142.8571429,655424abfafb67fe33ca8476,6560176e4d91f764e2a42c74,657159ab04878fbbb10a632c,0.052,0.052,0,73,73,97,1,fiveseven,,,,,,,,,,,,,,,,,,,,,,,,,,,,,,,,,,,,,,,,,,,,,,,,,,,,,,,,,,,,,,,,,,,,,,,,,,,,,,,,,,,,,,,,,,,,,,,,,,,,,,,,,,,,,,,,,,,,,,,,,,,,,,,,,,,,,,,
,,655424abfafb67fe33ca8476,2023-12-06_21h35.56.416,kallum_motion_pilot,2023.2.3,Win32,142.8571429,655424abfafb67fe33ca8476,6560176e4d91f764e2a42c74,657159ab04878fbbb10a632c,0.0523,0.0523,0,74,74,24,1,onetwo,,,,,,,,,,,,,,,,,,,,,,,,,,,,,,,,,,,,,,,,,,,,,,,,,,,,,,,,,,,,,,,,,,,,,,,,,,,,,,,,,,,,,,,,,,,,,,,,,,,,,,,,,,,,,,,,,,,,,,,,,,,,,,,,,,,,,,,
,,655424abfafb67fe33ca8476,2023-12-06_21h35.56.416,kallum_motion_pilot,2023.2.3,Win32,142.8571429,655424abfafb67fe33ca8476,6560176e4d91f764e2a42c74,657159ab04878fbbb10a632c,0.0524,0.0525,0,75,75,58,1,twoone,,,,,,,,,,,,,,,,,,,,,,,,,,,,,,,,,,,,,,,,,,,,,,,,,,,,,,,,,,,,,,,,,,,,,,,,,,,,,,,,,,,,,,,,,,,,,,,,,,,,,,,,,,,,,,,,,,,,,,,,,,,,,,,,,,,,,,,
,,655424abfafb67fe33ca8476,2023-12-06_21h35.56.416,kallum_motion_pilot,2023.2.3,Win32,142.8571429,655424abfafb67fe33ca8476,6560176e4d91f764e2a42c74,657159ab04878fbbb10a632c,0.0526,0.0527,0,76,76,21,1,threefour,,,,,,,,,,,,,,,,,,,,,,,,,,,,,,,,,,,,,,,,,,,,,,,,,,,,,,,,,,,,,,,,,,,,,,,,,,,,,,,,,,,,,,,,,,,,,,,,,,,,,,,,,,,,,,,,,,,,,,,,,,,,,,,,,,,,,,,
,,655424abfafb67fe33ca8476,2023-12-06_21h35.56.416,kallum_motion_pilot,2023.2.3,Win32,142.8571429,655424abfafb67fe33ca8476,6560176e4d91f764e2a42c74,657159ab04878fbbb10a632c,0.0528,0.0529,0,77,77,18,1,twoone,,,,,,,,,,,,,,,,,,,,,,,,,,,,,,,,,,,,,,,,,,,,,,,,,,,,,,,,,,,,,,,,,,,,,,,,,,,,,,,,,,,,,,,,,,,,,,,,,,,,,,,,,,,,,,,,,,,,,,,,,,,,,,,,,,,,,,,
,,655424abfafb67fe33ca8476,2023-12-06_21h35.56.416,kallum_motion_pilot,2023.2.3,Win32,142.8571429,655424abfafb67fe33ca8476,6560176e4d91f764e2a42c74,657159ab04878fbbb10a632c,0.053,0.0531,0,78,78,42,1,twoone,,,,,,,,,,,,,,,,,,,,,,,,,,,,,,,,,,,,,,,,,,,,,,,,,,,,,,,,,,,,,,,,,,,,,,,,,,,,,,,,,,,,,,,,,,,,,,,,,,,,,,,,,,,,,,,,,,,,,,,,,,,,,,,,,,,,,,,
,,655424abfafb67fe33ca8476,2023-12-06_21h35.56.416,kallum_motion_pilot,2023.2.3,Win32,142.8571429,655424abfafb67fe33ca8476,6560176e4d91f764e2a42c74,657159ab04878fbbb10a632c,0.0532,0.0533,0,79,79,150,1,eightsix,,,,,,,,,,,,,,,,,,,,,,,,,,,,,,,,,,,,,,,,,,,,,,,,,,,,,,,,,,,,,,,,,,,,,,,,,,,,,,,,,,,,,,,,,,,,,,,,,,,,,,,,,,,,,,,,,,,,,,,,,,,,,,,,,,,,,,,
,,655424abfafb67fe33ca8476,2023-12-06_21h35.56.416,kallum_motion_pilot,2023.2.3,Win32,142.8571429,655424abfafb67fe33ca8476,6560176e4d91f764e2a42c74,657159ab04878fbbb10a632c,0.0533,0.0534,0,80,80,76,1,threeone,,,,,,,,,,,,,,,,,,,,,,,,,,,,,,,,,,,,,,,,,,,,,,,,,,,,,,,,,,,,,,,,,,,,,,,,,,,,,,,,,,,,,,,,,,,,,,,,,,,,,,,,,,,,,,,,,,,,,,,,,,,,,,,,,,,,,,,
,,655424abfafb67fe33ca8476,2023-12-06_21h35.56.416,kallum_motion_pilot,2023.2.3,Win32,142.8571429,655424abfafb67fe33ca8476,6560176e4d91f764e2a42c74,657159ab04878fbbb10a632c,0.0535,0.0536,0,81,81,160,1,fivesix,,,,,,,,,,,,,,,,,,,,,,,,,,,,,,,,,,,,,,,,,,,,,,,,,,,,,,,,,,,,,,,,,,,,,,,,,,,,,,,,,,,,,,,,,,,,,,,,,,,,,,,,,,,,,,,,,,,,,,,,,,,,,,,,,,,,,,,
,,655424abfafb67fe33ca8476,2023-12-06_21h35.56.416,kallum_motion_pilot,2023.2.3,Win32,142.8571429,655424abfafb67fe33ca8476,6560176e4d91f764e2a42c74,657159ab04878fbbb10a632c,0.0537,0.0538,0,82,82,15,1,fourthree,,,,,,,,,,,,,,,,,,,,,,,,,,,,,,,,,,,,,,,,,,,,,,,,,,,,,,,,,,,,,,,,,,,,,,,,,,,,,,,,,,,,,,,,,,,,,,,,,,,,,,,,,,,,,,,,,,,,,,,,,,,,,,,,,,,,,,,
,,655424abfafb67fe33ca8476,2023-12-06_21h35.56.416,kallum_motion_pilot,2023.2.3,Win32,142.8571429,655424abfafb67fe33ca8476,6560176e4d91f764e2a42c74,657159ab04878fbbb10a632c,0.0539,0.054,0,83,83,79,1,eightseven,,,,,,,,,,,,,,,,,,,,,,,,,,,,,,,,,,,,,,,,,,,,,,,,,,,,,,,,,,,,,,,,,,,,,,,,,,,,,,,,,,,,,,,,,,,,,,,,,,,,,,,,,,,,,,,,,,,,,,,,,,,,,,,,,,,,,,,
,,655424abfafb67fe33ca8476,2023-12-06_21h35.56.416,kallum_motion_pilot,2023.2.3,Win32,142.8571429,655424abfafb67fe33ca8476,6560176e4d91f764e2a42c74,657159ab04878fbbb10a632c,0.0541,0.0542,0,84,84,32,1,onetwo,,,,,,,,,,,,,,,,,,,,,,,,,,,,,,,,,,,,,,,,,,,,,,,,,,,,,,,,,,,,,,,,,,,,,,,,,,,,,,,,,,,,,,,,,,,,,,,,,,,,,,,,,,,,,,,,,,,,,,,,,,,,,,,,,,,,,,,
,,655424abfafb67fe33ca8476,2023-12-06_21h35.56.416,kallum_motion_pilot,2023.2.3,Win32,142.8571429,655424abfafb67fe33ca8476,6560176e4d91f764e2a42c74,657159ab04878fbbb10a632c,0.0543,0.0544,0,85,85,9,1,onethree,,,,,,,,,,,,,,,,,,,,,,,,,,,,,,,,,,,,,,,,,,,,,,,,,,,,,,,,,,,,,,,,,,,,,,,,,,,,,,,,,,,,,,,,,,,,,,,,,,,,,,,,,,,,,,,,,,,,,,,,,,,,,,,,,,,,,,,
,,655424abfafb67fe33ca8476,2023-12-06_21h35.56.416,kallum_motion_pilot,2023.2.3,Win32,142.8571429,655424abfafb67fe33ca8476,6560176e4d91f764e2a42c74,657159ab04878fbbb10a632c,0.0545,0.0545,0,86,86,91,1,sixeight,,,,,,,,,,,,,,,,,,,,,,,,,,,,,,,,,,,,,,,,,,,,,,,,,,,,,,,,,,,,,,,,,,,,,,,,,,,,,,,,,,,,,,,,,,,,,,,,,,,,,,,,,,,,,,,,,,,,,,,,,,,,,,,,,,,,,,,
,,655424abfafb67fe33ca8476,2023-12-06_21h35.56.416,kallum_motion_pilot,2023.2.3,Win32,142.8571429,655424abfafb67fe33ca8476,6560176e4d91f764e2a42c74,657159ab04878fbbb10a632c,0.0546,0.0546,0,87,87,153,1,fiveseven,,,,,,,,,,,,,,,,,,,,,,,,,,,,,,,,,,,,,,,,,,,,,,,,,,,,,,,,,,,,,,,,,,,,,,,,,,,,,,,,,,,,,,,,,,,,,,,,,,,,,,,,,,,,,,,,,,,,,,,,,,,,,,,,,,,,,,,
,,655424abfafb67fe33ca8476,2023-12-06_21h35.56.416,kallum_motion_pilot,2023.2.3,Win32,142.8571429,655424abfafb67fe33ca8476,6560176e4d91f764e2a42c74,657159ab04878fbbb10a632c,0.0547,0.0548,0,88,88,78,1,fourtwo,,,,,,,,,,,,,,,,,,,,,,,,,,,,,,,,,,,,,,,,,,,,,,,,,,,,,,,,,,,,,,,,,,,,,,,,,,,,,,,,,,,,,,,,,,,,,,,,,,,,,,,,,,,,,,,,,,,,,,,,,,,,,,,,,,,,,,,
,,655424abfafb67fe33ca8476,2023-12-06_21h35.56.416,kallum_motion_pilot,2023.2.3,Win32,142.8571429,655424abfafb67fe33ca8476,6560176e4d91f764e2a42c74,657159ab04878fbbb10a632c,0.0548,0.055,0,89,89,116,1,sevenfive,,,,,,,,,,,,,,,,,,,,,,,,,,,,,,,,,,,,,,,,,,,,,,,,,,,,,,,,,,,,,,,,,,,,,,,,,,,,,,,,,,,,,,,,,,,,,,,,,,,,,,,,,,,,,,,,,,,,,,,,,,,,,,,,,,,,,,,
,,655424abfafb67fe33ca8476,2023-12-06_21h35.56.416,kallum_motion_pilot,2023.2.3,Win32,142.8571429,655424abfafb67fe33ca8476,6560176e4d91f764e2a42c74,657159ab04878fbbb10a632c,0.0551,0.0552,0,90,90,69,1,threefour,,,,,,,,,,,,,,,,,,,,,,,,,,,,,,,,,,,,,,,,,,,,,,,,,,,,,,,,,,,,,,,,,,,,,,,,,,,,,,,,,,,,,,,,,,,,,,,,,,,,,,,,,,,,,,,,,,,,,,,,,,,,,,,,,,,,,,,
,,655424abfafb67fe33ca8476,2023-12-06_21h35.56.416,kallum_motion_pilot,2023.2.3,Win32,142.8571429,655424abfafb67fe33ca8476,6560176e4d91f764e2a42c74,657159ab04878fbbb10a632c,0.0553,0.0554,0,91,91,63,1,fourthree,,,,,,,,,,,,,,,,,,,,,,,,,,,,,,,,,,,,,,,,,,,,,,,,,,,,,,,,,,,,,,,,,,,,,,,,,,,,,,,,,,,,,,,,,,,,,,,,,,,,,,,,,,,,,,,,,,,,,,,,,,,,,,,,,,,,,,,
,,655424abfafb67fe33ca8476,2023-12-06_21h35.56.416,kallum_motion_pilot,2023.2.3,Win32,142.8571429,655424abfafb67fe33ca8476,6560176e4d91f764e2a42c74,657159ab04878fbbb10a632c,0.0555,0.0556,0,92,92,132,1,sevenfive,,,,,,,,,,,,,,,,,,,,,,,,,,,,,,,,,,,,,,,,,,,,,,,,,,,,,,,,,,,,,,,,,,,,,,,,,,,,,,,,,,,,,,,,,,,,,,,,,,,,,,,,,,,,,,,,,,,,,,,,,,,,,,,,,,,,,,,
,,655424abfafb67fe33ca8476,2023-12-06_21h35.56.416,kallum_motion_pilot,2023.2.3,Win32,142.8571429,655424abfafb67fe33ca8476,6560176e4d91f764e2a42c74,657159ab04878fbbb10a632c,0.0557,0.0558,0,93,93,61,1,threefour,,,,,,,,,,,,,,,,,,,,,,,,,,,,,,,,,,,,,,,,,,,,,,,,,,,,,,,,,,,,,,,,,,,,,,,,,,,,,,,,,,,,,,,,,,,,,,,,,,,,,,,,,,,,,,,,,,,,,,,,,,,,,,,,,,,,,,,
,,655424abfafb67fe33ca8476,2023-12-06_21h35.56.416,kallum_motion_pilot,2023.2.3,Win32,142.8571429,655424abfafb67fe33ca8476,6560176e4d91f764e2a42c74,657159ab04878fbbb10a632c,0.056,0.0561,0,94,94,72,1,onetwo,,,,,,,,,,,,,,,,,,,,,,,,,,,,,,,,,,,,,,,,,,,,,,,,,,,,,,,,,,,,,,,,,,,,,,,,,,,,,,,,,,,,,,,,,,,,,,,,,,,,,,,,,,,,,,,,,,,,,,,,,,,,,,,,,,,,,,,
,,655424abfafb67fe33ca8476,2023-12-06_21h35.56.416,kallum_motion_pilot,2023.2.3,Win32,142.8571429,655424abfafb67fe33ca8476,6560176e4d91f764e2a42c74,657159ab04878fbbb10a632c,0.0563,0.0563,0,95,95,57,1,onethree,,,,,,,,,,,,,,,,,,,,,,,,,,,,,,,,,,,,,,,,,,,,,,,,,,,,,,,,,,,,,,,,,,,,,,,,,,,,,,,,,,,,,,,,,,,,,,,,,,,,,,,,,,,,,,,,,,,,,,,,,,,,,,,,,,,,,,,
,,655424abfafb67fe33ca8476,2023-12-06_21h35.56.416,kallum_motion_pilot,2023.2.3,Win32,142.8571429,655424abfafb67fe33ca8476,6560176e4d91f764e2a42c74,657159ab04878fbbb10a632c,0.0564,0.0564,0,96,96,65,1,onethree,,,,,,,,,,,,,,,,,,,,,,,,,,,,,,,,,,,,,,,,,,,,,,,,,,,,,,,,,,,,,,,,,,,,,,,,,,,,,,,,,,,,,,,,,,,,,,,,,,,,,,,,,,,,,,,,,,,,,,,,,,,,,,,,,,,,,,,
,,655424abfafb67fe33ca8476,2023-12-06_21h35.56.416,kallum_motion_pilot,2023.2.3,Win32,142.8571429,655424abfafb67fe33ca8476,6560176e4d91f764e2a42c74,657159ab04878fbbb10a632c,0.0566,0.0567,0,97,97,3,1,twofour,,,,,,,,,,,,,,,,,,,,,,,,,,,,,,,,,,,,,,,,,,,,,,,,,,,,,,,,,,,,,,,,,,,,,,,,,,,,,,,,,,,,,,,,,,,,,,,,,,,,,,,,,,,,,,,,,,,,,,,,,,,,,,,,,,,,,,,
,,655424abfafb67fe33ca8476,2023-12-06_21h35.56.416,kallum_motion_pilot,2023.2.3,Win32,142.8571429,655424abfafb67fe33ca8476,6560176e4d91f764e2a42c74,657159ab04878fbbb10a632c,0.0567,0.0569,0,98,98,11,1,twofour,,,,,,,,,,,,,,,,,,,,,,,,,,,,,,,,,,,,,,,,,,,,,,,,,,,,,,,,,,,,,,,,,,,,,,,,,,,,,,,,,,,,,,,,,,,,,,,,,,,,,,,,,,,,,,,,,,,,,,,,,,,,,,,,,,,,,,,
,,655424abfafb67fe33ca8476,2023-12-06_21h35.56.416,kallum_motion_pilot,2023.2.3,Win32,142.8571429,655424abfafb67fe33ca8476,6560176e4d91f764e2a42c74,657159ab04878fbbb10a632c,0.0569,0.0571,0,99,99,26,1,twoone,,,,,,,,,,,,,,,,,,,,,,,,,,,,,,,,,,,,,,,,,,,,,,,,,,,,,,,,,,,,,,,,,,,,,,,,,,,,,,,,,,,,,,,,,,,,,,,,,,,,,,,,,,,,,,,,,,,,,,,,,,,,,,,,,,,,,,,
,,655424abfafb67fe33ca8476,2023-12-06_21h35.56.416,kallum_motion_pilot,2023.2.3,Win32,142.8571429,655424abfafb67fe33ca8476,6560176e4d91f764e2a42c74,657159ab04878fbbb10a632c,0.0572,0.0573,0,100,100,6,1,fourtwo,,,,,,,,,,,,,,,,,,,,,,,,,,,,,,,,,,,,,,,,,,,,,,,,,,,,,,,,,,,,,,,,,,,,,,,,,,,,,,,,,,,,,,,,,,,,,,,,,,,,,,,,,,,,,,,,,,,,,,,,,,,,,,,,,,,,,,,
,,655424abfafb67fe33ca8476,2023-12-06_21h35.56.416,kallum_motion_pilot,2023.2.3,Win32,142.8571429,655424abfafb67fe33ca8476,6560176e4d91f764e2a42c74,657159ab04878fbbb10a632c,0.0574,0.0575,0,101,101,109,1,seveneight,,,,,,,,,,,,,,,,,,,,,,,,,,,,,,,,,,,,,,,,,,,,,,,,,,,,,,,,,,,,,,,,,,,,,,,,,,,,,,,,,,,,,,,,,,,,,,,,,,,,,,,,,,,,,,,,,,,,,,,,,,,,,,,,,,,,,,,
,,655424abfafb67fe33ca8476,2023-12-06_21h35.56.416,kallum_motion_pilot,2023.2.3,Win32,142.8571429,655424abfafb67fe33ca8476,6560176e4d91f764e2a42c74,657159ab04878fbbb10a632c,0.0576,0.0577,0,102,102,17,1,onethree,,,,,,,,,,,,,,,,,,,,,,,,,,,,,,,,,,,,,,,,,,,,,,,,,,,,,,,,,,,,,,,,,,,,,,,,,,,,,,,,,,,,,,,,,,,,,,,,,,,,,,,,,,,,,,,,,,,,,,,,,,,,,,,,,,,,,,,
,,655424abfafb67fe33ca8476,2023-12-06_21h35.56.416,kallum_motion_pilot,2023.2.3,Win32,142.8571429,655424abfafb67fe33ca8476,6560176e4d91f764e2a42c74,657159ab04878fbbb10a632c,0.0578,0.0579,0,103,103,104,1,fivesix,,,,,,,,,,,,,,,,,,,,,,,,,,,,,,,,,,,,,,,,,,,,,,,,,,,,,,,,,,,,,,,,,,,,,,,,,,,,,,,,,,,,,,,,,,,,,,,,,,,,,,,,,,,,,,,,,,,,,,,,,,,,,,,,,,,,,,,
,,655424abfafb67fe33ca8476,2023-12-06_21h35.56.416,kallum_motion_pilot,2023.2.3,Win32,142.8571429,655424abfafb67fe33ca8476,6560176e4d91f764e2a42c74,657159ab04878fbbb10a632c,0.058,0.0581,0,104,104,35,1,twofour,,,,,,,,,,,,,,,,,,,,,,,,,,,,,,,,,,,,,,,,,,,,,,,,,,,,,,,,,,,,,,,,,,,,,,,,,,,,,,,,,,,,,,,,,,,,,,,,,,,,,,,,,,,,,,,,,,,,,,,,,,,,,,,,,,,,,,,
,,655424abfafb67fe33ca8476,2023-12-06_21h35.56.416,kallum_motion_pilot,2023.2.3,Win32,142.8571429,655424abfafb67fe33ca8476,6560176e4d91f764e2a42c74,657159ab04878fbbb10a632c,0.0582,0.0583,0,105,105,114,1,sixfive,,,,,,,,,,,,,,,,,,,,,,,,,,,,,,,,,,,,,,,,,,,,,,,,,,,,,,,,,,,,,,,,,,,,,,,,,,,,,,,,,,,,,,,,,,,,,,,,,,,,,,,,,,,,,,,,,,,,,,,,,,,,,,,,,,,,,,,
,,655424abfafb67fe33ca8476,2023-12-06_21h35.56.416,kallum_motion_pilot,2023.2.3,Win32,142.8571429,655424abfafb67fe33ca8476,6560176e4d91f764e2a42c74,657159ab04878fbbb10a632c,0.0584,0.0585,0,106,106,82,1,sixfive,,,,,,,,,,,,,,,,,,,,,,,,,,,,,,,,,,,,,,,,,,,,,,,,,,,,,,,,,,,,,,,,,,,,,,,,,,,,,,,,,,,,,,,,,,,,,,,,,,,,,,,,,,,,,,,,,,,,,,,,,,,,,,,,,,,,,,,
,,655424abfafb67fe33ca8476,2023-12-06_21h35.56.416,kallum_motion_pilot,2023.2.3,Win32,142.8571429,655424abfafb67fe33ca8476,6560176e4d91f764e2a42c74,657159ab04878fbbb10a632c,0.0586,0.0587,0,107,107,39,1,fourthree,,,,,,,,,,,,,,,,,,,,,,,,,,,,,,,,,,,,,,,,,,,,,,,,,,,,,,,,,,,,,,,,,,,,,,,,,,,,,,,,,,,,,,,,,,,,,,,,,,,,,,,,,,,,,,,,,,,,,,,,,,,,,,,,,,,,,,,
,,655424abfafb67fe33ca8476,2023-12-06_21h35.56.416,kallum_motion_pilot,2023.2.3,Win32,142.8571429,655424abfafb67fe33ca8476,6560176e4d91f764e2a42c74,657159ab04878fbbb10a632c,0.0588,0.059,0,108,108,8,1,onetwo,,,,,,,,,,,,,,,,,,,,,,,,,,,,,,,,,,,,,,,,,,,,,,,,,,,,,,,,,,,,,,,,,,,,,,,,,,,,,,,,,,,,,,,,,,,,,,,,,,,,,,,,,,,,,,,,,,,,,,,,,,,,,,,,,,,,,,,
,,655424abfafb67fe33ca8476,2023-12-06_21h35.56.416,kallum_motion_pilot,2023.2.3,Win32,142.8571429,655424abfafb67fe33ca8476,6560176e4d91f764e2a42c74,657159ab04878fbbb10a632c,0.059,0.0591,0,109,109,7,1,fourthree,,,,,,,,,,,,,,,,,,,,,,,,,,,,,,,,,,,,,,,,,,,,,,,,,,,,,,,,,,,,,,,,,,,,,,,,,,,,,,,,,,,,,,,,,,,,,,,,,,,,,,,,,,,,,,,,,,,,,,,,,,,,,,,,,,,,,,,
,,655424abfafb67fe33ca8476,2023-12-06_21h35.56.416,kallum_motion_pilot,2023.2.3,Win32,142.8571429,655424abfafb67fe33ca8476,6560176e4d91f764e2a42c74,657159ab04878fbbb10a632c,0.0593,0.0594,0,110,110,77,1,threefour,,,,,,,,,,,,,,,,,,,,,,,,,,,,,,,,,,,,,,,,,,,,,,,,,,,,,,,,,,,,,,,,,,,,,,,,,,,,,,,,,,,,,,,,,,,,,,,,,,,,,,,,,,,,,,,,,,,,,,,,,,,,,,,,,,,,,,,
,,655424abfafb67fe33ca8476,2023-12-06_21h35.56.416,kallum_motion_pilot,2023.2.3,Win32,142.8571429,655424abfafb67fe33ca8476,6560176e4d91f764e2a42c74,657159ab04878fbbb10a632c,0.0595,0.0596,0,111,111,125,1,seveneight,,,,,,,,,,,,,,,,,,,,,,,,,,,,,,,,,,,,,,,,,,,,,,,,,,,,,,,,,,,,,,,,,,,,,,,,,,,,,,,,,,,,,,,,,,,,,,,,,,,,,,,,,,,,,,,,,,,,,,,,,,,,,,,,,,,,,,,
,,655424abfafb67fe33ca8476,2023-12-06_21h35.56.416,kallum_motion_pilot,2023.2.3,Win32,142.8571429,655424abfafb67fe33ca8476,6560176e4d91f764e2a42c74,657159ab04878fbbb10a632c,0.0597,0.0597,0,112,112,86,1,eightsix,,,,,,,,,,,,,,,,,,,,,,,,,,,,,,,,,,,,,,,,,,,,,,,,,,,,,,,,,,,,,,,,,,,,,,,,,,,,,,,,,,,,,,,,,,,,,,,,,,,,,,,,,,,,,,,,,,,,,,,,,,,,,,,,,,,,,,,
,,655424abfafb67fe33ca8476,2023-12-06_21h35.56.416,kallum_motion_pilot,2023.2.3,Win32,142.8571429,655424abfafb67fe33ca8476,6560176e4d91f764e2a42c74,657159ab04878fbbb10a632c,0.06,0.06,0,113,113,71,1,fourthree,,,,,,,,,,,,,,,,,,,,,,,,,,,,,,,,,,,,,,,,,,,,,,,,,,,,,,,,,,,,,,,,,,,,,,,,,,,,,,,,,,,,,,,,,,,,,,,,,,,,,,,,,,,,,,,,,,,,,,,,,,,,,,,,,,,,,,,
,,655424abfafb67fe33ca8476,2023-12-06_21h35.56.416,kallum_motion_pilot,2023.2.3,Win32,142.8571429,655424abfafb67fe33ca8476,6560176e4d91f764e2a42c74,657159ab04878fbbb10a632c,0.0601,0.0602,0,114,114,96,1,fivesix,,,,,,,,,,,,,,,,,,,,,,,,,,,,,,,,,,,,,,,,,,,,,,,,,,,,,,,,,,,,,,,,,,,,,,,,,,,,,,,,,,,,,,,,,,,,,,,,,,,,,,,,,,,,,,,,,,,,,,,,,,,,,,,,,,,,,,,
,,655424abfafb67fe33ca8476,2023-12-06_21h35.56.416,kallum_motion_pilot,2023.2.3,Win32,142.8571429,655424abfafb67fe33ca8476,6560176e4d91f764e2a42c74,657159ab04878fbbb10a632c,0.0604,0.0604,0,115,115,33,1,onethree,,,,,,,,,,,,,,,,,,,,,,,,,,,,,,,,,,,,,,,,,,,,,,,,,,,,,,,,,,,,,,,,,,,,,,,,,,,,,,,,,,,,,,,,,,,,,,,,,,,,,,,,,,,,,,,,,,,,,,,,,,,,,,,,,,,,,,,
,,655424abfafb67fe33ca8476,2023-12-06_21h35.56.416,kallum_motion_pilot,2023.2.3,Win32,142.8571429,655424abfafb67fe33ca8476,6560176e4d91f764e2a42c74,657159ab04878fbbb10a632c,0.0605,0.0605,0,116,116,120,1,fivesix,,,,,,,,,,,,,,,,,,,,,,,,,,,,,,,,,,,,,,,,,,,,,,,,,,,,,,,,,,,,,,,,,,,,,,,,,,,,,,,,,,,,,,,,,,,,,,,,,,,,,,,,,,,,,,,,,,,,,,,,,,,,,,,,,,,,,,,
,,655424abfafb67fe33ca8476,2023-12-06_21h35.56.416,kallum_motion_pilot,2023.2.3,Win32,142.8571429,655424abfafb67fe33ca8476,6560176e4d91f764e2a42c74,657159ab04878fbbb10a632c,0.0606,0.0607,0,117,117,60,1,threeone,,,,,,,,,,,,,,,,,,,,,,,,,,,,,,,,,,,,,,,,,,,,,,,,,,,,,,,,,,,,,,,,,,,,,,,,,,,,,,,,,,,,,,,,,,,,,,,,,,,,,,,,,,,,,,,,,,,,,,,,,,,,,,,,,,,,,,,
,,655424abfafb67fe33ca8476,2023-12-06_21h35.56.416,kallum_motion_pilot,2023.2.3,Win32,142.8571429,655424abfafb67fe33ca8476,6560176e4d91f764e2a42c74,657159ab04878fbbb10a632c,0.0607,0.0607,0,118,118,19,1,twofour,,,,,,,,,,,,,,,,,,,,,,,,,,,,,,,,,,,,,,,,,,,,,,,,,,,,,,,,,,,,,,,,,,,,,,,,,,,,,,,,,,,,,,,,,,,,,,,,,,,,,,,,,,,,,,,,,,,,,,,,,,,,,,,,,,,,,,,
,,655424abfafb67fe33ca8476,2023-12-06_21h35.56.416,kallum_motion_pilot,2023.2.3,Win32,142.8571429,655424abfafb67fe33ca8476,6560176e4d91f764e2a42c74,657159ab04878fbbb10a632c,0.0608,0.0609,0,119,119,66,1,twoone,,,,,,,,,,,,,,,,,,,,,,,,,,,,,,,,,,,,,,,,,,,,,,,,,,,,,,,,,,,,,,,,,,,,,,,,,,,,,,,,,,,,,,,,,,,,,,,,,,,,,,,,,,,,,,,,,,,,,,,,,,,,,,,,,,,,,,,
,,655424abfafb67fe33ca8476,2023-12-06_21h35.56.416,kallum_motion_pilot,2023.2.3,Win32,142.8571429,655424abfafb67fe33ca8476,6560176e4d91f764e2a42c74,657159ab04878fbbb10a632c,0.0609,0.0609,0,120,120,142,1,eightsix,,,,,,,,,,,,,,,,,,,,,,,,,,,,,,,,,,,,,,,,,,,,,,,,,,,,,,,,,,,,,,,,,,,,,,,,,,,,,,,,,,,,,,,,,,,,,,,,,,,,,,,,,,,,,,,,,,,,,,,,,,,,,,,,,,,,,,,
,,655424abfafb67fe33ca8476,2023-12-06_21h35.56.416,kallum_motion_pilot,2023.2.3,Win32,142.8571429,655424abfafb67fe33ca8476,6560176e4d91f764e2a42c74,657159ab04878fbbb10a632c,0.061,0.061,0,121,121,43,1,twofour,,,,,,,,,,,,,,,,,,,,,,,,,,,,,,,,,,,,,,,,,,,,,,,,,,,,,,,,,,,,,,,,,,,,,,,,,,,,,,,,,,,,,,,,,,,,,,,,,,,,,,,,,,,,,,,,,,,,,,,,,,,,,,,,,,,,,,,
,,655424abfafb67fe33ca8476,2023-12-06_21h35.56.416,kallum_motion_pilot,2023.2.3,Win32,142.8571429,655424abfafb67fe33ca8476,6560176e4d91f764e2a42c74,657159ab04878fbbb10a632c,0.0611,0.0611,0,122,122,133,1,seveneight,,,,,,,,,,,,,,,,,,,,,,,,,,,,,,,,,,,,,,,,,,,,,,,,,,,,,,,,,,,,,,,,,,,,,,,,,,,,,,,,,,,,,,,,,,,,,,,,,,,,,,,,,,,,,,,,,,,,,,,,,,,,,,,,,,,,,,,
,,655424abfafb67fe33ca8476,2023-12-06_21h35.56.416,kallum_motion_pilot,2023.2.3,Win32,142.8571429,655424abfafb67fe33ca8476,6560176e4d91f764e2a42c74,657159ab04878fbbb10a632c,0.0612,0.0613,0,123,123,23,1,fourthree,,,,,,,,,,,,,,,,,,,,,,,,,,,,,,,,,,,,,,,,,,,,,,,,,,,,,,,,,,,,,,,,,,,,,,,,,,,,,,,,,,,,,,,,,,,,,,,,,,,,,,,,,,,,,,,,,,,,,,,,,,,,,,,,,,,,,,,
,,655424abfafb67fe33ca8476,2023-12-06_21h35.56.416,kallum_motion_pilot,2023.2.3,Win32,142.8571429,655424abfafb67fe33ca8476,6560176e4d91f764e2a42c74,657159ab04878fbbb10a632c,0.0613,0.0613,0,124,124,37,1,threefour,,,,,,,,,,,,,,,,,,,,,,,,,,,,,,,,,,,,,,,,,,,,,,,,,,,,,,,,,,,,,,,,,,,,,,,,,,,,,,,,,,,,,,,,,,,,,,,,,,,,,,,,,,,,,,,,,,,,,,,,,,,,,,,,,,,,,,,
,,655424abfafb67fe33ca8476,2023-12-06_21h35.56.416,kallum_motion_pilot,2023.2.3,Win32,142.8571429,655424abfafb67fe33ca8476,6560176e4d91f764e2a42c74,657159ab04878fbbb10a632c,0.0615,0.0616,0,125,125,117,1,seveneight,,,,,,,,,,,,,,,,,,,,,,,,,,,,,,,,,,,,,,,,,,,,,,,,,,,,,,,,,,,,,,,,,,,,,,,,,,,,,,,,,,,,,,,,,,,,,,,,,,,,,,,,,,,,,,,,,,,,,,,,,,,,,,,,,,,,,,,
,,655424abfafb67fe33ca8476,2023-12-06_21h35.56.416,kallum_motion_pilot,2023.2.3,Win32,142.8571429,655424abfafb67fe33ca8476,6560176e4d91f764e2a42c74,657159ab04878fbbb10a632c,0.0616,0.0617,0,126,126,121,1,fiveseven,,,,,,,,,,,,,,,,,,,,,,,,,,,,,,,,,,,,,,,,,,,,,,,,,,,,,,,,,,,,,,,,,,,,,,,,,,,,,,,,,,,,,,,,,,,,,,,,,,,,,,,,,,,,,,,,,,,,,,,,,,,,,,,,,,,,,,,
,,655424abfafb67fe33ca8476,2023-12-06_21h35.56.416,kallum_motion_pilot,2023.2.3,Win32,142.8571429,655424abfafb67fe33ca8476,6560176e4d91f764e2a42c74,657159ab04878fbbb10a632c,0.062,0.062,0,127,127,137,1,fiveseven,,,,,,,,,,,,,,,,,,,,,,,,,,,,,,,,,,,,,,,,,,,,,,,,,,,,,,,,,,,,,,,,,,,,,,,,,,,,,,,,,,,,,,,,,,,,,,,,,,,,,,,,,,,,,,,,,,,,,,,,,,,,,,,,,,,,,,,
,,655424abfafb67fe33ca8476,2023-12-06_21h35.56.416,kallum_motion_pilot,2023.2.3,Win32,142.8571429,655424abfafb67fe33ca8476,6560176e4d91f764e2a42c74,657159ab04878fbbb10a632c,0.0621,0.0622,0,128,128,45,1,threefour,,,,,,,,,,,,,,,,,,,,,,,,,,,,,,,,,,,,,,,,,,,,,,,,,,,,,,,,,,,,,,,,,,,,,,,,,,,,,,,,,,,,,,,,,,,,,,,,,,,,,,,,,,,,,,,,,,,,,,,,,,,,,,,,,,,,,,,
,,655424abfafb67fe33ca8476,2023-12-06_21h35.56.416,kallum_motion_pilot,2023.2.3,Win32,142.8571429,655424abfafb67fe33ca8476,6560176e4d91f764e2a42c74,657159ab04878fbbb10a632c,0.0624,0.0624,0,129,129,149,1,seveneight,,,,,,,,,,,,,,,,,,,,,,,,,,,,,,,,,,,,,,,,,,,,,,,,,,,,,,,,,,,,,,,,,,,,,,,,,,,,,,,,,,,,,,,,,,,,,,,,,,,,,,,,,,,,,,,,,,,,,,,,,,,,,,,,,,,,,,,
,,655424abfafb67fe33ca8476,2023-12-06_21h35.56.416,kallum_motion_pilot,2023.2.3,Win32,142.8571429,655424abfafb67fe33ca8476,6560176e4d91f764e2a42c74,657159ab04878fbbb10a632c,0.0625,0.0626,0,130,130,145,1,fiveseven,,,,,,,,,,,,,,,,,,,,,,,,,,,,,,,,,,,,,,,,,,,,,,,,,,,,,,,,,,,,,,,,,,,,,,,,,,,,,,,,,,,,,,,,,,,,,,,,,,,,,,,,,,,,,,,,,,,,,,,,,,,,,,,,,,,,,,,
,,655424abfafb67fe33ca8476,2023-12-06_21h35.56.416,kallum_motion_pilot,2023.2.3,Win32,142.8571429,655424abfafb67fe33ca8476,6560176e4d91f764e2a42c74,657159ab04878fbbb10a632c,0.0626,0.0627,0,131,131,28,1,threeone,,,,,,,,,,,,,,,,,,,,,,,,,,,,,,,,,,,,,,,,,,,,,,,,,,,,,,,,,,,,,,,,,,,,,,,,,,,,,,,,,,,,,,,,,,,,,,,,,,,,,,,,,,,,,,,,,,,,,,,,,,,,,,,,,,,,,,,
,,655424abfafb67fe33ca8476,2023-12-06_21h35.56.416,kallum_motion_pilot,2023.2.3,Win32,142.8571429,655424abfafb67fe33ca8476,6560176e4d91f764e2a42c74,657159ab04878fbbb10a632c,0.0628,0.0628,0,132,132,40,1,onetwo,,,,,,,,,,,,,,,,,,,,,,,,,,,,,,,,,,,,,,,,,,,,,,,,,,,,,,,,,,,,,,,,,,,,,,,,,,,,,,,,,,,,,,,,,,,,,,,,,,,,,,,,,,,,,,,,,,,,,,,,,,,,,,,,,,,,,,,
,,655424abfafb67fe33ca8476,2023-12-06_21h35.56.416,kallum_motion_pilot,2023.2.3,Win32,142.8571429,655424abfafb67fe33ca8476,6560176e4d91f764e2a42c74,657159ab04878fbbb10a632c,0.0628,0.0629,0,133,133,148,1,sevenfive,,,,,,,,,,,,,,,,,,,,,,,,,,,,,,,,,,,,,,,,,,,,,,,,,,,,,,,,,,,,,,,,,,,,,,,,,,,,,,,,,,,,,,,,,,,,,,,,,,,,,,,,,,,,,,,,,,,,,,,,,,,,,,,,,,,,,,,
,,655424abfafb67fe33ca8476,2023-12-06_21h35.56.416,kallum_motion_pilot,2023.2.3,Win32,142.8571429,655424abfafb67fe33ca8476,6560176e4d91f764e2a42c74,657159ab04878fbbb10a632c,0.0629,0.063,0,134,134,99,1,sixeight,,,,,,,,,,,,,,,,,,,,,,,,,,,,,,,,,,,,,,,,,,,,,,,,,,,,,,,,,,,,,,,,,,,,,,,,,,,,,,,,,,,,,,,,,,,,,,,,,,,,,,,,,,,,,,,,,,,,,,,,,,,,,,,,,,,,,,,
,,655424abfafb67fe33ca8476,2023-12-06_21h35.56.416,kallum_motion_pilot,2023.2.3,Win32,142.8571429,655424abfafb67fe33ca8476,6560176e4d91f764e2a42c74,657159ab04878fbbb10a632c,0.063,0.0631,0,135,135,122,1,sixfive,,,,,,,,,,,,,,,,,,,,,,,,,,,,,,,,,,,,,,,,,,,,,,,,,,,,,,,,,,,,,,,,,,,,,,,,,,,,,,,,,,,,,,,,,,,,,,,,,,,,,,,,,,,,,,,,,,,,,,,,,,,,,,,,,,,,,,,
,,655424abfafb67fe33ca8476,2023-12-06_21h35.56.416,kallum_motion_pilot,2023.2.3,Win32,142.8571429,655424abfafb67fe33ca8476,6560176e4d91f764e2a42c74,657159ab04878fbbb10a632c,0.0632,0.0632,0,136,136,118,1,eightsix,,,,,,,,,,,,,,,,,,,,,,,,,,,,,,,,,,,,,,,,,,,,,,,,,,,,,,,,,,,,,,,,,,,,,,,,,,,,,,,,,,,,,,,,,,,,,,,,,,,,,,,,,,,,,,,,,,,,,,,,,,,,,,,,,,,,,,,
,,655424abfafb67fe33ca8476,2023-12-06_21h35.56.416,kallum_motion_pilot,2023.2.3,Win32,142.8571429,655424abfafb67fe33ca8476,6560176e4d91f764e2a42c74,657159ab04878fbbb10a632c,0.0633,0.0634,0,137,137,13,1,threefour,,,,,,,,,,,,,,,,,,,,,,,,,,,,,,,,,,,,,,,,,,,,,,,,,,,,,,,,,,,,,,,,,,,,,,,,,,,,,,,,,,,,,,,,,,,,,,,,,,,,,,,,,,,,,,,,,,,,,,,,,,,,,,,,,,,,,,,
,,655424abfafb67fe33ca8476,2023-12-06_21h35.56.416,kallum_motion_pilot,2023.2.3,Win32,142.8571429,655424abfafb67fe33ca8476,6560176e4d91f764e2a42c74,657159ab04878fbbb10a632c,0.0634,0.0634,0,138,138,127,1,eightseven,,,,,,,,,,,,,,,,,,,,,,,,,,,,,,,,,,,,,,,,,,,,,,,,,,,,,,,,,,,,,,,,,,,,,,,,,,,,,,,,,,,,,,,,,,,,,,,,,,,,,,,,,,,,,,,,,,,,,,,,,,,,,,,,,,,,,,,
,,655424abfafb67fe33ca8476,2023-12-06_21h35.56.416,kallum_motion_pilot,2023.2.3,Win32,142.8571429,655424abfafb67fe33ca8476,6560176e4d91f764e2a42c74,657159ab04878fbbb10a632c,0.0635,0.0635,0,139,139,38,1,fourtwo,,,,,,,,,,,,,,,,,,,,,,,,,,,,,,,,,,,,,,,,,,,,,,,,,,,,,,,,,,,,,,,,,,,,,,,,,,,,,,,,,,,,,,,,,,,,,,,,,,,,,,,,,,,,,,,,,,,,,,,,,,,,,,,,,,,,,,,
,,655424abfafb67fe33ca8476,2023-12-06_21h35.56.416,kallum_motion_pilot,2023.2.3,Win32,142.8571429,655424abfafb67fe33ca8476,6560176e4d91f764e2a42c74,657159ab04878fbbb10a632c,0.0636,0.0636,0,140,140,124,1,sevenfive,,,,,,,,,,,,,,,,,,,,,,,,,,,,,,,,,,,,,,,,,,,,,,,,,,,,,,,,,,,,,,,,,,,,,,,,,,,,,,,,,,,,,,,,,,,,,,,,,,,,,,,,,,,,,,,,,,,,,,,,,,,,,,,,,,,,,,,
,,655424abfafb67fe33ca8476,2023-12-06_21h35.56.416,kallum_motion_pilot,2023.2.3,Win32,142.8571429,655424abfafb67fe33ca8476,6560176e4d91f764e2a42c74,657159ab04878fbbb10a632c,0.0637,0.0637,0,141,141,27,1,twofour,,,,,,,,,,,,,,,,,,,,,,,,,,,,,,,,,,,,,,,,,,,,,,,,,,,,,,,,,,,,,,,,,,,,,,,,,,,,,,,,,,,,,,,,,,,,,,,,,,,,,,,,,,,,,,,,,,,,,,,,,,,,,,,,,,,,,,,
,,655424abfafb67fe33ca8476,2023-12-06_21h35.56.416,kallum_motion_pilot,2023.2.3,Win32,142.8571429,655424abfafb67fe33ca8476,6560176e4d91f764e2a42c74,657159ab04878fbbb10a632c,0.0638,0.0639,0,142,142,102,1,eightsix,,,,,,,,,,,,,,,,,,,,,,,,,,,,,,,,,,,,,,,,,,,,,,,,,,,,,,,,,,,,,,,,,,,,,,,,,,,,,,,,,,,,,,,,,,,,,,,,,,,,,,,,,,,,,,,,,,,,,,,,,,,,,,,,,,,,,,,
,,655424abfafb67fe33ca8476,2023-12-06_21h35.56.416,kallum_motion_pilot,2023.2.3,Win32,142.8571429,655424abfafb67fe33ca8476,6560176e4d91f764e2a42c74,657159ab04878fbbb10a632c,0.0639,0.0639,0,143,143,126,1,eightsix,,,,,,,,,,,,,,,,,,,,,,,,,,,,,,,,,,,,,,,,,,,,,,,,,,,,,,,,,,,,,,,,,,,,,,,,,,,,,,,,,,,,,,,,,,,,,,,,,,,,,,,,,,,,,,,,,,,,,,,,,,,,,,,,,,,,,,,
,,655424abfafb67fe33ca8476,2023-12-06_21h35.56.416,kallum_motion_pilot,2023.2.3,Win32,142.8571429,655424abfafb67fe33ca8476,6560176e4d91f764e2a42c74,657159ab04878fbbb10a632c,0.064,0.064,0,144,144,161,1,fiveseven,,,,,,,,,,,,,,,,,,,,,,,,,,,,,,,,,,,,,,,,,,,,,,,,,,,,,,,,,,,,,,,,,,,,,,,,,,,,,,,,,,,,,,,,,,,,,,,,,,,,,,,,,,,,,,,,,,,,,,,,,,,,,,,,,,,,,,,
,,655424abfafb67fe33ca8476,2023-12-06_21h35.56.416,kallum_motion_pilot,2023.2.3,Win32,142.8571429,655424abfafb67fe33ca8476,6560176e4d91f764e2a42c74,657159ab04878fbbb10a632c,0.0641,0.0642,0,145,145,98,1,sixfive,,,,,,,,,,,,,,,,,,,,,,,,,,,,,,,,,,,,,,,,,,,,,,,,,,,,,,,,,,,,,,,,,,,,,,,,,,,,,,,,,,,,,,,,,,,,,,,,,,,,,,,,,,,,,,,,,,,,,,,,,,,,,,,,,,,,,,,
,,655424abfafb67fe33ca8476,2023-12-06_21h35.56.416,kallum_motion_pilot,2023.2.3,Win32,142.8571429,655424abfafb67fe33ca8476,6560176e4d91f764e2a42c74,657159ab04878fbbb10a632c,0.0643,0.0643,0,146,146,158,1,eightsix,,,,,,,,,,,,,,,,,,,,,,,,,,,,,,,,,,,,,,,,,,,,,,,,,,,,,,,,,,,,,,,,,,,,,,,,,,,,,,,,,,,,,,,,,,,,,,,,,,,,,,,,,,,,,,,,,,,,,,,,,,,,,,,,,,,,,,,
,,655424abfafb67fe33ca8476,2023-12-06_21h35.56.416,kallum_motion_pilot,2023.2.3,Win32,142.8571429,655424abfafb67fe33ca8476,6560176e4d91f764e2a42c74,657159ab04878fbbb10a632c,0.0644,0.0644,0,147,147,81,1,fiveseven,,,,,,,,,,,,,,,,,,,,,,,,,,,,,,,,,,,,,,,,,,,,,,,,,,,,,,,,,,,,,,,,,,,,,,,,,,,,,,,,,,,,,,,,,,,,,,,,,,,,,,,,,,,,,,,,,,,,,,,,,,,,,,,,,,,,,,,
,,655424abfafb67fe33ca8476,2023-12-06_21h35.56.416,kallum_motion_pilot,2023.2.3,Win32,142.8571429,655424abfafb67fe33ca8476,6560176e4d91f764e2a42c74,657159ab04878fbbb10a632c,0.0645,0.0645,0,148,148,147,1,sixeight,,,,,,,,,,,,,,,,,,,,,,,,,,,,,,,,,,,,,,,,,,,,,,,,,,,,,,,,,,,,,,,,,,,,,,,,,,,,,,,,,,,,,,,,,,,,,,,,,,,,,,,,,,,,,,,,,,,,,,,,,,,,,,,,,,,,,,,
,,655424abfafb67fe33ca8476,2023-12-06_21h35.56.416,kallum_motion_pilot,2023.2.3,Win32,142.8571429,655424abfafb67fe33ca8476,6560176e4d91f764e2a42c74,657159ab04878fbbb10a632c,0.0646,0.0646,0,149,149,119,1,eightseven,,,,,,,,,,,,,,,,,,,,,,,,,,,,,,,,,,,,,,,,,,,,,,,,,,,,,,,,,,,,,,,,,,,,,,,,,,,,,,,,,,,,,,,,,,,,,,,,,,,,,,,,,,,,,,,,,,,,,,,,,,,,,,,,,,,,,,,
,,655424abfafb67fe33ca8476,2023-12-06_21h35.56.416,kallum_motion_pilot,2023.2.3,Win32,142.8571429,655424abfafb67fe33ca8476,6560176e4d91f764e2a42c74,657159ab04878fbbb10a632c,0.0647,0.0647,0,150,150,130,1,sixfive,,,,,,,,,,,,,,,,,,,,,,,,,,,,,,,,,,,,,,,,,,,,,,,,,,,,,,,,,,,,,,,,,,,,,,,,,,,,,,,,,,,,,,,,,,,,,,,,,,,,,,,,,,,,,,,,,,,,,,,,,,,,,,,,,,,,,,,
,,655424abfafb67fe33ca8476,2023-12-06_21h35.56.416,kallum_motion_pilot,2023.2.3,Win32,142.8571429,655424abfafb67fe33ca8476,6560176e4d91f764e2a42c74,657159ab04878fbbb10a632c,0.0648,0.0648,0,151,151,75,1,twofour,,,,,,,,,,,,,,,,,,,,,,,,,,,,,,,,,,,,,,,,,,,,,,,,,,,,,,,,,,,,,,,,,,,,,,,,,,,,,,,,,,,,,,,,,,,,,,,,,,,,,,,,,,,,,,,,,,,,,,,,,,,,,,,,,,,,,,,
,,655424abfafb67fe33ca8476,2023-12-06_21h35.56.416,kallum_motion_pilot,2023.2.3,Win32,142.8571429,655424abfafb67fe33ca8476,6560176e4d91f764e2a42c74,657159ab04878fbbb10a632c,0.0649,0.0649,0,152,152,156,1,sevenfive,,,,,,,,,,,,,,,,,,,,,,,,,,,,,,,,,,,,,,,,,,,,,,,,,,,,,,,,,,,,,,,,,,,,,,,,,,,,,,,,,,,,,,,,,,,,,,,,,,,,,,,,,,,,,,,,,,,,,,,,,,,,,,,,,,,,,,,
,,655424abfafb67fe33ca8476,2023-12-06_21h35.56.416,kallum_motion_pilot,2023.2.3,Win32,142.8571429,655424abfafb67fe33ca8476,6560176e4d91f764e2a42c74,657159ab04878fbbb10a632c,0.065,0.065,0,153,153,16,1,onetwo,,,,,,,,,,,,,,,,,,,,,,,,,,,,,,,,,,,,,,,,,,,,,,,,,,,,,,,,,,,,,,,,,,,,,,,,,,,,,,,,,,,,,,,,,,,,,,,,,,,,,,,,,,,,,,,,,,,,,,,,,,,,,,,,,,,,,,,
,,655424abfafb67fe33ca8476,2023-12-06_21h35.56.416,kallum_motion_pilot,2023.2.3,Win32,142.8571429,655424abfafb67fe33ca8476,6560176e4d91f764e2a42c74,657159ab04878fbbb10a632c,0.0652,0.0652,0,154,154,135,1,eightseven,,,,,,,,,,,,,,,,,,,,,,,,,,,,,,,,,,,,,,,,,,,,,,,,,,,,,,,,,,,,,,,,,,,,,,,,,,,,,,,,,,,,,,,,,,,,,,,,,,,,,,,,,,,,,,,,,,,,,,,,,,,,,,,,,,,,,,,
,,655424abfafb67fe33ca8476,2023-12-06_21h35.56.416,kallum_motion_pilot,2023.2.3,Win32,142.8571429,655424abfafb67fe33ca8476,6560176e4d91f764e2a42c74,657159ab04878fbbb10a632c,0.0652,0.0652,0,155,155,74,1,twoone,,,,,,,,,,,,,,,,,,,,,,,,,,,,,,,,,,,,,,,,,,,,,,,,,,,,,,,,,,,,,,,,,,,,,,,,,,,,,,,,,,,,,,,,,,,,,,,,,,,,,,,,,,,,,,,,,,,,,,,,,,,,,,,,,,,,,,,
,,655424abfafb67fe33ca8476,2023-12-06_21h35.56.416,kallum_motion_pilot,2023.2.3,Win32,142.8571429,655424abfafb67fe33ca8476,6560176e4d91f764e2a42c74,657159ab04878fbbb10a632c,0.0654,0.0654,0,156,156,141,1,seveneight,,,,,,,,,,,,,,,,,,,,,,,,,,,,,,,,,,,,,,,,,,,,,,,,,,,,,,,,,,,,,,,,,,,,,,,,,,,,,,,,,,,,,,,,,,,,,,,,,,,,,,,,,,,,,,,,,,,,,,,,,,,,,,,,,,,,,,,
,,655424abfafb67fe33ca8476,2023-12-06_21h35.56.416,kallum_motion_pilot,2023.2.3,Win32,142.8571429,655424abfafb67fe33ca8476,6560176e4d91f764e2a42c74,657159ab04878fbbb10a632c,0.0654,0.0655,0,157,157,56,1,onetwo,,,,,,,,,,,,,,,,,,,,,,,,,,,,,,,,,,,,,,,,,,,,,,,,,,,,,,,,,,,,,,,,,,,,,,,,,,,,,,,,,,,,,,,,,,,,,,,,,,,,,,,,,,,,,,,,,,,,,,,,,,,,,,,,,,,,,,,
,,655424abfafb67fe33ca8476,2023-12-06_21h35.56.416,kallum_motion_pilot,2023.2.3,Win32,142.8571429,655424abfafb67fe33ca8476,6560176e4d91f764e2a42c74,657159ab04878fbbb10a632c,0.0655,0.0656,0,158,158,88,1,fivesix,,,,,,,,,,,,,,,,,,,,,,,,,,,,,,,,,,,,,,,,,,,,,,,,,,,,,,,,,,,,,,,,,,,,,,,,,,,,,,,,,,,,,,,,,,,,,,,,,,,,,,,,,,,,,,,,,,,,,,,,,,,,,,,,,,,,,,,
,,655424abfafb67fe33ca8476,2023-12-06_21h35.56.416,kallum_motion_pilot,2023.2.3,Win32,142.8571429,655424abfafb67fe33ca8476,6560176e4d91f764e2a42c74,657159ab04878fbbb10a632c,0.0657,0.0657,0,159,159,94,1,eightsix,,,,,,,,,,,,,,,,,,,,,,,,,,,,,,,,,,,,,,,,,,,,,,,,,,,,,,,,,,,,,,,,,,,,,,,,,,,,,,,,,,,,,,,,,,,,,,,,,,,,,,,,,,,,,,,,,,,,,,,,,,,,,,,,,,,,,,,
,,655424abfafb67fe33ca8476,2023-12-06_21h35.56.416,kallum_motion_pilot,2023.2.3,Win32,142.8571429,655424abfafb67fe33ca8476,6560176e4d91f764e2a42c74,657159ab04878fbbb10a632c,0.0658,0.0658,0,160,160,115,1,sixeight,,,,,,,,,,,,,,,,,,,,,,,,,,,,,,,,,,,,,,,,,,,,,,,,,,,,,,,,,,,,,,,,,,,,,,,,,,,,,,,,,,,,,,,,,,,,,,,,,,,,,,,,,,,,,,,,,,,,,,,,,,,,,,,,,,,,,,,
,,655424abfafb67fe33ca8476,2023-12-06_21h35.56.416,kallum_motion_pilot,2023.2.3,Win32,142.8571429,655424abfafb67fe33ca8476,6560176e4d91f764e2a42c74,657159ab04878fbbb10a632c,0.0659,0.066,0,161,161,85,1,seveneight,,,,,,,,,,,,,,,,,,,,,,,,,,,,,,,,,,,,,,,,,,,,,,,,,,,,,,,,,,,,,,,,,,,,,,,,,,,,,,,,,,,,,,,,,,,,,,,,,,,,,,,,,,,,,,,,,,,,,,,,,,,,,,,,,,,,,,,
,,655424abfafb67fe33ca8476,2023-12-06_21h35.56.416,kallum_motion_pilot,2023.2.3,Win32,142.8571429,655424abfafb67fe33ca8476,6560176e4d91f764e2a42c74,657159ab04878fbbb10a632c,0.066,0.0661,1,0,162,18,1,twoone,,,,,,,,,,,,,,,,,,,,,,,,,,,,,,,,,,,,,,,,,,,,,,,,,,,,,,,,,,,,,,,,,,,,,,,,,,,,,,,,,,,,,,,,,,,,,,,,,,,,,,,,,,,,,,,,,,,,,,,,,,,,,,,,,,,,,,,
,,655424abfafb67fe33ca8476,2023-12-06_21h35.56.416,kallum_motion_pilot,2023.2.3,Win32,142.8571429,655424abfafb67fe33ca8476,6560176e4d91f764e2a42c74,657159ab04878fbbb10a632c,0.0661,0.0662,1,1,163,127,1,eightseven,,,,,,,,,,,,,,,,,,,,,,,,,,,,,,,,,,,,,,,,,,,,,,,,,,,,,,,,,,,,,,,,,,,,,,,,,,,,,,,,,,,,,,,,,,,,,,,,,,,,,,,,,,,,,,,,,,,,,,,,,,,,,,,,,,,,,,,
,,655424abfafb67fe33ca8476,2023-12-06_21h35.56.416,kallum_motion_pilot,2023.2.3,Win32,142.8571429,655424abfafb67fe33ca8476,6560176e4d91f764e2a42c74,657159ab04878fbbb10a632c,0.0662,0.0663,1,2,164,34,1,twoone,,,,,,,,,,,,,,,,,,,,,,,,,,,,,,,,,,,,,,,,,,,,,,,,,,,,,,,,,,,,,,,,,,,,,,,,,,,,,,,,,,,,,,,,,,,,,,,,,,,,,,,,,,,,,,,,,,,,,,,,,,,,,,,,,,,,,,,
,,655424abfafb67fe33ca8476,2023-12-06_21h35.56.416,kallum_motion_pilot,2023.2.3,Win32,142.8571429,655424abfafb67fe33ca8476,6560176e4d91f764e2a42c74,657159ab04878fbbb10a632c,0.0664,0.0664,1,3,165,86,1,eightsix,,,,,,,,,,,,,,,,,,,,,,,,,,,,,,,,,,,,,,,,,,,,,,,,,,,,,,,,,,,,,,,,,,,,,,,,,,,,,,,,,,,,,,,,,,,,,,,,,,,,,,,,,,,,,,,,,,,,,,,,,,,,,,,,,,,,,,,
,,655424abfafb67fe33ca8476,2023-12-06_21h35.56.416,kallum_motion_pilot,2023.2.3,Win32,142.8571429,655424abfafb67fe33ca8476,6560176e4d91f764e2a42c74,657159ab04878fbbb10a632c,0.0664,0.0665,1,4,166,30,1,fourtwo,,,,,,,,,,,,,,,,,,,,,,,,,,,,,,,,,,,,,,,,,,,,,,,,,,,,,,,,,,,,,,,,,,,,,,,,,,,,,,,,,,,,,,,,,,,,,,,,,,,,,,,,,,,,,,,,,,,,,,,,,,,,,,,,,,,,,,,
,,655424abfafb67fe33ca8476,2023-12-06_21h35.56.416,kallum_motion_pilot,2023.2.3,Win32,142.8571429,655424abfafb67fe33ca8476,6560176e4d91f764e2a42c74,657159ab04878fbbb10a632c,0.0667,0.0667,1,5,167,141,1,seveneight,,,,,,,,,,,,,,,,,,,,,,,,,,,,,,,,,,,,,,,,,,,,,,,,,,,,,,,,,,,,,,,,,,,,,,,,,,,,,,,,,,,,,,,,,,,,,,,,,,,,,,,,,,,,,,,,,,,,,,,,,,,,,,,,,,,,,,,
,,655424abfafb67fe33ca8476,2023-12-06_21h35.56.416,kallum_motion_pilot,2023.2.3,Win32,142.8571429,655424abfafb67fe33ca8476,6560176e4d91f764e2a42c74,657159ab04878fbbb10a632c,0.0668,0.0668,1,6,168,81,1,fiveseven,,,,,,,,,,,,,,,,,,,,,,,,,,,,,,,,,,,,,,,,,,,,,,,,,,,,,,,,,,,,,,,,,,,,,,,,,,,,,,,,,,,,,,,,,,,,,,,,,,,,,,,,,,,,,,,,,,,,,,,,,,,,,,,,,,,,,,,
,,655424abfafb67fe33ca8476,2023-12-06_21h35.56.416,kallum_motion_pilot,2023.2.3,Win32,142.8571429,655424abfafb67fe33ca8476,6560176e4d91f764e2a42c74,657159ab04878fbbb10a632c,0.0669,0.0669,1,7,169,118,1,eightsix,,,,,,,,,,,,,,,,,,,,,,,,,,,,,,,,,,,,,,,,,,,,,,,,,,,,,,,,,,,,,,,,,,,,,,,,,,,,,,,,,,,,,,,,,,,,,,,,,,,,,,,,,,,,,,,,,,,,,,,,,,,,,,,,,,,,,,,
,,655424abfafb67fe33ca8476,2023-12-06_21h35.56.416,kallum_motion_pilot,2023.2.3,Win32,142.8571429,655424abfafb67fe33ca8476,6560176e4d91f764e2a42c74,657159ab04878fbbb10a632c,0.067,0.067,1,8,170,134,1,eightsix,,,,,,,,,,,,,,,,,,,,,,,,,,,,,,,,,,,,,,,,,,,,,,,,,,,,,,,,,,,,,,,,,,,,,,,,,,,,,,,,,,,,,,,,,,,,,,,,,,,,,,,,,,,,,,,,,,,,,,,,,,,,,,,,,,,,,,,
,,655424abfafb67fe33ca8476,2023-12-06_21h35.56.416,kallum_motion_pilot,2023.2.3,Win32,142.8571429,655424abfafb67fe33ca8476,6560176e4d91f764e2a42c74,657159ab04878fbbb10a632c,0.0671,0.0671,1,9,171,61,1,threefour,,,,,,,,,,,,,,,,,,,,,,,,,,,,,,,,,,,,,,,,,,,,,,,,,,,,,,,,,,,,,,,,,,,,,,,,,,,,,,,,,,,,,,,,,,,,,,,,,,,,,,,,,,,,,,,,,,,,,,,,,,,,,,,,,,,,,,,
,,655424abfafb67fe33ca8476,2023-12-06_21h35.56.416,kallum_motion_pilot,2023.2.3,Win32,142.8571429,655424abfafb67fe33ca8476,6560176e4d91f764e2a42c74,657159ab04878fbbb10a632c,0.0673,0.0673,1,10,172,103,1,eightseven,,,,,,,,,,,,,,,,,,,,,,,,,,,,,,,,,,,,,,,,,,,,,,,,,,,,,,,,,,,,,,,,,,,,,,,,,,,,,,,,,,,,,,,,,,,,,,,,,,,,,,,,,,,,,,,,,,,,,,,,,,,,,,,,,,,,,,,
,,655424abfafb67fe33ca8476,2023-12-06_21h35.56.416,kallum_motion_pilot,2023.2.3,Win32,142.8571429,655424abfafb67fe33ca8476,6560176e4d91f764e2a42c74,657159ab04878fbbb10a632c,0.0673,0.0674,1,11,173,29,1,threefour,,,,,,,,,,,,,,,,,,,,,,,,,,,,,,,,,,,,,,,,,,,,,,,,,,,,,,,,,,,,,,,,,,,,,,,,,,,,,,,,,,,,,,,,,,,,,,,,,,,,,,,,,,,,,,,,,,,,,,,,,,,,,,,,,,,,,,,
,,655424abfafb67fe33ca8476,2023-12-06_21h35.56.416,kallum_motion_pilot,2023.2.3,Win32,142.8571429,655424abfafb67fe33ca8476,6560176e4d91f764e2a42c74,657159ab04878fbbb10a632c,0.0675,0.0675,1,12,174,140,1,sevenfive,,,,,,,,,,,,,,,,,,,,,,,,,,,,,,,,,,,,,,,,,,,,,,,,,,,,,,,,,,,,,,,,,,,,,,,,,,,,,,,,,,,,,,,,,,,,,,,,,,,,,,,,,,,,,,,,,,,,,,,,,,,,,,,,,,,,,,,
,,655424abfafb67fe33ca8476,2023-12-06_21h35.56.416,kallum_motion_pilot,2023.2.3,Win32,142.8571429,655424abfafb67fe33ca8476,6560176e4d91f764e2a42c74,657159ab04878fbbb10a632c,0.0675,0.0676,1,13,175,120,1,fivesix,,,,,,,,,,,,,,,,,,,,,,,,,,,,,,,,,,,,,,,,,,,,,,,,,,,,,,,,,,,,,,,,,,,,,,,,,,,,,,,,,,,,,,,,,,,,,,,,,,,,,,,,,,,,,,,,,,,,,,,,,,,,,,,,,,,,,,,
,,655424abfafb67fe33ca8476,2023-12-06_21h35.56.416,kallum_motion_pilot,2023.2.3,Win32,142.8571429,655424abfafb67fe33ca8476,6560176e4d91f764e2a42c74,657159ab04878fbbb10a632c,0.0677,0.0678,1,14,176,159,1,eightseven,,,,,,,,,,,,,,,,,,,,,,,,,,,,,,,,,,,,,,,,,,,,,,,,,,,,,,,,,,,,,,,,,,,,,,,,,,,,,,,,,,,,,,,,,,,,,,,,,,,,,,,,,,,,,,,,,,,,,,,,,,,,,,,,,,,,,,,
,,655424abfafb67fe33ca8476,2023-12-06_21h35.56.416,kallum_motion_pilot,2023.2.3,Win32,142.8571429,655424abfafb67fe33ca8476,6560176e4d91f764e2a42c74,657159ab04878fbbb10a632c,0.0679,0.068,1,15,177,41,1,onethree,,,,,,,,,,,,,,,,,,,,,,,,,,,,,,,,,,,,,,,,,,,,,,,,,,,,,,,,,,,,,,,,,,,,,,,,,,,,,,,,,,,,,,,,,,,,,,,,,,,,,,,,,,,,,,,,,,,,,,,,,,,,,,,,,,,,,,,
,,655424abfafb67fe33ca8476,2023-12-06_21h35.56.416,kallum_motion_pilot,2023.2.3,Win32,142.8571429,655424abfafb67fe33ca8476,6560176e4d91f764e2a42c74,657159ab04878fbbb10a632c,0.0681,0.0683,1,16,178,44,1,threeone,,,,,,,,,,,,,,,,,,,,,,,,,,,,,,,,,,,,,,,,,,,,,,,,,,,,,,,,,,,,,,,,,,,,,,,,,,,,,,,,,,,,,,,,,,,,,,,,,,,,,,,,,,,,,,,,,,,,,,,,,,,,,,,,,,,,,,,
,,655424abfafb67fe33ca8476,2023-12-06_21h35.56.416,kallum_motion_pilot,2023.2.3,Win32,142.8571429,655424abfafb67fe33ca8476,6560176e4d91f764e2a42c74,657159ab04878fbbb10a632c,0.0684,0.0685,1,17,179,52,1,threeone,,,,,,,,,,,,,,,,,,,,,,,,,,,,,,,,,,,,,,,,,,,,,,,,,,,,,,,,,,,,,,,,,,,,,,,,,,,,,,,,,,,,,,,,,,,,,,,,,,,,,,,,,,,,,,,,,,,,,,,,,,,,,,,,,,,,,,,
,,655424abfafb67fe33ca8476,2023-12-06_21h35.56.416,kallum_motion_pilot,2023.2.3,Win32,142.8571429,655424abfafb67fe33ca8476,6560176e4d91f764e2a42c74,657159ab04878fbbb10a632c,0.0686,0.0687,1,18,180,144,1,fivesix,,,,,,,,,,,,,,,,,,,,,,,,,,,,,,,,,,,,,,,,,,,,,,,,,,,,,,,,,,,,,,,,,,,,,,,,,,,,,,,,,,,,,,,,,,,,,,,,,,,,,,,,,,,,,,,,,,,,,,,,,,,,,,,,,,,,,,,
,,655424abfafb67fe33ca8476,2023-12-06_21h35.56.416,kallum_motion_pilot,2023.2.3,Win32,142.8571429,655424abfafb67fe33ca8476,6560176e4d91f764e2a42c74,657159ab04878fbbb10a632c,0.0689,0.069,1,19,181,78,1,fourtwo,,,,,,,,,,,,,,,,,,,,,,,,,,,,,,,,,,,,,,,,,,,,,,,,,,,,,,,,,,,,,,,,,,,,,,,,,,,,,,,,,,,,,,,,,,,,,,,,,,,,,,,,,,,,,,,,,,,,,,,,,,,,,,,,,,,,,,,
,,655424abfafb67fe33ca8476,2023-12-06_21h35.56.416,kallum_motion_pilot,2023.2.3,Win32,142.8571429,655424abfafb67fe33ca8476,6560176e4d91f764e2a42c74,657159ab04878fbbb10a632c,0.069,0.0692,1,20,182,43,1,twofour,,,,,,,,,,,,,,,,,,,,,,,,,,,,,,,,,,,,,,,,,,,,,,,,,,,,,,,,,,,,,,,,,,,,,,,,,,,,,,,,,,,,,,,,,,,,,,,,,,,,,,,,,,,,,,,,,,,,,,,,,,,,,,,,,,,,,,,
,,655424abfafb67fe33ca8476,2023-12-06_21h35.56.416,kallum_motion_pilot,2023.2.3,Win32,142.8571429,655424abfafb67fe33ca8476,6560176e4d91f764e2a42c74,657159ab04878fbbb10a632c,0.0694,0.0695,1,21,183,101,1,seveneight,,,,,,,,,,,,,,,,,,,,,,,,,,,,,,,,,,,,,,,,,,,,,,,,,,,,,,,,,,,,,,,,,,,,,,,,,,,,,,,,,,,,,,,,,,,,,,,,,,,,,,,,,,,,,,,,,,,,,,,,,,,,,,,,,,,,,,,
,,655424abfafb67fe33ca8476,2023-12-06_21h35.56.416,kallum_motion_pilot,2023.2.3,Win32,142.8571429,655424abfafb67fe33ca8476,6560176e4d91f764e2a42c74,657159ab04878fbbb10a632c,0.0696,0.0698,1,22,184,35,1,twofour,,,,,,,,,,,,,,,,,,,,,,,,,,,,,,,,,,,,,,,,,,,,,,,,,,,,,,,,,,,,,,,,,,,,,,,,,,,,,,,,,,,,,,,,,,,,,,,,,,,,,,,,,,,,,,,,,,,,,,,,,,,,,,,,,,,,,,,
,,655424abfafb67fe33ca8476,2023-12-06_21h35.56.416,kallum_motion_pilot,2023.2.3,Win32,142.8571429,655424abfafb67fe33ca8476,6560176e4d91f764e2a42c74,657159ab04878fbbb10a632c,0.0699,0.07,1,23,185,105,1,fiveseven,,,,,,,,,,,,,,,,,,,,,,,,,,,,,,,,,,,,,,,,,,,,,,,,,,,,,,,,,,,,,,,,,,,,,,,,,,,,,,,,,,,,,,,,,,,,,,,,,,,,,,,,,,,,,,,,,,,,,,,,,,,,,,,,,,,,,,,
,,655424abfafb67fe33ca8476,2023-12-06_21h35.56.416,kallum_motion_pilot,2023.2.3,Win32,142.8571429,655424abfafb67fe33ca8476,6560176e4d91f764e2a42c74,657159ab04878fbbb10a632c,0.0701,0.0703,1,24,186,71,1,fourthree,,,,,,,,,,,,,,,,,,,,,,,,,,,,,,,,,,,,,,,,,,,,,,,,,,,,,,,,,,,,,,,,,,,,,,,,,,,,,,,,,,,,,,,,,,,,,,,,,,,,,,,,,,,,,,,,,,,,,,,,,,,,,,,,,,,,,,,
,,655424abfafb67fe33ca8476,2023-12-06_21h35.56.416,kallum_motion_pilot,2023.2.3,Win32,142.8571429,655424abfafb67fe33ca8476,6560176e4d91f764e2a42c74,657159ab04878fbbb10a632c,0.0704,0.0705,1,25,187,108,1,sevenfive,,,,,,,,,,,,,,,,,,,,,,,,,,,,,,,,,,,,,,,,,,,,,,,,,,,,,,,,,,,,,,,,,,,,,,,,,,,,,,,,,,,,,,,,,,,,,,,,,,,,,,,,,,,,,,,,,,,,,,,,,,,,,,,,,,,,,,,
,,655424abfafb67fe33ca8476,2023-12-06_21h35.56.416,kallum_motion_pilot,2023.2.3,Win32,142.8571429,655424abfafb67fe33ca8476,6560176e4d91f764e2a42c74,657159ab04878fbbb10a632c,0.0707,0.0708,1,26,188,145,1,fiveseven,,,,,,,,,,,,,,,,,,,,,,,,,,,,,,,,,,,,,,,,,,,,,,,,,,,,,,,,,,,,,,,,,,,,,,,,,,,,,,,,,,,,,,,,,,,,,,,,,,,,,,,,,,,,,,,,,,,,,,,,,,,,,,,,,,,,,,,
,,655424abfafb67fe33ca8476,2023-12-06_21h35.56.416,kallum_motion_pilot,2023.2.3,Win32,142.8571429,655424abfafb67fe33ca8476,6560176e4d91f764e2a42c74,657159ab04878fbbb10a632c,0.0709,0.071,1,27,189,97,1,fiveseven,,,,,,,,,,,,,,,,,,,,,,,,,,,,,,,,,,,,,,,,,,,,,,,,,,,,,,,,,,,,,,,,,,,,,,,,,,,,,,,,,,,,,,,,,,,,,,,,,,,,,,,,,,,,,,,,,,,,,,,,,,,,,,,,,,,,,,,
,,655424abfafb67fe33ca8476,2023-12-06_21h35.56.416,kallum_motion_pilot,2023.2.3,Win32,142.8571429,655424abfafb67fe33ca8476,6560176e4d91f764e2a42c74,657159ab04878fbbb10a632c,0.0711,0.0713,1,28,190,53,1,threefour,,,,,,,,,,,,,,,,,,,,,,,,,,,,,,,,,,,,,,,,,,,,,,,,,,,,,,,,,,,,,,,,,,,,,,,,,,,,,,,,,,,,,,,,,,,,,,,,,,,,,,,,,,,,,,,,,,,,,,,,,,,,,,,,,,,,,,,
,,655424abfafb67fe33ca8476,2023-12-06_21h35.56.416,kallum_motion_pilot,2023.2.3,Win32,142.8571429,655424abfafb67fe33ca8476,6560176e4d91f764e2a42c74,657159ab04878fbbb10a632c,0.0714,0.0715,1,29,191,27,1,twofour,,,,,,,,,,,,,,,,,,,,,,,,,,,,,,,,,,,,,,,,,,,,,,,,,,,,,,,,,,,,,,,,,,,,,,,,,,,,,,,,,,,,,,,,,,,,,,,,,,,,,,,,,,,,,,,,,,,,,,,,,,,,,,,,,,,,,,,
,,655424abfafb67fe33ca8476,2023-12-06_21h35.56.416,kallum_motion_pilot,2023.2.3,Win32,142.8571429,655424abfafb67fe33ca8476,6560176e4d91f764e2a42c74,657159ab04878fbbb10a632c,0.0716,0.0717,1,30,192,95,1,eightseven,,,,,,,,,,,,,,,,,,,,,,,,,,,,,,,,,,,,,,,,,,,,,,,,,,,,,,,,,,,,,,,,,,,,,,,,,,,,,,,,,,,,,,,,,,,,,,,,,,,,,,,,,,,,,,,,,,,,,,,,,,,,,,,,,,,,,,,
,,655424abfafb67fe33ca8476,2023-12-06_21h35.56.416,kallum_motion_pilot,2023.2.3,Win32,142.8571429,655424abfafb67fe33ca8476,6560176e4d91f764e2a42c74,657159ab04878fbbb10a632c,0.0719,0.072,1,31,193,24,1,onetwo,,,,,,,,,,,,,,,,,,,,,,,,,,,,,,,,,,,,,,,,,,,,,,,,,,,,,,,,,,,,,,,,,,,,,,,,,,,,,,,,,,,,,,,,,,,,,,,,,,,,,,,,,,,,,,,,,,,,,,,,,,,,,,,,,,,,,,,
,,655424abfafb67fe33ca8476,2023-12-06_21h35.56.416,kallum_motion_pilot,2023.2.3,Win32,142.8571429,655424abfafb67fe33ca8476,6560176e4d91f764e2a42c74,657159ab04878fbbb10a632c,0.0721,0.0723,1,32,194,15,1,fourthree,,,,,,,,,,,,,,,,,,,,,,,,,,,,,,,,,,,,,,,,,,,,,,,,,,,,,,,,,,,,,,,,,,,,,,,,,,,,,,,,,,,,,,,,,,,,,,,,,,,,,,,,,,,,,,,,,,,,,,,,,,,,,,,,,,,,,,,
,,655424abfafb67fe33ca8476,2023-12-06_21h35.56.416,kallum_motion_pilot,2023.2.3,Win32,142.8571429,655424abfafb67fe33ca8476,6560176e4d91f764e2a42c74,657159ab04878fbbb10a632c,0.0724,0.0725,1,33,195,152,1,fivesix,,,,,,,,,,,,,,,,,,,,,,,,,,,,,,,,,,,,,,,,,,,,,,,,,,,,,,,,,,,,,,,,,,,,,,,,,,,,,,,,,,,,,,,,,,,,,,,,,,,,,,,,,,,,,,,,,,,,,,,,,,,,,,,,,,,,,,,
,,655424abfafb67fe33ca8476,2023-12-06_21h35.56.416,kallum_motion_pilot,2023.2.3,Win32,142.8571429,655424abfafb67fe33ca8476,6560176e4d91f764e2a42c74,657159ab04878fbbb10a632c,0.0727,0.0728,1,34,196,63,1,fourthree,,,,,,,,,,,,,,,,,,,,,,,,,,,,,,,,,,,,,,,,,,,,,,,,,,,,,,,,,,,,,,,,,,,,,,,,,,,,,,,,,,,,,,,,,,,,,,,,,,,,,,,,,,,,,,,,,,,,,,,,,,,,,,,,,,,,,,,
,,655424abfafb67fe33ca8476,2023-12-06_21h35.56.416,kallum_motion_pilot,2023.2.3,Win32,142.8571429,655424abfafb67fe33ca8476,6560176e4d91f764e2a42c74,657159ab04878fbbb10a632c,0.0729,0.073,1,35,197,13,1,threefour,,,,,,,,,,,,,,,,,,,,,,,,,,,,,,,,,,,,,,,,,,,,,,,,,,,,,,,,,,,,,,,,,,,,,,,,,,,,,,,,,,,,,,,,,,,,,,,,,,,,,,,,,,,,,,,,,,,,,,,,,,,,,,,,,,,,,,,
,,655424abfafb67fe33ca8476,2023-12-06_21h35.56.416,kallum_motion_pilot,2023.2.3,Win32,142.8571429,655424abfafb67fe33ca8476,6560176e4d91f764e2a42c74,657159ab04878fbbb10a632c,0.0731,0.0732,1,36,198,14,1,fourtwo,,,,,,,,,,,,,,,,,,,,,,,,,,,,,,,,,,,,,,,,,,,,,,,,,,,,,,,,,,,,,,,,,,,,,,,,,,,,,,,,,,,,,,,,,,,,,,,,,,,,,,,,,,,,,,,,,,,,,,,,,,,,,,,,,,,,,,,
,,655424abfafb67fe33ca8476,2023-12-06_21h35.56.416,kallum_motion_pilot,2023.2.3,Win32,142.8571429,655424abfafb67fe33ca8476,6560176e4d91f764e2a42c74,657159ab04878fbbb10a632c,0.0734,0.0735,1,37,199,39,1,fourthree,,,,,,,,,,,,,,,,,,,,,,,,,,,,,,,,,,,,,,,,,,,,,,,,,,,,,,,,,,,,,,,,,,,,,,,,,,,,,,,,,,,,,,,,,,,,,,,,,,,,,,,,,,,,,,,,,,,,,,,,,,,,,,,,,,,,,,,
,,655424abfafb67fe33ca8476,2023-12-06_21h35.56.416,kallum_motion_pilot,2023.2.3,Win32,142.8571429,655424abfafb67fe33ca8476,6560176e4d91f764e2a42c74,657159ab04878fbbb10a632c,0.0736,0.0738,1,38,200,151,1,eightseven,,,,,,,,,,,,,,,,,,,,,,,,,,,,,,,,,,,,,,,,,,,,,,,,,,,,,,,,,,,,,,,,,,,,,,,,,,,,,,,,,,,,,,,,,,,,,,,,,,,,,,,,,,,,,,,,,,,,,,,,,,,,,,,,,,,,,,,
,,655424abfafb67fe33ca8476,2023-12-06_21h35.56.416,kallum_motion_pilot,2023.2.3,Win32,142.8571429,655424abfafb67fe33ca8476,6560176e4d91f764e2a42c74,657159ab04878fbbb10a632c,0.0739,0.074,1,39,201,123,1,sixeight,,,,,,,,,,,,,,,,,,,,,,,,,,,,,,,,,,,,,,,,,,,,,,,,,,,,,,,,,,,,,,,,,,,,,,,,,,,,,,,,,,,,,,,,,,,,,,,,,,,,,,,,,,,,,,,,,,,,,,,,,,,,,,,,,,,,,,,
,,655424abfafb67fe33ca8476,2023-12-06_21h35.56.416,kallum_motion_pilot,2023.2.3,Win32,142.8571429,655424abfafb67fe33ca8476,6560176e4d91f764e2a42c74,657159ab04878fbbb10a632c,0.0742,0.0743,1,40,202,26,1,twoone,,,,,,,,,,,,,,,,,,,,,,,,,,,,,,,,,,,,,,,,,,,,,,,,,,,,,,,,,,,,,,,,,,,,,,,,,,,,,,,,,,,,,,,,,,,,,,,,,,,,,,,,,,,,,,,,,,,,,,,,,,,,,,,,,,,,,,,
,,655424abfafb67fe33ca8476,2023-12-06_21h35.56.416,kallum_motion_pilot,2023.2.3,Win32,142.8571429,655424abfafb67fe33ca8476,6560176e4d91f764e2a42c74,657159ab04878fbbb10a632c,0.0744,0.0745,1,41,203,149,1,seveneight,,,,,,,,,,,,,,,,,,,,,,,,,,,,,,,,,,,,,,,,,,,,,,,,,,,,,,,,,,,,,,,,,,,,,,,,,,,,,,,,,,,,,,,,,,,,,,,,,,,,,,,,,,,,,,,,,,,,,,,,,,,,,,,,,,,,,,,
,,655424abfafb67fe33ca8476,2023-12-06_21h35.56.416,kallum_motion_pilot,2023.2.3,Win32,142.8571429,655424abfafb67fe33ca8476,6560176e4d91f764e2a42c74,657159ab04878fbbb10a632c,0.0746,0.0746,1,42,204,109,1,seveneight,,,,,,,,,,,,,,,,,,,,,,,,,,,,,,,,,,,,,,,,,,,,,,,,,,,,,,,,,,,,,,,,,,,,,,,,,,,,,,,,,,,,,,,,,,,,,,,,,,,,,,,,,,,,,,,,,,,,,,,,,,,,,,,,,,,,,,,
,,655424abfafb67fe33ca8476,2023-12-06_21h35.56.416,kallum_motion_pilot,2023.2.3,Win32,142.8571429,655424abfafb67fe33ca8476,6560176e4d91f764e2a42c74,657159ab04878fbbb10a632c,0.0747,0.0747,1,43,205,49,1,onethree,,,,,,,,,,,,,,,,,,,,,,,,,,,,,,,,,,,,,,,,,,,,,,,,,,,,,,,,,,,,,,,,,,,,,,,,,,,,,,,,,,,,,,,,,,,,,,,,,,,,,,,,,,,,,,,,,,,,,,,,,,,,,,,,,,,,,,,
,,655424abfafb67fe33ca8476,2023-12-06_21h35.56.416,kallum_motion_pilot,2023.2.3,Win32,142.8571429,655424abfafb67fe33ca8476,6560176e4d91f764e2a42c74,657159ab04878fbbb10a632c,0.0748,0.0748,1,44,206,150,1,eightsix,,,,,,,,,,,,,,,,,,,,,,,,,,,,,,,,,,,,,,,,,,,,,,,,,,,,,,,,,,,,,,,,,,,,,,,,,,,,,,,,,,,,,,,,,,,,,,,,,,,,,,,,,,,,,,,,,,,,,,,,,,,,,,,,,,,,,,,
,,655424abfafb67fe33ca8476,2023-12-06_21h35.56.416,kallum_motion_pilot,2023.2.3,Win32,142.8571429,655424abfafb67fe33ca8476,6560176e4d91f764e2a42c74,657159ab04878fbbb10a632c,0.0748,0.0749,1,45,207,1,1,onethree,,,,,,,,,,,,,,,,,,,,,,,,,,,,,,,,,,,,,,,,,,,,,,,,,,,,,,,,,,,,,,,,,,,,,,,,,,,,,,,,,,,,,,,,,,,,,,,,,,,,,,,,,,,,,,,,,,,,,,,,,,,,,,,,,,,,,,,
,,655424abfafb67fe33ca8476,2023-12-06_21h35.56.416,kallum_motion_pilot,2023.2.3,Win32,142.8571429,655424abfafb67fe33ca8476,6560176e4d91f764e2a42c74,657159ab04878fbbb10a632c,0.075,0.075,1,46,208,19,1,twofour,,,,,,,,,,,,,,,,,,,,,,,,,,,,,,,,,,,,,,,,,,,,,,,,,,,,,,,,,,,,,,,,,,,,,,,,,,,,,,,,,,,,,,,,,,,,,,,,,,,,,,,,,,,,,,,,,,,,,,,,,,,,,,,,,,,,,,,
,,655424abfafb67fe33ca8476,2023-12-06_21h35.56.416,kallum_motion_pilot,2023.2.3,Win32,142.8571429,655424abfafb67fe33ca8476,6560176e4d91f764e2a42c74,657159ab04878fbbb10a632c,0.0751,0.0752,1,47,209,5,1,threefour,,,,,,,,,,,,,,,,,,,,,,,,,,,,,,,,,,,,,,,,,,,,,,,,,,,,,,,,,,,,,,,,,,,,,,,,,,,,,,,,,,,,,,,,,,,,,,,,,,,,,,,,,,,,,,,,,,,,,,,,,,,,,,,,,,,,,,,
,,655424abfafb67fe33ca8476,2023-12-06_21h35.56.416,kallum_motion_pilot,2023.2.3,Win32,142.8571429,655424abfafb67fe33ca8476,6560176e4d91f764e2a42c74,657159ab04878fbbb10a632c,0.0752,0.0753,1,48,210,54,1,fourtwo,,,,,,,,,,,,,,,,,,,,,,,,,,,,,,,,,,,,,,,,,,,,,,,,,,,,,,,,,,,,,,,,,,,,,,,,,,,,,,,,,,,,,,,,,,,,,,,,,,,,,,,,,,,,,,,,,,,,,,,,,,,,,,,,,,,,,,,
,,655424abfafb67fe33ca8476,2023-12-06_21h35.56.416,kallum_motion_pilot,2023.2.3,Win32,142.8571429,655424abfafb67fe33ca8476,6560176e4d91f764e2a42c74,657159ab04878fbbb10a632c,0.0753,0.0755,1,49,211,83,1,sixeight,,,,,,,,,,,,,,,,,,,,,,,,,,,,,,,,,,,,,,,,,,,,,,,,,,,,,,,,,,,,,,,,,,,,,,,,,,,,,,,,,,,,,,,,,,,,,,,,,,,,,,,,,,,,,,,,,,,,,,,,,,,,,,,,,,,,,,,
,,655424abfafb67fe33ca8476,2023-12-06_21h35.56.416,kallum_motion_pilot,2023.2.3,Win32,142.8571429,655424abfafb67fe33ca8476,6560176e4d91f764e2a42c74,657159ab04878fbbb10a632c,0.0755,0.0756,1,50,212,79,1,eightseven,,,,,,,,,,,,,,,,,,,,,,,,,,,,,,,,,,,,,,,,,,,,,,,,,,,,,,,,,,,,,,,,,,,,,,,,,,,,,,,,,,,,,,,,,,,,,,,,,,,,,,,,,,,,,,,,,,,,,,,,,,,,,,,,,,,,,,,
,,655424abfafb67fe33ca8476,2023-12-06_21h35.56.416,kallum_motion_pilot,2023.2.3,Win32,142.8571429,655424abfafb67fe33ca8476,6560176e4d91f764e2a42c74,657159ab04878fbbb10a632c,0.0756,0.0758,1,51,213,100,1,sevenfive,,,,,,,,,,,,,,,,,,,,,,,,,,,,,,,,,,,,,,,,,,,,,,,,,,,,,,,,,,,,,,,,,,,,,,,,,,,,,,,,,,,,,,,,,,,,,,,,,,,,,,,,,,,,,,,,,,,,,,,,,,,,,,,,,,,,,,,
,,655424abfafb67fe33ca8476,2023-12-06_21h35.56.416,kallum_motion_pilot,2023.2.3,Win32,142.8571429,655424abfafb67fe33ca8476,6560176e4d91f764e2a42c74,657159ab04878fbbb10a632c,0.0759,0.0761,1,52,214,12,1,threeone,,,,,,,,,,,,,,,,,,,,,,,,,,,,,,,,,,,,,,,,,,,,,,,,,,,,,,,,,,,,,,,,,,,,,,,,,,,,,,,,,,,,,,,,,,,,,,,,,,,,,,,,,,,,,,,,,,,,,,,,,,,,,,,,,,,,,,,
,,655424abfafb67fe33ca8476,2023-12-06_21h35.56.416,kallum_motion_pilot,2023.2.3,Win32,142.8571429,655424abfafb67fe33ca8476,6560176e4d91f764e2a42c74,657159ab04878fbbb10a632c,0.0763,0.0764,1,53,215,136,1,fivesix,,,,,,,,,,,,,,,,,,,,,,,,,,,,,,,,,,,,,,,,,,,,,,,,,,,,,,,,,,,,,,,,,,,,,,,,,,,,,,,,,,,,,,,,,,,,,,,,,,,,,,,,,,,,,,,,,,,,,,,,,,,,,,,,,,,,,,,
,,655424abfafb67fe33ca8476,2023-12-06_21h35.56.416,kallum_motion_pilot,2023.2.3,Win32,142.8571429,655424abfafb67fe33ca8476,6560176e4d91f764e2a42c74,657159ab04878fbbb10a632c,0.0765,0.0767,1,54,216,16,1,onetwo,,,,,,,,,,,,,,,,,,,,,,,,,,,,,,,,,,,,,,,,,,,,,,,,,,,,,,,,,,,,,,,,,,,,,,,,,,,,,,,,,,,,,,,,,,,,,,,,,,,,,,,,,,,,,,,,,,,,,,,,,,,,,,,,,,,,,,,
,,655424abfafb67fe33ca8476,2023-12-06_21h35.56.416,kallum_motion_pilot,2023.2.3,Win32,142.8571429,655424abfafb67fe33ca8476,6560176e4d91f764e2a42c74,657159ab04878fbbb10a632c,0.0768,0.077,1,55,217,84,1,sevenfive,,,,,,,,,,,,,,,,,,,,,,,,,,,,,,,,,,,,,,,,,,,,,,,,,,,,,,,,,,,,,,,,,,,,,,,,,,,,,,,,,,,,,,,,,,,,,,,,,,,,,,,,,,,,,,,,,,,,,,,,,,,,,,,,,,,,,,,
,,655424abfafb67fe33ca8476,2023-12-06_21h35.56.416,kallum_motion_pilot,2023.2.3,Win32,142.8571429,655424abfafb67fe33ca8476,6560176e4d91f764e2a42c74,657159ab04878fbbb10a632c,0.0771,0.0772,1,56,218,75,1,twofour,,,,,,,,,,,,,,,,,,,,,,,,,,,,,,,,,,,,,,,,,,,,,,,,,,,,,,,,,,,,,,,,,,,,,,,,,,,,,,,,,,,,,,,,,,,,,,,,,,,,,,,,,,,,,,,,,,,,,,,,,,,,,,,,,,,,,,,
,,655424abfafb67fe33ca8476,2023-12-06_21h35.56.416,kallum_motion_pilot,2023.2.3,Win32,142.8571429,655424abfafb67fe33ca8476,6560176e4d91f764e2a42c74,657159ab04878fbbb10a632c,0.0773,0.0775,1,57,219,94,1,eightsix,,,,,,,,,,,,,,,,,,,,,,,,,,,,,,,,,,,,,,,,,,,,,,,,,,,,,,,,,,,,,,,,,,,,,,,,,,,,,,,,,,,,,,,,,,,,,,,,,,,,,,,,,,,,,,,,,,,,,,,,,,,,,,,,,,,,,,,
,,655424abfafb67fe33ca8476,2023-12-06_21h35.56.416,kallum_motion_pilot,2023.2.3,Win32,142.8571429,655424abfafb67fe33ca8476,6560176e4d91f764e2a42c74,657159ab04878fbbb10a632c,0.0777,0.0778,1,58,220,122,1,sixfive,,,,,,,,,,,,,,,,,,,,,,,,,,,,,,,,,,,,,,,,,,,,,,,,,,,,,,,,,,,,,,,,,,,,,,,,,,,,,,,,,,,,,,,,,,,,,,,,,,,,,,,,,,,,,,,,,,,,,,,,,,,,,,,,,,,,,,,
,,655424abfafb67fe33ca8476,2023-12-06_21h35.56.416,kallum_motion_pilot,2023.2.3,Win32,142.8571429,655424abfafb67fe33ca8476,6560176e4d91f764e2a42c74,657159ab04878fbbb10a632c,0.078,0.0781,1,59,221,135,1,eightseven,,,,,,,,,,,,,,,,,,,,,,,,,,,,,,,,,,,,,,,,,,,,,,,,,,,,,,,,,,,,,,,,,,,,,,,,,,,,,,,,,,,,,,,,,,,,,,,,,,,,,,,,,,,,,,,,,,,,,,,,,,,,,,,,,,,,,,,
,,655424abfafb67fe33ca8476,2023-12-06_21h35.56.416,kallum_motion_pilot,2023.2.3,Win32,142.8571429,655424abfafb67fe33ca8476,6560176e4d91f764e2a42c74,657159ab04878fbbb10a632c,0.0783,0.0784,1,60,222,154,1,sixfive,,,,,,,,,,,,,,,,,,,,,,,,,,,,,,,,,,,,,,,,,,,,,,,,,,,,,,,,,,,,,,,,,,,,,,,,,,,,,,,,,,,,,,,,,,,,,,,,,,,,,,,,,,,,,,,,,,,,,,,,,,,,,,,,,,,,,,,
,,655424abfafb67fe33ca8476,2023-12-06_21h35.56.416,kallum_motion_pilot,2023.2.3,Win32,142.8571429,655424abfafb67fe33ca8476,6560176e4d91f764e2a42c74,657159ab04878fbbb10a632c,0.0785,0.0786,1,61,223,155,1,sixeight,,,,,,,,,,,,,,,,,,,,,,,,,,,,,,,,,,,,,,,,,,,,,,,,,,,,,,,,,,,,,,,,,,,,,,,,,,,,,,,,,,,,,,,,,,,,,,,,,,,,,,,,,,,,,,,,,,,,,,,,,,,,,,,,,,,,,,,
,,655424abfafb67fe33ca8476,2023-12-06_21h35.56.416,kallum_motion_pilot,2023.2.3,Win32,142.8571429,655424abfafb67fe33ca8476,6560176e4d91f764e2a42c74,657159ab04878fbbb10a632c,0.0788,0.0789,1,62,224,77,1,threefour,,,,,,,,,,,,,,,,,,,,,,,,,,,,,,,,,,,,,,,,,,,,,,,,,,,,,,,,,,,,,,,,,,,,,,,,,,,,,,,,,,,,,,,,,,,,,,,,,,,,,,,,,,,,,,,,,,,,,,,,,,,,,,,,,,,,,,,
,,655424abfafb67fe33ca8476,2023-12-06_21h35.56.416,kallum_motion_pilot,2023.2.3,Win32,142.8571429,655424abfafb67fe33ca8476,6560176e4d91f764e2a42c74,657159ab04878fbbb10a632c,0.0791,0.0792,1,63,225,88,1,fivesix,,,,,,,,,,,,,,,,,,,,,,,,,,,,,,,,,,,,,,,,,,,,,,,,,,,,,,,,,,,,,,,,,,,,,,,,,,,,,,,,,,,,,,,,,,,,,,,,,,,,,,,,,,,,,,,,,,,,,,,,,,,,,,,,,,,,,,,
,,655424abfafb67fe33ca8476,2023-12-06_21h35.56.416,kallum_motion_pilot,2023.2.3,Win32,142.8571429,655424abfafb67fe33ca8476,6560176e4d91f764e2a42c74,657159ab04878fbbb10a632c,0.0794,0.0795,1,64,226,89,1,fiveseven,,,,,,,,,,,,,,,,,,,,,,,,,,,,,,,,,,,,,,,,,,,,,,,,,,,,,,,,,,,,,,,,,,,,,,,,,,,,,,,,,,,,,,,,,,,,,,,,,,,,,,,,,,,,,,,,,,,,,,,,,,,,,,,,,,,,,,,
,,655424abfafb67fe33ca8476,2023-12-06_21h35.56.416,kallum_motion_pilot,2023.2.3,Win32,142.8571429,655424abfafb67fe33ca8476,6560176e4d91f764e2a42c74,657159ab04878fbbb10a632c,0.0797,0.0798,1,65,227,116,1,sevenfive,,,,,,,,,,,,,,,,,,,,,,,,,,,,,,,,,,,,,,,,,,,,,,,,,,,,,,,,,,,,,,,,,,,,,,,,,,,,,,,,,,,,,,,,,,,,,,,,,,,,,,,,,,,,,,,,,,,,,,,,,,,,,,,,,,,,,,,
,,655424abfafb67fe33ca8476,2023-12-06_21h35.56.416,kallum_motion_pilot,2023.2.3,Win32,142.8571429,655424abfafb67fe33ca8476,6560176e4d91f764e2a42c74,657159ab04878fbbb10a632c,0.0799,0.0801,1,66,228,137,1,fiveseven,,,,,,,,,,,,,,,,,,,,,,,,,,,,,,,,,,,,,,,,,,,,,,,,,,,,,,,,,,,,,,,,,,,,,,,,,,,,,,,,,,,,,,,,,,,,,,,,,,,,,,,,,,,,,,,,,,,,,,,,,,,,,,,,,,,,,,,
,,655424abfafb67fe33ca8476,2023-12-06_21h35.56.416,kallum_motion_pilot,2023.2.3,Win32,142.8571429,655424abfafb67fe33ca8476,6560176e4d91f764e2a42c74,657159ab04878fbbb10a632c,0.0802,0.0803,1,67,229,64,1,onetwo,,,,,,,,,,,,,,,,,,,,,,,,,,,,,,,,,,,,,,,,,,,,,,,,,,,,,,,,,,,,,,,,,,,,,,,,,,,,,,,,,,,,,,,,,,,,,,,,,,,,,,,,,,,,,,,,,,,,,,,,,,,,,,,,,,,,,,,
,,655424abfafb67fe33ca8476,2023-12-06_21h35.56.416,kallum_motion_pilot,2023.2.3,Win32,142.8571429,655424abfafb67fe33ca8476,6560176e4d91f764e2a42c74,657159ab04878fbbb10a632c,0.0803,0.0804,1,68,230,132,1,sevenfive,,,,,,,,,,,,,,,,,,,,,,,,,,,,,,,,,,,,,,,,,,,,,,,,,,,,,,,,,,,,,,,,,,,,,,,,,,,,,,,,,,,,,,,,,,,,,,,,,,,,,,,,,,,,,,,,,,,,,,,,,,,,,,,,,,,,,,,
,,655424abfafb67fe33ca8476,2023-12-06_21h35.56.416,kallum_motion_pilot,2023.2.3,Win32,142.8571429,655424abfafb67fe33ca8476,6560176e4d91f764e2a42c74,657159ab04878fbbb10a632c,0.0805,0.0805,1,69,231,143,1,eightseven,,,,,,,,,,,,,,,,,,,,,,,,,,,,,,,,,,,,,,,,,,,,,,,,,,,,,,,,,,,,,,,,,,,,,,,,,,,,,,,,,,,,,,,,,,,,,,,,,,,,,,,,,,,,,,,,,,,,,,,,,,,,,,,,,,,,,,,
,,655424abfafb67fe33ca8476,2023-12-06_21h35.56.416,kallum_motion_pilot,2023.2.3,Win32,142.8571429,655424abfafb67fe33ca8476,6560176e4d91f764e2a42c74,657159ab04878fbbb10a632c,0.0806,0.0806,1,70,232,130,1,sixfive,,,,,,,,,,,,,,,,,,,,,,,,,,,,,,,,,,,,,,,,,,,,,,,,,,,,,,,,,,,,,,,,,,,,,,,,,,,,,,,,,,,,,,,,,,,,,,,,,,,,,,,,,,,,,,,,,,,,,,,,,,,,,,,,,,,,,,,
,,655424abfafb67fe33ca8476,2023-12-06_21h35.56.416,kallum_motion_pilot,2023.2.3,Win32,142.8571429,655424abfafb67fe33ca8476,6560176e4d91f764e2a42c74,657159ab04878fbbb10a632c,0.0812,0.0813,1,71,233,102,1,eightsix,,,,,,,,,,,,,,,,,,,,,,,,,,,,,,,,,,,,,,,,,,,,,,,,,,,,,,,,,,,,,,,,,,,,,,,,,,,,,,,,,,,,,,,,,,,,,,,,,,,,,,,,,,,,,,,,,,,,,,,,,,,,,,,,,,,,,,,
,,655424abfafb67fe33ca8476,2023-12-06_21h35.56.416,kallum_motion_pilot,2023.2.3,Win32,142.8571429,655424abfafb67fe33ca8476,6560176e4d91f764e2a42c74,657159ab04878fbbb10a632c,0.0814,0.0815,1,72,234,139,1,sixeight,,,,,,,,,,,,,,,,,,,,,,,,,,,,,,,,,,,,,,,,,,,,,,,,,,,,,,,,,,,,,,,,,,,,,,,,,,,,,,,,,,,,,,,,,,,,,,,,,,,,,,,,,,,,,,,,,,,,,,,,,,,,,,,,,,,,,,,
,,655424abfafb67fe33ca8476,2023-12-06_21h35.56.416,kallum_motion_pilot,2023.2.3,Win32,142.8571429,655424abfafb67fe33ca8476,6560176e4d91f764e2a42c74,657159ab04878fbbb10a632c,0.0816,0.0817,1,73,235,33,1,onethree,,,,,,,,,,,,,,,,,,,,,,,,,,,,,,,,,,,,,,,,,,,,,,,,,,,,,,,,,,,,,,,,,,,,,,,,,,,,,,,,,,,,,,,,,,,,,,,,,,,,,,,,,,,,,,,,,,,,,,,,,,,,,,,,,,,,,,,
,,655424abfafb67fe33ca8476,2023-12-06_21h35.56.416,kallum_motion_pilot,2023.2.3,Win32,142.8571429,655424abfafb67fe33ca8476,6560176e4d91f764e2a42c74,657159ab04878fbbb10a632c,0.0817,0.0818,1,74,236,124,1,sevenfive,,,,,,,,,,,,,,,,,,,,,,,,,,,,,,,,,,,,,,,,,,,,,,,,,,,,,,,,,,,,,,,,,,,,,,,,,,,,,,,,,,,,,,,,,,,,,,,,,,,,,,,,,,,,,,,,,,,,,,,,,,,,,,,,,,,,,,,
,,655424abfafb67fe33ca8476,2023-12-06_21h35.56.416,kallum_motion_pilot,2023.2.3,Win32,142.8571429,655424abfafb67fe33ca8476,6560176e4d91f764e2a42c74,657159ab04878fbbb10a632c,0.0818,0.0819,1,75,237,20,1,threeone,,,,,,,,,,,,,,,,,,,,,,,,,,,,,,,,,,,,,,,,,,,,,,,,,,,,,,,,,,,,,,,,,,,,,,,,,,,,,,,,,,,,,,,,,,,,,,,,,,,,,,,,,,,,,,,,,,,,,,,,,,,,,,,,,,,,,,,
,,655424abfafb67fe33ca8476,2023-12-06_21h35.56.416,kallum_motion_pilot,2023.2.3,Win32,142.8571429,655424abfafb67fe33ca8476,6560176e4d91f764e2a42c74,657159ab04878fbbb10a632c,0.082,0.082,1,76,238,36,1,threeone,,,,,,,,,,,,,,,,,,,,,,,,,,,,,,,,,,,,,,,,,,,,,,,,,,,,,,,,,,,,,,,,,,,,,,,,,,,,,,,,,,,,,,,,,,,,,,,,,,,,,,,,,,,,,,,,,,,,,,,,,,,,,,,,,,,,,,,
,,655424abfafb67fe33ca8476,2023-12-06_21h35.56.416,kallum_motion_pilot,2023.2.3,Win32,142.8571429,655424abfafb67fe33ca8476,6560176e4d91f764e2a42c74,657159ab04878fbbb10a632c,0.0821,0.0822,1,77,239,28,1,threeone,,,,,,,,,,,,,,,,,,,,,,,,,,,,,,,,,,,,,,,,,,,,,,,,,,,,,,,,,,,,,,,,,,,,,,,,,,,,,,,,,,,,,,,,,,,,,,,,,,,,,,,,,,,,,,,,,,,,,,,,,,,,,,,,,,,,,,,
,,655424abfafb67fe33ca8476,2023-12-06_21h35.56.416,kallum_motion_pilot,2023.2.3,Win32,142.8571429,655424abfafb67fe33ca8476,6560176e4d91f764e2a42c74,657159ab04878fbbb10a632c,0.0823,0.0823,1,78,240,50,1,twoone,,,,,,,,,,,,,,,,,,,,,,,,,,,,,,,,,,,,,,,,,,,,,,,,,,,,,,,,,,,,,,,,,,,,,,,,,,,,,,,,,,,,,,,,,,,,,,,,,,,,,,,,,,,,,,,,,,,,,,,,,,,,,,,,,,,,,,,
,,655424abfafb67fe33ca8476,2023-12-06_21h35.56.416,kallum_motion_pilot,2023.2.3,Win32,142.8571429,655424abfafb67fe33ca8476,6560176e4d91f764e2a42c74,657159ab04878fbbb10a632c,0.0823,0.0824,1,79,241,74,1,twoone,,,,,,,,,,,,,,,,,,,,,,,,,,,,,,,,,,,,,,,,,,,,,,,,,,,,,,,,,,,,,,,,,,,,,,,,,,,,,,,,,,,,,,,,,,,,,,,,,,,,,,,,,,,,,,,,,,,,,,,,,,,,,,,,,,,,,,,
,,655424abfafb67fe33ca8476,2023-12-06_21h35.56.416,kallum_motion_pilot,2023.2.3,Win32,142.8571429,655424abfafb67fe33ca8476,6560176e4d91f764e2a42c74,657159ab04878fbbb10a632c,0.0825,0.0825,1,80,242,45,1,threefour,,,,,,,,,,,,,,,,,,,,,,,,,,,,,,,,,,,,,,,,,,,,,,,,,,,,,,,,,,,,,,,,,,,,,,,,,,,,,,,,,,,,,,,,,,,,,,,,,,,,,,,,,,,,,,,,,,,,,,,,,,,,,,,,,,,,,,,
,,655424abfafb67fe33ca8476,2023-12-06_21h35.56.416,kallum_motion_pilot,2023.2.3,Win32,142.8571429,655424abfafb67fe33ca8476,6560176e4d91f764e2a42c74,657159ab04878fbbb10a632c,0.0827,0.0828,1,81,243,106,1,sixfive,,,,,,,,,,,,,,,,,,,,,,,,,,,,,,,,,,,,,,,,,,,,,,,,,,,,,,,,,,,,,,,,,,,,,,,,,,,,,,,,,,,,,,,,,,,,,,,,,,,,,,,,,,,,,,,,,,,,,,,,,,,,,,,,,,,,,,,
,,655424abfafb67fe33ca8476,2023-12-06_21h35.56.416,kallum_motion_pilot,2023.2.3,Win32,142.8571429,655424abfafb67fe33ca8476,6560176e4d91f764e2a42c74,657159ab04878fbbb10a632c,0.0828,0.083,1,82,244,85,1,seveneight,,,,,,,,,,,,,,,,,,,,,,,,,,,,,,,,,,,,,,,,,,,,,,,,,,,,,,,,,,,,,,,,,,,,,,,,,,,,,,,,,,,,,,,,,,,,,,,,,,,,,,,,,,,,,,,,,,,,,,,,,,,,,,,,,,,,,,,
,,655424abfafb67fe33ca8476,2023-12-06_21h35.56.416,kallum_motion_pilot,2023.2.3,Win32,142.8571429,655424abfafb67fe33ca8476,6560176e4d91f764e2a42c74,657159ab04878fbbb10a632c,0.0831,0.0831,1,83,245,70,1,fourtwo,,,,,,,,,,,,,,,,,,,,,,,,,,,,,,,,,,,,,,,,,,,,,,,,,,,,,,,,,,,,,,,,,,,,,,,,,,,,,,,,,,,,,,,,,,,,,,,,,,,,,,,,,,,,,,,,,,,,,,,,,,,,,,,,,,,,,,,
,,655424abfafb67fe33ca8476,2023-12-06_21h35.56.416,kallum_motion_pilot,2023.2.3,Win32,142.8571429,655424abfafb67fe33ca8476,6560176e4d91f764e2a42c74,657159ab04878fbbb10a632c,0.0833,0.0834,1,84,246,72,1,onetwo,,,,,,,,,,,,,,,,,,,,,,,,,,,,,,,,,,,,,,,,,,,,,,,,,,,,,,,,,,,,,,,,,,,,,,,,,,,,,,,,,,,,,,,,,,,,,,,,,,,,,,,,,,,,,,,,,,,,,,,,,,,,,,,,,,,,,,,
,,655424abfafb67fe33ca8476,2023-12-06_21h35.56.416,kallum_motion_pilot,2023.2.3,Win32,142.8571429,655424abfafb67fe33ca8476,6560176e4d91f764e2a42c74,657159ab04878fbbb10a632c,0.0835,0.0835,1,85,247,90,1,sixfive,,,,,,,,,,,,,,,,,,,,,,,,,,,,,,,,,,,,,,,,,,,,,,,,,,,,,,,,,,,,,,,,,,,,,,,,,,,,,,,,,,,,,,,,,,,,,,,,,,,,,,,,,,,,,,,,,,,,,,,,,,,,,,,,,,,,,,,
,,655424abfafb67fe33ca8476,2023-12-06_21h35.56.416,kallum_motion_pilot,2023.2.3,Win32,142.8571429,655424abfafb67fe33ca8476,6560176e4d91f764e2a42c74,657159ab04878fbbb10a632c,0.0836,0.0837,1,86,248,92,1,sevenfive,,,,,,,,,,,,,,,,,,,,,,,,,,,,,,,,,,,,,,,,,,,,,,,,,,,,,,,,,,,,,,,,,,,,,,,,,,,,,,,,,,,,,,,,,,,,,,,,,,,,,,,,,,,,,,,,,,,,,,,,,,,,,,,,,,,,,,,
,,655424abfafb67fe33ca8476,2023-12-06_21h35.56.416,kallum_motion_pilot,2023.2.3,Win32,142.8571429,655424abfafb67fe33ca8476,6560176e4d91f764e2a42c74,657159ab04878fbbb10a632c,0.0837,0.0838,1,87,249,21,1,threefour,,,,,,,,,,,,,,,,,,,,,,,,,,,,,,,,,,,,,,,,,,,,,,,,,,,,,,,,,,,,,,,,,,,,,,,,,,,,,,,,,,,,,,,,,,,,,,,,,,,,,,,,,,,,,,,,,,,,,,,,,,,,,,,,,,,,,,,
,,655424abfafb67fe33ca8476,2023-12-06_21h35.56.416,kallum_motion_pilot,2023.2.3,Win32,142.8571429,655424abfafb67fe33ca8476,6560176e4d91f764e2a42c74,657159ab04878fbbb10a632c,0.0838,0.0839,1,88,250,121,1,fiveseven,,,,,,,,,,,,,,,,,,,,,,,,,,,,,,,,,,,,,,,,,,,,,,,,,,,,,,,,,,,,,,,,,,,,,,,,,,,,,,,,,,,,,,,,,,,,,,,,,,,,,,,,,,,,,,,,,,,,,,,,,,,,,,,,,,,,,,,
,,655424abfafb67fe33ca8476,2023-12-06_21h35.56.416,kallum_motion_pilot,2023.2.3,Win32,142.8571429,655424abfafb67fe33ca8476,6560176e4d91f764e2a42c74,657159ab04878fbbb10a632c,0.0839,0.084,1,89,251,111,1,eightseven,,,,,,,,,,,,,,,,,,,,,,,,,,,,,,,,,,,,,,,,,,,,,,,,,,,,,,,,,,,,,,,,,,,,,,,,,,,,,,,,,,,,,,,,,,,,,,,,,,,,,,,,,,,,,,,,,,,,,,,,,,,,,,,,,,,,,,,
,,655424abfafb67fe33ca8476,2023-12-06_21h35.56.416,kallum_motion_pilot,2023.2.3,Win32,142.8571429,655424abfafb67fe33ca8476,6560176e4d91f764e2a42c74,657159ab04878fbbb10a632c,0.0841,0.0842,1,90,252,47,1,fourthree,,,,,,,,,,,,,,,,,,,,,,,,,,,,,,,,,,,,,,,,,,,,,,,,,,,,,,,,,,,,,,,,,,,,,,,,,,,,,,,,,,,,,,,,,,,,,,,,,,,,,,,,,,,,,,,,,,,,,,,,,,,,,,,,,,,,,,,
,,655424abfafb67fe33ca8476,2023-12-06_21h35.56.416,kallum_motion_pilot,2023.2.3,Win32,142.8571429,655424abfafb67fe33ca8476,6560176e4d91f764e2a42c74,657159ab04878fbbb10a632c,0.0842,0.0843,1,91,253,55,1,fourthree,,,,,,,,,,,,,,,,,,,,,,,,,,,,,,,,,,,,,,,,,,,,,,,,,,,,,,,,,,,,,,,,,,,,,,,,,,,,,,,,,,,,,,,,,,,,,,,,,,,,,,,,,,,,,,,,,,,,,,,,,,,,,,,,,,,,,,,
,,655424abfafb67fe33ca8476,2023-12-06_21h35.56.416,kallum_motion_pilot,2023.2.3,Win32,142.8571429,655424abfafb67fe33ca8476,6560176e4d91f764e2a42c74,657159ab04878fbbb10a632c,0.0843,0.0844,1,92,254,37,1,threefour,,,,,,,,,,,,,,,,,,,,,,,,,,,,,,,,,,,,,,,,,,,,,,,,,,,,,,,,,,,,,,,,,,,,,,,,,,,,,,,,,,,,,,,,,,,,,,,,,,,,,,,,,,,,,,,,,,,,,,,,,,,,,,,,,,,,,,,
,,655424abfafb67fe33ca8476,2023-12-06_21h35.56.416,kallum_motion_pilot,2023.2.3,Win32,142.8571429,655424abfafb67fe33ca8476,6560176e4d91f764e2a42c74,657159ab04878fbbb10a632c,0.0845,0.0846,1,93,255,60,1,threeone,,,,,,,,,,,,,,,,,,,,,,,,,,,,,,,,,,,,,,,,,,,,,,,,,,,,,,,,,,,,,,,,,,,,,,,,,,,,,,,,,,,,,,,,,,,,,,,,,,,,,,,,,,,,,,,,,,,,,,,,,,,,,,,,,,,,,,,
,,655424abfafb67fe33ca8476,2023-12-06_21h35.56.416,kallum_motion_pilot,2023.2.3,Win32,142.8571429,655424abfafb67fe33ca8476,6560176e4d91f764e2a42c74,657159ab04878fbbb10a632c,0.0846,0.0848,1,94,256,147,1,sixeight,,,,,,,,,,,,,,,,,,,,,,,,,,,,,,,,,,,,,,,,,,,,,,,,,,,,,,,,,,,,,,,,,,,,,,,,,,,,,,,,,,,,,,,,,,,,,,,,,,,,,,,,,,,,,,,,,,,,,,,,,,,,,,,,,,,,,,,
,,655424abfafb67fe33ca8476,2023-12-06_21h35.56.416,kallum_motion_pilot,2023.2.3,Win32,142.8571429,655424abfafb67fe33ca8476,6560176e4d91f764e2a42c74,657159ab04878fbbb10a632c,0.0848,0.0848,1,95,257,59,1,twofour,,,,,,,,,,,,,,,,,,,,,,,,,,,,,,,,,,,,,,,,,,,,,,,,,,,,,,,,,,,,,,,,,,,,,,,,,,,,,,,,,,,,,,,,,,,,,,,,,,,,,,,,,,,,,,,,,,,,,,,,,,,,,,,,,,,,,,,
,,655424abfafb67fe33ca8476,2023-12-06_21h35.56.416,kallum_motion_pilot,2023.2.3,Win32,142.8571429,655424abfafb67fe33ca8476,6560176e4d91f764e2a42c74,657159ab04878fbbb10a632c,0.0849,0.085,1,96,258,32,1,onetwo,,,,,,,,,,,,,,,,,,,,,,,,,,,,,,,,,,,,,,,,,,,,,,,,,,,,,,,,,,,,,,,,,,,,,,,,,,,,,,,,,,,,,,,,,,,,,,,,,,,,,,,,,,,,,,,,,,,,,,,,,,,,,,,,,,,,,,,
,,655424abfafb67fe33ca8476,2023-12-06_21h35.56.416,kallum_motion_pilot,2023.2.3,Win32,142.8571429,655424abfafb67fe33ca8476,6560176e4d91f764e2a42c74,657159ab04878fbbb10a632c,0.085,0.0851,1,97,259,17,1,onethree,,,,,,,,,,,,,,,,,,,,,,,,,,,,,,,,,,,,,,,,,,,,,,,,,,,,,,,,,,,,,,,,,,,,,,,,,,,,,,,,,,,,,,,,,,,,,,,,,,,,,,,,,,,,,,,,,,,,,,,,,,,,,,,,,,,,,,,
,,655424abfafb67fe33ca8476,2023-12-06_21h35.56.416,kallum_motion_pilot,2023.2.3,Win32,142.8571429,655424abfafb67fe33ca8476,6560176e4d91f764e2a42c74,657159ab04878fbbb10a632c,0.0851,0.0852,1,98,260,98,1,sixfive,,,,,,,,,,,,,,,,,,,,,,,,,,,,,,,,,,,,,,,,,,,,,,,,,,,,,,,,,,,,,,,,,,,,,,,,,,,,,,,,,,,,,,,,,,,,,,,,,,,,,,,,,,,,,,,,,,,,,,,,,,,,,,,,,,,,,,,
,,655424abfafb67fe33ca8476,2023-12-06_21h35.56.416,kallum_motion_pilot,2023.2.3,Win32,142.8571429,655424abfafb67fe33ca8476,6560176e4d91f764e2a42c74,657159ab04878fbbb10a632c,0.0853,0.0854,1,99,261,62,1,fourtwo,,,,,,,,,,,,,,,,,,,,,,,,,,,,,,,,,,,,,,,,,,,,,,,,,,,,,,,,,,,,,,,,,,,,,,,,,,,,,,,,,,,,,,,,,,,,,,,,,,,,,,,,,,,,,,,,,,,,,,,,,,,,,,,,,,,,,,,
,,655424abfafb67fe33ca8476,2023-12-06_21h35.56.416,kallum_motion_pilot,2023.2.3,Win32,142.8571429,655424abfafb67fe33ca8476,6560176e4d91f764e2a42c74,657159ab04878fbbb10a632c,0.0854,0.0855,1,100,262,93,1,seveneight,,,,,,,,,,,,,,,,,,,,,,,,,,,,,,,,,,,,,,,,,,,,,,,,,,,,,,,,,,,,,,,,,,,,,,,,,,,,,,,,,,,,,,,,,,,,,,,,,,,,,,,,,,,,,,,,,,,,,,,,,,,,,,,,,,,,,,,
,,655424abfafb67fe33ca8476,2023-12-06_21h35.56.416,kallum_motion_pilot,2023.2.3,Win32,142.8571429,655424abfafb67fe33ca8476,6560176e4d91f764e2a42c74,657159ab04878fbbb10a632c,0.0856,0.0856,1,101,263,115,1,sixeight,,,,,,,,,,,,,,,,,,,,,,,,,,,,,,,,,,,,,,,,,,,,,,,,,,,,,,,,,,,,,,,,,,,,,,,,,,,,,,,,,,,,,,,,,,,,,,,,,,,,,,,,,,,,,,,,,,,,,,,,,,,,,,,,,,,,,,,
,,655424abfafb67fe33ca8476,2023-12-06_21h35.56.416,kallum_motion_pilot,2023.2.3,Win32,142.8571429,655424abfafb67fe33ca8476,6560176e4d91f764e2a42c74,657159ab04878fbbb10a632c,0.0857,0.0857,1,102,264,146,1,sixfive,,,,,,,,,,,,,,,,,,,,,,,,,,,,,,,,,,,,,,,,,,,,,,,,,,,,,,,,,,,,,,,,,,,,,,,,,,,,,,,,,,,,,,,,,,,,,,,,,,,,,,,,,,,,,,,,,,,,,,,,,,,,,,,,,,,,,,,
,,655424abfafb67fe33ca8476,2023-12-06_21h35.56.416,kallum_motion_pilot,2023.2.3,Win32,142.8571429,655424abfafb67fe33ca8476,6560176e4d91f764e2a42c74,657159ab04878fbbb10a632c,0.0858,0.0859,1,103,265,128,1,fivesix,,,,,,,,,,,,,,,,,,,,,,,,,,,,,,,,,,,,,,,,,,,,,,,,,,,,,,,,,,,,,,,,,,,,,,,,,,,,,,,,,,,,,,,,,,,,,,,,,,,,,,,,,,,,,,,,,,,,,,,,,,,,,,,,,,,,,,,
,,655424abfafb67fe33ca8476,2023-12-06_21h35.56.416,kallum_motion_pilot,2023.2.3,Win32,142.8571429,655424abfafb67fe33ca8476,6560176e4d91f764e2a42c74,657159ab04878fbbb10a632c,0.0859,0.086,1,104,266,7,1,fourthree,,,,,,,,,,,,,,,,,,,,,,,,,,,,,,,,,,,,,,,,,,,,,,,,,,,,,,,,,,,,,,,,,,,,,,,,,,,,,,,,,,,,,,,,,,,,,,,,,,,,,,,,,,,,,,,,,,,,,,,,,,,,,,,,,,,,,,,
,,655424abfafb67fe33ca8476,2023-12-06_21h35.56.416,kallum_motion_pilot,2023.2.3,Win32,142.8571429,655424abfafb67fe33ca8476,6560176e4d91f764e2a42c74,657159ab04878fbbb10a632c,0.086,0.0862,1,105,267,6,1,fourtwo,,,,,,,,,,,,,,,,,,,,,,,,,,,,,,,,,,,,,,,,,,,,,,,,,,,,,,,,,,,,,,,,,,,,,,,,,,,,,,,,,,,,,,,,,,,,,,,,,,,,,,,,,,,,,,,,,,,,,,,,,,,,,,,,,,,,,,,
,,655424abfafb67fe33ca8476,2023-12-06_21h35.56.416,kallum_motion_pilot,2023.2.3,Win32,142.8571429,655424abfafb67fe33ca8476,6560176e4d91f764e2a42c74,657159ab04878fbbb10a632c,0.0862,0.0863,1,106,268,114,1,sixfive,,,,,,,,,,,,,,,,,,,,,,,,,,,,,,,,,,,,,,,,,,,,,,,,,,,,,,,,,,,,,,,,,,,,,,,,,,,,,,,,,,,,,,,,,,,,,,,,,,,,,,,,,,,,,,,,,,,,,,,,,,,,,,,,,,,,,,,
,,655424abfafb67fe33ca8476,2023-12-06_21h35.56.416,kallum_motion_pilot,2023.2.3,Win32,142.8571429,655424abfafb67fe33ca8476,6560176e4d91f764e2a42c74,657159ab04878fbbb10a632c,0.0863,0.0864,1,107,269,148,1,sevenfive,,,,,,,,,,,,,,,,,,,,,,,,,,,,,,,,,,,,,,,,,,,,,,,,,,,,,,,,,,,,,,,,,,,,,,,,,,,,,,,,,,,,,,,,,,,,,,,,,,,,,,,,,,,,,,,,,,,,,,,,,,,,,,,,,,,,,,,
,,655424abfafb67fe33ca8476,2023-12-06_21h35.56.416,kallum_motion_pilot,2023.2.3,Win32,142.8571429,655424abfafb67fe33ca8476,6560176e4d91f764e2a42c74,657159ab04878fbbb10a632c,0.0865,0.0865,1,108,270,56,1,onetwo,,,,,,,,,,,,,,,,,,,,,,,,,,,,,,,,,,,,,,,,,,,,,,,,,,,,,,,,,,,,,,,,,,,,,,,,,,,,,,,,,,,,,,,,,,,,,,,,,,,,,,,,,,,,,,,,,,,,,,,,,,,,,,,,,,,,,,,
,,655424abfafb67fe33ca8476,2023-12-06_21h35.56.416,kallum_motion_pilot,2023.2.3,Win32,142.8571429,655424abfafb67fe33ca8476,6560176e4d91f764e2a42c74,657159ab04878fbbb10a632c,0.0866,0.0867,1,109,271,2,1,twoone,,,,,,,,,,,,,,,,,,,,,,,,,,,,,,,,,,,,,,,,,,,,,,,,,,,,,,,,,,,,,,,,,,,,,,,,,,,,,,,,,,,,,,,,,,,,,,,,,,,,,,,,,,,,,,,,,,,,,,,,,,,,,,,,,,,,,,,
,,655424abfafb67fe33ca8476,2023-12-06_21h35.56.416,kallum_motion_pilot,2023.2.3,Win32,142.8571429,655424abfafb67fe33ca8476,6560176e4d91f764e2a42c74,657159ab04878fbbb10a632c,0.0867,0.0868,1,110,272,8,1,onetwo,,,,,,,,,,,,,,,,,,,,,,,,,,,,,,,,,,,,,,,,,,,,,,,,,,,,,,,,,,,,,,,,,,,,,,,,,,,,,,,,,,,,,,,,,,,,,,,,,,,,,,,,,,,,,,,,,,,,,,,,,,,,,,,,,,,,,,,
,,655424abfafb67fe33ca8476,2023-12-06_21h35.56.416,kallum_motion_pilot,2023.2.3,Win32,142.8571429,655424abfafb67fe33ca8476,6560176e4d91f764e2a42c74,657159ab04878fbbb10a632c,0.0869,0.087,1,111,273,156,1,sevenfive,,,,,,,,,,,,,,,,,,,,,,,,,,,,,,,,,,,,,,,,,,,,,,,,,,,,,,,,,,,,,,,,,,,,,,,,,,,,,,,,,,,,,,,,,,,,,,,,,,,,,,,,,,,,,,,,,,,,,,,,,,,,,,,,,,,,,,,
,,655424abfafb67fe33ca8476,2023-12-06_21h35.56.416,kallum_motion_pilot,2023.2.3,Win32,142.8571429,655424abfafb67fe33ca8476,6560176e4d91f764e2a42c74,657159ab04878fbbb10a632c,0.087,0.0871,1,112,274,117,1,seveneight,,,,,,,,,,,,,,,,,,,,,,,,,,,,,,,,,,,,,,,,,,,,,,,,,,,,,,,,,,,,,,,,,,,,,,,,,,,,,,,,,,,,,,,,,,,,,,,,,,,,,,,,,,,,,,,,,,,,,,,,,,,,,,,,,,,,,,,
,,655424abfafb67fe33ca8476,2023-12-06_21h35.56.416,kallum_motion_pilot,2023.2.3,Win32,142.8571429,655424abfafb67fe33ca8476,6560176e4d91f764e2a42c74,657159ab04878fbbb10a632c,0.0871,0.0873,1,113,275,96,1,fivesix,,,,,,,,,,,,,,,,,,,,,,,,,,,,,,,,,,,,,,,,,,,,,,,,,,,,,,,,,,,,,,,,,,,,,,,,,,,,,,,,,,,,,,,,,,,,,,,,,,,,,,,,,,,,,,,,,,,,,,,,,,,,,,,,,,,,,,,
,,655424abfafb67fe33ca8476,2023-12-06_21h35.56.416,kallum_motion_pilot,2023.2.3,Win32,142.8571429,655424abfafb67fe33ca8476,6560176e4d91f764e2a42c74,657159ab04878fbbb10a632c,0.0873,0.0873,1,114,276,133,1,seveneight,,,,,,,,,,,,,,,,,,,,,,,,,,,,,,,,,,,,,,,,,,,,,,,,,,,,,,,,,,,,,,,,,,,,,,,,,,,,,,,,,,,,,,,,,,,,,,,,,,,,,,,,,,,,,,,,,,,,,,,,,,,,,,,,,,,,,,,
,,655424abfafb67fe33ca8476,2023-12-06_21h35.56.416,kallum_motion_pilot,2023.2.3,Win32,142.8571429,655424abfafb67fe33ca8476,6560176e4d91f764e2a42c74,657159ab04878fbbb10a632c,0.0874,0.0875,1,115,277,69,1,threefour,,,,,,,,,,,,,,,,,,,,,,,,,,,,,,,,,,,,,,,,,,,,,,,,,,,,,,,,,,,,,,,,,,,,,,,,,,,,,,,,,,,,,,,,,,,,,,,,,,,,,,,,,,,,,,,,,,,,,,,,,,,,,,,,,,,,,,,
,,655424abfafb67fe33ca8476,2023-12-06_21h35.56.416,kallum_motion_pilot,2023.2.3,Win32,142.8571429,655424abfafb67fe33ca8476,6560176e4d91f764e2a42c74,657159ab04878fbbb10a632c,0.0875,0.0876,1,116,278,10,1,twoone,,,,,,,,,,,,,,,,,,,,,,,,,,,,,,,,,,,,,,,,,,,,,,,,,,,,,,,,,,,,,,,,,,,,,,,,,,,,,,,,,,,,,,,,,,,,,,,,,,,,,,,,,,,,,,,,,,,,,,,,,,,,,,,,,,,,,,,
,,655424abfafb67fe33ca8476,2023-12-06_21h35.56.416,kallum_motion_pilot,2023.2.3,Win32,142.8571429,655424abfafb67fe33ca8476,6560176e4d91f764e2a42c74,657159ab04878fbbb10a632c,0.0877,0.0878,1,117,279,110,1,eightsix,,,,,,,,,,,,,,,,,,,,,,,,,,,,,,,,,,,,,,,,,,,,,,,,,,,,,,,,,,,,,,,,,,,,,,,,,,,,,,,,,,,,,,,,,,,,,,,,,,,,,,,,,,,,,,,,,,,,,,,,,,,,,,,,,,,,,,,
