startup.started,startup.stopped,Prolific ID*,date,expName,psychopyVersion,OS,frameRate,participant,study_id,session,stimpositions.started,stimpositions.stopped,hardcoded_stimulus_positions.thisRepN,hardcoded_stimulus_positions.thisTrialN,hardcoded_stimulus_positions.thisN,hardcoded_stimulus_positions.thisIndex,hardcoded_stimulus_positions.ran,StimulusPos,stimorientation.started,stimorientation.stopped,prac_stimorientation_import_loop.thisRepN,prac_stimorientation_import_loop.thisTrialN,prac_stimorientation_import_loop.thisN,prac_stimorientation_import_loop.thisIndex,prac_stimorientation_import_loop.ran,Stimorientation,welcome_instr.started,welcome_instr.stopped,key_resp.keys,key_resp.rt,key_resp.duration,response_steppedout_1.started,response_steppedout_1.stopped,key_resp_20.keys,key_resp_20.rt,key_resp_20.duration,response_steppedout_2.started,response_steppedout_2.stopped,key_resp_19.keys,key_resp_19.rt,key_resp_19.duration,stim_response_instr.started,stim_response_instr.stopped,key_resp_15.keys,key_resp_15.rt,key_resp_15.duration,direction_instr_2.started,direction_instr_2.stopped,key_resp_9.keys,key_resp_9.rt,key_resp_9.duration,instr_prac.started,instr_prac.stopped,key_resp_10.keys,key_resp_10.rt,key_resp_10.duration,Stim1_display_prac.started,Stim1_display_prac.stopped,Ecc,Circle1_ori,Circle2_ori,response_prac.started,similarity,response_time,response_prac.stopped,mouse_5.x,mouse_5.y,mouse_5.leftButton,mouse_5.midButton,mouse_5.rightButton,mouse_5.clicked_name,responseprac_feedback.started,responseprac_feedback.stopped,summary2_prac.started,summary2_prac.stopped,mouse_6.x,mouse_6.y,mouse_6.leftButton,mouse_6.midButton,mouse_6.rightButton,mouse_6.clicked_name,duringprac.thisRepN,duringprac.thisTrialN,duringprac.thisN,duringprac.thisIndex,duringprac.ran,begin.started,begin.stopped,key_resp_22.keys,key_resp_22.rt,key_resp_22.duration,Stim1_display.started,Stim1_display.stopped,circle1_ori,circle2_ori,blank.started,blank.stopped,response.started,response.stopped,mouse.x,mouse.y,mouse.leftButton,mouse.midButton,mouse.rightButton,mouse.clicked_name,response_2.started,response_2.stopped,mouse_2.x,mouse_2.y,mouse_2.leftButton,mouse_2.midButton,mouse_2.rightButton,mouse_2.clicked_name,special_trial.started,special_trial.stopped,catch_1.started,catch_1.stopped,mouse_3.x,mouse_3.y,mouse_3.leftButton,mouse_3.midButton,mouse_3.rightButton,catchresponse,catchnumber,response_time_catch,Catch,response_sum.started,response_sum.stopped,mouse_11.x,mouse_11.y,mouse_11.leftButton,mouse_11.midButton,mouse_11.rightButton,main_trial.thisRepN,main_trial.thisTrialN,main_trial.thisN,main_trial.thisIndex,main_trial.ran,Orientationtrialno,xcircle1_ori,xcircle2_ori,flip_presentation_sequence_for_double_pass.started,flip_presentation_sequence_for_double_pass.stopped,double_pass.thisRepN,double_pass.thisTrialN,double_pass.thisN,double_pass.thisIndex,double_pass.ran,goodbye.started,goodbye.stopped,key_resp_3.keys,key_resp_3.rt,key_resp_3.duration
0.003,0.003,657130845d83c7254900dcb2,2023-12-06_23h29.34.068,kallum_motion_pilot,2023.2.3,Win32,179.8561151,657130845d83c7254900dcb2,6560176e4d91f764e2a42c74,65715821591c60cd26d23cf8,,,,,,,,,,,,,,,,,,,,,,,,,,,,,,,,,,,,,,,,,,,,,,,,,,,,,,,,,,,,,,,,,,,,,,,,,,,,,,,,,,,,,,,,,,,,,,,,,,,,,,,,,,,,,,,,,,,,,,,,,,,,,,,,,,,,,,,,,,,,,,,
,,657130845d83c7254900dcb2,2023-12-06_23h29.34.068,kallum_motion_pilot,2023.2.3,Win32,179.8561151,657130845d83c7254900dcb2,6560176e4d91f764e2a42c74,65715821591c60cd26d23cf8,0.043,0.043,0,0,0,108,1,sevenfive,,,,,,,,,,,,,,,,,,,,,,,,,,,,,,,,,,,,,,,,,,,,,,,,,,,,,,,,,,,,,,,,,,,,,,,,,,,,,,,,,,,,,,,,,,,,,,,,,,,,,,,,,,,,,,,,,,,,,,,,,,,,,,,,,,,,,,,
,,657130845d83c7254900dcb2,2023-12-06_23h29.34.068,kallum_motion_pilot,2023.2.3,Win32,179.8561151,657130845d83c7254900dcb2,6560176e4d91f764e2a42c74,65715821591c60cd26d23cf8,0.043,0.043,0,1,1,27,1,twofour,,,,,,,,,,,,,,,,,,,,,,,,,,,,,,,,,,,,,,,,,,,,,,,,,,,,,,,,,,,,,,,,,,,,,,,,,,,,,,,,,,,,,,,,,,,,,,,,,,,,,,,,,,,,,,,,,,,,,,,,,,,,,,,,,,,,,,,
,,657130845d83c7254900dcb2,2023-12-06_23h29.34.068,kallum_motion_pilot,2023.2.3,Win32,179.8561151,657130845d83c7254900dcb2,6560176e4d91f764e2a42c74,65715821591c60cd26d23cf8,0.044,0.044,0,2,2,129,1,fiveseven,,,,,,,,,,,,,,,,,,,,,,,,,,,,,,,,,,,,,,,,,,,,,,,,,,,,,,,,,,,,,,,,,,,,,,,,,,,,,,,,,,,,,,,,,,,,,,,,,,,,,,,,,,,,,,,,,,,,,,,,,,,,,,,,,,,,,,,
,,657130845d83c7254900dcb2,2023-12-06_23h29.34.068,kallum_motion_pilot,2023.2.3,Win32,179.8561151,657130845d83c7254900dcb2,6560176e4d91f764e2a42c74,65715821591c60cd26d23cf8,0.044,0.044,0,3,3,156,1,sevenfive,,,,,,,,,,,,,,,,,,,,,,,,,,,,,,,,,,,,,,,,,,,,,,,,,,,,,,,,,,,,,,,,,,,,,,,,,,,,,,,,,,,,,,,,,,,,,,,,,,,,,,,,,,,,,,,,,,,,,,,,,,,,,,,,,,,,,,,
,,657130845d83c7254900dcb2,2023-12-06_23h29.34.068,kallum_motion_pilot,2023.2.3,Win32,179.8561151,657130845d83c7254900dcb2,6560176e4d91f764e2a42c74,65715821591c60cd26d23cf8,0.044,0.044,0,4,4,124,1,sevenfive,,,,,,,,,,,,,,,,,,,,,,,,,,,,,,,,,,,,,,,,,,,,,,,,,,,,,,,,,,,,,,,,,,,,,,,,,,,,,,,,,,,,,,,,,,,,,,,,,,,,,,,,,,,,,,,,,,,,,,,,,,,,,,,,,,,,,,,
,,657130845d83c7254900dcb2,2023-12-06_23h29.34.068,kallum_motion_pilot,2023.2.3,Win32,179.8561151,657130845d83c7254900dcb2,6560176e4d91f764e2a42c74,65715821591c60cd26d23cf8,0.044,0.045,0,5,5,36,1,threeone,,,,,,,,,,,,,,,,,,,,,,,,,,,,,,,,,,,,,,,,,,,,,,,,,,,,,,,,,,,,,,,,,,,,,,,,,,,,,,,,,,,,,,,,,,,,,,,,,,,,,,,,,,,,,,,,,,,,,,,,,,,,,,,,,,,,,,,
,,657130845d83c7254900dcb2,2023-12-06_23h29.34.068,kallum_motion_pilot,2023.2.3,Win32,179.8561151,657130845d83c7254900dcb2,6560176e4d91f764e2a42c74,65715821591c60cd26d23cf8,0.045,0.045,0,6,6,119,1,eightseven,,,,,,,,,,,,,,,,,,,,,,,,,,,,,,,,,,,,,,,,,,,,,,,,,,,,,,,,,,,,,,,,,,,,,,,,,,,,,,,,,,,,,,,,,,,,,,,,,,,,,,,,,,,,,,,,,,,,,,,,,,,,,,,,,,,,,,,
,,657130845d83c7254900dcb2,2023-12-06_23h29.34.068,kallum_motion_pilot,2023.2.3,Win32,179.8561151,657130845d83c7254900dcb2,6560176e4d91f764e2a42c74,65715821591c60cd26d23cf8,0.045,0.045,0,7,7,88,1,fivesix,,,,,,,,,,,,,,,,,,,,,,,,,,,,,,,,,,,,,,,,,,,,,,,,,,,,,,,,,,,,,,,,,,,,,,,,,,,,,,,,,,,,,,,,,,,,,,,,,,,,,,,,,,,,,,,,,,,,,,,,,,,,,,,,,,,,,,,
,,657130845d83c7254900dcb2,2023-12-06_23h29.34.068,kallum_motion_pilot,2023.2.3,Win32,179.8561151,657130845d83c7254900dcb2,6560176e4d91f764e2a42c74,65715821591c60cd26d23cf8,0.045,0.045,0,8,8,147,1,sixeight,,,,,,,,,,,,,,,,,,,,,,,,,,,,,,,,,,,,,,,,,,,,,,,,,,,,,,,,,,,,,,,,,,,,,,,,,,,,,,,,,,,,,,,,,,,,,,,,,,,,,,,,,,,,,,,,,,,,,,,,,,,,,,,,,,,,,,,
,,657130845d83c7254900dcb2,2023-12-06_23h29.34.068,kallum_motion_pilot,2023.2.3,Win32,179.8561151,657130845d83c7254900dcb2,6560176e4d91f764e2a42c74,65715821591c60cd26d23cf8,0.045,0.045,0,9,9,75,1,twofour,,,,,,,,,,,,,,,,,,,,,,,,,,,,,,,,,,,,,,,,,,,,,,,,,,,,,,,,,,,,,,,,,,,,,,,,,,,,,,,,,,,,,,,,,,,,,,,,,,,,,,,,,,,,,,,,,,,,,,,,,,,,,,,,,,,,,,,
,,657130845d83c7254900dcb2,2023-12-06_23h29.34.068,kallum_motion_pilot,2023.2.3,Win32,179.8561151,657130845d83c7254900dcb2,6560176e4d91f764e2a42c74,65715821591c60cd26d23cf8,0.045,0.045,0,10,10,135,1,eightseven,,,,,,,,,,,,,,,,,,,,,,,,,,,,,,,,,,,,,,,,,,,,,,,,,,,,,,,,,,,,,,,,,,,,,,,,,,,,,,,,,,,,,,,,,,,,,,,,,,,,,,,,,,,,,,,,,,,,,,,,,,,,,,,,,,,,,,,
,,657130845d83c7254900dcb2,2023-12-06_23h29.34.068,kallum_motion_pilot,2023.2.3,Win32,179.8561151,657130845d83c7254900dcb2,6560176e4d91f764e2a42c74,65715821591c60cd26d23cf8,0.048,0.048,0,11,11,84,1,sevenfive,,,,,,,,,,,,,,,,,,,,,,,,,,,,,,,,,,,,,,,,,,,,,,,,,,,,,,,,,,,,,,,,,,,,,,,,,,,,,,,,,,,,,,,,,,,,,,,,,,,,,,,,,,,,,,,,,,,,,,,,,,,,,,,,,,,,,,,
,,657130845d83c7254900dcb2,2023-12-06_23h29.34.068,kallum_motion_pilot,2023.2.3,Win32,179.8561151,657130845d83c7254900dcb2,6560176e4d91f764e2a42c74,65715821591c60cd26d23cf8,0.048,0.048,0,12,12,149,1,seveneight,,,,,,,,,,,,,,,,,,,,,,,,,,,,,,,,,,,,,,,,,,,,,,,,,,,,,,,,,,,,,,,,,,,,,,,,,,,,,,,,,,,,,,,,,,,,,,,,,,,,,,,,,,,,,,,,,,,,,,,,,,,,,,,,,,,,,,,
,,657130845d83c7254900dcb2,2023-12-06_23h29.34.068,kallum_motion_pilot,2023.2.3,Win32,179.8561151,657130845d83c7254900dcb2,6560176e4d91f764e2a42c74,65715821591c60cd26d23cf8,0.048,0.048,0,13,13,58,1,twoone,,,,,,,,,,,,,,,,,,,,,,,,,,,,,,,,,,,,,,,,,,,,,,,,,,,,,,,,,,,,,,,,,,,,,,,,,,,,,,,,,,,,,,,,,,,,,,,,,,,,,,,,,,,,,,,,,,,,,,,,,,,,,,,,,,,,,,,
,,657130845d83c7254900dcb2,2023-12-06_23h29.34.068,kallum_motion_pilot,2023.2.3,Win32,179.8561151,657130845d83c7254900dcb2,6560176e4d91f764e2a42c74,65715821591c60cd26d23cf8,0.048,0.048,0,14,14,11,1,twofour,,,,,,,,,,,,,,,,,,,,,,,,,,,,,,,,,,,,,,,,,,,,,,,,,,,,,,,,,,,,,,,,,,,,,,,,,,,,,,,,,,,,,,,,,,,,,,,,,,,,,,,,,,,,,,,,,,,,,,,,,,,,,,,,,,,,,,,
,,657130845d83c7254900dcb2,2023-12-06_23h29.34.068,kallum_motion_pilot,2023.2.3,Win32,179.8561151,657130845d83c7254900dcb2,6560176e4d91f764e2a42c74,65715821591c60cd26d23cf8,0.055,0.055,0,15,15,159,1,eightseven,,,,,,,,,,,,,,,,,,,,,,,,,,,,,,,,,,,,,,,,,,,,,,,,,,,,,,,,,,,,,,,,,,,,,,,,,,,,,,,,,,,,,,,,,,,,,,,,,,,,,,,,,,,,,,,,,,,,,,,,,,,,,,,,,,,,,,,
,,657130845d83c7254900dcb2,2023-12-06_23h29.34.068,kallum_motion_pilot,2023.2.3,Win32,179.8561151,657130845d83c7254900dcb2,6560176e4d91f764e2a42c74,65715821591c60cd26d23cf8,0.056,0.056,0,16,16,5,1,threefour,,,,,,,,,,,,,,,,,,,,,,,,,,,,,,,,,,,,,,,,,,,,,,,,,,,,,,,,,,,,,,,,,,,,,,,,,,,,,,,,,,,,,,,,,,,,,,,,,,,,,,,,,,,,,,,,,,,,,,,,,,,,,,,,,,,,,,,
,,657130845d83c7254900dcb2,2023-12-06_23h29.34.068,kallum_motion_pilot,2023.2.3,Win32,179.8561151,657130845d83c7254900dcb2,6560176e4d91f764e2a42c74,65715821591c60cd26d23cf8,0.056,0.056,0,17,17,94,1,eightsix,,,,,,,,,,,,,,,,,,,,,,,,,,,,,,,,,,,,,,,,,,,,,,,,,,,,,,,,,,,,,,,,,,,,,,,,,,,,,,,,,,,,,,,,,,,,,,,,,,,,,,,,,,,,,,,,,,,,,,,,,,,,,,,,,,,,,,,
,,657130845d83c7254900dcb2,2023-12-06_23h29.34.068,kallum_motion_pilot,2023.2.3,Win32,179.8561151,657130845d83c7254900dcb2,6560176e4d91f764e2a42c74,65715821591c60cd26d23cf8,0.056,0.056,0,18,18,152,1,fivesix,,,,,,,,,,,,,,,,,,,,,,,,,,,,,,,,,,,,,,,,,,,,,,,,,,,,,,,,,,,,,,,,,,,,,,,,,,,,,,,,,,,,,,,,,,,,,,,,,,,,,,,,,,,,,,,,,,,,,,,,,,,,,,,,,,,,,,,
,,657130845d83c7254900dcb2,2023-12-06_23h29.34.068,kallum_motion_pilot,2023.2.3,Win32,179.8561151,657130845d83c7254900dcb2,6560176e4d91f764e2a42c74,65715821591c60cd26d23cf8,0.057,0.057,0,19,19,60,1,threeone,,,,,,,,,,,,,,,,,,,,,,,,,,,,,,,,,,,,,,,,,,,,,,,,,,,,,,,,,,,,,,,,,,,,,,,,,,,,,,,,,,,,,,,,,,,,,,,,,,,,,,,,,,,,,,,,,,,,,,,,,,,,,,,,,,,,,,,
,,657130845d83c7254900dcb2,2023-12-06_23h29.34.068,kallum_motion_pilot,2023.2.3,Win32,179.8561151,657130845d83c7254900dcb2,6560176e4d91f764e2a42c74,65715821591c60cd26d23cf8,0.057,0.057,0,20,20,153,1,fiveseven,,,,,,,,,,,,,,,,,,,,,,,,,,,,,,,,,,,,,,,,,,,,,,,,,,,,,,,,,,,,,,,,,,,,,,,,,,,,,,,,,,,,,,,,,,,,,,,,,,,,,,,,,,,,,,,,,,,,,,,,,,,,,,,,,,,,,,,
,,657130845d83c7254900dcb2,2023-12-06_23h29.34.068,kallum_motion_pilot,2023.2.3,Win32,179.8561151,657130845d83c7254900dcb2,6560176e4d91f764e2a42c74,65715821591c60cd26d23cf8,0.057,0.057,0,21,21,89,1,fiveseven,,,,,,,,,,,,,,,,,,,,,,,,,,,,,,,,,,,,,,,,,,,,,,,,,,,,,,,,,,,,,,,,,,,,,,,,,,,,,,,,,,,,,,,,,,,,,,,,,,,,,,,,,,,,,,,,,,,,,,,,,,,,,,,,,,,,,,,
,,657130845d83c7254900dcb2,2023-12-06_23h29.34.068,kallum_motion_pilot,2023.2.3,Win32,179.8561151,657130845d83c7254900dcb2,6560176e4d91f764e2a42c74,65715821591c60cd26d23cf8,0.058,0.058,0,22,22,86,1,eightsix,,,,,,,,,,,,,,,,,,,,,,,,,,,,,,,,,,,,,,,,,,,,,,,,,,,,,,,,,,,,,,,,,,,,,,,,,,,,,,,,,,,,,,,,,,,,,,,,,,,,,,,,,,,,,,,,,,,,,,,,,,,,,,,,,,,,,,,
,,657130845d83c7254900dcb2,2023-12-06_23h29.34.068,kallum_motion_pilot,2023.2.3,Win32,179.8561151,657130845d83c7254900dcb2,6560176e4d91f764e2a42c74,65715821591c60cd26d23cf8,0.058,0.058,0,23,23,145,1,fiveseven,,,,,,,,,,,,,,,,,,,,,,,,,,,,,,,,,,,,,,,,,,,,,,,,,,,,,,,,,,,,,,,,,,,,,,,,,,,,,,,,,,,,,,,,,,,,,,,,,,,,,,,,,,,,,,,,,,,,,,,,,,,,,,,,,,,,,,,
,,657130845d83c7254900dcb2,2023-12-06_23h29.34.068,kallum_motion_pilot,2023.2.3,Win32,179.8561151,657130845d83c7254900dcb2,6560176e4d91f764e2a42c74,65715821591c60cd26d23cf8,0.059,0.059,0,24,24,63,1,fourthree,,,,,,,,,,,,,,,,,,,,,,,,,,,,,,,,,,,,,,,,,,,,,,,,,,,,,,,,,,,,,,,,,,,,,,,,,,,,,,,,,,,,,,,,,,,,,,,,,,,,,,,,,,,,,,,,,,,,,,,,,,,,,,,,,,,,,,,
,,657130845d83c7254900dcb2,2023-12-06_23h29.34.068,kallum_motion_pilot,2023.2.3,Win32,179.8561151,657130845d83c7254900dcb2,6560176e4d91f764e2a42c74,65715821591c60cd26d23cf8,0.059,0.059,0,25,25,106,1,sixfive,,,,,,,,,,,,,,,,,,,,,,,,,,,,,,,,,,,,,,,,,,,,,,,,,,,,,,,,,,,,,,,,,,,,,,,,,,,,,,,,,,,,,,,,,,,,,,,,,,,,,,,,,,,,,,,,,,,,,,,,,,,,,,,,,,,,,,,
,,657130845d83c7254900dcb2,2023-12-06_23h29.34.068,kallum_motion_pilot,2023.2.3,Win32,179.8561151,657130845d83c7254900dcb2,6560176e4d91f764e2a42c74,65715821591c60cd26d23cf8,0.059,0.059,0,26,26,107,1,sixeight,,,,,,,,,,,,,,,,,,,,,,,,,,,,,,,,,,,,,,,,,,,,,,,,,,,,,,,,,,,,,,,,,,,,,,,,,,,,,,,,,,,,,,,,,,,,,,,,,,,,,,,,,,,,,,,,,,,,,,,,,,,,,,,,,,,,,,,
,,657130845d83c7254900dcb2,2023-12-06_23h29.34.068,kallum_motion_pilot,2023.2.3,Win32,179.8561151,657130845d83c7254900dcb2,6560176e4d91f764e2a42c74,65715821591c60cd26d23cf8,0.059,0.059,0,27,27,157,1,seveneight,,,,,,,,,,,,,,,,,,,,,,,,,,,,,,,,,,,,,,,,,,,,,,,,,,,,,,,,,,,,,,,,,,,,,,,,,,,,,,,,,,,,,,,,,,,,,,,,,,,,,,,,,,,,,,,,,,,,,,,,,,,,,,,,,,,,,,,
,,657130845d83c7254900dcb2,2023-12-06_23h29.34.068,kallum_motion_pilot,2023.2.3,Win32,179.8561151,657130845d83c7254900dcb2,6560176e4d91f764e2a42c74,65715821591c60cd26d23cf8,0.059,0.059,0,28,28,72,1,onetwo,,,,,,,,,,,,,,,,,,,,,,,,,,,,,,,,,,,,,,,,,,,,,,,,,,,,,,,,,,,,,,,,,,,,,,,,,,,,,,,,,,,,,,,,,,,,,,,,,,,,,,,,,,,,,,,,,,,,,,,,,,,,,,,,,,,,,,,
,,657130845d83c7254900dcb2,2023-12-06_23h29.34.068,kallum_motion_pilot,2023.2.3,Win32,179.8561151,657130845d83c7254900dcb2,6560176e4d91f764e2a42c74,65715821591c60cd26d23cf8,0.059,0.059,0,29,29,81,1,fiveseven,,,,,,,,,,,,,,,,,,,,,,,,,,,,,,,,,,,,,,,,,,,,,,,,,,,,,,,,,,,,,,,,,,,,,,,,,,,,,,,,,,,,,,,,,,,,,,,,,,,,,,,,,,,,,,,,,,,,,,,,,,,,,,,,,,,,,,,
,,657130845d83c7254900dcb2,2023-12-06_23h29.34.068,kallum_motion_pilot,2023.2.3,Win32,179.8561151,657130845d83c7254900dcb2,6560176e4d91f764e2a42c74,65715821591c60cd26d23cf8,0.059,0.059,0,30,30,69,1,threefour,,,,,,,,,,,,,,,,,,,,,,,,,,,,,,,,,,,,,,,,,,,,,,,,,,,,,,,,,,,,,,,,,,,,,,,,,,,,,,,,,,,,,,,,,,,,,,,,,,,,,,,,,,,,,,,,,,,,,,,,,,,,,,,,,,,,,,,
,,657130845d83c7254900dcb2,2023-12-06_23h29.34.068,kallum_motion_pilot,2023.2.3,Win32,179.8561151,657130845d83c7254900dcb2,6560176e4d91f764e2a42c74,65715821591c60cd26d23cf8,0.06,0.06,0,31,31,131,1,sixeight,,,,,,,,,,,,,,,,,,,,,,,,,,,,,,,,,,,,,,,,,,,,,,,,,,,,,,,,,,,,,,,,,,,,,,,,,,,,,,,,,,,,,,,,,,,,,,,,,,,,,,,,,,,,,,,,,,,,,,,,,,,,,,,,,,,,,,,
,,657130845d83c7254900dcb2,2023-12-06_23h29.34.068,kallum_motion_pilot,2023.2.3,Win32,179.8561151,657130845d83c7254900dcb2,6560176e4d91f764e2a42c74,65715821591c60cd26d23cf8,0.06,0.06,0,32,32,78,1,fourtwo,,,,,,,,,,,,,,,,,,,,,,,,,,,,,,,,,,,,,,,,,,,,,,,,,,,,,,,,,,,,,,,,,,,,,,,,,,,,,,,,,,,,,,,,,,,,,,,,,,,,,,,,,,,,,,,,,,,,,,,,,,,,,,,,,,,,,,,
,,657130845d83c7254900dcb2,2023-12-06_23h29.34.068,kallum_motion_pilot,2023.2.3,Win32,179.8561151,657130845d83c7254900dcb2,6560176e4d91f764e2a42c74,65715821591c60cd26d23cf8,0.06,0.06,0,33,33,20,1,threeone,,,,,,,,,,,,,,,,,,,,,,,,,,,,,,,,,,,,,,,,,,,,,,,,,,,,,,,,,,,,,,,,,,,,,,,,,,,,,,,,,,,,,,,,,,,,,,,,,,,,,,,,,,,,,,,,,,,,,,,,,,,,,,,,,,,,,,,
,,657130845d83c7254900dcb2,2023-12-06_23h29.34.068,kallum_motion_pilot,2023.2.3,Win32,179.8561151,657130845d83c7254900dcb2,6560176e4d91f764e2a42c74,65715821591c60cd26d23cf8,0.061,0.061,0,34,34,117,1,seveneight,,,,,,,,,,,,,,,,,,,,,,,,,,,,,,,,,,,,,,,,,,,,,,,,,,,,,,,,,,,,,,,,,,,,,,,,,,,,,,,,,,,,,,,,,,,,,,,,,,,,,,,,,,,,,,,,,,,,,,,,,,,,,,,,,,,,,,,
,,657130845d83c7254900dcb2,2023-12-06_23h29.34.068,kallum_motion_pilot,2023.2.3,Win32,179.8561151,657130845d83c7254900dcb2,6560176e4d91f764e2a42c74,65715821591c60cd26d23cf8,0.061,0.061,0,35,35,44,1,threeone,,,,,,,,,,,,,,,,,,,,,,,,,,,,,,,,,,,,,,,,,,,,,,,,,,,,,,,,,,,,,,,,,,,,,,,,,,,,,,,,,,,,,,,,,,,,,,,,,,,,,,,,,,,,,,,,,,,,,,,,,,,,,,,,,,,,,,,
,,657130845d83c7254900dcb2,2023-12-06_23h29.34.068,kallum_motion_pilot,2023.2.3,Win32,179.8561151,657130845d83c7254900dcb2,6560176e4d91f764e2a42c74,65715821591c60cd26d23cf8,0.061,0.061,0,36,36,125,1,seveneight,,,,,,,,,,,,,,,,,,,,,,,,,,,,,,,,,,,,,,,,,,,,,,,,,,,,,,,,,,,,,,,,,,,,,,,,,,,,,,,,,,,,,,,,,,,,,,,,,,,,,,,,,,,,,,,,,,,,,,,,,,,,,,,,,,,,,,,
,,657130845d83c7254900dcb2,2023-12-06_23h29.34.068,kallum_motion_pilot,2023.2.3,Win32,179.8561151,657130845d83c7254900dcb2,6560176e4d91f764e2a42c74,65715821591c60cd26d23cf8,0.061,0.061,0,37,37,16,1,onetwo,,,,,,,,,,,,,,,,,,,,,,,,,,,,,,,,,,,,,,,,,,,,,,,,,,,,,,,,,,,,,,,,,,,,,,,,,,,,,,,,,,,,,,,,,,,,,,,,,,,,,,,,,,,,,,,,,,,,,,,,,,,,,,,,,,,,,,,
,,657130845d83c7254900dcb2,2023-12-06_23h29.34.068,kallum_motion_pilot,2023.2.3,Win32,179.8561151,657130845d83c7254900dcb2,6560176e4d91f764e2a42c74,65715821591c60cd26d23cf8,0.061,0.061,0,38,38,38,1,fourtwo,,,,,,,,,,,,,,,,,,,,,,,,,,,,,,,,,,,,,,,,,,,,,,,,,,,,,,,,,,,,,,,,,,,,,,,,,,,,,,,,,,,,,,,,,,,,,,,,,,,,,,,,,,,,,,,,,,,,,,,,,,,,,,,,,,,,,,,
,,657130845d83c7254900dcb2,2023-12-06_23h29.34.068,kallum_motion_pilot,2023.2.3,Win32,179.8561151,657130845d83c7254900dcb2,6560176e4d91f764e2a42c74,65715821591c60cd26d23cf8,0.061,0.061,0,39,39,10,1,twoone,,,,,,,,,,,,,,,,,,,,,,,,,,,,,,,,,,,,,,,,,,,,,,,,,,,,,,,,,,,,,,,,,,,,,,,,,,,,,,,,,,,,,,,,,,,,,,,,,,,,,,,,,,,,,,,,,,,,,,,,,,,,,,,,,,,,,,,
,,657130845d83c7254900dcb2,2023-12-06_23h29.34.068,kallum_motion_pilot,2023.2.3,Win32,179.8561151,657130845d83c7254900dcb2,6560176e4d91f764e2a42c74,65715821591c60cd26d23cf8,0.061,0.061,0,40,40,93,1,seveneight,,,,,,,,,,,,,,,,,,,,,,,,,,,,,,,,,,,,,,,,,,,,,,,,,,,,,,,,,,,,,,,,,,,,,,,,,,,,,,,,,,,,,,,,,,,,,,,,,,,,,,,,,,,,,,,,,,,,,,,,,,,,,,,,,,,,,,,
,,657130845d83c7254900dcb2,2023-12-06_23h29.34.068,kallum_motion_pilot,2023.2.3,Win32,179.8561151,657130845d83c7254900dcb2,6560176e4d91f764e2a42c74,65715821591c60cd26d23cf8,0.061,0.061,0,41,41,54,1,fourtwo,,,,,,,,,,,,,,,,,,,,,,,,,,,,,,,,,,,,,,,,,,,,,,,,,,,,,,,,,,,,,,,,,,,,,,,,,,,,,,,,,,,,,,,,,,,,,,,,,,,,,,,,,,,,,,,,,,,,,,,,,,,,,,,,,,,,,,,
,,657130845d83c7254900dcb2,2023-12-06_23h29.34.068,kallum_motion_pilot,2023.2.3,Win32,179.8561151,657130845d83c7254900dcb2,6560176e4d91f764e2a42c74,65715821591c60cd26d23cf8,0.061,0.061,0,42,42,19,1,twofour,,,,,,,,,,,,,,,,,,,,,,,,,,,,,,,,,,,,,,,,,,,,,,,,,,,,,,,,,,,,,,,,,,,,,,,,,,,,,,,,,,,,,,,,,,,,,,,,,,,,,,,,,,,,,,,,,,,,,,,,,,,,,,,,,,,,,,,
,,657130845d83c7254900dcb2,2023-12-06_23h29.34.068,kallum_motion_pilot,2023.2.3,Win32,179.8561151,657130845d83c7254900dcb2,6560176e4d91f764e2a42c74,65715821591c60cd26d23cf8,0.062,0.062,0,43,43,24,1,onetwo,,,,,,,,,,,,,,,,,,,,,,,,,,,,,,,,,,,,,,,,,,,,,,,,,,,,,,,,,,,,,,,,,,,,,,,,,,,,,,,,,,,,,,,,,,,,,,,,,,,,,,,,,,,,,,,,,,,,,,,,,,,,,,,,,,,,,,,
,,657130845d83c7254900dcb2,2023-12-06_23h29.34.068,kallum_motion_pilot,2023.2.3,Win32,179.8561151,657130845d83c7254900dcb2,6560176e4d91f764e2a42c74,65715821591c60cd26d23cf8,0.062,0.062,0,44,44,104,1,fivesix,,,,,,,,,,,,,,,,,,,,,,,,,,,,,,,,,,,,,,,,,,,,,,,,,,,,,,,,,,,,,,,,,,,,,,,,,,,,,,,,,,,,,,,,,,,,,,,,,,,,,,,,,,,,,,,,,,,,,,,,,,,,,,,,,,,,,,,
,,657130845d83c7254900dcb2,2023-12-06_23h29.34.068,kallum_motion_pilot,2023.2.3,Win32,179.8561151,657130845d83c7254900dcb2,6560176e4d91f764e2a42c74,65715821591c60cd26d23cf8,0.062,0.062,0,45,45,100,1,sevenfive,,,,,,,,,,,,,,,,,,,,,,,,,,,,,,,,,,,,,,,,,,,,,,,,,,,,,,,,,,,,,,,,,,,,,,,,,,,,,,,,,,,,,,,,,,,,,,,,,,,,,,,,,,,,,,,,,,,,,,,,,,,,,,,,,,,,,,,
,,657130845d83c7254900dcb2,2023-12-06_23h29.34.068,kallum_motion_pilot,2023.2.3,Win32,179.8561151,657130845d83c7254900dcb2,6560176e4d91f764e2a42c74,65715821591c60cd26d23cf8,0.062,0.062,0,46,46,50,1,twoone,,,,,,,,,,,,,,,,,,,,,,,,,,,,,,,,,,,,,,,,,,,,,,,,,,,,,,,,,,,,,,,,,,,,,,,,,,,,,,,,,,,,,,,,,,,,,,,,,,,,,,,,,,,,,,,,,,,,,,,,,,,,,,,,,,,,,,,
,,657130845d83c7254900dcb2,2023-12-06_23h29.34.068,kallum_motion_pilot,2023.2.3,Win32,179.8561151,657130845d83c7254900dcb2,6560176e4d91f764e2a42c74,65715821591c60cd26d23cf8,0.062,0.062,0,47,47,8,1,onetwo,,,,,,,,,,,,,,,,,,,,,,,,,,,,,,,,,,,,,,,,,,,,,,,,,,,,,,,,,,,,,,,,,,,,,,,,,,,,,,,,,,,,,,,,,,,,,,,,,,,,,,,,,,,,,,,,,,,,,,,,,,,,,,,,,,,,,,,
,,657130845d83c7254900dcb2,2023-12-06_23h29.34.068,kallum_motion_pilot,2023.2.3,Win32,179.8561151,657130845d83c7254900dcb2,6560176e4d91f764e2a42c74,65715821591c60cd26d23cf8,0.062,0.062,0,48,48,67,1,twofour,,,,,,,,,,,,,,,,,,,,,,,,,,,,,,,,,,,,,,,,,,,,,,,,,,,,,,,,,,,,,,,,,,,,,,,,,,,,,,,,,,,,,,,,,,,,,,,,,,,,,,,,,,,,,,,,,,,,,,,,,,,,,,,,,,,,,,,
,,657130845d83c7254900dcb2,2023-12-06_23h29.34.068,kallum_motion_pilot,2023.2.3,Win32,179.8561151,657130845d83c7254900dcb2,6560176e4d91f764e2a42c74,65715821591c60cd26d23cf8,0.063,0.063,0,49,49,105,1,fiveseven,,,,,,,,,,,,,,,,,,,,,,,,,,,,,,,,,,,,,,,,,,,,,,,,,,,,,,,,,,,,,,,,,,,,,,,,,,,,,,,,,,,,,,,,,,,,,,,,,,,,,,,,,,,,,,,,,,,,,,,,,,,,,,,,,,,,,,,
,,657130845d83c7254900dcb2,2023-12-06_23h29.34.068,kallum_motion_pilot,2023.2.3,Win32,179.8561151,657130845d83c7254900dcb2,6560176e4d91f764e2a42c74,65715821591c60cd26d23cf8,0.063,0.063,0,50,50,142,1,eightsix,,,,,,,,,,,,,,,,,,,,,,,,,,,,,,,,,,,,,,,,,,,,,,,,,,,,,,,,,,,,,,,,,,,,,,,,,,,,,,,,,,,,,,,,,,,,,,,,,,,,,,,,,,,,,,,,,,,,,,,,,,,,,,,,,,,,,,,
,,657130845d83c7254900dcb2,2023-12-06_23h29.34.068,kallum_motion_pilot,2023.2.3,Win32,179.8561151,657130845d83c7254900dcb2,6560176e4d91f764e2a42c74,65715821591c60cd26d23cf8,0.063,0.063,0,51,51,98,1,sixfive,,,,,,,,,,,,,,,,,,,,,,,,,,,,,,,,,,,,,,,,,,,,,,,,,,,,,,,,,,,,,,,,,,,,,,,,,,,,,,,,,,,,,,,,,,,,,,,,,,,,,,,,,,,,,,,,,,,,,,,,,,,,,,,,,,,,,,,
,,657130845d83c7254900dcb2,2023-12-06_23h29.34.068,kallum_motion_pilot,2023.2.3,Win32,179.8561151,657130845d83c7254900dcb2,6560176e4d91f764e2a42c74,65715821591c60cd26d23cf8,0.063,0.063,0,52,52,73,1,onethree,,,,,,,,,,,,,,,,,,,,,,,,,,,,,,,,,,,,,,,,,,,,,,,,,,,,,,,,,,,,,,,,,,,,,,,,,,,,,,,,,,,,,,,,,,,,,,,,,,,,,,,,,,,,,,,,,,,,,,,,,,,,,,,,,,,,,,,
,,657130845d83c7254900dcb2,2023-12-06_23h29.34.068,kallum_motion_pilot,2023.2.3,Win32,179.8561151,657130845d83c7254900dcb2,6560176e4d91f764e2a42c74,65715821591c60cd26d23cf8,0.063,0.063,0,53,53,48,1,onetwo,,,,,,,,,,,,,,,,,,,,,,,,,,,,,,,,,,,,,,,,,,,,,,,,,,,,,,,,,,,,,,,,,,,,,,,,,,,,,,,,,,,,,,,,,,,,,,,,,,,,,,,,,,,,,,,,,,,,,,,,,,,,,,,,,,,,,,,
,,657130845d83c7254900dcb2,2023-12-06_23h29.34.068,kallum_motion_pilot,2023.2.3,Win32,179.8561151,657130845d83c7254900dcb2,6560176e4d91f764e2a42c74,65715821591c60cd26d23cf8,0.063,0.063,0,54,54,53,1,threefour,,,,,,,,,,,,,,,,,,,,,,,,,,,,,,,,,,,,,,,,,,,,,,,,,,,,,,,,,,,,,,,,,,,,,,,,,,,,,,,,,,,,,,,,,,,,,,,,,,,,,,,,,,,,,,,,,,,,,,,,,,,,,,,,,,,,,,,
,,657130845d83c7254900dcb2,2023-12-06_23h29.34.068,kallum_motion_pilot,2023.2.3,Win32,179.8561151,657130845d83c7254900dcb2,6560176e4d91f764e2a42c74,65715821591c60cd26d23cf8,0.064,0.064,0,55,55,28,1,threeone,,,,,,,,,,,,,,,,,,,,,,,,,,,,,,,,,,,,,,,,,,,,,,,,,,,,,,,,,,,,,,,,,,,,,,,,,,,,,,,,,,,,,,,,,,,,,,,,,,,,,,,,,,,,,,,,,,,,,,,,,,,,,,,,,,,,,,,
,,657130845d83c7254900dcb2,2023-12-06_23h29.34.068,kallum_motion_pilot,2023.2.3,Win32,179.8561151,657130845d83c7254900dcb2,6560176e4d91f764e2a42c74,65715821591c60cd26d23cf8,0.064,0.064,0,56,56,103,1,eightseven,,,,,,,,,,,,,,,,,,,,,,,,,,,,,,,,,,,,,,,,,,,,,,,,,,,,,,,,,,,,,,,,,,,,,,,,,,,,,,,,,,,,,,,,,,,,,,,,,,,,,,,,,,,,,,,,,,,,,,,,,,,,,,,,,,,,,,,
,,657130845d83c7254900dcb2,2023-12-06_23h29.34.068,kallum_motion_pilot,2023.2.3,Win32,179.8561151,657130845d83c7254900dcb2,6560176e4d91f764e2a42c74,65715821591c60cd26d23cf8,0.064,0.064,0,57,57,41,1,onethree,,,,,,,,,,,,,,,,,,,,,,,,,,,,,,,,,,,,,,,,,,,,,,,,,,,,,,,,,,,,,,,,,,,,,,,,,,,,,,,,,,,,,,,,,,,,,,,,,,,,,,,,,,,,,,,,,,,,,,,,,,,,,,,,,,,,,,,
,,657130845d83c7254900dcb2,2023-12-06_23h29.34.068,kallum_motion_pilot,2023.2.3,Win32,179.8561151,657130845d83c7254900dcb2,6560176e4d91f764e2a42c74,65715821591c60cd26d23cf8,0.064,0.064,0,58,58,123,1,sixeight,,,,,,,,,,,,,,,,,,,,,,,,,,,,,,,,,,,,,,,,,,,,,,,,,,,,,,,,,,,,,,,,,,,,,,,,,,,,,,,,,,,,,,,,,,,,,,,,,,,,,,,,,,,,,,,,,,,,,,,,,,,,,,,,,,,,,,,
,,657130845d83c7254900dcb2,2023-12-06_23h29.34.068,kallum_motion_pilot,2023.2.3,Win32,179.8561151,657130845d83c7254900dcb2,6560176e4d91f764e2a42c74,65715821591c60cd26d23cf8,0.064,0.064,0,59,59,99,1,sixeight,,,,,,,,,,,,,,,,,,,,,,,,,,,,,,,,,,,,,,,,,,,,,,,,,,,,,,,,,,,,,,,,,,,,,,,,,,,,,,,,,,,,,,,,,,,,,,,,,,,,,,,,,,,,,,,,,,,,,,,,,,,,,,,,,,,,,,,
,,657130845d83c7254900dcb2,2023-12-06_23h29.34.068,kallum_motion_pilot,2023.2.3,Win32,179.8561151,657130845d83c7254900dcb2,6560176e4d91f764e2a42c74,65715821591c60cd26d23cf8,0.064,0.065,0,60,60,82,1,sixfive,,,,,,,,,,,,,,,,,,,,,,,,,,,,,,,,,,,,,,,,,,,,,,,,,,,,,,,,,,,,,,,,,,,,,,,,,,,,,,,,,,,,,,,,,,,,,,,,,,,,,,,,,,,,,,,,,,,,,,,,,,,,,,,,,,,,,,,
,,657130845d83c7254900dcb2,2023-12-06_23h29.34.068,kallum_motion_pilot,2023.2.3,Win32,179.8561151,657130845d83c7254900dcb2,6560176e4d91f764e2a42c74,65715821591c60cd26d23cf8,0.065,0.066,0,61,61,37,1,threefour,,,,,,,,,,,,,,,,,,,,,,,,,,,,,,,,,,,,,,,,,,,,,,,,,,,,,,,,,,,,,,,,,,,,,,,,,,,,,,,,,,,,,,,,,,,,,,,,,,,,,,,,,,,,,,,,,,,,,,,,,,,,,,,,,,,,,,,
,,657130845d83c7254900dcb2,2023-12-06_23h29.34.068,kallum_motion_pilot,2023.2.3,Win32,179.8561151,657130845d83c7254900dcb2,6560176e4d91f764e2a42c74,65715821591c60cd26d23cf8,0.066,0.066,0,62,62,114,1,sixfive,,,,,,,,,,,,,,,,,,,,,,,,,,,,,,,,,,,,,,,,,,,,,,,,,,,,,,,,,,,,,,,,,,,,,,,,,,,,,,,,,,,,,,,,,,,,,,,,,,,,,,,,,,,,,,,,,,,,,,,,,,,,,,,,,,,,,,,
,,657130845d83c7254900dcb2,2023-12-06_23h29.34.068,kallum_motion_pilot,2023.2.3,Win32,179.8561151,657130845d83c7254900dcb2,6560176e4d91f764e2a42c74,65715821591c60cd26d23cf8,0.066,0.066,0,63,63,161,1,fiveseven,,,,,,,,,,,,,,,,,,,,,,,,,,,,,,,,,,,,,,,,,,,,,,,,,,,,,,,,,,,,,,,,,,,,,,,,,,,,,,,,,,,,,,,,,,,,,,,,,,,,,,,,,,,,,,,,,,,,,,,,,,,,,,,,,,,,,,,
,,657130845d83c7254900dcb2,2023-12-06_23h29.34.068,kallum_motion_pilot,2023.2.3,Win32,179.8561151,657130845d83c7254900dcb2,6560176e4d91f764e2a42c74,65715821591c60cd26d23cf8,0.066,0.066,0,64,64,14,1,fourtwo,,,,,,,,,,,,,,,,,,,,,,,,,,,,,,,,,,,,,,,,,,,,,,,,,,,,,,,,,,,,,,,,,,,,,,,,,,,,,,,,,,,,,,,,,,,,,,,,,,,,,,,,,,,,,,,,,,,,,,,,,,,,,,,,,,,,,,,
,,657130845d83c7254900dcb2,2023-12-06_23h29.34.068,kallum_motion_pilot,2023.2.3,Win32,179.8561151,657130845d83c7254900dcb2,6560176e4d91f764e2a42c74,65715821591c60cd26d23cf8,0.066,0.066,0,65,65,137,1,fiveseven,,,,,,,,,,,,,,,,,,,,,,,,,,,,,,,,,,,,,,,,,,,,,,,,,,,,,,,,,,,,,,,,,,,,,,,,,,,,,,,,,,,,,,,,,,,,,,,,,,,,,,,,,,,,,,,,,,,,,,,,,,,,,,,,,,,,,,,
,,657130845d83c7254900dcb2,2023-12-06_23h29.34.068,kallum_motion_pilot,2023.2.3,Win32,179.8561151,657130845d83c7254900dcb2,6560176e4d91f764e2a42c74,65715821591c60cd26d23cf8,0.067,0.067,0,66,66,7,1,fourthree,,,,,,,,,,,,,,,,,,,,,,,,,,,,,,,,,,,,,,,,,,,,,,,,,,,,,,,,,,,,,,,,,,,,,,,,,,,,,,,,,,,,,,,,,,,,,,,,,,,,,,,,,,,,,,,,,,,,,,,,,,,,,,,,,,,,,,,
,,657130845d83c7254900dcb2,2023-12-06_23h29.34.068,kallum_motion_pilot,2023.2.3,Win32,179.8561151,657130845d83c7254900dcb2,6560176e4d91f764e2a42c74,65715821591c60cd26d23cf8,0.067,0.067,0,67,67,25,1,onethree,,,,,,,,,,,,,,,,,,,,,,,,,,,,,,,,,,,,,,,,,,,,,,,,,,,,,,,,,,,,,,,,,,,,,,,,,,,,,,,,,,,,,,,,,,,,,,,,,,,,,,,,,,,,,,,,,,,,,,,,,,,,,,,,,,,,,,,
,,657130845d83c7254900dcb2,2023-12-06_23h29.34.068,kallum_motion_pilot,2023.2.3,Win32,179.8561151,657130845d83c7254900dcb2,6560176e4d91f764e2a42c74,65715821591c60cd26d23cf8,0.067,0.067,0,68,68,77,1,threefour,,,,,,,,,,,,,,,,,,,,,,,,,,,,,,,,,,,,,,,,,,,,,,,,,,,,,,,,,,,,,,,,,,,,,,,,,,,,,,,,,,,,,,,,,,,,,,,,,,,,,,,,,,,,,,,,,,,,,,,,,,,,,,,,,,,,,,,
,,657130845d83c7254900dcb2,2023-12-06_23h29.34.068,kallum_motion_pilot,2023.2.3,Win32,179.8561151,657130845d83c7254900dcb2,6560176e4d91f764e2a42c74,65715821591c60cd26d23cf8,0.067,0.067,0,69,69,96,1,fivesix,,,,,,,,,,,,,,,,,,,,,,,,,,,,,,,,,,,,,,,,,,,,,,,,,,,,,,,,,,,,,,,,,,,,,,,,,,,,,,,,,,,,,,,,,,,,,,,,,,,,,,,,,,,,,,,,,,,,,,,,,,,,,,,,,,,,,,,
,,657130845d83c7254900dcb2,2023-12-06_23h29.34.068,kallum_motion_pilot,2023.2.3,Win32,179.8561151,657130845d83c7254900dcb2,6560176e4d91f764e2a42c74,65715821591c60cd26d23cf8,0.067,0.067,0,70,70,9,1,onethree,,,,,,,,,,,,,,,,,,,,,,,,,,,,,,,,,,,,,,,,,,,,,,,,,,,,,,,,,,,,,,,,,,,,,,,,,,,,,,,,,,,,,,,,,,,,,,,,,,,,,,,,,,,,,,,,,,,,,,,,,,,,,,,,,,,,,,,
,,657130845d83c7254900dcb2,2023-12-06_23h29.34.068,kallum_motion_pilot,2023.2.3,Win32,179.8561151,657130845d83c7254900dcb2,6560176e4d91f764e2a42c74,65715821591c60cd26d23cf8,0.067,0.067,0,71,71,32,1,onetwo,,,,,,,,,,,,,,,,,,,,,,,,,,,,,,,,,,,,,,,,,,,,,,,,,,,,,,,,,,,,,,,,,,,,,,,,,,,,,,,,,,,,,,,,,,,,,,,,,,,,,,,,,,,,,,,,,,,,,,,,,,,,,,,,,,,,,,,
,,657130845d83c7254900dcb2,2023-12-06_23h29.34.068,kallum_motion_pilot,2023.2.3,Win32,179.8561151,657130845d83c7254900dcb2,6560176e4d91f764e2a42c74,65715821591c60cd26d23cf8,0.068,0.068,0,72,72,66,1,twoone,,,,,,,,,,,,,,,,,,,,,,,,,,,,,,,,,,,,,,,,,,,,,,,,,,,,,,,,,,,,,,,,,,,,,,,,,,,,,,,,,,,,,,,,,,,,,,,,,,,,,,,,,,,,,,,,,,,,,,,,,,,,,,,,,,,,,,,
,,657130845d83c7254900dcb2,2023-12-06_23h29.34.068,kallum_motion_pilot,2023.2.3,Win32,179.8561151,657130845d83c7254900dcb2,6560176e4d91f764e2a42c74,65715821591c60cd26d23cf8,0.068,0.068,0,73,73,150,1,eightsix,,,,,,,,,,,,,,,,,,,,,,,,,,,,,,,,,,,,,,,,,,,,,,,,,,,,,,,,,,,,,,,,,,,,,,,,,,,,,,,,,,,,,,,,,,,,,,,,,,,,,,,,,,,,,,,,,,,,,,,,,,,,,,,,,,,,,,,
,,657130845d83c7254900dcb2,2023-12-06_23h29.34.068,kallum_motion_pilot,2023.2.3,Win32,179.8561151,657130845d83c7254900dcb2,6560176e4d91f764e2a42c74,65715821591c60cd26d23cf8,0.068,0.068,0,74,74,141,1,seveneight,,,,,,,,,,,,,,,,,,,,,,,,,,,,,,,,,,,,,,,,,,,,,,,,,,,,,,,,,,,,,,,,,,,,,,,,,,,,,,,,,,,,,,,,,,,,,,,,,,,,,,,,,,,,,,,,,,,,,,,,,,,,,,,,,,,,,,,
,,657130845d83c7254900dcb2,2023-12-06_23h29.34.068,kallum_motion_pilot,2023.2.3,Win32,179.8561151,657130845d83c7254900dcb2,6560176e4d91f764e2a42c74,65715821591c60cd26d23cf8,0.068,0.068,0,75,75,31,1,fourthree,,,,,,,,,,,,,,,,,,,,,,,,,,,,,,,,,,,,,,,,,,,,,,,,,,,,,,,,,,,,,,,,,,,,,,,,,,,,,,,,,,,,,,,,,,,,,,,,,,,,,,,,,,,,,,,,,,,,,,,,,,,,,,,,,,,,,,,
,,657130845d83c7254900dcb2,2023-12-06_23h29.34.068,kallum_motion_pilot,2023.2.3,Win32,179.8561151,657130845d83c7254900dcb2,6560176e4d91f764e2a42c74,65715821591c60cd26d23cf8,0.069,0.069,0,76,76,34,1,twoone,,,,,,,,,,,,,,,,,,,,,,,,,,,,,,,,,,,,,,,,,,,,,,,,,,,,,,,,,,,,,,,,,,,,,,,,,,,,,,,,,,,,,,,,,,,,,,,,,,,,,,,,,,,,,,,,,,,,,,,,,,,,,,,,,,,,,,,
,,657130845d83c7254900dcb2,2023-12-06_23h29.34.068,kallum_motion_pilot,2023.2.3,Win32,179.8561151,657130845d83c7254900dcb2,6560176e4d91f764e2a42c74,65715821591c60cd26d23cf8,0.069,0.069,0,77,77,29,1,threefour,,,,,,,,,,,,,,,,,,,,,,,,,,,,,,,,,,,,,,,,,,,,,,,,,,,,,,,,,,,,,,,,,,,,,,,,,,,,,,,,,,,,,,,,,,,,,,,,,,,,,,,,,,,,,,,,,,,,,,,,,,,,,,,,,,,,,,,
,,657130845d83c7254900dcb2,2023-12-06_23h29.34.068,kallum_motion_pilot,2023.2.3,Win32,179.8561151,657130845d83c7254900dcb2,6560176e4d91f764e2a42c74,65715821591c60cd26d23cf8,0.069,0.069,0,78,78,87,1,eightseven,,,,,,,,,,,,,,,,,,,,,,,,,,,,,,,,,,,,,,,,,,,,,,,,,,,,,,,,,,,,,,,,,,,,,,,,,,,,,,,,,,,,,,,,,,,,,,,,,,,,,,,,,,,,,,,,,,,,,,,,,,,,,,,,,,,,,,,
,,657130845d83c7254900dcb2,2023-12-06_23h29.34.068,kallum_motion_pilot,2023.2.3,Win32,179.8561151,657130845d83c7254900dcb2,6560176e4d91f764e2a42c74,65715821591c60cd26d23cf8,0.07,0.07,0,79,79,134,1,eightsix,,,,,,,,,,,,,,,,,,,,,,,,,,,,,,,,,,,,,,,,,,,,,,,,,,,,,,,,,,,,,,,,,,,,,,,,,,,,,,,,,,,,,,,,,,,,,,,,,,,,,,,,,,,,,,,,,,,,,,,,,,,,,,,,,,,,,,,
,,657130845d83c7254900dcb2,2023-12-06_23h29.34.068,kallum_motion_pilot,2023.2.3,Win32,179.8561151,657130845d83c7254900dcb2,6560176e4d91f764e2a42c74,65715821591c60cd26d23cf8,0.07,0.07,0,80,80,13,1,threefour,,,,,,,,,,,,,,,,,,,,,,,,,,,,,,,,,,,,,,,,,,,,,,,,,,,,,,,,,,,,,,,,,,,,,,,,,,,,,,,,,,,,,,,,,,,,,,,,,,,,,,,,,,,,,,,,,,,,,,,,,,,,,,,,,,,,,,,
,,657130845d83c7254900dcb2,2023-12-06_23h29.34.068,kallum_motion_pilot,2023.2.3,Win32,179.8561151,657130845d83c7254900dcb2,6560176e4d91f764e2a42c74,65715821591c60cd26d23cf8,0.07,0.07,0,81,81,136,1,fivesix,,,,,,,,,,,,,,,,,,,,,,,,,,,,,,,,,,,,,,,,,,,,,,,,,,,,,,,,,,,,,,,,,,,,,,,,,,,,,,,,,,,,,,,,,,,,,,,,,,,,,,,,,,,,,,,,,,,,,,,,,,,,,,,,,,,,,,,
,,657130845d83c7254900dcb2,2023-12-06_23h29.34.068,kallum_motion_pilot,2023.2.3,Win32,179.8561151,657130845d83c7254900dcb2,6560176e4d91f764e2a42c74,65715821591c60cd26d23cf8,0.07,0.07,0,82,82,90,1,sixfive,,,,,,,,,,,,,,,,,,,,,,,,,,,,,,,,,,,,,,,,,,,,,,,,,,,,,,,,,,,,,,,,,,,,,,,,,,,,,,,,,,,,,,,,,,,,,,,,,,,,,,,,,,,,,,,,,,,,,,,,,,,,,,,,,,,,,,,
,,657130845d83c7254900dcb2,2023-12-06_23h29.34.068,kallum_motion_pilot,2023.2.3,Win32,179.8561151,657130845d83c7254900dcb2,6560176e4d91f764e2a42c74,65715821591c60cd26d23cf8,0.07,0.07,0,83,83,154,1,sixfive,,,,,,,,,,,,,,,,,,,,,,,,,,,,,,,,,,,,,,,,,,,,,,,,,,,,,,,,,,,,,,,,,,,,,,,,,,,,,,,,,,,,,,,,,,,,,,,,,,,,,,,,,,,,,,,,,,,,,,,,,,,,,,,,,,,,,,,
,,657130845d83c7254900dcb2,2023-12-06_23h29.34.068,kallum_motion_pilot,2023.2.3,Win32,179.8561151,657130845d83c7254900dcb2,6560176e4d91f764e2a42c74,65715821591c60cd26d23cf8,0.07,0.07,0,84,84,92,1,sevenfive,,,,,,,,,,,,,,,,,,,,,,,,,,,,,,,,,,,,,,,,,,,,,,,,,,,,,,,,,,,,,,,,,,,,,,,,,,,,,,,,,,,,,,,,,,,,,,,,,,,,,,,,,,,,,,,,,,,,,,,,,,,,,,,,,,,,,,,
,,657130845d83c7254900dcb2,2023-12-06_23h29.34.068,kallum_motion_pilot,2023.2.3,Win32,179.8561151,657130845d83c7254900dcb2,6560176e4d91f764e2a42c74,65715821591c60cd26d23cf8,0.07,0.071,0,85,85,64,1,onetwo,,,,,,,,,,,,,,,,,,,,,,,,,,,,,,,,,,,,,,,,,,,,,,,,,,,,,,,,,,,,,,,,,,,,,,,,,,,,,,,,,,,,,,,,,,,,,,,,,,,,,,,,,,,,,,,,,,,,,,,,,,,,,,,,,,,,,,,
,,657130845d83c7254900dcb2,2023-12-06_23h29.34.068,kallum_motion_pilot,2023.2.3,Win32,179.8561151,657130845d83c7254900dcb2,6560176e4d91f764e2a42c74,65715821591c60cd26d23cf8,0.071,0.071,0,86,86,3,1,twofour,,,,,,,,,,,,,,,,,,,,,,,,,,,,,,,,,,,,,,,,,,,,,,,,,,,,,,,,,,,,,,,,,,,,,,,,,,,,,,,,,,,,,,,,,,,,,,,,,,,,,,,,,,,,,,,,,,,,,,,,,,,,,,,,,,,,,,,
,,657130845d83c7254900dcb2,2023-12-06_23h29.34.068,kallum_motion_pilot,2023.2.3,Win32,179.8561151,657130845d83c7254900dcb2,6560176e4d91f764e2a42c74,65715821591c60cd26d23cf8,0.071,0.071,0,87,87,158,1,eightsix,,,,,,,,,,,,,,,,,,,,,,,,,,,,,,,,,,,,,,,,,,,,,,,,,,,,,,,,,,,,,,,,,,,,,,,,,,,,,,,,,,,,,,,,,,,,,,,,,,,,,,,,,,,,,,,,,,,,,,,,,,,,,,,,,,,,,,,
,,657130845d83c7254900dcb2,2023-12-06_23h29.34.068,kallum_motion_pilot,2023.2.3,Win32,179.8561151,657130845d83c7254900dcb2,6560176e4d91f764e2a42c74,65715821591c60cd26d23cf8,0.071,0.071,0,88,88,6,1,fourtwo,,,,,,,,,,,,,,,,,,,,,,,,,,,,,,,,,,,,,,,,,,,,,,,,,,,,,,,,,,,,,,,,,,,,,,,,,,,,,,,,,,,,,,,,,,,,,,,,,,,,,,,,,,,,,,,,,,,,,,,,,,,,,,,,,,,,,,,
,,657130845d83c7254900dcb2,2023-12-06_23h29.34.068,kallum_motion_pilot,2023.2.3,Win32,179.8561151,657130845d83c7254900dcb2,6560176e4d91f764e2a42c74,65715821591c60cd26d23cf8,0.071,0.071,0,89,89,52,1,threeone,,,,,,,,,,,,,,,,,,,,,,,,,,,,,,,,,,,,,,,,,,,,,,,,,,,,,,,,,,,,,,,,,,,,,,,,,,,,,,,,,,,,,,,,,,,,,,,,,,,,,,,,,,,,,,,,,,,,,,,,,,,,,,,,,,,,,,,
,,657130845d83c7254900dcb2,2023-12-06_23h29.34.068,kallum_motion_pilot,2023.2.3,Win32,179.8561151,657130845d83c7254900dcb2,6560176e4d91f764e2a42c74,65715821591c60cd26d23cf8,0.071,0.071,0,90,90,127,1,eightseven,,,,,,,,,,,,,,,,,,,,,,,,,,,,,,,,,,,,,,,,,,,,,,,,,,,,,,,,,,,,,,,,,,,,,,,,,,,,,,,,,,,,,,,,,,,,,,,,,,,,,,,,,,,,,,,,,,,,,,,,,,,,,,,,,,,,,,,
,,657130845d83c7254900dcb2,2023-12-06_23h29.34.068,kallum_motion_pilot,2023.2.3,Win32,179.8561151,657130845d83c7254900dcb2,6560176e4d91f764e2a42c74,65715821591c60cd26d23cf8,0.071,0.071,0,91,91,155,1,sixeight,,,,,,,,,,,,,,,,,,,,,,,,,,,,,,,,,,,,,,,,,,,,,,,,,,,,,,,,,,,,,,,,,,,,,,,,,,,,,,,,,,,,,,,,,,,,,,,,,,,,,,,,,,,,,,,,,,,,,,,,,,,,,,,,,,,,,,,
,,657130845d83c7254900dcb2,2023-12-06_23h29.34.068,kallum_motion_pilot,2023.2.3,Win32,179.8561151,657130845d83c7254900dcb2,6560176e4d91f764e2a42c74,65715821591c60cd26d23cf8,0.071,0.071,0,92,92,21,1,threefour,,,,,,,,,,,,,,,,,,,,,,,,,,,,,,,,,,,,,,,,,,,,,,,,,,,,,,,,,,,,,,,,,,,,,,,,,,,,,,,,,,,,,,,,,,,,,,,,,,,,,,,,,,,,,,,,,,,,,,,,,,,,,,,,,,,,,,,
,,657130845d83c7254900dcb2,2023-12-06_23h29.34.068,kallum_motion_pilot,2023.2.3,Win32,179.8561151,657130845d83c7254900dcb2,6560176e4d91f764e2a42c74,65715821591c60cd26d23cf8,0.071,0.071,0,93,93,101,1,seveneight,,,,,,,,,,,,,,,,,,,,,,,,,,,,,,,,,,,,,,,,,,,,,,,,,,,,,,,,,,,,,,,,,,,,,,,,,,,,,,,,,,,,,,,,,,,,,,,,,,,,,,,,,,,,,,,,,,,,,,,,,,,,,,,,,,,,,,,
,,657130845d83c7254900dcb2,2023-12-06_23h29.34.068,kallum_motion_pilot,2023.2.3,Win32,179.8561151,657130845d83c7254900dcb2,6560176e4d91f764e2a42c74,65715821591c60cd26d23cf8,0.071,0.071,0,94,94,97,1,fiveseven,,,,,,,,,,,,,,,,,,,,,,,,,,,,,,,,,,,,,,,,,,,,,,,,,,,,,,,,,,,,,,,,,,,,,,,,,,,,,,,,,,,,,,,,,,,,,,,,,,,,,,,,,,,,,,,,,,,,,,,,,,,,,,,,,,,,,,,
,,657130845d83c7254900dcb2,2023-12-06_23h29.34.068,kallum_motion_pilot,2023.2.3,Win32,179.8561151,657130845d83c7254900dcb2,6560176e4d91f764e2a42c74,65715821591c60cd26d23cf8,0.072,0.072,0,95,95,132,1,sevenfive,,,,,,,,,,,,,,,,,,,,,,,,,,,,,,,,,,,,,,,,,,,,,,,,,,,,,,,,,,,,,,,,,,,,,,,,,,,,,,,,,,,,,,,,,,,,,,,,,,,,,,,,,,,,,,,,,,,,,,,,,,,,,,,,,,,,,,,
,,657130845d83c7254900dcb2,2023-12-06_23h29.34.068,kallum_motion_pilot,2023.2.3,Win32,179.8561151,657130845d83c7254900dcb2,6560176e4d91f764e2a42c74,65715821591c60cd26d23cf8,0.072,0.072,0,96,96,126,1,eightsix,,,,,,,,,,,,,,,,,,,,,,,,,,,,,,,,,,,,,,,,,,,,,,,,,,,,,,,,,,,,,,,,,,,,,,,,,,,,,,,,,,,,,,,,,,,,,,,,,,,,,,,,,,,,,,,,,,,,,,,,,,,,,,,,,,,,,,,
,,657130845d83c7254900dcb2,2023-12-06_23h29.34.068,kallum_motion_pilot,2023.2.3,Win32,179.8561151,657130845d83c7254900dcb2,6560176e4d91f764e2a42c74,65715821591c60cd26d23cf8,0.072,0.072,0,97,97,55,1,fourthree,,,,,,,,,,,,,,,,,,,,,,,,,,,,,,,,,,,,,,,,,,,,,,,,,,,,,,,,,,,,,,,,,,,,,,,,,,,,,,,,,,,,,,,,,,,,,,,,,,,,,,,,,,,,,,,,,,,,,,,,,,,,,,,,,,,,,,,
,,657130845d83c7254900dcb2,2023-12-06_23h29.34.068,kallum_motion_pilot,2023.2.3,Win32,179.8561151,657130845d83c7254900dcb2,6560176e4d91f764e2a42c74,65715821591c60cd26d23cf8,0.072,0.072,0,98,98,62,1,fourtwo,,,,,,,,,,,,,,,,,,,,,,,,,,,,,,,,,,,,,,,,,,,,,,,,,,,,,,,,,,,,,,,,,,,,,,,,,,,,,,,,,,,,,,,,,,,,,,,,,,,,,,,,,,,,,,,,,,,,,,,,,,,,,,,,,,,,,,,
,,657130845d83c7254900dcb2,2023-12-06_23h29.34.068,kallum_motion_pilot,2023.2.3,Win32,179.8561151,657130845d83c7254900dcb2,6560176e4d91f764e2a42c74,65715821591c60cd26d23cf8,0.072,0.072,0,99,99,71,1,fourthree,,,,,,,,,,,,,,,,,,,,,,,,,,,,,,,,,,,,,,,,,,,,,,,,,,,,,,,,,,,,,,,,,,,,,,,,,,,,,,,,,,,,,,,,,,,,,,,,,,,,,,,,,,,,,,,,,,,,,,,,,,,,,,,,,,,,,,,
,,657130845d83c7254900dcb2,2023-12-06_23h29.34.068,kallum_motion_pilot,2023.2.3,Win32,179.8561151,657130845d83c7254900dcb2,6560176e4d91f764e2a42c74,65715821591c60cd26d23cf8,0.072,0.072,0,100,100,115,1,sixeight,,,,,,,,,,,,,,,,,,,,,,,,,,,,,,,,,,,,,,,,,,,,,,,,,,,,,,,,,,,,,,,,,,,,,,,,,,,,,,,,,,,,,,,,,,,,,,,,,,,,,,,,,,,,,,,,,,,,,,,,,,,,,,,,,,,,,,,
,,657130845d83c7254900dcb2,2023-12-06_23h29.34.068,kallum_motion_pilot,2023.2.3,Win32,179.8561151,657130845d83c7254900dcb2,6560176e4d91f764e2a42c74,65715821591c60cd26d23cf8,0.072,0.072,0,101,101,1,1,onethree,,,,,,,,,,,,,,,,,,,,,,,,,,,,,,,,,,,,,,,,,,,,,,,,,,,,,,,,,,,,,,,,,,,,,,,,,,,,,,,,,,,,,,,,,,,,,,,,,,,,,,,,,,,,,,,,,,,,,,,,,,,,,,,,,,,,,,,
,,657130845d83c7254900dcb2,2023-12-06_23h29.34.068,kallum_motion_pilot,2023.2.3,Win32,179.8561151,657130845d83c7254900dcb2,6560176e4d91f764e2a42c74,65715821591c60cd26d23cf8,0.073,0.073,0,102,102,148,1,sevenfive,,,,,,,,,,,,,,,,,,,,,,,,,,,,,,,,,,,,,,,,,,,,,,,,,,,,,,,,,,,,,,,,,,,,,,,,,,,,,,,,,,,,,,,,,,,,,,,,,,,,,,,,,,,,,,,,,,,,,,,,,,,,,,,,,,,,,,,
,,657130845d83c7254900dcb2,2023-12-06_23h29.34.068,kallum_motion_pilot,2023.2.3,Win32,179.8561151,657130845d83c7254900dcb2,6560176e4d91f764e2a42c74,65715821591c60cd26d23cf8,0.073,0.073,0,103,103,85,1,seveneight,,,,,,,,,,,,,,,,,,,,,,,,,,,,,,,,,,,,,,,,,,,,,,,,,,,,,,,,,,,,,,,,,,,,,,,,,,,,,,,,,,,,,,,,,,,,,,,,,,,,,,,,,,,,,,,,,,,,,,,,,,,,,,,,,,,,,,,
,,657130845d83c7254900dcb2,2023-12-06_23h29.34.068,kallum_motion_pilot,2023.2.3,Win32,179.8561151,657130845d83c7254900dcb2,6560176e4d91f764e2a42c74,65715821591c60cd26d23cf8,0.073,0.073,0,104,104,143,1,eightseven,,,,,,,,,,,,,,,,,,,,,,,,,,,,,,,,,,,,,,,,,,,,,,,,,,,,,,,,,,,,,,,,,,,,,,,,,,,,,,,,,,,,,,,,,,,,,,,,,,,,,,,,,,,,,,,,,,,,,,,,,,,,,,,,,,,,,,,
,,657130845d83c7254900dcb2,2023-12-06_23h29.34.068,kallum_motion_pilot,2023.2.3,Win32,179.8561151,657130845d83c7254900dcb2,6560176e4d91f764e2a42c74,65715821591c60cd26d23cf8,0.073,0.073,0,105,105,17,1,onethree,,,,,,,,,,,,,,,,,,,,,,,,,,,,,,,,,,,,,,,,,,,,,,,,,,,,,,,,,,,,,,,,,,,,,,,,,,,,,,,,,,,,,,,,,,,,,,,,,,,,,,,,,,,,,,,,,,,,,,,,,,,,,,,,,,,,,,,
,,657130845d83c7254900dcb2,2023-12-06_23h29.34.068,kallum_motion_pilot,2023.2.3,Win32,179.8561151,657130845d83c7254900dcb2,6560176e4d91f764e2a42c74,65715821591c60cd26d23cf8,0.073,0.073,0,106,106,57,1,onethree,,,,,,,,,,,,,,,,,,,,,,,,,,,,,,,,,,,,,,,,,,,,,,,,,,,,,,,,,,,,,,,,,,,,,,,,,,,,,,,,,,,,,,,,,,,,,,,,,,,,,,,,,,,,,,,,,,,,,,,,,,,,,,,,,,,,,,,
,,657130845d83c7254900dcb2,2023-12-06_23h29.34.068,kallum_motion_pilot,2023.2.3,Win32,179.8561151,657130845d83c7254900dcb2,6560176e4d91f764e2a42c74,65715821591c60cd26d23cf8,0.073,0.073,0,107,107,4,1,threeone,,,,,,,,,,,,,,,,,,,,,,,,,,,,,,,,,,,,,,,,,,,,,,,,,,,,,,,,,,,,,,,,,,,,,,,,,,,,,,,,,,,,,,,,,,,,,,,,,,,,,,,,,,,,,,,,,,,,,,,,,,,,,,,,,,,,,,,
,,657130845d83c7254900dcb2,2023-12-06_23h29.34.068,kallum_motion_pilot,2023.2.3,Win32,179.8561151,657130845d83c7254900dcb2,6560176e4d91f764e2a42c74,65715821591c60cd26d23cf8,0.073,0.073,0,108,108,109,1,seveneight,,,,,,,,,,,,,,,,,,,,,,,,,,,,,,,,,,,,,,,,,,,,,,,,,,,,,,,,,,,,,,,,,,,,,,,,,,,,,,,,,,,,,,,,,,,,,,,,,,,,,,,,,,,,,,,,,,,,,,,,,,,,,,,,,,,,,,,
,,657130845d83c7254900dcb2,2023-12-06_23h29.34.068,kallum_motion_pilot,2023.2.3,Win32,179.8561151,657130845d83c7254900dcb2,6560176e4d91f764e2a42c74,65715821591c60cd26d23cf8,0.073,0.073,0,109,109,111,1,eightseven,,,,,,,,,,,,,,,,,,,,,,,,,,,,,,,,,,,,,,,,,,,,,,,,,,,,,,,,,,,,,,,,,,,,,,,,,,,,,,,,,,,,,,,,,,,,,,,,,,,,,,,,,,,,,,,,,,,,,,,,,,,,,,,,,,,,,,,
,,657130845d83c7254900dcb2,2023-12-06_23h29.34.068,kallum_motion_pilot,2023.2.3,Win32,179.8561151,657130845d83c7254900dcb2,6560176e4d91f764e2a42c74,65715821591c60cd26d23cf8,0.073,0.073,0,110,110,35,1,twofour,,,,,,,,,,,,,,,,,,,,,,,,,,,,,,,,,,,,,,,,,,,,,,,,,,,,,,,,,,,,,,,,,,,,,,,,,,,,,,,,,,,,,,,,,,,,,,,,,,,,,,,,,,,,,,,,,,,,,,,,,,,,,,,,,,,,,,,
,,657130845d83c7254900dcb2,2023-12-06_23h29.34.068,kallum_motion_pilot,2023.2.3,Win32,179.8561151,657130845d83c7254900dcb2,6560176e4d91f764e2a42c74,65715821591c60cd26d23cf8,0.073,0.073,0,111,111,139,1,sixeight,,,,,,,,,,,,,,,,,,,,,,,,,,,,,,,,,,,,,,,,,,,,,,,,,,,,,,,,,,,,,,,,,,,,,,,,,,,,,,,,,,,,,,,,,,,,,,,,,,,,,,,,,,,,,,,,,,,,,,,,,,,,,,,,,,,,,,,
,,657130845d83c7254900dcb2,2023-12-06_23h29.34.068,kallum_motion_pilot,2023.2.3,Win32,179.8561151,657130845d83c7254900dcb2,6560176e4d91f764e2a42c74,65715821591c60cd26d23cf8,0.073,0.073,0,112,112,33,1,onethree,,,,,,,,,,,,,,,,,,,,,,,,,,,,,,,,,,,,,,,,,,,,,,,,,,,,,,,,,,,,,,,,,,,,,,,,,,,,,,,,,,,,,,,,,,,,,,,,,,,,,,,,,,,,,,,,,,,,,,,,,,,,,,,,,,,,,,,
,,657130845d83c7254900dcb2,2023-12-06_23h29.34.068,kallum_motion_pilot,2023.2.3,Win32,179.8561151,657130845d83c7254900dcb2,6560176e4d91f764e2a42c74,65715821591c60cd26d23cf8,0.073,0.073,0,113,113,30,1,fourtwo,,,,,,,,,,,,,,,,,,,,,,,,,,,,,,,,,,,,,,,,,,,,,,,,,,,,,,,,,,,,,,,,,,,,,,,,,,,,,,,,,,,,,,,,,,,,,,,,,,,,,,,,,,,,,,,,,,,,,,,,,,,,,,,,,,,,,,,
,,657130845d83c7254900dcb2,2023-12-06_23h29.34.068,kallum_motion_pilot,2023.2.3,Win32,179.8561151,657130845d83c7254900dcb2,6560176e4d91f764e2a42c74,65715821591c60cd26d23cf8,0.073,0.073,0,114,114,113,1,fiveseven,,,,,,,,,,,,,,,,,,,,,,,,,,,,,,,,,,,,,,,,,,,,,,,,,,,,,,,,,,,,,,,,,,,,,,,,,,,,,,,,,,,,,,,,,,,,,,,,,,,,,,,,,,,,,,,,,,,,,,,,,,,,,,,,,,,,,,,
,,657130845d83c7254900dcb2,2023-12-06_23h29.34.068,kallum_motion_pilot,2023.2.3,Win32,179.8561151,657130845d83c7254900dcb2,6560176e4d91f764e2a42c74,65715821591c60cd26d23cf8,0.073,0.073,0,115,115,2,1,twoone,,,,,,,,,,,,,,,,,,,,,,,,,,,,,,,,,,,,,,,,,,,,,,,,,,,,,,,,,,,,,,,,,,,,,,,,,,,,,,,,,,,,,,,,,,,,,,,,,,,,,,,,,,,,,,,,,,,,,,,,,,,,,,,,,,,,,,,
,,657130845d83c7254900dcb2,2023-12-06_23h29.34.068,kallum_motion_pilot,2023.2.3,Win32,179.8561151,657130845d83c7254900dcb2,6560176e4d91f764e2a42c74,65715821591c60cd26d23cf8,0.074,0.074,0,116,116,122,1,sixfive,,,,,,,,,,,,,,,,,,,,,,,,,,,,,,,,,,,,,,,,,,,,,,,,,,,,,,,,,,,,,,,,,,,,,,,,,,,,,,,,,,,,,,,,,,,,,,,,,,,,,,,,,,,,,,,,,,,,,,,,,,,,,,,,,,,,,,,
,,657130845d83c7254900dcb2,2023-12-06_23h29.34.068,kallum_motion_pilot,2023.2.3,Win32,179.8561151,657130845d83c7254900dcb2,6560176e4d91f764e2a42c74,65715821591c60cd26d23cf8,0.074,0.074,0,117,117,65,1,onethree,,,,,,,,,,,,,,,,,,,,,,,,,,,,,,,,,,,,,,,,,,,,,,,,,,,,,,,,,,,,,,,,,,,,,,,,,,,,,,,,,,,,,,,,,,,,,,,,,,,,,,,,,,,,,,,,,,,,,,,,,,,,,,,,,,,,,,,
,,657130845d83c7254900dcb2,2023-12-06_23h29.34.068,kallum_motion_pilot,2023.2.3,Win32,179.8561151,657130845d83c7254900dcb2,6560176e4d91f764e2a42c74,65715821591c60cd26d23cf8,0.074,0.074,0,118,118,144,1,fivesix,,,,,,,,,,,,,,,,,,,,,,,,,,,,,,,,,,,,,,,,,,,,,,,,,,,,,,,,,,,,,,,,,,,,,,,,,,,,,,,,,,,,,,,,,,,,,,,,,,,,,,,,,,,,,,,,,,,,,,,,,,,,,,,,,,,,,,,
,,657130845d83c7254900dcb2,2023-12-06_23h29.34.068,kallum_motion_pilot,2023.2.3,Win32,179.8561151,657130845d83c7254900dcb2,6560176e4d91f764e2a42c74,65715821591c60cd26d23cf8,0.074,0.074,0,119,119,128,1,fivesix,,,,,,,,,,,,,,,,,,,,,,,,,,,,,,,,,,,,,,,,,,,,,,,,,,,,,,,,,,,,,,,,,,,,,,,,,,,,,,,,,,,,,,,,,,,,,,,,,,,,,,,,,,,,,,,,,,,,,,,,,,,,,,,,,,,,,,,
,,657130845d83c7254900dcb2,2023-12-06_23h29.34.068,kallum_motion_pilot,2023.2.3,Win32,179.8561151,657130845d83c7254900dcb2,6560176e4d91f764e2a42c74,65715821591c60cd26d23cf8,0.074,0.074,0,120,120,23,1,fourthree,,,,,,,,,,,,,,,,,,,,,,,,,,,,,,,,,,,,,,,,,,,,,,,,,,,,,,,,,,,,,,,,,,,,,,,,,,,,,,,,,,,,,,,,,,,,,,,,,,,,,,,,,,,,,,,,,,,,,,,,,,,,,,,,,,,,,,,
,,657130845d83c7254900dcb2,2023-12-06_23h29.34.068,kallum_motion_pilot,2023.2.3,Win32,179.8561151,657130845d83c7254900dcb2,6560176e4d91f764e2a42c74,65715821591c60cd26d23cf8,0.074,0.074,0,121,121,91,1,sixeight,,,,,,,,,,,,,,,,,,,,,,,,,,,,,,,,,,,,,,,,,,,,,,,,,,,,,,,,,,,,,,,,,,,,,,,,,,,,,,,,,,,,,,,,,,,,,,,,,,,,,,,,,,,,,,,,,,,,,,,,,,,,,,,,,,,,,,,
,,657130845d83c7254900dcb2,2023-12-06_23h29.34.068,kallum_motion_pilot,2023.2.3,Win32,179.8561151,657130845d83c7254900dcb2,6560176e4d91f764e2a42c74,65715821591c60cd26d23cf8,0.074,0.074,0,122,122,118,1,eightsix,,,,,,,,,,,,,,,,,,,,,,,,,,,,,,,,,,,,,,,,,,,,,,,,,,,,,,,,,,,,,,,,,,,,,,,,,,,,,,,,,,,,,,,,,,,,,,,,,,,,,,,,,,,,,,,,,,,,,,,,,,,,,,,,,,,,,,,
,,657130845d83c7254900dcb2,2023-12-06_23h29.34.068,kallum_motion_pilot,2023.2.3,Win32,179.8561151,657130845d83c7254900dcb2,6560176e4d91f764e2a42c74,65715821591c60cd26d23cf8,0.074,0.074,0,123,123,40,1,onetwo,,,,,,,,,,,,,,,,,,,,,,,,,,,,,,,,,,,,,,,,,,,,,,,,,,,,,,,,,,,,,,,,,,,,,,,,,,,,,,,,,,,,,,,,,,,,,,,,,,,,,,,,,,,,,,,,,,,,,,,,,,,,,,,,,,,,,,,
,,657130845d83c7254900dcb2,2023-12-06_23h29.34.068,kallum_motion_pilot,2023.2.3,Win32,179.8561151,657130845d83c7254900dcb2,6560176e4d91f764e2a42c74,65715821591c60cd26d23cf8,0.074,0.074,0,124,124,59,1,twofour,,,,,,,,,,,,,,,,,,,,,,,,,,,,,,,,,,,,,,,,,,,,,,,,,,,,,,,,,,,,,,,,,,,,,,,,,,,,,,,,,,,,,,,,,,,,,,,,,,,,,,,,,,,,,,,,,,,,,,,,,,,,,,,,,,,,,,,
,,657130845d83c7254900dcb2,2023-12-06_23h29.34.068,kallum_motion_pilot,2023.2.3,Win32,179.8561151,657130845d83c7254900dcb2,6560176e4d91f764e2a42c74,65715821591c60cd26d23cf8,0.074,0.075,0,125,125,39,1,fourthree,,,,,,,,,,,,,,,,,,,,,,,,,,,,,,,,,,,,,,,,,,,,,,,,,,,,,,,,,,,,,,,,,,,,,,,,,,,,,,,,,,,,,,,,,,,,,,,,,,,,,,,,,,,,,,,,,,,,,,,,,,,,,,,,,,,,,,,
,,657130845d83c7254900dcb2,2023-12-06_23h29.34.068,kallum_motion_pilot,2023.2.3,Win32,179.8561151,657130845d83c7254900dcb2,6560176e4d91f764e2a42c74,65715821591c60cd26d23cf8,0.075,0.075,0,126,126,146,1,sixfive,,,,,,,,,,,,,,,,,,,,,,,,,,,,,,,,,,,,,,,,,,,,,,,,,,,,,,,,,,,,,,,,,,,,,,,,,,,,,,,,,,,,,,,,,,,,,,,,,,,,,,,,,,,,,,,,,,,,,,,,,,,,,,,,,,,,,,,
,,657130845d83c7254900dcb2,2023-12-06_23h29.34.068,kallum_motion_pilot,2023.2.3,Win32,179.8561151,657130845d83c7254900dcb2,6560176e4d91f764e2a42c74,65715821591c60cd26d23cf8,0.075,0.075,0,127,127,70,1,fourtwo,,,,,,,,,,,,,,,,,,,,,,,,,,,,,,,,,,,,,,,,,,,,,,,,,,,,,,,,,,,,,,,,,,,,,,,,,,,,,,,,,,,,,,,,,,,,,,,,,,,,,,,,,,,,,,,,,,,,,,,,,,,,,,,,,,,,,,,
,,657130845d83c7254900dcb2,2023-12-06_23h29.34.068,kallum_motion_pilot,2023.2.3,Win32,179.8561151,657130845d83c7254900dcb2,6560176e4d91f764e2a42c74,65715821591c60cd26d23cf8,0.075,0.075,0,128,128,121,1,fiveseven,,,,,,,,,,,,,,,,,,,,,,,,,,,,,,,,,,,,,,,,,,,,,,,,,,,,,,,,,,,,,,,,,,,,,,,,,,,,,,,,,,,,,,,,,,,,,,,,,,,,,,,,,,,,,,,,,,,,,,,,,,,,,,,,,,,,,,,
,,657130845d83c7254900dcb2,2023-12-06_23h29.34.068,kallum_motion_pilot,2023.2.3,Win32,179.8561151,657130845d83c7254900dcb2,6560176e4d91f764e2a42c74,65715821591c60cd26d23cf8,0.075,0.075,0,129,129,15,1,fourthree,,,,,,,,,,,,,,,,,,,,,,,,,,,,,,,,,,,,,,,,,,,,,,,,,,,,,,,,,,,,,,,,,,,,,,,,,,,,,,,,,,,,,,,,,,,,,,,,,,,,,,,,,,,,,,,,,,,,,,,,,,,,,,,,,,,,,,,
,,657130845d83c7254900dcb2,2023-12-06_23h29.34.068,kallum_motion_pilot,2023.2.3,Win32,179.8561151,657130845d83c7254900dcb2,6560176e4d91f764e2a42c74,65715821591c60cd26d23cf8,0.075,0.075,0,130,130,102,1,eightsix,,,,,,,,,,,,,,,,,,,,,,,,,,,,,,,,,,,,,,,,,,,,,,,,,,,,,,,,,,,,,,,,,,,,,,,,,,,,,,,,,,,,,,,,,,,,,,,,,,,,,,,,,,,,,,,,,,,,,,,,,,,,,,,,,,,,,,,
,,657130845d83c7254900dcb2,2023-12-06_23h29.34.068,kallum_motion_pilot,2023.2.3,Win32,179.8561151,657130845d83c7254900dcb2,6560176e4d91f764e2a42c74,65715821591c60cd26d23cf8,0.075,0.075,0,131,131,138,1,sixfive,,,,,,,,,,,,,,,,,,,,,,,,,,,,,,,,,,,,,,,,,,,,,,,,,,,,,,,,,,,,,,,,,,,,,,,,,,,,,,,,,,,,,,,,,,,,,,,,,,,,,,,,,,,,,,,,,,,,,,,,,,,,,,,,,,,,,,,
,,657130845d83c7254900dcb2,2023-12-06_23h29.34.068,kallum_motion_pilot,2023.2.3,Win32,179.8561151,657130845d83c7254900dcb2,6560176e4d91f764e2a42c74,65715821591c60cd26d23cf8,0.075,0.075,0,132,132,12,1,threeone,,,,,,,,,,,,,,,,,,,,,,,,,,,,,,,,,,,,,,,,,,,,,,,,,,,,,,,,,,,,,,,,,,,,,,,,,,,,,,,,,,,,,,,,,,,,,,,,,,,,,,,,,,,,,,,,,,,,,,,,,,,,,,,,,,,,,,,
,,657130845d83c7254900dcb2,2023-12-06_23h29.34.068,kallum_motion_pilot,2023.2.3,Win32,179.8561151,657130845d83c7254900dcb2,6560176e4d91f764e2a42c74,65715821591c60cd26d23cf8,0.075,0.075,0,133,133,18,1,twoone,,,,,,,,,,,,,,,,,,,,,,,,,,,,,,,,,,,,,,,,,,,,,,,,,,,,,,,,,,,,,,,,,,,,,,,,,,,,,,,,,,,,,,,,,,,,,,,,,,,,,,,,,,,,,,,,,,,,,,,,,,,,,,,,,,,,,,,
,,657130845d83c7254900dcb2,2023-12-06_23h29.34.068,kallum_motion_pilot,2023.2.3,Win32,179.8561151,657130845d83c7254900dcb2,6560176e4d91f764e2a42c74,65715821591c60cd26d23cf8,0.075,0.075,0,134,134,22,1,fourtwo,,,,,,,,,,,,,,,,,,,,,,,,,,,,,,,,,,,,,,,,,,,,,,,,,,,,,,,,,,,,,,,,,,,,,,,,,,,,,,,,,,,,,,,,,,,,,,,,,,,,,,,,,,,,,,,,,,,,,,,,,,,,,,,,,,,,,,,
,,657130845d83c7254900dcb2,2023-12-06_23h29.34.068,kallum_motion_pilot,2023.2.3,Win32,179.8561151,657130845d83c7254900dcb2,6560176e4d91f764e2a42c74,65715821591c60cd26d23cf8,0.076,0.076,0,135,135,110,1,eightsix,,,,,,,,,,,,,,,,,,,,,,,,,,,,,,,,,,,,,,,,,,,,,,,,,,,,,,,,,,,,,,,,,,,,,,,,,,,,,,,,,,,,,,,,,,,,,,,,,,,,,,,,,,,,,,,,,,,,,,,,,,,,,,,,,,,,,,,
,,657130845d83c7254900dcb2,2023-12-06_23h29.34.068,kallum_motion_pilot,2023.2.3,Win32,179.8561151,657130845d83c7254900dcb2,6560176e4d91f764e2a42c74,65715821591c60cd26d23cf8,0.076,0.076,0,136,136,140,1,sevenfive,,,,,,,,,,,,,,,,,,,,,,,,,,,,,,,,,,,,,,,,,,,,,,,,,,,,,,,,,,,,,,,,,,,,,,,,,,,,,,,,,,,,,,,,,,,,,,,,,,,,,,,,,,,,,,,,,,,,,,,,,,,,,,,,,,,,,,,
,,657130845d83c7254900dcb2,2023-12-06_23h29.34.068,kallum_motion_pilot,2023.2.3,Win32,179.8561151,657130845d83c7254900dcb2,6560176e4d91f764e2a42c74,65715821591c60cd26d23cf8,0.076,0.076,0,137,137,151,1,eightseven,,,,,,,,,,,,,,,,,,,,,,,,,,,,,,,,,,,,,,,,,,,,,,,,,,,,,,,,,,,,,,,,,,,,,,,,,,,,,,,,,,,,,,,,,,,,,,,,,,,,,,,,,,,,,,,,,,,,,,,,,,,,,,,,,,,,,,,
,,657130845d83c7254900dcb2,2023-12-06_23h29.34.068,kallum_motion_pilot,2023.2.3,Win32,179.8561151,657130845d83c7254900dcb2,6560176e4d91f764e2a42c74,65715821591c60cd26d23cf8,0.076,0.076,0,138,138,49,1,onethree,,,,,,,,,,,,,,,,,,,,,,,,,,,,,,,,,,,,,,,,,,,,,,,,,,,,,,,,,,,,,,,,,,,,,,,,,,,,,,,,,,,,,,,,,,,,,,,,,,,,,,,,,,,,,,,,,,,,,,,,,,,,,,,,,,,,,,,
,,657130845d83c7254900dcb2,2023-12-06_23h29.34.068,kallum_motion_pilot,2023.2.3,Win32,179.8561151,657130845d83c7254900dcb2,6560176e4d91f764e2a42c74,65715821591c60cd26d23cf8,0.076,0.076,0,139,139,46,1,fourtwo,,,,,,,,,,,,,,,,,,,,,,,,,,,,,,,,,,,,,,,,,,,,,,,,,,,,,,,,,,,,,,,,,,,,,,,,,,,,,,,,,,,,,,,,,,,,,,,,,,,,,,,,,,,,,,,,,,,,,,,,,,,,,,,,,,,,,,,
,,657130845d83c7254900dcb2,2023-12-06_23h29.34.068,kallum_motion_pilot,2023.2.3,Win32,179.8561151,657130845d83c7254900dcb2,6560176e4d91f764e2a42c74,65715821591c60cd26d23cf8,0.076,0.076,0,140,140,43,1,twofour,,,,,,,,,,,,,,,,,,,,,,,,,,,,,,,,,,,,,,,,,,,,,,,,,,,,,,,,,,,,,,,,,,,,,,,,,,,,,,,,,,,,,,,,,,,,,,,,,,,,,,,,,,,,,,,,,,,,,,,,,,,,,,,,,,,,,,,
,,657130845d83c7254900dcb2,2023-12-06_23h29.34.068,kallum_motion_pilot,2023.2.3,Win32,179.8561151,657130845d83c7254900dcb2,6560176e4d91f764e2a42c74,65715821591c60cd26d23cf8,0.076,0.076,0,141,141,26,1,twoone,,,,,,,,,,,,,,,,,,,,,,,,,,,,,,,,,,,,,,,,,,,,,,,,,,,,,,,,,,,,,,,,,,,,,,,,,,,,,,,,,,,,,,,,,,,,,,,,,,,,,,,,,,,,,,,,,,,,,,,,,,,,,,,,,,,,,,,
,,657130845d83c7254900dcb2,2023-12-06_23h29.34.068,kallum_motion_pilot,2023.2.3,Win32,179.8561151,657130845d83c7254900dcb2,6560176e4d91f764e2a42c74,65715821591c60cd26d23cf8,0.076,0.076,0,142,142,68,1,threeone,,,,,,,,,,,,,,,,,,,,,,,,,,,,,,,,,,,,,,,,,,,,,,,,,,,,,,,,,,,,,,,,,,,,,,,,,,,,,,,,,,,,,,,,,,,,,,,,,,,,,,,,,,,,,,,,,,,,,,,,,,,,,,,,,,,,,,,
,,657130845d83c7254900dcb2,2023-12-06_23h29.34.068,kallum_motion_pilot,2023.2.3,Win32,179.8561151,657130845d83c7254900dcb2,6560176e4d91f764e2a42c74,65715821591c60cd26d23cf8,0.076,0.076,0,143,143,133,1,seveneight,,,,,,,,,,,,,,,,,,,,,,,,,,,,,,,,,,,,,,,,,,,,,,,,,,,,,,,,,,,,,,,,,,,,,,,,,,,,,,,,,,,,,,,,,,,,,,,,,,,,,,,,,,,,,,,,,,,,,,,,,,,,,,,,,,,,,,,
,,657130845d83c7254900dcb2,2023-12-06_23h29.34.068,kallum_motion_pilot,2023.2.3,Win32,179.8561151,657130845d83c7254900dcb2,6560176e4d91f764e2a42c74,65715821591c60cd26d23cf8,0.076,0.076,0,144,144,61,1,threefour,,,,,,,,,,,,,,,,,,,,,,,,,,,,,,,,,,,,,,,,,,,,,,,,,,,,,,,,,,,,,,,,,,,,,,,,,,,,,,,,,,,,,,,,,,,,,,,,,,,,,,,,,,,,,,,,,,,,,,,,,,,,,,,,,,,,,,,
,,657130845d83c7254900dcb2,2023-12-06_23h29.34.068,kallum_motion_pilot,2023.2.3,Win32,179.8561151,657130845d83c7254900dcb2,6560176e4d91f764e2a42c74,65715821591c60cd26d23cf8,0.076,0.076,0,145,145,42,1,twoone,,,,,,,,,,,,,,,,,,,,,,,,,,,,,,,,,,,,,,,,,,,,,,,,,,,,,,,,,,,,,,,,,,,,,,,,,,,,,,,,,,,,,,,,,,,,,,,,,,,,,,,,,,,,,,,,,,,,,,,,,,,,,,,,,,,,,,,
,,657130845d83c7254900dcb2,2023-12-06_23h29.34.068,kallum_motion_pilot,2023.2.3,Win32,179.8561151,657130845d83c7254900dcb2,6560176e4d91f764e2a42c74,65715821591c60cd26d23cf8,0.077,0.077,0,146,146,79,1,eightseven,,,,,,,,,,,,,,,,,,,,,,,,,,,,,,,,,,,,,,,,,,,,,,,,,,,,,,,,,,,,,,,,,,,,,,,,,,,,,,,,,,,,,,,,,,,,,,,,,,,,,,,,,,,,,,,,,,,,,,,,,,,,,,,,,,,,,,,
,,657130845d83c7254900dcb2,2023-12-06_23h29.34.068,kallum_motion_pilot,2023.2.3,Win32,179.8561151,657130845d83c7254900dcb2,6560176e4d91f764e2a42c74,65715821591c60cd26d23cf8,0.077,0.077,0,147,147,83,1,sixeight,,,,,,,,,,,,,,,,,,,,,,,,,,,,,,,,,,,,,,,,,,,,,,,,,,,,,,,,,,,,,,,,,,,,,,,,,,,,,,,,,,,,,,,,,,,,,,,,,,,,,,,,,,,,,,,,,,,,,,,,,,,,,,,,,,,,,,,
,,657130845d83c7254900dcb2,2023-12-06_23h29.34.068,kallum_motion_pilot,2023.2.3,Win32,179.8561151,657130845d83c7254900dcb2,6560176e4d91f764e2a42c74,65715821591c60cd26d23cf8,0.077,0.077,0,148,148,0,1,onetwo,,,,,,,,,,,,,,,,,,,,,,,,,,,,,,,,,,,,,,,,,,,,,,,,,,,,,,,,,,,,,,,,,,,,,,,,,,,,,,,,,,,,,,,,,,,,,,,,,,,,,,,,,,,,,,,,,,,,,,,,,,,,,,,,,,,,,,,
,,657130845d83c7254900dcb2,2023-12-06_23h29.34.068,kallum_motion_pilot,2023.2.3,Win32,179.8561151,657130845d83c7254900dcb2,6560176e4d91f764e2a42c74,65715821591c60cd26d23cf8,0.077,0.077,0,149,149,51,1,twofour,,,,,,,,,,,,,,,,,,,,,,,,,,,,,,,,,,,,,,,,,,,,,,,,,,,,,,,,,,,,,,,,,,,,,,,,,,,,,,,,,,,,,,,,,,,,,,,,,,,,,,,,,,,,,,,,,,,,,,,,,,,,,,,,,,,,,,,
,,657130845d83c7254900dcb2,2023-12-06_23h29.34.068,kallum_motion_pilot,2023.2.3,Win32,179.8561151,657130845d83c7254900dcb2,6560176e4d91f764e2a42c74,65715821591c60cd26d23cf8,0.077,0.077,0,150,150,116,1,sevenfive,,,,,,,,,,,,,,,,,,,,,,,,,,,,,,,,,,,,,,,,,,,,,,,,,,,,,,,,,,,,,,,,,,,,,,,,,,,,,,,,,,,,,,,,,,,,,,,,,,,,,,,,,,,,,,,,,,,,,,,,,,,,,,,,,,,,,,,
,,657130845d83c7254900dcb2,2023-12-06_23h29.34.068,kallum_motion_pilot,2023.2.3,Win32,179.8561151,657130845d83c7254900dcb2,6560176e4d91f764e2a42c74,65715821591c60cd26d23cf8,0.077,0.077,0,151,151,160,1,fivesix,,,,,,,,,,,,,,,,,,,,,,,,,,,,,,,,,,,,,,,,,,,,,,,,,,,,,,,,,,,,,,,,,,,,,,,,,,,,,,,,,,,,,,,,,,,,,,,,,,,,,,,,,,,,,,,,,,,,,,,,,,,,,,,,,,,,,,,
,,657130845d83c7254900dcb2,2023-12-06_23h29.34.068,kallum_motion_pilot,2023.2.3,Win32,179.8561151,657130845d83c7254900dcb2,6560176e4d91f764e2a42c74,65715821591c60cd26d23cf8,0.077,0.077,0,152,152,120,1,fivesix,,,,,,,,,,,,,,,,,,,,,,,,,,,,,,,,,,,,,,,,,,,,,,,,,,,,,,,,,,,,,,,,,,,,,,,,,,,,,,,,,,,,,,,,,,,,,,,,,,,,,,,,,,,,,,,,,,,,,,,,,,,,,,,,,,,,,,,
,,657130845d83c7254900dcb2,2023-12-06_23h29.34.068,kallum_motion_pilot,2023.2.3,Win32,179.8561151,657130845d83c7254900dcb2,6560176e4d91f764e2a42c74,65715821591c60cd26d23cf8,0.077,0.077,0,153,153,56,1,onetwo,,,,,,,,,,,,,,,,,,,,,,,,,,,,,,,,,,,,,,,,,,,,,,,,,,,,,,,,,,,,,,,,,,,,,,,,,,,,,,,,,,,,,,,,,,,,,,,,,,,,,,,,,,,,,,,,,,,,,,,,,,,,,,,,,,,,,,,
,,657130845d83c7254900dcb2,2023-12-06_23h29.34.068,kallum_motion_pilot,2023.2.3,Win32,179.8561151,657130845d83c7254900dcb2,6560176e4d91f764e2a42c74,65715821591c60cd26d23cf8,0.077,0.077,0,154,154,45,1,threefour,,,,,,,,,,,,,,,,,,,,,,,,,,,,,,,,,,,,,,,,,,,,,,,,,,,,,,,,,,,,,,,,,,,,,,,,,,,,,,,,,,,,,,,,,,,,,,,,,,,,,,,,,,,,,,,,,,,,,,,,,,,,,,,,,,,,,,,
,,657130845d83c7254900dcb2,2023-12-06_23h29.34.068,kallum_motion_pilot,2023.2.3,Win32,179.8561151,657130845d83c7254900dcb2,6560176e4d91f764e2a42c74,65715821591c60cd26d23cf8,0.077,0.077,0,155,155,95,1,eightseven,,,,,,,,,,,,,,,,,,,,,,,,,,,,,,,,,,,,,,,,,,,,,,,,,,,,,,,,,,,,,,,,,,,,,,,,,,,,,,,,,,,,,,,,,,,,,,,,,,,,,,,,,,,,,,,,,,,,,,,,,,,,,,,,,,,,,,,
,,657130845d83c7254900dcb2,2023-12-06_23h29.34.068,kallum_motion_pilot,2023.2.3,Win32,179.8561151,657130845d83c7254900dcb2,6560176e4d91f764e2a42c74,65715821591c60cd26d23cf8,0.077,0.077,0,156,156,47,1,fourthree,,,,,,,,,,,,,,,,,,,,,,,,,,,,,,,,,,,,,,,,,,,,,,,,,,,,,,,,,,,,,,,,,,,,,,,,,,,,,,,,,,,,,,,,,,,,,,,,,,,,,,,,,,,,,,,,,,,,,,,,,,,,,,,,,,,,,,,
,,657130845d83c7254900dcb2,2023-12-06_23h29.34.068,kallum_motion_pilot,2023.2.3,Win32,179.8561151,657130845d83c7254900dcb2,6560176e4d91f764e2a42c74,65715821591c60cd26d23cf8,0.078,0.078,0,157,157,80,1,fivesix,,,,,,,,,,,,,,,,,,,,,,,,,,,,,,,,,,,,,,,,,,,,,,,,,,,,,,,,,,,,,,,,,,,,,,,,,,,,,,,,,,,,,,,,,,,,,,,,,,,,,,,,,,,,,,,,,,,,,,,,,,,,,,,,,,,,,,,
,,657130845d83c7254900dcb2,2023-12-06_23h29.34.068,kallum_motion_pilot,2023.2.3,Win32,179.8561151,657130845d83c7254900dcb2,6560176e4d91f764e2a42c74,65715821591c60cd26d23cf8,0.078,0.078,0,158,158,74,1,twoone,,,,,,,,,,,,,,,,,,,,,,,,,,,,,,,,,,,,,,,,,,,,,,,,,,,,,,,,,,,,,,,,,,,,,,,,,,,,,,,,,,,,,,,,,,,,,,,,,,,,,,,,,,,,,,,,,,,,,,,,,,,,,,,,,,,,,,,
,,657130845d83c7254900dcb2,2023-12-06_23h29.34.068,kallum_motion_pilot,2023.2.3,Win32,179.8561151,657130845d83c7254900dcb2,6560176e4d91f764e2a42c74,65715821591c60cd26d23cf8,0.078,0.078,0,159,159,76,1,threeone,,,,,,,,,,,,,,,,,,,,,,,,,,,,,,,,,,,,,,,,,,,,,,,,,,,,,,,,,,,,,,,,,,,,,,,,,,,,,,,,,,,,,,,,,,,,,,,,,,,,,,,,,,,,,,,,,,,,,,,,,,,,,,,,,,,,,,,
,,657130845d83c7254900dcb2,2023-12-06_23h29.34.068,kallum_motion_pilot,2023.2.3,Win32,179.8561151,657130845d83c7254900dcb2,6560176e4d91f764e2a42c74,65715821591c60cd26d23cf8,0.078,0.078,0,160,160,130,1,sixfive,,,,,,,,,,,,,,,,,,,,,,,,,,,,,,,,,,,,,,,,,,,,,,,,,,,,,,,,,,,,,,,,,,,,,,,,,,,,,,,,,,,,,,,,,,,,,,,,,,,,,,,,,,,,,,,,,,,,,,,,,,,,,,,,,,,,,,,
,,657130845d83c7254900dcb2,2023-12-06_23h29.34.068,kallum_motion_pilot,2023.2.3,Win32,179.8561151,657130845d83c7254900dcb2,6560176e4d91f764e2a42c74,65715821591c60cd26d23cf8,0.078,0.078,0,161,161,112,1,fivesix,,,,,,,,,,,,,,,,,,,,,,,,,,,,,,,,,,,,,,,,,,,,,,,,,,,,,,,,,,,,,,,,,,,,,,,,,,,,,,,,,,,,,,,,,,,,,,,,,,,,,,,,,,,,,,,,,,,,,,,,,,,,,,,,,,,,,,,
,,657130845d83c7254900dcb2,2023-12-06_23h29.34.068,kallum_motion_pilot,2023.2.3,Win32,179.8561151,657130845d83c7254900dcb2,6560176e4d91f764e2a42c74,65715821591c60cd26d23cf8,0.078,0.078,1,0,162,84,1,sevenfive,,,,,,,,,,,,,,,,,,,,,,,,,,,,,,,,,,,,,,,,,,,,,,,,,,,,,,,,,,,,,,,,,,,,,,,,,,,,,,,,,,,,,,,,,,,,,,,,,,,,,,,,,,,,,,,,,,,,,,,,,,,,,,,,,,,,,,,
,,657130845d83c7254900dcb2,2023-12-06_23h29.34.068,kallum_motion_pilot,2023.2.3,Win32,179.8561151,657130845d83c7254900dcb2,6560176e4d91f764e2a42c74,65715821591c60cd26d23cf8,0.078,0.078,1,1,163,161,1,fiveseven,,,,,,,,,,,,,,,,,,,,,,,,,,,,,,,,,,,,,,,,,,,,,,,,,,,,,,,,,,,,,,,,,,,,,,,,,,,,,,,,,,,,,,,,,,,,,,,,,,,,,,,,,,,,,,,,,,,,,,,,,,,,,,,,,,,,,,,
,,657130845d83c7254900dcb2,2023-12-06_23h29.34.068,kallum_motion_pilot,2023.2.3,Win32,179.8561151,657130845d83c7254900dcb2,6560176e4d91f764e2a42c74,65715821591c60cd26d23cf8,0.078,0.078,1,2,164,62,1,fourtwo,,,,,,,,,,,,,,,,,,,,,,,,,,,,,,,,,,,,,,,,,,,,,,,,,,,,,,,,,,,,,,,,,,,,,,,,,,,,,,,,,,,,,,,,,,,,,,,,,,,,,,,,,,,,,,,,,,,,,,,,,,,,,,,,,,,,,,,
,,657130845d83c7254900dcb2,2023-12-06_23h29.34.068,kallum_motion_pilot,2023.2.3,Win32,179.8561151,657130845d83c7254900dcb2,6560176e4d91f764e2a42c74,65715821591c60cd26d23cf8,0.078,0.078,1,3,165,60,1,threeone,,,,,,,,,,,,,,,,,,,,,,,,,,,,,,,,,,,,,,,,,,,,,,,,,,,,,,,,,,,,,,,,,,,,,,,,,,,,,,,,,,,,,,,,,,,,,,,,,,,,,,,,,,,,,,,,,,,,,,,,,,,,,,,,,,,,,,,
,,657130845d83c7254900dcb2,2023-12-06_23h29.34.068,kallum_motion_pilot,2023.2.3,Win32,179.8561151,657130845d83c7254900dcb2,6560176e4d91f764e2a42c74,65715821591c60cd26d23cf8,0.079,0.079,1,4,166,153,1,fiveseven,,,,,,,,,,,,,,,,,,,,,,,,,,,,,,,,,,,,,,,,,,,,,,,,,,,,,,,,,,,,,,,,,,,,,,,,,,,,,,,,,,,,,,,,,,,,,,,,,,,,,,,,,,,,,,,,,,,,,,,,,,,,,,,,,,,,,,,
,,657130845d83c7254900dcb2,2023-12-06_23h29.34.068,kallum_motion_pilot,2023.2.3,Win32,179.8561151,657130845d83c7254900dcb2,6560176e4d91f764e2a42c74,65715821591c60cd26d23cf8,0.079,0.079,1,5,167,118,1,eightsix,,,,,,,,,,,,,,,,,,,,,,,,,,,,,,,,,,,,,,,,,,,,,,,,,,,,,,,,,,,,,,,,,,,,,,,,,,,,,,,,,,,,,,,,,,,,,,,,,,,,,,,,,,,,,,,,,,,,,,,,,,,,,,,,,,,,,,,
,,657130845d83c7254900dcb2,2023-12-06_23h29.34.068,kallum_motion_pilot,2023.2.3,Win32,179.8561151,657130845d83c7254900dcb2,6560176e4d91f764e2a42c74,65715821591c60cd26d23cf8,0.079,0.079,1,6,168,48,1,onetwo,,,,,,,,,,,,,,,,,,,,,,,,,,,,,,,,,,,,,,,,,,,,,,,,,,,,,,,,,,,,,,,,,,,,,,,,,,,,,,,,,,,,,,,,,,,,,,,,,,,,,,,,,,,,,,,,,,,,,,,,,,,,,,,,,,,,,,,
,,657130845d83c7254900dcb2,2023-12-06_23h29.34.068,kallum_motion_pilot,2023.2.3,Win32,179.8561151,657130845d83c7254900dcb2,6560176e4d91f764e2a42c74,65715821591c60cd26d23cf8,0.079,0.079,1,7,169,121,1,fiveseven,,,,,,,,,,,,,,,,,,,,,,,,,,,,,,,,,,,,,,,,,,,,,,,,,,,,,,,,,,,,,,,,,,,,,,,,,,,,,,,,,,,,,,,,,,,,,,,,,,,,,,,,,,,,,,,,,,,,,,,,,,,,,,,,,,,,,,,
,,657130845d83c7254900dcb2,2023-12-06_23h29.34.068,kallum_motion_pilot,2023.2.3,Win32,179.8561151,657130845d83c7254900dcb2,6560176e4d91f764e2a42c74,65715821591c60cd26d23cf8,0.079,0.079,1,8,170,102,1,eightsix,,,,,,,,,,,,,,,,,,,,,,,,,,,,,,,,,,,,,,,,,,,,,,,,,,,,,,,,,,,,,,,,,,,,,,,,,,,,,,,,,,,,,,,,,,,,,,,,,,,,,,,,,,,,,,,,,,,,,,,,,,,,,,,,,,,,,,,
,,657130845d83c7254900dcb2,2023-12-06_23h29.34.068,kallum_motion_pilot,2023.2.3,Win32,179.8561151,657130845d83c7254900dcb2,6560176e4d91f764e2a42c74,65715821591c60cd26d23cf8,0.079,0.079,1,9,171,18,1,twoone,,,,,,,,,,,,,,,,,,,,,,,,,,,,,,,,,,,,,,,,,,,,,,,,,,,,,,,,,,,,,,,,,,,,,,,,,,,,,,,,,,,,,,,,,,,,,,,,,,,,,,,,,,,,,,,,,,,,,,,,,,,,,,,,,,,,,,,
,,657130845d83c7254900dcb2,2023-12-06_23h29.34.068,kallum_motion_pilot,2023.2.3,Win32,179.8561151,657130845d83c7254900dcb2,6560176e4d91f764e2a42c74,65715821591c60cd26d23cf8,0.079,0.08,1,10,172,90,1,sixfive,,,,,,,,,,,,,,,,,,,,,,,,,,,,,,,,,,,,,,,,,,,,,,,,,,,,,,,,,,,,,,,,,,,,,,,,,,,,,,,,,,,,,,,,,,,,,,,,,,,,,,,,,,,,,,,,,,,,,,,,,,,,,,,,,,,,,,,
,,657130845d83c7254900dcb2,2023-12-06_23h29.34.068,kallum_motion_pilot,2023.2.3,Win32,179.8561151,657130845d83c7254900dcb2,6560176e4d91f764e2a42c74,65715821591c60cd26d23cf8,0.08,0.08,1,11,173,22,1,fourtwo,,,,,,,,,,,,,,,,,,,,,,,,,,,,,,,,,,,,,,,,,,,,,,,,,,,,,,,,,,,,,,,,,,,,,,,,,,,,,,,,,,,,,,,,,,,,,,,,,,,,,,,,,,,,,,,,,,,,,,,,,,,,,,,,,,,,,,,
,,657130845d83c7254900dcb2,2023-12-06_23h29.34.068,kallum_motion_pilot,2023.2.3,Win32,179.8561151,657130845d83c7254900dcb2,6560176e4d91f764e2a42c74,65715821591c60cd26d23cf8,0.08,0.08,1,12,174,2,1,twoone,,,,,,,,,,,,,,,,,,,,,,,,,,,,,,,,,,,,,,,,,,,,,,,,,,,,,,,,,,,,,,,,,,,,,,,,,,,,,,,,,,,,,,,,,,,,,,,,,,,,,,,,,,,,,,,,,,,,,,,,,,,,,,,,,,,,,,,
,,657130845d83c7254900dcb2,2023-12-06_23h29.34.068,kallum_motion_pilot,2023.2.3,Win32,179.8561151,657130845d83c7254900dcb2,6560176e4d91f764e2a42c74,65715821591c60cd26d23cf8,0.08,0.08,1,13,175,52,1,threeone,,,,,,,,,,,,,,,,,,,,,,,,,,,,,,,,,,,,,,,,,,,,,,,,,,,,,,,,,,,,,,,,,,,,,,,,,,,,,,,,,,,,,,,,,,,,,,,,,,,,,,,,,,,,,,,,,,,,,,,,,,,,,,,,,,,,,,,
,,657130845d83c7254900dcb2,2023-12-06_23h29.34.068,kallum_motion_pilot,2023.2.3,Win32,179.8561151,657130845d83c7254900dcb2,6560176e4d91f764e2a42c74,65715821591c60cd26d23cf8,0.08,0.08,1,14,176,95,1,eightseven,,,,,,,,,,,,,,,,,,,,,,,,,,,,,,,,,,,,,,,,,,,,,,,,,,,,,,,,,,,,,,,,,,,,,,,,,,,,,,,,,,,,,,,,,,,,,,,,,,,,,,,,,,,,,,,,,,,,,,,,,,,,,,,,,,,,,,,
,,657130845d83c7254900dcb2,2023-12-06_23h29.34.068,kallum_motion_pilot,2023.2.3,Win32,179.8561151,657130845d83c7254900dcb2,6560176e4d91f764e2a42c74,65715821591c60cd26d23cf8,0.08,0.08,1,15,177,120,1,fivesix,,,,,,,,,,,,,,,,,,,,,,,,,,,,,,,,,,,,,,,,,,,,,,,,,,,,,,,,,,,,,,,,,,,,,,,,,,,,,,,,,,,,,,,,,,,,,,,,,,,,,,,,,,,,,,,,,,,,,,,,,,,,,,,,,,,,,,,
,,657130845d83c7254900dcb2,2023-12-06_23h29.34.068,kallum_motion_pilot,2023.2.3,Win32,179.8561151,657130845d83c7254900dcb2,6560176e4d91f764e2a42c74,65715821591c60cd26d23cf8,0.08,0.08,1,16,178,63,1,fourthree,,,,,,,,,,,,,,,,,,,,,,,,,,,,,,,,,,,,,,,,,,,,,,,,,,,,,,,,,,,,,,,,,,,,,,,,,,,,,,,,,,,,,,,,,,,,,,,,,,,,,,,,,,,,,,,,,,,,,,,,,,,,,,,,,,,,,,,
,,657130845d83c7254900dcb2,2023-12-06_23h29.34.068,kallum_motion_pilot,2023.2.3,Win32,179.8561151,657130845d83c7254900dcb2,6560176e4d91f764e2a42c74,65715821591c60cd26d23cf8,0.08,0.08,1,17,179,16,1,onetwo,,,,,,,,,,,,,,,,,,,,,,,,,,,,,,,,,,,,,,,,,,,,,,,,,,,,,,,,,,,,,,,,,,,,,,,,,,,,,,,,,,,,,,,,,,,,,,,,,,,,,,,,,,,,,,,,,,,,,,,,,,,,,,,,,,,,,,,
,,657130845d83c7254900dcb2,2023-12-06_23h29.34.068,kallum_motion_pilot,2023.2.3,Win32,179.8561151,657130845d83c7254900dcb2,6560176e4d91f764e2a42c74,65715821591c60cd26d23cf8,0.08,0.08,1,18,180,114,1,sixfive,,,,,,,,,,,,,,,,,,,,,,,,,,,,,,,,,,,,,,,,,,,,,,,,,,,,,,,,,,,,,,,,,,,,,,,,,,,,,,,,,,,,,,,,,,,,,,,,,,,,,,,,,,,,,,,,,,,,,,,,,,,,,,,,,,,,,,,
,,657130845d83c7254900dcb2,2023-12-06_23h29.34.068,kallum_motion_pilot,2023.2.3,Win32,179.8561151,657130845d83c7254900dcb2,6560176e4d91f764e2a42c74,65715821591c60cd26d23cf8,0.08,0.08,1,19,181,155,1,sixeight,,,,,,,,,,,,,,,,,,,,,,,,,,,,,,,,,,,,,,,,,,,,,,,,,,,,,,,,,,,,,,,,,,,,,,,,,,,,,,,,,,,,,,,,,,,,,,,,,,,,,,,,,,,,,,,,,,,,,,,,,,,,,,,,,,,,,,,
,,657130845d83c7254900dcb2,2023-12-06_23h29.34.068,kallum_motion_pilot,2023.2.3,Win32,179.8561151,657130845d83c7254900dcb2,6560176e4d91f764e2a42c74,65715821591c60cd26d23cf8,0.081,0.081,1,20,182,115,1,sixeight,,,,,,,,,,,,,,,,,,,,,,,,,,,,,,,,,,,,,,,,,,,,,,,,,,,,,,,,,,,,,,,,,,,,,,,,,,,,,,,,,,,,,,,,,,,,,,,,,,,,,,,,,,,,,,,,,,,,,,,,,,,,,,,,,,,,,,,
,,657130845d83c7254900dcb2,2023-12-06_23h29.34.068,kallum_motion_pilot,2023.2.3,Win32,179.8561151,657130845d83c7254900dcb2,6560176e4d91f764e2a42c74,65715821591c60cd26d23cf8,0.081,0.081,1,21,183,64,1,onetwo,,,,,,,,,,,,,,,,,,,,,,,,,,,,,,,,,,,,,,,,,,,,,,,,,,,,,,,,,,,,,,,,,,,,,,,,,,,,,,,,,,,,,,,,,,,,,,,,,,,,,,,,,,,,,,,,,,,,,,,,,,,,,,,,,,,,,,,
,,657130845d83c7254900dcb2,2023-12-06_23h29.34.068,kallum_motion_pilot,2023.2.3,Win32,179.8561151,657130845d83c7254900dcb2,6560176e4d91f764e2a42c74,65715821591c60cd26d23cf8,0.081,0.081,1,22,184,160,1,fivesix,,,,,,,,,,,,,,,,,,,,,,,,,,,,,,,,,,,,,,,,,,,,,,,,,,,,,,,,,,,,,,,,,,,,,,,,,,,,,,,,,,,,,,,,,,,,,,,,,,,,,,,,,,,,,,,,,,,,,,,,,,,,,,,,,,,,,,,
,,657130845d83c7254900dcb2,2023-12-06_23h29.34.068,kallum_motion_pilot,2023.2.3,Win32,179.8561151,657130845d83c7254900dcb2,6560176e4d91f764e2a42c74,65715821591c60cd26d23cf8,0.081,0.081,1,23,185,78,1,fourtwo,,,,,,,,,,,,,,,,,,,,,,,,,,,,,,,,,,,,,,,,,,,,,,,,,,,,,,,,,,,,,,,,,,,,,,,,,,,,,,,,,,,,,,,,,,,,,,,,,,,,,,,,,,,,,,,,,,,,,,,,,,,,,,,,,,,,,,,
,,657130845d83c7254900dcb2,2023-12-06_23h29.34.068,kallum_motion_pilot,2023.2.3,Win32,179.8561151,657130845d83c7254900dcb2,6560176e4d91f764e2a42c74,65715821591c60cd26d23cf8,0.081,0.081,1,24,186,12,1,threeone,,,,,,,,,,,,,,,,,,,,,,,,,,,,,,,,,,,,,,,,,,,,,,,,,,,,,,,,,,,,,,,,,,,,,,,,,,,,,,,,,,,,,,,,,,,,,,,,,,,,,,,,,,,,,,,,,,,,,,,,,,,,,,,,,,,,,,,
,,657130845d83c7254900dcb2,2023-12-06_23h29.34.068,kallum_motion_pilot,2023.2.3,Win32,179.8561151,657130845d83c7254900dcb2,6560176e4d91f764e2a42c74,65715821591c60cd26d23cf8,0.081,0.081,1,25,187,17,1,onethree,,,,,,,,,,,,,,,,,,,,,,,,,,,,,,,,,,,,,,,,,,,,,,,,,,,,,,,,,,,,,,,,,,,,,,,,,,,,,,,,,,,,,,,,,,,,,,,,,,,,,,,,,,,,,,,,,,,,,,,,,,,,,,,,,,,,,,,
,,657130845d83c7254900dcb2,2023-12-06_23h29.34.068,kallum_motion_pilot,2023.2.3,Win32,179.8561151,657130845d83c7254900dcb2,6560176e4d91f764e2a42c74,65715821591c60cd26d23cf8,0.081,0.081,1,26,188,142,1,eightsix,,,,,,,,,,,,,,,,,,,,,,,,,,,,,,,,,,,,,,,,,,,,,,,,,,,,,,,,,,,,,,,,,,,,,,,,,,,,,,,,,,,,,,,,,,,,,,,,,,,,,,,,,,,,,,,,,,,,,,,,,,,,,,,,,,,,,,,
,,657130845d83c7254900dcb2,2023-12-06_23h29.34.068,kallum_motion_pilot,2023.2.3,Win32,179.8561151,657130845d83c7254900dcb2,6560176e4d91f764e2a42c74,65715821591c60cd26d23cf8,0.081,0.081,1,27,189,81,1,fiveseven,,,,,,,,,,,,,,,,,,,,,,,,,,,,,,,,,,,,,,,,,,,,,,,,,,,,,,,,,,,,,,,,,,,,,,,,,,,,,,,,,,,,,,,,,,,,,,,,,,,,,,,,,,,,,,,,,,,,,,,,,,,,,,,,,,,,,,,
,,657130845d83c7254900dcb2,2023-12-06_23h29.34.068,kallum_motion_pilot,2023.2.3,Win32,179.8561151,657130845d83c7254900dcb2,6560176e4d91f764e2a42c74,65715821591c60cd26d23cf8,0.081,0.081,1,28,190,88,1,fivesix,,,,,,,,,,,,,,,,,,,,,,,,,,,,,,,,,,,,,,,,,,,,,,,,,,,,,,,,,,,,,,,,,,,,,,,,,,,,,,,,,,,,,,,,,,,,,,,,,,,,,,,,,,,,,,,,,,,,,,,,,,,,,,,,,,,,,,,
,,657130845d83c7254900dcb2,2023-12-06_23h29.34.068,kallum_motion_pilot,2023.2.3,Win32,179.8561151,657130845d83c7254900dcb2,6560176e4d91f764e2a42c74,65715821591c60cd26d23cf8,0.081,0.081,1,29,191,72,1,onetwo,,,,,,,,,,,,,,,,,,,,,,,,,,,,,,,,,,,,,,,,,,,,,,,,,,,,,,,,,,,,,,,,,,,,,,,,,,,,,,,,,,,,,,,,,,,,,,,,,,,,,,,,,,,,,,,,,,,,,,,,,,,,,,,,,,,,,,,
,,657130845d83c7254900dcb2,2023-12-06_23h29.34.068,kallum_motion_pilot,2023.2.3,Win32,179.8561151,657130845d83c7254900dcb2,6560176e4d91f764e2a42c74,65715821591c60cd26d23cf8,0.081,0.081,1,30,192,149,1,seveneight,,,,,,,,,,,,,,,,,,,,,,,,,,,,,,,,,,,,,,,,,,,,,,,,,,,,,,,,,,,,,,,,,,,,,,,,,,,,,,,,,,,,,,,,,,,,,,,,,,,,,,,,,,,,,,,,,,,,,,,,,,,,,,,,,,,,,,,
,,657130845d83c7254900dcb2,2023-12-06_23h29.34.068,kallum_motion_pilot,2023.2.3,Win32,179.8561151,657130845d83c7254900dcb2,6560176e4d91f764e2a42c74,65715821591c60cd26d23cf8,0.082,0.082,1,31,193,117,1,seveneight,,,,,,,,,,,,,,,,,,,,,,,,,,,,,,,,,,,,,,,,,,,,,,,,,,,,,,,,,,,,,,,,,,,,,,,,,,,,,,,,,,,,,,,,,,,,,,,,,,,,,,,,,,,,,,,,,,,,,,,,,,,,,,,,,,,,,,,
,,657130845d83c7254900dcb2,2023-12-06_23h29.34.068,kallum_motion_pilot,2023.2.3,Win32,179.8561151,657130845d83c7254900dcb2,6560176e4d91f764e2a42c74,65715821591c60cd26d23cf8,0.082,0.082,1,32,194,38,1,fourtwo,,,,,,,,,,,,,,,,,,,,,,,,,,,,,,,,,,,,,,,,,,,,,,,,,,,,,,,,,,,,,,,,,,,,,,,,,,,,,,,,,,,,,,,,,,,,,,,,,,,,,,,,,,,,,,,,,,,,,,,,,,,,,,,,,,,,,,,
,,657130845d83c7254900dcb2,2023-12-06_23h29.34.068,kallum_motion_pilot,2023.2.3,Win32,179.8561151,657130845d83c7254900dcb2,6560176e4d91f764e2a42c74,65715821591c60cd26d23cf8,0.082,0.082,1,33,195,101,1,seveneight,,,,,,,,,,,,,,,,,,,,,,,,,,,,,,,,,,,,,,,,,,,,,,,,,,,,,,,,,,,,,,,,,,,,,,,,,,,,,,,,,,,,,,,,,,,,,,,,,,,,,,,,,,,,,,,,,,,,,,,,,,,,,,,,,,,,,,,
,,657130845d83c7254900dcb2,2023-12-06_23h29.34.068,kallum_motion_pilot,2023.2.3,Win32,179.8561151,657130845d83c7254900dcb2,6560176e4d91f764e2a42c74,65715821591c60cd26d23cf8,0.082,0.082,1,34,196,152,1,fivesix,,,,,,,,,,,,,,,,,,,,,,,,,,,,,,,,,,,,,,,,,,,,,,,,,,,,,,,,,,,,,,,,,,,,,,,,,,,,,,,,,,,,,,,,,,,,,,,,,,,,,,,,,,,,,,,,,,,,,,,,,,,,,,,,,,,,,,,
,,657130845d83c7254900dcb2,2023-12-06_23h29.34.068,kallum_motion_pilot,2023.2.3,Win32,179.8561151,657130845d83c7254900dcb2,6560176e4d91f764e2a42c74,65715821591c60cd26d23cf8,0.082,0.082,1,35,197,8,1,onetwo,,,,,,,,,,,,,,,,,,,,,,,,,,,,,,,,,,,,,,,,,,,,,,,,,,,,,,,,,,,,,,,,,,,,,,,,,,,,,,,,,,,,,,,,,,,,,,,,,,,,,,,,,,,,,,,,,,,,,,,,,,,,,,,,,,,,,,,
,,657130845d83c7254900dcb2,2023-12-06_23h29.34.068,kallum_motion_pilot,2023.2.3,Win32,179.8561151,657130845d83c7254900dcb2,6560176e4d91f764e2a42c74,65715821591c60cd26d23cf8,0.082,0.082,1,36,198,135,1,eightseven,,,,,,,,,,,,,,,,,,,,,,,,,,,,,,,,,,,,,,,,,,,,,,,,,,,,,,,,,,,,,,,,,,,,,,,,,,,,,,,,,,,,,,,,,,,,,,,,,,,,,,,,,,,,,,,,,,,,,,,,,,,,,,,,,,,,,,,
,,657130845d83c7254900dcb2,2023-12-06_23h29.34.068,kallum_motion_pilot,2023.2.3,Win32,179.8561151,657130845d83c7254900dcb2,6560176e4d91f764e2a42c74,65715821591c60cd26d23cf8,0.082,0.082,1,37,199,10,1,twoone,,,,,,,,,,,,,,,,,,,,,,,,,,,,,,,,,,,,,,,,,,,,,,,,,,,,,,,,,,,,,,,,,,,,,,,,,,,,,,,,,,,,,,,,,,,,,,,,,,,,,,,,,,,,,,,,,,,,,,,,,,,,,,,,,,,,,,,
,,657130845d83c7254900dcb2,2023-12-06_23h29.34.068,kallum_motion_pilot,2023.2.3,Win32,179.8561151,657130845d83c7254900dcb2,6560176e4d91f764e2a42c74,65715821591c60cd26d23cf8,0.082,0.082,1,38,200,20,1,threeone,,,,,,,,,,,,,,,,,,,,,,,,,,,,,,,,,,,,,,,,,,,,,,,,,,,,,,,,,,,,,,,,,,,,,,,,,,,,,,,,,,,,,,,,,,,,,,,,,,,,,,,,,,,,,,,,,,,,,,,,,,,,,,,,,,,,,,,
,,657130845d83c7254900dcb2,2023-12-06_23h29.34.068,kallum_motion_pilot,2023.2.3,Win32,179.8561151,657130845d83c7254900dcb2,6560176e4d91f764e2a42c74,65715821591c60cd26d23cf8,0.082,0.082,1,39,201,9,1,onethree,,,,,,,,,,,,,,,,,,,,,,,,,,,,,,,,,,,,,,,,,,,,,,,,,,,,,,,,,,,,,,,,,,,,,,,,,,,,,,,,,,,,,,,,,,,,,,,,,,,,,,,,,,,,,,,,,,,,,,,,,,,,,,,,,,,,,,,
,,657130845d83c7254900dcb2,2023-12-06_23h29.34.068,kallum_motion_pilot,2023.2.3,Win32,179.8561151,657130845d83c7254900dcb2,6560176e4d91f764e2a42c74,65715821591c60cd26d23cf8,0.082,0.082,1,40,202,14,1,fourtwo,,,,,,,,,,,,,,,,,,,,,,,,,,,,,,,,,,,,,,,,,,,,,,,,,,,,,,,,,,,,,,,,,,,,,,,,,,,,,,,,,,,,,,,,,,,,,,,,,,,,,,,,,,,,,,,,,,,,,,,,,,,,,,,,,,,,,,,
,,657130845d83c7254900dcb2,2023-12-06_23h29.34.068,kallum_motion_pilot,2023.2.3,Win32,179.8561151,657130845d83c7254900dcb2,6560176e4d91f764e2a42c74,65715821591c60cd26d23cf8,0.083,0.083,1,41,203,7,1,fourthree,,,,,,,,,,,,,,,,,,,,,,,,,,,,,,,,,,,,,,,,,,,,,,,,,,,,,,,,,,,,,,,,,,,,,,,,,,,,,,,,,,,,,,,,,,,,,,,,,,,,,,,,,,,,,,,,,,,,,,,,,,,,,,,,,,,,,,,
,,657130845d83c7254900dcb2,2023-12-06_23h29.34.068,kallum_motion_pilot,2023.2.3,Win32,179.8561151,657130845d83c7254900dcb2,6560176e4d91f764e2a42c74,65715821591c60cd26d23cf8,0.083,0.083,1,42,204,136,1,fivesix,,,,,,,,,,,,,,,,,,,,,,,,,,,,,,,,,,,,,,,,,,,,,,,,,,,,,,,,,,,,,,,,,,,,,,,,,,,,,,,,,,,,,,,,,,,,,,,,,,,,,,,,,,,,,,,,,,,,,,,,,,,,,,,,,,,,,,,
,,657130845d83c7254900dcb2,2023-12-06_23h29.34.068,kallum_motion_pilot,2023.2.3,Win32,179.8561151,657130845d83c7254900dcb2,6560176e4d91f764e2a42c74,65715821591c60cd26d23cf8,0.083,0.083,1,43,205,15,1,fourthree,,,,,,,,,,,,,,,,,,,,,,,,,,,,,,,,,,,,,,,,,,,,,,,,,,,,,,,,,,,,,,,,,,,,,,,,,,,,,,,,,,,,,,,,,,,,,,,,,,,,,,,,,,,,,,,,,,,,,,,,,,,,,,,,,,,,,,,
,,657130845d83c7254900dcb2,2023-12-06_23h29.34.068,kallum_motion_pilot,2023.2.3,Win32,179.8561151,657130845d83c7254900dcb2,6560176e4d91f764e2a42c74,65715821591c60cd26d23cf8,0.083,0.083,1,44,206,96,1,fivesix,,,,,,,,,,,,,,,,,,,,,,,,,,,,,,,,,,,,,,,,,,,,,,,,,,,,,,,,,,,,,,,,,,,,,,,,,,,,,,,,,,,,,,,,,,,,,,,,,,,,,,,,,,,,,,,,,,,,,,,,,,,,,,,,,,,,,,,
,,657130845d83c7254900dcb2,2023-12-06_23h29.34.068,kallum_motion_pilot,2023.2.3,Win32,179.8561151,657130845d83c7254900dcb2,6560176e4d91f764e2a42c74,65715821591c60cd26d23cf8,0.083,0.083,1,45,207,19,1,twofour,,,,,,,,,,,,,,,,,,,,,,,,,,,,,,,,,,,,,,,,,,,,,,,,,,,,,,,,,,,,,,,,,,,,,,,,,,,,,,,,,,,,,,,,,,,,,,,,,,,,,,,,,,,,,,,,,,,,,,,,,,,,,,,,,,,,,,,
,,657130845d83c7254900dcb2,2023-12-06_23h29.34.068,kallum_motion_pilot,2023.2.3,Win32,179.8561151,657130845d83c7254900dcb2,6560176e4d91f764e2a42c74,65715821591c60cd26d23cf8,0.083,0.083,1,46,208,57,1,onethree,,,,,,,,,,,,,,,,,,,,,,,,,,,,,,,,,,,,,,,,,,,,,,,,,,,,,,,,,,,,,,,,,,,,,,,,,,,,,,,,,,,,,,,,,,,,,,,,,,,,,,,,,,,,,,,,,,,,,,,,,,,,,,,,,,,,,,,
,,657130845d83c7254900dcb2,2023-12-06_23h29.34.068,kallum_motion_pilot,2023.2.3,Win32,179.8561151,657130845d83c7254900dcb2,6560176e4d91f764e2a42c74,65715821591c60cd26d23cf8,0.083,0.083,1,47,209,47,1,fourthree,,,,,,,,,,,,,,,,,,,,,,,,,,,,,,,,,,,,,,,,,,,,,,,,,,,,,,,,,,,,,,,,,,,,,,,,,,,,,,,,,,,,,,,,,,,,,,,,,,,,,,,,,,,,,,,,,,,,,,,,,,,,,,,,,,,,,,,
,,657130845d83c7254900dcb2,2023-12-06_23h29.34.068,kallum_motion_pilot,2023.2.3,Win32,179.8561151,657130845d83c7254900dcb2,6560176e4d91f764e2a42c74,65715821591c60cd26d23cf8,0.083,0.083,1,48,210,80,1,fivesix,,,,,,,,,,,,,,,,,,,,,,,,,,,,,,,,,,,,,,,,,,,,,,,,,,,,,,,,,,,,,,,,,,,,,,,,,,,,,,,,,,,,,,,,,,,,,,,,,,,,,,,,,,,,,,,,,,,,,,,,,,,,,,,,,,,,,,,
,,657130845d83c7254900dcb2,2023-12-06_23h29.34.068,kallum_motion_pilot,2023.2.3,Win32,179.8561151,657130845d83c7254900dcb2,6560176e4d91f764e2a42c74,65715821591c60cd26d23cf8,0.083,0.083,1,49,211,111,1,eightseven,,,,,,,,,,,,,,,,,,,,,,,,,,,,,,,,,,,,,,,,,,,,,,,,,,,,,,,,,,,,,,,,,,,,,,,,,,,,,,,,,,,,,,,,,,,,,,,,,,,,,,,,,,,,,,,,,,,,,,,,,,,,,,,,,,,,,,,
,,657130845d83c7254900dcb2,2023-12-06_23h29.34.068,kallum_motion_pilot,2023.2.3,Win32,179.8561151,657130845d83c7254900dcb2,6560176e4d91f764e2a42c74,65715821591c60cd26d23cf8,0.083,0.083,1,50,212,73,1,onethree,,,,,,,,,,,,,,,,,,,,,,,,,,,,,,,,,,,,,,,,,,,,,,,,,,,,,,,,,,,,,,,,,,,,,,,,,,,,,,,,,,,,,,,,,,,,,,,,,,,,,,,,,,,,,,,,,,,,,,,,,,,,,,,,,,,,,,,
,,657130845d83c7254900dcb2,2023-12-06_23h29.34.068,kallum_motion_pilot,2023.2.3,Win32,179.8561151,657130845d83c7254900dcb2,6560176e4d91f764e2a42c74,65715821591c60cd26d23cf8,0.083,0.084,1,51,213,39,1,fourthree,,,,,,,,,,,,,,,,,,,,,,,,,,,,,,,,,,,,,,,,,,,,,,,,,,,,,,,,,,,,,,,,,,,,,,,,,,,,,,,,,,,,,,,,,,,,,,,,,,,,,,,,,,,,,,,,,,,,,,,,,,,,,,,,,,,,,,,
,,657130845d83c7254900dcb2,2023-12-06_23h29.34.068,kallum_motion_pilot,2023.2.3,Win32,179.8561151,657130845d83c7254900dcb2,6560176e4d91f764e2a42c74,65715821591c60cd26d23cf8,0.084,0.084,1,52,214,6,1,fourtwo,,,,,,,,,,,,,,,,,,,,,,,,,,,,,,,,,,,,,,,,,,,,,,,,,,,,,,,,,,,,,,,,,,,,,,,,,,,,,,,,,,,,,,,,,,,,,,,,,,,,,,,,,,,,,,,,,,,,,,,,,,,,,,,,,,,,,,,
,,657130845d83c7254900dcb2,2023-12-06_23h29.34.068,kallum_motion_pilot,2023.2.3,Win32,179.8561151,657130845d83c7254900dcb2,6560176e4d91f764e2a42c74,65715821591c60cd26d23cf8,0.084,0.084,1,53,215,123,1,sixeight,,,,,,,,,,,,,,,,,,,,,,,,,,,,,,,,,,,,,,,,,,,,,,,,,,,,,,,,,,,,,,,,,,,,,,,,,,,,,,,,,,,,,,,,,,,,,,,,,,,,,,,,,,,,,,,,,,,,,,,,,,,,,,,,,,,,,,,
,,657130845d83c7254900dcb2,2023-12-06_23h29.34.068,kallum_motion_pilot,2023.2.3,Win32,179.8561151,657130845d83c7254900dcb2,6560176e4d91f764e2a42c74,65715821591c60cd26d23cf8,0.084,0.084,1,54,216,116,1,sevenfive,,,,,,,,,,,,,,,,,,,,,,,,,,,,,,,,,,,,,,,,,,,,,,,,,,,,,,,,,,,,,,,,,,,,,,,,,,,,,,,,,,,,,,,,,,,,,,,,,,,,,,,,,,,,,,,,,,,,,,,,,,,,,,,,,,,,,,,
,,657130845d83c7254900dcb2,2023-12-06_23h29.34.068,kallum_motion_pilot,2023.2.3,Win32,179.8561151,657130845d83c7254900dcb2,6560176e4d91f764e2a42c74,65715821591c60cd26d23cf8,0.084,0.084,1,55,217,131,1,sixeight,,,,,,,,,,,,,,,,,,,,,,,,,,,,,,,,,,,,,,,,,,,,,,,,,,,,,,,,,,,,,,,,,,,,,,,,,,,,,,,,,,,,,,,,,,,,,,,,,,,,,,,,,,,,,,,,,,,,,,,,,,,,,,,,,,,,,,,
,,657130845d83c7254900dcb2,2023-12-06_23h29.34.068,kallum_motion_pilot,2023.2.3,Win32,179.8561151,657130845d83c7254900dcb2,6560176e4d91f764e2a42c74,65715821591c60cd26d23cf8,0.084,0.084,1,56,218,43,1,twofour,,,,,,,,,,,,,,,,,,,,,,,,,,,,,,,,,,,,,,,,,,,,,,,,,,,,,,,,,,,,,,,,,,,,,,,,,,,,,,,,,,,,,,,,,,,,,,,,,,,,,,,,,,,,,,,,,,,,,,,,,,,,,,,,,,,,,,,
,,657130845d83c7254900dcb2,2023-12-06_23h29.34.068,kallum_motion_pilot,2023.2.3,Win32,179.8561151,657130845d83c7254900dcb2,6560176e4d91f764e2a42c74,65715821591c60cd26d23cf8,0.084,0.084,1,57,219,122,1,sixfive,,,,,,,,,,,,,,,,,,,,,,,,,,,,,,,,,,,,,,,,,,,,,,,,,,,,,,,,,,,,,,,,,,,,,,,,,,,,,,,,,,,,,,,,,,,,,,,,,,,,,,,,,,,,,,,,,,,,,,,,,,,,,,,,,,,,,,,
,,657130845d83c7254900dcb2,2023-12-06_23h29.34.068,kallum_motion_pilot,2023.2.3,Win32,179.8561151,657130845d83c7254900dcb2,6560176e4d91f764e2a42c74,65715821591c60cd26d23cf8,0.084,0.084,1,58,220,27,1,twofour,,,,,,,,,,,,,,,,,,,,,,,,,,,,,,,,,,,,,,,,,,,,,,,,,,,,,,,,,,,,,,,,,,,,,,,,,,,,,,,,,,,,,,,,,,,,,,,,,,,,,,,,,,,,,,,,,,,,,,,,,,,,,,,,,,,,,,,
,,657130845d83c7254900dcb2,2023-12-06_23h29.34.068,kallum_motion_pilot,2023.2.3,Win32,179.8561151,657130845d83c7254900dcb2,6560176e4d91f764e2a42c74,65715821591c60cd26d23cf8,0.084,0.084,1,59,221,87,1,eightseven,,,,,,,,,,,,,,,,,,,,,,,,,,,,,,,,,,,,,,,,,,,,,,,,,,,,,,,,,,,,,,,,,,,,,,,,,,,,,,,,,,,,,,,,,,,,,,,,,,,,,,,,,,,,,,,,,,,,,,,,,,,,,,,,,,,,,,,
,,657130845d83c7254900dcb2,2023-12-06_23h29.34.068,kallum_motion_pilot,2023.2.3,Win32,179.8561151,657130845d83c7254900dcb2,6560176e4d91f764e2a42c74,65715821591c60cd26d23cf8,0.084,0.084,1,60,222,113,1,fiveseven,,,,,,,,,,,,,,,,,,,,,,,,,,,,,,,,,,,,,,,,,,,,,,,,,,,,,,,,,,,,,,,,,,,,,,,,,,,,,,,,,,,,,,,,,,,,,,,,,,,,,,,,,,,,,,,,,,,,,,,,,,,,,,,,,,,,,,,
,,657130845d83c7254900dcb2,2023-12-06_23h29.34.068,kallum_motion_pilot,2023.2.3,Win32,179.8561151,657130845d83c7254900dcb2,6560176e4d91f764e2a42c74,65715821591c60cd26d23cf8,0.085,0.085,1,61,223,29,1,threefour,,,,,,,,,,,,,,,,,,,,,,,,,,,,,,,,,,,,,,,,,,,,,,,,,,,,,,,,,,,,,,,,,,,,,,,,,,,,,,,,,,,,,,,,,,,,,,,,,,,,,,,,,,,,,,,,,,,,,,,,,,,,,,,,,,,,,,,
,,657130845d83c7254900dcb2,2023-12-06_23h29.34.068,kallum_motion_pilot,2023.2.3,Win32,179.8561151,657130845d83c7254900dcb2,6560176e4d91f764e2a42c74,65715821591c60cd26d23cf8,0.085,0.085,1,62,224,1,1,onethree,,,,,,,,,,,,,,,,,,,,,,,,,,,,,,,,,,,,,,,,,,,,,,,,,,,,,,,,,,,,,,,,,,,,,,,,,,,,,,,,,,,,,,,,,,,,,,,,,,,,,,,,,,,,,,,,,,,,,,,,,,,,,,,,,,,,,,,
,,657130845d83c7254900dcb2,2023-12-06_23h29.34.068,kallum_motion_pilot,2023.2.3,Win32,179.8561151,657130845d83c7254900dcb2,6560176e4d91f764e2a42c74,65715821591c60cd26d23cf8,0.085,0.085,1,63,225,41,1,onethree,,,,,,,,,,,,,,,,,,,,,,,,,,,,,,,,,,,,,,,,,,,,,,,,,,,,,,,,,,,,,,,,,,,,,,,,,,,,,,,,,,,,,,,,,,,,,,,,,,,,,,,,,,,,,,,,,,,,,,,,,,,,,,,,,,,,,,,
,,657130845d83c7254900dcb2,2023-12-06_23h29.34.068,kallum_motion_pilot,2023.2.3,Win32,179.8561151,657130845d83c7254900dcb2,6560176e4d91f764e2a42c74,65715821591c60cd26d23cf8,0.085,0.085,1,64,226,141,1,seveneight,,,,,,,,,,,,,,,,,,,,,,,,,,,,,,,,,,,,,,,,,,,,,,,,,,,,,,,,,,,,,,,,,,,,,,,,,,,,,,,,,,,,,,,,,,,,,,,,,,,,,,,,,,,,,,,,,,,,,,,,,,,,,,,,,,,,,,,
,,657130845d83c7254900dcb2,2023-12-06_23h29.34.068,kallum_motion_pilot,2023.2.3,Win32,179.8561151,657130845d83c7254900dcb2,6560176e4d91f764e2a42c74,65715821591c60cd26d23cf8,0.085,0.085,1,65,227,45,1,threefour,,,,,,,,,,,,,,,,,,,,,,,,,,,,,,,,,,,,,,,,,,,,,,,,,,,,,,,,,,,,,,,,,,,,,,,,,,,,,,,,,,,,,,,,,,,,,,,,,,,,,,,,,,,,,,,,,,,,,,,,,,,,,,,,,,,,,,,
,,657130845d83c7254900dcb2,2023-12-06_23h29.34.068,kallum_motion_pilot,2023.2.3,Win32,179.8561151,657130845d83c7254900dcb2,6560176e4d91f764e2a42c74,65715821591c60cd26d23cf8,0.085,0.085,1,66,228,23,1,fourthree,,,,,,,,,,,,,,,,,,,,,,,,,,,,,,,,,,,,,,,,,,,,,,,,,,,,,,,,,,,,,,,,,,,,,,,,,,,,,,,,,,,,,,,,,,,,,,,,,,,,,,,,,,,,,,,,,,,,,,,,,,,,,,,,,,,,,,,
,,657130845d83c7254900dcb2,2023-12-06_23h29.34.068,kallum_motion_pilot,2023.2.3,Win32,179.8561151,657130845d83c7254900dcb2,6560176e4d91f764e2a42c74,65715821591c60cd26d23cf8,0.085,0.085,1,67,229,35,1,twofour,,,,,,,,,,,,,,,,,,,,,,,,,,,,,,,,,,,,,,,,,,,,,,,,,,,,,,,,,,,,,,,,,,,,,,,,,,,,,,,,,,,,,,,,,,,,,,,,,,,,,,,,,,,,,,,,,,,,,,,,,,,,,,,,,,,,,,,
,,657130845d83c7254900dcb2,2023-12-06_23h29.34.068,kallum_motion_pilot,2023.2.3,Win32,179.8561151,657130845d83c7254900dcb2,6560176e4d91f764e2a42c74,65715821591c60cd26d23cf8,0.085,0.085,1,68,230,5,1,threefour,,,,,,,,,,,,,,,,,,,,,,,,,,,,,,,,,,,,,,,,,,,,,,,,,,,,,,,,,,,,,,,,,,,,,,,,,,,,,,,,,,,,,,,,,,,,,,,,,,,,,,,,,,,,,,,,,,,,,,,,,,,,,,,,,,,,,,,
,,657130845d83c7254900dcb2,2023-12-06_23h29.34.068,kallum_motion_pilot,2023.2.3,Win32,179.8561151,657130845d83c7254900dcb2,6560176e4d91f764e2a42c74,65715821591c60cd26d23cf8,0.085,0.085,1,69,231,51,1,twofour,,,,,,,,,,,,,,,,,,,,,,,,,,,,,,,,,,,,,,,,,,,,,,,,,,,,,,,,,,,,,,,,,,,,,,,,,,,,,,,,,,,,,,,,,,,,,,,,,,,,,,,,,,,,,,,,,,,,,,,,,,,,,,,,,,,,,,,
,,657130845d83c7254900dcb2,2023-12-06_23h29.34.068,kallum_motion_pilot,2023.2.3,Win32,179.8561151,657130845d83c7254900dcb2,6560176e4d91f764e2a42c74,65715821591c60cd26d23cf8,0.085,0.085,1,70,232,65,1,onethree,,,,,,,,,,,,,,,,,,,,,,,,,,,,,,,,,,,,,,,,,,,,,,,,,,,,,,,,,,,,,,,,,,,,,,,,,,,,,,,,,,,,,,,,,,,,,,,,,,,,,,,,,,,,,,,,,,,,,,,,,,,,,,,,,,,,,,,
,,657130845d83c7254900dcb2,2023-12-06_23h29.34.068,kallum_motion_pilot,2023.2.3,Win32,179.8561151,657130845d83c7254900dcb2,6560176e4d91f764e2a42c74,65715821591c60cd26d23cf8,0.085,0.085,1,71,233,134,1,eightsix,,,,,,,,,,,,,,,,,,,,,,,,,,,,,,,,,,,,,,,,,,,,,,,,,,,,,,,,,,,,,,,,,,,,,,,,,,,,,,,,,,,,,,,,,,,,,,,,,,,,,,,,,,,,,,,,,,,,,,,,,,,,,,,,,,,,,,,
,,657130845d83c7254900dcb2,2023-12-06_23h29.34.068,kallum_motion_pilot,2023.2.3,Win32,179.8561151,657130845d83c7254900dcb2,6560176e4d91f764e2a42c74,65715821591c60cd26d23cf8,0.086,0.086,1,72,234,139,1,sixeight,,,,,,,,,,,,,,,,,,,,,,,,,,,,,,,,,,,,,,,,,,,,,,,,,,,,,,,,,,,,,,,,,,,,,,,,,,,,,,,,,,,,,,,,,,,,,,,,,,,,,,,,,,,,,,,,,,,,,,,,,,,,,,,,,,,,,,,
,,657130845d83c7254900dcb2,2023-12-06_23h29.34.068,kallum_motion_pilot,2023.2.3,Win32,179.8561151,657130845d83c7254900dcb2,6560176e4d91f764e2a42c74,65715821591c60cd26d23cf8,0.086,0.086,1,73,235,147,1,sixeight,,,,,,,,,,,,,,,,,,,,,,,,,,,,,,,,,,,,,,,,,,,,,,,,,,,,,,,,,,,,,,,,,,,,,,,,,,,,,,,,,,,,,,,,,,,,,,,,,,,,,,,,,,,,,,,,,,,,,,,,,,,,,,,,,,,,,,,
,,657130845d83c7254900dcb2,2023-12-06_23h29.34.068,kallum_motion_pilot,2023.2.3,Win32,179.8561151,657130845d83c7254900dcb2,6560176e4d91f764e2a42c74,65715821591c60cd26d23cf8,0.086,0.086,1,74,236,30,1,fourtwo,,,,,,,,,,,,,,,,,,,,,,,,,,,,,,,,,,,,,,,,,,,,,,,,,,,,,,,,,,,,,,,,,,,,,,,,,,,,,,,,,,,,,,,,,,,,,,,,,,,,,,,,,,,,,,,,,,,,,,,,,,,,,,,,,,,,,,,
,,657130845d83c7254900dcb2,2023-12-06_23h29.34.068,kallum_motion_pilot,2023.2.3,Win32,179.8561151,657130845d83c7254900dcb2,6560176e4d91f764e2a42c74,65715821591c60cd26d23cf8,0.086,0.086,1,75,237,89,1,fiveseven,,,,,,,,,,,,,,,,,,,,,,,,,,,,,,,,,,,,,,,,,,,,,,,,,,,,,,,,,,,,,,,,,,,,,,,,,,,,,,,,,,,,,,,,,,,,,,,,,,,,,,,,,,,,,,,,,,,,,,,,,,,,,,,,,,,,,,,
,,657130845d83c7254900dcb2,2023-12-06_23h29.34.068,kallum_motion_pilot,2023.2.3,Win32,179.8561151,657130845d83c7254900dcb2,6560176e4d91f764e2a42c74,65715821591c60cd26d23cf8,0.086,0.086,1,76,238,107,1,sixeight,,,,,,,,,,,,,,,,,,,,,,,,,,,,,,,,,,,,,,,,,,,,,,,,,,,,,,,,,,,,,,,,,,,,,,,,,,,,,,,,,,,,,,,,,,,,,,,,,,,,,,,,,,,,,,,,,,,,,,,,,,,,,,,,,,,,,,,
,,657130845d83c7254900dcb2,2023-12-06_23h29.34.068,kallum_motion_pilot,2023.2.3,Win32,179.8561151,657130845d83c7254900dcb2,6560176e4d91f764e2a42c74,65715821591c60cd26d23cf8,0.086,0.086,1,77,239,151,1,eightseven,,,,,,,,,,,,,,,,,,,,,,,,,,,,,,,,,,,,,,,,,,,,,,,,,,,,,,,,,,,,,,,,,,,,,,,,,,,,,,,,,,,,,,,,,,,,,,,,,,,,,,,,,,,,,,,,,,,,,,,,,,,,,,,,,,,,,,,
,,657130845d83c7254900dcb2,2023-12-06_23h29.34.068,kallum_motion_pilot,2023.2.3,Win32,179.8561151,657130845d83c7254900dcb2,6560176e4d91f764e2a42c74,65715821591c60cd26d23cf8,0.087,0.087,1,78,240,54,1,fourtwo,,,,,,,,,,,,,,,,,,,,,,,,,,,,,,,,,,,,,,,,,,,,,,,,,,,,,,,,,,,,,,,,,,,,,,,,,,,,,,,,,,,,,,,,,,,,,,,,,,,,,,,,,,,,,,,,,,,,,,,,,,,,,,,,,,,,,,,
,,657130845d83c7254900dcb2,2023-12-06_23h29.34.068,kallum_motion_pilot,2023.2.3,Win32,179.8561151,657130845d83c7254900dcb2,6560176e4d91f764e2a42c74,65715821591c60cd26d23cf8,0.087,0.087,1,79,241,25,1,onethree,,,,,,,,,,,,,,,,,,,,,,,,,,,,,,,,,,,,,,,,,,,,,,,,,,,,,,,,,,,,,,,,,,,,,,,,,,,,,,,,,,,,,,,,,,,,,,,,,,,,,,,,,,,,,,,,,,,,,,,,,,,,,,,,,,,,,,,
,,657130845d83c7254900dcb2,2023-12-06_23h29.34.068,kallum_motion_pilot,2023.2.3,Win32,179.8561151,657130845d83c7254900dcb2,6560176e4d91f764e2a42c74,65715821591c60cd26d23cf8,0.087,0.087,1,80,242,11,1,twofour,,,,,,,,,,,,,,,,,,,,,,,,,,,,,,,,,,,,,,,,,,,,,,,,,,,,,,,,,,,,,,,,,,,,,,,,,,,,,,,,,,,,,,,,,,,,,,,,,,,,,,,,,,,,,,,,,,,,,,,,,,,,,,,,,,,,,,,
,,657130845d83c7254900dcb2,2023-12-06_23h29.34.068,kallum_motion_pilot,2023.2.3,Win32,179.8561151,657130845d83c7254900dcb2,6560176e4d91f764e2a42c74,65715821591c60cd26d23cf8,0.087,0.087,1,81,243,144,1,fivesix,,,,,,,,,,,,,,,,,,,,,,,,,,,,,,,,,,,,,,,,,,,,,,,,,,,,,,,,,,,,,,,,,,,,,,,,,,,,,,,,,,,,,,,,,,,,,,,,,,,,,,,,,,,,,,,,,,,,,,,,,,,,,,,,,,,,,,,
,,657130845d83c7254900dcb2,2023-12-06_23h29.34.068,kallum_motion_pilot,2023.2.3,Win32,179.8561151,657130845d83c7254900dcb2,6560176e4d91f764e2a42c74,65715821591c60cd26d23cf8,0.087,0.087,1,82,244,59,1,twofour,,,,,,,,,,,,,,,,,,,,,,,,,,,,,,,,,,,,,,,,,,,,,,,,,,,,,,,,,,,,,,,,,,,,,,,,,,,,,,,,,,,,,,,,,,,,,,,,,,,,,,,,,,,,,,,,,,,,,,,,,,,,,,,,,,,,,,,
,,657130845d83c7254900dcb2,2023-12-06_23h29.34.068,kallum_motion_pilot,2023.2.3,Win32,179.8561151,657130845d83c7254900dcb2,6560176e4d91f764e2a42c74,65715821591c60cd26d23cf8,0.087,0.087,1,83,245,34,1,twoone,,,,,,,,,,,,,,,,,,,,,,,,,,,,,,,,,,,,,,,,,,,,,,,,,,,,,,,,,,,,,,,,,,,,,,,,,,,,,,,,,,,,,,,,,,,,,,,,,,,,,,,,,,,,,,,,,,,,,,,,,,,,,,,,,,,,,,,
,,657130845d83c7254900dcb2,2023-12-06_23h29.34.068,kallum_motion_pilot,2023.2.3,Win32,179.8561151,657130845d83c7254900dcb2,6560176e4d91f764e2a42c74,65715821591c60cd26d23cf8,0.087,0.087,1,84,246,98,1,sixfive,,,,,,,,,,,,,,,,,,,,,,,,,,,,,,,,,,,,,,,,,,,,,,,,,,,,,,,,,,,,,,,,,,,,,,,,,,,,,,,,,,,,,,,,,,,,,,,,,,,,,,,,,,,,,,,,,,,,,,,,,,,,,,,,,,,,,,,
,,657130845d83c7254900dcb2,2023-12-06_23h29.34.068,kallum_motion_pilot,2023.2.3,Win32,179.8561151,657130845d83c7254900dcb2,6560176e4d91f764e2a42c74,65715821591c60cd26d23cf8,0.087,0.087,1,85,247,71,1,fourthree,,,,,,,,,,,,,,,,,,,,,,,,,,,,,,,,,,,,,,,,,,,,,,,,,,,,,,,,,,,,,,,,,,,,,,,,,,,,,,,,,,,,,,,,,,,,,,,,,,,,,,,,,,,,,,,,,,,,,,,,,,,,,,,,,,,,,,,
,,657130845d83c7254900dcb2,2023-12-06_23h29.34.068,kallum_motion_pilot,2023.2.3,Win32,179.8561151,657130845d83c7254900dcb2,6560176e4d91f764e2a42c74,65715821591c60cd26d23cf8,0.087,0.087,1,86,248,69,1,threefour,,,,,,,,,,,,,,,,,,,,,,,,,,,,,,,,,,,,,,,,,,,,,,,,,,,,,,,,,,,,,,,,,,,,,,,,,,,,,,,,,,,,,,,,,,,,,,,,,,,,,,,,,,,,,,,,,,,,,,,,,,,,,,,,,,,,,,,
,,657130845d83c7254900dcb2,2023-12-06_23h29.34.068,kallum_motion_pilot,2023.2.3,Win32,179.8561151,657130845d83c7254900dcb2,6560176e4d91f764e2a42c74,65715821591c60cd26d23cf8,0.087,0.087,1,87,249,158,1,eightsix,,,,,,,,,,,,,,,,,,,,,,,,,,,,,,,,,,,,,,,,,,,,,,,,,,,,,,,,,,,,,,,,,,,,,,,,,,,,,,,,,,,,,,,,,,,,,,,,,,,,,,,,,,,,,,,,,,,,,,,,,,,,,,,,,,,,,,,
,,657130845d83c7254900dcb2,2023-12-06_23h29.34.068,kallum_motion_pilot,2023.2.3,Win32,179.8561151,657130845d83c7254900dcb2,6560176e4d91f764e2a42c74,65715821591c60cd26d23cf8,0.087,0.087,1,88,250,94,1,eightsix,,,,,,,,,,,,,,,,,,,,,,,,,,,,,,,,,,,,,,,,,,,,,,,,,,,,,,,,,,,,,,,,,,,,,,,,,,,,,,,,,,,,,,,,,,,,,,,,,,,,,,,,,,,,,,,,,,,,,,,,,,,,,,,,,,,,,,,
,,657130845d83c7254900dcb2,2023-12-06_23h29.34.068,kallum_motion_pilot,2023.2.3,Win32,179.8561151,657130845d83c7254900dcb2,6560176e4d91f764e2a42c74,65715821591c60cd26d23cf8,0.087,0.087,1,89,251,37,1,threefour,,,,,,,,,,,,,,,,,,,,,,,,,,,,,,,,,,,,,,,,,,,,,,,,,,,,,,,,,,,,,,,,,,,,,,,,,,,,,,,,,,,,,,,,,,,,,,,,,,,,,,,,,,,,,,,,,,,,,,,,,,,,,,,,,,,,,,,
,,657130845d83c7254900dcb2,2023-12-06_23h29.34.068,kallum_motion_pilot,2023.2.3,Win32,179.8561151,657130845d83c7254900dcb2,6560176e4d91f764e2a42c74,65715821591c60cd26d23cf8,0.088,0.088,1,90,252,4,1,threeone,,,,,,,,,,,,,,,,,,,,,,,,,,,,,,,,,,,,,,,,,,,,,,,,,,,,,,,,,,,,,,,,,,,,,,,,,,,,,,,,,,,,,,,,,,,,,,,,,,,,,,,,,,,,,,,,,,,,,,,,,,,,,,,,,,,,,,,
,,657130845d83c7254900dcb2,2023-12-06_23h29.34.068,kallum_motion_pilot,2023.2.3,Win32,179.8561151,657130845d83c7254900dcb2,6560176e4d91f764e2a42c74,65715821591c60cd26d23cf8,0.088,0.088,1,91,253,85,1,seveneight,,,,,,,,,,,,,,,,,,,,,,,,,,,,,,,,,,,,,,,,,,,,,,,,,,,,,,,,,,,,,,,,,,,,,,,,,,,,,,,,,,,,,,,,,,,,,,,,,,,,,,,,,,,,,,,,,,,,,,,,,,,,,,,,,,,,,,,
,,657130845d83c7254900dcb2,2023-12-06_23h29.34.068,kallum_motion_pilot,2023.2.3,Win32,179.8561151,657130845d83c7254900dcb2,6560176e4d91f764e2a42c74,65715821591c60cd26d23cf8,0.088,0.088,1,92,254,124,1,sevenfive,,,,,,,,,,,,,,,,,,,,,,,,,,,,,,,,,,,,,,,,,,,,,,,,,,,,,,,,,,,,,,,,,,,,,,,,,,,,,,,,,,,,,,,,,,,,,,,,,,,,,,,,,,,,,,,,,,,,,,,,,,,,,,,,,,,,,,,
,,657130845d83c7254900dcb2,2023-12-06_23h29.34.068,kallum_motion_pilot,2023.2.3,Win32,179.8561151,657130845d83c7254900dcb2,6560176e4d91f764e2a42c74,65715821591c60cd26d23cf8,0.088,0.088,1,93,255,133,1,seveneight,,,,,,,,,,,,,,,,,,,,,,,,,,,,,,,,,,,,,,,,,,,,,,,,,,,,,,,,,,,,,,,,,,,,,,,,,,,,,,,,,,,,,,,,,,,,,,,,,,,,,,,,,,,,,,,,,,,,,,,,,,,,,,,,,,,,,,,
,,657130845d83c7254900dcb2,2023-12-06_23h29.34.068,kallum_motion_pilot,2023.2.3,Win32,179.8561151,657130845d83c7254900dcb2,6560176e4d91f764e2a42c74,65715821591c60cd26d23cf8,0.088,0.088,1,94,256,157,1,seveneight,,,,,,,,,,,,,,,,,,,,,,,,,,,,,,,,,,,,,,,,,,,,,,,,,,,,,,,,,,,,,,,,,,,,,,,,,,,,,,,,,,,,,,,,,,,,,,,,,,,,,,,,,,,,,,,,,,,,,,,,,,,,,,,,,,,,,,,
,,657130845d83c7254900dcb2,2023-12-06_23h29.34.068,kallum_motion_pilot,2023.2.3,Win32,179.8561151,657130845d83c7254900dcb2,6560176e4d91f764e2a42c74,65715821591c60cd26d23cf8,0.088,0.088,1,95,257,61,1,threefour,,,,,,,,,,,,,,,,,,,,,,,,,,,,,,,,,,,,,,,,,,,,,,,,,,,,,,,,,,,,,,,,,,,,,,,,,,,,,,,,,,,,,,,,,,,,,,,,,,,,,,,,,,,,,,,,,,,,,,,,,,,,,,,,,,,,,,,
,,657130845d83c7254900dcb2,2023-12-06_23h29.34.068,kallum_motion_pilot,2023.2.3,Win32,179.8561151,657130845d83c7254900dcb2,6560176e4d91f764e2a42c74,65715821591c60cd26d23cf8,0.088,0.088,1,96,258,143,1,eightseven,,,,,,,,,,,,,,,,,,,,,,,,,,,,,,,,,,,,,,,,,,,,,,,,,,,,,,,,,,,,,,,,,,,,,,,,,,,,,,,,,,,,,,,,,,,,,,,,,,,,,,,,,,,,,,,,,,,,,,,,,,,,,,,,,,,,,,,
,,657130845d83c7254900dcb2,2023-12-06_23h29.34.068,kallum_motion_pilot,2023.2.3,Win32,179.8561151,657130845d83c7254900dcb2,6560176e4d91f764e2a42c74,65715821591c60cd26d23cf8,0.088,0.088,1,97,259,66,1,twoone,,,,,,,,,,,,,,,,,,,,,,,,,,,,,,,,,,,,,,,,,,,,,,,,,,,,,,,,,,,,,,,,,,,,,,,,,,,,,,,,,,,,,,,,,,,,,,,,,,,,,,,,,,,,,,,,,,,,,,,,,,,,,,,,,,,,,,,
,,657130845d83c7254900dcb2,2023-12-06_23h29.34.068,kallum_motion_pilot,2023.2.3,Win32,179.8561151,657130845d83c7254900dcb2,6560176e4d91f764e2a42c74,65715821591c60cd26d23cf8,0.088,0.088,1,98,260,32,1,onetwo,,,,,,,,,,,,,,,,,,,,,,,,,,,,,,,,,,,,,,,,,,,,,,,,,,,,,,,,,,,,,,,,,,,,,,,,,,,,,,,,,,,,,,,,,,,,,,,,,,,,,,,,,,,,,,,,,,,,,,,,,,,,,,,,,,,,,,,
,,657130845d83c7254900dcb2,2023-12-06_23h29.34.068,kallum_motion_pilot,2023.2.3,Win32,179.8561151,657130845d83c7254900dcb2,6560176e4d91f764e2a42c74,65715821591c60cd26d23cf8,0.088,0.088,1,99,261,42,1,twoone,,,,,,,,,,,,,,,,,,,,,,,,,,,,,,,,,,,,,,,,,,,,,,,,,,,,,,,,,,,,,,,,,,,,,,,,,,,,,,,,,,,,,,,,,,,,,,,,,,,,,,,,,,,,,,,,,,,,,,,,,,,,,,,,,,,,,,,
,,657130845d83c7254900dcb2,2023-12-06_23h29.34.068,kallum_motion_pilot,2023.2.3,Win32,179.8561151,657130845d83c7254900dcb2,6560176e4d91f764e2a42c74,65715821591c60cd26d23cf8,0.089,0.089,1,100,262,156,1,sevenfive,,,,,,,,,,,,,,,,,,,,,,,,,,,,,,,,,,,,,,,,,,,,,,,,,,,,,,,,,,,,,,,,,,,,,,,,,,,,,,,,,,,,,,,,,,,,,,,,,,,,,,,,,,,,,,,,,,,,,,,,,,,,,,,,,,,,,,,
,,657130845d83c7254900dcb2,2023-12-06_23h29.34.068,kallum_motion_pilot,2023.2.3,Win32,179.8561151,657130845d83c7254900dcb2,6560176e4d91f764e2a42c74,65715821591c60cd26d23cf8,0.089,0.089,1,101,263,148,1,sevenfive,,,,,,,,,,,,,,,,,,,,,,,,,,,,,,,,,,,,,,,,,,,,,,,,,,,,,,,,,,,,,,,,,,,,,,,,,,,,,,,,,,,,,,,,,,,,,,,,,,,,,,,,,,,,,,,,,,,,,,,,,,,,,,,,,,,,,,,
,,657130845d83c7254900dcb2,2023-12-06_23h29.34.068,kallum_motion_pilot,2023.2.3,Win32,179.8561151,657130845d83c7254900dcb2,6560176e4d91f764e2a42c74,65715821591c60cd26d23cf8,0.089,0.089,1,102,264,13,1,threefour,,,,,,,,,,,,,,,,,,,,,,,,,,,,,,,,,,,,,,,,,,,,,,,,,,,,,,,,,,,,,,,,,,,,,,,,,,,,,,,,,,,,,,,,,,,,,,,,,,,,,,,,,,,,,,,,,,,,,,,,,,,,,,,,,,,,,,,
,,657130845d83c7254900dcb2,2023-12-06_23h29.34.068,kallum_motion_pilot,2023.2.3,Win32,179.8561151,657130845d83c7254900dcb2,6560176e4d91f764e2a42c74,65715821591c60cd26d23cf8,0.089,0.089,1,103,265,128,1,fivesix,,,,,,,,,,,,,,,,,,,,,,,,,,,,,,,,,,,,,,,,,,,,,,,,,,,,,,,,,,,,,,,,,,,,,,,,,,,,,,,,,,,,,,,,,,,,,,,,,,,,,,,,,,,,,,,,,,,,,,,,,,,,,,,,,,,,,,,
,,657130845d83c7254900dcb2,2023-12-06_23h29.34.068,kallum_motion_pilot,2023.2.3,Win32,179.8561151,657130845d83c7254900dcb2,6560176e4d91f764e2a42c74,65715821591c60cd26d23cf8,0.089,0.089,1,104,266,91,1,sixeight,,,,,,,,,,,,,,,,,,,,,,,,,,,,,,,,,,,,,,,,,,,,,,,,,,,,,,,,,,,,,,,,,,,,,,,,,,,,,,,,,,,,,,,,,,,,,,,,,,,,,,,,,,,,,,,,,,,,,,,,,,,,,,,,,,,,,,,
,,657130845d83c7254900dcb2,2023-12-06_23h29.34.068,kallum_motion_pilot,2023.2.3,Win32,179.8561151,657130845d83c7254900dcb2,6560176e4d91f764e2a42c74,65715821591c60cd26d23cf8,0.089,0.089,1,105,267,44,1,threeone,,,,,,,,,,,,,,,,,,,,,,,,,,,,,,,,,,,,,,,,,,,,,,,,,,,,,,,,,,,,,,,,,,,,,,,,,,,,,,,,,,,,,,,,,,,,,,,,,,,,,,,,,,,,,,,,,,,,,,,,,,,,,,,,,,,,,,,
,,657130845d83c7254900dcb2,2023-12-06_23h29.34.068,kallum_motion_pilot,2023.2.3,Win32,179.8561151,657130845d83c7254900dcb2,6560176e4d91f764e2a42c74,65715821591c60cd26d23cf8,0.09,0.09,1,106,268,49,1,onethree,,,,,,,,,,,,,,,,,,,,,,,,,,,,,,,,,,,,,,,,,,,,,,,,,,,,,,,,,,,,,,,,,,,,,,,,,,,,,,,,,,,,,,,,,,,,,,,,,,,,,,,,,,,,,,,,,,,,,,,,,,,,,,,,,,,,,,,
,,657130845d83c7254900dcb2,2023-12-06_23h29.34.068,kallum_motion_pilot,2023.2.3,Win32,179.8561151,657130845d83c7254900dcb2,6560176e4d91f764e2a42c74,65715821591c60cd26d23cf8,0.09,0.09,1,107,269,150,1,eightsix,,,,,,,,,,,,,,,,,,,,,,,,,,,,,,,,,,,,,,,,,,,,,,,,,,,,,,,,,,,,,,,,,,,,,,,,,,,,,,,,,,,,,,,,,,,,,,,,,,,,,,,,,,,,,,,,,,,,,,,,,,,,,,,,,,,,,,,
,,657130845d83c7254900dcb2,2023-12-06_23h29.34.068,kallum_motion_pilot,2023.2.3,Win32,179.8561151,657130845d83c7254900dcb2,6560176e4d91f764e2a42c74,65715821591c60cd26d23cf8,0.09,0.09,1,108,270,137,1,fiveseven,,,,,,,,,,,,,,,,,,,,,,,,,,,,,,,,,,,,,,,,,,,,,,,,,,,,,,,,,,,,,,,,,,,,,,,,,,,,,,,,,,,,,,,,,,,,,,,,,,,,,,,,,,,,,,,,,,,,,,,,,,,,,,,,,,,,,,,
,,657130845d83c7254900dcb2,2023-12-06_23h29.34.068,kallum_motion_pilot,2023.2.3,Win32,179.8561151,657130845d83c7254900dcb2,6560176e4d91f764e2a42c74,65715821591c60cd26d23cf8,0.09,0.09,1,109,271,56,1,onetwo,,,,,,,,,,,,,,,,,,,,,,,,,,,,,,,,,,,,,,,,,,,,,,,,,,,,,,,,,,,,,,,,,,,,,,,,,,,,,,,,,,,,,,,,,,,,,,,,,,,,,,,,,,,,,,,,,,,,,,,,,,,,,,,,,,,,,,,
,,657130845d83c7254900dcb2,2023-12-06_23h29.34.068,kallum_motion_pilot,2023.2.3,Win32,179.8561151,657130845d83c7254900dcb2,6560176e4d91f764e2a42c74,65715821591c60cd26d23cf8,0.09,0.09,1,110,272,125,1,seveneight,,,,,,,,,,,,,,,,,,,,,,,,,,,,,,,,,,,,,,,,,,,,,,,,,,,,,,,,,,,,,,,,,,,,,,,,,,,,,,,,,,,,,,,,,,,,,,,,,,,,,,,,,,,,,,,,,,,,,,,,,,,,,,,,,,,,,,,
,,657130845d83c7254900dcb2,2023-12-06_23h29.34.068,kallum_motion_pilot,2023.2.3,Win32,179.8561151,657130845d83c7254900dcb2,6560176e4d91f764e2a42c74,65715821591c60cd26d23cf8,0.09,0.09,1,111,273,26,1,twoone,,,,,,,,,,,,,,,,,,,,,,,,,,,,,,,,,,,,,,,,,,,,,,,,,,,,,,,,,,,,,,,,,,,,,,,,,,,,,,,,,,,,,,,,,,,,,,,,,,,,,,,,,,,,,,,,,,,,,,,,,,,,,,,,,,,,,,,
,,657130845d83c7254900dcb2,2023-12-06_23h29.34.068,kallum_motion_pilot,2023.2.3,Win32,179.8561151,657130845d83c7254900dcb2,6560176e4d91f764e2a42c74,65715821591c60cd26d23cf8,0.091,0.091,1,112,274,67,1,twofour,,,,,,,,,,,,,,,,,,,,,,,,,,,,,,,,,,,,,,,,,,,,,,,,,,,,,,,,,,,,,,,,,,,,,,,,,,,,,,,,,,,,,,,,,,,,,,,,,,,,,,,,,,,,,,,,,,,,,,,,,,,,,,,,,,,,,,,
,,657130845d83c7254900dcb2,2023-12-06_23h29.34.068,kallum_motion_pilot,2023.2.3,Win32,179.8561151,657130845d83c7254900dcb2,6560176e4d91f764e2a42c74,65715821591c60cd26d23cf8,0.092,0.092,1,113,275,21,1,threefour,,,,,,,,,,,,,,,,,,,,,,,,,,,,,,,,,,,,,,,,,,,,,,,,,,,,,,,,,,,,,,,,,,,,,,,,,,,,,,,,,,,,,,,,,,,,,,,,,,,,,,,,,,,,,,,,,,,,,,,,,,,,,,,,,,,,,,,
,,657130845d83c7254900dcb2,2023-12-06_23h29.34.068,kallum_motion_pilot,2023.2.3,Win32,179.8561151,657130845d83c7254900dcb2,6560176e4d91f764e2a42c74,65715821591c60cd26d23cf8,0.092,0.092,1,114,276,24,1,onetwo,,,,,,,,,,,,,,,,,,,,,,,,,,,,,,,,,,,,,,,,,,,,,,,,,,,,,,,,,,,,,,,,,,,,,,,,,,,,,,,,,,,,,,,,,,,,,,,,,,,,,,,,,,,,,,,,,,,,,,,,,,,,,,,,,,,,,,,
,,657130845d83c7254900dcb2,2023-12-06_23h29.34.068,kallum_motion_pilot,2023.2.3,Win32,179.8561151,657130845d83c7254900dcb2,6560176e4d91f764e2a42c74,65715821591c60cd26d23cf8,0.092,0.092,1,115,277,119,1,eightseven,,,,,,,,,,,,,,,,,,,,,,,,,,,,,,,,,,,,,,,,,,,,,,,,,,,,,,,,,,,,,,,,,,,,,,,,,,,,,,,,,,,,,,,,,,,,,,,,,,,,,,,,,,,,,,,,,,,,,,,,,,,,,,,,,,,,,,,
,,657130845d83c7254900dcb2,2023-12-06_23h29.34.068,kallum_motion_pilot,2023.2.3,Win32,179.8561151,657130845d83c7254900dcb2,6560176e4d91f764e2a42c74,65715821591c60cd26d23cf8,0.092,0.092,1,116,278,109,1,seveneight,,,,,,,,,,,,,,,,,,,,,,,,,,,,,,,,,,,,,,,,,,,,,,,,,,,,,,,,,,,,,,,,,,,,,,,,,,,,,,,,,,,,,,,,,,,,,,,,,,,,,,,,,,,,,,,,,,,,,,,,,,,,,,,,,,,,,,,
,,657130845d83c7254900dcb2,2023-12-06_23h29.34.068,kallum_motion_pilot,2023.2.3,Win32,179.8561151,657130845d83c7254900dcb2,6560176e4d91f764e2a42c74,65715821591c60cd26d23cf8,0.092,0.092,1,117,279,154,1,sixfive,,,,,,,,,,,,,,,,,,,,,,,,,,,,,,,,,,,,,,,,,,,,,,,,,,,,,,,,,,,,,,,,,,,,,,,,,,,,,,,,,,,,,,,,,,,,,,,,,,,,,,,,,,,,,,,,,,,,,,,,,,,,,,,,,,,,,,,
,,657130845d83c7254900dcb2,2023-12-06_23h29.34.068,kallum_motion_pilot,2023.2.3,Win32,179.8561151,657130845d83c7254900dcb2,6560176e4d91f764e2a42c74,65715821591c60cd26d23cf8,0.092,0.092,1,118,280,146,1,sixfive,,,,,,,,,,,,,,,,,,,,,,,,,,,,,,,,,,,,,,,,,,,,,,,,,,,,,,,,,,,,,,,,,,,,,,,,,,,,,,,,,,,,,,,,,,,,,,,,,,,,,,,,,,,,,,,,,,,,,,,,,,,,,,,,,,,,,,,
