startup.started,startup.stopped,Prolific ID*,date,expName,psychopyVersion,OS,frameRate,participant,study_id,session,stimpositions.started,stimpositions.stopped,hardcoded_stimulus_positions.thisRepN,hardcoded_stimulus_positions.thisTrialN,hardcoded_stimulus_positions.thisN,hardcoded_stimulus_positions.thisIndex,hardcoded_stimulus_positions.ran,StimulusPos,stimorientation.started,stimorientation.stopped,prac_stimorientation_import_loop.thisRepN,prac_stimorientation_import_loop.thisTrialN,prac_stimorientation_import_loop.thisN,prac_stimorientation_import_loop.thisIndex,prac_stimorientation_import_loop.ran,Stimorientation,welcome_instr.started,welcome_instr.stopped,key_resp.keys,key_resp.rt,key_resp.duration,response_steppedout_1.started,response_steppedout_1.stopped,key_resp_20.keys,key_resp_20.rt,key_resp_20.duration,response_steppedout_2.started,response_steppedout_2.stopped,key_resp_19.keys,key_resp_19.rt,key_resp_19.duration,stim_response_instr.started,stim_response_instr.stopped,key_resp_15.keys,key_resp_15.rt,key_resp_15.duration,direction_instr_2.started,direction_instr_2.stopped,key_resp_9.keys,key_resp_9.rt,key_resp_9.duration,instr_prac.started,instr_prac.stopped,key_resp_10.keys,key_resp_10.rt,key_resp_10.duration,Stim1_display_prac.started,Stim1_display_prac.stopped,Ecc,Circle1_ori,Circle2_ori,response_prac.started,similarity,response_time,response_prac.stopped,mouse_5.x,mouse_5.y,mouse_5.leftButton,mouse_5.midButton,mouse_5.rightButton,mouse_5.clicked_name,responseprac_feedback.started,responseprac_feedback.stopped,summary2_prac.started,summary2_prac.stopped,mouse_6.x,mouse_6.y,mouse_6.leftButton,mouse_6.midButton,mouse_6.rightButton,mouse_6.clicked_name,duringprac.thisRepN,duringprac.thisTrialN,duringprac.thisN,duringprac.thisIndex,duringprac.ran,begin.started,begin.stopped,key_resp_22.keys,key_resp_22.rt,key_resp_22.duration,Stim1_display.started,Stim1_display.stopped,circle1_ori,circle2_ori,circle1_SF,circle2_SF,response.started,response.stopped,mouse.x,mouse.y,mouse.leftButton,mouse.midButton,mouse.rightButton,mouse.clicked_name,trialnumber,double_pass.thisRepN,double_pass.thisTrialN,double_pass.thisN,double_pass.thisIndex,double_pass.ran,double_pass.order,main_trial.thisRepN,main_trial.thisTrialN,main_trial.thisN,main_trial.thisIndex,main_trial.ran,main_trial.order,Trial_Counter,Catch,Frequencies,response_2.started,response_2.stopped,mouse_2.x,mouse_2.y,mouse_2.leftButton,mouse_2.midButton,mouse_2.rightButton,mouse_2.clicked_name,special_trial.started,special_trial.stopped,catch_1.started,catch_1.stopped,mouse_3.x,mouse_3.y,mouse_3.leftButton,mouse_3.midButton,mouse_3.rightButton,catchresponse,catchnumber,response_time_catch,response_sum.started,response_sum.stopped,mouse_11.x,mouse_11.y,mouse_11.leftButton,mouse_11.midButton,mouse_11.rightButton,flip_presentation_sequence_for_double_pass.started,flip_presentation_sequence_for_double_pass.stopped,goodbye.started,goodbye.stopped,key_resp_3.keys,key_resp_3.rt,key_resp_3.duration
0.0006,0.0008,546bd06ffdf99b2b8df97e88,2024-02-22_04h41.17.997,kallum_motion_pilot,2023.2.2,Win32,119.047619,546bd06ffdf99b2b8df97e88,65d6bb0e977760de756971f7,65d6c218ee13f9561621c064,,,,,,,,,,,,,,,,,,,,,,,,,,,,,,,,,,,,,,,,,,,,,,,,,,,,,,,,,,,,,,,,,,,,,,,,,,,,,,,,,,,,,,,,,,,,,,,,,,,,,,,,,,,,,,,,,,,,,,,,,,,,,,,,,,,,,,,,,,,,,,,,,
,,546bd06ffdf99b2b8df97e88,2024-02-22_04h41.17.997,kallum_motion_pilot,2023.2.2,Win32,119.047619,546bd06ffdf99b2b8df97e88,65d6bb0e977760de756971f7,65d6c218ee13f9561621c064,0.0316,0.0331,0,0,0,2,1,twoone,,,,,,,,,,,,,,,,,,,,,,,,,,,,,,,,,,,,,,,,,,,,,,,,,,,,,,,,,,,,,,,,,,,,,,,,,,,,,,,,,,,,,,,,,,,,,,,,,,,,,,,,,,,,,,,,,,,,,,,,,,,,,,,,,,,,,,,,,
,,546bd06ffdf99b2b8df97e88,2024-02-22_04h41.17.997,kallum_motion_pilot,2023.2.2,Win32,119.047619,546bd06ffdf99b2b8df97e88,65d6bb0e977760de756971f7,65d6c218ee13f9561621c064,0.0335,0.0336,0,1,1,41,1,onethree,,,,,,,,,,,,,,,,,,,,,,,,,,,,,,,,,,,,,,,,,,,,,,,,,,,,,,,,,,,,,,,,,,,,,,,,,,,,,,,,,,,,,,,,,,,,,,,,,,,,,,,,,,,,,,,,,,,,,,,,,,,,,,,,,,,,,,,,,
,,546bd06ffdf99b2b8df97e88,2024-02-22_04h41.17.997,kallum_motion_pilot,2023.2.2,Win32,119.047619,546bd06ffdf99b2b8df97e88,65d6bb0e977760de756971f7,65d6c218ee13f9561621c064,0.0337,0.0337,0,2,2,27,1,twofour,,,,,,,,,,,,,,,,,,,,,,,,,,,,,,,,,,,,,,,,,,,,,,,,,,,,,,,,,,,,,,,,,,,,,,,,,,,,,,,,,,,,,,,,,,,,,,,,,,,,,,,,,,,,,,,,,,,,,,,,,,,,,,,,,,,,,,,,,
,,546bd06ffdf99b2b8df97e88,2024-02-22_04h41.17.997,kallum_motion_pilot,2023.2.2,Win32,119.047619,546bd06ffdf99b2b8df97e88,65d6bb0e977760de756971f7,65d6c218ee13f9561621c064,0.0339,0.0339,0,3,3,136,1,fivesix,,,,,,,,,,,,,,,,,,,,,,,,,,,,,,,,,,,,,,,,,,,,,,,,,,,,,,,,,,,,,,,,,,,,,,,,,,,,,,,,,,,,,,,,,,,,,,,,,,,,,,,,,,,,,,,,,,,,,,,,,,,,,,,,,,,,,,,,,
,,546bd06ffdf99b2b8df97e88,2024-02-22_04h41.17.997,kallum_motion_pilot,2023.2.2,Win32,119.047619,546bd06ffdf99b2b8df97e88,65d6bb0e977760de756971f7,65d6c218ee13f9561621c064,0.034,0.0341,0,4,4,71,1,fourthree,,,,,,,,,,,,,,,,,,,,,,,,,,,,,,,,,,,,,,,,,,,,,,,,,,,,,,,,,,,,,,,,,,,,,,,,,,,,,,,,,,,,,,,,,,,,,,,,,,,,,,,,,,,,,,,,,,,,,,,,,,,,,,,,,,,,,,,,,
,,546bd06ffdf99b2b8df97e88,2024-02-22_04h41.17.997,kallum_motion_pilot,2023.2.2,Win32,119.047619,546bd06ffdf99b2b8df97e88,65d6bb0e977760de756971f7,65d6c218ee13f9561621c064,0.0341,0.0342,0,5,5,55,1,fourthree,,,,,,,,,,,,,,,,,,,,,,,,,,,,,,,,,,,,,,,,,,,,,,,,,,,,,,,,,,,,,,,,,,,,,,,,,,,,,,,,,,,,,,,,,,,,,,,,,,,,,,,,,,,,,,,,,,,,,,,,,,,,,,,,,,,,,,,,,
,,546bd06ffdf99b2b8df97e88,2024-02-22_04h41.17.997,kallum_motion_pilot,2023.2.2,Win32,119.047619,546bd06ffdf99b2b8df97e88,65d6bb0e977760de756971f7,65d6c218ee13f9561621c064,0.0343,0.0343,0,6,6,153,1,fiveseven,,,,,,,,,,,,,,,,,,,,,,,,,,,,,,,,,,,,,,,,,,,,,,,,,,,,,,,,,,,,,,,,,,,,,,,,,,,,,,,,,,,,,,,,,,,,,,,,,,,,,,,,,,,,,,,,,,,,,,,,,,,,,,,,,,,,,,,,,
,,546bd06ffdf99b2b8df97e88,2024-02-22_04h41.17.997,kallum_motion_pilot,2023.2.2,Win32,119.047619,546bd06ffdf99b2b8df97e88,65d6bb0e977760de756971f7,65d6c218ee13f9561621c064,0.0345,0.0345,0,7,7,126,1,eightsix,,,,,,,,,,,,,,,,,,,,,,,,,,,,,,,,,,,,,,,,,,,,,,,,,,,,,,,,,,,,,,,,,,,,,,,,,,,,,,,,,,,,,,,,,,,,,,,,,,,,,,,,,,,,,,,,,,,,,,,,,,,,,,,,,,,,,,,,,
,,546bd06ffdf99b2b8df97e88,2024-02-22_04h41.17.997,kallum_motion_pilot,2023.2.2,Win32,119.047619,546bd06ffdf99b2b8df97e88,65d6bb0e977760de756971f7,65d6c218ee13f9561621c064,0.0347,0.0347,0,8,8,109,1,seveneight,,,,,,,,,,,,,,,,,,,,,,,,,,,,,,,,,,,,,,,,,,,,,,,,,,,,,,,,,,,,,,,,,,,,,,,,,,,,,,,,,,,,,,,,,,,,,,,,,,,,,,,,,,,,,,,,,,,,,,,,,,,,,,,,,,,,,,,,,
,,546bd06ffdf99b2b8df97e88,2024-02-22_04h41.17.997,kallum_motion_pilot,2023.2.2,Win32,119.047619,546bd06ffdf99b2b8df97e88,65d6bb0e977760de756971f7,65d6c218ee13f9561621c064,0.0349,0.0349,0,9,9,3,1,twofour,,,,,,,,,,,,,,,,,,,,,,,,,,,,,,,,,,,,,,,,,,,,,,,,,,,,,,,,,,,,,,,,,,,,,,,,,,,,,,,,,,,,,,,,,,,,,,,,,,,,,,,,,,,,,,,,,,,,,,,,,,,,,,,,,,,,,,,,,
,,546bd06ffdf99b2b8df97e88,2024-02-22_04h41.17.997,kallum_motion_pilot,2023.2.2,Win32,119.047619,546bd06ffdf99b2b8df97e88,65d6bb0e977760de756971f7,65d6c218ee13f9561621c064,0.0351,0.0351,0,10,10,15,1,fourthree,,,,,,,,,,,,,,,,,,,,,,,,,,,,,,,,,,,,,,,,,,,,,,,,,,,,,,,,,,,,,,,,,,,,,,,,,,,,,,,,,,,,,,,,,,,,,,,,,,,,,,,,,,,,,,,,,,,,,,,,,,,,,,,,,,,,,,,,,
,,546bd06ffdf99b2b8df97e88,2024-02-22_04h41.17.997,kallum_motion_pilot,2023.2.2,Win32,119.047619,546bd06ffdf99b2b8df97e88,65d6bb0e977760de756971f7,65d6c218ee13f9561621c064,0.0352,0.0352,0,11,11,59,1,twofour,,,,,,,,,,,,,,,,,,,,,,,,,,,,,,,,,,,,,,,,,,,,,,,,,,,,,,,,,,,,,,,,,,,,,,,,,,,,,,,,,,,,,,,,,,,,,,,,,,,,,,,,,,,,,,,,,,,,,,,,,,,,,,,,,,,,,,,,,
,,546bd06ffdf99b2b8df97e88,2024-02-22_04h41.17.997,kallum_motion_pilot,2023.2.2,Win32,119.047619,546bd06ffdf99b2b8df97e88,65d6bb0e977760de756971f7,65d6c218ee13f9561621c064,0.0354,0.0354,0,12,12,89,1,fiveseven,,,,,,,,,,,,,,,,,,,,,,,,,,,,,,,,,,,,,,,,,,,,,,,,,,,,,,,,,,,,,,,,,,,,,,,,,,,,,,,,,,,,,,,,,,,,,,,,,,,,,,,,,,,,,,,,,,,,,,,,,,,,,,,,,,,,,,,,,
,,546bd06ffdf99b2b8df97e88,2024-02-22_04h41.17.997,kallum_motion_pilot,2023.2.2,Win32,119.047619,546bd06ffdf99b2b8df97e88,65d6bb0e977760de756971f7,65d6c218ee13f9561621c064,0.0355,0.0355,0,13,13,25,1,onethree,,,,,,,,,,,,,,,,,,,,,,,,,,,,,,,,,,,,,,,,,,,,,,,,,,,,,,,,,,,,,,,,,,,,,,,,,,,,,,,,,,,,,,,,,,,,,,,,,,,,,,,,,,,,,,,,,,,,,,,,,,,,,,,,,,,,,,,,,
,,546bd06ffdf99b2b8df97e88,2024-02-22_04h41.17.997,kallum_motion_pilot,2023.2.2,Win32,119.047619,546bd06ffdf99b2b8df97e88,65d6bb0e977760de756971f7,65d6c218ee13f9561621c064,0.0356,0.0357,0,14,14,65,1,onethree,,,,,,,,,,,,,,,,,,,,,,,,,,,,,,,,,,,,,,,,,,,,,,,,,,,,,,,,,,,,,,,,,,,,,,,,,,,,,,,,,,,,,,,,,,,,,,,,,,,,,,,,,,,,,,,,,,,,,,,,,,,,,,,,,,,,,,,,,
,,546bd06ffdf99b2b8df97e88,2024-02-22_04h41.17.997,kallum_motion_pilot,2023.2.2,Win32,119.047619,546bd06ffdf99b2b8df97e88,65d6bb0e977760de756971f7,65d6c218ee13f9561621c064,0.0358,0.0358,0,15,15,145,1,fiveseven,,,,,,,,,,,,,,,,,,,,,,,,,,,,,,,,,,,,,,,,,,,,,,,,,,,,,,,,,,,,,,,,,,,,,,,,,,,,,,,,,,,,,,,,,,,,,,,,,,,,,,,,,,,,,,,,,,,,,,,,,,,,,,,,,,,,,,,,,
,,546bd06ffdf99b2b8df97e88,2024-02-22_04h41.17.997,kallum_motion_pilot,2023.2.2,Win32,119.047619,546bd06ffdf99b2b8df97e88,65d6bb0e977760de756971f7,65d6c218ee13f9561621c064,0.0359,0.036,0,16,16,21,1,threefour,,,,,,,,,,,,,,,,,,,,,,,,,,,,,,,,,,,,,,,,,,,,,,,,,,,,,,,,,,,,,,,,,,,,,,,,,,,,,,,,,,,,,,,,,,,,,,,,,,,,,,,,,,,,,,,,,,,,,,,,,,,,,,,,,,,,,,,,,
,,546bd06ffdf99b2b8df97e88,2024-02-22_04h41.17.997,kallum_motion_pilot,2023.2.2,Win32,119.047619,546bd06ffdf99b2b8df97e88,65d6bb0e977760de756971f7,65d6c218ee13f9561621c064,0.0361,0.0363,0,17,17,110,1,eightsix,,,,,,,,,,,,,,,,,,,,,,,,,,,,,,,,,,,,,,,,,,,,,,,,,,,,,,,,,,,,,,,,,,,,,,,,,,,,,,,,,,,,,,,,,,,,,,,,,,,,,,,,,,,,,,,,,,,,,,,,,,,,,,,,,,,,,,,,,
,,546bd06ffdf99b2b8df97e88,2024-02-22_04h41.17.997,kallum_motion_pilot,2023.2.2,Win32,119.047619,546bd06ffdf99b2b8df97e88,65d6bb0e977760de756971f7,65d6c218ee13f9561621c064,0.0364,0.0365,0,18,18,147,1,sixeight,,,,,,,,,,,,,,,,,,,,,,,,,,,,,,,,,,,,,,,,,,,,,,,,,,,,,,,,,,,,,,,,,,,,,,,,,,,,,,,,,,,,,,,,,,,,,,,,,,,,,,,,,,,,,,,,,,,,,,,,,,,,,,,,,,,,,,,,,
,,546bd06ffdf99b2b8df97e88,2024-02-22_04h41.17.997,kallum_motion_pilot,2023.2.2,Win32,119.047619,546bd06ffdf99b2b8df97e88,65d6bb0e977760de756971f7,65d6c218ee13f9561621c064,0.0365,0.0366,0,19,19,106,1,sixfive,,,,,,,,,,,,,,,,,,,,,,,,,,,,,,,,,,,,,,,,,,,,,,,,,,,,,,,,,,,,,,,,,,,,,,,,,,,,,,,,,,,,,,,,,,,,,,,,,,,,,,,,,,,,,,,,,,,,,,,,,,,,,,,,,,,,,,,,,
,,546bd06ffdf99b2b8df97e88,2024-02-22_04h41.17.997,kallum_motion_pilot,2023.2.2,Win32,119.047619,546bd06ffdf99b2b8df97e88,65d6bb0e977760de756971f7,65d6c218ee13f9561621c064,0.0367,0.0367,0,20,20,96,1,fivesix,,,,,,,,,,,,,,,,,,,,,,,,,,,,,,,,,,,,,,,,,,,,,,,,,,,,,,,,,,,,,,,,,,,,,,,,,,,,,,,,,,,,,,,,,,,,,,,,,,,,,,,,,,,,,,,,,,,,,,,,,,,,,,,,,,,,,,,,,
,,546bd06ffdf99b2b8df97e88,2024-02-22_04h41.17.997,kallum_motion_pilot,2023.2.2,Win32,119.047619,546bd06ffdf99b2b8df97e88,65d6bb0e977760de756971f7,65d6c218ee13f9561621c064,0.0368,0.0369,0,21,21,6,1,fourtwo,,,,,,,,,,,,,,,,,,,,,,,,,,,,,,,,,,,,,,,,,,,,,,,,,,,,,,,,,,,,,,,,,,,,,,,,,,,,,,,,,,,,,,,,,,,,,,,,,,,,,,,,,,,,,,,,,,,,,,,,,,,,,,,,,,,,,,,,,
,,546bd06ffdf99b2b8df97e88,2024-02-22_04h41.17.997,kallum_motion_pilot,2023.2.2,Win32,119.047619,546bd06ffdf99b2b8df97e88,65d6bb0e977760de756971f7,65d6c218ee13f9561621c064,0.0369,0.0369,0,22,22,60,1,threeone,,,,,,,,,,,,,,,,,,,,,,,,,,,,,,,,,,,,,,,,,,,,,,,,,,,,,,,,,,,,,,,,,,,,,,,,,,,,,,,,,,,,,,,,,,,,,,,,,,,,,,,,,,,,,,,,,,,,,,,,,,,,,,,,,,,,,,,,,
,,546bd06ffdf99b2b8df97e88,2024-02-22_04h41.17.997,kallum_motion_pilot,2023.2.2,Win32,119.047619,546bd06ffdf99b2b8df97e88,65d6bb0e977760de756971f7,65d6c218ee13f9561621c064,0.0371,0.0371,0,23,23,31,1,fourthree,,,,,,,,,,,,,,,,,,,,,,,,,,,,,,,,,,,,,,,,,,,,,,,,,,,,,,,,,,,,,,,,,,,,,,,,,,,,,,,,,,,,,,,,,,,,,,,,,,,,,,,,,,,,,,,,,,,,,,,,,,,,,,,,,,,,,,,,,
,,546bd06ffdf99b2b8df97e88,2024-02-22_04h41.17.997,kallum_motion_pilot,2023.2.2,Win32,119.047619,546bd06ffdf99b2b8df97e88,65d6bb0e977760de756971f7,65d6c218ee13f9561621c064,0.0373,0.0373,0,24,24,149,1,seveneight,,,,,,,,,,,,,,,,,,,,,,,,,,,,,,,,,,,,,,,,,,,,,,,,,,,,,,,,,,,,,,,,,,,,,,,,,,,,,,,,,,,,,,,,,,,,,,,,,,,,,,,,,,,,,,,,,,,,,,,,,,,,,,,,,,,,,,,,,
,,546bd06ffdf99b2b8df97e88,2024-02-22_04h41.17.997,kallum_motion_pilot,2023.2.2,Win32,119.047619,546bd06ffdf99b2b8df97e88,65d6bb0e977760de756971f7,65d6c218ee13f9561621c064,0.0374,0.0374,0,25,25,93,1,seveneight,,,,,,,,,,,,,,,,,,,,,,,,,,,,,,,,,,,,,,,,,,,,,,,,,,,,,,,,,,,,,,,,,,,,,,,,,,,,,,,,,,,,,,,,,,,,,,,,,,,,,,,,,,,,,,,,,,,,,,,,,,,,,,,,,,,,,,,,,
,,546bd06ffdf99b2b8df97e88,2024-02-22_04h41.17.997,kallum_motion_pilot,2023.2.2,Win32,119.047619,546bd06ffdf99b2b8df97e88,65d6bb0e977760de756971f7,65d6c218ee13f9561621c064,0.0376,0.0376,0,26,26,9,1,onethree,,,,,,,,,,,,,,,,,,,,,,,,,,,,,,,,,,,,,,,,,,,,,,,,,,,,,,,,,,,,,,,,,,,,,,,,,,,,,,,,,,,,,,,,,,,,,,,,,,,,,,,,,,,,,,,,,,,,,,,,,,,,,,,,,,,,,,,,,
,,546bd06ffdf99b2b8df97e88,2024-02-22_04h41.17.997,kallum_motion_pilot,2023.2.2,Win32,119.047619,546bd06ffdf99b2b8df97e88,65d6bb0e977760de756971f7,65d6c218ee13f9561621c064,0.0377,0.0377,0,27,27,128,1,fivesix,,,,,,,,,,,,,,,,,,,,,,,,,,,,,,,,,,,,,,,,,,,,,,,,,,,,,,,,,,,,,,,,,,,,,,,,,,,,,,,,,,,,,,,,,,,,,,,,,,,,,,,,,,,,,,,,,,,,,,,,,,,,,,,,,,,,,,,,,
,,546bd06ffdf99b2b8df97e88,2024-02-22_04h41.17.997,kallum_motion_pilot,2023.2.2,Win32,119.047619,546bd06ffdf99b2b8df97e88,65d6bb0e977760de756971f7,65d6c218ee13f9561621c064,0.0379,0.0379,0,28,28,47,1,fourthree,,,,,,,,,,,,,,,,,,,,,,,,,,,,,,,,,,,,,,,,,,,,,,,,,,,,,,,,,,,,,,,,,,,,,,,,,,,,,,,,,,,,,,,,,,,,,,,,,,,,,,,,,,,,,,,,,,,,,,,,,,,,,,,,,,,,,,,,,
,,546bd06ffdf99b2b8df97e88,2024-02-22_04h41.17.997,kallum_motion_pilot,2023.2.2,Win32,119.047619,546bd06ffdf99b2b8df97e88,65d6bb0e977760de756971f7,65d6c218ee13f9561621c064,0.038,0.038,0,29,29,154,1,sixfive,,,,,,,,,,,,,,,,,,,,,,,,,,,,,,,,,,,,,,,,,,,,,,,,,,,,,,,,,,,,,,,,,,,,,,,,,,,,,,,,,,,,,,,,,,,,,,,,,,,,,,,,,,,,,,,,,,,,,,,,,,,,,,,,,,,,,,,,,
,,546bd06ffdf99b2b8df97e88,2024-02-22_04h41.17.997,kallum_motion_pilot,2023.2.2,Win32,119.047619,546bd06ffdf99b2b8df97e88,65d6bb0e977760de756971f7,65d6c218ee13f9561621c064,0.0381,0.0381,0,30,30,35,1,twofour,,,,,,,,,,,,,,,,,,,,,,,,,,,,,,,,,,,,,,,,,,,,,,,,,,,,,,,,,,,,,,,,,,,,,,,,,,,,,,,,,,,,,,,,,,,,,,,,,,,,,,,,,,,,,,,,,,,,,,,,,,,,,,,,,,,,,,,,,
,,546bd06ffdf99b2b8df97e88,2024-02-22_04h41.17.997,kallum_motion_pilot,2023.2.2,Win32,119.047619,546bd06ffdf99b2b8df97e88,65d6bb0e977760de756971f7,65d6c218ee13f9561621c064,0.0382,0.0382,0,31,31,23,1,fourthree,,,,,,,,,,,,,,,,,,,,,,,,,,,,,,,,,,,,,,,,,,,,,,,,,,,,,,,,,,,,,,,,,,,,,,,,,,,,,,,,,,,,,,,,,,,,,,,,,,,,,,,,,,,,,,,,,,,,,,,,,,,,,,,,,,,,,,,,,
,,546bd06ffdf99b2b8df97e88,2024-02-22_04h41.17.997,kallum_motion_pilot,2023.2.2,Win32,119.047619,546bd06ffdf99b2b8df97e88,65d6bb0e977760de756971f7,65d6c218ee13f9561621c064,0.0383,0.0384,0,32,32,123,1,sixeight,,,,,,,,,,,,,,,,,,,,,,,,,,,,,,,,,,,,,,,,,,,,,,,,,,,,,,,,,,,,,,,,,,,,,,,,,,,,,,,,,,,,,,,,,,,,,,,,,,,,,,,,,,,,,,,,,,,,,,,,,,,,,,,,,,,,,,,,,
,,546bd06ffdf99b2b8df97e88,2024-02-22_04h41.17.997,kallum_motion_pilot,2023.2.2,Win32,119.047619,546bd06ffdf99b2b8df97e88,65d6bb0e977760de756971f7,65d6c218ee13f9561621c064,0.0385,0.0385,0,33,33,115,1,sixeight,,,,,,,,,,,,,,,,,,,,,,,,,,,,,,,,,,,,,,,,,,,,,,,,,,,,,,,,,,,,,,,,,,,,,,,,,,,,,,,,,,,,,,,,,,,,,,,,,,,,,,,,,,,,,,,,,,,,,,,,,,,,,,,,,,,,,,,,,
,,546bd06ffdf99b2b8df97e88,2024-02-22_04h41.17.997,kallum_motion_pilot,2023.2.2,Win32,119.047619,546bd06ffdf99b2b8df97e88,65d6bb0e977760de756971f7,65d6c218ee13f9561621c064,0.0387,0.0387,0,34,34,42,1,twoone,,,,,,,,,,,,,,,,,,,,,,,,,,,,,,,,,,,,,,,,,,,,,,,,,,,,,,,,,,,,,,,,,,,,,,,,,,,,,,,,,,,,,,,,,,,,,,,,,,,,,,,,,,,,,,,,,,,,,,,,,,,,,,,,,,,,,,,,,
,,546bd06ffdf99b2b8df97e88,2024-02-22_04h41.17.997,kallum_motion_pilot,2023.2.2,Win32,119.047619,546bd06ffdf99b2b8df97e88,65d6bb0e977760de756971f7,65d6c218ee13f9561621c064,0.0388,0.0388,0,35,35,48,1,onetwo,,,,,,,,,,,,,,,,,,,,,,,,,,,,,,,,,,,,,,,,,,,,,,,,,,,,,,,,,,,,,,,,,,,,,,,,,,,,,,,,,,,,,,,,,,,,,,,,,,,,,,,,,,,,,,,,,,,,,,,,,,,,,,,,,,,,,,,,,
,,546bd06ffdf99b2b8df97e88,2024-02-22_04h41.17.997,kallum_motion_pilot,2023.2.2,Win32,119.047619,546bd06ffdf99b2b8df97e88,65d6bb0e977760de756971f7,65d6c218ee13f9561621c064,0.0389,0.0389,0,36,36,11,1,twofour,,,,,,,,,,,,,,,,,,,,,,,,,,,,,,,,,,,,,,,,,,,,,,,,,,,,,,,,,,,,,,,,,,,,,,,,,,,,,,,,,,,,,,,,,,,,,,,,,,,,,,,,,,,,,,,,,,,,,,,,,,,,,,,,,,,,,,,,,
,,546bd06ffdf99b2b8df97e88,2024-02-22_04h41.17.997,kallum_motion_pilot,2023.2.2,Win32,119.047619,546bd06ffdf99b2b8df97e88,65d6bb0e977760de756971f7,65d6c218ee13f9561621c064,0.0391,0.0391,0,37,37,38,1,fourtwo,,,,,,,,,,,,,,,,,,,,,,,,,,,,,,,,,,,,,,,,,,,,,,,,,,,,,,,,,,,,,,,,,,,,,,,,,,,,,,,,,,,,,,,,,,,,,,,,,,,,,,,,,,,,,,,,,,,,,,,,,,,,,,,,,,,,,,,,,
,,546bd06ffdf99b2b8df97e88,2024-02-22_04h41.17.997,kallum_motion_pilot,2023.2.2,Win32,119.047619,546bd06ffdf99b2b8df97e88,65d6bb0e977760de756971f7,65d6c218ee13f9561621c064,0.0392,0.0392,0,38,38,74,1,twoone,,,,,,,,,,,,,,,,,,,,,,,,,,,,,,,,,,,,,,,,,,,,,,,,,,,,,,,,,,,,,,,,,,,,,,,,,,,,,,,,,,,,,,,,,,,,,,,,,,,,,,,,,,,,,,,,,,,,,,,,,,,,,,,,,,,,,,,,,
,,546bd06ffdf99b2b8df97e88,2024-02-22_04h41.17.997,kallum_motion_pilot,2023.2.2,Win32,119.047619,546bd06ffdf99b2b8df97e88,65d6bb0e977760de756971f7,65d6c218ee13f9561621c064,0.0394,0.0394,0,39,39,100,1,sevenfive,,,,,,,,,,,,,,,,,,,,,,,,,,,,,,,,,,,,,,,,,,,,,,,,,,,,,,,,,,,,,,,,,,,,,,,,,,,,,,,,,,,,,,,,,,,,,,,,,,,,,,,,,,,,,,,,,,,,,,,,,,,,,,,,,,,,,,,,,
,,546bd06ffdf99b2b8df97e88,2024-02-22_04h41.17.997,kallum_motion_pilot,2023.2.2,Win32,119.047619,546bd06ffdf99b2b8df97e88,65d6bb0e977760de756971f7,65d6c218ee13f9561621c064,0.0395,0.0396,0,40,40,155,1,sixeight,,,,,,,,,,,,,,,,,,,,,,,,,,,,,,,,,,,,,,,,,,,,,,,,,,,,,,,,,,,,,,,,,,,,,,,,,,,,,,,,,,,,,,,,,,,,,,,,,,,,,,,,,,,,,,,,,,,,,,,,,,,,,,,,,,,,,,,,,
,,546bd06ffdf99b2b8df97e88,2024-02-22_04h41.17.997,kallum_motion_pilot,2023.2.2,Win32,119.047619,546bd06ffdf99b2b8df97e88,65d6bb0e977760de756971f7,65d6c218ee13f9561621c064,0.0397,0.0397,0,41,41,77,1,threefour,,,,,,,,,,,,,,,,,,,,,,,,,,,,,,,,,,,,,,,,,,,,,,,,,,,,,,,,,,,,,,,,,,,,,,,,,,,,,,,,,,,,,,,,,,,,,,,,,,,,,,,,,,,,,,,,,,,,,,,,,,,,,,,,,,,,,,,,,
,,546bd06ffdf99b2b8df97e88,2024-02-22_04h41.17.997,kallum_motion_pilot,2023.2.2,Win32,119.047619,546bd06ffdf99b2b8df97e88,65d6bb0e977760de756971f7,65d6c218ee13f9561621c064,0.0398,0.0399,0,42,42,94,1,eightsix,,,,,,,,,,,,,,,,,,,,,,,,,,,,,,,,,,,,,,,,,,,,,,,,,,,,,,,,,,,,,,,,,,,,,,,,,,,,,,,,,,,,,,,,,,,,,,,,,,,,,,,,,,,,,,,,,,,,,,,,,,,,,,,,,,,,,,,,,
,,546bd06ffdf99b2b8df97e88,2024-02-22_04h41.17.997,kallum_motion_pilot,2023.2.2,Win32,119.047619,546bd06ffdf99b2b8df97e88,65d6bb0e977760de756971f7,65d6c218ee13f9561621c064,0.041,0.0412,0,43,43,49,1,onethree,,,,,,,,,,,,,,,,,,,,,,,,,,,,,,,,,,,,,,,,,,,,,,,,,,,,,,,,,,,,,,,,,,,,,,,,,,,,,,,,,,,,,,,,,,,,,,,,,,,,,,,,,,,,,,,,,,,,,,,,,,,,,,,,,,,,,,,,,
,,546bd06ffdf99b2b8df97e88,2024-02-22_04h41.17.997,kallum_motion_pilot,2023.2.2,Win32,119.047619,546bd06ffdf99b2b8df97e88,65d6bb0e977760de756971f7,65d6c218ee13f9561621c064,0.0414,0.0415,0,44,44,108,1,sevenfive,,,,,,,,,,,,,,,,,,,,,,,,,,,,,,,,,,,,,,,,,,,,,,,,,,,,,,,,,,,,,,,,,,,,,,,,,,,,,,,,,,,,,,,,,,,,,,,,,,,,,,,,,,,,,,,,,,,,,,,,,,,,,,,,,,,,,,,,,
,,546bd06ffdf99b2b8df97e88,2024-02-22_04h41.17.997,kallum_motion_pilot,2023.2.2,Win32,119.047619,546bd06ffdf99b2b8df97e88,65d6bb0e977760de756971f7,65d6c218ee13f9561621c064,0.0415,0.0416,0,45,45,127,1,eightseven,,,,,,,,,,,,,,,,,,,,,,,,,,,,,,,,,,,,,,,,,,,,,,,,,,,,,,,,,,,,,,,,,,,,,,,,,,,,,,,,,,,,,,,,,,,,,,,,,,,,,,,,,,,,,,,,,,,,,,,,,,,,,,,,,,,,,,,,,
,,546bd06ffdf99b2b8df97e88,2024-02-22_04h41.17.997,kallum_motion_pilot,2023.2.2,Win32,119.047619,546bd06ffdf99b2b8df97e88,65d6bb0e977760de756971f7,65d6c218ee13f9561621c064,0.0417,0.0417,0,46,46,92,1,sevenfive,,,,,,,,,,,,,,,,,,,,,,,,,,,,,,,,,,,,,,,,,,,,,,,,,,,,,,,,,,,,,,,,,,,,,,,,,,,,,,,,,,,,,,,,,,,,,,,,,,,,,,,,,,,,,,,,,,,,,,,,,,,,,,,,,,,,,,,,,
,,546bd06ffdf99b2b8df97e88,2024-02-22_04h41.17.997,kallum_motion_pilot,2023.2.2,Win32,119.047619,546bd06ffdf99b2b8df97e88,65d6bb0e977760de756971f7,65d6c218ee13f9561621c064,0.0418,0.0419,0,47,47,85,1,seveneight,,,,,,,,,,,,,,,,,,,,,,,,,,,,,,,,,,,,,,,,,,,,,,,,,,,,,,,,,,,,,,,,,,,,,,,,,,,,,,,,,,,,,,,,,,,,,,,,,,,,,,,,,,,,,,,,,,,,,,,,,,,,,,,,,,,,,,,,,
,,546bd06ffdf99b2b8df97e88,2024-02-22_04h41.17.997,kallum_motion_pilot,2023.2.2,Win32,119.047619,546bd06ffdf99b2b8df97e88,65d6bb0e977760de756971f7,65d6c218ee13f9561621c064,0.042,0.042,0,48,48,14,1,fourtwo,,,,,,,,,,,,,,,,,,,,,,,,,,,,,,,,,,,,,,,,,,,,,,,,,,,,,,,,,,,,,,,,,,,,,,,,,,,,,,,,,,,,,,,,,,,,,,,,,,,,,,,,,,,,,,,,,,,,,,,,,,,,,,,,,,,,,,,,,
,,546bd06ffdf99b2b8df97e88,2024-02-22_04h41.17.997,kallum_motion_pilot,2023.2.2,Win32,119.047619,546bd06ffdf99b2b8df97e88,65d6bb0e977760de756971f7,65d6c218ee13f9561621c064,0.0421,0.0421,0,49,49,124,1,sevenfive,,,,,,,,,,,,,,,,,,,,,,,,,,,,,,,,,,,,,,,,,,,,,,,,,,,,,,,,,,,,,,,,,,,,,,,,,,,,,,,,,,,,,,,,,,,,,,,,,,,,,,,,,,,,,,,,,,,,,,,,,,,,,,,,,,,,,,,,,
,,546bd06ffdf99b2b8df97e88,2024-02-22_04h41.17.997,kallum_motion_pilot,2023.2.2,Win32,119.047619,546bd06ffdf99b2b8df97e88,65d6bb0e977760de756971f7,65d6c218ee13f9561621c064,0.0423,0.0423,0,50,50,125,1,seveneight,,,,,,,,,,,,,,,,,,,,,,,,,,,,,,,,,,,,,,,,,,,,,,,,,,,,,,,,,,,,,,,,,,,,,,,,,,,,,,,,,,,,,,,,,,,,,,,,,,,,,,,,,,,,,,,,,,,,,,,,,,,,,,,,,,,,,,,,,
,,546bd06ffdf99b2b8df97e88,2024-02-22_04h41.17.997,kallum_motion_pilot,2023.2.2,Win32,119.047619,546bd06ffdf99b2b8df97e88,65d6bb0e977760de756971f7,65d6c218ee13f9561621c064,0.0424,0.0425,0,51,51,20,1,threeone,,,,,,,,,,,,,,,,,,,,,,,,,,,,,,,,,,,,,,,,,,,,,,,,,,,,,,,,,,,,,,,,,,,,,,,,,,,,,,,,,,,,,,,,,,,,,,,,,,,,,,,,,,,,,,,,,,,,,,,,,,,,,,,,,,,,,,,,,
,,546bd06ffdf99b2b8df97e88,2024-02-22_04h41.17.997,kallum_motion_pilot,2023.2.2,Win32,119.047619,546bd06ffdf99b2b8df97e88,65d6bb0e977760de756971f7,65d6c218ee13f9561621c064,0.0425,0.0426,0,52,52,69,1,threefour,,,,,,,,,,,,,,,,,,,,,,,,,,,,,,,,,,,,,,,,,,,,,,,,,,,,,,,,,,,,,,,,,,,,,,,,,,,,,,,,,,,,,,,,,,,,,,,,,,,,,,,,,,,,,,,,,,,,,,,,,,,,,,,,,,,,,,,,,
,,546bd06ffdf99b2b8df97e88,2024-02-22_04h41.17.997,kallum_motion_pilot,2023.2.2,Win32,119.047619,546bd06ffdf99b2b8df97e88,65d6bb0e977760de756971f7,65d6c218ee13f9561621c064,0.0427,0.0427,0,53,53,87,1,eightseven,,,,,,,,,,,,,,,,,,,,,,,,,,,,,,,,,,,,,,,,,,,,,,,,,,,,,,,,,,,,,,,,,,,,,,,,,,,,,,,,,,,,,,,,,,,,,,,,,,,,,,,,,,,,,,,,,,,,,,,,,,,,,,,,,,,,,,,,,
,,546bd06ffdf99b2b8df97e88,2024-02-22_04h41.17.997,kallum_motion_pilot,2023.2.2,Win32,119.047619,546bd06ffdf99b2b8df97e88,65d6bb0e977760de756971f7,65d6c218ee13f9561621c064,0.0428,0.0428,0,54,54,134,1,eightsix,,,,,,,,,,,,,,,,,,,,,,,,,,,,,,,,,,,,,,,,,,,,,,,,,,,,,,,,,,,,,,,,,,,,,,,,,,,,,,,,,,,,,,,,,,,,,,,,,,,,,,,,,,,,,,,,,,,,,,,,,,,,,,,,,,,,,,,,,
,,546bd06ffdf99b2b8df97e88,2024-02-22_04h41.17.997,kallum_motion_pilot,2023.2.2,Win32,119.047619,546bd06ffdf99b2b8df97e88,65d6bb0e977760de756971f7,65d6c218ee13f9561621c064,0.0429,0.0431,0,55,55,151,1,eightseven,,,,,,,,,,,,,,,,,,,,,,,,,,,,,,,,,,,,,,,,,,,,,,,,,,,,,,,,,,,,,,,,,,,,,,,,,,,,,,,,,,,,,,,,,,,,,,,,,,,,,,,,,,,,,,,,,,,,,,,,,,,,,,,,,,,,,,,,,
,,546bd06ffdf99b2b8df97e88,2024-02-22_04h41.17.997,kallum_motion_pilot,2023.2.2,Win32,119.047619,546bd06ffdf99b2b8df97e88,65d6bb0e977760de756971f7,65d6c218ee13f9561621c064,0.0431,0.0431,0,56,56,52,1,threeone,,,,,,,,,,,,,,,,,,,,,,,,,,,,,,,,,,,,,,,,,,,,,,,,,,,,,,,,,,,,,,,,,,,,,,,,,,,,,,,,,,,,,,,,,,,,,,,,,,,,,,,,,,,,,,,,,,,,,,,,,,,,,,,,,,,,,,,,,
,,546bd06ffdf99b2b8df97e88,2024-02-22_04h41.17.997,kallum_motion_pilot,2023.2.2,Win32,119.047619,546bd06ffdf99b2b8df97e88,65d6bb0e977760de756971f7,65d6c218ee13f9561621c064,0.0432,0.0432,0,57,57,22,1,fourtwo,,,,,,,,,,,,,,,,,,,,,,,,,,,,,,,,,,,,,,,,,,,,,,,,,,,,,,,,,,,,,,,,,,,,,,,,,,,,,,,,,,,,,,,,,,,,,,,,,,,,,,,,,,,,,,,,,,,,,,,,,,,,,,,,,,,,,,,,,
,,546bd06ffdf99b2b8df97e88,2024-02-22_04h41.17.997,kallum_motion_pilot,2023.2.2,Win32,119.047619,546bd06ffdf99b2b8df97e88,65d6bb0e977760de756971f7,65d6c218ee13f9561621c064,0.0434,0.0434,0,58,58,4,1,threeone,,,,,,,,,,,,,,,,,,,,,,,,,,,,,,,,,,,,,,,,,,,,,,,,,,,,,,,,,,,,,,,,,,,,,,,,,,,,,,,,,,,,,,,,,,,,,,,,,,,,,,,,,,,,,,,,,,,,,,,,,,,,,,,,,,,,,,,,,
,,546bd06ffdf99b2b8df97e88,2024-02-22_04h41.17.997,kallum_motion_pilot,2023.2.2,Win32,119.047619,546bd06ffdf99b2b8df97e88,65d6bb0e977760de756971f7,65d6c218ee13f9561621c064,0.0435,0.0436,0,59,59,30,1,fourtwo,,,,,,,,,,,,,,,,,,,,,,,,,,,,,,,,,,,,,,,,,,,,,,,,,,,,,,,,,,,,,,,,,,,,,,,,,,,,,,,,,,,,,,,,,,,,,,,,,,,,,,,,,,,,,,,,,,,,,,,,,,,,,,,,,,,,,,,,,
,,546bd06ffdf99b2b8df97e88,2024-02-22_04h41.17.997,kallum_motion_pilot,2023.2.2,Win32,119.047619,546bd06ffdf99b2b8df97e88,65d6bb0e977760de756971f7,65d6c218ee13f9561621c064,0.0437,0.0437,0,60,60,157,1,seveneight,,,,,,,,,,,,,,,,,,,,,,,,,,,,,,,,,,,,,,,,,,,,,,,,,,,,,,,,,,,,,,,,,,,,,,,,,,,,,,,,,,,,,,,,,,,,,,,,,,,,,,,,,,,,,,,,,,,,,,,,,,,,,,,,,,,,,,,,,
,,546bd06ffdf99b2b8df97e88,2024-02-22_04h41.17.997,kallum_motion_pilot,2023.2.2,Win32,119.047619,546bd06ffdf99b2b8df97e88,65d6bb0e977760de756971f7,65d6c218ee13f9561621c064,0.0439,0.0439,0,61,61,102,1,eightsix,,,,,,,,,,,,,,,,,,,,,,,,,,,,,,,,,,,,,,,,,,,,,,,,,,,,,,,,,,,,,,,,,,,,,,,,,,,,,,,,,,,,,,,,,,,,,,,,,,,,,,,,,,,,,,,,,,,,,,,,,,,,,,,,,,,,,,,,,
,,546bd06ffdf99b2b8df97e88,2024-02-22_04h41.17.997,kallum_motion_pilot,2023.2.2,Win32,119.047619,546bd06ffdf99b2b8df97e88,65d6bb0e977760de756971f7,65d6c218ee13f9561621c064,0.044,0.0441,0,62,62,84,1,sevenfive,,,,,,,,,,,,,,,,,,,,,,,,,,,,,,,,,,,,,,,,,,,,,,,,,,,,,,,,,,,,,,,,,,,,,,,,,,,,,,,,,,,,,,,,,,,,,,,,,,,,,,,,,,,,,,,,,,,,,,,,,,,,,,,,,,,,,,,,,
,,546bd06ffdf99b2b8df97e88,2024-02-22_04h41.17.997,kallum_motion_pilot,2023.2.2,Win32,119.047619,546bd06ffdf99b2b8df97e88,65d6bb0e977760de756971f7,65d6c218ee13f9561621c064,0.0442,0.0443,0,63,63,138,1,sixfive,,,,,,,,,,,,,,,,,,,,,,,,,,,,,,,,,,,,,,,,,,,,,,,,,,,,,,,,,,,,,,,,,,,,,,,,,,,,,,,,,,,,,,,,,,,,,,,,,,,,,,,,,,,,,,,,,,,,,,,,,,,,,,,,,,,,,,,,,
,,546bd06ffdf99b2b8df97e88,2024-02-22_04h41.17.997,kallum_motion_pilot,2023.2.2,Win32,119.047619,546bd06ffdf99b2b8df97e88,65d6bb0e977760de756971f7,65d6c218ee13f9561621c064,0.0443,0.0445,0,64,64,158,1,eightsix,,,,,,,,,,,,,,,,,,,,,,,,,,,,,,,,,,,,,,,,,,,,,,,,,,,,,,,,,,,,,,,,,,,,,,,,,,,,,,,,,,,,,,,,,,,,,,,,,,,,,,,,,,,,,,,,,,,,,,,,,,,,,,,,,,,,,,,,,
,,546bd06ffdf99b2b8df97e88,2024-02-22_04h41.17.997,kallum_motion_pilot,2023.2.2,Win32,119.047619,546bd06ffdf99b2b8df97e88,65d6bb0e977760de756971f7,65d6c218ee13f9561621c064,0.0446,0.0446,0,65,65,8,1,onetwo,,,,,,,,,,,,,,,,,,,,,,,,,,,,,,,,,,,,,,,,,,,,,,,,,,,,,,,,,,,,,,,,,,,,,,,,,,,,,,,,,,,,,,,,,,,,,,,,,,,,,,,,,,,,,,,,,,,,,,,,,,,,,,,,,,,,,,,,,
,,546bd06ffdf99b2b8df97e88,2024-02-22_04h41.17.997,kallum_motion_pilot,2023.2.2,Win32,119.047619,546bd06ffdf99b2b8df97e88,65d6bb0e977760de756971f7,65d6c218ee13f9561621c064,0.0447,0.0447,0,66,66,61,1,threefour,,,,,,,,,,,,,,,,,,,,,,,,,,,,,,,,,,,,,,,,,,,,,,,,,,,,,,,,,,,,,,,,,,,,,,,,,,,,,,,,,,,,,,,,,,,,,,,,,,,,,,,,,,,,,,,,,,,,,,,,,,,,,,,,,,,,,,,,,
,,546bd06ffdf99b2b8df97e88,2024-02-22_04h41.17.997,kallum_motion_pilot,2023.2.2,Win32,119.047619,546bd06ffdf99b2b8df97e88,65d6bb0e977760de756971f7,65d6c218ee13f9561621c064,0.0448,0.0449,0,67,67,53,1,threefour,,,,,,,,,,,,,,,,,,,,,,,,,,,,,,,,,,,,,,,,,,,,,,,,,,,,,,,,,,,,,,,,,,,,,,,,,,,,,,,,,,,,,,,,,,,,,,,,,,,,,,,,,,,,,,,,,,,,,,,,,,,,,,,,,,,,,,,,,
,,546bd06ffdf99b2b8df97e88,2024-02-22_04h41.17.997,kallum_motion_pilot,2023.2.2,Win32,119.047619,546bd06ffdf99b2b8df97e88,65d6bb0e977760de756971f7,65d6c218ee13f9561621c064,0.045,0.045,0,68,68,137,1,fiveseven,,,,,,,,,,,,,,,,,,,,,,,,,,,,,,,,,,,,,,,,,,,,,,,,,,,,,,,,,,,,,,,,,,,,,,,,,,,,,,,,,,,,,,,,,,,,,,,,,,,,,,,,,,,,,,,,,,,,,,,,,,,,,,,,,,,,,,,,,
,,546bd06ffdf99b2b8df97e88,2024-02-22_04h41.17.997,kallum_motion_pilot,2023.2.2,Win32,119.047619,546bd06ffdf99b2b8df97e88,65d6bb0e977760de756971f7,65d6c218ee13f9561621c064,0.0452,0.0453,0,69,69,34,1,twoone,,,,,,,,,,,,,,,,,,,,,,,,,,,,,,,,,,,,,,,,,,,,,,,,,,,,,,,,,,,,,,,,,,,,,,,,,,,,,,,,,,,,,,,,,,,,,,,,,,,,,,,,,,,,,,,,,,,,,,,,,,,,,,,,,,,,,,,,,
,,546bd06ffdf99b2b8df97e88,2024-02-22_04h41.17.997,kallum_motion_pilot,2023.2.2,Win32,119.047619,546bd06ffdf99b2b8df97e88,65d6bb0e977760de756971f7,65d6c218ee13f9561621c064,0.0453,0.0453,0,70,70,112,1,fivesix,,,,,,,,,,,,,,,,,,,,,,,,,,,,,,,,,,,,,,,,,,,,,,,,,,,,,,,,,,,,,,,,,,,,,,,,,,,,,,,,,,,,,,,,,,,,,,,,,,,,,,,,,,,,,,,,,,,,,,,,,,,,,,,,,,,,,,,,,
,,546bd06ffdf99b2b8df97e88,2024-02-22_04h41.17.997,kallum_motion_pilot,2023.2.2,Win32,119.047619,546bd06ffdf99b2b8df97e88,65d6bb0e977760de756971f7,65d6c218ee13f9561621c064,0.0455,0.0456,0,71,71,160,1,fivesix,,,,,,,,,,,,,,,,,,,,,,,,,,,,,,,,,,,,,,,,,,,,,,,,,,,,,,,,,,,,,,,,,,,,,,,,,,,,,,,,,,,,,,,,,,,,,,,,,,,,,,,,,,,,,,,,,,,,,,,,,,,,,,,,,,,,,,,,,
,,546bd06ffdf99b2b8df97e88,2024-02-22_04h41.17.997,kallum_motion_pilot,2023.2.2,Win32,119.047619,546bd06ffdf99b2b8df97e88,65d6bb0e977760de756971f7,65d6c218ee13f9561621c064,0.0456,0.0456,0,72,72,78,1,fourtwo,,,,,,,,,,,,,,,,,,,,,,,,,,,,,,,,,,,,,,,,,,,,,,,,,,,,,,,,,,,,,,,,,,,,,,,,,,,,,,,,,,,,,,,,,,,,,,,,,,,,,,,,,,,,,,,,,,,,,,,,,,,,,,,,,,,,,,,,,
,,546bd06ffdf99b2b8df97e88,2024-02-22_04h41.17.997,kallum_motion_pilot,2023.2.2,Win32,119.047619,546bd06ffdf99b2b8df97e88,65d6bb0e977760de756971f7,65d6c218ee13f9561621c064,0.0458,0.0458,0,73,73,0,1,onetwo,,,,,,,,,,,,,,,,,,,,,,,,,,,,,,,,,,,,,,,,,,,,,,,,,,,,,,,,,,,,,,,,,,,,,,,,,,,,,,,,,,,,,,,,,,,,,,,,,,,,,,,,,,,,,,,,,,,,,,,,,,,,,,,,,,,,,,,,,
,,546bd06ffdf99b2b8df97e88,2024-02-22_04h41.17.997,kallum_motion_pilot,2023.2.2,Win32,119.047619,546bd06ffdf99b2b8df97e88,65d6bb0e977760de756971f7,65d6c218ee13f9561621c064,0.0459,0.046,0,74,74,103,1,eightseven,,,,,,,,,,,,,,,,,,,,,,,,,,,,,,,,,,,,,,,,,,,,,,,,,,,,,,,,,,,,,,,,,,,,,,,,,,,,,,,,,,,,,,,,,,,,,,,,,,,,,,,,,,,,,,,,,,,,,,,,,,,,,,,,,,,,,,,,,
,,546bd06ffdf99b2b8df97e88,2024-02-22_04h41.17.997,kallum_motion_pilot,2023.2.2,Win32,119.047619,546bd06ffdf99b2b8df97e88,65d6bb0e977760de756971f7,65d6c218ee13f9561621c064,0.0461,0.0461,0,75,75,144,1,fivesix,,,,,,,,,,,,,,,,,,,,,,,,,,,,,,,,,,,,,,,,,,,,,,,,,,,,,,,,,,,,,,,,,,,,,,,,,,,,,,,,,,,,,,,,,,,,,,,,,,,,,,,,,,,,,,,,,,,,,,,,,,,,,,,,,,,,,,,,,
,,546bd06ffdf99b2b8df97e88,2024-02-22_04h41.17.997,kallum_motion_pilot,2023.2.2,Win32,119.047619,546bd06ffdf99b2b8df97e88,65d6bb0e977760de756971f7,65d6c218ee13f9561621c064,0.0463,0.0463,0,76,76,116,1,sevenfive,,,,,,,,,,,,,,,,,,,,,,,,,,,,,,,,,,,,,,,,,,,,,,,,,,,,,,,,,,,,,,,,,,,,,,,,,,,,,,,,,,,,,,,,,,,,,,,,,,,,,,,,,,,,,,,,,,,,,,,,,,,,,,,,,,,,,,,,,
,,546bd06ffdf99b2b8df97e88,2024-02-22_04h41.17.997,kallum_motion_pilot,2023.2.2,Win32,119.047619,546bd06ffdf99b2b8df97e88,65d6bb0e977760de756971f7,65d6c218ee13f9561621c064,0.0464,0.0465,0,77,77,142,1,eightsix,,,,,,,,,,,,,,,,,,,,,,,,,,,,,,,,,,,,,,,,,,,,,,,,,,,,,,,,,,,,,,,,,,,,,,,,,,,,,,,,,,,,,,,,,,,,,,,,,,,,,,,,,,,,,,,,,,,,,,,,,,,,,,,,,,,,,,,,,
,,546bd06ffdf99b2b8df97e88,2024-02-22_04h41.17.997,kallum_motion_pilot,2023.2.2,Win32,119.047619,546bd06ffdf99b2b8df97e88,65d6bb0e977760de756971f7,65d6c218ee13f9561621c064,0.0466,0.0467,0,78,78,148,1,sevenfive,,,,,,,,,,,,,,,,,,,,,,,,,,,,,,,,,,,,,,,,,,,,,,,,,,,,,,,,,,,,,,,,,,,,,,,,,,,,,,,,,,,,,,,,,,,,,,,,,,,,,,,,,,,,,,,,,,,,,,,,,,,,,,,,,,,,,,,,,
,,546bd06ffdf99b2b8df97e88,2024-02-22_04h41.17.997,kallum_motion_pilot,2023.2.2,Win32,119.047619,546bd06ffdf99b2b8df97e88,65d6bb0e977760de756971f7,65d6c218ee13f9561621c064,0.0467,0.0468,0,79,79,133,1,seveneight,,,,,,,,,,,,,,,,,,,,,,,,,,,,,,,,,,,,,,,,,,,,,,,,,,,,,,,,,,,,,,,,,,,,,,,,,,,,,,,,,,,,,,,,,,,,,,,,,,,,,,,,,,,,,,,,,,,,,,,,,,,,,,,,,,,,,,,,,
,,546bd06ffdf99b2b8df97e88,2024-02-22_04h41.17.997,kallum_motion_pilot,2023.2.2,Win32,119.047619,546bd06ffdf99b2b8df97e88,65d6bb0e977760de756971f7,65d6c218ee13f9561621c064,0.0469,0.047,0,80,80,80,1,fivesix,,,,,,,,,,,,,,,,,,,,,,,,,,,,,,,,,,,,,,,,,,,,,,,,,,,,,,,,,,,,,,,,,,,,,,,,,,,,,,,,,,,,,,,,,,,,,,,,,,,,,,,,,,,,,,,,,,,,,,,,,,,,,,,,,,,,,,,,,
,,546bd06ffdf99b2b8df97e88,2024-02-22_04h41.17.997,kallum_motion_pilot,2023.2.2,Win32,119.047619,546bd06ffdf99b2b8df97e88,65d6bb0e977760de756971f7,65d6c218ee13f9561621c064,0.047,0.0472,0,81,81,105,1,fiveseven,,,,,,,,,,,,,,,,,,,,,,,,,,,,,,,,,,,,,,,,,,,,,,,,,,,,,,,,,,,,,,,,,,,,,,,,,,,,,,,,,,,,,,,,,,,,,,,,,,,,,,,,,,,,,,,,,,,,,,,,,,,,,,,,,,,,,,,,,
,,546bd06ffdf99b2b8df97e88,2024-02-22_04h41.17.997,kallum_motion_pilot,2023.2.2,Win32,119.047619,546bd06ffdf99b2b8df97e88,65d6bb0e977760de756971f7,65d6c218ee13f9561621c064,0.0472,0.0473,0,82,82,135,1,eightseven,,,,,,,,,,,,,,,,,,,,,,,,,,,,,,,,,,,,,,,,,,,,,,,,,,,,,,,,,,,,,,,,,,,,,,,,,,,,,,,,,,,,,,,,,,,,,,,,,,,,,,,,,,,,,,,,,,,,,,,,,,,,,,,,,,,,,,,,,
,,546bd06ffdf99b2b8df97e88,2024-02-22_04h41.17.997,kallum_motion_pilot,2023.2.2,Win32,119.047619,546bd06ffdf99b2b8df97e88,65d6bb0e977760de756971f7,65d6c218ee13f9561621c064,0.0474,0.0474,0,83,83,29,1,threefour,,,,,,,,,,,,,,,,,,,,,,,,,,,,,,,,,,,,,,,,,,,,,,,,,,,,,,,,,,,,,,,,,,,,,,,,,,,,,,,,,,,,,,,,,,,,,,,,,,,,,,,,,,,,,,,,,,,,,,,,,,,,,,,,,,,,,,,,,
,,546bd06ffdf99b2b8df97e88,2024-02-22_04h41.17.997,kallum_motion_pilot,2023.2.2,Win32,119.047619,546bd06ffdf99b2b8df97e88,65d6bb0e977760de756971f7,65d6c218ee13f9561621c064,0.0476,0.0476,0,84,84,79,1,eightseven,,,,,,,,,,,,,,,,,,,,,,,,,,,,,,,,,,,,,,,,,,,,,,,,,,,,,,,,,,,,,,,,,,,,,,,,,,,,,,,,,,,,,,,,,,,,,,,,,,,,,,,,,,,,,,,,,,,,,,,,,,,,,,,,,,,,,,,,,
,,546bd06ffdf99b2b8df97e88,2024-02-22_04h41.17.997,kallum_motion_pilot,2023.2.2,Win32,119.047619,546bd06ffdf99b2b8df97e88,65d6bb0e977760de756971f7,65d6c218ee13f9561621c064,0.0477,0.0477,0,85,85,75,1,twofour,,,,,,,,,,,,,,,,,,,,,,,,,,,,,,,,,,,,,,,,,,,,,,,,,,,,,,,,,,,,,,,,,,,,,,,,,,,,,,,,,,,,,,,,,,,,,,,,,,,,,,,,,,,,,,,,,,,,,,,,,,,,,,,,,,,,,,,,,
,,546bd06ffdf99b2b8df97e88,2024-02-22_04h41.17.997,kallum_motion_pilot,2023.2.2,Win32,119.047619,546bd06ffdf99b2b8df97e88,65d6bb0e977760de756971f7,65d6c218ee13f9561621c064,0.0479,0.048,0,86,86,24,1,onetwo,,,,,,,,,,,,,,,,,,,,,,,,,,,,,,,,,,,,,,,,,,,,,,,,,,,,,,,,,,,,,,,,,,,,,,,,,,,,,,,,,,,,,,,,,,,,,,,,,,,,,,,,,,,,,,,,,,,,,,,,,,,,,,,,,,,,,,,,,
,,546bd06ffdf99b2b8df97e88,2024-02-22_04h41.17.997,kallum_motion_pilot,2023.2.2,Win32,119.047619,546bd06ffdf99b2b8df97e88,65d6bb0e977760de756971f7,65d6c218ee13f9561621c064,0.0481,0.0482,0,87,87,113,1,fiveseven,,,,,,,,,,,,,,,,,,,,,,,,,,,,,,,,,,,,,,,,,,,,,,,,,,,,,,,,,,,,,,,,,,,,,,,,,,,,,,,,,,,,,,,,,,,,,,,,,,,,,,,,,,,,,,,,,,,,,,,,,,,,,,,,,,,,,,,,,
,,546bd06ffdf99b2b8df97e88,2024-02-22_04h41.17.997,kallum_motion_pilot,2023.2.2,Win32,119.047619,546bd06ffdf99b2b8df97e88,65d6bb0e977760de756971f7,65d6c218ee13f9561621c064,0.0495,0.0497,0,88,88,139,1,sixeight,,,,,,,,,,,,,,,,,,,,,,,,,,,,,,,,,,,,,,,,,,,,,,,,,,,,,,,,,,,,,,,,,,,,,,,,,,,,,,,,,,,,,,,,,,,,,,,,,,,,,,,,,,,,,,,,,,,,,,,,,,,,,,,,,,,,,,,,,
,,546bd06ffdf99b2b8df97e88,2024-02-22_04h41.17.997,kallum_motion_pilot,2023.2.2,Win32,119.047619,546bd06ffdf99b2b8df97e88,65d6bb0e977760de756971f7,65d6c218ee13f9561621c064,0.05,0.0501,0,89,89,90,1,sixfive,,,,,,,,,,,,,,,,,,,,,,,,,,,,,,,,,,,,,,,,,,,,,,,,,,,,,,,,,,,,,,,,,,,,,,,,,,,,,,,,,,,,,,,,,,,,,,,,,,,,,,,,,,,,,,,,,,,,,,,,,,,,,,,,,,,,,,,,,
,,546bd06ffdf99b2b8df97e88,2024-02-22_04h41.17.997,kallum_motion_pilot,2023.2.2,Win32,119.047619,546bd06ffdf99b2b8df97e88,65d6bb0e977760de756971f7,65d6c218ee13f9561621c064,0.0503,0.0503,0,90,90,44,1,threeone,,,,,,,,,,,,,,,,,,,,,,,,,,,,,,,,,,,,,,,,,,,,,,,,,,,,,,,,,,,,,,,,,,,,,,,,,,,,,,,,,,,,,,,,,,,,,,,,,,,,,,,,,,,,,,,,,,,,,,,,,,,,,,,,,,,,,,,,,
,,546bd06ffdf99b2b8df97e88,2024-02-22_04h41.17.997,kallum_motion_pilot,2023.2.2,Win32,119.047619,546bd06ffdf99b2b8df97e88,65d6bb0e977760de756971f7,65d6c218ee13f9561621c064,0.0505,0.0505,0,91,91,43,1,twofour,,,,,,,,,,,,,,,,,,,,,,,,,,,,,,,,,,,,,,,,,,,,,,,,,,,,,,,,,,,,,,,,,,,,,,,,,,,,,,,,,,,,,,,,,,,,,,,,,,,,,,,,,,,,,,,,,,,,,,,,,,,,,,,,,,,,,,,,,
,,546bd06ffdf99b2b8df97e88,2024-02-22_04h41.17.997,kallum_motion_pilot,2023.2.2,Win32,119.047619,546bd06ffdf99b2b8df97e88,65d6bb0e977760de756971f7,65d6c218ee13f9561621c064,0.0506,0.0506,0,92,92,150,1,eightsix,,,,,,,,,,,,,,,,,,,,,,,,,,,,,,,,,,,,,,,,,,,,,,,,,,,,,,,,,,,,,,,,,,,,,,,,,,,,,,,,,,,,,,,,,,,,,,,,,,,,,,,,,,,,,,,,,,,,,,,,,,,,,,,,,,,,,,,,,
,,546bd06ffdf99b2b8df97e88,2024-02-22_04h41.17.997,kallum_motion_pilot,2023.2.2,Win32,119.047619,546bd06ffdf99b2b8df97e88,65d6bb0e977760de756971f7,65d6c218ee13f9561621c064,0.0508,0.0508,0,93,93,140,1,sevenfive,,,,,,,,,,,,,,,,,,,,,,,,,,,,,,,,,,,,,,,,,,,,,,,,,,,,,,,,,,,,,,,,,,,,,,,,,,,,,,,,,,,,,,,,,,,,,,,,,,,,,,,,,,,,,,,,,,,,,,,,,,,,,,,,,,,,,,,,,
,,546bd06ffdf99b2b8df97e88,2024-02-22_04h41.17.997,kallum_motion_pilot,2023.2.2,Win32,119.047619,546bd06ffdf99b2b8df97e88,65d6bb0e977760de756971f7,65d6c218ee13f9561621c064,0.0509,0.051,0,94,94,156,1,sevenfive,,,,,,,,,,,,,,,,,,,,,,,,,,,,,,,,,,,,,,,,,,,,,,,,,,,,,,,,,,,,,,,,,,,,,,,,,,,,,,,,,,,,,,,,,,,,,,,,,,,,,,,,,,,,,,,,,,,,,,,,,,,,,,,,,,,,,,,,,
,,546bd06ffdf99b2b8df97e88,2024-02-22_04h41.17.997,kallum_motion_pilot,2023.2.2,Win32,119.047619,546bd06ffdf99b2b8df97e88,65d6bb0e977760de756971f7,65d6c218ee13f9561621c064,0.0511,0.0512,0,95,95,63,1,fourthree,,,,,,,,,,,,,,,,,,,,,,,,,,,,,,,,,,,,,,,,,,,,,,,,,,,,,,,,,,,,,,,,,,,,,,,,,,,,,,,,,,,,,,,,,,,,,,,,,,,,,,,,,,,,,,,,,,,,,,,,,,,,,,,,,,,,,,,,,
,,546bd06ffdf99b2b8df97e88,2024-02-22_04h41.17.997,kallum_motion_pilot,2023.2.2,Win32,119.047619,546bd06ffdf99b2b8df97e88,65d6bb0e977760de756971f7,65d6c218ee13f9561621c064,0.0512,0.0513,0,96,96,73,1,onethree,,,,,,,,,,,,,,,,,,,,,,,,,,,,,,,,,,,,,,,,,,,,,,,,,,,,,,,,,,,,,,,,,,,,,,,,,,,,,,,,,,,,,,,,,,,,,,,,,,,,,,,,,,,,,,,,,,,,,,,,,,,,,,,,,,,,,,,,,
,,546bd06ffdf99b2b8df97e88,2024-02-22_04h41.17.997,kallum_motion_pilot,2023.2.2,Win32,119.047619,546bd06ffdf99b2b8df97e88,65d6bb0e977760de756971f7,65d6c218ee13f9561621c064,0.0514,0.0514,0,97,97,56,1,onetwo,,,,,,,,,,,,,,,,,,,,,,,,,,,,,,,,,,,,,,,,,,,,,,,,,,,,,,,,,,,,,,,,,,,,,,,,,,,,,,,,,,,,,,,,,,,,,,,,,,,,,,,,,,,,,,,,,,,,,,,,,,,,,,,,,,,,,,,,,
,,546bd06ffdf99b2b8df97e88,2024-02-22_04h41.17.997,kallum_motion_pilot,2023.2.2,Win32,119.047619,546bd06ffdf99b2b8df97e88,65d6bb0e977760de756971f7,65d6c218ee13f9561621c064,0.0516,0.0516,0,98,98,99,1,sixeight,,,,,,,,,,,,,,,,,,,,,,,,,,,,,,,,,,,,,,,,,,,,,,,,,,,,,,,,,,,,,,,,,,,,,,,,,,,,,,,,,,,,,,,,,,,,,,,,,,,,,,,,,,,,,,,,,,,,,,,,,,,,,,,,,,,,,,,,,
,,546bd06ffdf99b2b8df97e88,2024-02-22_04h41.17.997,kallum_motion_pilot,2023.2.2,Win32,119.047619,546bd06ffdf99b2b8df97e88,65d6bb0e977760de756971f7,65d6c218ee13f9561621c064,0.0517,0.0518,0,99,99,67,1,twofour,,,,,,,,,,,,,,,,,,,,,,,,,,,,,,,,,,,,,,,,,,,,,,,,,,,,,,,,,,,,,,,,,,,,,,,,,,,,,,,,,,,,,,,,,,,,,,,,,,,,,,,,,,,,,,,,,,,,,,,,,,,,,,,,,,,,,,,,,
,,546bd06ffdf99b2b8df97e88,2024-02-22_04h41.17.997,kallum_motion_pilot,2023.2.2,Win32,119.047619,546bd06ffdf99b2b8df97e88,65d6bb0e977760de756971f7,65d6c218ee13f9561621c064,0.0519,0.0521,0,100,100,131,1,sixeight,,,,,,,,,,,,,,,,,,,,,,,,,,,,,,,,,,,,,,,,,,,,,,,,,,,,,,,,,,,,,,,,,,,,,,,,,,,,,,,,,,,,,,,,,,,,,,,,,,,,,,,,,,,,,,,,,,,,,,,,,,,,,,,,,,,,,,,,,
,,546bd06ffdf99b2b8df97e88,2024-02-22_04h41.17.997,kallum_motion_pilot,2023.2.2,Win32,119.047619,546bd06ffdf99b2b8df97e88,65d6bb0e977760de756971f7,65d6c218ee13f9561621c064,0.0523,0.0523,0,101,101,18,1,twoone,,,,,,,,,,,,,,,,,,,,,,,,,,,,,,,,,,,,,,,,,,,,,,,,,,,,,,,,,,,,,,,,,,,,,,,,,,,,,,,,,,,,,,,,,,,,,,,,,,,,,,,,,,,,,,,,,,,,,,,,,,,,,,,,,,,,,,,,,
,,546bd06ffdf99b2b8df97e88,2024-02-22_04h41.17.997,kallum_motion_pilot,2023.2.2,Win32,119.047619,546bd06ffdf99b2b8df97e88,65d6bb0e977760de756971f7,65d6c218ee13f9561621c064,0.0524,0.0525,0,102,102,40,1,onetwo,,,,,,,,,,,,,,,,,,,,,,,,,,,,,,,,,,,,,,,,,,,,,,,,,,,,,,,,,,,,,,,,,,,,,,,,,,,,,,,,,,,,,,,,,,,,,,,,,,,,,,,,,,,,,,,,,,,,,,,,,,,,,,,,,,,,,,,,,
,,546bd06ffdf99b2b8df97e88,2024-02-22_04h41.17.997,kallum_motion_pilot,2023.2.2,Win32,119.047619,546bd06ffdf99b2b8df97e88,65d6bb0e977760de756971f7,65d6c218ee13f9561621c064,0.0526,0.0527,0,103,103,26,1,twoone,,,,,,,,,,,,,,,,,,,,,,,,,,,,,,,,,,,,,,,,,,,,,,,,,,,,,,,,,,,,,,,,,,,,,,,,,,,,,,,,,,,,,,,,,,,,,,,,,,,,,,,,,,,,,,,,,,,,,,,,,,,,,,,,,,,,,,,,,
,,546bd06ffdf99b2b8df97e88,2024-02-22_04h41.17.997,kallum_motion_pilot,2023.2.2,Win32,119.047619,546bd06ffdf99b2b8df97e88,65d6bb0e977760de756971f7,65d6c218ee13f9561621c064,0.0528,0.0528,0,104,104,117,1,seveneight,,,,,,,,,,,,,,,,,,,,,,,,,,,,,,,,,,,,,,,,,,,,,,,,,,,,,,,,,,,,,,,,,,,,,,,,,,,,,,,,,,,,,,,,,,,,,,,,,,,,,,,,,,,,,,,,,,,,,,,,,,,,,,,,,,,,,,,,,
,,546bd06ffdf99b2b8df97e88,2024-02-22_04h41.17.997,kallum_motion_pilot,2023.2.2,Win32,119.047619,546bd06ffdf99b2b8df97e88,65d6bb0e977760de756971f7,65d6c218ee13f9561621c064,0.053,0.053,0,105,105,37,1,threefour,,,,,,,,,,,,,,,,,,,,,,,,,,,,,,,,,,,,,,,,,,,,,,,,,,,,,,,,,,,,,,,,,,,,,,,,,,,,,,,,,,,,,,,,,,,,,,,,,,,,,,,,,,,,,,,,,,,,,,,,,,,,,,,,,,,,,,,,,
,,546bd06ffdf99b2b8df97e88,2024-02-22_04h41.17.997,kallum_motion_pilot,2023.2.2,Win32,119.047619,546bd06ffdf99b2b8df97e88,65d6bb0e977760de756971f7,65d6c218ee13f9561621c064,0.0532,0.0532,0,106,106,129,1,fiveseven,,,,,,,,,,,,,,,,,,,,,,,,,,,,,,,,,,,,,,,,,,,,,,,,,,,,,,,,,,,,,,,,,,,,,,,,,,,,,,,,,,,,,,,,,,,,,,,,,,,,,,,,,,,,,,,,,,,,,,,,,,,,,,,,,,,,,,,,,
,,546bd06ffdf99b2b8df97e88,2024-02-22_04h41.17.997,kallum_motion_pilot,2023.2.2,Win32,119.047619,546bd06ffdf99b2b8df97e88,65d6bb0e977760de756971f7,65d6c218ee13f9561621c064,0.0533,0.0533,0,107,107,39,1,fourthree,,,,,,,,,,,,,,,,,,,,,,,,,,,,,,,,,,,,,,,,,,,,,,,,,,,,,,,,,,,,,,,,,,,,,,,,,,,,,,,,,,,,,,,,,,,,,,,,,,,,,,,,,,,,,,,,,,,,,,,,,,,,,,,,,,,,,,,,,
,,546bd06ffdf99b2b8df97e88,2024-02-22_04h41.17.997,kallum_motion_pilot,2023.2.2,Win32,119.047619,546bd06ffdf99b2b8df97e88,65d6bb0e977760de756971f7,65d6c218ee13f9561621c064,0.0535,0.0536,0,108,108,45,1,threefour,,,,,,,,,,,,,,,,,,,,,,,,,,,,,,,,,,,,,,,,,,,,,,,,,,,,,,,,,,,,,,,,,,,,,,,,,,,,,,,,,,,,,,,,,,,,,,,,,,,,,,,,,,,,,,,,,,,,,,,,,,,,,,,,,,,,,,,,,
,,546bd06ffdf99b2b8df97e88,2024-02-22_04h41.17.997,kallum_motion_pilot,2023.2.2,Win32,119.047619,546bd06ffdf99b2b8df97e88,65d6bb0e977760de756971f7,65d6c218ee13f9561621c064,0.0536,0.0537,0,109,109,152,1,fivesix,,,,,,,,,,,,,,,,,,,,,,,,,,,,,,,,,,,,,,,,,,,,,,,,,,,,,,,,,,,,,,,,,,,,,,,,,,,,,,,,,,,,,,,,,,,,,,,,,,,,,,,,,,,,,,,,,,,,,,,,,,,,,,,,,,,,,,,,,
,,546bd06ffdf99b2b8df97e88,2024-02-22_04h41.17.997,kallum_motion_pilot,2023.2.2,Win32,119.047619,546bd06ffdf99b2b8df97e88,65d6bb0e977760de756971f7,65d6c218ee13f9561621c064,0.0538,0.0539,0,110,110,7,1,fourthree,,,,,,,,,,,,,,,,,,,,,,,,,,,,,,,,,,,,,,,,,,,,,,,,,,,,,,,,,,,,,,,,,,,,,,,,,,,,,,,,,,,,,,,,,,,,,,,,,,,,,,,,,,,,,,,,,,,,,,,,,,,,,,,,,,,,,,,,,
,,546bd06ffdf99b2b8df97e88,2024-02-22_04h41.17.997,kallum_motion_pilot,2023.2.2,Win32,119.047619,546bd06ffdf99b2b8df97e88,65d6bb0e977760de756971f7,65d6c218ee13f9561621c064,0.0539,0.0541,0,111,111,120,1,fivesix,,,,,,,,,,,,,,,,,,,,,,,,,,,,,,,,,,,,,,,,,,,,,,,,,,,,,,,,,,,,,,,,,,,,,,,,,,,,,,,,,,,,,,,,,,,,,,,,,,,,,,,,,,,,,,,,,,,,,,,,,,,,,,,,,,,,,,,,,
,,546bd06ffdf99b2b8df97e88,2024-02-22_04h41.17.997,kallum_motion_pilot,2023.2.2,Win32,119.047619,546bd06ffdf99b2b8df97e88,65d6bb0e977760de756971f7,65d6c218ee13f9561621c064,0.0541,0.0541,0,112,112,16,1,onetwo,,,,,,,,,,,,,,,,,,,,,,,,,,,,,,,,,,,,,,,,,,,,,,,,,,,,,,,,,,,,,,,,,,,,,,,,,,,,,,,,,,,,,,,,,,,,,,,,,,,,,,,,,,,,,,,,,,,,,,,,,,,,,,,,,,,,,,,,,
,,546bd06ffdf99b2b8df97e88,2024-02-22_04h41.17.997,kallum_motion_pilot,2023.2.2,Win32,119.047619,546bd06ffdf99b2b8df97e88,65d6bb0e977760de756971f7,65d6c218ee13f9561621c064,0.0543,0.0543,0,113,113,114,1,sixfive,,,,,,,,,,,,,,,,,,,,,,,,,,,,,,,,,,,,,,,,,,,,,,,,,,,,,,,,,,,,,,,,,,,,,,,,,,,,,,,,,,,,,,,,,,,,,,,,,,,,,,,,,,,,,,,,,,,,,,,,,,,,,,,,,,,,,,,,,
,,546bd06ffdf99b2b8df97e88,2024-02-22_04h41.17.997,kallum_motion_pilot,2023.2.2,Win32,119.047619,546bd06ffdf99b2b8df97e88,65d6bb0e977760de756971f7,65d6c218ee13f9561621c064,0.0544,0.0545,0,114,114,13,1,threefour,,,,,,,,,,,,,,,,,,,,,,,,,,,,,,,,,,,,,,,,,,,,,,,,,,,,,,,,,,,,,,,,,,,,,,,,,,,,,,,,,,,,,,,,,,,,,,,,,,,,,,,,,,,,,,,,,,,,,,,,,,,,,,,,,,,,,,,,,
,,546bd06ffdf99b2b8df97e88,2024-02-22_04h41.17.997,kallum_motion_pilot,2023.2.2,Win32,119.047619,546bd06ffdf99b2b8df97e88,65d6bb0e977760de756971f7,65d6c218ee13f9561621c064,0.0545,0.0546,0,115,115,141,1,seveneight,,,,,,,,,,,,,,,,,,,,,,,,,,,,,,,,,,,,,,,,,,,,,,,,,,,,,,,,,,,,,,,,,,,,,,,,,,,,,,,,,,,,,,,,,,,,,,,,,,,,,,,,,,,,,,,,,,,,,,,,,,,,,,,,,,,,,,,,,
,,546bd06ffdf99b2b8df97e88,2024-02-22_04h41.17.997,kallum_motion_pilot,2023.2.2,Win32,119.047619,546bd06ffdf99b2b8df97e88,65d6bb0e977760de756971f7,65d6c218ee13f9561621c064,0.0548,0.0548,0,116,116,146,1,sixfive,,,,,,,,,,,,,,,,,,,,,,,,,,,,,,,,,,,,,,,,,,,,,,,,,,,,,,,,,,,,,,,,,,,,,,,,,,,,,,,,,,,,,,,,,,,,,,,,,,,,,,,,,,,,,,,,,,,,,,,,,,,,,,,,,,,,,,,,,
,,546bd06ffdf99b2b8df97e88,2024-02-22_04h41.17.997,kallum_motion_pilot,2023.2.2,Win32,119.047619,546bd06ffdf99b2b8df97e88,65d6bb0e977760de756971f7,65d6c218ee13f9561621c064,0.0558,0.0559,0,117,117,95,1,eightseven,,,,,,,,,,,,,,,,,,,,,,,,,,,,,,,,,,,,,,,,,,,,,,,,,,,,,,,,,,,,,,,,,,,,,,,,,,,,,,,,,,,,,,,,,,,,,,,,,,,,,,,,,,,,,,,,,,,,,,,,,,,,,,,,,,,,,,,,,
,,546bd06ffdf99b2b8df97e88,2024-02-22_04h41.17.997,kallum_motion_pilot,2023.2.2,Win32,119.047619,546bd06ffdf99b2b8df97e88,65d6bb0e977760de756971f7,65d6c218ee13f9561621c064,0.0559,0.0561,0,118,118,107,1,sixeight,,,,,,,,,,,,,,,,,,,,,,,,,,,,,,,,,,,,,,,,,,,,,,,,,,,,,,,,,,,,,,,,,,,,,,,,,,,,,,,,,,,,,,,,,,,,,,,,,,,,,,,,,,,,,,,,,,,,,,,,,,,,,,,,,,,,,,,,,
,,546bd06ffdf99b2b8df97e88,2024-02-22_04h41.17.997,kallum_motion_pilot,2023.2.2,Win32,119.047619,546bd06ffdf99b2b8df97e88,65d6bb0e977760de756971f7,65d6c218ee13f9561621c064,0.0561,0.0562,0,119,119,54,1,fourtwo,,,,,,,,,,,,,,,,,,,,,,,,,,,,,,,,,,,,,,,,,,,,,,,,,,,,,,,,,,,,,,,,,,,,,,,,,,,,,,,,,,,,,,,,,,,,,,,,,,,,,,,,,,,,,,,,,,,,,,,,,,,,,,,,,,,,,,,,,
,,546bd06ffdf99b2b8df97e88,2024-02-22_04h41.17.997,kallum_motion_pilot,2023.2.2,Win32,119.047619,546bd06ffdf99b2b8df97e88,65d6bb0e977760de756971f7,65d6c218ee13f9561621c064,0.0564,0.0564,0,120,120,132,1,sevenfive,,,,,,,,,,,,,,,,,,,,,,,,,,,,,,,,,,,,,,,,,,,,,,,,,,,,,,,,,,,,,,,,,,,,,,,,,,,,,,,,,,,,,,,,,,,,,,,,,,,,,,,,,,,,,,,,,,,,,,,,,,,,,,,,,,,,,,,,,
,,546bd06ffdf99b2b8df97e88,2024-02-22_04h41.17.997,kallum_motion_pilot,2023.2.2,Win32,119.047619,546bd06ffdf99b2b8df97e88,65d6bb0e977760de756971f7,65d6c218ee13f9561621c064,0.0564,0.0566,0,121,121,51,1,twofour,,,,,,,,,,,,,,,,,,,,,,,,,,,,,,,,,,,,,,,,,,,,,,,,,,,,,,,,,,,,,,,,,,,,,,,,,,,,,,,,,,,,,,,,,,,,,,,,,,,,,,,,,,,,,,,,,,,,,,,,,,,,,,,,,,,,,,,,,
,,546bd06ffdf99b2b8df97e88,2024-02-22_04h41.17.997,kallum_motion_pilot,2023.2.2,Win32,119.047619,546bd06ffdf99b2b8df97e88,65d6bb0e977760de756971f7,65d6c218ee13f9561621c064,0.0574,0.0575,0,122,122,111,1,eightseven,,,,,,,,,,,,,,,,,,,,,,,,,,,,,,,,,,,,,,,,,,,,,,,,,,,,,,,,,,,,,,,,,,,,,,,,,,,,,,,,,,,,,,,,,,,,,,,,,,,,,,,,,,,,,,,,,,,,,,,,,,,,,,,,,,,,,,,,,
,,546bd06ffdf99b2b8df97e88,2024-02-22_04h41.17.997,kallum_motion_pilot,2023.2.2,Win32,119.047619,546bd06ffdf99b2b8df97e88,65d6bb0e977760de756971f7,65d6c218ee13f9561621c064,0.0578,0.0579,0,123,123,1,1,onethree,,,,,,,,,,,,,,,,,,,,,,,,,,,,,,,,,,,,,,,,,,,,,,,,,,,,,,,,,,,,,,,,,,,,,,,,,,,,,,,,,,,,,,,,,,,,,,,,,,,,,,,,,,,,,,,,,,,,,,,,,,,,,,,,,,,,,,,,,
,,546bd06ffdf99b2b8df97e88,2024-02-22_04h41.17.997,kallum_motion_pilot,2023.2.2,Win32,119.047619,546bd06ffdf99b2b8df97e88,65d6bb0e977760de756971f7,65d6c218ee13f9561621c064,0.0583,0.0584,0,124,124,70,1,fourtwo,,,,,,,,,,,,,,,,,,,,,,,,,,,,,,,,,,,,,,,,,,,,,,,,,,,,,,,,,,,,,,,,,,,,,,,,,,,,,,,,,,,,,,,,,,,,,,,,,,,,,,,,,,,,,,,,,,,,,,,,,,,,,,,,,,,,,,,,,
,,546bd06ffdf99b2b8df97e88,2024-02-22_04h41.17.997,kallum_motion_pilot,2023.2.2,Win32,119.047619,546bd06ffdf99b2b8df97e88,65d6bb0e977760de756971f7,65d6c218ee13f9561621c064,0.0586,0.0586,0,125,125,10,1,twoone,,,,,,,,,,,,,,,,,,,,,,,,,,,,,,,,,,,,,,,,,,,,,,,,,,,,,,,,,,,,,,,,,,,,,,,,,,,,,,,,,,,,,,,,,,,,,,,,,,,,,,,,,,,,,,,,,,,,,,,,,,,,,,,,,,,,,,,,,
,,546bd06ffdf99b2b8df97e88,2024-02-22_04h41.17.997,kallum_motion_pilot,2023.2.2,Win32,119.047619,546bd06ffdf99b2b8df97e88,65d6bb0e977760de756971f7,65d6c218ee13f9561621c064,0.0588,0.0588,0,126,126,33,1,onethree,,,,,,,,,,,,,,,,,,,,,,,,,,,,,,,,,,,,,,,,,,,,,,,,,,,,,,,,,,,,,,,,,,,,,,,,,,,,,,,,,,,,,,,,,,,,,,,,,,,,,,,,,,,,,,,,,,,,,,,,,,,,,,,,,,,,,,,,,
,,546bd06ffdf99b2b8df97e88,2024-02-22_04h41.17.997,kallum_motion_pilot,2023.2.2,Win32,119.047619,546bd06ffdf99b2b8df97e88,65d6bb0e977760de756971f7,65d6c218ee13f9561621c064,0.0589,0.059,0,127,127,12,1,threeone,,,,,,,,,,,,,,,,,,,,,,,,,,,,,,,,,,,,,,,,,,,,,,,,,,,,,,,,,,,,,,,,,,,,,,,,,,,,,,,,,,,,,,,,,,,,,,,,,,,,,,,,,,,,,,,,,,,,,,,,,,,,,,,,,,,,,,,,,
,,546bd06ffdf99b2b8df97e88,2024-02-22_04h41.17.997,kallum_motion_pilot,2023.2.2,Win32,119.047619,546bd06ffdf99b2b8df97e88,65d6bb0e977760de756971f7,65d6c218ee13f9561621c064,0.0592,0.0592,0,128,128,72,1,onetwo,,,,,,,,,,,,,,,,,,,,,,,,,,,,,,,,,,,,,,,,,,,,,,,,,,,,,,,,,,,,,,,,,,,,,,,,,,,,,,,,,,,,,,,,,,,,,,,,,,,,,,,,,,,,,,,,,,,,,,,,,,,,,,,,,,,,,,,,,
,,546bd06ffdf99b2b8df97e88,2024-02-22_04h41.17.997,kallum_motion_pilot,2023.2.2,Win32,119.047619,546bd06ffdf99b2b8df97e88,65d6bb0e977760de756971f7,65d6c218ee13f9561621c064,0.0593,0.0593,0,129,129,36,1,threeone,,,,,,,,,,,,,,,,,,,,,,,,,,,,,,,,,,,,,,,,,,,,,,,,,,,,,,,,,,,,,,,,,,,,,,,,,,,,,,,,,,,,,,,,,,,,,,,,,,,,,,,,,,,,,,,,,,,,,,,,,,,,,,,,,,,,,,,,,
,,546bd06ffdf99b2b8df97e88,2024-02-22_04h41.17.997,kallum_motion_pilot,2023.2.2,Win32,119.047619,546bd06ffdf99b2b8df97e88,65d6bb0e977760de756971f7,65d6c218ee13f9561621c064,0.0595,0.0595,0,130,130,130,1,sixfive,,,,,,,,,,,,,,,,,,,,,,,,,,,,,,,,,,,,,,,,,,,,,,,,,,,,,,,,,,,,,,,,,,,,,,,,,,,,,,,,,,,,,,,,,,,,,,,,,,,,,,,,,,,,,,,,,,,,,,,,,,,,,,,,,,,,,,,,,
,,546bd06ffdf99b2b8df97e88,2024-02-22_04h41.17.997,kallum_motion_pilot,2023.2.2,Win32,119.047619,546bd06ffdf99b2b8df97e88,65d6bb0e977760de756971f7,65d6c218ee13f9561621c064,0.0596,0.0597,0,131,131,5,1,threefour,,,,,,,,,,,,,,,,,,,,,,,,,,,,,,,,,,,,,,,,,,,,,,,,,,,,,,,,,,,,,,,,,,,,,,,,,,,,,,,,,,,,,,,,,,,,,,,,,,,,,,,,,,,,,,,,,,,,,,,,,,,,,,,,,,,,,,,,,
,,546bd06ffdf99b2b8df97e88,2024-02-22_04h41.17.997,kallum_motion_pilot,2023.2.2,Win32,119.047619,546bd06ffdf99b2b8df97e88,65d6bb0e977760de756971f7,65d6c218ee13f9561621c064,0.0598,0.0598,0,132,132,97,1,fiveseven,,,,,,,,,,,,,,,,,,,,,,,,,,,,,,,,,,,,,,,,,,,,,,,,,,,,,,,,,,,,,,,,,,,,,,,,,,,,,,,,,,,,,,,,,,,,,,,,,,,,,,,,,,,,,,,,,,,,,,,,,,,,,,,,,,,,,,,,,
,,546bd06ffdf99b2b8df97e88,2024-02-22_04h41.17.997,kallum_motion_pilot,2023.2.2,Win32,119.047619,546bd06ffdf99b2b8df97e88,65d6bb0e977760de756971f7,65d6c218ee13f9561621c064,0.06,0.0601,0,133,133,81,1,fiveseven,,,,,,,,,,,,,,,,,,,,,,,,,,,,,,,,,,,,,,,,,,,,,,,,,,,,,,,,,,,,,,,,,,,,,,,,,,,,,,,,,,,,,,,,,,,,,,,,,,,,,,,,,,,,,,,,,,,,,,,,,,,,,,,,,,,,,,,,,
,,546bd06ffdf99b2b8df97e88,2024-02-22_04h41.17.997,kallum_motion_pilot,2023.2.2,Win32,119.047619,546bd06ffdf99b2b8df97e88,65d6bb0e977760de756971f7,65d6c218ee13f9561621c064,0.0601,0.0602,0,134,134,58,1,twoone,,,,,,,,,,,,,,,,,,,,,,,,,,,,,,,,,,,,,,,,,,,,,,,,,,,,,,,,,,,,,,,,,,,,,,,,,,,,,,,,,,,,,,,,,,,,,,,,,,,,,,,,,,,,,,,,,,,,,,,,,,,,,,,,,,,,,,,,,
,,546bd06ffdf99b2b8df97e88,2024-02-22_04h41.17.997,kallum_motion_pilot,2023.2.2,Win32,119.047619,546bd06ffdf99b2b8df97e88,65d6bb0e977760de756971f7,65d6c218ee13f9561621c064,0.0603,0.0604,0,135,135,19,1,twofour,,,,,,,,,,,,,,,,,,,,,,,,,,,,,,,,,,,,,,,,,,,,,,,,,,,,,,,,,,,,,,,,,,,,,,,,,,,,,,,,,,,,,,,,,,,,,,,,,,,,,,,,,,,,,,,,,,,,,,,,,,,,,,,,,,,,,,,,,
,,546bd06ffdf99b2b8df97e88,2024-02-22_04h41.17.997,kallum_motion_pilot,2023.2.2,Win32,119.047619,546bd06ffdf99b2b8df97e88,65d6bb0e977760de756971f7,65d6c218ee13f9561621c064,0.0605,0.0605,0,136,136,86,1,eightsix,,,,,,,,,,,,,,,,,,,,,,,,,,,,,,,,,,,,,,,,,,,,,,,,,,,,,,,,,,,,,,,,,,,,,,,,,,,,,,,,,,,,,,,,,,,,,,,,,,,,,,,,,,,,,,,,,,,,,,,,,,,,,,,,,,,,,,,,,
,,546bd06ffdf99b2b8df97e88,2024-02-22_04h41.17.997,kallum_motion_pilot,2023.2.2,Win32,119.047619,546bd06ffdf99b2b8df97e88,65d6bb0e977760de756971f7,65d6c218ee13f9561621c064,0.0605,0.0606,0,137,137,76,1,threeone,,,,,,,,,,,,,,,,,,,,,,,,,,,,,,,,,,,,,,,,,,,,,,,,,,,,,,,,,,,,,,,,,,,,,,,,,,,,,,,,,,,,,,,,,,,,,,,,,,,,,,,,,,,,,,,,,,,,,,,,,,,,,,,,,,,,,,,,,
,,546bd06ffdf99b2b8df97e88,2024-02-22_04h41.17.997,kallum_motion_pilot,2023.2.2,Win32,119.047619,546bd06ffdf99b2b8df97e88,65d6bb0e977760de756971f7,65d6c218ee13f9561621c064,0.0607,0.0608,0,138,138,68,1,threeone,,,,,,,,,,,,,,,,,,,,,,,,,,,,,,,,,,,,,,,,,,,,,,,,,,,,,,,,,,,,,,,,,,,,,,,,,,,,,,,,,,,,,,,,,,,,,,,,,,,,,,,,,,,,,,,,,,,,,,,,,,,,,,,,,,,,,,,,,
,,546bd06ffdf99b2b8df97e88,2024-02-22_04h41.17.997,kallum_motion_pilot,2023.2.2,Win32,119.047619,546bd06ffdf99b2b8df97e88,65d6bb0e977760de756971f7,65d6c218ee13f9561621c064,0.0609,0.061,0,139,139,46,1,fourtwo,,,,,,,,,,,,,,,,,,,,,,,,,,,,,,,,,,,,,,,,,,,,,,,,,,,,,,,,,,,,,,,,,,,,,,,,,,,,,,,,,,,,,,,,,,,,,,,,,,,,,,,,,,,,,,,,,,,,,,,,,,,,,,,,,,,,,,,,,
,,546bd06ffdf99b2b8df97e88,2024-02-22_04h41.17.997,kallum_motion_pilot,2023.2.2,Win32,119.047619,546bd06ffdf99b2b8df97e88,65d6bb0e977760de756971f7,65d6c218ee13f9561621c064,0.0611,0.0611,0,140,140,83,1,sixeight,,,,,,,,,,,,,,,,,,,,,,,,,,,,,,,,,,,,,,,,,,,,,,,,,,,,,,,,,,,,,,,,,,,,,,,,,,,,,,,,,,,,,,,,,,,,,,,,,,,,,,,,,,,,,,,,,,,,,,,,,,,,,,,,,,,,,,,,,
,,546bd06ffdf99b2b8df97e88,2024-02-22_04h41.17.997,kallum_motion_pilot,2023.2.2,Win32,119.047619,546bd06ffdf99b2b8df97e88,65d6bb0e977760de756971f7,65d6c218ee13f9561621c064,0.0612,0.0613,0,141,141,82,1,sixfive,,,,,,,,,,,,,,,,,,,,,,,,,,,,,,,,,,,,,,,,,,,,,,,,,,,,,,,,,,,,,,,,,,,,,,,,,,,,,,,,,,,,,,,,,,,,,,,,,,,,,,,,,,,,,,,,,,,,,,,,,,,,,,,,,,,,,,,,,
,,546bd06ffdf99b2b8df97e88,2024-02-22_04h41.17.997,kallum_motion_pilot,2023.2.2,Win32,119.047619,546bd06ffdf99b2b8df97e88,65d6bb0e977760de756971f7,65d6c218ee13f9561621c064,0.0614,0.0614,0,142,142,121,1,fiveseven,,,,,,,,,,,,,,,,,,,,,,,,,,,,,,,,,,,,,,,,,,,,,,,,,,,,,,,,,,,,,,,,,,,,,,,,,,,,,,,,,,,,,,,,,,,,,,,,,,,,,,,,,,,,,,,,,,,,,,,,,,,,,,,,,,,,,,,,,
,,546bd06ffdf99b2b8df97e88,2024-02-22_04h41.17.997,kallum_motion_pilot,2023.2.2,Win32,119.047619,546bd06ffdf99b2b8df97e88,65d6bb0e977760de756971f7,65d6c218ee13f9561621c064,0.0615,0.0616,0,143,143,57,1,onethree,,,,,,,,,,,,,,,,,,,,,,,,,,,,,,,,,,,,,,,,,,,,,,,,,,,,,,,,,,,,,,,,,,,,,,,,,,,,,,,,,,,,,,,,,,,,,,,,,,,,,,,,,,,,,,,,,,,,,,,,,,,,,,,,,,,,,,,,,
,,546bd06ffdf99b2b8df97e88,2024-02-22_04h41.17.997,kallum_motion_pilot,2023.2.2,Win32,119.047619,546bd06ffdf99b2b8df97e88,65d6bb0e977760de756971f7,65d6c218ee13f9561621c064,0.0617,0.0618,0,144,144,50,1,twoone,,,,,,,,,,,,,,,,,,,,,,,,,,,,,,,,,,,,,,,,,,,,,,,,,,,,,,,,,,,,,,,,,,,,,,,,,,,,,,,,,,,,,,,,,,,,,,,,,,,,,,,,,,,,,,,,,,,,,,,,,,,,,,,,,,,,,,,,,
,,546bd06ffdf99b2b8df97e88,2024-02-22_04h41.17.997,kallum_motion_pilot,2023.2.2,Win32,119.047619,546bd06ffdf99b2b8df97e88,65d6bb0e977760de756971f7,65d6c218ee13f9561621c064,0.0619,0.0619,0,145,145,159,1,eightseven,,,,,,,,,,,,,,,,,,,,,,,,,,,,,,,,,,,,,,,,,,,,,,,,,,,,,,,,,,,,,,,,,,,,,,,,,,,,,,,,,,,,,,,,,,,,,,,,,,,,,,,,,,,,,,,,,,,,,,,,,,,,,,,,,,,,,,,,,
,,546bd06ffdf99b2b8df97e88,2024-02-22_04h41.17.997,kallum_motion_pilot,2023.2.2,Win32,119.047619,546bd06ffdf99b2b8df97e88,65d6bb0e977760de756971f7,65d6c218ee13f9561621c064,0.062,0.0621,0,146,146,64,1,onetwo,,,,,,,,,,,,,,,,,,,,,,,,,,,,,,,,,,,,,,,,,,,,,,,,,,,,,,,,,,,,,,,,,,,,,,,,,,,,,,,,,,,,,,,,,,,,,,,,,,,,,,,,,,,,,,,,,,,,,,,,,,,,,,,,,,,,,,,,,
,,546bd06ffdf99b2b8df97e88,2024-02-22_04h41.17.997,kallum_motion_pilot,2023.2.2,Win32,119.047619,546bd06ffdf99b2b8df97e88,65d6bb0e977760de756971f7,65d6c218ee13f9561621c064,0.0621,0.0623,0,147,147,101,1,seveneight,,,,,,,,,,,,,,,,,,,,,,,,,,,,,,,,,,,,,,,,,,,,,,,,,,,,,,,,,,,,,,,,,,,,,,,,,,,,,,,,,,,,,,,,,,,,,,,,,,,,,,,,,,,,,,,,,,,,,,,,,,,,,,,,,,,,,,,,,
,,546bd06ffdf99b2b8df97e88,2024-02-22_04h41.17.997,kallum_motion_pilot,2023.2.2,Win32,119.047619,546bd06ffdf99b2b8df97e88,65d6bb0e977760de756971f7,65d6c218ee13f9561621c064,0.0624,0.0624,0,148,148,32,1,onetwo,,,,,,,,,,,,,,,,,,,,,,,,,,,,,,,,,,,,,,,,,,,,,,,,,,,,,,,,,,,,,,,,,,,,,,,,,,,,,,,,,,,,,,,,,,,,,,,,,,,,,,,,,,,,,,,,,,,,,,,,,,,,,,,,,,,,,,,,,
,,546bd06ffdf99b2b8df97e88,2024-02-22_04h41.17.997,kallum_motion_pilot,2023.2.2,Win32,119.047619,546bd06ffdf99b2b8df97e88,65d6bb0e977760de756971f7,65d6c218ee13f9561621c064,0.0624,0.0626,0,149,149,28,1,threeone,,,,,,,,,,,,,,,,,,,,,,,,,,,,,,,,,,,,,,,,,,,,,,,,,,,,,,,,,,,,,,,,,,,,,,,,,,,,,,,,,,,,,,,,,,,,,,,,,,,,,,,,,,,,,,,,,,,,,,,,,,,,,,,,,,,,,,,,,
,,546bd06ffdf99b2b8df97e88,2024-02-22_04h41.17.997,kallum_motion_pilot,2023.2.2,Win32,119.047619,546bd06ffdf99b2b8df97e88,65d6bb0e977760de756971f7,65d6c218ee13f9561621c064,0.0626,0.0627,0,150,150,88,1,fivesix,,,,,,,,,,,,,,,,,,,,,,,,,,,,,,,,,,,,,,,,,,,,,,,,,,,,,,,,,,,,,,,,,,,,,,,,,,,,,,,,,,,,,,,,,,,,,,,,,,,,,,,,,,,,,,,,,,,,,,,,,,,,,,,,,,,,,,,,,
,,546bd06ffdf99b2b8df97e88,2024-02-22_04h41.17.997,kallum_motion_pilot,2023.2.2,Win32,119.047619,546bd06ffdf99b2b8df97e88,65d6bb0e977760de756971f7,65d6c218ee13f9561621c064,0.0628,0.0629,0,151,151,98,1,sixfive,,,,,,,,,,,,,,,,,,,,,,,,,,,,,,,,,,,,,,,,,,,,,,,,,,,,,,,,,,,,,,,,,,,,,,,,,,,,,,,,,,,,,,,,,,,,,,,,,,,,,,,,,,,,,,,,,,,,,,,,,,,,,,,,,,,,,,,,,
,,546bd06ffdf99b2b8df97e88,2024-02-22_04h41.17.997,kallum_motion_pilot,2023.2.2,Win32,119.047619,546bd06ffdf99b2b8df97e88,65d6bb0e977760de756971f7,65d6c218ee13f9561621c064,0.0629,0.063,0,152,152,62,1,fourtwo,,,,,,,,,,,,,,,,,,,,,,,,,,,,,,,,,,,,,,,,,,,,,,,,,,,,,,,,,,,,,,,,,,,,,,,,,,,,,,,,,,,,,,,,,,,,,,,,,,,,,,,,,,,,,,,,,,,,,,,,,,,,,,,,,,,,,,,,,
,,546bd06ffdf99b2b8df97e88,2024-02-22_04h41.17.997,kallum_motion_pilot,2023.2.2,Win32,119.047619,546bd06ffdf99b2b8df97e88,65d6bb0e977760de756971f7,65d6c218ee13f9561621c064,0.0631,0.0632,0,153,153,122,1,sixfive,,,,,,,,,,,,,,,,,,,,,,,,,,,,,,,,,,,,,,,,,,,,,,,,,,,,,,,,,,,,,,,,,,,,,,,,,,,,,,,,,,,,,,,,,,,,,,,,,,,,,,,,,,,,,,,,,,,,,,,,,,,,,,,,,,,,,,,,,
,,546bd06ffdf99b2b8df97e88,2024-02-22_04h41.17.997,kallum_motion_pilot,2023.2.2,Win32,119.047619,546bd06ffdf99b2b8df97e88,65d6bb0e977760de756971f7,65d6c218ee13f9561621c064,0.0633,0.0633,0,154,154,91,1,sixeight,,,,,,,,,,,,,,,,,,,,,,,,,,,,,,,,,,,,,,,,,,,,,,,,,,,,,,,,,,,,,,,,,,,,,,,,,,,,,,,,,,,,,,,,,,,,,,,,,,,,,,,,,,,,,,,,,,,,,,,,,,,,,,,,,,,,,,,,,
,,546bd06ffdf99b2b8df97e88,2024-02-22_04h41.17.997,kallum_motion_pilot,2023.2.2,Win32,119.047619,546bd06ffdf99b2b8df97e88,65d6bb0e977760de756971f7,65d6c218ee13f9561621c064,0.0634,0.0635,0,155,155,66,1,twoone,,,,,,,,,,,,,,,,,,,,,,,,,,,,,,,,,,,,,,,,,,,,,,,,,,,,,,,,,,,,,,,,,,,,,,,,,,,,,,,,,,,,,,,,,,,,,,,,,,,,,,,,,,,,,,,,,,,,,,,,,,,,,,,,,,,,,,,,,
,,546bd06ffdf99b2b8df97e88,2024-02-22_04h41.17.997,kallum_motion_pilot,2023.2.2,Win32,119.047619,546bd06ffdf99b2b8df97e88,65d6bb0e977760de756971f7,65d6c218ee13f9561621c064,0.0636,0.0636,0,156,156,118,1,eightsix,,,,,,,,,,,,,,,,,,,,,,,,,,,,,,,,,,,,,,,,,,,,,,,,,,,,,,,,,,,,,,,,,,,,,,,,,,,,,,,,,,,,,,,,,,,,,,,,,,,,,,,,,,,,,,,,,,,,,,,,,,,,,,,,,,,,,,,,,
,,546bd06ffdf99b2b8df97e88,2024-02-22_04h41.17.997,kallum_motion_pilot,2023.2.2,Win32,119.047619,546bd06ffdf99b2b8df97e88,65d6bb0e977760de756971f7,65d6c218ee13f9561621c064,0.0637,0.0638,0,157,157,119,1,eightseven,,,,,,,,,,,,,,,,,,,,,,,,,,,,,,,,,,,,,,,,,,,,,,,,,,,,,,,,,,,,,,,,,,,,,,,,,,,,,,,,,,,,,,,,,,,,,,,,,,,,,,,,,,,,,,,,,,,,,,,,,,,,,,,,,,,,,,,,,
,,546bd06ffdf99b2b8df97e88,2024-02-22_04h41.17.997,kallum_motion_pilot,2023.2.2,Win32,119.047619,546bd06ffdf99b2b8df97e88,65d6bb0e977760de756971f7,65d6c218ee13f9561621c064,0.0639,0.064,0,158,158,161,1,fiveseven,,,,,,,,,,,,,,,,,,,,,,,,,,,,,,,,,,,,,,,,,,,,,,,,,,,,,,,,,,,,,,,,,,,,,,,,,,,,,,,,,,,,,,,,,,,,,,,,,,,,,,,,,,,,,,,,,,,,,,,,,,,,,,,,,,,,,,,,,
,,546bd06ffdf99b2b8df97e88,2024-02-22_04h41.17.997,kallum_motion_pilot,2023.2.2,Win32,119.047619,546bd06ffdf99b2b8df97e88,65d6bb0e977760de756971f7,65d6c218ee13f9561621c064,0.064,0.0641,0,159,159,143,1,eightseven,,,,,,,,,,,,,,,,,,,,,,,,,,,,,,,,,,,,,,,,,,,,,,,,,,,,,,,,,,,,,,,,,,,,,,,,,,,,,,,,,,,,,,,,,,,,,,,,,,,,,,,,,,,,,,,,,,,,,,,,,,,,,,,,,,,,,,,,,
,,546bd06ffdf99b2b8df97e88,2024-02-22_04h41.17.997,kallum_motion_pilot,2023.2.2,Win32,119.047619,546bd06ffdf99b2b8df97e88,65d6bb0e977760de756971f7,65d6c218ee13f9561621c064,0.0642,0.0642,0,160,160,104,1,fivesix,,,,,,,,,,,,,,,,,,,,,,,,,,,,,,,,,,,,,,,,,,,,,,,,,,,,,,,,,,,,,,,,,,,,,,,,,,,,,,,,,,,,,,,,,,,,,,,,,,,,,,,,,,,,,,,,,,,,,,,,,,,,,,,,,,,,,,,,,
,,546bd06ffdf99b2b8df97e88,2024-02-22_04h41.17.997,kallum_motion_pilot,2023.2.2,Win32,119.047619,546bd06ffdf99b2b8df97e88,65d6bb0e977760de756971f7,65d6c218ee13f9561621c064,0.0644,0.0644,0,161,161,17,1,onethree,,,,,,,,,,,,,,,,,,,,,,,,,,,,,,,,,,,,,,,,,,,,,,,,,,,,,,,,,,,,,,,,,,,,,,,,,,,,,,,,,,,,,,,,,,,,,,,,,,,,,,,,,,,,,,,,,,,,,,,,,,,,,,,,,,,,,,,,,
,,546bd06ffdf99b2b8df97e88,2024-02-22_04h41.17.997,kallum_motion_pilot,2023.2.2,Win32,119.047619,546bd06ffdf99b2b8df97e88,65d6bb0e977760de756971f7,65d6c218ee13f9561621c064,0.0646,0.0646,1,0,162,52,1,threeone,,,,,,,,,,,,,,,,,,,,,,,,,,,,,,,,,,,,,,,,,,,,,,,,,,,,,,,,,,,,,,,,,,,,,,,,,,,,,,,,,,,,,,,,,,,,,,,,,,,,,,,,,,,,,,,,,,,,,,,,,,,,,,,,,,,,,,,,,
,,546bd06ffdf99b2b8df97e88,2024-02-22_04h41.17.997,kallum_motion_pilot,2023.2.2,Win32,119.047619,546bd06ffdf99b2b8df97e88,65d6bb0e977760de756971f7,65d6c218ee13f9561621c064,0.0647,0.0648,1,1,163,64,1,onetwo,,,,,,,,,,,,,,,,,,,,,,,,,,,,,,,,,,,,,,,,,,,,,,,,,,,,,,,,,,,,,,,,,,,,,,,,,,,,,,,,,,,,,,,,,,,,,,,,,,,,,,,,,,,,,,,,,,,,,,,,,,,,,,,,,,,,,,,,,
,,546bd06ffdf99b2b8df97e88,2024-02-22_04h41.17.997,kallum_motion_pilot,2023.2.2,Win32,119.047619,546bd06ffdf99b2b8df97e88,65d6bb0e977760de756971f7,65d6c218ee13f9561621c064,0.0649,0.0649,1,2,164,14,1,fourtwo,,,,,,,,,,,,,,,,,,,,,,,,,,,,,,,,,,,,,,,,,,,,,,,,,,,,,,,,,,,,,,,,,,,,,,,,,,,,,,,,,,,,,,,,,,,,,,,,,,,,,,,,,,,,,,,,,,,,,,,,,,,,,,,,,,,,,,,,,
,,546bd06ffdf99b2b8df97e88,2024-02-22_04h41.17.997,kallum_motion_pilot,2023.2.2,Win32,119.047619,546bd06ffdf99b2b8df97e88,65d6bb0e977760de756971f7,65d6c218ee13f9561621c064,0.0665,0.0665,1,3,165,85,1,seveneight,,,,,,,,,,,,,,,,,,,,,,,,,,,,,,,,,,,,,,,,,,,,,,,,,,,,,,,,,,,,,,,,,,,,,,,,,,,,,,,,,,,,,,,,,,,,,,,,,,,,,,,,,,,,,,,,,,,,,,,,,,,,,,,,,,,,,,,,,
,,546bd06ffdf99b2b8df97e88,2024-02-22_04h41.17.997,kallum_motion_pilot,2023.2.2,Win32,119.047619,546bd06ffdf99b2b8df97e88,65d6bb0e977760de756971f7,65d6c218ee13f9561621c064,0.0667,0.0667,1,4,166,8,1,onetwo,,,,,,,,,,,,,,,,,,,,,,,,,,,,,,,,,,,,,,,,,,,,,,,,,,,,,,,,,,,,,,,,,,,,,,,,,,,,,,,,,,,,,,,,,,,,,,,,,,,,,,,,,,,,,,,,,,,,,,,,,,,,,,,,,,,,,,,,,
,,546bd06ffdf99b2b8df97e88,2024-02-22_04h41.17.997,kallum_motion_pilot,2023.2.2,Win32,119.047619,546bd06ffdf99b2b8df97e88,65d6bb0e977760de756971f7,65d6c218ee13f9561621c064,0.0668,0.067,1,5,167,32,1,onetwo,,,,,,,,,,,,,,,,,,,,,,,,,,,,,,,,,,,,,,,,,,,,,,,,,,,,,,,,,,,,,,,,,,,,,,,,,,,,,,,,,,,,,,,,,,,,,,,,,,,,,,,,,,,,,,,,,,,,,,,,,,,,,,,,,,,,,,,,,
,,546bd06ffdf99b2b8df97e88,2024-02-22_04h41.17.997,kallum_motion_pilot,2023.2.2,Win32,119.047619,546bd06ffdf99b2b8df97e88,65d6bb0e977760de756971f7,65d6c218ee13f9561621c064,0.0671,0.0673,1,6,168,107,1,sixeight,,,,,,,,,,,,,,,,,,,,,,,,,,,,,,,,,,,,,,,,,,,,,,,,,,,,,,,,,,,,,,,,,,,,,,,,,,,,,,,,,,,,,,,,,,,,,,,,,,,,,,,,,,,,,,,,,,,,,,,,,,,,,,,,,,,,,,,,,
,,546bd06ffdf99b2b8df97e88,2024-02-22_04h41.17.997,kallum_motion_pilot,2023.2.2,Win32,119.047619,546bd06ffdf99b2b8df97e88,65d6bb0e977760de756971f7,65d6c218ee13f9561621c064,0.0673,0.0674,1,7,169,119,1,eightseven,,,,,,,,,,,,,,,,,,,,,,,,,,,,,,,,,,,,,,,,,,,,,,,,,,,,,,,,,,,,,,,,,,,,,,,,,,,,,,,,,,,,,,,,,,,,,,,,,,,,,,,,,,,,,,,,,,,,,,,,,,,,,,,,,,,,,,,,,
,,546bd06ffdf99b2b8df97e88,2024-02-22_04h41.17.997,kallum_motion_pilot,2023.2.2,Win32,119.047619,546bd06ffdf99b2b8df97e88,65d6bb0e977760de756971f7,65d6c218ee13f9561621c064,0.0675,0.0676,1,8,170,63,1,fourthree,,,,,,,,,,,,,,,,,,,,,,,,,,,,,,,,,,,,,,,,,,,,,,,,,,,,,,,,,,,,,,,,,,,,,,,,,,,,,,,,,,,,,,,,,,,,,,,,,,,,,,,,,,,,,,,,,,,,,,,,,,,,,,,,,,,,,,,,,
,,546bd06ffdf99b2b8df97e88,2024-02-22_04h41.17.997,kallum_motion_pilot,2023.2.2,Win32,119.047619,546bd06ffdf99b2b8df97e88,65d6bb0e977760de756971f7,65d6c218ee13f9561621c064,0.0677,0.0677,1,9,171,96,1,fivesix,,,,,,,,,,,,,,,,,,,,,,,,,,,,,,,,,,,,,,,,,,,,,,,,,,,,,,,,,,,,,,,,,,,,,,,,,,,,,,,,,,,,,,,,,,,,,,,,,,,,,,,,,,,,,,,,,,,,,,,,,,,,,,,,,,,,,,,,,
,,546bd06ffdf99b2b8df97e88,2024-02-22_04h41.17.997,kallum_motion_pilot,2023.2.2,Win32,119.047619,546bd06ffdf99b2b8df97e88,65d6bb0e977760de756971f7,65d6c218ee13f9561621c064,0.0679,0.068,1,10,172,45,1,threefour,,,,,,,,,,,,,,,,,,,,,,,,,,,,,,,,,,,,,,,,,,,,,,,,,,,,,,,,,,,,,,,,,,,,,,,,,,,,,,,,,,,,,,,,,,,,,,,,,,,,,,,,,,,,,,,,,,,,,,,,,,,,,,,,,,,,,,,,,
,,546bd06ffdf99b2b8df97e88,2024-02-22_04h41.17.997,kallum_motion_pilot,2023.2.2,Win32,119.047619,546bd06ffdf99b2b8df97e88,65d6bb0e977760de756971f7,65d6c218ee13f9561621c064,0.068,0.0681,1,11,173,18,1,twoone,,,,,,,,,,,,,,,,,,,,,,,,,,,,,,,,,,,,,,,,,,,,,,,,,,,,,,,,,,,,,,,,,,,,,,,,,,,,,,,,,,,,,,,,,,,,,,,,,,,,,,,,,,,,,,,,,,,,,,,,,,,,,,,,,,,,,,,,,
,,546bd06ffdf99b2b8df97e88,2024-02-22_04h41.17.997,kallum_motion_pilot,2023.2.2,Win32,119.047619,546bd06ffdf99b2b8df97e88,65d6bb0e977760de756971f7,65d6c218ee13f9561621c064,0.0682,0.0683,1,12,174,57,1,onethree,,,,,,,,,,,,,,,,,,,,,,,,,,,,,,,,,,,,,,,,,,,,,,,,,,,,,,,,,,,,,,,,,,,,,,,,,,,,,,,,,,,,,,,,,,,,,,,,,,,,,,,,,,,,,,,,,,,,,,,,,,,,,,,,,,,,,,,,,
,,546bd06ffdf99b2b8df97e88,2024-02-22_04h41.17.997,kallum_motion_pilot,2023.2.2,Win32,119.047619,546bd06ffdf99b2b8df97e88,65d6bb0e977760de756971f7,65d6c218ee13f9561621c064,0.0684,0.0685,1,13,175,75,1,twofour,,,,,,,,,,,,,,,,,,,,,,,,,,,,,,,,,,,,,,,,,,,,,,,,,,,,,,,,,,,,,,,,,,,,,,,,,,,,,,,,,,,,,,,,,,,,,,,,,,,,,,,,,,,,,,,,,,,,,,,,,,,,,,,,,,,,,,,,,
,,546bd06ffdf99b2b8df97e88,2024-02-22_04h41.17.997,kallum_motion_pilot,2023.2.2,Win32,119.047619,546bd06ffdf99b2b8df97e88,65d6bb0e977760de756971f7,65d6c218ee13f9561621c064,0.0686,0.0687,1,14,176,106,1,sixfive,,,,,,,,,,,,,,,,,,,,,,,,,,,,,,,,,,,,,,,,,,,,,,,,,,,,,,,,,,,,,,,,,,,,,,,,,,,,,,,,,,,,,,,,,,,,,,,,,,,,,,,,,,,,,,,,,,,,,,,,,,,,,,,,,,,,,,,,,
,,546bd06ffdf99b2b8df97e88,2024-02-22_04h41.17.997,kallum_motion_pilot,2023.2.2,Win32,119.047619,546bd06ffdf99b2b8df97e88,65d6bb0e977760de756971f7,65d6c218ee13f9561621c064,0.0688,0.0688,1,15,177,116,1,sevenfive,,,,,,,,,,,,,,,,,,,,,,,,,,,,,,,,,,,,,,,,,,,,,,,,,,,,,,,,,,,,,,,,,,,,,,,,,,,,,,,,,,,,,,,,,,,,,,,,,,,,,,,,,,,,,,,,,,,,,,,,,,,,,,,,,,,,,,,,,
,,546bd06ffdf99b2b8df97e88,2024-02-22_04h41.17.997,kallum_motion_pilot,2023.2.2,Win32,119.047619,546bd06ffdf99b2b8df97e88,65d6bb0e977760de756971f7,65d6c218ee13f9561621c064,0.0689,0.0689,1,16,178,27,1,twofour,,,,,,,,,,,,,,,,,,,,,,,,,,,,,,,,,,,,,,,,,,,,,,,,,,,,,,,,,,,,,,,,,,,,,,,,,,,,,,,,,,,,,,,,,,,,,,,,,,,,,,,,,,,,,,,,,,,,,,,,,,,,,,,,,,,,,,,,,
,,546bd06ffdf99b2b8df97e88,2024-02-22_04h41.17.997,kallum_motion_pilot,2023.2.2,Win32,119.047619,546bd06ffdf99b2b8df97e88,65d6bb0e977760de756971f7,65d6c218ee13f9561621c064,0.069,0.0692,1,17,179,95,1,eightseven,,,,,,,,,,,,,,,,,,,,,,,,,,,,,,,,,,,,,,,,,,,,,,,,,,,,,,,,,,,,,,,,,,,,,,,,,,,,,,,,,,,,,,,,,,,,,,,,,,,,,,,,,,,,,,,,,,,,,,,,,,,,,,,,,,,,,,,,,
,,546bd06ffdf99b2b8df97e88,2024-02-22_04h41.17.997,kallum_motion_pilot,2023.2.2,Win32,119.047619,546bd06ffdf99b2b8df97e88,65d6bb0e977760de756971f7,65d6c218ee13f9561621c064,0.0692,0.0693,1,18,180,58,1,twoone,,,,,,,,,,,,,,,,,,,,,,,,,,,,,,,,,,,,,,,,,,,,,,,,,,,,,,,,,,,,,,,,,,,,,,,,,,,,,,,,,,,,,,,,,,,,,,,,,,,,,,,,,,,,,,,,,,,,,,,,,,,,,,,,,,,,,,,,,
,,546bd06ffdf99b2b8df97e88,2024-02-22_04h41.17.997,kallum_motion_pilot,2023.2.2,Win32,119.047619,546bd06ffdf99b2b8df97e88,65d6bb0e977760de756971f7,65d6c218ee13f9561621c064,0.0694,0.0695,1,19,181,23,1,fourthree,,,,,,,,,,,,,,,,,,,,,,,,,,,,,,,,,,,,,,,,,,,,,,,,,,,,,,,,,,,,,,,,,,,,,,,,,,,,,,,,,,,,,,,,,,,,,,,,,,,,,,,,,,,,,,,,,,,,,,,,,,,,,,,,,,,,,,,,,
,,546bd06ffdf99b2b8df97e88,2024-02-22_04h41.17.997,kallum_motion_pilot,2023.2.2,Win32,119.047619,546bd06ffdf99b2b8df97e88,65d6bb0e977760de756971f7,65d6c218ee13f9561621c064,0.0695,0.0697,1,20,182,139,1,sixeight,,,,,,,,,,,,,,,,,,,,,,,,,,,,,,,,,,,,,,,,,,,,,,,,,,,,,,,,,,,,,,,,,,,,,,,,,,,,,,,,,,,,,,,,,,,,,,,,,,,,,,,,,,,,,,,,,,,,,,,,,,,,,,,,,,,,,,,,,
,,546bd06ffdf99b2b8df97e88,2024-02-22_04h41.17.997,kallum_motion_pilot,2023.2.2,Win32,119.047619,546bd06ffdf99b2b8df97e88,65d6bb0e977760de756971f7,65d6c218ee13f9561621c064,0.0697,0.0698,1,21,183,152,1,fivesix,,,,,,,,,,,,,,,,,,,,,,,,,,,,,,,,,,,,,,,,,,,,,,,,,,,,,,,,,,,,,,,,,,,,,,,,,,,,,,,,,,,,,,,,,,,,,,,,,,,,,,,,,,,,,,,,,,,,,,,,,,,,,,,,,,,,,,,,,
,,546bd06ffdf99b2b8df97e88,2024-02-22_04h41.17.997,kallum_motion_pilot,2023.2.2,Win32,119.047619,546bd06ffdf99b2b8df97e88,65d6bb0e977760de756971f7,65d6c218ee13f9561621c064,0.07,0.0701,1,22,184,128,1,fivesix,,,,,,,,,,,,,,,,,,,,,,,,,,,,,,,,,,,,,,,,,,,,,,,,,,,,,,,,,,,,,,,,,,,,,,,,,,,,,,,,,,,,,,,,,,,,,,,,,,,,,,,,,,,,,,,,,,,,,,,,,,,,,,,,,,,,,,,,,
,,546bd06ffdf99b2b8df97e88,2024-02-22_04h41.17.997,kallum_motion_pilot,2023.2.2,Win32,119.047619,546bd06ffdf99b2b8df97e88,65d6bb0e977760de756971f7,65d6c218ee13f9561621c064,0.0701,0.0702,1,23,185,47,1,fourthree,,,,,,,,,,,,,,,,,,,,,,,,,,,,,,,,,,,,,,,,,,,,,,,,,,,,,,,,,,,,,,,,,,,,,,,,,,,,,,,,,,,,,,,,,,,,,,,,,,,,,,,,,,,,,,,,,,,,,,,,,,,,,,,,,,,,,,,,,
,,546bd06ffdf99b2b8df97e88,2024-02-22_04h41.17.997,kallum_motion_pilot,2023.2.2,Win32,119.047619,546bd06ffdf99b2b8df97e88,65d6bb0e977760de756971f7,65d6c218ee13f9561621c064,0.0703,0.0704,1,24,186,154,1,sixfive,,,,,,,,,,,,,,,,,,,,,,,,,,,,,,,,,,,,,,,,,,,,,,,,,,,,,,,,,,,,,,,,,,,,,,,,,,,,,,,,,,,,,,,,,,,,,,,,,,,,,,,,,,,,,,,,,,,,,,,,,,,,,,,,,,,,,,,,,
,,546bd06ffdf99b2b8df97e88,2024-02-22_04h41.17.997,kallum_motion_pilot,2023.2.2,Win32,119.047619,546bd06ffdf99b2b8df97e88,65d6bb0e977760de756971f7,65d6c218ee13f9561621c064,0.0705,0.0705,1,25,187,65,1,onethree,,,,,,,,,,,,,,,,,,,,,,,,,,,,,,,,,,,,,,,,,,,,,,,,,,,,,,,,,,,,,,,,,,,,,,,,,,,,,,,,,,,,,,,,,,,,,,,,,,,,,,,,,,,,,,,,,,,,,,,,,,,,,,,,,,,,,,,,,
,,546bd06ffdf99b2b8df97e88,2024-02-22_04h41.17.997,kallum_motion_pilot,2023.2.2,Win32,119.047619,546bd06ffdf99b2b8df97e88,65d6bb0e977760de756971f7,65d6c218ee13f9561621c064,0.0707,0.0707,1,26,188,21,1,threefour,,,,,,,,,,,,,,,,,,,,,,,,,,,,,,,,,,,,,,,,,,,,,,,,,,,,,,,,,,,,,,,,,,,,,,,,,,,,,,,,,,,,,,,,,,,,,,,,,,,,,,,,,,,,,,,,,,,,,,,,,,,,,,,,,,,,,,,,,
,,546bd06ffdf99b2b8df97e88,2024-02-22_04h41.17.997,kallum_motion_pilot,2023.2.2,Win32,119.047619,546bd06ffdf99b2b8df97e88,65d6bb0e977760de756971f7,65d6c218ee13f9561621c064,0.0708,0.0709,1,27,189,89,1,fiveseven,,,,,,,,,,,,,,,,,,,,,,,,,,,,,,,,,,,,,,,,,,,,,,,,,,,,,,,,,,,,,,,,,,,,,,,,,,,,,,,,,,,,,,,,,,,,,,,,,,,,,,,,,,,,,,,,,,,,,,,,,,,,,,,,,,,,,,,,,
,,546bd06ffdf99b2b8df97e88,2024-02-22_04h41.17.997,kallum_motion_pilot,2023.2.2,Win32,119.047619,546bd06ffdf99b2b8df97e88,65d6bb0e977760de756971f7,65d6c218ee13f9561621c064,0.071,0.071,1,28,190,80,1,fivesix,,,,,,,,,,,,,,,,,,,,,,,,,,,,,,,,,,,,,,,,,,,,,,,,,,,,,,,,,,,,,,,,,,,,,,,,,,,,,,,,,,,,,,,,,,,,,,,,,,,,,,,,,,,,,,,,,,,,,,,,,,,,,,,,,,,,,,,,,
,,546bd06ffdf99b2b8df97e88,2024-02-22_04h41.17.997,kallum_motion_pilot,2023.2.2,Win32,119.047619,546bd06ffdf99b2b8df97e88,65d6bb0e977760de756971f7,65d6c218ee13f9561621c064,0.0711,0.0712,1,29,191,25,1,onethree,,,,,,,,,,,,,,,,,,,,,,,,,,,,,,,,,,,,,,,,,,,,,,,,,,,,,,,,,,,,,,,,,,,,,,,,,,,,,,,,,,,,,,,,,,,,,,,,,,,,,,,,,,,,,,,,,,,,,,,,,,,,,,,,,,,,,,,,,
,,546bd06ffdf99b2b8df97e88,2024-02-22_04h41.17.997,kallum_motion_pilot,2023.2.2,Win32,119.047619,546bd06ffdf99b2b8df97e88,65d6bb0e977760de756971f7,65d6c218ee13f9561621c064,0.0713,0.0714,1,30,192,55,1,fourthree,,,,,,,,,,,,,,,,,,,,,,,,,,,,,,,,,,,,,,,,,,,,,,,,,,,,,,,,,,,,,,,,,,,,,,,,,,,,,,,,,,,,,,,,,,,,,,,,,,,,,,,,,,,,,,,,,,,,,,,,,,,,,,,,,,,,,,,,,
,,546bd06ffdf99b2b8df97e88,2024-02-22_04h41.17.997,kallum_motion_pilot,2023.2.2,Win32,119.047619,546bd06ffdf99b2b8df97e88,65d6bb0e977760de756971f7,65d6c218ee13f9561621c064,0.0715,0.0716,1,31,193,133,1,seveneight,,,,,,,,,,,,,,,,,,,,,,,,,,,,,,,,,,,,,,,,,,,,,,,,,,,,,,,,,,,,,,,,,,,,,,,,,,,,,,,,,,,,,,,,,,,,,,,,,,,,,,,,,,,,,,,,,,,,,,,,,,,,,,,,,,,,,,,,,
,,546bd06ffdf99b2b8df97e88,2024-02-22_04h41.17.997,kallum_motion_pilot,2023.2.2,Win32,119.047619,546bd06ffdf99b2b8df97e88,65d6bb0e977760de756971f7,65d6c218ee13f9561621c064,0.0716,0.0717,1,32,194,49,1,onethree,,,,,,,,,,,,,,,,,,,,,,,,,,,,,,,,,,,,,,,,,,,,,,,,,,,,,,,,,,,,,,,,,,,,,,,,,,,,,,,,,,,,,,,,,,,,,,,,,,,,,,,,,,,,,,,,,,,,,,,,,,,,,,,,,,,,,,,,,
,,546bd06ffdf99b2b8df97e88,2024-02-22_04h41.17.997,kallum_motion_pilot,2023.2.2,Win32,119.047619,546bd06ffdf99b2b8df97e88,65d6bb0e977760de756971f7,65d6c218ee13f9561621c064,0.0718,0.0719,1,33,195,22,1,fourtwo,,,,,,,,,,,,,,,,,,,,,,,,,,,,,,,,,,,,,,,,,,,,,,,,,,,,,,,,,,,,,,,,,,,,,,,,,,,,,,,,,,,,,,,,,,,,,,,,,,,,,,,,,,,,,,,,,,,,,,,,,,,,,,,,,,,,,,,,,
,,546bd06ffdf99b2b8df97e88,2024-02-22_04h41.17.997,kallum_motion_pilot,2023.2.2,Win32,119.047619,546bd06ffdf99b2b8df97e88,65d6bb0e977760de756971f7,65d6c218ee13f9561621c064,0.072,0.0721,1,34,196,94,1,eightsix,,,,,,,,,,,,,,,,,,,,,,,,,,,,,,,,,,,,,,,,,,,,,,,,,,,,,,,,,,,,,,,,,,,,,,,,,,,,,,,,,,,,,,,,,,,,,,,,,,,,,,,,,,,,,,,,,,,,,,,,,,,,,,,,,,,,,,,,,
,,546bd06ffdf99b2b8df97e88,2024-02-22_04h41.17.997,kallum_motion_pilot,2023.2.2,Win32,119.047619,546bd06ffdf99b2b8df97e88,65d6bb0e977760de756971f7,65d6c218ee13f9561621c064,0.0722,0.0722,1,35,197,66,1,twoone,,,,,,,,,,,,,,,,,,,,,,,,,,,,,,,,,,,,,,,,,,,,,,,,,,,,,,,,,,,,,,,,,,,,,,,,,,,,,,,,,,,,,,,,,,,,,,,,,,,,,,,,,,,,,,,,,,,,,,,,,,,,,,,,,,,,,,,,,
,,546bd06ffdf99b2b8df97e88,2024-02-22_04h41.17.997,kallum_motion_pilot,2023.2.2,Win32,119.047619,546bd06ffdf99b2b8df97e88,65d6bb0e977760de756971f7,65d6c218ee13f9561621c064,0.0724,0.0724,1,36,198,34,1,twoone,,,,,,,,,,,,,,,,,,,,,,,,,,,,,,,,,,,,,,,,,,,,,,,,,,,,,,,,,,,,,,,,,,,,,,,,,,,,,,,,,,,,,,,,,,,,,,,,,,,,,,,,,,,,,,,,,,,,,,,,,,,,,,,,,,,,,,,,,
,,546bd06ffdf99b2b8df97e88,2024-02-22_04h41.17.997,kallum_motion_pilot,2023.2.2,Win32,119.047619,546bd06ffdf99b2b8df97e88,65d6bb0e977760de756971f7,65d6c218ee13f9561621c064,0.0725,0.0727,1,37,199,2,1,twoone,,,,,,,,,,,,,,,,,,,,,,,,,,,,,,,,,,,,,,,,,,,,,,,,,,,,,,,,,,,,,,,,,,,,,,,,,,,,,,,,,,,,,,,,,,,,,,,,,,,,,,,,,,,,,,,,,,,,,,,,,,,,,,,,,,,,,,,,,
,,546bd06ffdf99b2b8df97e88,2024-02-22_04h41.17.997,kallum_motion_pilot,2023.2.2,Win32,119.047619,546bd06ffdf99b2b8df97e88,65d6bb0e977760de756971f7,65d6c218ee13f9561621c064,0.0727,0.0727,1,38,200,37,1,threefour,,,,,,,,,,,,,,,,,,,,,,,,,,,,,,,,,,,,,,,,,,,,,,,,,,,,,,,,,,,,,,,,,,,,,,,,,,,,,,,,,,,,,,,,,,,,,,,,,,,,,,,,,,,,,,,,,,,,,,,,,,,,,,,,,,,,,,,,,
,,546bd06ffdf99b2b8df97e88,2024-02-22_04h41.17.997,kallum_motion_pilot,2023.2.2,Win32,119.047619,546bd06ffdf99b2b8df97e88,65d6bb0e977760de756971f7,65d6c218ee13f9561621c064,0.0728,0.073,1,39,201,20,1,threeone,,,,,,,,,,,,,,,,,,,,,,,,,,,,,,,,,,,,,,,,,,,,,,,,,,,,,,,,,,,,,,,,,,,,,,,,,,,,,,,,,,,,,,,,,,,,,,,,,,,,,,,,,,,,,,,,,,,,,,,,,,,,,,,,,,,,,,,,,
,,546bd06ffdf99b2b8df97e88,2024-02-22_04h41.17.997,kallum_motion_pilot,2023.2.2,Win32,119.047619,546bd06ffdf99b2b8df97e88,65d6bb0e977760de756971f7,65d6c218ee13f9561621c064,0.0731,0.0731,1,40,202,42,1,twoone,,,,,,,,,,,,,,,,,,,,,,,,,,,,,,,,,,,,,,,,,,,,,,,,,,,,,,,,,,,,,,,,,,,,,,,,,,,,,,,,,,,,,,,,,,,,,,,,,,,,,,,,,,,,,,,,,,,,,,,,,,,,,,,,,,,,,,,,,
,,546bd06ffdf99b2b8df97e88,2024-02-22_04h41.17.997,kallum_motion_pilot,2023.2.2,Win32,119.047619,546bd06ffdf99b2b8df97e88,65d6bb0e977760de756971f7,65d6c218ee13f9561621c064,0.0732,0.0743,1,41,203,72,1,onetwo,,,,,,,,,,,,,,,,,,,,,,,,,,,,,,,,,,,,,,,,,,,,,,,,,,,,,,,,,,,,,,,,,,,,,,,,,,,,,,,,,,,,,,,,,,,,,,,,,,,,,,,,,,,,,,,,,,,,,,,,,,,,,,,,,,,,,,,,,
,,546bd06ffdf99b2b8df97e88,2024-02-22_04h41.17.997,kallum_motion_pilot,2023.2.2,Win32,119.047619,546bd06ffdf99b2b8df97e88,65d6bb0e977760de756971f7,65d6c218ee13f9561621c064,0.0748,0.075,1,42,204,12,1,threeone,,,,,,,,,,,,,,,,,,,,,,,,,,,,,,,,,,,,,,,,,,,,,,,,,,,,,,,,,,,,,,,,,,,,,,,,,,,,,,,,,,,,,,,,,,,,,,,,,,,,,,,,,,,,,,,,,,,,,,,,,,,,,,,,,,,,,,,,,
,,546bd06ffdf99b2b8df97e88,2024-02-22_04h41.17.997,kallum_motion_pilot,2023.2.2,Win32,119.047619,546bd06ffdf99b2b8df97e88,65d6bb0e977760de756971f7,65d6c218ee13f9561621c064,0.0752,0.0752,1,43,205,19,1,twofour,,,,,,,,,,,,,,,,,,,,,,,,,,,,,,,,,,,,,,,,,,,,,,,,,,,,,,,,,,,,,,,,,,,,,,,,,,,,,,,,,,,,,,,,,,,,,,,,,,,,,,,,,,,,,,,,,,,,,,,,,,,,,,,,,,,,,,,,,
,,546bd06ffdf99b2b8df97e88,2024-02-22_04h41.17.997,kallum_motion_pilot,2023.2.2,Win32,119.047619,546bd06ffdf99b2b8df97e88,65d6bb0e977760de756971f7,65d6c218ee13f9561621c064,0.0753,0.0754,1,44,206,5,1,threefour,,,,,,,,,,,,,,,,,,,,,,,,,,,,,,,,,,,,,,,,,,,,,,,,,,,,,,,,,,,,,,,,,,,,,,,,,,,,,,,,,,,,,,,,,,,,,,,,,,,,,,,,,,,,,,,,,,,,,,,,,,,,,,,,,,,,,,,,,
,,546bd06ffdf99b2b8df97e88,2024-02-22_04h41.17.997,kallum_motion_pilot,2023.2.2,Win32,119.047619,546bd06ffdf99b2b8df97e88,65d6bb0e977760de756971f7,65d6c218ee13f9561621c064,0.0755,0.0755,1,45,207,61,1,threefour,,,,,,,,,,,,,,,,,,,,,,,,,,,,,,,,,,,,,,,,,,,,,,,,,,,,,,,,,,,,,,,,,,,,,,,,,,,,,,,,,,,,,,,,,,,,,,,,,,,,,,,,,,,,,,,,,,,,,,,,,,,,,,,,,,,,,,,,,
,,546bd06ffdf99b2b8df97e88,2024-02-22_04h41.17.997,kallum_motion_pilot,2023.2.2,Win32,119.047619,546bd06ffdf99b2b8df97e88,65d6bb0e977760de756971f7,65d6c218ee13f9561621c064,0.0757,0.0757,1,46,208,48,1,onetwo,,,,,,,,,,,,,,,,,,,,,,,,,,,,,,,,,,,,,,,,,,,,,,,,,,,,,,,,,,,,,,,,,,,,,,,,,,,,,,,,,,,,,,,,,,,,,,,,,,,,,,,,,,,,,,,,,,,,,,,,,,,,,,,,,,,,,,,,,
,,546bd06ffdf99b2b8df97e88,2024-02-22_04h41.17.997,kallum_motion_pilot,2023.2.2,Win32,119.047619,546bd06ffdf99b2b8df97e88,65d6bb0e977760de756971f7,65d6c218ee13f9561621c064,0.0758,0.0759,1,47,209,103,1,eightseven,,,,,,,,,,,,,,,,,,,,,,,,,,,,,,,,,,,,,,,,,,,,,,,,,,,,,,,,,,,,,,,,,,,,,,,,,,,,,,,,,,,,,,,,,,,,,,,,,,,,,,,,,,,,,,,,,,,,,,,,,,,,,,,,,,,,,,,,,
,,546bd06ffdf99b2b8df97e88,2024-02-22_04h41.17.997,kallum_motion_pilot,2023.2.2,Win32,119.047619,546bd06ffdf99b2b8df97e88,65d6bb0e977760de756971f7,65d6c218ee13f9561621c064,0.076,0.0761,1,48,210,102,1,eightsix,,,,,,,,,,,,,,,,,,,,,,,,,,,,,,,,,,,,,,,,,,,,,,,,,,,,,,,,,,,,,,,,,,,,,,,,,,,,,,,,,,,,,,,,,,,,,,,,,,,,,,,,,,,,,,,,,,,,,,,,,,,,,,,,,,,,,,,,,
,,546bd06ffdf99b2b8df97e88,2024-02-22_04h41.17.997,kallum_motion_pilot,2023.2.2,Win32,119.047619,546bd06ffdf99b2b8df97e88,65d6bb0e977760de756971f7,65d6c218ee13f9561621c064,0.0762,0.0763,1,49,211,54,1,fourtwo,,,,,,,,,,,,,,,,,,,,,,,,,,,,,,,,,,,,,,,,,,,,,,,,,,,,,,,,,,,,,,,,,,,,,,,,,,,,,,,,,,,,,,,,,,,,,,,,,,,,,,,,,,,,,,,,,,,,,,,,,,,,,,,,,,,,,,,,,
,,546bd06ffdf99b2b8df97e88,2024-02-22_04h41.17.997,kallum_motion_pilot,2023.2.2,Win32,119.047619,546bd06ffdf99b2b8df97e88,65d6bb0e977760de756971f7,65d6c218ee13f9561621c064,0.0765,0.0766,1,50,212,3,1,twofour,,,,,,,,,,,,,,,,,,,,,,,,,,,,,,,,,,,,,,,,,,,,,,,,,,,,,,,,,,,,,,,,,,,,,,,,,,,,,,,,,,,,,,,,,,,,,,,,,,,,,,,,,,,,,,,,,,,,,,,,,,,,,,,,,,,,,,,,,
,,546bd06ffdf99b2b8df97e88,2024-02-22_04h41.17.997,kallum_motion_pilot,2023.2.2,Win32,119.047619,546bd06ffdf99b2b8df97e88,65d6bb0e977760de756971f7,65d6c218ee13f9561621c064,0.0767,0.0768,1,51,213,100,1,sevenfive,,,,,,,,,,,,,,,,,,,,,,,,,,,,,,,,,,,,,,,,,,,,,,,,,,,,,,,,,,,,,,,,,,,,,,,,,,,,,,,,,,,,,,,,,,,,,,,,,,,,,,,,,,,,,,,,,,,,,,,,,,,,,,,,,,,,,,,,,
,,546bd06ffdf99b2b8df97e88,2024-02-22_04h41.17.997,kallum_motion_pilot,2023.2.2,Win32,119.047619,546bd06ffdf99b2b8df97e88,65d6bb0e977760de756971f7,65d6c218ee13f9561621c064,0.0769,0.077,1,52,214,46,1,fourtwo,,,,,,,,,,,,,,,,,,,,,,,,,,,,,,,,,,,,,,,,,,,,,,,,,,,,,,,,,,,,,,,,,,,,,,,,,,,,,,,,,,,,,,,,,,,,,,,,,,,,,,,,,,,,,,,,,,,,,,,,,,,,,,,,,,,,,,,,,
,,546bd06ffdf99b2b8df97e88,2024-02-22_04h41.17.997,kallum_motion_pilot,2023.2.2,Win32,119.047619,546bd06ffdf99b2b8df97e88,65d6bb0e977760de756971f7,65d6c218ee13f9561621c064,0.0771,0.0772,1,53,215,120,1,fivesix,,,,,,,,,,,,,,,,,,,,,,,,,,,,,,,,,,,,,,,,,,,,,,,,,,,,,,,,,,,,,,,,,,,,,,,,,,,,,,,,,,,,,,,,,,,,,,,,,,,,,,,,,,,,,,,,,,,,,,,,,,,,,,,,,,,,,,,,,
,,546bd06ffdf99b2b8df97e88,2024-02-22_04h41.17.997,kallum_motion_pilot,2023.2.2,Win32,119.047619,546bd06ffdf99b2b8df97e88,65d6bb0e977760de756971f7,65d6c218ee13f9561621c064,0.0773,0.0773,1,54,216,143,1,eightseven,,,,,,,,,,,,,,,,,,,,,,,,,,,,,,,,,,,,,,,,,,,,,,,,,,,,,,,,,,,,,,,,,,,,,,,,,,,,,,,,,,,,,,,,,,,,,,,,,,,,,,,,,,,,,,,,,,,,,,,,,,,,,,,,,,,,,,,,,
,,546bd06ffdf99b2b8df97e88,2024-02-22_04h41.17.997,kallum_motion_pilot,2023.2.2,Win32,119.047619,546bd06ffdf99b2b8df97e88,65d6bb0e977760de756971f7,65d6c218ee13f9561621c064,0.0775,0.0776,1,55,217,6,1,fourtwo,,,,,,,,,,,,,,,,,,,,,,,,,,,,,,,,,,,,,,,,,,,,,,,,,,,,,,,,,,,,,,,,,,,,,,,,,,,,,,,,,,,,,,,,,,,,,,,,,,,,,,,,,,,,,,,,,,,,,,,,,,,,,,,,,,,,,,,,,
,,546bd06ffdf99b2b8df97e88,2024-02-22_04h41.17.997,kallum_motion_pilot,2023.2.2,Win32,119.047619,546bd06ffdf99b2b8df97e88,65d6bb0e977760de756971f7,65d6c218ee13f9561621c064,0.0777,0.0777,1,56,218,33,1,onethree,,,,,,,,,,,,,,,,,,,,,,,,,,,,,,,,,,,,,,,,,,,,,,,,,,,,,,,,,,,,,,,,,,,,,,,,,,,,,,,,,,,,,,,,,,,,,,,,,,,,,,,,,,,,,,,,,,,,,,,,,,,,,,,,,,,,,,,,,
,,546bd06ffdf99b2b8df97e88,2024-02-22_04h41.17.997,kallum_motion_pilot,2023.2.2,Win32,119.047619,546bd06ffdf99b2b8df97e88,65d6bb0e977760de756971f7,65d6c218ee13f9561621c064,0.0778,0.0778,1,57,219,122,1,sixfive,,,,,,,,,,,,,,,,,,,,,,,,,,,,,,,,,,,,,,,,,,,,,,,,,,,,,,,,,,,,,,,,,,,,,,,,,,,,,,,,,,,,,,,,,,,,,,,,,,,,,,,,,,,,,,,,,,,,,,,,,,,,,,,,,,,,,,,,,
,,546bd06ffdf99b2b8df97e88,2024-02-22_04h41.17.997,kallum_motion_pilot,2023.2.2,Win32,119.047619,546bd06ffdf99b2b8df97e88,65d6bb0e977760de756971f7,65d6c218ee13f9561621c064,0.078,0.0781,1,58,220,43,1,twofour,,,,,,,,,,,,,,,,,,,,,,,,,,,,,,,,,,,,,,,,,,,,,,,,,,,,,,,,,,,,,,,,,,,,,,,,,,,,,,,,,,,,,,,,,,,,,,,,,,,,,,,,,,,,,,,,,,,,,,,,,,,,,,,,,,,,,,,,,
,,546bd06ffdf99b2b8df97e88,2024-02-22_04h41.17.997,kallum_motion_pilot,2023.2.2,Win32,119.047619,546bd06ffdf99b2b8df97e88,65d6bb0e977760de756971f7,65d6c218ee13f9561621c064,0.0781,0.0782,1,59,221,81,1,fiveseven,,,,,,,,,,,,,,,,,,,,,,,,,,,,,,,,,,,,,,,,,,,,,,,,,,,,,,,,,,,,,,,,,,,,,,,,,,,,,,,,,,,,,,,,,,,,,,,,,,,,,,,,,,,,,,,,,,,,,,,,,,,,,,,,,,,,,,,,,
,,546bd06ffdf99b2b8df97e88,2024-02-22_04h41.17.997,kallum_motion_pilot,2023.2.2,Win32,119.047619,546bd06ffdf99b2b8df97e88,65d6bb0e977760de756971f7,65d6c218ee13f9561621c064,0.0784,0.0784,1,60,222,67,1,twofour,,,,,,,,,,,,,,,,,,,,,,,,,,,,,,,,,,,,,,,,,,,,,,,,,,,,,,,,,,,,,,,,,,,,,,,,,,,,,,,,,,,,,,,,,,,,,,,,,,,,,,,,,,,,,,,,,,,,,,,,,,,,,,,,,,,,,,,,,
,,546bd06ffdf99b2b8df97e88,2024-02-22_04h41.17.997,kallum_motion_pilot,2023.2.2,Win32,119.047619,546bd06ffdf99b2b8df97e88,65d6bb0e977760de756971f7,65d6c218ee13f9561621c064,0.0785,0.0786,1,61,223,145,1,fiveseven,,,,,,,,,,,,,,,,,,,,,,,,,,,,,,,,,,,,,,,,,,,,,,,,,,,,,,,,,,,,,,,,,,,,,,,,,,,,,,,,,,,,,,,,,,,,,,,,,,,,,,,,,,,,,,,,,,,,,,,,,,,,,,,,,,,,,,,,,
,,546bd06ffdf99b2b8df97e88,2024-02-22_04h41.17.997,kallum_motion_pilot,2023.2.2,Win32,119.047619,546bd06ffdf99b2b8df97e88,65d6bb0e977760de756971f7,65d6c218ee13f9561621c064,0.0787,0.0787,1,62,224,38,1,fourtwo,,,,,,,,,,,,,,,,,,,,,,,,,,,,,,,,,,,,,,,,,,,,,,,,,,,,,,,,,,,,,,,,,,,,,,,,,,,,,,,,,,,,,,,,,,,,,,,,,,,,,,,,,,,,,,,,,,,,,,,,,,,,,,,,,,,,,,,,,
,,546bd06ffdf99b2b8df97e88,2024-02-22_04h41.17.997,kallum_motion_pilot,2023.2.2,Win32,119.047619,546bd06ffdf99b2b8df97e88,65d6bb0e977760de756971f7,65d6c218ee13f9561621c064,0.0788,0.079,1,63,225,1,1,onethree,,,,,,,,,,,,,,,,,,,,,,,,,,,,,,,,,,,,,,,,,,,,,,,,,,,,,,,,,,,,,,,,,,,,,,,,,,,,,,,,,,,,,,,,,,,,,,,,,,,,,,,,,,,,,,,,,,,,,,,,,,,,,,,,,,,,,,,,,
,,546bd06ffdf99b2b8df97e88,2024-02-22_04h41.17.997,kallum_motion_pilot,2023.2.2,Win32,119.047619,546bd06ffdf99b2b8df97e88,65d6bb0e977760de756971f7,65d6c218ee13f9561621c064,0.0791,0.0791,1,64,226,132,1,sevenfive,,,,,,,,,,,,,,,,,,,,,,,,,,,,,,,,,,,,,,,,,,,,,,,,,,,,,,,,,,,,,,,,,,,,,,,,,,,,,,,,,,,,,,,,,,,,,,,,,,,,,,,,,,,,,,,,,,,,,,,,,,,,,,,,,,,,,,,,,
,,546bd06ffdf99b2b8df97e88,2024-02-22_04h41.17.997,kallum_motion_pilot,2023.2.2,Win32,119.047619,546bd06ffdf99b2b8df97e88,65d6bb0e977760de756971f7,65d6c218ee13f9561621c064,0.0792,0.0793,1,65,227,84,1,sevenfive,,,,,,,,,,,,,,,,,,,,,,,,,,,,,,,,,,,,,,,,,,,,,,,,,,,,,,,,,,,,,,,,,,,,,,,,,,,,,,,,,,,,,,,,,,,,,,,,,,,,,,,,,,,,,,,,,,,,,,,,,,,,,,,,,,,,,,,,,
,,546bd06ffdf99b2b8df97e88,2024-02-22_04h41.17.997,kallum_motion_pilot,2023.2.2,Win32,119.047619,546bd06ffdf99b2b8df97e88,65d6bb0e977760de756971f7,65d6c218ee13f9561621c064,0.0794,0.0795,1,66,228,125,1,seveneight,,,,,,,,,,,,,,,,,,,,,,,,,,,,,,,,,,,,,,,,,,,,,,,,,,,,,,,,,,,,,,,,,,,,,,,,,,,,,,,,,,,,,,,,,,,,,,,,,,,,,,,,,,,,,,,,,,,,,,,,,,,,,,,,,,,,,,,,,
,,546bd06ffdf99b2b8df97e88,2024-02-22_04h41.17.997,kallum_motion_pilot,2023.2.2,Win32,119.047619,546bd06ffdf99b2b8df97e88,65d6bb0e977760de756971f7,65d6c218ee13f9561621c064,0.0796,0.0796,1,67,229,93,1,seveneight,,,,,,,,,,,,,,,,,,,,,,,,,,,,,,,,,,,,,,,,,,,,,,,,,,,,,,,,,,,,,,,,,,,,,,,,,,,,,,,,,,,,,,,,,,,,,,,,,,,,,,,,,,,,,,,,,,,,,,,,,,,,,,,,,,,,,,,,,
,,546bd06ffdf99b2b8df97e88,2024-02-22_04h41.17.997,kallum_motion_pilot,2023.2.2,Win32,119.047619,546bd06ffdf99b2b8df97e88,65d6bb0e977760de756971f7,65d6c218ee13f9561621c064,0.0797,0.0799,1,68,230,108,1,sevenfive,,,,,,,,,,,,,,,,,,,,,,,,,,,,,,,,,,,,,,,,,,,,,,,,,,,,,,,,,,,,,,,,,,,,,,,,,,,,,,,,,,,,,,,,,,,,,,,,,,,,,,,,,,,,,,,,,,,,,,,,,,,,,,,,,,,,,,,,,
,,546bd06ffdf99b2b8df97e88,2024-02-22_04h41.17.997,kallum_motion_pilot,2023.2.2,Win32,119.047619,546bd06ffdf99b2b8df97e88,65d6bb0e977760de756971f7,65d6c218ee13f9561621c064,0.0799,0.08,1,69,231,111,1,eightseven,,,,,,,,,,,,,,,,,,,,,,,,,,,,,,,,,,,,,,,,,,,,,,,,,,,,,,,,,,,,,,,,,,,,,,,,,,,,,,,,,,,,,,,,,,,,,,,,,,,,,,,,,,,,,,,,,,,,,,,,,,,,,,,,,,,,,,,,,
,,546bd06ffdf99b2b8df97e88,2024-02-22_04h41.17.997,kallum_motion_pilot,2023.2.2,Win32,119.047619,546bd06ffdf99b2b8df97e88,65d6bb0e977760de756971f7,65d6c218ee13f9561621c064,0.0801,0.0802,1,70,232,9,1,onethree,,,,,,,,,,,,,,,,,,,,,,,,,,,,,,,,,,,,,,,,,,,,,,,,,,,,,,,,,,,,,,,,,,,,,,,,,,,,,,,,,,,,,,,,,,,,,,,,,,,,,,,,,,,,,,,,,,,,,,,,,,,,,,,,,,,,,,,,,
,,546bd06ffdf99b2b8df97e88,2024-02-22_04h41.17.997,kallum_motion_pilot,2023.2.2,Win32,119.047619,546bd06ffdf99b2b8df97e88,65d6bb0e977760de756971f7,65d6c218ee13f9561621c064,0.0803,0.0804,1,71,233,82,1,sixfive,,,,,,,,,,,,,,,,,,,,,,,,,,,,,,,,,,,,,,,,,,,,,,,,,,,,,,,,,,,,,,,,,,,,,,,,,,,,,,,,,,,,,,,,,,,,,,,,,,,,,,,,,,,,,,,,,,,,,,,,,,,,,,,,,,,,,,,,,
,,546bd06ffdf99b2b8df97e88,2024-02-22_04h41.17.997,kallum_motion_pilot,2023.2.2,Win32,119.047619,546bd06ffdf99b2b8df97e88,65d6bb0e977760de756971f7,65d6c218ee13f9561621c064,0.0804,0.0806,1,72,234,78,1,fourtwo,,,,,,,,,,,,,,,,,,,,,,,,,,,,,,,,,,,,,,,,,,,,,,,,,,,,,,,,,,,,,,,,,,,,,,,,,,,,,,,,,,,,,,,,,,,,,,,,,,,,,,,,,,,,,,,,,,,,,,,,,,,,,,,,,,,,,,,,,
,,546bd06ffdf99b2b8df97e88,2024-02-22_04h41.17.997,kallum_motion_pilot,2023.2.2,Win32,119.047619,546bd06ffdf99b2b8df97e88,65d6bb0e977760de756971f7,65d6c218ee13f9561621c064,0.0807,0.0807,1,73,235,74,1,twoone,,,,,,,,,,,,,,,,,,,,,,,,,,,,,,,,,,,,,,,,,,,,,,,,,,,,,,,,,,,,,,,,,,,,,,,,,,,,,,,,,,,,,,,,,,,,,,,,,,,,,,,,,,,,,,,,,,,,,,,,,,,,,,,,,,,,,,,,,
,,546bd06ffdf99b2b8df97e88,2024-02-22_04h41.17.997,kallum_motion_pilot,2023.2.2,Win32,119.047619,546bd06ffdf99b2b8df97e88,65d6bb0e977760de756971f7,65d6c218ee13f9561621c064,0.0809,0.0809,1,74,236,60,1,threeone,,,,,,,,,,,,,,,,,,,,,,,,,,,,,,,,,,,,,,,,,,,,,,,,,,,,,,,,,,,,,,,,,,,,,,,,,,,,,,,,,,,,,,,,,,,,,,,,,,,,,,,,,,,,,,,,,,,,,,,,,,,,,,,,,,,,,,,,,
,,546bd06ffdf99b2b8df97e88,2024-02-22_04h41.17.997,kallum_motion_pilot,2023.2.2,Win32,119.047619,546bd06ffdf99b2b8df97e88,65d6bb0e977760de756971f7,65d6c218ee13f9561621c064,0.081,0.0811,1,75,237,4,1,threeone,,,,,,,,,,,,,,,,,,,,,,,,,,,,,,,,,,,,,,,,,,,,,,,,,,,,,,,,,,,,,,,,,,,,,,,,,,,,,,,,,,,,,,,,,,,,,,,,,,,,,,,,,,,,,,,,,,,,,,,,,,,,,,,,,,,,,,,,,
,,546bd06ffdf99b2b8df97e88,2024-02-22_04h41.17.997,kallum_motion_pilot,2023.2.2,Win32,119.047619,546bd06ffdf99b2b8df97e88,65d6bb0e977760de756971f7,65d6c218ee13f9561621c064,0.0811,0.0813,1,76,238,141,1,seveneight,,,,,,,,,,,,,,,,,,,,,,,,,,,,,,,,,,,,,,,,,,,,,,,,,,,,,,,,,,,,,,,,,,,,,,,,,,,,,,,,,,,,,,,,,,,,,,,,,,,,,,,,,,,,,,,,,,,,,,,,,,,,,,,,,,,,,,,,,
,,546bd06ffdf99b2b8df97e88,2024-02-22_04h41.17.997,kallum_motion_pilot,2023.2.2,Win32,119.047619,546bd06ffdf99b2b8df97e88,65d6bb0e977760de756971f7,65d6c218ee13f9561621c064,0.0813,0.0814,1,77,239,159,1,eightseven,,,,,,,,,,,,,,,,,,,,,,,,,,,,,,,,,,,,,,,,,,,,,,,,,,,,,,,,,,,,,,,,,,,,,,,,,,,,,,,,,,,,,,,,,,,,,,,,,,,,,,,,,,,,,,,,,,,,,,,,,,,,,,,,,,,,,,,,,
,,546bd06ffdf99b2b8df97e88,2024-02-22_04h41.17.997,kallum_motion_pilot,2023.2.2,Win32,119.047619,546bd06ffdf99b2b8df97e88,65d6bb0e977760de756971f7,65d6c218ee13f9561621c064,0.0817,0.0829,1,78,240,17,1,onethree,,,,,,,,,,,,,,,,,,,,,,,,,,,,,,,,,,,,,,,,,,,,,,,,,,,,,,,,,,,,,,,,,,,,,,,,,,,,,,,,,,,,,,,,,,,,,,,,,,,,,,,,,,,,,,,,,,,,,,,,,,,,,,,,,,,,,,,,,
,,546bd06ffdf99b2b8df97e88,2024-02-22_04h41.17.997,kallum_motion_pilot,2023.2.2,Win32,119.047619,546bd06ffdf99b2b8df97e88,65d6bb0e977760de756971f7,65d6c218ee13f9561621c064,0.0833,0.0834,1,79,241,160,1,fivesix,,,,,,,,,,,,,,,,,,,,,,,,,,,,,,,,,,,,,,,,,,,,,,,,,,,,,,,,,,,,,,,,,,,,,,,,,,,,,,,,,,,,,,,,,,,,,,,,,,,,,,,,,,,,,,,,,,,,,,,,,,,,,,,,,,,,,,,,,
,,546bd06ffdf99b2b8df97e88,2024-02-22_04h41.17.997,kallum_motion_pilot,2023.2.2,Win32,119.047619,546bd06ffdf99b2b8df97e88,65d6bb0e977760de756971f7,65d6c218ee13f9561621c064,0.0835,0.0836,1,80,242,126,1,eightsix,,,,,,,,,,,,,,,,,,,,,,,,,,,,,,,,,,,,,,,,,,,,,,,,,,,,,,,,,,,,,,,,,,,,,,,,,,,,,,,,,,,,,,,,,,,,,,,,,,,,,,,,,,,,,,,,,,,,,,,,,,,,,,,,,,,,,,,,,
,,546bd06ffdf99b2b8df97e88,2024-02-22_04h41.17.997,kallum_motion_pilot,2023.2.2,Win32,119.047619,546bd06ffdf99b2b8df97e88,65d6bb0e977760de756971f7,65d6c218ee13f9561621c064,0.0837,0.0839,1,81,243,135,1,eightseven,,,,,,,,,,,,,,,,,,,,,,,,,,,,,,,,,,,,,,,,,,,,,,,,,,,,,,,,,,,,,,,,,,,,,,,,,,,,,,,,,,,,,,,,,,,,,,,,,,,,,,,,,,,,,,,,,,,,,,,,,,,,,,,,,,,,,,,,,
,,546bd06ffdf99b2b8df97e88,2024-02-22_04h41.17.997,kallum_motion_pilot,2023.2.2,Win32,119.047619,546bd06ffdf99b2b8df97e88,65d6bb0e977760de756971f7,65d6c218ee13f9561621c064,0.0839,0.084,1,82,244,86,1,eightsix,,,,,,,,,,,,,,,,,,,,,,,,,,,,,,,,,,,,,,,,,,,,,,,,,,,,,,,,,,,,,,,,,,,,,,,,,,,,,,,,,,,,,,,,,,,,,,,,,,,,,,,,,,,,,,,,,,,,,,,,,,,,,,,,,,,,,,,,,
,,546bd06ffdf99b2b8df97e88,2024-02-22_04h41.17.997,kallum_motion_pilot,2023.2.2,Win32,119.047619,546bd06ffdf99b2b8df97e88,65d6bb0e977760de756971f7,65d6c218ee13f9561621c064,0.0841,0.0842,1,83,245,76,1,threeone,,,,,,,,,,,,,,,,,,,,,,,,,,,,,,,,,,,,,,,,,,,,,,,,,,,,,,,,,,,,,,,,,,,,,,,,,,,,,,,,,,,,,,,,,,,,,,,,,,,,,,,,,,,,,,,,,,,,,,,,,,,,,,,,,,,,,,,,,
,,546bd06ffdf99b2b8df97e88,2024-02-22_04h41.17.997,kallum_motion_pilot,2023.2.2,Win32,119.047619,546bd06ffdf99b2b8df97e88,65d6bb0e977760de756971f7,65d6c218ee13f9561621c064,0.0843,0.0844,1,84,246,7,1,fourthree,,,,,,,,,,,,,,,,,,,,,,,,,,,,,,,,,,,,,,,,,,,,,,,,,,,,,,,,,,,,,,,,,,,,,,,,,,,,,,,,,,,,,,,,,,,,,,,,,,,,,,,,,,,,,,,,,,,,,,,,,,,,,,,,,,,,,,,,,
,,546bd06ffdf99b2b8df97e88,2024-02-22_04h41.17.997,kallum_motion_pilot,2023.2.2,Win32,119.047619,546bd06ffdf99b2b8df97e88,65d6bb0e977760de756971f7,65d6c218ee13f9561621c064,0.0845,0.0846,1,85,247,98,1,sixfive,,,,,,,,,,,,,,,,,,,,,,,,,,,,,,,,,,,,,,,,,,,,,,,,,,,,,,,,,,,,,,,,,,,,,,,,,,,,,,,,,,,,,,,,,,,,,,,,,,,,,,,,,,,,,,,,,,,,,,,,,,,,,,,,,,,,,,,,,
,,546bd06ffdf99b2b8df97e88,2024-02-22_04h41.17.997,kallum_motion_pilot,2023.2.2,Win32,119.047619,546bd06ffdf99b2b8df97e88,65d6bb0e977760de756971f7,65d6c218ee13f9561621c064,0.0846,0.0848,1,86,248,50,1,twoone,,,,,,,,,,,,,,,,,,,,,,,,,,,,,,,,,,,,,,,,,,,,,,,,,,,,,,,,,,,,,,,,,,,,,,,,,,,,,,,,,,,,,,,,,,,,,,,,,,,,,,,,,,,,,,,,,,,,,,,,,,,,,,,,,,,,,,,,,
,,546bd06ffdf99b2b8df97e88,2024-02-22_04h41.17.997,kallum_motion_pilot,2023.2.2,Win32,119.047619,546bd06ffdf99b2b8df97e88,65d6bb0e977760de756971f7,65d6c218ee13f9561621c064,0.0849,0.085,1,87,249,137,1,fiveseven,,,,,,,,,,,,,,,,,,,,,,,,,,,,,,,,,,,,,,,,,,,,,,,,,,,,,,,,,,,,,,,,,,,,,,,,,,,,,,,,,,,,,,,,,,,,,,,,,,,,,,,,,,,,,,,,,,,,,,,,,,,,,,,,,,,,,,,,,
,,546bd06ffdf99b2b8df97e88,2024-02-22_04h41.17.997,kallum_motion_pilot,2023.2.2,Win32,119.047619,546bd06ffdf99b2b8df97e88,65d6bb0e977760de756971f7,65d6c218ee13f9561621c064,0.085,0.0851,1,88,250,62,1,fourtwo,,,,,,,,,,,,,,,,,,,,,,,,,,,,,,,,,,,,,,,,,,,,,,,,,,,,,,,,,,,,,,,,,,,,,,,,,,,,,,,,,,,,,,,,,,,,,,,,,,,,,,,,,,,,,,,,,,,,,,,,,,,,,,,,,,,,,,,,,
,,546bd06ffdf99b2b8df97e88,2024-02-22_04h41.17.997,kallum_motion_pilot,2023.2.2,Win32,119.047619,546bd06ffdf99b2b8df97e88,65d6bb0e977760de756971f7,65d6c218ee13f9561621c064,0.0852,0.0853,1,89,251,71,1,fourthree,,,,,,,,,,,,,,,,,,,,,,,,,,,,,,,,,,,,,,,,,,,,,,,,,,,,,,,,,,,,,,,,,,,,,,,,,,,,,,,,,,,,,,,,,,,,,,,,,,,,,,,,,,,,,,,,,,,,,,,,,,,,,,,,,,,,,,,,,
,,546bd06ffdf99b2b8df97e88,2024-02-22_04h41.17.997,kallum_motion_pilot,2023.2.2,Win32,119.047619,546bd06ffdf99b2b8df97e88,65d6bb0e977760de756971f7,65d6c218ee13f9561621c064,0.0853,0.0855,1,90,252,90,1,sixfive,,,,,,,,,,,,,,,,,,,,,,,,,,,,,,,,,,,,,,,,,,,,,,,,,,,,,,,,,,,,,,,,,,,,,,,,,,,,,,,,,,,,,,,,,,,,,,,,,,,,,,,,,,,,,,,,,,,,,,,,,,,,,,,,,,,,,,,,,
,,546bd06ffdf99b2b8df97e88,2024-02-22_04h41.17.997,kallum_motion_pilot,2023.2.2,Win32,119.047619,546bd06ffdf99b2b8df97e88,65d6bb0e977760de756971f7,65d6c218ee13f9561621c064,0.0855,0.0856,1,91,253,68,1,threeone,,,,,,,,,,,,,,,,,,,,,,,,,,,,,,,,,,,,,,,,,,,,,,,,,,,,,,,,,,,,,,,,,,,,,,,,,,,,,,,,,,,,,,,,,,,,,,,,,,,,,,,,,,,,,,,,,,,,,,,,,,,,,,,,,,,,,,,,,
,,546bd06ffdf99b2b8df97e88,2024-02-22_04h41.17.997,kallum_motion_pilot,2023.2.2,Win32,119.047619,546bd06ffdf99b2b8df97e88,65d6bb0e977760de756971f7,65d6c218ee13f9561621c064,0.0857,0.0858,1,92,254,121,1,fiveseven,,,,,,,,,,,,,,,,,,,,,,,,,,,,,,,,,,,,,,,,,,,,,,,,,,,,,,,,,,,,,,,,,,,,,,,,,,,,,,,,,,,,,,,,,,,,,,,,,,,,,,,,,,,,,,,,,,,,,,,,,,,,,,,,,,,,,,,,,
,,546bd06ffdf99b2b8df97e88,2024-02-22_04h41.17.997,kallum_motion_pilot,2023.2.2,Win32,119.047619,546bd06ffdf99b2b8df97e88,65d6bb0e977760de756971f7,65d6c218ee13f9561621c064,0.0859,0.0861,1,93,255,30,1,fourtwo,,,,,,,,,,,,,,,,,,,,,,,,,,,,,,,,,,,,,,,,,,,,,,,,,,,,,,,,,,,,,,,,,,,,,,,,,,,,,,,,,,,,,,,,,,,,,,,,,,,,,,,,,,,,,,,,,,,,,,,,,,,,,,,,,,,,,,,,,
,,546bd06ffdf99b2b8df97e88,2024-02-22_04h41.17.997,kallum_motion_pilot,2023.2.2,Win32,119.047619,546bd06ffdf99b2b8df97e88,65d6bb0e977760de756971f7,65d6c218ee13f9561621c064,0.0861,0.0862,1,94,256,79,1,eightseven,,,,,,,,,,,,,,,,,,,,,,,,,,,,,,,,,,,,,,,,,,,,,,,,,,,,,,,,,,,,,,,,,,,,,,,,,,,,,,,,,,,,,,,,,,,,,,,,,,,,,,,,,,,,,,,,,,,,,,,,,,,,,,,,,,,,,,,,,
,,546bd06ffdf99b2b8df97e88,2024-02-22_04h41.17.997,kallum_motion_pilot,2023.2.2,Win32,119.047619,546bd06ffdf99b2b8df97e88,65d6bb0e977760de756971f7,65d6c218ee13f9561621c064,0.0864,0.0865,1,95,257,77,1,threefour,,,,,,,,,,,,,,,,,,,,,,,,,,,,,,,,,,,,,,,,,,,,,,,,,,,,,,,,,,,,,,,,,,,,,,,,,,,,,,,,,,,,,,,,,,,,,,,,,,,,,,,,,,,,,,,,,,,,,,,,,,,,,,,,,,,,,,,,,
,,546bd06ffdf99b2b8df97e88,2024-02-22_04h41.17.997,kallum_motion_pilot,2023.2.2,Win32,119.047619,546bd06ffdf99b2b8df97e88,65d6bb0e977760de756971f7,65d6c218ee13f9561621c064,0.0866,0.0867,1,96,258,56,1,onetwo,,,,,,,,,,,,,,,,,,,,,,,,,,,,,,,,,,,,,,,,,,,,,,,,,,,,,,,,,,,,,,,,,,,,,,,,,,,,,,,,,,,,,,,,,,,,,,,,,,,,,,,,,,,,,,,,,,,,,,,,,,,,,,,,,,,,,,,,,
,,546bd06ffdf99b2b8df97e88,2024-02-22_04h41.17.997,kallum_motion_pilot,2023.2.2,Win32,119.047619,546bd06ffdf99b2b8df97e88,65d6bb0e977760de756971f7,65d6c218ee13f9561621c064,0.0868,0.0869,1,97,259,113,1,fiveseven,,,,,,,,,,,,,,,,,,,,,,,,,,,,,,,,,,,,,,,,,,,,,,,,,,,,,,,,,,,,,,,,,,,,,,,,,,,,,,,,,,,,,,,,,,,,,,,,,,,,,,,,,,,,,,,,,,,,,,,,,,,,,,,,,,,,,,,,,
,,546bd06ffdf99b2b8df97e88,2024-02-22_04h41.17.997,kallum_motion_pilot,2023.2.2,Win32,119.047619,546bd06ffdf99b2b8df97e88,65d6bb0e977760de756971f7,65d6c218ee13f9561621c064,0.087,0.0871,1,98,260,156,1,sevenfive,,,,,,,,,,,,,,,,,,,,,,,,,,,,,,,,,,,,,,,,,,,,,,,,,,,,,,,,,,,,,,,,,,,,,,,,,,,,,,,,,,,,,,,,,,,,,,,,,,,,,,,,,,,,,,,,,,,,,,,,,,,,,,,,,,,,,,,,,
,,546bd06ffdf99b2b8df97e88,2024-02-22_04h41.17.997,kallum_motion_pilot,2023.2.2,Win32,119.047619,546bd06ffdf99b2b8df97e88,65d6bb0e977760de756971f7,65d6c218ee13f9561621c064,0.0871,0.0872,1,99,261,59,1,twofour,,,,,,,,,,,,,,,,,,,,,,,,,,,,,,,,,,,,,,,,,,,,,,,,,,,,,,,,,,,,,,,,,,,,,,,,,,,,,,,,,,,,,,,,,,,,,,,,,,,,,,,,,,,,,,,,,,,,,,,,,,,,,,,,,,,,,,,,,
,,546bd06ffdf99b2b8df97e88,2024-02-22_04h41.17.997,kallum_motion_pilot,2023.2.2,Win32,119.047619,546bd06ffdf99b2b8df97e88,65d6bb0e977760de756971f7,65d6c218ee13f9561621c064,0.0874,0.0874,1,100,262,147,1,sixeight,,,,,,,,,,,,,,,,,,,,,,,,,,,,,,,,,,,,,,,,,,,,,,,,,,,,,,,,,,,,,,,,,,,,,,,,,,,,,,,,,,,,,,,,,,,,,,,,,,,,,,,,,,,,,,,,,,,,,,,,,,,,,,,,,,,,,,,,,
,,546bd06ffdf99b2b8df97e88,2024-02-22_04h41.17.997,kallum_motion_pilot,2023.2.2,Win32,119.047619,546bd06ffdf99b2b8df97e88,65d6bb0e977760de756971f7,65d6c218ee13f9561621c064,0.0876,0.0876,1,101,263,16,1,onetwo,,,,,,,,,,,,,,,,,,,,,,,,,,,,,,,,,,,,,,,,,,,,,,,,,,,,,,,,,,,,,,,,,,,,,,,,,,,,,,,,,,,,,,,,,,,,,,,,,,,,,,,,,,,,,,,,,,,,,,,,,,,,,,,,,,,,,,,,,
,,546bd06ffdf99b2b8df97e88,2024-02-22_04h41.17.997,kallum_motion_pilot,2023.2.2,Win32,119.047619,546bd06ffdf99b2b8df97e88,65d6bb0e977760de756971f7,65d6c218ee13f9561621c064,0.0878,0.0878,1,102,264,36,1,threeone,,,,,,,,,,,,,,,,,,,,,,,,,,,,,,,,,,,,,,,,,,,,,,,,,,,,,,,,,,,,,,,,,,,,,,,,,,,,,,,,,,,,,,,,,,,,,,,,,,,,,,,,,,,,,,,,,,,,,,,,,,,,,,,,,,,,,,,,,
,,546bd06ffdf99b2b8df97e88,2024-02-22_04h41.17.997,kallum_motion_pilot,2023.2.2,Win32,119.047619,546bd06ffdf99b2b8df97e88,65d6bb0e977760de756971f7,65d6c218ee13f9561621c064,0.0881,0.0881,1,103,265,87,1,eightseven,,,,,,,,,,,,,,,,,,,,,,,,,,,,,,,,,,,,,,,,,,,,,,,,,,,,,,,,,,,,,,,,,,,,,,,,,,,,,,,,,,,,,,,,,,,,,,,,,,,,,,,,,,,,,,,,,,,,,,,,,,,,,,,,,,,,,,,,,
,,546bd06ffdf99b2b8df97e88,2024-02-22_04h41.17.997,kallum_motion_pilot,2023.2.2,Win32,119.047619,546bd06ffdf99b2b8df97e88,65d6bb0e977760de756971f7,65d6c218ee13f9561621c064,0.0882,0.0883,1,104,266,144,1,fivesix,,,,,,,,,,,,,,,,,,,,,,,,,,,,,,,,,,,,,,,,,,,,,,,,,,,,,,,,,,,,,,,,,,,,,,,,,,,,,,,,,,,,,,,,,,,,,,,,,,,,,,,,,,,,,,,,,,,,,,,,,,,,,,,,,,,,,,,,,
,,546bd06ffdf99b2b8df97e88,2024-02-22_04h41.17.997,kallum_motion_pilot,2023.2.2,Win32,119.047619,546bd06ffdf99b2b8df97e88,65d6bb0e977760de756971f7,65d6c218ee13f9561621c064,0.0885,0.0886,1,105,267,53,1,threefour,,,,,,,,,,,,,,,,,,,,,,,,,,,,,,,,,,,,,,,,,,,,,,,,,,,,,,,,,,,,,,,,,,,,,,,,,,,,,,,,,,,,,,,,,,,,,,,,,,,,,,,,,,,,,,,,,,,,,,,,,,,,,,,,,,,,,,,,,
,,546bd06ffdf99b2b8df97e88,2024-02-22_04h41.17.997,kallum_motion_pilot,2023.2.2,Win32,119.047619,546bd06ffdf99b2b8df97e88,65d6bb0e977760de756971f7,65d6c218ee13f9561621c064,0.0887,0.0887,1,106,268,44,1,threeone,,,,,,,,,,,,,,,,,,,,,,,,,,,,,,,,,,,,,,,,,,,,,,,,,,,,,,,,,,,,,,,,,,,,,,,,,,,,,,,,,,,,,,,,,,,,,,,,,,,,,,,,,,,,,,,,,,,,,,,,,,,,,,,,,,,,,,,,,
,,546bd06ffdf99b2b8df97e88,2024-02-22_04h41.17.997,kallum_motion_pilot,2023.2.2,Win32,119.047619,546bd06ffdf99b2b8df97e88,65d6bb0e977760de756971f7,65d6c218ee13f9561621c064,0.0888,0.0889,1,107,269,153,1,fiveseven,,,,,,,,,,,,,,,,,,,,,,,,,,,,,,,,,,,,,,,,,,,,,,,,,,,,,,,,,,,,,,,,,,,,,,,,,,,,,,,,,,,,,,,,,,,,,,,,,,,,,,,,,,,,,,,,,,,,,,,,,,,,,,,,,,,,,,,,,
,,546bd06ffdf99b2b8df97e88,2024-02-22_04h41.17.997,kallum_motion_pilot,2023.2.2,Win32,119.047619,546bd06ffdf99b2b8df97e88,65d6bb0e977760de756971f7,65d6c218ee13f9561621c064,0.089,0.0891,1,108,270,92,1,sevenfive,,,,,,,,,,,,,,,,,,,,,,,,,,,,,,,,,,,,,,,,,,,,,,,,,,,,,,,,,,,,,,,,,,,,,,,,,,,,,,,,,,,,,,,,,,,,,,,,,,,,,,,,,,,,,,,,,,,,,,,,,,,,,,,,,,,,,,,,,
,,546bd06ffdf99b2b8df97e88,2024-02-22_04h41.17.997,kallum_motion_pilot,2023.2.2,Win32,119.047619,546bd06ffdf99b2b8df97e88,65d6bb0e977760de756971f7,65d6c218ee13f9561621c064,0.0891,0.0893,1,109,271,118,1,eightsix,,,,,,,,,,,,,,,,,,,,,,,,,,,,,,,,,,,,,,,,,,,,,,,,,,,,,,,,,,,,,,,,,,,,,,,,,,,,,,,,,,,,,,,,,,,,,,,,,,,,,,,,,,,,,,,,,,,,,,,,,,,,,,,,,,,,,,,,,
,,546bd06ffdf99b2b8df97e88,2024-02-22_04h41.17.997,kallum_motion_pilot,2023.2.2,Win32,119.047619,546bd06ffdf99b2b8df97e88,65d6bb0e977760de756971f7,65d6c218ee13f9561621c064,0.0894,0.0894,1,110,272,35,1,twofour,,,,,,,,,,,,,,,,,,,,,,,,,,,,,,,,,,,,,,,,,,,,,,,,,,,,,,,,,,,,,,,,,,,,,,,,,,,,,,,,,,,,,,,,,,,,,,,,,,,,,,,,,,,,,,,,,,,,,,,,,,,,,,,,,,,,,,,,,
,,546bd06ffdf99b2b8df97e88,2024-02-22_04h41.17.997,kallum_motion_pilot,2023.2.2,Win32,119.047619,546bd06ffdf99b2b8df97e88,65d6bb0e977760de756971f7,65d6c218ee13f9561621c064,0.0896,0.0896,1,111,273,41,1,onethree,,,,,,,,,,,,,,,,,,,,,,,,,,,,,,,,,,,,,,,,,,,,,,,,,,,,,,,,,,,,,,,,,,,,,,,,,,,,,,,,,,,,,,,,,,,,,,,,,,,,,,,,,,,,,,,,,,,,,,,,,,,,,,,,,,,,,,,,,
,,546bd06ffdf99b2b8df97e88,2024-02-22_04h41.17.997,kallum_motion_pilot,2023.2.2,Win32,119.047619,546bd06ffdf99b2b8df97e88,65d6bb0e977760de756971f7,65d6c218ee13f9561621c064,0.0898,0.0899,1,112,274,150,1,eightsix,,,,,,,,,,,,,,,,,,,,,,,,,,,,,,,,,,,,,,,,,,,,,,,,,,,,,,,,,,,,,,,,,,,,,,,,,,,,,,,,,,,,,,,,,,,,,,,,,,,,,,,,,,,,,,,,,,,,,,,,,,,,,,,,,,,,,,,,,
,,546bd06ffdf99b2b8df97e88,2024-02-22_04h41.17.997,kallum_motion_pilot,2023.2.2,Win32,119.047619,546bd06ffdf99b2b8df97e88,65d6bb0e977760de756971f7,65d6c218ee13f9561621c064,0.09,0.091,1,113,275,134,1,eightsix,,,,,,,,,,,,,,,,,,,,,,,,,,,,,,,,,,,,,,,,,,,,,,,,,,,,,,,,,,,,,,,,,,,,,,,,,,,,,,,,,,,,,,,,,,,,,,,,,,,,,,,,,,,,,,,,,,,,,,,,,,,,,,,,,,,,,,,,,
,,546bd06ffdf99b2b8df97e88,2024-02-22_04h41.17.997,kallum_motion_pilot,2023.2.2,Win32,119.047619,546bd06ffdf99b2b8df97e88,65d6bb0e977760de756971f7,65d6c218ee13f9561621c064,0.0913,0.0914,1,114,276,131,1,sixeight,,,,,,,,,,,,,,,,,,,,,,,,,,,,,,,,,,,,,,,,,,,,,,,,,,,,,,,,,,,,,,,,,,,,,,,,,,,,,,,,,,,,,,,,,,,,,,,,,,,,,,,,,,,,,,,,,,,,,,,,,,,,,,,,,,,,,,,,,
,,546bd06ffdf99b2b8df97e88,2024-02-22_04h41.17.997,kallum_motion_pilot,2023.2.2,Win32,119.047619,546bd06ffdf99b2b8df97e88,65d6bb0e977760de756971f7,65d6c218ee13f9561621c064,0.0916,0.0917,1,115,277,101,1,seveneight,,,,,,,,,,,,,,,,,,,,,,,,,,,,,,,,,,,,,,,,,,,,,,,,,,,,,,,,,,,,,,,,,,,,,,,,,,,,,,,,,,,,,,,,,,,,,,,,,,,,,,,,,,,,,,,,,,,,,,,,,,,,,,,,,,,,,,,,,
,,546bd06ffdf99b2b8df97e88,2024-02-22_04h41.17.997,kallum_motion_pilot,2023.2.2,Win32,119.047619,546bd06ffdf99b2b8df97e88,65d6bb0e977760de756971f7,65d6c218ee13f9561621c064,0.0919,0.092,1,116,278,129,1,fiveseven,,,,,,,,,,,,,,,,,,,,,,,,,,,,,,,,,,,,,,,,,,,,,,,,,,,,,,,,,,,,,,,,,,,,,,,,,,,,,,,,,,,,,,,,,,,,,,,,,,,,,,,,,,,,,,,,,,,,,,,,,,,,,,,,,,,,,,,,,
