startup.started,startup.stopped,Prolific ID*,date,expName,psychopyVersion,OS,frameRate,participant,study_id,session,stimpositions.started,stimpositions.stopped,hardcoded_stimulus_positions.thisRepN,hardcoded_stimulus_positions.thisTrialN,hardcoded_stimulus_positions.thisN,hardcoded_stimulus_positions.thisIndex,hardcoded_stimulus_positions.ran,StimulusPos,stimorientation.started,stimorientation.stopped,prac_stimorientation_import_loop.thisRepN,prac_stimorientation_import_loop.thisTrialN,prac_stimorientation_import_loop.thisN,prac_stimorientation_import_loop.thisIndex,prac_stimorientation_import_loop.ran,Stimorientation,welcome_instr.started,welcome_instr.stopped,key_resp.keys,key_resp.rt,key_resp.duration,response_steppedout_1.started,response_steppedout_1.stopped,key_resp_20.keys,key_resp_20.rt,key_resp_20.duration,response_steppedout_2.started,response_steppedout_2.stopped,key_resp_19.keys,key_resp_19.rt,key_resp_19.duration,stim_response_instr.started,stim_response_instr.stopped,key_resp_15.keys,key_resp_15.rt,key_resp_15.duration,direction_instr_2.started,direction_instr_2.stopped,key_resp_9.keys,key_resp_9.rt,key_resp_9.duration,instr_prac.started,instr_prac.stopped,key_resp_10.keys,key_resp_10.rt,key_resp_10.duration,Stim1_display_prac.started,Stim1_display_prac.stopped,Ecc,Circle1_ori,Circle2_ori,response_prac.started,similarity,response_time,response_prac.stopped,mouse_5.x,mouse_5.y,mouse_5.leftButton,mouse_5.midButton,mouse_5.rightButton,mouse_5.clicked_name,responseprac_feedback.started,responseprac_feedback.stopped,summary2_prac.started,summary2_prac.stopped,mouse_6.x,mouse_6.y,mouse_6.leftButton,mouse_6.midButton,mouse_6.rightButton,mouse_6.clicked_name,duringprac.thisRepN,duringprac.thisTrialN,duringprac.thisN,duringprac.thisIndex,duringprac.ran,begin.started,begin.stopped,key_resp_22.keys,key_resp_22.rt,key_resp_22.duration,Stim1_display.started,Stim1_display.stopped,circle1_ori,circle2_ori,circle1_SF,circle2_SF,response.started,response.stopped,mouse.x,mouse.y,mouse.leftButton,mouse.midButton,mouse.rightButton,mouse.clicked_name,trialnumber,double_pass.thisRepN,double_pass.thisTrialN,double_pass.thisN,double_pass.thisIndex,double_pass.ran,double_pass.order,main_trial.thisRepN,main_trial.thisTrialN,main_trial.thisN,main_trial.thisIndex,main_trial.ran,main_trial.order,Trial_Counter,Catch,Frequencies,response_2.started,response_2.stopped,mouse_2.x,mouse_2.y,mouse_2.leftButton,mouse_2.midButton,mouse_2.rightButton,mouse_2.clicked_name,special_trial.started,special_trial.stopped,catch_1.started,catch_1.stopped,mouse_3.x,mouse_3.y,mouse_3.leftButton,mouse_3.midButton,mouse_3.rightButton,catchresponse,catchnumber,response_time_catch,response_sum.started,response_sum.stopped,mouse_11.x,mouse_11.y,mouse_11.leftButton,mouse_11.midButton,mouse_11.rightButton,flip_presentation_sequence_for_double_pass.started,flip_presentation_sequence_for_double_pass.stopped,goodbye.started,goodbye.stopped,key_resp_3.keys,key_resp_3.rt,key_resp_3.duration
0.0003,0.0003,566dedbd57f93300112d0ee2,2024-02-19_02h14.11.992,kallum_motion_pilot,2023.2.2,Win32,166.6666667,566dedbd57f93300112d0ee2,65d2b6c8f2eece985d8e374c,65d2b969c21f565b6fcb1047,,,,,,,,,,,,,,,,,,,,,,,,,,,,,,,,,,,,,,,,,,,,,,,,,,,,,,,,,,,,,,,,,,,,,,,,,,,,,,,,,,,,,,,,,,,,,,,,,,,,,,,,,,,,,,,,,,,,,,,,,,,,,,,,,,,,,,,,,,,,,,,,,
,,566dedbd57f93300112d0ee2,2024-02-19_02h14.11.992,kallum_motion_pilot,2023.2.2,Win32,166.6666667,566dedbd57f93300112d0ee2,65d2b6c8f2eece985d8e374c,65d2b969c21f565b6fcb1047,0.0209,0.021,0,0,0,8,1,onetwo,,,,,,,,,,,,,,,,,,,,,,,,,,,,,,,,,,,,,,,,,,,,,,,,,,,,,,,,,,,,,,,,,,,,,,,,,,,,,,,,,,,,,,,,,,,,,,,,,,,,,,,,,,,,,,,,,,,,,,,,,,,,,,,,,,,,,,,,,
,,566dedbd57f93300112d0ee2,2024-02-19_02h14.11.992,kallum_motion_pilot,2023.2.2,Win32,166.6666667,566dedbd57f93300112d0ee2,65d2b6c8f2eece985d8e374c,65d2b969c21f565b6fcb1047,0.0211,0.0212,0,1,1,118,1,eightsix,,,,,,,,,,,,,,,,,,,,,,,,,,,,,,,,,,,,,,,,,,,,,,,,,,,,,,,,,,,,,,,,,,,,,,,,,,,,,,,,,,,,,,,,,,,,,,,,,,,,,,,,,,,,,,,,,,,,,,,,,,,,,,,,,,,,,,,,,
,,566dedbd57f93300112d0ee2,2024-02-19_02h14.11.992,kallum_motion_pilot,2023.2.2,Win32,166.6666667,566dedbd57f93300112d0ee2,65d2b6c8f2eece985d8e374c,65d2b969c21f565b6fcb1047,0.0213,0.0213,0,2,2,46,1,fourtwo,,,,,,,,,,,,,,,,,,,,,,,,,,,,,,,,,,,,,,,,,,,,,,,,,,,,,,,,,,,,,,,,,,,,,,,,,,,,,,,,,,,,,,,,,,,,,,,,,,,,,,,,,,,,,,,,,,,,,,,,,,,,,,,,,,,,,,,,,
,,566dedbd57f93300112d0ee2,2024-02-19_02h14.11.992,kallum_motion_pilot,2023.2.2,Win32,166.6666667,566dedbd57f93300112d0ee2,65d2b6c8f2eece985d8e374c,65d2b969c21f565b6fcb1047,0.0214,0.0214,0,3,3,119,1,eightseven,,,,,,,,,,,,,,,,,,,,,,,,,,,,,,,,,,,,,,,,,,,,,,,,,,,,,,,,,,,,,,,,,,,,,,,,,,,,,,,,,,,,,,,,,,,,,,,,,,,,,,,,,,,,,,,,,,,,,,,,,,,,,,,,,,,,,,,,,
,,566dedbd57f93300112d0ee2,2024-02-19_02h14.11.992,kallum_motion_pilot,2023.2.2,Win32,166.6666667,566dedbd57f93300112d0ee2,65d2b6c8f2eece985d8e374c,65d2b969c21f565b6fcb1047,0.0215,0.0215,0,4,4,102,1,eightsix,,,,,,,,,,,,,,,,,,,,,,,,,,,,,,,,,,,,,,,,,,,,,,,,,,,,,,,,,,,,,,,,,,,,,,,,,,,,,,,,,,,,,,,,,,,,,,,,,,,,,,,,,,,,,,,,,,,,,,,,,,,,,,,,,,,,,,,,,
,,566dedbd57f93300112d0ee2,2024-02-19_02h14.11.992,kallum_motion_pilot,2023.2.2,Win32,166.6666667,566dedbd57f93300112d0ee2,65d2b6c8f2eece985d8e374c,65d2b969c21f565b6fcb1047,0.0215,0.0215,0,5,5,104,1,fivesix,,,,,,,,,,,,,,,,,,,,,,,,,,,,,,,,,,,,,,,,,,,,,,,,,,,,,,,,,,,,,,,,,,,,,,,,,,,,,,,,,,,,,,,,,,,,,,,,,,,,,,,,,,,,,,,,,,,,,,,,,,,,,,,,,,,,,,,,,
,,566dedbd57f93300112d0ee2,2024-02-19_02h14.11.992,kallum_motion_pilot,2023.2.2,Win32,166.6666667,566dedbd57f93300112d0ee2,65d2b6c8f2eece985d8e374c,65d2b969c21f565b6fcb1047,0.0216,0.0216,0,6,6,110,1,eightsix,,,,,,,,,,,,,,,,,,,,,,,,,,,,,,,,,,,,,,,,,,,,,,,,,,,,,,,,,,,,,,,,,,,,,,,,,,,,,,,,,,,,,,,,,,,,,,,,,,,,,,,,,,,,,,,,,,,,,,,,,,,,,,,,,,,,,,,,,
,,566dedbd57f93300112d0ee2,2024-02-19_02h14.11.992,kallum_motion_pilot,2023.2.2,Win32,166.6666667,566dedbd57f93300112d0ee2,65d2b6c8f2eece985d8e374c,65d2b969c21f565b6fcb1047,0.0217,0.0217,0,7,7,20,1,threeone,,,,,,,,,,,,,,,,,,,,,,,,,,,,,,,,,,,,,,,,,,,,,,,,,,,,,,,,,,,,,,,,,,,,,,,,,,,,,,,,,,,,,,,,,,,,,,,,,,,,,,,,,,,,,,,,,,,,,,,,,,,,,,,,,,,,,,,,,
,,566dedbd57f93300112d0ee2,2024-02-19_02h14.11.992,kallum_motion_pilot,2023.2.2,Win32,166.6666667,566dedbd57f93300112d0ee2,65d2b6c8f2eece985d8e374c,65d2b969c21f565b6fcb1047,0.0217,0.0218,0,8,8,62,1,fourtwo,,,,,,,,,,,,,,,,,,,,,,,,,,,,,,,,,,,,,,,,,,,,,,,,,,,,,,,,,,,,,,,,,,,,,,,,,,,,,,,,,,,,,,,,,,,,,,,,,,,,,,,,,,,,,,,,,,,,,,,,,,,,,,,,,,,,,,,,,
,,566dedbd57f93300112d0ee2,2024-02-19_02h14.11.992,kallum_motion_pilot,2023.2.2,Win32,166.6666667,566dedbd57f93300112d0ee2,65d2b6c8f2eece985d8e374c,65d2b969c21f565b6fcb1047,0.0218,0.0219,0,9,9,27,1,twofour,,,,,,,,,,,,,,,,,,,,,,,,,,,,,,,,,,,,,,,,,,,,,,,,,,,,,,,,,,,,,,,,,,,,,,,,,,,,,,,,,,,,,,,,,,,,,,,,,,,,,,,,,,,,,,,,,,,,,,,,,,,,,,,,,,,,,,,,,
,,566dedbd57f93300112d0ee2,2024-02-19_02h14.11.992,kallum_motion_pilot,2023.2.2,Win32,166.6666667,566dedbd57f93300112d0ee2,65d2b6c8f2eece985d8e374c,65d2b969c21f565b6fcb1047,0.0219,0.0219,0,10,10,47,1,fourthree,,,,,,,,,,,,,,,,,,,,,,,,,,,,,,,,,,,,,,,,,,,,,,,,,,,,,,,,,,,,,,,,,,,,,,,,,,,,,,,,,,,,,,,,,,,,,,,,,,,,,,,,,,,,,,,,,,,,,,,,,,,,,,,,,,,,,,,,,
,,566dedbd57f93300112d0ee2,2024-02-19_02h14.11.992,kallum_motion_pilot,2023.2.2,Win32,166.6666667,566dedbd57f93300112d0ee2,65d2b6c8f2eece985d8e374c,65d2b969c21f565b6fcb1047,0.022,0.022,0,11,11,96,1,fivesix,,,,,,,,,,,,,,,,,,,,,,,,,,,,,,,,,,,,,,,,,,,,,,,,,,,,,,,,,,,,,,,,,,,,,,,,,,,,,,,,,,,,,,,,,,,,,,,,,,,,,,,,,,,,,,,,,,,,,,,,,,,,,,,,,,,,,,,,,
,,566dedbd57f93300112d0ee2,2024-02-19_02h14.11.992,kallum_motion_pilot,2023.2.2,Win32,166.6666667,566dedbd57f93300112d0ee2,65d2b6c8f2eece985d8e374c,65d2b969c21f565b6fcb1047,0.0221,0.0221,0,12,12,153,1,fiveseven,,,,,,,,,,,,,,,,,,,,,,,,,,,,,,,,,,,,,,,,,,,,,,,,,,,,,,,,,,,,,,,,,,,,,,,,,,,,,,,,,,,,,,,,,,,,,,,,,,,,,,,,,,,,,,,,,,,,,,,,,,,,,,,,,,,,,,,,,
,,566dedbd57f93300112d0ee2,2024-02-19_02h14.11.992,kallum_motion_pilot,2023.2.2,Win32,166.6666667,566dedbd57f93300112d0ee2,65d2b6c8f2eece985d8e374c,65d2b969c21f565b6fcb1047,0.0221,0.0221,0,13,13,90,1,sixfive,,,,,,,,,,,,,,,,,,,,,,,,,,,,,,,,,,,,,,,,,,,,,,,,,,,,,,,,,,,,,,,,,,,,,,,,,,,,,,,,,,,,,,,,,,,,,,,,,,,,,,,,,,,,,,,,,,,,,,,,,,,,,,,,,,,,,,,,,
,,566dedbd57f93300112d0ee2,2024-02-19_02h14.11.992,kallum_motion_pilot,2023.2.2,Win32,166.6666667,566dedbd57f93300112d0ee2,65d2b6c8f2eece985d8e374c,65d2b969c21f565b6fcb1047,0.0221,0.0222,0,14,14,33,1,onethree,,,,,,,,,,,,,,,,,,,,,,,,,,,,,,,,,,,,,,,,,,,,,,,,,,,,,,,,,,,,,,,,,,,,,,,,,,,,,,,,,,,,,,,,,,,,,,,,,,,,,,,,,,,,,,,,,,,,,,,,,,,,,,,,,,,,,,,,,
,,566dedbd57f93300112d0ee2,2024-02-19_02h14.11.992,kallum_motion_pilot,2023.2.2,Win32,166.6666667,566dedbd57f93300112d0ee2,65d2b6c8f2eece985d8e374c,65d2b969c21f565b6fcb1047,0.0222,0.0222,0,15,15,1,1,onethree,,,,,,,,,,,,,,,,,,,,,,,,,,,,,,,,,,,,,,,,,,,,,,,,,,,,,,,,,,,,,,,,,,,,,,,,,,,,,,,,,,,,,,,,,,,,,,,,,,,,,,,,,,,,,,,,,,,,,,,,,,,,,,,,,,,,,,,,,
,,566dedbd57f93300112d0ee2,2024-02-19_02h14.11.992,kallum_motion_pilot,2023.2.2,Win32,166.6666667,566dedbd57f93300112d0ee2,65d2b6c8f2eece985d8e374c,65d2b969c21f565b6fcb1047,0.0223,0.0223,0,16,16,49,1,onethree,,,,,,,,,,,,,,,,,,,,,,,,,,,,,,,,,,,,,,,,,,,,,,,,,,,,,,,,,,,,,,,,,,,,,,,,,,,,,,,,,,,,,,,,,,,,,,,,,,,,,,,,,,,,,,,,,,,,,,,,,,,,,,,,,,,,,,,,,
,,566dedbd57f93300112d0ee2,2024-02-19_02h14.11.992,kallum_motion_pilot,2023.2.2,Win32,166.6666667,566dedbd57f93300112d0ee2,65d2b6c8f2eece985d8e374c,65d2b969c21f565b6fcb1047,0.0223,0.0223,0,17,17,103,1,eightseven,,,,,,,,,,,,,,,,,,,,,,,,,,,,,,,,,,,,,,,,,,,,,,,,,,,,,,,,,,,,,,,,,,,,,,,,,,,,,,,,,,,,,,,,,,,,,,,,,,,,,,,,,,,,,,,,,,,,,,,,,,,,,,,,,,,,,,,,,
,,566dedbd57f93300112d0ee2,2024-02-19_02h14.11.992,kallum_motion_pilot,2023.2.2,Win32,166.6666667,566dedbd57f93300112d0ee2,65d2b6c8f2eece985d8e374c,65d2b969c21f565b6fcb1047,0.0224,0.0224,0,18,18,40,1,onetwo,,,,,,,,,,,,,,,,,,,,,,,,,,,,,,,,,,,,,,,,,,,,,,,,,,,,,,,,,,,,,,,,,,,,,,,,,,,,,,,,,,,,,,,,,,,,,,,,,,,,,,,,,,,,,,,,,,,,,,,,,,,,,,,,,,,,,,,,,
,,566dedbd57f93300112d0ee2,2024-02-19_02h14.11.992,kallum_motion_pilot,2023.2.2,Win32,166.6666667,566dedbd57f93300112d0ee2,65d2b6c8f2eece985d8e374c,65d2b969c21f565b6fcb1047,0.0224,0.0224,0,19,19,34,1,twoone,,,,,,,,,,,,,,,,,,,,,,,,,,,,,,,,,,,,,,,,,,,,,,,,,,,,,,,,,,,,,,,,,,,,,,,,,,,,,,,,,,,,,,,,,,,,,,,,,,,,,,,,,,,,,,,,,,,,,,,,,,,,,,,,,,,,,,,,,
,,566dedbd57f93300112d0ee2,2024-02-19_02h14.11.992,kallum_motion_pilot,2023.2.2,Win32,166.6666667,566dedbd57f93300112d0ee2,65d2b6c8f2eece985d8e374c,65d2b969c21f565b6fcb1047,0.0224,0.0224,0,20,20,23,1,fourthree,,,,,,,,,,,,,,,,,,,,,,,,,,,,,,,,,,,,,,,,,,,,,,,,,,,,,,,,,,,,,,,,,,,,,,,,,,,,,,,,,,,,,,,,,,,,,,,,,,,,,,,,,,,,,,,,,,,,,,,,,,,,,,,,,,,,,,,,,
,,566dedbd57f93300112d0ee2,2024-02-19_02h14.11.992,kallum_motion_pilot,2023.2.2,Win32,166.6666667,566dedbd57f93300112d0ee2,65d2b6c8f2eece985d8e374c,65d2b969c21f565b6fcb1047,0.0225,0.0225,0,21,21,50,1,twoone,,,,,,,,,,,,,,,,,,,,,,,,,,,,,,,,,,,,,,,,,,,,,,,,,,,,,,,,,,,,,,,,,,,,,,,,,,,,,,,,,,,,,,,,,,,,,,,,,,,,,,,,,,,,,,,,,,,,,,,,,,,,,,,,,,,,,,,,,
,,566dedbd57f93300112d0ee2,2024-02-19_02h14.11.992,kallum_motion_pilot,2023.2.2,Win32,166.6666667,566dedbd57f93300112d0ee2,65d2b6c8f2eece985d8e374c,65d2b969c21f565b6fcb1047,0.0226,0.0226,0,22,22,53,1,threefour,,,,,,,,,,,,,,,,,,,,,,,,,,,,,,,,,,,,,,,,,,,,,,,,,,,,,,,,,,,,,,,,,,,,,,,,,,,,,,,,,,,,,,,,,,,,,,,,,,,,,,,,,,,,,,,,,,,,,,,,,,,,,,,,,,,,,,,,,
,,566dedbd57f93300112d0ee2,2024-02-19_02h14.11.992,kallum_motion_pilot,2023.2.2,Win32,166.6666667,566dedbd57f93300112d0ee2,65d2b6c8f2eece985d8e374c,65d2b969c21f565b6fcb1047,0.0226,0.0226,0,23,23,137,1,fiveseven,,,,,,,,,,,,,,,,,,,,,,,,,,,,,,,,,,,,,,,,,,,,,,,,,,,,,,,,,,,,,,,,,,,,,,,,,,,,,,,,,,,,,,,,,,,,,,,,,,,,,,,,,,,,,,,,,,,,,,,,,,,,,,,,,,,,,,,,,
,,566dedbd57f93300112d0ee2,2024-02-19_02h14.11.992,kallum_motion_pilot,2023.2.2,Win32,166.6666667,566dedbd57f93300112d0ee2,65d2b6c8f2eece985d8e374c,65d2b969c21f565b6fcb1047,0.0227,0.0227,0,24,24,141,1,seveneight,,,,,,,,,,,,,,,,,,,,,,,,,,,,,,,,,,,,,,,,,,,,,,,,,,,,,,,,,,,,,,,,,,,,,,,,,,,,,,,,,,,,,,,,,,,,,,,,,,,,,,,,,,,,,,,,,,,,,,,,,,,,,,,,,,,,,,,,,
,,566dedbd57f93300112d0ee2,2024-02-19_02h14.11.992,kallum_motion_pilot,2023.2.2,Win32,166.6666667,566dedbd57f93300112d0ee2,65d2b6c8f2eece985d8e374c,65d2b969c21f565b6fcb1047,0.0227,0.0227,0,25,25,121,1,fiveseven,,,,,,,,,,,,,,,,,,,,,,,,,,,,,,,,,,,,,,,,,,,,,,,,,,,,,,,,,,,,,,,,,,,,,,,,,,,,,,,,,,,,,,,,,,,,,,,,,,,,,,,,,,,,,,,,,,,,,,,,,,,,,,,,,,,,,,,,,
,,566dedbd57f93300112d0ee2,2024-02-19_02h14.11.992,kallum_motion_pilot,2023.2.2,Win32,166.6666667,566dedbd57f93300112d0ee2,65d2b6c8f2eece985d8e374c,65d2b969c21f565b6fcb1047,0.0228,0.0228,0,26,26,156,1,sevenfive,,,,,,,,,,,,,,,,,,,,,,,,,,,,,,,,,,,,,,,,,,,,,,,,,,,,,,,,,,,,,,,,,,,,,,,,,,,,,,,,,,,,,,,,,,,,,,,,,,,,,,,,,,,,,,,,,,,,,,,,,,,,,,,,,,,,,,,,,
,,566dedbd57f93300112d0ee2,2024-02-19_02h14.11.992,kallum_motion_pilot,2023.2.2,Win32,166.6666667,566dedbd57f93300112d0ee2,65d2b6c8f2eece985d8e374c,65d2b969c21f565b6fcb1047,0.0228,0.0228,0,27,27,157,1,seveneight,,,,,,,,,,,,,,,,,,,,,,,,,,,,,,,,,,,,,,,,,,,,,,,,,,,,,,,,,,,,,,,,,,,,,,,,,,,,,,,,,,,,,,,,,,,,,,,,,,,,,,,,,,,,,,,,,,,,,,,,,,,,,,,,,,,,,,,,,
,,566dedbd57f93300112d0ee2,2024-02-19_02h14.11.992,kallum_motion_pilot,2023.2.2,Win32,166.6666667,566dedbd57f93300112d0ee2,65d2b6c8f2eece985d8e374c,65d2b969c21f565b6fcb1047,0.0229,0.0229,0,28,28,98,1,sixfive,,,,,,,,,,,,,,,,,,,,,,,,,,,,,,,,,,,,,,,,,,,,,,,,,,,,,,,,,,,,,,,,,,,,,,,,,,,,,,,,,,,,,,,,,,,,,,,,,,,,,,,,,,,,,,,,,,,,,,,,,,,,,,,,,,,,,,,,,
,,566dedbd57f93300112d0ee2,2024-02-19_02h14.11.992,kallum_motion_pilot,2023.2.2,Win32,166.6666667,566dedbd57f93300112d0ee2,65d2b6c8f2eece985d8e374c,65d2b969c21f565b6fcb1047,0.0229,0.0229,0,29,29,148,1,sevenfive,,,,,,,,,,,,,,,,,,,,,,,,,,,,,,,,,,,,,,,,,,,,,,,,,,,,,,,,,,,,,,,,,,,,,,,,,,,,,,,,,,,,,,,,,,,,,,,,,,,,,,,,,,,,,,,,,,,,,,,,,,,,,,,,,,,,,,,,,
,,566dedbd57f93300112d0ee2,2024-02-19_02h14.11.992,kallum_motion_pilot,2023.2.2,Win32,166.6666667,566dedbd57f93300112d0ee2,65d2b6c8f2eece985d8e374c,65d2b969c21f565b6fcb1047,0.0229,0.0229,0,30,30,87,1,eightseven,,,,,,,,,,,,,,,,,,,,,,,,,,,,,,,,,,,,,,,,,,,,,,,,,,,,,,,,,,,,,,,,,,,,,,,,,,,,,,,,,,,,,,,,,,,,,,,,,,,,,,,,,,,,,,,,,,,,,,,,,,,,,,,,,,,,,,,,,
,,566dedbd57f93300112d0ee2,2024-02-19_02h14.11.992,kallum_motion_pilot,2023.2.2,Win32,166.6666667,566dedbd57f93300112d0ee2,65d2b6c8f2eece985d8e374c,65d2b969c21f565b6fcb1047,0.023,0.023,0,31,31,81,1,fiveseven,,,,,,,,,,,,,,,,,,,,,,,,,,,,,,,,,,,,,,,,,,,,,,,,,,,,,,,,,,,,,,,,,,,,,,,,,,,,,,,,,,,,,,,,,,,,,,,,,,,,,,,,,,,,,,,,,,,,,,,,,,,,,,,,,,,,,,,,,
,,566dedbd57f93300112d0ee2,2024-02-19_02h14.11.992,kallum_motion_pilot,2023.2.2,Win32,166.6666667,566dedbd57f93300112d0ee2,65d2b6c8f2eece985d8e374c,65d2b969c21f565b6fcb1047,0.0231,0.0231,0,32,32,36,1,threeone,,,,,,,,,,,,,,,,,,,,,,,,,,,,,,,,,,,,,,,,,,,,,,,,,,,,,,,,,,,,,,,,,,,,,,,,,,,,,,,,,,,,,,,,,,,,,,,,,,,,,,,,,,,,,,,,,,,,,,,,,,,,,,,,,,,,,,,,,
,,566dedbd57f93300112d0ee2,2024-02-19_02h14.11.992,kallum_motion_pilot,2023.2.2,Win32,166.6666667,566dedbd57f93300112d0ee2,65d2b6c8f2eece985d8e374c,65d2b969c21f565b6fcb1047,0.0231,0.0231,0,33,33,79,1,eightseven,,,,,,,,,,,,,,,,,,,,,,,,,,,,,,,,,,,,,,,,,,,,,,,,,,,,,,,,,,,,,,,,,,,,,,,,,,,,,,,,,,,,,,,,,,,,,,,,,,,,,,,,,,,,,,,,,,,,,,,,,,,,,,,,,,,,,,,,,
,,566dedbd57f93300112d0ee2,2024-02-19_02h14.11.992,kallum_motion_pilot,2023.2.2,Win32,166.6666667,566dedbd57f93300112d0ee2,65d2b6c8f2eece985d8e374c,65d2b969c21f565b6fcb1047,0.0231,0.0232,0,34,34,139,1,sixeight,,,,,,,,,,,,,,,,,,,,,,,,,,,,,,,,,,,,,,,,,,,,,,,,,,,,,,,,,,,,,,,,,,,,,,,,,,,,,,,,,,,,,,,,,,,,,,,,,,,,,,,,,,,,,,,,,,,,,,,,,,,,,,,,,,,,,,,,,
,,566dedbd57f93300112d0ee2,2024-02-19_02h14.11.992,kallum_motion_pilot,2023.2.2,Win32,166.6666667,566dedbd57f93300112d0ee2,65d2b6c8f2eece985d8e374c,65d2b969c21f565b6fcb1047,0.0232,0.0232,0,35,35,15,1,fourthree,,,,,,,,,,,,,,,,,,,,,,,,,,,,,,,,,,,,,,,,,,,,,,,,,,,,,,,,,,,,,,,,,,,,,,,,,,,,,,,,,,,,,,,,,,,,,,,,,,,,,,,,,,,,,,,,,,,,,,,,,,,,,,,,,,,,,,,,,
,,566dedbd57f93300112d0ee2,2024-02-19_02h14.11.992,kallum_motion_pilot,2023.2.2,Win32,166.6666667,566dedbd57f93300112d0ee2,65d2b6c8f2eece985d8e374c,65d2b969c21f565b6fcb1047,0.0232,0.0232,0,36,36,128,1,fivesix,,,,,,,,,,,,,,,,,,,,,,,,,,,,,,,,,,,,,,,,,,,,,,,,,,,,,,,,,,,,,,,,,,,,,,,,,,,,,,,,,,,,,,,,,,,,,,,,,,,,,,,,,,,,,,,,,,,,,,,,,,,,,,,,,,,,,,,,,
,,566dedbd57f93300112d0ee2,2024-02-19_02h14.11.992,kallum_motion_pilot,2023.2.2,Win32,166.6666667,566dedbd57f93300112d0ee2,65d2b6c8f2eece985d8e374c,65d2b969c21f565b6fcb1047,0.0233,0.0233,0,37,37,66,1,twoone,,,,,,,,,,,,,,,,,,,,,,,,,,,,,,,,,,,,,,,,,,,,,,,,,,,,,,,,,,,,,,,,,,,,,,,,,,,,,,,,,,,,,,,,,,,,,,,,,,,,,,,,,,,,,,,,,,,,,,,,,,,,,,,,,,,,,,,,,
,,566dedbd57f93300112d0ee2,2024-02-19_02h14.11.992,kallum_motion_pilot,2023.2.2,Win32,166.6666667,566dedbd57f93300112d0ee2,65d2b6c8f2eece985d8e374c,65d2b969c21f565b6fcb1047,0.0233,0.0233,0,38,38,122,1,sixfive,,,,,,,,,,,,,,,,,,,,,,,,,,,,,,,,,,,,,,,,,,,,,,,,,,,,,,,,,,,,,,,,,,,,,,,,,,,,,,,,,,,,,,,,,,,,,,,,,,,,,,,,,,,,,,,,,,,,,,,,,,,,,,,,,,,,,,,,,
,,566dedbd57f93300112d0ee2,2024-02-19_02h14.11.992,kallum_motion_pilot,2023.2.2,Win32,166.6666667,566dedbd57f93300112d0ee2,65d2b6c8f2eece985d8e374c,65d2b969c21f565b6fcb1047,0.0234,0.0234,0,39,39,60,1,threeone,,,,,,,,,,,,,,,,,,,,,,,,,,,,,,,,,,,,,,,,,,,,,,,,,,,,,,,,,,,,,,,,,,,,,,,,,,,,,,,,,,,,,,,,,,,,,,,,,,,,,,,,,,,,,,,,,,,,,,,,,,,,,,,,,,,,,,,,,
,,566dedbd57f93300112d0ee2,2024-02-19_02h14.11.992,kallum_motion_pilot,2023.2.2,Win32,166.6666667,566dedbd57f93300112d0ee2,65d2b6c8f2eece985d8e374c,65d2b969c21f565b6fcb1047,0.0234,0.0234,0,40,40,105,1,fiveseven,,,,,,,,,,,,,,,,,,,,,,,,,,,,,,,,,,,,,,,,,,,,,,,,,,,,,,,,,,,,,,,,,,,,,,,,,,,,,,,,,,,,,,,,,,,,,,,,,,,,,,,,,,,,,,,,,,,,,,,,,,,,,,,,,,,,,,,,,
,,566dedbd57f93300112d0ee2,2024-02-19_02h14.11.992,kallum_motion_pilot,2023.2.2,Win32,166.6666667,566dedbd57f93300112d0ee2,65d2b6c8f2eece985d8e374c,65d2b969c21f565b6fcb1047,0.0235,0.0235,0,41,41,6,1,fourtwo,,,,,,,,,,,,,,,,,,,,,,,,,,,,,,,,,,,,,,,,,,,,,,,,,,,,,,,,,,,,,,,,,,,,,,,,,,,,,,,,,,,,,,,,,,,,,,,,,,,,,,,,,,,,,,,,,,,,,,,,,,,,,,,,,,,,,,,,,
,,566dedbd57f93300112d0ee2,2024-02-19_02h14.11.992,kallum_motion_pilot,2023.2.2,Win32,166.6666667,566dedbd57f93300112d0ee2,65d2b6c8f2eece985d8e374c,65d2b969c21f565b6fcb1047,0.0235,0.0236,0,42,42,56,1,onetwo,,,,,,,,,,,,,,,,,,,,,,,,,,,,,,,,,,,,,,,,,,,,,,,,,,,,,,,,,,,,,,,,,,,,,,,,,,,,,,,,,,,,,,,,,,,,,,,,,,,,,,,,,,,,,,,,,,,,,,,,,,,,,,,,,,,,,,,,,
,,566dedbd57f93300112d0ee2,2024-02-19_02h14.11.992,kallum_motion_pilot,2023.2.2,Win32,166.6666667,566dedbd57f93300112d0ee2,65d2b6c8f2eece985d8e374c,65d2b969c21f565b6fcb1047,0.0236,0.0237,0,43,43,38,1,fourtwo,,,,,,,,,,,,,,,,,,,,,,,,,,,,,,,,,,,,,,,,,,,,,,,,,,,,,,,,,,,,,,,,,,,,,,,,,,,,,,,,,,,,,,,,,,,,,,,,,,,,,,,,,,,,,,,,,,,,,,,,,,,,,,,,,,,,,,,,,
,,566dedbd57f93300112d0ee2,2024-02-19_02h14.11.992,kallum_motion_pilot,2023.2.2,Win32,166.6666667,566dedbd57f93300112d0ee2,65d2b6c8f2eece985d8e374c,65d2b969c21f565b6fcb1047,0.0237,0.0237,0,44,44,144,1,fivesix,,,,,,,,,,,,,,,,,,,,,,,,,,,,,,,,,,,,,,,,,,,,,,,,,,,,,,,,,,,,,,,,,,,,,,,,,,,,,,,,,,,,,,,,,,,,,,,,,,,,,,,,,,,,,,,,,,,,,,,,,,,,,,,,,,,,,,,,,
,,566dedbd57f93300112d0ee2,2024-02-19_02h14.11.992,kallum_motion_pilot,2023.2.2,Win32,166.6666667,566dedbd57f93300112d0ee2,65d2b6c8f2eece985d8e374c,65d2b969c21f565b6fcb1047,0.0238,0.0238,0,45,45,101,1,seveneight,,,,,,,,,,,,,,,,,,,,,,,,,,,,,,,,,,,,,,,,,,,,,,,,,,,,,,,,,,,,,,,,,,,,,,,,,,,,,,,,,,,,,,,,,,,,,,,,,,,,,,,,,,,,,,,,,,,,,,,,,,,,,,,,,,,,,,,,,
,,566dedbd57f93300112d0ee2,2024-02-19_02h14.11.992,kallum_motion_pilot,2023.2.2,Win32,166.6666667,566dedbd57f93300112d0ee2,65d2b6c8f2eece985d8e374c,65d2b969c21f565b6fcb1047,0.0238,0.0238,0,46,46,32,1,onetwo,,,,,,,,,,,,,,,,,,,,,,,,,,,,,,,,,,,,,,,,,,,,,,,,,,,,,,,,,,,,,,,,,,,,,,,,,,,,,,,,,,,,,,,,,,,,,,,,,,,,,,,,,,,,,,,,,,,,,,,,,,,,,,,,,,,,,,,,,
,,566dedbd57f93300112d0ee2,2024-02-19_02h14.11.992,kallum_motion_pilot,2023.2.2,Win32,166.6666667,566dedbd57f93300112d0ee2,65d2b6c8f2eece985d8e374c,65d2b969c21f565b6fcb1047,0.0239,0.024,0,47,47,42,1,twoone,,,,,,,,,,,,,,,,,,,,,,,,,,,,,,,,,,,,,,,,,,,,,,,,,,,,,,,,,,,,,,,,,,,,,,,,,,,,,,,,,,,,,,,,,,,,,,,,,,,,,,,,,,,,,,,,,,,,,,,,,,,,,,,,,,,,,,,,,
,,566dedbd57f93300112d0ee2,2024-02-19_02h14.11.992,kallum_motion_pilot,2023.2.2,Win32,166.6666667,566dedbd57f93300112d0ee2,65d2b6c8f2eece985d8e374c,65d2b969c21f565b6fcb1047,0.024,0.024,0,48,48,14,1,fourtwo,,,,,,,,,,,,,,,,,,,,,,,,,,,,,,,,,,,,,,,,,,,,,,,,,,,,,,,,,,,,,,,,,,,,,,,,,,,,,,,,,,,,,,,,,,,,,,,,,,,,,,,,,,,,,,,,,,,,,,,,,,,,,,,,,,,,,,,,,
,,566dedbd57f93300112d0ee2,2024-02-19_02h14.11.992,kallum_motion_pilot,2023.2.2,Win32,166.6666667,566dedbd57f93300112d0ee2,65d2b6c8f2eece985d8e374c,65d2b969c21f565b6fcb1047,0.0241,0.0241,0,49,49,127,1,eightseven,,,,,,,,,,,,,,,,,,,,,,,,,,,,,,,,,,,,,,,,,,,,,,,,,,,,,,,,,,,,,,,,,,,,,,,,,,,,,,,,,,,,,,,,,,,,,,,,,,,,,,,,,,,,,,,,,,,,,,,,,,,,,,,,,,,,,,,,,
,,566dedbd57f93300112d0ee2,2024-02-19_02h14.11.992,kallum_motion_pilot,2023.2.2,Win32,166.6666667,566dedbd57f93300112d0ee2,65d2b6c8f2eece985d8e374c,65d2b969c21f565b6fcb1047,0.0241,0.0241,0,50,50,85,1,seveneight,,,,,,,,,,,,,,,,,,,,,,,,,,,,,,,,,,,,,,,,,,,,,,,,,,,,,,,,,,,,,,,,,,,,,,,,,,,,,,,,,,,,,,,,,,,,,,,,,,,,,,,,,,,,,,,,,,,,,,,,,,,,,,,,,,,,,,,,,
,,566dedbd57f93300112d0ee2,2024-02-19_02h14.11.992,kallum_motion_pilot,2023.2.2,Win32,166.6666667,566dedbd57f93300112d0ee2,65d2b6c8f2eece985d8e374c,65d2b969c21f565b6fcb1047,0.0242,0.0242,0,51,51,59,1,twofour,,,,,,,,,,,,,,,,,,,,,,,,,,,,,,,,,,,,,,,,,,,,,,,,,,,,,,,,,,,,,,,,,,,,,,,,,,,,,,,,,,,,,,,,,,,,,,,,,,,,,,,,,,,,,,,,,,,,,,,,,,,,,,,,,,,,,,,,,
,,566dedbd57f93300112d0ee2,2024-02-19_02h14.11.992,kallum_motion_pilot,2023.2.2,Win32,166.6666667,566dedbd57f93300112d0ee2,65d2b6c8f2eece985d8e374c,65d2b969c21f565b6fcb1047,0.0242,0.0243,0,52,52,12,1,threeone,,,,,,,,,,,,,,,,,,,,,,,,,,,,,,,,,,,,,,,,,,,,,,,,,,,,,,,,,,,,,,,,,,,,,,,,,,,,,,,,,,,,,,,,,,,,,,,,,,,,,,,,,,,,,,,,,,,,,,,,,,,,,,,,,,,,,,,,,
,,566dedbd57f93300112d0ee2,2024-02-19_02h14.11.992,kallum_motion_pilot,2023.2.2,Win32,166.6666667,566dedbd57f93300112d0ee2,65d2b6c8f2eece985d8e374c,65d2b969c21f565b6fcb1047,0.0243,0.0243,0,53,53,10,1,twoone,,,,,,,,,,,,,,,,,,,,,,,,,,,,,,,,,,,,,,,,,,,,,,,,,,,,,,,,,,,,,,,,,,,,,,,,,,,,,,,,,,,,,,,,,,,,,,,,,,,,,,,,,,,,,,,,,,,,,,,,,,,,,,,,,,,,,,,,,
,,566dedbd57f93300112d0ee2,2024-02-19_02h14.11.992,kallum_motion_pilot,2023.2.2,Win32,166.6666667,566dedbd57f93300112d0ee2,65d2b6c8f2eece985d8e374c,65d2b969c21f565b6fcb1047,0.0244,0.0245,0,54,54,69,1,threefour,,,,,,,,,,,,,,,,,,,,,,,,,,,,,,,,,,,,,,,,,,,,,,,,,,,,,,,,,,,,,,,,,,,,,,,,,,,,,,,,,,,,,,,,,,,,,,,,,,,,,,,,,,,,,,,,,,,,,,,,,,,,,,,,,,,,,,,,,
,,566dedbd57f93300112d0ee2,2024-02-19_02h14.11.992,kallum_motion_pilot,2023.2.2,Win32,166.6666667,566dedbd57f93300112d0ee2,65d2b6c8f2eece985d8e374c,65d2b969c21f565b6fcb1047,0.0245,0.0245,0,55,55,158,1,eightsix,,,,,,,,,,,,,,,,,,,,,,,,,,,,,,,,,,,,,,,,,,,,,,,,,,,,,,,,,,,,,,,,,,,,,,,,,,,,,,,,,,,,,,,,,,,,,,,,,,,,,,,,,,,,,,,,,,,,,,,,,,,,,,,,,,,,,,,,,
,,566dedbd57f93300112d0ee2,2024-02-19_02h14.11.992,kallum_motion_pilot,2023.2.2,Win32,166.6666667,566dedbd57f93300112d0ee2,65d2b6c8f2eece985d8e374c,65d2b969c21f565b6fcb1047,0.0246,0.0246,0,56,56,151,1,eightseven,,,,,,,,,,,,,,,,,,,,,,,,,,,,,,,,,,,,,,,,,,,,,,,,,,,,,,,,,,,,,,,,,,,,,,,,,,,,,,,,,,,,,,,,,,,,,,,,,,,,,,,,,,,,,,,,,,,,,,,,,,,,,,,,,,,,,,,,,
,,566dedbd57f93300112d0ee2,2024-02-19_02h14.11.992,kallum_motion_pilot,2023.2.2,Win32,166.6666667,566dedbd57f93300112d0ee2,65d2b6c8f2eece985d8e374c,65d2b969c21f565b6fcb1047,0.0247,0.0247,0,57,57,134,1,eightsix,,,,,,,,,,,,,,,,,,,,,,,,,,,,,,,,,,,,,,,,,,,,,,,,,,,,,,,,,,,,,,,,,,,,,,,,,,,,,,,,,,,,,,,,,,,,,,,,,,,,,,,,,,,,,,,,,,,,,,,,,,,,,,,,,,,,,,,,,
,,566dedbd57f93300112d0ee2,2024-02-19_02h14.11.992,kallum_motion_pilot,2023.2.2,Win32,166.6666667,566dedbd57f93300112d0ee2,65d2b6c8f2eece985d8e374c,65d2b969c21f565b6fcb1047,0.0247,0.0247,0,58,58,143,1,eightseven,,,,,,,,,,,,,,,,,,,,,,,,,,,,,,,,,,,,,,,,,,,,,,,,,,,,,,,,,,,,,,,,,,,,,,,,,,,,,,,,,,,,,,,,,,,,,,,,,,,,,,,,,,,,,,,,,,,,,,,,,,,,,,,,,,,,,,,,,
,,566dedbd57f93300112d0ee2,2024-02-19_02h14.11.992,kallum_motion_pilot,2023.2.2,Win32,166.6666667,566dedbd57f93300112d0ee2,65d2b6c8f2eece985d8e374c,65d2b969c21f565b6fcb1047,0.0248,0.0248,0,59,59,71,1,fourthree,,,,,,,,,,,,,,,,,,,,,,,,,,,,,,,,,,,,,,,,,,,,,,,,,,,,,,,,,,,,,,,,,,,,,,,,,,,,,,,,,,,,,,,,,,,,,,,,,,,,,,,,,,,,,,,,,,,,,,,,,,,,,,,,,,,,,,,,,
,,566dedbd57f93300112d0ee2,2024-02-19_02h14.11.992,kallum_motion_pilot,2023.2.2,Win32,166.6666667,566dedbd57f93300112d0ee2,65d2b6c8f2eece985d8e374c,65d2b969c21f565b6fcb1047,0.0248,0.0248,0,60,60,145,1,fiveseven,,,,,,,,,,,,,,,,,,,,,,,,,,,,,,,,,,,,,,,,,,,,,,,,,,,,,,,,,,,,,,,,,,,,,,,,,,,,,,,,,,,,,,,,,,,,,,,,,,,,,,,,,,,,,,,,,,,,,,,,,,,,,,,,,,,,,,,,,
,,566dedbd57f93300112d0ee2,2024-02-19_02h14.11.992,kallum_motion_pilot,2023.2.2,Win32,166.6666667,566dedbd57f93300112d0ee2,65d2b6c8f2eece985d8e374c,65d2b969c21f565b6fcb1047,0.0249,0.0249,0,61,61,54,1,fourtwo,,,,,,,,,,,,,,,,,,,,,,,,,,,,,,,,,,,,,,,,,,,,,,,,,,,,,,,,,,,,,,,,,,,,,,,,,,,,,,,,,,,,,,,,,,,,,,,,,,,,,,,,,,,,,,,,,,,,,,,,,,,,,,,,,,,,,,,,,
,,566dedbd57f93300112d0ee2,2024-02-19_02h14.11.992,kallum_motion_pilot,2023.2.2,Win32,166.6666667,566dedbd57f93300112d0ee2,65d2b6c8f2eece985d8e374c,65d2b969c21f565b6fcb1047,0.0249,0.0249,0,62,62,16,1,onetwo,,,,,,,,,,,,,,,,,,,,,,,,,,,,,,,,,,,,,,,,,,,,,,,,,,,,,,,,,,,,,,,,,,,,,,,,,,,,,,,,,,,,,,,,,,,,,,,,,,,,,,,,,,,,,,,,,,,,,,,,,,,,,,,,,,,,,,,,,
,,566dedbd57f93300112d0ee2,2024-02-19_02h14.11.992,kallum_motion_pilot,2023.2.2,Win32,166.6666667,566dedbd57f93300112d0ee2,65d2b6c8f2eece985d8e374c,65d2b969c21f565b6fcb1047,0.0251,0.0251,0,63,63,5,1,threefour,,,,,,,,,,,,,,,,,,,,,,,,,,,,,,,,,,,,,,,,,,,,,,,,,,,,,,,,,,,,,,,,,,,,,,,,,,,,,,,,,,,,,,,,,,,,,,,,,,,,,,,,,,,,,,,,,,,,,,,,,,,,,,,,,,,,,,,,,
,,566dedbd57f93300112d0ee2,2024-02-19_02h14.11.992,kallum_motion_pilot,2023.2.2,Win32,166.6666667,566dedbd57f93300112d0ee2,65d2b6c8f2eece985d8e374c,65d2b969c21f565b6fcb1047,0.0252,0.0252,0,64,64,149,1,seveneight,,,,,,,,,,,,,,,,,,,,,,,,,,,,,,,,,,,,,,,,,,,,,,,,,,,,,,,,,,,,,,,,,,,,,,,,,,,,,,,,,,,,,,,,,,,,,,,,,,,,,,,,,,,,,,,,,,,,,,,,,,,,,,,,,,,,,,,,,
,,566dedbd57f93300112d0ee2,2024-02-19_02h14.11.992,kallum_motion_pilot,2023.2.2,Win32,166.6666667,566dedbd57f93300112d0ee2,65d2b6c8f2eece985d8e374c,65d2b969c21f565b6fcb1047,0.0252,0.0253,0,65,65,52,1,threeone,,,,,,,,,,,,,,,,,,,,,,,,,,,,,,,,,,,,,,,,,,,,,,,,,,,,,,,,,,,,,,,,,,,,,,,,,,,,,,,,,,,,,,,,,,,,,,,,,,,,,,,,,,,,,,,,,,,,,,,,,,,,,,,,,,,,,,,,,
,,566dedbd57f93300112d0ee2,2024-02-19_02h14.11.992,kallum_motion_pilot,2023.2.2,Win32,166.6666667,566dedbd57f93300112d0ee2,65d2b6c8f2eece985d8e374c,65d2b969c21f565b6fcb1047,0.0253,0.0253,0,66,66,120,1,fivesix,,,,,,,,,,,,,,,,,,,,,,,,,,,,,,,,,,,,,,,,,,,,,,,,,,,,,,,,,,,,,,,,,,,,,,,,,,,,,,,,,,,,,,,,,,,,,,,,,,,,,,,,,,,,,,,,,,,,,,,,,,,,,,,,,,,,,,,,,
,,566dedbd57f93300112d0ee2,2024-02-19_02h14.11.992,kallum_motion_pilot,2023.2.2,Win32,166.6666667,566dedbd57f93300112d0ee2,65d2b6c8f2eece985d8e374c,65d2b969c21f565b6fcb1047,0.0254,0.0255,0,67,67,63,1,fourthree,,,,,,,,,,,,,,,,,,,,,,,,,,,,,,,,,,,,,,,,,,,,,,,,,,,,,,,,,,,,,,,,,,,,,,,,,,,,,,,,,,,,,,,,,,,,,,,,,,,,,,,,,,,,,,,,,,,,,,,,,,,,,,,,,,,,,,,,,
,,566dedbd57f93300112d0ee2,2024-02-19_02h14.11.992,kallum_motion_pilot,2023.2.2,Win32,166.6666667,566dedbd57f93300112d0ee2,65d2b6c8f2eece985d8e374c,65d2b969c21f565b6fcb1047,0.0255,0.0255,0,68,68,82,1,sixfive,,,,,,,,,,,,,,,,,,,,,,,,,,,,,,,,,,,,,,,,,,,,,,,,,,,,,,,,,,,,,,,,,,,,,,,,,,,,,,,,,,,,,,,,,,,,,,,,,,,,,,,,,,,,,,,,,,,,,,,,,,,,,,,,,,,,,,,,,
,,566dedbd57f93300112d0ee2,2024-02-19_02h14.11.992,kallum_motion_pilot,2023.2.2,Win32,166.6666667,566dedbd57f93300112d0ee2,65d2b6c8f2eece985d8e374c,65d2b969c21f565b6fcb1047,0.0255,0.0255,0,69,69,112,1,fivesix,,,,,,,,,,,,,,,,,,,,,,,,,,,,,,,,,,,,,,,,,,,,,,,,,,,,,,,,,,,,,,,,,,,,,,,,,,,,,,,,,,,,,,,,,,,,,,,,,,,,,,,,,,,,,,,,,,,,,,,,,,,,,,,,,,,,,,,,,
,,566dedbd57f93300112d0ee2,2024-02-19_02h14.11.992,kallum_motion_pilot,2023.2.2,Win32,166.6666667,566dedbd57f93300112d0ee2,65d2b6c8f2eece985d8e374c,65d2b969c21f565b6fcb1047,0.0257,0.0257,0,70,70,43,1,twofour,,,,,,,,,,,,,,,,,,,,,,,,,,,,,,,,,,,,,,,,,,,,,,,,,,,,,,,,,,,,,,,,,,,,,,,,,,,,,,,,,,,,,,,,,,,,,,,,,,,,,,,,,,,,,,,,,,,,,,,,,,,,,,,,,,,,,,,,,
,,566dedbd57f93300112d0ee2,2024-02-19_02h14.11.992,kallum_motion_pilot,2023.2.2,Win32,166.6666667,566dedbd57f93300112d0ee2,65d2b6c8f2eece985d8e374c,65d2b969c21f565b6fcb1047,0.0257,0.0257,0,71,71,152,1,fivesix,,,,,,,,,,,,,,,,,,,,,,,,,,,,,,,,,,,,,,,,,,,,,,,,,,,,,,,,,,,,,,,,,,,,,,,,,,,,,,,,,,,,,,,,,,,,,,,,,,,,,,,,,,,,,,,,,,,,,,,,,,,,,,,,,,,,,,,,,
,,566dedbd57f93300112d0ee2,2024-02-19_02h14.11.992,kallum_motion_pilot,2023.2.2,Win32,166.6666667,566dedbd57f93300112d0ee2,65d2b6c8f2eece985d8e374c,65d2b969c21f565b6fcb1047,0.0258,0.0258,0,72,72,161,1,fiveseven,,,,,,,,,,,,,,,,,,,,,,,,,,,,,,,,,,,,,,,,,,,,,,,,,,,,,,,,,,,,,,,,,,,,,,,,,,,,,,,,,,,,,,,,,,,,,,,,,,,,,,,,,,,,,,,,,,,,,,,,,,,,,,,,,,,,,,,,,
,,566dedbd57f93300112d0ee2,2024-02-19_02h14.11.992,kallum_motion_pilot,2023.2.2,Win32,166.6666667,566dedbd57f93300112d0ee2,65d2b6c8f2eece985d8e374c,65d2b969c21f565b6fcb1047,0.0259,0.0259,0,73,73,61,1,threefour,,,,,,,,,,,,,,,,,,,,,,,,,,,,,,,,,,,,,,,,,,,,,,,,,,,,,,,,,,,,,,,,,,,,,,,,,,,,,,,,,,,,,,,,,,,,,,,,,,,,,,,,,,,,,,,,,,,,,,,,,,,,,,,,,,,,,,,,,
,,566dedbd57f93300112d0ee2,2024-02-19_02h14.11.992,kallum_motion_pilot,2023.2.2,Win32,166.6666667,566dedbd57f93300112d0ee2,65d2b6c8f2eece985d8e374c,65d2b969c21f565b6fcb1047,0.0259,0.0259,0,74,74,88,1,fivesix,,,,,,,,,,,,,,,,,,,,,,,,,,,,,,,,,,,,,,,,,,,,,,,,,,,,,,,,,,,,,,,,,,,,,,,,,,,,,,,,,,,,,,,,,,,,,,,,,,,,,,,,,,,,,,,,,,,,,,,,,,,,,,,,,,,,,,,,,
,,566dedbd57f93300112d0ee2,2024-02-19_02h14.11.992,kallum_motion_pilot,2023.2.2,Win32,166.6666667,566dedbd57f93300112d0ee2,65d2b6c8f2eece985d8e374c,65d2b969c21f565b6fcb1047,0.026,0.026,0,75,75,73,1,onethree,,,,,,,,,,,,,,,,,,,,,,,,,,,,,,,,,,,,,,,,,,,,,,,,,,,,,,,,,,,,,,,,,,,,,,,,,,,,,,,,,,,,,,,,,,,,,,,,,,,,,,,,,,,,,,,,,,,,,,,,,,,,,,,,,,,,,,,,,
,,566dedbd57f93300112d0ee2,2024-02-19_02h14.11.992,kallum_motion_pilot,2023.2.2,Win32,166.6666667,566dedbd57f93300112d0ee2,65d2b6c8f2eece985d8e374c,65d2b969c21f565b6fcb1047,0.0261,0.0261,0,76,76,92,1,sevenfive,,,,,,,,,,,,,,,,,,,,,,,,,,,,,,,,,,,,,,,,,,,,,,,,,,,,,,,,,,,,,,,,,,,,,,,,,,,,,,,,,,,,,,,,,,,,,,,,,,,,,,,,,,,,,,,,,,,,,,,,,,,,,,,,,,,,,,,,,
,,566dedbd57f93300112d0ee2,2024-02-19_02h14.11.992,kallum_motion_pilot,2023.2.2,Win32,166.6666667,566dedbd57f93300112d0ee2,65d2b6c8f2eece985d8e374c,65d2b969c21f565b6fcb1047,0.0261,0.0261,0,77,77,89,1,fiveseven,,,,,,,,,,,,,,,,,,,,,,,,,,,,,,,,,,,,,,,,,,,,,,,,,,,,,,,,,,,,,,,,,,,,,,,,,,,,,,,,,,,,,,,,,,,,,,,,,,,,,,,,,,,,,,,,,,,,,,,,,,,,,,,,,,,,,,,,,
,,566dedbd57f93300112d0ee2,2024-02-19_02h14.11.992,kallum_motion_pilot,2023.2.2,Win32,166.6666667,566dedbd57f93300112d0ee2,65d2b6c8f2eece985d8e374c,65d2b969c21f565b6fcb1047,0.0262,0.0263,0,78,78,93,1,seveneight,,,,,,,,,,,,,,,,,,,,,,,,,,,,,,,,,,,,,,,,,,,,,,,,,,,,,,,,,,,,,,,,,,,,,,,,,,,,,,,,,,,,,,,,,,,,,,,,,,,,,,,,,,,,,,,,,,,,,,,,,,,,,,,,,,,,,,,,,
,,566dedbd57f93300112d0ee2,2024-02-19_02h14.11.992,kallum_motion_pilot,2023.2.2,Win32,166.6666667,566dedbd57f93300112d0ee2,65d2b6c8f2eece985d8e374c,65d2b969c21f565b6fcb1047,0.0263,0.0263,0,79,79,146,1,sixfive,,,,,,,,,,,,,,,,,,,,,,,,,,,,,,,,,,,,,,,,,,,,,,,,,,,,,,,,,,,,,,,,,,,,,,,,,,,,,,,,,,,,,,,,,,,,,,,,,,,,,,,,,,,,,,,,,,,,,,,,,,,,,,,,,,,,,,,,,
,,566dedbd57f93300112d0ee2,2024-02-19_02h14.11.992,kallum_motion_pilot,2023.2.2,Win32,166.6666667,566dedbd57f93300112d0ee2,65d2b6c8f2eece985d8e374c,65d2b969c21f565b6fcb1047,0.0263,0.0263,0,80,80,58,1,twoone,,,,,,,,,,,,,,,,,,,,,,,,,,,,,,,,,,,,,,,,,,,,,,,,,,,,,,,,,,,,,,,,,,,,,,,,,,,,,,,,,,,,,,,,,,,,,,,,,,,,,,,,,,,,,,,,,,,,,,,,,,,,,,,,,,,,,,,,,
,,566dedbd57f93300112d0ee2,2024-02-19_02h14.11.992,kallum_motion_pilot,2023.2.2,Win32,166.6666667,566dedbd57f93300112d0ee2,65d2b6c8f2eece985d8e374c,65d2b969c21f565b6fcb1047,0.0264,0.0264,0,81,81,67,1,twofour,,,,,,,,,,,,,,,,,,,,,,,,,,,,,,,,,,,,,,,,,,,,,,,,,,,,,,,,,,,,,,,,,,,,,,,,,,,,,,,,,,,,,,,,,,,,,,,,,,,,,,,,,,,,,,,,,,,,,,,,,,,,,,,,,,,,,,,,,
,,566dedbd57f93300112d0ee2,2024-02-19_02h14.11.992,kallum_motion_pilot,2023.2.2,Win32,166.6666667,566dedbd57f93300112d0ee2,65d2b6c8f2eece985d8e374c,65d2b969c21f565b6fcb1047,0.0264,0.0265,0,82,82,150,1,eightsix,,,,,,,,,,,,,,,,,,,,,,,,,,,,,,,,,,,,,,,,,,,,,,,,,,,,,,,,,,,,,,,,,,,,,,,,,,,,,,,,,,,,,,,,,,,,,,,,,,,,,,,,,,,,,,,,,,,,,,,,,,,,,,,,,,,,,,,,,
,,566dedbd57f93300112d0ee2,2024-02-19_02h14.11.992,kallum_motion_pilot,2023.2.2,Win32,166.6666667,566dedbd57f93300112d0ee2,65d2b6c8f2eece985d8e374c,65d2b969c21f565b6fcb1047,0.0266,0.0266,0,83,83,125,1,seveneight,,,,,,,,,,,,,,,,,,,,,,,,,,,,,,,,,,,,,,,,,,,,,,,,,,,,,,,,,,,,,,,,,,,,,,,,,,,,,,,,,,,,,,,,,,,,,,,,,,,,,,,,,,,,,,,,,,,,,,,,,,,,,,,,,,,,,,,,,
,,566dedbd57f93300112d0ee2,2024-02-19_02h14.11.992,kallum_motion_pilot,2023.2.2,Win32,166.6666667,566dedbd57f93300112d0ee2,65d2b6c8f2eece985d8e374c,65d2b969c21f565b6fcb1047,0.0267,0.0267,0,84,84,45,1,threefour,,,,,,,,,,,,,,,,,,,,,,,,,,,,,,,,,,,,,,,,,,,,,,,,,,,,,,,,,,,,,,,,,,,,,,,,,,,,,,,,,,,,,,,,,,,,,,,,,,,,,,,,,,,,,,,,,,,,,,,,,,,,,,,,,,,,,,,,,
,,566dedbd57f93300112d0ee2,2024-02-19_02h14.11.992,kallum_motion_pilot,2023.2.2,Win32,166.6666667,566dedbd57f93300112d0ee2,65d2b6c8f2eece985d8e374c,65d2b969c21f565b6fcb1047,0.0267,0.0267,0,85,85,29,1,threefour,,,,,,,,,,,,,,,,,,,,,,,,,,,,,,,,,,,,,,,,,,,,,,,,,,,,,,,,,,,,,,,,,,,,,,,,,,,,,,,,,,,,,,,,,,,,,,,,,,,,,,,,,,,,,,,,,,,,,,,,,,,,,,,,,,,,,,,,,
,,566dedbd57f93300112d0ee2,2024-02-19_02h14.11.992,kallum_motion_pilot,2023.2.2,Win32,166.6666667,566dedbd57f93300112d0ee2,65d2b6c8f2eece985d8e374c,65d2b969c21f565b6fcb1047,0.0268,0.0268,0,86,86,138,1,sixfive,,,,,,,,,,,,,,,,,,,,,,,,,,,,,,,,,,,,,,,,,,,,,,,,,,,,,,,,,,,,,,,,,,,,,,,,,,,,,,,,,,,,,,,,,,,,,,,,,,,,,,,,,,,,,,,,,,,,,,,,,,,,,,,,,,,,,,,,,
,,566dedbd57f93300112d0ee2,2024-02-19_02h14.11.992,kallum_motion_pilot,2023.2.2,Win32,166.6666667,566dedbd57f93300112d0ee2,65d2b6c8f2eece985d8e374c,65d2b969c21f565b6fcb1047,0.0268,0.0269,0,87,87,109,1,seveneight,,,,,,,,,,,,,,,,,,,,,,,,,,,,,,,,,,,,,,,,,,,,,,,,,,,,,,,,,,,,,,,,,,,,,,,,,,,,,,,,,,,,,,,,,,,,,,,,,,,,,,,,,,,,,,,,,,,,,,,,,,,,,,,,,,,,,,,,,
,,566dedbd57f93300112d0ee2,2024-02-19_02h14.11.992,kallum_motion_pilot,2023.2.2,Win32,166.6666667,566dedbd57f93300112d0ee2,65d2b6c8f2eece985d8e374c,65d2b969c21f565b6fcb1047,0.027,0.027,0,88,88,80,1,fivesix,,,,,,,,,,,,,,,,,,,,,,,,,,,,,,,,,,,,,,,,,,,,,,,,,,,,,,,,,,,,,,,,,,,,,,,,,,,,,,,,,,,,,,,,,,,,,,,,,,,,,,,,,,,,,,,,,,,,,,,,,,,,,,,,,,,,,,,,,
,,566dedbd57f93300112d0ee2,2024-02-19_02h14.11.992,kallum_motion_pilot,2023.2.2,Win32,166.6666667,566dedbd57f93300112d0ee2,65d2b6c8f2eece985d8e374c,65d2b969c21f565b6fcb1047,0.0271,0.0271,0,89,89,78,1,fourtwo,,,,,,,,,,,,,,,,,,,,,,,,,,,,,,,,,,,,,,,,,,,,,,,,,,,,,,,,,,,,,,,,,,,,,,,,,,,,,,,,,,,,,,,,,,,,,,,,,,,,,,,,,,,,,,,,,,,,,,,,,,,,,,,,,,,,,,,,,
,,566dedbd57f93300112d0ee2,2024-02-19_02h14.11.992,kallum_motion_pilot,2023.2.2,Win32,166.6666667,566dedbd57f93300112d0ee2,65d2b6c8f2eece985d8e374c,65d2b969c21f565b6fcb1047,0.0272,0.0272,0,90,90,22,1,fourtwo,,,,,,,,,,,,,,,,,,,,,,,,,,,,,,,,,,,,,,,,,,,,,,,,,,,,,,,,,,,,,,,,,,,,,,,,,,,,,,,,,,,,,,,,,,,,,,,,,,,,,,,,,,,,,,,,,,,,,,,,,,,,,,,,,,,,,,,,,
,,566dedbd57f93300112d0ee2,2024-02-19_02h14.11.992,kallum_motion_pilot,2023.2.2,Win32,166.6666667,566dedbd57f93300112d0ee2,65d2b6c8f2eece985d8e374c,65d2b969c21f565b6fcb1047,0.0272,0.0273,0,91,91,94,1,eightsix,,,,,,,,,,,,,,,,,,,,,,,,,,,,,,,,,,,,,,,,,,,,,,,,,,,,,,,,,,,,,,,,,,,,,,,,,,,,,,,,,,,,,,,,,,,,,,,,,,,,,,,,,,,,,,,,,,,,,,,,,,,,,,,,,,,,,,,,,
,,566dedbd57f93300112d0ee2,2024-02-19_02h14.11.992,kallum_motion_pilot,2023.2.2,Win32,166.6666667,566dedbd57f93300112d0ee2,65d2b6c8f2eece985d8e374c,65d2b969c21f565b6fcb1047,0.0274,0.0274,0,92,92,21,1,threefour,,,,,,,,,,,,,,,,,,,,,,,,,,,,,,,,,,,,,,,,,,,,,,,,,,,,,,,,,,,,,,,,,,,,,,,,,,,,,,,,,,,,,,,,,,,,,,,,,,,,,,,,,,,,,,,,,,,,,,,,,,,,,,,,,,,,,,,,,
,,566dedbd57f93300112d0ee2,2024-02-19_02h14.11.992,kallum_motion_pilot,2023.2.2,Win32,166.6666667,566dedbd57f93300112d0ee2,65d2b6c8f2eece985d8e374c,65d2b969c21f565b6fcb1047,0.0274,0.0274,0,93,93,76,1,threeone,,,,,,,,,,,,,,,,,,,,,,,,,,,,,,,,,,,,,,,,,,,,,,,,,,,,,,,,,,,,,,,,,,,,,,,,,,,,,,,,,,,,,,,,,,,,,,,,,,,,,,,,,,,,,,,,,,,,,,,,,,,,,,,,,,,,,,,,,
,,566dedbd57f93300112d0ee2,2024-02-19_02h14.11.992,kallum_motion_pilot,2023.2.2,Win32,166.6666667,566dedbd57f93300112d0ee2,65d2b6c8f2eece985d8e374c,65d2b969c21f565b6fcb1047,0.0276,0.0276,0,94,94,37,1,threefour,,,,,,,,,,,,,,,,,,,,,,,,,,,,,,,,,,,,,,,,,,,,,,,,,,,,,,,,,,,,,,,,,,,,,,,,,,,,,,,,,,,,,,,,,,,,,,,,,,,,,,,,,,,,,,,,,,,,,,,,,,,,,,,,,,,,,,,,,
,,566dedbd57f93300112d0ee2,2024-02-19_02h14.11.992,kallum_motion_pilot,2023.2.2,Win32,166.6666667,566dedbd57f93300112d0ee2,65d2b6c8f2eece985d8e374c,65d2b969c21f565b6fcb1047,0.0277,0.0277,0,95,95,17,1,onethree,,,,,,,,,,,,,,,,,,,,,,,,,,,,,,,,,,,,,,,,,,,,,,,,,,,,,,,,,,,,,,,,,,,,,,,,,,,,,,,,,,,,,,,,,,,,,,,,,,,,,,,,,,,,,,,,,,,,,,,,,,,,,,,,,,,,,,,,,
,,566dedbd57f93300112d0ee2,2024-02-19_02h14.11.992,kallum_motion_pilot,2023.2.2,Win32,166.6666667,566dedbd57f93300112d0ee2,65d2b6c8f2eece985d8e374c,65d2b969c21f565b6fcb1047,0.0277,0.0278,0,96,96,83,1,sixeight,,,,,,,,,,,,,,,,,,,,,,,,,,,,,,,,,,,,,,,,,,,,,,,,,,,,,,,,,,,,,,,,,,,,,,,,,,,,,,,,,,,,,,,,,,,,,,,,,,,,,,,,,,,,,,,,,,,,,,,,,,,,,,,,,,,,,,,,,
,,566dedbd57f93300112d0ee2,2024-02-19_02h14.11.992,kallum_motion_pilot,2023.2.2,Win32,166.6666667,566dedbd57f93300112d0ee2,65d2b6c8f2eece985d8e374c,65d2b969c21f565b6fcb1047,0.0278,0.0279,0,97,97,72,1,onetwo,,,,,,,,,,,,,,,,,,,,,,,,,,,,,,,,,,,,,,,,,,,,,,,,,,,,,,,,,,,,,,,,,,,,,,,,,,,,,,,,,,,,,,,,,,,,,,,,,,,,,,,,,,,,,,,,,,,,,,,,,,,,,,,,,,,,,,,,,
,,566dedbd57f93300112d0ee2,2024-02-19_02h14.11.992,kallum_motion_pilot,2023.2.2,Win32,166.6666667,566dedbd57f93300112d0ee2,65d2b6c8f2eece985d8e374c,65d2b969c21f565b6fcb1047,0.0279,0.0279,0,98,98,9,1,onethree,,,,,,,,,,,,,,,,,,,,,,,,,,,,,,,,,,,,,,,,,,,,,,,,,,,,,,,,,,,,,,,,,,,,,,,,,,,,,,,,,,,,,,,,,,,,,,,,,,,,,,,,,,,,,,,,,,,,,,,,,,,,,,,,,,,,,,,,,
,,566dedbd57f93300112d0ee2,2024-02-19_02h14.11.992,kallum_motion_pilot,2023.2.2,Win32,166.6666667,566dedbd57f93300112d0ee2,65d2b6c8f2eece985d8e374c,65d2b969c21f565b6fcb1047,0.028,0.0281,0,99,99,95,1,eightseven,,,,,,,,,,,,,,,,,,,,,,,,,,,,,,,,,,,,,,,,,,,,,,,,,,,,,,,,,,,,,,,,,,,,,,,,,,,,,,,,,,,,,,,,,,,,,,,,,,,,,,,,,,,,,,,,,,,,,,,,,,,,,,,,,,,,,,,,,
,,566dedbd57f93300112d0ee2,2024-02-19_02h14.11.992,kallum_motion_pilot,2023.2.2,Win32,166.6666667,566dedbd57f93300112d0ee2,65d2b6c8f2eece985d8e374c,65d2b969c21f565b6fcb1047,0.0281,0.0281,0,100,100,35,1,twofour,,,,,,,,,,,,,,,,,,,,,,,,,,,,,,,,,,,,,,,,,,,,,,,,,,,,,,,,,,,,,,,,,,,,,,,,,,,,,,,,,,,,,,,,,,,,,,,,,,,,,,,,,,,,,,,,,,,,,,,,,,,,,,,,,,,,,,,,,
,,566dedbd57f93300112d0ee2,2024-02-19_02h14.11.992,kallum_motion_pilot,2023.2.2,Win32,166.6666667,566dedbd57f93300112d0ee2,65d2b6c8f2eece985d8e374c,65d2b969c21f565b6fcb1047,0.0283,0.0283,0,101,101,25,1,onethree,,,,,,,,,,,,,,,,,,,,,,,,,,,,,,,,,,,,,,,,,,,,,,,,,,,,,,,,,,,,,,,,,,,,,,,,,,,,,,,,,,,,,,,,,,,,,,,,,,,,,,,,,,,,,,,,,,,,,,,,,,,,,,,,,,,,,,,,,
,,566dedbd57f93300112d0ee2,2024-02-19_02h14.11.992,kallum_motion_pilot,2023.2.2,Win32,166.6666667,566dedbd57f93300112d0ee2,65d2b6c8f2eece985d8e374c,65d2b969c21f565b6fcb1047,0.0284,0.0284,0,102,102,114,1,sixfive,,,,,,,,,,,,,,,,,,,,,,,,,,,,,,,,,,,,,,,,,,,,,,,,,,,,,,,,,,,,,,,,,,,,,,,,,,,,,,,,,,,,,,,,,,,,,,,,,,,,,,,,,,,,,,,,,,,,,,,,,,,,,,,,,,,,,,,,,
,,566dedbd57f93300112d0ee2,2024-02-19_02h14.11.992,kallum_motion_pilot,2023.2.2,Win32,166.6666667,566dedbd57f93300112d0ee2,65d2b6c8f2eece985d8e374c,65d2b969c21f565b6fcb1047,0.0285,0.0285,0,103,103,64,1,onetwo,,,,,,,,,,,,,,,,,,,,,,,,,,,,,,,,,,,,,,,,,,,,,,,,,,,,,,,,,,,,,,,,,,,,,,,,,,,,,,,,,,,,,,,,,,,,,,,,,,,,,,,,,,,,,,,,,,,,,,,,,,,,,,,,,,,,,,,,,
,,566dedbd57f93300112d0ee2,2024-02-19_02h14.11.992,kallum_motion_pilot,2023.2.2,Win32,166.6666667,566dedbd57f93300112d0ee2,65d2b6c8f2eece985d8e374c,65d2b969c21f565b6fcb1047,0.0286,0.0286,0,104,104,131,1,sixeight,,,,,,,,,,,,,,,,,,,,,,,,,,,,,,,,,,,,,,,,,,,,,,,,,,,,,,,,,,,,,,,,,,,,,,,,,,,,,,,,,,,,,,,,,,,,,,,,,,,,,,,,,,,,,,,,,,,,,,,,,,,,,,,,,,,,,,,,,
,,566dedbd57f93300112d0ee2,2024-02-19_02h14.11.992,kallum_motion_pilot,2023.2.2,Win32,166.6666667,566dedbd57f93300112d0ee2,65d2b6c8f2eece985d8e374c,65d2b969c21f565b6fcb1047,0.0287,0.0288,0,105,105,91,1,sixeight,,,,,,,,,,,,,,,,,,,,,,,,,,,,,,,,,,,,,,,,,,,,,,,,,,,,,,,,,,,,,,,,,,,,,,,,,,,,,,,,,,,,,,,,,,,,,,,,,,,,,,,,,,,,,,,,,,,,,,,,,,,,,,,,,,,,,,,,,
,,566dedbd57f93300112d0ee2,2024-02-19_02h14.11.992,kallum_motion_pilot,2023.2.2,Win32,166.6666667,566dedbd57f93300112d0ee2,65d2b6c8f2eece985d8e374c,65d2b969c21f565b6fcb1047,0.0288,0.0289,0,106,106,48,1,onetwo,,,,,,,,,,,,,,,,,,,,,,,,,,,,,,,,,,,,,,,,,,,,,,,,,,,,,,,,,,,,,,,,,,,,,,,,,,,,,,,,,,,,,,,,,,,,,,,,,,,,,,,,,,,,,,,,,,,,,,,,,,,,,,,,,,,,,,,,,
,,566dedbd57f93300112d0ee2,2024-02-19_02h14.11.992,kallum_motion_pilot,2023.2.2,Win32,166.6666667,566dedbd57f93300112d0ee2,65d2b6c8f2eece985d8e374c,65d2b969c21f565b6fcb1047,0.0289,0.029,0,107,107,133,1,seveneight,,,,,,,,,,,,,,,,,,,,,,,,,,,,,,,,,,,,,,,,,,,,,,,,,,,,,,,,,,,,,,,,,,,,,,,,,,,,,,,,,,,,,,,,,,,,,,,,,,,,,,,,,,,,,,,,,,,,,,,,,,,,,,,,,,,,,,,,,
,,566dedbd57f93300112d0ee2,2024-02-19_02h14.11.992,kallum_motion_pilot,2023.2.2,Win32,166.6666667,566dedbd57f93300112d0ee2,65d2b6c8f2eece985d8e374c,65d2b969c21f565b6fcb1047,0.0291,0.0291,0,108,108,107,1,sixeight,,,,,,,,,,,,,,,,,,,,,,,,,,,,,,,,,,,,,,,,,,,,,,,,,,,,,,,,,,,,,,,,,,,,,,,,,,,,,,,,,,,,,,,,,,,,,,,,,,,,,,,,,,,,,,,,,,,,,,,,,,,,,,,,,,,,,,,,,
,,566dedbd57f93300112d0ee2,2024-02-19_02h14.11.992,kallum_motion_pilot,2023.2.2,Win32,166.6666667,566dedbd57f93300112d0ee2,65d2b6c8f2eece985d8e374c,65d2b969c21f565b6fcb1047,0.0291,0.0292,0,109,109,124,1,sevenfive,,,,,,,,,,,,,,,,,,,,,,,,,,,,,,,,,,,,,,,,,,,,,,,,,,,,,,,,,,,,,,,,,,,,,,,,,,,,,,,,,,,,,,,,,,,,,,,,,,,,,,,,,,,,,,,,,,,,,,,,,,,,,,,,,,,,,,,,,
,,566dedbd57f93300112d0ee2,2024-02-19_02h14.11.992,kallum_motion_pilot,2023.2.2,Win32,166.6666667,566dedbd57f93300112d0ee2,65d2b6c8f2eece985d8e374c,65d2b969c21f565b6fcb1047,0.0293,0.0293,0,110,110,136,1,fivesix,,,,,,,,,,,,,,,,,,,,,,,,,,,,,,,,,,,,,,,,,,,,,,,,,,,,,,,,,,,,,,,,,,,,,,,,,,,,,,,,,,,,,,,,,,,,,,,,,,,,,,,,,,,,,,,,,,,,,,,,,,,,,,,,,,,,,,,,,
,,566dedbd57f93300112d0ee2,2024-02-19_02h14.11.992,kallum_motion_pilot,2023.2.2,Win32,166.6666667,566dedbd57f93300112d0ee2,65d2b6c8f2eece985d8e374c,65d2b969c21f565b6fcb1047,0.0293,0.0294,0,111,111,155,1,sixeight,,,,,,,,,,,,,,,,,,,,,,,,,,,,,,,,,,,,,,,,,,,,,,,,,,,,,,,,,,,,,,,,,,,,,,,,,,,,,,,,,,,,,,,,,,,,,,,,,,,,,,,,,,,,,,,,,,,,,,,,,,,,,,,,,,,,,,,,,
,,566dedbd57f93300112d0ee2,2024-02-19_02h14.11.992,kallum_motion_pilot,2023.2.2,Win32,166.6666667,566dedbd57f93300112d0ee2,65d2b6c8f2eece985d8e374c,65d2b969c21f565b6fcb1047,0.0295,0.0295,0,112,112,106,1,sixfive,,,,,,,,,,,,,,,,,,,,,,,,,,,,,,,,,,,,,,,,,,,,,,,,,,,,,,,,,,,,,,,,,,,,,,,,,,,,,,,,,,,,,,,,,,,,,,,,,,,,,,,,,,,,,,,,,,,,,,,,,,,,,,,,,,,,,,,,,
,,566dedbd57f93300112d0ee2,2024-02-19_02h14.11.992,kallum_motion_pilot,2023.2.2,Win32,166.6666667,566dedbd57f93300112d0ee2,65d2b6c8f2eece985d8e374c,65d2b969c21f565b6fcb1047,0.0295,0.0296,0,113,113,74,1,twoone,,,,,,,,,,,,,,,,,,,,,,,,,,,,,,,,,,,,,,,,,,,,,,,,,,,,,,,,,,,,,,,,,,,,,,,,,,,,,,,,,,,,,,,,,,,,,,,,,,,,,,,,,,,,,,,,,,,,,,,,,,,,,,,,,,,,,,,,,
,,566dedbd57f93300112d0ee2,2024-02-19_02h14.11.992,kallum_motion_pilot,2023.2.2,Win32,166.6666667,566dedbd57f93300112d0ee2,65d2b6c8f2eece985d8e374c,65d2b969c21f565b6fcb1047,0.0296,0.0297,0,114,114,26,1,twoone,,,,,,,,,,,,,,,,,,,,,,,,,,,,,,,,,,,,,,,,,,,,,,,,,,,,,,,,,,,,,,,,,,,,,,,,,,,,,,,,,,,,,,,,,,,,,,,,,,,,,,,,,,,,,,,,,,,,,,,,,,,,,,,,,,,,,,,,,
,,566dedbd57f93300112d0ee2,2024-02-19_02h14.11.992,kallum_motion_pilot,2023.2.2,Win32,166.6666667,566dedbd57f93300112d0ee2,65d2b6c8f2eece985d8e374c,65d2b969c21f565b6fcb1047,0.0298,0.0298,0,115,115,41,1,onethree,,,,,,,,,,,,,,,,,,,,,,,,,,,,,,,,,,,,,,,,,,,,,,,,,,,,,,,,,,,,,,,,,,,,,,,,,,,,,,,,,,,,,,,,,,,,,,,,,,,,,,,,,,,,,,,,,,,,,,,,,,,,,,,,,,,,,,,,,
,,566dedbd57f93300112d0ee2,2024-02-19_02h14.11.992,kallum_motion_pilot,2023.2.2,Win32,166.6666667,566dedbd57f93300112d0ee2,65d2b6c8f2eece985d8e374c,65d2b969c21f565b6fcb1047,0.0298,0.0298,0,116,116,147,1,sixeight,,,,,,,,,,,,,,,,,,,,,,,,,,,,,,,,,,,,,,,,,,,,,,,,,,,,,,,,,,,,,,,,,,,,,,,,,,,,,,,,,,,,,,,,,,,,,,,,,,,,,,,,,,,,,,,,,,,,,,,,,,,,,,,,,,,,,,,,,
,,566dedbd57f93300112d0ee2,2024-02-19_02h14.11.992,kallum_motion_pilot,2023.2.2,Win32,166.6666667,566dedbd57f93300112d0ee2,65d2b6c8f2eece985d8e374c,65d2b969c21f565b6fcb1047,0.0299,0.03,0,117,117,99,1,sixeight,,,,,,,,,,,,,,,,,,,,,,,,,,,,,,,,,,,,,,,,,,,,,,,,,,,,,,,,,,,,,,,,,,,,,,,,,,,,,,,,,,,,,,,,,,,,,,,,,,,,,,,,,,,,,,,,,,,,,,,,,,,,,,,,,,,,,,,,,
,,566dedbd57f93300112d0ee2,2024-02-19_02h14.11.992,kallum_motion_pilot,2023.2.2,Win32,166.6666667,566dedbd57f93300112d0ee2,65d2b6c8f2eece985d8e374c,65d2b969c21f565b6fcb1047,0.03,0.03,0,118,118,123,1,sixeight,,,,,,,,,,,,,,,,,,,,,,,,,,,,,,,,,,,,,,,,,,,,,,,,,,,,,,,,,,,,,,,,,,,,,,,,,,,,,,,,,,,,,,,,,,,,,,,,,,,,,,,,,,,,,,,,,,,,,,,,,,,,,,,,,,,,,,,,,
,,566dedbd57f93300112d0ee2,2024-02-19_02h14.11.992,kallum_motion_pilot,2023.2.2,Win32,166.6666667,566dedbd57f93300112d0ee2,65d2b6c8f2eece985d8e374c,65d2b969c21f565b6fcb1047,0.0325,0.0325,0,119,119,24,1,onetwo,,,,,,,,,,,,,,,,,,,,,,,,,,,,,,,,,,,,,,,,,,,,,,,,,,,,,,,,,,,,,,,,,,,,,,,,,,,,,,,,,,,,,,,,,,,,,,,,,,,,,,,,,,,,,,,,,,,,,,,,,,,,,,,,,,,,,,,,,
,,566dedbd57f93300112d0ee2,2024-02-19_02h14.11.992,kallum_motion_pilot,2023.2.2,Win32,166.6666667,566dedbd57f93300112d0ee2,65d2b6c8f2eece985d8e374c,65d2b969c21f565b6fcb1047,0.0327,0.0327,0,120,120,108,1,sevenfive,,,,,,,,,,,,,,,,,,,,,,,,,,,,,,,,,,,,,,,,,,,,,,,,,,,,,,,,,,,,,,,,,,,,,,,,,,,,,,,,,,,,,,,,,,,,,,,,,,,,,,,,,,,,,,,,,,,,,,,,,,,,,,,,,,,,,,,,,
,,566dedbd57f93300112d0ee2,2024-02-19_02h14.11.992,kallum_motion_pilot,2023.2.2,Win32,166.6666667,566dedbd57f93300112d0ee2,65d2b6c8f2eece985d8e374c,65d2b969c21f565b6fcb1047,0.0327,0.0327,0,121,121,100,1,sevenfive,,,,,,,,,,,,,,,,,,,,,,,,,,,,,,,,,,,,,,,,,,,,,,,,,,,,,,,,,,,,,,,,,,,,,,,,,,,,,,,,,,,,,,,,,,,,,,,,,,,,,,,,,,,,,,,,,,,,,,,,,,,,,,,,,,,,,,,,,
,,566dedbd57f93300112d0ee2,2024-02-19_02h14.11.992,kallum_motion_pilot,2023.2.2,Win32,166.6666667,566dedbd57f93300112d0ee2,65d2b6c8f2eece985d8e374c,65d2b969c21f565b6fcb1047,0.0328,0.0328,0,122,122,140,1,sevenfive,,,,,,,,,,,,,,,,,,,,,,,,,,,,,,,,,,,,,,,,,,,,,,,,,,,,,,,,,,,,,,,,,,,,,,,,,,,,,,,,,,,,,,,,,,,,,,,,,,,,,,,,,,,,,,,,,,,,,,,,,,,,,,,,,,,,,,,,,
,,566dedbd57f93300112d0ee2,2024-02-19_02h14.11.992,kallum_motion_pilot,2023.2.2,Win32,166.6666667,566dedbd57f93300112d0ee2,65d2b6c8f2eece985d8e374c,65d2b969c21f565b6fcb1047,0.0329,0.0329,0,123,123,77,1,threefour,,,,,,,,,,,,,,,,,,,,,,,,,,,,,,,,,,,,,,,,,,,,,,,,,,,,,,,,,,,,,,,,,,,,,,,,,,,,,,,,,,,,,,,,,,,,,,,,,,,,,,,,,,,,,,,,,,,,,,,,,,,,,,,,,,,,,,,,,
,,566dedbd57f93300112d0ee2,2024-02-19_02h14.11.992,kallum_motion_pilot,2023.2.2,Win32,166.6666667,566dedbd57f93300112d0ee2,65d2b6c8f2eece985d8e374c,65d2b969c21f565b6fcb1047,0.0329,0.0329,0,124,124,116,1,sevenfive,,,,,,,,,,,,,,,,,,,,,,,,,,,,,,,,,,,,,,,,,,,,,,,,,,,,,,,,,,,,,,,,,,,,,,,,,,,,,,,,,,,,,,,,,,,,,,,,,,,,,,,,,,,,,,,,,,,,,,,,,,,,,,,,,,,,,,,,,
,,566dedbd57f93300112d0ee2,2024-02-19_02h14.11.992,kallum_motion_pilot,2023.2.2,Win32,166.6666667,566dedbd57f93300112d0ee2,65d2b6c8f2eece985d8e374c,65d2b969c21f565b6fcb1047,0.033,0.033,0,125,125,51,1,twofour,,,,,,,,,,,,,,,,,,,,,,,,,,,,,,,,,,,,,,,,,,,,,,,,,,,,,,,,,,,,,,,,,,,,,,,,,,,,,,,,,,,,,,,,,,,,,,,,,,,,,,,,,,,,,,,,,,,,,,,,,,,,,,,,,,,,,,,,,
,,566dedbd57f93300112d0ee2,2024-02-19_02h14.11.992,kallum_motion_pilot,2023.2.2,Win32,166.6666667,566dedbd57f93300112d0ee2,65d2b6c8f2eece985d8e374c,65d2b969c21f565b6fcb1047,0.033,0.0331,0,126,126,44,1,threeone,,,,,,,,,,,,,,,,,,,,,,,,,,,,,,,,,,,,,,,,,,,,,,,,,,,,,,,,,,,,,,,,,,,,,,,,,,,,,,,,,,,,,,,,,,,,,,,,,,,,,,,,,,,,,,,,,,,,,,,,,,,,,,,,,,,,,,,,,
,,566dedbd57f93300112d0ee2,2024-02-19_02h14.11.992,kallum_motion_pilot,2023.2.2,Win32,166.6666667,566dedbd57f93300112d0ee2,65d2b6c8f2eece985d8e374c,65d2b969c21f565b6fcb1047,0.0331,0.0331,0,127,127,129,1,fiveseven,,,,,,,,,,,,,,,,,,,,,,,,,,,,,,,,,,,,,,,,,,,,,,,,,,,,,,,,,,,,,,,,,,,,,,,,,,,,,,,,,,,,,,,,,,,,,,,,,,,,,,,,,,,,,,,,,,,,,,,,,,,,,,,,,,,,,,,,,
,,566dedbd57f93300112d0ee2,2024-02-19_02h14.11.992,kallum_motion_pilot,2023.2.2,Win32,166.6666667,566dedbd57f93300112d0ee2,65d2b6c8f2eece985d8e374c,65d2b969c21f565b6fcb1047,0.0331,0.0332,0,128,128,55,1,fourthree,,,,,,,,,,,,,,,,,,,,,,,,,,,,,,,,,,,,,,,,,,,,,,,,,,,,,,,,,,,,,,,,,,,,,,,,,,,,,,,,,,,,,,,,,,,,,,,,,,,,,,,,,,,,,,,,,,,,,,,,,,,,,,,,,,,,,,,,,
,,566dedbd57f93300112d0ee2,2024-02-19_02h14.11.992,kallum_motion_pilot,2023.2.2,Win32,166.6666667,566dedbd57f93300112d0ee2,65d2b6c8f2eece985d8e374c,65d2b969c21f565b6fcb1047,0.0334,0.0334,0,129,129,68,1,threeone,,,,,,,,,,,,,,,,,,,,,,,,,,,,,,,,,,,,,,,,,,,,,,,,,,,,,,,,,,,,,,,,,,,,,,,,,,,,,,,,,,,,,,,,,,,,,,,,,,,,,,,,,,,,,,,,,,,,,,,,,,,,,,,,,,,,,,,,,
,,566dedbd57f93300112d0ee2,2024-02-19_02h14.11.992,kallum_motion_pilot,2023.2.2,Win32,166.6666667,566dedbd57f93300112d0ee2,65d2b6c8f2eece985d8e374c,65d2b969c21f565b6fcb1047,0.0334,0.0335,0,130,130,28,1,threeone,,,,,,,,,,,,,,,,,,,,,,,,,,,,,,,,,,,,,,,,,,,,,,,,,,,,,,,,,,,,,,,,,,,,,,,,,,,,,,,,,,,,,,,,,,,,,,,,,,,,,,,,,,,,,,,,,,,,,,,,,,,,,,,,,,,,,,,,,
,,566dedbd57f93300112d0ee2,2024-02-19_02h14.11.992,kallum_motion_pilot,2023.2.2,Win32,166.6666667,566dedbd57f93300112d0ee2,65d2b6c8f2eece985d8e374c,65d2b969c21f565b6fcb1047,0.0335,0.0335,0,131,131,132,1,sevenfive,,,,,,,,,,,,,,,,,,,,,,,,,,,,,,,,,,,,,,,,,,,,,,,,,,,,,,,,,,,,,,,,,,,,,,,,,,,,,,,,,,,,,,,,,,,,,,,,,,,,,,,,,,,,,,,,,,,,,,,,,,,,,,,,,,,,,,,,,
,,566dedbd57f93300112d0ee2,2024-02-19_02h14.11.992,kallum_motion_pilot,2023.2.2,Win32,166.6666667,566dedbd57f93300112d0ee2,65d2b6c8f2eece985d8e374c,65d2b969c21f565b6fcb1047,0.0336,0.0336,0,132,132,113,1,fiveseven,,,,,,,,,,,,,,,,,,,,,,,,,,,,,,,,,,,,,,,,,,,,,,,,,,,,,,,,,,,,,,,,,,,,,,,,,,,,,,,,,,,,,,,,,,,,,,,,,,,,,,,,,,,,,,,,,,,,,,,,,,,,,,,,,,,,,,,,,
,,566dedbd57f93300112d0ee2,2024-02-19_02h14.11.992,kallum_motion_pilot,2023.2.2,Win32,166.6666667,566dedbd57f93300112d0ee2,65d2b6c8f2eece985d8e374c,65d2b969c21f565b6fcb1047,0.0336,0.0336,0,133,133,84,1,sevenfive,,,,,,,,,,,,,,,,,,,,,,,,,,,,,,,,,,,,,,,,,,,,,,,,,,,,,,,,,,,,,,,,,,,,,,,,,,,,,,,,,,,,,,,,,,,,,,,,,,,,,,,,,,,,,,,,,,,,,,,,,,,,,,,,,,,,,,,,,
,,566dedbd57f93300112d0ee2,2024-02-19_02h14.11.992,kallum_motion_pilot,2023.2.2,Win32,166.6666667,566dedbd57f93300112d0ee2,65d2b6c8f2eece985d8e374c,65d2b969c21f565b6fcb1047,0.0337,0.0337,0,134,134,70,1,fourtwo,,,,,,,,,,,,,,,,,,,,,,,,,,,,,,,,,,,,,,,,,,,,,,,,,,,,,,,,,,,,,,,,,,,,,,,,,,,,,,,,,,,,,,,,,,,,,,,,,,,,,,,,,,,,,,,,,,,,,,,,,,,,,,,,,,,,,,,,,
,,566dedbd57f93300112d0ee2,2024-02-19_02h14.11.992,kallum_motion_pilot,2023.2.2,Win32,166.6666667,566dedbd57f93300112d0ee2,65d2b6c8f2eece985d8e374c,65d2b969c21f565b6fcb1047,0.0337,0.0338,0,135,135,4,1,threeone,,,,,,,,,,,,,,,,,,,,,,,,,,,,,,,,,,,,,,,,,,,,,,,,,,,,,,,,,,,,,,,,,,,,,,,,,,,,,,,,,,,,,,,,,,,,,,,,,,,,,,,,,,,,,,,,,,,,,,,,,,,,,,,,,,,,,,,,,
,,566dedbd57f93300112d0ee2,2024-02-19_02h14.11.992,kallum_motion_pilot,2023.2.2,Win32,166.6666667,566dedbd57f93300112d0ee2,65d2b6c8f2eece985d8e374c,65d2b969c21f565b6fcb1047,0.0338,0.0338,0,136,136,39,1,fourthree,,,,,,,,,,,,,,,,,,,,,,,,,,,,,,,,,,,,,,,,,,,,,,,,,,,,,,,,,,,,,,,,,,,,,,,,,,,,,,,,,,,,,,,,,,,,,,,,,,,,,,,,,,,,,,,,,,,,,,,,,,,,,,,,,,,,,,,,,
,,566dedbd57f93300112d0ee2,2024-02-19_02h14.11.992,kallum_motion_pilot,2023.2.2,Win32,166.6666667,566dedbd57f93300112d0ee2,65d2b6c8f2eece985d8e374c,65d2b969c21f565b6fcb1047,0.0339,0.034,0,137,137,19,1,twofour,,,,,,,,,,,,,,,,,,,,,,,,,,,,,,,,,,,,,,,,,,,,,,,,,,,,,,,,,,,,,,,,,,,,,,,,,,,,,,,,,,,,,,,,,,,,,,,,,,,,,,,,,,,,,,,,,,,,,,,,,,,,,,,,,,,,,,,,,
,,566dedbd57f93300112d0ee2,2024-02-19_02h14.11.992,kallum_motion_pilot,2023.2.2,Win32,166.6666667,566dedbd57f93300112d0ee2,65d2b6c8f2eece985d8e374c,65d2b969c21f565b6fcb1047,0.034,0.034,0,138,138,11,1,twofour,,,,,,,,,,,,,,,,,,,,,,,,,,,,,,,,,,,,,,,,,,,,,,,,,,,,,,,,,,,,,,,,,,,,,,,,,,,,,,,,,,,,,,,,,,,,,,,,,,,,,,,,,,,,,,,,,,,,,,,,,,,,,,,,,,,,,,,,,
,,566dedbd57f93300112d0ee2,2024-02-19_02h14.11.992,kallum_motion_pilot,2023.2.2,Win32,166.6666667,566dedbd57f93300112d0ee2,65d2b6c8f2eece985d8e374c,65d2b969c21f565b6fcb1047,0.034,0.034,0,139,139,57,1,onethree,,,,,,,,,,,,,,,,,,,,,,,,,,,,,,,,,,,,,,,,,,,,,,,,,,,,,,,,,,,,,,,,,,,,,,,,,,,,,,,,,,,,,,,,,,,,,,,,,,,,,,,,,,,,,,,,,,,,,,,,,,,,,,,,,,,,,,,,,
,,566dedbd57f93300112d0ee2,2024-02-19_02h14.11.992,kallum_motion_pilot,2023.2.2,Win32,166.6666667,566dedbd57f93300112d0ee2,65d2b6c8f2eece985d8e374c,65d2b969c21f565b6fcb1047,0.0341,0.0341,0,140,140,117,1,seveneight,,,,,,,,,,,,,,,,,,,,,,,,,,,,,,,,,,,,,,,,,,,,,,,,,,,,,,,,,,,,,,,,,,,,,,,,,,,,,,,,,,,,,,,,,,,,,,,,,,,,,,,,,,,,,,,,,,,,,,,,,,,,,,,,,,,,,,,,,
,,566dedbd57f93300112d0ee2,2024-02-19_02h14.11.992,kallum_motion_pilot,2023.2.2,Win32,166.6666667,566dedbd57f93300112d0ee2,65d2b6c8f2eece985d8e374c,65d2b969c21f565b6fcb1047,0.0341,0.0342,0,141,141,2,1,twoone,,,,,,,,,,,,,,,,,,,,,,,,,,,,,,,,,,,,,,,,,,,,,,,,,,,,,,,,,,,,,,,,,,,,,,,,,,,,,,,,,,,,,,,,,,,,,,,,,,,,,,,,,,,,,,,,,,,,,,,,,,,,,,,,,,,,,,,,,
,,566dedbd57f93300112d0ee2,2024-02-19_02h14.11.992,kallum_motion_pilot,2023.2.2,Win32,166.6666667,566dedbd57f93300112d0ee2,65d2b6c8f2eece985d8e374c,65d2b969c21f565b6fcb1047,0.0342,0.0342,0,142,142,0,1,onetwo,,,,,,,,,,,,,,,,,,,,,,,,,,,,,,,,,,,,,,,,,,,,,,,,,,,,,,,,,,,,,,,,,,,,,,,,,,,,,,,,,,,,,,,,,,,,,,,,,,,,,,,,,,,,,,,,,,,,,,,,,,,,,,,,,,,,,,,,,
,,566dedbd57f93300112d0ee2,2024-02-19_02h14.11.992,kallum_motion_pilot,2023.2.2,Win32,166.6666667,566dedbd57f93300112d0ee2,65d2b6c8f2eece985d8e374c,65d2b969c21f565b6fcb1047,0.0342,0.0342,0,143,143,7,1,fourthree,,,,,,,,,,,,,,,,,,,,,,,,,,,,,,,,,,,,,,,,,,,,,,,,,,,,,,,,,,,,,,,,,,,,,,,,,,,,,,,,,,,,,,,,,,,,,,,,,,,,,,,,,,,,,,,,,,,,,,,,,,,,,,,,,,,,,,,,,
,,566dedbd57f93300112d0ee2,2024-02-19_02h14.11.992,kallum_motion_pilot,2023.2.2,Win32,166.6666667,566dedbd57f93300112d0ee2,65d2b6c8f2eece985d8e374c,65d2b969c21f565b6fcb1047,0.0343,0.0343,0,144,144,31,1,fourthree,,,,,,,,,,,,,,,,,,,,,,,,,,,,,,,,,,,,,,,,,,,,,,,,,,,,,,,,,,,,,,,,,,,,,,,,,,,,,,,,,,,,,,,,,,,,,,,,,,,,,,,,,,,,,,,,,,,,,,,,,,,,,,,,,,,,,,,,,
,,566dedbd57f93300112d0ee2,2024-02-19_02h14.11.992,kallum_motion_pilot,2023.2.2,Win32,166.6666667,566dedbd57f93300112d0ee2,65d2b6c8f2eece985d8e374c,65d2b969c21f565b6fcb1047,0.0344,0.0344,0,145,145,159,1,eightseven,,,,,,,,,,,,,,,,,,,,,,,,,,,,,,,,,,,,,,,,,,,,,,,,,,,,,,,,,,,,,,,,,,,,,,,,,,,,,,,,,,,,,,,,,,,,,,,,,,,,,,,,,,,,,,,,,,,,,,,,,,,,,,,,,,,,,,,,,
,,566dedbd57f93300112d0ee2,2024-02-19_02h14.11.992,kallum_motion_pilot,2023.2.2,Win32,166.6666667,566dedbd57f93300112d0ee2,65d2b6c8f2eece985d8e374c,65d2b969c21f565b6fcb1047,0.0344,0.0344,0,146,146,86,1,eightsix,,,,,,,,,,,,,,,,,,,,,,,,,,,,,,,,,,,,,,,,,,,,,,,,,,,,,,,,,,,,,,,,,,,,,,,,,,,,,,,,,,,,,,,,,,,,,,,,,,,,,,,,,,,,,,,,,,,,,,,,,,,,,,,,,,,,,,,,,
,,566dedbd57f93300112d0ee2,2024-02-19_02h14.11.992,kallum_motion_pilot,2023.2.2,Win32,166.6666667,566dedbd57f93300112d0ee2,65d2b6c8f2eece985d8e374c,65d2b969c21f565b6fcb1047,0.0344,0.0345,0,147,147,111,1,eightseven,,,,,,,,,,,,,,,,,,,,,,,,,,,,,,,,,,,,,,,,,,,,,,,,,,,,,,,,,,,,,,,,,,,,,,,,,,,,,,,,,,,,,,,,,,,,,,,,,,,,,,,,,,,,,,,,,,,,,,,,,,,,,,,,,,,,,,,,,
,,566dedbd57f93300112d0ee2,2024-02-19_02h14.11.992,kallum_motion_pilot,2023.2.2,Win32,166.6666667,566dedbd57f93300112d0ee2,65d2b6c8f2eece985d8e374c,65d2b969c21f565b6fcb1047,0.0347,0.0348,0,148,148,154,1,sixfive,,,,,,,,,,,,,,,,,,,,,,,,,,,,,,,,,,,,,,,,,,,,,,,,,,,,,,,,,,,,,,,,,,,,,,,,,,,,,,,,,,,,,,,,,,,,,,,,,,,,,,,,,,,,,,,,,,,,,,,,,,,,,,,,,,,,,,,,,
,,566dedbd57f93300112d0ee2,2024-02-19_02h14.11.992,kallum_motion_pilot,2023.2.2,Win32,166.6666667,566dedbd57f93300112d0ee2,65d2b6c8f2eece985d8e374c,65d2b969c21f565b6fcb1047,0.035,0.035,0,149,149,142,1,eightsix,,,,,,,,,,,,,,,,,,,,,,,,,,,,,,,,,,,,,,,,,,,,,,,,,,,,,,,,,,,,,,,,,,,,,,,,,,,,,,,,,,,,,,,,,,,,,,,,,,,,,,,,,,,,,,,,,,,,,,,,,,,,,,,,,,,,,,,,,
,,566dedbd57f93300112d0ee2,2024-02-19_02h14.11.992,kallum_motion_pilot,2023.2.2,Win32,166.6666667,566dedbd57f93300112d0ee2,65d2b6c8f2eece985d8e374c,65d2b969c21f565b6fcb1047,0.0351,0.0352,0,150,150,160,1,fivesix,,,,,,,,,,,,,,,,,,,,,,,,,,,,,,,,,,,,,,,,,,,,,,,,,,,,,,,,,,,,,,,,,,,,,,,,,,,,,,,,,,,,,,,,,,,,,,,,,,,,,,,,,,,,,,,,,,,,,,,,,,,,,,,,,,,,,,,,,
,,566dedbd57f93300112d0ee2,2024-02-19_02h14.11.992,kallum_motion_pilot,2023.2.2,Win32,166.6666667,566dedbd57f93300112d0ee2,65d2b6c8f2eece985d8e374c,65d2b969c21f565b6fcb1047,0.0352,0.0353,0,151,151,75,1,twofour,,,,,,,,,,,,,,,,,,,,,,,,,,,,,,,,,,,,,,,,,,,,,,,,,,,,,,,,,,,,,,,,,,,,,,,,,,,,,,,,,,,,,,,,,,,,,,,,,,,,,,,,,,,,,,,,,,,,,,,,,,,,,,,,,,,,,,,,,
,,566dedbd57f93300112d0ee2,2024-02-19_02h14.11.992,kallum_motion_pilot,2023.2.2,Win32,166.6666667,566dedbd57f93300112d0ee2,65d2b6c8f2eece985d8e374c,65d2b969c21f565b6fcb1047,0.0354,0.0354,0,152,152,97,1,fiveseven,,,,,,,,,,,,,,,,,,,,,,,,,,,,,,,,,,,,,,,,,,,,,,,,,,,,,,,,,,,,,,,,,,,,,,,,,,,,,,,,,,,,,,,,,,,,,,,,,,,,,,,,,,,,,,,,,,,,,,,,,,,,,,,,,,,,,,,,,
,,566dedbd57f93300112d0ee2,2024-02-19_02h14.11.992,kallum_motion_pilot,2023.2.2,Win32,166.6666667,566dedbd57f93300112d0ee2,65d2b6c8f2eece985d8e374c,65d2b969c21f565b6fcb1047,0.0354,0.0355,0,153,153,30,1,fourtwo,,,,,,,,,,,,,,,,,,,,,,,,,,,,,,,,,,,,,,,,,,,,,,,,,,,,,,,,,,,,,,,,,,,,,,,,,,,,,,,,,,,,,,,,,,,,,,,,,,,,,,,,,,,,,,,,,,,,,,,,,,,,,,,,,,,,,,,,,
,,566dedbd57f93300112d0ee2,2024-02-19_02h14.11.992,kallum_motion_pilot,2023.2.2,Win32,166.6666667,566dedbd57f93300112d0ee2,65d2b6c8f2eece985d8e374c,65d2b969c21f565b6fcb1047,0.0355,0.0355,0,154,154,135,1,eightseven,,,,,,,,,,,,,,,,,,,,,,,,,,,,,,,,,,,,,,,,,,,,,,,,,,,,,,,,,,,,,,,,,,,,,,,,,,,,,,,,,,,,,,,,,,,,,,,,,,,,,,,,,,,,,,,,,,,,,,,,,,,,,,,,,,,,,,,,,
,,566dedbd57f93300112d0ee2,2024-02-19_02h14.11.992,kallum_motion_pilot,2023.2.2,Win32,166.6666667,566dedbd57f93300112d0ee2,65d2b6c8f2eece985d8e374c,65d2b969c21f565b6fcb1047,0.0356,0.0356,0,155,155,130,1,sixfive,,,,,,,,,,,,,,,,,,,,,,,,,,,,,,,,,,,,,,,,,,,,,,,,,,,,,,,,,,,,,,,,,,,,,,,,,,,,,,,,,,,,,,,,,,,,,,,,,,,,,,,,,,,,,,,,,,,,,,,,,,,,,,,,,,,,,,,,,
,,566dedbd57f93300112d0ee2,2024-02-19_02h14.11.992,kallum_motion_pilot,2023.2.2,Win32,166.6666667,566dedbd57f93300112d0ee2,65d2b6c8f2eece985d8e374c,65d2b969c21f565b6fcb1047,0.0356,0.0357,0,156,156,65,1,onethree,,,,,,,,,,,,,,,,,,,,,,,,,,,,,,,,,,,,,,,,,,,,,,,,,,,,,,,,,,,,,,,,,,,,,,,,,,,,,,,,,,,,,,,,,,,,,,,,,,,,,,,,,,,,,,,,,,,,,,,,,,,,,,,,,,,,,,,,,
,,566dedbd57f93300112d0ee2,2024-02-19_02h14.11.992,kallum_motion_pilot,2023.2.2,Win32,166.6666667,566dedbd57f93300112d0ee2,65d2b6c8f2eece985d8e374c,65d2b969c21f565b6fcb1047,0.0357,0.0357,0,157,157,115,1,sixeight,,,,,,,,,,,,,,,,,,,,,,,,,,,,,,,,,,,,,,,,,,,,,,,,,,,,,,,,,,,,,,,,,,,,,,,,,,,,,,,,,,,,,,,,,,,,,,,,,,,,,,,,,,,,,,,,,,,,,,,,,,,,,,,,,,,,,,,,,
,,566dedbd57f93300112d0ee2,2024-02-19_02h14.11.992,kallum_motion_pilot,2023.2.2,Win32,166.6666667,566dedbd57f93300112d0ee2,65d2b6c8f2eece985d8e374c,65d2b969c21f565b6fcb1047,0.0357,0.0358,0,158,158,3,1,twofour,,,,,,,,,,,,,,,,,,,,,,,,,,,,,,,,,,,,,,,,,,,,,,,,,,,,,,,,,,,,,,,,,,,,,,,,,,,,,,,,,,,,,,,,,,,,,,,,,,,,,,,,,,,,,,,,,,,,,,,,,,,,,,,,,,,,,,,,,
,,566dedbd57f93300112d0ee2,2024-02-19_02h14.11.992,kallum_motion_pilot,2023.2.2,Win32,166.6666667,566dedbd57f93300112d0ee2,65d2b6c8f2eece985d8e374c,65d2b969c21f565b6fcb1047,0.0358,0.0358,0,159,159,126,1,eightsix,,,,,,,,,,,,,,,,,,,,,,,,,,,,,,,,,,,,,,,,,,,,,,,,,,,,,,,,,,,,,,,,,,,,,,,,,,,,,,,,,,,,,,,,,,,,,,,,,,,,,,,,,,,,,,,,,,,,,,,,,,,,,,,,,,,,,,,,,
,,566dedbd57f93300112d0ee2,2024-02-19_02h14.11.992,kallum_motion_pilot,2023.2.2,Win32,166.6666667,566dedbd57f93300112d0ee2,65d2b6c8f2eece985d8e374c,65d2b969c21f565b6fcb1047,0.0358,0.0359,0,160,160,18,1,twoone,,,,,,,,,,,,,,,,,,,,,,,,,,,,,,,,,,,,,,,,,,,,,,,,,,,,,,,,,,,,,,,,,,,,,,,,,,,,,,,,,,,,,,,,,,,,,,,,,,,,,,,,,,,,,,,,,,,,,,,,,,,,,,,,,,,,,,,,,
,,566dedbd57f93300112d0ee2,2024-02-19_02h14.11.992,kallum_motion_pilot,2023.2.2,Win32,166.6666667,566dedbd57f93300112d0ee2,65d2b6c8f2eece985d8e374c,65d2b969c21f565b6fcb1047,0.0359,0.0359,0,161,161,13,1,threefour,,,,,,,,,,,,,,,,,,,,,,,,,,,,,,,,,,,,,,,,,,,,,,,,,,,,,,,,,,,,,,,,,,,,,,,,,,,,,,,,,,,,,,,,,,,,,,,,,,,,,,,,,,,,,,,,,,,,,,,,,,,,,,,,,,,,,,,,,
,,566dedbd57f93300112d0ee2,2024-02-19_02h14.11.992,kallum_motion_pilot,2023.2.2,Win32,166.6666667,566dedbd57f93300112d0ee2,65d2b6c8f2eece985d8e374c,65d2b969c21f565b6fcb1047,0.036,0.036,1,0,162,41,1,onethree,,,,,,,,,,,,,,,,,,,,,,,,,,,,,,,,,,,,,,,,,,,,,,,,,,,,,,,,,,,,,,,,,,,,,,,,,,,,,,,,,,,,,,,,,,,,,,,,,,,,,,,,,,,,,,,,,,,,,,,,,,,,,,,,,,,,,,,,,
,,566dedbd57f93300112d0ee2,2024-02-19_02h14.11.992,kallum_motion_pilot,2023.2.2,Win32,166.6666667,566dedbd57f93300112d0ee2,65d2b6c8f2eece985d8e374c,65d2b969c21f565b6fcb1047,0.036,0.036,1,1,163,5,1,threefour,,,,,,,,,,,,,,,,,,,,,,,,,,,,,,,,,,,,,,,,,,,,,,,,,,,,,,,,,,,,,,,,,,,,,,,,,,,,,,,,,,,,,,,,,,,,,,,,,,,,,,,,,,,,,,,,,,,,,,,,,,,,,,,,,,,,,,,,,
,,566dedbd57f93300112d0ee2,2024-02-19_02h14.11.992,kallum_motion_pilot,2023.2.2,Win32,166.6666667,566dedbd57f93300112d0ee2,65d2b6c8f2eece985d8e374c,65d2b969c21f565b6fcb1047,0.0361,0.0361,1,2,164,11,1,twofour,,,,,,,,,,,,,,,,,,,,,,,,,,,,,,,,,,,,,,,,,,,,,,,,,,,,,,,,,,,,,,,,,,,,,,,,,,,,,,,,,,,,,,,,,,,,,,,,,,,,,,,,,,,,,,,,,,,,,,,,,,,,,,,,,,,,,,,,,
,,566dedbd57f93300112d0ee2,2024-02-19_02h14.11.992,kallum_motion_pilot,2023.2.2,Win32,166.6666667,566dedbd57f93300112d0ee2,65d2b6c8f2eece985d8e374c,65d2b969c21f565b6fcb1047,0.0362,0.0362,1,3,165,76,1,threeone,,,,,,,,,,,,,,,,,,,,,,,,,,,,,,,,,,,,,,,,,,,,,,,,,,,,,,,,,,,,,,,,,,,,,,,,,,,,,,,,,,,,,,,,,,,,,,,,,,,,,,,,,,,,,,,,,,,,,,,,,,,,,,,,,,,,,,,,,
,,566dedbd57f93300112d0ee2,2024-02-19_02h14.11.992,kallum_motion_pilot,2023.2.2,Win32,166.6666667,566dedbd57f93300112d0ee2,65d2b6c8f2eece985d8e374c,65d2b969c21f565b6fcb1047,0.0363,0.0363,1,4,166,42,1,twoone,,,,,,,,,,,,,,,,,,,,,,,,,,,,,,,,,,,,,,,,,,,,,,,,,,,,,,,,,,,,,,,,,,,,,,,,,,,,,,,,,,,,,,,,,,,,,,,,,,,,,,,,,,,,,,,,,,,,,,,,,,,,,,,,,,,,,,,,,
,,566dedbd57f93300112d0ee2,2024-02-19_02h14.11.992,kallum_motion_pilot,2023.2.2,Win32,166.6666667,566dedbd57f93300112d0ee2,65d2b6c8f2eece985d8e374c,65d2b969c21f565b6fcb1047,0.0363,0.0363,1,5,167,63,1,fourthree,,,,,,,,,,,,,,,,,,,,,,,,,,,,,,,,,,,,,,,,,,,,,,,,,,,,,,,,,,,,,,,,,,,,,,,,,,,,,,,,,,,,,,,,,,,,,,,,,,,,,,,,,,,,,,,,,,,,,,,,,,,,,,,,,,,,,,,,,
,,566dedbd57f93300112d0ee2,2024-02-19_02h14.11.992,kallum_motion_pilot,2023.2.2,Win32,166.6666667,566dedbd57f93300112d0ee2,65d2b6c8f2eece985d8e374c,65d2b969c21f565b6fcb1047,0.0364,0.0364,1,6,168,152,1,fivesix,,,,,,,,,,,,,,,,,,,,,,,,,,,,,,,,,,,,,,,,,,,,,,,,,,,,,,,,,,,,,,,,,,,,,,,,,,,,,,,,,,,,,,,,,,,,,,,,,,,,,,,,,,,,,,,,,,,,,,,,,,,,,,,,,,,,,,,,,
,,566dedbd57f93300112d0ee2,2024-02-19_02h14.11.992,kallum_motion_pilot,2023.2.2,Win32,166.6666667,566dedbd57f93300112d0ee2,65d2b6c8f2eece985d8e374c,65d2b969c21f565b6fcb1047,0.0364,0.0365,1,7,169,148,1,sevenfive,,,,,,,,,,,,,,,,,,,,,,,,,,,,,,,,,,,,,,,,,,,,,,,,,,,,,,,,,,,,,,,,,,,,,,,,,,,,,,,,,,,,,,,,,,,,,,,,,,,,,,,,,,,,,,,,,,,,,,,,,,,,,,,,,,,,,,,,,
,,566dedbd57f93300112d0ee2,2024-02-19_02h14.11.992,kallum_motion_pilot,2023.2.2,Win32,166.6666667,566dedbd57f93300112d0ee2,65d2b6c8f2eece985d8e374c,65d2b969c21f565b6fcb1047,0.0365,0.0366,1,8,170,118,1,eightsix,,,,,,,,,,,,,,,,,,,,,,,,,,,,,,,,,,,,,,,,,,,,,,,,,,,,,,,,,,,,,,,,,,,,,,,,,,,,,,,,,,,,,,,,,,,,,,,,,,,,,,,,,,,,,,,,,,,,,,,,,,,,,,,,,,,,,,,,,
,,566dedbd57f93300112d0ee2,2024-02-19_02h14.11.992,kallum_motion_pilot,2023.2.2,Win32,166.6666667,566dedbd57f93300112d0ee2,65d2b6c8f2eece985d8e374c,65d2b969c21f565b6fcb1047,0.0366,0.0366,1,9,171,61,1,threefour,,,,,,,,,,,,,,,,,,,,,,,,,,,,,,,,,,,,,,,,,,,,,,,,,,,,,,,,,,,,,,,,,,,,,,,,,,,,,,,,,,,,,,,,,,,,,,,,,,,,,,,,,,,,,,,,,,,,,,,,,,,,,,,,,,,,,,,,,
,,566dedbd57f93300112d0ee2,2024-02-19_02h14.11.992,kallum_motion_pilot,2023.2.2,Win32,166.6666667,566dedbd57f93300112d0ee2,65d2b6c8f2eece985d8e374c,65d2b969c21f565b6fcb1047,0.0367,0.0367,1,10,172,125,1,seveneight,,,,,,,,,,,,,,,,,,,,,,,,,,,,,,,,,,,,,,,,,,,,,,,,,,,,,,,,,,,,,,,,,,,,,,,,,,,,,,,,,,,,,,,,,,,,,,,,,,,,,,,,,,,,,,,,,,,,,,,,,,,,,,,,,,,,,,,,,
,,566dedbd57f93300112d0ee2,2024-02-19_02h14.11.992,kallum_motion_pilot,2023.2.2,Win32,166.6666667,566dedbd57f93300112d0ee2,65d2b6c8f2eece985d8e374c,65d2b969c21f565b6fcb1047,0.0367,0.0367,1,11,173,142,1,eightsix,,,,,,,,,,,,,,,,,,,,,,,,,,,,,,,,,,,,,,,,,,,,,,,,,,,,,,,,,,,,,,,,,,,,,,,,,,,,,,,,,,,,,,,,,,,,,,,,,,,,,,,,,,,,,,,,,,,,,,,,,,,,,,,,,,,,,,,,,
,,566dedbd57f93300112d0ee2,2024-02-19_02h14.11.992,kallum_motion_pilot,2023.2.2,Win32,166.6666667,566dedbd57f93300112d0ee2,65d2b6c8f2eece985d8e374c,65d2b969c21f565b6fcb1047,0.0368,0.0368,1,12,174,130,1,sixfive,,,,,,,,,,,,,,,,,,,,,,,,,,,,,,,,,,,,,,,,,,,,,,,,,,,,,,,,,,,,,,,,,,,,,,,,,,,,,,,,,,,,,,,,,,,,,,,,,,,,,,,,,,,,,,,,,,,,,,,,,,,,,,,,,,,,,,,,,
,,566dedbd57f93300112d0ee2,2024-02-19_02h14.11.992,kallum_motion_pilot,2023.2.2,Win32,166.6666667,566dedbd57f93300112d0ee2,65d2b6c8f2eece985d8e374c,65d2b969c21f565b6fcb1047,0.0369,0.0369,1,13,175,77,1,threefour,,,,,,,,,,,,,,,,,,,,,,,,,,,,,,,,,,,,,,,,,,,,,,,,,,,,,,,,,,,,,,,,,,,,,,,,,,,,,,,,,,,,,,,,,,,,,,,,,,,,,,,,,,,,,,,,,,,,,,,,,,,,,,,,,,,,,,,,,
,,566dedbd57f93300112d0ee2,2024-02-19_02h14.11.992,kallum_motion_pilot,2023.2.2,Win32,166.6666667,566dedbd57f93300112d0ee2,65d2b6c8f2eece985d8e374c,65d2b969c21f565b6fcb1047,0.0369,0.037,1,14,176,26,1,twoone,,,,,,,,,,,,,,,,,,,,,,,,,,,,,,,,,,,,,,,,,,,,,,,,,,,,,,,,,,,,,,,,,,,,,,,,,,,,,,,,,,,,,,,,,,,,,,,,,,,,,,,,,,,,,,,,,,,,,,,,,,,,,,,,,,,,,,,,,
,,566dedbd57f93300112d0ee2,2024-02-19_02h14.11.992,kallum_motion_pilot,2023.2.2,Win32,166.6666667,566dedbd57f93300112d0ee2,65d2b6c8f2eece985d8e374c,65d2b969c21f565b6fcb1047,0.037,0.037,1,15,177,156,1,sevenfive,,,,,,,,,,,,,,,,,,,,,,,,,,,,,,,,,,,,,,,,,,,,,,,,,,,,,,,,,,,,,,,,,,,,,,,,,,,,,,,,,,,,,,,,,,,,,,,,,,,,,,,,,,,,,,,,,,,,,,,,,,,,,,,,,,,,,,,,,
,,566dedbd57f93300112d0ee2,2024-02-19_02h14.11.992,kallum_motion_pilot,2023.2.2,Win32,166.6666667,566dedbd57f93300112d0ee2,65d2b6c8f2eece985d8e374c,65d2b969c21f565b6fcb1047,0.037,0.0371,1,16,178,0,1,onetwo,,,,,,,,,,,,,,,,,,,,,,,,,,,,,,,,,,,,,,,,,,,,,,,,,,,,,,,,,,,,,,,,,,,,,,,,,,,,,,,,,,,,,,,,,,,,,,,,,,,,,,,,,,,,,,,,,,,,,,,,,,,,,,,,,,,,,,,,,
,,566dedbd57f93300112d0ee2,2024-02-19_02h14.11.992,kallum_motion_pilot,2023.2.2,Win32,166.6666667,566dedbd57f93300112d0ee2,65d2b6c8f2eece985d8e374c,65d2b969c21f565b6fcb1047,0.0372,0.0372,1,17,179,66,1,twoone,,,,,,,,,,,,,,,,,,,,,,,,,,,,,,,,,,,,,,,,,,,,,,,,,,,,,,,,,,,,,,,,,,,,,,,,,,,,,,,,,,,,,,,,,,,,,,,,,,,,,,,,,,,,,,,,,,,,,,,,,,,,,,,,,,,,,,,,,
,,566dedbd57f93300112d0ee2,2024-02-19_02h14.11.992,kallum_motion_pilot,2023.2.2,Win32,166.6666667,566dedbd57f93300112d0ee2,65d2b6c8f2eece985d8e374c,65d2b969c21f565b6fcb1047,0.0372,0.0373,1,18,180,18,1,twoone,,,,,,,,,,,,,,,,,,,,,,,,,,,,,,,,,,,,,,,,,,,,,,,,,,,,,,,,,,,,,,,,,,,,,,,,,,,,,,,,,,,,,,,,,,,,,,,,,,,,,,,,,,,,,,,,,,,,,,,,,,,,,,,,,,,,,,,,,
,,566dedbd57f93300112d0ee2,2024-02-19_02h14.11.992,kallum_motion_pilot,2023.2.2,Win32,166.6666667,566dedbd57f93300112d0ee2,65d2b6c8f2eece985d8e374c,65d2b969c21f565b6fcb1047,0.0373,0.0373,1,19,181,29,1,threefour,,,,,,,,,,,,,,,,,,,,,,,,,,,,,,,,,,,,,,,,,,,,,,,,,,,,,,,,,,,,,,,,,,,,,,,,,,,,,,,,,,,,,,,,,,,,,,,,,,,,,,,,,,,,,,,,,,,,,,,,,,,,,,,,,,,,,,,,,
,,566dedbd57f93300112d0ee2,2024-02-19_02h14.11.992,kallum_motion_pilot,2023.2.2,Win32,166.6666667,566dedbd57f93300112d0ee2,65d2b6c8f2eece985d8e374c,65d2b969c21f565b6fcb1047,0.0373,0.0373,1,20,182,17,1,onethree,,,,,,,,,,,,,,,,,,,,,,,,,,,,,,,,,,,,,,,,,,,,,,,,,,,,,,,,,,,,,,,,,,,,,,,,,,,,,,,,,,,,,,,,,,,,,,,,,,,,,,,,,,,,,,,,,,,,,,,,,,,,,,,,,,,,,,,,,
,,566dedbd57f93300112d0ee2,2024-02-19_02h14.11.992,kallum_motion_pilot,2023.2.2,Win32,166.6666667,566dedbd57f93300112d0ee2,65d2b6c8f2eece985d8e374c,65d2b969c21f565b6fcb1047,0.0374,0.0375,1,21,183,19,1,twofour,,,,,,,,,,,,,,,,,,,,,,,,,,,,,,,,,,,,,,,,,,,,,,,,,,,,,,,,,,,,,,,,,,,,,,,,,,,,,,,,,,,,,,,,,,,,,,,,,,,,,,,,,,,,,,,,,,,,,,,,,,,,,,,,,,,,,,,,,
,,566dedbd57f93300112d0ee2,2024-02-19_02h14.11.992,kallum_motion_pilot,2023.2.2,Win32,166.6666667,566dedbd57f93300112d0ee2,65d2b6c8f2eece985d8e374c,65d2b969c21f565b6fcb1047,0.0375,0.0375,1,22,184,107,1,sixeight,,,,,,,,,,,,,,,,,,,,,,,,,,,,,,,,,,,,,,,,,,,,,,,,,,,,,,,,,,,,,,,,,,,,,,,,,,,,,,,,,,,,,,,,,,,,,,,,,,,,,,,,,,,,,,,,,,,,,,,,,,,,,,,,,,,,,,,,,
,,566dedbd57f93300112d0ee2,2024-02-19_02h14.11.992,kallum_motion_pilot,2023.2.2,Win32,166.6666667,566dedbd57f93300112d0ee2,65d2b6c8f2eece985d8e374c,65d2b969c21f565b6fcb1047,0.0375,0.0375,1,23,185,38,1,fourtwo,,,,,,,,,,,,,,,,,,,,,,,,,,,,,,,,,,,,,,,,,,,,,,,,,,,,,,,,,,,,,,,,,,,,,,,,,,,,,,,,,,,,,,,,,,,,,,,,,,,,,,,,,,,,,,,,,,,,,,,,,,,,,,,,,,,,,,,,,
,,566dedbd57f93300112d0ee2,2024-02-19_02h14.11.992,kallum_motion_pilot,2023.2.2,Win32,166.6666667,566dedbd57f93300112d0ee2,65d2b6c8f2eece985d8e374c,65d2b969c21f565b6fcb1047,0.0376,0.0377,1,24,186,78,1,fourtwo,,,,,,,,,,,,,,,,,,,,,,,,,,,,,,,,,,,,,,,,,,,,,,,,,,,,,,,,,,,,,,,,,,,,,,,,,,,,,,,,,,,,,,,,,,,,,,,,,,,,,,,,,,,,,,,,,,,,,,,,,,,,,,,,,,,,,,,,,
,,566dedbd57f93300112d0ee2,2024-02-19_02h14.11.992,kallum_motion_pilot,2023.2.2,Win32,166.6666667,566dedbd57f93300112d0ee2,65d2b6c8f2eece985d8e374c,65d2b969c21f565b6fcb1047,0.0377,0.0377,1,25,187,23,1,fourthree,,,,,,,,,,,,,,,,,,,,,,,,,,,,,,,,,,,,,,,,,,,,,,,,,,,,,,,,,,,,,,,,,,,,,,,,,,,,,,,,,,,,,,,,,,,,,,,,,,,,,,,,,,,,,,,,,,,,,,,,,,,,,,,,,,,,,,,,,
,,566dedbd57f93300112d0ee2,2024-02-19_02h14.11.992,kallum_motion_pilot,2023.2.2,Win32,166.6666667,566dedbd57f93300112d0ee2,65d2b6c8f2eece985d8e374c,65d2b969c21f565b6fcb1047,0.0378,0.0378,1,26,188,46,1,fourtwo,,,,,,,,,,,,,,,,,,,,,,,,,,,,,,,,,,,,,,,,,,,,,,,,,,,,,,,,,,,,,,,,,,,,,,,,,,,,,,,,,,,,,,,,,,,,,,,,,,,,,,,,,,,,,,,,,,,,,,,,,,,,,,,,,,,,,,,,,
,,566dedbd57f93300112d0ee2,2024-02-19_02h14.11.992,kallum_motion_pilot,2023.2.2,Win32,166.6666667,566dedbd57f93300112d0ee2,65d2b6c8f2eece985d8e374c,65d2b969c21f565b6fcb1047,0.0379,0.0379,1,27,189,145,1,fiveseven,,,,,,,,,,,,,,,,,,,,,,,,,,,,,,,,,,,,,,,,,,,,,,,,,,,,,,,,,,,,,,,,,,,,,,,,,,,,,,,,,,,,,,,,,,,,,,,,,,,,,,,,,,,,,,,,,,,,,,,,,,,,,,,,,,,,,,,,,
,,566dedbd57f93300112d0ee2,2024-02-19_02h14.11.992,kallum_motion_pilot,2023.2.2,Win32,166.6666667,566dedbd57f93300112d0ee2,65d2b6c8f2eece985d8e374c,65d2b969c21f565b6fcb1047,0.038,0.038,1,28,190,120,1,fivesix,,,,,,,,,,,,,,,,,,,,,,,,,,,,,,,,,,,,,,,,,,,,,,,,,,,,,,,,,,,,,,,,,,,,,,,,,,,,,,,,,,,,,,,,,,,,,,,,,,,,,,,,,,,,,,,,,,,,,,,,,,,,,,,,,,,,,,,,,
,,566dedbd57f93300112d0ee2,2024-02-19_02h14.11.992,kallum_motion_pilot,2023.2.2,Win32,166.6666667,566dedbd57f93300112d0ee2,65d2b6c8f2eece985d8e374c,65d2b969c21f565b6fcb1047,0.038,0.038,1,29,191,114,1,sixfive,,,,,,,,,,,,,,,,,,,,,,,,,,,,,,,,,,,,,,,,,,,,,,,,,,,,,,,,,,,,,,,,,,,,,,,,,,,,,,,,,,,,,,,,,,,,,,,,,,,,,,,,,,,,,,,,,,,,,,,,,,,,,,,,,,,,,,,,,
,,566dedbd57f93300112d0ee2,2024-02-19_02h14.11.992,kallum_motion_pilot,2023.2.2,Win32,166.6666667,566dedbd57f93300112d0ee2,65d2b6c8f2eece985d8e374c,65d2b969c21f565b6fcb1047,0.038,0.0381,1,30,192,34,1,twoone,,,,,,,,,,,,,,,,,,,,,,,,,,,,,,,,,,,,,,,,,,,,,,,,,,,,,,,,,,,,,,,,,,,,,,,,,,,,,,,,,,,,,,,,,,,,,,,,,,,,,,,,,,,,,,,,,,,,,,,,,,,,,,,,,,,,,,,,,
,,566dedbd57f93300112d0ee2,2024-02-19_02h14.11.992,kallum_motion_pilot,2023.2.2,Win32,166.6666667,566dedbd57f93300112d0ee2,65d2b6c8f2eece985d8e374c,65d2b969c21f565b6fcb1047,0.0381,0.0382,1,31,193,87,1,eightseven,,,,,,,,,,,,,,,,,,,,,,,,,,,,,,,,,,,,,,,,,,,,,,,,,,,,,,,,,,,,,,,,,,,,,,,,,,,,,,,,,,,,,,,,,,,,,,,,,,,,,,,,,,,,,,,,,,,,,,,,,,,,,,,,,,,,,,,,,
,,566dedbd57f93300112d0ee2,2024-02-19_02h14.11.992,kallum_motion_pilot,2023.2.2,Win32,166.6666667,566dedbd57f93300112d0ee2,65d2b6c8f2eece985d8e374c,65d2b969c21f565b6fcb1047,0.0382,0.0382,1,32,194,53,1,threefour,,,,,,,,,,,,,,,,,,,,,,,,,,,,,,,,,,,,,,,,,,,,,,,,,,,,,,,,,,,,,,,,,,,,,,,,,,,,,,,,,,,,,,,,,,,,,,,,,,,,,,,,,,,,,,,,,,,,,,,,,,,,,,,,,,,,,,,,,
,,566dedbd57f93300112d0ee2,2024-02-19_02h14.11.992,kallum_motion_pilot,2023.2.2,Win32,166.6666667,566dedbd57f93300112d0ee2,65d2b6c8f2eece985d8e374c,65d2b969c21f565b6fcb1047,0.0383,0.0383,1,33,195,71,1,fourthree,,,,,,,,,,,,,,,,,,,,,,,,,,,,,,,,,,,,,,,,,,,,,,,,,,,,,,,,,,,,,,,,,,,,,,,,,,,,,,,,,,,,,,,,,,,,,,,,,,,,,,,,,,,,,,,,,,,,,,,,,,,,,,,,,,,,,,,,,
,,566dedbd57f93300112d0ee2,2024-02-19_02h14.11.992,kallum_motion_pilot,2023.2.2,Win32,166.6666667,566dedbd57f93300112d0ee2,65d2b6c8f2eece985d8e374c,65d2b969c21f565b6fcb1047,0.0383,0.0384,1,34,196,14,1,fourtwo,,,,,,,,,,,,,,,,,,,,,,,,,,,,,,,,,,,,,,,,,,,,,,,,,,,,,,,,,,,,,,,,,,,,,,,,,,,,,,,,,,,,,,,,,,,,,,,,,,,,,,,,,,,,,,,,,,,,,,,,,,,,,,,,,,,,,,,,,
,,566dedbd57f93300112d0ee2,2024-02-19_02h14.11.992,kallum_motion_pilot,2023.2.2,Win32,166.6666667,566dedbd57f93300112d0ee2,65d2b6c8f2eece985d8e374c,65d2b969c21f565b6fcb1047,0.0384,0.0385,1,35,197,154,1,sixfive,,,,,,,,,,,,,,,,,,,,,,,,,,,,,,,,,,,,,,,,,,,,,,,,,,,,,,,,,,,,,,,,,,,,,,,,,,,,,,,,,,,,,,,,,,,,,,,,,,,,,,,,,,,,,,,,,,,,,,,,,,,,,,,,,,,,,,,,,
,,566dedbd57f93300112d0ee2,2024-02-19_02h14.11.992,kallum_motion_pilot,2023.2.2,Win32,166.6666667,566dedbd57f93300112d0ee2,65d2b6c8f2eece985d8e374c,65d2b969c21f565b6fcb1047,0.0385,0.0385,1,36,198,117,1,seveneight,,,,,,,,,,,,,,,,,,,,,,,,,,,,,,,,,,,,,,,,,,,,,,,,,,,,,,,,,,,,,,,,,,,,,,,,,,,,,,,,,,,,,,,,,,,,,,,,,,,,,,,,,,,,,,,,,,,,,,,,,,,,,,,,,,,,,,,,,
,,566dedbd57f93300112d0ee2,2024-02-19_02h14.11.992,kallum_motion_pilot,2023.2.2,Win32,166.6666667,566dedbd57f93300112d0ee2,65d2b6c8f2eece985d8e374c,65d2b969c21f565b6fcb1047,0.0385,0.0386,1,37,199,119,1,eightseven,,,,,,,,,,,,,,,,,,,,,,,,,,,,,,,,,,,,,,,,,,,,,,,,,,,,,,,,,,,,,,,,,,,,,,,,,,,,,,,,,,,,,,,,,,,,,,,,,,,,,,,,,,,,,,,,,,,,,,,,,,,,,,,,,,,,,,,,,
,,566dedbd57f93300112d0ee2,2024-02-19_02h14.11.992,kallum_motion_pilot,2023.2.2,Win32,166.6666667,566dedbd57f93300112d0ee2,65d2b6c8f2eece985d8e374c,65d2b969c21f565b6fcb1047,0.0386,0.0386,1,38,200,110,1,eightsix,,,,,,,,,,,,,,,,,,,,,,,,,,,,,,,,,,,,,,,,,,,,,,,,,,,,,,,,,,,,,,,,,,,,,,,,,,,,,,,,,,,,,,,,,,,,,,,,,,,,,,,,,,,,,,,,,,,,,,,,,,,,,,,,,,,,,,,,,
,,566dedbd57f93300112d0ee2,2024-02-19_02h14.11.992,kallum_motion_pilot,2023.2.2,Win32,166.6666667,566dedbd57f93300112d0ee2,65d2b6c8f2eece985d8e374c,65d2b969c21f565b6fcb1047,0.0387,0.0387,1,39,201,36,1,threeone,,,,,,,,,,,,,,,,,,,,,,,,,,,,,,,,,,,,,,,,,,,,,,,,,,,,,,,,,,,,,,,,,,,,,,,,,,,,,,,,,,,,,,,,,,,,,,,,,,,,,,,,,,,,,,,,,,,,,,,,,,,,,,,,,,,,,,,,,
,,566dedbd57f93300112d0ee2,2024-02-19_02h14.11.992,kallum_motion_pilot,2023.2.2,Win32,166.6666667,566dedbd57f93300112d0ee2,65d2b6c8f2eece985d8e374c,65d2b969c21f565b6fcb1047,0.0388,0.0389,1,40,202,74,1,twoone,,,,,,,,,,,,,,,,,,,,,,,,,,,,,,,,,,,,,,,,,,,,,,,,,,,,,,,,,,,,,,,,,,,,,,,,,,,,,,,,,,,,,,,,,,,,,,,,,,,,,,,,,,,,,,,,,,,,,,,,,,,,,,,,,,,,,,,,,
,,566dedbd57f93300112d0ee2,2024-02-19_02h14.11.992,kallum_motion_pilot,2023.2.2,Win32,166.6666667,566dedbd57f93300112d0ee2,65d2b6c8f2eece985d8e374c,65d2b969c21f565b6fcb1047,0.0389,0.0389,1,41,203,122,1,sixfive,,,,,,,,,,,,,,,,,,,,,,,,,,,,,,,,,,,,,,,,,,,,,,,,,,,,,,,,,,,,,,,,,,,,,,,,,,,,,,,,,,,,,,,,,,,,,,,,,,,,,,,,,,,,,,,,,,,,,,,,,,,,,,,,,,,,,,,,,
,,566dedbd57f93300112d0ee2,2024-02-19_02h14.11.992,kallum_motion_pilot,2023.2.2,Win32,166.6666667,566dedbd57f93300112d0ee2,65d2b6c8f2eece985d8e374c,65d2b969c21f565b6fcb1047,0.0389,0.039,1,42,204,141,1,seveneight,,,,,,,,,,,,,,,,,,,,,,,,,,,,,,,,,,,,,,,,,,,,,,,,,,,,,,,,,,,,,,,,,,,,,,,,,,,,,,,,,,,,,,,,,,,,,,,,,,,,,,,,,,,,,,,,,,,,,,,,,,,,,,,,,,,,,,,,,
,,566dedbd57f93300112d0ee2,2024-02-19_02h14.11.992,kallum_motion_pilot,2023.2.2,Win32,166.6666667,566dedbd57f93300112d0ee2,65d2b6c8f2eece985d8e374c,65d2b969c21f565b6fcb1047,0.0391,0.0391,1,43,205,89,1,fiveseven,,,,,,,,,,,,,,,,,,,,,,,,,,,,,,,,,,,,,,,,,,,,,,,,,,,,,,,,,,,,,,,,,,,,,,,,,,,,,,,,,,,,,,,,,,,,,,,,,,,,,,,,,,,,,,,,,,,,,,,,,,,,,,,,,,,,,,,,,
,,566dedbd57f93300112d0ee2,2024-02-19_02h14.11.992,kallum_motion_pilot,2023.2.2,Win32,166.6666667,566dedbd57f93300112d0ee2,65d2b6c8f2eece985d8e374c,65d2b969c21f565b6fcb1047,0.0392,0.0392,1,44,206,132,1,sevenfive,,,,,,,,,,,,,,,,,,,,,,,,,,,,,,,,,,,,,,,,,,,,,,,,,,,,,,,,,,,,,,,,,,,,,,,,,,,,,,,,,,,,,,,,,,,,,,,,,,,,,,,,,,,,,,,,,,,,,,,,,,,,,,,,,,,,,,,,,
,,566dedbd57f93300112d0ee2,2024-02-19_02h14.11.992,kallum_motion_pilot,2023.2.2,Win32,166.6666667,566dedbd57f93300112d0ee2,65d2b6c8f2eece985d8e374c,65d2b969c21f565b6fcb1047,0.0392,0.0392,1,45,207,72,1,onetwo,,,,,,,,,,,,,,,,,,,,,,,,,,,,,,,,,,,,,,,,,,,,,,,,,,,,,,,,,,,,,,,,,,,,,,,,,,,,,,,,,,,,,,,,,,,,,,,,,,,,,,,,,,,,,,,,,,,,,,,,,,,,,,,,,,,,,,,,,
,,566dedbd57f93300112d0ee2,2024-02-19_02h14.11.992,kallum_motion_pilot,2023.2.2,Win32,166.6666667,566dedbd57f93300112d0ee2,65d2b6c8f2eece985d8e374c,65d2b969c21f565b6fcb1047,0.0392,0.0393,1,46,208,9,1,onethree,,,,,,,,,,,,,,,,,,,,,,,,,,,,,,,,,,,,,,,,,,,,,,,,,,,,,,,,,,,,,,,,,,,,,,,,,,,,,,,,,,,,,,,,,,,,,,,,,,,,,,,,,,,,,,,,,,,,,,,,,,,,,,,,,,,,,,,,,
,,566dedbd57f93300112d0ee2,2024-02-19_02h14.11.992,kallum_motion_pilot,2023.2.2,Win32,166.6666667,566dedbd57f93300112d0ee2,65d2b6c8f2eece985d8e374c,65d2b969c21f565b6fcb1047,0.0394,0.0394,1,47,209,20,1,threeone,,,,,,,,,,,,,,,,,,,,,,,,,,,,,,,,,,,,,,,,,,,,,,,,,,,,,,,,,,,,,,,,,,,,,,,,,,,,,,,,,,,,,,,,,,,,,,,,,,,,,,,,,,,,,,,,,,,,,,,,,,,,,,,,,,,,,,,,,
,,566dedbd57f93300112d0ee2,2024-02-19_02h14.11.992,kallum_motion_pilot,2023.2.2,Win32,166.6666667,566dedbd57f93300112d0ee2,65d2b6c8f2eece985d8e374c,65d2b969c21f565b6fcb1047,0.0394,0.0395,1,48,210,100,1,sevenfive,,,,,,,,,,,,,,,,,,,,,,,,,,,,,,,,,,,,,,,,,,,,,,,,,,,,,,,,,,,,,,,,,,,,,,,,,,,,,,,,,,,,,,,,,,,,,,,,,,,,,,,,,,,,,,,,,,,,,,,,,,,,,,,,,,,,,,,,,
,,566dedbd57f93300112d0ee2,2024-02-19_02h14.11.992,kallum_motion_pilot,2023.2.2,Win32,166.6666667,566dedbd57f93300112d0ee2,65d2b6c8f2eece985d8e374c,65d2b969c21f565b6fcb1047,0.0395,0.0396,1,49,211,45,1,threefour,,,,,,,,,,,,,,,,,,,,,,,,,,,,,,,,,,,,,,,,,,,,,,,,,,,,,,,,,,,,,,,,,,,,,,,,,,,,,,,,,,,,,,,,,,,,,,,,,,,,,,,,,,,,,,,,,,,,,,,,,,,,,,,,,,,,,,,,,
,,566dedbd57f93300112d0ee2,2024-02-19_02h14.11.992,kallum_motion_pilot,2023.2.2,Win32,166.6666667,566dedbd57f93300112d0ee2,65d2b6c8f2eece985d8e374c,65d2b969c21f565b6fcb1047,0.0396,0.0396,1,50,212,35,1,twofour,,,,,,,,,,,,,,,,,,,,,,,,,,,,,,,,,,,,,,,,,,,,,,,,,,,,,,,,,,,,,,,,,,,,,,,,,,,,,,,,,,,,,,,,,,,,,,,,,,,,,,,,,,,,,,,,,,,,,,,,,,,,,,,,,,,,,,,,,
,,566dedbd57f93300112d0ee2,2024-02-19_02h14.11.992,kallum_motion_pilot,2023.2.2,Win32,166.6666667,566dedbd57f93300112d0ee2,65d2b6c8f2eece985d8e374c,65d2b969c21f565b6fcb1047,0.0396,0.0397,1,51,213,106,1,sixfive,,,,,,,,,,,,,,,,,,,,,,,,,,,,,,,,,,,,,,,,,,,,,,,,,,,,,,,,,,,,,,,,,,,,,,,,,,,,,,,,,,,,,,,,,,,,,,,,,,,,,,,,,,,,,,,,,,,,,,,,,,,,,,,,,,,,,,,,,
,,566dedbd57f93300112d0ee2,2024-02-19_02h14.11.992,kallum_motion_pilot,2023.2.2,Win32,166.6666667,566dedbd57f93300112d0ee2,65d2b6c8f2eece985d8e374c,65d2b969c21f565b6fcb1047,0.0398,0.0398,1,52,214,101,1,seveneight,,,,,,,,,,,,,,,,,,,,,,,,,,,,,,,,,,,,,,,,,,,,,,,,,,,,,,,,,,,,,,,,,,,,,,,,,,,,,,,,,,,,,,,,,,,,,,,,,,,,,,,,,,,,,,,,,,,,,,,,,,,,,,,,,,,,,,,,,
,,566dedbd57f93300112d0ee2,2024-02-19_02h14.11.992,kallum_motion_pilot,2023.2.2,Win32,166.6666667,566dedbd57f93300112d0ee2,65d2b6c8f2eece985d8e374c,65d2b969c21f565b6fcb1047,0.0398,0.0398,1,53,215,129,1,fiveseven,,,,,,,,,,,,,,,,,,,,,,,,,,,,,,,,,,,,,,,,,,,,,,,,,,,,,,,,,,,,,,,,,,,,,,,,,,,,,,,,,,,,,,,,,,,,,,,,,,,,,,,,,,,,,,,,,,,,,,,,,,,,,,,,,,,,,,,,,
,,566dedbd57f93300112d0ee2,2024-02-19_02h14.11.992,kallum_motion_pilot,2023.2.2,Win32,166.6666667,566dedbd57f93300112d0ee2,65d2b6c8f2eece985d8e374c,65d2b969c21f565b6fcb1047,0.0399,0.04,1,54,216,137,1,fiveseven,,,,,,,,,,,,,,,,,,,,,,,,,,,,,,,,,,,,,,,,,,,,,,,,,,,,,,,,,,,,,,,,,,,,,,,,,,,,,,,,,,,,,,,,,,,,,,,,,,,,,,,,,,,,,,,,,,,,,,,,,,,,,,,,,,,,,,,,,
,,566dedbd57f93300112d0ee2,2024-02-19_02h14.11.992,kallum_motion_pilot,2023.2.2,Win32,166.6666667,566dedbd57f93300112d0ee2,65d2b6c8f2eece985d8e374c,65d2b969c21f565b6fcb1047,0.04,0.04,1,55,217,65,1,onethree,,,,,,,,,,,,,,,,,,,,,,,,,,,,,,,,,,,,,,,,,,,,,,,,,,,,,,,,,,,,,,,,,,,,,,,,,,,,,,,,,,,,,,,,,,,,,,,,,,,,,,,,,,,,,,,,,,,,,,,,,,,,,,,,,,,,,,,,,
,,566dedbd57f93300112d0ee2,2024-02-19_02h14.11.992,kallum_motion_pilot,2023.2.2,Win32,166.6666667,566dedbd57f93300112d0ee2,65d2b6c8f2eece985d8e374c,65d2b969c21f565b6fcb1047,0.04,0.04,1,56,218,81,1,fiveseven,,,,,,,,,,,,,,,,,,,,,,,,,,,,,,,,,,,,,,,,,,,,,,,,,,,,,,,,,,,,,,,,,,,,,,,,,,,,,,,,,,,,,,,,,,,,,,,,,,,,,,,,,,,,,,,,,,,,,,,,,,,,,,,,,,,,,,,,,
,,566dedbd57f93300112d0ee2,2024-02-19_02h14.11.992,kallum_motion_pilot,2023.2.2,Win32,166.6666667,566dedbd57f93300112d0ee2,65d2b6c8f2eece985d8e374c,65d2b969c21f565b6fcb1047,0.0401,0.0402,1,57,219,90,1,sixfive,,,,,,,,,,,,,,,,,,,,,,,,,,,,,,,,,,,,,,,,,,,,,,,,,,,,,,,,,,,,,,,,,,,,,,,,,,,,,,,,,,,,,,,,,,,,,,,,,,,,,,,,,,,,,,,,,,,,,,,,,,,,,,,,,,,,,,,,,
,,566dedbd57f93300112d0ee2,2024-02-19_02h14.11.992,kallum_motion_pilot,2023.2.2,Win32,166.6666667,566dedbd57f93300112d0ee2,65d2b6c8f2eece985d8e374c,65d2b969c21f565b6fcb1047,0.0402,0.0403,1,58,220,37,1,threefour,,,,,,,,,,,,,,,,,,,,,,,,,,,,,,,,,,,,,,,,,,,,,,,,,,,,,,,,,,,,,,,,,,,,,,,,,,,,,,,,,,,,,,,,,,,,,,,,,,,,,,,,,,,,,,,,,,,,,,,,,,,,,,,,,,,,,,,,,
,,566dedbd57f93300112d0ee2,2024-02-19_02h14.11.992,kallum_motion_pilot,2023.2.2,Win32,166.6666667,566dedbd57f93300112d0ee2,65d2b6c8f2eece985d8e374c,65d2b969c21f565b6fcb1047,0.0403,0.0404,1,59,221,128,1,fivesix,,,,,,,,,,,,,,,,,,,,,,,,,,,,,,,,,,,,,,,,,,,,,,,,,,,,,,,,,,,,,,,,,,,,,,,,,,,,,,,,,,,,,,,,,,,,,,,,,,,,,,,,,,,,,,,,,,,,,,,,,,,,,,,,,,,,,,,,,
,,566dedbd57f93300112d0ee2,2024-02-19_02h14.11.992,kallum_motion_pilot,2023.2.2,Win32,166.6666667,566dedbd57f93300112d0ee2,65d2b6c8f2eece985d8e374c,65d2b969c21f565b6fcb1047,0.0406,0.0407,1,60,222,55,1,fourthree,,,,,,,,,,,,,,,,,,,,,,,,,,,,,,,,,,,,,,,,,,,,,,,,,,,,,,,,,,,,,,,,,,,,,,,,,,,,,,,,,,,,,,,,,,,,,,,,,,,,,,,,,,,,,,,,,,,,,,,,,,,,,,,,,,,,,,,,,
,,566dedbd57f93300112d0ee2,2024-02-19_02h14.11.992,kallum_motion_pilot,2023.2.2,Win32,166.6666667,566dedbd57f93300112d0ee2,65d2b6c8f2eece985d8e374c,65d2b969c21f565b6fcb1047,0.0409,0.041,1,61,223,96,1,fivesix,,,,,,,,,,,,,,,,,,,,,,,,,,,,,,,,,,,,,,,,,,,,,,,,,,,,,,,,,,,,,,,,,,,,,,,,,,,,,,,,,,,,,,,,,,,,,,,,,,,,,,,,,,,,,,,,,,,,,,,,,,,,,,,,,,,,,,,,,
,,566dedbd57f93300112d0ee2,2024-02-19_02h14.11.992,kallum_motion_pilot,2023.2.2,Win32,166.6666667,566dedbd57f93300112d0ee2,65d2b6c8f2eece985d8e374c,65d2b969c21f565b6fcb1047,0.0411,0.0411,1,62,224,126,1,eightsix,,,,,,,,,,,,,,,,,,,,,,,,,,,,,,,,,,,,,,,,,,,,,,,,,,,,,,,,,,,,,,,,,,,,,,,,,,,,,,,,,,,,,,,,,,,,,,,,,,,,,,,,,,,,,,,,,,,,,,,,,,,,,,,,,,,,,,,,,
,,566dedbd57f93300112d0ee2,2024-02-19_02h14.11.992,kallum_motion_pilot,2023.2.2,Win32,166.6666667,566dedbd57f93300112d0ee2,65d2b6c8f2eece985d8e374c,65d2b969c21f565b6fcb1047,0.0412,0.0412,1,63,225,116,1,sevenfive,,,,,,,,,,,,,,,,,,,,,,,,,,,,,,,,,,,,,,,,,,,,,,,,,,,,,,,,,,,,,,,,,,,,,,,,,,,,,,,,,,,,,,,,,,,,,,,,,,,,,,,,,,,,,,,,,,,,,,,,,,,,,,,,,,,,,,,,,
,,566dedbd57f93300112d0ee2,2024-02-19_02h14.11.992,kallum_motion_pilot,2023.2.2,Win32,166.6666667,566dedbd57f93300112d0ee2,65d2b6c8f2eece985d8e374c,65d2b969c21f565b6fcb1047,0.0413,0.0414,1,64,226,30,1,fourtwo,,,,,,,,,,,,,,,,,,,,,,,,,,,,,,,,,,,,,,,,,,,,,,,,,,,,,,,,,,,,,,,,,,,,,,,,,,,,,,,,,,,,,,,,,,,,,,,,,,,,,,,,,,,,,,,,,,,,,,,,,,,,,,,,,,,,,,,,,
,,566dedbd57f93300112d0ee2,2024-02-19_02h14.11.992,kallum_motion_pilot,2023.2.2,Win32,166.6666667,566dedbd57f93300112d0ee2,65d2b6c8f2eece985d8e374c,65d2b969c21f565b6fcb1047,0.0414,0.0414,1,65,227,64,1,onetwo,,,,,,,,,,,,,,,,,,,,,,,,,,,,,,,,,,,,,,,,,,,,,,,,,,,,,,,,,,,,,,,,,,,,,,,,,,,,,,,,,,,,,,,,,,,,,,,,,,,,,,,,,,,,,,,,,,,,,,,,,,,,,,,,,,,,,,,,,
,,566dedbd57f93300112d0ee2,2024-02-19_02h14.11.992,kallum_motion_pilot,2023.2.2,Win32,166.6666667,566dedbd57f93300112d0ee2,65d2b6c8f2eece985d8e374c,65d2b969c21f565b6fcb1047,0.0415,0.0415,1,66,228,146,1,sixfive,,,,,,,,,,,,,,,,,,,,,,,,,,,,,,,,,,,,,,,,,,,,,,,,,,,,,,,,,,,,,,,,,,,,,,,,,,,,,,,,,,,,,,,,,,,,,,,,,,,,,,,,,,,,,,,,,,,,,,,,,,,,,,,,,,,,,,,,,
,,566dedbd57f93300112d0ee2,2024-02-19_02h14.11.992,kallum_motion_pilot,2023.2.2,Win32,166.6666667,566dedbd57f93300112d0ee2,65d2b6c8f2eece985d8e374c,65d2b969c21f565b6fcb1047,0.0415,0.0416,1,67,229,10,1,twoone,,,,,,,,,,,,,,,,,,,,,,,,,,,,,,,,,,,,,,,,,,,,,,,,,,,,,,,,,,,,,,,,,,,,,,,,,,,,,,,,,,,,,,,,,,,,,,,,,,,,,,,,,,,,,,,,,,,,,,,,,,,,,,,,,,,,,,,,,
,,566dedbd57f93300112d0ee2,2024-02-19_02h14.11.992,kallum_motion_pilot,2023.2.2,Win32,166.6666667,566dedbd57f93300112d0ee2,65d2b6c8f2eece985d8e374c,65d2b969c21f565b6fcb1047,0.0417,0.0417,1,68,230,91,1,sixeight,,,,,,,,,,,,,,,,,,,,,,,,,,,,,,,,,,,,,,,,,,,,,,,,,,,,,,,,,,,,,,,,,,,,,,,,,,,,,,,,,,,,,,,,,,,,,,,,,,,,,,,,,,,,,,,,,,,,,,,,,,,,,,,,,,,,,,,,,
,,566dedbd57f93300112d0ee2,2024-02-19_02h14.11.992,kallum_motion_pilot,2023.2.2,Win32,166.6666667,566dedbd57f93300112d0ee2,65d2b6c8f2eece985d8e374c,65d2b969c21f565b6fcb1047,0.0417,0.0417,1,69,231,151,1,eightseven,,,,,,,,,,,,,,,,,,,,,,,,,,,,,,,,,,,,,,,,,,,,,,,,,,,,,,,,,,,,,,,,,,,,,,,,,,,,,,,,,,,,,,,,,,,,,,,,,,,,,,,,,,,,,,,,,,,,,,,,,,,,,,,,,,,,,,,,,
,,566dedbd57f93300112d0ee2,2024-02-19_02h14.11.992,kallum_motion_pilot,2023.2.2,Win32,166.6666667,566dedbd57f93300112d0ee2,65d2b6c8f2eece985d8e374c,65d2b969c21f565b6fcb1047,0.0418,0.0419,1,70,232,39,1,fourthree,,,,,,,,,,,,,,,,,,,,,,,,,,,,,,,,,,,,,,,,,,,,,,,,,,,,,,,,,,,,,,,,,,,,,,,,,,,,,,,,,,,,,,,,,,,,,,,,,,,,,,,,,,,,,,,,,,,,,,,,,,,,,,,,,,,,,,,,,
,,566dedbd57f93300112d0ee2,2024-02-19_02h14.11.992,kallum_motion_pilot,2023.2.2,Win32,166.6666667,566dedbd57f93300112d0ee2,65d2b6c8f2eece985d8e374c,65d2b969c21f565b6fcb1047,0.0419,0.042,1,71,233,16,1,onetwo,,,,,,,,,,,,,,,,,,,,,,,,,,,,,,,,,,,,,,,,,,,,,,,,,,,,,,,,,,,,,,,,,,,,,,,,,,,,,,,,,,,,,,,,,,,,,,,,,,,,,,,,,,,,,,,,,,,,,,,,,,,,,,,,,,,,,,,,,
,,566dedbd57f93300112d0ee2,2024-02-19_02h14.11.992,kallum_motion_pilot,2023.2.2,Win32,166.6666667,566dedbd57f93300112d0ee2,65d2b6c8f2eece985d8e374c,65d2b969c21f565b6fcb1047,0.042,0.042,1,72,234,134,1,eightsix,,,,,,,,,,,,,,,,,,,,,,,,,,,,,,,,,,,,,,,,,,,,,,,,,,,,,,,,,,,,,,,,,,,,,,,,,,,,,,,,,,,,,,,,,,,,,,,,,,,,,,,,,,,,,,,,,,,,,,,,,,,,,,,,,,,,,,,,,
,,566dedbd57f93300112d0ee2,2024-02-19_02h14.11.992,kallum_motion_pilot,2023.2.2,Win32,166.6666667,566dedbd57f93300112d0ee2,65d2b6c8f2eece985d8e374c,65d2b969c21f565b6fcb1047,0.0421,0.0421,1,73,235,56,1,onetwo,,,,,,,,,,,,,,,,,,,,,,,,,,,,,,,,,,,,,,,,,,,,,,,,,,,,,,,,,,,,,,,,,,,,,,,,,,,,,,,,,,,,,,,,,,,,,,,,,,,,,,,,,,,,,,,,,,,,,,,,,,,,,,,,,,,,,,,,,
,,566dedbd57f93300112d0ee2,2024-02-19_02h14.11.992,kallum_motion_pilot,2023.2.2,Win32,166.6666667,566dedbd57f93300112d0ee2,65d2b6c8f2eece985d8e374c,65d2b969c21f565b6fcb1047,0.0422,0.0422,1,74,236,58,1,twoone,,,,,,,,,,,,,,,,,,,,,,,,,,,,,,,,,,,,,,,,,,,,,,,,,,,,,,,,,,,,,,,,,,,,,,,,,,,,,,,,,,,,,,,,,,,,,,,,,,,,,,,,,,,,,,,,,,,,,,,,,,,,,,,,,,,,,,,,,
,,566dedbd57f93300112d0ee2,2024-02-19_02h14.11.992,kallum_motion_pilot,2023.2.2,Win32,166.6666667,566dedbd57f93300112d0ee2,65d2b6c8f2eece985d8e374c,65d2b969c21f565b6fcb1047,0.0422,0.0423,1,75,237,99,1,sixeight,,,,,,,,,,,,,,,,,,,,,,,,,,,,,,,,,,,,,,,,,,,,,,,,,,,,,,,,,,,,,,,,,,,,,,,,,,,,,,,,,,,,,,,,,,,,,,,,,,,,,,,,,,,,,,,,,,,,,,,,,,,,,,,,,,,,,,,,,
,,566dedbd57f93300112d0ee2,2024-02-19_02h14.11.992,kallum_motion_pilot,2023.2.2,Win32,166.6666667,566dedbd57f93300112d0ee2,65d2b6c8f2eece985d8e374c,65d2b969c21f565b6fcb1047,0.0424,0.0424,1,76,238,60,1,threeone,,,,,,,,,,,,,,,,,,,,,,,,,,,,,,,,,,,,,,,,,,,,,,,,,,,,,,,,,,,,,,,,,,,,,,,,,,,,,,,,,,,,,,,,,,,,,,,,,,,,,,,,,,,,,,,,,,,,,,,,,,,,,,,,,,,,,,,,,
,,566dedbd57f93300112d0ee2,2024-02-19_02h14.11.992,kallum_motion_pilot,2023.2.2,Win32,166.6666667,566dedbd57f93300112d0ee2,65d2b6c8f2eece985d8e374c,65d2b969c21f565b6fcb1047,0.0425,0.0425,1,77,239,44,1,threeone,,,,,,,,,,,,,,,,,,,,,,,,,,,,,,,,,,,,,,,,,,,,,,,,,,,,,,,,,,,,,,,,,,,,,,,,,,,,,,,,,,,,,,,,,,,,,,,,,,,,,,,,,,,,,,,,,,,,,,,,,,,,,,,,,,,,,,,,,
,,566dedbd57f93300112d0ee2,2024-02-19_02h14.11.992,kallum_motion_pilot,2023.2.2,Win32,166.6666667,566dedbd57f93300112d0ee2,65d2b6c8f2eece985d8e374c,65d2b969c21f565b6fcb1047,0.0426,0.0426,1,78,240,48,1,onetwo,,,,,,,,,,,,,,,,,,,,,,,,,,,,,,,,,,,,,,,,,,,,,,,,,,,,,,,,,,,,,,,,,,,,,,,,,,,,,,,,,,,,,,,,,,,,,,,,,,,,,,,,,,,,,,,,,,,,,,,,,,,,,,,,,,,,,,,,,
,,566dedbd57f93300112d0ee2,2024-02-19_02h14.11.992,kallum_motion_pilot,2023.2.2,Win32,166.6666667,566dedbd57f93300112d0ee2,65d2b6c8f2eece985d8e374c,65d2b969c21f565b6fcb1047,0.0427,0.0428,1,79,241,50,1,twoone,,,,,,,,,,,,,,,,,,,,,,,,,,,,,,,,,,,,,,,,,,,,,,,,,,,,,,,,,,,,,,,,,,,,,,,,,,,,,,,,,,,,,,,,,,,,,,,,,,,,,,,,,,,,,,,,,,,,,,,,,,,,,,,,,,,,,,,,,
,,566dedbd57f93300112d0ee2,2024-02-19_02h14.11.992,kallum_motion_pilot,2023.2.2,Win32,166.6666667,566dedbd57f93300112d0ee2,65d2b6c8f2eece985d8e374c,65d2b969c21f565b6fcb1047,0.0428,0.0428,1,80,242,158,1,eightsix,,,,,,,,,,,,,,,,,,,,,,,,,,,,,,,,,,,,,,,,,,,,,,,,,,,,,,,,,,,,,,,,,,,,,,,,,,,,,,,,,,,,,,,,,,,,,,,,,,,,,,,,,,,,,,,,,,,,,,,,,,,,,,,,,,,,,,,,,
,,566dedbd57f93300112d0ee2,2024-02-19_02h14.11.992,kallum_motion_pilot,2023.2.2,Win32,166.6666667,566dedbd57f93300112d0ee2,65d2b6c8f2eece985d8e374c,65d2b969c21f565b6fcb1047,0.0428,0.043,1,81,243,13,1,threefour,,,,,,,,,,,,,,,,,,,,,,,,,,,,,,,,,,,,,,,,,,,,,,,,,,,,,,,,,,,,,,,,,,,,,,,,,,,,,,,,,,,,,,,,,,,,,,,,,,,,,,,,,,,,,,,,,,,,,,,,,,,,,,,,,,,,,,,,,
,,566dedbd57f93300112d0ee2,2024-02-19_02h14.11.992,kallum_motion_pilot,2023.2.2,Win32,166.6666667,566dedbd57f93300112d0ee2,65d2b6c8f2eece985d8e374c,65d2b969c21f565b6fcb1047,0.0431,0.0431,1,82,244,6,1,fourtwo,,,,,,,,,,,,,,,,,,,,,,,,,,,,,,,,,,,,,,,,,,,,,,,,,,,,,,,,,,,,,,,,,,,,,,,,,,,,,,,,,,,,,,,,,,,,,,,,,,,,,,,,,,,,,,,,,,,,,,,,,,,,,,,,,,,,,,,,,
,,566dedbd57f93300112d0ee2,2024-02-19_02h14.11.992,kallum_motion_pilot,2023.2.2,Win32,166.6666667,566dedbd57f93300112d0ee2,65d2b6c8f2eece985d8e374c,65d2b969c21f565b6fcb1047,0.0431,0.0432,1,83,245,33,1,onethree,,,,,,,,,,,,,,,,,,,,,,,,,,,,,,,,,,,,,,,,,,,,,,,,,,,,,,,,,,,,,,,,,,,,,,,,,,,,,,,,,,,,,,,,,,,,,,,,,,,,,,,,,,,,,,,,,,,,,,,,,,,,,,,,,,,,,,,,,
,,566dedbd57f93300112d0ee2,2024-02-19_02h14.11.992,kallum_motion_pilot,2023.2.2,Win32,166.6666667,566dedbd57f93300112d0ee2,65d2b6c8f2eece985d8e374c,65d2b969c21f565b6fcb1047,0.0432,0.0433,1,84,246,3,1,twofour,,,,,,,,,,,,,,,,,,,,,,,,,,,,,,,,,,,,,,,,,,,,,,,,,,,,,,,,,,,,,,,,,,,,,,,,,,,,,,,,,,,,,,,,,,,,,,,,,,,,,,,,,,,,,,,,,,,,,,,,,,,,,,,,,,,,,,,,,
,,566dedbd57f93300112d0ee2,2024-02-19_02h14.11.992,kallum_motion_pilot,2023.2.2,Win32,166.6666667,566dedbd57f93300112d0ee2,65d2b6c8f2eece985d8e374c,65d2b969c21f565b6fcb1047,0.0434,0.0434,1,85,247,111,1,eightseven,,,,,,,,,,,,,,,,,,,,,,,,,,,,,,,,,,,,,,,,,,,,,,,,,,,,,,,,,,,,,,,,,,,,,,,,,,,,,,,,,,,,,,,,,,,,,,,,,,,,,,,,,,,,,,,,,,,,,,,,,,,,,,,,,,,,,,,,,
,,566dedbd57f93300112d0ee2,2024-02-19_02h14.11.992,kallum_motion_pilot,2023.2.2,Win32,166.6666667,566dedbd57f93300112d0ee2,65d2b6c8f2eece985d8e374c,65d2b969c21f565b6fcb1047,0.0435,0.0436,1,86,248,88,1,fivesix,,,,,,,,,,,,,,,,,,,,,,,,,,,,,,,,,,,,,,,,,,,,,,,,,,,,,,,,,,,,,,,,,,,,,,,,,,,,,,,,,,,,,,,,,,,,,,,,,,,,,,,,,,,,,,,,,,,,,,,,,,,,,,,,,,,,,,,,,
,,566dedbd57f93300112d0ee2,2024-02-19_02h14.11.992,kallum_motion_pilot,2023.2.2,Win32,166.6666667,566dedbd57f93300112d0ee2,65d2b6c8f2eece985d8e374c,65d2b969c21f565b6fcb1047,0.0437,0.0437,1,87,249,135,1,eightseven,,,,,,,,,,,,,,,,,,,,,,,,,,,,,,,,,,,,,,,,,,,,,,,,,,,,,,,,,,,,,,,,,,,,,,,,,,,,,,,,,,,,,,,,,,,,,,,,,,,,,,,,,,,,,,,,,,,,,,,,,,,,,,,,,,,,,,,,,
,,566dedbd57f93300112d0ee2,2024-02-19_02h14.11.992,kallum_motion_pilot,2023.2.2,Win32,166.6666667,566dedbd57f93300112d0ee2,65d2b6c8f2eece985d8e374c,65d2b969c21f565b6fcb1047,0.0438,0.0439,1,88,250,54,1,fourtwo,,,,,,,,,,,,,,,,,,,,,,,,,,,,,,,,,,,,,,,,,,,,,,,,,,,,,,,,,,,,,,,,,,,,,,,,,,,,,,,,,,,,,,,,,,,,,,,,,,,,,,,,,,,,,,,,,,,,,,,,,,,,,,,,,,,,,,,,,
,,566dedbd57f93300112d0ee2,2024-02-19_02h14.11.992,kallum_motion_pilot,2023.2.2,Win32,166.6666667,566dedbd57f93300112d0ee2,65d2b6c8f2eece985d8e374c,65d2b969c21f565b6fcb1047,0.0439,0.044,1,89,251,150,1,eightsix,,,,,,,,,,,,,,,,,,,,,,,,,,,,,,,,,,,,,,,,,,,,,,,,,,,,,,,,,,,,,,,,,,,,,,,,,,,,,,,,,,,,,,,,,,,,,,,,,,,,,,,,,,,,,,,,,,,,,,,,,,,,,,,,,,,,,,,,,
,,566dedbd57f93300112d0ee2,2024-02-19_02h14.11.992,kallum_motion_pilot,2023.2.2,Win32,166.6666667,566dedbd57f93300112d0ee2,65d2b6c8f2eece985d8e374c,65d2b969c21f565b6fcb1047,0.0441,0.0441,1,90,252,92,1,sevenfive,,,,,,,,,,,,,,,,,,,,,,,,,,,,,,,,,,,,,,,,,,,,,,,,,,,,,,,,,,,,,,,,,,,,,,,,,,,,,,,,,,,,,,,,,,,,,,,,,,,,,,,,,,,,,,,,,,,,,,,,,,,,,,,,,,,,,,,,,
,,566dedbd57f93300112d0ee2,2024-02-19_02h14.11.992,kallum_motion_pilot,2023.2.2,Win32,166.6666667,566dedbd57f93300112d0ee2,65d2b6c8f2eece985d8e374c,65d2b969c21f565b6fcb1047,0.0441,0.0442,1,91,253,115,1,sixeight,,,,,,,,,,,,,,,,,,,,,,,,,,,,,,,,,,,,,,,,,,,,,,,,,,,,,,,,,,,,,,,,,,,,,,,,,,,,,,,,,,,,,,,,,,,,,,,,,,,,,,,,,,,,,,,,,,,,,,,,,,,,,,,,,,,,,,,,,
,,566dedbd57f93300112d0ee2,2024-02-19_02h14.11.992,kallum_motion_pilot,2023.2.2,Win32,166.6666667,566dedbd57f93300112d0ee2,65d2b6c8f2eece985d8e374c,65d2b969c21f565b6fcb1047,0.0442,0.0443,1,92,254,7,1,fourthree,,,,,,,,,,,,,,,,,,,,,,,,,,,,,,,,,,,,,,,,,,,,,,,,,,,,,,,,,,,,,,,,,,,,,,,,,,,,,,,,,,,,,,,,,,,,,,,,,,,,,,,,,,,,,,,,,,,,,,,,,,,,,,,,,,,,,,,,,
,,566dedbd57f93300112d0ee2,2024-02-19_02h14.11.992,kallum_motion_pilot,2023.2.2,Win32,166.6666667,566dedbd57f93300112d0ee2,65d2b6c8f2eece985d8e374c,65d2b969c21f565b6fcb1047,0.0443,0.0443,1,93,255,157,1,seveneight,,,,,,,,,,,,,,,,,,,,,,,,,,,,,,,,,,,,,,,,,,,,,,,,,,,,,,,,,,,,,,,,,,,,,,,,,,,,,,,,,,,,,,,,,,,,,,,,,,,,,,,,,,,,,,,,,,,,,,,,,,,,,,,,,,,,,,,,,
,,566dedbd57f93300112d0ee2,2024-02-19_02h14.11.992,kallum_motion_pilot,2023.2.2,Win32,166.6666667,566dedbd57f93300112d0ee2,65d2b6c8f2eece985d8e374c,65d2b969c21f565b6fcb1047,0.0444,0.0445,1,94,256,12,1,threeone,,,,,,,,,,,,,,,,,,,,,,,,,,,,,,,,,,,,,,,,,,,,,,,,,,,,,,,,,,,,,,,,,,,,,,,,,,,,,,,,,,,,,,,,,,,,,,,,,,,,,,,,,,,,,,,,,,,,,,,,,,,,,,,,,,,,,,,,,
,,566dedbd57f93300112d0ee2,2024-02-19_02h14.11.992,kallum_motion_pilot,2023.2.2,Win32,166.6666667,566dedbd57f93300112d0ee2,65d2b6c8f2eece985d8e374c,65d2b969c21f565b6fcb1047,0.0445,0.0446,1,95,257,31,1,fourthree,,,,,,,,,,,,,,,,,,,,,,,,,,,,,,,,,,,,,,,,,,,,,,,,,,,,,,,,,,,,,,,,,,,,,,,,,,,,,,,,,,,,,,,,,,,,,,,,,,,,,,,,,,,,,,,,,,,,,,,,,,,,,,,,,,,,,,,,,
,,566dedbd57f93300112d0ee2,2024-02-19_02h14.11.992,kallum_motion_pilot,2023.2.2,Win32,166.6666667,566dedbd57f93300112d0ee2,65d2b6c8f2eece985d8e374c,65d2b969c21f565b6fcb1047,0.0446,0.0447,1,96,258,69,1,threefour,,,,,,,,,,,,,,,,,,,,,,,,,,,,,,,,,,,,,,,,,,,,,,,,,,,,,,,,,,,,,,,,,,,,,,,,,,,,,,,,,,,,,,,,,,,,,,,,,,,,,,,,,,,,,,,,,,,,,,,,,,,,,,,,,,,,,,,,,
,,566dedbd57f93300112d0ee2,2024-02-19_02h14.11.992,kallum_motion_pilot,2023.2.2,Win32,166.6666667,566dedbd57f93300112d0ee2,65d2b6c8f2eece985d8e374c,65d2b969c21f565b6fcb1047,0.0447,0.0447,1,97,259,70,1,fourtwo,,,,,,,,,,,,,,,,,,,,,,,,,,,,,,,,,,,,,,,,,,,,,,,,,,,,,,,,,,,,,,,,,,,,,,,,,,,,,,,,,,,,,,,,,,,,,,,,,,,,,,,,,,,,,,,,,,,,,,,,,,,,,,,,,,,,,,,,,
,,566dedbd57f93300112d0ee2,2024-02-19_02h14.11.992,kallum_motion_pilot,2023.2.2,Win32,166.6666667,566dedbd57f93300112d0ee2,65d2b6c8f2eece985d8e374c,65d2b969c21f565b6fcb1047,0.0447,0.0448,1,98,260,47,1,fourthree,,,,,,,,,,,,,,,,,,,,,,,,,,,,,,,,,,,,,,,,,,,,,,,,,,,,,,,,,,,,,,,,,,,,,,,,,,,,,,,,,,,,,,,,,,,,,,,,,,,,,,,,,,,,,,,,,,,,,,,,,,,,,,,,,,,,,,,,,
,,566dedbd57f93300112d0ee2,2024-02-19_02h14.11.992,kallum_motion_pilot,2023.2.2,Win32,166.6666667,566dedbd57f93300112d0ee2,65d2b6c8f2eece985d8e374c,65d2b969c21f565b6fcb1047,0.0448,0.0449,1,99,261,153,1,fiveseven,,,,,,,,,,,,,,,,,,,,,,,,,,,,,,,,,,,,,,,,,,,,,,,,,,,,,,,,,,,,,,,,,,,,,,,,,,,,,,,,,,,,,,,,,,,,,,,,,,,,,,,,,,,,,,,,,,,,,,,,,,,,,,,,,,,,,,,,,
,,566dedbd57f93300112d0ee2,2024-02-19_02h14.11.992,kallum_motion_pilot,2023.2.2,Win32,166.6666667,566dedbd57f93300112d0ee2,65d2b6c8f2eece985d8e374c,65d2b969c21f565b6fcb1047,0.0449,0.045,1,100,262,2,1,twoone,,,,,,,,,,,,,,,,,,,,,,,,,,,,,,,,,,,,,,,,,,,,,,,,,,,,,,,,,,,,,,,,,,,,,,,,,,,,,,,,,,,,,,,,,,,,,,,,,,,,,,,,,,,,,,,,,,,,,,,,,,,,,,,,,,,,,,,,,
,,566dedbd57f93300112d0ee2,2024-02-19_02h14.11.992,kallum_motion_pilot,2023.2.2,Win32,166.6666667,566dedbd57f93300112d0ee2,65d2b6c8f2eece985d8e374c,65d2b969c21f565b6fcb1047,0.045,0.0451,1,101,263,161,1,fiveseven,,,,,,,,,,,,,,,,,,,,,,,,,,,,,,,,,,,,,,,,,,,,,,,,,,,,,,,,,,,,,,,,,,,,,,,,,,,,,,,,,,,,,,,,,,,,,,,,,,,,,,,,,,,,,,,,,,,,,,,,,,,,,,,,,,,,,,,,,
,,566dedbd57f93300112d0ee2,2024-02-19_02h14.11.992,kallum_motion_pilot,2023.2.2,Win32,166.6666667,566dedbd57f93300112d0ee2,65d2b6c8f2eece985d8e374c,65d2b969c21f565b6fcb1047,0.0451,0.0451,1,102,264,85,1,seveneight,,,,,,,,,,,,,,,,,,,,,,,,,,,,,,,,,,,,,,,,,,,,,,,,,,,,,,,,,,,,,,,,,,,,,,,,,,,,,,,,,,,,,,,,,,,,,,,,,,,,,,,,,,,,,,,,,,,,,,,,,,,,,,,,,,,,,,,,,
,,566dedbd57f93300112d0ee2,2024-02-19_02h14.11.992,kallum_motion_pilot,2023.2.2,Win32,166.6666667,566dedbd57f93300112d0ee2,65d2b6c8f2eece985d8e374c,65d2b969c21f565b6fcb1047,0.0452,0.0453,1,103,265,57,1,onethree,,,,,,,,,,,,,,,,,,,,,,,,,,,,,,,,,,,,,,,,,,,,,,,,,,,,,,,,,,,,,,,,,,,,,,,,,,,,,,,,,,,,,,,,,,,,,,,,,,,,,,,,,,,,,,,,,,,,,,,,,,,,,,,,,,,,,,,,,
,,566dedbd57f93300112d0ee2,2024-02-19_02h14.11.992,kallum_motion_pilot,2023.2.2,Win32,166.6666667,566dedbd57f93300112d0ee2,65d2b6c8f2eece985d8e374c,65d2b969c21f565b6fcb1047,0.0453,0.0453,1,104,266,80,1,fivesix,,,,,,,,,,,,,,,,,,,,,,,,,,,,,,,,,,,,,,,,,,,,,,,,,,,,,,,,,,,,,,,,,,,,,,,,,,,,,,,,,,,,,,,,,,,,,,,,,,,,,,,,,,,,,,,,,,,,,,,,,,,,,,,,,,,,,,,,,
,,566dedbd57f93300112d0ee2,2024-02-19_02h14.11.992,kallum_motion_pilot,2023.2.2,Win32,166.6666667,566dedbd57f93300112d0ee2,65d2b6c8f2eece985d8e374c,65d2b969c21f565b6fcb1047,0.0453,0.0454,1,105,267,94,1,eightsix,,,,,,,,,,,,,,,,,,,,,,,,,,,,,,,,,,,,,,,,,,,,,,,,,,,,,,,,,,,,,,,,,,,,,,,,,,,,,,,,,,,,,,,,,,,,,,,,,,,,,,,,,,,,,,,,,,,,,,,,,,,,,,,,,,,,,,,,,
,,566dedbd57f93300112d0ee2,2024-02-19_02h14.11.992,kallum_motion_pilot,2023.2.2,Win32,166.6666667,566dedbd57f93300112d0ee2,65d2b6c8f2eece985d8e374c,65d2b969c21f565b6fcb1047,0.0456,0.0456,1,106,268,140,1,sevenfive,,,,,,,,,,,,,,,,,,,,,,,,,,,,,,,,,,,,,,,,,,,,,,,,,,,,,,,,,,,,,,,,,,,,,,,,,,,,,,,,,,,,,,,,,,,,,,,,,,,,,,,,,,,,,,,,,,,,,,,,,,,,,,,,,,,,,,,,,
,,566dedbd57f93300112d0ee2,2024-02-19_02h14.11.992,kallum_motion_pilot,2023.2.2,Win32,166.6666667,566dedbd57f93300112d0ee2,65d2b6c8f2eece985d8e374c,65d2b969c21f565b6fcb1047,0.0456,0.0456,1,107,269,103,1,eightseven,,,,,,,,,,,,,,,,,,,,,,,,,,,,,,,,,,,,,,,,,,,,,,,,,,,,,,,,,,,,,,,,,,,,,,,,,,,,,,,,,,,,,,,,,,,,,,,,,,,,,,,,,,,,,,,,,,,,,,,,,,,,,,,,,,,,,,,,,
,,566dedbd57f93300112d0ee2,2024-02-19_02h14.11.992,kallum_motion_pilot,2023.2.2,Win32,166.6666667,566dedbd57f93300112d0ee2,65d2b6c8f2eece985d8e374c,65d2b969c21f565b6fcb1047,0.0457,0.0458,1,108,270,67,1,twofour,,,,,,,,,,,,,,,,,,,,,,,,,,,,,,,,,,,,,,,,,,,,,,,,,,,,,,,,,,,,,,,,,,,,,,,,,,,,,,,,,,,,,,,,,,,,,,,,,,,,,,,,,,,,,,,,,,,,,,,,,,,,,,,,,,,,,,,,,
,,566dedbd57f93300112d0ee2,2024-02-19_02h14.11.992,kallum_motion_pilot,2023.2.2,Win32,166.6666667,566dedbd57f93300112d0ee2,65d2b6c8f2eece985d8e374c,65d2b969c21f565b6fcb1047,0.0458,0.0458,1,109,271,51,1,twofour,,,,,,,,,,,,,,,,,,,,,,,,,,,,,,,,,,,,,,,,,,,,,,,,,,,,,,,,,,,,,,,,,,,,,,,,,,,,,,,,,,,,,,,,,,,,,,,,,,,,,,,,,,,,,,,,,,,,,,,,,,,,,,,,,,,,,,,,,
,,566dedbd57f93300112d0ee2,2024-02-19_02h14.11.992,kallum_motion_pilot,2023.2.2,Win32,166.6666667,566dedbd57f93300112d0ee2,65d2b6c8f2eece985d8e374c,65d2b969c21f565b6fcb1047,0.0458,0.0459,1,110,272,112,1,fivesix,,,,,,,,,,,,,,,,,,,,,,,,,,,,,,,,,,,,,,,,,,,,,,,,,,,,,,,,,,,,,,,,,,,,,,,,,,,,,,,,,,,,,,,,,,,,,,,,,,,,,,,,,,,,,,,,,,,,,,,,,,,,,,,,,,,,,,,,,
,,566dedbd57f93300112d0ee2,2024-02-19_02h14.11.992,kallum_motion_pilot,2023.2.2,Win32,166.6666667,566dedbd57f93300112d0ee2,65d2b6c8f2eece985d8e374c,65d2b969c21f565b6fcb1047,0.0459,0.046,1,111,273,24,1,onetwo,,,,,,,,,,,,,,,,,,,,,,,,,,,,,,,,,,,,,,,,,,,,,,,,,,,,,,,,,,,,,,,,,,,,,,,,,,,,,,,,,,,,,,,,,,,,,,,,,,,,,,,,,,,,,,,,,,,,,,,,,,,,,,,,,,,,,,,,,
,,566dedbd57f93300112d0ee2,2024-02-19_02h14.11.992,kallum_motion_pilot,2023.2.2,Win32,166.6666667,566dedbd57f93300112d0ee2,65d2b6c8f2eece985d8e374c,65d2b969c21f565b6fcb1047,0.046,0.0461,1,112,274,123,1,sixeight,,,,,,,,,,,,,,,,,,,,,,,,,,,,,,,,,,,,,,,,,,,,,,,,,,,,,,,,,,,,,,,,,,,,,,,,,,,,,,,,,,,,,,,,,,,,,,,,,,,,,,,,,,,,,,,,,,,,,,,,,,,,,,,,,,,,,,,,,
,,566dedbd57f93300112d0ee2,2024-02-19_02h14.11.992,kallum_motion_pilot,2023.2.2,Win32,166.6666667,566dedbd57f93300112d0ee2,65d2b6c8f2eece985d8e374c,65d2b969c21f565b6fcb1047,0.0461,0.0461,1,113,275,83,1,sixeight,,,,,,,,,,,,,,,,,,,,,,,,,,,,,,,,,,,,,,,,,,,,,,,,,,,,,,,,,,,,,,,,,,,,,,,,,,,,,,,,,,,,,,,,,,,,,,,,,,,,,,,,,,,,,,,,,,,,,,,,,,,,,,,,,,,,,,,,,
,,566dedbd57f93300112d0ee2,2024-02-19_02h14.11.992,kallum_motion_pilot,2023.2.2,Win32,166.6666667,566dedbd57f93300112d0ee2,65d2b6c8f2eece985d8e374c,65d2b969c21f565b6fcb1047,0.0462,0.0462,1,114,276,8,1,onetwo,,,,,,,,,,,,,,,,,,,,,,,,,,,,,,,,,,,,,,,,,,,,,,,,,,,,,,,,,,,,,,,,,,,,,,,,,,,,,,,,,,,,,,,,,,,,,,,,,,,,,,,,,,,,,,,,,,,,,,,,,,,,,,,,,,,,,,,,,
,,566dedbd57f93300112d0ee2,2024-02-19_02h14.11.992,kallum_motion_pilot,2023.2.2,Win32,166.6666667,566dedbd57f93300112d0ee2,65d2b6c8f2eece985d8e374c,65d2b969c21f565b6fcb1047,0.0462,0.0463,1,115,277,4,1,threeone,,,,,,,,,,,,,,,,,,,,,,,,,,,,,,,,,,,,,,,,,,,,,,,,,,,,,,,,,,,,,,,,,,,,,,,,,,,,,,,,,,,,,,,,,,,,,,,,,,,,,,,,,,,,,,,,,,,,,,,,,,,,,,,,,,,,,,,,,
