startup.started,startup.stopped,Prolific ID*,date,expName,psychopyVersion,OS,frameRate,participant,study_id,session,stimpositions.started,stimpositions.stopped,hardcoded_stimulus_positions.thisRepN,hardcoded_stimulus_positions.thisTrialN,hardcoded_stimulus_positions.thisN,hardcoded_stimulus_positions.thisIndex,hardcoded_stimulus_positions.ran,StimulusPos,stimorientation.started,stimorientation.stopped,prac_stimorientation_import_loop.thisRepN,prac_stimorientation_import_loop.thisTrialN,prac_stimorientation_import_loop.thisN,prac_stimorientation_import_loop.thisIndex,prac_stimorientation_import_loop.ran,Stimorientation,welcome_instr.started,welcome_instr.stopped,key_resp.keys,key_resp.rt,key_resp.duration,response_steppedout_1.started,response_steppedout_1.stopped,key_resp_20.keys,key_resp_20.rt,key_resp_20.duration,response_steppedout_2.started,response_steppedout_2.stopped,key_resp_19.keys,key_resp_19.rt,key_resp_19.duration,stim_response_instr.started,stim_response_instr.stopped,key_resp_15.keys,key_resp_15.rt,key_resp_15.duration,direction_instr_2.started,direction_instr_2.stopped,key_resp_9.keys,key_resp_9.rt,key_resp_9.duration,instr_prac.started,instr_prac.stopped,key_resp_10.keys,key_resp_10.rt,key_resp_10.duration,Stim1_display_prac.started,Stim1_display_prac.stopped,Ecc,Circle1_ori,Circle2_ori,response_prac.started,similarity,response_time,response_prac.stopped,mouse_5.x,mouse_5.y,mouse_5.leftButton,mouse_5.midButton,mouse_5.rightButton,mouse_5.clicked_name,responseprac_feedback.started,responseprac_feedback.stopped,summary2_prac.started,summary2_prac.stopped,mouse_6.x,mouse_6.y,mouse_6.leftButton,mouse_6.midButton,mouse_6.rightButton,mouse_6.clicked_name,duringprac.thisRepN,duringprac.thisTrialN,duringprac.thisN,duringprac.thisIndex,duringprac.ran,begin.started,begin.stopped,key_resp_22.keys,key_resp_22.rt,key_resp_22.duration,Stim1_display.started,Stim1_display.stopped,circle1_ori,circle2_ori,circle1_SF,circle2_SF,response.started,response.stopped,mouse.x,mouse.y,mouse.leftButton,mouse.midButton,mouse.rightButton,mouse.clicked_name,trialnumber,double_pass.thisRepN,double_pass.thisTrialN,double_pass.thisN,double_pass.thisIndex,double_pass.ran,double_pass.order,main_trial.thisRepN,main_trial.thisTrialN,main_trial.thisN,main_trial.thisIndex,main_trial.ran,main_trial.order,Trial_Counter,Catch,Frequencies,response_2.started,response_2.stopped,mouse_2.x,mouse_2.y,mouse_2.leftButton,mouse_2.midButton,mouse_2.rightButton,mouse_2.clicked_name,special_trial.started,special_trial.stopped,catch_1.started,catch_1.stopped,mouse_3.x,mouse_3.y,mouse_3.leftButton,mouse_3.midButton,mouse_3.rightButton,catchresponse,catchnumber,response_time_catch,response_sum.started,response_sum.stopped,mouse_11.x,mouse_11.y,mouse_11.leftButton,mouse_11.midButton,mouse_11.rightButton,flip_presentation_sequence_for_double_pass.started,flip_presentation_sequence_for_double_pass.stopped,goodbye.started,goodbye.stopped,key_resp_3.keys,key_resp_3.rt,key_resp_3.duration
0.0004,0.0004,5865dd647fbbcd00013973b8,2024-02-19_02h18.32.405,kallum_motion_pilot,2023.2.2,Win32,59.52380952,5865dd647fbbcd00013973b8,65d2b6c8f2eece985d8e374c,65d2b82cf340fcf7c13cd399,,,,,,,,,,,,,,,,,,,,,,,,,,,,,,,,,,,,,,,,,,,,,,,,,,,,,,,,,,,,,,,,,,,,,,,,,,,,,,,,,,,,,,,,,,,,,,,,,,,,,,,,,,,,,,,,,,,,,,,,,,,,,,,,,,,,,,,,,,,,,,,,,
,,5865dd647fbbcd00013973b8,2024-02-19_02h18.32.405,kallum_motion_pilot,2023.2.2,Win32,59.52380952,5865dd647fbbcd00013973b8,65d2b6c8f2eece985d8e374c,65d2b82cf340fcf7c13cd399,0.0155,0.0156,0,0,0,46,1,fourtwo,,,,,,,,,,,,,,,,,,,,,,,,,,,,,,,,,,,,,,,,,,,,,,,,,,,,,,,,,,,,,,,,,,,,,,,,,,,,,,,,,,,,,,,,,,,,,,,,,,,,,,,,,,,,,,,,,,,,,,,,,,,,,,,,,,,,,,,,,
,,5865dd647fbbcd00013973b8,2024-02-19_02h18.32.405,kallum_motion_pilot,2023.2.2,Win32,59.52380952,5865dd647fbbcd00013973b8,65d2b6c8f2eece985d8e374c,65d2b82cf340fcf7c13cd399,0.0157,0.0157,0,1,1,134,1,eightsix,,,,,,,,,,,,,,,,,,,,,,,,,,,,,,,,,,,,,,,,,,,,,,,,,,,,,,,,,,,,,,,,,,,,,,,,,,,,,,,,,,,,,,,,,,,,,,,,,,,,,,,,,,,,,,,,,,,,,,,,,,,,,,,,,,,,,,,,,
,,5865dd647fbbcd00013973b8,2024-02-19_02h18.32.405,kallum_motion_pilot,2023.2.2,Win32,59.52380952,5865dd647fbbcd00013973b8,65d2b6c8f2eece985d8e374c,65d2b82cf340fcf7c13cd399,0.0158,0.0159,0,2,2,122,1,sixfive,,,,,,,,,,,,,,,,,,,,,,,,,,,,,,,,,,,,,,,,,,,,,,,,,,,,,,,,,,,,,,,,,,,,,,,,,,,,,,,,,,,,,,,,,,,,,,,,,,,,,,,,,,,,,,,,,,,,,,,,,,,,,,,,,,,,,,,,,
,,5865dd647fbbcd00013973b8,2024-02-19_02h18.32.405,kallum_motion_pilot,2023.2.2,Win32,59.52380952,5865dd647fbbcd00013973b8,65d2b6c8f2eece985d8e374c,65d2b82cf340fcf7c13cd399,0.016,0.016,0,3,3,128,1,fivesix,,,,,,,,,,,,,,,,,,,,,,,,,,,,,,,,,,,,,,,,,,,,,,,,,,,,,,,,,,,,,,,,,,,,,,,,,,,,,,,,,,,,,,,,,,,,,,,,,,,,,,,,,,,,,,,,,,,,,,,,,,,,,,,,,,,,,,,,,
,,5865dd647fbbcd00013973b8,2024-02-19_02h18.32.405,kallum_motion_pilot,2023.2.2,Win32,59.52380952,5865dd647fbbcd00013973b8,65d2b6c8f2eece985d8e374c,65d2b82cf340fcf7c13cd399,0.0161,0.0161,0,4,4,56,1,onetwo,,,,,,,,,,,,,,,,,,,,,,,,,,,,,,,,,,,,,,,,,,,,,,,,,,,,,,,,,,,,,,,,,,,,,,,,,,,,,,,,,,,,,,,,,,,,,,,,,,,,,,,,,,,,,,,,,,,,,,,,,,,,,,,,,,,,,,,,,
,,5865dd647fbbcd00013973b8,2024-02-19_02h18.32.405,kallum_motion_pilot,2023.2.2,Win32,59.52380952,5865dd647fbbcd00013973b8,65d2b6c8f2eece985d8e374c,65d2b82cf340fcf7c13cd399,0.0162,0.0162,0,5,5,93,1,seveneight,,,,,,,,,,,,,,,,,,,,,,,,,,,,,,,,,,,,,,,,,,,,,,,,,,,,,,,,,,,,,,,,,,,,,,,,,,,,,,,,,,,,,,,,,,,,,,,,,,,,,,,,,,,,,,,,,,,,,,,,,,,,,,,,,,,,,,,,,
,,5865dd647fbbcd00013973b8,2024-02-19_02h18.32.405,kallum_motion_pilot,2023.2.2,Win32,59.52380952,5865dd647fbbcd00013973b8,65d2b6c8f2eece985d8e374c,65d2b82cf340fcf7c13cd399,0.0162,0.0163,0,6,6,112,1,fivesix,,,,,,,,,,,,,,,,,,,,,,,,,,,,,,,,,,,,,,,,,,,,,,,,,,,,,,,,,,,,,,,,,,,,,,,,,,,,,,,,,,,,,,,,,,,,,,,,,,,,,,,,,,,,,,,,,,,,,,,,,,,,,,,,,,,,,,,,,
,,5865dd647fbbcd00013973b8,2024-02-19_02h18.32.405,kallum_motion_pilot,2023.2.2,Win32,59.52380952,5865dd647fbbcd00013973b8,65d2b6c8f2eece985d8e374c,65d2b82cf340fcf7c13cd399,0.0163,0.0163,0,7,7,60,1,threeone,,,,,,,,,,,,,,,,,,,,,,,,,,,,,,,,,,,,,,,,,,,,,,,,,,,,,,,,,,,,,,,,,,,,,,,,,,,,,,,,,,,,,,,,,,,,,,,,,,,,,,,,,,,,,,,,,,,,,,,,,,,,,,,,,,,,,,,,,
,,5865dd647fbbcd00013973b8,2024-02-19_02h18.32.405,kallum_motion_pilot,2023.2.2,Win32,59.52380952,5865dd647fbbcd00013973b8,65d2b6c8f2eece985d8e374c,65d2b82cf340fcf7c13cd399,0.0164,0.0164,0,8,8,141,1,seveneight,,,,,,,,,,,,,,,,,,,,,,,,,,,,,,,,,,,,,,,,,,,,,,,,,,,,,,,,,,,,,,,,,,,,,,,,,,,,,,,,,,,,,,,,,,,,,,,,,,,,,,,,,,,,,,,,,,,,,,,,,,,,,,,,,,,,,,,,,
,,5865dd647fbbcd00013973b8,2024-02-19_02h18.32.405,kallum_motion_pilot,2023.2.2,Win32,59.52380952,5865dd647fbbcd00013973b8,65d2b6c8f2eece985d8e374c,65d2b82cf340fcf7c13cd399,0.0165,0.0165,0,9,9,76,1,threeone,,,,,,,,,,,,,,,,,,,,,,,,,,,,,,,,,,,,,,,,,,,,,,,,,,,,,,,,,,,,,,,,,,,,,,,,,,,,,,,,,,,,,,,,,,,,,,,,,,,,,,,,,,,,,,,,,,,,,,,,,,,,,,,,,,,,,,,,,
,,5865dd647fbbcd00013973b8,2024-02-19_02h18.32.405,kallum_motion_pilot,2023.2.2,Win32,59.52380952,5865dd647fbbcd00013973b8,65d2b6c8f2eece985d8e374c,65d2b82cf340fcf7c13cd399,0.0166,0.0166,0,10,10,48,1,onetwo,,,,,,,,,,,,,,,,,,,,,,,,,,,,,,,,,,,,,,,,,,,,,,,,,,,,,,,,,,,,,,,,,,,,,,,,,,,,,,,,,,,,,,,,,,,,,,,,,,,,,,,,,,,,,,,,,,,,,,,,,,,,,,,,,,,,,,,,,
,,5865dd647fbbcd00013973b8,2024-02-19_02h18.32.405,kallum_motion_pilot,2023.2.2,Win32,59.52380952,5865dd647fbbcd00013973b8,65d2b6c8f2eece985d8e374c,65d2b82cf340fcf7c13cd399,0.0166,0.0167,0,11,11,118,1,eightsix,,,,,,,,,,,,,,,,,,,,,,,,,,,,,,,,,,,,,,,,,,,,,,,,,,,,,,,,,,,,,,,,,,,,,,,,,,,,,,,,,,,,,,,,,,,,,,,,,,,,,,,,,,,,,,,,,,,,,,,,,,,,,,,,,,,,,,,,,
,,5865dd647fbbcd00013973b8,2024-02-19_02h18.32.405,kallum_motion_pilot,2023.2.2,Win32,59.52380952,5865dd647fbbcd00013973b8,65d2b6c8f2eece985d8e374c,65d2b82cf340fcf7c13cd399,0.0167,0.0168,0,12,12,67,1,twofour,,,,,,,,,,,,,,,,,,,,,,,,,,,,,,,,,,,,,,,,,,,,,,,,,,,,,,,,,,,,,,,,,,,,,,,,,,,,,,,,,,,,,,,,,,,,,,,,,,,,,,,,,,,,,,,,,,,,,,,,,,,,,,,,,,,,,,,,,
,,5865dd647fbbcd00013973b8,2024-02-19_02h18.32.405,kallum_motion_pilot,2023.2.2,Win32,59.52380952,5865dd647fbbcd00013973b8,65d2b6c8f2eece985d8e374c,65d2b82cf340fcf7c13cd399,0.0168,0.0168,0,13,13,78,1,fourtwo,,,,,,,,,,,,,,,,,,,,,,,,,,,,,,,,,,,,,,,,,,,,,,,,,,,,,,,,,,,,,,,,,,,,,,,,,,,,,,,,,,,,,,,,,,,,,,,,,,,,,,,,,,,,,,,,,,,,,,,,,,,,,,,,,,,,,,,,,
,,5865dd647fbbcd00013973b8,2024-02-19_02h18.32.405,kallum_motion_pilot,2023.2.2,Win32,59.52380952,5865dd647fbbcd00013973b8,65d2b6c8f2eece985d8e374c,65d2b82cf340fcf7c13cd399,0.0168,0.0168,0,14,14,13,1,threefour,,,,,,,,,,,,,,,,,,,,,,,,,,,,,,,,,,,,,,,,,,,,,,,,,,,,,,,,,,,,,,,,,,,,,,,,,,,,,,,,,,,,,,,,,,,,,,,,,,,,,,,,,,,,,,,,,,,,,,,,,,,,,,,,,,,,,,,,,
,,5865dd647fbbcd00013973b8,2024-02-19_02h18.32.405,kallum_motion_pilot,2023.2.2,Win32,59.52380952,5865dd647fbbcd00013973b8,65d2b6c8f2eece985d8e374c,65d2b82cf340fcf7c13cd399,0.0169,0.0169,0,15,15,84,1,sevenfive,,,,,,,,,,,,,,,,,,,,,,,,,,,,,,,,,,,,,,,,,,,,,,,,,,,,,,,,,,,,,,,,,,,,,,,,,,,,,,,,,,,,,,,,,,,,,,,,,,,,,,,,,,,,,,,,,,,,,,,,,,,,,,,,,,,,,,,,,
,,5865dd647fbbcd00013973b8,2024-02-19_02h18.32.405,kallum_motion_pilot,2023.2.2,Win32,59.52380952,5865dd647fbbcd00013973b8,65d2b6c8f2eece985d8e374c,65d2b82cf340fcf7c13cd399,0.017,0.017,0,16,16,86,1,eightsix,,,,,,,,,,,,,,,,,,,,,,,,,,,,,,,,,,,,,,,,,,,,,,,,,,,,,,,,,,,,,,,,,,,,,,,,,,,,,,,,,,,,,,,,,,,,,,,,,,,,,,,,,,,,,,,,,,,,,,,,,,,,,,,,,,,,,,,,,
,,5865dd647fbbcd00013973b8,2024-02-19_02h18.32.405,kallum_motion_pilot,2023.2.2,Win32,59.52380952,5865dd647fbbcd00013973b8,65d2b6c8f2eece985d8e374c,65d2b82cf340fcf7c13cd399,0.017,0.0171,0,17,17,55,1,fourthree,,,,,,,,,,,,,,,,,,,,,,,,,,,,,,,,,,,,,,,,,,,,,,,,,,,,,,,,,,,,,,,,,,,,,,,,,,,,,,,,,,,,,,,,,,,,,,,,,,,,,,,,,,,,,,,,,,,,,,,,,,,,,,,,,,,,,,,,,
,,5865dd647fbbcd00013973b8,2024-02-19_02h18.32.405,kallum_motion_pilot,2023.2.2,Win32,59.52380952,5865dd647fbbcd00013973b8,65d2b6c8f2eece985d8e374c,65d2b82cf340fcf7c13cd399,0.0171,0.0171,0,18,18,90,1,sixfive,,,,,,,,,,,,,,,,,,,,,,,,,,,,,,,,,,,,,,,,,,,,,,,,,,,,,,,,,,,,,,,,,,,,,,,,,,,,,,,,,,,,,,,,,,,,,,,,,,,,,,,,,,,,,,,,,,,,,,,,,,,,,,,,,,,,,,,,,
,,5865dd647fbbcd00013973b8,2024-02-19_02h18.32.405,kallum_motion_pilot,2023.2.2,Win32,59.52380952,5865dd647fbbcd00013973b8,65d2b6c8f2eece985d8e374c,65d2b82cf340fcf7c13cd399,0.0172,0.0172,0,19,19,74,1,twoone,,,,,,,,,,,,,,,,,,,,,,,,,,,,,,,,,,,,,,,,,,,,,,,,,,,,,,,,,,,,,,,,,,,,,,,,,,,,,,,,,,,,,,,,,,,,,,,,,,,,,,,,,,,,,,,,,,,,,,,,,,,,,,,,,,,,,,,,,
,,5865dd647fbbcd00013973b8,2024-02-19_02h18.32.405,kallum_motion_pilot,2023.2.2,Win32,59.52380952,5865dd647fbbcd00013973b8,65d2b6c8f2eece985d8e374c,65d2b82cf340fcf7c13cd399,0.0172,0.0173,0,20,20,110,1,eightsix,,,,,,,,,,,,,,,,,,,,,,,,,,,,,,,,,,,,,,,,,,,,,,,,,,,,,,,,,,,,,,,,,,,,,,,,,,,,,,,,,,,,,,,,,,,,,,,,,,,,,,,,,,,,,,,,,,,,,,,,,,,,,,,,,,,,,,,,,
,,5865dd647fbbcd00013973b8,2024-02-19_02h18.32.405,kallum_motion_pilot,2023.2.2,Win32,59.52380952,5865dd647fbbcd00013973b8,65d2b6c8f2eece985d8e374c,65d2b82cf340fcf7c13cd399,0.0173,0.0174,0,21,21,3,1,twofour,,,,,,,,,,,,,,,,,,,,,,,,,,,,,,,,,,,,,,,,,,,,,,,,,,,,,,,,,,,,,,,,,,,,,,,,,,,,,,,,,,,,,,,,,,,,,,,,,,,,,,,,,,,,,,,,,,,,,,,,,,,,,,,,,,,,,,,,,
,,5865dd647fbbcd00013973b8,2024-02-19_02h18.32.405,kallum_motion_pilot,2023.2.2,Win32,59.52380952,5865dd647fbbcd00013973b8,65d2b6c8f2eece985d8e374c,65d2b82cf340fcf7c13cd399,0.0174,0.0174,0,22,22,31,1,fourthree,,,,,,,,,,,,,,,,,,,,,,,,,,,,,,,,,,,,,,,,,,,,,,,,,,,,,,,,,,,,,,,,,,,,,,,,,,,,,,,,,,,,,,,,,,,,,,,,,,,,,,,,,,,,,,,,,,,,,,,,,,,,,,,,,,,,,,,,,
,,5865dd647fbbcd00013973b8,2024-02-19_02h18.32.405,kallum_motion_pilot,2023.2.2,Win32,59.52380952,5865dd647fbbcd00013973b8,65d2b6c8f2eece985d8e374c,65d2b82cf340fcf7c13cd399,0.0174,0.0175,0,23,23,115,1,sixeight,,,,,,,,,,,,,,,,,,,,,,,,,,,,,,,,,,,,,,,,,,,,,,,,,,,,,,,,,,,,,,,,,,,,,,,,,,,,,,,,,,,,,,,,,,,,,,,,,,,,,,,,,,,,,,,,,,,,,,,,,,,,,,,,,,,,,,,,,
,,5865dd647fbbcd00013973b8,2024-02-19_02h18.32.405,kallum_motion_pilot,2023.2.2,Win32,59.52380952,5865dd647fbbcd00013973b8,65d2b6c8f2eece985d8e374c,65d2b82cf340fcf7c13cd399,0.0177,0.0177,0,24,24,138,1,sixfive,,,,,,,,,,,,,,,,,,,,,,,,,,,,,,,,,,,,,,,,,,,,,,,,,,,,,,,,,,,,,,,,,,,,,,,,,,,,,,,,,,,,,,,,,,,,,,,,,,,,,,,,,,,,,,,,,,,,,,,,,,,,,,,,,,,,,,,,,
,,5865dd647fbbcd00013973b8,2024-02-19_02h18.32.405,kallum_motion_pilot,2023.2.2,Win32,59.52380952,5865dd647fbbcd00013973b8,65d2b6c8f2eece985d8e374c,65d2b82cf340fcf7c13cd399,0.0177,0.0178,0,25,25,28,1,threeone,,,,,,,,,,,,,,,,,,,,,,,,,,,,,,,,,,,,,,,,,,,,,,,,,,,,,,,,,,,,,,,,,,,,,,,,,,,,,,,,,,,,,,,,,,,,,,,,,,,,,,,,,,,,,,,,,,,,,,,,,,,,,,,,,,,,,,,,,
,,5865dd647fbbcd00013973b8,2024-02-19_02h18.32.405,kallum_motion_pilot,2023.2.2,Win32,59.52380952,5865dd647fbbcd00013973b8,65d2b6c8f2eece985d8e374c,65d2b82cf340fcf7c13cd399,0.0178,0.0178,0,26,26,131,1,sixeight,,,,,,,,,,,,,,,,,,,,,,,,,,,,,,,,,,,,,,,,,,,,,,,,,,,,,,,,,,,,,,,,,,,,,,,,,,,,,,,,,,,,,,,,,,,,,,,,,,,,,,,,,,,,,,,,,,,,,,,,,,,,,,,,,,,,,,,,,
,,5865dd647fbbcd00013973b8,2024-02-19_02h18.32.405,kallum_motion_pilot,2023.2.2,Win32,59.52380952,5865dd647fbbcd00013973b8,65d2b6c8f2eece985d8e374c,65d2b82cf340fcf7c13cd399,0.0179,0.018,0,27,27,101,1,seveneight,,,,,,,,,,,,,,,,,,,,,,,,,,,,,,,,,,,,,,,,,,,,,,,,,,,,,,,,,,,,,,,,,,,,,,,,,,,,,,,,,,,,,,,,,,,,,,,,,,,,,,,,,,,,,,,,,,,,,,,,,,,,,,,,,,,,,,,,,
,,5865dd647fbbcd00013973b8,2024-02-19_02h18.32.405,kallum_motion_pilot,2023.2.2,Win32,59.52380952,5865dd647fbbcd00013973b8,65d2b6c8f2eece985d8e374c,65d2b82cf340fcf7c13cd399,0.018,0.0181,0,28,28,124,1,sevenfive,,,,,,,,,,,,,,,,,,,,,,,,,,,,,,,,,,,,,,,,,,,,,,,,,,,,,,,,,,,,,,,,,,,,,,,,,,,,,,,,,,,,,,,,,,,,,,,,,,,,,,,,,,,,,,,,,,,,,,,,,,,,,,,,,,,,,,,,,
,,5865dd647fbbcd00013973b8,2024-02-19_02h18.32.405,kallum_motion_pilot,2023.2.2,Win32,59.52380952,5865dd647fbbcd00013973b8,65d2b6c8f2eece985d8e374c,65d2b82cf340fcf7c13cd399,0.0182,0.0182,0,29,29,85,1,seveneight,,,,,,,,,,,,,,,,,,,,,,,,,,,,,,,,,,,,,,,,,,,,,,,,,,,,,,,,,,,,,,,,,,,,,,,,,,,,,,,,,,,,,,,,,,,,,,,,,,,,,,,,,,,,,,,,,,,,,,,,,,,,,,,,,,,,,,,,,
,,5865dd647fbbcd00013973b8,2024-02-19_02h18.32.405,kallum_motion_pilot,2023.2.2,Win32,59.52380952,5865dd647fbbcd00013973b8,65d2b6c8f2eece985d8e374c,65d2b82cf340fcf7c13cd399,0.0183,0.0183,0,30,30,27,1,twofour,,,,,,,,,,,,,,,,,,,,,,,,,,,,,,,,,,,,,,,,,,,,,,,,,,,,,,,,,,,,,,,,,,,,,,,,,,,,,,,,,,,,,,,,,,,,,,,,,,,,,,,,,,,,,,,,,,,,,,,,,,,,,,,,,,,,,,,,,
,,5865dd647fbbcd00013973b8,2024-02-19_02h18.32.405,kallum_motion_pilot,2023.2.2,Win32,59.52380952,5865dd647fbbcd00013973b8,65d2b6c8f2eece985d8e374c,65d2b82cf340fcf7c13cd399,0.0183,0.0184,0,31,31,108,1,sevenfive,,,,,,,,,,,,,,,,,,,,,,,,,,,,,,,,,,,,,,,,,,,,,,,,,,,,,,,,,,,,,,,,,,,,,,,,,,,,,,,,,,,,,,,,,,,,,,,,,,,,,,,,,,,,,,,,,,,,,,,,,,,,,,,,,,,,,,,,,
,,5865dd647fbbcd00013973b8,2024-02-19_02h18.32.405,kallum_motion_pilot,2023.2.2,Win32,59.52380952,5865dd647fbbcd00013973b8,65d2b6c8f2eece985d8e374c,65d2b82cf340fcf7c13cd399,0.0184,0.0184,0,32,32,66,1,twoone,,,,,,,,,,,,,,,,,,,,,,,,,,,,,,,,,,,,,,,,,,,,,,,,,,,,,,,,,,,,,,,,,,,,,,,,,,,,,,,,,,,,,,,,,,,,,,,,,,,,,,,,,,,,,,,,,,,,,,,,,,,,,,,,,,,,,,,,,
,,5865dd647fbbcd00013973b8,2024-02-19_02h18.32.405,kallum_motion_pilot,2023.2.2,Win32,59.52380952,5865dd647fbbcd00013973b8,65d2b6c8f2eece985d8e374c,65d2b82cf340fcf7c13cd399,0.0184,0.0184,0,33,33,50,1,twoone,,,,,,,,,,,,,,,,,,,,,,,,,,,,,,,,,,,,,,,,,,,,,,,,,,,,,,,,,,,,,,,,,,,,,,,,,,,,,,,,,,,,,,,,,,,,,,,,,,,,,,,,,,,,,,,,,,,,,,,,,,,,,,,,,,,,,,,,,
,,5865dd647fbbcd00013973b8,2024-02-19_02h18.32.405,kallum_motion_pilot,2023.2.2,Win32,59.52380952,5865dd647fbbcd00013973b8,65d2b6c8f2eece985d8e374c,65d2b82cf340fcf7c13cd399,0.0185,0.0186,0,34,34,71,1,fourthree,,,,,,,,,,,,,,,,,,,,,,,,,,,,,,,,,,,,,,,,,,,,,,,,,,,,,,,,,,,,,,,,,,,,,,,,,,,,,,,,,,,,,,,,,,,,,,,,,,,,,,,,,,,,,,,,,,,,,,,,,,,,,,,,,,,,,,,,,
,,5865dd647fbbcd00013973b8,2024-02-19_02h18.32.405,kallum_motion_pilot,2023.2.2,Win32,59.52380952,5865dd647fbbcd00013973b8,65d2b6c8f2eece985d8e374c,65d2b82cf340fcf7c13cd399,0.0187,0.0187,0,35,35,22,1,fourtwo,,,,,,,,,,,,,,,,,,,,,,,,,,,,,,,,,,,,,,,,,,,,,,,,,,,,,,,,,,,,,,,,,,,,,,,,,,,,,,,,,,,,,,,,,,,,,,,,,,,,,,,,,,,,,,,,,,,,,,,,,,,,,,,,,,,,,,,,,
,,5865dd647fbbcd00013973b8,2024-02-19_02h18.32.405,kallum_motion_pilot,2023.2.2,Win32,59.52380952,5865dd647fbbcd00013973b8,65d2b6c8f2eece985d8e374c,65d2b82cf340fcf7c13cd399,0.0187,0.0188,0,36,36,52,1,threeone,,,,,,,,,,,,,,,,,,,,,,,,,,,,,,,,,,,,,,,,,,,,,,,,,,,,,,,,,,,,,,,,,,,,,,,,,,,,,,,,,,,,,,,,,,,,,,,,,,,,,,,,,,,,,,,,,,,,,,,,,,,,,,,,,,,,,,,,,
,,5865dd647fbbcd00013973b8,2024-02-19_02h18.32.405,kallum_motion_pilot,2023.2.2,Win32,59.52380952,5865dd647fbbcd00013973b8,65d2b6c8f2eece985d8e374c,65d2b82cf340fcf7c13cd399,0.0188,0.0188,0,37,37,116,1,sevenfive,,,,,,,,,,,,,,,,,,,,,,,,,,,,,,,,,,,,,,,,,,,,,,,,,,,,,,,,,,,,,,,,,,,,,,,,,,,,,,,,,,,,,,,,,,,,,,,,,,,,,,,,,,,,,,,,,,,,,,,,,,,,,,,,,,,,,,,,,
,,5865dd647fbbcd00013973b8,2024-02-19_02h18.32.405,kallum_motion_pilot,2023.2.2,Win32,59.52380952,5865dd647fbbcd00013973b8,65d2b6c8f2eece985d8e374c,65d2b82cf340fcf7c13cd399,0.0188,0.0188,0,38,38,100,1,sevenfive,,,,,,,,,,,,,,,,,,,,,,,,,,,,,,,,,,,,,,,,,,,,,,,,,,,,,,,,,,,,,,,,,,,,,,,,,,,,,,,,,,,,,,,,,,,,,,,,,,,,,,,,,,,,,,,,,,,,,,,,,,,,,,,,,,,,,,,,,
,,5865dd647fbbcd00013973b8,2024-02-19_02h18.32.405,kallum_motion_pilot,2023.2.2,Win32,59.52380952,5865dd647fbbcd00013973b8,65d2b6c8f2eece985d8e374c,65d2b82cf340fcf7c13cd399,0.0189,0.0189,0,39,39,145,1,fiveseven,,,,,,,,,,,,,,,,,,,,,,,,,,,,,,,,,,,,,,,,,,,,,,,,,,,,,,,,,,,,,,,,,,,,,,,,,,,,,,,,,,,,,,,,,,,,,,,,,,,,,,,,,,,,,,,,,,,,,,,,,,,,,,,,,,,,,,,,,
,,5865dd647fbbcd00013973b8,2024-02-19_02h18.32.405,kallum_motion_pilot,2023.2.2,Win32,59.52380952,5865dd647fbbcd00013973b8,65d2b6c8f2eece985d8e374c,65d2b82cf340fcf7c13cd399,0.019,0.019,0,40,40,142,1,eightsix,,,,,,,,,,,,,,,,,,,,,,,,,,,,,,,,,,,,,,,,,,,,,,,,,,,,,,,,,,,,,,,,,,,,,,,,,,,,,,,,,,,,,,,,,,,,,,,,,,,,,,,,,,,,,,,,,,,,,,,,,,,,,,,,,,,,,,,,,
,,5865dd647fbbcd00013973b8,2024-02-19_02h18.32.405,kallum_motion_pilot,2023.2.2,Win32,59.52380952,5865dd647fbbcd00013973b8,65d2b6c8f2eece985d8e374c,65d2b82cf340fcf7c13cd399,0.0191,0.0191,0,41,41,4,1,threeone,,,,,,,,,,,,,,,,,,,,,,,,,,,,,,,,,,,,,,,,,,,,,,,,,,,,,,,,,,,,,,,,,,,,,,,,,,,,,,,,,,,,,,,,,,,,,,,,,,,,,,,,,,,,,,,,,,,,,,,,,,,,,,,,,,,,,,,,,
,,5865dd647fbbcd00013973b8,2024-02-19_02h18.32.405,kallum_motion_pilot,2023.2.2,Win32,59.52380952,5865dd647fbbcd00013973b8,65d2b6c8f2eece985d8e374c,65d2b82cf340fcf7c13cd399,0.0192,0.0192,0,42,42,72,1,onetwo,,,,,,,,,,,,,,,,,,,,,,,,,,,,,,,,,,,,,,,,,,,,,,,,,,,,,,,,,,,,,,,,,,,,,,,,,,,,,,,,,,,,,,,,,,,,,,,,,,,,,,,,,,,,,,,,,,,,,,,,,,,,,,,,,,,,,,,,,
,,5865dd647fbbcd00013973b8,2024-02-19_02h18.32.405,kallum_motion_pilot,2023.2.2,Win32,59.52380952,5865dd647fbbcd00013973b8,65d2b6c8f2eece985d8e374c,65d2b82cf340fcf7c13cd399,0.0192,0.0193,0,43,43,26,1,twoone,,,,,,,,,,,,,,,,,,,,,,,,,,,,,,,,,,,,,,,,,,,,,,,,,,,,,,,,,,,,,,,,,,,,,,,,,,,,,,,,,,,,,,,,,,,,,,,,,,,,,,,,,,,,,,,,,,,,,,,,,,,,,,,,,,,,,,,,,
,,5865dd647fbbcd00013973b8,2024-02-19_02h18.32.405,kallum_motion_pilot,2023.2.2,Win32,59.52380952,5865dd647fbbcd00013973b8,65d2b6c8f2eece985d8e374c,65d2b82cf340fcf7c13cd399,0.0193,0.0193,0,44,44,69,1,threefour,,,,,,,,,,,,,,,,,,,,,,,,,,,,,,,,,,,,,,,,,,,,,,,,,,,,,,,,,,,,,,,,,,,,,,,,,,,,,,,,,,,,,,,,,,,,,,,,,,,,,,,,,,,,,,,,,,,,,,,,,,,,,,,,,,,,,,,,,
,,5865dd647fbbcd00013973b8,2024-02-19_02h18.32.405,kallum_motion_pilot,2023.2.2,Win32,59.52380952,5865dd647fbbcd00013973b8,65d2b6c8f2eece985d8e374c,65d2b82cf340fcf7c13cd399,0.0193,0.0193,0,45,45,24,1,onetwo,,,,,,,,,,,,,,,,,,,,,,,,,,,,,,,,,,,,,,,,,,,,,,,,,,,,,,,,,,,,,,,,,,,,,,,,,,,,,,,,,,,,,,,,,,,,,,,,,,,,,,,,,,,,,,,,,,,,,,,,,,,,,,,,,,,,,,,,,
,,5865dd647fbbcd00013973b8,2024-02-19_02h18.32.405,kallum_motion_pilot,2023.2.2,Win32,59.52380952,5865dd647fbbcd00013973b8,65d2b6c8f2eece985d8e374c,65d2b82cf340fcf7c13cd399,0.0194,0.0194,0,46,46,12,1,threeone,,,,,,,,,,,,,,,,,,,,,,,,,,,,,,,,,,,,,,,,,,,,,,,,,,,,,,,,,,,,,,,,,,,,,,,,,,,,,,,,,,,,,,,,,,,,,,,,,,,,,,,,,,,,,,,,,,,,,,,,,,,,,,,,,,,,,,,,,
,,5865dd647fbbcd00013973b8,2024-02-19_02h18.32.405,kallum_motion_pilot,2023.2.2,Win32,59.52380952,5865dd647fbbcd00013973b8,65d2b6c8f2eece985d8e374c,65d2b82cf340fcf7c13cd399,0.0195,0.0195,0,47,47,38,1,fourtwo,,,,,,,,,,,,,,,,,,,,,,,,,,,,,,,,,,,,,,,,,,,,,,,,,,,,,,,,,,,,,,,,,,,,,,,,,,,,,,,,,,,,,,,,,,,,,,,,,,,,,,,,,,,,,,,,,,,,,,,,,,,,,,,,,,,,,,,,,
,,5865dd647fbbcd00013973b8,2024-02-19_02h18.32.405,kallum_motion_pilot,2023.2.2,Win32,59.52380952,5865dd647fbbcd00013973b8,65d2b6c8f2eece985d8e374c,65d2b82cf340fcf7c13cd399,0.0196,0.0196,0,48,48,57,1,onethree,,,,,,,,,,,,,,,,,,,,,,,,,,,,,,,,,,,,,,,,,,,,,,,,,,,,,,,,,,,,,,,,,,,,,,,,,,,,,,,,,,,,,,,,,,,,,,,,,,,,,,,,,,,,,,,,,,,,,,,,,,,,,,,,,,,,,,,,,
,,5865dd647fbbcd00013973b8,2024-02-19_02h18.32.405,kallum_motion_pilot,2023.2.2,Win32,59.52380952,5865dd647fbbcd00013973b8,65d2b6c8f2eece985d8e374c,65d2b82cf340fcf7c13cd399,0.0196,0.0197,0,49,49,43,1,twofour,,,,,,,,,,,,,,,,,,,,,,,,,,,,,,,,,,,,,,,,,,,,,,,,,,,,,,,,,,,,,,,,,,,,,,,,,,,,,,,,,,,,,,,,,,,,,,,,,,,,,,,,,,,,,,,,,,,,,,,,,,,,,,,,,,,,,,,,,
,,5865dd647fbbcd00013973b8,2024-02-19_02h18.32.405,kallum_motion_pilot,2023.2.2,Win32,59.52380952,5865dd647fbbcd00013973b8,65d2b6c8f2eece985d8e374c,65d2b82cf340fcf7c13cd399,0.0197,0.0197,0,50,50,79,1,eightseven,,,,,,,,,,,,,,,,,,,,,,,,,,,,,,,,,,,,,,,,,,,,,,,,,,,,,,,,,,,,,,,,,,,,,,,,,,,,,,,,,,,,,,,,,,,,,,,,,,,,,,,,,,,,,,,,,,,,,,,,,,,,,,,,,,,,,,,,,
,,5865dd647fbbcd00013973b8,2024-02-19_02h18.32.405,kallum_motion_pilot,2023.2.2,Win32,59.52380952,5865dd647fbbcd00013973b8,65d2b6c8f2eece985d8e374c,65d2b82cf340fcf7c13cd399,0.0198,0.0198,0,51,51,147,1,sixeight,,,,,,,,,,,,,,,,,,,,,,,,,,,,,,,,,,,,,,,,,,,,,,,,,,,,,,,,,,,,,,,,,,,,,,,,,,,,,,,,,,,,,,,,,,,,,,,,,,,,,,,,,,,,,,,,,,,,,,,,,,,,,,,,,,,,,,,,,
,,5865dd647fbbcd00013973b8,2024-02-19_02h18.32.405,kallum_motion_pilot,2023.2.2,Win32,59.52380952,5865dd647fbbcd00013973b8,65d2b6c8f2eece985d8e374c,65d2b82cf340fcf7c13cd399,0.0203,0.0203,0,52,52,42,1,twoone,,,,,,,,,,,,,,,,,,,,,,,,,,,,,,,,,,,,,,,,,,,,,,,,,,,,,,,,,,,,,,,,,,,,,,,,,,,,,,,,,,,,,,,,,,,,,,,,,,,,,,,,,,,,,,,,,,,,,,,,,,,,,,,,,,,,,,,,,
,,5865dd647fbbcd00013973b8,2024-02-19_02h18.32.405,kallum_motion_pilot,2023.2.2,Win32,59.52380952,5865dd647fbbcd00013973b8,65d2b6c8f2eece985d8e374c,65d2b82cf340fcf7c13cd399,0.0204,0.0204,0,53,53,160,1,fivesix,,,,,,,,,,,,,,,,,,,,,,,,,,,,,,,,,,,,,,,,,,,,,,,,,,,,,,,,,,,,,,,,,,,,,,,,,,,,,,,,,,,,,,,,,,,,,,,,,,,,,,,,,,,,,,,,,,,,,,,,,,,,,,,,,,,,,,,,,
,,5865dd647fbbcd00013973b8,2024-02-19_02h18.32.405,kallum_motion_pilot,2023.2.2,Win32,59.52380952,5865dd647fbbcd00013973b8,65d2b6c8f2eece985d8e374c,65d2b82cf340fcf7c13cd399,0.0205,0.0205,0,54,54,94,1,eightsix,,,,,,,,,,,,,,,,,,,,,,,,,,,,,,,,,,,,,,,,,,,,,,,,,,,,,,,,,,,,,,,,,,,,,,,,,,,,,,,,,,,,,,,,,,,,,,,,,,,,,,,,,,,,,,,,,,,,,,,,,,,,,,,,,,,,,,,,,
,,5865dd647fbbcd00013973b8,2024-02-19_02h18.32.405,kallum_motion_pilot,2023.2.2,Win32,59.52380952,5865dd647fbbcd00013973b8,65d2b6c8f2eece985d8e374c,65d2b82cf340fcf7c13cd399,0.0206,0.0207,0,55,55,102,1,eightsix,,,,,,,,,,,,,,,,,,,,,,,,,,,,,,,,,,,,,,,,,,,,,,,,,,,,,,,,,,,,,,,,,,,,,,,,,,,,,,,,,,,,,,,,,,,,,,,,,,,,,,,,,,,,,,,,,,,,,,,,,,,,,,,,,,,,,,,,,
,,5865dd647fbbcd00013973b8,2024-02-19_02h18.32.405,kallum_motion_pilot,2023.2.2,Win32,59.52380952,5865dd647fbbcd00013973b8,65d2b6c8f2eece985d8e374c,65d2b82cf340fcf7c13cd399,0.0207,0.0207,0,56,56,54,1,fourtwo,,,,,,,,,,,,,,,,,,,,,,,,,,,,,,,,,,,,,,,,,,,,,,,,,,,,,,,,,,,,,,,,,,,,,,,,,,,,,,,,,,,,,,,,,,,,,,,,,,,,,,,,,,,,,,,,,,,,,,,,,,,,,,,,,,,,,,,,,
,,5865dd647fbbcd00013973b8,2024-02-19_02h18.32.405,kallum_motion_pilot,2023.2.2,Win32,59.52380952,5865dd647fbbcd00013973b8,65d2b6c8f2eece985d8e374c,65d2b82cf340fcf7c13cd399,0.0208,0.0208,0,57,57,152,1,fivesix,,,,,,,,,,,,,,,,,,,,,,,,,,,,,,,,,,,,,,,,,,,,,,,,,,,,,,,,,,,,,,,,,,,,,,,,,,,,,,,,,,,,,,,,,,,,,,,,,,,,,,,,,,,,,,,,,,,,,,,,,,,,,,,,,,,,,,,,,
,,5865dd647fbbcd00013973b8,2024-02-19_02h18.32.405,kallum_motion_pilot,2023.2.2,Win32,59.52380952,5865dd647fbbcd00013973b8,65d2b6c8f2eece985d8e374c,65d2b82cf340fcf7c13cd399,0.0208,0.0208,0,58,58,105,1,fiveseven,,,,,,,,,,,,,,,,,,,,,,,,,,,,,,,,,,,,,,,,,,,,,,,,,,,,,,,,,,,,,,,,,,,,,,,,,,,,,,,,,,,,,,,,,,,,,,,,,,,,,,,,,,,,,,,,,,,,,,,,,,,,,,,,,,,,,,,,,
,,5865dd647fbbcd00013973b8,2024-02-19_02h18.32.405,kallum_motion_pilot,2023.2.2,Win32,59.52380952,5865dd647fbbcd00013973b8,65d2b6c8f2eece985d8e374c,65d2b82cf340fcf7c13cd399,0.0208,0.0209,0,59,59,49,1,onethree,,,,,,,,,,,,,,,,,,,,,,,,,,,,,,,,,,,,,,,,,,,,,,,,,,,,,,,,,,,,,,,,,,,,,,,,,,,,,,,,,,,,,,,,,,,,,,,,,,,,,,,,,,,,,,,,,,,,,,,,,,,,,,,,,,,,,,,,,
,,5865dd647fbbcd00013973b8,2024-02-19_02h18.32.405,kallum_motion_pilot,2023.2.2,Win32,59.52380952,5865dd647fbbcd00013973b8,65d2b6c8f2eece985d8e374c,65d2b82cf340fcf7c13cd399,0.0209,0.021,0,60,60,109,1,seveneight,,,,,,,,,,,,,,,,,,,,,,,,,,,,,,,,,,,,,,,,,,,,,,,,,,,,,,,,,,,,,,,,,,,,,,,,,,,,,,,,,,,,,,,,,,,,,,,,,,,,,,,,,,,,,,,,,,,,,,,,,,,,,,,,,,,,,,,,,
,,5865dd647fbbcd00013973b8,2024-02-19_02h18.32.405,kallum_motion_pilot,2023.2.2,Win32,59.52380952,5865dd647fbbcd00013973b8,65d2b6c8f2eece985d8e374c,65d2b82cf340fcf7c13cd399,0.021,0.0211,0,61,61,121,1,fiveseven,,,,,,,,,,,,,,,,,,,,,,,,,,,,,,,,,,,,,,,,,,,,,,,,,,,,,,,,,,,,,,,,,,,,,,,,,,,,,,,,,,,,,,,,,,,,,,,,,,,,,,,,,,,,,,,,,,,,,,,,,,,,,,,,,,,,,,,,,
,,5865dd647fbbcd00013973b8,2024-02-19_02h18.32.405,kallum_motion_pilot,2023.2.2,Win32,59.52380952,5865dd647fbbcd00013973b8,65d2b6c8f2eece985d8e374c,65d2b82cf340fcf7c13cd399,0.0211,0.0211,0,62,62,20,1,threeone,,,,,,,,,,,,,,,,,,,,,,,,,,,,,,,,,,,,,,,,,,,,,,,,,,,,,,,,,,,,,,,,,,,,,,,,,,,,,,,,,,,,,,,,,,,,,,,,,,,,,,,,,,,,,,,,,,,,,,,,,,,,,,,,,,,,,,,,,
,,5865dd647fbbcd00013973b8,2024-02-19_02h18.32.405,kallum_motion_pilot,2023.2.2,Win32,59.52380952,5865dd647fbbcd00013973b8,65d2b6c8f2eece985d8e374c,65d2b82cf340fcf7c13cd399,0.0212,0.0212,0,63,63,92,1,sevenfive,,,,,,,,,,,,,,,,,,,,,,,,,,,,,,,,,,,,,,,,,,,,,,,,,,,,,,,,,,,,,,,,,,,,,,,,,,,,,,,,,,,,,,,,,,,,,,,,,,,,,,,,,,,,,,,,,,,,,,,,,,,,,,,,,,,,,,,,,
,,5865dd647fbbcd00013973b8,2024-02-19_02h18.32.405,kallum_motion_pilot,2023.2.2,Win32,59.52380952,5865dd647fbbcd00013973b8,65d2b6c8f2eece985d8e374c,65d2b82cf340fcf7c13cd399,0.0213,0.0213,0,64,64,58,1,twoone,,,,,,,,,,,,,,,,,,,,,,,,,,,,,,,,,,,,,,,,,,,,,,,,,,,,,,,,,,,,,,,,,,,,,,,,,,,,,,,,,,,,,,,,,,,,,,,,,,,,,,,,,,,,,,,,,,,,,,,,,,,,,,,,,,,,,,,,,
,,5865dd647fbbcd00013973b8,2024-02-19_02h18.32.405,kallum_motion_pilot,2023.2.2,Win32,59.52380952,5865dd647fbbcd00013973b8,65d2b6c8f2eece985d8e374c,65d2b82cf340fcf7c13cd399,0.0214,0.0214,0,65,65,156,1,sevenfive,,,,,,,,,,,,,,,,,,,,,,,,,,,,,,,,,,,,,,,,,,,,,,,,,,,,,,,,,,,,,,,,,,,,,,,,,,,,,,,,,,,,,,,,,,,,,,,,,,,,,,,,,,,,,,,,,,,,,,,,,,,,,,,,,,,,,,,,,
,,5865dd647fbbcd00013973b8,2024-02-19_02h18.32.405,kallum_motion_pilot,2023.2.2,Win32,59.52380952,5865dd647fbbcd00013973b8,65d2b6c8f2eece985d8e374c,65d2b82cf340fcf7c13cd399,0.0214,0.0215,0,66,66,88,1,fivesix,,,,,,,,,,,,,,,,,,,,,,,,,,,,,,,,,,,,,,,,,,,,,,,,,,,,,,,,,,,,,,,,,,,,,,,,,,,,,,,,,,,,,,,,,,,,,,,,,,,,,,,,,,,,,,,,,,,,,,,,,,,,,,,,,,,,,,,,,
,,5865dd647fbbcd00013973b8,2024-02-19_02h18.32.405,kallum_motion_pilot,2023.2.2,Win32,59.52380952,5865dd647fbbcd00013973b8,65d2b6c8f2eece985d8e374c,65d2b82cf340fcf7c13cd399,0.0216,0.0216,0,67,67,104,1,fivesix,,,,,,,,,,,,,,,,,,,,,,,,,,,,,,,,,,,,,,,,,,,,,,,,,,,,,,,,,,,,,,,,,,,,,,,,,,,,,,,,,,,,,,,,,,,,,,,,,,,,,,,,,,,,,,,,,,,,,,,,,,,,,,,,,,,,,,,,,
,,5865dd647fbbcd00013973b8,2024-02-19_02h18.32.405,kallum_motion_pilot,2023.2.2,Win32,59.52380952,5865dd647fbbcd00013973b8,65d2b6c8f2eece985d8e374c,65d2b82cf340fcf7c13cd399,0.0216,0.0216,0,68,68,126,1,eightsix,,,,,,,,,,,,,,,,,,,,,,,,,,,,,,,,,,,,,,,,,,,,,,,,,,,,,,,,,,,,,,,,,,,,,,,,,,,,,,,,,,,,,,,,,,,,,,,,,,,,,,,,,,,,,,,,,,,,,,,,,,,,,,,,,,,,,,,,,
,,5865dd647fbbcd00013973b8,2024-02-19_02h18.32.405,kallum_motion_pilot,2023.2.2,Win32,59.52380952,5865dd647fbbcd00013973b8,65d2b6c8f2eece985d8e374c,65d2b82cf340fcf7c13cd399,0.0217,0.0217,0,69,69,32,1,onetwo,,,,,,,,,,,,,,,,,,,,,,,,,,,,,,,,,,,,,,,,,,,,,,,,,,,,,,,,,,,,,,,,,,,,,,,,,,,,,,,,,,,,,,,,,,,,,,,,,,,,,,,,,,,,,,,,,,,,,,,,,,,,,,,,,,,,,,,,,
,,5865dd647fbbcd00013973b8,2024-02-19_02h18.32.405,kallum_motion_pilot,2023.2.2,Win32,59.52380952,5865dd647fbbcd00013973b8,65d2b6c8f2eece985d8e374c,65d2b82cf340fcf7c13cd399,0.0217,0.0218,0,70,70,15,1,fourthree,,,,,,,,,,,,,,,,,,,,,,,,,,,,,,,,,,,,,,,,,,,,,,,,,,,,,,,,,,,,,,,,,,,,,,,,,,,,,,,,,,,,,,,,,,,,,,,,,,,,,,,,,,,,,,,,,,,,,,,,,,,,,,,,,,,,,,,,,
,,5865dd647fbbcd00013973b8,2024-02-19_02h18.32.405,kallum_motion_pilot,2023.2.2,Win32,59.52380952,5865dd647fbbcd00013973b8,65d2b6c8f2eece985d8e374c,65d2b82cf340fcf7c13cd399,0.0218,0.0218,0,71,71,40,1,onetwo,,,,,,,,,,,,,,,,,,,,,,,,,,,,,,,,,,,,,,,,,,,,,,,,,,,,,,,,,,,,,,,,,,,,,,,,,,,,,,,,,,,,,,,,,,,,,,,,,,,,,,,,,,,,,,,,,,,,,,,,,,,,,,,,,,,,,,,,,
,,5865dd647fbbcd00013973b8,2024-02-19_02h18.32.405,kallum_motion_pilot,2023.2.2,Win32,59.52380952,5865dd647fbbcd00013973b8,65d2b6c8f2eece985d8e374c,65d2b82cf340fcf7c13cd399,0.0219,0.0219,0,72,72,150,1,eightsix,,,,,,,,,,,,,,,,,,,,,,,,,,,,,,,,,,,,,,,,,,,,,,,,,,,,,,,,,,,,,,,,,,,,,,,,,,,,,,,,,,,,,,,,,,,,,,,,,,,,,,,,,,,,,,,,,,,,,,,,,,,,,,,,,,,,,,,,,
,,5865dd647fbbcd00013973b8,2024-02-19_02h18.32.405,kallum_motion_pilot,2023.2.2,Win32,59.52380952,5865dd647fbbcd00013973b8,65d2b6c8f2eece985d8e374c,65d2b82cf340fcf7c13cd399,0.022,0.022,0,73,73,0,1,onetwo,,,,,,,,,,,,,,,,,,,,,,,,,,,,,,,,,,,,,,,,,,,,,,,,,,,,,,,,,,,,,,,,,,,,,,,,,,,,,,,,,,,,,,,,,,,,,,,,,,,,,,,,,,,,,,,,,,,,,,,,,,,,,,,,,,,,,,,,,
,,5865dd647fbbcd00013973b8,2024-02-19_02h18.32.405,kallum_motion_pilot,2023.2.2,Win32,59.52380952,5865dd647fbbcd00013973b8,65d2b6c8f2eece985d8e374c,65d2b82cf340fcf7c13cd399,0.022,0.0221,0,74,74,18,1,twoone,,,,,,,,,,,,,,,,,,,,,,,,,,,,,,,,,,,,,,,,,,,,,,,,,,,,,,,,,,,,,,,,,,,,,,,,,,,,,,,,,,,,,,,,,,,,,,,,,,,,,,,,,,,,,,,,,,,,,,,,,,,,,,,,,,,,,,,,,
,,5865dd647fbbcd00013973b8,2024-02-19_02h18.32.405,kallum_motion_pilot,2023.2.2,Win32,59.52380952,5865dd647fbbcd00013973b8,65d2b6c8f2eece985d8e374c,65d2b82cf340fcf7c13cd399,0.0222,0.0222,0,75,75,148,1,sevenfive,,,,,,,,,,,,,,,,,,,,,,,,,,,,,,,,,,,,,,,,,,,,,,,,,,,,,,,,,,,,,,,,,,,,,,,,,,,,,,,,,,,,,,,,,,,,,,,,,,,,,,,,,,,,,,,,,,,,,,,,,,,,,,,,,,,,,,,,,
,,5865dd647fbbcd00013973b8,2024-02-19_02h18.32.405,kallum_motion_pilot,2023.2.2,Win32,59.52380952,5865dd647fbbcd00013973b8,65d2b6c8f2eece985d8e374c,65d2b82cf340fcf7c13cd399,0.0222,0.0222,0,76,76,19,1,twofour,,,,,,,,,,,,,,,,,,,,,,,,,,,,,,,,,,,,,,,,,,,,,,,,,,,,,,,,,,,,,,,,,,,,,,,,,,,,,,,,,,,,,,,,,,,,,,,,,,,,,,,,,,,,,,,,,,,,,,,,,,,,,,,,,,,,,,,,,
,,5865dd647fbbcd00013973b8,2024-02-19_02h18.32.405,kallum_motion_pilot,2023.2.2,Win32,59.52380952,5865dd647fbbcd00013973b8,65d2b6c8f2eece985d8e374c,65d2b82cf340fcf7c13cd399,0.0223,0.0223,0,77,77,99,1,sixeight,,,,,,,,,,,,,,,,,,,,,,,,,,,,,,,,,,,,,,,,,,,,,,,,,,,,,,,,,,,,,,,,,,,,,,,,,,,,,,,,,,,,,,,,,,,,,,,,,,,,,,,,,,,,,,,,,,,,,,,,,,,,,,,,,,,,,,,,,
,,5865dd647fbbcd00013973b8,2024-02-19_02h18.32.405,kallum_motion_pilot,2023.2.2,Win32,59.52380952,5865dd647fbbcd00013973b8,65d2b6c8f2eece985d8e374c,65d2b82cf340fcf7c13cd399,0.0224,0.0224,0,78,78,21,1,threefour,,,,,,,,,,,,,,,,,,,,,,,,,,,,,,,,,,,,,,,,,,,,,,,,,,,,,,,,,,,,,,,,,,,,,,,,,,,,,,,,,,,,,,,,,,,,,,,,,,,,,,,,,,,,,,,,,,,,,,,,,,,,,,,,,,,,,,,,,
,,5865dd647fbbcd00013973b8,2024-02-19_02h18.32.405,kallum_motion_pilot,2023.2.2,Win32,59.52380952,5865dd647fbbcd00013973b8,65d2b6c8f2eece985d8e374c,65d2b82cf340fcf7c13cd399,0.0225,0.0225,0,79,79,62,1,fourtwo,,,,,,,,,,,,,,,,,,,,,,,,,,,,,,,,,,,,,,,,,,,,,,,,,,,,,,,,,,,,,,,,,,,,,,,,,,,,,,,,,,,,,,,,,,,,,,,,,,,,,,,,,,,,,,,,,,,,,,,,,,,,,,,,,,,,,,,,,
,,5865dd647fbbcd00013973b8,2024-02-19_02h18.32.405,kallum_motion_pilot,2023.2.2,Win32,59.52380952,5865dd647fbbcd00013973b8,65d2b6c8f2eece985d8e374c,65d2b82cf340fcf7c13cd399,0.0226,0.0226,0,80,80,64,1,onetwo,,,,,,,,,,,,,,,,,,,,,,,,,,,,,,,,,,,,,,,,,,,,,,,,,,,,,,,,,,,,,,,,,,,,,,,,,,,,,,,,,,,,,,,,,,,,,,,,,,,,,,,,,,,,,,,,,,,,,,,,,,,,,,,,,,,,,,,,,
,,5865dd647fbbcd00013973b8,2024-02-19_02h18.32.405,kallum_motion_pilot,2023.2.2,Win32,59.52380952,5865dd647fbbcd00013973b8,65d2b6c8f2eece985d8e374c,65d2b82cf340fcf7c13cd399,0.0226,0.0227,0,81,81,53,1,threefour,,,,,,,,,,,,,,,,,,,,,,,,,,,,,,,,,,,,,,,,,,,,,,,,,,,,,,,,,,,,,,,,,,,,,,,,,,,,,,,,,,,,,,,,,,,,,,,,,,,,,,,,,,,,,,,,,,,,,,,,,,,,,,,,,,,,,,,,,
,,5865dd647fbbcd00013973b8,2024-02-19_02h18.32.405,kallum_motion_pilot,2023.2.2,Win32,59.52380952,5865dd647fbbcd00013973b8,65d2b6c8f2eece985d8e374c,65d2b82cf340fcf7c13cd399,0.0227,0.0227,0,82,82,117,1,seveneight,,,,,,,,,,,,,,,,,,,,,,,,,,,,,,,,,,,,,,,,,,,,,,,,,,,,,,,,,,,,,,,,,,,,,,,,,,,,,,,,,,,,,,,,,,,,,,,,,,,,,,,,,,,,,,,,,,,,,,,,,,,,,,,,,,,,,,,,,
,,5865dd647fbbcd00013973b8,2024-02-19_02h18.32.405,kallum_motion_pilot,2023.2.2,Win32,59.52380952,5865dd647fbbcd00013973b8,65d2b6c8f2eece985d8e374c,65d2b82cf340fcf7c13cd399,0.0228,0.0228,0,83,83,125,1,seveneight,,,,,,,,,,,,,,,,,,,,,,,,,,,,,,,,,,,,,,,,,,,,,,,,,,,,,,,,,,,,,,,,,,,,,,,,,,,,,,,,,,,,,,,,,,,,,,,,,,,,,,,,,,,,,,,,,,,,,,,,,,,,,,,,,,,,,,,,,
,,5865dd647fbbcd00013973b8,2024-02-19_02h18.32.405,kallum_motion_pilot,2023.2.2,Win32,59.52380952,5865dd647fbbcd00013973b8,65d2b6c8f2eece985d8e374c,65d2b82cf340fcf7c13cd399,0.0229,0.0229,0,84,84,51,1,twofour,,,,,,,,,,,,,,,,,,,,,,,,,,,,,,,,,,,,,,,,,,,,,,,,,,,,,,,,,,,,,,,,,,,,,,,,,,,,,,,,,,,,,,,,,,,,,,,,,,,,,,,,,,,,,,,,,,,,,,,,,,,,,,,,,,,,,,,,,
,,5865dd647fbbcd00013973b8,2024-02-19_02h18.32.405,kallum_motion_pilot,2023.2.2,Win32,59.52380952,5865dd647fbbcd00013973b8,65d2b6c8f2eece985d8e374c,65d2b82cf340fcf7c13cd399,0.0229,0.023,0,85,85,16,1,onetwo,,,,,,,,,,,,,,,,,,,,,,,,,,,,,,,,,,,,,,,,,,,,,,,,,,,,,,,,,,,,,,,,,,,,,,,,,,,,,,,,,,,,,,,,,,,,,,,,,,,,,,,,,,,,,,,,,,,,,,,,,,,,,,,,,,,,,,,,,
,,5865dd647fbbcd00013973b8,2024-02-19_02h18.32.405,kallum_motion_pilot,2023.2.2,Win32,59.52380952,5865dd647fbbcd00013973b8,65d2b6c8f2eece985d8e374c,65d2b82cf340fcf7c13cd399,0.023,0.0231,0,86,86,70,1,fourtwo,,,,,,,,,,,,,,,,,,,,,,,,,,,,,,,,,,,,,,,,,,,,,,,,,,,,,,,,,,,,,,,,,,,,,,,,,,,,,,,,,,,,,,,,,,,,,,,,,,,,,,,,,,,,,,,,,,,,,,,,,,,,,,,,,,,,,,,,,
,,5865dd647fbbcd00013973b8,2024-02-19_02h18.32.405,kallum_motion_pilot,2023.2.2,Win32,59.52380952,5865dd647fbbcd00013973b8,65d2b6c8f2eece985d8e374c,65d2b82cf340fcf7c13cd399,0.0231,0.0231,0,87,87,73,1,onethree,,,,,,,,,,,,,,,,,,,,,,,,,,,,,,,,,,,,,,,,,,,,,,,,,,,,,,,,,,,,,,,,,,,,,,,,,,,,,,,,,,,,,,,,,,,,,,,,,,,,,,,,,,,,,,,,,,,,,,,,,,,,,,,,,,,,,,,,,
,,5865dd647fbbcd00013973b8,2024-02-19_02h18.32.405,kallum_motion_pilot,2023.2.2,Win32,59.52380952,5865dd647fbbcd00013973b8,65d2b6c8f2eece985d8e374c,65d2b82cf340fcf7c13cd399,0.0232,0.0232,0,88,88,91,1,sixeight,,,,,,,,,,,,,,,,,,,,,,,,,,,,,,,,,,,,,,,,,,,,,,,,,,,,,,,,,,,,,,,,,,,,,,,,,,,,,,,,,,,,,,,,,,,,,,,,,,,,,,,,,,,,,,,,,,,,,,,,,,,,,,,,,,,,,,,,,
,,5865dd647fbbcd00013973b8,2024-02-19_02h18.32.405,kallum_motion_pilot,2023.2.2,Win32,59.52380952,5865dd647fbbcd00013973b8,65d2b6c8f2eece985d8e374c,65d2b82cf340fcf7c13cd399,0.0232,0.0232,0,89,89,120,1,fivesix,,,,,,,,,,,,,,,,,,,,,,,,,,,,,,,,,,,,,,,,,,,,,,,,,,,,,,,,,,,,,,,,,,,,,,,,,,,,,,,,,,,,,,,,,,,,,,,,,,,,,,,,,,,,,,,,,,,,,,,,,,,,,,,,,,,,,,,,,
,,5865dd647fbbcd00013973b8,2024-02-19_02h18.32.405,kallum_motion_pilot,2023.2.2,Win32,59.52380952,5865dd647fbbcd00013973b8,65d2b6c8f2eece985d8e374c,65d2b82cf340fcf7c13cd399,0.0233,0.0233,0,90,90,6,1,fourtwo,,,,,,,,,,,,,,,,,,,,,,,,,,,,,,,,,,,,,,,,,,,,,,,,,,,,,,,,,,,,,,,,,,,,,,,,,,,,,,,,,,,,,,,,,,,,,,,,,,,,,,,,,,,,,,,,,,,,,,,,,,,,,,,,,,,,,,,,,
,,5865dd647fbbcd00013973b8,2024-02-19_02h18.32.405,kallum_motion_pilot,2023.2.2,Win32,59.52380952,5865dd647fbbcd00013973b8,65d2b6c8f2eece985d8e374c,65d2b82cf340fcf7c13cd399,0.0234,0.0234,0,91,91,17,1,onethree,,,,,,,,,,,,,,,,,,,,,,,,,,,,,,,,,,,,,,,,,,,,,,,,,,,,,,,,,,,,,,,,,,,,,,,,,,,,,,,,,,,,,,,,,,,,,,,,,,,,,,,,,,,,,,,,,,,,,,,,,,,,,,,,,,,,,,,,,
,,5865dd647fbbcd00013973b8,2024-02-19_02h18.32.405,kallum_motion_pilot,2023.2.2,Win32,59.52380952,5865dd647fbbcd00013973b8,65d2b6c8f2eece985d8e374c,65d2b82cf340fcf7c13cd399,0.0235,0.0235,0,92,92,155,1,sixeight,,,,,,,,,,,,,,,,,,,,,,,,,,,,,,,,,,,,,,,,,,,,,,,,,,,,,,,,,,,,,,,,,,,,,,,,,,,,,,,,,,,,,,,,,,,,,,,,,,,,,,,,,,,,,,,,,,,,,,,,,,,,,,,,,,,,,,,,,
,,5865dd647fbbcd00013973b8,2024-02-19_02h18.32.405,kallum_motion_pilot,2023.2.2,Win32,59.52380952,5865dd647fbbcd00013973b8,65d2b6c8f2eece985d8e374c,65d2b82cf340fcf7c13cd399,0.0235,0.0236,0,93,93,33,1,onethree,,,,,,,,,,,,,,,,,,,,,,,,,,,,,,,,,,,,,,,,,,,,,,,,,,,,,,,,,,,,,,,,,,,,,,,,,,,,,,,,,,,,,,,,,,,,,,,,,,,,,,,,,,,,,,,,,,,,,,,,,,,,,,,,,,,,,,,,,
,,5865dd647fbbcd00013973b8,2024-02-19_02h18.32.405,kallum_motion_pilot,2023.2.2,Win32,59.52380952,5865dd647fbbcd00013973b8,65d2b6c8f2eece985d8e374c,65d2b82cf340fcf7c13cd399,0.0236,0.0236,0,94,94,146,1,sixfive,,,,,,,,,,,,,,,,,,,,,,,,,,,,,,,,,,,,,,,,,,,,,,,,,,,,,,,,,,,,,,,,,,,,,,,,,,,,,,,,,,,,,,,,,,,,,,,,,,,,,,,,,,,,,,,,,,,,,,,,,,,,,,,,,,,,,,,,,
,,5865dd647fbbcd00013973b8,2024-02-19_02h18.32.405,kallum_motion_pilot,2023.2.2,Win32,59.52380952,5865dd647fbbcd00013973b8,65d2b6c8f2eece985d8e374c,65d2b82cf340fcf7c13cd399,0.0237,0.0237,0,95,95,98,1,sixfive,,,,,,,,,,,,,,,,,,,,,,,,,,,,,,,,,,,,,,,,,,,,,,,,,,,,,,,,,,,,,,,,,,,,,,,,,,,,,,,,,,,,,,,,,,,,,,,,,,,,,,,,,,,,,,,,,,,,,,,,,,,,,,,,,,,,,,,,,
,,5865dd647fbbcd00013973b8,2024-02-19_02h18.32.405,kallum_motion_pilot,2023.2.2,Win32,59.52380952,5865dd647fbbcd00013973b8,65d2b6c8f2eece985d8e374c,65d2b82cf340fcf7c13cd399,0.0238,0.0238,0,96,96,29,1,threefour,,,,,,,,,,,,,,,,,,,,,,,,,,,,,,,,,,,,,,,,,,,,,,,,,,,,,,,,,,,,,,,,,,,,,,,,,,,,,,,,,,,,,,,,,,,,,,,,,,,,,,,,,,,,,,,,,,,,,,,,,,,,,,,,,,,,,,,,,
,,5865dd647fbbcd00013973b8,2024-02-19_02h18.32.405,kallum_motion_pilot,2023.2.2,Win32,59.52380952,5865dd647fbbcd00013973b8,65d2b6c8f2eece985d8e374c,65d2b82cf340fcf7c13cd399,0.0238,0.0238,0,97,97,127,1,eightseven,,,,,,,,,,,,,,,,,,,,,,,,,,,,,,,,,,,,,,,,,,,,,,,,,,,,,,,,,,,,,,,,,,,,,,,,,,,,,,,,,,,,,,,,,,,,,,,,,,,,,,,,,,,,,,,,,,,,,,,,,,,,,,,,,,,,,,,,,
,,5865dd647fbbcd00013973b8,2024-02-19_02h18.32.405,kallum_motion_pilot,2023.2.2,Win32,59.52380952,5865dd647fbbcd00013973b8,65d2b6c8f2eece985d8e374c,65d2b82cf340fcf7c13cd399,0.024,0.024,0,98,98,23,1,fourthree,,,,,,,,,,,,,,,,,,,,,,,,,,,,,,,,,,,,,,,,,,,,,,,,,,,,,,,,,,,,,,,,,,,,,,,,,,,,,,,,,,,,,,,,,,,,,,,,,,,,,,,,,,,,,,,,,,,,,,,,,,,,,,,,,,,,,,,,,
,,5865dd647fbbcd00013973b8,2024-02-19_02h18.32.405,kallum_motion_pilot,2023.2.2,Win32,59.52380952,5865dd647fbbcd00013973b8,65d2b6c8f2eece985d8e374c,65d2b82cf340fcf7c13cd399,0.024,0.024,0,99,99,96,1,fivesix,,,,,,,,,,,,,,,,,,,,,,,,,,,,,,,,,,,,,,,,,,,,,,,,,,,,,,,,,,,,,,,,,,,,,,,,,,,,,,,,,,,,,,,,,,,,,,,,,,,,,,,,,,,,,,,,,,,,,,,,,,,,,,,,,,,,,,,,,
,,5865dd647fbbcd00013973b8,2024-02-19_02h18.32.405,kallum_motion_pilot,2023.2.2,Win32,59.52380952,5865dd647fbbcd00013973b8,65d2b6c8f2eece985d8e374c,65d2b82cf340fcf7c13cd399,0.024,0.0241,0,100,100,103,1,eightseven,,,,,,,,,,,,,,,,,,,,,,,,,,,,,,,,,,,,,,,,,,,,,,,,,,,,,,,,,,,,,,,,,,,,,,,,,,,,,,,,,,,,,,,,,,,,,,,,,,,,,,,,,,,,,,,,,,,,,,,,,,,,,,,,,,,,,,,,,
,,5865dd647fbbcd00013973b8,2024-02-19_02h18.32.405,kallum_motion_pilot,2023.2.2,Win32,59.52380952,5865dd647fbbcd00013973b8,65d2b6c8f2eece985d8e374c,65d2b82cf340fcf7c13cd399,0.0241,0.0242,0,101,101,136,1,fivesix,,,,,,,,,,,,,,,,,,,,,,,,,,,,,,,,,,,,,,,,,,,,,,,,,,,,,,,,,,,,,,,,,,,,,,,,,,,,,,,,,,,,,,,,,,,,,,,,,,,,,,,,,,,,,,,,,,,,,,,,,,,,,,,,,,,,,,,,,
,,5865dd647fbbcd00013973b8,2024-02-19_02h18.32.405,kallum_motion_pilot,2023.2.2,Win32,59.52380952,5865dd647fbbcd00013973b8,65d2b6c8f2eece985d8e374c,65d2b82cf340fcf7c13cd399,0.0243,0.0243,0,102,102,75,1,twofour,,,,,,,,,,,,,,,,,,,,,,,,,,,,,,,,,,,,,,,,,,,,,,,,,,,,,,,,,,,,,,,,,,,,,,,,,,,,,,,,,,,,,,,,,,,,,,,,,,,,,,,,,,,,,,,,,,,,,,,,,,,,,,,,,,,,,,,,,
,,5865dd647fbbcd00013973b8,2024-02-19_02h18.32.405,kallum_motion_pilot,2023.2.2,Win32,59.52380952,5865dd647fbbcd00013973b8,65d2b6c8f2eece985d8e374c,65d2b82cf340fcf7c13cd399,0.0244,0.0244,0,103,103,159,1,eightseven,,,,,,,,,,,,,,,,,,,,,,,,,,,,,,,,,,,,,,,,,,,,,,,,,,,,,,,,,,,,,,,,,,,,,,,,,,,,,,,,,,,,,,,,,,,,,,,,,,,,,,,,,,,,,,,,,,,,,,,,,,,,,,,,,,,,,,,,,
,,5865dd647fbbcd00013973b8,2024-02-19_02h18.32.405,kallum_motion_pilot,2023.2.2,Win32,59.52380952,5865dd647fbbcd00013973b8,65d2b6c8f2eece985d8e374c,65d2b82cf340fcf7c13cd399,0.0244,0.0244,0,104,104,77,1,threefour,,,,,,,,,,,,,,,,,,,,,,,,,,,,,,,,,,,,,,,,,,,,,,,,,,,,,,,,,,,,,,,,,,,,,,,,,,,,,,,,,,,,,,,,,,,,,,,,,,,,,,,,,,,,,,,,,,,,,,,,,,,,,,,,,,,,,,,,,
,,5865dd647fbbcd00013973b8,2024-02-19_02h18.32.405,kallum_motion_pilot,2023.2.2,Win32,59.52380952,5865dd647fbbcd00013973b8,65d2b6c8f2eece985d8e374c,65d2b82cf340fcf7c13cd399,0.0245,0.0245,0,105,105,87,1,eightseven,,,,,,,,,,,,,,,,,,,,,,,,,,,,,,,,,,,,,,,,,,,,,,,,,,,,,,,,,,,,,,,,,,,,,,,,,,,,,,,,,,,,,,,,,,,,,,,,,,,,,,,,,,,,,,,,,,,,,,,,,,,,,,,,,,,,,,,,,
,,5865dd647fbbcd00013973b8,2024-02-19_02h18.32.405,kallum_motion_pilot,2023.2.2,Win32,59.52380952,5865dd647fbbcd00013973b8,65d2b6c8f2eece985d8e374c,65d2b82cf340fcf7c13cd399,0.0245,0.0246,0,106,106,61,1,threefour,,,,,,,,,,,,,,,,,,,,,,,,,,,,,,,,,,,,,,,,,,,,,,,,,,,,,,,,,,,,,,,,,,,,,,,,,,,,,,,,,,,,,,,,,,,,,,,,,,,,,,,,,,,,,,,,,,,,,,,,,,,,,,,,,,,,,,,,,
,,5865dd647fbbcd00013973b8,2024-02-19_02h18.32.405,kallum_motion_pilot,2023.2.2,Win32,59.52380952,5865dd647fbbcd00013973b8,65d2b6c8f2eece985d8e374c,65d2b82cf340fcf7c13cd399,0.0247,0.0247,0,107,107,132,1,sevenfive,,,,,,,,,,,,,,,,,,,,,,,,,,,,,,,,,,,,,,,,,,,,,,,,,,,,,,,,,,,,,,,,,,,,,,,,,,,,,,,,,,,,,,,,,,,,,,,,,,,,,,,,,,,,,,,,,,,,,,,,,,,,,,,,,,,,,,,,,
,,5865dd647fbbcd00013973b8,2024-02-19_02h18.32.405,kallum_motion_pilot,2023.2.2,Win32,59.52380952,5865dd647fbbcd00013973b8,65d2b6c8f2eece985d8e374c,65d2b82cf340fcf7c13cd399,0.0248,0.0248,0,108,108,2,1,twoone,,,,,,,,,,,,,,,,,,,,,,,,,,,,,,,,,,,,,,,,,,,,,,,,,,,,,,,,,,,,,,,,,,,,,,,,,,,,,,,,,,,,,,,,,,,,,,,,,,,,,,,,,,,,,,,,,,,,,,,,,,,,,,,,,,,,,,,,,
,,5865dd647fbbcd00013973b8,2024-02-19_02h18.32.405,kallum_motion_pilot,2023.2.2,Win32,59.52380952,5865dd647fbbcd00013973b8,65d2b6c8f2eece985d8e374c,65d2b82cf340fcf7c13cd399,0.0248,0.0248,0,109,109,161,1,fiveseven,,,,,,,,,,,,,,,,,,,,,,,,,,,,,,,,,,,,,,,,,,,,,,,,,,,,,,,,,,,,,,,,,,,,,,,,,,,,,,,,,,,,,,,,,,,,,,,,,,,,,,,,,,,,,,,,,,,,,,,,,,,,,,,,,,,,,,,,,
,,5865dd647fbbcd00013973b8,2024-02-19_02h18.32.405,kallum_motion_pilot,2023.2.2,Win32,59.52380952,5865dd647fbbcd00013973b8,65d2b6c8f2eece985d8e374c,65d2b82cf340fcf7c13cd399,0.0249,0.0249,0,110,110,68,1,threeone,,,,,,,,,,,,,,,,,,,,,,,,,,,,,,,,,,,,,,,,,,,,,,,,,,,,,,,,,,,,,,,,,,,,,,,,,,,,,,,,,,,,,,,,,,,,,,,,,,,,,,,,,,,,,,,,,,,,,,,,,,,,,,,,,,,,,,,,,
,,5865dd647fbbcd00013973b8,2024-02-19_02h18.32.405,kallum_motion_pilot,2023.2.2,Win32,59.52380952,5865dd647fbbcd00013973b8,65d2b6c8f2eece985d8e374c,65d2b82cf340fcf7c13cd399,0.025,0.0251,0,111,111,135,1,eightseven,,,,,,,,,,,,,,,,,,,,,,,,,,,,,,,,,,,,,,,,,,,,,,,,,,,,,,,,,,,,,,,,,,,,,,,,,,,,,,,,,,,,,,,,,,,,,,,,,,,,,,,,,,,,,,,,,,,,,,,,,,,,,,,,,,,,,,,,,
,,5865dd647fbbcd00013973b8,2024-02-19_02h18.32.405,kallum_motion_pilot,2023.2.2,Win32,59.52380952,5865dd647fbbcd00013973b8,65d2b6c8f2eece985d8e374c,65d2b82cf340fcf7c13cd399,0.0251,0.0251,0,112,112,41,1,onethree,,,,,,,,,,,,,,,,,,,,,,,,,,,,,,,,,,,,,,,,,,,,,,,,,,,,,,,,,,,,,,,,,,,,,,,,,,,,,,,,,,,,,,,,,,,,,,,,,,,,,,,,,,,,,,,,,,,,,,,,,,,,,,,,,,,,,,,,,
,,5865dd647fbbcd00013973b8,2024-02-19_02h18.32.405,kallum_motion_pilot,2023.2.2,Win32,59.52380952,5865dd647fbbcd00013973b8,65d2b6c8f2eece985d8e374c,65d2b82cf340fcf7c13cd399,0.0252,0.0252,0,113,113,154,1,sixfive,,,,,,,,,,,,,,,,,,,,,,,,,,,,,,,,,,,,,,,,,,,,,,,,,,,,,,,,,,,,,,,,,,,,,,,,,,,,,,,,,,,,,,,,,,,,,,,,,,,,,,,,,,,,,,,,,,,,,,,,,,,,,,,,,,,,,,,,,
,,5865dd647fbbcd00013973b8,2024-02-19_02h18.32.405,kallum_motion_pilot,2023.2.2,Win32,59.52380952,5865dd647fbbcd00013973b8,65d2b6c8f2eece985d8e374c,65d2b82cf340fcf7c13cd399,0.0253,0.0253,0,114,114,37,1,threefour,,,,,,,,,,,,,,,,,,,,,,,,,,,,,,,,,,,,,,,,,,,,,,,,,,,,,,,,,,,,,,,,,,,,,,,,,,,,,,,,,,,,,,,,,,,,,,,,,,,,,,,,,,,,,,,,,,,,,,,,,,,,,,,,,,,,,,,,,
,,5865dd647fbbcd00013973b8,2024-02-19_02h18.32.405,kallum_motion_pilot,2023.2.2,Win32,59.52380952,5865dd647fbbcd00013973b8,65d2b6c8f2eece985d8e374c,65d2b82cf340fcf7c13cd399,0.0253,0.0253,0,115,115,137,1,fiveseven,,,,,,,,,,,,,,,,,,,,,,,,,,,,,,,,,,,,,,,,,,,,,,,,,,,,,,,,,,,,,,,,,,,,,,,,,,,,,,,,,,,,,,,,,,,,,,,,,,,,,,,,,,,,,,,,,,,,,,,,,,,,,,,,,,,,,,,,,
,,5865dd647fbbcd00013973b8,2024-02-19_02h18.32.405,kallum_motion_pilot,2023.2.2,Win32,59.52380952,5865dd647fbbcd00013973b8,65d2b6c8f2eece985d8e374c,65d2b82cf340fcf7c13cd399,0.0254,0.0255,0,116,116,107,1,sixeight,,,,,,,,,,,,,,,,,,,,,,,,,,,,,,,,,,,,,,,,,,,,,,,,,,,,,,,,,,,,,,,,,,,,,,,,,,,,,,,,,,,,,,,,,,,,,,,,,,,,,,,,,,,,,,,,,,,,,,,,,,,,,,,,,,,,,,,,,
,,5865dd647fbbcd00013973b8,2024-02-19_02h18.32.405,kallum_motion_pilot,2023.2.2,Win32,59.52380952,5865dd647fbbcd00013973b8,65d2b6c8f2eece985d8e374c,65d2b82cf340fcf7c13cd399,0.0255,0.0255,0,117,117,9,1,onethree,,,,,,,,,,,,,,,,,,,,,,,,,,,,,,,,,,,,,,,,,,,,,,,,,,,,,,,,,,,,,,,,,,,,,,,,,,,,,,,,,,,,,,,,,,,,,,,,,,,,,,,,,,,,,,,,,,,,,,,,,,,,,,,,,,,,,,,,,
,,5865dd647fbbcd00013973b8,2024-02-19_02h18.32.405,kallum_motion_pilot,2023.2.2,Win32,59.52380952,5865dd647fbbcd00013973b8,65d2b6c8f2eece985d8e374c,65d2b82cf340fcf7c13cd399,0.0256,0.0256,0,118,118,63,1,fourthree,,,,,,,,,,,,,,,,,,,,,,,,,,,,,,,,,,,,,,,,,,,,,,,,,,,,,,,,,,,,,,,,,,,,,,,,,,,,,,,,,,,,,,,,,,,,,,,,,,,,,,,,,,,,,,,,,,,,,,,,,,,,,,,,,,,,,,,,,
,,5865dd647fbbcd00013973b8,2024-02-19_02h18.32.405,kallum_motion_pilot,2023.2.2,Win32,59.52380952,5865dd647fbbcd00013973b8,65d2b6c8f2eece985d8e374c,65d2b82cf340fcf7c13cd399,0.0257,0.0257,0,119,119,83,1,sixeight,,,,,,,,,,,,,,,,,,,,,,,,,,,,,,,,,,,,,,,,,,,,,,,,,,,,,,,,,,,,,,,,,,,,,,,,,,,,,,,,,,,,,,,,,,,,,,,,,,,,,,,,,,,,,,,,,,,,,,,,,,,,,,,,,,,,,,,,,
,,5865dd647fbbcd00013973b8,2024-02-19_02h18.32.405,kallum_motion_pilot,2023.2.2,Win32,59.52380952,5865dd647fbbcd00013973b8,65d2b6c8f2eece985d8e374c,65d2b82cf340fcf7c13cd399,0.0257,0.0258,0,120,120,80,1,fivesix,,,,,,,,,,,,,,,,,,,,,,,,,,,,,,,,,,,,,,,,,,,,,,,,,,,,,,,,,,,,,,,,,,,,,,,,,,,,,,,,,,,,,,,,,,,,,,,,,,,,,,,,,,,,,,,,,,,,,,,,,,,,,,,,,,,,,,,,,
,,5865dd647fbbcd00013973b8,2024-02-19_02h18.32.405,kallum_motion_pilot,2023.2.2,Win32,59.52380952,5865dd647fbbcd00013973b8,65d2b6c8f2eece985d8e374c,65d2b82cf340fcf7c13cd399,0.0258,0.0258,0,121,121,158,1,eightsix,,,,,,,,,,,,,,,,,,,,,,,,,,,,,,,,,,,,,,,,,,,,,,,,,,,,,,,,,,,,,,,,,,,,,,,,,,,,,,,,,,,,,,,,,,,,,,,,,,,,,,,,,,,,,,,,,,,,,,,,,,,,,,,,,,,,,,,,,
,,5865dd647fbbcd00013973b8,2024-02-19_02h18.32.405,kallum_motion_pilot,2023.2.2,Win32,59.52380952,5865dd647fbbcd00013973b8,65d2b6c8f2eece985d8e374c,65d2b82cf340fcf7c13cd399,0.0259,0.026,0,122,122,14,1,fourtwo,,,,,,,,,,,,,,,,,,,,,,,,,,,,,,,,,,,,,,,,,,,,,,,,,,,,,,,,,,,,,,,,,,,,,,,,,,,,,,,,,,,,,,,,,,,,,,,,,,,,,,,,,,,,,,,,,,,,,,,,,,,,,,,,,,,,,,,,,
,,5865dd647fbbcd00013973b8,2024-02-19_02h18.32.405,kallum_motion_pilot,2023.2.2,Win32,59.52380952,5865dd647fbbcd00013973b8,65d2b6c8f2eece985d8e374c,65d2b82cf340fcf7c13cd399,0.026,0.0261,0,123,123,130,1,sixfive,,,,,,,,,,,,,,,,,,,,,,,,,,,,,,,,,,,,,,,,,,,,,,,,,,,,,,,,,,,,,,,,,,,,,,,,,,,,,,,,,,,,,,,,,,,,,,,,,,,,,,,,,,,,,,,,,,,,,,,,,,,,,,,,,,,,,,,,,
,,5865dd647fbbcd00013973b8,2024-02-19_02h18.32.405,kallum_motion_pilot,2023.2.2,Win32,59.52380952,5865dd647fbbcd00013973b8,65d2b6c8f2eece985d8e374c,65d2b82cf340fcf7c13cd399,0.0262,0.0262,0,124,124,119,1,eightseven,,,,,,,,,,,,,,,,,,,,,,,,,,,,,,,,,,,,,,,,,,,,,,,,,,,,,,,,,,,,,,,,,,,,,,,,,,,,,,,,,,,,,,,,,,,,,,,,,,,,,,,,,,,,,,,,,,,,,,,,,,,,,,,,,,,,,,,,,
,,5865dd647fbbcd00013973b8,2024-02-19_02h18.32.405,kallum_motion_pilot,2023.2.2,Win32,59.52380952,5865dd647fbbcd00013973b8,65d2b6c8f2eece985d8e374c,65d2b82cf340fcf7c13cd399,0.0262,0.0263,0,125,125,153,1,fiveseven,,,,,,,,,,,,,,,,,,,,,,,,,,,,,,,,,,,,,,,,,,,,,,,,,,,,,,,,,,,,,,,,,,,,,,,,,,,,,,,,,,,,,,,,,,,,,,,,,,,,,,,,,,,,,,,,,,,,,,,,,,,,,,,,,,,,,,,,,
,,5865dd647fbbcd00013973b8,2024-02-19_02h18.32.405,kallum_motion_pilot,2023.2.2,Win32,59.52380952,5865dd647fbbcd00013973b8,65d2b6c8f2eece985d8e374c,65d2b82cf340fcf7c13cd399,0.0263,0.0263,0,126,126,113,1,fiveseven,,,,,,,,,,,,,,,,,,,,,,,,,,,,,,,,,,,,,,,,,,,,,,,,,,,,,,,,,,,,,,,,,,,,,,,,,,,,,,,,,,,,,,,,,,,,,,,,,,,,,,,,,,,,,,,,,,,,,,,,,,,,,,,,,,,,,,,,,
,,5865dd647fbbcd00013973b8,2024-02-19_02h18.32.405,kallum_motion_pilot,2023.2.2,Win32,59.52380952,5865dd647fbbcd00013973b8,65d2b6c8f2eece985d8e374c,65d2b82cf340fcf7c13cd399,0.0264,0.0265,0,127,127,30,1,fourtwo,,,,,,,,,,,,,,,,,,,,,,,,,,,,,,,,,,,,,,,,,,,,,,,,,,,,,,,,,,,,,,,,,,,,,,,,,,,,,,,,,,,,,,,,,,,,,,,,,,,,,,,,,,,,,,,,,,,,,,,,,,,,,,,,,,,,,,,,,
,,5865dd647fbbcd00013973b8,2024-02-19_02h18.32.405,kallum_motion_pilot,2023.2.2,Win32,59.52380952,5865dd647fbbcd00013973b8,65d2b6c8f2eece985d8e374c,65d2b82cf340fcf7c13cd399,0.0265,0.0266,0,128,128,144,1,fivesix,,,,,,,,,,,,,,,,,,,,,,,,,,,,,,,,,,,,,,,,,,,,,,,,,,,,,,,,,,,,,,,,,,,,,,,,,,,,,,,,,,,,,,,,,,,,,,,,,,,,,,,,,,,,,,,,,,,,,,,,,,,,,,,,,,,,,,,,,
,,5865dd647fbbcd00013973b8,2024-02-19_02h18.32.405,kallum_motion_pilot,2023.2.2,Win32,59.52380952,5865dd647fbbcd00013973b8,65d2b6c8f2eece985d8e374c,65d2b82cf340fcf7c13cd399,0.0266,0.0267,0,129,129,8,1,onetwo,,,,,,,,,,,,,,,,,,,,,,,,,,,,,,,,,,,,,,,,,,,,,,,,,,,,,,,,,,,,,,,,,,,,,,,,,,,,,,,,,,,,,,,,,,,,,,,,,,,,,,,,,,,,,,,,,,,,,,,,,,,,,,,,,,,,,,,,,
,,5865dd647fbbcd00013973b8,2024-02-19_02h18.32.405,kallum_motion_pilot,2023.2.2,Win32,59.52380952,5865dd647fbbcd00013973b8,65d2b6c8f2eece985d8e374c,65d2b82cf340fcf7c13cd399,0.0267,0.0267,0,130,130,151,1,eightseven,,,,,,,,,,,,,,,,,,,,,,,,,,,,,,,,,,,,,,,,,,,,,,,,,,,,,,,,,,,,,,,,,,,,,,,,,,,,,,,,,,,,,,,,,,,,,,,,,,,,,,,,,,,,,,,,,,,,,,,,,,,,,,,,,,,,,,,,,
,,5865dd647fbbcd00013973b8,2024-02-19_02h18.32.405,kallum_motion_pilot,2023.2.2,Win32,59.52380952,5865dd647fbbcd00013973b8,65d2b6c8f2eece985d8e374c,65d2b82cf340fcf7c13cd399,0.0268,0.0269,0,131,131,44,1,threeone,,,,,,,,,,,,,,,,,,,,,,,,,,,,,,,,,,,,,,,,,,,,,,,,,,,,,,,,,,,,,,,,,,,,,,,,,,,,,,,,,,,,,,,,,,,,,,,,,,,,,,,,,,,,,,,,,,,,,,,,,,,,,,,,,,,,,,,,,
,,5865dd647fbbcd00013973b8,2024-02-19_02h18.32.405,kallum_motion_pilot,2023.2.2,Win32,59.52380952,5865dd647fbbcd00013973b8,65d2b6c8f2eece985d8e374c,65d2b82cf340fcf7c13cd399,0.027,0.0271,0,132,132,35,1,twofour,,,,,,,,,,,,,,,,,,,,,,,,,,,,,,,,,,,,,,,,,,,,,,,,,,,,,,,,,,,,,,,,,,,,,,,,,,,,,,,,,,,,,,,,,,,,,,,,,,,,,,,,,,,,,,,,,,,,,,,,,,,,,,,,,,,,,,,,,
,,5865dd647fbbcd00013973b8,2024-02-19_02h18.32.405,kallum_motion_pilot,2023.2.2,Win32,59.52380952,5865dd647fbbcd00013973b8,65d2b6c8f2eece985d8e374c,65d2b82cf340fcf7c13cd399,0.0272,0.0273,0,133,133,1,1,onethree,,,,,,,,,,,,,,,,,,,,,,,,,,,,,,,,,,,,,,,,,,,,,,,,,,,,,,,,,,,,,,,,,,,,,,,,,,,,,,,,,,,,,,,,,,,,,,,,,,,,,,,,,,,,,,,,,,,,,,,,,,,,,,,,,,,,,,,,,
,,5865dd647fbbcd00013973b8,2024-02-19_02h18.32.405,kallum_motion_pilot,2023.2.2,Win32,59.52380952,5865dd647fbbcd00013973b8,65d2b6c8f2eece985d8e374c,65d2b82cf340fcf7c13cd399,0.0274,0.0274,0,134,134,7,1,fourthree,,,,,,,,,,,,,,,,,,,,,,,,,,,,,,,,,,,,,,,,,,,,,,,,,,,,,,,,,,,,,,,,,,,,,,,,,,,,,,,,,,,,,,,,,,,,,,,,,,,,,,,,,,,,,,,,,,,,,,,,,,,,,,,,,,,,,,,,,
,,5865dd647fbbcd00013973b8,2024-02-19_02h18.32.405,kallum_motion_pilot,2023.2.2,Win32,59.52380952,5865dd647fbbcd00013973b8,65d2b6c8f2eece985d8e374c,65d2b82cf340fcf7c13cd399,0.0274,0.0275,0,135,135,47,1,fourthree,,,,,,,,,,,,,,,,,,,,,,,,,,,,,,,,,,,,,,,,,,,,,,,,,,,,,,,,,,,,,,,,,,,,,,,,,,,,,,,,,,,,,,,,,,,,,,,,,,,,,,,,,,,,,,,,,,,,,,,,,,,,,,,,,,,,,,,,,
,,5865dd647fbbcd00013973b8,2024-02-19_02h18.32.405,kallum_motion_pilot,2023.2.2,Win32,59.52380952,5865dd647fbbcd00013973b8,65d2b6c8f2eece985d8e374c,65d2b82cf340fcf7c13cd399,0.0276,0.0276,0,136,136,45,1,threefour,,,,,,,,,,,,,,,,,,,,,,,,,,,,,,,,,,,,,,,,,,,,,,,,,,,,,,,,,,,,,,,,,,,,,,,,,,,,,,,,,,,,,,,,,,,,,,,,,,,,,,,,,,,,,,,,,,,,,,,,,,,,,,,,,,,,,,,,,
,,5865dd647fbbcd00013973b8,2024-02-19_02h18.32.405,kallum_motion_pilot,2023.2.2,Win32,59.52380952,5865dd647fbbcd00013973b8,65d2b6c8f2eece985d8e374c,65d2b82cf340fcf7c13cd399,0.0276,0.0277,0,137,137,143,1,eightseven,,,,,,,,,,,,,,,,,,,,,,,,,,,,,,,,,,,,,,,,,,,,,,,,,,,,,,,,,,,,,,,,,,,,,,,,,,,,,,,,,,,,,,,,,,,,,,,,,,,,,,,,,,,,,,,,,,,,,,,,,,,,,,,,,,,,,,,,,
,,5865dd647fbbcd00013973b8,2024-02-19_02h18.32.405,kallum_motion_pilot,2023.2.2,Win32,59.52380952,5865dd647fbbcd00013973b8,65d2b6c8f2eece985d8e374c,65d2b82cf340fcf7c13cd399,0.0277,0.0278,0,138,138,106,1,sixfive,,,,,,,,,,,,,,,,,,,,,,,,,,,,,,,,,,,,,,,,,,,,,,,,,,,,,,,,,,,,,,,,,,,,,,,,,,,,,,,,,,,,,,,,,,,,,,,,,,,,,,,,,,,,,,,,,,,,,,,,,,,,,,,,,,,,,,,,,
,,5865dd647fbbcd00013973b8,2024-02-19_02h18.32.405,kallum_motion_pilot,2023.2.2,Win32,59.52380952,5865dd647fbbcd00013973b8,65d2b6c8f2eece985d8e374c,65d2b82cf340fcf7c13cd399,0.0279,0.028,0,139,139,11,1,twofour,,,,,,,,,,,,,,,,,,,,,,,,,,,,,,,,,,,,,,,,,,,,,,,,,,,,,,,,,,,,,,,,,,,,,,,,,,,,,,,,,,,,,,,,,,,,,,,,,,,,,,,,,,,,,,,,,,,,,,,,,,,,,,,,,,,,,,,,,
,,5865dd647fbbcd00013973b8,2024-02-19_02h18.32.405,kallum_motion_pilot,2023.2.2,Win32,59.52380952,5865dd647fbbcd00013973b8,65d2b6c8f2eece985d8e374c,65d2b82cf340fcf7c13cd399,0.028,0.0281,0,140,140,123,1,sixeight,,,,,,,,,,,,,,,,,,,,,,,,,,,,,,,,,,,,,,,,,,,,,,,,,,,,,,,,,,,,,,,,,,,,,,,,,,,,,,,,,,,,,,,,,,,,,,,,,,,,,,,,,,,,,,,,,,,,,,,,,,,,,,,,,,,,,,,,,
,,5865dd647fbbcd00013973b8,2024-02-19_02h18.32.405,kallum_motion_pilot,2023.2.2,Win32,59.52380952,5865dd647fbbcd00013973b8,65d2b6c8f2eece985d8e374c,65d2b82cf340fcf7c13cd399,0.0281,0.0282,0,141,141,140,1,sevenfive,,,,,,,,,,,,,,,,,,,,,,,,,,,,,,,,,,,,,,,,,,,,,,,,,,,,,,,,,,,,,,,,,,,,,,,,,,,,,,,,,,,,,,,,,,,,,,,,,,,,,,,,,,,,,,,,,,,,,,,,,,,,,,,,,,,,,,,,,
,,5865dd647fbbcd00013973b8,2024-02-19_02h18.32.405,kallum_motion_pilot,2023.2.2,Win32,59.52380952,5865dd647fbbcd00013973b8,65d2b6c8f2eece985d8e374c,65d2b82cf340fcf7c13cd399,0.0282,0.0282,0,142,142,95,1,eightseven,,,,,,,,,,,,,,,,,,,,,,,,,,,,,,,,,,,,,,,,,,,,,,,,,,,,,,,,,,,,,,,,,,,,,,,,,,,,,,,,,,,,,,,,,,,,,,,,,,,,,,,,,,,,,,,,,,,,,,,,,,,,,,,,,,,,,,,,,
,,5865dd647fbbcd00013973b8,2024-02-19_02h18.32.405,kallum_motion_pilot,2023.2.2,Win32,59.52380952,5865dd647fbbcd00013973b8,65d2b6c8f2eece985d8e374c,65d2b82cf340fcf7c13cd399,0.0283,0.0284,0,143,143,59,1,twofour,,,,,,,,,,,,,,,,,,,,,,,,,,,,,,,,,,,,,,,,,,,,,,,,,,,,,,,,,,,,,,,,,,,,,,,,,,,,,,,,,,,,,,,,,,,,,,,,,,,,,,,,,,,,,,,,,,,,,,,,,,,,,,,,,,,,,,,,,
,,5865dd647fbbcd00013973b8,2024-02-19_02h18.32.405,kallum_motion_pilot,2023.2.2,Win32,59.52380952,5865dd647fbbcd00013973b8,65d2b6c8f2eece985d8e374c,65d2b82cf340fcf7c13cd399,0.0285,0.0285,0,144,144,81,1,fiveseven,,,,,,,,,,,,,,,,,,,,,,,,,,,,,,,,,,,,,,,,,,,,,,,,,,,,,,,,,,,,,,,,,,,,,,,,,,,,,,,,,,,,,,,,,,,,,,,,,,,,,,,,,,,,,,,,,,,,,,,,,,,,,,,,,,,,,,,,,
,,5865dd647fbbcd00013973b8,2024-02-19_02h18.32.405,kallum_motion_pilot,2023.2.2,Win32,59.52380952,5865dd647fbbcd00013973b8,65d2b6c8f2eece985d8e374c,65d2b82cf340fcf7c13cd399,0.0285,0.0286,0,145,145,133,1,seveneight,,,,,,,,,,,,,,,,,,,,,,,,,,,,,,,,,,,,,,,,,,,,,,,,,,,,,,,,,,,,,,,,,,,,,,,,,,,,,,,,,,,,,,,,,,,,,,,,,,,,,,,,,,,,,,,,,,,,,,,,,,,,,,,,,,,,,,,,,
,,5865dd647fbbcd00013973b8,2024-02-19_02h18.32.405,kallum_motion_pilot,2023.2.2,Win32,59.52380952,5865dd647fbbcd00013973b8,65d2b6c8f2eece985d8e374c,65d2b82cf340fcf7c13cd399,0.0286,0.0286,0,146,146,5,1,threefour,,,,,,,,,,,,,,,,,,,,,,,,,,,,,,,,,,,,,,,,,,,,,,,,,,,,,,,,,,,,,,,,,,,,,,,,,,,,,,,,,,,,,,,,,,,,,,,,,,,,,,,,,,,,,,,,,,,,,,,,,,,,,,,,,,,,,,,,,
,,5865dd647fbbcd00013973b8,2024-02-19_02h18.32.405,kallum_motion_pilot,2023.2.2,Win32,59.52380952,5865dd647fbbcd00013973b8,65d2b6c8f2eece985d8e374c,65d2b82cf340fcf7c13cd399,0.0287,0.0288,0,147,147,139,1,sixeight,,,,,,,,,,,,,,,,,,,,,,,,,,,,,,,,,,,,,,,,,,,,,,,,,,,,,,,,,,,,,,,,,,,,,,,,,,,,,,,,,,,,,,,,,,,,,,,,,,,,,,,,,,,,,,,,,,,,,,,,,,,,,,,,,,,,,,,,,
,,5865dd647fbbcd00013973b8,2024-02-19_02h18.32.405,kallum_motion_pilot,2023.2.2,Win32,59.52380952,5865dd647fbbcd00013973b8,65d2b6c8f2eece985d8e374c,65d2b82cf340fcf7c13cd399,0.0288,0.0288,0,148,148,129,1,fiveseven,,,,,,,,,,,,,,,,,,,,,,,,,,,,,,,,,,,,,,,,,,,,,,,,,,,,,,,,,,,,,,,,,,,,,,,,,,,,,,,,,,,,,,,,,,,,,,,,,,,,,,,,,,,,,,,,,,,,,,,,,,,,,,,,,,,,,,,,,
,,5865dd647fbbcd00013973b8,2024-02-19_02h18.32.405,kallum_motion_pilot,2023.2.2,Win32,59.52380952,5865dd647fbbcd00013973b8,65d2b6c8f2eece985d8e374c,65d2b82cf340fcf7c13cd399,0.0289,0.029,0,149,149,39,1,fourthree,,,,,,,,,,,,,,,,,,,,,,,,,,,,,,,,,,,,,,,,,,,,,,,,,,,,,,,,,,,,,,,,,,,,,,,,,,,,,,,,,,,,,,,,,,,,,,,,,,,,,,,,,,,,,,,,,,,,,,,,,,,,,,,,,,,,,,,,,
,,5865dd647fbbcd00013973b8,2024-02-19_02h18.32.405,kallum_motion_pilot,2023.2.2,Win32,59.52380952,5865dd647fbbcd00013973b8,65d2b6c8f2eece985d8e374c,65d2b82cf340fcf7c13cd399,0.0291,0.0291,0,150,150,36,1,threeone,,,,,,,,,,,,,,,,,,,,,,,,,,,,,,,,,,,,,,,,,,,,,,,,,,,,,,,,,,,,,,,,,,,,,,,,,,,,,,,,,,,,,,,,,,,,,,,,,,,,,,,,,,,,,,,,,,,,,,,,,,,,,,,,,,,,,,,,,
,,5865dd647fbbcd00013973b8,2024-02-19_02h18.32.405,kallum_motion_pilot,2023.2.2,Win32,59.52380952,5865dd647fbbcd00013973b8,65d2b6c8f2eece985d8e374c,65d2b82cf340fcf7c13cd399,0.0292,0.0292,0,151,151,82,1,sixfive,,,,,,,,,,,,,,,,,,,,,,,,,,,,,,,,,,,,,,,,,,,,,,,,,,,,,,,,,,,,,,,,,,,,,,,,,,,,,,,,,,,,,,,,,,,,,,,,,,,,,,,,,,,,,,,,,,,,,,,,,,,,,,,,,,,,,,,,,
,,5865dd647fbbcd00013973b8,2024-02-19_02h18.32.405,kallum_motion_pilot,2023.2.2,Win32,59.52380952,5865dd647fbbcd00013973b8,65d2b6c8f2eece985d8e374c,65d2b82cf340fcf7c13cd399,0.0296,0.0296,0,152,152,114,1,sixfive,,,,,,,,,,,,,,,,,,,,,,,,,,,,,,,,,,,,,,,,,,,,,,,,,,,,,,,,,,,,,,,,,,,,,,,,,,,,,,,,,,,,,,,,,,,,,,,,,,,,,,,,,,,,,,,,,,,,,,,,,,,,,,,,,,,,,,,,,
,,5865dd647fbbcd00013973b8,2024-02-19_02h18.32.405,kallum_motion_pilot,2023.2.2,Win32,59.52380952,5865dd647fbbcd00013973b8,65d2b6c8f2eece985d8e374c,65d2b82cf340fcf7c13cd399,0.0297,0.0297,0,153,153,25,1,onethree,,,,,,,,,,,,,,,,,,,,,,,,,,,,,,,,,,,,,,,,,,,,,,,,,,,,,,,,,,,,,,,,,,,,,,,,,,,,,,,,,,,,,,,,,,,,,,,,,,,,,,,,,,,,,,,,,,,,,,,,,,,,,,,,,,,,,,,,,
,,5865dd647fbbcd00013973b8,2024-02-19_02h18.32.405,kallum_motion_pilot,2023.2.2,Win32,59.52380952,5865dd647fbbcd00013973b8,65d2b6c8f2eece985d8e374c,65d2b82cf340fcf7c13cd399,0.0298,0.0298,0,154,154,149,1,seveneight,,,,,,,,,,,,,,,,,,,,,,,,,,,,,,,,,,,,,,,,,,,,,,,,,,,,,,,,,,,,,,,,,,,,,,,,,,,,,,,,,,,,,,,,,,,,,,,,,,,,,,,,,,,,,,,,,,,,,,,,,,,,,,,,,,,,,,,,,
,,5865dd647fbbcd00013973b8,2024-02-19_02h18.32.405,kallum_motion_pilot,2023.2.2,Win32,59.52380952,5865dd647fbbcd00013973b8,65d2b6c8f2eece985d8e374c,65d2b82cf340fcf7c13cd399,0.0299,0.0299,0,155,155,65,1,onethree,,,,,,,,,,,,,,,,,,,,,,,,,,,,,,,,,,,,,,,,,,,,,,,,,,,,,,,,,,,,,,,,,,,,,,,,,,,,,,,,,,,,,,,,,,,,,,,,,,,,,,,,,,,,,,,,,,,,,,,,,,,,,,,,,,,,,,,,,
,,5865dd647fbbcd00013973b8,2024-02-19_02h18.32.405,kallum_motion_pilot,2023.2.2,Win32,59.52380952,5865dd647fbbcd00013973b8,65d2b6c8f2eece985d8e374c,65d2b82cf340fcf7c13cd399,0.0299,0.03,0,156,156,111,1,eightseven,,,,,,,,,,,,,,,,,,,,,,,,,,,,,,,,,,,,,,,,,,,,,,,,,,,,,,,,,,,,,,,,,,,,,,,,,,,,,,,,,,,,,,,,,,,,,,,,,,,,,,,,,,,,,,,,,,,,,,,,,,,,,,,,,,,,,,,,,
,,5865dd647fbbcd00013973b8,2024-02-19_02h18.32.405,kallum_motion_pilot,2023.2.2,Win32,59.52380952,5865dd647fbbcd00013973b8,65d2b6c8f2eece985d8e374c,65d2b82cf340fcf7c13cd399,0.0301,0.0301,0,157,157,97,1,fiveseven,,,,,,,,,,,,,,,,,,,,,,,,,,,,,,,,,,,,,,,,,,,,,,,,,,,,,,,,,,,,,,,,,,,,,,,,,,,,,,,,,,,,,,,,,,,,,,,,,,,,,,,,,,,,,,,,,,,,,,,,,,,,,,,,,,,,,,,,,
,,5865dd647fbbcd00013973b8,2024-02-19_02h18.32.405,kallum_motion_pilot,2023.2.2,Win32,59.52380952,5865dd647fbbcd00013973b8,65d2b6c8f2eece985d8e374c,65d2b82cf340fcf7c13cd399,0.0301,0.0302,0,158,158,157,1,seveneight,,,,,,,,,,,,,,,,,,,,,,,,,,,,,,,,,,,,,,,,,,,,,,,,,,,,,,,,,,,,,,,,,,,,,,,,,,,,,,,,,,,,,,,,,,,,,,,,,,,,,,,,,,,,,,,,,,,,,,,,,,,,,,,,,,,,,,,,,
,,5865dd647fbbcd00013973b8,2024-02-19_02h18.32.405,kallum_motion_pilot,2023.2.2,Win32,59.52380952,5865dd647fbbcd00013973b8,65d2b6c8f2eece985d8e374c,65d2b82cf340fcf7c13cd399,0.0303,0.0303,0,159,159,89,1,fiveseven,,,,,,,,,,,,,,,,,,,,,,,,,,,,,,,,,,,,,,,,,,,,,,,,,,,,,,,,,,,,,,,,,,,,,,,,,,,,,,,,,,,,,,,,,,,,,,,,,,,,,,,,,,,,,,,,,,,,,,,,,,,,,,,,,,,,,,,,,
,,5865dd647fbbcd00013973b8,2024-02-19_02h18.32.405,kallum_motion_pilot,2023.2.2,Win32,59.52380952,5865dd647fbbcd00013973b8,65d2b6c8f2eece985d8e374c,65d2b82cf340fcf7c13cd399,0.0304,0.0304,0,160,160,34,1,twoone,,,,,,,,,,,,,,,,,,,,,,,,,,,,,,,,,,,,,,,,,,,,,,,,,,,,,,,,,,,,,,,,,,,,,,,,,,,,,,,,,,,,,,,,,,,,,,,,,,,,,,,,,,,,,,,,,,,,,,,,,,,,,,,,,,,,,,,,,
,,5865dd647fbbcd00013973b8,2024-02-19_02h18.32.405,kallum_motion_pilot,2023.2.2,Win32,59.52380952,5865dd647fbbcd00013973b8,65d2b6c8f2eece985d8e374c,65d2b82cf340fcf7c13cd399,0.0305,0.0305,0,161,161,10,1,twoone,,,,,,,,,,,,,,,,,,,,,,,,,,,,,,,,,,,,,,,,,,,,,,,,,,,,,,,,,,,,,,,,,,,,,,,,,,,,,,,,,,,,,,,,,,,,,,,,,,,,,,,,,,,,,,,,,,,,,,,,,,,,,,,,,,,,,,,,,
,,5865dd647fbbcd00013973b8,2024-02-19_02h18.32.405,kallum_motion_pilot,2023.2.2,Win32,59.52380952,5865dd647fbbcd00013973b8,65d2b6c8f2eece985d8e374c,65d2b82cf340fcf7c13cd399,0.0306,0.0307,1,0,162,18,1,twoone,,,,,,,,,,,,,,,,,,,,,,,,,,,,,,,,,,,,,,,,,,,,,,,,,,,,,,,,,,,,,,,,,,,,,,,,,,,,,,,,,,,,,,,,,,,,,,,,,,,,,,,,,,,,,,,,,,,,,,,,,,,,,,,,,,,,,,,,,
,,5865dd647fbbcd00013973b8,2024-02-19_02h18.32.405,kallum_motion_pilot,2023.2.2,Win32,59.52380952,5865dd647fbbcd00013973b8,65d2b6c8f2eece985d8e374c,65d2b82cf340fcf7c13cd399,0.0308,0.0309,1,1,163,149,1,seveneight,,,,,,,,,,,,,,,,,,,,,,,,,,,,,,,,,,,,,,,,,,,,,,,,,,,,,,,,,,,,,,,,,,,,,,,,,,,,,,,,,,,,,,,,,,,,,,,,,,,,,,,,,,,,,,,,,,,,,,,,,,,,,,,,,,,,,,,,,
,,5865dd647fbbcd00013973b8,2024-02-19_02h18.32.405,kallum_motion_pilot,2023.2.2,Win32,59.52380952,5865dd647fbbcd00013973b8,65d2b6c8f2eece985d8e374c,65d2b82cf340fcf7c13cd399,0.0309,0.031,1,2,164,21,1,threefour,,,,,,,,,,,,,,,,,,,,,,,,,,,,,,,,,,,,,,,,,,,,,,,,,,,,,,,,,,,,,,,,,,,,,,,,,,,,,,,,,,,,,,,,,,,,,,,,,,,,,,,,,,,,,,,,,,,,,,,,,,,,,,,,,,,,,,,,,
,,5865dd647fbbcd00013973b8,2024-02-19_02h18.32.405,kallum_motion_pilot,2023.2.2,Win32,59.52380952,5865dd647fbbcd00013973b8,65d2b6c8f2eece985d8e374c,65d2b82cf340fcf7c13cd399,0.031,0.0311,1,3,165,43,1,twofour,,,,,,,,,,,,,,,,,,,,,,,,,,,,,,,,,,,,,,,,,,,,,,,,,,,,,,,,,,,,,,,,,,,,,,,,,,,,,,,,,,,,,,,,,,,,,,,,,,,,,,,,,,,,,,,,,,,,,,,,,,,,,,,,,,,,,,,,,
,,5865dd647fbbcd00013973b8,2024-02-19_02h18.32.405,kallum_motion_pilot,2023.2.2,Win32,59.52380952,5865dd647fbbcd00013973b8,65d2b6c8f2eece985d8e374c,65d2b82cf340fcf7c13cd399,0.0311,0.0312,1,4,166,6,1,fourtwo,,,,,,,,,,,,,,,,,,,,,,,,,,,,,,,,,,,,,,,,,,,,,,,,,,,,,,,,,,,,,,,,,,,,,,,,,,,,,,,,,,,,,,,,,,,,,,,,,,,,,,,,,,,,,,,,,,,,,,,,,,,,,,,,,,,,,,,,,
,,5865dd647fbbcd00013973b8,2024-02-19_02h18.32.405,kallum_motion_pilot,2023.2.2,Win32,59.52380952,5865dd647fbbcd00013973b8,65d2b6c8f2eece985d8e374c,65d2b82cf340fcf7c13cd399,0.0312,0.0312,1,5,167,143,1,eightseven,,,,,,,,,,,,,,,,,,,,,,,,,,,,,,,,,,,,,,,,,,,,,,,,,,,,,,,,,,,,,,,,,,,,,,,,,,,,,,,,,,,,,,,,,,,,,,,,,,,,,,,,,,,,,,,,,,,,,,,,,,,,,,,,,,,,,,,,,
,,5865dd647fbbcd00013973b8,2024-02-19_02h18.32.405,kallum_motion_pilot,2023.2.2,Win32,59.52380952,5865dd647fbbcd00013973b8,65d2b6c8f2eece985d8e374c,65d2b82cf340fcf7c13cd399,0.0313,0.0314,1,6,168,127,1,eightseven,,,,,,,,,,,,,,,,,,,,,,,,,,,,,,,,,,,,,,,,,,,,,,,,,,,,,,,,,,,,,,,,,,,,,,,,,,,,,,,,,,,,,,,,,,,,,,,,,,,,,,,,,,,,,,,,,,,,,,,,,,,,,,,,,,,,,,,,,
,,5865dd647fbbcd00013973b8,2024-02-19_02h18.32.405,kallum_motion_pilot,2023.2.2,Win32,59.52380952,5865dd647fbbcd00013973b8,65d2b6c8f2eece985d8e374c,65d2b82cf340fcf7c13cd399,0.0314,0.0314,1,7,169,92,1,sevenfive,,,,,,,,,,,,,,,,,,,,,,,,,,,,,,,,,,,,,,,,,,,,,,,,,,,,,,,,,,,,,,,,,,,,,,,,,,,,,,,,,,,,,,,,,,,,,,,,,,,,,,,,,,,,,,,,,,,,,,,,,,,,,,,,,,,,,,,,,
,,5865dd647fbbcd00013973b8,2024-02-19_02h18.32.405,kallum_motion_pilot,2023.2.2,Win32,59.52380952,5865dd647fbbcd00013973b8,65d2b6c8f2eece985d8e374c,65d2b82cf340fcf7c13cd399,0.0315,0.0315,1,8,170,46,1,fourtwo,,,,,,,,,,,,,,,,,,,,,,,,,,,,,,,,,,,,,,,,,,,,,,,,,,,,,,,,,,,,,,,,,,,,,,,,,,,,,,,,,,,,,,,,,,,,,,,,,,,,,,,,,,,,,,,,,,,,,,,,,,,,,,,,,,,,,,,,,
,,5865dd647fbbcd00013973b8,2024-02-19_02h18.32.405,kallum_motion_pilot,2023.2.2,Win32,59.52380952,5865dd647fbbcd00013973b8,65d2b6c8f2eece985d8e374c,65d2b82cf340fcf7c13cd399,0.0316,0.0316,1,9,171,26,1,twoone,,,,,,,,,,,,,,,,,,,,,,,,,,,,,,,,,,,,,,,,,,,,,,,,,,,,,,,,,,,,,,,,,,,,,,,,,,,,,,,,,,,,,,,,,,,,,,,,,,,,,,,,,,,,,,,,,,,,,,,,,,,,,,,,,,,,,,,,,
,,5865dd647fbbcd00013973b8,2024-02-19_02h18.32.405,kallum_motion_pilot,2023.2.2,Win32,59.52380952,5865dd647fbbcd00013973b8,65d2b6c8f2eece985d8e374c,65d2b82cf340fcf7c13cd399,0.0318,0.0318,1,10,172,63,1,fourthree,,,,,,,,,,,,,,,,,,,,,,,,,,,,,,,,,,,,,,,,,,,,,,,,,,,,,,,,,,,,,,,,,,,,,,,,,,,,,,,,,,,,,,,,,,,,,,,,,,,,,,,,,,,,,,,,,,,,,,,,,,,,,,,,,,,,,,,,,
,,5865dd647fbbcd00013973b8,2024-02-19_02h18.32.405,kallum_motion_pilot,2023.2.2,Win32,59.52380952,5865dd647fbbcd00013973b8,65d2b6c8f2eece985d8e374c,65d2b82cf340fcf7c13cd399,0.0318,0.0319,1,11,173,0,1,onetwo,,,,,,,,,,,,,,,,,,,,,,,,,,,,,,,,,,,,,,,,,,,,,,,,,,,,,,,,,,,,,,,,,,,,,,,,,,,,,,,,,,,,,,,,,,,,,,,,,,,,,,,,,,,,,,,,,,,,,,,,,,,,,,,,,,,,,,,,,
,,5865dd647fbbcd00013973b8,2024-02-19_02h18.32.405,kallum_motion_pilot,2023.2.2,Win32,59.52380952,5865dd647fbbcd00013973b8,65d2b6c8f2eece985d8e374c,65d2b82cf340fcf7c13cd399,0.0319,0.032,1,12,174,160,1,fivesix,,,,,,,,,,,,,,,,,,,,,,,,,,,,,,,,,,,,,,,,,,,,,,,,,,,,,,,,,,,,,,,,,,,,,,,,,,,,,,,,,,,,,,,,,,,,,,,,,,,,,,,,,,,,,,,,,,,,,,,,,,,,,,,,,,,,,,,,,
,,5865dd647fbbcd00013973b8,2024-02-19_02h18.32.405,kallum_motion_pilot,2023.2.2,Win32,59.52380952,5865dd647fbbcd00013973b8,65d2b6c8f2eece985d8e374c,65d2b82cf340fcf7c13cd399,0.032,0.032,1,13,175,71,1,fourthree,,,,,,,,,,,,,,,,,,,,,,,,,,,,,,,,,,,,,,,,,,,,,,,,,,,,,,,,,,,,,,,,,,,,,,,,,,,,,,,,,,,,,,,,,,,,,,,,,,,,,,,,,,,,,,,,,,,,,,,,,,,,,,,,,,,,,,,,,
,,5865dd647fbbcd00013973b8,2024-02-19_02h18.32.405,kallum_motion_pilot,2023.2.2,Win32,59.52380952,5865dd647fbbcd00013973b8,65d2b6c8f2eece985d8e374c,65d2b82cf340fcf7c13cd399,0.0321,0.0322,1,14,176,112,1,fivesix,,,,,,,,,,,,,,,,,,,,,,,,,,,,,,,,,,,,,,,,,,,,,,,,,,,,,,,,,,,,,,,,,,,,,,,,,,,,,,,,,,,,,,,,,,,,,,,,,,,,,,,,,,,,,,,,,,,,,,,,,,,,,,,,,,,,,,,,,
,,5865dd647fbbcd00013973b8,2024-02-19_02h18.32.405,kallum_motion_pilot,2023.2.2,Win32,59.52380952,5865dd647fbbcd00013973b8,65d2b6c8f2eece985d8e374c,65d2b82cf340fcf7c13cd399,0.0323,0.0323,1,15,177,72,1,onetwo,,,,,,,,,,,,,,,,,,,,,,,,,,,,,,,,,,,,,,,,,,,,,,,,,,,,,,,,,,,,,,,,,,,,,,,,,,,,,,,,,,,,,,,,,,,,,,,,,,,,,,,,,,,,,,,,,,,,,,,,,,,,,,,,,,,,,,,,,
,,5865dd647fbbcd00013973b8,2024-02-19_02h18.32.405,kallum_motion_pilot,2023.2.2,Win32,59.52380952,5865dd647fbbcd00013973b8,65d2b6c8f2eece985d8e374c,65d2b82cf340fcf7c13cd399,0.0323,0.0323,1,16,178,8,1,onetwo,,,,,,,,,,,,,,,,,,,,,,,,,,,,,,,,,,,,,,,,,,,,,,,,,,,,,,,,,,,,,,,,,,,,,,,,,,,,,,,,,,,,,,,,,,,,,,,,,,,,,,,,,,,,,,,,,,,,,,,,,,,,,,,,,,,,,,,,,
,,5865dd647fbbcd00013973b8,2024-02-19_02h18.32.405,kallum_motion_pilot,2023.2.2,Win32,59.52380952,5865dd647fbbcd00013973b8,65d2b6c8f2eece985d8e374c,65d2b82cf340fcf7c13cd399,0.0324,0.0325,1,17,179,52,1,threeone,,,,,,,,,,,,,,,,,,,,,,,,,,,,,,,,,,,,,,,,,,,,,,,,,,,,,,,,,,,,,,,,,,,,,,,,,,,,,,,,,,,,,,,,,,,,,,,,,,,,,,,,,,,,,,,,,,,,,,,,,,,,,,,,,,,,,,,,,
,,5865dd647fbbcd00013973b8,2024-02-19_02h18.32.405,kallum_motion_pilot,2023.2.2,Win32,59.52380952,5865dd647fbbcd00013973b8,65d2b6c8f2eece985d8e374c,65d2b82cf340fcf7c13cd399,0.0325,0.0325,1,18,180,49,1,onethree,,,,,,,,,,,,,,,,,,,,,,,,,,,,,,,,,,,,,,,,,,,,,,,,,,,,,,,,,,,,,,,,,,,,,,,,,,,,,,,,,,,,,,,,,,,,,,,,,,,,,,,,,,,,,,,,,,,,,,,,,,,,,,,,,,,,,,,,,
,,5865dd647fbbcd00013973b8,2024-02-19_02h18.32.405,kallum_motion_pilot,2023.2.2,Win32,59.52380952,5865dd647fbbcd00013973b8,65d2b6c8f2eece985d8e374c,65d2b82cf340fcf7c13cd399,0.0326,0.0326,1,19,181,138,1,sixfive,,,,,,,,,,,,,,,,,,,,,,,,,,,,,,,,,,,,,,,,,,,,,,,,,,,,,,,,,,,,,,,,,,,,,,,,,,,,,,,,,,,,,,,,,,,,,,,,,,,,,,,,,,,,,,,,,,,,,,,,,,,,,,,,,,,,,,,,,
,,5865dd647fbbcd00013973b8,2024-02-19_02h18.32.405,kallum_motion_pilot,2023.2.2,Win32,59.52380952,5865dd647fbbcd00013973b8,65d2b6c8f2eece985d8e374c,65d2b82cf340fcf7c13cd399,0.0327,0.0328,1,20,182,12,1,threeone,,,,,,,,,,,,,,,,,,,,,,,,,,,,,,,,,,,,,,,,,,,,,,,,,,,,,,,,,,,,,,,,,,,,,,,,,,,,,,,,,,,,,,,,,,,,,,,,,,,,,,,,,,,,,,,,,,,,,,,,,,,,,,,,,,,,,,,,,
,,5865dd647fbbcd00013973b8,2024-02-19_02h18.32.405,kallum_motion_pilot,2023.2.2,Win32,59.52380952,5865dd647fbbcd00013973b8,65d2b6c8f2eece985d8e374c,65d2b82cf340fcf7c13cd399,0.0328,0.0329,1,21,183,142,1,eightsix,,,,,,,,,,,,,,,,,,,,,,,,,,,,,,,,,,,,,,,,,,,,,,,,,,,,,,,,,,,,,,,,,,,,,,,,,,,,,,,,,,,,,,,,,,,,,,,,,,,,,,,,,,,,,,,,,,,,,,,,,,,,,,,,,,,,,,,,,
,,5865dd647fbbcd00013973b8,2024-02-19_02h18.32.405,kallum_motion_pilot,2023.2.2,Win32,59.52380952,5865dd647fbbcd00013973b8,65d2b6c8f2eece985d8e374c,65d2b82cf340fcf7c13cd399,0.0329,0.033,1,22,184,20,1,threeone,,,,,,,,,,,,,,,,,,,,,,,,,,,,,,,,,,,,,,,,,,,,,,,,,,,,,,,,,,,,,,,,,,,,,,,,,,,,,,,,,,,,,,,,,,,,,,,,,,,,,,,,,,,,,,,,,,,,,,,,,,,,,,,,,,,,,,,,,
,,5865dd647fbbcd00013973b8,2024-02-19_02h18.32.405,kallum_motion_pilot,2023.2.2,Win32,59.52380952,5865dd647fbbcd00013973b8,65d2b6c8f2eece985d8e374c,65d2b82cf340fcf7c13cd399,0.0331,0.0331,1,23,185,155,1,sixeight,,,,,,,,,,,,,,,,,,,,,,,,,,,,,,,,,,,,,,,,,,,,,,,,,,,,,,,,,,,,,,,,,,,,,,,,,,,,,,,,,,,,,,,,,,,,,,,,,,,,,,,,,,,,,,,,,,,,,,,,,,,,,,,,,,,,,,,,,
,,5865dd647fbbcd00013973b8,2024-02-19_02h18.32.405,kallum_motion_pilot,2023.2.2,Win32,59.52380952,5865dd647fbbcd00013973b8,65d2b6c8f2eece985d8e374c,65d2b82cf340fcf7c13cd399,0.0332,0.0332,1,24,186,5,1,threefour,,,,,,,,,,,,,,,,,,,,,,,,,,,,,,,,,,,,,,,,,,,,,,,,,,,,,,,,,,,,,,,,,,,,,,,,,,,,,,,,,,,,,,,,,,,,,,,,,,,,,,,,,,,,,,,,,,,,,,,,,,,,,,,,,,,,,,,,,
,,5865dd647fbbcd00013973b8,2024-02-19_02h18.32.405,kallum_motion_pilot,2023.2.2,Win32,59.52380952,5865dd647fbbcd00013973b8,65d2b6c8f2eece985d8e374c,65d2b82cf340fcf7c13cd399,0.0333,0.0334,1,25,187,132,1,sevenfive,,,,,,,,,,,,,,,,,,,,,,,,,,,,,,,,,,,,,,,,,,,,,,,,,,,,,,,,,,,,,,,,,,,,,,,,,,,,,,,,,,,,,,,,,,,,,,,,,,,,,,,,,,,,,,,,,,,,,,,,,,,,,,,,,,,,,,,,,
,,5865dd647fbbcd00013973b8,2024-02-19_02h18.32.405,kallum_motion_pilot,2023.2.2,Win32,59.52380952,5865dd647fbbcd00013973b8,65d2b6c8f2eece985d8e374c,65d2b82cf340fcf7c13cd399,0.0335,0.0335,1,26,188,158,1,eightsix,,,,,,,,,,,,,,,,,,,,,,,,,,,,,,,,,,,,,,,,,,,,,,,,,,,,,,,,,,,,,,,,,,,,,,,,,,,,,,,,,,,,,,,,,,,,,,,,,,,,,,,,,,,,,,,,,,,,,,,,,,,,,,,,,,,,,,,,,
,,5865dd647fbbcd00013973b8,2024-02-19_02h18.32.405,kallum_motion_pilot,2023.2.2,Win32,59.52380952,5865dd647fbbcd00013973b8,65d2b6c8f2eece985d8e374c,65d2b82cf340fcf7c13cd399,0.0336,0.0336,1,27,189,99,1,sixeight,,,,,,,,,,,,,,,,,,,,,,,,,,,,,,,,,,,,,,,,,,,,,,,,,,,,,,,,,,,,,,,,,,,,,,,,,,,,,,,,,,,,,,,,,,,,,,,,,,,,,,,,,,,,,,,,,,,,,,,,,,,,,,,,,,,,,,,,,
,,5865dd647fbbcd00013973b8,2024-02-19_02h18.32.405,kallum_motion_pilot,2023.2.2,Win32,59.52380952,5865dd647fbbcd00013973b8,65d2b6c8f2eece985d8e374c,65d2b82cf340fcf7c13cd399,0.0337,0.0337,1,28,190,45,1,threefour,,,,,,,,,,,,,,,,,,,,,,,,,,,,,,,,,,,,,,,,,,,,,,,,,,,,,,,,,,,,,,,,,,,,,,,,,,,,,,,,,,,,,,,,,,,,,,,,,,,,,,,,,,,,,,,,,,,,,,,,,,,,,,,,,,,,,,,,,
,,5865dd647fbbcd00013973b8,2024-02-19_02h18.32.405,kallum_motion_pilot,2023.2.2,Win32,59.52380952,5865dd647fbbcd00013973b8,65d2b6c8f2eece985d8e374c,65d2b82cf340fcf7c13cd399,0.0338,0.0338,1,29,191,126,1,eightsix,,,,,,,,,,,,,,,,,,,,,,,,,,,,,,,,,,,,,,,,,,,,,,,,,,,,,,,,,,,,,,,,,,,,,,,,,,,,,,,,,,,,,,,,,,,,,,,,,,,,,,,,,,,,,,,,,,,,,,,,,,,,,,,,,,,,,,,,,
,,5865dd647fbbcd00013973b8,2024-02-19_02h18.32.405,kallum_motion_pilot,2023.2.2,Win32,59.52380952,5865dd647fbbcd00013973b8,65d2b6c8f2eece985d8e374c,65d2b82cf340fcf7c13cd399,0.0339,0.034,1,30,192,35,1,twofour,,,,,,,,,,,,,,,,,,,,,,,,,,,,,,,,,,,,,,,,,,,,,,,,,,,,,,,,,,,,,,,,,,,,,,,,,,,,,,,,,,,,,,,,,,,,,,,,,,,,,,,,,,,,,,,,,,,,,,,,,,,,,,,,,,,,,,,,,
,,5865dd647fbbcd00013973b8,2024-02-19_02h18.32.405,kallum_motion_pilot,2023.2.2,Win32,59.52380952,5865dd647fbbcd00013973b8,65d2b6c8f2eece985d8e374c,65d2b82cf340fcf7c13cd399,0.0341,0.0341,1,31,193,75,1,twofour,,,,,,,,,,,,,,,,,,,,,,,,,,,,,,,,,,,,,,,,,,,,,,,,,,,,,,,,,,,,,,,,,,,,,,,,,,,,,,,,,,,,,,,,,,,,,,,,,,,,,,,,,,,,,,,,,,,,,,,,,,,,,,,,,,,,,,,,,
,,5865dd647fbbcd00013973b8,2024-02-19_02h18.32.405,kallum_motion_pilot,2023.2.2,Win32,59.52380952,5865dd647fbbcd00013973b8,65d2b6c8f2eece985d8e374c,65d2b82cf340fcf7c13cd399,0.0342,0.0342,1,32,194,55,1,fourthree,,,,,,,,,,,,,,,,,,,,,,,,,,,,,,,,,,,,,,,,,,,,,,,,,,,,,,,,,,,,,,,,,,,,,,,,,,,,,,,,,,,,,,,,,,,,,,,,,,,,,,,,,,,,,,,,,,,,,,,,,,,,,,,,,,,,,,,,,
,,5865dd647fbbcd00013973b8,2024-02-19_02h18.32.405,kallum_motion_pilot,2023.2.2,Win32,59.52380952,5865dd647fbbcd00013973b8,65d2b6c8f2eece985d8e374c,65d2b82cf340fcf7c13cd399,0.0343,0.0344,1,33,195,157,1,seveneight,,,,,,,,,,,,,,,,,,,,,,,,,,,,,,,,,,,,,,,,,,,,,,,,,,,,,,,,,,,,,,,,,,,,,,,,,,,,,,,,,,,,,,,,,,,,,,,,,,,,,,,,,,,,,,,,,,,,,,,,,,,,,,,,,,,,,,,,,
,,5865dd647fbbcd00013973b8,2024-02-19_02h18.32.405,kallum_motion_pilot,2023.2.2,Win32,59.52380952,5865dd647fbbcd00013973b8,65d2b6c8f2eece985d8e374c,65d2b82cf340fcf7c13cd399,0.0344,0.0344,1,34,196,67,1,twofour,,,,,,,,,,,,,,,,,,,,,,,,,,,,,,,,,,,,,,,,,,,,,,,,,,,,,,,,,,,,,,,,,,,,,,,,,,,,,,,,,,,,,,,,,,,,,,,,,,,,,,,,,,,,,,,,,,,,,,,,,,,,,,,,,,,,,,,,,
,,5865dd647fbbcd00013973b8,2024-02-19_02h18.32.405,kallum_motion_pilot,2023.2.2,Win32,59.52380952,5865dd647fbbcd00013973b8,65d2b6c8f2eece985d8e374c,65d2b82cf340fcf7c13cd399,0.0345,0.0345,1,35,197,76,1,threeone,,,,,,,,,,,,,,,,,,,,,,,,,,,,,,,,,,,,,,,,,,,,,,,,,,,,,,,,,,,,,,,,,,,,,,,,,,,,,,,,,,,,,,,,,,,,,,,,,,,,,,,,,,,,,,,,,,,,,,,,,,,,,,,,,,,,,,,,,
,,5865dd647fbbcd00013973b8,2024-02-19_02h18.32.405,kallum_motion_pilot,2023.2.2,Win32,59.52380952,5865dd647fbbcd00013973b8,65d2b6c8f2eece985d8e374c,65d2b82cf340fcf7c13cd399,0.0347,0.0348,1,36,198,16,1,onetwo,,,,,,,,,,,,,,,,,,,,,,,,,,,,,,,,,,,,,,,,,,,,,,,,,,,,,,,,,,,,,,,,,,,,,,,,,,,,,,,,,,,,,,,,,,,,,,,,,,,,,,,,,,,,,,,,,,,,,,,,,,,,,,,,,,,,,,,,,
,,5865dd647fbbcd00013973b8,2024-02-19_02h18.32.405,kallum_motion_pilot,2023.2.2,Win32,59.52380952,5865dd647fbbcd00013973b8,65d2b6c8f2eece985d8e374c,65d2b82cf340fcf7c13cd399,0.0348,0.0348,1,37,199,109,1,seveneight,,,,,,,,,,,,,,,,,,,,,,,,,,,,,,,,,,,,,,,,,,,,,,,,,,,,,,,,,,,,,,,,,,,,,,,,,,,,,,,,,,,,,,,,,,,,,,,,,,,,,,,,,,,,,,,,,,,,,,,,,,,,,,,,,,,,,,,,,
,,5865dd647fbbcd00013973b8,2024-02-19_02h18.32.405,kallum_motion_pilot,2023.2.2,Win32,59.52380952,5865dd647fbbcd00013973b8,65d2b6c8f2eece985d8e374c,65d2b82cf340fcf7c13cd399,0.0349,0.0349,1,38,200,4,1,threeone,,,,,,,,,,,,,,,,,,,,,,,,,,,,,,,,,,,,,,,,,,,,,,,,,,,,,,,,,,,,,,,,,,,,,,,,,,,,,,,,,,,,,,,,,,,,,,,,,,,,,,,,,,,,,,,,,,,,,,,,,,,,,,,,,,,,,,,,,
,,5865dd647fbbcd00013973b8,2024-02-19_02h18.32.405,kallum_motion_pilot,2023.2.2,Win32,59.52380952,5865dd647fbbcd00013973b8,65d2b6c8f2eece985d8e374c,65d2b82cf340fcf7c13cd399,0.035,0.0351,1,39,201,146,1,sixfive,,,,,,,,,,,,,,,,,,,,,,,,,,,,,,,,,,,,,,,,,,,,,,,,,,,,,,,,,,,,,,,,,,,,,,,,,,,,,,,,,,,,,,,,,,,,,,,,,,,,,,,,,,,,,,,,,,,,,,,,,,,,,,,,,,,,,,,,,
,,5865dd647fbbcd00013973b8,2024-02-19_02h18.32.405,kallum_motion_pilot,2023.2.2,Win32,59.52380952,5865dd647fbbcd00013973b8,65d2b6c8f2eece985d8e374c,65d2b82cf340fcf7c13cd399,0.0351,0.0352,1,40,202,100,1,sevenfive,,,,,,,,,,,,,,,,,,,,,,,,,,,,,,,,,,,,,,,,,,,,,,,,,,,,,,,,,,,,,,,,,,,,,,,,,,,,,,,,,,,,,,,,,,,,,,,,,,,,,,,,,,,,,,,,,,,,,,,,,,,,,,,,,,,,,,,,,
,,5865dd647fbbcd00013973b8,2024-02-19_02h18.32.405,kallum_motion_pilot,2023.2.2,Win32,59.52380952,5865dd647fbbcd00013973b8,65d2b6c8f2eece985d8e374c,65d2b82cf340fcf7c13cd399,0.0352,0.0353,1,41,203,11,1,twofour,,,,,,,,,,,,,,,,,,,,,,,,,,,,,,,,,,,,,,,,,,,,,,,,,,,,,,,,,,,,,,,,,,,,,,,,,,,,,,,,,,,,,,,,,,,,,,,,,,,,,,,,,,,,,,,,,,,,,,,,,,,,,,,,,,,,,,,,,
,,5865dd647fbbcd00013973b8,2024-02-19_02h18.32.405,kallum_motion_pilot,2023.2.2,Win32,59.52380952,5865dd647fbbcd00013973b8,65d2b6c8f2eece985d8e374c,65d2b82cf340fcf7c13cd399,0.0353,0.0354,1,42,204,129,1,fiveseven,,,,,,,,,,,,,,,,,,,,,,,,,,,,,,,,,,,,,,,,,,,,,,,,,,,,,,,,,,,,,,,,,,,,,,,,,,,,,,,,,,,,,,,,,,,,,,,,,,,,,,,,,,,,,,,,,,,,,,,,,,,,,,,,,,,,,,,,,
,,5865dd647fbbcd00013973b8,2024-02-19_02h18.32.405,kallum_motion_pilot,2023.2.2,Win32,59.52380952,5865dd647fbbcd00013973b8,65d2b6c8f2eece985d8e374c,65d2b82cf340fcf7c13cd399,0.0355,0.0355,1,43,205,96,1,fivesix,,,,,,,,,,,,,,,,,,,,,,,,,,,,,,,,,,,,,,,,,,,,,,,,,,,,,,,,,,,,,,,,,,,,,,,,,,,,,,,,,,,,,,,,,,,,,,,,,,,,,,,,,,,,,,,,,,,,,,,,,,,,,,,,,,,,,,,,,
,,5865dd647fbbcd00013973b8,2024-02-19_02h18.32.405,kallum_motion_pilot,2023.2.2,Win32,59.52380952,5865dd647fbbcd00013973b8,65d2b6c8f2eece985d8e374c,65d2b82cf340fcf7c13cd399,0.0355,0.0356,1,44,206,94,1,eightsix,,,,,,,,,,,,,,,,,,,,,,,,,,,,,,,,,,,,,,,,,,,,,,,,,,,,,,,,,,,,,,,,,,,,,,,,,,,,,,,,,,,,,,,,,,,,,,,,,,,,,,,,,,,,,,,,,,,,,,,,,,,,,,,,,,,,,,,,,
,,5865dd647fbbcd00013973b8,2024-02-19_02h18.32.405,kallum_motion_pilot,2023.2.2,Win32,59.52380952,5865dd647fbbcd00013973b8,65d2b6c8f2eece985d8e374c,65d2b82cf340fcf7c13cd399,0.0357,0.0357,1,45,207,156,1,sevenfive,,,,,,,,,,,,,,,,,,,,,,,,,,,,,,,,,,,,,,,,,,,,,,,,,,,,,,,,,,,,,,,,,,,,,,,,,,,,,,,,,,,,,,,,,,,,,,,,,,,,,,,,,,,,,,,,,,,,,,,,,,,,,,,,,,,,,,,,,
,,5865dd647fbbcd00013973b8,2024-02-19_02h18.32.405,kallum_motion_pilot,2023.2.2,Win32,59.52380952,5865dd647fbbcd00013973b8,65d2b6c8f2eece985d8e374c,65d2b82cf340fcf7c13cd399,0.0357,0.0358,1,46,208,66,1,twoone,,,,,,,,,,,,,,,,,,,,,,,,,,,,,,,,,,,,,,,,,,,,,,,,,,,,,,,,,,,,,,,,,,,,,,,,,,,,,,,,,,,,,,,,,,,,,,,,,,,,,,,,,,,,,,,,,,,,,,,,,,,,,,,,,,,,,,,,,
,,5865dd647fbbcd00013973b8,2024-02-19_02h18.32.405,kallum_motion_pilot,2023.2.2,Win32,59.52380952,5865dd647fbbcd00013973b8,65d2b6c8f2eece985d8e374c,65d2b82cf340fcf7c13cd399,0.0364,0.0364,1,47,209,10,1,twoone,,,,,,,,,,,,,,,,,,,,,,,,,,,,,,,,,,,,,,,,,,,,,,,,,,,,,,,,,,,,,,,,,,,,,,,,,,,,,,,,,,,,,,,,,,,,,,,,,,,,,,,,,,,,,,,,,,,,,,,,,,,,,,,,,,,,,,,,,
,,5865dd647fbbcd00013973b8,2024-02-19_02h18.32.405,kallum_motion_pilot,2023.2.2,Win32,59.52380952,5865dd647fbbcd00013973b8,65d2b6c8f2eece985d8e374c,65d2b82cf340fcf7c13cd399,0.0365,0.0365,1,48,210,113,1,fiveseven,,,,,,,,,,,,,,,,,,,,,,,,,,,,,,,,,,,,,,,,,,,,,,,,,,,,,,,,,,,,,,,,,,,,,,,,,,,,,,,,,,,,,,,,,,,,,,,,,,,,,,,,,,,,,,,,,,,,,,,,,,,,,,,,,,,,,,,,,
,,5865dd647fbbcd00013973b8,2024-02-19_02h18.32.405,kallum_motion_pilot,2023.2.2,Win32,59.52380952,5865dd647fbbcd00013973b8,65d2b6c8f2eece985d8e374c,65d2b82cf340fcf7c13cd399,0.0366,0.0367,1,49,211,39,1,fourthree,,,,,,,,,,,,,,,,,,,,,,,,,,,,,,,,,,,,,,,,,,,,,,,,,,,,,,,,,,,,,,,,,,,,,,,,,,,,,,,,,,,,,,,,,,,,,,,,,,,,,,,,,,,,,,,,,,,,,,,,,,,,,,,,,,,,,,,,,
,,5865dd647fbbcd00013973b8,2024-02-19_02h18.32.405,kallum_motion_pilot,2023.2.2,Win32,59.52380952,5865dd647fbbcd00013973b8,65d2b6c8f2eece985d8e374c,65d2b82cf340fcf7c13cd399,0.0367,0.0367,1,50,212,120,1,fivesix,,,,,,,,,,,,,,,,,,,,,,,,,,,,,,,,,,,,,,,,,,,,,,,,,,,,,,,,,,,,,,,,,,,,,,,,,,,,,,,,,,,,,,,,,,,,,,,,,,,,,,,,,,,,,,,,,,,,,,,,,,,,,,,,,,,,,,,,,
,,5865dd647fbbcd00013973b8,2024-02-19_02h18.32.405,kallum_motion_pilot,2023.2.2,Win32,59.52380952,5865dd647fbbcd00013973b8,65d2b6c8f2eece985d8e374c,65d2b82cf340fcf7c13cd399,0.0368,0.0368,1,51,213,62,1,fourtwo,,,,,,,,,,,,,,,,,,,,,,,,,,,,,,,,,,,,,,,,,,,,,,,,,,,,,,,,,,,,,,,,,,,,,,,,,,,,,,,,,,,,,,,,,,,,,,,,,,,,,,,,,,,,,,,,,,,,,,,,,,,,,,,,,,,,,,,,,
,,5865dd647fbbcd00013973b8,2024-02-19_02h18.32.405,kallum_motion_pilot,2023.2.2,Win32,59.52380952,5865dd647fbbcd00013973b8,65d2b6c8f2eece985d8e374c,65d2b82cf340fcf7c13cd399,0.0369,0.037,1,52,214,13,1,threefour,,,,,,,,,,,,,,,,,,,,,,,,,,,,,,,,,,,,,,,,,,,,,,,,,,,,,,,,,,,,,,,,,,,,,,,,,,,,,,,,,,,,,,,,,,,,,,,,,,,,,,,,,,,,,,,,,,,,,,,,,,,,,,,,,,,,,,,,,
,,5865dd647fbbcd00013973b8,2024-02-19_02h18.32.405,kallum_motion_pilot,2023.2.2,Win32,59.52380952,5865dd647fbbcd00013973b8,65d2b6c8f2eece985d8e374c,65d2b82cf340fcf7c13cd399,0.037,0.0371,1,53,215,2,1,twoone,,,,,,,,,,,,,,,,,,,,,,,,,,,,,,,,,,,,,,,,,,,,,,,,,,,,,,,,,,,,,,,,,,,,,,,,,,,,,,,,,,,,,,,,,,,,,,,,,,,,,,,,,,,,,,,,,,,,,,,,,,,,,,,,,,,,,,,,,
,,5865dd647fbbcd00013973b8,2024-02-19_02h18.32.405,kallum_motion_pilot,2023.2.2,Win32,59.52380952,5865dd647fbbcd00013973b8,65d2b6c8f2eece985d8e374c,65d2b82cf340fcf7c13cd399,0.0371,0.0372,1,54,216,15,1,fourthree,,,,,,,,,,,,,,,,,,,,,,,,,,,,,,,,,,,,,,,,,,,,,,,,,,,,,,,,,,,,,,,,,,,,,,,,,,,,,,,,,,,,,,,,,,,,,,,,,,,,,,,,,,,,,,,,,,,,,,,,,,,,,,,,,,,,,,,,,
,,5865dd647fbbcd00013973b8,2024-02-19_02h18.32.405,kallum_motion_pilot,2023.2.2,Win32,59.52380952,5865dd647fbbcd00013973b8,65d2b6c8f2eece985d8e374c,65d2b82cf340fcf7c13cd399,0.0372,0.0372,1,55,217,124,1,sevenfive,,,,,,,,,,,,,,,,,,,,,,,,,,,,,,,,,,,,,,,,,,,,,,,,,,,,,,,,,,,,,,,,,,,,,,,,,,,,,,,,,,,,,,,,,,,,,,,,,,,,,,,,,,,,,,,,,,,,,,,,,,,,,,,,,,,,,,,,,
,,5865dd647fbbcd00013973b8,2024-02-19_02h18.32.405,kallum_motion_pilot,2023.2.2,Win32,59.52380952,5865dd647fbbcd00013973b8,65d2b6c8f2eece985d8e374c,65d2b82cf340fcf7c13cd399,0.0373,0.0373,1,56,218,31,1,fourthree,,,,,,,,,,,,,,,,,,,,,,,,,,,,,,,,,,,,,,,,,,,,,,,,,,,,,,,,,,,,,,,,,,,,,,,,,,,,,,,,,,,,,,,,,,,,,,,,,,,,,,,,,,,,,,,,,,,,,,,,,,,,,,,,,,,,,,,,,
,,5865dd647fbbcd00013973b8,2024-02-19_02h18.32.405,kallum_motion_pilot,2023.2.2,Win32,59.52380952,5865dd647fbbcd00013973b8,65d2b6c8f2eece985d8e374c,65d2b82cf340fcf7c13cd399,0.0374,0.0375,1,57,219,23,1,fourthree,,,,,,,,,,,,,,,,,,,,,,,,,,,,,,,,,,,,,,,,,,,,,,,,,,,,,,,,,,,,,,,,,,,,,,,,,,,,,,,,,,,,,,,,,,,,,,,,,,,,,,,,,,,,,,,,,,,,,,,,,,,,,,,,,,,,,,,,,
,,5865dd647fbbcd00013973b8,2024-02-19_02h18.32.405,kallum_motion_pilot,2023.2.2,Win32,59.52380952,5865dd647fbbcd00013973b8,65d2b6c8f2eece985d8e374c,65d2b82cf340fcf7c13cd399,0.0375,0.0376,1,58,220,125,1,seveneight,,,,,,,,,,,,,,,,,,,,,,,,,,,,,,,,,,,,,,,,,,,,,,,,,,,,,,,,,,,,,,,,,,,,,,,,,,,,,,,,,,,,,,,,,,,,,,,,,,,,,,,,,,,,,,,,,,,,,,,,,,,,,,,,,,,,,,,,,
,,5865dd647fbbcd00013973b8,2024-02-19_02h18.32.405,kallum_motion_pilot,2023.2.2,Win32,59.52380952,5865dd647fbbcd00013973b8,65d2b6c8f2eece985d8e374c,65d2b82cf340fcf7c13cd399,0.0376,0.0377,1,59,221,105,1,fiveseven,,,,,,,,,,,,,,,,,,,,,,,,,,,,,,,,,,,,,,,,,,,,,,,,,,,,,,,,,,,,,,,,,,,,,,,,,,,,,,,,,,,,,,,,,,,,,,,,,,,,,,,,,,,,,,,,,,,,,,,,,,,,,,,,,,,,,,,,,
,,5865dd647fbbcd00013973b8,2024-02-19_02h18.32.405,kallum_motion_pilot,2023.2.2,Win32,59.52380952,5865dd647fbbcd00013973b8,65d2b6c8f2eece985d8e374c,65d2b82cf340fcf7c13cd399,0.0377,0.0378,1,60,222,84,1,sevenfive,,,,,,,,,,,,,,,,,,,,,,,,,,,,,,,,,,,,,,,,,,,,,,,,,,,,,,,,,,,,,,,,,,,,,,,,,,,,,,,,,,,,,,,,,,,,,,,,,,,,,,,,,,,,,,,,,,,,,,,,,,,,,,,,,,,,,,,,,
,,5865dd647fbbcd00013973b8,2024-02-19_02h18.32.405,kallum_motion_pilot,2023.2.2,Win32,59.52380952,5865dd647fbbcd00013973b8,65d2b6c8f2eece985d8e374c,65d2b82cf340fcf7c13cd399,0.0378,0.0379,1,61,223,1,1,onethree,,,,,,,,,,,,,,,,,,,,,,,,,,,,,,,,,,,,,,,,,,,,,,,,,,,,,,,,,,,,,,,,,,,,,,,,,,,,,,,,,,,,,,,,,,,,,,,,,,,,,,,,,,,,,,,,,,,,,,,,,,,,,,,,,,,,,,,,,
,,5865dd647fbbcd00013973b8,2024-02-19_02h18.32.405,kallum_motion_pilot,2023.2.2,Win32,59.52380952,5865dd647fbbcd00013973b8,65d2b6c8f2eece985d8e374c,65d2b82cf340fcf7c13cd399,0.038,0.038,1,62,224,79,1,eightseven,,,,,,,,,,,,,,,,,,,,,,,,,,,,,,,,,,,,,,,,,,,,,,,,,,,,,,,,,,,,,,,,,,,,,,,,,,,,,,,,,,,,,,,,,,,,,,,,,,,,,,,,,,,,,,,,,,,,,,,,,,,,,,,,,,,,,,,,,
,,5865dd647fbbcd00013973b8,2024-02-19_02h18.32.405,kallum_motion_pilot,2023.2.2,Win32,59.52380952,5865dd647fbbcd00013973b8,65d2b6c8f2eece985d8e374c,65d2b82cf340fcf7c13cd399,0.038,0.0381,1,63,225,153,1,fiveseven,,,,,,,,,,,,,,,,,,,,,,,,,,,,,,,,,,,,,,,,,,,,,,,,,,,,,,,,,,,,,,,,,,,,,,,,,,,,,,,,,,,,,,,,,,,,,,,,,,,,,,,,,,,,,,,,,,,,,,,,,,,,,,,,,,,,,,,,,
,,5865dd647fbbcd00013973b8,2024-02-19_02h18.32.405,kallum_motion_pilot,2023.2.2,Win32,59.52380952,5865dd647fbbcd00013973b8,65d2b6c8f2eece985d8e374c,65d2b82cf340fcf7c13cd399,0.0381,0.0382,1,64,226,116,1,sevenfive,,,,,,,,,,,,,,,,,,,,,,,,,,,,,,,,,,,,,,,,,,,,,,,,,,,,,,,,,,,,,,,,,,,,,,,,,,,,,,,,,,,,,,,,,,,,,,,,,,,,,,,,,,,,,,,,,,,,,,,,,,,,,,,,,,,,,,,,,
,,5865dd647fbbcd00013973b8,2024-02-19_02h18.32.405,kallum_motion_pilot,2023.2.2,Win32,59.52380952,5865dd647fbbcd00013973b8,65d2b6c8f2eece985d8e374c,65d2b82cf340fcf7c13cd399,0.0382,0.0383,1,65,227,89,1,fiveseven,,,,,,,,,,,,,,,,,,,,,,,,,,,,,,,,,,,,,,,,,,,,,,,,,,,,,,,,,,,,,,,,,,,,,,,,,,,,,,,,,,,,,,,,,,,,,,,,,,,,,,,,,,,,,,,,,,,,,,,,,,,,,,,,,,,,,,,,,
,,5865dd647fbbcd00013973b8,2024-02-19_02h18.32.405,kallum_motion_pilot,2023.2.2,Win32,59.52380952,5865dd647fbbcd00013973b8,65d2b6c8f2eece985d8e374c,65d2b82cf340fcf7c13cd399,0.0383,0.0383,1,66,228,60,1,threeone,,,,,,,,,,,,,,,,,,,,,,,,,,,,,,,,,,,,,,,,,,,,,,,,,,,,,,,,,,,,,,,,,,,,,,,,,,,,,,,,,,,,,,,,,,,,,,,,,,,,,,,,,,,,,,,,,,,,,,,,,,,,,,,,,,,,,,,,,
,,5865dd647fbbcd00013973b8,2024-02-19_02h18.32.405,kallum_motion_pilot,2023.2.2,Win32,59.52380952,5865dd647fbbcd00013973b8,65d2b6c8f2eece985d8e374c,65d2b82cf340fcf7c13cd399,0.0384,0.0384,1,67,229,151,1,eightseven,,,,,,,,,,,,,,,,,,,,,,,,,,,,,,,,,,,,,,,,,,,,,,,,,,,,,,,,,,,,,,,,,,,,,,,,,,,,,,,,,,,,,,,,,,,,,,,,,,,,,,,,,,,,,,,,,,,,,,,,,,,,,,,,,,,,,,,,,
,,5865dd647fbbcd00013973b8,2024-02-19_02h18.32.405,kallum_motion_pilot,2023.2.2,Win32,59.52380952,5865dd647fbbcd00013973b8,65d2b6c8f2eece985d8e374c,65d2b82cf340fcf7c13cd399,0.0385,0.0385,1,68,230,70,1,fourtwo,,,,,,,,,,,,,,,,,,,,,,,,,,,,,,,,,,,,,,,,,,,,,,,,,,,,,,,,,,,,,,,,,,,,,,,,,,,,,,,,,,,,,,,,,,,,,,,,,,,,,,,,,,,,,,,,,,,,,,,,,,,,,,,,,,,,,,,,,
,,5865dd647fbbcd00013973b8,2024-02-19_02h18.32.405,kallum_motion_pilot,2023.2.2,Win32,59.52380952,5865dd647fbbcd00013973b8,65d2b6c8f2eece985d8e374c,65d2b82cf340fcf7c13cd399,0.0386,0.0387,1,69,231,83,1,sixeight,,,,,,,,,,,,,,,,,,,,,,,,,,,,,,,,,,,,,,,,,,,,,,,,,,,,,,,,,,,,,,,,,,,,,,,,,,,,,,,,,,,,,,,,,,,,,,,,,,,,,,,,,,,,,,,,,,,,,,,,,,,,,,,,,,,,,,,,,
,,5865dd647fbbcd00013973b8,2024-02-19_02h18.32.405,kallum_motion_pilot,2023.2.2,Win32,59.52380952,5865dd647fbbcd00013973b8,65d2b6c8f2eece985d8e374c,65d2b82cf340fcf7c13cd399,0.0388,0.0388,1,70,232,68,1,threeone,,,,,,,,,,,,,,,,,,,,,,,,,,,,,,,,,,,,,,,,,,,,,,,,,,,,,,,,,,,,,,,,,,,,,,,,,,,,,,,,,,,,,,,,,,,,,,,,,,,,,,,,,,,,,,,,,,,,,,,,,,,,,,,,,,,,,,,,,
,,5865dd647fbbcd00013973b8,2024-02-19_02h18.32.405,kallum_motion_pilot,2023.2.2,Win32,59.52380952,5865dd647fbbcd00013973b8,65d2b6c8f2eece985d8e374c,65d2b82cf340fcf7c13cd399,0.0389,0.0389,1,71,233,77,1,threefour,,,,,,,,,,,,,,,,,,,,,,,,,,,,,,,,,,,,,,,,,,,,,,,,,,,,,,,,,,,,,,,,,,,,,,,,,,,,,,,,,,,,,,,,,,,,,,,,,,,,,,,,,,,,,,,,,,,,,,,,,,,,,,,,,,,,,,,,,
,,5865dd647fbbcd00013973b8,2024-02-19_02h18.32.405,kallum_motion_pilot,2023.2.2,Win32,59.52380952,5865dd647fbbcd00013973b8,65d2b6c8f2eece985d8e374c,65d2b82cf340fcf7c13cd399,0.039,0.039,1,72,234,19,1,twofour,,,,,,,,,,,,,,,,,,,,,,,,,,,,,,,,,,,,,,,,,,,,,,,,,,,,,,,,,,,,,,,,,,,,,,,,,,,,,,,,,,,,,,,,,,,,,,,,,,,,,,,,,,,,,,,,,,,,,,,,,,,,,,,,,,,,,,,,,
,,5865dd647fbbcd00013973b8,2024-02-19_02h18.32.405,kallum_motion_pilot,2023.2.2,Win32,59.52380952,5865dd647fbbcd00013973b8,65d2b6c8f2eece985d8e374c,65d2b82cf340fcf7c13cd399,0.0391,0.0391,1,73,235,53,1,threefour,,,,,,,,,,,,,,,,,,,,,,,,,,,,,,,,,,,,,,,,,,,,,,,,,,,,,,,,,,,,,,,,,,,,,,,,,,,,,,,,,,,,,,,,,,,,,,,,,,,,,,,,,,,,,,,,,,,,,,,,,,,,,,,,,,,,,,,,,
,,5865dd647fbbcd00013973b8,2024-02-19_02h18.32.405,kallum_motion_pilot,2023.2.2,Win32,59.52380952,5865dd647fbbcd00013973b8,65d2b6c8f2eece985d8e374c,65d2b82cf340fcf7c13cd399,0.0391,0.0392,1,74,236,57,1,onethree,,,,,,,,,,,,,,,,,,,,,,,,,,,,,,,,,,,,,,,,,,,,,,,,,,,,,,,,,,,,,,,,,,,,,,,,,,,,,,,,,,,,,,,,,,,,,,,,,,,,,,,,,,,,,,,,,,,,,,,,,,,,,,,,,,,,,,,,,
,,5865dd647fbbcd00013973b8,2024-02-19_02h18.32.405,kallum_motion_pilot,2023.2.2,Win32,59.52380952,5865dd647fbbcd00013973b8,65d2b6c8f2eece985d8e374c,65d2b82cf340fcf7c13cd399,0.0392,0.0393,1,75,237,148,1,sevenfive,,,,,,,,,,,,,,,,,,,,,,,,,,,,,,,,,,,,,,,,,,,,,,,,,,,,,,,,,,,,,,,,,,,,,,,,,,,,,,,,,,,,,,,,,,,,,,,,,,,,,,,,,,,,,,,,,,,,,,,,,,,,,,,,,,,,,,,,,
,,5865dd647fbbcd00013973b8,2024-02-19_02h18.32.405,kallum_motion_pilot,2023.2.2,Win32,59.52380952,5865dd647fbbcd00013973b8,65d2b6c8f2eece985d8e374c,65d2b82cf340fcf7c13cd399,0.0393,0.0394,1,76,238,137,1,fiveseven,,,,,,,,,,,,,,,,,,,,,,,,,,,,,,,,,,,,,,,,,,,,,,,,,,,,,,,,,,,,,,,,,,,,,,,,,,,,,,,,,,,,,,,,,,,,,,,,,,,,,,,,,,,,,,,,,,,,,,,,,,,,,,,,,,,,,,,,,
,,5865dd647fbbcd00013973b8,2024-02-19_02h18.32.405,kallum_motion_pilot,2023.2.2,Win32,59.52380952,5865dd647fbbcd00013973b8,65d2b6c8f2eece985d8e374c,65d2b82cf340fcf7c13cd399,0.0394,0.0395,1,77,239,88,1,fivesix,,,,,,,,,,,,,,,,,,,,,,,,,,,,,,,,,,,,,,,,,,,,,,,,,,,,,,,,,,,,,,,,,,,,,,,,,,,,,,,,,,,,,,,,,,,,,,,,,,,,,,,,,,,,,,,,,,,,,,,,,,,,,,,,,,,,,,,,,
,,5865dd647fbbcd00013973b8,2024-02-19_02h18.32.405,kallum_motion_pilot,2023.2.2,Win32,59.52380952,5865dd647fbbcd00013973b8,65d2b6c8f2eece985d8e374c,65d2b82cf340fcf7c13cd399,0.0395,0.0396,1,78,240,117,1,seveneight,,,,,,,,,,,,,,,,,,,,,,,,,,,,,,,,,,,,,,,,,,,,,,,,,,,,,,,,,,,,,,,,,,,,,,,,,,,,,,,,,,,,,,,,,,,,,,,,,,,,,,,,,,,,,,,,,,,,,,,,,,,,,,,,,,,,,,,,,
,,5865dd647fbbcd00013973b8,2024-02-19_02h18.32.405,kallum_motion_pilot,2023.2.2,Win32,59.52380952,5865dd647fbbcd00013973b8,65d2b6c8f2eece985d8e374c,65d2b82cf340fcf7c13cd399,0.0396,0.0397,1,79,241,37,1,threefour,,,,,,,,,,,,,,,,,,,,,,,,,,,,,,,,,,,,,,,,,,,,,,,,,,,,,,,,,,,,,,,,,,,,,,,,,,,,,,,,,,,,,,,,,,,,,,,,,,,,,,,,,,,,,,,,,,,,,,,,,,,,,,,,,,,,,,,,,
,,5865dd647fbbcd00013973b8,2024-02-19_02h18.32.405,kallum_motion_pilot,2023.2.2,Win32,59.52380952,5865dd647fbbcd00013973b8,65d2b6c8f2eece985d8e374c,65d2b82cf340fcf7c13cd399,0.0397,0.0398,1,80,242,161,1,fiveseven,,,,,,,,,,,,,,,,,,,,,,,,,,,,,,,,,,,,,,,,,,,,,,,,,,,,,,,,,,,,,,,,,,,,,,,,,,,,,,,,,,,,,,,,,,,,,,,,,,,,,,,,,,,,,,,,,,,,,,,,,,,,,,,,,,,,,,,,,
,,5865dd647fbbcd00013973b8,2024-02-19_02h18.32.405,kallum_motion_pilot,2023.2.2,Win32,59.52380952,5865dd647fbbcd00013973b8,65d2b6c8f2eece985d8e374c,65d2b82cf340fcf7c13cd399,0.0398,0.0398,1,81,243,61,1,threefour,,,,,,,,,,,,,,,,,,,,,,,,,,,,,,,,,,,,,,,,,,,,,,,,,,,,,,,,,,,,,,,,,,,,,,,,,,,,,,,,,,,,,,,,,,,,,,,,,,,,,,,,,,,,,,,,,,,,,,,,,,,,,,,,,,,,,,,,,
,,5865dd647fbbcd00013973b8,2024-02-19_02h18.32.405,kallum_motion_pilot,2023.2.2,Win32,59.52380952,5865dd647fbbcd00013973b8,65d2b6c8f2eece985d8e374c,65d2b82cf340fcf7c13cd399,0.0399,0.04,1,82,244,111,1,eightseven,,,,,,,,,,,,,,,,,,,,,,,,,,,,,,,,,,,,,,,,,,,,,,,,,,,,,,,,,,,,,,,,,,,,,,,,,,,,,,,,,,,,,,,,,,,,,,,,,,,,,,,,,,,,,,,,,,,,,,,,,,,,,,,,,,,,,,,,,
,,5865dd647fbbcd00013973b8,2024-02-19_02h18.32.405,kallum_motion_pilot,2023.2.2,Win32,59.52380952,5865dd647fbbcd00013973b8,65d2b6c8f2eece985d8e374c,65d2b82cf340fcf7c13cd399,0.04,0.0401,1,83,245,144,1,fivesix,,,,,,,,,,,,,,,,,,,,,,,,,,,,,,,,,,,,,,,,,,,,,,,,,,,,,,,,,,,,,,,,,,,,,,,,,,,,,,,,,,,,,,,,,,,,,,,,,,,,,,,,,,,,,,,,,,,,,,,,,,,,,,,,,,,,,,,,,
,,5865dd647fbbcd00013973b8,2024-02-19_02h18.32.405,kallum_motion_pilot,2023.2.2,Win32,59.52380952,5865dd647fbbcd00013973b8,65d2b6c8f2eece985d8e374c,65d2b82cf340fcf7c13cd399,0.0401,0.0401,1,84,246,33,1,onethree,,,,,,,,,,,,,,,,,,,,,,,,,,,,,,,,,,,,,,,,,,,,,,,,,,,,,,,,,,,,,,,,,,,,,,,,,,,,,,,,,,,,,,,,,,,,,,,,,,,,,,,,,,,,,,,,,,,,,,,,,,,,,,,,,,,,,,,,,
,,5865dd647fbbcd00013973b8,2024-02-19_02h18.32.405,kallum_motion_pilot,2023.2.2,Win32,59.52380952,5865dd647fbbcd00013973b8,65d2b6c8f2eece985d8e374c,65d2b82cf340fcf7c13cd399,0.0402,0.0403,1,85,247,159,1,eightseven,,,,,,,,,,,,,,,,,,,,,,,,,,,,,,,,,,,,,,,,,,,,,,,,,,,,,,,,,,,,,,,,,,,,,,,,,,,,,,,,,,,,,,,,,,,,,,,,,,,,,,,,,,,,,,,,,,,,,,,,,,,,,,,,,,,,,,,,,
,,5865dd647fbbcd00013973b8,2024-02-19_02h18.32.405,kallum_motion_pilot,2023.2.2,Win32,59.52380952,5865dd647fbbcd00013973b8,65d2b6c8f2eece985d8e374c,65d2b82cf340fcf7c13cd399,0.0403,0.0404,1,86,248,44,1,threeone,,,,,,,,,,,,,,,,,,,,,,,,,,,,,,,,,,,,,,,,,,,,,,,,,,,,,,,,,,,,,,,,,,,,,,,,,,,,,,,,,,,,,,,,,,,,,,,,,,,,,,,,,,,,,,,,,,,,,,,,,,,,,,,,,,,,,,,,,
,,5865dd647fbbcd00013973b8,2024-02-19_02h18.32.405,kallum_motion_pilot,2023.2.2,Win32,59.52380952,5865dd647fbbcd00013973b8,65d2b6c8f2eece985d8e374c,65d2b82cf340fcf7c13cd399,0.0405,0.0405,1,87,249,47,1,fourthree,,,,,,,,,,,,,,,,,,,,,,,,,,,,,,,,,,,,,,,,,,,,,,,,,,,,,,,,,,,,,,,,,,,,,,,,,,,,,,,,,,,,,,,,,,,,,,,,,,,,,,,,,,,,,,,,,,,,,,,,,,,,,,,,,,,,,,,,,
,,5865dd647fbbcd00013973b8,2024-02-19_02h18.32.405,kallum_motion_pilot,2023.2.2,Win32,59.52380952,5865dd647fbbcd00013973b8,65d2b6c8f2eece985d8e374c,65d2b82cf340fcf7c13cd399,0.0405,0.0406,1,88,250,154,1,sixfive,,,,,,,,,,,,,,,,,,,,,,,,,,,,,,,,,,,,,,,,,,,,,,,,,,,,,,,,,,,,,,,,,,,,,,,,,,,,,,,,,,,,,,,,,,,,,,,,,,,,,,,,,,,,,,,,,,,,,,,,,,,,,,,,,,,,,,,,,
,,5865dd647fbbcd00013973b8,2024-02-19_02h18.32.405,kallum_motion_pilot,2023.2.2,Win32,59.52380952,5865dd647fbbcd00013973b8,65d2b6c8f2eece985d8e374c,65d2b82cf340fcf7c13cd399,0.0407,0.0407,1,89,251,14,1,fourtwo,,,,,,,,,,,,,,,,,,,,,,,,,,,,,,,,,,,,,,,,,,,,,,,,,,,,,,,,,,,,,,,,,,,,,,,,,,,,,,,,,,,,,,,,,,,,,,,,,,,,,,,,,,,,,,,,,,,,,,,,,,,,,,,,,,,,,,,,,
,,5865dd647fbbcd00013973b8,2024-02-19_02h18.32.405,kallum_motion_pilot,2023.2.2,Win32,59.52380952,5865dd647fbbcd00013973b8,65d2b6c8f2eece985d8e374c,65d2b82cf340fcf7c13cd399,0.0408,0.0408,1,90,252,30,1,fourtwo,,,,,,,,,,,,,,,,,,,,,,,,,,,,,,,,,,,,,,,,,,,,,,,,,,,,,,,,,,,,,,,,,,,,,,,,,,,,,,,,,,,,,,,,,,,,,,,,,,,,,,,,,,,,,,,,,,,,,,,,,,,,,,,,,,,,,,,,,
,,5865dd647fbbcd00013973b8,2024-02-19_02h18.32.405,kallum_motion_pilot,2023.2.2,Win32,59.52380952,5865dd647fbbcd00013973b8,65d2b6c8f2eece985d8e374c,65d2b82cf340fcf7c13cd399,0.0408,0.0409,1,91,253,42,1,twoone,,,,,,,,,,,,,,,,,,,,,,,,,,,,,,,,,,,,,,,,,,,,,,,,,,,,,,,,,,,,,,,,,,,,,,,,,,,,,,,,,,,,,,,,,,,,,,,,,,,,,,,,,,,,,,,,,,,,,,,,,,,,,,,,,,,,,,,,,
,,5865dd647fbbcd00013973b8,2024-02-19_02h18.32.405,kallum_motion_pilot,2023.2.2,Win32,59.52380952,5865dd647fbbcd00013973b8,65d2b6c8f2eece985d8e374c,65d2b82cf340fcf7c13cd399,0.041,0.041,1,92,254,56,1,onetwo,,,,,,,,,,,,,,,,,,,,,,,,,,,,,,,,,,,,,,,,,,,,,,,,,,,,,,,,,,,,,,,,,,,,,,,,,,,,,,,,,,,,,,,,,,,,,,,,,,,,,,,,,,,,,,,,,,,,,,,,,,,,,,,,,,,,,,,,,
,,5865dd647fbbcd00013973b8,2024-02-19_02h18.32.405,kallum_motion_pilot,2023.2.2,Win32,59.52380952,5865dd647fbbcd00013973b8,65d2b6c8f2eece985d8e374c,65d2b82cf340fcf7c13cd399,0.0411,0.0411,1,93,255,27,1,twofour,,,,,,,,,,,,,,,,,,,,,,,,,,,,,,,,,,,,,,,,,,,,,,,,,,,,,,,,,,,,,,,,,,,,,,,,,,,,,,,,,,,,,,,,,,,,,,,,,,,,,,,,,,,,,,,,,,,,,,,,,,,,,,,,,,,,,,,,,
,,5865dd647fbbcd00013973b8,2024-02-19_02h18.32.405,kallum_motion_pilot,2023.2.2,Win32,59.52380952,5865dd647fbbcd00013973b8,65d2b6c8f2eece985d8e374c,65d2b82cf340fcf7c13cd399,0.0412,0.0412,1,94,256,48,1,onetwo,,,,,,,,,,,,,,,,,,,,,,,,,,,,,,,,,,,,,,,,,,,,,,,,,,,,,,,,,,,,,,,,,,,,,,,,,,,,,,,,,,,,,,,,,,,,,,,,,,,,,,,,,,,,,,,,,,,,,,,,,,,,,,,,,,,,,,,,,
,,5865dd647fbbcd00013973b8,2024-02-19_02h18.32.405,kallum_motion_pilot,2023.2.2,Win32,59.52380952,5865dd647fbbcd00013973b8,65d2b6c8f2eece985d8e374c,65d2b82cf340fcf7c13cd399,0.0413,0.0413,1,95,257,54,1,fourtwo,,,,,,,,,,,,,,,,,,,,,,,,,,,,,,,,,,,,,,,,,,,,,,,,,,,,,,,,,,,,,,,,,,,,,,,,,,,,,,,,,,,,,,,,,,,,,,,,,,,,,,,,,,,,,,,,,,,,,,,,,,,,,,,,,,,,,,,,,
,,5865dd647fbbcd00013973b8,2024-02-19_02h18.32.405,kallum_motion_pilot,2023.2.2,Win32,59.52380952,5865dd647fbbcd00013973b8,65d2b6c8f2eece985d8e374c,65d2b82cf340fcf7c13cd399,0.0414,0.0414,1,96,258,36,1,threeone,,,,,,,,,,,,,,,,,,,,,,,,,,,,,,,,,,,,,,,,,,,,,,,,,,,,,,,,,,,,,,,,,,,,,,,,,,,,,,,,,,,,,,,,,,,,,,,,,,,,,,,,,,,,,,,,,,,,,,,,,,,,,,,,,,,,,,,,,
,,5865dd647fbbcd00013973b8,2024-02-19_02h18.32.405,kallum_motion_pilot,2023.2.2,Win32,59.52380952,5865dd647fbbcd00013973b8,65d2b6c8f2eece985d8e374c,65d2b82cf340fcf7c13cd399,0.0415,0.0415,1,97,259,38,1,fourtwo,,,,,,,,,,,,,,,,,,,,,,,,,,,,,,,,,,,,,,,,,,,,,,,,,,,,,,,,,,,,,,,,,,,,,,,,,,,,,,,,,,,,,,,,,,,,,,,,,,,,,,,,,,,,,,,,,,,,,,,,,,,,,,,,,,,,,,,,,
,,5865dd647fbbcd00013973b8,2024-02-19_02h18.32.405,kallum_motion_pilot,2023.2.2,Win32,59.52380952,5865dd647fbbcd00013973b8,65d2b6c8f2eece985d8e374c,65d2b82cf340fcf7c13cd399,0.0416,0.0417,1,98,260,98,1,sixfive,,,,,,,,,,,,,,,,,,,,,,,,,,,,,,,,,,,,,,,,,,,,,,,,,,,,,,,,,,,,,,,,,,,,,,,,,,,,,,,,,,,,,,,,,,,,,,,,,,,,,,,,,,,,,,,,,,,,,,,,,,,,,,,,,,,,,,,,,
,,5865dd647fbbcd00013973b8,2024-02-19_02h18.32.405,kallum_motion_pilot,2023.2.2,Win32,59.52380952,5865dd647fbbcd00013973b8,65d2b6c8f2eece985d8e374c,65d2b82cf340fcf7c13cd399,0.0417,0.0417,1,99,261,123,1,sixeight,,,,,,,,,,,,,,,,,,,,,,,,,,,,,,,,,,,,,,,,,,,,,,,,,,,,,,,,,,,,,,,,,,,,,,,,,,,,,,,,,,,,,,,,,,,,,,,,,,,,,,,,,,,,,,,,,,,,,,,,,,,,,,,,,,,,,,,,,
,,5865dd647fbbcd00013973b8,2024-02-19_02h18.32.405,kallum_motion_pilot,2023.2.2,Win32,59.52380952,5865dd647fbbcd00013973b8,65d2b6c8f2eece985d8e374c,65d2b82cf340fcf7c13cd399,0.0419,0.042,1,100,262,86,1,eightsix,,,,,,,,,,,,,,,,,,,,,,,,,,,,,,,,,,,,,,,,,,,,,,,,,,,,,,,,,,,,,,,,,,,,,,,,,,,,,,,,,,,,,,,,,,,,,,,,,,,,,,,,,,,,,,,,,,,,,,,,,,,,,,,,,,,,,,,,,
,,5865dd647fbbcd00013973b8,2024-02-19_02h18.32.405,kallum_motion_pilot,2023.2.2,Win32,59.52380952,5865dd647fbbcd00013973b8,65d2b6c8f2eece985d8e374c,65d2b82cf340fcf7c13cd399,0.042,0.0421,1,101,263,135,1,eightseven,,,,,,,,,,,,,,,,,,,,,,,,,,,,,,,,,,,,,,,,,,,,,,,,,,,,,,,,,,,,,,,,,,,,,,,,,,,,,,,,,,,,,,,,,,,,,,,,,,,,,,,,,,,,,,,,,,,,,,,,,,,,,,,,,,,,,,,,,
,,5865dd647fbbcd00013973b8,2024-02-19_02h18.32.405,kallum_motion_pilot,2023.2.2,Win32,59.52380952,5865dd647fbbcd00013973b8,65d2b6c8f2eece985d8e374c,65d2b82cf340fcf7c13cd399,0.0421,0.0421,1,102,264,82,1,sixfive,,,,,,,,,,,,,,,,,,,,,,,,,,,,,,,,,,,,,,,,,,,,,,,,,,,,,,,,,,,,,,,,,,,,,,,,,,,,,,,,,,,,,,,,,,,,,,,,,,,,,,,,,,,,,,,,,,,,,,,,,,,,,,,,,,,,,,,,,
,,5865dd647fbbcd00013973b8,2024-02-19_02h18.32.405,kallum_motion_pilot,2023.2.2,Win32,59.52380952,5865dd647fbbcd00013973b8,65d2b6c8f2eece985d8e374c,65d2b82cf340fcf7c13cd399,0.0422,0.0423,1,103,265,119,1,eightseven,,,,,,,,,,,,,,,,,,,,,,,,,,,,,,,,,,,,,,,,,,,,,,,,,,,,,,,,,,,,,,,,,,,,,,,,,,,,,,,,,,,,,,,,,,,,,,,,,,,,,,,,,,,,,,,,,,,,,,,,,,,,,,,,,,,,,,,,,
,,5865dd647fbbcd00013973b8,2024-02-19_02h18.32.405,kallum_motion_pilot,2023.2.2,Win32,59.52380952,5865dd647fbbcd00013973b8,65d2b6c8f2eece985d8e374c,65d2b82cf340fcf7c13cd399,0.0423,0.0423,1,104,266,106,1,sixfive,,,,,,,,,,,,,,,,,,,,,,,,,,,,,,,,,,,,,,,,,,,,,,,,,,,,,,,,,,,,,,,,,,,,,,,,,,,,,,,,,,,,,,,,,,,,,,,,,,,,,,,,,,,,,,,,,,,,,,,,,,,,,,,,,,,,,,,,,
,,5865dd647fbbcd00013973b8,2024-02-19_02h18.32.405,kallum_motion_pilot,2023.2.2,Win32,59.52380952,5865dd647fbbcd00013973b8,65d2b6c8f2eece985d8e374c,65d2b82cf340fcf7c13cd399,0.0424,0.0424,1,105,267,93,1,seveneight,,,,,,,,,,,,,,,,,,,,,,,,,,,,,,,,,,,,,,,,,,,,,,,,,,,,,,,,,,,,,,,,,,,,,,,,,,,,,,,,,,,,,,,,,,,,,,,,,,,,,,,,,,,,,,,,,,,,,,,,,,,,,,,,,,,,,,,,,
,,5865dd647fbbcd00013973b8,2024-02-19_02h18.32.405,kallum_motion_pilot,2023.2.2,Win32,59.52380952,5865dd647fbbcd00013973b8,65d2b6c8f2eece985d8e374c,65d2b82cf340fcf7c13cd399,0.0426,0.0426,1,106,268,17,1,onethree,,,,,,,,,,,,,,,,,,,,,,,,,,,,,,,,,,,,,,,,,,,,,,,,,,,,,,,,,,,,,,,,,,,,,,,,,,,,,,,,,,,,,,,,,,,,,,,,,,,,,,,,,,,,,,,,,,,,,,,,,,,,,,,,,,,,,,,,,
,,5865dd647fbbcd00013973b8,2024-02-19_02h18.32.405,kallum_motion_pilot,2023.2.2,Win32,59.52380952,5865dd647fbbcd00013973b8,65d2b6c8f2eece985d8e374c,65d2b82cf340fcf7c13cd399,0.0426,0.0427,1,107,269,59,1,twofour,,,,,,,,,,,,,,,,,,,,,,,,,,,,,,,,,,,,,,,,,,,,,,,,,,,,,,,,,,,,,,,,,,,,,,,,,,,,,,,,,,,,,,,,,,,,,,,,,,,,,,,,,,,,,,,,,,,,,,,,,,,,,,,,,,,,,,,,,
,,5865dd647fbbcd00013973b8,2024-02-19_02h18.32.405,kallum_motion_pilot,2023.2.2,Win32,59.52380952,5865dd647fbbcd00013973b8,65d2b6c8f2eece985d8e374c,65d2b82cf340fcf7c13cd399,0.0427,0.0428,1,108,270,64,1,onetwo,,,,,,,,,,,,,,,,,,,,,,,,,,,,,,,,,,,,,,,,,,,,,,,,,,,,,,,,,,,,,,,,,,,,,,,,,,,,,,,,,,,,,,,,,,,,,,,,,,,,,,,,,,,,,,,,,,,,,,,,,,,,,,,,,,,,,,,,,
,,5865dd647fbbcd00013973b8,2024-02-19_02h18.32.405,kallum_motion_pilot,2023.2.2,Win32,59.52380952,5865dd647fbbcd00013973b8,65d2b6c8f2eece985d8e374c,65d2b82cf340fcf7c13cd399,0.0428,0.0429,1,109,271,40,1,onetwo,,,,,,,,,,,,,,,,,,,,,,,,,,,,,,,,,,,,,,,,,,,,,,,,,,,,,,,,,,,,,,,,,,,,,,,,,,,,,,,,,,,,,,,,,,,,,,,,,,,,,,,,,,,,,,,,,,,,,,,,,,,,,,,,,,,,,,,,,
,,5865dd647fbbcd00013973b8,2024-02-19_02h18.32.405,kallum_motion_pilot,2023.2.2,Win32,59.52380952,5865dd647fbbcd00013973b8,65d2b6c8f2eece985d8e374c,65d2b82cf340fcf7c13cd399,0.0429,0.043,1,110,272,29,1,threefour,,,,,,,,,,,,,,,,,,,,,,,,,,,,,,,,,,,,,,,,,,,,,,,,,,,,,,,,,,,,,,,,,,,,,,,,,,,,,,,,,,,,,,,,,,,,,,,,,,,,,,,,,,,,,,,,,,,,,,,,,,,,,,,,,,,,,,,,,
,,5865dd647fbbcd00013973b8,2024-02-19_02h18.32.405,kallum_motion_pilot,2023.2.2,Win32,59.52380952,5865dd647fbbcd00013973b8,65d2b6c8f2eece985d8e374c,65d2b82cf340fcf7c13cd399,0.0431,0.0431,1,111,273,24,1,onetwo,,,,,,,,,,,,,,,,,,,,,,,,,,,,,,,,,,,,,,,,,,,,,,,,,,,,,,,,,,,,,,,,,,,,,,,,,,,,,,,,,,,,,,,,,,,,,,,,,,,,,,,,,,,,,,,,,,,,,,,,,,,,,,,,,,,,,,,,,
,,5865dd647fbbcd00013973b8,2024-02-19_02h18.32.405,kallum_motion_pilot,2023.2.2,Win32,59.52380952,5865dd647fbbcd00013973b8,65d2b6c8f2eece985d8e374c,65d2b82cf340fcf7c13cd399,0.0432,0.0432,1,112,274,103,1,eightseven,,,,,,,,,,,,,,,,,,,,,,,,,,,,,,,,,,,,,,,,,,,,,,,,,,,,,,,,,,,,,,,,,,,,,,,,,,,,,,,,,,,,,,,,,,,,,,,,,,,,,,,,,,,,,,,,,,,,,,,,,,,,,,,,,,,,,,,,,
,,5865dd647fbbcd00013973b8,2024-02-19_02h18.32.405,kallum_motion_pilot,2023.2.2,Win32,59.52380952,5865dd647fbbcd00013973b8,65d2b6c8f2eece985d8e374c,65d2b82cf340fcf7c13cd399,0.0432,0.0433,1,113,275,133,1,seveneight,,,,,,,,,,,,,,,,,,,,,,,,,,,,,,,,,,,,,,,,,,,,,,,,,,,,,,,,,,,,,,,,,,,,,,,,,,,,,,,,,,,,,,,,,,,,,,,,,,,,,,,,,,,,,,,,,,,,,,,,,,,,,,,,,,,,,,,,,
,,5865dd647fbbcd00013973b8,2024-02-19_02h18.32.405,kallum_motion_pilot,2023.2.2,Win32,59.52380952,5865dd647fbbcd00013973b8,65d2b6c8f2eece985d8e374c,65d2b82cf340fcf7c13cd399,0.0433,0.0434,1,114,276,34,1,twoone,,,,,,,,,,,,,,,,,,,,,,,,,,,,,,,,,,,,,,,,,,,,,,,,,,,,,,,,,,,,,,,,,,,,,,,,,,,,,,,,,,,,,,,,,,,,,,,,,,,,,,,,,,,,,,,,,,,,,,,,,,,,,,,,,,,,,,,,,
,,5865dd647fbbcd00013973b8,2024-02-19_02h18.32.405,kallum_motion_pilot,2023.2.2,Win32,59.52380952,5865dd647fbbcd00013973b8,65d2b6c8f2eece985d8e374c,65d2b82cf340fcf7c13cd399,0.0435,0.0436,1,115,277,139,1,sixeight,,,,,,,,,,,,,,,,,,,,,,,,,,,,,,,,,,,,,,,,,,,,,,,,,,,,,,,,,,,,,,,,,,,,,,,,,,,,,,,,,,,,,,,,,,,,,,,,,,,,,,,,,,,,,,,,,,,,,,,,,,,,,,,,,,,,,,,,,
