startup.started,startup.stopped,Prolific ID*,date,expName,psychopyVersion,OS,frameRate,participant,study_id,session,stimpositions.started,stimpositions.stopped,hardcoded_stimulus_positions.thisRepN,hardcoded_stimulus_positions.thisTrialN,hardcoded_stimulus_positions.thisN,hardcoded_stimulus_positions.thisIndex,hardcoded_stimulus_positions.ran,StimulusPos,stimorientation.started,stimorientation.stopped,prac_stimorientation_import_loop.thisRepN,prac_stimorientation_import_loop.thisTrialN,prac_stimorientation_import_loop.thisN,prac_stimorientation_import_loop.thisIndex,prac_stimorientation_import_loop.ran,Stimorientation,welcome_instr.started,welcome_instr.stopped,key_resp.keys,key_resp.rt,key_resp.duration,response_steppedout_1.started,response_steppedout_1.stopped,key_resp_20.keys,key_resp_20.rt,key_resp_20.duration,response_steppedout_2.started,response_steppedout_2.stopped,key_resp_19.keys,key_resp_19.rt,key_resp_19.duration,stim_response_instr.started,stim_response_instr.stopped,key_resp_15.keys,key_resp_15.rt,key_resp_15.duration,direction_instr_2.started,direction_instr_2.stopped,key_resp_9.keys,key_resp_9.rt,key_resp_9.duration,instr_prac.started,instr_prac.stopped,key_resp_10.keys,key_resp_10.rt,key_resp_10.duration,Stim1_display_prac.started,Stim1_display_prac.stopped,Ecc,Circle1_ori,Circle2_ori,response_prac.started,similarity,response_time,response_prac.stopped,mouse_5.x,mouse_5.y,mouse_5.leftButton,mouse_5.midButton,mouse_5.rightButton,mouse_5.clicked_name,responseprac_feedback.started,responseprac_feedback.stopped,summary2_prac.started,summary2_prac.stopped,mouse_6.x,mouse_6.y,mouse_6.leftButton,mouse_6.midButton,mouse_6.rightButton,mouse_6.clicked_name,duringprac.thisRepN,duringprac.thisTrialN,duringprac.thisN,duringprac.thisIndex,duringprac.ran,begin.started,begin.stopped,key_resp_22.keys,key_resp_22.rt,key_resp_22.duration,Stim1_display.started,Stim1_display.stopped,circle1_ori,circle2_ori,circle1_SF,circle2_SF,response.started,response.stopped,mouse.x,mouse.y,mouse.leftButton,mouse.midButton,mouse.rightButton,mouse.clicked_name,trialnumber,double_pass.thisRepN,double_pass.thisTrialN,double_pass.thisN,double_pass.thisIndex,double_pass.ran,double_pass.order,main_trial.thisRepN,main_trial.thisTrialN,main_trial.thisN,main_trial.thisIndex,main_trial.ran,main_trial.order,Trial_Counter,Catch,Frequencies,response_2.started,response_2.stopped,mouse_2.x,mouse_2.y,mouse_2.leftButton,mouse_2.midButton,mouse_2.rightButton,mouse_2.clicked_name,special_trial.started,special_trial.stopped,catch_1.started,catch_1.stopped,mouse_3.x,mouse_3.y,mouse_3.leftButton,mouse_3.midButton,mouse_3.rightButton,catchresponse,catchnumber,response_time_catch,response_sum.started,response_sum.stopped,mouse_11.x,mouse_11.y,mouse_11.leftButton,mouse_11.midButton,mouse_11.rightButton,flip_presentation_sequence_for_double_pass.started,flip_presentation_sequence_for_double_pass.stopped,goodbye.started,goodbye.stopped,key_resp_3.keys,key_resp_3.rt,key_resp_3.duration
0.0004,0.0004,58d3bc1642648b0001f21ca4,2024-02-19_05h00.30.640,kallum_motion_pilot,2023.2.2,Win32,144.9275362,58d3bc1642648b0001f21ca4,65d2b6c8f2eece985d8e374c,65d2d24a21c52a3be0e5a486,,,,,,,,,,,,,,,,,,,,,,,,,,,,,,,,,,,,,,,,,,,,,,,,,,,,,,,,,,,,,,,,,,,,,,,,,,,,,,,,,,,,,,,,,,,,,,,,,,,,,,,,,,,,,,,,,,,,,,,,,,,,,,,,,,,,,,,,,,,,,,,,,
,,58d3bc1642648b0001f21ca4,2024-02-19_05h00.30.640,kallum_motion_pilot,2023.2.2,Win32,144.9275362,58d3bc1642648b0001f21ca4,65d2b6c8f2eece985d8e374c,65d2d24a21c52a3be0e5a486,0.0228,0.023,0,0,0,147,1,sixeight,,,,,,,,,,,,,,,,,,,,,,,,,,,,,,,,,,,,,,,,,,,,,,,,,,,,,,,,,,,,,,,,,,,,,,,,,,,,,,,,,,,,,,,,,,,,,,,,,,,,,,,,,,,,,,,,,,,,,,,,,,,,,,,,,,,,,,,,,
,,58d3bc1642648b0001f21ca4,2024-02-19_05h00.30.640,kallum_motion_pilot,2023.2.2,Win32,144.9275362,58d3bc1642648b0001f21ca4,65d2b6c8f2eece985d8e374c,65d2d24a21c52a3be0e5a486,0.0232,0.0232,0,1,1,6,1,fourtwo,,,,,,,,,,,,,,,,,,,,,,,,,,,,,,,,,,,,,,,,,,,,,,,,,,,,,,,,,,,,,,,,,,,,,,,,,,,,,,,,,,,,,,,,,,,,,,,,,,,,,,,,,,,,,,,,,,,,,,,,,,,,,,,,,,,,,,,,,
,,58d3bc1642648b0001f21ca4,2024-02-19_05h00.30.640,kallum_motion_pilot,2023.2.2,Win32,144.9275362,58d3bc1642648b0001f21ca4,65d2b6c8f2eece985d8e374c,65d2d24a21c52a3be0e5a486,0.0233,0.0234,0,2,2,118,1,eightsix,,,,,,,,,,,,,,,,,,,,,,,,,,,,,,,,,,,,,,,,,,,,,,,,,,,,,,,,,,,,,,,,,,,,,,,,,,,,,,,,,,,,,,,,,,,,,,,,,,,,,,,,,,,,,,,,,,,,,,,,,,,,,,,,,,,,,,,,,
,,58d3bc1642648b0001f21ca4,2024-02-19_05h00.30.640,kallum_motion_pilot,2023.2.2,Win32,144.9275362,58d3bc1642648b0001f21ca4,65d2b6c8f2eece985d8e374c,65d2d24a21c52a3be0e5a486,0.0234,0.0234,0,3,3,134,1,eightsix,,,,,,,,,,,,,,,,,,,,,,,,,,,,,,,,,,,,,,,,,,,,,,,,,,,,,,,,,,,,,,,,,,,,,,,,,,,,,,,,,,,,,,,,,,,,,,,,,,,,,,,,,,,,,,,,,,,,,,,,,,,,,,,,,,,,,,,,,
,,58d3bc1642648b0001f21ca4,2024-02-19_05h00.30.640,kallum_motion_pilot,2023.2.2,Win32,144.9275362,58d3bc1642648b0001f21ca4,65d2b6c8f2eece985d8e374c,65d2d24a21c52a3be0e5a486,0.0235,0.0235,0,4,4,139,1,sixeight,,,,,,,,,,,,,,,,,,,,,,,,,,,,,,,,,,,,,,,,,,,,,,,,,,,,,,,,,,,,,,,,,,,,,,,,,,,,,,,,,,,,,,,,,,,,,,,,,,,,,,,,,,,,,,,,,,,,,,,,,,,,,,,,,,,,,,,,,
,,58d3bc1642648b0001f21ca4,2024-02-19_05h00.30.640,kallum_motion_pilot,2023.2.2,Win32,144.9275362,58d3bc1642648b0001f21ca4,65d2b6c8f2eece985d8e374c,65d2d24a21c52a3be0e5a486,0.0237,0.0237,0,5,5,159,1,eightseven,,,,,,,,,,,,,,,,,,,,,,,,,,,,,,,,,,,,,,,,,,,,,,,,,,,,,,,,,,,,,,,,,,,,,,,,,,,,,,,,,,,,,,,,,,,,,,,,,,,,,,,,,,,,,,,,,,,,,,,,,,,,,,,,,,,,,,,,,
,,58d3bc1642648b0001f21ca4,2024-02-19_05h00.30.640,kallum_motion_pilot,2023.2.2,Win32,144.9275362,58d3bc1642648b0001f21ca4,65d2b6c8f2eece985d8e374c,65d2d24a21c52a3be0e5a486,0.0238,0.0238,0,6,6,93,1,seveneight,,,,,,,,,,,,,,,,,,,,,,,,,,,,,,,,,,,,,,,,,,,,,,,,,,,,,,,,,,,,,,,,,,,,,,,,,,,,,,,,,,,,,,,,,,,,,,,,,,,,,,,,,,,,,,,,,,,,,,,,,,,,,,,,,,,,,,,,,
,,58d3bc1642648b0001f21ca4,2024-02-19_05h00.30.640,kallum_motion_pilot,2023.2.2,Win32,144.9275362,58d3bc1642648b0001f21ca4,65d2b6c8f2eece985d8e374c,65d2d24a21c52a3be0e5a486,0.0239,0.0239,0,7,7,95,1,eightseven,,,,,,,,,,,,,,,,,,,,,,,,,,,,,,,,,,,,,,,,,,,,,,,,,,,,,,,,,,,,,,,,,,,,,,,,,,,,,,,,,,,,,,,,,,,,,,,,,,,,,,,,,,,,,,,,,,,,,,,,,,,,,,,,,,,,,,,,,
,,58d3bc1642648b0001f21ca4,2024-02-19_05h00.30.640,kallum_motion_pilot,2023.2.2,Win32,144.9275362,58d3bc1642648b0001f21ca4,65d2b6c8f2eece985d8e374c,65d2d24a21c52a3be0e5a486,0.024,0.0241,0,8,8,71,1,fourthree,,,,,,,,,,,,,,,,,,,,,,,,,,,,,,,,,,,,,,,,,,,,,,,,,,,,,,,,,,,,,,,,,,,,,,,,,,,,,,,,,,,,,,,,,,,,,,,,,,,,,,,,,,,,,,,,,,,,,,,,,,,,,,,,,,,,,,,,,
,,58d3bc1642648b0001f21ca4,2024-02-19_05h00.30.640,kallum_motion_pilot,2023.2.2,Win32,144.9275362,58d3bc1642648b0001f21ca4,65d2b6c8f2eece985d8e374c,65d2d24a21c52a3be0e5a486,0.0241,0.0242,0,9,9,4,1,threeone,,,,,,,,,,,,,,,,,,,,,,,,,,,,,,,,,,,,,,,,,,,,,,,,,,,,,,,,,,,,,,,,,,,,,,,,,,,,,,,,,,,,,,,,,,,,,,,,,,,,,,,,,,,,,,,,,,,,,,,,,,,,,,,,,,,,,,,,,
,,58d3bc1642648b0001f21ca4,2024-02-19_05h00.30.640,kallum_motion_pilot,2023.2.2,Win32,144.9275362,58d3bc1642648b0001f21ca4,65d2b6c8f2eece985d8e374c,65d2d24a21c52a3be0e5a486,0.0242,0.0243,0,10,10,29,1,threefour,,,,,,,,,,,,,,,,,,,,,,,,,,,,,,,,,,,,,,,,,,,,,,,,,,,,,,,,,,,,,,,,,,,,,,,,,,,,,,,,,,,,,,,,,,,,,,,,,,,,,,,,,,,,,,,,,,,,,,,,,,,,,,,,,,,,,,,,,
,,58d3bc1642648b0001f21ca4,2024-02-19_05h00.30.640,kallum_motion_pilot,2023.2.2,Win32,144.9275362,58d3bc1642648b0001f21ca4,65d2b6c8f2eece985d8e374c,65d2d24a21c52a3be0e5a486,0.0244,0.0244,0,11,11,138,1,sixfive,,,,,,,,,,,,,,,,,,,,,,,,,,,,,,,,,,,,,,,,,,,,,,,,,,,,,,,,,,,,,,,,,,,,,,,,,,,,,,,,,,,,,,,,,,,,,,,,,,,,,,,,,,,,,,,,,,,,,,,,,,,,,,,,,,,,,,,,,
,,58d3bc1642648b0001f21ca4,2024-02-19_05h00.30.640,kallum_motion_pilot,2023.2.2,Win32,144.9275362,58d3bc1642648b0001f21ca4,65d2b6c8f2eece985d8e374c,65d2d24a21c52a3be0e5a486,0.0245,0.0245,0,12,12,136,1,fivesix,,,,,,,,,,,,,,,,,,,,,,,,,,,,,,,,,,,,,,,,,,,,,,,,,,,,,,,,,,,,,,,,,,,,,,,,,,,,,,,,,,,,,,,,,,,,,,,,,,,,,,,,,,,,,,,,,,,,,,,,,,,,,,,,,,,,,,,,,
,,58d3bc1642648b0001f21ca4,2024-02-19_05h00.30.640,kallum_motion_pilot,2023.2.2,Win32,144.9275362,58d3bc1642648b0001f21ca4,65d2b6c8f2eece985d8e374c,65d2d24a21c52a3be0e5a486,0.0245,0.0245,0,13,13,129,1,fiveseven,,,,,,,,,,,,,,,,,,,,,,,,,,,,,,,,,,,,,,,,,,,,,,,,,,,,,,,,,,,,,,,,,,,,,,,,,,,,,,,,,,,,,,,,,,,,,,,,,,,,,,,,,,,,,,,,,,,,,,,,,,,,,,,,,,,,,,,,,
,,58d3bc1642648b0001f21ca4,2024-02-19_05h00.30.640,kallum_motion_pilot,2023.2.2,Win32,144.9275362,58d3bc1642648b0001f21ca4,65d2b6c8f2eece985d8e374c,65d2d24a21c52a3be0e5a486,0.0247,0.0247,0,14,14,41,1,onethree,,,,,,,,,,,,,,,,,,,,,,,,,,,,,,,,,,,,,,,,,,,,,,,,,,,,,,,,,,,,,,,,,,,,,,,,,,,,,,,,,,,,,,,,,,,,,,,,,,,,,,,,,,,,,,,,,,,,,,,,,,,,,,,,,,,,,,,,,
,,58d3bc1642648b0001f21ca4,2024-02-19_05h00.30.640,kallum_motion_pilot,2023.2.2,Win32,144.9275362,58d3bc1642648b0001f21ca4,65d2b6c8f2eece985d8e374c,65d2d24a21c52a3be0e5a486,0.0248,0.0248,0,15,15,98,1,sixfive,,,,,,,,,,,,,,,,,,,,,,,,,,,,,,,,,,,,,,,,,,,,,,,,,,,,,,,,,,,,,,,,,,,,,,,,,,,,,,,,,,,,,,,,,,,,,,,,,,,,,,,,,,,,,,,,,,,,,,,,,,,,,,,,,,,,,,,,,
,,58d3bc1642648b0001f21ca4,2024-02-19_05h00.30.640,kallum_motion_pilot,2023.2.2,Win32,144.9275362,58d3bc1642648b0001f21ca4,65d2b6c8f2eece985d8e374c,65d2d24a21c52a3be0e5a486,0.0248,0.0248,0,16,16,64,1,onetwo,,,,,,,,,,,,,,,,,,,,,,,,,,,,,,,,,,,,,,,,,,,,,,,,,,,,,,,,,,,,,,,,,,,,,,,,,,,,,,,,,,,,,,,,,,,,,,,,,,,,,,,,,,,,,,,,,,,,,,,,,,,,,,,,,,,,,,,,,
,,58d3bc1642648b0001f21ca4,2024-02-19_05h00.30.640,kallum_motion_pilot,2023.2.2,Win32,144.9275362,58d3bc1642648b0001f21ca4,65d2b6c8f2eece985d8e374c,65d2d24a21c52a3be0e5a486,0.0249,0.0249,0,17,17,54,1,fourtwo,,,,,,,,,,,,,,,,,,,,,,,,,,,,,,,,,,,,,,,,,,,,,,,,,,,,,,,,,,,,,,,,,,,,,,,,,,,,,,,,,,,,,,,,,,,,,,,,,,,,,,,,,,,,,,,,,,,,,,,,,,,,,,,,,,,,,,,,,
,,58d3bc1642648b0001f21ca4,2024-02-19_05h00.30.640,kallum_motion_pilot,2023.2.2,Win32,144.9275362,58d3bc1642648b0001f21ca4,65d2b6c8f2eece985d8e374c,65d2d24a21c52a3be0e5a486,0.025,0.0251,0,18,18,44,1,threeone,,,,,,,,,,,,,,,,,,,,,,,,,,,,,,,,,,,,,,,,,,,,,,,,,,,,,,,,,,,,,,,,,,,,,,,,,,,,,,,,,,,,,,,,,,,,,,,,,,,,,,,,,,,,,,,,,,,,,,,,,,,,,,,,,,,,,,,,,
,,58d3bc1642648b0001f21ca4,2024-02-19_05h00.30.640,kallum_motion_pilot,2023.2.2,Win32,144.9275362,58d3bc1642648b0001f21ca4,65d2b6c8f2eece985d8e374c,65d2d24a21c52a3be0e5a486,0.0251,0.0252,0,19,19,154,1,sixfive,,,,,,,,,,,,,,,,,,,,,,,,,,,,,,,,,,,,,,,,,,,,,,,,,,,,,,,,,,,,,,,,,,,,,,,,,,,,,,,,,,,,,,,,,,,,,,,,,,,,,,,,,,,,,,,,,,,,,,,,,,,,,,,,,,,,,,,,,
,,58d3bc1642648b0001f21ca4,2024-02-19_05h00.30.640,kallum_motion_pilot,2023.2.2,Win32,144.9275362,58d3bc1642648b0001f21ca4,65d2b6c8f2eece985d8e374c,65d2d24a21c52a3be0e5a486,0.0252,0.0252,0,20,20,83,1,sixeight,,,,,,,,,,,,,,,,,,,,,,,,,,,,,,,,,,,,,,,,,,,,,,,,,,,,,,,,,,,,,,,,,,,,,,,,,,,,,,,,,,,,,,,,,,,,,,,,,,,,,,,,,,,,,,,,,,,,,,,,,,,,,,,,,,,,,,,,,
,,58d3bc1642648b0001f21ca4,2024-02-19_05h00.30.640,kallum_motion_pilot,2023.2.2,Win32,144.9275362,58d3bc1642648b0001f21ca4,65d2b6c8f2eece985d8e374c,65d2d24a21c52a3be0e5a486,0.0254,0.0254,0,21,21,36,1,threeone,,,,,,,,,,,,,,,,,,,,,,,,,,,,,,,,,,,,,,,,,,,,,,,,,,,,,,,,,,,,,,,,,,,,,,,,,,,,,,,,,,,,,,,,,,,,,,,,,,,,,,,,,,,,,,,,,,,,,,,,,,,,,,,,,,,,,,,,,
,,58d3bc1642648b0001f21ca4,2024-02-19_05h00.30.640,kallum_motion_pilot,2023.2.2,Win32,144.9275362,58d3bc1642648b0001f21ca4,65d2b6c8f2eece985d8e374c,65d2d24a21c52a3be0e5a486,0.0254,0.0254,0,22,22,146,1,sixfive,,,,,,,,,,,,,,,,,,,,,,,,,,,,,,,,,,,,,,,,,,,,,,,,,,,,,,,,,,,,,,,,,,,,,,,,,,,,,,,,,,,,,,,,,,,,,,,,,,,,,,,,,,,,,,,,,,,,,,,,,,,,,,,,,,,,,,,,,
,,58d3bc1642648b0001f21ca4,2024-02-19_05h00.30.640,kallum_motion_pilot,2023.2.2,Win32,144.9275362,58d3bc1642648b0001f21ca4,65d2b6c8f2eece985d8e374c,65d2d24a21c52a3be0e5a486,0.0255,0.0256,0,23,23,72,1,onetwo,,,,,,,,,,,,,,,,,,,,,,,,,,,,,,,,,,,,,,,,,,,,,,,,,,,,,,,,,,,,,,,,,,,,,,,,,,,,,,,,,,,,,,,,,,,,,,,,,,,,,,,,,,,,,,,,,,,,,,,,,,,,,,,,,,,,,,,,,
,,58d3bc1642648b0001f21ca4,2024-02-19_05h00.30.640,kallum_motion_pilot,2023.2.2,Win32,144.9275362,58d3bc1642648b0001f21ca4,65d2b6c8f2eece985d8e374c,65d2d24a21c52a3be0e5a486,0.0256,0.0256,0,24,24,27,1,twofour,,,,,,,,,,,,,,,,,,,,,,,,,,,,,,,,,,,,,,,,,,,,,,,,,,,,,,,,,,,,,,,,,,,,,,,,,,,,,,,,,,,,,,,,,,,,,,,,,,,,,,,,,,,,,,,,,,,,,,,,,,,,,,,,,,,,,,,,,
,,58d3bc1642648b0001f21ca4,2024-02-19_05h00.30.640,kallum_motion_pilot,2023.2.2,Win32,144.9275362,58d3bc1642648b0001f21ca4,65d2b6c8f2eece985d8e374c,65d2d24a21c52a3be0e5a486,0.0258,0.0258,0,25,25,1,1,onethree,,,,,,,,,,,,,,,,,,,,,,,,,,,,,,,,,,,,,,,,,,,,,,,,,,,,,,,,,,,,,,,,,,,,,,,,,,,,,,,,,,,,,,,,,,,,,,,,,,,,,,,,,,,,,,,,,,,,,,,,,,,,,,,,,,,,,,,,,
,,58d3bc1642648b0001f21ca4,2024-02-19_05h00.30.640,kallum_motion_pilot,2023.2.2,Win32,144.9275362,58d3bc1642648b0001f21ca4,65d2b6c8f2eece985d8e374c,65d2d24a21c52a3be0e5a486,0.0258,0.0258,0,26,26,40,1,onetwo,,,,,,,,,,,,,,,,,,,,,,,,,,,,,,,,,,,,,,,,,,,,,,,,,,,,,,,,,,,,,,,,,,,,,,,,,,,,,,,,,,,,,,,,,,,,,,,,,,,,,,,,,,,,,,,,,,,,,,,,,,,,,,,,,,,,,,,,,
,,58d3bc1642648b0001f21ca4,2024-02-19_05h00.30.640,kallum_motion_pilot,2023.2.2,Win32,144.9275362,58d3bc1642648b0001f21ca4,65d2b6c8f2eece985d8e374c,65d2d24a21c52a3be0e5a486,0.0259,0.0259,0,27,27,7,1,fourthree,,,,,,,,,,,,,,,,,,,,,,,,,,,,,,,,,,,,,,,,,,,,,,,,,,,,,,,,,,,,,,,,,,,,,,,,,,,,,,,,,,,,,,,,,,,,,,,,,,,,,,,,,,,,,,,,,,,,,,,,,,,,,,,,,,,,,,,,,
,,58d3bc1642648b0001f21ca4,2024-02-19_05h00.30.640,kallum_motion_pilot,2023.2.2,Win32,144.9275362,58d3bc1642648b0001f21ca4,65d2b6c8f2eece985d8e374c,65d2d24a21c52a3be0e5a486,0.0261,0.0261,0,28,28,5,1,threefour,,,,,,,,,,,,,,,,,,,,,,,,,,,,,,,,,,,,,,,,,,,,,,,,,,,,,,,,,,,,,,,,,,,,,,,,,,,,,,,,,,,,,,,,,,,,,,,,,,,,,,,,,,,,,,,,,,,,,,,,,,,,,,,,,,,,,,,,,
,,58d3bc1642648b0001f21ca4,2024-02-19_05h00.30.640,kallum_motion_pilot,2023.2.2,Win32,144.9275362,58d3bc1642648b0001f21ca4,65d2b6c8f2eece985d8e374c,65d2d24a21c52a3be0e5a486,0.0261,0.0261,0,29,29,87,1,eightseven,,,,,,,,,,,,,,,,,,,,,,,,,,,,,,,,,,,,,,,,,,,,,,,,,,,,,,,,,,,,,,,,,,,,,,,,,,,,,,,,,,,,,,,,,,,,,,,,,,,,,,,,,,,,,,,,,,,,,,,,,,,,,,,,,,,,,,,,,
,,58d3bc1642648b0001f21ca4,2024-02-19_05h00.30.640,kallum_motion_pilot,2023.2.2,Win32,144.9275362,58d3bc1642648b0001f21ca4,65d2b6c8f2eece985d8e374c,65d2d24a21c52a3be0e5a486,0.0262,0.0262,0,30,30,0,1,onetwo,,,,,,,,,,,,,,,,,,,,,,,,,,,,,,,,,,,,,,,,,,,,,,,,,,,,,,,,,,,,,,,,,,,,,,,,,,,,,,,,,,,,,,,,,,,,,,,,,,,,,,,,,,,,,,,,,,,,,,,,,,,,,,,,,,,,,,,,,
,,58d3bc1642648b0001f21ca4,2024-02-19_05h00.30.640,kallum_motion_pilot,2023.2.2,Win32,144.9275362,58d3bc1642648b0001f21ca4,65d2b6c8f2eece985d8e374c,65d2d24a21c52a3be0e5a486,0.0263,0.0263,0,31,31,86,1,eightsix,,,,,,,,,,,,,,,,,,,,,,,,,,,,,,,,,,,,,,,,,,,,,,,,,,,,,,,,,,,,,,,,,,,,,,,,,,,,,,,,,,,,,,,,,,,,,,,,,,,,,,,,,,,,,,,,,,,,,,,,,,,,,,,,,,,,,,,,,
,,58d3bc1642648b0001f21ca4,2024-02-19_05h00.30.640,kallum_motion_pilot,2023.2.2,Win32,144.9275362,58d3bc1642648b0001f21ca4,65d2b6c8f2eece985d8e374c,65d2d24a21c52a3be0e5a486,0.0264,0.0264,0,32,32,32,1,onetwo,,,,,,,,,,,,,,,,,,,,,,,,,,,,,,,,,,,,,,,,,,,,,,,,,,,,,,,,,,,,,,,,,,,,,,,,,,,,,,,,,,,,,,,,,,,,,,,,,,,,,,,,,,,,,,,,,,,,,,,,,,,,,,,,,,,,,,,,,
,,58d3bc1642648b0001f21ca4,2024-02-19_05h00.30.640,kallum_motion_pilot,2023.2.2,Win32,144.9275362,58d3bc1642648b0001f21ca4,65d2b6c8f2eece985d8e374c,65d2d24a21c52a3be0e5a486,0.0264,0.0265,0,33,33,145,1,fiveseven,,,,,,,,,,,,,,,,,,,,,,,,,,,,,,,,,,,,,,,,,,,,,,,,,,,,,,,,,,,,,,,,,,,,,,,,,,,,,,,,,,,,,,,,,,,,,,,,,,,,,,,,,,,,,,,,,,,,,,,,,,,,,,,,,,,,,,,,,
,,58d3bc1642648b0001f21ca4,2024-02-19_05h00.30.640,kallum_motion_pilot,2023.2.2,Win32,144.9275362,58d3bc1642648b0001f21ca4,65d2b6c8f2eece985d8e374c,65d2d24a21c52a3be0e5a486,0.0266,0.0266,0,34,34,117,1,seveneight,,,,,,,,,,,,,,,,,,,,,,,,,,,,,,,,,,,,,,,,,,,,,,,,,,,,,,,,,,,,,,,,,,,,,,,,,,,,,,,,,,,,,,,,,,,,,,,,,,,,,,,,,,,,,,,,,,,,,,,,,,,,,,,,,,,,,,,,,
,,58d3bc1642648b0001f21ca4,2024-02-19_05h00.30.640,kallum_motion_pilot,2023.2.2,Win32,144.9275362,58d3bc1642648b0001f21ca4,65d2b6c8f2eece985d8e374c,65d2d24a21c52a3be0e5a486,0.0267,0.0268,0,35,35,126,1,eightsix,,,,,,,,,,,,,,,,,,,,,,,,,,,,,,,,,,,,,,,,,,,,,,,,,,,,,,,,,,,,,,,,,,,,,,,,,,,,,,,,,,,,,,,,,,,,,,,,,,,,,,,,,,,,,,,,,,,,,,,,,,,,,,,,,,,,,,,,,
,,58d3bc1642648b0001f21ca4,2024-02-19_05h00.30.640,kallum_motion_pilot,2023.2.2,Win32,144.9275362,58d3bc1642648b0001f21ca4,65d2b6c8f2eece985d8e374c,65d2d24a21c52a3be0e5a486,0.0268,0.0268,0,36,36,120,1,fivesix,,,,,,,,,,,,,,,,,,,,,,,,,,,,,,,,,,,,,,,,,,,,,,,,,,,,,,,,,,,,,,,,,,,,,,,,,,,,,,,,,,,,,,,,,,,,,,,,,,,,,,,,,,,,,,,,,,,,,,,,,,,,,,,,,,,,,,,,,
,,58d3bc1642648b0001f21ca4,2024-02-19_05h00.30.640,kallum_motion_pilot,2023.2.2,Win32,144.9275362,58d3bc1642648b0001f21ca4,65d2b6c8f2eece985d8e374c,65d2d24a21c52a3be0e5a486,0.0269,0.027,0,37,37,37,1,threefour,,,,,,,,,,,,,,,,,,,,,,,,,,,,,,,,,,,,,,,,,,,,,,,,,,,,,,,,,,,,,,,,,,,,,,,,,,,,,,,,,,,,,,,,,,,,,,,,,,,,,,,,,,,,,,,,,,,,,,,,,,,,,,,,,,,,,,,,,
,,58d3bc1642648b0001f21ca4,2024-02-19_05h00.30.640,kallum_motion_pilot,2023.2.2,Win32,144.9275362,58d3bc1642648b0001f21ca4,65d2b6c8f2eece985d8e374c,65d2d24a21c52a3be0e5a486,0.027,0.027,0,38,38,128,1,fivesix,,,,,,,,,,,,,,,,,,,,,,,,,,,,,,,,,,,,,,,,,,,,,,,,,,,,,,,,,,,,,,,,,,,,,,,,,,,,,,,,,,,,,,,,,,,,,,,,,,,,,,,,,,,,,,,,,,,,,,,,,,,,,,,,,,,,,,,,,
,,58d3bc1642648b0001f21ca4,2024-02-19_05h00.30.640,kallum_motion_pilot,2023.2.2,Win32,144.9275362,58d3bc1642648b0001f21ca4,65d2b6c8f2eece985d8e374c,65d2d24a21c52a3be0e5a486,0.0271,0.0271,0,39,39,14,1,fourtwo,,,,,,,,,,,,,,,,,,,,,,,,,,,,,,,,,,,,,,,,,,,,,,,,,,,,,,,,,,,,,,,,,,,,,,,,,,,,,,,,,,,,,,,,,,,,,,,,,,,,,,,,,,,,,,,,,,,,,,,,,,,,,,,,,,,,,,,,,
,,58d3bc1642648b0001f21ca4,2024-02-19_05h00.30.640,kallum_motion_pilot,2023.2.2,Win32,144.9275362,58d3bc1642648b0001f21ca4,65d2b6c8f2eece985d8e374c,65d2d24a21c52a3be0e5a486,0.0271,0.0272,0,40,40,107,1,sixeight,,,,,,,,,,,,,,,,,,,,,,,,,,,,,,,,,,,,,,,,,,,,,,,,,,,,,,,,,,,,,,,,,,,,,,,,,,,,,,,,,,,,,,,,,,,,,,,,,,,,,,,,,,,,,,,,,,,,,,,,,,,,,,,,,,,,,,,,,
,,58d3bc1642648b0001f21ca4,2024-02-19_05h00.30.640,kallum_motion_pilot,2023.2.2,Win32,144.9275362,58d3bc1642648b0001f21ca4,65d2b6c8f2eece985d8e374c,65d2d24a21c52a3be0e5a486,0.0273,0.0273,0,41,41,140,1,sevenfive,,,,,,,,,,,,,,,,,,,,,,,,,,,,,,,,,,,,,,,,,,,,,,,,,,,,,,,,,,,,,,,,,,,,,,,,,,,,,,,,,,,,,,,,,,,,,,,,,,,,,,,,,,,,,,,,,,,,,,,,,,,,,,,,,,,,,,,,,
,,58d3bc1642648b0001f21ca4,2024-02-19_05h00.30.640,kallum_motion_pilot,2023.2.2,Win32,144.9275362,58d3bc1642648b0001f21ca4,65d2b6c8f2eece985d8e374c,65d2d24a21c52a3be0e5a486,0.0274,0.0274,0,42,42,153,1,fiveseven,,,,,,,,,,,,,,,,,,,,,,,,,,,,,,,,,,,,,,,,,,,,,,,,,,,,,,,,,,,,,,,,,,,,,,,,,,,,,,,,,,,,,,,,,,,,,,,,,,,,,,,,,,,,,,,,,,,,,,,,,,,,,,,,,,,,,,,,,
,,58d3bc1642648b0001f21ca4,2024-02-19_05h00.30.640,kallum_motion_pilot,2023.2.2,Win32,144.9275362,58d3bc1642648b0001f21ca4,65d2b6c8f2eece985d8e374c,65d2d24a21c52a3be0e5a486,0.0275,0.0275,0,43,43,74,1,twoone,,,,,,,,,,,,,,,,,,,,,,,,,,,,,,,,,,,,,,,,,,,,,,,,,,,,,,,,,,,,,,,,,,,,,,,,,,,,,,,,,,,,,,,,,,,,,,,,,,,,,,,,,,,,,,,,,,,,,,,,,,,,,,,,,,,,,,,,,
,,58d3bc1642648b0001f21ca4,2024-02-19_05h00.30.640,kallum_motion_pilot,2023.2.2,Win32,144.9275362,58d3bc1642648b0001f21ca4,65d2b6c8f2eece985d8e374c,65d2d24a21c52a3be0e5a486,0.0276,0.0276,0,44,44,51,1,twofour,,,,,,,,,,,,,,,,,,,,,,,,,,,,,,,,,,,,,,,,,,,,,,,,,,,,,,,,,,,,,,,,,,,,,,,,,,,,,,,,,,,,,,,,,,,,,,,,,,,,,,,,,,,,,,,,,,,,,,,,,,,,,,,,,,,,,,,,,
,,58d3bc1642648b0001f21ca4,2024-02-19_05h00.30.640,kallum_motion_pilot,2023.2.2,Win32,144.9275362,58d3bc1642648b0001f21ca4,65d2b6c8f2eece985d8e374c,65d2d24a21c52a3be0e5a486,0.0277,0.0278,0,45,45,58,1,twoone,,,,,,,,,,,,,,,,,,,,,,,,,,,,,,,,,,,,,,,,,,,,,,,,,,,,,,,,,,,,,,,,,,,,,,,,,,,,,,,,,,,,,,,,,,,,,,,,,,,,,,,,,,,,,,,,,,,,,,,,,,,,,,,,,,,,,,,,,
,,58d3bc1642648b0001f21ca4,2024-02-19_05h00.30.640,kallum_motion_pilot,2023.2.2,Win32,144.9275362,58d3bc1642648b0001f21ca4,65d2b6c8f2eece985d8e374c,65d2d24a21c52a3be0e5a486,0.028,0.028,0,46,46,79,1,eightseven,,,,,,,,,,,,,,,,,,,,,,,,,,,,,,,,,,,,,,,,,,,,,,,,,,,,,,,,,,,,,,,,,,,,,,,,,,,,,,,,,,,,,,,,,,,,,,,,,,,,,,,,,,,,,,,,,,,,,,,,,,,,,,,,,,,,,,,,,
,,58d3bc1642648b0001f21ca4,2024-02-19_05h00.30.640,kallum_motion_pilot,2023.2.2,Win32,144.9275362,58d3bc1642648b0001f21ca4,65d2b6c8f2eece985d8e374c,65d2d24a21c52a3be0e5a486,0.028,0.028,0,47,47,160,1,fivesix,,,,,,,,,,,,,,,,,,,,,,,,,,,,,,,,,,,,,,,,,,,,,,,,,,,,,,,,,,,,,,,,,,,,,,,,,,,,,,,,,,,,,,,,,,,,,,,,,,,,,,,,,,,,,,,,,,,,,,,,,,,,,,,,,,,,,,,,,
,,58d3bc1642648b0001f21ca4,2024-02-19_05h00.30.640,kallum_motion_pilot,2023.2.2,Win32,144.9275362,58d3bc1642648b0001f21ca4,65d2b6c8f2eece985d8e374c,65d2d24a21c52a3be0e5a486,0.0281,0.0282,0,48,48,124,1,sevenfive,,,,,,,,,,,,,,,,,,,,,,,,,,,,,,,,,,,,,,,,,,,,,,,,,,,,,,,,,,,,,,,,,,,,,,,,,,,,,,,,,,,,,,,,,,,,,,,,,,,,,,,,,,,,,,,,,,,,,,,,,,,,,,,,,,,,,,,,,
,,58d3bc1642648b0001f21ca4,2024-02-19_05h00.30.640,kallum_motion_pilot,2023.2.2,Win32,144.9275362,58d3bc1642648b0001f21ca4,65d2b6c8f2eece985d8e374c,65d2d24a21c52a3be0e5a486,0.0282,0.0282,0,49,49,57,1,onethree,,,,,,,,,,,,,,,,,,,,,,,,,,,,,,,,,,,,,,,,,,,,,,,,,,,,,,,,,,,,,,,,,,,,,,,,,,,,,,,,,,,,,,,,,,,,,,,,,,,,,,,,,,,,,,,,,,,,,,,,,,,,,,,,,,,,,,,,,
,,58d3bc1642648b0001f21ca4,2024-02-19_05h00.30.640,kallum_motion_pilot,2023.2.2,Win32,144.9275362,58d3bc1642648b0001f21ca4,65d2b6c8f2eece985d8e374c,65d2d24a21c52a3be0e5a486,0.0283,0.0283,0,50,50,96,1,fivesix,,,,,,,,,,,,,,,,,,,,,,,,,,,,,,,,,,,,,,,,,,,,,,,,,,,,,,,,,,,,,,,,,,,,,,,,,,,,,,,,,,,,,,,,,,,,,,,,,,,,,,,,,,,,,,,,,,,,,,,,,,,,,,,,,,,,,,,,,
,,58d3bc1642648b0001f21ca4,2024-02-19_05h00.30.640,kallum_motion_pilot,2023.2.2,Win32,144.9275362,58d3bc1642648b0001f21ca4,65d2b6c8f2eece985d8e374c,65d2d24a21c52a3be0e5a486,0.0284,0.0285,0,51,51,66,1,twoone,,,,,,,,,,,,,,,,,,,,,,,,,,,,,,,,,,,,,,,,,,,,,,,,,,,,,,,,,,,,,,,,,,,,,,,,,,,,,,,,,,,,,,,,,,,,,,,,,,,,,,,,,,,,,,,,,,,,,,,,,,,,,,,,,,,,,,,,,
,,58d3bc1642648b0001f21ca4,2024-02-19_05h00.30.640,kallum_motion_pilot,2023.2.2,Win32,144.9275362,58d3bc1642648b0001f21ca4,65d2b6c8f2eece985d8e374c,65d2d24a21c52a3be0e5a486,0.0286,0.0287,0,52,52,111,1,eightseven,,,,,,,,,,,,,,,,,,,,,,,,,,,,,,,,,,,,,,,,,,,,,,,,,,,,,,,,,,,,,,,,,,,,,,,,,,,,,,,,,,,,,,,,,,,,,,,,,,,,,,,,,,,,,,,,,,,,,,,,,,,,,,,,,,,,,,,,,
,,58d3bc1642648b0001f21ca4,2024-02-19_05h00.30.640,kallum_motion_pilot,2023.2.2,Win32,144.9275362,58d3bc1642648b0001f21ca4,65d2b6c8f2eece985d8e374c,65d2d24a21c52a3be0e5a486,0.0288,0.0288,0,53,53,125,1,seveneight,,,,,,,,,,,,,,,,,,,,,,,,,,,,,,,,,,,,,,,,,,,,,,,,,,,,,,,,,,,,,,,,,,,,,,,,,,,,,,,,,,,,,,,,,,,,,,,,,,,,,,,,,,,,,,,,,,,,,,,,,,,,,,,,,,,,,,,,,
,,58d3bc1642648b0001f21ca4,2024-02-19_05h00.30.640,kallum_motion_pilot,2023.2.2,Win32,144.9275362,58d3bc1642648b0001f21ca4,65d2b6c8f2eece985d8e374c,65d2d24a21c52a3be0e5a486,0.0289,0.0289,0,54,54,102,1,eightsix,,,,,,,,,,,,,,,,,,,,,,,,,,,,,,,,,,,,,,,,,,,,,,,,,,,,,,,,,,,,,,,,,,,,,,,,,,,,,,,,,,,,,,,,,,,,,,,,,,,,,,,,,,,,,,,,,,,,,,,,,,,,,,,,,,,,,,,,,
,,58d3bc1642648b0001f21ca4,2024-02-19_05h00.30.640,kallum_motion_pilot,2023.2.2,Win32,144.9275362,58d3bc1642648b0001f21ca4,65d2b6c8f2eece985d8e374c,65d2d24a21c52a3be0e5a486,0.0289,0.029,0,55,55,101,1,seveneight,,,,,,,,,,,,,,,,,,,,,,,,,,,,,,,,,,,,,,,,,,,,,,,,,,,,,,,,,,,,,,,,,,,,,,,,,,,,,,,,,,,,,,,,,,,,,,,,,,,,,,,,,,,,,,,,,,,,,,,,,,,,,,,,,,,,,,,,,
,,58d3bc1642648b0001f21ca4,2024-02-19_05h00.30.640,kallum_motion_pilot,2023.2.2,Win32,144.9275362,58d3bc1642648b0001f21ca4,65d2b6c8f2eece985d8e374c,65d2d24a21c52a3be0e5a486,0.029,0.0291,0,56,56,130,1,sixfive,,,,,,,,,,,,,,,,,,,,,,,,,,,,,,,,,,,,,,,,,,,,,,,,,,,,,,,,,,,,,,,,,,,,,,,,,,,,,,,,,,,,,,,,,,,,,,,,,,,,,,,,,,,,,,,,,,,,,,,,,,,,,,,,,,,,,,,,,
,,58d3bc1642648b0001f21ca4,2024-02-19_05h00.30.640,kallum_motion_pilot,2023.2.2,Win32,144.9275362,58d3bc1642648b0001f21ca4,65d2b6c8f2eece985d8e374c,65d2d24a21c52a3be0e5a486,0.0292,0.0292,0,57,57,61,1,threefour,,,,,,,,,,,,,,,,,,,,,,,,,,,,,,,,,,,,,,,,,,,,,,,,,,,,,,,,,,,,,,,,,,,,,,,,,,,,,,,,,,,,,,,,,,,,,,,,,,,,,,,,,,,,,,,,,,,,,,,,,,,,,,,,,,,,,,,,,
,,58d3bc1642648b0001f21ca4,2024-02-19_05h00.30.640,kallum_motion_pilot,2023.2.2,Win32,144.9275362,58d3bc1642648b0001f21ca4,65d2b6c8f2eece985d8e374c,65d2d24a21c52a3be0e5a486,0.0293,0.0293,0,58,58,132,1,sevenfive,,,,,,,,,,,,,,,,,,,,,,,,,,,,,,,,,,,,,,,,,,,,,,,,,,,,,,,,,,,,,,,,,,,,,,,,,,,,,,,,,,,,,,,,,,,,,,,,,,,,,,,,,,,,,,,,,,,,,,,,,,,,,,,,,,,,,,,,,
,,58d3bc1642648b0001f21ca4,2024-02-19_05h00.30.640,kallum_motion_pilot,2023.2.2,Win32,144.9275362,58d3bc1642648b0001f21ca4,65d2b6c8f2eece985d8e374c,65d2d24a21c52a3be0e5a486,0.0293,0.0294,0,59,59,60,1,threeone,,,,,,,,,,,,,,,,,,,,,,,,,,,,,,,,,,,,,,,,,,,,,,,,,,,,,,,,,,,,,,,,,,,,,,,,,,,,,,,,,,,,,,,,,,,,,,,,,,,,,,,,,,,,,,,,,,,,,,,,,,,,,,,,,,,,,,,,,
,,58d3bc1642648b0001f21ca4,2024-02-19_05h00.30.640,kallum_motion_pilot,2023.2.2,Win32,144.9275362,58d3bc1642648b0001f21ca4,65d2b6c8f2eece985d8e374c,65d2d24a21c52a3be0e5a486,0.0295,0.0296,0,60,60,31,1,fourthree,,,,,,,,,,,,,,,,,,,,,,,,,,,,,,,,,,,,,,,,,,,,,,,,,,,,,,,,,,,,,,,,,,,,,,,,,,,,,,,,,,,,,,,,,,,,,,,,,,,,,,,,,,,,,,,,,,,,,,,,,,,,,,,,,,,,,,,,,
,,58d3bc1642648b0001f21ca4,2024-02-19_05h00.30.640,kallum_motion_pilot,2023.2.2,Win32,144.9275362,58d3bc1642648b0001f21ca4,65d2b6c8f2eece985d8e374c,65d2d24a21c52a3be0e5a486,0.0297,0.0297,0,61,61,55,1,fourthree,,,,,,,,,,,,,,,,,,,,,,,,,,,,,,,,,,,,,,,,,,,,,,,,,,,,,,,,,,,,,,,,,,,,,,,,,,,,,,,,,,,,,,,,,,,,,,,,,,,,,,,,,,,,,,,,,,,,,,,,,,,,,,,,,,,,,,,,,
,,58d3bc1642648b0001f21ca4,2024-02-19_05h00.30.640,kallum_motion_pilot,2023.2.2,Win32,144.9275362,58d3bc1642648b0001f21ca4,65d2b6c8f2eece985d8e374c,65d2d24a21c52a3be0e5a486,0.0297,0.0297,0,62,62,106,1,sixfive,,,,,,,,,,,,,,,,,,,,,,,,,,,,,,,,,,,,,,,,,,,,,,,,,,,,,,,,,,,,,,,,,,,,,,,,,,,,,,,,,,,,,,,,,,,,,,,,,,,,,,,,,,,,,,,,,,,,,,,,,,,,,,,,,,,,,,,,,
,,58d3bc1642648b0001f21ca4,2024-02-19_05h00.30.640,kallum_motion_pilot,2023.2.2,Win32,144.9275362,58d3bc1642648b0001f21ca4,65d2b6c8f2eece985d8e374c,65d2d24a21c52a3be0e5a486,0.0298,0.0298,0,63,63,103,1,eightseven,,,,,,,,,,,,,,,,,,,,,,,,,,,,,,,,,,,,,,,,,,,,,,,,,,,,,,,,,,,,,,,,,,,,,,,,,,,,,,,,,,,,,,,,,,,,,,,,,,,,,,,,,,,,,,,,,,,,,,,,,,,,,,,,,,,,,,,,,
,,58d3bc1642648b0001f21ca4,2024-02-19_05h00.30.640,kallum_motion_pilot,2023.2.2,Win32,144.9275362,58d3bc1642648b0001f21ca4,65d2b6c8f2eece985d8e374c,65d2d24a21c52a3be0e5a486,0.0299,0.03,0,64,64,127,1,eightseven,,,,,,,,,,,,,,,,,,,,,,,,,,,,,,,,,,,,,,,,,,,,,,,,,,,,,,,,,,,,,,,,,,,,,,,,,,,,,,,,,,,,,,,,,,,,,,,,,,,,,,,,,,,,,,,,,,,,,,,,,,,,,,,,,,,,,,,,,
,,58d3bc1642648b0001f21ca4,2024-02-19_05h00.30.640,kallum_motion_pilot,2023.2.2,Win32,144.9275362,58d3bc1642648b0001f21ca4,65d2b6c8f2eece985d8e374c,65d2d24a21c52a3be0e5a486,0.0301,0.0301,0,65,65,45,1,threefour,,,,,,,,,,,,,,,,,,,,,,,,,,,,,,,,,,,,,,,,,,,,,,,,,,,,,,,,,,,,,,,,,,,,,,,,,,,,,,,,,,,,,,,,,,,,,,,,,,,,,,,,,,,,,,,,,,,,,,,,,,,,,,,,,,,,,,,,,
,,58d3bc1642648b0001f21ca4,2024-02-19_05h00.30.640,kallum_motion_pilot,2023.2.2,Win32,144.9275362,58d3bc1642648b0001f21ca4,65d2b6c8f2eece985d8e374c,65d2d24a21c52a3be0e5a486,0.0301,0.0302,0,66,66,24,1,onetwo,,,,,,,,,,,,,,,,,,,,,,,,,,,,,,,,,,,,,,,,,,,,,,,,,,,,,,,,,,,,,,,,,,,,,,,,,,,,,,,,,,,,,,,,,,,,,,,,,,,,,,,,,,,,,,,,,,,,,,,,,,,,,,,,,,,,,,,,,
,,58d3bc1642648b0001f21ca4,2024-02-19_05h00.30.640,kallum_motion_pilot,2023.2.2,Win32,144.9275362,58d3bc1642648b0001f21ca4,65d2b6c8f2eece985d8e374c,65d2d24a21c52a3be0e5a486,0.0303,0.0304,0,67,67,112,1,fivesix,,,,,,,,,,,,,,,,,,,,,,,,,,,,,,,,,,,,,,,,,,,,,,,,,,,,,,,,,,,,,,,,,,,,,,,,,,,,,,,,,,,,,,,,,,,,,,,,,,,,,,,,,,,,,,,,,,,,,,,,,,,,,,,,,,,,,,,,,
,,58d3bc1642648b0001f21ca4,2024-02-19_05h00.30.640,kallum_motion_pilot,2023.2.2,Win32,144.9275362,58d3bc1642648b0001f21ca4,65d2b6c8f2eece985d8e374c,65d2d24a21c52a3be0e5a486,0.0304,0.0304,0,68,68,23,1,fourthree,,,,,,,,,,,,,,,,,,,,,,,,,,,,,,,,,,,,,,,,,,,,,,,,,,,,,,,,,,,,,,,,,,,,,,,,,,,,,,,,,,,,,,,,,,,,,,,,,,,,,,,,,,,,,,,,,,,,,,,,,,,,,,,,,,,,,,,,,
,,58d3bc1642648b0001f21ca4,2024-02-19_05h00.30.640,kallum_motion_pilot,2023.2.2,Win32,144.9275362,58d3bc1642648b0001f21ca4,65d2b6c8f2eece985d8e374c,65d2d24a21c52a3be0e5a486,0.0305,0.0306,0,69,69,84,1,sevenfive,,,,,,,,,,,,,,,,,,,,,,,,,,,,,,,,,,,,,,,,,,,,,,,,,,,,,,,,,,,,,,,,,,,,,,,,,,,,,,,,,,,,,,,,,,,,,,,,,,,,,,,,,,,,,,,,,,,,,,,,,,,,,,,,,,,,,,,,,
,,58d3bc1642648b0001f21ca4,2024-02-19_05h00.30.640,kallum_motion_pilot,2023.2.2,Win32,144.9275362,58d3bc1642648b0001f21ca4,65d2b6c8f2eece985d8e374c,65d2d24a21c52a3be0e5a486,0.0306,0.0307,0,70,70,17,1,onethree,,,,,,,,,,,,,,,,,,,,,,,,,,,,,,,,,,,,,,,,,,,,,,,,,,,,,,,,,,,,,,,,,,,,,,,,,,,,,,,,,,,,,,,,,,,,,,,,,,,,,,,,,,,,,,,,,,,,,,,,,,,,,,,,,,,,,,,,,
,,58d3bc1642648b0001f21ca4,2024-02-19_05h00.30.640,kallum_motion_pilot,2023.2.2,Win32,144.9275362,58d3bc1642648b0001f21ca4,65d2b6c8f2eece985d8e374c,65d2d24a21c52a3be0e5a486,0.0308,0.0308,0,71,71,158,1,eightsix,,,,,,,,,,,,,,,,,,,,,,,,,,,,,,,,,,,,,,,,,,,,,,,,,,,,,,,,,,,,,,,,,,,,,,,,,,,,,,,,,,,,,,,,,,,,,,,,,,,,,,,,,,,,,,,,,,,,,,,,,,,,,,,,,,,,,,,,,
,,58d3bc1642648b0001f21ca4,2024-02-19_05h00.30.640,kallum_motion_pilot,2023.2.2,Win32,144.9275362,58d3bc1642648b0001f21ca4,65d2b6c8f2eece985d8e374c,65d2d24a21c52a3be0e5a486,0.0309,0.0309,0,72,72,22,1,fourtwo,,,,,,,,,,,,,,,,,,,,,,,,,,,,,,,,,,,,,,,,,,,,,,,,,,,,,,,,,,,,,,,,,,,,,,,,,,,,,,,,,,,,,,,,,,,,,,,,,,,,,,,,,,,,,,,,,,,,,,,,,,,,,,,,,,,,,,,,,
,,58d3bc1642648b0001f21ca4,2024-02-19_05h00.30.640,kallum_motion_pilot,2023.2.2,Win32,144.9275362,58d3bc1642648b0001f21ca4,65d2b6c8f2eece985d8e374c,65d2d24a21c52a3be0e5a486,0.031,0.0311,0,73,73,114,1,sixfive,,,,,,,,,,,,,,,,,,,,,,,,,,,,,,,,,,,,,,,,,,,,,,,,,,,,,,,,,,,,,,,,,,,,,,,,,,,,,,,,,,,,,,,,,,,,,,,,,,,,,,,,,,,,,,,,,,,,,,,,,,,,,,,,,,,,,,,,,
,,58d3bc1642648b0001f21ca4,2024-02-19_05h00.30.640,kallum_motion_pilot,2023.2.2,Win32,144.9275362,58d3bc1642648b0001f21ca4,65d2b6c8f2eece985d8e374c,65d2d24a21c52a3be0e5a486,0.0311,0.0311,0,74,74,16,1,onetwo,,,,,,,,,,,,,,,,,,,,,,,,,,,,,,,,,,,,,,,,,,,,,,,,,,,,,,,,,,,,,,,,,,,,,,,,,,,,,,,,,,,,,,,,,,,,,,,,,,,,,,,,,,,,,,,,,,,,,,,,,,,,,,,,,,,,,,,,,
,,58d3bc1642648b0001f21ca4,2024-02-19_05h00.30.640,kallum_motion_pilot,2023.2.2,Win32,144.9275362,58d3bc1642648b0001f21ca4,65d2b6c8f2eece985d8e374c,65d2d24a21c52a3be0e5a486,0.0312,0.0313,0,75,75,155,1,sixeight,,,,,,,,,,,,,,,,,,,,,,,,,,,,,,,,,,,,,,,,,,,,,,,,,,,,,,,,,,,,,,,,,,,,,,,,,,,,,,,,,,,,,,,,,,,,,,,,,,,,,,,,,,,,,,,,,,,,,,,,,,,,,,,,,,,,,,,,,
,,58d3bc1642648b0001f21ca4,2024-02-19_05h00.30.640,kallum_motion_pilot,2023.2.2,Win32,144.9275362,58d3bc1642648b0001f21ca4,65d2b6c8f2eece985d8e374c,65d2d24a21c52a3be0e5a486,0.0314,0.0314,0,76,76,149,1,seveneight,,,,,,,,,,,,,,,,,,,,,,,,,,,,,,,,,,,,,,,,,,,,,,,,,,,,,,,,,,,,,,,,,,,,,,,,,,,,,,,,,,,,,,,,,,,,,,,,,,,,,,,,,,,,,,,,,,,,,,,,,,,,,,,,,,,,,,,,,
,,58d3bc1642648b0001f21ca4,2024-02-19_05h00.30.640,kallum_motion_pilot,2023.2.2,Win32,144.9275362,58d3bc1642648b0001f21ca4,65d2b6c8f2eece985d8e374c,65d2d24a21c52a3be0e5a486,0.0315,0.0315,0,77,77,89,1,fiveseven,,,,,,,,,,,,,,,,,,,,,,,,,,,,,,,,,,,,,,,,,,,,,,,,,,,,,,,,,,,,,,,,,,,,,,,,,,,,,,,,,,,,,,,,,,,,,,,,,,,,,,,,,,,,,,,,,,,,,,,,,,,,,,,,,,,,,,,,,
,,58d3bc1642648b0001f21ca4,2024-02-19_05h00.30.640,kallum_motion_pilot,2023.2.2,Win32,144.9275362,58d3bc1642648b0001f21ca4,65d2b6c8f2eece985d8e374c,65d2d24a21c52a3be0e5a486,0.0316,0.0316,0,78,78,141,1,seveneight,,,,,,,,,,,,,,,,,,,,,,,,,,,,,,,,,,,,,,,,,,,,,,,,,,,,,,,,,,,,,,,,,,,,,,,,,,,,,,,,,,,,,,,,,,,,,,,,,,,,,,,,,,,,,,,,,,,,,,,,,,,,,,,,,,,,,,,,,
,,58d3bc1642648b0001f21ca4,2024-02-19_05h00.30.640,kallum_motion_pilot,2023.2.2,Win32,144.9275362,58d3bc1642648b0001f21ca4,65d2b6c8f2eece985d8e374c,65d2d24a21c52a3be0e5a486,0.0317,0.0318,0,79,79,148,1,sevenfive,,,,,,,,,,,,,,,,,,,,,,,,,,,,,,,,,,,,,,,,,,,,,,,,,,,,,,,,,,,,,,,,,,,,,,,,,,,,,,,,,,,,,,,,,,,,,,,,,,,,,,,,,,,,,,,,,,,,,,,,,,,,,,,,,,,,,,,,,
,,58d3bc1642648b0001f21ca4,2024-02-19_05h00.30.640,kallum_motion_pilot,2023.2.2,Win32,144.9275362,58d3bc1642648b0001f21ca4,65d2b6c8f2eece985d8e374c,65d2d24a21c52a3be0e5a486,0.0318,0.0319,0,80,80,131,1,sixeight,,,,,,,,,,,,,,,,,,,,,,,,,,,,,,,,,,,,,,,,,,,,,,,,,,,,,,,,,,,,,,,,,,,,,,,,,,,,,,,,,,,,,,,,,,,,,,,,,,,,,,,,,,,,,,,,,,,,,,,,,,,,,,,,,,,,,,,,,
,,58d3bc1642648b0001f21ca4,2024-02-19_05h00.30.640,kallum_motion_pilot,2023.2.2,Win32,144.9275362,58d3bc1642648b0001f21ca4,65d2b6c8f2eece985d8e374c,65d2d24a21c52a3be0e5a486,0.0319,0.0319,0,81,81,135,1,eightseven,,,,,,,,,,,,,,,,,,,,,,,,,,,,,,,,,,,,,,,,,,,,,,,,,,,,,,,,,,,,,,,,,,,,,,,,,,,,,,,,,,,,,,,,,,,,,,,,,,,,,,,,,,,,,,,,,,,,,,,,,,,,,,,,,,,,,,,,,
,,58d3bc1642648b0001f21ca4,2024-02-19_05h00.30.640,kallum_motion_pilot,2023.2.2,Win32,144.9275362,58d3bc1642648b0001f21ca4,65d2b6c8f2eece985d8e374c,65d2d24a21c52a3be0e5a486,0.0321,0.0321,0,82,82,62,1,fourtwo,,,,,,,,,,,,,,,,,,,,,,,,,,,,,,,,,,,,,,,,,,,,,,,,,,,,,,,,,,,,,,,,,,,,,,,,,,,,,,,,,,,,,,,,,,,,,,,,,,,,,,,,,,,,,,,,,,,,,,,,,,,,,,,,,,,,,,,,,
,,58d3bc1642648b0001f21ca4,2024-02-19_05h00.30.640,kallum_motion_pilot,2023.2.2,Win32,144.9275362,58d3bc1642648b0001f21ca4,65d2b6c8f2eece985d8e374c,65d2d24a21c52a3be0e5a486,0.0322,0.0322,0,83,83,38,1,fourtwo,,,,,,,,,,,,,,,,,,,,,,,,,,,,,,,,,,,,,,,,,,,,,,,,,,,,,,,,,,,,,,,,,,,,,,,,,,,,,,,,,,,,,,,,,,,,,,,,,,,,,,,,,,,,,,,,,,,,,,,,,,,,,,,,,,,,,,,,,
,,58d3bc1642648b0001f21ca4,2024-02-19_05h00.30.640,kallum_motion_pilot,2023.2.2,Win32,144.9275362,58d3bc1642648b0001f21ca4,65d2b6c8f2eece985d8e374c,65d2d24a21c52a3be0e5a486,0.0322,0.0323,0,84,84,25,1,onethree,,,,,,,,,,,,,,,,,,,,,,,,,,,,,,,,,,,,,,,,,,,,,,,,,,,,,,,,,,,,,,,,,,,,,,,,,,,,,,,,,,,,,,,,,,,,,,,,,,,,,,,,,,,,,,,,,,,,,,,,,,,,,,,,,,,,,,,,,
,,58d3bc1642648b0001f21ca4,2024-02-19_05h00.30.640,kallum_motion_pilot,2023.2.2,Win32,144.9275362,58d3bc1642648b0001f21ca4,65d2b6c8f2eece985d8e374c,65d2d24a21c52a3be0e5a486,0.0324,0.0325,0,85,85,43,1,twofour,,,,,,,,,,,,,,,,,,,,,,,,,,,,,,,,,,,,,,,,,,,,,,,,,,,,,,,,,,,,,,,,,,,,,,,,,,,,,,,,,,,,,,,,,,,,,,,,,,,,,,,,,,,,,,,,,,,,,,,,,,,,,,,,,,,,,,,,,
,,58d3bc1642648b0001f21ca4,2024-02-19_05h00.30.640,kallum_motion_pilot,2023.2.2,Win32,144.9275362,58d3bc1642648b0001f21ca4,65d2b6c8f2eece985d8e374c,65d2d24a21c52a3be0e5a486,0.0325,0.0326,0,86,86,75,1,twofour,,,,,,,,,,,,,,,,,,,,,,,,,,,,,,,,,,,,,,,,,,,,,,,,,,,,,,,,,,,,,,,,,,,,,,,,,,,,,,,,,,,,,,,,,,,,,,,,,,,,,,,,,,,,,,,,,,,,,,,,,,,,,,,,,,,,,,,,,
,,58d3bc1642648b0001f21ca4,2024-02-19_05h00.30.640,kallum_motion_pilot,2023.2.2,Win32,144.9275362,58d3bc1642648b0001f21ca4,65d2b6c8f2eece985d8e374c,65d2d24a21c52a3be0e5a486,0.0327,0.0327,0,87,87,21,1,threefour,,,,,,,,,,,,,,,,,,,,,,,,,,,,,,,,,,,,,,,,,,,,,,,,,,,,,,,,,,,,,,,,,,,,,,,,,,,,,,,,,,,,,,,,,,,,,,,,,,,,,,,,,,,,,,,,,,,,,,,,,,,,,,,,,,,,,,,,,
,,58d3bc1642648b0001f21ca4,2024-02-19_05h00.30.640,kallum_motion_pilot,2023.2.2,Win32,144.9275362,58d3bc1642648b0001f21ca4,65d2b6c8f2eece985d8e374c,65d2d24a21c52a3be0e5a486,0.0328,0.0328,0,88,88,47,1,fourthree,,,,,,,,,,,,,,,,,,,,,,,,,,,,,,,,,,,,,,,,,,,,,,,,,,,,,,,,,,,,,,,,,,,,,,,,,,,,,,,,,,,,,,,,,,,,,,,,,,,,,,,,,,,,,,,,,,,,,,,,,,,,,,,,,,,,,,,,,
,,58d3bc1642648b0001f21ca4,2024-02-19_05h00.30.640,kallum_motion_pilot,2023.2.2,Win32,144.9275362,58d3bc1642648b0001f21ca4,65d2b6c8f2eece985d8e374c,65d2d24a21c52a3be0e5a486,0.0329,0.033,0,89,89,142,1,eightsix,,,,,,,,,,,,,,,,,,,,,,,,,,,,,,,,,,,,,,,,,,,,,,,,,,,,,,,,,,,,,,,,,,,,,,,,,,,,,,,,,,,,,,,,,,,,,,,,,,,,,,,,,,,,,,,,,,,,,,,,,,,,,,,,,,,,,,,,,
,,58d3bc1642648b0001f21ca4,2024-02-19_05h00.30.640,kallum_motion_pilot,2023.2.2,Win32,144.9275362,58d3bc1642648b0001f21ca4,65d2b6c8f2eece985d8e374c,65d2d24a21c52a3be0e5a486,0.033,0.033,0,90,90,73,1,onethree,,,,,,,,,,,,,,,,,,,,,,,,,,,,,,,,,,,,,,,,,,,,,,,,,,,,,,,,,,,,,,,,,,,,,,,,,,,,,,,,,,,,,,,,,,,,,,,,,,,,,,,,,,,,,,,,,,,,,,,,,,,,,,,,,,,,,,,,,
,,58d3bc1642648b0001f21ca4,2024-02-19_05h00.30.640,kallum_motion_pilot,2023.2.2,Win32,144.9275362,58d3bc1642648b0001f21ca4,65d2b6c8f2eece985d8e374c,65d2d24a21c52a3be0e5a486,0.0331,0.0332,0,91,91,85,1,seveneight,,,,,,,,,,,,,,,,,,,,,,,,,,,,,,,,,,,,,,,,,,,,,,,,,,,,,,,,,,,,,,,,,,,,,,,,,,,,,,,,,,,,,,,,,,,,,,,,,,,,,,,,,,,,,,,,,,,,,,,,,,,,,,,,,,,,,,,,,
,,58d3bc1642648b0001f21ca4,2024-02-19_05h00.30.640,kallum_motion_pilot,2023.2.2,Win32,144.9275362,58d3bc1642648b0001f21ca4,65d2b6c8f2eece985d8e374c,65d2d24a21c52a3be0e5a486,0.0333,0.0333,0,92,92,70,1,fourtwo,,,,,,,,,,,,,,,,,,,,,,,,,,,,,,,,,,,,,,,,,,,,,,,,,,,,,,,,,,,,,,,,,,,,,,,,,,,,,,,,,,,,,,,,,,,,,,,,,,,,,,,,,,,,,,,,,,,,,,,,,,,,,,,,,,,,,,,,,
,,58d3bc1642648b0001f21ca4,2024-02-19_05h00.30.640,kallum_motion_pilot,2023.2.2,Win32,144.9275362,58d3bc1642648b0001f21ca4,65d2b6c8f2eece985d8e374c,65d2d24a21c52a3be0e5a486,0.0333,0.0334,0,93,93,15,1,fourthree,,,,,,,,,,,,,,,,,,,,,,,,,,,,,,,,,,,,,,,,,,,,,,,,,,,,,,,,,,,,,,,,,,,,,,,,,,,,,,,,,,,,,,,,,,,,,,,,,,,,,,,,,,,,,,,,,,,,,,,,,,,,,,,,,,,,,,,,,
,,58d3bc1642648b0001f21ca4,2024-02-19_05h00.30.640,kallum_motion_pilot,2023.2.2,Win32,144.9275362,58d3bc1642648b0001f21ca4,65d2b6c8f2eece985d8e374c,65d2d24a21c52a3be0e5a486,0.0335,0.0335,0,94,94,52,1,threeone,,,,,,,,,,,,,,,,,,,,,,,,,,,,,,,,,,,,,,,,,,,,,,,,,,,,,,,,,,,,,,,,,,,,,,,,,,,,,,,,,,,,,,,,,,,,,,,,,,,,,,,,,,,,,,,,,,,,,,,,,,,,,,,,,,,,,,,,,
,,58d3bc1642648b0001f21ca4,2024-02-19_05h00.30.640,kallum_motion_pilot,2023.2.2,Win32,144.9275362,58d3bc1642648b0001f21ca4,65d2b6c8f2eece985d8e374c,65d2d24a21c52a3be0e5a486,0.0336,0.0336,0,95,95,68,1,threeone,,,,,,,,,,,,,,,,,,,,,,,,,,,,,,,,,,,,,,,,,,,,,,,,,,,,,,,,,,,,,,,,,,,,,,,,,,,,,,,,,,,,,,,,,,,,,,,,,,,,,,,,,,,,,,,,,,,,,,,,,,,,,,,,,,,,,,,,,
,,58d3bc1642648b0001f21ca4,2024-02-19_05h00.30.640,kallum_motion_pilot,2023.2.2,Win32,144.9275362,58d3bc1642648b0001f21ca4,65d2b6c8f2eece985d8e374c,65d2d24a21c52a3be0e5a486,0.0337,0.0337,0,96,96,81,1,fiveseven,,,,,,,,,,,,,,,,,,,,,,,,,,,,,,,,,,,,,,,,,,,,,,,,,,,,,,,,,,,,,,,,,,,,,,,,,,,,,,,,,,,,,,,,,,,,,,,,,,,,,,,,,,,,,,,,,,,,,,,,,,,,,,,,,,,,,,,,,
,,58d3bc1642648b0001f21ca4,2024-02-19_05h00.30.640,kallum_motion_pilot,2023.2.2,Win32,144.9275362,58d3bc1642648b0001f21ca4,65d2b6c8f2eece985d8e374c,65d2d24a21c52a3be0e5a486,0.0338,0.0339,0,97,97,115,1,sixeight,,,,,,,,,,,,,,,,,,,,,,,,,,,,,,,,,,,,,,,,,,,,,,,,,,,,,,,,,,,,,,,,,,,,,,,,,,,,,,,,,,,,,,,,,,,,,,,,,,,,,,,,,,,,,,,,,,,,,,,,,,,,,,,,,,,,,,,,,
,,58d3bc1642648b0001f21ca4,2024-02-19_05h00.30.640,kallum_motion_pilot,2023.2.2,Win32,144.9275362,58d3bc1642648b0001f21ca4,65d2b6c8f2eece985d8e374c,65d2d24a21c52a3be0e5a486,0.0339,0.034,0,98,98,105,1,fiveseven,,,,,,,,,,,,,,,,,,,,,,,,,,,,,,,,,,,,,,,,,,,,,,,,,,,,,,,,,,,,,,,,,,,,,,,,,,,,,,,,,,,,,,,,,,,,,,,,,,,,,,,,,,,,,,,,,,,,,,,,,,,,,,,,,,,,,,,,,
,,58d3bc1642648b0001f21ca4,2024-02-19_05h00.30.640,kallum_motion_pilot,2023.2.2,Win32,144.9275362,58d3bc1642648b0001f21ca4,65d2b6c8f2eece985d8e374c,65d2d24a21c52a3be0e5a486,0.0341,0.0341,0,99,99,46,1,fourtwo,,,,,,,,,,,,,,,,,,,,,,,,,,,,,,,,,,,,,,,,,,,,,,,,,,,,,,,,,,,,,,,,,,,,,,,,,,,,,,,,,,,,,,,,,,,,,,,,,,,,,,,,,,,,,,,,,,,,,,,,,,,,,,,,,,,,,,,,,
,,58d3bc1642648b0001f21ca4,2024-02-19_05h00.30.640,kallum_motion_pilot,2023.2.2,Win32,144.9275362,58d3bc1642648b0001f21ca4,65d2b6c8f2eece985d8e374c,65d2d24a21c52a3be0e5a486,0.0342,0.0342,0,100,100,11,1,twofour,,,,,,,,,,,,,,,,,,,,,,,,,,,,,,,,,,,,,,,,,,,,,,,,,,,,,,,,,,,,,,,,,,,,,,,,,,,,,,,,,,,,,,,,,,,,,,,,,,,,,,,,,,,,,,,,,,,,,,,,,,,,,,,,,,,,,,,,,
,,58d3bc1642648b0001f21ca4,2024-02-19_05h00.30.640,kallum_motion_pilot,2023.2.2,Win32,144.9275362,58d3bc1642648b0001f21ca4,65d2b6c8f2eece985d8e374c,65d2d24a21c52a3be0e5a486,0.0343,0.0343,0,101,101,9,1,onethree,,,,,,,,,,,,,,,,,,,,,,,,,,,,,,,,,,,,,,,,,,,,,,,,,,,,,,,,,,,,,,,,,,,,,,,,,,,,,,,,,,,,,,,,,,,,,,,,,,,,,,,,,,,,,,,,,,,,,,,,,,,,,,,,,,,,,,,,,
,,58d3bc1642648b0001f21ca4,2024-02-19_05h00.30.640,kallum_motion_pilot,2023.2.2,Win32,144.9275362,58d3bc1642648b0001f21ca4,65d2b6c8f2eece985d8e374c,65d2d24a21c52a3be0e5a486,0.0345,0.0345,0,102,102,108,1,sevenfive,,,,,,,,,,,,,,,,,,,,,,,,,,,,,,,,,,,,,,,,,,,,,,,,,,,,,,,,,,,,,,,,,,,,,,,,,,,,,,,,,,,,,,,,,,,,,,,,,,,,,,,,,,,,,,,,,,,,,,,,,,,,,,,,,,,,,,,,,
,,58d3bc1642648b0001f21ca4,2024-02-19_05h00.30.640,kallum_motion_pilot,2023.2.2,Win32,144.9275362,58d3bc1642648b0001f21ca4,65d2b6c8f2eece985d8e374c,65d2d24a21c52a3be0e5a486,0.0347,0.0347,0,103,103,2,1,twoone,,,,,,,,,,,,,,,,,,,,,,,,,,,,,,,,,,,,,,,,,,,,,,,,,,,,,,,,,,,,,,,,,,,,,,,,,,,,,,,,,,,,,,,,,,,,,,,,,,,,,,,,,,,,,,,,,,,,,,,,,,,,,,,,,,,,,,,,,
,,58d3bc1642648b0001f21ca4,2024-02-19_05h00.30.640,kallum_motion_pilot,2023.2.2,Win32,144.9275362,58d3bc1642648b0001f21ca4,65d2b6c8f2eece985d8e374c,65d2d24a21c52a3be0e5a486,0.0348,0.0348,0,104,104,35,1,twofour,,,,,,,,,,,,,,,,,,,,,,,,,,,,,,,,,,,,,,,,,,,,,,,,,,,,,,,,,,,,,,,,,,,,,,,,,,,,,,,,,,,,,,,,,,,,,,,,,,,,,,,,,,,,,,,,,,,,,,,,,,,,,,,,,,,,,,,,,
,,58d3bc1642648b0001f21ca4,2024-02-19_05h00.30.640,kallum_motion_pilot,2023.2.2,Win32,144.9275362,58d3bc1642648b0001f21ca4,65d2b6c8f2eece985d8e374c,65d2d24a21c52a3be0e5a486,0.0349,0.035,0,105,105,67,1,twofour,,,,,,,,,,,,,,,,,,,,,,,,,,,,,,,,,,,,,,,,,,,,,,,,,,,,,,,,,,,,,,,,,,,,,,,,,,,,,,,,,,,,,,,,,,,,,,,,,,,,,,,,,,,,,,,,,,,,,,,,,,,,,,,,,,,,,,,,,
,,58d3bc1642648b0001f21ca4,2024-02-19_05h00.30.640,kallum_motion_pilot,2023.2.2,Win32,144.9275362,58d3bc1642648b0001f21ca4,65d2b6c8f2eece985d8e374c,65d2d24a21c52a3be0e5a486,0.035,0.0351,0,106,106,121,1,fiveseven,,,,,,,,,,,,,,,,,,,,,,,,,,,,,,,,,,,,,,,,,,,,,,,,,,,,,,,,,,,,,,,,,,,,,,,,,,,,,,,,,,,,,,,,,,,,,,,,,,,,,,,,,,,,,,,,,,,,,,,,,,,,,,,,,,,,,,,,,
,,58d3bc1642648b0001f21ca4,2024-02-19_05h00.30.640,kallum_motion_pilot,2023.2.2,Win32,144.9275362,58d3bc1642648b0001f21ca4,65d2b6c8f2eece985d8e374c,65d2d24a21c52a3be0e5a486,0.0352,0.0352,0,107,107,49,1,onethree,,,,,,,,,,,,,,,,,,,,,,,,,,,,,,,,,,,,,,,,,,,,,,,,,,,,,,,,,,,,,,,,,,,,,,,,,,,,,,,,,,,,,,,,,,,,,,,,,,,,,,,,,,,,,,,,,,,,,,,,,,,,,,,,,,,,,,,,,
,,58d3bc1642648b0001f21ca4,2024-02-19_05h00.30.640,kallum_motion_pilot,2023.2.2,Win32,144.9275362,58d3bc1642648b0001f21ca4,65d2b6c8f2eece985d8e374c,65d2d24a21c52a3be0e5a486,0.0353,0.0353,0,108,108,151,1,eightseven,,,,,,,,,,,,,,,,,,,,,,,,,,,,,,,,,,,,,,,,,,,,,,,,,,,,,,,,,,,,,,,,,,,,,,,,,,,,,,,,,,,,,,,,,,,,,,,,,,,,,,,,,,,,,,,,,,,,,,,,,,,,,,,,,,,,,,,,,
,,58d3bc1642648b0001f21ca4,2024-02-19_05h00.30.640,kallum_motion_pilot,2023.2.2,Win32,144.9275362,58d3bc1642648b0001f21ca4,65d2b6c8f2eece985d8e374c,65d2d24a21c52a3be0e5a486,0.0355,0.0355,0,109,109,109,1,seveneight,,,,,,,,,,,,,,,,,,,,,,,,,,,,,,,,,,,,,,,,,,,,,,,,,,,,,,,,,,,,,,,,,,,,,,,,,,,,,,,,,,,,,,,,,,,,,,,,,,,,,,,,,,,,,,,,,,,,,,,,,,,,,,,,,,,,,,,,,
,,58d3bc1642648b0001f21ca4,2024-02-19_05h00.30.640,kallum_motion_pilot,2023.2.2,Win32,144.9275362,58d3bc1642648b0001f21ca4,65d2b6c8f2eece985d8e374c,65d2d24a21c52a3be0e5a486,0.0356,0.0357,0,110,110,3,1,twofour,,,,,,,,,,,,,,,,,,,,,,,,,,,,,,,,,,,,,,,,,,,,,,,,,,,,,,,,,,,,,,,,,,,,,,,,,,,,,,,,,,,,,,,,,,,,,,,,,,,,,,,,,,,,,,,,,,,,,,,,,,,,,,,,,,,,,,,,,
,,58d3bc1642648b0001f21ca4,2024-02-19_05h00.30.640,kallum_motion_pilot,2023.2.2,Win32,144.9275362,58d3bc1642648b0001f21ca4,65d2b6c8f2eece985d8e374c,65d2d24a21c52a3be0e5a486,0.0358,0.0359,0,111,111,123,1,sixeight,,,,,,,,,,,,,,,,,,,,,,,,,,,,,,,,,,,,,,,,,,,,,,,,,,,,,,,,,,,,,,,,,,,,,,,,,,,,,,,,,,,,,,,,,,,,,,,,,,,,,,,,,,,,,,,,,,,,,,,,,,,,,,,,,,,,,,,,,
,,58d3bc1642648b0001f21ca4,2024-02-19_05h00.30.640,kallum_motion_pilot,2023.2.2,Win32,144.9275362,58d3bc1642648b0001f21ca4,65d2b6c8f2eece985d8e374c,65d2d24a21c52a3be0e5a486,0.036,0.036,0,112,112,10,1,twoone,,,,,,,,,,,,,,,,,,,,,,,,,,,,,,,,,,,,,,,,,,,,,,,,,,,,,,,,,,,,,,,,,,,,,,,,,,,,,,,,,,,,,,,,,,,,,,,,,,,,,,,,,,,,,,,,,,,,,,,,,,,,,,,,,,,,,,,,,
,,58d3bc1642648b0001f21ca4,2024-02-19_05h00.30.640,kallum_motion_pilot,2023.2.2,Win32,144.9275362,58d3bc1642648b0001f21ca4,65d2b6c8f2eece985d8e374c,65d2d24a21c52a3be0e5a486,0.0361,0.0362,0,113,113,8,1,onetwo,,,,,,,,,,,,,,,,,,,,,,,,,,,,,,,,,,,,,,,,,,,,,,,,,,,,,,,,,,,,,,,,,,,,,,,,,,,,,,,,,,,,,,,,,,,,,,,,,,,,,,,,,,,,,,,,,,,,,,,,,,,,,,,,,,,,,,,,,
,,58d3bc1642648b0001f21ca4,2024-02-19_05h00.30.640,kallum_motion_pilot,2023.2.2,Win32,144.9275362,58d3bc1642648b0001f21ca4,65d2b6c8f2eece985d8e374c,65d2d24a21c52a3be0e5a486,0.0363,0.0363,0,114,114,20,1,threeone,,,,,,,,,,,,,,,,,,,,,,,,,,,,,,,,,,,,,,,,,,,,,,,,,,,,,,,,,,,,,,,,,,,,,,,,,,,,,,,,,,,,,,,,,,,,,,,,,,,,,,,,,,,,,,,,,,,,,,,,,,,,,,,,,,,,,,,,,
,,58d3bc1642648b0001f21ca4,2024-02-19_05h00.30.640,kallum_motion_pilot,2023.2.2,Win32,144.9275362,58d3bc1642648b0001f21ca4,65d2b6c8f2eece985d8e374c,65d2d24a21c52a3be0e5a486,0.0364,0.0364,0,115,115,42,1,twoone,,,,,,,,,,,,,,,,,,,,,,,,,,,,,,,,,,,,,,,,,,,,,,,,,,,,,,,,,,,,,,,,,,,,,,,,,,,,,,,,,,,,,,,,,,,,,,,,,,,,,,,,,,,,,,,,,,,,,,,,,,,,,,,,,,,,,,,,,
,,58d3bc1642648b0001f21ca4,2024-02-19_05h00.30.640,kallum_motion_pilot,2023.2.2,Win32,144.9275362,58d3bc1642648b0001f21ca4,65d2b6c8f2eece985d8e374c,65d2d24a21c52a3be0e5a486,0.0365,0.0366,0,116,116,91,1,sixeight,,,,,,,,,,,,,,,,,,,,,,,,,,,,,,,,,,,,,,,,,,,,,,,,,,,,,,,,,,,,,,,,,,,,,,,,,,,,,,,,,,,,,,,,,,,,,,,,,,,,,,,,,,,,,,,,,,,,,,,,,,,,,,,,,,,,,,,,,
,,58d3bc1642648b0001f21ca4,2024-02-19_05h00.30.640,kallum_motion_pilot,2023.2.2,Win32,144.9275362,58d3bc1642648b0001f21ca4,65d2b6c8f2eece985d8e374c,65d2d24a21c52a3be0e5a486,0.0367,0.0368,0,117,117,19,1,twofour,,,,,,,,,,,,,,,,,,,,,,,,,,,,,,,,,,,,,,,,,,,,,,,,,,,,,,,,,,,,,,,,,,,,,,,,,,,,,,,,,,,,,,,,,,,,,,,,,,,,,,,,,,,,,,,,,,,,,,,,,,,,,,,,,,,,,,,,,
,,58d3bc1642648b0001f21ca4,2024-02-19_05h00.30.640,kallum_motion_pilot,2023.2.2,Win32,144.9275362,58d3bc1642648b0001f21ca4,65d2b6c8f2eece985d8e374c,65d2d24a21c52a3be0e5a486,0.0369,0.0369,0,118,118,78,1,fourtwo,,,,,,,,,,,,,,,,,,,,,,,,,,,,,,,,,,,,,,,,,,,,,,,,,,,,,,,,,,,,,,,,,,,,,,,,,,,,,,,,,,,,,,,,,,,,,,,,,,,,,,,,,,,,,,,,,,,,,,,,,,,,,,,,,,,,,,,,,
,,58d3bc1642648b0001f21ca4,2024-02-19_05h00.30.640,kallum_motion_pilot,2023.2.2,Win32,144.9275362,58d3bc1642648b0001f21ca4,65d2b6c8f2eece985d8e374c,65d2d24a21c52a3be0e5a486,0.0369,0.037,0,119,119,94,1,eightsix,,,,,,,,,,,,,,,,,,,,,,,,,,,,,,,,,,,,,,,,,,,,,,,,,,,,,,,,,,,,,,,,,,,,,,,,,,,,,,,,,,,,,,,,,,,,,,,,,,,,,,,,,,,,,,,,,,,,,,,,,,,,,,,,,,,,,,,,,
,,58d3bc1642648b0001f21ca4,2024-02-19_05h00.30.640,kallum_motion_pilot,2023.2.2,Win32,144.9275362,58d3bc1642648b0001f21ca4,65d2b6c8f2eece985d8e374c,65d2d24a21c52a3be0e5a486,0.037,0.0371,0,120,120,104,1,fivesix,,,,,,,,,,,,,,,,,,,,,,,,,,,,,,,,,,,,,,,,,,,,,,,,,,,,,,,,,,,,,,,,,,,,,,,,,,,,,,,,,,,,,,,,,,,,,,,,,,,,,,,,,,,,,,,,,,,,,,,,,,,,,,,,,,,,,,,,,
,,58d3bc1642648b0001f21ca4,2024-02-19_05h00.30.640,kallum_motion_pilot,2023.2.2,Win32,144.9275362,58d3bc1642648b0001f21ca4,65d2b6c8f2eece985d8e374c,65d2d24a21c52a3be0e5a486,0.0372,0.0372,0,121,121,13,1,threefour,,,,,,,,,,,,,,,,,,,,,,,,,,,,,,,,,,,,,,,,,,,,,,,,,,,,,,,,,,,,,,,,,,,,,,,,,,,,,,,,,,,,,,,,,,,,,,,,,,,,,,,,,,,,,,,,,,,,,,,,,,,,,,,,,,,,,,,,,
,,58d3bc1642648b0001f21ca4,2024-02-19_05h00.30.640,kallum_motion_pilot,2023.2.2,Win32,144.9275362,58d3bc1642648b0001f21ca4,65d2b6c8f2eece985d8e374c,65d2d24a21c52a3be0e5a486,0.0373,0.0374,0,122,122,144,1,fivesix,,,,,,,,,,,,,,,,,,,,,,,,,,,,,,,,,,,,,,,,,,,,,,,,,,,,,,,,,,,,,,,,,,,,,,,,,,,,,,,,,,,,,,,,,,,,,,,,,,,,,,,,,,,,,,,,,,,,,,,,,,,,,,,,,,,,,,,,,
,,58d3bc1642648b0001f21ca4,2024-02-19_05h00.30.640,kallum_motion_pilot,2023.2.2,Win32,144.9275362,58d3bc1642648b0001f21ca4,65d2b6c8f2eece985d8e374c,65d2d24a21c52a3be0e5a486,0.0374,0.0374,0,123,123,18,1,twoone,,,,,,,,,,,,,,,,,,,,,,,,,,,,,,,,,,,,,,,,,,,,,,,,,,,,,,,,,,,,,,,,,,,,,,,,,,,,,,,,,,,,,,,,,,,,,,,,,,,,,,,,,,,,,,,,,,,,,,,,,,,,,,,,,,,,,,,,,
,,58d3bc1642648b0001f21ca4,2024-02-19_05h00.30.640,kallum_motion_pilot,2023.2.2,Win32,144.9275362,58d3bc1642648b0001f21ca4,65d2b6c8f2eece985d8e374c,65d2d24a21c52a3be0e5a486,0.0376,0.0376,0,124,124,122,1,sixfive,,,,,,,,,,,,,,,,,,,,,,,,,,,,,,,,,,,,,,,,,,,,,,,,,,,,,,,,,,,,,,,,,,,,,,,,,,,,,,,,,,,,,,,,,,,,,,,,,,,,,,,,,,,,,,,,,,,,,,,,,,,,,,,,,,,,,,,,,
,,58d3bc1642648b0001f21ca4,2024-02-19_05h00.30.640,kallum_motion_pilot,2023.2.2,Win32,144.9275362,58d3bc1642648b0001f21ca4,65d2b6c8f2eece985d8e374c,65d2d24a21c52a3be0e5a486,0.0377,0.0377,0,125,125,116,1,sevenfive,,,,,,,,,,,,,,,,,,,,,,,,,,,,,,,,,,,,,,,,,,,,,,,,,,,,,,,,,,,,,,,,,,,,,,,,,,,,,,,,,,,,,,,,,,,,,,,,,,,,,,,,,,,,,,,,,,,,,,,,,,,,,,,,,,,,,,,,,
,,58d3bc1642648b0001f21ca4,2024-02-19_05h00.30.640,kallum_motion_pilot,2023.2.2,Win32,144.9275362,58d3bc1642648b0001f21ca4,65d2b6c8f2eece985d8e374c,65d2d24a21c52a3be0e5a486,0.0379,0.0379,0,126,126,133,1,seveneight,,,,,,,,,,,,,,,,,,,,,,,,,,,,,,,,,,,,,,,,,,,,,,,,,,,,,,,,,,,,,,,,,,,,,,,,,,,,,,,,,,,,,,,,,,,,,,,,,,,,,,,,,,,,,,,,,,,,,,,,,,,,,,,,,,,,,,,,,
,,58d3bc1642648b0001f21ca4,2024-02-19_05h00.30.640,kallum_motion_pilot,2023.2.2,Win32,144.9275362,58d3bc1642648b0001f21ca4,65d2b6c8f2eece985d8e374c,65d2d24a21c52a3be0e5a486,0.038,0.0381,0,127,127,157,1,seveneight,,,,,,,,,,,,,,,,,,,,,,,,,,,,,,,,,,,,,,,,,,,,,,,,,,,,,,,,,,,,,,,,,,,,,,,,,,,,,,,,,,,,,,,,,,,,,,,,,,,,,,,,,,,,,,,,,,,,,,,,,,,,,,,,,,,,,,,,,
,,58d3bc1642648b0001f21ca4,2024-02-19_05h00.30.640,kallum_motion_pilot,2023.2.2,Win32,144.9275362,58d3bc1642648b0001f21ca4,65d2b6c8f2eece985d8e374c,65d2d24a21c52a3be0e5a486,0.0382,0.0382,0,128,128,161,1,fiveseven,,,,,,,,,,,,,,,,,,,,,,,,,,,,,,,,,,,,,,,,,,,,,,,,,,,,,,,,,,,,,,,,,,,,,,,,,,,,,,,,,,,,,,,,,,,,,,,,,,,,,,,,,,,,,,,,,,,,,,,,,,,,,,,,,,,,,,,,,
,,58d3bc1642648b0001f21ca4,2024-02-19_05h00.30.640,kallum_motion_pilot,2023.2.2,Win32,144.9275362,58d3bc1642648b0001f21ca4,65d2b6c8f2eece985d8e374c,65d2d24a21c52a3be0e5a486,0.0383,0.0383,0,129,129,137,1,fiveseven,,,,,,,,,,,,,,,,,,,,,,,,,,,,,,,,,,,,,,,,,,,,,,,,,,,,,,,,,,,,,,,,,,,,,,,,,,,,,,,,,,,,,,,,,,,,,,,,,,,,,,,,,,,,,,,,,,,,,,,,,,,,,,,,,,,,,,,,,
,,58d3bc1642648b0001f21ca4,2024-02-19_05h00.30.640,kallum_motion_pilot,2023.2.2,Win32,144.9275362,58d3bc1642648b0001f21ca4,65d2b6c8f2eece985d8e374c,65d2d24a21c52a3be0e5a486,0.0384,0.0385,0,130,130,99,1,sixeight,,,,,,,,,,,,,,,,,,,,,,,,,,,,,,,,,,,,,,,,,,,,,,,,,,,,,,,,,,,,,,,,,,,,,,,,,,,,,,,,,,,,,,,,,,,,,,,,,,,,,,,,,,,,,,,,,,,,,,,,,,,,,,,,,,,,,,,,,
,,58d3bc1642648b0001f21ca4,2024-02-19_05h00.30.640,kallum_motion_pilot,2023.2.2,Win32,144.9275362,58d3bc1642648b0001f21ca4,65d2b6c8f2eece985d8e374c,65d2d24a21c52a3be0e5a486,0.0386,0.0386,0,131,131,12,1,threeone,,,,,,,,,,,,,,,,,,,,,,,,,,,,,,,,,,,,,,,,,,,,,,,,,,,,,,,,,,,,,,,,,,,,,,,,,,,,,,,,,,,,,,,,,,,,,,,,,,,,,,,,,,,,,,,,,,,,,,,,,,,,,,,,,,,,,,,,,
,,58d3bc1642648b0001f21ca4,2024-02-19_05h00.30.640,kallum_motion_pilot,2023.2.2,Win32,144.9275362,58d3bc1642648b0001f21ca4,65d2b6c8f2eece985d8e374c,65d2d24a21c52a3be0e5a486,0.0387,0.0388,0,132,132,28,1,threeone,,,,,,,,,,,,,,,,,,,,,,,,,,,,,,,,,,,,,,,,,,,,,,,,,,,,,,,,,,,,,,,,,,,,,,,,,,,,,,,,,,,,,,,,,,,,,,,,,,,,,,,,,,,,,,,,,,,,,,,,,,,,,,,,,,,,,,,,,
,,58d3bc1642648b0001f21ca4,2024-02-19_05h00.30.640,kallum_motion_pilot,2023.2.2,Win32,144.9275362,58d3bc1642648b0001f21ca4,65d2b6c8f2eece985d8e374c,65d2d24a21c52a3be0e5a486,0.0388,0.0389,0,133,133,143,1,eightseven,,,,,,,,,,,,,,,,,,,,,,,,,,,,,,,,,,,,,,,,,,,,,,,,,,,,,,,,,,,,,,,,,,,,,,,,,,,,,,,,,,,,,,,,,,,,,,,,,,,,,,,,,,,,,,,,,,,,,,,,,,,,,,,,,,,,,,,,,
,,58d3bc1642648b0001f21ca4,2024-02-19_05h00.30.640,kallum_motion_pilot,2023.2.2,Win32,144.9275362,58d3bc1642648b0001f21ca4,65d2b6c8f2eece985d8e374c,65d2d24a21c52a3be0e5a486,0.0389,0.039,0,134,134,26,1,twoone,,,,,,,,,,,,,,,,,,,,,,,,,,,,,,,,,,,,,,,,,,,,,,,,,,,,,,,,,,,,,,,,,,,,,,,,,,,,,,,,,,,,,,,,,,,,,,,,,,,,,,,,,,,,,,,,,,,,,,,,,,,,,,,,,,,,,,,,,
,,58d3bc1642648b0001f21ca4,2024-02-19_05h00.30.640,kallum_motion_pilot,2023.2.2,Win32,144.9275362,58d3bc1642648b0001f21ca4,65d2b6c8f2eece985d8e374c,65d2d24a21c52a3be0e5a486,0.0391,0.0391,0,135,135,56,1,onetwo,,,,,,,,,,,,,,,,,,,,,,,,,,,,,,,,,,,,,,,,,,,,,,,,,,,,,,,,,,,,,,,,,,,,,,,,,,,,,,,,,,,,,,,,,,,,,,,,,,,,,,,,,,,,,,,,,,,,,,,,,,,,,,,,,,,,,,,,,
,,58d3bc1642648b0001f21ca4,2024-02-19_05h00.30.640,kallum_motion_pilot,2023.2.2,Win32,144.9275362,58d3bc1642648b0001f21ca4,65d2b6c8f2eece985d8e374c,65d2d24a21c52a3be0e5a486,0.0392,0.0393,0,136,136,90,1,sixfive,,,,,,,,,,,,,,,,,,,,,,,,,,,,,,,,,,,,,,,,,,,,,,,,,,,,,,,,,,,,,,,,,,,,,,,,,,,,,,,,,,,,,,,,,,,,,,,,,,,,,,,,,,,,,,,,,,,,,,,,,,,,,,,,,,,,,,,,,
,,58d3bc1642648b0001f21ca4,2024-02-19_05h00.30.640,kallum_motion_pilot,2023.2.2,Win32,144.9275362,58d3bc1642648b0001f21ca4,65d2b6c8f2eece985d8e374c,65d2d24a21c52a3be0e5a486,0.0393,0.0393,0,137,137,152,1,fivesix,,,,,,,,,,,,,,,,,,,,,,,,,,,,,,,,,,,,,,,,,,,,,,,,,,,,,,,,,,,,,,,,,,,,,,,,,,,,,,,,,,,,,,,,,,,,,,,,,,,,,,,,,,,,,,,,,,,,,,,,,,,,,,,,,,,,,,,,,
,,58d3bc1642648b0001f21ca4,2024-02-19_05h00.30.640,kallum_motion_pilot,2023.2.2,Win32,144.9275362,58d3bc1642648b0001f21ca4,65d2b6c8f2eece985d8e374c,65d2d24a21c52a3be0e5a486,0.0394,0.0395,0,138,138,88,1,fivesix,,,,,,,,,,,,,,,,,,,,,,,,,,,,,,,,,,,,,,,,,,,,,,,,,,,,,,,,,,,,,,,,,,,,,,,,,,,,,,,,,,,,,,,,,,,,,,,,,,,,,,,,,,,,,,,,,,,,,,,,,,,,,,,,,,,,,,,,,
,,58d3bc1642648b0001f21ca4,2024-02-19_05h00.30.640,kallum_motion_pilot,2023.2.2,Win32,144.9275362,58d3bc1642648b0001f21ca4,65d2b6c8f2eece985d8e374c,65d2d24a21c52a3be0e5a486,0.0403,0.0404,0,139,139,92,1,sevenfive,,,,,,,,,,,,,,,,,,,,,,,,,,,,,,,,,,,,,,,,,,,,,,,,,,,,,,,,,,,,,,,,,,,,,,,,,,,,,,,,,,,,,,,,,,,,,,,,,,,,,,,,,,,,,,,,,,,,,,,,,,,,,,,,,,,,,,,,,
,,58d3bc1642648b0001f21ca4,2024-02-19_05h00.30.640,kallum_motion_pilot,2023.2.2,Win32,144.9275362,58d3bc1642648b0001f21ca4,65d2b6c8f2eece985d8e374c,65d2d24a21c52a3be0e5a486,0.0405,0.0405,0,140,140,59,1,twofour,,,,,,,,,,,,,,,,,,,,,,,,,,,,,,,,,,,,,,,,,,,,,,,,,,,,,,,,,,,,,,,,,,,,,,,,,,,,,,,,,,,,,,,,,,,,,,,,,,,,,,,,,,,,,,,,,,,,,,,,,,,,,,,,,,,,,,,,,
,,58d3bc1642648b0001f21ca4,2024-02-19_05h00.30.640,kallum_motion_pilot,2023.2.2,Win32,144.9275362,58d3bc1642648b0001f21ca4,65d2b6c8f2eece985d8e374c,65d2d24a21c52a3be0e5a486,0.0406,0.0406,0,141,141,33,1,onethree,,,,,,,,,,,,,,,,,,,,,,,,,,,,,,,,,,,,,,,,,,,,,,,,,,,,,,,,,,,,,,,,,,,,,,,,,,,,,,,,,,,,,,,,,,,,,,,,,,,,,,,,,,,,,,,,,,,,,,,,,,,,,,,,,,,,,,,,,
,,58d3bc1642648b0001f21ca4,2024-02-19_05h00.30.640,kallum_motion_pilot,2023.2.2,Win32,144.9275362,58d3bc1642648b0001f21ca4,65d2b6c8f2eece985d8e374c,65d2d24a21c52a3be0e5a486,0.0407,0.0407,0,142,142,76,1,threeone,,,,,,,,,,,,,,,,,,,,,,,,,,,,,,,,,,,,,,,,,,,,,,,,,,,,,,,,,,,,,,,,,,,,,,,,,,,,,,,,,,,,,,,,,,,,,,,,,,,,,,,,,,,,,,,,,,,,,,,,,,,,,,,,,,,,,,,,,
,,58d3bc1642648b0001f21ca4,2024-02-19_05h00.30.640,kallum_motion_pilot,2023.2.2,Win32,144.9275362,58d3bc1642648b0001f21ca4,65d2b6c8f2eece985d8e374c,65d2d24a21c52a3be0e5a486,0.0408,0.0409,0,143,143,80,1,fivesix,,,,,,,,,,,,,,,,,,,,,,,,,,,,,,,,,,,,,,,,,,,,,,,,,,,,,,,,,,,,,,,,,,,,,,,,,,,,,,,,,,,,,,,,,,,,,,,,,,,,,,,,,,,,,,,,,,,,,,,,,,,,,,,,,,,,,,,,,
,,58d3bc1642648b0001f21ca4,2024-02-19_05h00.30.640,kallum_motion_pilot,2023.2.2,Win32,144.9275362,58d3bc1642648b0001f21ca4,65d2b6c8f2eece985d8e374c,65d2d24a21c52a3be0e5a486,0.041,0.0411,0,144,144,110,1,eightsix,,,,,,,,,,,,,,,,,,,,,,,,,,,,,,,,,,,,,,,,,,,,,,,,,,,,,,,,,,,,,,,,,,,,,,,,,,,,,,,,,,,,,,,,,,,,,,,,,,,,,,,,,,,,,,,,,,,,,,,,,,,,,,,,,,,,,,,,,
,,58d3bc1642648b0001f21ca4,2024-02-19_05h00.30.640,kallum_motion_pilot,2023.2.2,Win32,144.9275362,58d3bc1642648b0001f21ca4,65d2b6c8f2eece985d8e374c,65d2d24a21c52a3be0e5a486,0.0412,0.0412,0,145,145,48,1,onetwo,,,,,,,,,,,,,,,,,,,,,,,,,,,,,,,,,,,,,,,,,,,,,,,,,,,,,,,,,,,,,,,,,,,,,,,,,,,,,,,,,,,,,,,,,,,,,,,,,,,,,,,,,,,,,,,,,,,,,,,,,,,,,,,,,,,,,,,,,
,,58d3bc1642648b0001f21ca4,2024-02-19_05h00.30.640,kallum_motion_pilot,2023.2.2,Win32,144.9275362,58d3bc1642648b0001f21ca4,65d2b6c8f2eece985d8e374c,65d2d24a21c52a3be0e5a486,0.0413,0.0413,0,146,146,113,1,fiveseven,,,,,,,,,,,,,,,,,,,,,,,,,,,,,,,,,,,,,,,,,,,,,,,,,,,,,,,,,,,,,,,,,,,,,,,,,,,,,,,,,,,,,,,,,,,,,,,,,,,,,,,,,,,,,,,,,,,,,,,,,,,,,,,,,,,,,,,,,
,,58d3bc1642648b0001f21ca4,2024-02-19_05h00.30.640,kallum_motion_pilot,2023.2.2,Win32,144.9275362,58d3bc1642648b0001f21ca4,65d2b6c8f2eece985d8e374c,65d2d24a21c52a3be0e5a486,0.0414,0.0414,0,147,147,34,1,twoone,,,,,,,,,,,,,,,,,,,,,,,,,,,,,,,,,,,,,,,,,,,,,,,,,,,,,,,,,,,,,,,,,,,,,,,,,,,,,,,,,,,,,,,,,,,,,,,,,,,,,,,,,,,,,,,,,,,,,,,,,,,,,,,,,,,,,,,,,
,,58d3bc1642648b0001f21ca4,2024-02-19_05h00.30.640,kallum_motion_pilot,2023.2.2,Win32,144.9275362,58d3bc1642648b0001f21ca4,65d2b6c8f2eece985d8e374c,65d2d24a21c52a3be0e5a486,0.0415,0.0416,0,148,148,100,1,sevenfive,,,,,,,,,,,,,,,,,,,,,,,,,,,,,,,,,,,,,,,,,,,,,,,,,,,,,,,,,,,,,,,,,,,,,,,,,,,,,,,,,,,,,,,,,,,,,,,,,,,,,,,,,,,,,,,,,,,,,,,,,,,,,,,,,,,,,,,,,
,,58d3bc1642648b0001f21ca4,2024-02-19_05h00.30.640,kallum_motion_pilot,2023.2.2,Win32,144.9275362,58d3bc1642648b0001f21ca4,65d2b6c8f2eece985d8e374c,65d2d24a21c52a3be0e5a486,0.0417,0.0417,0,149,149,77,1,threefour,,,,,,,,,,,,,,,,,,,,,,,,,,,,,,,,,,,,,,,,,,,,,,,,,,,,,,,,,,,,,,,,,,,,,,,,,,,,,,,,,,,,,,,,,,,,,,,,,,,,,,,,,,,,,,,,,,,,,,,,,,,,,,,,,,,,,,,,,
,,58d3bc1642648b0001f21ca4,2024-02-19_05h00.30.640,kallum_motion_pilot,2023.2.2,Win32,144.9275362,58d3bc1642648b0001f21ca4,65d2b6c8f2eece985d8e374c,65d2d24a21c52a3be0e5a486,0.0418,0.0419,0,150,150,150,1,eightsix,,,,,,,,,,,,,,,,,,,,,,,,,,,,,,,,,,,,,,,,,,,,,,,,,,,,,,,,,,,,,,,,,,,,,,,,,,,,,,,,,,,,,,,,,,,,,,,,,,,,,,,,,,,,,,,,,,,,,,,,,,,,,,,,,,,,,,,,,
,,58d3bc1642648b0001f21ca4,2024-02-19_05h00.30.640,kallum_motion_pilot,2023.2.2,Win32,144.9275362,58d3bc1642648b0001f21ca4,65d2b6c8f2eece985d8e374c,65d2d24a21c52a3be0e5a486,0.0419,0.0419,0,151,151,53,1,threefour,,,,,,,,,,,,,,,,,,,,,,,,,,,,,,,,,,,,,,,,,,,,,,,,,,,,,,,,,,,,,,,,,,,,,,,,,,,,,,,,,,,,,,,,,,,,,,,,,,,,,,,,,,,,,,,,,,,,,,,,,,,,,,,,,,,,,,,,,
,,58d3bc1642648b0001f21ca4,2024-02-19_05h00.30.640,kallum_motion_pilot,2023.2.2,Win32,144.9275362,58d3bc1642648b0001f21ca4,65d2b6c8f2eece985d8e374c,65d2d24a21c52a3be0e5a486,0.0421,0.0421,0,152,152,63,1,fourthree,,,,,,,,,,,,,,,,,,,,,,,,,,,,,,,,,,,,,,,,,,,,,,,,,,,,,,,,,,,,,,,,,,,,,,,,,,,,,,,,,,,,,,,,,,,,,,,,,,,,,,,,,,,,,,,,,,,,,,,,,,,,,,,,,,,,,,,,,
,,58d3bc1642648b0001f21ca4,2024-02-19_05h00.30.640,kallum_motion_pilot,2023.2.2,Win32,144.9275362,58d3bc1642648b0001f21ca4,65d2b6c8f2eece985d8e374c,65d2d24a21c52a3be0e5a486,0.0422,0.0422,0,153,153,65,1,onethree,,,,,,,,,,,,,,,,,,,,,,,,,,,,,,,,,,,,,,,,,,,,,,,,,,,,,,,,,,,,,,,,,,,,,,,,,,,,,,,,,,,,,,,,,,,,,,,,,,,,,,,,,,,,,,,,,,,,,,,,,,,,,,,,,,,,,,,,,
,,58d3bc1642648b0001f21ca4,2024-02-19_05h00.30.640,kallum_motion_pilot,2023.2.2,Win32,144.9275362,58d3bc1642648b0001f21ca4,65d2b6c8f2eece985d8e374c,65d2d24a21c52a3be0e5a486,0.0423,0.0423,0,154,154,69,1,threefour,,,,,,,,,,,,,,,,,,,,,,,,,,,,,,,,,,,,,,,,,,,,,,,,,,,,,,,,,,,,,,,,,,,,,,,,,,,,,,,,,,,,,,,,,,,,,,,,,,,,,,,,,,,,,,,,,,,,,,,,,,,,,,,,,,,,,,,,,
,,58d3bc1642648b0001f21ca4,2024-02-19_05h00.30.640,kallum_motion_pilot,2023.2.2,Win32,144.9275362,58d3bc1642648b0001f21ca4,65d2b6c8f2eece985d8e374c,65d2d24a21c52a3be0e5a486,0.0424,0.0424,0,155,155,30,1,fourtwo,,,,,,,,,,,,,,,,,,,,,,,,,,,,,,,,,,,,,,,,,,,,,,,,,,,,,,,,,,,,,,,,,,,,,,,,,,,,,,,,,,,,,,,,,,,,,,,,,,,,,,,,,,,,,,,,,,,,,,,,,,,,,,,,,,,,,,,,,
,,58d3bc1642648b0001f21ca4,2024-02-19_05h00.30.640,kallum_motion_pilot,2023.2.2,Win32,144.9275362,58d3bc1642648b0001f21ca4,65d2b6c8f2eece985d8e374c,65d2d24a21c52a3be0e5a486,0.0426,0.0426,0,156,156,97,1,fiveseven,,,,,,,,,,,,,,,,,,,,,,,,,,,,,,,,,,,,,,,,,,,,,,,,,,,,,,,,,,,,,,,,,,,,,,,,,,,,,,,,,,,,,,,,,,,,,,,,,,,,,,,,,,,,,,,,,,,,,,,,,,,,,,,,,,,,,,,,,
,,58d3bc1642648b0001f21ca4,2024-02-19_05h00.30.640,kallum_motion_pilot,2023.2.2,Win32,144.9275362,58d3bc1642648b0001f21ca4,65d2b6c8f2eece985d8e374c,65d2d24a21c52a3be0e5a486,0.0427,0.0427,0,157,157,82,1,sixfive,,,,,,,,,,,,,,,,,,,,,,,,,,,,,,,,,,,,,,,,,,,,,,,,,,,,,,,,,,,,,,,,,,,,,,,,,,,,,,,,,,,,,,,,,,,,,,,,,,,,,,,,,,,,,,,,,,,,,,,,,,,,,,,,,,,,,,,,,
,,58d3bc1642648b0001f21ca4,2024-02-19_05h00.30.640,kallum_motion_pilot,2023.2.2,Win32,144.9275362,58d3bc1642648b0001f21ca4,65d2b6c8f2eece985d8e374c,65d2d24a21c52a3be0e5a486,0.0428,0.0428,0,158,158,39,1,fourthree,,,,,,,,,,,,,,,,,,,,,,,,,,,,,,,,,,,,,,,,,,,,,,,,,,,,,,,,,,,,,,,,,,,,,,,,,,,,,,,,,,,,,,,,,,,,,,,,,,,,,,,,,,,,,,,,,,,,,,,,,,,,,,,,,,,,,,,,,
,,58d3bc1642648b0001f21ca4,2024-02-19_05h00.30.640,kallum_motion_pilot,2023.2.2,Win32,144.9275362,58d3bc1642648b0001f21ca4,65d2b6c8f2eece985d8e374c,65d2d24a21c52a3be0e5a486,0.0429,0.043,0,159,159,119,1,eightseven,,,,,,,,,,,,,,,,,,,,,,,,,,,,,,,,,,,,,,,,,,,,,,,,,,,,,,,,,,,,,,,,,,,,,,,,,,,,,,,,,,,,,,,,,,,,,,,,,,,,,,,,,,,,,,,,,,,,,,,,,,,,,,,,,,,,,,,,,
,,58d3bc1642648b0001f21ca4,2024-02-19_05h00.30.640,kallum_motion_pilot,2023.2.2,Win32,144.9275362,58d3bc1642648b0001f21ca4,65d2b6c8f2eece985d8e374c,65d2d24a21c52a3be0e5a486,0.043,0.0431,0,160,160,156,1,sevenfive,,,,,,,,,,,,,,,,,,,,,,,,,,,,,,,,,,,,,,,,,,,,,,,,,,,,,,,,,,,,,,,,,,,,,,,,,,,,,,,,,,,,,,,,,,,,,,,,,,,,,,,,,,,,,,,,,,,,,,,,,,,,,,,,,,,,,,,,,
,,58d3bc1642648b0001f21ca4,2024-02-19_05h00.30.640,kallum_motion_pilot,2023.2.2,Win32,144.9275362,58d3bc1642648b0001f21ca4,65d2b6c8f2eece985d8e374c,65d2d24a21c52a3be0e5a486,0.0432,0.0433,0,161,161,50,1,twoone,,,,,,,,,,,,,,,,,,,,,,,,,,,,,,,,,,,,,,,,,,,,,,,,,,,,,,,,,,,,,,,,,,,,,,,,,,,,,,,,,,,,,,,,,,,,,,,,,,,,,,,,,,,,,,,,,,,,,,,,,,,,,,,,,,,,,,,,,
,,58d3bc1642648b0001f21ca4,2024-02-19_05h00.30.640,kallum_motion_pilot,2023.2.2,Win32,144.9275362,58d3bc1642648b0001f21ca4,65d2b6c8f2eece985d8e374c,65d2d24a21c52a3be0e5a486,0.0433,0.0434,1,0,162,114,1,sixfive,,,,,,,,,,,,,,,,,,,,,,,,,,,,,,,,,,,,,,,,,,,,,,,,,,,,,,,,,,,,,,,,,,,,,,,,,,,,,,,,,,,,,,,,,,,,,,,,,,,,,,,,,,,,,,,,,,,,,,,,,,,,,,,,,,,,,,,,,
,,58d3bc1642648b0001f21ca4,2024-02-19_05h00.30.640,kallum_motion_pilot,2023.2.2,Win32,144.9275362,58d3bc1642648b0001f21ca4,65d2b6c8f2eece985d8e374c,65d2d24a21c52a3be0e5a486,0.0434,0.0434,1,1,163,146,1,sixfive,,,,,,,,,,,,,,,,,,,,,,,,,,,,,,,,,,,,,,,,,,,,,,,,,,,,,,,,,,,,,,,,,,,,,,,,,,,,,,,,,,,,,,,,,,,,,,,,,,,,,,,,,,,,,,,,,,,,,,,,,,,,,,,,,,,,,,,,,
,,58d3bc1642648b0001f21ca4,2024-02-19_05h00.30.640,kallum_motion_pilot,2023.2.2,Win32,144.9275362,58d3bc1642648b0001f21ca4,65d2b6c8f2eece985d8e374c,65d2d24a21c52a3be0e5a486,0.0436,0.0437,1,2,164,129,1,fiveseven,,,,,,,,,,,,,,,,,,,,,,,,,,,,,,,,,,,,,,,,,,,,,,,,,,,,,,,,,,,,,,,,,,,,,,,,,,,,,,,,,,,,,,,,,,,,,,,,,,,,,,,,,,,,,,,,,,,,,,,,,,,,,,,,,,,,,,,,,
,,58d3bc1642648b0001f21ca4,2024-02-19_05h00.30.640,kallum_motion_pilot,2023.2.2,Win32,144.9275362,58d3bc1642648b0001f21ca4,65d2b6c8f2eece985d8e374c,65d2d24a21c52a3be0e5a486,0.0437,0.0438,1,3,165,33,1,onethree,,,,,,,,,,,,,,,,,,,,,,,,,,,,,,,,,,,,,,,,,,,,,,,,,,,,,,,,,,,,,,,,,,,,,,,,,,,,,,,,,,,,,,,,,,,,,,,,,,,,,,,,,,,,,,,,,,,,,,,,,,,,,,,,,,,,,,,,,
,,58d3bc1642648b0001f21ca4,2024-02-19_05h00.30.640,kallum_motion_pilot,2023.2.2,Win32,144.9275362,58d3bc1642648b0001f21ca4,65d2b6c8f2eece985d8e374c,65d2d24a21c52a3be0e5a486,0.0439,0.0439,1,4,166,64,1,onetwo,,,,,,,,,,,,,,,,,,,,,,,,,,,,,,,,,,,,,,,,,,,,,,,,,,,,,,,,,,,,,,,,,,,,,,,,,,,,,,,,,,,,,,,,,,,,,,,,,,,,,,,,,,,,,,,,,,,,,,,,,,,,,,,,,,,,,,,,,
,,58d3bc1642648b0001f21ca4,2024-02-19_05h00.30.640,kallum_motion_pilot,2023.2.2,Win32,144.9275362,58d3bc1642648b0001f21ca4,65d2b6c8f2eece985d8e374c,65d2d24a21c52a3be0e5a486,0.044,0.0441,1,5,167,99,1,sixeight,,,,,,,,,,,,,,,,,,,,,,,,,,,,,,,,,,,,,,,,,,,,,,,,,,,,,,,,,,,,,,,,,,,,,,,,,,,,,,,,,,,,,,,,,,,,,,,,,,,,,,,,,,,,,,,,,,,,,,,,,,,,,,,,,,,,,,,,,
,,58d3bc1642648b0001f21ca4,2024-02-19_05h00.30.640,kallum_motion_pilot,2023.2.2,Win32,144.9275362,58d3bc1642648b0001f21ca4,65d2b6c8f2eece985d8e374c,65d2d24a21c52a3be0e5a486,0.0442,0.0442,1,6,168,149,1,seveneight,,,,,,,,,,,,,,,,,,,,,,,,,,,,,,,,,,,,,,,,,,,,,,,,,,,,,,,,,,,,,,,,,,,,,,,,,,,,,,,,,,,,,,,,,,,,,,,,,,,,,,,,,,,,,,,,,,,,,,,,,,,,,,,,,,,,,,,,,
,,58d3bc1642648b0001f21ca4,2024-02-19_05h00.30.640,kallum_motion_pilot,2023.2.2,Win32,144.9275362,58d3bc1642648b0001f21ca4,65d2b6c8f2eece985d8e374c,65d2d24a21c52a3be0e5a486,0.0443,0.0443,1,7,169,139,1,sixeight,,,,,,,,,,,,,,,,,,,,,,,,,,,,,,,,,,,,,,,,,,,,,,,,,,,,,,,,,,,,,,,,,,,,,,,,,,,,,,,,,,,,,,,,,,,,,,,,,,,,,,,,,,,,,,,,,,,,,,,,,,,,,,,,,,,,,,,,,
,,58d3bc1642648b0001f21ca4,2024-02-19_05h00.30.640,kallum_motion_pilot,2023.2.2,Win32,144.9275362,58d3bc1642648b0001f21ca4,65d2b6c8f2eece985d8e374c,65d2d24a21c52a3be0e5a486,0.0444,0.0445,1,8,170,48,1,onetwo,,,,,,,,,,,,,,,,,,,,,,,,,,,,,,,,,,,,,,,,,,,,,,,,,,,,,,,,,,,,,,,,,,,,,,,,,,,,,,,,,,,,,,,,,,,,,,,,,,,,,,,,,,,,,,,,,,,,,,,,,,,,,,,,,,,,,,,,,
,,58d3bc1642648b0001f21ca4,2024-02-19_05h00.30.640,kallum_motion_pilot,2023.2.2,Win32,144.9275362,58d3bc1642648b0001f21ca4,65d2b6c8f2eece985d8e374c,65d2d24a21c52a3be0e5a486,0.0445,0.0446,1,9,171,102,1,eightsix,,,,,,,,,,,,,,,,,,,,,,,,,,,,,,,,,,,,,,,,,,,,,,,,,,,,,,,,,,,,,,,,,,,,,,,,,,,,,,,,,,,,,,,,,,,,,,,,,,,,,,,,,,,,,,,,,,,,,,,,,,,,,,,,,,,,,,,,,
,,58d3bc1642648b0001f21ca4,2024-02-19_05h00.30.640,kallum_motion_pilot,2023.2.2,Win32,144.9275362,58d3bc1642648b0001f21ca4,65d2b6c8f2eece985d8e374c,65d2d24a21c52a3be0e5a486,0.0446,0.0447,1,10,172,46,1,fourtwo,,,,,,,,,,,,,,,,,,,,,,,,,,,,,,,,,,,,,,,,,,,,,,,,,,,,,,,,,,,,,,,,,,,,,,,,,,,,,,,,,,,,,,,,,,,,,,,,,,,,,,,,,,,,,,,,,,,,,,,,,,,,,,,,,,,,,,,,,
,,58d3bc1642648b0001f21ca4,2024-02-19_05h00.30.640,kallum_motion_pilot,2023.2.2,Win32,144.9275362,58d3bc1642648b0001f21ca4,65d2b6c8f2eece985d8e374c,65d2d24a21c52a3be0e5a486,0.0447,0.0449,1,11,173,141,1,seveneight,,,,,,,,,,,,,,,,,,,,,,,,,,,,,,,,,,,,,,,,,,,,,,,,,,,,,,,,,,,,,,,,,,,,,,,,,,,,,,,,,,,,,,,,,,,,,,,,,,,,,,,,,,,,,,,,,,,,,,,,,,,,,,,,,,,,,,,,,
,,58d3bc1642648b0001f21ca4,2024-02-19_05h00.30.640,kallum_motion_pilot,2023.2.2,Win32,144.9275362,58d3bc1642648b0001f21ca4,65d2b6c8f2eece985d8e374c,65d2d24a21c52a3be0e5a486,0.0449,0.0449,1,12,174,157,1,seveneight,,,,,,,,,,,,,,,,,,,,,,,,,,,,,,,,,,,,,,,,,,,,,,,,,,,,,,,,,,,,,,,,,,,,,,,,,,,,,,,,,,,,,,,,,,,,,,,,,,,,,,,,,,,,,,,,,,,,,,,,,,,,,,,,,,,,,,,,,
,,58d3bc1642648b0001f21ca4,2024-02-19_05h00.30.640,kallum_motion_pilot,2023.2.2,Win32,144.9275362,58d3bc1642648b0001f21ca4,65d2b6c8f2eece985d8e374c,65d2d24a21c52a3be0e5a486,0.045,0.0451,1,13,175,127,1,eightseven,,,,,,,,,,,,,,,,,,,,,,,,,,,,,,,,,,,,,,,,,,,,,,,,,,,,,,,,,,,,,,,,,,,,,,,,,,,,,,,,,,,,,,,,,,,,,,,,,,,,,,,,,,,,,,,,,,,,,,,,,,,,,,,,,,,,,,,,,
,,58d3bc1642648b0001f21ca4,2024-02-19_05h00.30.640,kallum_motion_pilot,2023.2.2,Win32,144.9275362,58d3bc1642648b0001f21ca4,65d2b6c8f2eece985d8e374c,65d2d24a21c52a3be0e5a486,0.0452,0.0452,1,14,176,17,1,onethree,,,,,,,,,,,,,,,,,,,,,,,,,,,,,,,,,,,,,,,,,,,,,,,,,,,,,,,,,,,,,,,,,,,,,,,,,,,,,,,,,,,,,,,,,,,,,,,,,,,,,,,,,,,,,,,,,,,,,,,,,,,,,,,,,,,,,,,,,
,,58d3bc1642648b0001f21ca4,2024-02-19_05h00.30.640,kallum_motion_pilot,2023.2.2,Win32,144.9275362,58d3bc1642648b0001f21ca4,65d2b6c8f2eece985d8e374c,65d2d24a21c52a3be0e5a486,0.0453,0.0453,1,15,177,161,1,fiveseven,,,,,,,,,,,,,,,,,,,,,,,,,,,,,,,,,,,,,,,,,,,,,,,,,,,,,,,,,,,,,,,,,,,,,,,,,,,,,,,,,,,,,,,,,,,,,,,,,,,,,,,,,,,,,,,,,,,,,,,,,,,,,,,,,,,,,,,,,
,,58d3bc1642648b0001f21ca4,2024-02-19_05h00.30.640,kallum_motion_pilot,2023.2.2,Win32,144.9275362,58d3bc1642648b0001f21ca4,65d2b6c8f2eece985d8e374c,65d2d24a21c52a3be0e5a486,0.0454,0.0455,1,16,178,85,1,seveneight,,,,,,,,,,,,,,,,,,,,,,,,,,,,,,,,,,,,,,,,,,,,,,,,,,,,,,,,,,,,,,,,,,,,,,,,,,,,,,,,,,,,,,,,,,,,,,,,,,,,,,,,,,,,,,,,,,,,,,,,,,,,,,,,,,,,,,,,,
,,58d3bc1642648b0001f21ca4,2024-02-19_05h00.30.640,kallum_motion_pilot,2023.2.2,Win32,144.9275362,58d3bc1642648b0001f21ca4,65d2b6c8f2eece985d8e374c,65d2d24a21c52a3be0e5a486,0.0455,0.0456,1,17,179,142,1,eightsix,,,,,,,,,,,,,,,,,,,,,,,,,,,,,,,,,,,,,,,,,,,,,,,,,,,,,,,,,,,,,,,,,,,,,,,,,,,,,,,,,,,,,,,,,,,,,,,,,,,,,,,,,,,,,,,,,,,,,,,,,,,,,,,,,,,,,,,,,
,,58d3bc1642648b0001f21ca4,2024-02-19_05h00.30.640,kallum_motion_pilot,2023.2.2,Win32,144.9275362,58d3bc1642648b0001f21ca4,65d2b6c8f2eece985d8e374c,65d2d24a21c52a3be0e5a486,0.0457,0.0457,1,18,180,5,1,threefour,,,,,,,,,,,,,,,,,,,,,,,,,,,,,,,,,,,,,,,,,,,,,,,,,,,,,,,,,,,,,,,,,,,,,,,,,,,,,,,,,,,,,,,,,,,,,,,,,,,,,,,,,,,,,,,,,,,,,,,,,,,,,,,,,,,,,,,,,
,,58d3bc1642648b0001f21ca4,2024-02-19_05h00.30.640,kallum_motion_pilot,2023.2.2,Win32,144.9275362,58d3bc1642648b0001f21ca4,65d2b6c8f2eece985d8e374c,65d2d24a21c52a3be0e5a486,0.0458,0.0459,1,19,181,35,1,twofour,,,,,,,,,,,,,,,,,,,,,,,,,,,,,,,,,,,,,,,,,,,,,,,,,,,,,,,,,,,,,,,,,,,,,,,,,,,,,,,,,,,,,,,,,,,,,,,,,,,,,,,,,,,,,,,,,,,,,,,,,,,,,,,,,,,,,,,,,
,,58d3bc1642648b0001f21ca4,2024-02-19_05h00.30.640,kallum_motion_pilot,2023.2.2,Win32,144.9275362,58d3bc1642648b0001f21ca4,65d2b6c8f2eece985d8e374c,65d2d24a21c52a3be0e5a486,0.046,0.0461,1,20,182,67,1,twofour,,,,,,,,,,,,,,,,,,,,,,,,,,,,,,,,,,,,,,,,,,,,,,,,,,,,,,,,,,,,,,,,,,,,,,,,,,,,,,,,,,,,,,,,,,,,,,,,,,,,,,,,,,,,,,,,,,,,,,,,,,,,,,,,,,,,,,,,,
,,58d3bc1642648b0001f21ca4,2024-02-19_05h00.30.640,kallum_motion_pilot,2023.2.2,Win32,144.9275362,58d3bc1642648b0001f21ca4,65d2b6c8f2eece985d8e374c,65d2d24a21c52a3be0e5a486,0.0461,0.0462,1,21,183,12,1,threeone,,,,,,,,,,,,,,,,,,,,,,,,,,,,,,,,,,,,,,,,,,,,,,,,,,,,,,,,,,,,,,,,,,,,,,,,,,,,,,,,,,,,,,,,,,,,,,,,,,,,,,,,,,,,,,,,,,,,,,,,,,,,,,,,,,,,,,,,,
,,58d3bc1642648b0001f21ca4,2024-02-19_05h00.30.640,kallum_motion_pilot,2023.2.2,Win32,144.9275362,58d3bc1642648b0001f21ca4,65d2b6c8f2eece985d8e374c,65d2d24a21c52a3be0e5a486,0.0462,0.0463,1,22,184,113,1,fiveseven,,,,,,,,,,,,,,,,,,,,,,,,,,,,,,,,,,,,,,,,,,,,,,,,,,,,,,,,,,,,,,,,,,,,,,,,,,,,,,,,,,,,,,,,,,,,,,,,,,,,,,,,,,,,,,,,,,,,,,,,,,,,,,,,,,,,,,,,,
,,58d3bc1642648b0001f21ca4,2024-02-19_05h00.30.640,kallum_motion_pilot,2023.2.2,Win32,144.9275362,58d3bc1642648b0001f21ca4,65d2b6c8f2eece985d8e374c,65d2d24a21c52a3be0e5a486,0.0464,0.0464,1,23,185,6,1,fourtwo,,,,,,,,,,,,,,,,,,,,,,,,,,,,,,,,,,,,,,,,,,,,,,,,,,,,,,,,,,,,,,,,,,,,,,,,,,,,,,,,,,,,,,,,,,,,,,,,,,,,,,,,,,,,,,,,,,,,,,,,,,,,,,,,,,,,,,,,,
,,58d3bc1642648b0001f21ca4,2024-02-19_05h00.30.640,kallum_motion_pilot,2023.2.2,Win32,144.9275362,58d3bc1642648b0001f21ca4,65d2b6c8f2eece985d8e374c,65d2d24a21c52a3be0e5a486,0.0465,0.0466,1,24,186,44,1,threeone,,,,,,,,,,,,,,,,,,,,,,,,,,,,,,,,,,,,,,,,,,,,,,,,,,,,,,,,,,,,,,,,,,,,,,,,,,,,,,,,,,,,,,,,,,,,,,,,,,,,,,,,,,,,,,,,,,,,,,,,,,,,,,,,,,,,,,,,,
,,58d3bc1642648b0001f21ca4,2024-02-19_05h00.30.640,kallum_motion_pilot,2023.2.2,Win32,144.9275362,58d3bc1642648b0001f21ca4,65d2b6c8f2eece985d8e374c,65d2d24a21c52a3be0e5a486,0.0467,0.0467,1,25,187,78,1,fourtwo,,,,,,,,,,,,,,,,,,,,,,,,,,,,,,,,,,,,,,,,,,,,,,,,,,,,,,,,,,,,,,,,,,,,,,,,,,,,,,,,,,,,,,,,,,,,,,,,,,,,,,,,,,,,,,,,,,,,,,,,,,,,,,,,,,,,,,,,,
,,58d3bc1642648b0001f21ca4,2024-02-19_05h00.30.640,kallum_motion_pilot,2023.2.2,Win32,144.9275362,58d3bc1642648b0001f21ca4,65d2b6c8f2eece985d8e374c,65d2d24a21c52a3be0e5a486,0.0468,0.0469,1,26,188,101,1,seveneight,,,,,,,,,,,,,,,,,,,,,,,,,,,,,,,,,,,,,,,,,,,,,,,,,,,,,,,,,,,,,,,,,,,,,,,,,,,,,,,,,,,,,,,,,,,,,,,,,,,,,,,,,,,,,,,,,,,,,,,,,,,,,,,,,,,,,,,,,
,,58d3bc1642648b0001f21ca4,2024-02-19_05h00.30.640,kallum_motion_pilot,2023.2.2,Win32,144.9275362,58d3bc1642648b0001f21ca4,65d2b6c8f2eece985d8e374c,65d2d24a21c52a3be0e5a486,0.0469,0.047,1,27,189,3,1,twofour,,,,,,,,,,,,,,,,,,,,,,,,,,,,,,,,,,,,,,,,,,,,,,,,,,,,,,,,,,,,,,,,,,,,,,,,,,,,,,,,,,,,,,,,,,,,,,,,,,,,,,,,,,,,,,,,,,,,,,,,,,,,,,,,,,,,,,,,,
,,58d3bc1642648b0001f21ca4,2024-02-19_05h00.30.640,kallum_motion_pilot,2023.2.2,Win32,144.9275362,58d3bc1642648b0001f21ca4,65d2b6c8f2eece985d8e374c,65d2d24a21c52a3be0e5a486,0.0471,0.0471,1,28,190,15,1,fourthree,,,,,,,,,,,,,,,,,,,,,,,,,,,,,,,,,,,,,,,,,,,,,,,,,,,,,,,,,,,,,,,,,,,,,,,,,,,,,,,,,,,,,,,,,,,,,,,,,,,,,,,,,,,,,,,,,,,,,,,,,,,,,,,,,,,,,,,,,
,,58d3bc1642648b0001f21ca4,2024-02-19_05h00.30.640,kallum_motion_pilot,2023.2.2,Win32,144.9275362,58d3bc1642648b0001f21ca4,65d2b6c8f2eece985d8e374c,65d2d24a21c52a3be0e5a486,0.0472,0.0472,1,29,191,91,1,sixeight,,,,,,,,,,,,,,,,,,,,,,,,,,,,,,,,,,,,,,,,,,,,,,,,,,,,,,,,,,,,,,,,,,,,,,,,,,,,,,,,,,,,,,,,,,,,,,,,,,,,,,,,,,,,,,,,,,,,,,,,,,,,,,,,,,,,,,,,,
,,58d3bc1642648b0001f21ca4,2024-02-19_05h00.30.640,kallum_motion_pilot,2023.2.2,Win32,144.9275362,58d3bc1642648b0001f21ca4,65d2b6c8f2eece985d8e374c,65d2d24a21c52a3be0e5a486,0.0473,0.0474,1,30,192,54,1,fourtwo,,,,,,,,,,,,,,,,,,,,,,,,,,,,,,,,,,,,,,,,,,,,,,,,,,,,,,,,,,,,,,,,,,,,,,,,,,,,,,,,,,,,,,,,,,,,,,,,,,,,,,,,,,,,,,,,,,,,,,,,,,,,,,,,,,,,,,,,,
,,58d3bc1642648b0001f21ca4,2024-02-19_05h00.30.640,kallum_motion_pilot,2023.2.2,Win32,144.9275362,58d3bc1642648b0001f21ca4,65d2b6c8f2eece985d8e374c,65d2d24a21c52a3be0e5a486,0.0474,0.0475,1,31,193,39,1,fourthree,,,,,,,,,,,,,,,,,,,,,,,,,,,,,,,,,,,,,,,,,,,,,,,,,,,,,,,,,,,,,,,,,,,,,,,,,,,,,,,,,,,,,,,,,,,,,,,,,,,,,,,,,,,,,,,,,,,,,,,,,,,,,,,,,,,,,,,,,
,,58d3bc1642648b0001f21ca4,2024-02-19_05h00.30.640,kallum_motion_pilot,2023.2.2,Win32,144.9275362,58d3bc1642648b0001f21ca4,65d2b6c8f2eece985d8e374c,65d2d24a21c52a3be0e5a486,0.0476,0.0476,1,32,194,117,1,seveneight,,,,,,,,,,,,,,,,,,,,,,,,,,,,,,,,,,,,,,,,,,,,,,,,,,,,,,,,,,,,,,,,,,,,,,,,,,,,,,,,,,,,,,,,,,,,,,,,,,,,,,,,,,,,,,,,,,,,,,,,,,,,,,,,,,,,,,,,,
,,58d3bc1642648b0001f21ca4,2024-02-19_05h00.30.640,kallum_motion_pilot,2023.2.2,Win32,144.9275362,58d3bc1642648b0001f21ca4,65d2b6c8f2eece985d8e374c,65d2d24a21c52a3be0e5a486,0.0477,0.0478,1,33,195,66,1,twoone,,,,,,,,,,,,,,,,,,,,,,,,,,,,,,,,,,,,,,,,,,,,,,,,,,,,,,,,,,,,,,,,,,,,,,,,,,,,,,,,,,,,,,,,,,,,,,,,,,,,,,,,,,,,,,,,,,,,,,,,,,,,,,,,,,,,,,,,,
,,58d3bc1642648b0001f21ca4,2024-02-19_05h00.30.640,kallum_motion_pilot,2023.2.2,Win32,144.9275362,58d3bc1642648b0001f21ca4,65d2b6c8f2eece985d8e374c,65d2d24a21c52a3be0e5a486,0.0479,0.0479,1,34,196,122,1,sixfive,,,,,,,,,,,,,,,,,,,,,,,,,,,,,,,,,,,,,,,,,,,,,,,,,,,,,,,,,,,,,,,,,,,,,,,,,,,,,,,,,,,,,,,,,,,,,,,,,,,,,,,,,,,,,,,,,,,,,,,,,,,,,,,,,,,,,,,,,
,,58d3bc1642648b0001f21ca4,2024-02-19_05h00.30.640,kallum_motion_pilot,2023.2.2,Win32,144.9275362,58d3bc1642648b0001f21ca4,65d2b6c8f2eece985d8e374c,65d2d24a21c52a3be0e5a486,0.0481,0.0481,1,35,197,71,1,fourthree,,,,,,,,,,,,,,,,,,,,,,,,,,,,,,,,,,,,,,,,,,,,,,,,,,,,,,,,,,,,,,,,,,,,,,,,,,,,,,,,,,,,,,,,,,,,,,,,,,,,,,,,,,,,,,,,,,,,,,,,,,,,,,,,,,,,,,,,,
,,58d3bc1642648b0001f21ca4,2024-02-19_05h00.30.640,kallum_motion_pilot,2023.2.2,Win32,144.9275362,58d3bc1642648b0001f21ca4,65d2b6c8f2eece985d8e374c,65d2d24a21c52a3be0e5a486,0.0482,0.0483,1,36,198,128,1,fivesix,,,,,,,,,,,,,,,,,,,,,,,,,,,,,,,,,,,,,,,,,,,,,,,,,,,,,,,,,,,,,,,,,,,,,,,,,,,,,,,,,,,,,,,,,,,,,,,,,,,,,,,,,,,,,,,,,,,,,,,,,,,,,,,,,,,,,,,,,
,,58d3bc1642648b0001f21ca4,2024-02-19_05h00.30.640,kallum_motion_pilot,2023.2.2,Win32,144.9275362,58d3bc1642648b0001f21ca4,65d2b6c8f2eece985d8e374c,65d2d24a21c52a3be0e5a486,0.0484,0.0485,1,37,199,72,1,onetwo,,,,,,,,,,,,,,,,,,,,,,,,,,,,,,,,,,,,,,,,,,,,,,,,,,,,,,,,,,,,,,,,,,,,,,,,,,,,,,,,,,,,,,,,,,,,,,,,,,,,,,,,,,,,,,,,,,,,,,,,,,,,,,,,,,,,,,,,,
,,58d3bc1642648b0001f21ca4,2024-02-19_05h00.30.640,kallum_motion_pilot,2023.2.2,Win32,144.9275362,58d3bc1642648b0001f21ca4,65d2b6c8f2eece985d8e374c,65d2d24a21c52a3be0e5a486,0.0486,0.0486,1,38,200,53,1,threefour,,,,,,,,,,,,,,,,,,,,,,,,,,,,,,,,,,,,,,,,,,,,,,,,,,,,,,,,,,,,,,,,,,,,,,,,,,,,,,,,,,,,,,,,,,,,,,,,,,,,,,,,,,,,,,,,,,,,,,,,,,,,,,,,,,,,,,,,,
,,58d3bc1642648b0001f21ca4,2024-02-19_05h00.30.640,kallum_motion_pilot,2023.2.2,Win32,144.9275362,58d3bc1642648b0001f21ca4,65d2b6c8f2eece985d8e374c,65d2d24a21c52a3be0e5a486,0.0487,0.0488,1,39,201,121,1,fiveseven,,,,,,,,,,,,,,,,,,,,,,,,,,,,,,,,,,,,,,,,,,,,,,,,,,,,,,,,,,,,,,,,,,,,,,,,,,,,,,,,,,,,,,,,,,,,,,,,,,,,,,,,,,,,,,,,,,,,,,,,,,,,,,,,,,,,,,,,,
,,58d3bc1642648b0001f21ca4,2024-02-19_05h00.30.640,kallum_motion_pilot,2023.2.2,Win32,144.9275362,58d3bc1642648b0001f21ca4,65d2b6c8f2eece985d8e374c,65d2d24a21c52a3be0e5a486,0.0488,0.0489,1,40,202,154,1,sixfive,,,,,,,,,,,,,,,,,,,,,,,,,,,,,,,,,,,,,,,,,,,,,,,,,,,,,,,,,,,,,,,,,,,,,,,,,,,,,,,,,,,,,,,,,,,,,,,,,,,,,,,,,,,,,,,,,,,,,,,,,,,,,,,,,,,,,,,,,
,,58d3bc1642648b0001f21ca4,2024-02-19_05h00.30.640,kallum_motion_pilot,2023.2.2,Win32,144.9275362,58d3bc1642648b0001f21ca4,65d2b6c8f2eece985d8e374c,65d2d24a21c52a3be0e5a486,0.0489,0.0491,1,41,203,88,1,fivesix,,,,,,,,,,,,,,,,,,,,,,,,,,,,,,,,,,,,,,,,,,,,,,,,,,,,,,,,,,,,,,,,,,,,,,,,,,,,,,,,,,,,,,,,,,,,,,,,,,,,,,,,,,,,,,,,,,,,,,,,,,,,,,,,,,,,,,,,,
,,58d3bc1642648b0001f21ca4,2024-02-19_05h00.30.640,kallum_motion_pilot,2023.2.2,Win32,144.9275362,58d3bc1642648b0001f21ca4,65d2b6c8f2eece985d8e374c,65d2d24a21c52a3be0e5a486,0.0491,0.0491,1,42,204,79,1,eightseven,,,,,,,,,,,,,,,,,,,,,,,,,,,,,,,,,,,,,,,,,,,,,,,,,,,,,,,,,,,,,,,,,,,,,,,,,,,,,,,,,,,,,,,,,,,,,,,,,,,,,,,,,,,,,,,,,,,,,,,,,,,,,,,,,,,,,,,,,
,,58d3bc1642648b0001f21ca4,2024-02-19_05h00.30.640,kallum_motion_pilot,2023.2.2,Win32,144.9275362,58d3bc1642648b0001f21ca4,65d2b6c8f2eece985d8e374c,65d2d24a21c52a3be0e5a486,0.0492,0.0493,1,43,205,151,1,eightseven,,,,,,,,,,,,,,,,,,,,,,,,,,,,,,,,,,,,,,,,,,,,,,,,,,,,,,,,,,,,,,,,,,,,,,,,,,,,,,,,,,,,,,,,,,,,,,,,,,,,,,,,,,,,,,,,,,,,,,,,,,,,,,,,,,,,,,,,,
,,58d3bc1642648b0001f21ca4,2024-02-19_05h00.30.640,kallum_motion_pilot,2023.2.2,Win32,144.9275362,58d3bc1642648b0001f21ca4,65d2b6c8f2eece985d8e374c,65d2d24a21c52a3be0e5a486,0.0494,0.0494,1,44,206,51,1,twofour,,,,,,,,,,,,,,,,,,,,,,,,,,,,,,,,,,,,,,,,,,,,,,,,,,,,,,,,,,,,,,,,,,,,,,,,,,,,,,,,,,,,,,,,,,,,,,,,,,,,,,,,,,,,,,,,,,,,,,,,,,,,,,,,,,,,,,,,,
,,58d3bc1642648b0001f21ca4,2024-02-19_05h00.30.640,kallum_motion_pilot,2023.2.2,Win32,144.9275362,58d3bc1642648b0001f21ca4,65d2b6c8f2eece985d8e374c,65d2d24a21c52a3be0e5a486,0.0495,0.0496,1,45,207,18,1,twoone,,,,,,,,,,,,,,,,,,,,,,,,,,,,,,,,,,,,,,,,,,,,,,,,,,,,,,,,,,,,,,,,,,,,,,,,,,,,,,,,,,,,,,,,,,,,,,,,,,,,,,,,,,,,,,,,,,,,,,,,,,,,,,,,,,,,,,,,,
,,58d3bc1642648b0001f21ca4,2024-02-19_05h00.30.640,kallum_motion_pilot,2023.2.2,Win32,144.9275362,58d3bc1642648b0001f21ca4,65d2b6c8f2eece985d8e374c,65d2d24a21c52a3be0e5a486,0.0497,0.0498,1,46,208,155,1,sixeight,,,,,,,,,,,,,,,,,,,,,,,,,,,,,,,,,,,,,,,,,,,,,,,,,,,,,,,,,,,,,,,,,,,,,,,,,,,,,,,,,,,,,,,,,,,,,,,,,,,,,,,,,,,,,,,,,,,,,,,,,,,,,,,,,,,,,,,,,
,,58d3bc1642648b0001f21ca4,2024-02-19_05h00.30.640,kallum_motion_pilot,2023.2.2,Win32,144.9275362,58d3bc1642648b0001f21ca4,65d2b6c8f2eece985d8e374c,65d2d24a21c52a3be0e5a486,0.0498,0.0498,1,47,209,77,1,threefour,,,,,,,,,,,,,,,,,,,,,,,,,,,,,,,,,,,,,,,,,,,,,,,,,,,,,,,,,,,,,,,,,,,,,,,,,,,,,,,,,,,,,,,,,,,,,,,,,,,,,,,,,,,,,,,,,,,,,,,,,,,,,,,,,,,,,,,,,
,,58d3bc1642648b0001f21ca4,2024-02-19_05h00.30.640,kallum_motion_pilot,2023.2.2,Win32,144.9275362,58d3bc1642648b0001f21ca4,65d2b6c8f2eece985d8e374c,65d2d24a21c52a3be0e5a486,0.05,0.05,1,48,210,86,1,eightsix,,,,,,,,,,,,,,,,,,,,,,,,,,,,,,,,,,,,,,,,,,,,,,,,,,,,,,,,,,,,,,,,,,,,,,,,,,,,,,,,,,,,,,,,,,,,,,,,,,,,,,,,,,,,,,,,,,,,,,,,,,,,,,,,,,,,,,,,,
,,58d3bc1642648b0001f21ca4,2024-02-19_05h00.30.640,kallum_motion_pilot,2023.2.2,Win32,144.9275362,58d3bc1642648b0001f21ca4,65d2b6c8f2eece985d8e374c,65d2d24a21c52a3be0e5a486,0.0501,0.0501,1,49,211,100,1,sevenfive,,,,,,,,,,,,,,,,,,,,,,,,,,,,,,,,,,,,,,,,,,,,,,,,,,,,,,,,,,,,,,,,,,,,,,,,,,,,,,,,,,,,,,,,,,,,,,,,,,,,,,,,,,,,,,,,,,,,,,,,,,,,,,,,,,,,,,,,,
,,58d3bc1642648b0001f21ca4,2024-02-19_05h00.30.640,kallum_motion_pilot,2023.2.2,Win32,144.9275362,58d3bc1642648b0001f21ca4,65d2b6c8f2eece985d8e374c,65d2d24a21c52a3be0e5a486,0.0502,0.0502,1,50,212,90,1,sixfive,,,,,,,,,,,,,,,,,,,,,,,,,,,,,,,,,,,,,,,,,,,,,,,,,,,,,,,,,,,,,,,,,,,,,,,,,,,,,,,,,,,,,,,,,,,,,,,,,,,,,,,,,,,,,,,,,,,,,,,,,,,,,,,,,,,,,,,,,
,,58d3bc1642648b0001f21ca4,2024-02-19_05h00.30.640,kallum_motion_pilot,2023.2.2,Win32,144.9275362,58d3bc1642648b0001f21ca4,65d2b6c8f2eece985d8e374c,65d2d24a21c52a3be0e5a486,0.0504,0.0504,1,51,213,147,1,sixeight,,,,,,,,,,,,,,,,,,,,,,,,,,,,,,,,,,,,,,,,,,,,,,,,,,,,,,,,,,,,,,,,,,,,,,,,,,,,,,,,,,,,,,,,,,,,,,,,,,,,,,,,,,,,,,,,,,,,,,,,,,,,,,,,,,,,,,,,,
,,58d3bc1642648b0001f21ca4,2024-02-19_05h00.30.640,kallum_motion_pilot,2023.2.2,Win32,144.9275362,58d3bc1642648b0001f21ca4,65d2b6c8f2eece985d8e374c,65d2d24a21c52a3be0e5a486,0.0504,0.0505,1,52,214,31,1,fourthree,,,,,,,,,,,,,,,,,,,,,,,,,,,,,,,,,,,,,,,,,,,,,,,,,,,,,,,,,,,,,,,,,,,,,,,,,,,,,,,,,,,,,,,,,,,,,,,,,,,,,,,,,,,,,,,,,,,,,,,,,,,,,,,,,,,,,,,,,
,,58d3bc1642648b0001f21ca4,2024-02-19_05h00.30.640,kallum_motion_pilot,2023.2.2,Win32,144.9275362,58d3bc1642648b0001f21ca4,65d2b6c8f2eece985d8e374c,65d2d24a21c52a3be0e5a486,0.0506,0.0507,1,53,215,40,1,onetwo,,,,,,,,,,,,,,,,,,,,,,,,,,,,,,,,,,,,,,,,,,,,,,,,,,,,,,,,,,,,,,,,,,,,,,,,,,,,,,,,,,,,,,,,,,,,,,,,,,,,,,,,,,,,,,,,,,,,,,,,,,,,,,,,,,,,,,,,,
,,58d3bc1642648b0001f21ca4,2024-02-19_05h00.30.640,kallum_motion_pilot,2023.2.2,Win32,144.9275362,58d3bc1642648b0001f21ca4,65d2b6c8f2eece985d8e374c,65d2d24a21c52a3be0e5a486,0.0508,0.0508,1,54,216,110,1,eightsix,,,,,,,,,,,,,,,,,,,,,,,,,,,,,,,,,,,,,,,,,,,,,,,,,,,,,,,,,,,,,,,,,,,,,,,,,,,,,,,,,,,,,,,,,,,,,,,,,,,,,,,,,,,,,,,,,,,,,,,,,,,,,,,,,,,,,,,,,
,,58d3bc1642648b0001f21ca4,2024-02-19_05h00.30.640,kallum_motion_pilot,2023.2.2,Win32,144.9275362,58d3bc1642648b0001f21ca4,65d2b6c8f2eece985d8e374c,65d2d24a21c52a3be0e5a486,0.0509,0.0509,1,55,217,38,1,fourtwo,,,,,,,,,,,,,,,,,,,,,,,,,,,,,,,,,,,,,,,,,,,,,,,,,,,,,,,,,,,,,,,,,,,,,,,,,,,,,,,,,,,,,,,,,,,,,,,,,,,,,,,,,,,,,,,,,,,,,,,,,,,,,,,,,,,,,,,,,
,,58d3bc1642648b0001f21ca4,2024-02-19_05h00.30.640,kallum_motion_pilot,2023.2.2,Win32,144.9275362,58d3bc1642648b0001f21ca4,65d2b6c8f2eece985d8e374c,65d2d24a21c52a3be0e5a486,0.051,0.051,1,56,218,43,1,twofour,,,,,,,,,,,,,,,,,,,,,,,,,,,,,,,,,,,,,,,,,,,,,,,,,,,,,,,,,,,,,,,,,,,,,,,,,,,,,,,,,,,,,,,,,,,,,,,,,,,,,,,,,,,,,,,,,,,,,,,,,,,,,,,,,,,,,,,,,
,,58d3bc1642648b0001f21ca4,2024-02-19_05h00.30.640,kallum_motion_pilot,2023.2.2,Win32,144.9275362,58d3bc1642648b0001f21ca4,65d2b6c8f2eece985d8e374c,65d2d24a21c52a3be0e5a486,0.0511,0.0512,1,57,219,52,1,threeone,,,,,,,,,,,,,,,,,,,,,,,,,,,,,,,,,,,,,,,,,,,,,,,,,,,,,,,,,,,,,,,,,,,,,,,,,,,,,,,,,,,,,,,,,,,,,,,,,,,,,,,,,,,,,,,,,,,,,,,,,,,,,,,,,,,,,,,,,
,,58d3bc1642648b0001f21ca4,2024-02-19_05h00.30.640,kallum_motion_pilot,2023.2.2,Win32,144.9275362,58d3bc1642648b0001f21ca4,65d2b6c8f2eece985d8e374c,65d2d24a21c52a3be0e5a486,0.0513,0.0513,1,58,220,124,1,sevenfive,,,,,,,,,,,,,,,,,,,,,,,,,,,,,,,,,,,,,,,,,,,,,,,,,,,,,,,,,,,,,,,,,,,,,,,,,,,,,,,,,,,,,,,,,,,,,,,,,,,,,,,,,,,,,,,,,,,,,,,,,,,,,,,,,,,,,,,,,
,,58d3bc1642648b0001f21ca4,2024-02-19_05h00.30.640,kallum_motion_pilot,2023.2.2,Win32,144.9275362,58d3bc1642648b0001f21ca4,65d2b6c8f2eece985d8e374c,65d2d24a21c52a3be0e5a486,0.0514,0.0515,1,59,221,13,1,threefour,,,,,,,,,,,,,,,,,,,,,,,,,,,,,,,,,,,,,,,,,,,,,,,,,,,,,,,,,,,,,,,,,,,,,,,,,,,,,,,,,,,,,,,,,,,,,,,,,,,,,,,,,,,,,,,,,,,,,,,,,,,,,,,,,,,,,,,,,
,,58d3bc1642648b0001f21ca4,2024-02-19_05h00.30.640,kallum_motion_pilot,2023.2.2,Win32,144.9275362,58d3bc1642648b0001f21ca4,65d2b6c8f2eece985d8e374c,65d2d24a21c52a3be0e5a486,0.0516,0.0517,1,60,222,94,1,eightsix,,,,,,,,,,,,,,,,,,,,,,,,,,,,,,,,,,,,,,,,,,,,,,,,,,,,,,,,,,,,,,,,,,,,,,,,,,,,,,,,,,,,,,,,,,,,,,,,,,,,,,,,,,,,,,,,,,,,,,,,,,,,,,,,,,,,,,,,,
,,58d3bc1642648b0001f21ca4,2024-02-19_05h00.30.640,kallum_motion_pilot,2023.2.2,Win32,144.9275362,58d3bc1642648b0001f21ca4,65d2b6c8f2eece985d8e374c,65d2d24a21c52a3be0e5a486,0.0517,0.0517,1,61,223,58,1,twoone,,,,,,,,,,,,,,,,,,,,,,,,,,,,,,,,,,,,,,,,,,,,,,,,,,,,,,,,,,,,,,,,,,,,,,,,,,,,,,,,,,,,,,,,,,,,,,,,,,,,,,,,,,,,,,,,,,,,,,,,,,,,,,,,,,,,,,,,,
,,58d3bc1642648b0001f21ca4,2024-02-19_05h00.30.640,kallum_motion_pilot,2023.2.2,Win32,144.9275362,58d3bc1642648b0001f21ca4,65d2b6c8f2eece985d8e374c,65d2d24a21c52a3be0e5a486,0.0518,0.0519,1,62,224,98,1,sixfive,,,,,,,,,,,,,,,,,,,,,,,,,,,,,,,,,,,,,,,,,,,,,,,,,,,,,,,,,,,,,,,,,,,,,,,,,,,,,,,,,,,,,,,,,,,,,,,,,,,,,,,,,,,,,,,,,,,,,,,,,,,,,,,,,,,,,,,,,
,,58d3bc1642648b0001f21ca4,2024-02-19_05h00.30.640,kallum_motion_pilot,2023.2.2,Win32,144.9275362,58d3bc1642648b0001f21ca4,65d2b6c8f2eece985d8e374c,65d2d24a21c52a3be0e5a486,0.052,0.052,1,63,225,81,1,fiveseven,,,,,,,,,,,,,,,,,,,,,,,,,,,,,,,,,,,,,,,,,,,,,,,,,,,,,,,,,,,,,,,,,,,,,,,,,,,,,,,,,,,,,,,,,,,,,,,,,,,,,,,,,,,,,,,,,,,,,,,,,,,,,,,,,,,,,,,,,
,,58d3bc1642648b0001f21ca4,2024-02-19_05h00.30.640,kallum_motion_pilot,2023.2.2,Win32,144.9275362,58d3bc1642648b0001f21ca4,65d2b6c8f2eece985d8e374c,65d2d24a21c52a3be0e5a486,0.0521,0.0521,1,64,226,87,1,eightseven,,,,,,,,,,,,,,,,,,,,,,,,,,,,,,,,,,,,,,,,,,,,,,,,,,,,,,,,,,,,,,,,,,,,,,,,,,,,,,,,,,,,,,,,,,,,,,,,,,,,,,,,,,,,,,,,,,,,,,,,,,,,,,,,,,,,,,,,,
,,58d3bc1642648b0001f21ca4,2024-02-19_05h00.30.640,kallum_motion_pilot,2023.2.2,Win32,144.9275362,58d3bc1642648b0001f21ca4,65d2b6c8f2eece985d8e374c,65d2d24a21c52a3be0e5a486,0.0523,0.0523,1,65,227,136,1,fivesix,,,,,,,,,,,,,,,,,,,,,,,,,,,,,,,,,,,,,,,,,,,,,,,,,,,,,,,,,,,,,,,,,,,,,,,,,,,,,,,,,,,,,,,,,,,,,,,,,,,,,,,,,,,,,,,,,,,,,,,,,,,,,,,,,,,,,,,,,
,,58d3bc1642648b0001f21ca4,2024-02-19_05h00.30.640,kallum_motion_pilot,2023.2.2,Win32,144.9275362,58d3bc1642648b0001f21ca4,65d2b6c8f2eece985d8e374c,65d2d24a21c52a3be0e5a486,0.0523,0.0524,1,66,228,62,1,fourtwo,,,,,,,,,,,,,,,,,,,,,,,,,,,,,,,,,,,,,,,,,,,,,,,,,,,,,,,,,,,,,,,,,,,,,,,,,,,,,,,,,,,,,,,,,,,,,,,,,,,,,,,,,,,,,,,,,,,,,,,,,,,,,,,,,,,,,,,,,
,,58d3bc1642648b0001f21ca4,2024-02-19_05h00.30.640,kallum_motion_pilot,2023.2.2,Win32,144.9275362,58d3bc1642648b0001f21ca4,65d2b6c8f2eece985d8e374c,65d2d24a21c52a3be0e5a486,0.0525,0.0525,1,67,229,76,1,threeone,,,,,,,,,,,,,,,,,,,,,,,,,,,,,,,,,,,,,,,,,,,,,,,,,,,,,,,,,,,,,,,,,,,,,,,,,,,,,,,,,,,,,,,,,,,,,,,,,,,,,,,,,,,,,,,,,,,,,,,,,,,,,,,,,,,,,,,,,
,,58d3bc1642648b0001f21ca4,2024-02-19_05h00.30.640,kallum_motion_pilot,2023.2.2,Win32,144.9275362,58d3bc1642648b0001f21ca4,65d2b6c8f2eece985d8e374c,65d2d24a21c52a3be0e5a486,0.0527,0.0527,1,68,230,36,1,threeone,,,,,,,,,,,,,,,,,,,,,,,,,,,,,,,,,,,,,,,,,,,,,,,,,,,,,,,,,,,,,,,,,,,,,,,,,,,,,,,,,,,,,,,,,,,,,,,,,,,,,,,,,,,,,,,,,,,,,,,,,,,,,,,,,,,,,,,,,
,,58d3bc1642648b0001f21ca4,2024-02-19_05h00.30.640,kallum_motion_pilot,2023.2.2,Win32,144.9275362,58d3bc1642648b0001f21ca4,65d2b6c8f2eece985d8e374c,65d2d24a21c52a3be0e5a486,0.0528,0.0529,1,69,231,60,1,threeone,,,,,,,,,,,,,,,,,,,,,,,,,,,,,,,,,,,,,,,,,,,,,,,,,,,,,,,,,,,,,,,,,,,,,,,,,,,,,,,,,,,,,,,,,,,,,,,,,,,,,,,,,,,,,,,,,,,,,,,,,,,,,,,,,,,,,,,,,
,,58d3bc1642648b0001f21ca4,2024-02-19_05h00.30.640,kallum_motion_pilot,2023.2.2,Win32,144.9275362,58d3bc1642648b0001f21ca4,65d2b6c8f2eece985d8e374c,65d2d24a21c52a3be0e5a486,0.053,0.053,1,70,232,34,1,twoone,,,,,,,,,,,,,,,,,,,,,,,,,,,,,,,,,,,,,,,,,,,,,,,,,,,,,,,,,,,,,,,,,,,,,,,,,,,,,,,,,,,,,,,,,,,,,,,,,,,,,,,,,,,,,,,,,,,,,,,,,,,,,,,,,,,,,,,,,
,,58d3bc1642648b0001f21ca4,2024-02-19_05h00.30.640,kallum_motion_pilot,2023.2.2,Win32,144.9275362,58d3bc1642648b0001f21ca4,65d2b6c8f2eece985d8e374c,65d2d24a21c52a3be0e5a486,0.0531,0.0532,1,71,233,9,1,onethree,,,,,,,,,,,,,,,,,,,,,,,,,,,,,,,,,,,,,,,,,,,,,,,,,,,,,,,,,,,,,,,,,,,,,,,,,,,,,,,,,,,,,,,,,,,,,,,,,,,,,,,,,,,,,,,,,,,,,,,,,,,,,,,,,,,,,,,,,
,,58d3bc1642648b0001f21ca4,2024-02-19_05h00.30.640,kallum_motion_pilot,2023.2.2,Win32,144.9275362,58d3bc1642648b0001f21ca4,65d2b6c8f2eece985d8e374c,65d2d24a21c52a3be0e5a486,0.0533,0.0533,1,72,234,28,1,threeone,,,,,,,,,,,,,,,,,,,,,,,,,,,,,,,,,,,,,,,,,,,,,,,,,,,,,,,,,,,,,,,,,,,,,,,,,,,,,,,,,,,,,,,,,,,,,,,,,,,,,,,,,,,,,,,,,,,,,,,,,,,,,,,,,,,,,,,,,
,,58d3bc1642648b0001f21ca4,2024-02-19_05h00.30.640,kallum_motion_pilot,2023.2.2,Win32,144.9275362,58d3bc1642648b0001f21ca4,65d2b6c8f2eece985d8e374c,65d2d24a21c52a3be0e5a486,0.0534,0.0534,1,73,235,45,1,threefour,,,,,,,,,,,,,,,,,,,,,,,,,,,,,,,,,,,,,,,,,,,,,,,,,,,,,,,,,,,,,,,,,,,,,,,,,,,,,,,,,,,,,,,,,,,,,,,,,,,,,,,,,,,,,,,,,,,,,,,,,,,,,,,,,,,,,,,,,
,,58d3bc1642648b0001f21ca4,2024-02-19_05h00.30.640,kallum_motion_pilot,2023.2.2,Win32,144.9275362,58d3bc1642648b0001f21ca4,65d2b6c8f2eece985d8e374c,65d2d24a21c52a3be0e5a486,0.0535,0.0536,1,74,236,69,1,threefour,,,,,,,,,,,,,,,,,,,,,,,,,,,,,,,,,,,,,,,,,,,,,,,,,,,,,,,,,,,,,,,,,,,,,,,,,,,,,,,,,,,,,,,,,,,,,,,,,,,,,,,,,,,,,,,,,,,,,,,,,,,,,,,,,,,,,,,,,
,,58d3bc1642648b0001f21ca4,2024-02-19_05h00.30.640,kallum_motion_pilot,2023.2.2,Win32,144.9275362,58d3bc1642648b0001f21ca4,65d2b6c8f2eece985d8e374c,65d2d24a21c52a3be0e5a486,0.0536,0.0537,1,75,237,14,1,fourtwo,,,,,,,,,,,,,,,,,,,,,,,,,,,,,,,,,,,,,,,,,,,,,,,,,,,,,,,,,,,,,,,,,,,,,,,,,,,,,,,,,,,,,,,,,,,,,,,,,,,,,,,,,,,,,,,,,,,,,,,,,,,,,,,,,,,,,,,,,
,,58d3bc1642648b0001f21ca4,2024-02-19_05h00.30.640,kallum_motion_pilot,2023.2.2,Win32,144.9275362,58d3bc1642648b0001f21ca4,65d2b6c8f2eece985d8e374c,65d2d24a21c52a3be0e5a486,0.0538,0.0539,1,76,238,84,1,sevenfive,,,,,,,,,,,,,,,,,,,,,,,,,,,,,,,,,,,,,,,,,,,,,,,,,,,,,,,,,,,,,,,,,,,,,,,,,,,,,,,,,,,,,,,,,,,,,,,,,,,,,,,,,,,,,,,,,,,,,,,,,,,,,,,,,,,,,,,,,
,,58d3bc1642648b0001f21ca4,2024-02-19_05h00.30.640,kallum_motion_pilot,2023.2.2,Win32,144.9275362,58d3bc1642648b0001f21ca4,65d2b6c8f2eece985d8e374c,65d2d24a21c52a3be0e5a486,0.0539,0.054,1,77,239,89,1,fiveseven,,,,,,,,,,,,,,,,,,,,,,,,,,,,,,,,,,,,,,,,,,,,,,,,,,,,,,,,,,,,,,,,,,,,,,,,,,,,,,,,,,,,,,,,,,,,,,,,,,,,,,,,,,,,,,,,,,,,,,,,,,,,,,,,,,,,,,,,,
,,58d3bc1642648b0001f21ca4,2024-02-19_05h00.30.640,kallum_motion_pilot,2023.2.2,Win32,144.9275362,58d3bc1642648b0001f21ca4,65d2b6c8f2eece985d8e374c,65d2d24a21c52a3be0e5a486,0.054,0.0541,1,78,240,116,1,sevenfive,,,,,,,,,,,,,,,,,,,,,,,,,,,,,,,,,,,,,,,,,,,,,,,,,,,,,,,,,,,,,,,,,,,,,,,,,,,,,,,,,,,,,,,,,,,,,,,,,,,,,,,,,,,,,,,,,,,,,,,,,,,,,,,,,,,,,,,,,
,,58d3bc1642648b0001f21ca4,2024-02-19_05h00.30.640,kallum_motion_pilot,2023.2.2,Win32,144.9275362,58d3bc1642648b0001f21ca4,65d2b6c8f2eece985d8e374c,65d2d24a21c52a3be0e5a486,0.0542,0.0543,1,79,241,22,1,fourtwo,,,,,,,,,,,,,,,,,,,,,,,,,,,,,,,,,,,,,,,,,,,,,,,,,,,,,,,,,,,,,,,,,,,,,,,,,,,,,,,,,,,,,,,,,,,,,,,,,,,,,,,,,,,,,,,,,,,,,,,,,,,,,,,,,,,,,,,,,
,,58d3bc1642648b0001f21ca4,2024-02-19_05h00.30.640,kallum_motion_pilot,2023.2.2,Win32,144.9275362,58d3bc1642648b0001f21ca4,65d2b6c8f2eece985d8e374c,65d2d24a21c52a3be0e5a486,0.0543,0.0544,1,80,242,74,1,twoone,,,,,,,,,,,,,,,,,,,,,,,,,,,,,,,,,,,,,,,,,,,,,,,,,,,,,,,,,,,,,,,,,,,,,,,,,,,,,,,,,,,,,,,,,,,,,,,,,,,,,,,,,,,,,,,,,,,,,,,,,,,,,,,,,,,,,,,,,
,,58d3bc1642648b0001f21ca4,2024-02-19_05h00.30.640,kallum_motion_pilot,2023.2.2,Win32,144.9275362,58d3bc1642648b0001f21ca4,65d2b6c8f2eece985d8e374c,65d2d24a21c52a3be0e5a486,0.0545,0.0545,1,81,243,119,1,eightseven,,,,,,,,,,,,,,,,,,,,,,,,,,,,,,,,,,,,,,,,,,,,,,,,,,,,,,,,,,,,,,,,,,,,,,,,,,,,,,,,,,,,,,,,,,,,,,,,,,,,,,,,,,,,,,,,,,,,,,,,,,,,,,,,,,,,,,,,,
,,58d3bc1642648b0001f21ca4,2024-02-19_05h00.30.640,kallum_motion_pilot,2023.2.2,Win32,144.9275362,58d3bc1642648b0001f21ca4,65d2b6c8f2eece985d8e374c,65d2d24a21c52a3be0e5a486,0.0546,0.0547,1,82,244,159,1,eightseven,,,,,,,,,,,,,,,,,,,,,,,,,,,,,,,,,,,,,,,,,,,,,,,,,,,,,,,,,,,,,,,,,,,,,,,,,,,,,,,,,,,,,,,,,,,,,,,,,,,,,,,,,,,,,,,,,,,,,,,,,,,,,,,,,,,,,,,,,
,,58d3bc1642648b0001f21ca4,2024-02-19_05h00.30.640,kallum_motion_pilot,2023.2.2,Win32,144.9275362,58d3bc1642648b0001f21ca4,65d2b6c8f2eece985d8e374c,65d2d24a21c52a3be0e5a486,0.0548,0.0548,1,83,245,50,1,twoone,,,,,,,,,,,,,,,,,,,,,,,,,,,,,,,,,,,,,,,,,,,,,,,,,,,,,,,,,,,,,,,,,,,,,,,,,,,,,,,,,,,,,,,,,,,,,,,,,,,,,,,,,,,,,,,,,,,,,,,,,,,,,,,,,,,,,,,,,
,,58d3bc1642648b0001f21ca4,2024-02-19_05h00.30.640,kallum_motion_pilot,2023.2.2,Win32,144.9275362,58d3bc1642648b0001f21ca4,65d2b6c8f2eece985d8e374c,65d2d24a21c52a3be0e5a486,0.0549,0.0549,1,84,246,8,1,onetwo,,,,,,,,,,,,,,,,,,,,,,,,,,,,,,,,,,,,,,,,,,,,,,,,,,,,,,,,,,,,,,,,,,,,,,,,,,,,,,,,,,,,,,,,,,,,,,,,,,,,,,,,,,,,,,,,,,,,,,,,,,,,,,,,,,,,,,,,,
,,58d3bc1642648b0001f21ca4,2024-02-19_05h00.30.640,kallum_motion_pilot,2023.2.2,Win32,144.9275362,58d3bc1642648b0001f21ca4,65d2b6c8f2eece985d8e374c,65d2d24a21c52a3be0e5a486,0.0551,0.0551,1,85,247,105,1,fiveseven,,,,,,,,,,,,,,,,,,,,,,,,,,,,,,,,,,,,,,,,,,,,,,,,,,,,,,,,,,,,,,,,,,,,,,,,,,,,,,,,,,,,,,,,,,,,,,,,,,,,,,,,,,,,,,,,,,,,,,,,,,,,,,,,,,,,,,,,,
,,58d3bc1642648b0001f21ca4,2024-02-19_05h00.30.640,kallum_motion_pilot,2023.2.2,Win32,144.9275362,58d3bc1642648b0001f21ca4,65d2b6c8f2eece985d8e374c,65d2d24a21c52a3be0e5a486,0.0552,0.0552,1,86,248,47,1,fourthree,,,,,,,,,,,,,,,,,,,,,,,,,,,,,,,,,,,,,,,,,,,,,,,,,,,,,,,,,,,,,,,,,,,,,,,,,,,,,,,,,,,,,,,,,,,,,,,,,,,,,,,,,,,,,,,,,,,,,,,,,,,,,,,,,,,,,,,,,
,,58d3bc1642648b0001f21ca4,2024-02-19_05h00.30.640,kallum_motion_pilot,2023.2.2,Win32,144.9275362,58d3bc1642648b0001f21ca4,65d2b6c8f2eece985d8e374c,65d2d24a21c52a3be0e5a486,0.0554,0.0555,1,87,249,20,1,threeone,,,,,,,,,,,,,,,,,,,,,,,,,,,,,,,,,,,,,,,,,,,,,,,,,,,,,,,,,,,,,,,,,,,,,,,,,,,,,,,,,,,,,,,,,,,,,,,,,,,,,,,,,,,,,,,,,,,,,,,,,,,,,,,,,,,,,,,,,
,,58d3bc1642648b0001f21ca4,2024-02-19_05h00.30.640,kallum_motion_pilot,2023.2.2,Win32,144.9275362,58d3bc1642648b0001f21ca4,65d2b6c8f2eece985d8e374c,65d2d24a21c52a3be0e5a486,0.0555,0.0556,1,88,250,95,1,eightseven,,,,,,,,,,,,,,,,,,,,,,,,,,,,,,,,,,,,,,,,,,,,,,,,,,,,,,,,,,,,,,,,,,,,,,,,,,,,,,,,,,,,,,,,,,,,,,,,,,,,,,,,,,,,,,,,,,,,,,,,,,,,,,,,,,,,,,,,,
,,58d3bc1642648b0001f21ca4,2024-02-19_05h00.30.640,kallum_motion_pilot,2023.2.2,Win32,144.9275362,58d3bc1642648b0001f21ca4,65d2b6c8f2eece985d8e374c,65d2d24a21c52a3be0e5a486,0.0557,0.0558,1,89,251,82,1,sixfive,,,,,,,,,,,,,,,,,,,,,,,,,,,,,,,,,,,,,,,,,,,,,,,,,,,,,,,,,,,,,,,,,,,,,,,,,,,,,,,,,,,,,,,,,,,,,,,,,,,,,,,,,,,,,,,,,,,,,,,,,,,,,,,,,,,,,,,,,
,,58d3bc1642648b0001f21ca4,2024-02-19_05h00.30.640,kallum_motion_pilot,2023.2.2,Win32,144.9275362,58d3bc1642648b0001f21ca4,65d2b6c8f2eece985d8e374c,65d2d24a21c52a3be0e5a486,0.0559,0.0559,1,90,252,24,1,onetwo,,,,,,,,,,,,,,,,,,,,,,,,,,,,,,,,,,,,,,,,,,,,,,,,,,,,,,,,,,,,,,,,,,,,,,,,,,,,,,,,,,,,,,,,,,,,,,,,,,,,,,,,,,,,,,,,,,,,,,,,,,,,,,,,,,,,,,,,,
,,58d3bc1642648b0001f21ca4,2024-02-19_05h00.30.640,kallum_motion_pilot,2023.2.2,Win32,144.9275362,58d3bc1642648b0001f21ca4,65d2b6c8f2eece985d8e374c,65d2d24a21c52a3be0e5a486,0.056,0.056,1,91,253,123,1,sixeight,,,,,,,,,,,,,,,,,,,,,,,,,,,,,,,,,,,,,,,,,,,,,,,,,,,,,,,,,,,,,,,,,,,,,,,,,,,,,,,,,,,,,,,,,,,,,,,,,,,,,,,,,,,,,,,,,,,,,,,,,,,,,,,,,,,,,,,,,
,,58d3bc1642648b0001f21ca4,2024-02-19_05h00.30.640,kallum_motion_pilot,2023.2.2,Win32,144.9275362,58d3bc1642648b0001f21ca4,65d2b6c8f2eece985d8e374c,65d2d24a21c52a3be0e5a486,0.0561,0.0562,1,92,254,63,1,fourthree,,,,,,,,,,,,,,,,,,,,,,,,,,,,,,,,,,,,,,,,,,,,,,,,,,,,,,,,,,,,,,,,,,,,,,,,,,,,,,,,,,,,,,,,,,,,,,,,,,,,,,,,,,,,,,,,,,,,,,,,,,,,,,,,,,,,,,,,,
,,58d3bc1642648b0001f21ca4,2024-02-19_05h00.30.640,kallum_motion_pilot,2023.2.2,Win32,144.9275362,58d3bc1642648b0001f21ca4,65d2b6c8f2eece985d8e374c,65d2d24a21c52a3be0e5a486,0.0563,0.0564,1,93,255,130,1,sixfive,,,,,,,,,,,,,,,,,,,,,,,,,,,,,,,,,,,,,,,,,,,,,,,,,,,,,,,,,,,,,,,,,,,,,,,,,,,,,,,,,,,,,,,,,,,,,,,,,,,,,,,,,,,,,,,,,,,,,,,,,,,,,,,,,,,,,,,,,
,,58d3bc1642648b0001f21ca4,2024-02-19_05h00.30.640,kallum_motion_pilot,2023.2.2,Win32,144.9275362,58d3bc1642648b0001f21ca4,65d2b6c8f2eece985d8e374c,65d2d24a21c52a3be0e5a486,0.0564,0.0565,1,94,256,135,1,eightseven,,,,,,,,,,,,,,,,,,,,,,,,,,,,,,,,,,,,,,,,,,,,,,,,,,,,,,,,,,,,,,,,,,,,,,,,,,,,,,,,,,,,,,,,,,,,,,,,,,,,,,,,,,,,,,,,,,,,,,,,,,,,,,,,,,,,,,,,,
,,58d3bc1642648b0001f21ca4,2024-02-19_05h00.30.640,kallum_motion_pilot,2023.2.2,Win32,144.9275362,58d3bc1642648b0001f21ca4,65d2b6c8f2eece985d8e374c,65d2d24a21c52a3be0e5a486,0.0567,0.0567,1,95,257,158,1,eightsix,,,,,,,,,,,,,,,,,,,,,,,,,,,,,,,,,,,,,,,,,,,,,,,,,,,,,,,,,,,,,,,,,,,,,,,,,,,,,,,,,,,,,,,,,,,,,,,,,,,,,,,,,,,,,,,,,,,,,,,,,,,,,,,,,,,,,,,,,
,,58d3bc1642648b0001f21ca4,2024-02-19_05h00.30.640,kallum_motion_pilot,2023.2.2,Win32,144.9275362,58d3bc1642648b0001f21ca4,65d2b6c8f2eece985d8e374c,65d2d24a21c52a3be0e5a486,0.0568,0.0568,1,96,258,55,1,fourthree,,,,,,,,,,,,,,,,,,,,,,,,,,,,,,,,,,,,,,,,,,,,,,,,,,,,,,,,,,,,,,,,,,,,,,,,,,,,,,,,,,,,,,,,,,,,,,,,,,,,,,,,,,,,,,,,,,,,,,,,,,,,,,,,,,,,,,,,,
,,58d3bc1642648b0001f21ca4,2024-02-19_05h00.30.640,kallum_motion_pilot,2023.2.2,Win32,144.9275362,58d3bc1642648b0001f21ca4,65d2b6c8f2eece985d8e374c,65d2d24a21c52a3be0e5a486,0.0569,0.057,1,97,259,37,1,threefour,,,,,,,,,,,,,,,,,,,,,,,,,,,,,,,,,,,,,,,,,,,,,,,,,,,,,,,,,,,,,,,,,,,,,,,,,,,,,,,,,,,,,,,,,,,,,,,,,,,,,,,,,,,,,,,,,,,,,,,,,,,,,,,,,,,,,,,,,
,,58d3bc1642648b0001f21ca4,2024-02-19_05h00.30.640,kallum_motion_pilot,2023.2.2,Win32,144.9275362,58d3bc1642648b0001f21ca4,65d2b6c8f2eece985d8e374c,65d2d24a21c52a3be0e5a486,0.057,0.0571,1,98,260,25,1,onethree,,,,,,,,,,,,,,,,,,,,,,,,,,,,,,,,,,,,,,,,,,,,,,,,,,,,,,,,,,,,,,,,,,,,,,,,,,,,,,,,,,,,,,,,,,,,,,,,,,,,,,,,,,,,,,,,,,,,,,,,,,,,,,,,,,,,,,,,,
,,58d3bc1642648b0001f21ca4,2024-02-19_05h00.30.640,kallum_motion_pilot,2023.2.2,Win32,144.9275362,58d3bc1642648b0001f21ca4,65d2b6c8f2eece985d8e374c,65d2d24a21c52a3be0e5a486,0.0572,0.0572,1,99,261,115,1,sixeight,,,,,,,,,,,,,,,,,,,,,,,,,,,,,,,,,,,,,,,,,,,,,,,,,,,,,,,,,,,,,,,,,,,,,,,,,,,,,,,,,,,,,,,,,,,,,,,,,,,,,,,,,,,,,,,,,,,,,,,,,,,,,,,,,,,,,,,,,
,,58d3bc1642648b0001f21ca4,2024-02-19_05h00.30.640,kallum_motion_pilot,2023.2.2,Win32,144.9275362,58d3bc1642648b0001f21ca4,65d2b6c8f2eece985d8e374c,65d2d24a21c52a3be0e5a486,0.0573,0.0574,1,100,262,75,1,twofour,,,,,,,,,,,,,,,,,,,,,,,,,,,,,,,,,,,,,,,,,,,,,,,,,,,,,,,,,,,,,,,,,,,,,,,,,,,,,,,,,,,,,,,,,,,,,,,,,,,,,,,,,,,,,,,,,,,,,,,,,,,,,,,,,,,,,,,,,
,,58d3bc1642648b0001f21ca4,2024-02-19_05h00.30.640,kallum_motion_pilot,2023.2.2,Win32,144.9275362,58d3bc1642648b0001f21ca4,65d2b6c8f2eece985d8e374c,65d2d24a21c52a3be0e5a486,0.0574,0.0575,1,101,263,41,1,onethree,,,,,,,,,,,,,,,,,,,,,,,,,,,,,,,,,,,,,,,,,,,,,,,,,,,,,,,,,,,,,,,,,,,,,,,,,,,,,,,,,,,,,,,,,,,,,,,,,,,,,,,,,,,,,,,,,,,,,,,,,,,,,,,,,,,,,,,,,
,,58d3bc1642648b0001f21ca4,2024-02-19_05h00.30.640,kallum_motion_pilot,2023.2.2,Win32,144.9275362,58d3bc1642648b0001f21ca4,65d2b6c8f2eece985d8e374c,65d2d24a21c52a3be0e5a486,0.0577,0.0578,1,102,264,120,1,fivesix,,,,,,,,,,,,,,,,,,,,,,,,,,,,,,,,,,,,,,,,,,,,,,,,,,,,,,,,,,,,,,,,,,,,,,,,,,,,,,,,,,,,,,,,,,,,,,,,,,,,,,,,,,,,,,,,,,,,,,,,,,,,,,,,,,,,,,,,,
,,58d3bc1642648b0001f21ca4,2024-02-19_05h00.30.640,kallum_motion_pilot,2023.2.2,Win32,144.9275362,58d3bc1642648b0001f21ca4,65d2b6c8f2eece985d8e374c,65d2d24a21c52a3be0e5a486,0.0578,0.0579,1,103,265,103,1,eightseven,,,,,,,,,,,,,,,,,,,,,,,,,,,,,,,,,,,,,,,,,,,,,,,,,,,,,,,,,,,,,,,,,,,,,,,,,,,,,,,,,,,,,,,,,,,,,,,,,,,,,,,,,,,,,,,,,,,,,,,,,,,,,,,,,,,,,,,,,
,,58d3bc1642648b0001f21ca4,2024-02-19_05h00.30.640,kallum_motion_pilot,2023.2.2,Win32,144.9275362,58d3bc1642648b0001f21ca4,65d2b6c8f2eece985d8e374c,65d2d24a21c52a3be0e5a486,0.058,0.058,1,104,266,21,1,threefour,,,,,,,,,,,,,,,,,,,,,,,,,,,,,,,,,,,,,,,,,,,,,,,,,,,,,,,,,,,,,,,,,,,,,,,,,,,,,,,,,,,,,,,,,,,,,,,,,,,,,,,,,,,,,,,,,,,,,,,,,,,,,,,,,,,,,,,,,
,,58d3bc1642648b0001f21ca4,2024-02-19_05h00.30.640,kallum_motion_pilot,2023.2.2,Win32,144.9275362,58d3bc1642648b0001f21ca4,65d2b6c8f2eece985d8e374c,65d2d24a21c52a3be0e5a486,0.0581,0.0582,1,105,267,92,1,sevenfive,,,,,,,,,,,,,,,,,,,,,,,,,,,,,,,,,,,,,,,,,,,,,,,,,,,,,,,,,,,,,,,,,,,,,,,,,,,,,,,,,,,,,,,,,,,,,,,,,,,,,,,,,,,,,,,,,,,,,,,,,,,,,,,,,,,,,,,,,
,,58d3bc1642648b0001f21ca4,2024-02-19_05h00.30.640,kallum_motion_pilot,2023.2.2,Win32,144.9275362,58d3bc1642648b0001f21ca4,65d2b6c8f2eece985d8e374c,65d2d24a21c52a3be0e5a486,0.0583,0.0583,1,106,268,96,1,fivesix,,,,,,,,,,,,,,,,,,,,,,,,,,,,,,,,,,,,,,,,,,,,,,,,,,,,,,,,,,,,,,,,,,,,,,,,,,,,,,,,,,,,,,,,,,,,,,,,,,,,,,,,,,,,,,,,,,,,,,,,,,,,,,,,,,,,,,,,,
,,58d3bc1642648b0001f21ca4,2024-02-19_05h00.30.640,kallum_motion_pilot,2023.2.2,Win32,144.9275362,58d3bc1642648b0001f21ca4,65d2b6c8f2eece985d8e374c,65d2d24a21c52a3be0e5a486,0.0584,0.0585,1,107,269,10,1,twoone,,,,,,,,,,,,,,,,,,,,,,,,,,,,,,,,,,,,,,,,,,,,,,,,,,,,,,,,,,,,,,,,,,,,,,,,,,,,,,,,,,,,,,,,,,,,,,,,,,,,,,,,,,,,,,,,,,,,,,,,,,,,,,,,,,,,,,,,,
,,58d3bc1642648b0001f21ca4,2024-02-19_05h00.30.640,kallum_motion_pilot,2023.2.2,Win32,144.9275362,58d3bc1642648b0001f21ca4,65d2b6c8f2eece985d8e374c,65d2d24a21c52a3be0e5a486,0.0586,0.0587,1,108,270,153,1,fiveseven,,,,,,,,,,,,,,,,,,,,,,,,,,,,,,,,,,,,,,,,,,,,,,,,,,,,,,,,,,,,,,,,,,,,,,,,,,,,,,,,,,,,,,,,,,,,,,,,,,,,,,,,,,,,,,,,,,,,,,,,,,,,,,,,,,,,,,,,,
,,58d3bc1642648b0001f21ca4,2024-02-19_05h00.30.640,kallum_motion_pilot,2023.2.2,Win32,144.9275362,58d3bc1642648b0001f21ca4,65d2b6c8f2eece985d8e374c,65d2d24a21c52a3be0e5a486,0.0589,0.0589,1,109,271,26,1,twoone,,,,,,,,,,,,,,,,,,,,,,,,,,,,,,,,,,,,,,,,,,,,,,,,,,,,,,,,,,,,,,,,,,,,,,,,,,,,,,,,,,,,,,,,,,,,,,,,,,,,,,,,,,,,,,,,,,,,,,,,,,,,,,,,,,,,,,,,,
,,58d3bc1642648b0001f21ca4,2024-02-19_05h00.30.640,kallum_motion_pilot,2023.2.2,Win32,144.9275362,58d3bc1642648b0001f21ca4,65d2b6c8f2eece985d8e374c,65d2d24a21c52a3be0e5a486,0.059,0.0591,1,110,272,27,1,twofour,,,,,,,,,,,,,,,,,,,,,,,,,,,,,,,,,,,,,,,,,,,,,,,,,,,,,,,,,,,,,,,,,,,,,,,,,,,,,,,,,,,,,,,,,,,,,,,,,,,,,,,,,,,,,,,,,,,,,,,,,,,,,,,,,,,,,,,,,
,,58d3bc1642648b0001f21ca4,2024-02-19_05h00.30.640,kallum_motion_pilot,2023.2.2,Win32,144.9275362,58d3bc1642648b0001f21ca4,65d2b6c8f2eece985d8e374c,65d2d24a21c52a3be0e5a486,0.0591,0.0592,1,111,273,97,1,fiveseven,,,,,,,,,,,,,,,,,,,,,,,,,,,,,,,,,,,,,,,,,,,,,,,,,,,,,,,,,,,,,,,,,,,,,,,,,,,,,,,,,,,,,,,,,,,,,,,,,,,,,,,,,,,,,,,,,,,,,,,,,,,,,,,,,,,,,,,,,
,,58d3bc1642648b0001f21ca4,2024-02-19_05h00.30.640,kallum_motion_pilot,2023.2.2,Win32,144.9275362,58d3bc1642648b0001f21ca4,65d2b6c8f2eece985d8e374c,65d2d24a21c52a3be0e5a486,0.0593,0.0594,1,112,274,80,1,fivesix,,,,,,,,,,,,,,,,,,,,,,,,,,,,,,,,,,,,,,,,,,,,,,,,,,,,,,,,,,,,,,,,,,,,,,,,,,,,,,,,,,,,,,,,,,,,,,,,,,,,,,,,,,,,,,,,,,,,,,,,,,,,,,,,,,,,,,,,,
,,58d3bc1642648b0001f21ca4,2024-02-19_05h00.30.640,kallum_motion_pilot,2023.2.2,Win32,144.9275362,58d3bc1642648b0001f21ca4,65d2b6c8f2eece985d8e374c,65d2d24a21c52a3be0e5a486,0.0594,0.0595,1,113,275,49,1,onethree,,,,,,,,,,,,,,,,,,,,,,,,,,,,,,,,,,,,,,,,,,,,,,,,,,,,,,,,,,,,,,,,,,,,,,,,,,,,,,,,,,,,,,,,,,,,,,,,,,,,,,,,,,,,,,,,,,,,,,,,,,,,,,,,,,,,,,,,,
,,58d3bc1642648b0001f21ca4,2024-02-19_05h00.30.640,kallum_motion_pilot,2023.2.2,Win32,144.9275362,58d3bc1642648b0001f21ca4,65d2b6c8f2eece985d8e374c,65d2d24a21c52a3be0e5a486,0.0596,0.0596,1,114,276,11,1,twofour,,,,,,,,,,,,,,,,,,,,,,,,,,,,,,,,,,,,,,,,,,,,,,,,,,,,,,,,,,,,,,,,,,,,,,,,,,,,,,,,,,,,,,,,,,,,,,,,,,,,,,,,,,,,,,,,,,,,,,,,,,,,,,,,,,,,,,,,,
,,58d3bc1642648b0001f21ca4,2024-02-19_05h00.30.640,kallum_motion_pilot,2023.2.2,Win32,144.9275362,58d3bc1642648b0001f21ca4,65d2b6c8f2eece985d8e374c,65d2d24a21c52a3be0e5a486,0.0597,0.0598,1,115,277,106,1,sixfive,,,,,,,,,,,,,,,,,,,,,,,,,,,,,,,,,,,,,,,,,,,,,,,,,,,,,,,,,,,,,,,,,,,,,,,,,,,,,,,,,,,,,,,,,,,,,,,,,,,,,,,,,,,,,,,,,,,,,,,,,,,,,,,,,,,,,,,,,
