startup.started,startup.stopped,Prolific ID*,date,expName,psychopyVersion,OS,frameRate,participant,study_id,session,stimpositions.started,stimpositions.stopped,hardcoded_stimulus_positions.thisRepN,hardcoded_stimulus_positions.thisTrialN,hardcoded_stimulus_positions.thisN,hardcoded_stimulus_positions.thisIndex,hardcoded_stimulus_positions.ran,StimulusPos,stimorientation.started,stimorientation.stopped,prac_stimorientation_import_loop.thisRepN,prac_stimorientation_import_loop.thisTrialN,prac_stimorientation_import_loop.thisN,prac_stimorientation_import_loop.thisIndex,prac_stimorientation_import_loop.ran,Stimorientation,welcome_instr.started,welcome_instr.stopped,key_resp.keys,key_resp.rt,key_resp.duration,response_steppedout_1.started,response_steppedout_1.stopped,key_resp_20.keys,key_resp_20.rt,key_resp_20.duration,response_steppedout_2.started,response_steppedout_2.stopped,key_resp_19.keys,key_resp_19.rt,key_resp_19.duration,stim_response_instr.started,stim_response_instr.stopped,key_resp_15.keys,key_resp_15.rt,key_resp_15.duration,direction_instr_2.started,direction_instr_2.stopped,key_resp_9.keys,key_resp_9.rt,key_resp_9.duration,instr_prac.started,instr_prac.stopped,key_resp_10.keys,key_resp_10.rt,key_resp_10.duration,Stim1_display_prac.started,Stim1_display_prac.stopped,Ecc,Circle1_ori,Circle2_ori,response_prac.started,similarity,response_time,response_prac.stopped,mouse_5.x,mouse_5.y,mouse_5.leftButton,mouse_5.midButton,mouse_5.rightButton,mouse_5.clicked_name,responseprac_feedback.started,responseprac_feedback.stopped,summary2_prac.started,summary2_prac.stopped,mouse_6.x,mouse_6.y,mouse_6.leftButton,mouse_6.midButton,mouse_6.rightButton,mouse_6.clicked_name,duringprac.thisRepN,duringprac.thisTrialN,duringprac.thisN,duringprac.thisIndex,duringprac.ran,begin.started,begin.stopped,key_resp_22.keys,key_resp_22.rt,key_resp_22.duration,Stim1_display.started,Stim1_display.stopped,circle1_ori,circle2_ori,circle1_SF,circle2_SF,response.started,response.stopped,mouse.x,mouse.y,mouse.leftButton,mouse.midButton,mouse.rightButton,mouse.clicked_name,trialnumber,double_pass.thisRepN,double_pass.thisTrialN,double_pass.thisN,double_pass.thisIndex,double_pass.ran,double_pass.order,main_trial.thisRepN,main_trial.thisTrialN,main_trial.thisN,main_trial.thisIndex,main_trial.ran,main_trial.order,Trial_Counter,Catch,Frequencies,response_2.started,response_2.stopped,mouse_2.x,mouse_2.y,mouse_2.leftButton,mouse_2.midButton,mouse_2.rightButton,mouse_2.clicked_name,special_trial.started,special_trial.stopped,catch_1.started,catch_1.stopped,mouse_3.x,mouse_3.y,mouse_3.leftButton,mouse_3.midButton,mouse_3.rightButton,catchresponse,catchnumber,response_time_catch,response_sum.started,response_sum.stopped,mouse_11.x,mouse_11.y,mouse_11.leftButton,mouse_11.midButton,mouse_11.rightButton,flip_presentation_sequence_for_double_pass.started,flip_presentation_sequence_for_double_pass.stopped,goodbye.started,goodbye.stopped,key_resp_3.keys,key_resp_3.rt,key_resp_3.duration
0.001,0.001,58e8e462a415a4000150c4da,2024-02-22_05h27.22.377,kallum_motion_pilot,2023.2.2,Win32,143.6781609,58e8e462a415a4000150c4da,65d6bb0e977760de756971f7,65d6bed0277b2fdc463d7ec1,,,,,,,,,,,,,,,,,,,,,,,,,,,,,,,,,,,,,,,,,,,,,,,,,,,,,,,,,,,,,,,,,,,,,,,,,,,,,,,,,,,,,,,,,,,,,,,,,,,,,,,,,,,,,,,,,,,,,,,,,,,,,,,,,,,,,,,,,,,,,,,,,
,,58e8e462a415a4000150c4da,2024-02-22_05h27.22.377,kallum_motion_pilot,2023.2.2,Win32,143.6781609,58e8e462a415a4000150c4da,65d6bb0e977760de756971f7,65d6bed0277b2fdc463d7ec1,0.01,0.01,0,0,0,51,1,twofour,,,,,,,,,,,,,,,,,,,,,,,,,,,,,,,,,,,,,,,,,,,,,,,,,,,,,,,,,,,,,,,,,,,,,,,,,,,,,,,,,,,,,,,,,,,,,,,,,,,,,,,,,,,,,,,,,,,,,,,,,,,,,,,,,,,,,,,,,
,,58e8e462a415a4000150c4da,2024-02-22_05h27.22.377,kallum_motion_pilot,2023.2.2,Win32,143.6781609,58e8e462a415a4000150c4da,65d6bb0e977760de756971f7,65d6bed0277b2fdc463d7ec1,0.01,0.011,0,1,1,106,1,sixfive,,,,,,,,,,,,,,,,,,,,,,,,,,,,,,,,,,,,,,,,,,,,,,,,,,,,,,,,,,,,,,,,,,,,,,,,,,,,,,,,,,,,,,,,,,,,,,,,,,,,,,,,,,,,,,,,,,,,,,,,,,,,,,,,,,,,,,,,,
,,58e8e462a415a4000150c4da,2024-02-22_05h27.22.377,kallum_motion_pilot,2023.2.2,Win32,143.6781609,58e8e462a415a4000150c4da,65d6bb0e977760de756971f7,65d6bed0277b2fdc463d7ec1,0.011,0.011,0,2,2,72,1,onetwo,,,,,,,,,,,,,,,,,,,,,,,,,,,,,,,,,,,,,,,,,,,,,,,,,,,,,,,,,,,,,,,,,,,,,,,,,,,,,,,,,,,,,,,,,,,,,,,,,,,,,,,,,,,,,,,,,,,,,,,,,,,,,,,,,,,,,,,,,
,,58e8e462a415a4000150c4da,2024-02-22_05h27.22.377,kallum_motion_pilot,2023.2.2,Win32,143.6781609,58e8e462a415a4000150c4da,65d6bb0e977760de756971f7,65d6bed0277b2fdc463d7ec1,0.011,0.011,0,3,3,116,1,sevenfive,,,,,,,,,,,,,,,,,,,,,,,,,,,,,,,,,,,,,,,,,,,,,,,,,,,,,,,,,,,,,,,,,,,,,,,,,,,,,,,,,,,,,,,,,,,,,,,,,,,,,,,,,,,,,,,,,,,,,,,,,,,,,,,,,,,,,,,,,
,,58e8e462a415a4000150c4da,2024-02-22_05h27.22.377,kallum_motion_pilot,2023.2.2,Win32,143.6781609,58e8e462a415a4000150c4da,65d6bb0e977760de756971f7,65d6bed0277b2fdc463d7ec1,0.011,0.011,0,4,4,137,1,fiveseven,,,,,,,,,,,,,,,,,,,,,,,,,,,,,,,,,,,,,,,,,,,,,,,,,,,,,,,,,,,,,,,,,,,,,,,,,,,,,,,,,,,,,,,,,,,,,,,,,,,,,,,,,,,,,,,,,,,,,,,,,,,,,,,,,,,,,,,,,
,,58e8e462a415a4000150c4da,2024-02-22_05h27.22.377,kallum_motion_pilot,2023.2.2,Win32,143.6781609,58e8e462a415a4000150c4da,65d6bb0e977760de756971f7,65d6bed0277b2fdc463d7ec1,0.011,0.011,0,5,5,161,1,fiveseven,,,,,,,,,,,,,,,,,,,,,,,,,,,,,,,,,,,,,,,,,,,,,,,,,,,,,,,,,,,,,,,,,,,,,,,,,,,,,,,,,,,,,,,,,,,,,,,,,,,,,,,,,,,,,,,,,,,,,,,,,,,,,,,,,,,,,,,,,
,,58e8e462a415a4000150c4da,2024-02-22_05h27.22.377,kallum_motion_pilot,2023.2.2,Win32,143.6781609,58e8e462a415a4000150c4da,65d6bb0e977760de756971f7,65d6bed0277b2fdc463d7ec1,0.011,0.011,0,6,6,69,1,threefour,,,,,,,,,,,,,,,,,,,,,,,,,,,,,,,,,,,,,,,,,,,,,,,,,,,,,,,,,,,,,,,,,,,,,,,,,,,,,,,,,,,,,,,,,,,,,,,,,,,,,,,,,,,,,,,,,,,,,,,,,,,,,,,,,,,,,,,,,
,,58e8e462a415a4000150c4da,2024-02-22_05h27.22.377,kallum_motion_pilot,2023.2.2,Win32,143.6781609,58e8e462a415a4000150c4da,65d6bb0e977760de756971f7,65d6bed0277b2fdc463d7ec1,0.011,0.011,0,7,7,49,1,onethree,,,,,,,,,,,,,,,,,,,,,,,,,,,,,,,,,,,,,,,,,,,,,,,,,,,,,,,,,,,,,,,,,,,,,,,,,,,,,,,,,,,,,,,,,,,,,,,,,,,,,,,,,,,,,,,,,,,,,,,,,,,,,,,,,,,,,,,,,
,,58e8e462a415a4000150c4da,2024-02-22_05h27.22.377,kallum_motion_pilot,2023.2.2,Win32,143.6781609,58e8e462a415a4000150c4da,65d6bb0e977760de756971f7,65d6bed0277b2fdc463d7ec1,0.011,0.011,0,8,8,159,1,eightseven,,,,,,,,,,,,,,,,,,,,,,,,,,,,,,,,,,,,,,,,,,,,,,,,,,,,,,,,,,,,,,,,,,,,,,,,,,,,,,,,,,,,,,,,,,,,,,,,,,,,,,,,,,,,,,,,,,,,,,,,,,,,,,,,,,,,,,,,,
,,58e8e462a415a4000150c4da,2024-02-22_05h27.22.377,kallum_motion_pilot,2023.2.2,Win32,143.6781609,58e8e462a415a4000150c4da,65d6bb0e977760de756971f7,65d6bed0277b2fdc463d7ec1,0.011,0.011,0,9,9,73,1,onethree,,,,,,,,,,,,,,,,,,,,,,,,,,,,,,,,,,,,,,,,,,,,,,,,,,,,,,,,,,,,,,,,,,,,,,,,,,,,,,,,,,,,,,,,,,,,,,,,,,,,,,,,,,,,,,,,,,,,,,,,,,,,,,,,,,,,,,,,,
,,58e8e462a415a4000150c4da,2024-02-22_05h27.22.377,kallum_motion_pilot,2023.2.2,Win32,143.6781609,58e8e462a415a4000150c4da,65d6bb0e977760de756971f7,65d6bed0277b2fdc463d7ec1,0.012,0.013,0,10,10,82,1,sixfive,,,,,,,,,,,,,,,,,,,,,,,,,,,,,,,,,,,,,,,,,,,,,,,,,,,,,,,,,,,,,,,,,,,,,,,,,,,,,,,,,,,,,,,,,,,,,,,,,,,,,,,,,,,,,,,,,,,,,,,,,,,,,,,,,,,,,,,,,
,,58e8e462a415a4000150c4da,2024-02-22_05h27.22.377,kallum_motion_pilot,2023.2.2,Win32,143.6781609,58e8e462a415a4000150c4da,65d6bb0e977760de756971f7,65d6bed0277b2fdc463d7ec1,0.013,0.013,0,11,11,144,1,fivesix,,,,,,,,,,,,,,,,,,,,,,,,,,,,,,,,,,,,,,,,,,,,,,,,,,,,,,,,,,,,,,,,,,,,,,,,,,,,,,,,,,,,,,,,,,,,,,,,,,,,,,,,,,,,,,,,,,,,,,,,,,,,,,,,,,,,,,,,,
,,58e8e462a415a4000150c4da,2024-02-22_05h27.22.377,kallum_motion_pilot,2023.2.2,Win32,143.6781609,58e8e462a415a4000150c4da,65d6bb0e977760de756971f7,65d6bed0277b2fdc463d7ec1,0.013,0.013,0,12,12,52,1,threeone,,,,,,,,,,,,,,,,,,,,,,,,,,,,,,,,,,,,,,,,,,,,,,,,,,,,,,,,,,,,,,,,,,,,,,,,,,,,,,,,,,,,,,,,,,,,,,,,,,,,,,,,,,,,,,,,,,,,,,,,,,,,,,,,,,,,,,,,,
,,58e8e462a415a4000150c4da,2024-02-22_05h27.22.377,kallum_motion_pilot,2023.2.2,Win32,143.6781609,58e8e462a415a4000150c4da,65d6bb0e977760de756971f7,65d6bed0277b2fdc463d7ec1,0.013,0.013,0,13,13,86,1,eightsix,,,,,,,,,,,,,,,,,,,,,,,,,,,,,,,,,,,,,,,,,,,,,,,,,,,,,,,,,,,,,,,,,,,,,,,,,,,,,,,,,,,,,,,,,,,,,,,,,,,,,,,,,,,,,,,,,,,,,,,,,,,,,,,,,,,,,,,,,
,,58e8e462a415a4000150c4da,2024-02-22_05h27.22.377,kallum_motion_pilot,2023.2.2,Win32,143.6781609,58e8e462a415a4000150c4da,65d6bb0e977760de756971f7,65d6bed0277b2fdc463d7ec1,0.013,0.013,0,14,14,115,1,sixeight,,,,,,,,,,,,,,,,,,,,,,,,,,,,,,,,,,,,,,,,,,,,,,,,,,,,,,,,,,,,,,,,,,,,,,,,,,,,,,,,,,,,,,,,,,,,,,,,,,,,,,,,,,,,,,,,,,,,,,,,,,,,,,,,,,,,,,,,,
,,58e8e462a415a4000150c4da,2024-02-22_05h27.22.377,kallum_motion_pilot,2023.2.2,Win32,143.6781609,58e8e462a415a4000150c4da,65d6bb0e977760de756971f7,65d6bed0277b2fdc463d7ec1,0.013,0.013,0,15,15,157,1,seveneight,,,,,,,,,,,,,,,,,,,,,,,,,,,,,,,,,,,,,,,,,,,,,,,,,,,,,,,,,,,,,,,,,,,,,,,,,,,,,,,,,,,,,,,,,,,,,,,,,,,,,,,,,,,,,,,,,,,,,,,,,,,,,,,,,,,,,,,,,
,,58e8e462a415a4000150c4da,2024-02-22_05h27.22.377,kallum_motion_pilot,2023.2.2,Win32,143.6781609,58e8e462a415a4000150c4da,65d6bb0e977760de756971f7,65d6bed0277b2fdc463d7ec1,0.013,0.013,0,16,16,57,1,onethree,,,,,,,,,,,,,,,,,,,,,,,,,,,,,,,,,,,,,,,,,,,,,,,,,,,,,,,,,,,,,,,,,,,,,,,,,,,,,,,,,,,,,,,,,,,,,,,,,,,,,,,,,,,,,,,,,,,,,,,,,,,,,,,,,,,,,,,,,
,,58e8e462a415a4000150c4da,2024-02-22_05h27.22.377,kallum_motion_pilot,2023.2.2,Win32,143.6781609,58e8e462a415a4000150c4da,65d6bb0e977760de756971f7,65d6bed0277b2fdc463d7ec1,0.013,0.013,0,17,17,78,1,fourtwo,,,,,,,,,,,,,,,,,,,,,,,,,,,,,,,,,,,,,,,,,,,,,,,,,,,,,,,,,,,,,,,,,,,,,,,,,,,,,,,,,,,,,,,,,,,,,,,,,,,,,,,,,,,,,,,,,,,,,,,,,,,,,,,,,,,,,,,,,
,,58e8e462a415a4000150c4da,2024-02-22_05h27.22.377,kallum_motion_pilot,2023.2.2,Win32,143.6781609,58e8e462a415a4000150c4da,65d6bb0e977760de756971f7,65d6bed0277b2fdc463d7ec1,0.013,0.013,0,18,18,98,1,sixfive,,,,,,,,,,,,,,,,,,,,,,,,,,,,,,,,,,,,,,,,,,,,,,,,,,,,,,,,,,,,,,,,,,,,,,,,,,,,,,,,,,,,,,,,,,,,,,,,,,,,,,,,,,,,,,,,,,,,,,,,,,,,,,,,,,,,,,,,,
,,58e8e462a415a4000150c4da,2024-02-22_05h27.22.377,kallum_motion_pilot,2023.2.2,Win32,143.6781609,58e8e462a415a4000150c4da,65d6bb0e977760de756971f7,65d6bed0277b2fdc463d7ec1,0.013,0.013,0,19,19,121,1,fiveseven,,,,,,,,,,,,,,,,,,,,,,,,,,,,,,,,,,,,,,,,,,,,,,,,,,,,,,,,,,,,,,,,,,,,,,,,,,,,,,,,,,,,,,,,,,,,,,,,,,,,,,,,,,,,,,,,,,,,,,,,,,,,,,,,,,,,,,,,,
,,58e8e462a415a4000150c4da,2024-02-22_05h27.22.377,kallum_motion_pilot,2023.2.2,Win32,143.6781609,58e8e462a415a4000150c4da,65d6bb0e977760de756971f7,65d6bed0277b2fdc463d7ec1,0.013,0.013,0,20,20,40,1,onetwo,,,,,,,,,,,,,,,,,,,,,,,,,,,,,,,,,,,,,,,,,,,,,,,,,,,,,,,,,,,,,,,,,,,,,,,,,,,,,,,,,,,,,,,,,,,,,,,,,,,,,,,,,,,,,,,,,,,,,,,,,,,,,,,,,,,,,,,,,
,,58e8e462a415a4000150c4da,2024-02-22_05h27.22.377,kallum_motion_pilot,2023.2.2,Win32,143.6781609,58e8e462a415a4000150c4da,65d6bb0e977760de756971f7,65d6bed0277b2fdc463d7ec1,0.013,0.013,0,21,21,48,1,onetwo,,,,,,,,,,,,,,,,,,,,,,,,,,,,,,,,,,,,,,,,,,,,,,,,,,,,,,,,,,,,,,,,,,,,,,,,,,,,,,,,,,,,,,,,,,,,,,,,,,,,,,,,,,,,,,,,,,,,,,,,,,,,,,,,,,,,,,,,,
,,58e8e462a415a4000150c4da,2024-02-22_05h27.22.377,kallum_motion_pilot,2023.2.2,Win32,143.6781609,58e8e462a415a4000150c4da,65d6bb0e977760de756971f7,65d6bed0277b2fdc463d7ec1,0.013,0.013,0,22,22,0,1,onetwo,,,,,,,,,,,,,,,,,,,,,,,,,,,,,,,,,,,,,,,,,,,,,,,,,,,,,,,,,,,,,,,,,,,,,,,,,,,,,,,,,,,,,,,,,,,,,,,,,,,,,,,,,,,,,,,,,,,,,,,,,,,,,,,,,,,,,,,,,
,,58e8e462a415a4000150c4da,2024-02-22_05h27.22.377,kallum_motion_pilot,2023.2.2,Win32,143.6781609,58e8e462a415a4000150c4da,65d6bb0e977760de756971f7,65d6bed0277b2fdc463d7ec1,0.013,0.013,0,23,23,12,1,threeone,,,,,,,,,,,,,,,,,,,,,,,,,,,,,,,,,,,,,,,,,,,,,,,,,,,,,,,,,,,,,,,,,,,,,,,,,,,,,,,,,,,,,,,,,,,,,,,,,,,,,,,,,,,,,,,,,,,,,,,,,,,,,,,,,,,,,,,,,
,,58e8e462a415a4000150c4da,2024-02-22_05h27.22.377,kallum_motion_pilot,2023.2.2,Win32,143.6781609,58e8e462a415a4000150c4da,65d6bb0e977760de756971f7,65d6bed0277b2fdc463d7ec1,0.013,0.013,0,24,24,139,1,sixeight,,,,,,,,,,,,,,,,,,,,,,,,,,,,,,,,,,,,,,,,,,,,,,,,,,,,,,,,,,,,,,,,,,,,,,,,,,,,,,,,,,,,,,,,,,,,,,,,,,,,,,,,,,,,,,,,,,,,,,,,,,,,,,,,,,,,,,,,,
,,58e8e462a415a4000150c4da,2024-02-22_05h27.22.377,kallum_motion_pilot,2023.2.2,Win32,143.6781609,58e8e462a415a4000150c4da,65d6bb0e977760de756971f7,65d6bed0277b2fdc463d7ec1,0.013,0.013,0,25,25,93,1,seveneight,,,,,,,,,,,,,,,,,,,,,,,,,,,,,,,,,,,,,,,,,,,,,,,,,,,,,,,,,,,,,,,,,,,,,,,,,,,,,,,,,,,,,,,,,,,,,,,,,,,,,,,,,,,,,,,,,,,,,,,,,,,,,,,,,,,,,,,,,
,,58e8e462a415a4000150c4da,2024-02-22_05h27.22.377,kallum_motion_pilot,2023.2.2,Win32,143.6781609,58e8e462a415a4000150c4da,65d6bb0e977760de756971f7,65d6bed0277b2fdc463d7ec1,0.013,0.013,0,26,26,100,1,sevenfive,,,,,,,,,,,,,,,,,,,,,,,,,,,,,,,,,,,,,,,,,,,,,,,,,,,,,,,,,,,,,,,,,,,,,,,,,,,,,,,,,,,,,,,,,,,,,,,,,,,,,,,,,,,,,,,,,,,,,,,,,,,,,,,,,,,,,,,,,
,,58e8e462a415a4000150c4da,2024-02-22_05h27.22.377,kallum_motion_pilot,2023.2.2,Win32,143.6781609,58e8e462a415a4000150c4da,65d6bb0e977760de756971f7,65d6bed0277b2fdc463d7ec1,0.013,0.013,0,27,27,146,1,sixfive,,,,,,,,,,,,,,,,,,,,,,,,,,,,,,,,,,,,,,,,,,,,,,,,,,,,,,,,,,,,,,,,,,,,,,,,,,,,,,,,,,,,,,,,,,,,,,,,,,,,,,,,,,,,,,,,,,,,,,,,,,,,,,,,,,,,,,,,,
,,58e8e462a415a4000150c4da,2024-02-22_05h27.22.377,kallum_motion_pilot,2023.2.2,Win32,143.6781609,58e8e462a415a4000150c4da,65d6bb0e977760de756971f7,65d6bed0277b2fdc463d7ec1,0.013,0.013,0,28,28,33,1,onethree,,,,,,,,,,,,,,,,,,,,,,,,,,,,,,,,,,,,,,,,,,,,,,,,,,,,,,,,,,,,,,,,,,,,,,,,,,,,,,,,,,,,,,,,,,,,,,,,,,,,,,,,,,,,,,,,,,,,,,,,,,,,,,,,,,,,,,,,,
,,58e8e462a415a4000150c4da,2024-02-22_05h27.22.377,kallum_motion_pilot,2023.2.2,Win32,143.6781609,58e8e462a415a4000150c4da,65d6bb0e977760de756971f7,65d6bed0277b2fdc463d7ec1,0.013,0.013,0,29,29,151,1,eightseven,,,,,,,,,,,,,,,,,,,,,,,,,,,,,,,,,,,,,,,,,,,,,,,,,,,,,,,,,,,,,,,,,,,,,,,,,,,,,,,,,,,,,,,,,,,,,,,,,,,,,,,,,,,,,,,,,,,,,,,,,,,,,,,,,,,,,,,,,
,,58e8e462a415a4000150c4da,2024-02-22_05h27.22.377,kallum_motion_pilot,2023.2.2,Win32,143.6781609,58e8e462a415a4000150c4da,65d6bb0e977760de756971f7,65d6bed0277b2fdc463d7ec1,0.013,0.013,0,30,30,5,1,threefour,,,,,,,,,,,,,,,,,,,,,,,,,,,,,,,,,,,,,,,,,,,,,,,,,,,,,,,,,,,,,,,,,,,,,,,,,,,,,,,,,,,,,,,,,,,,,,,,,,,,,,,,,,,,,,,,,,,,,,,,,,,,,,,,,,,,,,,,,
,,58e8e462a415a4000150c4da,2024-02-22_05h27.22.377,kallum_motion_pilot,2023.2.2,Win32,143.6781609,58e8e462a415a4000150c4da,65d6bb0e977760de756971f7,65d6bed0277b2fdc463d7ec1,0.014,0.014,0,31,31,136,1,fivesix,,,,,,,,,,,,,,,,,,,,,,,,,,,,,,,,,,,,,,,,,,,,,,,,,,,,,,,,,,,,,,,,,,,,,,,,,,,,,,,,,,,,,,,,,,,,,,,,,,,,,,,,,,,,,,,,,,,,,,,,,,,,,,,,,,,,,,,,,
,,58e8e462a415a4000150c4da,2024-02-22_05h27.22.377,kallum_motion_pilot,2023.2.2,Win32,143.6781609,58e8e462a415a4000150c4da,65d6bb0e977760de756971f7,65d6bed0277b2fdc463d7ec1,0.014,0.014,0,32,32,58,1,twoone,,,,,,,,,,,,,,,,,,,,,,,,,,,,,,,,,,,,,,,,,,,,,,,,,,,,,,,,,,,,,,,,,,,,,,,,,,,,,,,,,,,,,,,,,,,,,,,,,,,,,,,,,,,,,,,,,,,,,,,,,,,,,,,,,,,,,,,,,
,,58e8e462a415a4000150c4da,2024-02-22_05h27.22.377,kallum_motion_pilot,2023.2.2,Win32,143.6781609,58e8e462a415a4000150c4da,65d6bb0e977760de756971f7,65d6bed0277b2fdc463d7ec1,0.014,0.014,0,33,33,46,1,fourtwo,,,,,,,,,,,,,,,,,,,,,,,,,,,,,,,,,,,,,,,,,,,,,,,,,,,,,,,,,,,,,,,,,,,,,,,,,,,,,,,,,,,,,,,,,,,,,,,,,,,,,,,,,,,,,,,,,,,,,,,,,,,,,,,,,,,,,,,,,
,,58e8e462a415a4000150c4da,2024-02-22_05h27.22.377,kallum_motion_pilot,2023.2.2,Win32,143.6781609,58e8e462a415a4000150c4da,65d6bb0e977760de756971f7,65d6bed0277b2fdc463d7ec1,0.014,0.014,0,34,34,87,1,eightseven,,,,,,,,,,,,,,,,,,,,,,,,,,,,,,,,,,,,,,,,,,,,,,,,,,,,,,,,,,,,,,,,,,,,,,,,,,,,,,,,,,,,,,,,,,,,,,,,,,,,,,,,,,,,,,,,,,,,,,,,,,,,,,,,,,,,,,,,,
,,58e8e462a415a4000150c4da,2024-02-22_05h27.22.377,kallum_motion_pilot,2023.2.2,Win32,143.6781609,58e8e462a415a4000150c4da,65d6bb0e977760de756971f7,65d6bed0277b2fdc463d7ec1,0.014,0.014,0,35,35,90,1,sixfive,,,,,,,,,,,,,,,,,,,,,,,,,,,,,,,,,,,,,,,,,,,,,,,,,,,,,,,,,,,,,,,,,,,,,,,,,,,,,,,,,,,,,,,,,,,,,,,,,,,,,,,,,,,,,,,,,,,,,,,,,,,,,,,,,,,,,,,,,
,,58e8e462a415a4000150c4da,2024-02-22_05h27.22.377,kallum_motion_pilot,2023.2.2,Win32,143.6781609,58e8e462a415a4000150c4da,65d6bb0e977760de756971f7,65d6bed0277b2fdc463d7ec1,0.014,0.014,0,36,36,81,1,fiveseven,,,,,,,,,,,,,,,,,,,,,,,,,,,,,,,,,,,,,,,,,,,,,,,,,,,,,,,,,,,,,,,,,,,,,,,,,,,,,,,,,,,,,,,,,,,,,,,,,,,,,,,,,,,,,,,,,,,,,,,,,,,,,,,,,,,,,,,,,
,,58e8e462a415a4000150c4da,2024-02-22_05h27.22.377,kallum_motion_pilot,2023.2.2,Win32,143.6781609,58e8e462a415a4000150c4da,65d6bb0e977760de756971f7,65d6bed0277b2fdc463d7ec1,0.014,0.014,0,37,37,150,1,eightsix,,,,,,,,,,,,,,,,,,,,,,,,,,,,,,,,,,,,,,,,,,,,,,,,,,,,,,,,,,,,,,,,,,,,,,,,,,,,,,,,,,,,,,,,,,,,,,,,,,,,,,,,,,,,,,,,,,,,,,,,,,,,,,,,,,,,,,,,,
,,58e8e462a415a4000150c4da,2024-02-22_05h27.22.377,kallum_motion_pilot,2023.2.2,Win32,143.6781609,58e8e462a415a4000150c4da,65d6bb0e977760de756971f7,65d6bed0277b2fdc463d7ec1,0.014,0.014,0,38,38,111,1,eightseven,,,,,,,,,,,,,,,,,,,,,,,,,,,,,,,,,,,,,,,,,,,,,,,,,,,,,,,,,,,,,,,,,,,,,,,,,,,,,,,,,,,,,,,,,,,,,,,,,,,,,,,,,,,,,,,,,,,,,,,,,,,,,,,,,,,,,,,,,
,,58e8e462a415a4000150c4da,2024-02-22_05h27.22.377,kallum_motion_pilot,2023.2.2,Win32,143.6781609,58e8e462a415a4000150c4da,65d6bb0e977760de756971f7,65d6bed0277b2fdc463d7ec1,0.014,0.014,0,39,39,158,1,eightsix,,,,,,,,,,,,,,,,,,,,,,,,,,,,,,,,,,,,,,,,,,,,,,,,,,,,,,,,,,,,,,,,,,,,,,,,,,,,,,,,,,,,,,,,,,,,,,,,,,,,,,,,,,,,,,,,,,,,,,,,,,,,,,,,,,,,,,,,,
,,58e8e462a415a4000150c4da,2024-02-22_05h27.22.377,kallum_motion_pilot,2023.2.2,Win32,143.6781609,58e8e462a415a4000150c4da,65d6bb0e977760de756971f7,65d6bed0277b2fdc463d7ec1,0.014,0.014,0,40,40,54,1,fourtwo,,,,,,,,,,,,,,,,,,,,,,,,,,,,,,,,,,,,,,,,,,,,,,,,,,,,,,,,,,,,,,,,,,,,,,,,,,,,,,,,,,,,,,,,,,,,,,,,,,,,,,,,,,,,,,,,,,,,,,,,,,,,,,,,,,,,,,,,,
,,58e8e462a415a4000150c4da,2024-02-22_05h27.22.377,kallum_motion_pilot,2023.2.2,Win32,143.6781609,58e8e462a415a4000150c4da,65d6bb0e977760de756971f7,65d6bed0277b2fdc463d7ec1,0.014,0.014,0,41,41,64,1,onetwo,,,,,,,,,,,,,,,,,,,,,,,,,,,,,,,,,,,,,,,,,,,,,,,,,,,,,,,,,,,,,,,,,,,,,,,,,,,,,,,,,,,,,,,,,,,,,,,,,,,,,,,,,,,,,,,,,,,,,,,,,,,,,,,,,,,,,,,,,
,,58e8e462a415a4000150c4da,2024-02-22_05h27.22.377,kallum_motion_pilot,2023.2.2,Win32,143.6781609,58e8e462a415a4000150c4da,65d6bb0e977760de756971f7,65d6bed0277b2fdc463d7ec1,0.014,0.014,0,42,42,105,1,fiveseven,,,,,,,,,,,,,,,,,,,,,,,,,,,,,,,,,,,,,,,,,,,,,,,,,,,,,,,,,,,,,,,,,,,,,,,,,,,,,,,,,,,,,,,,,,,,,,,,,,,,,,,,,,,,,,,,,,,,,,,,,,,,,,,,,,,,,,,,,
,,58e8e462a415a4000150c4da,2024-02-22_05h27.22.377,kallum_motion_pilot,2023.2.2,Win32,143.6781609,58e8e462a415a4000150c4da,65d6bb0e977760de756971f7,65d6bed0277b2fdc463d7ec1,0.014,0.014,0,43,43,44,1,threeone,,,,,,,,,,,,,,,,,,,,,,,,,,,,,,,,,,,,,,,,,,,,,,,,,,,,,,,,,,,,,,,,,,,,,,,,,,,,,,,,,,,,,,,,,,,,,,,,,,,,,,,,,,,,,,,,,,,,,,,,,,,,,,,,,,,,,,,,,
,,58e8e462a415a4000150c4da,2024-02-22_05h27.22.377,kallum_motion_pilot,2023.2.2,Win32,143.6781609,58e8e462a415a4000150c4da,65d6bb0e977760de756971f7,65d6bed0277b2fdc463d7ec1,0.014,0.014,0,44,44,142,1,eightsix,,,,,,,,,,,,,,,,,,,,,,,,,,,,,,,,,,,,,,,,,,,,,,,,,,,,,,,,,,,,,,,,,,,,,,,,,,,,,,,,,,,,,,,,,,,,,,,,,,,,,,,,,,,,,,,,,,,,,,,,,,,,,,,,,,,,,,,,,
,,58e8e462a415a4000150c4da,2024-02-22_05h27.22.377,kallum_motion_pilot,2023.2.2,Win32,143.6781609,58e8e462a415a4000150c4da,65d6bb0e977760de756971f7,65d6bed0277b2fdc463d7ec1,0.014,0.014,0,45,45,83,1,sixeight,,,,,,,,,,,,,,,,,,,,,,,,,,,,,,,,,,,,,,,,,,,,,,,,,,,,,,,,,,,,,,,,,,,,,,,,,,,,,,,,,,,,,,,,,,,,,,,,,,,,,,,,,,,,,,,,,,,,,,,,,,,,,,,,,,,,,,,,,
,,58e8e462a415a4000150c4da,2024-02-22_05h27.22.377,kallum_motion_pilot,2023.2.2,Win32,143.6781609,58e8e462a415a4000150c4da,65d6bb0e977760de756971f7,65d6bed0277b2fdc463d7ec1,0.014,0.014,0,46,46,85,1,seveneight,,,,,,,,,,,,,,,,,,,,,,,,,,,,,,,,,,,,,,,,,,,,,,,,,,,,,,,,,,,,,,,,,,,,,,,,,,,,,,,,,,,,,,,,,,,,,,,,,,,,,,,,,,,,,,,,,,,,,,,,,,,,,,,,,,,,,,,,,
,,58e8e462a415a4000150c4da,2024-02-22_05h27.22.377,kallum_motion_pilot,2023.2.2,Win32,143.6781609,58e8e462a415a4000150c4da,65d6bb0e977760de756971f7,65d6bed0277b2fdc463d7ec1,0.014,0.014,0,47,47,84,1,sevenfive,,,,,,,,,,,,,,,,,,,,,,,,,,,,,,,,,,,,,,,,,,,,,,,,,,,,,,,,,,,,,,,,,,,,,,,,,,,,,,,,,,,,,,,,,,,,,,,,,,,,,,,,,,,,,,,,,,,,,,,,,,,,,,,,,,,,,,,,,
,,58e8e462a415a4000150c4da,2024-02-22_05h27.22.377,kallum_motion_pilot,2023.2.2,Win32,143.6781609,58e8e462a415a4000150c4da,65d6bb0e977760de756971f7,65d6bed0277b2fdc463d7ec1,0.014,0.014,0,48,48,2,1,twoone,,,,,,,,,,,,,,,,,,,,,,,,,,,,,,,,,,,,,,,,,,,,,,,,,,,,,,,,,,,,,,,,,,,,,,,,,,,,,,,,,,,,,,,,,,,,,,,,,,,,,,,,,,,,,,,,,,,,,,,,,,,,,,,,,,,,,,,,,
,,58e8e462a415a4000150c4da,2024-02-22_05h27.22.377,kallum_motion_pilot,2023.2.2,Win32,143.6781609,58e8e462a415a4000150c4da,65d6bb0e977760de756971f7,65d6bed0277b2fdc463d7ec1,0.014,0.014,0,49,49,53,1,threefour,,,,,,,,,,,,,,,,,,,,,,,,,,,,,,,,,,,,,,,,,,,,,,,,,,,,,,,,,,,,,,,,,,,,,,,,,,,,,,,,,,,,,,,,,,,,,,,,,,,,,,,,,,,,,,,,,,,,,,,,,,,,,,,,,,,,,,,,,
,,58e8e462a415a4000150c4da,2024-02-22_05h27.22.377,kallum_motion_pilot,2023.2.2,Win32,143.6781609,58e8e462a415a4000150c4da,65d6bb0e977760de756971f7,65d6bed0277b2fdc463d7ec1,0.014,0.014,0,50,50,79,1,eightseven,,,,,,,,,,,,,,,,,,,,,,,,,,,,,,,,,,,,,,,,,,,,,,,,,,,,,,,,,,,,,,,,,,,,,,,,,,,,,,,,,,,,,,,,,,,,,,,,,,,,,,,,,,,,,,,,,,,,,,,,,,,,,,,,,,,,,,,,,
,,58e8e462a415a4000150c4da,2024-02-22_05h27.22.377,kallum_motion_pilot,2023.2.2,Win32,143.6781609,58e8e462a415a4000150c4da,65d6bb0e977760de756971f7,65d6bed0277b2fdc463d7ec1,0.014,0.014,0,51,51,21,1,threefour,,,,,,,,,,,,,,,,,,,,,,,,,,,,,,,,,,,,,,,,,,,,,,,,,,,,,,,,,,,,,,,,,,,,,,,,,,,,,,,,,,,,,,,,,,,,,,,,,,,,,,,,,,,,,,,,,,,,,,,,,,,,,,,,,,,,,,,,,
,,58e8e462a415a4000150c4da,2024-02-22_05h27.22.377,kallum_motion_pilot,2023.2.2,Win32,143.6781609,58e8e462a415a4000150c4da,65d6bb0e977760de756971f7,65d6bed0277b2fdc463d7ec1,0.014,0.014,0,52,52,97,1,fiveseven,,,,,,,,,,,,,,,,,,,,,,,,,,,,,,,,,,,,,,,,,,,,,,,,,,,,,,,,,,,,,,,,,,,,,,,,,,,,,,,,,,,,,,,,,,,,,,,,,,,,,,,,,,,,,,,,,,,,,,,,,,,,,,,,,,,,,,,,,
,,58e8e462a415a4000150c4da,2024-02-22_05h27.22.377,kallum_motion_pilot,2023.2.2,Win32,143.6781609,58e8e462a415a4000150c4da,65d6bb0e977760de756971f7,65d6bed0277b2fdc463d7ec1,0.015,0.015,0,53,53,104,1,fivesix,,,,,,,,,,,,,,,,,,,,,,,,,,,,,,,,,,,,,,,,,,,,,,,,,,,,,,,,,,,,,,,,,,,,,,,,,,,,,,,,,,,,,,,,,,,,,,,,,,,,,,,,,,,,,,,,,,,,,,,,,,,,,,,,,,,,,,,,,
,,58e8e462a415a4000150c4da,2024-02-22_05h27.22.377,kallum_motion_pilot,2023.2.2,Win32,143.6781609,58e8e462a415a4000150c4da,65d6bb0e977760de756971f7,65d6bed0277b2fdc463d7ec1,0.015,0.015,0,54,54,77,1,threefour,,,,,,,,,,,,,,,,,,,,,,,,,,,,,,,,,,,,,,,,,,,,,,,,,,,,,,,,,,,,,,,,,,,,,,,,,,,,,,,,,,,,,,,,,,,,,,,,,,,,,,,,,,,,,,,,,,,,,,,,,,,,,,,,,,,,,,,,,
,,58e8e462a415a4000150c4da,2024-02-22_05h27.22.377,kallum_motion_pilot,2023.2.2,Win32,143.6781609,58e8e462a415a4000150c4da,65d6bb0e977760de756971f7,65d6bed0277b2fdc463d7ec1,0.015,0.015,0,55,55,140,1,sevenfive,,,,,,,,,,,,,,,,,,,,,,,,,,,,,,,,,,,,,,,,,,,,,,,,,,,,,,,,,,,,,,,,,,,,,,,,,,,,,,,,,,,,,,,,,,,,,,,,,,,,,,,,,,,,,,,,,,,,,,,,,,,,,,,,,,,,,,,,,
,,58e8e462a415a4000150c4da,2024-02-22_05h27.22.377,kallum_motion_pilot,2023.2.2,Win32,143.6781609,58e8e462a415a4000150c4da,65d6bb0e977760de756971f7,65d6bed0277b2fdc463d7ec1,0.015,0.015,0,56,56,154,1,sixfive,,,,,,,,,,,,,,,,,,,,,,,,,,,,,,,,,,,,,,,,,,,,,,,,,,,,,,,,,,,,,,,,,,,,,,,,,,,,,,,,,,,,,,,,,,,,,,,,,,,,,,,,,,,,,,,,,,,,,,,,,,,,,,,,,,,,,,,,,
,,58e8e462a415a4000150c4da,2024-02-22_05h27.22.377,kallum_motion_pilot,2023.2.2,Win32,143.6781609,58e8e462a415a4000150c4da,65d6bb0e977760de756971f7,65d6bed0277b2fdc463d7ec1,0.015,0.015,0,57,57,55,1,fourthree,,,,,,,,,,,,,,,,,,,,,,,,,,,,,,,,,,,,,,,,,,,,,,,,,,,,,,,,,,,,,,,,,,,,,,,,,,,,,,,,,,,,,,,,,,,,,,,,,,,,,,,,,,,,,,,,,,,,,,,,,,,,,,,,,,,,,,,,,
,,58e8e462a415a4000150c4da,2024-02-22_05h27.22.377,kallum_motion_pilot,2023.2.2,Win32,143.6781609,58e8e462a415a4000150c4da,65d6bb0e977760de756971f7,65d6bed0277b2fdc463d7ec1,0.015,0.015,0,58,58,62,1,fourtwo,,,,,,,,,,,,,,,,,,,,,,,,,,,,,,,,,,,,,,,,,,,,,,,,,,,,,,,,,,,,,,,,,,,,,,,,,,,,,,,,,,,,,,,,,,,,,,,,,,,,,,,,,,,,,,,,,,,,,,,,,,,,,,,,,,,,,,,,,
,,58e8e462a415a4000150c4da,2024-02-22_05h27.22.377,kallum_motion_pilot,2023.2.2,Win32,143.6781609,58e8e462a415a4000150c4da,65d6bb0e977760de756971f7,65d6bed0277b2fdc463d7ec1,0.015,0.015,0,59,59,60,1,threeone,,,,,,,,,,,,,,,,,,,,,,,,,,,,,,,,,,,,,,,,,,,,,,,,,,,,,,,,,,,,,,,,,,,,,,,,,,,,,,,,,,,,,,,,,,,,,,,,,,,,,,,,,,,,,,,,,,,,,,,,,,,,,,,,,,,,,,,,,
,,58e8e462a415a4000150c4da,2024-02-22_05h27.22.377,kallum_motion_pilot,2023.2.2,Win32,143.6781609,58e8e462a415a4000150c4da,65d6bb0e977760de756971f7,65d6bed0277b2fdc463d7ec1,0.015,0.015,0,60,60,16,1,onetwo,,,,,,,,,,,,,,,,,,,,,,,,,,,,,,,,,,,,,,,,,,,,,,,,,,,,,,,,,,,,,,,,,,,,,,,,,,,,,,,,,,,,,,,,,,,,,,,,,,,,,,,,,,,,,,,,,,,,,,,,,,,,,,,,,,,,,,,,,
,,58e8e462a415a4000150c4da,2024-02-22_05h27.22.377,kallum_motion_pilot,2023.2.2,Win32,143.6781609,58e8e462a415a4000150c4da,65d6bb0e977760de756971f7,65d6bed0277b2fdc463d7ec1,0.015,0.015,0,61,61,20,1,threeone,,,,,,,,,,,,,,,,,,,,,,,,,,,,,,,,,,,,,,,,,,,,,,,,,,,,,,,,,,,,,,,,,,,,,,,,,,,,,,,,,,,,,,,,,,,,,,,,,,,,,,,,,,,,,,,,,,,,,,,,,,,,,,,,,,,,,,,,,
,,58e8e462a415a4000150c4da,2024-02-22_05h27.22.377,kallum_motion_pilot,2023.2.2,Win32,143.6781609,58e8e462a415a4000150c4da,65d6bb0e977760de756971f7,65d6bed0277b2fdc463d7ec1,0.015,0.015,0,62,62,47,1,fourthree,,,,,,,,,,,,,,,,,,,,,,,,,,,,,,,,,,,,,,,,,,,,,,,,,,,,,,,,,,,,,,,,,,,,,,,,,,,,,,,,,,,,,,,,,,,,,,,,,,,,,,,,,,,,,,,,,,,,,,,,,,,,,,,,,,,,,,,,,
,,58e8e462a415a4000150c4da,2024-02-22_05h27.22.377,kallum_motion_pilot,2023.2.2,Win32,143.6781609,58e8e462a415a4000150c4da,65d6bb0e977760de756971f7,65d6bed0277b2fdc463d7ec1,0.015,0.015,0,63,63,1,1,onethree,,,,,,,,,,,,,,,,,,,,,,,,,,,,,,,,,,,,,,,,,,,,,,,,,,,,,,,,,,,,,,,,,,,,,,,,,,,,,,,,,,,,,,,,,,,,,,,,,,,,,,,,,,,,,,,,,,,,,,,,,,,,,,,,,,,,,,,,,
,,58e8e462a415a4000150c4da,2024-02-22_05h27.22.377,kallum_motion_pilot,2023.2.2,Win32,143.6781609,58e8e462a415a4000150c4da,65d6bb0e977760de756971f7,65d6bed0277b2fdc463d7ec1,0.015,0.015,0,64,64,91,1,sixeight,,,,,,,,,,,,,,,,,,,,,,,,,,,,,,,,,,,,,,,,,,,,,,,,,,,,,,,,,,,,,,,,,,,,,,,,,,,,,,,,,,,,,,,,,,,,,,,,,,,,,,,,,,,,,,,,,,,,,,,,,,,,,,,,,,,,,,,,,
,,58e8e462a415a4000150c4da,2024-02-22_05h27.22.377,kallum_motion_pilot,2023.2.2,Win32,143.6781609,58e8e462a415a4000150c4da,65d6bb0e977760de756971f7,65d6bed0277b2fdc463d7ec1,0.015,0.015,0,65,65,130,1,sixfive,,,,,,,,,,,,,,,,,,,,,,,,,,,,,,,,,,,,,,,,,,,,,,,,,,,,,,,,,,,,,,,,,,,,,,,,,,,,,,,,,,,,,,,,,,,,,,,,,,,,,,,,,,,,,,,,,,,,,,,,,,,,,,,,,,,,,,,,,
,,58e8e462a415a4000150c4da,2024-02-22_05h27.22.377,kallum_motion_pilot,2023.2.2,Win32,143.6781609,58e8e462a415a4000150c4da,65d6bb0e977760de756971f7,65d6bed0277b2fdc463d7ec1,0.015,0.015,0,66,66,148,1,sevenfive,,,,,,,,,,,,,,,,,,,,,,,,,,,,,,,,,,,,,,,,,,,,,,,,,,,,,,,,,,,,,,,,,,,,,,,,,,,,,,,,,,,,,,,,,,,,,,,,,,,,,,,,,,,,,,,,,,,,,,,,,,,,,,,,,,,,,,,,,
,,58e8e462a415a4000150c4da,2024-02-22_05h27.22.377,kallum_motion_pilot,2023.2.2,Win32,143.6781609,58e8e462a415a4000150c4da,65d6bb0e977760de756971f7,65d6bed0277b2fdc463d7ec1,0.015,0.015,0,67,67,11,1,twofour,,,,,,,,,,,,,,,,,,,,,,,,,,,,,,,,,,,,,,,,,,,,,,,,,,,,,,,,,,,,,,,,,,,,,,,,,,,,,,,,,,,,,,,,,,,,,,,,,,,,,,,,,,,,,,,,,,,,,,,,,,,,,,,,,,,,,,,,,
,,58e8e462a415a4000150c4da,2024-02-22_05h27.22.377,kallum_motion_pilot,2023.2.2,Win32,143.6781609,58e8e462a415a4000150c4da,65d6bb0e977760de756971f7,65d6bed0277b2fdc463d7ec1,0.015,0.015,0,68,68,41,1,onethree,,,,,,,,,,,,,,,,,,,,,,,,,,,,,,,,,,,,,,,,,,,,,,,,,,,,,,,,,,,,,,,,,,,,,,,,,,,,,,,,,,,,,,,,,,,,,,,,,,,,,,,,,,,,,,,,,,,,,,,,,,,,,,,,,,,,,,,,,
,,58e8e462a415a4000150c4da,2024-02-22_05h27.22.377,kallum_motion_pilot,2023.2.2,Win32,143.6781609,58e8e462a415a4000150c4da,65d6bb0e977760de756971f7,65d6bed0277b2fdc463d7ec1,0.015,0.015,0,69,69,147,1,sixeight,,,,,,,,,,,,,,,,,,,,,,,,,,,,,,,,,,,,,,,,,,,,,,,,,,,,,,,,,,,,,,,,,,,,,,,,,,,,,,,,,,,,,,,,,,,,,,,,,,,,,,,,,,,,,,,,,,,,,,,,,,,,,,,,,,,,,,,,,
,,58e8e462a415a4000150c4da,2024-02-22_05h27.22.377,kallum_motion_pilot,2023.2.2,Win32,143.6781609,58e8e462a415a4000150c4da,65d6bb0e977760de756971f7,65d6bed0277b2fdc463d7ec1,0.015,0.015,0,70,70,114,1,sixfive,,,,,,,,,,,,,,,,,,,,,,,,,,,,,,,,,,,,,,,,,,,,,,,,,,,,,,,,,,,,,,,,,,,,,,,,,,,,,,,,,,,,,,,,,,,,,,,,,,,,,,,,,,,,,,,,,,,,,,,,,,,,,,,,,,,,,,,,,
,,58e8e462a415a4000150c4da,2024-02-22_05h27.22.377,kallum_motion_pilot,2023.2.2,Win32,143.6781609,58e8e462a415a4000150c4da,65d6bb0e977760de756971f7,65d6bed0277b2fdc463d7ec1,0.015,0.015,0,71,71,18,1,twoone,,,,,,,,,,,,,,,,,,,,,,,,,,,,,,,,,,,,,,,,,,,,,,,,,,,,,,,,,,,,,,,,,,,,,,,,,,,,,,,,,,,,,,,,,,,,,,,,,,,,,,,,,,,,,,,,,,,,,,,,,,,,,,,,,,,,,,,,,
,,58e8e462a415a4000150c4da,2024-02-22_05h27.22.377,kallum_motion_pilot,2023.2.2,Win32,143.6781609,58e8e462a415a4000150c4da,65d6bb0e977760de756971f7,65d6bed0277b2fdc463d7ec1,0.015,0.015,0,72,72,103,1,eightseven,,,,,,,,,,,,,,,,,,,,,,,,,,,,,,,,,,,,,,,,,,,,,,,,,,,,,,,,,,,,,,,,,,,,,,,,,,,,,,,,,,,,,,,,,,,,,,,,,,,,,,,,,,,,,,,,,,,,,,,,,,,,,,,,,,,,,,,,,
,,58e8e462a415a4000150c4da,2024-02-22_05h27.22.377,kallum_motion_pilot,2023.2.2,Win32,143.6781609,58e8e462a415a4000150c4da,65d6bb0e977760de756971f7,65d6bed0277b2fdc463d7ec1,0.015,0.015,0,73,73,7,1,fourthree,,,,,,,,,,,,,,,,,,,,,,,,,,,,,,,,,,,,,,,,,,,,,,,,,,,,,,,,,,,,,,,,,,,,,,,,,,,,,,,,,,,,,,,,,,,,,,,,,,,,,,,,,,,,,,,,,,,,,,,,,,,,,,,,,,,,,,,,,
,,58e8e462a415a4000150c4da,2024-02-22_05h27.22.377,kallum_motion_pilot,2023.2.2,Win32,143.6781609,58e8e462a415a4000150c4da,65d6bb0e977760de756971f7,65d6bed0277b2fdc463d7ec1,0.015,0.015,0,74,74,122,1,sixfive,,,,,,,,,,,,,,,,,,,,,,,,,,,,,,,,,,,,,,,,,,,,,,,,,,,,,,,,,,,,,,,,,,,,,,,,,,,,,,,,,,,,,,,,,,,,,,,,,,,,,,,,,,,,,,,,,,,,,,,,,,,,,,,,,,,,,,,,,
,,58e8e462a415a4000150c4da,2024-02-22_05h27.22.377,kallum_motion_pilot,2023.2.2,Win32,143.6781609,58e8e462a415a4000150c4da,65d6bb0e977760de756971f7,65d6bed0277b2fdc463d7ec1,0.015,0.015,0,75,75,4,1,threeone,,,,,,,,,,,,,,,,,,,,,,,,,,,,,,,,,,,,,,,,,,,,,,,,,,,,,,,,,,,,,,,,,,,,,,,,,,,,,,,,,,,,,,,,,,,,,,,,,,,,,,,,,,,,,,,,,,,,,,,,,,,,,,,,,,,,,,,,,
,,58e8e462a415a4000150c4da,2024-02-22_05h27.22.377,kallum_motion_pilot,2023.2.2,Win32,143.6781609,58e8e462a415a4000150c4da,65d6bb0e977760de756971f7,65d6bed0277b2fdc463d7ec1,0.016,0.016,0,76,76,74,1,twoone,,,,,,,,,,,,,,,,,,,,,,,,,,,,,,,,,,,,,,,,,,,,,,,,,,,,,,,,,,,,,,,,,,,,,,,,,,,,,,,,,,,,,,,,,,,,,,,,,,,,,,,,,,,,,,,,,,,,,,,,,,,,,,,,,,,,,,,,,
,,58e8e462a415a4000150c4da,2024-02-22_05h27.22.377,kallum_motion_pilot,2023.2.2,Win32,143.6781609,58e8e462a415a4000150c4da,65d6bb0e977760de756971f7,65d6bed0277b2fdc463d7ec1,0.016,0.016,0,77,77,36,1,threeone,,,,,,,,,,,,,,,,,,,,,,,,,,,,,,,,,,,,,,,,,,,,,,,,,,,,,,,,,,,,,,,,,,,,,,,,,,,,,,,,,,,,,,,,,,,,,,,,,,,,,,,,,,,,,,,,,,,,,,,,,,,,,,,,,,,,,,,,,
,,58e8e462a415a4000150c4da,2024-02-22_05h27.22.377,kallum_motion_pilot,2023.2.2,Win32,143.6781609,58e8e462a415a4000150c4da,65d6bb0e977760de756971f7,65d6bed0277b2fdc463d7ec1,0.016,0.016,0,78,78,30,1,fourtwo,,,,,,,,,,,,,,,,,,,,,,,,,,,,,,,,,,,,,,,,,,,,,,,,,,,,,,,,,,,,,,,,,,,,,,,,,,,,,,,,,,,,,,,,,,,,,,,,,,,,,,,,,,,,,,,,,,,,,,,,,,,,,,,,,,,,,,,,,
,,58e8e462a415a4000150c4da,2024-02-22_05h27.22.377,kallum_motion_pilot,2023.2.2,Win32,143.6781609,58e8e462a415a4000150c4da,65d6bb0e977760de756971f7,65d6bed0277b2fdc463d7ec1,0.016,0.016,0,79,79,107,1,sixeight,,,,,,,,,,,,,,,,,,,,,,,,,,,,,,,,,,,,,,,,,,,,,,,,,,,,,,,,,,,,,,,,,,,,,,,,,,,,,,,,,,,,,,,,,,,,,,,,,,,,,,,,,,,,,,,,,,,,,,,,,,,,,,,,,,,,,,,,,
,,58e8e462a415a4000150c4da,2024-02-22_05h27.22.377,kallum_motion_pilot,2023.2.2,Win32,143.6781609,58e8e462a415a4000150c4da,65d6bb0e977760de756971f7,65d6bed0277b2fdc463d7ec1,0.016,0.016,0,80,80,117,1,seveneight,,,,,,,,,,,,,,,,,,,,,,,,,,,,,,,,,,,,,,,,,,,,,,,,,,,,,,,,,,,,,,,,,,,,,,,,,,,,,,,,,,,,,,,,,,,,,,,,,,,,,,,,,,,,,,,,,,,,,,,,,,,,,,,,,,,,,,,,,
,,58e8e462a415a4000150c4da,2024-02-22_05h27.22.377,kallum_motion_pilot,2023.2.2,Win32,143.6781609,58e8e462a415a4000150c4da,65d6bb0e977760de756971f7,65d6bed0277b2fdc463d7ec1,0.016,0.016,0,81,81,99,1,sixeight,,,,,,,,,,,,,,,,,,,,,,,,,,,,,,,,,,,,,,,,,,,,,,,,,,,,,,,,,,,,,,,,,,,,,,,,,,,,,,,,,,,,,,,,,,,,,,,,,,,,,,,,,,,,,,,,,,,,,,,,,,,,,,,,,,,,,,,,,
,,58e8e462a415a4000150c4da,2024-02-22_05h27.22.377,kallum_motion_pilot,2023.2.2,Win32,143.6781609,58e8e462a415a4000150c4da,65d6bb0e977760de756971f7,65d6bed0277b2fdc463d7ec1,0.016,0.016,0,82,82,102,1,eightsix,,,,,,,,,,,,,,,,,,,,,,,,,,,,,,,,,,,,,,,,,,,,,,,,,,,,,,,,,,,,,,,,,,,,,,,,,,,,,,,,,,,,,,,,,,,,,,,,,,,,,,,,,,,,,,,,,,,,,,,,,,,,,,,,,,,,,,,,,
,,58e8e462a415a4000150c4da,2024-02-22_05h27.22.377,kallum_motion_pilot,2023.2.2,Win32,143.6781609,58e8e462a415a4000150c4da,65d6bb0e977760de756971f7,65d6bed0277b2fdc463d7ec1,0.016,0.016,0,83,83,120,1,fivesix,,,,,,,,,,,,,,,,,,,,,,,,,,,,,,,,,,,,,,,,,,,,,,,,,,,,,,,,,,,,,,,,,,,,,,,,,,,,,,,,,,,,,,,,,,,,,,,,,,,,,,,,,,,,,,,,,,,,,,,,,,,,,,,,,,,,,,,,,
,,58e8e462a415a4000150c4da,2024-02-22_05h27.22.377,kallum_motion_pilot,2023.2.2,Win32,143.6781609,58e8e462a415a4000150c4da,65d6bb0e977760de756971f7,65d6bed0277b2fdc463d7ec1,0.016,0.016,0,84,84,110,1,eightsix,,,,,,,,,,,,,,,,,,,,,,,,,,,,,,,,,,,,,,,,,,,,,,,,,,,,,,,,,,,,,,,,,,,,,,,,,,,,,,,,,,,,,,,,,,,,,,,,,,,,,,,,,,,,,,,,,,,,,,,,,,,,,,,,,,,,,,,,,
,,58e8e462a415a4000150c4da,2024-02-22_05h27.22.377,kallum_motion_pilot,2023.2.2,Win32,143.6781609,58e8e462a415a4000150c4da,65d6bb0e977760de756971f7,65d6bed0277b2fdc463d7ec1,0.016,0.016,0,85,85,56,1,onetwo,,,,,,,,,,,,,,,,,,,,,,,,,,,,,,,,,,,,,,,,,,,,,,,,,,,,,,,,,,,,,,,,,,,,,,,,,,,,,,,,,,,,,,,,,,,,,,,,,,,,,,,,,,,,,,,,,,,,,,,,,,,,,,,,,,,,,,,,,
,,58e8e462a415a4000150c4da,2024-02-22_05h27.22.377,kallum_motion_pilot,2023.2.2,Win32,143.6781609,58e8e462a415a4000150c4da,65d6bb0e977760de756971f7,65d6bed0277b2fdc463d7ec1,0.016,0.016,0,86,86,153,1,fiveseven,,,,,,,,,,,,,,,,,,,,,,,,,,,,,,,,,,,,,,,,,,,,,,,,,,,,,,,,,,,,,,,,,,,,,,,,,,,,,,,,,,,,,,,,,,,,,,,,,,,,,,,,,,,,,,,,,,,,,,,,,,,,,,,,,,,,,,,,,
,,58e8e462a415a4000150c4da,2024-02-22_05h27.22.377,kallum_motion_pilot,2023.2.2,Win32,143.6781609,58e8e462a415a4000150c4da,65d6bb0e977760de756971f7,65d6bed0277b2fdc463d7ec1,0.016,0.016,0,87,87,26,1,twoone,,,,,,,,,,,,,,,,,,,,,,,,,,,,,,,,,,,,,,,,,,,,,,,,,,,,,,,,,,,,,,,,,,,,,,,,,,,,,,,,,,,,,,,,,,,,,,,,,,,,,,,,,,,,,,,,,,,,,,,,,,,,,,,,,,,,,,,,,
,,58e8e462a415a4000150c4da,2024-02-22_05h27.22.377,kallum_motion_pilot,2023.2.2,Win32,143.6781609,58e8e462a415a4000150c4da,65d6bb0e977760de756971f7,65d6bed0277b2fdc463d7ec1,0.016,0.016,0,88,88,38,1,fourtwo,,,,,,,,,,,,,,,,,,,,,,,,,,,,,,,,,,,,,,,,,,,,,,,,,,,,,,,,,,,,,,,,,,,,,,,,,,,,,,,,,,,,,,,,,,,,,,,,,,,,,,,,,,,,,,,,,,,,,,,,,,,,,,,,,,,,,,,,,
,,58e8e462a415a4000150c4da,2024-02-22_05h27.22.377,kallum_motion_pilot,2023.2.2,Win32,143.6781609,58e8e462a415a4000150c4da,65d6bb0e977760de756971f7,65d6bed0277b2fdc463d7ec1,0.016,0.016,0,89,89,101,1,seveneight,,,,,,,,,,,,,,,,,,,,,,,,,,,,,,,,,,,,,,,,,,,,,,,,,,,,,,,,,,,,,,,,,,,,,,,,,,,,,,,,,,,,,,,,,,,,,,,,,,,,,,,,,,,,,,,,,,,,,,,,,,,,,,,,,,,,,,,,,
,,58e8e462a415a4000150c4da,2024-02-22_05h27.22.377,kallum_motion_pilot,2023.2.2,Win32,143.6781609,58e8e462a415a4000150c4da,65d6bb0e977760de756971f7,65d6bed0277b2fdc463d7ec1,0.016,0.016,0,90,90,141,1,seveneight,,,,,,,,,,,,,,,,,,,,,,,,,,,,,,,,,,,,,,,,,,,,,,,,,,,,,,,,,,,,,,,,,,,,,,,,,,,,,,,,,,,,,,,,,,,,,,,,,,,,,,,,,,,,,,,,,,,,,,,,,,,,,,,,,,,,,,,,,
,,58e8e462a415a4000150c4da,2024-02-22_05h27.22.377,kallum_motion_pilot,2023.2.2,Win32,143.6781609,58e8e462a415a4000150c4da,65d6bb0e977760de756971f7,65d6bed0277b2fdc463d7ec1,0.016,0.016,0,91,91,14,1,fourtwo,,,,,,,,,,,,,,,,,,,,,,,,,,,,,,,,,,,,,,,,,,,,,,,,,,,,,,,,,,,,,,,,,,,,,,,,,,,,,,,,,,,,,,,,,,,,,,,,,,,,,,,,,,,,,,,,,,,,,,,,,,,,,,,,,,,,,,,,,
,,58e8e462a415a4000150c4da,2024-02-22_05h27.22.377,kallum_motion_pilot,2023.2.2,Win32,143.6781609,58e8e462a415a4000150c4da,65d6bb0e977760de756971f7,65d6bed0277b2fdc463d7ec1,0.016,0.016,0,92,92,134,1,eightsix,,,,,,,,,,,,,,,,,,,,,,,,,,,,,,,,,,,,,,,,,,,,,,,,,,,,,,,,,,,,,,,,,,,,,,,,,,,,,,,,,,,,,,,,,,,,,,,,,,,,,,,,,,,,,,,,,,,,,,,,,,,,,,,,,,,,,,,,,
,,58e8e462a415a4000150c4da,2024-02-22_05h27.22.377,kallum_motion_pilot,2023.2.2,Win32,143.6781609,58e8e462a415a4000150c4da,65d6bb0e977760de756971f7,65d6bed0277b2fdc463d7ec1,0.016,0.016,0,93,93,133,1,seveneight,,,,,,,,,,,,,,,,,,,,,,,,,,,,,,,,,,,,,,,,,,,,,,,,,,,,,,,,,,,,,,,,,,,,,,,,,,,,,,,,,,,,,,,,,,,,,,,,,,,,,,,,,,,,,,,,,,,,,,,,,,,,,,,,,,,,,,,,,
,,58e8e462a415a4000150c4da,2024-02-22_05h27.22.377,kallum_motion_pilot,2023.2.2,Win32,143.6781609,58e8e462a415a4000150c4da,65d6bb0e977760de756971f7,65d6bed0277b2fdc463d7ec1,0.016,0.016,0,94,94,155,1,sixeight,,,,,,,,,,,,,,,,,,,,,,,,,,,,,,,,,,,,,,,,,,,,,,,,,,,,,,,,,,,,,,,,,,,,,,,,,,,,,,,,,,,,,,,,,,,,,,,,,,,,,,,,,,,,,,,,,,,,,,,,,,,,,,,,,,,,,,,,,
,,58e8e462a415a4000150c4da,2024-02-22_05h27.22.377,kallum_motion_pilot,2023.2.2,Win32,143.6781609,58e8e462a415a4000150c4da,65d6bb0e977760de756971f7,65d6bed0277b2fdc463d7ec1,0.016,0.017,0,95,95,125,1,seveneight,,,,,,,,,,,,,,,,,,,,,,,,,,,,,,,,,,,,,,,,,,,,,,,,,,,,,,,,,,,,,,,,,,,,,,,,,,,,,,,,,,,,,,,,,,,,,,,,,,,,,,,,,,,,,,,,,,,,,,,,,,,,,,,,,,,,,,,,,
,,58e8e462a415a4000150c4da,2024-02-22_05h27.22.377,kallum_motion_pilot,2023.2.2,Win32,143.6781609,58e8e462a415a4000150c4da,65d6bb0e977760de756971f7,65d6bed0277b2fdc463d7ec1,0.017,0.017,0,96,96,156,1,sevenfive,,,,,,,,,,,,,,,,,,,,,,,,,,,,,,,,,,,,,,,,,,,,,,,,,,,,,,,,,,,,,,,,,,,,,,,,,,,,,,,,,,,,,,,,,,,,,,,,,,,,,,,,,,,,,,,,,,,,,,,,,,,,,,,,,,,,,,,,,
,,58e8e462a415a4000150c4da,2024-02-22_05h27.22.377,kallum_motion_pilot,2023.2.2,Win32,143.6781609,58e8e462a415a4000150c4da,65d6bb0e977760de756971f7,65d6bed0277b2fdc463d7ec1,0.017,0.017,0,97,97,131,1,sixeight,,,,,,,,,,,,,,,,,,,,,,,,,,,,,,,,,,,,,,,,,,,,,,,,,,,,,,,,,,,,,,,,,,,,,,,,,,,,,,,,,,,,,,,,,,,,,,,,,,,,,,,,,,,,,,,,,,,,,,,,,,,,,,,,,,,,,,,,,
,,58e8e462a415a4000150c4da,2024-02-22_05h27.22.377,kallum_motion_pilot,2023.2.2,Win32,143.6781609,58e8e462a415a4000150c4da,65d6bb0e977760de756971f7,65d6bed0277b2fdc463d7ec1,0.017,0.017,0,98,98,160,1,fivesix,,,,,,,,,,,,,,,,,,,,,,,,,,,,,,,,,,,,,,,,,,,,,,,,,,,,,,,,,,,,,,,,,,,,,,,,,,,,,,,,,,,,,,,,,,,,,,,,,,,,,,,,,,,,,,,,,,,,,,,,,,,,,,,,,,,,,,,,,
,,58e8e462a415a4000150c4da,2024-02-22_05h27.22.377,kallum_motion_pilot,2023.2.2,Win32,143.6781609,58e8e462a415a4000150c4da,65d6bb0e977760de756971f7,65d6bed0277b2fdc463d7ec1,0.017,0.017,0,99,99,138,1,sixfive,,,,,,,,,,,,,,,,,,,,,,,,,,,,,,,,,,,,,,,,,,,,,,,,,,,,,,,,,,,,,,,,,,,,,,,,,,,,,,,,,,,,,,,,,,,,,,,,,,,,,,,,,,,,,,,,,,,,,,,,,,,,,,,,,,,,,,,,,
,,58e8e462a415a4000150c4da,2024-02-22_05h27.22.377,kallum_motion_pilot,2023.2.2,Win32,143.6781609,58e8e462a415a4000150c4da,65d6bb0e977760de756971f7,65d6bed0277b2fdc463d7ec1,0.017,0.017,0,100,100,132,1,sevenfive,,,,,,,,,,,,,,,,,,,,,,,,,,,,,,,,,,,,,,,,,,,,,,,,,,,,,,,,,,,,,,,,,,,,,,,,,,,,,,,,,,,,,,,,,,,,,,,,,,,,,,,,,,,,,,,,,,,,,,,,,,,,,,,,,,,,,,,,,
,,58e8e462a415a4000150c4da,2024-02-22_05h27.22.377,kallum_motion_pilot,2023.2.2,Win32,143.6781609,58e8e462a415a4000150c4da,65d6bb0e977760de756971f7,65d6bed0277b2fdc463d7ec1,0.017,0.017,0,101,101,3,1,twofour,,,,,,,,,,,,,,,,,,,,,,,,,,,,,,,,,,,,,,,,,,,,,,,,,,,,,,,,,,,,,,,,,,,,,,,,,,,,,,,,,,,,,,,,,,,,,,,,,,,,,,,,,,,,,,,,,,,,,,,,,,,,,,,,,,,,,,,,,
,,58e8e462a415a4000150c4da,2024-02-22_05h27.22.377,kallum_motion_pilot,2023.2.2,Win32,143.6781609,58e8e462a415a4000150c4da,65d6bb0e977760de756971f7,65d6bed0277b2fdc463d7ec1,0.017,0.017,0,102,102,9,1,onethree,,,,,,,,,,,,,,,,,,,,,,,,,,,,,,,,,,,,,,,,,,,,,,,,,,,,,,,,,,,,,,,,,,,,,,,,,,,,,,,,,,,,,,,,,,,,,,,,,,,,,,,,,,,,,,,,,,,,,,,,,,,,,,,,,,,,,,,,,
,,58e8e462a415a4000150c4da,2024-02-22_05h27.22.377,kallum_motion_pilot,2023.2.2,Win32,143.6781609,58e8e462a415a4000150c4da,65d6bb0e977760de756971f7,65d6bed0277b2fdc463d7ec1,0.017,0.017,0,103,103,25,1,onethree,,,,,,,,,,,,,,,,,,,,,,,,,,,,,,,,,,,,,,,,,,,,,,,,,,,,,,,,,,,,,,,,,,,,,,,,,,,,,,,,,,,,,,,,,,,,,,,,,,,,,,,,,,,,,,,,,,,,,,,,,,,,,,,,,,,,,,,,,
,,58e8e462a415a4000150c4da,2024-02-22_05h27.22.377,kallum_motion_pilot,2023.2.2,Win32,143.6781609,58e8e462a415a4000150c4da,65d6bb0e977760de756971f7,65d6bed0277b2fdc463d7ec1,0.017,0.017,0,104,104,129,1,fiveseven,,,,,,,,,,,,,,,,,,,,,,,,,,,,,,,,,,,,,,,,,,,,,,,,,,,,,,,,,,,,,,,,,,,,,,,,,,,,,,,,,,,,,,,,,,,,,,,,,,,,,,,,,,,,,,,,,,,,,,,,,,,,,,,,,,,,,,,,,
,,58e8e462a415a4000150c4da,2024-02-22_05h27.22.377,kallum_motion_pilot,2023.2.2,Win32,143.6781609,58e8e462a415a4000150c4da,65d6bb0e977760de756971f7,65d6bed0277b2fdc463d7ec1,0.017,0.017,0,105,105,42,1,twoone,,,,,,,,,,,,,,,,,,,,,,,,,,,,,,,,,,,,,,,,,,,,,,,,,,,,,,,,,,,,,,,,,,,,,,,,,,,,,,,,,,,,,,,,,,,,,,,,,,,,,,,,,,,,,,,,,,,,,,,,,,,,,,,,,,,,,,,,,
,,58e8e462a415a4000150c4da,2024-02-22_05h27.22.377,kallum_motion_pilot,2023.2.2,Win32,143.6781609,58e8e462a415a4000150c4da,65d6bb0e977760de756971f7,65d6bed0277b2fdc463d7ec1,0.017,0.017,0,106,106,22,1,fourtwo,,,,,,,,,,,,,,,,,,,,,,,,,,,,,,,,,,,,,,,,,,,,,,,,,,,,,,,,,,,,,,,,,,,,,,,,,,,,,,,,,,,,,,,,,,,,,,,,,,,,,,,,,,,,,,,,,,,,,,,,,,,,,,,,,,,,,,,,,
,,58e8e462a415a4000150c4da,2024-02-22_05h27.22.377,kallum_motion_pilot,2023.2.2,Win32,143.6781609,58e8e462a415a4000150c4da,65d6bb0e977760de756971f7,65d6bed0277b2fdc463d7ec1,0.017,0.017,0,107,107,34,1,twoone,,,,,,,,,,,,,,,,,,,,,,,,,,,,,,,,,,,,,,,,,,,,,,,,,,,,,,,,,,,,,,,,,,,,,,,,,,,,,,,,,,,,,,,,,,,,,,,,,,,,,,,,,,,,,,,,,,,,,,,,,,,,,,,,,,,,,,,,,
,,58e8e462a415a4000150c4da,2024-02-22_05h27.22.377,kallum_motion_pilot,2023.2.2,Win32,143.6781609,58e8e462a415a4000150c4da,65d6bb0e977760de756971f7,65d6bed0277b2fdc463d7ec1,0.017,0.017,0,108,108,96,1,fivesix,,,,,,,,,,,,,,,,,,,,,,,,,,,,,,,,,,,,,,,,,,,,,,,,,,,,,,,,,,,,,,,,,,,,,,,,,,,,,,,,,,,,,,,,,,,,,,,,,,,,,,,,,,,,,,,,,,,,,,,,,,,,,,,,,,,,,,,,,
,,58e8e462a415a4000150c4da,2024-02-22_05h27.22.377,kallum_motion_pilot,2023.2.2,Win32,143.6781609,58e8e462a415a4000150c4da,65d6bb0e977760de756971f7,65d6bed0277b2fdc463d7ec1,0.017,0.017,0,109,109,143,1,eightseven,,,,,,,,,,,,,,,,,,,,,,,,,,,,,,,,,,,,,,,,,,,,,,,,,,,,,,,,,,,,,,,,,,,,,,,,,,,,,,,,,,,,,,,,,,,,,,,,,,,,,,,,,,,,,,,,,,,,,,,,,,,,,,,,,,,,,,,,,
,,58e8e462a415a4000150c4da,2024-02-22_05h27.22.377,kallum_motion_pilot,2023.2.2,Win32,143.6781609,58e8e462a415a4000150c4da,65d6bb0e977760de756971f7,65d6bed0277b2fdc463d7ec1,0.017,0.017,0,110,110,88,1,fivesix,,,,,,,,,,,,,,,,,,,,,,,,,,,,,,,,,,,,,,,,,,,,,,,,,,,,,,,,,,,,,,,,,,,,,,,,,,,,,,,,,,,,,,,,,,,,,,,,,,,,,,,,,,,,,,,,,,,,,,,,,,,,,,,,,,,,,,,,,
,,58e8e462a415a4000150c4da,2024-02-22_05h27.22.377,kallum_motion_pilot,2023.2.2,Win32,143.6781609,58e8e462a415a4000150c4da,65d6bb0e977760de756971f7,65d6bed0277b2fdc463d7ec1,0.017,0.017,0,111,111,65,1,onethree,,,,,,,,,,,,,,,,,,,,,,,,,,,,,,,,,,,,,,,,,,,,,,,,,,,,,,,,,,,,,,,,,,,,,,,,,,,,,,,,,,,,,,,,,,,,,,,,,,,,,,,,,,,,,,,,,,,,,,,,,,,,,,,,,,,,,,,,,
,,58e8e462a415a4000150c4da,2024-02-22_05h27.22.377,kallum_motion_pilot,2023.2.2,Win32,143.6781609,58e8e462a415a4000150c4da,65d6bb0e977760de756971f7,65d6bed0277b2fdc463d7ec1,0.017,0.017,0,112,112,35,1,twofour,,,,,,,,,,,,,,,,,,,,,,,,,,,,,,,,,,,,,,,,,,,,,,,,,,,,,,,,,,,,,,,,,,,,,,,,,,,,,,,,,,,,,,,,,,,,,,,,,,,,,,,,,,,,,,,,,,,,,,,,,,,,,,,,,,,,,,,,,
,,58e8e462a415a4000150c4da,2024-02-22_05h27.22.377,kallum_motion_pilot,2023.2.2,Win32,143.6781609,58e8e462a415a4000150c4da,65d6bb0e977760de756971f7,65d6bed0277b2fdc463d7ec1,0.017,0.017,0,113,113,10,1,twoone,,,,,,,,,,,,,,,,,,,,,,,,,,,,,,,,,,,,,,,,,,,,,,,,,,,,,,,,,,,,,,,,,,,,,,,,,,,,,,,,,,,,,,,,,,,,,,,,,,,,,,,,,,,,,,,,,,,,,,,,,,,,,,,,,,,,,,,,,
,,58e8e462a415a4000150c4da,2024-02-22_05h27.22.377,kallum_motion_pilot,2023.2.2,Win32,143.6781609,58e8e462a415a4000150c4da,65d6bb0e977760de756971f7,65d6bed0277b2fdc463d7ec1,0.017,0.017,0,114,114,28,1,threeone,,,,,,,,,,,,,,,,,,,,,,,,,,,,,,,,,,,,,,,,,,,,,,,,,,,,,,,,,,,,,,,,,,,,,,,,,,,,,,,,,,,,,,,,,,,,,,,,,,,,,,,,,,,,,,,,,,,,,,,,,,,,,,,,,,,,,,,,,
,,58e8e462a415a4000150c4da,2024-02-22_05h27.22.377,kallum_motion_pilot,2023.2.2,Win32,143.6781609,58e8e462a415a4000150c4da,65d6bb0e977760de756971f7,65d6bed0277b2fdc463d7ec1,0.017,0.017,0,115,115,112,1,fivesix,,,,,,,,,,,,,,,,,,,,,,,,,,,,,,,,,,,,,,,,,,,,,,,,,,,,,,,,,,,,,,,,,,,,,,,,,,,,,,,,,,,,,,,,,,,,,,,,,,,,,,,,,,,,,,,,,,,,,,,,,,,,,,,,,,,,,,,,,
,,58e8e462a415a4000150c4da,2024-02-22_05h27.22.377,kallum_motion_pilot,2023.2.2,Win32,143.6781609,58e8e462a415a4000150c4da,65d6bb0e977760de756971f7,65d6bed0277b2fdc463d7ec1,0.017,0.017,0,116,116,126,1,eightsix,,,,,,,,,,,,,,,,,,,,,,,,,,,,,,,,,,,,,,,,,,,,,,,,,,,,,,,,,,,,,,,,,,,,,,,,,,,,,,,,,,,,,,,,,,,,,,,,,,,,,,,,,,,,,,,,,,,,,,,,,,,,,,,,,,,,,,,,,
,,58e8e462a415a4000150c4da,2024-02-22_05h27.22.377,kallum_motion_pilot,2023.2.2,Win32,143.6781609,58e8e462a415a4000150c4da,65d6bb0e977760de756971f7,65d6bed0277b2fdc463d7ec1,0.017,0.017,0,117,117,37,1,threefour,,,,,,,,,,,,,,,,,,,,,,,,,,,,,,,,,,,,,,,,,,,,,,,,,,,,,,,,,,,,,,,,,,,,,,,,,,,,,,,,,,,,,,,,,,,,,,,,,,,,,,,,,,,,,,,,,,,,,,,,,,,,,,,,,,,,,,,,,
,,58e8e462a415a4000150c4da,2024-02-22_05h27.22.377,kallum_motion_pilot,2023.2.2,Win32,143.6781609,58e8e462a415a4000150c4da,65d6bb0e977760de756971f7,65d6bed0277b2fdc463d7ec1,0.017,0.017,0,118,118,71,1,fourthree,,,,,,,,,,,,,,,,,,,,,,,,,,,,,,,,,,,,,,,,,,,,,,,,,,,,,,,,,,,,,,,,,,,,,,,,,,,,,,,,,,,,,,,,,,,,,,,,,,,,,,,,,,,,,,,,,,,,,,,,,,,,,,,,,,,,,,,,,
,,58e8e462a415a4000150c4da,2024-02-22_05h27.22.377,kallum_motion_pilot,2023.2.2,Win32,143.6781609,58e8e462a415a4000150c4da,65d6bb0e977760de756971f7,65d6bed0277b2fdc463d7ec1,0.018,0.018,0,119,119,123,1,sixeight,,,,,,,,,,,,,,,,,,,,,,,,,,,,,,,,,,,,,,,,,,,,,,,,,,,,,,,,,,,,,,,,,,,,,,,,,,,,,,,,,,,,,,,,,,,,,,,,,,,,,,,,,,,,,,,,,,,,,,,,,,,,,,,,,,,,,,,,,
,,58e8e462a415a4000150c4da,2024-02-22_05h27.22.377,kallum_motion_pilot,2023.2.2,Win32,143.6781609,58e8e462a415a4000150c4da,65d6bb0e977760de756971f7,65d6bed0277b2fdc463d7ec1,0.018,0.018,0,120,120,19,1,twofour,,,,,,,,,,,,,,,,,,,,,,,,,,,,,,,,,,,,,,,,,,,,,,,,,,,,,,,,,,,,,,,,,,,,,,,,,,,,,,,,,,,,,,,,,,,,,,,,,,,,,,,,,,,,,,,,,,,,,,,,,,,,,,,,,,,,,,,,,
,,58e8e462a415a4000150c4da,2024-02-22_05h27.22.377,kallum_motion_pilot,2023.2.2,Win32,143.6781609,58e8e462a415a4000150c4da,65d6bb0e977760de756971f7,65d6bed0277b2fdc463d7ec1,0.018,0.018,0,121,121,66,1,twoone,,,,,,,,,,,,,,,,,,,,,,,,,,,,,,,,,,,,,,,,,,,,,,,,,,,,,,,,,,,,,,,,,,,,,,,,,,,,,,,,,,,,,,,,,,,,,,,,,,,,,,,,,,,,,,,,,,,,,,,,,,,,,,,,,,,,,,,,,
,,58e8e462a415a4000150c4da,2024-02-22_05h27.22.377,kallum_motion_pilot,2023.2.2,Win32,143.6781609,58e8e462a415a4000150c4da,65d6bb0e977760de756971f7,65d6bed0277b2fdc463d7ec1,0.018,0.018,0,122,122,50,1,twoone,,,,,,,,,,,,,,,,,,,,,,,,,,,,,,,,,,,,,,,,,,,,,,,,,,,,,,,,,,,,,,,,,,,,,,,,,,,,,,,,,,,,,,,,,,,,,,,,,,,,,,,,,,,,,,,,,,,,,,,,,,,,,,,,,,,,,,,,,
,,58e8e462a415a4000150c4da,2024-02-22_05h27.22.377,kallum_motion_pilot,2023.2.2,Win32,143.6781609,58e8e462a415a4000150c4da,65d6bb0e977760de756971f7,65d6bed0277b2fdc463d7ec1,0.018,0.018,0,123,123,135,1,eightseven,,,,,,,,,,,,,,,,,,,,,,,,,,,,,,,,,,,,,,,,,,,,,,,,,,,,,,,,,,,,,,,,,,,,,,,,,,,,,,,,,,,,,,,,,,,,,,,,,,,,,,,,,,,,,,,,,,,,,,,,,,,,,,,,,,,,,,,,,
,,58e8e462a415a4000150c4da,2024-02-22_05h27.22.377,kallum_motion_pilot,2023.2.2,Win32,143.6781609,58e8e462a415a4000150c4da,65d6bb0e977760de756971f7,65d6bed0277b2fdc463d7ec1,0.018,0.018,0,124,124,23,1,fourthree,,,,,,,,,,,,,,,,,,,,,,,,,,,,,,,,,,,,,,,,,,,,,,,,,,,,,,,,,,,,,,,,,,,,,,,,,,,,,,,,,,,,,,,,,,,,,,,,,,,,,,,,,,,,,,,,,,,,,,,,,,,,,,,,,,,,,,,,,
,,58e8e462a415a4000150c4da,2024-02-22_05h27.22.377,kallum_motion_pilot,2023.2.2,Win32,143.6781609,58e8e462a415a4000150c4da,65d6bb0e977760de756971f7,65d6bed0277b2fdc463d7ec1,0.018,0.018,0,125,125,13,1,threefour,,,,,,,,,,,,,,,,,,,,,,,,,,,,,,,,,,,,,,,,,,,,,,,,,,,,,,,,,,,,,,,,,,,,,,,,,,,,,,,,,,,,,,,,,,,,,,,,,,,,,,,,,,,,,,,,,,,,,,,,,,,,,,,,,,,,,,,,,
,,58e8e462a415a4000150c4da,2024-02-22_05h27.22.377,kallum_motion_pilot,2023.2.2,Win32,143.6781609,58e8e462a415a4000150c4da,65d6bb0e977760de756971f7,65d6bed0277b2fdc463d7ec1,0.018,0.018,0,126,126,89,1,fiveseven,,,,,,,,,,,,,,,,,,,,,,,,,,,,,,,,,,,,,,,,,,,,,,,,,,,,,,,,,,,,,,,,,,,,,,,,,,,,,,,,,,,,,,,,,,,,,,,,,,,,,,,,,,,,,,,,,,,,,,,,,,,,,,,,,,,,,,,,,
,,58e8e462a415a4000150c4da,2024-02-22_05h27.22.377,kallum_motion_pilot,2023.2.2,Win32,143.6781609,58e8e462a415a4000150c4da,65d6bb0e977760de756971f7,65d6bed0277b2fdc463d7ec1,0.018,0.018,0,127,127,17,1,onethree,,,,,,,,,,,,,,,,,,,,,,,,,,,,,,,,,,,,,,,,,,,,,,,,,,,,,,,,,,,,,,,,,,,,,,,,,,,,,,,,,,,,,,,,,,,,,,,,,,,,,,,,,,,,,,,,,,,,,,,,,,,,,,,,,,,,,,,,,
,,58e8e462a415a4000150c4da,2024-02-22_05h27.22.377,kallum_motion_pilot,2023.2.2,Win32,143.6781609,58e8e462a415a4000150c4da,65d6bb0e977760de756971f7,65d6bed0277b2fdc463d7ec1,0.018,0.018,0,128,128,8,1,onetwo,,,,,,,,,,,,,,,,,,,,,,,,,,,,,,,,,,,,,,,,,,,,,,,,,,,,,,,,,,,,,,,,,,,,,,,,,,,,,,,,,,,,,,,,,,,,,,,,,,,,,,,,,,,,,,,,,,,,,,,,,,,,,,,,,,,,,,,,,
,,58e8e462a415a4000150c4da,2024-02-22_05h27.22.377,kallum_motion_pilot,2023.2.2,Win32,143.6781609,58e8e462a415a4000150c4da,65d6bb0e977760de756971f7,65d6bed0277b2fdc463d7ec1,0.018,0.018,0,129,129,67,1,twofour,,,,,,,,,,,,,,,,,,,,,,,,,,,,,,,,,,,,,,,,,,,,,,,,,,,,,,,,,,,,,,,,,,,,,,,,,,,,,,,,,,,,,,,,,,,,,,,,,,,,,,,,,,,,,,,,,,,,,,,,,,,,,,,,,,,,,,,,,
,,58e8e462a415a4000150c4da,2024-02-22_05h27.22.377,kallum_motion_pilot,2023.2.2,Win32,143.6781609,58e8e462a415a4000150c4da,65d6bb0e977760de756971f7,65d6bed0277b2fdc463d7ec1,0.018,0.018,0,130,130,45,1,threefour,,,,,,,,,,,,,,,,,,,,,,,,,,,,,,,,,,,,,,,,,,,,,,,,,,,,,,,,,,,,,,,,,,,,,,,,,,,,,,,,,,,,,,,,,,,,,,,,,,,,,,,,,,,,,,,,,,,,,,,,,,,,,,,,,,,,,,,,,
,,58e8e462a415a4000150c4da,2024-02-22_05h27.22.377,kallum_motion_pilot,2023.2.2,Win32,143.6781609,58e8e462a415a4000150c4da,65d6bb0e977760de756971f7,65d6bed0277b2fdc463d7ec1,0.018,0.018,0,131,131,80,1,fivesix,,,,,,,,,,,,,,,,,,,,,,,,,,,,,,,,,,,,,,,,,,,,,,,,,,,,,,,,,,,,,,,,,,,,,,,,,,,,,,,,,,,,,,,,,,,,,,,,,,,,,,,,,,,,,,,,,,,,,,,,,,,,,,,,,,,,,,,,,
,,58e8e462a415a4000150c4da,2024-02-22_05h27.22.377,kallum_motion_pilot,2023.2.2,Win32,143.6781609,58e8e462a415a4000150c4da,65d6bb0e977760de756971f7,65d6bed0277b2fdc463d7ec1,0.018,0.018,0,132,132,61,1,threefour,,,,,,,,,,,,,,,,,,,,,,,,,,,,,,,,,,,,,,,,,,,,,,,,,,,,,,,,,,,,,,,,,,,,,,,,,,,,,,,,,,,,,,,,,,,,,,,,,,,,,,,,,,,,,,,,,,,,,,,,,,,,,,,,,,,,,,,,,
,,58e8e462a415a4000150c4da,2024-02-22_05h27.22.377,kallum_motion_pilot,2023.2.2,Win32,143.6781609,58e8e462a415a4000150c4da,65d6bb0e977760de756971f7,65d6bed0277b2fdc463d7ec1,0.018,0.018,0,133,133,6,1,fourtwo,,,,,,,,,,,,,,,,,,,,,,,,,,,,,,,,,,,,,,,,,,,,,,,,,,,,,,,,,,,,,,,,,,,,,,,,,,,,,,,,,,,,,,,,,,,,,,,,,,,,,,,,,,,,,,,,,,,,,,,,,,,,,,,,,,,,,,,,,
,,58e8e462a415a4000150c4da,2024-02-22_05h27.22.377,kallum_motion_pilot,2023.2.2,Win32,143.6781609,58e8e462a415a4000150c4da,65d6bb0e977760de756971f7,65d6bed0277b2fdc463d7ec1,0.018,0.018,0,134,134,152,1,fivesix,,,,,,,,,,,,,,,,,,,,,,,,,,,,,,,,,,,,,,,,,,,,,,,,,,,,,,,,,,,,,,,,,,,,,,,,,,,,,,,,,,,,,,,,,,,,,,,,,,,,,,,,,,,,,,,,,,,,,,,,,,,,,,,,,,,,,,,,,
,,58e8e462a415a4000150c4da,2024-02-22_05h27.22.377,kallum_motion_pilot,2023.2.2,Win32,143.6781609,58e8e462a415a4000150c4da,65d6bb0e977760de756971f7,65d6bed0277b2fdc463d7ec1,0.018,0.018,0,135,135,32,1,onetwo,,,,,,,,,,,,,,,,,,,,,,,,,,,,,,,,,,,,,,,,,,,,,,,,,,,,,,,,,,,,,,,,,,,,,,,,,,,,,,,,,,,,,,,,,,,,,,,,,,,,,,,,,,,,,,,,,,,,,,,,,,,,,,,,,,,,,,,,,
,,58e8e462a415a4000150c4da,2024-02-22_05h27.22.377,kallum_motion_pilot,2023.2.2,Win32,143.6781609,58e8e462a415a4000150c4da,65d6bb0e977760de756971f7,65d6bed0277b2fdc463d7ec1,0.018,0.018,0,136,136,76,1,threeone,,,,,,,,,,,,,,,,,,,,,,,,,,,,,,,,,,,,,,,,,,,,,,,,,,,,,,,,,,,,,,,,,,,,,,,,,,,,,,,,,,,,,,,,,,,,,,,,,,,,,,,,,,,,,,,,,,,,,,,,,,,,,,,,,,,,,,,,,
,,58e8e462a415a4000150c4da,2024-02-22_05h27.22.377,kallum_motion_pilot,2023.2.2,Win32,143.6781609,58e8e462a415a4000150c4da,65d6bb0e977760de756971f7,65d6bed0277b2fdc463d7ec1,0.018,0.018,0,137,137,63,1,fourthree,,,,,,,,,,,,,,,,,,,,,,,,,,,,,,,,,,,,,,,,,,,,,,,,,,,,,,,,,,,,,,,,,,,,,,,,,,,,,,,,,,,,,,,,,,,,,,,,,,,,,,,,,,,,,,,,,,,,,,,,,,,,,,,,,,,,,,,,,
,,58e8e462a415a4000150c4da,2024-02-22_05h27.22.377,kallum_motion_pilot,2023.2.2,Win32,143.6781609,58e8e462a415a4000150c4da,65d6bb0e977760de756971f7,65d6bed0277b2fdc463d7ec1,0.018,0.018,0,138,138,31,1,fourthree,,,,,,,,,,,,,,,,,,,,,,,,,,,,,,,,,,,,,,,,,,,,,,,,,,,,,,,,,,,,,,,,,,,,,,,,,,,,,,,,,,,,,,,,,,,,,,,,,,,,,,,,,,,,,,,,,,,,,,,,,,,,,,,,,,,,,,,,,
,,58e8e462a415a4000150c4da,2024-02-22_05h27.22.377,kallum_motion_pilot,2023.2.2,Win32,143.6781609,58e8e462a415a4000150c4da,65d6bb0e977760de756971f7,65d6bed0277b2fdc463d7ec1,0.018,0.018,0,139,139,27,1,twofour,,,,,,,,,,,,,,,,,,,,,,,,,,,,,,,,,,,,,,,,,,,,,,,,,,,,,,,,,,,,,,,,,,,,,,,,,,,,,,,,,,,,,,,,,,,,,,,,,,,,,,,,,,,,,,,,,,,,,,,,,,,,,,,,,,,,,,,,,
,,58e8e462a415a4000150c4da,2024-02-22_05h27.22.377,kallum_motion_pilot,2023.2.2,Win32,143.6781609,58e8e462a415a4000150c4da,65d6bb0e977760de756971f7,65d6bed0277b2fdc463d7ec1,0.018,0.018,0,140,140,39,1,fourthree,,,,,,,,,,,,,,,,,,,,,,,,,,,,,,,,,,,,,,,,,,,,,,,,,,,,,,,,,,,,,,,,,,,,,,,,,,,,,,,,,,,,,,,,,,,,,,,,,,,,,,,,,,,,,,,,,,,,,,,,,,,,,,,,,,,,,,,,,
,,58e8e462a415a4000150c4da,2024-02-22_05h27.22.377,kallum_motion_pilot,2023.2.2,Win32,143.6781609,58e8e462a415a4000150c4da,65d6bb0e977760de756971f7,65d6bed0277b2fdc463d7ec1,0.018,0.018,0,141,141,145,1,fiveseven,,,,,,,,,,,,,,,,,,,,,,,,,,,,,,,,,,,,,,,,,,,,,,,,,,,,,,,,,,,,,,,,,,,,,,,,,,,,,,,,,,,,,,,,,,,,,,,,,,,,,,,,,,,,,,,,,,,,,,,,,,,,,,,,,,,,,,,,,
,,58e8e462a415a4000150c4da,2024-02-22_05h27.22.377,kallum_motion_pilot,2023.2.2,Win32,143.6781609,58e8e462a415a4000150c4da,65d6bb0e977760de756971f7,65d6bed0277b2fdc463d7ec1,0.018,0.018,0,142,142,127,1,eightseven,,,,,,,,,,,,,,,,,,,,,,,,,,,,,,,,,,,,,,,,,,,,,,,,,,,,,,,,,,,,,,,,,,,,,,,,,,,,,,,,,,,,,,,,,,,,,,,,,,,,,,,,,,,,,,,,,,,,,,,,,,,,,,,,,,,,,,,,,
,,58e8e462a415a4000150c4da,2024-02-22_05h27.22.377,kallum_motion_pilot,2023.2.2,Win32,143.6781609,58e8e462a415a4000150c4da,65d6bb0e977760de756971f7,65d6bed0277b2fdc463d7ec1,0.018,0.018,0,143,143,75,1,twofour,,,,,,,,,,,,,,,,,,,,,,,,,,,,,,,,,,,,,,,,,,,,,,,,,,,,,,,,,,,,,,,,,,,,,,,,,,,,,,,,,,,,,,,,,,,,,,,,,,,,,,,,,,,,,,,,,,,,,,,,,,,,,,,,,,,,,,,,,
,,58e8e462a415a4000150c4da,2024-02-22_05h27.22.377,kallum_motion_pilot,2023.2.2,Win32,143.6781609,58e8e462a415a4000150c4da,65d6bb0e977760de756971f7,65d6bed0277b2fdc463d7ec1,0.018,0.018,0,144,144,119,1,eightseven,,,,,,,,,,,,,,,,,,,,,,,,,,,,,,,,,,,,,,,,,,,,,,,,,,,,,,,,,,,,,,,,,,,,,,,,,,,,,,,,,,,,,,,,,,,,,,,,,,,,,,,,,,,,,,,,,,,,,,,,,,,,,,,,,,,,,,,,,
,,58e8e462a415a4000150c4da,2024-02-22_05h27.22.377,kallum_motion_pilot,2023.2.2,Win32,143.6781609,58e8e462a415a4000150c4da,65d6bb0e977760de756971f7,65d6bed0277b2fdc463d7ec1,0.019,0.019,0,145,145,94,1,eightsix,,,,,,,,,,,,,,,,,,,,,,,,,,,,,,,,,,,,,,,,,,,,,,,,,,,,,,,,,,,,,,,,,,,,,,,,,,,,,,,,,,,,,,,,,,,,,,,,,,,,,,,,,,,,,,,,,,,,,,,,,,,,,,,,,,,,,,,,,
,,58e8e462a415a4000150c4da,2024-02-22_05h27.22.377,kallum_motion_pilot,2023.2.2,Win32,143.6781609,58e8e462a415a4000150c4da,65d6bb0e977760de756971f7,65d6bed0277b2fdc463d7ec1,0.019,0.019,0,146,146,24,1,onetwo,,,,,,,,,,,,,,,,,,,,,,,,,,,,,,,,,,,,,,,,,,,,,,,,,,,,,,,,,,,,,,,,,,,,,,,,,,,,,,,,,,,,,,,,,,,,,,,,,,,,,,,,,,,,,,,,,,,,,,,,,,,,,,,,,,,,,,,,,
,,58e8e462a415a4000150c4da,2024-02-22_05h27.22.377,kallum_motion_pilot,2023.2.2,Win32,143.6781609,58e8e462a415a4000150c4da,65d6bb0e977760de756971f7,65d6bed0277b2fdc463d7ec1,0.019,0.019,0,147,147,70,1,fourtwo,,,,,,,,,,,,,,,,,,,,,,,,,,,,,,,,,,,,,,,,,,,,,,,,,,,,,,,,,,,,,,,,,,,,,,,,,,,,,,,,,,,,,,,,,,,,,,,,,,,,,,,,,,,,,,,,,,,,,,,,,,,,,,,,,,,,,,,,,
,,58e8e462a415a4000150c4da,2024-02-22_05h27.22.377,kallum_motion_pilot,2023.2.2,Win32,143.6781609,58e8e462a415a4000150c4da,65d6bb0e977760de756971f7,65d6bed0277b2fdc463d7ec1,0.019,0.019,0,148,148,113,1,fiveseven,,,,,,,,,,,,,,,,,,,,,,,,,,,,,,,,,,,,,,,,,,,,,,,,,,,,,,,,,,,,,,,,,,,,,,,,,,,,,,,,,,,,,,,,,,,,,,,,,,,,,,,,,,,,,,,,,,,,,,,,,,,,,,,,,,,,,,,,,
,,58e8e462a415a4000150c4da,2024-02-22_05h27.22.377,kallum_motion_pilot,2023.2.2,Win32,143.6781609,58e8e462a415a4000150c4da,65d6bb0e977760de756971f7,65d6bed0277b2fdc463d7ec1,0.019,0.019,0,149,149,108,1,sevenfive,,,,,,,,,,,,,,,,,,,,,,,,,,,,,,,,,,,,,,,,,,,,,,,,,,,,,,,,,,,,,,,,,,,,,,,,,,,,,,,,,,,,,,,,,,,,,,,,,,,,,,,,,,,,,,,,,,,,,,,,,,,,,,,,,,,,,,,,,
,,58e8e462a415a4000150c4da,2024-02-22_05h27.22.377,kallum_motion_pilot,2023.2.2,Win32,143.6781609,58e8e462a415a4000150c4da,65d6bb0e977760de756971f7,65d6bed0277b2fdc463d7ec1,0.019,0.019,0,150,150,149,1,seveneight,,,,,,,,,,,,,,,,,,,,,,,,,,,,,,,,,,,,,,,,,,,,,,,,,,,,,,,,,,,,,,,,,,,,,,,,,,,,,,,,,,,,,,,,,,,,,,,,,,,,,,,,,,,,,,,,,,,,,,,,,,,,,,,,,,,,,,,,,
,,58e8e462a415a4000150c4da,2024-02-22_05h27.22.377,kallum_motion_pilot,2023.2.2,Win32,143.6781609,58e8e462a415a4000150c4da,65d6bb0e977760de756971f7,65d6bed0277b2fdc463d7ec1,0.019,0.019,0,151,151,43,1,twofour,,,,,,,,,,,,,,,,,,,,,,,,,,,,,,,,,,,,,,,,,,,,,,,,,,,,,,,,,,,,,,,,,,,,,,,,,,,,,,,,,,,,,,,,,,,,,,,,,,,,,,,,,,,,,,,,,,,,,,,,,,,,,,,,,,,,,,,,,
,,58e8e462a415a4000150c4da,2024-02-22_05h27.22.377,kallum_motion_pilot,2023.2.2,Win32,143.6781609,58e8e462a415a4000150c4da,65d6bb0e977760de756971f7,65d6bed0277b2fdc463d7ec1,0.019,0.019,0,152,152,118,1,eightsix,,,,,,,,,,,,,,,,,,,,,,,,,,,,,,,,,,,,,,,,,,,,,,,,,,,,,,,,,,,,,,,,,,,,,,,,,,,,,,,,,,,,,,,,,,,,,,,,,,,,,,,,,,,,,,,,,,,,,,,,,,,,,,,,,,,,,,,,,
,,58e8e462a415a4000150c4da,2024-02-22_05h27.22.377,kallum_motion_pilot,2023.2.2,Win32,143.6781609,58e8e462a415a4000150c4da,65d6bb0e977760de756971f7,65d6bed0277b2fdc463d7ec1,0.019,0.019,0,153,153,15,1,fourthree,,,,,,,,,,,,,,,,,,,,,,,,,,,,,,,,,,,,,,,,,,,,,,,,,,,,,,,,,,,,,,,,,,,,,,,,,,,,,,,,,,,,,,,,,,,,,,,,,,,,,,,,,,,,,,,,,,,,,,,,,,,,,,,,,,,,,,,,,
,,58e8e462a415a4000150c4da,2024-02-22_05h27.22.377,kallum_motion_pilot,2023.2.2,Win32,143.6781609,58e8e462a415a4000150c4da,65d6bb0e977760de756971f7,65d6bed0277b2fdc463d7ec1,0.019,0.019,0,154,154,95,1,eightseven,,,,,,,,,,,,,,,,,,,,,,,,,,,,,,,,,,,,,,,,,,,,,,,,,,,,,,,,,,,,,,,,,,,,,,,,,,,,,,,,,,,,,,,,,,,,,,,,,,,,,,,,,,,,,,,,,,,,,,,,,,,,,,,,,,,,,,,,,
,,58e8e462a415a4000150c4da,2024-02-22_05h27.22.377,kallum_motion_pilot,2023.2.2,Win32,143.6781609,58e8e462a415a4000150c4da,65d6bb0e977760de756971f7,65d6bed0277b2fdc463d7ec1,0.019,0.019,0,155,155,109,1,seveneight,,,,,,,,,,,,,,,,,,,,,,,,,,,,,,,,,,,,,,,,,,,,,,,,,,,,,,,,,,,,,,,,,,,,,,,,,,,,,,,,,,,,,,,,,,,,,,,,,,,,,,,,,,,,,,,,,,,,,,,,,,,,,,,,,,,,,,,,,
,,58e8e462a415a4000150c4da,2024-02-22_05h27.22.377,kallum_motion_pilot,2023.2.2,Win32,143.6781609,58e8e462a415a4000150c4da,65d6bb0e977760de756971f7,65d6bed0277b2fdc463d7ec1,0.019,0.019,0,156,156,92,1,sevenfive,,,,,,,,,,,,,,,,,,,,,,,,,,,,,,,,,,,,,,,,,,,,,,,,,,,,,,,,,,,,,,,,,,,,,,,,,,,,,,,,,,,,,,,,,,,,,,,,,,,,,,,,,,,,,,,,,,,,,,,,,,,,,,,,,,,,,,,,,
,,58e8e462a415a4000150c4da,2024-02-22_05h27.22.377,kallum_motion_pilot,2023.2.2,Win32,143.6781609,58e8e462a415a4000150c4da,65d6bb0e977760de756971f7,65d6bed0277b2fdc463d7ec1,0.019,0.019,0,157,157,68,1,threeone,,,,,,,,,,,,,,,,,,,,,,,,,,,,,,,,,,,,,,,,,,,,,,,,,,,,,,,,,,,,,,,,,,,,,,,,,,,,,,,,,,,,,,,,,,,,,,,,,,,,,,,,,,,,,,,,,,,,,,,,,,,,,,,,,,,,,,,,,
,,58e8e462a415a4000150c4da,2024-02-22_05h27.22.377,kallum_motion_pilot,2023.2.2,Win32,143.6781609,58e8e462a415a4000150c4da,65d6bb0e977760de756971f7,65d6bed0277b2fdc463d7ec1,0.019,0.019,0,158,158,29,1,threefour,,,,,,,,,,,,,,,,,,,,,,,,,,,,,,,,,,,,,,,,,,,,,,,,,,,,,,,,,,,,,,,,,,,,,,,,,,,,,,,,,,,,,,,,,,,,,,,,,,,,,,,,,,,,,,,,,,,,,,,,,,,,,,,,,,,,,,,,,
,,58e8e462a415a4000150c4da,2024-02-22_05h27.22.377,kallum_motion_pilot,2023.2.2,Win32,143.6781609,58e8e462a415a4000150c4da,65d6bb0e977760de756971f7,65d6bed0277b2fdc463d7ec1,0.019,0.019,0,159,159,59,1,twofour,,,,,,,,,,,,,,,,,,,,,,,,,,,,,,,,,,,,,,,,,,,,,,,,,,,,,,,,,,,,,,,,,,,,,,,,,,,,,,,,,,,,,,,,,,,,,,,,,,,,,,,,,,,,,,,,,,,,,,,,,,,,,,,,,,,,,,,,,
,,58e8e462a415a4000150c4da,2024-02-22_05h27.22.377,kallum_motion_pilot,2023.2.2,Win32,143.6781609,58e8e462a415a4000150c4da,65d6bb0e977760de756971f7,65d6bed0277b2fdc463d7ec1,0.019,0.019,0,160,160,128,1,fivesix,,,,,,,,,,,,,,,,,,,,,,,,,,,,,,,,,,,,,,,,,,,,,,,,,,,,,,,,,,,,,,,,,,,,,,,,,,,,,,,,,,,,,,,,,,,,,,,,,,,,,,,,,,,,,,,,,,,,,,,,,,,,,,,,,,,,,,,,,
,,58e8e462a415a4000150c4da,2024-02-22_05h27.22.377,kallum_motion_pilot,2023.2.2,Win32,143.6781609,58e8e462a415a4000150c4da,65d6bb0e977760de756971f7,65d6bed0277b2fdc463d7ec1,0.019,0.019,0,161,161,124,1,sevenfive,,,,,,,,,,,,,,,,,,,,,,,,,,,,,,,,,,,,,,,,,,,,,,,,,,,,,,,,,,,,,,,,,,,,,,,,,,,,,,,,,,,,,,,,,,,,,,,,,,,,,,,,,,,,,,,,,,,,,,,,,,,,,,,,,,,,,,,,,
,,58e8e462a415a4000150c4da,2024-02-22_05h27.22.377,kallum_motion_pilot,2023.2.2,Win32,143.6781609,58e8e462a415a4000150c4da,65d6bb0e977760de756971f7,65d6bed0277b2fdc463d7ec1,0.019,0.019,1,0,162,68,1,threeone,,,,,,,,,,,,,,,,,,,,,,,,,,,,,,,,,,,,,,,,,,,,,,,,,,,,,,,,,,,,,,,,,,,,,,,,,,,,,,,,,,,,,,,,,,,,,,,,,,,,,,,,,,,,,,,,,,,,,,,,,,,,,,,,,,,,,,,,,
,,58e8e462a415a4000150c4da,2024-02-22_05h27.22.377,kallum_motion_pilot,2023.2.2,Win32,143.6781609,58e8e462a415a4000150c4da,65d6bb0e977760de756971f7,65d6bed0277b2fdc463d7ec1,0.019,0.019,1,1,163,89,1,fiveseven,,,,,,,,,,,,,,,,,,,,,,,,,,,,,,,,,,,,,,,,,,,,,,,,,,,,,,,,,,,,,,,,,,,,,,,,,,,,,,,,,,,,,,,,,,,,,,,,,,,,,,,,,,,,,,,,,,,,,,,,,,,,,,,,,,,,,,,,,
,,58e8e462a415a4000150c4da,2024-02-22_05h27.22.377,kallum_motion_pilot,2023.2.2,Win32,143.6781609,58e8e462a415a4000150c4da,65d6bb0e977760de756971f7,65d6bed0277b2fdc463d7ec1,0.019,0.019,1,2,164,138,1,sixfive,,,,,,,,,,,,,,,,,,,,,,,,,,,,,,,,,,,,,,,,,,,,,,,,,,,,,,,,,,,,,,,,,,,,,,,,,,,,,,,,,,,,,,,,,,,,,,,,,,,,,,,,,,,,,,,,,,,,,,,,,,,,,,,,,,,,,,,,,
,,58e8e462a415a4000150c4da,2024-02-22_05h27.22.377,kallum_motion_pilot,2023.2.2,Win32,143.6781609,58e8e462a415a4000150c4da,65d6bb0e977760de756971f7,65d6bed0277b2fdc463d7ec1,0.019,0.019,1,3,165,6,1,fourtwo,,,,,,,,,,,,,,,,,,,,,,,,,,,,,,,,,,,,,,,,,,,,,,,,,,,,,,,,,,,,,,,,,,,,,,,,,,,,,,,,,,,,,,,,,,,,,,,,,,,,,,,,,,,,,,,,,,,,,,,,,,,,,,,,,,,,,,,,,
,,58e8e462a415a4000150c4da,2024-02-22_05h27.22.377,kallum_motion_pilot,2023.2.2,Win32,143.6781609,58e8e462a415a4000150c4da,65d6bb0e977760de756971f7,65d6bed0277b2fdc463d7ec1,0.019,0.019,1,4,166,116,1,sevenfive,,,,,,,,,,,,,,,,,,,,,,,,,,,,,,,,,,,,,,,,,,,,,,,,,,,,,,,,,,,,,,,,,,,,,,,,,,,,,,,,,,,,,,,,,,,,,,,,,,,,,,,,,,,,,,,,,,,,,,,,,,,,,,,,,,,,,,,,,
,,58e8e462a415a4000150c4da,2024-02-22_05h27.22.377,kallum_motion_pilot,2023.2.2,Win32,143.6781609,58e8e462a415a4000150c4da,65d6bb0e977760de756971f7,65d6bed0277b2fdc463d7ec1,0.019,0.019,1,5,167,32,1,onetwo,,,,,,,,,,,,,,,,,,,,,,,,,,,,,,,,,,,,,,,,,,,,,,,,,,,,,,,,,,,,,,,,,,,,,,,,,,,,,,,,,,,,,,,,,,,,,,,,,,,,,,,,,,,,,,,,,,,,,,,,,,,,,,,,,,,,,,,,,
,,58e8e462a415a4000150c4da,2024-02-22_05h27.22.377,kallum_motion_pilot,2023.2.2,Win32,143.6781609,58e8e462a415a4000150c4da,65d6bb0e977760de756971f7,65d6bed0277b2fdc463d7ec1,0.019,0.019,1,6,168,56,1,onetwo,,,,,,,,,,,,,,,,,,,,,,,,,,,,,,,,,,,,,,,,,,,,,,,,,,,,,,,,,,,,,,,,,,,,,,,,,,,,,,,,,,,,,,,,,,,,,,,,,,,,,,,,,,,,,,,,,,,,,,,,,,,,,,,,,,,,,,,,,
,,58e8e462a415a4000150c4da,2024-02-22_05h27.22.377,kallum_motion_pilot,2023.2.2,Win32,143.6781609,58e8e462a415a4000150c4da,65d6bb0e977760de756971f7,65d6bed0277b2fdc463d7ec1,0.019,0.019,1,7,169,50,1,twoone,,,,,,,,,,,,,,,,,,,,,,,,,,,,,,,,,,,,,,,,,,,,,,,,,,,,,,,,,,,,,,,,,,,,,,,,,,,,,,,,,,,,,,,,,,,,,,,,,,,,,,,,,,,,,,,,,,,,,,,,,,,,,,,,,,,,,,,,,
,,58e8e462a415a4000150c4da,2024-02-22_05h27.22.377,kallum_motion_pilot,2023.2.2,Win32,143.6781609,58e8e462a415a4000150c4da,65d6bb0e977760de756971f7,65d6bed0277b2fdc463d7ec1,0.019,0.019,1,8,170,59,1,twofour,,,,,,,,,,,,,,,,,,,,,,,,,,,,,,,,,,,,,,,,,,,,,,,,,,,,,,,,,,,,,,,,,,,,,,,,,,,,,,,,,,,,,,,,,,,,,,,,,,,,,,,,,,,,,,,,,,,,,,,,,,,,,,,,,,,,,,,,,
,,58e8e462a415a4000150c4da,2024-02-22_05h27.22.377,kallum_motion_pilot,2023.2.2,Win32,143.6781609,58e8e462a415a4000150c4da,65d6bb0e977760de756971f7,65d6bed0277b2fdc463d7ec1,0.019,0.019,1,9,171,8,1,onetwo,,,,,,,,,,,,,,,,,,,,,,,,,,,,,,,,,,,,,,,,,,,,,,,,,,,,,,,,,,,,,,,,,,,,,,,,,,,,,,,,,,,,,,,,,,,,,,,,,,,,,,,,,,,,,,,,,,,,,,,,,,,,,,,,,,,,,,,,,
,,58e8e462a415a4000150c4da,2024-02-22_05h27.22.377,kallum_motion_pilot,2023.2.2,Win32,143.6781609,58e8e462a415a4000150c4da,65d6bb0e977760de756971f7,65d6bed0277b2fdc463d7ec1,0.02,0.02,1,10,172,63,1,fourthree,,,,,,,,,,,,,,,,,,,,,,,,,,,,,,,,,,,,,,,,,,,,,,,,,,,,,,,,,,,,,,,,,,,,,,,,,,,,,,,,,,,,,,,,,,,,,,,,,,,,,,,,,,,,,,,,,,,,,,,,,,,,,,,,,,,,,,,,,
,,58e8e462a415a4000150c4da,2024-02-22_05h27.22.377,kallum_motion_pilot,2023.2.2,Win32,143.6781609,58e8e462a415a4000150c4da,65d6bb0e977760de756971f7,65d6bed0277b2fdc463d7ec1,0.02,0.02,1,11,173,159,1,eightseven,,,,,,,,,,,,,,,,,,,,,,,,,,,,,,,,,,,,,,,,,,,,,,,,,,,,,,,,,,,,,,,,,,,,,,,,,,,,,,,,,,,,,,,,,,,,,,,,,,,,,,,,,,,,,,,,,,,,,,,,,,,,,,,,,,,,,,,,,
,,58e8e462a415a4000150c4da,2024-02-22_05h27.22.377,kallum_motion_pilot,2023.2.2,Win32,143.6781609,58e8e462a415a4000150c4da,65d6bb0e977760de756971f7,65d6bed0277b2fdc463d7ec1,0.02,0.02,1,12,174,23,1,fourthree,,,,,,,,,,,,,,,,,,,,,,,,,,,,,,,,,,,,,,,,,,,,,,,,,,,,,,,,,,,,,,,,,,,,,,,,,,,,,,,,,,,,,,,,,,,,,,,,,,,,,,,,,,,,,,,,,,,,,,,,,,,,,,,,,,,,,,,,,
,,58e8e462a415a4000150c4da,2024-02-22_05h27.22.377,kallum_motion_pilot,2023.2.2,Win32,143.6781609,58e8e462a415a4000150c4da,65d6bb0e977760de756971f7,65d6bed0277b2fdc463d7ec1,0.02,0.02,1,13,175,0,1,onetwo,,,,,,,,,,,,,,,,,,,,,,,,,,,,,,,,,,,,,,,,,,,,,,,,,,,,,,,,,,,,,,,,,,,,,,,,,,,,,,,,,,,,,,,,,,,,,,,,,,,,,,,,,,,,,,,,,,,,,,,,,,,,,,,,,,,,,,,,,
,,58e8e462a415a4000150c4da,2024-02-22_05h27.22.377,kallum_motion_pilot,2023.2.2,Win32,143.6781609,58e8e462a415a4000150c4da,65d6bb0e977760de756971f7,65d6bed0277b2fdc463d7ec1,0.02,0.02,1,14,176,96,1,fivesix,,,,,,,,,,,,,,,,,,,,,,,,,,,,,,,,,,,,,,,,,,,,,,,,,,,,,,,,,,,,,,,,,,,,,,,,,,,,,,,,,,,,,,,,,,,,,,,,,,,,,,,,,,,,,,,,,,,,,,,,,,,,,,,,,,,,,,,,,
,,58e8e462a415a4000150c4da,2024-02-22_05h27.22.377,kallum_motion_pilot,2023.2.2,Win32,143.6781609,58e8e462a415a4000150c4da,65d6bb0e977760de756971f7,65d6bed0277b2fdc463d7ec1,0.02,0.02,1,15,177,148,1,sevenfive,,,,,,,,,,,,,,,,,,,,,,,,,,,,,,,,,,,,,,,,,,,,,,,,,,,,,,,,,,,,,,,,,,,,,,,,,,,,,,,,,,,,,,,,,,,,,,,,,,,,,,,,,,,,,,,,,,,,,,,,,,,,,,,,,,,,,,,,,
,,58e8e462a415a4000150c4da,2024-02-22_05h27.22.377,kallum_motion_pilot,2023.2.2,Win32,143.6781609,58e8e462a415a4000150c4da,65d6bb0e977760de756971f7,65d6bed0277b2fdc463d7ec1,0.02,0.02,1,16,178,109,1,seveneight,,,,,,,,,,,,,,,,,,,,,,,,,,,,,,,,,,,,,,,,,,,,,,,,,,,,,,,,,,,,,,,,,,,,,,,,,,,,,,,,,,,,,,,,,,,,,,,,,,,,,,,,,,,,,,,,,,,,,,,,,,,,,,,,,,,,,,,,,
,,58e8e462a415a4000150c4da,2024-02-22_05h27.22.377,kallum_motion_pilot,2023.2.2,Win32,143.6781609,58e8e462a415a4000150c4da,65d6bb0e977760de756971f7,65d6bed0277b2fdc463d7ec1,0.02,0.02,1,17,179,97,1,fiveseven,,,,,,,,,,,,,,,,,,,,,,,,,,,,,,,,,,,,,,,,,,,,,,,,,,,,,,,,,,,,,,,,,,,,,,,,,,,,,,,,,,,,,,,,,,,,,,,,,,,,,,,,,,,,,,,,,,,,,,,,,,,,,,,,,,,,,,,,,
,,58e8e462a415a4000150c4da,2024-02-22_05h27.22.377,kallum_motion_pilot,2023.2.2,Win32,143.6781609,58e8e462a415a4000150c4da,65d6bb0e977760de756971f7,65d6bed0277b2fdc463d7ec1,0.02,0.02,1,18,180,88,1,fivesix,,,,,,,,,,,,,,,,,,,,,,,,,,,,,,,,,,,,,,,,,,,,,,,,,,,,,,,,,,,,,,,,,,,,,,,,,,,,,,,,,,,,,,,,,,,,,,,,,,,,,,,,,,,,,,,,,,,,,,,,,,,,,,,,,,,,,,,,,
,,58e8e462a415a4000150c4da,2024-02-22_05h27.22.377,kallum_motion_pilot,2023.2.2,Win32,143.6781609,58e8e462a415a4000150c4da,65d6bb0e977760de756971f7,65d6bed0277b2fdc463d7ec1,0.02,0.02,1,19,181,18,1,twoone,,,,,,,,,,,,,,,,,,,,,,,,,,,,,,,,,,,,,,,,,,,,,,,,,,,,,,,,,,,,,,,,,,,,,,,,,,,,,,,,,,,,,,,,,,,,,,,,,,,,,,,,,,,,,,,,,,,,,,,,,,,,,,,,,,,,,,,,,
,,58e8e462a415a4000150c4da,2024-02-22_05h27.22.377,kallum_motion_pilot,2023.2.2,Win32,143.6781609,58e8e462a415a4000150c4da,65d6bb0e977760de756971f7,65d6bed0277b2fdc463d7ec1,0.02,0.02,1,20,182,110,1,eightsix,,,,,,,,,,,,,,,,,,,,,,,,,,,,,,,,,,,,,,,,,,,,,,,,,,,,,,,,,,,,,,,,,,,,,,,,,,,,,,,,,,,,,,,,,,,,,,,,,,,,,,,,,,,,,,,,,,,,,,,,,,,,,,,,,,,,,,,,,
,,58e8e462a415a4000150c4da,2024-02-22_05h27.22.377,kallum_motion_pilot,2023.2.2,Win32,143.6781609,58e8e462a415a4000150c4da,65d6bb0e977760de756971f7,65d6bed0277b2fdc463d7ec1,0.02,0.02,1,21,183,101,1,seveneight,,,,,,,,,,,,,,,,,,,,,,,,,,,,,,,,,,,,,,,,,,,,,,,,,,,,,,,,,,,,,,,,,,,,,,,,,,,,,,,,,,,,,,,,,,,,,,,,,,,,,,,,,,,,,,,,,,,,,,,,,,,,,,,,,,,,,,,,,
,,58e8e462a415a4000150c4da,2024-02-22_05h27.22.377,kallum_motion_pilot,2023.2.2,Win32,143.6781609,58e8e462a415a4000150c4da,65d6bb0e977760de756971f7,65d6bed0277b2fdc463d7ec1,0.02,0.02,1,22,184,29,1,threefour,,,,,,,,,,,,,,,,,,,,,,,,,,,,,,,,,,,,,,,,,,,,,,,,,,,,,,,,,,,,,,,,,,,,,,,,,,,,,,,,,,,,,,,,,,,,,,,,,,,,,,,,,,,,,,,,,,,,,,,,,,,,,,,,,,,,,,,,,
,,58e8e462a415a4000150c4da,2024-02-22_05h27.22.377,kallum_motion_pilot,2023.2.2,Win32,143.6781609,58e8e462a415a4000150c4da,65d6bb0e977760de756971f7,65d6bed0277b2fdc463d7ec1,0.02,0.02,1,23,185,69,1,threefour,,,,,,,,,,,,,,,,,,,,,,,,,,,,,,,,,,,,,,,,,,,,,,,,,,,,,,,,,,,,,,,,,,,,,,,,,,,,,,,,,,,,,,,,,,,,,,,,,,,,,,,,,,,,,,,,,,,,,,,,,,,,,,,,,,,,,,,,,
,,58e8e462a415a4000150c4da,2024-02-22_05h27.22.377,kallum_motion_pilot,2023.2.2,Win32,143.6781609,58e8e462a415a4000150c4da,65d6bb0e977760de756971f7,65d6bed0277b2fdc463d7ec1,0.02,0.02,1,24,186,143,1,eightseven,,,,,,,,,,,,,,,,,,,,,,,,,,,,,,,,,,,,,,,,,,,,,,,,,,,,,,,,,,,,,,,,,,,,,,,,,,,,,,,,,,,,,,,,,,,,,,,,,,,,,,,,,,,,,,,,,,,,,,,,,,,,,,,,,,,,,,,,,
,,58e8e462a415a4000150c4da,2024-02-22_05h27.22.377,kallum_motion_pilot,2023.2.2,Win32,143.6781609,58e8e462a415a4000150c4da,65d6bb0e977760de756971f7,65d6bed0277b2fdc463d7ec1,0.02,0.02,1,25,187,161,1,fiveseven,,,,,,,,,,,,,,,,,,,,,,,,,,,,,,,,,,,,,,,,,,,,,,,,,,,,,,,,,,,,,,,,,,,,,,,,,,,,,,,,,,,,,,,,,,,,,,,,,,,,,,,,,,,,,,,,,,,,,,,,,,,,,,,,,,,,,,,,,
,,58e8e462a415a4000150c4da,2024-02-22_05h27.22.377,kallum_motion_pilot,2023.2.2,Win32,143.6781609,58e8e462a415a4000150c4da,65d6bb0e977760de756971f7,65d6bed0277b2fdc463d7ec1,0.02,0.02,1,26,188,64,1,onetwo,,,,,,,,,,,,,,,,,,,,,,,,,,,,,,,,,,,,,,,,,,,,,,,,,,,,,,,,,,,,,,,,,,,,,,,,,,,,,,,,,,,,,,,,,,,,,,,,,,,,,,,,,,,,,,,,,,,,,,,,,,,,,,,,,,,,,,,,,
,,58e8e462a415a4000150c4da,2024-02-22_05h27.22.377,kallum_motion_pilot,2023.2.2,Win32,143.6781609,58e8e462a415a4000150c4da,65d6bb0e977760de756971f7,65d6bed0277b2fdc463d7ec1,0.02,0.02,1,27,189,107,1,sixeight,,,,,,,,,,,,,,,,,,,,,,,,,,,,,,,,,,,,,,,,,,,,,,,,,,,,,,,,,,,,,,,,,,,,,,,,,,,,,,,,,,,,,,,,,,,,,,,,,,,,,,,,,,,,,,,,,,,,,,,,,,,,,,,,,,,,,,,,,
,,58e8e462a415a4000150c4da,2024-02-22_05h27.22.377,kallum_motion_pilot,2023.2.2,Win32,143.6781609,58e8e462a415a4000150c4da,65d6bb0e977760de756971f7,65d6bed0277b2fdc463d7ec1,0.02,0.02,1,28,190,124,1,sevenfive,,,,,,,,,,,,,,,,,,,,,,,,,,,,,,,,,,,,,,,,,,,,,,,,,,,,,,,,,,,,,,,,,,,,,,,,,,,,,,,,,,,,,,,,,,,,,,,,,,,,,,,,,,,,,,,,,,,,,,,,,,,,,,,,,,,,,,,,,
,,58e8e462a415a4000150c4da,2024-02-22_05h27.22.377,kallum_motion_pilot,2023.2.2,Win32,143.6781609,58e8e462a415a4000150c4da,65d6bb0e977760de756971f7,65d6bed0277b2fdc463d7ec1,0.02,0.02,1,29,191,123,1,sixeight,,,,,,,,,,,,,,,,,,,,,,,,,,,,,,,,,,,,,,,,,,,,,,,,,,,,,,,,,,,,,,,,,,,,,,,,,,,,,,,,,,,,,,,,,,,,,,,,,,,,,,,,,,,,,,,,,,,,,,,,,,,,,,,,,,,,,,,,,
,,58e8e462a415a4000150c4da,2024-02-22_05h27.22.377,kallum_motion_pilot,2023.2.2,Win32,143.6781609,58e8e462a415a4000150c4da,65d6bb0e977760de756971f7,65d6bed0277b2fdc463d7ec1,0.02,0.02,1,30,192,72,1,onetwo,,,,,,,,,,,,,,,,,,,,,,,,,,,,,,,,,,,,,,,,,,,,,,,,,,,,,,,,,,,,,,,,,,,,,,,,,,,,,,,,,,,,,,,,,,,,,,,,,,,,,,,,,,,,,,,,,,,,,,,,,,,,,,,,,,,,,,,,,
,,58e8e462a415a4000150c4da,2024-02-22_05h27.22.377,kallum_motion_pilot,2023.2.2,Win32,143.6781609,58e8e462a415a4000150c4da,65d6bb0e977760de756971f7,65d6bed0277b2fdc463d7ec1,0.02,0.02,1,31,193,11,1,twofour,,,,,,,,,,,,,,,,,,,,,,,,,,,,,,,,,,,,,,,,,,,,,,,,,,,,,,,,,,,,,,,,,,,,,,,,,,,,,,,,,,,,,,,,,,,,,,,,,,,,,,,,,,,,,,,,,,,,,,,,,,,,,,,,,,,,,,,,,
,,58e8e462a415a4000150c4da,2024-02-22_05h27.22.377,kallum_motion_pilot,2023.2.2,Win32,143.6781609,58e8e462a415a4000150c4da,65d6bb0e977760de756971f7,65d6bed0277b2fdc463d7ec1,0.02,0.02,1,32,194,77,1,threefour,,,,,,,,,,,,,,,,,,,,,,,,,,,,,,,,,,,,,,,,,,,,,,,,,,,,,,,,,,,,,,,,,,,,,,,,,,,,,,,,,,,,,,,,,,,,,,,,,,,,,,,,,,,,,,,,,,,,,,,,,,,,,,,,,,,,,,,,,
,,58e8e462a415a4000150c4da,2024-02-22_05h27.22.377,kallum_motion_pilot,2023.2.2,Win32,143.6781609,58e8e462a415a4000150c4da,65d6bb0e977760de756971f7,65d6bed0277b2fdc463d7ec1,0.02,0.02,1,33,195,36,1,threeone,,,,,,,,,,,,,,,,,,,,,,,,,,,,,,,,,,,,,,,,,,,,,,,,,,,,,,,,,,,,,,,,,,,,,,,,,,,,,,,,,,,,,,,,,,,,,,,,,,,,,,,,,,,,,,,,,,,,,,,,,,,,,,,,,,,,,,,,,
,,58e8e462a415a4000150c4da,2024-02-22_05h27.22.377,kallum_motion_pilot,2023.2.2,Win32,143.6781609,58e8e462a415a4000150c4da,65d6bb0e977760de756971f7,65d6bed0277b2fdc463d7ec1,0.02,0.02,1,34,196,21,1,threefour,,,,,,,,,,,,,,,,,,,,,,,,,,,,,,,,,,,,,,,,,,,,,,,,,,,,,,,,,,,,,,,,,,,,,,,,,,,,,,,,,,,,,,,,,,,,,,,,,,,,,,,,,,,,,,,,,,,,,,,,,,,,,,,,,,,,,,,,,
,,58e8e462a415a4000150c4da,2024-02-22_05h27.22.377,kallum_motion_pilot,2023.2.2,Win32,143.6781609,58e8e462a415a4000150c4da,65d6bb0e977760de756971f7,65d6bed0277b2fdc463d7ec1,0.02,0.02,1,35,197,113,1,fiveseven,,,,,,,,,,,,,,,,,,,,,,,,,,,,,,,,,,,,,,,,,,,,,,,,,,,,,,,,,,,,,,,,,,,,,,,,,,,,,,,,,,,,,,,,,,,,,,,,,,,,,,,,,,,,,,,,,,,,,,,,,,,,,,,,,,,,,,,,,
,,58e8e462a415a4000150c4da,2024-02-22_05h27.22.377,kallum_motion_pilot,2023.2.2,Win32,143.6781609,58e8e462a415a4000150c4da,65d6bb0e977760de756971f7,65d6bed0277b2fdc463d7ec1,0.02,0.021,1,36,198,136,1,fivesix,,,,,,,,,,,,,,,,,,,,,,,,,,,,,,,,,,,,,,,,,,,,,,,,,,,,,,,,,,,,,,,,,,,,,,,,,,,,,,,,,,,,,,,,,,,,,,,,,,,,,,,,,,,,,,,,,,,,,,,,,,,,,,,,,,,,,,,,,
,,58e8e462a415a4000150c4da,2024-02-22_05h27.22.377,kallum_motion_pilot,2023.2.2,Win32,143.6781609,58e8e462a415a4000150c4da,65d6bb0e977760de756971f7,65d6bed0277b2fdc463d7ec1,0.021,0.021,1,37,199,139,1,sixeight,,,,,,,,,,,,,,,,,,,,,,,,,,,,,,,,,,,,,,,,,,,,,,,,,,,,,,,,,,,,,,,,,,,,,,,,,,,,,,,,,,,,,,,,,,,,,,,,,,,,,,,,,,,,,,,,,,,,,,,,,,,,,,,,,,,,,,,,,
,,58e8e462a415a4000150c4da,2024-02-22_05h27.22.377,kallum_motion_pilot,2023.2.2,Win32,143.6781609,58e8e462a415a4000150c4da,65d6bb0e977760de756971f7,65d6bed0277b2fdc463d7ec1,0.021,0.021,1,38,200,160,1,fivesix,,,,,,,,,,,,,,,,,,,,,,,,,,,,,,,,,,,,,,,,,,,,,,,,,,,,,,,,,,,,,,,,,,,,,,,,,,,,,,,,,,,,,,,,,,,,,,,,,,,,,,,,,,,,,,,,,,,,,,,,,,,,,,,,,,,,,,,,,
,,58e8e462a415a4000150c4da,2024-02-22_05h27.22.377,kallum_motion_pilot,2023.2.2,Win32,143.6781609,58e8e462a415a4000150c4da,65d6bb0e977760de756971f7,65d6bed0277b2fdc463d7ec1,0.021,0.021,1,39,201,3,1,twofour,,,,,,,,,,,,,,,,,,,,,,,,,,,,,,,,,,,,,,,,,,,,,,,,,,,,,,,,,,,,,,,,,,,,,,,,,,,,,,,,,,,,,,,,,,,,,,,,,,,,,,,,,,,,,,,,,,,,,,,,,,,,,,,,,,,,,,,,,
,,58e8e462a415a4000150c4da,2024-02-22_05h27.22.377,kallum_motion_pilot,2023.2.2,Win32,143.6781609,58e8e462a415a4000150c4da,65d6bb0e977760de756971f7,65d6bed0277b2fdc463d7ec1,0.021,0.021,1,40,202,51,1,twofour,,,,,,,,,,,,,,,,,,,,,,,,,,,,,,,,,,,,,,,,,,,,,,,,,,,,,,,,,,,,,,,,,,,,,,,,,,,,,,,,,,,,,,,,,,,,,,,,,,,,,,,,,,,,,,,,,,,,,,,,,,,,,,,,,,,,,,,,,
,,58e8e462a415a4000150c4da,2024-02-22_05h27.22.377,kallum_motion_pilot,2023.2.2,Win32,143.6781609,58e8e462a415a4000150c4da,65d6bb0e977760de756971f7,65d6bed0277b2fdc463d7ec1,0.021,0.021,1,41,203,90,1,sixfive,,,,,,,,,,,,,,,,,,,,,,,,,,,,,,,,,,,,,,,,,,,,,,,,,,,,,,,,,,,,,,,,,,,,,,,,,,,,,,,,,,,,,,,,,,,,,,,,,,,,,,,,,,,,,,,,,,,,,,,,,,,,,,,,,,,,,,,,,
,,58e8e462a415a4000150c4da,2024-02-22_05h27.22.377,kallum_motion_pilot,2023.2.2,Win32,143.6781609,58e8e462a415a4000150c4da,65d6bb0e977760de756971f7,65d6bed0277b2fdc463d7ec1,0.021,0.021,1,42,204,145,1,fiveseven,,,,,,,,,,,,,,,,,,,,,,,,,,,,,,,,,,,,,,,,,,,,,,,,,,,,,,,,,,,,,,,,,,,,,,,,,,,,,,,,,,,,,,,,,,,,,,,,,,,,,,,,,,,,,,,,,,,,,,,,,,,,,,,,,,,,,,,,,
,,58e8e462a415a4000150c4da,2024-02-22_05h27.22.377,kallum_motion_pilot,2023.2.2,Win32,143.6781609,58e8e462a415a4000150c4da,65d6bb0e977760de756971f7,65d6bed0277b2fdc463d7ec1,0.021,0.021,1,43,205,86,1,eightsix,,,,,,,,,,,,,,,,,,,,,,,,,,,,,,,,,,,,,,,,,,,,,,,,,,,,,,,,,,,,,,,,,,,,,,,,,,,,,,,,,,,,,,,,,,,,,,,,,,,,,,,,,,,,,,,,,,,,,,,,,,,,,,,,,,,,,,,,,
,,58e8e462a415a4000150c4da,2024-02-22_05h27.22.377,kallum_motion_pilot,2023.2.2,Win32,143.6781609,58e8e462a415a4000150c4da,65d6bb0e977760de756971f7,65d6bed0277b2fdc463d7ec1,0.021,0.021,1,44,206,81,1,fiveseven,,,,,,,,,,,,,,,,,,,,,,,,,,,,,,,,,,,,,,,,,,,,,,,,,,,,,,,,,,,,,,,,,,,,,,,,,,,,,,,,,,,,,,,,,,,,,,,,,,,,,,,,,,,,,,,,,,,,,,,,,,,,,,,,,,,,,,,,,
,,58e8e462a415a4000150c4da,2024-02-22_05h27.22.377,kallum_motion_pilot,2023.2.2,Win32,143.6781609,58e8e462a415a4000150c4da,65d6bb0e977760de756971f7,65d6bed0277b2fdc463d7ec1,0.021,0.021,1,45,207,78,1,fourtwo,,,,,,,,,,,,,,,,,,,,,,,,,,,,,,,,,,,,,,,,,,,,,,,,,,,,,,,,,,,,,,,,,,,,,,,,,,,,,,,,,,,,,,,,,,,,,,,,,,,,,,,,,,,,,,,,,,,,,,,,,,,,,,,,,,,,,,,,,
,,58e8e462a415a4000150c4da,2024-02-22_05h27.22.377,kallum_motion_pilot,2023.2.2,Win32,143.6781609,58e8e462a415a4000150c4da,65d6bb0e977760de756971f7,65d6bed0277b2fdc463d7ec1,0.021,0.021,1,46,208,105,1,fiveseven,,,,,,,,,,,,,,,,,,,,,,,,,,,,,,,,,,,,,,,,,,,,,,,,,,,,,,,,,,,,,,,,,,,,,,,,,,,,,,,,,,,,,,,,,,,,,,,,,,,,,,,,,,,,,,,,,,,,,,,,,,,,,,,,,,,,,,,,,
,,58e8e462a415a4000150c4da,2024-02-22_05h27.22.377,kallum_motion_pilot,2023.2.2,Win32,143.6781609,58e8e462a415a4000150c4da,65d6bb0e977760de756971f7,65d6bed0277b2fdc463d7ec1,0.021,0.021,1,47,209,104,1,fivesix,,,,,,,,,,,,,,,,,,,,,,,,,,,,,,,,,,,,,,,,,,,,,,,,,,,,,,,,,,,,,,,,,,,,,,,,,,,,,,,,,,,,,,,,,,,,,,,,,,,,,,,,,,,,,,,,,,,,,,,,,,,,,,,,,,,,,,,,,
,,58e8e462a415a4000150c4da,2024-02-22_05h27.22.377,kallum_motion_pilot,2023.2.2,Win32,143.6781609,58e8e462a415a4000150c4da,65d6bb0e977760de756971f7,65d6bed0277b2fdc463d7ec1,0.022,0.022,1,48,210,30,1,fourtwo,,,,,,,,,,,,,,,,,,,,,,,,,,,,,,,,,,,,,,,,,,,,,,,,,,,,,,,,,,,,,,,,,,,,,,,,,,,,,,,,,,,,,,,,,,,,,,,,,,,,,,,,,,,,,,,,,,,,,,,,,,,,,,,,,,,,,,,,,
,,58e8e462a415a4000150c4da,2024-02-22_05h27.22.377,kallum_motion_pilot,2023.2.2,Win32,143.6781609,58e8e462a415a4000150c4da,65d6bb0e977760de756971f7,65d6bed0277b2fdc463d7ec1,0.022,0.022,1,49,211,106,1,sixfive,,,,,,,,,,,,,,,,,,,,,,,,,,,,,,,,,,,,,,,,,,,,,,,,,,,,,,,,,,,,,,,,,,,,,,,,,,,,,,,,,,,,,,,,,,,,,,,,,,,,,,,,,,,,,,,,,,,,,,,,,,,,,,,,,,,,,,,,,
,,58e8e462a415a4000150c4da,2024-02-22_05h27.22.377,kallum_motion_pilot,2023.2.2,Win32,143.6781609,58e8e462a415a4000150c4da,65d6bb0e977760de756971f7,65d6bed0277b2fdc463d7ec1,0.022,0.022,1,50,212,19,1,twofour,,,,,,,,,,,,,,,,,,,,,,,,,,,,,,,,,,,,,,,,,,,,,,,,,,,,,,,,,,,,,,,,,,,,,,,,,,,,,,,,,,,,,,,,,,,,,,,,,,,,,,,,,,,,,,,,,,,,,,,,,,,,,,,,,,,,,,,,,
,,58e8e462a415a4000150c4da,2024-02-22_05h27.22.377,kallum_motion_pilot,2023.2.2,Win32,143.6781609,58e8e462a415a4000150c4da,65d6bb0e977760de756971f7,65d6bed0277b2fdc463d7ec1,0.022,0.022,1,51,213,24,1,onetwo,,,,,,,,,,,,,,,,,,,,,,,,,,,,,,,,,,,,,,,,,,,,,,,,,,,,,,,,,,,,,,,,,,,,,,,,,,,,,,,,,,,,,,,,,,,,,,,,,,,,,,,,,,,,,,,,,,,,,,,,,,,,,,,,,,,,,,,,,
,,58e8e462a415a4000150c4da,2024-02-22_05h27.22.377,kallum_motion_pilot,2023.2.2,Win32,143.6781609,58e8e462a415a4000150c4da,65d6bb0e977760de756971f7,65d6bed0277b2fdc463d7ec1,0.022,0.022,1,52,214,112,1,fivesix,,,,,,,,,,,,,,,,,,,,,,,,,,,,,,,,,,,,,,,,,,,,,,,,,,,,,,,,,,,,,,,,,,,,,,,,,,,,,,,,,,,,,,,,,,,,,,,,,,,,,,,,,,,,,,,,,,,,,,,,,,,,,,,,,,,,,,,,,
,,58e8e462a415a4000150c4da,2024-02-22_05h27.22.377,kallum_motion_pilot,2023.2.2,Win32,143.6781609,58e8e462a415a4000150c4da,65d6bb0e977760de756971f7,65d6bed0277b2fdc463d7ec1,0.022,0.022,1,53,215,1,1,onethree,,,,,,,,,,,,,,,,,,,,,,,,,,,,,,,,,,,,,,,,,,,,,,,,,,,,,,,,,,,,,,,,,,,,,,,,,,,,,,,,,,,,,,,,,,,,,,,,,,,,,,,,,,,,,,,,,,,,,,,,,,,,,,,,,,,,,,,,,
,,58e8e462a415a4000150c4da,2024-02-22_05h27.22.377,kallum_motion_pilot,2023.2.2,Win32,143.6781609,58e8e462a415a4000150c4da,65d6bb0e977760de756971f7,65d6bed0277b2fdc463d7ec1,0.022,0.022,1,54,216,100,1,sevenfive,,,,,,,,,,,,,,,,,,,,,,,,,,,,,,,,,,,,,,,,,,,,,,,,,,,,,,,,,,,,,,,,,,,,,,,,,,,,,,,,,,,,,,,,,,,,,,,,,,,,,,,,,,,,,,,,,,,,,,,,,,,,,,,,,,,,,,,,,
,,58e8e462a415a4000150c4da,2024-02-22_05h27.22.377,kallum_motion_pilot,2023.2.2,Win32,143.6781609,58e8e462a415a4000150c4da,65d6bb0e977760de756971f7,65d6bed0277b2fdc463d7ec1,0.022,0.022,1,55,217,80,1,fivesix,,,,,,,,,,,,,,,,,,,,,,,,,,,,,,,,,,,,,,,,,,,,,,,,,,,,,,,,,,,,,,,,,,,,,,,,,,,,,,,,,,,,,,,,,,,,,,,,,,,,,,,,,,,,,,,,,,,,,,,,,,,,,,,,,,,,,,,,,
,,58e8e462a415a4000150c4da,2024-02-22_05h27.22.377,kallum_motion_pilot,2023.2.2,Win32,143.6781609,58e8e462a415a4000150c4da,65d6bb0e977760de756971f7,65d6bed0277b2fdc463d7ec1,0.022,0.022,1,56,218,73,1,onethree,,,,,,,,,,,,,,,,,,,,,,,,,,,,,,,,,,,,,,,,,,,,,,,,,,,,,,,,,,,,,,,,,,,,,,,,,,,,,,,,,,,,,,,,,,,,,,,,,,,,,,,,,,,,,,,,,,,,,,,,,,,,,,,,,,,,,,,,,
,,58e8e462a415a4000150c4da,2024-02-22_05h27.22.377,kallum_motion_pilot,2023.2.2,Win32,143.6781609,58e8e462a415a4000150c4da,65d6bb0e977760de756971f7,65d6bed0277b2fdc463d7ec1,0.022,0.022,1,57,219,92,1,sevenfive,,,,,,,,,,,,,,,,,,,,,,,,,,,,,,,,,,,,,,,,,,,,,,,,,,,,,,,,,,,,,,,,,,,,,,,,,,,,,,,,,,,,,,,,,,,,,,,,,,,,,,,,,,,,,,,,,,,,,,,,,,,,,,,,,,,,,,,,,
,,58e8e462a415a4000150c4da,2024-02-22_05h27.22.377,kallum_motion_pilot,2023.2.2,Win32,143.6781609,58e8e462a415a4000150c4da,65d6bb0e977760de756971f7,65d6bed0277b2fdc463d7ec1,0.022,0.022,1,58,220,98,1,sixfive,,,,,,,,,,,,,,,,,,,,,,,,,,,,,,,,,,,,,,,,,,,,,,,,,,,,,,,,,,,,,,,,,,,,,,,,,,,,,,,,,,,,,,,,,,,,,,,,,,,,,,,,,,,,,,,,,,,,,,,,,,,,,,,,,,,,,,,,,
,,58e8e462a415a4000150c4da,2024-02-22_05h27.22.377,kallum_motion_pilot,2023.2.2,Win32,143.6781609,58e8e462a415a4000150c4da,65d6bb0e977760de756971f7,65d6bed0277b2fdc463d7ec1,0.022,0.022,1,59,221,67,1,twofour,,,,,,,,,,,,,,,,,,,,,,,,,,,,,,,,,,,,,,,,,,,,,,,,,,,,,,,,,,,,,,,,,,,,,,,,,,,,,,,,,,,,,,,,,,,,,,,,,,,,,,,,,,,,,,,,,,,,,,,,,,,,,,,,,,,,,,,,,
,,58e8e462a415a4000150c4da,2024-02-22_05h27.22.377,kallum_motion_pilot,2023.2.2,Win32,143.6781609,58e8e462a415a4000150c4da,65d6bb0e977760de756971f7,65d6bed0277b2fdc463d7ec1,0.022,0.022,1,60,222,45,1,threefour,,,,,,,,,,,,,,,,,,,,,,,,,,,,,,,,,,,,,,,,,,,,,,,,,,,,,,,,,,,,,,,,,,,,,,,,,,,,,,,,,,,,,,,,,,,,,,,,,,,,,,,,,,,,,,,,,,,,,,,,,,,,,,,,,,,,,,,,,
,,58e8e462a415a4000150c4da,2024-02-22_05h27.22.377,kallum_motion_pilot,2023.2.2,Win32,143.6781609,58e8e462a415a4000150c4da,65d6bb0e977760de756971f7,65d6bed0277b2fdc463d7ec1,0.022,0.022,1,61,223,131,1,sixeight,,,,,,,,,,,,,,,,,,,,,,,,,,,,,,,,,,,,,,,,,,,,,,,,,,,,,,,,,,,,,,,,,,,,,,,,,,,,,,,,,,,,,,,,,,,,,,,,,,,,,,,,,,,,,,,,,,,,,,,,,,,,,,,,,,,,,,,,,
,,58e8e462a415a4000150c4da,2024-02-22_05h27.22.377,kallum_motion_pilot,2023.2.2,Win32,143.6781609,58e8e462a415a4000150c4da,65d6bb0e977760de756971f7,65d6bed0277b2fdc463d7ec1,0.022,0.022,1,62,224,74,1,twoone,,,,,,,,,,,,,,,,,,,,,,,,,,,,,,,,,,,,,,,,,,,,,,,,,,,,,,,,,,,,,,,,,,,,,,,,,,,,,,,,,,,,,,,,,,,,,,,,,,,,,,,,,,,,,,,,,,,,,,,,,,,,,,,,,,,,,,,,,
,,58e8e462a415a4000150c4da,2024-02-22_05h27.22.377,kallum_motion_pilot,2023.2.2,Win32,143.6781609,58e8e462a415a4000150c4da,65d6bb0e977760de756971f7,65d6bed0277b2fdc463d7ec1,0.022,0.022,1,63,225,82,1,sixfive,,,,,,,,,,,,,,,,,,,,,,,,,,,,,,,,,,,,,,,,,,,,,,,,,,,,,,,,,,,,,,,,,,,,,,,,,,,,,,,,,,,,,,,,,,,,,,,,,,,,,,,,,,,,,,,,,,,,,,,,,,,,,,,,,,,,,,,,,
,,58e8e462a415a4000150c4da,2024-02-22_05h27.22.377,kallum_motion_pilot,2023.2.2,Win32,143.6781609,58e8e462a415a4000150c4da,65d6bb0e977760de756971f7,65d6bed0277b2fdc463d7ec1,0.022,0.022,1,64,226,22,1,fourtwo,,,,,,,,,,,,,,,,,,,,,,,,,,,,,,,,,,,,,,,,,,,,,,,,,,,,,,,,,,,,,,,,,,,,,,,,,,,,,,,,,,,,,,,,,,,,,,,,,,,,,,,,,,,,,,,,,,,,,,,,,,,,,,,,,,,,,,,,,
,,58e8e462a415a4000150c4da,2024-02-22_05h27.22.377,kallum_motion_pilot,2023.2.2,Win32,143.6781609,58e8e462a415a4000150c4da,65d6bb0e977760de756971f7,65d6bed0277b2fdc463d7ec1,0.022,0.022,1,65,227,115,1,sixeight,,,,,,,,,,,,,,,,,,,,,,,,,,,,,,,,,,,,,,,,,,,,,,,,,,,,,,,,,,,,,,,,,,,,,,,,,,,,,,,,,,,,,,,,,,,,,,,,,,,,,,,,,,,,,,,,,,,,,,,,,,,,,,,,,,,,,,,,,
,,58e8e462a415a4000150c4da,2024-02-22_05h27.22.377,kallum_motion_pilot,2023.2.2,Win32,143.6781609,58e8e462a415a4000150c4da,65d6bb0e977760de756971f7,65d6bed0277b2fdc463d7ec1,0.022,0.022,1,66,228,52,1,threeone,,,,,,,,,,,,,,,,,,,,,,,,,,,,,,,,,,,,,,,,,,,,,,,,,,,,,,,,,,,,,,,,,,,,,,,,,,,,,,,,,,,,,,,,,,,,,,,,,,,,,,,,,,,,,,,,,,,,,,,,,,,,,,,,,,,,,,,,,
,,58e8e462a415a4000150c4da,2024-02-22_05h27.22.377,kallum_motion_pilot,2023.2.2,Win32,143.6781609,58e8e462a415a4000150c4da,65d6bb0e977760de756971f7,65d6bed0277b2fdc463d7ec1,0.022,0.022,1,67,229,117,1,seveneight,,,,,,,,,,,,,,,,,,,,,,,,,,,,,,,,,,,,,,,,,,,,,,,,,,,,,,,,,,,,,,,,,,,,,,,,,,,,,,,,,,,,,,,,,,,,,,,,,,,,,,,,,,,,,,,,,,,,,,,,,,,,,,,,,,,,,,,,,
,,58e8e462a415a4000150c4da,2024-02-22_05h27.22.377,kallum_motion_pilot,2023.2.2,Win32,143.6781609,58e8e462a415a4000150c4da,65d6bb0e977760de756971f7,65d6bed0277b2fdc463d7ec1,0.022,0.022,1,68,230,155,1,sixeight,,,,,,,,,,,,,,,,,,,,,,,,,,,,,,,,,,,,,,,,,,,,,,,,,,,,,,,,,,,,,,,,,,,,,,,,,,,,,,,,,,,,,,,,,,,,,,,,,,,,,,,,,,,,,,,,,,,,,,,,,,,,,,,,,,,,,,,,,
,,58e8e462a415a4000150c4da,2024-02-22_05h27.22.377,kallum_motion_pilot,2023.2.2,Win32,143.6781609,58e8e462a415a4000150c4da,65d6bb0e977760de756971f7,65d6bed0277b2fdc463d7ec1,0.022,0.022,1,69,231,28,1,threeone,,,,,,,,,,,,,,,,,,,,,,,,,,,,,,,,,,,,,,,,,,,,,,,,,,,,,,,,,,,,,,,,,,,,,,,,,,,,,,,,,,,,,,,,,,,,,,,,,,,,,,,,,,,,,,,,,,,,,,,,,,,,,,,,,,,,,,,,,
,,58e8e462a415a4000150c4da,2024-02-22_05h27.22.377,kallum_motion_pilot,2023.2.2,Win32,143.6781609,58e8e462a415a4000150c4da,65d6bb0e977760de756971f7,65d6bed0277b2fdc463d7ec1,0.022,0.022,1,70,232,60,1,threeone,,,,,,,,,,,,,,,,,,,,,,,,,,,,,,,,,,,,,,,,,,,,,,,,,,,,,,,,,,,,,,,,,,,,,,,,,,,,,,,,,,,,,,,,,,,,,,,,,,,,,,,,,,,,,,,,,,,,,,,,,,,,,,,,,,,,,,,,,
,,58e8e462a415a4000150c4da,2024-02-22_05h27.22.377,kallum_motion_pilot,2023.2.2,Win32,143.6781609,58e8e462a415a4000150c4da,65d6bb0e977760de756971f7,65d6bed0277b2fdc463d7ec1,0.022,0.022,1,71,233,44,1,threeone,,,,,,,,,,,,,,,,,,,,,,,,,,,,,,,,,,,,,,,,,,,,,,,,,,,,,,,,,,,,,,,,,,,,,,,,,,,,,,,,,,,,,,,,,,,,,,,,,,,,,,,,,,,,,,,,,,,,,,,,,,,,,,,,,,,,,,,,,
,,58e8e462a415a4000150c4da,2024-02-22_05h27.22.377,kallum_motion_pilot,2023.2.2,Win32,143.6781609,58e8e462a415a4000150c4da,65d6bb0e977760de756971f7,65d6bed0277b2fdc463d7ec1,0.022,0.022,1,72,234,33,1,onethree,,,,,,,,,,,,,,,,,,,,,,,,,,,,,,,,,,,,,,,,,,,,,,,,,,,,,,,,,,,,,,,,,,,,,,,,,,,,,,,,,,,,,,,,,,,,,,,,,,,,,,,,,,,,,,,,,,,,,,,,,,,,,,,,,,,,,,,,,
,,58e8e462a415a4000150c4da,2024-02-22_05h27.22.377,kallum_motion_pilot,2023.2.2,Win32,143.6781609,58e8e462a415a4000150c4da,65d6bb0e977760de756971f7,65d6bed0277b2fdc463d7ec1,0.022,0.022,1,73,235,129,1,fiveseven,,,,,,,,,,,,,,,,,,,,,,,,,,,,,,,,,,,,,,,,,,,,,,,,,,,,,,,,,,,,,,,,,,,,,,,,,,,,,,,,,,,,,,,,,,,,,,,,,,,,,,,,,,,,,,,,,,,,,,,,,,,,,,,,,,,,,,,,,
,,58e8e462a415a4000150c4da,2024-02-22_05h27.22.377,kallum_motion_pilot,2023.2.2,Win32,143.6781609,58e8e462a415a4000150c4da,65d6bb0e977760de756971f7,65d6bed0277b2fdc463d7ec1,0.023,0.023,1,74,236,37,1,threefour,,,,,,,,,,,,,,,,,,,,,,,,,,,,,,,,,,,,,,,,,,,,,,,,,,,,,,,,,,,,,,,,,,,,,,,,,,,,,,,,,,,,,,,,,,,,,,,,,,,,,,,,,,,,,,,,,,,,,,,,,,,,,,,,,,,,,,,,,
,,58e8e462a415a4000150c4da,2024-02-22_05h27.22.377,kallum_motion_pilot,2023.2.2,Win32,143.6781609,58e8e462a415a4000150c4da,65d6bb0e977760de756971f7,65d6bed0277b2fdc463d7ec1,0.023,0.023,1,75,237,103,1,eightseven,,,,,,,,,,,,,,,,,,,,,,,,,,,,,,,,,,,,,,,,,,,,,,,,,,,,,,,,,,,,,,,,,,,,,,,,,,,,,,,,,,,,,,,,,,,,,,,,,,,,,,,,,,,,,,,,,,,,,,,,,,,,,,,,,,,,,,,,,
,,58e8e462a415a4000150c4da,2024-02-22_05h27.22.377,kallum_motion_pilot,2023.2.2,Win32,143.6781609,58e8e462a415a4000150c4da,65d6bb0e977760de756971f7,65d6bed0277b2fdc463d7ec1,0.023,0.023,1,76,238,84,1,sevenfive,,,,,,,,,,,,,,,,,,,,,,,,,,,,,,,,,,,,,,,,,,,,,,,,,,,,,,,,,,,,,,,,,,,,,,,,,,,,,,,,,,,,,,,,,,,,,,,,,,,,,,,,,,,,,,,,,,,,,,,,,,,,,,,,,,,,,,,,,
,,58e8e462a415a4000150c4da,2024-02-22_05h27.22.377,kallum_motion_pilot,2023.2.2,Win32,143.6781609,58e8e462a415a4000150c4da,65d6bb0e977760de756971f7,65d6bed0277b2fdc463d7ec1,0.023,0.023,1,77,239,71,1,fourthree,,,,,,,,,,,,,,,,,,,,,,,,,,,,,,,,,,,,,,,,,,,,,,,,,,,,,,,,,,,,,,,,,,,,,,,,,,,,,,,,,,,,,,,,,,,,,,,,,,,,,,,,,,,,,,,,,,,,,,,,,,,,,,,,,,,,,,,,,
,,58e8e462a415a4000150c4da,2024-02-22_05h27.22.377,kallum_motion_pilot,2023.2.2,Win32,143.6781609,58e8e462a415a4000150c4da,65d6bb0e977760de756971f7,65d6bed0277b2fdc463d7ec1,0.023,0.023,1,78,240,42,1,twoone,,,,,,,,,,,,,,,,,,,,,,,,,,,,,,,,,,,,,,,,,,,,,,,,,,,,,,,,,,,,,,,,,,,,,,,,,,,,,,,,,,,,,,,,,,,,,,,,,,,,,,,,,,,,,,,,,,,,,,,,,,,,,,,,,,,,,,,,,
,,58e8e462a415a4000150c4da,2024-02-22_05h27.22.377,kallum_motion_pilot,2023.2.2,Win32,143.6781609,58e8e462a415a4000150c4da,65d6bb0e977760de756971f7,65d6bed0277b2fdc463d7ec1,0.023,0.023,1,79,241,141,1,seveneight,,,,,,,,,,,,,,,,,,,,,,,,,,,,,,,,,,,,,,,,,,,,,,,,,,,,,,,,,,,,,,,,,,,,,,,,,,,,,,,,,,,,,,,,,,,,,,,,,,,,,,,,,,,,,,,,,,,,,,,,,,,,,,,,,,,,,,,,,
,,58e8e462a415a4000150c4da,2024-02-22_05h27.22.377,kallum_motion_pilot,2023.2.2,Win32,143.6781609,58e8e462a415a4000150c4da,65d6bb0e977760de756971f7,65d6bed0277b2fdc463d7ec1,0.023,0.023,1,80,242,16,1,onetwo,,,,,,,,,,,,,,,,,,,,,,,,,,,,,,,,,,,,,,,,,,,,,,,,,,,,,,,,,,,,,,,,,,,,,,,,,,,,,,,,,,,,,,,,,,,,,,,,,,,,,,,,,,,,,,,,,,,,,,,,,,,,,,,,,,,,,,,,,
,,58e8e462a415a4000150c4da,2024-02-22_05h27.22.377,kallum_motion_pilot,2023.2.2,Win32,143.6781609,58e8e462a415a4000150c4da,65d6bb0e977760de756971f7,65d6bed0277b2fdc463d7ec1,0.023,0.023,1,81,243,111,1,eightseven,,,,,,,,,,,,,,,,,,,,,,,,,,,,,,,,,,,,,,,,,,,,,,,,,,,,,,,,,,,,,,,,,,,,,,,,,,,,,,,,,,,,,,,,,,,,,,,,,,,,,,,,,,,,,,,,,,,,,,,,,,,,,,,,,,,,,,,,,
,,58e8e462a415a4000150c4da,2024-02-22_05h27.22.377,kallum_motion_pilot,2023.2.2,Win32,143.6781609,58e8e462a415a4000150c4da,65d6bb0e977760de756971f7,65d6bed0277b2fdc463d7ec1,0.023,0.023,1,82,244,85,1,seveneight,,,,,,,,,,,,,,,,,,,,,,,,,,,,,,,,,,,,,,,,,,,,,,,,,,,,,,,,,,,,,,,,,,,,,,,,,,,,,,,,,,,,,,,,,,,,,,,,,,,,,,,,,,,,,,,,,,,,,,,,,,,,,,,,,,,,,,,,,
,,58e8e462a415a4000150c4da,2024-02-22_05h27.22.377,kallum_motion_pilot,2023.2.2,Win32,143.6781609,58e8e462a415a4000150c4da,65d6bb0e977760de756971f7,65d6bed0277b2fdc463d7ec1,0.023,0.023,1,83,245,70,1,fourtwo,,,,,,,,,,,,,,,,,,,,,,,,,,,,,,,,,,,,,,,,,,,,,,,,,,,,,,,,,,,,,,,,,,,,,,,,,,,,,,,,,,,,,,,,,,,,,,,,,,,,,,,,,,,,,,,,,,,,,,,,,,,,,,,,,,,,,,,,,
,,58e8e462a415a4000150c4da,2024-02-22_05h27.22.377,kallum_motion_pilot,2023.2.2,Win32,143.6781609,58e8e462a415a4000150c4da,65d6bb0e977760de756971f7,65d6bed0277b2fdc463d7ec1,0.023,0.023,1,84,246,135,1,eightseven,,,,,,,,,,,,,,,,,,,,,,,,,,,,,,,,,,,,,,,,,,,,,,,,,,,,,,,,,,,,,,,,,,,,,,,,,,,,,,,,,,,,,,,,,,,,,,,,,,,,,,,,,,,,,,,,,,,,,,,,,,,,,,,,,,,,,,,,,
,,58e8e462a415a4000150c4da,2024-02-22_05h27.22.377,kallum_motion_pilot,2023.2.2,Win32,143.6781609,58e8e462a415a4000150c4da,65d6bb0e977760de756971f7,65d6bed0277b2fdc463d7ec1,0.023,0.023,1,85,247,46,1,fourtwo,,,,,,,,,,,,,,,,,,,,,,,,,,,,,,,,,,,,,,,,,,,,,,,,,,,,,,,,,,,,,,,,,,,,,,,,,,,,,,,,,,,,,,,,,,,,,,,,,,,,,,,,,,,,,,,,,,,,,,,,,,,,,,,,,,,,,,,,,
,,58e8e462a415a4000150c4da,2024-02-22_05h27.22.377,kallum_motion_pilot,2023.2.2,Win32,143.6781609,58e8e462a415a4000150c4da,65d6bb0e977760de756971f7,65d6bed0277b2fdc463d7ec1,0.023,0.023,1,86,248,154,1,sixfive,,,,,,,,,,,,,,,,,,,,,,,,,,,,,,,,,,,,,,,,,,,,,,,,,,,,,,,,,,,,,,,,,,,,,,,,,,,,,,,,,,,,,,,,,,,,,,,,,,,,,,,,,,,,,,,,,,,,,,,,,,,,,,,,,,,,,,,,,
,,58e8e462a415a4000150c4da,2024-02-22_05h27.22.377,kallum_motion_pilot,2023.2.2,Win32,143.6781609,58e8e462a415a4000150c4da,65d6bb0e977760de756971f7,65d6bed0277b2fdc463d7ec1,0.023,0.023,1,87,249,48,1,onetwo,,,,,,,,,,,,,,,,,,,,,,,,,,,,,,,,,,,,,,,,,,,,,,,,,,,,,,,,,,,,,,,,,,,,,,,,,,,,,,,,,,,,,,,,,,,,,,,,,,,,,,,,,,,,,,,,,,,,,,,,,,,,,,,,,,,,,,,,,
,,58e8e462a415a4000150c4da,2024-02-22_05h27.22.377,kallum_motion_pilot,2023.2.2,Win32,143.6781609,58e8e462a415a4000150c4da,65d6bb0e977760de756971f7,65d6bed0277b2fdc463d7ec1,0.023,0.023,1,88,250,126,1,eightsix,,,,,,,,,,,,,,,,,,,,,,,,,,,,,,,,,,,,,,,,,,,,,,,,,,,,,,,,,,,,,,,,,,,,,,,,,,,,,,,,,,,,,,,,,,,,,,,,,,,,,,,,,,,,,,,,,,,,,,,,,,,,,,,,,,,,,,,,,
,,58e8e462a415a4000150c4da,2024-02-22_05h27.22.377,kallum_motion_pilot,2023.2.2,Win32,143.6781609,58e8e462a415a4000150c4da,65d6bb0e977760de756971f7,65d6bed0277b2fdc463d7ec1,0.023,0.023,1,89,251,128,1,fivesix,,,,,,,,,,,,,,,,,,,,,,,,,,,,,,,,,,,,,,,,,,,,,,,,,,,,,,,,,,,,,,,,,,,,,,,,,,,,,,,,,,,,,,,,,,,,,,,,,,,,,,,,,,,,,,,,,,,,,,,,,,,,,,,,,,,,,,,,,
,,58e8e462a415a4000150c4da,2024-02-22_05h27.22.377,kallum_motion_pilot,2023.2.2,Win32,143.6781609,58e8e462a415a4000150c4da,65d6bb0e977760de756971f7,65d6bed0277b2fdc463d7ec1,0.023,0.023,1,90,252,134,1,eightsix,,,,,,,,,,,,,,,,,,,,,,,,,,,,,,,,,,,,,,,,,,,,,,,,,,,,,,,,,,,,,,,,,,,,,,,,,,,,,,,,,,,,,,,,,,,,,,,,,,,,,,,,,,,,,,,,,,,,,,,,,,,,,,,,,,,,,,,,,
,,58e8e462a415a4000150c4da,2024-02-22_05h27.22.377,kallum_motion_pilot,2023.2.2,Win32,143.6781609,58e8e462a415a4000150c4da,65d6bb0e977760de756971f7,65d6bed0277b2fdc463d7ec1,0.023,0.023,1,91,253,17,1,onethree,,,,,,,,,,,,,,,,,,,,,,,,,,,,,,,,,,,,,,,,,,,,,,,,,,,,,,,,,,,,,,,,,,,,,,,,,,,,,,,,,,,,,,,,,,,,,,,,,,,,,,,,,,,,,,,,,,,,,,,,,,,,,,,,,,,,,,,,,
,,58e8e462a415a4000150c4da,2024-02-22_05h27.22.377,kallum_motion_pilot,2023.2.2,Win32,143.6781609,58e8e462a415a4000150c4da,65d6bb0e977760de756971f7,65d6bed0277b2fdc463d7ec1,0.023,0.023,1,92,254,144,1,fivesix,,,,,,,,,,,,,,,,,,,,,,,,,,,,,,,,,,,,,,,,,,,,,,,,,,,,,,,,,,,,,,,,,,,,,,,,,,,,,,,,,,,,,,,,,,,,,,,,,,,,,,,,,,,,,,,,,,,,,,,,,,,,,,,,,,,,,,,,,
,,58e8e462a415a4000150c4da,2024-02-22_05h27.22.377,kallum_motion_pilot,2023.2.2,Win32,143.6781609,58e8e462a415a4000150c4da,65d6bb0e977760de756971f7,65d6bed0277b2fdc463d7ec1,0.023,0.023,1,93,255,31,1,fourthree,,,,,,,,,,,,,,,,,,,,,,,,,,,,,,,,,,,,,,,,,,,,,,,,,,,,,,,,,,,,,,,,,,,,,,,,,,,,,,,,,,,,,,,,,,,,,,,,,,,,,,,,,,,,,,,,,,,,,,,,,,,,,,,,,,,,,,,,,
,,58e8e462a415a4000150c4da,2024-02-22_05h27.22.377,kallum_motion_pilot,2023.2.2,Win32,143.6781609,58e8e462a415a4000150c4da,65d6bb0e977760de756971f7,65d6bed0277b2fdc463d7ec1,0.023,0.023,1,94,256,40,1,onetwo,,,,,,,,,,,,,,,,,,,,,,,,,,,,,,,,,,,,,,,,,,,,,,,,,,,,,,,,,,,,,,,,,,,,,,,,,,,,,,,,,,,,,,,,,,,,,,,,,,,,,,,,,,,,,,,,,,,,,,,,,,,,,,,,,,,,,,,,,
,,58e8e462a415a4000150c4da,2024-02-22_05h27.22.377,kallum_motion_pilot,2023.2.2,Win32,143.6781609,58e8e462a415a4000150c4da,65d6bb0e977760de756971f7,65d6bed0277b2fdc463d7ec1,0.023,0.023,1,95,257,2,1,twoone,,,,,,,,,,,,,,,,,,,,,,,,,,,,,,,,,,,,,,,,,,,,,,,,,,,,,,,,,,,,,,,,,,,,,,,,,,,,,,,,,,,,,,,,,,,,,,,,,,,,,,,,,,,,,,,,,,,,,,,,,,,,,,,,,,,,,,,,,
,,58e8e462a415a4000150c4da,2024-02-22_05h27.22.377,kallum_motion_pilot,2023.2.2,Win32,143.6781609,58e8e462a415a4000150c4da,65d6bb0e977760de756971f7,65d6bed0277b2fdc463d7ec1,0.023,0.023,1,96,258,27,1,twofour,,,,,,,,,,,,,,,,,,,,,,,,,,,,,,,,,,,,,,,,,,,,,,,,,,,,,,,,,,,,,,,,,,,,,,,,,,,,,,,,,,,,,,,,,,,,,,,,,,,,,,,,,,,,,,,,,,,,,,,,,,,,,,,,,,,,,,,,,
,,58e8e462a415a4000150c4da,2024-02-22_05h27.22.377,kallum_motion_pilot,2023.2.2,Win32,143.6781609,58e8e462a415a4000150c4da,65d6bb0e977760de756971f7,65d6bed0277b2fdc463d7ec1,0.023,0.023,1,97,259,54,1,fourtwo,,,,,,,,,,,,,,,,,,,,,,,,,,,,,,,,,,,,,,,,,,,,,,,,,,,,,,,,,,,,,,,,,,,,,,,,,,,,,,,,,,,,,,,,,,,,,,,,,,,,,,,,,,,,,,,,,,,,,,,,,,,,,,,,,,,,,,,,,
,,58e8e462a415a4000150c4da,2024-02-22_05h27.22.377,kallum_motion_pilot,2023.2.2,Win32,143.6781609,58e8e462a415a4000150c4da,65d6bb0e977760de756971f7,65d6bed0277b2fdc463d7ec1,0.023,0.023,1,98,260,149,1,seveneight,,,,,,,,,,,,,,,,,,,,,,,,,,,,,,,,,,,,,,,,,,,,,,,,,,,,,,,,,,,,,,,,,,,,,,,,,,,,,,,,,,,,,,,,,,,,,,,,,,,,,,,,,,,,,,,,,,,,,,,,,,,,,,,,,,,,,,,,,
,,58e8e462a415a4000150c4da,2024-02-22_05h27.22.377,kallum_motion_pilot,2023.2.2,Win32,143.6781609,58e8e462a415a4000150c4da,65d6bb0e977760de756971f7,65d6bed0277b2fdc463d7ec1,0.023,0.024,1,99,261,47,1,fourthree,,,,,,,,,,,,,,,,,,,,,,,,,,,,,,,,,,,,,,,,,,,,,,,,,,,,,,,,,,,,,,,,,,,,,,,,,,,,,,,,,,,,,,,,,,,,,,,,,,,,,,,,,,,,,,,,,,,,,,,,,,,,,,,,,,,,,,,,,
,,58e8e462a415a4000150c4da,2024-02-22_05h27.22.377,kallum_motion_pilot,2023.2.2,Win32,143.6781609,58e8e462a415a4000150c4da,65d6bb0e977760de756971f7,65d6bed0277b2fdc463d7ec1,0.024,0.024,1,100,262,25,1,onethree,,,,,,,,,,,,,,,,,,,,,,,,,,,,,,,,,,,,,,,,,,,,,,,,,,,,,,,,,,,,,,,,,,,,,,,,,,,,,,,,,,,,,,,,,,,,,,,,,,,,,,,,,,,,,,,,,,,,,,,,,,,,,,,,,,,,,,,,,
,,58e8e462a415a4000150c4da,2024-02-22_05h27.22.377,kallum_motion_pilot,2023.2.2,Win32,143.6781609,58e8e462a415a4000150c4da,65d6bb0e977760de756971f7,65d6bed0277b2fdc463d7ec1,0.024,0.024,1,101,263,130,1,sixfive,,,,,,,,,,,,,,,,,,,,,,,,,,,,,,,,,,,,,,,,,,,,,,,,,,,,,,,,,,,,,,,,,,,,,,,,,,,,,,,,,,,,,,,,,,,,,,,,,,,,,,,,,,,,,,,,,,,,,,,,,,,,,,,,,,,,,,,,,
,,58e8e462a415a4000150c4da,2024-02-22_05h27.22.377,kallum_motion_pilot,2023.2.2,Win32,143.6781609,58e8e462a415a4000150c4da,65d6bb0e977760de756971f7,65d6bed0277b2fdc463d7ec1,0.024,0.024,1,102,264,15,1,fourthree,,,,,,,,,,,,,,,,,,,,,,,,,,,,,,,,,,,,,,,,,,,,,,,,,,,,,,,,,,,,,,,,,,,,,,,,,,,,,,,,,,,,,,,,,,,,,,,,,,,,,,,,,,,,,,,,,,,,,,,,,,,,,,,,,,,,,,,,,
,,58e8e462a415a4000150c4da,2024-02-22_05h27.22.377,kallum_motion_pilot,2023.2.2,Win32,143.6781609,58e8e462a415a4000150c4da,65d6bb0e977760de756971f7,65d6bed0277b2fdc463d7ec1,0.024,0.024,1,103,265,125,1,seveneight,,,,,,,,,,,,,,,,,,,,,,,,,,,,,,,,,,,,,,,,,,,,,,,,,,,,,,,,,,,,,,,,,,,,,,,,,,,,,,,,,,,,,,,,,,,,,,,,,,,,,,,,,,,,,,,,,,,,,,,,,,,,,,,,,,,,,,,,,
,,58e8e462a415a4000150c4da,2024-02-22_05h27.22.377,kallum_motion_pilot,2023.2.2,Win32,143.6781609,58e8e462a415a4000150c4da,65d6bb0e977760de756971f7,65d6bed0277b2fdc463d7ec1,0.024,0.024,1,104,266,79,1,eightseven,,,,,,,,,,,,,,,,,,,,,,,,,,,,,,,,,,,,,,,,,,,,,,,,,,,,,,,,,,,,,,,,,,,,,,,,,,,,,,,,,,,,,,,,,,,,,,,,,,,,,,,,,,,,,,,,,,,,,,,,,,,,,,,,,,,,,,,,,
,,58e8e462a415a4000150c4da,2024-02-22_05h27.22.377,kallum_motion_pilot,2023.2.2,Win32,143.6781609,58e8e462a415a4000150c4da,65d6bb0e977760de756971f7,65d6bed0277b2fdc463d7ec1,0.024,0.024,1,105,267,26,1,twoone,,,,,,,,,,,,,,,,,,,,,,,,,,,,,,,,,,,,,,,,,,,,,,,,,,,,,,,,,,,,,,,,,,,,,,,,,,,,,,,,,,,,,,,,,,,,,,,,,,,,,,,,,,,,,,,,,,,,,,,,,,,,,,,,,,,,,,,,,
,,58e8e462a415a4000150c4da,2024-02-22_05h27.22.377,kallum_motion_pilot,2023.2.2,Win32,143.6781609,58e8e462a415a4000150c4da,65d6bb0e977760de756971f7,65d6bed0277b2fdc463d7ec1,0.024,0.024,1,106,268,38,1,fourtwo,,,,,,,,,,,,,,,,,,,,,,,,,,,,,,,,,,,,,,,,,,,,,,,,,,,,,,,,,,,,,,,,,,,,,,,,,,,,,,,,,,,,,,,,,,,,,,,,,,,,,,,,,,,,,,,,,,,,,,,,,,,,,,,,,,,,,,,,,
,,58e8e462a415a4000150c4da,2024-02-22_05h27.22.377,kallum_motion_pilot,2023.2.2,Win32,143.6781609,58e8e462a415a4000150c4da,65d6bb0e977760de756971f7,65d6bed0277b2fdc463d7ec1,0.024,0.024,1,107,269,93,1,seveneight,,,,,,,,,,,,,,,,,,,,,,,,,,,,,,,,,,,,,,,,,,,,,,,,,,,,,,,,,,,,,,,,,,,,,,,,,,,,,,,,,,,,,,,,,,,,,,,,,,,,,,,,,,,,,,,,,,,,,,,,,,,,,,,,,,,,,,,,,
,,58e8e462a415a4000150c4da,2024-02-22_05h27.22.377,kallum_motion_pilot,2023.2.2,Win32,143.6781609,58e8e462a415a4000150c4da,65d6bb0e977760de756971f7,65d6bed0277b2fdc463d7ec1,0.024,0.024,1,108,270,61,1,threefour,,,,,,,,,,,,,,,,,,,,,,,,,,,,,,,,,,,,,,,,,,,,,,,,,,,,,,,,,,,,,,,,,,,,,,,,,,,,,,,,,,,,,,,,,,,,,,,,,,,,,,,,,,,,,,,,,,,,,,,,,,,,,,,,,,,,,,,,,
,,58e8e462a415a4000150c4da,2024-02-22_05h27.22.377,kallum_motion_pilot,2023.2.2,Win32,143.6781609,58e8e462a415a4000150c4da,65d6bb0e977760de756971f7,65d6bed0277b2fdc463d7ec1,0.024,0.024,1,109,271,91,1,sixeight,,,,,,,,,,,,,,,,,,,,,,,,,,,,,,,,,,,,,,,,,,,,,,,,,,,,,,,,,,,,,,,,,,,,,,,,,,,,,,,,,,,,,,,,,,,,,,,,,,,,,,,,,,,,,,,,,,,,,,,,,,,,,,,,,,,,,,,,,
,,58e8e462a415a4000150c4da,2024-02-22_05h27.22.377,kallum_motion_pilot,2023.2.2,Win32,143.6781609,58e8e462a415a4000150c4da,65d6bb0e977760de756971f7,65d6bed0277b2fdc463d7ec1,0.024,0.024,1,110,272,127,1,eightseven,,,,,,,,,,,,,,,,,,,,,,,,,,,,,,,,,,,,,,,,,,,,,,,,,,,,,,,,,,,,,,,,,,,,,,,,,,,,,,,,,,,,,,,,,,,,,,,,,,,,,,,,,,,,,,,,,,,,,,,,,,,,,,,,,,,,,,,,,
,,58e8e462a415a4000150c4da,2024-02-22_05h27.22.377,kallum_motion_pilot,2023.2.2,Win32,143.6781609,58e8e462a415a4000150c4da,65d6bb0e977760de756971f7,65d6bed0277b2fdc463d7ec1,0.024,0.024,1,111,273,150,1,eightsix,,,,,,,,,,,,,,,,,,,,,,,,,,,,,,,,,,,,,,,,,,,,,,,,,,,,,,,,,,,,,,,,,,,,,,,,,,,,,,,,,,,,,,,,,,,,,,,,,,,,,,,,,,,,,,,,,,,,,,,,,,,,,,,,,,,,,,,,,
,,58e8e462a415a4000150c4da,2024-02-22_05h27.22.377,kallum_motion_pilot,2023.2.2,Win32,143.6781609,58e8e462a415a4000150c4da,65d6bb0e977760de756971f7,65d6bed0277b2fdc463d7ec1,0.024,0.024,1,112,274,122,1,sixfive,,,,,,,,,,,,,,,,,,,,,,,,,,,,,,,,,,,,,,,,,,,,,,,,,,,,,,,,,,,,,,,,,,,,,,,,,,,,,,,,,,,,,,,,,,,,,,,,,,,,,,,,,,,,,,,,,,,,,,,,,,,,,,,,,,,,,,,,,
,,58e8e462a415a4000150c4da,2024-02-22_05h27.22.377,kallum_motion_pilot,2023.2.2,Win32,143.6781609,58e8e462a415a4000150c4da,65d6bb0e977760de756971f7,65d6bed0277b2fdc463d7ec1,0.024,0.024,1,113,275,57,1,onethree,,,,,,,,,,,,,,,,,,,,,,,,,,,,,,,,,,,,,,,,,,,,,,,,,,,,,,,,,,,,,,,,,,,,,,,,,,,,,,,,,,,,,,,,,,,,,,,,,,,,,,,,,,,,,,,,,,,,,,,,,,,,,,,,,,,,,,,,,
,,58e8e462a415a4000150c4da,2024-02-22_05h27.22.377,kallum_motion_pilot,2023.2.2,Win32,143.6781609,58e8e462a415a4000150c4da,65d6bb0e977760de756971f7,65d6bed0277b2fdc463d7ec1,0.024,0.024,1,114,276,142,1,eightsix,,,,,,,,,,,,,,,,,,,,,,,,,,,,,,,,,,,,,,,,,,,,,,,,,,,,,,,,,,,,,,,,,,,,,,,,,,,,,,,,,,,,,,,,,,,,,,,,,,,,,,,,,,,,,,,,,,,,,,,,,,,,,,,,,,,,,,,,,
,,58e8e462a415a4000150c4da,2024-02-22_05h27.22.377,kallum_motion_pilot,2023.2.2,Win32,143.6781609,58e8e462a415a4000150c4da,65d6bb0e977760de756971f7,65d6bed0277b2fdc463d7ec1,0.024,0.024,1,115,277,5,1,threefour,,,,,,,,,,,,,,,,,,,,,,,,,,,,,,,,,,,,,,,,,,,,,,,,,,,,,,,,,,,,,,,,,,,,,,,,,,,,,,,,,,,,,,,,,,,,,,,,,,,,,,,,,,,,,,,,,,,,,,,,,,,,,,,,,,,,,,,,,
,,58e8e462a415a4000150c4da,2024-02-22_05h27.22.377,kallum_motion_pilot,2023.2.2,Win32,143.6781609,58e8e462a415a4000150c4da,65d6bb0e977760de756971f7,65d6bed0277b2fdc463d7ec1,0.024,0.024,1,116,278,39,1,fourthree,,,,,,,,,,,,,,,,,,,,,,,,,,,,,,,,,,,,,,,,,,,,,,,,,,,,,,,,,,,,,,,,,,,,,,,,,,,,,,,,,,,,,,,,,,,,,,,,,,,,,,,,,,,,,,,,,,,,,,,,,,,,,,,,,,,,,,,,,
,,58e8e462a415a4000150c4da,2024-02-22_05h27.22.377,kallum_motion_pilot,2023.2.2,Win32,143.6781609,58e8e462a415a4000150c4da,65d6bb0e977760de756971f7,65d6bed0277b2fdc463d7ec1,0.024,0.024,1,117,279,95,1,eightseven,,,,,,,,,,,,,,,,,,,,,,,,,,,,,,,,,,,,,,,,,,,,,,,,,,,,,,,,,,,,,,,,,,,,,,,,,,,,,,,,,,,,,,,,,,,,,,,,,,,,,,,,,,,,,,,,,,,,,,,,,,,,,,,,,,,,,,,,,
