startup.started,startup.stopped,Prolific ID*,date,expName,psychopyVersion,OS,frameRate,participant,study_id,session,stimpositions.started,stimpositions.stopped,hardcoded_stimulus_positions.thisRepN,hardcoded_stimulus_positions.thisTrialN,hardcoded_stimulus_positions.thisN,hardcoded_stimulus_positions.thisIndex,hardcoded_stimulus_positions.ran,StimulusPos,stimorientation.started,stimorientation.stopped,prac_stimorientation_import_loop.thisRepN,prac_stimorientation_import_loop.thisTrialN,prac_stimorientation_import_loop.thisN,prac_stimorientation_import_loop.thisIndex,prac_stimorientation_import_loop.ran,Stimorientation,welcome_instr.started,welcome_instr.stopped,key_resp.keys,key_resp.rt,key_resp.duration,response_steppedout_1.started,response_steppedout_1.stopped,key_resp_20.keys,key_resp_20.rt,key_resp_20.duration,response_steppedout_2.started,response_steppedout_2.stopped,key_resp_19.keys,key_resp_19.rt,key_resp_19.duration,stim_response_instr.started,stim_response_instr.stopped,key_resp_15.keys,key_resp_15.rt,key_resp_15.duration,direction_instr_2.started,direction_instr_2.stopped,key_resp_9.keys,key_resp_9.rt,key_resp_9.duration,instr_prac.started,instr_prac.stopped,key_resp_10.keys,key_resp_10.rt,key_resp_10.duration,Stim1_display_prac.started,Stim1_display_prac.stopped,Ecc,Circle1_ori,Circle2_ori,response_prac.started,similarity,response_time,response_prac.stopped,mouse_5.x,mouse_5.y,mouse_5.leftButton,mouse_5.midButton,mouse_5.rightButton,mouse_5.clicked_name,responseprac_feedback.started,responseprac_feedback.stopped,summary2_prac.started,summary2_prac.stopped,mouse_6.x,mouse_6.y,mouse_6.leftButton,mouse_6.midButton,mouse_6.rightButton,mouse_6.clicked_name,duringprac.thisRepN,duringprac.thisTrialN,duringprac.thisN,duringprac.thisIndex,duringprac.ran,begin.started,begin.stopped,key_resp_22.keys,key_resp_22.rt,key_resp_22.duration,Stim1_display.started,Stim1_display.stopped,circle1_ori,circle2_ori,circle1_SF,circle2_SF,response.started,response.stopped,mouse.x,mouse.y,mouse.leftButton,mouse.midButton,mouse.rightButton,mouse.clicked_name,trialnumber,double_pass.thisRepN,double_pass.thisTrialN,double_pass.thisN,double_pass.thisIndex,double_pass.ran,double_pass.order,main_trial.thisRepN,main_trial.thisTrialN,main_trial.thisN,main_trial.thisIndex,main_trial.ran,main_trial.order,Trial_Counter,Catch,Frequencies,response_2.started,response_2.stopped,mouse_2.x,mouse_2.y,mouse_2.leftButton,mouse_2.midButton,mouse_2.rightButton,mouse_2.clicked_name,special_trial.started,special_trial.stopped,catch_1.started,catch_1.stopped,mouse_3.x,mouse_3.y,mouse_3.leftButton,mouse_3.midButton,mouse_3.rightButton,catchresponse,catchnumber,response_time_catch,response_sum.started,response_sum.stopped,mouse_11.x,mouse_11.y,mouse_11.leftButton,mouse_11.midButton,mouse_11.rightButton,flip_presentation_sequence_for_double_pass.started,flip_presentation_sequence_for_double_pass.stopped,goodbye.started,goodbye.stopped,key_resp_3.keys,key_resp_3.rt,key_resp_3.duration
0.0006,0.0009,58fdcd2be219d00001ee5aa0,2024-02-18_21h13.03.099,kallum_motion_pilot,2023.2.2,Win32,60.09615385,58fdcd2be219d00001ee5aa0,65d2b6c8f2eece985d8e374c,65d2b97ac365b86d27d1c715,,,,,,,,,,,,,,,,,,,,,,,,,,,,,,,,,,,,,,,,,,,,,,,,,,,,,,,,,,,,,,,,,,,,,,,,,,,,,,,,,,,,,,,,,,,,,,,,,,,,,,,,,,,,,,,,,,,,,,,,,,,,,,,,,,,,,,,,,,,,,,,,,
,,58fdcd2be219d00001ee5aa0,2024-02-18_21h13.03.099,kallum_motion_pilot,2023.2.2,Win32,60.09615385,58fdcd2be219d00001ee5aa0,65d2b6c8f2eece985d8e374c,65d2b97ac365b86d27d1c715,0.0498,0.0501,0,0,0,78,1,fourtwo,,,,,,,,,,,,,,,,,,,,,,,,,,,,,,,,,,,,,,,,,,,,,,,,,,,,,,,,,,,,,,,,,,,,,,,,,,,,,,,,,,,,,,,,,,,,,,,,,,,,,,,,,,,,,,,,,,,,,,,,,,,,,,,,,,,,,,,,,
,,58fdcd2be219d00001ee5aa0,2024-02-18_21h13.03.099,kallum_motion_pilot,2023.2.2,Win32,60.09615385,58fdcd2be219d00001ee5aa0,65d2b6c8f2eece985d8e374c,65d2b97ac365b86d27d1c715,0.0506,0.0507,0,1,1,88,1,fivesix,,,,,,,,,,,,,,,,,,,,,,,,,,,,,,,,,,,,,,,,,,,,,,,,,,,,,,,,,,,,,,,,,,,,,,,,,,,,,,,,,,,,,,,,,,,,,,,,,,,,,,,,,,,,,,,,,,,,,,,,,,,,,,,,,,,,,,,,,
,,58fdcd2be219d00001ee5aa0,2024-02-18_21h13.03.099,kallum_motion_pilot,2023.2.2,Win32,60.09615385,58fdcd2be219d00001ee5aa0,65d2b6c8f2eece985d8e374c,65d2b97ac365b86d27d1c715,0.0511,0.0512,0,2,2,11,1,twofour,,,,,,,,,,,,,,,,,,,,,,,,,,,,,,,,,,,,,,,,,,,,,,,,,,,,,,,,,,,,,,,,,,,,,,,,,,,,,,,,,,,,,,,,,,,,,,,,,,,,,,,,,,,,,,,,,,,,,,,,,,,,,,,,,,,,,,,,,
,,58fdcd2be219d00001ee5aa0,2024-02-18_21h13.03.099,kallum_motion_pilot,2023.2.2,Win32,60.09615385,58fdcd2be219d00001ee5aa0,65d2b6c8f2eece985d8e374c,65d2b97ac365b86d27d1c715,0.0515,0.0515,0,3,3,87,1,eightseven,,,,,,,,,,,,,,,,,,,,,,,,,,,,,,,,,,,,,,,,,,,,,,,,,,,,,,,,,,,,,,,,,,,,,,,,,,,,,,,,,,,,,,,,,,,,,,,,,,,,,,,,,,,,,,,,,,,,,,,,,,,,,,,,,,,,,,,,,
,,58fdcd2be219d00001ee5aa0,2024-02-18_21h13.03.099,kallum_motion_pilot,2023.2.2,Win32,60.09615385,58fdcd2be219d00001ee5aa0,65d2b6c8f2eece985d8e374c,65d2b97ac365b86d27d1c715,0.0519,0.0519,0,4,4,26,1,twoone,,,,,,,,,,,,,,,,,,,,,,,,,,,,,,,,,,,,,,,,,,,,,,,,,,,,,,,,,,,,,,,,,,,,,,,,,,,,,,,,,,,,,,,,,,,,,,,,,,,,,,,,,,,,,,,,,,,,,,,,,,,,,,,,,,,,,,,,,
,,58fdcd2be219d00001ee5aa0,2024-02-18_21h13.03.099,kallum_motion_pilot,2023.2.2,Win32,60.09615385,58fdcd2be219d00001ee5aa0,65d2b6c8f2eece985d8e374c,65d2b97ac365b86d27d1c715,0.0521,0.0522,0,5,5,84,1,sevenfive,,,,,,,,,,,,,,,,,,,,,,,,,,,,,,,,,,,,,,,,,,,,,,,,,,,,,,,,,,,,,,,,,,,,,,,,,,,,,,,,,,,,,,,,,,,,,,,,,,,,,,,,,,,,,,,,,,,,,,,,,,,,,,,,,,,,,,,,,
,,58fdcd2be219d00001ee5aa0,2024-02-18_21h13.03.099,kallum_motion_pilot,2023.2.2,Win32,60.09615385,58fdcd2be219d00001ee5aa0,65d2b6c8f2eece985d8e374c,65d2b97ac365b86d27d1c715,0.0524,0.0526,0,6,6,130,1,sixfive,,,,,,,,,,,,,,,,,,,,,,,,,,,,,,,,,,,,,,,,,,,,,,,,,,,,,,,,,,,,,,,,,,,,,,,,,,,,,,,,,,,,,,,,,,,,,,,,,,,,,,,,,,,,,,,,,,,,,,,,,,,,,,,,,,,,,,,,,
,,58fdcd2be219d00001ee5aa0,2024-02-18_21h13.03.099,kallum_motion_pilot,2023.2.2,Win32,60.09615385,58fdcd2be219d00001ee5aa0,65d2b6c8f2eece985d8e374c,65d2b97ac365b86d27d1c715,0.0527,0.0528,0,7,7,147,1,sixeight,,,,,,,,,,,,,,,,,,,,,,,,,,,,,,,,,,,,,,,,,,,,,,,,,,,,,,,,,,,,,,,,,,,,,,,,,,,,,,,,,,,,,,,,,,,,,,,,,,,,,,,,,,,,,,,,,,,,,,,,,,,,,,,,,,,,,,,,,
,,58fdcd2be219d00001ee5aa0,2024-02-18_21h13.03.099,kallum_motion_pilot,2023.2.2,Win32,60.09615385,58fdcd2be219d00001ee5aa0,65d2b6c8f2eece985d8e374c,65d2b97ac365b86d27d1c715,0.053,0.0531,0,8,8,92,1,sevenfive,,,,,,,,,,,,,,,,,,,,,,,,,,,,,,,,,,,,,,,,,,,,,,,,,,,,,,,,,,,,,,,,,,,,,,,,,,,,,,,,,,,,,,,,,,,,,,,,,,,,,,,,,,,,,,,,,,,,,,,,,,,,,,,,,,,,,,,,,
,,58fdcd2be219d00001ee5aa0,2024-02-18_21h13.03.099,kallum_motion_pilot,2023.2.2,Win32,60.09615385,58fdcd2be219d00001ee5aa0,65d2b6c8f2eece985d8e374c,65d2b97ac365b86d27d1c715,0.0533,0.0534,0,9,9,138,1,sixfive,,,,,,,,,,,,,,,,,,,,,,,,,,,,,,,,,,,,,,,,,,,,,,,,,,,,,,,,,,,,,,,,,,,,,,,,,,,,,,,,,,,,,,,,,,,,,,,,,,,,,,,,,,,,,,,,,,,,,,,,,,,,,,,,,,,,,,,,,
,,58fdcd2be219d00001ee5aa0,2024-02-18_21h13.03.099,kallum_motion_pilot,2023.2.2,Win32,60.09615385,58fdcd2be219d00001ee5aa0,65d2b6c8f2eece985d8e374c,65d2b97ac365b86d27d1c715,0.0537,0.0538,0,10,10,95,1,eightseven,,,,,,,,,,,,,,,,,,,,,,,,,,,,,,,,,,,,,,,,,,,,,,,,,,,,,,,,,,,,,,,,,,,,,,,,,,,,,,,,,,,,,,,,,,,,,,,,,,,,,,,,,,,,,,,,,,,,,,,,,,,,,,,,,,,,,,,,,
,,58fdcd2be219d00001ee5aa0,2024-02-18_21h13.03.099,kallum_motion_pilot,2023.2.2,Win32,60.09615385,58fdcd2be219d00001ee5aa0,65d2b6c8f2eece985d8e374c,65d2b97ac365b86d27d1c715,0.054,0.054,0,11,11,47,1,fourthree,,,,,,,,,,,,,,,,,,,,,,,,,,,,,,,,,,,,,,,,,,,,,,,,,,,,,,,,,,,,,,,,,,,,,,,,,,,,,,,,,,,,,,,,,,,,,,,,,,,,,,,,,,,,,,,,,,,,,,,,,,,,,,,,,,,,,,,,,
,,58fdcd2be219d00001ee5aa0,2024-02-18_21h13.03.099,kallum_motion_pilot,2023.2.2,Win32,60.09615385,58fdcd2be219d00001ee5aa0,65d2b6c8f2eece985d8e374c,65d2b97ac365b86d27d1c715,0.0542,0.0543,0,12,12,35,1,twofour,,,,,,,,,,,,,,,,,,,,,,,,,,,,,,,,,,,,,,,,,,,,,,,,,,,,,,,,,,,,,,,,,,,,,,,,,,,,,,,,,,,,,,,,,,,,,,,,,,,,,,,,,,,,,,,,,,,,,,,,,,,,,,,,,,,,,,,,,
,,58fdcd2be219d00001ee5aa0,2024-02-18_21h13.03.099,kallum_motion_pilot,2023.2.2,Win32,60.09615385,58fdcd2be219d00001ee5aa0,65d2b6c8f2eece985d8e374c,65d2b97ac365b86d27d1c715,0.0545,0.0545,0,13,13,53,1,threefour,,,,,,,,,,,,,,,,,,,,,,,,,,,,,,,,,,,,,,,,,,,,,,,,,,,,,,,,,,,,,,,,,,,,,,,,,,,,,,,,,,,,,,,,,,,,,,,,,,,,,,,,,,,,,,,,,,,,,,,,,,,,,,,,,,,,,,,,,
,,58fdcd2be219d00001ee5aa0,2024-02-18_21h13.03.099,kallum_motion_pilot,2023.2.2,Win32,60.09615385,58fdcd2be219d00001ee5aa0,65d2b6c8f2eece985d8e374c,65d2b97ac365b86d27d1c715,0.0548,0.0548,0,14,14,60,1,threeone,,,,,,,,,,,,,,,,,,,,,,,,,,,,,,,,,,,,,,,,,,,,,,,,,,,,,,,,,,,,,,,,,,,,,,,,,,,,,,,,,,,,,,,,,,,,,,,,,,,,,,,,,,,,,,,,,,,,,,,,,,,,,,,,,,,,,,,,,
,,58fdcd2be219d00001ee5aa0,2024-02-18_21h13.03.099,kallum_motion_pilot,2023.2.2,Win32,60.09615385,58fdcd2be219d00001ee5aa0,65d2b6c8f2eece985d8e374c,65d2b97ac365b86d27d1c715,0.055,0.0551,0,15,15,122,1,sixfive,,,,,,,,,,,,,,,,,,,,,,,,,,,,,,,,,,,,,,,,,,,,,,,,,,,,,,,,,,,,,,,,,,,,,,,,,,,,,,,,,,,,,,,,,,,,,,,,,,,,,,,,,,,,,,,,,,,,,,,,,,,,,,,,,,,,,,,,,
,,58fdcd2be219d00001ee5aa0,2024-02-18_21h13.03.099,kallum_motion_pilot,2023.2.2,Win32,60.09615385,58fdcd2be219d00001ee5aa0,65d2b6c8f2eece985d8e374c,65d2b97ac365b86d27d1c715,0.0553,0.0553,0,16,16,67,1,twofour,,,,,,,,,,,,,,,,,,,,,,,,,,,,,,,,,,,,,,,,,,,,,,,,,,,,,,,,,,,,,,,,,,,,,,,,,,,,,,,,,,,,,,,,,,,,,,,,,,,,,,,,,,,,,,,,,,,,,,,,,,,,,,,,,,,,,,,,,
,,58fdcd2be219d00001ee5aa0,2024-02-18_21h13.03.099,kallum_motion_pilot,2023.2.2,Win32,60.09615385,58fdcd2be219d00001ee5aa0,65d2b6c8f2eece985d8e374c,65d2b97ac365b86d27d1c715,0.0556,0.0556,0,17,17,107,1,sixeight,,,,,,,,,,,,,,,,,,,,,,,,,,,,,,,,,,,,,,,,,,,,,,,,,,,,,,,,,,,,,,,,,,,,,,,,,,,,,,,,,,,,,,,,,,,,,,,,,,,,,,,,,,,,,,,,,,,,,,,,,,,,,,,,,,,,,,,,,
,,58fdcd2be219d00001ee5aa0,2024-02-18_21h13.03.099,kallum_motion_pilot,2023.2.2,Win32,60.09615385,58fdcd2be219d00001ee5aa0,65d2b6c8f2eece985d8e374c,65d2b97ac365b86d27d1c715,0.0558,0.0558,0,18,18,133,1,seveneight,,,,,,,,,,,,,,,,,,,,,,,,,,,,,,,,,,,,,,,,,,,,,,,,,,,,,,,,,,,,,,,,,,,,,,,,,,,,,,,,,,,,,,,,,,,,,,,,,,,,,,,,,,,,,,,,,,,,,,,,,,,,,,,,,,,,,,,,,
,,58fdcd2be219d00001ee5aa0,2024-02-18_21h13.03.099,kallum_motion_pilot,2023.2.2,Win32,60.09615385,58fdcd2be219d00001ee5aa0,65d2b6c8f2eece985d8e374c,65d2b97ac365b86d27d1c715,0.056,0.0561,0,19,19,89,1,fiveseven,,,,,,,,,,,,,,,,,,,,,,,,,,,,,,,,,,,,,,,,,,,,,,,,,,,,,,,,,,,,,,,,,,,,,,,,,,,,,,,,,,,,,,,,,,,,,,,,,,,,,,,,,,,,,,,,,,,,,,,,,,,,,,,,,,,,,,,,,
,,58fdcd2be219d00001ee5aa0,2024-02-18_21h13.03.099,kallum_motion_pilot,2023.2.2,Win32,60.09615385,58fdcd2be219d00001ee5aa0,65d2b6c8f2eece985d8e374c,65d2b97ac365b86d27d1c715,0.0562,0.0563,0,20,20,83,1,sixeight,,,,,,,,,,,,,,,,,,,,,,,,,,,,,,,,,,,,,,,,,,,,,,,,,,,,,,,,,,,,,,,,,,,,,,,,,,,,,,,,,,,,,,,,,,,,,,,,,,,,,,,,,,,,,,,,,,,,,,,,,,,,,,,,,,,,,,,,,
,,58fdcd2be219d00001ee5aa0,2024-02-18_21h13.03.099,kallum_motion_pilot,2023.2.2,Win32,60.09615385,58fdcd2be219d00001ee5aa0,65d2b6c8f2eece985d8e374c,65d2b97ac365b86d27d1c715,0.0565,0.0566,0,21,21,142,1,eightsix,,,,,,,,,,,,,,,,,,,,,,,,,,,,,,,,,,,,,,,,,,,,,,,,,,,,,,,,,,,,,,,,,,,,,,,,,,,,,,,,,,,,,,,,,,,,,,,,,,,,,,,,,,,,,,,,,,,,,,,,,,,,,,,,,,,,,,,,,
,,58fdcd2be219d00001ee5aa0,2024-02-18_21h13.03.099,kallum_motion_pilot,2023.2.2,Win32,60.09615385,58fdcd2be219d00001ee5aa0,65d2b6c8f2eece985d8e374c,65d2b97ac365b86d27d1c715,0.0567,0.0568,0,22,22,77,1,threefour,,,,,,,,,,,,,,,,,,,,,,,,,,,,,,,,,,,,,,,,,,,,,,,,,,,,,,,,,,,,,,,,,,,,,,,,,,,,,,,,,,,,,,,,,,,,,,,,,,,,,,,,,,,,,,,,,,,,,,,,,,,,,,,,,,,,,,,,,
,,58fdcd2be219d00001ee5aa0,2024-02-18_21h13.03.099,kallum_motion_pilot,2023.2.2,Win32,60.09615385,58fdcd2be219d00001ee5aa0,65d2b6c8f2eece985d8e374c,65d2b97ac365b86d27d1c715,0.057,0.057,0,23,23,141,1,seveneight,,,,,,,,,,,,,,,,,,,,,,,,,,,,,,,,,,,,,,,,,,,,,,,,,,,,,,,,,,,,,,,,,,,,,,,,,,,,,,,,,,,,,,,,,,,,,,,,,,,,,,,,,,,,,,,,,,,,,,,,,,,,,,,,,,,,,,,,,
,,58fdcd2be219d00001ee5aa0,2024-02-18_21h13.03.099,kallum_motion_pilot,2023.2.2,Win32,60.09615385,58fdcd2be219d00001ee5aa0,65d2b6c8f2eece985d8e374c,65d2b97ac365b86d27d1c715,0.0572,0.0573,0,24,24,74,1,twoone,,,,,,,,,,,,,,,,,,,,,,,,,,,,,,,,,,,,,,,,,,,,,,,,,,,,,,,,,,,,,,,,,,,,,,,,,,,,,,,,,,,,,,,,,,,,,,,,,,,,,,,,,,,,,,,,,,,,,,,,,,,,,,,,,,,,,,,,,
,,58fdcd2be219d00001ee5aa0,2024-02-18_21h13.03.099,kallum_motion_pilot,2023.2.2,Win32,60.09615385,58fdcd2be219d00001ee5aa0,65d2b6c8f2eece985d8e374c,65d2b97ac365b86d27d1c715,0.0574,0.0575,0,25,25,52,1,threeone,,,,,,,,,,,,,,,,,,,,,,,,,,,,,,,,,,,,,,,,,,,,,,,,,,,,,,,,,,,,,,,,,,,,,,,,,,,,,,,,,,,,,,,,,,,,,,,,,,,,,,,,,,,,,,,,,,,,,,,,,,,,,,,,,,,,,,,,,
,,58fdcd2be219d00001ee5aa0,2024-02-18_21h13.03.099,kallum_motion_pilot,2023.2.2,Win32,60.09615385,58fdcd2be219d00001ee5aa0,65d2b6c8f2eece985d8e374c,65d2b97ac365b86d27d1c715,0.0577,0.0577,0,26,26,50,1,twoone,,,,,,,,,,,,,,,,,,,,,,,,,,,,,,,,,,,,,,,,,,,,,,,,,,,,,,,,,,,,,,,,,,,,,,,,,,,,,,,,,,,,,,,,,,,,,,,,,,,,,,,,,,,,,,,,,,,,,,,,,,,,,,,,,,,,,,,,,
,,58fdcd2be219d00001ee5aa0,2024-02-18_21h13.03.099,kallum_motion_pilot,2023.2.2,Win32,60.09615385,58fdcd2be219d00001ee5aa0,65d2b6c8f2eece985d8e374c,65d2b97ac365b86d27d1c715,0.058,0.058,0,27,27,102,1,eightsix,,,,,,,,,,,,,,,,,,,,,,,,,,,,,,,,,,,,,,,,,,,,,,,,,,,,,,,,,,,,,,,,,,,,,,,,,,,,,,,,,,,,,,,,,,,,,,,,,,,,,,,,,,,,,,,,,,,,,,,,,,,,,,,,,,,,,,,,,
,,58fdcd2be219d00001ee5aa0,2024-02-18_21h13.03.099,kallum_motion_pilot,2023.2.2,Win32,60.09615385,58fdcd2be219d00001ee5aa0,65d2b6c8f2eece985d8e374c,65d2b97ac365b86d27d1c715,0.0582,0.0582,0,28,28,46,1,fourtwo,,,,,,,,,,,,,,,,,,,,,,,,,,,,,,,,,,,,,,,,,,,,,,,,,,,,,,,,,,,,,,,,,,,,,,,,,,,,,,,,,,,,,,,,,,,,,,,,,,,,,,,,,,,,,,,,,,,,,,,,,,,,,,,,,,,,,,,,,
,,58fdcd2be219d00001ee5aa0,2024-02-18_21h13.03.099,kallum_motion_pilot,2023.2.2,Win32,60.09615385,58fdcd2be219d00001ee5aa0,65d2b6c8f2eece985d8e374c,65d2b97ac365b86d27d1c715,0.0584,0.0584,0,29,29,32,1,onetwo,,,,,,,,,,,,,,,,,,,,,,,,,,,,,,,,,,,,,,,,,,,,,,,,,,,,,,,,,,,,,,,,,,,,,,,,,,,,,,,,,,,,,,,,,,,,,,,,,,,,,,,,,,,,,,,,,,,,,,,,,,,,,,,,,,,,,,,,,
,,58fdcd2be219d00001ee5aa0,2024-02-18_21h13.03.099,kallum_motion_pilot,2023.2.2,Win32,60.09615385,58fdcd2be219d00001ee5aa0,65d2b6c8f2eece985d8e374c,65d2b97ac365b86d27d1c715,0.0586,0.0587,0,30,30,96,1,fivesix,,,,,,,,,,,,,,,,,,,,,,,,,,,,,,,,,,,,,,,,,,,,,,,,,,,,,,,,,,,,,,,,,,,,,,,,,,,,,,,,,,,,,,,,,,,,,,,,,,,,,,,,,,,,,,,,,,,,,,,,,,,,,,,,,,,,,,,,,
,,58fdcd2be219d00001ee5aa0,2024-02-18_21h13.03.099,kallum_motion_pilot,2023.2.2,Win32,60.09615385,58fdcd2be219d00001ee5aa0,65d2b6c8f2eece985d8e374c,65d2b97ac365b86d27d1c715,0.0589,0.0589,0,31,31,94,1,eightsix,,,,,,,,,,,,,,,,,,,,,,,,,,,,,,,,,,,,,,,,,,,,,,,,,,,,,,,,,,,,,,,,,,,,,,,,,,,,,,,,,,,,,,,,,,,,,,,,,,,,,,,,,,,,,,,,,,,,,,,,,,,,,,,,,,,,,,,,,
,,58fdcd2be219d00001ee5aa0,2024-02-18_21h13.03.099,kallum_motion_pilot,2023.2.2,Win32,60.09615385,58fdcd2be219d00001ee5aa0,65d2b6c8f2eece985d8e374c,65d2b97ac365b86d27d1c715,0.0591,0.0592,0,32,32,137,1,fiveseven,,,,,,,,,,,,,,,,,,,,,,,,,,,,,,,,,,,,,,,,,,,,,,,,,,,,,,,,,,,,,,,,,,,,,,,,,,,,,,,,,,,,,,,,,,,,,,,,,,,,,,,,,,,,,,,,,,,,,,,,,,,,,,,,,,,,,,,,,
,,58fdcd2be219d00001ee5aa0,2024-02-18_21h13.03.099,kallum_motion_pilot,2023.2.2,Win32,60.09615385,58fdcd2be219d00001ee5aa0,65d2b6c8f2eece985d8e374c,65d2b97ac365b86d27d1c715,0.0593,0.0594,0,33,33,24,1,onetwo,,,,,,,,,,,,,,,,,,,,,,,,,,,,,,,,,,,,,,,,,,,,,,,,,,,,,,,,,,,,,,,,,,,,,,,,,,,,,,,,,,,,,,,,,,,,,,,,,,,,,,,,,,,,,,,,,,,,,,,,,,,,,,,,,,,,,,,,,
,,58fdcd2be219d00001ee5aa0,2024-02-18_21h13.03.099,kallum_motion_pilot,2023.2.2,Win32,60.09615385,58fdcd2be219d00001ee5aa0,65d2b6c8f2eece985d8e374c,65d2b97ac365b86d27d1c715,0.0596,0.0596,0,34,34,58,1,twoone,,,,,,,,,,,,,,,,,,,,,,,,,,,,,,,,,,,,,,,,,,,,,,,,,,,,,,,,,,,,,,,,,,,,,,,,,,,,,,,,,,,,,,,,,,,,,,,,,,,,,,,,,,,,,,,,,,,,,,,,,,,,,,,,,,,,,,,,,
,,58fdcd2be219d00001ee5aa0,2024-02-18_21h13.03.099,kallum_motion_pilot,2023.2.2,Win32,60.09615385,58fdcd2be219d00001ee5aa0,65d2b6c8f2eece985d8e374c,65d2b97ac365b86d27d1c715,0.0598,0.0598,0,35,35,68,1,threeone,,,,,,,,,,,,,,,,,,,,,,,,,,,,,,,,,,,,,,,,,,,,,,,,,,,,,,,,,,,,,,,,,,,,,,,,,,,,,,,,,,,,,,,,,,,,,,,,,,,,,,,,,,,,,,,,,,,,,,,,,,,,,,,,,,,,,,,,,
,,58fdcd2be219d00001ee5aa0,2024-02-18_21h13.03.099,kallum_motion_pilot,2023.2.2,Win32,60.09615385,58fdcd2be219d00001ee5aa0,65d2b6c8f2eece985d8e374c,65d2b97ac365b86d27d1c715,0.0601,0.0602,0,36,36,57,1,onethree,,,,,,,,,,,,,,,,,,,,,,,,,,,,,,,,,,,,,,,,,,,,,,,,,,,,,,,,,,,,,,,,,,,,,,,,,,,,,,,,,,,,,,,,,,,,,,,,,,,,,,,,,,,,,,,,,,,,,,,,,,,,,,,,,,,,,,,,,
,,58fdcd2be219d00001ee5aa0,2024-02-18_21h13.03.099,kallum_motion_pilot,2023.2.2,Win32,60.09615385,58fdcd2be219d00001ee5aa0,65d2b6c8f2eece985d8e374c,65d2b97ac365b86d27d1c715,0.0603,0.0604,0,37,37,73,1,onethree,,,,,,,,,,,,,,,,,,,,,,,,,,,,,,,,,,,,,,,,,,,,,,,,,,,,,,,,,,,,,,,,,,,,,,,,,,,,,,,,,,,,,,,,,,,,,,,,,,,,,,,,,,,,,,,,,,,,,,,,,,,,,,,,,,,,,,,,,
,,58fdcd2be219d00001ee5aa0,2024-02-18_21h13.03.099,kallum_motion_pilot,2023.2.2,Win32,60.09615385,58fdcd2be219d00001ee5aa0,65d2b6c8f2eece985d8e374c,65d2b97ac365b86d27d1c715,0.0605,0.0605,0,38,38,121,1,fiveseven,,,,,,,,,,,,,,,,,,,,,,,,,,,,,,,,,,,,,,,,,,,,,,,,,,,,,,,,,,,,,,,,,,,,,,,,,,,,,,,,,,,,,,,,,,,,,,,,,,,,,,,,,,,,,,,,,,,,,,,,,,,,,,,,,,,,,,,,,
,,58fdcd2be219d00001ee5aa0,2024-02-18_21h13.03.099,kallum_motion_pilot,2023.2.2,Win32,60.09615385,58fdcd2be219d00001ee5aa0,65d2b6c8f2eece985d8e374c,65d2b97ac365b86d27d1c715,0.0607,0.0608,0,39,39,99,1,sixeight,,,,,,,,,,,,,,,,,,,,,,,,,,,,,,,,,,,,,,,,,,,,,,,,,,,,,,,,,,,,,,,,,,,,,,,,,,,,,,,,,,,,,,,,,,,,,,,,,,,,,,,,,,,,,,,,,,,,,,,,,,,,,,,,,,,,,,,,,
,,58fdcd2be219d00001ee5aa0,2024-02-18_21h13.03.099,kallum_motion_pilot,2023.2.2,Win32,60.09615385,58fdcd2be219d00001ee5aa0,65d2b6c8f2eece985d8e374c,65d2b97ac365b86d27d1c715,0.0611,0.0611,0,40,40,136,1,fivesix,,,,,,,,,,,,,,,,,,,,,,,,,,,,,,,,,,,,,,,,,,,,,,,,,,,,,,,,,,,,,,,,,,,,,,,,,,,,,,,,,,,,,,,,,,,,,,,,,,,,,,,,,,,,,,,,,,,,,,,,,,,,,,,,,,,,,,,,,
,,58fdcd2be219d00001ee5aa0,2024-02-18_21h13.03.099,kallum_motion_pilot,2023.2.2,Win32,60.09615385,58fdcd2be219d00001ee5aa0,65d2b6c8f2eece985d8e374c,65d2b97ac365b86d27d1c715,0.0612,0.0613,0,41,41,148,1,sevenfive,,,,,,,,,,,,,,,,,,,,,,,,,,,,,,,,,,,,,,,,,,,,,,,,,,,,,,,,,,,,,,,,,,,,,,,,,,,,,,,,,,,,,,,,,,,,,,,,,,,,,,,,,,,,,,,,,,,,,,,,,,,,,,,,,,,,,,,,,
,,58fdcd2be219d00001ee5aa0,2024-02-18_21h13.03.099,kallum_motion_pilot,2023.2.2,Win32,60.09615385,58fdcd2be219d00001ee5aa0,65d2b6c8f2eece985d8e374c,65d2b97ac365b86d27d1c715,0.0615,0.0616,0,42,42,150,1,eightsix,,,,,,,,,,,,,,,,,,,,,,,,,,,,,,,,,,,,,,,,,,,,,,,,,,,,,,,,,,,,,,,,,,,,,,,,,,,,,,,,,,,,,,,,,,,,,,,,,,,,,,,,,,,,,,,,,,,,,,,,,,,,,,,,,,,,,,,,,
,,58fdcd2be219d00001ee5aa0,2024-02-18_21h13.03.099,kallum_motion_pilot,2023.2.2,Win32,60.09615385,58fdcd2be219d00001ee5aa0,65d2b6c8f2eece985d8e374c,65d2b97ac365b86d27d1c715,0.0617,0.0618,0,43,43,61,1,threefour,,,,,,,,,,,,,,,,,,,,,,,,,,,,,,,,,,,,,,,,,,,,,,,,,,,,,,,,,,,,,,,,,,,,,,,,,,,,,,,,,,,,,,,,,,,,,,,,,,,,,,,,,,,,,,,,,,,,,,,,,,,,,,,,,,,,,,,,,
,,58fdcd2be219d00001ee5aa0,2024-02-18_21h13.03.099,kallum_motion_pilot,2023.2.2,Win32,60.09615385,58fdcd2be219d00001ee5aa0,65d2b6c8f2eece985d8e374c,65d2b97ac365b86d27d1c715,0.062,0.062,0,44,44,109,1,seveneight,,,,,,,,,,,,,,,,,,,,,,,,,,,,,,,,,,,,,,,,,,,,,,,,,,,,,,,,,,,,,,,,,,,,,,,,,,,,,,,,,,,,,,,,,,,,,,,,,,,,,,,,,,,,,,,,,,,,,,,,,,,,,,,,,,,,,,,,,
,,58fdcd2be219d00001ee5aa0,2024-02-18_21h13.03.099,kallum_motion_pilot,2023.2.2,Win32,60.09615385,58fdcd2be219d00001ee5aa0,65d2b6c8f2eece985d8e374c,65d2b97ac365b86d27d1c715,0.0623,0.0623,0,45,45,127,1,eightseven,,,,,,,,,,,,,,,,,,,,,,,,,,,,,,,,,,,,,,,,,,,,,,,,,,,,,,,,,,,,,,,,,,,,,,,,,,,,,,,,,,,,,,,,,,,,,,,,,,,,,,,,,,,,,,,,,,,,,,,,,,,,,,,,,,,,,,,,,
,,58fdcd2be219d00001ee5aa0,2024-02-18_21h13.03.099,kallum_motion_pilot,2023.2.2,Win32,60.09615385,58fdcd2be219d00001ee5aa0,65d2b6c8f2eece985d8e374c,65d2b97ac365b86d27d1c715,0.0624,0.0626,0,46,46,139,1,sixeight,,,,,,,,,,,,,,,,,,,,,,,,,,,,,,,,,,,,,,,,,,,,,,,,,,,,,,,,,,,,,,,,,,,,,,,,,,,,,,,,,,,,,,,,,,,,,,,,,,,,,,,,,,,,,,,,,,,,,,,,,,,,,,,,,,,,,,,,,
,,58fdcd2be219d00001ee5aa0,2024-02-18_21h13.03.099,kallum_motion_pilot,2023.2.2,Win32,60.09615385,58fdcd2be219d00001ee5aa0,65d2b6c8f2eece985d8e374c,65d2b97ac365b86d27d1c715,0.0627,0.0628,0,47,47,145,1,fiveseven,,,,,,,,,,,,,,,,,,,,,,,,,,,,,,,,,,,,,,,,,,,,,,,,,,,,,,,,,,,,,,,,,,,,,,,,,,,,,,,,,,,,,,,,,,,,,,,,,,,,,,,,,,,,,,,,,,,,,,,,,,,,,,,,,,,,,,,,,
,,58fdcd2be219d00001ee5aa0,2024-02-18_21h13.03.099,kallum_motion_pilot,2023.2.2,Win32,60.09615385,58fdcd2be219d00001ee5aa0,65d2b6c8f2eece985d8e374c,65d2b97ac365b86d27d1c715,0.063,0.063,0,48,48,34,1,twoone,,,,,,,,,,,,,,,,,,,,,,,,,,,,,,,,,,,,,,,,,,,,,,,,,,,,,,,,,,,,,,,,,,,,,,,,,,,,,,,,,,,,,,,,,,,,,,,,,,,,,,,,,,,,,,,,,,,,,,,,,,,,,,,,,,,,,,,,,
,,58fdcd2be219d00001ee5aa0,2024-02-18_21h13.03.099,kallum_motion_pilot,2023.2.2,Win32,60.09615385,58fdcd2be219d00001ee5aa0,65d2b6c8f2eece985d8e374c,65d2b97ac365b86d27d1c715,0.0633,0.0633,0,49,49,153,1,fiveseven,,,,,,,,,,,,,,,,,,,,,,,,,,,,,,,,,,,,,,,,,,,,,,,,,,,,,,,,,,,,,,,,,,,,,,,,,,,,,,,,,,,,,,,,,,,,,,,,,,,,,,,,,,,,,,,,,,,,,,,,,,,,,,,,,,,,,,,,,
,,58fdcd2be219d00001ee5aa0,2024-02-18_21h13.03.099,kallum_motion_pilot,2023.2.2,Win32,60.09615385,58fdcd2be219d00001ee5aa0,65d2b6c8f2eece985d8e374c,65d2b97ac365b86d27d1c715,0.0635,0.0636,0,50,50,42,1,twoone,,,,,,,,,,,,,,,,,,,,,,,,,,,,,,,,,,,,,,,,,,,,,,,,,,,,,,,,,,,,,,,,,,,,,,,,,,,,,,,,,,,,,,,,,,,,,,,,,,,,,,,,,,,,,,,,,,,,,,,,,,,,,,,,,,,,,,,,,
,,58fdcd2be219d00001ee5aa0,2024-02-18_21h13.03.099,kallum_motion_pilot,2023.2.2,Win32,60.09615385,58fdcd2be219d00001ee5aa0,65d2b6c8f2eece985d8e374c,65d2b97ac365b86d27d1c715,0.0637,0.0638,0,51,51,65,1,onethree,,,,,,,,,,,,,,,,,,,,,,,,,,,,,,,,,,,,,,,,,,,,,,,,,,,,,,,,,,,,,,,,,,,,,,,,,,,,,,,,,,,,,,,,,,,,,,,,,,,,,,,,,,,,,,,,,,,,,,,,,,,,,,,,,,,,,,,,,
,,58fdcd2be219d00001ee5aa0,2024-02-18_21h13.03.099,kallum_motion_pilot,2023.2.2,Win32,60.09615385,58fdcd2be219d00001ee5aa0,65d2b6c8f2eece985d8e374c,65d2b97ac365b86d27d1c715,0.064,0.064,0,52,52,105,1,fiveseven,,,,,,,,,,,,,,,,,,,,,,,,,,,,,,,,,,,,,,,,,,,,,,,,,,,,,,,,,,,,,,,,,,,,,,,,,,,,,,,,,,,,,,,,,,,,,,,,,,,,,,,,,,,,,,,,,,,,,,,,,,,,,,,,,,,,,,,,,
,,58fdcd2be219d00001ee5aa0,2024-02-18_21h13.03.099,kallum_motion_pilot,2023.2.2,Win32,60.09615385,58fdcd2be219d00001ee5aa0,65d2b6c8f2eece985d8e374c,65d2b97ac365b86d27d1c715,0.0642,0.0643,0,53,53,86,1,eightsix,,,,,,,,,,,,,,,,,,,,,,,,,,,,,,,,,,,,,,,,,,,,,,,,,,,,,,,,,,,,,,,,,,,,,,,,,,,,,,,,,,,,,,,,,,,,,,,,,,,,,,,,,,,,,,,,,,,,,,,,,,,,,,,,,,,,,,,,,
,,58fdcd2be219d00001ee5aa0,2024-02-18_21h13.03.099,kallum_motion_pilot,2023.2.2,Win32,60.09615385,58fdcd2be219d00001ee5aa0,65d2b6c8f2eece985d8e374c,65d2b97ac365b86d27d1c715,0.0645,0.0645,0,54,54,2,1,twoone,,,,,,,,,,,,,,,,,,,,,,,,,,,,,,,,,,,,,,,,,,,,,,,,,,,,,,,,,,,,,,,,,,,,,,,,,,,,,,,,,,,,,,,,,,,,,,,,,,,,,,,,,,,,,,,,,,,,,,,,,,,,,,,,,,,,,,,,,
,,58fdcd2be219d00001ee5aa0,2024-02-18_21h13.03.099,kallum_motion_pilot,2023.2.2,Win32,60.09615385,58fdcd2be219d00001ee5aa0,65d2b6c8f2eece985d8e374c,65d2b97ac365b86d27d1c715,0.0647,0.0647,0,55,55,14,1,fourtwo,,,,,,,,,,,,,,,,,,,,,,,,,,,,,,,,,,,,,,,,,,,,,,,,,,,,,,,,,,,,,,,,,,,,,,,,,,,,,,,,,,,,,,,,,,,,,,,,,,,,,,,,,,,,,,,,,,,,,,,,,,,,,,,,,,,,,,,,,
,,58fdcd2be219d00001ee5aa0,2024-02-18_21h13.03.099,kallum_motion_pilot,2023.2.2,Win32,60.09615385,58fdcd2be219d00001ee5aa0,65d2b6c8f2eece985d8e374c,65d2b97ac365b86d27d1c715,0.0649,0.065,0,56,56,129,1,fiveseven,,,,,,,,,,,,,,,,,,,,,,,,,,,,,,,,,,,,,,,,,,,,,,,,,,,,,,,,,,,,,,,,,,,,,,,,,,,,,,,,,,,,,,,,,,,,,,,,,,,,,,,,,,,,,,,,,,,,,,,,,,,,,,,,,,,,,,,,,
,,58fdcd2be219d00001ee5aa0,2024-02-18_21h13.03.099,kallum_motion_pilot,2023.2.2,Win32,60.09615385,58fdcd2be219d00001ee5aa0,65d2b6c8f2eece985d8e374c,65d2b97ac365b86d27d1c715,0.0652,0.0652,0,57,57,75,1,twofour,,,,,,,,,,,,,,,,,,,,,,,,,,,,,,,,,,,,,,,,,,,,,,,,,,,,,,,,,,,,,,,,,,,,,,,,,,,,,,,,,,,,,,,,,,,,,,,,,,,,,,,,,,,,,,,,,,,,,,,,,,,,,,,,,,,,,,,,,
,,58fdcd2be219d00001ee5aa0,2024-02-18_21h13.03.099,kallum_motion_pilot,2023.2.2,Win32,60.09615385,58fdcd2be219d00001ee5aa0,65d2b6c8f2eece985d8e374c,65d2b97ac365b86d27d1c715,0.0654,0.0655,0,58,58,38,1,fourtwo,,,,,,,,,,,,,,,,,,,,,,,,,,,,,,,,,,,,,,,,,,,,,,,,,,,,,,,,,,,,,,,,,,,,,,,,,,,,,,,,,,,,,,,,,,,,,,,,,,,,,,,,,,,,,,,,,,,,,,,,,,,,,,,,,,,,,,,,,
,,58fdcd2be219d00001ee5aa0,2024-02-18_21h13.03.099,kallum_motion_pilot,2023.2.2,Win32,60.09615385,58fdcd2be219d00001ee5aa0,65d2b6c8f2eece985d8e374c,65d2b97ac365b86d27d1c715,0.0657,0.0657,0,59,59,115,1,sixeight,,,,,,,,,,,,,,,,,,,,,,,,,,,,,,,,,,,,,,,,,,,,,,,,,,,,,,,,,,,,,,,,,,,,,,,,,,,,,,,,,,,,,,,,,,,,,,,,,,,,,,,,,,,,,,,,,,,,,,,,,,,,,,,,,,,,,,,,,
,,58fdcd2be219d00001ee5aa0,2024-02-18_21h13.03.099,kallum_motion_pilot,2023.2.2,Win32,60.09615385,58fdcd2be219d00001ee5aa0,65d2b6c8f2eece985d8e374c,65d2b97ac365b86d27d1c715,0.066,0.066,0,60,60,48,1,onetwo,,,,,,,,,,,,,,,,,,,,,,,,,,,,,,,,,,,,,,,,,,,,,,,,,,,,,,,,,,,,,,,,,,,,,,,,,,,,,,,,,,,,,,,,,,,,,,,,,,,,,,,,,,,,,,,,,,,,,,,,,,,,,,,,,,,,,,,,,
,,58fdcd2be219d00001ee5aa0,2024-02-18_21h13.03.099,kallum_motion_pilot,2023.2.2,Win32,60.09615385,58fdcd2be219d00001ee5aa0,65d2b6c8f2eece985d8e374c,65d2b97ac365b86d27d1c715,0.0661,0.0663,0,61,61,51,1,twofour,,,,,,,,,,,,,,,,,,,,,,,,,,,,,,,,,,,,,,,,,,,,,,,,,,,,,,,,,,,,,,,,,,,,,,,,,,,,,,,,,,,,,,,,,,,,,,,,,,,,,,,,,,,,,,,,,,,,,,,,,,,,,,,,,,,,,,,,,
,,58fdcd2be219d00001ee5aa0,2024-02-18_21h13.03.099,kallum_motion_pilot,2023.2.2,Win32,60.09615385,58fdcd2be219d00001ee5aa0,65d2b6c8f2eece985d8e374c,65d2b97ac365b86d27d1c715,0.0665,0.0666,0,62,62,40,1,onetwo,,,,,,,,,,,,,,,,,,,,,,,,,,,,,,,,,,,,,,,,,,,,,,,,,,,,,,,,,,,,,,,,,,,,,,,,,,,,,,,,,,,,,,,,,,,,,,,,,,,,,,,,,,,,,,,,,,,,,,,,,,,,,,,,,,,,,,,,,
,,58fdcd2be219d00001ee5aa0,2024-02-18_21h13.03.099,kallum_motion_pilot,2023.2.2,Win32,60.09615385,58fdcd2be219d00001ee5aa0,65d2b6c8f2eece985d8e374c,65d2b97ac365b86d27d1c715,0.0668,0.0669,0,63,63,120,1,fivesix,,,,,,,,,,,,,,,,,,,,,,,,,,,,,,,,,,,,,,,,,,,,,,,,,,,,,,,,,,,,,,,,,,,,,,,,,,,,,,,,,,,,,,,,,,,,,,,,,,,,,,,,,,,,,,,,,,,,,,,,,,,,,,,,,,,,,,,,,
,,58fdcd2be219d00001ee5aa0,2024-02-18_21h13.03.099,kallum_motion_pilot,2023.2.2,Win32,60.09615385,58fdcd2be219d00001ee5aa0,65d2b6c8f2eece985d8e374c,65d2b97ac365b86d27d1c715,0.0671,0.0671,0,64,64,103,1,eightseven,,,,,,,,,,,,,,,,,,,,,,,,,,,,,,,,,,,,,,,,,,,,,,,,,,,,,,,,,,,,,,,,,,,,,,,,,,,,,,,,,,,,,,,,,,,,,,,,,,,,,,,,,,,,,,,,,,,,,,,,,,,,,,,,,,,,,,,,,
,,58fdcd2be219d00001ee5aa0,2024-02-18_21h13.03.099,kallum_motion_pilot,2023.2.2,Win32,60.09615385,58fdcd2be219d00001ee5aa0,65d2b6c8f2eece985d8e374c,65d2b97ac365b86d27d1c715,0.0674,0.0674,0,65,65,56,1,onetwo,,,,,,,,,,,,,,,,,,,,,,,,,,,,,,,,,,,,,,,,,,,,,,,,,,,,,,,,,,,,,,,,,,,,,,,,,,,,,,,,,,,,,,,,,,,,,,,,,,,,,,,,,,,,,,,,,,,,,,,,,,,,,,,,,,,,,,,,,
,,58fdcd2be219d00001ee5aa0,2024-02-18_21h13.03.099,kallum_motion_pilot,2023.2.2,Win32,60.09615385,58fdcd2be219d00001ee5aa0,65d2b6c8f2eece985d8e374c,65d2b97ac365b86d27d1c715,0.0677,0.0677,0,66,66,9,1,onethree,,,,,,,,,,,,,,,,,,,,,,,,,,,,,,,,,,,,,,,,,,,,,,,,,,,,,,,,,,,,,,,,,,,,,,,,,,,,,,,,,,,,,,,,,,,,,,,,,,,,,,,,,,,,,,,,,,,,,,,,,,,,,,,,,,,,,,,,,
,,58fdcd2be219d00001ee5aa0,2024-02-18_21h13.03.099,kallum_motion_pilot,2023.2.2,Win32,60.09615385,58fdcd2be219d00001ee5aa0,65d2b6c8f2eece985d8e374c,65d2b97ac365b86d27d1c715,0.0678,0.068,0,67,67,119,1,eightseven,,,,,,,,,,,,,,,,,,,,,,,,,,,,,,,,,,,,,,,,,,,,,,,,,,,,,,,,,,,,,,,,,,,,,,,,,,,,,,,,,,,,,,,,,,,,,,,,,,,,,,,,,,,,,,,,,,,,,,,,,,,,,,,,,,,,,,,,,
,,58fdcd2be219d00001ee5aa0,2024-02-18_21h13.03.099,kallum_motion_pilot,2023.2.2,Win32,60.09615385,58fdcd2be219d00001ee5aa0,65d2b6c8f2eece985d8e374c,65d2b97ac365b86d27d1c715,0.0681,0.0682,0,68,68,21,1,threefour,,,,,,,,,,,,,,,,,,,,,,,,,,,,,,,,,,,,,,,,,,,,,,,,,,,,,,,,,,,,,,,,,,,,,,,,,,,,,,,,,,,,,,,,,,,,,,,,,,,,,,,,,,,,,,,,,,,,,,,,,,,,,,,,,,,,,,,,,
,,58fdcd2be219d00001ee5aa0,2024-02-18_21h13.03.099,kallum_motion_pilot,2023.2.2,Win32,60.09615385,58fdcd2be219d00001ee5aa0,65d2b6c8f2eece985d8e374c,65d2b97ac365b86d27d1c715,0.0684,0.0685,0,69,69,7,1,fourthree,,,,,,,,,,,,,,,,,,,,,,,,,,,,,,,,,,,,,,,,,,,,,,,,,,,,,,,,,,,,,,,,,,,,,,,,,,,,,,,,,,,,,,,,,,,,,,,,,,,,,,,,,,,,,,,,,,,,,,,,,,,,,,,,,,,,,,,,,
,,58fdcd2be219d00001ee5aa0,2024-02-18_21h13.03.099,kallum_motion_pilot,2023.2.2,Win32,60.09615385,58fdcd2be219d00001ee5aa0,65d2b6c8f2eece985d8e374c,65d2b97ac365b86d27d1c715,0.0687,0.0688,0,70,70,72,1,onetwo,,,,,,,,,,,,,,,,,,,,,,,,,,,,,,,,,,,,,,,,,,,,,,,,,,,,,,,,,,,,,,,,,,,,,,,,,,,,,,,,,,,,,,,,,,,,,,,,,,,,,,,,,,,,,,,,,,,,,,,,,,,,,,,,,,,,,,,,,
,,58fdcd2be219d00001ee5aa0,2024-02-18_21h13.03.099,kallum_motion_pilot,2023.2.2,Win32,60.09615385,58fdcd2be219d00001ee5aa0,65d2b6c8f2eece985d8e374c,65d2b97ac365b86d27d1c715,0.069,0.0691,0,71,71,135,1,eightseven,,,,,,,,,,,,,,,,,,,,,,,,,,,,,,,,,,,,,,,,,,,,,,,,,,,,,,,,,,,,,,,,,,,,,,,,,,,,,,,,,,,,,,,,,,,,,,,,,,,,,,,,,,,,,,,,,,,,,,,,,,,,,,,,,,,,,,,,,
,,58fdcd2be219d00001ee5aa0,2024-02-18_21h13.03.099,kallum_motion_pilot,2023.2.2,Win32,60.09615385,58fdcd2be219d00001ee5aa0,65d2b6c8f2eece985d8e374c,65d2b97ac365b86d27d1c715,0.0692,0.0693,0,72,72,36,1,threeone,,,,,,,,,,,,,,,,,,,,,,,,,,,,,,,,,,,,,,,,,,,,,,,,,,,,,,,,,,,,,,,,,,,,,,,,,,,,,,,,,,,,,,,,,,,,,,,,,,,,,,,,,,,,,,,,,,,,,,,,,,,,,,,,,,,,,,,,,
,,58fdcd2be219d00001ee5aa0,2024-02-18_21h13.03.099,kallum_motion_pilot,2023.2.2,Win32,60.09615385,58fdcd2be219d00001ee5aa0,65d2b6c8f2eece985d8e374c,65d2b97ac365b86d27d1c715,0.0695,0.0695,0,73,73,124,1,sevenfive,,,,,,,,,,,,,,,,,,,,,,,,,,,,,,,,,,,,,,,,,,,,,,,,,,,,,,,,,,,,,,,,,,,,,,,,,,,,,,,,,,,,,,,,,,,,,,,,,,,,,,,,,,,,,,,,,,,,,,,,,,,,,,,,,,,,,,,,,
,,58fdcd2be219d00001ee5aa0,2024-02-18_21h13.03.099,kallum_motion_pilot,2023.2.2,Win32,60.09615385,58fdcd2be219d00001ee5aa0,65d2b6c8f2eece985d8e374c,65d2b97ac365b86d27d1c715,0.0698,0.0698,0,74,74,49,1,onethree,,,,,,,,,,,,,,,,,,,,,,,,,,,,,,,,,,,,,,,,,,,,,,,,,,,,,,,,,,,,,,,,,,,,,,,,,,,,,,,,,,,,,,,,,,,,,,,,,,,,,,,,,,,,,,,,,,,,,,,,,,,,,,,,,,,,,,,,,
,,58fdcd2be219d00001ee5aa0,2024-02-18_21h13.03.099,kallum_motion_pilot,2023.2.2,Win32,60.09615385,58fdcd2be219d00001ee5aa0,65d2b6c8f2eece985d8e374c,65d2b97ac365b86d27d1c715,0.07,0.0701,0,75,75,82,1,sixfive,,,,,,,,,,,,,,,,,,,,,,,,,,,,,,,,,,,,,,,,,,,,,,,,,,,,,,,,,,,,,,,,,,,,,,,,,,,,,,,,,,,,,,,,,,,,,,,,,,,,,,,,,,,,,,,,,,,,,,,,,,,,,,,,,,,,,,,,,
,,58fdcd2be219d00001ee5aa0,2024-02-18_21h13.03.099,kallum_motion_pilot,2023.2.2,Win32,60.09615385,58fdcd2be219d00001ee5aa0,65d2b6c8f2eece985d8e374c,65d2b97ac365b86d27d1c715,0.0703,0.0704,0,76,76,30,1,fourtwo,,,,,,,,,,,,,,,,,,,,,,,,,,,,,,,,,,,,,,,,,,,,,,,,,,,,,,,,,,,,,,,,,,,,,,,,,,,,,,,,,,,,,,,,,,,,,,,,,,,,,,,,,,,,,,,,,,,,,,,,,,,,,,,,,,,,,,,,,
,,58fdcd2be219d00001ee5aa0,2024-02-18_21h13.03.099,kallum_motion_pilot,2023.2.2,Win32,60.09615385,58fdcd2be219d00001ee5aa0,65d2b6c8f2eece985d8e374c,65d2b97ac365b86d27d1c715,0.0706,0.0707,0,77,77,161,1,fiveseven,,,,,,,,,,,,,,,,,,,,,,,,,,,,,,,,,,,,,,,,,,,,,,,,,,,,,,,,,,,,,,,,,,,,,,,,,,,,,,,,,,,,,,,,,,,,,,,,,,,,,,,,,,,,,,,,,,,,,,,,,,,,,,,,,,,,,,,,,
,,58fdcd2be219d00001ee5aa0,2024-02-18_21h13.03.099,kallum_motion_pilot,2023.2.2,Win32,60.09615385,58fdcd2be219d00001ee5aa0,65d2b6c8f2eece985d8e374c,65d2b97ac365b86d27d1c715,0.0708,0.0709,0,78,78,104,1,fivesix,,,,,,,,,,,,,,,,,,,,,,,,,,,,,,,,,,,,,,,,,,,,,,,,,,,,,,,,,,,,,,,,,,,,,,,,,,,,,,,,,,,,,,,,,,,,,,,,,,,,,,,,,,,,,,,,,,,,,,,,,,,,,,,,,,,,,,,,,
,,58fdcd2be219d00001ee5aa0,2024-02-18_21h13.03.099,kallum_motion_pilot,2023.2.2,Win32,60.09615385,58fdcd2be219d00001ee5aa0,65d2b6c8f2eece985d8e374c,65d2b97ac365b86d27d1c715,0.0712,0.0713,0,79,79,98,1,sixfive,,,,,,,,,,,,,,,,,,,,,,,,,,,,,,,,,,,,,,,,,,,,,,,,,,,,,,,,,,,,,,,,,,,,,,,,,,,,,,,,,,,,,,,,,,,,,,,,,,,,,,,,,,,,,,,,,,,,,,,,,,,,,,,,,,,,,,,,,
,,58fdcd2be219d00001ee5aa0,2024-02-18_21h13.03.099,kallum_motion_pilot,2023.2.2,Win32,60.09615385,58fdcd2be219d00001ee5aa0,65d2b6c8f2eece985d8e374c,65d2b97ac365b86d27d1c715,0.0715,0.0716,0,80,80,157,1,seveneight,,,,,,,,,,,,,,,,,,,,,,,,,,,,,,,,,,,,,,,,,,,,,,,,,,,,,,,,,,,,,,,,,,,,,,,,,,,,,,,,,,,,,,,,,,,,,,,,,,,,,,,,,,,,,,,,,,,,,,,,,,,,,,,,,,,,,,,,,
,,58fdcd2be219d00001ee5aa0,2024-02-18_21h13.03.099,kallum_motion_pilot,2023.2.2,Win32,60.09615385,58fdcd2be219d00001ee5aa0,65d2b6c8f2eece985d8e374c,65d2b97ac365b86d27d1c715,0.0718,0.0719,0,81,81,146,1,sixfive,,,,,,,,,,,,,,,,,,,,,,,,,,,,,,,,,,,,,,,,,,,,,,,,,,,,,,,,,,,,,,,,,,,,,,,,,,,,,,,,,,,,,,,,,,,,,,,,,,,,,,,,,,,,,,,,,,,,,,,,,,,,,,,,,,,,,,,,,
,,58fdcd2be219d00001ee5aa0,2024-02-18_21h13.03.099,kallum_motion_pilot,2023.2.2,Win32,60.09615385,58fdcd2be219d00001ee5aa0,65d2b6c8f2eece985d8e374c,65d2b97ac365b86d27d1c715,0.0721,0.0722,0,82,82,12,1,threeone,,,,,,,,,,,,,,,,,,,,,,,,,,,,,,,,,,,,,,,,,,,,,,,,,,,,,,,,,,,,,,,,,,,,,,,,,,,,,,,,,,,,,,,,,,,,,,,,,,,,,,,,,,,,,,,,,,,,,,,,,,,,,,,,,,,,,,,,,
,,58fdcd2be219d00001ee5aa0,2024-02-18_21h13.03.099,kallum_motion_pilot,2023.2.2,Win32,60.09615385,58fdcd2be219d00001ee5aa0,65d2b6c8f2eece985d8e374c,65d2b97ac365b86d27d1c715,0.0725,0.0725,0,83,83,128,1,fivesix,,,,,,,,,,,,,,,,,,,,,,,,,,,,,,,,,,,,,,,,,,,,,,,,,,,,,,,,,,,,,,,,,,,,,,,,,,,,,,,,,,,,,,,,,,,,,,,,,,,,,,,,,,,,,,,,,,,,,,,,,,,,,,,,,,,,,,,,,
,,58fdcd2be219d00001ee5aa0,2024-02-18_21h13.03.099,kallum_motion_pilot,2023.2.2,Win32,60.09615385,58fdcd2be219d00001ee5aa0,65d2b6c8f2eece985d8e374c,65d2b97ac365b86d27d1c715,0.0727,0.0728,0,84,84,132,1,sevenfive,,,,,,,,,,,,,,,,,,,,,,,,,,,,,,,,,,,,,,,,,,,,,,,,,,,,,,,,,,,,,,,,,,,,,,,,,,,,,,,,,,,,,,,,,,,,,,,,,,,,,,,,,,,,,,,,,,,,,,,,,,,,,,,,,,,,,,,,,
,,58fdcd2be219d00001ee5aa0,2024-02-18_21h13.03.099,kallum_motion_pilot,2023.2.2,Win32,60.09615385,58fdcd2be219d00001ee5aa0,65d2b6c8f2eece985d8e374c,65d2b97ac365b86d27d1c715,0.073,0.0731,0,85,85,160,1,fivesix,,,,,,,,,,,,,,,,,,,,,,,,,,,,,,,,,,,,,,,,,,,,,,,,,,,,,,,,,,,,,,,,,,,,,,,,,,,,,,,,,,,,,,,,,,,,,,,,,,,,,,,,,,,,,,,,,,,,,,,,,,,,,,,,,,,,,,,,,
,,58fdcd2be219d00001ee5aa0,2024-02-18_21h13.03.099,kallum_motion_pilot,2023.2.2,Win32,60.09615385,58fdcd2be219d00001ee5aa0,65d2b6c8f2eece985d8e374c,65d2b97ac365b86d27d1c715,0.0734,0.0735,0,86,86,16,1,onetwo,,,,,,,,,,,,,,,,,,,,,,,,,,,,,,,,,,,,,,,,,,,,,,,,,,,,,,,,,,,,,,,,,,,,,,,,,,,,,,,,,,,,,,,,,,,,,,,,,,,,,,,,,,,,,,,,,,,,,,,,,,,,,,,,,,,,,,,,,
,,58fdcd2be219d00001ee5aa0,2024-02-18_21h13.03.099,kallum_motion_pilot,2023.2.2,Win32,60.09615385,58fdcd2be219d00001ee5aa0,65d2b6c8f2eece985d8e374c,65d2b97ac365b86d27d1c715,0.0736,0.0738,0,87,87,79,1,eightseven,,,,,,,,,,,,,,,,,,,,,,,,,,,,,,,,,,,,,,,,,,,,,,,,,,,,,,,,,,,,,,,,,,,,,,,,,,,,,,,,,,,,,,,,,,,,,,,,,,,,,,,,,,,,,,,,,,,,,,,,,,,,,,,,,,,,,,,,,
,,58fdcd2be219d00001ee5aa0,2024-02-18_21h13.03.099,kallum_motion_pilot,2023.2.2,Win32,60.09615385,58fdcd2be219d00001ee5aa0,65d2b6c8f2eece985d8e374c,65d2b97ac365b86d27d1c715,0.074,0.0741,0,88,88,41,1,onethree,,,,,,,,,,,,,,,,,,,,,,,,,,,,,,,,,,,,,,,,,,,,,,,,,,,,,,,,,,,,,,,,,,,,,,,,,,,,,,,,,,,,,,,,,,,,,,,,,,,,,,,,,,,,,,,,,,,,,,,,,,,,,,,,,,,,,,,,,
,,58fdcd2be219d00001ee5aa0,2024-02-18_21h13.03.099,kallum_motion_pilot,2023.2.2,Win32,60.09615385,58fdcd2be219d00001ee5aa0,65d2b6c8f2eece985d8e374c,65d2b97ac365b86d27d1c715,0.0743,0.0744,0,89,89,39,1,fourthree,,,,,,,,,,,,,,,,,,,,,,,,,,,,,,,,,,,,,,,,,,,,,,,,,,,,,,,,,,,,,,,,,,,,,,,,,,,,,,,,,,,,,,,,,,,,,,,,,,,,,,,,,,,,,,,,,,,,,,,,,,,,,,,,,,,,,,,,,
,,58fdcd2be219d00001ee5aa0,2024-02-18_21h13.03.099,kallum_motion_pilot,2023.2.2,Win32,60.09615385,58fdcd2be219d00001ee5aa0,65d2b6c8f2eece985d8e374c,65d2b97ac365b86d27d1c715,0.0746,0.0747,0,90,90,143,1,eightseven,,,,,,,,,,,,,,,,,,,,,,,,,,,,,,,,,,,,,,,,,,,,,,,,,,,,,,,,,,,,,,,,,,,,,,,,,,,,,,,,,,,,,,,,,,,,,,,,,,,,,,,,,,,,,,,,,,,,,,,,,,,,,,,,,,,,,,,,,
,,58fdcd2be219d00001ee5aa0,2024-02-18_21h13.03.099,kallum_motion_pilot,2023.2.2,Win32,60.09615385,58fdcd2be219d00001ee5aa0,65d2b6c8f2eece985d8e374c,65d2b97ac365b86d27d1c715,0.0748,0.0749,0,91,91,111,1,eightseven,,,,,,,,,,,,,,,,,,,,,,,,,,,,,,,,,,,,,,,,,,,,,,,,,,,,,,,,,,,,,,,,,,,,,,,,,,,,,,,,,,,,,,,,,,,,,,,,,,,,,,,,,,,,,,,,,,,,,,,,,,,,,,,,,,,,,,,,,
,,58fdcd2be219d00001ee5aa0,2024-02-18_21h13.03.099,kallum_motion_pilot,2023.2.2,Win32,60.09615385,58fdcd2be219d00001ee5aa0,65d2b6c8f2eece985d8e374c,65d2b97ac365b86d27d1c715,0.0751,0.0752,0,92,92,159,1,eightseven,,,,,,,,,,,,,,,,,,,,,,,,,,,,,,,,,,,,,,,,,,,,,,,,,,,,,,,,,,,,,,,,,,,,,,,,,,,,,,,,,,,,,,,,,,,,,,,,,,,,,,,,,,,,,,,,,,,,,,,,,,,,,,,,,,,,,,,,,
,,58fdcd2be219d00001ee5aa0,2024-02-18_21h13.03.099,kallum_motion_pilot,2023.2.2,Win32,60.09615385,58fdcd2be219d00001ee5aa0,65d2b6c8f2eece985d8e374c,65d2b97ac365b86d27d1c715,0.0754,0.0755,0,93,93,13,1,threefour,,,,,,,,,,,,,,,,,,,,,,,,,,,,,,,,,,,,,,,,,,,,,,,,,,,,,,,,,,,,,,,,,,,,,,,,,,,,,,,,,,,,,,,,,,,,,,,,,,,,,,,,,,,,,,,,,,,,,,,,,,,,,,,,,,,,,,,,,
,,58fdcd2be219d00001ee5aa0,2024-02-18_21h13.03.099,kallum_motion_pilot,2023.2.2,Win32,60.09615385,58fdcd2be219d00001ee5aa0,65d2b6c8f2eece985d8e374c,65d2b97ac365b86d27d1c715,0.0758,0.0759,0,94,94,5,1,threefour,,,,,,,,,,,,,,,,,,,,,,,,,,,,,,,,,,,,,,,,,,,,,,,,,,,,,,,,,,,,,,,,,,,,,,,,,,,,,,,,,,,,,,,,,,,,,,,,,,,,,,,,,,,,,,,,,,,,,,,,,,,,,,,,,,,,,,,,,
,,58fdcd2be219d00001ee5aa0,2024-02-18_21h13.03.099,kallum_motion_pilot,2023.2.2,Win32,60.09615385,58fdcd2be219d00001ee5aa0,65d2b6c8f2eece985d8e374c,65d2b97ac365b86d27d1c715,0.076,0.0762,0,95,95,18,1,twoone,,,,,,,,,,,,,,,,,,,,,,,,,,,,,,,,,,,,,,,,,,,,,,,,,,,,,,,,,,,,,,,,,,,,,,,,,,,,,,,,,,,,,,,,,,,,,,,,,,,,,,,,,,,,,,,,,,,,,,,,,,,,,,,,,,,,,,,,,
,,58fdcd2be219d00001ee5aa0,2024-02-18_21h13.03.099,kallum_motion_pilot,2023.2.2,Win32,60.09615385,58fdcd2be219d00001ee5aa0,65d2b6c8f2eece985d8e374c,65d2b97ac365b86d27d1c715,0.0763,0.0764,0,96,96,43,1,twofour,,,,,,,,,,,,,,,,,,,,,,,,,,,,,,,,,,,,,,,,,,,,,,,,,,,,,,,,,,,,,,,,,,,,,,,,,,,,,,,,,,,,,,,,,,,,,,,,,,,,,,,,,,,,,,,,,,,,,,,,,,,,,,,,,,,,,,,,,
,,58fdcd2be219d00001ee5aa0,2024-02-18_21h13.03.099,kallum_motion_pilot,2023.2.2,Win32,60.09615385,58fdcd2be219d00001ee5aa0,65d2b6c8f2eece985d8e374c,65d2b97ac365b86d27d1c715,0.0766,0.0767,0,97,97,27,1,twofour,,,,,,,,,,,,,,,,,,,,,,,,,,,,,,,,,,,,,,,,,,,,,,,,,,,,,,,,,,,,,,,,,,,,,,,,,,,,,,,,,,,,,,,,,,,,,,,,,,,,,,,,,,,,,,,,,,,,,,,,,,,,,,,,,,,,,,,,,
,,58fdcd2be219d00001ee5aa0,2024-02-18_21h13.03.099,kallum_motion_pilot,2023.2.2,Win32,60.09615385,58fdcd2be219d00001ee5aa0,65d2b6c8f2eece985d8e374c,65d2b97ac365b86d27d1c715,0.0769,0.0769,0,98,98,69,1,threefour,,,,,,,,,,,,,,,,,,,,,,,,,,,,,,,,,,,,,,,,,,,,,,,,,,,,,,,,,,,,,,,,,,,,,,,,,,,,,,,,,,,,,,,,,,,,,,,,,,,,,,,,,,,,,,,,,,,,,,,,,,,,,,,,,,,,,,,,,
,,58fdcd2be219d00001ee5aa0,2024-02-18_21h13.03.099,kallum_motion_pilot,2023.2.2,Win32,60.09615385,58fdcd2be219d00001ee5aa0,65d2b6c8f2eece985d8e374c,65d2b97ac365b86d27d1c715,0.0772,0.0774,0,99,99,154,1,sixfive,,,,,,,,,,,,,,,,,,,,,,,,,,,,,,,,,,,,,,,,,,,,,,,,,,,,,,,,,,,,,,,,,,,,,,,,,,,,,,,,,,,,,,,,,,,,,,,,,,,,,,,,,,,,,,,,,,,,,,,,,,,,,,,,,,,,,,,,,
,,58fdcd2be219d00001ee5aa0,2024-02-18_21h13.03.099,kallum_motion_pilot,2023.2.2,Win32,60.09615385,58fdcd2be219d00001ee5aa0,65d2b6c8f2eece985d8e374c,65d2b97ac365b86d27d1c715,0.0775,0.0777,0,100,100,8,1,onetwo,,,,,,,,,,,,,,,,,,,,,,,,,,,,,,,,,,,,,,,,,,,,,,,,,,,,,,,,,,,,,,,,,,,,,,,,,,,,,,,,,,,,,,,,,,,,,,,,,,,,,,,,,,,,,,,,,,,,,,,,,,,,,,,,,,,,,,,,,
,,58fdcd2be219d00001ee5aa0,2024-02-18_21h13.03.099,kallum_motion_pilot,2023.2.2,Win32,60.09615385,58fdcd2be219d00001ee5aa0,65d2b6c8f2eece985d8e374c,65d2b97ac365b86d27d1c715,0.0779,0.078,0,101,101,63,1,fourthree,,,,,,,,,,,,,,,,,,,,,,,,,,,,,,,,,,,,,,,,,,,,,,,,,,,,,,,,,,,,,,,,,,,,,,,,,,,,,,,,,,,,,,,,,,,,,,,,,,,,,,,,,,,,,,,,,,,,,,,,,,,,,,,,,,,,,,,,,
,,58fdcd2be219d00001ee5aa0,2024-02-18_21h13.03.099,kallum_motion_pilot,2023.2.2,Win32,60.09615385,58fdcd2be219d00001ee5aa0,65d2b6c8f2eece985d8e374c,65d2b97ac365b86d27d1c715,0.0781,0.0782,0,102,102,25,1,onethree,,,,,,,,,,,,,,,,,,,,,,,,,,,,,,,,,,,,,,,,,,,,,,,,,,,,,,,,,,,,,,,,,,,,,,,,,,,,,,,,,,,,,,,,,,,,,,,,,,,,,,,,,,,,,,,,,,,,,,,,,,,,,,,,,,,,,,,,,
,,58fdcd2be219d00001ee5aa0,2024-02-18_21h13.03.099,kallum_motion_pilot,2023.2.2,Win32,60.09615385,58fdcd2be219d00001ee5aa0,65d2b6c8f2eece985d8e374c,65d2b97ac365b86d27d1c715,0.0784,0.0785,0,103,103,134,1,eightsix,,,,,,,,,,,,,,,,,,,,,,,,,,,,,,,,,,,,,,,,,,,,,,,,,,,,,,,,,,,,,,,,,,,,,,,,,,,,,,,,,,,,,,,,,,,,,,,,,,,,,,,,,,,,,,,,,,,,,,,,,,,,,,,,,,,,,,,,,
,,58fdcd2be219d00001ee5aa0,2024-02-18_21h13.03.099,kallum_motion_pilot,2023.2.2,Win32,60.09615385,58fdcd2be219d00001ee5aa0,65d2b6c8f2eece985d8e374c,65d2b97ac365b86d27d1c715,0.0787,0.0788,0,104,104,80,1,fivesix,,,,,,,,,,,,,,,,,,,,,,,,,,,,,,,,,,,,,,,,,,,,,,,,,,,,,,,,,,,,,,,,,,,,,,,,,,,,,,,,,,,,,,,,,,,,,,,,,,,,,,,,,,,,,,,,,,,,,,,,,,,,,,,,,,,,,,,,,
,,58fdcd2be219d00001ee5aa0,2024-02-18_21h13.03.099,kallum_motion_pilot,2023.2.2,Win32,60.09615385,58fdcd2be219d00001ee5aa0,65d2b6c8f2eece985d8e374c,65d2b97ac365b86d27d1c715,0.079,0.0791,0,105,105,19,1,twofour,,,,,,,,,,,,,,,,,,,,,,,,,,,,,,,,,,,,,,,,,,,,,,,,,,,,,,,,,,,,,,,,,,,,,,,,,,,,,,,,,,,,,,,,,,,,,,,,,,,,,,,,,,,,,,,,,,,,,,,,,,,,,,,,,,,,,,,,,
,,58fdcd2be219d00001ee5aa0,2024-02-18_21h13.03.099,kallum_motion_pilot,2023.2.2,Win32,60.09615385,58fdcd2be219d00001ee5aa0,65d2b6c8f2eece985d8e374c,65d2b97ac365b86d27d1c715,0.0793,0.0793,0,106,106,152,1,fivesix,,,,,,,,,,,,,,,,,,,,,,,,,,,,,,,,,,,,,,,,,,,,,,,,,,,,,,,,,,,,,,,,,,,,,,,,,,,,,,,,,,,,,,,,,,,,,,,,,,,,,,,,,,,,,,,,,,,,,,,,,,,,,,,,,,,,,,,,,
,,58fdcd2be219d00001ee5aa0,2024-02-18_21h13.03.099,kallum_motion_pilot,2023.2.2,Win32,60.09615385,58fdcd2be219d00001ee5aa0,65d2b6c8f2eece985d8e374c,65d2b97ac365b86d27d1c715,0.0795,0.0796,0,107,107,0,1,onetwo,,,,,,,,,,,,,,,,,,,,,,,,,,,,,,,,,,,,,,,,,,,,,,,,,,,,,,,,,,,,,,,,,,,,,,,,,,,,,,,,,,,,,,,,,,,,,,,,,,,,,,,,,,,,,,,,,,,,,,,,,,,,,,,,,,,,,,,,,
,,58fdcd2be219d00001ee5aa0,2024-02-18_21h13.03.099,kallum_motion_pilot,2023.2.2,Win32,60.09615385,58fdcd2be219d00001ee5aa0,65d2b6c8f2eece985d8e374c,65d2b97ac365b86d27d1c715,0.0798,0.0799,0,108,108,144,1,fivesix,,,,,,,,,,,,,,,,,,,,,,,,,,,,,,,,,,,,,,,,,,,,,,,,,,,,,,,,,,,,,,,,,,,,,,,,,,,,,,,,,,,,,,,,,,,,,,,,,,,,,,,,,,,,,,,,,,,,,,,,,,,,,,,,,,,,,,,,,
,,58fdcd2be219d00001ee5aa0,2024-02-18_21h13.03.099,kallum_motion_pilot,2023.2.2,Win32,60.09615385,58fdcd2be219d00001ee5aa0,65d2b6c8f2eece985d8e374c,65d2b97ac365b86d27d1c715,0.0801,0.0802,0,109,109,3,1,twofour,,,,,,,,,,,,,,,,,,,,,,,,,,,,,,,,,,,,,,,,,,,,,,,,,,,,,,,,,,,,,,,,,,,,,,,,,,,,,,,,,,,,,,,,,,,,,,,,,,,,,,,,,,,,,,,,,,,,,,,,,,,,,,,,,,,,,,,,,
,,58fdcd2be219d00001ee5aa0,2024-02-18_21h13.03.099,kallum_motion_pilot,2023.2.2,Win32,60.09615385,58fdcd2be219d00001ee5aa0,65d2b6c8f2eece985d8e374c,65d2b97ac365b86d27d1c715,0.0803,0.0805,0,110,110,85,1,seveneight,,,,,,,,,,,,,,,,,,,,,,,,,,,,,,,,,,,,,,,,,,,,,,,,,,,,,,,,,,,,,,,,,,,,,,,,,,,,,,,,,,,,,,,,,,,,,,,,,,,,,,,,,,,,,,,,,,,,,,,,,,,,,,,,,,,,,,,,,
,,58fdcd2be219d00001ee5aa0,2024-02-18_21h13.03.099,kallum_motion_pilot,2023.2.2,Win32,60.09615385,58fdcd2be219d00001ee5aa0,65d2b6c8f2eece985d8e374c,65d2b97ac365b86d27d1c715,0.0806,0.0807,0,111,111,62,1,fourtwo,,,,,,,,,,,,,,,,,,,,,,,,,,,,,,,,,,,,,,,,,,,,,,,,,,,,,,,,,,,,,,,,,,,,,,,,,,,,,,,,,,,,,,,,,,,,,,,,,,,,,,,,,,,,,,,,,,,,,,,,,,,,,,,,,,,,,,,,,
,,58fdcd2be219d00001ee5aa0,2024-02-18_21h13.03.099,kallum_motion_pilot,2023.2.2,Win32,60.09615385,58fdcd2be219d00001ee5aa0,65d2b6c8f2eece985d8e374c,65d2b97ac365b86d27d1c715,0.0809,0.081,0,112,112,71,1,fourthree,,,,,,,,,,,,,,,,,,,,,,,,,,,,,,,,,,,,,,,,,,,,,,,,,,,,,,,,,,,,,,,,,,,,,,,,,,,,,,,,,,,,,,,,,,,,,,,,,,,,,,,,,,,,,,,,,,,,,,,,,,,,,,,,,,,,,,,,,
,,58fdcd2be219d00001ee5aa0,2024-02-18_21h13.03.099,kallum_motion_pilot,2023.2.2,Win32,60.09615385,58fdcd2be219d00001ee5aa0,65d2b6c8f2eece985d8e374c,65d2b97ac365b86d27d1c715,0.0812,0.0813,0,113,113,116,1,sevenfive,,,,,,,,,,,,,,,,,,,,,,,,,,,,,,,,,,,,,,,,,,,,,,,,,,,,,,,,,,,,,,,,,,,,,,,,,,,,,,,,,,,,,,,,,,,,,,,,,,,,,,,,,,,,,,,,,,,,,,,,,,,,,,,,,,,,,,,,,
,,58fdcd2be219d00001ee5aa0,2024-02-18_21h13.03.099,kallum_motion_pilot,2023.2.2,Win32,60.09615385,58fdcd2be219d00001ee5aa0,65d2b6c8f2eece985d8e374c,65d2b97ac365b86d27d1c715,0.0815,0.0816,0,114,114,112,1,fivesix,,,,,,,,,,,,,,,,,,,,,,,,,,,,,,,,,,,,,,,,,,,,,,,,,,,,,,,,,,,,,,,,,,,,,,,,,,,,,,,,,,,,,,,,,,,,,,,,,,,,,,,,,,,,,,,,,,,,,,,,,,,,,,,,,,,,,,,,,
,,58fdcd2be219d00001ee5aa0,2024-02-18_21h13.03.099,kallum_motion_pilot,2023.2.2,Win32,60.09615385,58fdcd2be219d00001ee5aa0,65d2b6c8f2eece985d8e374c,65d2b97ac365b86d27d1c715,0.0818,0.0819,0,115,115,93,1,seveneight,,,,,,,,,,,,,,,,,,,,,,,,,,,,,,,,,,,,,,,,,,,,,,,,,,,,,,,,,,,,,,,,,,,,,,,,,,,,,,,,,,,,,,,,,,,,,,,,,,,,,,,,,,,,,,,,,,,,,,,,,,,,,,,,,,,,,,,,,
,,58fdcd2be219d00001ee5aa0,2024-02-18_21h13.03.099,kallum_motion_pilot,2023.2.2,Win32,60.09615385,58fdcd2be219d00001ee5aa0,65d2b6c8f2eece985d8e374c,65d2b97ac365b86d27d1c715,0.0821,0.0822,0,116,116,66,1,twoone,,,,,,,,,,,,,,,,,,,,,,,,,,,,,,,,,,,,,,,,,,,,,,,,,,,,,,,,,,,,,,,,,,,,,,,,,,,,,,,,,,,,,,,,,,,,,,,,,,,,,,,,,,,,,,,,,,,,,,,,,,,,,,,,,,,,,,,,,
,,58fdcd2be219d00001ee5aa0,2024-02-18_21h13.03.099,kallum_motion_pilot,2023.2.2,Win32,60.09615385,58fdcd2be219d00001ee5aa0,65d2b6c8f2eece985d8e374c,65d2b97ac365b86d27d1c715,0.0824,0.0825,0,117,117,110,1,eightsix,,,,,,,,,,,,,,,,,,,,,,,,,,,,,,,,,,,,,,,,,,,,,,,,,,,,,,,,,,,,,,,,,,,,,,,,,,,,,,,,,,,,,,,,,,,,,,,,,,,,,,,,,,,,,,,,,,,,,,,,,,,,,,,,,,,,,,,,,
,,58fdcd2be219d00001ee5aa0,2024-02-18_21h13.03.099,kallum_motion_pilot,2023.2.2,Win32,60.09615385,58fdcd2be219d00001ee5aa0,65d2b6c8f2eece985d8e374c,65d2b97ac365b86d27d1c715,0.0827,0.0828,0,118,118,37,1,threefour,,,,,,,,,,,,,,,,,,,,,,,,,,,,,,,,,,,,,,,,,,,,,,,,,,,,,,,,,,,,,,,,,,,,,,,,,,,,,,,,,,,,,,,,,,,,,,,,,,,,,,,,,,,,,,,,,,,,,,,,,,,,,,,,,,,,,,,,,
,,58fdcd2be219d00001ee5aa0,2024-02-18_21h13.03.099,kallum_motion_pilot,2023.2.2,Win32,60.09615385,58fdcd2be219d00001ee5aa0,65d2b6c8f2eece985d8e374c,65d2b97ac365b86d27d1c715,0.0829,0.083,0,119,119,81,1,fiveseven,,,,,,,,,,,,,,,,,,,,,,,,,,,,,,,,,,,,,,,,,,,,,,,,,,,,,,,,,,,,,,,,,,,,,,,,,,,,,,,,,,,,,,,,,,,,,,,,,,,,,,,,,,,,,,,,,,,,,,,,,,,,,,,,,,,,,,,,,
,,58fdcd2be219d00001ee5aa0,2024-02-18_21h13.03.099,kallum_motion_pilot,2023.2.2,Win32,60.09615385,58fdcd2be219d00001ee5aa0,65d2b6c8f2eece985d8e374c,65d2b97ac365b86d27d1c715,0.0833,0.0834,0,120,120,114,1,sixfive,,,,,,,,,,,,,,,,,,,,,,,,,,,,,,,,,,,,,,,,,,,,,,,,,,,,,,,,,,,,,,,,,,,,,,,,,,,,,,,,,,,,,,,,,,,,,,,,,,,,,,,,,,,,,,,,,,,,,,,,,,,,,,,,,,,,,,,,,
,,58fdcd2be219d00001ee5aa0,2024-02-18_21h13.03.099,kallum_motion_pilot,2023.2.2,Win32,60.09615385,58fdcd2be219d00001ee5aa0,65d2b6c8f2eece985d8e374c,65d2b97ac365b86d27d1c715,0.0835,0.0837,0,121,121,54,1,fourtwo,,,,,,,,,,,,,,,,,,,,,,,,,,,,,,,,,,,,,,,,,,,,,,,,,,,,,,,,,,,,,,,,,,,,,,,,,,,,,,,,,,,,,,,,,,,,,,,,,,,,,,,,,,,,,,,,,,,,,,,,,,,,,,,,,,,,,,,,,
,,58fdcd2be219d00001ee5aa0,2024-02-18_21h13.03.099,kallum_motion_pilot,2023.2.2,Win32,60.09615385,58fdcd2be219d00001ee5aa0,65d2b6c8f2eece985d8e374c,65d2b97ac365b86d27d1c715,0.0839,0.084,0,122,122,126,1,eightsix,,,,,,,,,,,,,,,,,,,,,,,,,,,,,,,,,,,,,,,,,,,,,,,,,,,,,,,,,,,,,,,,,,,,,,,,,,,,,,,,,,,,,,,,,,,,,,,,,,,,,,,,,,,,,,,,,,,,,,,,,,,,,,,,,,,,,,,,,
,,58fdcd2be219d00001ee5aa0,2024-02-18_21h13.03.099,kallum_motion_pilot,2023.2.2,Win32,60.09615385,58fdcd2be219d00001ee5aa0,65d2b6c8f2eece985d8e374c,65d2b97ac365b86d27d1c715,0.0841,0.0843,0,123,123,155,1,sixeight,,,,,,,,,,,,,,,,,,,,,,,,,,,,,,,,,,,,,,,,,,,,,,,,,,,,,,,,,,,,,,,,,,,,,,,,,,,,,,,,,,,,,,,,,,,,,,,,,,,,,,,,,,,,,,,,,,,,,,,,,,,,,,,,,,,,,,,,,
,,58fdcd2be219d00001ee5aa0,2024-02-18_21h13.03.099,kallum_motion_pilot,2023.2.2,Win32,60.09615385,58fdcd2be219d00001ee5aa0,65d2b6c8f2eece985d8e374c,65d2b97ac365b86d27d1c715,0.0844,0.0845,0,124,124,22,1,fourtwo,,,,,,,,,,,,,,,,,,,,,,,,,,,,,,,,,,,,,,,,,,,,,,,,,,,,,,,,,,,,,,,,,,,,,,,,,,,,,,,,,,,,,,,,,,,,,,,,,,,,,,,,,,,,,,,,,,,,,,,,,,,,,,,,,,,,,,,,,
,,58fdcd2be219d00001ee5aa0,2024-02-18_21h13.03.099,kallum_motion_pilot,2023.2.2,Win32,60.09615385,58fdcd2be219d00001ee5aa0,65d2b6c8f2eece985d8e374c,65d2b97ac365b86d27d1c715,0.0848,0.0849,0,125,125,15,1,fourthree,,,,,,,,,,,,,,,,,,,,,,,,,,,,,,,,,,,,,,,,,,,,,,,,,,,,,,,,,,,,,,,,,,,,,,,,,,,,,,,,,,,,,,,,,,,,,,,,,,,,,,,,,,,,,,,,,,,,,,,,,,,,,,,,,,,,,,,,,
,,58fdcd2be219d00001ee5aa0,2024-02-18_21h13.03.099,kallum_motion_pilot,2023.2.2,Win32,60.09615385,58fdcd2be219d00001ee5aa0,65d2b6c8f2eece985d8e374c,65d2b97ac365b86d27d1c715,0.0851,0.0851,0,126,126,55,1,fourthree,,,,,,,,,,,,,,,,,,,,,,,,,,,,,,,,,,,,,,,,,,,,,,,,,,,,,,,,,,,,,,,,,,,,,,,,,,,,,,,,,,,,,,,,,,,,,,,,,,,,,,,,,,,,,,,,,,,,,,,,,,,,,,,,,,,,,,,,,
,,58fdcd2be219d00001ee5aa0,2024-02-18_21h13.03.099,kallum_motion_pilot,2023.2.2,Win32,60.09615385,58fdcd2be219d00001ee5aa0,65d2b6c8f2eece985d8e374c,65d2b97ac365b86d27d1c715,0.0853,0.0855,0,127,127,108,1,sevenfive,,,,,,,,,,,,,,,,,,,,,,,,,,,,,,,,,,,,,,,,,,,,,,,,,,,,,,,,,,,,,,,,,,,,,,,,,,,,,,,,,,,,,,,,,,,,,,,,,,,,,,,,,,,,,,,,,,,,,,,,,,,,,,,,,,,,,,,,,
,,58fdcd2be219d00001ee5aa0,2024-02-18_21h13.03.099,kallum_motion_pilot,2023.2.2,Win32,60.09615385,58fdcd2be219d00001ee5aa0,65d2b6c8f2eece985d8e374c,65d2b97ac365b86d27d1c715,0.0856,0.0857,0,128,128,28,1,threeone,,,,,,,,,,,,,,,,,,,,,,,,,,,,,,,,,,,,,,,,,,,,,,,,,,,,,,,,,,,,,,,,,,,,,,,,,,,,,,,,,,,,,,,,,,,,,,,,,,,,,,,,,,,,,,,,,,,,,,,,,,,,,,,,,,,,,,,,,
,,58fdcd2be219d00001ee5aa0,2024-02-18_21h13.03.099,kallum_motion_pilot,2023.2.2,Win32,60.09615385,58fdcd2be219d00001ee5aa0,65d2b6c8f2eece985d8e374c,65d2b97ac365b86d27d1c715,0.0859,0.086,0,129,129,117,1,seveneight,,,,,,,,,,,,,,,,,,,,,,,,,,,,,,,,,,,,,,,,,,,,,,,,,,,,,,,,,,,,,,,,,,,,,,,,,,,,,,,,,,,,,,,,,,,,,,,,,,,,,,,,,,,,,,,,,,,,,,,,,,,,,,,,,,,,,,,,,
,,58fdcd2be219d00001ee5aa0,2024-02-18_21h13.03.099,kallum_motion_pilot,2023.2.2,Win32,60.09615385,58fdcd2be219d00001ee5aa0,65d2b6c8f2eece985d8e374c,65d2b97ac365b86d27d1c715,0.0862,0.0862,0,130,130,29,1,threefour,,,,,,,,,,,,,,,,,,,,,,,,,,,,,,,,,,,,,,,,,,,,,,,,,,,,,,,,,,,,,,,,,,,,,,,,,,,,,,,,,,,,,,,,,,,,,,,,,,,,,,,,,,,,,,,,,,,,,,,,,,,,,,,,,,,,,,,,,
,,58fdcd2be219d00001ee5aa0,2024-02-18_21h13.03.099,kallum_motion_pilot,2023.2.2,Win32,60.09615385,58fdcd2be219d00001ee5aa0,65d2b6c8f2eece985d8e374c,65d2b97ac365b86d27d1c715,0.0865,0.0866,0,131,131,151,1,eightseven,,,,,,,,,,,,,,,,,,,,,,,,,,,,,,,,,,,,,,,,,,,,,,,,,,,,,,,,,,,,,,,,,,,,,,,,,,,,,,,,,,,,,,,,,,,,,,,,,,,,,,,,,,,,,,,,,,,,,,,,,,,,,,,,,,,,,,,,,
,,58fdcd2be219d00001ee5aa0,2024-02-18_21h13.03.099,kallum_motion_pilot,2023.2.2,Win32,60.09615385,58fdcd2be219d00001ee5aa0,65d2b6c8f2eece985d8e374c,65d2b97ac365b86d27d1c715,0.0868,0.0868,0,132,132,1,1,onethree,,,,,,,,,,,,,,,,,,,,,,,,,,,,,,,,,,,,,,,,,,,,,,,,,,,,,,,,,,,,,,,,,,,,,,,,,,,,,,,,,,,,,,,,,,,,,,,,,,,,,,,,,,,,,,,,,,,,,,,,,,,,,,,,,,,,,,,,,
,,58fdcd2be219d00001ee5aa0,2024-02-18_21h13.03.099,kallum_motion_pilot,2023.2.2,Win32,60.09615385,58fdcd2be219d00001ee5aa0,65d2b6c8f2eece985d8e374c,65d2b97ac365b86d27d1c715,0.0871,0.0873,0,133,133,59,1,twofour,,,,,,,,,,,,,,,,,,,,,,,,,,,,,,,,,,,,,,,,,,,,,,,,,,,,,,,,,,,,,,,,,,,,,,,,,,,,,,,,,,,,,,,,,,,,,,,,,,,,,,,,,,,,,,,,,,,,,,,,,,,,,,,,,,,,,,,,,
,,58fdcd2be219d00001ee5aa0,2024-02-18_21h13.03.099,kallum_motion_pilot,2023.2.2,Win32,60.09615385,58fdcd2be219d00001ee5aa0,65d2b6c8f2eece985d8e374c,65d2b97ac365b86d27d1c715,0.0875,0.0877,0,134,134,123,1,sixeight,,,,,,,,,,,,,,,,,,,,,,,,,,,,,,,,,,,,,,,,,,,,,,,,,,,,,,,,,,,,,,,,,,,,,,,,,,,,,,,,,,,,,,,,,,,,,,,,,,,,,,,,,,,,,,,,,,,,,,,,,,,,,,,,,,,,,,,,,
,,58fdcd2be219d00001ee5aa0,2024-02-18_21h13.03.099,kallum_motion_pilot,2023.2.2,Win32,60.09615385,58fdcd2be219d00001ee5aa0,65d2b6c8f2eece985d8e374c,65d2b97ac365b86d27d1c715,0.0879,0.0879,0,135,135,101,1,seveneight,,,,,,,,,,,,,,,,,,,,,,,,,,,,,,,,,,,,,,,,,,,,,,,,,,,,,,,,,,,,,,,,,,,,,,,,,,,,,,,,,,,,,,,,,,,,,,,,,,,,,,,,,,,,,,,,,,,,,,,,,,,,,,,,,,,,,,,,,
,,58fdcd2be219d00001ee5aa0,2024-02-18_21h13.03.099,kallum_motion_pilot,2023.2.2,Win32,60.09615385,58fdcd2be219d00001ee5aa0,65d2b6c8f2eece985d8e374c,65d2b97ac365b86d27d1c715,0.0883,0.0884,0,136,136,106,1,sixfive,,,,,,,,,,,,,,,,,,,,,,,,,,,,,,,,,,,,,,,,,,,,,,,,,,,,,,,,,,,,,,,,,,,,,,,,,,,,,,,,,,,,,,,,,,,,,,,,,,,,,,,,,,,,,,,,,,,,,,,,,,,,,,,,,,,,,,,,,
,,58fdcd2be219d00001ee5aa0,2024-02-18_21h13.03.099,kallum_motion_pilot,2023.2.2,Win32,60.09615385,58fdcd2be219d00001ee5aa0,65d2b6c8f2eece985d8e374c,65d2b97ac365b86d27d1c715,0.0887,0.0888,0,137,137,17,1,onethree,,,,,,,,,,,,,,,,,,,,,,,,,,,,,,,,,,,,,,,,,,,,,,,,,,,,,,,,,,,,,,,,,,,,,,,,,,,,,,,,,,,,,,,,,,,,,,,,,,,,,,,,,,,,,,,,,,,,,,,,,,,,,,,,,,,,,,,,,
,,58fdcd2be219d00001ee5aa0,2024-02-18_21h13.03.099,kallum_motion_pilot,2023.2.2,Win32,60.09615385,58fdcd2be219d00001ee5aa0,65d2b6c8f2eece985d8e374c,65d2b97ac365b86d27d1c715,0.089,0.0892,0,138,138,76,1,threeone,,,,,,,,,,,,,,,,,,,,,,,,,,,,,,,,,,,,,,,,,,,,,,,,,,,,,,,,,,,,,,,,,,,,,,,,,,,,,,,,,,,,,,,,,,,,,,,,,,,,,,,,,,,,,,,,,,,,,,,,,,,,,,,,,,,,,,,,,
,,58fdcd2be219d00001ee5aa0,2024-02-18_21h13.03.099,kallum_motion_pilot,2023.2.2,Win32,60.09615385,58fdcd2be219d00001ee5aa0,65d2b6c8f2eece985d8e374c,65d2b97ac365b86d27d1c715,0.0894,0.0896,0,139,139,4,1,threeone,,,,,,,,,,,,,,,,,,,,,,,,,,,,,,,,,,,,,,,,,,,,,,,,,,,,,,,,,,,,,,,,,,,,,,,,,,,,,,,,,,,,,,,,,,,,,,,,,,,,,,,,,,,,,,,,,,,,,,,,,,,,,,,,,,,,,,,,,
,,58fdcd2be219d00001ee5aa0,2024-02-18_21h13.03.099,kallum_motion_pilot,2023.2.2,Win32,60.09615385,58fdcd2be219d00001ee5aa0,65d2b6c8f2eece985d8e374c,65d2b97ac365b86d27d1c715,0.0898,0.0899,0,140,140,45,1,threefour,,,,,,,,,,,,,,,,,,,,,,,,,,,,,,,,,,,,,,,,,,,,,,,,,,,,,,,,,,,,,,,,,,,,,,,,,,,,,,,,,,,,,,,,,,,,,,,,,,,,,,,,,,,,,,,,,,,,,,,,,,,,,,,,,,,,,,,,,
,,58fdcd2be219d00001ee5aa0,2024-02-18_21h13.03.099,kallum_motion_pilot,2023.2.2,Win32,60.09615385,58fdcd2be219d00001ee5aa0,65d2b6c8f2eece985d8e374c,65d2b97ac365b86d27d1c715,0.0901,0.0902,0,141,141,97,1,fiveseven,,,,,,,,,,,,,,,,,,,,,,,,,,,,,,,,,,,,,,,,,,,,,,,,,,,,,,,,,,,,,,,,,,,,,,,,,,,,,,,,,,,,,,,,,,,,,,,,,,,,,,,,,,,,,,,,,,,,,,,,,,,,,,,,,,,,,,,,,
,,58fdcd2be219d00001ee5aa0,2024-02-18_21h13.03.099,kallum_motion_pilot,2023.2.2,Win32,60.09615385,58fdcd2be219d00001ee5aa0,65d2b6c8f2eece985d8e374c,65d2b97ac365b86d27d1c715,0.0904,0.0906,0,142,142,125,1,seveneight,,,,,,,,,,,,,,,,,,,,,,,,,,,,,,,,,,,,,,,,,,,,,,,,,,,,,,,,,,,,,,,,,,,,,,,,,,,,,,,,,,,,,,,,,,,,,,,,,,,,,,,,,,,,,,,,,,,,,,,,,,,,,,,,,,,,,,,,,
,,58fdcd2be219d00001ee5aa0,2024-02-18_21h13.03.099,kallum_motion_pilot,2023.2.2,Win32,60.09615385,58fdcd2be219d00001ee5aa0,65d2b6c8f2eece985d8e374c,65d2b97ac365b86d27d1c715,0.0908,0.0909,0,143,143,131,1,sixeight,,,,,,,,,,,,,,,,,,,,,,,,,,,,,,,,,,,,,,,,,,,,,,,,,,,,,,,,,,,,,,,,,,,,,,,,,,,,,,,,,,,,,,,,,,,,,,,,,,,,,,,,,,,,,,,,,,,,,,,,,,,,,,,,,,,,,,,,,
,,58fdcd2be219d00001ee5aa0,2024-02-18_21h13.03.099,kallum_motion_pilot,2023.2.2,Win32,60.09615385,58fdcd2be219d00001ee5aa0,65d2b6c8f2eece985d8e374c,65d2b97ac365b86d27d1c715,0.091,0.0912,0,144,144,118,1,eightsix,,,,,,,,,,,,,,,,,,,,,,,,,,,,,,,,,,,,,,,,,,,,,,,,,,,,,,,,,,,,,,,,,,,,,,,,,,,,,,,,,,,,,,,,,,,,,,,,,,,,,,,,,,,,,,,,,,,,,,,,,,,,,,,,,,,,,,,,,
,,58fdcd2be219d00001ee5aa0,2024-02-18_21h13.03.099,kallum_motion_pilot,2023.2.2,Win32,60.09615385,58fdcd2be219d00001ee5aa0,65d2b6c8f2eece985d8e374c,65d2b97ac365b86d27d1c715,0.0914,0.0915,0,145,145,113,1,fiveseven,,,,,,,,,,,,,,,,,,,,,,,,,,,,,,,,,,,,,,,,,,,,,,,,,,,,,,,,,,,,,,,,,,,,,,,,,,,,,,,,,,,,,,,,,,,,,,,,,,,,,,,,,,,,,,,,,,,,,,,,,,,,,,,,,,,,,,,,,
,,58fdcd2be219d00001ee5aa0,2024-02-18_21h13.03.099,kallum_motion_pilot,2023.2.2,Win32,60.09615385,58fdcd2be219d00001ee5aa0,65d2b6c8f2eece985d8e374c,65d2b97ac365b86d27d1c715,0.0917,0.0918,0,146,146,149,1,seveneight,,,,,,,,,,,,,,,,,,,,,,,,,,,,,,,,,,,,,,,,,,,,,,,,,,,,,,,,,,,,,,,,,,,,,,,,,,,,,,,,,,,,,,,,,,,,,,,,,,,,,,,,,,,,,,,,,,,,,,,,,,,,,,,,,,,,,,,,,
,,58fdcd2be219d00001ee5aa0,2024-02-18_21h13.03.099,kallum_motion_pilot,2023.2.2,Win32,60.09615385,58fdcd2be219d00001ee5aa0,65d2b6c8f2eece985d8e374c,65d2b97ac365b86d27d1c715,0.0921,0.0921,0,147,147,90,1,sixfive,,,,,,,,,,,,,,,,,,,,,,,,,,,,,,,,,,,,,,,,,,,,,,,,,,,,,,,,,,,,,,,,,,,,,,,,,,,,,,,,,,,,,,,,,,,,,,,,,,,,,,,,,,,,,,,,,,,,,,,,,,,,,,,,,,,,,,,,,
,,58fdcd2be219d00001ee5aa0,2024-02-18_21h13.03.099,kallum_motion_pilot,2023.2.2,Win32,60.09615385,58fdcd2be219d00001ee5aa0,65d2b6c8f2eece985d8e374c,65d2b97ac365b86d27d1c715,0.0923,0.0925,0,148,148,20,1,threeone,,,,,,,,,,,,,,,,,,,,,,,,,,,,,,,,,,,,,,,,,,,,,,,,,,,,,,,,,,,,,,,,,,,,,,,,,,,,,,,,,,,,,,,,,,,,,,,,,,,,,,,,,,,,,,,,,,,,,,,,,,,,,,,,,,,,,,,,,
,,58fdcd2be219d00001ee5aa0,2024-02-18_21h13.03.099,kallum_motion_pilot,2023.2.2,Win32,60.09615385,58fdcd2be219d00001ee5aa0,65d2b6c8f2eece985d8e374c,65d2b97ac365b86d27d1c715,0.0926,0.0928,0,149,149,6,1,fourtwo,,,,,,,,,,,,,,,,,,,,,,,,,,,,,,,,,,,,,,,,,,,,,,,,,,,,,,,,,,,,,,,,,,,,,,,,,,,,,,,,,,,,,,,,,,,,,,,,,,,,,,,,,,,,,,,,,,,,,,,,,,,,,,,,,,,,,,,,,
,,58fdcd2be219d00001ee5aa0,2024-02-18_21h13.03.099,kallum_motion_pilot,2023.2.2,Win32,60.09615385,58fdcd2be219d00001ee5aa0,65d2b6c8f2eece985d8e374c,65d2b97ac365b86d27d1c715,0.093,0.0932,0,150,150,31,1,fourthree,,,,,,,,,,,,,,,,,,,,,,,,,,,,,,,,,,,,,,,,,,,,,,,,,,,,,,,,,,,,,,,,,,,,,,,,,,,,,,,,,,,,,,,,,,,,,,,,,,,,,,,,,,,,,,,,,,,,,,,,,,,,,,,,,,,,,,,,,
,,58fdcd2be219d00001ee5aa0,2024-02-18_21h13.03.099,kallum_motion_pilot,2023.2.2,Win32,60.09615385,58fdcd2be219d00001ee5aa0,65d2b6c8f2eece985d8e374c,65d2b97ac365b86d27d1c715,0.0934,0.0935,0,151,151,158,1,eightsix,,,,,,,,,,,,,,,,,,,,,,,,,,,,,,,,,,,,,,,,,,,,,,,,,,,,,,,,,,,,,,,,,,,,,,,,,,,,,,,,,,,,,,,,,,,,,,,,,,,,,,,,,,,,,,,,,,,,,,,,,,,,,,,,,,,,,,,,,
,,58fdcd2be219d00001ee5aa0,2024-02-18_21h13.03.099,kallum_motion_pilot,2023.2.2,Win32,60.09615385,58fdcd2be219d00001ee5aa0,65d2b6c8f2eece985d8e374c,65d2b97ac365b86d27d1c715,0.0937,0.0938,0,152,152,33,1,onethree,,,,,,,,,,,,,,,,,,,,,,,,,,,,,,,,,,,,,,,,,,,,,,,,,,,,,,,,,,,,,,,,,,,,,,,,,,,,,,,,,,,,,,,,,,,,,,,,,,,,,,,,,,,,,,,,,,,,,,,,,,,,,,,,,,,,,,,,,
,,58fdcd2be219d00001ee5aa0,2024-02-18_21h13.03.099,kallum_motion_pilot,2023.2.2,Win32,60.09615385,58fdcd2be219d00001ee5aa0,65d2b6c8f2eece985d8e374c,65d2b97ac365b86d27d1c715,0.094,0.0941,0,153,153,10,1,twoone,,,,,,,,,,,,,,,,,,,,,,,,,,,,,,,,,,,,,,,,,,,,,,,,,,,,,,,,,,,,,,,,,,,,,,,,,,,,,,,,,,,,,,,,,,,,,,,,,,,,,,,,,,,,,,,,,,,,,,,,,,,,,,,,,,,,,,,,,
,,58fdcd2be219d00001ee5aa0,2024-02-18_21h13.03.099,kallum_motion_pilot,2023.2.2,Win32,60.09615385,58fdcd2be219d00001ee5aa0,65d2b6c8f2eece985d8e374c,65d2b97ac365b86d27d1c715,0.0943,0.0945,0,154,154,44,1,threeone,,,,,,,,,,,,,,,,,,,,,,,,,,,,,,,,,,,,,,,,,,,,,,,,,,,,,,,,,,,,,,,,,,,,,,,,,,,,,,,,,,,,,,,,,,,,,,,,,,,,,,,,,,,,,,,,,,,,,,,,,,,,,,,,,,,,,,,,,
,,58fdcd2be219d00001ee5aa0,2024-02-18_21h13.03.099,kallum_motion_pilot,2023.2.2,Win32,60.09615385,58fdcd2be219d00001ee5aa0,65d2b6c8f2eece985d8e374c,65d2b97ac365b86d27d1c715,0.0947,0.0949,0,155,155,70,1,fourtwo,,,,,,,,,,,,,,,,,,,,,,,,,,,,,,,,,,,,,,,,,,,,,,,,,,,,,,,,,,,,,,,,,,,,,,,,,,,,,,,,,,,,,,,,,,,,,,,,,,,,,,,,,,,,,,,,,,,,,,,,,,,,,,,,,,,,,,,,,
,,58fdcd2be219d00001ee5aa0,2024-02-18_21h13.03.099,kallum_motion_pilot,2023.2.2,Win32,60.09615385,58fdcd2be219d00001ee5aa0,65d2b6c8f2eece985d8e374c,65d2b97ac365b86d27d1c715,0.0951,0.0951,0,156,156,23,1,fourthree,,,,,,,,,,,,,,,,,,,,,,,,,,,,,,,,,,,,,,,,,,,,,,,,,,,,,,,,,,,,,,,,,,,,,,,,,,,,,,,,,,,,,,,,,,,,,,,,,,,,,,,,,,,,,,,,,,,,,,,,,,,,,,,,,,,,,,,,,
,,58fdcd2be219d00001ee5aa0,2024-02-18_21h13.03.099,kallum_motion_pilot,2023.2.2,Win32,60.09615385,58fdcd2be219d00001ee5aa0,65d2b6c8f2eece985d8e374c,65d2b97ac365b86d27d1c715,0.0955,0.0955,0,157,157,91,1,sixeight,,,,,,,,,,,,,,,,,,,,,,,,,,,,,,,,,,,,,,,,,,,,,,,,,,,,,,,,,,,,,,,,,,,,,,,,,,,,,,,,,,,,,,,,,,,,,,,,,,,,,,,,,,,,,,,,,,,,,,,,,,,,,,,,,,,,,,,,,
,,58fdcd2be219d00001ee5aa0,2024-02-18_21h13.03.099,kallum_motion_pilot,2023.2.2,Win32,60.09615385,58fdcd2be219d00001ee5aa0,65d2b6c8f2eece985d8e374c,65d2b97ac365b86d27d1c715,0.0958,0.0959,0,158,158,140,1,sevenfive,,,,,,,,,,,,,,,,,,,,,,,,,,,,,,,,,,,,,,,,,,,,,,,,,,,,,,,,,,,,,,,,,,,,,,,,,,,,,,,,,,,,,,,,,,,,,,,,,,,,,,,,,,,,,,,,,,,,,,,,,,,,,,,,,,,,,,,,,
,,58fdcd2be219d00001ee5aa0,2024-02-18_21h13.03.099,kallum_motion_pilot,2023.2.2,Win32,60.09615385,58fdcd2be219d00001ee5aa0,65d2b6c8f2eece985d8e374c,65d2b97ac365b86d27d1c715,0.0961,0.0965,0,159,159,156,1,sevenfive,,,,,,,,,,,,,,,,,,,,,,,,,,,,,,,,,,,,,,,,,,,,,,,,,,,,,,,,,,,,,,,,,,,,,,,,,,,,,,,,,,,,,,,,,,,,,,,,,,,,,,,,,,,,,,,,,,,,,,,,,,,,,,,,,,,,,,,,,
,,58fdcd2be219d00001ee5aa0,2024-02-18_21h13.03.099,kallum_motion_pilot,2023.2.2,Win32,60.09615385,58fdcd2be219d00001ee5aa0,65d2b6c8f2eece985d8e374c,65d2b97ac365b86d27d1c715,0.0967,0.0969,0,160,160,100,1,sevenfive,,,,,,,,,,,,,,,,,,,,,,,,,,,,,,,,,,,,,,,,,,,,,,,,,,,,,,,,,,,,,,,,,,,,,,,,,,,,,,,,,,,,,,,,,,,,,,,,,,,,,,,,,,,,,,,,,,,,,,,,,,,,,,,,,,,,,,,,,
,,58fdcd2be219d00001ee5aa0,2024-02-18_21h13.03.099,kallum_motion_pilot,2023.2.2,Win32,60.09615385,58fdcd2be219d00001ee5aa0,65d2b6c8f2eece985d8e374c,65d2b97ac365b86d27d1c715,0.097,0.0972,0,161,161,64,1,onetwo,,,,,,,,,,,,,,,,,,,,,,,,,,,,,,,,,,,,,,,,,,,,,,,,,,,,,,,,,,,,,,,,,,,,,,,,,,,,,,,,,,,,,,,,,,,,,,,,,,,,,,,,,,,,,,,,,,,,,,,,,,,,,,,,,,,,,,,,,
,,58fdcd2be219d00001ee5aa0,2024-02-18_21h13.03.099,kallum_motion_pilot,2023.2.2,Win32,60.09615385,58fdcd2be219d00001ee5aa0,65d2b6c8f2eece985d8e374c,65d2b97ac365b86d27d1c715,0.0975,0.0976,1,0,162,51,1,twofour,,,,,,,,,,,,,,,,,,,,,,,,,,,,,,,,,,,,,,,,,,,,,,,,,,,,,,,,,,,,,,,,,,,,,,,,,,,,,,,,,,,,,,,,,,,,,,,,,,,,,,,,,,,,,,,,,,,,,,,,,,,,,,,,,,,,,,,,,
,,58fdcd2be219d00001ee5aa0,2024-02-18_21h13.03.099,kallum_motion_pilot,2023.2.2,Win32,60.09615385,58fdcd2be219d00001ee5aa0,65d2b6c8f2eece985d8e374c,65d2b97ac365b86d27d1c715,0.098,0.0981,1,1,163,115,1,sixeight,,,,,,,,,,,,,,,,,,,,,,,,,,,,,,,,,,,,,,,,,,,,,,,,,,,,,,,,,,,,,,,,,,,,,,,,,,,,,,,,,,,,,,,,,,,,,,,,,,,,,,,,,,,,,,,,,,,,,,,,,,,,,,,,,,,,,,,,,
,,58fdcd2be219d00001ee5aa0,2024-02-18_21h13.03.099,kallum_motion_pilot,2023.2.2,Win32,60.09615385,58fdcd2be219d00001ee5aa0,65d2b6c8f2eece985d8e374c,65d2b97ac365b86d27d1c715,0.0983,0.0985,1,2,164,82,1,sixfive,,,,,,,,,,,,,,,,,,,,,,,,,,,,,,,,,,,,,,,,,,,,,,,,,,,,,,,,,,,,,,,,,,,,,,,,,,,,,,,,,,,,,,,,,,,,,,,,,,,,,,,,,,,,,,,,,,,,,,,,,,,,,,,,,,,,,,,,,
,,58fdcd2be219d00001ee5aa0,2024-02-18_21h13.03.099,kallum_motion_pilot,2023.2.2,Win32,60.09615385,58fdcd2be219d00001ee5aa0,65d2b6c8f2eece985d8e374c,65d2b97ac365b86d27d1c715,0.0987,0.0988,1,3,165,70,1,fourtwo,,,,,,,,,,,,,,,,,,,,,,,,,,,,,,,,,,,,,,,,,,,,,,,,,,,,,,,,,,,,,,,,,,,,,,,,,,,,,,,,,,,,,,,,,,,,,,,,,,,,,,,,,,,,,,,,,,,,,,,,,,,,,,,,,,,,,,,,,
,,58fdcd2be219d00001ee5aa0,2024-02-18_21h13.03.099,kallum_motion_pilot,2023.2.2,Win32,60.09615385,58fdcd2be219d00001ee5aa0,65d2b6c8f2eece985d8e374c,65d2b97ac365b86d27d1c715,0.099,0.0992,1,4,166,86,1,eightsix,,,,,,,,,,,,,,,,,,,,,,,,,,,,,,,,,,,,,,,,,,,,,,,,,,,,,,,,,,,,,,,,,,,,,,,,,,,,,,,,,,,,,,,,,,,,,,,,,,,,,,,,,,,,,,,,,,,,,,,,,,,,,,,,,,,,,,,,,
,,58fdcd2be219d00001ee5aa0,2024-02-18_21h13.03.099,kallum_motion_pilot,2023.2.2,Win32,60.09615385,58fdcd2be219d00001ee5aa0,65d2b6c8f2eece985d8e374c,65d2b97ac365b86d27d1c715,0.0994,0.0995,1,5,167,1,1,onethree,,,,,,,,,,,,,,,,,,,,,,,,,,,,,,,,,,,,,,,,,,,,,,,,,,,,,,,,,,,,,,,,,,,,,,,,,,,,,,,,,,,,,,,,,,,,,,,,,,,,,,,,,,,,,,,,,,,,,,,,,,,,,,,,,,,,,,,,,
,,58fdcd2be219d00001ee5aa0,2024-02-18_21h13.03.099,kallum_motion_pilot,2023.2.2,Win32,60.09615385,58fdcd2be219d00001ee5aa0,65d2b6c8f2eece985d8e374c,65d2b97ac365b86d27d1c715,0.0997,0.0999,1,6,168,120,1,fivesix,,,,,,,,,,,,,,,,,,,,,,,,,,,,,,,,,,,,,,,,,,,,,,,,,,,,,,,,,,,,,,,,,,,,,,,,,,,,,,,,,,,,,,,,,,,,,,,,,,,,,,,,,,,,,,,,,,,,,,,,,,,,,,,,,,,,,,,,,
,,58fdcd2be219d00001ee5aa0,2024-02-18_21h13.03.099,kallum_motion_pilot,2023.2.2,Win32,60.09615385,58fdcd2be219d00001ee5aa0,65d2b6c8f2eece985d8e374c,65d2b97ac365b86d27d1c715,0.1,0.1002,1,7,169,8,1,onetwo,,,,,,,,,,,,,,,,,,,,,,,,,,,,,,,,,,,,,,,,,,,,,,,,,,,,,,,,,,,,,,,,,,,,,,,,,,,,,,,,,,,,,,,,,,,,,,,,,,,,,,,,,,,,,,,,,,,,,,,,,,,,,,,,,,,,,,,,,
,,58fdcd2be219d00001ee5aa0,2024-02-18_21h13.03.099,kallum_motion_pilot,2023.2.2,Win32,60.09615385,58fdcd2be219d00001ee5aa0,65d2b6c8f2eece985d8e374c,65d2b97ac365b86d27d1c715,0.1004,0.1004,1,8,170,136,1,fivesix,,,,,,,,,,,,,,,,,,,,,,,,,,,,,,,,,,,,,,,,,,,,,,,,,,,,,,,,,,,,,,,,,,,,,,,,,,,,,,,,,,,,,,,,,,,,,,,,,,,,,,,,,,,,,,,,,,,,,,,,,,,,,,,,,,,,,,,,,
,,58fdcd2be219d00001ee5aa0,2024-02-18_21h13.03.099,kallum_motion_pilot,2023.2.2,Win32,60.09615385,58fdcd2be219d00001ee5aa0,65d2b6c8f2eece985d8e374c,65d2b97ac365b86d27d1c715,0.1007,0.1008,1,9,171,161,1,fiveseven,,,,,,,,,,,,,,,,,,,,,,,,,,,,,,,,,,,,,,,,,,,,,,,,,,,,,,,,,,,,,,,,,,,,,,,,,,,,,,,,,,,,,,,,,,,,,,,,,,,,,,,,,,,,,,,,,,,,,,,,,,,,,,,,,,,,,,,,,
,,58fdcd2be219d00001ee5aa0,2024-02-18_21h13.03.099,kallum_motion_pilot,2023.2.2,Win32,60.09615385,58fdcd2be219d00001ee5aa0,65d2b6c8f2eece985d8e374c,65d2b97ac365b86d27d1c715,0.101,0.1011,1,10,172,36,1,threeone,,,,,,,,,,,,,,,,,,,,,,,,,,,,,,,,,,,,,,,,,,,,,,,,,,,,,,,,,,,,,,,,,,,,,,,,,,,,,,,,,,,,,,,,,,,,,,,,,,,,,,,,,,,,,,,,,,,,,,,,,,,,,,,,,,,,,,,,,
,,58fdcd2be219d00001ee5aa0,2024-02-18_21h13.03.099,kallum_motion_pilot,2023.2.2,Win32,60.09615385,58fdcd2be219d00001ee5aa0,65d2b6c8f2eece985d8e374c,65d2b97ac365b86d27d1c715,0.1013,0.1015,1,11,173,72,1,onetwo,,,,,,,,,,,,,,,,,,,,,,,,,,,,,,,,,,,,,,,,,,,,,,,,,,,,,,,,,,,,,,,,,,,,,,,,,,,,,,,,,,,,,,,,,,,,,,,,,,,,,,,,,,,,,,,,,,,,,,,,,,,,,,,,,,,,,,,,,
,,58fdcd2be219d00001ee5aa0,2024-02-18_21h13.03.099,kallum_motion_pilot,2023.2.2,Win32,60.09615385,58fdcd2be219d00001ee5aa0,65d2b6c8f2eece985d8e374c,65d2b97ac365b86d27d1c715,0.1017,0.1018,1,12,174,137,1,fiveseven,,,,,,,,,,,,,,,,,,,,,,,,,,,,,,,,,,,,,,,,,,,,,,,,,,,,,,,,,,,,,,,,,,,,,,,,,,,,,,,,,,,,,,,,,,,,,,,,,,,,,,,,,,,,,,,,,,,,,,,,,,,,,,,,,,,,,,,,,
,,58fdcd2be219d00001ee5aa0,2024-02-18_21h13.03.099,kallum_motion_pilot,2023.2.2,Win32,60.09615385,58fdcd2be219d00001ee5aa0,65d2b6c8f2eece985d8e374c,65d2b97ac365b86d27d1c715,0.102,0.1021,1,13,175,55,1,fourthree,,,,,,,,,,,,,,,,,,,,,,,,,,,,,,,,,,,,,,,,,,,,,,,,,,,,,,,,,,,,,,,,,,,,,,,,,,,,,,,,,,,,,,,,,,,,,,,,,,,,,,,,,,,,,,,,,,,,,,,,,,,,,,,,,,,,,,,,,
,,58fdcd2be219d00001ee5aa0,2024-02-18_21h13.03.099,kallum_motion_pilot,2023.2.2,Win32,60.09615385,58fdcd2be219d00001ee5aa0,65d2b6c8f2eece985d8e374c,65d2b97ac365b86d27d1c715,0.1024,0.1025,1,14,176,85,1,seveneight,,,,,,,,,,,,,,,,,,,,,,,,,,,,,,,,,,,,,,,,,,,,,,,,,,,,,,,,,,,,,,,,,,,,,,,,,,,,,,,,,,,,,,,,,,,,,,,,,,,,,,,,,,,,,,,,,,,,,,,,,,,,,,,,,,,,,,,,,
,,58fdcd2be219d00001ee5aa0,2024-02-18_21h13.03.099,kallum_motion_pilot,2023.2.2,Win32,60.09615385,58fdcd2be219d00001ee5aa0,65d2b6c8f2eece985d8e374c,65d2b97ac365b86d27d1c715,0.1028,0.1029,1,15,177,155,1,sixeight,,,,,,,,,,,,,,,,,,,,,,,,,,,,,,,,,,,,,,,,,,,,,,,,,,,,,,,,,,,,,,,,,,,,,,,,,,,,,,,,,,,,,,,,,,,,,,,,,,,,,,,,,,,,,,,,,,,,,,,,,,,,,,,,,,,,,,,,,
,,58fdcd2be219d00001ee5aa0,2024-02-18_21h13.03.099,kallum_motion_pilot,2023.2.2,Win32,60.09615385,58fdcd2be219d00001ee5aa0,65d2b6c8f2eece985d8e374c,65d2b97ac365b86d27d1c715,0.1031,0.1033,1,16,178,78,1,fourtwo,,,,,,,,,,,,,,,,,,,,,,,,,,,,,,,,,,,,,,,,,,,,,,,,,,,,,,,,,,,,,,,,,,,,,,,,,,,,,,,,,,,,,,,,,,,,,,,,,,,,,,,,,,,,,,,,,,,,,,,,,,,,,,,,,,,,,,,,,
,,58fdcd2be219d00001ee5aa0,2024-02-18_21h13.03.099,kallum_motion_pilot,2023.2.2,Win32,60.09615385,58fdcd2be219d00001ee5aa0,65d2b6c8f2eece985d8e374c,65d2b97ac365b86d27d1c715,0.1035,0.1036,1,17,179,151,1,eightseven,,,,,,,,,,,,,,,,,,,,,,,,,,,,,,,,,,,,,,,,,,,,,,,,,,,,,,,,,,,,,,,,,,,,,,,,,,,,,,,,,,,,,,,,,,,,,,,,,,,,,,,,,,,,,,,,,,,,,,,,,,,,,,,,,,,,,,,,,
,,58fdcd2be219d00001ee5aa0,2024-02-18_21h13.03.099,kallum_motion_pilot,2023.2.2,Win32,60.09615385,58fdcd2be219d00001ee5aa0,65d2b6c8f2eece985d8e374c,65d2b97ac365b86d27d1c715,0.1038,0.1039,1,18,180,43,1,twofour,,,,,,,,,,,,,,,,,,,,,,,,,,,,,,,,,,,,,,,,,,,,,,,,,,,,,,,,,,,,,,,,,,,,,,,,,,,,,,,,,,,,,,,,,,,,,,,,,,,,,,,,,,,,,,,,,,,,,,,,,,,,,,,,,,,,,,,,,
,,58fdcd2be219d00001ee5aa0,2024-02-18_21h13.03.099,kallum_motion_pilot,2023.2.2,Win32,60.09615385,58fdcd2be219d00001ee5aa0,65d2b6c8f2eece985d8e374c,65d2b97ac365b86d27d1c715,0.1041,0.1043,1,19,181,64,1,onetwo,,,,,,,,,,,,,,,,,,,,,,,,,,,,,,,,,,,,,,,,,,,,,,,,,,,,,,,,,,,,,,,,,,,,,,,,,,,,,,,,,,,,,,,,,,,,,,,,,,,,,,,,,,,,,,,,,,,,,,,,,,,,,,,,,,,,,,,,,
,,58fdcd2be219d00001ee5aa0,2024-02-18_21h13.03.099,kallum_motion_pilot,2023.2.2,Win32,60.09615385,58fdcd2be219d00001ee5aa0,65d2b6c8f2eece985d8e374c,65d2b97ac365b86d27d1c715,0.1045,0.1047,1,20,182,31,1,fourthree,,,,,,,,,,,,,,,,,,,,,,,,,,,,,,,,,,,,,,,,,,,,,,,,,,,,,,,,,,,,,,,,,,,,,,,,,,,,,,,,,,,,,,,,,,,,,,,,,,,,,,,,,,,,,,,,,,,,,,,,,,,,,,,,,,,,,,,,,
,,58fdcd2be219d00001ee5aa0,2024-02-18_21h13.03.099,kallum_motion_pilot,2023.2.2,Win32,60.09615385,58fdcd2be219d00001ee5aa0,65d2b6c8f2eece985d8e374c,65d2b97ac365b86d27d1c715,0.1048,0.1051,1,21,183,22,1,fourtwo,,,,,,,,,,,,,,,,,,,,,,,,,,,,,,,,,,,,,,,,,,,,,,,,,,,,,,,,,,,,,,,,,,,,,,,,,,,,,,,,,,,,,,,,,,,,,,,,,,,,,,,,,,,,,,,,,,,,,,,,,,,,,,,,,,,,,,,,,
,,58fdcd2be219d00001ee5aa0,2024-02-18_21h13.03.099,kallum_motion_pilot,2023.2.2,Win32,60.09615385,58fdcd2be219d00001ee5aa0,65d2b6c8f2eece985d8e374c,65d2b97ac365b86d27d1c715,0.1053,0.1054,1,22,184,76,1,threeone,,,,,,,,,,,,,,,,,,,,,,,,,,,,,,,,,,,,,,,,,,,,,,,,,,,,,,,,,,,,,,,,,,,,,,,,,,,,,,,,,,,,,,,,,,,,,,,,,,,,,,,,,,,,,,,,,,,,,,,,,,,,,,,,,,,,,,,,,
,,58fdcd2be219d00001ee5aa0,2024-02-18_21h13.03.099,kallum_motion_pilot,2023.2.2,Win32,60.09615385,58fdcd2be219d00001ee5aa0,65d2b6c8f2eece985d8e374c,65d2b97ac365b86d27d1c715,0.1056,0.1057,1,23,185,156,1,sevenfive,,,,,,,,,,,,,,,,,,,,,,,,,,,,,,,,,,,,,,,,,,,,,,,,,,,,,,,,,,,,,,,,,,,,,,,,,,,,,,,,,,,,,,,,,,,,,,,,,,,,,,,,,,,,,,,,,,,,,,,,,,,,,,,,,,,,,,,,,
,,58fdcd2be219d00001ee5aa0,2024-02-18_21h13.03.099,kallum_motion_pilot,2023.2.2,Win32,60.09615385,58fdcd2be219d00001ee5aa0,65d2b6c8f2eece985d8e374c,65d2b97ac365b86d27d1c715,0.106,0.1061,1,24,186,114,1,sixfive,,,,,,,,,,,,,,,,,,,,,,,,,,,,,,,,,,,,,,,,,,,,,,,,,,,,,,,,,,,,,,,,,,,,,,,,,,,,,,,,,,,,,,,,,,,,,,,,,,,,,,,,,,,,,,,,,,,,,,,,,,,,,,,,,,,,,,,,,
,,58fdcd2be219d00001ee5aa0,2024-02-18_21h13.03.099,kallum_motion_pilot,2023.2.2,Win32,60.09615385,58fdcd2be219d00001ee5aa0,65d2b6c8f2eece985d8e374c,65d2b97ac365b86d27d1c715,0.1063,0.1065,1,25,187,96,1,fivesix,,,,,,,,,,,,,,,,,,,,,,,,,,,,,,,,,,,,,,,,,,,,,,,,,,,,,,,,,,,,,,,,,,,,,,,,,,,,,,,,,,,,,,,,,,,,,,,,,,,,,,,,,,,,,,,,,,,,,,,,,,,,,,,,,,,,,,,,,
,,58fdcd2be219d00001ee5aa0,2024-02-18_21h13.03.099,kallum_motion_pilot,2023.2.2,Win32,60.09615385,58fdcd2be219d00001ee5aa0,65d2b6c8f2eece985d8e374c,65d2b97ac365b86d27d1c715,0.1066,0.1068,1,26,188,60,1,threeone,,,,,,,,,,,,,,,,,,,,,,,,,,,,,,,,,,,,,,,,,,,,,,,,,,,,,,,,,,,,,,,,,,,,,,,,,,,,,,,,,,,,,,,,,,,,,,,,,,,,,,,,,,,,,,,,,,,,,,,,,,,,,,,,,,,,,,,,,
,,58fdcd2be219d00001ee5aa0,2024-02-18_21h13.03.099,kallum_motion_pilot,2023.2.2,Win32,60.09615385,58fdcd2be219d00001ee5aa0,65d2b6c8f2eece985d8e374c,65d2b97ac365b86d27d1c715,0.1069,0.1071,1,27,189,88,1,fivesix,,,,,,,,,,,,,,,,,,,,,,,,,,,,,,,,,,,,,,,,,,,,,,,,,,,,,,,,,,,,,,,,,,,,,,,,,,,,,,,,,,,,,,,,,,,,,,,,,,,,,,,,,,,,,,,,,,,,,,,,,,,,,,,,,,,,,,,,,
,,58fdcd2be219d00001ee5aa0,2024-02-18_21h13.03.099,kallum_motion_pilot,2023.2.2,Win32,60.09615385,58fdcd2be219d00001ee5aa0,65d2b6c8f2eece985d8e374c,65d2b97ac365b86d27d1c715,0.1073,0.1074,1,28,190,10,1,twoone,,,,,,,,,,,,,,,,,,,,,,,,,,,,,,,,,,,,,,,,,,,,,,,,,,,,,,,,,,,,,,,,,,,,,,,,,,,,,,,,,,,,,,,,,,,,,,,,,,,,,,,,,,,,,,,,,,,,,,,,,,,,,,,,,,,,,,,,,
,,58fdcd2be219d00001ee5aa0,2024-02-18_21h13.03.099,kallum_motion_pilot,2023.2.2,Win32,60.09615385,58fdcd2be219d00001ee5aa0,65d2b6c8f2eece985d8e374c,65d2b97ac365b86d27d1c715,0.1075,0.1077,1,29,191,128,1,fivesix,,,,,,,,,,,,,,,,,,,,,,,,,,,,,,,,,,,,,,,,,,,,,,,,,,,,,,,,,,,,,,,,,,,,,,,,,,,,,,,,,,,,,,,,,,,,,,,,,,,,,,,,,,,,,,,,,,,,,,,,,,,,,,,,,,,,,,,,,
,,58fdcd2be219d00001ee5aa0,2024-02-18_21h13.03.099,kallum_motion_pilot,2023.2.2,Win32,60.09615385,58fdcd2be219d00001ee5aa0,65d2b6c8f2eece985d8e374c,65d2b97ac365b86d27d1c715,0.1079,0.1081,1,30,192,119,1,eightseven,,,,,,,,,,,,,,,,,,,,,,,,,,,,,,,,,,,,,,,,,,,,,,,,,,,,,,,,,,,,,,,,,,,,,,,,,,,,,,,,,,,,,,,,,,,,,,,,,,,,,,,,,,,,,,,,,,,,,,,,,,,,,,,,,,,,,,,,,
,,58fdcd2be219d00001ee5aa0,2024-02-18_21h13.03.099,kallum_motion_pilot,2023.2.2,Win32,60.09615385,58fdcd2be219d00001ee5aa0,65d2b6c8f2eece985d8e374c,65d2b97ac365b86d27d1c715,0.1083,0.1084,1,31,193,65,1,onethree,,,,,,,,,,,,,,,,,,,,,,,,,,,,,,,,,,,,,,,,,,,,,,,,,,,,,,,,,,,,,,,,,,,,,,,,,,,,,,,,,,,,,,,,,,,,,,,,,,,,,,,,,,,,,,,,,,,,,,,,,,,,,,,,,,,,,,,,,
,,58fdcd2be219d00001ee5aa0,2024-02-18_21h13.03.099,kallum_motion_pilot,2023.2.2,Win32,60.09615385,58fdcd2be219d00001ee5aa0,65d2b6c8f2eece985d8e374c,65d2b97ac365b86d27d1c715,0.1085,0.1087,1,32,194,146,1,sixfive,,,,,,,,,,,,,,,,,,,,,,,,,,,,,,,,,,,,,,,,,,,,,,,,,,,,,,,,,,,,,,,,,,,,,,,,,,,,,,,,,,,,,,,,,,,,,,,,,,,,,,,,,,,,,,,,,,,,,,,,,,,,,,,,,,,,,,,,,
,,58fdcd2be219d00001ee5aa0,2024-02-18_21h13.03.099,kallum_motion_pilot,2023.2.2,Win32,60.09615385,58fdcd2be219d00001ee5aa0,65d2b6c8f2eece985d8e374c,65d2b97ac365b86d27d1c715,0.1088,0.109,1,33,195,17,1,onethree,,,,,,,,,,,,,,,,,,,,,,,,,,,,,,,,,,,,,,,,,,,,,,,,,,,,,,,,,,,,,,,,,,,,,,,,,,,,,,,,,,,,,,,,,,,,,,,,,,,,,,,,,,,,,,,,,,,,,,,,,,,,,,,,,,,,,,,,,
,,58fdcd2be219d00001ee5aa0,2024-02-18_21h13.03.099,kallum_motion_pilot,2023.2.2,Win32,60.09615385,58fdcd2be219d00001ee5aa0,65d2b6c8f2eece985d8e374c,65d2b97ac365b86d27d1c715,0.1092,0.1093,1,34,196,130,1,sixfive,,,,,,,,,,,,,,,,,,,,,,,,,,,,,,,,,,,,,,,,,,,,,,,,,,,,,,,,,,,,,,,,,,,,,,,,,,,,,,,,,,,,,,,,,,,,,,,,,,,,,,,,,,,,,,,,,,,,,,,,,,,,,,,,,,,,,,,,,
,,58fdcd2be219d00001ee5aa0,2024-02-18_21h13.03.099,kallum_motion_pilot,2023.2.2,Win32,60.09615385,58fdcd2be219d00001ee5aa0,65d2b6c8f2eece985d8e374c,65d2b97ac365b86d27d1c715,0.1095,0.1097,1,35,197,50,1,twoone,,,,,,,,,,,,,,,,,,,,,,,,,,,,,,,,,,,,,,,,,,,,,,,,,,,,,,,,,,,,,,,,,,,,,,,,,,,,,,,,,,,,,,,,,,,,,,,,,,,,,,,,,,,,,,,,,,,,,,,,,,,,,,,,,,,,,,,,,
,,58fdcd2be219d00001ee5aa0,2024-02-18_21h13.03.099,kallum_motion_pilot,2023.2.2,Win32,60.09615385,58fdcd2be219d00001ee5aa0,65d2b6c8f2eece985d8e374c,65d2b97ac365b86d27d1c715,0.1099,0.11,1,36,198,14,1,fourtwo,,,,,,,,,,,,,,,,,,,,,,,,,,,,,,,,,,,,,,,,,,,,,,,,,,,,,,,,,,,,,,,,,,,,,,,,,,,,,,,,,,,,,,,,,,,,,,,,,,,,,,,,,,,,,,,,,,,,,,,,,,,,,,,,,,,,,,,,,
,,58fdcd2be219d00001ee5aa0,2024-02-18_21h13.03.099,kallum_motion_pilot,2023.2.2,Win32,60.09615385,58fdcd2be219d00001ee5aa0,65d2b6c8f2eece985d8e374c,65d2b97ac365b86d27d1c715,0.1101,0.1103,1,37,199,145,1,fiveseven,,,,,,,,,,,,,,,,,,,,,,,,,,,,,,,,,,,,,,,,,,,,,,,,,,,,,,,,,,,,,,,,,,,,,,,,,,,,,,,,,,,,,,,,,,,,,,,,,,,,,,,,,,,,,,,,,,,,,,,,,,,,,,,,,,,,,,,,,
,,58fdcd2be219d00001ee5aa0,2024-02-18_21h13.03.099,kallum_motion_pilot,2023.2.2,Win32,60.09615385,58fdcd2be219d00001ee5aa0,65d2b6c8f2eece985d8e374c,65d2b97ac365b86d27d1c715,0.1105,0.1107,1,38,200,93,1,seveneight,,,,,,,,,,,,,,,,,,,,,,,,,,,,,,,,,,,,,,,,,,,,,,,,,,,,,,,,,,,,,,,,,,,,,,,,,,,,,,,,,,,,,,,,,,,,,,,,,,,,,,,,,,,,,,,,,,,,,,,,,,,,,,,,,,,,,,,,,
,,58fdcd2be219d00001ee5aa0,2024-02-18_21h13.03.099,kallum_motion_pilot,2023.2.2,Win32,60.09615385,58fdcd2be219d00001ee5aa0,65d2b6c8f2eece985d8e374c,65d2b97ac365b86d27d1c715,0.1108,0.111,1,39,201,63,1,fourthree,,,,,,,,,,,,,,,,,,,,,,,,,,,,,,,,,,,,,,,,,,,,,,,,,,,,,,,,,,,,,,,,,,,,,,,,,,,,,,,,,,,,,,,,,,,,,,,,,,,,,,,,,,,,,,,,,,,,,,,,,,,,,,,,,,,,,,,,,
,,58fdcd2be219d00001ee5aa0,2024-02-18_21h13.03.099,kallum_motion_pilot,2023.2.2,Win32,60.09615385,58fdcd2be219d00001ee5aa0,65d2b6c8f2eece985d8e374c,65d2b97ac365b86d27d1c715,0.1113,0.1114,1,40,202,104,1,fivesix,,,,,,,,,,,,,,,,,,,,,,,,,,,,,,,,,,,,,,,,,,,,,,,,,,,,,,,,,,,,,,,,,,,,,,,,,,,,,,,,,,,,,,,,,,,,,,,,,,,,,,,,,,,,,,,,,,,,,,,,,,,,,,,,,,,,,,,,,
,,58fdcd2be219d00001ee5aa0,2024-02-18_21h13.03.099,kallum_motion_pilot,2023.2.2,Win32,60.09615385,58fdcd2be219d00001ee5aa0,65d2b6c8f2eece985d8e374c,65d2b97ac365b86d27d1c715,0.1116,0.1118,1,41,203,113,1,fiveseven,,,,,,,,,,,,,,,,,,,,,,,,,,,,,,,,,,,,,,,,,,,,,,,,,,,,,,,,,,,,,,,,,,,,,,,,,,,,,,,,,,,,,,,,,,,,,,,,,,,,,,,,,,,,,,,,,,,,,,,,,,,,,,,,,,,,,,,,,
,,58fdcd2be219d00001ee5aa0,2024-02-18_21h13.03.099,kallum_motion_pilot,2023.2.2,Win32,60.09615385,58fdcd2be219d00001ee5aa0,65d2b6c8f2eece985d8e374c,65d2b97ac365b86d27d1c715,0.112,0.1121,1,42,204,68,1,threeone,,,,,,,,,,,,,,,,,,,,,,,,,,,,,,,,,,,,,,,,,,,,,,,,,,,,,,,,,,,,,,,,,,,,,,,,,,,,,,,,,,,,,,,,,,,,,,,,,,,,,,,,,,,,,,,,,,,,,,,,,,,,,,,,,,,,,,,,,
,,58fdcd2be219d00001ee5aa0,2024-02-18_21h13.03.099,kallum_motion_pilot,2023.2.2,Win32,60.09615385,58fdcd2be219d00001ee5aa0,65d2b6c8f2eece985d8e374c,65d2b97ac365b86d27d1c715,0.1123,0.1125,1,43,205,132,1,sevenfive,,,,,,,,,,,,,,,,,,,,,,,,,,,,,,,,,,,,,,,,,,,,,,,,,,,,,,,,,,,,,,,,,,,,,,,,,,,,,,,,,,,,,,,,,,,,,,,,,,,,,,,,,,,,,,,,,,,,,,,,,,,,,,,,,,,,,,,,,
,,58fdcd2be219d00001ee5aa0,2024-02-18_21h13.03.099,kallum_motion_pilot,2023.2.2,Win32,60.09615385,58fdcd2be219d00001ee5aa0,65d2b6c8f2eece985d8e374c,65d2b97ac365b86d27d1c715,0.1127,0.1129,1,44,206,117,1,seveneight,,,,,,,,,,,,,,,,,,,,,,,,,,,,,,,,,,,,,,,,,,,,,,,,,,,,,,,,,,,,,,,,,,,,,,,,,,,,,,,,,,,,,,,,,,,,,,,,,,,,,,,,,,,,,,,,,,,,,,,,,,,,,,,,,,,,,,,,,
,,58fdcd2be219d00001ee5aa0,2024-02-18_21h13.03.099,kallum_motion_pilot,2023.2.2,Win32,60.09615385,58fdcd2be219d00001ee5aa0,65d2b6c8f2eece985d8e374c,65d2b97ac365b86d27d1c715,0.113,0.1132,1,45,207,29,1,threefour,,,,,,,,,,,,,,,,,,,,,,,,,,,,,,,,,,,,,,,,,,,,,,,,,,,,,,,,,,,,,,,,,,,,,,,,,,,,,,,,,,,,,,,,,,,,,,,,,,,,,,,,,,,,,,,,,,,,,,,,,,,,,,,,,,,,,,,,,
,,58fdcd2be219d00001ee5aa0,2024-02-18_21h13.03.099,kallum_motion_pilot,2023.2.2,Win32,60.09615385,58fdcd2be219d00001ee5aa0,65d2b6c8f2eece985d8e374c,65d2b97ac365b86d27d1c715,0.1134,0.1135,1,46,208,13,1,threefour,,,,,,,,,,,,,,,,,,,,,,,,,,,,,,,,,,,,,,,,,,,,,,,,,,,,,,,,,,,,,,,,,,,,,,,,,,,,,,,,,,,,,,,,,,,,,,,,,,,,,,,,,,,,,,,,,,,,,,,,,,,,,,,,,,,,,,,,,
,,58fdcd2be219d00001ee5aa0,2024-02-18_21h13.03.099,kallum_motion_pilot,2023.2.2,Win32,60.09615385,58fdcd2be219d00001ee5aa0,65d2b6c8f2eece985d8e374c,65d2b97ac365b86d27d1c715,0.1137,0.1138,1,47,209,12,1,threeone,,,,,,,,,,,,,,,,,,,,,,,,,,,,,,,,,,,,,,,,,,,,,,,,,,,,,,,,,,,,,,,,,,,,,,,,,,,,,,,,,,,,,,,,,,,,,,,,,,,,,,,,,,,,,,,,,,,,,,,,,,,,,,,,,,,,,,,,,
,,58fdcd2be219d00001ee5aa0,2024-02-18_21h13.03.099,kallum_motion_pilot,2023.2.2,Win32,60.09615385,58fdcd2be219d00001ee5aa0,65d2b6c8f2eece985d8e374c,65d2b97ac365b86d27d1c715,0.1141,0.1142,1,48,210,154,1,sixfive,,,,,,,,,,,,,,,,,,,,,,,,,,,,,,,,,,,,,,,,,,,,,,,,,,,,,,,,,,,,,,,,,,,,,,,,,,,,,,,,,,,,,,,,,,,,,,,,,,,,,,,,,,,,,,,,,,,,,,,,,,,,,,,,,,,,,,,,,
,,58fdcd2be219d00001ee5aa0,2024-02-18_21h13.03.099,kallum_motion_pilot,2023.2.2,Win32,60.09615385,58fdcd2be219d00001ee5aa0,65d2b6c8f2eece985d8e374c,65d2b97ac365b86d27d1c715,0.1144,0.1146,1,49,211,49,1,onethree,,,,,,,,,,,,,,,,,,,,,,,,,,,,,,,,,,,,,,,,,,,,,,,,,,,,,,,,,,,,,,,,,,,,,,,,,,,,,,,,,,,,,,,,,,,,,,,,,,,,,,,,,,,,,,,,,,,,,,,,,,,,,,,,,,,,,,,,,
,,58fdcd2be219d00001ee5aa0,2024-02-18_21h13.03.099,kallum_motion_pilot,2023.2.2,Win32,60.09615385,58fdcd2be219d00001ee5aa0,65d2b6c8f2eece985d8e374c,65d2b97ac365b86d27d1c715,0.1148,0.1148,1,50,212,38,1,fourtwo,,,,,,,,,,,,,,,,,,,,,,,,,,,,,,,,,,,,,,,,,,,,,,,,,,,,,,,,,,,,,,,,,,,,,,,,,,,,,,,,,,,,,,,,,,,,,,,,,,,,,,,,,,,,,,,,,,,,,,,,,,,,,,,,,,,,,,,,,
,,58fdcd2be219d00001ee5aa0,2024-02-18_21h13.03.099,kallum_motion_pilot,2023.2.2,Win32,60.09615385,58fdcd2be219d00001ee5aa0,65d2b6c8f2eece985d8e374c,65d2b97ac365b86d27d1c715,0.1151,0.1152,1,51,213,90,1,sixfive,,,,,,,,,,,,,,,,,,,,,,,,,,,,,,,,,,,,,,,,,,,,,,,,,,,,,,,,,,,,,,,,,,,,,,,,,,,,,,,,,,,,,,,,,,,,,,,,,,,,,,,,,,,,,,,,,,,,,,,,,,,,,,,,,,,,,,,,,
,,58fdcd2be219d00001ee5aa0,2024-02-18_21h13.03.099,kallum_motion_pilot,2023.2.2,Win32,60.09615385,58fdcd2be219d00001ee5aa0,65d2b6c8f2eece985d8e374c,65d2b97ac365b86d27d1c715,0.1155,0.1156,1,52,214,2,1,twoone,,,,,,,,,,,,,,,,,,,,,,,,,,,,,,,,,,,,,,,,,,,,,,,,,,,,,,,,,,,,,,,,,,,,,,,,,,,,,,,,,,,,,,,,,,,,,,,,,,,,,,,,,,,,,,,,,,,,,,,,,,,,,,,,,,,,,,,,,
,,58fdcd2be219d00001ee5aa0,2024-02-18_21h13.03.099,kallum_motion_pilot,2023.2.2,Win32,60.09615385,58fdcd2be219d00001ee5aa0,65d2b6c8f2eece985d8e374c,65d2b97ac365b86d27d1c715,0.1157,0.116,1,53,215,105,1,fiveseven,,,,,,,,,,,,,,,,,,,,,,,,,,,,,,,,,,,,,,,,,,,,,,,,,,,,,,,,,,,,,,,,,,,,,,,,,,,,,,,,,,,,,,,,,,,,,,,,,,,,,,,,,,,,,,,,,,,,,,,,,,,,,,,,,,,,,,,,,
,,58fdcd2be219d00001ee5aa0,2024-02-18_21h13.03.099,kallum_motion_pilot,2023.2.2,Win32,60.09615385,58fdcd2be219d00001ee5aa0,65d2b6c8f2eece985d8e374c,65d2b97ac365b86d27d1c715,0.1161,0.1162,1,54,216,26,1,twoone,,,,,,,,,,,,,,,,,,,,,,,,,,,,,,,,,,,,,,,,,,,,,,,,,,,,,,,,,,,,,,,,,,,,,,,,,,,,,,,,,,,,,,,,,,,,,,,,,,,,,,,,,,,,,,,,,,,,,,,,,,,,,,,,,,,,,,,,,
,,58fdcd2be219d00001ee5aa0,2024-02-18_21h13.03.099,kallum_motion_pilot,2023.2.2,Win32,60.09615385,58fdcd2be219d00001ee5aa0,65d2b6c8f2eece985d8e374c,65d2b97ac365b86d27d1c715,0.1164,0.1166,1,55,217,102,1,eightsix,,,,,,,,,,,,,,,,,,,,,,,,,,,,,,,,,,,,,,,,,,,,,,,,,,,,,,,,,,,,,,,,,,,,,,,,,,,,,,,,,,,,,,,,,,,,,,,,,,,,,,,,,,,,,,,,,,,,,,,,,,,,,,,,,,,,,,,,,
,,58fdcd2be219d00001ee5aa0,2024-02-18_21h13.03.099,kallum_motion_pilot,2023.2.2,Win32,60.09615385,58fdcd2be219d00001ee5aa0,65d2b6c8f2eece985d8e374c,65d2b97ac365b86d27d1c715,0.1168,0.1169,1,56,218,25,1,onethree,,,,,,,,,,,,,,,,,,,,,,,,,,,,,,,,,,,,,,,,,,,,,,,,,,,,,,,,,,,,,,,,,,,,,,,,,,,,,,,,,,,,,,,,,,,,,,,,,,,,,,,,,,,,,,,,,,,,,,,,,,,,,,,,,,,,,,,,,
,,58fdcd2be219d00001ee5aa0,2024-02-18_21h13.03.099,kallum_motion_pilot,2023.2.2,Win32,60.09615385,58fdcd2be219d00001ee5aa0,65d2b6c8f2eece985d8e374c,65d2b97ac365b86d27d1c715,0.1171,0.1173,1,57,219,0,1,onetwo,,,,,,,,,,,,,,,,,,,,,,,,,,,,,,,,,,,,,,,,,,,,,,,,,,,,,,,,,,,,,,,,,,,,,,,,,,,,,,,,,,,,,,,,,,,,,,,,,,,,,,,,,,,,,,,,,,,,,,,,,,,,,,,,,,,,,,,,,
,,58fdcd2be219d00001ee5aa0,2024-02-18_21h13.03.099,kallum_motion_pilot,2023.2.2,Win32,60.09615385,58fdcd2be219d00001ee5aa0,65d2b6c8f2eece985d8e374c,65d2b97ac365b86d27d1c715,0.1175,0.1176,1,58,220,106,1,sixfive,,,,,,,,,,,,,,,,,,,,,,,,,,,,,,,,,,,,,,,,,,,,,,,,,,,,,,,,,,,,,,,,,,,,,,,,,,,,,,,,,,,,,,,,,,,,,,,,,,,,,,,,,,,,,,,,,,,,,,,,,,,,,,,,,,,,,,,,,
,,58fdcd2be219d00001ee5aa0,2024-02-18_21h13.03.099,kallum_motion_pilot,2023.2.2,Win32,60.09615385,58fdcd2be219d00001ee5aa0,65d2b6c8f2eece985d8e374c,65d2b97ac365b86d27d1c715,0.1177,0.1179,1,59,221,52,1,threeone,,,,,,,,,,,,,,,,,,,,,,,,,,,,,,,,,,,,,,,,,,,,,,,,,,,,,,,,,,,,,,,,,,,,,,,,,,,,,,,,,,,,,,,,,,,,,,,,,,,,,,,,,,,,,,,,,,,,,,,,,,,,,,,,,,,,,,,,,
,,58fdcd2be219d00001ee5aa0,2024-02-18_21h13.03.099,kallum_motion_pilot,2023.2.2,Win32,60.09615385,58fdcd2be219d00001ee5aa0,65d2b6c8f2eece985d8e374c,65d2b97ac365b86d27d1c715,0.1181,0.1183,1,60,222,94,1,eightsix,,,,,,,,,,,,,,,,,,,,,,,,,,,,,,,,,,,,,,,,,,,,,,,,,,,,,,,,,,,,,,,,,,,,,,,,,,,,,,,,,,,,,,,,,,,,,,,,,,,,,,,,,,,,,,,,,,,,,,,,,,,,,,,,,,,,,,,,,
,,58fdcd2be219d00001ee5aa0,2024-02-18_21h13.03.099,kallum_motion_pilot,2023.2.2,Win32,60.09615385,58fdcd2be219d00001ee5aa0,65d2b6c8f2eece985d8e374c,65d2b97ac365b86d27d1c715,0.1185,0.1186,1,61,223,9,1,onethree,,,,,,,,,,,,,,,,,,,,,,,,,,,,,,,,,,,,,,,,,,,,,,,,,,,,,,,,,,,,,,,,,,,,,,,,,,,,,,,,,,,,,,,,,,,,,,,,,,,,,,,,,,,,,,,,,,,,,,,,,,,,,,,,,,,,,,,,,
,,58fdcd2be219d00001ee5aa0,2024-02-18_21h13.03.099,kallum_motion_pilot,2023.2.2,Win32,60.09615385,58fdcd2be219d00001ee5aa0,65d2b6c8f2eece985d8e374c,65d2b97ac365b86d27d1c715,0.1189,0.119,1,62,224,41,1,onethree,,,,,,,,,,,,,,,,,,,,,,,,,,,,,,,,,,,,,,,,,,,,,,,,,,,,,,,,,,,,,,,,,,,,,,,,,,,,,,,,,,,,,,,,,,,,,,,,,,,,,,,,,,,,,,,,,,,,,,,,,,,,,,,,,,,,,,,,,
,,58fdcd2be219d00001ee5aa0,2024-02-18_21h13.03.099,kallum_motion_pilot,2023.2.2,Win32,60.09615385,58fdcd2be219d00001ee5aa0,65d2b6c8f2eece985d8e374c,65d2b97ac365b86d27d1c715,0.1192,0.1194,1,63,225,99,1,sixeight,,,,,,,,,,,,,,,,,,,,,,,,,,,,,,,,,,,,,,,,,,,,,,,,,,,,,,,,,,,,,,,,,,,,,,,,,,,,,,,,,,,,,,,,,,,,,,,,,,,,,,,,,,,,,,,,,,,,,,,,,,,,,,,,,,,,,,,,,
,,58fdcd2be219d00001ee5aa0,2024-02-18_21h13.03.099,kallum_motion_pilot,2023.2.2,Win32,60.09615385,58fdcd2be219d00001ee5aa0,65d2b6c8f2eece985d8e374c,65d2b97ac365b86d27d1c715,0.1195,0.1197,1,64,226,158,1,eightsix,,,,,,,,,,,,,,,,,,,,,,,,,,,,,,,,,,,,,,,,,,,,,,,,,,,,,,,,,,,,,,,,,,,,,,,,,,,,,,,,,,,,,,,,,,,,,,,,,,,,,,,,,,,,,,,,,,,,,,,,,,,,,,,,,,,,,,,,,
,,58fdcd2be219d00001ee5aa0,2024-02-18_21h13.03.099,kallum_motion_pilot,2023.2.2,Win32,60.09615385,58fdcd2be219d00001ee5aa0,65d2b6c8f2eece985d8e374c,65d2b97ac365b86d27d1c715,0.12,0.12,1,65,227,61,1,threefour,,,,,,,,,,,,,,,,,,,,,,,,,,,,,,,,,,,,,,,,,,,,,,,,,,,,,,,,,,,,,,,,,,,,,,,,,,,,,,,,,,,,,,,,,,,,,,,,,,,,,,,,,,,,,,,,,,,,,,,,,,,,,,,,,,,,,,,,,
,,58fdcd2be219d00001ee5aa0,2024-02-18_21h13.03.099,kallum_motion_pilot,2023.2.2,Win32,60.09615385,58fdcd2be219d00001ee5aa0,65d2b6c8f2eece985d8e374c,65d2b97ac365b86d27d1c715,0.1203,0.1204,1,66,228,140,1,sevenfive,,,,,,,,,,,,,,,,,,,,,,,,,,,,,,,,,,,,,,,,,,,,,,,,,,,,,,,,,,,,,,,,,,,,,,,,,,,,,,,,,,,,,,,,,,,,,,,,,,,,,,,,,,,,,,,,,,,,,,,,,,,,,,,,,,,,,,,,,
,,58fdcd2be219d00001ee5aa0,2024-02-18_21h13.03.099,kallum_motion_pilot,2023.2.2,Win32,60.09615385,58fdcd2be219d00001ee5aa0,65d2b6c8f2eece985d8e374c,65d2b97ac365b86d27d1c715,0.1208,0.1209,1,67,229,147,1,sixeight,,,,,,,,,,,,,,,,,,,,,,,,,,,,,,,,,,,,,,,,,,,,,,,,,,,,,,,,,,,,,,,,,,,,,,,,,,,,,,,,,,,,,,,,,,,,,,,,,,,,,,,,,,,,,,,,,,,,,,,,,,,,,,,,,,,,,,,,,
,,58fdcd2be219d00001ee5aa0,2024-02-18_21h13.03.099,kallum_motion_pilot,2023.2.2,Win32,60.09615385,58fdcd2be219d00001ee5aa0,65d2b6c8f2eece985d8e374c,65d2b97ac365b86d27d1c715,0.1212,0.1213,1,68,230,23,1,fourthree,,,,,,,,,,,,,,,,,,,,,,,,,,,,,,,,,,,,,,,,,,,,,,,,,,,,,,,,,,,,,,,,,,,,,,,,,,,,,,,,,,,,,,,,,,,,,,,,,,,,,,,,,,,,,,,,,,,,,,,,,,,,,,,,,,,,,,,,,
,,58fdcd2be219d00001ee5aa0,2024-02-18_21h13.03.099,kallum_motion_pilot,2023.2.2,Win32,60.09615385,58fdcd2be219d00001ee5aa0,65d2b6c8f2eece985d8e374c,65d2b97ac365b86d27d1c715,0.1215,0.1216,1,69,231,75,1,twofour,,,,,,,,,,,,,,,,,,,,,,,,,,,,,,,,,,,,,,,,,,,,,,,,,,,,,,,,,,,,,,,,,,,,,,,,,,,,,,,,,,,,,,,,,,,,,,,,,,,,,,,,,,,,,,,,,,,,,,,,,,,,,,,,,,,,,,,,,
,,58fdcd2be219d00001ee5aa0,2024-02-18_21h13.03.099,kallum_motion_pilot,2023.2.2,Win32,60.09615385,58fdcd2be219d00001ee5aa0,65d2b6c8f2eece985d8e374c,65d2b97ac365b86d27d1c715,0.1219,0.122,1,70,232,123,1,sixeight,,,,,,,,,,,,,,,,,,,,,,,,,,,,,,,,,,,,,,,,,,,,,,,,,,,,,,,,,,,,,,,,,,,,,,,,,,,,,,,,,,,,,,,,,,,,,,,,,,,,,,,,,,,,,,,,,,,,,,,,,,,,,,,,,,,,,,,,,
,,58fdcd2be219d00001ee5aa0,2024-02-18_21h13.03.099,kallum_motion_pilot,2023.2.2,Win32,60.09615385,58fdcd2be219d00001ee5aa0,65d2b6c8f2eece985d8e374c,65d2b97ac365b86d27d1c715,0.1222,0.1224,1,71,233,127,1,eightseven,,,,,,,,,,,,,,,,,,,,,,,,,,,,,,,,,,,,,,,,,,,,,,,,,,,,,,,,,,,,,,,,,,,,,,,,,,,,,,,,,,,,,,,,,,,,,,,,,,,,,,,,,,,,,,,,,,,,,,,,,,,,,,,,,,,,,,,,,
,,58fdcd2be219d00001ee5aa0,2024-02-18_21h13.03.099,kallum_motion_pilot,2023.2.2,Win32,60.09615385,58fdcd2be219d00001ee5aa0,65d2b6c8f2eece985d8e374c,65d2b97ac365b86d27d1c715,0.1226,0.1227,1,72,234,34,1,twoone,,,,,,,,,,,,,,,,,,,,,,,,,,,,,,,,,,,,,,,,,,,,,,,,,,,,,,,,,,,,,,,,,,,,,,,,,,,,,,,,,,,,,,,,,,,,,,,,,,,,,,,,,,,,,,,,,,,,,,,,,,,,,,,,,,,,,,,,,
,,58fdcd2be219d00001ee5aa0,2024-02-18_21h13.03.099,kallum_motion_pilot,2023.2.2,Win32,60.09615385,58fdcd2be219d00001ee5aa0,65d2b6c8f2eece985d8e374c,65d2b97ac365b86d27d1c715,0.1229,0.123,1,73,235,141,1,seveneight,,,,,,,,,,,,,,,,,,,,,,,,,,,,,,,,,,,,,,,,,,,,,,,,,,,,,,,,,,,,,,,,,,,,,,,,,,,,,,,,,,,,,,,,,,,,,,,,,,,,,,,,,,,,,,,,,,,,,,,,,,,,,,,,,,,,,,,,,
,,58fdcd2be219d00001ee5aa0,2024-02-18_21h13.03.099,kallum_motion_pilot,2023.2.2,Win32,60.09615385,58fdcd2be219d00001ee5aa0,65d2b6c8f2eece985d8e374c,65d2b97ac365b86d27d1c715,0.1233,0.1235,1,74,236,46,1,fourtwo,,,,,,,,,,,,,,,,,,,,,,,,,,,,,,,,,,,,,,,,,,,,,,,,,,,,,,,,,,,,,,,,,,,,,,,,,,,,,,,,,,,,,,,,,,,,,,,,,,,,,,,,,,,,,,,,,,,,,,,,,,,,,,,,,,,,,,,,,
,,58fdcd2be219d00001ee5aa0,2024-02-18_21h13.03.099,kallum_motion_pilot,2023.2.2,Win32,60.09615385,58fdcd2be219d00001ee5aa0,65d2b6c8f2eece985d8e374c,65d2b97ac365b86d27d1c715,0.1236,0.1238,1,75,237,134,1,eightsix,,,,,,,,,,,,,,,,,,,,,,,,,,,,,,,,,,,,,,,,,,,,,,,,,,,,,,,,,,,,,,,,,,,,,,,,,,,,,,,,,,,,,,,,,,,,,,,,,,,,,,,,,,,,,,,,,,,,,,,,,,,,,,,,,,,,,,,,,
,,58fdcd2be219d00001ee5aa0,2024-02-18_21h13.03.099,kallum_motion_pilot,2023.2.2,Win32,60.09615385,58fdcd2be219d00001ee5aa0,65d2b6c8f2eece985d8e374c,65d2b97ac365b86d27d1c715,0.124,0.1241,1,76,238,40,1,onetwo,,,,,,,,,,,,,,,,,,,,,,,,,,,,,,,,,,,,,,,,,,,,,,,,,,,,,,,,,,,,,,,,,,,,,,,,,,,,,,,,,,,,,,,,,,,,,,,,,,,,,,,,,,,,,,,,,,,,,,,,,,,,,,,,,,,,,,,,,
,,58fdcd2be219d00001ee5aa0,2024-02-18_21h13.03.099,kallum_motion_pilot,2023.2.2,Win32,60.09615385,58fdcd2be219d00001ee5aa0,65d2b6c8f2eece985d8e374c,65d2b97ac365b86d27d1c715,0.1244,0.1246,1,77,239,45,1,threefour,,,,,,,,,,,,,,,,,,,,,,,,,,,,,,,,,,,,,,,,,,,,,,,,,,,,,,,,,,,,,,,,,,,,,,,,,,,,,,,,,,,,,,,,,,,,,,,,,,,,,,,,,,,,,,,,,,,,,,,,,,,,,,,,,,,,,,,,,
,,58fdcd2be219d00001ee5aa0,2024-02-18_21h13.03.099,kallum_motion_pilot,2023.2.2,Win32,60.09615385,58fdcd2be219d00001ee5aa0,65d2b6c8f2eece985d8e374c,65d2b97ac365b86d27d1c715,0.1248,0.1249,1,78,240,133,1,seveneight,,,,,,,,,,,,,,,,,,,,,,,,,,,,,,,,,,,,,,,,,,,,,,,,,,,,,,,,,,,,,,,,,,,,,,,,,,,,,,,,,,,,,,,,,,,,,,,,,,,,,,,,,,,,,,,,,,,,,,,,,,,,,,,,,,,,,,,,,
,,58fdcd2be219d00001ee5aa0,2024-02-18_21h13.03.099,kallum_motion_pilot,2023.2.2,Win32,60.09615385,58fdcd2be219d00001ee5aa0,65d2b6c8f2eece985d8e374c,65d2b97ac365b86d27d1c715,0.1251,0.1253,1,79,241,152,1,fivesix,,,,,,,,,,,,,,,,,,,,,,,,,,,,,,,,,,,,,,,,,,,,,,,,,,,,,,,,,,,,,,,,,,,,,,,,,,,,,,,,,,,,,,,,,,,,,,,,,,,,,,,,,,,,,,,,,,,,,,,,,,,,,,,,,,,,,,,,,
,,58fdcd2be219d00001ee5aa0,2024-02-18_21h13.03.099,kallum_motion_pilot,2023.2.2,Win32,60.09615385,58fdcd2be219d00001ee5aa0,65d2b6c8f2eece985d8e374c,65d2b97ac365b86d27d1c715,0.1254,0.1256,1,80,242,101,1,seveneight,,,,,,,,,,,,,,,,,,,,,,,,,,,,,,,,,,,,,,,,,,,,,,,,,,,,,,,,,,,,,,,,,,,,,,,,,,,,,,,,,,,,,,,,,,,,,,,,,,,,,,,,,,,,,,,,,,,,,,,,,,,,,,,,,,,,,,,,,
,,58fdcd2be219d00001ee5aa0,2024-02-18_21h13.03.099,kallum_motion_pilot,2023.2.2,Win32,60.09615385,58fdcd2be219d00001ee5aa0,65d2b6c8f2eece985d8e374c,65d2b97ac365b86d27d1c715,0.1259,0.126,1,81,243,69,1,threefour,,,,,,,,,,,,,,,,,,,,,,,,,,,,,,,,,,,,,,,,,,,,,,,,,,,,,,,,,,,,,,,,,,,,,,,,,,,,,,,,,,,,,,,,,,,,,,,,,,,,,,,,,,,,,,,,,,,,,,,,,,,,,,,,,,,,,,,,,
,,58fdcd2be219d00001ee5aa0,2024-02-18_21h13.03.099,kallum_motion_pilot,2023.2.2,Win32,60.09615385,58fdcd2be219d00001ee5aa0,65d2b6c8f2eece985d8e374c,65d2b97ac365b86d27d1c715,0.1262,0.1263,1,82,244,11,1,twofour,,,,,,,,,,,,,,,,,,,,,,,,,,,,,,,,,,,,,,,,,,,,,,,,,,,,,,,,,,,,,,,,,,,,,,,,,,,,,,,,,,,,,,,,,,,,,,,,,,,,,,,,,,,,,,,,,,,,,,,,,,,,,,,,,,,,,,,,,
,,58fdcd2be219d00001ee5aa0,2024-02-18_21h13.03.099,kallum_motion_pilot,2023.2.2,Win32,60.09615385,58fdcd2be219d00001ee5aa0,65d2b6c8f2eece985d8e374c,65d2b97ac365b86d27d1c715,0.1265,0.1267,1,83,245,111,1,eightseven,,,,,,,,,,,,,,,,,,,,,,,,,,,,,,,,,,,,,,,,,,,,,,,,,,,,,,,,,,,,,,,,,,,,,,,,,,,,,,,,,,,,,,,,,,,,,,,,,,,,,,,,,,,,,,,,,,,,,,,,,,,,,,,,,,,,,,,,,
,,58fdcd2be219d00001ee5aa0,2024-02-18_21h13.03.099,kallum_motion_pilot,2023.2.2,Win32,60.09615385,58fdcd2be219d00001ee5aa0,65d2b6c8f2eece985d8e374c,65d2b97ac365b86d27d1c715,0.1268,0.127,1,84,246,103,1,eightseven,,,,,,,,,,,,,,,,,,,,,,,,,,,,,,,,,,,,,,,,,,,,,,,,,,,,,,,,,,,,,,,,,,,,,,,,,,,,,,,,,,,,,,,,,,,,,,,,,,,,,,,,,,,,,,,,,,,,,,,,,,,,,,,,,,,,,,,,,
,,58fdcd2be219d00001ee5aa0,2024-02-18_21h13.03.099,kallum_motion_pilot,2023.2.2,Win32,60.09615385,58fdcd2be219d00001ee5aa0,65d2b6c8f2eece985d8e374c,65d2b97ac365b86d27d1c715,0.1272,0.1274,1,85,247,39,1,fourthree,,,,,,,,,,,,,,,,,,,,,,,,,,,,,,,,,,,,,,,,,,,,,,,,,,,,,,,,,,,,,,,,,,,,,,,,,,,,,,,,,,,,,,,,,,,,,,,,,,,,,,,,,,,,,,,,,,,,,,,,,,,,,,,,,,,,,,,,,
,,58fdcd2be219d00001ee5aa0,2024-02-18_21h13.03.099,kallum_motion_pilot,2023.2.2,Win32,60.09615385,58fdcd2be219d00001ee5aa0,65d2b6c8f2eece985d8e374c,65d2b97ac365b86d27d1c715,0.1275,0.1278,1,86,248,18,1,twoone,,,,,,,,,,,,,,,,,,,,,,,,,,,,,,,,,,,,,,,,,,,,,,,,,,,,,,,,,,,,,,,,,,,,,,,,,,,,,,,,,,,,,,,,,,,,,,,,,,,,,,,,,,,,,,,,,,,,,,,,,,,,,,,,,,,,,,,,,
,,58fdcd2be219d00001ee5aa0,2024-02-18_21h13.03.099,kallum_motion_pilot,2023.2.2,Win32,60.09615385,58fdcd2be219d00001ee5aa0,65d2b6c8f2eece985d8e374c,65d2b97ac365b86d27d1c715,0.1279,0.1281,1,87,249,89,1,fiveseven,,,,,,,,,,,,,,,,,,,,,,,,,,,,,,,,,,,,,,,,,,,,,,,,,,,,,,,,,,,,,,,,,,,,,,,,,,,,,,,,,,,,,,,,,,,,,,,,,,,,,,,,,,,,,,,,,,,,,,,,,,,,,,,,,,,,,,,,,
,,58fdcd2be219d00001ee5aa0,2024-02-18_21h13.03.099,kallum_motion_pilot,2023.2.2,Win32,60.09615385,58fdcd2be219d00001ee5aa0,65d2b6c8f2eece985d8e374c,65d2b97ac365b86d27d1c715,0.1284,0.1285,1,88,250,67,1,twofour,,,,,,,,,,,,,,,,,,,,,,,,,,,,,,,,,,,,,,,,,,,,,,,,,,,,,,,,,,,,,,,,,,,,,,,,,,,,,,,,,,,,,,,,,,,,,,,,,,,,,,,,,,,,,,,,,,,,,,,,,,,,,,,,,,,,,,,,,
,,58fdcd2be219d00001ee5aa0,2024-02-18_21h13.03.099,kallum_motion_pilot,2023.2.2,Win32,60.09615385,58fdcd2be219d00001ee5aa0,65d2b6c8f2eece985d8e374c,65d2b97ac365b86d27d1c715,0.1288,0.129,1,89,251,19,1,twofour,,,,,,,,,,,,,,,,,,,,,,,,,,,,,,,,,,,,,,,,,,,,,,,,,,,,,,,,,,,,,,,,,,,,,,,,,,,,,,,,,,,,,,,,,,,,,,,,,,,,,,,,,,,,,,,,,,,,,,,,,,,,,,,,,,,,,,,,,
,,58fdcd2be219d00001ee5aa0,2024-02-18_21h13.03.099,kallum_motion_pilot,2023.2.2,Win32,60.09615385,58fdcd2be219d00001ee5aa0,65d2b6c8f2eece985d8e374c,65d2b97ac365b86d27d1c715,0.1291,0.1294,1,90,252,142,1,eightsix,,,,,,,,,,,,,,,,,,,,,,,,,,,,,,,,,,,,,,,,,,,,,,,,,,,,,,,,,,,,,,,,,,,,,,,,,,,,,,,,,,,,,,,,,,,,,,,,,,,,,,,,,,,,,,,,,,,,,,,,,,,,,,,,,,,,,,,,,
,,58fdcd2be219d00001ee5aa0,2024-02-18_21h13.03.099,kallum_motion_pilot,2023.2.2,Win32,60.09615385,58fdcd2be219d00001ee5aa0,65d2b6c8f2eece985d8e374c,65d2b97ac365b86d27d1c715,0.1296,0.1297,1,91,253,109,1,seveneight,,,,,,,,,,,,,,,,,,,,,,,,,,,,,,,,,,,,,,,,,,,,,,,,,,,,,,,,,,,,,,,,,,,,,,,,,,,,,,,,,,,,,,,,,,,,,,,,,,,,,,,,,,,,,,,,,,,,,,,,,,,,,,,,,,,,,,,,,
,,58fdcd2be219d00001ee5aa0,2024-02-18_21h13.03.099,kallum_motion_pilot,2023.2.2,Win32,60.09615385,58fdcd2be219d00001ee5aa0,65d2b6c8f2eece985d8e374c,65d2b97ac365b86d27d1c715,0.1299,0.1302,1,92,254,116,1,sevenfive,,,,,,,,,,,,,,,,,,,,,,,,,,,,,,,,,,,,,,,,,,,,,,,,,,,,,,,,,,,,,,,,,,,,,,,,,,,,,,,,,,,,,,,,,,,,,,,,,,,,,,,,,,,,,,,,,,,,,,,,,,,,,,,,,,,,,,,,,
,,58fdcd2be219d00001ee5aa0,2024-02-18_21h13.03.099,kallum_motion_pilot,2023.2.2,Win32,60.09615385,58fdcd2be219d00001ee5aa0,65d2b6c8f2eece985d8e374c,65d2b97ac365b86d27d1c715,0.1303,0.1305,1,93,255,73,1,onethree,,,,,,,,,,,,,,,,,,,,,,,,,,,,,,,,,,,,,,,,,,,,,,,,,,,,,,,,,,,,,,,,,,,,,,,,,,,,,,,,,,,,,,,,,,,,,,,,,,,,,,,,,,,,,,,,,,,,,,,,,,,,,,,,,,,,,,,,,
,,58fdcd2be219d00001ee5aa0,2024-02-18_21h13.03.099,kallum_motion_pilot,2023.2.2,Win32,60.09615385,58fdcd2be219d00001ee5aa0,65d2b6c8f2eece985d8e374c,65d2b97ac365b86d27d1c715,0.1307,0.1309,1,94,256,118,1,eightsix,,,,,,,,,,,,,,,,,,,,,,,,,,,,,,,,,,,,,,,,,,,,,,,,,,,,,,,,,,,,,,,,,,,,,,,,,,,,,,,,,,,,,,,,,,,,,,,,,,,,,,,,,,,,,,,,,,,,,,,,,,,,,,,,,,,,,,,,,
,,58fdcd2be219d00001ee5aa0,2024-02-18_21h13.03.099,kallum_motion_pilot,2023.2.2,Win32,60.09615385,58fdcd2be219d00001ee5aa0,65d2b6c8f2eece985d8e374c,65d2b97ac365b86d27d1c715,0.1311,0.1313,1,95,257,81,1,fiveseven,,,,,,,,,,,,,,,,,,,,,,,,,,,,,,,,,,,,,,,,,,,,,,,,,,,,,,,,,,,,,,,,,,,,,,,,,,,,,,,,,,,,,,,,,,,,,,,,,,,,,,,,,,,,,,,,,,,,,,,,,,,,,,,,,,,,,,,,,
,,58fdcd2be219d00001ee5aa0,2024-02-18_21h13.03.099,kallum_motion_pilot,2023.2.2,Win32,60.09615385,58fdcd2be219d00001ee5aa0,65d2b6c8f2eece985d8e374c,65d2b97ac365b86d27d1c715,0.1315,0.1317,1,96,258,20,1,threeone,,,,,,,,,,,,,,,,,,,,,,,,,,,,,,,,,,,,,,,,,,,,,,,,,,,,,,,,,,,,,,,,,,,,,,,,,,,,,,,,,,,,,,,,,,,,,,,,,,,,,,,,,,,,,,,,,,,,,,,,,,,,,,,,,,,,,,,,,
,,58fdcd2be219d00001ee5aa0,2024-02-18_21h13.03.099,kallum_motion_pilot,2023.2.2,Win32,60.09615385,58fdcd2be219d00001ee5aa0,65d2b6c8f2eece985d8e374c,65d2b97ac365b86d27d1c715,0.1319,0.132,1,97,259,100,1,sevenfive,,,,,,,,,,,,,,,,,,,,,,,,,,,,,,,,,,,,,,,,,,,,,,,,,,,,,,,,,,,,,,,,,,,,,,,,,,,,,,,,,,,,,,,,,,,,,,,,,,,,,,,,,,,,,,,,,,,,,,,,,,,,,,,,,,,,,,,,,
,,58fdcd2be219d00001ee5aa0,2024-02-18_21h13.03.099,kallum_motion_pilot,2023.2.2,Win32,60.09615385,58fdcd2be219d00001ee5aa0,65d2b6c8f2eece985d8e374c,65d2b97ac365b86d27d1c715,0.1323,0.1325,1,98,260,159,1,eightseven,,,,,,,,,,,,,,,,,,,,,,,,,,,,,,,,,,,,,,,,,,,,,,,,,,,,,,,,,,,,,,,,,,,,,,,,,,,,,,,,,,,,,,,,,,,,,,,,,,,,,,,,,,,,,,,,,,,,,,,,,,,,,,,,,,,,,,,,,
,,58fdcd2be219d00001ee5aa0,2024-02-18_21h13.03.099,kallum_motion_pilot,2023.2.2,Win32,60.09615385,58fdcd2be219d00001ee5aa0,65d2b6c8f2eece985d8e374c,65d2b97ac365b86d27d1c715,0.1327,0.1328,1,99,261,138,1,sixfive,,,,,,,,,,,,,,,,,,,,,,,,,,,,,,,,,,,,,,,,,,,,,,,,,,,,,,,,,,,,,,,,,,,,,,,,,,,,,,,,,,,,,,,,,,,,,,,,,,,,,,,,,,,,,,,,,,,,,,,,,,,,,,,,,,,,,,,,,
,,58fdcd2be219d00001ee5aa0,2024-02-18_21h13.03.099,kallum_motion_pilot,2023.2.2,Win32,60.09615385,58fdcd2be219d00001ee5aa0,65d2b6c8f2eece985d8e374c,65d2b97ac365b86d27d1c715,0.133,0.1333,1,100,262,6,1,fourtwo,,,,,,,,,,,,,,,,,,,,,,,,,,,,,,,,,,,,,,,,,,,,,,,,,,,,,,,,,,,,,,,,,,,,,,,,,,,,,,,,,,,,,,,,,,,,,,,,,,,,,,,,,,,,,,,,,,,,,,,,,,,,,,,,,,,,,,,,,
,,58fdcd2be219d00001ee5aa0,2024-02-18_21h13.03.099,kallum_motion_pilot,2023.2.2,Win32,60.09615385,58fdcd2be219d00001ee5aa0,65d2b6c8f2eece985d8e374c,65d2b97ac365b86d27d1c715,0.1335,0.1336,1,101,263,44,1,threeone,,,,,,,,,,,,,,,,,,,,,,,,,,,,,,,,,,,,,,,,,,,,,,,,,,,,,,,,,,,,,,,,,,,,,,,,,,,,,,,,,,,,,,,,,,,,,,,,,,,,,,,,,,,,,,,,,,,,,,,,,,,,,,,,,,,,,,,,,
,,58fdcd2be219d00001ee5aa0,2024-02-18_21h13.03.099,kallum_motion_pilot,2023.2.2,Win32,60.09615385,58fdcd2be219d00001ee5aa0,65d2b6c8f2eece985d8e374c,65d2b97ac365b86d27d1c715,0.1338,0.134,1,102,264,79,1,eightseven,,,,,,,,,,,,,,,,,,,,,,,,,,,,,,,,,,,,,,,,,,,,,,,,,,,,,,,,,,,,,,,,,,,,,,,,,,,,,,,,,,,,,,,,,,,,,,,,,,,,,,,,,,,,,,,,,,,,,,,,,,,,,,,,,,,,,,,,,
,,58fdcd2be219d00001ee5aa0,2024-02-18_21h13.03.099,kallum_motion_pilot,2023.2.2,Win32,60.09615385,58fdcd2be219d00001ee5aa0,65d2b6c8f2eece985d8e374c,65d2b97ac365b86d27d1c715,0.1341,0.1343,1,103,265,131,1,sixeight,,,,,,,,,,,,,,,,,,,,,,,,,,,,,,,,,,,,,,,,,,,,,,,,,,,,,,,,,,,,,,,,,,,,,,,,,,,,,,,,,,,,,,,,,,,,,,,,,,,,,,,,,,,,,,,,,,,,,,,,,,,,,,,,,,,,,,,,,
,,58fdcd2be219d00001ee5aa0,2024-02-18_21h13.03.099,kallum_motion_pilot,2023.2.2,Win32,60.09615385,58fdcd2be219d00001ee5aa0,65d2b6c8f2eece985d8e374c,65d2b97ac365b86d27d1c715,0.1346,0.1347,1,104,266,157,1,seveneight,,,,,,,,,,,,,,,,,,,,,,,,,,,,,,,,,,,,,,,,,,,,,,,,,,,,,,,,,,,,,,,,,,,,,,,,,,,,,,,,,,,,,,,,,,,,,,,,,,,,,,,,,,,,,,,,,,,,,,,,,,,,,,,,,,,,,,,,,
,,58fdcd2be219d00001ee5aa0,2024-02-18_21h13.03.099,kallum_motion_pilot,2023.2.2,Win32,60.09615385,58fdcd2be219d00001ee5aa0,65d2b6c8f2eece985d8e374c,65d2b97ac365b86d27d1c715,0.1349,0.135,1,105,267,7,1,fourthree,,,,,,,,,,,,,,,,,,,,,,,,,,,,,,,,,,,,,,,,,,,,,,,,,,,,,,,,,,,,,,,,,,,,,,,,,,,,,,,,,,,,,,,,,,,,,,,,,,,,,,,,,,,,,,,,,,,,,,,,,,,,,,,,,,,,,,,,,
,,58fdcd2be219d00001ee5aa0,2024-02-18_21h13.03.099,kallum_motion_pilot,2023.2.2,Win32,60.09615385,58fdcd2be219d00001ee5aa0,65d2b6c8f2eece985d8e374c,65d2b97ac365b86d27d1c715,0.1352,0.1354,1,106,268,92,1,sevenfive,,,,,,,,,,,,,,,,,,,,,,,,,,,,,,,,,,,,,,,,,,,,,,,,,,,,,,,,,,,,,,,,,,,,,,,,,,,,,,,,,,,,,,,,,,,,,,,,,,,,,,,,,,,,,,,,,,,,,,,,,,,,,,,,,,,,,,,,,
,,58fdcd2be219d00001ee5aa0,2024-02-18_21h13.03.099,kallum_motion_pilot,2023.2.2,Win32,60.09615385,58fdcd2be219d00001ee5aa0,65d2b6c8f2eece985d8e374c,65d2b97ac365b86d27d1c715,0.1356,0.1358,1,107,269,122,1,sixfive,,,,,,,,,,,,,,,,,,,,,,,,,,,,,,,,,,,,,,,,,,,,,,,,,,,,,,,,,,,,,,,,,,,,,,,,,,,,,,,,,,,,,,,,,,,,,,,,,,,,,,,,,,,,,,,,,,,,,,,,,,,,,,,,,,,,,,,,,
,,58fdcd2be219d00001ee5aa0,2024-02-18_21h13.03.099,kallum_motion_pilot,2023.2.2,Win32,60.09615385,58fdcd2be219d00001ee5aa0,65d2b6c8f2eece985d8e374c,65d2b97ac365b86d27d1c715,0.136,0.1362,1,108,270,124,1,sevenfive,,,,,,,,,,,,,,,,,,,,,,,,,,,,,,,,,,,,,,,,,,,,,,,,,,,,,,,,,,,,,,,,,,,,,,,,,,,,,,,,,,,,,,,,,,,,,,,,,,,,,,,,,,,,,,,,,,,,,,,,,,,,,,,,,,,,,,,,,
,,58fdcd2be219d00001ee5aa0,2024-02-18_21h13.03.099,kallum_motion_pilot,2023.2.2,Win32,60.09615385,58fdcd2be219d00001ee5aa0,65d2b6c8f2eece985d8e374c,65d2b97ac365b86d27d1c715,0.1363,0.1366,1,109,271,97,1,fiveseven,,,,,,,,,,,,,,,,,,,,,,,,,,,,,,,,,,,,,,,,,,,,,,,,,,,,,,,,,,,,,,,,,,,,,,,,,,,,,,,,,,,,,,,,,,,,,,,,,,,,,,,,,,,,,,,,,,,,,,,,,,,,,,,,,,,,,,,,,
,,58fdcd2be219d00001ee5aa0,2024-02-18_21h13.03.099,kallum_motion_pilot,2023.2.2,Win32,60.09615385,58fdcd2be219d00001ee5aa0,65d2b6c8f2eece985d8e374c,65d2b97ac365b86d27d1c715,0.1368,0.1369,1,110,272,58,1,twoone,,,,,,,,,,,,,,,,,,,,,,,,,,,,,,,,,,,,,,,,,,,,,,,,,,,,,,,,,,,,,,,,,,,,,,,,,,,,,,,,,,,,,,,,,,,,,,,,,,,,,,,,,,,,,,,,,,,,,,,,,,,,,,,,,,,,,,,,,
,,58fdcd2be219d00001ee5aa0,2024-02-18_21h13.03.099,kallum_motion_pilot,2023.2.2,Win32,60.09615385,58fdcd2be219d00001ee5aa0,65d2b6c8f2eece985d8e374c,65d2b97ac365b86d27d1c715,0.1372,0.1374,1,111,273,5,1,threefour,,,,,,,,,,,,,,,,,,,,,,,,,,,,,,,,,,,,,,,,,,,,,,,,,,,,,,,,,,,,,,,,,,,,,,,,,,,,,,,,,,,,,,,,,,,,,,,,,,,,,,,,,,,,,,,,,,,,,,,,,,,,,,,,,,,,,,,,,
,,58fdcd2be219d00001ee5aa0,2024-02-18_21h13.03.099,kallum_motion_pilot,2023.2.2,Win32,60.09615385,58fdcd2be219d00001ee5aa0,65d2b6c8f2eece985d8e374c,65d2b97ac365b86d27d1c715,0.1376,0.1378,1,112,274,3,1,twofour,,,,,,,,,,,,,,,,,,,,,,,,,,,,,,,,,,,,,,,,,,,,,,,,,,,,,,,,,,,,,,,,,,,,,,,,,,,,,,,,,,,,,,,,,,,,,,,,,,,,,,,,,,,,,,,,,,,,,,,,,,,,,,,,,,,,,,,,,
,,58fdcd2be219d00001ee5aa0,2024-02-18_21h13.03.099,kallum_motion_pilot,2023.2.2,Win32,60.09615385,58fdcd2be219d00001ee5aa0,65d2b6c8f2eece985d8e374c,65d2b97ac365b86d27d1c715,0.138,0.1382,1,113,275,28,1,threeone,,,,,,,,,,,,,,,,,,,,,,,,,,,,,,,,,,,,,,,,,,,,,,,,,,,,,,,,,,,,,,,,,,,,,,,,,,,,,,,,,,,,,,,,,,,,,,,,,,,,,,,,,,,,,,,,,,,,,,,,,,,,,,,,,,,,,,,,,
,,58fdcd2be219d00001ee5aa0,2024-02-18_21h13.03.099,kallum_motion_pilot,2023.2.2,Win32,60.09615385,58fdcd2be219d00001ee5aa0,65d2b6c8f2eece985d8e374c,65d2b97ac365b86d27d1c715,0.1384,0.1386,1,114,276,33,1,onethree,,,,,,,,,,,,,,,,,,,,,,,,,,,,,,,,,,,,,,,,,,,,,,,,,,,,,,,,,,,,,,,,,,,,,,,,,,,,,,,,,,,,,,,,,,,,,,,,,,,,,,,,,,,,,,,,,,,,,,,,,,,,,,,,,,,,,,,,,
,,58fdcd2be219d00001ee5aa0,2024-02-18_21h13.03.099,kallum_motion_pilot,2023.2.2,Win32,60.09615385,58fdcd2be219d00001ee5aa0,65d2b6c8f2eece985d8e374c,65d2b97ac365b86d27d1c715,0.1387,0.139,1,115,277,153,1,fiveseven,,,,,,,,,,,,,,,,,,,,,,,,,,,,,,,,,,,,,,,,,,,,,,,,,,,,,,,,,,,,,,,,,,,,,,,,,,,,,,,,,,,,,,,,,,,,,,,,,,,,,,,,,,,,,,,,,,,,,,,,,,,,,,,,,,,,,,,,,
