startup.started,startup.stopped,Prolific ID*,date,expName,psychopyVersion,OS,frameRate,participant,study_id,session,stimpositions.started,stimpositions.stopped,hardcoded_stimulus_positions.thisRepN,hardcoded_stimulus_positions.thisTrialN,hardcoded_stimulus_positions.thisN,hardcoded_stimulus_positions.thisIndex,hardcoded_stimulus_positions.ran,StimulusPos,stimorientation.started,stimorientation.stopped,prac_stimorientation_import_loop.thisRepN,prac_stimorientation_import_loop.thisTrialN,prac_stimorientation_import_loop.thisN,prac_stimorientation_import_loop.thisIndex,prac_stimorientation_import_loop.ran,Stimorientation,welcome_instr.started,welcome_instr.stopped,key_resp.keys,key_resp.rt,key_resp.duration,response_steppedout_1.started,response_steppedout_1.stopped,key_resp_20.keys,key_resp_20.rt,key_resp_20.duration,response_steppedout_2.started,response_steppedout_2.stopped,key_resp_19.keys,key_resp_19.rt,key_resp_19.duration,stim_response_instr.started,stim_response_instr.stopped,key_resp_15.keys,key_resp_15.rt,key_resp_15.duration,direction_instr_2.started,direction_instr_2.stopped,key_resp_9.keys,key_resp_9.rt,key_resp_9.duration,instr_prac.started,instr_prac.stopped,key_resp_10.keys,key_resp_10.rt,key_resp_10.duration,Stim1_display_prac.started,Stim1_display_prac.stopped,Ecc,Circle1_ori,Circle2_ori,response_prac.started,similarity,response_time,response_prac.stopped,mouse_5.x,mouse_5.y,mouse_5.leftButton,mouse_5.midButton,mouse_5.rightButton,mouse_5.clicked_name,responseprac_feedback.started,responseprac_feedback.stopped,summary2_prac.started,summary2_prac.stopped,mouse_6.x,mouse_6.y,mouse_6.leftButton,mouse_6.midButton,mouse_6.rightButton,mouse_6.clicked_name,duringprac.thisRepN,duringprac.thisTrialN,duringprac.thisN,duringprac.thisIndex,duringprac.ran,begin.started,begin.stopped,key_resp_22.keys,key_resp_22.rt,key_resp_22.duration,Stim1_display.started,Stim1_display.stopped,circle1_ori,circle2_ori,circle1_SF,circle2_SF,response.started,response.stopped,mouse.x,mouse.y,mouse.leftButton,mouse.midButton,mouse.rightButton,mouse.clicked_name,trialnumber,double_pass.thisRepN,double_pass.thisTrialN,double_pass.thisN,double_pass.thisIndex,double_pass.ran,double_pass.order,main_trial.thisRepN,main_trial.thisTrialN,main_trial.thisN,main_trial.thisIndex,main_trial.ran,main_trial.order,Trial_Counter,Catch,Frequencies,response_2.started,response_2.stopped,mouse_2.x,mouse_2.y,mouse_2.leftButton,mouse_2.midButton,mouse_2.rightButton,mouse_2.clicked_name,special_trial.started,special_trial.stopped,catch_1.started,catch_1.stopped,mouse_3.x,mouse_3.y,mouse_3.leftButton,mouse_3.midButton,mouse_3.rightButton,catchresponse,catchnumber,response_time_catch,response_sum.started,response_sum.stopped,mouse_11.x,mouse_11.y,mouse_11.leftButton,mouse_11.midButton,mouse_11.rightButton,flip_presentation_sequence_for_double_pass.started,flip_presentation_sequence_for_double_pass.stopped,goodbye.started,goodbye.stopped,key_resp_3.keys,key_resp_3.rt,key_resp_3.duration
0.0002,0.0003,5962f252b692380001417ab9,2024-02-18_21h13.09.354,kallum_motion_pilot,2023.2.2,Win32,60.24096386,5962f252b692380001417ab9,65d2b6c8f2eece985d8e374c,65d2b8ec924c2db16f8dae7e,,,,,,,,,,,,,,,,,,,,,,,,,,,,,,,,,,,,,,,,,,,,,,,,,,,,,,,,,,,,,,,,,,,,,,,,,,,,,,,,,,,,,,,,,,,,,,,,,,,,,,,,,,,,,,,,,,,,,,,,,,,,,,,,,,,,,,,,,,,,,,,,,
,,5962f252b692380001417ab9,2024-02-18_21h13.09.354,kallum_motion_pilot,2023.2.2,Win32,60.24096386,5962f252b692380001417ab9,65d2b6c8f2eece985d8e374c,65d2b8ec924c2db16f8dae7e,0.0244,0.0246,0,0,0,97,1,fiveseven,,,,,,,,,,,,,,,,,,,,,,,,,,,,,,,,,,,,,,,,,,,,,,,,,,,,,,,,,,,,,,,,,,,,,,,,,,,,,,,,,,,,,,,,,,,,,,,,,,,,,,,,,,,,,,,,,,,,,,,,,,,,,,,,,,,,,,,,,
,,5962f252b692380001417ab9,2024-02-18_21h13.09.354,kallum_motion_pilot,2023.2.2,Win32,60.24096386,5962f252b692380001417ab9,65d2b6c8f2eece985d8e374c,65d2b8ec924c2db16f8dae7e,0.0249,0.0249,0,1,1,116,1,sevenfive,,,,,,,,,,,,,,,,,,,,,,,,,,,,,,,,,,,,,,,,,,,,,,,,,,,,,,,,,,,,,,,,,,,,,,,,,,,,,,,,,,,,,,,,,,,,,,,,,,,,,,,,,,,,,,,,,,,,,,,,,,,,,,,,,,,,,,,,,
,,5962f252b692380001417ab9,2024-02-18_21h13.09.354,kallum_motion_pilot,2023.2.2,Win32,60.24096386,5962f252b692380001417ab9,65d2b6c8f2eece985d8e374c,65d2b8ec924c2db16f8dae7e,0.025,0.025,0,2,2,8,1,onetwo,,,,,,,,,,,,,,,,,,,,,,,,,,,,,,,,,,,,,,,,,,,,,,,,,,,,,,,,,,,,,,,,,,,,,,,,,,,,,,,,,,,,,,,,,,,,,,,,,,,,,,,,,,,,,,,,,,,,,,,,,,,,,,,,,,,,,,,,,
,,5962f252b692380001417ab9,2024-02-18_21h13.09.354,kallum_motion_pilot,2023.2.2,Win32,60.24096386,5962f252b692380001417ab9,65d2b6c8f2eece985d8e374c,65d2b8ec924c2db16f8dae7e,0.0251,0.0251,0,3,3,2,1,twoone,,,,,,,,,,,,,,,,,,,,,,,,,,,,,,,,,,,,,,,,,,,,,,,,,,,,,,,,,,,,,,,,,,,,,,,,,,,,,,,,,,,,,,,,,,,,,,,,,,,,,,,,,,,,,,,,,,,,,,,,,,,,,,,,,,,,,,,,,
,,5962f252b692380001417ab9,2024-02-18_21h13.09.354,kallum_motion_pilot,2023.2.2,Win32,60.24096386,5962f252b692380001417ab9,65d2b6c8f2eece985d8e374c,65d2b8ec924c2db16f8dae7e,0.0252,0.0252,0,4,4,117,1,seveneight,,,,,,,,,,,,,,,,,,,,,,,,,,,,,,,,,,,,,,,,,,,,,,,,,,,,,,,,,,,,,,,,,,,,,,,,,,,,,,,,,,,,,,,,,,,,,,,,,,,,,,,,,,,,,,,,,,,,,,,,,,,,,,,,,,,,,,,,,
,,5962f252b692380001417ab9,2024-02-18_21h13.09.354,kallum_motion_pilot,2023.2.2,Win32,60.24096386,5962f252b692380001417ab9,65d2b6c8f2eece985d8e374c,65d2b8ec924c2db16f8dae7e,0.0254,0.0254,0,5,5,46,1,fourtwo,,,,,,,,,,,,,,,,,,,,,,,,,,,,,,,,,,,,,,,,,,,,,,,,,,,,,,,,,,,,,,,,,,,,,,,,,,,,,,,,,,,,,,,,,,,,,,,,,,,,,,,,,,,,,,,,,,,,,,,,,,,,,,,,,,,,,,,,,
,,5962f252b692380001417ab9,2024-02-18_21h13.09.354,kallum_motion_pilot,2023.2.2,Win32,60.24096386,5962f252b692380001417ab9,65d2b6c8f2eece985d8e374c,65d2b8ec924c2db16f8dae7e,0.0255,0.0255,0,6,6,5,1,threefour,,,,,,,,,,,,,,,,,,,,,,,,,,,,,,,,,,,,,,,,,,,,,,,,,,,,,,,,,,,,,,,,,,,,,,,,,,,,,,,,,,,,,,,,,,,,,,,,,,,,,,,,,,,,,,,,,,,,,,,,,,,,,,,,,,,,,,,,,
,,5962f252b692380001417ab9,2024-02-18_21h13.09.354,kallum_motion_pilot,2023.2.2,Win32,60.24096386,5962f252b692380001417ab9,65d2b6c8f2eece985d8e374c,65d2b8ec924c2db16f8dae7e,0.0256,0.0256,0,7,7,98,1,sixfive,,,,,,,,,,,,,,,,,,,,,,,,,,,,,,,,,,,,,,,,,,,,,,,,,,,,,,,,,,,,,,,,,,,,,,,,,,,,,,,,,,,,,,,,,,,,,,,,,,,,,,,,,,,,,,,,,,,,,,,,,,,,,,,,,,,,,,,,,
,,5962f252b692380001417ab9,2024-02-18_21h13.09.354,kallum_motion_pilot,2023.2.2,Win32,60.24096386,5962f252b692380001417ab9,65d2b6c8f2eece985d8e374c,65d2b8ec924c2db16f8dae7e,0.0258,0.0258,0,8,8,110,1,eightsix,,,,,,,,,,,,,,,,,,,,,,,,,,,,,,,,,,,,,,,,,,,,,,,,,,,,,,,,,,,,,,,,,,,,,,,,,,,,,,,,,,,,,,,,,,,,,,,,,,,,,,,,,,,,,,,,,,,,,,,,,,,,,,,,,,,,,,,,,
,,5962f252b692380001417ab9,2024-02-18_21h13.09.354,kallum_motion_pilot,2023.2.2,Win32,60.24096386,5962f252b692380001417ab9,65d2b6c8f2eece985d8e374c,65d2b8ec924c2db16f8dae7e,0.0259,0.0259,0,9,9,37,1,threefour,,,,,,,,,,,,,,,,,,,,,,,,,,,,,,,,,,,,,,,,,,,,,,,,,,,,,,,,,,,,,,,,,,,,,,,,,,,,,,,,,,,,,,,,,,,,,,,,,,,,,,,,,,,,,,,,,,,,,,,,,,,,,,,,,,,,,,,,,
,,5962f252b692380001417ab9,2024-02-18_21h13.09.354,kallum_motion_pilot,2023.2.2,Win32,60.24096386,5962f252b692380001417ab9,65d2b6c8f2eece985d8e374c,65d2b8ec924c2db16f8dae7e,0.026,0.026,0,10,10,145,1,fiveseven,,,,,,,,,,,,,,,,,,,,,,,,,,,,,,,,,,,,,,,,,,,,,,,,,,,,,,,,,,,,,,,,,,,,,,,,,,,,,,,,,,,,,,,,,,,,,,,,,,,,,,,,,,,,,,,,,,,,,,,,,,,,,,,,,,,,,,,,,
,,5962f252b692380001417ab9,2024-02-18_21h13.09.354,kallum_motion_pilot,2023.2.2,Win32,60.24096386,5962f252b692380001417ab9,65d2b6c8f2eece985d8e374c,65d2b8ec924c2db16f8dae7e,0.0261,0.0262,0,11,11,33,1,onethree,,,,,,,,,,,,,,,,,,,,,,,,,,,,,,,,,,,,,,,,,,,,,,,,,,,,,,,,,,,,,,,,,,,,,,,,,,,,,,,,,,,,,,,,,,,,,,,,,,,,,,,,,,,,,,,,,,,,,,,,,,,,,,,,,,,,,,,,,
,,5962f252b692380001417ab9,2024-02-18_21h13.09.354,kallum_motion_pilot,2023.2.2,Win32,60.24096386,5962f252b692380001417ab9,65d2b6c8f2eece985d8e374c,65d2b8ec924c2db16f8dae7e,0.0262,0.0262,0,12,12,149,1,seveneight,,,,,,,,,,,,,,,,,,,,,,,,,,,,,,,,,,,,,,,,,,,,,,,,,,,,,,,,,,,,,,,,,,,,,,,,,,,,,,,,,,,,,,,,,,,,,,,,,,,,,,,,,,,,,,,,,,,,,,,,,,,,,,,,,,,,,,,,,
,,5962f252b692380001417ab9,2024-02-18_21h13.09.354,kallum_motion_pilot,2023.2.2,Win32,60.24096386,5962f252b692380001417ab9,65d2b6c8f2eece985d8e374c,65d2b8ec924c2db16f8dae7e,0.0263,0.0263,0,13,13,49,1,onethree,,,,,,,,,,,,,,,,,,,,,,,,,,,,,,,,,,,,,,,,,,,,,,,,,,,,,,,,,,,,,,,,,,,,,,,,,,,,,,,,,,,,,,,,,,,,,,,,,,,,,,,,,,,,,,,,,,,,,,,,,,,,,,,,,,,,,,,,,
,,5962f252b692380001417ab9,2024-02-18_21h13.09.354,kallum_motion_pilot,2023.2.2,Win32,60.24096386,5962f252b692380001417ab9,65d2b6c8f2eece985d8e374c,65d2b8ec924c2db16f8dae7e,0.0265,0.0265,0,14,14,61,1,threefour,,,,,,,,,,,,,,,,,,,,,,,,,,,,,,,,,,,,,,,,,,,,,,,,,,,,,,,,,,,,,,,,,,,,,,,,,,,,,,,,,,,,,,,,,,,,,,,,,,,,,,,,,,,,,,,,,,,,,,,,,,,,,,,,,,,,,,,,,
,,5962f252b692380001417ab9,2024-02-18_21h13.09.354,kallum_motion_pilot,2023.2.2,Win32,60.24096386,5962f252b692380001417ab9,65d2b6c8f2eece985d8e374c,65d2b8ec924c2db16f8dae7e,0.0265,0.0265,0,15,15,17,1,onethree,,,,,,,,,,,,,,,,,,,,,,,,,,,,,,,,,,,,,,,,,,,,,,,,,,,,,,,,,,,,,,,,,,,,,,,,,,,,,,,,,,,,,,,,,,,,,,,,,,,,,,,,,,,,,,,,,,,,,,,,,,,,,,,,,,,,,,,,,
,,5962f252b692380001417ab9,2024-02-18_21h13.09.354,kallum_motion_pilot,2023.2.2,Win32,60.24096386,5962f252b692380001417ab9,65d2b6c8f2eece985d8e374c,65d2b8ec924c2db16f8dae7e,0.0267,0.0267,0,16,16,66,1,twoone,,,,,,,,,,,,,,,,,,,,,,,,,,,,,,,,,,,,,,,,,,,,,,,,,,,,,,,,,,,,,,,,,,,,,,,,,,,,,,,,,,,,,,,,,,,,,,,,,,,,,,,,,,,,,,,,,,,,,,,,,,,,,,,,,,,,,,,,,
,,5962f252b692380001417ab9,2024-02-18_21h13.09.354,kallum_motion_pilot,2023.2.2,Win32,60.24096386,5962f252b692380001417ab9,65d2b6c8f2eece985d8e374c,65d2b8ec924c2db16f8dae7e,0.0268,0.0268,0,17,17,128,1,fivesix,,,,,,,,,,,,,,,,,,,,,,,,,,,,,,,,,,,,,,,,,,,,,,,,,,,,,,,,,,,,,,,,,,,,,,,,,,,,,,,,,,,,,,,,,,,,,,,,,,,,,,,,,,,,,,,,,,,,,,,,,,,,,,,,,,,,,,,,,
,,5962f252b692380001417ab9,2024-02-18_21h13.09.354,kallum_motion_pilot,2023.2.2,Win32,60.24096386,5962f252b692380001417ab9,65d2b6c8f2eece985d8e374c,65d2b8ec924c2db16f8dae7e,0.0268,0.0268,0,18,18,122,1,sixfive,,,,,,,,,,,,,,,,,,,,,,,,,,,,,,,,,,,,,,,,,,,,,,,,,,,,,,,,,,,,,,,,,,,,,,,,,,,,,,,,,,,,,,,,,,,,,,,,,,,,,,,,,,,,,,,,,,,,,,,,,,,,,,,,,,,,,,,,,
,,5962f252b692380001417ab9,2024-02-18_21h13.09.354,kallum_motion_pilot,2023.2.2,Win32,60.24096386,5962f252b692380001417ab9,65d2b6c8f2eece985d8e374c,65d2b8ec924c2db16f8dae7e,0.0268,0.0269,0,19,19,126,1,eightsix,,,,,,,,,,,,,,,,,,,,,,,,,,,,,,,,,,,,,,,,,,,,,,,,,,,,,,,,,,,,,,,,,,,,,,,,,,,,,,,,,,,,,,,,,,,,,,,,,,,,,,,,,,,,,,,,,,,,,,,,,,,,,,,,,,,,,,,,,
,,5962f252b692380001417ab9,2024-02-18_21h13.09.354,kallum_motion_pilot,2023.2.2,Win32,60.24096386,5962f252b692380001417ab9,65d2b6c8f2eece985d8e374c,65d2b8ec924c2db16f8dae7e,0.027,0.027,0,20,20,114,1,sixfive,,,,,,,,,,,,,,,,,,,,,,,,,,,,,,,,,,,,,,,,,,,,,,,,,,,,,,,,,,,,,,,,,,,,,,,,,,,,,,,,,,,,,,,,,,,,,,,,,,,,,,,,,,,,,,,,,,,,,,,,,,,,,,,,,,,,,,,,,
,,5962f252b692380001417ab9,2024-02-18_21h13.09.354,kallum_motion_pilot,2023.2.2,Win32,60.24096386,5962f252b692380001417ab9,65d2b6c8f2eece985d8e374c,65d2b8ec924c2db16f8dae7e,0.0271,0.0271,0,21,21,160,1,fivesix,,,,,,,,,,,,,,,,,,,,,,,,,,,,,,,,,,,,,,,,,,,,,,,,,,,,,,,,,,,,,,,,,,,,,,,,,,,,,,,,,,,,,,,,,,,,,,,,,,,,,,,,,,,,,,,,,,,,,,,,,,,,,,,,,,,,,,,,,
,,5962f252b692380001417ab9,2024-02-18_21h13.09.354,kallum_motion_pilot,2023.2.2,Win32,60.24096386,5962f252b692380001417ab9,65d2b6c8f2eece985d8e374c,65d2b8ec924c2db16f8dae7e,0.0271,0.0271,0,22,22,161,1,fiveseven,,,,,,,,,,,,,,,,,,,,,,,,,,,,,,,,,,,,,,,,,,,,,,,,,,,,,,,,,,,,,,,,,,,,,,,,,,,,,,,,,,,,,,,,,,,,,,,,,,,,,,,,,,,,,,,,,,,,,,,,,,,,,,,,,,,,,,,,,
,,5962f252b692380001417ab9,2024-02-18_21h13.09.354,kallum_motion_pilot,2023.2.2,Win32,60.24096386,5962f252b692380001417ab9,65d2b6c8f2eece985d8e374c,65d2b8ec924c2db16f8dae7e,0.0272,0.0272,0,23,23,103,1,eightseven,,,,,,,,,,,,,,,,,,,,,,,,,,,,,,,,,,,,,,,,,,,,,,,,,,,,,,,,,,,,,,,,,,,,,,,,,,,,,,,,,,,,,,,,,,,,,,,,,,,,,,,,,,,,,,,,,,,,,,,,,,,,,,,,,,,,,,,,,
,,5962f252b692380001417ab9,2024-02-18_21h13.09.354,kallum_motion_pilot,2023.2.2,Win32,60.24096386,5962f252b692380001417ab9,65d2b6c8f2eece985d8e374c,65d2b8ec924c2db16f8dae7e,0.0273,0.0275,0,24,24,152,1,fivesix,,,,,,,,,,,,,,,,,,,,,,,,,,,,,,,,,,,,,,,,,,,,,,,,,,,,,,,,,,,,,,,,,,,,,,,,,,,,,,,,,,,,,,,,,,,,,,,,,,,,,,,,,,,,,,,,,,,,,,,,,,,,,,,,,,,,,,,,,
,,5962f252b692380001417ab9,2024-02-18_21h13.09.354,kallum_motion_pilot,2023.2.2,Win32,60.24096386,5962f252b692380001417ab9,65d2b6c8f2eece985d8e374c,65d2b8ec924c2db16f8dae7e,0.0276,0.0276,0,25,25,32,1,onetwo,,,,,,,,,,,,,,,,,,,,,,,,,,,,,,,,,,,,,,,,,,,,,,,,,,,,,,,,,,,,,,,,,,,,,,,,,,,,,,,,,,,,,,,,,,,,,,,,,,,,,,,,,,,,,,,,,,,,,,,,,,,,,,,,,,,,,,,,,
,,5962f252b692380001417ab9,2024-02-18_21h13.09.354,kallum_motion_pilot,2023.2.2,Win32,60.24096386,5962f252b692380001417ab9,65d2b6c8f2eece985d8e374c,65d2b8ec924c2db16f8dae7e,0.0277,0.0277,0,26,26,131,1,sixeight,,,,,,,,,,,,,,,,,,,,,,,,,,,,,,,,,,,,,,,,,,,,,,,,,,,,,,,,,,,,,,,,,,,,,,,,,,,,,,,,,,,,,,,,,,,,,,,,,,,,,,,,,,,,,,,,,,,,,,,,,,,,,,,,,,,,,,,,,
,,5962f252b692380001417ab9,2024-02-18_21h13.09.354,kallum_motion_pilot,2023.2.2,Win32,60.24096386,5962f252b692380001417ab9,65d2b6c8f2eece985d8e374c,65d2b8ec924c2db16f8dae7e,0.0277,0.0278,0,27,27,94,1,eightsix,,,,,,,,,,,,,,,,,,,,,,,,,,,,,,,,,,,,,,,,,,,,,,,,,,,,,,,,,,,,,,,,,,,,,,,,,,,,,,,,,,,,,,,,,,,,,,,,,,,,,,,,,,,,,,,,,,,,,,,,,,,,,,,,,,,,,,,,,
,,5962f252b692380001417ab9,2024-02-18_21h13.09.354,kallum_motion_pilot,2023.2.2,Win32,60.24096386,5962f252b692380001417ab9,65d2b6c8f2eece985d8e374c,65d2b8ec924c2db16f8dae7e,0.0279,0.0279,0,28,28,80,1,fivesix,,,,,,,,,,,,,,,,,,,,,,,,,,,,,,,,,,,,,,,,,,,,,,,,,,,,,,,,,,,,,,,,,,,,,,,,,,,,,,,,,,,,,,,,,,,,,,,,,,,,,,,,,,,,,,,,,,,,,,,,,,,,,,,,,,,,,,,,,
,,5962f252b692380001417ab9,2024-02-18_21h13.09.354,kallum_motion_pilot,2023.2.2,Win32,60.24096386,5962f252b692380001417ab9,65d2b6c8f2eece985d8e374c,65d2b8ec924c2db16f8dae7e,0.0282,0.0283,0,29,29,77,1,threefour,,,,,,,,,,,,,,,,,,,,,,,,,,,,,,,,,,,,,,,,,,,,,,,,,,,,,,,,,,,,,,,,,,,,,,,,,,,,,,,,,,,,,,,,,,,,,,,,,,,,,,,,,,,,,,,,,,,,,,,,,,,,,,,,,,,,,,,,,
,,5962f252b692380001417ab9,2024-02-18_21h13.09.354,kallum_motion_pilot,2023.2.2,Win32,60.24096386,5962f252b692380001417ab9,65d2b6c8f2eece985d8e374c,65d2b8ec924c2db16f8dae7e,0.0283,0.0284,0,30,30,50,1,twoone,,,,,,,,,,,,,,,,,,,,,,,,,,,,,,,,,,,,,,,,,,,,,,,,,,,,,,,,,,,,,,,,,,,,,,,,,,,,,,,,,,,,,,,,,,,,,,,,,,,,,,,,,,,,,,,,,,,,,,,,,,,,,,,,,,,,,,,,,
,,5962f252b692380001417ab9,2024-02-18_21h13.09.354,kallum_motion_pilot,2023.2.2,Win32,60.24096386,5962f252b692380001417ab9,65d2b6c8f2eece985d8e374c,65d2b8ec924c2db16f8dae7e,0.0286,0.0286,0,31,31,45,1,threefour,,,,,,,,,,,,,,,,,,,,,,,,,,,,,,,,,,,,,,,,,,,,,,,,,,,,,,,,,,,,,,,,,,,,,,,,,,,,,,,,,,,,,,,,,,,,,,,,,,,,,,,,,,,,,,,,,,,,,,,,,,,,,,,,,,,,,,,,,
,,5962f252b692380001417ab9,2024-02-18_21h13.09.354,kallum_motion_pilot,2023.2.2,Win32,60.24096386,5962f252b692380001417ab9,65d2b6c8f2eece985d8e374c,65d2b8ec924c2db16f8dae7e,0.0286,0.0287,0,32,32,35,1,twofour,,,,,,,,,,,,,,,,,,,,,,,,,,,,,,,,,,,,,,,,,,,,,,,,,,,,,,,,,,,,,,,,,,,,,,,,,,,,,,,,,,,,,,,,,,,,,,,,,,,,,,,,,,,,,,,,,,,,,,,,,,,,,,,,,,,,,,,,,
,,5962f252b692380001417ab9,2024-02-18_21h13.09.354,kallum_motion_pilot,2023.2.2,Win32,60.24096386,5962f252b692380001417ab9,65d2b6c8f2eece985d8e374c,65d2b8ec924c2db16f8dae7e,0.0287,0.0288,0,33,33,132,1,sevenfive,,,,,,,,,,,,,,,,,,,,,,,,,,,,,,,,,,,,,,,,,,,,,,,,,,,,,,,,,,,,,,,,,,,,,,,,,,,,,,,,,,,,,,,,,,,,,,,,,,,,,,,,,,,,,,,,,,,,,,,,,,,,,,,,,,,,,,,,,
,,5962f252b692380001417ab9,2024-02-18_21h13.09.354,kallum_motion_pilot,2023.2.2,Win32,60.24096386,5962f252b692380001417ab9,65d2b6c8f2eece985d8e374c,65d2b8ec924c2db16f8dae7e,0.0288,0.0288,0,34,34,54,1,fourtwo,,,,,,,,,,,,,,,,,,,,,,,,,,,,,,,,,,,,,,,,,,,,,,,,,,,,,,,,,,,,,,,,,,,,,,,,,,,,,,,,,,,,,,,,,,,,,,,,,,,,,,,,,,,,,,,,,,,,,,,,,,,,,,,,,,,,,,,,,
,,5962f252b692380001417ab9,2024-02-18_21h13.09.354,kallum_motion_pilot,2023.2.2,Win32,60.24096386,5962f252b692380001417ab9,65d2b6c8f2eece985d8e374c,65d2b8ec924c2db16f8dae7e,0.029,0.029,0,35,35,31,1,fourthree,,,,,,,,,,,,,,,,,,,,,,,,,,,,,,,,,,,,,,,,,,,,,,,,,,,,,,,,,,,,,,,,,,,,,,,,,,,,,,,,,,,,,,,,,,,,,,,,,,,,,,,,,,,,,,,,,,,,,,,,,,,,,,,,,,,,,,,,,
,,5962f252b692380001417ab9,2024-02-18_21h13.09.354,kallum_motion_pilot,2023.2.2,Win32,60.24096386,5962f252b692380001417ab9,65d2b6c8f2eece985d8e374c,65d2b8ec924c2db16f8dae7e,0.0291,0.0292,0,36,36,4,1,threeone,,,,,,,,,,,,,,,,,,,,,,,,,,,,,,,,,,,,,,,,,,,,,,,,,,,,,,,,,,,,,,,,,,,,,,,,,,,,,,,,,,,,,,,,,,,,,,,,,,,,,,,,,,,,,,,,,,,,,,,,,,,,,,,,,,,,,,,,,
,,5962f252b692380001417ab9,2024-02-18_21h13.09.354,kallum_motion_pilot,2023.2.2,Win32,60.24096386,5962f252b692380001417ab9,65d2b6c8f2eece985d8e374c,65d2b8ec924c2db16f8dae7e,0.0292,0.0292,0,37,37,151,1,eightseven,,,,,,,,,,,,,,,,,,,,,,,,,,,,,,,,,,,,,,,,,,,,,,,,,,,,,,,,,,,,,,,,,,,,,,,,,,,,,,,,,,,,,,,,,,,,,,,,,,,,,,,,,,,,,,,,,,,,,,,,,,,,,,,,,,,,,,,,,
,,5962f252b692380001417ab9,2024-02-18_21h13.09.354,kallum_motion_pilot,2023.2.2,Win32,60.24096386,5962f252b692380001417ab9,65d2b6c8f2eece985d8e374c,65d2b8ec924c2db16f8dae7e,0.0293,0.0294,0,38,38,157,1,seveneight,,,,,,,,,,,,,,,,,,,,,,,,,,,,,,,,,,,,,,,,,,,,,,,,,,,,,,,,,,,,,,,,,,,,,,,,,,,,,,,,,,,,,,,,,,,,,,,,,,,,,,,,,,,,,,,,,,,,,,,,,,,,,,,,,,,,,,,,,
,,5962f252b692380001417ab9,2024-02-18_21h13.09.354,kallum_motion_pilot,2023.2.2,Win32,60.24096386,5962f252b692380001417ab9,65d2b6c8f2eece985d8e374c,65d2b8ec924c2db16f8dae7e,0.0294,0.0295,0,39,39,40,1,onetwo,,,,,,,,,,,,,,,,,,,,,,,,,,,,,,,,,,,,,,,,,,,,,,,,,,,,,,,,,,,,,,,,,,,,,,,,,,,,,,,,,,,,,,,,,,,,,,,,,,,,,,,,,,,,,,,,,,,,,,,,,,,,,,,,,,,,,,,,,
,,5962f252b692380001417ab9,2024-02-18_21h13.09.354,kallum_motion_pilot,2023.2.2,Win32,60.24096386,5962f252b692380001417ab9,65d2b6c8f2eece985d8e374c,65d2b8ec924c2db16f8dae7e,0.0296,0.0297,0,40,40,124,1,sevenfive,,,,,,,,,,,,,,,,,,,,,,,,,,,,,,,,,,,,,,,,,,,,,,,,,,,,,,,,,,,,,,,,,,,,,,,,,,,,,,,,,,,,,,,,,,,,,,,,,,,,,,,,,,,,,,,,,,,,,,,,,,,,,,,,,,,,,,,,,
,,5962f252b692380001417ab9,2024-02-18_21h13.09.354,kallum_motion_pilot,2023.2.2,Win32,60.24096386,5962f252b692380001417ab9,65d2b6c8f2eece985d8e374c,65d2b8ec924c2db16f8dae7e,0.0297,0.0298,0,41,41,147,1,sixeight,,,,,,,,,,,,,,,,,,,,,,,,,,,,,,,,,,,,,,,,,,,,,,,,,,,,,,,,,,,,,,,,,,,,,,,,,,,,,,,,,,,,,,,,,,,,,,,,,,,,,,,,,,,,,,,,,,,,,,,,,,,,,,,,,,,,,,,,,
,,5962f252b692380001417ab9,2024-02-18_21h13.09.354,kallum_motion_pilot,2023.2.2,Win32,60.24096386,5962f252b692380001417ab9,65d2b6c8f2eece985d8e374c,65d2b8ec924c2db16f8dae7e,0.0298,0.0298,0,42,42,143,1,eightseven,,,,,,,,,,,,,,,,,,,,,,,,,,,,,,,,,,,,,,,,,,,,,,,,,,,,,,,,,,,,,,,,,,,,,,,,,,,,,,,,,,,,,,,,,,,,,,,,,,,,,,,,,,,,,,,,,,,,,,,,,,,,,,,,,,,,,,,,,
,,5962f252b692380001417ab9,2024-02-18_21h13.09.354,kallum_motion_pilot,2023.2.2,Win32,60.24096386,5962f252b692380001417ab9,65d2b6c8f2eece985d8e374c,65d2b8ec924c2db16f8dae7e,0.0299,0.0299,0,43,43,55,1,fourthree,,,,,,,,,,,,,,,,,,,,,,,,,,,,,,,,,,,,,,,,,,,,,,,,,,,,,,,,,,,,,,,,,,,,,,,,,,,,,,,,,,,,,,,,,,,,,,,,,,,,,,,,,,,,,,,,,,,,,,,,,,,,,,,,,,,,,,,,,
,,5962f252b692380001417ab9,2024-02-18_21h13.09.354,kallum_motion_pilot,2023.2.2,Win32,60.24096386,5962f252b692380001417ab9,65d2b6c8f2eece985d8e374c,65d2b8ec924c2db16f8dae7e,0.0299,0.03,0,44,44,133,1,seveneight,,,,,,,,,,,,,,,,,,,,,,,,,,,,,,,,,,,,,,,,,,,,,,,,,,,,,,,,,,,,,,,,,,,,,,,,,,,,,,,,,,,,,,,,,,,,,,,,,,,,,,,,,,,,,,,,,,,,,,,,,,,,,,,,,,,,,,,,,
,,5962f252b692380001417ab9,2024-02-18_21h13.09.354,kallum_motion_pilot,2023.2.2,Win32,60.24096386,5962f252b692380001417ab9,65d2b6c8f2eece985d8e374c,65d2b8ec924c2db16f8dae7e,0.0302,0.0303,0,45,45,93,1,seveneight,,,,,,,,,,,,,,,,,,,,,,,,,,,,,,,,,,,,,,,,,,,,,,,,,,,,,,,,,,,,,,,,,,,,,,,,,,,,,,,,,,,,,,,,,,,,,,,,,,,,,,,,,,,,,,,,,,,,,,,,,,,,,,,,,,,,,,,,,
,,5962f252b692380001417ab9,2024-02-18_21h13.09.354,kallum_motion_pilot,2023.2.2,Win32,60.24096386,5962f252b692380001417ab9,65d2b6c8f2eece985d8e374c,65d2b8ec924c2db16f8dae7e,0.0304,0.0304,0,46,46,28,1,threeone,,,,,,,,,,,,,,,,,,,,,,,,,,,,,,,,,,,,,,,,,,,,,,,,,,,,,,,,,,,,,,,,,,,,,,,,,,,,,,,,,,,,,,,,,,,,,,,,,,,,,,,,,,,,,,,,,,,,,,,,,,,,,,,,,,,,,,,,,
,,5962f252b692380001417ab9,2024-02-18_21h13.09.354,kallum_motion_pilot,2023.2.2,Win32,60.24096386,5962f252b692380001417ab9,65d2b6c8f2eece985d8e374c,65d2b8ec924c2db16f8dae7e,0.0305,0.0305,0,47,47,70,1,fourtwo,,,,,,,,,,,,,,,,,,,,,,,,,,,,,,,,,,,,,,,,,,,,,,,,,,,,,,,,,,,,,,,,,,,,,,,,,,,,,,,,,,,,,,,,,,,,,,,,,,,,,,,,,,,,,,,,,,,,,,,,,,,,,,,,,,,,,,,,,
,,5962f252b692380001417ab9,2024-02-18_21h13.09.354,kallum_motion_pilot,2023.2.2,Win32,60.24096386,5962f252b692380001417ab9,65d2b6c8f2eece985d8e374c,65d2b8ec924c2db16f8dae7e,0.0306,0.0306,0,48,48,119,1,eightseven,,,,,,,,,,,,,,,,,,,,,,,,,,,,,,,,,,,,,,,,,,,,,,,,,,,,,,,,,,,,,,,,,,,,,,,,,,,,,,,,,,,,,,,,,,,,,,,,,,,,,,,,,,,,,,,,,,,,,,,,,,,,,,,,,,,,,,,,,
,,5962f252b692380001417ab9,2024-02-18_21h13.09.354,kallum_motion_pilot,2023.2.2,Win32,60.24096386,5962f252b692380001417ab9,65d2b6c8f2eece985d8e374c,65d2b8ec924c2db16f8dae7e,0.0307,0.0308,0,49,49,153,1,fiveseven,,,,,,,,,,,,,,,,,,,,,,,,,,,,,,,,,,,,,,,,,,,,,,,,,,,,,,,,,,,,,,,,,,,,,,,,,,,,,,,,,,,,,,,,,,,,,,,,,,,,,,,,,,,,,,,,,,,,,,,,,,,,,,,,,,,,,,,,,
,,5962f252b692380001417ab9,2024-02-18_21h13.09.354,kallum_motion_pilot,2023.2.2,Win32,60.24096386,5962f252b692380001417ab9,65d2b6c8f2eece985d8e374c,65d2b8ec924c2db16f8dae7e,0.0308,0.0308,0,50,50,88,1,fivesix,,,,,,,,,,,,,,,,,,,,,,,,,,,,,,,,,,,,,,,,,,,,,,,,,,,,,,,,,,,,,,,,,,,,,,,,,,,,,,,,,,,,,,,,,,,,,,,,,,,,,,,,,,,,,,,,,,,,,,,,,,,,,,,,,,,,,,,,,
,,5962f252b692380001417ab9,2024-02-18_21h13.09.354,kallum_motion_pilot,2023.2.2,Win32,60.24096386,5962f252b692380001417ab9,65d2b6c8f2eece985d8e374c,65d2b8ec924c2db16f8dae7e,0.0309,0.031,0,51,51,76,1,threeone,,,,,,,,,,,,,,,,,,,,,,,,,,,,,,,,,,,,,,,,,,,,,,,,,,,,,,,,,,,,,,,,,,,,,,,,,,,,,,,,,,,,,,,,,,,,,,,,,,,,,,,,,,,,,,,,,,,,,,,,,,,,,,,,,,,,,,,,,
,,5962f252b692380001417ab9,2024-02-18_21h13.09.354,kallum_motion_pilot,2023.2.2,Win32,60.24096386,5962f252b692380001417ab9,65d2b6c8f2eece985d8e374c,65d2b8ec924c2db16f8dae7e,0.031,0.0311,0,52,52,79,1,eightseven,,,,,,,,,,,,,,,,,,,,,,,,,,,,,,,,,,,,,,,,,,,,,,,,,,,,,,,,,,,,,,,,,,,,,,,,,,,,,,,,,,,,,,,,,,,,,,,,,,,,,,,,,,,,,,,,,,,,,,,,,,,,,,,,,,,,,,,,,
,,5962f252b692380001417ab9,2024-02-18_21h13.09.354,kallum_motion_pilot,2023.2.2,Win32,60.24096386,5962f252b692380001417ab9,65d2b6c8f2eece985d8e374c,65d2b8ec924c2db16f8dae7e,0.0311,0.0313,0,53,53,156,1,sevenfive,,,,,,,,,,,,,,,,,,,,,,,,,,,,,,,,,,,,,,,,,,,,,,,,,,,,,,,,,,,,,,,,,,,,,,,,,,,,,,,,,,,,,,,,,,,,,,,,,,,,,,,,,,,,,,,,,,,,,,,,,,,,,,,,,,,,,,,,,
,,5962f252b692380001417ab9,2024-02-18_21h13.09.354,kallum_motion_pilot,2023.2.2,Win32,60.24096386,5962f252b692380001417ab9,65d2b6c8f2eece985d8e374c,65d2b8ec924c2db16f8dae7e,0.0313,0.0313,0,54,54,72,1,onetwo,,,,,,,,,,,,,,,,,,,,,,,,,,,,,,,,,,,,,,,,,,,,,,,,,,,,,,,,,,,,,,,,,,,,,,,,,,,,,,,,,,,,,,,,,,,,,,,,,,,,,,,,,,,,,,,,,,,,,,,,,,,,,,,,,,,,,,,,,
,,5962f252b692380001417ab9,2024-02-18_21h13.09.354,kallum_motion_pilot,2023.2.2,Win32,60.24096386,5962f252b692380001417ab9,65d2b6c8f2eece985d8e374c,65d2b8ec924c2db16f8dae7e,0.0315,0.0315,0,55,55,127,1,eightseven,,,,,,,,,,,,,,,,,,,,,,,,,,,,,,,,,,,,,,,,,,,,,,,,,,,,,,,,,,,,,,,,,,,,,,,,,,,,,,,,,,,,,,,,,,,,,,,,,,,,,,,,,,,,,,,,,,,,,,,,,,,,,,,,,,,,,,,,,
,,5962f252b692380001417ab9,2024-02-18_21h13.09.354,kallum_motion_pilot,2023.2.2,Win32,60.24096386,5962f252b692380001417ab9,65d2b6c8f2eece985d8e374c,65d2b8ec924c2db16f8dae7e,0.0315,0.0316,0,56,56,154,1,sixfive,,,,,,,,,,,,,,,,,,,,,,,,,,,,,,,,,,,,,,,,,,,,,,,,,,,,,,,,,,,,,,,,,,,,,,,,,,,,,,,,,,,,,,,,,,,,,,,,,,,,,,,,,,,,,,,,,,,,,,,,,,,,,,,,,,,,,,,,,
,,5962f252b692380001417ab9,2024-02-18_21h13.09.354,kallum_motion_pilot,2023.2.2,Win32,60.24096386,5962f252b692380001417ab9,65d2b6c8f2eece985d8e374c,65d2b8ec924c2db16f8dae7e,0.0317,0.0317,0,57,57,56,1,onetwo,,,,,,,,,,,,,,,,,,,,,,,,,,,,,,,,,,,,,,,,,,,,,,,,,,,,,,,,,,,,,,,,,,,,,,,,,,,,,,,,,,,,,,,,,,,,,,,,,,,,,,,,,,,,,,,,,,,,,,,,,,,,,,,,,,,,,,,,,
,,5962f252b692380001417ab9,2024-02-18_21h13.09.354,kallum_motion_pilot,2023.2.2,Win32,60.24096386,5962f252b692380001417ab9,65d2b6c8f2eece985d8e374c,65d2b8ec924c2db16f8dae7e,0.0318,0.0318,0,58,58,15,1,fourthree,,,,,,,,,,,,,,,,,,,,,,,,,,,,,,,,,,,,,,,,,,,,,,,,,,,,,,,,,,,,,,,,,,,,,,,,,,,,,,,,,,,,,,,,,,,,,,,,,,,,,,,,,,,,,,,,,,,,,,,,,,,,,,,,,,,,,,,,,
,,5962f252b692380001417ab9,2024-02-18_21h13.09.354,kallum_motion_pilot,2023.2.2,Win32,60.24096386,5962f252b692380001417ab9,65d2b6c8f2eece985d8e374c,65d2b8ec924c2db16f8dae7e,0.0319,0.032,0,59,59,137,1,fiveseven,,,,,,,,,,,,,,,,,,,,,,,,,,,,,,,,,,,,,,,,,,,,,,,,,,,,,,,,,,,,,,,,,,,,,,,,,,,,,,,,,,,,,,,,,,,,,,,,,,,,,,,,,,,,,,,,,,,,,,,,,,,,,,,,,,,,,,,,,
,,5962f252b692380001417ab9,2024-02-18_21h13.09.354,kallum_motion_pilot,2023.2.2,Win32,60.24096386,5962f252b692380001417ab9,65d2b6c8f2eece985d8e374c,65d2b8ec924c2db16f8dae7e,0.0321,0.0321,0,60,60,129,1,fiveseven,,,,,,,,,,,,,,,,,,,,,,,,,,,,,,,,,,,,,,,,,,,,,,,,,,,,,,,,,,,,,,,,,,,,,,,,,,,,,,,,,,,,,,,,,,,,,,,,,,,,,,,,,,,,,,,,,,,,,,,,,,,,,,,,,,,,,,,,,
,,5962f252b692380001417ab9,2024-02-18_21h13.09.354,kallum_motion_pilot,2023.2.2,Win32,60.24096386,5962f252b692380001417ab9,65d2b6c8f2eece985d8e374c,65d2b8ec924c2db16f8dae7e,0.0327,0.0328,0,61,61,120,1,fivesix,,,,,,,,,,,,,,,,,,,,,,,,,,,,,,,,,,,,,,,,,,,,,,,,,,,,,,,,,,,,,,,,,,,,,,,,,,,,,,,,,,,,,,,,,,,,,,,,,,,,,,,,,,,,,,,,,,,,,,,,,,,,,,,,,,,,,,,,,
,,5962f252b692380001417ab9,2024-02-18_21h13.09.354,kallum_motion_pilot,2023.2.2,Win32,60.24096386,5962f252b692380001417ab9,65d2b6c8f2eece985d8e374c,65d2b8ec924c2db16f8dae7e,0.033,0.033,0,62,62,135,1,eightseven,,,,,,,,,,,,,,,,,,,,,,,,,,,,,,,,,,,,,,,,,,,,,,,,,,,,,,,,,,,,,,,,,,,,,,,,,,,,,,,,,,,,,,,,,,,,,,,,,,,,,,,,,,,,,,,,,,,,,,,,,,,,,,,,,,,,,,,,,
,,5962f252b692380001417ab9,2024-02-18_21h13.09.354,kallum_motion_pilot,2023.2.2,Win32,60.24096386,5962f252b692380001417ab9,65d2b6c8f2eece985d8e374c,65d2b8ec924c2db16f8dae7e,0.0331,0.0332,0,63,63,91,1,sixeight,,,,,,,,,,,,,,,,,,,,,,,,,,,,,,,,,,,,,,,,,,,,,,,,,,,,,,,,,,,,,,,,,,,,,,,,,,,,,,,,,,,,,,,,,,,,,,,,,,,,,,,,,,,,,,,,,,,,,,,,,,,,,,,,,,,,,,,,,
,,5962f252b692380001417ab9,2024-02-18_21h13.09.354,kallum_motion_pilot,2023.2.2,Win32,60.24096386,5962f252b692380001417ab9,65d2b6c8f2eece985d8e374c,65d2b8ec924c2db16f8dae7e,0.0333,0.0333,0,64,64,138,1,sixfive,,,,,,,,,,,,,,,,,,,,,,,,,,,,,,,,,,,,,,,,,,,,,,,,,,,,,,,,,,,,,,,,,,,,,,,,,,,,,,,,,,,,,,,,,,,,,,,,,,,,,,,,,,,,,,,,,,,,,,,,,,,,,,,,,,,,,,,,,
,,5962f252b692380001417ab9,2024-02-18_21h13.09.354,kallum_motion_pilot,2023.2.2,Win32,60.24096386,5962f252b692380001417ab9,65d2b6c8f2eece985d8e374c,65d2b8ec924c2db16f8dae7e,0.0333,0.0334,0,65,65,29,1,threefour,,,,,,,,,,,,,,,,,,,,,,,,,,,,,,,,,,,,,,,,,,,,,,,,,,,,,,,,,,,,,,,,,,,,,,,,,,,,,,,,,,,,,,,,,,,,,,,,,,,,,,,,,,,,,,,,,,,,,,,,,,,,,,,,,,,,,,,,,
,,5962f252b692380001417ab9,2024-02-18_21h13.09.354,kallum_motion_pilot,2023.2.2,Win32,60.24096386,5962f252b692380001417ab9,65d2b6c8f2eece985d8e374c,65d2b8ec924c2db16f8dae7e,0.0335,0.0336,0,66,66,82,1,sixfive,,,,,,,,,,,,,,,,,,,,,,,,,,,,,,,,,,,,,,,,,,,,,,,,,,,,,,,,,,,,,,,,,,,,,,,,,,,,,,,,,,,,,,,,,,,,,,,,,,,,,,,,,,,,,,,,,,,,,,,,,,,,,,,,,,,,,,,,,
,,5962f252b692380001417ab9,2024-02-18_21h13.09.354,kallum_motion_pilot,2023.2.2,Win32,60.24096386,5962f252b692380001417ab9,65d2b6c8f2eece985d8e374c,65d2b8ec924c2db16f8dae7e,0.0337,0.0338,0,67,67,71,1,fourthree,,,,,,,,,,,,,,,,,,,,,,,,,,,,,,,,,,,,,,,,,,,,,,,,,,,,,,,,,,,,,,,,,,,,,,,,,,,,,,,,,,,,,,,,,,,,,,,,,,,,,,,,,,,,,,,,,,,,,,,,,,,,,,,,,,,,,,,,,
,,5962f252b692380001417ab9,2024-02-18_21h13.09.354,kallum_motion_pilot,2023.2.2,Win32,60.24096386,5962f252b692380001417ab9,65d2b6c8f2eece985d8e374c,65d2b8ec924c2db16f8dae7e,0.0339,0.0339,0,68,68,30,1,fourtwo,,,,,,,,,,,,,,,,,,,,,,,,,,,,,,,,,,,,,,,,,,,,,,,,,,,,,,,,,,,,,,,,,,,,,,,,,,,,,,,,,,,,,,,,,,,,,,,,,,,,,,,,,,,,,,,,,,,,,,,,,,,,,,,,,,,,,,,,,
,,5962f252b692380001417ab9,2024-02-18_21h13.09.354,kallum_motion_pilot,2023.2.2,Win32,60.24096386,5962f252b692380001417ab9,65d2b6c8f2eece985d8e374c,65d2b8ec924c2db16f8dae7e,0.034,0.0341,0,69,69,112,1,fivesix,,,,,,,,,,,,,,,,,,,,,,,,,,,,,,,,,,,,,,,,,,,,,,,,,,,,,,,,,,,,,,,,,,,,,,,,,,,,,,,,,,,,,,,,,,,,,,,,,,,,,,,,,,,,,,,,,,,,,,,,,,,,,,,,,,,,,,,,,
,,5962f252b692380001417ab9,2024-02-18_21h13.09.354,kallum_motion_pilot,2023.2.2,Win32,60.24096386,5962f252b692380001417ab9,65d2b6c8f2eece985d8e374c,65d2b8ec924c2db16f8dae7e,0.0342,0.0343,0,70,70,18,1,twoone,,,,,,,,,,,,,,,,,,,,,,,,,,,,,,,,,,,,,,,,,,,,,,,,,,,,,,,,,,,,,,,,,,,,,,,,,,,,,,,,,,,,,,,,,,,,,,,,,,,,,,,,,,,,,,,,,,,,,,,,,,,,,,,,,,,,,,,,,
,,5962f252b692380001417ab9,2024-02-18_21h13.09.354,kallum_motion_pilot,2023.2.2,Win32,60.24096386,5962f252b692380001417ab9,65d2b6c8f2eece985d8e374c,65d2b8ec924c2db16f8dae7e,0.0343,0.0344,0,71,71,92,1,sevenfive,,,,,,,,,,,,,,,,,,,,,,,,,,,,,,,,,,,,,,,,,,,,,,,,,,,,,,,,,,,,,,,,,,,,,,,,,,,,,,,,,,,,,,,,,,,,,,,,,,,,,,,,,,,,,,,,,,,,,,,,,,,,,,,,,,,,,,,,,
,,5962f252b692380001417ab9,2024-02-18_21h13.09.354,kallum_motion_pilot,2023.2.2,Win32,60.24096386,5962f252b692380001417ab9,65d2b6c8f2eece985d8e374c,65d2b8ec924c2db16f8dae7e,0.0344,0.0344,0,72,72,39,1,fourthree,,,,,,,,,,,,,,,,,,,,,,,,,,,,,,,,,,,,,,,,,,,,,,,,,,,,,,,,,,,,,,,,,,,,,,,,,,,,,,,,,,,,,,,,,,,,,,,,,,,,,,,,,,,,,,,,,,,,,,,,,,,,,,,,,,,,,,,,,
,,5962f252b692380001417ab9,2024-02-18_21h13.09.354,kallum_motion_pilot,2023.2.2,Win32,60.24096386,5962f252b692380001417ab9,65d2b6c8f2eece985d8e374c,65d2b8ec924c2db16f8dae7e,0.0345,0.0346,0,73,73,155,1,sixeight,,,,,,,,,,,,,,,,,,,,,,,,,,,,,,,,,,,,,,,,,,,,,,,,,,,,,,,,,,,,,,,,,,,,,,,,,,,,,,,,,,,,,,,,,,,,,,,,,,,,,,,,,,,,,,,,,,,,,,,,,,,,,,,,,,,,,,,,,
,,5962f252b692380001417ab9,2024-02-18_21h13.09.354,kallum_motion_pilot,2023.2.2,Win32,60.24096386,5962f252b692380001417ab9,65d2b6c8f2eece985d8e374c,65d2b8ec924c2db16f8dae7e,0.0346,0.0347,0,74,74,23,1,fourthree,,,,,,,,,,,,,,,,,,,,,,,,,,,,,,,,,,,,,,,,,,,,,,,,,,,,,,,,,,,,,,,,,,,,,,,,,,,,,,,,,,,,,,,,,,,,,,,,,,,,,,,,,,,,,,,,,,,,,,,,,,,,,,,,,,,,,,,,,
,,5962f252b692380001417ab9,2024-02-18_21h13.09.354,kallum_motion_pilot,2023.2.2,Win32,60.24096386,5962f252b692380001417ab9,65d2b6c8f2eece985d8e374c,65d2b8ec924c2db16f8dae7e,0.0348,0.0349,0,75,75,69,1,threefour,,,,,,,,,,,,,,,,,,,,,,,,,,,,,,,,,,,,,,,,,,,,,,,,,,,,,,,,,,,,,,,,,,,,,,,,,,,,,,,,,,,,,,,,,,,,,,,,,,,,,,,,,,,,,,,,,,,,,,,,,,,,,,,,,,,,,,,,,
,,5962f252b692380001417ab9,2024-02-18_21h13.09.354,kallum_motion_pilot,2023.2.2,Win32,60.24096386,5962f252b692380001417ab9,65d2b6c8f2eece985d8e374c,65d2b8ec924c2db16f8dae7e,0.0349,0.0349,0,76,76,6,1,fourtwo,,,,,,,,,,,,,,,,,,,,,,,,,,,,,,,,,,,,,,,,,,,,,,,,,,,,,,,,,,,,,,,,,,,,,,,,,,,,,,,,,,,,,,,,,,,,,,,,,,,,,,,,,,,,,,,,,,,,,,,,,,,,,,,,,,,,,,,,,
,,5962f252b692380001417ab9,2024-02-18_21h13.09.354,kallum_motion_pilot,2023.2.2,Win32,60.24096386,5962f252b692380001417ab9,65d2b6c8f2eece985d8e374c,65d2b8ec924c2db16f8dae7e,0.0351,0.0351,0,77,77,53,1,threefour,,,,,,,,,,,,,,,,,,,,,,,,,,,,,,,,,,,,,,,,,,,,,,,,,,,,,,,,,,,,,,,,,,,,,,,,,,,,,,,,,,,,,,,,,,,,,,,,,,,,,,,,,,,,,,,,,,,,,,,,,,,,,,,,,,,,,,,,,
,,5962f252b692380001417ab9,2024-02-18_21h13.09.354,kallum_motion_pilot,2023.2.2,Win32,60.24096386,5962f252b692380001417ab9,65d2b6c8f2eece985d8e374c,65d2b8ec924c2db16f8dae7e,0.0352,0.0353,0,78,78,146,1,sixfive,,,,,,,,,,,,,,,,,,,,,,,,,,,,,,,,,,,,,,,,,,,,,,,,,,,,,,,,,,,,,,,,,,,,,,,,,,,,,,,,,,,,,,,,,,,,,,,,,,,,,,,,,,,,,,,,,,,,,,,,,,,,,,,,,,,,,,,,,
,,5962f252b692380001417ab9,2024-02-18_21h13.09.354,kallum_motion_pilot,2023.2.2,Win32,60.24096386,5962f252b692380001417ab9,65d2b6c8f2eece985d8e374c,65d2b8ec924c2db16f8dae7e,0.0354,0.0354,0,79,79,83,1,sixeight,,,,,,,,,,,,,,,,,,,,,,,,,,,,,,,,,,,,,,,,,,,,,,,,,,,,,,,,,,,,,,,,,,,,,,,,,,,,,,,,,,,,,,,,,,,,,,,,,,,,,,,,,,,,,,,,,,,,,,,,,,,,,,,,,,,,,,,,,
,,5962f252b692380001417ab9,2024-02-18_21h13.09.354,kallum_motion_pilot,2023.2.2,Win32,60.24096386,5962f252b692380001417ab9,65d2b6c8f2eece985d8e374c,65d2b8ec924c2db16f8dae7e,0.0357,0.0357,0,80,80,73,1,onethree,,,,,,,,,,,,,,,,,,,,,,,,,,,,,,,,,,,,,,,,,,,,,,,,,,,,,,,,,,,,,,,,,,,,,,,,,,,,,,,,,,,,,,,,,,,,,,,,,,,,,,,,,,,,,,,,,,,,,,,,,,,,,,,,,,,,,,,,,
,,5962f252b692380001417ab9,2024-02-18_21h13.09.354,kallum_motion_pilot,2023.2.2,Win32,60.24096386,5962f252b692380001417ab9,65d2b6c8f2eece985d8e374c,65d2b8ec924c2db16f8dae7e,0.0358,0.0359,0,81,81,101,1,seveneight,,,,,,,,,,,,,,,,,,,,,,,,,,,,,,,,,,,,,,,,,,,,,,,,,,,,,,,,,,,,,,,,,,,,,,,,,,,,,,,,,,,,,,,,,,,,,,,,,,,,,,,,,,,,,,,,,,,,,,,,,,,,,,,,,,,,,,,,,
,,5962f252b692380001417ab9,2024-02-18_21h13.09.354,kallum_motion_pilot,2023.2.2,Win32,60.24096386,5962f252b692380001417ab9,65d2b6c8f2eece985d8e374c,65d2b8ec924c2db16f8dae7e,0.036,0.036,0,82,82,60,1,threeone,,,,,,,,,,,,,,,,,,,,,,,,,,,,,,,,,,,,,,,,,,,,,,,,,,,,,,,,,,,,,,,,,,,,,,,,,,,,,,,,,,,,,,,,,,,,,,,,,,,,,,,,,,,,,,,,,,,,,,,,,,,,,,,,,,,,,,,,,
,,5962f252b692380001417ab9,2024-02-18_21h13.09.354,kallum_motion_pilot,2023.2.2,Win32,60.24096386,5962f252b692380001417ab9,65d2b6c8f2eece985d8e374c,65d2b8ec924c2db16f8dae7e,0.036,0.0362,0,83,83,139,1,sixeight,,,,,,,,,,,,,,,,,,,,,,,,,,,,,,,,,,,,,,,,,,,,,,,,,,,,,,,,,,,,,,,,,,,,,,,,,,,,,,,,,,,,,,,,,,,,,,,,,,,,,,,,,,,,,,,,,,,,,,,,,,,,,,,,,,,,,,,,,
,,5962f252b692380001417ab9,2024-02-18_21h13.09.354,kallum_motion_pilot,2023.2.2,Win32,60.24096386,5962f252b692380001417ab9,65d2b6c8f2eece985d8e374c,65d2b8ec924c2db16f8dae7e,0.0362,0.0363,0,84,84,13,1,threefour,,,,,,,,,,,,,,,,,,,,,,,,,,,,,,,,,,,,,,,,,,,,,,,,,,,,,,,,,,,,,,,,,,,,,,,,,,,,,,,,,,,,,,,,,,,,,,,,,,,,,,,,,,,,,,,,,,,,,,,,,,,,,,,,,,,,,,,,,
,,5962f252b692380001417ab9,2024-02-18_21h13.09.354,kallum_motion_pilot,2023.2.2,Win32,60.24096386,5962f252b692380001417ab9,65d2b6c8f2eece985d8e374c,65d2b8ec924c2db16f8dae7e,0.0365,0.0365,0,85,85,90,1,sixfive,,,,,,,,,,,,,,,,,,,,,,,,,,,,,,,,,,,,,,,,,,,,,,,,,,,,,,,,,,,,,,,,,,,,,,,,,,,,,,,,,,,,,,,,,,,,,,,,,,,,,,,,,,,,,,,,,,,,,,,,,,,,,,,,,,,,,,,,,
,,5962f252b692380001417ab9,2024-02-18_21h13.09.354,kallum_motion_pilot,2023.2.2,Win32,60.24096386,5962f252b692380001417ab9,65d2b6c8f2eece985d8e374c,65d2b8ec924c2db16f8dae7e,0.0367,0.0367,0,86,86,125,1,seveneight,,,,,,,,,,,,,,,,,,,,,,,,,,,,,,,,,,,,,,,,,,,,,,,,,,,,,,,,,,,,,,,,,,,,,,,,,,,,,,,,,,,,,,,,,,,,,,,,,,,,,,,,,,,,,,,,,,,,,,,,,,,,,,,,,,,,,,,,,
,,5962f252b692380001417ab9,2024-02-18_21h13.09.354,kallum_motion_pilot,2023.2.2,Win32,60.24096386,5962f252b692380001417ab9,65d2b6c8f2eece985d8e374c,65d2b8ec924c2db16f8dae7e,0.0368,0.0368,0,87,87,118,1,eightsix,,,,,,,,,,,,,,,,,,,,,,,,,,,,,,,,,,,,,,,,,,,,,,,,,,,,,,,,,,,,,,,,,,,,,,,,,,,,,,,,,,,,,,,,,,,,,,,,,,,,,,,,,,,,,,,,,,,,,,,,,,,,,,,,,,,,,,,,,
,,5962f252b692380001417ab9,2024-02-18_21h13.09.354,kallum_motion_pilot,2023.2.2,Win32,60.24096386,5962f252b692380001417ab9,65d2b6c8f2eece985d8e374c,65d2b8ec924c2db16f8dae7e,0.037,0.037,0,88,88,38,1,fourtwo,,,,,,,,,,,,,,,,,,,,,,,,,,,,,,,,,,,,,,,,,,,,,,,,,,,,,,,,,,,,,,,,,,,,,,,,,,,,,,,,,,,,,,,,,,,,,,,,,,,,,,,,,,,,,,,,,,,,,,,,,,,,,,,,,,,,,,,,,
,,5962f252b692380001417ab9,2024-02-18_21h13.09.354,kallum_motion_pilot,2023.2.2,Win32,60.24096386,5962f252b692380001417ab9,65d2b6c8f2eece985d8e374c,65d2b8ec924c2db16f8dae7e,0.0371,0.0371,0,89,89,68,1,threeone,,,,,,,,,,,,,,,,,,,,,,,,,,,,,,,,,,,,,,,,,,,,,,,,,,,,,,,,,,,,,,,,,,,,,,,,,,,,,,,,,,,,,,,,,,,,,,,,,,,,,,,,,,,,,,,,,,,,,,,,,,,,,,,,,,,,,,,,,
,,5962f252b692380001417ab9,2024-02-18_21h13.09.354,kallum_motion_pilot,2023.2.2,Win32,60.24096386,5962f252b692380001417ab9,65d2b6c8f2eece985d8e374c,65d2b8ec924c2db16f8dae7e,0.0372,0.0373,0,90,90,78,1,fourtwo,,,,,,,,,,,,,,,,,,,,,,,,,,,,,,,,,,,,,,,,,,,,,,,,,,,,,,,,,,,,,,,,,,,,,,,,,,,,,,,,,,,,,,,,,,,,,,,,,,,,,,,,,,,,,,,,,,,,,,,,,,,,,,,,,,,,,,,,,
,,5962f252b692380001417ab9,2024-02-18_21h13.09.354,kallum_motion_pilot,2023.2.2,Win32,60.24096386,5962f252b692380001417ab9,65d2b6c8f2eece985d8e374c,65d2b8ec924c2db16f8dae7e,0.0373,0.0374,0,91,91,47,1,fourthree,,,,,,,,,,,,,,,,,,,,,,,,,,,,,,,,,,,,,,,,,,,,,,,,,,,,,,,,,,,,,,,,,,,,,,,,,,,,,,,,,,,,,,,,,,,,,,,,,,,,,,,,,,,,,,,,,,,,,,,,,,,,,,,,,,,,,,,,,
,,5962f252b692380001417ab9,2024-02-18_21h13.09.354,kallum_motion_pilot,2023.2.2,Win32,60.24096386,5962f252b692380001417ab9,65d2b6c8f2eece985d8e374c,65d2b8ec924c2db16f8dae7e,0.0375,0.0375,0,92,92,144,1,fivesix,,,,,,,,,,,,,,,,,,,,,,,,,,,,,,,,,,,,,,,,,,,,,,,,,,,,,,,,,,,,,,,,,,,,,,,,,,,,,,,,,,,,,,,,,,,,,,,,,,,,,,,,,,,,,,,,,,,,,,,,,,,,,,,,,,,,,,,,,
,,5962f252b692380001417ab9,2024-02-18_21h13.09.354,kallum_motion_pilot,2023.2.2,Win32,60.24096386,5962f252b692380001417ab9,65d2b6c8f2eece985d8e374c,65d2b8ec924c2db16f8dae7e,0.0376,0.0377,0,93,93,65,1,onethree,,,,,,,,,,,,,,,,,,,,,,,,,,,,,,,,,,,,,,,,,,,,,,,,,,,,,,,,,,,,,,,,,,,,,,,,,,,,,,,,,,,,,,,,,,,,,,,,,,,,,,,,,,,,,,,,,,,,,,,,,,,,,,,,,,,,,,,,,
,,5962f252b692380001417ab9,2024-02-18_21h13.09.354,kallum_motion_pilot,2023.2.2,Win32,60.24096386,5962f252b692380001417ab9,65d2b6c8f2eece985d8e374c,65d2b8ec924c2db16f8dae7e,0.0382,0.0383,0,94,94,106,1,sixfive,,,,,,,,,,,,,,,,,,,,,,,,,,,,,,,,,,,,,,,,,,,,,,,,,,,,,,,,,,,,,,,,,,,,,,,,,,,,,,,,,,,,,,,,,,,,,,,,,,,,,,,,,,,,,,,,,,,,,,,,,,,,,,,,,,,,,,,,,
,,5962f252b692380001417ab9,2024-02-18_21h13.09.354,kallum_motion_pilot,2023.2.2,Win32,60.24096386,5962f252b692380001417ab9,65d2b6c8f2eece985d8e374c,65d2b8ec924c2db16f8dae7e,0.0383,0.0384,0,95,95,89,1,fiveseven,,,,,,,,,,,,,,,,,,,,,,,,,,,,,,,,,,,,,,,,,,,,,,,,,,,,,,,,,,,,,,,,,,,,,,,,,,,,,,,,,,,,,,,,,,,,,,,,,,,,,,,,,,,,,,,,,,,,,,,,,,,,,,,,,,,,,,,,,
,,5962f252b692380001417ab9,2024-02-18_21h13.09.354,kallum_motion_pilot,2023.2.2,Win32,60.24096386,5962f252b692380001417ab9,65d2b6c8f2eece985d8e374c,65d2b8ec924c2db16f8dae7e,0.0385,0.0387,0,96,96,86,1,eightsix,,,,,,,,,,,,,,,,,,,,,,,,,,,,,,,,,,,,,,,,,,,,,,,,,,,,,,,,,,,,,,,,,,,,,,,,,,,,,,,,,,,,,,,,,,,,,,,,,,,,,,,,,,,,,,,,,,,,,,,,,,,,,,,,,,,,,,,,,
,,5962f252b692380001417ab9,2024-02-18_21h13.09.354,kallum_motion_pilot,2023.2.2,Win32,60.24096386,5962f252b692380001417ab9,65d2b6c8f2eece985d8e374c,65d2b8ec924c2db16f8dae7e,0.0389,0.0392,0,97,97,134,1,eightsix,,,,,,,,,,,,,,,,,,,,,,,,,,,,,,,,,,,,,,,,,,,,,,,,,,,,,,,,,,,,,,,,,,,,,,,,,,,,,,,,,,,,,,,,,,,,,,,,,,,,,,,,,,,,,,,,,,,,,,,,,,,,,,,,,,,,,,,,,
,,5962f252b692380001417ab9,2024-02-18_21h13.09.354,kallum_motion_pilot,2023.2.2,Win32,60.24096386,5962f252b692380001417ab9,65d2b6c8f2eece985d8e374c,65d2b8ec924c2db16f8dae7e,0.0392,0.0393,0,98,98,150,1,eightsix,,,,,,,,,,,,,,,,,,,,,,,,,,,,,,,,,,,,,,,,,,,,,,,,,,,,,,,,,,,,,,,,,,,,,,,,,,,,,,,,,,,,,,,,,,,,,,,,,,,,,,,,,,,,,,,,,,,,,,,,,,,,,,,,,,,,,,,,,
,,5962f252b692380001417ab9,2024-02-18_21h13.09.354,kallum_motion_pilot,2023.2.2,Win32,60.24096386,5962f252b692380001417ab9,65d2b6c8f2eece985d8e374c,65d2b8ec924c2db16f8dae7e,0.0394,0.0394,0,99,99,63,1,fourthree,,,,,,,,,,,,,,,,,,,,,,,,,,,,,,,,,,,,,,,,,,,,,,,,,,,,,,,,,,,,,,,,,,,,,,,,,,,,,,,,,,,,,,,,,,,,,,,,,,,,,,,,,,,,,,,,,,,,,,,,,,,,,,,,,,,,,,,,,
,,5962f252b692380001417ab9,2024-02-18_21h13.09.354,kallum_motion_pilot,2023.2.2,Win32,60.24096386,5962f252b692380001417ab9,65d2b6c8f2eece985d8e374c,65d2b8ec924c2db16f8dae7e,0.0398,0.0398,0,100,100,107,1,sixeight,,,,,,,,,,,,,,,,,,,,,,,,,,,,,,,,,,,,,,,,,,,,,,,,,,,,,,,,,,,,,,,,,,,,,,,,,,,,,,,,,,,,,,,,,,,,,,,,,,,,,,,,,,,,,,,,,,,,,,,,,,,,,,,,,,,,,,,,,
,,5962f252b692380001417ab9,2024-02-18_21h13.09.354,kallum_motion_pilot,2023.2.2,Win32,60.24096386,5962f252b692380001417ab9,65d2b6c8f2eece985d8e374c,65d2b8ec924c2db16f8dae7e,0.0399,0.04,0,101,101,16,1,onetwo,,,,,,,,,,,,,,,,,,,,,,,,,,,,,,,,,,,,,,,,,,,,,,,,,,,,,,,,,,,,,,,,,,,,,,,,,,,,,,,,,,,,,,,,,,,,,,,,,,,,,,,,,,,,,,,,,,,,,,,,,,,,,,,,,,,,,,,,,
,,5962f252b692380001417ab9,2024-02-18_21h13.09.354,kallum_motion_pilot,2023.2.2,Win32,60.24096386,5962f252b692380001417ab9,65d2b6c8f2eece985d8e374c,65d2b8ec924c2db16f8dae7e,0.0405,0.0405,0,102,102,96,1,fivesix,,,,,,,,,,,,,,,,,,,,,,,,,,,,,,,,,,,,,,,,,,,,,,,,,,,,,,,,,,,,,,,,,,,,,,,,,,,,,,,,,,,,,,,,,,,,,,,,,,,,,,,,,,,,,,,,,,,,,,,,,,,,,,,,,,,,,,,,,
,,5962f252b692380001417ab9,2024-02-18_21h13.09.354,kallum_motion_pilot,2023.2.2,Win32,60.24096386,5962f252b692380001417ab9,65d2b6c8f2eece985d8e374c,65d2b8ec924c2db16f8dae7e,0.0406,0.0407,0,103,103,20,1,threeone,,,,,,,,,,,,,,,,,,,,,,,,,,,,,,,,,,,,,,,,,,,,,,,,,,,,,,,,,,,,,,,,,,,,,,,,,,,,,,,,,,,,,,,,,,,,,,,,,,,,,,,,,,,,,,,,,,,,,,,,,,,,,,,,,,,,,,,,,
,,5962f252b692380001417ab9,2024-02-18_21h13.09.354,kallum_motion_pilot,2023.2.2,Win32,60.24096386,5962f252b692380001417ab9,65d2b6c8f2eece985d8e374c,65d2b8ec924c2db16f8dae7e,0.0408,0.0408,0,104,104,87,1,eightseven,,,,,,,,,,,,,,,,,,,,,,,,,,,,,,,,,,,,,,,,,,,,,,,,,,,,,,,,,,,,,,,,,,,,,,,,,,,,,,,,,,,,,,,,,,,,,,,,,,,,,,,,,,,,,,,,,,,,,,,,,,,,,,,,,,,,,,,,,
,,5962f252b692380001417ab9,2024-02-18_21h13.09.354,kallum_motion_pilot,2023.2.2,Win32,60.24096386,5962f252b692380001417ab9,65d2b6c8f2eece985d8e374c,65d2b8ec924c2db16f8dae7e,0.0409,0.0411,0,105,105,36,1,threeone,,,,,,,,,,,,,,,,,,,,,,,,,,,,,,,,,,,,,,,,,,,,,,,,,,,,,,,,,,,,,,,,,,,,,,,,,,,,,,,,,,,,,,,,,,,,,,,,,,,,,,,,,,,,,,,,,,,,,,,,,,,,,,,,,,,,,,,,,
,,5962f252b692380001417ab9,2024-02-18_21h13.09.354,kallum_motion_pilot,2023.2.2,Win32,60.24096386,5962f252b692380001417ab9,65d2b6c8f2eece985d8e374c,65d2b8ec924c2db16f8dae7e,0.0411,0.0411,0,106,106,48,1,onetwo,,,,,,,,,,,,,,,,,,,,,,,,,,,,,,,,,,,,,,,,,,,,,,,,,,,,,,,,,,,,,,,,,,,,,,,,,,,,,,,,,,,,,,,,,,,,,,,,,,,,,,,,,,,,,,,,,,,,,,,,,,,,,,,,,,,,,,,,,
,,5962f252b692380001417ab9,2024-02-18_21h13.09.354,kallum_motion_pilot,2023.2.2,Win32,60.24096386,5962f252b692380001417ab9,65d2b6c8f2eece985d8e374c,65d2b8ec924c2db16f8dae7e,0.0413,0.0413,0,107,107,57,1,onethree,,,,,,,,,,,,,,,,,,,,,,,,,,,,,,,,,,,,,,,,,,,,,,,,,,,,,,,,,,,,,,,,,,,,,,,,,,,,,,,,,,,,,,,,,,,,,,,,,,,,,,,,,,,,,,,,,,,,,,,,,,,,,,,,,,,,,,,,,
,,5962f252b692380001417ab9,2024-02-18_21h13.09.354,kallum_motion_pilot,2023.2.2,Win32,60.24096386,5962f252b692380001417ab9,65d2b6c8f2eece985d8e374c,65d2b8ec924c2db16f8dae7e,0.0413,0.0414,0,108,108,148,1,sevenfive,,,,,,,,,,,,,,,,,,,,,,,,,,,,,,,,,,,,,,,,,,,,,,,,,,,,,,,,,,,,,,,,,,,,,,,,,,,,,,,,,,,,,,,,,,,,,,,,,,,,,,,,,,,,,,,,,,,,,,,,,,,,,,,,,,,,,,,,,
,,5962f252b692380001417ab9,2024-02-18_21h13.09.354,kallum_motion_pilot,2023.2.2,Win32,60.24096386,5962f252b692380001417ab9,65d2b6c8f2eece985d8e374c,65d2b8ec924c2db16f8dae7e,0.0414,0.0415,0,109,109,44,1,threeone,,,,,,,,,,,,,,,,,,,,,,,,,,,,,,,,,,,,,,,,,,,,,,,,,,,,,,,,,,,,,,,,,,,,,,,,,,,,,,,,,,,,,,,,,,,,,,,,,,,,,,,,,,,,,,,,,,,,,,,,,,,,,,,,,,,,,,,,,
,,5962f252b692380001417ab9,2024-02-18_21h13.09.354,kallum_motion_pilot,2023.2.2,Win32,60.24096386,5962f252b692380001417ab9,65d2b6c8f2eece985d8e374c,65d2b8ec924c2db16f8dae7e,0.0415,0.0415,0,110,110,95,1,eightseven,,,,,,,,,,,,,,,,,,,,,,,,,,,,,,,,,,,,,,,,,,,,,,,,,,,,,,,,,,,,,,,,,,,,,,,,,,,,,,,,,,,,,,,,,,,,,,,,,,,,,,,,,,,,,,,,,,,,,,,,,,,,,,,,,,,,,,,,,
,,5962f252b692380001417ab9,2024-02-18_21h13.09.354,kallum_motion_pilot,2023.2.2,Win32,60.24096386,5962f252b692380001417ab9,65d2b6c8f2eece985d8e374c,65d2b8ec924c2db16f8dae7e,0.0416,0.0416,0,111,111,104,1,fivesix,,,,,,,,,,,,,,,,,,,,,,,,,,,,,,,,,,,,,,,,,,,,,,,,,,,,,,,,,,,,,,,,,,,,,,,,,,,,,,,,,,,,,,,,,,,,,,,,,,,,,,,,,,,,,,,,,,,,,,,,,,,,,,,,,,,,,,,,,
,,5962f252b692380001417ab9,2024-02-18_21h13.09.354,kallum_motion_pilot,2023.2.2,Win32,60.24096386,5962f252b692380001417ab9,65d2b6c8f2eece985d8e374c,65d2b8ec924c2db16f8dae7e,0.0417,0.0417,0,112,112,105,1,fiveseven,,,,,,,,,,,,,,,,,,,,,,,,,,,,,,,,,,,,,,,,,,,,,,,,,,,,,,,,,,,,,,,,,,,,,,,,,,,,,,,,,,,,,,,,,,,,,,,,,,,,,,,,,,,,,,,,,,,,,,,,,,,,,,,,,,,,,,,,,
,,5962f252b692380001417ab9,2024-02-18_21h13.09.354,kallum_motion_pilot,2023.2.2,Win32,60.24096386,5962f252b692380001417ab9,65d2b6c8f2eece985d8e374c,65d2b8ec924c2db16f8dae7e,0.0418,0.0419,0,113,113,26,1,twoone,,,,,,,,,,,,,,,,,,,,,,,,,,,,,,,,,,,,,,,,,,,,,,,,,,,,,,,,,,,,,,,,,,,,,,,,,,,,,,,,,,,,,,,,,,,,,,,,,,,,,,,,,,,,,,,,,,,,,,,,,,,,,,,,,,,,,,,,,
,,5962f252b692380001417ab9,2024-02-18_21h13.09.354,kallum_motion_pilot,2023.2.2,Win32,60.24096386,5962f252b692380001417ab9,65d2b6c8f2eece985d8e374c,65d2b8ec924c2db16f8dae7e,0.0419,0.0419,0,114,114,10,1,twoone,,,,,,,,,,,,,,,,,,,,,,,,,,,,,,,,,,,,,,,,,,,,,,,,,,,,,,,,,,,,,,,,,,,,,,,,,,,,,,,,,,,,,,,,,,,,,,,,,,,,,,,,,,,,,,,,,,,,,,,,,,,,,,,,,,,,,,,,,
,,5962f252b692380001417ab9,2024-02-18_21h13.09.354,kallum_motion_pilot,2023.2.2,Win32,60.24096386,5962f252b692380001417ab9,65d2b6c8f2eece985d8e374c,65d2b8ec924c2db16f8dae7e,0.042,0.0421,0,115,115,108,1,sevenfive,,,,,,,,,,,,,,,,,,,,,,,,,,,,,,,,,,,,,,,,,,,,,,,,,,,,,,,,,,,,,,,,,,,,,,,,,,,,,,,,,,,,,,,,,,,,,,,,,,,,,,,,,,,,,,,,,,,,,,,,,,,,,,,,,,,,,,,,,
,,5962f252b692380001417ab9,2024-02-18_21h13.09.354,kallum_motion_pilot,2023.2.2,Win32,60.24096386,5962f252b692380001417ab9,65d2b6c8f2eece985d8e374c,65d2b8ec924c2db16f8dae7e,0.0421,0.0421,0,116,116,62,1,fourtwo,,,,,,,,,,,,,,,,,,,,,,,,,,,,,,,,,,,,,,,,,,,,,,,,,,,,,,,,,,,,,,,,,,,,,,,,,,,,,,,,,,,,,,,,,,,,,,,,,,,,,,,,,,,,,,,,,,,,,,,,,,,,,,,,,,,,,,,,,
,,5962f252b692380001417ab9,2024-02-18_21h13.09.354,kallum_motion_pilot,2023.2.2,Win32,60.24096386,5962f252b692380001417ab9,65d2b6c8f2eece985d8e374c,65d2b8ec924c2db16f8dae7e,0.0422,0.0422,0,117,117,74,1,twoone,,,,,,,,,,,,,,,,,,,,,,,,,,,,,,,,,,,,,,,,,,,,,,,,,,,,,,,,,,,,,,,,,,,,,,,,,,,,,,,,,,,,,,,,,,,,,,,,,,,,,,,,,,,,,,,,,,,,,,,,,,,,,,,,,,,,,,,,,
,,5962f252b692380001417ab9,2024-02-18_21h13.09.354,kallum_motion_pilot,2023.2.2,Win32,60.24096386,5962f252b692380001417ab9,65d2b6c8f2eece985d8e374c,65d2b8ec924c2db16f8dae7e,0.0422,0.0422,0,118,118,21,1,threefour,,,,,,,,,,,,,,,,,,,,,,,,,,,,,,,,,,,,,,,,,,,,,,,,,,,,,,,,,,,,,,,,,,,,,,,,,,,,,,,,,,,,,,,,,,,,,,,,,,,,,,,,,,,,,,,,,,,,,,,,,,,,,,,,,,,,,,,,,
,,5962f252b692380001417ab9,2024-02-18_21h13.09.354,kallum_motion_pilot,2023.2.2,Win32,60.24096386,5962f252b692380001417ab9,65d2b6c8f2eece985d8e374c,65d2b8ec924c2db16f8dae7e,0.0423,0.0423,0,119,119,111,1,eightseven,,,,,,,,,,,,,,,,,,,,,,,,,,,,,,,,,,,,,,,,,,,,,,,,,,,,,,,,,,,,,,,,,,,,,,,,,,,,,,,,,,,,,,,,,,,,,,,,,,,,,,,,,,,,,,,,,,,,,,,,,,,,,,,,,,,,,,,,,
,,5962f252b692380001417ab9,2024-02-18_21h13.09.354,kallum_motion_pilot,2023.2.2,Win32,60.24096386,5962f252b692380001417ab9,65d2b6c8f2eece985d8e374c,65d2b8ec924c2db16f8dae7e,0.0424,0.0425,0,120,120,22,1,fourtwo,,,,,,,,,,,,,,,,,,,,,,,,,,,,,,,,,,,,,,,,,,,,,,,,,,,,,,,,,,,,,,,,,,,,,,,,,,,,,,,,,,,,,,,,,,,,,,,,,,,,,,,,,,,,,,,,,,,,,,,,,,,,,,,,,,,,,,,,,
,,5962f252b692380001417ab9,2024-02-18_21h13.09.354,kallum_motion_pilot,2023.2.2,Win32,60.24096386,5962f252b692380001417ab9,65d2b6c8f2eece985d8e374c,65d2b8ec924c2db16f8dae7e,0.0425,0.0425,0,121,121,75,1,twofour,,,,,,,,,,,,,,,,,,,,,,,,,,,,,,,,,,,,,,,,,,,,,,,,,,,,,,,,,,,,,,,,,,,,,,,,,,,,,,,,,,,,,,,,,,,,,,,,,,,,,,,,,,,,,,,,,,,,,,,,,,,,,,,,,,,,,,,,,
,,5962f252b692380001417ab9,2024-02-18_21h13.09.354,kallum_motion_pilot,2023.2.2,Win32,60.24096386,5962f252b692380001417ab9,65d2b6c8f2eece985d8e374c,65d2b8ec924c2db16f8dae7e,0.0426,0.0426,0,122,122,59,1,twofour,,,,,,,,,,,,,,,,,,,,,,,,,,,,,,,,,,,,,,,,,,,,,,,,,,,,,,,,,,,,,,,,,,,,,,,,,,,,,,,,,,,,,,,,,,,,,,,,,,,,,,,,,,,,,,,,,,,,,,,,,,,,,,,,,,,,,,,,,
,,5962f252b692380001417ab9,2024-02-18_21h13.09.354,kallum_motion_pilot,2023.2.2,Win32,60.24096386,5962f252b692380001417ab9,65d2b6c8f2eece985d8e374c,65d2b8ec924c2db16f8dae7e,0.0427,0.0428,0,123,123,58,1,twoone,,,,,,,,,,,,,,,,,,,,,,,,,,,,,,,,,,,,,,,,,,,,,,,,,,,,,,,,,,,,,,,,,,,,,,,,,,,,,,,,,,,,,,,,,,,,,,,,,,,,,,,,,,,,,,,,,,,,,,,,,,,,,,,,,,,,,,,,,
,,5962f252b692380001417ab9,2024-02-18_21h13.09.354,kallum_motion_pilot,2023.2.2,Win32,60.24096386,5962f252b692380001417ab9,65d2b6c8f2eece985d8e374c,65d2b8ec924c2db16f8dae7e,0.0429,0.0429,0,124,124,11,1,twofour,,,,,,,,,,,,,,,,,,,,,,,,,,,,,,,,,,,,,,,,,,,,,,,,,,,,,,,,,,,,,,,,,,,,,,,,,,,,,,,,,,,,,,,,,,,,,,,,,,,,,,,,,,,,,,,,,,,,,,,,,,,,,,,,,,,,,,,,,
,,5962f252b692380001417ab9,2024-02-18_21h13.09.354,kallum_motion_pilot,2023.2.2,Win32,60.24096386,5962f252b692380001417ab9,65d2b6c8f2eece985d8e374c,65d2b8ec924c2db16f8dae7e,0.043,0.043,0,125,125,100,1,sevenfive,,,,,,,,,,,,,,,,,,,,,,,,,,,,,,,,,,,,,,,,,,,,,,,,,,,,,,,,,,,,,,,,,,,,,,,,,,,,,,,,,,,,,,,,,,,,,,,,,,,,,,,,,,,,,,,,,,,,,,,,,,,,,,,,,,,,,,,,,
,,5962f252b692380001417ab9,2024-02-18_21h13.09.354,kallum_motion_pilot,2023.2.2,Win32,60.24096386,5962f252b692380001417ab9,65d2b6c8f2eece985d8e374c,65d2b8ec924c2db16f8dae7e,0.0431,0.0431,0,126,126,42,1,twoone,,,,,,,,,,,,,,,,,,,,,,,,,,,,,,,,,,,,,,,,,,,,,,,,,,,,,,,,,,,,,,,,,,,,,,,,,,,,,,,,,,,,,,,,,,,,,,,,,,,,,,,,,,,,,,,,,,,,,,,,,,,,,,,,,,,,,,,,,
,,5962f252b692380001417ab9,2024-02-18_21h13.09.354,kallum_motion_pilot,2023.2.2,Win32,60.24096386,5962f252b692380001417ab9,65d2b6c8f2eece985d8e374c,65d2b8ec924c2db16f8dae7e,0.0432,0.0433,0,127,127,19,1,twofour,,,,,,,,,,,,,,,,,,,,,,,,,,,,,,,,,,,,,,,,,,,,,,,,,,,,,,,,,,,,,,,,,,,,,,,,,,,,,,,,,,,,,,,,,,,,,,,,,,,,,,,,,,,,,,,,,,,,,,,,,,,,,,,,,,,,,,,,,
,,5962f252b692380001417ab9,2024-02-18_21h13.09.354,kallum_motion_pilot,2023.2.2,Win32,60.24096386,5962f252b692380001417ab9,65d2b6c8f2eece985d8e374c,65d2b8ec924c2db16f8dae7e,0.0434,0.0434,0,128,128,1,1,onethree,,,,,,,,,,,,,,,,,,,,,,,,,,,,,,,,,,,,,,,,,,,,,,,,,,,,,,,,,,,,,,,,,,,,,,,,,,,,,,,,,,,,,,,,,,,,,,,,,,,,,,,,,,,,,,,,,,,,,,,,,,,,,,,,,,,,,,,,,
,,5962f252b692380001417ab9,2024-02-18_21h13.09.354,kallum_motion_pilot,2023.2.2,Win32,60.24096386,5962f252b692380001417ab9,65d2b6c8f2eece985d8e374c,65d2b8ec924c2db16f8dae7e,0.0435,0.0435,0,129,129,3,1,twofour,,,,,,,,,,,,,,,,,,,,,,,,,,,,,,,,,,,,,,,,,,,,,,,,,,,,,,,,,,,,,,,,,,,,,,,,,,,,,,,,,,,,,,,,,,,,,,,,,,,,,,,,,,,,,,,,,,,,,,,,,,,,,,,,,,,,,,,,,
,,5962f252b692380001417ab9,2024-02-18_21h13.09.354,kallum_motion_pilot,2023.2.2,Win32,60.24096386,5962f252b692380001417ab9,65d2b6c8f2eece985d8e374c,65d2b8ec924c2db16f8dae7e,0.0436,0.0436,0,130,130,9,1,onethree,,,,,,,,,,,,,,,,,,,,,,,,,,,,,,,,,,,,,,,,,,,,,,,,,,,,,,,,,,,,,,,,,,,,,,,,,,,,,,,,,,,,,,,,,,,,,,,,,,,,,,,,,,,,,,,,,,,,,,,,,,,,,,,,,,,,,,,,,
,,5962f252b692380001417ab9,2024-02-18_21h13.09.354,kallum_motion_pilot,2023.2.2,Win32,60.24096386,5962f252b692380001417ab9,65d2b6c8f2eece985d8e374c,65d2b8ec924c2db16f8dae7e,0.0437,0.0438,0,131,131,140,1,sevenfive,,,,,,,,,,,,,,,,,,,,,,,,,,,,,,,,,,,,,,,,,,,,,,,,,,,,,,,,,,,,,,,,,,,,,,,,,,,,,,,,,,,,,,,,,,,,,,,,,,,,,,,,,,,,,,,,,,,,,,,,,,,,,,,,,,,,,,,,,
,,5962f252b692380001417ab9,2024-02-18_21h13.09.354,kallum_motion_pilot,2023.2.2,Win32,60.24096386,5962f252b692380001417ab9,65d2b6c8f2eece985d8e374c,65d2b8ec924c2db16f8dae7e,0.0439,0.0439,0,132,132,67,1,twofour,,,,,,,,,,,,,,,,,,,,,,,,,,,,,,,,,,,,,,,,,,,,,,,,,,,,,,,,,,,,,,,,,,,,,,,,,,,,,,,,,,,,,,,,,,,,,,,,,,,,,,,,,,,,,,,,,,,,,,,,,,,,,,,,,,,,,,,,,
,,5962f252b692380001417ab9,2024-02-18_21h13.09.354,kallum_motion_pilot,2023.2.2,Win32,60.24096386,5962f252b692380001417ab9,65d2b6c8f2eece985d8e374c,65d2b8ec924c2db16f8dae7e,0.0439,0.044,0,133,133,115,1,sixeight,,,,,,,,,,,,,,,,,,,,,,,,,,,,,,,,,,,,,,,,,,,,,,,,,,,,,,,,,,,,,,,,,,,,,,,,,,,,,,,,,,,,,,,,,,,,,,,,,,,,,,,,,,,,,,,,,,,,,,,,,,,,,,,,,,,,,,,,,
,,5962f252b692380001417ab9,2024-02-18_21h13.09.354,kallum_motion_pilot,2023.2.2,Win32,60.24096386,5962f252b692380001417ab9,65d2b6c8f2eece985d8e374c,65d2b8ec924c2db16f8dae7e,0.044,0.0441,0,134,134,121,1,fiveseven,,,,,,,,,,,,,,,,,,,,,,,,,,,,,,,,,,,,,,,,,,,,,,,,,,,,,,,,,,,,,,,,,,,,,,,,,,,,,,,,,,,,,,,,,,,,,,,,,,,,,,,,,,,,,,,,,,,,,,,,,,,,,,,,,,,,,,,,,
,,5962f252b692380001417ab9,2024-02-18_21h13.09.354,kallum_motion_pilot,2023.2.2,Win32,60.24096386,5962f252b692380001417ab9,65d2b6c8f2eece985d8e374c,65d2b8ec924c2db16f8dae7e,0.0442,0.0442,0,135,135,27,1,twofour,,,,,,,,,,,,,,,,,,,,,,,,,,,,,,,,,,,,,,,,,,,,,,,,,,,,,,,,,,,,,,,,,,,,,,,,,,,,,,,,,,,,,,,,,,,,,,,,,,,,,,,,,,,,,,,,,,,,,,,,,,,,,,,,,,,,,,,,,
,,5962f252b692380001417ab9,2024-02-18_21h13.09.354,kallum_motion_pilot,2023.2.2,Win32,60.24096386,5962f252b692380001417ab9,65d2b6c8f2eece985d8e374c,65d2b8ec924c2db16f8dae7e,0.0443,0.0443,0,136,136,142,1,eightsix,,,,,,,,,,,,,,,,,,,,,,,,,,,,,,,,,,,,,,,,,,,,,,,,,,,,,,,,,,,,,,,,,,,,,,,,,,,,,,,,,,,,,,,,,,,,,,,,,,,,,,,,,,,,,,,,,,,,,,,,,,,,,,,,,,,,,,,,,
,,5962f252b692380001417ab9,2024-02-18_21h13.09.354,kallum_motion_pilot,2023.2.2,Win32,60.24096386,5962f252b692380001417ab9,65d2b6c8f2eece985d8e374c,65d2b8ec924c2db16f8dae7e,0.0444,0.0444,0,137,137,51,1,twofour,,,,,,,,,,,,,,,,,,,,,,,,,,,,,,,,,,,,,,,,,,,,,,,,,,,,,,,,,,,,,,,,,,,,,,,,,,,,,,,,,,,,,,,,,,,,,,,,,,,,,,,,,,,,,,,,,,,,,,,,,,,,,,,,,,,,,,,,,
,,5962f252b692380001417ab9,2024-02-18_21h13.09.354,kallum_motion_pilot,2023.2.2,Win32,60.24096386,5962f252b692380001417ab9,65d2b6c8f2eece985d8e374c,65d2b8ec924c2db16f8dae7e,0.0445,0.0446,0,138,138,34,1,twoone,,,,,,,,,,,,,,,,,,,,,,,,,,,,,,,,,,,,,,,,,,,,,,,,,,,,,,,,,,,,,,,,,,,,,,,,,,,,,,,,,,,,,,,,,,,,,,,,,,,,,,,,,,,,,,,,,,,,,,,,,,,,,,,,,,,,,,,,,
,,5962f252b692380001417ab9,2024-02-18_21h13.09.354,kallum_motion_pilot,2023.2.2,Win32,60.24096386,5962f252b692380001417ab9,65d2b6c8f2eece985d8e374c,65d2b8ec924c2db16f8dae7e,0.0446,0.0447,0,139,139,141,1,seveneight,,,,,,,,,,,,,,,,,,,,,,,,,,,,,,,,,,,,,,,,,,,,,,,,,,,,,,,,,,,,,,,,,,,,,,,,,,,,,,,,,,,,,,,,,,,,,,,,,,,,,,,,,,,,,,,,,,,,,,,,,,,,,,,,,,,,,,,,,
,,5962f252b692380001417ab9,2024-02-18_21h13.09.354,kallum_motion_pilot,2023.2.2,Win32,60.24096386,5962f252b692380001417ab9,65d2b6c8f2eece985d8e374c,65d2b8ec924c2db16f8dae7e,0.0448,0.0448,0,140,140,81,1,fiveseven,,,,,,,,,,,,,,,,,,,,,,,,,,,,,,,,,,,,,,,,,,,,,,,,,,,,,,,,,,,,,,,,,,,,,,,,,,,,,,,,,,,,,,,,,,,,,,,,,,,,,,,,,,,,,,,,,,,,,,,,,,,,,,,,,,,,,,,,,
,,5962f252b692380001417ab9,2024-02-18_21h13.09.354,kallum_motion_pilot,2023.2.2,Win32,60.24096386,5962f252b692380001417ab9,65d2b6c8f2eece985d8e374c,65d2b8ec924c2db16f8dae7e,0.0448,0.0448,0,141,141,24,1,onetwo,,,,,,,,,,,,,,,,,,,,,,,,,,,,,,,,,,,,,,,,,,,,,,,,,,,,,,,,,,,,,,,,,,,,,,,,,,,,,,,,,,,,,,,,,,,,,,,,,,,,,,,,,,,,,,,,,,,,,,,,,,,,,,,,,,,,,,,,,
,,5962f252b692380001417ab9,2024-02-18_21h13.09.354,kallum_motion_pilot,2023.2.2,Win32,60.24096386,5962f252b692380001417ab9,65d2b6c8f2eece985d8e374c,65d2b8ec924c2db16f8dae7e,0.0449,0.0449,0,142,142,113,1,fiveseven,,,,,,,,,,,,,,,,,,,,,,,,,,,,,,,,,,,,,,,,,,,,,,,,,,,,,,,,,,,,,,,,,,,,,,,,,,,,,,,,,,,,,,,,,,,,,,,,,,,,,,,,,,,,,,,,,,,,,,,,,,,,,,,,,,,,,,,,,
,,5962f252b692380001417ab9,2024-02-18_21h13.09.354,kallum_motion_pilot,2023.2.2,Win32,60.24096386,5962f252b692380001417ab9,65d2b6c8f2eece985d8e374c,65d2b8ec924c2db16f8dae7e,0.0451,0.0451,0,143,143,130,1,sixfive,,,,,,,,,,,,,,,,,,,,,,,,,,,,,,,,,,,,,,,,,,,,,,,,,,,,,,,,,,,,,,,,,,,,,,,,,,,,,,,,,,,,,,,,,,,,,,,,,,,,,,,,,,,,,,,,,,,,,,,,,,,,,,,,,,,,,,,,,
,,5962f252b692380001417ab9,2024-02-18_21h13.09.354,kallum_motion_pilot,2023.2.2,Win32,60.24096386,5962f252b692380001417ab9,65d2b6c8f2eece985d8e374c,65d2b8ec924c2db16f8dae7e,0.0452,0.0452,0,144,144,85,1,seveneight,,,,,,,,,,,,,,,,,,,,,,,,,,,,,,,,,,,,,,,,,,,,,,,,,,,,,,,,,,,,,,,,,,,,,,,,,,,,,,,,,,,,,,,,,,,,,,,,,,,,,,,,,,,,,,,,,,,,,,,,,,,,,,,,,,,,,,,,,
,,5962f252b692380001417ab9,2024-02-18_21h13.09.354,kallum_motion_pilot,2023.2.2,Win32,60.24096386,5962f252b692380001417ab9,65d2b6c8f2eece985d8e374c,65d2b8ec924c2db16f8dae7e,0.0453,0.0453,0,145,145,159,1,eightseven,,,,,,,,,,,,,,,,,,,,,,,,,,,,,,,,,,,,,,,,,,,,,,,,,,,,,,,,,,,,,,,,,,,,,,,,,,,,,,,,,,,,,,,,,,,,,,,,,,,,,,,,,,,,,,,,,,,,,,,,,,,,,,,,,,,,,,,,,
,,5962f252b692380001417ab9,2024-02-18_21h13.09.354,kallum_motion_pilot,2023.2.2,Win32,60.24096386,5962f252b692380001417ab9,65d2b6c8f2eece985d8e374c,65d2b8ec924c2db16f8dae7e,0.0454,0.0454,0,146,146,12,1,threeone,,,,,,,,,,,,,,,,,,,,,,,,,,,,,,,,,,,,,,,,,,,,,,,,,,,,,,,,,,,,,,,,,,,,,,,,,,,,,,,,,,,,,,,,,,,,,,,,,,,,,,,,,,,,,,,,,,,,,,,,,,,,,,,,,,,,,,,,,
,,5962f252b692380001417ab9,2024-02-18_21h13.09.354,kallum_motion_pilot,2023.2.2,Win32,60.24096386,5962f252b692380001417ab9,65d2b6c8f2eece985d8e374c,65d2b8ec924c2db16f8dae7e,0.0454,0.0454,0,147,147,158,1,eightsix,,,,,,,,,,,,,,,,,,,,,,,,,,,,,,,,,,,,,,,,,,,,,,,,,,,,,,,,,,,,,,,,,,,,,,,,,,,,,,,,,,,,,,,,,,,,,,,,,,,,,,,,,,,,,,,,,,,,,,,,,,,,,,,,,,,,,,,,,
,,5962f252b692380001417ab9,2024-02-18_21h13.09.354,kallum_motion_pilot,2023.2.2,Win32,60.24096386,5962f252b692380001417ab9,65d2b6c8f2eece985d8e374c,65d2b8ec924c2db16f8dae7e,0.0455,0.0455,0,148,148,7,1,fourthree,,,,,,,,,,,,,,,,,,,,,,,,,,,,,,,,,,,,,,,,,,,,,,,,,,,,,,,,,,,,,,,,,,,,,,,,,,,,,,,,,,,,,,,,,,,,,,,,,,,,,,,,,,,,,,,,,,,,,,,,,,,,,,,,,,,,,,,,,
,,5962f252b692380001417ab9,2024-02-18_21h13.09.354,kallum_motion_pilot,2023.2.2,Win32,60.24096386,5962f252b692380001417ab9,65d2b6c8f2eece985d8e374c,65d2b8ec924c2db16f8dae7e,0.0457,0.0457,0,149,149,136,1,fivesix,,,,,,,,,,,,,,,,,,,,,,,,,,,,,,,,,,,,,,,,,,,,,,,,,,,,,,,,,,,,,,,,,,,,,,,,,,,,,,,,,,,,,,,,,,,,,,,,,,,,,,,,,,,,,,,,,,,,,,,,,,,,,,,,,,,,,,,,,
,,5962f252b692380001417ab9,2024-02-18_21h13.09.354,kallum_motion_pilot,2023.2.2,Win32,60.24096386,5962f252b692380001417ab9,65d2b6c8f2eece985d8e374c,65d2b8ec924c2db16f8dae7e,0.0457,0.0457,0,150,150,25,1,onethree,,,,,,,,,,,,,,,,,,,,,,,,,,,,,,,,,,,,,,,,,,,,,,,,,,,,,,,,,,,,,,,,,,,,,,,,,,,,,,,,,,,,,,,,,,,,,,,,,,,,,,,,,,,,,,,,,,,,,,,,,,,,,,,,,,,,,,,,,
,,5962f252b692380001417ab9,2024-02-18_21h13.09.354,kallum_motion_pilot,2023.2.2,Win32,60.24096386,5962f252b692380001417ab9,65d2b6c8f2eece985d8e374c,65d2b8ec924c2db16f8dae7e,0.0462,0.0462,0,151,151,84,1,sevenfive,,,,,,,,,,,,,,,,,,,,,,,,,,,,,,,,,,,,,,,,,,,,,,,,,,,,,,,,,,,,,,,,,,,,,,,,,,,,,,,,,,,,,,,,,,,,,,,,,,,,,,,,,,,,,,,,,,,,,,,,,,,,,,,,,,,,,,,,,
,,5962f252b692380001417ab9,2024-02-18_21h13.09.354,kallum_motion_pilot,2023.2.2,Win32,60.24096386,5962f252b692380001417ab9,65d2b6c8f2eece985d8e374c,65d2b8ec924c2db16f8dae7e,0.0463,0.0464,0,152,152,14,1,fourtwo,,,,,,,,,,,,,,,,,,,,,,,,,,,,,,,,,,,,,,,,,,,,,,,,,,,,,,,,,,,,,,,,,,,,,,,,,,,,,,,,,,,,,,,,,,,,,,,,,,,,,,,,,,,,,,,,,,,,,,,,,,,,,,,,,,,,,,,,,
,,5962f252b692380001417ab9,2024-02-18_21h13.09.354,kallum_motion_pilot,2023.2.2,Win32,60.24096386,5962f252b692380001417ab9,65d2b6c8f2eece985d8e374c,65d2b8ec924c2db16f8dae7e,0.0464,0.0464,0,153,153,0,1,onetwo,,,,,,,,,,,,,,,,,,,,,,,,,,,,,,,,,,,,,,,,,,,,,,,,,,,,,,,,,,,,,,,,,,,,,,,,,,,,,,,,,,,,,,,,,,,,,,,,,,,,,,,,,,,,,,,,,,,,,,,,,,,,,,,,,,,,,,,,,
,,5962f252b692380001417ab9,2024-02-18_21h13.09.354,kallum_motion_pilot,2023.2.2,Win32,60.24096386,5962f252b692380001417ab9,65d2b6c8f2eece985d8e374c,65d2b8ec924c2db16f8dae7e,0.0465,0.0466,0,154,154,109,1,seveneight,,,,,,,,,,,,,,,,,,,,,,,,,,,,,,,,,,,,,,,,,,,,,,,,,,,,,,,,,,,,,,,,,,,,,,,,,,,,,,,,,,,,,,,,,,,,,,,,,,,,,,,,,,,,,,,,,,,,,,,,,,,,,,,,,,,,,,,,,
,,5962f252b692380001417ab9,2024-02-18_21h13.09.354,kallum_motion_pilot,2023.2.2,Win32,60.24096386,5962f252b692380001417ab9,65d2b6c8f2eece985d8e374c,65d2b8ec924c2db16f8dae7e,0.0466,0.0467,0,155,155,64,1,onetwo,,,,,,,,,,,,,,,,,,,,,,,,,,,,,,,,,,,,,,,,,,,,,,,,,,,,,,,,,,,,,,,,,,,,,,,,,,,,,,,,,,,,,,,,,,,,,,,,,,,,,,,,,,,,,,,,,,,,,,,,,,,,,,,,,,,,,,,,,
,,5962f252b692380001417ab9,2024-02-18_21h13.09.354,kallum_motion_pilot,2023.2.2,Win32,60.24096386,5962f252b692380001417ab9,65d2b6c8f2eece985d8e374c,65d2b8ec924c2db16f8dae7e,0.0467,0.0468,0,156,156,52,1,threeone,,,,,,,,,,,,,,,,,,,,,,,,,,,,,,,,,,,,,,,,,,,,,,,,,,,,,,,,,,,,,,,,,,,,,,,,,,,,,,,,,,,,,,,,,,,,,,,,,,,,,,,,,,,,,,,,,,,,,,,,,,,,,,,,,,,,,,,,,
,,5962f252b692380001417ab9,2024-02-18_21h13.09.354,kallum_motion_pilot,2023.2.2,Win32,60.24096386,5962f252b692380001417ab9,65d2b6c8f2eece985d8e374c,65d2b8ec924c2db16f8dae7e,0.0469,0.0469,0,157,157,123,1,sixeight,,,,,,,,,,,,,,,,,,,,,,,,,,,,,,,,,,,,,,,,,,,,,,,,,,,,,,,,,,,,,,,,,,,,,,,,,,,,,,,,,,,,,,,,,,,,,,,,,,,,,,,,,,,,,,,,,,,,,,,,,,,,,,,,,,,,,,,,,
,,5962f252b692380001417ab9,2024-02-18_21h13.09.354,kallum_motion_pilot,2023.2.2,Win32,60.24096386,5962f252b692380001417ab9,65d2b6c8f2eece985d8e374c,65d2b8ec924c2db16f8dae7e,0.047,0.047,0,158,158,43,1,twofour,,,,,,,,,,,,,,,,,,,,,,,,,,,,,,,,,,,,,,,,,,,,,,,,,,,,,,,,,,,,,,,,,,,,,,,,,,,,,,,,,,,,,,,,,,,,,,,,,,,,,,,,,,,,,,,,,,,,,,,,,,,,,,,,,,,,,,,,,
,,5962f252b692380001417ab9,2024-02-18_21h13.09.354,kallum_motion_pilot,2023.2.2,Win32,60.24096386,5962f252b692380001417ab9,65d2b6c8f2eece985d8e374c,65d2b8ec924c2db16f8dae7e,0.047,0.0471,0,159,159,99,1,sixeight,,,,,,,,,,,,,,,,,,,,,,,,,,,,,,,,,,,,,,,,,,,,,,,,,,,,,,,,,,,,,,,,,,,,,,,,,,,,,,,,,,,,,,,,,,,,,,,,,,,,,,,,,,,,,,,,,,,,,,,,,,,,,,,,,,,,,,,,,
,,5962f252b692380001417ab9,2024-02-18_21h13.09.354,kallum_motion_pilot,2023.2.2,Win32,60.24096386,5962f252b692380001417ab9,65d2b6c8f2eece985d8e374c,65d2b8ec924c2db16f8dae7e,0.0471,0.0472,0,160,160,102,1,eightsix,,,,,,,,,,,,,,,,,,,,,,,,,,,,,,,,,,,,,,,,,,,,,,,,,,,,,,,,,,,,,,,,,,,,,,,,,,,,,,,,,,,,,,,,,,,,,,,,,,,,,,,,,,,,,,,,,,,,,,,,,,,,,,,,,,,,,,,,,
,,5962f252b692380001417ab9,2024-02-18_21h13.09.354,kallum_motion_pilot,2023.2.2,Win32,60.24096386,5962f252b692380001417ab9,65d2b6c8f2eece985d8e374c,65d2b8ec924c2db16f8dae7e,0.0472,0.0473,0,161,161,41,1,onethree,,,,,,,,,,,,,,,,,,,,,,,,,,,,,,,,,,,,,,,,,,,,,,,,,,,,,,,,,,,,,,,,,,,,,,,,,,,,,,,,,,,,,,,,,,,,,,,,,,,,,,,,,,,,,,,,,,,,,,,,,,,,,,,,,,,,,,,,,
,,5962f252b692380001417ab9,2024-02-18_21h13.09.354,kallum_motion_pilot,2023.2.2,Win32,60.24096386,5962f252b692380001417ab9,65d2b6c8f2eece985d8e374c,65d2b8ec924c2db16f8dae7e,0.0473,0.0474,1,0,162,37,1,threefour,,,,,,,,,,,,,,,,,,,,,,,,,,,,,,,,,,,,,,,,,,,,,,,,,,,,,,,,,,,,,,,,,,,,,,,,,,,,,,,,,,,,,,,,,,,,,,,,,,,,,,,,,,,,,,,,,,,,,,,,,,,,,,,,,,,,,,,,,
,,5962f252b692380001417ab9,2024-02-18_21h13.09.354,kallum_motion_pilot,2023.2.2,Win32,60.24096386,5962f252b692380001417ab9,65d2b6c8f2eece985d8e374c,65d2b8ec924c2db16f8dae7e,0.0475,0.0475,1,1,163,136,1,fivesix,,,,,,,,,,,,,,,,,,,,,,,,,,,,,,,,,,,,,,,,,,,,,,,,,,,,,,,,,,,,,,,,,,,,,,,,,,,,,,,,,,,,,,,,,,,,,,,,,,,,,,,,,,,,,,,,,,,,,,,,,,,,,,,,,,,,,,,,,
,,5962f252b692380001417ab9,2024-02-18_21h13.09.354,kallum_motion_pilot,2023.2.2,Win32,60.24096386,5962f252b692380001417ab9,65d2b6c8f2eece985d8e374c,65d2b8ec924c2db16f8dae7e,0.0476,0.0476,1,2,164,47,1,fourthree,,,,,,,,,,,,,,,,,,,,,,,,,,,,,,,,,,,,,,,,,,,,,,,,,,,,,,,,,,,,,,,,,,,,,,,,,,,,,,,,,,,,,,,,,,,,,,,,,,,,,,,,,,,,,,,,,,,,,,,,,,,,,,,,,,,,,,,,,
,,5962f252b692380001417ab9,2024-02-18_21h13.09.354,kallum_motion_pilot,2023.2.2,Win32,60.24096386,5962f252b692380001417ab9,65d2b6c8f2eece985d8e374c,65d2b8ec924c2db16f8dae7e,0.0477,0.0477,1,3,165,81,1,fiveseven,,,,,,,,,,,,,,,,,,,,,,,,,,,,,,,,,,,,,,,,,,,,,,,,,,,,,,,,,,,,,,,,,,,,,,,,,,,,,,,,,,,,,,,,,,,,,,,,,,,,,,,,,,,,,,,,,,,,,,,,,,,,,,,,,,,,,,,,,
,,5962f252b692380001417ab9,2024-02-18_21h13.09.354,kallum_motion_pilot,2023.2.2,Win32,60.24096386,5962f252b692380001417ab9,65d2b6c8f2eece985d8e374c,65d2b8ec924c2db16f8dae7e,0.0477,0.0478,1,4,166,67,1,twofour,,,,,,,,,,,,,,,,,,,,,,,,,,,,,,,,,,,,,,,,,,,,,,,,,,,,,,,,,,,,,,,,,,,,,,,,,,,,,,,,,,,,,,,,,,,,,,,,,,,,,,,,,,,,,,,,,,,,,,,,,,,,,,,,,,,,,,,,,
,,5962f252b692380001417ab9,2024-02-18_21h13.09.354,kallum_motion_pilot,2023.2.2,Win32,60.24096386,5962f252b692380001417ab9,65d2b6c8f2eece985d8e374c,65d2b8ec924c2db16f8dae7e,0.0478,0.0479,1,5,167,132,1,sevenfive,,,,,,,,,,,,,,,,,,,,,,,,,,,,,,,,,,,,,,,,,,,,,,,,,,,,,,,,,,,,,,,,,,,,,,,,,,,,,,,,,,,,,,,,,,,,,,,,,,,,,,,,,,,,,,,,,,,,,,,,,,,,,,,,,,,,,,,,,
,,5962f252b692380001417ab9,2024-02-18_21h13.09.354,kallum_motion_pilot,2023.2.2,Win32,60.24096386,5962f252b692380001417ab9,65d2b6c8f2eece985d8e374c,65d2b8ec924c2db16f8dae7e,0.048,0.048,1,6,168,114,1,sixfive,,,,,,,,,,,,,,,,,,,,,,,,,,,,,,,,,,,,,,,,,,,,,,,,,,,,,,,,,,,,,,,,,,,,,,,,,,,,,,,,,,,,,,,,,,,,,,,,,,,,,,,,,,,,,,,,,,,,,,,,,,,,,,,,,,,,,,,,,
,,5962f252b692380001417ab9,2024-02-18_21h13.09.354,kallum_motion_pilot,2023.2.2,Win32,60.24096386,5962f252b692380001417ab9,65d2b6c8f2eece985d8e374c,65d2b8ec924c2db16f8dae7e,0.048,0.0481,1,7,169,38,1,fourtwo,,,,,,,,,,,,,,,,,,,,,,,,,,,,,,,,,,,,,,,,,,,,,,,,,,,,,,,,,,,,,,,,,,,,,,,,,,,,,,,,,,,,,,,,,,,,,,,,,,,,,,,,,,,,,,,,,,,,,,,,,,,,,,,,,,,,,,,,,
,,5962f252b692380001417ab9,2024-02-18_21h13.09.354,kallum_motion_pilot,2023.2.2,Win32,60.24096386,5962f252b692380001417ab9,65d2b6c8f2eece985d8e374c,65d2b8ec924c2db16f8dae7e,0.0482,0.0482,1,8,170,127,1,eightseven,,,,,,,,,,,,,,,,,,,,,,,,,,,,,,,,,,,,,,,,,,,,,,,,,,,,,,,,,,,,,,,,,,,,,,,,,,,,,,,,,,,,,,,,,,,,,,,,,,,,,,,,,,,,,,,,,,,,,,,,,,,,,,,,,,,,,,,,,
,,5962f252b692380001417ab9,2024-02-18_21h13.09.354,kallum_motion_pilot,2023.2.2,Win32,60.24096386,5962f252b692380001417ab9,65d2b6c8f2eece985d8e374c,65d2b8ec924c2db16f8dae7e,0.0482,0.0483,1,9,171,138,1,sixfive,,,,,,,,,,,,,,,,,,,,,,,,,,,,,,,,,,,,,,,,,,,,,,,,,,,,,,,,,,,,,,,,,,,,,,,,,,,,,,,,,,,,,,,,,,,,,,,,,,,,,,,,,,,,,,,,,,,,,,,,,,,,,,,,,,,,,,,,,
,,5962f252b692380001417ab9,2024-02-18_21h13.09.354,kallum_motion_pilot,2023.2.2,Win32,60.24096386,5962f252b692380001417ab9,65d2b6c8f2eece985d8e374c,65d2b8ec924c2db16f8dae7e,0.0483,0.0484,1,10,172,53,1,threefour,,,,,,,,,,,,,,,,,,,,,,,,,,,,,,,,,,,,,,,,,,,,,,,,,,,,,,,,,,,,,,,,,,,,,,,,,,,,,,,,,,,,,,,,,,,,,,,,,,,,,,,,,,,,,,,,,,,,,,,,,,,,,,,,,,,,,,,,,
,,5962f252b692380001417ab9,2024-02-18_21h13.09.354,kallum_motion_pilot,2023.2.2,Win32,60.24096386,5962f252b692380001417ab9,65d2b6c8f2eece985d8e374c,65d2b8ec924c2db16f8dae7e,0.0484,0.0485,1,11,173,115,1,sixeight,,,,,,,,,,,,,,,,,,,,,,,,,,,,,,,,,,,,,,,,,,,,,,,,,,,,,,,,,,,,,,,,,,,,,,,,,,,,,,,,,,,,,,,,,,,,,,,,,,,,,,,,,,,,,,,,,,,,,,,,,,,,,,,,,,,,,,,,,
,,5962f252b692380001417ab9,2024-02-18_21h13.09.354,kallum_motion_pilot,2023.2.2,Win32,60.24096386,5962f252b692380001417ab9,65d2b6c8f2eece985d8e374c,65d2b8ec924c2db16f8dae7e,0.0486,0.0486,1,12,174,28,1,threeone,,,,,,,,,,,,,,,,,,,,,,,,,,,,,,,,,,,,,,,,,,,,,,,,,,,,,,,,,,,,,,,,,,,,,,,,,,,,,,,,,,,,,,,,,,,,,,,,,,,,,,,,,,,,,,,,,,,,,,,,,,,,,,,,,,,,,,,,,
,,5962f252b692380001417ab9,2024-02-18_21h13.09.354,kallum_motion_pilot,2023.2.2,Win32,60.24096386,5962f252b692380001417ab9,65d2b6c8f2eece985d8e374c,65d2b8ec924c2db16f8dae7e,0.0487,0.0487,1,13,175,35,1,twofour,,,,,,,,,,,,,,,,,,,,,,,,,,,,,,,,,,,,,,,,,,,,,,,,,,,,,,,,,,,,,,,,,,,,,,,,,,,,,,,,,,,,,,,,,,,,,,,,,,,,,,,,,,,,,,,,,,,,,,,,,,,,,,,,,,,,,,,,,
,,5962f252b692380001417ab9,2024-02-18_21h13.09.354,kallum_motion_pilot,2023.2.2,Win32,60.24096386,5962f252b692380001417ab9,65d2b6c8f2eece985d8e374c,65d2b8ec924c2db16f8dae7e,0.0488,0.0488,1,14,176,73,1,onethree,,,,,,,,,,,,,,,,,,,,,,,,,,,,,,,,,,,,,,,,,,,,,,,,,,,,,,,,,,,,,,,,,,,,,,,,,,,,,,,,,,,,,,,,,,,,,,,,,,,,,,,,,,,,,,,,,,,,,,,,,,,,,,,,,,,,,,,,,
,,5962f252b692380001417ab9,2024-02-18_21h13.09.354,kallum_motion_pilot,2023.2.2,Win32,60.24096386,5962f252b692380001417ab9,65d2b6c8f2eece985d8e374c,65d2b8ec924c2db16f8dae7e,0.0489,0.0489,1,15,177,24,1,onetwo,,,,,,,,,,,,,,,,,,,,,,,,,,,,,,,,,,,,,,,,,,,,,,,,,,,,,,,,,,,,,,,,,,,,,,,,,,,,,,,,,,,,,,,,,,,,,,,,,,,,,,,,,,,,,,,,,,,,,,,,,,,,,,,,,,,,,,,,,
,,5962f252b692380001417ab9,2024-02-18_21h13.09.354,kallum_motion_pilot,2023.2.2,Win32,60.24096386,5962f252b692380001417ab9,65d2b6c8f2eece985d8e374c,65d2b8ec924c2db16f8dae7e,0.0489,0.049,1,16,178,31,1,fourthree,,,,,,,,,,,,,,,,,,,,,,,,,,,,,,,,,,,,,,,,,,,,,,,,,,,,,,,,,,,,,,,,,,,,,,,,,,,,,,,,,,,,,,,,,,,,,,,,,,,,,,,,,,,,,,,,,,,,,,,,,,,,,,,,,,,,,,,,,
,,5962f252b692380001417ab9,2024-02-18_21h13.09.354,kallum_motion_pilot,2023.2.2,Win32,60.24096386,5962f252b692380001417ab9,65d2b6c8f2eece985d8e374c,65d2b8ec924c2db16f8dae7e,0.0491,0.0491,1,17,179,54,1,fourtwo,,,,,,,,,,,,,,,,,,,,,,,,,,,,,,,,,,,,,,,,,,,,,,,,,,,,,,,,,,,,,,,,,,,,,,,,,,,,,,,,,,,,,,,,,,,,,,,,,,,,,,,,,,,,,,,,,,,,,,,,,,,,,,,,,,,,,,,,,
,,5962f252b692380001417ab9,2024-02-18_21h13.09.354,kallum_motion_pilot,2023.2.2,Win32,60.24096386,5962f252b692380001417ab9,65d2b6c8f2eece985d8e374c,65d2b8ec924c2db16f8dae7e,0.0492,0.0493,1,18,180,119,1,eightseven,,,,,,,,,,,,,,,,,,,,,,,,,,,,,,,,,,,,,,,,,,,,,,,,,,,,,,,,,,,,,,,,,,,,,,,,,,,,,,,,,,,,,,,,,,,,,,,,,,,,,,,,,,,,,,,,,,,,,,,,,,,,,,,,,,,,,,,,,
,,5962f252b692380001417ab9,2024-02-18_21h13.09.354,kallum_motion_pilot,2023.2.2,Win32,60.24096386,5962f252b692380001417ab9,65d2b6c8f2eece985d8e374c,65d2b8ec924c2db16f8dae7e,0.0493,0.0493,1,19,181,50,1,twoone,,,,,,,,,,,,,,,,,,,,,,,,,,,,,,,,,,,,,,,,,,,,,,,,,,,,,,,,,,,,,,,,,,,,,,,,,,,,,,,,,,,,,,,,,,,,,,,,,,,,,,,,,,,,,,,,,,,,,,,,,,,,,,,,,,,,,,,,,
,,5962f252b692380001417ab9,2024-02-18_21h13.09.354,kallum_motion_pilot,2023.2.2,Win32,60.24096386,5962f252b692380001417ab9,65d2b6c8f2eece985d8e374c,65d2b8ec924c2db16f8dae7e,0.0495,0.0495,1,20,182,20,1,threeone,,,,,,,,,,,,,,,,,,,,,,,,,,,,,,,,,,,,,,,,,,,,,,,,,,,,,,,,,,,,,,,,,,,,,,,,,,,,,,,,,,,,,,,,,,,,,,,,,,,,,,,,,,,,,,,,,,,,,,,,,,,,,,,,,,,,,,,,,
,,5962f252b692380001417ab9,2024-02-18_21h13.09.354,kallum_motion_pilot,2023.2.2,Win32,60.24096386,5962f252b692380001417ab9,65d2b6c8f2eece985d8e374c,65d2b8ec924c2db16f8dae7e,0.0496,0.0496,1,21,183,93,1,seveneight,,,,,,,,,,,,,,,,,,,,,,,,,,,,,,,,,,,,,,,,,,,,,,,,,,,,,,,,,,,,,,,,,,,,,,,,,,,,,,,,,,,,,,,,,,,,,,,,,,,,,,,,,,,,,,,,,,,,,,,,,,,,,,,,,,,,,,,,,
,,5962f252b692380001417ab9,2024-02-18_21h13.09.354,kallum_motion_pilot,2023.2.2,Win32,60.24096386,5962f252b692380001417ab9,65d2b6c8f2eece985d8e374c,65d2b8ec924c2db16f8dae7e,0.0496,0.0497,1,22,184,133,1,seveneight,,,,,,,,,,,,,,,,,,,,,,,,,,,,,,,,,,,,,,,,,,,,,,,,,,,,,,,,,,,,,,,,,,,,,,,,,,,,,,,,,,,,,,,,,,,,,,,,,,,,,,,,,,,,,,,,,,,,,,,,,,,,,,,,,,,,,,,,,
,,5962f252b692380001417ab9,2024-02-18_21h13.09.354,kallum_motion_pilot,2023.2.2,Win32,60.24096386,5962f252b692380001417ab9,65d2b6c8f2eece985d8e374c,65d2b8ec924c2db16f8dae7e,0.0498,0.0498,1,23,185,27,1,twofour,,,,,,,,,,,,,,,,,,,,,,,,,,,,,,,,,,,,,,,,,,,,,,,,,,,,,,,,,,,,,,,,,,,,,,,,,,,,,,,,,,,,,,,,,,,,,,,,,,,,,,,,,,,,,,,,,,,,,,,,,,,,,,,,,,,,,,,,,
,,5962f252b692380001417ab9,2024-02-18_21h13.09.354,kallum_motion_pilot,2023.2.2,Win32,60.24096386,5962f252b692380001417ab9,65d2b6c8f2eece985d8e374c,65d2b8ec924c2db16f8dae7e,0.05,0.05,1,24,186,118,1,eightsix,,,,,,,,,,,,,,,,,,,,,,,,,,,,,,,,,,,,,,,,,,,,,,,,,,,,,,,,,,,,,,,,,,,,,,,,,,,,,,,,,,,,,,,,,,,,,,,,,,,,,,,,,,,,,,,,,,,,,,,,,,,,,,,,,,,,,,,,,
,,5962f252b692380001417ab9,2024-02-18_21h13.09.354,kallum_motion_pilot,2023.2.2,Win32,60.24096386,5962f252b692380001417ab9,65d2b6c8f2eece985d8e374c,65d2b8ec924c2db16f8dae7e,0.0501,0.0502,1,25,187,7,1,fourthree,,,,,,,,,,,,,,,,,,,,,,,,,,,,,,,,,,,,,,,,,,,,,,,,,,,,,,,,,,,,,,,,,,,,,,,,,,,,,,,,,,,,,,,,,,,,,,,,,,,,,,,,,,,,,,,,,,,,,,,,,,,,,,,,,,,,,,,,,
,,5962f252b692380001417ab9,2024-02-18_21h13.09.354,kallum_motion_pilot,2023.2.2,Win32,60.24096386,5962f252b692380001417ab9,65d2b6c8f2eece985d8e374c,65d2b8ec924c2db16f8dae7e,0.0502,0.0503,1,26,188,15,1,fourthree,,,,,,,,,,,,,,,,,,,,,,,,,,,,,,,,,,,,,,,,,,,,,,,,,,,,,,,,,,,,,,,,,,,,,,,,,,,,,,,,,,,,,,,,,,,,,,,,,,,,,,,,,,,,,,,,,,,,,,,,,,,,,,,,,,,,,,,,,
,,5962f252b692380001417ab9,2024-02-18_21h13.09.354,kallum_motion_pilot,2023.2.2,Win32,60.24096386,5962f252b692380001417ab9,65d2b6c8f2eece985d8e374c,65d2b8ec924c2db16f8dae7e,0.0503,0.0504,1,27,189,140,1,sevenfive,,,,,,,,,,,,,,,,,,,,,,,,,,,,,,,,,,,,,,,,,,,,,,,,,,,,,,,,,,,,,,,,,,,,,,,,,,,,,,,,,,,,,,,,,,,,,,,,,,,,,,,,,,,,,,,,,,,,,,,,,,,,,,,,,,,,,,,,,
,,5962f252b692380001417ab9,2024-02-18_21h13.09.354,kallum_motion_pilot,2023.2.2,Win32,60.24096386,5962f252b692380001417ab9,65d2b6c8f2eece985d8e374c,65d2b8ec924c2db16f8dae7e,0.0504,0.0505,1,28,190,96,1,fivesix,,,,,,,,,,,,,,,,,,,,,,,,,,,,,,,,,,,,,,,,,,,,,,,,,,,,,,,,,,,,,,,,,,,,,,,,,,,,,,,,,,,,,,,,,,,,,,,,,,,,,,,,,,,,,,,,,,,,,,,,,,,,,,,,,,,,,,,,,
,,5962f252b692380001417ab9,2024-02-18_21h13.09.354,kallum_motion_pilot,2023.2.2,Win32,60.24096386,5962f252b692380001417ab9,65d2b6c8f2eece985d8e374c,65d2b8ec924c2db16f8dae7e,0.0505,0.0506,1,29,191,10,1,twoone,,,,,,,,,,,,,,,,,,,,,,,,,,,,,,,,,,,,,,,,,,,,,,,,,,,,,,,,,,,,,,,,,,,,,,,,,,,,,,,,,,,,,,,,,,,,,,,,,,,,,,,,,,,,,,,,,,,,,,,,,,,,,,,,,,,,,,,,,
,,5962f252b692380001417ab9,2024-02-18_21h13.09.354,kallum_motion_pilot,2023.2.2,Win32,60.24096386,5962f252b692380001417ab9,65d2b6c8f2eece985d8e374c,65d2b8ec924c2db16f8dae7e,0.0507,0.0507,1,30,192,90,1,sixfive,,,,,,,,,,,,,,,,,,,,,,,,,,,,,,,,,,,,,,,,,,,,,,,,,,,,,,,,,,,,,,,,,,,,,,,,,,,,,,,,,,,,,,,,,,,,,,,,,,,,,,,,,,,,,,,,,,,,,,,,,,,,,,,,,,,,,,,,,
,,5962f252b692380001417ab9,2024-02-18_21h13.09.354,kallum_motion_pilot,2023.2.2,Win32,60.24096386,5962f252b692380001417ab9,65d2b6c8f2eece985d8e374c,65d2b8ec924c2db16f8dae7e,0.0508,0.0508,1,31,193,5,1,threefour,,,,,,,,,,,,,,,,,,,,,,,,,,,,,,,,,,,,,,,,,,,,,,,,,,,,,,,,,,,,,,,,,,,,,,,,,,,,,,,,,,,,,,,,,,,,,,,,,,,,,,,,,,,,,,,,,,,,,,,,,,,,,,,,,,,,,,,,,
,,5962f252b692380001417ab9,2024-02-18_21h13.09.354,kallum_motion_pilot,2023.2.2,Win32,60.24096386,5962f252b692380001417ab9,65d2b6c8f2eece985d8e374c,65d2b8ec924c2db16f8dae7e,0.051,0.051,1,32,194,19,1,twofour,,,,,,,,,,,,,,,,,,,,,,,,,,,,,,,,,,,,,,,,,,,,,,,,,,,,,,,,,,,,,,,,,,,,,,,,,,,,,,,,,,,,,,,,,,,,,,,,,,,,,,,,,,,,,,,,,,,,,,,,,,,,,,,,,,,,,,,,,
,,5962f252b692380001417ab9,2024-02-18_21h13.09.354,kallum_motion_pilot,2023.2.2,Win32,60.24096386,5962f252b692380001417ab9,65d2b6c8f2eece985d8e374c,65d2b8ec924c2db16f8dae7e,0.0511,0.0511,1,33,195,94,1,eightsix,,,,,,,,,,,,,,,,,,,,,,,,,,,,,,,,,,,,,,,,,,,,,,,,,,,,,,,,,,,,,,,,,,,,,,,,,,,,,,,,,,,,,,,,,,,,,,,,,,,,,,,,,,,,,,,,,,,,,,,,,,,,,,,,,,,,,,,,,
,,5962f252b692380001417ab9,2024-02-18_21h13.09.354,kallum_motion_pilot,2023.2.2,Win32,60.24096386,5962f252b692380001417ab9,65d2b6c8f2eece985d8e374c,65d2b8ec924c2db16f8dae7e,0.0513,0.0514,1,34,196,134,1,eightsix,,,,,,,,,,,,,,,,,,,,,,,,,,,,,,,,,,,,,,,,,,,,,,,,,,,,,,,,,,,,,,,,,,,,,,,,,,,,,,,,,,,,,,,,,,,,,,,,,,,,,,,,,,,,,,,,,,,,,,,,,,,,,,,,,,,,,,,,,
,,5962f252b692380001417ab9,2024-02-18_21h13.09.354,kallum_motion_pilot,2023.2.2,Win32,60.24096386,5962f252b692380001417ab9,65d2b6c8f2eece985d8e374c,65d2b8ec924c2db16f8dae7e,0.0515,0.0515,1,35,197,17,1,onethree,,,,,,,,,,,,,,,,,,,,,,,,,,,,,,,,,,,,,,,,,,,,,,,,,,,,,,,,,,,,,,,,,,,,,,,,,,,,,,,,,,,,,,,,,,,,,,,,,,,,,,,,,,,,,,,,,,,,,,,,,,,,,,,,,,,,,,,,,
,,5962f252b692380001417ab9,2024-02-18_21h13.09.354,kallum_motion_pilot,2023.2.2,Win32,60.24096386,5962f252b692380001417ab9,65d2b6c8f2eece985d8e374c,65d2b8ec924c2db16f8dae7e,0.0515,0.0516,1,36,198,141,1,seveneight,,,,,,,,,,,,,,,,,,,,,,,,,,,,,,,,,,,,,,,,,,,,,,,,,,,,,,,,,,,,,,,,,,,,,,,,,,,,,,,,,,,,,,,,,,,,,,,,,,,,,,,,,,,,,,,,,,,,,,,,,,,,,,,,,,,,,,,,,
,,5962f252b692380001417ab9,2024-02-18_21h13.09.354,kallum_motion_pilot,2023.2.2,Win32,60.24096386,5962f252b692380001417ab9,65d2b6c8f2eece985d8e374c,65d2b8ec924c2db16f8dae7e,0.0516,0.0517,1,37,199,109,1,seveneight,,,,,,,,,,,,,,,,,,,,,,,,,,,,,,,,,,,,,,,,,,,,,,,,,,,,,,,,,,,,,,,,,,,,,,,,,,,,,,,,,,,,,,,,,,,,,,,,,,,,,,,,,,,,,,,,,,,,,,,,,,,,,,,,,,,,,,,,,
,,5962f252b692380001417ab9,2024-02-18_21h13.09.354,kallum_motion_pilot,2023.2.2,Win32,60.24096386,5962f252b692380001417ab9,65d2b6c8f2eece985d8e374c,65d2b8ec924c2db16f8dae7e,0.0518,0.0518,1,38,200,146,1,sixfive,,,,,,,,,,,,,,,,,,,,,,,,,,,,,,,,,,,,,,,,,,,,,,,,,,,,,,,,,,,,,,,,,,,,,,,,,,,,,,,,,,,,,,,,,,,,,,,,,,,,,,,,,,,,,,,,,,,,,,,,,,,,,,,,,,,,,,,,,
,,5962f252b692380001417ab9,2024-02-18_21h13.09.354,kallum_motion_pilot,2023.2.2,Win32,60.24096386,5962f252b692380001417ab9,65d2b6c8f2eece985d8e374c,65d2b8ec924c2db16f8dae7e,0.0519,0.052,1,39,201,6,1,fourtwo,,,,,,,,,,,,,,,,,,,,,,,,,,,,,,,,,,,,,,,,,,,,,,,,,,,,,,,,,,,,,,,,,,,,,,,,,,,,,,,,,,,,,,,,,,,,,,,,,,,,,,,,,,,,,,,,,,,,,,,,,,,,,,,,,,,,,,,,,
,,5962f252b692380001417ab9,2024-02-18_21h13.09.354,kallum_motion_pilot,2023.2.2,Win32,60.24096386,5962f252b692380001417ab9,65d2b6c8f2eece985d8e374c,65d2b8ec924c2db16f8dae7e,0.052,0.0521,1,40,202,86,1,eightsix,,,,,,,,,,,,,,,,,,,,,,,,,,,,,,,,,,,,,,,,,,,,,,,,,,,,,,,,,,,,,,,,,,,,,,,,,,,,,,,,,,,,,,,,,,,,,,,,,,,,,,,,,,,,,,,,,,,,,,,,,,,,,,,,,,,,,,,,,
,,5962f252b692380001417ab9,2024-02-18_21h13.09.354,kallum_motion_pilot,2023.2.2,Win32,60.24096386,5962f252b692380001417ab9,65d2b6c8f2eece985d8e374c,65d2b8ec924c2db16f8dae7e,0.0522,0.0522,1,41,203,106,1,sixfive,,,,,,,,,,,,,,,,,,,,,,,,,,,,,,,,,,,,,,,,,,,,,,,,,,,,,,,,,,,,,,,,,,,,,,,,,,,,,,,,,,,,,,,,,,,,,,,,,,,,,,,,,,,,,,,,,,,,,,,,,,,,,,,,,,,,,,,,,
,,5962f252b692380001417ab9,2024-02-18_21h13.09.354,kallum_motion_pilot,2023.2.2,Win32,60.24096386,5962f252b692380001417ab9,65d2b6c8f2eece985d8e374c,65d2b8ec924c2db16f8dae7e,0.0523,0.0523,1,42,204,105,1,fiveseven,,,,,,,,,,,,,,,,,,,,,,,,,,,,,,,,,,,,,,,,,,,,,,,,,,,,,,,,,,,,,,,,,,,,,,,,,,,,,,,,,,,,,,,,,,,,,,,,,,,,,,,,,,,,,,,,,,,,,,,,,,,,,,,,,,,,,,,,,
,,5962f252b692380001417ab9,2024-02-18_21h13.09.354,kallum_motion_pilot,2023.2.2,Win32,60.24096386,5962f252b692380001417ab9,65d2b6c8f2eece985d8e374c,65d2b8ec924c2db16f8dae7e,0.0524,0.0524,1,43,205,159,1,eightseven,,,,,,,,,,,,,,,,,,,,,,,,,,,,,,,,,,,,,,,,,,,,,,,,,,,,,,,,,,,,,,,,,,,,,,,,,,,,,,,,,,,,,,,,,,,,,,,,,,,,,,,,,,,,,,,,,,,,,,,,,,,,,,,,,,,,,,,,,
,,5962f252b692380001417ab9,2024-02-18_21h13.09.354,kallum_motion_pilot,2023.2.2,Win32,60.24096386,5962f252b692380001417ab9,65d2b6c8f2eece985d8e374c,65d2b8ec924c2db16f8dae7e,0.0525,0.0526,1,44,206,152,1,fivesix,,,,,,,,,,,,,,,,,,,,,,,,,,,,,,,,,,,,,,,,,,,,,,,,,,,,,,,,,,,,,,,,,,,,,,,,,,,,,,,,,,,,,,,,,,,,,,,,,,,,,,,,,,,,,,,,,,,,,,,,,,,,,,,,,,,,,,,,,
,,5962f252b692380001417ab9,2024-02-18_21h13.09.354,kallum_motion_pilot,2023.2.2,Win32,60.24096386,5962f252b692380001417ab9,65d2b6c8f2eece985d8e374c,65d2b8ec924c2db16f8dae7e,0.0526,0.0526,1,45,207,39,1,fourthree,,,,,,,,,,,,,,,,,,,,,,,,,,,,,,,,,,,,,,,,,,,,,,,,,,,,,,,,,,,,,,,,,,,,,,,,,,,,,,,,,,,,,,,,,,,,,,,,,,,,,,,,,,,,,,,,,,,,,,,,,,,,,,,,,,,,,,,,,
,,5962f252b692380001417ab9,2024-02-18_21h13.09.354,kallum_motion_pilot,2023.2.2,Win32,60.24096386,5962f252b692380001417ab9,65d2b6c8f2eece985d8e374c,65d2b8ec924c2db16f8dae7e,0.0526,0.0527,1,46,208,151,1,eightseven,,,,,,,,,,,,,,,,,,,,,,,,,,,,,,,,,,,,,,,,,,,,,,,,,,,,,,,,,,,,,,,,,,,,,,,,,,,,,,,,,,,,,,,,,,,,,,,,,,,,,,,,,,,,,,,,,,,,,,,,,,,,,,,,,,,,,,,,,
,,5962f252b692380001417ab9,2024-02-18_21h13.09.354,kallum_motion_pilot,2023.2.2,Win32,60.24096386,5962f252b692380001417ab9,65d2b6c8f2eece985d8e374c,65d2b8ec924c2db16f8dae7e,0.0528,0.0529,1,47,209,23,1,fourthree,,,,,,,,,,,,,,,,,,,,,,,,,,,,,,,,,,,,,,,,,,,,,,,,,,,,,,,,,,,,,,,,,,,,,,,,,,,,,,,,,,,,,,,,,,,,,,,,,,,,,,,,,,,,,,,,,,,,,,,,,,,,,,,,,,,,,,,,,
,,5962f252b692380001417ab9,2024-02-18_21h13.09.354,kallum_motion_pilot,2023.2.2,Win32,60.24096386,5962f252b692380001417ab9,65d2b6c8f2eece985d8e374c,65d2b8ec924c2db16f8dae7e,0.0529,0.0529,1,48,210,145,1,fiveseven,,,,,,,,,,,,,,,,,,,,,,,,,,,,,,,,,,,,,,,,,,,,,,,,,,,,,,,,,,,,,,,,,,,,,,,,,,,,,,,,,,,,,,,,,,,,,,,,,,,,,,,,,,,,,,,,,,,,,,,,,,,,,,,,,,,,,,,,,
,,5962f252b692380001417ab9,2024-02-18_21h13.09.354,kallum_motion_pilot,2023.2.2,Win32,60.24096386,5962f252b692380001417ab9,65d2b6c8f2eece985d8e374c,65d2b8ec924c2db16f8dae7e,0.053,0.053,1,49,211,92,1,sevenfive,,,,,,,,,,,,,,,,,,,,,,,,,,,,,,,,,,,,,,,,,,,,,,,,,,,,,,,,,,,,,,,,,,,,,,,,,,,,,,,,,,,,,,,,,,,,,,,,,,,,,,,,,,,,,,,,,,,,,,,,,,,,,,,,,,,,,,,,,
,,5962f252b692380001417ab9,2024-02-18_21h13.09.354,kallum_motion_pilot,2023.2.2,Win32,60.24096386,5962f252b692380001417ab9,65d2b6c8f2eece985d8e374c,65d2b8ec924c2db16f8dae7e,0.0532,0.0532,1,50,212,44,1,threeone,,,,,,,,,,,,,,,,,,,,,,,,,,,,,,,,,,,,,,,,,,,,,,,,,,,,,,,,,,,,,,,,,,,,,,,,,,,,,,,,,,,,,,,,,,,,,,,,,,,,,,,,,,,,,,,,,,,,,,,,,,,,,,,,,,,,,,,,,
,,5962f252b692380001417ab9,2024-02-18_21h13.09.354,kallum_motion_pilot,2023.2.2,Win32,60.24096386,5962f252b692380001417ab9,65d2b6c8f2eece985d8e374c,65d2b8ec924c2db16f8dae7e,0.0533,0.0533,1,51,213,40,1,onetwo,,,,,,,,,,,,,,,,,,,,,,,,,,,,,,,,,,,,,,,,,,,,,,,,,,,,,,,,,,,,,,,,,,,,,,,,,,,,,,,,,,,,,,,,,,,,,,,,,,,,,,,,,,,,,,,,,,,,,,,,,,,,,,,,,,,,,,,,,
,,5962f252b692380001417ab9,2024-02-18_21h13.09.354,kallum_motion_pilot,2023.2.2,Win32,60.24096386,5962f252b692380001417ab9,65d2b6c8f2eece985d8e374c,65d2b8ec924c2db16f8dae7e,0.0534,0.0535,1,52,214,156,1,sevenfive,,,,,,,,,,,,,,,,,,,,,,,,,,,,,,,,,,,,,,,,,,,,,,,,,,,,,,,,,,,,,,,,,,,,,,,,,,,,,,,,,,,,,,,,,,,,,,,,,,,,,,,,,,,,,,,,,,,,,,,,,,,,,,,,,,,,,,,,,
,,5962f252b692380001417ab9,2024-02-18_21h13.09.354,kallum_motion_pilot,2023.2.2,Win32,60.24096386,5962f252b692380001417ab9,65d2b6c8f2eece985d8e374c,65d2b8ec924c2db16f8dae7e,0.0536,0.0536,1,53,215,57,1,onethree,,,,,,,,,,,,,,,,,,,,,,,,,,,,,,,,,,,,,,,,,,,,,,,,,,,,,,,,,,,,,,,,,,,,,,,,,,,,,,,,,,,,,,,,,,,,,,,,,,,,,,,,,,,,,,,,,,,,,,,,,,,,,,,,,,,,,,,,,
,,5962f252b692380001417ab9,2024-02-18_21h13.09.354,kallum_motion_pilot,2023.2.2,Win32,60.24096386,5962f252b692380001417ab9,65d2b6c8f2eece985d8e374c,65d2b8ec924c2db16f8dae7e,0.0536,0.0538,1,54,216,16,1,onetwo,,,,,,,,,,,,,,,,,,,,,,,,,,,,,,,,,,,,,,,,,,,,,,,,,,,,,,,,,,,,,,,,,,,,,,,,,,,,,,,,,,,,,,,,,,,,,,,,,,,,,,,,,,,,,,,,,,,,,,,,,,,,,,,,,,,,,,,,,
,,5962f252b692380001417ab9,2024-02-18_21h13.09.354,kallum_motion_pilot,2023.2.2,Win32,60.24096386,5962f252b692380001417ab9,65d2b6c8f2eece985d8e374c,65d2b8ec924c2db16f8dae7e,0.0538,0.0538,1,55,217,32,1,onetwo,,,,,,,,,,,,,,,,,,,,,,,,,,,,,,,,,,,,,,,,,,,,,,,,,,,,,,,,,,,,,,,,,,,,,,,,,,,,,,,,,,,,,,,,,,,,,,,,,,,,,,,,,,,,,,,,,,,,,,,,,,,,,,,,,,,,,,,,,
,,5962f252b692380001417ab9,2024-02-18_21h13.09.354,kallum_motion_pilot,2023.2.2,Win32,60.24096386,5962f252b692380001417ab9,65d2b6c8f2eece985d8e374c,65d2b8ec924c2db16f8dae7e,0.0539,0.054,1,56,218,60,1,threeone,,,,,,,,,,,,,,,,,,,,,,,,,,,,,,,,,,,,,,,,,,,,,,,,,,,,,,,,,,,,,,,,,,,,,,,,,,,,,,,,,,,,,,,,,,,,,,,,,,,,,,,,,,,,,,,,,,,,,,,,,,,,,,,,,,,,,,,,,
,,5962f252b692380001417ab9,2024-02-18_21h13.09.354,kallum_motion_pilot,2023.2.2,Win32,60.24096386,5962f252b692380001417ab9,65d2b6c8f2eece985d8e374c,65d2b8ec924c2db16f8dae7e,0.054,0.0541,1,57,219,100,1,sevenfive,,,,,,,,,,,,,,,,,,,,,,,,,,,,,,,,,,,,,,,,,,,,,,,,,,,,,,,,,,,,,,,,,,,,,,,,,,,,,,,,,,,,,,,,,,,,,,,,,,,,,,,,,,,,,,,,,,,,,,,,,,,,,,,,,,,,,,,,,
,,5962f252b692380001417ab9,2024-02-18_21h13.09.354,kallum_motion_pilot,2023.2.2,Win32,60.24096386,5962f252b692380001417ab9,65d2b6c8f2eece985d8e374c,65d2b8ec924c2db16f8dae7e,0.0542,0.0542,1,58,220,51,1,twofour,,,,,,,,,,,,,,,,,,,,,,,,,,,,,,,,,,,,,,,,,,,,,,,,,,,,,,,,,,,,,,,,,,,,,,,,,,,,,,,,,,,,,,,,,,,,,,,,,,,,,,,,,,,,,,,,,,,,,,,,,,,,,,,,,,,,,,,,,
,,5962f252b692380001417ab9,2024-02-18_21h13.09.354,kallum_motion_pilot,2023.2.2,Win32,60.24096386,5962f252b692380001417ab9,65d2b6c8f2eece985d8e374c,65d2b8ec924c2db16f8dae7e,0.0542,0.0543,1,59,221,130,1,sixfive,,,,,,,,,,,,,,,,,,,,,,,,,,,,,,,,,,,,,,,,,,,,,,,,,,,,,,,,,,,,,,,,,,,,,,,,,,,,,,,,,,,,,,,,,,,,,,,,,,,,,,,,,,,,,,,,,,,,,,,,,,,,,,,,,,,,,,,,,
,,5962f252b692380001417ab9,2024-02-18_21h13.09.354,kallum_motion_pilot,2023.2.2,Win32,60.24096386,5962f252b692380001417ab9,65d2b6c8f2eece985d8e374c,65d2b8ec924c2db16f8dae7e,0.0544,0.0546,1,60,222,143,1,eightseven,,,,,,,,,,,,,,,,,,,,,,,,,,,,,,,,,,,,,,,,,,,,,,,,,,,,,,,,,,,,,,,,,,,,,,,,,,,,,,,,,,,,,,,,,,,,,,,,,,,,,,,,,,,,,,,,,,,,,,,,,,,,,,,,,,,,,,,,,
,,5962f252b692380001417ab9,2024-02-18_21h13.09.354,kallum_motion_pilot,2023.2.2,Win32,60.24096386,5962f252b692380001417ab9,65d2b6c8f2eece985d8e374c,65d2b8ec924c2db16f8dae7e,0.0548,0.0548,1,61,223,26,1,twoone,,,,,,,,,,,,,,,,,,,,,,,,,,,,,,,,,,,,,,,,,,,,,,,,,,,,,,,,,,,,,,,,,,,,,,,,,,,,,,,,,,,,,,,,,,,,,,,,,,,,,,,,,,,,,,,,,,,,,,,,,,,,,,,,,,,,,,,,,
,,5962f252b692380001417ab9,2024-02-18_21h13.09.354,kallum_motion_pilot,2023.2.2,Win32,60.24096386,5962f252b692380001417ab9,65d2b6c8f2eece985d8e374c,65d2b8ec924c2db16f8dae7e,0.055,0.0552,1,62,224,43,1,twofour,,,,,,,,,,,,,,,,,,,,,,,,,,,,,,,,,,,,,,,,,,,,,,,,,,,,,,,,,,,,,,,,,,,,,,,,,,,,,,,,,,,,,,,,,,,,,,,,,,,,,,,,,,,,,,,,,,,,,,,,,,,,,,,,,,,,,,,,,
,,5962f252b692380001417ab9,2024-02-18_21h13.09.354,kallum_motion_pilot,2023.2.2,Win32,60.24096386,5962f252b692380001417ab9,65d2b6c8f2eece985d8e374c,65d2b8ec924c2db16f8dae7e,0.0552,0.0554,1,63,225,121,1,fiveseven,,,,,,,,,,,,,,,,,,,,,,,,,,,,,,,,,,,,,,,,,,,,,,,,,,,,,,,,,,,,,,,,,,,,,,,,,,,,,,,,,,,,,,,,,,,,,,,,,,,,,,,,,,,,,,,,,,,,,,,,,,,,,,,,,,,,,,,,,
,,5962f252b692380001417ab9,2024-02-18_21h13.09.354,kallum_motion_pilot,2023.2.2,Win32,60.24096386,5962f252b692380001417ab9,65d2b6c8f2eece985d8e374c,65d2b8ec924c2db16f8dae7e,0.0555,0.0556,1,64,226,112,1,fivesix,,,,,,,,,,,,,,,,,,,,,,,,,,,,,,,,,,,,,,,,,,,,,,,,,,,,,,,,,,,,,,,,,,,,,,,,,,,,,,,,,,,,,,,,,,,,,,,,,,,,,,,,,,,,,,,,,,,,,,,,,,,,,,,,,,,,,,,,,
,,5962f252b692380001417ab9,2024-02-18_21h13.09.354,kallum_motion_pilot,2023.2.2,Win32,60.24096386,5962f252b692380001417ab9,65d2b6c8f2eece985d8e374c,65d2b8ec924c2db16f8dae7e,0.0557,0.0558,1,65,227,69,1,threefour,,,,,,,,,,,,,,,,,,,,,,,,,,,,,,,,,,,,,,,,,,,,,,,,,,,,,,,,,,,,,,,,,,,,,,,,,,,,,,,,,,,,,,,,,,,,,,,,,,,,,,,,,,,,,,,,,,,,,,,,,,,,,,,,,,,,,,,,,
,,5962f252b692380001417ab9,2024-02-18_21h13.09.354,kallum_motion_pilot,2023.2.2,Win32,60.24096386,5962f252b692380001417ab9,65d2b6c8f2eece985d8e374c,65d2b8ec924c2db16f8dae7e,0.0559,0.0559,1,66,228,157,1,seveneight,,,,,,,,,,,,,,,,,,,,,,,,,,,,,,,,,,,,,,,,,,,,,,,,,,,,,,,,,,,,,,,,,,,,,,,,,,,,,,,,,,,,,,,,,,,,,,,,,,,,,,,,,,,,,,,,,,,,,,,,,,,,,,,,,,,,,,,,,
,,5962f252b692380001417ab9,2024-02-18_21h13.09.354,kallum_motion_pilot,2023.2.2,Win32,60.24096386,5962f252b692380001417ab9,65d2b6c8f2eece985d8e374c,65d2b8ec924c2db16f8dae7e,0.0561,0.0564,1,67,229,87,1,eightseven,,,,,,,,,,,,,,,,,,,,,,,,,,,,,,,,,,,,,,,,,,,,,,,,,,,,,,,,,,,,,,,,,,,,,,,,,,,,,,,,,,,,,,,,,,,,,,,,,,,,,,,,,,,,,,,,,,,,,,,,,,,,,,,,,,,,,,,,,
,,5962f252b692380001417ab9,2024-02-18_21h13.09.354,kallum_motion_pilot,2023.2.2,Win32,60.24096386,5962f252b692380001417ab9,65d2b6c8f2eece985d8e374c,65d2b8ec924c2db16f8dae7e,0.0565,0.0565,1,68,230,72,1,onetwo,,,,,,,,,,,,,,,,,,,,,,,,,,,,,,,,,,,,,,,,,,,,,,,,,,,,,,,,,,,,,,,,,,,,,,,,,,,,,,,,,,,,,,,,,,,,,,,,,,,,,,,,,,,,,,,,,,,,,,,,,,,,,,,,,,,,,,,,,
,,5962f252b692380001417ab9,2024-02-18_21h13.09.354,kallum_motion_pilot,2023.2.2,Win32,60.24096386,5962f252b692380001417ab9,65d2b6c8f2eece985d8e374c,65d2b8ec924c2db16f8dae7e,0.0567,0.0567,1,69,231,71,1,fourthree,,,,,,,,,,,,,,,,,,,,,,,,,,,,,,,,,,,,,,,,,,,,,,,,,,,,,,,,,,,,,,,,,,,,,,,,,,,,,,,,,,,,,,,,,,,,,,,,,,,,,,,,,,,,,,,,,,,,,,,,,,,,,,,,,,,,,,,,,
,,5962f252b692380001417ab9,2024-02-18_21h13.09.354,kallum_motion_pilot,2023.2.2,Win32,60.24096386,5962f252b692380001417ab9,65d2b6c8f2eece985d8e374c,65d2b8ec924c2db16f8dae7e,0.0567,0.0568,1,70,232,101,1,seveneight,,,,,,,,,,,,,,,,,,,,,,,,,,,,,,,,,,,,,,,,,,,,,,,,,,,,,,,,,,,,,,,,,,,,,,,,,,,,,,,,,,,,,,,,,,,,,,,,,,,,,,,,,,,,,,,,,,,,,,,,,,,,,,,,,,,,,,,,,
,,5962f252b692380001417ab9,2024-02-18_21h13.09.354,kallum_motion_pilot,2023.2.2,Win32,60.24096386,5962f252b692380001417ab9,65d2b6c8f2eece985d8e374c,65d2b8ec924c2db16f8dae7e,0.0569,0.057,1,71,233,22,1,fourtwo,,,,,,,,,,,,,,,,,,,,,,,,,,,,,,,,,,,,,,,,,,,,,,,,,,,,,,,,,,,,,,,,,,,,,,,,,,,,,,,,,,,,,,,,,,,,,,,,,,,,,,,,,,,,,,,,,,,,,,,,,,,,,,,,,,,,,,,,,
,,5962f252b692380001417ab9,2024-02-18_21h13.09.354,kallum_motion_pilot,2023.2.2,Win32,60.24096386,5962f252b692380001417ab9,65d2b6c8f2eece985d8e374c,65d2b8ec924c2db16f8dae7e,0.057,0.0571,1,72,234,52,1,threeone,,,,,,,,,,,,,,,,,,,,,,,,,,,,,,,,,,,,,,,,,,,,,,,,,,,,,,,,,,,,,,,,,,,,,,,,,,,,,,,,,,,,,,,,,,,,,,,,,,,,,,,,,,,,,,,,,,,,,,,,,,,,,,,,,,,,,,,,,
,,5962f252b692380001417ab9,2024-02-18_21h13.09.354,kallum_motion_pilot,2023.2.2,Win32,60.24096386,5962f252b692380001417ab9,65d2b6c8f2eece985d8e374c,65d2b8ec924c2db16f8dae7e,0.0572,0.0572,1,73,235,139,1,sixeight,,,,,,,,,,,,,,,,,,,,,,,,,,,,,,,,,,,,,,,,,,,,,,,,,,,,,,,,,,,,,,,,,,,,,,,,,,,,,,,,,,,,,,,,,,,,,,,,,,,,,,,,,,,,,,,,,,,,,,,,,,,,,,,,,,,,,,,,,
,,5962f252b692380001417ab9,2024-02-18_21h13.09.354,kallum_motion_pilot,2023.2.2,Win32,60.24096386,5962f252b692380001417ab9,65d2b6c8f2eece985d8e374c,65d2b8ec924c2db16f8dae7e,0.0574,0.0574,1,74,236,144,1,fivesix,,,,,,,,,,,,,,,,,,,,,,,,,,,,,,,,,,,,,,,,,,,,,,,,,,,,,,,,,,,,,,,,,,,,,,,,,,,,,,,,,,,,,,,,,,,,,,,,,,,,,,,,,,,,,,,,,,,,,,,,,,,,,,,,,,,,,,,,,
,,5962f252b692380001417ab9,2024-02-18_21h13.09.354,kallum_motion_pilot,2023.2.2,Win32,60.24096386,5962f252b692380001417ab9,65d2b6c8f2eece985d8e374c,65d2b8ec924c2db16f8dae7e,0.0575,0.0575,1,75,237,11,1,twofour,,,,,,,,,,,,,,,,,,,,,,,,,,,,,,,,,,,,,,,,,,,,,,,,,,,,,,,,,,,,,,,,,,,,,,,,,,,,,,,,,,,,,,,,,,,,,,,,,,,,,,,,,,,,,,,,,,,,,,,,,,,,,,,,,,,,,,,,,
,,5962f252b692380001417ab9,2024-02-18_21h13.09.354,kallum_motion_pilot,2023.2.2,Win32,60.24096386,5962f252b692380001417ab9,65d2b6c8f2eece985d8e374c,65d2b8ec924c2db16f8dae7e,0.0576,0.0576,1,76,238,79,1,eightseven,,,,,,,,,,,,,,,,,,,,,,,,,,,,,,,,,,,,,,,,,,,,,,,,,,,,,,,,,,,,,,,,,,,,,,,,,,,,,,,,,,,,,,,,,,,,,,,,,,,,,,,,,,,,,,,,,,,,,,,,,,,,,,,,,,,,,,,,,
,,5962f252b692380001417ab9,2024-02-18_21h13.09.354,kallum_motion_pilot,2023.2.2,Win32,60.24096386,5962f252b692380001417ab9,65d2b6c8f2eece985d8e374c,65d2b8ec924c2db16f8dae7e,0.0577,0.0578,1,77,239,59,1,twofour,,,,,,,,,,,,,,,,,,,,,,,,,,,,,,,,,,,,,,,,,,,,,,,,,,,,,,,,,,,,,,,,,,,,,,,,,,,,,,,,,,,,,,,,,,,,,,,,,,,,,,,,,,,,,,,,,,,,,,,,,,,,,,,,,,,,,,,,,
,,5962f252b692380001417ab9,2024-02-18_21h13.09.354,kallum_motion_pilot,2023.2.2,Win32,60.24096386,5962f252b692380001417ab9,65d2b6c8f2eece985d8e374c,65d2b8ec924c2db16f8dae7e,0.0578,0.0578,1,78,240,147,1,sixeight,,,,,,,,,,,,,,,,,,,,,,,,,,,,,,,,,,,,,,,,,,,,,,,,,,,,,,,,,,,,,,,,,,,,,,,,,,,,,,,,,,,,,,,,,,,,,,,,,,,,,,,,,,,,,,,,,,,,,,,,,,,,,,,,,,,,,,,,,
,,5962f252b692380001417ab9,2024-02-18_21h13.09.354,kallum_motion_pilot,2023.2.2,Win32,60.24096386,5962f252b692380001417ab9,65d2b6c8f2eece985d8e374c,65d2b8ec924c2db16f8dae7e,0.0579,0.0579,1,79,241,120,1,fivesix,,,,,,,,,,,,,,,,,,,,,,,,,,,,,,,,,,,,,,,,,,,,,,,,,,,,,,,,,,,,,,,,,,,,,,,,,,,,,,,,,,,,,,,,,,,,,,,,,,,,,,,,,,,,,,,,,,,,,,,,,,,,,,,,,,,,,,,,,
,,5962f252b692380001417ab9,2024-02-18_21h13.09.354,kallum_motion_pilot,2023.2.2,Win32,60.24096386,5962f252b692380001417ab9,65d2b6c8f2eece985d8e374c,65d2b8ec924c2db16f8dae7e,0.058,0.058,1,80,242,68,1,threeone,,,,,,,,,,,,,,,,,,,,,,,,,,,,,,,,,,,,,,,,,,,,,,,,,,,,,,,,,,,,,,,,,,,,,,,,,,,,,,,,,,,,,,,,,,,,,,,,,,,,,,,,,,,,,,,,,,,,,,,,,,,,,,,,,,,,,,,,,
,,5962f252b692380001417ab9,2024-02-18_21h13.09.354,kallum_motion_pilot,2023.2.2,Win32,60.24096386,5962f252b692380001417ab9,65d2b6c8f2eece985d8e374c,65d2b8ec924c2db16f8dae7e,0.0581,0.0582,1,81,243,49,1,onethree,,,,,,,,,,,,,,,,,,,,,,,,,,,,,,,,,,,,,,,,,,,,,,,,,,,,,,,,,,,,,,,,,,,,,,,,,,,,,,,,,,,,,,,,,,,,,,,,,,,,,,,,,,,,,,,,,,,,,,,,,,,,,,,,,,,,,,,,,
,,5962f252b692380001417ab9,2024-02-18_21h13.09.354,kallum_motion_pilot,2023.2.2,Win32,60.24096386,5962f252b692380001417ab9,65d2b6c8f2eece985d8e374c,65d2b8ec924c2db16f8dae7e,0.0582,0.0583,1,82,244,3,1,twofour,,,,,,,,,,,,,,,,,,,,,,,,,,,,,,,,,,,,,,,,,,,,,,,,,,,,,,,,,,,,,,,,,,,,,,,,,,,,,,,,,,,,,,,,,,,,,,,,,,,,,,,,,,,,,,,,,,,,,,,,,,,,,,,,,,,,,,,,,
,,5962f252b692380001417ab9,2024-02-18_21h13.09.354,kallum_motion_pilot,2023.2.2,Win32,60.24096386,5962f252b692380001417ab9,65d2b6c8f2eece985d8e374c,65d2b8ec924c2db16f8dae7e,0.0583,0.0584,1,83,245,21,1,threefour,,,,,,,,,,,,,,,,,,,,,,,,,,,,,,,,,,,,,,,,,,,,,,,,,,,,,,,,,,,,,,,,,,,,,,,,,,,,,,,,,,,,,,,,,,,,,,,,,,,,,,,,,,,,,,,,,,,,,,,,,,,,,,,,,,,,,,,,,
,,5962f252b692380001417ab9,2024-02-18_21h13.09.354,kallum_motion_pilot,2023.2.2,Win32,60.24096386,5962f252b692380001417ab9,65d2b6c8f2eece985d8e374c,65d2b8ec924c2db16f8dae7e,0.0585,0.0585,1,84,246,34,1,twoone,,,,,,,,,,,,,,,,,,,,,,,,,,,,,,,,,,,,,,,,,,,,,,,,,,,,,,,,,,,,,,,,,,,,,,,,,,,,,,,,,,,,,,,,,,,,,,,,,,,,,,,,,,,,,,,,,,,,,,,,,,,,,,,,,,,,,,,,,
,,5962f252b692380001417ab9,2024-02-18_21h13.09.354,kallum_motion_pilot,2023.2.2,Win32,60.24096386,5962f252b692380001417ab9,65d2b6c8f2eece985d8e374c,65d2b8ec924c2db16f8dae7e,0.0585,0.0586,1,85,247,91,1,sixeight,,,,,,,,,,,,,,,,,,,,,,,,,,,,,,,,,,,,,,,,,,,,,,,,,,,,,,,,,,,,,,,,,,,,,,,,,,,,,,,,,,,,,,,,,,,,,,,,,,,,,,,,,,,,,,,,,,,,,,,,,,,,,,,,,,,,,,,,,
,,5962f252b692380001417ab9,2024-02-18_21h13.09.354,kallum_motion_pilot,2023.2.2,Win32,60.24096386,5962f252b692380001417ab9,65d2b6c8f2eece985d8e374c,65d2b8ec924c2db16f8dae7e,0.0587,0.0588,1,86,248,155,1,sixeight,,,,,,,,,,,,,,,,,,,,,,,,,,,,,,,,,,,,,,,,,,,,,,,,,,,,,,,,,,,,,,,,,,,,,,,,,,,,,,,,,,,,,,,,,,,,,,,,,,,,,,,,,,,,,,,,,,,,,,,,,,,,,,,,,,,,,,,,,
,,5962f252b692380001417ab9,2024-02-18_21h13.09.354,kallum_motion_pilot,2023.2.2,Win32,60.24096386,5962f252b692380001417ab9,65d2b6c8f2eece985d8e374c,65d2b8ec924c2db16f8dae7e,0.0588,0.0589,1,87,249,122,1,sixfive,,,,,,,,,,,,,,,,,,,,,,,,,,,,,,,,,,,,,,,,,,,,,,,,,,,,,,,,,,,,,,,,,,,,,,,,,,,,,,,,,,,,,,,,,,,,,,,,,,,,,,,,,,,,,,,,,,,,,,,,,,,,,,,,,,,,,,,,,
,,5962f252b692380001417ab9,2024-02-18_21h13.09.354,kallum_motion_pilot,2023.2.2,Win32,60.24096386,5962f252b692380001417ab9,65d2b6c8f2eece985d8e374c,65d2b8ec924c2db16f8dae7e,0.0589,0.059,1,88,250,78,1,fourtwo,,,,,,,,,,,,,,,,,,,,,,,,,,,,,,,,,,,,,,,,,,,,,,,,,,,,,,,,,,,,,,,,,,,,,,,,,,,,,,,,,,,,,,,,,,,,,,,,,,,,,,,,,,,,,,,,,,,,,,,,,,,,,,,,,,,,,,,,,
,,5962f252b692380001417ab9,2024-02-18_21h13.09.354,kallum_motion_pilot,2023.2.2,Win32,60.24096386,5962f252b692380001417ab9,65d2b6c8f2eece985d8e374c,65d2b8ec924c2db16f8dae7e,0.059,0.0591,1,89,251,42,1,twoone,,,,,,,,,,,,,,,,,,,,,,,,,,,,,,,,,,,,,,,,,,,,,,,,,,,,,,,,,,,,,,,,,,,,,,,,,,,,,,,,,,,,,,,,,,,,,,,,,,,,,,,,,,,,,,,,,,,,,,,,,,,,,,,,,,,,,,,,,
,,5962f252b692380001417ab9,2024-02-18_21h13.09.354,kallum_motion_pilot,2023.2.2,Win32,60.24096386,5962f252b692380001417ab9,65d2b6c8f2eece985d8e374c,65d2b8ec924c2db16f8dae7e,0.0591,0.0592,1,90,252,65,1,onethree,,,,,,,,,,,,,,,,,,,,,,,,,,,,,,,,,,,,,,,,,,,,,,,,,,,,,,,,,,,,,,,,,,,,,,,,,,,,,,,,,,,,,,,,,,,,,,,,,,,,,,,,,,,,,,,,,,,,,,,,,,,,,,,,,,,,,,,,,
,,5962f252b692380001417ab9,2024-02-18_21h13.09.354,kallum_motion_pilot,2023.2.2,Win32,60.24096386,5962f252b692380001417ab9,65d2b6c8f2eece985d8e374c,65d2b8ec924c2db16f8dae7e,0.0593,0.0593,1,91,253,58,1,twoone,,,,,,,,,,,,,,,,,,,,,,,,,,,,,,,,,,,,,,,,,,,,,,,,,,,,,,,,,,,,,,,,,,,,,,,,,,,,,,,,,,,,,,,,,,,,,,,,,,,,,,,,,,,,,,,,,,,,,,,,,,,,,,,,,,,,,,,,,
,,5962f252b692380001417ab9,2024-02-18_21h13.09.354,kallum_motion_pilot,2023.2.2,Win32,60.24096386,5962f252b692380001417ab9,65d2b6c8f2eece985d8e374c,65d2b8ec924c2db16f8dae7e,0.0596,0.0596,1,92,254,83,1,sixeight,,,,,,,,,,,,,,,,,,,,,,,,,,,,,,,,,,,,,,,,,,,,,,,,,,,,,,,,,,,,,,,,,,,,,,,,,,,,,,,,,,,,,,,,,,,,,,,,,,,,,,,,,,,,,,,,,,,,,,,,,,,,,,,,,,,,,,,,,
,,5962f252b692380001417ab9,2024-02-18_21h13.09.354,kallum_motion_pilot,2023.2.2,Win32,60.24096386,5962f252b692380001417ab9,65d2b6c8f2eece985d8e374c,65d2b8ec924c2db16f8dae7e,0.0598,0.0599,1,93,255,0,1,onetwo,,,,,,,,,,,,,,,,,,,,,,,,,,,,,,,,,,,,,,,,,,,,,,,,,,,,,,,,,,,,,,,,,,,,,,,,,,,,,,,,,,,,,,,,,,,,,,,,,,,,,,,,,,,,,,,,,,,,,,,,,,,,,,,,,,,,,,,,,
,,5962f252b692380001417ab9,2024-02-18_21h13.09.354,kallum_motion_pilot,2023.2.2,Win32,60.24096386,5962f252b692380001417ab9,65d2b6c8f2eece985d8e374c,65d2b8ec924c2db16f8dae7e,0.0599,0.06,1,94,256,89,1,fiveseven,,,,,,,,,,,,,,,,,,,,,,,,,,,,,,,,,,,,,,,,,,,,,,,,,,,,,,,,,,,,,,,,,,,,,,,,,,,,,,,,,,,,,,,,,,,,,,,,,,,,,,,,,,,,,,,,,,,,,,,,,,,,,,,,,,,,,,,,,
,,5962f252b692380001417ab9,2024-02-18_21h13.09.354,kallum_motion_pilot,2023.2.2,Win32,60.24096386,5962f252b692380001417ab9,65d2b6c8f2eece985d8e374c,65d2b8ec924c2db16f8dae7e,0.06,0.0602,1,95,257,116,1,sevenfive,,,,,,,,,,,,,,,,,,,,,,,,,,,,,,,,,,,,,,,,,,,,,,,,,,,,,,,,,,,,,,,,,,,,,,,,,,,,,,,,,,,,,,,,,,,,,,,,,,,,,,,,,,,,,,,,,,,,,,,,,,,,,,,,,,,,,,,,,
,,5962f252b692380001417ab9,2024-02-18_21h13.09.354,kallum_motion_pilot,2023.2.2,Win32,60.24096386,5962f252b692380001417ab9,65d2b6c8f2eece985d8e374c,65d2b8ec924c2db16f8dae7e,0.0602,0.0602,1,96,258,70,1,fourtwo,,,,,,,,,,,,,,,,,,,,,,,,,,,,,,,,,,,,,,,,,,,,,,,,,,,,,,,,,,,,,,,,,,,,,,,,,,,,,,,,,,,,,,,,,,,,,,,,,,,,,,,,,,,,,,,,,,,,,,,,,,,,,,,,,,,,,,,,,
,,5962f252b692380001417ab9,2024-02-18_21h13.09.354,kallum_motion_pilot,2023.2.2,Win32,60.24096386,5962f252b692380001417ab9,65d2b6c8f2eece985d8e374c,65d2b8ec924c2db16f8dae7e,0.0602,0.0604,1,97,259,25,1,onethree,,,,,,,,,,,,,,,,,,,,,,,,,,,,,,,,,,,,,,,,,,,,,,,,,,,,,,,,,,,,,,,,,,,,,,,,,,,,,,,,,,,,,,,,,,,,,,,,,,,,,,,,,,,,,,,,,,,,,,,,,,,,,,,,,,,,,,,,,
,,5962f252b692380001417ab9,2024-02-18_21h13.09.354,kallum_motion_pilot,2023.2.2,Win32,60.24096386,5962f252b692380001417ab9,65d2b6c8f2eece985d8e374c,65d2b8ec924c2db16f8dae7e,0.0604,0.0605,1,98,260,126,1,eightsix,,,,,,,,,,,,,,,,,,,,,,,,,,,,,,,,,,,,,,,,,,,,,,,,,,,,,,,,,,,,,,,,,,,,,,,,,,,,,,,,,,,,,,,,,,,,,,,,,,,,,,,,,,,,,,,,,,,,,,,,,,,,,,,,,,,,,,,,,
,,5962f252b692380001417ab9,2024-02-18_21h13.09.354,kallum_motion_pilot,2023.2.2,Win32,60.24096386,5962f252b692380001417ab9,65d2b6c8f2eece985d8e374c,65d2b8ec924c2db16f8dae7e,0.0605,0.0606,1,99,261,160,1,fivesix,,,,,,,,,,,,,,,,,,,,,,,,,,,,,,,,,,,,,,,,,,,,,,,,,,,,,,,,,,,,,,,,,,,,,,,,,,,,,,,,,,,,,,,,,,,,,,,,,,,,,,,,,,,,,,,,,,,,,,,,,,,,,,,,,,,,,,,,,
,,5962f252b692380001417ab9,2024-02-18_21h13.09.354,kallum_motion_pilot,2023.2.2,Win32,60.24096386,5962f252b692380001417ab9,65d2b6c8f2eece985d8e374c,65d2b8ec924c2db16f8dae7e,0.0607,0.0607,1,100,262,102,1,eightsix,,,,,,,,,,,,,,,,,,,,,,,,,,,,,,,,,,,,,,,,,,,,,,,,,,,,,,,,,,,,,,,,,,,,,,,,,,,,,,,,,,,,,,,,,,,,,,,,,,,,,,,,,,,,,,,,,,,,,,,,,,,,,,,,,,,,,,,,,
,,5962f252b692380001417ab9,2024-02-18_21h13.09.354,kallum_motion_pilot,2023.2.2,Win32,60.24096386,5962f252b692380001417ab9,65d2b6c8f2eece985d8e374c,65d2b8ec924c2db16f8dae7e,0.0608,0.0608,1,101,263,84,1,sevenfive,,,,,,,,,,,,,,,,,,,,,,,,,,,,,,,,,,,,,,,,,,,,,,,,,,,,,,,,,,,,,,,,,,,,,,,,,,,,,,,,,,,,,,,,,,,,,,,,,,,,,,,,,,,,,,,,,,,,,,,,,,,,,,,,,,,,,,,,,
,,5962f252b692380001417ab9,2024-02-18_21h13.09.354,kallum_motion_pilot,2023.2.2,Win32,60.24096386,5962f252b692380001417ab9,65d2b6c8f2eece985d8e374c,65d2b8ec924c2db16f8dae7e,0.061,0.061,1,102,264,107,1,sixeight,,,,,,,,,,,,,,,,,,,,,,,,,,,,,,,,,,,,,,,,,,,,,,,,,,,,,,,,,,,,,,,,,,,,,,,,,,,,,,,,,,,,,,,,,,,,,,,,,,,,,,,,,,,,,,,,,,,,,,,,,,,,,,,,,,,,,,,,,
,,5962f252b692380001417ab9,2024-02-18_21h13.09.354,kallum_motion_pilot,2023.2.2,Win32,60.24096386,5962f252b692380001417ab9,65d2b6c8f2eece985d8e374c,65d2b8ec924c2db16f8dae7e,0.061,0.0611,1,103,265,104,1,fivesix,,,,,,,,,,,,,,,,,,,,,,,,,,,,,,,,,,,,,,,,,,,,,,,,,,,,,,,,,,,,,,,,,,,,,,,,,,,,,,,,,,,,,,,,,,,,,,,,,,,,,,,,,,,,,,,,,,,,,,,,,,,,,,,,,,,,,,,,,
,,5962f252b692380001417ab9,2024-02-18_21h13.09.354,kallum_motion_pilot,2023.2.2,Win32,60.24096386,5962f252b692380001417ab9,65d2b6c8f2eece985d8e374c,65d2b8ec924c2db16f8dae7e,0.0612,0.0612,1,104,266,41,1,onethree,,,,,,,,,,,,,,,,,,,,,,,,,,,,,,,,,,,,,,,,,,,,,,,,,,,,,,,,,,,,,,,,,,,,,,,,,,,,,,,,,,,,,,,,,,,,,,,,,,,,,,,,,,,,,,,,,,,,,,,,,,,,,,,,,,,,,,,,,
,,5962f252b692380001417ab9,2024-02-18_21h13.09.354,kallum_motion_pilot,2023.2.2,Win32,60.24096386,5962f252b692380001417ab9,65d2b6c8f2eece985d8e374c,65d2b8ec924c2db16f8dae7e,0.0613,0.0614,1,105,267,97,1,fiveseven,,,,,,,,,,,,,,,,,,,,,,,,,,,,,,,,,,,,,,,,,,,,,,,,,,,,,,,,,,,,,,,,,,,,,,,,,,,,,,,,,,,,,,,,,,,,,,,,,,,,,,,,,,,,,,,,,,,,,,,,,,,,,,,,,,,,,,,,,
,,5962f252b692380001417ab9,2024-02-18_21h13.09.354,kallum_motion_pilot,2023.2.2,Win32,60.24096386,5962f252b692380001417ab9,65d2b6c8f2eece985d8e374c,65d2b8ec924c2db16f8dae7e,0.0614,0.0615,1,106,268,85,1,seveneight,,,,,,,,,,,,,,,,,,,,,,,,,,,,,,,,,,,,,,,,,,,,,,,,,,,,,,,,,,,,,,,,,,,,,,,,,,,,,,,,,,,,,,,,,,,,,,,,,,,,,,,,,,,,,,,,,,,,,,,,,,,,,,,,,,,,,,,,,
,,5962f252b692380001417ab9,2024-02-18_21h13.09.354,kallum_motion_pilot,2023.2.2,Win32,60.24096386,5962f252b692380001417ab9,65d2b6c8f2eece985d8e374c,65d2b8ec924c2db16f8dae7e,0.0615,0.0616,1,107,269,56,1,onetwo,,,,,,,,,,,,,,,,,,,,,,,,,,,,,,,,,,,,,,,,,,,,,,,,,,,,,,,,,,,,,,,,,,,,,,,,,,,,,,,,,,,,,,,,,,,,,,,,,,,,,,,,,,,,,,,,,,,,,,,,,,,,,,,,,,,,,,,,,
,,5962f252b692380001417ab9,2024-02-18_21h13.09.354,kallum_motion_pilot,2023.2.2,Win32,60.24096386,5962f252b692380001417ab9,65d2b6c8f2eece985d8e374c,65d2b8ec924c2db16f8dae7e,0.0617,0.0618,1,108,270,1,1,onethree,,,,,,,,,,,,,,,,,,,,,,,,,,,,,,,,,,,,,,,,,,,,,,,,,,,,,,,,,,,,,,,,,,,,,,,,,,,,,,,,,,,,,,,,,,,,,,,,,,,,,,,,,,,,,,,,,,,,,,,,,,,,,,,,,,,,,,,,,
,,5962f252b692380001417ab9,2024-02-18_21h13.09.354,kallum_motion_pilot,2023.2.2,Win32,60.24096386,5962f252b692380001417ab9,65d2b6c8f2eece985d8e374c,65d2b8ec924c2db16f8dae7e,0.0618,0.0618,1,109,271,108,1,sevenfive,,,,,,,,,,,,,,,,,,,,,,,,,,,,,,,,,,,,,,,,,,,,,,,,,,,,,,,,,,,,,,,,,,,,,,,,,,,,,,,,,,,,,,,,,,,,,,,,,,,,,,,,,,,,,,,,,,,,,,,,,,,,,,,,,,,,,,,,,
,,5962f252b692380001417ab9,2024-02-18_21h13.09.354,kallum_motion_pilot,2023.2.2,Win32,60.24096386,5962f252b692380001417ab9,65d2b6c8f2eece985d8e374c,65d2b8ec924c2db16f8dae7e,0.0618,0.0619,1,110,272,137,1,fiveseven,,,,,,,,,,,,,,,,,,,,,,,,,,,,,,,,,,,,,,,,,,,,,,,,,,,,,,,,,,,,,,,,,,,,,,,,,,,,,,,,,,,,,,,,,,,,,,,,,,,,,,,,,,,,,,,,,,,,,,,,,,,,,,,,,,,,,,,,,
,,5962f252b692380001417ab9,2024-02-18_21h13.09.354,kallum_motion_pilot,2023.2.2,Win32,60.24096386,5962f252b692380001417ab9,65d2b6c8f2eece985d8e374c,65d2b8ec924c2db16f8dae7e,0.062,0.0621,1,111,273,128,1,fivesix,,,,,,,,,,,,,,,,,,,,,,,,,,,,,,,,,,,,,,,,,,,,,,,,,,,,,,,,,,,,,,,,,,,,,,,,,,,,,,,,,,,,,,,,,,,,,,,,,,,,,,,,,,,,,,,,,,,,,,,,,,,,,,,,,,,,,,,,,
,,5962f252b692380001417ab9,2024-02-18_21h13.09.354,kallum_motion_pilot,2023.2.2,Win32,60.24096386,5962f252b692380001417ab9,65d2b6c8f2eece985d8e374c,65d2b8ec924c2db16f8dae7e,0.0621,0.0622,1,112,274,117,1,seveneight,,,,,,,,,,,,,,,,,,,,,,,,,,,,,,,,,,,,,,,,,,,,,,,,,,,,,,,,,,,,,,,,,,,,,,,,,,,,,,,,,,,,,,,,,,,,,,,,,,,,,,,,,,,,,,,,,,,,,,,,,,,,,,,,,,,,,,,,,
,,5962f252b692380001417ab9,2024-02-18_21h13.09.354,kallum_motion_pilot,2023.2.2,Win32,60.24096386,5962f252b692380001417ab9,65d2b6c8f2eece985d8e374c,65d2b8ec924c2db16f8dae7e,0.0622,0.0623,1,113,275,74,1,twoone,,,,,,,,,,,,,,,,,,,,,,,,,,,,,,,,,,,,,,,,,,,,,,,,,,,,,,,,,,,,,,,,,,,,,,,,,,,,,,,,,,,,,,,,,,,,,,,,,,,,,,,,,,,,,,,,,,,,,,,,,,,,,,,,,,,,,,,,,
,,5962f252b692380001417ab9,2024-02-18_21h13.09.354,kallum_motion_pilot,2023.2.2,Win32,60.24096386,5962f252b692380001417ab9,65d2b6c8f2eece985d8e374c,65d2b8ec924c2db16f8dae7e,0.0623,0.0624,1,114,276,14,1,fourtwo,,,,,,,,,,,,,,,,,,,,,,,,,,,,,,,,,,,,,,,,,,,,,,,,,,,,,,,,,,,,,,,,,,,,,,,,,,,,,,,,,,,,,,,,,,,,,,,,,,,,,,,,,,,,,,,,,,,,,,,,,,,,,,,,,,,,,,,,,
,,5962f252b692380001417ab9,2024-02-18_21h13.09.354,kallum_motion_pilot,2023.2.2,Win32,60.24096386,5962f252b692380001417ab9,65d2b6c8f2eece985d8e374c,65d2b8ec924c2db16f8dae7e,0.0624,0.0626,1,115,277,113,1,fiveseven,,,,,,,,,,,,,,,,,,,,,,,,,,,,,,,,,,,,,,,,,,,,,,,,,,,,,,,,,,,,,,,,,,,,,,,,,,,,,,,,,,,,,,,,,,,,,,,,,,,,,,,,,,,,,,,,,,,,,,,,,,,,,,,,,,,,,,,,,
