startup.started,startup.stopped,Prolific ID*,date,expName,psychopyVersion,OS,frameRate,participant,study_id,session,stimpositions.started,stimpositions.stopped,hardcoded_stimulus_positions.thisRepN,hardcoded_stimulus_positions.thisTrialN,hardcoded_stimulus_positions.thisN,hardcoded_stimulus_positions.thisIndex,hardcoded_stimulus_positions.ran,StimulusPos,stimorientation.started,stimorientation.stopped,prac_stimorientation_import_loop.thisRepN,prac_stimorientation_import_loop.thisTrialN,prac_stimorientation_import_loop.thisN,prac_stimorientation_import_loop.thisIndex,prac_stimorientation_import_loop.ran,Stimorientation,welcome_instr.started,welcome_instr.stopped,key_resp.keys,key_resp.rt,key_resp.duration,response_steppedout_1.started,response_steppedout_1.stopped,key_resp_20.keys,key_resp_20.rt,key_resp_20.duration,response_steppedout_2.started,response_steppedout_2.stopped,key_resp_19.keys,key_resp_19.rt,key_resp_19.duration,stim_response_instr.started,stim_response_instr.stopped,key_resp_15.keys,key_resp_15.rt,key_resp_15.duration,direction_instr_2.started,direction_instr_2.stopped,key_resp_9.keys,key_resp_9.rt,key_resp_9.duration,instr_prac.started,instr_prac.stopped,key_resp_10.keys,key_resp_10.rt,key_resp_10.duration,Stim1_display_prac.started,Stim1_display_prac.stopped,Ecc,Circle1_ori,Circle2_ori,response_prac.started,similarity,response_time,response_prac.stopped,mouse_5.x,mouse_5.y,mouse_5.leftButton,mouse_5.midButton,mouse_5.rightButton,mouse_5.clicked_name,responseprac_feedback.started,responseprac_feedback.stopped,summary2_prac.started,summary2_prac.stopped,mouse_6.x,mouse_6.y,mouse_6.leftButton,mouse_6.midButton,mouse_6.rightButton,mouse_6.clicked_name,duringprac.thisRepN,duringprac.thisTrialN,duringprac.thisN,duringprac.thisIndex,duringprac.ran,begin.started,begin.stopped,key_resp_22.keys,key_resp_22.rt,key_resp_22.duration,Stim1_display.started,Stim1_display.stopped,circle1_ori,circle2_ori,circle1_SF,circle2_SF,response.started,response.stopped,mouse.x,mouse.y,mouse.leftButton,mouse.midButton,mouse.rightButton,mouse.clicked_name,trialnumber,double_pass.thisRepN,double_pass.thisTrialN,double_pass.thisN,double_pass.thisIndex,double_pass.ran,double_pass.order,main_trial.thisRepN,main_trial.thisTrialN,main_trial.thisN,main_trial.thisIndex,main_trial.ran,main_trial.order,Trial_Counter,Catch,Frequencies,response_2.started,response_2.stopped,mouse_2.x,mouse_2.y,mouse_2.leftButton,mouse_2.midButton,mouse_2.rightButton,mouse_2.clicked_name,special_trial.started,special_trial.stopped,catch_1.started,catch_1.stopped,mouse_3.x,mouse_3.y,mouse_3.leftButton,mouse_3.midButton,mouse_3.rightButton,catchresponse,catchnumber,response_time_catch,response_sum.started,response_sum.stopped,mouse_11.x,mouse_11.y,mouse_11.leftButton,mouse_11.midButton,mouse_11.rightButton,flip_presentation_sequence_for_double_pass.started,flip_presentation_sequence_for_double_pass.stopped,goodbye.started,goodbye.stopped,key_resp_3.keys,key_resp_3.rt,key_resp_3.duration
0.002,0.002,59dbbdce5de9b000017ebf19,2024-02-22_03h52.56.279,kallum_motion_pilot,2023.2.2,Win32,8.547008547,59dbbdce5de9b000017ebf19,65d6bb0e977760de756971f7,65d6c4f40a464a429d9a9296,,,,,,,,,,,,,,,,,,,,,,,,,,,,,,,,,,,,,,,,,,,,,,,,,,,,,,,,,,,,,,,,,,,,,,,,,,,,,,,,,,,,,,,,,,,,,,,,,,,,,,,,,,,,,,,,,,,,,,,,,,,,,,,,,,,,,,,,,,,,,,,,,
,,59dbbdce5de9b000017ebf19,2024-02-22_03h52.56.279,kallum_motion_pilot,2023.2.2,Win32,8.547008547,59dbbdce5de9b000017ebf19,65d6bb0e977760de756971f7,65d6c4f40a464a429d9a9296,0.047,0.047,0,0,0,52,1,threeone,,,,,,,,,,,,,,,,,,,,,,,,,,,,,,,,,,,,,,,,,,,,,,,,,,,,,,,,,,,,,,,,,,,,,,,,,,,,,,,,,,,,,,,,,,,,,,,,,,,,,,,,,,,,,,,,,,,,,,,,,,,,,,,,,,,,,,,,,
,,59dbbdce5de9b000017ebf19,2024-02-22_03h52.56.279,kallum_motion_pilot,2023.2.2,Win32,8.547008547,59dbbdce5de9b000017ebf19,65d6bb0e977760de756971f7,65d6c4f40a464a429d9a9296,0.047,0.047,0,1,1,109,1,seveneight,,,,,,,,,,,,,,,,,,,,,,,,,,,,,,,,,,,,,,,,,,,,,,,,,,,,,,,,,,,,,,,,,,,,,,,,,,,,,,,,,,,,,,,,,,,,,,,,,,,,,,,,,,,,,,,,,,,,,,,,,,,,,,,,,,,,,,,,,
,,59dbbdce5de9b000017ebf19,2024-02-22_03h52.56.279,kallum_motion_pilot,2023.2.2,Win32,8.547008547,59dbbdce5de9b000017ebf19,65d6bb0e977760de756971f7,65d6c4f40a464a429d9a9296,0.047,0.047,0,2,2,102,1,eightsix,,,,,,,,,,,,,,,,,,,,,,,,,,,,,,,,,,,,,,,,,,,,,,,,,,,,,,,,,,,,,,,,,,,,,,,,,,,,,,,,,,,,,,,,,,,,,,,,,,,,,,,,,,,,,,,,,,,,,,,,,,,,,,,,,,,,,,,,,
,,59dbbdce5de9b000017ebf19,2024-02-22_03h52.56.279,kallum_motion_pilot,2023.2.2,Win32,8.547008547,59dbbdce5de9b000017ebf19,65d6bb0e977760de756971f7,65d6c4f40a464a429d9a9296,0.047,0.047,0,3,3,25,1,onethree,,,,,,,,,,,,,,,,,,,,,,,,,,,,,,,,,,,,,,,,,,,,,,,,,,,,,,,,,,,,,,,,,,,,,,,,,,,,,,,,,,,,,,,,,,,,,,,,,,,,,,,,,,,,,,,,,,,,,,,,,,,,,,,,,,,,,,,,,
,,59dbbdce5de9b000017ebf19,2024-02-22_03h52.56.279,kallum_motion_pilot,2023.2.2,Win32,8.547008547,59dbbdce5de9b000017ebf19,65d6bb0e977760de756971f7,65d6c4f40a464a429d9a9296,0.048,0.048,0,4,4,85,1,seveneight,,,,,,,,,,,,,,,,,,,,,,,,,,,,,,,,,,,,,,,,,,,,,,,,,,,,,,,,,,,,,,,,,,,,,,,,,,,,,,,,,,,,,,,,,,,,,,,,,,,,,,,,,,,,,,,,,,,,,,,,,,,,,,,,,,,,,,,,,
,,59dbbdce5de9b000017ebf19,2024-02-22_03h52.56.279,kallum_motion_pilot,2023.2.2,Win32,8.547008547,59dbbdce5de9b000017ebf19,65d6bb0e977760de756971f7,65d6c4f40a464a429d9a9296,0.048,0.048,0,5,5,34,1,twoone,,,,,,,,,,,,,,,,,,,,,,,,,,,,,,,,,,,,,,,,,,,,,,,,,,,,,,,,,,,,,,,,,,,,,,,,,,,,,,,,,,,,,,,,,,,,,,,,,,,,,,,,,,,,,,,,,,,,,,,,,,,,,,,,,,,,,,,,,
,,59dbbdce5de9b000017ebf19,2024-02-22_03h52.56.279,kallum_motion_pilot,2023.2.2,Win32,8.547008547,59dbbdce5de9b000017ebf19,65d6bb0e977760de756971f7,65d6c4f40a464a429d9a9296,0.048,0.048,0,6,6,69,1,threefour,,,,,,,,,,,,,,,,,,,,,,,,,,,,,,,,,,,,,,,,,,,,,,,,,,,,,,,,,,,,,,,,,,,,,,,,,,,,,,,,,,,,,,,,,,,,,,,,,,,,,,,,,,,,,,,,,,,,,,,,,,,,,,,,,,,,,,,,,
,,59dbbdce5de9b000017ebf19,2024-02-22_03h52.56.279,kallum_motion_pilot,2023.2.2,Win32,8.547008547,59dbbdce5de9b000017ebf19,65d6bb0e977760de756971f7,65d6c4f40a464a429d9a9296,0.048,0.048,0,7,7,6,1,fourtwo,,,,,,,,,,,,,,,,,,,,,,,,,,,,,,,,,,,,,,,,,,,,,,,,,,,,,,,,,,,,,,,,,,,,,,,,,,,,,,,,,,,,,,,,,,,,,,,,,,,,,,,,,,,,,,,,,,,,,,,,,,,,,,,,,,,,,,,,,
,,59dbbdce5de9b000017ebf19,2024-02-22_03h52.56.279,kallum_motion_pilot,2023.2.2,Win32,8.547008547,59dbbdce5de9b000017ebf19,65d6bb0e977760de756971f7,65d6c4f40a464a429d9a9296,0.048,0.048,0,8,8,55,1,fourthree,,,,,,,,,,,,,,,,,,,,,,,,,,,,,,,,,,,,,,,,,,,,,,,,,,,,,,,,,,,,,,,,,,,,,,,,,,,,,,,,,,,,,,,,,,,,,,,,,,,,,,,,,,,,,,,,,,,,,,,,,,,,,,,,,,,,,,,,,
,,59dbbdce5de9b000017ebf19,2024-02-22_03h52.56.279,kallum_motion_pilot,2023.2.2,Win32,8.547008547,59dbbdce5de9b000017ebf19,65d6bb0e977760de756971f7,65d6c4f40a464a429d9a9296,0.049,0.049,0,9,9,19,1,twofour,,,,,,,,,,,,,,,,,,,,,,,,,,,,,,,,,,,,,,,,,,,,,,,,,,,,,,,,,,,,,,,,,,,,,,,,,,,,,,,,,,,,,,,,,,,,,,,,,,,,,,,,,,,,,,,,,,,,,,,,,,,,,,,,,,,,,,,,,
,,59dbbdce5de9b000017ebf19,2024-02-22_03h52.56.279,kallum_motion_pilot,2023.2.2,Win32,8.547008547,59dbbdce5de9b000017ebf19,65d6bb0e977760de756971f7,65d6c4f40a464a429d9a9296,0.049,0.049,0,10,10,130,1,sixfive,,,,,,,,,,,,,,,,,,,,,,,,,,,,,,,,,,,,,,,,,,,,,,,,,,,,,,,,,,,,,,,,,,,,,,,,,,,,,,,,,,,,,,,,,,,,,,,,,,,,,,,,,,,,,,,,,,,,,,,,,,,,,,,,,,,,,,,,,
,,59dbbdce5de9b000017ebf19,2024-02-22_03h52.56.279,kallum_motion_pilot,2023.2.2,Win32,8.547008547,59dbbdce5de9b000017ebf19,65d6bb0e977760de756971f7,65d6c4f40a464a429d9a9296,0.05,0.051,0,11,11,32,1,onetwo,,,,,,,,,,,,,,,,,,,,,,,,,,,,,,,,,,,,,,,,,,,,,,,,,,,,,,,,,,,,,,,,,,,,,,,,,,,,,,,,,,,,,,,,,,,,,,,,,,,,,,,,,,,,,,,,,,,,,,,,,,,,,,,,,,,,,,,,,
,,59dbbdce5de9b000017ebf19,2024-02-22_03h52.56.279,kallum_motion_pilot,2023.2.2,Win32,8.547008547,59dbbdce5de9b000017ebf19,65d6bb0e977760de756971f7,65d6c4f40a464a429d9a9296,0.051,0.051,0,12,12,124,1,sevenfive,,,,,,,,,,,,,,,,,,,,,,,,,,,,,,,,,,,,,,,,,,,,,,,,,,,,,,,,,,,,,,,,,,,,,,,,,,,,,,,,,,,,,,,,,,,,,,,,,,,,,,,,,,,,,,,,,,,,,,,,,,,,,,,,,,,,,,,,,
,,59dbbdce5de9b000017ebf19,2024-02-22_03h52.56.279,kallum_motion_pilot,2023.2.2,Win32,8.547008547,59dbbdce5de9b000017ebf19,65d6bb0e977760de756971f7,65d6c4f40a464a429d9a9296,0.051,0.051,0,13,13,66,1,twoone,,,,,,,,,,,,,,,,,,,,,,,,,,,,,,,,,,,,,,,,,,,,,,,,,,,,,,,,,,,,,,,,,,,,,,,,,,,,,,,,,,,,,,,,,,,,,,,,,,,,,,,,,,,,,,,,,,,,,,,,,,,,,,,,,,,,,,,,,
,,59dbbdce5de9b000017ebf19,2024-02-22_03h52.56.279,kallum_motion_pilot,2023.2.2,Win32,8.547008547,59dbbdce5de9b000017ebf19,65d6bb0e977760de756971f7,65d6c4f40a464a429d9a9296,0.051,0.051,0,14,14,47,1,fourthree,,,,,,,,,,,,,,,,,,,,,,,,,,,,,,,,,,,,,,,,,,,,,,,,,,,,,,,,,,,,,,,,,,,,,,,,,,,,,,,,,,,,,,,,,,,,,,,,,,,,,,,,,,,,,,,,,,,,,,,,,,,,,,,,,,,,,,,,,
,,59dbbdce5de9b000017ebf19,2024-02-22_03h52.56.279,kallum_motion_pilot,2023.2.2,Win32,8.547008547,59dbbdce5de9b000017ebf19,65d6bb0e977760de756971f7,65d6c4f40a464a429d9a9296,0.051,0.051,0,15,15,35,1,twofour,,,,,,,,,,,,,,,,,,,,,,,,,,,,,,,,,,,,,,,,,,,,,,,,,,,,,,,,,,,,,,,,,,,,,,,,,,,,,,,,,,,,,,,,,,,,,,,,,,,,,,,,,,,,,,,,,,,,,,,,,,,,,,,,,,,,,,,,,
,,59dbbdce5de9b000017ebf19,2024-02-22_03h52.56.279,kallum_motion_pilot,2023.2.2,Win32,8.547008547,59dbbdce5de9b000017ebf19,65d6bb0e977760de756971f7,65d6c4f40a464a429d9a9296,0.051,0.051,0,16,16,143,1,eightseven,,,,,,,,,,,,,,,,,,,,,,,,,,,,,,,,,,,,,,,,,,,,,,,,,,,,,,,,,,,,,,,,,,,,,,,,,,,,,,,,,,,,,,,,,,,,,,,,,,,,,,,,,,,,,,,,,,,,,,,,,,,,,,,,,,,,,,,,,
,,59dbbdce5de9b000017ebf19,2024-02-22_03h52.56.279,kallum_motion_pilot,2023.2.2,Win32,8.547008547,59dbbdce5de9b000017ebf19,65d6bb0e977760de756971f7,65d6c4f40a464a429d9a9296,0.052,0.052,0,17,17,76,1,threeone,,,,,,,,,,,,,,,,,,,,,,,,,,,,,,,,,,,,,,,,,,,,,,,,,,,,,,,,,,,,,,,,,,,,,,,,,,,,,,,,,,,,,,,,,,,,,,,,,,,,,,,,,,,,,,,,,,,,,,,,,,,,,,,,,,,,,,,,,
,,59dbbdce5de9b000017ebf19,2024-02-22_03h52.56.279,kallum_motion_pilot,2023.2.2,Win32,8.547008547,59dbbdce5de9b000017ebf19,65d6bb0e977760de756971f7,65d6c4f40a464a429d9a9296,0.052,0.052,0,18,18,27,1,twofour,,,,,,,,,,,,,,,,,,,,,,,,,,,,,,,,,,,,,,,,,,,,,,,,,,,,,,,,,,,,,,,,,,,,,,,,,,,,,,,,,,,,,,,,,,,,,,,,,,,,,,,,,,,,,,,,,,,,,,,,,,,,,,,,,,,,,,,,,
,,59dbbdce5de9b000017ebf19,2024-02-22_03h52.56.279,kallum_motion_pilot,2023.2.2,Win32,8.547008547,59dbbdce5de9b000017ebf19,65d6bb0e977760de756971f7,65d6c4f40a464a429d9a9296,0.052,0.052,0,19,19,39,1,fourthree,,,,,,,,,,,,,,,,,,,,,,,,,,,,,,,,,,,,,,,,,,,,,,,,,,,,,,,,,,,,,,,,,,,,,,,,,,,,,,,,,,,,,,,,,,,,,,,,,,,,,,,,,,,,,,,,,,,,,,,,,,,,,,,,,,,,,,,,,
,,59dbbdce5de9b000017ebf19,2024-02-22_03h52.56.279,kallum_motion_pilot,2023.2.2,Win32,8.547008547,59dbbdce5de9b000017ebf19,65d6bb0e977760de756971f7,65d6c4f40a464a429d9a9296,0.052,0.052,0,20,20,60,1,threeone,,,,,,,,,,,,,,,,,,,,,,,,,,,,,,,,,,,,,,,,,,,,,,,,,,,,,,,,,,,,,,,,,,,,,,,,,,,,,,,,,,,,,,,,,,,,,,,,,,,,,,,,,,,,,,,,,,,,,,,,,,,,,,,,,,,,,,,,,
,,59dbbdce5de9b000017ebf19,2024-02-22_03h52.56.279,kallum_motion_pilot,2023.2.2,Win32,8.547008547,59dbbdce5de9b000017ebf19,65d6bb0e977760de756971f7,65d6c4f40a464a429d9a9296,0.052,0.052,0,21,21,61,1,threefour,,,,,,,,,,,,,,,,,,,,,,,,,,,,,,,,,,,,,,,,,,,,,,,,,,,,,,,,,,,,,,,,,,,,,,,,,,,,,,,,,,,,,,,,,,,,,,,,,,,,,,,,,,,,,,,,,,,,,,,,,,,,,,,,,,,,,,,,,
,,59dbbdce5de9b000017ebf19,2024-02-22_03h52.56.279,kallum_motion_pilot,2023.2.2,Win32,8.547008547,59dbbdce5de9b000017ebf19,65d6bb0e977760de756971f7,65d6c4f40a464a429d9a9296,0.053,0.053,0,22,22,11,1,twofour,,,,,,,,,,,,,,,,,,,,,,,,,,,,,,,,,,,,,,,,,,,,,,,,,,,,,,,,,,,,,,,,,,,,,,,,,,,,,,,,,,,,,,,,,,,,,,,,,,,,,,,,,,,,,,,,,,,,,,,,,,,,,,,,,,,,,,,,,
,,59dbbdce5de9b000017ebf19,2024-02-22_03h52.56.279,kallum_motion_pilot,2023.2.2,Win32,8.547008547,59dbbdce5de9b000017ebf19,65d6bb0e977760de756971f7,65d6c4f40a464a429d9a9296,0.053,0.053,0,23,23,145,1,fiveseven,,,,,,,,,,,,,,,,,,,,,,,,,,,,,,,,,,,,,,,,,,,,,,,,,,,,,,,,,,,,,,,,,,,,,,,,,,,,,,,,,,,,,,,,,,,,,,,,,,,,,,,,,,,,,,,,,,,,,,,,,,,,,,,,,,,,,,,,,
,,59dbbdce5de9b000017ebf19,2024-02-22_03h52.56.279,kallum_motion_pilot,2023.2.2,Win32,8.547008547,59dbbdce5de9b000017ebf19,65d6bb0e977760de756971f7,65d6c4f40a464a429d9a9296,0.053,0.053,0,24,24,133,1,seveneight,,,,,,,,,,,,,,,,,,,,,,,,,,,,,,,,,,,,,,,,,,,,,,,,,,,,,,,,,,,,,,,,,,,,,,,,,,,,,,,,,,,,,,,,,,,,,,,,,,,,,,,,,,,,,,,,,,,,,,,,,,,,,,,,,,,,,,,,,
,,59dbbdce5de9b000017ebf19,2024-02-22_03h52.56.279,kallum_motion_pilot,2023.2.2,Win32,8.547008547,59dbbdce5de9b000017ebf19,65d6bb0e977760de756971f7,65d6c4f40a464a429d9a9296,0.053,0.053,0,25,25,160,1,fivesix,,,,,,,,,,,,,,,,,,,,,,,,,,,,,,,,,,,,,,,,,,,,,,,,,,,,,,,,,,,,,,,,,,,,,,,,,,,,,,,,,,,,,,,,,,,,,,,,,,,,,,,,,,,,,,,,,,,,,,,,,,,,,,,,,,,,,,,,,
,,59dbbdce5de9b000017ebf19,2024-02-22_03h52.56.279,kallum_motion_pilot,2023.2.2,Win32,8.547008547,59dbbdce5de9b000017ebf19,65d6bb0e977760de756971f7,65d6c4f40a464a429d9a9296,0.053,0.053,0,26,26,84,1,sevenfive,,,,,,,,,,,,,,,,,,,,,,,,,,,,,,,,,,,,,,,,,,,,,,,,,,,,,,,,,,,,,,,,,,,,,,,,,,,,,,,,,,,,,,,,,,,,,,,,,,,,,,,,,,,,,,,,,,,,,,,,,,,,,,,,,,,,,,,,,
,,59dbbdce5de9b000017ebf19,2024-02-22_03h52.56.279,kallum_motion_pilot,2023.2.2,Win32,8.547008547,59dbbdce5de9b000017ebf19,65d6bb0e977760de756971f7,65d6c4f40a464a429d9a9296,0.053,0.053,0,27,27,113,1,fiveseven,,,,,,,,,,,,,,,,,,,,,,,,,,,,,,,,,,,,,,,,,,,,,,,,,,,,,,,,,,,,,,,,,,,,,,,,,,,,,,,,,,,,,,,,,,,,,,,,,,,,,,,,,,,,,,,,,,,,,,,,,,,,,,,,,,,,,,,,,
,,59dbbdce5de9b000017ebf19,2024-02-22_03h52.56.279,kallum_motion_pilot,2023.2.2,Win32,8.547008547,59dbbdce5de9b000017ebf19,65d6bb0e977760de756971f7,65d6c4f40a464a429d9a9296,0.053,0.053,0,28,28,2,1,twoone,,,,,,,,,,,,,,,,,,,,,,,,,,,,,,,,,,,,,,,,,,,,,,,,,,,,,,,,,,,,,,,,,,,,,,,,,,,,,,,,,,,,,,,,,,,,,,,,,,,,,,,,,,,,,,,,,,,,,,,,,,,,,,,,,,,,,,,,,
,,59dbbdce5de9b000017ebf19,2024-02-22_03h52.56.279,kallum_motion_pilot,2023.2.2,Win32,8.547008547,59dbbdce5de9b000017ebf19,65d6bb0e977760de756971f7,65d6c4f40a464a429d9a9296,0.054,0.054,0,29,29,74,1,twoone,,,,,,,,,,,,,,,,,,,,,,,,,,,,,,,,,,,,,,,,,,,,,,,,,,,,,,,,,,,,,,,,,,,,,,,,,,,,,,,,,,,,,,,,,,,,,,,,,,,,,,,,,,,,,,,,,,,,,,,,,,,,,,,,,,,,,,,,,
,,59dbbdce5de9b000017ebf19,2024-02-22_03h52.56.279,kallum_motion_pilot,2023.2.2,Win32,8.547008547,59dbbdce5de9b000017ebf19,65d6bb0e977760de756971f7,65d6c4f40a464a429d9a9296,0.054,0.054,0,30,30,112,1,fivesix,,,,,,,,,,,,,,,,,,,,,,,,,,,,,,,,,,,,,,,,,,,,,,,,,,,,,,,,,,,,,,,,,,,,,,,,,,,,,,,,,,,,,,,,,,,,,,,,,,,,,,,,,,,,,,,,,,,,,,,,,,,,,,,,,,,,,,,,,
,,59dbbdce5de9b000017ebf19,2024-02-22_03h52.56.279,kallum_motion_pilot,2023.2.2,Win32,8.547008547,59dbbdce5de9b000017ebf19,65d6bb0e977760de756971f7,65d6c4f40a464a429d9a9296,0.054,0.054,0,31,31,151,1,eightseven,,,,,,,,,,,,,,,,,,,,,,,,,,,,,,,,,,,,,,,,,,,,,,,,,,,,,,,,,,,,,,,,,,,,,,,,,,,,,,,,,,,,,,,,,,,,,,,,,,,,,,,,,,,,,,,,,,,,,,,,,,,,,,,,,,,,,,,,,
,,59dbbdce5de9b000017ebf19,2024-02-22_03h52.56.279,kallum_motion_pilot,2023.2.2,Win32,8.547008547,59dbbdce5de9b000017ebf19,65d6bb0e977760de756971f7,65d6c4f40a464a429d9a9296,0.054,0.054,0,32,32,77,1,threefour,,,,,,,,,,,,,,,,,,,,,,,,,,,,,,,,,,,,,,,,,,,,,,,,,,,,,,,,,,,,,,,,,,,,,,,,,,,,,,,,,,,,,,,,,,,,,,,,,,,,,,,,,,,,,,,,,,,,,,,,,,,,,,,,,,,,,,,,,
,,59dbbdce5de9b000017ebf19,2024-02-22_03h52.56.279,kallum_motion_pilot,2023.2.2,Win32,8.547008547,59dbbdce5de9b000017ebf19,65d6bb0e977760de756971f7,65d6c4f40a464a429d9a9296,0.054,0.054,0,33,33,54,1,fourtwo,,,,,,,,,,,,,,,,,,,,,,,,,,,,,,,,,,,,,,,,,,,,,,,,,,,,,,,,,,,,,,,,,,,,,,,,,,,,,,,,,,,,,,,,,,,,,,,,,,,,,,,,,,,,,,,,,,,,,,,,,,,,,,,,,,,,,,,,,
,,59dbbdce5de9b000017ebf19,2024-02-22_03h52.56.279,kallum_motion_pilot,2023.2.2,Win32,8.547008547,59dbbdce5de9b000017ebf19,65d6bb0e977760de756971f7,65d6c4f40a464a429d9a9296,0.054,0.054,0,34,34,119,1,eightseven,,,,,,,,,,,,,,,,,,,,,,,,,,,,,,,,,,,,,,,,,,,,,,,,,,,,,,,,,,,,,,,,,,,,,,,,,,,,,,,,,,,,,,,,,,,,,,,,,,,,,,,,,,,,,,,,,,,,,,,,,,,,,,,,,,,,,,,,,
,,59dbbdce5de9b000017ebf19,2024-02-22_03h52.56.279,kallum_motion_pilot,2023.2.2,Win32,8.547008547,59dbbdce5de9b000017ebf19,65d6bb0e977760de756971f7,65d6c4f40a464a429d9a9296,0.055,0.055,0,35,35,12,1,threeone,,,,,,,,,,,,,,,,,,,,,,,,,,,,,,,,,,,,,,,,,,,,,,,,,,,,,,,,,,,,,,,,,,,,,,,,,,,,,,,,,,,,,,,,,,,,,,,,,,,,,,,,,,,,,,,,,,,,,,,,,,,,,,,,,,,,,,,,,
,,59dbbdce5de9b000017ebf19,2024-02-22_03h52.56.279,kallum_motion_pilot,2023.2.2,Win32,8.547008547,59dbbdce5de9b000017ebf19,65d6bb0e977760de756971f7,65d6c4f40a464a429d9a9296,0.055,0.055,0,36,36,117,1,seveneight,,,,,,,,,,,,,,,,,,,,,,,,,,,,,,,,,,,,,,,,,,,,,,,,,,,,,,,,,,,,,,,,,,,,,,,,,,,,,,,,,,,,,,,,,,,,,,,,,,,,,,,,,,,,,,,,,,,,,,,,,,,,,,,,,,,,,,,,,
,,59dbbdce5de9b000017ebf19,2024-02-22_03h52.56.279,kallum_motion_pilot,2023.2.2,Win32,8.547008547,59dbbdce5de9b000017ebf19,65d6bb0e977760de756971f7,65d6c4f40a464a429d9a9296,0.055,0.055,0,37,37,158,1,eightsix,,,,,,,,,,,,,,,,,,,,,,,,,,,,,,,,,,,,,,,,,,,,,,,,,,,,,,,,,,,,,,,,,,,,,,,,,,,,,,,,,,,,,,,,,,,,,,,,,,,,,,,,,,,,,,,,,,,,,,,,,,,,,,,,,,,,,,,,,
,,59dbbdce5de9b000017ebf19,2024-02-22_03h52.56.279,kallum_motion_pilot,2023.2.2,Win32,8.547008547,59dbbdce5de9b000017ebf19,65d6bb0e977760de756971f7,65d6c4f40a464a429d9a9296,0.055,0.055,0,38,38,42,1,twoone,,,,,,,,,,,,,,,,,,,,,,,,,,,,,,,,,,,,,,,,,,,,,,,,,,,,,,,,,,,,,,,,,,,,,,,,,,,,,,,,,,,,,,,,,,,,,,,,,,,,,,,,,,,,,,,,,,,,,,,,,,,,,,,,,,,,,,,,,
,,59dbbdce5de9b000017ebf19,2024-02-22_03h52.56.279,kallum_motion_pilot,2023.2.2,Win32,8.547008547,59dbbdce5de9b000017ebf19,65d6bb0e977760de756971f7,65d6c4f40a464a429d9a9296,0.055,0.055,0,39,39,108,1,sevenfive,,,,,,,,,,,,,,,,,,,,,,,,,,,,,,,,,,,,,,,,,,,,,,,,,,,,,,,,,,,,,,,,,,,,,,,,,,,,,,,,,,,,,,,,,,,,,,,,,,,,,,,,,,,,,,,,,,,,,,,,,,,,,,,,,,,,,,,,,
,,59dbbdce5de9b000017ebf19,2024-02-22_03h52.56.279,kallum_motion_pilot,2023.2.2,Win32,8.547008547,59dbbdce5de9b000017ebf19,65d6bb0e977760de756971f7,65d6c4f40a464a429d9a9296,0.056,0.056,0,40,40,30,1,fourtwo,,,,,,,,,,,,,,,,,,,,,,,,,,,,,,,,,,,,,,,,,,,,,,,,,,,,,,,,,,,,,,,,,,,,,,,,,,,,,,,,,,,,,,,,,,,,,,,,,,,,,,,,,,,,,,,,,,,,,,,,,,,,,,,,,,,,,,,,,
,,59dbbdce5de9b000017ebf19,2024-02-22_03h52.56.279,kallum_motion_pilot,2023.2.2,Win32,8.547008547,59dbbdce5de9b000017ebf19,65d6bb0e977760de756971f7,65d6c4f40a464a429d9a9296,0.056,0.056,0,41,41,114,1,sixfive,,,,,,,,,,,,,,,,,,,,,,,,,,,,,,,,,,,,,,,,,,,,,,,,,,,,,,,,,,,,,,,,,,,,,,,,,,,,,,,,,,,,,,,,,,,,,,,,,,,,,,,,,,,,,,,,,,,,,,,,,,,,,,,,,,,,,,,,,
,,59dbbdce5de9b000017ebf19,2024-02-22_03h52.56.279,kallum_motion_pilot,2023.2.2,Win32,8.547008547,59dbbdce5de9b000017ebf19,65d6bb0e977760de756971f7,65d6c4f40a464a429d9a9296,0.056,0.056,0,42,42,157,1,seveneight,,,,,,,,,,,,,,,,,,,,,,,,,,,,,,,,,,,,,,,,,,,,,,,,,,,,,,,,,,,,,,,,,,,,,,,,,,,,,,,,,,,,,,,,,,,,,,,,,,,,,,,,,,,,,,,,,,,,,,,,,,,,,,,,,,,,,,,,,
,,59dbbdce5de9b000017ebf19,2024-02-22_03h52.56.279,kallum_motion_pilot,2023.2.2,Win32,8.547008547,59dbbdce5de9b000017ebf19,65d6bb0e977760de756971f7,65d6c4f40a464a429d9a9296,0.057,0.057,0,43,43,148,1,sevenfive,,,,,,,,,,,,,,,,,,,,,,,,,,,,,,,,,,,,,,,,,,,,,,,,,,,,,,,,,,,,,,,,,,,,,,,,,,,,,,,,,,,,,,,,,,,,,,,,,,,,,,,,,,,,,,,,,,,,,,,,,,,,,,,,,,,,,,,,,
,,59dbbdce5de9b000017ebf19,2024-02-22_03h52.56.279,kallum_motion_pilot,2023.2.2,Win32,8.547008547,59dbbdce5de9b000017ebf19,65d6bb0e977760de756971f7,65d6c4f40a464a429d9a9296,0.057,0.057,0,44,44,81,1,fiveseven,,,,,,,,,,,,,,,,,,,,,,,,,,,,,,,,,,,,,,,,,,,,,,,,,,,,,,,,,,,,,,,,,,,,,,,,,,,,,,,,,,,,,,,,,,,,,,,,,,,,,,,,,,,,,,,,,,,,,,,,,,,,,,,,,,,,,,,,,
,,59dbbdce5de9b000017ebf19,2024-02-22_03h52.56.279,kallum_motion_pilot,2023.2.2,Win32,8.547008547,59dbbdce5de9b000017ebf19,65d6bb0e977760de756971f7,65d6c4f40a464a429d9a9296,0.057,0.057,0,45,45,159,1,eightseven,,,,,,,,,,,,,,,,,,,,,,,,,,,,,,,,,,,,,,,,,,,,,,,,,,,,,,,,,,,,,,,,,,,,,,,,,,,,,,,,,,,,,,,,,,,,,,,,,,,,,,,,,,,,,,,,,,,,,,,,,,,,,,,,,,,,,,,,,
,,59dbbdce5de9b000017ebf19,2024-02-22_03h52.56.279,kallum_motion_pilot,2023.2.2,Win32,8.547008547,59dbbdce5de9b000017ebf19,65d6bb0e977760de756971f7,65d6c4f40a464a429d9a9296,0.057,0.057,0,46,46,31,1,fourthree,,,,,,,,,,,,,,,,,,,,,,,,,,,,,,,,,,,,,,,,,,,,,,,,,,,,,,,,,,,,,,,,,,,,,,,,,,,,,,,,,,,,,,,,,,,,,,,,,,,,,,,,,,,,,,,,,,,,,,,,,,,,,,,,,,,,,,,,,
,,59dbbdce5de9b000017ebf19,2024-02-22_03h52.56.279,kallum_motion_pilot,2023.2.2,Win32,8.547008547,59dbbdce5de9b000017ebf19,65d6bb0e977760de756971f7,65d6c4f40a464a429d9a9296,0.057,0.057,0,47,47,1,1,onethree,,,,,,,,,,,,,,,,,,,,,,,,,,,,,,,,,,,,,,,,,,,,,,,,,,,,,,,,,,,,,,,,,,,,,,,,,,,,,,,,,,,,,,,,,,,,,,,,,,,,,,,,,,,,,,,,,,,,,,,,,,,,,,,,,,,,,,,,,
,,59dbbdce5de9b000017ebf19,2024-02-22_03h52.56.279,kallum_motion_pilot,2023.2.2,Win32,8.547008547,59dbbdce5de9b000017ebf19,65d6bb0e977760de756971f7,65d6c4f40a464a429d9a9296,0.057,0.057,0,48,48,100,1,sevenfive,,,,,,,,,,,,,,,,,,,,,,,,,,,,,,,,,,,,,,,,,,,,,,,,,,,,,,,,,,,,,,,,,,,,,,,,,,,,,,,,,,,,,,,,,,,,,,,,,,,,,,,,,,,,,,,,,,,,,,,,,,,,,,,,,,,,,,,,,
,,59dbbdce5de9b000017ebf19,2024-02-22_03h52.56.279,kallum_motion_pilot,2023.2.2,Win32,8.547008547,59dbbdce5de9b000017ebf19,65d6bb0e977760de756971f7,65d6c4f40a464a429d9a9296,0.057,0.057,0,49,49,15,1,fourthree,,,,,,,,,,,,,,,,,,,,,,,,,,,,,,,,,,,,,,,,,,,,,,,,,,,,,,,,,,,,,,,,,,,,,,,,,,,,,,,,,,,,,,,,,,,,,,,,,,,,,,,,,,,,,,,,,,,,,,,,,,,,,,,,,,,,,,,,,
,,59dbbdce5de9b000017ebf19,2024-02-22_03h52.56.279,kallum_motion_pilot,2023.2.2,Win32,8.547008547,59dbbdce5de9b000017ebf19,65d6bb0e977760de756971f7,65d6c4f40a464a429d9a9296,0.058,0.058,0,50,50,57,1,onethree,,,,,,,,,,,,,,,,,,,,,,,,,,,,,,,,,,,,,,,,,,,,,,,,,,,,,,,,,,,,,,,,,,,,,,,,,,,,,,,,,,,,,,,,,,,,,,,,,,,,,,,,,,,,,,,,,,,,,,,,,,,,,,,,,,,,,,,,,
,,59dbbdce5de9b000017ebf19,2024-02-22_03h52.56.279,kallum_motion_pilot,2023.2.2,Win32,8.547008547,59dbbdce5de9b000017ebf19,65d6bb0e977760de756971f7,65d6c4f40a464a429d9a9296,0.058,0.058,0,51,51,137,1,fiveseven,,,,,,,,,,,,,,,,,,,,,,,,,,,,,,,,,,,,,,,,,,,,,,,,,,,,,,,,,,,,,,,,,,,,,,,,,,,,,,,,,,,,,,,,,,,,,,,,,,,,,,,,,,,,,,,,,,,,,,,,,,,,,,,,,,,,,,,,,
,,59dbbdce5de9b000017ebf19,2024-02-22_03h52.56.279,kallum_motion_pilot,2023.2.2,Win32,8.547008547,59dbbdce5de9b000017ebf19,65d6bb0e977760de756971f7,65d6c4f40a464a429d9a9296,0.058,0.058,0,52,52,134,1,eightsix,,,,,,,,,,,,,,,,,,,,,,,,,,,,,,,,,,,,,,,,,,,,,,,,,,,,,,,,,,,,,,,,,,,,,,,,,,,,,,,,,,,,,,,,,,,,,,,,,,,,,,,,,,,,,,,,,,,,,,,,,,,,,,,,,,,,,,,,,
,,59dbbdce5de9b000017ebf19,2024-02-22_03h52.56.279,kallum_motion_pilot,2023.2.2,Win32,8.547008547,59dbbdce5de9b000017ebf19,65d6bb0e977760de756971f7,65d6c4f40a464a429d9a9296,0.058,0.058,0,53,53,10,1,twoone,,,,,,,,,,,,,,,,,,,,,,,,,,,,,,,,,,,,,,,,,,,,,,,,,,,,,,,,,,,,,,,,,,,,,,,,,,,,,,,,,,,,,,,,,,,,,,,,,,,,,,,,,,,,,,,,,,,,,,,,,,,,,,,,,,,,,,,,,
,,59dbbdce5de9b000017ebf19,2024-02-22_03h52.56.279,kallum_motion_pilot,2023.2.2,Win32,8.547008547,59dbbdce5de9b000017ebf19,65d6bb0e977760de756971f7,65d6c4f40a464a429d9a9296,0.058,0.058,0,54,54,152,1,fivesix,,,,,,,,,,,,,,,,,,,,,,,,,,,,,,,,,,,,,,,,,,,,,,,,,,,,,,,,,,,,,,,,,,,,,,,,,,,,,,,,,,,,,,,,,,,,,,,,,,,,,,,,,,,,,,,,,,,,,,,,,,,,,,,,,,,,,,,,,
,,59dbbdce5de9b000017ebf19,2024-02-22_03h52.56.279,kallum_motion_pilot,2023.2.2,Win32,8.547008547,59dbbdce5de9b000017ebf19,65d6bb0e977760de756971f7,65d6c4f40a464a429d9a9296,0.058,0.059,0,55,55,89,1,fiveseven,,,,,,,,,,,,,,,,,,,,,,,,,,,,,,,,,,,,,,,,,,,,,,,,,,,,,,,,,,,,,,,,,,,,,,,,,,,,,,,,,,,,,,,,,,,,,,,,,,,,,,,,,,,,,,,,,,,,,,,,,,,,,,,,,,,,,,,,,
,,59dbbdce5de9b000017ebf19,2024-02-22_03h52.56.279,kallum_motion_pilot,2023.2.2,Win32,8.547008547,59dbbdce5de9b000017ebf19,65d6bb0e977760de756971f7,65d6c4f40a464a429d9a9296,0.059,0.059,0,56,56,14,1,fourtwo,,,,,,,,,,,,,,,,,,,,,,,,,,,,,,,,,,,,,,,,,,,,,,,,,,,,,,,,,,,,,,,,,,,,,,,,,,,,,,,,,,,,,,,,,,,,,,,,,,,,,,,,,,,,,,,,,,,,,,,,,,,,,,,,,,,,,,,,,
,,59dbbdce5de9b000017ebf19,2024-02-22_03h52.56.279,kallum_motion_pilot,2023.2.2,Win32,8.547008547,59dbbdce5de9b000017ebf19,65d6bb0e977760de756971f7,65d6c4f40a464a429d9a9296,0.059,0.059,0,57,57,80,1,fivesix,,,,,,,,,,,,,,,,,,,,,,,,,,,,,,,,,,,,,,,,,,,,,,,,,,,,,,,,,,,,,,,,,,,,,,,,,,,,,,,,,,,,,,,,,,,,,,,,,,,,,,,,,,,,,,,,,,,,,,,,,,,,,,,,,,,,,,,,,
,,59dbbdce5de9b000017ebf19,2024-02-22_03h52.56.279,kallum_motion_pilot,2023.2.2,Win32,8.547008547,59dbbdce5de9b000017ebf19,65d6bb0e977760de756971f7,65d6c4f40a464a429d9a9296,0.059,0.059,0,58,58,147,1,sixeight,,,,,,,,,,,,,,,,,,,,,,,,,,,,,,,,,,,,,,,,,,,,,,,,,,,,,,,,,,,,,,,,,,,,,,,,,,,,,,,,,,,,,,,,,,,,,,,,,,,,,,,,,,,,,,,,,,,,,,,,,,,,,,,,,,,,,,,,,
,,59dbbdce5de9b000017ebf19,2024-02-22_03h52.56.279,kallum_motion_pilot,2023.2.2,Win32,8.547008547,59dbbdce5de9b000017ebf19,65d6bb0e977760de756971f7,65d6c4f40a464a429d9a9296,0.059,0.059,0,59,59,16,1,onetwo,,,,,,,,,,,,,,,,,,,,,,,,,,,,,,,,,,,,,,,,,,,,,,,,,,,,,,,,,,,,,,,,,,,,,,,,,,,,,,,,,,,,,,,,,,,,,,,,,,,,,,,,,,,,,,,,,,,,,,,,,,,,,,,,,,,,,,,,,
,,59dbbdce5de9b000017ebf19,2024-02-22_03h52.56.279,kallum_motion_pilot,2023.2.2,Win32,8.547008547,59dbbdce5de9b000017ebf19,65d6bb0e977760de756971f7,65d6c4f40a464a429d9a9296,0.059,0.06,0,60,60,36,1,threeone,,,,,,,,,,,,,,,,,,,,,,,,,,,,,,,,,,,,,,,,,,,,,,,,,,,,,,,,,,,,,,,,,,,,,,,,,,,,,,,,,,,,,,,,,,,,,,,,,,,,,,,,,,,,,,,,,,,,,,,,,,,,,,,,,,,,,,,,,
,,59dbbdce5de9b000017ebf19,2024-02-22_03h52.56.279,kallum_motion_pilot,2023.2.2,Win32,8.547008547,59dbbdce5de9b000017ebf19,65d6bb0e977760de756971f7,65d6c4f40a464a429d9a9296,0.06,0.06,0,61,61,65,1,onethree,,,,,,,,,,,,,,,,,,,,,,,,,,,,,,,,,,,,,,,,,,,,,,,,,,,,,,,,,,,,,,,,,,,,,,,,,,,,,,,,,,,,,,,,,,,,,,,,,,,,,,,,,,,,,,,,,,,,,,,,,,,,,,,,,,,,,,,,,
,,59dbbdce5de9b000017ebf19,2024-02-22_03h52.56.279,kallum_motion_pilot,2023.2.2,Win32,8.547008547,59dbbdce5de9b000017ebf19,65d6bb0e977760de756971f7,65d6c4f40a464a429d9a9296,0.06,0.06,0,62,62,139,1,sixeight,,,,,,,,,,,,,,,,,,,,,,,,,,,,,,,,,,,,,,,,,,,,,,,,,,,,,,,,,,,,,,,,,,,,,,,,,,,,,,,,,,,,,,,,,,,,,,,,,,,,,,,,,,,,,,,,,,,,,,,,,,,,,,,,,,,,,,,,,
,,59dbbdce5de9b000017ebf19,2024-02-22_03h52.56.279,kallum_motion_pilot,2023.2.2,Win32,8.547008547,59dbbdce5de9b000017ebf19,65d6bb0e977760de756971f7,65d6c4f40a464a429d9a9296,0.06,0.06,0,63,63,67,1,twofour,,,,,,,,,,,,,,,,,,,,,,,,,,,,,,,,,,,,,,,,,,,,,,,,,,,,,,,,,,,,,,,,,,,,,,,,,,,,,,,,,,,,,,,,,,,,,,,,,,,,,,,,,,,,,,,,,,,,,,,,,,,,,,,,,,,,,,,,,
,,59dbbdce5de9b000017ebf19,2024-02-22_03h52.56.279,kallum_motion_pilot,2023.2.2,Win32,8.547008547,59dbbdce5de9b000017ebf19,65d6bb0e977760de756971f7,65d6c4f40a464a429d9a9296,0.06,0.061,0,64,64,58,1,twoone,,,,,,,,,,,,,,,,,,,,,,,,,,,,,,,,,,,,,,,,,,,,,,,,,,,,,,,,,,,,,,,,,,,,,,,,,,,,,,,,,,,,,,,,,,,,,,,,,,,,,,,,,,,,,,,,,,,,,,,,,,,,,,,,,,,,,,,,,
,,59dbbdce5de9b000017ebf19,2024-02-22_03h52.56.279,kallum_motion_pilot,2023.2.2,Win32,8.547008547,59dbbdce5de9b000017ebf19,65d6bb0e977760de756971f7,65d6c4f40a464a429d9a9296,0.061,0.061,0,65,65,111,1,eightseven,,,,,,,,,,,,,,,,,,,,,,,,,,,,,,,,,,,,,,,,,,,,,,,,,,,,,,,,,,,,,,,,,,,,,,,,,,,,,,,,,,,,,,,,,,,,,,,,,,,,,,,,,,,,,,,,,,,,,,,,,,,,,,,,,,,,,,,,,
,,59dbbdce5de9b000017ebf19,2024-02-22_03h52.56.279,kallum_motion_pilot,2023.2.2,Win32,8.547008547,59dbbdce5de9b000017ebf19,65d6bb0e977760de756971f7,65d6c4f40a464a429d9a9296,0.061,0.061,0,66,66,94,1,eightsix,,,,,,,,,,,,,,,,,,,,,,,,,,,,,,,,,,,,,,,,,,,,,,,,,,,,,,,,,,,,,,,,,,,,,,,,,,,,,,,,,,,,,,,,,,,,,,,,,,,,,,,,,,,,,,,,,,,,,,,,,,,,,,,,,,,,,,,,,
,,59dbbdce5de9b000017ebf19,2024-02-22_03h52.56.279,kallum_motion_pilot,2023.2.2,Win32,8.547008547,59dbbdce5de9b000017ebf19,65d6bb0e977760de756971f7,65d6c4f40a464a429d9a9296,0.061,0.061,0,67,67,53,1,threefour,,,,,,,,,,,,,,,,,,,,,,,,,,,,,,,,,,,,,,,,,,,,,,,,,,,,,,,,,,,,,,,,,,,,,,,,,,,,,,,,,,,,,,,,,,,,,,,,,,,,,,,,,,,,,,,,,,,,,,,,,,,,,,,,,,,,,,,,,
,,59dbbdce5de9b000017ebf19,2024-02-22_03h52.56.279,kallum_motion_pilot,2023.2.2,Win32,8.547008547,59dbbdce5de9b000017ebf19,65d6bb0e977760de756971f7,65d6c4f40a464a429d9a9296,0.061,0.061,0,68,68,118,1,eightsix,,,,,,,,,,,,,,,,,,,,,,,,,,,,,,,,,,,,,,,,,,,,,,,,,,,,,,,,,,,,,,,,,,,,,,,,,,,,,,,,,,,,,,,,,,,,,,,,,,,,,,,,,,,,,,,,,,,,,,,,,,,,,,,,,,,,,,,,,
,,59dbbdce5de9b000017ebf19,2024-02-22_03h52.56.279,kallum_motion_pilot,2023.2.2,Win32,8.547008547,59dbbdce5de9b000017ebf19,65d6bb0e977760de756971f7,65d6c4f40a464a429d9a9296,0.061,0.061,0,69,69,64,1,onetwo,,,,,,,,,,,,,,,,,,,,,,,,,,,,,,,,,,,,,,,,,,,,,,,,,,,,,,,,,,,,,,,,,,,,,,,,,,,,,,,,,,,,,,,,,,,,,,,,,,,,,,,,,,,,,,,,,,,,,,,,,,,,,,,,,,,,,,,,,
,,59dbbdce5de9b000017ebf19,2024-02-22_03h52.56.279,kallum_motion_pilot,2023.2.2,Win32,8.547008547,59dbbdce5de9b000017ebf19,65d6bb0e977760de756971f7,65d6c4f40a464a429d9a9296,0.061,0.061,0,70,70,40,1,onetwo,,,,,,,,,,,,,,,,,,,,,,,,,,,,,,,,,,,,,,,,,,,,,,,,,,,,,,,,,,,,,,,,,,,,,,,,,,,,,,,,,,,,,,,,,,,,,,,,,,,,,,,,,,,,,,,,,,,,,,,,,,,,,,,,,,,,,,,,,
,,59dbbdce5de9b000017ebf19,2024-02-22_03h52.56.279,kallum_motion_pilot,2023.2.2,Win32,8.547008547,59dbbdce5de9b000017ebf19,65d6bb0e977760de756971f7,65d6c4f40a464a429d9a9296,0.061,0.061,0,71,71,48,1,onetwo,,,,,,,,,,,,,,,,,,,,,,,,,,,,,,,,,,,,,,,,,,,,,,,,,,,,,,,,,,,,,,,,,,,,,,,,,,,,,,,,,,,,,,,,,,,,,,,,,,,,,,,,,,,,,,,,,,,,,,,,,,,,,,,,,,,,,,,,,
,,59dbbdce5de9b000017ebf19,2024-02-22_03h52.56.279,kallum_motion_pilot,2023.2.2,Win32,8.547008547,59dbbdce5de9b000017ebf19,65d6bb0e977760de756971f7,65d6c4f40a464a429d9a9296,0.061,0.062,0,72,72,29,1,threefour,,,,,,,,,,,,,,,,,,,,,,,,,,,,,,,,,,,,,,,,,,,,,,,,,,,,,,,,,,,,,,,,,,,,,,,,,,,,,,,,,,,,,,,,,,,,,,,,,,,,,,,,,,,,,,,,,,,,,,,,,,,,,,,,,,,,,,,,,
,,59dbbdce5de9b000017ebf19,2024-02-22_03h52.56.279,kallum_motion_pilot,2023.2.2,Win32,8.547008547,59dbbdce5de9b000017ebf19,65d6bb0e977760de756971f7,65d6c4f40a464a429d9a9296,0.062,0.062,0,73,73,140,1,sevenfive,,,,,,,,,,,,,,,,,,,,,,,,,,,,,,,,,,,,,,,,,,,,,,,,,,,,,,,,,,,,,,,,,,,,,,,,,,,,,,,,,,,,,,,,,,,,,,,,,,,,,,,,,,,,,,,,,,,,,,,,,,,,,,,,,,,,,,,,,
,,59dbbdce5de9b000017ebf19,2024-02-22_03h52.56.279,kallum_motion_pilot,2023.2.2,Win32,8.547008547,59dbbdce5de9b000017ebf19,65d6bb0e977760de756971f7,65d6c4f40a464a429d9a9296,0.062,0.062,0,74,74,18,1,twoone,,,,,,,,,,,,,,,,,,,,,,,,,,,,,,,,,,,,,,,,,,,,,,,,,,,,,,,,,,,,,,,,,,,,,,,,,,,,,,,,,,,,,,,,,,,,,,,,,,,,,,,,,,,,,,,,,,,,,,,,,,,,,,,,,,,,,,,,,
,,59dbbdce5de9b000017ebf19,2024-02-22_03h52.56.279,kallum_motion_pilot,2023.2.2,Win32,8.547008547,59dbbdce5de9b000017ebf19,65d6bb0e977760de756971f7,65d6c4f40a464a429d9a9296,0.062,0.062,0,75,75,136,1,fivesix,,,,,,,,,,,,,,,,,,,,,,,,,,,,,,,,,,,,,,,,,,,,,,,,,,,,,,,,,,,,,,,,,,,,,,,,,,,,,,,,,,,,,,,,,,,,,,,,,,,,,,,,,,,,,,,,,,,,,,,,,,,,,,,,,,,,,,,,,
,,59dbbdce5de9b000017ebf19,2024-02-22_03h52.56.279,kallum_motion_pilot,2023.2.2,Win32,8.547008547,59dbbdce5de9b000017ebf19,65d6bb0e977760de756971f7,65d6c4f40a464a429d9a9296,0.063,0.063,0,76,76,115,1,sixeight,,,,,,,,,,,,,,,,,,,,,,,,,,,,,,,,,,,,,,,,,,,,,,,,,,,,,,,,,,,,,,,,,,,,,,,,,,,,,,,,,,,,,,,,,,,,,,,,,,,,,,,,,,,,,,,,,,,,,,,,,,,,,,,,,,,,,,,,,
,,59dbbdce5de9b000017ebf19,2024-02-22_03h52.56.279,kallum_motion_pilot,2023.2.2,Win32,8.547008547,59dbbdce5de9b000017ebf19,65d6bb0e977760de756971f7,65d6c4f40a464a429d9a9296,0.063,0.063,0,77,77,103,1,eightseven,,,,,,,,,,,,,,,,,,,,,,,,,,,,,,,,,,,,,,,,,,,,,,,,,,,,,,,,,,,,,,,,,,,,,,,,,,,,,,,,,,,,,,,,,,,,,,,,,,,,,,,,,,,,,,,,,,,,,,,,,,,,,,,,,,,,,,,,,
,,59dbbdce5de9b000017ebf19,2024-02-22_03h52.56.279,kallum_motion_pilot,2023.2.2,Win32,8.547008547,59dbbdce5de9b000017ebf19,65d6bb0e977760de756971f7,65d6c4f40a464a429d9a9296,0.063,0.063,0,78,78,5,1,threefour,,,,,,,,,,,,,,,,,,,,,,,,,,,,,,,,,,,,,,,,,,,,,,,,,,,,,,,,,,,,,,,,,,,,,,,,,,,,,,,,,,,,,,,,,,,,,,,,,,,,,,,,,,,,,,,,,,,,,,,,,,,,,,,,,,,,,,,,,
,,59dbbdce5de9b000017ebf19,2024-02-22_03h52.56.279,kallum_motion_pilot,2023.2.2,Win32,8.547008547,59dbbdce5de9b000017ebf19,65d6bb0e977760de756971f7,65d6c4f40a464a429d9a9296,0.064,0.064,0,79,79,83,1,sixeight,,,,,,,,,,,,,,,,,,,,,,,,,,,,,,,,,,,,,,,,,,,,,,,,,,,,,,,,,,,,,,,,,,,,,,,,,,,,,,,,,,,,,,,,,,,,,,,,,,,,,,,,,,,,,,,,,,,,,,,,,,,,,,,,,,,,,,,,,
,,59dbbdce5de9b000017ebf19,2024-02-22_03h52.56.279,kallum_motion_pilot,2023.2.2,Win32,8.547008547,59dbbdce5de9b000017ebf19,65d6bb0e977760de756971f7,65d6c4f40a464a429d9a9296,0.064,0.064,0,80,80,72,1,onetwo,,,,,,,,,,,,,,,,,,,,,,,,,,,,,,,,,,,,,,,,,,,,,,,,,,,,,,,,,,,,,,,,,,,,,,,,,,,,,,,,,,,,,,,,,,,,,,,,,,,,,,,,,,,,,,,,,,,,,,,,,,,,,,,,,,,,,,,,,
,,59dbbdce5de9b000017ebf19,2024-02-22_03h52.56.279,kallum_motion_pilot,2023.2.2,Win32,8.547008547,59dbbdce5de9b000017ebf19,65d6bb0e977760de756971f7,65d6c4f40a464a429d9a9296,0.065,0.065,0,81,81,96,1,fivesix,,,,,,,,,,,,,,,,,,,,,,,,,,,,,,,,,,,,,,,,,,,,,,,,,,,,,,,,,,,,,,,,,,,,,,,,,,,,,,,,,,,,,,,,,,,,,,,,,,,,,,,,,,,,,,,,,,,,,,,,,,,,,,,,,,,,,,,,,
,,59dbbdce5de9b000017ebf19,2024-02-22_03h52.56.279,kallum_motion_pilot,2023.2.2,Win32,8.547008547,59dbbdce5de9b000017ebf19,65d6bb0e977760de756971f7,65d6c4f40a464a429d9a9296,0.065,0.065,0,82,82,131,1,sixeight,,,,,,,,,,,,,,,,,,,,,,,,,,,,,,,,,,,,,,,,,,,,,,,,,,,,,,,,,,,,,,,,,,,,,,,,,,,,,,,,,,,,,,,,,,,,,,,,,,,,,,,,,,,,,,,,,,,,,,,,,,,,,,,,,,,,,,,,,
,,59dbbdce5de9b000017ebf19,2024-02-22_03h52.56.279,kallum_motion_pilot,2023.2.2,Win32,8.547008547,59dbbdce5de9b000017ebf19,65d6bb0e977760de756971f7,65d6c4f40a464a429d9a9296,0.065,0.065,0,83,83,154,1,sixfive,,,,,,,,,,,,,,,,,,,,,,,,,,,,,,,,,,,,,,,,,,,,,,,,,,,,,,,,,,,,,,,,,,,,,,,,,,,,,,,,,,,,,,,,,,,,,,,,,,,,,,,,,,,,,,,,,,,,,,,,,,,,,,,,,,,,,,,,,
,,59dbbdce5de9b000017ebf19,2024-02-22_03h52.56.279,kallum_motion_pilot,2023.2.2,Win32,8.547008547,59dbbdce5de9b000017ebf19,65d6bb0e977760de756971f7,65d6c4f40a464a429d9a9296,0.065,0.065,0,84,84,37,1,threefour,,,,,,,,,,,,,,,,,,,,,,,,,,,,,,,,,,,,,,,,,,,,,,,,,,,,,,,,,,,,,,,,,,,,,,,,,,,,,,,,,,,,,,,,,,,,,,,,,,,,,,,,,,,,,,,,,,,,,,,,,,,,,,,,,,,,,,,,,
,,59dbbdce5de9b000017ebf19,2024-02-22_03h52.56.279,kallum_motion_pilot,2023.2.2,Win32,8.547008547,59dbbdce5de9b000017ebf19,65d6bb0e977760de756971f7,65d6c4f40a464a429d9a9296,0.066,0.066,0,85,85,43,1,twofour,,,,,,,,,,,,,,,,,,,,,,,,,,,,,,,,,,,,,,,,,,,,,,,,,,,,,,,,,,,,,,,,,,,,,,,,,,,,,,,,,,,,,,,,,,,,,,,,,,,,,,,,,,,,,,,,,,,,,,,,,,,,,,,,,,,,,,,,,
,,59dbbdce5de9b000017ebf19,2024-02-22_03h52.56.279,kallum_motion_pilot,2023.2.2,Win32,8.547008547,59dbbdce5de9b000017ebf19,65d6bb0e977760de756971f7,65d6c4f40a464a429d9a9296,0.066,0.066,0,86,86,144,1,fivesix,,,,,,,,,,,,,,,,,,,,,,,,,,,,,,,,,,,,,,,,,,,,,,,,,,,,,,,,,,,,,,,,,,,,,,,,,,,,,,,,,,,,,,,,,,,,,,,,,,,,,,,,,,,,,,,,,,,,,,,,,,,,,,,,,,,,,,,,,
,,59dbbdce5de9b000017ebf19,2024-02-22_03h52.56.279,kallum_motion_pilot,2023.2.2,Win32,8.547008547,59dbbdce5de9b000017ebf19,65d6bb0e977760de756971f7,65d6c4f40a464a429d9a9296,0.066,0.066,0,87,87,3,1,twofour,,,,,,,,,,,,,,,,,,,,,,,,,,,,,,,,,,,,,,,,,,,,,,,,,,,,,,,,,,,,,,,,,,,,,,,,,,,,,,,,,,,,,,,,,,,,,,,,,,,,,,,,,,,,,,,,,,,,,,,,,,,,,,,,,,,,,,,,,
,,59dbbdce5de9b000017ebf19,2024-02-22_03h52.56.279,kallum_motion_pilot,2023.2.2,Win32,8.547008547,59dbbdce5de9b000017ebf19,65d6bb0e977760de756971f7,65d6c4f40a464a429d9a9296,0.066,0.066,0,88,88,63,1,fourthree,,,,,,,,,,,,,,,,,,,,,,,,,,,,,,,,,,,,,,,,,,,,,,,,,,,,,,,,,,,,,,,,,,,,,,,,,,,,,,,,,,,,,,,,,,,,,,,,,,,,,,,,,,,,,,,,,,,,,,,,,,,,,,,,,,,,,,,,,
,,59dbbdce5de9b000017ebf19,2024-02-22_03h52.56.279,kallum_motion_pilot,2023.2.2,Win32,8.547008547,59dbbdce5de9b000017ebf19,65d6bb0e977760de756971f7,65d6c4f40a464a429d9a9296,0.066,0.066,0,89,89,128,1,fivesix,,,,,,,,,,,,,,,,,,,,,,,,,,,,,,,,,,,,,,,,,,,,,,,,,,,,,,,,,,,,,,,,,,,,,,,,,,,,,,,,,,,,,,,,,,,,,,,,,,,,,,,,,,,,,,,,,,,,,,,,,,,,,,,,,,,,,,,,,
,,59dbbdce5de9b000017ebf19,2024-02-22_03h52.56.279,kallum_motion_pilot,2023.2.2,Win32,8.547008547,59dbbdce5de9b000017ebf19,65d6bb0e977760de756971f7,65d6c4f40a464a429d9a9296,0.067,0.067,0,90,90,149,1,seveneight,,,,,,,,,,,,,,,,,,,,,,,,,,,,,,,,,,,,,,,,,,,,,,,,,,,,,,,,,,,,,,,,,,,,,,,,,,,,,,,,,,,,,,,,,,,,,,,,,,,,,,,,,,,,,,,,,,,,,,,,,,,,,,,,,,,,,,,,,
,,59dbbdce5de9b000017ebf19,2024-02-22_03h52.56.279,kallum_motion_pilot,2023.2.2,Win32,8.547008547,59dbbdce5de9b000017ebf19,65d6bb0e977760de756971f7,65d6c4f40a464a429d9a9296,0.067,0.067,0,91,91,92,1,sevenfive,,,,,,,,,,,,,,,,,,,,,,,,,,,,,,,,,,,,,,,,,,,,,,,,,,,,,,,,,,,,,,,,,,,,,,,,,,,,,,,,,,,,,,,,,,,,,,,,,,,,,,,,,,,,,,,,,,,,,,,,,,,,,,,,,,,,,,,,,
,,59dbbdce5de9b000017ebf19,2024-02-22_03h52.56.279,kallum_motion_pilot,2023.2.2,Win32,8.547008547,59dbbdce5de9b000017ebf19,65d6bb0e977760de756971f7,65d6c4f40a464a429d9a9296,0.067,0.067,0,92,92,87,1,eightseven,,,,,,,,,,,,,,,,,,,,,,,,,,,,,,,,,,,,,,,,,,,,,,,,,,,,,,,,,,,,,,,,,,,,,,,,,,,,,,,,,,,,,,,,,,,,,,,,,,,,,,,,,,,,,,,,,,,,,,,,,,,,,,,,,,,,,,,,,
,,59dbbdce5de9b000017ebf19,2024-02-22_03h52.56.279,kallum_motion_pilot,2023.2.2,Win32,8.547008547,59dbbdce5de9b000017ebf19,65d6bb0e977760de756971f7,65d6c4f40a464a429d9a9296,0.067,0.067,0,93,93,68,1,threeone,,,,,,,,,,,,,,,,,,,,,,,,,,,,,,,,,,,,,,,,,,,,,,,,,,,,,,,,,,,,,,,,,,,,,,,,,,,,,,,,,,,,,,,,,,,,,,,,,,,,,,,,,,,,,,,,,,,,,,,,,,,,,,,,,,,,,,,,,
,,59dbbdce5de9b000017ebf19,2024-02-22_03h52.56.279,kallum_motion_pilot,2023.2.2,Win32,8.547008547,59dbbdce5de9b000017ebf19,65d6bb0e977760de756971f7,65d6c4f40a464a429d9a9296,0.067,0.067,0,94,94,41,1,onethree,,,,,,,,,,,,,,,,,,,,,,,,,,,,,,,,,,,,,,,,,,,,,,,,,,,,,,,,,,,,,,,,,,,,,,,,,,,,,,,,,,,,,,,,,,,,,,,,,,,,,,,,,,,,,,,,,,,,,,,,,,,,,,,,,,,,,,,,,
,,59dbbdce5de9b000017ebf19,2024-02-22_03h52.56.279,kallum_motion_pilot,2023.2.2,Win32,8.547008547,59dbbdce5de9b000017ebf19,65d6bb0e977760de756971f7,65d6c4f40a464a429d9a9296,0.068,0.068,0,95,95,135,1,eightseven,,,,,,,,,,,,,,,,,,,,,,,,,,,,,,,,,,,,,,,,,,,,,,,,,,,,,,,,,,,,,,,,,,,,,,,,,,,,,,,,,,,,,,,,,,,,,,,,,,,,,,,,,,,,,,,,,,,,,,,,,,,,,,,,,,,,,,,,,
,,59dbbdce5de9b000017ebf19,2024-02-22_03h52.56.279,kallum_motion_pilot,2023.2.2,Win32,8.547008547,59dbbdce5de9b000017ebf19,65d6bb0e977760de756971f7,65d6c4f40a464a429d9a9296,0.068,0.068,0,96,96,46,1,fourtwo,,,,,,,,,,,,,,,,,,,,,,,,,,,,,,,,,,,,,,,,,,,,,,,,,,,,,,,,,,,,,,,,,,,,,,,,,,,,,,,,,,,,,,,,,,,,,,,,,,,,,,,,,,,,,,,,,,,,,,,,,,,,,,,,,,,,,,,,,
,,59dbbdce5de9b000017ebf19,2024-02-22_03h52.56.279,kallum_motion_pilot,2023.2.2,Win32,8.547008547,59dbbdce5de9b000017ebf19,65d6bb0e977760de756971f7,65d6c4f40a464a429d9a9296,0.068,0.068,0,97,97,33,1,onethree,,,,,,,,,,,,,,,,,,,,,,,,,,,,,,,,,,,,,,,,,,,,,,,,,,,,,,,,,,,,,,,,,,,,,,,,,,,,,,,,,,,,,,,,,,,,,,,,,,,,,,,,,,,,,,,,,,,,,,,,,,,,,,,,,,,,,,,,,
,,59dbbdce5de9b000017ebf19,2024-02-22_03h52.56.279,kallum_motion_pilot,2023.2.2,Win32,8.547008547,59dbbdce5de9b000017ebf19,65d6bb0e977760de756971f7,65d6c4f40a464a429d9a9296,0.068,0.068,0,98,98,28,1,threeone,,,,,,,,,,,,,,,,,,,,,,,,,,,,,,,,,,,,,,,,,,,,,,,,,,,,,,,,,,,,,,,,,,,,,,,,,,,,,,,,,,,,,,,,,,,,,,,,,,,,,,,,,,,,,,,,,,,,,,,,,,,,,,,,,,,,,,,,,
,,59dbbdce5de9b000017ebf19,2024-02-22_03h52.56.279,kallum_motion_pilot,2023.2.2,Win32,8.547008547,59dbbdce5de9b000017ebf19,65d6bb0e977760de756971f7,65d6c4f40a464a429d9a9296,0.068,0.068,0,99,99,45,1,threefour,,,,,,,,,,,,,,,,,,,,,,,,,,,,,,,,,,,,,,,,,,,,,,,,,,,,,,,,,,,,,,,,,,,,,,,,,,,,,,,,,,,,,,,,,,,,,,,,,,,,,,,,,,,,,,,,,,,,,,,,,,,,,,,,,,,,,,,,,
,,59dbbdce5de9b000017ebf19,2024-02-22_03h52.56.279,kallum_motion_pilot,2023.2.2,Win32,8.547008547,59dbbdce5de9b000017ebf19,65d6bb0e977760de756971f7,65d6c4f40a464a429d9a9296,0.068,0.068,0,100,100,88,1,fivesix,,,,,,,,,,,,,,,,,,,,,,,,,,,,,,,,,,,,,,,,,,,,,,,,,,,,,,,,,,,,,,,,,,,,,,,,,,,,,,,,,,,,,,,,,,,,,,,,,,,,,,,,,,,,,,,,,,,,,,,,,,,,,,,,,,,,,,,,,
,,59dbbdce5de9b000017ebf19,2024-02-22_03h52.56.279,kallum_motion_pilot,2023.2.2,Win32,8.547008547,59dbbdce5de9b000017ebf19,65d6bb0e977760de756971f7,65d6c4f40a464a429d9a9296,0.069,0.069,0,101,101,13,1,threefour,,,,,,,,,,,,,,,,,,,,,,,,,,,,,,,,,,,,,,,,,,,,,,,,,,,,,,,,,,,,,,,,,,,,,,,,,,,,,,,,,,,,,,,,,,,,,,,,,,,,,,,,,,,,,,,,,,,,,,,,,,,,,,,,,,,,,,,,,
,,59dbbdce5de9b000017ebf19,2024-02-22_03h52.56.279,kallum_motion_pilot,2023.2.2,Win32,8.547008547,59dbbdce5de9b000017ebf19,65d6bb0e977760de756971f7,65d6c4f40a464a429d9a9296,0.069,0.069,0,102,102,22,1,fourtwo,,,,,,,,,,,,,,,,,,,,,,,,,,,,,,,,,,,,,,,,,,,,,,,,,,,,,,,,,,,,,,,,,,,,,,,,,,,,,,,,,,,,,,,,,,,,,,,,,,,,,,,,,,,,,,,,,,,,,,,,,,,,,,,,,,,,,,,,,
,,59dbbdce5de9b000017ebf19,2024-02-22_03h52.56.279,kallum_motion_pilot,2023.2.2,Win32,8.547008547,59dbbdce5de9b000017ebf19,65d6bb0e977760de756971f7,65d6c4f40a464a429d9a9296,0.069,0.069,0,103,103,0,1,onetwo,,,,,,,,,,,,,,,,,,,,,,,,,,,,,,,,,,,,,,,,,,,,,,,,,,,,,,,,,,,,,,,,,,,,,,,,,,,,,,,,,,,,,,,,,,,,,,,,,,,,,,,,,,,,,,,,,,,,,,,,,,,,,,,,,,,,,,,,,
,,59dbbdce5de9b000017ebf19,2024-02-22_03h52.56.279,kallum_motion_pilot,2023.2.2,Win32,8.547008547,59dbbdce5de9b000017ebf19,65d6bb0e977760de756971f7,65d6c4f40a464a429d9a9296,0.069,0.069,0,104,104,116,1,sevenfive,,,,,,,,,,,,,,,,,,,,,,,,,,,,,,,,,,,,,,,,,,,,,,,,,,,,,,,,,,,,,,,,,,,,,,,,,,,,,,,,,,,,,,,,,,,,,,,,,,,,,,,,,,,,,,,,,,,,,,,,,,,,,,,,,,,,,,,,,
,,59dbbdce5de9b000017ebf19,2024-02-22_03h52.56.279,kallum_motion_pilot,2023.2.2,Win32,8.547008547,59dbbdce5de9b000017ebf19,65d6bb0e977760de756971f7,65d6c4f40a464a429d9a9296,0.07,0.07,0,105,105,73,1,onethree,,,,,,,,,,,,,,,,,,,,,,,,,,,,,,,,,,,,,,,,,,,,,,,,,,,,,,,,,,,,,,,,,,,,,,,,,,,,,,,,,,,,,,,,,,,,,,,,,,,,,,,,,,,,,,,,,,,,,,,,,,,,,,,,,,,,,,,,,
,,59dbbdce5de9b000017ebf19,2024-02-22_03h52.56.279,kallum_motion_pilot,2023.2.2,Win32,8.547008547,59dbbdce5de9b000017ebf19,65d6bb0e977760de756971f7,65d6c4f40a464a429d9a9296,0.07,0.071,0,106,106,104,1,fivesix,,,,,,,,,,,,,,,,,,,,,,,,,,,,,,,,,,,,,,,,,,,,,,,,,,,,,,,,,,,,,,,,,,,,,,,,,,,,,,,,,,,,,,,,,,,,,,,,,,,,,,,,,,,,,,,,,,,,,,,,,,,,,,,,,,,,,,,,,
,,59dbbdce5de9b000017ebf19,2024-02-22_03h52.56.279,kallum_motion_pilot,2023.2.2,Win32,8.547008547,59dbbdce5de9b000017ebf19,65d6bb0e977760de756971f7,65d6c4f40a464a429d9a9296,0.071,0.071,0,107,107,125,1,seveneight,,,,,,,,,,,,,,,,,,,,,,,,,,,,,,,,,,,,,,,,,,,,,,,,,,,,,,,,,,,,,,,,,,,,,,,,,,,,,,,,,,,,,,,,,,,,,,,,,,,,,,,,,,,,,,,,,,,,,,,,,,,,,,,,,,,,,,,,,
,,59dbbdce5de9b000017ebf19,2024-02-22_03h52.56.279,kallum_motion_pilot,2023.2.2,Win32,8.547008547,59dbbdce5de9b000017ebf19,65d6bb0e977760de756971f7,65d6c4f40a464a429d9a9296,0.071,0.071,0,108,108,95,1,eightseven,,,,,,,,,,,,,,,,,,,,,,,,,,,,,,,,,,,,,,,,,,,,,,,,,,,,,,,,,,,,,,,,,,,,,,,,,,,,,,,,,,,,,,,,,,,,,,,,,,,,,,,,,,,,,,,,,,,,,,,,,,,,,,,,,,,,,,,,,
,,59dbbdce5de9b000017ebf19,2024-02-22_03h52.56.279,kallum_motion_pilot,2023.2.2,Win32,8.547008547,59dbbdce5de9b000017ebf19,65d6bb0e977760de756971f7,65d6c4f40a464a429d9a9296,0.071,0.071,0,109,109,91,1,sixeight,,,,,,,,,,,,,,,,,,,,,,,,,,,,,,,,,,,,,,,,,,,,,,,,,,,,,,,,,,,,,,,,,,,,,,,,,,,,,,,,,,,,,,,,,,,,,,,,,,,,,,,,,,,,,,,,,,,,,,,,,,,,,,,,,,,,,,,,,
,,59dbbdce5de9b000017ebf19,2024-02-22_03h52.56.279,kallum_motion_pilot,2023.2.2,Win32,8.547008547,59dbbdce5de9b000017ebf19,65d6bb0e977760de756971f7,65d6c4f40a464a429d9a9296,0.071,0.071,0,110,110,9,1,onethree,,,,,,,,,,,,,,,,,,,,,,,,,,,,,,,,,,,,,,,,,,,,,,,,,,,,,,,,,,,,,,,,,,,,,,,,,,,,,,,,,,,,,,,,,,,,,,,,,,,,,,,,,,,,,,,,,,,,,,,,,,,,,,,,,,,,,,,,,
,,59dbbdce5de9b000017ebf19,2024-02-22_03h52.56.279,kallum_motion_pilot,2023.2.2,Win32,8.547008547,59dbbdce5de9b000017ebf19,65d6bb0e977760de756971f7,65d6c4f40a464a429d9a9296,0.071,0.071,0,111,111,129,1,fiveseven,,,,,,,,,,,,,,,,,,,,,,,,,,,,,,,,,,,,,,,,,,,,,,,,,,,,,,,,,,,,,,,,,,,,,,,,,,,,,,,,,,,,,,,,,,,,,,,,,,,,,,,,,,,,,,,,,,,,,,,,,,,,,,,,,,,,,,,,,
,,59dbbdce5de9b000017ebf19,2024-02-22_03h52.56.279,kallum_motion_pilot,2023.2.2,Win32,8.547008547,59dbbdce5de9b000017ebf19,65d6bb0e977760de756971f7,65d6c4f40a464a429d9a9296,0.071,0.071,0,112,112,99,1,sixeight,,,,,,,,,,,,,,,,,,,,,,,,,,,,,,,,,,,,,,,,,,,,,,,,,,,,,,,,,,,,,,,,,,,,,,,,,,,,,,,,,,,,,,,,,,,,,,,,,,,,,,,,,,,,,,,,,,,,,,,,,,,,,,,,,,,,,,,,,
,,59dbbdce5de9b000017ebf19,2024-02-22_03h52.56.279,kallum_motion_pilot,2023.2.2,Win32,8.547008547,59dbbdce5de9b000017ebf19,65d6bb0e977760de756971f7,65d6c4f40a464a429d9a9296,0.072,0.072,0,113,113,153,1,fiveseven,,,,,,,,,,,,,,,,,,,,,,,,,,,,,,,,,,,,,,,,,,,,,,,,,,,,,,,,,,,,,,,,,,,,,,,,,,,,,,,,,,,,,,,,,,,,,,,,,,,,,,,,,,,,,,,,,,,,,,,,,,,,,,,,,,,,,,,,,
,,59dbbdce5de9b000017ebf19,2024-02-22_03h52.56.279,kallum_motion_pilot,2023.2.2,Win32,8.547008547,59dbbdce5de9b000017ebf19,65d6bb0e977760de756971f7,65d6c4f40a464a429d9a9296,0.072,0.072,0,114,114,101,1,seveneight,,,,,,,,,,,,,,,,,,,,,,,,,,,,,,,,,,,,,,,,,,,,,,,,,,,,,,,,,,,,,,,,,,,,,,,,,,,,,,,,,,,,,,,,,,,,,,,,,,,,,,,,,,,,,,,,,,,,,,,,,,,,,,,,,,,,,,,,,
,,59dbbdce5de9b000017ebf19,2024-02-22_03h52.56.279,kallum_motion_pilot,2023.2.2,Win32,8.547008547,59dbbdce5de9b000017ebf19,65d6bb0e977760de756971f7,65d6c4f40a464a429d9a9296,0.072,0.072,0,115,115,120,1,fivesix,,,,,,,,,,,,,,,,,,,,,,,,,,,,,,,,,,,,,,,,,,,,,,,,,,,,,,,,,,,,,,,,,,,,,,,,,,,,,,,,,,,,,,,,,,,,,,,,,,,,,,,,,,,,,,,,,,,,,,,,,,,,,,,,,,,,,,,,,
,,59dbbdce5de9b000017ebf19,2024-02-22_03h52.56.279,kallum_motion_pilot,2023.2.2,Win32,8.547008547,59dbbdce5de9b000017ebf19,65d6bb0e977760de756971f7,65d6c4f40a464a429d9a9296,0.072,0.072,0,116,116,106,1,sixfive,,,,,,,,,,,,,,,,,,,,,,,,,,,,,,,,,,,,,,,,,,,,,,,,,,,,,,,,,,,,,,,,,,,,,,,,,,,,,,,,,,,,,,,,,,,,,,,,,,,,,,,,,,,,,,,,,,,,,,,,,,,,,,,,,,,,,,,,,
,,59dbbdce5de9b000017ebf19,2024-02-22_03h52.56.279,kallum_motion_pilot,2023.2.2,Win32,8.547008547,59dbbdce5de9b000017ebf19,65d6bb0e977760de756971f7,65d6c4f40a464a429d9a9296,0.072,0.073,0,117,117,97,1,fiveseven,,,,,,,,,,,,,,,,,,,,,,,,,,,,,,,,,,,,,,,,,,,,,,,,,,,,,,,,,,,,,,,,,,,,,,,,,,,,,,,,,,,,,,,,,,,,,,,,,,,,,,,,,,,,,,,,,,,,,,,,,,,,,,,,,,,,,,,,,
,,59dbbdce5de9b000017ebf19,2024-02-22_03h52.56.279,kallum_motion_pilot,2023.2.2,Win32,8.547008547,59dbbdce5de9b000017ebf19,65d6bb0e977760de756971f7,65d6c4f40a464a429d9a9296,0.073,0.073,0,118,118,161,1,fiveseven,,,,,,,,,,,,,,,,,,,,,,,,,,,,,,,,,,,,,,,,,,,,,,,,,,,,,,,,,,,,,,,,,,,,,,,,,,,,,,,,,,,,,,,,,,,,,,,,,,,,,,,,,,,,,,,,,,,,,,,,,,,,,,,,,,,,,,,,,
,,59dbbdce5de9b000017ebf19,2024-02-22_03h52.56.279,kallum_motion_pilot,2023.2.2,Win32,8.547008547,59dbbdce5de9b000017ebf19,65d6bb0e977760de756971f7,65d6c4f40a464a429d9a9296,0.073,0.073,0,119,119,110,1,eightsix,,,,,,,,,,,,,,,,,,,,,,,,,,,,,,,,,,,,,,,,,,,,,,,,,,,,,,,,,,,,,,,,,,,,,,,,,,,,,,,,,,,,,,,,,,,,,,,,,,,,,,,,,,,,,,,,,,,,,,,,,,,,,,,,,,,,,,,,,
,,59dbbdce5de9b000017ebf19,2024-02-22_03h52.56.279,kallum_motion_pilot,2023.2.2,Win32,8.547008547,59dbbdce5de9b000017ebf19,65d6bb0e977760de756971f7,65d6c4f40a464a429d9a9296,0.073,0.073,0,120,120,86,1,eightsix,,,,,,,,,,,,,,,,,,,,,,,,,,,,,,,,,,,,,,,,,,,,,,,,,,,,,,,,,,,,,,,,,,,,,,,,,,,,,,,,,,,,,,,,,,,,,,,,,,,,,,,,,,,,,,,,,,,,,,,,,,,,,,,,,,,,,,,,,
,,59dbbdce5de9b000017ebf19,2024-02-22_03h52.56.279,kallum_motion_pilot,2023.2.2,Win32,8.547008547,59dbbdce5de9b000017ebf19,65d6bb0e977760de756971f7,65d6c4f40a464a429d9a9296,0.073,0.073,0,121,121,7,1,fourthree,,,,,,,,,,,,,,,,,,,,,,,,,,,,,,,,,,,,,,,,,,,,,,,,,,,,,,,,,,,,,,,,,,,,,,,,,,,,,,,,,,,,,,,,,,,,,,,,,,,,,,,,,,,,,,,,,,,,,,,,,,,,,,,,,,,,,,,,,
,,59dbbdce5de9b000017ebf19,2024-02-22_03h52.56.279,kallum_motion_pilot,2023.2.2,Win32,8.547008547,59dbbdce5de9b000017ebf19,65d6bb0e977760de756971f7,65d6c4f40a464a429d9a9296,0.073,0.073,0,122,122,75,1,twofour,,,,,,,,,,,,,,,,,,,,,,,,,,,,,,,,,,,,,,,,,,,,,,,,,,,,,,,,,,,,,,,,,,,,,,,,,,,,,,,,,,,,,,,,,,,,,,,,,,,,,,,,,,,,,,,,,,,,,,,,,,,,,,,,,,,,,,,,,
,,59dbbdce5de9b000017ebf19,2024-02-22_03h52.56.279,kallum_motion_pilot,2023.2.2,Win32,8.547008547,59dbbdce5de9b000017ebf19,65d6bb0e977760de756971f7,65d6c4f40a464a429d9a9296,0.073,0.074,0,123,123,50,1,twoone,,,,,,,,,,,,,,,,,,,,,,,,,,,,,,,,,,,,,,,,,,,,,,,,,,,,,,,,,,,,,,,,,,,,,,,,,,,,,,,,,,,,,,,,,,,,,,,,,,,,,,,,,,,,,,,,,,,,,,,,,,,,,,,,,,,,,,,,,
,,59dbbdce5de9b000017ebf19,2024-02-22_03h52.56.279,kallum_motion_pilot,2023.2.2,Win32,8.547008547,59dbbdce5de9b000017ebf19,65d6bb0e977760de756971f7,65d6c4f40a464a429d9a9296,0.074,0.074,0,124,124,59,1,twofour,,,,,,,,,,,,,,,,,,,,,,,,,,,,,,,,,,,,,,,,,,,,,,,,,,,,,,,,,,,,,,,,,,,,,,,,,,,,,,,,,,,,,,,,,,,,,,,,,,,,,,,,,,,,,,,,,,,,,,,,,,,,,,,,,,,,,,,,,
,,59dbbdce5de9b000017ebf19,2024-02-22_03h52.56.279,kallum_motion_pilot,2023.2.2,Win32,8.547008547,59dbbdce5de9b000017ebf19,65d6bb0e977760de756971f7,65d6c4f40a464a429d9a9296,0.074,0.075,0,125,125,24,1,onetwo,,,,,,,,,,,,,,,,,,,,,,,,,,,,,,,,,,,,,,,,,,,,,,,,,,,,,,,,,,,,,,,,,,,,,,,,,,,,,,,,,,,,,,,,,,,,,,,,,,,,,,,,,,,,,,,,,,,,,,,,,,,,,,,,,,,,,,,,,
,,59dbbdce5de9b000017ebf19,2024-02-22_03h52.56.279,kallum_motion_pilot,2023.2.2,Win32,8.547008547,59dbbdce5de9b000017ebf19,65d6bb0e977760de756971f7,65d6c4f40a464a429d9a9296,0.075,0.075,0,126,126,38,1,fourtwo,,,,,,,,,,,,,,,,,,,,,,,,,,,,,,,,,,,,,,,,,,,,,,,,,,,,,,,,,,,,,,,,,,,,,,,,,,,,,,,,,,,,,,,,,,,,,,,,,,,,,,,,,,,,,,,,,,,,,,,,,,,,,,,,,,,,,,,,,
,,59dbbdce5de9b000017ebf19,2024-02-22_03h52.56.279,kallum_motion_pilot,2023.2.2,Win32,8.547008547,59dbbdce5de9b000017ebf19,65d6bb0e977760de756971f7,65d6c4f40a464a429d9a9296,0.075,0.075,0,127,127,44,1,threeone,,,,,,,,,,,,,,,,,,,,,,,,,,,,,,,,,,,,,,,,,,,,,,,,,,,,,,,,,,,,,,,,,,,,,,,,,,,,,,,,,,,,,,,,,,,,,,,,,,,,,,,,,,,,,,,,,,,,,,,,,,,,,,,,,,,,,,,,,
,,59dbbdce5de9b000017ebf19,2024-02-22_03h52.56.279,kallum_motion_pilot,2023.2.2,Win32,8.547008547,59dbbdce5de9b000017ebf19,65d6bb0e977760de756971f7,65d6c4f40a464a429d9a9296,0.075,0.075,0,128,128,79,1,eightseven,,,,,,,,,,,,,,,,,,,,,,,,,,,,,,,,,,,,,,,,,,,,,,,,,,,,,,,,,,,,,,,,,,,,,,,,,,,,,,,,,,,,,,,,,,,,,,,,,,,,,,,,,,,,,,,,,,,,,,,,,,,,,,,,,,,,,,,,,
,,59dbbdce5de9b000017ebf19,2024-02-22_03h52.56.279,kallum_motion_pilot,2023.2.2,Win32,8.547008547,59dbbdce5de9b000017ebf19,65d6bb0e977760de756971f7,65d6c4f40a464a429d9a9296,0.075,0.075,0,129,129,123,1,sixeight,,,,,,,,,,,,,,,,,,,,,,,,,,,,,,,,,,,,,,,,,,,,,,,,,,,,,,,,,,,,,,,,,,,,,,,,,,,,,,,,,,,,,,,,,,,,,,,,,,,,,,,,,,,,,,,,,,,,,,,,,,,,,,,,,,,,,,,,,
,,59dbbdce5de9b000017ebf19,2024-02-22_03h52.56.279,kallum_motion_pilot,2023.2.2,Win32,8.547008547,59dbbdce5de9b000017ebf19,65d6bb0e977760de756971f7,65d6c4f40a464a429d9a9296,0.075,0.075,0,130,130,26,1,twoone,,,,,,,,,,,,,,,,,,,,,,,,,,,,,,,,,,,,,,,,,,,,,,,,,,,,,,,,,,,,,,,,,,,,,,,,,,,,,,,,,,,,,,,,,,,,,,,,,,,,,,,,,,,,,,,,,,,,,,,,,,,,,,,,,,,,,,,,,
,,59dbbdce5de9b000017ebf19,2024-02-22_03h52.56.279,kallum_motion_pilot,2023.2.2,Win32,8.547008547,59dbbdce5de9b000017ebf19,65d6bb0e977760de756971f7,65d6c4f40a464a429d9a9296,0.075,0.075,0,131,131,4,1,threeone,,,,,,,,,,,,,,,,,,,,,,,,,,,,,,,,,,,,,,,,,,,,,,,,,,,,,,,,,,,,,,,,,,,,,,,,,,,,,,,,,,,,,,,,,,,,,,,,,,,,,,,,,,,,,,,,,,,,,,,,,,,,,,,,,,,,,,,,,
,,59dbbdce5de9b000017ebf19,2024-02-22_03h52.56.279,kallum_motion_pilot,2023.2.2,Win32,8.547008547,59dbbdce5de9b000017ebf19,65d6bb0e977760de756971f7,65d6c4f40a464a429d9a9296,0.075,0.075,0,132,132,156,1,sevenfive,,,,,,,,,,,,,,,,,,,,,,,,,,,,,,,,,,,,,,,,,,,,,,,,,,,,,,,,,,,,,,,,,,,,,,,,,,,,,,,,,,,,,,,,,,,,,,,,,,,,,,,,,,,,,,,,,,,,,,,,,,,,,,,,,,,,,,,,,
,,59dbbdce5de9b000017ebf19,2024-02-22_03h52.56.279,kallum_motion_pilot,2023.2.2,Win32,8.547008547,59dbbdce5de9b000017ebf19,65d6bb0e977760de756971f7,65d6c4f40a464a429d9a9296,0.075,0.075,0,133,133,127,1,eightseven,,,,,,,,,,,,,,,,,,,,,,,,,,,,,,,,,,,,,,,,,,,,,,,,,,,,,,,,,,,,,,,,,,,,,,,,,,,,,,,,,,,,,,,,,,,,,,,,,,,,,,,,,,,,,,,,,,,,,,,,,,,,,,,,,,,,,,,,,
,,59dbbdce5de9b000017ebf19,2024-02-22_03h52.56.279,kallum_motion_pilot,2023.2.2,Win32,8.547008547,59dbbdce5de9b000017ebf19,65d6bb0e977760de756971f7,65d6c4f40a464a429d9a9296,0.076,0.076,0,134,134,71,1,fourthree,,,,,,,,,,,,,,,,,,,,,,,,,,,,,,,,,,,,,,,,,,,,,,,,,,,,,,,,,,,,,,,,,,,,,,,,,,,,,,,,,,,,,,,,,,,,,,,,,,,,,,,,,,,,,,,,,,,,,,,,,,,,,,,,,,,,,,,,,
,,59dbbdce5de9b000017ebf19,2024-02-22_03h52.56.279,kallum_motion_pilot,2023.2.2,Win32,8.547008547,59dbbdce5de9b000017ebf19,65d6bb0e977760de756971f7,65d6c4f40a464a429d9a9296,0.076,0.077,0,135,135,126,1,eightsix,,,,,,,,,,,,,,,,,,,,,,,,,,,,,,,,,,,,,,,,,,,,,,,,,,,,,,,,,,,,,,,,,,,,,,,,,,,,,,,,,,,,,,,,,,,,,,,,,,,,,,,,,,,,,,,,,,,,,,,,,,,,,,,,,,,,,,,,,
,,59dbbdce5de9b000017ebf19,2024-02-22_03h52.56.279,kallum_motion_pilot,2023.2.2,Win32,8.547008547,59dbbdce5de9b000017ebf19,65d6bb0e977760de756971f7,65d6c4f40a464a429d9a9296,0.077,0.077,0,136,136,142,1,eightsix,,,,,,,,,,,,,,,,,,,,,,,,,,,,,,,,,,,,,,,,,,,,,,,,,,,,,,,,,,,,,,,,,,,,,,,,,,,,,,,,,,,,,,,,,,,,,,,,,,,,,,,,,,,,,,,,,,,,,,,,,,,,,,,,,,,,,,,,,
,,59dbbdce5de9b000017ebf19,2024-02-22_03h52.56.279,kallum_motion_pilot,2023.2.2,Win32,8.547008547,59dbbdce5de9b000017ebf19,65d6bb0e977760de756971f7,65d6c4f40a464a429d9a9296,0.077,0.077,0,137,137,8,1,onetwo,,,,,,,,,,,,,,,,,,,,,,,,,,,,,,,,,,,,,,,,,,,,,,,,,,,,,,,,,,,,,,,,,,,,,,,,,,,,,,,,,,,,,,,,,,,,,,,,,,,,,,,,,,,,,,,,,,,,,,,,,,,,,,,,,,,,,,,,,
,,59dbbdce5de9b000017ebf19,2024-02-22_03h52.56.279,kallum_motion_pilot,2023.2.2,Win32,8.547008547,59dbbdce5de9b000017ebf19,65d6bb0e977760de756971f7,65d6c4f40a464a429d9a9296,0.077,0.078,0,138,138,146,1,sixfive,,,,,,,,,,,,,,,,,,,,,,,,,,,,,,,,,,,,,,,,,,,,,,,,,,,,,,,,,,,,,,,,,,,,,,,,,,,,,,,,,,,,,,,,,,,,,,,,,,,,,,,,,,,,,,,,,,,,,,,,,,,,,,,,,,,,,,,,,
,,59dbbdce5de9b000017ebf19,2024-02-22_03h52.56.279,kallum_motion_pilot,2023.2.2,Win32,8.547008547,59dbbdce5de9b000017ebf19,65d6bb0e977760de756971f7,65d6c4f40a464a429d9a9296,0.078,0.078,0,139,139,155,1,sixeight,,,,,,,,,,,,,,,,,,,,,,,,,,,,,,,,,,,,,,,,,,,,,,,,,,,,,,,,,,,,,,,,,,,,,,,,,,,,,,,,,,,,,,,,,,,,,,,,,,,,,,,,,,,,,,,,,,,,,,,,,,,,,,,,,,,,,,,,,
,,59dbbdce5de9b000017ebf19,2024-02-22_03h52.56.279,kallum_motion_pilot,2023.2.2,Win32,8.547008547,59dbbdce5de9b000017ebf19,65d6bb0e977760de756971f7,65d6c4f40a464a429d9a9296,0.078,0.078,0,140,140,90,1,sixfive,,,,,,,,,,,,,,,,,,,,,,,,,,,,,,,,,,,,,,,,,,,,,,,,,,,,,,,,,,,,,,,,,,,,,,,,,,,,,,,,,,,,,,,,,,,,,,,,,,,,,,,,,,,,,,,,,,,,,,,,,,,,,,,,,,,,,,,,,
,,59dbbdce5de9b000017ebf19,2024-02-22_03h52.56.279,kallum_motion_pilot,2023.2.2,Win32,8.547008547,59dbbdce5de9b000017ebf19,65d6bb0e977760de756971f7,65d6c4f40a464a429d9a9296,0.078,0.078,0,141,141,56,1,onetwo,,,,,,,,,,,,,,,,,,,,,,,,,,,,,,,,,,,,,,,,,,,,,,,,,,,,,,,,,,,,,,,,,,,,,,,,,,,,,,,,,,,,,,,,,,,,,,,,,,,,,,,,,,,,,,,,,,,,,,,,,,,,,,,,,,,,,,,,,
,,59dbbdce5de9b000017ebf19,2024-02-22_03h52.56.279,kallum_motion_pilot,2023.2.2,Win32,8.547008547,59dbbdce5de9b000017ebf19,65d6bb0e977760de756971f7,65d6c4f40a464a429d9a9296,0.078,0.078,0,142,142,132,1,sevenfive,,,,,,,,,,,,,,,,,,,,,,,,,,,,,,,,,,,,,,,,,,,,,,,,,,,,,,,,,,,,,,,,,,,,,,,,,,,,,,,,,,,,,,,,,,,,,,,,,,,,,,,,,,,,,,,,,,,,,,,,,,,,,,,,,,,,,,,,,
,,59dbbdce5de9b000017ebf19,2024-02-22_03h52.56.279,kallum_motion_pilot,2023.2.2,Win32,8.547008547,59dbbdce5de9b000017ebf19,65d6bb0e977760de756971f7,65d6c4f40a464a429d9a9296,0.078,0.078,0,143,143,78,1,fourtwo,,,,,,,,,,,,,,,,,,,,,,,,,,,,,,,,,,,,,,,,,,,,,,,,,,,,,,,,,,,,,,,,,,,,,,,,,,,,,,,,,,,,,,,,,,,,,,,,,,,,,,,,,,,,,,,,,,,,,,,,,,,,,,,,,,,,,,,,,
,,59dbbdce5de9b000017ebf19,2024-02-22_03h52.56.279,kallum_motion_pilot,2023.2.2,Win32,8.547008547,59dbbdce5de9b000017ebf19,65d6bb0e977760de756971f7,65d6c4f40a464a429d9a9296,0.078,0.078,0,144,144,122,1,sixfive,,,,,,,,,,,,,,,,,,,,,,,,,,,,,,,,,,,,,,,,,,,,,,,,,,,,,,,,,,,,,,,,,,,,,,,,,,,,,,,,,,,,,,,,,,,,,,,,,,,,,,,,,,,,,,,,,,,,,,,,,,,,,,,,,,,,,,,,,
,,59dbbdce5de9b000017ebf19,2024-02-22_03h52.56.279,kallum_motion_pilot,2023.2.2,Win32,8.547008547,59dbbdce5de9b000017ebf19,65d6bb0e977760de756971f7,65d6c4f40a464a429d9a9296,0.078,0.079,0,145,145,17,1,onethree,,,,,,,,,,,,,,,,,,,,,,,,,,,,,,,,,,,,,,,,,,,,,,,,,,,,,,,,,,,,,,,,,,,,,,,,,,,,,,,,,,,,,,,,,,,,,,,,,,,,,,,,,,,,,,,,,,,,,,,,,,,,,,,,,,,,,,,,,
,,59dbbdce5de9b000017ebf19,2024-02-22_03h52.56.279,kallum_motion_pilot,2023.2.2,Win32,8.547008547,59dbbdce5de9b000017ebf19,65d6bb0e977760de756971f7,65d6c4f40a464a429d9a9296,0.079,0.079,0,146,146,150,1,eightsix,,,,,,,,,,,,,,,,,,,,,,,,,,,,,,,,,,,,,,,,,,,,,,,,,,,,,,,,,,,,,,,,,,,,,,,,,,,,,,,,,,,,,,,,,,,,,,,,,,,,,,,,,,,,,,,,,,,,,,,,,,,,,,,,,,,,,,,,,
,,59dbbdce5de9b000017ebf19,2024-02-22_03h52.56.279,kallum_motion_pilot,2023.2.2,Win32,8.547008547,59dbbdce5de9b000017ebf19,65d6bb0e977760de756971f7,65d6c4f40a464a429d9a9296,0.079,0.079,0,147,147,107,1,sixeight,,,,,,,,,,,,,,,,,,,,,,,,,,,,,,,,,,,,,,,,,,,,,,,,,,,,,,,,,,,,,,,,,,,,,,,,,,,,,,,,,,,,,,,,,,,,,,,,,,,,,,,,,,,,,,,,,,,,,,,,,,,,,,,,,,,,,,,,,
,,59dbbdce5de9b000017ebf19,2024-02-22_03h52.56.279,kallum_motion_pilot,2023.2.2,Win32,8.547008547,59dbbdce5de9b000017ebf19,65d6bb0e977760de756971f7,65d6c4f40a464a429d9a9296,0.08,0.08,0,148,148,23,1,fourthree,,,,,,,,,,,,,,,,,,,,,,,,,,,,,,,,,,,,,,,,,,,,,,,,,,,,,,,,,,,,,,,,,,,,,,,,,,,,,,,,,,,,,,,,,,,,,,,,,,,,,,,,,,,,,,,,,,,,,,,,,,,,,,,,,,,,,,,,,
,,59dbbdce5de9b000017ebf19,2024-02-22_03h52.56.279,kallum_motion_pilot,2023.2.2,Win32,8.547008547,59dbbdce5de9b000017ebf19,65d6bb0e977760de756971f7,65d6c4f40a464a429d9a9296,0.08,0.08,0,149,149,93,1,seveneight,,,,,,,,,,,,,,,,,,,,,,,,,,,,,,,,,,,,,,,,,,,,,,,,,,,,,,,,,,,,,,,,,,,,,,,,,,,,,,,,,,,,,,,,,,,,,,,,,,,,,,,,,,,,,,,,,,,,,,,,,,,,,,,,,,,,,,,,,
,,59dbbdce5de9b000017ebf19,2024-02-22_03h52.56.279,kallum_motion_pilot,2023.2.2,Win32,8.547008547,59dbbdce5de9b000017ebf19,65d6bb0e977760de756971f7,65d6c4f40a464a429d9a9296,0.08,0.08,0,150,150,98,1,sixfive,,,,,,,,,,,,,,,,,,,,,,,,,,,,,,,,,,,,,,,,,,,,,,,,,,,,,,,,,,,,,,,,,,,,,,,,,,,,,,,,,,,,,,,,,,,,,,,,,,,,,,,,,,,,,,,,,,,,,,,,,,,,,,,,,,,,,,,,,
,,59dbbdce5de9b000017ebf19,2024-02-22_03h52.56.279,kallum_motion_pilot,2023.2.2,Win32,8.547008547,59dbbdce5de9b000017ebf19,65d6bb0e977760de756971f7,65d6c4f40a464a429d9a9296,0.08,0.08,0,151,151,121,1,fiveseven,,,,,,,,,,,,,,,,,,,,,,,,,,,,,,,,,,,,,,,,,,,,,,,,,,,,,,,,,,,,,,,,,,,,,,,,,,,,,,,,,,,,,,,,,,,,,,,,,,,,,,,,,,,,,,,,,,,,,,,,,,,,,,,,,,,,,,,,,
,,59dbbdce5de9b000017ebf19,2024-02-22_03h52.56.279,kallum_motion_pilot,2023.2.2,Win32,8.547008547,59dbbdce5de9b000017ebf19,65d6bb0e977760de756971f7,65d6c4f40a464a429d9a9296,0.08,0.08,0,152,152,20,1,threeone,,,,,,,,,,,,,,,,,,,,,,,,,,,,,,,,,,,,,,,,,,,,,,,,,,,,,,,,,,,,,,,,,,,,,,,,,,,,,,,,,,,,,,,,,,,,,,,,,,,,,,,,,,,,,,,,,,,,,,,,,,,,,,,,,,,,,,,,,
,,59dbbdce5de9b000017ebf19,2024-02-22_03h52.56.279,kallum_motion_pilot,2023.2.2,Win32,8.547008547,59dbbdce5de9b000017ebf19,65d6bb0e977760de756971f7,65d6c4f40a464a429d9a9296,0.08,0.08,0,153,153,49,1,onethree,,,,,,,,,,,,,,,,,,,,,,,,,,,,,,,,,,,,,,,,,,,,,,,,,,,,,,,,,,,,,,,,,,,,,,,,,,,,,,,,,,,,,,,,,,,,,,,,,,,,,,,,,,,,,,,,,,,,,,,,,,,,,,,,,,,,,,,,,
,,59dbbdce5de9b000017ebf19,2024-02-22_03h52.56.279,kallum_motion_pilot,2023.2.2,Win32,8.547008547,59dbbdce5de9b000017ebf19,65d6bb0e977760de756971f7,65d6c4f40a464a429d9a9296,0.08,0.08,0,154,154,62,1,fourtwo,,,,,,,,,,,,,,,,,,,,,,,,,,,,,,,,,,,,,,,,,,,,,,,,,,,,,,,,,,,,,,,,,,,,,,,,,,,,,,,,,,,,,,,,,,,,,,,,,,,,,,,,,,,,,,,,,,,,,,,,,,,,,,,,,,,,,,,,,
,,59dbbdce5de9b000017ebf19,2024-02-22_03h52.56.279,kallum_motion_pilot,2023.2.2,Win32,8.547008547,59dbbdce5de9b000017ebf19,65d6bb0e977760de756971f7,65d6c4f40a464a429d9a9296,0.081,0.081,0,155,155,138,1,sixfive,,,,,,,,,,,,,,,,,,,,,,,,,,,,,,,,,,,,,,,,,,,,,,,,,,,,,,,,,,,,,,,,,,,,,,,,,,,,,,,,,,,,,,,,,,,,,,,,,,,,,,,,,,,,,,,,,,,,,,,,,,,,,,,,,,,,,,,,,
,,59dbbdce5de9b000017ebf19,2024-02-22_03h52.56.279,kallum_motion_pilot,2023.2.2,Win32,8.547008547,59dbbdce5de9b000017ebf19,65d6bb0e977760de756971f7,65d6c4f40a464a429d9a9296,0.081,0.081,0,156,156,105,1,fiveseven,,,,,,,,,,,,,,,,,,,,,,,,,,,,,,,,,,,,,,,,,,,,,,,,,,,,,,,,,,,,,,,,,,,,,,,,,,,,,,,,,,,,,,,,,,,,,,,,,,,,,,,,,,,,,,,,,,,,,,,,,,,,,,,,,,,,,,,,,
,,59dbbdce5de9b000017ebf19,2024-02-22_03h52.56.279,kallum_motion_pilot,2023.2.2,Win32,8.547008547,59dbbdce5de9b000017ebf19,65d6bb0e977760de756971f7,65d6c4f40a464a429d9a9296,0.081,0.082,0,157,157,141,1,seveneight,,,,,,,,,,,,,,,,,,,,,,,,,,,,,,,,,,,,,,,,,,,,,,,,,,,,,,,,,,,,,,,,,,,,,,,,,,,,,,,,,,,,,,,,,,,,,,,,,,,,,,,,,,,,,,,,,,,,,,,,,,,,,,,,,,,,,,,,,
,,59dbbdce5de9b000017ebf19,2024-02-22_03h52.56.279,kallum_motion_pilot,2023.2.2,Win32,8.547008547,59dbbdce5de9b000017ebf19,65d6bb0e977760de756971f7,65d6c4f40a464a429d9a9296,0.082,0.082,0,158,158,51,1,twofour,,,,,,,,,,,,,,,,,,,,,,,,,,,,,,,,,,,,,,,,,,,,,,,,,,,,,,,,,,,,,,,,,,,,,,,,,,,,,,,,,,,,,,,,,,,,,,,,,,,,,,,,,,,,,,,,,,,,,,,,,,,,,,,,,,,,,,,,,
,,59dbbdce5de9b000017ebf19,2024-02-22_03h52.56.279,kallum_motion_pilot,2023.2.2,Win32,8.547008547,59dbbdce5de9b000017ebf19,65d6bb0e977760de756971f7,65d6c4f40a464a429d9a9296,0.082,0.082,0,159,159,82,1,sixfive,,,,,,,,,,,,,,,,,,,,,,,,,,,,,,,,,,,,,,,,,,,,,,,,,,,,,,,,,,,,,,,,,,,,,,,,,,,,,,,,,,,,,,,,,,,,,,,,,,,,,,,,,,,,,,,,,,,,,,,,,,,,,,,,,,,,,,,,,
,,59dbbdce5de9b000017ebf19,2024-02-22_03h52.56.279,kallum_motion_pilot,2023.2.2,Win32,8.547008547,59dbbdce5de9b000017ebf19,65d6bb0e977760de756971f7,65d6c4f40a464a429d9a9296,0.082,0.082,0,160,160,21,1,threefour,,,,,,,,,,,,,,,,,,,,,,,,,,,,,,,,,,,,,,,,,,,,,,,,,,,,,,,,,,,,,,,,,,,,,,,,,,,,,,,,,,,,,,,,,,,,,,,,,,,,,,,,,,,,,,,,,,,,,,,,,,,,,,,,,,,,,,,,,
,,59dbbdce5de9b000017ebf19,2024-02-22_03h52.56.279,kallum_motion_pilot,2023.2.2,Win32,8.547008547,59dbbdce5de9b000017ebf19,65d6bb0e977760de756971f7,65d6c4f40a464a429d9a9296,0.082,0.083,0,161,161,70,1,fourtwo,,,,,,,,,,,,,,,,,,,,,,,,,,,,,,,,,,,,,,,,,,,,,,,,,,,,,,,,,,,,,,,,,,,,,,,,,,,,,,,,,,,,,,,,,,,,,,,,,,,,,,,,,,,,,,,,,,,,,,,,,,,,,,,,,,,,,,,,,
,,59dbbdce5de9b000017ebf19,2024-02-22_03h52.56.279,kallum_motion_pilot,2023.2.2,Win32,8.547008547,59dbbdce5de9b000017ebf19,65d6bb0e977760de756971f7,65d6c4f40a464a429d9a9296,0.083,0.083,1,0,162,118,1,eightsix,,,,,,,,,,,,,,,,,,,,,,,,,,,,,,,,,,,,,,,,,,,,,,,,,,,,,,,,,,,,,,,,,,,,,,,,,,,,,,,,,,,,,,,,,,,,,,,,,,,,,,,,,,,,,,,,,,,,,,,,,,,,,,,,,,,,,,,,,
,,59dbbdce5de9b000017ebf19,2024-02-22_03h52.56.279,kallum_motion_pilot,2023.2.2,Win32,8.547008547,59dbbdce5de9b000017ebf19,65d6bb0e977760de756971f7,65d6c4f40a464a429d9a9296,0.083,0.083,1,1,163,86,1,eightsix,,,,,,,,,,,,,,,,,,,,,,,,,,,,,,,,,,,,,,,,,,,,,,,,,,,,,,,,,,,,,,,,,,,,,,,,,,,,,,,,,,,,,,,,,,,,,,,,,,,,,,,,,,,,,,,,,,,,,,,,,,,,,,,,,,,,,,,,,
,,59dbbdce5de9b000017ebf19,2024-02-22_03h52.56.279,kallum_motion_pilot,2023.2.2,Win32,8.547008547,59dbbdce5de9b000017ebf19,65d6bb0e977760de756971f7,65d6c4f40a464a429d9a9296,0.083,0.083,1,2,164,106,1,sixfive,,,,,,,,,,,,,,,,,,,,,,,,,,,,,,,,,,,,,,,,,,,,,,,,,,,,,,,,,,,,,,,,,,,,,,,,,,,,,,,,,,,,,,,,,,,,,,,,,,,,,,,,,,,,,,,,,,,,,,,,,,,,,,,,,,,,,,,,,
,,59dbbdce5de9b000017ebf19,2024-02-22_03h52.56.279,kallum_motion_pilot,2023.2.2,Win32,8.547008547,59dbbdce5de9b000017ebf19,65d6bb0e977760de756971f7,65d6c4f40a464a429d9a9296,0.083,0.083,1,3,165,125,1,seveneight,,,,,,,,,,,,,,,,,,,,,,,,,,,,,,,,,,,,,,,,,,,,,,,,,,,,,,,,,,,,,,,,,,,,,,,,,,,,,,,,,,,,,,,,,,,,,,,,,,,,,,,,,,,,,,,,,,,,,,,,,,,,,,,,,,,,,,,,,
,,59dbbdce5de9b000017ebf19,2024-02-22_03h52.56.279,kallum_motion_pilot,2023.2.2,Win32,8.547008547,59dbbdce5de9b000017ebf19,65d6bb0e977760de756971f7,65d6c4f40a464a429d9a9296,0.083,0.083,1,4,166,96,1,fivesix,,,,,,,,,,,,,,,,,,,,,,,,,,,,,,,,,,,,,,,,,,,,,,,,,,,,,,,,,,,,,,,,,,,,,,,,,,,,,,,,,,,,,,,,,,,,,,,,,,,,,,,,,,,,,,,,,,,,,,,,,,,,,,,,,,,,,,,,,
,,59dbbdce5de9b000017ebf19,2024-02-22_03h52.56.279,kallum_motion_pilot,2023.2.2,Win32,8.547008547,59dbbdce5de9b000017ebf19,65d6bb0e977760de756971f7,65d6c4f40a464a429d9a9296,0.084,0.084,1,5,167,66,1,twoone,,,,,,,,,,,,,,,,,,,,,,,,,,,,,,,,,,,,,,,,,,,,,,,,,,,,,,,,,,,,,,,,,,,,,,,,,,,,,,,,,,,,,,,,,,,,,,,,,,,,,,,,,,,,,,,,,,,,,,,,,,,,,,,,,,,,,,,,,
,,59dbbdce5de9b000017ebf19,2024-02-22_03h52.56.279,kallum_motion_pilot,2023.2.2,Win32,8.547008547,59dbbdce5de9b000017ebf19,65d6bb0e977760de756971f7,65d6c4f40a464a429d9a9296,0.084,0.084,1,6,168,155,1,sixeight,,,,,,,,,,,,,,,,,,,,,,,,,,,,,,,,,,,,,,,,,,,,,,,,,,,,,,,,,,,,,,,,,,,,,,,,,,,,,,,,,,,,,,,,,,,,,,,,,,,,,,,,,,,,,,,,,,,,,,,,,,,,,,,,,,,,,,,,,
,,59dbbdce5de9b000017ebf19,2024-02-22_03h52.56.279,kallum_motion_pilot,2023.2.2,Win32,8.547008547,59dbbdce5de9b000017ebf19,65d6bb0e977760de756971f7,65d6c4f40a464a429d9a9296,0.084,0.084,1,7,169,1,1,onethree,,,,,,,,,,,,,,,,,,,,,,,,,,,,,,,,,,,,,,,,,,,,,,,,,,,,,,,,,,,,,,,,,,,,,,,,,,,,,,,,,,,,,,,,,,,,,,,,,,,,,,,,,,,,,,,,,,,,,,,,,,,,,,,,,,,,,,,,,
,,59dbbdce5de9b000017ebf19,2024-02-22_03h52.56.279,kallum_motion_pilot,2023.2.2,Win32,8.547008547,59dbbdce5de9b000017ebf19,65d6bb0e977760de756971f7,65d6c4f40a464a429d9a9296,0.085,0.085,1,8,170,2,1,twoone,,,,,,,,,,,,,,,,,,,,,,,,,,,,,,,,,,,,,,,,,,,,,,,,,,,,,,,,,,,,,,,,,,,,,,,,,,,,,,,,,,,,,,,,,,,,,,,,,,,,,,,,,,,,,,,,,,,,,,,,,,,,,,,,,,,,,,,,,
,,59dbbdce5de9b000017ebf19,2024-02-22_03h52.56.279,kallum_motion_pilot,2023.2.2,Win32,8.547008547,59dbbdce5de9b000017ebf19,65d6bb0e977760de756971f7,65d6c4f40a464a429d9a9296,0.085,0.085,1,9,171,154,1,sixfive,,,,,,,,,,,,,,,,,,,,,,,,,,,,,,,,,,,,,,,,,,,,,,,,,,,,,,,,,,,,,,,,,,,,,,,,,,,,,,,,,,,,,,,,,,,,,,,,,,,,,,,,,,,,,,,,,,,,,,,,,,,,,,,,,,,,,,,,,
,,59dbbdce5de9b000017ebf19,2024-02-22_03h52.56.279,kallum_motion_pilot,2023.2.2,Win32,8.547008547,59dbbdce5de9b000017ebf19,65d6bb0e977760de756971f7,65d6c4f40a464a429d9a9296,0.085,0.085,1,10,172,102,1,eightsix,,,,,,,,,,,,,,,,,,,,,,,,,,,,,,,,,,,,,,,,,,,,,,,,,,,,,,,,,,,,,,,,,,,,,,,,,,,,,,,,,,,,,,,,,,,,,,,,,,,,,,,,,,,,,,,,,,,,,,,,,,,,,,,,,,,,,,,,,
,,59dbbdce5de9b000017ebf19,2024-02-22_03h52.56.279,kallum_motion_pilot,2023.2.2,Win32,8.547008547,59dbbdce5de9b000017ebf19,65d6bb0e977760de756971f7,65d6c4f40a464a429d9a9296,0.085,0.085,1,11,173,8,1,onetwo,,,,,,,,,,,,,,,,,,,,,,,,,,,,,,,,,,,,,,,,,,,,,,,,,,,,,,,,,,,,,,,,,,,,,,,,,,,,,,,,,,,,,,,,,,,,,,,,,,,,,,,,,,,,,,,,,,,,,,,,,,,,,,,,,,,,,,,,,
,,59dbbdce5de9b000017ebf19,2024-02-22_03h52.56.279,kallum_motion_pilot,2023.2.2,Win32,8.547008547,59dbbdce5de9b000017ebf19,65d6bb0e977760de756971f7,65d6c4f40a464a429d9a9296,0.085,0.085,1,12,174,19,1,twofour,,,,,,,,,,,,,,,,,,,,,,,,,,,,,,,,,,,,,,,,,,,,,,,,,,,,,,,,,,,,,,,,,,,,,,,,,,,,,,,,,,,,,,,,,,,,,,,,,,,,,,,,,,,,,,,,,,,,,,,,,,,,,,,,,,,,,,,,,
,,59dbbdce5de9b000017ebf19,2024-02-22_03h52.56.279,kallum_motion_pilot,2023.2.2,Win32,8.547008547,59dbbdce5de9b000017ebf19,65d6bb0e977760de756971f7,65d6c4f40a464a429d9a9296,0.085,0.086,1,13,175,30,1,fourtwo,,,,,,,,,,,,,,,,,,,,,,,,,,,,,,,,,,,,,,,,,,,,,,,,,,,,,,,,,,,,,,,,,,,,,,,,,,,,,,,,,,,,,,,,,,,,,,,,,,,,,,,,,,,,,,,,,,,,,,,,,,,,,,,,,,,,,,,,,
,,59dbbdce5de9b000017ebf19,2024-02-22_03h52.56.279,kallum_motion_pilot,2023.2.2,Win32,8.547008547,59dbbdce5de9b000017ebf19,65d6bb0e977760de756971f7,65d6c4f40a464a429d9a9296,0.086,0.086,1,14,176,37,1,threefour,,,,,,,,,,,,,,,,,,,,,,,,,,,,,,,,,,,,,,,,,,,,,,,,,,,,,,,,,,,,,,,,,,,,,,,,,,,,,,,,,,,,,,,,,,,,,,,,,,,,,,,,,,,,,,,,,,,,,,,,,,,,,,,,,,,,,,,,,
,,59dbbdce5de9b000017ebf19,2024-02-22_03h52.56.279,kallum_motion_pilot,2023.2.2,Win32,8.547008547,59dbbdce5de9b000017ebf19,65d6bb0e977760de756971f7,65d6c4f40a464a429d9a9296,0.086,0.086,1,15,177,112,1,fivesix,,,,,,,,,,,,,,,,,,,,,,,,,,,,,,,,,,,,,,,,,,,,,,,,,,,,,,,,,,,,,,,,,,,,,,,,,,,,,,,,,,,,,,,,,,,,,,,,,,,,,,,,,,,,,,,,,,,,,,,,,,,,,,,,,,,,,,,,,
,,59dbbdce5de9b000017ebf19,2024-02-22_03h52.56.279,kallum_motion_pilot,2023.2.2,Win32,8.547008547,59dbbdce5de9b000017ebf19,65d6bb0e977760de756971f7,65d6c4f40a464a429d9a9296,0.086,0.086,1,16,178,132,1,sevenfive,,,,,,,,,,,,,,,,,,,,,,,,,,,,,,,,,,,,,,,,,,,,,,,,,,,,,,,,,,,,,,,,,,,,,,,,,,,,,,,,,,,,,,,,,,,,,,,,,,,,,,,,,,,,,,,,,,,,,,,,,,,,,,,,,,,,,,,,,
,,59dbbdce5de9b000017ebf19,2024-02-22_03h52.56.279,kallum_motion_pilot,2023.2.2,Win32,8.547008547,59dbbdce5de9b000017ebf19,65d6bb0e977760de756971f7,65d6c4f40a464a429d9a9296,0.087,0.087,1,17,179,101,1,seveneight,,,,,,,,,,,,,,,,,,,,,,,,,,,,,,,,,,,,,,,,,,,,,,,,,,,,,,,,,,,,,,,,,,,,,,,,,,,,,,,,,,,,,,,,,,,,,,,,,,,,,,,,,,,,,,,,,,,,,,,,,,,,,,,,,,,,,,,,,
,,59dbbdce5de9b000017ebf19,2024-02-22_03h52.56.279,kallum_motion_pilot,2023.2.2,Win32,8.547008547,59dbbdce5de9b000017ebf19,65d6bb0e977760de756971f7,65d6c4f40a464a429d9a9296,0.087,0.087,1,18,180,131,1,sixeight,,,,,,,,,,,,,,,,,,,,,,,,,,,,,,,,,,,,,,,,,,,,,,,,,,,,,,,,,,,,,,,,,,,,,,,,,,,,,,,,,,,,,,,,,,,,,,,,,,,,,,,,,,,,,,,,,,,,,,,,,,,,,,,,,,,,,,,,,
,,59dbbdce5de9b000017ebf19,2024-02-22_03h52.56.279,kallum_motion_pilot,2023.2.2,Win32,8.547008547,59dbbdce5de9b000017ebf19,65d6bb0e977760de756971f7,65d6c4f40a464a429d9a9296,0.087,0.087,1,19,181,54,1,fourtwo,,,,,,,,,,,,,,,,,,,,,,,,,,,,,,,,,,,,,,,,,,,,,,,,,,,,,,,,,,,,,,,,,,,,,,,,,,,,,,,,,,,,,,,,,,,,,,,,,,,,,,,,,,,,,,,,,,,,,,,,,,,,,,,,,,,,,,,,,
,,59dbbdce5de9b000017ebf19,2024-02-22_03h52.56.279,kallum_motion_pilot,2023.2.2,Win32,8.547008547,59dbbdce5de9b000017ebf19,65d6bb0e977760de756971f7,65d6c4f40a464a429d9a9296,0.087,0.087,1,20,182,11,1,twofour,,,,,,,,,,,,,,,,,,,,,,,,,,,,,,,,,,,,,,,,,,,,,,,,,,,,,,,,,,,,,,,,,,,,,,,,,,,,,,,,,,,,,,,,,,,,,,,,,,,,,,,,,,,,,,,,,,,,,,,,,,,,,,,,,,,,,,,,,
,,59dbbdce5de9b000017ebf19,2024-02-22_03h52.56.279,kallum_motion_pilot,2023.2.2,Win32,8.547008547,59dbbdce5de9b000017ebf19,65d6bb0e977760de756971f7,65d6c4f40a464a429d9a9296,0.087,0.088,1,21,183,159,1,eightseven,,,,,,,,,,,,,,,,,,,,,,,,,,,,,,,,,,,,,,,,,,,,,,,,,,,,,,,,,,,,,,,,,,,,,,,,,,,,,,,,,,,,,,,,,,,,,,,,,,,,,,,,,,,,,,,,,,,,,,,,,,,,,,,,,,,,,,,,,
,,59dbbdce5de9b000017ebf19,2024-02-22_03h52.56.279,kallum_motion_pilot,2023.2.2,Win32,8.547008547,59dbbdce5de9b000017ebf19,65d6bb0e977760de756971f7,65d6c4f40a464a429d9a9296,0.088,0.088,1,22,184,39,1,fourthree,,,,,,,,,,,,,,,,,,,,,,,,,,,,,,,,,,,,,,,,,,,,,,,,,,,,,,,,,,,,,,,,,,,,,,,,,,,,,,,,,,,,,,,,,,,,,,,,,,,,,,,,,,,,,,,,,,,,,,,,,,,,,,,,,,,,,,,,,
,,59dbbdce5de9b000017ebf19,2024-02-22_03h52.56.279,kallum_motion_pilot,2023.2.2,Win32,8.547008547,59dbbdce5de9b000017ebf19,65d6bb0e977760de756971f7,65d6c4f40a464a429d9a9296,0.088,0.088,1,23,185,71,1,fourthree,,,,,,,,,,,,,,,,,,,,,,,,,,,,,,,,,,,,,,,,,,,,,,,,,,,,,,,,,,,,,,,,,,,,,,,,,,,,,,,,,,,,,,,,,,,,,,,,,,,,,,,,,,,,,,,,,,,,,,,,,,,,,,,,,,,,,,,,,
,,59dbbdce5de9b000017ebf19,2024-02-22_03h52.56.279,kallum_motion_pilot,2023.2.2,Win32,8.547008547,59dbbdce5de9b000017ebf19,65d6bb0e977760de756971f7,65d6c4f40a464a429d9a9296,0.089,0.089,1,24,186,88,1,fivesix,,,,,,,,,,,,,,,,,,,,,,,,,,,,,,,,,,,,,,,,,,,,,,,,,,,,,,,,,,,,,,,,,,,,,,,,,,,,,,,,,,,,,,,,,,,,,,,,,,,,,,,,,,,,,,,,,,,,,,,,,,,,,,,,,,,,,,,,,
,,59dbbdce5de9b000017ebf19,2024-02-22_03h52.56.279,kallum_motion_pilot,2023.2.2,Win32,8.547008547,59dbbdce5de9b000017ebf19,65d6bb0e977760de756971f7,65d6c4f40a464a429d9a9296,0.089,0.089,1,25,187,115,1,sixeight,,,,,,,,,,,,,,,,,,,,,,,,,,,,,,,,,,,,,,,,,,,,,,,,,,,,,,,,,,,,,,,,,,,,,,,,,,,,,,,,,,,,,,,,,,,,,,,,,,,,,,,,,,,,,,,,,,,,,,,,,,,,,,,,,,,,,,,,,
,,59dbbdce5de9b000017ebf19,2024-02-22_03h52.56.279,kallum_motion_pilot,2023.2.2,Win32,8.547008547,59dbbdce5de9b000017ebf19,65d6bb0e977760de756971f7,65d6c4f40a464a429d9a9296,0.089,0.089,1,26,188,80,1,fivesix,,,,,,,,,,,,,,,,,,,,,,,,,,,,,,,,,,,,,,,,,,,,,,,,,,,,,,,,,,,,,,,,,,,,,,,,,,,,,,,,,,,,,,,,,,,,,,,,,,,,,,,,,,,,,,,,,,,,,,,,,,,,,,,,,,,,,,,,,
,,59dbbdce5de9b000017ebf19,2024-02-22_03h52.56.279,kallum_motion_pilot,2023.2.2,Win32,8.547008547,59dbbdce5de9b000017ebf19,65d6bb0e977760de756971f7,65d6c4f40a464a429d9a9296,0.089,0.089,1,27,189,146,1,sixfive,,,,,,,,,,,,,,,,,,,,,,,,,,,,,,,,,,,,,,,,,,,,,,,,,,,,,,,,,,,,,,,,,,,,,,,,,,,,,,,,,,,,,,,,,,,,,,,,,,,,,,,,,,,,,,,,,,,,,,,,,,,,,,,,,,,,,,,,,
,,59dbbdce5de9b000017ebf19,2024-02-22_03h52.56.279,kallum_motion_pilot,2023.2.2,Win32,8.547008547,59dbbdce5de9b000017ebf19,65d6bb0e977760de756971f7,65d6c4f40a464a429d9a9296,0.089,0.089,1,28,190,157,1,seveneight,,,,,,,,,,,,,,,,,,,,,,,,,,,,,,,,,,,,,,,,,,,,,,,,,,,,,,,,,,,,,,,,,,,,,,,,,,,,,,,,,,,,,,,,,,,,,,,,,,,,,,,,,,,,,,,,,,,,,,,,,,,,,,,,,,,,,,,,,
,,59dbbdce5de9b000017ebf19,2024-02-22_03h52.56.279,kallum_motion_pilot,2023.2.2,Win32,8.547008547,59dbbdce5de9b000017ebf19,65d6bb0e977760de756971f7,65d6c4f40a464a429d9a9296,0.09,0.09,1,29,191,103,1,eightseven,,,,,,,,,,,,,,,,,,,,,,,,,,,,,,,,,,,,,,,,,,,,,,,,,,,,,,,,,,,,,,,,,,,,,,,,,,,,,,,,,,,,,,,,,,,,,,,,,,,,,,,,,,,,,,,,,,,,,,,,,,,,,,,,,,,,,,,,,
,,59dbbdce5de9b000017ebf19,2024-02-22_03h52.56.279,kallum_motion_pilot,2023.2.2,Win32,8.547008547,59dbbdce5de9b000017ebf19,65d6bb0e977760de756971f7,65d6c4f40a464a429d9a9296,0.09,0.09,1,30,192,161,1,fiveseven,,,,,,,,,,,,,,,,,,,,,,,,,,,,,,,,,,,,,,,,,,,,,,,,,,,,,,,,,,,,,,,,,,,,,,,,,,,,,,,,,,,,,,,,,,,,,,,,,,,,,,,,,,,,,,,,,,,,,,,,,,,,,,,,,,,,,,,,,
,,59dbbdce5de9b000017ebf19,2024-02-22_03h52.56.279,kallum_motion_pilot,2023.2.2,Win32,8.547008547,59dbbdce5de9b000017ebf19,65d6bb0e977760de756971f7,65d6c4f40a464a429d9a9296,0.09,0.09,1,31,193,83,1,sixeight,,,,,,,,,,,,,,,,,,,,,,,,,,,,,,,,,,,,,,,,,,,,,,,,,,,,,,,,,,,,,,,,,,,,,,,,,,,,,,,,,,,,,,,,,,,,,,,,,,,,,,,,,,,,,,,,,,,,,,,,,,,,,,,,,,,,,,,,,
,,59dbbdce5de9b000017ebf19,2024-02-22_03h52.56.279,kallum_motion_pilot,2023.2.2,Win32,8.547008547,59dbbdce5de9b000017ebf19,65d6bb0e977760de756971f7,65d6c4f40a464a429d9a9296,0.09,0.09,1,32,194,92,1,sevenfive,,,,,,,,,,,,,,,,,,,,,,,,,,,,,,,,,,,,,,,,,,,,,,,,,,,,,,,,,,,,,,,,,,,,,,,,,,,,,,,,,,,,,,,,,,,,,,,,,,,,,,,,,,,,,,,,,,,,,,,,,,,,,,,,,,,,,,,,,
,,59dbbdce5de9b000017ebf19,2024-02-22_03h52.56.279,kallum_motion_pilot,2023.2.2,Win32,8.547008547,59dbbdce5de9b000017ebf19,65d6bb0e977760de756971f7,65d6c4f40a464a429d9a9296,0.091,0.091,1,33,195,26,1,twoone,,,,,,,,,,,,,,,,,,,,,,,,,,,,,,,,,,,,,,,,,,,,,,,,,,,,,,,,,,,,,,,,,,,,,,,,,,,,,,,,,,,,,,,,,,,,,,,,,,,,,,,,,,,,,,,,,,,,,,,,,,,,,,,,,,,,,,,,,
,,59dbbdce5de9b000017ebf19,2024-02-22_03h52.56.279,kallum_motion_pilot,2023.2.2,Win32,8.547008547,59dbbdce5de9b000017ebf19,65d6bb0e977760de756971f7,65d6c4f40a464a429d9a9296,0.091,0.091,1,34,196,122,1,sixfive,,,,,,,,,,,,,,,,,,,,,,,,,,,,,,,,,,,,,,,,,,,,,,,,,,,,,,,,,,,,,,,,,,,,,,,,,,,,,,,,,,,,,,,,,,,,,,,,,,,,,,,,,,,,,,,,,,,,,,,,,,,,,,,,,,,,,,,,,
,,59dbbdce5de9b000017ebf19,2024-02-22_03h52.56.279,kallum_motion_pilot,2023.2.2,Win32,8.547008547,59dbbdce5de9b000017ebf19,65d6bb0e977760de756971f7,65d6c4f40a464a429d9a9296,0.091,0.091,1,35,197,145,1,fiveseven,,,,,,,,,,,,,,,,,,,,,,,,,,,,,,,,,,,,,,,,,,,,,,,,,,,,,,,,,,,,,,,,,,,,,,,,,,,,,,,,,,,,,,,,,,,,,,,,,,,,,,,,,,,,,,,,,,,,,,,,,,,,,,,,,,,,,,,,,
,,59dbbdce5de9b000017ebf19,2024-02-22_03h52.56.279,kallum_motion_pilot,2023.2.2,Win32,8.547008547,59dbbdce5de9b000017ebf19,65d6bb0e977760de756971f7,65d6c4f40a464a429d9a9296,0.091,0.091,1,36,198,55,1,fourthree,,,,,,,,,,,,,,,,,,,,,,,,,,,,,,,,,,,,,,,,,,,,,,,,,,,,,,,,,,,,,,,,,,,,,,,,,,,,,,,,,,,,,,,,,,,,,,,,,,,,,,,,,,,,,,,,,,,,,,,,,,,,,,,,,,,,,,,,,
,,59dbbdce5de9b000017ebf19,2024-02-22_03h52.56.279,kallum_motion_pilot,2023.2.2,Win32,8.547008547,59dbbdce5de9b000017ebf19,65d6bb0e977760de756971f7,65d6c4f40a464a429d9a9296,0.092,0.092,1,37,199,150,1,eightsix,,,,,,,,,,,,,,,,,,,,,,,,,,,,,,,,,,,,,,,,,,,,,,,,,,,,,,,,,,,,,,,,,,,,,,,,,,,,,,,,,,,,,,,,,,,,,,,,,,,,,,,,,,,,,,,,,,,,,,,,,,,,,,,,,,,,,,,,,
,,59dbbdce5de9b000017ebf19,2024-02-22_03h52.56.279,kallum_motion_pilot,2023.2.2,Win32,8.547008547,59dbbdce5de9b000017ebf19,65d6bb0e977760de756971f7,65d6c4f40a464a429d9a9296,0.092,0.092,1,38,200,148,1,sevenfive,,,,,,,,,,,,,,,,,,,,,,,,,,,,,,,,,,,,,,,,,,,,,,,,,,,,,,,,,,,,,,,,,,,,,,,,,,,,,,,,,,,,,,,,,,,,,,,,,,,,,,,,,,,,,,,,,,,,,,,,,,,,,,,,,,,,,,,,,
,,59dbbdce5de9b000017ebf19,2024-02-22_03h52.56.279,kallum_motion_pilot,2023.2.2,Win32,8.547008547,59dbbdce5de9b000017ebf19,65d6bb0e977760de756971f7,65d6c4f40a464a429d9a9296,0.093,0.093,1,39,201,5,1,threefour,,,,,,,,,,,,,,,,,,,,,,,,,,,,,,,,,,,,,,,,,,,,,,,,,,,,,,,,,,,,,,,,,,,,,,,,,,,,,,,,,,,,,,,,,,,,,,,,,,,,,,,,,,,,,,,,,,,,,,,,,,,,,,,,,,,,,,,,,
,,59dbbdce5de9b000017ebf19,2024-02-22_03h52.56.279,kallum_motion_pilot,2023.2.2,Win32,8.547008547,59dbbdce5de9b000017ebf19,65d6bb0e977760de756971f7,65d6c4f40a464a429d9a9296,0.093,0.093,1,40,202,69,1,threefour,,,,,,,,,,,,,,,,,,,,,,,,,,,,,,,,,,,,,,,,,,,,,,,,,,,,,,,,,,,,,,,,,,,,,,,,,,,,,,,,,,,,,,,,,,,,,,,,,,,,,,,,,,,,,,,,,,,,,,,,,,,,,,,,,,,,,,,,,
,,59dbbdce5de9b000017ebf19,2024-02-22_03h52.56.279,kallum_motion_pilot,2023.2.2,Win32,8.547008547,59dbbdce5de9b000017ebf19,65d6bb0e977760de756971f7,65d6c4f40a464a429d9a9296,0.093,0.093,1,41,203,123,1,sixeight,,,,,,,,,,,,,,,,,,,,,,,,,,,,,,,,,,,,,,,,,,,,,,,,,,,,,,,,,,,,,,,,,,,,,,,,,,,,,,,,,,,,,,,,,,,,,,,,,,,,,,,,,,,,,,,,,,,,,,,,,,,,,,,,,,,,,,,,,
,,59dbbdce5de9b000017ebf19,2024-02-22_03h52.56.279,kallum_motion_pilot,2023.2.2,Win32,8.547008547,59dbbdce5de9b000017ebf19,65d6bb0e977760de756971f7,65d6c4f40a464a429d9a9296,0.093,0.093,1,42,204,121,1,fiveseven,,,,,,,,,,,,,,,,,,,,,,,,,,,,,,,,,,,,,,,,,,,,,,,,,,,,,,,,,,,,,,,,,,,,,,,,,,,,,,,,,,,,,,,,,,,,,,,,,,,,,,,,,,,,,,,,,,,,,,,,,,,,,,,,,,,,,,,,,
,,59dbbdce5de9b000017ebf19,2024-02-22_03h52.56.279,kallum_motion_pilot,2023.2.2,Win32,8.547008547,59dbbdce5de9b000017ebf19,65d6bb0e977760de756971f7,65d6c4f40a464a429d9a9296,0.093,0.093,1,43,205,104,1,fivesix,,,,,,,,,,,,,,,,,,,,,,,,,,,,,,,,,,,,,,,,,,,,,,,,,,,,,,,,,,,,,,,,,,,,,,,,,,,,,,,,,,,,,,,,,,,,,,,,,,,,,,,,,,,,,,,,,,,,,,,,,,,,,,,,,,,,,,,,,
,,59dbbdce5de9b000017ebf19,2024-02-22_03h52.56.279,kallum_motion_pilot,2023.2.2,Win32,8.547008547,59dbbdce5de9b000017ebf19,65d6bb0e977760de756971f7,65d6c4f40a464a429d9a9296,0.093,0.093,1,44,206,36,1,threeone,,,,,,,,,,,,,,,,,,,,,,,,,,,,,,,,,,,,,,,,,,,,,,,,,,,,,,,,,,,,,,,,,,,,,,,,,,,,,,,,,,,,,,,,,,,,,,,,,,,,,,,,,,,,,,,,,,,,,,,,,,,,,,,,,,,,,,,,,
,,59dbbdce5de9b000017ebf19,2024-02-22_03h52.56.279,kallum_motion_pilot,2023.2.2,Win32,8.547008547,59dbbdce5de9b000017ebf19,65d6bb0e977760de756971f7,65d6c4f40a464a429d9a9296,0.093,0.093,1,45,207,44,1,threeone,,,,,,,,,,,,,,,,,,,,,,,,,,,,,,,,,,,,,,,,,,,,,,,,,,,,,,,,,,,,,,,,,,,,,,,,,,,,,,,,,,,,,,,,,,,,,,,,,,,,,,,,,,,,,,,,,,,,,,,,,,,,,,,,,,,,,,,,,
,,59dbbdce5de9b000017ebf19,2024-02-22_03h52.56.279,kallum_motion_pilot,2023.2.2,Win32,8.547008547,59dbbdce5de9b000017ebf19,65d6bb0e977760de756971f7,65d6c4f40a464a429d9a9296,0.093,0.094,1,46,208,119,1,eightseven,,,,,,,,,,,,,,,,,,,,,,,,,,,,,,,,,,,,,,,,,,,,,,,,,,,,,,,,,,,,,,,,,,,,,,,,,,,,,,,,,,,,,,,,,,,,,,,,,,,,,,,,,,,,,,,,,,,,,,,,,,,,,,,,,,,,,,,,,
,,59dbbdce5de9b000017ebf19,2024-02-22_03h52.56.279,kallum_motion_pilot,2023.2.2,Win32,8.547008547,59dbbdce5de9b000017ebf19,65d6bb0e977760de756971f7,65d6c4f40a464a429d9a9296,0.094,0.094,1,47,209,135,1,eightseven,,,,,,,,,,,,,,,,,,,,,,,,,,,,,,,,,,,,,,,,,,,,,,,,,,,,,,,,,,,,,,,,,,,,,,,,,,,,,,,,,,,,,,,,,,,,,,,,,,,,,,,,,,,,,,,,,,,,,,,,,,,,,,,,,,,,,,,,,
,,59dbbdce5de9b000017ebf19,2024-02-22_03h52.56.279,kallum_motion_pilot,2023.2.2,Win32,8.547008547,59dbbdce5de9b000017ebf19,65d6bb0e977760de756971f7,65d6c4f40a464a429d9a9296,0.094,0.094,1,48,210,41,1,onethree,,,,,,,,,,,,,,,,,,,,,,,,,,,,,,,,,,,,,,,,,,,,,,,,,,,,,,,,,,,,,,,,,,,,,,,,,,,,,,,,,,,,,,,,,,,,,,,,,,,,,,,,,,,,,,,,,,,,,,,,,,,,,,,,,,,,,,,,,
,,59dbbdce5de9b000017ebf19,2024-02-22_03h52.56.279,kallum_motion_pilot,2023.2.2,Win32,8.547008547,59dbbdce5de9b000017ebf19,65d6bb0e977760de756971f7,65d6c4f40a464a429d9a9296,0.094,0.094,1,49,211,78,1,fourtwo,,,,,,,,,,,,,,,,,,,,,,,,,,,,,,,,,,,,,,,,,,,,,,,,,,,,,,,,,,,,,,,,,,,,,,,,,,,,,,,,,,,,,,,,,,,,,,,,,,,,,,,,,,,,,,,,,,,,,,,,,,,,,,,,,,,,,,,,,
,,59dbbdce5de9b000017ebf19,2024-02-22_03h52.56.279,kallum_motion_pilot,2023.2.2,Win32,8.547008547,59dbbdce5de9b000017ebf19,65d6bb0e977760de756971f7,65d6c4f40a464a429d9a9296,0.094,0.095,1,50,212,15,1,fourthree,,,,,,,,,,,,,,,,,,,,,,,,,,,,,,,,,,,,,,,,,,,,,,,,,,,,,,,,,,,,,,,,,,,,,,,,,,,,,,,,,,,,,,,,,,,,,,,,,,,,,,,,,,,,,,,,,,,,,,,,,,,,,,,,,,,,,,,,,
,,59dbbdce5de9b000017ebf19,2024-02-22_03h52.56.279,kallum_motion_pilot,2023.2.2,Win32,8.547008547,59dbbdce5de9b000017ebf19,65d6bb0e977760de756971f7,65d6c4f40a464a429d9a9296,0.095,0.095,1,51,213,49,1,onethree,,,,,,,,,,,,,,,,,,,,,,,,,,,,,,,,,,,,,,,,,,,,,,,,,,,,,,,,,,,,,,,,,,,,,,,,,,,,,,,,,,,,,,,,,,,,,,,,,,,,,,,,,,,,,,,,,,,,,,,,,,,,,,,,,,,,,,,,,
,,59dbbdce5de9b000017ebf19,2024-02-22_03h52.56.279,kallum_motion_pilot,2023.2.2,Win32,8.547008547,59dbbdce5de9b000017ebf19,65d6bb0e977760de756971f7,65d6c4f40a464a429d9a9296,0.095,0.095,1,52,214,126,1,eightsix,,,,,,,,,,,,,,,,,,,,,,,,,,,,,,,,,,,,,,,,,,,,,,,,,,,,,,,,,,,,,,,,,,,,,,,,,,,,,,,,,,,,,,,,,,,,,,,,,,,,,,,,,,,,,,,,,,,,,,,,,,,,,,,,,,,,,,,,,
,,59dbbdce5de9b000017ebf19,2024-02-22_03h52.56.279,kallum_motion_pilot,2023.2.2,Win32,8.547008547,59dbbdce5de9b000017ebf19,65d6bb0e977760de756971f7,65d6c4f40a464a429d9a9296,0.096,0.096,1,53,215,117,1,seveneight,,,,,,,,,,,,,,,,,,,,,,,,,,,,,,,,,,,,,,,,,,,,,,,,,,,,,,,,,,,,,,,,,,,,,,,,,,,,,,,,,,,,,,,,,,,,,,,,,,,,,,,,,,,,,,,,,,,,,,,,,,,,,,,,,,,,,,,,,
,,59dbbdce5de9b000017ebf19,2024-02-22_03h52.56.279,kallum_motion_pilot,2023.2.2,Win32,8.547008547,59dbbdce5de9b000017ebf19,65d6bb0e977760de756971f7,65d6c4f40a464a429d9a9296,0.096,0.096,1,54,216,81,1,fiveseven,,,,,,,,,,,,,,,,,,,,,,,,,,,,,,,,,,,,,,,,,,,,,,,,,,,,,,,,,,,,,,,,,,,,,,,,,,,,,,,,,,,,,,,,,,,,,,,,,,,,,,,,,,,,,,,,,,,,,,,,,,,,,,,,,,,,,,,,,
,,59dbbdce5de9b000017ebf19,2024-02-22_03h52.56.279,kallum_motion_pilot,2023.2.2,Win32,8.547008547,59dbbdce5de9b000017ebf19,65d6bb0e977760de756971f7,65d6c4f40a464a429d9a9296,0.096,0.096,1,55,217,62,1,fourtwo,,,,,,,,,,,,,,,,,,,,,,,,,,,,,,,,,,,,,,,,,,,,,,,,,,,,,,,,,,,,,,,,,,,,,,,,,,,,,,,,,,,,,,,,,,,,,,,,,,,,,,,,,,,,,,,,,,,,,,,,,,,,,,,,,,,,,,,,,
,,59dbbdce5de9b000017ebf19,2024-02-22_03h52.56.279,kallum_motion_pilot,2023.2.2,Win32,8.547008547,59dbbdce5de9b000017ebf19,65d6bb0e977760de756971f7,65d6c4f40a464a429d9a9296,0.096,0.096,1,56,218,12,1,threeone,,,,,,,,,,,,,,,,,,,,,,,,,,,,,,,,,,,,,,,,,,,,,,,,,,,,,,,,,,,,,,,,,,,,,,,,,,,,,,,,,,,,,,,,,,,,,,,,,,,,,,,,,,,,,,,,,,,,,,,,,,,,,,,,,,,,,,,,,
,,59dbbdce5de9b000017ebf19,2024-02-22_03h52.56.279,kallum_motion_pilot,2023.2.2,Win32,8.547008547,59dbbdce5de9b000017ebf19,65d6bb0e977760de756971f7,65d6c4f40a464a429d9a9296,0.096,0.096,1,57,219,158,1,eightsix,,,,,,,,,,,,,,,,,,,,,,,,,,,,,,,,,,,,,,,,,,,,,,,,,,,,,,,,,,,,,,,,,,,,,,,,,,,,,,,,,,,,,,,,,,,,,,,,,,,,,,,,,,,,,,,,,,,,,,,,,,,,,,,,,,,,,,,,,
,,59dbbdce5de9b000017ebf19,2024-02-22_03h52.56.279,kallum_motion_pilot,2023.2.2,Win32,8.547008547,59dbbdce5de9b000017ebf19,65d6bb0e977760de756971f7,65d6c4f40a464a429d9a9296,0.096,0.097,1,58,220,29,1,threefour,,,,,,,,,,,,,,,,,,,,,,,,,,,,,,,,,,,,,,,,,,,,,,,,,,,,,,,,,,,,,,,,,,,,,,,,,,,,,,,,,,,,,,,,,,,,,,,,,,,,,,,,,,,,,,,,,,,,,,,,,,,,,,,,,,,,,,,,,
,,59dbbdce5de9b000017ebf19,2024-02-22_03h52.56.279,kallum_motion_pilot,2023.2.2,Win32,8.547008547,59dbbdce5de9b000017ebf19,65d6bb0e977760de756971f7,65d6c4f40a464a429d9a9296,0.097,0.097,1,59,221,130,1,sixfive,,,,,,,,,,,,,,,,,,,,,,,,,,,,,,,,,,,,,,,,,,,,,,,,,,,,,,,,,,,,,,,,,,,,,,,,,,,,,,,,,,,,,,,,,,,,,,,,,,,,,,,,,,,,,,,,,,,,,,,,,,,,,,,,,,,,,,,,,
,,59dbbdce5de9b000017ebf19,2024-02-22_03h52.56.279,kallum_motion_pilot,2023.2.2,Win32,8.547008547,59dbbdce5de9b000017ebf19,65d6bb0e977760de756971f7,65d6c4f40a464a429d9a9296,0.097,0.097,1,60,222,40,1,onetwo,,,,,,,,,,,,,,,,,,,,,,,,,,,,,,,,,,,,,,,,,,,,,,,,,,,,,,,,,,,,,,,,,,,,,,,,,,,,,,,,,,,,,,,,,,,,,,,,,,,,,,,,,,,,,,,,,,,,,,,,,,,,,,,,,,,,,,,,,
,,59dbbdce5de9b000017ebf19,2024-02-22_03h52.56.279,kallum_motion_pilot,2023.2.2,Win32,8.547008547,59dbbdce5de9b000017ebf19,65d6bb0e977760de756971f7,65d6c4f40a464a429d9a9296,0.097,0.097,1,61,223,52,1,threeone,,,,,,,,,,,,,,,,,,,,,,,,,,,,,,,,,,,,,,,,,,,,,,,,,,,,,,,,,,,,,,,,,,,,,,,,,,,,,,,,,,,,,,,,,,,,,,,,,,,,,,,,,,,,,,,,,,,,,,,,,,,,,,,,,,,,,,,,,
,,59dbbdce5de9b000017ebf19,2024-02-22_03h52.56.279,kallum_motion_pilot,2023.2.2,Win32,8.547008547,59dbbdce5de9b000017ebf19,65d6bb0e977760de756971f7,65d6c4f40a464a429d9a9296,0.098,0.098,1,62,224,14,1,fourtwo,,,,,,,,,,,,,,,,,,,,,,,,,,,,,,,,,,,,,,,,,,,,,,,,,,,,,,,,,,,,,,,,,,,,,,,,,,,,,,,,,,,,,,,,,,,,,,,,,,,,,,,,,,,,,,,,,,,,,,,,,,,,,,,,,,,,,,,,,
,,59dbbdce5de9b000017ebf19,2024-02-22_03h52.56.279,kallum_motion_pilot,2023.2.2,Win32,8.547008547,59dbbdce5de9b000017ebf19,65d6bb0e977760de756971f7,65d6c4f40a464a429d9a9296,0.098,0.098,1,63,225,63,1,fourthree,,,,,,,,,,,,,,,,,,,,,,,,,,,,,,,,,,,,,,,,,,,,,,,,,,,,,,,,,,,,,,,,,,,,,,,,,,,,,,,,,,,,,,,,,,,,,,,,,,,,,,,,,,,,,,,,,,,,,,,,,,,,,,,,,,,,,,,,,
,,59dbbdce5de9b000017ebf19,2024-02-22_03h52.56.279,kallum_motion_pilot,2023.2.2,Win32,8.547008547,59dbbdce5de9b000017ebf19,65d6bb0e977760de756971f7,65d6c4f40a464a429d9a9296,0.098,0.099,1,64,226,89,1,fiveseven,,,,,,,,,,,,,,,,,,,,,,,,,,,,,,,,,,,,,,,,,,,,,,,,,,,,,,,,,,,,,,,,,,,,,,,,,,,,,,,,,,,,,,,,,,,,,,,,,,,,,,,,,,,,,,,,,,,,,,,,,,,,,,,,,,,,,,,,,
,,59dbbdce5de9b000017ebf19,2024-02-22_03h52.56.279,kallum_motion_pilot,2023.2.2,Win32,8.547008547,59dbbdce5de9b000017ebf19,65d6bb0e977760de756971f7,65d6c4f40a464a429d9a9296,0.099,0.099,1,65,227,152,1,fivesix,,,,,,,,,,,,,,,,,,,,,,,,,,,,,,,,,,,,,,,,,,,,,,,,,,,,,,,,,,,,,,,,,,,,,,,,,,,,,,,,,,,,,,,,,,,,,,,,,,,,,,,,,,,,,,,,,,,,,,,,,,,,,,,,,,,,,,,,,
,,59dbbdce5de9b000017ebf19,2024-02-22_03h52.56.279,kallum_motion_pilot,2023.2.2,Win32,8.547008547,59dbbdce5de9b000017ebf19,65d6bb0e977760de756971f7,65d6c4f40a464a429d9a9296,0.099,0.099,1,66,228,23,1,fourthree,,,,,,,,,,,,,,,,,,,,,,,,,,,,,,,,,,,,,,,,,,,,,,,,,,,,,,,,,,,,,,,,,,,,,,,,,,,,,,,,,,,,,,,,,,,,,,,,,,,,,,,,,,,,,,,,,,,,,,,,,,,,,,,,,,,,,,,,,
,,59dbbdce5de9b000017ebf19,2024-02-22_03h52.56.279,kallum_motion_pilot,2023.2.2,Win32,8.547008547,59dbbdce5de9b000017ebf19,65d6bb0e977760de756971f7,65d6c4f40a464a429d9a9296,0.099,0.099,1,67,229,140,1,sevenfive,,,,,,,,,,,,,,,,,,,,,,,,,,,,,,,,,,,,,,,,,,,,,,,,,,,,,,,,,,,,,,,,,,,,,,,,,,,,,,,,,,,,,,,,,,,,,,,,,,,,,,,,,,,,,,,,,,,,,,,,,,,,,,,,,,,,,,,,,
,,59dbbdce5de9b000017ebf19,2024-02-22_03h52.56.279,kallum_motion_pilot,2023.2.2,Win32,8.547008547,59dbbdce5de9b000017ebf19,65d6bb0e977760de756971f7,65d6c4f40a464a429d9a9296,0.099,0.099,1,68,230,98,1,sixfive,,,,,,,,,,,,,,,,,,,,,,,,,,,,,,,,,,,,,,,,,,,,,,,,,,,,,,,,,,,,,,,,,,,,,,,,,,,,,,,,,,,,,,,,,,,,,,,,,,,,,,,,,,,,,,,,,,,,,,,,,,,,,,,,,,,,,,,,,
,,59dbbdce5de9b000017ebf19,2024-02-22_03h52.56.279,kallum_motion_pilot,2023.2.2,Win32,8.547008547,59dbbdce5de9b000017ebf19,65d6bb0e977760de756971f7,65d6c4f40a464a429d9a9296,0.099,0.099,1,69,231,156,1,sevenfive,,,,,,,,,,,,,,,,,,,,,,,,,,,,,,,,,,,,,,,,,,,,,,,,,,,,,,,,,,,,,,,,,,,,,,,,,,,,,,,,,,,,,,,,,,,,,,,,,,,,,,,,,,,,,,,,,,,,,,,,,,,,,,,,,,,,,,,,,
,,59dbbdce5de9b000017ebf19,2024-02-22_03h52.56.279,kallum_motion_pilot,2023.2.2,Win32,8.547008547,59dbbdce5de9b000017ebf19,65d6bb0e977760de756971f7,65d6c4f40a464a429d9a9296,0.1,0.1,1,70,232,90,1,sixfive,,,,,,,,,,,,,,,,,,,,,,,,,,,,,,,,,,,,,,,,,,,,,,,,,,,,,,,,,,,,,,,,,,,,,,,,,,,,,,,,,,,,,,,,,,,,,,,,,,,,,,,,,,,,,,,,,,,,,,,,,,,,,,,,,,,,,,,,,
,,59dbbdce5de9b000017ebf19,2024-02-22_03h52.56.279,kallum_motion_pilot,2023.2.2,Win32,8.547008547,59dbbdce5de9b000017ebf19,65d6bb0e977760de756971f7,65d6c4f40a464a429d9a9296,0.1,0.1,1,71,233,105,1,fiveseven,,,,,,,,,,,,,,,,,,,,,,,,,,,,,,,,,,,,,,,,,,,,,,,,,,,,,,,,,,,,,,,,,,,,,,,,,,,,,,,,,,,,,,,,,,,,,,,,,,,,,,,,,,,,,,,,,,,,,,,,,,,,,,,,,,,,,,,,,
,,59dbbdce5de9b000017ebf19,2024-02-22_03h52.56.279,kallum_motion_pilot,2023.2.2,Win32,8.547008547,59dbbdce5de9b000017ebf19,65d6bb0e977760de756971f7,65d6c4f40a464a429d9a9296,0.1,0.1,1,72,234,147,1,sixeight,,,,,,,,,,,,,,,,,,,,,,,,,,,,,,,,,,,,,,,,,,,,,,,,,,,,,,,,,,,,,,,,,,,,,,,,,,,,,,,,,,,,,,,,,,,,,,,,,,,,,,,,,,,,,,,,,,,,,,,,,,,,,,,,,,,,,,,,,
,,59dbbdce5de9b000017ebf19,2024-02-22_03h52.56.279,kallum_motion_pilot,2023.2.2,Win32,8.547008547,59dbbdce5de9b000017ebf19,65d6bb0e977760de756971f7,65d6c4f40a464a429d9a9296,0.101,0.101,1,73,235,68,1,threeone,,,,,,,,,,,,,,,,,,,,,,,,,,,,,,,,,,,,,,,,,,,,,,,,,,,,,,,,,,,,,,,,,,,,,,,,,,,,,,,,,,,,,,,,,,,,,,,,,,,,,,,,,,,,,,,,,,,,,,,,,,,,,,,,,,,,,,,,,
,,59dbbdce5de9b000017ebf19,2024-02-22_03h52.56.279,kallum_motion_pilot,2023.2.2,Win32,8.547008547,59dbbdce5de9b000017ebf19,65d6bb0e977760de756971f7,65d6c4f40a464a429d9a9296,0.101,0.101,1,74,236,31,1,fourthree,,,,,,,,,,,,,,,,,,,,,,,,,,,,,,,,,,,,,,,,,,,,,,,,,,,,,,,,,,,,,,,,,,,,,,,,,,,,,,,,,,,,,,,,,,,,,,,,,,,,,,,,,,,,,,,,,,,,,,,,,,,,,,,,,,,,,,,,,
,,59dbbdce5de9b000017ebf19,2024-02-22_03h52.56.279,kallum_motion_pilot,2023.2.2,Win32,8.547008547,59dbbdce5de9b000017ebf19,65d6bb0e977760de756971f7,65d6c4f40a464a429d9a9296,0.101,0.101,1,75,237,35,1,twofour,,,,,,,,,,,,,,,,,,,,,,,,,,,,,,,,,,,,,,,,,,,,,,,,,,,,,,,,,,,,,,,,,,,,,,,,,,,,,,,,,,,,,,,,,,,,,,,,,,,,,,,,,,,,,,,,,,,,,,,,,,,,,,,,,,,,,,,,,
,,59dbbdce5de9b000017ebf19,2024-02-22_03h52.56.279,kallum_motion_pilot,2023.2.2,Win32,8.547008547,59dbbdce5de9b000017ebf19,65d6bb0e977760de756971f7,65d6c4f40a464a429d9a9296,0.101,0.101,1,76,238,153,1,fiveseven,,,,,,,,,,,,,,,,,,,,,,,,,,,,,,,,,,,,,,,,,,,,,,,,,,,,,,,,,,,,,,,,,,,,,,,,,,,,,,,,,,,,,,,,,,,,,,,,,,,,,,,,,,,,,,,,,,,,,,,,,,,,,,,,,,,,,,,,,
,,59dbbdce5de9b000017ebf19,2024-02-22_03h52.56.279,kallum_motion_pilot,2023.2.2,Win32,8.547008547,59dbbdce5de9b000017ebf19,65d6bb0e977760de756971f7,65d6c4f40a464a429d9a9296,0.101,0.101,1,77,239,79,1,eightseven,,,,,,,,,,,,,,,,,,,,,,,,,,,,,,,,,,,,,,,,,,,,,,,,,,,,,,,,,,,,,,,,,,,,,,,,,,,,,,,,,,,,,,,,,,,,,,,,,,,,,,,,,,,,,,,,,,,,,,,,,,,,,,,,,,,,,,,,,
,,59dbbdce5de9b000017ebf19,2024-02-22_03h52.56.279,kallum_motion_pilot,2023.2.2,Win32,8.547008547,59dbbdce5de9b000017ebf19,65d6bb0e977760de756971f7,65d6c4f40a464a429d9a9296,0.101,0.101,1,78,240,9,1,onethree,,,,,,,,,,,,,,,,,,,,,,,,,,,,,,,,,,,,,,,,,,,,,,,,,,,,,,,,,,,,,,,,,,,,,,,,,,,,,,,,,,,,,,,,,,,,,,,,,,,,,,,,,,,,,,,,,,,,,,,,,,,,,,,,,,,,,,,,,
,,59dbbdce5de9b000017ebf19,2024-02-22_03h52.56.279,kallum_motion_pilot,2023.2.2,Win32,8.547008547,59dbbdce5de9b000017ebf19,65d6bb0e977760de756971f7,65d6c4f40a464a429d9a9296,0.101,0.102,1,79,241,53,1,threefour,,,,,,,,,,,,,,,,,,,,,,,,,,,,,,,,,,,,,,,,,,,,,,,,,,,,,,,,,,,,,,,,,,,,,,,,,,,,,,,,,,,,,,,,,,,,,,,,,,,,,,,,,,,,,,,,,,,,,,,,,,,,,,,,,,,,,,,,,
,,59dbbdce5de9b000017ebf19,2024-02-22_03h52.56.279,kallum_motion_pilot,2023.2.2,Win32,8.547008547,59dbbdce5de9b000017ebf19,65d6bb0e977760de756971f7,65d6c4f40a464a429d9a9296,0.103,0.103,1,80,242,138,1,sixfive,,,,,,,,,,,,,,,,,,,,,,,,,,,,,,,,,,,,,,,,,,,,,,,,,,,,,,,,,,,,,,,,,,,,,,,,,,,,,,,,,,,,,,,,,,,,,,,,,,,,,,,,,,,,,,,,,,,,,,,,,,,,,,,,,,,,,,,,,
,,59dbbdce5de9b000017ebf19,2024-02-22_03h52.56.279,kallum_motion_pilot,2023.2.2,Win32,8.547008547,59dbbdce5de9b000017ebf19,65d6bb0e977760de756971f7,65d6c4f40a464a429d9a9296,0.103,0.103,1,81,243,160,1,fivesix,,,,,,,,,,,,,,,,,,,,,,,,,,,,,,,,,,,,,,,,,,,,,,,,,,,,,,,,,,,,,,,,,,,,,,,,,,,,,,,,,,,,,,,,,,,,,,,,,,,,,,,,,,,,,,,,,,,,,,,,,,,,,,,,,,,,,,,,,
,,59dbbdce5de9b000017ebf19,2024-02-22_03h52.56.279,kallum_motion_pilot,2023.2.2,Win32,8.547008547,59dbbdce5de9b000017ebf19,65d6bb0e977760de756971f7,65d6c4f40a464a429d9a9296,0.103,0.103,1,82,244,74,1,twoone,,,,,,,,,,,,,,,,,,,,,,,,,,,,,,,,,,,,,,,,,,,,,,,,,,,,,,,,,,,,,,,,,,,,,,,,,,,,,,,,,,,,,,,,,,,,,,,,,,,,,,,,,,,,,,,,,,,,,,,,,,,,,,,,,,,,,,,,,
,,59dbbdce5de9b000017ebf19,2024-02-22_03h52.56.279,kallum_motion_pilot,2023.2.2,Win32,8.547008547,59dbbdce5de9b000017ebf19,65d6bb0e977760de756971f7,65d6c4f40a464a429d9a9296,0.103,0.103,1,83,245,93,1,seveneight,,,,,,,,,,,,,,,,,,,,,,,,,,,,,,,,,,,,,,,,,,,,,,,,,,,,,,,,,,,,,,,,,,,,,,,,,,,,,,,,,,,,,,,,,,,,,,,,,,,,,,,,,,,,,,,,,,,,,,,,,,,,,,,,,,,,,,,,,
,,59dbbdce5de9b000017ebf19,2024-02-22_03h52.56.279,kallum_motion_pilot,2023.2.2,Win32,8.547008547,59dbbdce5de9b000017ebf19,65d6bb0e977760de756971f7,65d6c4f40a464a429d9a9296,0.103,0.103,1,84,246,70,1,fourtwo,,,,,,,,,,,,,,,,,,,,,,,,,,,,,,,,,,,,,,,,,,,,,,,,,,,,,,,,,,,,,,,,,,,,,,,,,,,,,,,,,,,,,,,,,,,,,,,,,,,,,,,,,,,,,,,,,,,,,,,,,,,,,,,,,,,,,,,,,
,,59dbbdce5de9b000017ebf19,2024-02-22_03h52.56.279,kallum_motion_pilot,2023.2.2,Win32,8.547008547,59dbbdce5de9b000017ebf19,65d6bb0e977760de756971f7,65d6c4f40a464a429d9a9296,0.103,0.103,1,85,247,100,1,sevenfive,,,,,,,,,,,,,,,,,,,,,,,,,,,,,,,,,,,,,,,,,,,,,,,,,,,,,,,,,,,,,,,,,,,,,,,,,,,,,,,,,,,,,,,,,,,,,,,,,,,,,,,,,,,,,,,,,,,,,,,,,,,,,,,,,,,,,,,,,
,,59dbbdce5de9b000017ebf19,2024-02-22_03h52.56.279,kallum_motion_pilot,2023.2.2,Win32,8.547008547,59dbbdce5de9b000017ebf19,65d6bb0e977760de756971f7,65d6c4f40a464a429d9a9296,0.103,0.104,1,86,248,72,1,onetwo,,,,,,,,,,,,,,,,,,,,,,,,,,,,,,,,,,,,,,,,,,,,,,,,,,,,,,,,,,,,,,,,,,,,,,,,,,,,,,,,,,,,,,,,,,,,,,,,,,,,,,,,,,,,,,,,,,,,,,,,,,,,,,,,,,,,,,,,,
,,59dbbdce5de9b000017ebf19,2024-02-22_03h52.56.279,kallum_motion_pilot,2023.2.2,Win32,8.547008547,59dbbdce5de9b000017ebf19,65d6bb0e977760de756971f7,65d6c4f40a464a429d9a9296,0.104,0.104,1,87,249,108,1,sevenfive,,,,,,,,,,,,,,,,,,,,,,,,,,,,,,,,,,,,,,,,,,,,,,,,,,,,,,,,,,,,,,,,,,,,,,,,,,,,,,,,,,,,,,,,,,,,,,,,,,,,,,,,,,,,,,,,,,,,,,,,,,,,,,,,,,,,,,,,,
,,59dbbdce5de9b000017ebf19,2024-02-22_03h52.56.279,kallum_motion_pilot,2023.2.2,Win32,8.547008547,59dbbdce5de9b000017ebf19,65d6bb0e977760de756971f7,65d6c4f40a464a429d9a9296,0.105,0.105,1,88,250,134,1,eightsix,,,,,,,,,,,,,,,,,,,,,,,,,,,,,,,,,,,,,,,,,,,,,,,,,,,,,,,,,,,,,,,,,,,,,,,,,,,,,,,,,,,,,,,,,,,,,,,,,,,,,,,,,,,,,,,,,,,,,,,,,,,,,,,,,,,,,,,,,
,,59dbbdce5de9b000017ebf19,2024-02-22_03h52.56.279,kallum_motion_pilot,2023.2.2,Win32,8.547008547,59dbbdce5de9b000017ebf19,65d6bb0e977760de756971f7,65d6c4f40a464a429d9a9296,0.105,0.105,1,89,251,84,1,sevenfive,,,,,,,,,,,,,,,,,,,,,,,,,,,,,,,,,,,,,,,,,,,,,,,,,,,,,,,,,,,,,,,,,,,,,,,,,,,,,,,,,,,,,,,,,,,,,,,,,,,,,,,,,,,,,,,,,,,,,,,,,,,,,,,,,,,,,,,,,
,,59dbbdce5de9b000017ebf19,2024-02-22_03h52.56.279,kallum_motion_pilot,2023.2.2,Win32,8.547008547,59dbbdce5de9b000017ebf19,65d6bb0e977760de756971f7,65d6c4f40a464a429d9a9296,0.105,0.105,1,90,252,21,1,threefour,,,,,,,,,,,,,,,,,,,,,,,,,,,,,,,,,,,,,,,,,,,,,,,,,,,,,,,,,,,,,,,,,,,,,,,,,,,,,,,,,,,,,,,,,,,,,,,,,,,,,,,,,,,,,,,,,,,,,,,,,,,,,,,,,,,,,,,,,
,,59dbbdce5de9b000017ebf19,2024-02-22_03h52.56.279,kallum_motion_pilot,2023.2.2,Win32,8.547008547,59dbbdce5de9b000017ebf19,65d6bb0e977760de756971f7,65d6c4f40a464a429d9a9296,0.105,0.105,1,91,253,94,1,eightsix,,,,,,,,,,,,,,,,,,,,,,,,,,,,,,,,,,,,,,,,,,,,,,,,,,,,,,,,,,,,,,,,,,,,,,,,,,,,,,,,,,,,,,,,,,,,,,,,,,,,,,,,,,,,,,,,,,,,,,,,,,,,,,,,,,,,,,,,,
,,59dbbdce5de9b000017ebf19,2024-02-22_03h52.56.279,kallum_motion_pilot,2023.2.2,Win32,8.547008547,59dbbdce5de9b000017ebf19,65d6bb0e977760de756971f7,65d6c4f40a464a429d9a9296,0.105,0.105,1,92,254,137,1,fiveseven,,,,,,,,,,,,,,,,,,,,,,,,,,,,,,,,,,,,,,,,,,,,,,,,,,,,,,,,,,,,,,,,,,,,,,,,,,,,,,,,,,,,,,,,,,,,,,,,,,,,,,,,,,,,,,,,,,,,,,,,,,,,,,,,,,,,,,,,,
,,59dbbdce5de9b000017ebf19,2024-02-22_03h52.56.279,kallum_motion_pilot,2023.2.2,Win32,8.547008547,59dbbdce5de9b000017ebf19,65d6bb0e977760de756971f7,65d6c4f40a464a429d9a9296,0.106,0.106,1,93,255,85,1,seveneight,,,,,,,,,,,,,,,,,,,,,,,,,,,,,,,,,,,,,,,,,,,,,,,,,,,,,,,,,,,,,,,,,,,,,,,,,,,,,,,,,,,,,,,,,,,,,,,,,,,,,,,,,,,,,,,,,,,,,,,,,,,,,,,,,,,,,,,,,
,,59dbbdce5de9b000017ebf19,2024-02-22_03h52.56.279,kallum_motion_pilot,2023.2.2,Win32,8.547008547,59dbbdce5de9b000017ebf19,65d6bb0e977760de756971f7,65d6c4f40a464a429d9a9296,0.106,0.106,1,94,256,111,1,eightseven,,,,,,,,,,,,,,,,,,,,,,,,,,,,,,,,,,,,,,,,,,,,,,,,,,,,,,,,,,,,,,,,,,,,,,,,,,,,,,,,,,,,,,,,,,,,,,,,,,,,,,,,,,,,,,,,,,,,,,,,,,,,,,,,,,,,,,,,,
,,59dbbdce5de9b000017ebf19,2024-02-22_03h52.56.279,kallum_motion_pilot,2023.2.2,Win32,8.547008547,59dbbdce5de9b000017ebf19,65d6bb0e977760de756971f7,65d6c4f40a464a429d9a9296,0.106,0.107,1,95,257,129,1,fiveseven,,,,,,,,,,,,,,,,,,,,,,,,,,,,,,,,,,,,,,,,,,,,,,,,,,,,,,,,,,,,,,,,,,,,,,,,,,,,,,,,,,,,,,,,,,,,,,,,,,,,,,,,,,,,,,,,,,,,,,,,,,,,,,,,,,,,,,,,,
,,59dbbdce5de9b000017ebf19,2024-02-22_03h52.56.279,kallum_motion_pilot,2023.2.2,Win32,8.547008547,59dbbdce5de9b000017ebf19,65d6bb0e977760de756971f7,65d6c4f40a464a429d9a9296,0.107,0.107,1,96,258,24,1,onetwo,,,,,,,,,,,,,,,,,,,,,,,,,,,,,,,,,,,,,,,,,,,,,,,,,,,,,,,,,,,,,,,,,,,,,,,,,,,,,,,,,,,,,,,,,,,,,,,,,,,,,,,,,,,,,,,,,,,,,,,,,,,,,,,,,,,,,,,,,
,,59dbbdce5de9b000017ebf19,2024-02-22_03h52.56.279,kallum_motion_pilot,2023.2.2,Win32,8.547008547,59dbbdce5de9b000017ebf19,65d6bb0e977760de756971f7,65d6c4f40a464a429d9a9296,0.107,0.107,1,97,259,51,1,twofour,,,,,,,,,,,,,,,,,,,,,,,,,,,,,,,,,,,,,,,,,,,,,,,,,,,,,,,,,,,,,,,,,,,,,,,,,,,,,,,,,,,,,,,,,,,,,,,,,,,,,,,,,,,,,,,,,,,,,,,,,,,,,,,,,,,,,,,,,
,,59dbbdce5de9b000017ebf19,2024-02-22_03h52.56.279,kallum_motion_pilot,2023.2.2,Win32,8.547008547,59dbbdce5de9b000017ebf19,65d6bb0e977760de756971f7,65d6c4f40a464a429d9a9296,0.107,0.107,1,98,260,27,1,twofour,,,,,,,,,,,,,,,,,,,,,,,,,,,,,,,,,,,,,,,,,,,,,,,,,,,,,,,,,,,,,,,,,,,,,,,,,,,,,,,,,,,,,,,,,,,,,,,,,,,,,,,,,,,,,,,,,,,,,,,,,,,,,,,,,,,,,,,,,
,,59dbbdce5de9b000017ebf19,2024-02-22_03h52.56.279,kallum_motion_pilot,2023.2.2,Win32,8.547008547,59dbbdce5de9b000017ebf19,65d6bb0e977760de756971f7,65d6c4f40a464a429d9a9296,0.107,0.108,1,99,261,56,1,onetwo,,,,,,,,,,,,,,,,,,,,,,,,,,,,,,,,,,,,,,,,,,,,,,,,,,,,,,,,,,,,,,,,,,,,,,,,,,,,,,,,,,,,,,,,,,,,,,,,,,,,,,,,,,,,,,,,,,,,,,,,,,,,,,,,,,,,,,,,,
,,59dbbdce5de9b000017ebf19,2024-02-22_03h52.56.279,kallum_motion_pilot,2023.2.2,Win32,8.547008547,59dbbdce5de9b000017ebf19,65d6bb0e977760de756971f7,65d6c4f40a464a429d9a9296,0.108,0.108,1,100,262,10,1,twoone,,,,,,,,,,,,,,,,,,,,,,,,,,,,,,,,,,,,,,,,,,,,,,,,,,,,,,,,,,,,,,,,,,,,,,,,,,,,,,,,,,,,,,,,,,,,,,,,,,,,,,,,,,,,,,,,,,,,,,,,,,,,,,,,,,,,,,,,,
,,59dbbdce5de9b000017ebf19,2024-02-22_03h52.56.279,kallum_motion_pilot,2023.2.2,Win32,8.547008547,59dbbdce5de9b000017ebf19,65d6bb0e977760de756971f7,65d6c4f40a464a429d9a9296,0.108,0.108,1,101,263,58,1,twoone,,,,,,,,,,,,,,,,,,,,,,,,,,,,,,,,,,,,,,,,,,,,,,,,,,,,,,,,,,,,,,,,,,,,,,,,,,,,,,,,,,,,,,,,,,,,,,,,,,,,,,,,,,,,,,,,,,,,,,,,,,,,,,,,,,,,,,,,,
,,59dbbdce5de9b000017ebf19,2024-02-22_03h52.56.279,kallum_motion_pilot,2023.2.2,Win32,8.547008547,59dbbdce5de9b000017ebf19,65d6bb0e977760de756971f7,65d6c4f40a464a429d9a9296,0.108,0.108,1,102,264,91,1,sixeight,,,,,,,,,,,,,,,,,,,,,,,,,,,,,,,,,,,,,,,,,,,,,,,,,,,,,,,,,,,,,,,,,,,,,,,,,,,,,,,,,,,,,,,,,,,,,,,,,,,,,,,,,,,,,,,,,,,,,,,,,,,,,,,,,,,,,,,,,
,,59dbbdce5de9b000017ebf19,2024-02-22_03h52.56.279,kallum_motion_pilot,2023.2.2,Win32,8.547008547,59dbbdce5de9b000017ebf19,65d6bb0e977760de756971f7,65d6c4f40a464a429d9a9296,0.109,0.109,1,103,265,95,1,eightseven,,,,,,,,,,,,,,,,,,,,,,,,,,,,,,,,,,,,,,,,,,,,,,,,,,,,,,,,,,,,,,,,,,,,,,,,,,,,,,,,,,,,,,,,,,,,,,,,,,,,,,,,,,,,,,,,,,,,,,,,,,,,,,,,,,,,,,,,,
,,59dbbdce5de9b000017ebf19,2024-02-22_03h52.56.279,kallum_motion_pilot,2023.2.2,Win32,8.547008547,59dbbdce5de9b000017ebf19,65d6bb0e977760de756971f7,65d6c4f40a464a429d9a9296,0.109,0.109,1,104,266,120,1,fivesix,,,,,,,,,,,,,,,,,,,,,,,,,,,,,,,,,,,,,,,,,,,,,,,,,,,,,,,,,,,,,,,,,,,,,,,,,,,,,,,,,,,,,,,,,,,,,,,,,,,,,,,,,,,,,,,,,,,,,,,,,,,,,,,,,,,,,,,,,
,,59dbbdce5de9b000017ebf19,2024-02-22_03h52.56.279,kallum_motion_pilot,2023.2.2,Win32,8.547008547,59dbbdce5de9b000017ebf19,65d6bb0e977760de756971f7,65d6c4f40a464a429d9a9296,0.109,0.109,1,105,267,107,1,sixeight,,,,,,,,,,,,,,,,,,,,,,,,,,,,,,,,,,,,,,,,,,,,,,,,,,,,,,,,,,,,,,,,,,,,,,,,,,,,,,,,,,,,,,,,,,,,,,,,,,,,,,,,,,,,,,,,,,,,,,,,,,,,,,,,,,,,,,,,,
,,59dbbdce5de9b000017ebf19,2024-02-22_03h52.56.279,kallum_motion_pilot,2023.2.2,Win32,8.547008547,59dbbdce5de9b000017ebf19,65d6bb0e977760de756971f7,65d6c4f40a464a429d9a9296,0.11,0.11,1,106,268,99,1,sixeight,,,,,,,,,,,,,,,,,,,,,,,,,,,,,,,,,,,,,,,,,,,,,,,,,,,,,,,,,,,,,,,,,,,,,,,,,,,,,,,,,,,,,,,,,,,,,,,,,,,,,,,,,,,,,,,,,,,,,,,,,,,,,,,,,,,,,,,,,
,,59dbbdce5de9b000017ebf19,2024-02-22_03h52.56.279,kallum_motion_pilot,2023.2.2,Win32,8.547008547,59dbbdce5de9b000017ebf19,65d6bb0e977760de756971f7,65d6c4f40a464a429d9a9296,0.11,0.11,1,107,269,60,1,threeone,,,,,,,,,,,,,,,,,,,,,,,,,,,,,,,,,,,,,,,,,,,,,,,,,,,,,,,,,,,,,,,,,,,,,,,,,,,,,,,,,,,,,,,,,,,,,,,,,,,,,,,,,,,,,,,,,,,,,,,,,,,,,,,,,,,,,,,,,
,,59dbbdce5de9b000017ebf19,2024-02-22_03h52.56.279,kallum_motion_pilot,2023.2.2,Win32,8.547008547,59dbbdce5de9b000017ebf19,65d6bb0e977760de756971f7,65d6c4f40a464a429d9a9296,0.11,0.11,1,108,270,61,1,threefour,,,,,,,,,,,,,,,,,,,,,,,,,,,,,,,,,,,,,,,,,,,,,,,,,,,,,,,,,,,,,,,,,,,,,,,,,,,,,,,,,,,,,,,,,,,,,,,,,,,,,,,,,,,,,,,,,,,,,,,,,,,,,,,,,,,,,,,,,
,,59dbbdce5de9b000017ebf19,2024-02-22_03h52.56.279,kallum_motion_pilot,2023.2.2,Win32,8.547008547,59dbbdce5de9b000017ebf19,65d6bb0e977760de756971f7,65d6c4f40a464a429d9a9296,0.11,0.11,1,109,271,50,1,twoone,,,,,,,,,,,,,,,,,,,,,,,,,,,,,,,,,,,,,,,,,,,,,,,,,,,,,,,,,,,,,,,,,,,,,,,,,,,,,,,,,,,,,,,,,,,,,,,,,,,,,,,,,,,,,,,,,,,,,,,,,,,,,,,,,,,,,,,,,
,,59dbbdce5de9b000017ebf19,2024-02-22_03h52.56.279,kallum_motion_pilot,2023.2.2,Win32,8.547008547,59dbbdce5de9b000017ebf19,65d6bb0e977760de756971f7,65d6c4f40a464a429d9a9296,0.11,0.11,1,110,272,34,1,twoone,,,,,,,,,,,,,,,,,,,,,,,,,,,,,,,,,,,,,,,,,,,,,,,,,,,,,,,,,,,,,,,,,,,,,,,,,,,,,,,,,,,,,,,,,,,,,,,,,,,,,,,,,,,,,,,,,,,,,,,,,,,,,,,,,,,,,,,,,
,,59dbbdce5de9b000017ebf19,2024-02-22_03h52.56.279,kallum_motion_pilot,2023.2.2,Win32,8.547008547,59dbbdce5de9b000017ebf19,65d6bb0e977760de756971f7,65d6c4f40a464a429d9a9296,0.11,0.111,1,111,273,33,1,onethree,,,,,,,,,,,,,,,,,,,,,,,,,,,,,,,,,,,,,,,,,,,,,,,,,,,,,,,,,,,,,,,,,,,,,,,,,,,,,,,,,,,,,,,,,,,,,,,,,,,,,,,,,,,,,,,,,,,,,,,,,,,,,,,,,,,,,,,,,
,,59dbbdce5de9b000017ebf19,2024-02-22_03h52.56.279,kallum_motion_pilot,2023.2.2,Win32,8.547008547,59dbbdce5de9b000017ebf19,65d6bb0e977760de756971f7,65d6c4f40a464a429d9a9296,0.111,0.111,1,112,274,110,1,eightsix,,,,,,,,,,,,,,,,,,,,,,,,,,,,,,,,,,,,,,,,,,,,,,,,,,,,,,,,,,,,,,,,,,,,,,,,,,,,,,,,,,,,,,,,,,,,,,,,,,,,,,,,,,,,,,,,,,,,,,,,,,,,,,,,,,,,,,,,,
,,59dbbdce5de9b000017ebf19,2024-02-22_03h52.56.279,kallum_motion_pilot,2023.2.2,Win32,8.547008547,59dbbdce5de9b000017ebf19,65d6bb0e977760de756971f7,65d6c4f40a464a429d9a9296,0.111,0.111,1,113,275,48,1,onetwo,,,,,,,,,,,,,,,,,,,,,,,,,,,,,,,,,,,,,,,,,,,,,,,,,,,,,,,,,,,,,,,,,,,,,,,,,,,,,,,,,,,,,,,,,,,,,,,,,,,,,,,,,,,,,,,,,,,,,,,,,,,,,,,,,,,,,,,,,
,,59dbbdce5de9b000017ebf19,2024-02-22_03h52.56.279,kallum_motion_pilot,2023.2.2,Win32,8.547008547,59dbbdce5de9b000017ebf19,65d6bb0e977760de756971f7,65d6c4f40a464a429d9a9296,0.112,0.112,1,114,276,4,1,threeone,,,,,,,,,,,,,,,,,,,,,,,,,,,,,,,,,,,,,,,,,,,,,,,,,,,,,,,,,,,,,,,,,,,,,,,,,,,,,,,,,,,,,,,,,,,,,,,,,,,,,,,,,,,,,,,,,,,,,,,,,,,,,,,,,,,,,,,,,
,,59dbbdce5de9b000017ebf19,2024-02-22_03h52.56.279,kallum_motion_pilot,2023.2.2,Win32,8.547008547,59dbbdce5de9b000017ebf19,65d6bb0e977760de756971f7,65d6c4f40a464a429d9a9296,0.112,0.112,1,115,277,124,1,sevenfive,,,,,,,,,,,,,,,,,,,,,,,,,,,,,,,,,,,,,,,,,,,,,,,,,,,,,,,,,,,,,,,,,,,,,,,,,,,,,,,,,,,,,,,,,,,,,,,,,,,,,,,,,,,,,,,,,,,,,,,,,,,,,,,,,,,,,,,,,
,,59dbbdce5de9b000017ebf19,2024-02-22_03h52.56.279,kallum_motion_pilot,2023.2.2,Win32,8.547008547,59dbbdce5de9b000017ebf19,65d6bb0e977760de756971f7,65d6c4f40a464a429d9a9296,0.112,0.112,1,116,278,87,1,eightseven,,,,,,,,,,,,,,,,,,,,,,,,,,,,,,,,,,,,,,,,,,,,,,,,,,,,,,,,,,,,,,,,,,,,,,,,,,,,,,,,,,,,,,,,,,,,,,,,,,,,,,,,,,,,,,,,,,,,,,,,,,,,,,,,,,,,,,,,,
,,59dbbdce5de9b000017ebf19,2024-02-22_03h52.56.279,kallum_motion_pilot,2023.2.2,Win32,8.547008547,59dbbdce5de9b000017ebf19,65d6bb0e977760de756971f7,65d6c4f40a464a429d9a9296,0.112,0.112,1,117,279,7,1,fourthree,,,,,,,,,,,,,,,,,,,,,,,,,,,,,,,,,,,,,,,,,,,,,,,,,,,,,,,,,,,,,,,,,,,,,,,,,,,,,,,,,,,,,,,,,,,,,,,,,,,,,,,,,,,,,,,,,,,,,,,,,,,,,,,,,,,,,,,,,
