startup.started,startup.stopped,Prolific ID*,date,expName,psychopyVersion,OS,frameRate,participant,study_id,session,stimpositions.started,stimpositions.stopped,hardcoded_stimulus_positions.thisRepN,hardcoded_stimulus_positions.thisTrialN,hardcoded_stimulus_positions.thisN,hardcoded_stimulus_positions.thisIndex,hardcoded_stimulus_positions.ran,StimulusPos,stimorientation.started,stimorientation.stopped,prac_stimorientation_import_loop.thisRepN,prac_stimorientation_import_loop.thisTrialN,prac_stimorientation_import_loop.thisN,prac_stimorientation_import_loop.thisIndex,prac_stimorientation_import_loop.ran,Stimorientation,welcome_instr.started,welcome_instr.stopped,key_resp.keys,key_resp.rt,key_resp.duration,response_steppedout_1.started,response_steppedout_1.stopped,key_resp_20.keys,key_resp_20.rt,key_resp_20.duration,response_steppedout_2.started,response_steppedout_2.stopped,key_resp_19.keys,key_resp_19.rt,key_resp_19.duration,stim_response_instr.started,stim_response_instr.stopped,key_resp_15.keys,key_resp_15.rt,key_resp_15.duration,direction_instr_2.started,direction_instr_2.stopped,key_resp_9.keys,key_resp_9.rt,key_resp_9.duration,instr_prac.started,instr_prac.stopped,key_resp_10.keys,key_resp_10.rt,key_resp_10.duration,Stim1_display_prac.started,Stim1_display_prac.stopped,Ecc,Circle1_ori,Circle2_ori,response_prac.started,similarity,response_time,response_prac.stopped,mouse_5.x,mouse_5.y,mouse_5.leftButton,mouse_5.midButton,mouse_5.rightButton,mouse_5.clicked_name,responseprac_feedback.started,responseprac_feedback.stopped,summary2_prac.started,summary2_prac.stopped,mouse_6.x,mouse_6.y,mouse_6.leftButton,mouse_6.midButton,mouse_6.rightButton,mouse_6.clicked_name,duringprac.thisRepN,duringprac.thisTrialN,duringprac.thisN,duringprac.thisIndex,duringprac.ran,begin.started,begin.stopped,key_resp_22.keys,key_resp_22.rt,key_resp_22.duration,Stim1_display.started,Stim1_display.stopped,circle1_ori,circle2_ori,circle1_SF,circle2_SF,response.started,response.stopped,mouse.x,mouse.y,mouse.leftButton,mouse.midButton,mouse.rightButton,mouse.clicked_name,trialnumber,double_pass.thisRepN,double_pass.thisTrialN,double_pass.thisN,double_pass.thisIndex,double_pass.ran,double_pass.order,main_trial.thisRepN,main_trial.thisTrialN,main_trial.thisN,main_trial.thisIndex,main_trial.ran,main_trial.order,Trial_Counter,Catch,Frequencies,response_2.started,response_2.stopped,mouse_2.x,mouse_2.y,mouse_2.leftButton,mouse_2.midButton,mouse_2.rightButton,mouse_2.clicked_name,special_trial.started,special_trial.stopped,catch_1.started,catch_1.stopped,mouse_3.x,mouse_3.y,mouse_3.leftButton,mouse_3.midButton,mouse_3.rightButton,catchresponse,catchnumber,response_time_catch,response_sum.started,response_sum.stopped,mouse_11.x,mouse_11.y,mouse_11.leftButton,mouse_11.midButton,mouse_11.rightButton,flip_presentation_sequence_for_double_pass.started,flip_presentation_sequence_for_double_pass.stopped,goodbye.started,goodbye.stopped,key_resp_3.keys,key_resp_3.rt,key_resp_3.duration
0.0006,0.0009,59f66e4e8a2d3d00012c1540,2024-02-18_23h14.21.264,kallum_motion_pilot,2023.2.2,Win32,3.99840064,59f66e4e8a2d3d00012c1540,65d2b6c8f2eece985d8e374c,65d2b8d30a1be52461736421,,,,,,,,,,,,,,,,,,,,,,,,,,,,,,,,,,,,,,,,,,,,,,,,,,,,,,,,,,,,,,,,,,,,,,,,,,,,,,,,,,,,,,,,,,,,,,,,,,,,,,,,,,,,,,,,,,,,,,,,,,,,,,,,,,,,,,,,,,,,,,,,,
,,59f66e4e8a2d3d00012c1540,2024-02-18_23h14.21.264,kallum_motion_pilot,2023.2.2,Win32,3.99840064,59f66e4e8a2d3d00012c1540,65d2b6c8f2eece985d8e374c,65d2b8d30a1be52461736421,0.1106,0.1108,0,0,0,137,1,fiveseven,,,,,,,,,,,,,,,,,,,,,,,,,,,,,,,,,,,,,,,,,,,,,,,,,,,,,,,,,,,,,,,,,,,,,,,,,,,,,,,,,,,,,,,,,,,,,,,,,,,,,,,,,,,,,,,,,,,,,,,,,,,,,,,,,,,,,,,,,
,,59f66e4e8a2d3d00012c1540,2024-02-18_23h14.21.264,kallum_motion_pilot,2023.2.2,Win32,3.99840064,59f66e4e8a2d3d00012c1540,65d2b6c8f2eece985d8e374c,65d2b8d30a1be52461736421,0.1114,0.1114,0,1,1,21,1,threefour,,,,,,,,,,,,,,,,,,,,,,,,,,,,,,,,,,,,,,,,,,,,,,,,,,,,,,,,,,,,,,,,,,,,,,,,,,,,,,,,,,,,,,,,,,,,,,,,,,,,,,,,,,,,,,,,,,,,,,,,,,,,,,,,,,,,,,,,,
,,59f66e4e8a2d3d00012c1540,2024-02-18_23h14.21.264,kallum_motion_pilot,2023.2.2,Win32,3.99840064,59f66e4e8a2d3d00012c1540,65d2b6c8f2eece985d8e374c,65d2b8d30a1be52461736421,0.1117,0.1118,0,2,2,4,1,threeone,,,,,,,,,,,,,,,,,,,,,,,,,,,,,,,,,,,,,,,,,,,,,,,,,,,,,,,,,,,,,,,,,,,,,,,,,,,,,,,,,,,,,,,,,,,,,,,,,,,,,,,,,,,,,,,,,,,,,,,,,,,,,,,,,,,,,,,,,
,,59f66e4e8a2d3d00012c1540,2024-02-18_23h14.21.264,kallum_motion_pilot,2023.2.2,Win32,3.99840064,59f66e4e8a2d3d00012c1540,65d2b6c8f2eece985d8e374c,65d2b8d30a1be52461736421,0.1121,0.1121,0,3,3,60,1,threeone,,,,,,,,,,,,,,,,,,,,,,,,,,,,,,,,,,,,,,,,,,,,,,,,,,,,,,,,,,,,,,,,,,,,,,,,,,,,,,,,,,,,,,,,,,,,,,,,,,,,,,,,,,,,,,,,,,,,,,,,,,,,,,,,,,,,,,,,,
,,59f66e4e8a2d3d00012c1540,2024-02-18_23h14.21.264,kallum_motion_pilot,2023.2.2,Win32,3.99840064,59f66e4e8a2d3d00012c1540,65d2b6c8f2eece985d8e374c,65d2b8d30a1be52461736421,0.1124,0.1124,0,4,4,80,1,fivesix,,,,,,,,,,,,,,,,,,,,,,,,,,,,,,,,,,,,,,,,,,,,,,,,,,,,,,,,,,,,,,,,,,,,,,,,,,,,,,,,,,,,,,,,,,,,,,,,,,,,,,,,,,,,,,,,,,,,,,,,,,,,,,,,,,,,,,,,,
,,59f66e4e8a2d3d00012c1540,2024-02-18_23h14.21.264,kallum_motion_pilot,2023.2.2,Win32,3.99840064,59f66e4e8a2d3d00012c1540,65d2b6c8f2eece985d8e374c,65d2b8d30a1be52461736421,0.1129,0.1129,0,5,5,98,1,sixfive,,,,,,,,,,,,,,,,,,,,,,,,,,,,,,,,,,,,,,,,,,,,,,,,,,,,,,,,,,,,,,,,,,,,,,,,,,,,,,,,,,,,,,,,,,,,,,,,,,,,,,,,,,,,,,,,,,,,,,,,,,,,,,,,,,,,,,,,,
,,59f66e4e8a2d3d00012c1540,2024-02-18_23h14.21.264,kallum_motion_pilot,2023.2.2,Win32,3.99840064,59f66e4e8a2d3d00012c1540,65d2b6c8f2eece985d8e374c,65d2b8d30a1be52461736421,0.1131,0.1132,0,6,6,28,1,threeone,,,,,,,,,,,,,,,,,,,,,,,,,,,,,,,,,,,,,,,,,,,,,,,,,,,,,,,,,,,,,,,,,,,,,,,,,,,,,,,,,,,,,,,,,,,,,,,,,,,,,,,,,,,,,,,,,,,,,,,,,,,,,,,,,,,,,,,,,
,,59f66e4e8a2d3d00012c1540,2024-02-18_23h14.21.264,kallum_motion_pilot,2023.2.2,Win32,3.99840064,59f66e4e8a2d3d00012c1540,65d2b6c8f2eece985d8e374c,65d2b8d30a1be52461736421,0.1134,0.1135,0,7,7,114,1,sixfive,,,,,,,,,,,,,,,,,,,,,,,,,,,,,,,,,,,,,,,,,,,,,,,,,,,,,,,,,,,,,,,,,,,,,,,,,,,,,,,,,,,,,,,,,,,,,,,,,,,,,,,,,,,,,,,,,,,,,,,,,,,,,,,,,,,,,,,,,
,,59f66e4e8a2d3d00012c1540,2024-02-18_23h14.21.264,kallum_motion_pilot,2023.2.2,Win32,3.99840064,59f66e4e8a2d3d00012c1540,65d2b6c8f2eece985d8e374c,65d2b8d30a1be52461736421,0.1138,0.1138,0,8,8,32,1,onetwo,,,,,,,,,,,,,,,,,,,,,,,,,,,,,,,,,,,,,,,,,,,,,,,,,,,,,,,,,,,,,,,,,,,,,,,,,,,,,,,,,,,,,,,,,,,,,,,,,,,,,,,,,,,,,,,,,,,,,,,,,,,,,,,,,,,,,,,,,
,,59f66e4e8a2d3d00012c1540,2024-02-18_23h14.21.264,kallum_motion_pilot,2023.2.2,Win32,3.99840064,59f66e4e8a2d3d00012c1540,65d2b6c8f2eece985d8e374c,65d2b8d30a1be52461736421,0.114,0.1141,0,9,9,93,1,seveneight,,,,,,,,,,,,,,,,,,,,,,,,,,,,,,,,,,,,,,,,,,,,,,,,,,,,,,,,,,,,,,,,,,,,,,,,,,,,,,,,,,,,,,,,,,,,,,,,,,,,,,,,,,,,,,,,,,,,,,,,,,,,,,,,,,,,,,,,,
,,59f66e4e8a2d3d00012c1540,2024-02-18_23h14.21.264,kallum_motion_pilot,2023.2.2,Win32,3.99840064,59f66e4e8a2d3d00012c1540,65d2b6c8f2eece985d8e374c,65d2b8d30a1be52461736421,0.1144,0.1144,0,10,10,129,1,fiveseven,,,,,,,,,,,,,,,,,,,,,,,,,,,,,,,,,,,,,,,,,,,,,,,,,,,,,,,,,,,,,,,,,,,,,,,,,,,,,,,,,,,,,,,,,,,,,,,,,,,,,,,,,,,,,,,,,,,,,,,,,,,,,,,,,,,,,,,,,
,,59f66e4e8a2d3d00012c1540,2024-02-18_23h14.21.264,kallum_motion_pilot,2023.2.2,Win32,3.99840064,59f66e4e8a2d3d00012c1540,65d2b6c8f2eece985d8e374c,65d2b8d30a1be52461736421,0.1147,0.1147,0,11,11,155,1,sixeight,,,,,,,,,,,,,,,,,,,,,,,,,,,,,,,,,,,,,,,,,,,,,,,,,,,,,,,,,,,,,,,,,,,,,,,,,,,,,,,,,,,,,,,,,,,,,,,,,,,,,,,,,,,,,,,,,,,,,,,,,,,,,,,,,,,,,,,,,
,,59f66e4e8a2d3d00012c1540,2024-02-18_23h14.21.264,kallum_motion_pilot,2023.2.2,Win32,3.99840064,59f66e4e8a2d3d00012c1540,65d2b6c8f2eece985d8e374c,65d2b8d30a1be52461736421,0.1149,0.115,0,12,12,47,1,fourthree,,,,,,,,,,,,,,,,,,,,,,,,,,,,,,,,,,,,,,,,,,,,,,,,,,,,,,,,,,,,,,,,,,,,,,,,,,,,,,,,,,,,,,,,,,,,,,,,,,,,,,,,,,,,,,,,,,,,,,,,,,,,,,,,,,,,,,,,,
,,59f66e4e8a2d3d00012c1540,2024-02-18_23h14.21.264,kallum_motion_pilot,2023.2.2,Win32,3.99840064,59f66e4e8a2d3d00012c1540,65d2b6c8f2eece985d8e374c,65d2b8d30a1be52461736421,0.1151,0.1152,0,13,13,51,1,twofour,,,,,,,,,,,,,,,,,,,,,,,,,,,,,,,,,,,,,,,,,,,,,,,,,,,,,,,,,,,,,,,,,,,,,,,,,,,,,,,,,,,,,,,,,,,,,,,,,,,,,,,,,,,,,,,,,,,,,,,,,,,,,,,,,,,,,,,,,
,,59f66e4e8a2d3d00012c1540,2024-02-18_23h14.21.264,kallum_motion_pilot,2023.2.2,Win32,3.99840064,59f66e4e8a2d3d00012c1540,65d2b6c8f2eece985d8e374c,65d2b8d30a1be52461736421,0.1153,0.1154,0,14,14,50,1,twoone,,,,,,,,,,,,,,,,,,,,,,,,,,,,,,,,,,,,,,,,,,,,,,,,,,,,,,,,,,,,,,,,,,,,,,,,,,,,,,,,,,,,,,,,,,,,,,,,,,,,,,,,,,,,,,,,,,,,,,,,,,,,,,,,,,,,,,,,,
,,59f66e4e8a2d3d00012c1540,2024-02-18_23h14.21.264,kallum_motion_pilot,2023.2.2,Win32,3.99840064,59f66e4e8a2d3d00012c1540,65d2b6c8f2eece985d8e374c,65d2b8d30a1be52461736421,0.1156,0.1156,0,15,15,68,1,threeone,,,,,,,,,,,,,,,,,,,,,,,,,,,,,,,,,,,,,,,,,,,,,,,,,,,,,,,,,,,,,,,,,,,,,,,,,,,,,,,,,,,,,,,,,,,,,,,,,,,,,,,,,,,,,,,,,,,,,,,,,,,,,,,,,,,,,,,,,
,,59f66e4e8a2d3d00012c1540,2024-02-18_23h14.21.264,kallum_motion_pilot,2023.2.2,Win32,3.99840064,59f66e4e8a2d3d00012c1540,65d2b6c8f2eece985d8e374c,65d2b8d30a1be52461736421,0.1158,0.1158,0,16,16,19,1,twofour,,,,,,,,,,,,,,,,,,,,,,,,,,,,,,,,,,,,,,,,,,,,,,,,,,,,,,,,,,,,,,,,,,,,,,,,,,,,,,,,,,,,,,,,,,,,,,,,,,,,,,,,,,,,,,,,,,,,,,,,,,,,,,,,,,,,,,,,,
,,59f66e4e8a2d3d00012c1540,2024-02-18_23h14.21.264,kallum_motion_pilot,2023.2.2,Win32,3.99840064,59f66e4e8a2d3d00012c1540,65d2b6c8f2eece985d8e374c,65d2b8d30a1be52461736421,0.116,0.116,0,17,17,29,1,threefour,,,,,,,,,,,,,,,,,,,,,,,,,,,,,,,,,,,,,,,,,,,,,,,,,,,,,,,,,,,,,,,,,,,,,,,,,,,,,,,,,,,,,,,,,,,,,,,,,,,,,,,,,,,,,,,,,,,,,,,,,,,,,,,,,,,,,,,,,
,,59f66e4e8a2d3d00012c1540,2024-02-18_23h14.21.264,kallum_motion_pilot,2023.2.2,Win32,3.99840064,59f66e4e8a2d3d00012c1540,65d2b6c8f2eece985d8e374c,65d2b8d30a1be52461736421,0.1162,0.1163,0,18,18,115,1,sixeight,,,,,,,,,,,,,,,,,,,,,,,,,,,,,,,,,,,,,,,,,,,,,,,,,,,,,,,,,,,,,,,,,,,,,,,,,,,,,,,,,,,,,,,,,,,,,,,,,,,,,,,,,,,,,,,,,,,,,,,,,,,,,,,,,,,,,,,,,
,,59f66e4e8a2d3d00012c1540,2024-02-18_23h14.21.264,kallum_motion_pilot,2023.2.2,Win32,3.99840064,59f66e4e8a2d3d00012c1540,65d2b6c8f2eece985d8e374c,65d2b8d30a1be52461736421,0.1165,0.1166,0,19,19,102,1,eightsix,,,,,,,,,,,,,,,,,,,,,,,,,,,,,,,,,,,,,,,,,,,,,,,,,,,,,,,,,,,,,,,,,,,,,,,,,,,,,,,,,,,,,,,,,,,,,,,,,,,,,,,,,,,,,,,,,,,,,,,,,,,,,,,,,,,,,,,,,
,,59f66e4e8a2d3d00012c1540,2024-02-18_23h14.21.264,kallum_motion_pilot,2023.2.2,Win32,3.99840064,59f66e4e8a2d3d00012c1540,65d2b6c8f2eece985d8e374c,65d2b8d30a1be52461736421,0.1167,0.1168,0,20,20,159,1,eightseven,,,,,,,,,,,,,,,,,,,,,,,,,,,,,,,,,,,,,,,,,,,,,,,,,,,,,,,,,,,,,,,,,,,,,,,,,,,,,,,,,,,,,,,,,,,,,,,,,,,,,,,,,,,,,,,,,,,,,,,,,,,,,,,,,,,,,,,,,
,,59f66e4e8a2d3d00012c1540,2024-02-18_23h14.21.264,kallum_motion_pilot,2023.2.2,Win32,3.99840064,59f66e4e8a2d3d00012c1540,65d2b6c8f2eece985d8e374c,65d2b8d30a1be52461736421,0.1169,0.117,0,21,21,9,1,onethree,,,,,,,,,,,,,,,,,,,,,,,,,,,,,,,,,,,,,,,,,,,,,,,,,,,,,,,,,,,,,,,,,,,,,,,,,,,,,,,,,,,,,,,,,,,,,,,,,,,,,,,,,,,,,,,,,,,,,,,,,,,,,,,,,,,,,,,,,
,,59f66e4e8a2d3d00012c1540,2024-02-18_23h14.21.264,kallum_motion_pilot,2023.2.2,Win32,3.99840064,59f66e4e8a2d3d00012c1540,65d2b6c8f2eece985d8e374c,65d2b8d30a1be52461736421,0.1171,0.1173,0,22,22,99,1,sixeight,,,,,,,,,,,,,,,,,,,,,,,,,,,,,,,,,,,,,,,,,,,,,,,,,,,,,,,,,,,,,,,,,,,,,,,,,,,,,,,,,,,,,,,,,,,,,,,,,,,,,,,,,,,,,,,,,,,,,,,,,,,,,,,,,,,,,,,,,
,,59f66e4e8a2d3d00012c1540,2024-02-18_23h14.21.264,kallum_motion_pilot,2023.2.2,Win32,3.99840064,59f66e4e8a2d3d00012c1540,65d2b6c8f2eece985d8e374c,65d2b8d30a1be52461736421,0.1175,0.1175,0,23,23,35,1,twofour,,,,,,,,,,,,,,,,,,,,,,,,,,,,,,,,,,,,,,,,,,,,,,,,,,,,,,,,,,,,,,,,,,,,,,,,,,,,,,,,,,,,,,,,,,,,,,,,,,,,,,,,,,,,,,,,,,,,,,,,,,,,,,,,,,,,,,,,,
,,59f66e4e8a2d3d00012c1540,2024-02-18_23h14.21.264,kallum_motion_pilot,2023.2.2,Win32,3.99840064,59f66e4e8a2d3d00012c1540,65d2b6c8f2eece985d8e374c,65d2b8d30a1be52461736421,0.1177,0.1178,0,24,24,83,1,sixeight,,,,,,,,,,,,,,,,,,,,,,,,,,,,,,,,,,,,,,,,,,,,,,,,,,,,,,,,,,,,,,,,,,,,,,,,,,,,,,,,,,,,,,,,,,,,,,,,,,,,,,,,,,,,,,,,,,,,,,,,,,,,,,,,,,,,,,,,,
,,59f66e4e8a2d3d00012c1540,2024-02-18_23h14.21.264,kallum_motion_pilot,2023.2.2,Win32,3.99840064,59f66e4e8a2d3d00012c1540,65d2b6c8f2eece985d8e374c,65d2b8d30a1be52461736421,0.1181,0.1181,0,25,25,54,1,fourtwo,,,,,,,,,,,,,,,,,,,,,,,,,,,,,,,,,,,,,,,,,,,,,,,,,,,,,,,,,,,,,,,,,,,,,,,,,,,,,,,,,,,,,,,,,,,,,,,,,,,,,,,,,,,,,,,,,,,,,,,,,,,,,,,,,,,,,,,,,
,,59f66e4e8a2d3d00012c1540,2024-02-18_23h14.21.264,kallum_motion_pilot,2023.2.2,Win32,3.99840064,59f66e4e8a2d3d00012c1540,65d2b6c8f2eece985d8e374c,65d2b8d30a1be52461736421,0.1183,0.1184,0,26,26,104,1,fivesix,,,,,,,,,,,,,,,,,,,,,,,,,,,,,,,,,,,,,,,,,,,,,,,,,,,,,,,,,,,,,,,,,,,,,,,,,,,,,,,,,,,,,,,,,,,,,,,,,,,,,,,,,,,,,,,,,,,,,,,,,,,,,,,,,,,,,,,,,
,,59f66e4e8a2d3d00012c1540,2024-02-18_23h14.21.264,kallum_motion_pilot,2023.2.2,Win32,3.99840064,59f66e4e8a2d3d00012c1540,65d2b6c8f2eece985d8e374c,65d2b8d30a1be52461736421,0.1184,0.1185,0,27,27,160,1,fivesix,,,,,,,,,,,,,,,,,,,,,,,,,,,,,,,,,,,,,,,,,,,,,,,,,,,,,,,,,,,,,,,,,,,,,,,,,,,,,,,,,,,,,,,,,,,,,,,,,,,,,,,,,,,,,,,,,,,,,,,,,,,,,,,,,,,,,,,,,
,,59f66e4e8a2d3d00012c1540,2024-02-18_23h14.21.264,kallum_motion_pilot,2023.2.2,Win32,3.99840064,59f66e4e8a2d3d00012c1540,65d2b6c8f2eece985d8e374c,65d2b8d30a1be52461736421,0.1187,0.1187,0,28,28,73,1,onethree,,,,,,,,,,,,,,,,,,,,,,,,,,,,,,,,,,,,,,,,,,,,,,,,,,,,,,,,,,,,,,,,,,,,,,,,,,,,,,,,,,,,,,,,,,,,,,,,,,,,,,,,,,,,,,,,,,,,,,,,,,,,,,,,,,,,,,,,,
,,59f66e4e8a2d3d00012c1540,2024-02-18_23h14.21.264,kallum_motion_pilot,2023.2.2,Win32,3.99840064,59f66e4e8a2d3d00012c1540,65d2b6c8f2eece985d8e374c,65d2b8d30a1be52461736421,0.1189,0.119,0,29,29,36,1,threeone,,,,,,,,,,,,,,,,,,,,,,,,,,,,,,,,,,,,,,,,,,,,,,,,,,,,,,,,,,,,,,,,,,,,,,,,,,,,,,,,,,,,,,,,,,,,,,,,,,,,,,,,,,,,,,,,,,,,,,,,,,,,,,,,,,,,,,,,,
,,59f66e4e8a2d3d00012c1540,2024-02-18_23h14.21.264,kallum_motion_pilot,2023.2.2,Win32,3.99840064,59f66e4e8a2d3d00012c1540,65d2b6c8f2eece985d8e374c,65d2b8d30a1be52461736421,0.1192,0.1192,0,30,30,16,1,onetwo,,,,,,,,,,,,,,,,,,,,,,,,,,,,,,,,,,,,,,,,,,,,,,,,,,,,,,,,,,,,,,,,,,,,,,,,,,,,,,,,,,,,,,,,,,,,,,,,,,,,,,,,,,,,,,,,,,,,,,,,,,,,,,,,,,,,,,,,,
,,59f66e4e8a2d3d00012c1540,2024-02-18_23h14.21.264,kallum_motion_pilot,2023.2.2,Win32,3.99840064,59f66e4e8a2d3d00012c1540,65d2b6c8f2eece985d8e374c,65d2b8d30a1be52461736421,0.1194,0.1194,0,31,31,63,1,fourthree,,,,,,,,,,,,,,,,,,,,,,,,,,,,,,,,,,,,,,,,,,,,,,,,,,,,,,,,,,,,,,,,,,,,,,,,,,,,,,,,,,,,,,,,,,,,,,,,,,,,,,,,,,,,,,,,,,,,,,,,,,,,,,,,,,,,,,,,,
,,59f66e4e8a2d3d00012c1540,2024-02-18_23h14.21.264,kallum_motion_pilot,2023.2.2,Win32,3.99840064,59f66e4e8a2d3d00012c1540,65d2b6c8f2eece985d8e374c,65d2b8d30a1be52461736421,0.1196,0.1196,0,32,32,118,1,eightsix,,,,,,,,,,,,,,,,,,,,,,,,,,,,,,,,,,,,,,,,,,,,,,,,,,,,,,,,,,,,,,,,,,,,,,,,,,,,,,,,,,,,,,,,,,,,,,,,,,,,,,,,,,,,,,,,,,,,,,,,,,,,,,,,,,,,,,,,,
,,59f66e4e8a2d3d00012c1540,2024-02-18_23h14.21.264,kallum_motion_pilot,2023.2.2,Win32,3.99840064,59f66e4e8a2d3d00012c1540,65d2b6c8f2eece985d8e374c,65d2b8d30a1be52461736421,0.1198,0.1198,0,33,33,62,1,fourtwo,,,,,,,,,,,,,,,,,,,,,,,,,,,,,,,,,,,,,,,,,,,,,,,,,,,,,,,,,,,,,,,,,,,,,,,,,,,,,,,,,,,,,,,,,,,,,,,,,,,,,,,,,,,,,,,,,,,,,,,,,,,,,,,,,,,,,,,,,
,,59f66e4e8a2d3d00012c1540,2024-02-18_23h14.21.264,kallum_motion_pilot,2023.2.2,Win32,3.99840064,59f66e4e8a2d3d00012c1540,65d2b6c8f2eece985d8e374c,65d2b8d30a1be52461736421,0.1223,0.1227,0,34,34,70,1,fourtwo,,,,,,,,,,,,,,,,,,,,,,,,,,,,,,,,,,,,,,,,,,,,,,,,,,,,,,,,,,,,,,,,,,,,,,,,,,,,,,,,,,,,,,,,,,,,,,,,,,,,,,,,,,,,,,,,,,,,,,,,,,,,,,,,,,,,,,,,,
,,59f66e4e8a2d3d00012c1540,2024-02-18_23h14.21.264,kallum_motion_pilot,2023.2.2,Win32,3.99840064,59f66e4e8a2d3d00012c1540,65d2b6c8f2eece985d8e374c,65d2b8d30a1be52461736421,0.1231,0.1231,0,35,35,7,1,fourthree,,,,,,,,,,,,,,,,,,,,,,,,,,,,,,,,,,,,,,,,,,,,,,,,,,,,,,,,,,,,,,,,,,,,,,,,,,,,,,,,,,,,,,,,,,,,,,,,,,,,,,,,,,,,,,,,,,,,,,,,,,,,,,,,,,,,,,,,,
,,59f66e4e8a2d3d00012c1540,2024-02-18_23h14.21.264,kallum_motion_pilot,2023.2.2,Win32,3.99840064,59f66e4e8a2d3d00012c1540,65d2b6c8f2eece985d8e374c,65d2b8d30a1be52461736421,0.1234,0.1234,0,36,36,86,1,eightsix,,,,,,,,,,,,,,,,,,,,,,,,,,,,,,,,,,,,,,,,,,,,,,,,,,,,,,,,,,,,,,,,,,,,,,,,,,,,,,,,,,,,,,,,,,,,,,,,,,,,,,,,,,,,,,,,,,,,,,,,,,,,,,,,,,,,,,,,,
,,59f66e4e8a2d3d00012c1540,2024-02-18_23h14.21.264,kallum_motion_pilot,2023.2.2,Win32,3.99840064,59f66e4e8a2d3d00012c1540,65d2b6c8f2eece985d8e374c,65d2b8d30a1be52461736421,0.1236,0.1236,0,37,37,88,1,fivesix,,,,,,,,,,,,,,,,,,,,,,,,,,,,,,,,,,,,,,,,,,,,,,,,,,,,,,,,,,,,,,,,,,,,,,,,,,,,,,,,,,,,,,,,,,,,,,,,,,,,,,,,,,,,,,,,,,,,,,,,,,,,,,,,,,,,,,,,,
,,59f66e4e8a2d3d00012c1540,2024-02-18_23h14.21.264,kallum_motion_pilot,2023.2.2,Win32,3.99840064,59f66e4e8a2d3d00012c1540,65d2b6c8f2eece985d8e374c,65d2b8d30a1be52461736421,0.1238,0.1239,0,38,38,23,1,fourthree,,,,,,,,,,,,,,,,,,,,,,,,,,,,,,,,,,,,,,,,,,,,,,,,,,,,,,,,,,,,,,,,,,,,,,,,,,,,,,,,,,,,,,,,,,,,,,,,,,,,,,,,,,,,,,,,,,,,,,,,,,,,,,,,,,,,,,,,,
,,59f66e4e8a2d3d00012c1540,2024-02-18_23h14.21.264,kallum_motion_pilot,2023.2.2,Win32,3.99840064,59f66e4e8a2d3d00012c1540,65d2b6c8f2eece985d8e374c,65d2b8d30a1be52461736421,0.1241,0.1241,0,39,39,89,1,fiveseven,,,,,,,,,,,,,,,,,,,,,,,,,,,,,,,,,,,,,,,,,,,,,,,,,,,,,,,,,,,,,,,,,,,,,,,,,,,,,,,,,,,,,,,,,,,,,,,,,,,,,,,,,,,,,,,,,,,,,,,,,,,,,,,,,,,,,,,,,
,,59f66e4e8a2d3d00012c1540,2024-02-18_23h14.21.264,kallum_motion_pilot,2023.2.2,Win32,3.99840064,59f66e4e8a2d3d00012c1540,65d2b6c8f2eece985d8e374c,65d2b8d30a1be52461736421,0.1243,0.1244,0,40,40,38,1,fourtwo,,,,,,,,,,,,,,,,,,,,,,,,,,,,,,,,,,,,,,,,,,,,,,,,,,,,,,,,,,,,,,,,,,,,,,,,,,,,,,,,,,,,,,,,,,,,,,,,,,,,,,,,,,,,,,,,,,,,,,,,,,,,,,,,,,,,,,,,,
,,59f66e4e8a2d3d00012c1540,2024-02-18_23h14.21.264,kallum_motion_pilot,2023.2.2,Win32,3.99840064,59f66e4e8a2d3d00012c1540,65d2b6c8f2eece985d8e374c,65d2b8d30a1be52461736421,0.1245,0.1245,0,41,41,154,1,sixfive,,,,,,,,,,,,,,,,,,,,,,,,,,,,,,,,,,,,,,,,,,,,,,,,,,,,,,,,,,,,,,,,,,,,,,,,,,,,,,,,,,,,,,,,,,,,,,,,,,,,,,,,,,,,,,,,,,,,,,,,,,,,,,,,,,,,,,,,,
,,59f66e4e8a2d3d00012c1540,2024-02-18_23h14.21.264,kallum_motion_pilot,2023.2.2,Win32,3.99840064,59f66e4e8a2d3d00012c1540,65d2b6c8f2eece985d8e374c,65d2b8d30a1be52461736421,0.1247,0.1248,0,42,42,152,1,fivesix,,,,,,,,,,,,,,,,,,,,,,,,,,,,,,,,,,,,,,,,,,,,,,,,,,,,,,,,,,,,,,,,,,,,,,,,,,,,,,,,,,,,,,,,,,,,,,,,,,,,,,,,,,,,,,,,,,,,,,,,,,,,,,,,,,,,,,,,,
,,59f66e4e8a2d3d00012c1540,2024-02-18_23h14.21.264,kallum_motion_pilot,2023.2.2,Win32,3.99840064,59f66e4e8a2d3d00012c1540,65d2b6c8f2eece985d8e374c,65d2b8d30a1be52461736421,0.125,0.125,0,43,43,132,1,sevenfive,,,,,,,,,,,,,,,,,,,,,,,,,,,,,,,,,,,,,,,,,,,,,,,,,,,,,,,,,,,,,,,,,,,,,,,,,,,,,,,,,,,,,,,,,,,,,,,,,,,,,,,,,,,,,,,,,,,,,,,,,,,,,,,,,,,,,,,,,
,,59f66e4e8a2d3d00012c1540,2024-02-18_23h14.21.264,kallum_motion_pilot,2023.2.2,Win32,3.99840064,59f66e4e8a2d3d00012c1540,65d2b6c8f2eece985d8e374c,65d2b8d30a1be52461736421,0.1252,0.1252,0,44,44,67,1,twofour,,,,,,,,,,,,,,,,,,,,,,,,,,,,,,,,,,,,,,,,,,,,,,,,,,,,,,,,,,,,,,,,,,,,,,,,,,,,,,,,,,,,,,,,,,,,,,,,,,,,,,,,,,,,,,,,,,,,,,,,,,,,,,,,,,,,,,,,,
,,59f66e4e8a2d3d00012c1540,2024-02-18_23h14.21.264,kallum_motion_pilot,2023.2.2,Win32,3.99840064,59f66e4e8a2d3d00012c1540,65d2b6c8f2eece985d8e374c,65d2b8d30a1be52461736421,0.1254,0.1255,0,45,45,34,1,twoone,,,,,,,,,,,,,,,,,,,,,,,,,,,,,,,,,,,,,,,,,,,,,,,,,,,,,,,,,,,,,,,,,,,,,,,,,,,,,,,,,,,,,,,,,,,,,,,,,,,,,,,,,,,,,,,,,,,,,,,,,,,,,,,,,,,,,,,,,
,,59f66e4e8a2d3d00012c1540,2024-02-18_23h14.21.264,kallum_motion_pilot,2023.2.2,Win32,3.99840064,59f66e4e8a2d3d00012c1540,65d2b6c8f2eece985d8e374c,65d2b8d30a1be52461736421,0.1257,0.1257,0,46,46,25,1,onethree,,,,,,,,,,,,,,,,,,,,,,,,,,,,,,,,,,,,,,,,,,,,,,,,,,,,,,,,,,,,,,,,,,,,,,,,,,,,,,,,,,,,,,,,,,,,,,,,,,,,,,,,,,,,,,,,,,,,,,,,,,,,,,,,,,,,,,,,,
,,59f66e4e8a2d3d00012c1540,2024-02-18_23h14.21.264,kallum_motion_pilot,2023.2.2,Win32,3.99840064,59f66e4e8a2d3d00012c1540,65d2b6c8f2eece985d8e374c,65d2b8d30a1be52461736421,0.1258,0.126,0,47,47,141,1,seveneight,,,,,,,,,,,,,,,,,,,,,,,,,,,,,,,,,,,,,,,,,,,,,,,,,,,,,,,,,,,,,,,,,,,,,,,,,,,,,,,,,,,,,,,,,,,,,,,,,,,,,,,,,,,,,,,,,,,,,,,,,,,,,,,,,,,,,,,,,
,,59f66e4e8a2d3d00012c1540,2024-02-18_23h14.21.264,kallum_motion_pilot,2023.2.2,Win32,3.99840064,59f66e4e8a2d3d00012c1540,65d2b6c8f2eece985d8e374c,65d2b8d30a1be52461736421,0.1261,0.1262,0,48,48,96,1,fivesix,,,,,,,,,,,,,,,,,,,,,,,,,,,,,,,,,,,,,,,,,,,,,,,,,,,,,,,,,,,,,,,,,,,,,,,,,,,,,,,,,,,,,,,,,,,,,,,,,,,,,,,,,,,,,,,,,,,,,,,,,,,,,,,,,,,,,,,,,
,,59f66e4e8a2d3d00012c1540,2024-02-18_23h14.21.264,kallum_motion_pilot,2023.2.2,Win32,3.99840064,59f66e4e8a2d3d00012c1540,65d2b6c8f2eece985d8e374c,65d2b8d30a1be52461736421,0.1264,0.1264,0,49,49,79,1,eightseven,,,,,,,,,,,,,,,,,,,,,,,,,,,,,,,,,,,,,,,,,,,,,,,,,,,,,,,,,,,,,,,,,,,,,,,,,,,,,,,,,,,,,,,,,,,,,,,,,,,,,,,,,,,,,,,,,,,,,,,,,,,,,,,,,,,,,,,,,
,,59f66e4e8a2d3d00012c1540,2024-02-18_23h14.21.264,kallum_motion_pilot,2023.2.2,Win32,3.99840064,59f66e4e8a2d3d00012c1540,65d2b6c8f2eece985d8e374c,65d2b8d30a1be52461736421,0.1267,0.1267,0,50,50,157,1,seveneight,,,,,,,,,,,,,,,,,,,,,,,,,,,,,,,,,,,,,,,,,,,,,,,,,,,,,,,,,,,,,,,,,,,,,,,,,,,,,,,,,,,,,,,,,,,,,,,,,,,,,,,,,,,,,,,,,,,,,,,,,,,,,,,,,,,,,,,,,
,,59f66e4e8a2d3d00012c1540,2024-02-18_23h14.21.264,kallum_motion_pilot,2023.2.2,Win32,3.99840064,59f66e4e8a2d3d00012c1540,65d2b6c8f2eece985d8e374c,65d2b8d30a1be52461736421,0.1269,0.127,0,51,51,130,1,sixfive,,,,,,,,,,,,,,,,,,,,,,,,,,,,,,,,,,,,,,,,,,,,,,,,,,,,,,,,,,,,,,,,,,,,,,,,,,,,,,,,,,,,,,,,,,,,,,,,,,,,,,,,,,,,,,,,,,,,,,,,,,,,,,,,,,,,,,,,,
,,59f66e4e8a2d3d00012c1540,2024-02-18_23h14.21.264,kallum_motion_pilot,2023.2.2,Win32,3.99840064,59f66e4e8a2d3d00012c1540,65d2b6c8f2eece985d8e374c,65d2b8d30a1be52461736421,0.1272,0.1272,0,52,52,65,1,onethree,,,,,,,,,,,,,,,,,,,,,,,,,,,,,,,,,,,,,,,,,,,,,,,,,,,,,,,,,,,,,,,,,,,,,,,,,,,,,,,,,,,,,,,,,,,,,,,,,,,,,,,,,,,,,,,,,,,,,,,,,,,,,,,,,,,,,,,,,
,,59f66e4e8a2d3d00012c1540,2024-02-18_23h14.21.264,kallum_motion_pilot,2023.2.2,Win32,3.99840064,59f66e4e8a2d3d00012c1540,65d2b6c8f2eece985d8e374c,65d2b8d30a1be52461736421,0.1274,0.1275,0,53,53,142,1,eightsix,,,,,,,,,,,,,,,,,,,,,,,,,,,,,,,,,,,,,,,,,,,,,,,,,,,,,,,,,,,,,,,,,,,,,,,,,,,,,,,,,,,,,,,,,,,,,,,,,,,,,,,,,,,,,,,,,,,,,,,,,,,,,,,,,,,,,,,,,
,,59f66e4e8a2d3d00012c1540,2024-02-18_23h14.21.264,kallum_motion_pilot,2023.2.2,Win32,3.99840064,59f66e4e8a2d3d00012c1540,65d2b6c8f2eece985d8e374c,65d2b8d30a1be52461736421,0.1277,0.1278,0,54,54,27,1,twofour,,,,,,,,,,,,,,,,,,,,,,,,,,,,,,,,,,,,,,,,,,,,,,,,,,,,,,,,,,,,,,,,,,,,,,,,,,,,,,,,,,,,,,,,,,,,,,,,,,,,,,,,,,,,,,,,,,,,,,,,,,,,,,,,,,,,,,,,,
,,59f66e4e8a2d3d00012c1540,2024-02-18_23h14.21.264,kallum_motion_pilot,2023.2.2,Win32,3.99840064,59f66e4e8a2d3d00012c1540,65d2b6c8f2eece985d8e374c,65d2b8d30a1be52461736421,0.1279,0.128,0,55,55,49,1,onethree,,,,,,,,,,,,,,,,,,,,,,,,,,,,,,,,,,,,,,,,,,,,,,,,,,,,,,,,,,,,,,,,,,,,,,,,,,,,,,,,,,,,,,,,,,,,,,,,,,,,,,,,,,,,,,,,,,,,,,,,,,,,,,,,,,,,,,,,,
,,59f66e4e8a2d3d00012c1540,2024-02-18_23h14.21.264,kallum_motion_pilot,2023.2.2,Win32,3.99840064,59f66e4e8a2d3d00012c1540,65d2b6c8f2eece985d8e374c,65d2b8d30a1be52461736421,0.1282,0.1283,0,56,56,128,1,fivesix,,,,,,,,,,,,,,,,,,,,,,,,,,,,,,,,,,,,,,,,,,,,,,,,,,,,,,,,,,,,,,,,,,,,,,,,,,,,,,,,,,,,,,,,,,,,,,,,,,,,,,,,,,,,,,,,,,,,,,,,,,,,,,,,,,,,,,,,,
,,59f66e4e8a2d3d00012c1540,2024-02-18_23h14.21.264,kallum_motion_pilot,2023.2.2,Win32,3.99840064,59f66e4e8a2d3d00012c1540,65d2b6c8f2eece985d8e374c,65d2b8d30a1be52461736421,0.1284,0.1285,0,57,57,71,1,fourthree,,,,,,,,,,,,,,,,,,,,,,,,,,,,,,,,,,,,,,,,,,,,,,,,,,,,,,,,,,,,,,,,,,,,,,,,,,,,,,,,,,,,,,,,,,,,,,,,,,,,,,,,,,,,,,,,,,,,,,,,,,,,,,,,,,,,,,,,,
,,59f66e4e8a2d3d00012c1540,2024-02-18_23h14.21.264,kallum_motion_pilot,2023.2.2,Win32,3.99840064,59f66e4e8a2d3d00012c1540,65d2b6c8f2eece985d8e374c,65d2b8d30a1be52461736421,0.1287,0.1287,0,58,58,100,1,sevenfive,,,,,,,,,,,,,,,,,,,,,,,,,,,,,,,,,,,,,,,,,,,,,,,,,,,,,,,,,,,,,,,,,,,,,,,,,,,,,,,,,,,,,,,,,,,,,,,,,,,,,,,,,,,,,,,,,,,,,,,,,,,,,,,,,,,,,,,,,
,,59f66e4e8a2d3d00012c1540,2024-02-18_23h14.21.264,kallum_motion_pilot,2023.2.2,Win32,3.99840064,59f66e4e8a2d3d00012c1540,65d2b6c8f2eece985d8e374c,65d2b8d30a1be52461736421,0.1289,0.129,0,59,59,138,1,sixfive,,,,,,,,,,,,,,,,,,,,,,,,,,,,,,,,,,,,,,,,,,,,,,,,,,,,,,,,,,,,,,,,,,,,,,,,,,,,,,,,,,,,,,,,,,,,,,,,,,,,,,,,,,,,,,,,,,,,,,,,,,,,,,,,,,,,,,,,,
,,59f66e4e8a2d3d00012c1540,2024-02-18_23h14.21.264,kallum_motion_pilot,2023.2.2,Win32,3.99840064,59f66e4e8a2d3d00012c1540,65d2b6c8f2eece985d8e374c,65d2b8d30a1be52461736421,0.1292,0.1292,0,60,60,161,1,fiveseven,,,,,,,,,,,,,,,,,,,,,,,,,,,,,,,,,,,,,,,,,,,,,,,,,,,,,,,,,,,,,,,,,,,,,,,,,,,,,,,,,,,,,,,,,,,,,,,,,,,,,,,,,,,,,,,,,,,,,,,,,,,,,,,,,,,,,,,,,
,,59f66e4e8a2d3d00012c1540,2024-02-18_23h14.21.264,kallum_motion_pilot,2023.2.2,Win32,3.99840064,59f66e4e8a2d3d00012c1540,65d2b6c8f2eece985d8e374c,65d2b8d30a1be52461736421,0.1294,0.1295,0,61,61,125,1,seveneight,,,,,,,,,,,,,,,,,,,,,,,,,,,,,,,,,,,,,,,,,,,,,,,,,,,,,,,,,,,,,,,,,,,,,,,,,,,,,,,,,,,,,,,,,,,,,,,,,,,,,,,,,,,,,,,,,,,,,,,,,,,,,,,,,,,,,,,,,
,,59f66e4e8a2d3d00012c1540,2024-02-18_23h14.21.264,kallum_motion_pilot,2023.2.2,Win32,3.99840064,59f66e4e8a2d3d00012c1540,65d2b6c8f2eece985d8e374c,65d2b8d30a1be52461736421,0.1297,0.1298,0,62,62,123,1,sixeight,,,,,,,,,,,,,,,,,,,,,,,,,,,,,,,,,,,,,,,,,,,,,,,,,,,,,,,,,,,,,,,,,,,,,,,,,,,,,,,,,,,,,,,,,,,,,,,,,,,,,,,,,,,,,,,,,,,,,,,,,,,,,,,,,,,,,,,,,
,,59f66e4e8a2d3d00012c1540,2024-02-18_23h14.21.264,kallum_motion_pilot,2023.2.2,Win32,3.99840064,59f66e4e8a2d3d00012c1540,65d2b6c8f2eece985d8e374c,65d2b8d30a1be52461736421,0.1299,0.13,0,63,63,134,1,eightsix,,,,,,,,,,,,,,,,,,,,,,,,,,,,,,,,,,,,,,,,,,,,,,,,,,,,,,,,,,,,,,,,,,,,,,,,,,,,,,,,,,,,,,,,,,,,,,,,,,,,,,,,,,,,,,,,,,,,,,,,,,,,,,,,,,,,,,,,,
,,59f66e4e8a2d3d00012c1540,2024-02-18_23h14.21.264,kallum_motion_pilot,2023.2.2,Win32,3.99840064,59f66e4e8a2d3d00012c1540,65d2b6c8f2eece985d8e374c,65d2b8d30a1be52461736421,0.1303,0.1303,0,64,64,15,1,fourthree,,,,,,,,,,,,,,,,,,,,,,,,,,,,,,,,,,,,,,,,,,,,,,,,,,,,,,,,,,,,,,,,,,,,,,,,,,,,,,,,,,,,,,,,,,,,,,,,,,,,,,,,,,,,,,,,,,,,,,,,,,,,,,,,,,,,,,,,,
,,59f66e4e8a2d3d00012c1540,2024-02-18_23h14.21.264,kallum_motion_pilot,2023.2.2,Win32,3.99840064,59f66e4e8a2d3d00012c1540,65d2b6c8f2eece985d8e374c,65d2b8d30a1be52461736421,0.1305,0.1306,0,65,65,8,1,onetwo,,,,,,,,,,,,,,,,,,,,,,,,,,,,,,,,,,,,,,,,,,,,,,,,,,,,,,,,,,,,,,,,,,,,,,,,,,,,,,,,,,,,,,,,,,,,,,,,,,,,,,,,,,,,,,,,,,,,,,,,,,,,,,,,,,,,,,,,,
,,59f66e4e8a2d3d00012c1540,2024-02-18_23h14.21.264,kallum_motion_pilot,2023.2.2,Win32,3.99840064,59f66e4e8a2d3d00012c1540,65d2b6c8f2eece985d8e374c,65d2b8d30a1be52461736421,0.1308,0.1309,0,66,66,158,1,eightsix,,,,,,,,,,,,,,,,,,,,,,,,,,,,,,,,,,,,,,,,,,,,,,,,,,,,,,,,,,,,,,,,,,,,,,,,,,,,,,,,,,,,,,,,,,,,,,,,,,,,,,,,,,,,,,,,,,,,,,,,,,,,,,,,,,,,,,,,,
,,59f66e4e8a2d3d00012c1540,2024-02-18_23h14.21.264,kallum_motion_pilot,2023.2.2,Win32,3.99840064,59f66e4e8a2d3d00012c1540,65d2b6c8f2eece985d8e374c,65d2b8d30a1be52461736421,0.1311,0.1312,0,67,67,76,1,threeone,,,,,,,,,,,,,,,,,,,,,,,,,,,,,,,,,,,,,,,,,,,,,,,,,,,,,,,,,,,,,,,,,,,,,,,,,,,,,,,,,,,,,,,,,,,,,,,,,,,,,,,,,,,,,,,,,,,,,,,,,,,,,,,,,,,,,,,,,
,,59f66e4e8a2d3d00012c1540,2024-02-18_23h14.21.264,kallum_motion_pilot,2023.2.2,Win32,3.99840064,59f66e4e8a2d3d00012c1540,65d2b6c8f2eece985d8e374c,65d2b8d30a1be52461736421,0.1314,0.1315,0,68,68,14,1,fourtwo,,,,,,,,,,,,,,,,,,,,,,,,,,,,,,,,,,,,,,,,,,,,,,,,,,,,,,,,,,,,,,,,,,,,,,,,,,,,,,,,,,,,,,,,,,,,,,,,,,,,,,,,,,,,,,,,,,,,,,,,,,,,,,,,,,,,,,,,,
,,59f66e4e8a2d3d00012c1540,2024-02-18_23h14.21.264,kallum_motion_pilot,2023.2.2,Win32,3.99840064,59f66e4e8a2d3d00012c1540,65d2b6c8f2eece985d8e374c,65d2b8d30a1be52461736421,0.1317,0.1317,0,69,69,113,1,fiveseven,,,,,,,,,,,,,,,,,,,,,,,,,,,,,,,,,,,,,,,,,,,,,,,,,,,,,,,,,,,,,,,,,,,,,,,,,,,,,,,,,,,,,,,,,,,,,,,,,,,,,,,,,,,,,,,,,,,,,,,,,,,,,,,,,,,,,,,,,
,,59f66e4e8a2d3d00012c1540,2024-02-18_23h14.21.264,kallum_motion_pilot,2023.2.2,Win32,3.99840064,59f66e4e8a2d3d00012c1540,65d2b6c8f2eece985d8e374c,65d2b8d30a1be52461736421,0.1319,0.1321,0,70,70,56,1,onetwo,,,,,,,,,,,,,,,,,,,,,,,,,,,,,,,,,,,,,,,,,,,,,,,,,,,,,,,,,,,,,,,,,,,,,,,,,,,,,,,,,,,,,,,,,,,,,,,,,,,,,,,,,,,,,,,,,,,,,,,,,,,,,,,,,,,,,,,,,
,,59f66e4e8a2d3d00012c1540,2024-02-18_23h14.21.264,kallum_motion_pilot,2023.2.2,Win32,3.99840064,59f66e4e8a2d3d00012c1540,65d2b6c8f2eece985d8e374c,65d2b8d30a1be52461736421,0.1322,0.1323,0,71,71,77,1,threefour,,,,,,,,,,,,,,,,,,,,,,,,,,,,,,,,,,,,,,,,,,,,,,,,,,,,,,,,,,,,,,,,,,,,,,,,,,,,,,,,,,,,,,,,,,,,,,,,,,,,,,,,,,,,,,,,,,,,,,,,,,,,,,,,,,,,,,,,,
,,59f66e4e8a2d3d00012c1540,2024-02-18_23h14.21.264,kallum_motion_pilot,2023.2.2,Win32,3.99840064,59f66e4e8a2d3d00012c1540,65d2b6c8f2eece985d8e374c,65d2b8d30a1be52461736421,0.1325,0.1326,0,72,72,5,1,threefour,,,,,,,,,,,,,,,,,,,,,,,,,,,,,,,,,,,,,,,,,,,,,,,,,,,,,,,,,,,,,,,,,,,,,,,,,,,,,,,,,,,,,,,,,,,,,,,,,,,,,,,,,,,,,,,,,,,,,,,,,,,,,,,,,,,,,,,,,
,,59f66e4e8a2d3d00012c1540,2024-02-18_23h14.21.264,kallum_motion_pilot,2023.2.2,Win32,3.99840064,59f66e4e8a2d3d00012c1540,65d2b6c8f2eece985d8e374c,65d2b8d30a1be52461736421,0.1327,0.1328,0,73,73,52,1,threeone,,,,,,,,,,,,,,,,,,,,,,,,,,,,,,,,,,,,,,,,,,,,,,,,,,,,,,,,,,,,,,,,,,,,,,,,,,,,,,,,,,,,,,,,,,,,,,,,,,,,,,,,,,,,,,,,,,,,,,,,,,,,,,,,,,,,,,,,,
,,59f66e4e8a2d3d00012c1540,2024-02-18_23h14.21.264,kallum_motion_pilot,2023.2.2,Win32,3.99840064,59f66e4e8a2d3d00012c1540,65d2b6c8f2eece985d8e374c,65d2b8d30a1be52461736421,0.133,0.1331,0,74,74,72,1,onetwo,,,,,,,,,,,,,,,,,,,,,,,,,,,,,,,,,,,,,,,,,,,,,,,,,,,,,,,,,,,,,,,,,,,,,,,,,,,,,,,,,,,,,,,,,,,,,,,,,,,,,,,,,,,,,,,,,,,,,,,,,,,,,,,,,,,,,,,,,
,,59f66e4e8a2d3d00012c1540,2024-02-18_23h14.21.264,kallum_motion_pilot,2023.2.2,Win32,3.99840064,59f66e4e8a2d3d00012c1540,65d2b6c8f2eece985d8e374c,65d2b8d30a1be52461736421,0.1333,0.1334,0,75,75,84,1,sevenfive,,,,,,,,,,,,,,,,,,,,,,,,,,,,,,,,,,,,,,,,,,,,,,,,,,,,,,,,,,,,,,,,,,,,,,,,,,,,,,,,,,,,,,,,,,,,,,,,,,,,,,,,,,,,,,,,,,,,,,,,,,,,,,,,,,,,,,,,,
,,59f66e4e8a2d3d00012c1540,2024-02-18_23h14.21.264,kallum_motion_pilot,2023.2.2,Win32,3.99840064,59f66e4e8a2d3d00012c1540,65d2b6c8f2eece985d8e374c,65d2b8d30a1be52461736421,0.1335,0.1337,0,76,76,11,1,twofour,,,,,,,,,,,,,,,,,,,,,,,,,,,,,,,,,,,,,,,,,,,,,,,,,,,,,,,,,,,,,,,,,,,,,,,,,,,,,,,,,,,,,,,,,,,,,,,,,,,,,,,,,,,,,,,,,,,,,,,,,,,,,,,,,,,,,,,,,
,,59f66e4e8a2d3d00012c1540,2024-02-18_23h14.21.264,kallum_motion_pilot,2023.2.2,Win32,3.99840064,59f66e4e8a2d3d00012c1540,65d2b6c8f2eece985d8e374c,65d2b8d30a1be52461736421,0.1339,0.1341,0,77,77,61,1,threefour,,,,,,,,,,,,,,,,,,,,,,,,,,,,,,,,,,,,,,,,,,,,,,,,,,,,,,,,,,,,,,,,,,,,,,,,,,,,,,,,,,,,,,,,,,,,,,,,,,,,,,,,,,,,,,,,,,,,,,,,,,,,,,,,,,,,,,,,,
,,59f66e4e8a2d3d00012c1540,2024-02-18_23h14.21.264,kallum_motion_pilot,2023.2.2,Win32,3.99840064,59f66e4e8a2d3d00012c1540,65d2b6c8f2eece985d8e374c,65d2b8d30a1be52461736421,0.1342,0.1343,0,78,78,26,1,twoone,,,,,,,,,,,,,,,,,,,,,,,,,,,,,,,,,,,,,,,,,,,,,,,,,,,,,,,,,,,,,,,,,,,,,,,,,,,,,,,,,,,,,,,,,,,,,,,,,,,,,,,,,,,,,,,,,,,,,,,,,,,,,,,,,,,,,,,,,
,,59f66e4e8a2d3d00012c1540,2024-02-18_23h14.21.264,kallum_motion_pilot,2023.2.2,Win32,3.99840064,59f66e4e8a2d3d00012c1540,65d2b6c8f2eece985d8e374c,65d2b8d30a1be52461736421,0.1346,0.1347,0,79,79,40,1,onetwo,,,,,,,,,,,,,,,,,,,,,,,,,,,,,,,,,,,,,,,,,,,,,,,,,,,,,,,,,,,,,,,,,,,,,,,,,,,,,,,,,,,,,,,,,,,,,,,,,,,,,,,,,,,,,,,,,,,,,,,,,,,,,,,,,,,,,,,,,
,,59f66e4e8a2d3d00012c1540,2024-02-18_23h14.21.264,kallum_motion_pilot,2023.2.2,Win32,3.99840064,59f66e4e8a2d3d00012c1540,65d2b6c8f2eece985d8e374c,65d2b8d30a1be52461736421,0.1349,0.1349,0,80,80,78,1,fourtwo,,,,,,,,,,,,,,,,,,,,,,,,,,,,,,,,,,,,,,,,,,,,,,,,,,,,,,,,,,,,,,,,,,,,,,,,,,,,,,,,,,,,,,,,,,,,,,,,,,,,,,,,,,,,,,,,,,,,,,,,,,,,,,,,,,,,,,,,,
,,59f66e4e8a2d3d00012c1540,2024-02-18_23h14.21.264,kallum_motion_pilot,2023.2.2,Win32,3.99840064,59f66e4e8a2d3d00012c1540,65d2b6c8f2eece985d8e374c,65d2b8d30a1be52461736421,0.1351,0.1352,0,81,81,153,1,fiveseven,,,,,,,,,,,,,,,,,,,,,,,,,,,,,,,,,,,,,,,,,,,,,,,,,,,,,,,,,,,,,,,,,,,,,,,,,,,,,,,,,,,,,,,,,,,,,,,,,,,,,,,,,,,,,,,,,,,,,,,,,,,,,,,,,,,,,,,,,
,,59f66e4e8a2d3d00012c1540,2024-02-18_23h14.21.264,kallum_motion_pilot,2023.2.2,Win32,3.99840064,59f66e4e8a2d3d00012c1540,65d2b6c8f2eece985d8e374c,65d2b8d30a1be52461736421,0.1354,0.1354,0,82,82,43,1,twofour,,,,,,,,,,,,,,,,,,,,,,,,,,,,,,,,,,,,,,,,,,,,,,,,,,,,,,,,,,,,,,,,,,,,,,,,,,,,,,,,,,,,,,,,,,,,,,,,,,,,,,,,,,,,,,,,,,,,,,,,,,,,,,,,,,,,,,,,,
,,59f66e4e8a2d3d00012c1540,2024-02-18_23h14.21.264,kallum_motion_pilot,2023.2.2,Win32,3.99840064,59f66e4e8a2d3d00012c1540,65d2b6c8f2eece985d8e374c,65d2b8d30a1be52461736421,0.1356,0.1357,0,83,83,18,1,twoone,,,,,,,,,,,,,,,,,,,,,,,,,,,,,,,,,,,,,,,,,,,,,,,,,,,,,,,,,,,,,,,,,,,,,,,,,,,,,,,,,,,,,,,,,,,,,,,,,,,,,,,,,,,,,,,,,,,,,,,,,,,,,,,,,,,,,,,,,
,,59f66e4e8a2d3d00012c1540,2024-02-18_23h14.21.264,kallum_motion_pilot,2023.2.2,Win32,3.99840064,59f66e4e8a2d3d00012c1540,65d2b6c8f2eece985d8e374c,65d2b8d30a1be52461736421,0.1358,0.1359,0,84,84,3,1,twofour,,,,,,,,,,,,,,,,,,,,,,,,,,,,,,,,,,,,,,,,,,,,,,,,,,,,,,,,,,,,,,,,,,,,,,,,,,,,,,,,,,,,,,,,,,,,,,,,,,,,,,,,,,,,,,,,,,,,,,,,,,,,,,,,,,,,,,,,,
,,59f66e4e8a2d3d00012c1540,2024-02-18_23h14.21.264,kallum_motion_pilot,2023.2.2,Win32,3.99840064,59f66e4e8a2d3d00012c1540,65d2b6c8f2eece985d8e374c,65d2b8d30a1be52461736421,0.1361,0.1362,0,85,85,30,1,fourtwo,,,,,,,,,,,,,,,,,,,,,,,,,,,,,,,,,,,,,,,,,,,,,,,,,,,,,,,,,,,,,,,,,,,,,,,,,,,,,,,,,,,,,,,,,,,,,,,,,,,,,,,,,,,,,,,,,,,,,,,,,,,,,,,,,,,,,,,,,
,,59f66e4e8a2d3d00012c1540,2024-02-18_23h14.21.264,kallum_motion_pilot,2023.2.2,Win32,3.99840064,59f66e4e8a2d3d00012c1540,65d2b6c8f2eece985d8e374c,65d2b8d30a1be52461736421,0.1364,0.1365,0,86,86,139,1,sixeight,,,,,,,,,,,,,,,,,,,,,,,,,,,,,,,,,,,,,,,,,,,,,,,,,,,,,,,,,,,,,,,,,,,,,,,,,,,,,,,,,,,,,,,,,,,,,,,,,,,,,,,,,,,,,,,,,,,,,,,,,,,,,,,,,,,,,,,,,
,,59f66e4e8a2d3d00012c1540,2024-02-18_23h14.21.264,kallum_motion_pilot,2023.2.2,Win32,3.99840064,59f66e4e8a2d3d00012c1540,65d2b6c8f2eece985d8e374c,65d2b8d30a1be52461736421,0.1367,0.1368,0,87,87,10,1,twoone,,,,,,,,,,,,,,,,,,,,,,,,,,,,,,,,,,,,,,,,,,,,,,,,,,,,,,,,,,,,,,,,,,,,,,,,,,,,,,,,,,,,,,,,,,,,,,,,,,,,,,,,,,,,,,,,,,,,,,,,,,,,,,,,,,,,,,,,,
,,59f66e4e8a2d3d00012c1540,2024-02-18_23h14.21.264,kallum_motion_pilot,2023.2.2,Win32,3.99840064,59f66e4e8a2d3d00012c1540,65d2b6c8f2eece985d8e374c,65d2b8d30a1be52461736421,0.137,0.1371,0,88,88,57,1,onethree,,,,,,,,,,,,,,,,,,,,,,,,,,,,,,,,,,,,,,,,,,,,,,,,,,,,,,,,,,,,,,,,,,,,,,,,,,,,,,,,,,,,,,,,,,,,,,,,,,,,,,,,,,,,,,,,,,,,,,,,,,,,,,,,,,,,,,,,,
,,59f66e4e8a2d3d00012c1540,2024-02-18_23h14.21.264,kallum_motion_pilot,2023.2.2,Win32,3.99840064,59f66e4e8a2d3d00012c1540,65d2b6c8f2eece985d8e374c,65d2b8d30a1be52461736421,0.1372,0.1373,0,89,89,22,1,fourtwo,,,,,,,,,,,,,,,,,,,,,,,,,,,,,,,,,,,,,,,,,,,,,,,,,,,,,,,,,,,,,,,,,,,,,,,,,,,,,,,,,,,,,,,,,,,,,,,,,,,,,,,,,,,,,,,,,,,,,,,,,,,,,,,,,,,,,,,,,
,,59f66e4e8a2d3d00012c1540,2024-02-18_23h14.21.264,kallum_motion_pilot,2023.2.2,Win32,3.99840064,59f66e4e8a2d3d00012c1540,65d2b6c8f2eece985d8e374c,65d2b8d30a1be52461736421,0.1375,0.1376,0,90,90,144,1,fivesix,,,,,,,,,,,,,,,,,,,,,,,,,,,,,,,,,,,,,,,,,,,,,,,,,,,,,,,,,,,,,,,,,,,,,,,,,,,,,,,,,,,,,,,,,,,,,,,,,,,,,,,,,,,,,,,,,,,,,,,,,,,,,,,,,,,,,,,,,
,,59f66e4e8a2d3d00012c1540,2024-02-18_23h14.21.264,kallum_motion_pilot,2023.2.2,Win32,3.99840064,59f66e4e8a2d3d00012c1540,65d2b6c8f2eece985d8e374c,65d2b8d30a1be52461736421,0.1379,0.138,0,91,91,91,1,sixeight,,,,,,,,,,,,,,,,,,,,,,,,,,,,,,,,,,,,,,,,,,,,,,,,,,,,,,,,,,,,,,,,,,,,,,,,,,,,,,,,,,,,,,,,,,,,,,,,,,,,,,,,,,,,,,,,,,,,,,,,,,,,,,,,,,,,,,,,,
,,59f66e4e8a2d3d00012c1540,2024-02-18_23h14.21.264,kallum_motion_pilot,2023.2.2,Win32,3.99840064,59f66e4e8a2d3d00012c1540,65d2b6c8f2eece985d8e374c,65d2b8d30a1be52461736421,0.1383,0.1384,0,92,92,64,1,onetwo,,,,,,,,,,,,,,,,,,,,,,,,,,,,,,,,,,,,,,,,,,,,,,,,,,,,,,,,,,,,,,,,,,,,,,,,,,,,,,,,,,,,,,,,,,,,,,,,,,,,,,,,,,,,,,,,,,,,,,,,,,,,,,,,,,,,,,,,,
,,59f66e4e8a2d3d00012c1540,2024-02-18_23h14.21.264,kallum_motion_pilot,2023.2.2,Win32,3.99840064,59f66e4e8a2d3d00012c1540,65d2b6c8f2eece985d8e374c,65d2b8d30a1be52461736421,0.1392,0.1394,0,93,93,156,1,sevenfive,,,,,,,,,,,,,,,,,,,,,,,,,,,,,,,,,,,,,,,,,,,,,,,,,,,,,,,,,,,,,,,,,,,,,,,,,,,,,,,,,,,,,,,,,,,,,,,,,,,,,,,,,,,,,,,,,,,,,,,,,,,,,,,,,,,,,,,,,
,,59f66e4e8a2d3d00012c1540,2024-02-18_23h14.21.264,kallum_motion_pilot,2023.2.2,Win32,3.99840064,59f66e4e8a2d3d00012c1540,65d2b6c8f2eece985d8e374c,65d2b8d30a1be52461736421,0.14,0.1401,0,94,94,116,1,sevenfive,,,,,,,,,,,,,,,,,,,,,,,,,,,,,,,,,,,,,,,,,,,,,,,,,,,,,,,,,,,,,,,,,,,,,,,,,,,,,,,,,,,,,,,,,,,,,,,,,,,,,,,,,,,,,,,,,,,,,,,,,,,,,,,,,,,,,,,,,
,,59f66e4e8a2d3d00012c1540,2024-02-18_23h14.21.264,kallum_motion_pilot,2023.2.2,Win32,3.99840064,59f66e4e8a2d3d00012c1540,65d2b6c8f2eece985d8e374c,65d2b8d30a1be52461736421,0.1407,0.1408,0,95,95,131,1,sixeight,,,,,,,,,,,,,,,,,,,,,,,,,,,,,,,,,,,,,,,,,,,,,,,,,,,,,,,,,,,,,,,,,,,,,,,,,,,,,,,,,,,,,,,,,,,,,,,,,,,,,,,,,,,,,,,,,,,,,,,,,,,,,,,,,,,,,,,,,
,,59f66e4e8a2d3d00012c1540,2024-02-18_23h14.21.264,kallum_motion_pilot,2023.2.2,Win32,3.99840064,59f66e4e8a2d3d00012c1540,65d2b6c8f2eece985d8e374c,65d2b8d30a1be52461736421,0.1411,0.1412,0,96,96,124,1,sevenfive,,,,,,,,,,,,,,,,,,,,,,,,,,,,,,,,,,,,,,,,,,,,,,,,,,,,,,,,,,,,,,,,,,,,,,,,,,,,,,,,,,,,,,,,,,,,,,,,,,,,,,,,,,,,,,,,,,,,,,,,,,,,,,,,,,,,,,,,,
,,59f66e4e8a2d3d00012c1540,2024-02-18_23h14.21.264,kallum_motion_pilot,2023.2.2,Win32,3.99840064,59f66e4e8a2d3d00012c1540,65d2b6c8f2eece985d8e374c,65d2b8d30a1be52461736421,0.1415,0.1417,0,97,97,110,1,eightsix,,,,,,,,,,,,,,,,,,,,,,,,,,,,,,,,,,,,,,,,,,,,,,,,,,,,,,,,,,,,,,,,,,,,,,,,,,,,,,,,,,,,,,,,,,,,,,,,,,,,,,,,,,,,,,,,,,,,,,,,,,,,,,,,,,,,,,,,,
,,59f66e4e8a2d3d00012c1540,2024-02-18_23h14.21.264,kallum_motion_pilot,2023.2.2,Win32,3.99840064,59f66e4e8a2d3d00012c1540,65d2b6c8f2eece985d8e374c,65d2b8d30a1be52461736421,0.142,0.1422,0,98,98,117,1,seveneight,,,,,,,,,,,,,,,,,,,,,,,,,,,,,,,,,,,,,,,,,,,,,,,,,,,,,,,,,,,,,,,,,,,,,,,,,,,,,,,,,,,,,,,,,,,,,,,,,,,,,,,,,,,,,,,,,,,,,,,,,,,,,,,,,,,,,,,,,
,,59f66e4e8a2d3d00012c1540,2024-02-18_23h14.21.264,kallum_motion_pilot,2023.2.2,Win32,3.99840064,59f66e4e8a2d3d00012c1540,65d2b6c8f2eece985d8e374c,65d2b8d30a1be52461736421,0.1425,0.1426,0,99,99,146,1,sixfive,,,,,,,,,,,,,,,,,,,,,,,,,,,,,,,,,,,,,,,,,,,,,,,,,,,,,,,,,,,,,,,,,,,,,,,,,,,,,,,,,,,,,,,,,,,,,,,,,,,,,,,,,,,,,,,,,,,,,,,,,,,,,,,,,,,,,,,,,
,,59f66e4e8a2d3d00012c1540,2024-02-18_23h14.21.264,kallum_motion_pilot,2023.2.2,Win32,3.99840064,59f66e4e8a2d3d00012c1540,65d2b6c8f2eece985d8e374c,65d2b8d30a1be52461736421,0.1429,0.143,0,100,100,59,1,twofour,,,,,,,,,,,,,,,,,,,,,,,,,,,,,,,,,,,,,,,,,,,,,,,,,,,,,,,,,,,,,,,,,,,,,,,,,,,,,,,,,,,,,,,,,,,,,,,,,,,,,,,,,,,,,,,,,,,,,,,,,,,,,,,,,,,,,,,,,
,,59f66e4e8a2d3d00012c1540,2024-02-18_23h14.21.264,kallum_motion_pilot,2023.2.2,Win32,3.99840064,59f66e4e8a2d3d00012c1540,65d2b6c8f2eece985d8e374c,65d2b8d30a1be52461736421,0.1432,0.1434,0,101,101,20,1,threeone,,,,,,,,,,,,,,,,,,,,,,,,,,,,,,,,,,,,,,,,,,,,,,,,,,,,,,,,,,,,,,,,,,,,,,,,,,,,,,,,,,,,,,,,,,,,,,,,,,,,,,,,,,,,,,,,,,,,,,,,,,,,,,,,,,,,,,,,,
,,59f66e4e8a2d3d00012c1540,2024-02-18_23h14.21.264,kallum_motion_pilot,2023.2.2,Win32,3.99840064,59f66e4e8a2d3d00012c1540,65d2b6c8f2eece985d8e374c,65d2b8d30a1be52461736421,0.1437,0.1439,0,102,102,45,1,threefour,,,,,,,,,,,,,,,,,,,,,,,,,,,,,,,,,,,,,,,,,,,,,,,,,,,,,,,,,,,,,,,,,,,,,,,,,,,,,,,,,,,,,,,,,,,,,,,,,,,,,,,,,,,,,,,,,,,,,,,,,,,,,,,,,,,,,,,,,
,,59f66e4e8a2d3d00012c1540,2024-02-18_23h14.21.264,kallum_motion_pilot,2023.2.2,Win32,3.99840064,59f66e4e8a2d3d00012c1540,65d2b6c8f2eece985d8e374c,65d2b8d30a1be52461736421,0.1442,0.1444,0,103,103,108,1,sevenfive,,,,,,,,,,,,,,,,,,,,,,,,,,,,,,,,,,,,,,,,,,,,,,,,,,,,,,,,,,,,,,,,,,,,,,,,,,,,,,,,,,,,,,,,,,,,,,,,,,,,,,,,,,,,,,,,,,,,,,,,,,,,,,,,,,,,,,,,,
,,59f66e4e8a2d3d00012c1540,2024-02-18_23h14.21.264,kallum_motion_pilot,2023.2.2,Win32,3.99840064,59f66e4e8a2d3d00012c1540,65d2b6c8f2eece985d8e374c,65d2b8d30a1be52461736421,0.1464,0.1466,0,104,104,48,1,onetwo,,,,,,,,,,,,,,,,,,,,,,,,,,,,,,,,,,,,,,,,,,,,,,,,,,,,,,,,,,,,,,,,,,,,,,,,,,,,,,,,,,,,,,,,,,,,,,,,,,,,,,,,,,,,,,,,,,,,,,,,,,,,,,,,,,,,,,,,,
,,59f66e4e8a2d3d00012c1540,2024-02-18_23h14.21.264,kallum_motion_pilot,2023.2.2,Win32,3.99840064,59f66e4e8a2d3d00012c1540,65d2b6c8f2eece985d8e374c,65d2b8d30a1be52461736421,0.147,0.147,0,105,105,101,1,seveneight,,,,,,,,,,,,,,,,,,,,,,,,,,,,,,,,,,,,,,,,,,,,,,,,,,,,,,,,,,,,,,,,,,,,,,,,,,,,,,,,,,,,,,,,,,,,,,,,,,,,,,,,,,,,,,,,,,,,,,,,,,,,,,,,,,,,,,,,,
,,59f66e4e8a2d3d00012c1540,2024-02-18_23h14.21.264,kallum_motion_pilot,2023.2.2,Win32,3.99840064,59f66e4e8a2d3d00012c1540,65d2b6c8f2eece985d8e374c,65d2b8d30a1be52461736421,0.1473,0.1475,0,106,106,103,1,eightseven,,,,,,,,,,,,,,,,,,,,,,,,,,,,,,,,,,,,,,,,,,,,,,,,,,,,,,,,,,,,,,,,,,,,,,,,,,,,,,,,,,,,,,,,,,,,,,,,,,,,,,,,,,,,,,,,,,,,,,,,,,,,,,,,,,,,,,,,,
,,59f66e4e8a2d3d00012c1540,2024-02-18_23h14.21.264,kallum_motion_pilot,2023.2.2,Win32,3.99840064,59f66e4e8a2d3d00012c1540,65d2b6c8f2eece985d8e374c,65d2b8d30a1be52461736421,0.1476,0.1478,0,107,107,82,1,sixfive,,,,,,,,,,,,,,,,,,,,,,,,,,,,,,,,,,,,,,,,,,,,,,,,,,,,,,,,,,,,,,,,,,,,,,,,,,,,,,,,,,,,,,,,,,,,,,,,,,,,,,,,,,,,,,,,,,,,,,,,,,,,,,,,,,,,,,,,,
,,59f66e4e8a2d3d00012c1540,2024-02-18_23h14.21.264,kallum_motion_pilot,2023.2.2,Win32,3.99840064,59f66e4e8a2d3d00012c1540,65d2b6c8f2eece985d8e374c,65d2b8d30a1be52461736421,0.1479,0.148,0,108,108,147,1,sixeight,,,,,,,,,,,,,,,,,,,,,,,,,,,,,,,,,,,,,,,,,,,,,,,,,,,,,,,,,,,,,,,,,,,,,,,,,,,,,,,,,,,,,,,,,,,,,,,,,,,,,,,,,,,,,,,,,,,,,,,,,,,,,,,,,,,,,,,,,
,,59f66e4e8a2d3d00012c1540,2024-02-18_23h14.21.264,kallum_motion_pilot,2023.2.2,Win32,3.99840064,59f66e4e8a2d3d00012c1540,65d2b6c8f2eece985d8e374c,65d2b8d30a1be52461736421,0.1482,0.1483,0,109,109,119,1,eightseven,,,,,,,,,,,,,,,,,,,,,,,,,,,,,,,,,,,,,,,,,,,,,,,,,,,,,,,,,,,,,,,,,,,,,,,,,,,,,,,,,,,,,,,,,,,,,,,,,,,,,,,,,,,,,,,,,,,,,,,,,,,,,,,,,,,,,,,,,
,,59f66e4e8a2d3d00012c1540,2024-02-18_23h14.21.264,kallum_motion_pilot,2023.2.2,Win32,3.99840064,59f66e4e8a2d3d00012c1540,65d2b6c8f2eece985d8e374c,65d2b8d30a1be52461736421,0.1484,0.1486,0,110,110,105,1,fiveseven,,,,,,,,,,,,,,,,,,,,,,,,,,,,,,,,,,,,,,,,,,,,,,,,,,,,,,,,,,,,,,,,,,,,,,,,,,,,,,,,,,,,,,,,,,,,,,,,,,,,,,,,,,,,,,,,,,,,,,,,,,,,,,,,,,,,,,,,,
,,59f66e4e8a2d3d00012c1540,2024-02-18_23h14.21.264,kallum_motion_pilot,2023.2.2,Win32,3.99840064,59f66e4e8a2d3d00012c1540,65d2b6c8f2eece985d8e374c,65d2b8d30a1be52461736421,0.1488,0.1488,0,111,111,74,1,twoone,,,,,,,,,,,,,,,,,,,,,,,,,,,,,,,,,,,,,,,,,,,,,,,,,,,,,,,,,,,,,,,,,,,,,,,,,,,,,,,,,,,,,,,,,,,,,,,,,,,,,,,,,,,,,,,,,,,,,,,,,,,,,,,,,,,,,,,,,
,,59f66e4e8a2d3d00012c1540,2024-02-18_23h14.21.264,kallum_motion_pilot,2023.2.2,Win32,3.99840064,59f66e4e8a2d3d00012c1540,65d2b6c8f2eece985d8e374c,65d2b8d30a1be52461736421,0.149,0.149,0,112,112,148,1,sevenfive,,,,,,,,,,,,,,,,,,,,,,,,,,,,,,,,,,,,,,,,,,,,,,,,,,,,,,,,,,,,,,,,,,,,,,,,,,,,,,,,,,,,,,,,,,,,,,,,,,,,,,,,,,,,,,,,,,,,,,,,,,,,,,,,,,,,,,,,,
,,59f66e4e8a2d3d00012c1540,2024-02-18_23h14.21.264,kallum_motion_pilot,2023.2.2,Win32,3.99840064,59f66e4e8a2d3d00012c1540,65d2b6c8f2eece985d8e374c,65d2b8d30a1be52461736421,0.1492,0.1493,0,113,113,151,1,eightseven,,,,,,,,,,,,,,,,,,,,,,,,,,,,,,,,,,,,,,,,,,,,,,,,,,,,,,,,,,,,,,,,,,,,,,,,,,,,,,,,,,,,,,,,,,,,,,,,,,,,,,,,,,,,,,,,,,,,,,,,,,,,,,,,,,,,,,,,,
,,59f66e4e8a2d3d00012c1540,2024-02-18_23h14.21.264,kallum_motion_pilot,2023.2.2,Win32,3.99840064,59f66e4e8a2d3d00012c1540,65d2b6c8f2eece985d8e374c,65d2b8d30a1be52461736421,0.1495,0.1496,0,114,114,133,1,seveneight,,,,,,,,,,,,,,,,,,,,,,,,,,,,,,,,,,,,,,,,,,,,,,,,,,,,,,,,,,,,,,,,,,,,,,,,,,,,,,,,,,,,,,,,,,,,,,,,,,,,,,,,,,,,,,,,,,,,,,,,,,,,,,,,,,,,,,,,,
,,59f66e4e8a2d3d00012c1540,2024-02-18_23h14.21.264,kallum_motion_pilot,2023.2.2,Win32,3.99840064,59f66e4e8a2d3d00012c1540,65d2b6c8f2eece985d8e374c,65d2b8d30a1be52461736421,0.1497,0.1499,0,115,115,126,1,eightsix,,,,,,,,,,,,,,,,,,,,,,,,,,,,,,,,,,,,,,,,,,,,,,,,,,,,,,,,,,,,,,,,,,,,,,,,,,,,,,,,,,,,,,,,,,,,,,,,,,,,,,,,,,,,,,,,,,,,,,,,,,,,,,,,,,,,,,,,,
,,59f66e4e8a2d3d00012c1540,2024-02-18_23h14.21.264,kallum_motion_pilot,2023.2.2,Win32,3.99840064,59f66e4e8a2d3d00012c1540,65d2b6c8f2eece985d8e374c,65d2b8d30a1be52461736421,0.1499,0.1501,0,116,116,37,1,threefour,,,,,,,,,,,,,,,,,,,,,,,,,,,,,,,,,,,,,,,,,,,,,,,,,,,,,,,,,,,,,,,,,,,,,,,,,,,,,,,,,,,,,,,,,,,,,,,,,,,,,,,,,,,,,,,,,,,,,,,,,,,,,,,,,,,,,,,,,
,,59f66e4e8a2d3d00012c1540,2024-02-18_23h14.21.264,kallum_motion_pilot,2023.2.2,Win32,3.99840064,59f66e4e8a2d3d00012c1540,65d2b6c8f2eece985d8e374c,65d2b8d30a1be52461736421,0.1502,0.1503,0,117,117,42,1,twoone,,,,,,,,,,,,,,,,,,,,,,,,,,,,,,,,,,,,,,,,,,,,,,,,,,,,,,,,,,,,,,,,,,,,,,,,,,,,,,,,,,,,,,,,,,,,,,,,,,,,,,,,,,,,,,,,,,,,,,,,,,,,,,,,,,,,,,,,,
,,59f66e4e8a2d3d00012c1540,2024-02-18_23h14.21.264,kallum_motion_pilot,2023.2.2,Win32,3.99840064,59f66e4e8a2d3d00012c1540,65d2b6c8f2eece985d8e374c,65d2b8d30a1be52461736421,0.1505,0.1506,0,118,118,135,1,eightseven,,,,,,,,,,,,,,,,,,,,,,,,,,,,,,,,,,,,,,,,,,,,,,,,,,,,,,,,,,,,,,,,,,,,,,,,,,,,,,,,,,,,,,,,,,,,,,,,,,,,,,,,,,,,,,,,,,,,,,,,,,,,,,,,,,,,,,,,,
,,59f66e4e8a2d3d00012c1540,2024-02-18_23h14.21.264,kallum_motion_pilot,2023.2.2,Win32,3.99840064,59f66e4e8a2d3d00012c1540,65d2b6c8f2eece985d8e374c,65d2b8d30a1be52461736421,0.1507,0.1509,0,119,119,81,1,fiveseven,,,,,,,,,,,,,,,,,,,,,,,,,,,,,,,,,,,,,,,,,,,,,,,,,,,,,,,,,,,,,,,,,,,,,,,,,,,,,,,,,,,,,,,,,,,,,,,,,,,,,,,,,,,,,,,,,,,,,,,,,,,,,,,,,,,,,,,,,
,,59f66e4e8a2d3d00012c1540,2024-02-18_23h14.21.264,kallum_motion_pilot,2023.2.2,Win32,3.99840064,59f66e4e8a2d3d00012c1540,65d2b6c8f2eece985d8e374c,65d2b8d30a1be52461736421,0.151,0.1511,0,120,120,66,1,twoone,,,,,,,,,,,,,,,,,,,,,,,,,,,,,,,,,,,,,,,,,,,,,,,,,,,,,,,,,,,,,,,,,,,,,,,,,,,,,,,,,,,,,,,,,,,,,,,,,,,,,,,,,,,,,,,,,,,,,,,,,,,,,,,,,,,,,,,,,
,,59f66e4e8a2d3d00012c1540,2024-02-18_23h14.21.264,kallum_motion_pilot,2023.2.2,Win32,3.99840064,59f66e4e8a2d3d00012c1540,65d2b6c8f2eece985d8e374c,65d2b8d30a1be52461736421,0.1513,0.1514,0,121,121,120,1,fivesix,,,,,,,,,,,,,,,,,,,,,,,,,,,,,,,,,,,,,,,,,,,,,,,,,,,,,,,,,,,,,,,,,,,,,,,,,,,,,,,,,,,,,,,,,,,,,,,,,,,,,,,,,,,,,,,,,,,,,,,,,,,,,,,,,,,,,,,,,
,,59f66e4e8a2d3d00012c1540,2024-02-18_23h14.21.264,kallum_motion_pilot,2023.2.2,Win32,3.99840064,59f66e4e8a2d3d00012c1540,65d2b6c8f2eece985d8e374c,65d2b8d30a1be52461736421,0.1516,0.1518,0,122,122,44,1,threeone,,,,,,,,,,,,,,,,,,,,,,,,,,,,,,,,,,,,,,,,,,,,,,,,,,,,,,,,,,,,,,,,,,,,,,,,,,,,,,,,,,,,,,,,,,,,,,,,,,,,,,,,,,,,,,,,,,,,,,,,,,,,,,,,,,,,,,,,,
,,59f66e4e8a2d3d00012c1540,2024-02-18_23h14.21.264,kallum_motion_pilot,2023.2.2,Win32,3.99840064,59f66e4e8a2d3d00012c1540,65d2b6c8f2eece985d8e374c,65d2b8d30a1be52461736421,0.1519,0.152,0,123,123,6,1,fourtwo,,,,,,,,,,,,,,,,,,,,,,,,,,,,,,,,,,,,,,,,,,,,,,,,,,,,,,,,,,,,,,,,,,,,,,,,,,,,,,,,,,,,,,,,,,,,,,,,,,,,,,,,,,,,,,,,,,,,,,,,,,,,,,,,,,,,,,,,,
,,59f66e4e8a2d3d00012c1540,2024-02-18_23h14.21.264,kallum_motion_pilot,2023.2.2,Win32,3.99840064,59f66e4e8a2d3d00012c1540,65d2b6c8f2eece985d8e374c,65d2b8d30a1be52461736421,0.1522,0.1524,0,124,124,149,1,seveneight,,,,,,,,,,,,,,,,,,,,,,,,,,,,,,,,,,,,,,,,,,,,,,,,,,,,,,,,,,,,,,,,,,,,,,,,,,,,,,,,,,,,,,,,,,,,,,,,,,,,,,,,,,,,,,,,,,,,,,,,,,,,,,,,,,,,,,,,,
,,59f66e4e8a2d3d00012c1540,2024-02-18_23h14.21.264,kallum_motion_pilot,2023.2.2,Win32,3.99840064,59f66e4e8a2d3d00012c1540,65d2b6c8f2eece985d8e374c,65d2b8d30a1be52461736421,0.1525,0.1527,0,125,125,112,1,fivesix,,,,,,,,,,,,,,,,,,,,,,,,,,,,,,,,,,,,,,,,,,,,,,,,,,,,,,,,,,,,,,,,,,,,,,,,,,,,,,,,,,,,,,,,,,,,,,,,,,,,,,,,,,,,,,,,,,,,,,,,,,,,,,,,,,,,,,,,,
,,59f66e4e8a2d3d00012c1540,2024-02-18_23h14.21.264,kallum_motion_pilot,2023.2.2,Win32,3.99840064,59f66e4e8a2d3d00012c1540,65d2b6c8f2eece985d8e374c,65d2b8d30a1be52461736421,0.1529,0.153,0,126,126,97,1,fiveseven,,,,,,,,,,,,,,,,,,,,,,,,,,,,,,,,,,,,,,,,,,,,,,,,,,,,,,,,,,,,,,,,,,,,,,,,,,,,,,,,,,,,,,,,,,,,,,,,,,,,,,,,,,,,,,,,,,,,,,,,,,,,,,,,,,,,,,,,,
,,59f66e4e8a2d3d00012c1540,2024-02-18_23h14.21.264,kallum_motion_pilot,2023.2.2,Win32,3.99840064,59f66e4e8a2d3d00012c1540,65d2b6c8f2eece985d8e374c,65d2b8d30a1be52461736421,0.1532,0.1533,0,127,127,145,1,fiveseven,,,,,,,,,,,,,,,,,,,,,,,,,,,,,,,,,,,,,,,,,,,,,,,,,,,,,,,,,,,,,,,,,,,,,,,,,,,,,,,,,,,,,,,,,,,,,,,,,,,,,,,,,,,,,,,,,,,,,,,,,,,,,,,,,,,,,,,,,
,,59f66e4e8a2d3d00012c1540,2024-02-18_23h14.21.264,kallum_motion_pilot,2023.2.2,Win32,3.99840064,59f66e4e8a2d3d00012c1540,65d2b6c8f2eece985d8e374c,65d2b8d30a1be52461736421,0.1534,0.1535,0,128,128,13,1,threefour,,,,,,,,,,,,,,,,,,,,,,,,,,,,,,,,,,,,,,,,,,,,,,,,,,,,,,,,,,,,,,,,,,,,,,,,,,,,,,,,,,,,,,,,,,,,,,,,,,,,,,,,,,,,,,,,,,,,,,,,,,,,,,,,,,,,,,,,,
,,59f66e4e8a2d3d00012c1540,2024-02-18_23h14.21.264,kallum_motion_pilot,2023.2.2,Win32,3.99840064,59f66e4e8a2d3d00012c1540,65d2b6c8f2eece985d8e374c,65d2b8d30a1be52461736421,0.1537,0.1538,0,129,129,75,1,twofour,,,,,,,,,,,,,,,,,,,,,,,,,,,,,,,,,,,,,,,,,,,,,,,,,,,,,,,,,,,,,,,,,,,,,,,,,,,,,,,,,,,,,,,,,,,,,,,,,,,,,,,,,,,,,,,,,,,,,,,,,,,,,,,,,,,,,,,,,
,,59f66e4e8a2d3d00012c1540,2024-02-18_23h14.21.264,kallum_motion_pilot,2023.2.2,Win32,3.99840064,59f66e4e8a2d3d00012c1540,65d2b6c8f2eece985d8e374c,65d2b8d30a1be52461736421,0.154,0.1541,0,130,130,127,1,eightseven,,,,,,,,,,,,,,,,,,,,,,,,,,,,,,,,,,,,,,,,,,,,,,,,,,,,,,,,,,,,,,,,,,,,,,,,,,,,,,,,,,,,,,,,,,,,,,,,,,,,,,,,,,,,,,,,,,,,,,,,,,,,,,,,,,,,,,,,,
,,59f66e4e8a2d3d00012c1540,2024-02-18_23h14.21.264,kallum_motion_pilot,2023.2.2,Win32,3.99840064,59f66e4e8a2d3d00012c1540,65d2b6c8f2eece985d8e374c,65d2b8d30a1be52461736421,0.1542,0.1543,0,131,131,39,1,fourthree,,,,,,,,,,,,,,,,,,,,,,,,,,,,,,,,,,,,,,,,,,,,,,,,,,,,,,,,,,,,,,,,,,,,,,,,,,,,,,,,,,,,,,,,,,,,,,,,,,,,,,,,,,,,,,,,,,,,,,,,,,,,,,,,,,,,,,,,,
,,59f66e4e8a2d3d00012c1540,2024-02-18_23h14.21.264,kallum_motion_pilot,2023.2.2,Win32,3.99840064,59f66e4e8a2d3d00012c1540,65d2b6c8f2eece985d8e374c,65d2b8d30a1be52461736421,0.1545,0.1546,0,132,132,90,1,sixfive,,,,,,,,,,,,,,,,,,,,,,,,,,,,,,,,,,,,,,,,,,,,,,,,,,,,,,,,,,,,,,,,,,,,,,,,,,,,,,,,,,,,,,,,,,,,,,,,,,,,,,,,,,,,,,,,,,,,,,,,,,,,,,,,,,,,,,,,,
,,59f66e4e8a2d3d00012c1540,2024-02-18_23h14.21.264,kallum_motion_pilot,2023.2.2,Win32,3.99840064,59f66e4e8a2d3d00012c1540,65d2b6c8f2eece985d8e374c,65d2b8d30a1be52461736421,0.1548,0.1549,0,133,133,53,1,threefour,,,,,,,,,,,,,,,,,,,,,,,,,,,,,,,,,,,,,,,,,,,,,,,,,,,,,,,,,,,,,,,,,,,,,,,,,,,,,,,,,,,,,,,,,,,,,,,,,,,,,,,,,,,,,,,,,,,,,,,,,,,,,,,,,,,,,,,,,
,,59f66e4e8a2d3d00012c1540,2024-02-18_23h14.21.264,kallum_motion_pilot,2023.2.2,Win32,3.99840064,59f66e4e8a2d3d00012c1540,65d2b6c8f2eece985d8e374c,65d2b8d30a1be52461736421,0.155,0.1552,0,134,134,12,1,threeone,,,,,,,,,,,,,,,,,,,,,,,,,,,,,,,,,,,,,,,,,,,,,,,,,,,,,,,,,,,,,,,,,,,,,,,,,,,,,,,,,,,,,,,,,,,,,,,,,,,,,,,,,,,,,,,,,,,,,,,,,,,,,,,,,,,,,,,,,
,,59f66e4e8a2d3d00012c1540,2024-02-18_23h14.21.264,kallum_motion_pilot,2023.2.2,Win32,3.99840064,59f66e4e8a2d3d00012c1540,65d2b6c8f2eece985d8e374c,65d2b8d30a1be52461736421,0.1554,0.1555,0,135,135,2,1,twoone,,,,,,,,,,,,,,,,,,,,,,,,,,,,,,,,,,,,,,,,,,,,,,,,,,,,,,,,,,,,,,,,,,,,,,,,,,,,,,,,,,,,,,,,,,,,,,,,,,,,,,,,,,,,,,,,,,,,,,,,,,,,,,,,,,,,,,,,,
,,59f66e4e8a2d3d00012c1540,2024-02-18_23h14.21.264,kallum_motion_pilot,2023.2.2,Win32,3.99840064,59f66e4e8a2d3d00012c1540,65d2b6c8f2eece985d8e374c,65d2b8d30a1be52461736421,0.1559,0.1561,0,136,136,94,1,eightsix,,,,,,,,,,,,,,,,,,,,,,,,,,,,,,,,,,,,,,,,,,,,,,,,,,,,,,,,,,,,,,,,,,,,,,,,,,,,,,,,,,,,,,,,,,,,,,,,,,,,,,,,,,,,,,,,,,,,,,,,,,,,,,,,,,,,,,,,,
,,59f66e4e8a2d3d00012c1540,2024-02-18_23h14.21.264,kallum_motion_pilot,2023.2.2,Win32,3.99840064,59f66e4e8a2d3d00012c1540,65d2b6c8f2eece985d8e374c,65d2b8d30a1be52461736421,0.1563,0.1564,0,137,137,17,1,onethree,,,,,,,,,,,,,,,,,,,,,,,,,,,,,,,,,,,,,,,,,,,,,,,,,,,,,,,,,,,,,,,,,,,,,,,,,,,,,,,,,,,,,,,,,,,,,,,,,,,,,,,,,,,,,,,,,,,,,,,,,,,,,,,,,,,,,,,,,
,,59f66e4e8a2d3d00012c1540,2024-02-18_23h14.21.264,kallum_motion_pilot,2023.2.2,Win32,3.99840064,59f66e4e8a2d3d00012c1540,65d2b6c8f2eece985d8e374c,65d2b8d30a1be52461736421,0.1566,0.1566,0,138,138,143,1,eightseven,,,,,,,,,,,,,,,,,,,,,,,,,,,,,,,,,,,,,,,,,,,,,,,,,,,,,,,,,,,,,,,,,,,,,,,,,,,,,,,,,,,,,,,,,,,,,,,,,,,,,,,,,,,,,,,,,,,,,,,,,,,,,,,,,,,,,,,,,
,,59f66e4e8a2d3d00012c1540,2024-02-18_23h14.21.264,kallum_motion_pilot,2023.2.2,Win32,3.99840064,59f66e4e8a2d3d00012c1540,65d2b6c8f2eece985d8e374c,65d2b8d30a1be52461736421,0.1568,0.1569,0,139,139,140,1,sevenfive,,,,,,,,,,,,,,,,,,,,,,,,,,,,,,,,,,,,,,,,,,,,,,,,,,,,,,,,,,,,,,,,,,,,,,,,,,,,,,,,,,,,,,,,,,,,,,,,,,,,,,,,,,,,,,,,,,,,,,,,,,,,,,,,,,,,,,,,,
,,59f66e4e8a2d3d00012c1540,2024-02-18_23h14.21.264,kallum_motion_pilot,2023.2.2,Win32,3.99840064,59f66e4e8a2d3d00012c1540,65d2b6c8f2eece985d8e374c,65d2b8d30a1be52461736421,0.1571,0.1572,0,140,140,58,1,twoone,,,,,,,,,,,,,,,,,,,,,,,,,,,,,,,,,,,,,,,,,,,,,,,,,,,,,,,,,,,,,,,,,,,,,,,,,,,,,,,,,,,,,,,,,,,,,,,,,,,,,,,,,,,,,,,,,,,,,,,,,,,,,,,,,,,,,,,,,
,,59f66e4e8a2d3d00012c1540,2024-02-18_23h14.21.264,kallum_motion_pilot,2023.2.2,Win32,3.99840064,59f66e4e8a2d3d00012c1540,65d2b6c8f2eece985d8e374c,65d2b8d30a1be52461736421,0.1574,0.1576,0,141,141,122,1,sixfive,,,,,,,,,,,,,,,,,,,,,,,,,,,,,,,,,,,,,,,,,,,,,,,,,,,,,,,,,,,,,,,,,,,,,,,,,,,,,,,,,,,,,,,,,,,,,,,,,,,,,,,,,,,,,,,,,,,,,,,,,,,,,,,,,,,,,,,,,
,,59f66e4e8a2d3d00012c1540,2024-02-18_23h14.21.264,kallum_motion_pilot,2023.2.2,Win32,3.99840064,59f66e4e8a2d3d00012c1540,65d2b6c8f2eece985d8e374c,65d2b8d30a1be52461736421,0.1577,0.1578,0,142,142,33,1,onethree,,,,,,,,,,,,,,,,,,,,,,,,,,,,,,,,,,,,,,,,,,,,,,,,,,,,,,,,,,,,,,,,,,,,,,,,,,,,,,,,,,,,,,,,,,,,,,,,,,,,,,,,,,,,,,,,,,,,,,,,,,,,,,,,,,,,,,,,,
,,59f66e4e8a2d3d00012c1540,2024-02-18_23h14.21.264,kallum_motion_pilot,2023.2.2,Win32,3.99840064,59f66e4e8a2d3d00012c1540,65d2b6c8f2eece985d8e374c,65d2b8d30a1be52461736421,0.158,0.1582,0,143,143,109,1,seveneight,,,,,,,,,,,,,,,,,,,,,,,,,,,,,,,,,,,,,,,,,,,,,,,,,,,,,,,,,,,,,,,,,,,,,,,,,,,,,,,,,,,,,,,,,,,,,,,,,,,,,,,,,,,,,,,,,,,,,,,,,,,,,,,,,,,,,,,,,
,,59f66e4e8a2d3d00012c1540,2024-02-18_23h14.21.264,kallum_motion_pilot,2023.2.2,Win32,3.99840064,59f66e4e8a2d3d00012c1540,65d2b6c8f2eece985d8e374c,65d2b8d30a1be52461736421,0.1583,0.1585,0,144,144,107,1,sixeight,,,,,,,,,,,,,,,,,,,,,,,,,,,,,,,,,,,,,,,,,,,,,,,,,,,,,,,,,,,,,,,,,,,,,,,,,,,,,,,,,,,,,,,,,,,,,,,,,,,,,,,,,,,,,,,,,,,,,,,,,,,,,,,,,,,,,,,,,
,,59f66e4e8a2d3d00012c1540,2024-02-18_23h14.21.264,kallum_motion_pilot,2023.2.2,Win32,3.99840064,59f66e4e8a2d3d00012c1540,65d2b6c8f2eece985d8e374c,65d2b8d30a1be52461736421,0.1586,0.1588,0,145,145,46,1,fourtwo,,,,,,,,,,,,,,,,,,,,,,,,,,,,,,,,,,,,,,,,,,,,,,,,,,,,,,,,,,,,,,,,,,,,,,,,,,,,,,,,,,,,,,,,,,,,,,,,,,,,,,,,,,,,,,,,,,,,,,,,,,,,,,,,,,,,,,,,,
,,59f66e4e8a2d3d00012c1540,2024-02-18_23h14.21.264,kallum_motion_pilot,2023.2.2,Win32,3.99840064,59f66e4e8a2d3d00012c1540,65d2b6c8f2eece985d8e374c,65d2b8d30a1be52461736421,0.159,0.1591,0,146,146,136,1,fivesix,,,,,,,,,,,,,,,,,,,,,,,,,,,,,,,,,,,,,,,,,,,,,,,,,,,,,,,,,,,,,,,,,,,,,,,,,,,,,,,,,,,,,,,,,,,,,,,,,,,,,,,,,,,,,,,,,,,,,,,,,,,,,,,,,,,,,,,,,
,,59f66e4e8a2d3d00012c1540,2024-02-18_23h14.21.264,kallum_motion_pilot,2023.2.2,Win32,3.99840064,59f66e4e8a2d3d00012c1540,65d2b6c8f2eece985d8e374c,65d2b8d30a1be52461736421,0.1592,0.1594,0,147,147,1,1,onethree,,,,,,,,,,,,,,,,,,,,,,,,,,,,,,,,,,,,,,,,,,,,,,,,,,,,,,,,,,,,,,,,,,,,,,,,,,,,,,,,,,,,,,,,,,,,,,,,,,,,,,,,,,,,,,,,,,,,,,,,,,,,,,,,,,,,,,,,,
,,59f66e4e8a2d3d00012c1540,2024-02-18_23h14.21.264,kallum_motion_pilot,2023.2.2,Win32,3.99840064,59f66e4e8a2d3d00012c1540,65d2b6c8f2eece985d8e374c,65d2b8d30a1be52461736421,0.1595,0.1597,0,148,148,31,1,fourthree,,,,,,,,,,,,,,,,,,,,,,,,,,,,,,,,,,,,,,,,,,,,,,,,,,,,,,,,,,,,,,,,,,,,,,,,,,,,,,,,,,,,,,,,,,,,,,,,,,,,,,,,,,,,,,,,,,,,,,,,,,,,,,,,,,,,,,,,,
,,59f66e4e8a2d3d00012c1540,2024-02-18_23h14.21.264,kallum_motion_pilot,2023.2.2,Win32,3.99840064,59f66e4e8a2d3d00012c1540,65d2b6c8f2eece985d8e374c,65d2b8d30a1be52461736421,0.1599,0.16,0,149,149,0,1,onetwo,,,,,,,,,,,,,,,,,,,,,,,,,,,,,,,,,,,,,,,,,,,,,,,,,,,,,,,,,,,,,,,,,,,,,,,,,,,,,,,,,,,,,,,,,,,,,,,,,,,,,,,,,,,,,,,,,,,,,,,,,,,,,,,,,,,,,,,,,
,,59f66e4e8a2d3d00012c1540,2024-02-18_23h14.21.264,kallum_motion_pilot,2023.2.2,Win32,3.99840064,59f66e4e8a2d3d00012c1540,65d2b6c8f2eece985d8e374c,65d2b8d30a1be52461736421,0.1602,0.1604,0,150,150,95,1,eightseven,,,,,,,,,,,,,,,,,,,,,,,,,,,,,,,,,,,,,,,,,,,,,,,,,,,,,,,,,,,,,,,,,,,,,,,,,,,,,,,,,,,,,,,,,,,,,,,,,,,,,,,,,,,,,,,,,,,,,,,,,,,,,,,,,,,,,,,,,
,,59f66e4e8a2d3d00012c1540,2024-02-18_23h14.21.264,kallum_motion_pilot,2023.2.2,Win32,3.99840064,59f66e4e8a2d3d00012c1540,65d2b6c8f2eece985d8e374c,65d2b8d30a1be52461736421,0.1605,0.1607,0,151,151,24,1,onetwo,,,,,,,,,,,,,,,,,,,,,,,,,,,,,,,,,,,,,,,,,,,,,,,,,,,,,,,,,,,,,,,,,,,,,,,,,,,,,,,,,,,,,,,,,,,,,,,,,,,,,,,,,,,,,,,,,,,,,,,,,,,,,,,,,,,,,,,,,
,,59f66e4e8a2d3d00012c1540,2024-02-18_23h14.21.264,kallum_motion_pilot,2023.2.2,Win32,3.99840064,59f66e4e8a2d3d00012c1540,65d2b6c8f2eece985d8e374c,65d2b8d30a1be52461736421,0.1608,0.161,0,152,152,92,1,sevenfive,,,,,,,,,,,,,,,,,,,,,,,,,,,,,,,,,,,,,,,,,,,,,,,,,,,,,,,,,,,,,,,,,,,,,,,,,,,,,,,,,,,,,,,,,,,,,,,,,,,,,,,,,,,,,,,,,,,,,,,,,,,,,,,,,,,,,,,,,
,,59f66e4e8a2d3d00012c1540,2024-02-18_23h14.21.264,kallum_motion_pilot,2023.2.2,Win32,3.99840064,59f66e4e8a2d3d00012c1540,65d2b6c8f2eece985d8e374c,65d2b8d30a1be52461736421,0.1612,0.1613,0,153,153,41,1,onethree,,,,,,,,,,,,,,,,,,,,,,,,,,,,,,,,,,,,,,,,,,,,,,,,,,,,,,,,,,,,,,,,,,,,,,,,,,,,,,,,,,,,,,,,,,,,,,,,,,,,,,,,,,,,,,,,,,,,,,,,,,,,,,,,,,,,,,,,,
,,59f66e4e8a2d3d00012c1540,2024-02-18_23h14.21.264,kallum_motion_pilot,2023.2.2,Win32,3.99840064,59f66e4e8a2d3d00012c1540,65d2b6c8f2eece985d8e374c,65d2b8d30a1be52461736421,0.1615,0.1615,0,154,154,87,1,eightseven,,,,,,,,,,,,,,,,,,,,,,,,,,,,,,,,,,,,,,,,,,,,,,,,,,,,,,,,,,,,,,,,,,,,,,,,,,,,,,,,,,,,,,,,,,,,,,,,,,,,,,,,,,,,,,,,,,,,,,,,,,,,,,,,,,,,,,,,,
,,59f66e4e8a2d3d00012c1540,2024-02-18_23h14.21.264,kallum_motion_pilot,2023.2.2,Win32,3.99840064,59f66e4e8a2d3d00012c1540,65d2b6c8f2eece985d8e374c,65d2b8d30a1be52461736421,0.1617,0.1618,0,155,155,121,1,fiveseven,,,,,,,,,,,,,,,,,,,,,,,,,,,,,,,,,,,,,,,,,,,,,,,,,,,,,,,,,,,,,,,,,,,,,,,,,,,,,,,,,,,,,,,,,,,,,,,,,,,,,,,,,,,,,,,,,,,,,,,,,,,,,,,,,,,,,,,,,
,,59f66e4e8a2d3d00012c1540,2024-02-18_23h14.21.264,kallum_motion_pilot,2023.2.2,Win32,3.99840064,59f66e4e8a2d3d00012c1540,65d2b6c8f2eece985d8e374c,65d2b8d30a1be52461736421,0.162,0.1622,0,156,156,106,1,sixfive,,,,,,,,,,,,,,,,,,,,,,,,,,,,,,,,,,,,,,,,,,,,,,,,,,,,,,,,,,,,,,,,,,,,,,,,,,,,,,,,,,,,,,,,,,,,,,,,,,,,,,,,,,,,,,,,,,,,,,,,,,,,,,,,,,,,,,,,,
,,59f66e4e8a2d3d00012c1540,2024-02-18_23h14.21.264,kallum_motion_pilot,2023.2.2,Win32,3.99840064,59f66e4e8a2d3d00012c1540,65d2b6c8f2eece985d8e374c,65d2b8d30a1be52461736421,0.1623,0.1624,0,157,157,111,1,eightseven,,,,,,,,,,,,,,,,,,,,,,,,,,,,,,,,,,,,,,,,,,,,,,,,,,,,,,,,,,,,,,,,,,,,,,,,,,,,,,,,,,,,,,,,,,,,,,,,,,,,,,,,,,,,,,,,,,,,,,,,,,,,,,,,,,,,,,,,,
,,59f66e4e8a2d3d00012c1540,2024-02-18_23h14.21.264,kallum_motion_pilot,2023.2.2,Win32,3.99840064,59f66e4e8a2d3d00012c1540,65d2b6c8f2eece985d8e374c,65d2b8d30a1be52461736421,0.1626,0.1627,0,158,158,150,1,eightsix,,,,,,,,,,,,,,,,,,,,,,,,,,,,,,,,,,,,,,,,,,,,,,,,,,,,,,,,,,,,,,,,,,,,,,,,,,,,,,,,,,,,,,,,,,,,,,,,,,,,,,,,,,,,,,,,,,,,,,,,,,,,,,,,,,,,,,,,,
,,59f66e4e8a2d3d00012c1540,2024-02-18_23h14.21.264,kallum_motion_pilot,2023.2.2,Win32,3.99840064,59f66e4e8a2d3d00012c1540,65d2b6c8f2eece985d8e374c,65d2b8d30a1be52461736421,0.1629,0.163,0,159,159,85,1,seveneight,,,,,,,,,,,,,,,,,,,,,,,,,,,,,,,,,,,,,,,,,,,,,,,,,,,,,,,,,,,,,,,,,,,,,,,,,,,,,,,,,,,,,,,,,,,,,,,,,,,,,,,,,,,,,,,,,,,,,,,,,,,,,,,,,,,,,,,,,
,,59f66e4e8a2d3d00012c1540,2024-02-18_23h14.21.264,kallum_motion_pilot,2023.2.2,Win32,3.99840064,59f66e4e8a2d3d00012c1540,65d2b6c8f2eece985d8e374c,65d2b8d30a1be52461736421,0.1632,0.1632,0,160,160,55,1,fourthree,,,,,,,,,,,,,,,,,,,,,,,,,,,,,,,,,,,,,,,,,,,,,,,,,,,,,,,,,,,,,,,,,,,,,,,,,,,,,,,,,,,,,,,,,,,,,,,,,,,,,,,,,,,,,,,,,,,,,,,,,,,,,,,,,,,,,,,,,
,,59f66e4e8a2d3d00012c1540,2024-02-18_23h14.21.264,kallum_motion_pilot,2023.2.2,Win32,3.99840064,59f66e4e8a2d3d00012c1540,65d2b6c8f2eece985d8e374c,65d2b8d30a1be52461736421,0.1634,0.1635,0,161,161,69,1,threefour,,,,,,,,,,,,,,,,,,,,,,,,,,,,,,,,,,,,,,,,,,,,,,,,,,,,,,,,,,,,,,,,,,,,,,,,,,,,,,,,,,,,,,,,,,,,,,,,,,,,,,,,,,,,,,,,,,,,,,,,,,,,,,,,,,,,,,,,,
,,59f66e4e8a2d3d00012c1540,2024-02-18_23h14.21.264,kallum_motion_pilot,2023.2.2,Win32,3.99840064,59f66e4e8a2d3d00012c1540,65d2b6c8f2eece985d8e374c,65d2b8d30a1be52461736421,0.1638,0.1639,1,0,162,31,1,fourthree,,,,,,,,,,,,,,,,,,,,,,,,,,,,,,,,,,,,,,,,,,,,,,,,,,,,,,,,,,,,,,,,,,,,,,,,,,,,,,,,,,,,,,,,,,,,,,,,,,,,,,,,,,,,,,,,,,,,,,,,,,,,,,,,,,,,,,,,,
,,59f66e4e8a2d3d00012c1540,2024-02-18_23h14.21.264,kallum_motion_pilot,2023.2.2,Win32,3.99840064,59f66e4e8a2d3d00012c1540,65d2b6c8f2eece985d8e374c,65d2b8d30a1be52461736421,0.1641,0.1641,1,1,163,2,1,twoone,,,,,,,,,,,,,,,,,,,,,,,,,,,,,,,,,,,,,,,,,,,,,,,,,,,,,,,,,,,,,,,,,,,,,,,,,,,,,,,,,,,,,,,,,,,,,,,,,,,,,,,,,,,,,,,,,,,,,,,,,,,,,,,,,,,,,,,,,
,,59f66e4e8a2d3d00012c1540,2024-02-18_23h14.21.264,kallum_motion_pilot,2023.2.2,Win32,3.99840064,59f66e4e8a2d3d00012c1540,65d2b6c8f2eece985d8e374c,65d2b8d30a1be52461736421,0.1643,0.1645,1,2,164,125,1,seveneight,,,,,,,,,,,,,,,,,,,,,,,,,,,,,,,,,,,,,,,,,,,,,,,,,,,,,,,,,,,,,,,,,,,,,,,,,,,,,,,,,,,,,,,,,,,,,,,,,,,,,,,,,,,,,,,,,,,,,,,,,,,,,,,,,,,,,,,,,
,,59f66e4e8a2d3d00012c1540,2024-02-18_23h14.21.264,kallum_motion_pilot,2023.2.2,Win32,3.99840064,59f66e4e8a2d3d00012c1540,65d2b6c8f2eece985d8e374c,65d2b8d30a1be52461736421,0.1646,0.1647,1,3,165,9,1,onethree,,,,,,,,,,,,,,,,,,,,,,,,,,,,,,,,,,,,,,,,,,,,,,,,,,,,,,,,,,,,,,,,,,,,,,,,,,,,,,,,,,,,,,,,,,,,,,,,,,,,,,,,,,,,,,,,,,,,,,,,,,,,,,,,,,,,,,,,,
,,59f66e4e8a2d3d00012c1540,2024-02-18_23h14.21.264,kallum_motion_pilot,2023.2.2,Win32,3.99840064,59f66e4e8a2d3d00012c1540,65d2b6c8f2eece985d8e374c,65d2b8d30a1be52461736421,0.1648,0.165,1,4,166,103,1,eightseven,,,,,,,,,,,,,,,,,,,,,,,,,,,,,,,,,,,,,,,,,,,,,,,,,,,,,,,,,,,,,,,,,,,,,,,,,,,,,,,,,,,,,,,,,,,,,,,,,,,,,,,,,,,,,,,,,,,,,,,,,,,,,,,,,,,,,,,,,
,,59f66e4e8a2d3d00012c1540,2024-02-18_23h14.21.264,kallum_motion_pilot,2023.2.2,Win32,3.99840064,59f66e4e8a2d3d00012c1540,65d2b6c8f2eece985d8e374c,65d2b8d30a1be52461736421,0.1651,0.1652,1,5,167,101,1,seveneight,,,,,,,,,,,,,,,,,,,,,,,,,,,,,,,,,,,,,,,,,,,,,,,,,,,,,,,,,,,,,,,,,,,,,,,,,,,,,,,,,,,,,,,,,,,,,,,,,,,,,,,,,,,,,,,,,,,,,,,,,,,,,,,,,,,,,,,,,
,,59f66e4e8a2d3d00012c1540,2024-02-18_23h14.21.264,kallum_motion_pilot,2023.2.2,Win32,3.99840064,59f66e4e8a2d3d00012c1540,65d2b6c8f2eece985d8e374c,65d2b8d30a1be52461736421,0.1654,0.1655,1,6,168,120,1,fivesix,,,,,,,,,,,,,,,,,,,,,,,,,,,,,,,,,,,,,,,,,,,,,,,,,,,,,,,,,,,,,,,,,,,,,,,,,,,,,,,,,,,,,,,,,,,,,,,,,,,,,,,,,,,,,,,,,,,,,,,,,,,,,,,,,,,,,,,,,
,,59f66e4e8a2d3d00012c1540,2024-02-18_23h14.21.264,kallum_motion_pilot,2023.2.2,Win32,3.99840064,59f66e4e8a2d3d00012c1540,65d2b6c8f2eece985d8e374c,65d2b8d30a1be52461736421,0.1657,0.1658,1,7,169,130,1,sixfive,,,,,,,,,,,,,,,,,,,,,,,,,,,,,,,,,,,,,,,,,,,,,,,,,,,,,,,,,,,,,,,,,,,,,,,,,,,,,,,,,,,,,,,,,,,,,,,,,,,,,,,,,,,,,,,,,,,,,,,,,,,,,,,,,,,,,,,,,
,,59f66e4e8a2d3d00012c1540,2024-02-18_23h14.21.264,kallum_motion_pilot,2023.2.2,Win32,3.99840064,59f66e4e8a2d3d00012c1540,65d2b6c8f2eece985d8e374c,65d2b8d30a1be52461736421,0.166,0.166,1,8,170,64,1,onetwo,,,,,,,,,,,,,,,,,,,,,,,,,,,,,,,,,,,,,,,,,,,,,,,,,,,,,,,,,,,,,,,,,,,,,,,,,,,,,,,,,,,,,,,,,,,,,,,,,,,,,,,,,,,,,,,,,,,,,,,,,,,,,,,,,,,,,,,,,
,,59f66e4e8a2d3d00012c1540,2024-02-18_23h14.21.264,kallum_motion_pilot,2023.2.2,Win32,3.99840064,59f66e4e8a2d3d00012c1540,65d2b6c8f2eece985d8e374c,65d2b8d30a1be52461736421,0.1663,0.1663,1,9,171,149,1,seveneight,,,,,,,,,,,,,,,,,,,,,,,,,,,,,,,,,,,,,,,,,,,,,,,,,,,,,,,,,,,,,,,,,,,,,,,,,,,,,,,,,,,,,,,,,,,,,,,,,,,,,,,,,,,,,,,,,,,,,,,,,,,,,,,,,,,,,,,,,
,,59f66e4e8a2d3d00012c1540,2024-02-18_23h14.21.264,kallum_motion_pilot,2023.2.2,Win32,3.99840064,59f66e4e8a2d3d00012c1540,65d2b6c8f2eece985d8e374c,65d2b8d30a1be52461736421,0.1665,0.1666,1,10,172,116,1,sevenfive,,,,,,,,,,,,,,,,,,,,,,,,,,,,,,,,,,,,,,,,,,,,,,,,,,,,,,,,,,,,,,,,,,,,,,,,,,,,,,,,,,,,,,,,,,,,,,,,,,,,,,,,,,,,,,,,,,,,,,,,,,,,,,,,,,,,,,,,,
,,59f66e4e8a2d3d00012c1540,2024-02-18_23h14.21.264,kallum_motion_pilot,2023.2.2,Win32,3.99840064,59f66e4e8a2d3d00012c1540,65d2b6c8f2eece985d8e374c,65d2b8d30a1be52461736421,0.1668,0.1669,1,11,173,147,1,sixeight,,,,,,,,,,,,,,,,,,,,,,,,,,,,,,,,,,,,,,,,,,,,,,,,,,,,,,,,,,,,,,,,,,,,,,,,,,,,,,,,,,,,,,,,,,,,,,,,,,,,,,,,,,,,,,,,,,,,,,,,,,,,,,,,,,,,,,,,,
,,59f66e4e8a2d3d00012c1540,2024-02-18_23h14.21.264,kallum_motion_pilot,2023.2.2,Win32,3.99840064,59f66e4e8a2d3d00012c1540,65d2b6c8f2eece985d8e374c,65d2b8d30a1be52461736421,0.167,0.1671,1,12,174,17,1,onethree,,,,,,,,,,,,,,,,,,,,,,,,,,,,,,,,,,,,,,,,,,,,,,,,,,,,,,,,,,,,,,,,,,,,,,,,,,,,,,,,,,,,,,,,,,,,,,,,,,,,,,,,,,,,,,,,,,,,,,,,,,,,,,,,,,,,,,,,,
,,59f66e4e8a2d3d00012c1540,2024-02-18_23h14.21.264,kallum_motion_pilot,2023.2.2,Win32,3.99840064,59f66e4e8a2d3d00012c1540,65d2b6c8f2eece985d8e374c,65d2b8d30a1be52461736421,0.1674,0.1674,1,13,175,114,1,sixfive,,,,,,,,,,,,,,,,,,,,,,,,,,,,,,,,,,,,,,,,,,,,,,,,,,,,,,,,,,,,,,,,,,,,,,,,,,,,,,,,,,,,,,,,,,,,,,,,,,,,,,,,,,,,,,,,,,,,,,,,,,,,,,,,,,,,,,,,,
,,59f66e4e8a2d3d00012c1540,2024-02-18_23h14.21.264,kallum_motion_pilot,2023.2.2,Win32,3.99840064,59f66e4e8a2d3d00012c1540,65d2b6c8f2eece985d8e374c,65d2b8d30a1be52461736421,0.1676,0.1677,1,14,176,104,1,fivesix,,,,,,,,,,,,,,,,,,,,,,,,,,,,,,,,,,,,,,,,,,,,,,,,,,,,,,,,,,,,,,,,,,,,,,,,,,,,,,,,,,,,,,,,,,,,,,,,,,,,,,,,,,,,,,,,,,,,,,,,,,,,,,,,,,,,,,,,,
,,59f66e4e8a2d3d00012c1540,2024-02-18_23h14.21.264,kallum_motion_pilot,2023.2.2,Win32,3.99840064,59f66e4e8a2d3d00012c1540,65d2b6c8f2eece985d8e374c,65d2b8d30a1be52461736421,0.1679,0.168,1,15,177,45,1,threefour,,,,,,,,,,,,,,,,,,,,,,,,,,,,,,,,,,,,,,,,,,,,,,,,,,,,,,,,,,,,,,,,,,,,,,,,,,,,,,,,,,,,,,,,,,,,,,,,,,,,,,,,,,,,,,,,,,,,,,,,,,,,,,,,,,,,,,,,,
,,59f66e4e8a2d3d00012c1540,2024-02-18_23h14.21.264,kallum_motion_pilot,2023.2.2,Win32,3.99840064,59f66e4e8a2d3d00012c1540,65d2b6c8f2eece985d8e374c,65d2b8d30a1be52461736421,0.1681,0.1683,1,16,178,119,1,eightseven,,,,,,,,,,,,,,,,,,,,,,,,,,,,,,,,,,,,,,,,,,,,,,,,,,,,,,,,,,,,,,,,,,,,,,,,,,,,,,,,,,,,,,,,,,,,,,,,,,,,,,,,,,,,,,,,,,,,,,,,,,,,,,,,,,,,,,,,,
,,59f66e4e8a2d3d00012c1540,2024-02-18_23h14.21.264,kallum_motion_pilot,2023.2.2,Win32,3.99840064,59f66e4e8a2d3d00012c1540,65d2b6c8f2eece985d8e374c,65d2b8d30a1be52461736421,0.1684,0.1686,1,17,179,148,1,sevenfive,,,,,,,,,,,,,,,,,,,,,,,,,,,,,,,,,,,,,,,,,,,,,,,,,,,,,,,,,,,,,,,,,,,,,,,,,,,,,,,,,,,,,,,,,,,,,,,,,,,,,,,,,,,,,,,,,,,,,,,,,,,,,,,,,,,,,,,,,
,,59f66e4e8a2d3d00012c1540,2024-02-18_23h14.21.264,kallum_motion_pilot,2023.2.2,Win32,3.99840064,59f66e4e8a2d3d00012c1540,65d2b6c8f2eece985d8e374c,65d2b8d30a1be52461736421,0.1687,0.1688,1,18,180,60,1,threeone,,,,,,,,,,,,,,,,,,,,,,,,,,,,,,,,,,,,,,,,,,,,,,,,,,,,,,,,,,,,,,,,,,,,,,,,,,,,,,,,,,,,,,,,,,,,,,,,,,,,,,,,,,,,,,,,,,,,,,,,,,,,,,,,,,,,,,,,,
,,59f66e4e8a2d3d00012c1540,2024-02-18_23h14.21.264,kallum_motion_pilot,2023.2.2,Win32,3.99840064,59f66e4e8a2d3d00012c1540,65d2b6c8f2eece985d8e374c,65d2b8d30a1be52461736421,0.169,0.1691,1,19,181,65,1,onethree,,,,,,,,,,,,,,,,,,,,,,,,,,,,,,,,,,,,,,,,,,,,,,,,,,,,,,,,,,,,,,,,,,,,,,,,,,,,,,,,,,,,,,,,,,,,,,,,,,,,,,,,,,,,,,,,,,,,,,,,,,,,,,,,,,,,,,,,,
,,59f66e4e8a2d3d00012c1540,2024-02-18_23h14.21.264,kallum_motion_pilot,2023.2.2,Win32,3.99840064,59f66e4e8a2d3d00012c1540,65d2b6c8f2eece985d8e374c,65d2b8d30a1be52461736421,0.1693,0.1694,1,20,182,115,1,sixeight,,,,,,,,,,,,,,,,,,,,,,,,,,,,,,,,,,,,,,,,,,,,,,,,,,,,,,,,,,,,,,,,,,,,,,,,,,,,,,,,,,,,,,,,,,,,,,,,,,,,,,,,,,,,,,,,,,,,,,,,,,,,,,,,,,,,,,,,,
,,59f66e4e8a2d3d00012c1540,2024-02-18_23h14.21.264,kallum_motion_pilot,2023.2.2,Win32,3.99840064,59f66e4e8a2d3d00012c1540,65d2b6c8f2eece985d8e374c,65d2b8d30a1be52461736421,0.1696,0.1697,1,21,183,12,1,threeone,,,,,,,,,,,,,,,,,,,,,,,,,,,,,,,,,,,,,,,,,,,,,,,,,,,,,,,,,,,,,,,,,,,,,,,,,,,,,,,,,,,,,,,,,,,,,,,,,,,,,,,,,,,,,,,,,,,,,,,,,,,,,,,,,,,,,,,,,
,,59f66e4e8a2d3d00012c1540,2024-02-18_23h14.21.264,kallum_motion_pilot,2023.2.2,Win32,3.99840064,59f66e4e8a2d3d00012c1540,65d2b6c8f2eece985d8e374c,65d2b8d30a1be52461736421,0.1698,0.1699,1,22,184,57,1,onethree,,,,,,,,,,,,,,,,,,,,,,,,,,,,,,,,,,,,,,,,,,,,,,,,,,,,,,,,,,,,,,,,,,,,,,,,,,,,,,,,,,,,,,,,,,,,,,,,,,,,,,,,,,,,,,,,,,,,,,,,,,,,,,,,,,,,,,,,,
,,59f66e4e8a2d3d00012c1540,2024-02-18_23h14.21.264,kallum_motion_pilot,2023.2.2,Win32,3.99840064,59f66e4e8a2d3d00012c1540,65d2b6c8f2eece985d8e374c,65d2b8d30a1be52461736421,0.1701,0.1703,1,23,185,153,1,fiveseven,,,,,,,,,,,,,,,,,,,,,,,,,,,,,,,,,,,,,,,,,,,,,,,,,,,,,,,,,,,,,,,,,,,,,,,,,,,,,,,,,,,,,,,,,,,,,,,,,,,,,,,,,,,,,,,,,,,,,,,,,,,,,,,,,,,,,,,,,
,,59f66e4e8a2d3d00012c1540,2024-02-18_23h14.21.264,kallum_motion_pilot,2023.2.2,Win32,3.99840064,59f66e4e8a2d3d00012c1540,65d2b6c8f2eece985d8e374c,65d2b8d30a1be52461736421,0.1705,0.1706,1,24,186,143,1,eightseven,,,,,,,,,,,,,,,,,,,,,,,,,,,,,,,,,,,,,,,,,,,,,,,,,,,,,,,,,,,,,,,,,,,,,,,,,,,,,,,,,,,,,,,,,,,,,,,,,,,,,,,,,,,,,,,,,,,,,,,,,,,,,,,,,,,,,,,,,
,,59f66e4e8a2d3d00012c1540,2024-02-18_23h14.21.264,kallum_motion_pilot,2023.2.2,Win32,3.99840064,59f66e4e8a2d3d00012c1540,65d2b6c8f2eece985d8e374c,65d2b8d30a1be52461736421,0.1707,0.1709,1,25,187,102,1,eightsix,,,,,,,,,,,,,,,,,,,,,,,,,,,,,,,,,,,,,,,,,,,,,,,,,,,,,,,,,,,,,,,,,,,,,,,,,,,,,,,,,,,,,,,,,,,,,,,,,,,,,,,,,,,,,,,,,,,,,,,,,,,,,,,,,,,,,,,,,
,,59f66e4e8a2d3d00012c1540,2024-02-18_23h14.21.264,kallum_motion_pilot,2023.2.2,Win32,3.99840064,59f66e4e8a2d3d00012c1540,65d2b6c8f2eece985d8e374c,65d2b8d30a1be52461736421,0.171,0.1712,1,26,188,70,1,fourtwo,,,,,,,,,,,,,,,,,,,,,,,,,,,,,,,,,,,,,,,,,,,,,,,,,,,,,,,,,,,,,,,,,,,,,,,,,,,,,,,,,,,,,,,,,,,,,,,,,,,,,,,,,,,,,,,,,,,,,,,,,,,,,,,,,,,,,,,,,
,,59f66e4e8a2d3d00012c1540,2024-02-18_23h14.21.264,kallum_motion_pilot,2023.2.2,Win32,3.99840064,59f66e4e8a2d3d00012c1540,65d2b6c8f2eece985d8e374c,65d2b8d30a1be52461736421,0.1714,0.1716,1,27,189,19,1,twofour,,,,,,,,,,,,,,,,,,,,,,,,,,,,,,,,,,,,,,,,,,,,,,,,,,,,,,,,,,,,,,,,,,,,,,,,,,,,,,,,,,,,,,,,,,,,,,,,,,,,,,,,,,,,,,,,,,,,,,,,,,,,,,,,,,,,,,,,,
,,59f66e4e8a2d3d00012c1540,2024-02-18_23h14.21.264,kallum_motion_pilot,2023.2.2,Win32,3.99840064,59f66e4e8a2d3d00012c1540,65d2b6c8f2eece985d8e374c,65d2b8d30a1be52461736421,0.1717,0.1718,1,28,190,151,1,eightseven,,,,,,,,,,,,,,,,,,,,,,,,,,,,,,,,,,,,,,,,,,,,,,,,,,,,,,,,,,,,,,,,,,,,,,,,,,,,,,,,,,,,,,,,,,,,,,,,,,,,,,,,,,,,,,,,,,,,,,,,,,,,,,,,,,,,,,,,,
,,59f66e4e8a2d3d00012c1540,2024-02-18_23h14.21.264,kallum_motion_pilot,2023.2.2,Win32,3.99840064,59f66e4e8a2d3d00012c1540,65d2b6c8f2eece985d8e374c,65d2b8d30a1be52461736421,0.1719,0.1721,1,29,191,136,1,fivesix,,,,,,,,,,,,,,,,,,,,,,,,,,,,,,,,,,,,,,,,,,,,,,,,,,,,,,,,,,,,,,,,,,,,,,,,,,,,,,,,,,,,,,,,,,,,,,,,,,,,,,,,,,,,,,,,,,,,,,,,,,,,,,,,,,,,,,,,,
,,59f66e4e8a2d3d00012c1540,2024-02-18_23h14.21.264,kallum_motion_pilot,2023.2.2,Win32,3.99840064,59f66e4e8a2d3d00012c1540,65d2b6c8f2eece985d8e374c,65d2b8d30a1be52461736421,0.1726,0.1726,1,30,192,138,1,sixfive,,,,,,,,,,,,,,,,,,,,,,,,,,,,,,,,,,,,,,,,,,,,,,,,,,,,,,,,,,,,,,,,,,,,,,,,,,,,,,,,,,,,,,,,,,,,,,,,,,,,,,,,,,,,,,,,,,,,,,,,,,,,,,,,,,,,,,,,,
,,59f66e4e8a2d3d00012c1540,2024-02-18_23h14.21.264,kallum_motion_pilot,2023.2.2,Win32,3.99840064,59f66e4e8a2d3d00012c1540,65d2b6c8f2eece985d8e374c,65d2b8d30a1be52461736421,0.1728,0.1731,1,31,193,91,1,sixeight,,,,,,,,,,,,,,,,,,,,,,,,,,,,,,,,,,,,,,,,,,,,,,,,,,,,,,,,,,,,,,,,,,,,,,,,,,,,,,,,,,,,,,,,,,,,,,,,,,,,,,,,,,,,,,,,,,,,,,,,,,,,,,,,,,,,,,,,,
,,59f66e4e8a2d3d00012c1540,2024-02-18_23h14.21.264,kallum_motion_pilot,2023.2.2,Win32,3.99840064,59f66e4e8a2d3d00012c1540,65d2b6c8f2eece985d8e374c,65d2b8d30a1be52461736421,0.1733,0.1735,1,32,194,154,1,sixfive,,,,,,,,,,,,,,,,,,,,,,,,,,,,,,,,,,,,,,,,,,,,,,,,,,,,,,,,,,,,,,,,,,,,,,,,,,,,,,,,,,,,,,,,,,,,,,,,,,,,,,,,,,,,,,,,,,,,,,,,,,,,,,,,,,,,,,,,,
,,59f66e4e8a2d3d00012c1540,2024-02-18_23h14.21.264,kallum_motion_pilot,2023.2.2,Win32,3.99840064,59f66e4e8a2d3d00012c1540,65d2b6c8f2eece985d8e374c,65d2b8d30a1be52461736421,0.1736,0.1738,1,33,195,94,1,eightsix,,,,,,,,,,,,,,,,,,,,,,,,,,,,,,,,,,,,,,,,,,,,,,,,,,,,,,,,,,,,,,,,,,,,,,,,,,,,,,,,,,,,,,,,,,,,,,,,,,,,,,,,,,,,,,,,,,,,,,,,,,,,,,,,,,,,,,,,,
,,59f66e4e8a2d3d00012c1540,2024-02-18_23h14.21.264,kallum_motion_pilot,2023.2.2,Win32,3.99840064,59f66e4e8a2d3d00012c1540,65d2b6c8f2eece985d8e374c,65d2b8d30a1be52461736421,0.174,0.1742,1,34,196,51,1,twofour,,,,,,,,,,,,,,,,,,,,,,,,,,,,,,,,,,,,,,,,,,,,,,,,,,,,,,,,,,,,,,,,,,,,,,,,,,,,,,,,,,,,,,,,,,,,,,,,,,,,,,,,,,,,,,,,,,,,,,,,,,,,,,,,,,,,,,,,,
,,59f66e4e8a2d3d00012c1540,2024-02-18_23h14.21.264,kallum_motion_pilot,2023.2.2,Win32,3.99840064,59f66e4e8a2d3d00012c1540,65d2b6c8f2eece985d8e374c,65d2b8d30a1be52461736421,0.1744,0.1745,1,35,197,35,1,twofour,,,,,,,,,,,,,,,,,,,,,,,,,,,,,,,,,,,,,,,,,,,,,,,,,,,,,,,,,,,,,,,,,,,,,,,,,,,,,,,,,,,,,,,,,,,,,,,,,,,,,,,,,,,,,,,,,,,,,,,,,,,,,,,,,,,,,,,,,
,,59f66e4e8a2d3d00012c1540,2024-02-18_23h14.21.264,kallum_motion_pilot,2023.2.2,Win32,3.99840064,59f66e4e8a2d3d00012c1540,65d2b6c8f2eece985d8e374c,65d2b8d30a1be52461736421,0.1747,0.1749,1,36,198,117,1,seveneight,,,,,,,,,,,,,,,,,,,,,,,,,,,,,,,,,,,,,,,,,,,,,,,,,,,,,,,,,,,,,,,,,,,,,,,,,,,,,,,,,,,,,,,,,,,,,,,,,,,,,,,,,,,,,,,,,,,,,,,,,,,,,,,,,,,,,,,,,
,,59f66e4e8a2d3d00012c1540,2024-02-18_23h14.21.264,kallum_motion_pilot,2023.2.2,Win32,3.99840064,59f66e4e8a2d3d00012c1540,65d2b6c8f2eece985d8e374c,65d2b8d30a1be52461736421,0.175,0.1751,1,37,199,66,1,twoone,,,,,,,,,,,,,,,,,,,,,,,,,,,,,,,,,,,,,,,,,,,,,,,,,,,,,,,,,,,,,,,,,,,,,,,,,,,,,,,,,,,,,,,,,,,,,,,,,,,,,,,,,,,,,,,,,,,,,,,,,,,,,,,,,,,,,,,,,
,,59f66e4e8a2d3d00012c1540,2024-02-18_23h14.21.264,kallum_motion_pilot,2023.2.2,Win32,3.99840064,59f66e4e8a2d3d00012c1540,65d2b6c8f2eece985d8e374c,65d2b8d30a1be52461736421,0.1753,0.1754,1,38,200,137,1,fiveseven,,,,,,,,,,,,,,,,,,,,,,,,,,,,,,,,,,,,,,,,,,,,,,,,,,,,,,,,,,,,,,,,,,,,,,,,,,,,,,,,,,,,,,,,,,,,,,,,,,,,,,,,,,,,,,,,,,,,,,,,,,,,,,,,,,,,,,,,,
,,59f66e4e8a2d3d00012c1540,2024-02-18_23h14.21.264,kallum_motion_pilot,2023.2.2,Win32,3.99840064,59f66e4e8a2d3d00012c1540,65d2b6c8f2eece985d8e374c,65d2b8d30a1be52461736421,0.1756,0.1757,1,39,201,69,1,threefour,,,,,,,,,,,,,,,,,,,,,,,,,,,,,,,,,,,,,,,,,,,,,,,,,,,,,,,,,,,,,,,,,,,,,,,,,,,,,,,,,,,,,,,,,,,,,,,,,,,,,,,,,,,,,,,,,,,,,,,,,,,,,,,,,,,,,,,,,
,,59f66e4e8a2d3d00012c1540,2024-02-18_23h14.21.264,kallum_motion_pilot,2023.2.2,Win32,3.99840064,59f66e4e8a2d3d00012c1540,65d2b6c8f2eece985d8e374c,65d2b8d30a1be52461736421,0.1759,0.176,1,40,202,121,1,fiveseven,,,,,,,,,,,,,,,,,,,,,,,,,,,,,,,,,,,,,,,,,,,,,,,,,,,,,,,,,,,,,,,,,,,,,,,,,,,,,,,,,,,,,,,,,,,,,,,,,,,,,,,,,,,,,,,,,,,,,,,,,,,,,,,,,,,,,,,,,
,,59f66e4e8a2d3d00012c1540,2024-02-18_23h14.21.264,kallum_motion_pilot,2023.2.2,Win32,3.99840064,59f66e4e8a2d3d00012c1540,65d2b6c8f2eece985d8e374c,65d2b8d30a1be52461736421,0.1762,0.1762,1,41,203,34,1,twoone,,,,,,,,,,,,,,,,,,,,,,,,,,,,,,,,,,,,,,,,,,,,,,,,,,,,,,,,,,,,,,,,,,,,,,,,,,,,,,,,,,,,,,,,,,,,,,,,,,,,,,,,,,,,,,,,,,,,,,,,,,,,,,,,,,,,,,,,,
,,59f66e4e8a2d3d00012c1540,2024-02-18_23h14.21.264,kallum_motion_pilot,2023.2.2,Win32,3.99840064,59f66e4e8a2d3d00012c1540,65d2b6c8f2eece985d8e374c,65d2b8d30a1be52461736421,0.1765,0.1766,1,42,204,43,1,twofour,,,,,,,,,,,,,,,,,,,,,,,,,,,,,,,,,,,,,,,,,,,,,,,,,,,,,,,,,,,,,,,,,,,,,,,,,,,,,,,,,,,,,,,,,,,,,,,,,,,,,,,,,,,,,,,,,,,,,,,,,,,,,,,,,,,,,,,,,
,,59f66e4e8a2d3d00012c1540,2024-02-18_23h14.21.264,kallum_motion_pilot,2023.2.2,Win32,3.99840064,59f66e4e8a2d3d00012c1540,65d2b6c8f2eece985d8e374c,65d2b8d30a1be52461736421,0.1767,0.1768,1,43,205,21,1,threefour,,,,,,,,,,,,,,,,,,,,,,,,,,,,,,,,,,,,,,,,,,,,,,,,,,,,,,,,,,,,,,,,,,,,,,,,,,,,,,,,,,,,,,,,,,,,,,,,,,,,,,,,,,,,,,,,,,,,,,,,,,,,,,,,,,,,,,,,,
,,59f66e4e8a2d3d00012c1540,2024-02-18_23h14.21.264,kallum_motion_pilot,2023.2.2,Win32,3.99840064,59f66e4e8a2d3d00012c1540,65d2b6c8f2eece985d8e374c,65d2b8d30a1be52461736421,0.177,0.1771,1,44,206,30,1,fourtwo,,,,,,,,,,,,,,,,,,,,,,,,,,,,,,,,,,,,,,,,,,,,,,,,,,,,,,,,,,,,,,,,,,,,,,,,,,,,,,,,,,,,,,,,,,,,,,,,,,,,,,,,,,,,,,,,,,,,,,,,,,,,,,,,,,,,,,,,,
,,59f66e4e8a2d3d00012c1540,2024-02-18_23h14.21.264,kallum_motion_pilot,2023.2.2,Win32,3.99840064,59f66e4e8a2d3d00012c1540,65d2b6c8f2eece985d8e374c,65d2b8d30a1be52461736421,0.178,0.1782,1,45,207,73,1,onethree,,,,,,,,,,,,,,,,,,,,,,,,,,,,,,,,,,,,,,,,,,,,,,,,,,,,,,,,,,,,,,,,,,,,,,,,,,,,,,,,,,,,,,,,,,,,,,,,,,,,,,,,,,,,,,,,,,,,,,,,,,,,,,,,,,,,,,,,,
,,59f66e4e8a2d3d00012c1540,2024-02-18_23h14.21.264,kallum_motion_pilot,2023.2.2,Win32,3.99840064,59f66e4e8a2d3d00012c1540,65d2b6c8f2eece985d8e374c,65d2b8d30a1be52461736421,0.1784,0.1786,1,46,208,85,1,seveneight,,,,,,,,,,,,,,,,,,,,,,,,,,,,,,,,,,,,,,,,,,,,,,,,,,,,,,,,,,,,,,,,,,,,,,,,,,,,,,,,,,,,,,,,,,,,,,,,,,,,,,,,,,,,,,,,,,,,,,,,,,,,,,,,,,,,,,,,,
,,59f66e4e8a2d3d00012c1540,2024-02-18_23h14.21.264,kallum_motion_pilot,2023.2.2,Win32,3.99840064,59f66e4e8a2d3d00012c1540,65d2b6c8f2eece985d8e374c,65d2b8d30a1be52461736421,0.1794,0.1801,1,47,209,142,1,eightsix,,,,,,,,,,,,,,,,,,,,,,,,,,,,,,,,,,,,,,,,,,,,,,,,,,,,,,,,,,,,,,,,,,,,,,,,,,,,,,,,,,,,,,,,,,,,,,,,,,,,,,,,,,,,,,,,,,,,,,,,,,,,,,,,,,,,,,,,,
,,59f66e4e8a2d3d00012c1540,2024-02-18_23h14.21.264,kallum_motion_pilot,2023.2.2,Win32,3.99840064,59f66e4e8a2d3d00012c1540,65d2b6c8f2eece985d8e374c,65d2b8d30a1be52461736421,0.182,0.1825,1,48,210,32,1,onetwo,,,,,,,,,,,,,,,,,,,,,,,,,,,,,,,,,,,,,,,,,,,,,,,,,,,,,,,,,,,,,,,,,,,,,,,,,,,,,,,,,,,,,,,,,,,,,,,,,,,,,,,,,,,,,,,,,,,,,,,,,,,,,,,,,,,,,,,,,
,,59f66e4e8a2d3d00012c1540,2024-02-18_23h14.21.264,kallum_motion_pilot,2023.2.2,Win32,3.99840064,59f66e4e8a2d3d00012c1540,65d2b6c8f2eece985d8e374c,65d2b8d30a1be52461736421,0.1833,0.1835,1,49,211,86,1,eightsix,,,,,,,,,,,,,,,,,,,,,,,,,,,,,,,,,,,,,,,,,,,,,,,,,,,,,,,,,,,,,,,,,,,,,,,,,,,,,,,,,,,,,,,,,,,,,,,,,,,,,,,,,,,,,,,,,,,,,,,,,,,,,,,,,,,,,,,,,
,,59f66e4e8a2d3d00012c1540,2024-02-18_23h14.21.264,kallum_motion_pilot,2023.2.2,Win32,3.99840064,59f66e4e8a2d3d00012c1540,65d2b6c8f2eece985d8e374c,65d2b8d30a1be52461736421,0.1841,0.1844,1,50,212,37,1,threefour,,,,,,,,,,,,,,,,,,,,,,,,,,,,,,,,,,,,,,,,,,,,,,,,,,,,,,,,,,,,,,,,,,,,,,,,,,,,,,,,,,,,,,,,,,,,,,,,,,,,,,,,,,,,,,,,,,,,,,,,,,,,,,,,,,,,,,,,,
,,59f66e4e8a2d3d00012c1540,2024-02-18_23h14.21.264,kallum_motion_pilot,2023.2.2,Win32,3.99840064,59f66e4e8a2d3d00012c1540,65d2b6c8f2eece985d8e374c,65d2b8d30a1be52461736421,0.1847,0.1851,1,51,213,92,1,sevenfive,,,,,,,,,,,,,,,,,,,,,,,,,,,,,,,,,,,,,,,,,,,,,,,,,,,,,,,,,,,,,,,,,,,,,,,,,,,,,,,,,,,,,,,,,,,,,,,,,,,,,,,,,,,,,,,,,,,,,,,,,,,,,,,,,,,,,,,,,
,,59f66e4e8a2d3d00012c1540,2024-02-18_23h14.21.264,kallum_motion_pilot,2023.2.2,Win32,3.99840064,59f66e4e8a2d3d00012c1540,65d2b6c8f2eece985d8e374c,65d2b8d30a1be52461736421,0.1854,0.1858,1,52,214,83,1,sixeight,,,,,,,,,,,,,,,,,,,,,,,,,,,,,,,,,,,,,,,,,,,,,,,,,,,,,,,,,,,,,,,,,,,,,,,,,,,,,,,,,,,,,,,,,,,,,,,,,,,,,,,,,,,,,,,,,,,,,,,,,,,,,,,,,,,,,,,,,
,,59f66e4e8a2d3d00012c1540,2024-02-18_23h14.21.264,kallum_motion_pilot,2023.2.2,Win32,3.99840064,59f66e4e8a2d3d00012c1540,65d2b6c8f2eece985d8e374c,65d2b8d30a1be52461736421,0.1862,0.1865,1,53,215,88,1,fivesix,,,,,,,,,,,,,,,,,,,,,,,,,,,,,,,,,,,,,,,,,,,,,,,,,,,,,,,,,,,,,,,,,,,,,,,,,,,,,,,,,,,,,,,,,,,,,,,,,,,,,,,,,,,,,,,,,,,,,,,,,,,,,,,,,,,,,,,,,
,,59f66e4e8a2d3d00012c1540,2024-02-18_23h14.21.264,kallum_motion_pilot,2023.2.2,Win32,3.99840064,59f66e4e8a2d3d00012c1540,65d2b6c8f2eece985d8e374c,65d2b8d30a1be52461736421,0.1873,0.1875,1,54,216,49,1,onethree,,,,,,,,,,,,,,,,,,,,,,,,,,,,,,,,,,,,,,,,,,,,,,,,,,,,,,,,,,,,,,,,,,,,,,,,,,,,,,,,,,,,,,,,,,,,,,,,,,,,,,,,,,,,,,,,,,,,,,,,,,,,,,,,,,,,,,,,,
,,59f66e4e8a2d3d00012c1540,2024-02-18_23h14.21.264,kallum_motion_pilot,2023.2.2,Win32,3.99840064,59f66e4e8a2d3d00012c1540,65d2b6c8f2eece985d8e374c,65d2b8d30a1be52461736421,0.1879,0.1881,1,55,217,144,1,fivesix,,,,,,,,,,,,,,,,,,,,,,,,,,,,,,,,,,,,,,,,,,,,,,,,,,,,,,,,,,,,,,,,,,,,,,,,,,,,,,,,,,,,,,,,,,,,,,,,,,,,,,,,,,,,,,,,,,,,,,,,,,,,,,,,,,,,,,,,,
,,59f66e4e8a2d3d00012c1540,2024-02-18_23h14.21.264,kallum_motion_pilot,2023.2.2,Win32,3.99840064,59f66e4e8a2d3d00012c1540,65d2b6c8f2eece985d8e374c,65d2b8d30a1be52461736421,0.1884,0.1885,1,56,218,26,1,twoone,,,,,,,,,,,,,,,,,,,,,,,,,,,,,,,,,,,,,,,,,,,,,,,,,,,,,,,,,,,,,,,,,,,,,,,,,,,,,,,,,,,,,,,,,,,,,,,,,,,,,,,,,,,,,,,,,,,,,,,,,,,,,,,,,,,,,,,,,
,,59f66e4e8a2d3d00012c1540,2024-02-18_23h14.21.264,kallum_motion_pilot,2023.2.2,Win32,3.99840064,59f66e4e8a2d3d00012c1540,65d2b6c8f2eece985d8e374c,65d2b8d30a1be52461736421,0.1904,0.1906,1,57,219,0,1,onetwo,,,,,,,,,,,,,,,,,,,,,,,,,,,,,,,,,,,,,,,,,,,,,,,,,,,,,,,,,,,,,,,,,,,,,,,,,,,,,,,,,,,,,,,,,,,,,,,,,,,,,,,,,,,,,,,,,,,,,,,,,,,,,,,,,,,,,,,,,
,,59f66e4e8a2d3d00012c1540,2024-02-18_23h14.21.264,kallum_motion_pilot,2023.2.2,Win32,3.99840064,59f66e4e8a2d3d00012c1540,65d2b6c8f2eece985d8e374c,65d2b8d30a1be52461736421,0.1914,0.1918,1,58,220,99,1,sixeight,,,,,,,,,,,,,,,,,,,,,,,,,,,,,,,,,,,,,,,,,,,,,,,,,,,,,,,,,,,,,,,,,,,,,,,,,,,,,,,,,,,,,,,,,,,,,,,,,,,,,,,,,,,,,,,,,,,,,,,,,,,,,,,,,,,,,,,,,
,,59f66e4e8a2d3d00012c1540,2024-02-18_23h14.21.264,kallum_motion_pilot,2023.2.2,Win32,3.99840064,59f66e4e8a2d3d00012c1540,65d2b6c8f2eece985d8e374c,65d2b8d30a1be52461736421,0.1924,0.1927,1,59,221,80,1,fivesix,,,,,,,,,,,,,,,,,,,,,,,,,,,,,,,,,,,,,,,,,,,,,,,,,,,,,,,,,,,,,,,,,,,,,,,,,,,,,,,,,,,,,,,,,,,,,,,,,,,,,,,,,,,,,,,,,,,,,,,,,,,,,,,,,,,,,,,,,
,,59f66e4e8a2d3d00012c1540,2024-02-18_23h14.21.264,kallum_motion_pilot,2023.2.2,Win32,3.99840064,59f66e4e8a2d3d00012c1540,65d2b6c8f2eece985d8e374c,65d2b8d30a1be52461736421,0.193,0.1935,1,60,222,74,1,twoone,,,,,,,,,,,,,,,,,,,,,,,,,,,,,,,,,,,,,,,,,,,,,,,,,,,,,,,,,,,,,,,,,,,,,,,,,,,,,,,,,,,,,,,,,,,,,,,,,,,,,,,,,,,,,,,,,,,,,,,,,,,,,,,,,,,,,,,,,
,,59f66e4e8a2d3d00012c1540,2024-02-18_23h14.21.264,kallum_motion_pilot,2023.2.2,Win32,3.99840064,59f66e4e8a2d3d00012c1540,65d2b6c8f2eece985d8e374c,65d2b8d30a1be52461736421,0.1939,0.194,1,61,223,4,1,threeone,,,,,,,,,,,,,,,,,,,,,,,,,,,,,,,,,,,,,,,,,,,,,,,,,,,,,,,,,,,,,,,,,,,,,,,,,,,,,,,,,,,,,,,,,,,,,,,,,,,,,,,,,,,,,,,,,,,,,,,,,,,,,,,,,,,,,,,,,
,,59f66e4e8a2d3d00012c1540,2024-02-18_23h14.21.264,kallum_motion_pilot,2023.2.2,Win32,3.99840064,59f66e4e8a2d3d00012c1540,65d2b6c8f2eece985d8e374c,65d2b8d30a1be52461736421,0.1944,0.1946,1,62,224,81,1,fiveseven,,,,,,,,,,,,,,,,,,,,,,,,,,,,,,,,,,,,,,,,,,,,,,,,,,,,,,,,,,,,,,,,,,,,,,,,,,,,,,,,,,,,,,,,,,,,,,,,,,,,,,,,,,,,,,,,,,,,,,,,,,,,,,,,,,,,,,,,,
,,59f66e4e8a2d3d00012c1540,2024-02-18_23h14.21.264,kallum_motion_pilot,2023.2.2,Win32,3.99840064,59f66e4e8a2d3d00012c1540,65d2b6c8f2eece985d8e374c,65d2b8d30a1be52461736421,0.1949,0.195,1,63,225,160,1,fivesix,,,,,,,,,,,,,,,,,,,,,,,,,,,,,,,,,,,,,,,,,,,,,,,,,,,,,,,,,,,,,,,,,,,,,,,,,,,,,,,,,,,,,,,,,,,,,,,,,,,,,,,,,,,,,,,,,,,,,,,,,,,,,,,,,,,,,,,,,
,,59f66e4e8a2d3d00012c1540,2024-02-18_23h14.21.264,kallum_motion_pilot,2023.2.2,Win32,3.99840064,59f66e4e8a2d3d00012c1540,65d2b6c8f2eece985d8e374c,65d2b8d30a1be52461736421,0.1953,0.1957,1,64,226,113,1,fiveseven,,,,,,,,,,,,,,,,,,,,,,,,,,,,,,,,,,,,,,,,,,,,,,,,,,,,,,,,,,,,,,,,,,,,,,,,,,,,,,,,,,,,,,,,,,,,,,,,,,,,,,,,,,,,,,,,,,,,,,,,,,,,,,,,,,,,,,,,,
,,59f66e4e8a2d3d00012c1540,2024-02-18_23h14.21.264,kallum_motion_pilot,2023.2.2,Win32,3.99840064,59f66e4e8a2d3d00012c1540,65d2b6c8f2eece985d8e374c,65d2b8d30a1be52461736421,0.1959,0.1962,1,65,227,112,1,fivesix,,,,,,,,,,,,,,,,,,,,,,,,,,,,,,,,,,,,,,,,,,,,,,,,,,,,,,,,,,,,,,,,,,,,,,,,,,,,,,,,,,,,,,,,,,,,,,,,,,,,,,,,,,,,,,,,,,,,,,,,,,,,,,,,,,,,,,,,,
,,59f66e4e8a2d3d00012c1540,2024-02-18_23h14.21.264,kallum_motion_pilot,2023.2.2,Win32,3.99840064,59f66e4e8a2d3d00012c1540,65d2b6c8f2eece985d8e374c,65d2b8d30a1be52461736421,0.1964,0.1967,1,66,228,97,1,fiveseven,,,,,,,,,,,,,,,,,,,,,,,,,,,,,,,,,,,,,,,,,,,,,,,,,,,,,,,,,,,,,,,,,,,,,,,,,,,,,,,,,,,,,,,,,,,,,,,,,,,,,,,,,,,,,,,,,,,,,,,,,,,,,,,,,,,,,,,,,
,,59f66e4e8a2d3d00012c1540,2024-02-18_23h14.21.264,kallum_motion_pilot,2023.2.2,Win32,3.99840064,59f66e4e8a2d3d00012c1540,65d2b6c8f2eece985d8e374c,65d2b8d30a1be52461736421,0.1969,0.1971,1,67,229,90,1,sixfive,,,,,,,,,,,,,,,,,,,,,,,,,,,,,,,,,,,,,,,,,,,,,,,,,,,,,,,,,,,,,,,,,,,,,,,,,,,,,,,,,,,,,,,,,,,,,,,,,,,,,,,,,,,,,,,,,,,,,,,,,,,,,,,,,,,,,,,,,
,,59f66e4e8a2d3d00012c1540,2024-02-18_23h14.21.264,kallum_motion_pilot,2023.2.2,Win32,3.99840064,59f66e4e8a2d3d00012c1540,65d2b6c8f2eece985d8e374c,65d2b8d30a1be52461736421,0.1973,0.1975,1,68,230,78,1,fourtwo,,,,,,,,,,,,,,,,,,,,,,,,,,,,,,,,,,,,,,,,,,,,,,,,,,,,,,,,,,,,,,,,,,,,,,,,,,,,,,,,,,,,,,,,,,,,,,,,,,,,,,,,,,,,,,,,,,,,,,,,,,,,,,,,,,,,,,,,,
,,59f66e4e8a2d3d00012c1540,2024-02-18_23h14.21.264,kallum_motion_pilot,2023.2.2,Win32,3.99840064,59f66e4e8a2d3d00012c1540,65d2b6c8f2eece985d8e374c,65d2b8d30a1be52461736421,0.1978,0.1979,1,69,231,84,1,sevenfive,,,,,,,,,,,,,,,,,,,,,,,,,,,,,,,,,,,,,,,,,,,,,,,,,,,,,,,,,,,,,,,,,,,,,,,,,,,,,,,,,,,,,,,,,,,,,,,,,,,,,,,,,,,,,,,,,,,,,,,,,,,,,,,,,,,,,,,,,
,,59f66e4e8a2d3d00012c1540,2024-02-18_23h14.21.264,kallum_motion_pilot,2023.2.2,Win32,3.99840064,59f66e4e8a2d3d00012c1540,65d2b6c8f2eece985d8e374c,65d2b8d30a1be52461736421,0.1982,0.1984,1,70,232,129,1,fiveseven,,,,,,,,,,,,,,,,,,,,,,,,,,,,,,,,,,,,,,,,,,,,,,,,,,,,,,,,,,,,,,,,,,,,,,,,,,,,,,,,,,,,,,,,,,,,,,,,,,,,,,,,,,,,,,,,,,,,,,,,,,,,,,,,,,,,,,,,,
,,59f66e4e8a2d3d00012c1540,2024-02-18_23h14.21.264,kallum_motion_pilot,2023.2.2,Win32,3.99840064,59f66e4e8a2d3d00012c1540,65d2b6c8f2eece985d8e374c,65d2b8d30a1be52461736421,0.1987,0.1989,1,71,233,18,1,twoone,,,,,,,,,,,,,,,,,,,,,,,,,,,,,,,,,,,,,,,,,,,,,,,,,,,,,,,,,,,,,,,,,,,,,,,,,,,,,,,,,,,,,,,,,,,,,,,,,,,,,,,,,,,,,,,,,,,,,,,,,,,,,,,,,,,,,,,,,
,,59f66e4e8a2d3d00012c1540,2024-02-18_23h14.21.264,kallum_motion_pilot,2023.2.2,Win32,3.99840064,59f66e4e8a2d3d00012c1540,65d2b6c8f2eece985d8e374c,65d2b8d30a1be52461736421,0.1992,0.1994,1,72,234,55,1,fourthree,,,,,,,,,,,,,,,,,,,,,,,,,,,,,,,,,,,,,,,,,,,,,,,,,,,,,,,,,,,,,,,,,,,,,,,,,,,,,,,,,,,,,,,,,,,,,,,,,,,,,,,,,,,,,,,,,,,,,,,,,,,,,,,,,,,,,,,,,
,,59f66e4e8a2d3d00012c1540,2024-02-18_23h14.21.264,kallum_motion_pilot,2023.2.2,Win32,3.99840064,59f66e4e8a2d3d00012c1540,65d2b6c8f2eece985d8e374c,65d2b8d30a1be52461736421,0.1996,0.1999,1,73,235,41,1,onethree,,,,,,,,,,,,,,,,,,,,,,,,,,,,,,,,,,,,,,,,,,,,,,,,,,,,,,,,,,,,,,,,,,,,,,,,,,,,,,,,,,,,,,,,,,,,,,,,,,,,,,,,,,,,,,,,,,,,,,,,,,,,,,,,,,,,,,,,,
,,59f66e4e8a2d3d00012c1540,2024-02-18_23h14.21.264,kallum_motion_pilot,2023.2.2,Win32,3.99840064,59f66e4e8a2d3d00012c1540,65d2b6c8f2eece985d8e374c,65d2b8d30a1be52461736421,0.2004,0.2005,1,74,236,141,1,seveneight,,,,,,,,,,,,,,,,,,,,,,,,,,,,,,,,,,,,,,,,,,,,,,,,,,,,,,,,,,,,,,,,,,,,,,,,,,,,,,,,,,,,,,,,,,,,,,,,,,,,,,,,,,,,,,,,,,,,,,,,,,,,,,,,,,,,,,,,,
,,59f66e4e8a2d3d00012c1540,2024-02-18_23h14.21.264,kallum_motion_pilot,2023.2.2,Win32,3.99840064,59f66e4e8a2d3d00012c1540,65d2b6c8f2eece985d8e374c,65d2b8d30a1be52461736421,0.2014,0.2016,1,75,237,14,1,fourtwo,,,,,,,,,,,,,,,,,,,,,,,,,,,,,,,,,,,,,,,,,,,,,,,,,,,,,,,,,,,,,,,,,,,,,,,,,,,,,,,,,,,,,,,,,,,,,,,,,,,,,,,,,,,,,,,,,,,,,,,,,,,,,,,,,,,,,,,,,
,,59f66e4e8a2d3d00012c1540,2024-02-18_23h14.21.264,kallum_motion_pilot,2023.2.2,Win32,3.99840064,59f66e4e8a2d3d00012c1540,65d2b6c8f2eece985d8e374c,65d2b8d30a1be52461736421,0.202,0.2024,1,76,238,68,1,threeone,,,,,,,,,,,,,,,,,,,,,,,,,,,,,,,,,,,,,,,,,,,,,,,,,,,,,,,,,,,,,,,,,,,,,,,,,,,,,,,,,,,,,,,,,,,,,,,,,,,,,,,,,,,,,,,,,,,,,,,,,,,,,,,,,,,,,,,,,
,,59f66e4e8a2d3d00012c1540,2024-02-18_23h14.21.264,kallum_motion_pilot,2023.2.2,Win32,3.99840064,59f66e4e8a2d3d00012c1540,65d2b6c8f2eece985d8e374c,65d2b8d30a1be52461736421,0.2027,0.2029,1,77,239,1,1,onethree,,,,,,,,,,,,,,,,,,,,,,,,,,,,,,,,,,,,,,,,,,,,,,,,,,,,,,,,,,,,,,,,,,,,,,,,,,,,,,,,,,,,,,,,,,,,,,,,,,,,,,,,,,,,,,,,,,,,,,,,,,,,,,,,,,,,,,,,,
,,59f66e4e8a2d3d00012c1540,2024-02-18_23h14.21.264,kallum_motion_pilot,2023.2.2,Win32,3.99840064,59f66e4e8a2d3d00012c1540,65d2b6c8f2eece985d8e374c,65d2b8d30a1be52461736421,0.2032,0.2035,1,78,240,105,1,fiveseven,,,,,,,,,,,,,,,,,,,,,,,,,,,,,,,,,,,,,,,,,,,,,,,,,,,,,,,,,,,,,,,,,,,,,,,,,,,,,,,,,,,,,,,,,,,,,,,,,,,,,,,,,,,,,,,,,,,,,,,,,,,,,,,,,,,,,,,,,
,,59f66e4e8a2d3d00012c1540,2024-02-18_23h14.21.264,kallum_motion_pilot,2023.2.2,Win32,3.99840064,59f66e4e8a2d3d00012c1540,65d2b6c8f2eece985d8e374c,65d2b8d30a1be52461736421,0.2039,0.2041,1,79,241,28,1,threeone,,,,,,,,,,,,,,,,,,,,,,,,,,,,,,,,,,,,,,,,,,,,,,,,,,,,,,,,,,,,,,,,,,,,,,,,,,,,,,,,,,,,,,,,,,,,,,,,,,,,,,,,,,,,,,,,,,,,,,,,,,,,,,,,,,,,,,,,,
,,59f66e4e8a2d3d00012c1540,2024-02-18_23h14.21.264,kallum_motion_pilot,2023.2.2,Win32,3.99840064,59f66e4e8a2d3d00012c1540,65d2b6c8f2eece985d8e374c,65d2b8d30a1be52461736421,0.2044,0.2047,1,80,242,132,1,sevenfive,,,,,,,,,,,,,,,,,,,,,,,,,,,,,,,,,,,,,,,,,,,,,,,,,,,,,,,,,,,,,,,,,,,,,,,,,,,,,,,,,,,,,,,,,,,,,,,,,,,,,,,,,,,,,,,,,,,,,,,,,,,,,,,,,,,,,,,,,
,,59f66e4e8a2d3d00012c1540,2024-02-18_23h14.21.264,kallum_motion_pilot,2023.2.2,Win32,3.99840064,59f66e4e8a2d3d00012c1540,65d2b6c8f2eece985d8e374c,65d2b8d30a1be52461736421,0.205,0.2052,1,81,243,40,1,onetwo,,,,,,,,,,,,,,,,,,,,,,,,,,,,,,,,,,,,,,,,,,,,,,,,,,,,,,,,,,,,,,,,,,,,,,,,,,,,,,,,,,,,,,,,,,,,,,,,,,,,,,,,,,,,,,,,,,,,,,,,,,,,,,,,,,,,,,,,,
,,59f66e4e8a2d3d00012c1540,2024-02-18_23h14.21.264,kallum_motion_pilot,2023.2.2,Win32,3.99840064,59f66e4e8a2d3d00012c1540,65d2b6c8f2eece985d8e374c,65d2b8d30a1be52461736421,0.2067,0.208,1,82,244,72,1,onetwo,,,,,,,,,,,,,,,,,,,,,,,,,,,,,,,,,,,,,,,,,,,,,,,,,,,,,,,,,,,,,,,,,,,,,,,,,,,,,,,,,,,,,,,,,,,,,,,,,,,,,,,,,,,,,,,,,,,,,,,,,,,,,,,,,,,,,,,,,
,,59f66e4e8a2d3d00012c1540,2024-02-18_23h14.21.264,kallum_motion_pilot,2023.2.2,Win32,3.99840064,59f66e4e8a2d3d00012c1540,65d2b6c8f2eece985d8e374c,65d2b8d30a1be52461736421,0.2084,0.2088,1,83,245,53,1,threefour,,,,,,,,,,,,,,,,,,,,,,,,,,,,,,,,,,,,,,,,,,,,,,,,,,,,,,,,,,,,,,,,,,,,,,,,,,,,,,,,,,,,,,,,,,,,,,,,,,,,,,,,,,,,,,,,,,,,,,,,,,,,,,,,,,,,,,,,,
,,59f66e4e8a2d3d00012c1540,2024-02-18_23h14.21.264,kallum_motion_pilot,2023.2.2,Win32,3.99840064,59f66e4e8a2d3d00012c1540,65d2b6c8f2eece985d8e374c,65d2b8d30a1be52461736421,0.2093,0.2095,1,84,246,61,1,threefour,,,,,,,,,,,,,,,,,,,,,,,,,,,,,,,,,,,,,,,,,,,,,,,,,,,,,,,,,,,,,,,,,,,,,,,,,,,,,,,,,,,,,,,,,,,,,,,,,,,,,,,,,,,,,,,,,,,,,,,,,,,,,,,,,,,,,,,,,
,,59f66e4e8a2d3d00012c1540,2024-02-18_23h14.21.264,kallum_motion_pilot,2023.2.2,Win32,3.99840064,59f66e4e8a2d3d00012c1540,65d2b6c8f2eece985d8e374c,65d2b8d30a1be52461736421,0.2101,0.2107,1,85,247,33,1,onethree,,,,,,,,,,,,,,,,,,,,,,,,,,,,,,,,,,,,,,,,,,,,,,,,,,,,,,,,,,,,,,,,,,,,,,,,,,,,,,,,,,,,,,,,,,,,,,,,,,,,,,,,,,,,,,,,,,,,,,,,,,,,,,,,,,,,,,,,,
,,59f66e4e8a2d3d00012c1540,2024-02-18_23h14.21.264,kallum_motion_pilot,2023.2.2,Win32,3.99840064,59f66e4e8a2d3d00012c1540,65d2b6c8f2eece985d8e374c,65d2b8d30a1be52461736421,0.2109,0.2113,1,86,248,20,1,threeone,,,,,,,,,,,,,,,,,,,,,,,,,,,,,,,,,,,,,,,,,,,,,,,,,,,,,,,,,,,,,,,,,,,,,,,,,,,,,,,,,,,,,,,,,,,,,,,,,,,,,,,,,,,,,,,,,,,,,,,,,,,,,,,,,,,,,,,,,
,,59f66e4e8a2d3d00012c1540,2024-02-18_23h14.21.264,kallum_motion_pilot,2023.2.2,Win32,3.99840064,59f66e4e8a2d3d00012c1540,65d2b6c8f2eece985d8e374c,65d2b8d30a1be52461736421,0.2117,0.2119,1,87,249,3,1,twofour,,,,,,,,,,,,,,,,,,,,,,,,,,,,,,,,,,,,,,,,,,,,,,,,,,,,,,,,,,,,,,,,,,,,,,,,,,,,,,,,,,,,,,,,,,,,,,,,,,,,,,,,,,,,,,,,,,,,,,,,,,,,,,,,,,,,,,,,,
,,59f66e4e8a2d3d00012c1540,2024-02-18_23h14.21.264,kallum_motion_pilot,2023.2.2,Win32,3.99840064,59f66e4e8a2d3d00012c1540,65d2b6c8f2eece985d8e374c,65d2b8d30a1be52461736421,0.2125,0.2127,1,88,250,76,1,threeone,,,,,,,,,,,,,,,,,,,,,,,,,,,,,,,,,,,,,,,,,,,,,,,,,,,,,,,,,,,,,,,,,,,,,,,,,,,,,,,,,,,,,,,,,,,,,,,,,,,,,,,,,,,,,,,,,,,,,,,,,,,,,,,,,,,,,,,,,
,,59f66e4e8a2d3d00012c1540,2024-02-18_23h14.21.264,kallum_motion_pilot,2023.2.2,Win32,3.99840064,59f66e4e8a2d3d00012c1540,65d2b6c8f2eece985d8e374c,65d2b8d30a1be52461736421,0.2133,0.2136,1,89,251,107,1,sixeight,,,,,,,,,,,,,,,,,,,,,,,,,,,,,,,,,,,,,,,,,,,,,,,,,,,,,,,,,,,,,,,,,,,,,,,,,,,,,,,,,,,,,,,,,,,,,,,,,,,,,,,,,,,,,,,,,,,,,,,,,,,,,,,,,,,,,,,,,
,,59f66e4e8a2d3d00012c1540,2024-02-18_23h14.21.264,kallum_motion_pilot,2023.2.2,Win32,3.99840064,59f66e4e8a2d3d00012c1540,65d2b6c8f2eece985d8e374c,65d2b8d30a1be52461736421,0.2142,0.2145,1,90,252,44,1,threeone,,,,,,,,,,,,,,,,,,,,,,,,,,,,,,,,,,,,,,,,,,,,,,,,,,,,,,,,,,,,,,,,,,,,,,,,,,,,,,,,,,,,,,,,,,,,,,,,,,,,,,,,,,,,,,,,,,,,,,,,,,,,,,,,,,,,,,,,,
,,59f66e4e8a2d3d00012c1540,2024-02-18_23h14.21.264,kallum_motion_pilot,2023.2.2,Win32,3.99840064,59f66e4e8a2d3d00012c1540,65d2b6c8f2eece985d8e374c,65d2b8d30a1be52461736421,0.2149,0.2151,1,91,253,118,1,eightsix,,,,,,,,,,,,,,,,,,,,,,,,,,,,,,,,,,,,,,,,,,,,,,,,,,,,,,,,,,,,,,,,,,,,,,,,,,,,,,,,,,,,,,,,,,,,,,,,,,,,,,,,,,,,,,,,,,,,,,,,,,,,,,,,,,,,,,,,,
,,59f66e4e8a2d3d00012c1540,2024-02-18_23h14.21.264,kallum_motion_pilot,2023.2.2,Win32,3.99840064,59f66e4e8a2d3d00012c1540,65d2b6c8f2eece985d8e374c,65d2b8d30a1be52461736421,0.2156,0.2158,1,92,254,11,1,twofour,,,,,,,,,,,,,,,,,,,,,,,,,,,,,,,,,,,,,,,,,,,,,,,,,,,,,,,,,,,,,,,,,,,,,,,,,,,,,,,,,,,,,,,,,,,,,,,,,,,,,,,,,,,,,,,,,,,,,,,,,,,,,,,,,,,,,,,,,
,,59f66e4e8a2d3d00012c1540,2024-02-18_23h14.21.264,kallum_motion_pilot,2023.2.2,Win32,3.99840064,59f66e4e8a2d3d00012c1540,65d2b6c8f2eece985d8e374c,65d2b8d30a1be52461736421,0.2162,0.2165,1,93,255,79,1,eightseven,,,,,,,,,,,,,,,,,,,,,,,,,,,,,,,,,,,,,,,,,,,,,,,,,,,,,,,,,,,,,,,,,,,,,,,,,,,,,,,,,,,,,,,,,,,,,,,,,,,,,,,,,,,,,,,,,,,,,,,,,,,,,,,,,,,,,,,,,
,,59f66e4e8a2d3d00012c1540,2024-02-18_23h14.21.264,kallum_motion_pilot,2023.2.2,Win32,3.99840064,59f66e4e8a2d3d00012c1540,65d2b6c8f2eece985d8e374c,65d2b8d30a1be52461736421,0.217,0.2171,1,94,256,25,1,onethree,,,,,,,,,,,,,,,,,,,,,,,,,,,,,,,,,,,,,,,,,,,,,,,,,,,,,,,,,,,,,,,,,,,,,,,,,,,,,,,,,,,,,,,,,,,,,,,,,,,,,,,,,,,,,,,,,,,,,,,,,,,,,,,,,,,,,,,,,
,,59f66e4e8a2d3d00012c1540,2024-02-18_23h14.21.264,kallum_motion_pilot,2023.2.2,Win32,3.99840064,59f66e4e8a2d3d00012c1540,65d2b6c8f2eece985d8e374c,65d2b8d30a1be52461736421,0.2175,0.2176,1,95,257,42,1,twoone,,,,,,,,,,,,,,,,,,,,,,,,,,,,,,,,,,,,,,,,,,,,,,,,,,,,,,,,,,,,,,,,,,,,,,,,,,,,,,,,,,,,,,,,,,,,,,,,,,,,,,,,,,,,,,,,,,,,,,,,,,,,,,,,,,,,,,,,,
,,59f66e4e8a2d3d00012c1540,2024-02-18_23h14.21.264,kallum_motion_pilot,2023.2.2,Win32,3.99840064,59f66e4e8a2d3d00012c1540,65d2b6c8f2eece985d8e374c,65d2b8d30a1be52461736421,0.2178,0.218,1,96,258,67,1,twofour,,,,,,,,,,,,,,,,,,,,,,,,,,,,,,,,,,,,,,,,,,,,,,,,,,,,,,,,,,,,,,,,,,,,,,,,,,,,,,,,,,,,,,,,,,,,,,,,,,,,,,,,,,,,,,,,,,,,,,,,,,,,,,,,,,,,,,,,,
,,59f66e4e8a2d3d00012c1540,2024-02-18_23h14.21.264,kallum_motion_pilot,2023.2.2,Win32,3.99840064,59f66e4e8a2d3d00012c1540,65d2b6c8f2eece985d8e374c,65d2b8d30a1be52461736421,0.2186,0.2189,1,97,259,156,1,sevenfive,,,,,,,,,,,,,,,,,,,,,,,,,,,,,,,,,,,,,,,,,,,,,,,,,,,,,,,,,,,,,,,,,,,,,,,,,,,,,,,,,,,,,,,,,,,,,,,,,,,,,,,,,,,,,,,,,,,,,,,,,,,,,,,,,,,,,,,,,
,,59f66e4e8a2d3d00012c1540,2024-02-18_23h14.21.264,kallum_motion_pilot,2023.2.2,Win32,3.99840064,59f66e4e8a2d3d00012c1540,65d2b6c8f2eece985d8e374c,65d2b8d30a1be52461736421,0.2192,0.2196,1,98,260,95,1,eightseven,,,,,,,,,,,,,,,,,,,,,,,,,,,,,,,,,,,,,,,,,,,,,,,,,,,,,,,,,,,,,,,,,,,,,,,,,,,,,,,,,,,,,,,,,,,,,,,,,,,,,,,,,,,,,,,,,,,,,,,,,,,,,,,,,,,,,,,,,
,,59f66e4e8a2d3d00012c1540,2024-02-18_23h14.21.264,kallum_motion_pilot,2023.2.2,Win32,3.99840064,59f66e4e8a2d3d00012c1540,65d2b6c8f2eece985d8e374c,65d2b8d30a1be52461736421,0.2199,0.2202,1,99,261,82,1,sixfive,,,,,,,,,,,,,,,,,,,,,,,,,,,,,,,,,,,,,,,,,,,,,,,,,,,,,,,,,,,,,,,,,,,,,,,,,,,,,,,,,,,,,,,,,,,,,,,,,,,,,,,,,,,,,,,,,,,,,,,,,,,,,,,,,,,,,,,,,
,,59f66e4e8a2d3d00012c1540,2024-02-18_23h14.21.264,kallum_motion_pilot,2023.2.2,Win32,3.99840064,59f66e4e8a2d3d00012c1540,65d2b6c8f2eece985d8e374c,65d2b8d30a1be52461736421,0.2204,0.2209,1,100,262,23,1,fourthree,,,,,,,,,,,,,,,,,,,,,,,,,,,,,,,,,,,,,,,,,,,,,,,,,,,,,,,,,,,,,,,,,,,,,,,,,,,,,,,,,,,,,,,,,,,,,,,,,,,,,,,,,,,,,,,,,,,,,,,,,,,,,,,,,,,,,,,,,
,,59f66e4e8a2d3d00012c1540,2024-02-18_23h14.21.264,kallum_motion_pilot,2023.2.2,Win32,3.99840064,59f66e4e8a2d3d00012c1540,65d2b6c8f2eece985d8e374c,65d2b8d30a1be52461736421,0.2213,0.2217,1,101,263,10,1,twoone,,,,,,,,,,,,,,,,,,,,,,,,,,,,,,,,,,,,,,,,,,,,,,,,,,,,,,,,,,,,,,,,,,,,,,,,,,,,,,,,,,,,,,,,,,,,,,,,,,,,,,,,,,,,,,,,,,,,,,,,,,,,,,,,,,,,,,,,,
,,59f66e4e8a2d3d00012c1540,2024-02-18_23h14.21.264,kallum_motion_pilot,2023.2.2,Win32,3.99840064,59f66e4e8a2d3d00012c1540,65d2b6c8f2eece985d8e374c,65d2b8d30a1be52461736421,0.2221,0.2233,1,102,264,89,1,fiveseven,,,,,,,,,,,,,,,,,,,,,,,,,,,,,,,,,,,,,,,,,,,,,,,,,,,,,,,,,,,,,,,,,,,,,,,,,,,,,,,,,,,,,,,,,,,,,,,,,,,,,,,,,,,,,,,,,,,,,,,,,,,,,,,,,,,,,,,,,
,,59f66e4e8a2d3d00012c1540,2024-02-18_23h14.21.264,kallum_motion_pilot,2023.2.2,Win32,3.99840064,59f66e4e8a2d3d00012c1540,65d2b6c8f2eece985d8e374c,65d2b8d30a1be52461736421,0.2243,0.2251,1,103,265,96,1,fivesix,,,,,,,,,,,,,,,,,,,,,,,,,,,,,,,,,,,,,,,,,,,,,,,,,,,,,,,,,,,,,,,,,,,,,,,,,,,,,,,,,,,,,,,,,,,,,,,,,,,,,,,,,,,,,,,,,,,,,,,,,,,,,,,,,,,,,,,,,
,,59f66e4e8a2d3d00012c1540,2024-02-18_23h14.21.264,kallum_motion_pilot,2023.2.2,Win32,3.99840064,59f66e4e8a2d3d00012c1540,65d2b6c8f2eece985d8e374c,65d2b8d30a1be52461736421,0.2258,0.2268,1,104,266,123,1,sixeight,,,,,,,,,,,,,,,,,,,,,,,,,,,,,,,,,,,,,,,,,,,,,,,,,,,,,,,,,,,,,,,,,,,,,,,,,,,,,,,,,,,,,,,,,,,,,,,,,,,,,,,,,,,,,,,,,,,,,,,,,,,,,,,,,,,,,,,,,
,,59f66e4e8a2d3d00012c1540,2024-02-18_23h14.21.264,kallum_motion_pilot,2023.2.2,Win32,3.99840064,59f66e4e8a2d3d00012c1540,65d2b6c8f2eece985d8e374c,65d2b8d30a1be52461736421,0.2283,0.2285,1,105,267,110,1,eightsix,,,,,,,,,,,,,,,,,,,,,,,,,,,,,,,,,,,,,,,,,,,,,,,,,,,,,,,,,,,,,,,,,,,,,,,,,,,,,,,,,,,,,,,,,,,,,,,,,,,,,,,,,,,,,,,,,,,,,,,,,,,,,,,,,,,,,,,,,
,,59f66e4e8a2d3d00012c1540,2024-02-18_23h14.21.264,kallum_motion_pilot,2023.2.2,Win32,3.99840064,59f66e4e8a2d3d00012c1540,65d2b6c8f2eece985d8e374c,65d2b8d30a1be52461736421,0.229,0.2295,1,106,268,131,1,sixeight,,,,,,,,,,,,,,,,,,,,,,,,,,,,,,,,,,,,,,,,,,,,,,,,,,,,,,,,,,,,,,,,,,,,,,,,,,,,,,,,,,,,,,,,,,,,,,,,,,,,,,,,,,,,,,,,,,,,,,,,,,,,,,,,,,,,,,,,,
,,59f66e4e8a2d3d00012c1540,2024-02-18_23h14.21.264,kallum_motion_pilot,2023.2.2,Win32,3.99840064,59f66e4e8a2d3d00012c1540,65d2b6c8f2eece985d8e374c,65d2b8d30a1be52461736421,0.2304,0.2306,1,107,269,134,1,eightsix,,,,,,,,,,,,,,,,,,,,,,,,,,,,,,,,,,,,,,,,,,,,,,,,,,,,,,,,,,,,,,,,,,,,,,,,,,,,,,,,,,,,,,,,,,,,,,,,,,,,,,,,,,,,,,,,,,,,,,,,,,,,,,,,,,,,,,,,,
,,59f66e4e8a2d3d00012c1540,2024-02-18_23h14.21.264,kallum_motion_pilot,2023.2.2,Win32,3.99840064,59f66e4e8a2d3d00012c1540,65d2b6c8f2eece985d8e374c,65d2b8d30a1be52461736421,0.231,0.2312,1,108,270,56,1,onetwo,,,,,,,,,,,,,,,,,,,,,,,,,,,,,,,,,,,,,,,,,,,,,,,,,,,,,,,,,,,,,,,,,,,,,,,,,,,,,,,,,,,,,,,,,,,,,,,,,,,,,,,,,,,,,,,,,,,,,,,,,,,,,,,,,,,,,,,,,
,,59f66e4e8a2d3d00012c1540,2024-02-18_23h14.21.264,kallum_motion_pilot,2023.2.2,Win32,3.99840064,59f66e4e8a2d3d00012c1540,65d2b6c8f2eece985d8e374c,65d2b8d30a1be52461736421,0.232,0.2323,1,109,271,22,1,fourtwo,,,,,,,,,,,,,,,,,,,,,,,,,,,,,,,,,,,,,,,,,,,,,,,,,,,,,,,,,,,,,,,,,,,,,,,,,,,,,,,,,,,,,,,,,,,,,,,,,,,,,,,,,,,,,,,,,,,,,,,,,,,,,,,,,,,,,,,,,
,,59f66e4e8a2d3d00012c1540,2024-02-18_23h14.21.264,kallum_motion_pilot,2023.2.2,Win32,3.99840064,59f66e4e8a2d3d00012c1540,65d2b6c8f2eece985d8e374c,65d2b8d30a1be52461736421,0.2327,0.233,1,110,272,128,1,fivesix,,,,,,,,,,,,,,,,,,,,,,,,,,,,,,,,,,,,,,,,,,,,,,,,,,,,,,,,,,,,,,,,,,,,,,,,,,,,,,,,,,,,,,,,,,,,,,,,,,,,,,,,,,,,,,,,,,,,,,,,,,,,,,,,,,,,,,,,,
,,59f66e4e8a2d3d00012c1540,2024-02-18_23h14.21.264,kallum_motion_pilot,2023.2.2,Win32,3.99840064,59f66e4e8a2d3d00012c1540,65d2b6c8f2eece985d8e374c,65d2b8d30a1be52461736421,0.2335,0.2339,1,111,273,59,1,twofour,,,,,,,,,,,,,,,,,,,,,,,,,,,,,,,,,,,,,,,,,,,,,,,,,,,,,,,,,,,,,,,,,,,,,,,,,,,,,,,,,,,,,,,,,,,,,,,,,,,,,,,,,,,,,,,,,,,,,,,,,,,,,,,,,,,,,,,,,
,,59f66e4e8a2d3d00012c1540,2024-02-18_23h14.21.264,kallum_motion_pilot,2023.2.2,Win32,3.99840064,59f66e4e8a2d3d00012c1540,65d2b6c8f2eece985d8e374c,65d2b8d30a1be52461736421,0.2343,0.2345,1,112,274,145,1,fiveseven,,,,,,,,,,,,,,,,,,,,,,,,,,,,,,,,,,,,,,,,,,,,,,,,,,,,,,,,,,,,,,,,,,,,,,,,,,,,,,,,,,,,,,,,,,,,,,,,,,,,,,,,,,,,,,,,,,,,,,,,,,,,,,,,,,,,,,,,,
,,59f66e4e8a2d3d00012c1540,2024-02-18_23h14.21.264,kallum_motion_pilot,2023.2.2,Win32,3.99840064,59f66e4e8a2d3d00012c1540,65d2b6c8f2eece985d8e374c,65d2b8d30a1be52461736421,0.2354,0.2357,1,113,275,71,1,fourthree,,,,,,,,,,,,,,,,,,,,,,,,,,,,,,,,,,,,,,,,,,,,,,,,,,,,,,,,,,,,,,,,,,,,,,,,,,,,,,,,,,,,,,,,,,,,,,,,,,,,,,,,,,,,,,,,,,,,,,,,,,,,,,,,,,,,,,,,,
,,59f66e4e8a2d3d00012c1540,2024-02-18_23h14.21.264,kallum_motion_pilot,2023.2.2,Win32,3.99840064,59f66e4e8a2d3d00012c1540,65d2b6c8f2eece985d8e374c,65d2b8d30a1be52461736421,0.2364,0.2367,1,114,276,157,1,seveneight,,,,,,,,,,,,,,,,,,,,,,,,,,,,,,,,,,,,,,,,,,,,,,,,,,,,,,,,,,,,,,,,,,,,,,,,,,,,,,,,,,,,,,,,,,,,,,,,,,,,,,,,,,,,,,,,,,,,,,,,,,,,,,,,,,,,,,,,,
,,59f66e4e8a2d3d00012c1540,2024-02-18_23h14.21.264,kallum_motion_pilot,2023.2.2,Win32,3.99840064,59f66e4e8a2d3d00012c1540,65d2b6c8f2eece985d8e374c,65d2b8d30a1be52461736421,0.2373,0.2376,1,115,277,155,1,sixeight,,,,,,,,,,,,,,,,,,,,,,,,,,,,,,,,,,,,,,,,,,,,,,,,,,,,,,,,,,,,,,,,,,,,,,,,,,,,,,,,,,,,,,,,,,,,,,,,,,,,,,,,,,,,,,,,,,,,,,,,,,,,,,,,,,,,,,,,,
,,59f66e4e8a2d3d00012c1540,2024-02-18_23h14.21.264,kallum_motion_pilot,2023.2.2,Win32,3.99840064,59f66e4e8a2d3d00012c1540,65d2b6c8f2eece985d8e374c,65d2b8d30a1be52461736421,0.238,0.2385,1,116,278,159,1,eightseven,,,,,,,,,,,,,,,,,,,,,,,,,,,,,,,,,,,,,,,,,,,,,,,,,,,,,,,,,,,,,,,,,,,,,,,,,,,,,,,,,,,,,,,,,,,,,,,,,,,,,,,,,,,,,,,,,,,,,,,,,,,,,,,,,,,,,,,,,
