startup.started,startup.stopped,Prolific ID*,date,expName,psychopyVersion,OS,frameRate,participant,study_id,session,stimpositions.started,stimpositions.stopped,hardcoded_stimulus_positions.thisRepN,hardcoded_stimulus_positions.thisTrialN,hardcoded_stimulus_positions.thisN,hardcoded_stimulus_positions.thisIndex,hardcoded_stimulus_positions.ran,StimulusPos,stimorientation.started,stimorientation.stopped,prac_stimorientation_import_loop.thisRepN,prac_stimorientation_import_loop.thisTrialN,prac_stimorientation_import_loop.thisN,prac_stimorientation_import_loop.thisIndex,prac_stimorientation_import_loop.ran,Stimorientation,welcome_instr.started,welcome_instr.stopped,key_resp.keys,key_resp.rt,key_resp.duration,response_steppedout_1.started,response_steppedout_1.stopped,key_resp_20.keys,key_resp_20.rt,key_resp_20.duration,response_steppedout_2.started,response_steppedout_2.stopped,key_resp_19.keys,key_resp_19.rt,key_resp_19.duration,stim_response_instr.started,stim_response_instr.stopped,key_resp_15.keys,key_resp_15.rt,key_resp_15.duration,direction_instr_2.started,direction_instr_2.stopped,key_resp_9.keys,key_resp_9.rt,key_resp_9.duration,instr_prac.started,instr_prac.stopped,key_resp_10.keys,key_resp_10.rt,key_resp_10.duration,Stim1_display_prac.started,Stim1_display_prac.stopped,Ecc,Circle1_ori,Circle2_ori,response_prac.started,similarity,response_time,response_prac.stopped,mouse_5.x,mouse_5.y,mouse_5.leftButton,mouse_5.midButton,mouse_5.rightButton,mouse_5.clicked_name,responseprac_feedback.started,responseprac_feedback.stopped,summary2_prac.started,summary2_prac.stopped,mouse_6.x,mouse_6.y,mouse_6.leftButton,mouse_6.midButton,mouse_6.rightButton,mouse_6.clicked_name,duringprac.thisRepN,duringprac.thisTrialN,duringprac.thisN,duringprac.thisIndex,duringprac.ran,begin.started,begin.stopped,key_resp_22.keys,key_resp_22.rt,key_resp_22.duration,Stim1_display.started,Stim1_display.stopped,circle1_ori,circle2_ori,circle1_SF,circle2_SF,response.started,response.stopped,mouse.x,mouse.y,mouse.leftButton,mouse.midButton,mouse.rightButton,mouse.clicked_name,trialnumber,double_pass.thisRepN,double_pass.thisTrialN,double_pass.thisN,double_pass.thisIndex,double_pass.ran,double_pass.order,main_trial.thisRepN,main_trial.thisTrialN,main_trial.thisN,main_trial.thisIndex,main_trial.ran,main_trial.order,Trial_Counter,Catch,Frequencies,response_2.started,response_2.stopped,mouse_2.x,mouse_2.y,mouse_2.leftButton,mouse_2.midButton,mouse_2.rightButton,mouse_2.clicked_name,special_trial.started,special_trial.stopped,catch_1.started,catch_1.stopped,mouse_3.x,mouse_3.y,mouse_3.leftButton,mouse_3.midButton,mouse_3.rightButton,catchresponse,catchnumber,response_time_catch,response_sum.started,response_sum.stopped,mouse_11.x,mouse_11.y,mouse_11.leftButton,mouse_11.midButton,mouse_11.rightButton,flip_presentation_sequence_for_double_pass.started,flip_presentation_sequence_for_double_pass.stopped,goodbye.started,goodbye.stopped,key_resp_3.keys,key_resp_3.rt,key_resp_3.duration
0.002,0.002,5abfadbafa3b4e0001733be0,2024-02-18_20h13.40.952,kallum_motion_pilot,2023.2.2,Win32,62.5,5abfadbafa3b4e0001733be0,65d2b6c8f2eece985d8e374c,65d2b93dab9f1aa3eae61f8c,,,,,,,,,,,,,,,,,,,,,,,,,,,,,,,,,,,,,,,,,,,,,,,,,,,,,,,,,,,,,,,,,,,,,,,,,,,,,,,,,,,,,,,,,,,,,,,,,,,,,,,,,,,,,,,,,,,,,,,,,,,,,,,,,,,,,,,,,,,,,,,,,
,,5abfadbafa3b4e0001733be0,2024-02-18_20h13.40.952,kallum_motion_pilot,2023.2.2,Win32,62.5,5abfadbafa3b4e0001733be0,65d2b6c8f2eece985d8e374c,65d2b93dab9f1aa3eae61f8c,0.055,0.055,0,0,0,73,1,onethree,,,,,,,,,,,,,,,,,,,,,,,,,,,,,,,,,,,,,,,,,,,,,,,,,,,,,,,,,,,,,,,,,,,,,,,,,,,,,,,,,,,,,,,,,,,,,,,,,,,,,,,,,,,,,,,,,,,,,,,,,,,,,,,,,,,,,,,,,
,,5abfadbafa3b4e0001733be0,2024-02-18_20h13.40.952,kallum_motion_pilot,2023.2.2,Win32,62.5,5abfadbafa3b4e0001733be0,65d2b6c8f2eece985d8e374c,65d2b93dab9f1aa3eae61f8c,0.056,0.056,0,1,1,55,1,fourthree,,,,,,,,,,,,,,,,,,,,,,,,,,,,,,,,,,,,,,,,,,,,,,,,,,,,,,,,,,,,,,,,,,,,,,,,,,,,,,,,,,,,,,,,,,,,,,,,,,,,,,,,,,,,,,,,,,,,,,,,,,,,,,,,,,,,,,,,,
,,5abfadbafa3b4e0001733be0,2024-02-18_20h13.40.952,kallum_motion_pilot,2023.2.2,Win32,62.5,5abfadbafa3b4e0001733be0,65d2b6c8f2eece985d8e374c,65d2b93dab9f1aa3eae61f8c,0.057,0.058,0,2,2,152,1,fivesix,,,,,,,,,,,,,,,,,,,,,,,,,,,,,,,,,,,,,,,,,,,,,,,,,,,,,,,,,,,,,,,,,,,,,,,,,,,,,,,,,,,,,,,,,,,,,,,,,,,,,,,,,,,,,,,,,,,,,,,,,,,,,,,,,,,,,,,,,
,,5abfadbafa3b4e0001733be0,2024-02-18_20h13.40.952,kallum_motion_pilot,2023.2.2,Win32,62.5,5abfadbafa3b4e0001733be0,65d2b6c8f2eece985d8e374c,65d2b93dab9f1aa3eae61f8c,0.058,0.058,0,3,3,78,1,fourtwo,,,,,,,,,,,,,,,,,,,,,,,,,,,,,,,,,,,,,,,,,,,,,,,,,,,,,,,,,,,,,,,,,,,,,,,,,,,,,,,,,,,,,,,,,,,,,,,,,,,,,,,,,,,,,,,,,,,,,,,,,,,,,,,,,,,,,,,,,
,,5abfadbafa3b4e0001733be0,2024-02-18_20h13.40.952,kallum_motion_pilot,2023.2.2,Win32,62.5,5abfadbafa3b4e0001733be0,65d2b6c8f2eece985d8e374c,65d2b93dab9f1aa3eae61f8c,0.058,0.058,0,4,4,160,1,fivesix,,,,,,,,,,,,,,,,,,,,,,,,,,,,,,,,,,,,,,,,,,,,,,,,,,,,,,,,,,,,,,,,,,,,,,,,,,,,,,,,,,,,,,,,,,,,,,,,,,,,,,,,,,,,,,,,,,,,,,,,,,,,,,,,,,,,,,,,,
,,5abfadbafa3b4e0001733be0,2024-02-18_20h13.40.952,kallum_motion_pilot,2023.2.2,Win32,62.5,5abfadbafa3b4e0001733be0,65d2b6c8f2eece985d8e374c,65d2b93dab9f1aa3eae61f8c,0.058,0.058,0,5,5,20,1,threeone,,,,,,,,,,,,,,,,,,,,,,,,,,,,,,,,,,,,,,,,,,,,,,,,,,,,,,,,,,,,,,,,,,,,,,,,,,,,,,,,,,,,,,,,,,,,,,,,,,,,,,,,,,,,,,,,,,,,,,,,,,,,,,,,,,,,,,,,,
,,5abfadbafa3b4e0001733be0,2024-02-18_20h13.40.952,kallum_motion_pilot,2023.2.2,Win32,62.5,5abfadbafa3b4e0001733be0,65d2b6c8f2eece985d8e374c,65d2b93dab9f1aa3eae61f8c,0.059,0.06,0,6,6,105,1,fiveseven,,,,,,,,,,,,,,,,,,,,,,,,,,,,,,,,,,,,,,,,,,,,,,,,,,,,,,,,,,,,,,,,,,,,,,,,,,,,,,,,,,,,,,,,,,,,,,,,,,,,,,,,,,,,,,,,,,,,,,,,,,,,,,,,,,,,,,,,,
,,5abfadbafa3b4e0001733be0,2024-02-18_20h13.40.952,kallum_motion_pilot,2023.2.2,Win32,62.5,5abfadbafa3b4e0001733be0,65d2b6c8f2eece985d8e374c,65d2b93dab9f1aa3eae61f8c,0.06,0.06,0,7,7,104,1,fivesix,,,,,,,,,,,,,,,,,,,,,,,,,,,,,,,,,,,,,,,,,,,,,,,,,,,,,,,,,,,,,,,,,,,,,,,,,,,,,,,,,,,,,,,,,,,,,,,,,,,,,,,,,,,,,,,,,,,,,,,,,,,,,,,,,,,,,,,,,
,,5abfadbafa3b4e0001733be0,2024-02-18_20h13.40.952,kallum_motion_pilot,2023.2.2,Win32,62.5,5abfadbafa3b4e0001733be0,65d2b6c8f2eece985d8e374c,65d2b93dab9f1aa3eae61f8c,0.061,0.061,0,8,8,134,1,eightsix,,,,,,,,,,,,,,,,,,,,,,,,,,,,,,,,,,,,,,,,,,,,,,,,,,,,,,,,,,,,,,,,,,,,,,,,,,,,,,,,,,,,,,,,,,,,,,,,,,,,,,,,,,,,,,,,,,,,,,,,,,,,,,,,,,,,,,,,,
,,5abfadbafa3b4e0001733be0,2024-02-18_20h13.40.952,kallum_motion_pilot,2023.2.2,Win32,62.5,5abfadbafa3b4e0001733be0,65d2b6c8f2eece985d8e374c,65d2b93dab9f1aa3eae61f8c,0.061,0.062,0,9,9,38,1,fourtwo,,,,,,,,,,,,,,,,,,,,,,,,,,,,,,,,,,,,,,,,,,,,,,,,,,,,,,,,,,,,,,,,,,,,,,,,,,,,,,,,,,,,,,,,,,,,,,,,,,,,,,,,,,,,,,,,,,,,,,,,,,,,,,,,,,,,,,,,,
,,5abfadbafa3b4e0001733be0,2024-02-18_20h13.40.952,kallum_motion_pilot,2023.2.2,Win32,62.5,5abfadbafa3b4e0001733be0,65d2b6c8f2eece985d8e374c,65d2b93dab9f1aa3eae61f8c,0.062,0.062,0,10,10,137,1,fiveseven,,,,,,,,,,,,,,,,,,,,,,,,,,,,,,,,,,,,,,,,,,,,,,,,,,,,,,,,,,,,,,,,,,,,,,,,,,,,,,,,,,,,,,,,,,,,,,,,,,,,,,,,,,,,,,,,,,,,,,,,,,,,,,,,,,,,,,,,,
,,5abfadbafa3b4e0001733be0,2024-02-18_20h13.40.952,kallum_motion_pilot,2023.2.2,Win32,62.5,5abfadbafa3b4e0001733be0,65d2b6c8f2eece985d8e374c,65d2b93dab9f1aa3eae61f8c,0.062,0.062,0,11,11,9,1,onethree,,,,,,,,,,,,,,,,,,,,,,,,,,,,,,,,,,,,,,,,,,,,,,,,,,,,,,,,,,,,,,,,,,,,,,,,,,,,,,,,,,,,,,,,,,,,,,,,,,,,,,,,,,,,,,,,,,,,,,,,,,,,,,,,,,,,,,,,,
,,5abfadbafa3b4e0001733be0,2024-02-18_20h13.40.952,kallum_motion_pilot,2023.2.2,Win32,62.5,5abfadbafa3b4e0001733be0,65d2b6c8f2eece985d8e374c,65d2b93dab9f1aa3eae61f8c,0.063,0.063,0,12,12,77,1,threefour,,,,,,,,,,,,,,,,,,,,,,,,,,,,,,,,,,,,,,,,,,,,,,,,,,,,,,,,,,,,,,,,,,,,,,,,,,,,,,,,,,,,,,,,,,,,,,,,,,,,,,,,,,,,,,,,,,,,,,,,,,,,,,,,,,,,,,,,,
,,5abfadbafa3b4e0001733be0,2024-02-18_20h13.40.952,kallum_motion_pilot,2023.2.2,Win32,62.5,5abfadbafa3b4e0001733be0,65d2b6c8f2eece985d8e374c,65d2b93dab9f1aa3eae61f8c,0.064,0.064,0,13,13,54,1,fourtwo,,,,,,,,,,,,,,,,,,,,,,,,,,,,,,,,,,,,,,,,,,,,,,,,,,,,,,,,,,,,,,,,,,,,,,,,,,,,,,,,,,,,,,,,,,,,,,,,,,,,,,,,,,,,,,,,,,,,,,,,,,,,,,,,,,,,,,,,,
,,5abfadbafa3b4e0001733be0,2024-02-18_20h13.40.952,kallum_motion_pilot,2023.2.2,Win32,62.5,5abfadbafa3b4e0001733be0,65d2b6c8f2eece985d8e374c,65d2b93dab9f1aa3eae61f8c,0.064,0.064,0,14,14,70,1,fourtwo,,,,,,,,,,,,,,,,,,,,,,,,,,,,,,,,,,,,,,,,,,,,,,,,,,,,,,,,,,,,,,,,,,,,,,,,,,,,,,,,,,,,,,,,,,,,,,,,,,,,,,,,,,,,,,,,,,,,,,,,,,,,,,,,,,,,,,,,,
,,5abfadbafa3b4e0001733be0,2024-02-18_20h13.40.952,kallum_motion_pilot,2023.2.2,Win32,62.5,5abfadbafa3b4e0001733be0,65d2b6c8f2eece985d8e374c,65d2b93dab9f1aa3eae61f8c,0.064,0.064,0,15,15,117,1,seveneight,,,,,,,,,,,,,,,,,,,,,,,,,,,,,,,,,,,,,,,,,,,,,,,,,,,,,,,,,,,,,,,,,,,,,,,,,,,,,,,,,,,,,,,,,,,,,,,,,,,,,,,,,,,,,,,,,,,,,,,,,,,,,,,,,,,,,,,,,
,,5abfadbafa3b4e0001733be0,2024-02-18_20h13.40.952,kallum_motion_pilot,2023.2.2,Win32,62.5,5abfadbafa3b4e0001733be0,65d2b6c8f2eece985d8e374c,65d2b93dab9f1aa3eae61f8c,0.064,0.064,0,16,16,1,1,onethree,,,,,,,,,,,,,,,,,,,,,,,,,,,,,,,,,,,,,,,,,,,,,,,,,,,,,,,,,,,,,,,,,,,,,,,,,,,,,,,,,,,,,,,,,,,,,,,,,,,,,,,,,,,,,,,,,,,,,,,,,,,,,,,,,,,,,,,,,
,,5abfadbafa3b4e0001733be0,2024-02-18_20h13.40.952,kallum_motion_pilot,2023.2.2,Win32,62.5,5abfadbafa3b4e0001733be0,65d2b6c8f2eece985d8e374c,65d2b93dab9f1aa3eae61f8c,0.064,0.064,0,17,17,132,1,sevenfive,,,,,,,,,,,,,,,,,,,,,,,,,,,,,,,,,,,,,,,,,,,,,,,,,,,,,,,,,,,,,,,,,,,,,,,,,,,,,,,,,,,,,,,,,,,,,,,,,,,,,,,,,,,,,,,,,,,,,,,,,,,,,,,,,,,,,,,,,
,,5abfadbafa3b4e0001733be0,2024-02-18_20h13.40.952,kallum_motion_pilot,2023.2.2,Win32,62.5,5abfadbafa3b4e0001733be0,65d2b6c8f2eece985d8e374c,65d2b93dab9f1aa3eae61f8c,0.065,0.065,0,18,18,151,1,eightseven,,,,,,,,,,,,,,,,,,,,,,,,,,,,,,,,,,,,,,,,,,,,,,,,,,,,,,,,,,,,,,,,,,,,,,,,,,,,,,,,,,,,,,,,,,,,,,,,,,,,,,,,,,,,,,,,,,,,,,,,,,,,,,,,,,,,,,,,,
,,5abfadbafa3b4e0001733be0,2024-02-18_20h13.40.952,kallum_motion_pilot,2023.2.2,Win32,62.5,5abfadbafa3b4e0001733be0,65d2b6c8f2eece985d8e374c,65d2b93dab9f1aa3eae61f8c,0.065,0.065,0,19,19,48,1,onetwo,,,,,,,,,,,,,,,,,,,,,,,,,,,,,,,,,,,,,,,,,,,,,,,,,,,,,,,,,,,,,,,,,,,,,,,,,,,,,,,,,,,,,,,,,,,,,,,,,,,,,,,,,,,,,,,,,,,,,,,,,,,,,,,,,,,,,,,,,
,,5abfadbafa3b4e0001733be0,2024-02-18_20h13.40.952,kallum_motion_pilot,2023.2.2,Win32,62.5,5abfadbafa3b4e0001733be0,65d2b6c8f2eece985d8e374c,65d2b93dab9f1aa3eae61f8c,0.065,0.065,0,20,20,155,1,sixeight,,,,,,,,,,,,,,,,,,,,,,,,,,,,,,,,,,,,,,,,,,,,,,,,,,,,,,,,,,,,,,,,,,,,,,,,,,,,,,,,,,,,,,,,,,,,,,,,,,,,,,,,,,,,,,,,,,,,,,,,,,,,,,,,,,,,,,,,,
,,5abfadbafa3b4e0001733be0,2024-02-18_20h13.40.952,kallum_motion_pilot,2023.2.2,Win32,62.5,5abfadbafa3b4e0001733be0,65d2b6c8f2eece985d8e374c,65d2b93dab9f1aa3eae61f8c,0.067,0.067,0,21,21,147,1,sixeight,,,,,,,,,,,,,,,,,,,,,,,,,,,,,,,,,,,,,,,,,,,,,,,,,,,,,,,,,,,,,,,,,,,,,,,,,,,,,,,,,,,,,,,,,,,,,,,,,,,,,,,,,,,,,,,,,,,,,,,,,,,,,,,,,,,,,,,,,
,,5abfadbafa3b4e0001733be0,2024-02-18_20h13.40.952,kallum_motion_pilot,2023.2.2,Win32,62.5,5abfadbafa3b4e0001733be0,65d2b6c8f2eece985d8e374c,65d2b93dab9f1aa3eae61f8c,0.067,0.067,0,22,22,50,1,twoone,,,,,,,,,,,,,,,,,,,,,,,,,,,,,,,,,,,,,,,,,,,,,,,,,,,,,,,,,,,,,,,,,,,,,,,,,,,,,,,,,,,,,,,,,,,,,,,,,,,,,,,,,,,,,,,,,,,,,,,,,,,,,,,,,,,,,,,,,
,,5abfadbafa3b4e0001733be0,2024-02-18_20h13.40.952,kallum_motion_pilot,2023.2.2,Win32,62.5,5abfadbafa3b4e0001733be0,65d2b6c8f2eece985d8e374c,65d2b93dab9f1aa3eae61f8c,0.068,0.068,0,23,23,115,1,sixeight,,,,,,,,,,,,,,,,,,,,,,,,,,,,,,,,,,,,,,,,,,,,,,,,,,,,,,,,,,,,,,,,,,,,,,,,,,,,,,,,,,,,,,,,,,,,,,,,,,,,,,,,,,,,,,,,,,,,,,,,,,,,,,,,,,,,,,,,,
,,5abfadbafa3b4e0001733be0,2024-02-18_20h13.40.952,kallum_motion_pilot,2023.2.2,Win32,62.5,5abfadbafa3b4e0001733be0,65d2b6c8f2eece985d8e374c,65d2b93dab9f1aa3eae61f8c,0.068,0.068,0,24,24,45,1,threefour,,,,,,,,,,,,,,,,,,,,,,,,,,,,,,,,,,,,,,,,,,,,,,,,,,,,,,,,,,,,,,,,,,,,,,,,,,,,,,,,,,,,,,,,,,,,,,,,,,,,,,,,,,,,,,,,,,,,,,,,,,,,,,,,,,,,,,,,,
,,5abfadbafa3b4e0001733be0,2024-02-18_20h13.40.952,kallum_motion_pilot,2023.2.2,Win32,62.5,5abfadbafa3b4e0001733be0,65d2b6c8f2eece985d8e374c,65d2b93dab9f1aa3eae61f8c,0.068,0.068,0,25,25,106,1,sixfive,,,,,,,,,,,,,,,,,,,,,,,,,,,,,,,,,,,,,,,,,,,,,,,,,,,,,,,,,,,,,,,,,,,,,,,,,,,,,,,,,,,,,,,,,,,,,,,,,,,,,,,,,,,,,,,,,,,,,,,,,,,,,,,,,,,,,,,,,
,,5abfadbafa3b4e0001733be0,2024-02-18_20h13.40.952,kallum_motion_pilot,2023.2.2,Win32,62.5,5abfadbafa3b4e0001733be0,65d2b6c8f2eece985d8e374c,65d2b93dab9f1aa3eae61f8c,0.069,0.07,0,26,26,76,1,threeone,,,,,,,,,,,,,,,,,,,,,,,,,,,,,,,,,,,,,,,,,,,,,,,,,,,,,,,,,,,,,,,,,,,,,,,,,,,,,,,,,,,,,,,,,,,,,,,,,,,,,,,,,,,,,,,,,,,,,,,,,,,,,,,,,,,,,,,,,
,,5abfadbafa3b4e0001733be0,2024-02-18_20h13.40.952,kallum_motion_pilot,2023.2.2,Win32,62.5,5abfadbafa3b4e0001733be0,65d2b6c8f2eece985d8e374c,65d2b93dab9f1aa3eae61f8c,0.07,0.07,0,27,27,95,1,eightseven,,,,,,,,,,,,,,,,,,,,,,,,,,,,,,,,,,,,,,,,,,,,,,,,,,,,,,,,,,,,,,,,,,,,,,,,,,,,,,,,,,,,,,,,,,,,,,,,,,,,,,,,,,,,,,,,,,,,,,,,,,,,,,,,,,,,,,,,,
,,5abfadbafa3b4e0001733be0,2024-02-18_20h13.40.952,kallum_motion_pilot,2023.2.2,Win32,62.5,5abfadbafa3b4e0001733be0,65d2b6c8f2eece985d8e374c,65d2b93dab9f1aa3eae61f8c,0.071,0.071,0,28,28,79,1,eightseven,,,,,,,,,,,,,,,,,,,,,,,,,,,,,,,,,,,,,,,,,,,,,,,,,,,,,,,,,,,,,,,,,,,,,,,,,,,,,,,,,,,,,,,,,,,,,,,,,,,,,,,,,,,,,,,,,,,,,,,,,,,,,,,,,,,,,,,,,
,,5abfadbafa3b4e0001733be0,2024-02-18_20h13.40.952,kallum_motion_pilot,2023.2.2,Win32,62.5,5abfadbafa3b4e0001733be0,65d2b6c8f2eece985d8e374c,65d2b93dab9f1aa3eae61f8c,0.071,0.071,0,29,29,31,1,fourthree,,,,,,,,,,,,,,,,,,,,,,,,,,,,,,,,,,,,,,,,,,,,,,,,,,,,,,,,,,,,,,,,,,,,,,,,,,,,,,,,,,,,,,,,,,,,,,,,,,,,,,,,,,,,,,,,,,,,,,,,,,,,,,,,,,,,,,,,,
,,5abfadbafa3b4e0001733be0,2024-02-18_20h13.40.952,kallum_motion_pilot,2023.2.2,Win32,62.5,5abfadbafa3b4e0001733be0,65d2b6c8f2eece985d8e374c,65d2b93dab9f1aa3eae61f8c,0.072,0.072,0,30,30,135,1,eightseven,,,,,,,,,,,,,,,,,,,,,,,,,,,,,,,,,,,,,,,,,,,,,,,,,,,,,,,,,,,,,,,,,,,,,,,,,,,,,,,,,,,,,,,,,,,,,,,,,,,,,,,,,,,,,,,,,,,,,,,,,,,,,,,,,,,,,,,,,
,,5abfadbafa3b4e0001733be0,2024-02-18_20h13.40.952,kallum_motion_pilot,2023.2.2,Win32,62.5,5abfadbafa3b4e0001733be0,65d2b6c8f2eece985d8e374c,65d2b93dab9f1aa3eae61f8c,0.072,0.072,0,31,31,114,1,sixfive,,,,,,,,,,,,,,,,,,,,,,,,,,,,,,,,,,,,,,,,,,,,,,,,,,,,,,,,,,,,,,,,,,,,,,,,,,,,,,,,,,,,,,,,,,,,,,,,,,,,,,,,,,,,,,,,,,,,,,,,,,,,,,,,,,,,,,,,,
,,5abfadbafa3b4e0001733be0,2024-02-18_20h13.40.952,kallum_motion_pilot,2023.2.2,Win32,62.5,5abfadbafa3b4e0001733be0,65d2b6c8f2eece985d8e374c,65d2b93dab9f1aa3eae61f8c,0.073,0.073,0,32,32,74,1,twoone,,,,,,,,,,,,,,,,,,,,,,,,,,,,,,,,,,,,,,,,,,,,,,,,,,,,,,,,,,,,,,,,,,,,,,,,,,,,,,,,,,,,,,,,,,,,,,,,,,,,,,,,,,,,,,,,,,,,,,,,,,,,,,,,,,,,,,,,,
,,5abfadbafa3b4e0001733be0,2024-02-18_20h13.40.952,kallum_motion_pilot,2023.2.2,Win32,62.5,5abfadbafa3b4e0001733be0,65d2b6c8f2eece985d8e374c,65d2b93dab9f1aa3eae61f8c,0.073,0.073,0,33,33,158,1,eightsix,,,,,,,,,,,,,,,,,,,,,,,,,,,,,,,,,,,,,,,,,,,,,,,,,,,,,,,,,,,,,,,,,,,,,,,,,,,,,,,,,,,,,,,,,,,,,,,,,,,,,,,,,,,,,,,,,,,,,,,,,,,,,,,,,,,,,,,,,
,,5abfadbafa3b4e0001733be0,2024-02-18_20h13.40.952,kallum_motion_pilot,2023.2.2,Win32,62.5,5abfadbafa3b4e0001733be0,65d2b6c8f2eece985d8e374c,65d2b93dab9f1aa3eae61f8c,0.074,0.074,0,34,34,56,1,onetwo,,,,,,,,,,,,,,,,,,,,,,,,,,,,,,,,,,,,,,,,,,,,,,,,,,,,,,,,,,,,,,,,,,,,,,,,,,,,,,,,,,,,,,,,,,,,,,,,,,,,,,,,,,,,,,,,,,,,,,,,,,,,,,,,,,,,,,,,,
,,5abfadbafa3b4e0001733be0,2024-02-18_20h13.40.952,kallum_motion_pilot,2023.2.2,Win32,62.5,5abfadbafa3b4e0001733be0,65d2b6c8f2eece985d8e374c,65d2b93dab9f1aa3eae61f8c,0.075,0.075,0,35,35,109,1,seveneight,,,,,,,,,,,,,,,,,,,,,,,,,,,,,,,,,,,,,,,,,,,,,,,,,,,,,,,,,,,,,,,,,,,,,,,,,,,,,,,,,,,,,,,,,,,,,,,,,,,,,,,,,,,,,,,,,,,,,,,,,,,,,,,,,,,,,,,,,
,,5abfadbafa3b4e0001733be0,2024-02-18_20h13.40.952,kallum_motion_pilot,2023.2.2,Win32,62.5,5abfadbafa3b4e0001733be0,65d2b6c8f2eece985d8e374c,65d2b93dab9f1aa3eae61f8c,0.075,0.075,0,36,36,51,1,twofour,,,,,,,,,,,,,,,,,,,,,,,,,,,,,,,,,,,,,,,,,,,,,,,,,,,,,,,,,,,,,,,,,,,,,,,,,,,,,,,,,,,,,,,,,,,,,,,,,,,,,,,,,,,,,,,,,,,,,,,,,,,,,,,,,,,,,,,,,
,,5abfadbafa3b4e0001733be0,2024-02-18_20h13.40.952,kallum_motion_pilot,2023.2.2,Win32,62.5,5abfadbafa3b4e0001733be0,65d2b6c8f2eece985d8e374c,65d2b93dab9f1aa3eae61f8c,0.076,0.076,0,37,37,90,1,sixfive,,,,,,,,,,,,,,,,,,,,,,,,,,,,,,,,,,,,,,,,,,,,,,,,,,,,,,,,,,,,,,,,,,,,,,,,,,,,,,,,,,,,,,,,,,,,,,,,,,,,,,,,,,,,,,,,,,,,,,,,,,,,,,,,,,,,,,,,,
,,5abfadbafa3b4e0001733be0,2024-02-18_20h13.40.952,kallum_motion_pilot,2023.2.2,Win32,62.5,5abfadbafa3b4e0001733be0,65d2b6c8f2eece985d8e374c,65d2b93dab9f1aa3eae61f8c,0.076,0.076,0,38,38,6,1,fourtwo,,,,,,,,,,,,,,,,,,,,,,,,,,,,,,,,,,,,,,,,,,,,,,,,,,,,,,,,,,,,,,,,,,,,,,,,,,,,,,,,,,,,,,,,,,,,,,,,,,,,,,,,,,,,,,,,,,,,,,,,,,,,,,,,,,,,,,,,,
,,5abfadbafa3b4e0001733be0,2024-02-18_20h13.40.952,kallum_motion_pilot,2023.2.2,Win32,62.5,5abfadbafa3b4e0001733be0,65d2b6c8f2eece985d8e374c,65d2b93dab9f1aa3eae61f8c,0.076,0.077,0,39,39,71,1,fourthree,,,,,,,,,,,,,,,,,,,,,,,,,,,,,,,,,,,,,,,,,,,,,,,,,,,,,,,,,,,,,,,,,,,,,,,,,,,,,,,,,,,,,,,,,,,,,,,,,,,,,,,,,,,,,,,,,,,,,,,,,,,,,,,,,,,,,,,,,
,,5abfadbafa3b4e0001733be0,2024-02-18_20h13.40.952,kallum_motion_pilot,2023.2.2,Win32,62.5,5abfadbafa3b4e0001733be0,65d2b6c8f2eece985d8e374c,65d2b93dab9f1aa3eae61f8c,0.077,0.077,0,40,40,24,1,onetwo,,,,,,,,,,,,,,,,,,,,,,,,,,,,,,,,,,,,,,,,,,,,,,,,,,,,,,,,,,,,,,,,,,,,,,,,,,,,,,,,,,,,,,,,,,,,,,,,,,,,,,,,,,,,,,,,,,,,,,,,,,,,,,,,,,,,,,,,,
,,5abfadbafa3b4e0001733be0,2024-02-18_20h13.40.952,kallum_motion_pilot,2023.2.2,Win32,62.5,5abfadbafa3b4e0001733be0,65d2b6c8f2eece985d8e374c,65d2b93dab9f1aa3eae61f8c,0.078,0.078,0,41,41,159,1,eightseven,,,,,,,,,,,,,,,,,,,,,,,,,,,,,,,,,,,,,,,,,,,,,,,,,,,,,,,,,,,,,,,,,,,,,,,,,,,,,,,,,,,,,,,,,,,,,,,,,,,,,,,,,,,,,,,,,,,,,,,,,,,,,,,,,,,,,,,,,
,,5abfadbafa3b4e0001733be0,2024-02-18_20h13.40.952,kallum_motion_pilot,2023.2.2,Win32,62.5,5abfadbafa3b4e0001733be0,65d2b6c8f2eece985d8e374c,65d2b93dab9f1aa3eae61f8c,0.078,0.078,0,42,42,116,1,sevenfive,,,,,,,,,,,,,,,,,,,,,,,,,,,,,,,,,,,,,,,,,,,,,,,,,,,,,,,,,,,,,,,,,,,,,,,,,,,,,,,,,,,,,,,,,,,,,,,,,,,,,,,,,,,,,,,,,,,,,,,,,,,,,,,,,,,,,,,,,
,,5abfadbafa3b4e0001733be0,2024-02-18_20h13.40.952,kallum_motion_pilot,2023.2.2,Win32,62.5,5abfadbafa3b4e0001733be0,65d2b6c8f2eece985d8e374c,65d2b93dab9f1aa3eae61f8c,0.079,0.079,0,43,43,3,1,twofour,,,,,,,,,,,,,,,,,,,,,,,,,,,,,,,,,,,,,,,,,,,,,,,,,,,,,,,,,,,,,,,,,,,,,,,,,,,,,,,,,,,,,,,,,,,,,,,,,,,,,,,,,,,,,,,,,,,,,,,,,,,,,,,,,,,,,,,,,
,,5abfadbafa3b4e0001733be0,2024-02-18_20h13.40.952,kallum_motion_pilot,2023.2.2,Win32,62.5,5abfadbafa3b4e0001733be0,65d2b6c8f2eece985d8e374c,65d2b93dab9f1aa3eae61f8c,0.08,0.08,0,44,44,21,1,threefour,,,,,,,,,,,,,,,,,,,,,,,,,,,,,,,,,,,,,,,,,,,,,,,,,,,,,,,,,,,,,,,,,,,,,,,,,,,,,,,,,,,,,,,,,,,,,,,,,,,,,,,,,,,,,,,,,,,,,,,,,,,,,,,,,,,,,,,,,
,,5abfadbafa3b4e0001733be0,2024-02-18_20h13.40.952,kallum_motion_pilot,2023.2.2,Win32,62.5,5abfadbafa3b4e0001733be0,65d2b6c8f2eece985d8e374c,65d2b93dab9f1aa3eae61f8c,0.08,0.081,0,45,45,43,1,twofour,,,,,,,,,,,,,,,,,,,,,,,,,,,,,,,,,,,,,,,,,,,,,,,,,,,,,,,,,,,,,,,,,,,,,,,,,,,,,,,,,,,,,,,,,,,,,,,,,,,,,,,,,,,,,,,,,,,,,,,,,,,,,,,,,,,,,,,,,
,,5abfadbafa3b4e0001733be0,2024-02-18_20h13.40.952,kallum_motion_pilot,2023.2.2,Win32,62.5,5abfadbafa3b4e0001733be0,65d2b6c8f2eece985d8e374c,65d2b93dab9f1aa3eae61f8c,0.081,0.081,0,46,46,112,1,fivesix,,,,,,,,,,,,,,,,,,,,,,,,,,,,,,,,,,,,,,,,,,,,,,,,,,,,,,,,,,,,,,,,,,,,,,,,,,,,,,,,,,,,,,,,,,,,,,,,,,,,,,,,,,,,,,,,,,,,,,,,,,,,,,,,,,,,,,,,,
,,5abfadbafa3b4e0001733be0,2024-02-18_20h13.40.952,kallum_motion_pilot,2023.2.2,Win32,62.5,5abfadbafa3b4e0001733be0,65d2b6c8f2eece985d8e374c,65d2b93dab9f1aa3eae61f8c,0.081,0.081,0,47,47,61,1,threefour,,,,,,,,,,,,,,,,,,,,,,,,,,,,,,,,,,,,,,,,,,,,,,,,,,,,,,,,,,,,,,,,,,,,,,,,,,,,,,,,,,,,,,,,,,,,,,,,,,,,,,,,,,,,,,,,,,,,,,,,,,,,,,,,,,,,,,,,,
,,5abfadbafa3b4e0001733be0,2024-02-18_20h13.40.952,kallum_motion_pilot,2023.2.2,Win32,62.5,5abfadbafa3b4e0001733be0,65d2b6c8f2eece985d8e374c,65d2b93dab9f1aa3eae61f8c,0.082,0.082,0,48,48,94,1,eightsix,,,,,,,,,,,,,,,,,,,,,,,,,,,,,,,,,,,,,,,,,,,,,,,,,,,,,,,,,,,,,,,,,,,,,,,,,,,,,,,,,,,,,,,,,,,,,,,,,,,,,,,,,,,,,,,,,,,,,,,,,,,,,,,,,,,,,,,,,
,,5abfadbafa3b4e0001733be0,2024-02-18_20h13.40.952,kallum_motion_pilot,2023.2.2,Win32,62.5,5abfadbafa3b4e0001733be0,65d2b6c8f2eece985d8e374c,65d2b93dab9f1aa3eae61f8c,0.082,0.082,0,49,49,72,1,onetwo,,,,,,,,,,,,,,,,,,,,,,,,,,,,,,,,,,,,,,,,,,,,,,,,,,,,,,,,,,,,,,,,,,,,,,,,,,,,,,,,,,,,,,,,,,,,,,,,,,,,,,,,,,,,,,,,,,,,,,,,,,,,,,,,,,,,,,,,,
,,5abfadbafa3b4e0001733be0,2024-02-18_20h13.40.952,kallum_motion_pilot,2023.2.2,Win32,62.5,5abfadbafa3b4e0001733be0,65d2b6c8f2eece985d8e374c,65d2b93dab9f1aa3eae61f8c,0.084,0.084,0,50,50,123,1,sixeight,,,,,,,,,,,,,,,,,,,,,,,,,,,,,,,,,,,,,,,,,,,,,,,,,,,,,,,,,,,,,,,,,,,,,,,,,,,,,,,,,,,,,,,,,,,,,,,,,,,,,,,,,,,,,,,,,,,,,,,,,,,,,,,,,,,,,,,,,
,,5abfadbafa3b4e0001733be0,2024-02-18_20h13.40.952,kallum_motion_pilot,2023.2.2,Win32,62.5,5abfadbafa3b4e0001733be0,65d2b6c8f2eece985d8e374c,65d2b93dab9f1aa3eae61f8c,0.085,0.085,0,51,51,37,1,threefour,,,,,,,,,,,,,,,,,,,,,,,,,,,,,,,,,,,,,,,,,,,,,,,,,,,,,,,,,,,,,,,,,,,,,,,,,,,,,,,,,,,,,,,,,,,,,,,,,,,,,,,,,,,,,,,,,,,,,,,,,,,,,,,,,,,,,,,,,
,,5abfadbafa3b4e0001733be0,2024-02-18_20h13.40.952,kallum_motion_pilot,2023.2.2,Win32,62.5,5abfadbafa3b4e0001733be0,65d2b6c8f2eece985d8e374c,65d2b93dab9f1aa3eae61f8c,0.085,0.085,0,52,52,82,1,sixfive,,,,,,,,,,,,,,,,,,,,,,,,,,,,,,,,,,,,,,,,,,,,,,,,,,,,,,,,,,,,,,,,,,,,,,,,,,,,,,,,,,,,,,,,,,,,,,,,,,,,,,,,,,,,,,,,,,,,,,,,,,,,,,,,,,,,,,,,,
,,5abfadbafa3b4e0001733be0,2024-02-18_20h13.40.952,kallum_motion_pilot,2023.2.2,Win32,62.5,5abfadbafa3b4e0001733be0,65d2b6c8f2eece985d8e374c,65d2b93dab9f1aa3eae61f8c,0.086,0.086,0,53,53,100,1,sevenfive,,,,,,,,,,,,,,,,,,,,,,,,,,,,,,,,,,,,,,,,,,,,,,,,,,,,,,,,,,,,,,,,,,,,,,,,,,,,,,,,,,,,,,,,,,,,,,,,,,,,,,,,,,,,,,,,,,,,,,,,,,,,,,,,,,,,,,,,,
,,5abfadbafa3b4e0001733be0,2024-02-18_20h13.40.952,kallum_motion_pilot,2023.2.2,Win32,62.5,5abfadbafa3b4e0001733be0,65d2b6c8f2eece985d8e374c,65d2b93dab9f1aa3eae61f8c,0.086,0.086,0,54,54,101,1,seveneight,,,,,,,,,,,,,,,,,,,,,,,,,,,,,,,,,,,,,,,,,,,,,,,,,,,,,,,,,,,,,,,,,,,,,,,,,,,,,,,,,,,,,,,,,,,,,,,,,,,,,,,,,,,,,,,,,,,,,,,,,,,,,,,,,,,,,,,,,
,,5abfadbafa3b4e0001733be0,2024-02-18_20h13.40.952,kallum_motion_pilot,2023.2.2,Win32,62.5,5abfadbafa3b4e0001733be0,65d2b6c8f2eece985d8e374c,65d2b93dab9f1aa3eae61f8c,0.087,0.087,0,55,55,144,1,fivesix,,,,,,,,,,,,,,,,,,,,,,,,,,,,,,,,,,,,,,,,,,,,,,,,,,,,,,,,,,,,,,,,,,,,,,,,,,,,,,,,,,,,,,,,,,,,,,,,,,,,,,,,,,,,,,,,,,,,,,,,,,,,,,,,,,,,,,,,,
,,5abfadbafa3b4e0001733be0,2024-02-18_20h13.40.952,kallum_motion_pilot,2023.2.2,Win32,62.5,5abfadbafa3b4e0001733be0,65d2b6c8f2eece985d8e374c,65d2b93dab9f1aa3eae61f8c,0.087,0.088,0,56,56,60,1,threeone,,,,,,,,,,,,,,,,,,,,,,,,,,,,,,,,,,,,,,,,,,,,,,,,,,,,,,,,,,,,,,,,,,,,,,,,,,,,,,,,,,,,,,,,,,,,,,,,,,,,,,,,,,,,,,,,,,,,,,,,,,,,,,,,,,,,,,,,,
,,5abfadbafa3b4e0001733be0,2024-02-18_20h13.40.952,kallum_motion_pilot,2023.2.2,Win32,62.5,5abfadbafa3b4e0001733be0,65d2b6c8f2eece985d8e374c,65d2b93dab9f1aa3eae61f8c,0.088,0.088,0,57,57,149,1,seveneight,,,,,,,,,,,,,,,,,,,,,,,,,,,,,,,,,,,,,,,,,,,,,,,,,,,,,,,,,,,,,,,,,,,,,,,,,,,,,,,,,,,,,,,,,,,,,,,,,,,,,,,,,,,,,,,,,,,,,,,,,,,,,,,,,,,,,,,,,
,,5abfadbafa3b4e0001733be0,2024-02-18_20h13.40.952,kallum_motion_pilot,2023.2.2,Win32,62.5,5abfadbafa3b4e0001733be0,65d2b6c8f2eece985d8e374c,65d2b93dab9f1aa3eae61f8c,0.088,0.088,0,58,58,111,1,eightseven,,,,,,,,,,,,,,,,,,,,,,,,,,,,,,,,,,,,,,,,,,,,,,,,,,,,,,,,,,,,,,,,,,,,,,,,,,,,,,,,,,,,,,,,,,,,,,,,,,,,,,,,,,,,,,,,,,,,,,,,,,,,,,,,,,,,,,,,,
,,5abfadbafa3b4e0001733be0,2024-02-18_20h13.40.952,kallum_motion_pilot,2023.2.2,Win32,62.5,5abfadbafa3b4e0001733be0,65d2b6c8f2eece985d8e374c,65d2b93dab9f1aa3eae61f8c,0.088,0.088,0,59,59,83,1,sixeight,,,,,,,,,,,,,,,,,,,,,,,,,,,,,,,,,,,,,,,,,,,,,,,,,,,,,,,,,,,,,,,,,,,,,,,,,,,,,,,,,,,,,,,,,,,,,,,,,,,,,,,,,,,,,,,,,,,,,,,,,,,,,,,,,,,,,,,,,
,,5abfadbafa3b4e0001733be0,2024-02-18_20h13.40.952,kallum_motion_pilot,2023.2.2,Win32,62.5,5abfadbafa3b4e0001733be0,65d2b6c8f2eece985d8e374c,65d2b93dab9f1aa3eae61f8c,0.088,0.088,0,60,60,67,1,twofour,,,,,,,,,,,,,,,,,,,,,,,,,,,,,,,,,,,,,,,,,,,,,,,,,,,,,,,,,,,,,,,,,,,,,,,,,,,,,,,,,,,,,,,,,,,,,,,,,,,,,,,,,,,,,,,,,,,,,,,,,,,,,,,,,,,,,,,,,
,,5abfadbafa3b4e0001733be0,2024-02-18_20h13.40.952,kallum_motion_pilot,2023.2.2,Win32,62.5,5abfadbafa3b4e0001733be0,65d2b6c8f2eece985d8e374c,65d2b93dab9f1aa3eae61f8c,0.089,0.09,0,61,61,4,1,threeone,,,,,,,,,,,,,,,,,,,,,,,,,,,,,,,,,,,,,,,,,,,,,,,,,,,,,,,,,,,,,,,,,,,,,,,,,,,,,,,,,,,,,,,,,,,,,,,,,,,,,,,,,,,,,,,,,,,,,,,,,,,,,,,,,,,,,,,,,
,,5abfadbafa3b4e0001733be0,2024-02-18_20h13.40.952,kallum_motion_pilot,2023.2.2,Win32,62.5,5abfadbafa3b4e0001733be0,65d2b6c8f2eece985d8e374c,65d2b93dab9f1aa3eae61f8c,0.09,0.09,0,62,62,156,1,sevenfive,,,,,,,,,,,,,,,,,,,,,,,,,,,,,,,,,,,,,,,,,,,,,,,,,,,,,,,,,,,,,,,,,,,,,,,,,,,,,,,,,,,,,,,,,,,,,,,,,,,,,,,,,,,,,,,,,,,,,,,,,,,,,,,,,,,,,,,,,
,,5abfadbafa3b4e0001733be0,2024-02-18_20h13.40.952,kallum_motion_pilot,2023.2.2,Win32,62.5,5abfadbafa3b4e0001733be0,65d2b6c8f2eece985d8e374c,65d2b93dab9f1aa3eae61f8c,0.09,0.091,0,63,63,122,1,sixfive,,,,,,,,,,,,,,,,,,,,,,,,,,,,,,,,,,,,,,,,,,,,,,,,,,,,,,,,,,,,,,,,,,,,,,,,,,,,,,,,,,,,,,,,,,,,,,,,,,,,,,,,,,,,,,,,,,,,,,,,,,,,,,,,,,,,,,,,,
,,5abfadbafa3b4e0001733be0,2024-02-18_20h13.40.952,kallum_motion_pilot,2023.2.2,Win32,62.5,5abfadbafa3b4e0001733be0,65d2b6c8f2eece985d8e374c,65d2b93dab9f1aa3eae61f8c,0.092,0.092,0,64,64,63,1,fourthree,,,,,,,,,,,,,,,,,,,,,,,,,,,,,,,,,,,,,,,,,,,,,,,,,,,,,,,,,,,,,,,,,,,,,,,,,,,,,,,,,,,,,,,,,,,,,,,,,,,,,,,,,,,,,,,,,,,,,,,,,,,,,,,,,,,,,,,,,
,,5abfadbafa3b4e0001733be0,2024-02-18_20h13.40.952,kallum_motion_pilot,2023.2.2,Win32,62.5,5abfadbafa3b4e0001733be0,65d2b6c8f2eece985d8e374c,65d2b93dab9f1aa3eae61f8c,0.092,0.092,0,65,65,47,1,fourthree,,,,,,,,,,,,,,,,,,,,,,,,,,,,,,,,,,,,,,,,,,,,,,,,,,,,,,,,,,,,,,,,,,,,,,,,,,,,,,,,,,,,,,,,,,,,,,,,,,,,,,,,,,,,,,,,,,,,,,,,,,,,,,,,,,,,,,,,,
,,5abfadbafa3b4e0001733be0,2024-02-18_20h13.40.952,kallum_motion_pilot,2023.2.2,Win32,62.5,5abfadbafa3b4e0001733be0,65d2b6c8f2eece985d8e374c,65d2b93dab9f1aa3eae61f8c,0.092,0.093,0,66,66,118,1,eightsix,,,,,,,,,,,,,,,,,,,,,,,,,,,,,,,,,,,,,,,,,,,,,,,,,,,,,,,,,,,,,,,,,,,,,,,,,,,,,,,,,,,,,,,,,,,,,,,,,,,,,,,,,,,,,,,,,,,,,,,,,,,,,,,,,,,,,,,,,
,,5abfadbafa3b4e0001733be0,2024-02-18_20h13.40.952,kallum_motion_pilot,2023.2.2,Win32,62.5,5abfadbafa3b4e0001733be0,65d2b6c8f2eece985d8e374c,65d2b93dab9f1aa3eae61f8c,0.093,0.093,0,67,67,39,1,fourthree,,,,,,,,,,,,,,,,,,,,,,,,,,,,,,,,,,,,,,,,,,,,,,,,,,,,,,,,,,,,,,,,,,,,,,,,,,,,,,,,,,,,,,,,,,,,,,,,,,,,,,,,,,,,,,,,,,,,,,,,,,,,,,,,,,,,,,,,,
,,5abfadbafa3b4e0001733be0,2024-02-18_20h13.40.952,kallum_motion_pilot,2023.2.2,Win32,62.5,5abfadbafa3b4e0001733be0,65d2b6c8f2eece985d8e374c,65d2b93dab9f1aa3eae61f8c,0.093,0.094,0,68,68,99,1,sixeight,,,,,,,,,,,,,,,,,,,,,,,,,,,,,,,,,,,,,,,,,,,,,,,,,,,,,,,,,,,,,,,,,,,,,,,,,,,,,,,,,,,,,,,,,,,,,,,,,,,,,,,,,,,,,,,,,,,,,,,,,,,,,,,,,,,,,,,,,
,,5abfadbafa3b4e0001733be0,2024-02-18_20h13.40.952,kallum_motion_pilot,2023.2.2,Win32,62.5,5abfadbafa3b4e0001733be0,65d2b6c8f2eece985d8e374c,65d2b93dab9f1aa3eae61f8c,0.094,0.094,0,69,69,58,1,twoone,,,,,,,,,,,,,,,,,,,,,,,,,,,,,,,,,,,,,,,,,,,,,,,,,,,,,,,,,,,,,,,,,,,,,,,,,,,,,,,,,,,,,,,,,,,,,,,,,,,,,,,,,,,,,,,,,,,,,,,,,,,,,,,,,,,,,,,,,
,,5abfadbafa3b4e0001733be0,2024-02-18_20h13.40.952,kallum_motion_pilot,2023.2.2,Win32,62.5,5abfadbafa3b4e0001733be0,65d2b6c8f2eece985d8e374c,65d2b93dab9f1aa3eae61f8c,0.094,0.095,0,70,70,27,1,twofour,,,,,,,,,,,,,,,,,,,,,,,,,,,,,,,,,,,,,,,,,,,,,,,,,,,,,,,,,,,,,,,,,,,,,,,,,,,,,,,,,,,,,,,,,,,,,,,,,,,,,,,,,,,,,,,,,,,,,,,,,,,,,,,,,,,,,,,,,
,,5abfadbafa3b4e0001733be0,2024-02-18_20h13.40.952,kallum_motion_pilot,2023.2.2,Win32,62.5,5abfadbafa3b4e0001733be0,65d2b6c8f2eece985d8e374c,65d2b93dab9f1aa3eae61f8c,0.095,0.095,0,71,71,154,1,sixfive,,,,,,,,,,,,,,,,,,,,,,,,,,,,,,,,,,,,,,,,,,,,,,,,,,,,,,,,,,,,,,,,,,,,,,,,,,,,,,,,,,,,,,,,,,,,,,,,,,,,,,,,,,,,,,,,,,,,,,,,,,,,,,,,,,,,,,,,,
,,5abfadbafa3b4e0001733be0,2024-02-18_20h13.40.952,kallum_motion_pilot,2023.2.2,Win32,62.5,5abfadbafa3b4e0001733be0,65d2b6c8f2eece985d8e374c,65d2b93dab9f1aa3eae61f8c,0.095,0.095,0,72,72,110,1,eightsix,,,,,,,,,,,,,,,,,,,,,,,,,,,,,,,,,,,,,,,,,,,,,,,,,,,,,,,,,,,,,,,,,,,,,,,,,,,,,,,,,,,,,,,,,,,,,,,,,,,,,,,,,,,,,,,,,,,,,,,,,,,,,,,,,,,,,,,,,
,,5abfadbafa3b4e0001733be0,2024-02-18_20h13.40.952,kallum_motion_pilot,2023.2.2,Win32,62.5,5abfadbafa3b4e0001733be0,65d2b6c8f2eece985d8e374c,65d2b93dab9f1aa3eae61f8c,0.095,0.095,0,73,73,41,1,onethree,,,,,,,,,,,,,,,,,,,,,,,,,,,,,,,,,,,,,,,,,,,,,,,,,,,,,,,,,,,,,,,,,,,,,,,,,,,,,,,,,,,,,,,,,,,,,,,,,,,,,,,,,,,,,,,,,,,,,,,,,,,,,,,,,,,,,,,,,
,,5abfadbafa3b4e0001733be0,2024-02-18_20h13.40.952,kallum_motion_pilot,2023.2.2,Win32,62.5,5abfadbafa3b4e0001733be0,65d2b6c8f2eece985d8e374c,65d2b93dab9f1aa3eae61f8c,0.096,0.096,0,74,74,52,1,threeone,,,,,,,,,,,,,,,,,,,,,,,,,,,,,,,,,,,,,,,,,,,,,,,,,,,,,,,,,,,,,,,,,,,,,,,,,,,,,,,,,,,,,,,,,,,,,,,,,,,,,,,,,,,,,,,,,,,,,,,,,,,,,,,,,,,,,,,,,
,,5abfadbafa3b4e0001733be0,2024-02-18_20h13.40.952,kallum_motion_pilot,2023.2.2,Win32,62.5,5abfadbafa3b4e0001733be0,65d2b6c8f2eece985d8e374c,65d2b93dab9f1aa3eae61f8c,0.096,0.096,0,75,75,10,1,twoone,,,,,,,,,,,,,,,,,,,,,,,,,,,,,,,,,,,,,,,,,,,,,,,,,,,,,,,,,,,,,,,,,,,,,,,,,,,,,,,,,,,,,,,,,,,,,,,,,,,,,,,,,,,,,,,,,,,,,,,,,,,,,,,,,,,,,,,,,
,,5abfadbafa3b4e0001733be0,2024-02-18_20h13.40.952,kallum_motion_pilot,2023.2.2,Win32,62.5,5abfadbafa3b4e0001733be0,65d2b6c8f2eece985d8e374c,65d2b93dab9f1aa3eae61f8c,0.096,0.096,0,76,76,12,1,threeone,,,,,,,,,,,,,,,,,,,,,,,,,,,,,,,,,,,,,,,,,,,,,,,,,,,,,,,,,,,,,,,,,,,,,,,,,,,,,,,,,,,,,,,,,,,,,,,,,,,,,,,,,,,,,,,,,,,,,,,,,,,,,,,,,,,,,,,,,
,,5abfadbafa3b4e0001733be0,2024-02-18_20h13.40.952,kallum_motion_pilot,2023.2.2,Win32,62.5,5abfadbafa3b4e0001733be0,65d2b6c8f2eece985d8e374c,65d2b93dab9f1aa3eae61f8c,0.096,0.096,0,77,77,113,1,fiveseven,,,,,,,,,,,,,,,,,,,,,,,,,,,,,,,,,,,,,,,,,,,,,,,,,,,,,,,,,,,,,,,,,,,,,,,,,,,,,,,,,,,,,,,,,,,,,,,,,,,,,,,,,,,,,,,,,,,,,,,,,,,,,,,,,,,,,,,,,
,,5abfadbafa3b4e0001733be0,2024-02-18_20h13.40.952,kallum_motion_pilot,2023.2.2,Win32,62.5,5abfadbafa3b4e0001733be0,65d2b6c8f2eece985d8e374c,65d2b93dab9f1aa3eae61f8c,0.096,0.096,0,78,78,127,1,eightseven,,,,,,,,,,,,,,,,,,,,,,,,,,,,,,,,,,,,,,,,,,,,,,,,,,,,,,,,,,,,,,,,,,,,,,,,,,,,,,,,,,,,,,,,,,,,,,,,,,,,,,,,,,,,,,,,,,,,,,,,,,,,,,,,,,,,,,,,,
,,5abfadbafa3b4e0001733be0,2024-02-18_20h13.40.952,kallum_motion_pilot,2023.2.2,Win32,62.5,5abfadbafa3b4e0001733be0,65d2b6c8f2eece985d8e374c,65d2b93dab9f1aa3eae61f8c,0.097,0.097,0,79,79,126,1,eightsix,,,,,,,,,,,,,,,,,,,,,,,,,,,,,,,,,,,,,,,,,,,,,,,,,,,,,,,,,,,,,,,,,,,,,,,,,,,,,,,,,,,,,,,,,,,,,,,,,,,,,,,,,,,,,,,,,,,,,,,,,,,,,,,,,,,,,,,,,
,,5abfadbafa3b4e0001733be0,2024-02-18_20h13.40.952,kallum_motion_pilot,2023.2.2,Win32,62.5,5abfadbafa3b4e0001733be0,65d2b6c8f2eece985d8e374c,65d2b93dab9f1aa3eae61f8c,0.097,0.098,0,80,80,88,1,fivesix,,,,,,,,,,,,,,,,,,,,,,,,,,,,,,,,,,,,,,,,,,,,,,,,,,,,,,,,,,,,,,,,,,,,,,,,,,,,,,,,,,,,,,,,,,,,,,,,,,,,,,,,,,,,,,,,,,,,,,,,,,,,,,,,,,,,,,,,,
,,5abfadbafa3b4e0001733be0,2024-02-18_20h13.40.952,kallum_motion_pilot,2023.2.2,Win32,62.5,5abfadbafa3b4e0001733be0,65d2b6c8f2eece985d8e374c,65d2b93dab9f1aa3eae61f8c,0.098,0.098,0,81,81,15,1,fourthree,,,,,,,,,,,,,,,,,,,,,,,,,,,,,,,,,,,,,,,,,,,,,,,,,,,,,,,,,,,,,,,,,,,,,,,,,,,,,,,,,,,,,,,,,,,,,,,,,,,,,,,,,,,,,,,,,,,,,,,,,,,,,,,,,,,,,,,,,
,,5abfadbafa3b4e0001733be0,2024-02-18_20h13.40.952,kallum_motion_pilot,2023.2.2,Win32,62.5,5abfadbafa3b4e0001733be0,65d2b6c8f2eece985d8e374c,65d2b93dab9f1aa3eae61f8c,0.098,0.098,0,82,82,98,1,sixfive,,,,,,,,,,,,,,,,,,,,,,,,,,,,,,,,,,,,,,,,,,,,,,,,,,,,,,,,,,,,,,,,,,,,,,,,,,,,,,,,,,,,,,,,,,,,,,,,,,,,,,,,,,,,,,,,,,,,,,,,,,,,,,,,,,,,,,,,,
,,5abfadbafa3b4e0001733be0,2024-02-18_20h13.40.952,kallum_motion_pilot,2023.2.2,Win32,62.5,5abfadbafa3b4e0001733be0,65d2b6c8f2eece985d8e374c,65d2b93dab9f1aa3eae61f8c,0.1,0.1,0,83,83,85,1,seveneight,,,,,,,,,,,,,,,,,,,,,,,,,,,,,,,,,,,,,,,,,,,,,,,,,,,,,,,,,,,,,,,,,,,,,,,,,,,,,,,,,,,,,,,,,,,,,,,,,,,,,,,,,,,,,,,,,,,,,,,,,,,,,,,,,,,,,,,,,
,,5abfadbafa3b4e0001733be0,2024-02-18_20h13.40.952,kallum_motion_pilot,2023.2.2,Win32,62.5,5abfadbafa3b4e0001733be0,65d2b6c8f2eece985d8e374c,65d2b93dab9f1aa3eae61f8c,0.101,0.101,0,84,84,30,1,fourtwo,,,,,,,,,,,,,,,,,,,,,,,,,,,,,,,,,,,,,,,,,,,,,,,,,,,,,,,,,,,,,,,,,,,,,,,,,,,,,,,,,,,,,,,,,,,,,,,,,,,,,,,,,,,,,,,,,,,,,,,,,,,,,,,,,,,,,,,,,
,,5abfadbafa3b4e0001733be0,2024-02-18_20h13.40.952,kallum_motion_pilot,2023.2.2,Win32,62.5,5abfadbafa3b4e0001733be0,65d2b6c8f2eece985d8e374c,65d2b93dab9f1aa3eae61f8c,0.102,0.102,0,85,85,108,1,sevenfive,,,,,,,,,,,,,,,,,,,,,,,,,,,,,,,,,,,,,,,,,,,,,,,,,,,,,,,,,,,,,,,,,,,,,,,,,,,,,,,,,,,,,,,,,,,,,,,,,,,,,,,,,,,,,,,,,,,,,,,,,,,,,,,,,,,,,,,,,
,,5abfadbafa3b4e0001733be0,2024-02-18_20h13.40.952,kallum_motion_pilot,2023.2.2,Win32,62.5,5abfadbafa3b4e0001733be0,65d2b6c8f2eece985d8e374c,65d2b93dab9f1aa3eae61f8c,0.103,0.103,0,86,86,96,1,fivesix,,,,,,,,,,,,,,,,,,,,,,,,,,,,,,,,,,,,,,,,,,,,,,,,,,,,,,,,,,,,,,,,,,,,,,,,,,,,,,,,,,,,,,,,,,,,,,,,,,,,,,,,,,,,,,,,,,,,,,,,,,,,,,,,,,,,,,,,,
,,5abfadbafa3b4e0001733be0,2024-02-18_20h13.40.952,kallum_motion_pilot,2023.2.2,Win32,62.5,5abfadbafa3b4e0001733be0,65d2b6c8f2eece985d8e374c,65d2b93dab9f1aa3eae61f8c,0.103,0.103,0,87,87,19,1,twofour,,,,,,,,,,,,,,,,,,,,,,,,,,,,,,,,,,,,,,,,,,,,,,,,,,,,,,,,,,,,,,,,,,,,,,,,,,,,,,,,,,,,,,,,,,,,,,,,,,,,,,,,,,,,,,,,,,,,,,,,,,,,,,,,,,,,,,,,,
,,5abfadbafa3b4e0001733be0,2024-02-18_20h13.40.952,kallum_motion_pilot,2023.2.2,Win32,62.5,5abfadbafa3b4e0001733be0,65d2b6c8f2eece985d8e374c,65d2b93dab9f1aa3eae61f8c,0.104,0.104,0,88,88,18,1,twoone,,,,,,,,,,,,,,,,,,,,,,,,,,,,,,,,,,,,,,,,,,,,,,,,,,,,,,,,,,,,,,,,,,,,,,,,,,,,,,,,,,,,,,,,,,,,,,,,,,,,,,,,,,,,,,,,,,,,,,,,,,,,,,,,,,,,,,,,,
,,5abfadbafa3b4e0001733be0,2024-02-18_20h13.40.952,kallum_motion_pilot,2023.2.2,Win32,62.5,5abfadbafa3b4e0001733be0,65d2b6c8f2eece985d8e374c,65d2b93dab9f1aa3eae61f8c,0.105,0.105,0,89,89,91,1,sixeight,,,,,,,,,,,,,,,,,,,,,,,,,,,,,,,,,,,,,,,,,,,,,,,,,,,,,,,,,,,,,,,,,,,,,,,,,,,,,,,,,,,,,,,,,,,,,,,,,,,,,,,,,,,,,,,,,,,,,,,,,,,,,,,,,,,,,,,,,
,,5abfadbafa3b4e0001733be0,2024-02-18_20h13.40.952,kallum_motion_pilot,2023.2.2,Win32,62.5,5abfadbafa3b4e0001733be0,65d2b6c8f2eece985d8e374c,65d2b93dab9f1aa3eae61f8c,0.105,0.105,0,90,90,23,1,fourthree,,,,,,,,,,,,,,,,,,,,,,,,,,,,,,,,,,,,,,,,,,,,,,,,,,,,,,,,,,,,,,,,,,,,,,,,,,,,,,,,,,,,,,,,,,,,,,,,,,,,,,,,,,,,,,,,,,,,,,,,,,,,,,,,,,,,,,,,,
,,5abfadbafa3b4e0001733be0,2024-02-18_20h13.40.952,kallum_motion_pilot,2023.2.2,Win32,62.5,5abfadbafa3b4e0001733be0,65d2b6c8f2eece985d8e374c,65d2b93dab9f1aa3eae61f8c,0.106,0.106,0,91,91,97,1,fiveseven,,,,,,,,,,,,,,,,,,,,,,,,,,,,,,,,,,,,,,,,,,,,,,,,,,,,,,,,,,,,,,,,,,,,,,,,,,,,,,,,,,,,,,,,,,,,,,,,,,,,,,,,,,,,,,,,,,,,,,,,,,,,,,,,,,,,,,,,,
,,5abfadbafa3b4e0001733be0,2024-02-18_20h13.40.952,kallum_motion_pilot,2023.2.2,Win32,62.5,5abfadbafa3b4e0001733be0,65d2b6c8f2eece985d8e374c,65d2b93dab9f1aa3eae61f8c,0.107,0.107,0,92,92,46,1,fourtwo,,,,,,,,,,,,,,,,,,,,,,,,,,,,,,,,,,,,,,,,,,,,,,,,,,,,,,,,,,,,,,,,,,,,,,,,,,,,,,,,,,,,,,,,,,,,,,,,,,,,,,,,,,,,,,,,,,,,,,,,,,,,,,,,,,,,,,,,,
,,5abfadbafa3b4e0001733be0,2024-02-18_20h13.40.952,kallum_motion_pilot,2023.2.2,Win32,62.5,5abfadbafa3b4e0001733be0,65d2b6c8f2eece985d8e374c,65d2b93dab9f1aa3eae61f8c,0.108,0.109,0,93,93,138,1,sixfive,,,,,,,,,,,,,,,,,,,,,,,,,,,,,,,,,,,,,,,,,,,,,,,,,,,,,,,,,,,,,,,,,,,,,,,,,,,,,,,,,,,,,,,,,,,,,,,,,,,,,,,,,,,,,,,,,,,,,,,,,,,,,,,,,,,,,,,,,
,,5abfadbafa3b4e0001733be0,2024-02-18_20h13.40.952,kallum_motion_pilot,2023.2.2,Win32,62.5,5abfadbafa3b4e0001733be0,65d2b6c8f2eece985d8e374c,65d2b93dab9f1aa3eae61f8c,0.11,0.11,0,94,94,139,1,sixeight,,,,,,,,,,,,,,,,,,,,,,,,,,,,,,,,,,,,,,,,,,,,,,,,,,,,,,,,,,,,,,,,,,,,,,,,,,,,,,,,,,,,,,,,,,,,,,,,,,,,,,,,,,,,,,,,,,,,,,,,,,,,,,,,,,,,,,,,,
,,5abfadbafa3b4e0001733be0,2024-02-18_20h13.40.952,kallum_motion_pilot,2023.2.2,Win32,62.5,5abfadbafa3b4e0001733be0,65d2b6c8f2eece985d8e374c,65d2b93dab9f1aa3eae61f8c,0.11,0.11,0,95,95,145,1,fiveseven,,,,,,,,,,,,,,,,,,,,,,,,,,,,,,,,,,,,,,,,,,,,,,,,,,,,,,,,,,,,,,,,,,,,,,,,,,,,,,,,,,,,,,,,,,,,,,,,,,,,,,,,,,,,,,,,,,,,,,,,,,,,,,,,,,,,,,,,,
,,5abfadbafa3b4e0001733be0,2024-02-18_20h13.40.952,kallum_motion_pilot,2023.2.2,Win32,62.5,5abfadbafa3b4e0001733be0,65d2b6c8f2eece985d8e374c,65d2b93dab9f1aa3eae61f8c,0.111,0.111,0,96,96,69,1,threefour,,,,,,,,,,,,,,,,,,,,,,,,,,,,,,,,,,,,,,,,,,,,,,,,,,,,,,,,,,,,,,,,,,,,,,,,,,,,,,,,,,,,,,,,,,,,,,,,,,,,,,,,,,,,,,,,,,,,,,,,,,,,,,,,,,,,,,,,,
,,5abfadbafa3b4e0001733be0,2024-02-18_20h13.40.952,kallum_motion_pilot,2023.2.2,Win32,62.5,5abfadbafa3b4e0001733be0,65d2b6c8f2eece985d8e374c,65d2b93dab9f1aa3eae61f8c,0.111,0.111,0,97,97,153,1,fiveseven,,,,,,,,,,,,,,,,,,,,,,,,,,,,,,,,,,,,,,,,,,,,,,,,,,,,,,,,,,,,,,,,,,,,,,,,,,,,,,,,,,,,,,,,,,,,,,,,,,,,,,,,,,,,,,,,,,,,,,,,,,,,,,,,,,,,,,,,,
,,5abfadbafa3b4e0001733be0,2024-02-18_20h13.40.952,kallum_motion_pilot,2023.2.2,Win32,62.5,5abfadbafa3b4e0001733be0,65d2b6c8f2eece985d8e374c,65d2b93dab9f1aa3eae61f8c,0.112,0.112,0,98,98,8,1,onetwo,,,,,,,,,,,,,,,,,,,,,,,,,,,,,,,,,,,,,,,,,,,,,,,,,,,,,,,,,,,,,,,,,,,,,,,,,,,,,,,,,,,,,,,,,,,,,,,,,,,,,,,,,,,,,,,,,,,,,,,,,,,,,,,,,,,,,,,,,
,,5abfadbafa3b4e0001733be0,2024-02-18_20h13.40.952,kallum_motion_pilot,2023.2.2,Win32,62.5,5abfadbafa3b4e0001733be0,65d2b6c8f2eece985d8e374c,65d2b93dab9f1aa3eae61f8c,0.112,0.112,0,99,99,17,1,onethree,,,,,,,,,,,,,,,,,,,,,,,,,,,,,,,,,,,,,,,,,,,,,,,,,,,,,,,,,,,,,,,,,,,,,,,,,,,,,,,,,,,,,,,,,,,,,,,,,,,,,,,,,,,,,,,,,,,,,,,,,,,,,,,,,,,,,,,,,
,,5abfadbafa3b4e0001733be0,2024-02-18_20h13.40.952,kallum_motion_pilot,2023.2.2,Win32,62.5,5abfadbafa3b4e0001733be0,65d2b6c8f2eece985d8e374c,65d2b93dab9f1aa3eae61f8c,0.113,0.113,0,100,100,64,1,onetwo,,,,,,,,,,,,,,,,,,,,,,,,,,,,,,,,,,,,,,,,,,,,,,,,,,,,,,,,,,,,,,,,,,,,,,,,,,,,,,,,,,,,,,,,,,,,,,,,,,,,,,,,,,,,,,,,,,,,,,,,,,,,,,,,,,,,,,,,,
,,5abfadbafa3b4e0001733be0,2024-02-18_20h13.40.952,kallum_motion_pilot,2023.2.2,Win32,62.5,5abfadbafa3b4e0001733be0,65d2b6c8f2eece985d8e374c,65d2b93dab9f1aa3eae61f8c,0.114,0.114,0,101,101,143,1,eightseven,,,,,,,,,,,,,,,,,,,,,,,,,,,,,,,,,,,,,,,,,,,,,,,,,,,,,,,,,,,,,,,,,,,,,,,,,,,,,,,,,,,,,,,,,,,,,,,,,,,,,,,,,,,,,,,,,,,,,,,,,,,,,,,,,,,,,,,,,
,,5abfadbafa3b4e0001733be0,2024-02-18_20h13.40.952,kallum_motion_pilot,2023.2.2,Win32,62.5,5abfadbafa3b4e0001733be0,65d2b6c8f2eece985d8e374c,65d2b93dab9f1aa3eae61f8c,0.115,0.115,0,102,102,81,1,fiveseven,,,,,,,,,,,,,,,,,,,,,,,,,,,,,,,,,,,,,,,,,,,,,,,,,,,,,,,,,,,,,,,,,,,,,,,,,,,,,,,,,,,,,,,,,,,,,,,,,,,,,,,,,,,,,,,,,,,,,,,,,,,,,,,,,,,,,,,,,
,,5abfadbafa3b4e0001733be0,2024-02-18_20h13.40.952,kallum_motion_pilot,2023.2.2,Win32,62.5,5abfadbafa3b4e0001733be0,65d2b6c8f2eece985d8e374c,65d2b93dab9f1aa3eae61f8c,0.116,0.116,0,103,103,44,1,threeone,,,,,,,,,,,,,,,,,,,,,,,,,,,,,,,,,,,,,,,,,,,,,,,,,,,,,,,,,,,,,,,,,,,,,,,,,,,,,,,,,,,,,,,,,,,,,,,,,,,,,,,,,,,,,,,,,,,,,,,,,,,,,,,,,,,,,,,,,
,,5abfadbafa3b4e0001733be0,2024-02-18_20h13.40.952,kallum_motion_pilot,2023.2.2,Win32,62.5,5abfadbafa3b4e0001733be0,65d2b6c8f2eece985d8e374c,65d2b93dab9f1aa3eae61f8c,0.117,0.117,0,104,104,87,1,eightseven,,,,,,,,,,,,,,,,,,,,,,,,,,,,,,,,,,,,,,,,,,,,,,,,,,,,,,,,,,,,,,,,,,,,,,,,,,,,,,,,,,,,,,,,,,,,,,,,,,,,,,,,,,,,,,,,,,,,,,,,,,,,,,,,,,,,,,,,,
,,5abfadbafa3b4e0001733be0,2024-02-18_20h13.40.952,kallum_motion_pilot,2023.2.2,Win32,62.5,5abfadbafa3b4e0001733be0,65d2b6c8f2eece985d8e374c,65d2b93dab9f1aa3eae61f8c,0.117,0.117,0,105,105,121,1,fiveseven,,,,,,,,,,,,,,,,,,,,,,,,,,,,,,,,,,,,,,,,,,,,,,,,,,,,,,,,,,,,,,,,,,,,,,,,,,,,,,,,,,,,,,,,,,,,,,,,,,,,,,,,,,,,,,,,,,,,,,,,,,,,,,,,,,,,,,,,,
,,5abfadbafa3b4e0001733be0,2024-02-18_20h13.40.952,kallum_motion_pilot,2023.2.2,Win32,62.5,5abfadbafa3b4e0001733be0,65d2b6c8f2eece985d8e374c,65d2b93dab9f1aa3eae61f8c,0.118,0.118,0,106,106,7,1,fourthree,,,,,,,,,,,,,,,,,,,,,,,,,,,,,,,,,,,,,,,,,,,,,,,,,,,,,,,,,,,,,,,,,,,,,,,,,,,,,,,,,,,,,,,,,,,,,,,,,,,,,,,,,,,,,,,,,,,,,,,,,,,,,,,,,,,,,,,,,
,,5abfadbafa3b4e0001733be0,2024-02-18_20h13.40.952,kallum_motion_pilot,2023.2.2,Win32,62.5,5abfadbafa3b4e0001733be0,65d2b6c8f2eece985d8e374c,65d2b93dab9f1aa3eae61f8c,0.118,0.119,0,107,107,150,1,eightsix,,,,,,,,,,,,,,,,,,,,,,,,,,,,,,,,,,,,,,,,,,,,,,,,,,,,,,,,,,,,,,,,,,,,,,,,,,,,,,,,,,,,,,,,,,,,,,,,,,,,,,,,,,,,,,,,,,,,,,,,,,,,,,,,,,,,,,,,,
,,5abfadbafa3b4e0001733be0,2024-02-18_20h13.40.952,kallum_motion_pilot,2023.2.2,Win32,62.5,5abfadbafa3b4e0001733be0,65d2b6c8f2eece985d8e374c,65d2b93dab9f1aa3eae61f8c,0.12,0.12,0,108,108,68,1,threeone,,,,,,,,,,,,,,,,,,,,,,,,,,,,,,,,,,,,,,,,,,,,,,,,,,,,,,,,,,,,,,,,,,,,,,,,,,,,,,,,,,,,,,,,,,,,,,,,,,,,,,,,,,,,,,,,,,,,,,,,,,,,,,,,,,,,,,,,,
,,5abfadbafa3b4e0001733be0,2024-02-18_20h13.40.952,kallum_motion_pilot,2023.2.2,Win32,62.5,5abfadbafa3b4e0001733be0,65d2b6c8f2eece985d8e374c,65d2b93dab9f1aa3eae61f8c,0.121,0.121,0,109,109,142,1,eightsix,,,,,,,,,,,,,,,,,,,,,,,,,,,,,,,,,,,,,,,,,,,,,,,,,,,,,,,,,,,,,,,,,,,,,,,,,,,,,,,,,,,,,,,,,,,,,,,,,,,,,,,,,,,,,,,,,,,,,,,,,,,,,,,,,,,,,,,,,
,,5abfadbafa3b4e0001733be0,2024-02-18_20h13.40.952,kallum_motion_pilot,2023.2.2,Win32,62.5,5abfadbafa3b4e0001733be0,65d2b6c8f2eece985d8e374c,65d2b93dab9f1aa3eae61f8c,0.121,0.121,0,110,110,157,1,seveneight,,,,,,,,,,,,,,,,,,,,,,,,,,,,,,,,,,,,,,,,,,,,,,,,,,,,,,,,,,,,,,,,,,,,,,,,,,,,,,,,,,,,,,,,,,,,,,,,,,,,,,,,,,,,,,,,,,,,,,,,,,,,,,,,,,,,,,,,,
,,5abfadbafa3b4e0001733be0,2024-02-18_20h13.40.952,kallum_motion_pilot,2023.2.2,Win32,62.5,5abfadbafa3b4e0001733be0,65d2b6c8f2eece985d8e374c,65d2b93dab9f1aa3eae61f8c,0.121,0.121,0,111,111,86,1,eightsix,,,,,,,,,,,,,,,,,,,,,,,,,,,,,,,,,,,,,,,,,,,,,,,,,,,,,,,,,,,,,,,,,,,,,,,,,,,,,,,,,,,,,,,,,,,,,,,,,,,,,,,,,,,,,,,,,,,,,,,,,,,,,,,,,,,,,,,,,
,,5abfadbafa3b4e0001733be0,2024-02-18_20h13.40.952,kallum_motion_pilot,2023.2.2,Win32,62.5,5abfadbafa3b4e0001733be0,65d2b6c8f2eece985d8e374c,65d2b93dab9f1aa3eae61f8c,0.121,0.121,0,112,112,14,1,fourtwo,,,,,,,,,,,,,,,,,,,,,,,,,,,,,,,,,,,,,,,,,,,,,,,,,,,,,,,,,,,,,,,,,,,,,,,,,,,,,,,,,,,,,,,,,,,,,,,,,,,,,,,,,,,,,,,,,,,,,,,,,,,,,,,,,,,,,,,,,
,,5abfadbafa3b4e0001733be0,2024-02-18_20h13.40.952,kallum_motion_pilot,2023.2.2,Win32,62.5,5abfadbafa3b4e0001733be0,65d2b6c8f2eece985d8e374c,65d2b93dab9f1aa3eae61f8c,0.121,0.121,0,113,113,22,1,fourtwo,,,,,,,,,,,,,,,,,,,,,,,,,,,,,,,,,,,,,,,,,,,,,,,,,,,,,,,,,,,,,,,,,,,,,,,,,,,,,,,,,,,,,,,,,,,,,,,,,,,,,,,,,,,,,,,,,,,,,,,,,,,,,,,,,,,,,,,,,
,,5abfadbafa3b4e0001733be0,2024-02-18_20h13.40.952,kallum_motion_pilot,2023.2.2,Win32,62.5,5abfadbafa3b4e0001733be0,65d2b6c8f2eece985d8e374c,65d2b93dab9f1aa3eae61f8c,0.122,0.123,0,114,114,11,1,twofour,,,,,,,,,,,,,,,,,,,,,,,,,,,,,,,,,,,,,,,,,,,,,,,,,,,,,,,,,,,,,,,,,,,,,,,,,,,,,,,,,,,,,,,,,,,,,,,,,,,,,,,,,,,,,,,,,,,,,,,,,,,,,,,,,,,,,,,,,
,,5abfadbafa3b4e0001733be0,2024-02-18_20h13.40.952,kallum_motion_pilot,2023.2.2,Win32,62.5,5abfadbafa3b4e0001733be0,65d2b6c8f2eece985d8e374c,65d2b93dab9f1aa3eae61f8c,0.123,0.123,0,115,115,0,1,onetwo,,,,,,,,,,,,,,,,,,,,,,,,,,,,,,,,,,,,,,,,,,,,,,,,,,,,,,,,,,,,,,,,,,,,,,,,,,,,,,,,,,,,,,,,,,,,,,,,,,,,,,,,,,,,,,,,,,,,,,,,,,,,,,,,,,,,,,,,,
,,5abfadbafa3b4e0001733be0,2024-02-18_20h13.40.952,kallum_motion_pilot,2023.2.2,Win32,62.5,5abfadbafa3b4e0001733be0,65d2b6c8f2eece985d8e374c,65d2b93dab9f1aa3eae61f8c,0.123,0.124,0,116,116,128,1,fivesix,,,,,,,,,,,,,,,,,,,,,,,,,,,,,,,,,,,,,,,,,,,,,,,,,,,,,,,,,,,,,,,,,,,,,,,,,,,,,,,,,,,,,,,,,,,,,,,,,,,,,,,,,,,,,,,,,,,,,,,,,,,,,,,,,,,,,,,,,
,,5abfadbafa3b4e0001733be0,2024-02-18_20h13.40.952,kallum_motion_pilot,2023.2.2,Win32,62.5,5abfadbafa3b4e0001733be0,65d2b6c8f2eece985d8e374c,65d2b93dab9f1aa3eae61f8c,0.125,0.125,0,117,117,146,1,sixfive,,,,,,,,,,,,,,,,,,,,,,,,,,,,,,,,,,,,,,,,,,,,,,,,,,,,,,,,,,,,,,,,,,,,,,,,,,,,,,,,,,,,,,,,,,,,,,,,,,,,,,,,,,,,,,,,,,,,,,,,,,,,,,,,,,,,,,,,,
,,5abfadbafa3b4e0001733be0,2024-02-18_20h13.40.952,kallum_motion_pilot,2023.2.2,Win32,62.5,5abfadbafa3b4e0001733be0,65d2b6c8f2eece985d8e374c,65d2b93dab9f1aa3eae61f8c,0.125,0.125,0,118,118,141,1,seveneight,,,,,,,,,,,,,,,,,,,,,,,,,,,,,,,,,,,,,,,,,,,,,,,,,,,,,,,,,,,,,,,,,,,,,,,,,,,,,,,,,,,,,,,,,,,,,,,,,,,,,,,,,,,,,,,,,,,,,,,,,,,,,,,,,,,,,,,,,
,,5abfadbafa3b4e0001733be0,2024-02-18_20h13.40.952,kallum_motion_pilot,2023.2.2,Win32,62.5,5abfadbafa3b4e0001733be0,65d2b6c8f2eece985d8e374c,65d2b93dab9f1aa3eae61f8c,0.126,0.126,0,119,119,119,1,eightseven,,,,,,,,,,,,,,,,,,,,,,,,,,,,,,,,,,,,,,,,,,,,,,,,,,,,,,,,,,,,,,,,,,,,,,,,,,,,,,,,,,,,,,,,,,,,,,,,,,,,,,,,,,,,,,,,,,,,,,,,,,,,,,,,,,,,,,,,,
,,5abfadbafa3b4e0001733be0,2024-02-18_20h13.40.952,kallum_motion_pilot,2023.2.2,Win32,62.5,5abfadbafa3b4e0001733be0,65d2b6c8f2eece985d8e374c,65d2b93dab9f1aa3eae61f8c,0.127,0.127,0,120,120,66,1,twoone,,,,,,,,,,,,,,,,,,,,,,,,,,,,,,,,,,,,,,,,,,,,,,,,,,,,,,,,,,,,,,,,,,,,,,,,,,,,,,,,,,,,,,,,,,,,,,,,,,,,,,,,,,,,,,,,,,,,,,,,,,,,,,,,,,,,,,,,,
,,5abfadbafa3b4e0001733be0,2024-02-18_20h13.40.952,kallum_motion_pilot,2023.2.2,Win32,62.5,5abfadbafa3b4e0001733be0,65d2b6c8f2eece985d8e374c,65d2b93dab9f1aa3eae61f8c,0.128,0.128,0,121,121,35,1,twofour,,,,,,,,,,,,,,,,,,,,,,,,,,,,,,,,,,,,,,,,,,,,,,,,,,,,,,,,,,,,,,,,,,,,,,,,,,,,,,,,,,,,,,,,,,,,,,,,,,,,,,,,,,,,,,,,,,,,,,,,,,,,,,,,,,,,,,,,,
,,5abfadbafa3b4e0001733be0,2024-02-18_20h13.40.952,kallum_motion_pilot,2023.2.2,Win32,62.5,5abfadbafa3b4e0001733be0,65d2b6c8f2eece985d8e374c,65d2b93dab9f1aa3eae61f8c,0.128,0.128,0,122,122,36,1,threeone,,,,,,,,,,,,,,,,,,,,,,,,,,,,,,,,,,,,,,,,,,,,,,,,,,,,,,,,,,,,,,,,,,,,,,,,,,,,,,,,,,,,,,,,,,,,,,,,,,,,,,,,,,,,,,,,,,,,,,,,,,,,,,,,,,,,,,,,,
,,5abfadbafa3b4e0001733be0,2024-02-18_20h13.40.952,kallum_motion_pilot,2023.2.2,Win32,62.5,5abfadbafa3b4e0001733be0,65d2b6c8f2eece985d8e374c,65d2b93dab9f1aa3eae61f8c,0.128,0.128,0,123,123,133,1,seveneight,,,,,,,,,,,,,,,,,,,,,,,,,,,,,,,,,,,,,,,,,,,,,,,,,,,,,,,,,,,,,,,,,,,,,,,,,,,,,,,,,,,,,,,,,,,,,,,,,,,,,,,,,,,,,,,,,,,,,,,,,,,,,,,,,,,,,,,,,
,,5abfadbafa3b4e0001733be0,2024-02-18_20h13.40.952,kallum_motion_pilot,2023.2.2,Win32,62.5,5abfadbafa3b4e0001733be0,65d2b6c8f2eece985d8e374c,65d2b93dab9f1aa3eae61f8c,0.129,0.13,0,124,124,49,1,onethree,,,,,,,,,,,,,,,,,,,,,,,,,,,,,,,,,,,,,,,,,,,,,,,,,,,,,,,,,,,,,,,,,,,,,,,,,,,,,,,,,,,,,,,,,,,,,,,,,,,,,,,,,,,,,,,,,,,,,,,,,,,,,,,,,,,,,,,,,
,,5abfadbafa3b4e0001733be0,2024-02-18_20h13.40.952,kallum_motion_pilot,2023.2.2,Win32,62.5,5abfadbafa3b4e0001733be0,65d2b6c8f2eece985d8e374c,65d2b93dab9f1aa3eae61f8c,0.13,0.13,0,125,125,75,1,twofour,,,,,,,,,,,,,,,,,,,,,,,,,,,,,,,,,,,,,,,,,,,,,,,,,,,,,,,,,,,,,,,,,,,,,,,,,,,,,,,,,,,,,,,,,,,,,,,,,,,,,,,,,,,,,,,,,,,,,,,,,,,,,,,,,,,,,,,,,
,,5abfadbafa3b4e0001733be0,2024-02-18_20h13.40.952,kallum_motion_pilot,2023.2.2,Win32,62.5,5abfadbafa3b4e0001733be0,65d2b6c8f2eece985d8e374c,65d2b93dab9f1aa3eae61f8c,0.131,0.131,0,126,126,29,1,threefour,,,,,,,,,,,,,,,,,,,,,,,,,,,,,,,,,,,,,,,,,,,,,,,,,,,,,,,,,,,,,,,,,,,,,,,,,,,,,,,,,,,,,,,,,,,,,,,,,,,,,,,,,,,,,,,,,,,,,,,,,,,,,,,,,,,,,,,,,
,,5abfadbafa3b4e0001733be0,2024-02-18_20h13.40.952,kallum_motion_pilot,2023.2.2,Win32,62.5,5abfadbafa3b4e0001733be0,65d2b6c8f2eece985d8e374c,65d2b93dab9f1aa3eae61f8c,0.131,0.132,0,127,127,40,1,onetwo,,,,,,,,,,,,,,,,,,,,,,,,,,,,,,,,,,,,,,,,,,,,,,,,,,,,,,,,,,,,,,,,,,,,,,,,,,,,,,,,,,,,,,,,,,,,,,,,,,,,,,,,,,,,,,,,,,,,,,,,,,,,,,,,,,,,,,,,,
,,5abfadbafa3b4e0001733be0,2024-02-18_20h13.40.952,kallum_motion_pilot,2023.2.2,Win32,62.5,5abfadbafa3b4e0001733be0,65d2b6c8f2eece985d8e374c,65d2b93dab9f1aa3eae61f8c,0.132,0.132,0,128,128,93,1,seveneight,,,,,,,,,,,,,,,,,,,,,,,,,,,,,,,,,,,,,,,,,,,,,,,,,,,,,,,,,,,,,,,,,,,,,,,,,,,,,,,,,,,,,,,,,,,,,,,,,,,,,,,,,,,,,,,,,,,,,,,,,,,,,,,,,,,,,,,,,
,,5abfadbafa3b4e0001733be0,2024-02-18_20h13.40.952,kallum_motion_pilot,2023.2.2,Win32,62.5,5abfadbafa3b4e0001733be0,65d2b6c8f2eece985d8e374c,65d2b93dab9f1aa3eae61f8c,0.133,0.134,0,129,129,28,1,threeone,,,,,,,,,,,,,,,,,,,,,,,,,,,,,,,,,,,,,,,,,,,,,,,,,,,,,,,,,,,,,,,,,,,,,,,,,,,,,,,,,,,,,,,,,,,,,,,,,,,,,,,,,,,,,,,,,,,,,,,,,,,,,,,,,,,,,,,,,
,,5abfadbafa3b4e0001733be0,2024-02-18_20h13.40.952,kallum_motion_pilot,2023.2.2,Win32,62.5,5abfadbafa3b4e0001733be0,65d2b6c8f2eece985d8e374c,65d2b93dab9f1aa3eae61f8c,0.134,0.134,0,130,130,62,1,fourtwo,,,,,,,,,,,,,,,,,,,,,,,,,,,,,,,,,,,,,,,,,,,,,,,,,,,,,,,,,,,,,,,,,,,,,,,,,,,,,,,,,,,,,,,,,,,,,,,,,,,,,,,,,,,,,,,,,,,,,,,,,,,,,,,,,,,,,,,,,
,,5abfadbafa3b4e0001733be0,2024-02-18_20h13.40.952,kallum_motion_pilot,2023.2.2,Win32,62.5,5abfadbafa3b4e0001733be0,65d2b6c8f2eece985d8e374c,65d2b93dab9f1aa3eae61f8c,0.135,0.136,0,131,131,5,1,threefour,,,,,,,,,,,,,,,,,,,,,,,,,,,,,,,,,,,,,,,,,,,,,,,,,,,,,,,,,,,,,,,,,,,,,,,,,,,,,,,,,,,,,,,,,,,,,,,,,,,,,,,,,,,,,,,,,,,,,,,,,,,,,,,,,,,,,,,,,
,,5abfadbafa3b4e0001733be0,2024-02-18_20h13.40.952,kallum_motion_pilot,2023.2.2,Win32,62.5,5abfadbafa3b4e0001733be0,65d2b6c8f2eece985d8e374c,65d2b93dab9f1aa3eae61f8c,0.136,0.136,0,132,132,33,1,onethree,,,,,,,,,,,,,,,,,,,,,,,,,,,,,,,,,,,,,,,,,,,,,,,,,,,,,,,,,,,,,,,,,,,,,,,,,,,,,,,,,,,,,,,,,,,,,,,,,,,,,,,,,,,,,,,,,,,,,,,,,,,,,,,,,,,,,,,,,
,,5abfadbafa3b4e0001733be0,2024-02-18_20h13.40.952,kallum_motion_pilot,2023.2.2,Win32,62.5,5abfadbafa3b4e0001733be0,65d2b6c8f2eece985d8e374c,65d2b93dab9f1aa3eae61f8c,0.136,0.136,0,133,133,161,1,fiveseven,,,,,,,,,,,,,,,,,,,,,,,,,,,,,,,,,,,,,,,,,,,,,,,,,,,,,,,,,,,,,,,,,,,,,,,,,,,,,,,,,,,,,,,,,,,,,,,,,,,,,,,,,,,,,,,,,,,,,,,,,,,,,,,,,,,,,,,,,
,,5abfadbafa3b4e0001733be0,2024-02-18_20h13.40.952,kallum_motion_pilot,2023.2.2,Win32,62.5,5abfadbafa3b4e0001733be0,65d2b6c8f2eece985d8e374c,65d2b93dab9f1aa3eae61f8c,0.137,0.137,0,134,134,26,1,twoone,,,,,,,,,,,,,,,,,,,,,,,,,,,,,,,,,,,,,,,,,,,,,,,,,,,,,,,,,,,,,,,,,,,,,,,,,,,,,,,,,,,,,,,,,,,,,,,,,,,,,,,,,,,,,,,,,,,,,,,,,,,,,,,,,,,,,,,,,
,,5abfadbafa3b4e0001733be0,2024-02-18_20h13.40.952,kallum_motion_pilot,2023.2.2,Win32,62.5,5abfadbafa3b4e0001733be0,65d2b6c8f2eece985d8e374c,65d2b93dab9f1aa3eae61f8c,0.138,0.138,0,135,135,125,1,seveneight,,,,,,,,,,,,,,,,,,,,,,,,,,,,,,,,,,,,,,,,,,,,,,,,,,,,,,,,,,,,,,,,,,,,,,,,,,,,,,,,,,,,,,,,,,,,,,,,,,,,,,,,,,,,,,,,,,,,,,,,,,,,,,,,,,,,,,,,,
,,5abfadbafa3b4e0001733be0,2024-02-18_20h13.40.952,kallum_motion_pilot,2023.2.2,Win32,62.5,5abfadbafa3b4e0001733be0,65d2b6c8f2eece985d8e374c,65d2b93dab9f1aa3eae61f8c,0.139,0.139,0,136,136,148,1,sevenfive,,,,,,,,,,,,,,,,,,,,,,,,,,,,,,,,,,,,,,,,,,,,,,,,,,,,,,,,,,,,,,,,,,,,,,,,,,,,,,,,,,,,,,,,,,,,,,,,,,,,,,,,,,,,,,,,,,,,,,,,,,,,,,,,,,,,,,,,,
,,5abfadbafa3b4e0001733be0,2024-02-18_20h13.40.952,kallum_motion_pilot,2023.2.2,Win32,62.5,5abfadbafa3b4e0001733be0,65d2b6c8f2eece985d8e374c,65d2b93dab9f1aa3eae61f8c,0.14,0.14,0,137,137,92,1,sevenfive,,,,,,,,,,,,,,,,,,,,,,,,,,,,,,,,,,,,,,,,,,,,,,,,,,,,,,,,,,,,,,,,,,,,,,,,,,,,,,,,,,,,,,,,,,,,,,,,,,,,,,,,,,,,,,,,,,,,,,,,,,,,,,,,,,,,,,,,,
,,5abfadbafa3b4e0001733be0,2024-02-18_20h13.40.952,kallum_motion_pilot,2023.2.2,Win32,62.5,5abfadbafa3b4e0001733be0,65d2b6c8f2eece985d8e374c,65d2b93dab9f1aa3eae61f8c,0.141,0.141,0,138,138,107,1,sixeight,,,,,,,,,,,,,,,,,,,,,,,,,,,,,,,,,,,,,,,,,,,,,,,,,,,,,,,,,,,,,,,,,,,,,,,,,,,,,,,,,,,,,,,,,,,,,,,,,,,,,,,,,,,,,,,,,,,,,,,,,,,,,,,,,,,,,,,,,
,,5abfadbafa3b4e0001733be0,2024-02-18_20h13.40.952,kallum_motion_pilot,2023.2.2,Win32,62.5,5abfadbafa3b4e0001733be0,65d2b6c8f2eece985d8e374c,65d2b93dab9f1aa3eae61f8c,0.142,0.142,0,139,139,80,1,fivesix,,,,,,,,,,,,,,,,,,,,,,,,,,,,,,,,,,,,,,,,,,,,,,,,,,,,,,,,,,,,,,,,,,,,,,,,,,,,,,,,,,,,,,,,,,,,,,,,,,,,,,,,,,,,,,,,,,,,,,,,,,,,,,,,,,,,,,,,,
,,5abfadbafa3b4e0001733be0,2024-02-18_20h13.40.952,kallum_motion_pilot,2023.2.2,Win32,62.5,5abfadbafa3b4e0001733be0,65d2b6c8f2eece985d8e374c,65d2b93dab9f1aa3eae61f8c,0.143,0.143,0,140,140,13,1,threefour,,,,,,,,,,,,,,,,,,,,,,,,,,,,,,,,,,,,,,,,,,,,,,,,,,,,,,,,,,,,,,,,,,,,,,,,,,,,,,,,,,,,,,,,,,,,,,,,,,,,,,,,,,,,,,,,,,,,,,,,,,,,,,,,,,,,,,,,,
,,5abfadbafa3b4e0001733be0,2024-02-18_20h13.40.952,kallum_motion_pilot,2023.2.2,Win32,62.5,5abfadbafa3b4e0001733be0,65d2b6c8f2eece985d8e374c,65d2b93dab9f1aa3eae61f8c,0.143,0.143,0,141,141,129,1,fiveseven,,,,,,,,,,,,,,,,,,,,,,,,,,,,,,,,,,,,,,,,,,,,,,,,,,,,,,,,,,,,,,,,,,,,,,,,,,,,,,,,,,,,,,,,,,,,,,,,,,,,,,,,,,,,,,,,,,,,,,,,,,,,,,,,,,,,,,,,,
,,5abfadbafa3b4e0001733be0,2024-02-18_20h13.40.952,kallum_motion_pilot,2023.2.2,Win32,62.5,5abfadbafa3b4e0001733be0,65d2b6c8f2eece985d8e374c,65d2b93dab9f1aa3eae61f8c,0.143,0.143,0,142,142,65,1,onethree,,,,,,,,,,,,,,,,,,,,,,,,,,,,,,,,,,,,,,,,,,,,,,,,,,,,,,,,,,,,,,,,,,,,,,,,,,,,,,,,,,,,,,,,,,,,,,,,,,,,,,,,,,,,,,,,,,,,,,,,,,,,,,,,,,,,,,,,,
,,5abfadbafa3b4e0001733be0,2024-02-18_20h13.40.952,kallum_motion_pilot,2023.2.2,Win32,62.5,5abfadbafa3b4e0001733be0,65d2b6c8f2eece985d8e374c,65d2b93dab9f1aa3eae61f8c,0.145,0.145,0,143,143,2,1,twoone,,,,,,,,,,,,,,,,,,,,,,,,,,,,,,,,,,,,,,,,,,,,,,,,,,,,,,,,,,,,,,,,,,,,,,,,,,,,,,,,,,,,,,,,,,,,,,,,,,,,,,,,,,,,,,,,,,,,,,,,,,,,,,,,,,,,,,,,,
,,5abfadbafa3b4e0001733be0,2024-02-18_20h13.40.952,kallum_motion_pilot,2023.2.2,Win32,62.5,5abfadbafa3b4e0001733be0,65d2b6c8f2eece985d8e374c,65d2b93dab9f1aa3eae61f8c,0.146,0.146,0,144,144,131,1,sixeight,,,,,,,,,,,,,,,,,,,,,,,,,,,,,,,,,,,,,,,,,,,,,,,,,,,,,,,,,,,,,,,,,,,,,,,,,,,,,,,,,,,,,,,,,,,,,,,,,,,,,,,,,,,,,,,,,,,,,,,,,,,,,,,,,,,,,,,,,
,,5abfadbafa3b4e0001733be0,2024-02-18_20h13.40.952,kallum_motion_pilot,2023.2.2,Win32,62.5,5abfadbafa3b4e0001733be0,65d2b6c8f2eece985d8e374c,65d2b93dab9f1aa3eae61f8c,0.146,0.146,0,145,145,34,1,twoone,,,,,,,,,,,,,,,,,,,,,,,,,,,,,,,,,,,,,,,,,,,,,,,,,,,,,,,,,,,,,,,,,,,,,,,,,,,,,,,,,,,,,,,,,,,,,,,,,,,,,,,,,,,,,,,,,,,,,,,,,,,,,,,,,,,,,,,,,
,,5abfadbafa3b4e0001733be0,2024-02-18_20h13.40.952,kallum_motion_pilot,2023.2.2,Win32,62.5,5abfadbafa3b4e0001733be0,65d2b6c8f2eece985d8e374c,65d2b93dab9f1aa3eae61f8c,0.148,0.148,0,146,146,103,1,eightseven,,,,,,,,,,,,,,,,,,,,,,,,,,,,,,,,,,,,,,,,,,,,,,,,,,,,,,,,,,,,,,,,,,,,,,,,,,,,,,,,,,,,,,,,,,,,,,,,,,,,,,,,,,,,,,,,,,,,,,,,,,,,,,,,,,,,,,,,,
,,5abfadbafa3b4e0001733be0,2024-02-18_20h13.40.952,kallum_motion_pilot,2023.2.2,Win32,62.5,5abfadbafa3b4e0001733be0,65d2b6c8f2eece985d8e374c,65d2b93dab9f1aa3eae61f8c,0.148,0.148,0,147,147,136,1,fivesix,,,,,,,,,,,,,,,,,,,,,,,,,,,,,,,,,,,,,,,,,,,,,,,,,,,,,,,,,,,,,,,,,,,,,,,,,,,,,,,,,,,,,,,,,,,,,,,,,,,,,,,,,,,,,,,,,,,,,,,,,,,,,,,,,,,,,,,,,
,,5abfadbafa3b4e0001733be0,2024-02-18_20h13.40.952,kallum_motion_pilot,2023.2.2,Win32,62.5,5abfadbafa3b4e0001733be0,65d2b6c8f2eece985d8e374c,65d2b93dab9f1aa3eae61f8c,0.148,0.149,0,148,148,130,1,sixfive,,,,,,,,,,,,,,,,,,,,,,,,,,,,,,,,,,,,,,,,,,,,,,,,,,,,,,,,,,,,,,,,,,,,,,,,,,,,,,,,,,,,,,,,,,,,,,,,,,,,,,,,,,,,,,,,,,,,,,,,,,,,,,,,,,,,,,,,,
,,5abfadbafa3b4e0001733be0,2024-02-18_20h13.40.952,kallum_motion_pilot,2023.2.2,Win32,62.5,5abfadbafa3b4e0001733be0,65d2b6c8f2eece985d8e374c,65d2b93dab9f1aa3eae61f8c,0.15,0.15,0,149,149,120,1,fivesix,,,,,,,,,,,,,,,,,,,,,,,,,,,,,,,,,,,,,,,,,,,,,,,,,,,,,,,,,,,,,,,,,,,,,,,,,,,,,,,,,,,,,,,,,,,,,,,,,,,,,,,,,,,,,,,,,,,,,,,,,,,,,,,,,,,,,,,,,
,,5abfadbafa3b4e0001733be0,2024-02-18_20h13.40.952,kallum_motion_pilot,2023.2.2,Win32,62.5,5abfadbafa3b4e0001733be0,65d2b6c8f2eece985d8e374c,65d2b93dab9f1aa3eae61f8c,0.15,0.15,0,150,150,89,1,fiveseven,,,,,,,,,,,,,,,,,,,,,,,,,,,,,,,,,,,,,,,,,,,,,,,,,,,,,,,,,,,,,,,,,,,,,,,,,,,,,,,,,,,,,,,,,,,,,,,,,,,,,,,,,,,,,,,,,,,,,,,,,,,,,,,,,,,,,,,,,
,,5abfadbafa3b4e0001733be0,2024-02-18_20h13.40.952,kallum_motion_pilot,2023.2.2,Win32,62.5,5abfadbafa3b4e0001733be0,65d2b6c8f2eece985d8e374c,65d2b93dab9f1aa3eae61f8c,0.151,0.151,0,151,151,25,1,onethree,,,,,,,,,,,,,,,,,,,,,,,,,,,,,,,,,,,,,,,,,,,,,,,,,,,,,,,,,,,,,,,,,,,,,,,,,,,,,,,,,,,,,,,,,,,,,,,,,,,,,,,,,,,,,,,,,,,,,,,,,,,,,,,,,,,,,,,,,
,,5abfadbafa3b4e0001733be0,2024-02-18_20h13.40.952,kallum_motion_pilot,2023.2.2,Win32,62.5,5abfadbafa3b4e0001733be0,65d2b6c8f2eece985d8e374c,65d2b93dab9f1aa3eae61f8c,0.151,0.151,0,152,152,59,1,twofour,,,,,,,,,,,,,,,,,,,,,,,,,,,,,,,,,,,,,,,,,,,,,,,,,,,,,,,,,,,,,,,,,,,,,,,,,,,,,,,,,,,,,,,,,,,,,,,,,,,,,,,,,,,,,,,,,,,,,,,,,,,,,,,,,,,,,,,,,
,,5abfadbafa3b4e0001733be0,2024-02-18_20h13.40.952,kallum_motion_pilot,2023.2.2,Win32,62.5,5abfadbafa3b4e0001733be0,65d2b6c8f2eece985d8e374c,65d2b93dab9f1aa3eae61f8c,0.151,0.151,0,153,153,53,1,threefour,,,,,,,,,,,,,,,,,,,,,,,,,,,,,,,,,,,,,,,,,,,,,,,,,,,,,,,,,,,,,,,,,,,,,,,,,,,,,,,,,,,,,,,,,,,,,,,,,,,,,,,,,,,,,,,,,,,,,,,,,,,,,,,,,,,,,,,,,
,,5abfadbafa3b4e0001733be0,2024-02-18_20h13.40.952,kallum_motion_pilot,2023.2.2,Win32,62.5,5abfadbafa3b4e0001733be0,65d2b6c8f2eece985d8e374c,65d2b93dab9f1aa3eae61f8c,0.151,0.151,0,154,154,140,1,sevenfive,,,,,,,,,,,,,,,,,,,,,,,,,,,,,,,,,,,,,,,,,,,,,,,,,,,,,,,,,,,,,,,,,,,,,,,,,,,,,,,,,,,,,,,,,,,,,,,,,,,,,,,,,,,,,,,,,,,,,,,,,,,,,,,,,,,,,,,,,
,,5abfadbafa3b4e0001733be0,2024-02-18_20h13.40.952,kallum_motion_pilot,2023.2.2,Win32,62.5,5abfadbafa3b4e0001733be0,65d2b6c8f2eece985d8e374c,65d2b93dab9f1aa3eae61f8c,0.152,0.152,0,155,155,102,1,eightsix,,,,,,,,,,,,,,,,,,,,,,,,,,,,,,,,,,,,,,,,,,,,,,,,,,,,,,,,,,,,,,,,,,,,,,,,,,,,,,,,,,,,,,,,,,,,,,,,,,,,,,,,,,,,,,,,,,,,,,,,,,,,,,,,,,,,,,,,,
,,5abfadbafa3b4e0001733be0,2024-02-18_20h13.40.952,kallum_motion_pilot,2023.2.2,Win32,62.5,5abfadbafa3b4e0001733be0,65d2b6c8f2eece985d8e374c,65d2b93dab9f1aa3eae61f8c,0.152,0.153,0,156,156,42,1,twoone,,,,,,,,,,,,,,,,,,,,,,,,,,,,,,,,,,,,,,,,,,,,,,,,,,,,,,,,,,,,,,,,,,,,,,,,,,,,,,,,,,,,,,,,,,,,,,,,,,,,,,,,,,,,,,,,,,,,,,,,,,,,,,,,,,,,,,,,,
,,5abfadbafa3b4e0001733be0,2024-02-18_20h13.40.952,kallum_motion_pilot,2023.2.2,Win32,62.5,5abfadbafa3b4e0001733be0,65d2b6c8f2eece985d8e374c,65d2b93dab9f1aa3eae61f8c,0.153,0.153,0,157,157,57,1,onethree,,,,,,,,,,,,,,,,,,,,,,,,,,,,,,,,,,,,,,,,,,,,,,,,,,,,,,,,,,,,,,,,,,,,,,,,,,,,,,,,,,,,,,,,,,,,,,,,,,,,,,,,,,,,,,,,,,,,,,,,,,,,,,,,,,,,,,,,,
,,5abfadbafa3b4e0001733be0,2024-02-18_20h13.40.952,kallum_motion_pilot,2023.2.2,Win32,62.5,5abfadbafa3b4e0001733be0,65d2b6c8f2eece985d8e374c,65d2b93dab9f1aa3eae61f8c,0.154,0.154,0,158,158,16,1,onetwo,,,,,,,,,,,,,,,,,,,,,,,,,,,,,,,,,,,,,,,,,,,,,,,,,,,,,,,,,,,,,,,,,,,,,,,,,,,,,,,,,,,,,,,,,,,,,,,,,,,,,,,,,,,,,,,,,,,,,,,,,,,,,,,,,,,,,,,,,
,,5abfadbafa3b4e0001733be0,2024-02-18_20h13.40.952,kallum_motion_pilot,2023.2.2,Win32,62.5,5abfadbafa3b4e0001733be0,65d2b6c8f2eece985d8e374c,65d2b93dab9f1aa3eae61f8c,0.154,0.154,0,159,159,84,1,sevenfive,,,,,,,,,,,,,,,,,,,,,,,,,,,,,,,,,,,,,,,,,,,,,,,,,,,,,,,,,,,,,,,,,,,,,,,,,,,,,,,,,,,,,,,,,,,,,,,,,,,,,,,,,,,,,,,,,,,,,,,,,,,,,,,,,,,,,,,,,
,,5abfadbafa3b4e0001733be0,2024-02-18_20h13.40.952,kallum_motion_pilot,2023.2.2,Win32,62.5,5abfadbafa3b4e0001733be0,65d2b6c8f2eece985d8e374c,65d2b93dab9f1aa3eae61f8c,0.155,0.155,0,160,160,32,1,onetwo,,,,,,,,,,,,,,,,,,,,,,,,,,,,,,,,,,,,,,,,,,,,,,,,,,,,,,,,,,,,,,,,,,,,,,,,,,,,,,,,,,,,,,,,,,,,,,,,,,,,,,,,,,,,,,,,,,,,,,,,,,,,,,,,,,,,,,,,,
,,5abfadbafa3b4e0001733be0,2024-02-18_20h13.40.952,kallum_motion_pilot,2023.2.2,Win32,62.5,5abfadbafa3b4e0001733be0,65d2b6c8f2eece985d8e374c,65d2b93dab9f1aa3eae61f8c,0.155,0.155,0,161,161,124,1,sevenfive,,,,,,,,,,,,,,,,,,,,,,,,,,,,,,,,,,,,,,,,,,,,,,,,,,,,,,,,,,,,,,,,,,,,,,,,,,,,,,,,,,,,,,,,,,,,,,,,,,,,,,,,,,,,,,,,,,,,,,,,,,,,,,,,,,,,,,,,,
,,5abfadbafa3b4e0001733be0,2024-02-18_20h13.40.952,kallum_motion_pilot,2023.2.2,Win32,62.5,5abfadbafa3b4e0001733be0,65d2b6c8f2eece985d8e374c,65d2b93dab9f1aa3eae61f8c,0.156,0.157,1,0,162,46,1,fourtwo,,,,,,,,,,,,,,,,,,,,,,,,,,,,,,,,,,,,,,,,,,,,,,,,,,,,,,,,,,,,,,,,,,,,,,,,,,,,,,,,,,,,,,,,,,,,,,,,,,,,,,,,,,,,,,,,,,,,,,,,,,,,,,,,,,,,,,,,,
,,5abfadbafa3b4e0001733be0,2024-02-18_20h13.40.952,kallum_motion_pilot,2023.2.2,Win32,62.5,5abfadbafa3b4e0001733be0,65d2b6c8f2eece985d8e374c,65d2b93dab9f1aa3eae61f8c,0.158,0.158,1,1,163,89,1,fiveseven,,,,,,,,,,,,,,,,,,,,,,,,,,,,,,,,,,,,,,,,,,,,,,,,,,,,,,,,,,,,,,,,,,,,,,,,,,,,,,,,,,,,,,,,,,,,,,,,,,,,,,,,,,,,,,,,,,,,,,,,,,,,,,,,,,,,,,,,,
,,5abfadbafa3b4e0001733be0,2024-02-18_20h13.40.952,kallum_motion_pilot,2023.2.2,Win32,62.5,5abfadbafa3b4e0001733be0,65d2b6c8f2eece985d8e374c,65d2b93dab9f1aa3eae61f8c,0.159,0.159,1,2,164,108,1,sevenfive,,,,,,,,,,,,,,,,,,,,,,,,,,,,,,,,,,,,,,,,,,,,,,,,,,,,,,,,,,,,,,,,,,,,,,,,,,,,,,,,,,,,,,,,,,,,,,,,,,,,,,,,,,,,,,,,,,,,,,,,,,,,,,,,,,,,,,,,,
,,5abfadbafa3b4e0001733be0,2024-02-18_20h13.40.952,kallum_motion_pilot,2023.2.2,Win32,62.5,5abfadbafa3b4e0001733be0,65d2b6c8f2eece985d8e374c,65d2b93dab9f1aa3eae61f8c,0.159,0.159,1,3,165,30,1,fourtwo,,,,,,,,,,,,,,,,,,,,,,,,,,,,,,,,,,,,,,,,,,,,,,,,,,,,,,,,,,,,,,,,,,,,,,,,,,,,,,,,,,,,,,,,,,,,,,,,,,,,,,,,,,,,,,,,,,,,,,,,,,,,,,,,,,,,,,,,,
,,5abfadbafa3b4e0001733be0,2024-02-18_20h13.40.952,kallum_motion_pilot,2023.2.2,Win32,62.5,5abfadbafa3b4e0001733be0,65d2b6c8f2eece985d8e374c,65d2b93dab9f1aa3eae61f8c,0.159,0.159,1,4,166,125,1,seveneight,,,,,,,,,,,,,,,,,,,,,,,,,,,,,,,,,,,,,,,,,,,,,,,,,,,,,,,,,,,,,,,,,,,,,,,,,,,,,,,,,,,,,,,,,,,,,,,,,,,,,,,,,,,,,,,,,,,,,,,,,,,,,,,,,,,,,,,,,
,,5abfadbafa3b4e0001733be0,2024-02-18_20h13.40.952,kallum_motion_pilot,2023.2.2,Win32,62.5,5abfadbafa3b4e0001733be0,65d2b6c8f2eece985d8e374c,65d2b93dab9f1aa3eae61f8c,0.161,0.161,1,5,167,36,1,threeone,,,,,,,,,,,,,,,,,,,,,,,,,,,,,,,,,,,,,,,,,,,,,,,,,,,,,,,,,,,,,,,,,,,,,,,,,,,,,,,,,,,,,,,,,,,,,,,,,,,,,,,,,,,,,,,,,,,,,,,,,,,,,,,,,,,,,,,,,
,,5abfadbafa3b4e0001733be0,2024-02-18_20h13.40.952,kallum_motion_pilot,2023.2.2,Win32,62.5,5abfadbafa3b4e0001733be0,65d2b6c8f2eece985d8e374c,65d2b93dab9f1aa3eae61f8c,0.161,0.161,1,6,168,44,1,threeone,,,,,,,,,,,,,,,,,,,,,,,,,,,,,,,,,,,,,,,,,,,,,,,,,,,,,,,,,,,,,,,,,,,,,,,,,,,,,,,,,,,,,,,,,,,,,,,,,,,,,,,,,,,,,,,,,,,,,,,,,,,,,,,,,,,,,,,,,
,,5abfadbafa3b4e0001733be0,2024-02-18_20h13.40.952,kallum_motion_pilot,2023.2.2,Win32,62.5,5abfadbafa3b4e0001733be0,65d2b6c8f2eece985d8e374c,65d2b93dab9f1aa3eae61f8c,0.162,0.162,1,7,169,132,1,sevenfive,,,,,,,,,,,,,,,,,,,,,,,,,,,,,,,,,,,,,,,,,,,,,,,,,,,,,,,,,,,,,,,,,,,,,,,,,,,,,,,,,,,,,,,,,,,,,,,,,,,,,,,,,,,,,,,,,,,,,,,,,,,,,,,,,,,,,,,,,
,,5abfadbafa3b4e0001733be0,2024-02-18_20h13.40.952,kallum_motion_pilot,2023.2.2,Win32,62.5,5abfadbafa3b4e0001733be0,65d2b6c8f2eece985d8e374c,65d2b93dab9f1aa3eae61f8c,0.162,0.163,1,8,170,150,1,eightsix,,,,,,,,,,,,,,,,,,,,,,,,,,,,,,,,,,,,,,,,,,,,,,,,,,,,,,,,,,,,,,,,,,,,,,,,,,,,,,,,,,,,,,,,,,,,,,,,,,,,,,,,,,,,,,,,,,,,,,,,,,,,,,,,,,,,,,,,,
,,5abfadbafa3b4e0001733be0,2024-02-18_20h13.40.952,kallum_motion_pilot,2023.2.2,Win32,62.5,5abfadbafa3b4e0001733be0,65d2b6c8f2eece985d8e374c,65d2b93dab9f1aa3eae61f8c,0.163,0.163,1,9,171,122,1,sixfive,,,,,,,,,,,,,,,,,,,,,,,,,,,,,,,,,,,,,,,,,,,,,,,,,,,,,,,,,,,,,,,,,,,,,,,,,,,,,,,,,,,,,,,,,,,,,,,,,,,,,,,,,,,,,,,,,,,,,,,,,,,,,,,,,,,,,,,,,
,,5abfadbafa3b4e0001733be0,2024-02-18_20h13.40.952,kallum_motion_pilot,2023.2.2,Win32,62.5,5abfadbafa3b4e0001733be0,65d2b6c8f2eece985d8e374c,65d2b93dab9f1aa3eae61f8c,0.164,0.164,1,10,172,18,1,twoone,,,,,,,,,,,,,,,,,,,,,,,,,,,,,,,,,,,,,,,,,,,,,,,,,,,,,,,,,,,,,,,,,,,,,,,,,,,,,,,,,,,,,,,,,,,,,,,,,,,,,,,,,,,,,,,,,,,,,,,,,,,,,,,,,,,,,,,,,
,,5abfadbafa3b4e0001733be0,2024-02-18_20h13.40.952,kallum_motion_pilot,2023.2.2,Win32,62.5,5abfadbafa3b4e0001733be0,65d2b6c8f2eece985d8e374c,65d2b93dab9f1aa3eae61f8c,0.165,0.165,1,11,173,112,1,fivesix,,,,,,,,,,,,,,,,,,,,,,,,,,,,,,,,,,,,,,,,,,,,,,,,,,,,,,,,,,,,,,,,,,,,,,,,,,,,,,,,,,,,,,,,,,,,,,,,,,,,,,,,,,,,,,,,,,,,,,,,,,,,,,,,,,,,,,,,,
,,5abfadbafa3b4e0001733be0,2024-02-18_20h13.40.952,kallum_motion_pilot,2023.2.2,Win32,62.5,5abfadbafa3b4e0001733be0,65d2b6c8f2eece985d8e374c,65d2b93dab9f1aa3eae61f8c,0.165,0.165,1,12,174,147,1,sixeight,,,,,,,,,,,,,,,,,,,,,,,,,,,,,,,,,,,,,,,,,,,,,,,,,,,,,,,,,,,,,,,,,,,,,,,,,,,,,,,,,,,,,,,,,,,,,,,,,,,,,,,,,,,,,,,,,,,,,,,,,,,,,,,,,,,,,,,,,
,,5abfadbafa3b4e0001733be0,2024-02-18_20h13.40.952,kallum_motion_pilot,2023.2.2,Win32,62.5,5abfadbafa3b4e0001733be0,65d2b6c8f2eece985d8e374c,65d2b93dab9f1aa3eae61f8c,0.165,0.165,1,13,175,14,1,fourtwo,,,,,,,,,,,,,,,,,,,,,,,,,,,,,,,,,,,,,,,,,,,,,,,,,,,,,,,,,,,,,,,,,,,,,,,,,,,,,,,,,,,,,,,,,,,,,,,,,,,,,,,,,,,,,,,,,,,,,,,,,,,,,,,,,,,,,,,,,
,,5abfadbafa3b4e0001733be0,2024-02-18_20h13.40.952,kallum_motion_pilot,2023.2.2,Win32,62.5,5abfadbafa3b4e0001733be0,65d2b6c8f2eece985d8e374c,65d2b93dab9f1aa3eae61f8c,0.167,0.167,1,14,176,29,1,threefour,,,,,,,,,,,,,,,,,,,,,,,,,,,,,,,,,,,,,,,,,,,,,,,,,,,,,,,,,,,,,,,,,,,,,,,,,,,,,,,,,,,,,,,,,,,,,,,,,,,,,,,,,,,,,,,,,,,,,,,,,,,,,,,,,,,,,,,,,
,,5abfadbafa3b4e0001733be0,2024-02-18_20h13.40.952,kallum_motion_pilot,2023.2.2,Win32,62.5,5abfadbafa3b4e0001733be0,65d2b6c8f2eece985d8e374c,65d2b93dab9f1aa3eae61f8c,0.168,0.168,1,15,177,72,1,onetwo,,,,,,,,,,,,,,,,,,,,,,,,,,,,,,,,,,,,,,,,,,,,,,,,,,,,,,,,,,,,,,,,,,,,,,,,,,,,,,,,,,,,,,,,,,,,,,,,,,,,,,,,,,,,,,,,,,,,,,,,,,,,,,,,,,,,,,,,,
,,5abfadbafa3b4e0001733be0,2024-02-18_20h13.40.952,kallum_motion_pilot,2023.2.2,Win32,62.5,5abfadbafa3b4e0001733be0,65d2b6c8f2eece985d8e374c,65d2b93dab9f1aa3eae61f8c,0.169,0.169,1,16,178,123,1,sixeight,,,,,,,,,,,,,,,,,,,,,,,,,,,,,,,,,,,,,,,,,,,,,,,,,,,,,,,,,,,,,,,,,,,,,,,,,,,,,,,,,,,,,,,,,,,,,,,,,,,,,,,,,,,,,,,,,,,,,,,,,,,,,,,,,,,,,,,,,
,,5abfadbafa3b4e0001733be0,2024-02-18_20h13.40.952,kallum_motion_pilot,2023.2.2,Win32,62.5,5abfadbafa3b4e0001733be0,65d2b6c8f2eece985d8e374c,65d2b93dab9f1aa3eae61f8c,0.169,0.169,1,17,179,91,1,sixeight,,,,,,,,,,,,,,,,,,,,,,,,,,,,,,,,,,,,,,,,,,,,,,,,,,,,,,,,,,,,,,,,,,,,,,,,,,,,,,,,,,,,,,,,,,,,,,,,,,,,,,,,,,,,,,,,,,,,,,,,,,,,,,,,,,,,,,,,,
,,5abfadbafa3b4e0001733be0,2024-02-18_20h13.40.952,kallum_motion_pilot,2023.2.2,Win32,62.5,5abfadbafa3b4e0001733be0,65d2b6c8f2eece985d8e374c,65d2b93dab9f1aa3eae61f8c,0.169,0.17,1,18,180,126,1,eightsix,,,,,,,,,,,,,,,,,,,,,,,,,,,,,,,,,,,,,,,,,,,,,,,,,,,,,,,,,,,,,,,,,,,,,,,,,,,,,,,,,,,,,,,,,,,,,,,,,,,,,,,,,,,,,,,,,,,,,,,,,,,,,,,,,,,,,,,,,
,,5abfadbafa3b4e0001733be0,2024-02-18_20h13.40.952,kallum_motion_pilot,2023.2.2,Win32,62.5,5abfadbafa3b4e0001733be0,65d2b6c8f2eece985d8e374c,65d2b93dab9f1aa3eae61f8c,0.17,0.171,1,19,181,21,1,threefour,,,,,,,,,,,,,,,,,,,,,,,,,,,,,,,,,,,,,,,,,,,,,,,,,,,,,,,,,,,,,,,,,,,,,,,,,,,,,,,,,,,,,,,,,,,,,,,,,,,,,,,,,,,,,,,,,,,,,,,,,,,,,,,,,,,,,,,,,
,,5abfadbafa3b4e0001733be0,2024-02-18_20h13.40.952,kallum_motion_pilot,2023.2.2,Win32,62.5,5abfadbafa3b4e0001733be0,65d2b6c8f2eece985d8e374c,65d2b93dab9f1aa3eae61f8c,0.171,0.172,1,20,182,49,1,onethree,,,,,,,,,,,,,,,,,,,,,,,,,,,,,,,,,,,,,,,,,,,,,,,,,,,,,,,,,,,,,,,,,,,,,,,,,,,,,,,,,,,,,,,,,,,,,,,,,,,,,,,,,,,,,,,,,,,,,,,,,,,,,,,,,,,,,,,,,
,,5abfadbafa3b4e0001733be0,2024-02-18_20h13.40.952,kallum_motion_pilot,2023.2.2,Win32,62.5,5abfadbafa3b4e0001733be0,65d2b6c8f2eece985d8e374c,65d2b93dab9f1aa3eae61f8c,0.172,0.173,1,21,183,25,1,onethree,,,,,,,,,,,,,,,,,,,,,,,,,,,,,,,,,,,,,,,,,,,,,,,,,,,,,,,,,,,,,,,,,,,,,,,,,,,,,,,,,,,,,,,,,,,,,,,,,,,,,,,,,,,,,,,,,,,,,,,,,,,,,,,,,,,,,,,,,
,,5abfadbafa3b4e0001733be0,2024-02-18_20h13.40.952,kallum_motion_pilot,2023.2.2,Win32,62.5,5abfadbafa3b4e0001733be0,65d2b6c8f2eece985d8e374c,65d2b93dab9f1aa3eae61f8c,0.174,0.174,1,22,184,28,1,threeone,,,,,,,,,,,,,,,,,,,,,,,,,,,,,,,,,,,,,,,,,,,,,,,,,,,,,,,,,,,,,,,,,,,,,,,,,,,,,,,,,,,,,,,,,,,,,,,,,,,,,,,,,,,,,,,,,,,,,,,,,,,,,,,,,,,,,,,,,
,,5abfadbafa3b4e0001733be0,2024-02-18_20h13.40.952,kallum_motion_pilot,2023.2.2,Win32,62.5,5abfadbafa3b4e0001733be0,65d2b6c8f2eece985d8e374c,65d2b93dab9f1aa3eae61f8c,0.174,0.175,1,23,185,5,1,threefour,,,,,,,,,,,,,,,,,,,,,,,,,,,,,,,,,,,,,,,,,,,,,,,,,,,,,,,,,,,,,,,,,,,,,,,,,,,,,,,,,,,,,,,,,,,,,,,,,,,,,,,,,,,,,,,,,,,,,,,,,,,,,,,,,,,,,,,,,
,,5abfadbafa3b4e0001733be0,2024-02-18_20h13.40.952,kallum_motion_pilot,2023.2.2,Win32,62.5,5abfadbafa3b4e0001733be0,65d2b6c8f2eece985d8e374c,65d2b93dab9f1aa3eae61f8c,0.175,0.175,1,24,186,32,1,onetwo,,,,,,,,,,,,,,,,,,,,,,,,,,,,,,,,,,,,,,,,,,,,,,,,,,,,,,,,,,,,,,,,,,,,,,,,,,,,,,,,,,,,,,,,,,,,,,,,,,,,,,,,,,,,,,,,,,,,,,,,,,,,,,,,,,,,,,,,,
,,5abfadbafa3b4e0001733be0,2024-02-18_20h13.40.952,kallum_motion_pilot,2023.2.2,Win32,62.5,5abfadbafa3b4e0001733be0,65d2b6c8f2eece985d8e374c,65d2b93dab9f1aa3eae61f8c,0.176,0.176,1,25,187,9,1,onethree,,,,,,,,,,,,,,,,,,,,,,,,,,,,,,,,,,,,,,,,,,,,,,,,,,,,,,,,,,,,,,,,,,,,,,,,,,,,,,,,,,,,,,,,,,,,,,,,,,,,,,,,,,,,,,,,,,,,,,,,,,,,,,,,,,,,,,,,,
,,5abfadbafa3b4e0001733be0,2024-02-18_20h13.40.952,kallum_motion_pilot,2023.2.2,Win32,62.5,5abfadbafa3b4e0001733be0,65d2b6c8f2eece985d8e374c,65d2b93dab9f1aa3eae61f8c,0.176,0.176,1,26,188,104,1,fivesix,,,,,,,,,,,,,,,,,,,,,,,,,,,,,,,,,,,,,,,,,,,,,,,,,,,,,,,,,,,,,,,,,,,,,,,,,,,,,,,,,,,,,,,,,,,,,,,,,,,,,,,,,,,,,,,,,,,,,,,,,,,,,,,,,,,,,,,,,
,,5abfadbafa3b4e0001733be0,2024-02-18_20h13.40.952,kallum_motion_pilot,2023.2.2,Win32,62.5,5abfadbafa3b4e0001733be0,65d2b6c8f2eece985d8e374c,65d2b93dab9f1aa3eae61f8c,0.177,0.177,1,27,189,140,1,sevenfive,,,,,,,,,,,,,,,,,,,,,,,,,,,,,,,,,,,,,,,,,,,,,,,,,,,,,,,,,,,,,,,,,,,,,,,,,,,,,,,,,,,,,,,,,,,,,,,,,,,,,,,,,,,,,,,,,,,,,,,,,,,,,,,,,,,,,,,,,
,,5abfadbafa3b4e0001733be0,2024-02-18_20h13.40.952,kallum_motion_pilot,2023.2.2,Win32,62.5,5abfadbafa3b4e0001733be0,65d2b6c8f2eece985d8e374c,65d2b93dab9f1aa3eae61f8c,0.177,0.177,1,28,190,61,1,threefour,,,,,,,,,,,,,,,,,,,,,,,,,,,,,,,,,,,,,,,,,,,,,,,,,,,,,,,,,,,,,,,,,,,,,,,,,,,,,,,,,,,,,,,,,,,,,,,,,,,,,,,,,,,,,,,,,,,,,,,,,,,,,,,,,,,,,,,,,
,,5abfadbafa3b4e0001733be0,2024-02-18_20h13.40.952,kallum_motion_pilot,2023.2.2,Win32,62.5,5abfadbafa3b4e0001733be0,65d2b6c8f2eece985d8e374c,65d2b93dab9f1aa3eae61f8c,0.178,0.178,1,29,191,65,1,onethree,,,,,,,,,,,,,,,,,,,,,,,,,,,,,,,,,,,,,,,,,,,,,,,,,,,,,,,,,,,,,,,,,,,,,,,,,,,,,,,,,,,,,,,,,,,,,,,,,,,,,,,,,,,,,,,,,,,,,,,,,,,,,,,,,,,,,,,,,
,,5abfadbafa3b4e0001733be0,2024-02-18_20h13.40.952,kallum_motion_pilot,2023.2.2,Win32,62.5,5abfadbafa3b4e0001733be0,65d2b6c8f2eece985d8e374c,65d2b93dab9f1aa3eae61f8c,0.179,0.179,1,30,192,45,1,threefour,,,,,,,,,,,,,,,,,,,,,,,,,,,,,,,,,,,,,,,,,,,,,,,,,,,,,,,,,,,,,,,,,,,,,,,,,,,,,,,,,,,,,,,,,,,,,,,,,,,,,,,,,,,,,,,,,,,,,,,,,,,,,,,,,,,,,,,,,
,,5abfadbafa3b4e0001733be0,2024-02-18_20h13.40.952,kallum_motion_pilot,2023.2.2,Win32,62.5,5abfadbafa3b4e0001733be0,65d2b6c8f2eece985d8e374c,65d2b93dab9f1aa3eae61f8c,0.179,0.18,1,31,193,143,1,eightseven,,,,,,,,,,,,,,,,,,,,,,,,,,,,,,,,,,,,,,,,,,,,,,,,,,,,,,,,,,,,,,,,,,,,,,,,,,,,,,,,,,,,,,,,,,,,,,,,,,,,,,,,,,,,,,,,,,,,,,,,,,,,,,,,,,,,,,,,,
,,5abfadbafa3b4e0001733be0,2024-02-18_20h13.40.952,kallum_motion_pilot,2023.2.2,Win32,62.5,5abfadbafa3b4e0001733be0,65d2b6c8f2eece985d8e374c,65d2b93dab9f1aa3eae61f8c,0.181,0.181,1,32,194,116,1,sevenfive,,,,,,,,,,,,,,,,,,,,,,,,,,,,,,,,,,,,,,,,,,,,,,,,,,,,,,,,,,,,,,,,,,,,,,,,,,,,,,,,,,,,,,,,,,,,,,,,,,,,,,,,,,,,,,,,,,,,,,,,,,,,,,,,,,,,,,,,,
,,5abfadbafa3b4e0001733be0,2024-02-18_20h13.40.952,kallum_motion_pilot,2023.2.2,Win32,62.5,5abfadbafa3b4e0001733be0,65d2b6c8f2eece985d8e374c,65d2b93dab9f1aa3eae61f8c,0.181,0.181,1,33,195,40,1,onetwo,,,,,,,,,,,,,,,,,,,,,,,,,,,,,,,,,,,,,,,,,,,,,,,,,,,,,,,,,,,,,,,,,,,,,,,,,,,,,,,,,,,,,,,,,,,,,,,,,,,,,,,,,,,,,,,,,,,,,,,,,,,,,,,,,,,,,,,,,
,,5abfadbafa3b4e0001733be0,2024-02-18_20h13.40.952,kallum_motion_pilot,2023.2.2,Win32,62.5,5abfadbafa3b4e0001733be0,65d2b6c8f2eece985d8e374c,65d2b93dab9f1aa3eae61f8c,0.182,0.182,1,34,196,82,1,sixfive,,,,,,,,,,,,,,,,,,,,,,,,,,,,,,,,,,,,,,,,,,,,,,,,,,,,,,,,,,,,,,,,,,,,,,,,,,,,,,,,,,,,,,,,,,,,,,,,,,,,,,,,,,,,,,,,,,,,,,,,,,,,,,,,,,,,,,,,,
,,5abfadbafa3b4e0001733be0,2024-02-18_20h13.40.952,kallum_motion_pilot,2023.2.2,Win32,62.5,5abfadbafa3b4e0001733be0,65d2b6c8f2eece985d8e374c,65d2b93dab9f1aa3eae61f8c,0.183,0.183,1,35,197,20,1,threeone,,,,,,,,,,,,,,,,,,,,,,,,,,,,,,,,,,,,,,,,,,,,,,,,,,,,,,,,,,,,,,,,,,,,,,,,,,,,,,,,,,,,,,,,,,,,,,,,,,,,,,,,,,,,,,,,,,,,,,,,,,,,,,,,,,,,,,,,,
,,5abfadbafa3b4e0001733be0,2024-02-18_20h13.40.952,kallum_motion_pilot,2023.2.2,Win32,62.5,5abfadbafa3b4e0001733be0,65d2b6c8f2eece985d8e374c,65d2b93dab9f1aa3eae61f8c,0.184,0.184,1,36,198,94,1,eightsix,,,,,,,,,,,,,,,,,,,,,,,,,,,,,,,,,,,,,,,,,,,,,,,,,,,,,,,,,,,,,,,,,,,,,,,,,,,,,,,,,,,,,,,,,,,,,,,,,,,,,,,,,,,,,,,,,,,,,,,,,,,,,,,,,,,,,,,,,
,,5abfadbafa3b4e0001733be0,2024-02-18_20h13.40.952,kallum_motion_pilot,2023.2.2,Win32,62.5,5abfadbafa3b4e0001733be0,65d2b6c8f2eece985d8e374c,65d2b93dab9f1aa3eae61f8c,0.184,0.184,1,37,199,146,1,sixfive,,,,,,,,,,,,,,,,,,,,,,,,,,,,,,,,,,,,,,,,,,,,,,,,,,,,,,,,,,,,,,,,,,,,,,,,,,,,,,,,,,,,,,,,,,,,,,,,,,,,,,,,,,,,,,,,,,,,,,,,,,,,,,,,,,,,,,,,,
,,5abfadbafa3b4e0001733be0,2024-02-18_20h13.40.952,kallum_motion_pilot,2023.2.2,Win32,62.5,5abfadbafa3b4e0001733be0,65d2b6c8f2eece985d8e374c,65d2b93dab9f1aa3eae61f8c,0.185,0.185,1,38,200,127,1,eightseven,,,,,,,,,,,,,,,,,,,,,,,,,,,,,,,,,,,,,,,,,,,,,,,,,,,,,,,,,,,,,,,,,,,,,,,,,,,,,,,,,,,,,,,,,,,,,,,,,,,,,,,,,,,,,,,,,,,,,,,,,,,,,,,,,,,,,,,,,
,,5abfadbafa3b4e0001733be0,2024-02-18_20h13.40.952,kallum_motion_pilot,2023.2.2,Win32,62.5,5abfadbafa3b4e0001733be0,65d2b6c8f2eece985d8e374c,65d2b93dab9f1aa3eae61f8c,0.185,0.185,1,39,201,135,1,eightseven,,,,,,,,,,,,,,,,,,,,,,,,,,,,,,,,,,,,,,,,,,,,,,,,,,,,,,,,,,,,,,,,,,,,,,,,,,,,,,,,,,,,,,,,,,,,,,,,,,,,,,,,,,,,,,,,,,,,,,,,,,,,,,,,,,,,,,,,,
,,5abfadbafa3b4e0001733be0,2024-02-18_20h13.40.952,kallum_motion_pilot,2023.2.2,Win32,62.5,5abfadbafa3b4e0001733be0,65d2b6c8f2eece985d8e374c,65d2b93dab9f1aa3eae61f8c,0.185,0.186,1,40,202,139,1,sixeight,,,,,,,,,,,,,,,,,,,,,,,,,,,,,,,,,,,,,,,,,,,,,,,,,,,,,,,,,,,,,,,,,,,,,,,,,,,,,,,,,,,,,,,,,,,,,,,,,,,,,,,,,,,,,,,,,,,,,,,,,,,,,,,,,,,,,,,,,
,,5abfadbafa3b4e0001733be0,2024-02-18_20h13.40.952,kallum_motion_pilot,2023.2.2,Win32,62.5,5abfadbafa3b4e0001733be0,65d2b6c8f2eece985d8e374c,65d2b93dab9f1aa3eae61f8c,0.186,0.186,1,41,203,130,1,sixfive,,,,,,,,,,,,,,,,,,,,,,,,,,,,,,,,,,,,,,,,,,,,,,,,,,,,,,,,,,,,,,,,,,,,,,,,,,,,,,,,,,,,,,,,,,,,,,,,,,,,,,,,,,,,,,,,,,,,,,,,,,,,,,,,,,,,,,,,,
,,5abfadbafa3b4e0001733be0,2024-02-18_20h13.40.952,kallum_motion_pilot,2023.2.2,Win32,62.5,5abfadbafa3b4e0001733be0,65d2b6c8f2eece985d8e374c,65d2b93dab9f1aa3eae61f8c,0.186,0.187,1,42,204,117,1,seveneight,,,,,,,,,,,,,,,,,,,,,,,,,,,,,,,,,,,,,,,,,,,,,,,,,,,,,,,,,,,,,,,,,,,,,,,,,,,,,,,,,,,,,,,,,,,,,,,,,,,,,,,,,,,,,,,,,,,,,,,,,,,,,,,,,,,,,,,,,
,,5abfadbafa3b4e0001733be0,2024-02-18_20h13.40.952,kallum_motion_pilot,2023.2.2,Win32,62.5,5abfadbafa3b4e0001733be0,65d2b6c8f2eece985d8e374c,65d2b93dab9f1aa3eae61f8c,0.187,0.187,1,43,205,24,1,onetwo,,,,,,,,,,,,,,,,,,,,,,,,,,,,,,,,,,,,,,,,,,,,,,,,,,,,,,,,,,,,,,,,,,,,,,,,,,,,,,,,,,,,,,,,,,,,,,,,,,,,,,,,,,,,,,,,,,,,,,,,,,,,,,,,,,,,,,,,,
,,5abfadbafa3b4e0001733be0,2024-02-18_20h13.40.952,kallum_motion_pilot,2023.2.2,Win32,62.5,5abfadbafa3b4e0001733be0,65d2b6c8f2eece985d8e374c,65d2b93dab9f1aa3eae61f8c,0.188,0.188,1,44,206,106,1,sixfive,,,,,,,,,,,,,,,,,,,,,,,,,,,,,,,,,,,,,,,,,,,,,,,,,,,,,,,,,,,,,,,,,,,,,,,,,,,,,,,,,,,,,,,,,,,,,,,,,,,,,,,,,,,,,,,,,,,,,,,,,,,,,,,,,,,,,,,,,
,,5abfadbafa3b4e0001733be0,2024-02-18_20h13.40.952,kallum_motion_pilot,2023.2.2,Win32,62.5,5abfadbafa3b4e0001733be0,65d2b6c8f2eece985d8e374c,65d2b93dab9f1aa3eae61f8c,0.188,0.189,1,45,207,107,1,sixeight,,,,,,,,,,,,,,,,,,,,,,,,,,,,,,,,,,,,,,,,,,,,,,,,,,,,,,,,,,,,,,,,,,,,,,,,,,,,,,,,,,,,,,,,,,,,,,,,,,,,,,,,,,,,,,,,,,,,,,,,,,,,,,,,,,,,,,,,,
,,5abfadbafa3b4e0001733be0,2024-02-18_20h13.40.952,kallum_motion_pilot,2023.2.2,Win32,62.5,5abfadbafa3b4e0001733be0,65d2b6c8f2eece985d8e374c,65d2b93dab9f1aa3eae61f8c,0.189,0.19,1,46,208,27,1,twofour,,,,,,,,,,,,,,,,,,,,,,,,,,,,,,,,,,,,,,,,,,,,,,,,,,,,,,,,,,,,,,,,,,,,,,,,,,,,,,,,,,,,,,,,,,,,,,,,,,,,,,,,,,,,,,,,,,,,,,,,,,,,,,,,,,,,,,,,,
,,5abfadbafa3b4e0001733be0,2024-02-18_20h13.40.952,kallum_motion_pilot,2023.2.2,Win32,62.5,5abfadbafa3b4e0001733be0,65d2b6c8f2eece985d8e374c,65d2b93dab9f1aa3eae61f8c,0.191,0.191,1,47,209,115,1,sixeight,,,,,,,,,,,,,,,,,,,,,,,,,,,,,,,,,,,,,,,,,,,,,,,,,,,,,,,,,,,,,,,,,,,,,,,,,,,,,,,,,,,,,,,,,,,,,,,,,,,,,,,,,,,,,,,,,,,,,,,,,,,,,,,,,,,,,,,,,
,,5abfadbafa3b4e0001733be0,2024-02-18_20h13.40.952,kallum_motion_pilot,2023.2.2,Win32,62.5,5abfadbafa3b4e0001733be0,65d2b6c8f2eece985d8e374c,65d2b93dab9f1aa3eae61f8c,0.191,0.191,1,48,210,3,1,twofour,,,,,,,,,,,,,,,,,,,,,,,,,,,,,,,,,,,,,,,,,,,,,,,,,,,,,,,,,,,,,,,,,,,,,,,,,,,,,,,,,,,,,,,,,,,,,,,,,,,,,,,,,,,,,,,,,,,,,,,,,,,,,,,,,,,,,,,,,
,,5abfadbafa3b4e0001733be0,2024-02-18_20h13.40.952,kallum_motion_pilot,2023.2.2,Win32,62.5,5abfadbafa3b4e0001733be0,65d2b6c8f2eece985d8e374c,65d2b93dab9f1aa3eae61f8c,0.191,0.191,1,49,211,87,1,eightseven,,,,,,,,,,,,,,,,,,,,,,,,,,,,,,,,,,,,,,,,,,,,,,,,,,,,,,,,,,,,,,,,,,,,,,,,,,,,,,,,,,,,,,,,,,,,,,,,,,,,,,,,,,,,,,,,,,,,,,,,,,,,,,,,,,,,,,,,,
,,5abfadbafa3b4e0001733be0,2024-02-18_20h13.40.952,kallum_motion_pilot,2023.2.2,Win32,62.5,5abfadbafa3b4e0001733be0,65d2b6c8f2eece985d8e374c,65d2b93dab9f1aa3eae61f8c,0.191,0.191,1,50,212,153,1,fiveseven,,,,,,,,,,,,,,,,,,,,,,,,,,,,,,,,,,,,,,,,,,,,,,,,,,,,,,,,,,,,,,,,,,,,,,,,,,,,,,,,,,,,,,,,,,,,,,,,,,,,,,,,,,,,,,,,,,,,,,,,,,,,,,,,,,,,,,,,,
,,5abfadbafa3b4e0001733be0,2024-02-18_20h13.40.952,kallum_motion_pilot,2023.2.2,Win32,62.5,5abfadbafa3b4e0001733be0,65d2b6c8f2eece985d8e374c,65d2b93dab9f1aa3eae61f8c,0.193,0.193,1,51,213,8,1,onetwo,,,,,,,,,,,,,,,,,,,,,,,,,,,,,,,,,,,,,,,,,,,,,,,,,,,,,,,,,,,,,,,,,,,,,,,,,,,,,,,,,,,,,,,,,,,,,,,,,,,,,,,,,,,,,,,,,,,,,,,,,,,,,,,,,,,,,,,,,
,,5abfadbafa3b4e0001733be0,2024-02-18_20h13.40.952,kallum_motion_pilot,2023.2.2,Win32,62.5,5abfadbafa3b4e0001733be0,65d2b6c8f2eece985d8e374c,65d2b93dab9f1aa3eae61f8c,0.193,0.194,1,52,214,0,1,onetwo,,,,,,,,,,,,,,,,,,,,,,,,,,,,,,,,,,,,,,,,,,,,,,,,,,,,,,,,,,,,,,,,,,,,,,,,,,,,,,,,,,,,,,,,,,,,,,,,,,,,,,,,,,,,,,,,,,,,,,,,,,,,,,,,,,,,,,,,,
,,5abfadbafa3b4e0001733be0,2024-02-18_20h13.40.952,kallum_motion_pilot,2023.2.2,Win32,62.5,5abfadbafa3b4e0001733be0,65d2b6c8f2eece985d8e374c,65d2b93dab9f1aa3eae61f8c,0.194,0.194,1,53,215,37,1,threefour,,,,,,,,,,,,,,,,,,,,,,,,,,,,,,,,,,,,,,,,,,,,,,,,,,,,,,,,,,,,,,,,,,,,,,,,,,,,,,,,,,,,,,,,,,,,,,,,,,,,,,,,,,,,,,,,,,,,,,,,,,,,,,,,,,,,,,,,,
,,5abfadbafa3b4e0001733be0,2024-02-18_20h13.40.952,kallum_motion_pilot,2023.2.2,Win32,62.5,5abfadbafa3b4e0001733be0,65d2b6c8f2eece985d8e374c,65d2b93dab9f1aa3eae61f8c,0.195,0.195,1,54,216,56,1,onetwo,,,,,,,,,,,,,,,,,,,,,,,,,,,,,,,,,,,,,,,,,,,,,,,,,,,,,,,,,,,,,,,,,,,,,,,,,,,,,,,,,,,,,,,,,,,,,,,,,,,,,,,,,,,,,,,,,,,,,,,,,,,,,,,,,,,,,,,,,
,,5abfadbafa3b4e0001733be0,2024-02-18_20h13.40.952,kallum_motion_pilot,2023.2.2,Win32,62.5,5abfadbafa3b4e0001733be0,65d2b6c8f2eece985d8e374c,65d2b93dab9f1aa3eae61f8c,0.195,0.195,1,55,217,161,1,fiveseven,,,,,,,,,,,,,,,,,,,,,,,,,,,,,,,,,,,,,,,,,,,,,,,,,,,,,,,,,,,,,,,,,,,,,,,,,,,,,,,,,,,,,,,,,,,,,,,,,,,,,,,,,,,,,,,,,,,,,,,,,,,,,,,,,,,,,,,,,
,,5abfadbafa3b4e0001733be0,2024-02-18_20h13.40.952,kallum_motion_pilot,2023.2.2,Win32,62.5,5abfadbafa3b4e0001733be0,65d2b6c8f2eece985d8e374c,65d2b93dab9f1aa3eae61f8c,0.196,0.196,1,56,218,26,1,twoone,,,,,,,,,,,,,,,,,,,,,,,,,,,,,,,,,,,,,,,,,,,,,,,,,,,,,,,,,,,,,,,,,,,,,,,,,,,,,,,,,,,,,,,,,,,,,,,,,,,,,,,,,,,,,,,,,,,,,,,,,,,,,,,,,,,,,,,,,
,,5abfadbafa3b4e0001733be0,2024-02-18_20h13.40.952,kallum_motion_pilot,2023.2.2,Win32,62.5,5abfadbafa3b4e0001733be0,65d2b6c8f2eece985d8e374c,65d2b93dab9f1aa3eae61f8c,0.196,0.196,1,57,219,62,1,fourtwo,,,,,,,,,,,,,,,,,,,,,,,,,,,,,,,,,,,,,,,,,,,,,,,,,,,,,,,,,,,,,,,,,,,,,,,,,,,,,,,,,,,,,,,,,,,,,,,,,,,,,,,,,,,,,,,,,,,,,,,,,,,,,,,,,,,,,,,,,
,,5abfadbafa3b4e0001733be0,2024-02-18_20h13.40.952,kallum_motion_pilot,2023.2.2,Win32,62.5,5abfadbafa3b4e0001733be0,65d2b6c8f2eece985d8e374c,65d2b93dab9f1aa3eae61f8c,0.197,0.197,1,58,220,98,1,sixfive,,,,,,,,,,,,,,,,,,,,,,,,,,,,,,,,,,,,,,,,,,,,,,,,,,,,,,,,,,,,,,,,,,,,,,,,,,,,,,,,,,,,,,,,,,,,,,,,,,,,,,,,,,,,,,,,,,,,,,,,,,,,,,,,,,,,,,,,,
,,5abfadbafa3b4e0001733be0,2024-02-18_20h13.40.952,kallum_motion_pilot,2023.2.2,Win32,62.5,5abfadbafa3b4e0001733be0,65d2b6c8f2eece985d8e374c,65d2b93dab9f1aa3eae61f8c,0.198,0.198,1,59,221,22,1,fourtwo,,,,,,,,,,,,,,,,,,,,,,,,,,,,,,,,,,,,,,,,,,,,,,,,,,,,,,,,,,,,,,,,,,,,,,,,,,,,,,,,,,,,,,,,,,,,,,,,,,,,,,,,,,,,,,,,,,,,,,,,,,,,,,,,,,,,,,,,,
,,5abfadbafa3b4e0001733be0,2024-02-18_20h13.40.952,kallum_motion_pilot,2023.2.2,Win32,62.5,5abfadbafa3b4e0001733be0,65d2b6c8f2eece985d8e374c,65d2b93dab9f1aa3eae61f8c,0.198,0.199,1,60,222,95,1,eightseven,,,,,,,,,,,,,,,,,,,,,,,,,,,,,,,,,,,,,,,,,,,,,,,,,,,,,,,,,,,,,,,,,,,,,,,,,,,,,,,,,,,,,,,,,,,,,,,,,,,,,,,,,,,,,,,,,,,,,,,,,,,,,,,,,,,,,,,,,
,,5abfadbafa3b4e0001733be0,2024-02-18_20h13.40.952,kallum_motion_pilot,2023.2.2,Win32,62.5,5abfadbafa3b4e0001733be0,65d2b6c8f2eece985d8e374c,65d2b93dab9f1aa3eae61f8c,0.199,0.199,1,61,223,114,1,sixfive,,,,,,,,,,,,,,,,,,,,,,,,,,,,,,,,,,,,,,,,,,,,,,,,,,,,,,,,,,,,,,,,,,,,,,,,,,,,,,,,,,,,,,,,,,,,,,,,,,,,,,,,,,,,,,,,,,,,,,,,,,,,,,,,,,,,,,,,,
,,5abfadbafa3b4e0001733be0,2024-02-18_20h13.40.952,kallum_motion_pilot,2023.2.2,Win32,62.5,5abfadbafa3b4e0001733be0,65d2b6c8f2eece985d8e374c,65d2b93dab9f1aa3eae61f8c,0.2,0.2,1,62,224,102,1,eightsix,,,,,,,,,,,,,,,,,,,,,,,,,,,,,,,,,,,,,,,,,,,,,,,,,,,,,,,,,,,,,,,,,,,,,,,,,,,,,,,,,,,,,,,,,,,,,,,,,,,,,,,,,,,,,,,,,,,,,,,,,,,,,,,,,,,,,,,,,
,,5abfadbafa3b4e0001733be0,2024-02-18_20h13.40.952,kallum_motion_pilot,2023.2.2,Win32,62.5,5abfadbafa3b4e0001733be0,65d2b6c8f2eece985d8e374c,65d2b93dab9f1aa3eae61f8c,0.201,0.201,1,63,225,38,1,fourtwo,,,,,,,,,,,,,,,,,,,,,,,,,,,,,,,,,,,,,,,,,,,,,,,,,,,,,,,,,,,,,,,,,,,,,,,,,,,,,,,,,,,,,,,,,,,,,,,,,,,,,,,,,,,,,,,,,,,,,,,,,,,,,,,,,,,,,,,,,
,,5abfadbafa3b4e0001733be0,2024-02-18_20h13.40.952,kallum_motion_pilot,2023.2.2,Win32,62.5,5abfadbafa3b4e0001733be0,65d2b6c8f2eece985d8e374c,65d2b93dab9f1aa3eae61f8c,0.201,0.201,1,64,226,53,1,threefour,,,,,,,,,,,,,,,,,,,,,,,,,,,,,,,,,,,,,,,,,,,,,,,,,,,,,,,,,,,,,,,,,,,,,,,,,,,,,,,,,,,,,,,,,,,,,,,,,,,,,,,,,,,,,,,,,,,,,,,,,,,,,,,,,,,,,,,,,
,,5abfadbafa3b4e0001733be0,2024-02-18_20h13.40.952,kallum_motion_pilot,2023.2.2,Win32,62.5,5abfadbafa3b4e0001733be0,65d2b6c8f2eece985d8e374c,65d2b93dab9f1aa3eae61f8c,0.201,0.202,1,65,227,81,1,fiveseven,,,,,,,,,,,,,,,,,,,,,,,,,,,,,,,,,,,,,,,,,,,,,,,,,,,,,,,,,,,,,,,,,,,,,,,,,,,,,,,,,,,,,,,,,,,,,,,,,,,,,,,,,,,,,,,,,,,,,,,,,,,,,,,,,,,,,,,,,
,,5abfadbafa3b4e0001733be0,2024-02-18_20h13.40.952,kallum_motion_pilot,2023.2.2,Win32,62.5,5abfadbafa3b4e0001733be0,65d2b6c8f2eece985d8e374c,65d2b93dab9f1aa3eae61f8c,0.202,0.202,1,66,228,6,1,fourtwo,,,,,,,,,,,,,,,,,,,,,,,,,,,,,,,,,,,,,,,,,,,,,,,,,,,,,,,,,,,,,,,,,,,,,,,,,,,,,,,,,,,,,,,,,,,,,,,,,,,,,,,,,,,,,,,,,,,,,,,,,,,,,,,,,,,,,,,,,
,,5abfadbafa3b4e0001733be0,2024-02-18_20h13.40.952,kallum_motion_pilot,2023.2.2,Win32,62.5,5abfadbafa3b4e0001733be0,65d2b6c8f2eece985d8e374c,65d2b93dab9f1aa3eae61f8c,0.203,0.203,1,67,229,59,1,twofour,,,,,,,,,,,,,,,,,,,,,,,,,,,,,,,,,,,,,,,,,,,,,,,,,,,,,,,,,,,,,,,,,,,,,,,,,,,,,,,,,,,,,,,,,,,,,,,,,,,,,,,,,,,,,,,,,,,,,,,,,,,,,,,,,,,,,,,,,
,,5abfadbafa3b4e0001733be0,2024-02-18_20h13.40.952,kallum_motion_pilot,2023.2.2,Win32,62.5,5abfadbafa3b4e0001733be0,65d2b6c8f2eece985d8e374c,65d2b93dab9f1aa3eae61f8c,0.205,0.205,1,68,230,151,1,eightseven,,,,,,,,,,,,,,,,,,,,,,,,,,,,,,,,,,,,,,,,,,,,,,,,,,,,,,,,,,,,,,,,,,,,,,,,,,,,,,,,,,,,,,,,,,,,,,,,,,,,,,,,,,,,,,,,,,,,,,,,,,,,,,,,,,,,,,,,,
,,5abfadbafa3b4e0001733be0,2024-02-18_20h13.40.952,kallum_motion_pilot,2023.2.2,Win32,62.5,5abfadbafa3b4e0001733be0,65d2b6c8f2eece985d8e374c,65d2b93dab9f1aa3eae61f8c,0.205,0.205,1,69,231,60,1,threeone,,,,,,,,,,,,,,,,,,,,,,,,,,,,,,,,,,,,,,,,,,,,,,,,,,,,,,,,,,,,,,,,,,,,,,,,,,,,,,,,,,,,,,,,,,,,,,,,,,,,,,,,,,,,,,,,,,,,,,,,,,,,,,,,,,,,,,,,,
,,5abfadbafa3b4e0001733be0,2024-02-18_20h13.40.952,kallum_motion_pilot,2023.2.2,Win32,62.5,5abfadbafa3b4e0001733be0,65d2b6c8f2eece985d8e374c,65d2b93dab9f1aa3eae61f8c,0.205,0.205,1,70,232,2,1,twoone,,,,,,,,,,,,,,,,,,,,,,,,,,,,,,,,,,,,,,,,,,,,,,,,,,,,,,,,,,,,,,,,,,,,,,,,,,,,,,,,,,,,,,,,,,,,,,,,,,,,,,,,,,,,,,,,,,,,,,,,,,,,,,,,,,,,,,,,,
,,5abfadbafa3b4e0001733be0,2024-02-18_20h13.40.952,kallum_motion_pilot,2023.2.2,Win32,62.5,5abfadbafa3b4e0001733be0,65d2b6c8f2eece985d8e374c,65d2b93dab9f1aa3eae61f8c,0.206,0.206,1,71,233,148,1,sevenfive,,,,,,,,,,,,,,,,,,,,,,,,,,,,,,,,,,,,,,,,,,,,,,,,,,,,,,,,,,,,,,,,,,,,,,,,,,,,,,,,,,,,,,,,,,,,,,,,,,,,,,,,,,,,,,,,,,,,,,,,,,,,,,,,,,,,,,,,,
,,5abfadbafa3b4e0001733be0,2024-02-18_20h13.40.952,kallum_motion_pilot,2023.2.2,Win32,62.5,5abfadbafa3b4e0001733be0,65d2b6c8f2eece985d8e374c,65d2b93dab9f1aa3eae61f8c,0.207,0.208,1,72,234,134,1,eightsix,,,,,,,,,,,,,,,,,,,,,,,,,,,,,,,,,,,,,,,,,,,,,,,,,,,,,,,,,,,,,,,,,,,,,,,,,,,,,,,,,,,,,,,,,,,,,,,,,,,,,,,,,,,,,,,,,,,,,,,,,,,,,,,,,,,,,,,,,
,,5abfadbafa3b4e0001733be0,2024-02-18_20h13.40.952,kallum_motion_pilot,2023.2.2,Win32,62.5,5abfadbafa3b4e0001733be0,65d2b6c8f2eece985d8e374c,65d2b93dab9f1aa3eae61f8c,0.208,0.208,1,73,235,34,1,twoone,,,,,,,,,,,,,,,,,,,,,,,,,,,,,,,,,,,,,,,,,,,,,,,,,,,,,,,,,,,,,,,,,,,,,,,,,,,,,,,,,,,,,,,,,,,,,,,,,,,,,,,,,,,,,,,,,,,,,,,,,,,,,,,,,,,,,,,,,
,,5abfadbafa3b4e0001733be0,2024-02-18_20h13.40.952,kallum_motion_pilot,2023.2.2,Win32,62.5,5abfadbafa3b4e0001733be0,65d2b6c8f2eece985d8e374c,65d2b93dab9f1aa3eae61f8c,0.209,0.209,1,74,236,156,1,sevenfive,,,,,,,,,,,,,,,,,,,,,,,,,,,,,,,,,,,,,,,,,,,,,,,,,,,,,,,,,,,,,,,,,,,,,,,,,,,,,,,,,,,,,,,,,,,,,,,,,,,,,,,,,,,,,,,,,,,,,,,,,,,,,,,,,,,,,,,,,
,,5abfadbafa3b4e0001733be0,2024-02-18_20h13.40.952,kallum_motion_pilot,2023.2.2,Win32,62.5,5abfadbafa3b4e0001733be0,65d2b6c8f2eece985d8e374c,65d2b93dab9f1aa3eae61f8c,0.209,0.209,1,75,237,52,1,threeone,,,,,,,,,,,,,,,,,,,,,,,,,,,,,,,,,,,,,,,,,,,,,,,,,,,,,,,,,,,,,,,,,,,,,,,,,,,,,,,,,,,,,,,,,,,,,,,,,,,,,,,,,,,,,,,,,,,,,,,,,,,,,,,,,,,,,,,,,
,,5abfadbafa3b4e0001733be0,2024-02-18_20h13.40.952,kallum_motion_pilot,2023.2.2,Win32,62.5,5abfadbafa3b4e0001733be0,65d2b6c8f2eece985d8e374c,65d2b93dab9f1aa3eae61f8c,0.209,0.21,1,76,238,84,1,sevenfive,,,,,,,,,,,,,,,,,,,,,,,,,,,,,,,,,,,,,,,,,,,,,,,,,,,,,,,,,,,,,,,,,,,,,,,,,,,,,,,,,,,,,,,,,,,,,,,,,,,,,,,,,,,,,,,,,,,,,,,,,,,,,,,,,,,,,,,,,
,,5abfadbafa3b4e0001733be0,2024-02-18_20h13.40.952,kallum_motion_pilot,2023.2.2,Win32,62.5,5abfadbafa3b4e0001733be0,65d2b6c8f2eece985d8e374c,65d2b93dab9f1aa3eae61f8c,0.21,0.211,1,77,239,17,1,onethree,,,,,,,,,,,,,,,,,,,,,,,,,,,,,,,,,,,,,,,,,,,,,,,,,,,,,,,,,,,,,,,,,,,,,,,,,,,,,,,,,,,,,,,,,,,,,,,,,,,,,,,,,,,,,,,,,,,,,,,,,,,,,,,,,,,,,,,,,
,,5abfadbafa3b4e0001733be0,2024-02-18_20h13.40.952,kallum_motion_pilot,2023.2.2,Win32,62.5,5abfadbafa3b4e0001733be0,65d2b6c8f2eece985d8e374c,65d2b93dab9f1aa3eae61f8c,0.211,0.211,1,78,240,100,1,sevenfive,,,,,,,,,,,,,,,,,,,,,,,,,,,,,,,,,,,,,,,,,,,,,,,,,,,,,,,,,,,,,,,,,,,,,,,,,,,,,,,,,,,,,,,,,,,,,,,,,,,,,,,,,,,,,,,,,,,,,,,,,,,,,,,,,,,,,,,,,
,,5abfadbafa3b4e0001733be0,2024-02-18_20h13.40.952,kallum_motion_pilot,2023.2.2,Win32,62.5,5abfadbafa3b4e0001733be0,65d2b6c8f2eece985d8e374c,65d2b93dab9f1aa3eae61f8c,0.211,0.212,1,79,241,109,1,seveneight,,,,,,,,,,,,,,,,,,,,,,,,,,,,,,,,,,,,,,,,,,,,,,,,,,,,,,,,,,,,,,,,,,,,,,,,,,,,,,,,,,,,,,,,,,,,,,,,,,,,,,,,,,,,,,,,,,,,,,,,,,,,,,,,,,,,,,,,,
,,5abfadbafa3b4e0001733be0,2024-02-18_20h13.40.952,kallum_motion_pilot,2023.2.2,Win32,62.5,5abfadbafa3b4e0001733be0,65d2b6c8f2eece985d8e374c,65d2b93dab9f1aa3eae61f8c,0.212,0.212,1,80,242,48,1,onetwo,,,,,,,,,,,,,,,,,,,,,,,,,,,,,,,,,,,,,,,,,,,,,,,,,,,,,,,,,,,,,,,,,,,,,,,,,,,,,,,,,,,,,,,,,,,,,,,,,,,,,,,,,,,,,,,,,,,,,,,,,,,,,,,,,,,,,,,,,
,,5abfadbafa3b4e0001733be0,2024-02-18_20h13.40.952,kallum_motion_pilot,2023.2.2,Win32,62.5,5abfadbafa3b4e0001733be0,65d2b6c8f2eece985d8e374c,65d2b93dab9f1aa3eae61f8c,0.212,0.212,1,81,243,33,1,onethree,,,,,,,,,,,,,,,,,,,,,,,,,,,,,,,,,,,,,,,,,,,,,,,,,,,,,,,,,,,,,,,,,,,,,,,,,,,,,,,,,,,,,,,,,,,,,,,,,,,,,,,,,,,,,,,,,,,,,,,,,,,,,,,,,,,,,,,,,
,,5abfadbafa3b4e0001733be0,2024-02-18_20h13.40.952,kallum_motion_pilot,2023.2.2,Win32,62.5,5abfadbafa3b4e0001733be0,65d2b6c8f2eece985d8e374c,65d2b93dab9f1aa3eae61f8c,0.212,0.212,1,82,244,79,1,eightseven,,,,,,,,,,,,,,,,,,,,,,,,,,,,,,,,,,,,,,,,,,,,,,,,,,,,,,,,,,,,,,,,,,,,,,,,,,,,,,,,,,,,,,,,,,,,,,,,,,,,,,,,,,,,,,,,,,,,,,,,,,,,,,,,,,,,,,,,,
,,5abfadbafa3b4e0001733be0,2024-02-18_20h13.40.952,kallum_motion_pilot,2023.2.2,Win32,62.5,5abfadbafa3b4e0001733be0,65d2b6c8f2eece985d8e374c,65d2b93dab9f1aa3eae61f8c,0.213,0.213,1,83,245,74,1,twoone,,,,,,,,,,,,,,,,,,,,,,,,,,,,,,,,,,,,,,,,,,,,,,,,,,,,,,,,,,,,,,,,,,,,,,,,,,,,,,,,,,,,,,,,,,,,,,,,,,,,,,,,,,,,,,,,,,,,,,,,,,,,,,,,,,,,,,,,,
,,5abfadbafa3b4e0001733be0,2024-02-18_20h13.40.952,kallum_motion_pilot,2023.2.2,Win32,62.5,5abfadbafa3b4e0001733be0,65d2b6c8f2eece985d8e374c,65d2b93dab9f1aa3eae61f8c,0.213,0.213,1,84,246,124,1,sevenfive,,,,,,,,,,,,,,,,,,,,,,,,,,,,,,,,,,,,,,,,,,,,,,,,,,,,,,,,,,,,,,,,,,,,,,,,,,,,,,,,,,,,,,,,,,,,,,,,,,,,,,,,,,,,,,,,,,,,,,,,,,,,,,,,,,,,,,,,,
,,5abfadbafa3b4e0001733be0,2024-02-18_20h13.40.952,kallum_motion_pilot,2023.2.2,Win32,62.5,5abfadbafa3b4e0001733be0,65d2b6c8f2eece985d8e374c,65d2b93dab9f1aa3eae61f8c,0.213,0.213,1,85,247,86,1,eightsix,,,,,,,,,,,,,,,,,,,,,,,,,,,,,,,,,,,,,,,,,,,,,,,,,,,,,,,,,,,,,,,,,,,,,,,,,,,,,,,,,,,,,,,,,,,,,,,,,,,,,,,,,,,,,,,,,,,,,,,,,,,,,,,,,,,,,,,,,
,,5abfadbafa3b4e0001733be0,2024-02-18_20h13.40.952,kallum_motion_pilot,2023.2.2,Win32,62.5,5abfadbafa3b4e0001733be0,65d2b6c8f2eece985d8e374c,65d2b93dab9f1aa3eae61f8c,0.213,0.214,1,86,248,42,1,twoone,,,,,,,,,,,,,,,,,,,,,,,,,,,,,,,,,,,,,,,,,,,,,,,,,,,,,,,,,,,,,,,,,,,,,,,,,,,,,,,,,,,,,,,,,,,,,,,,,,,,,,,,,,,,,,,,,,,,,,,,,,,,,,,,,,,,,,,,,
,,5abfadbafa3b4e0001733be0,2024-02-18_20h13.40.952,kallum_motion_pilot,2023.2.2,Win32,62.5,5abfadbafa3b4e0001733be0,65d2b6c8f2eece985d8e374c,65d2b93dab9f1aa3eae61f8c,0.214,0.215,1,87,249,129,1,fiveseven,,,,,,,,,,,,,,,,,,,,,,,,,,,,,,,,,,,,,,,,,,,,,,,,,,,,,,,,,,,,,,,,,,,,,,,,,,,,,,,,,,,,,,,,,,,,,,,,,,,,,,,,,,,,,,,,,,,,,,,,,,,,,,,,,,,,,,,,,
,,5abfadbafa3b4e0001733be0,2024-02-18_20h13.40.952,kallum_motion_pilot,2023.2.2,Win32,62.5,5abfadbafa3b4e0001733be0,65d2b6c8f2eece985d8e374c,65d2b93dab9f1aa3eae61f8c,0.215,0.215,1,88,250,159,1,eightseven,,,,,,,,,,,,,,,,,,,,,,,,,,,,,,,,,,,,,,,,,,,,,,,,,,,,,,,,,,,,,,,,,,,,,,,,,,,,,,,,,,,,,,,,,,,,,,,,,,,,,,,,,,,,,,,,,,,,,,,,,,,,,,,,,,,,,,,,,
,,5abfadbafa3b4e0001733be0,2024-02-18_20h13.40.952,kallum_motion_pilot,2023.2.2,Win32,62.5,5abfadbafa3b4e0001733be0,65d2b6c8f2eece985d8e374c,65d2b93dab9f1aa3eae61f8c,0.215,0.215,1,89,251,101,1,seveneight,,,,,,,,,,,,,,,,,,,,,,,,,,,,,,,,,,,,,,,,,,,,,,,,,,,,,,,,,,,,,,,,,,,,,,,,,,,,,,,,,,,,,,,,,,,,,,,,,,,,,,,,,,,,,,,,,,,,,,,,,,,,,,,,,,,,,,,,,
,,5abfadbafa3b4e0001733be0,2024-02-18_20h13.40.952,kallum_motion_pilot,2023.2.2,Win32,62.5,5abfadbafa3b4e0001733be0,65d2b6c8f2eece985d8e374c,65d2b93dab9f1aa3eae61f8c,0.215,0.216,1,90,252,51,1,twofour,,,,,,,,,,,,,,,,,,,,,,,,,,,,,,,,,,,,,,,,,,,,,,,,,,,,,,,,,,,,,,,,,,,,,,,,,,,,,,,,,,,,,,,,,,,,,,,,,,,,,,,,,,,,,,,,,,,,,,,,,,,,,,,,,,,,,,,,,
,,5abfadbafa3b4e0001733be0,2024-02-18_20h13.40.952,kallum_motion_pilot,2023.2.2,Win32,62.5,5abfadbafa3b4e0001733be0,65d2b6c8f2eece985d8e374c,65d2b93dab9f1aa3eae61f8c,0.216,0.216,1,91,253,145,1,fiveseven,,,,,,,,,,,,,,,,,,,,,,,,,,,,,,,,,,,,,,,,,,,,,,,,,,,,,,,,,,,,,,,,,,,,,,,,,,,,,,,,,,,,,,,,,,,,,,,,,,,,,,,,,,,,,,,,,,,,,,,,,,,,,,,,,,,,,,,,,
,,5abfadbafa3b4e0001733be0,2024-02-18_20h13.40.952,kallum_motion_pilot,2023.2.2,Win32,62.5,5abfadbafa3b4e0001733be0,65d2b6c8f2eece985d8e374c,65d2b93dab9f1aa3eae61f8c,0.216,0.216,1,92,254,157,1,seveneight,,,,,,,,,,,,,,,,,,,,,,,,,,,,,,,,,,,,,,,,,,,,,,,,,,,,,,,,,,,,,,,,,,,,,,,,,,,,,,,,,,,,,,,,,,,,,,,,,,,,,,,,,,,,,,,,,,,,,,,,,,,,,,,,,,,,,,,,,
,,5abfadbafa3b4e0001733be0,2024-02-18_20h13.40.952,kallum_motion_pilot,2023.2.2,Win32,62.5,5abfadbafa3b4e0001733be0,65d2b6c8f2eece985d8e374c,65d2b93dab9f1aa3eae61f8c,0.217,0.217,1,93,255,4,1,threeone,,,,,,,,,,,,,,,,,,,,,,,,,,,,,,,,,,,,,,,,,,,,,,,,,,,,,,,,,,,,,,,,,,,,,,,,,,,,,,,,,,,,,,,,,,,,,,,,,,,,,,,,,,,,,,,,,,,,,,,,,,,,,,,,,,,,,,,,,
,,5abfadbafa3b4e0001733be0,2024-02-18_20h13.40.952,kallum_motion_pilot,2023.2.2,Win32,62.5,5abfadbafa3b4e0001733be0,65d2b6c8f2eece985d8e374c,65d2b93dab9f1aa3eae61f8c,0.218,0.218,1,94,256,121,1,fiveseven,,,,,,,,,,,,,,,,,,,,,,,,,,,,,,,,,,,,,,,,,,,,,,,,,,,,,,,,,,,,,,,,,,,,,,,,,,,,,,,,,,,,,,,,,,,,,,,,,,,,,,,,,,,,,,,,,,,,,,,,,,,,,,,,,,,,,,,,,
,,5abfadbafa3b4e0001733be0,2024-02-18_20h13.40.952,kallum_motion_pilot,2023.2.2,Win32,62.5,5abfadbafa3b4e0001733be0,65d2b6c8f2eece985d8e374c,65d2b93dab9f1aa3eae61f8c,0.218,0.218,1,95,257,149,1,seveneight,,,,,,,,,,,,,,,,,,,,,,,,,,,,,,,,,,,,,,,,,,,,,,,,,,,,,,,,,,,,,,,,,,,,,,,,,,,,,,,,,,,,,,,,,,,,,,,,,,,,,,,,,,,,,,,,,,,,,,,,,,,,,,,,,,,,,,,,,
,,5abfadbafa3b4e0001733be0,2024-02-18_20h13.40.952,kallum_motion_pilot,2023.2.2,Win32,62.5,5abfadbafa3b4e0001733be0,65d2b6c8f2eece985d8e374c,65d2b93dab9f1aa3eae61f8c,0.218,0.218,1,96,258,92,1,sevenfive,,,,,,,,,,,,,,,,,,,,,,,,,,,,,,,,,,,,,,,,,,,,,,,,,,,,,,,,,,,,,,,,,,,,,,,,,,,,,,,,,,,,,,,,,,,,,,,,,,,,,,,,,,,,,,,,,,,,,,,,,,,,,,,,,,,,,,,,,
,,5abfadbafa3b4e0001733be0,2024-02-18_20h13.40.952,kallum_motion_pilot,2023.2.2,Win32,62.5,5abfadbafa3b4e0001733be0,65d2b6c8f2eece985d8e374c,65d2b93dab9f1aa3eae61f8c,0.219,0.219,1,97,259,105,1,fiveseven,,,,,,,,,,,,,,,,,,,,,,,,,,,,,,,,,,,,,,,,,,,,,,,,,,,,,,,,,,,,,,,,,,,,,,,,,,,,,,,,,,,,,,,,,,,,,,,,,,,,,,,,,,,,,,,,,,,,,,,,,,,,,,,,,,,,,,,,,
,,5abfadbafa3b4e0001733be0,2024-02-18_20h13.40.952,kallum_motion_pilot,2023.2.2,Win32,62.5,5abfadbafa3b4e0001733be0,65d2b6c8f2eece985d8e374c,65d2b93dab9f1aa3eae61f8c,0.219,0.219,1,98,260,128,1,fivesix,,,,,,,,,,,,,,,,,,,,,,,,,,,,,,,,,,,,,,,,,,,,,,,,,,,,,,,,,,,,,,,,,,,,,,,,,,,,,,,,,,,,,,,,,,,,,,,,,,,,,,,,,,,,,,,,,,,,,,,,,,,,,,,,,,,,,,,,,
,,5abfadbafa3b4e0001733be0,2024-02-18_20h13.40.952,kallum_motion_pilot,2023.2.2,Win32,62.5,5abfadbafa3b4e0001733be0,65d2b6c8f2eece985d8e374c,65d2b93dab9f1aa3eae61f8c,0.22,0.22,1,99,261,12,1,threeone,,,,,,,,,,,,,,,,,,,,,,,,,,,,,,,,,,,,,,,,,,,,,,,,,,,,,,,,,,,,,,,,,,,,,,,,,,,,,,,,,,,,,,,,,,,,,,,,,,,,,,,,,,,,,,,,,,,,,,,,,,,,,,,,,,,,,,,,,
,,5abfadbafa3b4e0001733be0,2024-02-18_20h13.40.952,kallum_motion_pilot,2023.2.2,Win32,62.5,5abfadbafa3b4e0001733be0,65d2b6c8f2eece985d8e374c,65d2b93dab9f1aa3eae61f8c,0.22,0.22,1,100,262,67,1,twofour,,,,,,,,,,,,,,,,,,,,,,,,,,,,,,,,,,,,,,,,,,,,,,,,,,,,,,,,,,,,,,,,,,,,,,,,,,,,,,,,,,,,,,,,,,,,,,,,,,,,,,,,,,,,,,,,,,,,,,,,,,,,,,,,,,,,,,,,,
,,5abfadbafa3b4e0001733be0,2024-02-18_20h13.40.952,kallum_motion_pilot,2023.2.2,Win32,62.5,5abfadbafa3b4e0001733be0,65d2b6c8f2eece985d8e374c,65d2b93dab9f1aa3eae61f8c,0.22,0.22,1,101,263,75,1,twofour,,,,,,,,,,,,,,,,,,,,,,,,,,,,,,,,,,,,,,,,,,,,,,,,,,,,,,,,,,,,,,,,,,,,,,,,,,,,,,,,,,,,,,,,,,,,,,,,,,,,,,,,,,,,,,,,,,,,,,,,,,,,,,,,,,,,,,,,,
,,5abfadbafa3b4e0001733be0,2024-02-18_20h13.40.952,kallum_motion_pilot,2023.2.2,Win32,62.5,5abfadbafa3b4e0001733be0,65d2b6c8f2eece985d8e374c,65d2b93dab9f1aa3eae61f8c,0.22,0.221,1,102,264,69,1,threefour,,,,,,,,,,,,,,,,,,,,,,,,,,,,,,,,,,,,,,,,,,,,,,,,,,,,,,,,,,,,,,,,,,,,,,,,,,,,,,,,,,,,,,,,,,,,,,,,,,,,,,,,,,,,,,,,,,,,,,,,,,,,,,,,,,,,,,,,,
,,5abfadbafa3b4e0001733be0,2024-02-18_20h13.40.952,kallum_motion_pilot,2023.2.2,Win32,62.5,5abfadbafa3b4e0001733be0,65d2b6c8f2eece985d8e374c,65d2b93dab9f1aa3eae61f8c,0.221,0.221,1,103,265,85,1,seveneight,,,,,,,,,,,,,,,,,,,,,,,,,,,,,,,,,,,,,,,,,,,,,,,,,,,,,,,,,,,,,,,,,,,,,,,,,,,,,,,,,,,,,,,,,,,,,,,,,,,,,,,,,,,,,,,,,,,,,,,,,,,,,,,,,,,,,,,,,
,,5abfadbafa3b4e0001733be0,2024-02-18_20h13.40.952,kallum_motion_pilot,2023.2.2,Win32,62.5,5abfadbafa3b4e0001733be0,65d2b6c8f2eece985d8e374c,65d2b93dab9f1aa3eae61f8c,0.222,0.222,1,104,266,55,1,fourthree,,,,,,,,,,,,,,,,,,,,,,,,,,,,,,,,,,,,,,,,,,,,,,,,,,,,,,,,,,,,,,,,,,,,,,,,,,,,,,,,,,,,,,,,,,,,,,,,,,,,,,,,,,,,,,,,,,,,,,,,,,,,,,,,,,,,,,,,,
,,5abfadbafa3b4e0001733be0,2024-02-18_20h13.40.952,kallum_motion_pilot,2023.2.2,Win32,62.5,5abfadbafa3b4e0001733be0,65d2b6c8f2eece985d8e374c,65d2b93dab9f1aa3eae61f8c,0.223,0.223,1,105,267,154,1,sixfive,,,,,,,,,,,,,,,,,,,,,,,,,,,,,,,,,,,,,,,,,,,,,,,,,,,,,,,,,,,,,,,,,,,,,,,,,,,,,,,,,,,,,,,,,,,,,,,,,,,,,,,,,,,,,,,,,,,,,,,,,,,,,,,,,,,,,,,,,
,,5abfadbafa3b4e0001733be0,2024-02-18_20h13.40.952,kallum_motion_pilot,2023.2.2,Win32,62.5,5abfadbafa3b4e0001733be0,65d2b6c8f2eece985d8e374c,65d2b93dab9f1aa3eae61f8c,0.223,0.223,1,106,268,141,1,seveneight,,,,,,,,,,,,,,,,,,,,,,,,,,,,,,,,,,,,,,,,,,,,,,,,,,,,,,,,,,,,,,,,,,,,,,,,,,,,,,,,,,,,,,,,,,,,,,,,,,,,,,,,,,,,,,,,,,,,,,,,,,,,,,,,,,,,,,,,,
,,5abfadbafa3b4e0001733be0,2024-02-18_20h13.40.952,kallum_motion_pilot,2023.2.2,Win32,62.5,5abfadbafa3b4e0001733be0,65d2b6c8f2eece985d8e374c,65d2b93dab9f1aa3eae61f8c,0.224,0.224,1,107,269,73,1,onethree,,,,,,,,,,,,,,,,,,,,,,,,,,,,,,,,,,,,,,,,,,,,,,,,,,,,,,,,,,,,,,,,,,,,,,,,,,,,,,,,,,,,,,,,,,,,,,,,,,,,,,,,,,,,,,,,,,,,,,,,,,,,,,,,,,,,,,,,,
,,5abfadbafa3b4e0001733be0,2024-02-18_20h13.40.952,kallum_motion_pilot,2023.2.2,Win32,62.5,5abfadbafa3b4e0001733be0,65d2b6c8f2eece985d8e374c,65d2b93dab9f1aa3eae61f8c,0.224,0.224,1,108,270,144,1,fivesix,,,,,,,,,,,,,,,,,,,,,,,,,,,,,,,,,,,,,,,,,,,,,,,,,,,,,,,,,,,,,,,,,,,,,,,,,,,,,,,,,,,,,,,,,,,,,,,,,,,,,,,,,,,,,,,,,,,,,,,,,,,,,,,,,,,,,,,,,
,,5abfadbafa3b4e0001733be0,2024-02-18_20h13.40.952,kallum_motion_pilot,2023.2.2,Win32,62.5,5abfadbafa3b4e0001733be0,65d2b6c8f2eece985d8e374c,65d2b93dab9f1aa3eae61f8c,0.224,0.224,1,109,271,99,1,sixeight,,,,,,,,,,,,,,,,,,,,,,,,,,,,,,,,,,,,,,,,,,,,,,,,,,,,,,,,,,,,,,,,,,,,,,,,,,,,,,,,,,,,,,,,,,,,,,,,,,,,,,,,,,,,,,,,,,,,,,,,,,,,,,,,,,,,,,,,,
,,5abfadbafa3b4e0001733be0,2024-02-18_20h13.40.952,kallum_motion_pilot,2023.2.2,Win32,62.5,5abfadbafa3b4e0001733be0,65d2b6c8f2eece985d8e374c,65d2b93dab9f1aa3eae61f8c,0.226,0.226,1,110,272,131,1,sixeight,,,,,,,,,,,,,,,,,,,,,,,,,,,,,,,,,,,,,,,,,,,,,,,,,,,,,,,,,,,,,,,,,,,,,,,,,,,,,,,,,,,,,,,,,,,,,,,,,,,,,,,,,,,,,,,,,,,,,,,,,,,,,,,,,,,,,,,,,
,,5abfadbafa3b4e0001733be0,2024-02-18_20h13.40.952,kallum_motion_pilot,2023.2.2,Win32,62.5,5abfadbafa3b4e0001733be0,65d2b6c8f2eece985d8e374c,65d2b93dab9f1aa3eae61f8c,0.226,0.226,1,111,273,142,1,eightsix,,,,,,,,,,,,,,,,,,,,,,,,,,,,,,,,,,,,,,,,,,,,,,,,,,,,,,,,,,,,,,,,,,,,,,,,,,,,,,,,,,,,,,,,,,,,,,,,,,,,,,,,,,,,,,,,,,,,,,,,,,,,,,,,,,,,,,,,,
,,5abfadbafa3b4e0001733be0,2024-02-18_20h13.40.952,kallum_motion_pilot,2023.2.2,Win32,62.5,5abfadbafa3b4e0001733be0,65d2b6c8f2eece985d8e374c,65d2b93dab9f1aa3eae61f8c,0.226,0.226,1,112,274,90,1,sixfive,,,,,,,,,,,,,,,,,,,,,,,,,,,,,,,,,,,,,,,,,,,,,,,,,,,,,,,,,,,,,,,,,,,,,,,,,,,,,,,,,,,,,,,,,,,,,,,,,,,,,,,,,,,,,,,,,,,,,,,,,,,,,,,,,,,,,,,,,
,,5abfadbafa3b4e0001733be0,2024-02-18_20h13.40.952,kallum_motion_pilot,2023.2.2,Win32,62.5,5abfadbafa3b4e0001733be0,65d2b6c8f2eece985d8e374c,65d2b93dab9f1aa3eae61f8c,0.227,0.227,1,113,275,160,1,fivesix,,,,,,,,,,,,,,,,,,,,,,,,,,,,,,,,,,,,,,,,,,,,,,,,,,,,,,,,,,,,,,,,,,,,,,,,,,,,,,,,,,,,,,,,,,,,,,,,,,,,,,,,,,,,,,,,,,,,,,,,,,,,,,,,,,,,,,,,,
,,5abfadbafa3b4e0001733be0,2024-02-18_20h13.40.952,kallum_motion_pilot,2023.2.2,Win32,62.5,5abfadbafa3b4e0001733be0,65d2b6c8f2eece985d8e374c,65d2b93dab9f1aa3eae61f8c,0.227,0.227,1,114,276,58,1,twoone,,,,,,,,,,,,,,,,,,,,,,,,,,,,,,,,,,,,,,,,,,,,,,,,,,,,,,,,,,,,,,,,,,,,,,,,,,,,,,,,,,,,,,,,,,,,,,,,,,,,,,,,,,,,,,,,,,,,,,,,,,,,,,,,,,,,,,,,,
,,5abfadbafa3b4e0001733be0,2024-02-18_20h13.40.952,kallum_motion_pilot,2023.2.2,Win32,62.5,5abfadbafa3b4e0001733be0,65d2b6c8f2eece985d8e374c,65d2b93dab9f1aa3eae61f8c,0.227,0.227,1,115,277,97,1,fiveseven,,,,,,,,,,,,,,,,,,,,,,,,,,,,,,,,,,,,,,,,,,,,,,,,,,,,,,,,,,,,,,,,,,,,,,,,,,,,,,,,,,,,,,,,,,,,,,,,,,,,,,,,,,,,,,,,,,,,,,,,,,,,,,,,,,,,,,,,,
,,5abfadbafa3b4e0001733be0,2024-02-18_20h13.40.952,kallum_motion_pilot,2023.2.2,Win32,62.5,5abfadbafa3b4e0001733be0,65d2b6c8f2eece985d8e374c,65d2b93dab9f1aa3eae61f8c,0.228,0.228,1,116,278,15,1,fourthree,,,,,,,,,,,,,,,,,,,,,,,,,,,,,,,,,,,,,,,,,,,,,,,,,,,,,,,,,,,,,,,,,,,,,,,,,,,,,,,,,,,,,,,,,,,,,,,,,,,,,,,,,,,,,,,,,,,,,,,,,,,,,,,,,,,,,,,,,
,,5abfadbafa3b4e0001733be0,2024-02-18_20h13.40.952,kallum_motion_pilot,2023.2.2,Win32,62.5,5abfadbafa3b4e0001733be0,65d2b6c8f2eece985d8e374c,65d2b93dab9f1aa3eae61f8c,0.228,0.228,1,117,279,43,1,twofour,,,,,,,,,,,,,,,,,,,,,,,,,,,,,,,,,,,,,,,,,,,,,,,,,,,,,,,,,,,,,,,,,,,,,,,,,,,,,,,,,,,,,,,,,,,,,,,,,,,,,,,,,,,,,,,,,,,,,,,,,,,,,,,,,,,,,,,,,
,,5abfadbafa3b4e0001733be0,2024-02-18_20h13.40.952,kallum_motion_pilot,2023.2.2,Win32,62.5,5abfadbafa3b4e0001733be0,65d2b6c8f2eece985d8e374c,65d2b93dab9f1aa3eae61f8c,0.229,0.229,1,118,280,11,1,twofour,,,,,,,,,,,,,,,,,,,,,,,,,,,,,,,,,,,,,,,,,,,,,,,,,,,,,,,,,,,,,,,,,,,,,,,,,,,,,,,,,,,,,,,,,,,,,,,,,,,,,,,,,,,,,,,,,,,,,,,,,,,,,,,,,,,,,,,,,
,,5abfadbafa3b4e0001733be0,2024-02-18_20h13.40.952,kallum_motion_pilot,2023.2.2,Win32,62.5,5abfadbafa3b4e0001733be0,65d2b6c8f2eece985d8e374c,65d2b93dab9f1aa3eae61f8c,0.23,0.23,1,119,281,1,1,onethree,,,,,,,,,,,,,,,,,,,,,,,,,,,,,,,,,,,,,,,,,,,,,,,,,,,,,,,,,,,,,,,,,,,,,,,,,,,,,,,,,,,,,,,,,,,,,,,,,,,,,,,,,,,,,,,,,,,,,,,,,,,,,,,,,,,,,,,,,
,,5abfadbafa3b4e0001733be0,2024-02-18_20h13.40.952,kallum_motion_pilot,2023.2.2,Win32,62.5,5abfadbafa3b4e0001733be0,65d2b6c8f2eece985d8e374c,65d2b93dab9f1aa3eae61f8c,0.23,0.23,1,120,282,88,1,fivesix,,,,,,,,,,,,,,,,,,,,,,,,,,,,,,,,,,,,,,,,,,,,,,,,,,,,,,,,,,,,,,,,,,,,,,,,,,,,,,,,,,,,,,,,,,,,,,,,,,,,,,,,,,,,,,,,,,,,,,,,,,,,,,,,,,,,,,,,,
,,5abfadbafa3b4e0001733be0,2024-02-18_20h13.40.952,kallum_motion_pilot,2023.2.2,Win32,62.5,5abfadbafa3b4e0001733be0,65d2b6c8f2eece985d8e374c,65d2b93dab9f1aa3eae61f8c,0.231,0.231,1,121,283,35,1,twofour,,,,,,,,,,,,,,,,,,,,,,,,,,,,,,,,,,,,,,,,,,,,,,,,,,,,,,,,,,,,,,,,,,,,,,,,,,,,,,,,,,,,,,,,,,,,,,,,,,,,,,,,,,,,,,,,,,,,,,,,,,,,,,,,,,,,,,,,,
,,5abfadbafa3b4e0001733be0,2024-02-18_20h13.40.952,kallum_motion_pilot,2023.2.2,Win32,62.5,5abfadbafa3b4e0001733be0,65d2b6c8f2eece985d8e374c,65d2b93dab9f1aa3eae61f8c,0.231,0.232,1,122,284,80,1,fivesix,,,,,,,,,,,,,,,,,,,,,,,,,,,,,,,,,,,,,,,,,,,,,,,,,,,,,,,,,,,,,,,,,,,,,,,,,,,,,,,,,,,,,,,,,,,,,,,,,,,,,,,,,,,,,,,,,,,,,,,,,,,,,,,,,,,,,,,,,
,,5abfadbafa3b4e0001733be0,2024-02-18_20h13.40.952,kallum_motion_pilot,2023.2.2,Win32,62.5,5abfadbafa3b4e0001733be0,65d2b6c8f2eece985d8e374c,65d2b93dab9f1aa3eae61f8c,0.232,0.232,1,123,285,103,1,eightseven,,,,,,,,,,,,,,,,,,,,,,,,,,,,,,,,,,,,,,,,,,,,,,,,,,,,,,,,,,,,,,,,,,,,,,,,,,,,,,,,,,,,,,,,,,,,,,,,,,,,,,,,,,,,,,,,,,,,,,,,,,,,,,,,,,,,,,,,,
