startup.started,startup.stopped,Prolific ID*,date,expName,psychopyVersion,OS,frameRate,participant,study_id,session,stimpositions.started,stimpositions.stopped,hardcoded_stimulus_positions.thisRepN,hardcoded_stimulus_positions.thisTrialN,hardcoded_stimulus_positions.thisN,hardcoded_stimulus_positions.thisIndex,hardcoded_stimulus_positions.ran,StimulusPos,stimorientation.started,stimorientation.stopped,prac_stimorientation_import_loop.thisRepN,prac_stimorientation_import_loop.thisTrialN,prac_stimorientation_import_loop.thisN,prac_stimorientation_import_loop.thisIndex,prac_stimorientation_import_loop.ran,Stimorientation,welcome_instr.started,welcome_instr.stopped,key_resp.keys,key_resp.rt,key_resp.duration,response_steppedout_1.started,response_steppedout_1.stopped,key_resp_20.keys,key_resp_20.rt,key_resp_20.duration,response_steppedout_2.started,response_steppedout_2.stopped,key_resp_19.keys,key_resp_19.rt,key_resp_19.duration,stim_response_instr.started,stim_response_instr.stopped,key_resp_15.keys,key_resp_15.rt,key_resp_15.duration,direction_instr_2.started,direction_instr_2.stopped,key_resp_9.keys,key_resp_9.rt,key_resp_9.duration,instr_prac.started,instr_prac.stopped,key_resp_10.keys,key_resp_10.rt,key_resp_10.duration,Stim1_display_prac.started,Stim1_display_prac.stopped,Ecc,Circle1_ori,Circle2_ori,response_prac.started,similarity,response_time,response_prac.stopped,mouse_5.x,mouse_5.y,mouse_5.leftButton,mouse_5.midButton,mouse_5.rightButton,mouse_5.clicked_name,responseprac_feedback.started,responseprac_feedback.stopped,summary2_prac.started,summary2_prac.stopped,mouse_6.x,mouse_6.y,mouse_6.leftButton,mouse_6.midButton,mouse_6.rightButton,mouse_6.clicked_name,duringprac.thisRepN,duringprac.thisTrialN,duringprac.thisN,duringprac.thisIndex,duringprac.ran,begin.started,begin.stopped,key_resp_22.keys,key_resp_22.rt,key_resp_22.duration,Stim1_display.started,Stim1_display.stopped,circle1_ori,circle2_ori,circle1_SF,circle2_SF,response.started,response.stopped,mouse.x,mouse.y,mouse.leftButton,mouse.midButton,mouse.rightButton,mouse.clicked_name,trialnumber,double_pass.thisRepN,double_pass.thisTrialN,double_pass.thisN,double_pass.thisIndex,double_pass.ran,double_pass.order,main_trial.thisRepN,main_trial.thisTrialN,main_trial.thisN,main_trial.thisIndex,main_trial.ran,main_trial.order,Trial_Counter,Catch,Frequencies,response_2.started,response_2.stopped,mouse_2.x,mouse_2.y,mouse_2.leftButton,mouse_2.midButton,mouse_2.rightButton,mouse_2.clicked_name,special_trial.started,special_trial.stopped,catch_1.started,catch_1.stopped,mouse_3.x,mouse_3.y,mouse_3.leftButton,mouse_3.midButton,mouse_3.rightButton,catchresponse,catchnumber,response_time_catch,response_sum.started,response_sum.stopped,mouse_11.x,mouse_11.y,mouse_11.leftButton,mouse_11.midButton,mouse_11.rightButton,flip_presentation_sequence_for_double_pass.started,flip_presentation_sequence_for_double_pass.stopped,goodbye.started,goodbye.stopped,key_resp_3.keys,key_resp_3.rt,key_resp_3.duration
0.001,0.001,5b09da13641b1200010eab05,2024-02-21_22h24.12.940,kallum_motion_pilot,2023.2.2,Win32,144.092219,5b09da13641b1200010eab05,65d6bb0e977760de756971f7,65d6be2e40301376a29aafdc,,,,,,,,,,,,,,,,,,,,,,,,,,,,,,,,,,,,,,,,,,,,,,,,,,,,,,,,,,,,,,,,,,,,,,,,,,,,,,,,,,,,,,,,,,,,,,,,,,,,,,,,,,,,,,,,,,,,,,,,,,,,,,,,,,,,,,,,,,,,,,,,,
,,5b09da13641b1200010eab05,2024-02-21_22h24.12.940,kallum_motion_pilot,2023.2.2,Win32,144.092219,5b09da13641b1200010eab05,65d6bb0e977760de756971f7,65d6be2e40301376a29aafdc,0.017,0.017,0,0,0,122,1,sixfive,,,,,,,,,,,,,,,,,,,,,,,,,,,,,,,,,,,,,,,,,,,,,,,,,,,,,,,,,,,,,,,,,,,,,,,,,,,,,,,,,,,,,,,,,,,,,,,,,,,,,,,,,,,,,,,,,,,,,,,,,,,,,,,,,,,,,,,,,
,,5b09da13641b1200010eab05,2024-02-21_22h24.12.940,kallum_motion_pilot,2023.2.2,Win32,144.092219,5b09da13641b1200010eab05,65d6bb0e977760de756971f7,65d6be2e40301376a29aafdc,0.017,0.017,0,1,1,100,1,sevenfive,,,,,,,,,,,,,,,,,,,,,,,,,,,,,,,,,,,,,,,,,,,,,,,,,,,,,,,,,,,,,,,,,,,,,,,,,,,,,,,,,,,,,,,,,,,,,,,,,,,,,,,,,,,,,,,,,,,,,,,,,,,,,,,,,,,,,,,,,
,,5b09da13641b1200010eab05,2024-02-21_22h24.12.940,kallum_motion_pilot,2023.2.2,Win32,144.092219,5b09da13641b1200010eab05,65d6bb0e977760de756971f7,65d6be2e40301376a29aafdc,0.017,0.017,0,2,2,95,1,eightseven,,,,,,,,,,,,,,,,,,,,,,,,,,,,,,,,,,,,,,,,,,,,,,,,,,,,,,,,,,,,,,,,,,,,,,,,,,,,,,,,,,,,,,,,,,,,,,,,,,,,,,,,,,,,,,,,,,,,,,,,,,,,,,,,,,,,,,,,,
,,5b09da13641b1200010eab05,2024-02-21_22h24.12.940,kallum_motion_pilot,2023.2.2,Win32,144.092219,5b09da13641b1200010eab05,65d6bb0e977760de756971f7,65d6be2e40301376a29aafdc,0.017,0.017,0,3,3,129,1,fiveseven,,,,,,,,,,,,,,,,,,,,,,,,,,,,,,,,,,,,,,,,,,,,,,,,,,,,,,,,,,,,,,,,,,,,,,,,,,,,,,,,,,,,,,,,,,,,,,,,,,,,,,,,,,,,,,,,,,,,,,,,,,,,,,,,,,,,,,,,,
,,5b09da13641b1200010eab05,2024-02-21_22h24.12.940,kallum_motion_pilot,2023.2.2,Win32,144.092219,5b09da13641b1200010eab05,65d6bb0e977760de756971f7,65d6be2e40301376a29aafdc,0.017,0.017,0,4,4,7,1,fourthree,,,,,,,,,,,,,,,,,,,,,,,,,,,,,,,,,,,,,,,,,,,,,,,,,,,,,,,,,,,,,,,,,,,,,,,,,,,,,,,,,,,,,,,,,,,,,,,,,,,,,,,,,,,,,,,,,,,,,,,,,,,,,,,,,,,,,,,,,
,,5b09da13641b1200010eab05,2024-02-21_22h24.12.940,kallum_motion_pilot,2023.2.2,Win32,144.092219,5b09da13641b1200010eab05,65d6bb0e977760de756971f7,65d6be2e40301376a29aafdc,0.018,0.018,0,5,5,1,1,onethree,,,,,,,,,,,,,,,,,,,,,,,,,,,,,,,,,,,,,,,,,,,,,,,,,,,,,,,,,,,,,,,,,,,,,,,,,,,,,,,,,,,,,,,,,,,,,,,,,,,,,,,,,,,,,,,,,,,,,,,,,,,,,,,,,,,,,,,,,
,,5b09da13641b1200010eab05,2024-02-21_22h24.12.940,kallum_motion_pilot,2023.2.2,Win32,144.092219,5b09da13641b1200010eab05,65d6bb0e977760de756971f7,65d6be2e40301376a29aafdc,0.018,0.018,0,6,6,8,1,onetwo,,,,,,,,,,,,,,,,,,,,,,,,,,,,,,,,,,,,,,,,,,,,,,,,,,,,,,,,,,,,,,,,,,,,,,,,,,,,,,,,,,,,,,,,,,,,,,,,,,,,,,,,,,,,,,,,,,,,,,,,,,,,,,,,,,,,,,,,,
,,5b09da13641b1200010eab05,2024-02-21_22h24.12.940,kallum_motion_pilot,2023.2.2,Win32,144.092219,5b09da13641b1200010eab05,65d6bb0e977760de756971f7,65d6be2e40301376a29aafdc,0.018,0.018,0,7,7,130,1,sixfive,,,,,,,,,,,,,,,,,,,,,,,,,,,,,,,,,,,,,,,,,,,,,,,,,,,,,,,,,,,,,,,,,,,,,,,,,,,,,,,,,,,,,,,,,,,,,,,,,,,,,,,,,,,,,,,,,,,,,,,,,,,,,,,,,,,,,,,,,
,,5b09da13641b1200010eab05,2024-02-21_22h24.12.940,kallum_motion_pilot,2023.2.2,Win32,144.092219,5b09da13641b1200010eab05,65d6bb0e977760de756971f7,65d6be2e40301376a29aafdc,0.019,0.019,0,8,8,138,1,sixfive,,,,,,,,,,,,,,,,,,,,,,,,,,,,,,,,,,,,,,,,,,,,,,,,,,,,,,,,,,,,,,,,,,,,,,,,,,,,,,,,,,,,,,,,,,,,,,,,,,,,,,,,,,,,,,,,,,,,,,,,,,,,,,,,,,,,,,,,,
,,5b09da13641b1200010eab05,2024-02-21_22h24.12.940,kallum_motion_pilot,2023.2.2,Win32,144.092219,5b09da13641b1200010eab05,65d6bb0e977760de756971f7,65d6be2e40301376a29aafdc,0.019,0.019,0,9,9,27,1,twofour,,,,,,,,,,,,,,,,,,,,,,,,,,,,,,,,,,,,,,,,,,,,,,,,,,,,,,,,,,,,,,,,,,,,,,,,,,,,,,,,,,,,,,,,,,,,,,,,,,,,,,,,,,,,,,,,,,,,,,,,,,,,,,,,,,,,,,,,,
,,5b09da13641b1200010eab05,2024-02-21_22h24.12.940,kallum_motion_pilot,2023.2.2,Win32,144.092219,5b09da13641b1200010eab05,65d6bb0e977760de756971f7,65d6be2e40301376a29aafdc,0.019,0.019,0,10,10,50,1,twoone,,,,,,,,,,,,,,,,,,,,,,,,,,,,,,,,,,,,,,,,,,,,,,,,,,,,,,,,,,,,,,,,,,,,,,,,,,,,,,,,,,,,,,,,,,,,,,,,,,,,,,,,,,,,,,,,,,,,,,,,,,,,,,,,,,,,,,,,,
,,5b09da13641b1200010eab05,2024-02-21_22h24.12.940,kallum_motion_pilot,2023.2.2,Win32,144.092219,5b09da13641b1200010eab05,65d6bb0e977760de756971f7,65d6be2e40301376a29aafdc,0.019,0.019,0,11,11,150,1,eightsix,,,,,,,,,,,,,,,,,,,,,,,,,,,,,,,,,,,,,,,,,,,,,,,,,,,,,,,,,,,,,,,,,,,,,,,,,,,,,,,,,,,,,,,,,,,,,,,,,,,,,,,,,,,,,,,,,,,,,,,,,,,,,,,,,,,,,,,,,
,,5b09da13641b1200010eab05,2024-02-21_22h24.12.940,kallum_motion_pilot,2023.2.2,Win32,144.092219,5b09da13641b1200010eab05,65d6bb0e977760de756971f7,65d6be2e40301376a29aafdc,0.019,0.019,0,12,12,79,1,eightseven,,,,,,,,,,,,,,,,,,,,,,,,,,,,,,,,,,,,,,,,,,,,,,,,,,,,,,,,,,,,,,,,,,,,,,,,,,,,,,,,,,,,,,,,,,,,,,,,,,,,,,,,,,,,,,,,,,,,,,,,,,,,,,,,,,,,,,,,,
,,5b09da13641b1200010eab05,2024-02-21_22h24.12.940,kallum_motion_pilot,2023.2.2,Win32,144.092219,5b09da13641b1200010eab05,65d6bb0e977760de756971f7,65d6be2e40301376a29aafdc,0.019,0.019,0,13,13,125,1,seveneight,,,,,,,,,,,,,,,,,,,,,,,,,,,,,,,,,,,,,,,,,,,,,,,,,,,,,,,,,,,,,,,,,,,,,,,,,,,,,,,,,,,,,,,,,,,,,,,,,,,,,,,,,,,,,,,,,,,,,,,,,,,,,,,,,,,,,,,,,
,,5b09da13641b1200010eab05,2024-02-21_22h24.12.940,kallum_motion_pilot,2023.2.2,Win32,144.092219,5b09da13641b1200010eab05,65d6bb0e977760de756971f7,65d6be2e40301376a29aafdc,0.019,0.019,0,14,14,120,1,fivesix,,,,,,,,,,,,,,,,,,,,,,,,,,,,,,,,,,,,,,,,,,,,,,,,,,,,,,,,,,,,,,,,,,,,,,,,,,,,,,,,,,,,,,,,,,,,,,,,,,,,,,,,,,,,,,,,,,,,,,,,,,,,,,,,,,,,,,,,,
,,5b09da13641b1200010eab05,2024-02-21_22h24.12.940,kallum_motion_pilot,2023.2.2,Win32,144.092219,5b09da13641b1200010eab05,65d6bb0e977760de756971f7,65d6be2e40301376a29aafdc,0.019,0.019,0,15,15,135,1,eightseven,,,,,,,,,,,,,,,,,,,,,,,,,,,,,,,,,,,,,,,,,,,,,,,,,,,,,,,,,,,,,,,,,,,,,,,,,,,,,,,,,,,,,,,,,,,,,,,,,,,,,,,,,,,,,,,,,,,,,,,,,,,,,,,,,,,,,,,,,
,,5b09da13641b1200010eab05,2024-02-21_22h24.12.940,kallum_motion_pilot,2023.2.2,Win32,144.092219,5b09da13641b1200010eab05,65d6bb0e977760de756971f7,65d6be2e40301376a29aafdc,0.019,0.019,0,16,16,85,1,seveneight,,,,,,,,,,,,,,,,,,,,,,,,,,,,,,,,,,,,,,,,,,,,,,,,,,,,,,,,,,,,,,,,,,,,,,,,,,,,,,,,,,,,,,,,,,,,,,,,,,,,,,,,,,,,,,,,,,,,,,,,,,,,,,,,,,,,,,,,,
,,5b09da13641b1200010eab05,2024-02-21_22h24.12.940,kallum_motion_pilot,2023.2.2,Win32,144.092219,5b09da13641b1200010eab05,65d6bb0e977760de756971f7,65d6be2e40301376a29aafdc,0.019,0.019,0,17,17,54,1,fourtwo,,,,,,,,,,,,,,,,,,,,,,,,,,,,,,,,,,,,,,,,,,,,,,,,,,,,,,,,,,,,,,,,,,,,,,,,,,,,,,,,,,,,,,,,,,,,,,,,,,,,,,,,,,,,,,,,,,,,,,,,,,,,,,,,,,,,,,,,,
,,5b09da13641b1200010eab05,2024-02-21_22h24.12.940,kallum_motion_pilot,2023.2.2,Win32,144.092219,5b09da13641b1200010eab05,65d6bb0e977760de756971f7,65d6be2e40301376a29aafdc,0.019,0.019,0,18,18,159,1,eightseven,,,,,,,,,,,,,,,,,,,,,,,,,,,,,,,,,,,,,,,,,,,,,,,,,,,,,,,,,,,,,,,,,,,,,,,,,,,,,,,,,,,,,,,,,,,,,,,,,,,,,,,,,,,,,,,,,,,,,,,,,,,,,,,,,,,,,,,,,
,,5b09da13641b1200010eab05,2024-02-21_22h24.12.940,kallum_motion_pilot,2023.2.2,Win32,144.092219,5b09da13641b1200010eab05,65d6bb0e977760de756971f7,65d6be2e40301376a29aafdc,0.019,0.019,0,19,19,71,1,fourthree,,,,,,,,,,,,,,,,,,,,,,,,,,,,,,,,,,,,,,,,,,,,,,,,,,,,,,,,,,,,,,,,,,,,,,,,,,,,,,,,,,,,,,,,,,,,,,,,,,,,,,,,,,,,,,,,,,,,,,,,,,,,,,,,,,,,,,,,,
,,5b09da13641b1200010eab05,2024-02-21_22h24.12.940,kallum_motion_pilot,2023.2.2,Win32,144.092219,5b09da13641b1200010eab05,65d6bb0e977760de756971f7,65d6be2e40301376a29aafdc,0.019,0.019,0,20,20,36,1,threeone,,,,,,,,,,,,,,,,,,,,,,,,,,,,,,,,,,,,,,,,,,,,,,,,,,,,,,,,,,,,,,,,,,,,,,,,,,,,,,,,,,,,,,,,,,,,,,,,,,,,,,,,,,,,,,,,,,,,,,,,,,,,,,,,,,,,,,,,,
,,5b09da13641b1200010eab05,2024-02-21_22h24.12.940,kallum_motion_pilot,2023.2.2,Win32,144.092219,5b09da13641b1200010eab05,65d6bb0e977760de756971f7,65d6be2e40301376a29aafdc,0.019,0.019,0,21,21,2,1,twoone,,,,,,,,,,,,,,,,,,,,,,,,,,,,,,,,,,,,,,,,,,,,,,,,,,,,,,,,,,,,,,,,,,,,,,,,,,,,,,,,,,,,,,,,,,,,,,,,,,,,,,,,,,,,,,,,,,,,,,,,,,,,,,,,,,,,,,,,,
,,5b09da13641b1200010eab05,2024-02-21_22h24.12.940,kallum_motion_pilot,2023.2.2,Win32,144.092219,5b09da13641b1200010eab05,65d6bb0e977760de756971f7,65d6be2e40301376a29aafdc,0.019,0.019,0,22,22,76,1,threeone,,,,,,,,,,,,,,,,,,,,,,,,,,,,,,,,,,,,,,,,,,,,,,,,,,,,,,,,,,,,,,,,,,,,,,,,,,,,,,,,,,,,,,,,,,,,,,,,,,,,,,,,,,,,,,,,,,,,,,,,,,,,,,,,,,,,,,,,,
,,5b09da13641b1200010eab05,2024-02-21_22h24.12.940,kallum_motion_pilot,2023.2.2,Win32,144.092219,5b09da13641b1200010eab05,65d6bb0e977760de756971f7,65d6be2e40301376a29aafdc,0.019,0.02,0,23,23,111,1,eightseven,,,,,,,,,,,,,,,,,,,,,,,,,,,,,,,,,,,,,,,,,,,,,,,,,,,,,,,,,,,,,,,,,,,,,,,,,,,,,,,,,,,,,,,,,,,,,,,,,,,,,,,,,,,,,,,,,,,,,,,,,,,,,,,,,,,,,,,,,
,,5b09da13641b1200010eab05,2024-02-21_22h24.12.940,kallum_motion_pilot,2023.2.2,Win32,144.092219,5b09da13641b1200010eab05,65d6bb0e977760de756971f7,65d6be2e40301376a29aafdc,0.02,0.02,0,24,24,90,1,sixfive,,,,,,,,,,,,,,,,,,,,,,,,,,,,,,,,,,,,,,,,,,,,,,,,,,,,,,,,,,,,,,,,,,,,,,,,,,,,,,,,,,,,,,,,,,,,,,,,,,,,,,,,,,,,,,,,,,,,,,,,,,,,,,,,,,,,,,,,,
,,5b09da13641b1200010eab05,2024-02-21_22h24.12.940,kallum_motion_pilot,2023.2.2,Win32,144.092219,5b09da13641b1200010eab05,65d6bb0e977760de756971f7,65d6be2e40301376a29aafdc,0.02,0.02,0,25,25,20,1,threeone,,,,,,,,,,,,,,,,,,,,,,,,,,,,,,,,,,,,,,,,,,,,,,,,,,,,,,,,,,,,,,,,,,,,,,,,,,,,,,,,,,,,,,,,,,,,,,,,,,,,,,,,,,,,,,,,,,,,,,,,,,,,,,,,,,,,,,,,,
,,5b09da13641b1200010eab05,2024-02-21_22h24.12.940,kallum_motion_pilot,2023.2.2,Win32,144.092219,5b09da13641b1200010eab05,65d6bb0e977760de756971f7,65d6be2e40301376a29aafdc,0.02,0.02,0,26,26,140,1,sevenfive,,,,,,,,,,,,,,,,,,,,,,,,,,,,,,,,,,,,,,,,,,,,,,,,,,,,,,,,,,,,,,,,,,,,,,,,,,,,,,,,,,,,,,,,,,,,,,,,,,,,,,,,,,,,,,,,,,,,,,,,,,,,,,,,,,,,,,,,,
,,5b09da13641b1200010eab05,2024-02-21_22h24.12.940,kallum_motion_pilot,2023.2.2,Win32,144.092219,5b09da13641b1200010eab05,65d6bb0e977760de756971f7,65d6be2e40301376a29aafdc,0.02,0.02,0,27,27,94,1,eightsix,,,,,,,,,,,,,,,,,,,,,,,,,,,,,,,,,,,,,,,,,,,,,,,,,,,,,,,,,,,,,,,,,,,,,,,,,,,,,,,,,,,,,,,,,,,,,,,,,,,,,,,,,,,,,,,,,,,,,,,,,,,,,,,,,,,,,,,,,
,,5b09da13641b1200010eab05,2024-02-21_22h24.12.940,kallum_motion_pilot,2023.2.2,Win32,144.092219,5b09da13641b1200010eab05,65d6bb0e977760de756971f7,65d6be2e40301376a29aafdc,0.02,0.02,0,28,28,13,1,threefour,,,,,,,,,,,,,,,,,,,,,,,,,,,,,,,,,,,,,,,,,,,,,,,,,,,,,,,,,,,,,,,,,,,,,,,,,,,,,,,,,,,,,,,,,,,,,,,,,,,,,,,,,,,,,,,,,,,,,,,,,,,,,,,,,,,,,,,,,
,,5b09da13641b1200010eab05,2024-02-21_22h24.12.940,kallum_motion_pilot,2023.2.2,Win32,144.092219,5b09da13641b1200010eab05,65d6bb0e977760de756971f7,65d6be2e40301376a29aafdc,0.02,0.02,0,29,29,16,1,onetwo,,,,,,,,,,,,,,,,,,,,,,,,,,,,,,,,,,,,,,,,,,,,,,,,,,,,,,,,,,,,,,,,,,,,,,,,,,,,,,,,,,,,,,,,,,,,,,,,,,,,,,,,,,,,,,,,,,,,,,,,,,,,,,,,,,,,,,,,,
,,5b09da13641b1200010eab05,2024-02-21_22h24.12.940,kallum_motion_pilot,2023.2.2,Win32,144.092219,5b09da13641b1200010eab05,65d6bb0e977760de756971f7,65d6be2e40301376a29aafdc,0.02,0.02,0,30,30,63,1,fourthree,,,,,,,,,,,,,,,,,,,,,,,,,,,,,,,,,,,,,,,,,,,,,,,,,,,,,,,,,,,,,,,,,,,,,,,,,,,,,,,,,,,,,,,,,,,,,,,,,,,,,,,,,,,,,,,,,,,,,,,,,,,,,,,,,,,,,,,,,
,,5b09da13641b1200010eab05,2024-02-21_22h24.12.940,kallum_motion_pilot,2023.2.2,Win32,144.092219,5b09da13641b1200010eab05,65d6bb0e977760de756971f7,65d6be2e40301376a29aafdc,0.02,0.02,0,31,31,118,1,eightsix,,,,,,,,,,,,,,,,,,,,,,,,,,,,,,,,,,,,,,,,,,,,,,,,,,,,,,,,,,,,,,,,,,,,,,,,,,,,,,,,,,,,,,,,,,,,,,,,,,,,,,,,,,,,,,,,,,,,,,,,,,,,,,,,,,,,,,,,,
,,5b09da13641b1200010eab05,2024-02-21_22h24.12.940,kallum_motion_pilot,2023.2.2,Win32,144.092219,5b09da13641b1200010eab05,65d6bb0e977760de756971f7,65d6be2e40301376a29aafdc,0.02,0.02,0,32,32,160,1,fivesix,,,,,,,,,,,,,,,,,,,,,,,,,,,,,,,,,,,,,,,,,,,,,,,,,,,,,,,,,,,,,,,,,,,,,,,,,,,,,,,,,,,,,,,,,,,,,,,,,,,,,,,,,,,,,,,,,,,,,,,,,,,,,,,,,,,,,,,,,
,,5b09da13641b1200010eab05,2024-02-21_22h24.12.940,kallum_motion_pilot,2023.2.2,Win32,144.092219,5b09da13641b1200010eab05,65d6bb0e977760de756971f7,65d6be2e40301376a29aafdc,0.02,0.02,0,33,33,91,1,sixeight,,,,,,,,,,,,,,,,,,,,,,,,,,,,,,,,,,,,,,,,,,,,,,,,,,,,,,,,,,,,,,,,,,,,,,,,,,,,,,,,,,,,,,,,,,,,,,,,,,,,,,,,,,,,,,,,,,,,,,,,,,,,,,,,,,,,,,,,,
,,5b09da13641b1200010eab05,2024-02-21_22h24.12.940,kallum_motion_pilot,2023.2.2,Win32,144.092219,5b09da13641b1200010eab05,65d6bb0e977760de756971f7,65d6be2e40301376a29aafdc,0.02,0.02,0,34,34,35,1,twofour,,,,,,,,,,,,,,,,,,,,,,,,,,,,,,,,,,,,,,,,,,,,,,,,,,,,,,,,,,,,,,,,,,,,,,,,,,,,,,,,,,,,,,,,,,,,,,,,,,,,,,,,,,,,,,,,,,,,,,,,,,,,,,,,,,,,,,,,,
,,5b09da13641b1200010eab05,2024-02-21_22h24.12.940,kallum_motion_pilot,2023.2.2,Win32,144.092219,5b09da13641b1200010eab05,65d6bb0e977760de756971f7,65d6be2e40301376a29aafdc,0.02,0.02,0,35,35,141,1,seveneight,,,,,,,,,,,,,,,,,,,,,,,,,,,,,,,,,,,,,,,,,,,,,,,,,,,,,,,,,,,,,,,,,,,,,,,,,,,,,,,,,,,,,,,,,,,,,,,,,,,,,,,,,,,,,,,,,,,,,,,,,,,,,,,,,,,,,,,,,
,,5b09da13641b1200010eab05,2024-02-21_22h24.12.940,kallum_motion_pilot,2023.2.2,Win32,144.092219,5b09da13641b1200010eab05,65d6bb0e977760de756971f7,65d6be2e40301376a29aafdc,0.021,0.021,0,36,36,38,1,fourtwo,,,,,,,,,,,,,,,,,,,,,,,,,,,,,,,,,,,,,,,,,,,,,,,,,,,,,,,,,,,,,,,,,,,,,,,,,,,,,,,,,,,,,,,,,,,,,,,,,,,,,,,,,,,,,,,,,,,,,,,,,,,,,,,,,,,,,,,,,
,,5b09da13641b1200010eab05,2024-02-21_22h24.12.940,kallum_motion_pilot,2023.2.2,Win32,144.092219,5b09da13641b1200010eab05,65d6bb0e977760de756971f7,65d6be2e40301376a29aafdc,0.021,0.021,0,37,37,5,1,threefour,,,,,,,,,,,,,,,,,,,,,,,,,,,,,,,,,,,,,,,,,,,,,,,,,,,,,,,,,,,,,,,,,,,,,,,,,,,,,,,,,,,,,,,,,,,,,,,,,,,,,,,,,,,,,,,,,,,,,,,,,,,,,,,,,,,,,,,,,
,,5b09da13641b1200010eab05,2024-02-21_22h24.12.940,kallum_motion_pilot,2023.2.2,Win32,144.092219,5b09da13641b1200010eab05,65d6bb0e977760de756971f7,65d6be2e40301376a29aafdc,0.021,0.021,0,38,38,56,1,onetwo,,,,,,,,,,,,,,,,,,,,,,,,,,,,,,,,,,,,,,,,,,,,,,,,,,,,,,,,,,,,,,,,,,,,,,,,,,,,,,,,,,,,,,,,,,,,,,,,,,,,,,,,,,,,,,,,,,,,,,,,,,,,,,,,,,,,,,,,,
,,5b09da13641b1200010eab05,2024-02-21_22h24.12.940,kallum_motion_pilot,2023.2.2,Win32,144.092219,5b09da13641b1200010eab05,65d6bb0e977760de756971f7,65d6be2e40301376a29aafdc,0.021,0.021,0,39,39,70,1,fourtwo,,,,,,,,,,,,,,,,,,,,,,,,,,,,,,,,,,,,,,,,,,,,,,,,,,,,,,,,,,,,,,,,,,,,,,,,,,,,,,,,,,,,,,,,,,,,,,,,,,,,,,,,,,,,,,,,,,,,,,,,,,,,,,,,,,,,,,,,,
,,5b09da13641b1200010eab05,2024-02-21_22h24.12.940,kallum_motion_pilot,2023.2.2,Win32,144.092219,5b09da13641b1200010eab05,65d6bb0e977760de756971f7,65d6be2e40301376a29aafdc,0.021,0.021,0,40,40,84,1,sevenfive,,,,,,,,,,,,,,,,,,,,,,,,,,,,,,,,,,,,,,,,,,,,,,,,,,,,,,,,,,,,,,,,,,,,,,,,,,,,,,,,,,,,,,,,,,,,,,,,,,,,,,,,,,,,,,,,,,,,,,,,,,,,,,,,,,,,,,,,,
,,5b09da13641b1200010eab05,2024-02-21_22h24.12.940,kallum_motion_pilot,2023.2.2,Win32,144.092219,5b09da13641b1200010eab05,65d6bb0e977760de756971f7,65d6be2e40301376a29aafdc,0.021,0.021,0,41,41,33,1,onethree,,,,,,,,,,,,,,,,,,,,,,,,,,,,,,,,,,,,,,,,,,,,,,,,,,,,,,,,,,,,,,,,,,,,,,,,,,,,,,,,,,,,,,,,,,,,,,,,,,,,,,,,,,,,,,,,,,,,,,,,,,,,,,,,,,,,,,,,,
,,5b09da13641b1200010eab05,2024-02-21_22h24.12.940,kallum_motion_pilot,2023.2.2,Win32,144.092219,5b09da13641b1200010eab05,65d6bb0e977760de756971f7,65d6be2e40301376a29aafdc,0.021,0.021,0,42,42,78,1,fourtwo,,,,,,,,,,,,,,,,,,,,,,,,,,,,,,,,,,,,,,,,,,,,,,,,,,,,,,,,,,,,,,,,,,,,,,,,,,,,,,,,,,,,,,,,,,,,,,,,,,,,,,,,,,,,,,,,,,,,,,,,,,,,,,,,,,,,,,,,,
,,5b09da13641b1200010eab05,2024-02-21_22h24.12.940,kallum_motion_pilot,2023.2.2,Win32,144.092219,5b09da13641b1200010eab05,65d6bb0e977760de756971f7,65d6be2e40301376a29aafdc,0.021,0.021,0,43,43,46,1,fourtwo,,,,,,,,,,,,,,,,,,,,,,,,,,,,,,,,,,,,,,,,,,,,,,,,,,,,,,,,,,,,,,,,,,,,,,,,,,,,,,,,,,,,,,,,,,,,,,,,,,,,,,,,,,,,,,,,,,,,,,,,,,,,,,,,,,,,,,,,,
,,5b09da13641b1200010eab05,2024-02-21_22h24.12.940,kallum_motion_pilot,2023.2.2,Win32,144.092219,5b09da13641b1200010eab05,65d6bb0e977760de756971f7,65d6be2e40301376a29aafdc,0.021,0.021,0,44,44,114,1,sixfive,,,,,,,,,,,,,,,,,,,,,,,,,,,,,,,,,,,,,,,,,,,,,,,,,,,,,,,,,,,,,,,,,,,,,,,,,,,,,,,,,,,,,,,,,,,,,,,,,,,,,,,,,,,,,,,,,,,,,,,,,,,,,,,,,,,,,,,,,
,,5b09da13641b1200010eab05,2024-02-21_22h24.12.940,kallum_motion_pilot,2023.2.2,Win32,144.092219,5b09da13641b1200010eab05,65d6bb0e977760de756971f7,65d6be2e40301376a29aafdc,0.021,0.021,0,45,45,149,1,seveneight,,,,,,,,,,,,,,,,,,,,,,,,,,,,,,,,,,,,,,,,,,,,,,,,,,,,,,,,,,,,,,,,,,,,,,,,,,,,,,,,,,,,,,,,,,,,,,,,,,,,,,,,,,,,,,,,,,,,,,,,,,,,,,,,,,,,,,,,,
,,5b09da13641b1200010eab05,2024-02-21_22h24.12.940,kallum_motion_pilot,2023.2.2,Win32,144.092219,5b09da13641b1200010eab05,65d6bb0e977760de756971f7,65d6be2e40301376a29aafdc,0.021,0.021,0,46,46,75,1,twofour,,,,,,,,,,,,,,,,,,,,,,,,,,,,,,,,,,,,,,,,,,,,,,,,,,,,,,,,,,,,,,,,,,,,,,,,,,,,,,,,,,,,,,,,,,,,,,,,,,,,,,,,,,,,,,,,,,,,,,,,,,,,,,,,,,,,,,,,,
,,5b09da13641b1200010eab05,2024-02-21_22h24.12.940,kallum_motion_pilot,2023.2.2,Win32,144.092219,5b09da13641b1200010eab05,65d6bb0e977760de756971f7,65d6be2e40301376a29aafdc,0.021,0.021,0,47,47,105,1,fiveseven,,,,,,,,,,,,,,,,,,,,,,,,,,,,,,,,,,,,,,,,,,,,,,,,,,,,,,,,,,,,,,,,,,,,,,,,,,,,,,,,,,,,,,,,,,,,,,,,,,,,,,,,,,,,,,,,,,,,,,,,,,,,,,,,,,,,,,,,,
,,5b09da13641b1200010eab05,2024-02-21_22h24.12.940,kallum_motion_pilot,2023.2.2,Win32,144.092219,5b09da13641b1200010eab05,65d6bb0e977760de756971f7,65d6be2e40301376a29aafdc,0.021,0.021,0,48,48,52,1,threeone,,,,,,,,,,,,,,,,,,,,,,,,,,,,,,,,,,,,,,,,,,,,,,,,,,,,,,,,,,,,,,,,,,,,,,,,,,,,,,,,,,,,,,,,,,,,,,,,,,,,,,,,,,,,,,,,,,,,,,,,,,,,,,,,,,,,,,,,,
,,5b09da13641b1200010eab05,2024-02-21_22h24.12.940,kallum_motion_pilot,2023.2.2,Win32,144.092219,5b09da13641b1200010eab05,65d6bb0e977760de756971f7,65d6be2e40301376a29aafdc,0.021,0.021,0,49,49,18,1,twoone,,,,,,,,,,,,,,,,,,,,,,,,,,,,,,,,,,,,,,,,,,,,,,,,,,,,,,,,,,,,,,,,,,,,,,,,,,,,,,,,,,,,,,,,,,,,,,,,,,,,,,,,,,,,,,,,,,,,,,,,,,,,,,,,,,,,,,,,,
,,5b09da13641b1200010eab05,2024-02-21_22h24.12.940,kallum_motion_pilot,2023.2.2,Win32,144.092219,5b09da13641b1200010eab05,65d6bb0e977760de756971f7,65d6be2e40301376a29aafdc,0.021,0.021,0,50,50,34,1,twoone,,,,,,,,,,,,,,,,,,,,,,,,,,,,,,,,,,,,,,,,,,,,,,,,,,,,,,,,,,,,,,,,,,,,,,,,,,,,,,,,,,,,,,,,,,,,,,,,,,,,,,,,,,,,,,,,,,,,,,,,,,,,,,,,,,,,,,,,,
,,5b09da13641b1200010eab05,2024-02-21_22h24.12.940,kallum_motion_pilot,2023.2.2,Win32,144.092219,5b09da13641b1200010eab05,65d6bb0e977760de756971f7,65d6be2e40301376a29aafdc,0.021,0.021,0,51,51,102,1,eightsix,,,,,,,,,,,,,,,,,,,,,,,,,,,,,,,,,,,,,,,,,,,,,,,,,,,,,,,,,,,,,,,,,,,,,,,,,,,,,,,,,,,,,,,,,,,,,,,,,,,,,,,,,,,,,,,,,,,,,,,,,,,,,,,,,,,,,,,,,
,,5b09da13641b1200010eab05,2024-02-21_22h24.12.940,kallum_motion_pilot,2023.2.2,Win32,144.092219,5b09da13641b1200010eab05,65d6bb0e977760de756971f7,65d6be2e40301376a29aafdc,0.022,0.022,0,52,52,152,1,fivesix,,,,,,,,,,,,,,,,,,,,,,,,,,,,,,,,,,,,,,,,,,,,,,,,,,,,,,,,,,,,,,,,,,,,,,,,,,,,,,,,,,,,,,,,,,,,,,,,,,,,,,,,,,,,,,,,,,,,,,,,,,,,,,,,,,,,,,,,,
,,5b09da13641b1200010eab05,2024-02-21_22h24.12.940,kallum_motion_pilot,2023.2.2,Win32,144.092219,5b09da13641b1200010eab05,65d6bb0e977760de756971f7,65d6be2e40301376a29aafdc,0.022,0.022,0,53,53,53,1,threefour,,,,,,,,,,,,,,,,,,,,,,,,,,,,,,,,,,,,,,,,,,,,,,,,,,,,,,,,,,,,,,,,,,,,,,,,,,,,,,,,,,,,,,,,,,,,,,,,,,,,,,,,,,,,,,,,,,,,,,,,,,,,,,,,,,,,,,,,,
,,5b09da13641b1200010eab05,2024-02-21_22h24.12.940,kallum_motion_pilot,2023.2.2,Win32,144.092219,5b09da13641b1200010eab05,65d6bb0e977760de756971f7,65d6be2e40301376a29aafdc,0.022,0.022,0,54,54,15,1,fourthree,,,,,,,,,,,,,,,,,,,,,,,,,,,,,,,,,,,,,,,,,,,,,,,,,,,,,,,,,,,,,,,,,,,,,,,,,,,,,,,,,,,,,,,,,,,,,,,,,,,,,,,,,,,,,,,,,,,,,,,,,,,,,,,,,,,,,,,,,
,,5b09da13641b1200010eab05,2024-02-21_22h24.12.940,kallum_motion_pilot,2023.2.2,Win32,144.092219,5b09da13641b1200010eab05,65d6bb0e977760de756971f7,65d6be2e40301376a29aafdc,0.022,0.022,0,55,55,10,1,twoone,,,,,,,,,,,,,,,,,,,,,,,,,,,,,,,,,,,,,,,,,,,,,,,,,,,,,,,,,,,,,,,,,,,,,,,,,,,,,,,,,,,,,,,,,,,,,,,,,,,,,,,,,,,,,,,,,,,,,,,,,,,,,,,,,,,,,,,,,
,,5b09da13641b1200010eab05,2024-02-21_22h24.12.940,kallum_motion_pilot,2023.2.2,Win32,144.092219,5b09da13641b1200010eab05,65d6bb0e977760de756971f7,65d6be2e40301376a29aafdc,0.022,0.022,0,56,56,6,1,fourtwo,,,,,,,,,,,,,,,,,,,,,,,,,,,,,,,,,,,,,,,,,,,,,,,,,,,,,,,,,,,,,,,,,,,,,,,,,,,,,,,,,,,,,,,,,,,,,,,,,,,,,,,,,,,,,,,,,,,,,,,,,,,,,,,,,,,,,,,,,
,,5b09da13641b1200010eab05,2024-02-21_22h24.12.940,kallum_motion_pilot,2023.2.2,Win32,144.092219,5b09da13641b1200010eab05,65d6bb0e977760de756971f7,65d6be2e40301376a29aafdc,0.022,0.022,0,57,57,23,1,fourthree,,,,,,,,,,,,,,,,,,,,,,,,,,,,,,,,,,,,,,,,,,,,,,,,,,,,,,,,,,,,,,,,,,,,,,,,,,,,,,,,,,,,,,,,,,,,,,,,,,,,,,,,,,,,,,,,,,,,,,,,,,,,,,,,,,,,,,,,,
,,5b09da13641b1200010eab05,2024-02-21_22h24.12.940,kallum_motion_pilot,2023.2.2,Win32,144.092219,5b09da13641b1200010eab05,65d6bb0e977760de756971f7,65d6be2e40301376a29aafdc,0.022,0.022,0,58,58,103,1,eightseven,,,,,,,,,,,,,,,,,,,,,,,,,,,,,,,,,,,,,,,,,,,,,,,,,,,,,,,,,,,,,,,,,,,,,,,,,,,,,,,,,,,,,,,,,,,,,,,,,,,,,,,,,,,,,,,,,,,,,,,,,,,,,,,,,,,,,,,,,
,,5b09da13641b1200010eab05,2024-02-21_22h24.12.940,kallum_motion_pilot,2023.2.2,Win32,144.092219,5b09da13641b1200010eab05,65d6bb0e977760de756971f7,65d6be2e40301376a29aafdc,0.022,0.022,0,59,59,107,1,sixeight,,,,,,,,,,,,,,,,,,,,,,,,,,,,,,,,,,,,,,,,,,,,,,,,,,,,,,,,,,,,,,,,,,,,,,,,,,,,,,,,,,,,,,,,,,,,,,,,,,,,,,,,,,,,,,,,,,,,,,,,,,,,,,,,,,,,,,,,,
,,5b09da13641b1200010eab05,2024-02-21_22h24.12.940,kallum_motion_pilot,2023.2.2,Win32,144.092219,5b09da13641b1200010eab05,65d6bb0e977760de756971f7,65d6be2e40301376a29aafdc,0.024,0.024,0,60,60,4,1,threeone,,,,,,,,,,,,,,,,,,,,,,,,,,,,,,,,,,,,,,,,,,,,,,,,,,,,,,,,,,,,,,,,,,,,,,,,,,,,,,,,,,,,,,,,,,,,,,,,,,,,,,,,,,,,,,,,,,,,,,,,,,,,,,,,,,,,,,,,,
,,5b09da13641b1200010eab05,2024-02-21_22h24.12.940,kallum_motion_pilot,2023.2.2,Win32,144.092219,5b09da13641b1200010eab05,65d6bb0e977760de756971f7,65d6be2e40301376a29aafdc,0.024,0.024,0,61,61,61,1,threefour,,,,,,,,,,,,,,,,,,,,,,,,,,,,,,,,,,,,,,,,,,,,,,,,,,,,,,,,,,,,,,,,,,,,,,,,,,,,,,,,,,,,,,,,,,,,,,,,,,,,,,,,,,,,,,,,,,,,,,,,,,,,,,,,,,,,,,,,,
,,5b09da13641b1200010eab05,2024-02-21_22h24.12.940,kallum_motion_pilot,2023.2.2,Win32,144.092219,5b09da13641b1200010eab05,65d6bb0e977760de756971f7,65d6be2e40301376a29aafdc,0.024,0.024,0,62,62,57,1,onethree,,,,,,,,,,,,,,,,,,,,,,,,,,,,,,,,,,,,,,,,,,,,,,,,,,,,,,,,,,,,,,,,,,,,,,,,,,,,,,,,,,,,,,,,,,,,,,,,,,,,,,,,,,,,,,,,,,,,,,,,,,,,,,,,,,,,,,,,,
,,5b09da13641b1200010eab05,2024-02-21_22h24.12.940,kallum_motion_pilot,2023.2.2,Win32,144.092219,5b09da13641b1200010eab05,65d6bb0e977760de756971f7,65d6be2e40301376a29aafdc,0.024,0.024,0,63,63,132,1,sevenfive,,,,,,,,,,,,,,,,,,,,,,,,,,,,,,,,,,,,,,,,,,,,,,,,,,,,,,,,,,,,,,,,,,,,,,,,,,,,,,,,,,,,,,,,,,,,,,,,,,,,,,,,,,,,,,,,,,,,,,,,,,,,,,,,,,,,,,,,,
,,5b09da13641b1200010eab05,2024-02-21_22h24.12.940,kallum_motion_pilot,2023.2.2,Win32,144.092219,5b09da13641b1200010eab05,65d6bb0e977760de756971f7,65d6be2e40301376a29aafdc,0.024,0.024,0,64,64,154,1,sixfive,,,,,,,,,,,,,,,,,,,,,,,,,,,,,,,,,,,,,,,,,,,,,,,,,,,,,,,,,,,,,,,,,,,,,,,,,,,,,,,,,,,,,,,,,,,,,,,,,,,,,,,,,,,,,,,,,,,,,,,,,,,,,,,,,,,,,,,,,
,,5b09da13641b1200010eab05,2024-02-21_22h24.12.940,kallum_motion_pilot,2023.2.2,Win32,144.092219,5b09da13641b1200010eab05,65d6bb0e977760de756971f7,65d6be2e40301376a29aafdc,0.024,0.024,0,65,65,62,1,fourtwo,,,,,,,,,,,,,,,,,,,,,,,,,,,,,,,,,,,,,,,,,,,,,,,,,,,,,,,,,,,,,,,,,,,,,,,,,,,,,,,,,,,,,,,,,,,,,,,,,,,,,,,,,,,,,,,,,,,,,,,,,,,,,,,,,,,,,,,,,
,,5b09da13641b1200010eab05,2024-02-21_22h24.12.940,kallum_motion_pilot,2023.2.2,Win32,144.092219,5b09da13641b1200010eab05,65d6bb0e977760de756971f7,65d6be2e40301376a29aafdc,0.024,0.024,0,66,66,116,1,sevenfive,,,,,,,,,,,,,,,,,,,,,,,,,,,,,,,,,,,,,,,,,,,,,,,,,,,,,,,,,,,,,,,,,,,,,,,,,,,,,,,,,,,,,,,,,,,,,,,,,,,,,,,,,,,,,,,,,,,,,,,,,,,,,,,,,,,,,,,,,
,,5b09da13641b1200010eab05,2024-02-21_22h24.12.940,kallum_motion_pilot,2023.2.2,Win32,144.092219,5b09da13641b1200010eab05,65d6bb0e977760de756971f7,65d6be2e40301376a29aafdc,0.024,0.024,0,67,67,117,1,seveneight,,,,,,,,,,,,,,,,,,,,,,,,,,,,,,,,,,,,,,,,,,,,,,,,,,,,,,,,,,,,,,,,,,,,,,,,,,,,,,,,,,,,,,,,,,,,,,,,,,,,,,,,,,,,,,,,,,,,,,,,,,,,,,,,,,,,,,,,,
,,5b09da13641b1200010eab05,2024-02-21_22h24.12.940,kallum_motion_pilot,2023.2.2,Win32,144.092219,5b09da13641b1200010eab05,65d6bb0e977760de756971f7,65d6be2e40301376a29aafdc,0.024,0.024,0,68,68,9,1,onethree,,,,,,,,,,,,,,,,,,,,,,,,,,,,,,,,,,,,,,,,,,,,,,,,,,,,,,,,,,,,,,,,,,,,,,,,,,,,,,,,,,,,,,,,,,,,,,,,,,,,,,,,,,,,,,,,,,,,,,,,,,,,,,,,,,,,,,,,,
,,5b09da13641b1200010eab05,2024-02-21_22h24.12.940,kallum_motion_pilot,2023.2.2,Win32,144.092219,5b09da13641b1200010eab05,65d6bb0e977760de756971f7,65d6be2e40301376a29aafdc,0.024,0.024,0,69,69,40,1,onetwo,,,,,,,,,,,,,,,,,,,,,,,,,,,,,,,,,,,,,,,,,,,,,,,,,,,,,,,,,,,,,,,,,,,,,,,,,,,,,,,,,,,,,,,,,,,,,,,,,,,,,,,,,,,,,,,,,,,,,,,,,,,,,,,,,,,,,,,,,
,,5b09da13641b1200010eab05,2024-02-21_22h24.12.940,kallum_motion_pilot,2023.2.2,Win32,144.092219,5b09da13641b1200010eab05,65d6bb0e977760de756971f7,65d6be2e40301376a29aafdc,0.024,0.024,0,70,70,124,1,sevenfive,,,,,,,,,,,,,,,,,,,,,,,,,,,,,,,,,,,,,,,,,,,,,,,,,,,,,,,,,,,,,,,,,,,,,,,,,,,,,,,,,,,,,,,,,,,,,,,,,,,,,,,,,,,,,,,,,,,,,,,,,,,,,,,,,,,,,,,,,
,,5b09da13641b1200010eab05,2024-02-21_22h24.12.940,kallum_motion_pilot,2023.2.2,Win32,144.092219,5b09da13641b1200010eab05,65d6bb0e977760de756971f7,65d6be2e40301376a29aafdc,0.024,0.024,0,71,71,21,1,threefour,,,,,,,,,,,,,,,,,,,,,,,,,,,,,,,,,,,,,,,,,,,,,,,,,,,,,,,,,,,,,,,,,,,,,,,,,,,,,,,,,,,,,,,,,,,,,,,,,,,,,,,,,,,,,,,,,,,,,,,,,,,,,,,,,,,,,,,,,
,,5b09da13641b1200010eab05,2024-02-21_22h24.12.940,kallum_motion_pilot,2023.2.2,Win32,144.092219,5b09da13641b1200010eab05,65d6bb0e977760de756971f7,65d6be2e40301376a29aafdc,0.024,0.024,0,72,72,109,1,seveneight,,,,,,,,,,,,,,,,,,,,,,,,,,,,,,,,,,,,,,,,,,,,,,,,,,,,,,,,,,,,,,,,,,,,,,,,,,,,,,,,,,,,,,,,,,,,,,,,,,,,,,,,,,,,,,,,,,,,,,,,,,,,,,,,,,,,,,,,,
,,5b09da13641b1200010eab05,2024-02-21_22h24.12.940,kallum_motion_pilot,2023.2.2,Win32,144.092219,5b09da13641b1200010eab05,65d6bb0e977760de756971f7,65d6be2e40301376a29aafdc,0.024,0.024,0,73,73,24,1,onetwo,,,,,,,,,,,,,,,,,,,,,,,,,,,,,,,,,,,,,,,,,,,,,,,,,,,,,,,,,,,,,,,,,,,,,,,,,,,,,,,,,,,,,,,,,,,,,,,,,,,,,,,,,,,,,,,,,,,,,,,,,,,,,,,,,,,,,,,,,
,,5b09da13641b1200010eab05,2024-02-21_22h24.12.940,kallum_motion_pilot,2023.2.2,Win32,144.092219,5b09da13641b1200010eab05,65d6bb0e977760de756971f7,65d6be2e40301376a29aafdc,0.025,0.025,0,74,74,80,1,fivesix,,,,,,,,,,,,,,,,,,,,,,,,,,,,,,,,,,,,,,,,,,,,,,,,,,,,,,,,,,,,,,,,,,,,,,,,,,,,,,,,,,,,,,,,,,,,,,,,,,,,,,,,,,,,,,,,,,,,,,,,,,,,,,,,,,,,,,,,,
,,5b09da13641b1200010eab05,2024-02-21_22h24.12.940,kallum_motion_pilot,2023.2.2,Win32,144.092219,5b09da13641b1200010eab05,65d6bb0e977760de756971f7,65d6be2e40301376a29aafdc,0.025,0.025,0,75,75,12,1,threeone,,,,,,,,,,,,,,,,,,,,,,,,,,,,,,,,,,,,,,,,,,,,,,,,,,,,,,,,,,,,,,,,,,,,,,,,,,,,,,,,,,,,,,,,,,,,,,,,,,,,,,,,,,,,,,,,,,,,,,,,,,,,,,,,,,,,,,,,,
,,5b09da13641b1200010eab05,2024-02-21_22h24.12.940,kallum_motion_pilot,2023.2.2,Win32,144.092219,5b09da13641b1200010eab05,65d6bb0e977760de756971f7,65d6be2e40301376a29aafdc,0.025,0.025,0,76,76,14,1,fourtwo,,,,,,,,,,,,,,,,,,,,,,,,,,,,,,,,,,,,,,,,,,,,,,,,,,,,,,,,,,,,,,,,,,,,,,,,,,,,,,,,,,,,,,,,,,,,,,,,,,,,,,,,,,,,,,,,,,,,,,,,,,,,,,,,,,,,,,,,,
,,5b09da13641b1200010eab05,2024-02-21_22h24.12.940,kallum_motion_pilot,2023.2.2,Win32,144.092219,5b09da13641b1200010eab05,65d6bb0e977760de756971f7,65d6be2e40301376a29aafdc,0.025,0.025,0,77,77,123,1,sixeight,,,,,,,,,,,,,,,,,,,,,,,,,,,,,,,,,,,,,,,,,,,,,,,,,,,,,,,,,,,,,,,,,,,,,,,,,,,,,,,,,,,,,,,,,,,,,,,,,,,,,,,,,,,,,,,,,,,,,,,,,,,,,,,,,,,,,,,,,
,,5b09da13641b1200010eab05,2024-02-21_22h24.12.940,kallum_motion_pilot,2023.2.2,Win32,144.092219,5b09da13641b1200010eab05,65d6bb0e977760de756971f7,65d6be2e40301376a29aafdc,0.025,0.025,0,78,78,73,1,onethree,,,,,,,,,,,,,,,,,,,,,,,,,,,,,,,,,,,,,,,,,,,,,,,,,,,,,,,,,,,,,,,,,,,,,,,,,,,,,,,,,,,,,,,,,,,,,,,,,,,,,,,,,,,,,,,,,,,,,,,,,,,,,,,,,,,,,,,,,
,,5b09da13641b1200010eab05,2024-02-21_22h24.12.940,kallum_motion_pilot,2023.2.2,Win32,144.092219,5b09da13641b1200010eab05,65d6bb0e977760de756971f7,65d6be2e40301376a29aafdc,0.025,0.025,0,79,79,66,1,twoone,,,,,,,,,,,,,,,,,,,,,,,,,,,,,,,,,,,,,,,,,,,,,,,,,,,,,,,,,,,,,,,,,,,,,,,,,,,,,,,,,,,,,,,,,,,,,,,,,,,,,,,,,,,,,,,,,,,,,,,,,,,,,,,,,,,,,,,,,
,,5b09da13641b1200010eab05,2024-02-21_22h24.12.940,kallum_motion_pilot,2023.2.2,Win32,144.092219,5b09da13641b1200010eab05,65d6bb0e977760de756971f7,65d6be2e40301376a29aafdc,0.025,0.025,0,80,80,133,1,seveneight,,,,,,,,,,,,,,,,,,,,,,,,,,,,,,,,,,,,,,,,,,,,,,,,,,,,,,,,,,,,,,,,,,,,,,,,,,,,,,,,,,,,,,,,,,,,,,,,,,,,,,,,,,,,,,,,,,,,,,,,,,,,,,,,,,,,,,,,,
,,5b09da13641b1200010eab05,2024-02-21_22h24.12.940,kallum_motion_pilot,2023.2.2,Win32,144.092219,5b09da13641b1200010eab05,65d6bb0e977760de756971f7,65d6be2e40301376a29aafdc,0.025,0.025,0,81,81,127,1,eightseven,,,,,,,,,,,,,,,,,,,,,,,,,,,,,,,,,,,,,,,,,,,,,,,,,,,,,,,,,,,,,,,,,,,,,,,,,,,,,,,,,,,,,,,,,,,,,,,,,,,,,,,,,,,,,,,,,,,,,,,,,,,,,,,,,,,,,,,,,
,,5b09da13641b1200010eab05,2024-02-21_22h24.12.940,kallum_motion_pilot,2023.2.2,Win32,144.092219,5b09da13641b1200010eab05,65d6bb0e977760de756971f7,65d6be2e40301376a29aafdc,0.025,0.025,0,82,82,32,1,onetwo,,,,,,,,,,,,,,,,,,,,,,,,,,,,,,,,,,,,,,,,,,,,,,,,,,,,,,,,,,,,,,,,,,,,,,,,,,,,,,,,,,,,,,,,,,,,,,,,,,,,,,,,,,,,,,,,,,,,,,,,,,,,,,,,,,,,,,,,,
,,5b09da13641b1200010eab05,2024-02-21_22h24.12.940,kallum_motion_pilot,2023.2.2,Win32,144.092219,5b09da13641b1200010eab05,65d6bb0e977760de756971f7,65d6be2e40301376a29aafdc,0.025,0.025,0,83,83,131,1,sixeight,,,,,,,,,,,,,,,,,,,,,,,,,,,,,,,,,,,,,,,,,,,,,,,,,,,,,,,,,,,,,,,,,,,,,,,,,,,,,,,,,,,,,,,,,,,,,,,,,,,,,,,,,,,,,,,,,,,,,,,,,,,,,,,,,,,,,,,,,
,,5b09da13641b1200010eab05,2024-02-21_22h24.12.940,kallum_motion_pilot,2023.2.2,Win32,144.092219,5b09da13641b1200010eab05,65d6bb0e977760de756971f7,65d6be2e40301376a29aafdc,0.025,0.025,0,84,84,19,1,twofour,,,,,,,,,,,,,,,,,,,,,,,,,,,,,,,,,,,,,,,,,,,,,,,,,,,,,,,,,,,,,,,,,,,,,,,,,,,,,,,,,,,,,,,,,,,,,,,,,,,,,,,,,,,,,,,,,,,,,,,,,,,,,,,,,,,,,,,,,
,,5b09da13641b1200010eab05,2024-02-21_22h24.12.940,kallum_motion_pilot,2023.2.2,Win32,144.092219,5b09da13641b1200010eab05,65d6bb0e977760de756971f7,65d6be2e40301376a29aafdc,0.025,0.025,0,85,85,92,1,sevenfive,,,,,,,,,,,,,,,,,,,,,,,,,,,,,,,,,,,,,,,,,,,,,,,,,,,,,,,,,,,,,,,,,,,,,,,,,,,,,,,,,,,,,,,,,,,,,,,,,,,,,,,,,,,,,,,,,,,,,,,,,,,,,,,,,,,,,,,,,
,,5b09da13641b1200010eab05,2024-02-21_22h24.12.940,kallum_motion_pilot,2023.2.2,Win32,144.092219,5b09da13641b1200010eab05,65d6bb0e977760de756971f7,65d6be2e40301376a29aafdc,0.025,0.025,0,86,86,0,1,onetwo,,,,,,,,,,,,,,,,,,,,,,,,,,,,,,,,,,,,,,,,,,,,,,,,,,,,,,,,,,,,,,,,,,,,,,,,,,,,,,,,,,,,,,,,,,,,,,,,,,,,,,,,,,,,,,,,,,,,,,,,,,,,,,,,,,,,,,,,,
,,5b09da13641b1200010eab05,2024-02-21_22h24.12.940,kallum_motion_pilot,2023.2.2,Win32,144.092219,5b09da13641b1200010eab05,65d6bb0e977760de756971f7,65d6be2e40301376a29aafdc,0.025,0.025,0,87,87,42,1,twoone,,,,,,,,,,,,,,,,,,,,,,,,,,,,,,,,,,,,,,,,,,,,,,,,,,,,,,,,,,,,,,,,,,,,,,,,,,,,,,,,,,,,,,,,,,,,,,,,,,,,,,,,,,,,,,,,,,,,,,,,,,,,,,,,,,,,,,,,,
,,5b09da13641b1200010eab05,2024-02-21_22h24.12.940,kallum_motion_pilot,2023.2.2,Win32,144.092219,5b09da13641b1200010eab05,65d6bb0e977760de756971f7,65d6be2e40301376a29aafdc,0.025,0.025,0,88,88,146,1,sixfive,,,,,,,,,,,,,,,,,,,,,,,,,,,,,,,,,,,,,,,,,,,,,,,,,,,,,,,,,,,,,,,,,,,,,,,,,,,,,,,,,,,,,,,,,,,,,,,,,,,,,,,,,,,,,,,,,,,,,,,,,,,,,,,,,,,,,,,,,
,,5b09da13641b1200010eab05,2024-02-21_22h24.12.940,kallum_motion_pilot,2023.2.2,Win32,144.092219,5b09da13641b1200010eab05,65d6bb0e977760de756971f7,65d6be2e40301376a29aafdc,0.026,0.026,0,89,89,121,1,fiveseven,,,,,,,,,,,,,,,,,,,,,,,,,,,,,,,,,,,,,,,,,,,,,,,,,,,,,,,,,,,,,,,,,,,,,,,,,,,,,,,,,,,,,,,,,,,,,,,,,,,,,,,,,,,,,,,,,,,,,,,,,,,,,,,,,,,,,,,,,
,,5b09da13641b1200010eab05,2024-02-21_22h24.12.940,kallum_motion_pilot,2023.2.2,Win32,144.092219,5b09da13641b1200010eab05,65d6bb0e977760de756971f7,65d6be2e40301376a29aafdc,0.026,0.026,0,90,90,77,1,threefour,,,,,,,,,,,,,,,,,,,,,,,,,,,,,,,,,,,,,,,,,,,,,,,,,,,,,,,,,,,,,,,,,,,,,,,,,,,,,,,,,,,,,,,,,,,,,,,,,,,,,,,,,,,,,,,,,,,,,,,,,,,,,,,,,,,,,,,,,
,,5b09da13641b1200010eab05,2024-02-21_22h24.12.940,kallum_motion_pilot,2023.2.2,Win32,144.092219,5b09da13641b1200010eab05,65d6bb0e977760de756971f7,65d6be2e40301376a29aafdc,0.026,0.026,0,91,91,93,1,seveneight,,,,,,,,,,,,,,,,,,,,,,,,,,,,,,,,,,,,,,,,,,,,,,,,,,,,,,,,,,,,,,,,,,,,,,,,,,,,,,,,,,,,,,,,,,,,,,,,,,,,,,,,,,,,,,,,,,,,,,,,,,,,,,,,,,,,,,,,,
,,5b09da13641b1200010eab05,2024-02-21_22h24.12.940,kallum_motion_pilot,2023.2.2,Win32,144.092219,5b09da13641b1200010eab05,65d6bb0e977760de756971f7,65d6be2e40301376a29aafdc,0.026,0.026,0,92,92,113,1,fiveseven,,,,,,,,,,,,,,,,,,,,,,,,,,,,,,,,,,,,,,,,,,,,,,,,,,,,,,,,,,,,,,,,,,,,,,,,,,,,,,,,,,,,,,,,,,,,,,,,,,,,,,,,,,,,,,,,,,,,,,,,,,,,,,,,,,,,,,,,,
,,5b09da13641b1200010eab05,2024-02-21_22h24.12.940,kallum_motion_pilot,2023.2.2,Win32,144.092219,5b09da13641b1200010eab05,65d6bb0e977760de756971f7,65d6be2e40301376a29aafdc,0.026,0.026,0,93,93,68,1,threeone,,,,,,,,,,,,,,,,,,,,,,,,,,,,,,,,,,,,,,,,,,,,,,,,,,,,,,,,,,,,,,,,,,,,,,,,,,,,,,,,,,,,,,,,,,,,,,,,,,,,,,,,,,,,,,,,,,,,,,,,,,,,,,,,,,,,,,,,,
,,5b09da13641b1200010eab05,2024-02-21_22h24.12.940,kallum_motion_pilot,2023.2.2,Win32,144.092219,5b09da13641b1200010eab05,65d6bb0e977760de756971f7,65d6be2e40301376a29aafdc,0.026,0.026,0,94,94,45,1,threefour,,,,,,,,,,,,,,,,,,,,,,,,,,,,,,,,,,,,,,,,,,,,,,,,,,,,,,,,,,,,,,,,,,,,,,,,,,,,,,,,,,,,,,,,,,,,,,,,,,,,,,,,,,,,,,,,,,,,,,,,,,,,,,,,,,,,,,,,,
,,5b09da13641b1200010eab05,2024-02-21_22h24.12.940,kallum_motion_pilot,2023.2.2,Win32,144.092219,5b09da13641b1200010eab05,65d6bb0e977760de756971f7,65d6be2e40301376a29aafdc,0.026,0.026,0,95,95,110,1,eightsix,,,,,,,,,,,,,,,,,,,,,,,,,,,,,,,,,,,,,,,,,,,,,,,,,,,,,,,,,,,,,,,,,,,,,,,,,,,,,,,,,,,,,,,,,,,,,,,,,,,,,,,,,,,,,,,,,,,,,,,,,,,,,,,,,,,,,,,,,
,,5b09da13641b1200010eab05,2024-02-21_22h24.12.940,kallum_motion_pilot,2023.2.2,Win32,144.092219,5b09da13641b1200010eab05,65d6bb0e977760de756971f7,65d6be2e40301376a29aafdc,0.026,0.026,0,96,96,37,1,threefour,,,,,,,,,,,,,,,,,,,,,,,,,,,,,,,,,,,,,,,,,,,,,,,,,,,,,,,,,,,,,,,,,,,,,,,,,,,,,,,,,,,,,,,,,,,,,,,,,,,,,,,,,,,,,,,,,,,,,,,,,,,,,,,,,,,,,,,,,
,,5b09da13641b1200010eab05,2024-02-21_22h24.12.940,kallum_motion_pilot,2023.2.2,Win32,144.092219,5b09da13641b1200010eab05,65d6bb0e977760de756971f7,65d6be2e40301376a29aafdc,0.026,0.026,0,97,97,31,1,fourthree,,,,,,,,,,,,,,,,,,,,,,,,,,,,,,,,,,,,,,,,,,,,,,,,,,,,,,,,,,,,,,,,,,,,,,,,,,,,,,,,,,,,,,,,,,,,,,,,,,,,,,,,,,,,,,,,,,,,,,,,,,,,,,,,,,,,,,,,,
,,5b09da13641b1200010eab05,2024-02-21_22h24.12.940,kallum_motion_pilot,2023.2.2,Win32,144.092219,5b09da13641b1200010eab05,65d6bb0e977760de756971f7,65d6be2e40301376a29aafdc,0.026,0.026,0,98,98,97,1,fiveseven,,,,,,,,,,,,,,,,,,,,,,,,,,,,,,,,,,,,,,,,,,,,,,,,,,,,,,,,,,,,,,,,,,,,,,,,,,,,,,,,,,,,,,,,,,,,,,,,,,,,,,,,,,,,,,,,,,,,,,,,,,,,,,,,,,,,,,,,,
,,5b09da13641b1200010eab05,2024-02-21_22h24.12.940,kallum_motion_pilot,2023.2.2,Win32,144.092219,5b09da13641b1200010eab05,65d6bb0e977760de756971f7,65d6be2e40301376a29aafdc,0.026,0.026,0,99,99,49,1,onethree,,,,,,,,,,,,,,,,,,,,,,,,,,,,,,,,,,,,,,,,,,,,,,,,,,,,,,,,,,,,,,,,,,,,,,,,,,,,,,,,,,,,,,,,,,,,,,,,,,,,,,,,,,,,,,,,,,,,,,,,,,,,,,,,,,,,,,,,,
,,5b09da13641b1200010eab05,2024-02-21_22h24.12.940,kallum_motion_pilot,2023.2.2,Win32,144.092219,5b09da13641b1200010eab05,65d6bb0e977760de756971f7,65d6be2e40301376a29aafdc,0.026,0.026,0,100,100,3,1,twofour,,,,,,,,,,,,,,,,,,,,,,,,,,,,,,,,,,,,,,,,,,,,,,,,,,,,,,,,,,,,,,,,,,,,,,,,,,,,,,,,,,,,,,,,,,,,,,,,,,,,,,,,,,,,,,,,,,,,,,,,,,,,,,,,,,,,,,,,,
,,5b09da13641b1200010eab05,2024-02-21_22h24.12.940,kallum_motion_pilot,2023.2.2,Win32,144.092219,5b09da13641b1200010eab05,65d6bb0e977760de756971f7,65d6be2e40301376a29aafdc,0.026,0.026,0,101,101,43,1,twofour,,,,,,,,,,,,,,,,,,,,,,,,,,,,,,,,,,,,,,,,,,,,,,,,,,,,,,,,,,,,,,,,,,,,,,,,,,,,,,,,,,,,,,,,,,,,,,,,,,,,,,,,,,,,,,,,,,,,,,,,,,,,,,,,,,,,,,,,,
,,5b09da13641b1200010eab05,2024-02-21_22h24.12.940,kallum_motion_pilot,2023.2.2,Win32,144.092219,5b09da13641b1200010eab05,65d6bb0e977760de756971f7,65d6be2e40301376a29aafdc,0.026,0.026,0,102,102,142,1,eightsix,,,,,,,,,,,,,,,,,,,,,,,,,,,,,,,,,,,,,,,,,,,,,,,,,,,,,,,,,,,,,,,,,,,,,,,,,,,,,,,,,,,,,,,,,,,,,,,,,,,,,,,,,,,,,,,,,,,,,,,,,,,,,,,,,,,,,,,,,
,,5b09da13641b1200010eab05,2024-02-21_22h24.12.940,kallum_motion_pilot,2023.2.2,Win32,144.092219,5b09da13641b1200010eab05,65d6bb0e977760de756971f7,65d6be2e40301376a29aafdc,0.026,0.026,0,103,103,51,1,twofour,,,,,,,,,,,,,,,,,,,,,,,,,,,,,,,,,,,,,,,,,,,,,,,,,,,,,,,,,,,,,,,,,,,,,,,,,,,,,,,,,,,,,,,,,,,,,,,,,,,,,,,,,,,,,,,,,,,,,,,,,,,,,,,,,,,,,,,,,
,,5b09da13641b1200010eab05,2024-02-21_22h24.12.940,kallum_motion_pilot,2023.2.2,Win32,144.092219,5b09da13641b1200010eab05,65d6bb0e977760de756971f7,65d6be2e40301376a29aafdc,0.026,0.026,0,104,104,136,1,fivesix,,,,,,,,,,,,,,,,,,,,,,,,,,,,,,,,,,,,,,,,,,,,,,,,,,,,,,,,,,,,,,,,,,,,,,,,,,,,,,,,,,,,,,,,,,,,,,,,,,,,,,,,,,,,,,,,,,,,,,,,,,,,,,,,,,,,,,,,,
,,5b09da13641b1200010eab05,2024-02-21_22h24.12.940,kallum_motion_pilot,2023.2.2,Win32,144.092219,5b09da13641b1200010eab05,65d6bb0e977760de756971f7,65d6be2e40301376a29aafdc,0.026,0.026,0,105,105,22,1,fourtwo,,,,,,,,,,,,,,,,,,,,,,,,,,,,,,,,,,,,,,,,,,,,,,,,,,,,,,,,,,,,,,,,,,,,,,,,,,,,,,,,,,,,,,,,,,,,,,,,,,,,,,,,,,,,,,,,,,,,,,,,,,,,,,,,,,,,,,,,,
,,5b09da13641b1200010eab05,2024-02-21_22h24.12.940,kallum_motion_pilot,2023.2.2,Win32,144.092219,5b09da13641b1200010eab05,65d6bb0e977760de756971f7,65d6be2e40301376a29aafdc,0.026,0.026,0,106,106,11,1,twofour,,,,,,,,,,,,,,,,,,,,,,,,,,,,,,,,,,,,,,,,,,,,,,,,,,,,,,,,,,,,,,,,,,,,,,,,,,,,,,,,,,,,,,,,,,,,,,,,,,,,,,,,,,,,,,,,,,,,,,,,,,,,,,,,,,,,,,,,,
,,5b09da13641b1200010eab05,2024-02-21_22h24.12.940,kallum_motion_pilot,2023.2.2,Win32,144.092219,5b09da13641b1200010eab05,65d6bb0e977760de756971f7,65d6be2e40301376a29aafdc,0.027,0.027,0,107,107,74,1,twoone,,,,,,,,,,,,,,,,,,,,,,,,,,,,,,,,,,,,,,,,,,,,,,,,,,,,,,,,,,,,,,,,,,,,,,,,,,,,,,,,,,,,,,,,,,,,,,,,,,,,,,,,,,,,,,,,,,,,,,,,,,,,,,,,,,,,,,,,,
,,5b09da13641b1200010eab05,2024-02-21_22h24.12.940,kallum_motion_pilot,2023.2.2,Win32,144.092219,5b09da13641b1200010eab05,65d6bb0e977760de756971f7,65d6be2e40301376a29aafdc,0.027,0.027,0,108,108,139,1,sixeight,,,,,,,,,,,,,,,,,,,,,,,,,,,,,,,,,,,,,,,,,,,,,,,,,,,,,,,,,,,,,,,,,,,,,,,,,,,,,,,,,,,,,,,,,,,,,,,,,,,,,,,,,,,,,,,,,,,,,,,,,,,,,,,,,,,,,,,,,
,,5b09da13641b1200010eab05,2024-02-21_22h24.12.940,kallum_motion_pilot,2023.2.2,Win32,144.092219,5b09da13641b1200010eab05,65d6bb0e977760de756971f7,65d6be2e40301376a29aafdc,0.027,0.027,0,109,109,161,1,fiveseven,,,,,,,,,,,,,,,,,,,,,,,,,,,,,,,,,,,,,,,,,,,,,,,,,,,,,,,,,,,,,,,,,,,,,,,,,,,,,,,,,,,,,,,,,,,,,,,,,,,,,,,,,,,,,,,,,,,,,,,,,,,,,,,,,,,,,,,,,
,,5b09da13641b1200010eab05,2024-02-21_22h24.12.940,kallum_motion_pilot,2023.2.2,Win32,144.092219,5b09da13641b1200010eab05,65d6bb0e977760de756971f7,65d6be2e40301376a29aafdc,0.027,0.027,0,110,110,39,1,fourthree,,,,,,,,,,,,,,,,,,,,,,,,,,,,,,,,,,,,,,,,,,,,,,,,,,,,,,,,,,,,,,,,,,,,,,,,,,,,,,,,,,,,,,,,,,,,,,,,,,,,,,,,,,,,,,,,,,,,,,,,,,,,,,,,,,,,,,,,,
,,5b09da13641b1200010eab05,2024-02-21_22h24.12.940,kallum_motion_pilot,2023.2.2,Win32,144.092219,5b09da13641b1200010eab05,65d6bb0e977760de756971f7,65d6be2e40301376a29aafdc,0.027,0.027,0,111,111,25,1,onethree,,,,,,,,,,,,,,,,,,,,,,,,,,,,,,,,,,,,,,,,,,,,,,,,,,,,,,,,,,,,,,,,,,,,,,,,,,,,,,,,,,,,,,,,,,,,,,,,,,,,,,,,,,,,,,,,,,,,,,,,,,,,,,,,,,,,,,,,,
,,5b09da13641b1200010eab05,2024-02-21_22h24.12.940,kallum_motion_pilot,2023.2.2,Win32,144.092219,5b09da13641b1200010eab05,65d6bb0e977760de756971f7,65d6be2e40301376a29aafdc,0.027,0.027,0,112,112,155,1,sixeight,,,,,,,,,,,,,,,,,,,,,,,,,,,,,,,,,,,,,,,,,,,,,,,,,,,,,,,,,,,,,,,,,,,,,,,,,,,,,,,,,,,,,,,,,,,,,,,,,,,,,,,,,,,,,,,,,,,,,,,,,,,,,,,,,,,,,,,,,
,,5b09da13641b1200010eab05,2024-02-21_22h24.12.940,kallum_motion_pilot,2023.2.2,Win32,144.092219,5b09da13641b1200010eab05,65d6bb0e977760de756971f7,65d6be2e40301376a29aafdc,0.027,0.027,0,113,113,29,1,threefour,,,,,,,,,,,,,,,,,,,,,,,,,,,,,,,,,,,,,,,,,,,,,,,,,,,,,,,,,,,,,,,,,,,,,,,,,,,,,,,,,,,,,,,,,,,,,,,,,,,,,,,,,,,,,,,,,,,,,,,,,,,,,,,,,,,,,,,,,
,,5b09da13641b1200010eab05,2024-02-21_22h24.12.940,kallum_motion_pilot,2023.2.2,Win32,144.092219,5b09da13641b1200010eab05,65d6bb0e977760de756971f7,65d6be2e40301376a29aafdc,0.027,0.027,0,114,114,98,1,sixfive,,,,,,,,,,,,,,,,,,,,,,,,,,,,,,,,,,,,,,,,,,,,,,,,,,,,,,,,,,,,,,,,,,,,,,,,,,,,,,,,,,,,,,,,,,,,,,,,,,,,,,,,,,,,,,,,,,,,,,,,,,,,,,,,,,,,,,,,,
,,5b09da13641b1200010eab05,2024-02-21_22h24.12.940,kallum_motion_pilot,2023.2.2,Win32,144.092219,5b09da13641b1200010eab05,65d6bb0e977760de756971f7,65d6be2e40301376a29aafdc,0.027,0.027,0,115,115,88,1,fivesix,,,,,,,,,,,,,,,,,,,,,,,,,,,,,,,,,,,,,,,,,,,,,,,,,,,,,,,,,,,,,,,,,,,,,,,,,,,,,,,,,,,,,,,,,,,,,,,,,,,,,,,,,,,,,,,,,,,,,,,,,,,,,,,,,,,,,,,,,
,,5b09da13641b1200010eab05,2024-02-21_22h24.12.940,kallum_motion_pilot,2023.2.2,Win32,144.092219,5b09da13641b1200010eab05,65d6bb0e977760de756971f7,65d6be2e40301376a29aafdc,0.027,0.027,0,116,116,148,1,sevenfive,,,,,,,,,,,,,,,,,,,,,,,,,,,,,,,,,,,,,,,,,,,,,,,,,,,,,,,,,,,,,,,,,,,,,,,,,,,,,,,,,,,,,,,,,,,,,,,,,,,,,,,,,,,,,,,,,,,,,,,,,,,,,,,,,,,,,,,,,
,,5b09da13641b1200010eab05,2024-02-21_22h24.12.940,kallum_motion_pilot,2023.2.2,Win32,144.092219,5b09da13641b1200010eab05,65d6bb0e977760de756971f7,65d6be2e40301376a29aafdc,0.027,0.027,0,117,117,69,1,threefour,,,,,,,,,,,,,,,,,,,,,,,,,,,,,,,,,,,,,,,,,,,,,,,,,,,,,,,,,,,,,,,,,,,,,,,,,,,,,,,,,,,,,,,,,,,,,,,,,,,,,,,,,,,,,,,,,,,,,,,,,,,,,,,,,,,,,,,,,
,,5b09da13641b1200010eab05,2024-02-21_22h24.12.940,kallum_motion_pilot,2023.2.2,Win32,144.092219,5b09da13641b1200010eab05,65d6bb0e977760de756971f7,65d6be2e40301376a29aafdc,0.027,0.027,0,118,118,47,1,fourthree,,,,,,,,,,,,,,,,,,,,,,,,,,,,,,,,,,,,,,,,,,,,,,,,,,,,,,,,,,,,,,,,,,,,,,,,,,,,,,,,,,,,,,,,,,,,,,,,,,,,,,,,,,,,,,,,,,,,,,,,,,,,,,,,,,,,,,,,,
,,5b09da13641b1200010eab05,2024-02-21_22h24.12.940,kallum_motion_pilot,2023.2.2,Win32,144.092219,5b09da13641b1200010eab05,65d6bb0e977760de756971f7,65d6be2e40301376a29aafdc,0.027,0.027,0,119,119,115,1,sixeight,,,,,,,,,,,,,,,,,,,,,,,,,,,,,,,,,,,,,,,,,,,,,,,,,,,,,,,,,,,,,,,,,,,,,,,,,,,,,,,,,,,,,,,,,,,,,,,,,,,,,,,,,,,,,,,,,,,,,,,,,,,,,,,,,,,,,,,,,
,,5b09da13641b1200010eab05,2024-02-21_22h24.12.940,kallum_motion_pilot,2023.2.2,Win32,144.092219,5b09da13641b1200010eab05,65d6bb0e977760de756971f7,65d6be2e40301376a29aafdc,0.027,0.027,0,120,120,44,1,threeone,,,,,,,,,,,,,,,,,,,,,,,,,,,,,,,,,,,,,,,,,,,,,,,,,,,,,,,,,,,,,,,,,,,,,,,,,,,,,,,,,,,,,,,,,,,,,,,,,,,,,,,,,,,,,,,,,,,,,,,,,,,,,,,,,,,,,,,,,
,,5b09da13641b1200010eab05,2024-02-21_22h24.12.940,kallum_motion_pilot,2023.2.2,Win32,144.092219,5b09da13641b1200010eab05,65d6bb0e977760de756971f7,65d6be2e40301376a29aafdc,0.027,0.027,0,121,121,17,1,onethree,,,,,,,,,,,,,,,,,,,,,,,,,,,,,,,,,,,,,,,,,,,,,,,,,,,,,,,,,,,,,,,,,,,,,,,,,,,,,,,,,,,,,,,,,,,,,,,,,,,,,,,,,,,,,,,,,,,,,,,,,,,,,,,,,,,,,,,,,
,,5b09da13641b1200010eab05,2024-02-21_22h24.12.940,kallum_motion_pilot,2023.2.2,Win32,144.092219,5b09da13641b1200010eab05,65d6bb0e977760de756971f7,65d6be2e40301376a29aafdc,0.027,0.027,0,122,122,119,1,eightseven,,,,,,,,,,,,,,,,,,,,,,,,,,,,,,,,,,,,,,,,,,,,,,,,,,,,,,,,,,,,,,,,,,,,,,,,,,,,,,,,,,,,,,,,,,,,,,,,,,,,,,,,,,,,,,,,,,,,,,,,,,,,,,,,,,,,,,,,,
,,5b09da13641b1200010eab05,2024-02-21_22h24.12.940,kallum_motion_pilot,2023.2.2,Win32,144.092219,5b09da13641b1200010eab05,65d6bb0e977760de756971f7,65d6be2e40301376a29aafdc,0.027,0.027,0,123,123,60,1,threeone,,,,,,,,,,,,,,,,,,,,,,,,,,,,,,,,,,,,,,,,,,,,,,,,,,,,,,,,,,,,,,,,,,,,,,,,,,,,,,,,,,,,,,,,,,,,,,,,,,,,,,,,,,,,,,,,,,,,,,,,,,,,,,,,,,,,,,,,,
,,5b09da13641b1200010eab05,2024-02-21_22h24.12.940,kallum_motion_pilot,2023.2.2,Win32,144.092219,5b09da13641b1200010eab05,65d6bb0e977760de756971f7,65d6be2e40301376a29aafdc,0.027,0.027,0,124,124,108,1,sevenfive,,,,,,,,,,,,,,,,,,,,,,,,,,,,,,,,,,,,,,,,,,,,,,,,,,,,,,,,,,,,,,,,,,,,,,,,,,,,,,,,,,,,,,,,,,,,,,,,,,,,,,,,,,,,,,,,,,,,,,,,,,,,,,,,,,,,,,,,,
,,5b09da13641b1200010eab05,2024-02-21_22h24.12.940,kallum_motion_pilot,2023.2.2,Win32,144.092219,5b09da13641b1200010eab05,65d6bb0e977760de756971f7,65d6be2e40301376a29aafdc,0.027,0.027,0,125,125,99,1,sixeight,,,,,,,,,,,,,,,,,,,,,,,,,,,,,,,,,,,,,,,,,,,,,,,,,,,,,,,,,,,,,,,,,,,,,,,,,,,,,,,,,,,,,,,,,,,,,,,,,,,,,,,,,,,,,,,,,,,,,,,,,,,,,,,,,,,,,,,,,
,,5b09da13641b1200010eab05,2024-02-21_22h24.12.940,kallum_motion_pilot,2023.2.2,Win32,144.092219,5b09da13641b1200010eab05,65d6bb0e977760de756971f7,65d6be2e40301376a29aafdc,0.027,0.027,0,126,126,28,1,threeone,,,,,,,,,,,,,,,,,,,,,,,,,,,,,,,,,,,,,,,,,,,,,,,,,,,,,,,,,,,,,,,,,,,,,,,,,,,,,,,,,,,,,,,,,,,,,,,,,,,,,,,,,,,,,,,,,,,,,,,,,,,,,,,,,,,,,,,,,
,,5b09da13641b1200010eab05,2024-02-21_22h24.12.940,kallum_motion_pilot,2023.2.2,Win32,144.092219,5b09da13641b1200010eab05,65d6bb0e977760de756971f7,65d6be2e40301376a29aafdc,0.027,0.027,0,127,127,65,1,onethree,,,,,,,,,,,,,,,,,,,,,,,,,,,,,,,,,,,,,,,,,,,,,,,,,,,,,,,,,,,,,,,,,,,,,,,,,,,,,,,,,,,,,,,,,,,,,,,,,,,,,,,,,,,,,,,,,,,,,,,,,,,,,,,,,,,,,,,,,
,,5b09da13641b1200010eab05,2024-02-21_22h24.12.940,kallum_motion_pilot,2023.2.2,Win32,144.092219,5b09da13641b1200010eab05,65d6bb0e977760de756971f7,65d6be2e40301376a29aafdc,0.027,0.027,0,128,128,145,1,fiveseven,,,,,,,,,,,,,,,,,,,,,,,,,,,,,,,,,,,,,,,,,,,,,,,,,,,,,,,,,,,,,,,,,,,,,,,,,,,,,,,,,,,,,,,,,,,,,,,,,,,,,,,,,,,,,,,,,,,,,,,,,,,,,,,,,,,,,,,,,
,,5b09da13641b1200010eab05,2024-02-21_22h24.12.940,kallum_motion_pilot,2023.2.2,Win32,144.092219,5b09da13641b1200010eab05,65d6bb0e977760de756971f7,65d6be2e40301376a29aafdc,0.027,0.027,0,129,129,137,1,fiveseven,,,,,,,,,,,,,,,,,,,,,,,,,,,,,,,,,,,,,,,,,,,,,,,,,,,,,,,,,,,,,,,,,,,,,,,,,,,,,,,,,,,,,,,,,,,,,,,,,,,,,,,,,,,,,,,,,,,,,,,,,,,,,,,,,,,,,,,,,
,,5b09da13641b1200010eab05,2024-02-21_22h24.12.940,kallum_motion_pilot,2023.2.2,Win32,144.092219,5b09da13641b1200010eab05,65d6bb0e977760de756971f7,65d6be2e40301376a29aafdc,0.027,0.027,0,130,130,96,1,fivesix,,,,,,,,,,,,,,,,,,,,,,,,,,,,,,,,,,,,,,,,,,,,,,,,,,,,,,,,,,,,,,,,,,,,,,,,,,,,,,,,,,,,,,,,,,,,,,,,,,,,,,,,,,,,,,,,,,,,,,,,,,,,,,,,,,,,,,,,,
,,5b09da13641b1200010eab05,2024-02-21_22h24.12.940,kallum_motion_pilot,2023.2.2,Win32,144.092219,5b09da13641b1200010eab05,65d6bb0e977760de756971f7,65d6be2e40301376a29aafdc,0.027,0.027,0,131,131,67,1,twofour,,,,,,,,,,,,,,,,,,,,,,,,,,,,,,,,,,,,,,,,,,,,,,,,,,,,,,,,,,,,,,,,,,,,,,,,,,,,,,,,,,,,,,,,,,,,,,,,,,,,,,,,,,,,,,,,,,,,,,,,,,,,,,,,,,,,,,,,,
,,5b09da13641b1200010eab05,2024-02-21_22h24.12.940,kallum_motion_pilot,2023.2.2,Win32,144.092219,5b09da13641b1200010eab05,65d6bb0e977760de756971f7,65d6be2e40301376a29aafdc,0.027,0.027,0,132,132,30,1,fourtwo,,,,,,,,,,,,,,,,,,,,,,,,,,,,,,,,,,,,,,,,,,,,,,,,,,,,,,,,,,,,,,,,,,,,,,,,,,,,,,,,,,,,,,,,,,,,,,,,,,,,,,,,,,,,,,,,,,,,,,,,,,,,,,,,,,,,,,,,,
,,5b09da13641b1200010eab05,2024-02-21_22h24.12.940,kallum_motion_pilot,2023.2.2,Win32,144.092219,5b09da13641b1200010eab05,65d6bb0e977760de756971f7,65d6be2e40301376a29aafdc,0.027,0.027,0,133,133,144,1,fivesix,,,,,,,,,,,,,,,,,,,,,,,,,,,,,,,,,,,,,,,,,,,,,,,,,,,,,,,,,,,,,,,,,,,,,,,,,,,,,,,,,,,,,,,,,,,,,,,,,,,,,,,,,,,,,,,,,,,,,,,,,,,,,,,,,,,,,,,,,
,,5b09da13641b1200010eab05,2024-02-21_22h24.12.940,kallum_motion_pilot,2023.2.2,Win32,144.092219,5b09da13641b1200010eab05,65d6bb0e977760de756971f7,65d6be2e40301376a29aafdc,0.027,0.027,0,134,134,106,1,sixfive,,,,,,,,,,,,,,,,,,,,,,,,,,,,,,,,,,,,,,,,,,,,,,,,,,,,,,,,,,,,,,,,,,,,,,,,,,,,,,,,,,,,,,,,,,,,,,,,,,,,,,,,,,,,,,,,,,,,,,,,,,,,,,,,,,,,,,,,,
,,5b09da13641b1200010eab05,2024-02-21_22h24.12.940,kallum_motion_pilot,2023.2.2,Win32,144.092219,5b09da13641b1200010eab05,65d6bb0e977760de756971f7,65d6be2e40301376a29aafdc,0.027,0.027,0,135,135,86,1,eightsix,,,,,,,,,,,,,,,,,,,,,,,,,,,,,,,,,,,,,,,,,,,,,,,,,,,,,,,,,,,,,,,,,,,,,,,,,,,,,,,,,,,,,,,,,,,,,,,,,,,,,,,,,,,,,,,,,,,,,,,,,,,,,,,,,,,,,,,,,
,,5b09da13641b1200010eab05,2024-02-21_22h24.12.940,kallum_motion_pilot,2023.2.2,Win32,144.092219,5b09da13641b1200010eab05,65d6bb0e977760de756971f7,65d6be2e40301376a29aafdc,0.027,0.027,0,136,136,58,1,twoone,,,,,,,,,,,,,,,,,,,,,,,,,,,,,,,,,,,,,,,,,,,,,,,,,,,,,,,,,,,,,,,,,,,,,,,,,,,,,,,,,,,,,,,,,,,,,,,,,,,,,,,,,,,,,,,,,,,,,,,,,,,,,,,,,,,,,,,,,
,,5b09da13641b1200010eab05,2024-02-21_22h24.12.940,kallum_motion_pilot,2023.2.2,Win32,144.092219,5b09da13641b1200010eab05,65d6bb0e977760de756971f7,65d6be2e40301376a29aafdc,0.027,0.027,0,137,137,83,1,sixeight,,,,,,,,,,,,,,,,,,,,,,,,,,,,,,,,,,,,,,,,,,,,,,,,,,,,,,,,,,,,,,,,,,,,,,,,,,,,,,,,,,,,,,,,,,,,,,,,,,,,,,,,,,,,,,,,,,,,,,,,,,,,,,,,,,,,,,,,,
,,5b09da13641b1200010eab05,2024-02-21_22h24.12.940,kallum_motion_pilot,2023.2.2,Win32,144.092219,5b09da13641b1200010eab05,65d6bb0e977760de756971f7,65d6be2e40301376a29aafdc,0.027,0.027,0,138,138,89,1,fiveseven,,,,,,,,,,,,,,,,,,,,,,,,,,,,,,,,,,,,,,,,,,,,,,,,,,,,,,,,,,,,,,,,,,,,,,,,,,,,,,,,,,,,,,,,,,,,,,,,,,,,,,,,,,,,,,,,,,,,,,,,,,,,,,,,,,,,,,,,,
,,5b09da13641b1200010eab05,2024-02-21_22h24.12.940,kallum_motion_pilot,2023.2.2,Win32,144.092219,5b09da13641b1200010eab05,65d6bb0e977760de756971f7,65d6be2e40301376a29aafdc,0.028,0.028,0,139,139,143,1,eightseven,,,,,,,,,,,,,,,,,,,,,,,,,,,,,,,,,,,,,,,,,,,,,,,,,,,,,,,,,,,,,,,,,,,,,,,,,,,,,,,,,,,,,,,,,,,,,,,,,,,,,,,,,,,,,,,,,,,,,,,,,,,,,,,,,,,,,,,,,
,,5b09da13641b1200010eab05,2024-02-21_22h24.12.940,kallum_motion_pilot,2023.2.2,Win32,144.092219,5b09da13641b1200010eab05,65d6bb0e977760de756971f7,65d6be2e40301376a29aafdc,0.028,0.028,0,140,140,112,1,fivesix,,,,,,,,,,,,,,,,,,,,,,,,,,,,,,,,,,,,,,,,,,,,,,,,,,,,,,,,,,,,,,,,,,,,,,,,,,,,,,,,,,,,,,,,,,,,,,,,,,,,,,,,,,,,,,,,,,,,,,,,,,,,,,,,,,,,,,,,,
,,5b09da13641b1200010eab05,2024-02-21_22h24.12.940,kallum_motion_pilot,2023.2.2,Win32,144.092219,5b09da13641b1200010eab05,65d6bb0e977760de756971f7,65d6be2e40301376a29aafdc,0.028,0.028,0,141,141,156,1,sevenfive,,,,,,,,,,,,,,,,,,,,,,,,,,,,,,,,,,,,,,,,,,,,,,,,,,,,,,,,,,,,,,,,,,,,,,,,,,,,,,,,,,,,,,,,,,,,,,,,,,,,,,,,,,,,,,,,,,,,,,,,,,,,,,,,,,,,,,,,,
,,5b09da13641b1200010eab05,2024-02-21_22h24.12.940,kallum_motion_pilot,2023.2.2,Win32,144.092219,5b09da13641b1200010eab05,65d6bb0e977760de756971f7,65d6be2e40301376a29aafdc,0.028,0.028,0,142,142,147,1,sixeight,,,,,,,,,,,,,,,,,,,,,,,,,,,,,,,,,,,,,,,,,,,,,,,,,,,,,,,,,,,,,,,,,,,,,,,,,,,,,,,,,,,,,,,,,,,,,,,,,,,,,,,,,,,,,,,,,,,,,,,,,,,,,,,,,,,,,,,,,
,,5b09da13641b1200010eab05,2024-02-21_22h24.12.940,kallum_motion_pilot,2023.2.2,Win32,144.092219,5b09da13641b1200010eab05,65d6bb0e977760de756971f7,65d6be2e40301376a29aafdc,0.028,0.028,0,143,143,87,1,eightseven,,,,,,,,,,,,,,,,,,,,,,,,,,,,,,,,,,,,,,,,,,,,,,,,,,,,,,,,,,,,,,,,,,,,,,,,,,,,,,,,,,,,,,,,,,,,,,,,,,,,,,,,,,,,,,,,,,,,,,,,,,,,,,,,,,,,,,,,,
,,5b09da13641b1200010eab05,2024-02-21_22h24.12.940,kallum_motion_pilot,2023.2.2,Win32,144.092219,5b09da13641b1200010eab05,65d6bb0e977760de756971f7,65d6be2e40301376a29aafdc,0.028,0.028,0,144,144,82,1,sixfive,,,,,,,,,,,,,,,,,,,,,,,,,,,,,,,,,,,,,,,,,,,,,,,,,,,,,,,,,,,,,,,,,,,,,,,,,,,,,,,,,,,,,,,,,,,,,,,,,,,,,,,,,,,,,,,,,,,,,,,,,,,,,,,,,,,,,,,,,
,,5b09da13641b1200010eab05,2024-02-21_22h24.12.940,kallum_motion_pilot,2023.2.2,Win32,144.092219,5b09da13641b1200010eab05,65d6bb0e977760de756971f7,65d6be2e40301376a29aafdc,0.028,0.028,0,145,145,134,1,eightsix,,,,,,,,,,,,,,,,,,,,,,,,,,,,,,,,,,,,,,,,,,,,,,,,,,,,,,,,,,,,,,,,,,,,,,,,,,,,,,,,,,,,,,,,,,,,,,,,,,,,,,,,,,,,,,,,,,,,,,,,,,,,,,,,,,,,,,,,,
,,5b09da13641b1200010eab05,2024-02-21_22h24.12.940,kallum_motion_pilot,2023.2.2,Win32,144.092219,5b09da13641b1200010eab05,65d6bb0e977760de756971f7,65d6be2e40301376a29aafdc,0.028,0.028,0,146,146,55,1,fourthree,,,,,,,,,,,,,,,,,,,,,,,,,,,,,,,,,,,,,,,,,,,,,,,,,,,,,,,,,,,,,,,,,,,,,,,,,,,,,,,,,,,,,,,,,,,,,,,,,,,,,,,,,,,,,,,,,,,,,,,,,,,,,,,,,,,,,,,,,
,,5b09da13641b1200010eab05,2024-02-21_22h24.12.940,kallum_motion_pilot,2023.2.2,Win32,144.092219,5b09da13641b1200010eab05,65d6bb0e977760de756971f7,65d6be2e40301376a29aafdc,0.028,0.028,0,147,147,151,1,eightseven,,,,,,,,,,,,,,,,,,,,,,,,,,,,,,,,,,,,,,,,,,,,,,,,,,,,,,,,,,,,,,,,,,,,,,,,,,,,,,,,,,,,,,,,,,,,,,,,,,,,,,,,,,,,,,,,,,,,,,,,,,,,,,,,,,,,,,,,,
,,5b09da13641b1200010eab05,2024-02-21_22h24.12.940,kallum_motion_pilot,2023.2.2,Win32,144.092219,5b09da13641b1200010eab05,65d6bb0e977760de756971f7,65d6be2e40301376a29aafdc,0.028,0.028,0,148,148,104,1,fivesix,,,,,,,,,,,,,,,,,,,,,,,,,,,,,,,,,,,,,,,,,,,,,,,,,,,,,,,,,,,,,,,,,,,,,,,,,,,,,,,,,,,,,,,,,,,,,,,,,,,,,,,,,,,,,,,,,,,,,,,,,,,,,,,,,,,,,,,,,
,,5b09da13641b1200010eab05,2024-02-21_22h24.12.940,kallum_motion_pilot,2023.2.2,Win32,144.092219,5b09da13641b1200010eab05,65d6bb0e977760de756971f7,65d6be2e40301376a29aafdc,0.028,0.028,0,149,149,153,1,fiveseven,,,,,,,,,,,,,,,,,,,,,,,,,,,,,,,,,,,,,,,,,,,,,,,,,,,,,,,,,,,,,,,,,,,,,,,,,,,,,,,,,,,,,,,,,,,,,,,,,,,,,,,,,,,,,,,,,,,,,,,,,,,,,,,,,,,,,,,,,
,,5b09da13641b1200010eab05,2024-02-21_22h24.12.940,kallum_motion_pilot,2023.2.2,Win32,144.092219,5b09da13641b1200010eab05,65d6bb0e977760de756971f7,65d6be2e40301376a29aafdc,0.028,0.028,0,150,150,72,1,onetwo,,,,,,,,,,,,,,,,,,,,,,,,,,,,,,,,,,,,,,,,,,,,,,,,,,,,,,,,,,,,,,,,,,,,,,,,,,,,,,,,,,,,,,,,,,,,,,,,,,,,,,,,,,,,,,,,,,,,,,,,,,,,,,,,,,,,,,,,,
,,5b09da13641b1200010eab05,2024-02-21_22h24.12.940,kallum_motion_pilot,2023.2.2,Win32,144.092219,5b09da13641b1200010eab05,65d6bb0e977760de756971f7,65d6be2e40301376a29aafdc,0.028,0.028,0,151,151,41,1,onethree,,,,,,,,,,,,,,,,,,,,,,,,,,,,,,,,,,,,,,,,,,,,,,,,,,,,,,,,,,,,,,,,,,,,,,,,,,,,,,,,,,,,,,,,,,,,,,,,,,,,,,,,,,,,,,,,,,,,,,,,,,,,,,,,,,,,,,,,,
,,5b09da13641b1200010eab05,2024-02-21_22h24.12.940,kallum_motion_pilot,2023.2.2,Win32,144.092219,5b09da13641b1200010eab05,65d6bb0e977760de756971f7,65d6be2e40301376a29aafdc,0.028,0.028,0,152,152,128,1,fivesix,,,,,,,,,,,,,,,,,,,,,,,,,,,,,,,,,,,,,,,,,,,,,,,,,,,,,,,,,,,,,,,,,,,,,,,,,,,,,,,,,,,,,,,,,,,,,,,,,,,,,,,,,,,,,,,,,,,,,,,,,,,,,,,,,,,,,,,,,
,,5b09da13641b1200010eab05,2024-02-21_22h24.12.940,kallum_motion_pilot,2023.2.2,Win32,144.092219,5b09da13641b1200010eab05,65d6bb0e977760de756971f7,65d6be2e40301376a29aafdc,0.028,0.028,0,153,153,158,1,eightsix,,,,,,,,,,,,,,,,,,,,,,,,,,,,,,,,,,,,,,,,,,,,,,,,,,,,,,,,,,,,,,,,,,,,,,,,,,,,,,,,,,,,,,,,,,,,,,,,,,,,,,,,,,,,,,,,,,,,,,,,,,,,,,,,,,,,,,,,,
,,5b09da13641b1200010eab05,2024-02-21_22h24.12.940,kallum_motion_pilot,2023.2.2,Win32,144.092219,5b09da13641b1200010eab05,65d6bb0e977760de756971f7,65d6be2e40301376a29aafdc,0.028,0.028,0,154,154,81,1,fiveseven,,,,,,,,,,,,,,,,,,,,,,,,,,,,,,,,,,,,,,,,,,,,,,,,,,,,,,,,,,,,,,,,,,,,,,,,,,,,,,,,,,,,,,,,,,,,,,,,,,,,,,,,,,,,,,,,,,,,,,,,,,,,,,,,,,,,,,,,,
,,5b09da13641b1200010eab05,2024-02-21_22h24.12.940,kallum_motion_pilot,2023.2.2,Win32,144.092219,5b09da13641b1200010eab05,65d6bb0e977760de756971f7,65d6be2e40301376a29aafdc,0.028,0.028,0,155,155,48,1,onetwo,,,,,,,,,,,,,,,,,,,,,,,,,,,,,,,,,,,,,,,,,,,,,,,,,,,,,,,,,,,,,,,,,,,,,,,,,,,,,,,,,,,,,,,,,,,,,,,,,,,,,,,,,,,,,,,,,,,,,,,,,,,,,,,,,,,,,,,,,
,,5b09da13641b1200010eab05,2024-02-21_22h24.12.940,kallum_motion_pilot,2023.2.2,Win32,144.092219,5b09da13641b1200010eab05,65d6bb0e977760de756971f7,65d6be2e40301376a29aafdc,0.028,0.028,0,156,156,157,1,seveneight,,,,,,,,,,,,,,,,,,,,,,,,,,,,,,,,,,,,,,,,,,,,,,,,,,,,,,,,,,,,,,,,,,,,,,,,,,,,,,,,,,,,,,,,,,,,,,,,,,,,,,,,,,,,,,,,,,,,,,,,,,,,,,,,,,,,,,,,,
,,5b09da13641b1200010eab05,2024-02-21_22h24.12.940,kallum_motion_pilot,2023.2.2,Win32,144.092219,5b09da13641b1200010eab05,65d6bb0e977760de756971f7,65d6be2e40301376a29aafdc,0.028,0.028,0,157,157,26,1,twoone,,,,,,,,,,,,,,,,,,,,,,,,,,,,,,,,,,,,,,,,,,,,,,,,,,,,,,,,,,,,,,,,,,,,,,,,,,,,,,,,,,,,,,,,,,,,,,,,,,,,,,,,,,,,,,,,,,,,,,,,,,,,,,,,,,,,,,,,,
,,5b09da13641b1200010eab05,2024-02-21_22h24.12.940,kallum_motion_pilot,2023.2.2,Win32,144.092219,5b09da13641b1200010eab05,65d6bb0e977760de756971f7,65d6be2e40301376a29aafdc,0.028,0.028,0,158,158,101,1,seveneight,,,,,,,,,,,,,,,,,,,,,,,,,,,,,,,,,,,,,,,,,,,,,,,,,,,,,,,,,,,,,,,,,,,,,,,,,,,,,,,,,,,,,,,,,,,,,,,,,,,,,,,,,,,,,,,,,,,,,,,,,,,,,,,,,,,,,,,,,
,,5b09da13641b1200010eab05,2024-02-21_22h24.12.940,kallum_motion_pilot,2023.2.2,Win32,144.092219,5b09da13641b1200010eab05,65d6bb0e977760de756971f7,65d6be2e40301376a29aafdc,0.028,0.028,0,159,159,59,1,twofour,,,,,,,,,,,,,,,,,,,,,,,,,,,,,,,,,,,,,,,,,,,,,,,,,,,,,,,,,,,,,,,,,,,,,,,,,,,,,,,,,,,,,,,,,,,,,,,,,,,,,,,,,,,,,,,,,,,,,,,,,,,,,,,,,,,,,,,,,
,,5b09da13641b1200010eab05,2024-02-21_22h24.12.940,kallum_motion_pilot,2023.2.2,Win32,144.092219,5b09da13641b1200010eab05,65d6bb0e977760de756971f7,65d6be2e40301376a29aafdc,0.028,0.028,0,160,160,64,1,onetwo,,,,,,,,,,,,,,,,,,,,,,,,,,,,,,,,,,,,,,,,,,,,,,,,,,,,,,,,,,,,,,,,,,,,,,,,,,,,,,,,,,,,,,,,,,,,,,,,,,,,,,,,,,,,,,,,,,,,,,,,,,,,,,,,,,,,,,,,,
,,5b09da13641b1200010eab05,2024-02-21_22h24.12.940,kallum_motion_pilot,2023.2.2,Win32,144.092219,5b09da13641b1200010eab05,65d6bb0e977760de756971f7,65d6be2e40301376a29aafdc,0.029,0.029,0,161,161,126,1,eightsix,,,,,,,,,,,,,,,,,,,,,,,,,,,,,,,,,,,,,,,,,,,,,,,,,,,,,,,,,,,,,,,,,,,,,,,,,,,,,,,,,,,,,,,,,,,,,,,,,,,,,,,,,,,,,,,,,,,,,,,,,,,,,,,,,,,,,,,,,
,,5b09da13641b1200010eab05,2024-02-21_22h24.12.940,kallum_motion_pilot,2023.2.2,Win32,144.092219,5b09da13641b1200010eab05,65d6bb0e977760de756971f7,65d6be2e40301376a29aafdc,0.029,0.029,1,0,162,94,1,eightsix,,,,,,,,,,,,,,,,,,,,,,,,,,,,,,,,,,,,,,,,,,,,,,,,,,,,,,,,,,,,,,,,,,,,,,,,,,,,,,,,,,,,,,,,,,,,,,,,,,,,,,,,,,,,,,,,,,,,,,,,,,,,,,,,,,,,,,,,,
,,5b09da13641b1200010eab05,2024-02-21_22h24.12.940,kallum_motion_pilot,2023.2.2,Win32,144.092219,5b09da13641b1200010eab05,65d6bb0e977760de756971f7,65d6be2e40301376a29aafdc,0.029,0.029,1,1,163,84,1,sevenfive,,,,,,,,,,,,,,,,,,,,,,,,,,,,,,,,,,,,,,,,,,,,,,,,,,,,,,,,,,,,,,,,,,,,,,,,,,,,,,,,,,,,,,,,,,,,,,,,,,,,,,,,,,,,,,,,,,,,,,,,,,,,,,,,,,,,,,,,,
,,5b09da13641b1200010eab05,2024-02-21_22h24.12.940,kallum_motion_pilot,2023.2.2,Win32,144.092219,5b09da13641b1200010eab05,65d6bb0e977760de756971f7,65d6be2e40301376a29aafdc,0.029,0.029,1,2,164,49,1,onethree,,,,,,,,,,,,,,,,,,,,,,,,,,,,,,,,,,,,,,,,,,,,,,,,,,,,,,,,,,,,,,,,,,,,,,,,,,,,,,,,,,,,,,,,,,,,,,,,,,,,,,,,,,,,,,,,,,,,,,,,,,,,,,,,,,,,,,,,,
,,5b09da13641b1200010eab05,2024-02-21_22h24.12.940,kallum_motion_pilot,2023.2.2,Win32,144.092219,5b09da13641b1200010eab05,65d6bb0e977760de756971f7,65d6be2e40301376a29aafdc,0.029,0.029,1,3,165,36,1,threeone,,,,,,,,,,,,,,,,,,,,,,,,,,,,,,,,,,,,,,,,,,,,,,,,,,,,,,,,,,,,,,,,,,,,,,,,,,,,,,,,,,,,,,,,,,,,,,,,,,,,,,,,,,,,,,,,,,,,,,,,,,,,,,,,,,,,,,,,,
,,5b09da13641b1200010eab05,2024-02-21_22h24.12.940,kallum_motion_pilot,2023.2.2,Win32,144.092219,5b09da13641b1200010eab05,65d6bb0e977760de756971f7,65d6be2e40301376a29aafdc,0.029,0.029,1,4,166,149,1,seveneight,,,,,,,,,,,,,,,,,,,,,,,,,,,,,,,,,,,,,,,,,,,,,,,,,,,,,,,,,,,,,,,,,,,,,,,,,,,,,,,,,,,,,,,,,,,,,,,,,,,,,,,,,,,,,,,,,,,,,,,,,,,,,,,,,,,,,,,,,
,,5b09da13641b1200010eab05,2024-02-21_22h24.12.940,kallum_motion_pilot,2023.2.2,Win32,144.092219,5b09da13641b1200010eab05,65d6bb0e977760de756971f7,65d6be2e40301376a29aafdc,0.029,0.029,1,5,167,120,1,fivesix,,,,,,,,,,,,,,,,,,,,,,,,,,,,,,,,,,,,,,,,,,,,,,,,,,,,,,,,,,,,,,,,,,,,,,,,,,,,,,,,,,,,,,,,,,,,,,,,,,,,,,,,,,,,,,,,,,,,,,,,,,,,,,,,,,,,,,,,,
,,5b09da13641b1200010eab05,2024-02-21_22h24.12.940,kallum_motion_pilot,2023.2.2,Win32,144.092219,5b09da13641b1200010eab05,65d6bb0e977760de756971f7,65d6be2e40301376a29aafdc,0.029,0.029,1,6,168,153,1,fiveseven,,,,,,,,,,,,,,,,,,,,,,,,,,,,,,,,,,,,,,,,,,,,,,,,,,,,,,,,,,,,,,,,,,,,,,,,,,,,,,,,,,,,,,,,,,,,,,,,,,,,,,,,,,,,,,,,,,,,,,,,,,,,,,,,,,,,,,,,,
,,5b09da13641b1200010eab05,2024-02-21_22h24.12.940,kallum_motion_pilot,2023.2.2,Win32,144.092219,5b09da13641b1200010eab05,65d6bb0e977760de756971f7,65d6be2e40301376a29aafdc,0.029,0.029,1,7,169,3,1,twofour,,,,,,,,,,,,,,,,,,,,,,,,,,,,,,,,,,,,,,,,,,,,,,,,,,,,,,,,,,,,,,,,,,,,,,,,,,,,,,,,,,,,,,,,,,,,,,,,,,,,,,,,,,,,,,,,,,,,,,,,,,,,,,,,,,,,,,,,,
,,5b09da13641b1200010eab05,2024-02-21_22h24.12.940,kallum_motion_pilot,2023.2.2,Win32,144.092219,5b09da13641b1200010eab05,65d6bb0e977760de756971f7,65d6be2e40301376a29aafdc,0.029,0.029,1,8,170,110,1,eightsix,,,,,,,,,,,,,,,,,,,,,,,,,,,,,,,,,,,,,,,,,,,,,,,,,,,,,,,,,,,,,,,,,,,,,,,,,,,,,,,,,,,,,,,,,,,,,,,,,,,,,,,,,,,,,,,,,,,,,,,,,,,,,,,,,,,,,,,,,
,,5b09da13641b1200010eab05,2024-02-21_22h24.12.940,kallum_motion_pilot,2023.2.2,Win32,144.092219,5b09da13641b1200010eab05,65d6bb0e977760de756971f7,65d6be2e40301376a29aafdc,0.029,0.029,1,9,171,142,1,eightsix,,,,,,,,,,,,,,,,,,,,,,,,,,,,,,,,,,,,,,,,,,,,,,,,,,,,,,,,,,,,,,,,,,,,,,,,,,,,,,,,,,,,,,,,,,,,,,,,,,,,,,,,,,,,,,,,,,,,,,,,,,,,,,,,,,,,,,,,,
,,5b09da13641b1200010eab05,2024-02-21_22h24.12.940,kallum_motion_pilot,2023.2.2,Win32,144.092219,5b09da13641b1200010eab05,65d6bb0e977760de756971f7,65d6be2e40301376a29aafdc,0.029,0.029,1,10,172,144,1,fivesix,,,,,,,,,,,,,,,,,,,,,,,,,,,,,,,,,,,,,,,,,,,,,,,,,,,,,,,,,,,,,,,,,,,,,,,,,,,,,,,,,,,,,,,,,,,,,,,,,,,,,,,,,,,,,,,,,,,,,,,,,,,,,,,,,,,,,,,,,
,,5b09da13641b1200010eab05,2024-02-21_22h24.12.940,kallum_motion_pilot,2023.2.2,Win32,144.092219,5b09da13641b1200010eab05,65d6bb0e977760de756971f7,65d6be2e40301376a29aafdc,0.029,0.029,1,11,173,15,1,fourthree,,,,,,,,,,,,,,,,,,,,,,,,,,,,,,,,,,,,,,,,,,,,,,,,,,,,,,,,,,,,,,,,,,,,,,,,,,,,,,,,,,,,,,,,,,,,,,,,,,,,,,,,,,,,,,,,,,,,,,,,,,,,,,,,,,,,,,,,,
,,5b09da13641b1200010eab05,2024-02-21_22h24.12.940,kallum_motion_pilot,2023.2.2,Win32,144.092219,5b09da13641b1200010eab05,65d6bb0e977760de756971f7,65d6be2e40301376a29aafdc,0.029,0.029,1,12,174,157,1,seveneight,,,,,,,,,,,,,,,,,,,,,,,,,,,,,,,,,,,,,,,,,,,,,,,,,,,,,,,,,,,,,,,,,,,,,,,,,,,,,,,,,,,,,,,,,,,,,,,,,,,,,,,,,,,,,,,,,,,,,,,,,,,,,,,,,,,,,,,,,
,,5b09da13641b1200010eab05,2024-02-21_22h24.12.940,kallum_motion_pilot,2023.2.2,Win32,144.092219,5b09da13641b1200010eab05,65d6bb0e977760de756971f7,65d6be2e40301376a29aafdc,0.029,0.029,1,13,175,88,1,fivesix,,,,,,,,,,,,,,,,,,,,,,,,,,,,,,,,,,,,,,,,,,,,,,,,,,,,,,,,,,,,,,,,,,,,,,,,,,,,,,,,,,,,,,,,,,,,,,,,,,,,,,,,,,,,,,,,,,,,,,,,,,,,,,,,,,,,,,,,,
,,5b09da13641b1200010eab05,2024-02-21_22h24.12.940,kallum_motion_pilot,2023.2.2,Win32,144.092219,5b09da13641b1200010eab05,65d6bb0e977760de756971f7,65d6be2e40301376a29aafdc,0.029,0.029,1,14,176,130,1,sixfive,,,,,,,,,,,,,,,,,,,,,,,,,,,,,,,,,,,,,,,,,,,,,,,,,,,,,,,,,,,,,,,,,,,,,,,,,,,,,,,,,,,,,,,,,,,,,,,,,,,,,,,,,,,,,,,,,,,,,,,,,,,,,,,,,,,,,,,,,
,,5b09da13641b1200010eab05,2024-02-21_22h24.12.940,kallum_motion_pilot,2023.2.2,Win32,144.092219,5b09da13641b1200010eab05,65d6bb0e977760de756971f7,65d6be2e40301376a29aafdc,0.029,0.029,1,15,177,146,1,sixfive,,,,,,,,,,,,,,,,,,,,,,,,,,,,,,,,,,,,,,,,,,,,,,,,,,,,,,,,,,,,,,,,,,,,,,,,,,,,,,,,,,,,,,,,,,,,,,,,,,,,,,,,,,,,,,,,,,,,,,,,,,,,,,,,,,,,,,,,,
,,5b09da13641b1200010eab05,2024-02-21_22h24.12.940,kallum_motion_pilot,2023.2.2,Win32,144.092219,5b09da13641b1200010eab05,65d6bb0e977760de756971f7,65d6be2e40301376a29aafdc,0.029,0.029,1,16,178,109,1,seveneight,,,,,,,,,,,,,,,,,,,,,,,,,,,,,,,,,,,,,,,,,,,,,,,,,,,,,,,,,,,,,,,,,,,,,,,,,,,,,,,,,,,,,,,,,,,,,,,,,,,,,,,,,,,,,,,,,,,,,,,,,,,,,,,,,,,,,,,,,
,,5b09da13641b1200010eab05,2024-02-21_22h24.12.940,kallum_motion_pilot,2023.2.2,Win32,144.092219,5b09da13641b1200010eab05,65d6bb0e977760de756971f7,65d6be2e40301376a29aafdc,0.029,0.029,1,17,179,48,1,onetwo,,,,,,,,,,,,,,,,,,,,,,,,,,,,,,,,,,,,,,,,,,,,,,,,,,,,,,,,,,,,,,,,,,,,,,,,,,,,,,,,,,,,,,,,,,,,,,,,,,,,,,,,,,,,,,,,,,,,,,,,,,,,,,,,,,,,,,,,,
,,5b09da13641b1200010eab05,2024-02-21_22h24.12.940,kallum_motion_pilot,2023.2.2,Win32,144.092219,5b09da13641b1200010eab05,65d6bb0e977760de756971f7,65d6be2e40301376a29aafdc,0.029,0.029,1,18,180,32,1,onetwo,,,,,,,,,,,,,,,,,,,,,,,,,,,,,,,,,,,,,,,,,,,,,,,,,,,,,,,,,,,,,,,,,,,,,,,,,,,,,,,,,,,,,,,,,,,,,,,,,,,,,,,,,,,,,,,,,,,,,,,,,,,,,,,,,,,,,,,,,
,,5b09da13641b1200010eab05,2024-02-21_22h24.12.940,kallum_motion_pilot,2023.2.2,Win32,144.092219,5b09da13641b1200010eab05,65d6bb0e977760de756971f7,65d6be2e40301376a29aafdc,0.029,0.029,1,19,181,67,1,twofour,,,,,,,,,,,,,,,,,,,,,,,,,,,,,,,,,,,,,,,,,,,,,,,,,,,,,,,,,,,,,,,,,,,,,,,,,,,,,,,,,,,,,,,,,,,,,,,,,,,,,,,,,,,,,,,,,,,,,,,,,,,,,,,,,,,,,,,,,
,,5b09da13641b1200010eab05,2024-02-21_22h24.12.940,kallum_motion_pilot,2023.2.2,Win32,144.092219,5b09da13641b1200010eab05,65d6bb0e977760de756971f7,65d6be2e40301376a29aafdc,0.029,0.029,1,20,182,135,1,eightseven,,,,,,,,,,,,,,,,,,,,,,,,,,,,,,,,,,,,,,,,,,,,,,,,,,,,,,,,,,,,,,,,,,,,,,,,,,,,,,,,,,,,,,,,,,,,,,,,,,,,,,,,,,,,,,,,,,,,,,,,,,,,,,,,,,,,,,,,,
,,5b09da13641b1200010eab05,2024-02-21_22h24.12.940,kallum_motion_pilot,2023.2.2,Win32,144.092219,5b09da13641b1200010eab05,65d6bb0e977760de756971f7,65d6be2e40301376a29aafdc,0.029,0.03,1,21,183,16,1,onetwo,,,,,,,,,,,,,,,,,,,,,,,,,,,,,,,,,,,,,,,,,,,,,,,,,,,,,,,,,,,,,,,,,,,,,,,,,,,,,,,,,,,,,,,,,,,,,,,,,,,,,,,,,,,,,,,,,,,,,,,,,,,,,,,,,,,,,,,,,
,,5b09da13641b1200010eab05,2024-02-21_22h24.12.940,kallum_motion_pilot,2023.2.2,Win32,144.092219,5b09da13641b1200010eab05,65d6bb0e977760de756971f7,65d6be2e40301376a29aafdc,0.03,0.03,1,22,184,131,1,sixeight,,,,,,,,,,,,,,,,,,,,,,,,,,,,,,,,,,,,,,,,,,,,,,,,,,,,,,,,,,,,,,,,,,,,,,,,,,,,,,,,,,,,,,,,,,,,,,,,,,,,,,,,,,,,,,,,,,,,,,,,,,,,,,,,,,,,,,,,,
,,5b09da13641b1200010eab05,2024-02-21_22h24.12.940,kallum_motion_pilot,2023.2.2,Win32,144.092219,5b09da13641b1200010eab05,65d6bb0e977760de756971f7,65d6be2e40301376a29aafdc,0.03,0.03,1,23,185,80,1,fivesix,,,,,,,,,,,,,,,,,,,,,,,,,,,,,,,,,,,,,,,,,,,,,,,,,,,,,,,,,,,,,,,,,,,,,,,,,,,,,,,,,,,,,,,,,,,,,,,,,,,,,,,,,,,,,,,,,,,,,,,,,,,,,,,,,,,,,,,,,
,,5b09da13641b1200010eab05,2024-02-21_22h24.12.940,kallum_motion_pilot,2023.2.2,Win32,144.092219,5b09da13641b1200010eab05,65d6bb0e977760de756971f7,65d6be2e40301376a29aafdc,0.03,0.03,1,24,186,21,1,threefour,,,,,,,,,,,,,,,,,,,,,,,,,,,,,,,,,,,,,,,,,,,,,,,,,,,,,,,,,,,,,,,,,,,,,,,,,,,,,,,,,,,,,,,,,,,,,,,,,,,,,,,,,,,,,,,,,,,,,,,,,,,,,,,,,,,,,,,,,
,,5b09da13641b1200010eab05,2024-02-21_22h24.12.940,kallum_motion_pilot,2023.2.2,Win32,144.092219,5b09da13641b1200010eab05,65d6bb0e977760de756971f7,65d6be2e40301376a29aafdc,0.03,0.03,1,25,187,2,1,twoone,,,,,,,,,,,,,,,,,,,,,,,,,,,,,,,,,,,,,,,,,,,,,,,,,,,,,,,,,,,,,,,,,,,,,,,,,,,,,,,,,,,,,,,,,,,,,,,,,,,,,,,,,,,,,,,,,,,,,,,,,,,,,,,,,,,,,,,,,
,,5b09da13641b1200010eab05,2024-02-21_22h24.12.940,kallum_motion_pilot,2023.2.2,Win32,144.092219,5b09da13641b1200010eab05,65d6bb0e977760de756971f7,65d6be2e40301376a29aafdc,0.03,0.03,1,26,188,35,1,twofour,,,,,,,,,,,,,,,,,,,,,,,,,,,,,,,,,,,,,,,,,,,,,,,,,,,,,,,,,,,,,,,,,,,,,,,,,,,,,,,,,,,,,,,,,,,,,,,,,,,,,,,,,,,,,,,,,,,,,,,,,,,,,,,,,,,,,,,,,
,,5b09da13641b1200010eab05,2024-02-21_22h24.12.940,kallum_motion_pilot,2023.2.2,Win32,144.092219,5b09da13641b1200010eab05,65d6bb0e977760de756971f7,65d6be2e40301376a29aafdc,0.03,0.03,1,27,189,111,1,eightseven,,,,,,,,,,,,,,,,,,,,,,,,,,,,,,,,,,,,,,,,,,,,,,,,,,,,,,,,,,,,,,,,,,,,,,,,,,,,,,,,,,,,,,,,,,,,,,,,,,,,,,,,,,,,,,,,,,,,,,,,,,,,,,,,,,,,,,,,,
,,5b09da13641b1200010eab05,2024-02-21_22h24.12.940,kallum_motion_pilot,2023.2.2,Win32,144.092219,5b09da13641b1200010eab05,65d6bb0e977760de756971f7,65d6be2e40301376a29aafdc,0.03,0.03,1,28,190,98,1,sixfive,,,,,,,,,,,,,,,,,,,,,,,,,,,,,,,,,,,,,,,,,,,,,,,,,,,,,,,,,,,,,,,,,,,,,,,,,,,,,,,,,,,,,,,,,,,,,,,,,,,,,,,,,,,,,,,,,,,,,,,,,,,,,,,,,,,,,,,,,
,,5b09da13641b1200010eab05,2024-02-21_22h24.12.940,kallum_motion_pilot,2023.2.2,Win32,144.092219,5b09da13641b1200010eab05,65d6bb0e977760de756971f7,65d6be2e40301376a29aafdc,0.03,0.03,1,29,191,141,1,seveneight,,,,,,,,,,,,,,,,,,,,,,,,,,,,,,,,,,,,,,,,,,,,,,,,,,,,,,,,,,,,,,,,,,,,,,,,,,,,,,,,,,,,,,,,,,,,,,,,,,,,,,,,,,,,,,,,,,,,,,,,,,,,,,,,,,,,,,,,,
,,5b09da13641b1200010eab05,2024-02-21_22h24.12.940,kallum_motion_pilot,2023.2.2,Win32,144.092219,5b09da13641b1200010eab05,65d6bb0e977760de756971f7,65d6be2e40301376a29aafdc,0.03,0.03,1,30,192,29,1,threefour,,,,,,,,,,,,,,,,,,,,,,,,,,,,,,,,,,,,,,,,,,,,,,,,,,,,,,,,,,,,,,,,,,,,,,,,,,,,,,,,,,,,,,,,,,,,,,,,,,,,,,,,,,,,,,,,,,,,,,,,,,,,,,,,,,,,,,,,,
,,5b09da13641b1200010eab05,2024-02-21_22h24.12.940,kallum_motion_pilot,2023.2.2,Win32,144.092219,5b09da13641b1200010eab05,65d6bb0e977760de756971f7,65d6be2e40301376a29aafdc,0.03,0.03,1,31,193,81,1,fiveseven,,,,,,,,,,,,,,,,,,,,,,,,,,,,,,,,,,,,,,,,,,,,,,,,,,,,,,,,,,,,,,,,,,,,,,,,,,,,,,,,,,,,,,,,,,,,,,,,,,,,,,,,,,,,,,,,,,,,,,,,,,,,,,,,,,,,,,,,,
,,5b09da13641b1200010eab05,2024-02-21_22h24.12.940,kallum_motion_pilot,2023.2.2,Win32,144.092219,5b09da13641b1200010eab05,65d6bb0e977760de756971f7,65d6be2e40301376a29aafdc,0.03,0.03,1,32,194,17,1,onethree,,,,,,,,,,,,,,,,,,,,,,,,,,,,,,,,,,,,,,,,,,,,,,,,,,,,,,,,,,,,,,,,,,,,,,,,,,,,,,,,,,,,,,,,,,,,,,,,,,,,,,,,,,,,,,,,,,,,,,,,,,,,,,,,,,,,,,,,,
,,5b09da13641b1200010eab05,2024-02-21_22h24.12.940,kallum_motion_pilot,2023.2.2,Win32,144.092219,5b09da13641b1200010eab05,65d6bb0e977760de756971f7,65d6be2e40301376a29aafdc,0.03,0.03,1,33,195,128,1,fivesix,,,,,,,,,,,,,,,,,,,,,,,,,,,,,,,,,,,,,,,,,,,,,,,,,,,,,,,,,,,,,,,,,,,,,,,,,,,,,,,,,,,,,,,,,,,,,,,,,,,,,,,,,,,,,,,,,,,,,,,,,,,,,,,,,,,,,,,,,
,,5b09da13641b1200010eab05,2024-02-21_22h24.12.940,kallum_motion_pilot,2023.2.2,Win32,144.092219,5b09da13641b1200010eab05,65d6bb0e977760de756971f7,65d6be2e40301376a29aafdc,0.03,0.03,1,34,196,33,1,onethree,,,,,,,,,,,,,,,,,,,,,,,,,,,,,,,,,,,,,,,,,,,,,,,,,,,,,,,,,,,,,,,,,,,,,,,,,,,,,,,,,,,,,,,,,,,,,,,,,,,,,,,,,,,,,,,,,,,,,,,,,,,,,,,,,,,,,,,,,
,,5b09da13641b1200010eab05,2024-02-21_22h24.12.940,kallum_motion_pilot,2023.2.2,Win32,144.092219,5b09da13641b1200010eab05,65d6bb0e977760de756971f7,65d6be2e40301376a29aafdc,0.03,0.03,1,35,197,18,1,twoone,,,,,,,,,,,,,,,,,,,,,,,,,,,,,,,,,,,,,,,,,,,,,,,,,,,,,,,,,,,,,,,,,,,,,,,,,,,,,,,,,,,,,,,,,,,,,,,,,,,,,,,,,,,,,,,,,,,,,,,,,,,,,,,,,,,,,,,,,
,,5b09da13641b1200010eab05,2024-02-21_22h24.12.940,kallum_motion_pilot,2023.2.2,Win32,144.092219,5b09da13641b1200010eab05,65d6bb0e977760de756971f7,65d6be2e40301376a29aafdc,0.03,0.03,1,36,198,112,1,fivesix,,,,,,,,,,,,,,,,,,,,,,,,,,,,,,,,,,,,,,,,,,,,,,,,,,,,,,,,,,,,,,,,,,,,,,,,,,,,,,,,,,,,,,,,,,,,,,,,,,,,,,,,,,,,,,,,,,,,,,,,,,,,,,,,,,,,,,,,,
,,5b09da13641b1200010eab05,2024-02-21_22h24.12.940,kallum_motion_pilot,2023.2.2,Win32,144.092219,5b09da13641b1200010eab05,65d6bb0e977760de756971f7,65d6be2e40301376a29aafdc,0.03,0.03,1,37,199,147,1,sixeight,,,,,,,,,,,,,,,,,,,,,,,,,,,,,,,,,,,,,,,,,,,,,,,,,,,,,,,,,,,,,,,,,,,,,,,,,,,,,,,,,,,,,,,,,,,,,,,,,,,,,,,,,,,,,,,,,,,,,,,,,,,,,,,,,,,,,,,,,
,,5b09da13641b1200010eab05,2024-02-21_22h24.12.940,kallum_motion_pilot,2023.2.2,Win32,144.092219,5b09da13641b1200010eab05,65d6bb0e977760de756971f7,65d6be2e40301376a29aafdc,0.03,0.03,1,38,200,61,1,threefour,,,,,,,,,,,,,,,,,,,,,,,,,,,,,,,,,,,,,,,,,,,,,,,,,,,,,,,,,,,,,,,,,,,,,,,,,,,,,,,,,,,,,,,,,,,,,,,,,,,,,,,,,,,,,,,,,,,,,,,,,,,,,,,,,,,,,,,,,
,,5b09da13641b1200010eab05,2024-02-21_22h24.12.940,kallum_motion_pilot,2023.2.2,Win32,144.092219,5b09da13641b1200010eab05,65d6bb0e977760de756971f7,65d6be2e40301376a29aafdc,0.031,0.031,1,39,201,125,1,seveneight,,,,,,,,,,,,,,,,,,,,,,,,,,,,,,,,,,,,,,,,,,,,,,,,,,,,,,,,,,,,,,,,,,,,,,,,,,,,,,,,,,,,,,,,,,,,,,,,,,,,,,,,,,,,,,,,,,,,,,,,,,,,,,,,,,,,,,,,,
,,5b09da13641b1200010eab05,2024-02-21_22h24.12.940,kallum_motion_pilot,2023.2.2,Win32,144.092219,5b09da13641b1200010eab05,65d6bb0e977760de756971f7,65d6be2e40301376a29aafdc,0.031,0.031,1,40,202,143,1,eightseven,,,,,,,,,,,,,,,,,,,,,,,,,,,,,,,,,,,,,,,,,,,,,,,,,,,,,,,,,,,,,,,,,,,,,,,,,,,,,,,,,,,,,,,,,,,,,,,,,,,,,,,,,,,,,,,,,,,,,,,,,,,,,,,,,,,,,,,,,
,,5b09da13641b1200010eab05,2024-02-21_22h24.12.940,kallum_motion_pilot,2023.2.2,Win32,144.092219,5b09da13641b1200010eab05,65d6bb0e977760de756971f7,65d6be2e40301376a29aafdc,0.031,0.031,1,41,203,66,1,twoone,,,,,,,,,,,,,,,,,,,,,,,,,,,,,,,,,,,,,,,,,,,,,,,,,,,,,,,,,,,,,,,,,,,,,,,,,,,,,,,,,,,,,,,,,,,,,,,,,,,,,,,,,,,,,,,,,,,,,,,,,,,,,,,,,,,,,,,,,
,,5b09da13641b1200010eab05,2024-02-21_22h24.12.940,kallum_motion_pilot,2023.2.2,Win32,144.092219,5b09da13641b1200010eab05,65d6bb0e977760de756971f7,65d6be2e40301376a29aafdc,0.031,0.031,1,42,204,77,1,threefour,,,,,,,,,,,,,,,,,,,,,,,,,,,,,,,,,,,,,,,,,,,,,,,,,,,,,,,,,,,,,,,,,,,,,,,,,,,,,,,,,,,,,,,,,,,,,,,,,,,,,,,,,,,,,,,,,,,,,,,,,,,,,,,,,,,,,,,,,
,,5b09da13641b1200010eab05,2024-02-21_22h24.12.940,kallum_motion_pilot,2023.2.2,Win32,144.092219,5b09da13641b1200010eab05,65d6bb0e977760de756971f7,65d6be2e40301376a29aafdc,0.031,0.031,1,43,205,91,1,sixeight,,,,,,,,,,,,,,,,,,,,,,,,,,,,,,,,,,,,,,,,,,,,,,,,,,,,,,,,,,,,,,,,,,,,,,,,,,,,,,,,,,,,,,,,,,,,,,,,,,,,,,,,,,,,,,,,,,,,,,,,,,,,,,,,,,,,,,,,,
,,5b09da13641b1200010eab05,2024-02-21_22h24.12.940,kallum_motion_pilot,2023.2.2,Win32,144.092219,5b09da13641b1200010eab05,65d6bb0e977760de756971f7,65d6be2e40301376a29aafdc,0.031,0.031,1,44,206,161,1,fiveseven,,,,,,,,,,,,,,,,,,,,,,,,,,,,,,,,,,,,,,,,,,,,,,,,,,,,,,,,,,,,,,,,,,,,,,,,,,,,,,,,,,,,,,,,,,,,,,,,,,,,,,,,,,,,,,,,,,,,,,,,,,,,,,,,,,,,,,,,,
,,5b09da13641b1200010eab05,2024-02-21_22h24.12.940,kallum_motion_pilot,2023.2.2,Win32,144.092219,5b09da13641b1200010eab05,65d6bb0e977760de756971f7,65d6be2e40301376a29aafdc,0.031,0.031,1,45,207,75,1,twofour,,,,,,,,,,,,,,,,,,,,,,,,,,,,,,,,,,,,,,,,,,,,,,,,,,,,,,,,,,,,,,,,,,,,,,,,,,,,,,,,,,,,,,,,,,,,,,,,,,,,,,,,,,,,,,,,,,,,,,,,,,,,,,,,,,,,,,,,,
,,5b09da13641b1200010eab05,2024-02-21_22h24.12.940,kallum_motion_pilot,2023.2.2,Win32,144.092219,5b09da13641b1200010eab05,65d6bb0e977760de756971f7,65d6be2e40301376a29aafdc,0.031,0.031,1,46,208,107,1,sixeight,,,,,,,,,,,,,,,,,,,,,,,,,,,,,,,,,,,,,,,,,,,,,,,,,,,,,,,,,,,,,,,,,,,,,,,,,,,,,,,,,,,,,,,,,,,,,,,,,,,,,,,,,,,,,,,,,,,,,,,,,,,,,,,,,,,,,,,,,
,,5b09da13641b1200010eab05,2024-02-21_22h24.12.940,kallum_motion_pilot,2023.2.2,Win32,144.092219,5b09da13641b1200010eab05,65d6bb0e977760de756971f7,65d6be2e40301376a29aafdc,0.031,0.031,1,47,209,20,1,threeone,,,,,,,,,,,,,,,,,,,,,,,,,,,,,,,,,,,,,,,,,,,,,,,,,,,,,,,,,,,,,,,,,,,,,,,,,,,,,,,,,,,,,,,,,,,,,,,,,,,,,,,,,,,,,,,,,,,,,,,,,,,,,,,,,,,,,,,,,
,,5b09da13641b1200010eab05,2024-02-21_22h24.12.940,kallum_motion_pilot,2023.2.2,Win32,144.092219,5b09da13641b1200010eab05,65d6bb0e977760de756971f7,65d6be2e40301376a29aafdc,0.031,0.031,1,48,210,64,1,onetwo,,,,,,,,,,,,,,,,,,,,,,,,,,,,,,,,,,,,,,,,,,,,,,,,,,,,,,,,,,,,,,,,,,,,,,,,,,,,,,,,,,,,,,,,,,,,,,,,,,,,,,,,,,,,,,,,,,,,,,,,,,,,,,,,,,,,,,,,,
,,5b09da13641b1200010eab05,2024-02-21_22h24.12.940,kallum_motion_pilot,2023.2.2,Win32,144.092219,5b09da13641b1200010eab05,65d6bb0e977760de756971f7,65d6be2e40301376a29aafdc,0.031,0.031,1,49,211,122,1,sixfive,,,,,,,,,,,,,,,,,,,,,,,,,,,,,,,,,,,,,,,,,,,,,,,,,,,,,,,,,,,,,,,,,,,,,,,,,,,,,,,,,,,,,,,,,,,,,,,,,,,,,,,,,,,,,,,,,,,,,,,,,,,,,,,,,,,,,,,,,
,,5b09da13641b1200010eab05,2024-02-21_22h24.12.940,kallum_motion_pilot,2023.2.2,Win32,144.092219,5b09da13641b1200010eab05,65d6bb0e977760de756971f7,65d6be2e40301376a29aafdc,0.031,0.031,1,50,212,34,1,twoone,,,,,,,,,,,,,,,,,,,,,,,,,,,,,,,,,,,,,,,,,,,,,,,,,,,,,,,,,,,,,,,,,,,,,,,,,,,,,,,,,,,,,,,,,,,,,,,,,,,,,,,,,,,,,,,,,,,,,,,,,,,,,,,,,,,,,,,,,
,,5b09da13641b1200010eab05,2024-02-21_22h24.12.940,kallum_motion_pilot,2023.2.2,Win32,144.092219,5b09da13641b1200010eab05,65d6bb0e977760de756971f7,65d6be2e40301376a29aafdc,0.031,0.031,1,51,213,13,1,threefour,,,,,,,,,,,,,,,,,,,,,,,,,,,,,,,,,,,,,,,,,,,,,,,,,,,,,,,,,,,,,,,,,,,,,,,,,,,,,,,,,,,,,,,,,,,,,,,,,,,,,,,,,,,,,,,,,,,,,,,,,,,,,,,,,,,,,,,,,
,,5b09da13641b1200010eab05,2024-02-21_22h24.12.940,kallum_motion_pilot,2023.2.2,Win32,144.092219,5b09da13641b1200010eab05,65d6bb0e977760de756971f7,65d6be2e40301376a29aafdc,0.031,0.031,1,52,214,155,1,sixeight,,,,,,,,,,,,,,,,,,,,,,,,,,,,,,,,,,,,,,,,,,,,,,,,,,,,,,,,,,,,,,,,,,,,,,,,,,,,,,,,,,,,,,,,,,,,,,,,,,,,,,,,,,,,,,,,,,,,,,,,,,,,,,,,,,,,,,,,,
,,5b09da13641b1200010eab05,2024-02-21_22h24.12.940,kallum_motion_pilot,2023.2.2,Win32,144.092219,5b09da13641b1200010eab05,65d6bb0e977760de756971f7,65d6be2e40301376a29aafdc,0.031,0.031,1,53,215,100,1,sevenfive,,,,,,,,,,,,,,,,,,,,,,,,,,,,,,,,,,,,,,,,,,,,,,,,,,,,,,,,,,,,,,,,,,,,,,,,,,,,,,,,,,,,,,,,,,,,,,,,,,,,,,,,,,,,,,,,,,,,,,,,,,,,,,,,,,,,,,,,,
,,5b09da13641b1200010eab05,2024-02-21_22h24.12.940,kallum_motion_pilot,2023.2.2,Win32,144.092219,5b09da13641b1200010eab05,65d6bb0e977760de756971f7,65d6be2e40301376a29aafdc,0.031,0.032,1,54,216,41,1,onethree,,,,,,,,,,,,,,,,,,,,,,,,,,,,,,,,,,,,,,,,,,,,,,,,,,,,,,,,,,,,,,,,,,,,,,,,,,,,,,,,,,,,,,,,,,,,,,,,,,,,,,,,,,,,,,,,,,,,,,,,,,,,,,,,,,,,,,,,,
,,5b09da13641b1200010eab05,2024-02-21_22h24.12.940,kallum_motion_pilot,2023.2.2,Win32,144.092219,5b09da13641b1200010eab05,65d6bb0e977760de756971f7,65d6be2e40301376a29aafdc,0.032,0.032,1,55,217,127,1,eightseven,,,,,,,,,,,,,,,,,,,,,,,,,,,,,,,,,,,,,,,,,,,,,,,,,,,,,,,,,,,,,,,,,,,,,,,,,,,,,,,,,,,,,,,,,,,,,,,,,,,,,,,,,,,,,,,,,,,,,,,,,,,,,,,,,,,,,,,,,
,,5b09da13641b1200010eab05,2024-02-21_22h24.12.940,kallum_motion_pilot,2023.2.2,Win32,144.092219,5b09da13641b1200010eab05,65d6bb0e977760de756971f7,65d6be2e40301376a29aafdc,0.032,0.032,1,56,218,86,1,eightsix,,,,,,,,,,,,,,,,,,,,,,,,,,,,,,,,,,,,,,,,,,,,,,,,,,,,,,,,,,,,,,,,,,,,,,,,,,,,,,,,,,,,,,,,,,,,,,,,,,,,,,,,,,,,,,,,,,,,,,,,,,,,,,,,,,,,,,,,,
,,5b09da13641b1200010eab05,2024-02-21_22h24.12.940,kallum_motion_pilot,2023.2.2,Win32,144.092219,5b09da13641b1200010eab05,65d6bb0e977760de756971f7,65d6be2e40301376a29aafdc,0.032,0.032,1,57,219,12,1,threeone,,,,,,,,,,,,,,,,,,,,,,,,,,,,,,,,,,,,,,,,,,,,,,,,,,,,,,,,,,,,,,,,,,,,,,,,,,,,,,,,,,,,,,,,,,,,,,,,,,,,,,,,,,,,,,,,,,,,,,,,,,,,,,,,,,,,,,,,,
,,5b09da13641b1200010eab05,2024-02-21_22h24.12.940,kallum_motion_pilot,2023.2.2,Win32,144.092219,5b09da13641b1200010eab05,65d6bb0e977760de756971f7,65d6be2e40301376a29aafdc,0.032,0.032,1,58,220,70,1,fourtwo,,,,,,,,,,,,,,,,,,,,,,,,,,,,,,,,,,,,,,,,,,,,,,,,,,,,,,,,,,,,,,,,,,,,,,,,,,,,,,,,,,,,,,,,,,,,,,,,,,,,,,,,,,,,,,,,,,,,,,,,,,,,,,,,,,,,,,,,,
,,5b09da13641b1200010eab05,2024-02-21_22h24.12.940,kallum_motion_pilot,2023.2.2,Win32,144.092219,5b09da13641b1200010eab05,65d6bb0e977760de756971f7,65d6be2e40301376a29aafdc,0.032,0.032,1,59,221,45,1,threefour,,,,,,,,,,,,,,,,,,,,,,,,,,,,,,,,,,,,,,,,,,,,,,,,,,,,,,,,,,,,,,,,,,,,,,,,,,,,,,,,,,,,,,,,,,,,,,,,,,,,,,,,,,,,,,,,,,,,,,,,,,,,,,,,,,,,,,,,,
,,5b09da13641b1200010eab05,2024-02-21_22h24.12.940,kallum_motion_pilot,2023.2.2,Win32,144.092219,5b09da13641b1200010eab05,65d6bb0e977760de756971f7,65d6be2e40301376a29aafdc,0.032,0.032,1,60,222,138,1,sixfive,,,,,,,,,,,,,,,,,,,,,,,,,,,,,,,,,,,,,,,,,,,,,,,,,,,,,,,,,,,,,,,,,,,,,,,,,,,,,,,,,,,,,,,,,,,,,,,,,,,,,,,,,,,,,,,,,,,,,,,,,,,,,,,,,,,,,,,,,
,,5b09da13641b1200010eab05,2024-02-21_22h24.12.940,kallum_motion_pilot,2023.2.2,Win32,144.092219,5b09da13641b1200010eab05,65d6bb0e977760de756971f7,65d6be2e40301376a29aafdc,0.032,0.032,1,61,223,82,1,sixfive,,,,,,,,,,,,,,,,,,,,,,,,,,,,,,,,,,,,,,,,,,,,,,,,,,,,,,,,,,,,,,,,,,,,,,,,,,,,,,,,,,,,,,,,,,,,,,,,,,,,,,,,,,,,,,,,,,,,,,,,,,,,,,,,,,,,,,,,,
,,5b09da13641b1200010eab05,2024-02-21_22h24.12.940,kallum_motion_pilot,2023.2.2,Win32,144.092219,5b09da13641b1200010eab05,65d6bb0e977760de756971f7,65d6be2e40301376a29aafdc,0.032,0.032,1,62,224,76,1,threeone,,,,,,,,,,,,,,,,,,,,,,,,,,,,,,,,,,,,,,,,,,,,,,,,,,,,,,,,,,,,,,,,,,,,,,,,,,,,,,,,,,,,,,,,,,,,,,,,,,,,,,,,,,,,,,,,,,,,,,,,,,,,,,,,,,,,,,,,,
,,5b09da13641b1200010eab05,2024-02-21_22h24.12.940,kallum_motion_pilot,2023.2.2,Win32,144.092219,5b09da13641b1200010eab05,65d6bb0e977760de756971f7,65d6be2e40301376a29aafdc,0.032,0.032,1,63,225,156,1,sevenfive,,,,,,,,,,,,,,,,,,,,,,,,,,,,,,,,,,,,,,,,,,,,,,,,,,,,,,,,,,,,,,,,,,,,,,,,,,,,,,,,,,,,,,,,,,,,,,,,,,,,,,,,,,,,,,,,,,,,,,,,,,,,,,,,,,,,,,,,,
,,5b09da13641b1200010eab05,2024-02-21_22h24.12.940,kallum_motion_pilot,2023.2.2,Win32,144.092219,5b09da13641b1200010eab05,65d6bb0e977760de756971f7,65d6be2e40301376a29aafdc,0.032,0.032,1,64,226,137,1,fiveseven,,,,,,,,,,,,,,,,,,,,,,,,,,,,,,,,,,,,,,,,,,,,,,,,,,,,,,,,,,,,,,,,,,,,,,,,,,,,,,,,,,,,,,,,,,,,,,,,,,,,,,,,,,,,,,,,,,,,,,,,,,,,,,,,,,,,,,,,,
,,5b09da13641b1200010eab05,2024-02-21_22h24.12.940,kallum_motion_pilot,2023.2.2,Win32,144.092219,5b09da13641b1200010eab05,65d6bb0e977760de756971f7,65d6be2e40301376a29aafdc,0.032,0.032,1,65,227,140,1,sevenfive,,,,,,,,,,,,,,,,,,,,,,,,,,,,,,,,,,,,,,,,,,,,,,,,,,,,,,,,,,,,,,,,,,,,,,,,,,,,,,,,,,,,,,,,,,,,,,,,,,,,,,,,,,,,,,,,,,,,,,,,,,,,,,,,,,,,,,,,,
,,5b09da13641b1200010eab05,2024-02-21_22h24.12.940,kallum_motion_pilot,2023.2.2,Win32,144.092219,5b09da13641b1200010eab05,65d6bb0e977760de756971f7,65d6be2e40301376a29aafdc,0.032,0.032,1,66,228,129,1,fiveseven,,,,,,,,,,,,,,,,,,,,,,,,,,,,,,,,,,,,,,,,,,,,,,,,,,,,,,,,,,,,,,,,,,,,,,,,,,,,,,,,,,,,,,,,,,,,,,,,,,,,,,,,,,,,,,,,,,,,,,,,,,,,,,,,,,,,,,,,,
,,5b09da13641b1200010eab05,2024-02-21_22h24.12.940,kallum_motion_pilot,2023.2.2,Win32,144.092219,5b09da13641b1200010eab05,65d6bb0e977760de756971f7,65d6be2e40301376a29aafdc,0.032,0.032,1,67,229,11,1,twofour,,,,,,,,,,,,,,,,,,,,,,,,,,,,,,,,,,,,,,,,,,,,,,,,,,,,,,,,,,,,,,,,,,,,,,,,,,,,,,,,,,,,,,,,,,,,,,,,,,,,,,,,,,,,,,,,,,,,,,,,,,,,,,,,,,,,,,,,,
,,5b09da13641b1200010eab05,2024-02-21_22h24.12.940,kallum_motion_pilot,2023.2.2,Win32,144.092219,5b09da13641b1200010eab05,65d6bb0e977760de756971f7,65d6be2e40301376a29aafdc,0.032,0.032,1,68,230,40,1,onetwo,,,,,,,,,,,,,,,,,,,,,,,,,,,,,,,,,,,,,,,,,,,,,,,,,,,,,,,,,,,,,,,,,,,,,,,,,,,,,,,,,,,,,,,,,,,,,,,,,,,,,,,,,,,,,,,,,,,,,,,,,,,,,,,,,,,,,,,,,
,,5b09da13641b1200010eab05,2024-02-21_22h24.12.940,kallum_motion_pilot,2023.2.2,Win32,144.092219,5b09da13641b1200010eab05,65d6bb0e977760de756971f7,65d6be2e40301376a29aafdc,0.032,0.032,1,69,231,25,1,onethree,,,,,,,,,,,,,,,,,,,,,,,,,,,,,,,,,,,,,,,,,,,,,,,,,,,,,,,,,,,,,,,,,,,,,,,,,,,,,,,,,,,,,,,,,,,,,,,,,,,,,,,,,,,,,,,,,,,,,,,,,,,,,,,,,,,,,,,,,
,,5b09da13641b1200010eab05,2024-02-21_22h24.12.940,kallum_motion_pilot,2023.2.2,Win32,144.092219,5b09da13641b1200010eab05,65d6bb0e977760de756971f7,65d6be2e40301376a29aafdc,0.032,0.032,1,70,232,26,1,twoone,,,,,,,,,,,,,,,,,,,,,,,,,,,,,,,,,,,,,,,,,,,,,,,,,,,,,,,,,,,,,,,,,,,,,,,,,,,,,,,,,,,,,,,,,,,,,,,,,,,,,,,,,,,,,,,,,,,,,,,,,,,,,,,,,,,,,,,,,
,,5b09da13641b1200010eab05,2024-02-21_22h24.12.940,kallum_motion_pilot,2023.2.2,Win32,144.092219,5b09da13641b1200010eab05,65d6bb0e977760de756971f7,65d6be2e40301376a29aafdc,0.032,0.032,1,71,233,23,1,fourthree,,,,,,,,,,,,,,,,,,,,,,,,,,,,,,,,,,,,,,,,,,,,,,,,,,,,,,,,,,,,,,,,,,,,,,,,,,,,,,,,,,,,,,,,,,,,,,,,,,,,,,,,,,,,,,,,,,,,,,,,,,,,,,,,,,,,,,,,,
,,5b09da13641b1200010eab05,2024-02-21_22h24.12.940,kallum_motion_pilot,2023.2.2,Win32,144.092219,5b09da13641b1200010eab05,65d6bb0e977760de756971f7,65d6be2e40301376a29aafdc,0.032,0.033,1,72,234,10,1,twoone,,,,,,,,,,,,,,,,,,,,,,,,,,,,,,,,,,,,,,,,,,,,,,,,,,,,,,,,,,,,,,,,,,,,,,,,,,,,,,,,,,,,,,,,,,,,,,,,,,,,,,,,,,,,,,,,,,,,,,,,,,,,,,,,,,,,,,,,,
,,5b09da13641b1200010eab05,2024-02-21_22h24.12.940,kallum_motion_pilot,2023.2.2,Win32,144.092219,5b09da13641b1200010eab05,65d6bb0e977760de756971f7,65d6be2e40301376a29aafdc,0.033,0.033,1,73,235,44,1,threeone,,,,,,,,,,,,,,,,,,,,,,,,,,,,,,,,,,,,,,,,,,,,,,,,,,,,,,,,,,,,,,,,,,,,,,,,,,,,,,,,,,,,,,,,,,,,,,,,,,,,,,,,,,,,,,,,,,,,,,,,,,,,,,,,,,,,,,,,,
,,5b09da13641b1200010eab05,2024-02-21_22h24.12.940,kallum_motion_pilot,2023.2.2,Win32,144.092219,5b09da13641b1200010eab05,65d6bb0e977760de756971f7,65d6be2e40301376a29aafdc,0.033,0.033,1,74,236,54,1,fourtwo,,,,,,,,,,,,,,,,,,,,,,,,,,,,,,,,,,,,,,,,,,,,,,,,,,,,,,,,,,,,,,,,,,,,,,,,,,,,,,,,,,,,,,,,,,,,,,,,,,,,,,,,,,,,,,,,,,,,,,,,,,,,,,,,,,,,,,,,,
,,5b09da13641b1200010eab05,2024-02-21_22h24.12.940,kallum_motion_pilot,2023.2.2,Win32,144.092219,5b09da13641b1200010eab05,65d6bb0e977760de756971f7,65d6be2e40301376a29aafdc,0.033,0.033,1,75,237,133,1,seveneight,,,,,,,,,,,,,,,,,,,,,,,,,,,,,,,,,,,,,,,,,,,,,,,,,,,,,,,,,,,,,,,,,,,,,,,,,,,,,,,,,,,,,,,,,,,,,,,,,,,,,,,,,,,,,,,,,,,,,,,,,,,,,,,,,,,,,,,,,
,,5b09da13641b1200010eab05,2024-02-21_22h24.12.940,kallum_motion_pilot,2023.2.2,Win32,144.092219,5b09da13641b1200010eab05,65d6bb0e977760de756971f7,65d6be2e40301376a29aafdc,0.033,0.033,1,76,238,102,1,eightsix,,,,,,,,,,,,,,,,,,,,,,,,,,,,,,,,,,,,,,,,,,,,,,,,,,,,,,,,,,,,,,,,,,,,,,,,,,,,,,,,,,,,,,,,,,,,,,,,,,,,,,,,,,,,,,,,,,,,,,,,,,,,,,,,,,,,,,,,,
,,5b09da13641b1200010eab05,2024-02-21_22h24.12.940,kallum_motion_pilot,2023.2.2,Win32,144.092219,5b09da13641b1200010eab05,65d6bb0e977760de756971f7,65d6be2e40301376a29aafdc,0.033,0.033,1,77,239,62,1,fourtwo,,,,,,,,,,,,,,,,,,,,,,,,,,,,,,,,,,,,,,,,,,,,,,,,,,,,,,,,,,,,,,,,,,,,,,,,,,,,,,,,,,,,,,,,,,,,,,,,,,,,,,,,,,,,,,,,,,,,,,,,,,,,,,,,,,,,,,,,,
,,5b09da13641b1200010eab05,2024-02-21_22h24.12.940,kallum_motion_pilot,2023.2.2,Win32,144.092219,5b09da13641b1200010eab05,65d6bb0e977760de756971f7,65d6be2e40301376a29aafdc,0.033,0.033,1,78,240,118,1,eightsix,,,,,,,,,,,,,,,,,,,,,,,,,,,,,,,,,,,,,,,,,,,,,,,,,,,,,,,,,,,,,,,,,,,,,,,,,,,,,,,,,,,,,,,,,,,,,,,,,,,,,,,,,,,,,,,,,,,,,,,,,,,,,,,,,,,,,,,,,
,,5b09da13641b1200010eab05,2024-02-21_22h24.12.940,kallum_motion_pilot,2023.2.2,Win32,144.092219,5b09da13641b1200010eab05,65d6bb0e977760de756971f7,65d6be2e40301376a29aafdc,0.033,0.033,1,79,241,47,1,fourthree,,,,,,,,,,,,,,,,,,,,,,,,,,,,,,,,,,,,,,,,,,,,,,,,,,,,,,,,,,,,,,,,,,,,,,,,,,,,,,,,,,,,,,,,,,,,,,,,,,,,,,,,,,,,,,,,,,,,,,,,,,,,,,,,,,,,,,,,,
,,5b09da13641b1200010eab05,2024-02-21_22h24.12.940,kallum_motion_pilot,2023.2.2,Win32,144.092219,5b09da13641b1200010eab05,65d6bb0e977760de756971f7,65d6be2e40301376a29aafdc,0.033,0.033,1,80,242,73,1,onethree,,,,,,,,,,,,,,,,,,,,,,,,,,,,,,,,,,,,,,,,,,,,,,,,,,,,,,,,,,,,,,,,,,,,,,,,,,,,,,,,,,,,,,,,,,,,,,,,,,,,,,,,,,,,,,,,,,,,,,,,,,,,,,,,,,,,,,,,,
,,5b09da13641b1200010eab05,2024-02-21_22h24.12.940,kallum_motion_pilot,2023.2.2,Win32,144.092219,5b09da13641b1200010eab05,65d6bb0e977760de756971f7,65d6be2e40301376a29aafdc,0.033,0.033,1,81,243,50,1,twoone,,,,,,,,,,,,,,,,,,,,,,,,,,,,,,,,,,,,,,,,,,,,,,,,,,,,,,,,,,,,,,,,,,,,,,,,,,,,,,,,,,,,,,,,,,,,,,,,,,,,,,,,,,,,,,,,,,,,,,,,,,,,,,,,,,,,,,,,,
,,5b09da13641b1200010eab05,2024-02-21_22h24.12.940,kallum_motion_pilot,2023.2.2,Win32,144.092219,5b09da13641b1200010eab05,65d6bb0e977760de756971f7,65d6be2e40301376a29aafdc,0.033,0.033,1,82,244,52,1,threeone,,,,,,,,,,,,,,,,,,,,,,,,,,,,,,,,,,,,,,,,,,,,,,,,,,,,,,,,,,,,,,,,,,,,,,,,,,,,,,,,,,,,,,,,,,,,,,,,,,,,,,,,,,,,,,,,,,,,,,,,,,,,,,,,,,,,,,,,,
,,5b09da13641b1200010eab05,2024-02-21_22h24.12.940,kallum_motion_pilot,2023.2.2,Win32,144.092219,5b09da13641b1200010eab05,65d6bb0e977760de756971f7,65d6be2e40301376a29aafdc,0.033,0.033,1,83,245,150,1,eightsix,,,,,,,,,,,,,,,,,,,,,,,,,,,,,,,,,,,,,,,,,,,,,,,,,,,,,,,,,,,,,,,,,,,,,,,,,,,,,,,,,,,,,,,,,,,,,,,,,,,,,,,,,,,,,,,,,,,,,,,,,,,,,,,,,,,,,,,,,
,,5b09da13641b1200010eab05,2024-02-21_22h24.12.940,kallum_motion_pilot,2023.2.2,Win32,144.092219,5b09da13641b1200010eab05,65d6bb0e977760de756971f7,65d6be2e40301376a29aafdc,0.033,0.033,1,84,246,63,1,fourthree,,,,,,,,,,,,,,,,,,,,,,,,,,,,,,,,,,,,,,,,,,,,,,,,,,,,,,,,,,,,,,,,,,,,,,,,,,,,,,,,,,,,,,,,,,,,,,,,,,,,,,,,,,,,,,,,,,,,,,,,,,,,,,,,,,,,,,,,,
,,5b09da13641b1200010eab05,2024-02-21_22h24.12.940,kallum_motion_pilot,2023.2.2,Win32,144.092219,5b09da13641b1200010eab05,65d6bb0e977760de756971f7,65d6be2e40301376a29aafdc,0.033,0.033,1,85,247,151,1,eightseven,,,,,,,,,,,,,,,,,,,,,,,,,,,,,,,,,,,,,,,,,,,,,,,,,,,,,,,,,,,,,,,,,,,,,,,,,,,,,,,,,,,,,,,,,,,,,,,,,,,,,,,,,,,,,,,,,,,,,,,,,,,,,,,,,,,,,,,,,
,,5b09da13641b1200010eab05,2024-02-21_22h24.12.940,kallum_motion_pilot,2023.2.2,Win32,144.092219,5b09da13641b1200010eab05,65d6bb0e977760de756971f7,65d6be2e40301376a29aafdc,0.033,0.033,1,86,248,85,1,seveneight,,,,,,,,,,,,,,,,,,,,,,,,,,,,,,,,,,,,,,,,,,,,,,,,,,,,,,,,,,,,,,,,,,,,,,,,,,,,,,,,,,,,,,,,,,,,,,,,,,,,,,,,,,,,,,,,,,,,,,,,,,,,,,,,,,,,,,,,,
,,5b09da13641b1200010eab05,2024-02-21_22h24.12.940,kallum_motion_pilot,2023.2.2,Win32,144.092219,5b09da13641b1200010eab05,65d6bb0e977760de756971f7,65d6be2e40301376a29aafdc,0.033,0.033,1,87,249,134,1,eightsix,,,,,,,,,,,,,,,,,,,,,,,,,,,,,,,,,,,,,,,,,,,,,,,,,,,,,,,,,,,,,,,,,,,,,,,,,,,,,,,,,,,,,,,,,,,,,,,,,,,,,,,,,,,,,,,,,,,,,,,,,,,,,,,,,,,,,,,,,
,,5b09da13641b1200010eab05,2024-02-21_22h24.12.940,kallum_motion_pilot,2023.2.2,Win32,144.092219,5b09da13641b1200010eab05,65d6bb0e977760de756971f7,65d6be2e40301376a29aafdc,0.033,0.033,1,88,250,104,1,fivesix,,,,,,,,,,,,,,,,,,,,,,,,,,,,,,,,,,,,,,,,,,,,,,,,,,,,,,,,,,,,,,,,,,,,,,,,,,,,,,,,,,,,,,,,,,,,,,,,,,,,,,,,,,,,,,,,,,,,,,,,,,,,,,,,,,,,,,,,,
,,5b09da13641b1200010eab05,2024-02-21_22h24.12.940,kallum_motion_pilot,2023.2.2,Win32,144.092219,5b09da13641b1200010eab05,65d6bb0e977760de756971f7,65d6be2e40301376a29aafdc,0.033,0.033,1,89,251,113,1,fiveseven,,,,,,,,,,,,,,,,,,,,,,,,,,,,,,,,,,,,,,,,,,,,,,,,,,,,,,,,,,,,,,,,,,,,,,,,,,,,,,,,,,,,,,,,,,,,,,,,,,,,,,,,,,,,,,,,,,,,,,,,,,,,,,,,,,,,,,,,,
,,5b09da13641b1200010eab05,2024-02-21_22h24.12.940,kallum_motion_pilot,2023.2.2,Win32,144.092219,5b09da13641b1200010eab05,65d6bb0e977760de756971f7,65d6be2e40301376a29aafdc,0.033,0.033,1,90,252,106,1,sixfive,,,,,,,,,,,,,,,,,,,,,,,,,,,,,,,,,,,,,,,,,,,,,,,,,,,,,,,,,,,,,,,,,,,,,,,,,,,,,,,,,,,,,,,,,,,,,,,,,,,,,,,,,,,,,,,,,,,,,,,,,,,,,,,,,,,,,,,,,
,,5b09da13641b1200010eab05,2024-02-21_22h24.12.940,kallum_motion_pilot,2023.2.2,Win32,144.092219,5b09da13641b1200010eab05,65d6bb0e977760de756971f7,65d6be2e40301376a29aafdc,0.033,0.033,1,91,253,117,1,seveneight,,,,,,,,,,,,,,,,,,,,,,,,,,,,,,,,,,,,,,,,,,,,,,,,,,,,,,,,,,,,,,,,,,,,,,,,,,,,,,,,,,,,,,,,,,,,,,,,,,,,,,,,,,,,,,,,,,,,,,,,,,,,,,,,,,,,,,,,,
,,5b09da13641b1200010eab05,2024-02-21_22h24.12.940,kallum_motion_pilot,2023.2.2,Win32,144.092219,5b09da13641b1200010eab05,65d6bb0e977760de756971f7,65d6be2e40301376a29aafdc,0.033,0.033,1,92,254,55,1,fourthree,,,,,,,,,,,,,,,,,,,,,,,,,,,,,,,,,,,,,,,,,,,,,,,,,,,,,,,,,,,,,,,,,,,,,,,,,,,,,,,,,,,,,,,,,,,,,,,,,,,,,,,,,,,,,,,,,,,,,,,,,,,,,,,,,,,,,,,,,
,,5b09da13641b1200010eab05,2024-02-21_22h24.12.940,kallum_motion_pilot,2023.2.2,Win32,144.092219,5b09da13641b1200010eab05,65d6bb0e977760de756971f7,65d6be2e40301376a29aafdc,0.033,0.033,1,93,255,145,1,fiveseven,,,,,,,,,,,,,,,,,,,,,,,,,,,,,,,,,,,,,,,,,,,,,,,,,,,,,,,,,,,,,,,,,,,,,,,,,,,,,,,,,,,,,,,,,,,,,,,,,,,,,,,,,,,,,,,,,,,,,,,,,,,,,,,,,,,,,,,,,
,,5b09da13641b1200010eab05,2024-02-21_22h24.12.940,kallum_motion_pilot,2023.2.2,Win32,144.092219,5b09da13641b1200010eab05,65d6bb0e977760de756971f7,65d6be2e40301376a29aafdc,0.033,0.033,1,94,256,24,1,onetwo,,,,,,,,,,,,,,,,,,,,,,,,,,,,,,,,,,,,,,,,,,,,,,,,,,,,,,,,,,,,,,,,,,,,,,,,,,,,,,,,,,,,,,,,,,,,,,,,,,,,,,,,,,,,,,,,,,,,,,,,,,,,,,,,,,,,,,,,,
,,5b09da13641b1200010eab05,2024-02-21_22h24.12.940,kallum_motion_pilot,2023.2.2,Win32,144.092219,5b09da13641b1200010eab05,65d6bb0e977760de756971f7,65d6be2e40301376a29aafdc,0.033,0.033,1,95,257,108,1,sevenfive,,,,,,,,,,,,,,,,,,,,,,,,,,,,,,,,,,,,,,,,,,,,,,,,,,,,,,,,,,,,,,,,,,,,,,,,,,,,,,,,,,,,,,,,,,,,,,,,,,,,,,,,,,,,,,,,,,,,,,,,,,,,,,,,,,,,,,,,,
,,5b09da13641b1200010eab05,2024-02-21_22h24.12.940,kallum_motion_pilot,2023.2.2,Win32,144.092219,5b09da13641b1200010eab05,65d6bb0e977760de756971f7,65d6be2e40301376a29aafdc,0.033,0.034,1,96,258,83,1,sixeight,,,,,,,,,,,,,,,,,,,,,,,,,,,,,,,,,,,,,,,,,,,,,,,,,,,,,,,,,,,,,,,,,,,,,,,,,,,,,,,,,,,,,,,,,,,,,,,,,,,,,,,,,,,,,,,,,,,,,,,,,,,,,,,,,,,,,,,,,
,,5b09da13641b1200010eab05,2024-02-21_22h24.12.940,kallum_motion_pilot,2023.2.2,Win32,144.092219,5b09da13641b1200010eab05,65d6bb0e977760de756971f7,65d6be2e40301376a29aafdc,0.034,0.034,1,97,259,60,1,threeone,,,,,,,,,,,,,,,,,,,,,,,,,,,,,,,,,,,,,,,,,,,,,,,,,,,,,,,,,,,,,,,,,,,,,,,,,,,,,,,,,,,,,,,,,,,,,,,,,,,,,,,,,,,,,,,,,,,,,,,,,,,,,,,,,,,,,,,,,
,,5b09da13641b1200010eab05,2024-02-21_22h24.12.940,kallum_motion_pilot,2023.2.2,Win32,144.092219,5b09da13641b1200010eab05,65d6bb0e977760de756971f7,65d6be2e40301376a29aafdc,0.034,0.034,1,98,260,116,1,sevenfive,,,,,,,,,,,,,,,,,,,,,,,,,,,,,,,,,,,,,,,,,,,,,,,,,,,,,,,,,,,,,,,,,,,,,,,,,,,,,,,,,,,,,,,,,,,,,,,,,,,,,,,,,,,,,,,,,,,,,,,,,,,,,,,,,,,,,,,,,
,,5b09da13641b1200010eab05,2024-02-21_22h24.12.940,kallum_motion_pilot,2023.2.2,Win32,144.092219,5b09da13641b1200010eab05,65d6bb0e977760de756971f7,65d6be2e40301376a29aafdc,0.034,0.034,1,99,261,38,1,fourtwo,,,,,,,,,,,,,,,,,,,,,,,,,,,,,,,,,,,,,,,,,,,,,,,,,,,,,,,,,,,,,,,,,,,,,,,,,,,,,,,,,,,,,,,,,,,,,,,,,,,,,,,,,,,,,,,,,,,,,,,,,,,,,,,,,,,,,,,,,
,,5b09da13641b1200010eab05,2024-02-21_22h24.12.940,kallum_motion_pilot,2023.2.2,Win32,144.092219,5b09da13641b1200010eab05,65d6bb0e977760de756971f7,65d6be2e40301376a29aafdc,0.034,0.034,1,100,262,0,1,onetwo,,,,,,,,,,,,,,,,,,,,,,,,,,,,,,,,,,,,,,,,,,,,,,,,,,,,,,,,,,,,,,,,,,,,,,,,,,,,,,,,,,,,,,,,,,,,,,,,,,,,,,,,,,,,,,,,,,,,,,,,,,,,,,,,,,,,,,,,,
,,5b09da13641b1200010eab05,2024-02-21_22h24.12.940,kallum_motion_pilot,2023.2.2,Win32,144.092219,5b09da13641b1200010eab05,65d6bb0e977760de756971f7,65d6be2e40301376a29aafdc,0.034,0.034,1,101,263,4,1,threeone,,,,,,,,,,,,,,,,,,,,,,,,,,,,,,,,,,,,,,,,,,,,,,,,,,,,,,,,,,,,,,,,,,,,,,,,,,,,,,,,,,,,,,,,,,,,,,,,,,,,,,,,,,,,,,,,,,,,,,,,,,,,,,,,,,,,,,,,,
,,5b09da13641b1200010eab05,2024-02-21_22h24.12.940,kallum_motion_pilot,2023.2.2,Win32,144.092219,5b09da13641b1200010eab05,65d6bb0e977760de756971f7,65d6be2e40301376a29aafdc,0.034,0.034,1,102,264,65,1,onethree,,,,,,,,,,,,,,,,,,,,,,,,,,,,,,,,,,,,,,,,,,,,,,,,,,,,,,,,,,,,,,,,,,,,,,,,,,,,,,,,,,,,,,,,,,,,,,,,,,,,,,,,,,,,,,,,,,,,,,,,,,,,,,,,,,,,,,,,,
,,5b09da13641b1200010eab05,2024-02-21_22h24.12.940,kallum_motion_pilot,2023.2.2,Win32,144.092219,5b09da13641b1200010eab05,65d6bb0e977760de756971f7,65d6be2e40301376a29aafdc,0.034,0.034,1,103,265,132,1,sevenfive,,,,,,,,,,,,,,,,,,,,,,,,,,,,,,,,,,,,,,,,,,,,,,,,,,,,,,,,,,,,,,,,,,,,,,,,,,,,,,,,,,,,,,,,,,,,,,,,,,,,,,,,,,,,,,,,,,,,,,,,,,,,,,,,,,,,,,,,,
,,5b09da13641b1200010eab05,2024-02-21_22h24.12.940,kallum_motion_pilot,2023.2.2,Win32,144.092219,5b09da13641b1200010eab05,65d6bb0e977760de756971f7,65d6be2e40301376a29aafdc,0.034,0.034,1,104,266,68,1,threeone,,,,,,,,,,,,,,,,,,,,,,,,,,,,,,,,,,,,,,,,,,,,,,,,,,,,,,,,,,,,,,,,,,,,,,,,,,,,,,,,,,,,,,,,,,,,,,,,,,,,,,,,,,,,,,,,,,,,,,,,,,,,,,,,,,,,,,,,,
,,5b09da13641b1200010eab05,2024-02-21_22h24.12.940,kallum_motion_pilot,2023.2.2,Win32,144.092219,5b09da13641b1200010eab05,65d6bb0e977760de756971f7,65d6be2e40301376a29aafdc,0.034,0.034,1,105,267,30,1,fourtwo,,,,,,,,,,,,,,,,,,,,,,,,,,,,,,,,,,,,,,,,,,,,,,,,,,,,,,,,,,,,,,,,,,,,,,,,,,,,,,,,,,,,,,,,,,,,,,,,,,,,,,,,,,,,,,,,,,,,,,,,,,,,,,,,,,,,,,,,,
,,5b09da13641b1200010eab05,2024-02-21_22h24.12.940,kallum_motion_pilot,2023.2.2,Win32,144.092219,5b09da13641b1200010eab05,65d6bb0e977760de756971f7,65d6be2e40301376a29aafdc,0.034,0.034,1,106,268,53,1,threefour,,,,,,,,,,,,,,,,,,,,,,,,,,,,,,,,,,,,,,,,,,,,,,,,,,,,,,,,,,,,,,,,,,,,,,,,,,,,,,,,,,,,,,,,,,,,,,,,,,,,,,,,,,,,,,,,,,,,,,,,,,,,,,,,,,,,,,,,,
,,5b09da13641b1200010eab05,2024-02-21_22h24.12.940,kallum_motion_pilot,2023.2.2,Win32,144.092219,5b09da13641b1200010eab05,65d6bb0e977760de756971f7,65d6be2e40301376a29aafdc,0.034,0.034,1,107,269,96,1,fivesix,,,,,,,,,,,,,,,,,,,,,,,,,,,,,,,,,,,,,,,,,,,,,,,,,,,,,,,,,,,,,,,,,,,,,,,,,,,,,,,,,,,,,,,,,,,,,,,,,,,,,,,,,,,,,,,,,,,,,,,,,,,,,,,,,,,,,,,,,
,,5b09da13641b1200010eab05,2024-02-21_22h24.12.940,kallum_motion_pilot,2023.2.2,Win32,144.092219,5b09da13641b1200010eab05,65d6bb0e977760de756971f7,65d6be2e40301376a29aafdc,0.034,0.034,1,108,270,59,1,twofour,,,,,,,,,,,,,,,,,,,,,,,,,,,,,,,,,,,,,,,,,,,,,,,,,,,,,,,,,,,,,,,,,,,,,,,,,,,,,,,,,,,,,,,,,,,,,,,,,,,,,,,,,,,,,,,,,,,,,,,,,,,,,,,,,,,,,,,,,
,,5b09da13641b1200010eab05,2024-02-21_22h24.12.940,kallum_motion_pilot,2023.2.2,Win32,144.092219,5b09da13641b1200010eab05,65d6bb0e977760de756971f7,65d6be2e40301376a29aafdc,0.034,0.034,1,109,271,154,1,sixfive,,,,,,,,,,,,,,,,,,,,,,,,,,,,,,,,,,,,,,,,,,,,,,,,,,,,,,,,,,,,,,,,,,,,,,,,,,,,,,,,,,,,,,,,,,,,,,,,,,,,,,,,,,,,,,,,,,,,,,,,,,,,,,,,,,,,,,,,,
,,5b09da13641b1200010eab05,2024-02-21_22h24.12.940,kallum_motion_pilot,2023.2.2,Win32,144.092219,5b09da13641b1200010eab05,65d6bb0e977760de756971f7,65d6be2e40301376a29aafdc,0.034,0.034,1,110,272,42,1,twoone,,,,,,,,,,,,,,,,,,,,,,,,,,,,,,,,,,,,,,,,,,,,,,,,,,,,,,,,,,,,,,,,,,,,,,,,,,,,,,,,,,,,,,,,,,,,,,,,,,,,,,,,,,,,,,,,,,,,,,,,,,,,,,,,,,,,,,,,,
,,5b09da13641b1200010eab05,2024-02-21_22h24.12.940,kallum_motion_pilot,2023.2.2,Win32,144.092219,5b09da13641b1200010eab05,65d6bb0e977760de756971f7,65d6be2e40301376a29aafdc,0.034,0.034,1,111,273,158,1,eightsix,,,,,,,,,,,,,,,,,,,,,,,,,,,,,,,,,,,,,,,,,,,,,,,,,,,,,,,,,,,,,,,,,,,,,,,,,,,,,,,,,,,,,,,,,,,,,,,,,,,,,,,,,,,,,,,,,,,,,,,,,,,,,,,,,,,,,,,,,
,,5b09da13641b1200010eab05,2024-02-21_22h24.12.940,kallum_motion_pilot,2023.2.2,Win32,144.092219,5b09da13641b1200010eab05,65d6bb0e977760de756971f7,65d6be2e40301376a29aafdc,0.034,0.034,1,112,274,101,1,seveneight,,,,,,,,,,,,,,,,,,,,,,,,,,,,,,,,,,,,,,,,,,,,,,,,,,,,,,,,,,,,,,,,,,,,,,,,,,,,,,,,,,,,,,,,,,,,,,,,,,,,,,,,,,,,,,,,,,,,,,,,,,,,,,,,,,,,,,,,,
,,5b09da13641b1200010eab05,2024-02-21_22h24.12.940,kallum_motion_pilot,2023.2.2,Win32,144.092219,5b09da13641b1200010eab05,65d6bb0e977760de756971f7,65d6be2e40301376a29aafdc,0.034,0.034,1,113,275,136,1,fivesix,,,,,,,,,,,,,,,,,,,,,,,,,,,,,,,,,,,,,,,,,,,,,,,,,,,,,,,,,,,,,,,,,,,,,,,,,,,,,,,,,,,,,,,,,,,,,,,,,,,,,,,,,,,,,,,,,,,,,,,,,,,,,,,,,,,,,,,,,
,,5b09da13641b1200010eab05,2024-02-21_22h24.12.940,kallum_motion_pilot,2023.2.2,Win32,144.092219,5b09da13641b1200010eab05,65d6bb0e977760de756971f7,65d6be2e40301376a29aafdc,0.034,0.034,1,114,276,97,1,fiveseven,,,,,,,,,,,,,,,,,,,,,,,,,,,,,,,,,,,,,,,,,,,,,,,,,,,,,,,,,,,,,,,,,,,,,,,,,,,,,,,,,,,,,,,,,,,,,,,,,,,,,,,,,,,,,,,,,,,,,,,,,,,,,,,,,,,,,,,,,
,,5b09da13641b1200010eab05,2024-02-21_22h24.12.940,kallum_motion_pilot,2023.2.2,Win32,144.092219,5b09da13641b1200010eab05,65d6bb0e977760de756971f7,65d6be2e40301376a29aafdc,0.035,0.035,1,115,277,5,1,threefour,,,,,,,,,,,,,,,,,,,,,,,,,,,,,,,,,,,,,,,,,,,,,,,,,,,,,,,,,,,,,,,,,,,,,,,,,,,,,,,,,,,,,,,,,,,,,,,,,,,,,,,,,,,,,,,,,,,,,,,,,,,,,,,,,,,,,,,,,
,,5b09da13641b1200010eab05,2024-02-21_22h24.12.940,kallum_motion_pilot,2023.2.2,Win32,144.092219,5b09da13641b1200010eab05,65d6bb0e977760de756971f7,65d6be2e40301376a29aafdc,0.035,0.035,1,116,278,19,1,twofour,,,,,,,,,,,,,,,,,,,,,,,,,,,,,,,,,,,,,,,,,,,,,,,,,,,,,,,,,,,,,,,,,,,,,,,,,,,,,,,,,,,,,,,,,,,,,,,,,,,,,,,,,,,,,,,,,,,,,,,,,,,,,,,,,,,,,,,,,
,,5b09da13641b1200010eab05,2024-02-21_22h24.12.940,kallum_motion_pilot,2023.2.2,Win32,144.092219,5b09da13641b1200010eab05,65d6bb0e977760de756971f7,65d6be2e40301376a29aafdc,0.035,0.035,1,117,279,114,1,sixfive,,,,,,,,,,,,,,,,,,,,,,,,,,,,,,,,,,,,,,,,,,,,,,,,,,,,,,,,,,,,,,,,,,,,,,,,,,,,,,,,,,,,,,,,,,,,,,,,,,,,,,,,,,,,,,,,,,,,,,,,,,,,,,,,,,,,,,,,,
,,5b09da13641b1200010eab05,2024-02-21_22h24.12.940,kallum_motion_pilot,2023.2.2,Win32,144.092219,5b09da13641b1200010eab05,65d6bb0e977760de756971f7,65d6be2e40301376a29aafdc,0.035,0.035,1,118,280,115,1,sixeight,,,,,,,,,,,,,,,,,,,,,,,,,,,,,,,,,,,,,,,,,,,,,,,,,,,,,,,,,,,,,,,,,,,,,,,,,,,,,,,,,,,,,,,,,,,,,,,,,,,,,,,,,,,,,,,,,,,,,,,,,,,,,,,,,,,,,,,,,
