startup.started,startup.stopped,Prolific ID*,date,expName,psychopyVersion,OS,frameRate,participant,study_id,session,stimpositions.started,stimpositions.stopped,hardcoded_stimulus_positions.thisRepN,hardcoded_stimulus_positions.thisTrialN,hardcoded_stimulus_positions.thisN,hardcoded_stimulus_positions.thisIndex,hardcoded_stimulus_positions.ran,StimulusPos,stimorientation.started,stimorientation.stopped,prac_stimorientation_import_loop.thisRepN,prac_stimorientation_import_loop.thisTrialN,prac_stimorientation_import_loop.thisN,prac_stimorientation_import_loop.thisIndex,prac_stimorientation_import_loop.ran,Stimorientation,welcome_instr.started,welcome_instr.stopped,key_resp.keys,key_resp.rt,key_resp.duration,response_steppedout_1.started,response_steppedout_1.stopped,key_resp_20.keys,key_resp_20.rt,key_resp_20.duration,response_steppedout_2.started,response_steppedout_2.stopped,key_resp_19.keys,key_resp_19.rt,key_resp_19.duration,stim_response_instr.started,stim_response_instr.stopped,key_resp_15.keys,key_resp_15.rt,key_resp_15.duration,direction_instr_2.started,direction_instr_2.stopped,key_resp_9.keys,key_resp_9.rt,key_resp_9.duration,instr_prac.started,instr_prac.stopped,key_resp_10.keys,key_resp_10.rt,key_resp_10.duration,Stim1_display_prac.started,Stim1_display_prac.stopped,Ecc,Circle1_ori,Circle2_ori,response_prac.started,similarity,response_time,response_prac.stopped,mouse_5.x,mouse_5.y,mouse_5.leftButton,mouse_5.midButton,mouse_5.rightButton,mouse_5.clicked_name,responseprac_feedback.started,responseprac_feedback.stopped,summary2_prac.started,summary2_prac.stopped,mouse_6.x,mouse_6.y,mouse_6.leftButton,mouse_6.midButton,mouse_6.rightButton,mouse_6.clicked_name,duringprac.thisRepN,duringprac.thisTrialN,duringprac.thisN,duringprac.thisIndex,duringprac.ran,begin.started,begin.stopped,key_resp_22.keys,key_resp_22.rt,key_resp_22.duration,Stim1_display.started,Stim1_display.stopped,circle1_ori,circle2_ori,circle1_SF,circle2_SF,response.started,response.stopped,mouse.x,mouse.y,mouse.leftButton,mouse.midButton,mouse.rightButton,mouse.clicked_name,trialnumber,double_pass.thisRepN,double_pass.thisTrialN,double_pass.thisN,double_pass.thisIndex,double_pass.ran,double_pass.order,main_trial.thisRepN,main_trial.thisTrialN,main_trial.thisN,main_trial.thisIndex,main_trial.ran,main_trial.order,Trial_Counter,Catch,Frequencies,response_2.started,response_2.stopped,mouse_2.x,mouse_2.y,mouse_2.leftButton,mouse_2.midButton,mouse_2.rightButton,mouse_2.clicked_name,special_trial.started,special_trial.stopped,catch_1.started,catch_1.stopped,mouse_3.x,mouse_3.y,mouse_3.leftButton,mouse_3.midButton,mouse_3.rightButton,catchresponse,catchnumber,response_time_catch,response_sum.started,response_sum.stopped,mouse_11.x,mouse_11.y,mouse_11.leftButton,mouse_11.midButton,mouse_11.rightButton,flip_presentation_sequence_for_double_pass.started,flip_presentation_sequence_for_double_pass.stopped,goodbye.started,goodbye.stopped,key_resp_3.keys,key_resp_3.rt,key_resp_3.duration
0.0033,0.0037,5b11d226e9270900013c3029,2024-02-21_21h21.48.590,kallum_motion_pilot,2023.2.2,Win32,1.463271876,5b11d226e9270900013c3029,65d6bb0e977760de756971f7,65d6bc8e55338e31f88becbe,,,,,,,,,,,,,,,,,,,,,,,,,,,,,,,,,,,,,,,,,,,,,,,,,,,,,,,,,,,,,,,,,,,,,,,,,,,,,,,,,,,,,,,,,,,,,,,,,,,,,,,,,,,,,,,,,,,,,,,,,,,,,,,,,,,,,,,,,,,,,,,,,
,,5b11d226e9270900013c3029,2024-02-21_21h21.48.590,kallum_motion_pilot,2023.2.2,Win32,1.463271876,5b11d226e9270900013c3029,65d6bb0e977760de756971f7,65d6bc8e55338e31f88becbe,0.1513,0.1523,0,0,0,9,1,onethree,,,,,,,,,,,,,,,,,,,,,,,,,,,,,,,,,,,,,,,,,,,,,,,,,,,,,,,,,,,,,,,,,,,,,,,,,,,,,,,,,,,,,,,,,,,,,,,,,,,,,,,,,,,,,,,,,,,,,,,,,,,,,,,,,,,,,,,,,
,,5b11d226e9270900013c3029,2024-02-21_21h21.48.590,kallum_motion_pilot,2023.2.2,Win32,1.463271876,5b11d226e9270900013c3029,65d6bb0e977760de756971f7,65d6bc8e55338e31f88becbe,0.1538,0.1538,0,1,1,95,1,eightseven,,,,,,,,,,,,,,,,,,,,,,,,,,,,,,,,,,,,,,,,,,,,,,,,,,,,,,,,,,,,,,,,,,,,,,,,,,,,,,,,,,,,,,,,,,,,,,,,,,,,,,,,,,,,,,,,,,,,,,,,,,,,,,,,,,,,,,,,,
,,5b11d226e9270900013c3029,2024-02-21_21h21.48.590,kallum_motion_pilot,2023.2.2,Win32,1.463271876,5b11d226e9270900013c3029,65d6bb0e977760de756971f7,65d6bc8e55338e31f88becbe,0.1548,0.1548,0,2,2,83,1,sixeight,,,,,,,,,,,,,,,,,,,,,,,,,,,,,,,,,,,,,,,,,,,,,,,,,,,,,,,,,,,,,,,,,,,,,,,,,,,,,,,,,,,,,,,,,,,,,,,,,,,,,,,,,,,,,,,,,,,,,,,,,,,,,,,,,,,,,,,,,
,,5b11d226e9270900013c3029,2024-02-21_21h21.48.590,kallum_motion_pilot,2023.2.2,Win32,1.463271876,5b11d226e9270900013c3029,65d6bb0e977760de756971f7,65d6bc8e55338e31f88becbe,0.1557,0.1558,0,3,3,112,1,fivesix,,,,,,,,,,,,,,,,,,,,,,,,,,,,,,,,,,,,,,,,,,,,,,,,,,,,,,,,,,,,,,,,,,,,,,,,,,,,,,,,,,,,,,,,,,,,,,,,,,,,,,,,,,,,,,,,,,,,,,,,,,,,,,,,,,,,,,,,,
,,5b11d226e9270900013c3029,2024-02-21_21h21.48.590,kallum_motion_pilot,2023.2.2,Win32,1.463271876,5b11d226e9270900013c3029,65d6bb0e977760de756971f7,65d6bc8e55338e31f88becbe,0.1564,0.1565,0,4,4,88,1,fivesix,,,,,,,,,,,,,,,,,,,,,,,,,,,,,,,,,,,,,,,,,,,,,,,,,,,,,,,,,,,,,,,,,,,,,,,,,,,,,,,,,,,,,,,,,,,,,,,,,,,,,,,,,,,,,,,,,,,,,,,,,,,,,,,,,,,,,,,,,
,,5b11d226e9270900013c3029,2024-02-21_21h21.48.590,kallum_motion_pilot,2023.2.2,Win32,1.463271876,5b11d226e9270900013c3029,65d6bb0e977760de756971f7,65d6bc8e55338e31f88becbe,0.1571,0.1572,0,5,5,63,1,fourthree,,,,,,,,,,,,,,,,,,,,,,,,,,,,,,,,,,,,,,,,,,,,,,,,,,,,,,,,,,,,,,,,,,,,,,,,,,,,,,,,,,,,,,,,,,,,,,,,,,,,,,,,,,,,,,,,,,,,,,,,,,,,,,,,,,,,,,,,,
,,5b11d226e9270900013c3029,2024-02-21_21h21.48.590,kallum_motion_pilot,2023.2.2,Win32,1.463271876,5b11d226e9270900013c3029,65d6bb0e977760de756971f7,65d6bc8e55338e31f88becbe,0.1577,0.1578,0,6,6,26,1,twoone,,,,,,,,,,,,,,,,,,,,,,,,,,,,,,,,,,,,,,,,,,,,,,,,,,,,,,,,,,,,,,,,,,,,,,,,,,,,,,,,,,,,,,,,,,,,,,,,,,,,,,,,,,,,,,,,,,,,,,,,,,,,,,,,,,,,,,,,,
,,5b11d226e9270900013c3029,2024-02-21_21h21.48.590,kallum_motion_pilot,2023.2.2,Win32,1.463271876,5b11d226e9270900013c3029,65d6bb0e977760de756971f7,65d6bc8e55338e31f88becbe,0.1584,0.1585,0,7,7,15,1,fourthree,,,,,,,,,,,,,,,,,,,,,,,,,,,,,,,,,,,,,,,,,,,,,,,,,,,,,,,,,,,,,,,,,,,,,,,,,,,,,,,,,,,,,,,,,,,,,,,,,,,,,,,,,,,,,,,,,,,,,,,,,,,,,,,,,,,,,,,,,
,,5b11d226e9270900013c3029,2024-02-21_21h21.48.590,kallum_motion_pilot,2023.2.2,Win32,1.463271876,5b11d226e9270900013c3029,65d6bb0e977760de756971f7,65d6bc8e55338e31f88becbe,0.1591,0.1593,0,8,8,114,1,sixfive,,,,,,,,,,,,,,,,,,,,,,,,,,,,,,,,,,,,,,,,,,,,,,,,,,,,,,,,,,,,,,,,,,,,,,,,,,,,,,,,,,,,,,,,,,,,,,,,,,,,,,,,,,,,,,,,,,,,,,,,,,,,,,,,,,,,,,,,,
,,5b11d226e9270900013c3029,2024-02-21_21h21.48.590,kallum_motion_pilot,2023.2.2,Win32,1.463271876,5b11d226e9270900013c3029,65d6bb0e977760de756971f7,65d6bc8e55338e31f88becbe,0.1602,0.1603,0,9,9,145,1,fiveseven,,,,,,,,,,,,,,,,,,,,,,,,,,,,,,,,,,,,,,,,,,,,,,,,,,,,,,,,,,,,,,,,,,,,,,,,,,,,,,,,,,,,,,,,,,,,,,,,,,,,,,,,,,,,,,,,,,,,,,,,,,,,,,,,,,,,,,,,,
,,5b11d226e9270900013c3029,2024-02-21_21h21.48.590,kallum_motion_pilot,2023.2.2,Win32,1.463271876,5b11d226e9270900013c3029,65d6bb0e977760de756971f7,65d6bc8e55338e31f88becbe,0.1609,0.1613,0,10,10,130,1,sixfive,,,,,,,,,,,,,,,,,,,,,,,,,,,,,,,,,,,,,,,,,,,,,,,,,,,,,,,,,,,,,,,,,,,,,,,,,,,,,,,,,,,,,,,,,,,,,,,,,,,,,,,,,,,,,,,,,,,,,,,,,,,,,,,,,,,,,,,,,
,,5b11d226e9270900013c3029,2024-02-21_21h21.48.590,kallum_motion_pilot,2023.2.2,Win32,1.463271876,5b11d226e9270900013c3029,65d6bb0e977760de756971f7,65d6bc8e55338e31f88becbe,0.1682,0.1684,0,11,11,66,1,twoone,,,,,,,,,,,,,,,,,,,,,,,,,,,,,,,,,,,,,,,,,,,,,,,,,,,,,,,,,,,,,,,,,,,,,,,,,,,,,,,,,,,,,,,,,,,,,,,,,,,,,,,,,,,,,,,,,,,,,,,,,,,,,,,,,,,,,,,,,
,,5b11d226e9270900013c3029,2024-02-21_21h21.48.590,kallum_motion_pilot,2023.2.2,Win32,1.463271876,5b11d226e9270900013c3029,65d6bb0e977760de756971f7,65d6bc8e55338e31f88becbe,0.1691,0.1692,0,12,12,115,1,sixeight,,,,,,,,,,,,,,,,,,,,,,,,,,,,,,,,,,,,,,,,,,,,,,,,,,,,,,,,,,,,,,,,,,,,,,,,,,,,,,,,,,,,,,,,,,,,,,,,,,,,,,,,,,,,,,,,,,,,,,,,,,,,,,,,,,,,,,,,,
,,5b11d226e9270900013c3029,2024-02-21_21h21.48.590,kallum_motion_pilot,2023.2.2,Win32,1.463271876,5b11d226e9270900013c3029,65d6bb0e977760de756971f7,65d6bc8e55338e31f88becbe,0.1696,0.1697,0,13,13,118,1,eightsix,,,,,,,,,,,,,,,,,,,,,,,,,,,,,,,,,,,,,,,,,,,,,,,,,,,,,,,,,,,,,,,,,,,,,,,,,,,,,,,,,,,,,,,,,,,,,,,,,,,,,,,,,,,,,,,,,,,,,,,,,,,,,,,,,,,,,,,,,
,,5b11d226e9270900013c3029,2024-02-21_21h21.48.590,kallum_motion_pilot,2023.2.2,Win32,1.463271876,5b11d226e9270900013c3029,65d6bb0e977760de756971f7,65d6bc8e55338e31f88becbe,0.1701,0.1702,0,14,14,109,1,seveneight,,,,,,,,,,,,,,,,,,,,,,,,,,,,,,,,,,,,,,,,,,,,,,,,,,,,,,,,,,,,,,,,,,,,,,,,,,,,,,,,,,,,,,,,,,,,,,,,,,,,,,,,,,,,,,,,,,,,,,,,,,,,,,,,,,,,,,,,,
,,5b11d226e9270900013c3029,2024-02-21_21h21.48.590,kallum_motion_pilot,2023.2.2,Win32,1.463271876,5b11d226e9270900013c3029,65d6bb0e977760de756971f7,65d6bc8e55338e31f88becbe,0.1706,0.1707,0,15,15,85,1,seveneight,,,,,,,,,,,,,,,,,,,,,,,,,,,,,,,,,,,,,,,,,,,,,,,,,,,,,,,,,,,,,,,,,,,,,,,,,,,,,,,,,,,,,,,,,,,,,,,,,,,,,,,,,,,,,,,,,,,,,,,,,,,,,,,,,,,,,,,,,
,,5b11d226e9270900013c3029,2024-02-21_21h21.48.590,kallum_motion_pilot,2023.2.2,Win32,1.463271876,5b11d226e9270900013c3029,65d6bb0e977760de756971f7,65d6bc8e55338e31f88becbe,0.1711,0.1711,0,16,16,86,1,eightsix,,,,,,,,,,,,,,,,,,,,,,,,,,,,,,,,,,,,,,,,,,,,,,,,,,,,,,,,,,,,,,,,,,,,,,,,,,,,,,,,,,,,,,,,,,,,,,,,,,,,,,,,,,,,,,,,,,,,,,,,,,,,,,,,,,,,,,,,,
,,5b11d226e9270900013c3029,2024-02-21_21h21.48.590,kallum_motion_pilot,2023.2.2,Win32,1.463271876,5b11d226e9270900013c3029,65d6bb0e977760de756971f7,65d6bc8e55338e31f88becbe,0.1715,0.1716,0,17,17,135,1,eightseven,,,,,,,,,,,,,,,,,,,,,,,,,,,,,,,,,,,,,,,,,,,,,,,,,,,,,,,,,,,,,,,,,,,,,,,,,,,,,,,,,,,,,,,,,,,,,,,,,,,,,,,,,,,,,,,,,,,,,,,,,,,,,,,,,,,,,,,,,
,,5b11d226e9270900013c3029,2024-02-21_21h21.48.590,kallum_motion_pilot,2023.2.2,Win32,1.463271876,5b11d226e9270900013c3029,65d6bb0e977760de756971f7,65d6bc8e55338e31f88becbe,0.172,0.1722,0,18,18,123,1,sixeight,,,,,,,,,,,,,,,,,,,,,,,,,,,,,,,,,,,,,,,,,,,,,,,,,,,,,,,,,,,,,,,,,,,,,,,,,,,,,,,,,,,,,,,,,,,,,,,,,,,,,,,,,,,,,,,,,,,,,,,,,,,,,,,,,,,,,,,,,
,,5b11d226e9270900013c3029,2024-02-21_21h21.48.590,kallum_motion_pilot,2023.2.2,Win32,1.463271876,5b11d226e9270900013c3029,65d6bb0e977760de756971f7,65d6bc8e55338e31f88becbe,0.1725,0.1727,0,19,19,110,1,eightsix,,,,,,,,,,,,,,,,,,,,,,,,,,,,,,,,,,,,,,,,,,,,,,,,,,,,,,,,,,,,,,,,,,,,,,,,,,,,,,,,,,,,,,,,,,,,,,,,,,,,,,,,,,,,,,,,,,,,,,,,,,,,,,,,,,,,,,,,,
,,5b11d226e9270900013c3029,2024-02-21_21h21.48.590,kallum_motion_pilot,2023.2.2,Win32,1.463271876,5b11d226e9270900013c3029,65d6bb0e977760de756971f7,65d6bc8e55338e31f88becbe,0.173,0.1732,0,20,20,98,1,sixfive,,,,,,,,,,,,,,,,,,,,,,,,,,,,,,,,,,,,,,,,,,,,,,,,,,,,,,,,,,,,,,,,,,,,,,,,,,,,,,,,,,,,,,,,,,,,,,,,,,,,,,,,,,,,,,,,,,,,,,,,,,,,,,,,,,,,,,,,,
,,5b11d226e9270900013c3029,2024-02-21_21h21.48.590,kallum_motion_pilot,2023.2.2,Win32,1.463271876,5b11d226e9270900013c3029,65d6bb0e977760de756971f7,65d6bc8e55338e31f88becbe,0.1737,0.1737,0,21,21,64,1,onetwo,,,,,,,,,,,,,,,,,,,,,,,,,,,,,,,,,,,,,,,,,,,,,,,,,,,,,,,,,,,,,,,,,,,,,,,,,,,,,,,,,,,,,,,,,,,,,,,,,,,,,,,,,,,,,,,,,,,,,,,,,,,,,,,,,,,,,,,,,
,,5b11d226e9270900013c3029,2024-02-21_21h21.48.590,kallum_motion_pilot,2023.2.2,Win32,1.463271876,5b11d226e9270900013c3029,65d6bb0e977760de756971f7,65d6bc8e55338e31f88becbe,0.1742,0.1743,0,22,22,59,1,twofour,,,,,,,,,,,,,,,,,,,,,,,,,,,,,,,,,,,,,,,,,,,,,,,,,,,,,,,,,,,,,,,,,,,,,,,,,,,,,,,,,,,,,,,,,,,,,,,,,,,,,,,,,,,,,,,,,,,,,,,,,,,,,,,,,,,,,,,,,
,,5b11d226e9270900013c3029,2024-02-21_21h21.48.590,kallum_motion_pilot,2023.2.2,Win32,1.463271876,5b11d226e9270900013c3029,65d6bb0e977760de756971f7,65d6bc8e55338e31f88becbe,0.1747,0.1748,0,23,23,21,1,threefour,,,,,,,,,,,,,,,,,,,,,,,,,,,,,,,,,,,,,,,,,,,,,,,,,,,,,,,,,,,,,,,,,,,,,,,,,,,,,,,,,,,,,,,,,,,,,,,,,,,,,,,,,,,,,,,,,,,,,,,,,,,,,,,,,,,,,,,,,
,,5b11d226e9270900013c3029,2024-02-21_21h21.48.590,kallum_motion_pilot,2023.2.2,Win32,1.463271876,5b11d226e9270900013c3029,65d6bb0e977760de756971f7,65d6bc8e55338e31f88becbe,0.1753,0.1755,0,24,24,19,1,twofour,,,,,,,,,,,,,,,,,,,,,,,,,,,,,,,,,,,,,,,,,,,,,,,,,,,,,,,,,,,,,,,,,,,,,,,,,,,,,,,,,,,,,,,,,,,,,,,,,,,,,,,,,,,,,,,,,,,,,,,,,,,,,,,,,,,,,,,,,
,,5b11d226e9270900013c3029,2024-02-21_21h21.48.590,kallum_motion_pilot,2023.2.2,Win32,1.463271876,5b11d226e9270900013c3029,65d6bb0e977760de756971f7,65d6bc8e55338e31f88becbe,0.176,0.1762,0,25,25,155,1,sixeight,,,,,,,,,,,,,,,,,,,,,,,,,,,,,,,,,,,,,,,,,,,,,,,,,,,,,,,,,,,,,,,,,,,,,,,,,,,,,,,,,,,,,,,,,,,,,,,,,,,,,,,,,,,,,,,,,,,,,,,,,,,,,,,,,,,,,,,,,
,,5b11d226e9270900013c3029,2024-02-21_21h21.48.590,kallum_motion_pilot,2023.2.2,Win32,1.463271876,5b11d226e9270900013c3029,65d6bb0e977760de756971f7,65d6bc8e55338e31f88becbe,0.1765,0.1767,0,26,26,117,1,seveneight,,,,,,,,,,,,,,,,,,,,,,,,,,,,,,,,,,,,,,,,,,,,,,,,,,,,,,,,,,,,,,,,,,,,,,,,,,,,,,,,,,,,,,,,,,,,,,,,,,,,,,,,,,,,,,,,,,,,,,,,,,,,,,,,,,,,,,,,,
,,5b11d226e9270900013c3029,2024-02-21_21h21.48.590,kallum_motion_pilot,2023.2.2,Win32,1.463271876,5b11d226e9270900013c3029,65d6bb0e977760de756971f7,65d6bc8e55338e31f88becbe,0.177,0.1771,0,27,27,22,1,fourtwo,,,,,,,,,,,,,,,,,,,,,,,,,,,,,,,,,,,,,,,,,,,,,,,,,,,,,,,,,,,,,,,,,,,,,,,,,,,,,,,,,,,,,,,,,,,,,,,,,,,,,,,,,,,,,,,,,,,,,,,,,,,,,,,,,,,,,,,,,
,,5b11d226e9270900013c3029,2024-02-21_21h21.48.590,kallum_motion_pilot,2023.2.2,Win32,1.463271876,5b11d226e9270900013c3029,65d6bb0e977760de756971f7,65d6bc8e55338e31f88becbe,0.1774,0.1775,0,28,28,38,1,fourtwo,,,,,,,,,,,,,,,,,,,,,,,,,,,,,,,,,,,,,,,,,,,,,,,,,,,,,,,,,,,,,,,,,,,,,,,,,,,,,,,,,,,,,,,,,,,,,,,,,,,,,,,,,,,,,,,,,,,,,,,,,,,,,,,,,,,,,,,,,
,,5b11d226e9270900013c3029,2024-02-21_21h21.48.590,kallum_motion_pilot,2023.2.2,Win32,1.463271876,5b11d226e9270900013c3029,65d6bb0e977760de756971f7,65d6bc8e55338e31f88becbe,0.1778,0.1779,0,29,29,138,1,sixfive,,,,,,,,,,,,,,,,,,,,,,,,,,,,,,,,,,,,,,,,,,,,,,,,,,,,,,,,,,,,,,,,,,,,,,,,,,,,,,,,,,,,,,,,,,,,,,,,,,,,,,,,,,,,,,,,,,,,,,,,,,,,,,,,,,,,,,,,,
,,5b11d226e9270900013c3029,2024-02-21_21h21.48.590,kallum_motion_pilot,2023.2.2,Win32,1.463271876,5b11d226e9270900013c3029,65d6bb0e977760de756971f7,65d6bc8e55338e31f88becbe,0.1783,0.1785,0,30,30,62,1,fourtwo,,,,,,,,,,,,,,,,,,,,,,,,,,,,,,,,,,,,,,,,,,,,,,,,,,,,,,,,,,,,,,,,,,,,,,,,,,,,,,,,,,,,,,,,,,,,,,,,,,,,,,,,,,,,,,,,,,,,,,,,,,,,,,,,,,,,,,,,,
,,5b11d226e9270900013c3029,2024-02-21_21h21.48.590,kallum_motion_pilot,2023.2.2,Win32,1.463271876,5b11d226e9270900013c3029,65d6bb0e977760de756971f7,65d6bc8e55338e31f88becbe,0.1788,0.1789,0,31,31,122,1,sixfive,,,,,,,,,,,,,,,,,,,,,,,,,,,,,,,,,,,,,,,,,,,,,,,,,,,,,,,,,,,,,,,,,,,,,,,,,,,,,,,,,,,,,,,,,,,,,,,,,,,,,,,,,,,,,,,,,,,,,,,,,,,,,,,,,,,,,,,,,
,,5b11d226e9270900013c3029,2024-02-21_21h21.48.590,kallum_motion_pilot,2023.2.2,Win32,1.463271876,5b11d226e9270900013c3029,65d6bb0e977760de756971f7,65d6bc8e55338e31f88becbe,0.1793,0.1793,0,32,32,147,1,sixeight,,,,,,,,,,,,,,,,,,,,,,,,,,,,,,,,,,,,,,,,,,,,,,,,,,,,,,,,,,,,,,,,,,,,,,,,,,,,,,,,,,,,,,,,,,,,,,,,,,,,,,,,,,,,,,,,,,,,,,,,,,,,,,,,,,,,,,,,,
,,5b11d226e9270900013c3029,2024-02-21_21h21.48.590,kallum_motion_pilot,2023.2.2,Win32,1.463271876,5b11d226e9270900013c3029,65d6bb0e977760de756971f7,65d6bc8e55338e31f88becbe,0.1799,0.1804,0,33,33,120,1,fivesix,,,,,,,,,,,,,,,,,,,,,,,,,,,,,,,,,,,,,,,,,,,,,,,,,,,,,,,,,,,,,,,,,,,,,,,,,,,,,,,,,,,,,,,,,,,,,,,,,,,,,,,,,,,,,,,,,,,,,,,,,,,,,,,,,,,,,,,,,
,,5b11d226e9270900013c3029,2024-02-21_21h21.48.590,kallum_motion_pilot,2023.2.2,Win32,1.463271876,5b11d226e9270900013c3029,65d6bb0e977760de756971f7,65d6bc8e55338e31f88becbe,0.1809,0.1811,0,34,34,65,1,onethree,,,,,,,,,,,,,,,,,,,,,,,,,,,,,,,,,,,,,,,,,,,,,,,,,,,,,,,,,,,,,,,,,,,,,,,,,,,,,,,,,,,,,,,,,,,,,,,,,,,,,,,,,,,,,,,,,,,,,,,,,,,,,,,,,,,,,,,,,
,,5b11d226e9270900013c3029,2024-02-21_21h21.48.590,kallum_motion_pilot,2023.2.2,Win32,1.463271876,5b11d226e9270900013c3029,65d6bb0e977760de756971f7,65d6bc8e55338e31f88becbe,0.182,0.1822,0,35,35,156,1,sevenfive,,,,,,,,,,,,,,,,,,,,,,,,,,,,,,,,,,,,,,,,,,,,,,,,,,,,,,,,,,,,,,,,,,,,,,,,,,,,,,,,,,,,,,,,,,,,,,,,,,,,,,,,,,,,,,,,,,,,,,,,,,,,,,,,,,,,,,,,,
,,5b11d226e9270900013c3029,2024-02-21_21h21.48.590,kallum_motion_pilot,2023.2.2,Win32,1.463271876,5b11d226e9270900013c3029,65d6bb0e977760de756971f7,65d6bc8e55338e31f88becbe,0.183,0.1832,0,36,36,28,1,threeone,,,,,,,,,,,,,,,,,,,,,,,,,,,,,,,,,,,,,,,,,,,,,,,,,,,,,,,,,,,,,,,,,,,,,,,,,,,,,,,,,,,,,,,,,,,,,,,,,,,,,,,,,,,,,,,,,,,,,,,,,,,,,,,,,,,,,,,,,
,,5b11d226e9270900013c3029,2024-02-21_21h21.48.590,kallum_motion_pilot,2023.2.2,Win32,1.463271876,5b11d226e9270900013c3029,65d6bb0e977760de756971f7,65d6bc8e55338e31f88becbe,0.1837,0.184,0,37,37,45,1,threefour,,,,,,,,,,,,,,,,,,,,,,,,,,,,,,,,,,,,,,,,,,,,,,,,,,,,,,,,,,,,,,,,,,,,,,,,,,,,,,,,,,,,,,,,,,,,,,,,,,,,,,,,,,,,,,,,,,,,,,,,,,,,,,,,,,,,,,,,,
,,5b11d226e9270900013c3029,2024-02-21_21h21.48.590,kallum_motion_pilot,2023.2.2,Win32,1.463271876,5b11d226e9270900013c3029,65d6bb0e977760de756971f7,65d6bc8e55338e31f88becbe,0.1845,0.1846,0,38,38,33,1,onethree,,,,,,,,,,,,,,,,,,,,,,,,,,,,,,,,,,,,,,,,,,,,,,,,,,,,,,,,,,,,,,,,,,,,,,,,,,,,,,,,,,,,,,,,,,,,,,,,,,,,,,,,,,,,,,,,,,,,,,,,,,,,,,,,,,,,,,,,,
,,5b11d226e9270900013c3029,2024-02-21_21h21.48.590,kallum_motion_pilot,2023.2.2,Win32,1.463271876,5b11d226e9270900013c3029,65d6bb0e977760de756971f7,65d6bc8e55338e31f88becbe,0.1852,0.1854,0,39,39,42,1,twoone,,,,,,,,,,,,,,,,,,,,,,,,,,,,,,,,,,,,,,,,,,,,,,,,,,,,,,,,,,,,,,,,,,,,,,,,,,,,,,,,,,,,,,,,,,,,,,,,,,,,,,,,,,,,,,,,,,,,,,,,,,,,,,,,,,,,,,,,,
,,5b11d226e9270900013c3029,2024-02-21_21h21.48.590,kallum_motion_pilot,2023.2.2,Win32,1.463271876,5b11d226e9270900013c3029,65d6bb0e977760de756971f7,65d6bc8e55338e31f88becbe,0.1858,0.186,0,40,40,39,1,fourthree,,,,,,,,,,,,,,,,,,,,,,,,,,,,,,,,,,,,,,,,,,,,,,,,,,,,,,,,,,,,,,,,,,,,,,,,,,,,,,,,,,,,,,,,,,,,,,,,,,,,,,,,,,,,,,,,,,,,,,,,,,,,,,,,,,,,,,,,,
,,5b11d226e9270900013c3029,2024-02-21_21h21.48.590,kallum_motion_pilot,2023.2.2,Win32,1.463271876,5b11d226e9270900013c3029,65d6bb0e977760de756971f7,65d6bc8e55338e31f88becbe,0.1865,0.1867,0,41,41,61,1,threefour,,,,,,,,,,,,,,,,,,,,,,,,,,,,,,,,,,,,,,,,,,,,,,,,,,,,,,,,,,,,,,,,,,,,,,,,,,,,,,,,,,,,,,,,,,,,,,,,,,,,,,,,,,,,,,,,,,,,,,,,,,,,,,,,,,,,,,,,,
,,5b11d226e9270900013c3029,2024-02-21_21h21.48.590,kallum_motion_pilot,2023.2.2,Win32,1.463271876,5b11d226e9270900013c3029,65d6bb0e977760de756971f7,65d6bc8e55338e31f88becbe,0.1872,0.1874,0,42,42,71,1,fourthree,,,,,,,,,,,,,,,,,,,,,,,,,,,,,,,,,,,,,,,,,,,,,,,,,,,,,,,,,,,,,,,,,,,,,,,,,,,,,,,,,,,,,,,,,,,,,,,,,,,,,,,,,,,,,,,,,,,,,,,,,,,,,,,,,,,,,,,,,
,,5b11d226e9270900013c3029,2024-02-21_21h21.48.590,kallum_motion_pilot,2023.2.2,Win32,1.463271876,5b11d226e9270900013c3029,65d6bb0e977760de756971f7,65d6bc8e55338e31f88becbe,0.188,0.1883,0,43,43,76,1,threeone,,,,,,,,,,,,,,,,,,,,,,,,,,,,,,,,,,,,,,,,,,,,,,,,,,,,,,,,,,,,,,,,,,,,,,,,,,,,,,,,,,,,,,,,,,,,,,,,,,,,,,,,,,,,,,,,,,,,,,,,,,,,,,,,,,,,,,,,,
,,5b11d226e9270900013c3029,2024-02-21_21h21.48.590,kallum_motion_pilot,2023.2.2,Win32,1.463271876,5b11d226e9270900013c3029,65d6bb0e977760de756971f7,65d6bc8e55338e31f88becbe,0.1889,0.1892,0,44,44,1,1,onethree,,,,,,,,,,,,,,,,,,,,,,,,,,,,,,,,,,,,,,,,,,,,,,,,,,,,,,,,,,,,,,,,,,,,,,,,,,,,,,,,,,,,,,,,,,,,,,,,,,,,,,,,,,,,,,,,,,,,,,,,,,,,,,,,,,,,,,,,,
,,5b11d226e9270900013c3029,2024-02-21_21h21.48.590,kallum_motion_pilot,2023.2.2,Win32,1.463271876,5b11d226e9270900013c3029,65d6bb0e977760de756971f7,65d6bc8e55338e31f88becbe,0.1896,0.1898,0,45,45,84,1,sevenfive,,,,,,,,,,,,,,,,,,,,,,,,,,,,,,,,,,,,,,,,,,,,,,,,,,,,,,,,,,,,,,,,,,,,,,,,,,,,,,,,,,,,,,,,,,,,,,,,,,,,,,,,,,,,,,,,,,,,,,,,,,,,,,,,,,,,,,,,,
,,5b11d226e9270900013c3029,2024-02-21_21h21.48.590,kallum_motion_pilot,2023.2.2,Win32,1.463271876,5b11d226e9270900013c3029,65d6bb0e977760de756971f7,65d6bc8e55338e31f88becbe,0.1903,0.1905,0,46,46,150,1,eightsix,,,,,,,,,,,,,,,,,,,,,,,,,,,,,,,,,,,,,,,,,,,,,,,,,,,,,,,,,,,,,,,,,,,,,,,,,,,,,,,,,,,,,,,,,,,,,,,,,,,,,,,,,,,,,,,,,,,,,,,,,,,,,,,,,,,,,,,,,
,,5b11d226e9270900013c3029,2024-02-21_21h21.48.590,kallum_motion_pilot,2023.2.2,Win32,1.463271876,5b11d226e9270900013c3029,65d6bb0e977760de756971f7,65d6bc8e55338e31f88becbe,0.1911,0.1915,0,47,47,74,1,twoone,,,,,,,,,,,,,,,,,,,,,,,,,,,,,,,,,,,,,,,,,,,,,,,,,,,,,,,,,,,,,,,,,,,,,,,,,,,,,,,,,,,,,,,,,,,,,,,,,,,,,,,,,,,,,,,,,,,,,,,,,,,,,,,,,,,,,,,,,
,,5b11d226e9270900013c3029,2024-02-21_21h21.48.590,kallum_motion_pilot,2023.2.2,Win32,1.463271876,5b11d226e9270900013c3029,65d6bb0e977760de756971f7,65d6bc8e55338e31f88becbe,0.1923,0.1926,0,48,48,68,1,threeone,,,,,,,,,,,,,,,,,,,,,,,,,,,,,,,,,,,,,,,,,,,,,,,,,,,,,,,,,,,,,,,,,,,,,,,,,,,,,,,,,,,,,,,,,,,,,,,,,,,,,,,,,,,,,,,,,,,,,,,,,,,,,,,,,,,,,,,,,
,,5b11d226e9270900013c3029,2024-02-21_21h21.48.590,kallum_motion_pilot,2023.2.2,Win32,1.463271876,5b11d226e9270900013c3029,65d6bb0e977760de756971f7,65d6bc8e55338e31f88becbe,0.1941,0.1944,0,49,49,104,1,fivesix,,,,,,,,,,,,,,,,,,,,,,,,,,,,,,,,,,,,,,,,,,,,,,,,,,,,,,,,,,,,,,,,,,,,,,,,,,,,,,,,,,,,,,,,,,,,,,,,,,,,,,,,,,,,,,,,,,,,,,,,,,,,,,,,,,,,,,,,,
,,5b11d226e9270900013c3029,2024-02-21_21h21.48.590,kallum_motion_pilot,2023.2.2,Win32,1.463271876,5b11d226e9270900013c3029,65d6bb0e977760de756971f7,65d6bc8e55338e31f88becbe,0.195,0.1951,0,50,50,56,1,onetwo,,,,,,,,,,,,,,,,,,,,,,,,,,,,,,,,,,,,,,,,,,,,,,,,,,,,,,,,,,,,,,,,,,,,,,,,,,,,,,,,,,,,,,,,,,,,,,,,,,,,,,,,,,,,,,,,,,,,,,,,,,,,,,,,,,,,,,,,,
,,5b11d226e9270900013c3029,2024-02-21_21h21.48.590,kallum_motion_pilot,2023.2.2,Win32,1.463271876,5b11d226e9270900013c3029,65d6bb0e977760de756971f7,65d6bc8e55338e31f88becbe,0.1956,0.1957,0,51,51,79,1,eightseven,,,,,,,,,,,,,,,,,,,,,,,,,,,,,,,,,,,,,,,,,,,,,,,,,,,,,,,,,,,,,,,,,,,,,,,,,,,,,,,,,,,,,,,,,,,,,,,,,,,,,,,,,,,,,,,,,,,,,,,,,,,,,,,,,,,,,,,,,
,,5b11d226e9270900013c3029,2024-02-21_21h21.48.590,kallum_motion_pilot,2023.2.2,Win32,1.463271876,5b11d226e9270900013c3029,65d6bb0e977760de756971f7,65d6bc8e55338e31f88becbe,0.1964,0.1965,0,52,52,52,1,threeone,,,,,,,,,,,,,,,,,,,,,,,,,,,,,,,,,,,,,,,,,,,,,,,,,,,,,,,,,,,,,,,,,,,,,,,,,,,,,,,,,,,,,,,,,,,,,,,,,,,,,,,,,,,,,,,,,,,,,,,,,,,,,,,,,,,,,,,,,
,,5b11d226e9270900013c3029,2024-02-21_21h21.48.590,kallum_motion_pilot,2023.2.2,Win32,1.463271876,5b11d226e9270900013c3029,65d6bb0e977760de756971f7,65d6bc8e55338e31f88becbe,0.1969,0.1972,0,53,53,108,1,sevenfive,,,,,,,,,,,,,,,,,,,,,,,,,,,,,,,,,,,,,,,,,,,,,,,,,,,,,,,,,,,,,,,,,,,,,,,,,,,,,,,,,,,,,,,,,,,,,,,,,,,,,,,,,,,,,,,,,,,,,,,,,,,,,,,,,,,,,,,,,
,,5b11d226e9270900013c3029,2024-02-21_21h21.48.590,kallum_motion_pilot,2023.2.2,Win32,1.463271876,5b11d226e9270900013c3029,65d6bb0e977760de756971f7,65d6bc8e55338e31f88becbe,0.1976,0.1978,0,54,54,57,1,onethree,,,,,,,,,,,,,,,,,,,,,,,,,,,,,,,,,,,,,,,,,,,,,,,,,,,,,,,,,,,,,,,,,,,,,,,,,,,,,,,,,,,,,,,,,,,,,,,,,,,,,,,,,,,,,,,,,,,,,,,,,,,,,,,,,,,,,,,,,
,,5b11d226e9270900013c3029,2024-02-21_21h21.48.590,kallum_motion_pilot,2023.2.2,Win32,1.463271876,5b11d226e9270900013c3029,65d6bb0e977760de756971f7,65d6bc8e55338e31f88becbe,0.1982,0.1983,0,55,55,149,1,seveneight,,,,,,,,,,,,,,,,,,,,,,,,,,,,,,,,,,,,,,,,,,,,,,,,,,,,,,,,,,,,,,,,,,,,,,,,,,,,,,,,,,,,,,,,,,,,,,,,,,,,,,,,,,,,,,,,,,,,,,,,,,,,,,,,,,,,,,,,,
,,5b11d226e9270900013c3029,2024-02-21_21h21.48.590,kallum_motion_pilot,2023.2.2,Win32,1.463271876,5b11d226e9270900013c3029,65d6bb0e977760de756971f7,65d6bc8e55338e31f88becbe,0.1988,0.1989,0,56,56,111,1,eightseven,,,,,,,,,,,,,,,,,,,,,,,,,,,,,,,,,,,,,,,,,,,,,,,,,,,,,,,,,,,,,,,,,,,,,,,,,,,,,,,,,,,,,,,,,,,,,,,,,,,,,,,,,,,,,,,,,,,,,,,,,,,,,,,,,,,,,,,,,
,,5b11d226e9270900013c3029,2024-02-21_21h21.48.590,kallum_motion_pilot,2023.2.2,Win32,1.463271876,5b11d226e9270900013c3029,65d6bb0e977760de756971f7,65d6bc8e55338e31f88becbe,0.1993,0.1995,0,57,57,75,1,twofour,,,,,,,,,,,,,,,,,,,,,,,,,,,,,,,,,,,,,,,,,,,,,,,,,,,,,,,,,,,,,,,,,,,,,,,,,,,,,,,,,,,,,,,,,,,,,,,,,,,,,,,,,,,,,,,,,,,,,,,,,,,,,,,,,,,,,,,,,
,,5b11d226e9270900013c3029,2024-02-21_21h21.48.590,kallum_motion_pilot,2023.2.2,Win32,1.463271876,5b11d226e9270900013c3029,65d6bb0e977760de756971f7,65d6bc8e55338e31f88becbe,0.1999,0.2002,0,58,58,77,1,threefour,,,,,,,,,,,,,,,,,,,,,,,,,,,,,,,,,,,,,,,,,,,,,,,,,,,,,,,,,,,,,,,,,,,,,,,,,,,,,,,,,,,,,,,,,,,,,,,,,,,,,,,,,,,,,,,,,,,,,,,,,,,,,,,,,,,,,,,,,
,,5b11d226e9270900013c3029,2024-02-21_21h21.48.590,kallum_motion_pilot,2023.2.2,Win32,1.463271876,5b11d226e9270900013c3029,65d6bb0e977760de756971f7,65d6bc8e55338e31f88becbe,0.2007,0.2008,0,59,59,94,1,eightsix,,,,,,,,,,,,,,,,,,,,,,,,,,,,,,,,,,,,,,,,,,,,,,,,,,,,,,,,,,,,,,,,,,,,,,,,,,,,,,,,,,,,,,,,,,,,,,,,,,,,,,,,,,,,,,,,,,,,,,,,,,,,,,,,,,,,,,,,,
,,5b11d226e9270900013c3029,2024-02-21_21h21.48.590,kallum_motion_pilot,2023.2.2,Win32,1.463271876,5b11d226e9270900013c3029,65d6bb0e977760de756971f7,65d6bc8e55338e31f88becbe,0.2014,0.2016,0,60,60,20,1,threeone,,,,,,,,,,,,,,,,,,,,,,,,,,,,,,,,,,,,,,,,,,,,,,,,,,,,,,,,,,,,,,,,,,,,,,,,,,,,,,,,,,,,,,,,,,,,,,,,,,,,,,,,,,,,,,,,,,,,,,,,,,,,,,,,,,,,,,,,,
,,5b11d226e9270900013c3029,2024-02-21_21h21.48.590,kallum_motion_pilot,2023.2.2,Win32,1.463271876,5b11d226e9270900013c3029,65d6bb0e977760de756971f7,65d6bc8e55338e31f88becbe,0.2021,0.2023,0,61,61,53,1,threefour,,,,,,,,,,,,,,,,,,,,,,,,,,,,,,,,,,,,,,,,,,,,,,,,,,,,,,,,,,,,,,,,,,,,,,,,,,,,,,,,,,,,,,,,,,,,,,,,,,,,,,,,,,,,,,,,,,,,,,,,,,,,,,,,,,,,,,,,,
,,5b11d226e9270900013c3029,2024-02-21_21h21.48.590,kallum_motion_pilot,2023.2.2,Win32,1.463271876,5b11d226e9270900013c3029,65d6bb0e977760de756971f7,65d6bc8e55338e31f88becbe,0.2029,0.203,0,62,62,41,1,onethree,,,,,,,,,,,,,,,,,,,,,,,,,,,,,,,,,,,,,,,,,,,,,,,,,,,,,,,,,,,,,,,,,,,,,,,,,,,,,,,,,,,,,,,,,,,,,,,,,,,,,,,,,,,,,,,,,,,,,,,,,,,,,,,,,,,,,,,,,
,,5b11d226e9270900013c3029,2024-02-21_21h21.48.590,kallum_motion_pilot,2023.2.2,Win32,1.463271876,5b11d226e9270900013c3029,65d6bb0e977760de756971f7,65d6bc8e55338e31f88becbe,0.2037,0.204,0,63,63,3,1,twofour,,,,,,,,,,,,,,,,,,,,,,,,,,,,,,,,,,,,,,,,,,,,,,,,,,,,,,,,,,,,,,,,,,,,,,,,,,,,,,,,,,,,,,,,,,,,,,,,,,,,,,,,,,,,,,,,,,,,,,,,,,,,,,,,,,,,,,,,,
,,5b11d226e9270900013c3029,2024-02-21_21h21.48.590,kallum_motion_pilot,2023.2.2,Win32,1.463271876,5b11d226e9270900013c3029,65d6bb0e977760de756971f7,65d6bc8e55338e31f88becbe,0.2045,0.2047,0,64,64,140,1,sevenfive,,,,,,,,,,,,,,,,,,,,,,,,,,,,,,,,,,,,,,,,,,,,,,,,,,,,,,,,,,,,,,,,,,,,,,,,,,,,,,,,,,,,,,,,,,,,,,,,,,,,,,,,,,,,,,,,,,,,,,,,,,,,,,,,,,,,,,,,,
,,5b11d226e9270900013c3029,2024-02-21_21h21.48.590,kallum_motion_pilot,2023.2.2,Win32,1.463271876,5b11d226e9270900013c3029,65d6bb0e977760de756971f7,65d6bc8e55338e31f88becbe,0.2052,0.2054,0,65,65,82,1,sixfive,,,,,,,,,,,,,,,,,,,,,,,,,,,,,,,,,,,,,,,,,,,,,,,,,,,,,,,,,,,,,,,,,,,,,,,,,,,,,,,,,,,,,,,,,,,,,,,,,,,,,,,,,,,,,,,,,,,,,,,,,,,,,,,,,,,,,,,,,
,,5b11d226e9270900013c3029,2024-02-21_21h21.48.590,kallum_motion_pilot,2023.2.2,Win32,1.463271876,5b11d226e9270900013c3029,65d6bb0e977760de756971f7,65d6bc8e55338e31f88becbe,0.2059,0.206,0,66,66,27,1,twofour,,,,,,,,,,,,,,,,,,,,,,,,,,,,,,,,,,,,,,,,,,,,,,,,,,,,,,,,,,,,,,,,,,,,,,,,,,,,,,,,,,,,,,,,,,,,,,,,,,,,,,,,,,,,,,,,,,,,,,,,,,,,,,,,,,,,,,,,,
,,5b11d226e9270900013c3029,2024-02-21_21h21.48.590,kallum_motion_pilot,2023.2.2,Win32,1.463271876,5b11d226e9270900013c3029,65d6bb0e977760de756971f7,65d6bc8e55338e31f88becbe,0.2066,0.2072,0,67,67,14,1,fourtwo,,,,,,,,,,,,,,,,,,,,,,,,,,,,,,,,,,,,,,,,,,,,,,,,,,,,,,,,,,,,,,,,,,,,,,,,,,,,,,,,,,,,,,,,,,,,,,,,,,,,,,,,,,,,,,,,,,,,,,,,,,,,,,,,,,,,,,,,,
,,5b11d226e9270900013c3029,2024-02-21_21h21.48.590,kallum_motion_pilot,2023.2.2,Win32,1.463271876,5b11d226e9270900013c3029,65d6bb0e977760de756971f7,65d6bc8e55338e31f88becbe,0.2078,0.208,0,68,68,11,1,twofour,,,,,,,,,,,,,,,,,,,,,,,,,,,,,,,,,,,,,,,,,,,,,,,,,,,,,,,,,,,,,,,,,,,,,,,,,,,,,,,,,,,,,,,,,,,,,,,,,,,,,,,,,,,,,,,,,,,,,,,,,,,,,,,,,,,,,,,,,
,,5b11d226e9270900013c3029,2024-02-21_21h21.48.590,kallum_motion_pilot,2023.2.2,Win32,1.463271876,5b11d226e9270900013c3029,65d6bb0e977760de756971f7,65d6bc8e55338e31f88becbe,0.2085,0.2086,0,69,69,107,1,sixeight,,,,,,,,,,,,,,,,,,,,,,,,,,,,,,,,,,,,,,,,,,,,,,,,,,,,,,,,,,,,,,,,,,,,,,,,,,,,,,,,,,,,,,,,,,,,,,,,,,,,,,,,,,,,,,,,,,,,,,,,,,,,,,,,,,,,,,,,,
,,5b11d226e9270900013c3029,2024-02-21_21h21.48.590,kallum_motion_pilot,2023.2.2,Win32,1.463271876,5b11d226e9270900013c3029,65d6bb0e977760de756971f7,65d6bc8e55338e31f88becbe,0.209,0.2091,0,70,70,55,1,fourthree,,,,,,,,,,,,,,,,,,,,,,,,,,,,,,,,,,,,,,,,,,,,,,,,,,,,,,,,,,,,,,,,,,,,,,,,,,,,,,,,,,,,,,,,,,,,,,,,,,,,,,,,,,,,,,,,,,,,,,,,,,,,,,,,,,,,,,,,,
,,5b11d226e9270900013c3029,2024-02-21_21h21.48.590,kallum_motion_pilot,2023.2.2,Win32,1.463271876,5b11d226e9270900013c3029,65d6bb0e977760de756971f7,65d6bc8e55338e31f88becbe,0.2095,0.2096,0,71,71,17,1,onethree,,,,,,,,,,,,,,,,,,,,,,,,,,,,,,,,,,,,,,,,,,,,,,,,,,,,,,,,,,,,,,,,,,,,,,,,,,,,,,,,,,,,,,,,,,,,,,,,,,,,,,,,,,,,,,,,,,,,,,,,,,,,,,,,,,,,,,,,,
,,5b11d226e9270900013c3029,2024-02-21_21h21.48.590,kallum_motion_pilot,2023.2.2,Win32,1.463271876,5b11d226e9270900013c3029,65d6bb0e977760de756971f7,65d6bc8e55338e31f88becbe,0.2099,0.21,0,72,72,102,1,eightsix,,,,,,,,,,,,,,,,,,,,,,,,,,,,,,,,,,,,,,,,,,,,,,,,,,,,,,,,,,,,,,,,,,,,,,,,,,,,,,,,,,,,,,,,,,,,,,,,,,,,,,,,,,,,,,,,,,,,,,,,,,,,,,,,,,,,,,,,,
,,5b11d226e9270900013c3029,2024-02-21_21h21.48.590,kallum_motion_pilot,2023.2.2,Win32,1.463271876,5b11d226e9270900013c3029,65d6bb0e977760de756971f7,65d6bc8e55338e31f88becbe,0.2104,0.2105,0,73,73,105,1,fiveseven,,,,,,,,,,,,,,,,,,,,,,,,,,,,,,,,,,,,,,,,,,,,,,,,,,,,,,,,,,,,,,,,,,,,,,,,,,,,,,,,,,,,,,,,,,,,,,,,,,,,,,,,,,,,,,,,,,,,,,,,,,,,,,,,,,,,,,,,,
,,5b11d226e9270900013c3029,2024-02-21_21h21.48.590,kallum_motion_pilot,2023.2.2,Win32,1.463271876,5b11d226e9270900013c3029,65d6bb0e977760de756971f7,65d6bc8e55338e31f88becbe,0.211,0.2112,0,74,74,32,1,onetwo,,,,,,,,,,,,,,,,,,,,,,,,,,,,,,,,,,,,,,,,,,,,,,,,,,,,,,,,,,,,,,,,,,,,,,,,,,,,,,,,,,,,,,,,,,,,,,,,,,,,,,,,,,,,,,,,,,,,,,,,,,,,,,,,,,,,,,,,,
,,5b11d226e9270900013c3029,2024-02-21_21h21.48.590,kallum_motion_pilot,2023.2.2,Win32,1.463271876,5b11d226e9270900013c3029,65d6bb0e977760de756971f7,65d6bc8e55338e31f88becbe,0.2115,0.2116,0,75,75,78,1,fourtwo,,,,,,,,,,,,,,,,,,,,,,,,,,,,,,,,,,,,,,,,,,,,,,,,,,,,,,,,,,,,,,,,,,,,,,,,,,,,,,,,,,,,,,,,,,,,,,,,,,,,,,,,,,,,,,,,,,,,,,,,,,,,,,,,,,,,,,,,,
,,5b11d226e9270900013c3029,2024-02-21_21h21.48.590,kallum_motion_pilot,2023.2.2,Win32,1.463271876,5b11d226e9270900013c3029,65d6bb0e977760de756971f7,65d6bc8e55338e31f88becbe,0.2121,0.2123,0,76,76,54,1,fourtwo,,,,,,,,,,,,,,,,,,,,,,,,,,,,,,,,,,,,,,,,,,,,,,,,,,,,,,,,,,,,,,,,,,,,,,,,,,,,,,,,,,,,,,,,,,,,,,,,,,,,,,,,,,,,,,,,,,,,,,,,,,,,,,,,,,,,,,,,,
,,5b11d226e9270900013c3029,2024-02-21_21h21.48.590,kallum_motion_pilot,2023.2.2,Win32,1.463271876,5b11d226e9270900013c3029,65d6bb0e977760de756971f7,65d6bc8e55338e31f88becbe,0.2126,0.2127,0,77,77,51,1,twofour,,,,,,,,,,,,,,,,,,,,,,,,,,,,,,,,,,,,,,,,,,,,,,,,,,,,,,,,,,,,,,,,,,,,,,,,,,,,,,,,,,,,,,,,,,,,,,,,,,,,,,,,,,,,,,,,,,,,,,,,,,,,,,,,,,,,,,,,,
,,5b11d226e9270900013c3029,2024-02-21_21h21.48.590,kallum_motion_pilot,2023.2.2,Win32,1.463271876,5b11d226e9270900013c3029,65d6bb0e977760de756971f7,65d6bc8e55338e31f88becbe,0.213,0.2131,0,78,78,92,1,sevenfive,,,,,,,,,,,,,,,,,,,,,,,,,,,,,,,,,,,,,,,,,,,,,,,,,,,,,,,,,,,,,,,,,,,,,,,,,,,,,,,,,,,,,,,,,,,,,,,,,,,,,,,,,,,,,,,,,,,,,,,,,,,,,,,,,,,,,,,,,
,,5b11d226e9270900013c3029,2024-02-21_21h21.48.590,kallum_motion_pilot,2023.2.2,Win32,1.463271876,5b11d226e9270900013c3029,65d6bb0e977760de756971f7,65d6bc8e55338e31f88becbe,0.2172,0.2174,0,79,79,2,1,twoone,,,,,,,,,,,,,,,,,,,,,,,,,,,,,,,,,,,,,,,,,,,,,,,,,,,,,,,,,,,,,,,,,,,,,,,,,,,,,,,,,,,,,,,,,,,,,,,,,,,,,,,,,,,,,,,,,,,,,,,,,,,,,,,,,,,,,,,,,
,,5b11d226e9270900013c3029,2024-02-21_21h21.48.590,kallum_motion_pilot,2023.2.2,Win32,1.463271876,5b11d226e9270900013c3029,65d6bb0e977760de756971f7,65d6bc8e55338e31f88becbe,0.2179,0.2181,0,80,80,73,1,onethree,,,,,,,,,,,,,,,,,,,,,,,,,,,,,,,,,,,,,,,,,,,,,,,,,,,,,,,,,,,,,,,,,,,,,,,,,,,,,,,,,,,,,,,,,,,,,,,,,,,,,,,,,,,,,,,,,,,,,,,,,,,,,,,,,,,,,,,,,
,,5b11d226e9270900013c3029,2024-02-21_21h21.48.590,kallum_motion_pilot,2023.2.2,Win32,1.463271876,5b11d226e9270900013c3029,65d6bb0e977760de756971f7,65d6bc8e55338e31f88becbe,0.2183,0.2185,0,81,81,125,1,seveneight,,,,,,,,,,,,,,,,,,,,,,,,,,,,,,,,,,,,,,,,,,,,,,,,,,,,,,,,,,,,,,,,,,,,,,,,,,,,,,,,,,,,,,,,,,,,,,,,,,,,,,,,,,,,,,,,,,,,,,,,,,,,,,,,,,,,,,,,,
,,5b11d226e9270900013c3029,2024-02-21_21h21.48.590,kallum_motion_pilot,2023.2.2,Win32,1.463271876,5b11d226e9270900013c3029,65d6bb0e977760de756971f7,65d6bc8e55338e31f88becbe,0.2188,0.2189,0,82,82,131,1,sixeight,,,,,,,,,,,,,,,,,,,,,,,,,,,,,,,,,,,,,,,,,,,,,,,,,,,,,,,,,,,,,,,,,,,,,,,,,,,,,,,,,,,,,,,,,,,,,,,,,,,,,,,,,,,,,,,,,,,,,,,,,,,,,,,,,,,,,,,,,
,,5b11d226e9270900013c3029,2024-02-21_21h21.48.590,kallum_motion_pilot,2023.2.2,Win32,1.463271876,5b11d226e9270900013c3029,65d6bb0e977760de756971f7,65d6bc8e55338e31f88becbe,0.2192,0.2194,0,83,83,158,1,eightsix,,,,,,,,,,,,,,,,,,,,,,,,,,,,,,,,,,,,,,,,,,,,,,,,,,,,,,,,,,,,,,,,,,,,,,,,,,,,,,,,,,,,,,,,,,,,,,,,,,,,,,,,,,,,,,,,,,,,,,,,,,,,,,,,,,,,,,,,,
,,5b11d226e9270900013c3029,2024-02-21_21h21.48.590,kallum_motion_pilot,2023.2.2,Win32,1.463271876,5b11d226e9270900013c3029,65d6bb0e977760de756971f7,65d6bc8e55338e31f88becbe,0.2197,0.2197,0,84,84,49,1,onethree,,,,,,,,,,,,,,,,,,,,,,,,,,,,,,,,,,,,,,,,,,,,,,,,,,,,,,,,,,,,,,,,,,,,,,,,,,,,,,,,,,,,,,,,,,,,,,,,,,,,,,,,,,,,,,,,,,,,,,,,,,,,,,,,,,,,,,,,,
,,5b11d226e9270900013c3029,2024-02-21_21h21.48.590,kallum_motion_pilot,2023.2.2,Win32,1.463271876,5b11d226e9270900013c3029,65d6bb0e977760de756971f7,65d6bc8e55338e31f88becbe,0.2201,0.2202,0,85,85,148,1,sevenfive,,,,,,,,,,,,,,,,,,,,,,,,,,,,,,,,,,,,,,,,,,,,,,,,,,,,,,,,,,,,,,,,,,,,,,,,,,,,,,,,,,,,,,,,,,,,,,,,,,,,,,,,,,,,,,,,,,,,,,,,,,,,,,,,,,,,,,,,,
,,5b11d226e9270900013c3029,2024-02-21_21h21.48.590,kallum_motion_pilot,2023.2.2,Win32,1.463271876,5b11d226e9270900013c3029,65d6bb0e977760de756971f7,65d6bc8e55338e31f88becbe,0.2205,0.2207,0,86,86,142,1,eightsix,,,,,,,,,,,,,,,,,,,,,,,,,,,,,,,,,,,,,,,,,,,,,,,,,,,,,,,,,,,,,,,,,,,,,,,,,,,,,,,,,,,,,,,,,,,,,,,,,,,,,,,,,,,,,,,,,,,,,,,,,,,,,,,,,,,,,,,,,
,,5b11d226e9270900013c3029,2024-02-21_21h21.48.590,kallum_motion_pilot,2023.2.2,Win32,1.463271876,5b11d226e9270900013c3029,65d6bb0e977760de756971f7,65d6bc8e55338e31f88becbe,0.221,0.2211,0,87,87,47,1,fourthree,,,,,,,,,,,,,,,,,,,,,,,,,,,,,,,,,,,,,,,,,,,,,,,,,,,,,,,,,,,,,,,,,,,,,,,,,,,,,,,,,,,,,,,,,,,,,,,,,,,,,,,,,,,,,,,,,,,,,,,,,,,,,,,,,,,,,,,,,
,,5b11d226e9270900013c3029,2024-02-21_21h21.48.590,kallum_motion_pilot,2023.2.2,Win32,1.463271876,5b11d226e9270900013c3029,65d6bb0e977760de756971f7,65d6bc8e55338e31f88becbe,0.2213,0.2215,0,88,88,18,1,twoone,,,,,,,,,,,,,,,,,,,,,,,,,,,,,,,,,,,,,,,,,,,,,,,,,,,,,,,,,,,,,,,,,,,,,,,,,,,,,,,,,,,,,,,,,,,,,,,,,,,,,,,,,,,,,,,,,,,,,,,,,,,,,,,,,,,,,,,,,
,,5b11d226e9270900013c3029,2024-02-21_21h21.48.590,kallum_motion_pilot,2023.2.2,Win32,1.463271876,5b11d226e9270900013c3029,65d6bb0e977760de756971f7,65d6bc8e55338e31f88becbe,0.2218,0.2221,0,89,89,72,1,onetwo,,,,,,,,,,,,,,,,,,,,,,,,,,,,,,,,,,,,,,,,,,,,,,,,,,,,,,,,,,,,,,,,,,,,,,,,,,,,,,,,,,,,,,,,,,,,,,,,,,,,,,,,,,,,,,,,,,,,,,,,,,,,,,,,,,,,,,,,,
,,5b11d226e9270900013c3029,2024-02-21_21h21.48.590,kallum_motion_pilot,2023.2.2,Win32,1.463271876,5b11d226e9270900013c3029,65d6bb0e977760de756971f7,65d6bc8e55338e31f88becbe,0.2223,0.2224,0,90,90,161,1,fiveseven,,,,,,,,,,,,,,,,,,,,,,,,,,,,,,,,,,,,,,,,,,,,,,,,,,,,,,,,,,,,,,,,,,,,,,,,,,,,,,,,,,,,,,,,,,,,,,,,,,,,,,,,,,,,,,,,,,,,,,,,,,,,,,,,,,,,,,,,,
,,5b11d226e9270900013c3029,2024-02-21_21h21.48.590,kallum_motion_pilot,2023.2.2,Win32,1.463271876,5b11d226e9270900013c3029,65d6bb0e977760de756971f7,65d6bc8e55338e31f88becbe,0.2228,0.2229,0,91,91,44,1,threeone,,,,,,,,,,,,,,,,,,,,,,,,,,,,,,,,,,,,,,,,,,,,,,,,,,,,,,,,,,,,,,,,,,,,,,,,,,,,,,,,,,,,,,,,,,,,,,,,,,,,,,,,,,,,,,,,,,,,,,,,,,,,,,,,,,,,,,,,,
,,5b11d226e9270900013c3029,2024-02-21_21h21.48.590,kallum_motion_pilot,2023.2.2,Win32,1.463271876,5b11d226e9270900013c3029,65d6bb0e977760de756971f7,65d6bc8e55338e31f88becbe,0.2232,0.2233,0,92,92,133,1,seveneight,,,,,,,,,,,,,,,,,,,,,,,,,,,,,,,,,,,,,,,,,,,,,,,,,,,,,,,,,,,,,,,,,,,,,,,,,,,,,,,,,,,,,,,,,,,,,,,,,,,,,,,,,,,,,,,,,,,,,,,,,,,,,,,,,,,,,,,,,
,,5b11d226e9270900013c3029,2024-02-21_21h21.48.590,kallum_motion_pilot,2023.2.2,Win32,1.463271876,5b11d226e9270900013c3029,65d6bb0e977760de756971f7,65d6bc8e55338e31f88becbe,0.2236,0.2238,0,93,93,29,1,threefour,,,,,,,,,,,,,,,,,,,,,,,,,,,,,,,,,,,,,,,,,,,,,,,,,,,,,,,,,,,,,,,,,,,,,,,,,,,,,,,,,,,,,,,,,,,,,,,,,,,,,,,,,,,,,,,,,,,,,,,,,,,,,,,,,,,,,,,,,
,,5b11d226e9270900013c3029,2024-02-21_21h21.48.590,kallum_motion_pilot,2023.2.2,Win32,1.463271876,5b11d226e9270900013c3029,65d6bb0e977760de756971f7,65d6bc8e55338e31f88becbe,0.2242,0.2243,0,94,94,144,1,fivesix,,,,,,,,,,,,,,,,,,,,,,,,,,,,,,,,,,,,,,,,,,,,,,,,,,,,,,,,,,,,,,,,,,,,,,,,,,,,,,,,,,,,,,,,,,,,,,,,,,,,,,,,,,,,,,,,,,,,,,,,,,,,,,,,,,,,,,,,,
,,5b11d226e9270900013c3029,2024-02-21_21h21.48.590,kallum_motion_pilot,2023.2.2,Win32,1.463271876,5b11d226e9270900013c3029,65d6bb0e977760de756971f7,65d6bc8e55338e31f88becbe,0.2247,0.2249,0,95,95,50,1,twoone,,,,,,,,,,,,,,,,,,,,,,,,,,,,,,,,,,,,,,,,,,,,,,,,,,,,,,,,,,,,,,,,,,,,,,,,,,,,,,,,,,,,,,,,,,,,,,,,,,,,,,,,,,,,,,,,,,,,,,,,,,,,,,,,,,,,,,,,,
,,5b11d226e9270900013c3029,2024-02-21_21h21.48.590,kallum_motion_pilot,2023.2.2,Win32,1.463271876,5b11d226e9270900013c3029,65d6bb0e977760de756971f7,65d6bc8e55338e31f88becbe,0.2253,0.2255,0,96,96,90,1,sixfive,,,,,,,,,,,,,,,,,,,,,,,,,,,,,,,,,,,,,,,,,,,,,,,,,,,,,,,,,,,,,,,,,,,,,,,,,,,,,,,,,,,,,,,,,,,,,,,,,,,,,,,,,,,,,,,,,,,,,,,,,,,,,,,,,,,,,,,,,
,,5b11d226e9270900013c3029,2024-02-21_21h21.48.590,kallum_motion_pilot,2023.2.2,Win32,1.463271876,5b11d226e9270900013c3029,65d6bb0e977760de756971f7,65d6bc8e55338e31f88becbe,0.2259,0.2261,0,97,97,37,1,threefour,,,,,,,,,,,,,,,,,,,,,,,,,,,,,,,,,,,,,,,,,,,,,,,,,,,,,,,,,,,,,,,,,,,,,,,,,,,,,,,,,,,,,,,,,,,,,,,,,,,,,,,,,,,,,,,,,,,,,,,,,,,,,,,,,,,,,,,,,
,,5b11d226e9270900013c3029,2024-02-21_21h21.48.590,kallum_motion_pilot,2023.2.2,Win32,1.463271876,5b11d226e9270900013c3029,65d6bb0e977760de756971f7,65d6bc8e55338e31f88becbe,0.2266,0.2271,0,98,98,151,1,eightseven,,,,,,,,,,,,,,,,,,,,,,,,,,,,,,,,,,,,,,,,,,,,,,,,,,,,,,,,,,,,,,,,,,,,,,,,,,,,,,,,,,,,,,,,,,,,,,,,,,,,,,,,,,,,,,,,,,,,,,,,,,,,,,,,,,,,,,,,,
,,5b11d226e9270900013c3029,2024-02-21_21h21.48.590,kallum_motion_pilot,2023.2.2,Win32,1.463271876,5b11d226e9270900013c3029,65d6bb0e977760de756971f7,65d6bc8e55338e31f88becbe,0.2279,0.2282,0,99,99,8,1,onetwo,,,,,,,,,,,,,,,,,,,,,,,,,,,,,,,,,,,,,,,,,,,,,,,,,,,,,,,,,,,,,,,,,,,,,,,,,,,,,,,,,,,,,,,,,,,,,,,,,,,,,,,,,,,,,,,,,,,,,,,,,,,,,,,,,,,,,,,,,
,,5b11d226e9270900013c3029,2024-02-21_21h21.48.590,kallum_motion_pilot,2023.2.2,Win32,1.463271876,5b11d226e9270900013c3029,65d6bb0e977760de756971f7,65d6bc8e55338e31f88becbe,0.2295,0.2298,0,100,100,139,1,sixeight,,,,,,,,,,,,,,,,,,,,,,,,,,,,,,,,,,,,,,,,,,,,,,,,,,,,,,,,,,,,,,,,,,,,,,,,,,,,,,,,,,,,,,,,,,,,,,,,,,,,,,,,,,,,,,,,,,,,,,,,,,,,,,,,,,,,,,,,,
,,5b11d226e9270900013c3029,2024-02-21_21h21.48.590,kallum_motion_pilot,2023.2.2,Win32,1.463271876,5b11d226e9270900013c3029,65d6bb0e977760de756971f7,65d6bc8e55338e31f88becbe,0.2304,0.2306,0,101,101,99,1,sixeight,,,,,,,,,,,,,,,,,,,,,,,,,,,,,,,,,,,,,,,,,,,,,,,,,,,,,,,,,,,,,,,,,,,,,,,,,,,,,,,,,,,,,,,,,,,,,,,,,,,,,,,,,,,,,,,,,,,,,,,,,,,,,,,,,,,,,,,,,
,,5b11d226e9270900013c3029,2024-02-21_21h21.48.590,kallum_motion_pilot,2023.2.2,Win32,1.463271876,5b11d226e9270900013c3029,65d6bb0e977760de756971f7,65d6bc8e55338e31f88becbe,0.2309,0.231,0,102,102,154,1,sixfive,,,,,,,,,,,,,,,,,,,,,,,,,,,,,,,,,,,,,,,,,,,,,,,,,,,,,,,,,,,,,,,,,,,,,,,,,,,,,,,,,,,,,,,,,,,,,,,,,,,,,,,,,,,,,,,,,,,,,,,,,,,,,,,,,,,,,,,,,
,,5b11d226e9270900013c3029,2024-02-21_21h21.48.590,kallum_motion_pilot,2023.2.2,Win32,1.463271876,5b11d226e9270900013c3029,65d6bb0e977760de756971f7,65d6bc8e55338e31f88becbe,0.2313,0.2315,0,103,103,60,1,threeone,,,,,,,,,,,,,,,,,,,,,,,,,,,,,,,,,,,,,,,,,,,,,,,,,,,,,,,,,,,,,,,,,,,,,,,,,,,,,,,,,,,,,,,,,,,,,,,,,,,,,,,,,,,,,,,,,,,,,,,,,,,,,,,,,,,,,,,,,
,,5b11d226e9270900013c3029,2024-02-21_21h21.48.590,kallum_motion_pilot,2023.2.2,Win32,1.463271876,5b11d226e9270900013c3029,65d6bb0e977760de756971f7,65d6bc8e55338e31f88becbe,0.2318,0.2319,0,104,104,80,1,fivesix,,,,,,,,,,,,,,,,,,,,,,,,,,,,,,,,,,,,,,,,,,,,,,,,,,,,,,,,,,,,,,,,,,,,,,,,,,,,,,,,,,,,,,,,,,,,,,,,,,,,,,,,,,,,,,,,,,,,,,,,,,,,,,,,,,,,,,,,,
,,5b11d226e9270900013c3029,2024-02-21_21h21.48.590,kallum_motion_pilot,2023.2.2,Win32,1.463271876,5b11d226e9270900013c3029,65d6bb0e977760de756971f7,65d6bc8e55338e31f88becbe,0.2322,0.2324,0,105,105,91,1,sixeight,,,,,,,,,,,,,,,,,,,,,,,,,,,,,,,,,,,,,,,,,,,,,,,,,,,,,,,,,,,,,,,,,,,,,,,,,,,,,,,,,,,,,,,,,,,,,,,,,,,,,,,,,,,,,,,,,,,,,,,,,,,,,,,,,,,,,,,,,
,,5b11d226e9270900013c3029,2024-02-21_21h21.48.590,kallum_motion_pilot,2023.2.2,Win32,1.463271876,5b11d226e9270900013c3029,65d6bb0e977760de756971f7,65d6bc8e55338e31f88becbe,0.2327,0.2328,0,106,106,36,1,threeone,,,,,,,,,,,,,,,,,,,,,,,,,,,,,,,,,,,,,,,,,,,,,,,,,,,,,,,,,,,,,,,,,,,,,,,,,,,,,,,,,,,,,,,,,,,,,,,,,,,,,,,,,,,,,,,,,,,,,,,,,,,,,,,,,,,,,,,,,
,,5b11d226e9270900013c3029,2024-02-21_21h21.48.590,kallum_motion_pilot,2023.2.2,Win32,1.463271876,5b11d226e9270900013c3029,65d6bb0e977760de756971f7,65d6bc8e55338e31f88becbe,0.2331,0.2333,0,107,107,146,1,sixfive,,,,,,,,,,,,,,,,,,,,,,,,,,,,,,,,,,,,,,,,,,,,,,,,,,,,,,,,,,,,,,,,,,,,,,,,,,,,,,,,,,,,,,,,,,,,,,,,,,,,,,,,,,,,,,,,,,,,,,,,,,,,,,,,,,,,,,,,,
,,5b11d226e9270900013c3029,2024-02-21_21h21.48.590,kallum_motion_pilot,2023.2.2,Win32,1.463271876,5b11d226e9270900013c3029,65d6bb0e977760de756971f7,65d6bc8e55338e31f88becbe,0.2336,0.2338,0,108,108,121,1,fiveseven,,,,,,,,,,,,,,,,,,,,,,,,,,,,,,,,,,,,,,,,,,,,,,,,,,,,,,,,,,,,,,,,,,,,,,,,,,,,,,,,,,,,,,,,,,,,,,,,,,,,,,,,,,,,,,,,,,,,,,,,,,,,,,,,,,,,,,,,,
,,5b11d226e9270900013c3029,2024-02-21_21h21.48.590,kallum_motion_pilot,2023.2.2,Win32,1.463271876,5b11d226e9270900013c3029,65d6bb0e977760de756971f7,65d6bc8e55338e31f88becbe,0.234,0.2342,0,109,109,58,1,twoone,,,,,,,,,,,,,,,,,,,,,,,,,,,,,,,,,,,,,,,,,,,,,,,,,,,,,,,,,,,,,,,,,,,,,,,,,,,,,,,,,,,,,,,,,,,,,,,,,,,,,,,,,,,,,,,,,,,,,,,,,,,,,,,,,,,,,,,,,
,,5b11d226e9270900013c3029,2024-02-21_21h21.48.590,kallum_motion_pilot,2023.2.2,Win32,1.463271876,5b11d226e9270900013c3029,65d6bb0e977760de756971f7,65d6bc8e55338e31f88becbe,0.2345,0.2346,0,110,110,136,1,fivesix,,,,,,,,,,,,,,,,,,,,,,,,,,,,,,,,,,,,,,,,,,,,,,,,,,,,,,,,,,,,,,,,,,,,,,,,,,,,,,,,,,,,,,,,,,,,,,,,,,,,,,,,,,,,,,,,,,,,,,,,,,,,,,,,,,,,,,,,,
,,5b11d226e9270900013c3029,2024-02-21_21h21.48.590,kallum_motion_pilot,2023.2.2,Win32,1.463271876,5b11d226e9270900013c3029,65d6bb0e977760de756971f7,65d6bc8e55338e31f88becbe,0.2349,0.2351,0,111,111,137,1,fiveseven,,,,,,,,,,,,,,,,,,,,,,,,,,,,,,,,,,,,,,,,,,,,,,,,,,,,,,,,,,,,,,,,,,,,,,,,,,,,,,,,,,,,,,,,,,,,,,,,,,,,,,,,,,,,,,,,,,,,,,,,,,,,,,,,,,,,,,,,,
,,5b11d226e9270900013c3029,2024-02-21_21h21.48.590,kallum_motion_pilot,2023.2.2,Win32,1.463271876,5b11d226e9270900013c3029,65d6bb0e977760de756971f7,65d6bc8e55338e31f88becbe,0.2353,0.2355,0,112,112,159,1,eightseven,,,,,,,,,,,,,,,,,,,,,,,,,,,,,,,,,,,,,,,,,,,,,,,,,,,,,,,,,,,,,,,,,,,,,,,,,,,,,,,,,,,,,,,,,,,,,,,,,,,,,,,,,,,,,,,,,,,,,,,,,,,,,,,,,,,,,,,,,
,,5b11d226e9270900013c3029,2024-02-21_21h21.48.590,kallum_motion_pilot,2023.2.2,Win32,1.463271876,5b11d226e9270900013c3029,65d6bb0e977760de756971f7,65d6bc8e55338e31f88becbe,0.2358,0.236,0,113,113,97,1,fiveseven,,,,,,,,,,,,,,,,,,,,,,,,,,,,,,,,,,,,,,,,,,,,,,,,,,,,,,,,,,,,,,,,,,,,,,,,,,,,,,,,,,,,,,,,,,,,,,,,,,,,,,,,,,,,,,,,,,,,,,,,,,,,,,,,,,,,,,,,,
,,5b11d226e9270900013c3029,2024-02-21_21h21.48.590,kallum_motion_pilot,2023.2.2,Win32,1.463271876,5b11d226e9270900013c3029,65d6bb0e977760de756971f7,65d6bc8e55338e31f88becbe,0.2363,0.2364,0,114,114,93,1,seveneight,,,,,,,,,,,,,,,,,,,,,,,,,,,,,,,,,,,,,,,,,,,,,,,,,,,,,,,,,,,,,,,,,,,,,,,,,,,,,,,,,,,,,,,,,,,,,,,,,,,,,,,,,,,,,,,,,,,,,,,,,,,,,,,,,,,,,,,,,
,,5b11d226e9270900013c3029,2024-02-21_21h21.48.590,kallum_motion_pilot,2023.2.2,Win32,1.463271876,5b11d226e9270900013c3029,65d6bb0e977760de756971f7,65d6bc8e55338e31f88becbe,0.2369,0.2371,0,115,115,4,1,threeone,,,,,,,,,,,,,,,,,,,,,,,,,,,,,,,,,,,,,,,,,,,,,,,,,,,,,,,,,,,,,,,,,,,,,,,,,,,,,,,,,,,,,,,,,,,,,,,,,,,,,,,,,,,,,,,,,,,,,,,,,,,,,,,,,,,,,,,,,
,,5b11d226e9270900013c3029,2024-02-21_21h21.48.590,kallum_motion_pilot,2023.2.2,Win32,1.463271876,5b11d226e9270900013c3029,65d6bb0e977760de756971f7,65d6bc8e55338e31f88becbe,0.2375,0.2376,0,116,116,100,1,sevenfive,,,,,,,,,,,,,,,,,,,,,,,,,,,,,,,,,,,,,,,,,,,,,,,,,,,,,,,,,,,,,,,,,,,,,,,,,,,,,,,,,,,,,,,,,,,,,,,,,,,,,,,,,,,,,,,,,,,,,,,,,,,,,,,,,,,,,,,,,
,,5b11d226e9270900013c3029,2024-02-21_21h21.48.590,kallum_motion_pilot,2023.2.2,Win32,1.463271876,5b11d226e9270900013c3029,65d6bb0e977760de756971f7,65d6bc8e55338e31f88becbe,0.2379,0.2382,0,117,117,10,1,twoone,,,,,,,,,,,,,,,,,,,,,,,,,,,,,,,,,,,,,,,,,,,,,,,,,,,,,,,,,,,,,,,,,,,,,,,,,,,,,,,,,,,,,,,,,,,,,,,,,,,,,,,,,,,,,,,,,,,,,,,,,,,,,,,,,,,,,,,,,
,,5b11d226e9270900013c3029,2024-02-21_21h21.48.590,kallum_motion_pilot,2023.2.2,Win32,1.463271876,5b11d226e9270900013c3029,65d6bb0e977760de756971f7,65d6bc8e55338e31f88becbe,0.2385,0.2386,0,118,118,5,1,threefour,,,,,,,,,,,,,,,,,,,,,,,,,,,,,,,,,,,,,,,,,,,,,,,,,,,,,,,,,,,,,,,,,,,,,,,,,,,,,,,,,,,,,,,,,,,,,,,,,,,,,,,,,,,,,,,,,,,,,,,,,,,,,,,,,,,,,,,,,
,,5b11d226e9270900013c3029,2024-02-21_21h21.48.590,kallum_motion_pilot,2023.2.2,Win32,1.463271876,5b11d226e9270900013c3029,65d6bb0e977760de756971f7,65d6bc8e55338e31f88becbe,0.2389,0.239,0,119,119,128,1,fivesix,,,,,,,,,,,,,,,,,,,,,,,,,,,,,,,,,,,,,,,,,,,,,,,,,,,,,,,,,,,,,,,,,,,,,,,,,,,,,,,,,,,,,,,,,,,,,,,,,,,,,,,,,,,,,,,,,,,,,,,,,,,,,,,,,,,,,,,,,
,,5b11d226e9270900013c3029,2024-02-21_21h21.48.590,kallum_motion_pilot,2023.2.2,Win32,1.463271876,5b11d226e9270900013c3029,65d6bb0e977760de756971f7,65d6bc8e55338e31f88becbe,0.2393,0.2395,0,120,120,87,1,eightseven,,,,,,,,,,,,,,,,,,,,,,,,,,,,,,,,,,,,,,,,,,,,,,,,,,,,,,,,,,,,,,,,,,,,,,,,,,,,,,,,,,,,,,,,,,,,,,,,,,,,,,,,,,,,,,,,,,,,,,,,,,,,,,,,,,,,,,,,,
,,5b11d226e9270900013c3029,2024-02-21_21h21.48.590,kallum_motion_pilot,2023.2.2,Win32,1.463271876,5b11d226e9270900013c3029,65d6bb0e977760de756971f7,65d6bc8e55338e31f88becbe,0.2399,0.24,0,121,121,160,1,fivesix,,,,,,,,,,,,,,,,,,,,,,,,,,,,,,,,,,,,,,,,,,,,,,,,,,,,,,,,,,,,,,,,,,,,,,,,,,,,,,,,,,,,,,,,,,,,,,,,,,,,,,,,,,,,,,,,,,,,,,,,,,,,,,,,,,,,,,,,,
,,5b11d226e9270900013c3029,2024-02-21_21h21.48.590,kallum_motion_pilot,2023.2.2,Win32,1.463271876,5b11d226e9270900013c3029,65d6bb0e977760de756971f7,65d6bc8e55338e31f88becbe,0.2404,0.2407,0,122,122,7,1,fourthree,,,,,,,,,,,,,,,,,,,,,,,,,,,,,,,,,,,,,,,,,,,,,,,,,,,,,,,,,,,,,,,,,,,,,,,,,,,,,,,,,,,,,,,,,,,,,,,,,,,,,,,,,,,,,,,,,,,,,,,,,,,,,,,,,,,,,,,,,
,,5b11d226e9270900013c3029,2024-02-21_21h21.48.590,kallum_motion_pilot,2023.2.2,Win32,1.463271876,5b11d226e9270900013c3029,65d6bb0e977760de756971f7,65d6bc8e55338e31f88becbe,0.2409,0.2411,0,123,123,23,1,fourthree,,,,,,,,,,,,,,,,,,,,,,,,,,,,,,,,,,,,,,,,,,,,,,,,,,,,,,,,,,,,,,,,,,,,,,,,,,,,,,,,,,,,,,,,,,,,,,,,,,,,,,,,,,,,,,,,,,,,,,,,,,,,,,,,,,,,,,,,,
,,5b11d226e9270900013c3029,2024-02-21_21h21.48.590,kallum_motion_pilot,2023.2.2,Win32,1.463271876,5b11d226e9270900013c3029,65d6bb0e977760de756971f7,65d6bc8e55338e31f88becbe,0.2415,0.2417,0,124,124,116,1,sevenfive,,,,,,,,,,,,,,,,,,,,,,,,,,,,,,,,,,,,,,,,,,,,,,,,,,,,,,,,,,,,,,,,,,,,,,,,,,,,,,,,,,,,,,,,,,,,,,,,,,,,,,,,,,,,,,,,,,,,,,,,,,,,,,,,,,,,,,,,,
,,5b11d226e9270900013c3029,2024-02-21_21h21.48.590,kallum_motion_pilot,2023.2.2,Win32,1.463271876,5b11d226e9270900013c3029,65d6bb0e977760de756971f7,65d6bc8e55338e31f88becbe,0.2422,0.2426,0,125,125,134,1,eightsix,,,,,,,,,,,,,,,,,,,,,,,,,,,,,,,,,,,,,,,,,,,,,,,,,,,,,,,,,,,,,,,,,,,,,,,,,,,,,,,,,,,,,,,,,,,,,,,,,,,,,,,,,,,,,,,,,,,,,,,,,,,,,,,,,,,,,,,,,
,,5b11d226e9270900013c3029,2024-02-21_21h21.48.590,kallum_motion_pilot,2023.2.2,Win32,1.463271876,5b11d226e9270900013c3029,65d6bb0e977760de756971f7,65d6bc8e55338e31f88becbe,0.2433,0.2437,0,126,126,96,1,fivesix,,,,,,,,,,,,,,,,,,,,,,,,,,,,,,,,,,,,,,,,,,,,,,,,,,,,,,,,,,,,,,,,,,,,,,,,,,,,,,,,,,,,,,,,,,,,,,,,,,,,,,,,,,,,,,,,,,,,,,,,,,,,,,,,,,,,,,,,,
,,5b11d226e9270900013c3029,2024-02-21_21h21.48.590,kallum_motion_pilot,2023.2.2,Win32,1.463271876,5b11d226e9270900013c3029,65d6bb0e977760de756971f7,65d6bc8e55338e31f88becbe,0.2443,0.2446,0,127,127,89,1,fiveseven,,,,,,,,,,,,,,,,,,,,,,,,,,,,,,,,,,,,,,,,,,,,,,,,,,,,,,,,,,,,,,,,,,,,,,,,,,,,,,,,,,,,,,,,,,,,,,,,,,,,,,,,,,,,,,,,,,,,,,,,,,,,,,,,,,,,,,,,,
,,5b11d226e9270900013c3029,2024-02-21_21h21.48.590,kallum_motion_pilot,2023.2.2,Win32,1.463271876,5b11d226e9270900013c3029,65d6bb0e977760de756971f7,65d6bc8e55338e31f88becbe,0.245,0.2453,0,128,128,143,1,eightseven,,,,,,,,,,,,,,,,,,,,,,,,,,,,,,,,,,,,,,,,,,,,,,,,,,,,,,,,,,,,,,,,,,,,,,,,,,,,,,,,,,,,,,,,,,,,,,,,,,,,,,,,,,,,,,,,,,,,,,,,,,,,,,,,,,,,,,,,,
,,5b11d226e9270900013c3029,2024-02-21_21h21.48.590,kallum_motion_pilot,2023.2.2,Win32,1.463271876,5b11d226e9270900013c3029,65d6bb0e977760de756971f7,65d6bc8e55338e31f88becbe,0.2456,0.2457,0,129,129,129,1,fiveseven,,,,,,,,,,,,,,,,,,,,,,,,,,,,,,,,,,,,,,,,,,,,,,,,,,,,,,,,,,,,,,,,,,,,,,,,,,,,,,,,,,,,,,,,,,,,,,,,,,,,,,,,,,,,,,,,,,,,,,,,,,,,,,,,,,,,,,,,,
,,5b11d226e9270900013c3029,2024-02-21_21h21.48.590,kallum_motion_pilot,2023.2.2,Win32,1.463271876,5b11d226e9270900013c3029,65d6bb0e977760de756971f7,65d6bc8e55338e31f88becbe,0.2461,0.2463,0,130,130,13,1,threefour,,,,,,,,,,,,,,,,,,,,,,,,,,,,,,,,,,,,,,,,,,,,,,,,,,,,,,,,,,,,,,,,,,,,,,,,,,,,,,,,,,,,,,,,,,,,,,,,,,,,,,,,,,,,,,,,,,,,,,,,,,,,,,,,,,,,,,,,,
,,5b11d226e9270900013c3029,2024-02-21_21h21.48.590,kallum_motion_pilot,2023.2.2,Win32,1.463271876,5b11d226e9270900013c3029,65d6bb0e977760de756971f7,65d6bc8e55338e31f88becbe,0.2465,0.2467,0,131,131,119,1,eightseven,,,,,,,,,,,,,,,,,,,,,,,,,,,,,,,,,,,,,,,,,,,,,,,,,,,,,,,,,,,,,,,,,,,,,,,,,,,,,,,,,,,,,,,,,,,,,,,,,,,,,,,,,,,,,,,,,,,,,,,,,,,,,,,,,,,,,,,,,
,,5b11d226e9270900013c3029,2024-02-21_21h21.48.590,kallum_motion_pilot,2023.2.2,Win32,1.463271876,5b11d226e9270900013c3029,65d6bb0e977760de756971f7,65d6bc8e55338e31f88becbe,0.2471,0.2473,0,132,132,12,1,threeone,,,,,,,,,,,,,,,,,,,,,,,,,,,,,,,,,,,,,,,,,,,,,,,,,,,,,,,,,,,,,,,,,,,,,,,,,,,,,,,,,,,,,,,,,,,,,,,,,,,,,,,,,,,,,,,,,,,,,,,,,,,,,,,,,,,,,,,,,
,,5b11d226e9270900013c3029,2024-02-21_21h21.48.590,kallum_motion_pilot,2023.2.2,Win32,1.463271876,5b11d226e9270900013c3029,65d6bb0e977760de756971f7,65d6bc8e55338e31f88becbe,0.2477,0.248,0,133,133,67,1,twofour,,,,,,,,,,,,,,,,,,,,,,,,,,,,,,,,,,,,,,,,,,,,,,,,,,,,,,,,,,,,,,,,,,,,,,,,,,,,,,,,,,,,,,,,,,,,,,,,,,,,,,,,,,,,,,,,,,,,,,,,,,,,,,,,,,,,,,,,,
,,5b11d226e9270900013c3029,2024-02-21_21h21.48.590,kallum_motion_pilot,2023.2.2,Win32,1.463271876,5b11d226e9270900013c3029,65d6bb0e977760de756971f7,65d6bc8e55338e31f88becbe,0.2483,0.2484,0,134,134,81,1,fiveseven,,,,,,,,,,,,,,,,,,,,,,,,,,,,,,,,,,,,,,,,,,,,,,,,,,,,,,,,,,,,,,,,,,,,,,,,,,,,,,,,,,,,,,,,,,,,,,,,,,,,,,,,,,,,,,,,,,,,,,,,,,,,,,,,,,,,,,,,,
,,5b11d226e9270900013c3029,2024-02-21_21h21.48.590,kallum_motion_pilot,2023.2.2,Win32,1.463271876,5b11d226e9270900013c3029,65d6bb0e977760de756971f7,65d6bc8e55338e31f88becbe,0.2487,0.249,0,135,135,69,1,threefour,,,,,,,,,,,,,,,,,,,,,,,,,,,,,,,,,,,,,,,,,,,,,,,,,,,,,,,,,,,,,,,,,,,,,,,,,,,,,,,,,,,,,,,,,,,,,,,,,,,,,,,,,,,,,,,,,,,,,,,,,,,,,,,,,,,,,,,,,
,,5b11d226e9270900013c3029,2024-02-21_21h21.48.590,kallum_motion_pilot,2023.2.2,Win32,1.463271876,5b11d226e9270900013c3029,65d6bb0e977760de756971f7,65d6bc8e55338e31f88becbe,0.2493,0.2495,0,136,136,126,1,eightsix,,,,,,,,,,,,,,,,,,,,,,,,,,,,,,,,,,,,,,,,,,,,,,,,,,,,,,,,,,,,,,,,,,,,,,,,,,,,,,,,,,,,,,,,,,,,,,,,,,,,,,,,,,,,,,,,,,,,,,,,,,,,,,,,,,,,,,,,,
,,5b11d226e9270900013c3029,2024-02-21_21h21.48.590,kallum_motion_pilot,2023.2.2,Win32,1.463271876,5b11d226e9270900013c3029,65d6bb0e977760de756971f7,65d6bc8e55338e31f88becbe,0.2497,0.2499,0,137,137,40,1,onetwo,,,,,,,,,,,,,,,,,,,,,,,,,,,,,,,,,,,,,,,,,,,,,,,,,,,,,,,,,,,,,,,,,,,,,,,,,,,,,,,,,,,,,,,,,,,,,,,,,,,,,,,,,,,,,,,,,,,,,,,,,,,,,,,,,,,,,,,,,
,,5b11d226e9270900013c3029,2024-02-21_21h21.48.590,kallum_motion_pilot,2023.2.2,Win32,1.463271876,5b11d226e9270900013c3029,65d6bb0e977760de756971f7,65d6bc8e55338e31f88becbe,0.2502,0.2504,0,138,138,124,1,sevenfive,,,,,,,,,,,,,,,,,,,,,,,,,,,,,,,,,,,,,,,,,,,,,,,,,,,,,,,,,,,,,,,,,,,,,,,,,,,,,,,,,,,,,,,,,,,,,,,,,,,,,,,,,,,,,,,,,,,,,,,,,,,,,,,,,,,,,,,,,
,,5b11d226e9270900013c3029,2024-02-21_21h21.48.590,kallum_motion_pilot,2023.2.2,Win32,1.463271876,5b11d226e9270900013c3029,65d6bb0e977760de756971f7,65d6bc8e55338e31f88becbe,0.2508,0.2509,0,139,139,103,1,eightseven,,,,,,,,,,,,,,,,,,,,,,,,,,,,,,,,,,,,,,,,,,,,,,,,,,,,,,,,,,,,,,,,,,,,,,,,,,,,,,,,,,,,,,,,,,,,,,,,,,,,,,,,,,,,,,,,,,,,,,,,,,,,,,,,,,,,,,,,,
,,5b11d226e9270900013c3029,2024-02-21_21h21.48.590,kallum_motion_pilot,2023.2.2,Win32,1.463271876,5b11d226e9270900013c3029,65d6bb0e977760de756971f7,65d6bc8e55338e31f88becbe,0.2512,0.2514,0,140,140,30,1,fourtwo,,,,,,,,,,,,,,,,,,,,,,,,,,,,,,,,,,,,,,,,,,,,,,,,,,,,,,,,,,,,,,,,,,,,,,,,,,,,,,,,,,,,,,,,,,,,,,,,,,,,,,,,,,,,,,,,,,,,,,,,,,,,,,,,,,,,,,,,,
,,5b11d226e9270900013c3029,2024-02-21_21h21.48.590,kallum_motion_pilot,2023.2.2,Win32,1.463271876,5b11d226e9270900013c3029,65d6bb0e977760de756971f7,65d6bc8e55338e31f88becbe,0.2518,0.252,0,141,141,34,1,twoone,,,,,,,,,,,,,,,,,,,,,,,,,,,,,,,,,,,,,,,,,,,,,,,,,,,,,,,,,,,,,,,,,,,,,,,,,,,,,,,,,,,,,,,,,,,,,,,,,,,,,,,,,,,,,,,,,,,,,,,,,,,,,,,,,,,,,,,,,
,,5b11d226e9270900013c3029,2024-02-21_21h21.48.590,kallum_motion_pilot,2023.2.2,Win32,1.463271876,5b11d226e9270900013c3029,65d6bb0e977760de756971f7,65d6bc8e55338e31f88becbe,0.2523,0.2525,0,142,142,24,1,onetwo,,,,,,,,,,,,,,,,,,,,,,,,,,,,,,,,,,,,,,,,,,,,,,,,,,,,,,,,,,,,,,,,,,,,,,,,,,,,,,,,,,,,,,,,,,,,,,,,,,,,,,,,,,,,,,,,,,,,,,,,,,,,,,,,,,,,,,,,,
,,5b11d226e9270900013c3029,2024-02-21_21h21.48.590,kallum_motion_pilot,2023.2.2,Win32,1.463271876,5b11d226e9270900013c3029,65d6bb0e977760de756971f7,65d6bc8e55338e31f88becbe,0.2529,0.253,0,143,143,106,1,sixfive,,,,,,,,,,,,,,,,,,,,,,,,,,,,,,,,,,,,,,,,,,,,,,,,,,,,,,,,,,,,,,,,,,,,,,,,,,,,,,,,,,,,,,,,,,,,,,,,,,,,,,,,,,,,,,,,,,,,,,,,,,,,,,,,,,,,,,,,,
,,5b11d226e9270900013c3029,2024-02-21_21h21.48.590,kallum_motion_pilot,2023.2.2,Win32,1.463271876,5b11d226e9270900013c3029,65d6bb0e977760de756971f7,65d6bc8e55338e31f88becbe,0.2534,0.2536,0,144,144,127,1,eightseven,,,,,,,,,,,,,,,,,,,,,,,,,,,,,,,,,,,,,,,,,,,,,,,,,,,,,,,,,,,,,,,,,,,,,,,,,,,,,,,,,,,,,,,,,,,,,,,,,,,,,,,,,,,,,,,,,,,,,,,,,,,,,,,,,,,,,,,,,
,,5b11d226e9270900013c3029,2024-02-21_21h21.48.590,kallum_motion_pilot,2023.2.2,Win32,1.463271876,5b11d226e9270900013c3029,65d6bb0e977760de756971f7,65d6bc8e55338e31f88becbe,0.2539,0.2542,0,145,145,43,1,twofour,,,,,,,,,,,,,,,,,,,,,,,,,,,,,,,,,,,,,,,,,,,,,,,,,,,,,,,,,,,,,,,,,,,,,,,,,,,,,,,,,,,,,,,,,,,,,,,,,,,,,,,,,,,,,,,,,,,,,,,,,,,,,,,,,,,,,,,,,
,,5b11d226e9270900013c3029,2024-02-21_21h21.48.590,kallum_motion_pilot,2023.2.2,Win32,1.463271876,5b11d226e9270900013c3029,65d6bb0e977760de756971f7,65d6bc8e55338e31f88becbe,0.2546,0.2548,0,146,146,152,1,fivesix,,,,,,,,,,,,,,,,,,,,,,,,,,,,,,,,,,,,,,,,,,,,,,,,,,,,,,,,,,,,,,,,,,,,,,,,,,,,,,,,,,,,,,,,,,,,,,,,,,,,,,,,,,,,,,,,,,,,,,,,,,,,,,,,,,,,,,,,,
,,5b11d226e9270900013c3029,2024-02-21_21h21.48.590,kallum_motion_pilot,2023.2.2,Win32,1.463271876,5b11d226e9270900013c3029,65d6bb0e977760de756971f7,65d6bc8e55338e31f88becbe,0.2551,0.2553,0,147,147,46,1,fourtwo,,,,,,,,,,,,,,,,,,,,,,,,,,,,,,,,,,,,,,,,,,,,,,,,,,,,,,,,,,,,,,,,,,,,,,,,,,,,,,,,,,,,,,,,,,,,,,,,,,,,,,,,,,,,,,,,,,,,,,,,,,,,,,,,,,,,,,,,,
,,5b11d226e9270900013c3029,2024-02-21_21h21.48.590,kallum_motion_pilot,2023.2.2,Win32,1.463271876,5b11d226e9270900013c3029,65d6bb0e977760de756971f7,65d6bc8e55338e31f88becbe,0.2556,0.2558,0,148,148,48,1,onetwo,,,,,,,,,,,,,,,,,,,,,,,,,,,,,,,,,,,,,,,,,,,,,,,,,,,,,,,,,,,,,,,,,,,,,,,,,,,,,,,,,,,,,,,,,,,,,,,,,,,,,,,,,,,,,,,,,,,,,,,,,,,,,,,,,,,,,,,,,
,,5b11d226e9270900013c3029,2024-02-21_21h21.48.590,kallum_motion_pilot,2023.2.2,Win32,1.463271876,5b11d226e9270900013c3029,65d6bb0e977760de756971f7,65d6bc8e55338e31f88becbe,0.2561,0.2563,0,149,149,153,1,fiveseven,,,,,,,,,,,,,,,,,,,,,,,,,,,,,,,,,,,,,,,,,,,,,,,,,,,,,,,,,,,,,,,,,,,,,,,,,,,,,,,,,,,,,,,,,,,,,,,,,,,,,,,,,,,,,,,,,,,,,,,,,,,,,,,,,,,,,,,,,
,,5b11d226e9270900013c3029,2024-02-21_21h21.48.590,kallum_motion_pilot,2023.2.2,Win32,1.463271876,5b11d226e9270900013c3029,65d6bb0e977760de756971f7,65d6bc8e55338e31f88becbe,0.2568,0.2571,0,150,150,101,1,seveneight,,,,,,,,,,,,,,,,,,,,,,,,,,,,,,,,,,,,,,,,,,,,,,,,,,,,,,,,,,,,,,,,,,,,,,,,,,,,,,,,,,,,,,,,,,,,,,,,,,,,,,,,,,,,,,,,,,,,,,,,,,,,,,,,,,,,,,,,,
,,5b11d226e9270900013c3029,2024-02-21_21h21.48.590,kallum_motion_pilot,2023.2.2,Win32,1.463271876,5b11d226e9270900013c3029,65d6bb0e977760de756971f7,65d6bc8e55338e31f88becbe,0.2576,0.2578,0,151,151,31,1,fourthree,,,,,,,,,,,,,,,,,,,,,,,,,,,,,,,,,,,,,,,,,,,,,,,,,,,,,,,,,,,,,,,,,,,,,,,,,,,,,,,,,,,,,,,,,,,,,,,,,,,,,,,,,,,,,,,,,,,,,,,,,,,,,,,,,,,,,,,,,
,,5b11d226e9270900013c3029,2024-02-21_21h21.48.590,kallum_motion_pilot,2023.2.2,Win32,1.463271876,5b11d226e9270900013c3029,65d6bb0e977760de756971f7,65d6bc8e55338e31f88becbe,0.2582,0.2584,0,152,152,157,1,seveneight,,,,,,,,,,,,,,,,,,,,,,,,,,,,,,,,,,,,,,,,,,,,,,,,,,,,,,,,,,,,,,,,,,,,,,,,,,,,,,,,,,,,,,,,,,,,,,,,,,,,,,,,,,,,,,,,,,,,,,,,,,,,,,,,,,,,,,,,,
,,5b11d226e9270900013c3029,2024-02-21_21h21.48.590,kallum_motion_pilot,2023.2.2,Win32,1.463271876,5b11d226e9270900013c3029,65d6bb0e977760de756971f7,65d6bc8e55338e31f88becbe,0.2586,0.2588,0,153,153,35,1,twofour,,,,,,,,,,,,,,,,,,,,,,,,,,,,,,,,,,,,,,,,,,,,,,,,,,,,,,,,,,,,,,,,,,,,,,,,,,,,,,,,,,,,,,,,,,,,,,,,,,,,,,,,,,,,,,,,,,,,,,,,,,,,,,,,,,,,,,,,,
,,5b11d226e9270900013c3029,2024-02-21_21h21.48.590,kallum_motion_pilot,2023.2.2,Win32,1.463271876,5b11d226e9270900013c3029,65d6bb0e977760de756971f7,65d6bc8e55338e31f88becbe,0.2591,0.2592,0,154,154,132,1,sevenfive,,,,,,,,,,,,,,,,,,,,,,,,,,,,,,,,,,,,,,,,,,,,,,,,,,,,,,,,,,,,,,,,,,,,,,,,,,,,,,,,,,,,,,,,,,,,,,,,,,,,,,,,,,,,,,,,,,,,,,,,,,,,,,,,,,,,,,,,,
,,5b11d226e9270900013c3029,2024-02-21_21h21.48.590,kallum_motion_pilot,2023.2.2,Win32,1.463271876,5b11d226e9270900013c3029,65d6bb0e977760de756971f7,65d6bc8e55338e31f88becbe,0.2596,0.2598,0,155,155,25,1,onethree,,,,,,,,,,,,,,,,,,,,,,,,,,,,,,,,,,,,,,,,,,,,,,,,,,,,,,,,,,,,,,,,,,,,,,,,,,,,,,,,,,,,,,,,,,,,,,,,,,,,,,,,,,,,,,,,,,,,,,,,,,,,,,,,,,,,,,,,,
,,5b11d226e9270900013c3029,2024-02-21_21h21.48.590,kallum_motion_pilot,2023.2.2,Win32,1.463271876,5b11d226e9270900013c3029,65d6bb0e977760de756971f7,65d6bc8e55338e31f88becbe,0.2601,0.2603,0,156,156,0,1,onetwo,,,,,,,,,,,,,,,,,,,,,,,,,,,,,,,,,,,,,,,,,,,,,,,,,,,,,,,,,,,,,,,,,,,,,,,,,,,,,,,,,,,,,,,,,,,,,,,,,,,,,,,,,,,,,,,,,,,,,,,,,,,,,,,,,,,,,,,,,
,,5b11d226e9270900013c3029,2024-02-21_21h21.48.590,kallum_motion_pilot,2023.2.2,Win32,1.463271876,5b11d226e9270900013c3029,65d6bb0e977760de756971f7,65d6bc8e55338e31f88becbe,0.2606,0.2608,0,157,157,16,1,onetwo,,,,,,,,,,,,,,,,,,,,,,,,,,,,,,,,,,,,,,,,,,,,,,,,,,,,,,,,,,,,,,,,,,,,,,,,,,,,,,,,,,,,,,,,,,,,,,,,,,,,,,,,,,,,,,,,,,,,,,,,,,,,,,,,,,,,,,,,,
,,5b11d226e9270900013c3029,2024-02-21_21h21.48.590,kallum_motion_pilot,2023.2.2,Win32,1.463271876,5b11d226e9270900013c3029,65d6bb0e977760de756971f7,65d6bc8e55338e31f88becbe,0.2611,0.2614,0,158,158,141,1,seveneight,,,,,,,,,,,,,,,,,,,,,,,,,,,,,,,,,,,,,,,,,,,,,,,,,,,,,,,,,,,,,,,,,,,,,,,,,,,,,,,,,,,,,,,,,,,,,,,,,,,,,,,,,,,,,,,,,,,,,,,,,,,,,,,,,,,,,,,,,
,,5b11d226e9270900013c3029,2024-02-21_21h21.48.590,kallum_motion_pilot,2023.2.2,Win32,1.463271876,5b11d226e9270900013c3029,65d6bb0e977760de756971f7,65d6bc8e55338e31f88becbe,0.2618,0.262,0,159,159,70,1,fourtwo,,,,,,,,,,,,,,,,,,,,,,,,,,,,,,,,,,,,,,,,,,,,,,,,,,,,,,,,,,,,,,,,,,,,,,,,,,,,,,,,,,,,,,,,,,,,,,,,,,,,,,,,,,,,,,,,,,,,,,,,,,,,,,,,,,,,,,,,,
,,5b11d226e9270900013c3029,2024-02-21_21h21.48.590,kallum_motion_pilot,2023.2.2,Win32,1.463271876,5b11d226e9270900013c3029,65d6bb0e977760de756971f7,65d6bc8e55338e31f88becbe,0.2625,0.2628,0,160,160,6,1,fourtwo,,,,,,,,,,,,,,,,,,,,,,,,,,,,,,,,,,,,,,,,,,,,,,,,,,,,,,,,,,,,,,,,,,,,,,,,,,,,,,,,,,,,,,,,,,,,,,,,,,,,,,,,,,,,,,,,,,,,,,,,,,,,,,,,,,,,,,,,,
,,5b11d226e9270900013c3029,2024-02-21_21h21.48.590,kallum_motion_pilot,2023.2.2,Win32,1.463271876,5b11d226e9270900013c3029,65d6bb0e977760de756971f7,65d6bc8e55338e31f88becbe,0.2631,0.2633,0,161,161,113,1,fiveseven,,,,,,,,,,,,,,,,,,,,,,,,,,,,,,,,,,,,,,,,,,,,,,,,,,,,,,,,,,,,,,,,,,,,,,,,,,,,,,,,,,,,,,,,,,,,,,,,,,,,,,,,,,,,,,,,,,,,,,,,,,,,,,,,,,,,,,,,,
,,5b11d226e9270900013c3029,2024-02-21_21h21.48.590,kallum_motion_pilot,2023.2.2,Win32,1.463271876,5b11d226e9270900013c3029,65d6bb0e977760de756971f7,65d6bc8e55338e31f88becbe,0.2636,0.2638,1,0,162,35,1,twofour,,,,,,,,,,,,,,,,,,,,,,,,,,,,,,,,,,,,,,,,,,,,,,,,,,,,,,,,,,,,,,,,,,,,,,,,,,,,,,,,,,,,,,,,,,,,,,,,,,,,,,,,,,,,,,,,,,,,,,,,,,,,,,,,,,,,,,,,,
,,5b11d226e9270900013c3029,2024-02-21_21h21.48.590,kallum_motion_pilot,2023.2.2,Win32,1.463271876,5b11d226e9270900013c3029,65d6bb0e977760de756971f7,65d6bc8e55338e31f88becbe,0.2641,0.2643,1,1,163,40,1,onetwo,,,,,,,,,,,,,,,,,,,,,,,,,,,,,,,,,,,,,,,,,,,,,,,,,,,,,,,,,,,,,,,,,,,,,,,,,,,,,,,,,,,,,,,,,,,,,,,,,,,,,,,,,,,,,,,,,,,,,,,,,,,,,,,,,,,,,,,,,
,,5b11d226e9270900013c3029,2024-02-21_21h21.48.590,kallum_motion_pilot,2023.2.2,Win32,1.463271876,5b11d226e9270900013c3029,65d6bb0e977760de756971f7,65d6bc8e55338e31f88becbe,0.2647,0.2649,1,2,164,134,1,eightsix,,,,,,,,,,,,,,,,,,,,,,,,,,,,,,,,,,,,,,,,,,,,,,,,,,,,,,,,,,,,,,,,,,,,,,,,,,,,,,,,,,,,,,,,,,,,,,,,,,,,,,,,,,,,,,,,,,,,,,,,,,,,,,,,,,,,,,,,,
,,5b11d226e9270900013c3029,2024-02-21_21h21.48.590,kallum_motion_pilot,2023.2.2,Win32,1.463271876,5b11d226e9270900013c3029,65d6bb0e977760de756971f7,65d6bc8e55338e31f88becbe,0.2652,0.2654,1,3,165,131,1,sixeight,,,,,,,,,,,,,,,,,,,,,,,,,,,,,,,,,,,,,,,,,,,,,,,,,,,,,,,,,,,,,,,,,,,,,,,,,,,,,,,,,,,,,,,,,,,,,,,,,,,,,,,,,,,,,,,,,,,,,,,,,,,,,,,,,,,,,,,,,
,,5b11d226e9270900013c3029,2024-02-21_21h21.48.590,kallum_motion_pilot,2023.2.2,Win32,1.463271876,5b11d226e9270900013c3029,65d6bb0e977760de756971f7,65d6bc8e55338e31f88becbe,0.2657,0.266,1,4,166,75,1,twofour,,,,,,,,,,,,,,,,,,,,,,,,,,,,,,,,,,,,,,,,,,,,,,,,,,,,,,,,,,,,,,,,,,,,,,,,,,,,,,,,,,,,,,,,,,,,,,,,,,,,,,,,,,,,,,,,,,,,,,,,,,,,,,,,,,,,,,,,,
,,5b11d226e9270900013c3029,2024-02-21_21h21.48.590,kallum_motion_pilot,2023.2.2,Win32,1.463271876,5b11d226e9270900013c3029,65d6bb0e977760de756971f7,65d6bc8e55338e31f88becbe,0.2663,0.2665,1,5,167,116,1,sevenfive,,,,,,,,,,,,,,,,,,,,,,,,,,,,,,,,,,,,,,,,,,,,,,,,,,,,,,,,,,,,,,,,,,,,,,,,,,,,,,,,,,,,,,,,,,,,,,,,,,,,,,,,,,,,,,,,,,,,,,,,,,,,,,,,,,,,,,,,,
,,5b11d226e9270900013c3029,2024-02-21_21h21.48.590,kallum_motion_pilot,2023.2.2,Win32,1.463271876,5b11d226e9270900013c3029,65d6bb0e977760de756971f7,65d6bc8e55338e31f88becbe,0.2669,0.2672,1,6,168,61,1,threefour,,,,,,,,,,,,,,,,,,,,,,,,,,,,,,,,,,,,,,,,,,,,,,,,,,,,,,,,,,,,,,,,,,,,,,,,,,,,,,,,,,,,,,,,,,,,,,,,,,,,,,,,,,,,,,,,,,,,,,,,,,,,,,,,,,,,,,,,,
,,5b11d226e9270900013c3029,2024-02-21_21h21.48.590,kallum_motion_pilot,2023.2.2,Win32,1.463271876,5b11d226e9270900013c3029,65d6bb0e977760de756971f7,65d6bc8e55338e31f88becbe,0.2677,0.268,1,7,169,1,1,onethree,,,,,,,,,,,,,,,,,,,,,,,,,,,,,,,,,,,,,,,,,,,,,,,,,,,,,,,,,,,,,,,,,,,,,,,,,,,,,,,,,,,,,,,,,,,,,,,,,,,,,,,,,,,,,,,,,,,,,,,,,,,,,,,,,,,,,,,,,
,,5b11d226e9270900013c3029,2024-02-21_21h21.48.590,kallum_motion_pilot,2023.2.2,Win32,1.463271876,5b11d226e9270900013c3029,65d6bb0e977760de756971f7,65d6bc8e55338e31f88becbe,0.2683,0.2686,1,8,170,67,1,twofour,,,,,,,,,,,,,,,,,,,,,,,,,,,,,,,,,,,,,,,,,,,,,,,,,,,,,,,,,,,,,,,,,,,,,,,,,,,,,,,,,,,,,,,,,,,,,,,,,,,,,,,,,,,,,,,,,,,,,,,,,,,,,,,,,,,,,,,,,
,,5b11d226e9270900013c3029,2024-02-21_21h21.48.590,kallum_motion_pilot,2023.2.2,Win32,1.463271876,5b11d226e9270900013c3029,65d6bb0e977760de756971f7,65d6bc8e55338e31f88becbe,0.2689,0.2691,1,9,171,62,1,fourtwo,,,,,,,,,,,,,,,,,,,,,,,,,,,,,,,,,,,,,,,,,,,,,,,,,,,,,,,,,,,,,,,,,,,,,,,,,,,,,,,,,,,,,,,,,,,,,,,,,,,,,,,,,,,,,,,,,,,,,,,,,,,,,,,,,,,,,,,,,
,,5b11d226e9270900013c3029,2024-02-21_21h21.48.590,kallum_motion_pilot,2023.2.2,Win32,1.463271876,5b11d226e9270900013c3029,65d6bb0e977760de756971f7,65d6bc8e55338e31f88becbe,0.2694,0.2696,1,10,172,152,1,fivesix,,,,,,,,,,,,,,,,,,,,,,,,,,,,,,,,,,,,,,,,,,,,,,,,,,,,,,,,,,,,,,,,,,,,,,,,,,,,,,,,,,,,,,,,,,,,,,,,,,,,,,,,,,,,,,,,,,,,,,,,,,,,,,,,,,,,,,,,,
,,5b11d226e9270900013c3029,2024-02-21_21h21.48.590,kallum_motion_pilot,2023.2.2,Win32,1.463271876,5b11d226e9270900013c3029,65d6bb0e977760de756971f7,65d6bc8e55338e31f88becbe,0.27,0.2702,1,11,173,145,1,fiveseven,,,,,,,,,,,,,,,,,,,,,,,,,,,,,,,,,,,,,,,,,,,,,,,,,,,,,,,,,,,,,,,,,,,,,,,,,,,,,,,,,,,,,,,,,,,,,,,,,,,,,,,,,,,,,,,,,,,,,,,,,,,,,,,,,,,,,,,,,
,,5b11d226e9270900013c3029,2024-02-21_21h21.48.590,kallum_motion_pilot,2023.2.2,Win32,1.463271876,5b11d226e9270900013c3029,65d6bb0e977760de756971f7,65d6bc8e55338e31f88becbe,0.2704,0.2707,1,12,174,71,1,fourthree,,,,,,,,,,,,,,,,,,,,,,,,,,,,,,,,,,,,,,,,,,,,,,,,,,,,,,,,,,,,,,,,,,,,,,,,,,,,,,,,,,,,,,,,,,,,,,,,,,,,,,,,,,,,,,,,,,,,,,,,,,,,,,,,,,,,,,,,,
,,5b11d226e9270900013c3029,2024-02-21_21h21.48.590,kallum_motion_pilot,2023.2.2,Win32,1.463271876,5b11d226e9270900013c3029,65d6bb0e977760de756971f7,65d6bc8e55338e31f88becbe,0.271,0.2712,1,13,175,25,1,onethree,,,,,,,,,,,,,,,,,,,,,,,,,,,,,,,,,,,,,,,,,,,,,,,,,,,,,,,,,,,,,,,,,,,,,,,,,,,,,,,,,,,,,,,,,,,,,,,,,,,,,,,,,,,,,,,,,,,,,,,,,,,,,,,,,,,,,,,,,
,,5b11d226e9270900013c3029,2024-02-21_21h21.48.590,kallum_motion_pilot,2023.2.2,Win32,1.463271876,5b11d226e9270900013c3029,65d6bb0e977760de756971f7,65d6bc8e55338e31f88becbe,0.2715,0.2717,1,14,176,63,1,fourthree,,,,,,,,,,,,,,,,,,,,,,,,,,,,,,,,,,,,,,,,,,,,,,,,,,,,,,,,,,,,,,,,,,,,,,,,,,,,,,,,,,,,,,,,,,,,,,,,,,,,,,,,,,,,,,,,,,,,,,,,,,,,,,,,,,,,,,,,,
,,5b11d226e9270900013c3029,2024-02-21_21h21.48.590,kallum_motion_pilot,2023.2.2,Win32,1.463271876,5b11d226e9270900013c3029,65d6bb0e977760de756971f7,65d6bc8e55338e31f88becbe,0.272,0.2722,1,15,177,111,1,eightseven,,,,,,,,,,,,,,,,,,,,,,,,,,,,,,,,,,,,,,,,,,,,,,,,,,,,,,,,,,,,,,,,,,,,,,,,,,,,,,,,,,,,,,,,,,,,,,,,,,,,,,,,,,,,,,,,,,,,,,,,,,,,,,,,,,,,,,,,,
,,5b11d226e9270900013c3029,2024-02-21_21h21.48.590,kallum_motion_pilot,2023.2.2,Win32,1.463271876,5b11d226e9270900013c3029,65d6bb0e977760de756971f7,65d6bc8e55338e31f88becbe,0.2725,0.2727,1,16,178,16,1,onetwo,,,,,,,,,,,,,,,,,,,,,,,,,,,,,,,,,,,,,,,,,,,,,,,,,,,,,,,,,,,,,,,,,,,,,,,,,,,,,,,,,,,,,,,,,,,,,,,,,,,,,,,,,,,,,,,,,,,,,,,,,,,,,,,,,,,,,,,,,
,,5b11d226e9270900013c3029,2024-02-21_21h21.48.590,kallum_motion_pilot,2023.2.2,Win32,1.463271876,5b11d226e9270900013c3029,65d6bb0e977760de756971f7,65d6bc8e55338e31f88becbe,0.273,0.2733,1,17,179,4,1,threeone,,,,,,,,,,,,,,,,,,,,,,,,,,,,,,,,,,,,,,,,,,,,,,,,,,,,,,,,,,,,,,,,,,,,,,,,,,,,,,,,,,,,,,,,,,,,,,,,,,,,,,,,,,,,,,,,,,,,,,,,,,,,,,,,,,,,,,,,,
,,5b11d226e9270900013c3029,2024-02-21_21h21.48.590,kallum_motion_pilot,2023.2.2,Win32,1.463271876,5b11d226e9270900013c3029,65d6bb0e977760de756971f7,65d6bc8e55338e31f88becbe,0.2746,0.2751,1,18,180,33,1,onethree,,,,,,,,,,,,,,,,,,,,,,,,,,,,,,,,,,,,,,,,,,,,,,,,,,,,,,,,,,,,,,,,,,,,,,,,,,,,,,,,,,,,,,,,,,,,,,,,,,,,,,,,,,,,,,,,,,,,,,,,,,,,,,,,,,,,,,,,,
,,5b11d226e9270900013c3029,2024-02-21_21h21.48.590,kallum_motion_pilot,2023.2.2,Win32,1.463271876,5b11d226e9270900013c3029,65d6bb0e977760de756971f7,65d6bc8e55338e31f88becbe,0.2759,0.2762,1,19,181,91,1,sixeight,,,,,,,,,,,,,,,,,,,,,,,,,,,,,,,,,,,,,,,,,,,,,,,,,,,,,,,,,,,,,,,,,,,,,,,,,,,,,,,,,,,,,,,,,,,,,,,,,,,,,,,,,,,,,,,,,,,,,,,,,,,,,,,,,,,,,,,,,
,,5b11d226e9270900013c3029,2024-02-21_21h21.48.590,kallum_motion_pilot,2023.2.2,Win32,1.463271876,5b11d226e9270900013c3029,65d6bb0e977760de756971f7,65d6bc8e55338e31f88becbe,0.277,0.2773,1,20,182,47,1,fourthree,,,,,,,,,,,,,,,,,,,,,,,,,,,,,,,,,,,,,,,,,,,,,,,,,,,,,,,,,,,,,,,,,,,,,,,,,,,,,,,,,,,,,,,,,,,,,,,,,,,,,,,,,,,,,,,,,,,,,,,,,,,,,,,,,,,,,,,,,
,,5b11d226e9270900013c3029,2024-02-21_21h21.48.590,kallum_motion_pilot,2023.2.2,Win32,1.463271876,5b11d226e9270900013c3029,65d6bb0e977760de756971f7,65d6bc8e55338e31f88becbe,0.278,0.2783,1,21,183,151,1,eightseven,,,,,,,,,,,,,,,,,,,,,,,,,,,,,,,,,,,,,,,,,,,,,,,,,,,,,,,,,,,,,,,,,,,,,,,,,,,,,,,,,,,,,,,,,,,,,,,,,,,,,,,,,,,,,,,,,,,,,,,,,,,,,,,,,,,,,,,,,
,,5b11d226e9270900013c3029,2024-02-21_21h21.48.590,kallum_motion_pilot,2023.2.2,Win32,1.463271876,5b11d226e9270900013c3029,65d6bb0e977760de756971f7,65d6bc8e55338e31f88becbe,0.2789,0.2793,1,22,184,0,1,onetwo,,,,,,,,,,,,,,,,,,,,,,,,,,,,,,,,,,,,,,,,,,,,,,,,,,,,,,,,,,,,,,,,,,,,,,,,,,,,,,,,,,,,,,,,,,,,,,,,,,,,,,,,,,,,,,,,,,,,,,,,,,,,,,,,,,,,,,,,,
,,5b11d226e9270900013c3029,2024-02-21_21h21.48.590,kallum_motion_pilot,2023.2.2,Win32,1.463271876,5b11d226e9270900013c3029,65d6bb0e977760de756971f7,65d6bc8e55338e31f88becbe,0.2801,0.2804,1,23,185,28,1,threeone,,,,,,,,,,,,,,,,,,,,,,,,,,,,,,,,,,,,,,,,,,,,,,,,,,,,,,,,,,,,,,,,,,,,,,,,,,,,,,,,,,,,,,,,,,,,,,,,,,,,,,,,,,,,,,,,,,,,,,,,,,,,,,,,,,,,,,,,,
,,5b11d226e9270900013c3029,2024-02-21_21h21.48.590,kallum_motion_pilot,2023.2.2,Win32,1.463271876,5b11d226e9270900013c3029,65d6bb0e977760de756971f7,65d6bc8e55338e31f88becbe,0.2808,0.2811,1,24,186,140,1,sevenfive,,,,,,,,,,,,,,,,,,,,,,,,,,,,,,,,,,,,,,,,,,,,,,,,,,,,,,,,,,,,,,,,,,,,,,,,,,,,,,,,,,,,,,,,,,,,,,,,,,,,,,,,,,,,,,,,,,,,,,,,,,,,,,,,,,,,,,,,,
,,5b11d226e9270900013c3029,2024-02-21_21h21.48.590,kallum_motion_pilot,2023.2.2,Win32,1.463271876,5b11d226e9270900013c3029,65d6bb0e977760de756971f7,65d6bc8e55338e31f88becbe,0.2817,0.2819,1,25,187,110,1,eightsix,,,,,,,,,,,,,,,,,,,,,,,,,,,,,,,,,,,,,,,,,,,,,,,,,,,,,,,,,,,,,,,,,,,,,,,,,,,,,,,,,,,,,,,,,,,,,,,,,,,,,,,,,,,,,,,,,,,,,,,,,,,,,,,,,,,,,,,,,
,,5b11d226e9270900013c3029,2024-02-21_21h21.48.590,kallum_motion_pilot,2023.2.2,Win32,1.463271876,5b11d226e9270900013c3029,65d6bb0e977760de756971f7,65d6bc8e55338e31f88becbe,0.2823,0.2825,1,26,188,156,1,sevenfive,,,,,,,,,,,,,,,,,,,,,,,,,,,,,,,,,,,,,,,,,,,,,,,,,,,,,,,,,,,,,,,,,,,,,,,,,,,,,,,,,,,,,,,,,,,,,,,,,,,,,,,,,,,,,,,,,,,,,,,,,,,,,,,,,,,,,,,,,
,,5b11d226e9270900013c3029,2024-02-21_21h21.48.590,kallum_motion_pilot,2023.2.2,Win32,1.463271876,5b11d226e9270900013c3029,65d6bb0e977760de756971f7,65d6bc8e55338e31f88becbe,0.2828,0.283,1,27,189,105,1,fiveseven,,,,,,,,,,,,,,,,,,,,,,,,,,,,,,,,,,,,,,,,,,,,,,,,,,,,,,,,,,,,,,,,,,,,,,,,,,,,,,,,,,,,,,,,,,,,,,,,,,,,,,,,,,,,,,,,,,,,,,,,,,,,,,,,,,,,,,,,,
,,5b11d226e9270900013c3029,2024-02-21_21h21.48.590,kallum_motion_pilot,2023.2.2,Win32,1.463271876,5b11d226e9270900013c3029,65d6bb0e977760de756971f7,65d6bc8e55338e31f88becbe,0.2833,0.2836,1,28,190,89,1,fiveseven,,,,,,,,,,,,,,,,,,,,,,,,,,,,,,,,,,,,,,,,,,,,,,,,,,,,,,,,,,,,,,,,,,,,,,,,,,,,,,,,,,,,,,,,,,,,,,,,,,,,,,,,,,,,,,,,,,,,,,,,,,,,,,,,,,,,,,,,,
,,5b11d226e9270900013c3029,2024-02-21_21h21.48.590,kallum_motion_pilot,2023.2.2,Win32,1.463271876,5b11d226e9270900013c3029,65d6bb0e977760de756971f7,65d6bc8e55338e31f88becbe,0.284,0.2842,1,29,191,38,1,fourtwo,,,,,,,,,,,,,,,,,,,,,,,,,,,,,,,,,,,,,,,,,,,,,,,,,,,,,,,,,,,,,,,,,,,,,,,,,,,,,,,,,,,,,,,,,,,,,,,,,,,,,,,,,,,,,,,,,,,,,,,,,,,,,,,,,,,,,,,,,
,,5b11d226e9270900013c3029,2024-02-21_21h21.48.590,kallum_motion_pilot,2023.2.2,Win32,1.463271876,5b11d226e9270900013c3029,65d6bb0e977760de756971f7,65d6bc8e55338e31f88becbe,0.2848,0.2851,1,30,192,132,1,sevenfive,,,,,,,,,,,,,,,,,,,,,,,,,,,,,,,,,,,,,,,,,,,,,,,,,,,,,,,,,,,,,,,,,,,,,,,,,,,,,,,,,,,,,,,,,,,,,,,,,,,,,,,,,,,,,,,,,,,,,,,,,,,,,,,,,,,,,,,,,
,,5b11d226e9270900013c3029,2024-02-21_21h21.48.590,kallum_motion_pilot,2023.2.2,Win32,1.463271876,5b11d226e9270900013c3029,65d6bb0e977760de756971f7,65d6bc8e55338e31f88becbe,0.2855,0.2858,1,31,193,125,1,seveneight,,,,,,,,,,,,,,,,,,,,,,,,,,,,,,,,,,,,,,,,,,,,,,,,,,,,,,,,,,,,,,,,,,,,,,,,,,,,,,,,,,,,,,,,,,,,,,,,,,,,,,,,,,,,,,,,,,,,,,,,,,,,,,,,,,,,,,,,,
,,5b11d226e9270900013c3029,2024-02-21_21h21.48.590,kallum_motion_pilot,2023.2.2,Win32,1.463271876,5b11d226e9270900013c3029,65d6bb0e977760de756971f7,65d6bc8e55338e31f88becbe,0.2864,0.2871,1,32,194,114,1,sixfive,,,,,,,,,,,,,,,,,,,,,,,,,,,,,,,,,,,,,,,,,,,,,,,,,,,,,,,,,,,,,,,,,,,,,,,,,,,,,,,,,,,,,,,,,,,,,,,,,,,,,,,,,,,,,,,,,,,,,,,,,,,,,,,,,,,,,,,,,
,,5b11d226e9270900013c3029,2024-02-21_21h21.48.590,kallum_motion_pilot,2023.2.2,Win32,1.463271876,5b11d226e9270900013c3029,65d6bb0e977760de756971f7,65d6bc8e55338e31f88becbe,0.2878,0.2882,1,33,195,29,1,threefour,,,,,,,,,,,,,,,,,,,,,,,,,,,,,,,,,,,,,,,,,,,,,,,,,,,,,,,,,,,,,,,,,,,,,,,,,,,,,,,,,,,,,,,,,,,,,,,,,,,,,,,,,,,,,,,,,,,,,,,,,,,,,,,,,,,,,,,,,
,,5b11d226e9270900013c3029,2024-02-21_21h21.48.590,kallum_motion_pilot,2023.2.2,Win32,1.463271876,5b11d226e9270900013c3029,65d6bb0e977760de756971f7,65d6bc8e55338e31f88becbe,0.2886,0.2889,1,34,196,120,1,fivesix,,,,,,,,,,,,,,,,,,,,,,,,,,,,,,,,,,,,,,,,,,,,,,,,,,,,,,,,,,,,,,,,,,,,,,,,,,,,,,,,,,,,,,,,,,,,,,,,,,,,,,,,,,,,,,,,,,,,,,,,,,,,,,,,,,,,,,,,,
,,5b11d226e9270900013c3029,2024-02-21_21h21.48.590,kallum_motion_pilot,2023.2.2,Win32,1.463271876,5b11d226e9270900013c3029,65d6bb0e977760de756971f7,65d6bc8e55338e31f88becbe,0.2892,0.2894,1,35,197,79,1,eightseven,,,,,,,,,,,,,,,,,,,,,,,,,,,,,,,,,,,,,,,,,,,,,,,,,,,,,,,,,,,,,,,,,,,,,,,,,,,,,,,,,,,,,,,,,,,,,,,,,,,,,,,,,,,,,,,,,,,,,,,,,,,,,,,,,,,,,,,,,
,,5b11d226e9270900013c3029,2024-02-21_21h21.48.590,kallum_motion_pilot,2023.2.2,Win32,1.463271876,5b11d226e9270900013c3029,65d6bb0e977760de756971f7,65d6bc8e55338e31f88becbe,0.2899,0.2901,1,36,198,57,1,onethree,,,,,,,,,,,,,,,,,,,,,,,,,,,,,,,,,,,,,,,,,,,,,,,,,,,,,,,,,,,,,,,,,,,,,,,,,,,,,,,,,,,,,,,,,,,,,,,,,,,,,,,,,,,,,,,,,,,,,,,,,,,,,,,,,,,,,,,,,
,,5b11d226e9270900013c3029,2024-02-21_21h21.48.590,kallum_motion_pilot,2023.2.2,Win32,1.463271876,5b11d226e9270900013c3029,65d6bb0e977760de756971f7,65d6bc8e55338e31f88becbe,0.2905,0.291,1,37,199,60,1,threeone,,,,,,,,,,,,,,,,,,,,,,,,,,,,,,,,,,,,,,,,,,,,,,,,,,,,,,,,,,,,,,,,,,,,,,,,,,,,,,,,,,,,,,,,,,,,,,,,,,,,,,,,,,,,,,,,,,,,,,,,,,,,,,,,,,,,,,,,,
,,5b11d226e9270900013c3029,2024-02-21_21h21.48.590,kallum_motion_pilot,2023.2.2,Win32,1.463271876,5b11d226e9270900013c3029,65d6bb0e977760de756971f7,65d6bc8e55338e31f88becbe,0.2918,0.2921,1,38,200,48,1,onetwo,,,,,,,,,,,,,,,,,,,,,,,,,,,,,,,,,,,,,,,,,,,,,,,,,,,,,,,,,,,,,,,,,,,,,,,,,,,,,,,,,,,,,,,,,,,,,,,,,,,,,,,,,,,,,,,,,,,,,,,,,,,,,,,,,,,,,,,,,
,,5b11d226e9270900013c3029,2024-02-21_21h21.48.590,kallum_motion_pilot,2023.2.2,Win32,1.463271876,5b11d226e9270900013c3029,65d6bb0e977760de756971f7,65d6bc8e55338e31f88becbe,0.2925,0.2928,1,39,201,157,1,seveneight,,,,,,,,,,,,,,,,,,,,,,,,,,,,,,,,,,,,,,,,,,,,,,,,,,,,,,,,,,,,,,,,,,,,,,,,,,,,,,,,,,,,,,,,,,,,,,,,,,,,,,,,,,,,,,,,,,,,,,,,,,,,,,,,,,,,,,,,,
,,5b11d226e9270900013c3029,2024-02-21_21h21.48.590,kallum_motion_pilot,2023.2.2,Win32,1.463271876,5b11d226e9270900013c3029,65d6bb0e977760de756971f7,65d6bc8e55338e31f88becbe,0.2931,0.2934,1,40,202,113,1,fiveseven,,,,,,,,,,,,,,,,,,,,,,,,,,,,,,,,,,,,,,,,,,,,,,,,,,,,,,,,,,,,,,,,,,,,,,,,,,,,,,,,,,,,,,,,,,,,,,,,,,,,,,,,,,,,,,,,,,,,,,,,,,,,,,,,,,,,,,,,,
,,5b11d226e9270900013c3029,2024-02-21_21h21.48.590,kallum_motion_pilot,2023.2.2,Win32,1.463271876,5b11d226e9270900013c3029,65d6bb0e977760de756971f7,65d6bc8e55338e31f88becbe,0.2938,0.2941,1,41,203,3,1,twofour,,,,,,,,,,,,,,,,,,,,,,,,,,,,,,,,,,,,,,,,,,,,,,,,,,,,,,,,,,,,,,,,,,,,,,,,,,,,,,,,,,,,,,,,,,,,,,,,,,,,,,,,,,,,,,,,,,,,,,,,,,,,,,,,,,,,,,,,,
,,5b11d226e9270900013c3029,2024-02-21_21h21.48.590,kallum_motion_pilot,2023.2.2,Win32,1.463271876,5b11d226e9270900013c3029,65d6bb0e977760de756971f7,65d6bc8e55338e31f88becbe,0.2945,0.2948,1,42,204,155,1,sixeight,,,,,,,,,,,,,,,,,,,,,,,,,,,,,,,,,,,,,,,,,,,,,,,,,,,,,,,,,,,,,,,,,,,,,,,,,,,,,,,,,,,,,,,,,,,,,,,,,,,,,,,,,,,,,,,,,,,,,,,,,,,,,,,,,,,,,,,,,
,,5b11d226e9270900013c3029,2024-02-21_21h21.48.590,kallum_motion_pilot,2023.2.2,Win32,1.463271876,5b11d226e9270900013c3029,65d6bb0e977760de756971f7,65d6bc8e55338e31f88becbe,0.2953,0.2956,1,43,205,142,1,eightsix,,,,,,,,,,,,,,,,,,,,,,,,,,,,,,,,,,,,,,,,,,,,,,,,,,,,,,,,,,,,,,,,,,,,,,,,,,,,,,,,,,,,,,,,,,,,,,,,,,,,,,,,,,,,,,,,,,,,,,,,,,,,,,,,,,,,,,,,,
,,5b11d226e9270900013c3029,2024-02-21_21h21.48.590,kallum_motion_pilot,2023.2.2,Win32,1.463271876,5b11d226e9270900013c3029,65d6bb0e977760de756971f7,65d6bc8e55338e31f88becbe,0.2959,0.2962,1,44,206,84,1,sevenfive,,,,,,,,,,,,,,,,,,,,,,,,,,,,,,,,,,,,,,,,,,,,,,,,,,,,,,,,,,,,,,,,,,,,,,,,,,,,,,,,,,,,,,,,,,,,,,,,,,,,,,,,,,,,,,,,,,,,,,,,,,,,,,,,,,,,,,,,,
,,5b11d226e9270900013c3029,2024-02-21_21h21.48.590,kallum_motion_pilot,2023.2.2,Win32,1.463271876,5b11d226e9270900013c3029,65d6bb0e977760de756971f7,65d6bc8e55338e31f88becbe,0.2965,0.2969,1,45,207,136,1,fivesix,,,,,,,,,,,,,,,,,,,,,,,,,,,,,,,,,,,,,,,,,,,,,,,,,,,,,,,,,,,,,,,,,,,,,,,,,,,,,,,,,,,,,,,,,,,,,,,,,,,,,,,,,,,,,,,,,,,,,,,,,,,,,,,,,,,,,,,,,
,,5b11d226e9270900013c3029,2024-02-21_21h21.48.590,kallum_motion_pilot,2023.2.2,Win32,1.463271876,5b11d226e9270900013c3029,65d6bb0e977760de756971f7,65d6bc8e55338e31f88becbe,0.2974,0.2976,1,46,208,66,1,twoone,,,,,,,,,,,,,,,,,,,,,,,,,,,,,,,,,,,,,,,,,,,,,,,,,,,,,,,,,,,,,,,,,,,,,,,,,,,,,,,,,,,,,,,,,,,,,,,,,,,,,,,,,,,,,,,,,,,,,,,,,,,,,,,,,,,,,,,,,
,,5b11d226e9270900013c3029,2024-02-21_21h21.48.590,kallum_motion_pilot,2023.2.2,Win32,1.463271876,5b11d226e9270900013c3029,65d6bb0e977760de756971f7,65d6bc8e55338e31f88becbe,0.2979,0.2981,1,47,209,92,1,sevenfive,,,,,,,,,,,,,,,,,,,,,,,,,,,,,,,,,,,,,,,,,,,,,,,,,,,,,,,,,,,,,,,,,,,,,,,,,,,,,,,,,,,,,,,,,,,,,,,,,,,,,,,,,,,,,,,,,,,,,,,,,,,,,,,,,,,,,,,,,
,,5b11d226e9270900013c3029,2024-02-21_21h21.48.590,kallum_motion_pilot,2023.2.2,Win32,1.463271876,5b11d226e9270900013c3029,65d6bb0e977760de756971f7,65d6bc8e55338e31f88becbe,0.2983,0.2986,1,48,210,72,1,onetwo,,,,,,,,,,,,,,,,,,,,,,,,,,,,,,,,,,,,,,,,,,,,,,,,,,,,,,,,,,,,,,,,,,,,,,,,,,,,,,,,,,,,,,,,,,,,,,,,,,,,,,,,,,,,,,,,,,,,,,,,,,,,,,,,,,,,,,,,,
,,5b11d226e9270900013c3029,2024-02-21_21h21.48.590,kallum_motion_pilot,2023.2.2,Win32,1.463271876,5b11d226e9270900013c3029,65d6bb0e977760de756971f7,65d6bc8e55338e31f88becbe,0.2989,0.2991,1,49,211,149,1,seveneight,,,,,,,,,,,,,,,,,,,,,,,,,,,,,,,,,,,,,,,,,,,,,,,,,,,,,,,,,,,,,,,,,,,,,,,,,,,,,,,,,,,,,,,,,,,,,,,,,,,,,,,,,,,,,,,,,,,,,,,,,,,,,,,,,,,,,,,,,
,,5b11d226e9270900013c3029,2024-02-21_21h21.48.590,kallum_motion_pilot,2023.2.2,Win32,1.463271876,5b11d226e9270900013c3029,65d6bb0e977760de756971f7,65d6bc8e55338e31f88becbe,0.2994,0.2997,1,50,212,74,1,twoone,,,,,,,,,,,,,,,,,,,,,,,,,,,,,,,,,,,,,,,,,,,,,,,,,,,,,,,,,,,,,,,,,,,,,,,,,,,,,,,,,,,,,,,,,,,,,,,,,,,,,,,,,,,,,,,,,,,,,,,,,,,,,,,,,,,,,,,,,
,,5b11d226e9270900013c3029,2024-02-21_21h21.48.590,kallum_motion_pilot,2023.2.2,Win32,1.463271876,5b11d226e9270900013c3029,65d6bb0e977760de756971f7,65d6bc8e55338e31f88becbe,0.2999,0.3002,1,51,213,65,1,onethree,,,,,,,,,,,,,,,,,,,,,,,,,,,,,,,,,,,,,,,,,,,,,,,,,,,,,,,,,,,,,,,,,,,,,,,,,,,,,,,,,,,,,,,,,,,,,,,,,,,,,,,,,,,,,,,,,,,,,,,,,,,,,,,,,,,,,,,,,
,,5b11d226e9270900013c3029,2024-02-21_21h21.48.590,kallum_motion_pilot,2023.2.2,Win32,1.463271876,5b11d226e9270900013c3029,65d6bb0e977760de756971f7,65d6bc8e55338e31f88becbe,0.3005,0.3008,1,52,214,43,1,twofour,,,,,,,,,,,,,,,,,,,,,,,,,,,,,,,,,,,,,,,,,,,,,,,,,,,,,,,,,,,,,,,,,,,,,,,,,,,,,,,,,,,,,,,,,,,,,,,,,,,,,,,,,,,,,,,,,,,,,,,,,,,,,,,,,,,,,,,,,
,,5b11d226e9270900013c3029,2024-02-21_21h21.48.590,kallum_motion_pilot,2023.2.2,Win32,1.463271876,5b11d226e9270900013c3029,65d6bb0e977760de756971f7,65d6bc8e55338e31f88becbe,0.301,0.3013,1,53,215,119,1,eightseven,,,,,,,,,,,,,,,,,,,,,,,,,,,,,,,,,,,,,,,,,,,,,,,,,,,,,,,,,,,,,,,,,,,,,,,,,,,,,,,,,,,,,,,,,,,,,,,,,,,,,,,,,,,,,,,,,,,,,,,,,,,,,,,,,,,,,,,,,
,,5b11d226e9270900013c3029,2024-02-21_21h21.48.590,kallum_motion_pilot,2023.2.2,Win32,1.463271876,5b11d226e9270900013c3029,65d6bb0e977760de756971f7,65d6bc8e55338e31f88becbe,0.3015,0.3018,1,54,216,53,1,threefour,,,,,,,,,,,,,,,,,,,,,,,,,,,,,,,,,,,,,,,,,,,,,,,,,,,,,,,,,,,,,,,,,,,,,,,,,,,,,,,,,,,,,,,,,,,,,,,,,,,,,,,,,,,,,,,,,,,,,,,,,,,,,,,,,,,,,,,,,
,,5b11d226e9270900013c3029,2024-02-21_21h21.48.590,kallum_motion_pilot,2023.2.2,Win32,1.463271876,5b11d226e9270900013c3029,65d6bb0e977760de756971f7,65d6bc8e55338e31f88becbe,0.3021,0.3023,1,55,217,109,1,seveneight,,,,,,,,,,,,,,,,,,,,,,,,,,,,,,,,,,,,,,,,,,,,,,,,,,,,,,,,,,,,,,,,,,,,,,,,,,,,,,,,,,,,,,,,,,,,,,,,,,,,,,,,,,,,,,,,,,,,,,,,,,,,,,,,,,,,,,,,,
,,5b11d226e9270900013c3029,2024-02-21_21h21.48.590,kallum_motion_pilot,2023.2.2,Win32,1.463271876,5b11d226e9270900013c3029,65d6bb0e977760de756971f7,65d6bc8e55338e31f88becbe,0.3026,0.3029,1,56,218,52,1,threeone,,,,,,,,,,,,,,,,,,,,,,,,,,,,,,,,,,,,,,,,,,,,,,,,,,,,,,,,,,,,,,,,,,,,,,,,,,,,,,,,,,,,,,,,,,,,,,,,,,,,,,,,,,,,,,,,,,,,,,,,,,,,,,,,,,,,,,,,,
,,5b11d226e9270900013c3029,2024-02-21_21h21.48.590,kallum_motion_pilot,2023.2.2,Win32,1.463271876,5b11d226e9270900013c3029,65d6bb0e977760de756971f7,65d6bc8e55338e31f88becbe,0.3031,0.3033,1,57,219,144,1,fivesix,,,,,,,,,,,,,,,,,,,,,,,,,,,,,,,,,,,,,,,,,,,,,,,,,,,,,,,,,,,,,,,,,,,,,,,,,,,,,,,,,,,,,,,,,,,,,,,,,,,,,,,,,,,,,,,,,,,,,,,,,,,,,,,,,,,,,,,,,
,,5b11d226e9270900013c3029,2024-02-21_21h21.48.590,kallum_motion_pilot,2023.2.2,Win32,1.463271876,5b11d226e9270900013c3029,65d6bb0e977760de756971f7,65d6bc8e55338e31f88becbe,0.3036,0.3039,1,58,220,69,1,threefour,,,,,,,,,,,,,,,,,,,,,,,,,,,,,,,,,,,,,,,,,,,,,,,,,,,,,,,,,,,,,,,,,,,,,,,,,,,,,,,,,,,,,,,,,,,,,,,,,,,,,,,,,,,,,,,,,,,,,,,,,,,,,,,,,,,,,,,,,
,,5b11d226e9270900013c3029,2024-02-21_21h21.48.590,kallum_motion_pilot,2023.2.2,Win32,1.463271876,5b11d226e9270900013c3029,65d6bb0e977760de756971f7,65d6bc8e55338e31f88becbe,0.3041,0.3044,1,59,221,45,1,threefour,,,,,,,,,,,,,,,,,,,,,,,,,,,,,,,,,,,,,,,,,,,,,,,,,,,,,,,,,,,,,,,,,,,,,,,,,,,,,,,,,,,,,,,,,,,,,,,,,,,,,,,,,,,,,,,,,,,,,,,,,,,,,,,,,,,,,,,,,
,,5b11d226e9270900013c3029,2024-02-21_21h21.48.590,kallum_motion_pilot,2023.2.2,Win32,1.463271876,5b11d226e9270900013c3029,65d6bb0e977760de756971f7,65d6bc8e55338e31f88becbe,0.3046,0.3049,1,60,222,93,1,seveneight,,,,,,,,,,,,,,,,,,,,,,,,,,,,,,,,,,,,,,,,,,,,,,,,,,,,,,,,,,,,,,,,,,,,,,,,,,,,,,,,,,,,,,,,,,,,,,,,,,,,,,,,,,,,,,,,,,,,,,,,,,,,,,,,,,,,,,,,,
,,5b11d226e9270900013c3029,2024-02-21_21h21.48.590,kallum_motion_pilot,2023.2.2,Win32,1.463271876,5b11d226e9270900013c3029,65d6bb0e977760de756971f7,65d6bc8e55338e31f88becbe,0.3051,0.3053,1,61,223,129,1,fiveseven,,,,,,,,,,,,,,,,,,,,,,,,,,,,,,,,,,,,,,,,,,,,,,,,,,,,,,,,,,,,,,,,,,,,,,,,,,,,,,,,,,,,,,,,,,,,,,,,,,,,,,,,,,,,,,,,,,,,,,,,,,,,,,,,,,,,,,,,,
,,5b11d226e9270900013c3029,2024-02-21_21h21.48.590,kallum_motion_pilot,2023.2.2,Win32,1.463271876,5b11d226e9270900013c3029,65d6bb0e977760de756971f7,65d6bc8e55338e31f88becbe,0.3059,0.3061,1,62,224,46,1,fourtwo,,,,,,,,,,,,,,,,,,,,,,,,,,,,,,,,,,,,,,,,,,,,,,,,,,,,,,,,,,,,,,,,,,,,,,,,,,,,,,,,,,,,,,,,,,,,,,,,,,,,,,,,,,,,,,,,,,,,,,,,,,,,,,,,,,,,,,,,,
,,5b11d226e9270900013c3029,2024-02-21_21h21.48.590,kallum_motion_pilot,2023.2.2,Win32,1.463271876,5b11d226e9270900013c3029,65d6bb0e977760de756971f7,65d6bc8e55338e31f88becbe,0.3068,0.3073,1,63,225,64,1,onetwo,,,,,,,,,,,,,,,,,,,,,,,,,,,,,,,,,,,,,,,,,,,,,,,,,,,,,,,,,,,,,,,,,,,,,,,,,,,,,,,,,,,,,,,,,,,,,,,,,,,,,,,,,,,,,,,,,,,,,,,,,,,,,,,,,,,,,,,,,
,,5b11d226e9270900013c3029,2024-02-21_21h21.48.590,kallum_motion_pilot,2023.2.2,Win32,1.463271876,5b11d226e9270900013c3029,65d6bb0e977760de756971f7,65d6bc8e55338e31f88becbe,0.3077,0.308,1,64,226,153,1,fiveseven,,,,,,,,,,,,,,,,,,,,,,,,,,,,,,,,,,,,,,,,,,,,,,,,,,,,,,,,,,,,,,,,,,,,,,,,,,,,,,,,,,,,,,,,,,,,,,,,,,,,,,,,,,,,,,,,,,,,,,,,,,,,,,,,,,,,,,,,,
,,5b11d226e9270900013c3029,2024-02-21_21h21.48.590,kallum_motion_pilot,2023.2.2,Win32,1.463271876,5b11d226e9270900013c3029,65d6bb0e977760de756971f7,65d6bc8e55338e31f88becbe,0.3083,0.3086,1,65,227,90,1,sixfive,,,,,,,,,,,,,,,,,,,,,,,,,,,,,,,,,,,,,,,,,,,,,,,,,,,,,,,,,,,,,,,,,,,,,,,,,,,,,,,,,,,,,,,,,,,,,,,,,,,,,,,,,,,,,,,,,,,,,,,,,,,,,,,,,,,,,,,,,
,,5b11d226e9270900013c3029,2024-02-21_21h21.48.590,kallum_motion_pilot,2023.2.2,Win32,1.463271876,5b11d226e9270900013c3029,65d6bb0e977760de756971f7,65d6bc8e55338e31f88becbe,0.3089,0.3092,1,66,228,135,1,eightseven,,,,,,,,,,,,,,,,,,,,,,,,,,,,,,,,,,,,,,,,,,,,,,,,,,,,,,,,,,,,,,,,,,,,,,,,,,,,,,,,,,,,,,,,,,,,,,,,,,,,,,,,,,,,,,,,,,,,,,,,,,,,,,,,,,,,,,,,,
,,5b11d226e9270900013c3029,2024-02-21_21h21.48.590,kallum_motion_pilot,2023.2.2,Win32,1.463271876,5b11d226e9270900013c3029,65d6bb0e977760de756971f7,65d6bc8e55338e31f88becbe,0.3096,0.3098,1,67,229,23,1,fourthree,,,,,,,,,,,,,,,,,,,,,,,,,,,,,,,,,,,,,,,,,,,,,,,,,,,,,,,,,,,,,,,,,,,,,,,,,,,,,,,,,,,,,,,,,,,,,,,,,,,,,,,,,,,,,,,,,,,,,,,,,,,,,,,,,,,,,,,,,
,,5b11d226e9270900013c3029,2024-02-21_21h21.48.590,kallum_motion_pilot,2023.2.2,Win32,1.463271876,5b11d226e9270900013c3029,65d6bb0e977760de756971f7,65d6bc8e55338e31f88becbe,0.3102,0.3105,1,68,230,97,1,fiveseven,,,,,,,,,,,,,,,,,,,,,,,,,,,,,,,,,,,,,,,,,,,,,,,,,,,,,,,,,,,,,,,,,,,,,,,,,,,,,,,,,,,,,,,,,,,,,,,,,,,,,,,,,,,,,,,,,,,,,,,,,,,,,,,,,,,,,,,,,
,,5b11d226e9270900013c3029,2024-02-21_21h21.48.590,kallum_motion_pilot,2023.2.2,Win32,1.463271876,5b11d226e9270900013c3029,65d6bb0e977760de756971f7,65d6bc8e55338e31f88becbe,0.3108,0.3111,1,69,231,121,1,fiveseven,,,,,,,,,,,,,,,,,,,,,,,,,,,,,,,,,,,,,,,,,,,,,,,,,,,,,,,,,,,,,,,,,,,,,,,,,,,,,,,,,,,,,,,,,,,,,,,,,,,,,,,,,,,,,,,,,,,,,,,,,,,,,,,,,,,,,,,,,
,,5b11d226e9270900013c3029,2024-02-21_21h21.48.590,kallum_motion_pilot,2023.2.2,Win32,1.463271876,5b11d226e9270900013c3029,65d6bb0e977760de756971f7,65d6bc8e55338e31f88becbe,0.3114,0.3119,1,70,232,44,1,threeone,,,,,,,,,,,,,,,,,,,,,,,,,,,,,,,,,,,,,,,,,,,,,,,,,,,,,,,,,,,,,,,,,,,,,,,,,,,,,,,,,,,,,,,,,,,,,,,,,,,,,,,,,,,,,,,,,,,,,,,,,,,,,,,,,,,,,,,,,
,,5b11d226e9270900013c3029,2024-02-21_21h21.48.590,kallum_motion_pilot,2023.2.2,Win32,1.463271876,5b11d226e9270900013c3029,65d6bb0e977760de756971f7,65d6bc8e55338e31f88becbe,0.3123,0.3126,1,71,233,85,1,seveneight,,,,,,,,,,,,,,,,,,,,,,,,,,,,,,,,,,,,,,,,,,,,,,,,,,,,,,,,,,,,,,,,,,,,,,,,,,,,,,,,,,,,,,,,,,,,,,,,,,,,,,,,,,,,,,,,,,,,,,,,,,,,,,,,,,,,,,,,,
,,5b11d226e9270900013c3029,2024-02-21_21h21.48.590,kallum_motion_pilot,2023.2.2,Win32,1.463271876,5b11d226e9270900013c3029,65d6bb0e977760de756971f7,65d6bc8e55338e31f88becbe,0.313,0.3133,1,72,234,83,1,sixeight,,,,,,,,,,,,,,,,,,,,,,,,,,,,,,,,,,,,,,,,,,,,,,,,,,,,,,,,,,,,,,,,,,,,,,,,,,,,,,,,,,,,,,,,,,,,,,,,,,,,,,,,,,,,,,,,,,,,,,,,,,,,,,,,,,,,,,,,,
,,5b11d226e9270900013c3029,2024-02-21_21h21.48.590,kallum_motion_pilot,2023.2.2,Win32,1.463271876,5b11d226e9270900013c3029,65d6bb0e977760de756971f7,65d6bc8e55338e31f88becbe,0.3137,0.3139,1,73,235,159,1,eightseven,,,,,,,,,,,,,,,,,,,,,,,,,,,,,,,,,,,,,,,,,,,,,,,,,,,,,,,,,,,,,,,,,,,,,,,,,,,,,,,,,,,,,,,,,,,,,,,,,,,,,,,,,,,,,,,,,,,,,,,,,,,,,,,,,,,,,,,,,
,,5b11d226e9270900013c3029,2024-02-21_21h21.48.590,kallum_motion_pilot,2023.2.2,Win32,1.463271876,5b11d226e9270900013c3029,65d6bb0e977760de756971f7,65d6bc8e55338e31f88becbe,0.3143,0.3145,1,74,236,15,1,fourthree,,,,,,,,,,,,,,,,,,,,,,,,,,,,,,,,,,,,,,,,,,,,,,,,,,,,,,,,,,,,,,,,,,,,,,,,,,,,,,,,,,,,,,,,,,,,,,,,,,,,,,,,,,,,,,,,,,,,,,,,,,,,,,,,,,,,,,,,,
,,5b11d226e9270900013c3029,2024-02-21_21h21.48.590,kallum_motion_pilot,2023.2.2,Win32,1.463271876,5b11d226e9270900013c3029,65d6bb0e977760de756971f7,65d6bc8e55338e31f88becbe,0.3148,0.3151,1,75,237,49,1,onethree,,,,,,,,,,,,,,,,,,,,,,,,,,,,,,,,,,,,,,,,,,,,,,,,,,,,,,,,,,,,,,,,,,,,,,,,,,,,,,,,,,,,,,,,,,,,,,,,,,,,,,,,,,,,,,,,,,,,,,,,,,,,,,,,,,,,,,,,,
,,5b11d226e9270900013c3029,2024-02-21_21h21.48.590,kallum_motion_pilot,2023.2.2,Win32,1.463271876,5b11d226e9270900013c3029,65d6bb0e977760de756971f7,65d6bc8e55338e31f88becbe,0.3153,0.3157,1,76,238,10,1,twoone,,,,,,,,,,,,,,,,,,,,,,,,,,,,,,,,,,,,,,,,,,,,,,,,,,,,,,,,,,,,,,,,,,,,,,,,,,,,,,,,,,,,,,,,,,,,,,,,,,,,,,,,,,,,,,,,,,,,,,,,,,,,,,,,,,,,,,,,,
,,5b11d226e9270900013c3029,2024-02-21_21h21.48.590,kallum_motion_pilot,2023.2.2,Win32,1.463271876,5b11d226e9270900013c3029,65d6bb0e977760de756971f7,65d6bc8e55338e31f88becbe,0.3159,0.3162,1,77,239,7,1,fourthree,,,,,,,,,,,,,,,,,,,,,,,,,,,,,,,,,,,,,,,,,,,,,,,,,,,,,,,,,,,,,,,,,,,,,,,,,,,,,,,,,,,,,,,,,,,,,,,,,,,,,,,,,,,,,,,,,,,,,,,,,,,,,,,,,,,,,,,,,
,,5b11d226e9270900013c3029,2024-02-21_21h21.48.590,kallum_motion_pilot,2023.2.2,Win32,1.463271876,5b11d226e9270900013c3029,65d6bb0e977760de756971f7,65d6bc8e55338e31f88becbe,0.3165,0.3169,1,78,240,123,1,sixeight,,,,,,,,,,,,,,,,,,,,,,,,,,,,,,,,,,,,,,,,,,,,,,,,,,,,,,,,,,,,,,,,,,,,,,,,,,,,,,,,,,,,,,,,,,,,,,,,,,,,,,,,,,,,,,,,,,,,,,,,,,,,,,,,,,,,,,,,,
,,5b11d226e9270900013c3029,2024-02-21_21h21.48.590,kallum_motion_pilot,2023.2.2,Win32,1.463271876,5b11d226e9270900013c3029,65d6bb0e977760de756971f7,65d6bc8e55338e31f88becbe,0.3173,0.3176,1,79,241,130,1,sixfive,,,,,,,,,,,,,,,,,,,,,,,,,,,,,,,,,,,,,,,,,,,,,,,,,,,,,,,,,,,,,,,,,,,,,,,,,,,,,,,,,,,,,,,,,,,,,,,,,,,,,,,,,,,,,,,,,,,,,,,,,,,,,,,,,,,,,,,,,
,,5b11d226e9270900013c3029,2024-02-21_21h21.48.590,kallum_motion_pilot,2023.2.2,Win32,1.463271876,5b11d226e9270900013c3029,65d6bb0e977760de756971f7,65d6bc8e55338e31f88becbe,0.318,0.3183,1,80,242,104,1,fivesix,,,,,,,,,,,,,,,,,,,,,,,,,,,,,,,,,,,,,,,,,,,,,,,,,,,,,,,,,,,,,,,,,,,,,,,,,,,,,,,,,,,,,,,,,,,,,,,,,,,,,,,,,,,,,,,,,,,,,,,,,,,,,,,,,,,,,,,,,
,,5b11d226e9270900013c3029,2024-02-21_21h21.48.590,kallum_motion_pilot,2023.2.2,Win32,1.463271876,5b11d226e9270900013c3029,65d6bb0e977760de756971f7,65d6bc8e55338e31f88becbe,0.3185,0.3188,1,81,243,58,1,twoone,,,,,,,,,,,,,,,,,,,,,,,,,,,,,,,,,,,,,,,,,,,,,,,,,,,,,,,,,,,,,,,,,,,,,,,,,,,,,,,,,,,,,,,,,,,,,,,,,,,,,,,,,,,,,,,,,,,,,,,,,,,,,,,,,,,,,,,,,
,,5b11d226e9270900013c3029,2024-02-21_21h21.48.590,kallum_motion_pilot,2023.2.2,Win32,1.463271876,5b11d226e9270900013c3029,65d6bb0e977760de756971f7,65d6bc8e55338e31f88becbe,0.3191,0.3193,1,82,244,56,1,onetwo,,,,,,,,,,,,,,,,,,,,,,,,,,,,,,,,,,,,,,,,,,,,,,,,,,,,,,,,,,,,,,,,,,,,,,,,,,,,,,,,,,,,,,,,,,,,,,,,,,,,,,,,,,,,,,,,,,,,,,,,,,,,,,,,,,,,,,,,,
,,5b11d226e9270900013c3029,2024-02-21_21h21.48.590,kallum_motion_pilot,2023.2.2,Win32,1.463271876,5b11d226e9270900013c3029,65d6bb0e977760de756971f7,65d6bc8e55338e31f88becbe,0.3197,0.32,1,83,245,154,1,sixfive,,,,,,,,,,,,,,,,,,,,,,,,,,,,,,,,,,,,,,,,,,,,,,,,,,,,,,,,,,,,,,,,,,,,,,,,,,,,,,,,,,,,,,,,,,,,,,,,,,,,,,,,,,,,,,,,,,,,,,,,,,,,,,,,,,,,,,,,,
,,5b11d226e9270900013c3029,2024-02-21_21h21.48.590,kallum_motion_pilot,2023.2.2,Win32,1.463271876,5b11d226e9270900013c3029,65d6bb0e977760de756971f7,65d6bc8e55338e31f88becbe,0.3203,0.3208,1,84,246,73,1,onethree,,,,,,,,,,,,,,,,,,,,,,,,,,,,,,,,,,,,,,,,,,,,,,,,,,,,,,,,,,,,,,,,,,,,,,,,,,,,,,,,,,,,,,,,,,,,,,,,,,,,,,,,,,,,,,,,,,,,,,,,,,,,,,,,,,,,,,,,,
,,5b11d226e9270900013c3029,2024-02-21_21h21.48.590,kallum_motion_pilot,2023.2.2,Win32,1.463271876,5b11d226e9270900013c3029,65d6bb0e977760de756971f7,65d6bc8e55338e31f88becbe,0.3213,0.3217,1,85,247,150,1,eightsix,,,,,,,,,,,,,,,,,,,,,,,,,,,,,,,,,,,,,,,,,,,,,,,,,,,,,,,,,,,,,,,,,,,,,,,,,,,,,,,,,,,,,,,,,,,,,,,,,,,,,,,,,,,,,,,,,,,,,,,,,,,,,,,,,,,,,,,,,
,,5b11d226e9270900013c3029,2024-02-21_21h21.48.590,kallum_motion_pilot,2023.2.2,Win32,1.463271876,5b11d226e9270900013c3029,65d6bb0e977760de756971f7,65d6bc8e55338e31f88becbe,0.3221,0.3224,1,86,248,94,1,eightsix,,,,,,,,,,,,,,,,,,,,,,,,,,,,,,,,,,,,,,,,,,,,,,,,,,,,,,,,,,,,,,,,,,,,,,,,,,,,,,,,,,,,,,,,,,,,,,,,,,,,,,,,,,,,,,,,,,,,,,,,,,,,,,,,,,,,,,,,,
,,5b11d226e9270900013c3029,2024-02-21_21h21.48.590,kallum_motion_pilot,2023.2.2,Win32,1.463271876,5b11d226e9270900013c3029,65d6bb0e977760de756971f7,65d6bc8e55338e31f88becbe,0.3227,0.323,1,87,249,19,1,twofour,,,,,,,,,,,,,,,,,,,,,,,,,,,,,,,,,,,,,,,,,,,,,,,,,,,,,,,,,,,,,,,,,,,,,,,,,,,,,,,,,,,,,,,,,,,,,,,,,,,,,,,,,,,,,,,,,,,,,,,,,,,,,,,,,,,,,,,,,
,,5b11d226e9270900013c3029,2024-02-21_21h21.48.590,kallum_motion_pilot,2023.2.2,Win32,1.463271876,5b11d226e9270900013c3029,65d6bb0e977760de756971f7,65d6bc8e55338e31f88becbe,0.3233,0.3236,1,88,250,68,1,threeone,,,,,,,,,,,,,,,,,,,,,,,,,,,,,,,,,,,,,,,,,,,,,,,,,,,,,,,,,,,,,,,,,,,,,,,,,,,,,,,,,,,,,,,,,,,,,,,,,,,,,,,,,,,,,,,,,,,,,,,,,,,,,,,,,,,,,,,,,
,,5b11d226e9270900013c3029,2024-02-21_21h21.48.590,kallum_motion_pilot,2023.2.2,Win32,1.463271876,5b11d226e9270900013c3029,65d6bb0e977760de756971f7,65d6bc8e55338e31f88becbe,0.3239,0.3242,1,89,251,27,1,twofour,,,,,,,,,,,,,,,,,,,,,,,,,,,,,,,,,,,,,,,,,,,,,,,,,,,,,,,,,,,,,,,,,,,,,,,,,,,,,,,,,,,,,,,,,,,,,,,,,,,,,,,,,,,,,,,,,,,,,,,,,,,,,,,,,,,,,,,,,
,,5b11d226e9270900013c3029,2024-02-21_21h21.48.590,kallum_motion_pilot,2023.2.2,Win32,1.463271876,5b11d226e9270900013c3029,65d6bb0e977760de756971f7,65d6bc8e55338e31f88becbe,0.3245,0.3248,1,90,252,54,1,fourtwo,,,,,,,,,,,,,,,,,,,,,,,,,,,,,,,,,,,,,,,,,,,,,,,,,,,,,,,,,,,,,,,,,,,,,,,,,,,,,,,,,,,,,,,,,,,,,,,,,,,,,,,,,,,,,,,,,,,,,,,,,,,,,,,,,,,,,,,,,
,,5b11d226e9270900013c3029,2024-02-21_21h21.48.590,kallum_motion_pilot,2023.2.2,Win32,1.463271876,5b11d226e9270900013c3029,65d6bb0e977760de756971f7,65d6bc8e55338e31f88becbe,0.325,0.3253,1,91,253,21,1,threefour,,,,,,,,,,,,,,,,,,,,,,,,,,,,,,,,,,,,,,,,,,,,,,,,,,,,,,,,,,,,,,,,,,,,,,,,,,,,,,,,,,,,,,,,,,,,,,,,,,,,,,,,,,,,,,,,,,,,,,,,,,,,,,,,,,,,,,,,,
,,5b11d226e9270900013c3029,2024-02-21_21h21.48.590,kallum_motion_pilot,2023.2.2,Win32,1.463271876,5b11d226e9270900013c3029,65d6bb0e977760de756971f7,65d6bc8e55338e31f88becbe,0.3256,0.3259,1,92,254,80,1,fivesix,,,,,,,,,,,,,,,,,,,,,,,,,,,,,,,,,,,,,,,,,,,,,,,,,,,,,,,,,,,,,,,,,,,,,,,,,,,,,,,,,,,,,,,,,,,,,,,,,,,,,,,,,,,,,,,,,,,,,,,,,,,,,,,,,,,,,,,,,
,,5b11d226e9270900013c3029,2024-02-21_21h21.48.590,kallum_motion_pilot,2023.2.2,Win32,1.463271876,5b11d226e9270900013c3029,65d6bb0e977760de756971f7,65d6bc8e55338e31f88becbe,0.3263,0.3271,1,93,255,158,1,eightsix,,,,,,,,,,,,,,,,,,,,,,,,,,,,,,,,,,,,,,,,,,,,,,,,,,,,,,,,,,,,,,,,,,,,,,,,,,,,,,,,,,,,,,,,,,,,,,,,,,,,,,,,,,,,,,,,,,,,,,,,,,,,,,,,,,,,,,,,,
,,5b11d226e9270900013c3029,2024-02-21_21h21.48.590,kallum_motion_pilot,2023.2.2,Win32,1.463271876,5b11d226e9270900013c3029,65d6bb0e977760de756971f7,65d6bc8e55338e31f88becbe,0.3276,0.3281,1,94,256,76,1,threeone,,,,,,,,,,,,,,,,,,,,,,,,,,,,,,,,,,,,,,,,,,,,,,,,,,,,,,,,,,,,,,,,,,,,,,,,,,,,,,,,,,,,,,,,,,,,,,,,,,,,,,,,,,,,,,,,,,,,,,,,,,,,,,,,,,,,,,,,,
,,5b11d226e9270900013c3029,2024-02-21_21h21.48.590,kallum_motion_pilot,2023.2.2,Win32,1.463271876,5b11d226e9270900013c3029,65d6bb0e977760de756971f7,65d6bc8e55338e31f88becbe,0.3285,0.3288,1,95,257,34,1,twoone,,,,,,,,,,,,,,,,,,,,,,,,,,,,,,,,,,,,,,,,,,,,,,,,,,,,,,,,,,,,,,,,,,,,,,,,,,,,,,,,,,,,,,,,,,,,,,,,,,,,,,,,,,,,,,,,,,,,,,,,,,,,,,,,,,,,,,,,,
,,5b11d226e9270900013c3029,2024-02-21_21h21.48.590,kallum_motion_pilot,2023.2.2,Win32,1.463271876,5b11d226e9270900013c3029,65d6bb0e977760de756971f7,65d6bc8e55338e31f88becbe,0.329,0.3294,1,96,258,124,1,sevenfive,,,,,,,,,,,,,,,,,,,,,,,,,,,,,,,,,,,,,,,,,,,,,,,,,,,,,,,,,,,,,,,,,,,,,,,,,,,,,,,,,,,,,,,,,,,,,,,,,,,,,,,,,,,,,,,,,,,,,,,,,,,,,,,,,,,,,,,,,
,,5b11d226e9270900013c3029,2024-02-21_21h21.48.590,kallum_motion_pilot,2023.2.2,Win32,1.463271876,5b11d226e9270900013c3029,65d6bb0e977760de756971f7,65d6bc8e55338e31f88becbe,0.3296,0.3299,1,97,259,117,1,seveneight,,,,,,,,,,,,,,,,,,,,,,,,,,,,,,,,,,,,,,,,,,,,,,,,,,,,,,,,,,,,,,,,,,,,,,,,,,,,,,,,,,,,,,,,,,,,,,,,,,,,,,,,,,,,,,,,,,,,,,,,,,,,,,,,,,,,,,,,,
,,5b11d226e9270900013c3029,2024-02-21_21h21.48.590,kallum_motion_pilot,2023.2.2,Win32,1.463271876,5b11d226e9270900013c3029,65d6bb0e977760de756971f7,65d6bc8e55338e31f88becbe,0.3302,0.3305,1,98,260,115,1,sixeight,,,,,,,,,,,,,,,,,,,,,,,,,,,,,,,,,,,,,,,,,,,,,,,,,,,,,,,,,,,,,,,,,,,,,,,,,,,,,,,,,,,,,,,,,,,,,,,,,,,,,,,,,,,,,,,,,,,,,,,,,,,,,,,,,,,,,,,,,
,,5b11d226e9270900013c3029,2024-02-21_21h21.48.590,kallum_motion_pilot,2023.2.2,Win32,1.463271876,5b11d226e9270900013c3029,65d6bb0e977760de756971f7,65d6bc8e55338e31f88becbe,0.3308,0.331,1,99,261,13,1,threefour,,,,,,,,,,,,,,,,,,,,,,,,,,,,,,,,,,,,,,,,,,,,,,,,,,,,,,,,,,,,,,,,,,,,,,,,,,,,,,,,,,,,,,,,,,,,,,,,,,,,,,,,,,,,,,,,,,,,,,,,,,,,,,,,,,,,,,,,,
,,5b11d226e9270900013c3029,2024-02-21_21h21.48.590,kallum_motion_pilot,2023.2.2,Win32,1.463271876,5b11d226e9270900013c3029,65d6bb0e977760de756971f7,65d6bc8e55338e31f88becbe,0.3313,0.3316,1,100,262,5,1,threefour,,,,,,,,,,,,,,,,,,,,,,,,,,,,,,,,,,,,,,,,,,,,,,,,,,,,,,,,,,,,,,,,,,,,,,,,,,,,,,,,,,,,,,,,,,,,,,,,,,,,,,,,,,,,,,,,,,,,,,,,,,,,,,,,,,,,,,,,,
,,5b11d226e9270900013c3029,2024-02-21_21h21.48.590,kallum_motion_pilot,2023.2.2,Win32,1.463271876,5b11d226e9270900013c3029,65d6bb0e977760de756971f7,65d6bc8e55338e31f88becbe,0.3319,0.3321,1,101,263,37,1,threefour,,,,,,,,,,,,,,,,,,,,,,,,,,,,,,,,,,,,,,,,,,,,,,,,,,,,,,,,,,,,,,,,,,,,,,,,,,,,,,,,,,,,,,,,,,,,,,,,,,,,,,,,,,,,,,,,,,,,,,,,,,,,,,,,,,,,,,,,,
,,5b11d226e9270900013c3029,2024-02-21_21h21.48.590,kallum_motion_pilot,2023.2.2,Win32,1.463271876,5b11d226e9270900013c3029,65d6bb0e977760de756971f7,65d6bc8e55338e31f88becbe,0.3326,0.333,1,102,264,26,1,twoone,,,,,,,,,,,,,,,,,,,,,,,,,,,,,,,,,,,,,,,,,,,,,,,,,,,,,,,,,,,,,,,,,,,,,,,,,,,,,,,,,,,,,,,,,,,,,,,,,,,,,,,,,,,,,,,,,,,,,,,,,,,,,,,,,,,,,,,,,
,,5b11d226e9270900013c3029,2024-02-21_21h21.48.590,kallum_motion_pilot,2023.2.2,Win32,1.463271876,5b11d226e9270900013c3029,65d6bb0e977760de756971f7,65d6bc8e55338e31f88becbe,0.3335,0.3338,1,103,265,77,1,threefour,,,,,,,,,,,,,,,,,,,,,,,,,,,,,,,,,,,,,,,,,,,,,,,,,,,,,,,,,,,,,,,,,,,,,,,,,,,,,,,,,,,,,,,,,,,,,,,,,,,,,,,,,,,,,,,,,,,,,,,,,,,,,,,,,,,,,,,,,
,,5b11d226e9270900013c3029,2024-02-21_21h21.48.590,kallum_motion_pilot,2023.2.2,Win32,1.463271876,5b11d226e9270900013c3029,65d6bb0e977760de756971f7,65d6bc8e55338e31f88becbe,0.3342,0.3344,1,104,266,138,1,sixfive,,,,,,,,,,,,,,,,,,,,,,,,,,,,,,,,,,,,,,,,,,,,,,,,,,,,,,,,,,,,,,,,,,,,,,,,,,,,,,,,,,,,,,,,,,,,,,,,,,,,,,,,,,,,,,,,,,,,,,,,,,,,,,,,,,,,,,,,,
,,5b11d226e9270900013c3029,2024-02-21_21h21.48.590,kallum_motion_pilot,2023.2.2,Win32,1.463271876,5b11d226e9270900013c3029,65d6bb0e977760de756971f7,65d6bc8e55338e31f88becbe,0.3349,0.3352,1,105,267,59,1,twofour,,,,,,,,,,,,,,,,,,,,,,,,,,,,,,,,,,,,,,,,,,,,,,,,,,,,,,,,,,,,,,,,,,,,,,,,,,,,,,,,,,,,,,,,,,,,,,,,,,,,,,,,,,,,,,,,,,,,,,,,,,,,,,,,,,,,,,,,,
,,5b11d226e9270900013c3029,2024-02-21_21h21.48.590,kallum_motion_pilot,2023.2.2,Win32,1.463271876,5b11d226e9270900013c3029,65d6bb0e977760de756971f7,65d6bc8e55338e31f88becbe,0.3355,0.3358,1,106,268,95,1,eightseven,,,,,,,,,,,,,,,,,,,,,,,,,,,,,,,,,,,,,,,,,,,,,,,,,,,,,,,,,,,,,,,,,,,,,,,,,,,,,,,,,,,,,,,,,,,,,,,,,,,,,,,,,,,,,,,,,,,,,,,,,,,,,,,,,,,,,,,,,
,,5b11d226e9270900013c3029,2024-02-21_21h21.48.590,kallum_motion_pilot,2023.2.2,Win32,1.463271876,5b11d226e9270900013c3029,65d6bb0e977760de756971f7,65d6bc8e55338e31f88becbe,0.3363,0.3372,1,107,269,55,1,fourthree,,,,,,,,,,,,,,,,,,,,,,,,,,,,,,,,,,,,,,,,,,,,,,,,,,,,,,,,,,,,,,,,,,,,,,,,,,,,,,,,,,,,,,,,,,,,,,,,,,,,,,,,,,,,,,,,,,,,,,,,,,,,,,,,,,,,,,,,,
,,5b11d226e9270900013c3029,2024-02-21_21h21.48.590,kallum_motion_pilot,2023.2.2,Win32,1.463271876,5b11d226e9270900013c3029,65d6bb0e977760de756971f7,65d6bc8e55338e31f88becbe,0.3379,0.3386,1,108,270,20,1,threeone,,,,,,,,,,,,,,,,,,,,,,,,,,,,,,,,,,,,,,,,,,,,,,,,,,,,,,,,,,,,,,,,,,,,,,,,,,,,,,,,,,,,,,,,,,,,,,,,,,,,,,,,,,,,,,,,,,,,,,,,,,,,,,,,,,,,,,,,,
,,5b11d226e9270900013c3029,2024-02-21_21h21.48.590,kallum_motion_pilot,2023.2.2,Win32,1.463271876,5b11d226e9270900013c3029,65d6bb0e977760de756971f7,65d6bc8e55338e31f88becbe,0.3394,0.3398,1,109,271,107,1,sixeight,,,,,,,,,,,,,,,,,,,,,,,,,,,,,,,,,,,,,,,,,,,,,,,,,,,,,,,,,,,,,,,,,,,,,,,,,,,,,,,,,,,,,,,,,,,,,,,,,,,,,,,,,,,,,,,,,,,,,,,,,,,,,,,,,,,,,,,,,
,,5b11d226e9270900013c3029,2024-02-21_21h21.48.590,kallum_motion_pilot,2023.2.2,Win32,1.463271876,5b11d226e9270900013c3029,65d6bb0e977760de756971f7,65d6bc8e55338e31f88becbe,0.3403,0.3407,1,110,272,137,1,fiveseven,,,,,,,,,,,,,,,,,,,,,,,,,,,,,,,,,,,,,,,,,,,,,,,,,,,,,,,,,,,,,,,,,,,,,,,,,,,,,,,,,,,,,,,,,,,,,,,,,,,,,,,,,,,,,,,,,,,,,,,,,,,,,,,,,,,,,,,,,
,,5b11d226e9270900013c3029,2024-02-21_21h21.48.590,kallum_motion_pilot,2023.2.2,Win32,1.463271876,5b11d226e9270900013c3029,65d6bb0e977760de756971f7,65d6bc8e55338e31f88becbe,0.3411,0.3415,1,111,273,14,1,fourtwo,,,,,,,,,,,,,,,,,,,,,,,,,,,,,,,,,,,,,,,,,,,,,,,,,,,,,,,,,,,,,,,,,,,,,,,,,,,,,,,,,,,,,,,,,,,,,,,,,,,,,,,,,,,,,,,,,,,,,,,,,,,,,,,,,,,,,,,,,
,,5b11d226e9270900013c3029,2024-02-21_21h21.48.590,kallum_motion_pilot,2023.2.2,Win32,1.463271876,5b11d226e9270900013c3029,65d6bb0e977760de756971f7,65d6bc8e55338e31f88becbe,0.3419,0.3423,1,112,274,32,1,onetwo,,,,,,,,,,,,,,,,,,,,,,,,,,,,,,,,,,,,,,,,,,,,,,,,,,,,,,,,,,,,,,,,,,,,,,,,,,,,,,,,,,,,,,,,,,,,,,,,,,,,,,,,,,,,,,,,,,,,,,,,,,,,,,,,,,,,,,,,,
,,5b11d226e9270900013c3029,2024-02-21_21h21.48.590,kallum_motion_pilot,2023.2.2,Win32,1.463271876,5b11d226e9270900013c3029,65d6bb0e977760de756971f7,65d6bc8e55338e31f88becbe,0.3427,0.3431,1,113,275,30,1,fourtwo,,,,,,,,,,,,,,,,,,,,,,,,,,,,,,,,,,,,,,,,,,,,,,,,,,,,,,,,,,,,,,,,,,,,,,,,,,,,,,,,,,,,,,,,,,,,,,,,,,,,,,,,,,,,,,,,,,,,,,,,,,,,,,,,,,,,,,,,,
,,5b11d226e9270900013c3029,2024-02-21_21h21.48.590,kallum_motion_pilot,2023.2.2,Win32,1.463271876,5b11d226e9270900013c3029,65d6bb0e977760de756971f7,65d6bc8e55338e31f88becbe,0.3434,0.3439,1,114,276,24,1,onetwo,,,,,,,,,,,,,,,,,,,,,,,,,,,,,,,,,,,,,,,,,,,,,,,,,,,,,,,,,,,,,,,,,,,,,,,,,,,,,,,,,,,,,,,,,,,,,,,,,,,,,,,,,,,,,,,,,,,,,,,,,,,,,,,,,,,,,,,,,
,,5b11d226e9270900013c3029,2024-02-21_21h21.48.590,kallum_motion_pilot,2023.2.2,Win32,1.463271876,5b11d226e9270900013c3029,65d6bb0e977760de756971f7,65d6bc8e55338e31f88becbe,0.3443,0.3447,1,115,277,2,1,twoone,,,,,,,,,,,,,,,,,,,,,,,,,,,,,,,,,,,,,,,,,,,,,,,,,,,,,,,,,,,,,,,,,,,,,,,,,,,,,,,,,,,,,,,,,,,,,,,,,,,,,,,,,,,,,,,,,,,,,,,,,,,,,,,,,,,,,,,,,
