startup.started,startup.stopped,Prolific ID*,date,expName,psychopyVersion,OS,frameRate,participant,study_id,session,stimpositions.started,stimpositions.stopped,hardcoded_stimulus_positions.thisRepN,hardcoded_stimulus_positions.thisTrialN,hardcoded_stimulus_positions.thisN,hardcoded_stimulus_positions.thisIndex,hardcoded_stimulus_positions.ran,StimulusPos,stimorientation.started,stimorientation.stopped,prac_stimorientation_import_loop.thisRepN,prac_stimorientation_import_loop.thisTrialN,prac_stimorientation_import_loop.thisN,prac_stimorientation_import_loop.thisIndex,prac_stimorientation_import_loop.ran,Stimorientation,welcome_instr.started,welcome_instr.stopped,key_resp.keys,key_resp.rt,key_resp.duration,response_steppedout_1.started,response_steppedout_1.stopped,key_resp_20.keys,key_resp_20.rt,key_resp_20.duration,response_steppedout_2.started,response_steppedout_2.stopped,key_resp_19.keys,key_resp_19.rt,key_resp_19.duration,stim_response_instr.started,stim_response_instr.stopped,key_resp_15.keys,key_resp_15.rt,key_resp_15.duration,direction_instr_2.started,direction_instr_2.stopped,key_resp_9.keys,key_resp_9.rt,key_resp_9.duration,instr_prac.started,instr_prac.stopped,key_resp_10.keys,key_resp_10.rt,key_resp_10.duration,Stim1_display_prac.started,Stim1_display_prac.stopped,Ecc,Circle1_ori,Circle2_ori,response_prac.started,similarity,response_time,response_prac.stopped,mouse_5.x,mouse_5.y,mouse_5.leftButton,mouse_5.midButton,mouse_5.rightButton,mouse_5.clicked_name,responseprac_feedback.started,responseprac_feedback.stopped,summary2_prac.started,summary2_prac.stopped,mouse_6.x,mouse_6.y,mouse_6.leftButton,mouse_6.midButton,mouse_6.rightButton,mouse_6.clicked_name,duringprac.thisRepN,duringprac.thisTrialN,duringprac.thisN,duringprac.thisIndex,duringprac.ran,begin.started,begin.stopped,key_resp_22.keys,key_resp_22.rt,key_resp_22.duration,Stim1_display.started,Stim1_display.stopped,circle1_ori,circle2_ori,circle1_SF,circle2_SF,response.started,response.stopped,mouse.x,mouse.y,mouse.leftButton,mouse.midButton,mouse.rightButton,mouse.clicked_name,trialnumber,double_pass.thisRepN,double_pass.thisTrialN,double_pass.thisN,double_pass.thisIndex,double_pass.ran,double_pass.order,main_trial.thisRepN,main_trial.thisTrialN,main_trial.thisN,main_trial.thisIndex,main_trial.ran,main_trial.order,Trial_Counter,Catch,Frequencies,response_2.started,response_2.stopped,mouse_2.x,mouse_2.y,mouse_2.leftButton,mouse_2.midButton,mouse_2.rightButton,mouse_2.clicked_name,special_trial.started,special_trial.stopped,catch_1.started,catch_1.stopped,mouse_3.x,mouse_3.y,mouse_3.leftButton,mouse_3.midButton,mouse_3.rightButton,catchresponse,catchnumber,response_time_catch,response_sum.started,response_sum.stopped,mouse_11.x,mouse_11.y,mouse_11.leftButton,mouse_11.midButton,mouse_11.rightButton,flip_presentation_sequence_for_double_pass.started,flip_presentation_sequence_for_double_pass.stopped,goodbye.started,goodbye.stopped,key_resp_3.keys,key_resp_3.rt,key_resp_3.duration
0.0022,0.0023,5b16adc0388d8b00014fa3a0,2024-02-21_21h25.01.727,kallum_motion_pilot,2023.2.2,Win32,144.9275362,5b16adc0388d8b00014fa3a0,65d6bb0e977760de756971f7,65d6be7fd49342c44be90ac2,,,,,,,,,,,,,,,,,,,,,,,,,,,,,,,,,,,,,,,,,,,,,,,,,,,,,,,,,,,,,,,,,,,,,,,,,,,,,,,,,,,,,,,,,,,,,,,,,,,,,,,,,,,,,,,,,,,,,,,,,,,,,,,,,,,,,,,,,,,,,,,,,
,,5b16adc0388d8b00014fa3a0,2024-02-21_21h25.01.727,kallum_motion_pilot,2023.2.2,Win32,144.9275362,5b16adc0388d8b00014fa3a0,65d6bb0e977760de756971f7,65d6be7fd49342c44be90ac2,0.0254,0.0256,0,0,0,52,1,threeone,,,,,,,,,,,,,,,,,,,,,,,,,,,,,,,,,,,,,,,,,,,,,,,,,,,,,,,,,,,,,,,,,,,,,,,,,,,,,,,,,,,,,,,,,,,,,,,,,,,,,,,,,,,,,,,,,,,,,,,,,,,,,,,,,,,,,,,,,
,,5b16adc0388d8b00014fa3a0,2024-02-21_21h25.01.727,kallum_motion_pilot,2023.2.2,Win32,144.9275362,5b16adc0388d8b00014fa3a0,65d6bb0e977760de756971f7,65d6be7fd49342c44be90ac2,0.0258,0.0258,0,1,1,9,1,onethree,,,,,,,,,,,,,,,,,,,,,,,,,,,,,,,,,,,,,,,,,,,,,,,,,,,,,,,,,,,,,,,,,,,,,,,,,,,,,,,,,,,,,,,,,,,,,,,,,,,,,,,,,,,,,,,,,,,,,,,,,,,,,,,,,,,,,,,,,
,,5b16adc0388d8b00014fa3a0,2024-02-21_21h25.01.727,kallum_motion_pilot,2023.2.2,Win32,144.9275362,5b16adc0388d8b00014fa3a0,65d6bb0e977760de756971f7,65d6be7fd49342c44be90ac2,0.0259,0.0259,0,2,2,143,1,eightseven,,,,,,,,,,,,,,,,,,,,,,,,,,,,,,,,,,,,,,,,,,,,,,,,,,,,,,,,,,,,,,,,,,,,,,,,,,,,,,,,,,,,,,,,,,,,,,,,,,,,,,,,,,,,,,,,,,,,,,,,,,,,,,,,,,,,,,,,,
,,5b16adc0388d8b00014fa3a0,2024-02-21_21h25.01.727,kallum_motion_pilot,2023.2.2,Win32,144.9275362,5b16adc0388d8b00014fa3a0,65d6bb0e977760de756971f7,65d6be7fd49342c44be90ac2,0.0261,0.0261,0,3,3,154,1,sixfive,,,,,,,,,,,,,,,,,,,,,,,,,,,,,,,,,,,,,,,,,,,,,,,,,,,,,,,,,,,,,,,,,,,,,,,,,,,,,,,,,,,,,,,,,,,,,,,,,,,,,,,,,,,,,,,,,,,,,,,,,,,,,,,,,,,,,,,,,
,,5b16adc0388d8b00014fa3a0,2024-02-21_21h25.01.727,kallum_motion_pilot,2023.2.2,Win32,144.9275362,5b16adc0388d8b00014fa3a0,65d6bb0e977760de756971f7,65d6be7fd49342c44be90ac2,0.0262,0.0262,0,4,4,117,1,seveneight,,,,,,,,,,,,,,,,,,,,,,,,,,,,,,,,,,,,,,,,,,,,,,,,,,,,,,,,,,,,,,,,,,,,,,,,,,,,,,,,,,,,,,,,,,,,,,,,,,,,,,,,,,,,,,,,,,,,,,,,,,,,,,,,,,,,,,,,,
,,5b16adc0388d8b00014fa3a0,2024-02-21_21h25.01.727,kallum_motion_pilot,2023.2.2,Win32,144.9275362,5b16adc0388d8b00014fa3a0,65d6bb0e977760de756971f7,65d6be7fd49342c44be90ac2,0.0263,0.0264,0,5,5,80,1,fivesix,,,,,,,,,,,,,,,,,,,,,,,,,,,,,,,,,,,,,,,,,,,,,,,,,,,,,,,,,,,,,,,,,,,,,,,,,,,,,,,,,,,,,,,,,,,,,,,,,,,,,,,,,,,,,,,,,,,,,,,,,,,,,,,,,,,,,,,,,
,,5b16adc0388d8b00014fa3a0,2024-02-21_21h25.01.727,kallum_motion_pilot,2023.2.2,Win32,144.9275362,5b16adc0388d8b00014fa3a0,65d6bb0e977760de756971f7,65d6be7fd49342c44be90ac2,0.0264,0.0265,0,6,6,160,1,fivesix,,,,,,,,,,,,,,,,,,,,,,,,,,,,,,,,,,,,,,,,,,,,,,,,,,,,,,,,,,,,,,,,,,,,,,,,,,,,,,,,,,,,,,,,,,,,,,,,,,,,,,,,,,,,,,,,,,,,,,,,,,,,,,,,,,,,,,,,,
,,5b16adc0388d8b00014fa3a0,2024-02-21_21h25.01.727,kallum_motion_pilot,2023.2.2,Win32,144.9275362,5b16adc0388d8b00014fa3a0,65d6bb0e977760de756971f7,65d6be7fd49342c44be90ac2,0.0265,0.0266,0,7,7,156,1,sevenfive,,,,,,,,,,,,,,,,,,,,,,,,,,,,,,,,,,,,,,,,,,,,,,,,,,,,,,,,,,,,,,,,,,,,,,,,,,,,,,,,,,,,,,,,,,,,,,,,,,,,,,,,,,,,,,,,,,,,,,,,,,,,,,,,,,,,,,,,,
,,5b16adc0388d8b00014fa3a0,2024-02-21_21h25.01.727,kallum_motion_pilot,2023.2.2,Win32,144.9275362,5b16adc0388d8b00014fa3a0,65d6bb0e977760de756971f7,65d6be7fd49342c44be90ac2,0.0267,0.0267,0,8,8,138,1,sixfive,,,,,,,,,,,,,,,,,,,,,,,,,,,,,,,,,,,,,,,,,,,,,,,,,,,,,,,,,,,,,,,,,,,,,,,,,,,,,,,,,,,,,,,,,,,,,,,,,,,,,,,,,,,,,,,,,,,,,,,,,,,,,,,,,,,,,,,,,
,,5b16adc0388d8b00014fa3a0,2024-02-21_21h25.01.727,kallum_motion_pilot,2023.2.2,Win32,144.9275362,5b16adc0388d8b00014fa3a0,65d6bb0e977760de756971f7,65d6be7fd49342c44be90ac2,0.0268,0.0268,0,9,9,47,1,fourthree,,,,,,,,,,,,,,,,,,,,,,,,,,,,,,,,,,,,,,,,,,,,,,,,,,,,,,,,,,,,,,,,,,,,,,,,,,,,,,,,,,,,,,,,,,,,,,,,,,,,,,,,,,,,,,,,,,,,,,,,,,,,,,,,,,,,,,,,,
,,5b16adc0388d8b00014fa3a0,2024-02-21_21h25.01.727,kallum_motion_pilot,2023.2.2,Win32,144.9275362,5b16adc0388d8b00014fa3a0,65d6bb0e977760de756971f7,65d6be7fd49342c44be90ac2,0.0269,0.027,0,10,10,33,1,onethree,,,,,,,,,,,,,,,,,,,,,,,,,,,,,,,,,,,,,,,,,,,,,,,,,,,,,,,,,,,,,,,,,,,,,,,,,,,,,,,,,,,,,,,,,,,,,,,,,,,,,,,,,,,,,,,,,,,,,,,,,,,,,,,,,,,,,,,,,
,,5b16adc0388d8b00014fa3a0,2024-02-21_21h25.01.727,kallum_motion_pilot,2023.2.2,Win32,144.9275362,5b16adc0388d8b00014fa3a0,65d6bb0e977760de756971f7,65d6be7fd49342c44be90ac2,0.027,0.027,0,11,11,127,1,eightseven,,,,,,,,,,,,,,,,,,,,,,,,,,,,,,,,,,,,,,,,,,,,,,,,,,,,,,,,,,,,,,,,,,,,,,,,,,,,,,,,,,,,,,,,,,,,,,,,,,,,,,,,,,,,,,,,,,,,,,,,,,,,,,,,,,,,,,,,,
,,5b16adc0388d8b00014fa3a0,2024-02-21_21h25.01.727,kallum_motion_pilot,2023.2.2,Win32,144.9275362,5b16adc0388d8b00014fa3a0,65d6bb0e977760de756971f7,65d6be7fd49342c44be90ac2,0.0271,0.0271,0,12,12,136,1,fivesix,,,,,,,,,,,,,,,,,,,,,,,,,,,,,,,,,,,,,,,,,,,,,,,,,,,,,,,,,,,,,,,,,,,,,,,,,,,,,,,,,,,,,,,,,,,,,,,,,,,,,,,,,,,,,,,,,,,,,,,,,,,,,,,,,,,,,,,,,
,,5b16adc0388d8b00014fa3a0,2024-02-21_21h25.01.727,kallum_motion_pilot,2023.2.2,Win32,144.9275362,5b16adc0388d8b00014fa3a0,65d6bb0e977760de756971f7,65d6be7fd49342c44be90ac2,0.0272,0.0272,0,13,13,38,1,fourtwo,,,,,,,,,,,,,,,,,,,,,,,,,,,,,,,,,,,,,,,,,,,,,,,,,,,,,,,,,,,,,,,,,,,,,,,,,,,,,,,,,,,,,,,,,,,,,,,,,,,,,,,,,,,,,,,,,,,,,,,,,,,,,,,,,,,,,,,,,
,,5b16adc0388d8b00014fa3a0,2024-02-21_21h25.01.727,kallum_motion_pilot,2023.2.2,Win32,144.9275362,5b16adc0388d8b00014fa3a0,65d6bb0e977760de756971f7,65d6be7fd49342c44be90ac2,0.0273,0.0273,0,14,14,114,1,sixfive,,,,,,,,,,,,,,,,,,,,,,,,,,,,,,,,,,,,,,,,,,,,,,,,,,,,,,,,,,,,,,,,,,,,,,,,,,,,,,,,,,,,,,,,,,,,,,,,,,,,,,,,,,,,,,,,,,,,,,,,,,,,,,,,,,,,,,,,,
,,5b16adc0388d8b00014fa3a0,2024-02-21_21h25.01.727,kallum_motion_pilot,2023.2.2,Win32,144.9275362,5b16adc0388d8b00014fa3a0,65d6bb0e977760de756971f7,65d6be7fd49342c44be90ac2,0.0274,0.0274,0,15,15,88,1,fivesix,,,,,,,,,,,,,,,,,,,,,,,,,,,,,,,,,,,,,,,,,,,,,,,,,,,,,,,,,,,,,,,,,,,,,,,,,,,,,,,,,,,,,,,,,,,,,,,,,,,,,,,,,,,,,,,,,,,,,,,,,,,,,,,,,,,,,,,,,
,,5b16adc0388d8b00014fa3a0,2024-02-21_21h25.01.727,kallum_motion_pilot,2023.2.2,Win32,144.9275362,5b16adc0388d8b00014fa3a0,65d6bb0e977760de756971f7,65d6be7fd49342c44be90ac2,0.0275,0.0275,0,16,16,72,1,onetwo,,,,,,,,,,,,,,,,,,,,,,,,,,,,,,,,,,,,,,,,,,,,,,,,,,,,,,,,,,,,,,,,,,,,,,,,,,,,,,,,,,,,,,,,,,,,,,,,,,,,,,,,,,,,,,,,,,,,,,,,,,,,,,,,,,,,,,,,,
,,5b16adc0388d8b00014fa3a0,2024-02-21_21h25.01.727,kallum_motion_pilot,2023.2.2,Win32,144.9275362,5b16adc0388d8b00014fa3a0,65d6bb0e977760de756971f7,65d6be7fd49342c44be90ac2,0.0275,0.0276,0,17,17,67,1,twofour,,,,,,,,,,,,,,,,,,,,,,,,,,,,,,,,,,,,,,,,,,,,,,,,,,,,,,,,,,,,,,,,,,,,,,,,,,,,,,,,,,,,,,,,,,,,,,,,,,,,,,,,,,,,,,,,,,,,,,,,,,,,,,,,,,,,,,,,,
,,5b16adc0388d8b00014fa3a0,2024-02-21_21h25.01.727,kallum_motion_pilot,2023.2.2,Win32,144.9275362,5b16adc0388d8b00014fa3a0,65d6bb0e977760de756971f7,65d6be7fd49342c44be90ac2,0.0277,0.0277,0,18,18,128,1,fivesix,,,,,,,,,,,,,,,,,,,,,,,,,,,,,,,,,,,,,,,,,,,,,,,,,,,,,,,,,,,,,,,,,,,,,,,,,,,,,,,,,,,,,,,,,,,,,,,,,,,,,,,,,,,,,,,,,,,,,,,,,,,,,,,,,,,,,,,,,
,,5b16adc0388d8b00014fa3a0,2024-02-21_21h25.01.727,kallum_motion_pilot,2023.2.2,Win32,144.9275362,5b16adc0388d8b00014fa3a0,65d6bb0e977760de756971f7,65d6be7fd49342c44be90ac2,0.0278,0.0279,0,19,19,157,1,seveneight,,,,,,,,,,,,,,,,,,,,,,,,,,,,,,,,,,,,,,,,,,,,,,,,,,,,,,,,,,,,,,,,,,,,,,,,,,,,,,,,,,,,,,,,,,,,,,,,,,,,,,,,,,,,,,,,,,,,,,,,,,,,,,,,,,,,,,,,,
,,5b16adc0388d8b00014fa3a0,2024-02-21_21h25.01.727,kallum_motion_pilot,2023.2.2,Win32,144.9275362,5b16adc0388d8b00014fa3a0,65d6bb0e977760de756971f7,65d6be7fd49342c44be90ac2,0.028,0.0282,0,20,20,113,1,fiveseven,,,,,,,,,,,,,,,,,,,,,,,,,,,,,,,,,,,,,,,,,,,,,,,,,,,,,,,,,,,,,,,,,,,,,,,,,,,,,,,,,,,,,,,,,,,,,,,,,,,,,,,,,,,,,,,,,,,,,,,,,,,,,,,,,,,,,,,,,
,,5b16adc0388d8b00014fa3a0,2024-02-21_21h25.01.727,kallum_motion_pilot,2023.2.2,Win32,144.9275362,5b16adc0388d8b00014fa3a0,65d6bb0e977760de756971f7,65d6be7fd49342c44be90ac2,0.0283,0.0283,0,21,21,76,1,threeone,,,,,,,,,,,,,,,,,,,,,,,,,,,,,,,,,,,,,,,,,,,,,,,,,,,,,,,,,,,,,,,,,,,,,,,,,,,,,,,,,,,,,,,,,,,,,,,,,,,,,,,,,,,,,,,,,,,,,,,,,,,,,,,,,,,,,,,,,
,,5b16adc0388d8b00014fa3a0,2024-02-21_21h25.01.727,kallum_motion_pilot,2023.2.2,Win32,144.9275362,5b16adc0388d8b00014fa3a0,65d6bb0e977760de756971f7,65d6be7fd49342c44be90ac2,0.0284,0.0285,0,22,22,45,1,threefour,,,,,,,,,,,,,,,,,,,,,,,,,,,,,,,,,,,,,,,,,,,,,,,,,,,,,,,,,,,,,,,,,,,,,,,,,,,,,,,,,,,,,,,,,,,,,,,,,,,,,,,,,,,,,,,,,,,,,,,,,,,,,,,,,,,,,,,,,
,,5b16adc0388d8b00014fa3a0,2024-02-21_21h25.01.727,kallum_motion_pilot,2023.2.2,Win32,144.9275362,5b16adc0388d8b00014fa3a0,65d6bb0e977760de756971f7,65d6be7fd49342c44be90ac2,0.0286,0.0286,0,23,23,22,1,fourtwo,,,,,,,,,,,,,,,,,,,,,,,,,,,,,,,,,,,,,,,,,,,,,,,,,,,,,,,,,,,,,,,,,,,,,,,,,,,,,,,,,,,,,,,,,,,,,,,,,,,,,,,,,,,,,,,,,,,,,,,,,,,,,,,,,,,,,,,,,
,,5b16adc0388d8b00014fa3a0,2024-02-21_21h25.01.727,kallum_motion_pilot,2023.2.2,Win32,144.9275362,5b16adc0388d8b00014fa3a0,65d6bb0e977760de756971f7,65d6be7fd49342c44be90ac2,0.0288,0.0288,0,24,24,83,1,sixeight,,,,,,,,,,,,,,,,,,,,,,,,,,,,,,,,,,,,,,,,,,,,,,,,,,,,,,,,,,,,,,,,,,,,,,,,,,,,,,,,,,,,,,,,,,,,,,,,,,,,,,,,,,,,,,,,,,,,,,,,,,,,,,,,,,,,,,,,,
,,5b16adc0388d8b00014fa3a0,2024-02-21_21h25.01.727,kallum_motion_pilot,2023.2.2,Win32,144.9275362,5b16adc0388d8b00014fa3a0,65d6bb0e977760de756971f7,65d6be7fd49342c44be90ac2,0.0289,0.0289,0,25,25,26,1,twoone,,,,,,,,,,,,,,,,,,,,,,,,,,,,,,,,,,,,,,,,,,,,,,,,,,,,,,,,,,,,,,,,,,,,,,,,,,,,,,,,,,,,,,,,,,,,,,,,,,,,,,,,,,,,,,,,,,,,,,,,,,,,,,,,,,,,,,,,,
,,5b16adc0388d8b00014fa3a0,2024-02-21_21h25.01.727,kallum_motion_pilot,2023.2.2,Win32,144.9275362,5b16adc0388d8b00014fa3a0,65d6bb0e977760de756971f7,65d6be7fd49342c44be90ac2,0.029,0.029,0,26,26,56,1,onetwo,,,,,,,,,,,,,,,,,,,,,,,,,,,,,,,,,,,,,,,,,,,,,,,,,,,,,,,,,,,,,,,,,,,,,,,,,,,,,,,,,,,,,,,,,,,,,,,,,,,,,,,,,,,,,,,,,,,,,,,,,,,,,,,,,,,,,,,,,
,,5b16adc0388d8b00014fa3a0,2024-02-21_21h25.01.727,kallum_motion_pilot,2023.2.2,Win32,144.9275362,5b16adc0388d8b00014fa3a0,65d6bb0e977760de756971f7,65d6be7fd49342c44be90ac2,0.0291,0.0293,0,27,27,51,1,twofour,,,,,,,,,,,,,,,,,,,,,,,,,,,,,,,,,,,,,,,,,,,,,,,,,,,,,,,,,,,,,,,,,,,,,,,,,,,,,,,,,,,,,,,,,,,,,,,,,,,,,,,,,,,,,,,,,,,,,,,,,,,,,,,,,,,,,,,,,
,,5b16adc0388d8b00014fa3a0,2024-02-21_21h25.01.727,kallum_motion_pilot,2023.2.2,Win32,144.9275362,5b16adc0388d8b00014fa3a0,65d6bb0e977760de756971f7,65d6be7fd49342c44be90ac2,0.0293,0.0293,0,28,28,64,1,onetwo,,,,,,,,,,,,,,,,,,,,,,,,,,,,,,,,,,,,,,,,,,,,,,,,,,,,,,,,,,,,,,,,,,,,,,,,,,,,,,,,,,,,,,,,,,,,,,,,,,,,,,,,,,,,,,,,,,,,,,,,,,,,,,,,,,,,,,,,,
,,5b16adc0388d8b00014fa3a0,2024-02-21_21h25.01.727,kallum_motion_pilot,2023.2.2,Win32,144.9275362,5b16adc0388d8b00014fa3a0,65d6bb0e977760de756971f7,65d6be7fd49342c44be90ac2,0.0294,0.0295,0,29,29,62,1,fourtwo,,,,,,,,,,,,,,,,,,,,,,,,,,,,,,,,,,,,,,,,,,,,,,,,,,,,,,,,,,,,,,,,,,,,,,,,,,,,,,,,,,,,,,,,,,,,,,,,,,,,,,,,,,,,,,,,,,,,,,,,,,,,,,,,,,,,,,,,,
,,5b16adc0388d8b00014fa3a0,2024-02-21_21h25.01.727,kallum_motion_pilot,2023.2.2,Win32,144.9275362,5b16adc0388d8b00014fa3a0,65d6bb0e977760de756971f7,65d6be7fd49342c44be90ac2,0.0295,0.0296,0,30,30,129,1,fiveseven,,,,,,,,,,,,,,,,,,,,,,,,,,,,,,,,,,,,,,,,,,,,,,,,,,,,,,,,,,,,,,,,,,,,,,,,,,,,,,,,,,,,,,,,,,,,,,,,,,,,,,,,,,,,,,,,,,,,,,,,,,,,,,,,,,,,,,,,,
,,5b16adc0388d8b00014fa3a0,2024-02-21_21h25.01.727,kallum_motion_pilot,2023.2.2,Win32,144.9275362,5b16adc0388d8b00014fa3a0,65d6bb0e977760de756971f7,65d6be7fd49342c44be90ac2,0.0296,0.0296,0,31,31,69,1,threefour,,,,,,,,,,,,,,,,,,,,,,,,,,,,,,,,,,,,,,,,,,,,,,,,,,,,,,,,,,,,,,,,,,,,,,,,,,,,,,,,,,,,,,,,,,,,,,,,,,,,,,,,,,,,,,,,,,,,,,,,,,,,,,,,,,,,,,,,,
,,5b16adc0388d8b00014fa3a0,2024-02-21_21h25.01.727,kallum_motion_pilot,2023.2.2,Win32,144.9275362,5b16adc0388d8b00014fa3a0,65d6bb0e977760de756971f7,65d6be7fd49342c44be90ac2,0.0298,0.0298,0,32,32,46,1,fourtwo,,,,,,,,,,,,,,,,,,,,,,,,,,,,,,,,,,,,,,,,,,,,,,,,,,,,,,,,,,,,,,,,,,,,,,,,,,,,,,,,,,,,,,,,,,,,,,,,,,,,,,,,,,,,,,,,,,,,,,,,,,,,,,,,,,,,,,,,,
,,5b16adc0388d8b00014fa3a0,2024-02-21_21h25.01.727,kallum_motion_pilot,2023.2.2,Win32,144.9275362,5b16adc0388d8b00014fa3a0,65d6bb0e977760de756971f7,65d6be7fd49342c44be90ac2,0.0299,0.0299,0,33,33,109,1,seveneight,,,,,,,,,,,,,,,,,,,,,,,,,,,,,,,,,,,,,,,,,,,,,,,,,,,,,,,,,,,,,,,,,,,,,,,,,,,,,,,,,,,,,,,,,,,,,,,,,,,,,,,,,,,,,,,,,,,,,,,,,,,,,,,,,,,,,,,,,
,,5b16adc0388d8b00014fa3a0,2024-02-21_21h25.01.727,kallum_motion_pilot,2023.2.2,Win32,144.9275362,5b16adc0388d8b00014fa3a0,65d6bb0e977760de756971f7,65d6be7fd49342c44be90ac2,0.0299,0.03,0,34,34,112,1,fivesix,,,,,,,,,,,,,,,,,,,,,,,,,,,,,,,,,,,,,,,,,,,,,,,,,,,,,,,,,,,,,,,,,,,,,,,,,,,,,,,,,,,,,,,,,,,,,,,,,,,,,,,,,,,,,,,,,,,,,,,,,,,,,,,,,,,,,,,,,
,,5b16adc0388d8b00014fa3a0,2024-02-21_21h25.01.727,kallum_motion_pilot,2023.2.2,Win32,144.9275362,5b16adc0388d8b00014fa3a0,65d6bb0e977760de756971f7,65d6be7fd49342c44be90ac2,0.03,0.03,0,35,35,49,1,onethree,,,,,,,,,,,,,,,,,,,,,,,,,,,,,,,,,,,,,,,,,,,,,,,,,,,,,,,,,,,,,,,,,,,,,,,,,,,,,,,,,,,,,,,,,,,,,,,,,,,,,,,,,,,,,,,,,,,,,,,,,,,,,,,,,,,,,,,,,
,,5b16adc0388d8b00014fa3a0,2024-02-21_21h25.01.727,kallum_motion_pilot,2023.2.2,Win32,144.9275362,5b16adc0388d8b00014fa3a0,65d6bb0e977760de756971f7,65d6be7fd49342c44be90ac2,0.0302,0.0302,0,36,36,43,1,twofour,,,,,,,,,,,,,,,,,,,,,,,,,,,,,,,,,,,,,,,,,,,,,,,,,,,,,,,,,,,,,,,,,,,,,,,,,,,,,,,,,,,,,,,,,,,,,,,,,,,,,,,,,,,,,,,,,,,,,,,,,,,,,,,,,,,,,,,,,
,,5b16adc0388d8b00014fa3a0,2024-02-21_21h25.01.727,kallum_motion_pilot,2023.2.2,Win32,144.9275362,5b16adc0388d8b00014fa3a0,65d6bb0e977760de756971f7,65d6be7fd49342c44be90ac2,0.0303,0.0303,0,37,37,61,1,threefour,,,,,,,,,,,,,,,,,,,,,,,,,,,,,,,,,,,,,,,,,,,,,,,,,,,,,,,,,,,,,,,,,,,,,,,,,,,,,,,,,,,,,,,,,,,,,,,,,,,,,,,,,,,,,,,,,,,,,,,,,,,,,,,,,,,,,,,,,
,,5b16adc0388d8b00014fa3a0,2024-02-21_21h25.01.727,kallum_motion_pilot,2023.2.2,Win32,144.9275362,5b16adc0388d8b00014fa3a0,65d6bb0e977760de756971f7,65d6be7fd49342c44be90ac2,0.0304,0.0304,0,38,38,108,1,sevenfive,,,,,,,,,,,,,,,,,,,,,,,,,,,,,,,,,,,,,,,,,,,,,,,,,,,,,,,,,,,,,,,,,,,,,,,,,,,,,,,,,,,,,,,,,,,,,,,,,,,,,,,,,,,,,,,,,,,,,,,,,,,,,,,,,,,,,,,,,
,,5b16adc0388d8b00014fa3a0,2024-02-21_21h25.01.727,kallum_motion_pilot,2023.2.2,Win32,144.9275362,5b16adc0388d8b00014fa3a0,65d6bb0e977760de756971f7,65d6be7fd49342c44be90ac2,0.0305,0.0306,0,39,39,42,1,twoone,,,,,,,,,,,,,,,,,,,,,,,,,,,,,,,,,,,,,,,,,,,,,,,,,,,,,,,,,,,,,,,,,,,,,,,,,,,,,,,,,,,,,,,,,,,,,,,,,,,,,,,,,,,,,,,,,,,,,,,,,,,,,,,,,,,,,,,,,
,,5b16adc0388d8b00014fa3a0,2024-02-21_21h25.01.727,kallum_motion_pilot,2023.2.2,Win32,144.9275362,5b16adc0388d8b00014fa3a0,65d6bb0e977760de756971f7,65d6be7fd49342c44be90ac2,0.0306,0.0307,0,40,40,106,1,sixfive,,,,,,,,,,,,,,,,,,,,,,,,,,,,,,,,,,,,,,,,,,,,,,,,,,,,,,,,,,,,,,,,,,,,,,,,,,,,,,,,,,,,,,,,,,,,,,,,,,,,,,,,,,,,,,,,,,,,,,,,,,,,,,,,,,,,,,,,,
,,5b16adc0388d8b00014fa3a0,2024-02-21_21h25.01.727,kallum_motion_pilot,2023.2.2,Win32,144.9275362,5b16adc0388d8b00014fa3a0,65d6bb0e977760de756971f7,65d6be7fd49342c44be90ac2,0.0307,0.0307,0,41,41,120,1,fivesix,,,,,,,,,,,,,,,,,,,,,,,,,,,,,,,,,,,,,,,,,,,,,,,,,,,,,,,,,,,,,,,,,,,,,,,,,,,,,,,,,,,,,,,,,,,,,,,,,,,,,,,,,,,,,,,,,,,,,,,,,,,,,,,,,,,,,,,,,
,,5b16adc0388d8b00014fa3a0,2024-02-21_21h25.01.727,kallum_motion_pilot,2023.2.2,Win32,144.9275362,5b16adc0388d8b00014fa3a0,65d6bb0e977760de756971f7,65d6be7fd49342c44be90ac2,0.0309,0.0309,0,42,42,0,1,onetwo,,,,,,,,,,,,,,,,,,,,,,,,,,,,,,,,,,,,,,,,,,,,,,,,,,,,,,,,,,,,,,,,,,,,,,,,,,,,,,,,,,,,,,,,,,,,,,,,,,,,,,,,,,,,,,,,,,,,,,,,,,,,,,,,,,,,,,,,,
,,5b16adc0388d8b00014fa3a0,2024-02-21_21h25.01.727,kallum_motion_pilot,2023.2.2,Win32,144.9275362,5b16adc0388d8b00014fa3a0,65d6bb0e977760de756971f7,65d6be7fd49342c44be90ac2,0.031,0.031,0,43,43,115,1,sixeight,,,,,,,,,,,,,,,,,,,,,,,,,,,,,,,,,,,,,,,,,,,,,,,,,,,,,,,,,,,,,,,,,,,,,,,,,,,,,,,,,,,,,,,,,,,,,,,,,,,,,,,,,,,,,,,,,,,,,,,,,,,,,,,,,,,,,,,,,
,,5b16adc0388d8b00014fa3a0,2024-02-21_21h25.01.727,kallum_motion_pilot,2023.2.2,Win32,144.9275362,5b16adc0388d8b00014fa3a0,65d6bb0e977760de756971f7,65d6be7fd49342c44be90ac2,0.0311,0.0311,0,44,44,107,1,sixeight,,,,,,,,,,,,,,,,,,,,,,,,,,,,,,,,,,,,,,,,,,,,,,,,,,,,,,,,,,,,,,,,,,,,,,,,,,,,,,,,,,,,,,,,,,,,,,,,,,,,,,,,,,,,,,,,,,,,,,,,,,,,,,,,,,,,,,,,,
,,5b16adc0388d8b00014fa3a0,2024-02-21_21h25.01.727,kallum_motion_pilot,2023.2.2,Win32,144.9275362,5b16adc0388d8b00014fa3a0,65d6bb0e977760de756971f7,65d6be7fd49342c44be90ac2,0.0311,0.0313,0,45,45,2,1,twoone,,,,,,,,,,,,,,,,,,,,,,,,,,,,,,,,,,,,,,,,,,,,,,,,,,,,,,,,,,,,,,,,,,,,,,,,,,,,,,,,,,,,,,,,,,,,,,,,,,,,,,,,,,,,,,,,,,,,,,,,,,,,,,,,,,,,,,,,,
,,5b16adc0388d8b00014fa3a0,2024-02-21_21h25.01.727,kallum_motion_pilot,2023.2.2,Win32,144.9275362,5b16adc0388d8b00014fa3a0,65d6bb0e977760de756971f7,65d6be7fd49342c44be90ac2,0.0313,0.0313,0,46,46,44,1,threeone,,,,,,,,,,,,,,,,,,,,,,,,,,,,,,,,,,,,,,,,,,,,,,,,,,,,,,,,,,,,,,,,,,,,,,,,,,,,,,,,,,,,,,,,,,,,,,,,,,,,,,,,,,,,,,,,,,,,,,,,,,,,,,,,,,,,,,,,,
,,5b16adc0388d8b00014fa3a0,2024-02-21_21h25.01.727,kallum_motion_pilot,2023.2.2,Win32,144.9275362,5b16adc0388d8b00014fa3a0,65d6bb0e977760de756971f7,65d6be7fd49342c44be90ac2,0.0313,0.0314,0,47,47,8,1,onetwo,,,,,,,,,,,,,,,,,,,,,,,,,,,,,,,,,,,,,,,,,,,,,,,,,,,,,,,,,,,,,,,,,,,,,,,,,,,,,,,,,,,,,,,,,,,,,,,,,,,,,,,,,,,,,,,,,,,,,,,,,,,,,,,,,,,,,,,,,
,,5b16adc0388d8b00014fa3a0,2024-02-21_21h25.01.727,kallum_motion_pilot,2023.2.2,Win32,144.9275362,5b16adc0388d8b00014fa3a0,65d6bb0e977760de756971f7,65d6be7fd49342c44be90ac2,0.0315,0.0316,0,48,48,121,1,fiveseven,,,,,,,,,,,,,,,,,,,,,,,,,,,,,,,,,,,,,,,,,,,,,,,,,,,,,,,,,,,,,,,,,,,,,,,,,,,,,,,,,,,,,,,,,,,,,,,,,,,,,,,,,,,,,,,,,,,,,,,,,,,,,,,,,,,,,,,,,
,,5b16adc0388d8b00014fa3a0,2024-02-21_21h25.01.727,kallum_motion_pilot,2023.2.2,Win32,144.9275362,5b16adc0388d8b00014fa3a0,65d6bb0e977760de756971f7,65d6be7fd49342c44be90ac2,0.0316,0.0316,0,49,49,161,1,fiveseven,,,,,,,,,,,,,,,,,,,,,,,,,,,,,,,,,,,,,,,,,,,,,,,,,,,,,,,,,,,,,,,,,,,,,,,,,,,,,,,,,,,,,,,,,,,,,,,,,,,,,,,,,,,,,,,,,,,,,,,,,,,,,,,,,,,,,,,,,
,,5b16adc0388d8b00014fa3a0,2024-02-21_21h25.01.727,kallum_motion_pilot,2023.2.2,Win32,144.9275362,5b16adc0388d8b00014fa3a0,65d6bb0e977760de756971f7,65d6be7fd49342c44be90ac2,0.0317,0.0317,0,50,50,55,1,fourthree,,,,,,,,,,,,,,,,,,,,,,,,,,,,,,,,,,,,,,,,,,,,,,,,,,,,,,,,,,,,,,,,,,,,,,,,,,,,,,,,,,,,,,,,,,,,,,,,,,,,,,,,,,,,,,,,,,,,,,,,,,,,,,,,,,,,,,,,,
,,5b16adc0388d8b00014fa3a0,2024-02-21_21h25.01.727,kallum_motion_pilot,2023.2.2,Win32,144.9275362,5b16adc0388d8b00014fa3a0,65d6bb0e977760de756971f7,65d6be7fd49342c44be90ac2,0.0335,0.0335,0,51,51,4,1,threeone,,,,,,,,,,,,,,,,,,,,,,,,,,,,,,,,,,,,,,,,,,,,,,,,,,,,,,,,,,,,,,,,,,,,,,,,,,,,,,,,,,,,,,,,,,,,,,,,,,,,,,,,,,,,,,,,,,,,,,,,,,,,,,,,,,,,,,,,,
,,5b16adc0388d8b00014fa3a0,2024-02-21_21h25.01.727,kallum_motion_pilot,2023.2.2,Win32,144.9275362,5b16adc0388d8b00014fa3a0,65d6bb0e977760de756971f7,65d6be7fd49342c44be90ac2,0.0336,0.0337,0,52,52,141,1,seveneight,,,,,,,,,,,,,,,,,,,,,,,,,,,,,,,,,,,,,,,,,,,,,,,,,,,,,,,,,,,,,,,,,,,,,,,,,,,,,,,,,,,,,,,,,,,,,,,,,,,,,,,,,,,,,,,,,,,,,,,,,,,,,,,,,,,,,,,,,
,,5b16adc0388d8b00014fa3a0,2024-02-21_21h25.01.727,kallum_motion_pilot,2023.2.2,Win32,144.9275362,5b16adc0388d8b00014fa3a0,65d6bb0e977760de756971f7,65d6be7fd49342c44be90ac2,0.0337,0.0337,0,53,53,30,1,fourtwo,,,,,,,,,,,,,,,,,,,,,,,,,,,,,,,,,,,,,,,,,,,,,,,,,,,,,,,,,,,,,,,,,,,,,,,,,,,,,,,,,,,,,,,,,,,,,,,,,,,,,,,,,,,,,,,,,,,,,,,,,,,,,,,,,,,,,,,,,
,,5b16adc0388d8b00014fa3a0,2024-02-21_21h25.01.727,kallum_motion_pilot,2023.2.2,Win32,144.9275362,5b16adc0388d8b00014fa3a0,65d6bb0e977760de756971f7,65d6be7fd49342c44be90ac2,0.0338,0.0338,0,54,54,84,1,sevenfive,,,,,,,,,,,,,,,,,,,,,,,,,,,,,,,,,,,,,,,,,,,,,,,,,,,,,,,,,,,,,,,,,,,,,,,,,,,,,,,,,,,,,,,,,,,,,,,,,,,,,,,,,,,,,,,,,,,,,,,,,,,,,,,,,,,,,,,,,
,,5b16adc0388d8b00014fa3a0,2024-02-21_21h25.01.727,kallum_motion_pilot,2023.2.2,Win32,144.9275362,5b16adc0388d8b00014fa3a0,65d6bb0e977760de756971f7,65d6be7fd49342c44be90ac2,0.0339,0.034,0,55,55,105,1,fiveseven,,,,,,,,,,,,,,,,,,,,,,,,,,,,,,,,,,,,,,,,,,,,,,,,,,,,,,,,,,,,,,,,,,,,,,,,,,,,,,,,,,,,,,,,,,,,,,,,,,,,,,,,,,,,,,,,,,,,,,,,,,,,,,,,,,,,,,,,,
,,5b16adc0388d8b00014fa3a0,2024-02-21_21h25.01.727,kallum_motion_pilot,2023.2.2,Win32,144.9275362,5b16adc0388d8b00014fa3a0,65d6bb0e977760de756971f7,65d6be7fd49342c44be90ac2,0.034,0.0341,0,56,56,159,1,eightseven,,,,,,,,,,,,,,,,,,,,,,,,,,,,,,,,,,,,,,,,,,,,,,,,,,,,,,,,,,,,,,,,,,,,,,,,,,,,,,,,,,,,,,,,,,,,,,,,,,,,,,,,,,,,,,,,,,,,,,,,,,,,,,,,,,,,,,,,,
,,5b16adc0388d8b00014fa3a0,2024-02-21_21h25.01.727,kallum_motion_pilot,2023.2.2,Win32,144.9275362,5b16adc0388d8b00014fa3a0,65d6bb0e977760de756971f7,65d6be7fd49342c44be90ac2,0.0341,0.0342,0,57,57,153,1,fiveseven,,,,,,,,,,,,,,,,,,,,,,,,,,,,,,,,,,,,,,,,,,,,,,,,,,,,,,,,,,,,,,,,,,,,,,,,,,,,,,,,,,,,,,,,,,,,,,,,,,,,,,,,,,,,,,,,,,,,,,,,,,,,,,,,,,,,,,,,,
,,5b16adc0388d8b00014fa3a0,2024-02-21_21h25.01.727,kallum_motion_pilot,2023.2.2,Win32,144.9275362,5b16adc0388d8b00014fa3a0,65d6bb0e977760de756971f7,65d6be7fd49342c44be90ac2,0.0343,0.0343,0,58,58,137,1,fiveseven,,,,,,,,,,,,,,,,,,,,,,,,,,,,,,,,,,,,,,,,,,,,,,,,,,,,,,,,,,,,,,,,,,,,,,,,,,,,,,,,,,,,,,,,,,,,,,,,,,,,,,,,,,,,,,,,,,,,,,,,,,,,,,,,,,,,,,,,,
,,5b16adc0388d8b00014fa3a0,2024-02-21_21h25.01.727,kallum_motion_pilot,2023.2.2,Win32,144.9275362,5b16adc0388d8b00014fa3a0,65d6bb0e977760de756971f7,65d6be7fd49342c44be90ac2,0.0343,0.0344,0,59,59,13,1,threefour,,,,,,,,,,,,,,,,,,,,,,,,,,,,,,,,,,,,,,,,,,,,,,,,,,,,,,,,,,,,,,,,,,,,,,,,,,,,,,,,,,,,,,,,,,,,,,,,,,,,,,,,,,,,,,,,,,,,,,,,,,,,,,,,,,,,,,,,,
,,5b16adc0388d8b00014fa3a0,2024-02-21_21h25.01.727,kallum_motion_pilot,2023.2.2,Win32,144.9275362,5b16adc0388d8b00014fa3a0,65d6bb0e977760de756971f7,65d6be7fd49342c44be90ac2,0.0344,0.0345,0,60,60,3,1,twofour,,,,,,,,,,,,,,,,,,,,,,,,,,,,,,,,,,,,,,,,,,,,,,,,,,,,,,,,,,,,,,,,,,,,,,,,,,,,,,,,,,,,,,,,,,,,,,,,,,,,,,,,,,,,,,,,,,,,,,,,,,,,,,,,,,,,,,,,,
,,5b16adc0388d8b00014fa3a0,2024-02-21_21h25.01.727,kallum_motion_pilot,2023.2.2,Win32,144.9275362,5b16adc0388d8b00014fa3a0,65d6bb0e977760de756971f7,65d6be7fd49342c44be90ac2,0.0346,0.0346,0,61,61,145,1,fiveseven,,,,,,,,,,,,,,,,,,,,,,,,,,,,,,,,,,,,,,,,,,,,,,,,,,,,,,,,,,,,,,,,,,,,,,,,,,,,,,,,,,,,,,,,,,,,,,,,,,,,,,,,,,,,,,,,,,,,,,,,,,,,,,,,,,,,,,,,,
,,5b16adc0388d8b00014fa3a0,2024-02-21_21h25.01.727,kallum_motion_pilot,2023.2.2,Win32,144.9275362,5b16adc0388d8b00014fa3a0,65d6bb0e977760de756971f7,65d6be7fd49342c44be90ac2,0.0347,0.0347,0,62,62,152,1,fivesix,,,,,,,,,,,,,,,,,,,,,,,,,,,,,,,,,,,,,,,,,,,,,,,,,,,,,,,,,,,,,,,,,,,,,,,,,,,,,,,,,,,,,,,,,,,,,,,,,,,,,,,,,,,,,,,,,,,,,,,,,,,,,,,,,,,,,,,,,
,,5b16adc0388d8b00014fa3a0,2024-02-21_21h25.01.727,kallum_motion_pilot,2023.2.2,Win32,144.9275362,5b16adc0388d8b00014fa3a0,65d6bb0e977760de756971f7,65d6be7fd49342c44be90ac2,0.0348,0.0349,0,63,63,66,1,twoone,,,,,,,,,,,,,,,,,,,,,,,,,,,,,,,,,,,,,,,,,,,,,,,,,,,,,,,,,,,,,,,,,,,,,,,,,,,,,,,,,,,,,,,,,,,,,,,,,,,,,,,,,,,,,,,,,,,,,,,,,,,,,,,,,,,,,,,,,
,,5b16adc0388d8b00014fa3a0,2024-02-21_21h25.01.727,kallum_motion_pilot,2023.2.2,Win32,144.9275362,5b16adc0388d8b00014fa3a0,65d6bb0e977760de756971f7,65d6be7fd49342c44be90ac2,0.0349,0.035,0,64,64,48,1,onetwo,,,,,,,,,,,,,,,,,,,,,,,,,,,,,,,,,,,,,,,,,,,,,,,,,,,,,,,,,,,,,,,,,,,,,,,,,,,,,,,,,,,,,,,,,,,,,,,,,,,,,,,,,,,,,,,,,,,,,,,,,,,,,,,,,,,,,,,,,
,,5b16adc0388d8b00014fa3a0,2024-02-21_21h25.01.727,kallum_motion_pilot,2023.2.2,Win32,144.9275362,5b16adc0388d8b00014fa3a0,65d6bb0e977760de756971f7,65d6be7fd49342c44be90ac2,0.0353,0.0353,0,65,65,60,1,threeone,,,,,,,,,,,,,,,,,,,,,,,,,,,,,,,,,,,,,,,,,,,,,,,,,,,,,,,,,,,,,,,,,,,,,,,,,,,,,,,,,,,,,,,,,,,,,,,,,,,,,,,,,,,,,,,,,,,,,,,,,,,,,,,,,,,,,,,,,
,,5b16adc0388d8b00014fa3a0,2024-02-21_21h25.01.727,kallum_motion_pilot,2023.2.2,Win32,144.9275362,5b16adc0388d8b00014fa3a0,65d6bb0e977760de756971f7,65d6be7fd49342c44be90ac2,0.0355,0.0355,0,66,66,21,1,threefour,,,,,,,,,,,,,,,,,,,,,,,,,,,,,,,,,,,,,,,,,,,,,,,,,,,,,,,,,,,,,,,,,,,,,,,,,,,,,,,,,,,,,,,,,,,,,,,,,,,,,,,,,,,,,,,,,,,,,,,,,,,,,,,,,,,,,,,,,
,,5b16adc0388d8b00014fa3a0,2024-02-21_21h25.01.727,kallum_motion_pilot,2023.2.2,Win32,144.9275362,5b16adc0388d8b00014fa3a0,65d6bb0e977760de756971f7,65d6be7fd49342c44be90ac2,0.0356,0.0357,0,67,67,18,1,twoone,,,,,,,,,,,,,,,,,,,,,,,,,,,,,,,,,,,,,,,,,,,,,,,,,,,,,,,,,,,,,,,,,,,,,,,,,,,,,,,,,,,,,,,,,,,,,,,,,,,,,,,,,,,,,,,,,,,,,,,,,,,,,,,,,,,,,,,,,
,,5b16adc0388d8b00014fa3a0,2024-02-21_21h25.01.727,kallum_motion_pilot,2023.2.2,Win32,144.9275362,5b16adc0388d8b00014fa3a0,65d6bb0e977760de756971f7,65d6be7fd49342c44be90ac2,0.0358,0.0358,0,68,68,126,1,eightsix,,,,,,,,,,,,,,,,,,,,,,,,,,,,,,,,,,,,,,,,,,,,,,,,,,,,,,,,,,,,,,,,,,,,,,,,,,,,,,,,,,,,,,,,,,,,,,,,,,,,,,,,,,,,,,,,,,,,,,,,,,,,,,,,,,,,,,,,,
,,5b16adc0388d8b00014fa3a0,2024-02-21_21h25.01.727,kallum_motion_pilot,2023.2.2,Win32,144.9275362,5b16adc0388d8b00014fa3a0,65d6bb0e977760de756971f7,65d6be7fd49342c44be90ac2,0.036,0.036,0,69,69,91,1,sixeight,,,,,,,,,,,,,,,,,,,,,,,,,,,,,,,,,,,,,,,,,,,,,,,,,,,,,,,,,,,,,,,,,,,,,,,,,,,,,,,,,,,,,,,,,,,,,,,,,,,,,,,,,,,,,,,,,,,,,,,,,,,,,,,,,,,,,,,,,
,,5b16adc0388d8b00014fa3a0,2024-02-21_21h25.01.727,kallum_motion_pilot,2023.2.2,Win32,144.9275362,5b16adc0388d8b00014fa3a0,65d6bb0e977760de756971f7,65d6be7fd49342c44be90ac2,0.036,0.0362,0,70,70,15,1,fourthree,,,,,,,,,,,,,,,,,,,,,,,,,,,,,,,,,,,,,,,,,,,,,,,,,,,,,,,,,,,,,,,,,,,,,,,,,,,,,,,,,,,,,,,,,,,,,,,,,,,,,,,,,,,,,,,,,,,,,,,,,,,,,,,,,,,,,,,,,
,,5b16adc0388d8b00014fa3a0,2024-02-21_21h25.01.727,kallum_motion_pilot,2023.2.2,Win32,144.9275362,5b16adc0388d8b00014fa3a0,65d6bb0e977760de756971f7,65d6be7fd49342c44be90ac2,0.0363,0.0363,0,71,71,103,1,eightseven,,,,,,,,,,,,,,,,,,,,,,,,,,,,,,,,,,,,,,,,,,,,,,,,,,,,,,,,,,,,,,,,,,,,,,,,,,,,,,,,,,,,,,,,,,,,,,,,,,,,,,,,,,,,,,,,,,,,,,,,,,,,,,,,,,,,,,,,,
,,5b16adc0388d8b00014fa3a0,2024-02-21_21h25.01.727,kallum_motion_pilot,2023.2.2,Win32,144.9275362,5b16adc0388d8b00014fa3a0,65d6bb0e977760de756971f7,65d6be7fd49342c44be90ac2,0.0363,0.0364,0,72,72,100,1,sevenfive,,,,,,,,,,,,,,,,,,,,,,,,,,,,,,,,,,,,,,,,,,,,,,,,,,,,,,,,,,,,,,,,,,,,,,,,,,,,,,,,,,,,,,,,,,,,,,,,,,,,,,,,,,,,,,,,,,,,,,,,,,,,,,,,,,,,,,,,,
,,5b16adc0388d8b00014fa3a0,2024-02-21_21h25.01.727,kallum_motion_pilot,2023.2.2,Win32,144.9275362,5b16adc0388d8b00014fa3a0,65d6bb0e977760de756971f7,65d6be7fd49342c44be90ac2,0.0364,0.0365,0,73,73,25,1,onethree,,,,,,,,,,,,,,,,,,,,,,,,,,,,,,,,,,,,,,,,,,,,,,,,,,,,,,,,,,,,,,,,,,,,,,,,,,,,,,,,,,,,,,,,,,,,,,,,,,,,,,,,,,,,,,,,,,,,,,,,,,,,,,,,,,,,,,,,,
,,5b16adc0388d8b00014fa3a0,2024-02-21_21h25.01.727,kallum_motion_pilot,2023.2.2,Win32,144.9275362,5b16adc0388d8b00014fa3a0,65d6bb0e977760de756971f7,65d6be7fd49342c44be90ac2,0.0366,0.0366,0,74,74,74,1,twoone,,,,,,,,,,,,,,,,,,,,,,,,,,,,,,,,,,,,,,,,,,,,,,,,,,,,,,,,,,,,,,,,,,,,,,,,,,,,,,,,,,,,,,,,,,,,,,,,,,,,,,,,,,,,,,,,,,,,,,,,,,,,,,,,,,,,,,,,,
,,5b16adc0388d8b00014fa3a0,2024-02-21_21h25.01.727,kallum_motion_pilot,2023.2.2,Win32,144.9275362,5b16adc0388d8b00014fa3a0,65d6bb0e977760de756971f7,65d6be7fd49342c44be90ac2,0.0367,0.0367,0,75,75,73,1,onethree,,,,,,,,,,,,,,,,,,,,,,,,,,,,,,,,,,,,,,,,,,,,,,,,,,,,,,,,,,,,,,,,,,,,,,,,,,,,,,,,,,,,,,,,,,,,,,,,,,,,,,,,,,,,,,,,,,,,,,,,,,,,,,,,,,,,,,,,,
,,5b16adc0388d8b00014fa3a0,2024-02-21_21h25.01.727,kallum_motion_pilot,2023.2.2,Win32,144.9275362,5b16adc0388d8b00014fa3a0,65d6bb0e977760de756971f7,65d6be7fd49342c44be90ac2,0.0368,0.0368,0,76,76,119,1,eightseven,,,,,,,,,,,,,,,,,,,,,,,,,,,,,,,,,,,,,,,,,,,,,,,,,,,,,,,,,,,,,,,,,,,,,,,,,,,,,,,,,,,,,,,,,,,,,,,,,,,,,,,,,,,,,,,,,,,,,,,,,,,,,,,,,,,,,,,,,
,,5b16adc0388d8b00014fa3a0,2024-02-21_21h25.01.727,kallum_motion_pilot,2023.2.2,Win32,144.9275362,5b16adc0388d8b00014fa3a0,65d6bb0e977760de756971f7,65d6be7fd49342c44be90ac2,0.0369,0.0369,0,77,77,124,1,sevenfive,,,,,,,,,,,,,,,,,,,,,,,,,,,,,,,,,,,,,,,,,,,,,,,,,,,,,,,,,,,,,,,,,,,,,,,,,,,,,,,,,,,,,,,,,,,,,,,,,,,,,,,,,,,,,,,,,,,,,,,,,,,,,,,,,,,,,,,,,
,,5b16adc0388d8b00014fa3a0,2024-02-21_21h25.01.727,kallum_motion_pilot,2023.2.2,Win32,144.9275362,5b16adc0388d8b00014fa3a0,65d6bb0e977760de756971f7,65d6be7fd49342c44be90ac2,0.037,0.037,0,78,78,34,1,twoone,,,,,,,,,,,,,,,,,,,,,,,,,,,,,,,,,,,,,,,,,,,,,,,,,,,,,,,,,,,,,,,,,,,,,,,,,,,,,,,,,,,,,,,,,,,,,,,,,,,,,,,,,,,,,,,,,,,,,,,,,,,,,,,,,,,,,,,,,
,,5b16adc0388d8b00014fa3a0,2024-02-21_21h25.01.727,kallum_motion_pilot,2023.2.2,Win32,144.9275362,5b16adc0388d8b00014fa3a0,65d6bb0e977760de756971f7,65d6be7fd49342c44be90ac2,0.0371,0.0371,0,79,79,39,1,fourthree,,,,,,,,,,,,,,,,,,,,,,,,,,,,,,,,,,,,,,,,,,,,,,,,,,,,,,,,,,,,,,,,,,,,,,,,,,,,,,,,,,,,,,,,,,,,,,,,,,,,,,,,,,,,,,,,,,,,,,,,,,,,,,,,,,,,,,,,,
,,5b16adc0388d8b00014fa3a0,2024-02-21_21h25.01.727,kallum_motion_pilot,2023.2.2,Win32,144.9275362,5b16adc0388d8b00014fa3a0,65d6bb0e977760de756971f7,65d6be7fd49342c44be90ac2,0.0372,0.0373,0,80,80,14,1,fourtwo,,,,,,,,,,,,,,,,,,,,,,,,,,,,,,,,,,,,,,,,,,,,,,,,,,,,,,,,,,,,,,,,,,,,,,,,,,,,,,,,,,,,,,,,,,,,,,,,,,,,,,,,,,,,,,,,,,,,,,,,,,,,,,,,,,,,,,,,,
,,5b16adc0388d8b00014fa3a0,2024-02-21_21h25.01.727,kallum_motion_pilot,2023.2.2,Win32,144.9275362,5b16adc0388d8b00014fa3a0,65d6bb0e977760de756971f7,65d6be7fd49342c44be90ac2,0.0373,0.0373,0,81,81,65,1,onethree,,,,,,,,,,,,,,,,,,,,,,,,,,,,,,,,,,,,,,,,,,,,,,,,,,,,,,,,,,,,,,,,,,,,,,,,,,,,,,,,,,,,,,,,,,,,,,,,,,,,,,,,,,,,,,,,,,,,,,,,,,,,,,,,,,,,,,,,,
,,5b16adc0388d8b00014fa3a0,2024-02-21_21h25.01.727,kallum_motion_pilot,2023.2.2,Win32,144.9275362,5b16adc0388d8b00014fa3a0,65d6bb0e977760de756971f7,65d6be7fd49342c44be90ac2,0.0374,0.0374,0,82,82,147,1,sixeight,,,,,,,,,,,,,,,,,,,,,,,,,,,,,,,,,,,,,,,,,,,,,,,,,,,,,,,,,,,,,,,,,,,,,,,,,,,,,,,,,,,,,,,,,,,,,,,,,,,,,,,,,,,,,,,,,,,,,,,,,,,,,,,,,,,,,,,,,
,,5b16adc0388d8b00014fa3a0,2024-02-21_21h25.01.727,kallum_motion_pilot,2023.2.2,Win32,144.9275362,5b16adc0388d8b00014fa3a0,65d6bb0e977760de756971f7,65d6be7fd49342c44be90ac2,0.0375,0.0375,0,83,83,36,1,threeone,,,,,,,,,,,,,,,,,,,,,,,,,,,,,,,,,,,,,,,,,,,,,,,,,,,,,,,,,,,,,,,,,,,,,,,,,,,,,,,,,,,,,,,,,,,,,,,,,,,,,,,,,,,,,,,,,,,,,,,,,,,,,,,,,,,,,,,,,
,,5b16adc0388d8b00014fa3a0,2024-02-21_21h25.01.727,kallum_motion_pilot,2023.2.2,Win32,144.9275362,5b16adc0388d8b00014fa3a0,65d6bb0e977760de756971f7,65d6be7fd49342c44be90ac2,0.0376,0.0376,0,84,84,104,1,fivesix,,,,,,,,,,,,,,,,,,,,,,,,,,,,,,,,,,,,,,,,,,,,,,,,,,,,,,,,,,,,,,,,,,,,,,,,,,,,,,,,,,,,,,,,,,,,,,,,,,,,,,,,,,,,,,,,,,,,,,,,,,,,,,,,,,,,,,,,,
,,5b16adc0388d8b00014fa3a0,2024-02-21_21h25.01.727,kallum_motion_pilot,2023.2.2,Win32,144.9275362,5b16adc0388d8b00014fa3a0,65d6bb0e977760de756971f7,65d6be7fd49342c44be90ac2,0.0378,0.0378,0,85,85,32,1,onetwo,,,,,,,,,,,,,,,,,,,,,,,,,,,,,,,,,,,,,,,,,,,,,,,,,,,,,,,,,,,,,,,,,,,,,,,,,,,,,,,,,,,,,,,,,,,,,,,,,,,,,,,,,,,,,,,,,,,,,,,,,,,,,,,,,,,,,,,,,
,,5b16adc0388d8b00014fa3a0,2024-02-21_21h25.01.727,kallum_motion_pilot,2023.2.2,Win32,144.9275362,5b16adc0388d8b00014fa3a0,65d6bb0e977760de756971f7,65d6be7fd49342c44be90ac2,0.0378,0.0379,0,86,86,28,1,threeone,,,,,,,,,,,,,,,,,,,,,,,,,,,,,,,,,,,,,,,,,,,,,,,,,,,,,,,,,,,,,,,,,,,,,,,,,,,,,,,,,,,,,,,,,,,,,,,,,,,,,,,,,,,,,,,,,,,,,,,,,,,,,,,,,,,,,,,,,
,,5b16adc0388d8b00014fa3a0,2024-02-21_21h25.01.727,kallum_motion_pilot,2023.2.2,Win32,144.9275362,5b16adc0388d8b00014fa3a0,65d6bb0e977760de756971f7,65d6be7fd49342c44be90ac2,0.038,0.038,0,87,87,87,1,eightseven,,,,,,,,,,,,,,,,,,,,,,,,,,,,,,,,,,,,,,,,,,,,,,,,,,,,,,,,,,,,,,,,,,,,,,,,,,,,,,,,,,,,,,,,,,,,,,,,,,,,,,,,,,,,,,,,,,,,,,,,,,,,,,,,,,,,,,,,,
,,5b16adc0388d8b00014fa3a0,2024-02-21_21h25.01.727,kallum_motion_pilot,2023.2.2,Win32,144.9275362,5b16adc0388d8b00014fa3a0,65d6bb0e977760de756971f7,65d6be7fd49342c44be90ac2,0.0381,0.0381,0,88,88,111,1,eightseven,,,,,,,,,,,,,,,,,,,,,,,,,,,,,,,,,,,,,,,,,,,,,,,,,,,,,,,,,,,,,,,,,,,,,,,,,,,,,,,,,,,,,,,,,,,,,,,,,,,,,,,,,,,,,,,,,,,,,,,,,,,,,,,,,,,,,,,,,
,,5b16adc0388d8b00014fa3a0,2024-02-21_21h25.01.727,kallum_motion_pilot,2023.2.2,Win32,144.9275362,5b16adc0388d8b00014fa3a0,65d6bb0e977760de756971f7,65d6be7fd49342c44be90ac2,0.0381,0.0383,0,89,89,96,1,fivesix,,,,,,,,,,,,,,,,,,,,,,,,,,,,,,,,,,,,,,,,,,,,,,,,,,,,,,,,,,,,,,,,,,,,,,,,,,,,,,,,,,,,,,,,,,,,,,,,,,,,,,,,,,,,,,,,,,,,,,,,,,,,,,,,,,,,,,,,,
,,5b16adc0388d8b00014fa3a0,2024-02-21_21h25.01.727,kallum_motion_pilot,2023.2.2,Win32,144.9275362,5b16adc0388d8b00014fa3a0,65d6bb0e977760de756971f7,65d6be7fd49342c44be90ac2,0.0383,0.0383,0,90,90,75,1,twofour,,,,,,,,,,,,,,,,,,,,,,,,,,,,,,,,,,,,,,,,,,,,,,,,,,,,,,,,,,,,,,,,,,,,,,,,,,,,,,,,,,,,,,,,,,,,,,,,,,,,,,,,,,,,,,,,,,,,,,,,,,,,,,,,,,,,,,,,,
,,5b16adc0388d8b00014fa3a0,2024-02-21_21h25.01.727,kallum_motion_pilot,2023.2.2,Win32,144.9275362,5b16adc0388d8b00014fa3a0,65d6bb0e977760de756971f7,65d6be7fd49342c44be90ac2,0.0384,0.0385,0,91,91,63,1,fourthree,,,,,,,,,,,,,,,,,,,,,,,,,,,,,,,,,,,,,,,,,,,,,,,,,,,,,,,,,,,,,,,,,,,,,,,,,,,,,,,,,,,,,,,,,,,,,,,,,,,,,,,,,,,,,,,,,,,,,,,,,,,,,,,,,,,,,,,,,
,,5b16adc0388d8b00014fa3a0,2024-02-21_21h25.01.727,kallum_motion_pilot,2023.2.2,Win32,144.9275362,5b16adc0388d8b00014fa3a0,65d6bb0e977760de756971f7,65d6be7fd49342c44be90ac2,0.0385,0.0386,0,92,92,146,1,sixfive,,,,,,,,,,,,,,,,,,,,,,,,,,,,,,,,,,,,,,,,,,,,,,,,,,,,,,,,,,,,,,,,,,,,,,,,,,,,,,,,,,,,,,,,,,,,,,,,,,,,,,,,,,,,,,,,,,,,,,,,,,,,,,,,,,,,,,,,,
,,5b16adc0388d8b00014fa3a0,2024-02-21_21h25.01.727,kallum_motion_pilot,2023.2.2,Win32,144.9275362,5b16adc0388d8b00014fa3a0,65d6bb0e977760de756971f7,65d6be7fd49342c44be90ac2,0.0387,0.0387,0,93,93,110,1,eightsix,,,,,,,,,,,,,,,,,,,,,,,,,,,,,,,,,,,,,,,,,,,,,,,,,,,,,,,,,,,,,,,,,,,,,,,,,,,,,,,,,,,,,,,,,,,,,,,,,,,,,,,,,,,,,,,,,,,,,,,,,,,,,,,,,,,,,,,,,
,,5b16adc0388d8b00014fa3a0,2024-02-21_21h25.01.727,kallum_motion_pilot,2023.2.2,Win32,144.9275362,5b16adc0388d8b00014fa3a0,65d6bb0e977760de756971f7,65d6be7fd49342c44be90ac2,0.0388,0.0388,0,94,94,35,1,twofour,,,,,,,,,,,,,,,,,,,,,,,,,,,,,,,,,,,,,,,,,,,,,,,,,,,,,,,,,,,,,,,,,,,,,,,,,,,,,,,,,,,,,,,,,,,,,,,,,,,,,,,,,,,,,,,,,,,,,,,,,,,,,,,,,,,,,,,,,
,,5b16adc0388d8b00014fa3a0,2024-02-21_21h25.01.727,kallum_motion_pilot,2023.2.2,Win32,144.9275362,5b16adc0388d8b00014fa3a0,65d6bb0e977760de756971f7,65d6be7fd49342c44be90ac2,0.0388,0.0389,0,95,95,118,1,eightsix,,,,,,,,,,,,,,,,,,,,,,,,,,,,,,,,,,,,,,,,,,,,,,,,,,,,,,,,,,,,,,,,,,,,,,,,,,,,,,,,,,,,,,,,,,,,,,,,,,,,,,,,,,,,,,,,,,,,,,,,,,,,,,,,,,,,,,,,,
,,5b16adc0388d8b00014fa3a0,2024-02-21_21h25.01.727,kallum_motion_pilot,2023.2.2,Win32,144.9275362,5b16adc0388d8b00014fa3a0,65d6bb0e977760de756971f7,65d6be7fd49342c44be90ac2,0.0389,0.039,0,96,96,70,1,fourtwo,,,,,,,,,,,,,,,,,,,,,,,,,,,,,,,,,,,,,,,,,,,,,,,,,,,,,,,,,,,,,,,,,,,,,,,,,,,,,,,,,,,,,,,,,,,,,,,,,,,,,,,,,,,,,,,,,,,,,,,,,,,,,,,,,,,,,,,,,
,,5b16adc0388d8b00014fa3a0,2024-02-21_21h25.01.727,kallum_motion_pilot,2023.2.2,Win32,144.9275362,5b16adc0388d8b00014fa3a0,65d6bb0e977760de756971f7,65d6be7fd49342c44be90ac2,0.0391,0.0391,0,97,97,16,1,onetwo,,,,,,,,,,,,,,,,,,,,,,,,,,,,,,,,,,,,,,,,,,,,,,,,,,,,,,,,,,,,,,,,,,,,,,,,,,,,,,,,,,,,,,,,,,,,,,,,,,,,,,,,,,,,,,,,,,,,,,,,,,,,,,,,,,,,,,,,,
,,5b16adc0388d8b00014fa3a0,2024-02-21_21h25.01.727,kallum_motion_pilot,2023.2.2,Win32,144.9275362,5b16adc0388d8b00014fa3a0,65d6bb0e977760de756971f7,65d6be7fd49342c44be90ac2,0.0392,0.0392,0,98,98,90,1,sixfive,,,,,,,,,,,,,,,,,,,,,,,,,,,,,,,,,,,,,,,,,,,,,,,,,,,,,,,,,,,,,,,,,,,,,,,,,,,,,,,,,,,,,,,,,,,,,,,,,,,,,,,,,,,,,,,,,,,,,,,,,,,,,,,,,,,,,,,,,
,,5b16adc0388d8b00014fa3a0,2024-02-21_21h25.01.727,kallum_motion_pilot,2023.2.2,Win32,144.9275362,5b16adc0388d8b00014fa3a0,65d6bb0e977760de756971f7,65d6be7fd49342c44be90ac2,0.0393,0.0393,0,99,99,82,1,sixfive,,,,,,,,,,,,,,,,,,,,,,,,,,,,,,,,,,,,,,,,,,,,,,,,,,,,,,,,,,,,,,,,,,,,,,,,,,,,,,,,,,,,,,,,,,,,,,,,,,,,,,,,,,,,,,,,,,,,,,,,,,,,,,,,,,,,,,,,,
,,5b16adc0388d8b00014fa3a0,2024-02-21_21h25.01.727,kallum_motion_pilot,2023.2.2,Win32,144.9275362,5b16adc0388d8b00014fa3a0,65d6bb0e977760de756971f7,65d6be7fd49342c44be90ac2,0.0394,0.0394,0,100,100,135,1,eightseven,,,,,,,,,,,,,,,,,,,,,,,,,,,,,,,,,,,,,,,,,,,,,,,,,,,,,,,,,,,,,,,,,,,,,,,,,,,,,,,,,,,,,,,,,,,,,,,,,,,,,,,,,,,,,,,,,,,,,,,,,,,,,,,,,,,,,,,,,
,,5b16adc0388d8b00014fa3a0,2024-02-21_21h25.01.727,kallum_motion_pilot,2023.2.2,Win32,144.9275362,5b16adc0388d8b00014fa3a0,65d6bb0e977760de756971f7,65d6be7fd49342c44be90ac2,0.0395,0.0395,0,101,101,79,1,eightseven,,,,,,,,,,,,,,,,,,,,,,,,,,,,,,,,,,,,,,,,,,,,,,,,,,,,,,,,,,,,,,,,,,,,,,,,,,,,,,,,,,,,,,,,,,,,,,,,,,,,,,,,,,,,,,,,,,,,,,,,,,,,,,,,,,,,,,,,,
,,5b16adc0388d8b00014fa3a0,2024-02-21_21h25.01.727,kallum_motion_pilot,2023.2.2,Win32,144.9275362,5b16adc0388d8b00014fa3a0,65d6bb0e977760de756971f7,65d6be7fd49342c44be90ac2,0.0396,0.0396,0,102,102,134,1,eightsix,,,,,,,,,,,,,,,,,,,,,,,,,,,,,,,,,,,,,,,,,,,,,,,,,,,,,,,,,,,,,,,,,,,,,,,,,,,,,,,,,,,,,,,,,,,,,,,,,,,,,,,,,,,,,,,,,,,,,,,,,,,,,,,,,,,,,,,,,
,,5b16adc0388d8b00014fa3a0,2024-02-21_21h25.01.727,kallum_motion_pilot,2023.2.2,Win32,144.9275362,5b16adc0388d8b00014fa3a0,65d6bb0e977760de756971f7,65d6be7fd49342c44be90ac2,0.0397,0.0398,0,103,103,31,1,fourthree,,,,,,,,,,,,,,,,,,,,,,,,,,,,,,,,,,,,,,,,,,,,,,,,,,,,,,,,,,,,,,,,,,,,,,,,,,,,,,,,,,,,,,,,,,,,,,,,,,,,,,,,,,,,,,,,,,,,,,,,,,,,,,,,,,,,,,,,,
,,5b16adc0388d8b00014fa3a0,2024-02-21_21h25.01.727,kallum_motion_pilot,2023.2.2,Win32,144.9275362,5b16adc0388d8b00014fa3a0,65d6bb0e977760de756971f7,65d6be7fd49342c44be90ac2,0.0399,0.0399,0,104,104,144,1,fivesix,,,,,,,,,,,,,,,,,,,,,,,,,,,,,,,,,,,,,,,,,,,,,,,,,,,,,,,,,,,,,,,,,,,,,,,,,,,,,,,,,,,,,,,,,,,,,,,,,,,,,,,,,,,,,,,,,,,,,,,,,,,,,,,,,,,,,,,,,
,,5b16adc0388d8b00014fa3a0,2024-02-21_21h25.01.727,kallum_motion_pilot,2023.2.2,Win32,144.9275362,5b16adc0388d8b00014fa3a0,65d6bb0e977760de756971f7,65d6be7fd49342c44be90ac2,0.0399,0.04,0,105,105,139,1,sixeight,,,,,,,,,,,,,,,,,,,,,,,,,,,,,,,,,,,,,,,,,,,,,,,,,,,,,,,,,,,,,,,,,,,,,,,,,,,,,,,,,,,,,,,,,,,,,,,,,,,,,,,,,,,,,,,,,,,,,,,,,,,,,,,,,,,,,,,,,
,,5b16adc0388d8b00014fa3a0,2024-02-21_21h25.01.727,kallum_motion_pilot,2023.2.2,Win32,144.9275362,5b16adc0388d8b00014fa3a0,65d6bb0e977760de756971f7,65d6be7fd49342c44be90ac2,0.0401,0.0401,0,106,106,131,1,sixeight,,,,,,,,,,,,,,,,,,,,,,,,,,,,,,,,,,,,,,,,,,,,,,,,,,,,,,,,,,,,,,,,,,,,,,,,,,,,,,,,,,,,,,,,,,,,,,,,,,,,,,,,,,,,,,,,,,,,,,,,,,,,,,,,,,,,,,,,,
,,5b16adc0388d8b00014fa3a0,2024-02-21_21h25.01.727,kallum_motion_pilot,2023.2.2,Win32,144.9275362,5b16adc0388d8b00014fa3a0,65d6bb0e977760de756971f7,65d6be7fd49342c44be90ac2,0.0402,0.0403,0,107,107,81,1,fiveseven,,,,,,,,,,,,,,,,,,,,,,,,,,,,,,,,,,,,,,,,,,,,,,,,,,,,,,,,,,,,,,,,,,,,,,,,,,,,,,,,,,,,,,,,,,,,,,,,,,,,,,,,,,,,,,,,,,,,,,,,,,,,,,,,,,,,,,,,,
,,5b16adc0388d8b00014fa3a0,2024-02-21_21h25.01.727,kallum_motion_pilot,2023.2.2,Win32,144.9275362,5b16adc0388d8b00014fa3a0,65d6bb0e977760de756971f7,65d6be7fd49342c44be90ac2,0.0403,0.0403,0,108,108,133,1,seveneight,,,,,,,,,,,,,,,,,,,,,,,,,,,,,,,,,,,,,,,,,,,,,,,,,,,,,,,,,,,,,,,,,,,,,,,,,,,,,,,,,,,,,,,,,,,,,,,,,,,,,,,,,,,,,,,,,,,,,,,,,,,,,,,,,,,,,,,,,
,,5b16adc0388d8b00014fa3a0,2024-02-21_21h25.01.727,kallum_motion_pilot,2023.2.2,Win32,144.9275362,5b16adc0388d8b00014fa3a0,65d6bb0e977760de756971f7,65d6be7fd49342c44be90ac2,0.0404,0.0405,0,109,109,6,1,fourtwo,,,,,,,,,,,,,,,,,,,,,,,,,,,,,,,,,,,,,,,,,,,,,,,,,,,,,,,,,,,,,,,,,,,,,,,,,,,,,,,,,,,,,,,,,,,,,,,,,,,,,,,,,,,,,,,,,,,,,,,,,,,,,,,,,,,,,,,,,
,,5b16adc0388d8b00014fa3a0,2024-02-21_21h25.01.727,kallum_motion_pilot,2023.2.2,Win32,144.9275362,5b16adc0388d8b00014fa3a0,65d6bb0e977760de756971f7,65d6be7fd49342c44be90ac2,0.0405,0.0406,0,110,110,85,1,seveneight,,,,,,,,,,,,,,,,,,,,,,,,,,,,,,,,,,,,,,,,,,,,,,,,,,,,,,,,,,,,,,,,,,,,,,,,,,,,,,,,,,,,,,,,,,,,,,,,,,,,,,,,,,,,,,,,,,,,,,,,,,,,,,,,,,,,,,,,,
,,5b16adc0388d8b00014fa3a0,2024-02-21_21h25.01.727,kallum_motion_pilot,2023.2.2,Win32,144.9275362,5b16adc0388d8b00014fa3a0,65d6bb0e977760de756971f7,65d6be7fd49342c44be90ac2,0.0406,0.0408,0,111,111,59,1,twofour,,,,,,,,,,,,,,,,,,,,,,,,,,,,,,,,,,,,,,,,,,,,,,,,,,,,,,,,,,,,,,,,,,,,,,,,,,,,,,,,,,,,,,,,,,,,,,,,,,,,,,,,,,,,,,,,,,,,,,,,,,,,,,,,,,,,,,,,,
,,5b16adc0388d8b00014fa3a0,2024-02-21_21h25.01.727,kallum_motion_pilot,2023.2.2,Win32,144.9275362,5b16adc0388d8b00014fa3a0,65d6bb0e977760de756971f7,65d6be7fd49342c44be90ac2,0.0408,0.0408,0,112,112,54,1,fourtwo,,,,,,,,,,,,,,,,,,,,,,,,,,,,,,,,,,,,,,,,,,,,,,,,,,,,,,,,,,,,,,,,,,,,,,,,,,,,,,,,,,,,,,,,,,,,,,,,,,,,,,,,,,,,,,,,,,,,,,,,,,,,,,,,,,,,,,,,,
,,5b16adc0388d8b00014fa3a0,2024-02-21_21h25.01.727,kallum_motion_pilot,2023.2.2,Win32,144.9275362,5b16adc0388d8b00014fa3a0,65d6bb0e977760de756971f7,65d6be7fd49342c44be90ac2,0.0409,0.0409,0,113,113,102,1,eightsix,,,,,,,,,,,,,,,,,,,,,,,,,,,,,,,,,,,,,,,,,,,,,,,,,,,,,,,,,,,,,,,,,,,,,,,,,,,,,,,,,,,,,,,,,,,,,,,,,,,,,,,,,,,,,,,,,,,,,,,,,,,,,,,,,,,,,,,,,
,,5b16adc0388d8b00014fa3a0,2024-02-21_21h25.01.727,kallum_motion_pilot,2023.2.2,Win32,144.9275362,5b16adc0388d8b00014fa3a0,65d6bb0e977760de756971f7,65d6be7fd49342c44be90ac2,0.041,0.041,0,114,114,27,1,twofour,,,,,,,,,,,,,,,,,,,,,,,,,,,,,,,,,,,,,,,,,,,,,,,,,,,,,,,,,,,,,,,,,,,,,,,,,,,,,,,,,,,,,,,,,,,,,,,,,,,,,,,,,,,,,,,,,,,,,,,,,,,,,,,,,,,,,,,,,
,,5b16adc0388d8b00014fa3a0,2024-02-21_21h25.01.727,kallum_motion_pilot,2023.2.2,Win32,144.9275362,5b16adc0388d8b00014fa3a0,65d6bb0e977760de756971f7,65d6be7fd49342c44be90ac2,0.0411,0.0411,0,115,115,158,1,eightsix,,,,,,,,,,,,,,,,,,,,,,,,,,,,,,,,,,,,,,,,,,,,,,,,,,,,,,,,,,,,,,,,,,,,,,,,,,,,,,,,,,,,,,,,,,,,,,,,,,,,,,,,,,,,,,,,,,,,,,,,,,,,,,,,,,,,,,,,,
,,5b16adc0388d8b00014fa3a0,2024-02-21_21h25.01.727,kallum_motion_pilot,2023.2.2,Win32,144.9275362,5b16adc0388d8b00014fa3a0,65d6bb0e977760de756971f7,65d6be7fd49342c44be90ac2,0.0413,0.0414,0,116,116,132,1,sevenfive,,,,,,,,,,,,,,,,,,,,,,,,,,,,,,,,,,,,,,,,,,,,,,,,,,,,,,,,,,,,,,,,,,,,,,,,,,,,,,,,,,,,,,,,,,,,,,,,,,,,,,,,,,,,,,,,,,,,,,,,,,,,,,,,,,,,,,,,,
,,5b16adc0388d8b00014fa3a0,2024-02-21_21h25.01.727,kallum_motion_pilot,2023.2.2,Win32,144.9275362,5b16adc0388d8b00014fa3a0,65d6bb0e977760de756971f7,65d6be7fd49342c44be90ac2,0.0414,0.0415,0,117,117,123,1,sixeight,,,,,,,,,,,,,,,,,,,,,,,,,,,,,,,,,,,,,,,,,,,,,,,,,,,,,,,,,,,,,,,,,,,,,,,,,,,,,,,,,,,,,,,,,,,,,,,,,,,,,,,,,,,,,,,,,,,,,,,,,,,,,,,,,,,,,,,,,
,,5b16adc0388d8b00014fa3a0,2024-02-21_21h25.01.727,kallum_motion_pilot,2023.2.2,Win32,144.9275362,5b16adc0388d8b00014fa3a0,65d6bb0e977760de756971f7,65d6be7fd49342c44be90ac2,0.0415,0.0416,0,118,118,99,1,sixeight,,,,,,,,,,,,,,,,,,,,,,,,,,,,,,,,,,,,,,,,,,,,,,,,,,,,,,,,,,,,,,,,,,,,,,,,,,,,,,,,,,,,,,,,,,,,,,,,,,,,,,,,,,,,,,,,,,,,,,,,,,,,,,,,,,,,,,,,,
,,5b16adc0388d8b00014fa3a0,2024-02-21_21h25.01.727,kallum_motion_pilot,2023.2.2,Win32,144.9275362,5b16adc0388d8b00014fa3a0,65d6bb0e977760de756971f7,65d6be7fd49342c44be90ac2,0.0416,0.0416,0,119,119,19,1,twofour,,,,,,,,,,,,,,,,,,,,,,,,,,,,,,,,,,,,,,,,,,,,,,,,,,,,,,,,,,,,,,,,,,,,,,,,,,,,,,,,,,,,,,,,,,,,,,,,,,,,,,,,,,,,,,,,,,,,,,,,,,,,,,,,,,,,,,,,,
,,5b16adc0388d8b00014fa3a0,2024-02-21_21h25.01.727,kallum_motion_pilot,2023.2.2,Win32,144.9275362,5b16adc0388d8b00014fa3a0,65d6bb0e977760de756971f7,65d6be7fd49342c44be90ac2,0.0417,0.0418,0,120,120,12,1,threeone,,,,,,,,,,,,,,,,,,,,,,,,,,,,,,,,,,,,,,,,,,,,,,,,,,,,,,,,,,,,,,,,,,,,,,,,,,,,,,,,,,,,,,,,,,,,,,,,,,,,,,,,,,,,,,,,,,,,,,,,,,,,,,,,,,,,,,,,,
,,5b16adc0388d8b00014fa3a0,2024-02-21_21h25.01.727,kallum_motion_pilot,2023.2.2,Win32,144.9275362,5b16adc0388d8b00014fa3a0,65d6bb0e977760de756971f7,65d6be7fd49342c44be90ac2,0.0419,0.0419,0,121,121,53,1,threefour,,,,,,,,,,,,,,,,,,,,,,,,,,,,,,,,,,,,,,,,,,,,,,,,,,,,,,,,,,,,,,,,,,,,,,,,,,,,,,,,,,,,,,,,,,,,,,,,,,,,,,,,,,,,,,,,,,,,,,,,,,,,,,,,,,,,,,,,,
,,5b16adc0388d8b00014fa3a0,2024-02-21_21h25.01.727,kallum_motion_pilot,2023.2.2,Win32,144.9275362,5b16adc0388d8b00014fa3a0,65d6bb0e977760de756971f7,65d6be7fd49342c44be90ac2,0.042,0.0422,0,122,122,151,1,eightseven,,,,,,,,,,,,,,,,,,,,,,,,,,,,,,,,,,,,,,,,,,,,,,,,,,,,,,,,,,,,,,,,,,,,,,,,,,,,,,,,,,,,,,,,,,,,,,,,,,,,,,,,,,,,,,,,,,,,,,,,,,,,,,,,,,,,,,,,,
,,5b16adc0388d8b00014fa3a0,2024-02-21_21h25.01.727,kallum_motion_pilot,2023.2.2,Win32,144.9275362,5b16adc0388d8b00014fa3a0,65d6bb0e977760de756971f7,65d6be7fd49342c44be90ac2,0.0423,0.0423,0,123,123,86,1,eightsix,,,,,,,,,,,,,,,,,,,,,,,,,,,,,,,,,,,,,,,,,,,,,,,,,,,,,,,,,,,,,,,,,,,,,,,,,,,,,,,,,,,,,,,,,,,,,,,,,,,,,,,,,,,,,,,,,,,,,,,,,,,,,,,,,,,,,,,,,
,,5b16adc0388d8b00014fa3a0,2024-02-21_21h25.01.727,kallum_motion_pilot,2023.2.2,Win32,144.9275362,5b16adc0388d8b00014fa3a0,65d6bb0e977760de756971f7,65d6be7fd49342c44be90ac2,0.0424,0.0425,0,124,124,142,1,eightsix,,,,,,,,,,,,,,,,,,,,,,,,,,,,,,,,,,,,,,,,,,,,,,,,,,,,,,,,,,,,,,,,,,,,,,,,,,,,,,,,,,,,,,,,,,,,,,,,,,,,,,,,,,,,,,,,,,,,,,,,,,,,,,,,,,,,,,,,,
,,5b16adc0388d8b00014fa3a0,2024-02-21_21h25.01.727,kallum_motion_pilot,2023.2.2,Win32,144.9275362,5b16adc0388d8b00014fa3a0,65d6bb0e977760de756971f7,65d6be7fd49342c44be90ac2,0.0427,0.0428,0,125,125,7,1,fourthree,,,,,,,,,,,,,,,,,,,,,,,,,,,,,,,,,,,,,,,,,,,,,,,,,,,,,,,,,,,,,,,,,,,,,,,,,,,,,,,,,,,,,,,,,,,,,,,,,,,,,,,,,,,,,,,,,,,,,,,,,,,,,,,,,,,,,,,,,
,,5b16adc0388d8b00014fa3a0,2024-02-21_21h25.01.727,kallum_motion_pilot,2023.2.2,Win32,144.9275362,5b16adc0388d8b00014fa3a0,65d6bb0e977760de756971f7,65d6be7fd49342c44be90ac2,0.0428,0.043,0,126,126,41,1,onethree,,,,,,,,,,,,,,,,,,,,,,,,,,,,,,,,,,,,,,,,,,,,,,,,,,,,,,,,,,,,,,,,,,,,,,,,,,,,,,,,,,,,,,,,,,,,,,,,,,,,,,,,,,,,,,,,,,,,,,,,,,,,,,,,,,,,,,,,,
,,5b16adc0388d8b00014fa3a0,2024-02-21_21h25.01.727,kallum_motion_pilot,2023.2.2,Win32,144.9275362,5b16adc0388d8b00014fa3a0,65d6bb0e977760de756971f7,65d6be7fd49342c44be90ac2,0.0431,0.0431,0,127,127,149,1,seveneight,,,,,,,,,,,,,,,,,,,,,,,,,,,,,,,,,,,,,,,,,,,,,,,,,,,,,,,,,,,,,,,,,,,,,,,,,,,,,,,,,,,,,,,,,,,,,,,,,,,,,,,,,,,,,,,,,,,,,,,,,,,,,,,,,,,,,,,,,
,,5b16adc0388d8b00014fa3a0,2024-02-21_21h25.01.727,kallum_motion_pilot,2023.2.2,Win32,144.9275362,5b16adc0388d8b00014fa3a0,65d6bb0e977760de756971f7,65d6be7fd49342c44be90ac2,0.0433,0.0433,0,128,128,97,1,fiveseven,,,,,,,,,,,,,,,,,,,,,,,,,,,,,,,,,,,,,,,,,,,,,,,,,,,,,,,,,,,,,,,,,,,,,,,,,,,,,,,,,,,,,,,,,,,,,,,,,,,,,,,,,,,,,,,,,,,,,,,,,,,,,,,,,,,,,,,,,
,,5b16adc0388d8b00014fa3a0,2024-02-21_21h25.01.727,kallum_motion_pilot,2023.2.2,Win32,144.9275362,5b16adc0388d8b00014fa3a0,65d6bb0e977760de756971f7,65d6be7fd49342c44be90ac2,0.0434,0.0435,0,129,129,89,1,fiveseven,,,,,,,,,,,,,,,,,,,,,,,,,,,,,,,,,,,,,,,,,,,,,,,,,,,,,,,,,,,,,,,,,,,,,,,,,,,,,,,,,,,,,,,,,,,,,,,,,,,,,,,,,,,,,,,,,,,,,,,,,,,,,,,,,,,,,,,,,
,,5b16adc0388d8b00014fa3a0,2024-02-21_21h25.01.727,kallum_motion_pilot,2023.2.2,Win32,144.9275362,5b16adc0388d8b00014fa3a0,65d6bb0e977760de756971f7,65d6be7fd49342c44be90ac2,0.0436,0.0437,0,130,130,20,1,threeone,,,,,,,,,,,,,,,,,,,,,,,,,,,,,,,,,,,,,,,,,,,,,,,,,,,,,,,,,,,,,,,,,,,,,,,,,,,,,,,,,,,,,,,,,,,,,,,,,,,,,,,,,,,,,,,,,,,,,,,,,,,,,,,,,,,,,,,,,
,,5b16adc0388d8b00014fa3a0,2024-02-21_21h25.01.727,kallum_motion_pilot,2023.2.2,Win32,144.9275362,5b16adc0388d8b00014fa3a0,65d6bb0e977760de756971f7,65d6be7fd49342c44be90ac2,0.0437,0.0438,0,131,131,77,1,threefour,,,,,,,,,,,,,,,,,,,,,,,,,,,,,,,,,,,,,,,,,,,,,,,,,,,,,,,,,,,,,,,,,,,,,,,,,,,,,,,,,,,,,,,,,,,,,,,,,,,,,,,,,,,,,,,,,,,,,,,,,,,,,,,,,,,,,,,,,
,,5b16adc0388d8b00014fa3a0,2024-02-21_21h25.01.727,kallum_motion_pilot,2023.2.2,Win32,144.9275362,5b16adc0388d8b00014fa3a0,65d6bb0e977760de756971f7,65d6be7fd49342c44be90ac2,0.0439,0.044,0,132,132,93,1,seveneight,,,,,,,,,,,,,,,,,,,,,,,,,,,,,,,,,,,,,,,,,,,,,,,,,,,,,,,,,,,,,,,,,,,,,,,,,,,,,,,,,,,,,,,,,,,,,,,,,,,,,,,,,,,,,,,,,,,,,,,,,,,,,,,,,,,,,,,,,
,,5b16adc0388d8b00014fa3a0,2024-02-21_21h25.01.727,kallum_motion_pilot,2023.2.2,Win32,144.9275362,5b16adc0388d8b00014fa3a0,65d6bb0e977760de756971f7,65d6be7fd49342c44be90ac2,0.0441,0.0442,0,133,133,140,1,sevenfive,,,,,,,,,,,,,,,,,,,,,,,,,,,,,,,,,,,,,,,,,,,,,,,,,,,,,,,,,,,,,,,,,,,,,,,,,,,,,,,,,,,,,,,,,,,,,,,,,,,,,,,,,,,,,,,,,,,,,,,,,,,,,,,,,,,,,,,,,
,,5b16adc0388d8b00014fa3a0,2024-02-21_21h25.01.727,kallum_motion_pilot,2023.2.2,Win32,144.9275362,5b16adc0388d8b00014fa3a0,65d6bb0e977760de756971f7,65d6be7fd49342c44be90ac2,0.0443,0.0444,0,134,134,37,1,threefour,,,,,,,,,,,,,,,,,,,,,,,,,,,,,,,,,,,,,,,,,,,,,,,,,,,,,,,,,,,,,,,,,,,,,,,,,,,,,,,,,,,,,,,,,,,,,,,,,,,,,,,,,,,,,,,,,,,,,,,,,,,,,,,,,,,,,,,,,
,,5b16adc0388d8b00014fa3a0,2024-02-21_21h25.01.727,kallum_motion_pilot,2023.2.2,Win32,144.9275362,5b16adc0388d8b00014fa3a0,65d6bb0e977760de756971f7,65d6be7fd49342c44be90ac2,0.0445,0.0446,0,135,135,116,1,sevenfive,,,,,,,,,,,,,,,,,,,,,,,,,,,,,,,,,,,,,,,,,,,,,,,,,,,,,,,,,,,,,,,,,,,,,,,,,,,,,,,,,,,,,,,,,,,,,,,,,,,,,,,,,,,,,,,,,,,,,,,,,,,,,,,,,,,,,,,,,
,,5b16adc0388d8b00014fa3a0,2024-02-21_21h25.01.727,kallum_motion_pilot,2023.2.2,Win32,144.9275362,5b16adc0388d8b00014fa3a0,65d6bb0e977760de756971f7,65d6be7fd49342c44be90ac2,0.0446,0.0448,0,136,136,58,1,twoone,,,,,,,,,,,,,,,,,,,,,,,,,,,,,,,,,,,,,,,,,,,,,,,,,,,,,,,,,,,,,,,,,,,,,,,,,,,,,,,,,,,,,,,,,,,,,,,,,,,,,,,,,,,,,,,,,,,,,,,,,,,,,,,,,,,,,,,,,
,,5b16adc0388d8b00014fa3a0,2024-02-21_21h25.01.727,kallum_motion_pilot,2023.2.2,Win32,144.9275362,5b16adc0388d8b00014fa3a0,65d6bb0e977760de756971f7,65d6be7fd49342c44be90ac2,0.0448,0.0449,0,137,137,17,1,onethree,,,,,,,,,,,,,,,,,,,,,,,,,,,,,,,,,,,,,,,,,,,,,,,,,,,,,,,,,,,,,,,,,,,,,,,,,,,,,,,,,,,,,,,,,,,,,,,,,,,,,,,,,,,,,,,,,,,,,,,,,,,,,,,,,,,,,,,,,
,,5b16adc0388d8b00014fa3a0,2024-02-21_21h25.01.727,kallum_motion_pilot,2023.2.2,Win32,144.9275362,5b16adc0388d8b00014fa3a0,65d6bb0e977760de756971f7,65d6be7fd49342c44be90ac2,0.045,0.0451,0,138,138,24,1,onetwo,,,,,,,,,,,,,,,,,,,,,,,,,,,,,,,,,,,,,,,,,,,,,,,,,,,,,,,,,,,,,,,,,,,,,,,,,,,,,,,,,,,,,,,,,,,,,,,,,,,,,,,,,,,,,,,,,,,,,,,,,,,,,,,,,,,,,,,,,
,,5b16adc0388d8b00014fa3a0,2024-02-21_21h25.01.727,kallum_motion_pilot,2023.2.2,Win32,144.9275362,5b16adc0388d8b00014fa3a0,65d6bb0e977760de756971f7,65d6be7fd49342c44be90ac2,0.0452,0.0453,0,139,139,94,1,eightsix,,,,,,,,,,,,,,,,,,,,,,,,,,,,,,,,,,,,,,,,,,,,,,,,,,,,,,,,,,,,,,,,,,,,,,,,,,,,,,,,,,,,,,,,,,,,,,,,,,,,,,,,,,,,,,,,,,,,,,,,,,,,,,,,,,,,,,,,,
,,5b16adc0388d8b00014fa3a0,2024-02-21_21h25.01.727,kallum_motion_pilot,2023.2.2,Win32,144.9275362,5b16adc0388d8b00014fa3a0,65d6bb0e977760de756971f7,65d6be7fd49342c44be90ac2,0.0454,0.0455,0,140,140,92,1,sevenfive,,,,,,,,,,,,,,,,,,,,,,,,,,,,,,,,,,,,,,,,,,,,,,,,,,,,,,,,,,,,,,,,,,,,,,,,,,,,,,,,,,,,,,,,,,,,,,,,,,,,,,,,,,,,,,,,,,,,,,,,,,,,,,,,,,,,,,,,,
,,5b16adc0388d8b00014fa3a0,2024-02-21_21h25.01.727,kallum_motion_pilot,2023.2.2,Win32,144.9275362,5b16adc0388d8b00014fa3a0,65d6bb0e977760de756971f7,65d6be7fd49342c44be90ac2,0.0456,0.0456,0,141,141,71,1,fourthree,,,,,,,,,,,,,,,,,,,,,,,,,,,,,,,,,,,,,,,,,,,,,,,,,,,,,,,,,,,,,,,,,,,,,,,,,,,,,,,,,,,,,,,,,,,,,,,,,,,,,,,,,,,,,,,,,,,,,,,,,,,,,,,,,,,,,,,,,
,,5b16adc0388d8b00014fa3a0,2024-02-21_21h25.01.727,kallum_motion_pilot,2023.2.2,Win32,144.9275362,5b16adc0388d8b00014fa3a0,65d6bb0e977760de756971f7,65d6be7fd49342c44be90ac2,0.0458,0.0458,0,142,142,150,1,eightsix,,,,,,,,,,,,,,,,,,,,,,,,,,,,,,,,,,,,,,,,,,,,,,,,,,,,,,,,,,,,,,,,,,,,,,,,,,,,,,,,,,,,,,,,,,,,,,,,,,,,,,,,,,,,,,,,,,,,,,,,,,,,,,,,,,,,,,,,,
,,5b16adc0388d8b00014fa3a0,2024-02-21_21h25.01.727,kallum_motion_pilot,2023.2.2,Win32,144.9275362,5b16adc0388d8b00014fa3a0,65d6bb0e977760de756971f7,65d6be7fd49342c44be90ac2,0.0459,0.046,0,143,143,101,1,seveneight,,,,,,,,,,,,,,,,,,,,,,,,,,,,,,,,,,,,,,,,,,,,,,,,,,,,,,,,,,,,,,,,,,,,,,,,,,,,,,,,,,,,,,,,,,,,,,,,,,,,,,,,,,,,,,,,,,,,,,,,,,,,,,,,,,,,,,,,,
,,5b16adc0388d8b00014fa3a0,2024-02-21_21h25.01.727,kallum_motion_pilot,2023.2.2,Win32,144.9275362,5b16adc0388d8b00014fa3a0,65d6bb0e977760de756971f7,65d6be7fd49342c44be90ac2,0.0461,0.0462,0,144,144,29,1,threefour,,,,,,,,,,,,,,,,,,,,,,,,,,,,,,,,,,,,,,,,,,,,,,,,,,,,,,,,,,,,,,,,,,,,,,,,,,,,,,,,,,,,,,,,,,,,,,,,,,,,,,,,,,,,,,,,,,,,,,,,,,,,,,,,,,,,,,,,,
,,5b16adc0388d8b00014fa3a0,2024-02-21_21h25.01.727,kallum_motion_pilot,2023.2.2,Win32,144.9275362,5b16adc0388d8b00014fa3a0,65d6bb0e977760de756971f7,65d6be7fd49342c44be90ac2,0.0464,0.0464,0,145,145,1,1,onethree,,,,,,,,,,,,,,,,,,,,,,,,,,,,,,,,,,,,,,,,,,,,,,,,,,,,,,,,,,,,,,,,,,,,,,,,,,,,,,,,,,,,,,,,,,,,,,,,,,,,,,,,,,,,,,,,,,,,,,,,,,,,,,,,,,,,,,,,,
,,5b16adc0388d8b00014fa3a0,2024-02-21_21h25.01.727,kallum_motion_pilot,2023.2.2,Win32,144.9275362,5b16adc0388d8b00014fa3a0,65d6bb0e977760de756971f7,65d6be7fd49342c44be90ac2,0.0465,0.0465,0,146,146,78,1,fourtwo,,,,,,,,,,,,,,,,,,,,,,,,,,,,,,,,,,,,,,,,,,,,,,,,,,,,,,,,,,,,,,,,,,,,,,,,,,,,,,,,,,,,,,,,,,,,,,,,,,,,,,,,,,,,,,,,,,,,,,,,,,,,,,,,,,,,,,,,,
,,5b16adc0388d8b00014fa3a0,2024-02-21_21h25.01.727,kallum_motion_pilot,2023.2.2,Win32,144.9275362,5b16adc0388d8b00014fa3a0,65d6bb0e977760de756971f7,65d6be7fd49342c44be90ac2,0.0467,0.0468,0,147,147,5,1,threefour,,,,,,,,,,,,,,,,,,,,,,,,,,,,,,,,,,,,,,,,,,,,,,,,,,,,,,,,,,,,,,,,,,,,,,,,,,,,,,,,,,,,,,,,,,,,,,,,,,,,,,,,,,,,,,,,,,,,,,,,,,,,,,,,,,,,,,,,,
,,5b16adc0388d8b00014fa3a0,2024-02-21_21h25.01.727,kallum_motion_pilot,2023.2.2,Win32,144.9275362,5b16adc0388d8b00014fa3a0,65d6bb0e977760de756971f7,65d6be7fd49342c44be90ac2,0.0468,0.0469,0,148,148,57,1,onethree,,,,,,,,,,,,,,,,,,,,,,,,,,,,,,,,,,,,,,,,,,,,,,,,,,,,,,,,,,,,,,,,,,,,,,,,,,,,,,,,,,,,,,,,,,,,,,,,,,,,,,,,,,,,,,,,,,,,,,,,,,,,,,,,,,,,,,,,,
,,5b16adc0388d8b00014fa3a0,2024-02-21_21h25.01.727,kallum_motion_pilot,2023.2.2,Win32,144.9275362,5b16adc0388d8b00014fa3a0,65d6bb0e977760de756971f7,65d6be7fd49342c44be90ac2,0.047,0.0472,0,149,149,122,1,sixfive,,,,,,,,,,,,,,,,,,,,,,,,,,,,,,,,,,,,,,,,,,,,,,,,,,,,,,,,,,,,,,,,,,,,,,,,,,,,,,,,,,,,,,,,,,,,,,,,,,,,,,,,,,,,,,,,,,,,,,,,,,,,,,,,,,,,,,,,,
,,5b16adc0388d8b00014fa3a0,2024-02-21_21h25.01.727,kallum_motion_pilot,2023.2.2,Win32,144.9275362,5b16adc0388d8b00014fa3a0,65d6bb0e977760de756971f7,65d6be7fd49342c44be90ac2,0.0472,0.0473,0,150,150,148,1,sevenfive,,,,,,,,,,,,,,,,,,,,,,,,,,,,,,,,,,,,,,,,,,,,,,,,,,,,,,,,,,,,,,,,,,,,,,,,,,,,,,,,,,,,,,,,,,,,,,,,,,,,,,,,,,,,,,,,,,,,,,,,,,,,,,,,,,,,,,,,,
,,5b16adc0388d8b00014fa3a0,2024-02-21_21h25.01.727,kallum_motion_pilot,2023.2.2,Win32,144.9275362,5b16adc0388d8b00014fa3a0,65d6bb0e977760de756971f7,65d6be7fd49342c44be90ac2,0.0474,0.0475,0,151,151,50,1,twoone,,,,,,,,,,,,,,,,,,,,,,,,,,,,,,,,,,,,,,,,,,,,,,,,,,,,,,,,,,,,,,,,,,,,,,,,,,,,,,,,,,,,,,,,,,,,,,,,,,,,,,,,,,,,,,,,,,,,,,,,,,,,,,,,,,,,,,,,,
,,5b16adc0388d8b00014fa3a0,2024-02-21_21h25.01.727,kallum_motion_pilot,2023.2.2,Win32,144.9275362,5b16adc0388d8b00014fa3a0,65d6bb0e977760de756971f7,65d6be7fd49342c44be90ac2,0.0476,0.0476,0,152,152,23,1,fourthree,,,,,,,,,,,,,,,,,,,,,,,,,,,,,,,,,,,,,,,,,,,,,,,,,,,,,,,,,,,,,,,,,,,,,,,,,,,,,,,,,,,,,,,,,,,,,,,,,,,,,,,,,,,,,,,,,,,,,,,,,,,,,,,,,,,,,,,,,
,,5b16adc0388d8b00014fa3a0,2024-02-21_21h25.01.727,kallum_motion_pilot,2023.2.2,Win32,144.9275362,5b16adc0388d8b00014fa3a0,65d6bb0e977760de756971f7,65d6be7fd49342c44be90ac2,0.0478,0.0479,0,153,153,155,1,sixeight,,,,,,,,,,,,,,,,,,,,,,,,,,,,,,,,,,,,,,,,,,,,,,,,,,,,,,,,,,,,,,,,,,,,,,,,,,,,,,,,,,,,,,,,,,,,,,,,,,,,,,,,,,,,,,,,,,,,,,,,,,,,,,,,,,,,,,,,,
,,5b16adc0388d8b00014fa3a0,2024-02-21_21h25.01.727,kallum_motion_pilot,2023.2.2,Win32,144.9275362,5b16adc0388d8b00014fa3a0,65d6bb0e977760de756971f7,65d6be7fd49342c44be90ac2,0.0479,0.048,0,154,154,98,1,sixfive,,,,,,,,,,,,,,,,,,,,,,,,,,,,,,,,,,,,,,,,,,,,,,,,,,,,,,,,,,,,,,,,,,,,,,,,,,,,,,,,,,,,,,,,,,,,,,,,,,,,,,,,,,,,,,,,,,,,,,,,,,,,,,,,,,,,,,,,,
,,5b16adc0388d8b00014fa3a0,2024-02-21_21h25.01.727,kallum_motion_pilot,2023.2.2,Win32,144.9275362,5b16adc0388d8b00014fa3a0,65d6bb0e977760de756971f7,65d6be7fd49342c44be90ac2,0.0481,0.0483,0,155,155,10,1,twoone,,,,,,,,,,,,,,,,,,,,,,,,,,,,,,,,,,,,,,,,,,,,,,,,,,,,,,,,,,,,,,,,,,,,,,,,,,,,,,,,,,,,,,,,,,,,,,,,,,,,,,,,,,,,,,,,,,,,,,,,,,,,,,,,,,,,,,,,,
,,5b16adc0388d8b00014fa3a0,2024-02-21_21h25.01.727,kallum_motion_pilot,2023.2.2,Win32,144.9275362,5b16adc0388d8b00014fa3a0,65d6bb0e977760de756971f7,65d6be7fd49342c44be90ac2,0.0483,0.0484,0,156,156,68,1,threeone,,,,,,,,,,,,,,,,,,,,,,,,,,,,,,,,,,,,,,,,,,,,,,,,,,,,,,,,,,,,,,,,,,,,,,,,,,,,,,,,,,,,,,,,,,,,,,,,,,,,,,,,,,,,,,,,,,,,,,,,,,,,,,,,,,,,,,,,,
,,5b16adc0388d8b00014fa3a0,2024-02-21_21h25.01.727,kallum_motion_pilot,2023.2.2,Win32,144.9275362,5b16adc0388d8b00014fa3a0,65d6bb0e977760de756971f7,65d6be7fd49342c44be90ac2,0.0485,0.0486,0,157,157,130,1,sixfive,,,,,,,,,,,,,,,,,,,,,,,,,,,,,,,,,,,,,,,,,,,,,,,,,,,,,,,,,,,,,,,,,,,,,,,,,,,,,,,,,,,,,,,,,,,,,,,,,,,,,,,,,,,,,,,,,,,,,,,,,,,,,,,,,,,,,,,,,
,,5b16adc0388d8b00014fa3a0,2024-02-21_21h25.01.727,kallum_motion_pilot,2023.2.2,Win32,144.9275362,5b16adc0388d8b00014fa3a0,65d6bb0e977760de756971f7,65d6be7fd49342c44be90ac2,0.0487,0.0488,0,158,158,95,1,eightseven,,,,,,,,,,,,,,,,,,,,,,,,,,,,,,,,,,,,,,,,,,,,,,,,,,,,,,,,,,,,,,,,,,,,,,,,,,,,,,,,,,,,,,,,,,,,,,,,,,,,,,,,,,,,,,,,,,,,,,,,,,,,,,,,,,,,,,,,,
,,5b16adc0388d8b00014fa3a0,2024-02-21_21h25.01.727,kallum_motion_pilot,2023.2.2,Win32,144.9275362,5b16adc0388d8b00014fa3a0,65d6bb0e977760de756971f7,65d6be7fd49342c44be90ac2,0.0489,0.049,0,159,159,125,1,seveneight,,,,,,,,,,,,,,,,,,,,,,,,,,,,,,,,,,,,,,,,,,,,,,,,,,,,,,,,,,,,,,,,,,,,,,,,,,,,,,,,,,,,,,,,,,,,,,,,,,,,,,,,,,,,,,,,,,,,,,,,,,,,,,,,,,,,,,,,,
,,5b16adc0388d8b00014fa3a0,2024-02-21_21h25.01.727,kallum_motion_pilot,2023.2.2,Win32,144.9275362,5b16adc0388d8b00014fa3a0,65d6bb0e977760de756971f7,65d6be7fd49342c44be90ac2,0.049,0.0492,0,160,160,11,1,twofour,,,,,,,,,,,,,,,,,,,,,,,,,,,,,,,,,,,,,,,,,,,,,,,,,,,,,,,,,,,,,,,,,,,,,,,,,,,,,,,,,,,,,,,,,,,,,,,,,,,,,,,,,,,,,,,,,,,,,,,,,,,,,,,,,,,,,,,,,
,,5b16adc0388d8b00014fa3a0,2024-02-21_21h25.01.727,kallum_motion_pilot,2023.2.2,Win32,144.9275362,5b16adc0388d8b00014fa3a0,65d6bb0e977760de756971f7,65d6be7fd49342c44be90ac2,0.0493,0.0493,0,161,161,40,1,onetwo,,,,,,,,,,,,,,,,,,,,,,,,,,,,,,,,,,,,,,,,,,,,,,,,,,,,,,,,,,,,,,,,,,,,,,,,,,,,,,,,,,,,,,,,,,,,,,,,,,,,,,,,,,,,,,,,,,,,,,,,,,,,,,,,,,,,,,,,,
,,5b16adc0388d8b00014fa3a0,2024-02-21_21h25.01.727,kallum_motion_pilot,2023.2.2,Win32,144.9275362,5b16adc0388d8b00014fa3a0,65d6bb0e977760de756971f7,65d6be7fd49342c44be90ac2,0.0495,0.0495,1,0,162,52,1,threeone,,,,,,,,,,,,,,,,,,,,,,,,,,,,,,,,,,,,,,,,,,,,,,,,,,,,,,,,,,,,,,,,,,,,,,,,,,,,,,,,,,,,,,,,,,,,,,,,,,,,,,,,,,,,,,,,,,,,,,,,,,,,,,,,,,,,,,,,,
,,5b16adc0388d8b00014fa3a0,2024-02-21_21h25.01.727,kallum_motion_pilot,2023.2.2,Win32,144.9275362,5b16adc0388d8b00014fa3a0,65d6bb0e977760de756971f7,65d6be7fd49342c44be90ac2,0.0496,0.0497,1,1,163,35,1,twofour,,,,,,,,,,,,,,,,,,,,,,,,,,,,,,,,,,,,,,,,,,,,,,,,,,,,,,,,,,,,,,,,,,,,,,,,,,,,,,,,,,,,,,,,,,,,,,,,,,,,,,,,,,,,,,,,,,,,,,,,,,,,,,,,,,,,,,,,,
,,5b16adc0388d8b00014fa3a0,2024-02-21_21h25.01.727,kallum_motion_pilot,2023.2.2,Win32,144.9275362,5b16adc0388d8b00014fa3a0,65d6bb0e977760de756971f7,65d6be7fd49342c44be90ac2,0.0498,0.0499,1,2,164,104,1,fivesix,,,,,,,,,,,,,,,,,,,,,,,,,,,,,,,,,,,,,,,,,,,,,,,,,,,,,,,,,,,,,,,,,,,,,,,,,,,,,,,,,,,,,,,,,,,,,,,,,,,,,,,,,,,,,,,,,,,,,,,,,,,,,,,,,,,,,,,,,
,,5b16adc0388d8b00014fa3a0,2024-02-21_21h25.01.727,kallum_motion_pilot,2023.2.2,Win32,144.9275362,5b16adc0388d8b00014fa3a0,65d6bb0e977760de756971f7,65d6be7fd49342c44be90ac2,0.0499,0.05,1,3,165,69,1,threefour,,,,,,,,,,,,,,,,,,,,,,,,,,,,,,,,,,,,,,,,,,,,,,,,,,,,,,,,,,,,,,,,,,,,,,,,,,,,,,,,,,,,,,,,,,,,,,,,,,,,,,,,,,,,,,,,,,,,,,,,,,,,,,,,,,,,,,,,,
,,5b16adc0388d8b00014fa3a0,2024-02-21_21h25.01.727,kallum_motion_pilot,2023.2.2,Win32,144.9275362,5b16adc0388d8b00014fa3a0,65d6bb0e977760de756971f7,65d6be7fd49342c44be90ac2,0.05,0.0502,1,4,166,74,1,twoone,,,,,,,,,,,,,,,,,,,,,,,,,,,,,,,,,,,,,,,,,,,,,,,,,,,,,,,,,,,,,,,,,,,,,,,,,,,,,,,,,,,,,,,,,,,,,,,,,,,,,,,,,,,,,,,,,,,,,,,,,,,,,,,,,,,,,,,,,
,,5b16adc0388d8b00014fa3a0,2024-02-21_21h25.01.727,kallum_motion_pilot,2023.2.2,Win32,144.9275362,5b16adc0388d8b00014fa3a0,65d6bb0e977760de756971f7,65d6be7fd49342c44be90ac2,0.0503,0.0503,1,5,167,20,1,threeone,,,,,,,,,,,,,,,,,,,,,,,,,,,,,,,,,,,,,,,,,,,,,,,,,,,,,,,,,,,,,,,,,,,,,,,,,,,,,,,,,,,,,,,,,,,,,,,,,,,,,,,,,,,,,,,,,,,,,,,,,,,,,,,,,,,,,,,,,
,,5b16adc0388d8b00014fa3a0,2024-02-21_21h25.01.727,kallum_motion_pilot,2023.2.2,Win32,144.9275362,5b16adc0388d8b00014fa3a0,65d6bb0e977760de756971f7,65d6be7fd49342c44be90ac2,0.0503,0.0504,1,6,168,97,1,fiveseven,,,,,,,,,,,,,,,,,,,,,,,,,,,,,,,,,,,,,,,,,,,,,,,,,,,,,,,,,,,,,,,,,,,,,,,,,,,,,,,,,,,,,,,,,,,,,,,,,,,,,,,,,,,,,,,,,,,,,,,,,,,,,,,,,,,,,,,,,
,,5b16adc0388d8b00014fa3a0,2024-02-21_21h25.01.727,kallum_motion_pilot,2023.2.2,Win32,144.9275362,5b16adc0388d8b00014fa3a0,65d6bb0e977760de756971f7,65d6be7fd49342c44be90ac2,0.0505,0.0506,1,7,169,39,1,fourthree,,,,,,,,,,,,,,,,,,,,,,,,,,,,,,,,,,,,,,,,,,,,,,,,,,,,,,,,,,,,,,,,,,,,,,,,,,,,,,,,,,,,,,,,,,,,,,,,,,,,,,,,,,,,,,,,,,,,,,,,,,,,,,,,,,,,,,,,,
,,5b16adc0388d8b00014fa3a0,2024-02-21_21h25.01.727,kallum_motion_pilot,2023.2.2,Win32,144.9275362,5b16adc0388d8b00014fa3a0,65d6bb0e977760de756971f7,65d6be7fd49342c44be90ac2,0.0506,0.0507,1,8,170,64,1,onetwo,,,,,,,,,,,,,,,,,,,,,,,,,,,,,,,,,,,,,,,,,,,,,,,,,,,,,,,,,,,,,,,,,,,,,,,,,,,,,,,,,,,,,,,,,,,,,,,,,,,,,,,,,,,,,,,,,,,,,,,,,,,,,,,,,,,,,,,,,
,,5b16adc0388d8b00014fa3a0,2024-02-21_21h25.01.727,kallum_motion_pilot,2023.2.2,Win32,144.9275362,5b16adc0388d8b00014fa3a0,65d6bb0e977760de756971f7,65d6be7fd49342c44be90ac2,0.0507,0.0508,1,9,171,155,1,sixeight,,,,,,,,,,,,,,,,,,,,,,,,,,,,,,,,,,,,,,,,,,,,,,,,,,,,,,,,,,,,,,,,,,,,,,,,,,,,,,,,,,,,,,,,,,,,,,,,,,,,,,,,,,,,,,,,,,,,,,,,,,,,,,,,,,,,,,,,,
,,5b16adc0388d8b00014fa3a0,2024-02-21_21h25.01.727,kallum_motion_pilot,2023.2.2,Win32,144.9275362,5b16adc0388d8b00014fa3a0,65d6bb0e977760de756971f7,65d6be7fd49342c44be90ac2,0.0509,0.051,1,10,172,34,1,twoone,,,,,,,,,,,,,,,,,,,,,,,,,,,,,,,,,,,,,,,,,,,,,,,,,,,,,,,,,,,,,,,,,,,,,,,,,,,,,,,,,,,,,,,,,,,,,,,,,,,,,,,,,,,,,,,,,,,,,,,,,,,,,,,,,,,,,,,,,
,,5b16adc0388d8b00014fa3a0,2024-02-21_21h25.01.727,kallum_motion_pilot,2023.2.2,Win32,144.9275362,5b16adc0388d8b00014fa3a0,65d6bb0e977760de756971f7,65d6be7fd49342c44be90ac2,0.051,0.0511,1,11,173,27,1,twofour,,,,,,,,,,,,,,,,,,,,,,,,,,,,,,,,,,,,,,,,,,,,,,,,,,,,,,,,,,,,,,,,,,,,,,,,,,,,,,,,,,,,,,,,,,,,,,,,,,,,,,,,,,,,,,,,,,,,,,,,,,,,,,,,,,,,,,,,,
,,5b16adc0388d8b00014fa3a0,2024-02-21_21h25.01.727,kallum_motion_pilot,2023.2.2,Win32,144.9275362,5b16adc0388d8b00014fa3a0,65d6bb0e977760de756971f7,65d6be7fd49342c44be90ac2,0.0512,0.0512,1,12,174,133,1,seveneight,,,,,,,,,,,,,,,,,,,,,,,,,,,,,,,,,,,,,,,,,,,,,,,,,,,,,,,,,,,,,,,,,,,,,,,,,,,,,,,,,,,,,,,,,,,,,,,,,,,,,,,,,,,,,,,,,,,,,,,,,,,,,,,,,,,,,,,,,
,,5b16adc0388d8b00014fa3a0,2024-02-21_21h25.01.727,kallum_motion_pilot,2023.2.2,Win32,144.9275362,5b16adc0388d8b00014fa3a0,65d6bb0e977760de756971f7,65d6be7fd49342c44be90ac2,0.0513,0.0514,1,13,175,60,1,threeone,,,,,,,,,,,,,,,,,,,,,,,,,,,,,,,,,,,,,,,,,,,,,,,,,,,,,,,,,,,,,,,,,,,,,,,,,,,,,,,,,,,,,,,,,,,,,,,,,,,,,,,,,,,,,,,,,,,,,,,,,,,,,,,,,,,,,,,,,
,,5b16adc0388d8b00014fa3a0,2024-02-21_21h25.01.727,kallum_motion_pilot,2023.2.2,Win32,144.9275362,5b16adc0388d8b00014fa3a0,65d6bb0e977760de756971f7,65d6be7fd49342c44be90ac2,0.0515,0.0515,1,14,176,73,1,onethree,,,,,,,,,,,,,,,,,,,,,,,,,,,,,,,,,,,,,,,,,,,,,,,,,,,,,,,,,,,,,,,,,,,,,,,,,,,,,,,,,,,,,,,,,,,,,,,,,,,,,,,,,,,,,,,,,,,,,,,,,,,,,,,,,,,,,,,,,
,,5b16adc0388d8b00014fa3a0,2024-02-21_21h25.01.727,kallum_motion_pilot,2023.2.2,Win32,144.9275362,5b16adc0388d8b00014fa3a0,65d6bb0e977760de756971f7,65d6be7fd49342c44be90ac2,0.0516,0.0517,1,15,177,68,1,threeone,,,,,,,,,,,,,,,,,,,,,,,,,,,,,,,,,,,,,,,,,,,,,,,,,,,,,,,,,,,,,,,,,,,,,,,,,,,,,,,,,,,,,,,,,,,,,,,,,,,,,,,,,,,,,,,,,,,,,,,,,,,,,,,,,,,,,,,,,
,,5b16adc0388d8b00014fa3a0,2024-02-21_21h25.01.727,kallum_motion_pilot,2023.2.2,Win32,144.9275362,5b16adc0388d8b00014fa3a0,65d6bb0e977760de756971f7,65d6be7fd49342c44be90ac2,0.0517,0.0518,1,16,178,7,1,fourthree,,,,,,,,,,,,,,,,,,,,,,,,,,,,,,,,,,,,,,,,,,,,,,,,,,,,,,,,,,,,,,,,,,,,,,,,,,,,,,,,,,,,,,,,,,,,,,,,,,,,,,,,,,,,,,,,,,,,,,,,,,,,,,,,,,,,,,,,,
,,5b16adc0388d8b00014fa3a0,2024-02-21_21h25.01.727,kallum_motion_pilot,2023.2.2,Win32,144.9275362,5b16adc0388d8b00014fa3a0,65d6bb0e977760de756971f7,65d6be7fd49342c44be90ac2,0.0519,0.0519,1,17,179,125,1,seveneight,,,,,,,,,,,,,,,,,,,,,,,,,,,,,,,,,,,,,,,,,,,,,,,,,,,,,,,,,,,,,,,,,,,,,,,,,,,,,,,,,,,,,,,,,,,,,,,,,,,,,,,,,,,,,,,,,,,,,,,,,,,,,,,,,,,,,,,,,
,,5b16adc0388d8b00014fa3a0,2024-02-21_21h25.01.727,kallum_motion_pilot,2023.2.2,Win32,144.9275362,5b16adc0388d8b00014fa3a0,65d6bb0e977760de756971f7,65d6be7fd49342c44be90ac2,0.052,0.052,1,18,180,126,1,eightsix,,,,,,,,,,,,,,,,,,,,,,,,,,,,,,,,,,,,,,,,,,,,,,,,,,,,,,,,,,,,,,,,,,,,,,,,,,,,,,,,,,,,,,,,,,,,,,,,,,,,,,,,,,,,,,,,,,,,,,,,,,,,,,,,,,,,,,,,,
,,5b16adc0388d8b00014fa3a0,2024-02-21_21h25.01.727,kallum_motion_pilot,2023.2.2,Win32,144.9275362,5b16adc0388d8b00014fa3a0,65d6bb0e977760de756971f7,65d6be7fd49342c44be90ac2,0.0521,0.0522,1,19,181,123,1,sixeight,,,,,,,,,,,,,,,,,,,,,,,,,,,,,,,,,,,,,,,,,,,,,,,,,,,,,,,,,,,,,,,,,,,,,,,,,,,,,,,,,,,,,,,,,,,,,,,,,,,,,,,,,,,,,,,,,,,,,,,,,,,,,,,,,,,,,,,,,
,,5b16adc0388d8b00014fa3a0,2024-02-21_21h25.01.727,kallum_motion_pilot,2023.2.2,Win32,144.9275362,5b16adc0388d8b00014fa3a0,65d6bb0e977760de756971f7,65d6be7fd49342c44be90ac2,0.0523,0.0524,1,20,182,122,1,sixfive,,,,,,,,,,,,,,,,,,,,,,,,,,,,,,,,,,,,,,,,,,,,,,,,,,,,,,,,,,,,,,,,,,,,,,,,,,,,,,,,,,,,,,,,,,,,,,,,,,,,,,,,,,,,,,,,,,,,,,,,,,,,,,,,,,,,,,,,,
,,5b16adc0388d8b00014fa3a0,2024-02-21_21h25.01.727,kallum_motion_pilot,2023.2.2,Win32,144.9275362,5b16adc0388d8b00014fa3a0,65d6bb0e977760de756971f7,65d6be7fd49342c44be90ac2,0.0524,0.0525,1,21,183,24,1,onetwo,,,,,,,,,,,,,,,,,,,,,,,,,,,,,,,,,,,,,,,,,,,,,,,,,,,,,,,,,,,,,,,,,,,,,,,,,,,,,,,,,,,,,,,,,,,,,,,,,,,,,,,,,,,,,,,,,,,,,,,,,,,,,,,,,,,,,,,,,
,,5b16adc0388d8b00014fa3a0,2024-02-21_21h25.01.727,kallum_motion_pilot,2023.2.2,Win32,144.9275362,5b16adc0388d8b00014fa3a0,65d6bb0e977760de756971f7,65d6be7fd49342c44be90ac2,0.0527,0.0528,1,22,184,159,1,eightseven,,,,,,,,,,,,,,,,,,,,,,,,,,,,,,,,,,,,,,,,,,,,,,,,,,,,,,,,,,,,,,,,,,,,,,,,,,,,,,,,,,,,,,,,,,,,,,,,,,,,,,,,,,,,,,,,,,,,,,,,,,,,,,,,,,,,,,,,,
,,5b16adc0388d8b00014fa3a0,2024-02-21_21h25.01.727,kallum_motion_pilot,2023.2.2,Win32,144.9275362,5b16adc0388d8b00014fa3a0,65d6bb0e977760de756971f7,65d6be7fd49342c44be90ac2,0.0529,0.0529,1,23,185,143,1,eightseven,,,,,,,,,,,,,,,,,,,,,,,,,,,,,,,,,,,,,,,,,,,,,,,,,,,,,,,,,,,,,,,,,,,,,,,,,,,,,,,,,,,,,,,,,,,,,,,,,,,,,,,,,,,,,,,,,,,,,,,,,,,,,,,,,,,,,,,,,
,,5b16adc0388d8b00014fa3a0,2024-02-21_21h25.01.727,kallum_motion_pilot,2023.2.2,Win32,144.9275362,5b16adc0388d8b00014fa3a0,65d6bb0e977760de756971f7,65d6be7fd49342c44be90ac2,0.053,0.0531,1,24,186,142,1,eightsix,,,,,,,,,,,,,,,,,,,,,,,,,,,,,,,,,,,,,,,,,,,,,,,,,,,,,,,,,,,,,,,,,,,,,,,,,,,,,,,,,,,,,,,,,,,,,,,,,,,,,,,,,,,,,,,,,,,,,,,,,,,,,,,,,,,,,,,,,
,,5b16adc0388d8b00014fa3a0,2024-02-21_21h25.01.727,kallum_motion_pilot,2023.2.2,Win32,144.9275362,5b16adc0388d8b00014fa3a0,65d6bb0e977760de756971f7,65d6be7fd49342c44be90ac2,0.0532,0.0533,1,25,187,144,1,fivesix,,,,,,,,,,,,,,,,,,,,,,,,,,,,,,,,,,,,,,,,,,,,,,,,,,,,,,,,,,,,,,,,,,,,,,,,,,,,,,,,,,,,,,,,,,,,,,,,,,,,,,,,,,,,,,,,,,,,,,,,,,,,,,,,,,,,,,,,,
,,5b16adc0388d8b00014fa3a0,2024-02-21_21h25.01.727,kallum_motion_pilot,2023.2.2,Win32,144.9275362,5b16adc0388d8b00014fa3a0,65d6bb0e977760de756971f7,65d6be7fd49342c44be90ac2,0.0534,0.0534,1,26,188,71,1,fourthree,,,,,,,,,,,,,,,,,,,,,,,,,,,,,,,,,,,,,,,,,,,,,,,,,,,,,,,,,,,,,,,,,,,,,,,,,,,,,,,,,,,,,,,,,,,,,,,,,,,,,,,,,,,,,,,,,,,,,,,,,,,,,,,,,,,,,,,,,
,,5b16adc0388d8b00014fa3a0,2024-02-21_21h25.01.727,kallum_motion_pilot,2023.2.2,Win32,144.9275362,5b16adc0388d8b00014fa3a0,65d6bb0e977760de756971f7,65d6be7fd49342c44be90ac2,0.0535,0.0537,1,27,189,90,1,sixfive,,,,,,,,,,,,,,,,,,,,,,,,,,,,,,,,,,,,,,,,,,,,,,,,,,,,,,,,,,,,,,,,,,,,,,,,,,,,,,,,,,,,,,,,,,,,,,,,,,,,,,,,,,,,,,,,,,,,,,,,,,,,,,,,,,,,,,,,,
,,5b16adc0388d8b00014fa3a0,2024-02-21_21h25.01.727,kallum_motion_pilot,2023.2.2,Win32,144.9275362,5b16adc0388d8b00014fa3a0,65d6bb0e977760de756971f7,65d6be7fd49342c44be90ac2,0.0537,0.0537,1,28,190,91,1,sixeight,,,,,,,,,,,,,,,,,,,,,,,,,,,,,,,,,,,,,,,,,,,,,,,,,,,,,,,,,,,,,,,,,,,,,,,,,,,,,,,,,,,,,,,,,,,,,,,,,,,,,,,,,,,,,,,,,,,,,,,,,,,,,,,,,,,,,,,,,
,,5b16adc0388d8b00014fa3a0,2024-02-21_21h25.01.727,kallum_motion_pilot,2023.2.2,Win32,144.9275362,5b16adc0388d8b00014fa3a0,65d6bb0e977760de756971f7,65d6be7fd49342c44be90ac2,0.0539,0.0539,1,29,191,26,1,twoone,,,,,,,,,,,,,,,,,,,,,,,,,,,,,,,,,,,,,,,,,,,,,,,,,,,,,,,,,,,,,,,,,,,,,,,,,,,,,,,,,,,,,,,,,,,,,,,,,,,,,,,,,,,,,,,,,,,,,,,,,,,,,,,,,,,,,,,,,
,,5b16adc0388d8b00014fa3a0,2024-02-21_21h25.01.727,kallum_motion_pilot,2023.2.2,Win32,144.9275362,5b16adc0388d8b00014fa3a0,65d6bb0e977760de756971f7,65d6be7fd49342c44be90ac2,0.054,0.0541,1,30,192,116,1,sevenfive,,,,,,,,,,,,,,,,,,,,,,,,,,,,,,,,,,,,,,,,,,,,,,,,,,,,,,,,,,,,,,,,,,,,,,,,,,,,,,,,,,,,,,,,,,,,,,,,,,,,,,,,,,,,,,,,,,,,,,,,,,,,,,,,,,,,,,,,,
,,5b16adc0388d8b00014fa3a0,2024-02-21_21h25.01.727,kallum_motion_pilot,2023.2.2,Win32,144.9275362,5b16adc0388d8b00014fa3a0,65d6bb0e977760de756971f7,65d6be7fd49342c44be90ac2,0.0542,0.0543,1,31,193,76,1,threeone,,,,,,,,,,,,,,,,,,,,,,,,,,,,,,,,,,,,,,,,,,,,,,,,,,,,,,,,,,,,,,,,,,,,,,,,,,,,,,,,,,,,,,,,,,,,,,,,,,,,,,,,,,,,,,,,,,,,,,,,,,,,,,,,,,,,,,,,,
,,5b16adc0388d8b00014fa3a0,2024-02-21_21h25.01.727,kallum_motion_pilot,2023.2.2,Win32,144.9275362,5b16adc0388d8b00014fa3a0,65d6bb0e977760de756971f7,65d6be7fd49342c44be90ac2,0.0544,0.0545,1,32,194,78,1,fourtwo,,,,,,,,,,,,,,,,,,,,,,,,,,,,,,,,,,,,,,,,,,,,,,,,,,,,,,,,,,,,,,,,,,,,,,,,,,,,,,,,,,,,,,,,,,,,,,,,,,,,,,,,,,,,,,,,,,,,,,,,,,,,,,,,,,,,,,,,,
,,5b16adc0388d8b00014fa3a0,2024-02-21_21h25.01.727,kallum_motion_pilot,2023.2.2,Win32,144.9275362,5b16adc0388d8b00014fa3a0,65d6bb0e977760de756971f7,65d6be7fd49342c44be90ac2,0.0545,0.0546,1,33,195,160,1,fivesix,,,,,,,,,,,,,,,,,,,,,,,,,,,,,,,,,,,,,,,,,,,,,,,,,,,,,,,,,,,,,,,,,,,,,,,,,,,,,,,,,,,,,,,,,,,,,,,,,,,,,,,,,,,,,,,,,,,,,,,,,,,,,,,,,,,,,,,,,
,,5b16adc0388d8b00014fa3a0,2024-02-21_21h25.01.727,kallum_motion_pilot,2023.2.2,Win32,144.9275362,5b16adc0388d8b00014fa3a0,65d6bb0e977760de756971f7,65d6be7fd49342c44be90ac2,0.0547,0.0549,1,34,196,101,1,seveneight,,,,,,,,,,,,,,,,,,,,,,,,,,,,,,,,,,,,,,,,,,,,,,,,,,,,,,,,,,,,,,,,,,,,,,,,,,,,,,,,,,,,,,,,,,,,,,,,,,,,,,,,,,,,,,,,,,,,,,,,,,,,,,,,,,,,,,,,,
,,5b16adc0388d8b00014fa3a0,2024-02-21_21h25.01.727,kallum_motion_pilot,2023.2.2,Win32,144.9275362,5b16adc0388d8b00014fa3a0,65d6bb0e977760de756971f7,65d6be7fd49342c44be90ac2,0.0549,0.055,1,35,197,161,1,fiveseven,,,,,,,,,,,,,,,,,,,,,,,,,,,,,,,,,,,,,,,,,,,,,,,,,,,,,,,,,,,,,,,,,,,,,,,,,,,,,,,,,,,,,,,,,,,,,,,,,,,,,,,,,,,,,,,,,,,,,,,,,,,,,,,,,,,,,,,,,
,,5b16adc0388d8b00014fa3a0,2024-02-21_21h25.01.727,kallum_motion_pilot,2023.2.2,Win32,144.9275362,5b16adc0388d8b00014fa3a0,65d6bb0e977760de756971f7,65d6be7fd49342c44be90ac2,0.0551,0.0552,1,36,198,117,1,seveneight,,,,,,,,,,,,,,,,,,,,,,,,,,,,,,,,,,,,,,,,,,,,,,,,,,,,,,,,,,,,,,,,,,,,,,,,,,,,,,,,,,,,,,,,,,,,,,,,,,,,,,,,,,,,,,,,,,,,,,,,,,,,,,,,,,,,,,,,,
,,5b16adc0388d8b00014fa3a0,2024-02-21_21h25.01.727,kallum_motion_pilot,2023.2.2,Win32,144.9275362,5b16adc0388d8b00014fa3a0,65d6bb0e977760de756971f7,65d6be7fd49342c44be90ac2,0.0552,0.0554,1,37,199,22,1,fourtwo,,,,,,,,,,,,,,,,,,,,,,,,,,,,,,,,,,,,,,,,,,,,,,,,,,,,,,,,,,,,,,,,,,,,,,,,,,,,,,,,,,,,,,,,,,,,,,,,,,,,,,,,,,,,,,,,,,,,,,,,,,,,,,,,,,,,,,,,,
,,5b16adc0388d8b00014fa3a0,2024-02-21_21h25.01.727,kallum_motion_pilot,2023.2.2,Win32,144.9275362,5b16adc0388d8b00014fa3a0,65d6bb0e977760de756971f7,65d6be7fd49342c44be90ac2,0.0555,0.0555,1,38,200,10,1,twoone,,,,,,,,,,,,,,,,,,,,,,,,,,,,,,,,,,,,,,,,,,,,,,,,,,,,,,,,,,,,,,,,,,,,,,,,,,,,,,,,,,,,,,,,,,,,,,,,,,,,,,,,,,,,,,,,,,,,,,,,,,,,,,,,,,,,,,,,,
,,5b16adc0388d8b00014fa3a0,2024-02-21_21h25.01.727,kallum_motion_pilot,2023.2.2,Win32,144.9275362,5b16adc0388d8b00014fa3a0,65d6bb0e977760de756971f7,65d6be7fd49342c44be90ac2,0.0556,0.0558,1,39,201,139,1,sixeight,,,,,,,,,,,,,,,,,,,,,,,,,,,,,,,,,,,,,,,,,,,,,,,,,,,,,,,,,,,,,,,,,,,,,,,,,,,,,,,,,,,,,,,,,,,,,,,,,,,,,,,,,,,,,,,,,,,,,,,,,,,,,,,,,,,,,,,,,
,,5b16adc0388d8b00014fa3a0,2024-02-21_21h25.01.727,kallum_motion_pilot,2023.2.2,Win32,144.9275362,5b16adc0388d8b00014fa3a0,65d6bb0e977760de756971f7,65d6be7fd49342c44be90ac2,0.056,0.0561,1,40,202,12,1,threeone,,,,,,,,,,,,,,,,,,,,,,,,,,,,,,,,,,,,,,,,,,,,,,,,,,,,,,,,,,,,,,,,,,,,,,,,,,,,,,,,,,,,,,,,,,,,,,,,,,,,,,,,,,,,,,,,,,,,,,,,,,,,,,,,,,,,,,,,,
,,5b16adc0388d8b00014fa3a0,2024-02-21_21h25.01.727,kallum_motion_pilot,2023.2.2,Win32,144.9275362,5b16adc0388d8b00014fa3a0,65d6bb0e977760de756971f7,65d6be7fd49342c44be90ac2,0.0563,0.0563,1,41,203,112,1,fivesix,,,,,,,,,,,,,,,,,,,,,,,,,,,,,,,,,,,,,,,,,,,,,,,,,,,,,,,,,,,,,,,,,,,,,,,,,,,,,,,,,,,,,,,,,,,,,,,,,,,,,,,,,,,,,,,,,,,,,,,,,,,,,,,,,,,,,,,,,
,,5b16adc0388d8b00014fa3a0,2024-02-21_21h25.01.727,kallum_motion_pilot,2023.2.2,Win32,144.9275362,5b16adc0388d8b00014fa3a0,65d6bb0e977760de756971f7,65d6be7fd49342c44be90ac2,0.0565,0.0566,1,42,204,54,1,fourtwo,,,,,,,,,,,,,,,,,,,,,,,,,,,,,,,,,,,,,,,,,,,,,,,,,,,,,,,,,,,,,,,,,,,,,,,,,,,,,,,,,,,,,,,,,,,,,,,,,,,,,,,,,,,,,,,,,,,,,,,,,,,,,,,,,,,,,,,,,
,,5b16adc0388d8b00014fa3a0,2024-02-21_21h25.01.727,kallum_motion_pilot,2023.2.2,Win32,144.9275362,5b16adc0388d8b00014fa3a0,65d6bb0e977760de756971f7,65d6be7fd49342c44be90ac2,0.0567,0.0568,1,43,205,67,1,twofour,,,,,,,,,,,,,,,,,,,,,,,,,,,,,,,,,,,,,,,,,,,,,,,,,,,,,,,,,,,,,,,,,,,,,,,,,,,,,,,,,,,,,,,,,,,,,,,,,,,,,,,,,,,,,,,,,,,,,,,,,,,,,,,,,,,,,,,,,
,,5b16adc0388d8b00014fa3a0,2024-02-21_21h25.01.727,kallum_motion_pilot,2023.2.2,Win32,144.9275362,5b16adc0388d8b00014fa3a0,65d6bb0e977760de756971f7,65d6be7fd49342c44be90ac2,0.0569,0.057,1,44,206,70,1,fourtwo,,,,,,,,,,,,,,,,,,,,,,,,,,,,,,,,,,,,,,,,,,,,,,,,,,,,,,,,,,,,,,,,,,,,,,,,,,,,,,,,,,,,,,,,,,,,,,,,,,,,,,,,,,,,,,,,,,,,,,,,,,,,,,,,,,,,,,,,,
,,5b16adc0388d8b00014fa3a0,2024-02-21_21h25.01.727,kallum_motion_pilot,2023.2.2,Win32,144.9275362,5b16adc0388d8b00014fa3a0,65d6bb0e977760de756971f7,65d6be7fd49342c44be90ac2,0.0571,0.0572,1,45,207,30,1,fourtwo,,,,,,,,,,,,,,,,,,,,,,,,,,,,,,,,,,,,,,,,,,,,,,,,,,,,,,,,,,,,,,,,,,,,,,,,,,,,,,,,,,,,,,,,,,,,,,,,,,,,,,,,,,,,,,,,,,,,,,,,,,,,,,,,,,,,,,,,,
,,5b16adc0388d8b00014fa3a0,2024-02-21_21h25.01.727,kallum_motion_pilot,2023.2.2,Win32,144.9275362,5b16adc0388d8b00014fa3a0,65d6bb0e977760de756971f7,65d6be7fd49342c44be90ac2,0.0573,0.0575,1,46,208,93,1,seveneight,,,,,,,,,,,,,,,,,,,,,,,,,,,,,,,,,,,,,,,,,,,,,,,,,,,,,,,,,,,,,,,,,,,,,,,,,,,,,,,,,,,,,,,,,,,,,,,,,,,,,,,,,,,,,,,,,,,,,,,,,,,,,,,,,,,,,,,,,
,,5b16adc0388d8b00014fa3a0,2024-02-21_21h25.01.727,kallum_motion_pilot,2023.2.2,Win32,144.9275362,5b16adc0388d8b00014fa3a0,65d6bb0e977760de756971f7,65d6be7fd49342c44be90ac2,0.0576,0.0577,1,47,209,11,1,twofour,,,,,,,,,,,,,,,,,,,,,,,,,,,,,,,,,,,,,,,,,,,,,,,,,,,,,,,,,,,,,,,,,,,,,,,,,,,,,,,,,,,,,,,,,,,,,,,,,,,,,,,,,,,,,,,,,,,,,,,,,,,,,,,,,,,,,,,,,
,,5b16adc0388d8b00014fa3a0,2024-02-21_21h25.01.727,kallum_motion_pilot,2023.2.2,Win32,144.9275362,5b16adc0388d8b00014fa3a0,65d6bb0e977760de756971f7,65d6be7fd49342c44be90ac2,0.0578,0.0579,1,48,210,16,1,onetwo,,,,,,,,,,,,,,,,,,,,,,,,,,,,,,,,,,,,,,,,,,,,,,,,,,,,,,,,,,,,,,,,,,,,,,,,,,,,,,,,,,,,,,,,,,,,,,,,,,,,,,,,,,,,,,,,,,,,,,,,,,,,,,,,,,,,,,,,,
,,5b16adc0388d8b00014fa3a0,2024-02-21_21h25.01.727,kallum_motion_pilot,2023.2.2,Win32,144.9275362,5b16adc0388d8b00014fa3a0,65d6bb0e977760de756971f7,65d6be7fd49342c44be90ac2,0.058,0.0581,1,49,211,5,1,threefour,,,,,,,,,,,,,,,,,,,,,,,,,,,,,,,,,,,,,,,,,,,,,,,,,,,,,,,,,,,,,,,,,,,,,,,,,,,,,,,,,,,,,,,,,,,,,,,,,,,,,,,,,,,,,,,,,,,,,,,,,,,,,,,,,,,,,,,,,
,,5b16adc0388d8b00014fa3a0,2024-02-21_21h25.01.727,kallum_motion_pilot,2023.2.2,Win32,144.9275362,5b16adc0388d8b00014fa3a0,65d6bb0e977760de756971f7,65d6be7fd49342c44be90ac2,0.0582,0.0583,1,50,212,130,1,sixfive,,,,,,,,,,,,,,,,,,,,,,,,,,,,,,,,,,,,,,,,,,,,,,,,,,,,,,,,,,,,,,,,,,,,,,,,,,,,,,,,,,,,,,,,,,,,,,,,,,,,,,,,,,,,,,,,,,,,,,,,,,,,,,,,,,,,,,,,,
,,5b16adc0388d8b00014fa3a0,2024-02-21_21h25.01.727,kallum_motion_pilot,2023.2.2,Win32,144.9275362,5b16adc0388d8b00014fa3a0,65d6bb0e977760de756971f7,65d6be7fd49342c44be90ac2,0.0584,0.0585,1,51,213,62,1,fourtwo,,,,,,,,,,,,,,,,,,,,,,,,,,,,,,,,,,,,,,,,,,,,,,,,,,,,,,,,,,,,,,,,,,,,,,,,,,,,,,,,,,,,,,,,,,,,,,,,,,,,,,,,,,,,,,,,,,,,,,,,,,,,,,,,,,,,,,,,,
,,5b16adc0388d8b00014fa3a0,2024-02-21_21h25.01.727,kallum_motion_pilot,2023.2.2,Win32,144.9275362,5b16adc0388d8b00014fa3a0,65d6bb0e977760de756971f7,65d6be7fd49342c44be90ac2,0.0586,0.0587,1,52,214,145,1,fiveseven,,,,,,,,,,,,,,,,,,,,,,,,,,,,,,,,,,,,,,,,,,,,,,,,,,,,,,,,,,,,,,,,,,,,,,,,,,,,,,,,,,,,,,,,,,,,,,,,,,,,,,,,,,,,,,,,,,,,,,,,,,,,,,,,,,,,,,,,,
,,5b16adc0388d8b00014fa3a0,2024-02-21_21h25.01.727,kallum_motion_pilot,2023.2.2,Win32,144.9275362,5b16adc0388d8b00014fa3a0,65d6bb0e977760de756971f7,65d6be7fd49342c44be90ac2,0.0588,0.0589,1,53,215,9,1,onethree,,,,,,,,,,,,,,,,,,,,,,,,,,,,,,,,,,,,,,,,,,,,,,,,,,,,,,,,,,,,,,,,,,,,,,,,,,,,,,,,,,,,,,,,,,,,,,,,,,,,,,,,,,,,,,,,,,,,,,,,,,,,,,,,,,,,,,,,,
,,5b16adc0388d8b00014fa3a0,2024-02-21_21h25.01.727,kallum_motion_pilot,2023.2.2,Win32,144.9275362,5b16adc0388d8b00014fa3a0,65d6bb0e977760de756971f7,65d6be7fd49342c44be90ac2,0.059,0.0591,1,54,216,23,1,fourthree,,,,,,,,,,,,,,,,,,,,,,,,,,,,,,,,,,,,,,,,,,,,,,,,,,,,,,,,,,,,,,,,,,,,,,,,,,,,,,,,,,,,,,,,,,,,,,,,,,,,,,,,,,,,,,,,,,,,,,,,,,,,,,,,,,,,,,,,,
,,5b16adc0388d8b00014fa3a0,2024-02-21_21h25.01.727,kallum_motion_pilot,2023.2.2,Win32,144.9275362,5b16adc0388d8b00014fa3a0,65d6bb0e977760de756971f7,65d6be7fd49342c44be90ac2,0.0592,0.0593,1,55,217,138,1,sixfive,,,,,,,,,,,,,,,,,,,,,,,,,,,,,,,,,,,,,,,,,,,,,,,,,,,,,,,,,,,,,,,,,,,,,,,,,,,,,,,,,,,,,,,,,,,,,,,,,,,,,,,,,,,,,,,,,,,,,,,,,,,,,,,,,,,,,,,,,
,,5b16adc0388d8b00014fa3a0,2024-02-21_21h25.01.727,kallum_motion_pilot,2023.2.2,Win32,144.9275362,5b16adc0388d8b00014fa3a0,65d6bb0e977760de756971f7,65d6be7fd49342c44be90ac2,0.0594,0.0595,1,56,218,46,1,fourtwo,,,,,,,,,,,,,,,,,,,,,,,,,,,,,,,,,,,,,,,,,,,,,,,,,,,,,,,,,,,,,,,,,,,,,,,,,,,,,,,,,,,,,,,,,,,,,,,,,,,,,,,,,,,,,,,,,,,,,,,,,,,,,,,,,,,,,,,,,
,,5b16adc0388d8b00014fa3a0,2024-02-21_21h25.01.727,kallum_motion_pilot,2023.2.2,Win32,144.9275362,5b16adc0388d8b00014fa3a0,65d6bb0e977760de756971f7,65d6be7fd49342c44be90ac2,0.0596,0.0597,1,57,219,57,1,onethree,,,,,,,,,,,,,,,,,,,,,,,,,,,,,,,,,,,,,,,,,,,,,,,,,,,,,,,,,,,,,,,,,,,,,,,,,,,,,,,,,,,,,,,,,,,,,,,,,,,,,,,,,,,,,,,,,,,,,,,,,,,,,,,,,,,,,,,,,
,,5b16adc0388d8b00014fa3a0,2024-02-21_21h25.01.727,kallum_motion_pilot,2023.2.2,Win32,144.9275362,5b16adc0388d8b00014fa3a0,65d6bb0e977760de756971f7,65d6be7fd49342c44be90ac2,0.0598,0.06,1,58,220,40,1,onetwo,,,,,,,,,,,,,,,,,,,,,,,,,,,,,,,,,,,,,,,,,,,,,,,,,,,,,,,,,,,,,,,,,,,,,,,,,,,,,,,,,,,,,,,,,,,,,,,,,,,,,,,,,,,,,,,,,,,,,,,,,,,,,,,,,,,,,,,,,
,,5b16adc0388d8b00014fa3a0,2024-02-21_21h25.01.727,kallum_motion_pilot,2023.2.2,Win32,144.9275362,5b16adc0388d8b00014fa3a0,65d6bb0e977760de756971f7,65d6be7fd49342c44be90ac2,0.0601,0.0601,1,59,221,75,1,twofour,,,,,,,,,,,,,,,,,,,,,,,,,,,,,,,,,,,,,,,,,,,,,,,,,,,,,,,,,,,,,,,,,,,,,,,,,,,,,,,,,,,,,,,,,,,,,,,,,,,,,,,,,,,,,,,,,,,,,,,,,,,,,,,,,,,,,,,,,
,,5b16adc0388d8b00014fa3a0,2024-02-21_21h25.01.727,kallum_motion_pilot,2023.2.2,Win32,144.9275362,5b16adc0388d8b00014fa3a0,65d6bb0e977760de756971f7,65d6be7fd49342c44be90ac2,0.0603,0.0604,1,60,222,108,1,sevenfive,,,,,,,,,,,,,,,,,,,,,,,,,,,,,,,,,,,,,,,,,,,,,,,,,,,,,,,,,,,,,,,,,,,,,,,,,,,,,,,,,,,,,,,,,,,,,,,,,,,,,,,,,,,,,,,,,,,,,,,,,,,,,,,,,,,,,,,,,
,,5b16adc0388d8b00014fa3a0,2024-02-21_21h25.01.727,kallum_motion_pilot,2023.2.2,Win32,144.9275362,5b16adc0388d8b00014fa3a0,65d6bb0e977760de756971f7,65d6be7fd49342c44be90ac2,0.0605,0.0606,1,61,223,8,1,onetwo,,,,,,,,,,,,,,,,,,,,,,,,,,,,,,,,,,,,,,,,,,,,,,,,,,,,,,,,,,,,,,,,,,,,,,,,,,,,,,,,,,,,,,,,,,,,,,,,,,,,,,,,,,,,,,,,,,,,,,,,,,,,,,,,,,,,,,,,,
,,5b16adc0388d8b00014fa3a0,2024-02-21_21h25.01.727,kallum_motion_pilot,2023.2.2,Win32,144.9275362,5b16adc0388d8b00014fa3a0,65d6bb0e977760de756971f7,65d6be7fd49342c44be90ac2,0.0607,0.0608,1,62,224,61,1,threefour,,,,,,,,,,,,,,,,,,,,,,,,,,,,,,,,,,,,,,,,,,,,,,,,,,,,,,,,,,,,,,,,,,,,,,,,,,,,,,,,,,,,,,,,,,,,,,,,,,,,,,,,,,,,,,,,,,,,,,,,,,,,,,,,,,,,,,,,,
,,5b16adc0388d8b00014fa3a0,2024-02-21_21h25.01.727,kallum_motion_pilot,2023.2.2,Win32,144.9275362,5b16adc0388d8b00014fa3a0,65d6bb0e977760de756971f7,65d6be7fd49342c44be90ac2,0.0609,0.061,1,63,225,152,1,fivesix,,,,,,,,,,,,,,,,,,,,,,,,,,,,,,,,,,,,,,,,,,,,,,,,,,,,,,,,,,,,,,,,,,,,,,,,,,,,,,,,,,,,,,,,,,,,,,,,,,,,,,,,,,,,,,,,,,,,,,,,,,,,,,,,,,,,,,,,,
,,5b16adc0388d8b00014fa3a0,2024-02-21_21h25.01.727,kallum_motion_pilot,2023.2.2,Win32,144.9275362,5b16adc0388d8b00014fa3a0,65d6bb0e977760de756971f7,65d6be7fd49342c44be90ac2,0.0611,0.0613,1,64,226,109,1,seveneight,,,,,,,,,,,,,,,,,,,,,,,,,,,,,,,,,,,,,,,,,,,,,,,,,,,,,,,,,,,,,,,,,,,,,,,,,,,,,,,,,,,,,,,,,,,,,,,,,,,,,,,,,,,,,,,,,,,,,,,,,,,,,,,,,,,,,,,,,
,,5b16adc0388d8b00014fa3a0,2024-02-21_21h25.01.727,kallum_motion_pilot,2023.2.2,Win32,144.9275362,5b16adc0388d8b00014fa3a0,65d6bb0e977760de756971f7,65d6be7fd49342c44be90ac2,0.0616,0.0617,1,65,227,51,1,twofour,,,,,,,,,,,,,,,,,,,,,,,,,,,,,,,,,,,,,,,,,,,,,,,,,,,,,,,,,,,,,,,,,,,,,,,,,,,,,,,,,,,,,,,,,,,,,,,,,,,,,,,,,,,,,,,,,,,,,,,,,,,,,,,,,,,,,,,,,
,,5b16adc0388d8b00014fa3a0,2024-02-21_21h25.01.727,kallum_motion_pilot,2023.2.2,Win32,144.9275362,5b16adc0388d8b00014fa3a0,65d6bb0e977760de756971f7,65d6be7fd49342c44be90ac2,0.0617,0.0618,1,66,228,129,1,fiveseven,,,,,,,,,,,,,,,,,,,,,,,,,,,,,,,,,,,,,,,,,,,,,,,,,,,,,,,,,,,,,,,,,,,,,,,,,,,,,,,,,,,,,,,,,,,,,,,,,,,,,,,,,,,,,,,,,,,,,,,,,,,,,,,,,,,,,,,,,
,,5b16adc0388d8b00014fa3a0,2024-02-21_21h25.01.727,kallum_motion_pilot,2023.2.2,Win32,144.9275362,5b16adc0388d8b00014fa3a0,65d6bb0e977760de756971f7,65d6be7fd49342c44be90ac2,0.0619,0.0619,1,67,229,89,1,fiveseven,,,,,,,,,,,,,,,,,,,,,,,,,,,,,,,,,,,,,,,,,,,,,,,,,,,,,,,,,,,,,,,,,,,,,,,,,,,,,,,,,,,,,,,,,,,,,,,,,,,,,,,,,,,,,,,,,,,,,,,,,,,,,,,,,,,,,,,,,
,,5b16adc0388d8b00014fa3a0,2024-02-21_21h25.01.727,kallum_motion_pilot,2023.2.2,Win32,144.9275362,5b16adc0388d8b00014fa3a0,65d6bb0e977760de756971f7,65d6be7fd49342c44be90ac2,0.062,0.0621,1,68,230,15,1,fourthree,,,,,,,,,,,,,,,,,,,,,,,,,,,,,,,,,,,,,,,,,,,,,,,,,,,,,,,,,,,,,,,,,,,,,,,,,,,,,,,,,,,,,,,,,,,,,,,,,,,,,,,,,,,,,,,,,,,,,,,,,,,,,,,,,,,,,,,,,
,,5b16adc0388d8b00014fa3a0,2024-02-21_21h25.01.727,kallum_motion_pilot,2023.2.2,Win32,144.9275362,5b16adc0388d8b00014fa3a0,65d6bb0e977760de756971f7,65d6be7fd49342c44be90ac2,0.0622,0.0623,1,69,231,77,1,threefour,,,,,,,,,,,,,,,,,,,,,,,,,,,,,,,,,,,,,,,,,,,,,,,,,,,,,,,,,,,,,,,,,,,,,,,,,,,,,,,,,,,,,,,,,,,,,,,,,,,,,,,,,,,,,,,,,,,,,,,,,,,,,,,,,,,,,,,,,
,,5b16adc0388d8b00014fa3a0,2024-02-21_21h25.01.727,kallum_motion_pilot,2023.2.2,Win32,144.9275362,5b16adc0388d8b00014fa3a0,65d6bb0e977760de756971f7,65d6be7fd49342c44be90ac2,0.0623,0.0624,1,70,232,72,1,onetwo,,,,,,,,,,,,,,,,,,,,,,,,,,,,,,,,,,,,,,,,,,,,,,,,,,,,,,,,,,,,,,,,,,,,,,,,,,,,,,,,,,,,,,,,,,,,,,,,,,,,,,,,,,,,,,,,,,,,,,,,,,,,,,,,,,,,,,,,,
,,5b16adc0388d8b00014fa3a0,2024-02-21_21h25.01.727,kallum_motion_pilot,2023.2.2,Win32,144.9275362,5b16adc0388d8b00014fa3a0,65d6bb0e977760de756971f7,65d6be7fd49342c44be90ac2,0.0624,0.0626,1,71,233,99,1,sixeight,,,,,,,,,,,,,,,,,,,,,,,,,,,,,,,,,,,,,,,,,,,,,,,,,,,,,,,,,,,,,,,,,,,,,,,,,,,,,,,,,,,,,,,,,,,,,,,,,,,,,,,,,,,,,,,,,,,,,,,,,,,,,,,,,,,,,,,,,
,,5b16adc0388d8b00014fa3a0,2024-02-21_21h25.01.727,kallum_motion_pilot,2023.2.2,Win32,144.9275362,5b16adc0388d8b00014fa3a0,65d6bb0e977760de756971f7,65d6be7fd49342c44be90ac2,0.0626,0.0628,1,72,234,21,1,threefour,,,,,,,,,,,,,,,,,,,,,,,,,,,,,,,,,,,,,,,,,,,,,,,,,,,,,,,,,,,,,,,,,,,,,,,,,,,,,,,,,,,,,,,,,,,,,,,,,,,,,,,,,,,,,,,,,,,,,,,,,,,,,,,,,,,,,,,,,
,,5b16adc0388d8b00014fa3a0,2024-02-21_21h25.01.727,kallum_motion_pilot,2023.2.2,Win32,144.9275362,5b16adc0388d8b00014fa3a0,65d6bb0e977760de756971f7,65d6be7fd49342c44be90ac2,0.063,0.0632,1,73,235,50,1,twoone,,,,,,,,,,,,,,,,,,,,,,,,,,,,,,,,,,,,,,,,,,,,,,,,,,,,,,,,,,,,,,,,,,,,,,,,,,,,,,,,,,,,,,,,,,,,,,,,,,,,,,,,,,,,,,,,,,,,,,,,,,,,,,,,,,,,,,,,,
,,5b16adc0388d8b00014fa3a0,2024-02-21_21h25.01.727,kallum_motion_pilot,2023.2.2,Win32,144.9275362,5b16adc0388d8b00014fa3a0,65d6bb0e977760de756971f7,65d6be7fd49342c44be90ac2,0.0633,0.0634,1,74,236,36,1,threeone,,,,,,,,,,,,,,,,,,,,,,,,,,,,,,,,,,,,,,,,,,,,,,,,,,,,,,,,,,,,,,,,,,,,,,,,,,,,,,,,,,,,,,,,,,,,,,,,,,,,,,,,,,,,,,,,,,,,,,,,,,,,,,,,,,,,,,,,,
,,5b16adc0388d8b00014fa3a0,2024-02-21_21h25.01.727,kallum_motion_pilot,2023.2.2,Win32,144.9275362,5b16adc0388d8b00014fa3a0,65d6bb0e977760de756971f7,65d6be7fd49342c44be90ac2,0.0634,0.0636,1,75,237,48,1,onetwo,,,,,,,,,,,,,,,,,,,,,,,,,,,,,,,,,,,,,,,,,,,,,,,,,,,,,,,,,,,,,,,,,,,,,,,,,,,,,,,,,,,,,,,,,,,,,,,,,,,,,,,,,,,,,,,,,,,,,,,,,,,,,,,,,,,,,,,,,
,,5b16adc0388d8b00014fa3a0,2024-02-21_21h25.01.727,kallum_motion_pilot,2023.2.2,Win32,144.9275362,5b16adc0388d8b00014fa3a0,65d6bb0e977760de756971f7,65d6be7fd49342c44be90ac2,0.0638,0.0639,1,76,238,56,1,onetwo,,,,,,,,,,,,,,,,,,,,,,,,,,,,,,,,,,,,,,,,,,,,,,,,,,,,,,,,,,,,,,,,,,,,,,,,,,,,,,,,,,,,,,,,,,,,,,,,,,,,,,,,,,,,,,,,,,,,,,,,,,,,,,,,,,,,,,,,,
,,5b16adc0388d8b00014fa3a0,2024-02-21_21h25.01.727,kallum_motion_pilot,2023.2.2,Win32,144.9275362,5b16adc0388d8b00014fa3a0,65d6bb0e977760de756971f7,65d6be7fd49342c44be90ac2,0.0641,0.0641,1,77,239,1,1,onethree,,,,,,,,,,,,,,,,,,,,,,,,,,,,,,,,,,,,,,,,,,,,,,,,,,,,,,,,,,,,,,,,,,,,,,,,,,,,,,,,,,,,,,,,,,,,,,,,,,,,,,,,,,,,,,,,,,,,,,,,,,,,,,,,,,,,,,,,,
,,5b16adc0388d8b00014fa3a0,2024-02-21_21h25.01.727,kallum_motion_pilot,2023.2.2,Win32,144.9275362,5b16adc0388d8b00014fa3a0,65d6bb0e977760de756971f7,65d6be7fd49342c44be90ac2,0.0643,0.0644,1,78,240,32,1,onetwo,,,,,,,,,,,,,,,,,,,,,,,,,,,,,,,,,,,,,,,,,,,,,,,,,,,,,,,,,,,,,,,,,,,,,,,,,,,,,,,,,,,,,,,,,,,,,,,,,,,,,,,,,,,,,,,,,,,,,,,,,,,,,,,,,,,,,,,,,
,,5b16adc0388d8b00014fa3a0,2024-02-21_21h25.01.727,kallum_motion_pilot,2023.2.2,Win32,144.9275362,5b16adc0388d8b00014fa3a0,65d6bb0e977760de756971f7,65d6be7fd49342c44be90ac2,0.0644,0.0646,1,79,241,158,1,eightsix,,,,,,,,,,,,,,,,,,,,,,,,,,,,,,,,,,,,,,,,,,,,,,,,,,,,,,,,,,,,,,,,,,,,,,,,,,,,,,,,,,,,,,,,,,,,,,,,,,,,,,,,,,,,,,,,,,,,,,,,,,,,,,,,,,,,,,,,,
,,5b16adc0388d8b00014fa3a0,2024-02-21_21h25.01.727,kallum_motion_pilot,2023.2.2,Win32,144.9275362,5b16adc0388d8b00014fa3a0,65d6bb0e977760de756971f7,65d6be7fd49342c44be90ac2,0.0646,0.0648,1,80,242,41,1,onethree,,,,,,,,,,,,,,,,,,,,,,,,,,,,,,,,,,,,,,,,,,,,,,,,,,,,,,,,,,,,,,,,,,,,,,,,,,,,,,,,,,,,,,,,,,,,,,,,,,,,,,,,,,,,,,,,,,,,,,,,,,,,,,,,,,,,,,,,,
,,5b16adc0388d8b00014fa3a0,2024-02-21_21h25.01.727,kallum_motion_pilot,2023.2.2,Win32,144.9275362,5b16adc0388d8b00014fa3a0,65d6bb0e977760de756971f7,65d6be7fd49342c44be90ac2,0.0649,0.065,1,81,243,28,1,threeone,,,,,,,,,,,,,,,,,,,,,,,,,,,,,,,,,,,,,,,,,,,,,,,,,,,,,,,,,,,,,,,,,,,,,,,,,,,,,,,,,,,,,,,,,,,,,,,,,,,,,,,,,,,,,,,,,,,,,,,,,,,,,,,,,,,,,,,,,
,,5b16adc0388d8b00014fa3a0,2024-02-21_21h25.01.727,kallum_motion_pilot,2023.2.2,Win32,144.9275362,5b16adc0388d8b00014fa3a0,65d6bb0e977760de756971f7,65d6be7fd49342c44be90ac2,0.0651,0.0652,1,82,244,53,1,threefour,,,,,,,,,,,,,,,,,,,,,,,,,,,,,,,,,,,,,,,,,,,,,,,,,,,,,,,,,,,,,,,,,,,,,,,,,,,,,,,,,,,,,,,,,,,,,,,,,,,,,,,,,,,,,,,,,,,,,,,,,,,,,,,,,,,,,,,,,
,,5b16adc0388d8b00014fa3a0,2024-02-21_21h25.01.727,kallum_motion_pilot,2023.2.2,Win32,144.9275362,5b16adc0388d8b00014fa3a0,65d6bb0e977760de756971f7,65d6be7fd49342c44be90ac2,0.0653,0.0655,1,83,245,33,1,onethree,,,,,,,,,,,,,,,,,,,,,,,,,,,,,,,,,,,,,,,,,,,,,,,,,,,,,,,,,,,,,,,,,,,,,,,,,,,,,,,,,,,,,,,,,,,,,,,,,,,,,,,,,,,,,,,,,,,,,,,,,,,,,,,,,,,,,,,,,
,,5b16adc0388d8b00014fa3a0,2024-02-21_21h25.01.727,kallum_motion_pilot,2023.2.2,Win32,144.9275362,5b16adc0388d8b00014fa3a0,65d6bb0e977760de756971f7,65d6be7fd49342c44be90ac2,0.0656,0.0657,1,84,246,156,1,sevenfive,,,,,,,,,,,,,,,,,,,,,,,,,,,,,,,,,,,,,,,,,,,,,,,,,,,,,,,,,,,,,,,,,,,,,,,,,,,,,,,,,,,,,,,,,,,,,,,,,,,,,,,,,,,,,,,,,,,,,,,,,,,,,,,,,,,,,,,,,
,,5b16adc0388d8b00014fa3a0,2024-02-21_21h25.01.727,kallum_motion_pilot,2023.2.2,Win32,144.9275362,5b16adc0388d8b00014fa3a0,65d6bb0e977760de756971f7,65d6be7fd49342c44be90ac2,0.0657,0.0658,1,85,247,13,1,threefour,,,,,,,,,,,,,,,,,,,,,,,,,,,,,,,,,,,,,,,,,,,,,,,,,,,,,,,,,,,,,,,,,,,,,,,,,,,,,,,,,,,,,,,,,,,,,,,,,,,,,,,,,,,,,,,,,,,,,,,,,,,,,,,,,,,,,,,,,
,,5b16adc0388d8b00014fa3a0,2024-02-21_21h25.01.727,kallum_motion_pilot,2023.2.2,Win32,144.9275362,5b16adc0388d8b00014fa3a0,65d6bb0e977760de756971f7,65d6be7fd49342c44be90ac2,0.0658,0.066,1,86,248,95,1,eightseven,,,,,,,,,,,,,,,,,,,,,,,,,,,,,,,,,,,,,,,,,,,,,,,,,,,,,,,,,,,,,,,,,,,,,,,,,,,,,,,,,,,,,,,,,,,,,,,,,,,,,,,,,,,,,,,,,,,,,,,,,,,,,,,,,,,,,,,,,
,,5b16adc0388d8b00014fa3a0,2024-02-21_21h25.01.727,kallum_motion_pilot,2023.2.2,Win32,144.9275362,5b16adc0388d8b00014fa3a0,65d6bb0e977760de756971f7,65d6be7fd49342c44be90ac2,0.066,0.0661,1,87,249,83,1,sixeight,,,,,,,,,,,,,,,,,,,,,,,,,,,,,,,,,,,,,,,,,,,,,,,,,,,,,,,,,,,,,,,,,,,,,,,,,,,,,,,,,,,,,,,,,,,,,,,,,,,,,,,,,,,,,,,,,,,,,,,,,,,,,,,,,,,,,,,,,
,,5b16adc0388d8b00014fa3a0,2024-02-21_21h25.01.727,kallum_motion_pilot,2023.2.2,Win32,144.9275362,5b16adc0388d8b00014fa3a0,65d6bb0e977760de756971f7,65d6be7fd49342c44be90ac2,0.0662,0.0662,1,88,250,157,1,seveneight,,,,,,,,,,,,,,,,,,,,,,,,,,,,,,,,,,,,,,,,,,,,,,,,,,,,,,,,,,,,,,,,,,,,,,,,,,,,,,,,,,,,,,,,,,,,,,,,,,,,,,,,,,,,,,,,,,,,,,,,,,,,,,,,,,,,,,,,,
,,5b16adc0388d8b00014fa3a0,2024-02-21_21h25.01.727,kallum_motion_pilot,2023.2.2,Win32,144.9275362,5b16adc0388d8b00014fa3a0,65d6bb0e977760de756971f7,65d6be7fd49342c44be90ac2,0.0663,0.0664,1,89,251,131,1,sixeight,,,,,,,,,,,,,,,,,,,,,,,,,,,,,,,,,,,,,,,,,,,,,,,,,,,,,,,,,,,,,,,,,,,,,,,,,,,,,,,,,,,,,,,,,,,,,,,,,,,,,,,,,,,,,,,,,,,,,,,,,,,,,,,,,,,,,,,,,
,,5b16adc0388d8b00014fa3a0,2024-02-21_21h25.01.727,kallum_motion_pilot,2023.2.2,Win32,144.9275362,5b16adc0388d8b00014fa3a0,65d6bb0e977760de756971f7,65d6be7fd49342c44be90ac2,0.0665,0.0666,1,90,252,14,1,fourtwo,,,,,,,,,,,,,,,,,,,,,,,,,,,,,,,,,,,,,,,,,,,,,,,,,,,,,,,,,,,,,,,,,,,,,,,,,,,,,,,,,,,,,,,,,,,,,,,,,,,,,,,,,,,,,,,,,,,,,,,,,,,,,,,,,,,,,,,,,
,,5b16adc0388d8b00014fa3a0,2024-02-21_21h25.01.727,kallum_motion_pilot,2023.2.2,Win32,144.9275362,5b16adc0388d8b00014fa3a0,65d6bb0e977760de756971f7,65d6be7fd49342c44be90ac2,0.0667,0.0667,1,91,253,120,1,fivesix,,,,,,,,,,,,,,,,,,,,,,,,,,,,,,,,,,,,,,,,,,,,,,,,,,,,,,,,,,,,,,,,,,,,,,,,,,,,,,,,,,,,,,,,,,,,,,,,,,,,,,,,,,,,,,,,,,,,,,,,,,,,,,,,,,,,,,,,,
,,5b16adc0388d8b00014fa3a0,2024-02-21_21h25.01.727,kallum_motion_pilot,2023.2.2,Win32,144.9275362,5b16adc0388d8b00014fa3a0,65d6bb0e977760de756971f7,65d6be7fd49342c44be90ac2,0.0668,0.0669,1,92,254,47,1,fourthree,,,,,,,,,,,,,,,,,,,,,,,,,,,,,,,,,,,,,,,,,,,,,,,,,,,,,,,,,,,,,,,,,,,,,,,,,,,,,,,,,,,,,,,,,,,,,,,,,,,,,,,,,,,,,,,,,,,,,,,,,,,,,,,,,,,,,,,,,
,,5b16adc0388d8b00014fa3a0,2024-02-21_21h25.01.727,kallum_motion_pilot,2023.2.2,Win32,144.9275362,5b16adc0388d8b00014fa3a0,65d6bb0e977760de756971f7,65d6be7fd49342c44be90ac2,0.067,0.0671,1,93,255,153,1,fiveseven,,,,,,,,,,,,,,,,,,,,,,,,,,,,,,,,,,,,,,,,,,,,,,,,,,,,,,,,,,,,,,,,,,,,,,,,,,,,,,,,,,,,,,,,,,,,,,,,,,,,,,,,,,,,,,,,,,,,,,,,,,,,,,,,,,,,,,,,,
,,5b16adc0388d8b00014fa3a0,2024-02-21_21h25.01.727,kallum_motion_pilot,2023.2.2,Win32,144.9275362,5b16adc0388d8b00014fa3a0,65d6bb0e977760de756971f7,65d6be7fd49342c44be90ac2,0.0672,0.0672,1,94,256,4,1,threeone,,,,,,,,,,,,,,,,,,,,,,,,,,,,,,,,,,,,,,,,,,,,,,,,,,,,,,,,,,,,,,,,,,,,,,,,,,,,,,,,,,,,,,,,,,,,,,,,,,,,,,,,,,,,,,,,,,,,,,,,,,,,,,,,,,,,,,,,,
,,5b16adc0388d8b00014fa3a0,2024-02-21_21h25.01.727,kallum_motion_pilot,2023.2.2,Win32,144.9275362,5b16adc0388d8b00014fa3a0,65d6bb0e977760de756971f7,65d6be7fd49342c44be90ac2,0.0674,0.0674,1,95,257,38,1,fourtwo,,,,,,,,,,,,,,,,,,,,,,,,,,,,,,,,,,,,,,,,,,,,,,,,,,,,,,,,,,,,,,,,,,,,,,,,,,,,,,,,,,,,,,,,,,,,,,,,,,,,,,,,,,,,,,,,,,,,,,,,,,,,,,,,,,,,,,,,,
,,5b16adc0388d8b00014fa3a0,2024-02-21_21h25.01.727,kallum_motion_pilot,2023.2.2,Win32,144.9275362,5b16adc0388d8b00014fa3a0,65d6bb0e977760de756971f7,65d6be7fd49342c44be90ac2,0.0675,0.0676,1,96,258,59,1,twofour,,,,,,,,,,,,,,,,,,,,,,,,,,,,,,,,,,,,,,,,,,,,,,,,,,,,,,,,,,,,,,,,,,,,,,,,,,,,,,,,,,,,,,,,,,,,,,,,,,,,,,,,,,,,,,,,,,,,,,,,,,,,,,,,,,,,,,,,,
,,5b16adc0388d8b00014fa3a0,2024-02-21_21h25.01.727,kallum_motion_pilot,2023.2.2,Win32,144.9275362,5b16adc0388d8b00014fa3a0,65d6bb0e977760de756971f7,65d6be7fd49342c44be90ac2,0.0676,0.0678,1,97,259,96,1,fivesix,,,,,,,,,,,,,,,,,,,,,,,,,,,,,,,,,,,,,,,,,,,,,,,,,,,,,,,,,,,,,,,,,,,,,,,,,,,,,,,,,,,,,,,,,,,,,,,,,,,,,,,,,,,,,,,,,,,,,,,,,,,,,,,,,,,,,,,,,
,,5b16adc0388d8b00014fa3a0,2024-02-21_21h25.01.727,kallum_motion_pilot,2023.2.2,Win32,144.9275362,5b16adc0388d8b00014fa3a0,65d6bb0e977760de756971f7,65d6be7fd49342c44be90ac2,0.0678,0.0679,1,98,260,37,1,threefour,,,,,,,,,,,,,,,,,,,,,,,,,,,,,,,,,,,,,,,,,,,,,,,,,,,,,,,,,,,,,,,,,,,,,,,,,,,,,,,,,,,,,,,,,,,,,,,,,,,,,,,,,,,,,,,,,,,,,,,,,,,,,,,,,,,,,,,,,
,,5b16adc0388d8b00014fa3a0,2024-02-21_21h25.01.727,kallum_motion_pilot,2023.2.2,Win32,144.9275362,5b16adc0388d8b00014fa3a0,65d6bb0e977760de756971f7,65d6be7fd49342c44be90ac2,0.0679,0.068,1,99,261,154,1,sixfive,,,,,,,,,,,,,,,,,,,,,,,,,,,,,,,,,,,,,,,,,,,,,,,,,,,,,,,,,,,,,,,,,,,,,,,,,,,,,,,,,,,,,,,,,,,,,,,,,,,,,,,,,,,,,,,,,,,,,,,,,,,,,,,,,,,,,,,,,
,,5b16adc0388d8b00014fa3a0,2024-02-21_21h25.01.727,kallum_motion_pilot,2023.2.2,Win32,144.9275362,5b16adc0388d8b00014fa3a0,65d6bb0e977760de756971f7,65d6be7fd49342c44be90ac2,0.0681,0.0682,1,100,262,44,1,threeone,,,,,,,,,,,,,,,,,,,,,,,,,,,,,,,,,,,,,,,,,,,,,,,,,,,,,,,,,,,,,,,,,,,,,,,,,,,,,,,,,,,,,,,,,,,,,,,,,,,,,,,,,,,,,,,,,,,,,,,,,,,,,,,,,,,,,,,,,
,,5b16adc0388d8b00014fa3a0,2024-02-21_21h25.01.727,kallum_motion_pilot,2023.2.2,Win32,144.9275362,5b16adc0388d8b00014fa3a0,65d6bb0e977760de756971f7,65d6be7fd49342c44be90ac2,0.0683,0.0683,1,101,263,65,1,onethree,,,,,,,,,,,,,,,,,,,,,,,,,,,,,,,,,,,,,,,,,,,,,,,,,,,,,,,,,,,,,,,,,,,,,,,,,,,,,,,,,,,,,,,,,,,,,,,,,,,,,,,,,,,,,,,,,,,,,,,,,,,,,,,,,,,,,,,,,
,,5b16adc0388d8b00014fa3a0,2024-02-21_21h25.01.727,kallum_motion_pilot,2023.2.2,Win32,144.9275362,5b16adc0388d8b00014fa3a0,65d6bb0e977760de756971f7,65d6be7fd49342c44be90ac2,0.0684,0.0686,1,102,264,45,1,threefour,,,,,,,,,,,,,,,,,,,,,,,,,,,,,,,,,,,,,,,,,,,,,,,,,,,,,,,,,,,,,,,,,,,,,,,,,,,,,,,,,,,,,,,,,,,,,,,,,,,,,,,,,,,,,,,,,,,,,,,,,,,,,,,,,,,,,,,,,
,,5b16adc0388d8b00014fa3a0,2024-02-21_21h25.01.727,kallum_motion_pilot,2023.2.2,Win32,144.9275362,5b16adc0388d8b00014fa3a0,65d6bb0e977760de756971f7,65d6be7fd49342c44be90ac2,0.0687,0.0688,1,103,265,121,1,fiveseven,,,,,,,,,,,,,,,,,,,,,,,,,,,,,,,,,,,,,,,,,,,,,,,,,,,,,,,,,,,,,,,,,,,,,,,,,,,,,,,,,,,,,,,,,,,,,,,,,,,,,,,,,,,,,,,,,,,,,,,,,,,,,,,,,,,,,,,,,
,,5b16adc0388d8b00014fa3a0,2024-02-21_21h25.01.727,kallum_motion_pilot,2023.2.2,Win32,144.9275362,5b16adc0388d8b00014fa3a0,65d6bb0e977760de756971f7,65d6be7fd49342c44be90ac2,0.0688,0.0689,1,104,266,127,1,eightseven,,,,,,,,,,,,,,,,,,,,,,,,,,,,,,,,,,,,,,,,,,,,,,,,,,,,,,,,,,,,,,,,,,,,,,,,,,,,,,,,,,,,,,,,,,,,,,,,,,,,,,,,,,,,,,,,,,,,,,,,,,,,,,,,,,,,,,,,,
,,5b16adc0388d8b00014fa3a0,2024-02-21_21h25.01.727,kallum_motion_pilot,2023.2.2,Win32,144.9275362,5b16adc0388d8b00014fa3a0,65d6bb0e977760de756971f7,65d6be7fd49342c44be90ac2,0.069,0.0691,1,105,267,135,1,eightseven,,,,,,,,,,,,,,,,,,,,,,,,,,,,,,,,,,,,,,,,,,,,,,,,,,,,,,,,,,,,,,,,,,,,,,,,,,,,,,,,,,,,,,,,,,,,,,,,,,,,,,,,,,,,,,,,,,,,,,,,,,,,,,,,,,,,,,,,,
,,5b16adc0388d8b00014fa3a0,2024-02-21_21h25.01.727,kallum_motion_pilot,2023.2.2,Win32,144.9275362,5b16adc0388d8b00014fa3a0,65d6bb0e977760de756971f7,65d6be7fd49342c44be90ac2,0.0692,0.0692,1,106,268,88,1,fivesix,,,,,,,,,,,,,,,,,,,,,,,,,,,,,,,,,,,,,,,,,,,,,,,,,,,,,,,,,,,,,,,,,,,,,,,,,,,,,,,,,,,,,,,,,,,,,,,,,,,,,,,,,,,,,,,,,,,,,,,,,,,,,,,,,,,,,,,,,
,,5b16adc0388d8b00014fa3a0,2024-02-21_21h25.01.727,kallum_motion_pilot,2023.2.2,Win32,144.9275362,5b16adc0388d8b00014fa3a0,65d6bb0e977760de756971f7,65d6be7fd49342c44be90ac2,0.0693,0.0694,1,107,269,18,1,twoone,,,,,,,,,,,,,,,,,,,,,,,,,,,,,,,,,,,,,,,,,,,,,,,,,,,,,,,,,,,,,,,,,,,,,,,,,,,,,,,,,,,,,,,,,,,,,,,,,,,,,,,,,,,,,,,,,,,,,,,,,,,,,,,,,,,,,,,,,
,,5b16adc0388d8b00014fa3a0,2024-02-21_21h25.01.727,kallum_motion_pilot,2023.2.2,Win32,144.9275362,5b16adc0388d8b00014fa3a0,65d6bb0e977760de756971f7,65d6be7fd49342c44be90ac2,0.0694,0.0696,1,108,270,29,1,threefour,,,,,,,,,,,,,,,,,,,,,,,,,,,,,,,,,,,,,,,,,,,,,,,,,,,,,,,,,,,,,,,,,,,,,,,,,,,,,,,,,,,,,,,,,,,,,,,,,,,,,,,,,,,,,,,,,,,,,,,,,,,,,,,,,,,,,,,,,
,,5b16adc0388d8b00014fa3a0,2024-02-21_21h25.01.727,kallum_motion_pilot,2023.2.2,Win32,144.9275362,5b16adc0388d8b00014fa3a0,65d6bb0e977760de756971f7,65d6be7fd49342c44be90ac2,0.0697,0.0698,1,109,271,98,1,sixfive,,,,,,,,,,,,,,,,,,,,,,,,,,,,,,,,,,,,,,,,,,,,,,,,,,,,,,,,,,,,,,,,,,,,,,,,,,,,,,,,,,,,,,,,,,,,,,,,,,,,,,,,,,,,,,,,,,,,,,,,,,,,,,,,,,,,,,,,,
,,5b16adc0388d8b00014fa3a0,2024-02-21_21h25.01.727,kallum_motion_pilot,2023.2.2,Win32,144.9275362,5b16adc0388d8b00014fa3a0,65d6bb0e977760de756971f7,65d6be7fd49342c44be90ac2,0.0699,0.0701,1,110,272,63,1,fourthree,,,,,,,,,,,,,,,,,,,,,,,,,,,,,,,,,,,,,,,,,,,,,,,,,,,,,,,,,,,,,,,,,,,,,,,,,,,,,,,,,,,,,,,,,,,,,,,,,,,,,,,,,,,,,,,,,,,,,,,,,,,,,,,,,,,,,,,,,
,,5b16adc0388d8b00014fa3a0,2024-02-21_21h25.01.727,kallum_motion_pilot,2023.2.2,Win32,144.9275362,5b16adc0388d8b00014fa3a0,65d6bb0e977760de756971f7,65d6be7fd49342c44be90ac2,0.0702,0.0703,1,111,273,17,1,onethree,,,,,,,,,,,,,,,,,,,,,,,,,,,,,,,,,,,,,,,,,,,,,,,,,,,,,,,,,,,,,,,,,,,,,,,,,,,,,,,,,,,,,,,,,,,,,,,,,,,,,,,,,,,,,,,,,,,,,,,,,,,,,,,,,,,,,,,,,
,,5b16adc0388d8b00014fa3a0,2024-02-21_21h25.01.727,kallum_motion_pilot,2023.2.2,Win32,144.9275362,5b16adc0388d8b00014fa3a0,65d6bb0e977760de756971f7,65d6be7fd49342c44be90ac2,0.0704,0.0705,1,112,274,42,1,twoone,,,,,,,,,,,,,,,,,,,,,,,,,,,,,,,,,,,,,,,,,,,,,,,,,,,,,,,,,,,,,,,,,,,,,,,,,,,,,,,,,,,,,,,,,,,,,,,,,,,,,,,,,,,,,,,,,,,,,,,,,,,,,,,,,,,,,,,,,
,,5b16adc0388d8b00014fa3a0,2024-02-21_21h25.01.727,kallum_motion_pilot,2023.2.2,Win32,144.9275362,5b16adc0388d8b00014fa3a0,65d6bb0e977760de756971f7,65d6be7fd49342c44be90ac2,0.0706,0.0707,1,113,275,102,1,eightsix,,,,,,,,,,,,,,,,,,,,,,,,,,,,,,,,,,,,,,,,,,,,,,,,,,,,,,,,,,,,,,,,,,,,,,,,,,,,,,,,,,,,,,,,,,,,,,,,,,,,,,,,,,,,,,,,,,,,,,,,,,,,,,,,,,,,,,,,,
,,5b16adc0388d8b00014fa3a0,2024-02-21_21h25.01.727,kallum_motion_pilot,2023.2.2,Win32,144.9275362,5b16adc0388d8b00014fa3a0,65d6bb0e977760de756971f7,65d6be7fd49342c44be90ac2,0.0708,0.0708,1,114,276,113,1,fiveseven,,,,,,,,,,,,,,,,,,,,,,,,,,,,,,,,,,,,,,,,,,,,,,,,,,,,,,,,,,,,,,,,,,,,,,,,,,,,,,,,,,,,,,,,,,,,,,,,,,,,,,,,,,,,,,,,,,,,,,,,,,,,,,,,,,,,,,,,,
,,5b16adc0388d8b00014fa3a0,2024-02-21_21h25.01.727,kallum_motion_pilot,2023.2.2,Win32,144.9275362,5b16adc0388d8b00014fa3a0,65d6bb0e977760de756971f7,65d6be7fd49342c44be90ac2,0.0709,0.071,1,115,277,147,1,sixeight,,,,,,,,,,,,,,,,,,,,,,,,,,,,,,,,,,,,,,,,,,,,,,,,,,,,,,,,,,,,,,,,,,,,,,,,,,,,,,,,,,,,,,,,,,,,,,,,,,,,,,,,,,,,,,,,,,,,,,,,,,,,,,,,,,,,,,,,,
