startup.started,startup.stopped,Prolific ID*,date,expName,psychopyVersion,OS,frameRate,participant,study_id,session,stimpositions.started,stimpositions.stopped,hardcoded_stimulus_positions.thisRepN,hardcoded_stimulus_positions.thisTrialN,hardcoded_stimulus_positions.thisN,hardcoded_stimulus_positions.thisIndex,hardcoded_stimulus_positions.ran,StimulusPos,stimorientation.started,stimorientation.stopped,prac_stimorientation_import_loop.thisRepN,prac_stimorientation_import_loop.thisTrialN,prac_stimorientation_import_loop.thisN,prac_stimorientation_import_loop.thisIndex,prac_stimorientation_import_loop.ran,Stimorientation,welcome_instr.started,welcome_instr.stopped,key_resp.keys,key_resp.rt,key_resp.duration,response_steppedout_1.started,response_steppedout_1.stopped,key_resp_20.keys,key_resp_20.rt,key_resp_20.duration,response_steppedout_2.started,response_steppedout_2.stopped,key_resp_19.keys,key_resp_19.rt,key_resp_19.duration,stim_response_instr.started,stim_response_instr.stopped,key_resp_15.keys,key_resp_15.rt,key_resp_15.duration,direction_instr_2.started,direction_instr_2.stopped,key_resp_9.keys,key_resp_9.rt,key_resp_9.duration,instr_prac.started,instr_prac.stopped,key_resp_10.keys,key_resp_10.rt,key_resp_10.duration,Stim1_display_prac.started,Stim1_display_prac.stopped,Ecc,Circle1_ori,Circle2_ori,response_prac.started,similarity,response_time,response_prac.stopped,mouse_5.x,mouse_5.y,mouse_5.leftButton,mouse_5.midButton,mouse_5.rightButton,mouse_5.clicked_name,responseprac_feedback.started,responseprac_feedback.stopped,summary2_prac.started,summary2_prac.stopped,mouse_6.x,mouse_6.y,mouse_6.leftButton,mouse_6.midButton,mouse_6.rightButton,mouse_6.clicked_name,duringprac.thisRepN,duringprac.thisTrialN,duringprac.thisN,duringprac.thisIndex,duringprac.ran,begin.started,begin.stopped,key_resp_22.keys,key_resp_22.rt,key_resp_22.duration,Stim1_display.started,Stim1_display.stopped,circle1_ori,circle2_ori,circle1_SF,circle2_SF,response.started,response.stopped,mouse.x,mouse.y,mouse.leftButton,mouse.midButton,mouse.rightButton,mouse.clicked_name,trialnumber,double_pass.thisRepN,double_pass.thisTrialN,double_pass.thisN,double_pass.thisIndex,double_pass.ran,double_pass.order,main_trial.thisRepN,main_trial.thisTrialN,main_trial.thisN,main_trial.thisIndex,main_trial.ran,main_trial.order,Trial_Counter,Catch,Frequencies,response_2.started,response_2.stopped,mouse_2.x,mouse_2.y,mouse_2.leftButton,mouse_2.midButton,mouse_2.rightButton,mouse_2.clicked_name,special_trial.started,special_trial.stopped,catch_1.started,catch_1.stopped,mouse_3.x,mouse_3.y,mouse_3.leftButton,mouse_3.midButton,mouse_3.rightButton,catchresponse,catchnumber,response_time_catch,response_sum.started,response_sum.stopped,mouse_11.x,mouse_11.y,mouse_11.leftButton,mouse_11.midButton,mouse_11.rightButton,flip_presentation_sequence_for_double_pass.started,flip_presentation_sequence_for_double_pass.stopped,goodbye.started,goodbye.stopped,key_resp_3.keys,key_resp_3.rt,key_resp_3.duration
0.0003,0.0004,5b7b8153db11320001c412e8,2024-02-21_21h27.05.227,kallum_motion_pilot,2023.2.2,MacIntel,58.47953216,5b7b8153db11320001c412e8,65d6bb0e977760de756971f7,65d6bef0958801b618b98439,,,,,,,,,,,,,,,,,,,,,,,,,,,,,,,,,,,,,,,,,,,,,,,,,,,,,,,,,,,,,,,,,,,,,,,,,,,,,,,,,,,,,,,,,,,,,,,,,,,,,,,,,,,,,,,,,,,,,,,,,,,,,,,,,,,,,,,,,,,,,,,,,
,,5b7b8153db11320001c412e8,2024-02-21_21h27.05.227,kallum_motion_pilot,2023.2.2,MacIntel,58.47953216,5b7b8153db11320001c412e8,65d6bb0e977760de756971f7,65d6bef0958801b618b98439,0.0215,0.0215,0,0,0,136,1,fivesix,,,,,,,,,,,,,,,,,,,,,,,,,,,,,,,,,,,,,,,,,,,,,,,,,,,,,,,,,,,,,,,,,,,,,,,,,,,,,,,,,,,,,,,,,,,,,,,,,,,,,,,,,,,,,,,,,,,,,,,,,,,,,,,,,,,,,,,,,
,,5b7b8153db11320001c412e8,2024-02-21_21h27.05.227,kallum_motion_pilot,2023.2.2,MacIntel,58.47953216,5b7b8153db11320001c412e8,65d6bb0e977760de756971f7,65d6bef0958801b618b98439,0.0217,0.0218,0,1,1,97,1,fiveseven,,,,,,,,,,,,,,,,,,,,,,,,,,,,,,,,,,,,,,,,,,,,,,,,,,,,,,,,,,,,,,,,,,,,,,,,,,,,,,,,,,,,,,,,,,,,,,,,,,,,,,,,,,,,,,,,,,,,,,,,,,,,,,,,,,,,,,,,,
,,5b7b8153db11320001c412e8,2024-02-21_21h27.05.227,kallum_motion_pilot,2023.2.2,MacIntel,58.47953216,5b7b8153db11320001c412e8,65d6bb0e977760de756971f7,65d6bef0958801b618b98439,0.0219,0.0219,0,2,2,87,1,eightseven,,,,,,,,,,,,,,,,,,,,,,,,,,,,,,,,,,,,,,,,,,,,,,,,,,,,,,,,,,,,,,,,,,,,,,,,,,,,,,,,,,,,,,,,,,,,,,,,,,,,,,,,,,,,,,,,,,,,,,,,,,,,,,,,,,,,,,,,,
,,5b7b8153db11320001c412e8,2024-02-21_21h27.05.227,kallum_motion_pilot,2023.2.2,MacIntel,58.47953216,5b7b8153db11320001c412e8,65d6bb0e977760de756971f7,65d6bef0958801b618b98439,0.022,0.022,0,3,3,129,1,fiveseven,,,,,,,,,,,,,,,,,,,,,,,,,,,,,,,,,,,,,,,,,,,,,,,,,,,,,,,,,,,,,,,,,,,,,,,,,,,,,,,,,,,,,,,,,,,,,,,,,,,,,,,,,,,,,,,,,,,,,,,,,,,,,,,,,,,,,,,,,
,,5b7b8153db11320001c412e8,2024-02-21_21h27.05.227,kallum_motion_pilot,2023.2.2,MacIntel,58.47953216,5b7b8153db11320001c412e8,65d6bb0e977760de756971f7,65d6bef0958801b618b98439,0.0221,0.0221,0,4,4,76,1,threeone,,,,,,,,,,,,,,,,,,,,,,,,,,,,,,,,,,,,,,,,,,,,,,,,,,,,,,,,,,,,,,,,,,,,,,,,,,,,,,,,,,,,,,,,,,,,,,,,,,,,,,,,,,,,,,,,,,,,,,,,,,,,,,,,,,,,,,,,,
,,5b7b8153db11320001c412e8,2024-02-21_21h27.05.227,kallum_motion_pilot,2023.2.2,MacIntel,58.47953216,5b7b8153db11320001c412e8,65d6bb0e977760de756971f7,65d6bef0958801b618b98439,0.0223,0.0223,0,5,5,131,1,sixeight,,,,,,,,,,,,,,,,,,,,,,,,,,,,,,,,,,,,,,,,,,,,,,,,,,,,,,,,,,,,,,,,,,,,,,,,,,,,,,,,,,,,,,,,,,,,,,,,,,,,,,,,,,,,,,,,,,,,,,,,,,,,,,,,,,,,,,,,,
,,5b7b8153db11320001c412e8,2024-02-21_21h27.05.227,kallum_motion_pilot,2023.2.2,MacIntel,58.47953216,5b7b8153db11320001c412e8,65d6bb0e977760de756971f7,65d6bef0958801b618b98439,0.0224,0.0224,0,6,6,124,1,sevenfive,,,,,,,,,,,,,,,,,,,,,,,,,,,,,,,,,,,,,,,,,,,,,,,,,,,,,,,,,,,,,,,,,,,,,,,,,,,,,,,,,,,,,,,,,,,,,,,,,,,,,,,,,,,,,,,,,,,,,,,,,,,,,,,,,,,,,,,,,
,,5b7b8153db11320001c412e8,2024-02-21_21h27.05.227,kallum_motion_pilot,2023.2.2,MacIntel,58.47953216,5b7b8153db11320001c412e8,65d6bb0e977760de756971f7,65d6bef0958801b618b98439,0.0225,0.0225,0,7,7,128,1,fivesix,,,,,,,,,,,,,,,,,,,,,,,,,,,,,,,,,,,,,,,,,,,,,,,,,,,,,,,,,,,,,,,,,,,,,,,,,,,,,,,,,,,,,,,,,,,,,,,,,,,,,,,,,,,,,,,,,,,,,,,,,,,,,,,,,,,,,,,,,
,,5b7b8153db11320001c412e8,2024-02-21_21h27.05.227,kallum_motion_pilot,2023.2.2,MacIntel,58.47953216,5b7b8153db11320001c412e8,65d6bb0e977760de756971f7,65d6bef0958801b618b98439,0.0226,0.0226,0,8,8,1,1,onethree,,,,,,,,,,,,,,,,,,,,,,,,,,,,,,,,,,,,,,,,,,,,,,,,,,,,,,,,,,,,,,,,,,,,,,,,,,,,,,,,,,,,,,,,,,,,,,,,,,,,,,,,,,,,,,,,,,,,,,,,,,,,,,,,,,,,,,,,,
,,5b7b8153db11320001c412e8,2024-02-21_21h27.05.227,kallum_motion_pilot,2023.2.2,MacIntel,58.47953216,5b7b8153db11320001c412e8,65d6bb0e977760de756971f7,65d6bef0958801b618b98439,0.0228,0.0228,0,9,9,75,1,twofour,,,,,,,,,,,,,,,,,,,,,,,,,,,,,,,,,,,,,,,,,,,,,,,,,,,,,,,,,,,,,,,,,,,,,,,,,,,,,,,,,,,,,,,,,,,,,,,,,,,,,,,,,,,,,,,,,,,,,,,,,,,,,,,,,,,,,,,,,
,,5b7b8153db11320001c412e8,2024-02-21_21h27.05.227,kallum_motion_pilot,2023.2.2,MacIntel,58.47953216,5b7b8153db11320001c412e8,65d6bb0e977760de756971f7,65d6bef0958801b618b98439,0.0228,0.0228,0,10,10,69,1,threefour,,,,,,,,,,,,,,,,,,,,,,,,,,,,,,,,,,,,,,,,,,,,,,,,,,,,,,,,,,,,,,,,,,,,,,,,,,,,,,,,,,,,,,,,,,,,,,,,,,,,,,,,,,,,,,,,,,,,,,,,,,,,,,,,,,,,,,,,,
,,5b7b8153db11320001c412e8,2024-02-21_21h27.05.227,kallum_motion_pilot,2023.2.2,MacIntel,58.47953216,5b7b8153db11320001c412e8,65d6bb0e977760de756971f7,65d6bef0958801b618b98439,0.023,0.023,0,11,11,110,1,eightsix,,,,,,,,,,,,,,,,,,,,,,,,,,,,,,,,,,,,,,,,,,,,,,,,,,,,,,,,,,,,,,,,,,,,,,,,,,,,,,,,,,,,,,,,,,,,,,,,,,,,,,,,,,,,,,,,,,,,,,,,,,,,,,,,,,,,,,,,,
,,5b7b8153db11320001c412e8,2024-02-21_21h27.05.227,kallum_motion_pilot,2023.2.2,MacIntel,58.47953216,5b7b8153db11320001c412e8,65d6bb0e977760de756971f7,65d6bef0958801b618b98439,0.0231,0.0231,0,12,12,58,1,twoone,,,,,,,,,,,,,,,,,,,,,,,,,,,,,,,,,,,,,,,,,,,,,,,,,,,,,,,,,,,,,,,,,,,,,,,,,,,,,,,,,,,,,,,,,,,,,,,,,,,,,,,,,,,,,,,,,,,,,,,,,,,,,,,,,,,,,,,,,
,,5b7b8153db11320001c412e8,2024-02-21_21h27.05.227,kallum_motion_pilot,2023.2.2,MacIntel,58.47953216,5b7b8153db11320001c412e8,65d6bb0e977760de756971f7,65d6bef0958801b618b98439,0.0231,0.0231,0,13,13,146,1,sixfive,,,,,,,,,,,,,,,,,,,,,,,,,,,,,,,,,,,,,,,,,,,,,,,,,,,,,,,,,,,,,,,,,,,,,,,,,,,,,,,,,,,,,,,,,,,,,,,,,,,,,,,,,,,,,,,,,,,,,,,,,,,,,,,,,,,,,,,,,
,,5b7b8153db11320001c412e8,2024-02-21_21h27.05.227,kallum_motion_pilot,2023.2.2,MacIntel,58.47953216,5b7b8153db11320001c412e8,65d6bb0e977760de756971f7,65d6bef0958801b618b98439,0.0232,0.0232,0,14,14,114,1,sixfive,,,,,,,,,,,,,,,,,,,,,,,,,,,,,,,,,,,,,,,,,,,,,,,,,,,,,,,,,,,,,,,,,,,,,,,,,,,,,,,,,,,,,,,,,,,,,,,,,,,,,,,,,,,,,,,,,,,,,,,,,,,,,,,,,,,,,,,,,
,,5b7b8153db11320001c412e8,2024-02-21_21h27.05.227,kallum_motion_pilot,2023.2.2,MacIntel,58.47953216,5b7b8153db11320001c412e8,65d6bb0e977760de756971f7,65d6bef0958801b618b98439,0.0233,0.0233,0,15,15,99,1,sixeight,,,,,,,,,,,,,,,,,,,,,,,,,,,,,,,,,,,,,,,,,,,,,,,,,,,,,,,,,,,,,,,,,,,,,,,,,,,,,,,,,,,,,,,,,,,,,,,,,,,,,,,,,,,,,,,,,,,,,,,,,,,,,,,,,,,,,,,,,
,,5b7b8153db11320001c412e8,2024-02-21_21h27.05.227,kallum_motion_pilot,2023.2.2,MacIntel,58.47953216,5b7b8153db11320001c412e8,65d6bb0e977760de756971f7,65d6bef0958801b618b98439,0.0233,0.0233,0,16,16,81,1,fiveseven,,,,,,,,,,,,,,,,,,,,,,,,,,,,,,,,,,,,,,,,,,,,,,,,,,,,,,,,,,,,,,,,,,,,,,,,,,,,,,,,,,,,,,,,,,,,,,,,,,,,,,,,,,,,,,,,,,,,,,,,,,,,,,,,,,,,,,,,,
,,5b7b8153db11320001c412e8,2024-02-21_21h27.05.227,kallum_motion_pilot,2023.2.2,MacIntel,58.47953216,5b7b8153db11320001c412e8,65d6bb0e977760de756971f7,65d6bef0958801b618b98439,0.0235,0.0235,0,17,17,52,1,threeone,,,,,,,,,,,,,,,,,,,,,,,,,,,,,,,,,,,,,,,,,,,,,,,,,,,,,,,,,,,,,,,,,,,,,,,,,,,,,,,,,,,,,,,,,,,,,,,,,,,,,,,,,,,,,,,,,,,,,,,,,,,,,,,,,,,,,,,,,
,,5b7b8153db11320001c412e8,2024-02-21_21h27.05.227,kallum_motion_pilot,2023.2.2,MacIntel,58.47953216,5b7b8153db11320001c412e8,65d6bb0e977760de756971f7,65d6bef0958801b618b98439,0.0235,0.0236,0,18,18,19,1,twofour,,,,,,,,,,,,,,,,,,,,,,,,,,,,,,,,,,,,,,,,,,,,,,,,,,,,,,,,,,,,,,,,,,,,,,,,,,,,,,,,,,,,,,,,,,,,,,,,,,,,,,,,,,,,,,,,,,,,,,,,,,,,,,,,,,,,,,,,,
,,5b7b8153db11320001c412e8,2024-02-21_21h27.05.227,kallum_motion_pilot,2023.2.2,MacIntel,58.47953216,5b7b8153db11320001c412e8,65d6bb0e977760de756971f7,65d6bef0958801b618b98439,0.0236,0.0236,0,19,19,126,1,eightsix,,,,,,,,,,,,,,,,,,,,,,,,,,,,,,,,,,,,,,,,,,,,,,,,,,,,,,,,,,,,,,,,,,,,,,,,,,,,,,,,,,,,,,,,,,,,,,,,,,,,,,,,,,,,,,,,,,,,,,,,,,,,,,,,,,,,,,,,,
,,5b7b8153db11320001c412e8,2024-02-21_21h27.05.227,kallum_motion_pilot,2023.2.2,MacIntel,58.47953216,5b7b8153db11320001c412e8,65d6bb0e977760de756971f7,65d6bef0958801b618b98439,0.0237,0.0237,0,20,20,156,1,sevenfive,,,,,,,,,,,,,,,,,,,,,,,,,,,,,,,,,,,,,,,,,,,,,,,,,,,,,,,,,,,,,,,,,,,,,,,,,,,,,,,,,,,,,,,,,,,,,,,,,,,,,,,,,,,,,,,,,,,,,,,,,,,,,,,,,,,,,,,,,
,,5b7b8153db11320001c412e8,2024-02-21_21h27.05.227,kallum_motion_pilot,2023.2.2,MacIntel,58.47953216,5b7b8153db11320001c412e8,65d6bb0e977760de756971f7,65d6bef0958801b618b98439,0.0238,0.0238,0,21,21,111,1,eightseven,,,,,,,,,,,,,,,,,,,,,,,,,,,,,,,,,,,,,,,,,,,,,,,,,,,,,,,,,,,,,,,,,,,,,,,,,,,,,,,,,,,,,,,,,,,,,,,,,,,,,,,,,,,,,,,,,,,,,,,,,,,,,,,,,,,,,,,,,
,,5b7b8153db11320001c412e8,2024-02-21_21h27.05.227,kallum_motion_pilot,2023.2.2,MacIntel,58.47953216,5b7b8153db11320001c412e8,65d6bb0e977760de756971f7,65d6bef0958801b618b98439,0.0238,0.0238,0,22,22,145,1,fiveseven,,,,,,,,,,,,,,,,,,,,,,,,,,,,,,,,,,,,,,,,,,,,,,,,,,,,,,,,,,,,,,,,,,,,,,,,,,,,,,,,,,,,,,,,,,,,,,,,,,,,,,,,,,,,,,,,,,,,,,,,,,,,,,,,,,,,,,,,,
,,5b7b8153db11320001c412e8,2024-02-21_21h27.05.227,kallum_motion_pilot,2023.2.2,MacIntel,58.47953216,5b7b8153db11320001c412e8,65d6bb0e977760de756971f7,65d6bef0958801b618b98439,0.0239,0.024,0,23,23,13,1,threefour,,,,,,,,,,,,,,,,,,,,,,,,,,,,,,,,,,,,,,,,,,,,,,,,,,,,,,,,,,,,,,,,,,,,,,,,,,,,,,,,,,,,,,,,,,,,,,,,,,,,,,,,,,,,,,,,,,,,,,,,,,,,,,,,,,,,,,,,,
,,5b7b8153db11320001c412e8,2024-02-21_21h27.05.227,kallum_motion_pilot,2023.2.2,MacIntel,58.47953216,5b7b8153db11320001c412e8,65d6bb0e977760de756971f7,65d6bef0958801b618b98439,0.024,0.0241,0,24,24,24,1,onetwo,,,,,,,,,,,,,,,,,,,,,,,,,,,,,,,,,,,,,,,,,,,,,,,,,,,,,,,,,,,,,,,,,,,,,,,,,,,,,,,,,,,,,,,,,,,,,,,,,,,,,,,,,,,,,,,,,,,,,,,,,,,,,,,,,,,,,,,,,
,,5b7b8153db11320001c412e8,2024-02-21_21h27.05.227,kallum_motion_pilot,2023.2.2,MacIntel,58.47953216,5b7b8153db11320001c412e8,65d6bb0e977760de756971f7,65d6bef0958801b618b98439,0.0241,0.0241,0,25,25,84,1,sevenfive,,,,,,,,,,,,,,,,,,,,,,,,,,,,,,,,,,,,,,,,,,,,,,,,,,,,,,,,,,,,,,,,,,,,,,,,,,,,,,,,,,,,,,,,,,,,,,,,,,,,,,,,,,,,,,,,,,,,,,,,,,,,,,,,,,,,,,,,,
,,5b7b8153db11320001c412e8,2024-02-21_21h27.05.227,kallum_motion_pilot,2023.2.2,MacIntel,58.47953216,5b7b8153db11320001c412e8,65d6bb0e977760de756971f7,65d6bef0958801b618b98439,0.0242,0.0242,0,26,26,108,1,sevenfive,,,,,,,,,,,,,,,,,,,,,,,,,,,,,,,,,,,,,,,,,,,,,,,,,,,,,,,,,,,,,,,,,,,,,,,,,,,,,,,,,,,,,,,,,,,,,,,,,,,,,,,,,,,,,,,,,,,,,,,,,,,,,,,,,,,,,,,,,
,,5b7b8153db11320001c412e8,2024-02-21_21h27.05.227,kallum_motion_pilot,2023.2.2,MacIntel,58.47953216,5b7b8153db11320001c412e8,65d6bb0e977760de756971f7,65d6bef0958801b618b98439,0.0242,0.0242,0,27,27,56,1,onetwo,,,,,,,,,,,,,,,,,,,,,,,,,,,,,,,,,,,,,,,,,,,,,,,,,,,,,,,,,,,,,,,,,,,,,,,,,,,,,,,,,,,,,,,,,,,,,,,,,,,,,,,,,,,,,,,,,,,,,,,,,,,,,,,,,,,,,,,,,
,,5b7b8153db11320001c412e8,2024-02-21_21h27.05.227,kallum_motion_pilot,2023.2.2,MacIntel,58.47953216,5b7b8153db11320001c412e8,65d6bb0e977760de756971f7,65d6bef0958801b618b98439,0.0243,0.0243,0,28,28,144,1,fivesix,,,,,,,,,,,,,,,,,,,,,,,,,,,,,,,,,,,,,,,,,,,,,,,,,,,,,,,,,,,,,,,,,,,,,,,,,,,,,,,,,,,,,,,,,,,,,,,,,,,,,,,,,,,,,,,,,,,,,,,,,,,,,,,,,,,,,,,,,
,,5b7b8153db11320001c412e8,2024-02-21_21h27.05.227,kallum_motion_pilot,2023.2.2,MacIntel,58.47953216,5b7b8153db11320001c412e8,65d6bb0e977760de756971f7,65d6bef0958801b618b98439,0.0244,0.0244,0,29,29,66,1,twoone,,,,,,,,,,,,,,,,,,,,,,,,,,,,,,,,,,,,,,,,,,,,,,,,,,,,,,,,,,,,,,,,,,,,,,,,,,,,,,,,,,,,,,,,,,,,,,,,,,,,,,,,,,,,,,,,,,,,,,,,,,,,,,,,,,,,,,,,,
,,5b7b8153db11320001c412e8,2024-02-21_21h27.05.227,kallum_motion_pilot,2023.2.2,MacIntel,58.47953216,5b7b8153db11320001c412e8,65d6bb0e977760de756971f7,65d6bef0958801b618b98439,0.0245,0.0245,0,30,30,103,1,eightseven,,,,,,,,,,,,,,,,,,,,,,,,,,,,,,,,,,,,,,,,,,,,,,,,,,,,,,,,,,,,,,,,,,,,,,,,,,,,,,,,,,,,,,,,,,,,,,,,,,,,,,,,,,,,,,,,,,,,,,,,,,,,,,,,,,,,,,,,,
,,5b7b8153db11320001c412e8,2024-02-21_21h27.05.227,kallum_motion_pilot,2023.2.2,MacIntel,58.47953216,5b7b8153db11320001c412e8,65d6bb0e977760de756971f7,65d6bef0958801b618b98439,0.0245,0.0246,0,31,31,82,1,sixfive,,,,,,,,,,,,,,,,,,,,,,,,,,,,,,,,,,,,,,,,,,,,,,,,,,,,,,,,,,,,,,,,,,,,,,,,,,,,,,,,,,,,,,,,,,,,,,,,,,,,,,,,,,,,,,,,,,,,,,,,,,,,,,,,,,,,,,,,,
,,5b7b8153db11320001c412e8,2024-02-21_21h27.05.227,kallum_motion_pilot,2023.2.2,MacIntel,58.47953216,5b7b8153db11320001c412e8,65d6bb0e977760de756971f7,65d6bef0958801b618b98439,0.0247,0.0247,0,32,32,54,1,fourtwo,,,,,,,,,,,,,,,,,,,,,,,,,,,,,,,,,,,,,,,,,,,,,,,,,,,,,,,,,,,,,,,,,,,,,,,,,,,,,,,,,,,,,,,,,,,,,,,,,,,,,,,,,,,,,,,,,,,,,,,,,,,,,,,,,,,,,,,,,
,,5b7b8153db11320001c412e8,2024-02-21_21h27.05.227,kallum_motion_pilot,2023.2.2,MacIntel,58.47953216,5b7b8153db11320001c412e8,65d6bb0e977760de756971f7,65d6bef0958801b618b98439,0.0247,0.0247,0,33,33,88,1,fivesix,,,,,,,,,,,,,,,,,,,,,,,,,,,,,,,,,,,,,,,,,,,,,,,,,,,,,,,,,,,,,,,,,,,,,,,,,,,,,,,,,,,,,,,,,,,,,,,,,,,,,,,,,,,,,,,,,,,,,,,,,,,,,,,,,,,,,,,,,
,,5b7b8153db11320001c412e8,2024-02-21_21h27.05.227,kallum_motion_pilot,2023.2.2,MacIntel,58.47953216,5b7b8153db11320001c412e8,65d6bb0e977760de756971f7,65d6bef0958801b618b98439,0.0248,0.0248,0,34,34,49,1,onethree,,,,,,,,,,,,,,,,,,,,,,,,,,,,,,,,,,,,,,,,,,,,,,,,,,,,,,,,,,,,,,,,,,,,,,,,,,,,,,,,,,,,,,,,,,,,,,,,,,,,,,,,,,,,,,,,,,,,,,,,,,,,,,,,,,,,,,,,,
,,5b7b8153db11320001c412e8,2024-02-21_21h27.05.227,kallum_motion_pilot,2023.2.2,MacIntel,58.47953216,5b7b8153db11320001c412e8,65d6bb0e977760de756971f7,65d6bef0958801b618b98439,0.0249,0.025,0,35,35,28,1,threeone,,,,,,,,,,,,,,,,,,,,,,,,,,,,,,,,,,,,,,,,,,,,,,,,,,,,,,,,,,,,,,,,,,,,,,,,,,,,,,,,,,,,,,,,,,,,,,,,,,,,,,,,,,,,,,,,,,,,,,,,,,,,,,,,,,,,,,,,,
,,5b7b8153db11320001c412e8,2024-02-21_21h27.05.227,kallum_motion_pilot,2023.2.2,MacIntel,58.47953216,5b7b8153db11320001c412e8,65d6bb0e977760de756971f7,65d6bef0958801b618b98439,0.0251,0.0251,0,36,36,159,1,eightseven,,,,,,,,,,,,,,,,,,,,,,,,,,,,,,,,,,,,,,,,,,,,,,,,,,,,,,,,,,,,,,,,,,,,,,,,,,,,,,,,,,,,,,,,,,,,,,,,,,,,,,,,,,,,,,,,,,,,,,,,,,,,,,,,,,,,,,,,,
,,5b7b8153db11320001c412e8,2024-02-21_21h27.05.227,kallum_motion_pilot,2023.2.2,MacIntel,58.47953216,5b7b8153db11320001c412e8,65d6bb0e977760de756971f7,65d6bef0958801b618b98439,0.0253,0.0253,0,37,37,125,1,seveneight,,,,,,,,,,,,,,,,,,,,,,,,,,,,,,,,,,,,,,,,,,,,,,,,,,,,,,,,,,,,,,,,,,,,,,,,,,,,,,,,,,,,,,,,,,,,,,,,,,,,,,,,,,,,,,,,,,,,,,,,,,,,,,,,,,,,,,,,,
,,5b7b8153db11320001c412e8,2024-02-21_21h27.05.227,kallum_motion_pilot,2023.2.2,MacIntel,58.47953216,5b7b8153db11320001c412e8,65d6bb0e977760de756971f7,65d6bef0958801b618b98439,0.0253,0.0254,0,38,38,89,1,fiveseven,,,,,,,,,,,,,,,,,,,,,,,,,,,,,,,,,,,,,,,,,,,,,,,,,,,,,,,,,,,,,,,,,,,,,,,,,,,,,,,,,,,,,,,,,,,,,,,,,,,,,,,,,,,,,,,,,,,,,,,,,,,,,,,,,,,,,,,,,
,,5b7b8153db11320001c412e8,2024-02-21_21h27.05.227,kallum_motion_pilot,2023.2.2,MacIntel,58.47953216,5b7b8153db11320001c412e8,65d6bb0e977760de756971f7,65d6bef0958801b618b98439,0.0254,0.0255,0,39,39,130,1,sixfive,,,,,,,,,,,,,,,,,,,,,,,,,,,,,,,,,,,,,,,,,,,,,,,,,,,,,,,,,,,,,,,,,,,,,,,,,,,,,,,,,,,,,,,,,,,,,,,,,,,,,,,,,,,,,,,,,,,,,,,,,,,,,,,,,,,,,,,,,
,,5b7b8153db11320001c412e8,2024-02-21_21h27.05.227,kallum_motion_pilot,2023.2.2,MacIntel,58.47953216,5b7b8153db11320001c412e8,65d6bb0e977760de756971f7,65d6bef0958801b618b98439,0.0255,0.0256,0,40,40,62,1,fourtwo,,,,,,,,,,,,,,,,,,,,,,,,,,,,,,,,,,,,,,,,,,,,,,,,,,,,,,,,,,,,,,,,,,,,,,,,,,,,,,,,,,,,,,,,,,,,,,,,,,,,,,,,,,,,,,,,,,,,,,,,,,,,,,,,,,,,,,,,,
,,5b7b8153db11320001c412e8,2024-02-21_21h27.05.227,kallum_motion_pilot,2023.2.2,MacIntel,58.47953216,5b7b8153db11320001c412e8,65d6bb0e977760de756971f7,65d6bef0958801b618b98439,0.0257,0.0257,0,41,41,107,1,sixeight,,,,,,,,,,,,,,,,,,,,,,,,,,,,,,,,,,,,,,,,,,,,,,,,,,,,,,,,,,,,,,,,,,,,,,,,,,,,,,,,,,,,,,,,,,,,,,,,,,,,,,,,,,,,,,,,,,,,,,,,,,,,,,,,,,,,,,,,,
,,5b7b8153db11320001c412e8,2024-02-21_21h27.05.227,kallum_motion_pilot,2023.2.2,MacIntel,58.47953216,5b7b8153db11320001c412e8,65d6bb0e977760de756971f7,65d6bef0958801b618b98439,0.0257,0.0258,0,42,42,44,1,threeone,,,,,,,,,,,,,,,,,,,,,,,,,,,,,,,,,,,,,,,,,,,,,,,,,,,,,,,,,,,,,,,,,,,,,,,,,,,,,,,,,,,,,,,,,,,,,,,,,,,,,,,,,,,,,,,,,,,,,,,,,,,,,,,,,,,,,,,,,
,,5b7b8153db11320001c412e8,2024-02-21_21h27.05.227,kallum_motion_pilot,2023.2.2,MacIntel,58.47953216,5b7b8153db11320001c412e8,65d6bb0e977760de756971f7,65d6bef0958801b618b98439,0.0258,0.0258,0,43,43,70,1,fourtwo,,,,,,,,,,,,,,,,,,,,,,,,,,,,,,,,,,,,,,,,,,,,,,,,,,,,,,,,,,,,,,,,,,,,,,,,,,,,,,,,,,,,,,,,,,,,,,,,,,,,,,,,,,,,,,,,,,,,,,,,,,,,,,,,,,,,,,,,,
,,5b7b8153db11320001c412e8,2024-02-21_21h27.05.227,kallum_motion_pilot,2023.2.2,MacIntel,58.47953216,5b7b8153db11320001c412e8,65d6bb0e977760de756971f7,65d6bef0958801b618b98439,0.0259,0.0259,0,44,44,50,1,twoone,,,,,,,,,,,,,,,,,,,,,,,,,,,,,,,,,,,,,,,,,,,,,,,,,,,,,,,,,,,,,,,,,,,,,,,,,,,,,,,,,,,,,,,,,,,,,,,,,,,,,,,,,,,,,,,,,,,,,,,,,,,,,,,,,,,,,,,,,
,,5b7b8153db11320001c412e8,2024-02-21_21h27.05.227,kallum_motion_pilot,2023.2.2,MacIntel,58.47953216,5b7b8153db11320001c412e8,65d6bb0e977760de756971f7,65d6bef0958801b618b98439,0.026,0.026,0,45,45,106,1,sixfive,,,,,,,,,,,,,,,,,,,,,,,,,,,,,,,,,,,,,,,,,,,,,,,,,,,,,,,,,,,,,,,,,,,,,,,,,,,,,,,,,,,,,,,,,,,,,,,,,,,,,,,,,,,,,,,,,,,,,,,,,,,,,,,,,,,,,,,,,
,,5b7b8153db11320001c412e8,2024-02-21_21h27.05.227,kallum_motion_pilot,2023.2.2,MacIntel,58.47953216,5b7b8153db11320001c412e8,65d6bb0e977760de756971f7,65d6bef0958801b618b98439,0.0261,0.0261,0,46,46,32,1,onetwo,,,,,,,,,,,,,,,,,,,,,,,,,,,,,,,,,,,,,,,,,,,,,,,,,,,,,,,,,,,,,,,,,,,,,,,,,,,,,,,,,,,,,,,,,,,,,,,,,,,,,,,,,,,,,,,,,,,,,,,,,,,,,,,,,,,,,,,,,
,,5b7b8153db11320001c412e8,2024-02-21_21h27.05.227,kallum_motion_pilot,2023.2.2,MacIntel,58.47953216,5b7b8153db11320001c412e8,65d6bb0e977760de756971f7,65d6bef0958801b618b98439,0.0261,0.0262,0,47,47,155,1,sixeight,,,,,,,,,,,,,,,,,,,,,,,,,,,,,,,,,,,,,,,,,,,,,,,,,,,,,,,,,,,,,,,,,,,,,,,,,,,,,,,,,,,,,,,,,,,,,,,,,,,,,,,,,,,,,,,,,,,,,,,,,,,,,,,,,,,,,,,,,
,,5b7b8153db11320001c412e8,2024-02-21_21h27.05.227,kallum_motion_pilot,2023.2.2,MacIntel,58.47953216,5b7b8153db11320001c412e8,65d6bb0e977760de756971f7,65d6bef0958801b618b98439,0.0263,0.0263,0,48,48,9,1,onethree,,,,,,,,,,,,,,,,,,,,,,,,,,,,,,,,,,,,,,,,,,,,,,,,,,,,,,,,,,,,,,,,,,,,,,,,,,,,,,,,,,,,,,,,,,,,,,,,,,,,,,,,,,,,,,,,,,,,,,,,,,,,,,,,,,,,,,,,,
,,5b7b8153db11320001c412e8,2024-02-21_21h27.05.227,kallum_motion_pilot,2023.2.2,MacIntel,58.47953216,5b7b8153db11320001c412e8,65d6bb0e977760de756971f7,65d6bef0958801b618b98439,0.0263,0.0263,0,49,49,0,1,onetwo,,,,,,,,,,,,,,,,,,,,,,,,,,,,,,,,,,,,,,,,,,,,,,,,,,,,,,,,,,,,,,,,,,,,,,,,,,,,,,,,,,,,,,,,,,,,,,,,,,,,,,,,,,,,,,,,,,,,,,,,,,,,,,,,,,,,,,,,,
,,5b7b8153db11320001c412e8,2024-02-21_21h27.05.227,kallum_motion_pilot,2023.2.2,MacIntel,58.47953216,5b7b8153db11320001c412e8,65d6bb0e977760de756971f7,65d6bef0958801b618b98439,0.0264,0.0271,0,50,50,23,1,fourthree,,,,,,,,,,,,,,,,,,,,,,,,,,,,,,,,,,,,,,,,,,,,,,,,,,,,,,,,,,,,,,,,,,,,,,,,,,,,,,,,,,,,,,,,,,,,,,,,,,,,,,,,,,,,,,,,,,,,,,,,,,,,,,,,,,,,,,,,,
,,5b7b8153db11320001c412e8,2024-02-21_21h27.05.227,kallum_motion_pilot,2023.2.2,MacIntel,58.47953216,5b7b8153db11320001c412e8,65d6bb0e977760de756971f7,65d6bef0958801b618b98439,0.0272,0.0272,0,51,51,51,1,twofour,,,,,,,,,,,,,,,,,,,,,,,,,,,,,,,,,,,,,,,,,,,,,,,,,,,,,,,,,,,,,,,,,,,,,,,,,,,,,,,,,,,,,,,,,,,,,,,,,,,,,,,,,,,,,,,,,,,,,,,,,,,,,,,,,,,,,,,,,
,,5b7b8153db11320001c412e8,2024-02-21_21h27.05.227,kallum_motion_pilot,2023.2.2,MacIntel,58.47953216,5b7b8153db11320001c412e8,65d6bb0e977760de756971f7,65d6bef0958801b618b98439,0.0273,0.0273,0,52,52,18,1,twoone,,,,,,,,,,,,,,,,,,,,,,,,,,,,,,,,,,,,,,,,,,,,,,,,,,,,,,,,,,,,,,,,,,,,,,,,,,,,,,,,,,,,,,,,,,,,,,,,,,,,,,,,,,,,,,,,,,,,,,,,,,,,,,,,,,,,,,,,,
,,5b7b8153db11320001c412e8,2024-02-21_21h27.05.227,kallum_motion_pilot,2023.2.2,MacIntel,58.47953216,5b7b8153db11320001c412e8,65d6bb0e977760de756971f7,65d6bef0958801b618b98439,0.0274,0.0274,0,53,53,95,1,eightseven,,,,,,,,,,,,,,,,,,,,,,,,,,,,,,,,,,,,,,,,,,,,,,,,,,,,,,,,,,,,,,,,,,,,,,,,,,,,,,,,,,,,,,,,,,,,,,,,,,,,,,,,,,,,,,,,,,,,,,,,,,,,,,,,,,,,,,,,,
,,5b7b8153db11320001c412e8,2024-02-21_21h27.05.227,kallum_motion_pilot,2023.2.2,MacIntel,58.47953216,5b7b8153db11320001c412e8,65d6bb0e977760de756971f7,65d6bef0958801b618b98439,0.0274,0.0274,0,54,54,46,1,fourtwo,,,,,,,,,,,,,,,,,,,,,,,,,,,,,,,,,,,,,,,,,,,,,,,,,,,,,,,,,,,,,,,,,,,,,,,,,,,,,,,,,,,,,,,,,,,,,,,,,,,,,,,,,,,,,,,,,,,,,,,,,,,,,,,,,,,,,,,,,
,,5b7b8153db11320001c412e8,2024-02-21_21h27.05.227,kallum_motion_pilot,2023.2.2,MacIntel,58.47953216,5b7b8153db11320001c412e8,65d6bb0e977760de756971f7,65d6bef0958801b618b98439,0.0276,0.0276,0,55,55,118,1,eightsix,,,,,,,,,,,,,,,,,,,,,,,,,,,,,,,,,,,,,,,,,,,,,,,,,,,,,,,,,,,,,,,,,,,,,,,,,,,,,,,,,,,,,,,,,,,,,,,,,,,,,,,,,,,,,,,,,,,,,,,,,,,,,,,,,,,,,,,,,
,,5b7b8153db11320001c412e8,2024-02-21_21h27.05.227,kallum_motion_pilot,2023.2.2,MacIntel,58.47953216,5b7b8153db11320001c412e8,65d6bb0e977760de756971f7,65d6bef0958801b618b98439,0.0277,0.0277,0,56,56,112,1,fivesix,,,,,,,,,,,,,,,,,,,,,,,,,,,,,,,,,,,,,,,,,,,,,,,,,,,,,,,,,,,,,,,,,,,,,,,,,,,,,,,,,,,,,,,,,,,,,,,,,,,,,,,,,,,,,,,,,,,,,,,,,,,,,,,,,,,,,,,,,
,,5b7b8153db11320001c412e8,2024-02-21_21h27.05.227,kallum_motion_pilot,2023.2.2,MacIntel,58.47953216,5b7b8153db11320001c412e8,65d6bb0e977760de756971f7,65d6bef0958801b618b98439,0.0277,0.0277,0,57,57,86,1,eightsix,,,,,,,,,,,,,,,,,,,,,,,,,,,,,,,,,,,,,,,,,,,,,,,,,,,,,,,,,,,,,,,,,,,,,,,,,,,,,,,,,,,,,,,,,,,,,,,,,,,,,,,,,,,,,,,,,,,,,,,,,,,,,,,,,,,,,,,,,
,,5b7b8153db11320001c412e8,2024-02-21_21h27.05.227,kallum_motion_pilot,2023.2.2,MacIntel,58.47953216,5b7b8153db11320001c412e8,65d6bb0e977760de756971f7,65d6bef0958801b618b98439,0.0279,0.0279,0,58,58,134,1,eightsix,,,,,,,,,,,,,,,,,,,,,,,,,,,,,,,,,,,,,,,,,,,,,,,,,,,,,,,,,,,,,,,,,,,,,,,,,,,,,,,,,,,,,,,,,,,,,,,,,,,,,,,,,,,,,,,,,,,,,,,,,,,,,,,,,,,,,,,,,
,,5b7b8153db11320001c412e8,2024-02-21_21h27.05.227,kallum_motion_pilot,2023.2.2,MacIntel,58.47953216,5b7b8153db11320001c412e8,65d6bb0e977760de756971f7,65d6bef0958801b618b98439,0.0279,0.028,0,59,59,45,1,threefour,,,,,,,,,,,,,,,,,,,,,,,,,,,,,,,,,,,,,,,,,,,,,,,,,,,,,,,,,,,,,,,,,,,,,,,,,,,,,,,,,,,,,,,,,,,,,,,,,,,,,,,,,,,,,,,,,,,,,,,,,,,,,,,,,,,,,,,,,
,,5b7b8153db11320001c412e8,2024-02-21_21h27.05.227,kallum_motion_pilot,2023.2.2,MacIntel,58.47953216,5b7b8153db11320001c412e8,65d6bb0e977760de756971f7,65d6bef0958801b618b98439,0.028,0.028,0,60,60,154,1,sixfive,,,,,,,,,,,,,,,,,,,,,,,,,,,,,,,,,,,,,,,,,,,,,,,,,,,,,,,,,,,,,,,,,,,,,,,,,,,,,,,,,,,,,,,,,,,,,,,,,,,,,,,,,,,,,,,,,,,,,,,,,,,,,,,,,,,,,,,,,
,,5b7b8153db11320001c412e8,2024-02-21_21h27.05.227,kallum_motion_pilot,2023.2.2,MacIntel,58.47953216,5b7b8153db11320001c412e8,65d6bb0e977760de756971f7,65d6bef0958801b618b98439,0.0282,0.0282,0,61,61,79,1,eightseven,,,,,,,,,,,,,,,,,,,,,,,,,,,,,,,,,,,,,,,,,,,,,,,,,,,,,,,,,,,,,,,,,,,,,,,,,,,,,,,,,,,,,,,,,,,,,,,,,,,,,,,,,,,,,,,,,,,,,,,,,,,,,,,,,,,,,,,,,
,,5b7b8153db11320001c412e8,2024-02-21_21h27.05.227,kallum_motion_pilot,2023.2.2,MacIntel,58.47953216,5b7b8153db11320001c412e8,65d6bb0e977760de756971f7,65d6bef0958801b618b98439,0.0282,0.0282,0,62,62,133,1,seveneight,,,,,,,,,,,,,,,,,,,,,,,,,,,,,,,,,,,,,,,,,,,,,,,,,,,,,,,,,,,,,,,,,,,,,,,,,,,,,,,,,,,,,,,,,,,,,,,,,,,,,,,,,,,,,,,,,,,,,,,,,,,,,,,,,,,,,,,,,
,,5b7b8153db11320001c412e8,2024-02-21_21h27.05.227,kallum_motion_pilot,2023.2.2,MacIntel,58.47953216,5b7b8153db11320001c412e8,65d6bb0e977760de756971f7,65d6bef0958801b618b98439,0.0283,0.0283,0,63,63,41,1,onethree,,,,,,,,,,,,,,,,,,,,,,,,,,,,,,,,,,,,,,,,,,,,,,,,,,,,,,,,,,,,,,,,,,,,,,,,,,,,,,,,,,,,,,,,,,,,,,,,,,,,,,,,,,,,,,,,,,,,,,,,,,,,,,,,,,,,,,,,,
,,5b7b8153db11320001c412e8,2024-02-21_21h27.05.227,kallum_motion_pilot,2023.2.2,MacIntel,58.47953216,5b7b8153db11320001c412e8,65d6bb0e977760de756971f7,65d6bef0958801b618b98439,0.0284,0.0285,0,64,64,74,1,twoone,,,,,,,,,,,,,,,,,,,,,,,,,,,,,,,,,,,,,,,,,,,,,,,,,,,,,,,,,,,,,,,,,,,,,,,,,,,,,,,,,,,,,,,,,,,,,,,,,,,,,,,,,,,,,,,,,,,,,,,,,,,,,,,,,,,,,,,,,
,,5b7b8153db11320001c412e8,2024-02-21_21h27.05.227,kallum_motion_pilot,2023.2.2,MacIntel,58.47953216,5b7b8153db11320001c412e8,65d6bb0e977760de756971f7,65d6bef0958801b618b98439,0.0285,0.0286,0,65,65,157,1,seveneight,,,,,,,,,,,,,,,,,,,,,,,,,,,,,,,,,,,,,,,,,,,,,,,,,,,,,,,,,,,,,,,,,,,,,,,,,,,,,,,,,,,,,,,,,,,,,,,,,,,,,,,,,,,,,,,,,,,,,,,,,,,,,,,,,,,,,,,,,
,,5b7b8153db11320001c412e8,2024-02-21_21h27.05.227,kallum_motion_pilot,2023.2.2,MacIntel,58.47953216,5b7b8153db11320001c412e8,65d6bb0e977760de756971f7,65d6bef0958801b618b98439,0.0286,0.0287,0,66,66,14,1,fourtwo,,,,,,,,,,,,,,,,,,,,,,,,,,,,,,,,,,,,,,,,,,,,,,,,,,,,,,,,,,,,,,,,,,,,,,,,,,,,,,,,,,,,,,,,,,,,,,,,,,,,,,,,,,,,,,,,,,,,,,,,,,,,,,,,,,,,,,,,,
,,5b7b8153db11320001c412e8,2024-02-21_21h27.05.227,kallum_motion_pilot,2023.2.2,MacIntel,58.47953216,5b7b8153db11320001c412e8,65d6bb0e977760de756971f7,65d6bef0958801b618b98439,0.0288,0.0288,0,67,67,65,1,onethree,,,,,,,,,,,,,,,,,,,,,,,,,,,,,,,,,,,,,,,,,,,,,,,,,,,,,,,,,,,,,,,,,,,,,,,,,,,,,,,,,,,,,,,,,,,,,,,,,,,,,,,,,,,,,,,,,,,,,,,,,,,,,,,,,,,,,,,,,
,,5b7b8153db11320001c412e8,2024-02-21_21h27.05.227,kallum_motion_pilot,2023.2.2,MacIntel,58.47953216,5b7b8153db11320001c412e8,65d6bb0e977760de756971f7,65d6bef0958801b618b98439,0.0288,0.0289,0,68,68,142,1,eightsix,,,,,,,,,,,,,,,,,,,,,,,,,,,,,,,,,,,,,,,,,,,,,,,,,,,,,,,,,,,,,,,,,,,,,,,,,,,,,,,,,,,,,,,,,,,,,,,,,,,,,,,,,,,,,,,,,,,,,,,,,,,,,,,,,,,,,,,,,
,,5b7b8153db11320001c412e8,2024-02-21_21h27.05.227,kallum_motion_pilot,2023.2.2,MacIntel,58.47953216,5b7b8153db11320001c412e8,65d6bb0e977760de756971f7,65d6bef0958801b618b98439,0.0289,0.029,0,69,69,10,1,twoone,,,,,,,,,,,,,,,,,,,,,,,,,,,,,,,,,,,,,,,,,,,,,,,,,,,,,,,,,,,,,,,,,,,,,,,,,,,,,,,,,,,,,,,,,,,,,,,,,,,,,,,,,,,,,,,,,,,,,,,,,,,,,,,,,,,,,,,,,
,,5b7b8153db11320001c412e8,2024-02-21_21h27.05.227,kallum_motion_pilot,2023.2.2,MacIntel,58.47953216,5b7b8153db11320001c412e8,65d6bb0e977760de756971f7,65d6bef0958801b618b98439,0.0291,0.0291,0,70,70,100,1,sevenfive,,,,,,,,,,,,,,,,,,,,,,,,,,,,,,,,,,,,,,,,,,,,,,,,,,,,,,,,,,,,,,,,,,,,,,,,,,,,,,,,,,,,,,,,,,,,,,,,,,,,,,,,,,,,,,,,,,,,,,,,,,,,,,,,,,,,,,,,,
,,5b7b8153db11320001c412e8,2024-02-21_21h27.05.227,kallum_motion_pilot,2023.2.2,MacIntel,58.47953216,5b7b8153db11320001c412e8,65d6bb0e977760de756971f7,65d6bef0958801b618b98439,0.0292,0.0292,0,71,71,93,1,seveneight,,,,,,,,,,,,,,,,,,,,,,,,,,,,,,,,,,,,,,,,,,,,,,,,,,,,,,,,,,,,,,,,,,,,,,,,,,,,,,,,,,,,,,,,,,,,,,,,,,,,,,,,,,,,,,,,,,,,,,,,,,,,,,,,,,,,,,,,,
,,5b7b8153db11320001c412e8,2024-02-21_21h27.05.227,kallum_motion_pilot,2023.2.2,MacIntel,58.47953216,5b7b8153db11320001c412e8,65d6bb0e977760de756971f7,65d6bef0958801b618b98439,0.0293,0.0293,0,72,72,148,1,sevenfive,,,,,,,,,,,,,,,,,,,,,,,,,,,,,,,,,,,,,,,,,,,,,,,,,,,,,,,,,,,,,,,,,,,,,,,,,,,,,,,,,,,,,,,,,,,,,,,,,,,,,,,,,,,,,,,,,,,,,,,,,,,,,,,,,,,,,,,,,
,,5b7b8153db11320001c412e8,2024-02-21_21h27.05.227,kallum_motion_pilot,2023.2.2,MacIntel,58.47953216,5b7b8153db11320001c412e8,65d6bb0e977760de756971f7,65d6bef0958801b618b98439,0.0294,0.0295,0,73,73,151,1,eightseven,,,,,,,,,,,,,,,,,,,,,,,,,,,,,,,,,,,,,,,,,,,,,,,,,,,,,,,,,,,,,,,,,,,,,,,,,,,,,,,,,,,,,,,,,,,,,,,,,,,,,,,,,,,,,,,,,,,,,,,,,,,,,,,,,,,,,,,,,
,,5b7b8153db11320001c412e8,2024-02-21_21h27.05.227,kallum_motion_pilot,2023.2.2,MacIntel,58.47953216,5b7b8153db11320001c412e8,65d6bb0e977760de756971f7,65d6bef0958801b618b98439,0.0295,0.0296,0,74,74,47,1,fourthree,,,,,,,,,,,,,,,,,,,,,,,,,,,,,,,,,,,,,,,,,,,,,,,,,,,,,,,,,,,,,,,,,,,,,,,,,,,,,,,,,,,,,,,,,,,,,,,,,,,,,,,,,,,,,,,,,,,,,,,,,,,,,,,,,,,,,,,,,
,,5b7b8153db11320001c412e8,2024-02-21_21h27.05.227,kallum_motion_pilot,2023.2.2,MacIntel,58.47953216,5b7b8153db11320001c412e8,65d6bb0e977760de756971f7,65d6bef0958801b618b98439,0.0296,0.0296,0,75,75,20,1,threeone,,,,,,,,,,,,,,,,,,,,,,,,,,,,,,,,,,,,,,,,,,,,,,,,,,,,,,,,,,,,,,,,,,,,,,,,,,,,,,,,,,,,,,,,,,,,,,,,,,,,,,,,,,,,,,,,,,,,,,,,,,,,,,,,,,,,,,,,,
,,5b7b8153db11320001c412e8,2024-02-21_21h27.05.227,kallum_motion_pilot,2023.2.2,MacIntel,58.47953216,5b7b8153db11320001c412e8,65d6bb0e977760de756971f7,65d6bef0958801b618b98439,0.0297,0.0297,0,76,76,147,1,sixeight,,,,,,,,,,,,,,,,,,,,,,,,,,,,,,,,,,,,,,,,,,,,,,,,,,,,,,,,,,,,,,,,,,,,,,,,,,,,,,,,,,,,,,,,,,,,,,,,,,,,,,,,,,,,,,,,,,,,,,,,,,,,,,,,,,,,,,,,,
,,5b7b8153db11320001c412e8,2024-02-21_21h27.05.227,kallum_motion_pilot,2023.2.2,MacIntel,58.47953216,5b7b8153db11320001c412e8,65d6bb0e977760de756971f7,65d6bef0958801b618b98439,0.0298,0.0298,0,77,77,34,1,twoone,,,,,,,,,,,,,,,,,,,,,,,,,,,,,,,,,,,,,,,,,,,,,,,,,,,,,,,,,,,,,,,,,,,,,,,,,,,,,,,,,,,,,,,,,,,,,,,,,,,,,,,,,,,,,,,,,,,,,,,,,,,,,,,,,,,,,,,,,
,,5b7b8153db11320001c412e8,2024-02-21_21h27.05.227,kallum_motion_pilot,2023.2.2,MacIntel,58.47953216,5b7b8153db11320001c412e8,65d6bb0e977760de756971f7,65d6bef0958801b618b98439,0.0298,0.0299,0,78,78,104,1,fivesix,,,,,,,,,,,,,,,,,,,,,,,,,,,,,,,,,,,,,,,,,,,,,,,,,,,,,,,,,,,,,,,,,,,,,,,,,,,,,,,,,,,,,,,,,,,,,,,,,,,,,,,,,,,,,,,,,,,,,,,,,,,,,,,,,,,,,,,,,
,,5b7b8153db11320001c412e8,2024-02-21_21h27.05.227,kallum_motion_pilot,2023.2.2,MacIntel,58.47953216,5b7b8153db11320001c412e8,65d6bb0e977760de756971f7,65d6bef0958801b618b98439,0.0301,0.0301,0,79,79,96,1,fivesix,,,,,,,,,,,,,,,,,,,,,,,,,,,,,,,,,,,,,,,,,,,,,,,,,,,,,,,,,,,,,,,,,,,,,,,,,,,,,,,,,,,,,,,,,,,,,,,,,,,,,,,,,,,,,,,,,,,,,,,,,,,,,,,,,,,,,,,,,
,,5b7b8153db11320001c412e8,2024-02-21_21h27.05.227,kallum_motion_pilot,2023.2.2,MacIntel,58.47953216,5b7b8153db11320001c412e8,65d6bb0e977760de756971f7,65d6bef0958801b618b98439,0.0303,0.0303,0,80,80,57,1,onethree,,,,,,,,,,,,,,,,,,,,,,,,,,,,,,,,,,,,,,,,,,,,,,,,,,,,,,,,,,,,,,,,,,,,,,,,,,,,,,,,,,,,,,,,,,,,,,,,,,,,,,,,,,,,,,,,,,,,,,,,,,,,,,,,,,,,,,,,,
,,5b7b8153db11320001c412e8,2024-02-21_21h27.05.227,kallum_motion_pilot,2023.2.2,MacIntel,58.47953216,5b7b8153db11320001c412e8,65d6bb0e977760de756971f7,65d6bef0958801b618b98439,0.0303,0.0303,0,81,81,152,1,fivesix,,,,,,,,,,,,,,,,,,,,,,,,,,,,,,,,,,,,,,,,,,,,,,,,,,,,,,,,,,,,,,,,,,,,,,,,,,,,,,,,,,,,,,,,,,,,,,,,,,,,,,,,,,,,,,,,,,,,,,,,,,,,,,,,,,,,,,,,,
,,5b7b8153db11320001c412e8,2024-02-21_21h27.05.227,kallum_motion_pilot,2023.2.2,MacIntel,58.47953216,5b7b8153db11320001c412e8,65d6bb0e977760de756971f7,65d6bef0958801b618b98439,0.0304,0.0304,0,82,82,140,1,sevenfive,,,,,,,,,,,,,,,,,,,,,,,,,,,,,,,,,,,,,,,,,,,,,,,,,,,,,,,,,,,,,,,,,,,,,,,,,,,,,,,,,,,,,,,,,,,,,,,,,,,,,,,,,,,,,,,,,,,,,,,,,,,,,,,,,,,,,,,,,
,,5b7b8153db11320001c412e8,2024-02-21_21h27.05.227,kallum_motion_pilot,2023.2.2,MacIntel,58.47953216,5b7b8153db11320001c412e8,65d6bb0e977760de756971f7,65d6bef0958801b618b98439,0.0306,0.0306,0,83,83,85,1,seveneight,,,,,,,,,,,,,,,,,,,,,,,,,,,,,,,,,,,,,,,,,,,,,,,,,,,,,,,,,,,,,,,,,,,,,,,,,,,,,,,,,,,,,,,,,,,,,,,,,,,,,,,,,,,,,,,,,,,,,,,,,,,,,,,,,,,,,,,,,
,,5b7b8153db11320001c412e8,2024-02-21_21h27.05.227,kallum_motion_pilot,2023.2.2,MacIntel,58.47953216,5b7b8153db11320001c412e8,65d6bb0e977760de756971f7,65d6bef0958801b618b98439,0.0306,0.0307,0,84,84,160,1,fivesix,,,,,,,,,,,,,,,,,,,,,,,,,,,,,,,,,,,,,,,,,,,,,,,,,,,,,,,,,,,,,,,,,,,,,,,,,,,,,,,,,,,,,,,,,,,,,,,,,,,,,,,,,,,,,,,,,,,,,,,,,,,,,,,,,,,,,,,,,
,,5b7b8153db11320001c412e8,2024-02-21_21h27.05.227,kallum_motion_pilot,2023.2.2,MacIntel,58.47953216,5b7b8153db11320001c412e8,65d6bb0e977760de756971f7,65d6bef0958801b618b98439,0.0308,0.0308,0,85,85,16,1,onetwo,,,,,,,,,,,,,,,,,,,,,,,,,,,,,,,,,,,,,,,,,,,,,,,,,,,,,,,,,,,,,,,,,,,,,,,,,,,,,,,,,,,,,,,,,,,,,,,,,,,,,,,,,,,,,,,,,,,,,,,,,,,,,,,,,,,,,,,,,
,,5b7b8153db11320001c412e8,2024-02-21_21h27.05.227,kallum_motion_pilot,2023.2.2,MacIntel,58.47953216,5b7b8153db11320001c412e8,65d6bb0e977760de756971f7,65d6bef0958801b618b98439,0.0308,0.0309,0,86,86,67,1,twofour,,,,,,,,,,,,,,,,,,,,,,,,,,,,,,,,,,,,,,,,,,,,,,,,,,,,,,,,,,,,,,,,,,,,,,,,,,,,,,,,,,,,,,,,,,,,,,,,,,,,,,,,,,,,,,,,,,,,,,,,,,,,,,,,,,,,,,,,,
,,5b7b8153db11320001c412e8,2024-02-21_21h27.05.227,kallum_motion_pilot,2023.2.2,MacIntel,58.47953216,5b7b8153db11320001c412e8,65d6bb0e977760de756971f7,65d6bef0958801b618b98439,0.0309,0.031,0,87,87,109,1,seveneight,,,,,,,,,,,,,,,,,,,,,,,,,,,,,,,,,,,,,,,,,,,,,,,,,,,,,,,,,,,,,,,,,,,,,,,,,,,,,,,,,,,,,,,,,,,,,,,,,,,,,,,,,,,,,,,,,,,,,,,,,,,,,,,,,,,,,,,,,
,,5b7b8153db11320001c412e8,2024-02-21_21h27.05.227,kallum_motion_pilot,2023.2.2,MacIntel,58.47953216,5b7b8153db11320001c412e8,65d6bb0e977760de756971f7,65d6bef0958801b618b98439,0.0311,0.0311,0,88,88,77,1,threefour,,,,,,,,,,,,,,,,,,,,,,,,,,,,,,,,,,,,,,,,,,,,,,,,,,,,,,,,,,,,,,,,,,,,,,,,,,,,,,,,,,,,,,,,,,,,,,,,,,,,,,,,,,,,,,,,,,,,,,,,,,,,,,,,,,,,,,,,,
,,5b7b8153db11320001c412e8,2024-02-21_21h27.05.227,kallum_motion_pilot,2023.2.2,MacIntel,58.47953216,5b7b8153db11320001c412e8,65d6bb0e977760de756971f7,65d6bef0958801b618b98439,0.0311,0.0312,0,89,89,123,1,sixeight,,,,,,,,,,,,,,,,,,,,,,,,,,,,,,,,,,,,,,,,,,,,,,,,,,,,,,,,,,,,,,,,,,,,,,,,,,,,,,,,,,,,,,,,,,,,,,,,,,,,,,,,,,,,,,,,,,,,,,,,,,,,,,,,,,,,,,,,,
,,5b7b8153db11320001c412e8,2024-02-21_21h27.05.227,kallum_motion_pilot,2023.2.2,MacIntel,58.47953216,5b7b8153db11320001c412e8,65d6bb0e977760de756971f7,65d6bef0958801b618b98439,0.0312,0.0313,0,90,90,21,1,threefour,,,,,,,,,,,,,,,,,,,,,,,,,,,,,,,,,,,,,,,,,,,,,,,,,,,,,,,,,,,,,,,,,,,,,,,,,,,,,,,,,,,,,,,,,,,,,,,,,,,,,,,,,,,,,,,,,,,,,,,,,,,,,,,,,,,,,,,,,
,,5b7b8153db11320001c412e8,2024-02-21_21h27.05.227,kallum_motion_pilot,2023.2.2,MacIntel,58.47953216,5b7b8153db11320001c412e8,65d6bb0e977760de756971f7,65d6bef0958801b618b98439,0.0314,0.0314,0,91,91,61,1,threefour,,,,,,,,,,,,,,,,,,,,,,,,,,,,,,,,,,,,,,,,,,,,,,,,,,,,,,,,,,,,,,,,,,,,,,,,,,,,,,,,,,,,,,,,,,,,,,,,,,,,,,,,,,,,,,,,,,,,,,,,,,,,,,,,,,,,,,,,,
,,5b7b8153db11320001c412e8,2024-02-21_21h27.05.227,kallum_motion_pilot,2023.2.2,MacIntel,58.47953216,5b7b8153db11320001c412e8,65d6bb0e977760de756971f7,65d6bef0958801b618b98439,0.0315,0.0315,0,92,92,71,1,fourthree,,,,,,,,,,,,,,,,,,,,,,,,,,,,,,,,,,,,,,,,,,,,,,,,,,,,,,,,,,,,,,,,,,,,,,,,,,,,,,,,,,,,,,,,,,,,,,,,,,,,,,,,,,,,,,,,,,,,,,,,,,,,,,,,,,,,,,,,,
,,5b7b8153db11320001c412e8,2024-02-21_21h27.05.227,kallum_motion_pilot,2023.2.2,MacIntel,58.47953216,5b7b8153db11320001c412e8,65d6bb0e977760de756971f7,65d6bef0958801b618b98439,0.0316,0.0316,0,93,93,35,1,twofour,,,,,,,,,,,,,,,,,,,,,,,,,,,,,,,,,,,,,,,,,,,,,,,,,,,,,,,,,,,,,,,,,,,,,,,,,,,,,,,,,,,,,,,,,,,,,,,,,,,,,,,,,,,,,,,,,,,,,,,,,,,,,,,,,,,,,,,,,
,,5b7b8153db11320001c412e8,2024-02-21_21h27.05.227,kallum_motion_pilot,2023.2.2,MacIntel,58.47953216,5b7b8153db11320001c412e8,65d6bb0e977760de756971f7,65d6bef0958801b618b98439,0.0317,0.0317,0,94,94,25,1,onethree,,,,,,,,,,,,,,,,,,,,,,,,,,,,,,,,,,,,,,,,,,,,,,,,,,,,,,,,,,,,,,,,,,,,,,,,,,,,,,,,,,,,,,,,,,,,,,,,,,,,,,,,,,,,,,,,,,,,,,,,,,,,,,,,,,,,,,,,,
,,5b7b8153db11320001c412e8,2024-02-21_21h27.05.227,kallum_motion_pilot,2023.2.2,MacIntel,58.47953216,5b7b8153db11320001c412e8,65d6bb0e977760de756971f7,65d6bef0958801b618b98439,0.0317,0.0318,0,95,95,29,1,threefour,,,,,,,,,,,,,,,,,,,,,,,,,,,,,,,,,,,,,,,,,,,,,,,,,,,,,,,,,,,,,,,,,,,,,,,,,,,,,,,,,,,,,,,,,,,,,,,,,,,,,,,,,,,,,,,,,,,,,,,,,,,,,,,,,,,,,,,,,
,,5b7b8153db11320001c412e8,2024-02-21_21h27.05.227,kallum_motion_pilot,2023.2.2,MacIntel,58.47953216,5b7b8153db11320001c412e8,65d6bb0e977760de756971f7,65d6bef0958801b618b98439,0.0318,0.0319,0,96,96,117,1,seveneight,,,,,,,,,,,,,,,,,,,,,,,,,,,,,,,,,,,,,,,,,,,,,,,,,,,,,,,,,,,,,,,,,,,,,,,,,,,,,,,,,,,,,,,,,,,,,,,,,,,,,,,,,,,,,,,,,,,,,,,,,,,,,,,,,,,,,,,,,
,,5b7b8153db11320001c412e8,2024-02-21_21h27.05.227,kallum_motion_pilot,2023.2.2,MacIntel,58.47953216,5b7b8153db11320001c412e8,65d6bb0e977760de756971f7,65d6bef0958801b618b98439,0.032,0.032,0,97,97,153,1,fiveseven,,,,,,,,,,,,,,,,,,,,,,,,,,,,,,,,,,,,,,,,,,,,,,,,,,,,,,,,,,,,,,,,,,,,,,,,,,,,,,,,,,,,,,,,,,,,,,,,,,,,,,,,,,,,,,,,,,,,,,,,,,,,,,,,,,,,,,,,,
,,5b7b8153db11320001c412e8,2024-02-21_21h27.05.227,kallum_motion_pilot,2023.2.2,MacIntel,58.47953216,5b7b8153db11320001c412e8,65d6bb0e977760de756971f7,65d6bef0958801b618b98439,0.0321,0.0322,0,98,98,31,1,fourthree,,,,,,,,,,,,,,,,,,,,,,,,,,,,,,,,,,,,,,,,,,,,,,,,,,,,,,,,,,,,,,,,,,,,,,,,,,,,,,,,,,,,,,,,,,,,,,,,,,,,,,,,,,,,,,,,,,,,,,,,,,,,,,,,,,,,,,,,,
,,5b7b8153db11320001c412e8,2024-02-21_21h27.05.227,kallum_motion_pilot,2023.2.2,MacIntel,58.47953216,5b7b8153db11320001c412e8,65d6bb0e977760de756971f7,65d6bef0958801b618b98439,0.0322,0.0322,0,99,99,113,1,fiveseven,,,,,,,,,,,,,,,,,,,,,,,,,,,,,,,,,,,,,,,,,,,,,,,,,,,,,,,,,,,,,,,,,,,,,,,,,,,,,,,,,,,,,,,,,,,,,,,,,,,,,,,,,,,,,,,,,,,,,,,,,,,,,,,,,,,,,,,,,
,,5b7b8153db11320001c412e8,2024-02-21_21h27.05.227,kallum_motion_pilot,2023.2.2,MacIntel,58.47953216,5b7b8153db11320001c412e8,65d6bb0e977760de756971f7,65d6bef0958801b618b98439,0.0323,0.0323,0,100,100,33,1,onethree,,,,,,,,,,,,,,,,,,,,,,,,,,,,,,,,,,,,,,,,,,,,,,,,,,,,,,,,,,,,,,,,,,,,,,,,,,,,,,,,,,,,,,,,,,,,,,,,,,,,,,,,,,,,,,,,,,,,,,,,,,,,,,,,,,,,,,,,,
,,5b7b8153db11320001c412e8,2024-02-21_21h27.05.227,kallum_motion_pilot,2023.2.2,MacIntel,58.47953216,5b7b8153db11320001c412e8,65d6bb0e977760de756971f7,65d6bef0958801b618b98439,0.0324,0.0325,0,101,101,121,1,fiveseven,,,,,,,,,,,,,,,,,,,,,,,,,,,,,,,,,,,,,,,,,,,,,,,,,,,,,,,,,,,,,,,,,,,,,,,,,,,,,,,,,,,,,,,,,,,,,,,,,,,,,,,,,,,,,,,,,,,,,,,,,,,,,,,,,,,,,,,,,
,,5b7b8153db11320001c412e8,2024-02-21_21h27.05.227,kallum_motion_pilot,2023.2.2,MacIntel,58.47953216,5b7b8153db11320001c412e8,65d6bb0e977760de756971f7,65d6bef0958801b618b98439,0.0325,0.0326,0,102,102,30,1,fourtwo,,,,,,,,,,,,,,,,,,,,,,,,,,,,,,,,,,,,,,,,,,,,,,,,,,,,,,,,,,,,,,,,,,,,,,,,,,,,,,,,,,,,,,,,,,,,,,,,,,,,,,,,,,,,,,,,,,,,,,,,,,,,,,,,,,,,,,,,,
,,5b7b8153db11320001c412e8,2024-02-21_21h27.05.227,kallum_motion_pilot,2023.2.2,MacIntel,58.47953216,5b7b8153db11320001c412e8,65d6bb0e977760de756971f7,65d6bef0958801b618b98439,0.0327,0.0327,0,103,103,60,1,threeone,,,,,,,,,,,,,,,,,,,,,,,,,,,,,,,,,,,,,,,,,,,,,,,,,,,,,,,,,,,,,,,,,,,,,,,,,,,,,,,,,,,,,,,,,,,,,,,,,,,,,,,,,,,,,,,,,,,,,,,,,,,,,,,,,,,,,,,,,
,,5b7b8153db11320001c412e8,2024-02-21_21h27.05.227,kallum_motion_pilot,2023.2.2,MacIntel,58.47953216,5b7b8153db11320001c412e8,65d6bb0e977760de756971f7,65d6bef0958801b618b98439,0.0328,0.0328,0,104,104,141,1,seveneight,,,,,,,,,,,,,,,,,,,,,,,,,,,,,,,,,,,,,,,,,,,,,,,,,,,,,,,,,,,,,,,,,,,,,,,,,,,,,,,,,,,,,,,,,,,,,,,,,,,,,,,,,,,,,,,,,,,,,,,,,,,,,,,,,,,,,,,,,
,,5b7b8153db11320001c412e8,2024-02-21_21h27.05.227,kallum_motion_pilot,2023.2.2,MacIntel,58.47953216,5b7b8153db11320001c412e8,65d6bb0e977760de756971f7,65d6bef0958801b618b98439,0.0329,0.033,0,105,105,15,1,fourthree,,,,,,,,,,,,,,,,,,,,,,,,,,,,,,,,,,,,,,,,,,,,,,,,,,,,,,,,,,,,,,,,,,,,,,,,,,,,,,,,,,,,,,,,,,,,,,,,,,,,,,,,,,,,,,,,,,,,,,,,,,,,,,,,,,,,,,,,,
,,5b7b8153db11320001c412e8,2024-02-21_21h27.05.227,kallum_motion_pilot,2023.2.2,MacIntel,58.47953216,5b7b8153db11320001c412e8,65d6bb0e977760de756971f7,65d6bef0958801b618b98439,0.033,0.0331,0,106,106,2,1,twoone,,,,,,,,,,,,,,,,,,,,,,,,,,,,,,,,,,,,,,,,,,,,,,,,,,,,,,,,,,,,,,,,,,,,,,,,,,,,,,,,,,,,,,,,,,,,,,,,,,,,,,,,,,,,,,,,,,,,,,,,,,,,,,,,,,,,,,,,,
,,5b7b8153db11320001c412e8,2024-02-21_21h27.05.227,kallum_motion_pilot,2023.2.2,MacIntel,58.47953216,5b7b8153db11320001c412e8,65d6bb0e977760de756971f7,65d6bef0958801b618b98439,0.0331,0.0331,0,107,107,127,1,eightseven,,,,,,,,,,,,,,,,,,,,,,,,,,,,,,,,,,,,,,,,,,,,,,,,,,,,,,,,,,,,,,,,,,,,,,,,,,,,,,,,,,,,,,,,,,,,,,,,,,,,,,,,,,,,,,,,,,,,,,,,,,,,,,,,,,,,,,,,,
,,5b7b8153db11320001c412e8,2024-02-21_21h27.05.227,kallum_motion_pilot,2023.2.2,MacIntel,58.47953216,5b7b8153db11320001c412e8,65d6bb0e977760de756971f7,65d6bef0958801b618b98439,0.0333,0.0333,0,108,108,6,1,fourtwo,,,,,,,,,,,,,,,,,,,,,,,,,,,,,,,,,,,,,,,,,,,,,,,,,,,,,,,,,,,,,,,,,,,,,,,,,,,,,,,,,,,,,,,,,,,,,,,,,,,,,,,,,,,,,,,,,,,,,,,,,,,,,,,,,,,,,,,,,
,,5b7b8153db11320001c412e8,2024-02-21_21h27.05.227,kallum_motion_pilot,2023.2.2,MacIntel,58.47953216,5b7b8153db11320001c412e8,65d6bb0e977760de756971f7,65d6bef0958801b618b98439,0.0334,0.0334,0,109,109,8,1,onetwo,,,,,,,,,,,,,,,,,,,,,,,,,,,,,,,,,,,,,,,,,,,,,,,,,,,,,,,,,,,,,,,,,,,,,,,,,,,,,,,,,,,,,,,,,,,,,,,,,,,,,,,,,,,,,,,,,,,,,,,,,,,,,,,,,,,,,,,,,
,,5b7b8153db11320001c412e8,2024-02-21_21h27.05.227,kallum_motion_pilot,2023.2.2,MacIntel,58.47953216,5b7b8153db11320001c412e8,65d6bb0e977760de756971f7,65d6bef0958801b618b98439,0.0334,0.0335,0,110,110,158,1,eightsix,,,,,,,,,,,,,,,,,,,,,,,,,,,,,,,,,,,,,,,,,,,,,,,,,,,,,,,,,,,,,,,,,,,,,,,,,,,,,,,,,,,,,,,,,,,,,,,,,,,,,,,,,,,,,,,,,,,,,,,,,,,,,,,,,,,,,,,,,
,,5b7b8153db11320001c412e8,2024-02-21_21h27.05.227,kallum_motion_pilot,2023.2.2,MacIntel,58.47953216,5b7b8153db11320001c412e8,65d6bb0e977760de756971f7,65d6bef0958801b618b98439,0.0335,0.0336,0,111,111,137,1,fiveseven,,,,,,,,,,,,,,,,,,,,,,,,,,,,,,,,,,,,,,,,,,,,,,,,,,,,,,,,,,,,,,,,,,,,,,,,,,,,,,,,,,,,,,,,,,,,,,,,,,,,,,,,,,,,,,,,,,,,,,,,,,,,,,,,,,,,,,,,,
,,5b7b8153db11320001c412e8,2024-02-21_21h27.05.227,kallum_motion_pilot,2023.2.2,MacIntel,58.47953216,5b7b8153db11320001c412e8,65d6bb0e977760de756971f7,65d6bef0958801b618b98439,0.0337,0.0337,0,112,112,83,1,sixeight,,,,,,,,,,,,,,,,,,,,,,,,,,,,,,,,,,,,,,,,,,,,,,,,,,,,,,,,,,,,,,,,,,,,,,,,,,,,,,,,,,,,,,,,,,,,,,,,,,,,,,,,,,,,,,,,,,,,,,,,,,,,,,,,,,,,,,,,,
,,5b7b8153db11320001c412e8,2024-02-21_21h27.05.227,kallum_motion_pilot,2023.2.2,MacIntel,58.47953216,5b7b8153db11320001c412e8,65d6bb0e977760de756971f7,65d6bef0958801b618b98439,0.0337,0.0338,0,113,113,42,1,twoone,,,,,,,,,,,,,,,,,,,,,,,,,,,,,,,,,,,,,,,,,,,,,,,,,,,,,,,,,,,,,,,,,,,,,,,,,,,,,,,,,,,,,,,,,,,,,,,,,,,,,,,,,,,,,,,,,,,,,,,,,,,,,,,,,,,,,,,,,
,,5b7b8153db11320001c412e8,2024-02-21_21h27.05.227,kallum_motion_pilot,2023.2.2,MacIntel,58.47953216,5b7b8153db11320001c412e8,65d6bb0e977760de756971f7,65d6bef0958801b618b98439,0.0339,0.0339,0,114,114,138,1,sixfive,,,,,,,,,,,,,,,,,,,,,,,,,,,,,,,,,,,,,,,,,,,,,,,,,,,,,,,,,,,,,,,,,,,,,,,,,,,,,,,,,,,,,,,,,,,,,,,,,,,,,,,,,,,,,,,,,,,,,,,,,,,,,,,,,,,,,,,,,
,,5b7b8153db11320001c412e8,2024-02-21_21h27.05.227,kallum_motion_pilot,2023.2.2,MacIntel,58.47953216,5b7b8153db11320001c412e8,65d6bb0e977760de756971f7,65d6bef0958801b618b98439,0.034,0.034,0,115,115,26,1,twoone,,,,,,,,,,,,,,,,,,,,,,,,,,,,,,,,,,,,,,,,,,,,,,,,,,,,,,,,,,,,,,,,,,,,,,,,,,,,,,,,,,,,,,,,,,,,,,,,,,,,,,,,,,,,,,,,,,,,,,,,,,,,,,,,,,,,,,,,,
,,5b7b8153db11320001c412e8,2024-02-21_21h27.05.227,kallum_motion_pilot,2023.2.2,MacIntel,58.47953216,5b7b8153db11320001c412e8,65d6bb0e977760de756971f7,65d6bef0958801b618b98439,0.034,0.0341,0,116,116,161,1,fiveseven,,,,,,,,,,,,,,,,,,,,,,,,,,,,,,,,,,,,,,,,,,,,,,,,,,,,,,,,,,,,,,,,,,,,,,,,,,,,,,,,,,,,,,,,,,,,,,,,,,,,,,,,,,,,,,,,,,,,,,,,,,,,,,,,,,,,,,,,,
,,5b7b8153db11320001c412e8,2024-02-21_21h27.05.227,kallum_motion_pilot,2023.2.2,MacIntel,58.47953216,5b7b8153db11320001c412e8,65d6bb0e977760de756971f7,65d6bef0958801b618b98439,0.0341,0.0342,0,117,117,4,1,threeone,,,,,,,,,,,,,,,,,,,,,,,,,,,,,,,,,,,,,,,,,,,,,,,,,,,,,,,,,,,,,,,,,,,,,,,,,,,,,,,,,,,,,,,,,,,,,,,,,,,,,,,,,,,,,,,,,,,,,,,,,,,,,,,,,,,,,,,,,
,,5b7b8153db11320001c412e8,2024-02-21_21h27.05.227,kallum_motion_pilot,2023.2.2,MacIntel,58.47953216,5b7b8153db11320001c412e8,65d6bb0e977760de756971f7,65d6bef0958801b618b98439,0.0342,0.0343,0,118,118,73,1,onethree,,,,,,,,,,,,,,,,,,,,,,,,,,,,,,,,,,,,,,,,,,,,,,,,,,,,,,,,,,,,,,,,,,,,,,,,,,,,,,,,,,,,,,,,,,,,,,,,,,,,,,,,,,,,,,,,,,,,,,,,,,,,,,,,,,,,,,,,,
,,5b7b8153db11320001c412e8,2024-02-21_21h27.05.227,kallum_motion_pilot,2023.2.2,MacIntel,58.47953216,5b7b8153db11320001c412e8,65d6bb0e977760de756971f7,65d6bef0958801b618b98439,0.0344,0.0344,0,119,119,53,1,threefour,,,,,,,,,,,,,,,,,,,,,,,,,,,,,,,,,,,,,,,,,,,,,,,,,,,,,,,,,,,,,,,,,,,,,,,,,,,,,,,,,,,,,,,,,,,,,,,,,,,,,,,,,,,,,,,,,,,,,,,,,,,,,,,,,,,,,,,,,
,,5b7b8153db11320001c412e8,2024-02-21_21h27.05.227,kallum_motion_pilot,2023.2.2,MacIntel,58.47953216,5b7b8153db11320001c412e8,65d6bb0e977760de756971f7,65d6bef0958801b618b98439,0.0345,0.0345,0,120,120,43,1,twofour,,,,,,,,,,,,,,,,,,,,,,,,,,,,,,,,,,,,,,,,,,,,,,,,,,,,,,,,,,,,,,,,,,,,,,,,,,,,,,,,,,,,,,,,,,,,,,,,,,,,,,,,,,,,,,,,,,,,,,,,,,,,,,,,,,,,,,,,,
,,5b7b8153db11320001c412e8,2024-02-21_21h27.05.227,kallum_motion_pilot,2023.2.2,MacIntel,58.47953216,5b7b8153db11320001c412e8,65d6bb0e977760de756971f7,65d6bef0958801b618b98439,0.0347,0.0347,0,121,121,78,1,fourtwo,,,,,,,,,,,,,,,,,,,,,,,,,,,,,,,,,,,,,,,,,,,,,,,,,,,,,,,,,,,,,,,,,,,,,,,,,,,,,,,,,,,,,,,,,,,,,,,,,,,,,,,,,,,,,,,,,,,,,,,,,,,,,,,,,,,,,,,,,
,,5b7b8153db11320001c412e8,2024-02-21_21h27.05.227,kallum_motion_pilot,2023.2.2,MacIntel,58.47953216,5b7b8153db11320001c412e8,65d6bb0e977760de756971f7,65d6bef0958801b618b98439,0.0347,0.0348,0,122,122,122,1,sixfive,,,,,,,,,,,,,,,,,,,,,,,,,,,,,,,,,,,,,,,,,,,,,,,,,,,,,,,,,,,,,,,,,,,,,,,,,,,,,,,,,,,,,,,,,,,,,,,,,,,,,,,,,,,,,,,,,,,,,,,,,,,,,,,,,,,,,,,,,
,,5b7b8153db11320001c412e8,2024-02-21_21h27.05.227,kallum_motion_pilot,2023.2.2,MacIntel,58.47953216,5b7b8153db11320001c412e8,65d6bb0e977760de756971f7,65d6bef0958801b618b98439,0.0348,0.0349,0,123,123,101,1,seveneight,,,,,,,,,,,,,,,,,,,,,,,,,,,,,,,,,,,,,,,,,,,,,,,,,,,,,,,,,,,,,,,,,,,,,,,,,,,,,,,,,,,,,,,,,,,,,,,,,,,,,,,,,,,,,,,,,,,,,,,,,,,,,,,,,,,,,,,,,
,,5b7b8153db11320001c412e8,2024-02-21_21h27.05.227,kallum_motion_pilot,2023.2.2,MacIntel,58.47953216,5b7b8153db11320001c412e8,65d6bb0e977760de756971f7,65d6bef0958801b618b98439,0.035,0.0351,0,124,124,94,1,eightsix,,,,,,,,,,,,,,,,,,,,,,,,,,,,,,,,,,,,,,,,,,,,,,,,,,,,,,,,,,,,,,,,,,,,,,,,,,,,,,,,,,,,,,,,,,,,,,,,,,,,,,,,,,,,,,,,,,,,,,,,,,,,,,,,,,,,,,,,,
,,5b7b8153db11320001c412e8,2024-02-21_21h27.05.227,kallum_motion_pilot,2023.2.2,MacIntel,58.47953216,5b7b8153db11320001c412e8,65d6bb0e977760de756971f7,65d6bef0958801b618b98439,0.0351,0.0352,0,125,125,38,1,fourtwo,,,,,,,,,,,,,,,,,,,,,,,,,,,,,,,,,,,,,,,,,,,,,,,,,,,,,,,,,,,,,,,,,,,,,,,,,,,,,,,,,,,,,,,,,,,,,,,,,,,,,,,,,,,,,,,,,,,,,,,,,,,,,,,,,,,,,,,,,
,,5b7b8153db11320001c412e8,2024-02-21_21h27.05.227,kallum_motion_pilot,2023.2.2,MacIntel,58.47953216,5b7b8153db11320001c412e8,65d6bb0e977760de756971f7,65d6bef0958801b618b98439,0.0353,0.0353,0,126,126,12,1,threeone,,,,,,,,,,,,,,,,,,,,,,,,,,,,,,,,,,,,,,,,,,,,,,,,,,,,,,,,,,,,,,,,,,,,,,,,,,,,,,,,,,,,,,,,,,,,,,,,,,,,,,,,,,,,,,,,,,,,,,,,,,,,,,,,,,,,,,,,,
,,5b7b8153db11320001c412e8,2024-02-21_21h27.05.227,kallum_motion_pilot,2023.2.2,MacIntel,58.47953216,5b7b8153db11320001c412e8,65d6bb0e977760de756971f7,65d6bef0958801b618b98439,0.0354,0.0354,0,127,127,64,1,onetwo,,,,,,,,,,,,,,,,,,,,,,,,,,,,,,,,,,,,,,,,,,,,,,,,,,,,,,,,,,,,,,,,,,,,,,,,,,,,,,,,,,,,,,,,,,,,,,,,,,,,,,,,,,,,,,,,,,,,,,,,,,,,,,,,,,,,,,,,,
,,5b7b8153db11320001c412e8,2024-02-21_21h27.05.227,kallum_motion_pilot,2023.2.2,MacIntel,58.47953216,5b7b8153db11320001c412e8,65d6bb0e977760de756971f7,65d6bef0958801b618b98439,0.0355,0.0356,0,128,128,22,1,fourtwo,,,,,,,,,,,,,,,,,,,,,,,,,,,,,,,,,,,,,,,,,,,,,,,,,,,,,,,,,,,,,,,,,,,,,,,,,,,,,,,,,,,,,,,,,,,,,,,,,,,,,,,,,,,,,,,,,,,,,,,,,,,,,,,,,,,,,,,,,
,,5b7b8153db11320001c412e8,2024-02-21_21h27.05.227,kallum_motion_pilot,2023.2.2,MacIntel,58.47953216,5b7b8153db11320001c412e8,65d6bb0e977760de756971f7,65d6bef0958801b618b98439,0.0356,0.0357,0,129,129,150,1,eightsix,,,,,,,,,,,,,,,,,,,,,,,,,,,,,,,,,,,,,,,,,,,,,,,,,,,,,,,,,,,,,,,,,,,,,,,,,,,,,,,,,,,,,,,,,,,,,,,,,,,,,,,,,,,,,,,,,,,,,,,,,,,,,,,,,,,,,,,,,
,,5b7b8153db11320001c412e8,2024-02-21_21h27.05.227,kallum_motion_pilot,2023.2.2,MacIntel,58.47953216,5b7b8153db11320001c412e8,65d6bb0e977760de756971f7,65d6bef0958801b618b98439,0.0357,0.0358,0,130,130,119,1,eightseven,,,,,,,,,,,,,,,,,,,,,,,,,,,,,,,,,,,,,,,,,,,,,,,,,,,,,,,,,,,,,,,,,,,,,,,,,,,,,,,,,,,,,,,,,,,,,,,,,,,,,,,,,,,,,,,,,,,,,,,,,,,,,,,,,,,,,,,,,
,,5b7b8153db11320001c412e8,2024-02-21_21h27.05.227,kallum_motion_pilot,2023.2.2,MacIntel,58.47953216,5b7b8153db11320001c412e8,65d6bb0e977760de756971f7,65d6bef0958801b618b98439,0.0359,0.0359,0,131,131,7,1,fourthree,,,,,,,,,,,,,,,,,,,,,,,,,,,,,,,,,,,,,,,,,,,,,,,,,,,,,,,,,,,,,,,,,,,,,,,,,,,,,,,,,,,,,,,,,,,,,,,,,,,,,,,,,,,,,,,,,,,,,,,,,,,,,,,,,,,,,,,,,
,,5b7b8153db11320001c412e8,2024-02-21_21h27.05.227,kallum_motion_pilot,2023.2.2,MacIntel,58.47953216,5b7b8153db11320001c412e8,65d6bb0e977760de756971f7,65d6bef0958801b618b98439,0.036,0.036,0,132,132,120,1,fivesix,,,,,,,,,,,,,,,,,,,,,,,,,,,,,,,,,,,,,,,,,,,,,,,,,,,,,,,,,,,,,,,,,,,,,,,,,,,,,,,,,,,,,,,,,,,,,,,,,,,,,,,,,,,,,,,,,,,,,,,,,,,,,,,,,,,,,,,,,
,,5b7b8153db11320001c412e8,2024-02-21_21h27.05.227,kallum_motion_pilot,2023.2.2,MacIntel,58.47953216,5b7b8153db11320001c412e8,65d6bb0e977760de756971f7,65d6bef0958801b618b98439,0.0361,0.0361,0,133,133,37,1,threefour,,,,,,,,,,,,,,,,,,,,,,,,,,,,,,,,,,,,,,,,,,,,,,,,,,,,,,,,,,,,,,,,,,,,,,,,,,,,,,,,,,,,,,,,,,,,,,,,,,,,,,,,,,,,,,,,,,,,,,,,,,,,,,,,,,,,,,,,,
,,5b7b8153db11320001c412e8,2024-02-21_21h27.05.227,kallum_motion_pilot,2023.2.2,MacIntel,58.47953216,5b7b8153db11320001c412e8,65d6bb0e977760de756971f7,65d6bef0958801b618b98439,0.0362,0.0363,0,134,134,139,1,sixeight,,,,,,,,,,,,,,,,,,,,,,,,,,,,,,,,,,,,,,,,,,,,,,,,,,,,,,,,,,,,,,,,,,,,,,,,,,,,,,,,,,,,,,,,,,,,,,,,,,,,,,,,,,,,,,,,,,,,,,,,,,,,,,,,,,,,,,,,,
,,5b7b8153db11320001c412e8,2024-02-21_21h27.05.227,kallum_motion_pilot,2023.2.2,MacIntel,58.47953216,5b7b8153db11320001c412e8,65d6bb0e977760de756971f7,65d6bef0958801b618b98439,0.0363,0.0364,0,135,135,3,1,twofour,,,,,,,,,,,,,,,,,,,,,,,,,,,,,,,,,,,,,,,,,,,,,,,,,,,,,,,,,,,,,,,,,,,,,,,,,,,,,,,,,,,,,,,,,,,,,,,,,,,,,,,,,,,,,,,,,,,,,,,,,,,,,,,,,,,,,,,,,
,,5b7b8153db11320001c412e8,2024-02-21_21h27.05.227,kallum_motion_pilot,2023.2.2,MacIntel,58.47953216,5b7b8153db11320001c412e8,65d6bb0e977760de756971f7,65d6bef0958801b618b98439,0.0364,0.0365,0,136,136,80,1,fivesix,,,,,,,,,,,,,,,,,,,,,,,,,,,,,,,,,,,,,,,,,,,,,,,,,,,,,,,,,,,,,,,,,,,,,,,,,,,,,,,,,,,,,,,,,,,,,,,,,,,,,,,,,,,,,,,,,,,,,,,,,,,,,,,,,,,,,,,,,
,,5b7b8153db11320001c412e8,2024-02-21_21h27.05.227,kallum_motion_pilot,2023.2.2,MacIntel,58.47953216,5b7b8153db11320001c412e8,65d6bb0e977760de756971f7,65d6bef0958801b618b98439,0.0365,0.0366,0,137,137,63,1,fourthree,,,,,,,,,,,,,,,,,,,,,,,,,,,,,,,,,,,,,,,,,,,,,,,,,,,,,,,,,,,,,,,,,,,,,,,,,,,,,,,,,,,,,,,,,,,,,,,,,,,,,,,,,,,,,,,,,,,,,,,,,,,,,,,,,,,,,,,,,
,,5b7b8153db11320001c412e8,2024-02-21_21h27.05.227,kallum_motion_pilot,2023.2.2,MacIntel,58.47953216,5b7b8153db11320001c412e8,65d6bb0e977760de756971f7,65d6bef0958801b618b98439,0.0367,0.0367,0,138,138,102,1,eightsix,,,,,,,,,,,,,,,,,,,,,,,,,,,,,,,,,,,,,,,,,,,,,,,,,,,,,,,,,,,,,,,,,,,,,,,,,,,,,,,,,,,,,,,,,,,,,,,,,,,,,,,,,,,,,,,,,,,,,,,,,,,,,,,,,,,,,,,,,
,,5b7b8153db11320001c412e8,2024-02-21_21h27.05.227,kallum_motion_pilot,2023.2.2,MacIntel,58.47953216,5b7b8153db11320001c412e8,65d6bb0e977760de756971f7,65d6bef0958801b618b98439,0.0367,0.0368,0,139,139,40,1,onetwo,,,,,,,,,,,,,,,,,,,,,,,,,,,,,,,,,,,,,,,,,,,,,,,,,,,,,,,,,,,,,,,,,,,,,,,,,,,,,,,,,,,,,,,,,,,,,,,,,,,,,,,,,,,,,,,,,,,,,,,,,,,,,,,,,,,,,,,,,
,,5b7b8153db11320001c412e8,2024-02-21_21h27.05.227,kallum_motion_pilot,2023.2.2,MacIntel,58.47953216,5b7b8153db11320001c412e8,65d6bb0e977760de756971f7,65d6bef0958801b618b98439,0.0369,0.0369,0,140,140,143,1,eightseven,,,,,,,,,,,,,,,,,,,,,,,,,,,,,,,,,,,,,,,,,,,,,,,,,,,,,,,,,,,,,,,,,,,,,,,,,,,,,,,,,,,,,,,,,,,,,,,,,,,,,,,,,,,,,,,,,,,,,,,,,,,,,,,,,,,,,,,,,
,,5b7b8153db11320001c412e8,2024-02-21_21h27.05.227,kallum_motion_pilot,2023.2.2,MacIntel,58.47953216,5b7b8153db11320001c412e8,65d6bb0e977760de756971f7,65d6bef0958801b618b98439,0.037,0.0371,0,141,141,48,1,onetwo,,,,,,,,,,,,,,,,,,,,,,,,,,,,,,,,,,,,,,,,,,,,,,,,,,,,,,,,,,,,,,,,,,,,,,,,,,,,,,,,,,,,,,,,,,,,,,,,,,,,,,,,,,,,,,,,,,,,,,,,,,,,,,,,,,,,,,,,,
,,5b7b8153db11320001c412e8,2024-02-21_21h27.05.227,kallum_motion_pilot,2023.2.2,MacIntel,58.47953216,5b7b8153db11320001c412e8,65d6bb0e977760de756971f7,65d6bef0958801b618b98439,0.0371,0.0372,0,142,142,11,1,twofour,,,,,,,,,,,,,,,,,,,,,,,,,,,,,,,,,,,,,,,,,,,,,,,,,,,,,,,,,,,,,,,,,,,,,,,,,,,,,,,,,,,,,,,,,,,,,,,,,,,,,,,,,,,,,,,,,,,,,,,,,,,,,,,,,,,,,,,,,
,,5b7b8153db11320001c412e8,2024-02-21_21h27.05.227,kallum_motion_pilot,2023.2.2,MacIntel,58.47953216,5b7b8153db11320001c412e8,65d6bb0e977760de756971f7,65d6bef0958801b618b98439,0.0372,0.0372,0,143,143,116,1,sevenfive,,,,,,,,,,,,,,,,,,,,,,,,,,,,,,,,,,,,,,,,,,,,,,,,,,,,,,,,,,,,,,,,,,,,,,,,,,,,,,,,,,,,,,,,,,,,,,,,,,,,,,,,,,,,,,,,,,,,,,,,,,,,,,,,,,,,,,,,,
,,5b7b8153db11320001c412e8,2024-02-21_21h27.05.227,kallum_motion_pilot,2023.2.2,MacIntel,58.47953216,5b7b8153db11320001c412e8,65d6bb0e977760de756971f7,65d6bef0958801b618b98439,0.0373,0.0373,0,144,144,92,1,sevenfive,,,,,,,,,,,,,,,,,,,,,,,,,,,,,,,,,,,,,,,,,,,,,,,,,,,,,,,,,,,,,,,,,,,,,,,,,,,,,,,,,,,,,,,,,,,,,,,,,,,,,,,,,,,,,,,,,,,,,,,,,,,,,,,,,,,,,,,,,
,,5b7b8153db11320001c412e8,2024-02-21_21h27.05.227,kallum_motion_pilot,2023.2.2,MacIntel,58.47953216,5b7b8153db11320001c412e8,65d6bb0e977760de756971f7,65d6bef0958801b618b98439,0.0374,0.0374,0,145,145,132,1,sevenfive,,,,,,,,,,,,,,,,,,,,,,,,,,,,,,,,,,,,,,,,,,,,,,,,,,,,,,,,,,,,,,,,,,,,,,,,,,,,,,,,,,,,,,,,,,,,,,,,,,,,,,,,,,,,,,,,,,,,,,,,,,,,,,,,,,,,,,,,,
,,5b7b8153db11320001c412e8,2024-02-21_21h27.05.227,kallum_motion_pilot,2023.2.2,MacIntel,58.47953216,5b7b8153db11320001c412e8,65d6bb0e977760de756971f7,65d6bef0958801b618b98439,0.0375,0.0376,0,146,146,59,1,twofour,,,,,,,,,,,,,,,,,,,,,,,,,,,,,,,,,,,,,,,,,,,,,,,,,,,,,,,,,,,,,,,,,,,,,,,,,,,,,,,,,,,,,,,,,,,,,,,,,,,,,,,,,,,,,,,,,,,,,,,,,,,,,,,,,,,,,,,,,
,,5b7b8153db11320001c412e8,2024-02-21_21h27.05.227,kallum_motion_pilot,2023.2.2,MacIntel,58.47953216,5b7b8153db11320001c412e8,65d6bb0e977760de756971f7,65d6bef0958801b618b98439,0.0376,0.0377,0,147,147,36,1,threeone,,,,,,,,,,,,,,,,,,,,,,,,,,,,,,,,,,,,,,,,,,,,,,,,,,,,,,,,,,,,,,,,,,,,,,,,,,,,,,,,,,,,,,,,,,,,,,,,,,,,,,,,,,,,,,,,,,,,,,,,,,,,,,,,,,,,,,,,,
,,5b7b8153db11320001c412e8,2024-02-21_21h27.05.227,kallum_motion_pilot,2023.2.2,MacIntel,58.47953216,5b7b8153db11320001c412e8,65d6bb0e977760de756971f7,65d6bef0958801b618b98439,0.0378,0.0378,0,148,148,39,1,fourthree,,,,,,,,,,,,,,,,,,,,,,,,,,,,,,,,,,,,,,,,,,,,,,,,,,,,,,,,,,,,,,,,,,,,,,,,,,,,,,,,,,,,,,,,,,,,,,,,,,,,,,,,,,,,,,,,,,,,,,,,,,,,,,,,,,,,,,,,,
,,5b7b8153db11320001c412e8,2024-02-21_21h27.05.227,kallum_motion_pilot,2023.2.2,MacIntel,58.47953216,5b7b8153db11320001c412e8,65d6bb0e977760de756971f7,65d6bef0958801b618b98439,0.0379,0.0379,0,149,149,149,1,seveneight,,,,,,,,,,,,,,,,,,,,,,,,,,,,,,,,,,,,,,,,,,,,,,,,,,,,,,,,,,,,,,,,,,,,,,,,,,,,,,,,,,,,,,,,,,,,,,,,,,,,,,,,,,,,,,,,,,,,,,,,,,,,,,,,,,,,,,,,,
,,5b7b8153db11320001c412e8,2024-02-21_21h27.05.227,kallum_motion_pilot,2023.2.2,MacIntel,58.47953216,5b7b8153db11320001c412e8,65d6bb0e977760de756971f7,65d6bef0958801b618b98439,0.038,0.0381,0,150,150,68,1,threeone,,,,,,,,,,,,,,,,,,,,,,,,,,,,,,,,,,,,,,,,,,,,,,,,,,,,,,,,,,,,,,,,,,,,,,,,,,,,,,,,,,,,,,,,,,,,,,,,,,,,,,,,,,,,,,,,,,,,,,,,,,,,,,,,,,,,,,,,,
,,5b7b8153db11320001c412e8,2024-02-21_21h27.05.227,kallum_motion_pilot,2023.2.2,MacIntel,58.47953216,5b7b8153db11320001c412e8,65d6bb0e977760de756971f7,65d6bef0958801b618b98439,0.0381,0.0382,0,151,151,17,1,onethree,,,,,,,,,,,,,,,,,,,,,,,,,,,,,,,,,,,,,,,,,,,,,,,,,,,,,,,,,,,,,,,,,,,,,,,,,,,,,,,,,,,,,,,,,,,,,,,,,,,,,,,,,,,,,,,,,,,,,,,,,,,,,,,,,,,,,,,,,
,,5b7b8153db11320001c412e8,2024-02-21_21h27.05.227,kallum_motion_pilot,2023.2.2,MacIntel,58.47953216,5b7b8153db11320001c412e8,65d6bb0e977760de756971f7,65d6bef0958801b618b98439,0.0382,0.0383,0,152,152,135,1,eightseven,,,,,,,,,,,,,,,,,,,,,,,,,,,,,,,,,,,,,,,,,,,,,,,,,,,,,,,,,,,,,,,,,,,,,,,,,,,,,,,,,,,,,,,,,,,,,,,,,,,,,,,,,,,,,,,,,,,,,,,,,,,,,,,,,,,,,,,,,
,,5b7b8153db11320001c412e8,2024-02-21_21h27.05.227,kallum_motion_pilot,2023.2.2,MacIntel,58.47953216,5b7b8153db11320001c412e8,65d6bb0e977760de756971f7,65d6bef0958801b618b98439,0.0383,0.0384,0,153,153,72,1,onetwo,,,,,,,,,,,,,,,,,,,,,,,,,,,,,,,,,,,,,,,,,,,,,,,,,,,,,,,,,,,,,,,,,,,,,,,,,,,,,,,,,,,,,,,,,,,,,,,,,,,,,,,,,,,,,,,,,,,,,,,,,,,,,,,,,,,,,,,,,
,,5b7b8153db11320001c412e8,2024-02-21_21h27.05.227,kallum_motion_pilot,2023.2.2,MacIntel,58.47953216,5b7b8153db11320001c412e8,65d6bb0e977760de756971f7,65d6bef0958801b618b98439,0.0384,0.0385,0,154,154,115,1,sixeight,,,,,,,,,,,,,,,,,,,,,,,,,,,,,,,,,,,,,,,,,,,,,,,,,,,,,,,,,,,,,,,,,,,,,,,,,,,,,,,,,,,,,,,,,,,,,,,,,,,,,,,,,,,,,,,,,,,,,,,,,,,,,,,,,,,,,,,,,
,,5b7b8153db11320001c412e8,2024-02-21_21h27.05.227,kallum_motion_pilot,2023.2.2,MacIntel,58.47953216,5b7b8153db11320001c412e8,65d6bb0e977760de756971f7,65d6bef0958801b618b98439,0.0386,0.0386,0,155,155,98,1,sixfive,,,,,,,,,,,,,,,,,,,,,,,,,,,,,,,,,,,,,,,,,,,,,,,,,,,,,,,,,,,,,,,,,,,,,,,,,,,,,,,,,,,,,,,,,,,,,,,,,,,,,,,,,,,,,,,,,,,,,,,,,,,,,,,,,,,,,,,,,
,,5b7b8153db11320001c412e8,2024-02-21_21h27.05.227,kallum_motion_pilot,2023.2.2,MacIntel,58.47953216,5b7b8153db11320001c412e8,65d6bb0e977760de756971f7,65d6bef0958801b618b98439,0.0387,0.0387,0,156,156,55,1,fourthree,,,,,,,,,,,,,,,,,,,,,,,,,,,,,,,,,,,,,,,,,,,,,,,,,,,,,,,,,,,,,,,,,,,,,,,,,,,,,,,,,,,,,,,,,,,,,,,,,,,,,,,,,,,,,,,,,,,,,,,,,,,,,,,,,,,,,,,,,
,,5b7b8153db11320001c412e8,2024-02-21_21h27.05.227,kallum_motion_pilot,2023.2.2,MacIntel,58.47953216,5b7b8153db11320001c412e8,65d6bb0e977760de756971f7,65d6bef0958801b618b98439,0.0388,0.0388,0,157,157,90,1,sixfive,,,,,,,,,,,,,,,,,,,,,,,,,,,,,,,,,,,,,,,,,,,,,,,,,,,,,,,,,,,,,,,,,,,,,,,,,,,,,,,,,,,,,,,,,,,,,,,,,,,,,,,,,,,,,,,,,,,,,,,,,,,,,,,,,,,,,,,,,
,,5b7b8153db11320001c412e8,2024-02-21_21h27.05.227,kallum_motion_pilot,2023.2.2,MacIntel,58.47953216,5b7b8153db11320001c412e8,65d6bb0e977760de756971f7,65d6bef0958801b618b98439,0.0389,0.039,0,158,158,5,1,threefour,,,,,,,,,,,,,,,,,,,,,,,,,,,,,,,,,,,,,,,,,,,,,,,,,,,,,,,,,,,,,,,,,,,,,,,,,,,,,,,,,,,,,,,,,,,,,,,,,,,,,,,,,,,,,,,,,,,,,,,,,,,,,,,,,,,,,,,,,
,,5b7b8153db11320001c412e8,2024-02-21_21h27.05.227,kallum_motion_pilot,2023.2.2,MacIntel,58.47953216,5b7b8153db11320001c412e8,65d6bb0e977760de756971f7,65d6bef0958801b618b98439,0.039,0.0391,0,159,159,91,1,sixeight,,,,,,,,,,,,,,,,,,,,,,,,,,,,,,,,,,,,,,,,,,,,,,,,,,,,,,,,,,,,,,,,,,,,,,,,,,,,,,,,,,,,,,,,,,,,,,,,,,,,,,,,,,,,,,,,,,,,,,,,,,,,,,,,,,,,,,,,,
,,5b7b8153db11320001c412e8,2024-02-21_21h27.05.227,kallum_motion_pilot,2023.2.2,MacIntel,58.47953216,5b7b8153db11320001c412e8,65d6bb0e977760de756971f7,65d6bef0958801b618b98439,0.0391,0.0391,0,160,160,105,1,fiveseven,,,,,,,,,,,,,,,,,,,,,,,,,,,,,,,,,,,,,,,,,,,,,,,,,,,,,,,,,,,,,,,,,,,,,,,,,,,,,,,,,,,,,,,,,,,,,,,,,,,,,,,,,,,,,,,,,,,,,,,,,,,,,,,,,,,,,,,,,
,,5b7b8153db11320001c412e8,2024-02-21_21h27.05.227,kallum_motion_pilot,2023.2.2,MacIntel,58.47953216,5b7b8153db11320001c412e8,65d6bb0e977760de756971f7,65d6bef0958801b618b98439,0.0392,0.0393,0,161,161,27,1,twofour,,,,,,,,,,,,,,,,,,,,,,,,,,,,,,,,,,,,,,,,,,,,,,,,,,,,,,,,,,,,,,,,,,,,,,,,,,,,,,,,,,,,,,,,,,,,,,,,,,,,,,,,,,,,,,,,,,,,,,,,,,,,,,,,,,,,,,,,,
,,5b7b8153db11320001c412e8,2024-02-21_21h27.05.227,kallum_motion_pilot,2023.2.2,MacIntel,58.47953216,5b7b8153db11320001c412e8,65d6bb0e977760de756971f7,65d6bef0958801b618b98439,0.0393,0.0394,1,0,162,7,1,fourthree,,,,,,,,,,,,,,,,,,,,,,,,,,,,,,,,,,,,,,,,,,,,,,,,,,,,,,,,,,,,,,,,,,,,,,,,,,,,,,,,,,,,,,,,,,,,,,,,,,,,,,,,,,,,,,,,,,,,,,,,,,,,,,,,,,,,,,,,,
,,5b7b8153db11320001c412e8,2024-02-21_21h27.05.227,kallum_motion_pilot,2023.2.2,MacIntel,58.47953216,5b7b8153db11320001c412e8,65d6bb0e977760de756971f7,65d6bef0958801b618b98439,0.0394,0.0396,1,1,163,142,1,eightsix,,,,,,,,,,,,,,,,,,,,,,,,,,,,,,,,,,,,,,,,,,,,,,,,,,,,,,,,,,,,,,,,,,,,,,,,,,,,,,,,,,,,,,,,,,,,,,,,,,,,,,,,,,,,,,,,,,,,,,,,,,,,,,,,,,,,,,,,,
,,5b7b8153db11320001c412e8,2024-02-21_21h27.05.227,kallum_motion_pilot,2023.2.2,MacIntel,58.47953216,5b7b8153db11320001c412e8,65d6bb0e977760de756971f7,65d6bef0958801b618b98439,0.0396,0.0396,1,2,164,113,1,fiveseven,,,,,,,,,,,,,,,,,,,,,,,,,,,,,,,,,,,,,,,,,,,,,,,,,,,,,,,,,,,,,,,,,,,,,,,,,,,,,,,,,,,,,,,,,,,,,,,,,,,,,,,,,,,,,,,,,,,,,,,,,,,,,,,,,,,,,,,,,
,,5b7b8153db11320001c412e8,2024-02-21_21h27.05.227,kallum_motion_pilot,2023.2.2,MacIntel,58.47953216,5b7b8153db11320001c412e8,65d6bb0e977760de756971f7,65d6bef0958801b618b98439,0.0397,0.0398,1,3,165,59,1,twofour,,,,,,,,,,,,,,,,,,,,,,,,,,,,,,,,,,,,,,,,,,,,,,,,,,,,,,,,,,,,,,,,,,,,,,,,,,,,,,,,,,,,,,,,,,,,,,,,,,,,,,,,,,,,,,,,,,,,,,,,,,,,,,,,,,,,,,,,,
,,5b7b8153db11320001c412e8,2024-02-21_21h27.05.227,kallum_motion_pilot,2023.2.2,MacIntel,58.47953216,5b7b8153db11320001c412e8,65d6bb0e977760de756971f7,65d6bef0958801b618b98439,0.0398,0.0398,1,4,166,143,1,eightseven,,,,,,,,,,,,,,,,,,,,,,,,,,,,,,,,,,,,,,,,,,,,,,,,,,,,,,,,,,,,,,,,,,,,,,,,,,,,,,,,,,,,,,,,,,,,,,,,,,,,,,,,,,,,,,,,,,,,,,,,,,,,,,,,,,,,,,,,,
,,5b7b8153db11320001c412e8,2024-02-21_21h27.05.227,kallum_motion_pilot,2023.2.2,MacIntel,58.47953216,5b7b8153db11320001c412e8,65d6bb0e977760de756971f7,65d6bef0958801b618b98439,0.0399,0.04,1,5,167,120,1,fivesix,,,,,,,,,,,,,,,,,,,,,,,,,,,,,,,,,,,,,,,,,,,,,,,,,,,,,,,,,,,,,,,,,,,,,,,,,,,,,,,,,,,,,,,,,,,,,,,,,,,,,,,,,,,,,,,,,,,,,,,,,,,,,,,,,,,,,,,,,
,,5b7b8153db11320001c412e8,2024-02-21_21h27.05.227,kallum_motion_pilot,2023.2.2,MacIntel,58.47953216,5b7b8153db11320001c412e8,65d6bb0e977760de756971f7,65d6bef0958801b618b98439,0.0401,0.0401,1,6,168,70,1,fourtwo,,,,,,,,,,,,,,,,,,,,,,,,,,,,,,,,,,,,,,,,,,,,,,,,,,,,,,,,,,,,,,,,,,,,,,,,,,,,,,,,,,,,,,,,,,,,,,,,,,,,,,,,,,,,,,,,,,,,,,,,,,,,,,,,,,,,,,,,,
,,5b7b8153db11320001c412e8,2024-02-21_21h27.05.227,kallum_motion_pilot,2023.2.2,MacIntel,58.47953216,5b7b8153db11320001c412e8,65d6bb0e977760de756971f7,65d6bef0958801b618b98439,0.0401,0.0402,1,7,169,148,1,sevenfive,,,,,,,,,,,,,,,,,,,,,,,,,,,,,,,,,,,,,,,,,,,,,,,,,,,,,,,,,,,,,,,,,,,,,,,,,,,,,,,,,,,,,,,,,,,,,,,,,,,,,,,,,,,,,,,,,,,,,,,,,,,,,,,,,,,,,,,,,
,,5b7b8153db11320001c412e8,2024-02-21_21h27.05.227,kallum_motion_pilot,2023.2.2,MacIntel,58.47953216,5b7b8153db11320001c412e8,65d6bb0e977760de756971f7,65d6bef0958801b618b98439,0.0403,0.0403,1,8,170,68,1,threeone,,,,,,,,,,,,,,,,,,,,,,,,,,,,,,,,,,,,,,,,,,,,,,,,,,,,,,,,,,,,,,,,,,,,,,,,,,,,,,,,,,,,,,,,,,,,,,,,,,,,,,,,,,,,,,,,,,,,,,,,,,,,,,,,,,,,,,,,,
,,5b7b8153db11320001c412e8,2024-02-21_21h27.05.227,kallum_motion_pilot,2023.2.2,MacIntel,58.47953216,5b7b8153db11320001c412e8,65d6bb0e977760de756971f7,65d6bef0958801b618b98439,0.0404,0.0404,1,9,171,16,1,onetwo,,,,,,,,,,,,,,,,,,,,,,,,,,,,,,,,,,,,,,,,,,,,,,,,,,,,,,,,,,,,,,,,,,,,,,,,,,,,,,,,,,,,,,,,,,,,,,,,,,,,,,,,,,,,,,,,,,,,,,,,,,,,,,,,,,,,,,,,,
,,5b7b8153db11320001c412e8,2024-02-21_21h27.05.227,kallum_motion_pilot,2023.2.2,MacIntel,58.47953216,5b7b8153db11320001c412e8,65d6bb0e977760de756971f7,65d6bef0958801b618b98439,0.0405,0.0406,1,10,172,135,1,eightseven,,,,,,,,,,,,,,,,,,,,,,,,,,,,,,,,,,,,,,,,,,,,,,,,,,,,,,,,,,,,,,,,,,,,,,,,,,,,,,,,,,,,,,,,,,,,,,,,,,,,,,,,,,,,,,,,,,,,,,,,,,,,,,,,,,,,,,,,,
,,5b7b8153db11320001c412e8,2024-02-21_21h27.05.227,kallum_motion_pilot,2023.2.2,MacIntel,58.47953216,5b7b8153db11320001c412e8,65d6bb0e977760de756971f7,65d6bef0958801b618b98439,0.0406,0.0407,1,11,173,62,1,fourtwo,,,,,,,,,,,,,,,,,,,,,,,,,,,,,,,,,,,,,,,,,,,,,,,,,,,,,,,,,,,,,,,,,,,,,,,,,,,,,,,,,,,,,,,,,,,,,,,,,,,,,,,,,,,,,,,,,,,,,,,,,,,,,,,,,,,,,,,,,
,,5b7b8153db11320001c412e8,2024-02-21_21h27.05.227,kallum_motion_pilot,2023.2.2,MacIntel,58.47953216,5b7b8153db11320001c412e8,65d6bb0e977760de756971f7,65d6bef0958801b618b98439,0.0408,0.0408,1,12,174,130,1,sixfive,,,,,,,,,,,,,,,,,,,,,,,,,,,,,,,,,,,,,,,,,,,,,,,,,,,,,,,,,,,,,,,,,,,,,,,,,,,,,,,,,,,,,,,,,,,,,,,,,,,,,,,,,,,,,,,,,,,,,,,,,,,,,,,,,,,,,,,,,
,,5b7b8153db11320001c412e8,2024-02-21_21h27.05.227,kallum_motion_pilot,2023.2.2,MacIntel,58.47953216,5b7b8153db11320001c412e8,65d6bb0e977760de756971f7,65d6bef0958801b618b98439,0.0409,0.0409,1,13,175,103,1,eightseven,,,,,,,,,,,,,,,,,,,,,,,,,,,,,,,,,,,,,,,,,,,,,,,,,,,,,,,,,,,,,,,,,,,,,,,,,,,,,,,,,,,,,,,,,,,,,,,,,,,,,,,,,,,,,,,,,,,,,,,,,,,,,,,,,,,,,,,,,
,,5b7b8153db11320001c412e8,2024-02-21_21h27.05.227,kallum_motion_pilot,2023.2.2,MacIntel,58.47953216,5b7b8153db11320001c412e8,65d6bb0e977760de756971f7,65d6bef0958801b618b98439,0.041,0.0411,1,14,176,72,1,onetwo,,,,,,,,,,,,,,,,,,,,,,,,,,,,,,,,,,,,,,,,,,,,,,,,,,,,,,,,,,,,,,,,,,,,,,,,,,,,,,,,,,,,,,,,,,,,,,,,,,,,,,,,,,,,,,,,,,,,,,,,,,,,,,,,,,,,,,,,,
,,5b7b8153db11320001c412e8,2024-02-21_21h27.05.227,kallum_motion_pilot,2023.2.2,MacIntel,58.47953216,5b7b8153db11320001c412e8,65d6bb0e977760de756971f7,65d6bef0958801b618b98439,0.0411,0.0412,1,15,177,32,1,onetwo,,,,,,,,,,,,,,,,,,,,,,,,,,,,,,,,,,,,,,,,,,,,,,,,,,,,,,,,,,,,,,,,,,,,,,,,,,,,,,,,,,,,,,,,,,,,,,,,,,,,,,,,,,,,,,,,,,,,,,,,,,,,,,,,,,,,,,,,,
,,5b7b8153db11320001c412e8,2024-02-21_21h27.05.227,kallum_motion_pilot,2023.2.2,MacIntel,58.47953216,5b7b8153db11320001c412e8,65d6bb0e977760de756971f7,65d6bef0958801b618b98439,0.0412,0.0413,1,16,178,139,1,sixeight,,,,,,,,,,,,,,,,,,,,,,,,,,,,,,,,,,,,,,,,,,,,,,,,,,,,,,,,,,,,,,,,,,,,,,,,,,,,,,,,,,,,,,,,,,,,,,,,,,,,,,,,,,,,,,,,,,,,,,,,,,,,,,,,,,,,,,,,,
,,5b7b8153db11320001c412e8,2024-02-21_21h27.05.227,kallum_motion_pilot,2023.2.2,MacIntel,58.47953216,5b7b8153db11320001c412e8,65d6bb0e977760de756971f7,65d6bef0958801b618b98439,0.0414,0.0415,1,17,179,91,1,sixeight,,,,,,,,,,,,,,,,,,,,,,,,,,,,,,,,,,,,,,,,,,,,,,,,,,,,,,,,,,,,,,,,,,,,,,,,,,,,,,,,,,,,,,,,,,,,,,,,,,,,,,,,,,,,,,,,,,,,,,,,,,,,,,,,,,,,,,,,,
,,5b7b8153db11320001c412e8,2024-02-21_21h27.05.227,kallum_motion_pilot,2023.2.2,MacIntel,58.47953216,5b7b8153db11320001c412e8,65d6bb0e977760de756971f7,65d6bef0958801b618b98439,0.0415,0.0415,1,18,180,152,1,fivesix,,,,,,,,,,,,,,,,,,,,,,,,,,,,,,,,,,,,,,,,,,,,,,,,,,,,,,,,,,,,,,,,,,,,,,,,,,,,,,,,,,,,,,,,,,,,,,,,,,,,,,,,,,,,,,,,,,,,,,,,,,,,,,,,,,,,,,,,,
,,5b7b8153db11320001c412e8,2024-02-21_21h27.05.227,kallum_motion_pilot,2023.2.2,MacIntel,58.47953216,5b7b8153db11320001c412e8,65d6bb0e977760de756971f7,65d6bef0958801b618b98439,0.0416,0.0417,1,19,181,58,1,twoone,,,,,,,,,,,,,,,,,,,,,,,,,,,,,,,,,,,,,,,,,,,,,,,,,,,,,,,,,,,,,,,,,,,,,,,,,,,,,,,,,,,,,,,,,,,,,,,,,,,,,,,,,,,,,,,,,,,,,,,,,,,,,,,,,,,,,,,,,
,,5b7b8153db11320001c412e8,2024-02-21_21h27.05.227,kallum_motion_pilot,2023.2.2,MacIntel,58.47953216,5b7b8153db11320001c412e8,65d6bb0e977760de756971f7,65d6bef0958801b618b98439,0.0417,0.0417,1,20,182,101,1,seveneight,,,,,,,,,,,,,,,,,,,,,,,,,,,,,,,,,,,,,,,,,,,,,,,,,,,,,,,,,,,,,,,,,,,,,,,,,,,,,,,,,,,,,,,,,,,,,,,,,,,,,,,,,,,,,,,,,,,,,,,,,,,,,,,,,,,,,,,,,
,,5b7b8153db11320001c412e8,2024-02-21_21h27.05.227,kallum_motion_pilot,2023.2.2,MacIntel,58.47953216,5b7b8153db11320001c412e8,65d6bb0e977760de756971f7,65d6bef0958801b618b98439,0.0419,0.0419,1,21,183,96,1,fivesix,,,,,,,,,,,,,,,,,,,,,,,,,,,,,,,,,,,,,,,,,,,,,,,,,,,,,,,,,,,,,,,,,,,,,,,,,,,,,,,,,,,,,,,,,,,,,,,,,,,,,,,,,,,,,,,,,,,,,,,,,,,,,,,,,,,,,,,,,
,,5b7b8153db11320001c412e8,2024-02-21_21h27.05.227,kallum_motion_pilot,2023.2.2,MacIntel,58.47953216,5b7b8153db11320001c412e8,65d6bb0e977760de756971f7,65d6bef0958801b618b98439,0.042,0.042,1,22,184,94,1,eightsix,,,,,,,,,,,,,,,,,,,,,,,,,,,,,,,,,,,,,,,,,,,,,,,,,,,,,,,,,,,,,,,,,,,,,,,,,,,,,,,,,,,,,,,,,,,,,,,,,,,,,,,,,,,,,,,,,,,,,,,,,,,,,,,,,,,,,,,,,
,,5b7b8153db11320001c412e8,2024-02-21_21h27.05.227,kallum_motion_pilot,2023.2.2,MacIntel,58.47953216,5b7b8153db11320001c412e8,65d6bb0e977760de756971f7,65d6bef0958801b618b98439,0.0421,0.0422,1,23,185,93,1,seveneight,,,,,,,,,,,,,,,,,,,,,,,,,,,,,,,,,,,,,,,,,,,,,,,,,,,,,,,,,,,,,,,,,,,,,,,,,,,,,,,,,,,,,,,,,,,,,,,,,,,,,,,,,,,,,,,,,,,,,,,,,,,,,,,,,,,,,,,,,
,,5b7b8153db11320001c412e8,2024-02-21_21h27.05.227,kallum_motion_pilot,2023.2.2,MacIntel,58.47953216,5b7b8153db11320001c412e8,65d6bb0e977760de756971f7,65d6bef0958801b618b98439,0.0422,0.0423,1,24,186,97,1,fiveseven,,,,,,,,,,,,,,,,,,,,,,,,,,,,,,,,,,,,,,,,,,,,,,,,,,,,,,,,,,,,,,,,,,,,,,,,,,,,,,,,,,,,,,,,,,,,,,,,,,,,,,,,,,,,,,,,,,,,,,,,,,,,,,,,,,,,,,,,,
,,5b7b8153db11320001c412e8,2024-02-21_21h27.05.227,kallum_motion_pilot,2023.2.2,MacIntel,58.47953216,5b7b8153db11320001c412e8,65d6bb0e977760de756971f7,65d6bef0958801b618b98439,0.0423,0.0424,1,25,187,9,1,onethree,,,,,,,,,,,,,,,,,,,,,,,,,,,,,,,,,,,,,,,,,,,,,,,,,,,,,,,,,,,,,,,,,,,,,,,,,,,,,,,,,,,,,,,,,,,,,,,,,,,,,,,,,,,,,,,,,,,,,,,,,,,,,,,,,,,,,,,,,
,,5b7b8153db11320001c412e8,2024-02-21_21h27.05.227,kallum_motion_pilot,2023.2.2,MacIntel,58.47953216,5b7b8153db11320001c412e8,65d6bb0e977760de756971f7,65d6bef0958801b618b98439,0.0424,0.0425,1,26,188,48,1,onetwo,,,,,,,,,,,,,,,,,,,,,,,,,,,,,,,,,,,,,,,,,,,,,,,,,,,,,,,,,,,,,,,,,,,,,,,,,,,,,,,,,,,,,,,,,,,,,,,,,,,,,,,,,,,,,,,,,,,,,,,,,,,,,,,,,,,,,,,,,
,,5b7b8153db11320001c412e8,2024-02-21_21h27.05.227,kallum_motion_pilot,2023.2.2,MacIntel,58.47953216,5b7b8153db11320001c412e8,65d6bb0e977760de756971f7,65d6bef0958801b618b98439,0.0426,0.0427,1,27,189,128,1,fivesix,,,,,,,,,,,,,,,,,,,,,,,,,,,,,,,,,,,,,,,,,,,,,,,,,,,,,,,,,,,,,,,,,,,,,,,,,,,,,,,,,,,,,,,,,,,,,,,,,,,,,,,,,,,,,,,,,,,,,,,,,,,,,,,,,,,,,,,,,
,,5b7b8153db11320001c412e8,2024-02-21_21h27.05.227,kallum_motion_pilot,2023.2.2,MacIntel,58.47953216,5b7b8153db11320001c412e8,65d6bb0e977760de756971f7,65d6bef0958801b618b98439,0.0427,0.0428,1,28,190,47,1,fourthree,,,,,,,,,,,,,,,,,,,,,,,,,,,,,,,,,,,,,,,,,,,,,,,,,,,,,,,,,,,,,,,,,,,,,,,,,,,,,,,,,,,,,,,,,,,,,,,,,,,,,,,,,,,,,,,,,,,,,,,,,,,,,,,,,,,,,,,,,
,,5b7b8153db11320001c412e8,2024-02-21_21h27.05.227,kallum_motion_pilot,2023.2.2,MacIntel,58.47953216,5b7b8153db11320001c412e8,65d6bb0e977760de756971f7,65d6bef0958801b618b98439,0.0429,0.0429,1,29,191,46,1,fourtwo,,,,,,,,,,,,,,,,,,,,,,,,,,,,,,,,,,,,,,,,,,,,,,,,,,,,,,,,,,,,,,,,,,,,,,,,,,,,,,,,,,,,,,,,,,,,,,,,,,,,,,,,,,,,,,,,,,,,,,,,,,,,,,,,,,,,,,,,,
,,5b7b8153db11320001c412e8,2024-02-21_21h27.05.227,kallum_motion_pilot,2023.2.2,MacIntel,58.47953216,5b7b8153db11320001c412e8,65d6bb0e977760de756971f7,65d6bef0958801b618b98439,0.043,0.043,1,30,192,5,1,threefour,,,,,,,,,,,,,,,,,,,,,,,,,,,,,,,,,,,,,,,,,,,,,,,,,,,,,,,,,,,,,,,,,,,,,,,,,,,,,,,,,,,,,,,,,,,,,,,,,,,,,,,,,,,,,,,,,,,,,,,,,,,,,,,,,,,,,,,,,
,,5b7b8153db11320001c412e8,2024-02-21_21h27.05.227,kallum_motion_pilot,2023.2.2,MacIntel,58.47953216,5b7b8153db11320001c412e8,65d6bb0e977760de756971f7,65d6bef0958801b618b98439,0.0431,0.0431,1,31,193,108,1,sevenfive,,,,,,,,,,,,,,,,,,,,,,,,,,,,,,,,,,,,,,,,,,,,,,,,,,,,,,,,,,,,,,,,,,,,,,,,,,,,,,,,,,,,,,,,,,,,,,,,,,,,,,,,,,,,,,,,,,,,,,,,,,,,,,,,,,,,,,,,,
,,5b7b8153db11320001c412e8,2024-02-21_21h27.05.227,kallum_motion_pilot,2023.2.2,MacIntel,58.47953216,5b7b8153db11320001c412e8,65d6bb0e977760de756971f7,65d6bef0958801b618b98439,0.0433,0.0433,1,32,194,18,1,twoone,,,,,,,,,,,,,,,,,,,,,,,,,,,,,,,,,,,,,,,,,,,,,,,,,,,,,,,,,,,,,,,,,,,,,,,,,,,,,,,,,,,,,,,,,,,,,,,,,,,,,,,,,,,,,,,,,,,,,,,,,,,,,,,,,,,,,,,,,
,,5b7b8153db11320001c412e8,2024-02-21_21h27.05.227,kallum_motion_pilot,2023.2.2,MacIntel,58.47953216,5b7b8153db11320001c412e8,65d6bb0e977760de756971f7,65d6bef0958801b618b98439,0.0433,0.0434,1,33,195,22,1,fourtwo,,,,,,,,,,,,,,,,,,,,,,,,,,,,,,,,,,,,,,,,,,,,,,,,,,,,,,,,,,,,,,,,,,,,,,,,,,,,,,,,,,,,,,,,,,,,,,,,,,,,,,,,,,,,,,,,,,,,,,,,,,,,,,,,,,,,,,,,,
,,5b7b8153db11320001c412e8,2024-02-21_21h27.05.227,kallum_motion_pilot,2023.2.2,MacIntel,58.47953216,5b7b8153db11320001c412e8,65d6bb0e977760de756971f7,65d6bef0958801b618b98439,0.0436,0.0436,1,34,196,99,1,sixeight,,,,,,,,,,,,,,,,,,,,,,,,,,,,,,,,,,,,,,,,,,,,,,,,,,,,,,,,,,,,,,,,,,,,,,,,,,,,,,,,,,,,,,,,,,,,,,,,,,,,,,,,,,,,,,,,,,,,,,,,,,,,,,,,,,,,,,,,,
,,5b7b8153db11320001c412e8,2024-02-21_21h27.05.227,kallum_motion_pilot,2023.2.2,MacIntel,58.47953216,5b7b8153db11320001c412e8,65d6bb0e977760de756971f7,65d6bef0958801b618b98439,0.0438,0.0438,1,35,197,34,1,twoone,,,,,,,,,,,,,,,,,,,,,,,,,,,,,,,,,,,,,,,,,,,,,,,,,,,,,,,,,,,,,,,,,,,,,,,,,,,,,,,,,,,,,,,,,,,,,,,,,,,,,,,,,,,,,,,,,,,,,,,,,,,,,,,,,,,,,,,,,
,,5b7b8153db11320001c412e8,2024-02-21_21h27.05.227,kallum_motion_pilot,2023.2.2,MacIntel,58.47953216,5b7b8153db11320001c412e8,65d6bb0e977760de756971f7,65d6bef0958801b618b98439,0.0439,0.044,1,36,198,60,1,threeone,,,,,,,,,,,,,,,,,,,,,,,,,,,,,,,,,,,,,,,,,,,,,,,,,,,,,,,,,,,,,,,,,,,,,,,,,,,,,,,,,,,,,,,,,,,,,,,,,,,,,,,,,,,,,,,,,,,,,,,,,,,,,,,,,,,,,,,,,
,,5b7b8153db11320001c412e8,2024-02-21_21h27.05.227,kallum_motion_pilot,2023.2.2,MacIntel,58.47953216,5b7b8153db11320001c412e8,65d6bb0e977760de756971f7,65d6bef0958801b618b98439,0.044,0.044,1,37,199,2,1,twoone,,,,,,,,,,,,,,,,,,,,,,,,,,,,,,,,,,,,,,,,,,,,,,,,,,,,,,,,,,,,,,,,,,,,,,,,,,,,,,,,,,,,,,,,,,,,,,,,,,,,,,,,,,,,,,,,,,,,,,,,,,,,,,,,,,,,,,,,,
,,5b7b8153db11320001c412e8,2024-02-21_21h27.05.227,kallum_motion_pilot,2023.2.2,MacIntel,58.47953216,5b7b8153db11320001c412e8,65d6bb0e977760de756971f7,65d6bef0958801b618b98439,0.0441,0.0442,1,38,200,74,1,twoone,,,,,,,,,,,,,,,,,,,,,,,,,,,,,,,,,,,,,,,,,,,,,,,,,,,,,,,,,,,,,,,,,,,,,,,,,,,,,,,,,,,,,,,,,,,,,,,,,,,,,,,,,,,,,,,,,,,,,,,,,,,,,,,,,,,,,,,,,
,,5b7b8153db11320001c412e8,2024-02-21_21h27.05.227,kallum_motion_pilot,2023.2.2,MacIntel,58.47953216,5b7b8153db11320001c412e8,65d6bb0e977760de756971f7,65d6bef0958801b618b98439,0.0443,0.0444,1,39,201,82,1,sixfive,,,,,,,,,,,,,,,,,,,,,,,,,,,,,,,,,,,,,,,,,,,,,,,,,,,,,,,,,,,,,,,,,,,,,,,,,,,,,,,,,,,,,,,,,,,,,,,,,,,,,,,,,,,,,,,,,,,,,,,,,,,,,,,,,,,,,,,,,
,,5b7b8153db11320001c412e8,2024-02-21_21h27.05.227,kallum_motion_pilot,2023.2.2,MacIntel,58.47953216,5b7b8153db11320001c412e8,65d6bb0e977760de756971f7,65d6bef0958801b618b98439,0.0444,0.0445,1,40,202,146,1,sixfive,,,,,,,,,,,,,,,,,,,,,,,,,,,,,,,,,,,,,,,,,,,,,,,,,,,,,,,,,,,,,,,,,,,,,,,,,,,,,,,,,,,,,,,,,,,,,,,,,,,,,,,,,,,,,,,,,,,,,,,,,,,,,,,,,,,,,,,,,
,,5b7b8153db11320001c412e8,2024-02-21_21h27.05.227,kallum_motion_pilot,2023.2.2,MacIntel,58.47953216,5b7b8153db11320001c412e8,65d6bb0e977760de756971f7,65d6bef0958801b618b98439,0.0446,0.0447,1,41,203,80,1,fivesix,,,,,,,,,,,,,,,,,,,,,,,,,,,,,,,,,,,,,,,,,,,,,,,,,,,,,,,,,,,,,,,,,,,,,,,,,,,,,,,,,,,,,,,,,,,,,,,,,,,,,,,,,,,,,,,,,,,,,,,,,,,,,,,,,,,,,,,,,
,,5b7b8153db11320001c412e8,2024-02-21_21h27.05.227,kallum_motion_pilot,2023.2.2,MacIntel,58.47953216,5b7b8153db11320001c412e8,65d6bb0e977760de756971f7,65d6bef0958801b618b98439,0.0447,0.0448,1,42,204,92,1,sevenfive,,,,,,,,,,,,,,,,,,,,,,,,,,,,,,,,,,,,,,,,,,,,,,,,,,,,,,,,,,,,,,,,,,,,,,,,,,,,,,,,,,,,,,,,,,,,,,,,,,,,,,,,,,,,,,,,,,,,,,,,,,,,,,,,,,,,,,,,,
,,5b7b8153db11320001c412e8,2024-02-21_21h27.05.227,kallum_motion_pilot,2023.2.2,MacIntel,58.47953216,5b7b8153db11320001c412e8,65d6bb0e977760de756971f7,65d6bef0958801b618b98439,0.0449,0.0449,1,43,205,53,1,threefour,,,,,,,,,,,,,,,,,,,,,,,,,,,,,,,,,,,,,,,,,,,,,,,,,,,,,,,,,,,,,,,,,,,,,,,,,,,,,,,,,,,,,,,,,,,,,,,,,,,,,,,,,,,,,,,,,,,,,,,,,,,,,,,,,,,,,,,,,
,,5b7b8153db11320001c412e8,2024-02-21_21h27.05.227,kallum_motion_pilot,2023.2.2,MacIntel,58.47953216,5b7b8153db11320001c412e8,65d6bb0e977760de756971f7,65d6bef0958801b618b98439,0.045,0.0451,1,44,206,129,1,fiveseven,,,,,,,,,,,,,,,,,,,,,,,,,,,,,,,,,,,,,,,,,,,,,,,,,,,,,,,,,,,,,,,,,,,,,,,,,,,,,,,,,,,,,,,,,,,,,,,,,,,,,,,,,,,,,,,,,,,,,,,,,,,,,,,,,,,,,,,,,
,,5b7b8153db11320001c412e8,2024-02-21_21h27.05.227,kallum_motion_pilot,2023.2.2,MacIntel,58.47953216,5b7b8153db11320001c412e8,65d6bb0e977760de756971f7,65d6bef0958801b618b98439,0.0452,0.0453,1,45,207,19,1,twofour,,,,,,,,,,,,,,,,,,,,,,,,,,,,,,,,,,,,,,,,,,,,,,,,,,,,,,,,,,,,,,,,,,,,,,,,,,,,,,,,,,,,,,,,,,,,,,,,,,,,,,,,,,,,,,,,,,,,,,,,,,,,,,,,,,,,,,,,,
,,5b7b8153db11320001c412e8,2024-02-21_21h27.05.227,kallum_motion_pilot,2023.2.2,MacIntel,58.47953216,5b7b8153db11320001c412e8,65d6bb0e977760de756971f7,65d6bef0958801b618b98439,0.0454,0.0454,1,46,208,69,1,threefour,,,,,,,,,,,,,,,,,,,,,,,,,,,,,,,,,,,,,,,,,,,,,,,,,,,,,,,,,,,,,,,,,,,,,,,,,,,,,,,,,,,,,,,,,,,,,,,,,,,,,,,,,,,,,,,,,,,,,,,,,,,,,,,,,,,,,,,,,
,,5b7b8153db11320001c412e8,2024-02-21_21h27.05.227,kallum_motion_pilot,2023.2.2,MacIntel,58.47953216,5b7b8153db11320001c412e8,65d6bb0e977760de756971f7,65d6bef0958801b618b98439,0.0455,0.0455,1,47,209,87,1,eightseven,,,,,,,,,,,,,,,,,,,,,,,,,,,,,,,,,,,,,,,,,,,,,,,,,,,,,,,,,,,,,,,,,,,,,,,,,,,,,,,,,,,,,,,,,,,,,,,,,,,,,,,,,,,,,,,,,,,,,,,,,,,,,,,,,,,,,,,,,
,,5b7b8153db11320001c412e8,2024-02-21_21h27.05.227,kallum_motion_pilot,2023.2.2,MacIntel,58.47953216,5b7b8153db11320001c412e8,65d6bb0e977760de756971f7,65d6bef0958801b618b98439,0.0456,0.0457,1,48,210,83,1,sixeight,,,,,,,,,,,,,,,,,,,,,,,,,,,,,,,,,,,,,,,,,,,,,,,,,,,,,,,,,,,,,,,,,,,,,,,,,,,,,,,,,,,,,,,,,,,,,,,,,,,,,,,,,,,,,,,,,,,,,,,,,,,,,,,,,,,,,,,,,
,,5b7b8153db11320001c412e8,2024-02-21_21h27.05.227,kallum_motion_pilot,2023.2.2,MacIntel,58.47953216,5b7b8153db11320001c412e8,65d6bb0e977760de756971f7,65d6bef0958801b618b98439,0.0458,0.0459,1,49,211,156,1,sevenfive,,,,,,,,,,,,,,,,,,,,,,,,,,,,,,,,,,,,,,,,,,,,,,,,,,,,,,,,,,,,,,,,,,,,,,,,,,,,,,,,,,,,,,,,,,,,,,,,,,,,,,,,,,,,,,,,,,,,,,,,,,,,,,,,,,,,,,,,,
,,5b7b8153db11320001c412e8,2024-02-21_21h27.05.227,kallum_motion_pilot,2023.2.2,MacIntel,58.47953216,5b7b8153db11320001c412e8,65d6bb0e977760de756971f7,65d6bef0958801b618b98439,0.0459,0.0461,1,50,212,79,1,eightseven,,,,,,,,,,,,,,,,,,,,,,,,,,,,,,,,,,,,,,,,,,,,,,,,,,,,,,,,,,,,,,,,,,,,,,,,,,,,,,,,,,,,,,,,,,,,,,,,,,,,,,,,,,,,,,,,,,,,,,,,,,,,,,,,,,,,,,,,,
,,5b7b8153db11320001c412e8,2024-02-21_21h27.05.227,kallum_motion_pilot,2023.2.2,MacIntel,58.47953216,5b7b8153db11320001c412e8,65d6bb0e977760de756971f7,65d6bef0958801b618b98439,0.0461,0.0462,1,51,213,54,1,fourtwo,,,,,,,,,,,,,,,,,,,,,,,,,,,,,,,,,,,,,,,,,,,,,,,,,,,,,,,,,,,,,,,,,,,,,,,,,,,,,,,,,,,,,,,,,,,,,,,,,,,,,,,,,,,,,,,,,,,,,,,,,,,,,,,,,,,,,,,,,
,,5b7b8153db11320001c412e8,2024-02-21_21h27.05.227,kallum_motion_pilot,2023.2.2,MacIntel,58.47953216,5b7b8153db11320001c412e8,65d6bb0e977760de756971f7,65d6bef0958801b618b98439,0.0463,0.0463,1,52,214,118,1,eightsix,,,,,,,,,,,,,,,,,,,,,,,,,,,,,,,,,,,,,,,,,,,,,,,,,,,,,,,,,,,,,,,,,,,,,,,,,,,,,,,,,,,,,,,,,,,,,,,,,,,,,,,,,,,,,,,,,,,,,,,,,,,,,,,,,,,,,,,,,
,,5b7b8153db11320001c412e8,2024-02-21_21h27.05.227,kallum_motion_pilot,2023.2.2,MacIntel,58.47953216,5b7b8153db11320001c412e8,65d6bb0e977760de756971f7,65d6bef0958801b618b98439,0.0465,0.0465,1,53,215,36,1,threeone,,,,,,,,,,,,,,,,,,,,,,,,,,,,,,,,,,,,,,,,,,,,,,,,,,,,,,,,,,,,,,,,,,,,,,,,,,,,,,,,,,,,,,,,,,,,,,,,,,,,,,,,,,,,,,,,,,,,,,,,,,,,,,,,,,,,,,,,,
,,5b7b8153db11320001c412e8,2024-02-21_21h27.05.227,kallum_motion_pilot,2023.2.2,MacIntel,58.47953216,5b7b8153db11320001c412e8,65d6bb0e977760de756971f7,65d6bef0958801b618b98439,0.0465,0.0466,1,54,216,14,1,fourtwo,,,,,,,,,,,,,,,,,,,,,,,,,,,,,,,,,,,,,,,,,,,,,,,,,,,,,,,,,,,,,,,,,,,,,,,,,,,,,,,,,,,,,,,,,,,,,,,,,,,,,,,,,,,,,,,,,,,,,,,,,,,,,,,,,,,,,,,,,
,,5b7b8153db11320001c412e8,2024-02-21_21h27.05.227,kallum_motion_pilot,2023.2.2,MacIntel,58.47953216,5b7b8153db11320001c412e8,65d6bb0e977760de756971f7,65d6bef0958801b618b98439,0.0467,0.0468,1,55,217,151,1,eightseven,,,,,,,,,,,,,,,,,,,,,,,,,,,,,,,,,,,,,,,,,,,,,,,,,,,,,,,,,,,,,,,,,,,,,,,,,,,,,,,,,,,,,,,,,,,,,,,,,,,,,,,,,,,,,,,,,,,,,,,,,,,,,,,,,,,,,,,,,
,,5b7b8153db11320001c412e8,2024-02-21_21h27.05.227,kallum_motion_pilot,2023.2.2,MacIntel,58.47953216,5b7b8153db11320001c412e8,65d6bb0e977760de756971f7,65d6bef0958801b618b98439,0.0469,0.047,1,56,218,132,1,sevenfive,,,,,,,,,,,,,,,,,,,,,,,,,,,,,,,,,,,,,,,,,,,,,,,,,,,,,,,,,,,,,,,,,,,,,,,,,,,,,,,,,,,,,,,,,,,,,,,,,,,,,,,,,,,,,,,,,,,,,,,,,,,,,,,,,,,,,,,,,
,,5b7b8153db11320001c412e8,2024-02-21_21h27.05.227,kallum_motion_pilot,2023.2.2,MacIntel,58.47953216,5b7b8153db11320001c412e8,65d6bb0e977760de756971f7,65d6bef0958801b618b98439,0.047,0.0471,1,57,219,137,1,fiveseven,,,,,,,,,,,,,,,,,,,,,,,,,,,,,,,,,,,,,,,,,,,,,,,,,,,,,,,,,,,,,,,,,,,,,,,,,,,,,,,,,,,,,,,,,,,,,,,,,,,,,,,,,,,,,,,,,,,,,,,,,,,,,,,,,,,,,,,,,
,,5b7b8153db11320001c412e8,2024-02-21_21h27.05.227,kallum_motion_pilot,2023.2.2,MacIntel,58.47953216,5b7b8153db11320001c412e8,65d6bb0e977760de756971f7,65d6bef0958801b618b98439,0.0472,0.0472,1,58,220,0,1,onetwo,,,,,,,,,,,,,,,,,,,,,,,,,,,,,,,,,,,,,,,,,,,,,,,,,,,,,,,,,,,,,,,,,,,,,,,,,,,,,,,,,,,,,,,,,,,,,,,,,,,,,,,,,,,,,,,,,,,,,,,,,,,,,,,,,,,,,,,,,
,,5b7b8153db11320001c412e8,2024-02-21_21h27.05.227,kallum_motion_pilot,2023.2.2,MacIntel,58.47953216,5b7b8153db11320001c412e8,65d6bb0e977760de756971f7,65d6bef0958801b618b98439,0.0473,0.0474,1,59,221,158,1,eightsix,,,,,,,,,,,,,,,,,,,,,,,,,,,,,,,,,,,,,,,,,,,,,,,,,,,,,,,,,,,,,,,,,,,,,,,,,,,,,,,,,,,,,,,,,,,,,,,,,,,,,,,,,,,,,,,,,,,,,,,,,,,,,,,,,,,,,,,,,
,,5b7b8153db11320001c412e8,2024-02-21_21h27.05.227,kallum_motion_pilot,2023.2.2,MacIntel,58.47953216,5b7b8153db11320001c412e8,65d6bb0e977760de756971f7,65d6bef0958801b618b98439,0.0475,0.0475,1,60,222,38,1,fourtwo,,,,,,,,,,,,,,,,,,,,,,,,,,,,,,,,,,,,,,,,,,,,,,,,,,,,,,,,,,,,,,,,,,,,,,,,,,,,,,,,,,,,,,,,,,,,,,,,,,,,,,,,,,,,,,,,,,,,,,,,,,,,,,,,,,,,,,,,,
,,5b7b8153db11320001c412e8,2024-02-21_21h27.05.227,kallum_motion_pilot,2023.2.2,MacIntel,58.47953216,5b7b8153db11320001c412e8,65d6bb0e977760de756971f7,65d6bef0958801b618b98439,0.0476,0.0477,1,61,223,4,1,threeone,,,,,,,,,,,,,,,,,,,,,,,,,,,,,,,,,,,,,,,,,,,,,,,,,,,,,,,,,,,,,,,,,,,,,,,,,,,,,,,,,,,,,,,,,,,,,,,,,,,,,,,,,,,,,,,,,,,,,,,,,,,,,,,,,,,,,,,,,
,,5b7b8153db11320001c412e8,2024-02-21_21h27.05.227,kallum_motion_pilot,2023.2.2,MacIntel,58.47953216,5b7b8153db11320001c412e8,65d6bb0e977760de756971f7,65d6bef0958801b618b98439,0.0477,0.0478,1,62,224,51,1,twofour,,,,,,,,,,,,,,,,,,,,,,,,,,,,,,,,,,,,,,,,,,,,,,,,,,,,,,,,,,,,,,,,,,,,,,,,,,,,,,,,,,,,,,,,,,,,,,,,,,,,,,,,,,,,,,,,,,,,,,,,,,,,,,,,,,,,,,,,,
,,5b7b8153db11320001c412e8,2024-02-21_21h27.05.227,kallum_motion_pilot,2023.2.2,MacIntel,58.47953216,5b7b8153db11320001c412e8,65d6bb0e977760de756971f7,65d6bef0958801b618b98439,0.0478,0.0479,1,63,225,115,1,sixeight,,,,,,,,,,,,,,,,,,,,,,,,,,,,,,,,,,,,,,,,,,,,,,,,,,,,,,,,,,,,,,,,,,,,,,,,,,,,,,,,,,,,,,,,,,,,,,,,,,,,,,,,,,,,,,,,,,,,,,,,,,,,,,,,,,,,,,,,,
,,5b7b8153db11320001c412e8,2024-02-21_21h27.05.227,kallum_motion_pilot,2023.2.2,MacIntel,58.47953216,5b7b8153db11320001c412e8,65d6bb0e977760de756971f7,65d6bef0958801b618b98439,0.048,0.0481,1,64,226,65,1,onethree,,,,,,,,,,,,,,,,,,,,,,,,,,,,,,,,,,,,,,,,,,,,,,,,,,,,,,,,,,,,,,,,,,,,,,,,,,,,,,,,,,,,,,,,,,,,,,,,,,,,,,,,,,,,,,,,,,,,,,,,,,,,,,,,,,,,,,,,,
,,5b7b8153db11320001c412e8,2024-02-21_21h27.05.227,kallum_motion_pilot,2023.2.2,MacIntel,58.47953216,5b7b8153db11320001c412e8,65d6bb0e977760de756971f7,65d6bef0958801b618b98439,0.0481,0.0482,1,65,227,155,1,sixeight,,,,,,,,,,,,,,,,,,,,,,,,,,,,,,,,,,,,,,,,,,,,,,,,,,,,,,,,,,,,,,,,,,,,,,,,,,,,,,,,,,,,,,,,,,,,,,,,,,,,,,,,,,,,,,,,,,,,,,,,,,,,,,,,,,,,,,,,,
,,5b7b8153db11320001c412e8,2024-02-21_21h27.05.227,kallum_motion_pilot,2023.2.2,MacIntel,58.47953216,5b7b8153db11320001c412e8,65d6bb0e977760de756971f7,65d6bef0958801b618b98439,0.0487,0.0488,1,66,228,159,1,eightseven,,,,,,,,,,,,,,,,,,,,,,,,,,,,,,,,,,,,,,,,,,,,,,,,,,,,,,,,,,,,,,,,,,,,,,,,,,,,,,,,,,,,,,,,,,,,,,,,,,,,,,,,,,,,,,,,,,,,,,,,,,,,,,,,,,,,,,,,,
,,5b7b8153db11320001c412e8,2024-02-21_21h27.05.227,kallum_motion_pilot,2023.2.2,MacIntel,58.47953216,5b7b8153db11320001c412e8,65d6bb0e977760de756971f7,65d6bef0958801b618b98439,0.0488,0.0489,1,67,229,117,1,seveneight,,,,,,,,,,,,,,,,,,,,,,,,,,,,,,,,,,,,,,,,,,,,,,,,,,,,,,,,,,,,,,,,,,,,,,,,,,,,,,,,,,,,,,,,,,,,,,,,,,,,,,,,,,,,,,,,,,,,,,,,,,,,,,,,,,,,,,,,,
,,5b7b8153db11320001c412e8,2024-02-21_21h27.05.227,kallum_motion_pilot,2023.2.2,MacIntel,58.47953216,5b7b8153db11320001c412e8,65d6bb0e977760de756971f7,65d6bef0958801b618b98439,0.049,0.049,1,68,230,153,1,fiveseven,,,,,,,,,,,,,,,,,,,,,,,,,,,,,,,,,,,,,,,,,,,,,,,,,,,,,,,,,,,,,,,,,,,,,,,,,,,,,,,,,,,,,,,,,,,,,,,,,,,,,,,,,,,,,,,,,,,,,,,,,,,,,,,,,,,,,,,,,
,,5b7b8153db11320001c412e8,2024-02-21_21h27.05.227,kallum_motion_pilot,2023.2.2,MacIntel,58.47953216,5b7b8153db11320001c412e8,65d6bb0e977760de756971f7,65d6bef0958801b618b98439,0.0491,0.0492,1,69,231,90,1,sixfive,,,,,,,,,,,,,,,,,,,,,,,,,,,,,,,,,,,,,,,,,,,,,,,,,,,,,,,,,,,,,,,,,,,,,,,,,,,,,,,,,,,,,,,,,,,,,,,,,,,,,,,,,,,,,,,,,,,,,,,,,,,,,,,,,,,,,,,,,
,,5b7b8153db11320001c412e8,2024-02-21_21h27.05.227,kallum_motion_pilot,2023.2.2,MacIntel,58.47953216,5b7b8153db11320001c412e8,65d6bb0e977760de756971f7,65d6bef0958801b618b98439,0.0493,0.0494,1,70,232,81,1,fiveseven,,,,,,,,,,,,,,,,,,,,,,,,,,,,,,,,,,,,,,,,,,,,,,,,,,,,,,,,,,,,,,,,,,,,,,,,,,,,,,,,,,,,,,,,,,,,,,,,,,,,,,,,,,,,,,,,,,,,,,,,,,,,,,,,,,,,,,,,,
,,5b7b8153db11320001c412e8,2024-02-21_21h27.05.227,kallum_motion_pilot,2023.2.2,MacIntel,58.47953216,5b7b8153db11320001c412e8,65d6bb0e977760de756971f7,65d6bef0958801b618b98439,0.0494,0.0495,1,71,233,84,1,sevenfive,,,,,,,,,,,,,,,,,,,,,,,,,,,,,,,,,,,,,,,,,,,,,,,,,,,,,,,,,,,,,,,,,,,,,,,,,,,,,,,,,,,,,,,,,,,,,,,,,,,,,,,,,,,,,,,,,,,,,,,,,,,,,,,,,,,,,,,,,
,,5b7b8153db11320001c412e8,2024-02-21_21h27.05.227,kallum_motion_pilot,2023.2.2,MacIntel,58.47953216,5b7b8153db11320001c412e8,65d6bb0e977760de756971f7,65d6bef0958801b618b98439,0.0496,0.0496,1,72,234,136,1,fivesix,,,,,,,,,,,,,,,,,,,,,,,,,,,,,,,,,,,,,,,,,,,,,,,,,,,,,,,,,,,,,,,,,,,,,,,,,,,,,,,,,,,,,,,,,,,,,,,,,,,,,,,,,,,,,,,,,,,,,,,,,,,,,,,,,,,,,,,,,
,,5b7b8153db11320001c412e8,2024-02-21_21h27.05.227,kallum_motion_pilot,2023.2.2,MacIntel,58.47953216,5b7b8153db11320001c412e8,65d6bb0e977760de756971f7,65d6bef0958801b618b98439,0.0497,0.0498,1,73,235,31,1,fourthree,,,,,,,,,,,,,,,,,,,,,,,,,,,,,,,,,,,,,,,,,,,,,,,,,,,,,,,,,,,,,,,,,,,,,,,,,,,,,,,,,,,,,,,,,,,,,,,,,,,,,,,,,,,,,,,,,,,,,,,,,,,,,,,,,,,,,,,,,
,,5b7b8153db11320001c412e8,2024-02-21_21h27.05.227,kallum_motion_pilot,2023.2.2,MacIntel,58.47953216,5b7b8153db11320001c412e8,65d6bb0e977760de756971f7,65d6bef0958801b618b98439,0.0498,0.0499,1,74,236,35,1,twofour,,,,,,,,,,,,,,,,,,,,,,,,,,,,,,,,,,,,,,,,,,,,,,,,,,,,,,,,,,,,,,,,,,,,,,,,,,,,,,,,,,,,,,,,,,,,,,,,,,,,,,,,,,,,,,,,,,,,,,,,,,,,,,,,,,,,,,,,,
,,5b7b8153db11320001c412e8,2024-02-21_21h27.05.227,kallum_motion_pilot,2023.2.2,MacIntel,58.47953216,5b7b8153db11320001c412e8,65d6bb0e977760de756971f7,65d6bef0958801b618b98439,0.05,0.05,1,75,237,127,1,eightseven,,,,,,,,,,,,,,,,,,,,,,,,,,,,,,,,,,,,,,,,,,,,,,,,,,,,,,,,,,,,,,,,,,,,,,,,,,,,,,,,,,,,,,,,,,,,,,,,,,,,,,,,,,,,,,,,,,,,,,,,,,,,,,,,,,,,,,,,,
,,5b7b8153db11320001c412e8,2024-02-21_21h27.05.227,kallum_motion_pilot,2023.2.2,MacIntel,58.47953216,5b7b8153db11320001c412e8,65d6bb0e977760de756971f7,65d6bef0958801b618b98439,0.0501,0.0502,1,76,238,24,1,onetwo,,,,,,,,,,,,,,,,,,,,,,,,,,,,,,,,,,,,,,,,,,,,,,,,,,,,,,,,,,,,,,,,,,,,,,,,,,,,,,,,,,,,,,,,,,,,,,,,,,,,,,,,,,,,,,,,,,,,,,,,,,,,,,,,,,,,,,,,,
,,5b7b8153db11320001c412e8,2024-02-21_21h27.05.227,kallum_motion_pilot,2023.2.2,MacIntel,58.47953216,5b7b8153db11320001c412e8,65d6bb0e977760de756971f7,65d6bef0958801b618b98439,0.0502,0.0503,1,77,239,64,1,onetwo,,,,,,,,,,,,,,,,,,,,,,,,,,,,,,,,,,,,,,,,,,,,,,,,,,,,,,,,,,,,,,,,,,,,,,,,,,,,,,,,,,,,,,,,,,,,,,,,,,,,,,,,,,,,,,,,,,,,,,,,,,,,,,,,,,,,,,,,,
,,5b7b8153db11320001c412e8,2024-02-21_21h27.05.227,kallum_motion_pilot,2023.2.2,MacIntel,58.47953216,5b7b8153db11320001c412e8,65d6bb0e977760de756971f7,65d6bef0958801b618b98439,0.0504,0.0504,1,78,240,116,1,sevenfive,,,,,,,,,,,,,,,,,,,,,,,,,,,,,,,,,,,,,,,,,,,,,,,,,,,,,,,,,,,,,,,,,,,,,,,,,,,,,,,,,,,,,,,,,,,,,,,,,,,,,,,,,,,,,,,,,,,,,,,,,,,,,,,,,,,,,,,,,
,,5b7b8153db11320001c412e8,2024-02-21_21h27.05.227,kallum_motion_pilot,2023.2.2,MacIntel,58.47953216,5b7b8153db11320001c412e8,65d6bb0e977760de756971f7,65d6bef0958801b618b98439,0.0505,0.0505,1,79,241,140,1,sevenfive,,,,,,,,,,,,,,,,,,,,,,,,,,,,,,,,,,,,,,,,,,,,,,,,,,,,,,,,,,,,,,,,,,,,,,,,,,,,,,,,,,,,,,,,,,,,,,,,,,,,,,,,,,,,,,,,,,,,,,,,,,,,,,,,,,,,,,,,,
,,5b7b8153db11320001c412e8,2024-02-21_21h27.05.227,kallum_motion_pilot,2023.2.2,MacIntel,58.47953216,5b7b8153db11320001c412e8,65d6bb0e977760de756971f7,65d6bef0958801b618b98439,0.0505,0.0506,1,80,242,17,1,onethree,,,,,,,,,,,,,,,,,,,,,,,,,,,,,,,,,,,,,,,,,,,,,,,,,,,,,,,,,,,,,,,,,,,,,,,,,,,,,,,,,,,,,,,,,,,,,,,,,,,,,,,,,,,,,,,,,,,,,,,,,,,,,,,,,,,,,,,,,
,,5b7b8153db11320001c412e8,2024-02-21_21h27.05.227,kallum_motion_pilot,2023.2.2,MacIntel,58.47953216,5b7b8153db11320001c412e8,65d6bb0e977760de756971f7,65d6bef0958801b618b98439,0.0508,0.0508,1,81,243,98,1,sixfive,,,,,,,,,,,,,,,,,,,,,,,,,,,,,,,,,,,,,,,,,,,,,,,,,,,,,,,,,,,,,,,,,,,,,,,,,,,,,,,,,,,,,,,,,,,,,,,,,,,,,,,,,,,,,,,,,,,,,,,,,,,,,,,,,,,,,,,,,
,,5b7b8153db11320001c412e8,2024-02-21_21h27.05.227,kallum_motion_pilot,2023.2.2,MacIntel,58.47953216,5b7b8153db11320001c412e8,65d6bb0e977760de756971f7,65d6bef0958801b618b98439,0.0508,0.0509,1,82,244,67,1,twofour,,,,,,,,,,,,,,,,,,,,,,,,,,,,,,,,,,,,,,,,,,,,,,,,,,,,,,,,,,,,,,,,,,,,,,,,,,,,,,,,,,,,,,,,,,,,,,,,,,,,,,,,,,,,,,,,,,,,,,,,,,,,,,,,,,,,,,,,,
,,5b7b8153db11320001c412e8,2024-02-21_21h27.05.227,kallum_motion_pilot,2023.2.2,MacIntel,58.47953216,5b7b8153db11320001c412e8,65d6bb0e977760de756971f7,65d6bef0958801b618b98439,0.0509,0.051,1,83,245,23,1,fourthree,,,,,,,,,,,,,,,,,,,,,,,,,,,,,,,,,,,,,,,,,,,,,,,,,,,,,,,,,,,,,,,,,,,,,,,,,,,,,,,,,,,,,,,,,,,,,,,,,,,,,,,,,,,,,,,,,,,,,,,,,,,,,,,,,,,,,,,,,
,,5b7b8153db11320001c412e8,2024-02-21_21h27.05.227,kallum_motion_pilot,2023.2.2,MacIntel,58.47953216,5b7b8153db11320001c412e8,65d6bb0e977760de756971f7,65d6bef0958801b618b98439,0.0511,0.0511,1,84,246,45,1,threefour,,,,,,,,,,,,,,,,,,,,,,,,,,,,,,,,,,,,,,,,,,,,,,,,,,,,,,,,,,,,,,,,,,,,,,,,,,,,,,,,,,,,,,,,,,,,,,,,,,,,,,,,,,,,,,,,,,,,,,,,,,,,,,,,,,,,,,,,,
,,5b7b8153db11320001c412e8,2024-02-21_21h27.05.227,kallum_motion_pilot,2023.2.2,MacIntel,58.47953216,5b7b8153db11320001c412e8,65d6bb0e977760de756971f7,65d6bef0958801b618b98439,0.0512,0.0513,1,85,247,21,1,threefour,,,,,,,,,,,,,,,,,,,,,,,,,,,,,,,,,,,,,,,,,,,,,,,,,,,,,,,,,,,,,,,,,,,,,,,,,,,,,,,,,,,,,,,,,,,,,,,,,,,,,,,,,,,,,,,,,,,,,,,,,,,,,,,,,,,,,,,,,
,,5b7b8153db11320001c412e8,2024-02-21_21h27.05.227,kallum_motion_pilot,2023.2.2,MacIntel,58.47953216,5b7b8153db11320001c412e8,65d6bb0e977760de756971f7,65d6bef0958801b618b98439,0.0514,0.0514,1,86,248,161,1,fiveseven,,,,,,,,,,,,,,,,,,,,,,,,,,,,,,,,,,,,,,,,,,,,,,,,,,,,,,,,,,,,,,,,,,,,,,,,,,,,,,,,,,,,,,,,,,,,,,,,,,,,,,,,,,,,,,,,,,,,,,,,,,,,,,,,,,,,,,,,,
,,5b7b8153db11320001c412e8,2024-02-21_21h27.05.227,kallum_motion_pilot,2023.2.2,MacIntel,58.47953216,5b7b8153db11320001c412e8,65d6bb0e977760de756971f7,65d6bef0958801b618b98439,0.0515,0.0516,1,87,249,11,1,twofour,,,,,,,,,,,,,,,,,,,,,,,,,,,,,,,,,,,,,,,,,,,,,,,,,,,,,,,,,,,,,,,,,,,,,,,,,,,,,,,,,,,,,,,,,,,,,,,,,,,,,,,,,,,,,,,,,,,,,,,,,,,,,,,,,,,,,,,,,
,,5b7b8153db11320001c412e8,2024-02-21_21h27.05.227,kallum_motion_pilot,2023.2.2,MacIntel,58.47953216,5b7b8153db11320001c412e8,65d6bb0e977760de756971f7,65d6bef0958801b618b98439,0.0516,0.0517,1,88,250,112,1,fivesix,,,,,,,,,,,,,,,,,,,,,,,,,,,,,,,,,,,,,,,,,,,,,,,,,,,,,,,,,,,,,,,,,,,,,,,,,,,,,,,,,,,,,,,,,,,,,,,,,,,,,,,,,,,,,,,,,,,,,,,,,,,,,,,,,,,,,,,,,
,,5b7b8153db11320001c412e8,2024-02-21_21h27.05.227,kallum_motion_pilot,2023.2.2,MacIntel,58.47953216,5b7b8153db11320001c412e8,65d6bb0e977760de756971f7,65d6bef0958801b618b98439,0.0518,0.0518,1,89,251,42,1,twoone,,,,,,,,,,,,,,,,,,,,,,,,,,,,,,,,,,,,,,,,,,,,,,,,,,,,,,,,,,,,,,,,,,,,,,,,,,,,,,,,,,,,,,,,,,,,,,,,,,,,,,,,,,,,,,,,,,,,,,,,,,,,,,,,,,,,,,,,,
,,5b7b8153db11320001c412e8,2024-02-21_21h27.05.227,kallum_motion_pilot,2023.2.2,MacIntel,58.47953216,5b7b8153db11320001c412e8,65d6bb0e977760de756971f7,65d6bef0958801b618b98439,0.0518,0.0519,1,90,252,149,1,seveneight,,,,,,,,,,,,,,,,,,,,,,,,,,,,,,,,,,,,,,,,,,,,,,,,,,,,,,,,,,,,,,,,,,,,,,,,,,,,,,,,,,,,,,,,,,,,,,,,,,,,,,,,,,,,,,,,,,,,,,,,,,,,,,,,,,,,,,,,,
,,5b7b8153db11320001c412e8,2024-02-21_21h27.05.227,kallum_motion_pilot,2023.2.2,MacIntel,58.47953216,5b7b8153db11320001c412e8,65d6bb0e977760de756971f7,65d6bef0958801b618b98439,0.052,0.0521,1,91,253,1,1,onethree,,,,,,,,,,,,,,,,,,,,,,,,,,,,,,,,,,,,,,,,,,,,,,,,,,,,,,,,,,,,,,,,,,,,,,,,,,,,,,,,,,,,,,,,,,,,,,,,,,,,,,,,,,,,,,,,,,,,,,,,,,,,,,,,,,,,,,,,,
,,5b7b8153db11320001c412e8,2024-02-21_21h27.05.227,kallum_motion_pilot,2023.2.2,MacIntel,58.47953216,5b7b8153db11320001c412e8,65d6bb0e977760de756971f7,65d6bef0958801b618b98439,0.0521,0.0521,1,92,254,40,1,onetwo,,,,,,,,,,,,,,,,,,,,,,,,,,,,,,,,,,,,,,,,,,,,,,,,,,,,,,,,,,,,,,,,,,,,,,,,,,,,,,,,,,,,,,,,,,,,,,,,,,,,,,,,,,,,,,,,,,,,,,,,,,,,,,,,,,,,,,,,,
,,5b7b8153db11320001c412e8,2024-02-21_21h27.05.227,kallum_motion_pilot,2023.2.2,MacIntel,58.47953216,5b7b8153db11320001c412e8,65d6bb0e977760de756971f7,65d6bef0958801b618b98439,0.0522,0.0524,1,93,255,144,1,fivesix,,,,,,,,,,,,,,,,,,,,,,,,,,,,,,,,,,,,,,,,,,,,,,,,,,,,,,,,,,,,,,,,,,,,,,,,,,,,,,,,,,,,,,,,,,,,,,,,,,,,,,,,,,,,,,,,,,,,,,,,,,,,,,,,,,,,,,,,,
,,5b7b8153db11320001c412e8,2024-02-21_21h27.05.227,kallum_motion_pilot,2023.2.2,MacIntel,58.47953216,5b7b8153db11320001c412e8,65d6bb0e977760de756971f7,65d6bef0958801b618b98439,0.0524,0.0525,1,94,256,33,1,onethree,,,,,,,,,,,,,,,,,,,,,,,,,,,,,,,,,,,,,,,,,,,,,,,,,,,,,,,,,,,,,,,,,,,,,,,,,,,,,,,,,,,,,,,,,,,,,,,,,,,,,,,,,,,,,,,,,,,,,,,,,,,,,,,,,,,,,,,,,
,,5b7b8153db11320001c412e8,2024-02-21_21h27.05.227,kallum_motion_pilot,2023.2.2,MacIntel,58.47953216,5b7b8153db11320001c412e8,65d6bb0e977760de756971f7,65d6bef0958801b618b98439,0.0526,0.0527,1,95,257,12,1,threeone,,,,,,,,,,,,,,,,,,,,,,,,,,,,,,,,,,,,,,,,,,,,,,,,,,,,,,,,,,,,,,,,,,,,,,,,,,,,,,,,,,,,,,,,,,,,,,,,,,,,,,,,,,,,,,,,,,,,,,,,,,,,,,,,,,,,,,,,,
,,5b7b8153db11320001c412e8,2024-02-21_21h27.05.227,kallum_motion_pilot,2023.2.2,MacIntel,58.47953216,5b7b8153db11320001c412e8,65d6bb0e977760de756971f7,65d6bef0958801b618b98439,0.0527,0.0528,1,96,258,56,1,onetwo,,,,,,,,,,,,,,,,,,,,,,,,,,,,,,,,,,,,,,,,,,,,,,,,,,,,,,,,,,,,,,,,,,,,,,,,,,,,,,,,,,,,,,,,,,,,,,,,,,,,,,,,,,,,,,,,,,,,,,,,,,,,,,,,,,,,,,,,,
,,5b7b8153db11320001c412e8,2024-02-21_21h27.05.227,kallum_motion_pilot,2023.2.2,MacIntel,58.47953216,5b7b8153db11320001c412e8,65d6bb0e977760de756971f7,65d6bef0958801b618b98439,0.0529,0.0529,1,97,259,25,1,onethree,,,,,,,,,,,,,,,,,,,,,,,,,,,,,,,,,,,,,,,,,,,,,,,,,,,,,,,,,,,,,,,,,,,,,,,,,,,,,,,,,,,,,,,,,,,,,,,,,,,,,,,,,,,,,,,,,,,,,,,,,,,,,,,,,,,,,,,,,
,,5b7b8153db11320001c412e8,2024-02-21_21h27.05.227,kallum_motion_pilot,2023.2.2,MacIntel,58.47953216,5b7b8153db11320001c412e8,65d6bb0e977760de756971f7,65d6bef0958801b618b98439,0.053,0.0531,1,98,260,41,1,onethree,,,,,,,,,,,,,,,,,,,,,,,,,,,,,,,,,,,,,,,,,,,,,,,,,,,,,,,,,,,,,,,,,,,,,,,,,,,,,,,,,,,,,,,,,,,,,,,,,,,,,,,,,,,,,,,,,,,,,,,,,,,,,,,,,,,,,,,,,
,,5b7b8153db11320001c412e8,2024-02-21_21h27.05.227,kallum_motion_pilot,2023.2.2,MacIntel,58.47953216,5b7b8153db11320001c412e8,65d6bb0e977760de756971f7,65d6bef0958801b618b98439,0.0531,0.0533,1,99,261,154,1,sixfive,,,,,,,,,,,,,,,,,,,,,,,,,,,,,,,,,,,,,,,,,,,,,,,,,,,,,,,,,,,,,,,,,,,,,,,,,,,,,,,,,,,,,,,,,,,,,,,,,,,,,,,,,,,,,,,,,,,,,,,,,,,,,,,,,,,,,,,,,
,,5b7b8153db11320001c412e8,2024-02-21_21h27.05.227,kallum_motion_pilot,2023.2.2,MacIntel,58.47953216,5b7b8153db11320001c412e8,65d6bb0e977760de756971f7,65d6bef0958801b618b98439,0.0533,0.0533,1,100,262,123,1,sixeight,,,,,,,,,,,,,,,,,,,,,,,,,,,,,,,,,,,,,,,,,,,,,,,,,,,,,,,,,,,,,,,,,,,,,,,,,,,,,,,,,,,,,,,,,,,,,,,,,,,,,,,,,,,,,,,,,,,,,,,,,,,,,,,,,,,,,,,,,
,,5b7b8153db11320001c412e8,2024-02-21_21h27.05.227,kallum_motion_pilot,2023.2.2,MacIntel,58.47953216,5b7b8153db11320001c412e8,65d6bb0e977760de756971f7,65d6bef0958801b618b98439,0.0534,0.0535,1,101,263,8,1,onetwo,,,,,,,,,,,,,,,,,,,,,,,,,,,,,,,,,,,,,,,,,,,,,,,,,,,,,,,,,,,,,,,,,,,,,,,,,,,,,,,,,,,,,,,,,,,,,,,,,,,,,,,,,,,,,,,,,,,,,,,,,,,,,,,,,,,,,,,,,
,,5b7b8153db11320001c412e8,2024-02-21_21h27.05.227,kallum_motion_pilot,2023.2.2,MacIntel,58.47953216,5b7b8153db11320001c412e8,65d6bb0e977760de756971f7,65d6bef0958801b618b98439,0.0536,0.0537,1,102,264,105,1,fiveseven,,,,,,,,,,,,,,,,,,,,,,,,,,,,,,,,,,,,,,,,,,,,,,,,,,,,,,,,,,,,,,,,,,,,,,,,,,,,,,,,,,,,,,,,,,,,,,,,,,,,,,,,,,,,,,,,,,,,,,,,,,,,,,,,,,,,,,,,,
,,5b7b8153db11320001c412e8,2024-02-21_21h27.05.227,kallum_motion_pilot,2023.2.2,MacIntel,58.47953216,5b7b8153db11320001c412e8,65d6bb0e977760de756971f7,65d6bef0958801b618b98439,0.0538,0.0539,1,103,265,15,1,fourthree,,,,,,,,,,,,,,,,,,,,,,,,,,,,,,,,,,,,,,,,,,,,,,,,,,,,,,,,,,,,,,,,,,,,,,,,,,,,,,,,,,,,,,,,,,,,,,,,,,,,,,,,,,,,,,,,,,,,,,,,,,,,,,,,,,,,,,,,,
,,5b7b8153db11320001c412e8,2024-02-21_21h27.05.227,kallum_motion_pilot,2023.2.2,MacIntel,58.47953216,5b7b8153db11320001c412e8,65d6bb0e977760de756971f7,65d6bef0958801b618b98439,0.054,0.054,1,104,266,104,1,fivesix,,,,,,,,,,,,,,,,,,,,,,,,,,,,,,,,,,,,,,,,,,,,,,,,,,,,,,,,,,,,,,,,,,,,,,,,,,,,,,,,,,,,,,,,,,,,,,,,,,,,,,,,,,,,,,,,,,,,,,,,,,,,,,,,,,,,,,,,,
,,5b7b8153db11320001c412e8,2024-02-21_21h27.05.227,kallum_motion_pilot,2023.2.2,MacIntel,58.47953216,5b7b8153db11320001c412e8,65d6bb0e977760de756971f7,65d6bef0958801b618b98439,0.0541,0.0541,1,105,267,44,1,threeone,,,,,,,,,,,,,,,,,,,,,,,,,,,,,,,,,,,,,,,,,,,,,,,,,,,,,,,,,,,,,,,,,,,,,,,,,,,,,,,,,,,,,,,,,,,,,,,,,,,,,,,,,,,,,,,,,,,,,,,,,,,,,,,,,,,,,,,,,
,,5b7b8153db11320001c412e8,2024-02-21_21h27.05.227,kallum_motion_pilot,2023.2.2,MacIntel,58.47953216,5b7b8153db11320001c412e8,65d6bb0e977760de756971f7,65d6bef0958801b618b98439,0.0542,0.0543,1,106,268,66,1,twoone,,,,,,,,,,,,,,,,,,,,,,,,,,,,,,,,,,,,,,,,,,,,,,,,,,,,,,,,,,,,,,,,,,,,,,,,,,,,,,,,,,,,,,,,,,,,,,,,,,,,,,,,,,,,,,,,,,,,,,,,,,,,,,,,,,,,,,,,,
,,5b7b8153db11320001c412e8,2024-02-21_21h27.05.227,kallum_motion_pilot,2023.2.2,MacIntel,58.47953216,5b7b8153db11320001c412e8,65d6bb0e977760de756971f7,65d6bef0958801b618b98439,0.0544,0.0544,1,107,269,100,1,sevenfive,,,,,,,,,,,,,,,,,,,,,,,,,,,,,,,,,,,,,,,,,,,,,,,,,,,,,,,,,,,,,,,,,,,,,,,,,,,,,,,,,,,,,,,,,,,,,,,,,,,,,,,,,,,,,,,,,,,,,,,,,,,,,,,,,,,,,,,,,
,,5b7b8153db11320001c412e8,2024-02-21_21h27.05.227,kallum_motion_pilot,2023.2.2,MacIntel,58.47953216,5b7b8153db11320001c412e8,65d6bb0e977760de756971f7,65d6bef0958801b618b98439,0.0544,0.0545,1,108,270,76,1,threeone,,,,,,,,,,,,,,,,,,,,,,,,,,,,,,,,,,,,,,,,,,,,,,,,,,,,,,,,,,,,,,,,,,,,,,,,,,,,,,,,,,,,,,,,,,,,,,,,,,,,,,,,,,,,,,,,,,,,,,,,,,,,,,,,,,,,,,,,,
,,5b7b8153db11320001c412e8,2024-02-21_21h27.05.227,kallum_motion_pilot,2023.2.2,MacIntel,58.47953216,5b7b8153db11320001c412e8,65d6bb0e977760de756971f7,65d6bef0958801b618b98439,0.0546,0.0547,1,109,271,43,1,twofour,,,,,,,,,,,,,,,,,,,,,,,,,,,,,,,,,,,,,,,,,,,,,,,,,,,,,,,,,,,,,,,,,,,,,,,,,,,,,,,,,,,,,,,,,,,,,,,,,,,,,,,,,,,,,,,,,,,,,,,,,,,,,,,,,,,,,,,,,
,,5b7b8153db11320001c412e8,2024-02-21_21h27.05.227,kallum_motion_pilot,2023.2.2,MacIntel,58.47953216,5b7b8153db11320001c412e8,65d6bb0e977760de756971f7,65d6bef0958801b618b98439,0.0548,0.0548,1,110,272,6,1,fourtwo,,,,,,,,,,,,,,,,,,,,,,,,,,,,,,,,,,,,,,,,,,,,,,,,,,,,,,,,,,,,,,,,,,,,,,,,,,,,,,,,,,,,,,,,,,,,,,,,,,,,,,,,,,,,,,,,,,,,,,,,,,,,,,,,,,,,,,,,,
,,5b7b8153db11320001c412e8,2024-02-21_21h27.05.227,kallum_motion_pilot,2023.2.2,MacIntel,58.47953216,5b7b8153db11320001c412e8,65d6bb0e977760de756971f7,65d6bef0958801b618b98439,0.0549,0.055,1,111,273,49,1,onethree,,,,,,,,,,,,,,,,,,,,,,,,,,,,,,,,,,,,,,,,,,,,,,,,,,,,,,,,,,,,,,,,,,,,,,,,,,,,,,,,,,,,,,,,,,,,,,,,,,,,,,,,,,,,,,,,,,,,,,,,,,,,,,,,,,,,,,,,,
,,5b7b8153db11320001c412e8,2024-02-21_21h27.05.227,kallum_motion_pilot,2023.2.2,MacIntel,58.47953216,5b7b8153db11320001c412e8,65d6bb0e977760de756971f7,65d6bef0958801b618b98439,0.055,0.055,1,112,274,150,1,eightsix,,,,,,,,,,,,,,,,,,,,,,,,,,,,,,,,,,,,,,,,,,,,,,,,,,,,,,,,,,,,,,,,,,,,,,,,,,,,,,,,,,,,,,,,,,,,,,,,,,,,,,,,,,,,,,,,,,,,,,,,,,,,,,,,,,,,,,,,,
,,5b7b8153db11320001c412e8,2024-02-21_21h27.05.227,kallum_motion_pilot,2023.2.2,MacIntel,58.47953216,5b7b8153db11320001c412e8,65d6bb0e977760de756971f7,65d6bef0958801b618b98439,0.0551,0.0551,1,113,275,109,1,seveneight,,,,,,,,,,,,,,,,,,,,,,,,,,,,,,,,,,,,,,,,,,,,,,,,,,,,,,,,,,,,,,,,,,,,,,,,,,,,,,,,,,,,,,,,,,,,,,,,,,,,,,,,,,,,,,,,,,,,,,,,,,,,,,,,,,,,,,,,,
