startup.started,startup.stopped,Prolific ID*,date,expName,psychopyVersion,OS,frameRate,participant,study_id,session,stimpositions.started,stimpositions.stopped,hardcoded_stimulus_positions.thisRepN,hardcoded_stimulus_positions.thisTrialN,hardcoded_stimulus_positions.thisN,hardcoded_stimulus_positions.thisIndex,hardcoded_stimulus_positions.ran,StimulusPos,stimorientation.started,stimorientation.stopped,prac_stimorientation_import_loop.thisRepN,prac_stimorientation_import_loop.thisTrialN,prac_stimorientation_import_loop.thisN,prac_stimorientation_import_loop.thisIndex,prac_stimorientation_import_loop.ran,Stimorientation,welcome_instr.started,welcome_instr.stopped,key_resp.keys,key_resp.rt,key_resp.duration,response_steppedout_1.started,response_steppedout_1.stopped,key_resp_20.keys,key_resp_20.rt,key_resp_20.duration,response_steppedout_2.started,response_steppedout_2.stopped,key_resp_19.keys,key_resp_19.rt,key_resp_19.duration,stim_response_instr.started,stim_response_instr.stopped,key_resp_15.keys,key_resp_15.rt,key_resp_15.duration,direction_instr_2.started,direction_instr_2.stopped,key_resp_9.keys,key_resp_9.rt,key_resp_9.duration,instr_prac.started,instr_prac.stopped,key_resp_10.keys,key_resp_10.rt,key_resp_10.duration,Stim1_display_prac.started,Stim1_display_prac.stopped,Ecc,Circle1_ori,Circle2_ori,response_prac.started,similarity,response_time,response_prac.stopped,mouse_5.x,mouse_5.y,mouse_5.leftButton,mouse_5.midButton,mouse_5.rightButton,mouse_5.clicked_name,responseprac_feedback.started,responseprac_feedback.stopped,summary2_prac.started,summary2_prac.stopped,mouse_6.x,mouse_6.y,mouse_6.leftButton,mouse_6.midButton,mouse_6.rightButton,mouse_6.clicked_name,duringprac.thisRepN,duringprac.thisTrialN,duringprac.thisN,duringprac.thisIndex,duringprac.ran,begin.started,begin.stopped,key_resp_22.keys,key_resp_22.rt,key_resp_22.duration,Stim1_display.started,Stim1_display.stopped,circle1_ori,circle2_ori,circle1_SF,circle2_SF,response.started,response.stopped,mouse.x,mouse.y,mouse.leftButton,mouse.midButton,mouse.rightButton,mouse.clicked_name,trialnumber,double_pass.thisRepN,double_pass.thisTrialN,double_pass.thisN,double_pass.thisIndex,double_pass.ran,double_pass.order,main_trial.thisRepN,main_trial.thisTrialN,main_trial.thisN,main_trial.thisIndex,main_trial.ran,main_trial.order,Trial_Counter,Catch,Frequencies,response_2.started,response_2.stopped,mouse_2.x,mouse_2.y,mouse_2.leftButton,mouse_2.midButton,mouse_2.rightButton,mouse_2.clicked_name,special_trial.started,special_trial.stopped,catch_1.started,catch_1.stopped,mouse_3.x,mouse_3.y,mouse_3.leftButton,mouse_3.midButton,mouse_3.rightButton,catchresponse,catchnumber,response_time_catch,response_sum.started,response_sum.stopped,mouse_11.x,mouse_11.y,mouse_11.leftButton,mouse_11.midButton,mouse_11.rightButton,flip_presentation_sequence_for_double_pass.started,flip_presentation_sequence_for_double_pass.stopped,goodbye.started,goodbye.stopped,key_resp_3.keys,key_resp_3.rt,key_resp_3.duration
0.0003,0.0006,5b8c8e7d0c740e00019d55c3,2024-02-21_23h08.37.894,kallum_motion_pilot,2023.2.2,Win32,60.24096386,5b8c8e7d0c740e00019d55c3,65d6bb0e977760de756971f7,65d6d4d6dfcd203fc765bab2,,,,,,,,,,,,,,,,,,,,,,,,,,,,,,,,,,,,,,,,,,,,,,,,,,,,,,,,,,,,,,,,,,,,,,,,,,,,,,,,,,,,,,,,,,,,,,,,,,,,,,,,,,,,,,,,,,,,,,,,,,,,,,,,,,,,,,,,,,,,,,,,,
,,5b8c8e7d0c740e00019d55c3,2024-02-21_23h08.37.894,kallum_motion_pilot,2023.2.2,Win32,60.24096386,5b8c8e7d0c740e00019d55c3,65d6bb0e977760de756971f7,65d6d4d6dfcd203fc765bab2,0.031,0.031,0,0,0,70,1,fourtwo,,,,,,,,,,,,,,,,,,,,,,,,,,,,,,,,,,,,,,,,,,,,,,,,,,,,,,,,,,,,,,,,,,,,,,,,,,,,,,,,,,,,,,,,,,,,,,,,,,,,,,,,,,,,,,,,,,,,,,,,,,,,,,,,,,,,,,,,,
,,5b8c8e7d0c740e00019d55c3,2024-02-21_23h08.37.894,kallum_motion_pilot,2023.2.2,Win32,60.24096386,5b8c8e7d0c740e00019d55c3,65d6bb0e977760de756971f7,65d6d4d6dfcd203fc765bab2,0.0314,0.0314,0,1,1,88,1,fivesix,,,,,,,,,,,,,,,,,,,,,,,,,,,,,,,,,,,,,,,,,,,,,,,,,,,,,,,,,,,,,,,,,,,,,,,,,,,,,,,,,,,,,,,,,,,,,,,,,,,,,,,,,,,,,,,,,,,,,,,,,,,,,,,,,,,,,,,,,
,,5b8c8e7d0c740e00019d55c3,2024-02-21_23h08.37.894,kallum_motion_pilot,2023.2.2,Win32,60.24096386,5b8c8e7d0c740e00019d55c3,65d6bb0e977760de756971f7,65d6d4d6dfcd203fc765bab2,0.0316,0.0318,0,2,2,82,1,sixfive,,,,,,,,,,,,,,,,,,,,,,,,,,,,,,,,,,,,,,,,,,,,,,,,,,,,,,,,,,,,,,,,,,,,,,,,,,,,,,,,,,,,,,,,,,,,,,,,,,,,,,,,,,,,,,,,,,,,,,,,,,,,,,,,,,,,,,,,,
,,5b8c8e7d0c740e00019d55c3,2024-02-21_23h08.37.894,kallum_motion_pilot,2023.2.2,Win32,60.24096386,5b8c8e7d0c740e00019d55c3,65d6bb0e977760de756971f7,65d6d4d6dfcd203fc765bab2,0.0321,0.0321,0,3,3,132,1,sevenfive,,,,,,,,,,,,,,,,,,,,,,,,,,,,,,,,,,,,,,,,,,,,,,,,,,,,,,,,,,,,,,,,,,,,,,,,,,,,,,,,,,,,,,,,,,,,,,,,,,,,,,,,,,,,,,,,,,,,,,,,,,,,,,,,,,,,,,,,,
,,5b8c8e7d0c740e00019d55c3,2024-02-21_23h08.37.894,kallum_motion_pilot,2023.2.2,Win32,60.24096386,5b8c8e7d0c740e00019d55c3,65d6bb0e977760de756971f7,65d6d4d6dfcd203fc765bab2,0.0323,0.0324,0,4,4,157,1,seveneight,,,,,,,,,,,,,,,,,,,,,,,,,,,,,,,,,,,,,,,,,,,,,,,,,,,,,,,,,,,,,,,,,,,,,,,,,,,,,,,,,,,,,,,,,,,,,,,,,,,,,,,,,,,,,,,,,,,,,,,,,,,,,,,,,,,,,,,,,
,,5b8c8e7d0c740e00019d55c3,2024-02-21_23h08.37.894,kallum_motion_pilot,2023.2.2,Win32,60.24096386,5b8c8e7d0c740e00019d55c3,65d6bb0e977760de756971f7,65d6d4d6dfcd203fc765bab2,0.0326,0.0326,0,5,5,27,1,twofour,,,,,,,,,,,,,,,,,,,,,,,,,,,,,,,,,,,,,,,,,,,,,,,,,,,,,,,,,,,,,,,,,,,,,,,,,,,,,,,,,,,,,,,,,,,,,,,,,,,,,,,,,,,,,,,,,,,,,,,,,,,,,,,,,,,,,,,,,
,,5b8c8e7d0c740e00019d55c3,2024-02-21_23h08.37.894,kallum_motion_pilot,2023.2.2,Win32,60.24096386,5b8c8e7d0c740e00019d55c3,65d6bb0e977760de756971f7,65d6d4d6dfcd203fc765bab2,0.033,0.033,0,6,6,155,1,sixeight,,,,,,,,,,,,,,,,,,,,,,,,,,,,,,,,,,,,,,,,,,,,,,,,,,,,,,,,,,,,,,,,,,,,,,,,,,,,,,,,,,,,,,,,,,,,,,,,,,,,,,,,,,,,,,,,,,,,,,,,,,,,,,,,,,,,,,,,,
,,5b8c8e7d0c740e00019d55c3,2024-02-21_23h08.37.894,kallum_motion_pilot,2023.2.2,Win32,60.24096386,5b8c8e7d0c740e00019d55c3,65d6bb0e977760de756971f7,65d6d4d6dfcd203fc765bab2,0.0332,0.0333,0,7,7,138,1,sixfive,,,,,,,,,,,,,,,,,,,,,,,,,,,,,,,,,,,,,,,,,,,,,,,,,,,,,,,,,,,,,,,,,,,,,,,,,,,,,,,,,,,,,,,,,,,,,,,,,,,,,,,,,,,,,,,,,,,,,,,,,,,,,,,,,,,,,,,,,
,,5b8c8e7d0c740e00019d55c3,2024-02-21_23h08.37.894,kallum_motion_pilot,2023.2.2,Win32,60.24096386,5b8c8e7d0c740e00019d55c3,65d6bb0e977760de756971f7,65d6d4d6dfcd203fc765bab2,0.0336,0.0336,0,8,8,79,1,eightseven,,,,,,,,,,,,,,,,,,,,,,,,,,,,,,,,,,,,,,,,,,,,,,,,,,,,,,,,,,,,,,,,,,,,,,,,,,,,,,,,,,,,,,,,,,,,,,,,,,,,,,,,,,,,,,,,,,,,,,,,,,,,,,,,,,,,,,,,,
,,5b8c8e7d0c740e00019d55c3,2024-02-21_23h08.37.894,kallum_motion_pilot,2023.2.2,Win32,60.24096386,5b8c8e7d0c740e00019d55c3,65d6bb0e977760de756971f7,65d6d4d6dfcd203fc765bab2,0.0338,0.0338,0,9,9,114,1,sixfive,,,,,,,,,,,,,,,,,,,,,,,,,,,,,,,,,,,,,,,,,,,,,,,,,,,,,,,,,,,,,,,,,,,,,,,,,,,,,,,,,,,,,,,,,,,,,,,,,,,,,,,,,,,,,,,,,,,,,,,,,,,,,,,,,,,,,,,,,
,,5b8c8e7d0c740e00019d55c3,2024-02-21_23h08.37.894,kallum_motion_pilot,2023.2.2,Win32,60.24096386,5b8c8e7d0c740e00019d55c3,65d6bb0e977760de756971f7,65d6d4d6dfcd203fc765bab2,0.0341,0.0341,0,10,10,129,1,fiveseven,,,,,,,,,,,,,,,,,,,,,,,,,,,,,,,,,,,,,,,,,,,,,,,,,,,,,,,,,,,,,,,,,,,,,,,,,,,,,,,,,,,,,,,,,,,,,,,,,,,,,,,,,,,,,,,,,,,,,,,,,,,,,,,,,,,,,,,,,
,,5b8c8e7d0c740e00019d55c3,2024-02-21_23h08.37.894,kallum_motion_pilot,2023.2.2,Win32,60.24096386,5b8c8e7d0c740e00019d55c3,65d6bb0e977760de756971f7,65d6d4d6dfcd203fc765bab2,0.0343,0.0345,0,11,11,31,1,fourthree,,,,,,,,,,,,,,,,,,,,,,,,,,,,,,,,,,,,,,,,,,,,,,,,,,,,,,,,,,,,,,,,,,,,,,,,,,,,,,,,,,,,,,,,,,,,,,,,,,,,,,,,,,,,,,,,,,,,,,,,,,,,,,,,,,,,,,,,,
,,5b8c8e7d0c740e00019d55c3,2024-02-21_23h08.37.894,kallum_motion_pilot,2023.2.2,Win32,60.24096386,5b8c8e7d0c740e00019d55c3,65d6bb0e977760de756971f7,65d6d4d6dfcd203fc765bab2,0.0346,0.0347,0,12,12,160,1,fivesix,,,,,,,,,,,,,,,,,,,,,,,,,,,,,,,,,,,,,,,,,,,,,,,,,,,,,,,,,,,,,,,,,,,,,,,,,,,,,,,,,,,,,,,,,,,,,,,,,,,,,,,,,,,,,,,,,,,,,,,,,,,,,,,,,,,,,,,,,
,,5b8c8e7d0c740e00019d55c3,2024-02-21_23h08.37.894,kallum_motion_pilot,2023.2.2,Win32,60.24096386,5b8c8e7d0c740e00019d55c3,65d6bb0e977760de756971f7,65d6d4d6dfcd203fc765bab2,0.0349,0.035,0,13,13,131,1,sixeight,,,,,,,,,,,,,,,,,,,,,,,,,,,,,,,,,,,,,,,,,,,,,,,,,,,,,,,,,,,,,,,,,,,,,,,,,,,,,,,,,,,,,,,,,,,,,,,,,,,,,,,,,,,,,,,,,,,,,,,,,,,,,,,,,,,,,,,,,
,,5b8c8e7d0c740e00019d55c3,2024-02-21_23h08.37.894,kallum_motion_pilot,2023.2.2,Win32,60.24096386,5b8c8e7d0c740e00019d55c3,65d6bb0e977760de756971f7,65d6d4d6dfcd203fc765bab2,0.0352,0.0352,0,14,14,15,1,fourthree,,,,,,,,,,,,,,,,,,,,,,,,,,,,,,,,,,,,,,,,,,,,,,,,,,,,,,,,,,,,,,,,,,,,,,,,,,,,,,,,,,,,,,,,,,,,,,,,,,,,,,,,,,,,,,,,,,,,,,,,,,,,,,,,,,,,,,,,,
,,5b8c8e7d0c740e00019d55c3,2024-02-21_23h08.37.894,kallum_motion_pilot,2023.2.2,Win32,60.24096386,5b8c8e7d0c740e00019d55c3,65d6bb0e977760de756971f7,65d6d4d6dfcd203fc765bab2,0.0355,0.0355,0,15,15,101,1,seveneight,,,,,,,,,,,,,,,,,,,,,,,,,,,,,,,,,,,,,,,,,,,,,,,,,,,,,,,,,,,,,,,,,,,,,,,,,,,,,,,,,,,,,,,,,,,,,,,,,,,,,,,,,,,,,,,,,,,,,,,,,,,,,,,,,,,,,,,,,
,,5b8c8e7d0c740e00019d55c3,2024-02-21_23h08.37.894,kallum_motion_pilot,2023.2.2,Win32,60.24096386,5b8c8e7d0c740e00019d55c3,65d6bb0e977760de756971f7,65d6d4d6dfcd203fc765bab2,0.0357,0.0359,0,16,16,42,1,twoone,,,,,,,,,,,,,,,,,,,,,,,,,,,,,,,,,,,,,,,,,,,,,,,,,,,,,,,,,,,,,,,,,,,,,,,,,,,,,,,,,,,,,,,,,,,,,,,,,,,,,,,,,,,,,,,,,,,,,,,,,,,,,,,,,,,,,,,,,
,,5b8c8e7d0c740e00019d55c3,2024-02-21_23h08.37.894,kallum_motion_pilot,2023.2.2,Win32,60.24096386,5b8c8e7d0c740e00019d55c3,65d6bb0e977760de756971f7,65d6d4d6dfcd203fc765bab2,0.0361,0.0362,0,17,17,125,1,seveneight,,,,,,,,,,,,,,,,,,,,,,,,,,,,,,,,,,,,,,,,,,,,,,,,,,,,,,,,,,,,,,,,,,,,,,,,,,,,,,,,,,,,,,,,,,,,,,,,,,,,,,,,,,,,,,,,,,,,,,,,,,,,,,,,,,,,,,,,,
,,5b8c8e7d0c740e00019d55c3,2024-02-21_23h08.37.894,kallum_motion_pilot,2023.2.2,Win32,60.24096386,5b8c8e7d0c740e00019d55c3,65d6bb0e977760de756971f7,65d6d4d6dfcd203fc765bab2,0.0363,0.0365,0,18,18,18,1,twoone,,,,,,,,,,,,,,,,,,,,,,,,,,,,,,,,,,,,,,,,,,,,,,,,,,,,,,,,,,,,,,,,,,,,,,,,,,,,,,,,,,,,,,,,,,,,,,,,,,,,,,,,,,,,,,,,,,,,,,,,,,,,,,,,,,,,,,,,,
,,5b8c8e7d0c740e00019d55c3,2024-02-21_23h08.37.894,kallum_motion_pilot,2023.2.2,Win32,60.24096386,5b8c8e7d0c740e00019d55c3,65d6bb0e977760de756971f7,65d6d4d6dfcd203fc765bab2,0.0367,0.0367,0,19,19,80,1,fivesix,,,,,,,,,,,,,,,,,,,,,,,,,,,,,,,,,,,,,,,,,,,,,,,,,,,,,,,,,,,,,,,,,,,,,,,,,,,,,,,,,,,,,,,,,,,,,,,,,,,,,,,,,,,,,,,,,,,,,,,,,,,,,,,,,,,,,,,,,
,,5b8c8e7d0c740e00019d55c3,2024-02-21_23h08.37.894,kallum_motion_pilot,2023.2.2,Win32,60.24096386,5b8c8e7d0c740e00019d55c3,65d6bb0e977760de756971f7,65d6d4d6dfcd203fc765bab2,0.037,0.0371,0,20,20,25,1,onethree,,,,,,,,,,,,,,,,,,,,,,,,,,,,,,,,,,,,,,,,,,,,,,,,,,,,,,,,,,,,,,,,,,,,,,,,,,,,,,,,,,,,,,,,,,,,,,,,,,,,,,,,,,,,,,,,,,,,,,,,,,,,,,,,,,,,,,,,,
,,5b8c8e7d0c740e00019d55c3,2024-02-21_23h08.37.894,kallum_motion_pilot,2023.2.2,Win32,60.24096386,5b8c8e7d0c740e00019d55c3,65d6bb0e977760de756971f7,65d6d4d6dfcd203fc765bab2,0.0372,0.0374,0,21,21,32,1,onetwo,,,,,,,,,,,,,,,,,,,,,,,,,,,,,,,,,,,,,,,,,,,,,,,,,,,,,,,,,,,,,,,,,,,,,,,,,,,,,,,,,,,,,,,,,,,,,,,,,,,,,,,,,,,,,,,,,,,,,,,,,,,,,,,,,,,,,,,,,
,,5b8c8e7d0c740e00019d55c3,2024-02-21_23h08.37.894,kallum_motion_pilot,2023.2.2,Win32,60.24096386,5b8c8e7d0c740e00019d55c3,65d6bb0e977760de756971f7,65d6d4d6dfcd203fc765bab2,0.0375,0.0376,0,22,22,1,1,onethree,,,,,,,,,,,,,,,,,,,,,,,,,,,,,,,,,,,,,,,,,,,,,,,,,,,,,,,,,,,,,,,,,,,,,,,,,,,,,,,,,,,,,,,,,,,,,,,,,,,,,,,,,,,,,,,,,,,,,,,,,,,,,,,,,,,,,,,,,
,,5b8c8e7d0c740e00019d55c3,2024-02-21_23h08.37.894,kallum_motion_pilot,2023.2.2,Win32,60.24096386,5b8c8e7d0c740e00019d55c3,65d6bb0e977760de756971f7,65d6d4d6dfcd203fc765bab2,0.0378,0.0379,0,23,23,17,1,onethree,,,,,,,,,,,,,,,,,,,,,,,,,,,,,,,,,,,,,,,,,,,,,,,,,,,,,,,,,,,,,,,,,,,,,,,,,,,,,,,,,,,,,,,,,,,,,,,,,,,,,,,,,,,,,,,,,,,,,,,,,,,,,,,,,,,,,,,,,
,,5b8c8e7d0c740e00019d55c3,2024-02-21_23h08.37.894,kallum_motion_pilot,2023.2.2,Win32,60.24096386,5b8c8e7d0c740e00019d55c3,65d6bb0e977760de756971f7,65d6d4d6dfcd203fc765bab2,0.0381,0.0382,0,24,24,35,1,twofour,,,,,,,,,,,,,,,,,,,,,,,,,,,,,,,,,,,,,,,,,,,,,,,,,,,,,,,,,,,,,,,,,,,,,,,,,,,,,,,,,,,,,,,,,,,,,,,,,,,,,,,,,,,,,,,,,,,,,,,,,,,,,,,,,,,,,,,,,
,,5b8c8e7d0c740e00019d55c3,2024-02-21_23h08.37.894,kallum_motion_pilot,2023.2.2,Win32,60.24096386,5b8c8e7d0c740e00019d55c3,65d6bb0e977760de756971f7,65d6d4d6dfcd203fc765bab2,0.0384,0.0385,0,25,25,54,1,fourtwo,,,,,,,,,,,,,,,,,,,,,,,,,,,,,,,,,,,,,,,,,,,,,,,,,,,,,,,,,,,,,,,,,,,,,,,,,,,,,,,,,,,,,,,,,,,,,,,,,,,,,,,,,,,,,,,,,,,,,,,,,,,,,,,,,,,,,,,,,
,,5b8c8e7d0c740e00019d55c3,2024-02-21_23h08.37.894,kallum_motion_pilot,2023.2.2,Win32,60.24096386,5b8c8e7d0c740e00019d55c3,65d6bb0e977760de756971f7,65d6d4d6dfcd203fc765bab2,0.0387,0.0388,0,26,26,90,1,sixfive,,,,,,,,,,,,,,,,,,,,,,,,,,,,,,,,,,,,,,,,,,,,,,,,,,,,,,,,,,,,,,,,,,,,,,,,,,,,,,,,,,,,,,,,,,,,,,,,,,,,,,,,,,,,,,,,,,,,,,,,,,,,,,,,,,,,,,,,,
,,5b8c8e7d0c740e00019d55c3,2024-02-21_23h08.37.894,kallum_motion_pilot,2023.2.2,Win32,60.24096386,5b8c8e7d0c740e00019d55c3,65d6bb0e977760de756971f7,65d6d4d6dfcd203fc765bab2,0.039,0.0391,0,27,27,158,1,eightsix,,,,,,,,,,,,,,,,,,,,,,,,,,,,,,,,,,,,,,,,,,,,,,,,,,,,,,,,,,,,,,,,,,,,,,,,,,,,,,,,,,,,,,,,,,,,,,,,,,,,,,,,,,,,,,,,,,,,,,,,,,,,,,,,,,,,,,,,,
,,5b8c8e7d0c740e00019d55c3,2024-02-21_23h08.37.894,kallum_motion_pilot,2023.2.2,Win32,60.24096386,5b8c8e7d0c740e00019d55c3,65d6bb0e977760de756971f7,65d6d4d6dfcd203fc765bab2,0.0393,0.0394,0,28,28,38,1,fourtwo,,,,,,,,,,,,,,,,,,,,,,,,,,,,,,,,,,,,,,,,,,,,,,,,,,,,,,,,,,,,,,,,,,,,,,,,,,,,,,,,,,,,,,,,,,,,,,,,,,,,,,,,,,,,,,,,,,,,,,,,,,,,,,,,,,,,,,,,,
,,5b8c8e7d0c740e00019d55c3,2024-02-21_23h08.37.894,kallum_motion_pilot,2023.2.2,Win32,60.24096386,5b8c8e7d0c740e00019d55c3,65d6bb0e977760de756971f7,65d6d4d6dfcd203fc765bab2,0.0396,0.0397,0,29,29,77,1,threefour,,,,,,,,,,,,,,,,,,,,,,,,,,,,,,,,,,,,,,,,,,,,,,,,,,,,,,,,,,,,,,,,,,,,,,,,,,,,,,,,,,,,,,,,,,,,,,,,,,,,,,,,,,,,,,,,,,,,,,,,,,,,,,,,,,,,,,,,,
,,5b8c8e7d0c740e00019d55c3,2024-02-21_23h08.37.894,kallum_motion_pilot,2023.2.2,Win32,60.24096386,5b8c8e7d0c740e00019d55c3,65d6bb0e977760de756971f7,65d6d4d6dfcd203fc765bab2,0.0399,0.04,0,30,30,84,1,sevenfive,,,,,,,,,,,,,,,,,,,,,,,,,,,,,,,,,,,,,,,,,,,,,,,,,,,,,,,,,,,,,,,,,,,,,,,,,,,,,,,,,,,,,,,,,,,,,,,,,,,,,,,,,,,,,,,,,,,,,,,,,,,,,,,,,,,,,,,,,
,,5b8c8e7d0c740e00019d55c3,2024-02-21_23h08.37.894,kallum_motion_pilot,2023.2.2,Win32,60.24096386,5b8c8e7d0c740e00019d55c3,65d6bb0e977760de756971f7,65d6d4d6dfcd203fc765bab2,0.0402,0.0403,0,31,31,39,1,fourthree,,,,,,,,,,,,,,,,,,,,,,,,,,,,,,,,,,,,,,,,,,,,,,,,,,,,,,,,,,,,,,,,,,,,,,,,,,,,,,,,,,,,,,,,,,,,,,,,,,,,,,,,,,,,,,,,,,,,,,,,,,,,,,,,,,,,,,,,,
,,5b8c8e7d0c740e00019d55c3,2024-02-21_23h08.37.894,kallum_motion_pilot,2023.2.2,Win32,60.24096386,5b8c8e7d0c740e00019d55c3,65d6bb0e977760de756971f7,65d6d4d6dfcd203fc765bab2,0.0405,0.0406,0,32,32,74,1,twoone,,,,,,,,,,,,,,,,,,,,,,,,,,,,,,,,,,,,,,,,,,,,,,,,,,,,,,,,,,,,,,,,,,,,,,,,,,,,,,,,,,,,,,,,,,,,,,,,,,,,,,,,,,,,,,,,,,,,,,,,,,,,,,,,,,,,,,,,,
,,5b8c8e7d0c740e00019d55c3,2024-02-21_23h08.37.894,kallum_motion_pilot,2023.2.2,Win32,60.24096386,5b8c8e7d0c740e00019d55c3,65d6bb0e977760de756971f7,65d6d4d6dfcd203fc765bab2,0.0408,0.0408,0,33,33,87,1,eightseven,,,,,,,,,,,,,,,,,,,,,,,,,,,,,,,,,,,,,,,,,,,,,,,,,,,,,,,,,,,,,,,,,,,,,,,,,,,,,,,,,,,,,,,,,,,,,,,,,,,,,,,,,,,,,,,,,,,,,,,,,,,,,,,,,,,,,,,,,
,,5b8c8e7d0c740e00019d55c3,2024-02-21_23h08.37.894,kallum_motion_pilot,2023.2.2,Win32,60.24096386,5b8c8e7d0c740e00019d55c3,65d6bb0e977760de756971f7,65d6d4d6dfcd203fc765bab2,0.0411,0.0412,0,34,34,14,1,fourtwo,,,,,,,,,,,,,,,,,,,,,,,,,,,,,,,,,,,,,,,,,,,,,,,,,,,,,,,,,,,,,,,,,,,,,,,,,,,,,,,,,,,,,,,,,,,,,,,,,,,,,,,,,,,,,,,,,,,,,,,,,,,,,,,,,,,,,,,,,
,,5b8c8e7d0c740e00019d55c3,2024-02-21_23h08.37.894,kallum_motion_pilot,2023.2.2,Win32,60.24096386,5b8c8e7d0c740e00019d55c3,65d6bb0e977760de756971f7,65d6d4d6dfcd203fc765bab2,0.0415,0.0415,0,35,35,16,1,onetwo,,,,,,,,,,,,,,,,,,,,,,,,,,,,,,,,,,,,,,,,,,,,,,,,,,,,,,,,,,,,,,,,,,,,,,,,,,,,,,,,,,,,,,,,,,,,,,,,,,,,,,,,,,,,,,,,,,,,,,,,,,,,,,,,,,,,,,,,,
,,5b8c8e7d0c740e00019d55c3,2024-02-21_23h08.37.894,kallum_motion_pilot,2023.2.2,Win32,60.24096386,5b8c8e7d0c740e00019d55c3,65d6bb0e977760de756971f7,65d6d4d6dfcd203fc765bab2,0.0419,0.042,0,36,36,78,1,fourtwo,,,,,,,,,,,,,,,,,,,,,,,,,,,,,,,,,,,,,,,,,,,,,,,,,,,,,,,,,,,,,,,,,,,,,,,,,,,,,,,,,,,,,,,,,,,,,,,,,,,,,,,,,,,,,,,,,,,,,,,,,,,,,,,,,,,,,,,,,
,,5b8c8e7d0c740e00019d55c3,2024-02-21_23h08.37.894,kallum_motion_pilot,2023.2.2,Win32,60.24096386,5b8c8e7d0c740e00019d55c3,65d6bb0e977760de756971f7,65d6d4d6dfcd203fc765bab2,0.0422,0.0423,0,37,37,127,1,eightseven,,,,,,,,,,,,,,,,,,,,,,,,,,,,,,,,,,,,,,,,,,,,,,,,,,,,,,,,,,,,,,,,,,,,,,,,,,,,,,,,,,,,,,,,,,,,,,,,,,,,,,,,,,,,,,,,,,,,,,,,,,,,,,,,,,,,,,,,,
,,5b8c8e7d0c740e00019d55c3,2024-02-21_23h08.37.894,kallum_motion_pilot,2023.2.2,Win32,60.24096386,5b8c8e7d0c740e00019d55c3,65d6bb0e977760de756971f7,65d6d4d6dfcd203fc765bab2,0.0426,0.0427,0,38,38,40,1,onetwo,,,,,,,,,,,,,,,,,,,,,,,,,,,,,,,,,,,,,,,,,,,,,,,,,,,,,,,,,,,,,,,,,,,,,,,,,,,,,,,,,,,,,,,,,,,,,,,,,,,,,,,,,,,,,,,,,,,,,,,,,,,,,,,,,,,,,,,,,
,,5b8c8e7d0c740e00019d55c3,2024-02-21_23h08.37.894,kallum_motion_pilot,2023.2.2,Win32,60.24096386,5b8c8e7d0c740e00019d55c3,65d6bb0e977760de756971f7,65d6d4d6dfcd203fc765bab2,0.043,0.0431,0,39,39,109,1,seveneight,,,,,,,,,,,,,,,,,,,,,,,,,,,,,,,,,,,,,,,,,,,,,,,,,,,,,,,,,,,,,,,,,,,,,,,,,,,,,,,,,,,,,,,,,,,,,,,,,,,,,,,,,,,,,,,,,,,,,,,,,,,,,,,,,,,,,,,,,
,,5b8c8e7d0c740e00019d55c3,2024-02-21_23h08.37.894,kallum_motion_pilot,2023.2.2,Win32,60.24096386,5b8c8e7d0c740e00019d55c3,65d6bb0e977760de756971f7,65d6d4d6dfcd203fc765bab2,0.0432,0.0434,0,40,40,99,1,sixeight,,,,,,,,,,,,,,,,,,,,,,,,,,,,,,,,,,,,,,,,,,,,,,,,,,,,,,,,,,,,,,,,,,,,,,,,,,,,,,,,,,,,,,,,,,,,,,,,,,,,,,,,,,,,,,,,,,,,,,,,,,,,,,,,,,,,,,,,,
,,5b8c8e7d0c740e00019d55c3,2024-02-21_23h08.37.894,kallum_motion_pilot,2023.2.2,Win32,60.24096386,5b8c8e7d0c740e00019d55c3,65d6bb0e977760de756971f7,65d6d4d6dfcd203fc765bab2,0.0436,0.0437,0,41,41,67,1,twofour,,,,,,,,,,,,,,,,,,,,,,,,,,,,,,,,,,,,,,,,,,,,,,,,,,,,,,,,,,,,,,,,,,,,,,,,,,,,,,,,,,,,,,,,,,,,,,,,,,,,,,,,,,,,,,,,,,,,,,,,,,,,,,,,,,,,,,,,,
,,5b8c8e7d0c740e00019d55c3,2024-02-21_23h08.37.894,kallum_motion_pilot,2023.2.2,Win32,60.24096386,5b8c8e7d0c740e00019d55c3,65d6bb0e977760de756971f7,65d6d4d6dfcd203fc765bab2,0.0439,0.044,0,42,42,147,1,sixeight,,,,,,,,,,,,,,,,,,,,,,,,,,,,,,,,,,,,,,,,,,,,,,,,,,,,,,,,,,,,,,,,,,,,,,,,,,,,,,,,,,,,,,,,,,,,,,,,,,,,,,,,,,,,,,,,,,,,,,,,,,,,,,,,,,,,,,,,,
,,5b8c8e7d0c740e00019d55c3,2024-02-21_23h08.37.894,kallum_motion_pilot,2023.2.2,Win32,60.24096386,5b8c8e7d0c740e00019d55c3,65d6bb0e977760de756971f7,65d6d4d6dfcd203fc765bab2,0.0442,0.0443,0,43,43,61,1,threefour,,,,,,,,,,,,,,,,,,,,,,,,,,,,,,,,,,,,,,,,,,,,,,,,,,,,,,,,,,,,,,,,,,,,,,,,,,,,,,,,,,,,,,,,,,,,,,,,,,,,,,,,,,,,,,,,,,,,,,,,,,,,,,,,,,,,,,,,,
,,5b8c8e7d0c740e00019d55c3,2024-02-21_23h08.37.894,kallum_motion_pilot,2023.2.2,Win32,60.24096386,5b8c8e7d0c740e00019d55c3,65d6bb0e977760de756971f7,65d6d4d6dfcd203fc765bab2,0.0445,0.0446,0,44,44,83,1,sixeight,,,,,,,,,,,,,,,,,,,,,,,,,,,,,,,,,,,,,,,,,,,,,,,,,,,,,,,,,,,,,,,,,,,,,,,,,,,,,,,,,,,,,,,,,,,,,,,,,,,,,,,,,,,,,,,,,,,,,,,,,,,,,,,,,,,,,,,,,
,,5b8c8e7d0c740e00019d55c3,2024-02-21_23h08.37.894,kallum_motion_pilot,2023.2.2,Win32,60.24096386,5b8c8e7d0c740e00019d55c3,65d6bb0e977760de756971f7,65d6d4d6dfcd203fc765bab2,0.0449,0.045,0,45,45,137,1,fiveseven,,,,,,,,,,,,,,,,,,,,,,,,,,,,,,,,,,,,,,,,,,,,,,,,,,,,,,,,,,,,,,,,,,,,,,,,,,,,,,,,,,,,,,,,,,,,,,,,,,,,,,,,,,,,,,,,,,,,,,,,,,,,,,,,,,,,,,,,,
,,5b8c8e7d0c740e00019d55c3,2024-02-21_23h08.37.894,kallum_motion_pilot,2023.2.2,Win32,60.24096386,5b8c8e7d0c740e00019d55c3,65d6bb0e977760de756971f7,65d6d4d6dfcd203fc765bab2,0.0453,0.0455,0,46,46,30,1,fourtwo,,,,,,,,,,,,,,,,,,,,,,,,,,,,,,,,,,,,,,,,,,,,,,,,,,,,,,,,,,,,,,,,,,,,,,,,,,,,,,,,,,,,,,,,,,,,,,,,,,,,,,,,,,,,,,,,,,,,,,,,,,,,,,,,,,,,,,,,,
,,5b8c8e7d0c740e00019d55c3,2024-02-21_23h08.37.894,kallum_motion_pilot,2023.2.2,Win32,60.24096386,5b8c8e7d0c740e00019d55c3,65d6bb0e977760de756971f7,65d6d4d6dfcd203fc765bab2,0.0458,0.047,0,47,47,65,1,onethree,,,,,,,,,,,,,,,,,,,,,,,,,,,,,,,,,,,,,,,,,,,,,,,,,,,,,,,,,,,,,,,,,,,,,,,,,,,,,,,,,,,,,,,,,,,,,,,,,,,,,,,,,,,,,,,,,,,,,,,,,,,,,,,,,,,,,,,,,
,,5b8c8e7d0c740e00019d55c3,2024-02-21_23h08.37.894,kallum_motion_pilot,2023.2.2,Win32,60.24096386,5b8c8e7d0c740e00019d55c3,65d6bb0e977760de756971f7,65d6d4d6dfcd203fc765bab2,0.0475,0.0476,0,48,48,93,1,seveneight,,,,,,,,,,,,,,,,,,,,,,,,,,,,,,,,,,,,,,,,,,,,,,,,,,,,,,,,,,,,,,,,,,,,,,,,,,,,,,,,,,,,,,,,,,,,,,,,,,,,,,,,,,,,,,,,,,,,,,,,,,,,,,,,,,,,,,,,,
,,5b8c8e7d0c740e00019d55c3,2024-02-21_23h08.37.894,kallum_motion_pilot,2023.2.2,Win32,60.24096386,5b8c8e7d0c740e00019d55c3,65d6bb0e977760de756971f7,65d6d4d6dfcd203fc765bab2,0.048,0.0482,0,49,49,57,1,onethree,,,,,,,,,,,,,,,,,,,,,,,,,,,,,,,,,,,,,,,,,,,,,,,,,,,,,,,,,,,,,,,,,,,,,,,,,,,,,,,,,,,,,,,,,,,,,,,,,,,,,,,,,,,,,,,,,,,,,,,,,,,,,,,,,,,,,,,,,
,,5b8c8e7d0c740e00019d55c3,2024-02-21_23h08.37.894,kallum_motion_pilot,2023.2.2,Win32,60.24096386,5b8c8e7d0c740e00019d55c3,65d6bb0e977760de756971f7,65d6d4d6dfcd203fc765bab2,0.0485,0.0486,0,50,50,156,1,sevenfive,,,,,,,,,,,,,,,,,,,,,,,,,,,,,,,,,,,,,,,,,,,,,,,,,,,,,,,,,,,,,,,,,,,,,,,,,,,,,,,,,,,,,,,,,,,,,,,,,,,,,,,,,,,,,,,,,,,,,,,,,,,,,,,,,,,,,,,,,
,,5b8c8e7d0c740e00019d55c3,2024-02-21_23h08.37.894,kallum_motion_pilot,2023.2.2,Win32,60.24096386,5b8c8e7d0c740e00019d55c3,65d6bb0e977760de756971f7,65d6d4d6dfcd203fc765bab2,0.0489,0.0491,0,51,51,96,1,fivesix,,,,,,,,,,,,,,,,,,,,,,,,,,,,,,,,,,,,,,,,,,,,,,,,,,,,,,,,,,,,,,,,,,,,,,,,,,,,,,,,,,,,,,,,,,,,,,,,,,,,,,,,,,,,,,,,,,,,,,,,,,,,,,,,,,,,,,,,,
,,5b8c8e7d0c740e00019d55c3,2024-02-21_23h08.37.894,kallum_motion_pilot,2023.2.2,Win32,60.24096386,5b8c8e7d0c740e00019d55c3,65d6bb0e977760de756971f7,65d6d4d6dfcd203fc765bab2,0.0494,0.0496,0,52,52,29,1,threefour,,,,,,,,,,,,,,,,,,,,,,,,,,,,,,,,,,,,,,,,,,,,,,,,,,,,,,,,,,,,,,,,,,,,,,,,,,,,,,,,,,,,,,,,,,,,,,,,,,,,,,,,,,,,,,,,,,,,,,,,,,,,,,,,,,,,,,,,,
,,5b8c8e7d0c740e00019d55c3,2024-02-21_23h08.37.894,kallum_motion_pilot,2023.2.2,Win32,60.24096386,5b8c8e7d0c740e00019d55c3,65d6bb0e977760de756971f7,65d6d4d6dfcd203fc765bab2,0.0498,0.05,0,53,53,115,1,sixeight,,,,,,,,,,,,,,,,,,,,,,,,,,,,,,,,,,,,,,,,,,,,,,,,,,,,,,,,,,,,,,,,,,,,,,,,,,,,,,,,,,,,,,,,,,,,,,,,,,,,,,,,,,,,,,,,,,,,,,,,,,,,,,,,,,,,,,,,,
,,5b8c8e7d0c740e00019d55c3,2024-02-21_23h08.37.894,kallum_motion_pilot,2023.2.2,Win32,60.24096386,5b8c8e7d0c740e00019d55c3,65d6bb0e977760de756971f7,65d6d4d6dfcd203fc765bab2,0.0502,0.0504,0,54,54,49,1,onethree,,,,,,,,,,,,,,,,,,,,,,,,,,,,,,,,,,,,,,,,,,,,,,,,,,,,,,,,,,,,,,,,,,,,,,,,,,,,,,,,,,,,,,,,,,,,,,,,,,,,,,,,,,,,,,,,,,,,,,,,,,,,,,,,,,,,,,,,,
,,5b8c8e7d0c740e00019d55c3,2024-02-21_23h08.37.894,kallum_motion_pilot,2023.2.2,Win32,60.24096386,5b8c8e7d0c740e00019d55c3,65d6bb0e977760de756971f7,65d6d4d6dfcd203fc765bab2,0.0506,0.0507,0,55,55,142,1,eightsix,,,,,,,,,,,,,,,,,,,,,,,,,,,,,,,,,,,,,,,,,,,,,,,,,,,,,,,,,,,,,,,,,,,,,,,,,,,,,,,,,,,,,,,,,,,,,,,,,,,,,,,,,,,,,,,,,,,,,,,,,,,,,,,,,,,,,,,,,
,,5b8c8e7d0c740e00019d55c3,2024-02-21_23h08.37.894,kallum_motion_pilot,2023.2.2,Win32,60.24096386,5b8c8e7d0c740e00019d55c3,65d6bb0e977760de756971f7,65d6d4d6dfcd203fc765bab2,0.051,0.0512,0,56,56,161,1,fiveseven,,,,,,,,,,,,,,,,,,,,,,,,,,,,,,,,,,,,,,,,,,,,,,,,,,,,,,,,,,,,,,,,,,,,,,,,,,,,,,,,,,,,,,,,,,,,,,,,,,,,,,,,,,,,,,,,,,,,,,,,,,,,,,,,,,,,,,,,,
,,5b8c8e7d0c740e00019d55c3,2024-02-21_23h08.37.894,kallum_motion_pilot,2023.2.2,Win32,60.24096386,5b8c8e7d0c740e00019d55c3,65d6bb0e977760de756971f7,65d6d4d6dfcd203fc765bab2,0.0514,0.0515,0,57,57,59,1,twofour,,,,,,,,,,,,,,,,,,,,,,,,,,,,,,,,,,,,,,,,,,,,,,,,,,,,,,,,,,,,,,,,,,,,,,,,,,,,,,,,,,,,,,,,,,,,,,,,,,,,,,,,,,,,,,,,,,,,,,,,,,,,,,,,,,,,,,,,,
,,5b8c8e7d0c740e00019d55c3,2024-02-21_23h08.37.894,kallum_motion_pilot,2023.2.2,Win32,60.24096386,5b8c8e7d0c740e00019d55c3,65d6bb0e977760de756971f7,65d6d4d6dfcd203fc765bab2,0.0518,0.052,0,58,58,12,1,threeone,,,,,,,,,,,,,,,,,,,,,,,,,,,,,,,,,,,,,,,,,,,,,,,,,,,,,,,,,,,,,,,,,,,,,,,,,,,,,,,,,,,,,,,,,,,,,,,,,,,,,,,,,,,,,,,,,,,,,,,,,,,,,,,,,,,,,,,,,
,,5b8c8e7d0c740e00019d55c3,2024-02-21_23h08.37.894,kallum_motion_pilot,2023.2.2,Win32,60.24096386,5b8c8e7d0c740e00019d55c3,65d6bb0e977760de756971f7,65d6d4d6dfcd203fc765bab2,0.0523,0.0524,0,59,59,71,1,fourthree,,,,,,,,,,,,,,,,,,,,,,,,,,,,,,,,,,,,,,,,,,,,,,,,,,,,,,,,,,,,,,,,,,,,,,,,,,,,,,,,,,,,,,,,,,,,,,,,,,,,,,,,,,,,,,,,,,,,,,,,,,,,,,,,,,,,,,,,,
,,5b8c8e7d0c740e00019d55c3,2024-02-21_23h08.37.894,kallum_motion_pilot,2023.2.2,Win32,60.24096386,5b8c8e7d0c740e00019d55c3,65d6bb0e977760de756971f7,65d6d4d6dfcd203fc765bab2,0.0528,0.053,0,60,60,50,1,twoone,,,,,,,,,,,,,,,,,,,,,,,,,,,,,,,,,,,,,,,,,,,,,,,,,,,,,,,,,,,,,,,,,,,,,,,,,,,,,,,,,,,,,,,,,,,,,,,,,,,,,,,,,,,,,,,,,,,,,,,,,,,,,,,,,,,,,,,,,
,,5b8c8e7d0c740e00019d55c3,2024-02-21_23h08.37.894,kallum_motion_pilot,2023.2.2,Win32,60.24096386,5b8c8e7d0c740e00019d55c3,65d6bb0e977760de756971f7,65d6d4d6dfcd203fc765bab2,0.0532,0.0533,0,61,61,53,1,threefour,,,,,,,,,,,,,,,,,,,,,,,,,,,,,,,,,,,,,,,,,,,,,,,,,,,,,,,,,,,,,,,,,,,,,,,,,,,,,,,,,,,,,,,,,,,,,,,,,,,,,,,,,,,,,,,,,,,,,,,,,,,,,,,,,,,,,,,,,
,,5b8c8e7d0c740e00019d55c3,2024-02-21_23h08.37.894,kallum_motion_pilot,2023.2.2,Win32,60.24096386,5b8c8e7d0c740e00019d55c3,65d6bb0e977760de756971f7,65d6d4d6dfcd203fc765bab2,0.0539,0.0542,0,62,62,120,1,fivesix,,,,,,,,,,,,,,,,,,,,,,,,,,,,,,,,,,,,,,,,,,,,,,,,,,,,,,,,,,,,,,,,,,,,,,,,,,,,,,,,,,,,,,,,,,,,,,,,,,,,,,,,,,,,,,,,,,,,,,,,,,,,,,,,,,,,,,,,,
,,5b8c8e7d0c740e00019d55c3,2024-02-21_23h08.37.894,kallum_motion_pilot,2023.2.2,Win32,60.24096386,5b8c8e7d0c740e00019d55c3,65d6bb0e977760de756971f7,65d6d4d6dfcd203fc765bab2,0.0545,0.0547,0,63,63,150,1,eightsix,,,,,,,,,,,,,,,,,,,,,,,,,,,,,,,,,,,,,,,,,,,,,,,,,,,,,,,,,,,,,,,,,,,,,,,,,,,,,,,,,,,,,,,,,,,,,,,,,,,,,,,,,,,,,,,,,,,,,,,,,,,,,,,,,,,,,,,,,
,,5b8c8e7d0c740e00019d55c3,2024-02-21_23h08.37.894,kallum_motion_pilot,2023.2.2,Win32,60.24096386,5b8c8e7d0c740e00019d55c3,65d6bb0e977760de756971f7,65d6d4d6dfcd203fc765bab2,0.055,0.0552,0,64,64,145,1,fiveseven,,,,,,,,,,,,,,,,,,,,,,,,,,,,,,,,,,,,,,,,,,,,,,,,,,,,,,,,,,,,,,,,,,,,,,,,,,,,,,,,,,,,,,,,,,,,,,,,,,,,,,,,,,,,,,,,,,,,,,,,,,,,,,,,,,,,,,,,,
,,5b8c8e7d0c740e00019d55c3,2024-02-21_23h08.37.894,kallum_motion_pilot,2023.2.2,Win32,60.24096386,5b8c8e7d0c740e00019d55c3,65d6bb0e977760de756971f7,65d6d4d6dfcd203fc765bab2,0.0554,0.0556,0,65,65,102,1,eightsix,,,,,,,,,,,,,,,,,,,,,,,,,,,,,,,,,,,,,,,,,,,,,,,,,,,,,,,,,,,,,,,,,,,,,,,,,,,,,,,,,,,,,,,,,,,,,,,,,,,,,,,,,,,,,,,,,,,,,,,,,,,,,,,,,,,,,,,,,
,,5b8c8e7d0c740e00019d55c3,2024-02-21_23h08.37.894,kallum_motion_pilot,2023.2.2,Win32,60.24096386,5b8c8e7d0c740e00019d55c3,65d6bb0e977760de756971f7,65d6d4d6dfcd203fc765bab2,0.056,0.0561,0,66,66,75,1,twofour,,,,,,,,,,,,,,,,,,,,,,,,,,,,,,,,,,,,,,,,,,,,,,,,,,,,,,,,,,,,,,,,,,,,,,,,,,,,,,,,,,,,,,,,,,,,,,,,,,,,,,,,,,,,,,,,,,,,,,,,,,,,,,,,,,,,,,,,,
,,5b8c8e7d0c740e00019d55c3,2024-02-21_23h08.37.894,kallum_motion_pilot,2023.2.2,Win32,60.24096386,5b8c8e7d0c740e00019d55c3,65d6bb0e977760de756971f7,65d6d4d6dfcd203fc765bab2,0.0564,0.0569,0,67,67,73,1,onethree,,,,,,,,,,,,,,,,,,,,,,,,,,,,,,,,,,,,,,,,,,,,,,,,,,,,,,,,,,,,,,,,,,,,,,,,,,,,,,,,,,,,,,,,,,,,,,,,,,,,,,,,,,,,,,,,,,,,,,,,,,,,,,,,,,,,,,,,,
,,5b8c8e7d0c740e00019d55c3,2024-02-21_23h08.37.894,kallum_motion_pilot,2023.2.2,Win32,60.24096386,5b8c8e7d0c740e00019d55c3,65d6bb0e977760de756971f7,65d6d4d6dfcd203fc765bab2,0.0572,0.0575,0,68,68,130,1,sixfive,,,,,,,,,,,,,,,,,,,,,,,,,,,,,,,,,,,,,,,,,,,,,,,,,,,,,,,,,,,,,,,,,,,,,,,,,,,,,,,,,,,,,,,,,,,,,,,,,,,,,,,,,,,,,,,,,,,,,,,,,,,,,,,,,,,,,,,,,
,,5b8c8e7d0c740e00019d55c3,2024-02-21_23h08.37.894,kallum_motion_pilot,2023.2.2,Win32,60.24096386,5b8c8e7d0c740e00019d55c3,65d6bb0e977760de756971f7,65d6d4d6dfcd203fc765bab2,0.0577,0.058,0,69,69,144,1,fivesix,,,,,,,,,,,,,,,,,,,,,,,,,,,,,,,,,,,,,,,,,,,,,,,,,,,,,,,,,,,,,,,,,,,,,,,,,,,,,,,,,,,,,,,,,,,,,,,,,,,,,,,,,,,,,,,,,,,,,,,,,,,,,,,,,,,,,,,,,
,,5b8c8e7d0c740e00019d55c3,2024-02-21_23h08.37.894,kallum_motion_pilot,2023.2.2,Win32,60.24096386,5b8c8e7d0c740e00019d55c3,65d6bb0e977760de756971f7,65d6d4d6dfcd203fc765bab2,0.0583,0.0584,0,70,70,106,1,sixfive,,,,,,,,,,,,,,,,,,,,,,,,,,,,,,,,,,,,,,,,,,,,,,,,,,,,,,,,,,,,,,,,,,,,,,,,,,,,,,,,,,,,,,,,,,,,,,,,,,,,,,,,,,,,,,,,,,,,,,,,,,,,,,,,,,,,,,,,,
,,5b8c8e7d0c740e00019d55c3,2024-02-21_23h08.37.894,kallum_motion_pilot,2023.2.2,Win32,60.24096386,5b8c8e7d0c740e00019d55c3,65d6bb0e977760de756971f7,65d6d4d6dfcd203fc765bab2,0.0588,0.059,0,71,71,6,1,fourtwo,,,,,,,,,,,,,,,,,,,,,,,,,,,,,,,,,,,,,,,,,,,,,,,,,,,,,,,,,,,,,,,,,,,,,,,,,,,,,,,,,,,,,,,,,,,,,,,,,,,,,,,,,,,,,,,,,,,,,,,,,,,,,,,,,,,,,,,,,
,,5b8c8e7d0c740e00019d55c3,2024-02-21_23h08.37.894,kallum_motion_pilot,2023.2.2,Win32,60.24096386,5b8c8e7d0c740e00019d55c3,65d6bb0e977760de756971f7,65d6d4d6dfcd203fc765bab2,0.0594,0.0595,0,72,72,19,1,twofour,,,,,,,,,,,,,,,,,,,,,,,,,,,,,,,,,,,,,,,,,,,,,,,,,,,,,,,,,,,,,,,,,,,,,,,,,,,,,,,,,,,,,,,,,,,,,,,,,,,,,,,,,,,,,,,,,,,,,,,,,,,,,,,,,,,,,,,,,
,,5b8c8e7d0c740e00019d55c3,2024-02-21_23h08.37.894,kallum_motion_pilot,2023.2.2,Win32,60.24096386,5b8c8e7d0c740e00019d55c3,65d6bb0e977760de756971f7,65d6d4d6dfcd203fc765bab2,0.0597,0.0599,0,73,73,26,1,twoone,,,,,,,,,,,,,,,,,,,,,,,,,,,,,,,,,,,,,,,,,,,,,,,,,,,,,,,,,,,,,,,,,,,,,,,,,,,,,,,,,,,,,,,,,,,,,,,,,,,,,,,,,,,,,,,,,,,,,,,,,,,,,,,,,,,,,,,,,
,,5b8c8e7d0c740e00019d55c3,2024-02-21_23h08.37.894,kallum_motion_pilot,2023.2.2,Win32,60.24096386,5b8c8e7d0c740e00019d55c3,65d6bb0e977760de756971f7,65d6d4d6dfcd203fc765bab2,0.0601,0.0603,0,74,74,4,1,threeone,,,,,,,,,,,,,,,,,,,,,,,,,,,,,,,,,,,,,,,,,,,,,,,,,,,,,,,,,,,,,,,,,,,,,,,,,,,,,,,,,,,,,,,,,,,,,,,,,,,,,,,,,,,,,,,,,,,,,,,,,,,,,,,,,,,,,,,,,
,,5b8c8e7d0c740e00019d55c3,2024-02-21_23h08.37.894,kallum_motion_pilot,2023.2.2,Win32,60.24096386,5b8c8e7d0c740e00019d55c3,65d6bb0e977760de756971f7,65d6d4d6dfcd203fc765bab2,0.0605,0.0607,0,75,75,94,1,eightsix,,,,,,,,,,,,,,,,,,,,,,,,,,,,,,,,,,,,,,,,,,,,,,,,,,,,,,,,,,,,,,,,,,,,,,,,,,,,,,,,,,,,,,,,,,,,,,,,,,,,,,,,,,,,,,,,,,,,,,,,,,,,,,,,,,,,,,,,,
,,5b8c8e7d0c740e00019d55c3,2024-02-21_23h08.37.894,kallum_motion_pilot,2023.2.2,Win32,60.24096386,5b8c8e7d0c740e00019d55c3,65d6bb0e977760de756971f7,65d6d4d6dfcd203fc765bab2,0.061,0.0612,0,76,76,44,1,threeone,,,,,,,,,,,,,,,,,,,,,,,,,,,,,,,,,,,,,,,,,,,,,,,,,,,,,,,,,,,,,,,,,,,,,,,,,,,,,,,,,,,,,,,,,,,,,,,,,,,,,,,,,,,,,,,,,,,,,,,,,,,,,,,,,,,,,,,,,
,,5b8c8e7d0c740e00019d55c3,2024-02-21_23h08.37.894,kallum_motion_pilot,2023.2.2,Win32,60.24096386,5b8c8e7d0c740e00019d55c3,65d6bb0e977760de756971f7,65d6d4d6dfcd203fc765bab2,0.0614,0.0617,0,77,77,60,1,threeone,,,,,,,,,,,,,,,,,,,,,,,,,,,,,,,,,,,,,,,,,,,,,,,,,,,,,,,,,,,,,,,,,,,,,,,,,,,,,,,,,,,,,,,,,,,,,,,,,,,,,,,,,,,,,,,,,,,,,,,,,,,,,,,,,,,,,,,,,
,,5b8c8e7d0c740e00019d55c3,2024-02-21_23h08.37.894,kallum_motion_pilot,2023.2.2,Win32,60.24096386,5b8c8e7d0c740e00019d55c3,65d6bb0e977760de756971f7,65d6d4d6dfcd203fc765bab2,0.062,0.0621,0,78,78,105,1,fiveseven,,,,,,,,,,,,,,,,,,,,,,,,,,,,,,,,,,,,,,,,,,,,,,,,,,,,,,,,,,,,,,,,,,,,,,,,,,,,,,,,,,,,,,,,,,,,,,,,,,,,,,,,,,,,,,,,,,,,,,,,,,,,,,,,,,,,,,,,,
,,5b8c8e7d0c740e00019d55c3,2024-02-21_23h08.37.894,kallum_motion_pilot,2023.2.2,Win32,60.24096386,5b8c8e7d0c740e00019d55c3,65d6bb0e977760de756971f7,65d6d4d6dfcd203fc765bab2,0.0625,0.0638,0,79,79,3,1,twofour,,,,,,,,,,,,,,,,,,,,,,,,,,,,,,,,,,,,,,,,,,,,,,,,,,,,,,,,,,,,,,,,,,,,,,,,,,,,,,,,,,,,,,,,,,,,,,,,,,,,,,,,,,,,,,,,,,,,,,,,,,,,,,,,,,,,,,,,,
,,5b8c8e7d0c740e00019d55c3,2024-02-21_23h08.37.894,kallum_motion_pilot,2023.2.2,Win32,60.24096386,5b8c8e7d0c740e00019d55c3,65d6bb0e977760de756971f7,65d6d4d6dfcd203fc765bab2,0.0642,0.0644,0,80,80,143,1,eightseven,,,,,,,,,,,,,,,,,,,,,,,,,,,,,,,,,,,,,,,,,,,,,,,,,,,,,,,,,,,,,,,,,,,,,,,,,,,,,,,,,,,,,,,,,,,,,,,,,,,,,,,,,,,,,,,,,,,,,,,,,,,,,,,,,,,,,,,,,
,,5b8c8e7d0c740e00019d55c3,2024-02-21_23h08.37.894,kallum_motion_pilot,2023.2.2,Win32,60.24096386,5b8c8e7d0c740e00019d55c3,65d6bb0e977760de756971f7,65d6d4d6dfcd203fc765bab2,0.0647,0.0648,0,81,81,148,1,sevenfive,,,,,,,,,,,,,,,,,,,,,,,,,,,,,,,,,,,,,,,,,,,,,,,,,,,,,,,,,,,,,,,,,,,,,,,,,,,,,,,,,,,,,,,,,,,,,,,,,,,,,,,,,,,,,,,,,,,,,,,,,,,,,,,,,,,,,,,,,
,,5b8c8e7d0c740e00019d55c3,2024-02-21_23h08.37.894,kallum_motion_pilot,2023.2.2,Win32,60.24096386,5b8c8e7d0c740e00019d55c3,65d6bb0e977760de756971f7,65d6d4d6dfcd203fc765bab2,0.0651,0.0653,0,82,82,154,1,sixfive,,,,,,,,,,,,,,,,,,,,,,,,,,,,,,,,,,,,,,,,,,,,,,,,,,,,,,,,,,,,,,,,,,,,,,,,,,,,,,,,,,,,,,,,,,,,,,,,,,,,,,,,,,,,,,,,,,,,,,,,,,,,,,,,,,,,,,,,,
,,5b8c8e7d0c740e00019d55c3,2024-02-21_23h08.37.894,kallum_motion_pilot,2023.2.2,Win32,60.24096386,5b8c8e7d0c740e00019d55c3,65d6bb0e977760de756971f7,65d6d4d6dfcd203fc765bab2,0.0656,0.0657,0,83,83,89,1,fiveseven,,,,,,,,,,,,,,,,,,,,,,,,,,,,,,,,,,,,,,,,,,,,,,,,,,,,,,,,,,,,,,,,,,,,,,,,,,,,,,,,,,,,,,,,,,,,,,,,,,,,,,,,,,,,,,,,,,,,,,,,,,,,,,,,,,,,,,,,,
,,5b8c8e7d0c740e00019d55c3,2024-02-21_23h08.37.894,kallum_motion_pilot,2023.2.2,Win32,60.24096386,5b8c8e7d0c740e00019d55c3,65d6bb0e977760de756971f7,65d6d4d6dfcd203fc765bab2,0.0661,0.0663,0,84,84,118,1,eightsix,,,,,,,,,,,,,,,,,,,,,,,,,,,,,,,,,,,,,,,,,,,,,,,,,,,,,,,,,,,,,,,,,,,,,,,,,,,,,,,,,,,,,,,,,,,,,,,,,,,,,,,,,,,,,,,,,,,,,,,,,,,,,,,,,,,,,,,,,
,,5b8c8e7d0c740e00019d55c3,2024-02-21_23h08.37.894,kallum_motion_pilot,2023.2.2,Win32,60.24096386,5b8c8e7d0c740e00019d55c3,65d6bb0e977760de756971f7,65d6d4d6dfcd203fc765bab2,0.0668,0.0671,0,85,85,141,1,seveneight,,,,,,,,,,,,,,,,,,,,,,,,,,,,,,,,,,,,,,,,,,,,,,,,,,,,,,,,,,,,,,,,,,,,,,,,,,,,,,,,,,,,,,,,,,,,,,,,,,,,,,,,,,,,,,,,,,,,,,,,,,,,,,,,,,,,,,,,,
,,5b8c8e7d0c740e00019d55c3,2024-02-21_23h08.37.894,kallum_motion_pilot,2023.2.2,Win32,60.24096386,5b8c8e7d0c740e00019d55c3,65d6bb0e977760de756971f7,65d6d4d6dfcd203fc765bab2,0.0673,0.0676,0,86,86,152,1,fivesix,,,,,,,,,,,,,,,,,,,,,,,,,,,,,,,,,,,,,,,,,,,,,,,,,,,,,,,,,,,,,,,,,,,,,,,,,,,,,,,,,,,,,,,,,,,,,,,,,,,,,,,,,,,,,,,,,,,,,,,,,,,,,,,,,,,,,,,,,
,,5b8c8e7d0c740e00019d55c3,2024-02-21_23h08.37.894,kallum_motion_pilot,2023.2.2,Win32,60.24096386,5b8c8e7d0c740e00019d55c3,65d6bb0e977760de756971f7,65d6d4d6dfcd203fc765bab2,0.068,0.0681,0,87,87,121,1,fiveseven,,,,,,,,,,,,,,,,,,,,,,,,,,,,,,,,,,,,,,,,,,,,,,,,,,,,,,,,,,,,,,,,,,,,,,,,,,,,,,,,,,,,,,,,,,,,,,,,,,,,,,,,,,,,,,,,,,,,,,,,,,,,,,,,,,,,,,,,,
,,5b8c8e7d0c740e00019d55c3,2024-02-21_23h08.37.894,kallum_motion_pilot,2023.2.2,Win32,60.24096386,5b8c8e7d0c740e00019d55c3,65d6bb0e977760de756971f7,65d6d4d6dfcd203fc765bab2,0.0688,0.0689,0,88,88,116,1,sevenfive,,,,,,,,,,,,,,,,,,,,,,,,,,,,,,,,,,,,,,,,,,,,,,,,,,,,,,,,,,,,,,,,,,,,,,,,,,,,,,,,,,,,,,,,,,,,,,,,,,,,,,,,,,,,,,,,,,,,,,,,,,,,,,,,,,,,,,,,,
,,5b8c8e7d0c740e00019d55c3,2024-02-21_23h08.37.894,kallum_motion_pilot,2023.2.2,Win32,60.24096386,5b8c8e7d0c740e00019d55c3,65d6bb0e977760de756971f7,65d6d4d6dfcd203fc765bab2,0.0693,0.0694,0,89,89,126,1,eightsix,,,,,,,,,,,,,,,,,,,,,,,,,,,,,,,,,,,,,,,,,,,,,,,,,,,,,,,,,,,,,,,,,,,,,,,,,,,,,,,,,,,,,,,,,,,,,,,,,,,,,,,,,,,,,,,,,,,,,,,,,,,,,,,,,,,,,,,,,
,,5b8c8e7d0c740e00019d55c3,2024-02-21_23h08.37.894,kallum_motion_pilot,2023.2.2,Win32,60.24096386,5b8c8e7d0c740e00019d55c3,65d6bb0e977760de756971f7,65d6d4d6dfcd203fc765bab2,0.0697,0.07,0,90,90,76,1,threeone,,,,,,,,,,,,,,,,,,,,,,,,,,,,,,,,,,,,,,,,,,,,,,,,,,,,,,,,,,,,,,,,,,,,,,,,,,,,,,,,,,,,,,,,,,,,,,,,,,,,,,,,,,,,,,,,,,,,,,,,,,,,,,,,,,,,,,,,,
,,5b8c8e7d0c740e00019d55c3,2024-02-21_23h08.37.894,kallum_motion_pilot,2023.2.2,Win32,60.24096386,5b8c8e7d0c740e00019d55c3,65d6bb0e977760de756971f7,65d6d4d6dfcd203fc765bab2,0.0706,0.0708,0,91,91,2,1,twoone,,,,,,,,,,,,,,,,,,,,,,,,,,,,,,,,,,,,,,,,,,,,,,,,,,,,,,,,,,,,,,,,,,,,,,,,,,,,,,,,,,,,,,,,,,,,,,,,,,,,,,,,,,,,,,,,,,,,,,,,,,,,,,,,,,,,,,,,,
,,5b8c8e7d0c740e00019d55c3,2024-02-21_23h08.37.894,kallum_motion_pilot,2023.2.2,Win32,60.24096386,5b8c8e7d0c740e00019d55c3,65d6bb0e977760de756971f7,65d6d4d6dfcd203fc765bab2,0.0712,0.0714,0,92,92,7,1,fourthree,,,,,,,,,,,,,,,,,,,,,,,,,,,,,,,,,,,,,,,,,,,,,,,,,,,,,,,,,,,,,,,,,,,,,,,,,,,,,,,,,,,,,,,,,,,,,,,,,,,,,,,,,,,,,,,,,,,,,,,,,,,,,,,,,,,,,,,,,
,,5b8c8e7d0c740e00019d55c3,2024-02-21_23h08.37.894,kallum_motion_pilot,2023.2.2,Win32,60.24096386,5b8c8e7d0c740e00019d55c3,65d6bb0e977760de756971f7,65d6d4d6dfcd203fc765bab2,0.0717,0.072,0,93,93,48,1,onetwo,,,,,,,,,,,,,,,,,,,,,,,,,,,,,,,,,,,,,,,,,,,,,,,,,,,,,,,,,,,,,,,,,,,,,,,,,,,,,,,,,,,,,,,,,,,,,,,,,,,,,,,,,,,,,,,,,,,,,,,,,,,,,,,,,,,,,,,,,
,,5b8c8e7d0c740e00019d55c3,2024-02-21_23h08.37.894,kallum_motion_pilot,2023.2.2,Win32,60.24096386,5b8c8e7d0c740e00019d55c3,65d6bb0e977760de756971f7,65d6d4d6dfcd203fc765bab2,0.0725,0.0727,0,94,94,72,1,onetwo,,,,,,,,,,,,,,,,,,,,,,,,,,,,,,,,,,,,,,,,,,,,,,,,,,,,,,,,,,,,,,,,,,,,,,,,,,,,,,,,,,,,,,,,,,,,,,,,,,,,,,,,,,,,,,,,,,,,,,,,,,,,,,,,,,,,,,,,,
,,5b8c8e7d0c740e00019d55c3,2024-02-21_23h08.37.894,kallum_motion_pilot,2023.2.2,Win32,60.24096386,5b8c8e7d0c740e00019d55c3,65d6bb0e977760de756971f7,65d6d4d6dfcd203fc765bab2,0.073,0.0732,0,95,95,103,1,eightseven,,,,,,,,,,,,,,,,,,,,,,,,,,,,,,,,,,,,,,,,,,,,,,,,,,,,,,,,,,,,,,,,,,,,,,,,,,,,,,,,,,,,,,,,,,,,,,,,,,,,,,,,,,,,,,,,,,,,,,,,,,,,,,,,,,,,,,,,,
,,5b8c8e7d0c740e00019d55c3,2024-02-21_23h08.37.894,kallum_motion_pilot,2023.2.2,Win32,60.24096386,5b8c8e7d0c740e00019d55c3,65d6bb0e977760de756971f7,65d6d4d6dfcd203fc765bab2,0.0734,0.0736,0,96,96,63,1,fourthree,,,,,,,,,,,,,,,,,,,,,,,,,,,,,,,,,,,,,,,,,,,,,,,,,,,,,,,,,,,,,,,,,,,,,,,,,,,,,,,,,,,,,,,,,,,,,,,,,,,,,,,,,,,,,,,,,,,,,,,,,,,,,,,,,,,,,,,,,
,,5b8c8e7d0c740e00019d55c3,2024-02-21_23h08.37.894,kallum_motion_pilot,2023.2.2,Win32,60.24096386,5b8c8e7d0c740e00019d55c3,65d6bb0e977760de756971f7,65d6d4d6dfcd203fc765bab2,0.0738,0.0739,0,97,97,8,1,onetwo,,,,,,,,,,,,,,,,,,,,,,,,,,,,,,,,,,,,,,,,,,,,,,,,,,,,,,,,,,,,,,,,,,,,,,,,,,,,,,,,,,,,,,,,,,,,,,,,,,,,,,,,,,,,,,,,,,,,,,,,,,,,,,,,,,,,,,,,,
,,5b8c8e7d0c740e00019d55c3,2024-02-21_23h08.37.894,kallum_motion_pilot,2023.2.2,Win32,60.24096386,5b8c8e7d0c740e00019d55c3,65d6bb0e977760de756971f7,65d6d4d6dfcd203fc765bab2,0.0743,0.0744,0,98,98,55,1,fourthree,,,,,,,,,,,,,,,,,,,,,,,,,,,,,,,,,,,,,,,,,,,,,,,,,,,,,,,,,,,,,,,,,,,,,,,,,,,,,,,,,,,,,,,,,,,,,,,,,,,,,,,,,,,,,,,,,,,,,,,,,,,,,,,,,,,,,,,,,
,,5b8c8e7d0c740e00019d55c3,2024-02-21_23h08.37.894,kallum_motion_pilot,2023.2.2,Win32,60.24096386,5b8c8e7d0c740e00019d55c3,65d6bb0e977760de756971f7,65d6d4d6dfcd203fc765bab2,0.0747,0.0748,0,99,99,134,1,eightsix,,,,,,,,,,,,,,,,,,,,,,,,,,,,,,,,,,,,,,,,,,,,,,,,,,,,,,,,,,,,,,,,,,,,,,,,,,,,,,,,,,,,,,,,,,,,,,,,,,,,,,,,,,,,,,,,,,,,,,,,,,,,,,,,,,,,,,,,,
,,5b8c8e7d0c740e00019d55c3,2024-02-21_23h08.37.894,kallum_motion_pilot,2023.2.2,Win32,60.24096386,5b8c8e7d0c740e00019d55c3,65d6bb0e977760de756971f7,65d6d4d6dfcd203fc765bab2,0.0751,0.0753,0,100,100,112,1,fivesix,,,,,,,,,,,,,,,,,,,,,,,,,,,,,,,,,,,,,,,,,,,,,,,,,,,,,,,,,,,,,,,,,,,,,,,,,,,,,,,,,,,,,,,,,,,,,,,,,,,,,,,,,,,,,,,,,,,,,,,,,,,,,,,,,,,,,,,,,
,,5b8c8e7d0c740e00019d55c3,2024-02-21_23h08.37.894,kallum_motion_pilot,2023.2.2,Win32,60.24096386,5b8c8e7d0c740e00019d55c3,65d6bb0e977760de756971f7,65d6d4d6dfcd203fc765bab2,0.0755,0.0756,0,101,101,136,1,fivesix,,,,,,,,,,,,,,,,,,,,,,,,,,,,,,,,,,,,,,,,,,,,,,,,,,,,,,,,,,,,,,,,,,,,,,,,,,,,,,,,,,,,,,,,,,,,,,,,,,,,,,,,,,,,,,,,,,,,,,,,,,,,,,,,,,,,,,,,,
,,5b8c8e7d0c740e00019d55c3,2024-02-21_23h08.37.894,kallum_motion_pilot,2023.2.2,Win32,60.24096386,5b8c8e7d0c740e00019d55c3,65d6bb0e977760de756971f7,65d6d4d6dfcd203fc765bab2,0.076,0.0761,0,102,102,128,1,fivesix,,,,,,,,,,,,,,,,,,,,,,,,,,,,,,,,,,,,,,,,,,,,,,,,,,,,,,,,,,,,,,,,,,,,,,,,,,,,,,,,,,,,,,,,,,,,,,,,,,,,,,,,,,,,,,,,,,,,,,,,,,,,,,,,,,,,,,,,,
,,5b8c8e7d0c740e00019d55c3,2024-02-21_23h08.37.894,kallum_motion_pilot,2023.2.2,Win32,60.24096386,5b8c8e7d0c740e00019d55c3,65d6bb0e977760de756971f7,65d6d4d6dfcd203fc765bab2,0.0763,0.0766,0,103,103,47,1,fourthree,,,,,,,,,,,,,,,,,,,,,,,,,,,,,,,,,,,,,,,,,,,,,,,,,,,,,,,,,,,,,,,,,,,,,,,,,,,,,,,,,,,,,,,,,,,,,,,,,,,,,,,,,,,,,,,,,,,,,,,,,,,,,,,,,,,,,,,,,
,,5b8c8e7d0c740e00019d55c3,2024-02-21_23h08.37.894,kallum_motion_pilot,2023.2.2,Win32,60.24096386,5b8c8e7d0c740e00019d55c3,65d6bb0e977760de756971f7,65d6d4d6dfcd203fc765bab2,0.0774,0.0777,0,104,104,10,1,twoone,,,,,,,,,,,,,,,,,,,,,,,,,,,,,,,,,,,,,,,,,,,,,,,,,,,,,,,,,,,,,,,,,,,,,,,,,,,,,,,,,,,,,,,,,,,,,,,,,,,,,,,,,,,,,,,,,,,,,,,,,,,,,,,,,,,,,,,,,
,,5b8c8e7d0c740e00019d55c3,2024-02-21_23h08.37.894,kallum_motion_pilot,2023.2.2,Win32,60.24096386,5b8c8e7d0c740e00019d55c3,65d6bb0e977760de756971f7,65d6d4d6dfcd203fc765bab2,0.0782,0.0783,0,105,105,13,1,threefour,,,,,,,,,,,,,,,,,,,,,,,,,,,,,,,,,,,,,,,,,,,,,,,,,,,,,,,,,,,,,,,,,,,,,,,,,,,,,,,,,,,,,,,,,,,,,,,,,,,,,,,,,,,,,,,,,,,,,,,,,,,,,,,,,,,,,,,,,
,,5b8c8e7d0c740e00019d55c3,2024-02-21_23h08.37.894,kallum_motion_pilot,2023.2.2,Win32,60.24096386,5b8c8e7d0c740e00019d55c3,65d6bb0e977760de756971f7,65d6d4d6dfcd203fc765bab2,0.0787,0.0789,0,106,106,159,1,eightseven,,,,,,,,,,,,,,,,,,,,,,,,,,,,,,,,,,,,,,,,,,,,,,,,,,,,,,,,,,,,,,,,,,,,,,,,,,,,,,,,,,,,,,,,,,,,,,,,,,,,,,,,,,,,,,,,,,,,,,,,,,,,,,,,,,,,,,,,,
,,5b8c8e7d0c740e00019d55c3,2024-02-21_23h08.37.894,kallum_motion_pilot,2023.2.2,Win32,60.24096386,5b8c8e7d0c740e00019d55c3,65d6bb0e977760de756971f7,65d6d4d6dfcd203fc765bab2,0.0811,0.0813,0,107,107,52,1,threeone,,,,,,,,,,,,,,,,,,,,,,,,,,,,,,,,,,,,,,,,,,,,,,,,,,,,,,,,,,,,,,,,,,,,,,,,,,,,,,,,,,,,,,,,,,,,,,,,,,,,,,,,,,,,,,,,,,,,,,,,,,,,,,,,,,,,,,,,,
,,5b8c8e7d0c740e00019d55c3,2024-02-21_23h08.37.894,kallum_motion_pilot,2023.2.2,Win32,60.24096386,5b8c8e7d0c740e00019d55c3,65d6bb0e977760de756971f7,65d6d4d6dfcd203fc765bab2,0.0816,0.0818,0,108,108,56,1,onetwo,,,,,,,,,,,,,,,,,,,,,,,,,,,,,,,,,,,,,,,,,,,,,,,,,,,,,,,,,,,,,,,,,,,,,,,,,,,,,,,,,,,,,,,,,,,,,,,,,,,,,,,,,,,,,,,,,,,,,,,,,,,,,,,,,,,,,,,,,
,,5b8c8e7d0c740e00019d55c3,2024-02-21_23h08.37.894,kallum_motion_pilot,2023.2.2,Win32,60.24096386,5b8c8e7d0c740e00019d55c3,65d6bb0e977760de756971f7,65d6d4d6dfcd203fc765bab2,0.082,0.0822,0,109,109,45,1,threefour,,,,,,,,,,,,,,,,,,,,,,,,,,,,,,,,,,,,,,,,,,,,,,,,,,,,,,,,,,,,,,,,,,,,,,,,,,,,,,,,,,,,,,,,,,,,,,,,,,,,,,,,,,,,,,,,,,,,,,,,,,,,,,,,,,,,,,,,,
,,5b8c8e7d0c740e00019d55c3,2024-02-21_23h08.37.894,kallum_motion_pilot,2023.2.2,Win32,60.24096386,5b8c8e7d0c740e00019d55c3,65d6bb0e977760de756971f7,65d6d4d6dfcd203fc765bab2,0.0825,0.0827,0,110,110,119,1,eightseven,,,,,,,,,,,,,,,,,,,,,,,,,,,,,,,,,,,,,,,,,,,,,,,,,,,,,,,,,,,,,,,,,,,,,,,,,,,,,,,,,,,,,,,,,,,,,,,,,,,,,,,,,,,,,,,,,,,,,,,,,,,,,,,,,,,,,,,,,
,,5b8c8e7d0c740e00019d55c3,2024-02-21_23h08.37.894,kallum_motion_pilot,2023.2.2,Win32,60.24096386,5b8c8e7d0c740e00019d55c3,65d6bb0e977760de756971f7,65d6d4d6dfcd203fc765bab2,0.083,0.0832,0,111,111,51,1,twofour,,,,,,,,,,,,,,,,,,,,,,,,,,,,,,,,,,,,,,,,,,,,,,,,,,,,,,,,,,,,,,,,,,,,,,,,,,,,,,,,,,,,,,,,,,,,,,,,,,,,,,,,,,,,,,,,,,,,,,,,,,,,,,,,,,,,,,,,,
,,5b8c8e7d0c740e00019d55c3,2024-02-21_23h08.37.894,kallum_motion_pilot,2023.2.2,Win32,60.24096386,5b8c8e7d0c740e00019d55c3,65d6bb0e977760de756971f7,65d6d4d6dfcd203fc765bab2,0.0835,0.0836,0,112,112,33,1,onethree,,,,,,,,,,,,,,,,,,,,,,,,,,,,,,,,,,,,,,,,,,,,,,,,,,,,,,,,,,,,,,,,,,,,,,,,,,,,,,,,,,,,,,,,,,,,,,,,,,,,,,,,,,,,,,,,,,,,,,,,,,,,,,,,,,,,,,,,,
,,5b8c8e7d0c740e00019d55c3,2024-02-21_23h08.37.894,kallum_motion_pilot,2023.2.2,Win32,60.24096386,5b8c8e7d0c740e00019d55c3,65d6bb0e977760de756971f7,65d6d4d6dfcd203fc765bab2,0.0839,0.0841,0,113,113,97,1,fiveseven,,,,,,,,,,,,,,,,,,,,,,,,,,,,,,,,,,,,,,,,,,,,,,,,,,,,,,,,,,,,,,,,,,,,,,,,,,,,,,,,,,,,,,,,,,,,,,,,,,,,,,,,,,,,,,,,,,,,,,,,,,,,,,,,,,,,,,,,,
,,5b8c8e7d0c740e00019d55c3,2024-02-21_23h08.37.894,kallum_motion_pilot,2023.2.2,Win32,60.24096386,5b8c8e7d0c740e00019d55c3,65d6bb0e977760de756971f7,65d6d4d6dfcd203fc765bab2,0.0843,0.0846,0,114,114,69,1,threefour,,,,,,,,,,,,,,,,,,,,,,,,,,,,,,,,,,,,,,,,,,,,,,,,,,,,,,,,,,,,,,,,,,,,,,,,,,,,,,,,,,,,,,,,,,,,,,,,,,,,,,,,,,,,,,,,,,,,,,,,,,,,,,,,,,,,,,,,,
,,5b8c8e7d0c740e00019d55c3,2024-02-21_23h08.37.894,kallum_motion_pilot,2023.2.2,Win32,60.24096386,5b8c8e7d0c740e00019d55c3,65d6bb0e977760de756971f7,65d6d4d6dfcd203fc765bab2,0.0849,0.085,0,115,115,34,1,twoone,,,,,,,,,,,,,,,,,,,,,,,,,,,,,,,,,,,,,,,,,,,,,,,,,,,,,,,,,,,,,,,,,,,,,,,,,,,,,,,,,,,,,,,,,,,,,,,,,,,,,,,,,,,,,,,,,,,,,,,,,,,,,,,,,,,,,,,,,
,,5b8c8e7d0c740e00019d55c3,2024-02-21_23h08.37.894,kallum_motion_pilot,2023.2.2,Win32,60.24096386,5b8c8e7d0c740e00019d55c3,65d6bb0e977760de756971f7,65d6d4d6dfcd203fc765bab2,0.0852,0.0854,0,116,116,62,1,fourtwo,,,,,,,,,,,,,,,,,,,,,,,,,,,,,,,,,,,,,,,,,,,,,,,,,,,,,,,,,,,,,,,,,,,,,,,,,,,,,,,,,,,,,,,,,,,,,,,,,,,,,,,,,,,,,,,,,,,,,,,,,,,,,,,,,,,,,,,,,
,,5b8c8e7d0c740e00019d55c3,2024-02-21_23h08.37.894,kallum_motion_pilot,2023.2.2,Win32,60.24096386,5b8c8e7d0c740e00019d55c3,65d6bb0e977760de756971f7,65d6d4d6dfcd203fc765bab2,0.0857,0.0858,0,117,117,140,1,sevenfive,,,,,,,,,,,,,,,,,,,,,,,,,,,,,,,,,,,,,,,,,,,,,,,,,,,,,,,,,,,,,,,,,,,,,,,,,,,,,,,,,,,,,,,,,,,,,,,,,,,,,,,,,,,,,,,,,,,,,,,,,,,,,,,,,,,,,,,,,
,,5b8c8e7d0c740e00019d55c3,2024-02-21_23h08.37.894,kallum_motion_pilot,2023.2.2,Win32,60.24096386,5b8c8e7d0c740e00019d55c3,65d6bb0e977760de756971f7,65d6d4d6dfcd203fc765bab2,0.086,0.0863,0,118,118,124,1,sevenfive,,,,,,,,,,,,,,,,,,,,,,,,,,,,,,,,,,,,,,,,,,,,,,,,,,,,,,,,,,,,,,,,,,,,,,,,,,,,,,,,,,,,,,,,,,,,,,,,,,,,,,,,,,,,,,,,,,,,,,,,,,,,,,,,,,,,,,,,,
,,5b8c8e7d0c740e00019d55c3,2024-02-21_23h08.37.894,kallum_motion_pilot,2023.2.2,Win32,60.24096386,5b8c8e7d0c740e00019d55c3,65d6bb0e977760de756971f7,65d6d4d6dfcd203fc765bab2,0.0866,0.0868,0,119,119,5,1,threefour,,,,,,,,,,,,,,,,,,,,,,,,,,,,,,,,,,,,,,,,,,,,,,,,,,,,,,,,,,,,,,,,,,,,,,,,,,,,,,,,,,,,,,,,,,,,,,,,,,,,,,,,,,,,,,,,,,,,,,,,,,,,,,,,,,,,,,,,,
,,5b8c8e7d0c740e00019d55c3,2024-02-21_23h08.37.894,kallum_motion_pilot,2023.2.2,Win32,60.24096386,5b8c8e7d0c740e00019d55c3,65d6bb0e977760de756971f7,65d6d4d6dfcd203fc765bab2,0.087,0.0872,0,120,120,95,1,eightseven,,,,,,,,,,,,,,,,,,,,,,,,,,,,,,,,,,,,,,,,,,,,,,,,,,,,,,,,,,,,,,,,,,,,,,,,,,,,,,,,,,,,,,,,,,,,,,,,,,,,,,,,,,,,,,,,,,,,,,,,,,,,,,,,,,,,,,,,,
,,5b8c8e7d0c740e00019d55c3,2024-02-21_23h08.37.894,kallum_motion_pilot,2023.2.2,Win32,60.24096386,5b8c8e7d0c740e00019d55c3,65d6bb0e977760de756971f7,65d6d4d6dfcd203fc765bab2,0.0875,0.0876,0,121,121,46,1,fourtwo,,,,,,,,,,,,,,,,,,,,,,,,,,,,,,,,,,,,,,,,,,,,,,,,,,,,,,,,,,,,,,,,,,,,,,,,,,,,,,,,,,,,,,,,,,,,,,,,,,,,,,,,,,,,,,,,,,,,,,,,,,,,,,,,,,,,,,,,,
,,5b8c8e7d0c740e00019d55c3,2024-02-21_23h08.37.894,kallum_motion_pilot,2023.2.2,Win32,60.24096386,5b8c8e7d0c740e00019d55c3,65d6bb0e977760de756971f7,65d6d4d6dfcd203fc765bab2,0.088,0.0882,0,122,122,107,1,sixeight,,,,,,,,,,,,,,,,,,,,,,,,,,,,,,,,,,,,,,,,,,,,,,,,,,,,,,,,,,,,,,,,,,,,,,,,,,,,,,,,,,,,,,,,,,,,,,,,,,,,,,,,,,,,,,,,,,,,,,,,,,,,,,,,,,,,,,,,,
,,5b8c8e7d0c740e00019d55c3,2024-02-21_23h08.37.894,kallum_motion_pilot,2023.2.2,Win32,60.24096386,5b8c8e7d0c740e00019d55c3,65d6bb0e977760de756971f7,65d6d4d6dfcd203fc765bab2,0.0887,0.0889,0,123,123,68,1,threeone,,,,,,,,,,,,,,,,,,,,,,,,,,,,,,,,,,,,,,,,,,,,,,,,,,,,,,,,,,,,,,,,,,,,,,,,,,,,,,,,,,,,,,,,,,,,,,,,,,,,,,,,,,,,,,,,,,,,,,,,,,,,,,,,,,,,,,,,,
,,5b8c8e7d0c740e00019d55c3,2024-02-21_23h08.37.894,kallum_motion_pilot,2023.2.2,Win32,60.24096386,5b8c8e7d0c740e00019d55c3,65d6bb0e977760de756971f7,65d6d4d6dfcd203fc765bab2,0.0894,0.0897,0,124,124,20,1,threeone,,,,,,,,,,,,,,,,,,,,,,,,,,,,,,,,,,,,,,,,,,,,,,,,,,,,,,,,,,,,,,,,,,,,,,,,,,,,,,,,,,,,,,,,,,,,,,,,,,,,,,,,,,,,,,,,,,,,,,,,,,,,,,,,,,,,,,,,,
,,5b8c8e7d0c740e00019d55c3,2024-02-21_23h08.37.894,kallum_motion_pilot,2023.2.2,Win32,60.24096386,5b8c8e7d0c740e00019d55c3,65d6bb0e977760de756971f7,65d6d4d6dfcd203fc765bab2,0.0903,0.0905,0,125,125,98,1,sixfive,,,,,,,,,,,,,,,,,,,,,,,,,,,,,,,,,,,,,,,,,,,,,,,,,,,,,,,,,,,,,,,,,,,,,,,,,,,,,,,,,,,,,,,,,,,,,,,,,,,,,,,,,,,,,,,,,,,,,,,,,,,,,,,,,,,,,,,,,
,,5b8c8e7d0c740e00019d55c3,2024-02-21_23h08.37.894,kallum_motion_pilot,2023.2.2,Win32,60.24096386,5b8c8e7d0c740e00019d55c3,65d6bb0e977760de756971f7,65d6d4d6dfcd203fc765bab2,0.0908,0.0911,0,126,126,151,1,eightseven,,,,,,,,,,,,,,,,,,,,,,,,,,,,,,,,,,,,,,,,,,,,,,,,,,,,,,,,,,,,,,,,,,,,,,,,,,,,,,,,,,,,,,,,,,,,,,,,,,,,,,,,,,,,,,,,,,,,,,,,,,,,,,,,,,,,,,,,,
,,5b8c8e7d0c740e00019d55c3,2024-02-21_23h08.37.894,kallum_motion_pilot,2023.2.2,Win32,60.24096386,5b8c8e7d0c740e00019d55c3,65d6bb0e977760de756971f7,65d6d4d6dfcd203fc765bab2,0.0914,0.0916,0,127,127,92,1,sevenfive,,,,,,,,,,,,,,,,,,,,,,,,,,,,,,,,,,,,,,,,,,,,,,,,,,,,,,,,,,,,,,,,,,,,,,,,,,,,,,,,,,,,,,,,,,,,,,,,,,,,,,,,,,,,,,,,,,,,,,,,,,,,,,,,,,,,,,,,,
,,5b8c8e7d0c740e00019d55c3,2024-02-21_23h08.37.894,kallum_motion_pilot,2023.2.2,Win32,60.24096386,5b8c8e7d0c740e00019d55c3,65d6bb0e977760de756971f7,65d6d4d6dfcd203fc765bab2,0.0919,0.0921,0,128,128,41,1,onethree,,,,,,,,,,,,,,,,,,,,,,,,,,,,,,,,,,,,,,,,,,,,,,,,,,,,,,,,,,,,,,,,,,,,,,,,,,,,,,,,,,,,,,,,,,,,,,,,,,,,,,,,,,,,,,,,,,,,,,,,,,,,,,,,,,,,,,,,,
,,5b8c8e7d0c740e00019d55c3,2024-02-21_23h08.37.894,kallum_motion_pilot,2023.2.2,Win32,60.24096386,5b8c8e7d0c740e00019d55c3,65d6bb0e977760de756971f7,65d6d4d6dfcd203fc765bab2,0.0924,0.0929,0,129,129,135,1,eightseven,,,,,,,,,,,,,,,,,,,,,,,,,,,,,,,,,,,,,,,,,,,,,,,,,,,,,,,,,,,,,,,,,,,,,,,,,,,,,,,,,,,,,,,,,,,,,,,,,,,,,,,,,,,,,,,,,,,,,,,,,,,,,,,,,,,,,,,,,
,,5b8c8e7d0c740e00019d55c3,2024-02-21_23h08.37.894,kallum_motion_pilot,2023.2.2,Win32,60.24096386,5b8c8e7d0c740e00019d55c3,65d6bb0e977760de756971f7,65d6d4d6dfcd203fc765bab2,0.0933,0.0935,0,130,130,100,1,sevenfive,,,,,,,,,,,,,,,,,,,,,,,,,,,,,,,,,,,,,,,,,,,,,,,,,,,,,,,,,,,,,,,,,,,,,,,,,,,,,,,,,,,,,,,,,,,,,,,,,,,,,,,,,,,,,,,,,,,,,,,,,,,,,,,,,,,,,,,,,
,,5b8c8e7d0c740e00019d55c3,2024-02-21_23h08.37.894,kallum_motion_pilot,2023.2.2,Win32,60.24096386,5b8c8e7d0c740e00019d55c3,65d6bb0e977760de756971f7,65d6d4d6dfcd203fc765bab2,0.0938,0.0939,0,131,131,43,1,twofour,,,,,,,,,,,,,,,,,,,,,,,,,,,,,,,,,,,,,,,,,,,,,,,,,,,,,,,,,,,,,,,,,,,,,,,,,,,,,,,,,,,,,,,,,,,,,,,,,,,,,,,,,,,,,,,,,,,,,,,,,,,,,,,,,,,,,,,,,
,,5b8c8e7d0c740e00019d55c3,2024-02-21_23h08.37.894,kallum_motion_pilot,2023.2.2,Win32,60.24096386,5b8c8e7d0c740e00019d55c3,65d6bb0e977760de756971f7,65d6d4d6dfcd203fc765bab2,0.0942,0.0944,0,132,132,111,1,eightseven,,,,,,,,,,,,,,,,,,,,,,,,,,,,,,,,,,,,,,,,,,,,,,,,,,,,,,,,,,,,,,,,,,,,,,,,,,,,,,,,,,,,,,,,,,,,,,,,,,,,,,,,,,,,,,,,,,,,,,,,,,,,,,,,,,,,,,,,,
,,5b8c8e7d0c740e00019d55c3,2024-02-21_23h08.37.894,kallum_motion_pilot,2023.2.2,Win32,60.24096386,5b8c8e7d0c740e00019d55c3,65d6bb0e977760de756971f7,65d6d4d6dfcd203fc765bab2,0.095,0.0954,0,133,133,110,1,eightsix,,,,,,,,,,,,,,,,,,,,,,,,,,,,,,,,,,,,,,,,,,,,,,,,,,,,,,,,,,,,,,,,,,,,,,,,,,,,,,,,,,,,,,,,,,,,,,,,,,,,,,,,,,,,,,,,,,,,,,,,,,,,,,,,,,,,,,,,,
,,5b8c8e7d0c740e00019d55c3,2024-02-21_23h08.37.894,kallum_motion_pilot,2023.2.2,Win32,60.24096386,5b8c8e7d0c740e00019d55c3,65d6bb0e977760de756971f7,65d6d4d6dfcd203fc765bab2,0.0957,0.0969,0,134,134,22,1,fourtwo,,,,,,,,,,,,,,,,,,,,,,,,,,,,,,,,,,,,,,,,,,,,,,,,,,,,,,,,,,,,,,,,,,,,,,,,,,,,,,,,,,,,,,,,,,,,,,,,,,,,,,,,,,,,,,,,,,,,,,,,,,,,,,,,,,,,,,,,,
,,5b8c8e7d0c740e00019d55c3,2024-02-21_23h08.37.894,kallum_motion_pilot,2023.2.2,Win32,60.24096386,5b8c8e7d0c740e00019d55c3,65d6bb0e977760de756971f7,65d6d4d6dfcd203fc765bab2,0.0972,0.0975,0,135,135,81,1,fiveseven,,,,,,,,,,,,,,,,,,,,,,,,,,,,,,,,,,,,,,,,,,,,,,,,,,,,,,,,,,,,,,,,,,,,,,,,,,,,,,,,,,,,,,,,,,,,,,,,,,,,,,,,,,,,,,,,,,,,,,,,,,,,,,,,,,,,,,,,,
,,5b8c8e7d0c740e00019d55c3,2024-02-21_23h08.37.894,kallum_motion_pilot,2023.2.2,Win32,60.24096386,5b8c8e7d0c740e00019d55c3,65d6bb0e977760de756971f7,65d6d4d6dfcd203fc765bab2,0.098,0.0982,0,136,136,122,1,sixfive,,,,,,,,,,,,,,,,,,,,,,,,,,,,,,,,,,,,,,,,,,,,,,,,,,,,,,,,,,,,,,,,,,,,,,,,,,,,,,,,,,,,,,,,,,,,,,,,,,,,,,,,,,,,,,,,,,,,,,,,,,,,,,,,,,,,,,,,,
,,5b8c8e7d0c740e00019d55c3,2024-02-21_23h08.37.894,kallum_motion_pilot,2023.2.2,Win32,60.24096386,5b8c8e7d0c740e00019d55c3,65d6bb0e977760de756971f7,65d6d4d6dfcd203fc765bab2,0.0985,0.0987,0,137,137,9,1,onethree,,,,,,,,,,,,,,,,,,,,,,,,,,,,,,,,,,,,,,,,,,,,,,,,,,,,,,,,,,,,,,,,,,,,,,,,,,,,,,,,,,,,,,,,,,,,,,,,,,,,,,,,,,,,,,,,,,,,,,,,,,,,,,,,,,,,,,,,,
,,5b8c8e7d0c740e00019d55c3,2024-02-21_23h08.37.894,kallum_motion_pilot,2023.2.2,Win32,60.24096386,5b8c8e7d0c740e00019d55c3,65d6bb0e977760de756971f7,65d6d4d6dfcd203fc765bab2,0.0991,0.0992,0,138,138,0,1,onetwo,,,,,,,,,,,,,,,,,,,,,,,,,,,,,,,,,,,,,,,,,,,,,,,,,,,,,,,,,,,,,,,,,,,,,,,,,,,,,,,,,,,,,,,,,,,,,,,,,,,,,,,,,,,,,,,,,,,,,,,,,,,,,,,,,,,,,,,,,
,,5b8c8e7d0c740e00019d55c3,2024-02-21_23h08.37.894,kallum_motion_pilot,2023.2.2,Win32,60.24096386,5b8c8e7d0c740e00019d55c3,65d6bb0e977760de756971f7,65d6d4d6dfcd203fc765bab2,0.0994,0.0997,0,139,139,37,1,threefour,,,,,,,,,,,,,,,,,,,,,,,,,,,,,,,,,,,,,,,,,,,,,,,,,,,,,,,,,,,,,,,,,,,,,,,,,,,,,,,,,,,,,,,,,,,,,,,,,,,,,,,,,,,,,,,,,,,,,,,,,,,,,,,,,,,,,,,,,
,,5b8c8e7d0c740e00019d55c3,2024-02-21_23h08.37.894,kallum_motion_pilot,2023.2.2,Win32,60.24096386,5b8c8e7d0c740e00019d55c3,65d6bb0e977760de756971f7,65d6d4d6dfcd203fc765bab2,0.1005,0.1009,0,140,140,58,1,twoone,,,,,,,,,,,,,,,,,,,,,,,,,,,,,,,,,,,,,,,,,,,,,,,,,,,,,,,,,,,,,,,,,,,,,,,,,,,,,,,,,,,,,,,,,,,,,,,,,,,,,,,,,,,,,,,,,,,,,,,,,,,,,,,,,,,,,,,,,
,,5b8c8e7d0c740e00019d55c3,2024-02-21_23h08.37.894,kallum_motion_pilot,2023.2.2,Win32,60.24096386,5b8c8e7d0c740e00019d55c3,65d6bb0e977760de756971f7,65d6d4d6dfcd203fc765bab2,0.1011,0.1013,0,141,141,36,1,threeone,,,,,,,,,,,,,,,,,,,,,,,,,,,,,,,,,,,,,,,,,,,,,,,,,,,,,,,,,,,,,,,,,,,,,,,,,,,,,,,,,,,,,,,,,,,,,,,,,,,,,,,,,,,,,,,,,,,,,,,,,,,,,,,,,,,,,,,,,
,,5b8c8e7d0c740e00019d55c3,2024-02-21_23h08.37.894,kallum_motion_pilot,2023.2.2,Win32,60.24096386,5b8c8e7d0c740e00019d55c3,65d6bb0e977760de756971f7,65d6d4d6dfcd203fc765bab2,0.1015,0.1017,0,142,142,85,1,seveneight,,,,,,,,,,,,,,,,,,,,,,,,,,,,,,,,,,,,,,,,,,,,,,,,,,,,,,,,,,,,,,,,,,,,,,,,,,,,,,,,,,,,,,,,,,,,,,,,,,,,,,,,,,,,,,,,,,,,,,,,,,,,,,,,,,,,,,,,,
,,5b8c8e7d0c740e00019d55c3,2024-02-21_23h08.37.894,kallum_motion_pilot,2023.2.2,Win32,60.24096386,5b8c8e7d0c740e00019d55c3,65d6bb0e977760de756971f7,65d6d4d6dfcd203fc765bab2,0.102,0.1021,0,143,143,64,1,onetwo,,,,,,,,,,,,,,,,,,,,,,,,,,,,,,,,,,,,,,,,,,,,,,,,,,,,,,,,,,,,,,,,,,,,,,,,,,,,,,,,,,,,,,,,,,,,,,,,,,,,,,,,,,,,,,,,,,,,,,,,,,,,,,,,,,,,,,,,,
,,5b8c8e7d0c740e00019d55c3,2024-02-21_23h08.37.894,kallum_motion_pilot,2023.2.2,Win32,60.24096386,5b8c8e7d0c740e00019d55c3,65d6bb0e977760de756971f7,65d6d4d6dfcd203fc765bab2,0.1023,0.1026,0,144,144,24,1,onetwo,,,,,,,,,,,,,,,,,,,,,,,,,,,,,,,,,,,,,,,,,,,,,,,,,,,,,,,,,,,,,,,,,,,,,,,,,,,,,,,,,,,,,,,,,,,,,,,,,,,,,,,,,,,,,,,,,,,,,,,,,,,,,,,,,,,,,,,,,
,,5b8c8e7d0c740e00019d55c3,2024-02-21_23h08.37.894,kallum_motion_pilot,2023.2.2,Win32,60.24096386,5b8c8e7d0c740e00019d55c3,65d6bb0e977760de756971f7,65d6d4d6dfcd203fc765bab2,0.1029,0.1031,0,145,145,21,1,threefour,,,,,,,,,,,,,,,,,,,,,,,,,,,,,,,,,,,,,,,,,,,,,,,,,,,,,,,,,,,,,,,,,,,,,,,,,,,,,,,,,,,,,,,,,,,,,,,,,,,,,,,,,,,,,,,,,,,,,,,,,,,,,,,,,,,,,,,,,
,,5b8c8e7d0c740e00019d55c3,2024-02-21_23h08.37.894,kallum_motion_pilot,2023.2.2,Win32,60.24096386,5b8c8e7d0c740e00019d55c3,65d6bb0e977760de756971f7,65d6d4d6dfcd203fc765bab2,0.1033,0.1037,0,146,146,153,1,fiveseven,,,,,,,,,,,,,,,,,,,,,,,,,,,,,,,,,,,,,,,,,,,,,,,,,,,,,,,,,,,,,,,,,,,,,,,,,,,,,,,,,,,,,,,,,,,,,,,,,,,,,,,,,,,,,,,,,,,,,,,,,,,,,,,,,,,,,,,,,
,,5b8c8e7d0c740e00019d55c3,2024-02-21_23h08.37.894,kallum_motion_pilot,2023.2.2,Win32,60.24096386,5b8c8e7d0c740e00019d55c3,65d6bb0e977760de756971f7,65d6d4d6dfcd203fc765bab2,0.1049,0.1054,0,147,147,149,1,seveneight,,,,,,,,,,,,,,,,,,,,,,,,,,,,,,,,,,,,,,,,,,,,,,,,,,,,,,,,,,,,,,,,,,,,,,,,,,,,,,,,,,,,,,,,,,,,,,,,,,,,,,,,,,,,,,,,,,,,,,,,,,,,,,,,,,,,,,,,,
,,5b8c8e7d0c740e00019d55c3,2024-02-21_23h08.37.894,kallum_motion_pilot,2023.2.2,Win32,60.24096386,5b8c8e7d0c740e00019d55c3,65d6bb0e977760de756971f7,65d6d4d6dfcd203fc765bab2,0.1058,0.106,0,148,148,133,1,seveneight,,,,,,,,,,,,,,,,,,,,,,,,,,,,,,,,,,,,,,,,,,,,,,,,,,,,,,,,,,,,,,,,,,,,,,,,,,,,,,,,,,,,,,,,,,,,,,,,,,,,,,,,,,,,,,,,,,,,,,,,,,,,,,,,,,,,,,,,,
,,5b8c8e7d0c740e00019d55c3,2024-02-21_23h08.37.894,kallum_motion_pilot,2023.2.2,Win32,60.24096386,5b8c8e7d0c740e00019d55c3,65d6bb0e977760de756971f7,65d6d4d6dfcd203fc765bab2,0.1064,0.1065,0,149,149,104,1,fivesix,,,,,,,,,,,,,,,,,,,,,,,,,,,,,,,,,,,,,,,,,,,,,,,,,,,,,,,,,,,,,,,,,,,,,,,,,,,,,,,,,,,,,,,,,,,,,,,,,,,,,,,,,,,,,,,,,,,,,,,,,,,,,,,,,,,,,,,,,
,,5b8c8e7d0c740e00019d55c3,2024-02-21_23h08.37.894,kallum_motion_pilot,2023.2.2,Win32,60.24096386,5b8c8e7d0c740e00019d55c3,65d6bb0e977760de756971f7,65d6d4d6dfcd203fc765bab2,0.107,0.1072,0,150,150,113,1,fiveseven,,,,,,,,,,,,,,,,,,,,,,,,,,,,,,,,,,,,,,,,,,,,,,,,,,,,,,,,,,,,,,,,,,,,,,,,,,,,,,,,,,,,,,,,,,,,,,,,,,,,,,,,,,,,,,,,,,,,,,,,,,,,,,,,,,,,,,,,,
,,5b8c8e7d0c740e00019d55c3,2024-02-21_23h08.37.894,kallum_motion_pilot,2023.2.2,Win32,60.24096386,5b8c8e7d0c740e00019d55c3,65d6bb0e977760de756971f7,65d6d4d6dfcd203fc765bab2,0.1075,0.1076,0,151,151,86,1,eightsix,,,,,,,,,,,,,,,,,,,,,,,,,,,,,,,,,,,,,,,,,,,,,,,,,,,,,,,,,,,,,,,,,,,,,,,,,,,,,,,,,,,,,,,,,,,,,,,,,,,,,,,,,,,,,,,,,,,,,,,,,,,,,,,,,,,,,,,,,
,,5b8c8e7d0c740e00019d55c3,2024-02-21_23h08.37.894,kallum_motion_pilot,2023.2.2,Win32,60.24096386,5b8c8e7d0c740e00019d55c3,65d6bb0e977760de756971f7,65d6d4d6dfcd203fc765bab2,0.1079,0.1081,0,152,152,123,1,sixeight,,,,,,,,,,,,,,,,,,,,,,,,,,,,,,,,,,,,,,,,,,,,,,,,,,,,,,,,,,,,,,,,,,,,,,,,,,,,,,,,,,,,,,,,,,,,,,,,,,,,,,,,,,,,,,,,,,,,,,,,,,,,,,,,,,,,,,,,,
,,5b8c8e7d0c740e00019d55c3,2024-02-21_23h08.37.894,kallum_motion_pilot,2023.2.2,Win32,60.24096386,5b8c8e7d0c740e00019d55c3,65d6bb0e977760de756971f7,65d6d4d6dfcd203fc765bab2,0.1085,0.1086,0,153,153,146,1,sixfive,,,,,,,,,,,,,,,,,,,,,,,,,,,,,,,,,,,,,,,,,,,,,,,,,,,,,,,,,,,,,,,,,,,,,,,,,,,,,,,,,,,,,,,,,,,,,,,,,,,,,,,,,,,,,,,,,,,,,,,,,,,,,,,,,,,,,,,,,
,,5b8c8e7d0c740e00019d55c3,2024-02-21_23h08.37.894,kallum_motion_pilot,2023.2.2,Win32,60.24096386,5b8c8e7d0c740e00019d55c3,65d6bb0e977760de756971f7,65d6d4d6dfcd203fc765bab2,0.1091,0.1092,0,154,154,139,1,sixeight,,,,,,,,,,,,,,,,,,,,,,,,,,,,,,,,,,,,,,,,,,,,,,,,,,,,,,,,,,,,,,,,,,,,,,,,,,,,,,,,,,,,,,,,,,,,,,,,,,,,,,,,,,,,,,,,,,,,,,,,,,,,,,,,,,,,,,,,,
,,5b8c8e7d0c740e00019d55c3,2024-02-21_23h08.37.894,kallum_motion_pilot,2023.2.2,Win32,60.24096386,5b8c8e7d0c740e00019d55c3,65d6bb0e977760de756971f7,65d6d4d6dfcd203fc765bab2,0.1095,0.1101,0,155,155,91,1,sixeight,,,,,,,,,,,,,,,,,,,,,,,,,,,,,,,,,,,,,,,,,,,,,,,,,,,,,,,,,,,,,,,,,,,,,,,,,,,,,,,,,,,,,,,,,,,,,,,,,,,,,,,,,,,,,,,,,,,,,,,,,,,,,,,,,,,,,,,,,
,,5b8c8e7d0c740e00019d55c3,2024-02-21_23h08.37.894,kallum_motion_pilot,2023.2.2,Win32,60.24096386,5b8c8e7d0c740e00019d55c3,65d6bb0e977760de756971f7,65d6d4d6dfcd203fc765bab2,0.1115,0.1121,0,156,156,28,1,threeone,,,,,,,,,,,,,,,,,,,,,,,,,,,,,,,,,,,,,,,,,,,,,,,,,,,,,,,,,,,,,,,,,,,,,,,,,,,,,,,,,,,,,,,,,,,,,,,,,,,,,,,,,,,,,,,,,,,,,,,,,,,,,,,,,,,,,,,,,
,,5b8c8e7d0c740e00019d55c3,2024-02-21_23h08.37.894,kallum_motion_pilot,2023.2.2,Win32,60.24096386,5b8c8e7d0c740e00019d55c3,65d6bb0e977760de756971f7,65d6d4d6dfcd203fc765bab2,0.1137,0.114,0,157,157,23,1,fourthree,,,,,,,,,,,,,,,,,,,,,,,,,,,,,,,,,,,,,,,,,,,,,,,,,,,,,,,,,,,,,,,,,,,,,,,,,,,,,,,,,,,,,,,,,,,,,,,,,,,,,,,,,,,,,,,,,,,,,,,,,,,,,,,,,,,,,,,,,
,,5b8c8e7d0c740e00019d55c3,2024-02-21_23h08.37.894,kallum_motion_pilot,2023.2.2,Win32,60.24096386,5b8c8e7d0c740e00019d55c3,65d6bb0e977760de756971f7,65d6d4d6dfcd203fc765bab2,0.1142,0.1145,0,158,158,11,1,twofour,,,,,,,,,,,,,,,,,,,,,,,,,,,,,,,,,,,,,,,,,,,,,,,,,,,,,,,,,,,,,,,,,,,,,,,,,,,,,,,,,,,,,,,,,,,,,,,,,,,,,,,,,,,,,,,,,,,,,,,,,,,,,,,,,,,,,,,,,
,,5b8c8e7d0c740e00019d55c3,2024-02-21_23h08.37.894,kallum_motion_pilot,2023.2.2,Win32,60.24096386,5b8c8e7d0c740e00019d55c3,65d6bb0e977760de756971f7,65d6d4d6dfcd203fc765bab2,0.1148,0.115,0,159,159,117,1,seveneight,,,,,,,,,,,,,,,,,,,,,,,,,,,,,,,,,,,,,,,,,,,,,,,,,,,,,,,,,,,,,,,,,,,,,,,,,,,,,,,,,,,,,,,,,,,,,,,,,,,,,,,,,,,,,,,,,,,,,,,,,,,,,,,,,,,,,,,,,
,,5b8c8e7d0c740e00019d55c3,2024-02-21_23h08.37.894,kallum_motion_pilot,2023.2.2,Win32,60.24096386,5b8c8e7d0c740e00019d55c3,65d6bb0e977760de756971f7,65d6d4d6dfcd203fc765bab2,0.1153,0.1156,0,160,160,66,1,twoone,,,,,,,,,,,,,,,,,,,,,,,,,,,,,,,,,,,,,,,,,,,,,,,,,,,,,,,,,,,,,,,,,,,,,,,,,,,,,,,,,,,,,,,,,,,,,,,,,,,,,,,,,,,,,,,,,,,,,,,,,,,,,,,,,,,,,,,,,
,,5b8c8e7d0c740e00019d55c3,2024-02-21_23h08.37.894,kallum_motion_pilot,2023.2.2,Win32,60.24096386,5b8c8e7d0c740e00019d55c3,65d6bb0e977760de756971f7,65d6d4d6dfcd203fc765bab2,0.1158,0.116,0,161,161,108,1,sevenfive,,,,,,,,,,,,,,,,,,,,,,,,,,,,,,,,,,,,,,,,,,,,,,,,,,,,,,,,,,,,,,,,,,,,,,,,,,,,,,,,,,,,,,,,,,,,,,,,,,,,,,,,,,,,,,,,,,,,,,,,,,,,,,,,,,,,,,,,,
,,5b8c8e7d0c740e00019d55c3,2024-02-21_23h08.37.894,kallum_motion_pilot,2023.2.2,Win32,60.24096386,5b8c8e7d0c740e00019d55c3,65d6bb0e977760de756971f7,65d6d4d6dfcd203fc765bab2,0.1162,0.1167,1,0,162,32,1,onetwo,,,,,,,,,,,,,,,,,,,,,,,,,,,,,,,,,,,,,,,,,,,,,,,,,,,,,,,,,,,,,,,,,,,,,,,,,,,,,,,,,,,,,,,,,,,,,,,,,,,,,,,,,,,,,,,,,,,,,,,,,,,,,,,,,,,,,,,,,
,,5b8c8e7d0c740e00019d55c3,2024-02-21_23h08.37.894,kallum_motion_pilot,2023.2.2,Win32,60.24096386,5b8c8e7d0c740e00019d55c3,65d6bb0e977760de756971f7,65d6d4d6dfcd203fc765bab2,0.1172,0.1175,1,1,163,61,1,threefour,,,,,,,,,,,,,,,,,,,,,,,,,,,,,,,,,,,,,,,,,,,,,,,,,,,,,,,,,,,,,,,,,,,,,,,,,,,,,,,,,,,,,,,,,,,,,,,,,,,,,,,,,,,,,,,,,,,,,,,,,,,,,,,,,,,,,,,,,
,,5b8c8e7d0c740e00019d55c3,2024-02-21_23h08.37.894,kallum_motion_pilot,2023.2.2,Win32,60.24096386,5b8c8e7d0c740e00019d55c3,65d6bb0e977760de756971f7,65d6d4d6dfcd203fc765bab2,0.1177,0.118,1,2,164,136,1,fivesix,,,,,,,,,,,,,,,,,,,,,,,,,,,,,,,,,,,,,,,,,,,,,,,,,,,,,,,,,,,,,,,,,,,,,,,,,,,,,,,,,,,,,,,,,,,,,,,,,,,,,,,,,,,,,,,,,,,,,,,,,,,,,,,,,,,,,,,,,
,,5b8c8e7d0c740e00019d55c3,2024-02-21_23h08.37.894,kallum_motion_pilot,2023.2.2,Win32,60.24096386,5b8c8e7d0c740e00019d55c3,65d6bb0e977760de756971f7,65d6d4d6dfcd203fc765bab2,0.1184,0.1186,1,3,165,121,1,fiveseven,,,,,,,,,,,,,,,,,,,,,,,,,,,,,,,,,,,,,,,,,,,,,,,,,,,,,,,,,,,,,,,,,,,,,,,,,,,,,,,,,,,,,,,,,,,,,,,,,,,,,,,,,,,,,,,,,,,,,,,,,,,,,,,,,,,,,,,,,
,,5b8c8e7d0c740e00019d55c3,2024-02-21_23h08.37.894,kallum_motion_pilot,2023.2.2,Win32,60.24096386,5b8c8e7d0c740e00019d55c3,65d6bb0e977760de756971f7,65d6d4d6dfcd203fc765bab2,0.1189,0.119,1,4,166,73,1,onethree,,,,,,,,,,,,,,,,,,,,,,,,,,,,,,,,,,,,,,,,,,,,,,,,,,,,,,,,,,,,,,,,,,,,,,,,,,,,,,,,,,,,,,,,,,,,,,,,,,,,,,,,,,,,,,,,,,,,,,,,,,,,,,,,,,,,,,,,,
,,5b8c8e7d0c740e00019d55c3,2024-02-21_23h08.37.894,kallum_motion_pilot,2023.2.2,Win32,60.24096386,5b8c8e7d0c740e00019d55c3,65d6bb0e977760de756971f7,65d6d4d6dfcd203fc765bab2,0.1193,0.1198,1,5,167,72,1,onetwo,,,,,,,,,,,,,,,,,,,,,,,,,,,,,,,,,,,,,,,,,,,,,,,,,,,,,,,,,,,,,,,,,,,,,,,,,,,,,,,,,,,,,,,,,,,,,,,,,,,,,,,,,,,,,,,,,,,,,,,,,,,,,,,,,,,,,,,,,
,,5b8c8e7d0c740e00019d55c3,2024-02-21_23h08.37.894,kallum_motion_pilot,2023.2.2,Win32,60.24096386,5b8c8e7d0c740e00019d55c3,65d6bb0e977760de756971f7,65d6d4d6dfcd203fc765bab2,0.1211,0.1215,1,6,168,130,1,sixfive,,,,,,,,,,,,,,,,,,,,,,,,,,,,,,,,,,,,,,,,,,,,,,,,,,,,,,,,,,,,,,,,,,,,,,,,,,,,,,,,,,,,,,,,,,,,,,,,,,,,,,,,,,,,,,,,,,,,,,,,,,,,,,,,,,,,,,,,,
,,5b8c8e7d0c740e00019d55c3,2024-02-21_23h08.37.894,kallum_motion_pilot,2023.2.2,Win32,60.24096386,5b8c8e7d0c740e00019d55c3,65d6bb0e977760de756971f7,65d6d4d6dfcd203fc765bab2,0.1218,0.122,1,7,169,47,1,fourthree,,,,,,,,,,,,,,,,,,,,,,,,,,,,,,,,,,,,,,,,,,,,,,,,,,,,,,,,,,,,,,,,,,,,,,,,,,,,,,,,,,,,,,,,,,,,,,,,,,,,,,,,,,,,,,,,,,,,,,,,,,,,,,,,,,,,,,,,,
,,5b8c8e7d0c740e00019d55c3,2024-02-21_23h08.37.894,kallum_motion_pilot,2023.2.2,Win32,60.24096386,5b8c8e7d0c740e00019d55c3,65d6bb0e977760de756971f7,65d6d4d6dfcd203fc765bab2,0.1224,0.1226,1,8,170,16,1,onetwo,,,,,,,,,,,,,,,,,,,,,,,,,,,,,,,,,,,,,,,,,,,,,,,,,,,,,,,,,,,,,,,,,,,,,,,,,,,,,,,,,,,,,,,,,,,,,,,,,,,,,,,,,,,,,,,,,,,,,,,,,,,,,,,,,,,,,,,,,
,,5b8c8e7d0c740e00019d55c3,2024-02-21_23h08.37.894,kallum_motion_pilot,2023.2.2,Win32,60.24096386,5b8c8e7d0c740e00019d55c3,65d6bb0e977760de756971f7,65d6d4d6dfcd203fc765bab2,0.1229,0.1231,1,9,171,92,1,sevenfive,,,,,,,,,,,,,,,,,,,,,,,,,,,,,,,,,,,,,,,,,,,,,,,,,,,,,,,,,,,,,,,,,,,,,,,,,,,,,,,,,,,,,,,,,,,,,,,,,,,,,,,,,,,,,,,,,,,,,,,,,,,,,,,,,,,,,,,,,
,,5b8c8e7d0c740e00019d55c3,2024-02-21_23h08.37.894,kallum_motion_pilot,2023.2.2,Win32,60.24096386,5b8c8e7d0c740e00019d55c3,65d6bb0e977760de756971f7,65d6d4d6dfcd203fc765bab2,0.1235,0.1237,1,10,172,148,1,sevenfive,,,,,,,,,,,,,,,,,,,,,,,,,,,,,,,,,,,,,,,,,,,,,,,,,,,,,,,,,,,,,,,,,,,,,,,,,,,,,,,,,,,,,,,,,,,,,,,,,,,,,,,,,,,,,,,,,,,,,,,,,,,,,,,,,,,,,,,,,
,,5b8c8e7d0c740e00019d55c3,2024-02-21_23h08.37.894,kallum_motion_pilot,2023.2.2,Win32,60.24096386,5b8c8e7d0c740e00019d55c3,65d6bb0e977760de756971f7,65d6d4d6dfcd203fc765bab2,0.1241,0.1243,1,11,173,149,1,seveneight,,,,,,,,,,,,,,,,,,,,,,,,,,,,,,,,,,,,,,,,,,,,,,,,,,,,,,,,,,,,,,,,,,,,,,,,,,,,,,,,,,,,,,,,,,,,,,,,,,,,,,,,,,,,,,,,,,,,,,,,,,,,,,,,,,,,,,,,,
,,5b8c8e7d0c740e00019d55c3,2024-02-21_23h08.37.894,kallum_motion_pilot,2023.2.2,Win32,60.24096386,5b8c8e7d0c740e00019d55c3,65d6bb0e977760de756971f7,65d6d4d6dfcd203fc765bab2,0.1246,0.1249,1,12,174,20,1,threeone,,,,,,,,,,,,,,,,,,,,,,,,,,,,,,,,,,,,,,,,,,,,,,,,,,,,,,,,,,,,,,,,,,,,,,,,,,,,,,,,,,,,,,,,,,,,,,,,,,,,,,,,,,,,,,,,,,,,,,,,,,,,,,,,,,,,,,,,,
,,5b8c8e7d0c740e00019d55c3,2024-02-21_23h08.37.894,kallum_motion_pilot,2023.2.2,Win32,60.24096386,5b8c8e7d0c740e00019d55c3,65d6bb0e977760de756971f7,65d6d4d6dfcd203fc765bab2,0.1252,0.1254,1,13,175,104,1,fivesix,,,,,,,,,,,,,,,,,,,,,,,,,,,,,,,,,,,,,,,,,,,,,,,,,,,,,,,,,,,,,,,,,,,,,,,,,,,,,,,,,,,,,,,,,,,,,,,,,,,,,,,,,,,,,,,,,,,,,,,,,,,,,,,,,,,,,,,,,
,,5b8c8e7d0c740e00019d55c3,2024-02-21_23h08.37.894,kallum_motion_pilot,2023.2.2,Win32,60.24096386,5b8c8e7d0c740e00019d55c3,65d6bb0e977760de756971f7,65d6d4d6dfcd203fc765bab2,0.1257,0.126,1,14,176,153,1,fiveseven,,,,,,,,,,,,,,,,,,,,,,,,,,,,,,,,,,,,,,,,,,,,,,,,,,,,,,,,,,,,,,,,,,,,,,,,,,,,,,,,,,,,,,,,,,,,,,,,,,,,,,,,,,,,,,,,,,,,,,,,,,,,,,,,,,,,,,,,,
,,5b8c8e7d0c740e00019d55c3,2024-02-21_23h08.37.894,kallum_motion_pilot,2023.2.2,Win32,60.24096386,5b8c8e7d0c740e00019d55c3,65d6bb0e977760de756971f7,65d6d4d6dfcd203fc765bab2,0.1263,0.1265,1,15,177,152,1,fivesix,,,,,,,,,,,,,,,,,,,,,,,,,,,,,,,,,,,,,,,,,,,,,,,,,,,,,,,,,,,,,,,,,,,,,,,,,,,,,,,,,,,,,,,,,,,,,,,,,,,,,,,,,,,,,,,,,,,,,,,,,,,,,,,,,,,,,,,,,
,,5b8c8e7d0c740e00019d55c3,2024-02-21_23h08.37.894,kallum_motion_pilot,2023.2.2,Win32,60.24096386,5b8c8e7d0c740e00019d55c3,65d6bb0e977760de756971f7,65d6d4d6dfcd203fc765bab2,0.1268,0.127,1,16,178,129,1,fiveseven,,,,,,,,,,,,,,,,,,,,,,,,,,,,,,,,,,,,,,,,,,,,,,,,,,,,,,,,,,,,,,,,,,,,,,,,,,,,,,,,,,,,,,,,,,,,,,,,,,,,,,,,,,,,,,,,,,,,,,,,,,,,,,,,,,,,,,,,,
,,5b8c8e7d0c740e00019d55c3,2024-02-21_23h08.37.894,kallum_motion_pilot,2023.2.2,Win32,60.24096386,5b8c8e7d0c740e00019d55c3,65d6bb0e977760de756971f7,65d6d4d6dfcd203fc765bab2,0.1273,0.1275,1,17,179,111,1,eightseven,,,,,,,,,,,,,,,,,,,,,,,,,,,,,,,,,,,,,,,,,,,,,,,,,,,,,,,,,,,,,,,,,,,,,,,,,,,,,,,,,,,,,,,,,,,,,,,,,,,,,,,,,,,,,,,,,,,,,,,,,,,,,,,,,,,,,,,,,
,,5b8c8e7d0c740e00019d55c3,2024-02-21_23h08.37.894,kallum_motion_pilot,2023.2.2,Win32,60.24096386,5b8c8e7d0c740e00019d55c3,65d6bb0e977760de756971f7,65d6d4d6dfcd203fc765bab2,0.1278,0.128,1,18,180,14,1,fourtwo,,,,,,,,,,,,,,,,,,,,,,,,,,,,,,,,,,,,,,,,,,,,,,,,,,,,,,,,,,,,,,,,,,,,,,,,,,,,,,,,,,,,,,,,,,,,,,,,,,,,,,,,,,,,,,,,,,,,,,,,,,,,,,,,,,,,,,,,,
,,5b8c8e7d0c740e00019d55c3,2024-02-21_23h08.37.894,kallum_motion_pilot,2023.2.2,Win32,60.24096386,5b8c8e7d0c740e00019d55c3,65d6bb0e977760de756971f7,65d6d4d6dfcd203fc765bab2,0.1285,0.129,1,19,181,15,1,fourthree,,,,,,,,,,,,,,,,,,,,,,,,,,,,,,,,,,,,,,,,,,,,,,,,,,,,,,,,,,,,,,,,,,,,,,,,,,,,,,,,,,,,,,,,,,,,,,,,,,,,,,,,,,,,,,,,,,,,,,,,,,,,,,,,,,,,,,,,,
,,5b8c8e7d0c740e00019d55c3,2024-02-21_23h08.37.894,kallum_motion_pilot,2023.2.2,Win32,60.24096386,5b8c8e7d0c740e00019d55c3,65d6bb0e977760de756971f7,65d6d4d6dfcd203fc765bab2,0.1308,0.1311,1,20,182,65,1,onethree,,,,,,,,,,,,,,,,,,,,,,,,,,,,,,,,,,,,,,,,,,,,,,,,,,,,,,,,,,,,,,,,,,,,,,,,,,,,,,,,,,,,,,,,,,,,,,,,,,,,,,,,,,,,,,,,,,,,,,,,,,,,,,,,,,,,,,,,,
,,5b8c8e7d0c740e00019d55c3,2024-02-21_23h08.37.894,kallum_motion_pilot,2023.2.2,Win32,60.24096386,5b8c8e7d0c740e00019d55c3,65d6bb0e977760de756971f7,65d6d4d6dfcd203fc765bab2,0.1314,0.1316,1,21,183,120,1,fivesix,,,,,,,,,,,,,,,,,,,,,,,,,,,,,,,,,,,,,,,,,,,,,,,,,,,,,,,,,,,,,,,,,,,,,,,,,,,,,,,,,,,,,,,,,,,,,,,,,,,,,,,,,,,,,,,,,,,,,,,,,,,,,,,,,,,,,,,,,
,,5b8c8e7d0c740e00019d55c3,2024-02-21_23h08.37.894,kallum_motion_pilot,2023.2.2,Win32,60.24096386,5b8c8e7d0c740e00019d55c3,65d6bb0e977760de756971f7,65d6d4d6dfcd203fc765bab2,0.1326,0.1331,1,22,184,26,1,twoone,,,,,,,,,,,,,,,,,,,,,,,,,,,,,,,,,,,,,,,,,,,,,,,,,,,,,,,,,,,,,,,,,,,,,,,,,,,,,,,,,,,,,,,,,,,,,,,,,,,,,,,,,,,,,,,,,,,,,,,,,,,,,,,,,,,,,,,,,
,,5b8c8e7d0c740e00019d55c3,2024-02-21_23h08.37.894,kallum_motion_pilot,2023.2.2,Win32,60.24096386,5b8c8e7d0c740e00019d55c3,65d6bb0e977760de756971f7,65d6d4d6dfcd203fc765bab2,0.1337,0.1342,1,23,185,2,1,twoone,,,,,,,,,,,,,,,,,,,,,,,,,,,,,,,,,,,,,,,,,,,,,,,,,,,,,,,,,,,,,,,,,,,,,,,,,,,,,,,,,,,,,,,,,,,,,,,,,,,,,,,,,,,,,,,,,,,,,,,,,,,,,,,,,,,,,,,,,
,,5b8c8e7d0c740e00019d55c3,2024-02-21_23h08.37.894,kallum_motion_pilot,2023.2.2,Win32,60.24096386,5b8c8e7d0c740e00019d55c3,65d6bb0e977760de756971f7,65d6d4d6dfcd203fc765bab2,0.1347,0.1351,1,24,186,48,1,onetwo,,,,,,,,,,,,,,,,,,,,,,,,,,,,,,,,,,,,,,,,,,,,,,,,,,,,,,,,,,,,,,,,,,,,,,,,,,,,,,,,,,,,,,,,,,,,,,,,,,,,,,,,,,,,,,,,,,,,,,,,,,,,,,,,,,,,,,,,,
,,5b8c8e7d0c740e00019d55c3,2024-02-21_23h08.37.894,kallum_motion_pilot,2023.2.2,Win32,60.24096386,5b8c8e7d0c740e00019d55c3,65d6bb0e977760de756971f7,65d6d4d6dfcd203fc765bab2,0.1358,0.1362,1,25,187,85,1,seveneight,,,,,,,,,,,,,,,,,,,,,,,,,,,,,,,,,,,,,,,,,,,,,,,,,,,,,,,,,,,,,,,,,,,,,,,,,,,,,,,,,,,,,,,,,,,,,,,,,,,,,,,,,,,,,,,,,,,,,,,,,,,,,,,,,,,,,,,,,
,,5b8c8e7d0c740e00019d55c3,2024-02-21_23h08.37.894,kallum_motion_pilot,2023.2.2,Win32,60.24096386,5b8c8e7d0c740e00019d55c3,65d6bb0e977760de756971f7,65d6d4d6dfcd203fc765bab2,0.1368,0.1372,1,26,188,123,1,sixeight,,,,,,,,,,,,,,,,,,,,,,,,,,,,,,,,,,,,,,,,,,,,,,,,,,,,,,,,,,,,,,,,,,,,,,,,,,,,,,,,,,,,,,,,,,,,,,,,,,,,,,,,,,,,,,,,,,,,,,,,,,,,,,,,,,,,,,,,,
,,5b8c8e7d0c740e00019d55c3,2024-02-21_23h08.37.894,kallum_motion_pilot,2023.2.2,Win32,60.24096386,5b8c8e7d0c740e00019d55c3,65d6bb0e977760de756971f7,65d6d4d6dfcd203fc765bab2,0.1374,0.1376,1,27,189,24,1,onetwo,,,,,,,,,,,,,,,,,,,,,,,,,,,,,,,,,,,,,,,,,,,,,,,,,,,,,,,,,,,,,,,,,,,,,,,,,,,,,,,,,,,,,,,,,,,,,,,,,,,,,,,,,,,,,,,,,,,,,,,,,,,,,,,,,,,,,,,,,
,,5b8c8e7d0c740e00019d55c3,2024-02-21_23h08.37.894,kallum_motion_pilot,2023.2.2,Win32,60.24096386,5b8c8e7d0c740e00019d55c3,65d6bb0e977760de756971f7,65d6d4d6dfcd203fc765bab2,0.1378,0.1381,1,28,190,63,1,fourthree,,,,,,,,,,,,,,,,,,,,,,,,,,,,,,,,,,,,,,,,,,,,,,,,,,,,,,,,,,,,,,,,,,,,,,,,,,,,,,,,,,,,,,,,,,,,,,,,,,,,,,,,,,,,,,,,,,,,,,,,,,,,,,,,,,,,,,,,,
,,5b8c8e7d0c740e00019d55c3,2024-02-21_23h08.37.894,kallum_motion_pilot,2023.2.2,Win32,60.24096386,5b8c8e7d0c740e00019d55c3,65d6bb0e977760de756971f7,65d6d4d6dfcd203fc765bab2,0.1383,0.1385,1,29,191,79,1,eightseven,,,,,,,,,,,,,,,,,,,,,,,,,,,,,,,,,,,,,,,,,,,,,,,,,,,,,,,,,,,,,,,,,,,,,,,,,,,,,,,,,,,,,,,,,,,,,,,,,,,,,,,,,,,,,,,,,,,,,,,,,,,,,,,,,,,,,,,,,
,,5b8c8e7d0c740e00019d55c3,2024-02-21_23h08.37.894,kallum_motion_pilot,2023.2.2,Win32,60.24096386,5b8c8e7d0c740e00019d55c3,65d6bb0e977760de756971f7,65d6d4d6dfcd203fc765bab2,0.1387,0.139,1,30,192,142,1,eightsix,,,,,,,,,,,,,,,,,,,,,,,,,,,,,,,,,,,,,,,,,,,,,,,,,,,,,,,,,,,,,,,,,,,,,,,,,,,,,,,,,,,,,,,,,,,,,,,,,,,,,,,,,,,,,,,,,,,,,,,,,,,,,,,,,,,,,,,,,
,,5b8c8e7d0c740e00019d55c3,2024-02-21_23h08.37.894,kallum_motion_pilot,2023.2.2,Win32,60.24096386,5b8c8e7d0c740e00019d55c3,65d6bb0e977760de756971f7,65d6d4d6dfcd203fc765bab2,0.1392,0.1394,1,31,193,5,1,threefour,,,,,,,,,,,,,,,,,,,,,,,,,,,,,,,,,,,,,,,,,,,,,,,,,,,,,,,,,,,,,,,,,,,,,,,,,,,,,,,,,,,,,,,,,,,,,,,,,,,,,,,,,,,,,,,,,,,,,,,,,,,,,,,,,,,,,,,,,
,,5b8c8e7d0c740e00019d55c3,2024-02-21_23h08.37.894,kallum_motion_pilot,2023.2.2,Win32,60.24096386,5b8c8e7d0c740e00019d55c3,65d6bb0e977760de756971f7,65d6d4d6dfcd203fc765bab2,0.1399,0.1406,1,32,194,99,1,sixeight,,,,,,,,,,,,,,,,,,,,,,,,,,,,,,,,,,,,,,,,,,,,,,,,,,,,,,,,,,,,,,,,,,,,,,,,,,,,,,,,,,,,,,,,,,,,,,,,,,,,,,,,,,,,,,,,,,,,,,,,,,,,,,,,,,,,,,,,,
,,5b8c8e7d0c740e00019d55c3,2024-02-21_23h08.37.894,kallum_motion_pilot,2023.2.2,Win32,60.24096386,5b8c8e7d0c740e00019d55c3,65d6bb0e977760de756971f7,65d6d4d6dfcd203fc765bab2,0.1409,0.1412,1,33,195,161,1,fiveseven,,,,,,,,,,,,,,,,,,,,,,,,,,,,,,,,,,,,,,,,,,,,,,,,,,,,,,,,,,,,,,,,,,,,,,,,,,,,,,,,,,,,,,,,,,,,,,,,,,,,,,,,,,,,,,,,,,,,,,,,,,,,,,,,,,,,,,,,,
,,5b8c8e7d0c740e00019d55c3,2024-02-21_23h08.37.894,kallum_motion_pilot,2023.2.2,Win32,60.24096386,5b8c8e7d0c740e00019d55c3,65d6bb0e977760de756971f7,65d6d4d6dfcd203fc765bab2,0.1414,0.1416,1,34,196,9,1,onethree,,,,,,,,,,,,,,,,,,,,,,,,,,,,,,,,,,,,,,,,,,,,,,,,,,,,,,,,,,,,,,,,,,,,,,,,,,,,,,,,,,,,,,,,,,,,,,,,,,,,,,,,,,,,,,,,,,,,,,,,,,,,,,,,,,,,,,,,,
,,5b8c8e7d0c740e00019d55c3,2024-02-21_23h08.37.894,kallum_motion_pilot,2023.2.2,Win32,60.24096386,5b8c8e7d0c740e00019d55c3,65d6bb0e977760de756971f7,65d6d4d6dfcd203fc765bab2,0.1419,0.1422,1,35,197,91,1,sixeight,,,,,,,,,,,,,,,,,,,,,,,,,,,,,,,,,,,,,,,,,,,,,,,,,,,,,,,,,,,,,,,,,,,,,,,,,,,,,,,,,,,,,,,,,,,,,,,,,,,,,,,,,,,,,,,,,,,,,,,,,,,,,,,,,,,,,,,,,
,,5b8c8e7d0c740e00019d55c3,2024-02-21_23h08.37.894,kallum_motion_pilot,2023.2.2,Win32,60.24096386,5b8c8e7d0c740e00019d55c3,65d6bb0e977760de756971f7,65d6d4d6dfcd203fc765bab2,0.1425,0.1426,1,36,198,8,1,onetwo,,,,,,,,,,,,,,,,,,,,,,,,,,,,,,,,,,,,,,,,,,,,,,,,,,,,,,,,,,,,,,,,,,,,,,,,,,,,,,,,,,,,,,,,,,,,,,,,,,,,,,,,,,,,,,,,,,,,,,,,,,,,,,,,,,,,,,,,,
,,5b8c8e7d0c740e00019d55c3,2024-02-21_23h08.37.894,kallum_motion_pilot,2023.2.2,Win32,60.24096386,5b8c8e7d0c740e00019d55c3,65d6bb0e977760de756971f7,65d6d4d6dfcd203fc765bab2,0.1429,0.1432,1,37,199,50,1,twoone,,,,,,,,,,,,,,,,,,,,,,,,,,,,,,,,,,,,,,,,,,,,,,,,,,,,,,,,,,,,,,,,,,,,,,,,,,,,,,,,,,,,,,,,,,,,,,,,,,,,,,,,,,,,,,,,,,,,,,,,,,,,,,,,,,,,,,,,,
,,5b8c8e7d0c740e00019d55c3,2024-02-21_23h08.37.894,kallum_motion_pilot,2023.2.2,Win32,60.24096386,5b8c8e7d0c740e00019d55c3,65d6bb0e977760de756971f7,65d6d4d6dfcd203fc765bab2,0.1435,0.1437,1,38,200,137,1,fiveseven,,,,,,,,,,,,,,,,,,,,,,,,,,,,,,,,,,,,,,,,,,,,,,,,,,,,,,,,,,,,,,,,,,,,,,,,,,,,,,,,,,,,,,,,,,,,,,,,,,,,,,,,,,,,,,,,,,,,,,,,,,,,,,,,,,,,,,,,,
,,5b8c8e7d0c740e00019d55c3,2024-02-21_23h08.37.894,kallum_motion_pilot,2023.2.2,Win32,60.24096386,5b8c8e7d0c740e00019d55c3,65d6bb0e977760de756971f7,65d6d4d6dfcd203fc765bab2,0.144,0.1441,1,39,201,145,1,fiveseven,,,,,,,,,,,,,,,,,,,,,,,,,,,,,,,,,,,,,,,,,,,,,,,,,,,,,,,,,,,,,,,,,,,,,,,,,,,,,,,,,,,,,,,,,,,,,,,,,,,,,,,,,,,,,,,,,,,,,,,,,,,,,,,,,,,,,,,,,
,,5b8c8e7d0c740e00019d55c3,2024-02-21_23h08.37.894,kallum_motion_pilot,2023.2.2,Win32,60.24096386,5b8c8e7d0c740e00019d55c3,65d6bb0e977760de756971f7,65d6d4d6dfcd203fc765bab2,0.1446,0.1447,1,40,202,39,1,fourthree,,,,,,,,,,,,,,,,,,,,,,,,,,,,,,,,,,,,,,,,,,,,,,,,,,,,,,,,,,,,,,,,,,,,,,,,,,,,,,,,,,,,,,,,,,,,,,,,,,,,,,,,,,,,,,,,,,,,,,,,,,,,,,,,,,,,,,,,,
,,5b8c8e7d0c740e00019d55c3,2024-02-21_23h08.37.894,kallum_motion_pilot,2023.2.2,Win32,60.24096386,5b8c8e7d0c740e00019d55c3,65d6bb0e977760de756971f7,65d6d4d6dfcd203fc765bab2,0.145,0.1452,1,41,203,19,1,twofour,,,,,,,,,,,,,,,,,,,,,,,,,,,,,,,,,,,,,,,,,,,,,,,,,,,,,,,,,,,,,,,,,,,,,,,,,,,,,,,,,,,,,,,,,,,,,,,,,,,,,,,,,,,,,,,,,,,,,,,,,,,,,,,,,,,,,,,,,
,,5b8c8e7d0c740e00019d55c3,2024-02-21_23h08.37.894,kallum_motion_pilot,2023.2.2,Win32,60.24096386,5b8c8e7d0c740e00019d55c3,65d6bb0e977760de756971f7,65d6d4d6dfcd203fc765bab2,0.1455,0.1457,1,42,204,12,1,threeone,,,,,,,,,,,,,,,,,,,,,,,,,,,,,,,,,,,,,,,,,,,,,,,,,,,,,,,,,,,,,,,,,,,,,,,,,,,,,,,,,,,,,,,,,,,,,,,,,,,,,,,,,,,,,,,,,,,,,,,,,,,,,,,,,,,,,,,,,
,,5b8c8e7d0c740e00019d55c3,2024-02-21_23h08.37.894,kallum_motion_pilot,2023.2.2,Win32,60.24096386,5b8c8e7d0c740e00019d55c3,65d6bb0e977760de756971f7,65d6d4d6dfcd203fc765bab2,0.147,0.1473,1,43,205,1,1,onethree,,,,,,,,,,,,,,,,,,,,,,,,,,,,,,,,,,,,,,,,,,,,,,,,,,,,,,,,,,,,,,,,,,,,,,,,,,,,,,,,,,,,,,,,,,,,,,,,,,,,,,,,,,,,,,,,,,,,,,,,,,,,,,,,,,,,,,,,,
,,5b8c8e7d0c740e00019d55c3,2024-02-21_23h08.37.894,kallum_motion_pilot,2023.2.2,Win32,60.24096386,5b8c8e7d0c740e00019d55c3,65d6bb0e977760de756971f7,65d6d4d6dfcd203fc765bab2,0.1475,0.1478,1,44,206,34,1,twoone,,,,,,,,,,,,,,,,,,,,,,,,,,,,,,,,,,,,,,,,,,,,,,,,,,,,,,,,,,,,,,,,,,,,,,,,,,,,,,,,,,,,,,,,,,,,,,,,,,,,,,,,,,,,,,,,,,,,,,,,,,,,,,,,,,,,,,,,,
,,5b8c8e7d0c740e00019d55c3,2024-02-21_23h08.37.894,kallum_motion_pilot,2023.2.2,Win32,60.24096386,5b8c8e7d0c740e00019d55c3,65d6bb0e977760de756971f7,65d6d4d6dfcd203fc765bab2,0.148,0.1482,1,45,207,55,1,fourthree,,,,,,,,,,,,,,,,,,,,,,,,,,,,,,,,,,,,,,,,,,,,,,,,,,,,,,,,,,,,,,,,,,,,,,,,,,,,,,,,,,,,,,,,,,,,,,,,,,,,,,,,,,,,,,,,,,,,,,,,,,,,,,,,,,,,,,,,,
,,5b8c8e7d0c740e00019d55c3,2024-02-21_23h08.37.894,kallum_motion_pilot,2023.2.2,Win32,60.24096386,5b8c8e7d0c740e00019d55c3,65d6bb0e977760de756971f7,65d6d4d6dfcd203fc765bab2,0.1486,0.1487,1,46,208,138,1,sixfive,,,,,,,,,,,,,,,,,,,,,,,,,,,,,,,,,,,,,,,,,,,,,,,,,,,,,,,,,,,,,,,,,,,,,,,,,,,,,,,,,,,,,,,,,,,,,,,,,,,,,,,,,,,,,,,,,,,,,,,,,,,,,,,,,,,,,,,,,
,,5b8c8e7d0c740e00019d55c3,2024-02-21_23h08.37.894,kallum_motion_pilot,2023.2.2,Win32,60.24096386,5b8c8e7d0c740e00019d55c3,65d6bb0e977760de756971f7,65d6d4d6dfcd203fc765bab2,0.1491,0.1493,1,47,209,78,1,fourtwo,,,,,,,,,,,,,,,,,,,,,,,,,,,,,,,,,,,,,,,,,,,,,,,,,,,,,,,,,,,,,,,,,,,,,,,,,,,,,,,,,,,,,,,,,,,,,,,,,,,,,,,,,,,,,,,,,,,,,,,,,,,,,,,,,,,,,,,,,
,,5b8c8e7d0c740e00019d55c3,2024-02-21_23h08.37.894,kallum_motion_pilot,2023.2.2,Win32,60.24096386,5b8c8e7d0c740e00019d55c3,65d6bb0e977760de756971f7,65d6d4d6dfcd203fc765bab2,0.1495,0.1497,1,48,210,42,1,twoone,,,,,,,,,,,,,,,,,,,,,,,,,,,,,,,,,,,,,,,,,,,,,,,,,,,,,,,,,,,,,,,,,,,,,,,,,,,,,,,,,,,,,,,,,,,,,,,,,,,,,,,,,,,,,,,,,,,,,,,,,,,,,,,,,,,,,,,,,
,,5b8c8e7d0c740e00019d55c3,2024-02-21_23h08.37.894,kallum_motion_pilot,2023.2.2,Win32,60.24096386,5b8c8e7d0c740e00019d55c3,65d6bb0e977760de756971f7,65d6d4d6dfcd203fc765bab2,0.1499,0.1502,1,49,211,98,1,sixfive,,,,,,,,,,,,,,,,,,,,,,,,,,,,,,,,,,,,,,,,,,,,,,,,,,,,,,,,,,,,,,,,,,,,,,,,,,,,,,,,,,,,,,,,,,,,,,,,,,,,,,,,,,,,,,,,,,,,,,,,,,,,,,,,,,,,,,,,,
,,5b8c8e7d0c740e00019d55c3,2024-02-21_23h08.37.894,kallum_motion_pilot,2023.2.2,Win32,60.24096386,5b8c8e7d0c740e00019d55c3,65d6bb0e977760de756971f7,65d6d4d6dfcd203fc765bab2,0.1503,0.1506,1,50,212,10,1,twoone,,,,,,,,,,,,,,,,,,,,,,,,,,,,,,,,,,,,,,,,,,,,,,,,,,,,,,,,,,,,,,,,,,,,,,,,,,,,,,,,,,,,,,,,,,,,,,,,,,,,,,,,,,,,,,,,,,,,,,,,,,,,,,,,,,,,,,,,,
,,5b8c8e7d0c740e00019d55c3,2024-02-21_23h08.37.894,kallum_motion_pilot,2023.2.2,Win32,60.24096386,5b8c8e7d0c740e00019d55c3,65d6bb0e977760de756971f7,65d6d4d6dfcd203fc765bab2,0.1508,0.151,1,51,213,27,1,twofour,,,,,,,,,,,,,,,,,,,,,,,,,,,,,,,,,,,,,,,,,,,,,,,,,,,,,,,,,,,,,,,,,,,,,,,,,,,,,,,,,,,,,,,,,,,,,,,,,,,,,,,,,,,,,,,,,,,,,,,,,,,,,,,,,,,,,,,,,
,,5b8c8e7d0c740e00019d55c3,2024-02-21_23h08.37.894,kallum_motion_pilot,2023.2.2,Win32,60.24096386,5b8c8e7d0c740e00019d55c3,65d6bb0e977760de756971f7,65d6d4d6dfcd203fc765bab2,0.1512,0.1515,1,52,214,134,1,eightsix,,,,,,,,,,,,,,,,,,,,,,,,,,,,,,,,,,,,,,,,,,,,,,,,,,,,,,,,,,,,,,,,,,,,,,,,,,,,,,,,,,,,,,,,,,,,,,,,,,,,,,,,,,,,,,,,,,,,,,,,,,,,,,,,,,,,,,,,,
,,5b8c8e7d0c740e00019d55c3,2024-02-21_23h08.37.894,kallum_motion_pilot,2023.2.2,Win32,60.24096386,5b8c8e7d0c740e00019d55c3,65d6bb0e977760de756971f7,65d6d4d6dfcd203fc765bab2,0.1516,0.1519,1,53,215,102,1,eightsix,,,,,,,,,,,,,,,,,,,,,,,,,,,,,,,,,,,,,,,,,,,,,,,,,,,,,,,,,,,,,,,,,,,,,,,,,,,,,,,,,,,,,,,,,,,,,,,,,,,,,,,,,,,,,,,,,,,,,,,,,,,,,,,,,,,,,,,,,
,,5b8c8e7d0c740e00019d55c3,2024-02-21_23h08.37.894,kallum_motion_pilot,2023.2.2,Win32,60.24096386,5b8c8e7d0c740e00019d55c3,65d6bb0e977760de756971f7,65d6d4d6dfcd203fc765bab2,0.152,0.1523,1,54,216,80,1,fivesix,,,,,,,,,,,,,,,,,,,,,,,,,,,,,,,,,,,,,,,,,,,,,,,,,,,,,,,,,,,,,,,,,,,,,,,,,,,,,,,,,,,,,,,,,,,,,,,,,,,,,,,,,,,,,,,,,,,,,,,,,,,,,,,,,,,,,,,,,
,,5b8c8e7d0c740e00019d55c3,2024-02-21_23h08.37.894,kallum_motion_pilot,2023.2.2,Win32,60.24096386,5b8c8e7d0c740e00019d55c3,65d6bb0e977760de756971f7,65d6d4d6dfcd203fc765bab2,0.1526,0.1529,1,55,217,143,1,eightseven,,,,,,,,,,,,,,,,,,,,,,,,,,,,,,,,,,,,,,,,,,,,,,,,,,,,,,,,,,,,,,,,,,,,,,,,,,,,,,,,,,,,,,,,,,,,,,,,,,,,,,,,,,,,,,,,,,,,,,,,,,,,,,,,,,,,,,,,,
,,5b8c8e7d0c740e00019d55c3,2024-02-21_23h08.37.894,kallum_motion_pilot,2023.2.2,Win32,60.24096386,5b8c8e7d0c740e00019d55c3,65d6bb0e977760de756971f7,65d6d4d6dfcd203fc765bab2,0.1531,0.1533,1,56,218,139,1,sixeight,,,,,,,,,,,,,,,,,,,,,,,,,,,,,,,,,,,,,,,,,,,,,,,,,,,,,,,,,,,,,,,,,,,,,,,,,,,,,,,,,,,,,,,,,,,,,,,,,,,,,,,,,,,,,,,,,,,,,,,,,,,,,,,,,,,,,,,,,
,,5b8c8e7d0c740e00019d55c3,2024-02-21_23h08.37.894,kallum_motion_pilot,2023.2.2,Win32,60.24096386,5b8c8e7d0c740e00019d55c3,65d6bb0e977760de756971f7,65d6d4d6dfcd203fc765bab2,0.1537,0.1539,1,57,219,17,1,onethree,,,,,,,,,,,,,,,,,,,,,,,,,,,,,,,,,,,,,,,,,,,,,,,,,,,,,,,,,,,,,,,,,,,,,,,,,,,,,,,,,,,,,,,,,,,,,,,,,,,,,,,,,,,,,,,,,,,,,,,,,,,,,,,,,,,,,,,,,
,,5b8c8e7d0c740e00019d55c3,2024-02-21_23h08.37.894,kallum_motion_pilot,2023.2.2,Win32,60.24096386,5b8c8e7d0c740e00019d55c3,65d6bb0e977760de756971f7,65d6d4d6dfcd203fc765bab2,0.1541,0.1549,1,58,220,33,1,onethree,,,,,,,,,,,,,,,,,,,,,,,,,,,,,,,,,,,,,,,,,,,,,,,,,,,,,,,,,,,,,,,,,,,,,,,,,,,,,,,,,,,,,,,,,,,,,,,,,,,,,,,,,,,,,,,,,,,,,,,,,,,,,,,,,,,,,,,,,
,,5b8c8e7d0c740e00019d55c3,2024-02-21_23h08.37.894,kallum_motion_pilot,2023.2.2,Win32,60.24096386,5b8c8e7d0c740e00019d55c3,65d6bb0e977760de756971f7,65d6d4d6dfcd203fc765bab2,0.1553,0.1555,1,59,221,141,1,seveneight,,,,,,,,,,,,,,,,,,,,,,,,,,,,,,,,,,,,,,,,,,,,,,,,,,,,,,,,,,,,,,,,,,,,,,,,,,,,,,,,,,,,,,,,,,,,,,,,,,,,,,,,,,,,,,,,,,,,,,,,,,,,,,,,,,,,,,,,,
,,5b8c8e7d0c740e00019d55c3,2024-02-21_23h08.37.894,kallum_motion_pilot,2023.2.2,Win32,60.24096386,5b8c8e7d0c740e00019d55c3,65d6bb0e977760de756971f7,65d6d4d6dfcd203fc765bab2,0.156,0.1562,1,60,222,150,1,eightsix,,,,,,,,,,,,,,,,,,,,,,,,,,,,,,,,,,,,,,,,,,,,,,,,,,,,,,,,,,,,,,,,,,,,,,,,,,,,,,,,,,,,,,,,,,,,,,,,,,,,,,,,,,,,,,,,,,,,,,,,,,,,,,,,,,,,,,,,,
,,5b8c8e7d0c740e00019d55c3,2024-02-21_23h08.37.894,kallum_motion_pilot,2023.2.2,Win32,60.24096386,5b8c8e7d0c740e00019d55c3,65d6bb0e977760de756971f7,65d6d4d6dfcd203fc765bab2,0.1567,0.157,1,61,223,127,1,eightseven,,,,,,,,,,,,,,,,,,,,,,,,,,,,,,,,,,,,,,,,,,,,,,,,,,,,,,,,,,,,,,,,,,,,,,,,,,,,,,,,,,,,,,,,,,,,,,,,,,,,,,,,,,,,,,,,,,,,,,,,,,,,,,,,,,,,,,,,,
,,5b8c8e7d0c740e00019d55c3,2024-02-21_23h08.37.894,kallum_motion_pilot,2023.2.2,Win32,60.24096386,5b8c8e7d0c740e00019d55c3,65d6bb0e977760de756971f7,65d6d4d6dfcd203fc765bab2,0.1572,0.1575,1,62,224,68,1,threeone,,,,,,,,,,,,,,,,,,,,,,,,,,,,,,,,,,,,,,,,,,,,,,,,,,,,,,,,,,,,,,,,,,,,,,,,,,,,,,,,,,,,,,,,,,,,,,,,,,,,,,,,,,,,,,,,,,,,,,,,,,,,,,,,,,,,,,,,,
,,5b8c8e7d0c740e00019d55c3,2024-02-21_23h08.37.894,kallum_motion_pilot,2023.2.2,Win32,60.24096386,5b8c8e7d0c740e00019d55c3,65d6bb0e977760de756971f7,65d6d4d6dfcd203fc765bab2,0.1578,0.1581,1,63,225,119,1,eightseven,,,,,,,,,,,,,,,,,,,,,,,,,,,,,,,,,,,,,,,,,,,,,,,,,,,,,,,,,,,,,,,,,,,,,,,,,,,,,,,,,,,,,,,,,,,,,,,,,,,,,,,,,,,,,,,,,,,,,,,,,,,,,,,,,,,,,,,,,
,,5b8c8e7d0c740e00019d55c3,2024-02-21_23h08.37.894,kallum_motion_pilot,2023.2.2,Win32,60.24096386,5b8c8e7d0c740e00019d55c3,65d6bb0e977760de756971f7,65d6d4d6dfcd203fc765bab2,0.1585,0.1587,1,64,226,41,1,onethree,,,,,,,,,,,,,,,,,,,,,,,,,,,,,,,,,,,,,,,,,,,,,,,,,,,,,,,,,,,,,,,,,,,,,,,,,,,,,,,,,,,,,,,,,,,,,,,,,,,,,,,,,,,,,,,,,,,,,,,,,,,,,,,,,,,,,,,,,
,,5b8c8e7d0c740e00019d55c3,2024-02-21_23h08.37.894,kallum_motion_pilot,2023.2.2,Win32,60.24096386,5b8c8e7d0c740e00019d55c3,65d6bb0e977760de756971f7,65d6d4d6dfcd203fc765bab2,0.1591,0.1594,1,65,227,89,1,fiveseven,,,,,,,,,,,,,,,,,,,,,,,,,,,,,,,,,,,,,,,,,,,,,,,,,,,,,,,,,,,,,,,,,,,,,,,,,,,,,,,,,,,,,,,,,,,,,,,,,,,,,,,,,,,,,,,,,,,,,,,,,,,,,,,,,,,,,,,,,
,,5b8c8e7d0c740e00019d55c3,2024-02-21_23h08.37.894,kallum_motion_pilot,2023.2.2,Win32,60.24096386,5b8c8e7d0c740e00019d55c3,65d6bb0e977760de756971f7,65d6d4d6dfcd203fc765bab2,0.1598,0.1601,1,66,228,75,1,twofour,,,,,,,,,,,,,,,,,,,,,,,,,,,,,,,,,,,,,,,,,,,,,,,,,,,,,,,,,,,,,,,,,,,,,,,,,,,,,,,,,,,,,,,,,,,,,,,,,,,,,,,,,,,,,,,,,,,,,,,,,,,,,,,,,,,,,,,,,
,,5b8c8e7d0c740e00019d55c3,2024-02-21_23h08.37.894,kallum_motion_pilot,2023.2.2,Win32,60.24096386,5b8c8e7d0c740e00019d55c3,65d6bb0e977760de756971f7,65d6d4d6dfcd203fc765bab2,0.1604,0.1607,1,67,229,107,1,sixeight,,,,,,,,,,,,,,,,,,,,,,,,,,,,,,,,,,,,,,,,,,,,,,,,,,,,,,,,,,,,,,,,,,,,,,,,,,,,,,,,,,,,,,,,,,,,,,,,,,,,,,,,,,,,,,,,,,,,,,,,,,,,,,,,,,,,,,,,,
,,5b8c8e7d0c740e00019d55c3,2024-02-21_23h08.37.894,kallum_motion_pilot,2023.2.2,Win32,60.24096386,5b8c8e7d0c740e00019d55c3,65d6bb0e977760de756971f7,65d6d4d6dfcd203fc765bab2,0.161,0.1613,1,68,230,154,1,sixfive,,,,,,,,,,,,,,,,,,,,,,,,,,,,,,,,,,,,,,,,,,,,,,,,,,,,,,,,,,,,,,,,,,,,,,,,,,,,,,,,,,,,,,,,,,,,,,,,,,,,,,,,,,,,,,,,,,,,,,,,,,,,,,,,,,,,,,,,,
,,5b8c8e7d0c740e00019d55c3,2024-02-21_23h08.37.894,kallum_motion_pilot,2023.2.2,Win32,60.24096386,5b8c8e7d0c740e00019d55c3,65d6bb0e977760de756971f7,65d6d4d6dfcd203fc765bab2,0.1617,0.162,1,69,231,108,1,sevenfive,,,,,,,,,,,,,,,,,,,,,,,,,,,,,,,,,,,,,,,,,,,,,,,,,,,,,,,,,,,,,,,,,,,,,,,,,,,,,,,,,,,,,,,,,,,,,,,,,,,,,,,,,,,,,,,,,,,,,,,,,,,,,,,,,,,,,,,,,
,,5b8c8e7d0c740e00019d55c3,2024-02-21_23h08.37.894,kallum_motion_pilot,2023.2.2,Win32,60.24096386,5b8c8e7d0c740e00019d55c3,65d6bb0e977760de756971f7,65d6d4d6dfcd203fc765bab2,0.1622,0.1638,1,70,232,157,1,seveneight,,,,,,,,,,,,,,,,,,,,,,,,,,,,,,,,,,,,,,,,,,,,,,,,,,,,,,,,,,,,,,,,,,,,,,,,,,,,,,,,,,,,,,,,,,,,,,,,,,,,,,,,,,,,,,,,,,,,,,,,,,,,,,,,,,,,,,,,,
,,5b8c8e7d0c740e00019d55c3,2024-02-21_23h08.37.894,kallum_motion_pilot,2023.2.2,Win32,60.24096386,5b8c8e7d0c740e00019d55c3,65d6bb0e977760de756971f7,65d6d4d6dfcd203fc765bab2,0.1642,0.1644,1,71,233,81,1,fiveseven,,,,,,,,,,,,,,,,,,,,,,,,,,,,,,,,,,,,,,,,,,,,,,,,,,,,,,,,,,,,,,,,,,,,,,,,,,,,,,,,,,,,,,,,,,,,,,,,,,,,,,,,,,,,,,,,,,,,,,,,,,,,,,,,,,,,,,,,,
,,5b8c8e7d0c740e00019d55c3,2024-02-21_23h08.37.894,kallum_motion_pilot,2023.2.2,Win32,60.24096386,5b8c8e7d0c740e00019d55c3,65d6bb0e977760de756971f7,65d6d4d6dfcd203fc765bab2,0.1647,0.165,1,72,234,132,1,sevenfive,,,,,,,,,,,,,,,,,,,,,,,,,,,,,,,,,,,,,,,,,,,,,,,,,,,,,,,,,,,,,,,,,,,,,,,,,,,,,,,,,,,,,,,,,,,,,,,,,,,,,,,,,,,,,,,,,,,,,,,,,,,,,,,,,,,,,,,,,
,,5b8c8e7d0c740e00019d55c3,2024-02-21_23h08.37.894,kallum_motion_pilot,2023.2.2,Win32,60.24096386,5b8c8e7d0c740e00019d55c3,65d6bb0e977760de756971f7,65d6d4d6dfcd203fc765bab2,0.1652,0.1654,1,73,235,0,1,onetwo,,,,,,,,,,,,,,,,,,,,,,,,,,,,,,,,,,,,,,,,,,,,,,,,,,,,,,,,,,,,,,,,,,,,,,,,,,,,,,,,,,,,,,,,,,,,,,,,,,,,,,,,,,,,,,,,,,,,,,,,,,,,,,,,,,,,,,,,,
,,5b8c8e7d0c740e00019d55c3,2024-02-21_23h08.37.894,kallum_motion_pilot,2023.2.2,Win32,60.24096386,5b8c8e7d0c740e00019d55c3,65d6bb0e977760de756971f7,65d6d4d6dfcd203fc765bab2,0.1657,0.1659,1,74,236,106,1,sixfive,,,,,,,,,,,,,,,,,,,,,,,,,,,,,,,,,,,,,,,,,,,,,,,,,,,,,,,,,,,,,,,,,,,,,,,,,,,,,,,,,,,,,,,,,,,,,,,,,,,,,,,,,,,,,,,,,,,,,,,,,,,,,,,,,,,,,,,,,
,,5b8c8e7d0c740e00019d55c3,2024-02-21_23h08.37.894,kallum_motion_pilot,2023.2.2,Win32,60.24096386,5b8c8e7d0c740e00019d55c3,65d6bb0e977760de756971f7,65d6d4d6dfcd203fc765bab2,0.1662,0.1665,1,75,237,160,1,fivesix,,,,,,,,,,,,,,,,,,,,,,,,,,,,,,,,,,,,,,,,,,,,,,,,,,,,,,,,,,,,,,,,,,,,,,,,,,,,,,,,,,,,,,,,,,,,,,,,,,,,,,,,,,,,,,,,,,,,,,,,,,,,,,,,,,,,,,,,,
,,5b8c8e7d0c740e00019d55c3,2024-02-21_23h08.37.894,kallum_motion_pilot,2023.2.2,Win32,60.24096386,5b8c8e7d0c740e00019d55c3,65d6bb0e977760de756971f7,65d6d4d6dfcd203fc765bab2,0.1666,0.167,1,76,238,146,1,sixfive,,,,,,,,,,,,,,,,,,,,,,,,,,,,,,,,,,,,,,,,,,,,,,,,,,,,,,,,,,,,,,,,,,,,,,,,,,,,,,,,,,,,,,,,,,,,,,,,,,,,,,,,,,,,,,,,,,,,,,,,,,,,,,,,,,,,,,,,,
,,5b8c8e7d0c740e00019d55c3,2024-02-21_23h08.37.894,kallum_motion_pilot,2023.2.2,Win32,60.24096386,5b8c8e7d0c740e00019d55c3,65d6bb0e977760de756971f7,65d6d4d6dfcd203fc765bab2,0.1671,0.1674,1,77,239,94,1,eightsix,,,,,,,,,,,,,,,,,,,,,,,,,,,,,,,,,,,,,,,,,,,,,,,,,,,,,,,,,,,,,,,,,,,,,,,,,,,,,,,,,,,,,,,,,,,,,,,,,,,,,,,,,,,,,,,,,,,,,,,,,,,,,,,,,,,,,,,,,
,,5b8c8e7d0c740e00019d55c3,2024-02-21_23h08.37.894,kallum_motion_pilot,2023.2.2,Win32,60.24096386,5b8c8e7d0c740e00019d55c3,65d6bb0e977760de756971f7,65d6d4d6dfcd203fc765bab2,0.1676,0.1679,1,78,240,54,1,fourtwo,,,,,,,,,,,,,,,,,,,,,,,,,,,,,,,,,,,,,,,,,,,,,,,,,,,,,,,,,,,,,,,,,,,,,,,,,,,,,,,,,,,,,,,,,,,,,,,,,,,,,,,,,,,,,,,,,,,,,,,,,,,,,,,,,,,,,,,,,
,,5b8c8e7d0c740e00019d55c3,2024-02-21_23h08.37.894,kallum_motion_pilot,2023.2.2,Win32,60.24096386,5b8c8e7d0c740e00019d55c3,65d6bb0e977760de756971f7,65d6d4d6dfcd203fc765bab2,0.1681,0.1684,1,79,241,112,1,fivesix,,,,,,,,,,,,,,,,,,,,,,,,,,,,,,,,,,,,,,,,,,,,,,,,,,,,,,,,,,,,,,,,,,,,,,,,,,,,,,,,,,,,,,,,,,,,,,,,,,,,,,,,,,,,,,,,,,,,,,,,,,,,,,,,,,,,,,,,,
,,5b8c8e7d0c740e00019d55c3,2024-02-21_23h08.37.894,kallum_motion_pilot,2023.2.2,Win32,60.24096386,5b8c8e7d0c740e00019d55c3,65d6bb0e977760de756971f7,65d6d4d6dfcd203fc765bab2,0.1686,0.1689,1,80,242,74,1,twoone,,,,,,,,,,,,,,,,,,,,,,,,,,,,,,,,,,,,,,,,,,,,,,,,,,,,,,,,,,,,,,,,,,,,,,,,,,,,,,,,,,,,,,,,,,,,,,,,,,,,,,,,,,,,,,,,,,,,,,,,,,,,,,,,,,,,,,,,,
,,5b8c8e7d0c740e00019d55c3,2024-02-21_23h08.37.894,kallum_motion_pilot,2023.2.2,Win32,60.24096386,5b8c8e7d0c740e00019d55c3,65d6bb0e977760de756971f7,65d6d4d6dfcd203fc765bab2,0.1692,0.1694,1,81,243,126,1,eightsix,,,,,,,,,,,,,,,,,,,,,,,,,,,,,,,,,,,,,,,,,,,,,,,,,,,,,,,,,,,,,,,,,,,,,,,,,,,,,,,,,,,,,,,,,,,,,,,,,,,,,,,,,,,,,,,,,,,,,,,,,,,,,,,,,,,,,,,,,
,,5b8c8e7d0c740e00019d55c3,2024-02-21_23h08.37.894,kallum_motion_pilot,2023.2.2,Win32,60.24096386,5b8c8e7d0c740e00019d55c3,65d6bb0e977760de756971f7,65d6d4d6dfcd203fc765bab2,0.1697,0.17,1,82,244,23,1,fourthree,,,,,,,,,,,,,,,,,,,,,,,,,,,,,,,,,,,,,,,,,,,,,,,,,,,,,,,,,,,,,,,,,,,,,,,,,,,,,,,,,,,,,,,,,,,,,,,,,,,,,,,,,,,,,,,,,,,,,,,,,,,,,,,,,,,,,,,,,
,,5b8c8e7d0c740e00019d55c3,2024-02-21_23h08.37.894,kallum_motion_pilot,2023.2.2,Win32,60.24096386,5b8c8e7d0c740e00019d55c3,65d6bb0e977760de756971f7,65d6d4d6dfcd203fc765bab2,0.1703,0.1706,1,83,245,60,1,threeone,,,,,,,,,,,,,,,,,,,,,,,,,,,,,,,,,,,,,,,,,,,,,,,,,,,,,,,,,,,,,,,,,,,,,,,,,,,,,,,,,,,,,,,,,,,,,,,,,,,,,,,,,,,,,,,,,,,,,,,,,,,,,,,,,,,,,,,,,
,,5b8c8e7d0c740e00019d55c3,2024-02-21_23h08.37.894,kallum_motion_pilot,2023.2.2,Win32,60.24096386,5b8c8e7d0c740e00019d55c3,65d6bb0e977760de756971f7,65d6d4d6dfcd203fc765bab2,0.1709,0.1711,1,84,246,40,1,onetwo,,,,,,,,,,,,,,,,,,,,,,,,,,,,,,,,,,,,,,,,,,,,,,,,,,,,,,,,,,,,,,,,,,,,,,,,,,,,,,,,,,,,,,,,,,,,,,,,,,,,,,,,,,,,,,,,,,,,,,,,,,,,,,,,,,,,,,,,,
,,5b8c8e7d0c740e00019d55c3,2024-02-21_23h08.37.894,kallum_motion_pilot,2023.2.2,Win32,60.24096386,5b8c8e7d0c740e00019d55c3,65d6bb0e977760de756971f7,65d6d4d6dfcd203fc765bab2,0.1715,0.1719,1,85,247,67,1,twofour,,,,,,,,,,,,,,,,,,,,,,,,,,,,,,,,,,,,,,,,,,,,,,,,,,,,,,,,,,,,,,,,,,,,,,,,,,,,,,,,,,,,,,,,,,,,,,,,,,,,,,,,,,,,,,,,,,,,,,,,,,,,,,,,,,,,,,,,,
,,5b8c8e7d0c740e00019d55c3,2024-02-21_23h08.37.894,kallum_motion_pilot,2023.2.2,Win32,60.24096386,5b8c8e7d0c740e00019d55c3,65d6bb0e977760de756971f7,65d6d4d6dfcd203fc765bab2,0.1722,0.1725,1,86,248,3,1,twofour,,,,,,,,,,,,,,,,,,,,,,,,,,,,,,,,,,,,,,,,,,,,,,,,,,,,,,,,,,,,,,,,,,,,,,,,,,,,,,,,,,,,,,,,,,,,,,,,,,,,,,,,,,,,,,,,,,,,,,,,,,,,,,,,,,,,,,,,,
,,5b8c8e7d0c740e00019d55c3,2024-02-21_23h08.37.894,kallum_motion_pilot,2023.2.2,Win32,60.24096386,5b8c8e7d0c740e00019d55c3,65d6bb0e977760de756971f7,65d6d4d6dfcd203fc765bab2,0.1728,0.173,1,87,249,30,1,fourtwo,,,,,,,,,,,,,,,,,,,,,,,,,,,,,,,,,,,,,,,,,,,,,,,,,,,,,,,,,,,,,,,,,,,,,,,,,,,,,,,,,,,,,,,,,,,,,,,,,,,,,,,,,,,,,,,,,,,,,,,,,,,,,,,,,,,,,,,,,
,,5b8c8e7d0c740e00019d55c3,2024-02-21_23h08.37.894,kallum_motion_pilot,2023.2.2,Win32,60.24096386,5b8c8e7d0c740e00019d55c3,65d6bb0e977760de756971f7,65d6d4d6dfcd203fc765bab2,0.1733,0.1736,1,88,250,125,1,seveneight,,,,,,,,,,,,,,,,,,,,,,,,,,,,,,,,,,,,,,,,,,,,,,,,,,,,,,,,,,,,,,,,,,,,,,,,,,,,,,,,,,,,,,,,,,,,,,,,,,,,,,,,,,,,,,,,,,,,,,,,,,,,,,,,,,,,,,,,,
,,5b8c8e7d0c740e00019d55c3,2024-02-21_23h08.37.894,kallum_motion_pilot,2023.2.2,Win32,60.24096386,5b8c8e7d0c740e00019d55c3,65d6bb0e977760de756971f7,65d6d4d6dfcd203fc765bab2,0.174,0.1743,1,89,251,43,1,twofour,,,,,,,,,,,,,,,,,,,,,,,,,,,,,,,,,,,,,,,,,,,,,,,,,,,,,,,,,,,,,,,,,,,,,,,,,,,,,,,,,,,,,,,,,,,,,,,,,,,,,,,,,,,,,,,,,,,,,,,,,,,,,,,,,,,,,,,,,
,,5b8c8e7d0c740e00019d55c3,2024-02-21_23h08.37.894,kallum_motion_pilot,2023.2.2,Win32,60.24096386,5b8c8e7d0c740e00019d55c3,65d6bb0e977760de756971f7,65d6d4d6dfcd203fc765bab2,0.1746,0.1748,1,90,252,95,1,eightseven,,,,,,,,,,,,,,,,,,,,,,,,,,,,,,,,,,,,,,,,,,,,,,,,,,,,,,,,,,,,,,,,,,,,,,,,,,,,,,,,,,,,,,,,,,,,,,,,,,,,,,,,,,,,,,,,,,,,,,,,,,,,,,,,,,,,,,,,,
,,5b8c8e7d0c740e00019d55c3,2024-02-21_23h08.37.894,kallum_motion_pilot,2023.2.2,Win32,60.24096386,5b8c8e7d0c740e00019d55c3,65d6bb0e977760de756971f7,65d6d4d6dfcd203fc765bab2,0.1751,0.1755,1,91,253,57,1,onethree,,,,,,,,,,,,,,,,,,,,,,,,,,,,,,,,,,,,,,,,,,,,,,,,,,,,,,,,,,,,,,,,,,,,,,,,,,,,,,,,,,,,,,,,,,,,,,,,,,,,,,,,,,,,,,,,,,,,,,,,,,,,,,,,,,,,,,,,,
,,5b8c8e7d0c740e00019d55c3,2024-02-21_23h08.37.894,kallum_motion_pilot,2023.2.2,Win32,60.24096386,5b8c8e7d0c740e00019d55c3,65d6bb0e977760de756971f7,65d6d4d6dfcd203fc765bab2,0.1757,0.176,1,92,254,118,1,eightsix,,,,,,,,,,,,,,,,,,,,,,,,,,,,,,,,,,,,,,,,,,,,,,,,,,,,,,,,,,,,,,,,,,,,,,,,,,,,,,,,,,,,,,,,,,,,,,,,,,,,,,,,,,,,,,,,,,,,,,,,,,,,,,,,,,,,,,,,,
,,5b8c8e7d0c740e00019d55c3,2024-02-21_23h08.37.894,kallum_motion_pilot,2023.2.2,Win32,60.24096386,5b8c8e7d0c740e00019d55c3,65d6bb0e977760de756971f7,65d6d4d6dfcd203fc765bab2,0.1763,0.1767,1,93,255,76,1,threeone,,,,,,,,,,,,,,,,,,,,,,,,,,,,,,,,,,,,,,,,,,,,,,,,,,,,,,,,,,,,,,,,,,,,,,,,,,,,,,,,,,,,,,,,,,,,,,,,,,,,,,,,,,,,,,,,,,,,,,,,,,,,,,,,,,,,,,,,,
,,5b8c8e7d0c740e00019d55c3,2024-02-21_23h08.37.894,kallum_motion_pilot,2023.2.2,Win32,60.24096386,5b8c8e7d0c740e00019d55c3,65d6bb0e977760de756971f7,65d6d4d6dfcd203fc765bab2,0.177,0.1772,1,94,256,114,1,sixfive,,,,,,,,,,,,,,,,,,,,,,,,,,,,,,,,,,,,,,,,,,,,,,,,,,,,,,,,,,,,,,,,,,,,,,,,,,,,,,,,,,,,,,,,,,,,,,,,,,,,,,,,,,,,,,,,,,,,,,,,,,,,,,,,,,,,,,,,,
,,5b8c8e7d0c740e00019d55c3,2024-02-21_23h08.37.894,kallum_motion_pilot,2023.2.2,Win32,60.24096386,5b8c8e7d0c740e00019d55c3,65d6bb0e977760de756971f7,65d6d4d6dfcd203fc765bab2,0.1775,0.1777,1,95,257,96,1,fivesix,,,,,,,,,,,,,,,,,,,,,,,,,,,,,,,,,,,,,,,,,,,,,,,,,,,,,,,,,,,,,,,,,,,,,,,,,,,,,,,,,,,,,,,,,,,,,,,,,,,,,,,,,,,,,,,,,,,,,,,,,,,,,,,,,,,,,,,,,
,,5b8c8e7d0c740e00019d55c3,2024-02-21_23h08.37.894,kallum_motion_pilot,2023.2.2,Win32,60.24096386,5b8c8e7d0c740e00019d55c3,65d6bb0e977760de756971f7,65d6d4d6dfcd203fc765bab2,0.1779,0.1781,1,96,258,158,1,eightsix,,,,,,,,,,,,,,,,,,,,,,,,,,,,,,,,,,,,,,,,,,,,,,,,,,,,,,,,,,,,,,,,,,,,,,,,,,,,,,,,,,,,,,,,,,,,,,,,,,,,,,,,,,,,,,,,,,,,,,,,,,,,,,,,,,,,,,,,,
,,5b8c8e7d0c740e00019d55c3,2024-02-21_23h08.37.894,kallum_motion_pilot,2023.2.2,Win32,60.24096386,5b8c8e7d0c740e00019d55c3,65d6bb0e977760de756971f7,65d6d4d6dfcd203fc765bab2,0.1784,0.1787,1,97,259,156,1,sevenfive,,,,,,,,,,,,,,,,,,,,,,,,,,,,,,,,,,,,,,,,,,,,,,,,,,,,,,,,,,,,,,,,,,,,,,,,,,,,,,,,,,,,,,,,,,,,,,,,,,,,,,,,,,,,,,,,,,,,,,,,,,,,,,,,,,,,,,,,,
,,5b8c8e7d0c740e00019d55c3,2024-02-21_23h08.37.894,kallum_motion_pilot,2023.2.2,Win32,60.24096386,5b8c8e7d0c740e00019d55c3,65d6bb0e977760de756971f7,65d6d4d6dfcd203fc765bab2,0.1791,0.1806,1,98,260,159,1,eightseven,,,,,,,,,,,,,,,,,,,,,,,,,,,,,,,,,,,,,,,,,,,,,,,,,,,,,,,,,,,,,,,,,,,,,,,,,,,,,,,,,,,,,,,,,,,,,,,,,,,,,,,,,,,,,,,,,,,,,,,,,,,,,,,,,,,,,,,,,
,,5b8c8e7d0c740e00019d55c3,2024-02-21_23h08.37.894,kallum_motion_pilot,2023.2.2,Win32,60.24096386,5b8c8e7d0c740e00019d55c3,65d6bb0e977760de756971f7,65d6d4d6dfcd203fc765bab2,0.181,0.1813,1,99,261,87,1,eightseven,,,,,,,,,,,,,,,,,,,,,,,,,,,,,,,,,,,,,,,,,,,,,,,,,,,,,,,,,,,,,,,,,,,,,,,,,,,,,,,,,,,,,,,,,,,,,,,,,,,,,,,,,,,,,,,,,,,,,,,,,,,,,,,,,,,,,,,,,
,,5b8c8e7d0c740e00019d55c3,2024-02-21_23h08.37.894,kallum_motion_pilot,2023.2.2,Win32,60.24096386,5b8c8e7d0c740e00019d55c3,65d6bb0e977760de756971f7,65d6d4d6dfcd203fc765bab2,0.1814,0.1817,1,100,262,100,1,sevenfive,,,,,,,,,,,,,,,,,,,,,,,,,,,,,,,,,,,,,,,,,,,,,,,,,,,,,,,,,,,,,,,,,,,,,,,,,,,,,,,,,,,,,,,,,,,,,,,,,,,,,,,,,,,,,,,,,,,,,,,,,,,,,,,,,,,,,,,,,
,,5b8c8e7d0c740e00019d55c3,2024-02-21_23h08.37.894,kallum_motion_pilot,2023.2.2,Win32,60.24096386,5b8c8e7d0c740e00019d55c3,65d6bb0e977760de756971f7,65d6d4d6dfcd203fc765bab2,0.1819,0.1821,1,101,263,52,1,threeone,,,,,,,,,,,,,,,,,,,,,,,,,,,,,,,,,,,,,,,,,,,,,,,,,,,,,,,,,,,,,,,,,,,,,,,,,,,,,,,,,,,,,,,,,,,,,,,,,,,,,,,,,,,,,,,,,,,,,,,,,,,,,,,,,,,,,,,,,
,,5b8c8e7d0c740e00019d55c3,2024-02-21_23h08.37.894,kallum_motion_pilot,2023.2.2,Win32,60.24096386,5b8c8e7d0c740e00019d55c3,65d6bb0e977760de756971f7,65d6d4d6dfcd203fc765bab2,0.1825,0.1827,1,102,264,110,1,eightsix,,,,,,,,,,,,,,,,,,,,,,,,,,,,,,,,,,,,,,,,,,,,,,,,,,,,,,,,,,,,,,,,,,,,,,,,,,,,,,,,,,,,,,,,,,,,,,,,,,,,,,,,,,,,,,,,,,,,,,,,,,,,,,,,,,,,,,,,,
,,5b8c8e7d0c740e00019d55c3,2024-02-21_23h08.37.894,kallum_motion_pilot,2023.2.2,Win32,60.24096386,5b8c8e7d0c740e00019d55c3,65d6bb0e977760de756971f7,65d6d4d6dfcd203fc765bab2,0.1829,0.1832,1,103,265,117,1,seveneight,,,,,,,,,,,,,,,,,,,,,,,,,,,,,,,,,,,,,,,,,,,,,,,,,,,,,,,,,,,,,,,,,,,,,,,,,,,,,,,,,,,,,,,,,,,,,,,,,,,,,,,,,,,,,,,,,,,,,,,,,,,,,,,,,,,,,,,,,
,,5b8c8e7d0c740e00019d55c3,2024-02-21_23h08.37.894,kallum_motion_pilot,2023.2.2,Win32,60.24096386,5b8c8e7d0c740e00019d55c3,65d6bb0e977760de756971f7,65d6d4d6dfcd203fc765bab2,0.1835,0.1838,1,104,266,46,1,fourtwo,,,,,,,,,,,,,,,,,,,,,,,,,,,,,,,,,,,,,,,,,,,,,,,,,,,,,,,,,,,,,,,,,,,,,,,,,,,,,,,,,,,,,,,,,,,,,,,,,,,,,,,,,,,,,,,,,,,,,,,,,,,,,,,,,,,,,,,,,
,,5b8c8e7d0c740e00019d55c3,2024-02-21_23h08.37.894,kallum_motion_pilot,2023.2.2,Win32,60.24096386,5b8c8e7d0c740e00019d55c3,65d6bb0e977760de756971f7,65d6d4d6dfcd203fc765bab2,0.184,0.1844,1,105,267,101,1,seveneight,,,,,,,,,,,,,,,,,,,,,,,,,,,,,,,,,,,,,,,,,,,,,,,,,,,,,,,,,,,,,,,,,,,,,,,,,,,,,,,,,,,,,,,,,,,,,,,,,,,,,,,,,,,,,,,,,,,,,,,,,,,,,,,,,,,,,,,,,
,,5b8c8e7d0c740e00019d55c3,2024-02-21_23h08.37.894,kallum_motion_pilot,2023.2.2,Win32,60.24096386,5b8c8e7d0c740e00019d55c3,65d6bb0e977760de756971f7,65d6d4d6dfcd203fc765bab2,0.1847,0.1849,1,106,268,4,1,threeone,,,,,,,,,,,,,,,,,,,,,,,,,,,,,,,,,,,,,,,,,,,,,,,,,,,,,,,,,,,,,,,,,,,,,,,,,,,,,,,,,,,,,,,,,,,,,,,,,,,,,,,,,,,,,,,,,,,,,,,,,,,,,,,,,,,,,,,,,
,,5b8c8e7d0c740e00019d55c3,2024-02-21_23h08.37.894,kallum_motion_pilot,2023.2.2,Win32,60.24096386,5b8c8e7d0c740e00019d55c3,65d6bb0e977760de756971f7,65d6d4d6dfcd203fc765bab2,0.1852,0.1854,1,107,269,77,1,threefour,,,,,,,,,,,,,,,,,,,,,,,,,,,,,,,,,,,,,,,,,,,,,,,,,,,,,,,,,,,,,,,,,,,,,,,,,,,,,,,,,,,,,,,,,,,,,,,,,,,,,,,,,,,,,,,,,,,,,,,,,,,,,,,,,,,,,,,,,
,,5b8c8e7d0c740e00019d55c3,2024-02-21_23h08.37.894,kallum_motion_pilot,2023.2.2,Win32,60.24096386,5b8c8e7d0c740e00019d55c3,65d6bb0e977760de756971f7,65d6d4d6dfcd203fc765bab2,0.1857,0.1859,1,108,270,58,1,twoone,,,,,,,,,,,,,,,,,,,,,,,,,,,,,,,,,,,,,,,,,,,,,,,,,,,,,,,,,,,,,,,,,,,,,,,,,,,,,,,,,,,,,,,,,,,,,,,,,,,,,,,,,,,,,,,,,,,,,,,,,,,,,,,,,,,,,,,,,
,,5b8c8e7d0c740e00019d55c3,2024-02-21_23h08.37.894,kallum_motion_pilot,2023.2.2,Win32,60.24096386,5b8c8e7d0c740e00019d55c3,65d6bb0e977760de756971f7,65d6d4d6dfcd203fc765bab2,0.188,0.1882,1,109,271,7,1,fourthree,,,,,,,,,,,,,,,,,,,,,,,,,,,,,,,,,,,,,,,,,,,,,,,,,,,,,,,,,,,,,,,,,,,,,,,,,,,,,,,,,,,,,,,,,,,,,,,,,,,,,,,,,,,,,,,,,,,,,,,,,,,,,,,,,,,,,,,,,
,,5b8c8e7d0c740e00019d55c3,2024-02-21_23h08.37.894,kallum_motion_pilot,2023.2.2,Win32,60.24096386,5b8c8e7d0c740e00019d55c3,65d6bb0e977760de756971f7,65d6d4d6dfcd203fc765bab2,0.1885,0.1887,1,110,272,147,1,sixeight,,,,,,,,,,,,,,,,,,,,,,,,,,,,,,,,,,,,,,,,,,,,,,,,,,,,,,,,,,,,,,,,,,,,,,,,,,,,,,,,,,,,,,,,,,,,,,,,,,,,,,,,,,,,,,,,,,,,,,,,,,,,,,,,,,,,,,,,,
,,5b8c8e7d0c740e00019d55c3,2024-02-21_23h08.37.894,kallum_motion_pilot,2023.2.2,Win32,60.24096386,5b8c8e7d0c740e00019d55c3,65d6bb0e977760de756971f7,65d6d4d6dfcd203fc765bab2,0.1891,0.1893,1,111,273,135,1,eightseven,,,,,,,,,,,,,,,,,,,,,,,,,,,,,,,,,,,,,,,,,,,,,,,,,,,,,,,,,,,,,,,,,,,,,,,,,,,,,,,,,,,,,,,,,,,,,,,,,,,,,,,,,,,,,,,,,,,,,,,,,,,,,,,,,,,,,,,,,
,,5b8c8e7d0c740e00019d55c3,2024-02-21_23h08.37.894,kallum_motion_pilot,2023.2.2,Win32,60.24096386,5b8c8e7d0c740e00019d55c3,65d6bb0e977760de756971f7,65d6d4d6dfcd203fc765bab2,0.1897,0.1907,1,112,274,131,1,sixeight,,,,,,,,,,,,,,,,,,,,,,,,,,,,,,,,,,,,,,,,,,,,,,,,,,,,,,,,,,,,,,,,,,,,,,,,,,,,,,,,,,,,,,,,,,,,,,,,,,,,,,,,,,,,,,,,,,,,,,,,,,,,,,,,,,,,,,,,,
,,5b8c8e7d0c740e00019d55c3,2024-02-21_23h08.37.894,kallum_motion_pilot,2023.2.2,Win32,60.24096386,5b8c8e7d0c740e00019d55c3,65d6bb0e977760de756971f7,65d6d4d6dfcd203fc765bab2,0.1926,0.194,1,113,275,25,1,onethree,,,,,,,,,,,,,,,,,,,,,,,,,,,,,,,,,,,,,,,,,,,,,,,,,,,,,,,,,,,,,,,,,,,,,,,,,,,,,,,,,,,,,,,,,,,,,,,,,,,,,,,,,,,,,,,,,,,,,,,,,,,,,,,,,,,,,,,,,
,,5b8c8e7d0c740e00019d55c3,2024-02-21_23h08.37.894,kallum_motion_pilot,2023.2.2,Win32,60.24096386,5b8c8e7d0c740e00019d55c3,65d6bb0e977760de756971f7,65d6d4d6dfcd203fc765bab2,0.1943,0.1946,1,114,276,83,1,sixeight,,,,,,,,,,,,,,,,,,,,,,,,,,,,,,,,,,,,,,,,,,,,,,,,,,,,,,,,,,,,,,,,,,,,,,,,,,,,,,,,,,,,,,,,,,,,,,,,,,,,,,,,,,,,,,,,,,,,,,,,,,,,,,,,,,,,,,,,,
,,5b8c8e7d0c740e00019d55c3,2024-02-21_23h08.37.894,kallum_motion_pilot,2023.2.2,Win32,60.24096386,5b8c8e7d0c740e00019d55c3,65d6bb0e977760de756971f7,65d6d4d6dfcd203fc765bab2,0.1951,0.1964,1,115,277,103,1,eightseven,,,,,,,,,,,,,,,,,,,,,,,,,,,,,,,,,,,,,,,,,,,,,,,,,,,,,,,,,,,,,,,,,,,,,,,,,,,,,,,,,,,,,,,,,,,,,,,,,,,,,,,,,,,,,,,,,,,,,,,,,,,,,,,,,,,,,,,,,
