startup.started,startup.stopped,Prolific ID*,date,expName,psychopyVersion,OS,frameRate,participant,study_id,session,stimpositions.started,stimpositions.stopped,hardcoded_stimulus_positions.thisRepN,hardcoded_stimulus_positions.thisTrialN,hardcoded_stimulus_positions.thisN,hardcoded_stimulus_positions.thisIndex,hardcoded_stimulus_positions.ran,StimulusPos,stimorientation.started,stimorientation.stopped,prac_stimorientation_import_loop.thisRepN,prac_stimorientation_import_loop.thisTrialN,prac_stimorientation_import_loop.thisN,prac_stimorientation_import_loop.thisIndex,prac_stimorientation_import_loop.ran,Stimorientation,welcome_instr.started,welcome_instr.stopped,key_resp.keys,key_resp.rt,key_resp.duration,response_steppedout_1.started,response_steppedout_1.stopped,key_resp_20.keys,key_resp_20.rt,key_resp_20.duration,response_steppedout_2.started,response_steppedout_2.stopped,key_resp_19.keys,key_resp_19.rt,key_resp_19.duration,stim_response_instr.started,stim_response_instr.stopped,key_resp_15.keys,key_resp_15.rt,key_resp_15.duration,direction_instr_2.started,direction_instr_2.stopped,key_resp_9.keys,key_resp_9.rt,key_resp_9.duration,instr_prac.started,instr_prac.stopped,key_resp_10.keys,key_resp_10.rt,key_resp_10.duration,Stim1_display_prac.started,Stim1_display_prac.stopped,Ecc,Circle1_ori,Circle2_ori,response_prac.started,similarity,response_time,response_prac.stopped,mouse_5.x,mouse_5.y,mouse_5.leftButton,mouse_5.midButton,mouse_5.rightButton,mouse_5.clicked_name,responseprac_feedback.started,responseprac_feedback.stopped,summary2_prac.started,summary2_prac.stopped,mouse_6.x,mouse_6.y,mouse_6.leftButton,mouse_6.midButton,mouse_6.rightButton,mouse_6.clicked_name,duringprac.thisRepN,duringprac.thisTrialN,duringprac.thisN,duringprac.thisIndex,duringprac.ran,begin.started,begin.stopped,key_resp_22.keys,key_resp_22.rt,key_resp_22.duration,Stim1_display.started,Stim1_display.stopped,circle1_ori,circle2_ori,circle1_SF,circle2_SF,response.started,response.stopped,mouse.x,mouse.y,mouse.leftButton,mouse.midButton,mouse.rightButton,mouse.clicked_name,trialnumber,double_pass.thisRepN,double_pass.thisTrialN,double_pass.thisN,double_pass.thisIndex,double_pass.ran,double_pass.order,main_trial.thisRepN,main_trial.thisTrialN,main_trial.thisN,main_trial.thisIndex,main_trial.ran,main_trial.order,Trial_Counter,Catch,Frequencies,response_2.started,response_2.stopped,mouse_2.x,mouse_2.y,mouse_2.leftButton,mouse_2.midButton,mouse_2.rightButton,mouse_2.clicked_name,special_trial.started,special_trial.stopped,catch_1.started,catch_1.stopped,mouse_3.x,mouse_3.y,mouse_3.leftButton,mouse_3.midButton,mouse_3.rightButton,catchresponse,catchnumber,response_time_catch,response_sum.started,response_sum.stopped,mouse_11.x,mouse_11.y,mouse_11.leftButton,mouse_11.midButton,mouse_11.rightButton,flip_presentation_sequence_for_double_pass.started,flip_presentation_sequence_for_double_pass.stopped,goodbye.started,goodbye.stopped,key_resp_3.keys,key_resp_3.rt,key_resp_3.duration
0.0007,0.0009,5b8eda7cdc2b880001b6f1de,2024-02-19_02h16.12.540,kallum_motion_pilot,2023.2.2,Win32,49.75124378,5b8eda7cdc2b880001b6f1de,65d2b6c8f2eece985d8e374c,65d2b9ded639e9a9380fdd3c,,,,,,,,,,,,,,,,,,,,,,,,,,,,,,,,,,,,,,,,,,,,,,,,,,,,,,,,,,,,,,,,,,,,,,,,,,,,,,,,,,,,,,,,,,,,,,,,,,,,,,,,,,,,,,,,,,,,,,,,,,,,,,,,,,,,,,,,,,,,,,,,,
,,5b8eda7cdc2b880001b6f1de,2024-02-19_02h16.12.540,kallum_motion_pilot,2023.2.2,Win32,49.75124378,5b8eda7cdc2b880001b6f1de,65d2b6c8f2eece985d8e374c,65d2b9ded639e9a9380fdd3c,0.0398,0.0401,0,0,0,148,1,sevenfive,,,,,,,,,,,,,,,,,,,,,,,,,,,,,,,,,,,,,,,,,,,,,,,,,,,,,,,,,,,,,,,,,,,,,,,,,,,,,,,,,,,,,,,,,,,,,,,,,,,,,,,,,,,,,,,,,,,,,,,,,,,,,,,,,,,,,,,,,
,,5b8eda7cdc2b880001b6f1de,2024-02-19_02h16.12.540,kallum_motion_pilot,2023.2.2,Win32,49.75124378,5b8eda7cdc2b880001b6f1de,65d2b6c8f2eece985d8e374c,65d2b9ded639e9a9380fdd3c,0.0407,0.0407,0,1,1,63,1,fourthree,,,,,,,,,,,,,,,,,,,,,,,,,,,,,,,,,,,,,,,,,,,,,,,,,,,,,,,,,,,,,,,,,,,,,,,,,,,,,,,,,,,,,,,,,,,,,,,,,,,,,,,,,,,,,,,,,,,,,,,,,,,,,,,,,,,,,,,,,
,,5b8eda7cdc2b880001b6f1de,2024-02-19_02h16.12.540,kallum_motion_pilot,2023.2.2,Win32,49.75124378,5b8eda7cdc2b880001b6f1de,65d2b6c8f2eece985d8e374c,65d2b9ded639e9a9380fdd3c,0.041,0.0411,0,2,2,158,1,eightsix,,,,,,,,,,,,,,,,,,,,,,,,,,,,,,,,,,,,,,,,,,,,,,,,,,,,,,,,,,,,,,,,,,,,,,,,,,,,,,,,,,,,,,,,,,,,,,,,,,,,,,,,,,,,,,,,,,,,,,,,,,,,,,,,,,,,,,,,,
,,5b8eda7cdc2b880001b6f1de,2024-02-19_02h16.12.540,kallum_motion_pilot,2023.2.2,Win32,49.75124378,5b8eda7cdc2b880001b6f1de,65d2b6c8f2eece985d8e374c,65d2b9ded639e9a9380fdd3c,0.0414,0.0414,0,3,3,5,1,threefour,,,,,,,,,,,,,,,,,,,,,,,,,,,,,,,,,,,,,,,,,,,,,,,,,,,,,,,,,,,,,,,,,,,,,,,,,,,,,,,,,,,,,,,,,,,,,,,,,,,,,,,,,,,,,,,,,,,,,,,,,,,,,,,,,,,,,,,,,
,,5b8eda7cdc2b880001b6f1de,2024-02-19_02h16.12.540,kallum_motion_pilot,2023.2.2,Win32,49.75124378,5b8eda7cdc2b880001b6f1de,65d2b6c8f2eece985d8e374c,65d2b9ded639e9a9380fdd3c,0.0418,0.0419,0,4,4,17,1,onethree,,,,,,,,,,,,,,,,,,,,,,,,,,,,,,,,,,,,,,,,,,,,,,,,,,,,,,,,,,,,,,,,,,,,,,,,,,,,,,,,,,,,,,,,,,,,,,,,,,,,,,,,,,,,,,,,,,,,,,,,,,,,,,,,,,,,,,,,,
,,5b8eda7cdc2b880001b6f1de,2024-02-19_02h16.12.540,kallum_motion_pilot,2023.2.2,Win32,49.75124378,5b8eda7cdc2b880001b6f1de,65d2b6c8f2eece985d8e374c,65d2b9ded639e9a9380fdd3c,0.0422,0.0423,0,5,5,85,1,seveneight,,,,,,,,,,,,,,,,,,,,,,,,,,,,,,,,,,,,,,,,,,,,,,,,,,,,,,,,,,,,,,,,,,,,,,,,,,,,,,,,,,,,,,,,,,,,,,,,,,,,,,,,,,,,,,,,,,,,,,,,,,,,,,,,,,,,,,,,,
,,5b8eda7cdc2b880001b6f1de,2024-02-19_02h16.12.540,kallum_motion_pilot,2023.2.2,Win32,49.75124378,5b8eda7cdc2b880001b6f1de,65d2b6c8f2eece985d8e374c,65d2b9ded639e9a9380fdd3c,0.0426,0.0427,0,6,6,51,1,twofour,,,,,,,,,,,,,,,,,,,,,,,,,,,,,,,,,,,,,,,,,,,,,,,,,,,,,,,,,,,,,,,,,,,,,,,,,,,,,,,,,,,,,,,,,,,,,,,,,,,,,,,,,,,,,,,,,,,,,,,,,,,,,,,,,,,,,,,,,
,,5b8eda7cdc2b880001b6f1de,2024-02-19_02h16.12.540,kallum_motion_pilot,2023.2.2,Win32,49.75124378,5b8eda7cdc2b880001b6f1de,65d2b6c8f2eece985d8e374c,65d2b9ded639e9a9380fdd3c,0.0432,0.0433,0,7,7,13,1,threefour,,,,,,,,,,,,,,,,,,,,,,,,,,,,,,,,,,,,,,,,,,,,,,,,,,,,,,,,,,,,,,,,,,,,,,,,,,,,,,,,,,,,,,,,,,,,,,,,,,,,,,,,,,,,,,,,,,,,,,,,,,,,,,,,,,,,,,,,,
,,5b8eda7cdc2b880001b6f1de,2024-02-19_02h16.12.540,kallum_motion_pilot,2023.2.2,Win32,49.75124378,5b8eda7cdc2b880001b6f1de,65d2b6c8f2eece985d8e374c,65d2b9ded639e9a9380fdd3c,0.0439,0.044,0,8,8,84,1,sevenfive,,,,,,,,,,,,,,,,,,,,,,,,,,,,,,,,,,,,,,,,,,,,,,,,,,,,,,,,,,,,,,,,,,,,,,,,,,,,,,,,,,,,,,,,,,,,,,,,,,,,,,,,,,,,,,,,,,,,,,,,,,,,,,,,,,,,,,,,,
,,5b8eda7cdc2b880001b6f1de,2024-02-19_02h16.12.540,kallum_motion_pilot,2023.2.2,Win32,49.75124378,5b8eda7cdc2b880001b6f1de,65d2b6c8f2eece985d8e374c,65d2b9ded639e9a9380fdd3c,0.0444,0.0444,0,9,9,130,1,sixfive,,,,,,,,,,,,,,,,,,,,,,,,,,,,,,,,,,,,,,,,,,,,,,,,,,,,,,,,,,,,,,,,,,,,,,,,,,,,,,,,,,,,,,,,,,,,,,,,,,,,,,,,,,,,,,,,,,,,,,,,,,,,,,,,,,,,,,,,,
,,5b8eda7cdc2b880001b6f1de,2024-02-19_02h16.12.540,kallum_motion_pilot,2023.2.2,Win32,49.75124378,5b8eda7cdc2b880001b6f1de,65d2b6c8f2eece985d8e374c,65d2b9ded639e9a9380fdd3c,0.0447,0.0447,0,10,10,6,1,fourtwo,,,,,,,,,,,,,,,,,,,,,,,,,,,,,,,,,,,,,,,,,,,,,,,,,,,,,,,,,,,,,,,,,,,,,,,,,,,,,,,,,,,,,,,,,,,,,,,,,,,,,,,,,,,,,,,,,,,,,,,,,,,,,,,,,,,,,,,,,
,,5b8eda7cdc2b880001b6f1de,2024-02-19_02h16.12.540,kallum_motion_pilot,2023.2.2,Win32,49.75124378,5b8eda7cdc2b880001b6f1de,65d2b6c8f2eece985d8e374c,65d2b9ded639e9a9380fdd3c,0.045,0.045,0,11,11,150,1,eightsix,,,,,,,,,,,,,,,,,,,,,,,,,,,,,,,,,,,,,,,,,,,,,,,,,,,,,,,,,,,,,,,,,,,,,,,,,,,,,,,,,,,,,,,,,,,,,,,,,,,,,,,,,,,,,,,,,,,,,,,,,,,,,,,,,,,,,,,,,
,,5b8eda7cdc2b880001b6f1de,2024-02-19_02h16.12.540,kallum_motion_pilot,2023.2.2,Win32,49.75124378,5b8eda7cdc2b880001b6f1de,65d2b6c8f2eece985d8e374c,65d2b9ded639e9a9380fdd3c,0.0452,0.0452,0,12,12,156,1,sevenfive,,,,,,,,,,,,,,,,,,,,,,,,,,,,,,,,,,,,,,,,,,,,,,,,,,,,,,,,,,,,,,,,,,,,,,,,,,,,,,,,,,,,,,,,,,,,,,,,,,,,,,,,,,,,,,,,,,,,,,,,,,,,,,,,,,,,,,,,,
,,5b8eda7cdc2b880001b6f1de,2024-02-19_02h16.12.540,kallum_motion_pilot,2023.2.2,Win32,49.75124378,5b8eda7cdc2b880001b6f1de,65d2b6c8f2eece985d8e374c,65d2b9ded639e9a9380fdd3c,0.0455,0.0456,0,13,13,142,1,eightsix,,,,,,,,,,,,,,,,,,,,,,,,,,,,,,,,,,,,,,,,,,,,,,,,,,,,,,,,,,,,,,,,,,,,,,,,,,,,,,,,,,,,,,,,,,,,,,,,,,,,,,,,,,,,,,,,,,,,,,,,,,,,,,,,,,,,,,,,,
,,5b8eda7cdc2b880001b6f1de,2024-02-19_02h16.12.540,kallum_motion_pilot,2023.2.2,Win32,49.75124378,5b8eda7cdc2b880001b6f1de,65d2b6c8f2eece985d8e374c,65d2b9ded639e9a9380fdd3c,0.0457,0.0458,0,14,14,87,1,eightseven,,,,,,,,,,,,,,,,,,,,,,,,,,,,,,,,,,,,,,,,,,,,,,,,,,,,,,,,,,,,,,,,,,,,,,,,,,,,,,,,,,,,,,,,,,,,,,,,,,,,,,,,,,,,,,,,,,,,,,,,,,,,,,,,,,,,,,,,,
,,5b8eda7cdc2b880001b6f1de,2024-02-19_02h16.12.540,kallum_motion_pilot,2023.2.2,Win32,49.75124378,5b8eda7cdc2b880001b6f1de,65d2b6c8f2eece985d8e374c,65d2b9ded639e9a9380fdd3c,0.0461,0.0461,0,15,15,28,1,threeone,,,,,,,,,,,,,,,,,,,,,,,,,,,,,,,,,,,,,,,,,,,,,,,,,,,,,,,,,,,,,,,,,,,,,,,,,,,,,,,,,,,,,,,,,,,,,,,,,,,,,,,,,,,,,,,,,,,,,,,,,,,,,,,,,,,,,,,,,
,,5b8eda7cdc2b880001b6f1de,2024-02-19_02h16.12.540,kallum_motion_pilot,2023.2.2,Win32,49.75124378,5b8eda7cdc2b880001b6f1de,65d2b6c8f2eece985d8e374c,65d2b9ded639e9a9380fdd3c,0.0463,0.0464,0,16,16,136,1,fivesix,,,,,,,,,,,,,,,,,,,,,,,,,,,,,,,,,,,,,,,,,,,,,,,,,,,,,,,,,,,,,,,,,,,,,,,,,,,,,,,,,,,,,,,,,,,,,,,,,,,,,,,,,,,,,,,,,,,,,,,,,,,,,,,,,,,,,,,,,
,,5b8eda7cdc2b880001b6f1de,2024-02-19_02h16.12.540,kallum_motion_pilot,2023.2.2,Win32,49.75124378,5b8eda7cdc2b880001b6f1de,65d2b6c8f2eece985d8e374c,65d2b9ded639e9a9380fdd3c,0.0466,0.0469,0,17,17,116,1,sevenfive,,,,,,,,,,,,,,,,,,,,,,,,,,,,,,,,,,,,,,,,,,,,,,,,,,,,,,,,,,,,,,,,,,,,,,,,,,,,,,,,,,,,,,,,,,,,,,,,,,,,,,,,,,,,,,,,,,,,,,,,,,,,,,,,,,,,,,,,,
,,5b8eda7cdc2b880001b6f1de,2024-02-19_02h16.12.540,kallum_motion_pilot,2023.2.2,Win32,49.75124378,5b8eda7cdc2b880001b6f1de,65d2b6c8f2eece985d8e374c,65d2b9ded639e9a9380fdd3c,0.0471,0.0472,0,18,18,14,1,fourtwo,,,,,,,,,,,,,,,,,,,,,,,,,,,,,,,,,,,,,,,,,,,,,,,,,,,,,,,,,,,,,,,,,,,,,,,,,,,,,,,,,,,,,,,,,,,,,,,,,,,,,,,,,,,,,,,,,,,,,,,,,,,,,,,,,,,,,,,,,
,,5b8eda7cdc2b880001b6f1de,2024-02-19_02h16.12.540,kallum_motion_pilot,2023.2.2,Win32,49.75124378,5b8eda7cdc2b880001b6f1de,65d2b6c8f2eece985d8e374c,65d2b9ded639e9a9380fdd3c,0.0475,0.0475,0,19,19,119,1,eightseven,,,,,,,,,,,,,,,,,,,,,,,,,,,,,,,,,,,,,,,,,,,,,,,,,,,,,,,,,,,,,,,,,,,,,,,,,,,,,,,,,,,,,,,,,,,,,,,,,,,,,,,,,,,,,,,,,,,,,,,,,,,,,,,,,,,,,,,,,
,,5b8eda7cdc2b880001b6f1de,2024-02-19_02h16.12.540,kallum_motion_pilot,2023.2.2,Win32,49.75124378,5b8eda7cdc2b880001b6f1de,65d2b6c8f2eece985d8e374c,65d2b9ded639e9a9380fdd3c,0.0478,0.0478,0,20,20,19,1,twofour,,,,,,,,,,,,,,,,,,,,,,,,,,,,,,,,,,,,,,,,,,,,,,,,,,,,,,,,,,,,,,,,,,,,,,,,,,,,,,,,,,,,,,,,,,,,,,,,,,,,,,,,,,,,,,,,,,,,,,,,,,,,,,,,,,,,,,,,,
,,5b8eda7cdc2b880001b6f1de,2024-02-19_02h16.12.540,kallum_motion_pilot,2023.2.2,Win32,49.75124378,5b8eda7cdc2b880001b6f1de,65d2b6c8f2eece985d8e374c,65d2b9ded639e9a9380fdd3c,0.0481,0.0481,0,21,21,8,1,onetwo,,,,,,,,,,,,,,,,,,,,,,,,,,,,,,,,,,,,,,,,,,,,,,,,,,,,,,,,,,,,,,,,,,,,,,,,,,,,,,,,,,,,,,,,,,,,,,,,,,,,,,,,,,,,,,,,,,,,,,,,,,,,,,,,,,,,,,,,,
,,5b8eda7cdc2b880001b6f1de,2024-02-19_02h16.12.540,kallum_motion_pilot,2023.2.2,Win32,49.75124378,5b8eda7cdc2b880001b6f1de,65d2b6c8f2eece985d8e374c,65d2b9ded639e9a9380fdd3c,0.0484,0.0484,0,22,22,124,1,sevenfive,,,,,,,,,,,,,,,,,,,,,,,,,,,,,,,,,,,,,,,,,,,,,,,,,,,,,,,,,,,,,,,,,,,,,,,,,,,,,,,,,,,,,,,,,,,,,,,,,,,,,,,,,,,,,,,,,,,,,,,,,,,,,,,,,,,,,,,,,
,,5b8eda7cdc2b880001b6f1de,2024-02-19_02h16.12.540,kallum_motion_pilot,2023.2.2,Win32,49.75124378,5b8eda7cdc2b880001b6f1de,65d2b6c8f2eece985d8e374c,65d2b9ded639e9a9380fdd3c,0.0487,0.0488,0,23,23,37,1,threefour,,,,,,,,,,,,,,,,,,,,,,,,,,,,,,,,,,,,,,,,,,,,,,,,,,,,,,,,,,,,,,,,,,,,,,,,,,,,,,,,,,,,,,,,,,,,,,,,,,,,,,,,,,,,,,,,,,,,,,,,,,,,,,,,,,,,,,,,,
,,5b8eda7cdc2b880001b6f1de,2024-02-19_02h16.12.540,kallum_motion_pilot,2023.2.2,Win32,49.75124378,5b8eda7cdc2b880001b6f1de,65d2b6c8f2eece985d8e374c,65d2b9ded639e9a9380fdd3c,0.0491,0.052,0,24,24,29,1,threefour,,,,,,,,,,,,,,,,,,,,,,,,,,,,,,,,,,,,,,,,,,,,,,,,,,,,,,,,,,,,,,,,,,,,,,,,,,,,,,,,,,,,,,,,,,,,,,,,,,,,,,,,,,,,,,,,,,,,,,,,,,,,,,,,,,,,,,,,,
,,5b8eda7cdc2b880001b6f1de,2024-02-19_02h16.12.540,kallum_motion_pilot,2023.2.2,Win32,49.75124378,5b8eda7cdc2b880001b6f1de,65d2b6c8f2eece985d8e374c,65d2b9ded639e9a9380fdd3c,0.0523,0.0524,0,25,25,96,1,fivesix,,,,,,,,,,,,,,,,,,,,,,,,,,,,,,,,,,,,,,,,,,,,,,,,,,,,,,,,,,,,,,,,,,,,,,,,,,,,,,,,,,,,,,,,,,,,,,,,,,,,,,,,,,,,,,,,,,,,,,,,,,,,,,,,,,,,,,,,,
,,5b8eda7cdc2b880001b6f1de,2024-02-19_02h16.12.540,kallum_motion_pilot,2023.2.2,Win32,49.75124378,5b8eda7cdc2b880001b6f1de,65d2b6c8f2eece985d8e374c,65d2b9ded639e9a9380fdd3c,0.0526,0.0527,0,26,26,93,1,seveneight,,,,,,,,,,,,,,,,,,,,,,,,,,,,,,,,,,,,,,,,,,,,,,,,,,,,,,,,,,,,,,,,,,,,,,,,,,,,,,,,,,,,,,,,,,,,,,,,,,,,,,,,,,,,,,,,,,,,,,,,,,,,,,,,,,,,,,,,,
,,5b8eda7cdc2b880001b6f1de,2024-02-19_02h16.12.540,kallum_motion_pilot,2023.2.2,Win32,49.75124378,5b8eda7cdc2b880001b6f1de,65d2b6c8f2eece985d8e374c,65d2b9ded639e9a9380fdd3c,0.053,0.053,0,27,27,67,1,twofour,,,,,,,,,,,,,,,,,,,,,,,,,,,,,,,,,,,,,,,,,,,,,,,,,,,,,,,,,,,,,,,,,,,,,,,,,,,,,,,,,,,,,,,,,,,,,,,,,,,,,,,,,,,,,,,,,,,,,,,,,,,,,,,,,,,,,,,,,
,,5b8eda7cdc2b880001b6f1de,2024-02-19_02h16.12.540,kallum_motion_pilot,2023.2.2,Win32,49.75124378,5b8eda7cdc2b880001b6f1de,65d2b6c8f2eece985d8e374c,65d2b9ded639e9a9380fdd3c,0.0532,0.0533,0,28,28,125,1,seveneight,,,,,,,,,,,,,,,,,,,,,,,,,,,,,,,,,,,,,,,,,,,,,,,,,,,,,,,,,,,,,,,,,,,,,,,,,,,,,,,,,,,,,,,,,,,,,,,,,,,,,,,,,,,,,,,,,,,,,,,,,,,,,,,,,,,,,,,,,
,,5b8eda7cdc2b880001b6f1de,2024-02-19_02h16.12.540,kallum_motion_pilot,2023.2.2,Win32,49.75124378,5b8eda7cdc2b880001b6f1de,65d2b6c8f2eece985d8e374c,65d2b9ded639e9a9380fdd3c,0.0535,0.0536,0,29,29,81,1,fiveseven,,,,,,,,,,,,,,,,,,,,,,,,,,,,,,,,,,,,,,,,,,,,,,,,,,,,,,,,,,,,,,,,,,,,,,,,,,,,,,,,,,,,,,,,,,,,,,,,,,,,,,,,,,,,,,,,,,,,,,,,,,,,,,,,,,,,,,,,,
,,5b8eda7cdc2b880001b6f1de,2024-02-19_02h16.12.540,kallum_motion_pilot,2023.2.2,Win32,49.75124378,5b8eda7cdc2b880001b6f1de,65d2b6c8f2eece985d8e374c,65d2b9ded639e9a9380fdd3c,0.0538,0.0538,0,30,30,33,1,onethree,,,,,,,,,,,,,,,,,,,,,,,,,,,,,,,,,,,,,,,,,,,,,,,,,,,,,,,,,,,,,,,,,,,,,,,,,,,,,,,,,,,,,,,,,,,,,,,,,,,,,,,,,,,,,,,,,,,,,,,,,,,,,,,,,,,,,,,,,
,,5b8eda7cdc2b880001b6f1de,2024-02-19_02h16.12.540,kallum_motion_pilot,2023.2.2,Win32,49.75124378,5b8eda7cdc2b880001b6f1de,65d2b6c8f2eece985d8e374c,65d2b9ded639e9a9380fdd3c,0.054,0.0541,0,31,31,104,1,fivesix,,,,,,,,,,,,,,,,,,,,,,,,,,,,,,,,,,,,,,,,,,,,,,,,,,,,,,,,,,,,,,,,,,,,,,,,,,,,,,,,,,,,,,,,,,,,,,,,,,,,,,,,,,,,,,,,,,,,,,,,,,,,,,,,,,,,,,,,,
,,5b8eda7cdc2b880001b6f1de,2024-02-19_02h16.12.540,kallum_motion_pilot,2023.2.2,Win32,49.75124378,5b8eda7cdc2b880001b6f1de,65d2b6c8f2eece985d8e374c,65d2b9ded639e9a9380fdd3c,0.0543,0.0543,0,32,32,144,1,fivesix,,,,,,,,,,,,,,,,,,,,,,,,,,,,,,,,,,,,,,,,,,,,,,,,,,,,,,,,,,,,,,,,,,,,,,,,,,,,,,,,,,,,,,,,,,,,,,,,,,,,,,,,,,,,,,,,,,,,,,,,,,,,,,,,,,,,,,,,,
,,5b8eda7cdc2b880001b6f1de,2024-02-19_02h16.12.540,kallum_motion_pilot,2023.2.2,Win32,49.75124378,5b8eda7cdc2b880001b6f1de,65d2b6c8f2eece985d8e374c,65d2b9ded639e9a9380fdd3c,0.0545,0.0546,0,33,33,121,1,fiveseven,,,,,,,,,,,,,,,,,,,,,,,,,,,,,,,,,,,,,,,,,,,,,,,,,,,,,,,,,,,,,,,,,,,,,,,,,,,,,,,,,,,,,,,,,,,,,,,,,,,,,,,,,,,,,,,,,,,,,,,,,,,,,,,,,,,,,,,,,
,,5b8eda7cdc2b880001b6f1de,2024-02-19_02h16.12.540,kallum_motion_pilot,2023.2.2,Win32,49.75124378,5b8eda7cdc2b880001b6f1de,65d2b6c8f2eece985d8e374c,65d2b9ded639e9a9380fdd3c,0.0548,0.0549,0,34,34,4,1,threeone,,,,,,,,,,,,,,,,,,,,,,,,,,,,,,,,,,,,,,,,,,,,,,,,,,,,,,,,,,,,,,,,,,,,,,,,,,,,,,,,,,,,,,,,,,,,,,,,,,,,,,,,,,,,,,,,,,,,,,,,,,,,,,,,,,,,,,,,,
,,5b8eda7cdc2b880001b6f1de,2024-02-19_02h16.12.540,kallum_motion_pilot,2023.2.2,Win32,49.75124378,5b8eda7cdc2b880001b6f1de,65d2b6c8f2eece985d8e374c,65d2b9ded639e9a9380fdd3c,0.0551,0.0552,0,35,35,26,1,twoone,,,,,,,,,,,,,,,,,,,,,,,,,,,,,,,,,,,,,,,,,,,,,,,,,,,,,,,,,,,,,,,,,,,,,,,,,,,,,,,,,,,,,,,,,,,,,,,,,,,,,,,,,,,,,,,,,,,,,,,,,,,,,,,,,,,,,,,,,
,,5b8eda7cdc2b880001b6f1de,2024-02-19_02h16.12.540,kallum_motion_pilot,2023.2.2,Win32,49.75124378,5b8eda7cdc2b880001b6f1de,65d2b6c8f2eece985d8e374c,65d2b9ded639e9a9380fdd3c,0.0555,0.0556,0,36,36,123,1,sixeight,,,,,,,,,,,,,,,,,,,,,,,,,,,,,,,,,,,,,,,,,,,,,,,,,,,,,,,,,,,,,,,,,,,,,,,,,,,,,,,,,,,,,,,,,,,,,,,,,,,,,,,,,,,,,,,,,,,,,,,,,,,,,,,,,,,,,,,,,
,,5b8eda7cdc2b880001b6f1de,2024-02-19_02h16.12.540,kallum_motion_pilot,2023.2.2,Win32,49.75124378,5b8eda7cdc2b880001b6f1de,65d2b6c8f2eece985d8e374c,65d2b9ded639e9a9380fdd3c,0.0559,0.0563,0,37,37,132,1,sevenfive,,,,,,,,,,,,,,,,,,,,,,,,,,,,,,,,,,,,,,,,,,,,,,,,,,,,,,,,,,,,,,,,,,,,,,,,,,,,,,,,,,,,,,,,,,,,,,,,,,,,,,,,,,,,,,,,,,,,,,,,,,,,,,,,,,,,,,,,,
,,5b8eda7cdc2b880001b6f1de,2024-02-19_02h16.12.540,kallum_motion_pilot,2023.2.2,Win32,49.75124378,5b8eda7cdc2b880001b6f1de,65d2b6c8f2eece985d8e374c,65d2b9ded639e9a9380fdd3c,0.0567,0.0568,0,38,38,22,1,fourtwo,,,,,,,,,,,,,,,,,,,,,,,,,,,,,,,,,,,,,,,,,,,,,,,,,,,,,,,,,,,,,,,,,,,,,,,,,,,,,,,,,,,,,,,,,,,,,,,,,,,,,,,,,,,,,,,,,,,,,,,,,,,,,,,,,,,,,,,,,
,,5b8eda7cdc2b880001b6f1de,2024-02-19_02h16.12.540,kallum_motion_pilot,2023.2.2,Win32,49.75124378,5b8eda7cdc2b880001b6f1de,65d2b6c8f2eece985d8e374c,65d2b9ded639e9a9380fdd3c,0.0573,0.0576,0,39,39,99,1,sixeight,,,,,,,,,,,,,,,,,,,,,,,,,,,,,,,,,,,,,,,,,,,,,,,,,,,,,,,,,,,,,,,,,,,,,,,,,,,,,,,,,,,,,,,,,,,,,,,,,,,,,,,,,,,,,,,,,,,,,,,,,,,,,,,,,,,,,,,,,
,,5b8eda7cdc2b880001b6f1de,2024-02-19_02h16.12.540,kallum_motion_pilot,2023.2.2,Win32,49.75124378,5b8eda7cdc2b880001b6f1de,65d2b6c8f2eece985d8e374c,65d2b9ded639e9a9380fdd3c,0.058,0.0581,0,40,40,60,1,threeone,,,,,,,,,,,,,,,,,,,,,,,,,,,,,,,,,,,,,,,,,,,,,,,,,,,,,,,,,,,,,,,,,,,,,,,,,,,,,,,,,,,,,,,,,,,,,,,,,,,,,,,,,,,,,,,,,,,,,,,,,,,,,,,,,,,,,,,,,
,,5b8eda7cdc2b880001b6f1de,2024-02-19_02h16.12.540,kallum_motion_pilot,2023.2.2,Win32,49.75124378,5b8eda7cdc2b880001b6f1de,65d2b6c8f2eece985d8e374c,65d2b9ded639e9a9380fdd3c,0.0584,0.0585,0,41,41,91,1,sixeight,,,,,,,,,,,,,,,,,,,,,,,,,,,,,,,,,,,,,,,,,,,,,,,,,,,,,,,,,,,,,,,,,,,,,,,,,,,,,,,,,,,,,,,,,,,,,,,,,,,,,,,,,,,,,,,,,,,,,,,,,,,,,,,,,,,,,,,,,
,,5b8eda7cdc2b880001b6f1de,2024-02-19_02h16.12.540,kallum_motion_pilot,2023.2.2,Win32,49.75124378,5b8eda7cdc2b880001b6f1de,65d2b6c8f2eece985d8e374c,65d2b9ded639e9a9380fdd3c,0.0587,0.0588,0,42,42,3,1,twofour,,,,,,,,,,,,,,,,,,,,,,,,,,,,,,,,,,,,,,,,,,,,,,,,,,,,,,,,,,,,,,,,,,,,,,,,,,,,,,,,,,,,,,,,,,,,,,,,,,,,,,,,,,,,,,,,,,,,,,,,,,,,,,,,,,,,,,,,,
,,5b8eda7cdc2b880001b6f1de,2024-02-19_02h16.12.540,kallum_motion_pilot,2023.2.2,Win32,49.75124378,5b8eda7cdc2b880001b6f1de,65d2b6c8f2eece985d8e374c,65d2b9ded639e9a9380fdd3c,0.059,0.0591,0,43,43,129,1,fiveseven,,,,,,,,,,,,,,,,,,,,,,,,,,,,,,,,,,,,,,,,,,,,,,,,,,,,,,,,,,,,,,,,,,,,,,,,,,,,,,,,,,,,,,,,,,,,,,,,,,,,,,,,,,,,,,,,,,,,,,,,,,,,,,,,,,,,,,,,,
,,5b8eda7cdc2b880001b6f1de,2024-02-19_02h16.12.540,kallum_motion_pilot,2023.2.2,Win32,49.75124378,5b8eda7cdc2b880001b6f1de,65d2b6c8f2eece985d8e374c,65d2b9ded639e9a9380fdd3c,0.0594,0.0594,0,44,44,21,1,threefour,,,,,,,,,,,,,,,,,,,,,,,,,,,,,,,,,,,,,,,,,,,,,,,,,,,,,,,,,,,,,,,,,,,,,,,,,,,,,,,,,,,,,,,,,,,,,,,,,,,,,,,,,,,,,,,,,,,,,,,,,,,,,,,,,,,,,,,,,
,,5b8eda7cdc2b880001b6f1de,2024-02-19_02h16.12.540,kallum_motion_pilot,2023.2.2,Win32,49.75124378,5b8eda7cdc2b880001b6f1de,65d2b6c8f2eece985d8e374c,65d2b9ded639e9a9380fdd3c,0.0603,0.0605,0,45,45,57,1,onethree,,,,,,,,,,,,,,,,,,,,,,,,,,,,,,,,,,,,,,,,,,,,,,,,,,,,,,,,,,,,,,,,,,,,,,,,,,,,,,,,,,,,,,,,,,,,,,,,,,,,,,,,,,,,,,,,,,,,,,,,,,,,,,,,,,,,,,,,,
,,5b8eda7cdc2b880001b6f1de,2024-02-19_02h16.12.540,kallum_motion_pilot,2023.2.2,Win32,49.75124378,5b8eda7cdc2b880001b6f1de,65d2b6c8f2eece985d8e374c,65d2b9ded639e9a9380fdd3c,0.0609,0.0611,0,46,46,72,1,onetwo,,,,,,,,,,,,,,,,,,,,,,,,,,,,,,,,,,,,,,,,,,,,,,,,,,,,,,,,,,,,,,,,,,,,,,,,,,,,,,,,,,,,,,,,,,,,,,,,,,,,,,,,,,,,,,,,,,,,,,,,,,,,,,,,,,,,,,,,,
,,5b8eda7cdc2b880001b6f1de,2024-02-19_02h16.12.540,kallum_motion_pilot,2023.2.2,Win32,49.75124378,5b8eda7cdc2b880001b6f1de,65d2b6c8f2eece985d8e374c,65d2b9ded639e9a9380fdd3c,0.0614,0.0614,0,47,47,11,1,twofour,,,,,,,,,,,,,,,,,,,,,,,,,,,,,,,,,,,,,,,,,,,,,,,,,,,,,,,,,,,,,,,,,,,,,,,,,,,,,,,,,,,,,,,,,,,,,,,,,,,,,,,,,,,,,,,,,,,,,,,,,,,,,,,,,,,,,,,,,
,,5b8eda7cdc2b880001b6f1de,2024-02-19_02h16.12.540,kallum_motion_pilot,2023.2.2,Win32,49.75124378,5b8eda7cdc2b880001b6f1de,65d2b6c8f2eece985d8e374c,65d2b9ded639e9a9380fdd3c,0.0617,0.0618,0,48,48,23,1,fourthree,,,,,,,,,,,,,,,,,,,,,,,,,,,,,,,,,,,,,,,,,,,,,,,,,,,,,,,,,,,,,,,,,,,,,,,,,,,,,,,,,,,,,,,,,,,,,,,,,,,,,,,,,,,,,,,,,,,,,,,,,,,,,,,,,,,,,,,,,
,,5b8eda7cdc2b880001b6f1de,2024-02-19_02h16.12.540,kallum_motion_pilot,2023.2.2,Win32,49.75124378,5b8eda7cdc2b880001b6f1de,65d2b6c8f2eece985d8e374c,65d2b9ded639e9a9380fdd3c,0.062,0.0621,0,49,49,70,1,fourtwo,,,,,,,,,,,,,,,,,,,,,,,,,,,,,,,,,,,,,,,,,,,,,,,,,,,,,,,,,,,,,,,,,,,,,,,,,,,,,,,,,,,,,,,,,,,,,,,,,,,,,,,,,,,,,,,,,,,,,,,,,,,,,,,,,,,,,,,,,
,,5b8eda7cdc2b880001b6f1de,2024-02-19_02h16.12.540,kallum_motion_pilot,2023.2.2,Win32,49.75124378,5b8eda7cdc2b880001b6f1de,65d2b6c8f2eece985d8e374c,65d2b9ded639e9a9380fdd3c,0.0623,0.0624,0,50,50,161,1,fiveseven,,,,,,,,,,,,,,,,,,,,,,,,,,,,,,,,,,,,,,,,,,,,,,,,,,,,,,,,,,,,,,,,,,,,,,,,,,,,,,,,,,,,,,,,,,,,,,,,,,,,,,,,,,,,,,,,,,,,,,,,,,,,,,,,,,,,,,,,,
,,5b8eda7cdc2b880001b6f1de,2024-02-19_02h16.12.540,kallum_motion_pilot,2023.2.2,Win32,49.75124378,5b8eda7cdc2b880001b6f1de,65d2b6c8f2eece985d8e374c,65d2b9ded639e9a9380fdd3c,0.0627,0.0627,0,51,51,15,1,fourthree,,,,,,,,,,,,,,,,,,,,,,,,,,,,,,,,,,,,,,,,,,,,,,,,,,,,,,,,,,,,,,,,,,,,,,,,,,,,,,,,,,,,,,,,,,,,,,,,,,,,,,,,,,,,,,,,,,,,,,,,,,,,,,,,,,,,,,,,,
,,5b8eda7cdc2b880001b6f1de,2024-02-19_02h16.12.540,kallum_motion_pilot,2023.2.2,Win32,49.75124378,5b8eda7cdc2b880001b6f1de,65d2b6c8f2eece985d8e374c,65d2b9ded639e9a9380fdd3c,0.063,0.0631,0,52,52,159,1,eightseven,,,,,,,,,,,,,,,,,,,,,,,,,,,,,,,,,,,,,,,,,,,,,,,,,,,,,,,,,,,,,,,,,,,,,,,,,,,,,,,,,,,,,,,,,,,,,,,,,,,,,,,,,,,,,,,,,,,,,,,,,,,,,,,,,,,,,,,,,
,,5b8eda7cdc2b880001b6f1de,2024-02-19_02h16.12.540,kallum_motion_pilot,2023.2.2,Win32,49.75124378,5b8eda7cdc2b880001b6f1de,65d2b6c8f2eece985d8e374c,65d2b9ded639e9a9380fdd3c,0.0633,0.0633,0,53,53,152,1,fivesix,,,,,,,,,,,,,,,,,,,,,,,,,,,,,,,,,,,,,,,,,,,,,,,,,,,,,,,,,,,,,,,,,,,,,,,,,,,,,,,,,,,,,,,,,,,,,,,,,,,,,,,,,,,,,,,,,,,,,,,,,,,,,,,,,,,,,,,,,
,,5b8eda7cdc2b880001b6f1de,2024-02-19_02h16.12.540,kallum_motion_pilot,2023.2.2,Win32,49.75124378,5b8eda7cdc2b880001b6f1de,65d2b6c8f2eece985d8e374c,65d2b9ded639e9a9380fdd3c,0.0636,0.0637,0,54,54,56,1,onetwo,,,,,,,,,,,,,,,,,,,,,,,,,,,,,,,,,,,,,,,,,,,,,,,,,,,,,,,,,,,,,,,,,,,,,,,,,,,,,,,,,,,,,,,,,,,,,,,,,,,,,,,,,,,,,,,,,,,,,,,,,,,,,,,,,,,,,,,,,
,,5b8eda7cdc2b880001b6f1de,2024-02-19_02h16.12.540,kallum_motion_pilot,2023.2.2,Win32,49.75124378,5b8eda7cdc2b880001b6f1de,65d2b6c8f2eece985d8e374c,65d2b9ded639e9a9380fdd3c,0.064,0.0641,0,55,55,113,1,fiveseven,,,,,,,,,,,,,,,,,,,,,,,,,,,,,,,,,,,,,,,,,,,,,,,,,,,,,,,,,,,,,,,,,,,,,,,,,,,,,,,,,,,,,,,,,,,,,,,,,,,,,,,,,,,,,,,,,,,,,,,,,,,,,,,,,,,,,,,,,
,,5b8eda7cdc2b880001b6f1de,2024-02-19_02h16.12.540,kallum_motion_pilot,2023.2.2,Win32,49.75124378,5b8eda7cdc2b880001b6f1de,65d2b6c8f2eece985d8e374c,65d2b9ded639e9a9380fdd3c,0.0643,0.0644,0,56,56,32,1,onetwo,,,,,,,,,,,,,,,,,,,,,,,,,,,,,,,,,,,,,,,,,,,,,,,,,,,,,,,,,,,,,,,,,,,,,,,,,,,,,,,,,,,,,,,,,,,,,,,,,,,,,,,,,,,,,,,,,,,,,,,,,,,,,,,,,,,,,,,,,
,,5b8eda7cdc2b880001b6f1de,2024-02-19_02h16.12.540,kallum_motion_pilot,2023.2.2,Win32,49.75124378,5b8eda7cdc2b880001b6f1de,65d2b6c8f2eece985d8e374c,65d2b9ded639e9a9380fdd3c,0.0647,0.0647,0,57,57,7,1,fourthree,,,,,,,,,,,,,,,,,,,,,,,,,,,,,,,,,,,,,,,,,,,,,,,,,,,,,,,,,,,,,,,,,,,,,,,,,,,,,,,,,,,,,,,,,,,,,,,,,,,,,,,,,,,,,,,,,,,,,,,,,,,,,,,,,,,,,,,,,
,,5b8eda7cdc2b880001b6f1de,2024-02-19_02h16.12.540,kallum_motion_pilot,2023.2.2,Win32,49.75124378,5b8eda7cdc2b880001b6f1de,65d2b6c8f2eece985d8e374c,65d2b9ded639e9a9380fdd3c,0.0649,0.0651,0,58,58,102,1,eightsix,,,,,,,,,,,,,,,,,,,,,,,,,,,,,,,,,,,,,,,,,,,,,,,,,,,,,,,,,,,,,,,,,,,,,,,,,,,,,,,,,,,,,,,,,,,,,,,,,,,,,,,,,,,,,,,,,,,,,,,,,,,,,,,,,,,,,,,,,
,,5b8eda7cdc2b880001b6f1de,2024-02-19_02h16.12.540,kallum_motion_pilot,2023.2.2,Win32,49.75124378,5b8eda7cdc2b880001b6f1de,65d2b6c8f2eece985d8e374c,65d2b9ded639e9a9380fdd3c,0.0652,0.0654,0,59,59,39,1,fourthree,,,,,,,,,,,,,,,,,,,,,,,,,,,,,,,,,,,,,,,,,,,,,,,,,,,,,,,,,,,,,,,,,,,,,,,,,,,,,,,,,,,,,,,,,,,,,,,,,,,,,,,,,,,,,,,,,,,,,,,,,,,,,,,,,,,,,,,,,
,,5b8eda7cdc2b880001b6f1de,2024-02-19_02h16.12.540,kallum_motion_pilot,2023.2.2,Win32,49.75124378,5b8eda7cdc2b880001b6f1de,65d2b6c8f2eece985d8e374c,65d2b9ded639e9a9380fdd3c,0.0656,0.0657,0,60,60,151,1,eightseven,,,,,,,,,,,,,,,,,,,,,,,,,,,,,,,,,,,,,,,,,,,,,,,,,,,,,,,,,,,,,,,,,,,,,,,,,,,,,,,,,,,,,,,,,,,,,,,,,,,,,,,,,,,,,,,,,,,,,,,,,,,,,,,,,,,,,,,,,
,,5b8eda7cdc2b880001b6f1de,2024-02-19_02h16.12.540,kallum_motion_pilot,2023.2.2,Win32,49.75124378,5b8eda7cdc2b880001b6f1de,65d2b6c8f2eece985d8e374c,65d2b9ded639e9a9380fdd3c,0.0659,0.0661,0,61,61,45,1,threefour,,,,,,,,,,,,,,,,,,,,,,,,,,,,,,,,,,,,,,,,,,,,,,,,,,,,,,,,,,,,,,,,,,,,,,,,,,,,,,,,,,,,,,,,,,,,,,,,,,,,,,,,,,,,,,,,,,,,,,,,,,,,,,,,,,,,,,,,,
,,5b8eda7cdc2b880001b6f1de,2024-02-19_02h16.12.540,kallum_motion_pilot,2023.2.2,Win32,49.75124378,5b8eda7cdc2b880001b6f1de,65d2b6c8f2eece985d8e374c,65d2b9ded639e9a9380fdd3c,0.0663,0.0665,0,62,62,42,1,twoone,,,,,,,,,,,,,,,,,,,,,,,,,,,,,,,,,,,,,,,,,,,,,,,,,,,,,,,,,,,,,,,,,,,,,,,,,,,,,,,,,,,,,,,,,,,,,,,,,,,,,,,,,,,,,,,,,,,,,,,,,,,,,,,,,,,,,,,,,
,,5b8eda7cdc2b880001b6f1de,2024-02-19_02h16.12.540,kallum_motion_pilot,2023.2.2,Win32,49.75124378,5b8eda7cdc2b880001b6f1de,65d2b6c8f2eece985d8e374c,65d2b9ded639e9a9380fdd3c,0.0671,0.0672,0,63,63,105,1,fiveseven,,,,,,,,,,,,,,,,,,,,,,,,,,,,,,,,,,,,,,,,,,,,,,,,,,,,,,,,,,,,,,,,,,,,,,,,,,,,,,,,,,,,,,,,,,,,,,,,,,,,,,,,,,,,,,,,,,,,,,,,,,,,,,,,,,,,,,,,,
,,5b8eda7cdc2b880001b6f1de,2024-02-19_02h16.12.540,kallum_motion_pilot,2023.2.2,Win32,49.75124378,5b8eda7cdc2b880001b6f1de,65d2b6c8f2eece985d8e374c,65d2b9ded639e9a9380fdd3c,0.0675,0.0677,0,64,64,9,1,onethree,,,,,,,,,,,,,,,,,,,,,,,,,,,,,,,,,,,,,,,,,,,,,,,,,,,,,,,,,,,,,,,,,,,,,,,,,,,,,,,,,,,,,,,,,,,,,,,,,,,,,,,,,,,,,,,,,,,,,,,,,,,,,,,,,,,,,,,,,
,,5b8eda7cdc2b880001b6f1de,2024-02-19_02h16.12.540,kallum_motion_pilot,2023.2.2,Win32,49.75124378,5b8eda7cdc2b880001b6f1de,65d2b6c8f2eece985d8e374c,65d2b9ded639e9a9380fdd3c,0.0679,0.068,0,65,65,112,1,fivesix,,,,,,,,,,,,,,,,,,,,,,,,,,,,,,,,,,,,,,,,,,,,,,,,,,,,,,,,,,,,,,,,,,,,,,,,,,,,,,,,,,,,,,,,,,,,,,,,,,,,,,,,,,,,,,,,,,,,,,,,,,,,,,,,,,,,,,,,,
,,5b8eda7cdc2b880001b6f1de,2024-02-19_02h16.12.540,kallum_motion_pilot,2023.2.2,Win32,49.75124378,5b8eda7cdc2b880001b6f1de,65d2b6c8f2eece985d8e374c,65d2b9ded639e9a9380fdd3c,0.0682,0.0683,0,66,66,95,1,eightseven,,,,,,,,,,,,,,,,,,,,,,,,,,,,,,,,,,,,,,,,,,,,,,,,,,,,,,,,,,,,,,,,,,,,,,,,,,,,,,,,,,,,,,,,,,,,,,,,,,,,,,,,,,,,,,,,,,,,,,,,,,,,,,,,,,,,,,,,,
,,5b8eda7cdc2b880001b6f1de,2024-02-19_02h16.12.540,kallum_motion_pilot,2023.2.2,Win32,49.75124378,5b8eda7cdc2b880001b6f1de,65d2b6c8f2eece985d8e374c,65d2b9ded639e9a9380fdd3c,0.0686,0.0687,0,67,67,106,1,sixfive,,,,,,,,,,,,,,,,,,,,,,,,,,,,,,,,,,,,,,,,,,,,,,,,,,,,,,,,,,,,,,,,,,,,,,,,,,,,,,,,,,,,,,,,,,,,,,,,,,,,,,,,,,,,,,,,,,,,,,,,,,,,,,,,,,,,,,,,,
,,5b8eda7cdc2b880001b6f1de,2024-02-19_02h16.12.540,kallum_motion_pilot,2023.2.2,Win32,49.75124378,5b8eda7cdc2b880001b6f1de,65d2b6c8f2eece985d8e374c,65d2b9ded639e9a9380fdd3c,0.069,0.0691,0,68,68,139,1,sixeight,,,,,,,,,,,,,,,,,,,,,,,,,,,,,,,,,,,,,,,,,,,,,,,,,,,,,,,,,,,,,,,,,,,,,,,,,,,,,,,,,,,,,,,,,,,,,,,,,,,,,,,,,,,,,,,,,,,,,,,,,,,,,,,,,,,,,,,,,
,,5b8eda7cdc2b880001b6f1de,2024-02-19_02h16.12.540,kallum_motion_pilot,2023.2.2,Win32,49.75124378,5b8eda7cdc2b880001b6f1de,65d2b6c8f2eece985d8e374c,65d2b9ded639e9a9380fdd3c,0.0694,0.0695,0,69,69,83,1,sixeight,,,,,,,,,,,,,,,,,,,,,,,,,,,,,,,,,,,,,,,,,,,,,,,,,,,,,,,,,,,,,,,,,,,,,,,,,,,,,,,,,,,,,,,,,,,,,,,,,,,,,,,,,,,,,,,,,,,,,,,,,,,,,,,,,,,,,,,,,
,,5b8eda7cdc2b880001b6f1de,2024-02-19_02h16.12.540,kallum_motion_pilot,2023.2.2,Win32,49.75124378,5b8eda7cdc2b880001b6f1de,65d2b6c8f2eece985d8e374c,65d2b9ded639e9a9380fdd3c,0.0697,0.0699,0,70,70,75,1,twofour,,,,,,,,,,,,,,,,,,,,,,,,,,,,,,,,,,,,,,,,,,,,,,,,,,,,,,,,,,,,,,,,,,,,,,,,,,,,,,,,,,,,,,,,,,,,,,,,,,,,,,,,,,,,,,,,,,,,,,,,,,,,,,,,,,,,,,,,,
,,5b8eda7cdc2b880001b6f1de,2024-02-19_02h16.12.540,kallum_motion_pilot,2023.2.2,Win32,49.75124378,5b8eda7cdc2b880001b6f1de,65d2b6c8f2eece985d8e374c,65d2b9ded639e9a9380fdd3c,0.0701,0.0702,0,71,71,147,1,sixeight,,,,,,,,,,,,,,,,,,,,,,,,,,,,,,,,,,,,,,,,,,,,,,,,,,,,,,,,,,,,,,,,,,,,,,,,,,,,,,,,,,,,,,,,,,,,,,,,,,,,,,,,,,,,,,,,,,,,,,,,,,,,,,,,,,,,,,,,,
,,5b8eda7cdc2b880001b6f1de,2024-02-19_02h16.12.540,kallum_motion_pilot,2023.2.2,Win32,49.75124378,5b8eda7cdc2b880001b6f1de,65d2b6c8f2eece985d8e374c,65d2b9ded639e9a9380fdd3c,0.0705,0.0707,0,72,72,34,1,twoone,,,,,,,,,,,,,,,,,,,,,,,,,,,,,,,,,,,,,,,,,,,,,,,,,,,,,,,,,,,,,,,,,,,,,,,,,,,,,,,,,,,,,,,,,,,,,,,,,,,,,,,,,,,,,,,,,,,,,,,,,,,,,,,,,,,,,,,,,
,,5b8eda7cdc2b880001b6f1de,2024-02-19_02h16.12.540,kallum_motion_pilot,2023.2.2,Win32,49.75124378,5b8eda7cdc2b880001b6f1de,65d2b6c8f2eece985d8e374c,65d2b9ded639e9a9380fdd3c,0.0709,0.071,0,73,73,41,1,onethree,,,,,,,,,,,,,,,,,,,,,,,,,,,,,,,,,,,,,,,,,,,,,,,,,,,,,,,,,,,,,,,,,,,,,,,,,,,,,,,,,,,,,,,,,,,,,,,,,,,,,,,,,,,,,,,,,,,,,,,,,,,,,,,,,,,,,,,,,
,,5b8eda7cdc2b880001b6f1de,2024-02-19_02h16.12.540,kallum_motion_pilot,2023.2.2,Win32,49.75124378,5b8eda7cdc2b880001b6f1de,65d2b6c8f2eece985d8e374c,65d2b9ded639e9a9380fdd3c,0.0713,0.0714,0,74,74,54,1,fourtwo,,,,,,,,,,,,,,,,,,,,,,,,,,,,,,,,,,,,,,,,,,,,,,,,,,,,,,,,,,,,,,,,,,,,,,,,,,,,,,,,,,,,,,,,,,,,,,,,,,,,,,,,,,,,,,,,,,,,,,,,,,,,,,,,,,,,,,,,,
,,5b8eda7cdc2b880001b6f1de,2024-02-19_02h16.12.540,kallum_motion_pilot,2023.2.2,Win32,49.75124378,5b8eda7cdc2b880001b6f1de,65d2b6c8f2eece985d8e374c,65d2b9ded639e9a9380fdd3c,0.0716,0.0718,0,75,75,0,1,onetwo,,,,,,,,,,,,,,,,,,,,,,,,,,,,,,,,,,,,,,,,,,,,,,,,,,,,,,,,,,,,,,,,,,,,,,,,,,,,,,,,,,,,,,,,,,,,,,,,,,,,,,,,,,,,,,,,,,,,,,,,,,,,,,,,,,,,,,,,,
,,5b8eda7cdc2b880001b6f1de,2024-02-19_02h16.12.540,kallum_motion_pilot,2023.2.2,Win32,49.75124378,5b8eda7cdc2b880001b6f1de,65d2b6c8f2eece985d8e374c,65d2b9ded639e9a9380fdd3c,0.072,0.0721,0,76,76,35,1,twofour,,,,,,,,,,,,,,,,,,,,,,,,,,,,,,,,,,,,,,,,,,,,,,,,,,,,,,,,,,,,,,,,,,,,,,,,,,,,,,,,,,,,,,,,,,,,,,,,,,,,,,,,,,,,,,,,,,,,,,,,,,,,,,,,,,,,,,,,,
,,5b8eda7cdc2b880001b6f1de,2024-02-19_02h16.12.540,kallum_motion_pilot,2023.2.2,Win32,49.75124378,5b8eda7cdc2b880001b6f1de,65d2b6c8f2eece985d8e374c,65d2b9ded639e9a9380fdd3c,0.0723,0.0725,0,77,77,92,1,sevenfive,,,,,,,,,,,,,,,,,,,,,,,,,,,,,,,,,,,,,,,,,,,,,,,,,,,,,,,,,,,,,,,,,,,,,,,,,,,,,,,,,,,,,,,,,,,,,,,,,,,,,,,,,,,,,,,,,,,,,,,,,,,,,,,,,,,,,,,,,
,,5b8eda7cdc2b880001b6f1de,2024-02-19_02h16.12.540,kallum_motion_pilot,2023.2.2,Win32,49.75124378,5b8eda7cdc2b880001b6f1de,65d2b6c8f2eece985d8e374c,65d2b9ded639e9a9380fdd3c,0.0728,0.0731,0,78,78,66,1,twoone,,,,,,,,,,,,,,,,,,,,,,,,,,,,,,,,,,,,,,,,,,,,,,,,,,,,,,,,,,,,,,,,,,,,,,,,,,,,,,,,,,,,,,,,,,,,,,,,,,,,,,,,,,,,,,,,,,,,,,,,,,,,,,,,,,,,,,,,,
,,5b8eda7cdc2b880001b6f1de,2024-02-19_02h16.12.540,kallum_motion_pilot,2023.2.2,Win32,49.75124378,5b8eda7cdc2b880001b6f1de,65d2b6c8f2eece985d8e374c,65d2b9ded639e9a9380fdd3c,0.0732,0.0734,0,79,79,59,1,twofour,,,,,,,,,,,,,,,,,,,,,,,,,,,,,,,,,,,,,,,,,,,,,,,,,,,,,,,,,,,,,,,,,,,,,,,,,,,,,,,,,,,,,,,,,,,,,,,,,,,,,,,,,,,,,,,,,,,,,,,,,,,,,,,,,,,,,,,,,
,,5b8eda7cdc2b880001b6f1de,2024-02-19_02h16.12.540,kallum_motion_pilot,2023.2.2,Win32,49.75124378,5b8eda7cdc2b880001b6f1de,65d2b6c8f2eece985d8e374c,65d2b9ded639e9a9380fdd3c,0.0737,0.0737,0,80,80,80,1,fivesix,,,,,,,,,,,,,,,,,,,,,,,,,,,,,,,,,,,,,,,,,,,,,,,,,,,,,,,,,,,,,,,,,,,,,,,,,,,,,,,,,,,,,,,,,,,,,,,,,,,,,,,,,,,,,,,,,,,,,,,,,,,,,,,,,,,,,,,,,
,,5b8eda7cdc2b880001b6f1de,2024-02-19_02h16.12.540,kallum_motion_pilot,2023.2.2,Win32,49.75124378,5b8eda7cdc2b880001b6f1de,65d2b6c8f2eece985d8e374c,65d2b9ded639e9a9380fdd3c,0.074,0.0742,0,81,81,53,1,threefour,,,,,,,,,,,,,,,,,,,,,,,,,,,,,,,,,,,,,,,,,,,,,,,,,,,,,,,,,,,,,,,,,,,,,,,,,,,,,,,,,,,,,,,,,,,,,,,,,,,,,,,,,,,,,,,,,,,,,,,,,,,,,,,,,,,,,,,,,
,,5b8eda7cdc2b880001b6f1de,2024-02-19_02h16.12.540,kallum_motion_pilot,2023.2.2,Win32,49.75124378,5b8eda7cdc2b880001b6f1de,65d2b6c8f2eece985d8e374c,65d2b9ded639e9a9380fdd3c,0.0744,0.0745,0,82,82,71,1,fourthree,,,,,,,,,,,,,,,,,,,,,,,,,,,,,,,,,,,,,,,,,,,,,,,,,,,,,,,,,,,,,,,,,,,,,,,,,,,,,,,,,,,,,,,,,,,,,,,,,,,,,,,,,,,,,,,,,,,,,,,,,,,,,,,,,,,,,,,,,
,,5b8eda7cdc2b880001b6f1de,2024-02-19_02h16.12.540,kallum_motion_pilot,2023.2.2,Win32,49.75124378,5b8eda7cdc2b880001b6f1de,65d2b6c8f2eece985d8e374c,65d2b9ded639e9a9380fdd3c,0.0747,0.0749,0,83,83,149,1,seveneight,,,,,,,,,,,,,,,,,,,,,,,,,,,,,,,,,,,,,,,,,,,,,,,,,,,,,,,,,,,,,,,,,,,,,,,,,,,,,,,,,,,,,,,,,,,,,,,,,,,,,,,,,,,,,,,,,,,,,,,,,,,,,,,,,,,,,,,,,
,,5b8eda7cdc2b880001b6f1de,2024-02-19_02h16.12.540,kallum_motion_pilot,2023.2.2,Win32,49.75124378,5b8eda7cdc2b880001b6f1de,65d2b6c8f2eece985d8e374c,65d2b9ded639e9a9380fdd3c,0.0751,0.0752,0,84,84,64,1,onetwo,,,,,,,,,,,,,,,,,,,,,,,,,,,,,,,,,,,,,,,,,,,,,,,,,,,,,,,,,,,,,,,,,,,,,,,,,,,,,,,,,,,,,,,,,,,,,,,,,,,,,,,,,,,,,,,,,,,,,,,,,,,,,,,,,,,,,,,,,
,,5b8eda7cdc2b880001b6f1de,2024-02-19_02h16.12.540,kallum_motion_pilot,2023.2.2,Win32,49.75124378,5b8eda7cdc2b880001b6f1de,65d2b6c8f2eece985d8e374c,65d2b9ded639e9a9380fdd3c,0.0759,0.0762,0,85,85,48,1,onetwo,,,,,,,,,,,,,,,,,,,,,,,,,,,,,,,,,,,,,,,,,,,,,,,,,,,,,,,,,,,,,,,,,,,,,,,,,,,,,,,,,,,,,,,,,,,,,,,,,,,,,,,,,,,,,,,,,,,,,,,,,,,,,,,,,,,,,,,,,
,,5b8eda7cdc2b880001b6f1de,2024-02-19_02h16.12.540,kallum_motion_pilot,2023.2.2,Win32,49.75124378,5b8eda7cdc2b880001b6f1de,65d2b6c8f2eece985d8e374c,65d2b9ded639e9a9380fdd3c,0.0765,0.0767,0,86,86,62,1,fourtwo,,,,,,,,,,,,,,,,,,,,,,,,,,,,,,,,,,,,,,,,,,,,,,,,,,,,,,,,,,,,,,,,,,,,,,,,,,,,,,,,,,,,,,,,,,,,,,,,,,,,,,,,,,,,,,,,,,,,,,,,,,,,,,,,,,,,,,,,,
,,5b8eda7cdc2b880001b6f1de,2024-02-19_02h16.12.540,kallum_motion_pilot,2023.2.2,Win32,49.75124378,5b8eda7cdc2b880001b6f1de,65d2b6c8f2eece985d8e374c,65d2b9ded639e9a9380fdd3c,0.0771,0.0773,0,87,87,68,1,threeone,,,,,,,,,,,,,,,,,,,,,,,,,,,,,,,,,,,,,,,,,,,,,,,,,,,,,,,,,,,,,,,,,,,,,,,,,,,,,,,,,,,,,,,,,,,,,,,,,,,,,,,,,,,,,,,,,,,,,,,,,,,,,,,,,,,,,,,,,
,,5b8eda7cdc2b880001b6f1de,2024-02-19_02h16.12.540,kallum_motion_pilot,2023.2.2,Win32,49.75124378,5b8eda7cdc2b880001b6f1de,65d2b6c8f2eece985d8e374c,65d2b9ded639e9a9380fdd3c,0.0777,0.0777,0,88,88,58,1,twoone,,,,,,,,,,,,,,,,,,,,,,,,,,,,,,,,,,,,,,,,,,,,,,,,,,,,,,,,,,,,,,,,,,,,,,,,,,,,,,,,,,,,,,,,,,,,,,,,,,,,,,,,,,,,,,,,,,,,,,,,,,,,,,,,,,,,,,,,,
,,5b8eda7cdc2b880001b6f1de,2024-02-19_02h16.12.540,kallum_motion_pilot,2023.2.2,Win32,49.75124378,5b8eda7cdc2b880001b6f1de,65d2b6c8f2eece985d8e374c,65d2b9ded639e9a9380fdd3c,0.078,0.0782,0,89,89,69,1,threefour,,,,,,,,,,,,,,,,,,,,,,,,,,,,,,,,,,,,,,,,,,,,,,,,,,,,,,,,,,,,,,,,,,,,,,,,,,,,,,,,,,,,,,,,,,,,,,,,,,,,,,,,,,,,,,,,,,,,,,,,,,,,,,,,,,,,,,,,,
,,5b8eda7cdc2b880001b6f1de,2024-02-19_02h16.12.540,kallum_motion_pilot,2023.2.2,Win32,49.75124378,5b8eda7cdc2b880001b6f1de,65d2b6c8f2eece985d8e374c,65d2b9ded639e9a9380fdd3c,0.0784,0.0785,0,90,90,44,1,threeone,,,,,,,,,,,,,,,,,,,,,,,,,,,,,,,,,,,,,,,,,,,,,,,,,,,,,,,,,,,,,,,,,,,,,,,,,,,,,,,,,,,,,,,,,,,,,,,,,,,,,,,,,,,,,,,,,,,,,,,,,,,,,,,,,,,,,,,,,
,,5b8eda7cdc2b880001b6f1de,2024-02-19_02h16.12.540,kallum_motion_pilot,2023.2.2,Win32,49.75124378,5b8eda7cdc2b880001b6f1de,65d2b6c8f2eece985d8e374c,65d2b9ded639e9a9380fdd3c,0.0788,0.0789,0,91,91,155,1,sixeight,,,,,,,,,,,,,,,,,,,,,,,,,,,,,,,,,,,,,,,,,,,,,,,,,,,,,,,,,,,,,,,,,,,,,,,,,,,,,,,,,,,,,,,,,,,,,,,,,,,,,,,,,,,,,,,,,,,,,,,,,,,,,,,,,,,,,,,,,
,,5b8eda7cdc2b880001b6f1de,2024-02-19_02h16.12.540,kallum_motion_pilot,2023.2.2,Win32,49.75124378,5b8eda7cdc2b880001b6f1de,65d2b6c8f2eece985d8e374c,65d2b9ded639e9a9380fdd3c,0.0791,0.0793,0,92,92,120,1,fivesix,,,,,,,,,,,,,,,,,,,,,,,,,,,,,,,,,,,,,,,,,,,,,,,,,,,,,,,,,,,,,,,,,,,,,,,,,,,,,,,,,,,,,,,,,,,,,,,,,,,,,,,,,,,,,,,,,,,,,,,,,,,,,,,,,,,,,,,,,
,,5b8eda7cdc2b880001b6f1de,2024-02-19_02h16.12.540,kallum_motion_pilot,2023.2.2,Win32,49.75124378,5b8eda7cdc2b880001b6f1de,65d2b6c8f2eece985d8e374c,65d2b9ded639e9a9380fdd3c,0.0795,0.0797,0,93,93,128,1,fivesix,,,,,,,,,,,,,,,,,,,,,,,,,,,,,,,,,,,,,,,,,,,,,,,,,,,,,,,,,,,,,,,,,,,,,,,,,,,,,,,,,,,,,,,,,,,,,,,,,,,,,,,,,,,,,,,,,,,,,,,,,,,,,,,,,,,,,,,,,
,,5b8eda7cdc2b880001b6f1de,2024-02-19_02h16.12.540,kallum_motion_pilot,2023.2.2,Win32,49.75124378,5b8eda7cdc2b880001b6f1de,65d2b6c8f2eece985d8e374c,65d2b9ded639e9a9380fdd3c,0.08,0.0801,0,94,94,127,1,eightseven,,,,,,,,,,,,,,,,,,,,,,,,,,,,,,,,,,,,,,,,,,,,,,,,,,,,,,,,,,,,,,,,,,,,,,,,,,,,,,,,,,,,,,,,,,,,,,,,,,,,,,,,,,,,,,,,,,,,,,,,,,,,,,,,,,,,,,,,,
,,5b8eda7cdc2b880001b6f1de,2024-02-19_02h16.12.540,kallum_motion_pilot,2023.2.2,Win32,49.75124378,5b8eda7cdc2b880001b6f1de,65d2b6c8f2eece985d8e374c,65d2b9ded639e9a9380fdd3c,0.0803,0.0805,0,95,95,90,1,sixfive,,,,,,,,,,,,,,,,,,,,,,,,,,,,,,,,,,,,,,,,,,,,,,,,,,,,,,,,,,,,,,,,,,,,,,,,,,,,,,,,,,,,,,,,,,,,,,,,,,,,,,,,,,,,,,,,,,,,,,,,,,,,,,,,,,,,,,,,,
,,5b8eda7cdc2b880001b6f1de,2024-02-19_02h16.12.540,kallum_motion_pilot,2023.2.2,Win32,49.75124378,5b8eda7cdc2b880001b6f1de,65d2b6c8f2eece985d8e374c,65d2b9ded639e9a9380fdd3c,0.0808,0.0809,0,96,96,107,1,sixeight,,,,,,,,,,,,,,,,,,,,,,,,,,,,,,,,,,,,,,,,,,,,,,,,,,,,,,,,,,,,,,,,,,,,,,,,,,,,,,,,,,,,,,,,,,,,,,,,,,,,,,,,,,,,,,,,,,,,,,,,,,,,,,,,,,,,,,,,,
,,5b8eda7cdc2b880001b6f1de,2024-02-19_02h16.12.540,kallum_motion_pilot,2023.2.2,Win32,49.75124378,5b8eda7cdc2b880001b6f1de,65d2b6c8f2eece985d8e374c,65d2b9ded639e9a9380fdd3c,0.0812,0.0814,0,97,97,73,1,onethree,,,,,,,,,,,,,,,,,,,,,,,,,,,,,,,,,,,,,,,,,,,,,,,,,,,,,,,,,,,,,,,,,,,,,,,,,,,,,,,,,,,,,,,,,,,,,,,,,,,,,,,,,,,,,,,,,,,,,,,,,,,,,,,,,,,,,,,,,
,,5b8eda7cdc2b880001b6f1de,2024-02-19_02h16.12.540,kallum_motion_pilot,2023.2.2,Win32,49.75124378,5b8eda7cdc2b880001b6f1de,65d2b6c8f2eece985d8e374c,65d2b9ded639e9a9380fdd3c,0.0815,0.0816,0,98,98,61,1,threefour,,,,,,,,,,,,,,,,,,,,,,,,,,,,,,,,,,,,,,,,,,,,,,,,,,,,,,,,,,,,,,,,,,,,,,,,,,,,,,,,,,,,,,,,,,,,,,,,,,,,,,,,,,,,,,,,,,,,,,,,,,,,,,,,,,,,,,,,,
,,5b8eda7cdc2b880001b6f1de,2024-02-19_02h16.12.540,kallum_motion_pilot,2023.2.2,Win32,49.75124378,5b8eda7cdc2b880001b6f1de,65d2b6c8f2eece985d8e374c,65d2b9ded639e9a9380fdd3c,0.0819,0.082,0,99,99,103,1,eightseven,,,,,,,,,,,,,,,,,,,,,,,,,,,,,,,,,,,,,,,,,,,,,,,,,,,,,,,,,,,,,,,,,,,,,,,,,,,,,,,,,,,,,,,,,,,,,,,,,,,,,,,,,,,,,,,,,,,,,,,,,,,,,,,,,,,,,,,,,
,,5b8eda7cdc2b880001b6f1de,2024-02-19_02h16.12.540,kallum_motion_pilot,2023.2.2,Win32,49.75124378,5b8eda7cdc2b880001b6f1de,65d2b6c8f2eece985d8e374c,65d2b9ded639e9a9380fdd3c,0.0822,0.0824,0,100,100,27,1,twofour,,,,,,,,,,,,,,,,,,,,,,,,,,,,,,,,,,,,,,,,,,,,,,,,,,,,,,,,,,,,,,,,,,,,,,,,,,,,,,,,,,,,,,,,,,,,,,,,,,,,,,,,,,,,,,,,,,,,,,,,,,,,,,,,,,,,,,,,,
,,5b8eda7cdc2b880001b6f1de,2024-02-19_02h16.12.540,kallum_motion_pilot,2023.2.2,Win32,49.75124378,5b8eda7cdc2b880001b6f1de,65d2b6c8f2eece985d8e374c,65d2b9ded639e9a9380fdd3c,0.0827,0.0827,0,101,101,24,1,onetwo,,,,,,,,,,,,,,,,,,,,,,,,,,,,,,,,,,,,,,,,,,,,,,,,,,,,,,,,,,,,,,,,,,,,,,,,,,,,,,,,,,,,,,,,,,,,,,,,,,,,,,,,,,,,,,,,,,,,,,,,,,,,,,,,,,,,,,,,,
,,5b8eda7cdc2b880001b6f1de,2024-02-19_02h16.12.540,kallum_motion_pilot,2023.2.2,Win32,49.75124378,5b8eda7cdc2b880001b6f1de,65d2b6c8f2eece985d8e374c,65d2b9ded639e9a9380fdd3c,0.083,0.0831,0,102,102,117,1,seveneight,,,,,,,,,,,,,,,,,,,,,,,,,,,,,,,,,,,,,,,,,,,,,,,,,,,,,,,,,,,,,,,,,,,,,,,,,,,,,,,,,,,,,,,,,,,,,,,,,,,,,,,,,,,,,,,,,,,,,,,,,,,,,,,,,,,,,,,,,
,,5b8eda7cdc2b880001b6f1de,2024-02-19_02h16.12.540,kallum_motion_pilot,2023.2.2,Win32,49.75124378,5b8eda7cdc2b880001b6f1de,65d2b6c8f2eece985d8e374c,65d2b9ded639e9a9380fdd3c,0.0834,0.0836,0,103,103,47,1,fourthree,,,,,,,,,,,,,,,,,,,,,,,,,,,,,,,,,,,,,,,,,,,,,,,,,,,,,,,,,,,,,,,,,,,,,,,,,,,,,,,,,,,,,,,,,,,,,,,,,,,,,,,,,,,,,,,,,,,,,,,,,,,,,,,,,,,,,,,,,
,,5b8eda7cdc2b880001b6f1de,2024-02-19_02h16.12.540,kallum_motion_pilot,2023.2.2,Win32,49.75124378,5b8eda7cdc2b880001b6f1de,65d2b6c8f2eece985d8e374c,65d2b9ded639e9a9380fdd3c,0.0837,0.0838,0,104,104,46,1,fourtwo,,,,,,,,,,,,,,,,,,,,,,,,,,,,,,,,,,,,,,,,,,,,,,,,,,,,,,,,,,,,,,,,,,,,,,,,,,,,,,,,,,,,,,,,,,,,,,,,,,,,,,,,,,,,,,,,,,,,,,,,,,,,,,,,,,,,,,,,,
,,5b8eda7cdc2b880001b6f1de,2024-02-19_02h16.12.540,kallum_motion_pilot,2023.2.2,Win32,49.75124378,5b8eda7cdc2b880001b6f1de,65d2b6c8f2eece985d8e374c,65d2b9ded639e9a9380fdd3c,0.0841,0.0842,0,105,105,89,1,fiveseven,,,,,,,,,,,,,,,,,,,,,,,,,,,,,,,,,,,,,,,,,,,,,,,,,,,,,,,,,,,,,,,,,,,,,,,,,,,,,,,,,,,,,,,,,,,,,,,,,,,,,,,,,,,,,,,,,,,,,,,,,,,,,,,,,,,,,,,,,
,,5b8eda7cdc2b880001b6f1de,2024-02-19_02h16.12.540,kallum_motion_pilot,2023.2.2,Win32,49.75124378,5b8eda7cdc2b880001b6f1de,65d2b6c8f2eece985d8e374c,65d2b9ded639e9a9380fdd3c,0.0845,0.0846,0,106,106,153,1,fiveseven,,,,,,,,,,,,,,,,,,,,,,,,,,,,,,,,,,,,,,,,,,,,,,,,,,,,,,,,,,,,,,,,,,,,,,,,,,,,,,,,,,,,,,,,,,,,,,,,,,,,,,,,,,,,,,,,,,,,,,,,,,,,,,,,,,,,,,,,,
,,5b8eda7cdc2b880001b6f1de,2024-02-19_02h16.12.540,kallum_motion_pilot,2023.2.2,Win32,49.75124378,5b8eda7cdc2b880001b6f1de,65d2b6c8f2eece985d8e374c,65d2b9ded639e9a9380fdd3c,0.0848,0.085,0,107,107,118,1,eightsix,,,,,,,,,,,,,,,,,,,,,,,,,,,,,,,,,,,,,,,,,,,,,,,,,,,,,,,,,,,,,,,,,,,,,,,,,,,,,,,,,,,,,,,,,,,,,,,,,,,,,,,,,,,,,,,,,,,,,,,,,,,,,,,,,,,,,,,,,
,,5b8eda7cdc2b880001b6f1de,2024-02-19_02h16.12.540,kallum_motion_pilot,2023.2.2,Win32,49.75124378,5b8eda7cdc2b880001b6f1de,65d2b6c8f2eece985d8e374c,65d2b9ded639e9a9380fdd3c,0.0852,0.0853,0,108,108,134,1,eightsix,,,,,,,,,,,,,,,,,,,,,,,,,,,,,,,,,,,,,,,,,,,,,,,,,,,,,,,,,,,,,,,,,,,,,,,,,,,,,,,,,,,,,,,,,,,,,,,,,,,,,,,,,,,,,,,,,,,,,,,,,,,,,,,,,,,,,,,,,
,,5b8eda7cdc2b880001b6f1de,2024-02-19_02h16.12.540,kallum_motion_pilot,2023.2.2,Win32,49.75124378,5b8eda7cdc2b880001b6f1de,65d2b6c8f2eece985d8e374c,65d2b9ded639e9a9380fdd3c,0.0855,0.0856,0,109,109,43,1,twofour,,,,,,,,,,,,,,,,,,,,,,,,,,,,,,,,,,,,,,,,,,,,,,,,,,,,,,,,,,,,,,,,,,,,,,,,,,,,,,,,,,,,,,,,,,,,,,,,,,,,,,,,,,,,,,,,,,,,,,,,,,,,,,,,,,,,,,,,,
,,5b8eda7cdc2b880001b6f1de,2024-02-19_02h16.12.540,kallum_motion_pilot,2023.2.2,Win32,49.75124378,5b8eda7cdc2b880001b6f1de,65d2b6c8f2eece985d8e374c,65d2b9ded639e9a9380fdd3c,0.0859,0.0861,0,110,110,98,1,sixfive,,,,,,,,,,,,,,,,,,,,,,,,,,,,,,,,,,,,,,,,,,,,,,,,,,,,,,,,,,,,,,,,,,,,,,,,,,,,,,,,,,,,,,,,,,,,,,,,,,,,,,,,,,,,,,,,,,,,,,,,,,,,,,,,,,,,,,,,,
,,5b8eda7cdc2b880001b6f1de,2024-02-19_02h16.12.540,kallum_motion_pilot,2023.2.2,Win32,49.75124378,5b8eda7cdc2b880001b6f1de,65d2b6c8f2eece985d8e374c,65d2b9ded639e9a9380fdd3c,0.0862,0.0864,0,111,111,131,1,sixeight,,,,,,,,,,,,,,,,,,,,,,,,,,,,,,,,,,,,,,,,,,,,,,,,,,,,,,,,,,,,,,,,,,,,,,,,,,,,,,,,,,,,,,,,,,,,,,,,,,,,,,,,,,,,,,,,,,,,,,,,,,,,,,,,,,,,,,,,,
,,5b8eda7cdc2b880001b6f1de,2024-02-19_02h16.12.540,kallum_motion_pilot,2023.2.2,Win32,49.75124378,5b8eda7cdc2b880001b6f1de,65d2b6c8f2eece985d8e374c,65d2b9ded639e9a9380fdd3c,0.0866,0.0869,0,112,112,82,1,sixfive,,,,,,,,,,,,,,,,,,,,,,,,,,,,,,,,,,,,,,,,,,,,,,,,,,,,,,,,,,,,,,,,,,,,,,,,,,,,,,,,,,,,,,,,,,,,,,,,,,,,,,,,,,,,,,,,,,,,,,,,,,,,,,,,,,,,,,,,,
,,5b8eda7cdc2b880001b6f1de,2024-02-19_02h16.12.540,kallum_motion_pilot,2023.2.2,Win32,49.75124378,5b8eda7cdc2b880001b6f1de,65d2b6c8f2eece985d8e374c,65d2b9ded639e9a9380fdd3c,0.0872,0.0873,0,113,113,52,1,threeone,,,,,,,,,,,,,,,,,,,,,,,,,,,,,,,,,,,,,,,,,,,,,,,,,,,,,,,,,,,,,,,,,,,,,,,,,,,,,,,,,,,,,,,,,,,,,,,,,,,,,,,,,,,,,,,,,,,,,,,,,,,,,,,,,,,,,,,,,
,,5b8eda7cdc2b880001b6f1de,2024-02-19_02h16.12.540,kallum_motion_pilot,2023.2.2,Win32,49.75124378,5b8eda7cdc2b880001b6f1de,65d2b6c8f2eece985d8e374c,65d2b9ded639e9a9380fdd3c,0.0876,0.0878,0,114,114,31,1,fourthree,,,,,,,,,,,,,,,,,,,,,,,,,,,,,,,,,,,,,,,,,,,,,,,,,,,,,,,,,,,,,,,,,,,,,,,,,,,,,,,,,,,,,,,,,,,,,,,,,,,,,,,,,,,,,,,,,,,,,,,,,,,,,,,,,,,,,,,,,
,,5b8eda7cdc2b880001b6f1de,2024-02-19_02h16.12.540,kallum_motion_pilot,2023.2.2,Win32,49.75124378,5b8eda7cdc2b880001b6f1de,65d2b6c8f2eece985d8e374c,65d2b9ded639e9a9380fdd3c,0.0882,0.0883,0,115,115,2,1,twoone,,,,,,,,,,,,,,,,,,,,,,,,,,,,,,,,,,,,,,,,,,,,,,,,,,,,,,,,,,,,,,,,,,,,,,,,,,,,,,,,,,,,,,,,,,,,,,,,,,,,,,,,,,,,,,,,,,,,,,,,,,,,,,,,,,,,,,,,,
,,5b8eda7cdc2b880001b6f1de,2024-02-19_02h16.12.540,kallum_motion_pilot,2023.2.2,Win32,49.75124378,5b8eda7cdc2b880001b6f1de,65d2b6c8f2eece985d8e374c,65d2b9ded639e9a9380fdd3c,0.0886,0.0887,0,116,116,40,1,onetwo,,,,,,,,,,,,,,,,,,,,,,,,,,,,,,,,,,,,,,,,,,,,,,,,,,,,,,,,,,,,,,,,,,,,,,,,,,,,,,,,,,,,,,,,,,,,,,,,,,,,,,,,,,,,,,,,,,,,,,,,,,,,,,,,,,,,,,,,,
,,5b8eda7cdc2b880001b6f1de,2024-02-19_02h16.12.540,kallum_motion_pilot,2023.2.2,Win32,49.75124378,5b8eda7cdc2b880001b6f1de,65d2b6c8f2eece985d8e374c,65d2b9ded639e9a9380fdd3c,0.0889,0.089,0,117,117,141,1,seveneight,,,,,,,,,,,,,,,,,,,,,,,,,,,,,,,,,,,,,,,,,,,,,,,,,,,,,,,,,,,,,,,,,,,,,,,,,,,,,,,,,,,,,,,,,,,,,,,,,,,,,,,,,,,,,,,,,,,,,,,,,,,,,,,,,,,,,,,,,
,,5b8eda7cdc2b880001b6f1de,2024-02-19_02h16.12.540,kallum_motion_pilot,2023.2.2,Win32,49.75124378,5b8eda7cdc2b880001b6f1de,65d2b6c8f2eece985d8e374c,65d2b9ded639e9a9380fdd3c,0.0893,0.0895,0,118,118,50,1,twoone,,,,,,,,,,,,,,,,,,,,,,,,,,,,,,,,,,,,,,,,,,,,,,,,,,,,,,,,,,,,,,,,,,,,,,,,,,,,,,,,,,,,,,,,,,,,,,,,,,,,,,,,,,,,,,,,,,,,,,,,,,,,,,,,,,,,,,,,,
,,5b8eda7cdc2b880001b6f1de,2024-02-19_02h16.12.540,kallum_motion_pilot,2023.2.2,Win32,49.75124378,5b8eda7cdc2b880001b6f1de,65d2b6c8f2eece985d8e374c,65d2b9ded639e9a9380fdd3c,0.0897,0.0899,0,119,119,101,1,seveneight,,,,,,,,,,,,,,,,,,,,,,,,,,,,,,,,,,,,,,,,,,,,,,,,,,,,,,,,,,,,,,,,,,,,,,,,,,,,,,,,,,,,,,,,,,,,,,,,,,,,,,,,,,,,,,,,,,,,,,,,,,,,,,,,,,,,,,,,,
,,5b8eda7cdc2b880001b6f1de,2024-02-19_02h16.12.540,kallum_motion_pilot,2023.2.2,Win32,49.75124378,5b8eda7cdc2b880001b6f1de,65d2b6c8f2eece985d8e374c,65d2b9ded639e9a9380fdd3c,0.0901,0.0902,0,120,120,133,1,seveneight,,,,,,,,,,,,,,,,,,,,,,,,,,,,,,,,,,,,,,,,,,,,,,,,,,,,,,,,,,,,,,,,,,,,,,,,,,,,,,,,,,,,,,,,,,,,,,,,,,,,,,,,,,,,,,,,,,,,,,,,,,,,,,,,,,,,,,,,,
,,5b8eda7cdc2b880001b6f1de,2024-02-19_02h16.12.540,kallum_motion_pilot,2023.2.2,Win32,49.75124378,5b8eda7cdc2b880001b6f1de,65d2b6c8f2eece985d8e374c,65d2b9ded639e9a9380fdd3c,0.0904,0.0906,0,121,121,77,1,threefour,,,,,,,,,,,,,,,,,,,,,,,,,,,,,,,,,,,,,,,,,,,,,,,,,,,,,,,,,,,,,,,,,,,,,,,,,,,,,,,,,,,,,,,,,,,,,,,,,,,,,,,,,,,,,,,,,,,,,,,,,,,,,,,,,,,,,,,,,
,,5b8eda7cdc2b880001b6f1de,2024-02-19_02h16.12.540,kallum_motion_pilot,2023.2.2,Win32,49.75124378,5b8eda7cdc2b880001b6f1de,65d2b6c8f2eece985d8e374c,65d2b9ded639e9a9380fdd3c,0.0908,0.0909,0,122,122,10,1,twoone,,,,,,,,,,,,,,,,,,,,,,,,,,,,,,,,,,,,,,,,,,,,,,,,,,,,,,,,,,,,,,,,,,,,,,,,,,,,,,,,,,,,,,,,,,,,,,,,,,,,,,,,,,,,,,,,,,,,,,,,,,,,,,,,,,,,,,,,,
,,5b8eda7cdc2b880001b6f1de,2024-02-19_02h16.12.540,kallum_motion_pilot,2023.2.2,Win32,49.75124378,5b8eda7cdc2b880001b6f1de,65d2b6c8f2eece985d8e374c,65d2b9ded639e9a9380fdd3c,0.0911,0.0913,0,123,123,108,1,sevenfive,,,,,,,,,,,,,,,,,,,,,,,,,,,,,,,,,,,,,,,,,,,,,,,,,,,,,,,,,,,,,,,,,,,,,,,,,,,,,,,,,,,,,,,,,,,,,,,,,,,,,,,,,,,,,,,,,,,,,,,,,,,,,,,,,,,,,,,,,
,,5b8eda7cdc2b880001b6f1de,2024-02-19_02h16.12.540,kallum_motion_pilot,2023.2.2,Win32,49.75124378,5b8eda7cdc2b880001b6f1de,65d2b6c8f2eece985d8e374c,65d2b9ded639e9a9380fdd3c,0.0915,0.0917,0,124,124,38,1,fourtwo,,,,,,,,,,,,,,,,,,,,,,,,,,,,,,,,,,,,,,,,,,,,,,,,,,,,,,,,,,,,,,,,,,,,,,,,,,,,,,,,,,,,,,,,,,,,,,,,,,,,,,,,,,,,,,,,,,,,,,,,,,,,,,,,,,,,,,,,,
,,5b8eda7cdc2b880001b6f1de,2024-02-19_02h16.12.540,kallum_motion_pilot,2023.2.2,Win32,49.75124378,5b8eda7cdc2b880001b6f1de,65d2b6c8f2eece985d8e374c,65d2b9ded639e9a9380fdd3c,0.0919,0.0921,0,125,125,12,1,threeone,,,,,,,,,,,,,,,,,,,,,,,,,,,,,,,,,,,,,,,,,,,,,,,,,,,,,,,,,,,,,,,,,,,,,,,,,,,,,,,,,,,,,,,,,,,,,,,,,,,,,,,,,,,,,,,,,,,,,,,,,,,,,,,,,,,,,,,,,
,,5b8eda7cdc2b880001b6f1de,2024-02-19_02h16.12.540,kallum_motion_pilot,2023.2.2,Win32,49.75124378,5b8eda7cdc2b880001b6f1de,65d2b6c8f2eece985d8e374c,65d2b9ded639e9a9380fdd3c,0.0923,0.0925,0,126,126,65,1,onethree,,,,,,,,,,,,,,,,,,,,,,,,,,,,,,,,,,,,,,,,,,,,,,,,,,,,,,,,,,,,,,,,,,,,,,,,,,,,,,,,,,,,,,,,,,,,,,,,,,,,,,,,,,,,,,,,,,,,,,,,,,,,,,,,,,,,,,,,,
,,5b8eda7cdc2b880001b6f1de,2024-02-19_02h16.12.540,kallum_motion_pilot,2023.2.2,Win32,49.75124378,5b8eda7cdc2b880001b6f1de,65d2b6c8f2eece985d8e374c,65d2b9ded639e9a9380fdd3c,0.0927,0.0928,0,127,127,97,1,fiveseven,,,,,,,,,,,,,,,,,,,,,,,,,,,,,,,,,,,,,,,,,,,,,,,,,,,,,,,,,,,,,,,,,,,,,,,,,,,,,,,,,,,,,,,,,,,,,,,,,,,,,,,,,,,,,,,,,,,,,,,,,,,,,,,,,,,,,,,,,
,,5b8eda7cdc2b880001b6f1de,2024-02-19_02h16.12.540,kallum_motion_pilot,2023.2.2,Win32,49.75124378,5b8eda7cdc2b880001b6f1de,65d2b6c8f2eece985d8e374c,65d2b9ded639e9a9380fdd3c,0.0931,0.0932,0,128,128,145,1,fiveseven,,,,,,,,,,,,,,,,,,,,,,,,,,,,,,,,,,,,,,,,,,,,,,,,,,,,,,,,,,,,,,,,,,,,,,,,,,,,,,,,,,,,,,,,,,,,,,,,,,,,,,,,,,,,,,,,,,,,,,,,,,,,,,,,,,,,,,,,,
,,5b8eda7cdc2b880001b6f1de,2024-02-19_02h16.12.540,kallum_motion_pilot,2023.2.2,Win32,49.75124378,5b8eda7cdc2b880001b6f1de,65d2b6c8f2eece985d8e374c,65d2b9ded639e9a9380fdd3c,0.0934,0.0936,0,129,129,74,1,twoone,,,,,,,,,,,,,,,,,,,,,,,,,,,,,,,,,,,,,,,,,,,,,,,,,,,,,,,,,,,,,,,,,,,,,,,,,,,,,,,,,,,,,,,,,,,,,,,,,,,,,,,,,,,,,,,,,,,,,,,,,,,,,,,,,,,,,,,,,
,,5b8eda7cdc2b880001b6f1de,2024-02-19_02h16.12.540,kallum_motion_pilot,2023.2.2,Win32,49.75124378,5b8eda7cdc2b880001b6f1de,65d2b6c8f2eece985d8e374c,65d2b9ded639e9a9380fdd3c,0.0938,0.0939,0,130,130,143,1,eightseven,,,,,,,,,,,,,,,,,,,,,,,,,,,,,,,,,,,,,,,,,,,,,,,,,,,,,,,,,,,,,,,,,,,,,,,,,,,,,,,,,,,,,,,,,,,,,,,,,,,,,,,,,,,,,,,,,,,,,,,,,,,,,,,,,,,,,,,,,
,,5b8eda7cdc2b880001b6f1de,2024-02-19_02h16.12.540,kallum_motion_pilot,2023.2.2,Win32,49.75124378,5b8eda7cdc2b880001b6f1de,65d2b6c8f2eece985d8e374c,65d2b9ded639e9a9380fdd3c,0.0941,0.0943,0,131,131,49,1,onethree,,,,,,,,,,,,,,,,,,,,,,,,,,,,,,,,,,,,,,,,,,,,,,,,,,,,,,,,,,,,,,,,,,,,,,,,,,,,,,,,,,,,,,,,,,,,,,,,,,,,,,,,,,,,,,,,,,,,,,,,,,,,,,,,,,,,,,,,,
,,5b8eda7cdc2b880001b6f1de,2024-02-19_02h16.12.540,kallum_motion_pilot,2023.2.2,Win32,49.75124378,5b8eda7cdc2b880001b6f1de,65d2b6c8f2eece985d8e374c,65d2b9ded639e9a9380fdd3c,0.0945,0.0946,0,132,132,88,1,fivesix,,,,,,,,,,,,,,,,,,,,,,,,,,,,,,,,,,,,,,,,,,,,,,,,,,,,,,,,,,,,,,,,,,,,,,,,,,,,,,,,,,,,,,,,,,,,,,,,,,,,,,,,,,,,,,,,,,,,,,,,,,,,,,,,,,,,,,,,,
,,5b8eda7cdc2b880001b6f1de,2024-02-19_02h16.12.540,kallum_motion_pilot,2023.2.2,Win32,49.75124378,5b8eda7cdc2b880001b6f1de,65d2b6c8f2eece985d8e374c,65d2b9ded639e9a9380fdd3c,0.0949,0.095,0,133,133,25,1,onethree,,,,,,,,,,,,,,,,,,,,,,,,,,,,,,,,,,,,,,,,,,,,,,,,,,,,,,,,,,,,,,,,,,,,,,,,,,,,,,,,,,,,,,,,,,,,,,,,,,,,,,,,,,,,,,,,,,,,,,,,,,,,,,,,,,,,,,,,,
,,5b8eda7cdc2b880001b6f1de,2024-02-19_02h16.12.540,kallum_motion_pilot,2023.2.2,Win32,49.75124378,5b8eda7cdc2b880001b6f1de,65d2b6c8f2eece985d8e374c,65d2b9ded639e9a9380fdd3c,0.0952,0.0957,0,134,134,36,1,threeone,,,,,,,,,,,,,,,,,,,,,,,,,,,,,,,,,,,,,,,,,,,,,,,,,,,,,,,,,,,,,,,,,,,,,,,,,,,,,,,,,,,,,,,,,,,,,,,,,,,,,,,,,,,,,,,,,,,,,,,,,,,,,,,,,,,,,,,,,
,,5b8eda7cdc2b880001b6f1de,2024-02-19_02h16.12.540,kallum_motion_pilot,2023.2.2,Win32,49.75124378,5b8eda7cdc2b880001b6f1de,65d2b6c8f2eece985d8e374c,65d2b9ded639e9a9380fdd3c,0.0959,0.0962,0,135,135,94,1,eightsix,,,,,,,,,,,,,,,,,,,,,,,,,,,,,,,,,,,,,,,,,,,,,,,,,,,,,,,,,,,,,,,,,,,,,,,,,,,,,,,,,,,,,,,,,,,,,,,,,,,,,,,,,,,,,,,,,,,,,,,,,,,,,,,,,,,,,,,,,
,,5b8eda7cdc2b880001b6f1de,2024-02-19_02h16.12.540,kallum_motion_pilot,2023.2.2,Win32,49.75124378,5b8eda7cdc2b880001b6f1de,65d2b6c8f2eece985d8e374c,65d2b9ded639e9a9380fdd3c,0.0967,0.097,0,136,136,109,1,seveneight,,,,,,,,,,,,,,,,,,,,,,,,,,,,,,,,,,,,,,,,,,,,,,,,,,,,,,,,,,,,,,,,,,,,,,,,,,,,,,,,,,,,,,,,,,,,,,,,,,,,,,,,,,,,,,,,,,,,,,,,,,,,,,,,,,,,,,,,,
,,5b8eda7cdc2b880001b6f1de,2024-02-19_02h16.12.540,kallum_motion_pilot,2023.2.2,Win32,49.75124378,5b8eda7cdc2b880001b6f1de,65d2b6c8f2eece985d8e374c,65d2b9ded639e9a9380fdd3c,0.0974,0.0976,0,137,137,146,1,sixfive,,,,,,,,,,,,,,,,,,,,,,,,,,,,,,,,,,,,,,,,,,,,,,,,,,,,,,,,,,,,,,,,,,,,,,,,,,,,,,,,,,,,,,,,,,,,,,,,,,,,,,,,,,,,,,,,,,,,,,,,,,,,,,,,,,,,,,,,,
,,5b8eda7cdc2b880001b6f1de,2024-02-19_02h16.12.540,kallum_motion_pilot,2023.2.2,Win32,49.75124378,5b8eda7cdc2b880001b6f1de,65d2b6c8f2eece985d8e374c,65d2b9ded639e9a9380fdd3c,0.0979,0.0981,0,138,138,78,1,fourtwo,,,,,,,,,,,,,,,,,,,,,,,,,,,,,,,,,,,,,,,,,,,,,,,,,,,,,,,,,,,,,,,,,,,,,,,,,,,,,,,,,,,,,,,,,,,,,,,,,,,,,,,,,,,,,,,,,,,,,,,,,,,,,,,,,,,,,,,,,
,,5b8eda7cdc2b880001b6f1de,2024-02-19_02h16.12.540,kallum_motion_pilot,2023.2.2,Win32,49.75124378,5b8eda7cdc2b880001b6f1de,65d2b6c8f2eece985d8e374c,65d2b9ded639e9a9380fdd3c,0.0983,0.0984,0,139,139,79,1,eightseven,,,,,,,,,,,,,,,,,,,,,,,,,,,,,,,,,,,,,,,,,,,,,,,,,,,,,,,,,,,,,,,,,,,,,,,,,,,,,,,,,,,,,,,,,,,,,,,,,,,,,,,,,,,,,,,,,,,,,,,,,,,,,,,,,,,,,,,,,
,,5b8eda7cdc2b880001b6f1de,2024-02-19_02h16.12.540,kallum_motion_pilot,2023.2.2,Win32,49.75124378,5b8eda7cdc2b880001b6f1de,65d2b6c8f2eece985d8e374c,65d2b9ded639e9a9380fdd3c,0.0987,0.0988,0,140,140,76,1,threeone,,,,,,,,,,,,,,,,,,,,,,,,,,,,,,,,,,,,,,,,,,,,,,,,,,,,,,,,,,,,,,,,,,,,,,,,,,,,,,,,,,,,,,,,,,,,,,,,,,,,,,,,,,,,,,,,,,,,,,,,,,,,,,,,,,,,,,,,,
,,5b8eda7cdc2b880001b6f1de,2024-02-19_02h16.12.540,kallum_motion_pilot,2023.2.2,Win32,49.75124378,5b8eda7cdc2b880001b6f1de,65d2b6c8f2eece985d8e374c,65d2b9ded639e9a9380fdd3c,0.099,0.0991,0,141,141,55,1,fourthree,,,,,,,,,,,,,,,,,,,,,,,,,,,,,,,,,,,,,,,,,,,,,,,,,,,,,,,,,,,,,,,,,,,,,,,,,,,,,,,,,,,,,,,,,,,,,,,,,,,,,,,,,,,,,,,,,,,,,,,,,,,,,,,,,,,,,,,,,
,,5b8eda7cdc2b880001b6f1de,2024-02-19_02h16.12.540,kallum_motion_pilot,2023.2.2,Win32,49.75124378,5b8eda7cdc2b880001b6f1de,65d2b6c8f2eece985d8e374c,65d2b9ded639e9a9380fdd3c,0.0994,0.0996,0,142,142,140,1,sevenfive,,,,,,,,,,,,,,,,,,,,,,,,,,,,,,,,,,,,,,,,,,,,,,,,,,,,,,,,,,,,,,,,,,,,,,,,,,,,,,,,,,,,,,,,,,,,,,,,,,,,,,,,,,,,,,,,,,,,,,,,,,,,,,,,,,,,,,,,,
,,5b8eda7cdc2b880001b6f1de,2024-02-19_02h16.12.540,kallum_motion_pilot,2023.2.2,Win32,49.75124378,5b8eda7cdc2b880001b6f1de,65d2b6c8f2eece985d8e374c,65d2b9ded639e9a9380fdd3c,0.0998,0.0999,0,143,143,160,1,fivesix,,,,,,,,,,,,,,,,,,,,,,,,,,,,,,,,,,,,,,,,,,,,,,,,,,,,,,,,,,,,,,,,,,,,,,,,,,,,,,,,,,,,,,,,,,,,,,,,,,,,,,,,,,,,,,,,,,,,,,,,,,,,,,,,,,,,,,,,,
,,5b8eda7cdc2b880001b6f1de,2024-02-19_02h16.12.540,kallum_motion_pilot,2023.2.2,Win32,49.75124378,5b8eda7cdc2b880001b6f1de,65d2b6c8f2eece985d8e374c,65d2b9ded639e9a9380fdd3c,0.1002,0.1004,0,144,144,115,1,sixeight,,,,,,,,,,,,,,,,,,,,,,,,,,,,,,,,,,,,,,,,,,,,,,,,,,,,,,,,,,,,,,,,,,,,,,,,,,,,,,,,,,,,,,,,,,,,,,,,,,,,,,,,,,,,,,,,,,,,,,,,,,,,,,,,,,,,,,,,,
,,5b8eda7cdc2b880001b6f1de,2024-02-19_02h16.12.540,kallum_motion_pilot,2023.2.2,Win32,49.75124378,5b8eda7cdc2b880001b6f1de,65d2b6c8f2eece985d8e374c,65d2b9ded639e9a9380fdd3c,0.1005,0.1007,0,145,145,154,1,sixfive,,,,,,,,,,,,,,,,,,,,,,,,,,,,,,,,,,,,,,,,,,,,,,,,,,,,,,,,,,,,,,,,,,,,,,,,,,,,,,,,,,,,,,,,,,,,,,,,,,,,,,,,,,,,,,,,,,,,,,,,,,,,,,,,,,,,,,,,,
,,5b8eda7cdc2b880001b6f1de,2024-02-19_02h16.12.540,kallum_motion_pilot,2023.2.2,Win32,49.75124378,5b8eda7cdc2b880001b6f1de,65d2b6c8f2eece985d8e374c,65d2b9ded639e9a9380fdd3c,0.1009,0.1011,0,146,146,126,1,eightsix,,,,,,,,,,,,,,,,,,,,,,,,,,,,,,,,,,,,,,,,,,,,,,,,,,,,,,,,,,,,,,,,,,,,,,,,,,,,,,,,,,,,,,,,,,,,,,,,,,,,,,,,,,,,,,,,,,,,,,,,,,,,,,,,,,,,,,,,,
,,5b8eda7cdc2b880001b6f1de,2024-02-19_02h16.12.540,kallum_motion_pilot,2023.2.2,Win32,49.75124378,5b8eda7cdc2b880001b6f1de,65d2b6c8f2eece985d8e374c,65d2b9ded639e9a9380fdd3c,0.1013,0.1015,0,147,147,86,1,eightsix,,,,,,,,,,,,,,,,,,,,,,,,,,,,,,,,,,,,,,,,,,,,,,,,,,,,,,,,,,,,,,,,,,,,,,,,,,,,,,,,,,,,,,,,,,,,,,,,,,,,,,,,,,,,,,,,,,,,,,,,,,,,,,,,,,,,,,,,,
,,5b8eda7cdc2b880001b6f1de,2024-02-19_02h16.12.540,kallum_motion_pilot,2023.2.2,Win32,49.75124378,5b8eda7cdc2b880001b6f1de,65d2b6c8f2eece985d8e374c,65d2b9ded639e9a9380fdd3c,0.1018,0.1019,0,148,148,20,1,threeone,,,,,,,,,,,,,,,,,,,,,,,,,,,,,,,,,,,,,,,,,,,,,,,,,,,,,,,,,,,,,,,,,,,,,,,,,,,,,,,,,,,,,,,,,,,,,,,,,,,,,,,,,,,,,,,,,,,,,,,,,,,,,,,,,,,,,,,,,
,,5b8eda7cdc2b880001b6f1de,2024-02-19_02h16.12.540,kallum_motion_pilot,2023.2.2,Win32,49.75124378,5b8eda7cdc2b880001b6f1de,65d2b6c8f2eece985d8e374c,65d2b9ded639e9a9380fdd3c,0.1022,0.1023,0,149,149,122,1,sixfive,,,,,,,,,,,,,,,,,,,,,,,,,,,,,,,,,,,,,,,,,,,,,,,,,,,,,,,,,,,,,,,,,,,,,,,,,,,,,,,,,,,,,,,,,,,,,,,,,,,,,,,,,,,,,,,,,,,,,,,,,,,,,,,,,,,,,,,,,
,,5b8eda7cdc2b880001b6f1de,2024-02-19_02h16.12.540,kallum_motion_pilot,2023.2.2,Win32,49.75124378,5b8eda7cdc2b880001b6f1de,65d2b6c8f2eece985d8e374c,65d2b9ded639e9a9380fdd3c,0.1026,0.1027,0,150,150,157,1,seveneight,,,,,,,,,,,,,,,,,,,,,,,,,,,,,,,,,,,,,,,,,,,,,,,,,,,,,,,,,,,,,,,,,,,,,,,,,,,,,,,,,,,,,,,,,,,,,,,,,,,,,,,,,,,,,,,,,,,,,,,,,,,,,,,,,,,,,,,,,
,,5b8eda7cdc2b880001b6f1de,2024-02-19_02h16.12.540,kallum_motion_pilot,2023.2.2,Win32,49.75124378,5b8eda7cdc2b880001b6f1de,65d2b6c8f2eece985d8e374c,65d2b9ded639e9a9380fdd3c,0.1029,0.103,0,151,151,1,1,onethree,,,,,,,,,,,,,,,,,,,,,,,,,,,,,,,,,,,,,,,,,,,,,,,,,,,,,,,,,,,,,,,,,,,,,,,,,,,,,,,,,,,,,,,,,,,,,,,,,,,,,,,,,,,,,,,,,,,,,,,,,,,,,,,,,,,,,,,,,
,,5b8eda7cdc2b880001b6f1de,2024-02-19_02h16.12.540,kallum_motion_pilot,2023.2.2,Win32,49.75124378,5b8eda7cdc2b880001b6f1de,65d2b6c8f2eece985d8e374c,65d2b9ded639e9a9380fdd3c,0.1033,0.1035,0,152,152,137,1,fiveseven,,,,,,,,,,,,,,,,,,,,,,,,,,,,,,,,,,,,,,,,,,,,,,,,,,,,,,,,,,,,,,,,,,,,,,,,,,,,,,,,,,,,,,,,,,,,,,,,,,,,,,,,,,,,,,,,,,,,,,,,,,,,,,,,,,,,,,,,,
,,5b8eda7cdc2b880001b6f1de,2024-02-19_02h16.12.540,kallum_motion_pilot,2023.2.2,Win32,49.75124378,5b8eda7cdc2b880001b6f1de,65d2b6c8f2eece985d8e374c,65d2b9ded639e9a9380fdd3c,0.1038,0.104,0,153,153,111,1,eightseven,,,,,,,,,,,,,,,,,,,,,,,,,,,,,,,,,,,,,,,,,,,,,,,,,,,,,,,,,,,,,,,,,,,,,,,,,,,,,,,,,,,,,,,,,,,,,,,,,,,,,,,,,,,,,,,,,,,,,,,,,,,,,,,,,,,,,,,,,
,,5b8eda7cdc2b880001b6f1de,2024-02-19_02h16.12.540,kallum_motion_pilot,2023.2.2,Win32,49.75124378,5b8eda7cdc2b880001b6f1de,65d2b6c8f2eece985d8e374c,65d2b9ded639e9a9380fdd3c,0.1041,0.1044,0,154,154,114,1,sixfive,,,,,,,,,,,,,,,,,,,,,,,,,,,,,,,,,,,,,,,,,,,,,,,,,,,,,,,,,,,,,,,,,,,,,,,,,,,,,,,,,,,,,,,,,,,,,,,,,,,,,,,,,,,,,,,,,,,,,,,,,,,,,,,,,,,,,,,,,
,,5b8eda7cdc2b880001b6f1de,2024-02-19_02h16.12.540,kallum_motion_pilot,2023.2.2,Win32,49.75124378,5b8eda7cdc2b880001b6f1de,65d2b6c8f2eece985d8e374c,65d2b9ded639e9a9380fdd3c,0.1046,0.1047,0,155,155,100,1,sevenfive,,,,,,,,,,,,,,,,,,,,,,,,,,,,,,,,,,,,,,,,,,,,,,,,,,,,,,,,,,,,,,,,,,,,,,,,,,,,,,,,,,,,,,,,,,,,,,,,,,,,,,,,,,,,,,,,,,,,,,,,,,,,,,,,,,,,,,,,,
,,5b8eda7cdc2b880001b6f1de,2024-02-19_02h16.12.540,kallum_motion_pilot,2023.2.2,Win32,49.75124378,5b8eda7cdc2b880001b6f1de,65d2b6c8f2eece985d8e374c,65d2b9ded639e9a9380fdd3c,0.105,0.1052,0,156,156,110,1,eightsix,,,,,,,,,,,,,,,,,,,,,,,,,,,,,,,,,,,,,,,,,,,,,,,,,,,,,,,,,,,,,,,,,,,,,,,,,,,,,,,,,,,,,,,,,,,,,,,,,,,,,,,,,,,,,,,,,,,,,,,,,,,,,,,,,,,,,,,,,
,,5b8eda7cdc2b880001b6f1de,2024-02-19_02h16.12.540,kallum_motion_pilot,2023.2.2,Win32,49.75124378,5b8eda7cdc2b880001b6f1de,65d2b6c8f2eece985d8e374c,65d2b9ded639e9a9380fdd3c,0.1054,0.1056,0,157,157,135,1,eightseven,,,,,,,,,,,,,,,,,,,,,,,,,,,,,,,,,,,,,,,,,,,,,,,,,,,,,,,,,,,,,,,,,,,,,,,,,,,,,,,,,,,,,,,,,,,,,,,,,,,,,,,,,,,,,,,,,,,,,,,,,,,,,,,,,,,,,,,,,
,,5b8eda7cdc2b880001b6f1de,2024-02-19_02h16.12.540,kallum_motion_pilot,2023.2.2,Win32,49.75124378,5b8eda7cdc2b880001b6f1de,65d2b6c8f2eece985d8e374c,65d2b9ded639e9a9380fdd3c,0.1058,0.106,0,158,158,16,1,onetwo,,,,,,,,,,,,,,,,,,,,,,,,,,,,,,,,,,,,,,,,,,,,,,,,,,,,,,,,,,,,,,,,,,,,,,,,,,,,,,,,,,,,,,,,,,,,,,,,,,,,,,,,,,,,,,,,,,,,,,,,,,,,,,,,,,,,,,,,,
,,5b8eda7cdc2b880001b6f1de,2024-02-19_02h16.12.540,kallum_motion_pilot,2023.2.2,Win32,49.75124378,5b8eda7cdc2b880001b6f1de,65d2b6c8f2eece985d8e374c,65d2b9ded639e9a9380fdd3c,0.1063,0.1063,0,159,159,18,1,twoone,,,,,,,,,,,,,,,,,,,,,,,,,,,,,,,,,,,,,,,,,,,,,,,,,,,,,,,,,,,,,,,,,,,,,,,,,,,,,,,,,,,,,,,,,,,,,,,,,,,,,,,,,,,,,,,,,,,,,,,,,,,,,,,,,,,,,,,,,
,,5b8eda7cdc2b880001b6f1de,2024-02-19_02h16.12.540,kallum_motion_pilot,2023.2.2,Win32,49.75124378,5b8eda7cdc2b880001b6f1de,65d2b6c8f2eece985d8e374c,65d2b9ded639e9a9380fdd3c,0.1067,0.1069,0,160,160,138,1,sixfive,,,,,,,,,,,,,,,,,,,,,,,,,,,,,,,,,,,,,,,,,,,,,,,,,,,,,,,,,,,,,,,,,,,,,,,,,,,,,,,,,,,,,,,,,,,,,,,,,,,,,,,,,,,,,,,,,,,,,,,,,,,,,,,,,,,,,,,,,
,,5b8eda7cdc2b880001b6f1de,2024-02-19_02h16.12.540,kallum_motion_pilot,2023.2.2,Win32,49.75124378,5b8eda7cdc2b880001b6f1de,65d2b6c8f2eece985d8e374c,65d2b9ded639e9a9380fdd3c,0.1072,0.1074,0,161,161,30,1,fourtwo,,,,,,,,,,,,,,,,,,,,,,,,,,,,,,,,,,,,,,,,,,,,,,,,,,,,,,,,,,,,,,,,,,,,,,,,,,,,,,,,,,,,,,,,,,,,,,,,,,,,,,,,,,,,,,,,,,,,,,,,,,,,,,,,,,,,,,,,,
,,5b8eda7cdc2b880001b6f1de,2024-02-19_02h16.12.540,kallum_motion_pilot,2023.2.2,Win32,49.75124378,5b8eda7cdc2b880001b6f1de,65d2b6c8f2eece985d8e374c,65d2b9ded639e9a9380fdd3c,0.1077,0.1078,1,0,162,97,1,fiveseven,,,,,,,,,,,,,,,,,,,,,,,,,,,,,,,,,,,,,,,,,,,,,,,,,,,,,,,,,,,,,,,,,,,,,,,,,,,,,,,,,,,,,,,,,,,,,,,,,,,,,,,,,,,,,,,,,,,,,,,,,,,,,,,,,,,,,,,,,
,,5b8eda7cdc2b880001b6f1de,2024-02-19_02h16.12.540,kallum_motion_pilot,2023.2.2,Win32,49.75124378,5b8eda7cdc2b880001b6f1de,65d2b6c8f2eece985d8e374c,65d2b9ded639e9a9380fdd3c,0.108,0.1082,1,1,163,74,1,twoone,,,,,,,,,,,,,,,,,,,,,,,,,,,,,,,,,,,,,,,,,,,,,,,,,,,,,,,,,,,,,,,,,,,,,,,,,,,,,,,,,,,,,,,,,,,,,,,,,,,,,,,,,,,,,,,,,,,,,,,,,,,,,,,,,,,,,,,,,
,,5b8eda7cdc2b880001b6f1de,2024-02-19_02h16.12.540,kallum_motion_pilot,2023.2.2,Win32,49.75124378,5b8eda7cdc2b880001b6f1de,65d2b6c8f2eece985d8e374c,65d2b9ded639e9a9380fdd3c,0.1085,0.1087,1,2,164,154,1,sixfive,,,,,,,,,,,,,,,,,,,,,,,,,,,,,,,,,,,,,,,,,,,,,,,,,,,,,,,,,,,,,,,,,,,,,,,,,,,,,,,,,,,,,,,,,,,,,,,,,,,,,,,,,,,,,,,,,,,,,,,,,,,,,,,,,,,,,,,,,
,,5b8eda7cdc2b880001b6f1de,2024-02-19_02h16.12.540,kallum_motion_pilot,2023.2.2,Win32,49.75124378,5b8eda7cdc2b880001b6f1de,65d2b6c8f2eece985d8e374c,65d2b9ded639e9a9380fdd3c,0.1089,0.109,1,3,165,54,1,fourtwo,,,,,,,,,,,,,,,,,,,,,,,,,,,,,,,,,,,,,,,,,,,,,,,,,,,,,,,,,,,,,,,,,,,,,,,,,,,,,,,,,,,,,,,,,,,,,,,,,,,,,,,,,,,,,,,,,,,,,,,,,,,,,,,,,,,,,,,,,
,,5b8eda7cdc2b880001b6f1de,2024-02-19_02h16.12.540,kallum_motion_pilot,2023.2.2,Win32,49.75124378,5b8eda7cdc2b880001b6f1de,65d2b6c8f2eece985d8e374c,65d2b9ded639e9a9380fdd3c,0.1093,0.1095,1,4,166,29,1,threefour,,,,,,,,,,,,,,,,,,,,,,,,,,,,,,,,,,,,,,,,,,,,,,,,,,,,,,,,,,,,,,,,,,,,,,,,,,,,,,,,,,,,,,,,,,,,,,,,,,,,,,,,,,,,,,,,,,,,,,,,,,,,,,,,,,,,,,,,,
,,5b8eda7cdc2b880001b6f1de,2024-02-19_02h16.12.540,kallum_motion_pilot,2023.2.2,Win32,49.75124378,5b8eda7cdc2b880001b6f1de,65d2b6c8f2eece985d8e374c,65d2b9ded639e9a9380fdd3c,0.1097,0.1098,1,5,167,51,1,twofour,,,,,,,,,,,,,,,,,,,,,,,,,,,,,,,,,,,,,,,,,,,,,,,,,,,,,,,,,,,,,,,,,,,,,,,,,,,,,,,,,,,,,,,,,,,,,,,,,,,,,,,,,,,,,,,,,,,,,,,,,,,,,,,,,,,,,,,,,
,,5b8eda7cdc2b880001b6f1de,2024-02-19_02h16.12.540,kallum_motion_pilot,2023.2.2,Win32,49.75124378,5b8eda7cdc2b880001b6f1de,65d2b6c8f2eece985d8e374c,65d2b9ded639e9a9380fdd3c,0.11,0.1102,1,6,168,69,1,threefour,,,,,,,,,,,,,,,,,,,,,,,,,,,,,,,,,,,,,,,,,,,,,,,,,,,,,,,,,,,,,,,,,,,,,,,,,,,,,,,,,,,,,,,,,,,,,,,,,,,,,,,,,,,,,,,,,,,,,,,,,,,,,,,,,,,,,,,,,
,,5b8eda7cdc2b880001b6f1de,2024-02-19_02h16.12.540,kallum_motion_pilot,2023.2.2,Win32,49.75124378,5b8eda7cdc2b880001b6f1de,65d2b6c8f2eece985d8e374c,65d2b9ded639e9a9380fdd3c,0.1104,0.1105,1,7,169,49,1,onethree,,,,,,,,,,,,,,,,,,,,,,,,,,,,,,,,,,,,,,,,,,,,,,,,,,,,,,,,,,,,,,,,,,,,,,,,,,,,,,,,,,,,,,,,,,,,,,,,,,,,,,,,,,,,,,,,,,,,,,,,,,,,,,,,,,,,,,,,,
,,5b8eda7cdc2b880001b6f1de,2024-02-19_02h16.12.540,kallum_motion_pilot,2023.2.2,Win32,49.75124378,5b8eda7cdc2b880001b6f1de,65d2b6c8f2eece985d8e374c,65d2b9ded639e9a9380fdd3c,0.1108,0.111,1,8,170,10,1,twoone,,,,,,,,,,,,,,,,,,,,,,,,,,,,,,,,,,,,,,,,,,,,,,,,,,,,,,,,,,,,,,,,,,,,,,,,,,,,,,,,,,,,,,,,,,,,,,,,,,,,,,,,,,,,,,,,,,,,,,,,,,,,,,,,,,,,,,,,,
,,5b8eda7cdc2b880001b6f1de,2024-02-19_02h16.12.540,kallum_motion_pilot,2023.2.2,Win32,49.75124378,5b8eda7cdc2b880001b6f1de,65d2b6c8f2eece985d8e374c,65d2b9ded639e9a9380fdd3c,0.1112,0.1113,1,9,171,133,1,seveneight,,,,,,,,,,,,,,,,,,,,,,,,,,,,,,,,,,,,,,,,,,,,,,,,,,,,,,,,,,,,,,,,,,,,,,,,,,,,,,,,,,,,,,,,,,,,,,,,,,,,,,,,,,,,,,,,,,,,,,,,,,,,,,,,,,,,,,,,,
,,5b8eda7cdc2b880001b6f1de,2024-02-19_02h16.12.540,kallum_motion_pilot,2023.2.2,Win32,49.75124378,5b8eda7cdc2b880001b6f1de,65d2b6c8f2eece985d8e374c,65d2b9ded639e9a9380fdd3c,0.1116,0.1117,1,10,172,44,1,threeone,,,,,,,,,,,,,,,,,,,,,,,,,,,,,,,,,,,,,,,,,,,,,,,,,,,,,,,,,,,,,,,,,,,,,,,,,,,,,,,,,,,,,,,,,,,,,,,,,,,,,,,,,,,,,,,,,,,,,,,,,,,,,,,,,,,,,,,,,
,,5b8eda7cdc2b880001b6f1de,2024-02-19_02h16.12.540,kallum_motion_pilot,2023.2.2,Win32,49.75124378,5b8eda7cdc2b880001b6f1de,65d2b6c8f2eece985d8e374c,65d2b9ded639e9a9380fdd3c,0.1119,0.1121,1,11,173,159,1,eightseven,,,,,,,,,,,,,,,,,,,,,,,,,,,,,,,,,,,,,,,,,,,,,,,,,,,,,,,,,,,,,,,,,,,,,,,,,,,,,,,,,,,,,,,,,,,,,,,,,,,,,,,,,,,,,,,,,,,,,,,,,,,,,,,,,,,,,,,,,
,,5b8eda7cdc2b880001b6f1de,2024-02-19_02h16.12.540,kallum_motion_pilot,2023.2.2,Win32,49.75124378,5b8eda7cdc2b880001b6f1de,65d2b6c8f2eece985d8e374c,65d2b9ded639e9a9380fdd3c,0.1123,0.1124,1,12,174,75,1,twofour,,,,,,,,,,,,,,,,,,,,,,,,,,,,,,,,,,,,,,,,,,,,,,,,,,,,,,,,,,,,,,,,,,,,,,,,,,,,,,,,,,,,,,,,,,,,,,,,,,,,,,,,,,,,,,,,,,,,,,,,,,,,,,,,,,,,,,,,,
,,5b8eda7cdc2b880001b6f1de,2024-02-19_02h16.12.540,kallum_motion_pilot,2023.2.2,Win32,49.75124378,5b8eda7cdc2b880001b6f1de,65d2b6c8f2eece985d8e374c,65d2b9ded639e9a9380fdd3c,0.1127,0.1128,1,13,175,71,1,fourthree,,,,,,,,,,,,,,,,,,,,,,,,,,,,,,,,,,,,,,,,,,,,,,,,,,,,,,,,,,,,,,,,,,,,,,,,,,,,,,,,,,,,,,,,,,,,,,,,,,,,,,,,,,,,,,,,,,,,,,,,,,,,,,,,,,,,,,,,,
,,5b8eda7cdc2b880001b6f1de,2024-02-19_02h16.12.540,kallum_motion_pilot,2023.2.2,Win32,49.75124378,5b8eda7cdc2b880001b6f1de,65d2b6c8f2eece985d8e374c,65d2b9ded639e9a9380fdd3c,0.113,0.1131,1,14,176,156,1,sevenfive,,,,,,,,,,,,,,,,,,,,,,,,,,,,,,,,,,,,,,,,,,,,,,,,,,,,,,,,,,,,,,,,,,,,,,,,,,,,,,,,,,,,,,,,,,,,,,,,,,,,,,,,,,,,,,,,,,,,,,,,,,,,,,,,,,,,,,,,,
,,5b8eda7cdc2b880001b6f1de,2024-02-19_02h16.12.540,kallum_motion_pilot,2023.2.2,Win32,49.75124378,5b8eda7cdc2b880001b6f1de,65d2b6c8f2eece985d8e374c,65d2b9ded639e9a9380fdd3c,0.1133,0.1135,1,15,177,30,1,fourtwo,,,,,,,,,,,,,,,,,,,,,,,,,,,,,,,,,,,,,,,,,,,,,,,,,,,,,,,,,,,,,,,,,,,,,,,,,,,,,,,,,,,,,,,,,,,,,,,,,,,,,,,,,,,,,,,,,,,,,,,,,,,,,,,,,,,,,,,,,
,,5b8eda7cdc2b880001b6f1de,2024-02-19_02h16.12.540,kallum_motion_pilot,2023.2.2,Win32,49.75124378,5b8eda7cdc2b880001b6f1de,65d2b6c8f2eece985d8e374c,65d2b9ded639e9a9380fdd3c,0.1138,0.1138,1,16,178,148,1,sevenfive,,,,,,,,,,,,,,,,,,,,,,,,,,,,,,,,,,,,,,,,,,,,,,,,,,,,,,,,,,,,,,,,,,,,,,,,,,,,,,,,,,,,,,,,,,,,,,,,,,,,,,,,,,,,,,,,,,,,,,,,,,,,,,,,,,,,,,,,,
,,5b8eda7cdc2b880001b6f1de,2024-02-19_02h16.12.540,kallum_motion_pilot,2023.2.2,Win32,49.75124378,5b8eda7cdc2b880001b6f1de,65d2b6c8f2eece985d8e374c,65d2b9ded639e9a9380fdd3c,0.1141,0.1143,1,17,179,107,1,sixeight,,,,,,,,,,,,,,,,,,,,,,,,,,,,,,,,,,,,,,,,,,,,,,,,,,,,,,,,,,,,,,,,,,,,,,,,,,,,,,,,,,,,,,,,,,,,,,,,,,,,,,,,,,,,,,,,,,,,,,,,,,,,,,,,,,,,,,,,,
,,5b8eda7cdc2b880001b6f1de,2024-02-19_02h16.12.540,kallum_motion_pilot,2023.2.2,Win32,49.75124378,5b8eda7cdc2b880001b6f1de,65d2b6c8f2eece985d8e374c,65d2b9ded639e9a9380fdd3c,0.1145,0.1146,1,18,180,129,1,fiveseven,,,,,,,,,,,,,,,,,,,,,,,,,,,,,,,,,,,,,,,,,,,,,,,,,,,,,,,,,,,,,,,,,,,,,,,,,,,,,,,,,,,,,,,,,,,,,,,,,,,,,,,,,,,,,,,,,,,,,,,,,,,,,,,,,,,,,,,,,
,,5b8eda7cdc2b880001b6f1de,2024-02-19_02h16.12.540,kallum_motion_pilot,2023.2.2,Win32,49.75124378,5b8eda7cdc2b880001b6f1de,65d2b6c8f2eece985d8e374c,65d2b9ded639e9a9380fdd3c,0.1148,0.1149,1,19,181,8,1,onetwo,,,,,,,,,,,,,,,,,,,,,,,,,,,,,,,,,,,,,,,,,,,,,,,,,,,,,,,,,,,,,,,,,,,,,,,,,,,,,,,,,,,,,,,,,,,,,,,,,,,,,,,,,,,,,,,,,,,,,,,,,,,,,,,,,,,,,,,,,
,,5b8eda7cdc2b880001b6f1de,2024-02-19_02h16.12.540,kallum_motion_pilot,2023.2.2,Win32,49.75124378,5b8eda7cdc2b880001b6f1de,65d2b6c8f2eece985d8e374c,65d2b9ded639e9a9380fdd3c,0.1152,0.1153,1,20,182,78,1,fourtwo,,,,,,,,,,,,,,,,,,,,,,,,,,,,,,,,,,,,,,,,,,,,,,,,,,,,,,,,,,,,,,,,,,,,,,,,,,,,,,,,,,,,,,,,,,,,,,,,,,,,,,,,,,,,,,,,,,,,,,,,,,,,,,,,,,,,,,,,,
,,5b8eda7cdc2b880001b6f1de,2024-02-19_02h16.12.540,kallum_motion_pilot,2023.2.2,Win32,49.75124378,5b8eda7cdc2b880001b6f1de,65d2b6c8f2eece985d8e374c,65d2b9ded639e9a9380fdd3c,0.1159,0.1161,1,21,183,124,1,sevenfive,,,,,,,,,,,,,,,,,,,,,,,,,,,,,,,,,,,,,,,,,,,,,,,,,,,,,,,,,,,,,,,,,,,,,,,,,,,,,,,,,,,,,,,,,,,,,,,,,,,,,,,,,,,,,,,,,,,,,,,,,,,,,,,,,,,,,,,,,
,,5b8eda7cdc2b880001b6f1de,2024-02-19_02h16.12.540,kallum_motion_pilot,2023.2.2,Win32,49.75124378,5b8eda7cdc2b880001b6f1de,65d2b6c8f2eece985d8e374c,65d2b9ded639e9a9380fdd3c,0.1166,0.1168,1,22,184,130,1,sixfive,,,,,,,,,,,,,,,,,,,,,,,,,,,,,,,,,,,,,,,,,,,,,,,,,,,,,,,,,,,,,,,,,,,,,,,,,,,,,,,,,,,,,,,,,,,,,,,,,,,,,,,,,,,,,,,,,,,,,,,,,,,,,,,,,,,,,,,,,
,,5b8eda7cdc2b880001b6f1de,2024-02-19_02h16.12.540,kallum_motion_pilot,2023.2.2,Win32,49.75124378,5b8eda7cdc2b880001b6f1de,65d2b6c8f2eece985d8e374c,65d2b9ded639e9a9380fdd3c,0.1172,0.1175,1,23,185,94,1,eightsix,,,,,,,,,,,,,,,,,,,,,,,,,,,,,,,,,,,,,,,,,,,,,,,,,,,,,,,,,,,,,,,,,,,,,,,,,,,,,,,,,,,,,,,,,,,,,,,,,,,,,,,,,,,,,,,,,,,,,,,,,,,,,,,,,,,,,,,,,
,,5b8eda7cdc2b880001b6f1de,2024-02-19_02h16.12.540,kallum_motion_pilot,2023.2.2,Win32,49.75124378,5b8eda7cdc2b880001b6f1de,65d2b6c8f2eece985d8e374c,65d2b9ded639e9a9380fdd3c,0.1177,0.1179,1,24,186,55,1,fourthree,,,,,,,,,,,,,,,,,,,,,,,,,,,,,,,,,,,,,,,,,,,,,,,,,,,,,,,,,,,,,,,,,,,,,,,,,,,,,,,,,,,,,,,,,,,,,,,,,,,,,,,,,,,,,,,,,,,,,,,,,,,,,,,,,,,,,,,,,
,,5b8eda7cdc2b880001b6f1de,2024-02-19_02h16.12.540,kallum_motion_pilot,2023.2.2,Win32,49.75124378,5b8eda7cdc2b880001b6f1de,65d2b6c8f2eece985d8e374c,65d2b9ded639e9a9380fdd3c,0.1182,0.1184,1,25,187,38,1,fourtwo,,,,,,,,,,,,,,,,,,,,,,,,,,,,,,,,,,,,,,,,,,,,,,,,,,,,,,,,,,,,,,,,,,,,,,,,,,,,,,,,,,,,,,,,,,,,,,,,,,,,,,,,,,,,,,,,,,,,,,,,,,,,,,,,,,,,,,,,,
,,5b8eda7cdc2b880001b6f1de,2024-02-19_02h16.12.540,kallum_motion_pilot,2023.2.2,Win32,49.75124378,5b8eda7cdc2b880001b6f1de,65d2b6c8f2eece985d8e374c,65d2b9ded639e9a9380fdd3c,0.1186,0.1188,1,26,188,147,1,sixeight,,,,,,,,,,,,,,,,,,,,,,,,,,,,,,,,,,,,,,,,,,,,,,,,,,,,,,,,,,,,,,,,,,,,,,,,,,,,,,,,,,,,,,,,,,,,,,,,,,,,,,,,,,,,,,,,,,,,,,,,,,,,,,,,,,,,,,,,,
,,5b8eda7cdc2b880001b6f1de,2024-02-19_02h16.12.540,kallum_motion_pilot,2023.2.2,Win32,49.75124378,5b8eda7cdc2b880001b6f1de,65d2b6c8f2eece985d8e374c,65d2b9ded639e9a9380fdd3c,0.119,0.1192,1,27,189,45,1,threefour,,,,,,,,,,,,,,,,,,,,,,,,,,,,,,,,,,,,,,,,,,,,,,,,,,,,,,,,,,,,,,,,,,,,,,,,,,,,,,,,,,,,,,,,,,,,,,,,,,,,,,,,,,,,,,,,,,,,,,,,,,,,,,,,,,,,,,,,,
,,5b8eda7cdc2b880001b6f1de,2024-02-19_02h16.12.540,kallum_motion_pilot,2023.2.2,Win32,49.75124378,5b8eda7cdc2b880001b6f1de,65d2b6c8f2eece985d8e374c,65d2b9ded639e9a9380fdd3c,0.1194,0.1197,1,28,190,115,1,sixeight,,,,,,,,,,,,,,,,,,,,,,,,,,,,,,,,,,,,,,,,,,,,,,,,,,,,,,,,,,,,,,,,,,,,,,,,,,,,,,,,,,,,,,,,,,,,,,,,,,,,,,,,,,,,,,,,,,,,,,,,,,,,,,,,,,,,,,,,,
,,5b8eda7cdc2b880001b6f1de,2024-02-19_02h16.12.540,kallum_motion_pilot,2023.2.2,Win32,49.75124378,5b8eda7cdc2b880001b6f1de,65d2b6c8f2eece985d8e374c,65d2b9ded639e9a9380fdd3c,0.1199,0.1201,1,29,191,31,1,fourthree,,,,,,,,,,,,,,,,,,,,,,,,,,,,,,,,,,,,,,,,,,,,,,,,,,,,,,,,,,,,,,,,,,,,,,,,,,,,,,,,,,,,,,,,,,,,,,,,,,,,,,,,,,,,,,,,,,,,,,,,,,,,,,,,,,,,,,,,,
,,5b8eda7cdc2b880001b6f1de,2024-02-19_02h16.12.540,kallum_motion_pilot,2023.2.2,Win32,49.75124378,5b8eda7cdc2b880001b6f1de,65d2b6c8f2eece985d8e374c,65d2b9ded639e9a9380fdd3c,0.1203,0.1205,1,30,192,6,1,fourtwo,,,,,,,,,,,,,,,,,,,,,,,,,,,,,,,,,,,,,,,,,,,,,,,,,,,,,,,,,,,,,,,,,,,,,,,,,,,,,,,,,,,,,,,,,,,,,,,,,,,,,,,,,,,,,,,,,,,,,,,,,,,,,,,,,,,,,,,,,
,,5b8eda7cdc2b880001b6f1de,2024-02-19_02h16.12.540,kallum_motion_pilot,2023.2.2,Win32,49.75124378,5b8eda7cdc2b880001b6f1de,65d2b6c8f2eece985d8e374c,65d2b9ded639e9a9380fdd3c,0.1207,0.1209,1,31,193,145,1,fiveseven,,,,,,,,,,,,,,,,,,,,,,,,,,,,,,,,,,,,,,,,,,,,,,,,,,,,,,,,,,,,,,,,,,,,,,,,,,,,,,,,,,,,,,,,,,,,,,,,,,,,,,,,,,,,,,,,,,,,,,,,,,,,,,,,,,,,,,,,,
,,5b8eda7cdc2b880001b6f1de,2024-02-19_02h16.12.540,kallum_motion_pilot,2023.2.2,Win32,49.75124378,5b8eda7cdc2b880001b6f1de,65d2b6c8f2eece985d8e374c,65d2b9ded639e9a9380fdd3c,0.1211,0.1213,1,32,194,104,1,fivesix,,,,,,,,,,,,,,,,,,,,,,,,,,,,,,,,,,,,,,,,,,,,,,,,,,,,,,,,,,,,,,,,,,,,,,,,,,,,,,,,,,,,,,,,,,,,,,,,,,,,,,,,,,,,,,,,,,,,,,,,,,,,,,,,,,,,,,,,,
,,5b8eda7cdc2b880001b6f1de,2024-02-19_02h16.12.540,kallum_motion_pilot,2023.2.2,Win32,49.75124378,5b8eda7cdc2b880001b6f1de,65d2b6c8f2eece985d8e374c,65d2b9ded639e9a9380fdd3c,0.1215,0.1217,1,33,195,140,1,sevenfive,,,,,,,,,,,,,,,,,,,,,,,,,,,,,,,,,,,,,,,,,,,,,,,,,,,,,,,,,,,,,,,,,,,,,,,,,,,,,,,,,,,,,,,,,,,,,,,,,,,,,,,,,,,,,,,,,,,,,,,,,,,,,,,,,,,,,,,,,
,,5b8eda7cdc2b880001b6f1de,2024-02-19_02h16.12.540,kallum_motion_pilot,2023.2.2,Win32,49.75124378,5b8eda7cdc2b880001b6f1de,65d2b6c8f2eece985d8e374c,65d2b9ded639e9a9380fdd3c,0.1219,0.1221,1,34,196,128,1,fivesix,,,,,,,,,,,,,,,,,,,,,,,,,,,,,,,,,,,,,,,,,,,,,,,,,,,,,,,,,,,,,,,,,,,,,,,,,,,,,,,,,,,,,,,,,,,,,,,,,,,,,,,,,,,,,,,,,,,,,,,,,,,,,,,,,,,,,,,,,
,,5b8eda7cdc2b880001b6f1de,2024-02-19_02h16.12.540,kallum_motion_pilot,2023.2.2,Win32,49.75124378,5b8eda7cdc2b880001b6f1de,65d2b6c8f2eece985d8e374c,65d2b9ded639e9a9380fdd3c,0.1223,0.1225,1,35,197,158,1,eightsix,,,,,,,,,,,,,,,,,,,,,,,,,,,,,,,,,,,,,,,,,,,,,,,,,,,,,,,,,,,,,,,,,,,,,,,,,,,,,,,,,,,,,,,,,,,,,,,,,,,,,,,,,,,,,,,,,,,,,,,,,,,,,,,,,,,,,,,,,
,,5b8eda7cdc2b880001b6f1de,2024-02-19_02h16.12.540,kallum_motion_pilot,2023.2.2,Win32,49.75124378,5b8eda7cdc2b880001b6f1de,65d2b6c8f2eece985d8e374c,65d2b9ded639e9a9380fdd3c,0.1227,0.1229,1,36,198,72,1,onetwo,,,,,,,,,,,,,,,,,,,,,,,,,,,,,,,,,,,,,,,,,,,,,,,,,,,,,,,,,,,,,,,,,,,,,,,,,,,,,,,,,,,,,,,,,,,,,,,,,,,,,,,,,,,,,,,,,,,,,,,,,,,,,,,,,,,,,,,,,
,,5b8eda7cdc2b880001b6f1de,2024-02-19_02h16.12.540,kallum_motion_pilot,2023.2.2,Win32,49.75124378,5b8eda7cdc2b880001b6f1de,65d2b6c8f2eece985d8e374c,65d2b9ded639e9a9380fdd3c,0.1231,0.1232,1,37,199,85,1,seveneight,,,,,,,,,,,,,,,,,,,,,,,,,,,,,,,,,,,,,,,,,,,,,,,,,,,,,,,,,,,,,,,,,,,,,,,,,,,,,,,,,,,,,,,,,,,,,,,,,,,,,,,,,,,,,,,,,,,,,,,,,,,,,,,,,,,,,,,,,
,,5b8eda7cdc2b880001b6f1de,2024-02-19_02h16.12.540,kallum_motion_pilot,2023.2.2,Win32,49.75124378,5b8eda7cdc2b880001b6f1de,65d2b6c8f2eece985d8e374c,65d2b9ded639e9a9380fdd3c,0.1235,0.1237,1,38,200,146,1,sixfive,,,,,,,,,,,,,,,,,,,,,,,,,,,,,,,,,,,,,,,,,,,,,,,,,,,,,,,,,,,,,,,,,,,,,,,,,,,,,,,,,,,,,,,,,,,,,,,,,,,,,,,,,,,,,,,,,,,,,,,,,,,,,,,,,,,,,,,,,
,,5b8eda7cdc2b880001b6f1de,2024-02-19_02h16.12.540,kallum_motion_pilot,2023.2.2,Win32,49.75124378,5b8eda7cdc2b880001b6f1de,65d2b6c8f2eece985d8e374c,65d2b9ded639e9a9380fdd3c,0.1239,0.124,1,39,201,149,1,seveneight,,,,,,,,,,,,,,,,,,,,,,,,,,,,,,,,,,,,,,,,,,,,,,,,,,,,,,,,,,,,,,,,,,,,,,,,,,,,,,,,,,,,,,,,,,,,,,,,,,,,,,,,,,,,,,,,,,,,,,,,,,,,,,,,,,,,,,,,,
,,5b8eda7cdc2b880001b6f1de,2024-02-19_02h16.12.540,kallum_motion_pilot,2023.2.2,Win32,49.75124378,5b8eda7cdc2b880001b6f1de,65d2b6c8f2eece985d8e374c,65d2b9ded639e9a9380fdd3c,0.1243,0.1244,1,40,202,9,1,onethree,,,,,,,,,,,,,,,,,,,,,,,,,,,,,,,,,,,,,,,,,,,,,,,,,,,,,,,,,,,,,,,,,,,,,,,,,,,,,,,,,,,,,,,,,,,,,,,,,,,,,,,,,,,,,,,,,,,,,,,,,,,,,,,,,,,,,,,,,
,,5b8eda7cdc2b880001b6f1de,2024-02-19_02h16.12.540,kallum_motion_pilot,2023.2.2,Win32,49.75124378,5b8eda7cdc2b880001b6f1de,65d2b6c8f2eece985d8e374c,65d2b9ded639e9a9380fdd3c,0.1246,0.1248,1,41,203,151,1,eightseven,,,,,,,,,,,,,,,,,,,,,,,,,,,,,,,,,,,,,,,,,,,,,,,,,,,,,,,,,,,,,,,,,,,,,,,,,,,,,,,,,,,,,,,,,,,,,,,,,,,,,,,,,,,,,,,,,,,,,,,,,,,,,,,,,,,,,,,,,
,,5b8eda7cdc2b880001b6f1de,2024-02-19_02h16.12.540,kallum_motion_pilot,2023.2.2,Win32,49.75124378,5b8eda7cdc2b880001b6f1de,65d2b6c8f2eece985d8e374c,65d2b9ded639e9a9380fdd3c,0.125,0.1252,1,42,204,95,1,eightseven,,,,,,,,,,,,,,,,,,,,,,,,,,,,,,,,,,,,,,,,,,,,,,,,,,,,,,,,,,,,,,,,,,,,,,,,,,,,,,,,,,,,,,,,,,,,,,,,,,,,,,,,,,,,,,,,,,,,,,,,,,,,,,,,,,,,,,,,,
,,5b8eda7cdc2b880001b6f1de,2024-02-19_02h16.12.540,kallum_motion_pilot,2023.2.2,Win32,49.75124378,5b8eda7cdc2b880001b6f1de,65d2b6c8f2eece985d8e374c,65d2b9ded639e9a9380fdd3c,0.1253,0.1255,1,43,205,123,1,sixeight,,,,,,,,,,,,,,,,,,,,,,,,,,,,,,,,,,,,,,,,,,,,,,,,,,,,,,,,,,,,,,,,,,,,,,,,,,,,,,,,,,,,,,,,,,,,,,,,,,,,,,,,,,,,,,,,,,,,,,,,,,,,,,,,,,,,,,,,,
,,5b8eda7cdc2b880001b6f1de,2024-02-19_02h16.12.540,kallum_motion_pilot,2023.2.2,Win32,49.75124378,5b8eda7cdc2b880001b6f1de,65d2b6c8f2eece985d8e374c,65d2b9ded639e9a9380fdd3c,0.1258,0.1259,1,44,206,57,1,onethree,,,,,,,,,,,,,,,,,,,,,,,,,,,,,,,,,,,,,,,,,,,,,,,,,,,,,,,,,,,,,,,,,,,,,,,,,,,,,,,,,,,,,,,,,,,,,,,,,,,,,,,,,,,,,,,,,,,,,,,,,,,,,,,,,,,,,,,,,
,,5b8eda7cdc2b880001b6f1de,2024-02-19_02h16.12.540,kallum_motion_pilot,2023.2.2,Win32,49.75124378,5b8eda7cdc2b880001b6f1de,65d2b6c8f2eece985d8e374c,65d2b9ded639e9a9380fdd3c,0.1261,0.1263,1,45,207,83,1,sixeight,,,,,,,,,,,,,,,,,,,,,,,,,,,,,,,,,,,,,,,,,,,,,,,,,,,,,,,,,,,,,,,,,,,,,,,,,,,,,,,,,,,,,,,,,,,,,,,,,,,,,,,,,,,,,,,,,,,,,,,,,,,,,,,,,,,,,,,,,
,,5b8eda7cdc2b880001b6f1de,2024-02-19_02h16.12.540,kallum_motion_pilot,2023.2.2,Win32,49.75124378,5b8eda7cdc2b880001b6f1de,65d2b6c8f2eece985d8e374c,65d2b9ded639e9a9380fdd3c,0.1265,0.1266,1,46,208,66,1,twoone,,,,,,,,,,,,,,,,,,,,,,,,,,,,,,,,,,,,,,,,,,,,,,,,,,,,,,,,,,,,,,,,,,,,,,,,,,,,,,,,,,,,,,,,,,,,,,,,,,,,,,,,,,,,,,,,,,,,,,,,,,,,,,,,,,,,,,,,,
,,5b8eda7cdc2b880001b6f1de,2024-02-19_02h16.12.540,kallum_motion_pilot,2023.2.2,Win32,49.75124378,5b8eda7cdc2b880001b6f1de,65d2b6c8f2eece985d8e374c,65d2b9ded639e9a9380fdd3c,0.1269,0.1272,1,47,209,103,1,eightseven,,,,,,,,,,,,,,,,,,,,,,,,,,,,,,,,,,,,,,,,,,,,,,,,,,,,,,,,,,,,,,,,,,,,,,,,,,,,,,,,,,,,,,,,,,,,,,,,,,,,,,,,,,,,,,,,,,,,,,,,,,,,,,,,,,,,,,,,,
,,5b8eda7cdc2b880001b6f1de,2024-02-19_02h16.12.540,kallum_motion_pilot,2023.2.2,Win32,49.75124378,5b8eda7cdc2b880001b6f1de,65d2b6c8f2eece985d8e374c,65d2b9ded639e9a9380fdd3c,0.1275,0.1277,1,48,210,12,1,threeone,,,,,,,,,,,,,,,,,,,,,,,,,,,,,,,,,,,,,,,,,,,,,,,,,,,,,,,,,,,,,,,,,,,,,,,,,,,,,,,,,,,,,,,,,,,,,,,,,,,,,,,,,,,,,,,,,,,,,,,,,,,,,,,,,,,,,,,,,
,,5b8eda7cdc2b880001b6f1de,2024-02-19_02h16.12.540,kallum_motion_pilot,2023.2.2,Win32,49.75124378,5b8eda7cdc2b880001b6f1de,65d2b6c8f2eece985d8e374c,65d2b9ded639e9a9380fdd3c,0.1279,0.1281,1,49,211,92,1,sevenfive,,,,,,,,,,,,,,,,,,,,,,,,,,,,,,,,,,,,,,,,,,,,,,,,,,,,,,,,,,,,,,,,,,,,,,,,,,,,,,,,,,,,,,,,,,,,,,,,,,,,,,,,,,,,,,,,,,,,,,,,,,,,,,,,,,,,,,,,,
,,5b8eda7cdc2b880001b6f1de,2024-02-19_02h16.12.540,kallum_motion_pilot,2023.2.2,Win32,49.75124378,5b8eda7cdc2b880001b6f1de,65d2b6c8f2eece985d8e374c,65d2b9ded639e9a9380fdd3c,0.1283,0.1285,1,50,212,116,1,sevenfive,,,,,,,,,,,,,,,,,,,,,,,,,,,,,,,,,,,,,,,,,,,,,,,,,,,,,,,,,,,,,,,,,,,,,,,,,,,,,,,,,,,,,,,,,,,,,,,,,,,,,,,,,,,,,,,,,,,,,,,,,,,,,,,,,,,,,,,,,
,,5b8eda7cdc2b880001b6f1de,2024-02-19_02h16.12.540,kallum_motion_pilot,2023.2.2,Win32,49.75124378,5b8eda7cdc2b880001b6f1de,65d2b6c8f2eece985d8e374c,65d2b9ded639e9a9380fdd3c,0.1288,0.1289,1,51,213,48,1,onetwo,,,,,,,,,,,,,,,,,,,,,,,,,,,,,,,,,,,,,,,,,,,,,,,,,,,,,,,,,,,,,,,,,,,,,,,,,,,,,,,,,,,,,,,,,,,,,,,,,,,,,,,,,,,,,,,,,,,,,,,,,,,,,,,,,,,,,,,,,
,,5b8eda7cdc2b880001b6f1de,2024-02-19_02h16.12.540,kallum_motion_pilot,2023.2.2,Win32,49.75124378,5b8eda7cdc2b880001b6f1de,65d2b6c8f2eece985d8e374c,65d2b9ded639e9a9380fdd3c,0.1292,0.1293,1,52,214,121,1,fiveseven,,,,,,,,,,,,,,,,,,,,,,,,,,,,,,,,,,,,,,,,,,,,,,,,,,,,,,,,,,,,,,,,,,,,,,,,,,,,,,,,,,,,,,,,,,,,,,,,,,,,,,,,,,,,,,,,,,,,,,,,,,,,,,,,,,,,,,,,,
,,5b8eda7cdc2b880001b6f1de,2024-02-19_02h16.12.540,kallum_motion_pilot,2023.2.2,Win32,49.75124378,5b8eda7cdc2b880001b6f1de,65d2b6c8f2eece985d8e374c,65d2b9ded639e9a9380fdd3c,0.1296,0.1298,1,53,215,99,1,sixeight,,,,,,,,,,,,,,,,,,,,,,,,,,,,,,,,,,,,,,,,,,,,,,,,,,,,,,,,,,,,,,,,,,,,,,,,,,,,,,,,,,,,,,,,,,,,,,,,,,,,,,,,,,,,,,,,,,,,,,,,,,,,,,,,,,,,,,,,,
,,5b8eda7cdc2b880001b6f1de,2024-02-19_02h16.12.540,kallum_motion_pilot,2023.2.2,Win32,49.75124378,5b8eda7cdc2b880001b6f1de,65d2b6c8f2eece985d8e374c,65d2b9ded639e9a9380fdd3c,0.13,0.1301,1,54,216,76,1,threeone,,,,,,,,,,,,,,,,,,,,,,,,,,,,,,,,,,,,,,,,,,,,,,,,,,,,,,,,,,,,,,,,,,,,,,,,,,,,,,,,,,,,,,,,,,,,,,,,,,,,,,,,,,,,,,,,,,,,,,,,,,,,,,,,,,,,,,,,,
,,5b8eda7cdc2b880001b6f1de,2024-02-19_02h16.12.540,kallum_motion_pilot,2023.2.2,Win32,49.75124378,5b8eda7cdc2b880001b6f1de,65d2b6c8f2eece985d8e374c,65d2b9ded639e9a9380fdd3c,0.1304,0.1305,1,55,217,7,1,fourthree,,,,,,,,,,,,,,,,,,,,,,,,,,,,,,,,,,,,,,,,,,,,,,,,,,,,,,,,,,,,,,,,,,,,,,,,,,,,,,,,,,,,,,,,,,,,,,,,,,,,,,,,,,,,,,,,,,,,,,,,,,,,,,,,,,,,,,,,,
,,5b8eda7cdc2b880001b6f1de,2024-02-19_02h16.12.540,kallum_motion_pilot,2023.2.2,Win32,49.75124378,5b8eda7cdc2b880001b6f1de,65d2b6c8f2eece985d8e374c,65d2b9ded639e9a9380fdd3c,0.1308,0.131,1,56,218,136,1,fivesix,,,,,,,,,,,,,,,,,,,,,,,,,,,,,,,,,,,,,,,,,,,,,,,,,,,,,,,,,,,,,,,,,,,,,,,,,,,,,,,,,,,,,,,,,,,,,,,,,,,,,,,,,,,,,,,,,,,,,,,,,,,,,,,,,,,,,,,,,
,,5b8eda7cdc2b880001b6f1de,2024-02-19_02h16.12.540,kallum_motion_pilot,2023.2.2,Win32,49.75124378,5b8eda7cdc2b880001b6f1de,65d2b6c8f2eece985d8e374c,65d2b9ded639e9a9380fdd3c,0.1312,0.1314,1,57,219,23,1,fourthree,,,,,,,,,,,,,,,,,,,,,,,,,,,,,,,,,,,,,,,,,,,,,,,,,,,,,,,,,,,,,,,,,,,,,,,,,,,,,,,,,,,,,,,,,,,,,,,,,,,,,,,,,,,,,,,,,,,,,,,,,,,,,,,,,,,,,,,,,
,,5b8eda7cdc2b880001b6f1de,2024-02-19_02h16.12.540,kallum_motion_pilot,2023.2.2,Win32,49.75124378,5b8eda7cdc2b880001b6f1de,65d2b6c8f2eece985d8e374c,65d2b9ded639e9a9380fdd3c,0.1316,0.1318,1,58,220,26,1,twoone,,,,,,,,,,,,,,,,,,,,,,,,,,,,,,,,,,,,,,,,,,,,,,,,,,,,,,,,,,,,,,,,,,,,,,,,,,,,,,,,,,,,,,,,,,,,,,,,,,,,,,,,,,,,,,,,,,,,,,,,,,,,,,,,,,,,,,,,,
,,5b8eda7cdc2b880001b6f1de,2024-02-19_02h16.12.540,kallum_motion_pilot,2023.2.2,Win32,49.75124378,5b8eda7cdc2b880001b6f1de,65d2b6c8f2eece985d8e374c,65d2b9ded639e9a9380fdd3c,0.132,0.1322,1,59,221,155,1,sixeight,,,,,,,,,,,,,,,,,,,,,,,,,,,,,,,,,,,,,,,,,,,,,,,,,,,,,,,,,,,,,,,,,,,,,,,,,,,,,,,,,,,,,,,,,,,,,,,,,,,,,,,,,,,,,,,,,,,,,,,,,,,,,,,,,,,,,,,,,
,,5b8eda7cdc2b880001b6f1de,2024-02-19_02h16.12.540,kallum_motion_pilot,2023.2.2,Win32,49.75124378,5b8eda7cdc2b880001b6f1de,65d2b6c8f2eece985d8e374c,65d2b9ded639e9a9380fdd3c,0.1324,0.1326,1,60,222,157,1,seveneight,,,,,,,,,,,,,,,,,,,,,,,,,,,,,,,,,,,,,,,,,,,,,,,,,,,,,,,,,,,,,,,,,,,,,,,,,,,,,,,,,,,,,,,,,,,,,,,,,,,,,,,,,,,,,,,,,,,,,,,,,,,,,,,,,,,,,,,,,
,,5b8eda7cdc2b880001b6f1de,2024-02-19_02h16.12.540,kallum_motion_pilot,2023.2.2,Win32,49.75124378,5b8eda7cdc2b880001b6f1de,65d2b6c8f2eece985d8e374c,65d2b9ded639e9a9380fdd3c,0.1328,0.133,1,61,223,46,1,fourtwo,,,,,,,,,,,,,,,,,,,,,,,,,,,,,,,,,,,,,,,,,,,,,,,,,,,,,,,,,,,,,,,,,,,,,,,,,,,,,,,,,,,,,,,,,,,,,,,,,,,,,,,,,,,,,,,,,,,,,,,,,,,,,,,,,,,,,,,,,
,,5b8eda7cdc2b880001b6f1de,2024-02-19_02h16.12.540,kallum_motion_pilot,2023.2.2,Win32,49.75124378,5b8eda7cdc2b880001b6f1de,65d2b6c8f2eece985d8e374c,65d2b9ded639e9a9380fdd3c,0.1333,0.1335,1,62,224,36,1,threeone,,,,,,,,,,,,,,,,,,,,,,,,,,,,,,,,,,,,,,,,,,,,,,,,,,,,,,,,,,,,,,,,,,,,,,,,,,,,,,,,,,,,,,,,,,,,,,,,,,,,,,,,,,,,,,,,,,,,,,,,,,,,,,,,,,,,,,,,,
,,5b8eda7cdc2b880001b6f1de,2024-02-19_02h16.12.540,kallum_motion_pilot,2023.2.2,Win32,49.75124378,5b8eda7cdc2b880001b6f1de,65d2b6c8f2eece985d8e374c,65d2b9ded639e9a9380fdd3c,0.1336,0.1338,1,63,225,61,1,threefour,,,,,,,,,,,,,,,,,,,,,,,,,,,,,,,,,,,,,,,,,,,,,,,,,,,,,,,,,,,,,,,,,,,,,,,,,,,,,,,,,,,,,,,,,,,,,,,,,,,,,,,,,,,,,,,,,,,,,,,,,,,,,,,,,,,,,,,,,
,,5b8eda7cdc2b880001b6f1de,2024-02-19_02h16.12.540,kallum_motion_pilot,2023.2.2,Win32,49.75124378,5b8eda7cdc2b880001b6f1de,65d2b6c8f2eece985d8e374c,65d2b9ded639e9a9380fdd3c,0.1341,0.1343,1,64,226,131,1,sixeight,,,,,,,,,,,,,,,,,,,,,,,,,,,,,,,,,,,,,,,,,,,,,,,,,,,,,,,,,,,,,,,,,,,,,,,,,,,,,,,,,,,,,,,,,,,,,,,,,,,,,,,,,,,,,,,,,,,,,,,,,,,,,,,,,,,,,,,,,
,,5b8eda7cdc2b880001b6f1de,2024-02-19_02h16.12.540,kallum_motion_pilot,2023.2.2,Win32,49.75124378,5b8eda7cdc2b880001b6f1de,65d2b6c8f2eece985d8e374c,65d2b9ded639e9a9380fdd3c,0.1345,0.1346,1,65,227,79,1,eightseven,,,,,,,,,,,,,,,,,,,,,,,,,,,,,,,,,,,,,,,,,,,,,,,,,,,,,,,,,,,,,,,,,,,,,,,,,,,,,,,,,,,,,,,,,,,,,,,,,,,,,,,,,,,,,,,,,,,,,,,,,,,,,,,,,,,,,,,,,
,,5b8eda7cdc2b880001b6f1de,2024-02-19_02h16.12.540,kallum_motion_pilot,2023.2.2,Win32,49.75124378,5b8eda7cdc2b880001b6f1de,65d2b6c8f2eece985d8e374c,65d2b9ded639e9a9380fdd3c,0.1349,0.135,1,66,228,59,1,twofour,,,,,,,,,,,,,,,,,,,,,,,,,,,,,,,,,,,,,,,,,,,,,,,,,,,,,,,,,,,,,,,,,,,,,,,,,,,,,,,,,,,,,,,,,,,,,,,,,,,,,,,,,,,,,,,,,,,,,,,,,,,,,,,,,,,,,,,,,
,,5b8eda7cdc2b880001b6f1de,2024-02-19_02h16.12.540,kallum_motion_pilot,2023.2.2,Win32,49.75124378,5b8eda7cdc2b880001b6f1de,65d2b6c8f2eece985d8e374c,65d2b9ded639e9a9380fdd3c,0.1353,0.1357,1,67,229,5,1,threefour,,,,,,,,,,,,,,,,,,,,,,,,,,,,,,,,,,,,,,,,,,,,,,,,,,,,,,,,,,,,,,,,,,,,,,,,,,,,,,,,,,,,,,,,,,,,,,,,,,,,,,,,,,,,,,,,,,,,,,,,,,,,,,,,,,,,,,,,,
,,5b8eda7cdc2b880001b6f1de,2024-02-19_02h16.12.540,kallum_motion_pilot,2023.2.2,Win32,49.75124378,5b8eda7cdc2b880001b6f1de,65d2b6c8f2eece985d8e374c,65d2b9ded639e9a9380fdd3c,0.1361,0.1363,1,68,230,58,1,twoone,,,,,,,,,,,,,,,,,,,,,,,,,,,,,,,,,,,,,,,,,,,,,,,,,,,,,,,,,,,,,,,,,,,,,,,,,,,,,,,,,,,,,,,,,,,,,,,,,,,,,,,,,,,,,,,,,,,,,,,,,,,,,,,,,,,,,,,,,
,,5b8eda7cdc2b880001b6f1de,2024-02-19_02h16.12.540,kallum_motion_pilot,2023.2.2,Win32,49.75124378,5b8eda7cdc2b880001b6f1de,65d2b6c8f2eece985d8e374c,65d2b9ded639e9a9380fdd3c,0.1368,0.1372,1,69,231,80,1,fivesix,,,,,,,,,,,,,,,,,,,,,,,,,,,,,,,,,,,,,,,,,,,,,,,,,,,,,,,,,,,,,,,,,,,,,,,,,,,,,,,,,,,,,,,,,,,,,,,,,,,,,,,,,,,,,,,,,,,,,,,,,,,,,,,,,,,,,,,,,
,,5b8eda7cdc2b880001b6f1de,2024-02-19_02h16.12.540,kallum_motion_pilot,2023.2.2,Win32,49.75124378,5b8eda7cdc2b880001b6f1de,65d2b6c8f2eece985d8e374c,65d2b9ded639e9a9380fdd3c,0.1376,0.1378,1,70,232,0,1,onetwo,,,,,,,,,,,,,,,,,,,,,,,,,,,,,,,,,,,,,,,,,,,,,,,,,,,,,,,,,,,,,,,,,,,,,,,,,,,,,,,,,,,,,,,,,,,,,,,,,,,,,,,,,,,,,,,,,,,,,,,,,,,,,,,,,,,,,,,,,
,,5b8eda7cdc2b880001b6f1de,2024-02-19_02h16.12.540,kallum_motion_pilot,2023.2.2,Win32,49.75124378,5b8eda7cdc2b880001b6f1de,65d2b6c8f2eece985d8e374c,65d2b9ded639e9a9380fdd3c,0.1382,0.1385,1,71,233,111,1,eightseven,,,,,,,,,,,,,,,,,,,,,,,,,,,,,,,,,,,,,,,,,,,,,,,,,,,,,,,,,,,,,,,,,,,,,,,,,,,,,,,,,,,,,,,,,,,,,,,,,,,,,,,,,,,,,,,,,,,,,,,,,,,,,,,,,,,,,,,,,
,,5b8eda7cdc2b880001b6f1de,2024-02-19_02h16.12.540,kallum_motion_pilot,2023.2.2,Win32,49.75124378,5b8eda7cdc2b880001b6f1de,65d2b6c8f2eece985d8e374c,65d2b9ded639e9a9380fdd3c,0.139,0.1391,1,72,234,13,1,threefour,,,,,,,,,,,,,,,,,,,,,,,,,,,,,,,,,,,,,,,,,,,,,,,,,,,,,,,,,,,,,,,,,,,,,,,,,,,,,,,,,,,,,,,,,,,,,,,,,,,,,,,,,,,,,,,,,,,,,,,,,,,,,,,,,,,,,,,,,
,,5b8eda7cdc2b880001b6f1de,2024-02-19_02h16.12.540,kallum_motion_pilot,2023.2.2,Win32,49.75124378,5b8eda7cdc2b880001b6f1de,65d2b6c8f2eece985d8e374c,65d2b9ded639e9a9380fdd3c,0.1394,0.1397,1,73,235,152,1,fivesix,,,,,,,,,,,,,,,,,,,,,,,,,,,,,,,,,,,,,,,,,,,,,,,,,,,,,,,,,,,,,,,,,,,,,,,,,,,,,,,,,,,,,,,,,,,,,,,,,,,,,,,,,,,,,,,,,,,,,,,,,,,,,,,,,,,,,,,,,
,,5b8eda7cdc2b880001b6f1de,2024-02-19_02h16.12.540,kallum_motion_pilot,2023.2.2,Win32,49.75124378,5b8eda7cdc2b880001b6f1de,65d2b6c8f2eece985d8e374c,65d2b9ded639e9a9380fdd3c,0.1399,0.1401,1,74,236,153,1,fiveseven,,,,,,,,,,,,,,,,,,,,,,,,,,,,,,,,,,,,,,,,,,,,,,,,,,,,,,,,,,,,,,,,,,,,,,,,,,,,,,,,,,,,,,,,,,,,,,,,,,,,,,,,,,,,,,,,,,,,,,,,,,,,,,,,,,,,,,,,,
,,5b8eda7cdc2b880001b6f1de,2024-02-19_02h16.12.540,kallum_motion_pilot,2023.2.2,Win32,49.75124378,5b8eda7cdc2b880001b6f1de,65d2b6c8f2eece985d8e374c,65d2b9ded639e9a9380fdd3c,0.1404,0.1406,1,75,237,40,1,onetwo,,,,,,,,,,,,,,,,,,,,,,,,,,,,,,,,,,,,,,,,,,,,,,,,,,,,,,,,,,,,,,,,,,,,,,,,,,,,,,,,,,,,,,,,,,,,,,,,,,,,,,,,,,,,,,,,,,,,,,,,,,,,,,,,,,,,,,,,,
,,5b8eda7cdc2b880001b6f1de,2024-02-19_02h16.12.540,kallum_motion_pilot,2023.2.2,Win32,49.75124378,5b8eda7cdc2b880001b6f1de,65d2b6c8f2eece985d8e374c,65d2b9ded639e9a9380fdd3c,0.141,0.1411,1,76,238,77,1,threefour,,,,,,,,,,,,,,,,,,,,,,,,,,,,,,,,,,,,,,,,,,,,,,,,,,,,,,,,,,,,,,,,,,,,,,,,,,,,,,,,,,,,,,,,,,,,,,,,,,,,,,,,,,,,,,,,,,,,,,,,,,,,,,,,,,,,,,,,,
,,5b8eda7cdc2b880001b6f1de,2024-02-19_02h16.12.540,kallum_motion_pilot,2023.2.2,Win32,49.75124378,5b8eda7cdc2b880001b6f1de,65d2b6c8f2eece985d8e374c,65d2b9ded639e9a9380fdd3c,0.1414,0.1416,1,77,239,122,1,sixfive,,,,,,,,,,,,,,,,,,,,,,,,,,,,,,,,,,,,,,,,,,,,,,,,,,,,,,,,,,,,,,,,,,,,,,,,,,,,,,,,,,,,,,,,,,,,,,,,,,,,,,,,,,,,,,,,,,,,,,,,,,,,,,,,,,,,,,,,,
,,5b8eda7cdc2b880001b6f1de,2024-02-19_02h16.12.540,kallum_motion_pilot,2023.2.2,Win32,49.75124378,5b8eda7cdc2b880001b6f1de,65d2b6c8f2eece985d8e374c,65d2b9ded639e9a9380fdd3c,0.1419,0.1421,1,78,240,118,1,eightsix,,,,,,,,,,,,,,,,,,,,,,,,,,,,,,,,,,,,,,,,,,,,,,,,,,,,,,,,,,,,,,,,,,,,,,,,,,,,,,,,,,,,,,,,,,,,,,,,,,,,,,,,,,,,,,,,,,,,,,,,,,,,,,,,,,,,,,,,,
,,5b8eda7cdc2b880001b6f1de,2024-02-19_02h16.12.540,kallum_motion_pilot,2023.2.2,Win32,49.75124378,5b8eda7cdc2b880001b6f1de,65d2b6c8f2eece985d8e374c,65d2b9ded639e9a9380fdd3c,0.1424,0.1426,1,79,241,20,1,threeone,,,,,,,,,,,,,,,,,,,,,,,,,,,,,,,,,,,,,,,,,,,,,,,,,,,,,,,,,,,,,,,,,,,,,,,,,,,,,,,,,,,,,,,,,,,,,,,,,,,,,,,,,,,,,,,,,,,,,,,,,,,,,,,,,,,,,,,,,
,,5b8eda7cdc2b880001b6f1de,2024-02-19_02h16.12.540,kallum_motion_pilot,2023.2.2,Win32,49.75124378,5b8eda7cdc2b880001b6f1de,65d2b6c8f2eece985d8e374c,65d2b9ded639e9a9380fdd3c,0.1428,0.1431,1,80,242,81,1,fiveseven,,,,,,,,,,,,,,,,,,,,,,,,,,,,,,,,,,,,,,,,,,,,,,,,,,,,,,,,,,,,,,,,,,,,,,,,,,,,,,,,,,,,,,,,,,,,,,,,,,,,,,,,,,,,,,,,,,,,,,,,,,,,,,,,,,,,,,,,,
,,5b8eda7cdc2b880001b6f1de,2024-02-19_02h16.12.540,kallum_motion_pilot,2023.2.2,Win32,49.75124378,5b8eda7cdc2b880001b6f1de,65d2b6c8f2eece985d8e374c,65d2b9ded639e9a9380fdd3c,0.1434,0.1436,1,81,243,70,1,fourtwo,,,,,,,,,,,,,,,,,,,,,,,,,,,,,,,,,,,,,,,,,,,,,,,,,,,,,,,,,,,,,,,,,,,,,,,,,,,,,,,,,,,,,,,,,,,,,,,,,,,,,,,,,,,,,,,,,,,,,,,,,,,,,,,,,,,,,,,,,
,,5b8eda7cdc2b880001b6f1de,2024-02-19_02h16.12.540,kallum_motion_pilot,2023.2.2,Win32,49.75124378,5b8eda7cdc2b880001b6f1de,65d2b6c8f2eece985d8e374c,65d2b9ded639e9a9380fdd3c,0.1439,0.1442,1,82,244,16,1,onetwo,,,,,,,,,,,,,,,,,,,,,,,,,,,,,,,,,,,,,,,,,,,,,,,,,,,,,,,,,,,,,,,,,,,,,,,,,,,,,,,,,,,,,,,,,,,,,,,,,,,,,,,,,,,,,,,,,,,,,,,,,,,,,,,,,,,,,,,,,
,,5b8eda7cdc2b880001b6f1de,2024-02-19_02h16.12.540,kallum_motion_pilot,2023.2.2,Win32,49.75124378,5b8eda7cdc2b880001b6f1de,65d2b6c8f2eece985d8e374c,65d2b9ded639e9a9380fdd3c,0.1445,0.1447,1,83,245,93,1,seveneight,,,,,,,,,,,,,,,,,,,,,,,,,,,,,,,,,,,,,,,,,,,,,,,,,,,,,,,,,,,,,,,,,,,,,,,,,,,,,,,,,,,,,,,,,,,,,,,,,,,,,,,,,,,,,,,,,,,,,,,,,,,,,,,,,,,,,,,,,
,,5b8eda7cdc2b880001b6f1de,2024-02-19_02h16.12.540,kallum_motion_pilot,2023.2.2,Win32,49.75124378,5b8eda7cdc2b880001b6f1de,65d2b6c8f2eece985d8e374c,65d2b9ded639e9a9380fdd3c,0.145,0.1453,1,84,246,4,1,threeone,,,,,,,,,,,,,,,,,,,,,,,,,,,,,,,,,,,,,,,,,,,,,,,,,,,,,,,,,,,,,,,,,,,,,,,,,,,,,,,,,,,,,,,,,,,,,,,,,,,,,,,,,,,,,,,,,,,,,,,,,,,,,,,,,,,,,,,,,
,,5b8eda7cdc2b880001b6f1de,2024-02-19_02h16.12.540,kallum_motion_pilot,2023.2.2,Win32,49.75124378,5b8eda7cdc2b880001b6f1de,65d2b6c8f2eece985d8e374c,65d2b9ded639e9a9380fdd3c,0.1457,0.146,1,85,247,161,1,fiveseven,,,,,,,,,,,,,,,,,,,,,,,,,,,,,,,,,,,,,,,,,,,,,,,,,,,,,,,,,,,,,,,,,,,,,,,,,,,,,,,,,,,,,,,,,,,,,,,,,,,,,,,,,,,,,,,,,,,,,,,,,,,,,,,,,,,,,,,,,
,,5b8eda7cdc2b880001b6f1de,2024-02-19_02h16.12.540,kallum_motion_pilot,2023.2.2,Win32,49.75124378,5b8eda7cdc2b880001b6f1de,65d2b6c8f2eece985d8e374c,65d2b9ded639e9a9380fdd3c,0.1462,0.1465,1,86,248,109,1,seveneight,,,,,,,,,,,,,,,,,,,,,,,,,,,,,,,,,,,,,,,,,,,,,,,,,,,,,,,,,,,,,,,,,,,,,,,,,,,,,,,,,,,,,,,,,,,,,,,,,,,,,,,,,,,,,,,,,,,,,,,,,,,,,,,,,,,,,,,,,
,,5b8eda7cdc2b880001b6f1de,2024-02-19_02h16.12.540,kallum_motion_pilot,2023.2.2,Win32,49.75124378,5b8eda7cdc2b880001b6f1de,65d2b6c8f2eece985d8e374c,65d2b9ded639e9a9380fdd3c,0.1468,0.1472,1,87,249,14,1,fourtwo,,,,,,,,,,,,,,,,,,,,,,,,,,,,,,,,,,,,,,,,,,,,,,,,,,,,,,,,,,,,,,,,,,,,,,,,,,,,,,,,,,,,,,,,,,,,,,,,,,,,,,,,,,,,,,,,,,,,,,,,,,,,,,,,,,,,,,,,,
,,5b8eda7cdc2b880001b6f1de,2024-02-19_02h16.12.540,kallum_motion_pilot,2023.2.2,Win32,49.75124378,5b8eda7cdc2b880001b6f1de,65d2b6c8f2eece985d8e374c,65d2b9ded639e9a9380fdd3c,0.1475,0.1477,1,88,250,35,1,twofour,,,,,,,,,,,,,,,,,,,,,,,,,,,,,,,,,,,,,,,,,,,,,,,,,,,,,,,,,,,,,,,,,,,,,,,,,,,,,,,,,,,,,,,,,,,,,,,,,,,,,,,,,,,,,,,,,,,,,,,,,,,,,,,,,,,,,,,,,
,,5b8eda7cdc2b880001b6f1de,2024-02-19_02h16.12.540,kallum_motion_pilot,2023.2.2,Win32,49.75124378,5b8eda7cdc2b880001b6f1de,65d2b6c8f2eece985d8e374c,65d2b9ded639e9a9380fdd3c,0.148,0.1483,1,89,251,21,1,threefour,,,,,,,,,,,,,,,,,,,,,,,,,,,,,,,,,,,,,,,,,,,,,,,,,,,,,,,,,,,,,,,,,,,,,,,,,,,,,,,,,,,,,,,,,,,,,,,,,,,,,,,,,,,,,,,,,,,,,,,,,,,,,,,,,,,,,,,,,
,,5b8eda7cdc2b880001b6f1de,2024-02-19_02h16.12.540,kallum_motion_pilot,2023.2.2,Win32,49.75124378,5b8eda7cdc2b880001b6f1de,65d2b6c8f2eece985d8e374c,65d2b9ded639e9a9380fdd3c,0.1485,0.1487,1,90,252,42,1,twoone,,,,,,,,,,,,,,,,,,,,,,,,,,,,,,,,,,,,,,,,,,,,,,,,,,,,,,,,,,,,,,,,,,,,,,,,,,,,,,,,,,,,,,,,,,,,,,,,,,,,,,,,,,,,,,,,,,,,,,,,,,,,,,,,,,,,,,,,,
,,5b8eda7cdc2b880001b6f1de,2024-02-19_02h16.12.540,kallum_motion_pilot,2023.2.2,Win32,49.75124378,5b8eda7cdc2b880001b6f1de,65d2b6c8f2eece985d8e374c,65d2b9ded639e9a9380fdd3c,0.1489,0.1491,1,91,253,98,1,sixfive,,,,,,,,,,,,,,,,,,,,,,,,,,,,,,,,,,,,,,,,,,,,,,,,,,,,,,,,,,,,,,,,,,,,,,,,,,,,,,,,,,,,,,,,,,,,,,,,,,,,,,,,,,,,,,,,,,,,,,,,,,,,,,,,,,,,,,,,,
,,5b8eda7cdc2b880001b6f1de,2024-02-19_02h16.12.540,kallum_motion_pilot,2023.2.2,Win32,49.75124378,5b8eda7cdc2b880001b6f1de,65d2b6c8f2eece985d8e374c,65d2b9ded639e9a9380fdd3c,0.1493,0.1496,1,92,254,27,1,twofour,,,,,,,,,,,,,,,,,,,,,,,,,,,,,,,,,,,,,,,,,,,,,,,,,,,,,,,,,,,,,,,,,,,,,,,,,,,,,,,,,,,,,,,,,,,,,,,,,,,,,,,,,,,,,,,,,,,,,,,,,,,,,,,,,,,,,,,,,
,,5b8eda7cdc2b880001b6f1de,2024-02-19_02h16.12.540,kallum_motion_pilot,2023.2.2,Win32,49.75124378,5b8eda7cdc2b880001b6f1de,65d2b6c8f2eece985d8e374c,65d2b9ded639e9a9380fdd3c,0.15,0.1502,1,93,255,17,1,onethree,,,,,,,,,,,,,,,,,,,,,,,,,,,,,,,,,,,,,,,,,,,,,,,,,,,,,,,,,,,,,,,,,,,,,,,,,,,,,,,,,,,,,,,,,,,,,,,,,,,,,,,,,,,,,,,,,,,,,,,,,,,,,,,,,,,,,,,,,
,,5b8eda7cdc2b880001b6f1de,2024-02-19_02h16.12.540,kallum_motion_pilot,2023.2.2,Win32,49.75124378,5b8eda7cdc2b880001b6f1de,65d2b6c8f2eece985d8e374c,65d2b9ded639e9a9380fdd3c,0.1505,0.1508,1,94,256,34,1,twoone,,,,,,,,,,,,,,,,,,,,,,,,,,,,,,,,,,,,,,,,,,,,,,,,,,,,,,,,,,,,,,,,,,,,,,,,,,,,,,,,,,,,,,,,,,,,,,,,,,,,,,,,,,,,,,,,,,,,,,,,,,,,,,,,,,,,,,,,,
,,5b8eda7cdc2b880001b6f1de,2024-02-19_02h16.12.540,kallum_motion_pilot,2023.2.2,Win32,49.75124378,5b8eda7cdc2b880001b6f1de,65d2b6c8f2eece985d8e374c,65d2b9ded639e9a9380fdd3c,0.1509,0.1511,1,95,257,117,1,seveneight,,,,,,,,,,,,,,,,,,,,,,,,,,,,,,,,,,,,,,,,,,,,,,,,,,,,,,,,,,,,,,,,,,,,,,,,,,,,,,,,,,,,,,,,,,,,,,,,,,,,,,,,,,,,,,,,,,,,,,,,,,,,,,,,,,,,,,,,,
,,5b8eda7cdc2b880001b6f1de,2024-02-19_02h16.12.540,kallum_motion_pilot,2023.2.2,Win32,49.75124378,5b8eda7cdc2b880001b6f1de,65d2b6c8f2eece985d8e374c,65d2b9ded639e9a9380fdd3c,0.1513,0.1517,1,96,258,1,1,onethree,,,,,,,,,,,,,,,,,,,,,,,,,,,,,,,,,,,,,,,,,,,,,,,,,,,,,,,,,,,,,,,,,,,,,,,,,,,,,,,,,,,,,,,,,,,,,,,,,,,,,,,,,,,,,,,,,,,,,,,,,,,,,,,,,,,,,,,,,
,,5b8eda7cdc2b880001b6f1de,2024-02-19_02h16.12.540,kallum_motion_pilot,2023.2.2,Win32,49.75124378,5b8eda7cdc2b880001b6f1de,65d2b6c8f2eece985d8e374c,65d2b9ded639e9a9380fdd3c,0.152,0.1522,1,97,259,19,1,twofour,,,,,,,,,,,,,,,,,,,,,,,,,,,,,,,,,,,,,,,,,,,,,,,,,,,,,,,,,,,,,,,,,,,,,,,,,,,,,,,,,,,,,,,,,,,,,,,,,,,,,,,,,,,,,,,,,,,,,,,,,,,,,,,,,,,,,,,,,
,,5b8eda7cdc2b880001b6f1de,2024-02-19_02h16.12.540,kallum_motion_pilot,2023.2.2,Win32,49.75124378,5b8eda7cdc2b880001b6f1de,65d2b6c8f2eece985d8e374c,65d2b9ded639e9a9380fdd3c,0.1525,0.1527,1,98,260,41,1,onethree,,,,,,,,,,,,,,,,,,,,,,,,,,,,,,,,,,,,,,,,,,,,,,,,,,,,,,,,,,,,,,,,,,,,,,,,,,,,,,,,,,,,,,,,,,,,,,,,,,,,,,,,,,,,,,,,,,,,,,,,,,,,,,,,,,,,,,,,,
,,5b8eda7cdc2b880001b6f1de,2024-02-19_02h16.12.540,kallum_motion_pilot,2023.2.2,Win32,49.75124378,5b8eda7cdc2b880001b6f1de,65d2b6c8f2eece985d8e374c,65d2b9ded639e9a9380fdd3c,0.153,0.1532,1,99,261,142,1,eightsix,,,,,,,,,,,,,,,,,,,,,,,,,,,,,,,,,,,,,,,,,,,,,,,,,,,,,,,,,,,,,,,,,,,,,,,,,,,,,,,,,,,,,,,,,,,,,,,,,,,,,,,,,,,,,,,,,,,,,,,,,,,,,,,,,,,,,,,,,
,,5b8eda7cdc2b880001b6f1de,2024-02-19_02h16.12.540,kallum_motion_pilot,2023.2.2,Win32,49.75124378,5b8eda7cdc2b880001b6f1de,65d2b6c8f2eece985d8e374c,65d2b9ded639e9a9380fdd3c,0.1534,0.1536,1,100,262,82,1,sixfive,,,,,,,,,,,,,,,,,,,,,,,,,,,,,,,,,,,,,,,,,,,,,,,,,,,,,,,,,,,,,,,,,,,,,,,,,,,,,,,,,,,,,,,,,,,,,,,,,,,,,,,,,,,,,,,,,,,,,,,,,,,,,,,,,,,,,,,,,
,,5b8eda7cdc2b880001b6f1de,2024-02-19_02h16.12.540,kallum_motion_pilot,2023.2.2,Win32,49.75124378,5b8eda7cdc2b880001b6f1de,65d2b6c8f2eece985d8e374c,65d2b9ded639e9a9380fdd3c,0.1539,0.1541,1,101,263,37,1,threefour,,,,,,,,,,,,,,,,,,,,,,,,,,,,,,,,,,,,,,,,,,,,,,,,,,,,,,,,,,,,,,,,,,,,,,,,,,,,,,,,,,,,,,,,,,,,,,,,,,,,,,,,,,,,,,,,,,,,,,,,,,,,,,,,,,,,,,,,,
,,5b8eda7cdc2b880001b6f1de,2024-02-19_02h16.12.540,kallum_motion_pilot,2023.2.2,Win32,49.75124378,5b8eda7cdc2b880001b6f1de,65d2b6c8f2eece985d8e374c,65d2b9ded639e9a9380fdd3c,0.1544,0.1548,1,102,264,56,1,onetwo,,,,,,,,,,,,,,,,,,,,,,,,,,,,,,,,,,,,,,,,,,,,,,,,,,,,,,,,,,,,,,,,,,,,,,,,,,,,,,,,,,,,,,,,,,,,,,,,,,,,,,,,,,,,,,,,,,,,,,,,,,,,,,,,,,,,,,,,,
,,5b8eda7cdc2b880001b6f1de,2024-02-19_02h16.12.540,kallum_motion_pilot,2023.2.2,Win32,49.75124378,5b8eda7cdc2b880001b6f1de,65d2b6c8f2eece985d8e374c,65d2b9ded639e9a9380fdd3c,0.155,0.1552,1,103,265,143,1,eightseven,,,,,,,,,,,,,,,,,,,,,,,,,,,,,,,,,,,,,,,,,,,,,,,,,,,,,,,,,,,,,,,,,,,,,,,,,,,,,,,,,,,,,,,,,,,,,,,,,,,,,,,,,,,,,,,,,,,,,,,,,,,,,,,,,,,,,,,,,
,,5b8eda7cdc2b880001b6f1de,2024-02-19_02h16.12.540,kallum_motion_pilot,2023.2.2,Win32,49.75124378,5b8eda7cdc2b880001b6f1de,65d2b6c8f2eece985d8e374c,65d2b9ded639e9a9380fdd3c,0.1556,0.1558,1,104,266,87,1,eightseven,,,,,,,,,,,,,,,,,,,,,,,,,,,,,,,,,,,,,,,,,,,,,,,,,,,,,,,,,,,,,,,,,,,,,,,,,,,,,,,,,,,,,,,,,,,,,,,,,,,,,,,,,,,,,,,,,,,,,,,,,,,,,,,,,,,,,,,,,
,,5b8eda7cdc2b880001b6f1de,2024-02-19_02h16.12.540,kallum_motion_pilot,2023.2.2,Win32,49.75124378,5b8eda7cdc2b880001b6f1de,65d2b6c8f2eece985d8e374c,65d2b9ded639e9a9380fdd3c,0.1566,0.1572,1,105,267,135,1,eightseven,,,,,,,,,,,,,,,,,,,,,,,,,,,,,,,,,,,,,,,,,,,,,,,,,,,,,,,,,,,,,,,,,,,,,,,,,,,,,,,,,,,,,,,,,,,,,,,,,,,,,,,,,,,,,,,,,,,,,,,,,,,,,,,,,,,,,,,,,
,,5b8eda7cdc2b880001b6f1de,2024-02-19_02h16.12.540,kallum_motion_pilot,2023.2.2,Win32,49.75124378,5b8eda7cdc2b880001b6f1de,65d2b6c8f2eece985d8e374c,65d2b9ded639e9a9380fdd3c,0.1575,0.1578,1,106,268,125,1,seveneight,,,,,,,,,,,,,,,,,,,,,,,,,,,,,,,,,,,,,,,,,,,,,,,,,,,,,,,,,,,,,,,,,,,,,,,,,,,,,,,,,,,,,,,,,,,,,,,,,,,,,,,,,,,,,,,,,,,,,,,,,,,,,,,,,,,,,,,,,
,,5b8eda7cdc2b880001b6f1de,2024-02-19_02h16.12.540,kallum_motion_pilot,2023.2.2,Win32,49.75124378,5b8eda7cdc2b880001b6f1de,65d2b6c8f2eece985d8e374c,65d2b9ded639e9a9380fdd3c,0.1581,0.1583,1,107,269,88,1,fivesix,,,,,,,,,,,,,,,,,,,,,,,,,,,,,,,,,,,,,,,,,,,,,,,,,,,,,,,,,,,,,,,,,,,,,,,,,,,,,,,,,,,,,,,,,,,,,,,,,,,,,,,,,,,,,,,,,,,,,,,,,,,,,,,,,,,,,,,,,
,,5b8eda7cdc2b880001b6f1de,2024-02-19_02h16.12.540,kallum_motion_pilot,2023.2.2,Win32,49.75124378,5b8eda7cdc2b880001b6f1de,65d2b6c8f2eece985d8e374c,65d2b9ded639e9a9380fdd3c,0.1585,0.1587,1,108,270,141,1,seveneight,,,,,,,,,,,,,,,,,,,,,,,,,,,,,,,,,,,,,,,,,,,,,,,,,,,,,,,,,,,,,,,,,,,,,,,,,,,,,,,,,,,,,,,,,,,,,,,,,,,,,,,,,,,,,,,,,,,,,,,,,,,,,,,,,,,,,,,,,
,,5b8eda7cdc2b880001b6f1de,2024-02-19_02h16.12.540,kallum_motion_pilot,2023.2.2,Win32,49.75124378,5b8eda7cdc2b880001b6f1de,65d2b6c8f2eece985d8e374c,65d2b9ded639e9a9380fdd3c,0.159,0.1592,1,109,271,15,1,fourthree,,,,,,,,,,,,,,,,,,,,,,,,,,,,,,,,,,,,,,,,,,,,,,,,,,,,,,,,,,,,,,,,,,,,,,,,,,,,,,,,,,,,,,,,,,,,,,,,,,,,,,,,,,,,,,,,,,,,,,,,,,,,,,,,,,,,,,,,,
,,5b8eda7cdc2b880001b6f1de,2024-02-19_02h16.12.540,kallum_motion_pilot,2023.2.2,Win32,49.75124378,5b8eda7cdc2b880001b6f1de,65d2b6c8f2eece985d8e374c,65d2b9ded639e9a9380fdd3c,0.1594,0.1596,1,110,272,110,1,eightsix,,,,,,,,,,,,,,,,,,,,,,,,,,,,,,,,,,,,,,,,,,,,,,,,,,,,,,,,,,,,,,,,,,,,,,,,,,,,,,,,,,,,,,,,,,,,,,,,,,,,,,,,,,,,,,,,,,,,,,,,,,,,,,,,,,,,,,,,,
,,5b8eda7cdc2b880001b6f1de,2024-02-19_02h16.12.540,kallum_motion_pilot,2023.2.2,Win32,49.75124378,5b8eda7cdc2b880001b6f1de,65d2b6c8f2eece985d8e374c,65d2b9ded639e9a9380fdd3c,0.1599,0.1602,1,111,273,86,1,eightsix,,,,,,,,,,,,,,,,,,,,,,,,,,,,,,,,,,,,,,,,,,,,,,,,,,,,,,,,,,,,,,,,,,,,,,,,,,,,,,,,,,,,,,,,,,,,,,,,,,,,,,,,,,,,,,,,,,,,,,,,,,,,,,,,,,,,,,,,,
,,5b8eda7cdc2b880001b6f1de,2024-02-19_02h16.12.540,kallum_motion_pilot,2023.2.2,Win32,49.75124378,5b8eda7cdc2b880001b6f1de,65d2b6c8f2eece985d8e374c,65d2b9ded639e9a9380fdd3c,0.1604,0.1605,1,112,274,112,1,fivesix,,,,,,,,,,,,,,,,,,,,,,,,,,,,,,,,,,,,,,,,,,,,,,,,,,,,,,,,,,,,,,,,,,,,,,,,,,,,,,,,,,,,,,,,,,,,,,,,,,,,,,,,,,,,,,,,,,,,,,,,,,,,,,,,,,,,,,,,,
,,5b8eda7cdc2b880001b6f1de,2024-02-19_02h16.12.540,kallum_motion_pilot,2023.2.2,Win32,49.75124378,5b8eda7cdc2b880001b6f1de,65d2b6c8f2eece985d8e374c,65d2b9ded639e9a9380fdd3c,0.1608,0.161,1,113,275,96,1,fivesix,,,,,,,,,,,,,,,,,,,,,,,,,,,,,,,,,,,,,,,,,,,,,,,,,,,,,,,,,,,,,,,,,,,,,,,,,,,,,,,,,,,,,,,,,,,,,,,,,,,,,,,,,,,,,,,,,,,,,,,,,,,,,,,,,,,,,,,,,
,,5b8eda7cdc2b880001b6f1de,2024-02-19_02h16.12.540,kallum_motion_pilot,2023.2.2,Win32,49.75124378,5b8eda7cdc2b880001b6f1de,65d2b6c8f2eece985d8e374c,65d2b9ded639e9a9380fdd3c,0.1612,0.1615,1,114,276,3,1,twofour,,,,,,,,,,,,,,,,,,,,,,,,,,,,,,,,,,,,,,,,,,,,,,,,,,,,,,,,,,,,,,,,,,,,,,,,,,,,,,,,,,,,,,,,,,,,,,,,,,,,,,,,,,,,,,,,,,,,,,,,,,,,,,,,,,,,,,,,,
,,5b8eda7cdc2b880001b6f1de,2024-02-19_02h16.12.540,kallum_motion_pilot,2023.2.2,Win32,49.75124378,5b8eda7cdc2b880001b6f1de,65d2b6c8f2eece985d8e374c,65d2b9ded639e9a9380fdd3c,0.1617,0.1619,1,115,277,50,1,twoone,,,,,,,,,,,,,,,,,,,,,,,,,,,,,,,,,,,,,,,,,,,,,,,,,,,,,,,,,,,,,,,,,,,,,,,,,,,,,,,,,,,,,,,,,,,,,,,,,,,,,,,,,,,,,,,,,,,,,,,,,,,,,,,,,,,,,,,,,
