startup.started,startup.stopped,Prolific ID*,date,expName,psychopyVersion,OS,frameRate,participant,study_id,session,stimpositions.started,stimpositions.stopped,hardcoded_stimulus_positions.thisRepN,hardcoded_stimulus_positions.thisTrialN,hardcoded_stimulus_positions.thisN,hardcoded_stimulus_positions.thisIndex,hardcoded_stimulus_positions.ran,StimulusPos,stimorientation.started,stimorientation.stopped,prac_stimorientation_import_loop.thisRepN,prac_stimorientation_import_loop.thisTrialN,prac_stimorientation_import_loop.thisN,prac_stimorientation_import_loop.thisIndex,prac_stimorientation_import_loop.ran,Stimorientation,welcome_instr.started,welcome_instr.stopped,key_resp.keys,key_resp.rt,key_resp.duration,response_steppedout_1.started,response_steppedout_1.stopped,key_resp_20.keys,key_resp_20.rt,key_resp_20.duration,response_steppedout_2.started,response_steppedout_2.stopped,key_resp_19.keys,key_resp_19.rt,key_resp_19.duration,stim_response_instr.started,stim_response_instr.stopped,key_resp_15.keys,key_resp_15.rt,key_resp_15.duration,direction_instr_2.started,direction_instr_2.stopped,key_resp_9.keys,key_resp_9.rt,key_resp_9.duration,instr_prac.started,instr_prac.stopped,key_resp_10.keys,key_resp_10.rt,key_resp_10.duration,Stim1_display_prac.started,Stim1_display_prac.stopped,Ecc,Circle1_ori,Circle2_ori,response_prac.started,similarity,response_time,response_prac.stopped,mouse_5.x,mouse_5.y,mouse_5.leftButton,mouse_5.midButton,mouse_5.rightButton,mouse_5.clicked_name,responseprac_feedback.started,responseprac_feedback.stopped,summary2_prac.started,summary2_prac.stopped,mouse_6.x,mouse_6.y,mouse_6.leftButton,mouse_6.midButton,mouse_6.rightButton,mouse_6.clicked_name,duringprac.thisRepN,duringprac.thisTrialN,duringprac.thisN,duringprac.thisIndex,duringprac.ran,begin.started,begin.stopped,key_resp_22.keys,key_resp_22.rt,key_resp_22.duration,Stim1_display.started,Stim1_display.stopped,circle1_ori,circle2_ori,circle1_SF,circle2_SF,response.started,response.stopped,mouse.x,mouse.y,mouse.leftButton,mouse.midButton,mouse.rightButton,mouse.clicked_name,trialnumber,double_pass.thisRepN,double_pass.thisTrialN,double_pass.thisN,double_pass.thisIndex,double_pass.ran,double_pass.order,main_trial.thisRepN,main_trial.thisTrialN,main_trial.thisN,main_trial.thisIndex,main_trial.ran,main_trial.order,Trial_Counter,Catch,Frequencies,response_2.started,response_2.stopped,mouse_2.x,mouse_2.y,mouse_2.leftButton,mouse_2.midButton,mouse_2.rightButton,mouse_2.clicked_name,special_trial.started,special_trial.stopped,catch_1.started,catch_1.stopped,mouse_3.x,mouse_3.y,mouse_3.leftButton,mouse_3.midButton,mouse_3.rightButton,catchresponse,catchnumber,response_time_catch,response_sum.started,response_sum.stopped,mouse_11.x,mouse_11.y,mouse_11.leftButton,mouse_11.midButton,mouse_11.rightButton,flip_presentation_sequence_for_double_pass.started,flip_presentation_sequence_for_double_pass.stopped,goodbye.started,goodbye.stopped,key_resp_3.keys,key_resp_3.rt,key_resp_3.duration
0.0048,0.0051,5b91dced1dda7800018d0a5b,2024-02-22_16h18.00.827,kallum_motion_pilot,2023.2.2,Win32,60.24096386,5b91dced1dda7800018d0a5b,65d6bb0e977760de756971f7,65d6bcc8089e753d14451724,,,,,,,,,,,,,,,,,,,,,,,,,,,,,,,,,,,,,,,,,,,,,,,,,,,,,,,,,,,,,,,,,,,,,,,,,,,,,,,,,,,,,,,,,,,,,,,,,,,,,,,,,,,,,,,,,,,,,,,,,,,,,,,,,,,,,,,,,,,,,,,,,
,,5b91dced1dda7800018d0a5b,2024-02-22_16h18.00.827,kallum_motion_pilot,2023.2.2,Win32,60.24096386,5b91dced1dda7800018d0a5b,65d6bb0e977760de756971f7,65d6bcc8089e753d14451724,0.0305,0.0307,0,0,0,126,1,eightsix,,,,,,,,,,,,,,,,,,,,,,,,,,,,,,,,,,,,,,,,,,,,,,,,,,,,,,,,,,,,,,,,,,,,,,,,,,,,,,,,,,,,,,,,,,,,,,,,,,,,,,,,,,,,,,,,,,,,,,,,,,,,,,,,,,,,,,,,,
,,5b91dced1dda7800018d0a5b,2024-02-22_16h18.00.827,kallum_motion_pilot,2023.2.2,Win32,60.24096386,5b91dced1dda7800018d0a5b,65d6bb0e977760de756971f7,65d6bcc8089e753d14451724,0.0309,0.0309,0,1,1,70,1,fourtwo,,,,,,,,,,,,,,,,,,,,,,,,,,,,,,,,,,,,,,,,,,,,,,,,,,,,,,,,,,,,,,,,,,,,,,,,,,,,,,,,,,,,,,,,,,,,,,,,,,,,,,,,,,,,,,,,,,,,,,,,,,,,,,,,,,,,,,,,,
,,5b91dced1dda7800018d0a5b,2024-02-22_16h18.00.827,kallum_motion_pilot,2023.2.2,Win32,60.24096386,5b91dced1dda7800018d0a5b,65d6bb0e977760de756971f7,65d6bcc8089e753d14451724,0.031,0.0311,0,2,2,55,1,fourthree,,,,,,,,,,,,,,,,,,,,,,,,,,,,,,,,,,,,,,,,,,,,,,,,,,,,,,,,,,,,,,,,,,,,,,,,,,,,,,,,,,,,,,,,,,,,,,,,,,,,,,,,,,,,,,,,,,,,,,,,,,,,,,,,,,,,,,,,,
,,5b91dced1dda7800018d0a5b,2024-02-22_16h18.00.827,kallum_motion_pilot,2023.2.2,Win32,60.24096386,5b91dced1dda7800018d0a5b,65d6bb0e977760de756971f7,65d6bcc8089e753d14451724,0.0313,0.0313,0,3,3,116,1,sevenfive,,,,,,,,,,,,,,,,,,,,,,,,,,,,,,,,,,,,,,,,,,,,,,,,,,,,,,,,,,,,,,,,,,,,,,,,,,,,,,,,,,,,,,,,,,,,,,,,,,,,,,,,,,,,,,,,,,,,,,,,,,,,,,,,,,,,,,,,,
,,5b91dced1dda7800018d0a5b,2024-02-22_16h18.00.827,kallum_motion_pilot,2023.2.2,Win32,60.24096386,5b91dced1dda7800018d0a5b,65d6bb0e977760de756971f7,65d6bcc8089e753d14451724,0.0315,0.0315,0,4,4,157,1,seveneight,,,,,,,,,,,,,,,,,,,,,,,,,,,,,,,,,,,,,,,,,,,,,,,,,,,,,,,,,,,,,,,,,,,,,,,,,,,,,,,,,,,,,,,,,,,,,,,,,,,,,,,,,,,,,,,,,,,,,,,,,,,,,,,,,,,,,,,,,
,,5b91dced1dda7800018d0a5b,2024-02-22_16h18.00.827,kallum_motion_pilot,2023.2.2,Win32,60.24096386,5b91dced1dda7800018d0a5b,65d6bb0e977760de756971f7,65d6bcc8089e753d14451724,0.0318,0.0318,0,5,5,104,1,fivesix,,,,,,,,,,,,,,,,,,,,,,,,,,,,,,,,,,,,,,,,,,,,,,,,,,,,,,,,,,,,,,,,,,,,,,,,,,,,,,,,,,,,,,,,,,,,,,,,,,,,,,,,,,,,,,,,,,,,,,,,,,,,,,,,,,,,,,,,,
,,5b91dced1dda7800018d0a5b,2024-02-22_16h18.00.827,kallum_motion_pilot,2023.2.2,Win32,60.24096386,5b91dced1dda7800018d0a5b,65d6bb0e977760de756971f7,65d6bcc8089e753d14451724,0.032,0.032,0,6,6,113,1,fiveseven,,,,,,,,,,,,,,,,,,,,,,,,,,,,,,,,,,,,,,,,,,,,,,,,,,,,,,,,,,,,,,,,,,,,,,,,,,,,,,,,,,,,,,,,,,,,,,,,,,,,,,,,,,,,,,,,,,,,,,,,,,,,,,,,,,,,,,,,,
,,5b91dced1dda7800018d0a5b,2024-02-22_16h18.00.827,kallum_motion_pilot,2023.2.2,Win32,60.24096386,5b91dced1dda7800018d0a5b,65d6bb0e977760de756971f7,65d6bcc8089e753d14451724,0.0322,0.0322,0,7,7,156,1,sevenfive,,,,,,,,,,,,,,,,,,,,,,,,,,,,,,,,,,,,,,,,,,,,,,,,,,,,,,,,,,,,,,,,,,,,,,,,,,,,,,,,,,,,,,,,,,,,,,,,,,,,,,,,,,,,,,,,,,,,,,,,,,,,,,,,,,,,,,,,,
,,5b91dced1dda7800018d0a5b,2024-02-22_16h18.00.827,kallum_motion_pilot,2023.2.2,Win32,60.24096386,5b91dced1dda7800018d0a5b,65d6bb0e977760de756971f7,65d6bcc8089e753d14451724,0.0323,0.0324,0,8,8,15,1,fourthree,,,,,,,,,,,,,,,,,,,,,,,,,,,,,,,,,,,,,,,,,,,,,,,,,,,,,,,,,,,,,,,,,,,,,,,,,,,,,,,,,,,,,,,,,,,,,,,,,,,,,,,,,,,,,,,,,,,,,,,,,,,,,,,,,,,,,,,,,
,,5b91dced1dda7800018d0a5b,2024-02-22_16h18.00.827,kallum_motion_pilot,2023.2.2,Win32,60.24096386,5b91dced1dda7800018d0a5b,65d6bb0e977760de756971f7,65d6bcc8089e753d14451724,0.0326,0.0327,0,9,9,67,1,twofour,,,,,,,,,,,,,,,,,,,,,,,,,,,,,,,,,,,,,,,,,,,,,,,,,,,,,,,,,,,,,,,,,,,,,,,,,,,,,,,,,,,,,,,,,,,,,,,,,,,,,,,,,,,,,,,,,,,,,,,,,,,,,,,,,,,,,,,,,
,,5b91dced1dda7800018d0a5b,2024-02-22_16h18.00.827,kallum_motion_pilot,2023.2.2,Win32,60.24096386,5b91dced1dda7800018d0a5b,65d6bb0e977760de756971f7,65d6bcc8089e753d14451724,0.0329,0.0329,0,10,10,14,1,fourtwo,,,,,,,,,,,,,,,,,,,,,,,,,,,,,,,,,,,,,,,,,,,,,,,,,,,,,,,,,,,,,,,,,,,,,,,,,,,,,,,,,,,,,,,,,,,,,,,,,,,,,,,,,,,,,,,,,,,,,,,,,,,,,,,,,,,,,,,,,
,,5b91dced1dda7800018d0a5b,2024-02-22_16h18.00.827,kallum_motion_pilot,2023.2.2,Win32,60.24096386,5b91dced1dda7800018d0a5b,65d6bb0e977760de756971f7,65d6bcc8089e753d14451724,0.0331,0.0331,0,11,11,22,1,fourtwo,,,,,,,,,,,,,,,,,,,,,,,,,,,,,,,,,,,,,,,,,,,,,,,,,,,,,,,,,,,,,,,,,,,,,,,,,,,,,,,,,,,,,,,,,,,,,,,,,,,,,,,,,,,,,,,,,,,,,,,,,,,,,,,,,,,,,,,,,
,,5b91dced1dda7800018d0a5b,2024-02-22_16h18.00.827,kallum_motion_pilot,2023.2.2,Win32,60.24096386,5b91dced1dda7800018d0a5b,65d6bb0e977760de756971f7,65d6bcc8089e753d14451724,0.0334,0.0334,0,12,12,97,1,fiveseven,,,,,,,,,,,,,,,,,,,,,,,,,,,,,,,,,,,,,,,,,,,,,,,,,,,,,,,,,,,,,,,,,,,,,,,,,,,,,,,,,,,,,,,,,,,,,,,,,,,,,,,,,,,,,,,,,,,,,,,,,,,,,,,,,,,,,,,,,
,,5b91dced1dda7800018d0a5b,2024-02-22_16h18.00.827,kallum_motion_pilot,2023.2.2,Win32,60.24096386,5b91dced1dda7800018d0a5b,65d6bb0e977760de756971f7,65d6bcc8089e753d14451724,0.0335,0.0335,0,13,13,4,1,threeone,,,,,,,,,,,,,,,,,,,,,,,,,,,,,,,,,,,,,,,,,,,,,,,,,,,,,,,,,,,,,,,,,,,,,,,,,,,,,,,,,,,,,,,,,,,,,,,,,,,,,,,,,,,,,,,,,,,,,,,,,,,,,,,,,,,,,,,,,
,,5b91dced1dda7800018d0a5b,2024-02-22_16h18.00.827,kallum_motion_pilot,2023.2.2,Win32,60.24096386,5b91dced1dda7800018d0a5b,65d6bb0e977760de756971f7,65d6bcc8089e753d14451724,0.0338,0.0338,0,14,14,118,1,eightsix,,,,,,,,,,,,,,,,,,,,,,,,,,,,,,,,,,,,,,,,,,,,,,,,,,,,,,,,,,,,,,,,,,,,,,,,,,,,,,,,,,,,,,,,,,,,,,,,,,,,,,,,,,,,,,,,,,,,,,,,,,,,,,,,,,,,,,,,,
,,5b91dced1dda7800018d0a5b,2024-02-22_16h18.00.827,kallum_motion_pilot,2023.2.2,Win32,60.24096386,5b91dced1dda7800018d0a5b,65d6bb0e977760de756971f7,65d6bcc8089e753d14451724,0.0339,0.034,0,15,15,77,1,threefour,,,,,,,,,,,,,,,,,,,,,,,,,,,,,,,,,,,,,,,,,,,,,,,,,,,,,,,,,,,,,,,,,,,,,,,,,,,,,,,,,,,,,,,,,,,,,,,,,,,,,,,,,,,,,,,,,,,,,,,,,,,,,,,,,,,,,,,,,
,,5b91dced1dda7800018d0a5b,2024-02-22_16h18.00.827,kallum_motion_pilot,2023.2.2,Win32,60.24096386,5b91dced1dda7800018d0a5b,65d6bb0e977760de756971f7,65d6bcc8089e753d14451724,0.0342,0.0343,0,16,16,100,1,sevenfive,,,,,,,,,,,,,,,,,,,,,,,,,,,,,,,,,,,,,,,,,,,,,,,,,,,,,,,,,,,,,,,,,,,,,,,,,,,,,,,,,,,,,,,,,,,,,,,,,,,,,,,,,,,,,,,,,,,,,,,,,,,,,,,,,,,,,,,,,
,,5b91dced1dda7800018d0a5b,2024-02-22_16h18.00.827,kallum_motion_pilot,2023.2.2,Win32,60.24096386,5b91dced1dda7800018d0a5b,65d6bb0e977760de756971f7,65d6bcc8089e753d14451724,0.0344,0.0344,0,17,17,131,1,sixeight,,,,,,,,,,,,,,,,,,,,,,,,,,,,,,,,,,,,,,,,,,,,,,,,,,,,,,,,,,,,,,,,,,,,,,,,,,,,,,,,,,,,,,,,,,,,,,,,,,,,,,,,,,,,,,,,,,,,,,,,,,,,,,,,,,,,,,,,,
,,5b91dced1dda7800018d0a5b,2024-02-22_16h18.00.827,kallum_motion_pilot,2023.2.2,Win32,60.24096386,5b91dced1dda7800018d0a5b,65d6bb0e977760de756971f7,65d6bcc8089e753d14451724,0.0347,0.0347,0,18,18,27,1,twofour,,,,,,,,,,,,,,,,,,,,,,,,,,,,,,,,,,,,,,,,,,,,,,,,,,,,,,,,,,,,,,,,,,,,,,,,,,,,,,,,,,,,,,,,,,,,,,,,,,,,,,,,,,,,,,,,,,,,,,,,,,,,,,,,,,,,,,,,,
,,5b91dced1dda7800018d0a5b,2024-02-22_16h18.00.827,kallum_motion_pilot,2023.2.2,Win32,60.24096386,5b91dced1dda7800018d0a5b,65d6bb0e977760de756971f7,65d6bcc8089e753d14451724,0.0349,0.035,0,19,19,54,1,fourtwo,,,,,,,,,,,,,,,,,,,,,,,,,,,,,,,,,,,,,,,,,,,,,,,,,,,,,,,,,,,,,,,,,,,,,,,,,,,,,,,,,,,,,,,,,,,,,,,,,,,,,,,,,,,,,,,,,,,,,,,,,,,,,,,,,,,,,,,,,
,,5b91dced1dda7800018d0a5b,2024-02-22_16h18.00.827,kallum_motion_pilot,2023.2.2,Win32,60.24096386,5b91dced1dda7800018d0a5b,65d6bb0e977760de756971f7,65d6bcc8089e753d14451724,0.0351,0.0352,0,20,20,133,1,seveneight,,,,,,,,,,,,,,,,,,,,,,,,,,,,,,,,,,,,,,,,,,,,,,,,,,,,,,,,,,,,,,,,,,,,,,,,,,,,,,,,,,,,,,,,,,,,,,,,,,,,,,,,,,,,,,,,,,,,,,,,,,,,,,,,,,,,,,,,,
,,5b91dced1dda7800018d0a5b,2024-02-22_16h18.00.827,kallum_motion_pilot,2023.2.2,Win32,60.24096386,5b91dced1dda7800018d0a5b,65d6bb0e977760de756971f7,65d6bcc8089e753d14451724,0.0353,0.0353,0,21,21,80,1,fivesix,,,,,,,,,,,,,,,,,,,,,,,,,,,,,,,,,,,,,,,,,,,,,,,,,,,,,,,,,,,,,,,,,,,,,,,,,,,,,,,,,,,,,,,,,,,,,,,,,,,,,,,,,,,,,,,,,,,,,,,,,,,,,,,,,,,,,,,,,
,,5b91dced1dda7800018d0a5b,2024-02-22_16h18.00.827,kallum_motion_pilot,2023.2.2,Win32,60.24096386,5b91dced1dda7800018d0a5b,65d6bb0e977760de756971f7,65d6bcc8089e753d14451724,0.0354,0.0354,0,22,22,58,1,twoone,,,,,,,,,,,,,,,,,,,,,,,,,,,,,,,,,,,,,,,,,,,,,,,,,,,,,,,,,,,,,,,,,,,,,,,,,,,,,,,,,,,,,,,,,,,,,,,,,,,,,,,,,,,,,,,,,,,,,,,,,,,,,,,,,,,,,,,,,
,,5b91dced1dda7800018d0a5b,2024-02-22_16h18.00.827,kallum_motion_pilot,2023.2.2,Win32,60.24096386,5b91dced1dda7800018d0a5b,65d6bb0e977760de756971f7,65d6bcc8089e753d14451724,0.0372,0.0372,0,23,23,108,1,sevenfive,,,,,,,,,,,,,,,,,,,,,,,,,,,,,,,,,,,,,,,,,,,,,,,,,,,,,,,,,,,,,,,,,,,,,,,,,,,,,,,,,,,,,,,,,,,,,,,,,,,,,,,,,,,,,,,,,,,,,,,,,,,,,,,,,,,,,,,,,
,,5b91dced1dda7800018d0a5b,2024-02-22_16h18.00.827,kallum_motion_pilot,2023.2.2,Win32,60.24096386,5b91dced1dda7800018d0a5b,65d6bb0e977760de756971f7,65d6bcc8089e753d14451724,0.0375,0.0375,0,24,24,6,1,fourtwo,,,,,,,,,,,,,,,,,,,,,,,,,,,,,,,,,,,,,,,,,,,,,,,,,,,,,,,,,,,,,,,,,,,,,,,,,,,,,,,,,,,,,,,,,,,,,,,,,,,,,,,,,,,,,,,,,,,,,,,,,,,,,,,,,,,,,,,,,
,,5b91dced1dda7800018d0a5b,2024-02-22_16h18.00.827,kallum_motion_pilot,2023.2.2,Win32,60.24096386,5b91dced1dda7800018d0a5b,65d6bb0e977760de756971f7,65d6bcc8089e753d14451724,0.0376,0.0376,0,25,25,93,1,seveneight,,,,,,,,,,,,,,,,,,,,,,,,,,,,,,,,,,,,,,,,,,,,,,,,,,,,,,,,,,,,,,,,,,,,,,,,,,,,,,,,,,,,,,,,,,,,,,,,,,,,,,,,,,,,,,,,,,,,,,,,,,,,,,,,,,,,,,,,,
,,5b91dced1dda7800018d0a5b,2024-02-22_16h18.00.827,kallum_motion_pilot,2023.2.2,Win32,60.24096386,5b91dced1dda7800018d0a5b,65d6bb0e977760de756971f7,65d6bcc8089e753d14451724,0.0377,0.0377,0,26,26,141,1,seveneight,,,,,,,,,,,,,,,,,,,,,,,,,,,,,,,,,,,,,,,,,,,,,,,,,,,,,,,,,,,,,,,,,,,,,,,,,,,,,,,,,,,,,,,,,,,,,,,,,,,,,,,,,,,,,,,,,,,,,,,,,,,,,,,,,,,,,,,,,
,,5b91dced1dda7800018d0a5b,2024-02-22_16h18.00.827,kallum_motion_pilot,2023.2.2,Win32,60.24096386,5b91dced1dda7800018d0a5b,65d6bb0e977760de756971f7,65d6bcc8089e753d14451724,0.0378,0.0378,0,27,27,41,1,onethree,,,,,,,,,,,,,,,,,,,,,,,,,,,,,,,,,,,,,,,,,,,,,,,,,,,,,,,,,,,,,,,,,,,,,,,,,,,,,,,,,,,,,,,,,,,,,,,,,,,,,,,,,,,,,,,,,,,,,,,,,,,,,,,,,,,,,,,,,
,,5b91dced1dda7800018d0a5b,2024-02-22_16h18.00.827,kallum_motion_pilot,2023.2.2,Win32,60.24096386,5b91dced1dda7800018d0a5b,65d6bb0e977760de756971f7,65d6bcc8089e753d14451724,0.0379,0.0379,0,28,28,128,1,fivesix,,,,,,,,,,,,,,,,,,,,,,,,,,,,,,,,,,,,,,,,,,,,,,,,,,,,,,,,,,,,,,,,,,,,,,,,,,,,,,,,,,,,,,,,,,,,,,,,,,,,,,,,,,,,,,,,,,,,,,,,,,,,,,,,,,,,,,,,,
,,5b91dced1dda7800018d0a5b,2024-02-22_16h18.00.827,kallum_motion_pilot,2023.2.2,Win32,60.24096386,5b91dced1dda7800018d0a5b,65d6bb0e977760de756971f7,65d6bcc8089e753d14451724,0.038,0.038,0,29,29,112,1,fivesix,,,,,,,,,,,,,,,,,,,,,,,,,,,,,,,,,,,,,,,,,,,,,,,,,,,,,,,,,,,,,,,,,,,,,,,,,,,,,,,,,,,,,,,,,,,,,,,,,,,,,,,,,,,,,,,,,,,,,,,,,,,,,,,,,,,,,,,,,
,,5b91dced1dda7800018d0a5b,2024-02-22_16h18.00.827,kallum_motion_pilot,2023.2.2,Win32,60.24096386,5b91dced1dda7800018d0a5b,65d6bb0e977760de756971f7,65d6bcc8089e753d14451724,0.0381,0.0381,0,30,30,16,1,onetwo,,,,,,,,,,,,,,,,,,,,,,,,,,,,,,,,,,,,,,,,,,,,,,,,,,,,,,,,,,,,,,,,,,,,,,,,,,,,,,,,,,,,,,,,,,,,,,,,,,,,,,,,,,,,,,,,,,,,,,,,,,,,,,,,,,,,,,,,,
,,5b91dced1dda7800018d0a5b,2024-02-22_16h18.00.827,kallum_motion_pilot,2023.2.2,Win32,60.24096386,5b91dced1dda7800018d0a5b,65d6bb0e977760de756971f7,65d6bcc8089e753d14451724,0.0382,0.0382,0,31,31,66,1,twoone,,,,,,,,,,,,,,,,,,,,,,,,,,,,,,,,,,,,,,,,,,,,,,,,,,,,,,,,,,,,,,,,,,,,,,,,,,,,,,,,,,,,,,,,,,,,,,,,,,,,,,,,,,,,,,,,,,,,,,,,,,,,,,,,,,,,,,,,,
,,5b91dced1dda7800018d0a5b,2024-02-22_16h18.00.827,kallum_motion_pilot,2023.2.2,Win32,60.24096386,5b91dced1dda7800018d0a5b,65d6bb0e977760de756971f7,65d6bcc8089e753d14451724,0.0383,0.0383,0,32,32,56,1,onetwo,,,,,,,,,,,,,,,,,,,,,,,,,,,,,,,,,,,,,,,,,,,,,,,,,,,,,,,,,,,,,,,,,,,,,,,,,,,,,,,,,,,,,,,,,,,,,,,,,,,,,,,,,,,,,,,,,,,,,,,,,,,,,,,,,,,,,,,,,
,,5b91dced1dda7800018d0a5b,2024-02-22_16h18.00.827,kallum_motion_pilot,2023.2.2,Win32,60.24096386,5b91dced1dda7800018d0a5b,65d6bb0e977760de756971f7,65d6bcc8089e753d14451724,0.0384,0.0385,0,33,33,53,1,threefour,,,,,,,,,,,,,,,,,,,,,,,,,,,,,,,,,,,,,,,,,,,,,,,,,,,,,,,,,,,,,,,,,,,,,,,,,,,,,,,,,,,,,,,,,,,,,,,,,,,,,,,,,,,,,,,,,,,,,,,,,,,,,,,,,,,,,,,,,
,,5b91dced1dda7800018d0a5b,2024-02-22_16h18.00.827,kallum_motion_pilot,2023.2.2,Win32,60.24096386,5b91dced1dda7800018d0a5b,65d6bb0e977760de756971f7,65d6bcc8089e753d14451724,0.0385,0.0385,0,34,34,29,1,threefour,,,,,,,,,,,,,,,,,,,,,,,,,,,,,,,,,,,,,,,,,,,,,,,,,,,,,,,,,,,,,,,,,,,,,,,,,,,,,,,,,,,,,,,,,,,,,,,,,,,,,,,,,,,,,,,,,,,,,,,,,,,,,,,,,,,,,,,,,
,,5b91dced1dda7800018d0a5b,2024-02-22_16h18.00.827,kallum_motion_pilot,2023.2.2,Win32,60.24096386,5b91dced1dda7800018d0a5b,65d6bb0e977760de756971f7,65d6bcc8089e753d14451724,0.0385,0.0386,0,35,35,91,1,sixeight,,,,,,,,,,,,,,,,,,,,,,,,,,,,,,,,,,,,,,,,,,,,,,,,,,,,,,,,,,,,,,,,,,,,,,,,,,,,,,,,,,,,,,,,,,,,,,,,,,,,,,,,,,,,,,,,,,,,,,,,,,,,,,,,,,,,,,,,,
,,5b91dced1dda7800018d0a5b,2024-02-22_16h18.00.827,kallum_motion_pilot,2023.2.2,Win32,60.24096386,5b91dced1dda7800018d0a5b,65d6bb0e977760de756971f7,65d6bcc8089e753d14451724,0.0387,0.0387,0,36,36,160,1,fivesix,,,,,,,,,,,,,,,,,,,,,,,,,,,,,,,,,,,,,,,,,,,,,,,,,,,,,,,,,,,,,,,,,,,,,,,,,,,,,,,,,,,,,,,,,,,,,,,,,,,,,,,,,,,,,,,,,,,,,,,,,,,,,,,,,,,,,,,,,
,,5b91dced1dda7800018d0a5b,2024-02-22_16h18.00.827,kallum_motion_pilot,2023.2.2,Win32,60.24096386,5b91dced1dda7800018d0a5b,65d6bb0e977760de756971f7,65d6bcc8089e753d14451724,0.0387,0.0388,0,37,37,79,1,eightseven,,,,,,,,,,,,,,,,,,,,,,,,,,,,,,,,,,,,,,,,,,,,,,,,,,,,,,,,,,,,,,,,,,,,,,,,,,,,,,,,,,,,,,,,,,,,,,,,,,,,,,,,,,,,,,,,,,,,,,,,,,,,,,,,,,,,,,,,,
,,5b91dced1dda7800018d0a5b,2024-02-22_16h18.00.827,kallum_motion_pilot,2023.2.2,Win32,60.24096386,5b91dced1dda7800018d0a5b,65d6bb0e977760de756971f7,65d6bcc8089e753d14451724,0.0389,0.0389,0,38,38,45,1,threefour,,,,,,,,,,,,,,,,,,,,,,,,,,,,,,,,,,,,,,,,,,,,,,,,,,,,,,,,,,,,,,,,,,,,,,,,,,,,,,,,,,,,,,,,,,,,,,,,,,,,,,,,,,,,,,,,,,,,,,,,,,,,,,,,,,,,,,,,,
,,5b91dced1dda7800018d0a5b,2024-02-22_16h18.00.827,kallum_motion_pilot,2023.2.2,Win32,60.24096386,5b91dced1dda7800018d0a5b,65d6bb0e977760de756971f7,65d6bcc8089e753d14451724,0.039,0.039,0,39,39,102,1,eightsix,,,,,,,,,,,,,,,,,,,,,,,,,,,,,,,,,,,,,,,,,,,,,,,,,,,,,,,,,,,,,,,,,,,,,,,,,,,,,,,,,,,,,,,,,,,,,,,,,,,,,,,,,,,,,,,,,,,,,,,,,,,,,,,,,,,,,,,,,
,,5b91dced1dda7800018d0a5b,2024-02-22_16h18.00.827,kallum_motion_pilot,2023.2.2,Win32,60.24096386,5b91dced1dda7800018d0a5b,65d6bb0e977760de756971f7,65d6bcc8089e753d14451724,0.0391,0.0391,0,40,40,149,1,seveneight,,,,,,,,,,,,,,,,,,,,,,,,,,,,,,,,,,,,,,,,,,,,,,,,,,,,,,,,,,,,,,,,,,,,,,,,,,,,,,,,,,,,,,,,,,,,,,,,,,,,,,,,,,,,,,,,,,,,,,,,,,,,,,,,,,,,,,,,,
,,5b91dced1dda7800018d0a5b,2024-02-22_16h18.00.827,kallum_motion_pilot,2023.2.2,Win32,60.24096386,5b91dced1dda7800018d0a5b,65d6bb0e977760de756971f7,65d6bcc8089e753d14451724,0.0391,0.0392,0,41,41,30,1,fourtwo,,,,,,,,,,,,,,,,,,,,,,,,,,,,,,,,,,,,,,,,,,,,,,,,,,,,,,,,,,,,,,,,,,,,,,,,,,,,,,,,,,,,,,,,,,,,,,,,,,,,,,,,,,,,,,,,,,,,,,,,,,,,,,,,,,,,,,,,,
,,5b91dced1dda7800018d0a5b,2024-02-22_16h18.00.827,kallum_motion_pilot,2023.2.2,Win32,60.24096386,5b91dced1dda7800018d0a5b,65d6bb0e977760de756971f7,65d6bcc8089e753d14451724,0.0392,0.0392,0,42,42,17,1,onethree,,,,,,,,,,,,,,,,,,,,,,,,,,,,,,,,,,,,,,,,,,,,,,,,,,,,,,,,,,,,,,,,,,,,,,,,,,,,,,,,,,,,,,,,,,,,,,,,,,,,,,,,,,,,,,,,,,,,,,,,,,,,,,,,,,,,,,,,,
,,5b91dced1dda7800018d0a5b,2024-02-22_16h18.00.827,kallum_motion_pilot,2023.2.2,Win32,60.24096386,5b91dced1dda7800018d0a5b,65d6bb0e977760de756971f7,65d6bcc8089e753d14451724,0.0393,0.0393,0,43,43,107,1,sixeight,,,,,,,,,,,,,,,,,,,,,,,,,,,,,,,,,,,,,,,,,,,,,,,,,,,,,,,,,,,,,,,,,,,,,,,,,,,,,,,,,,,,,,,,,,,,,,,,,,,,,,,,,,,,,,,,,,,,,,,,,,,,,,,,,,,,,,,,,
,,5b91dced1dda7800018d0a5b,2024-02-22_16h18.00.827,kallum_motion_pilot,2023.2.2,Win32,60.24096386,5b91dced1dda7800018d0a5b,65d6bb0e977760de756971f7,65d6bcc8089e753d14451724,0.0395,0.0395,0,44,44,21,1,threefour,,,,,,,,,,,,,,,,,,,,,,,,,,,,,,,,,,,,,,,,,,,,,,,,,,,,,,,,,,,,,,,,,,,,,,,,,,,,,,,,,,,,,,,,,,,,,,,,,,,,,,,,,,,,,,,,,,,,,,,,,,,,,,,,,,,,,,,,,
,,5b91dced1dda7800018d0a5b,2024-02-22_16h18.00.827,kallum_motion_pilot,2023.2.2,Win32,60.24096386,5b91dced1dda7800018d0a5b,65d6bb0e977760de756971f7,65d6bcc8089e753d14451724,0.0395,0.0395,0,45,45,103,1,eightseven,,,,,,,,,,,,,,,,,,,,,,,,,,,,,,,,,,,,,,,,,,,,,,,,,,,,,,,,,,,,,,,,,,,,,,,,,,,,,,,,,,,,,,,,,,,,,,,,,,,,,,,,,,,,,,,,,,,,,,,,,,,,,,,,,,,,,,,,,
,,5b91dced1dda7800018d0a5b,2024-02-22_16h18.00.827,kallum_motion_pilot,2023.2.2,Win32,60.24096386,5b91dced1dda7800018d0a5b,65d6bb0e977760de756971f7,65d6bcc8089e753d14451724,0.0396,0.0396,0,46,46,85,1,seveneight,,,,,,,,,,,,,,,,,,,,,,,,,,,,,,,,,,,,,,,,,,,,,,,,,,,,,,,,,,,,,,,,,,,,,,,,,,,,,,,,,,,,,,,,,,,,,,,,,,,,,,,,,,,,,,,,,,,,,,,,,,,,,,,,,,,,,,,,,
,,5b91dced1dda7800018d0a5b,2024-02-22_16h18.00.827,kallum_motion_pilot,2023.2.2,Win32,60.24096386,5b91dced1dda7800018d0a5b,65d6bb0e977760de756971f7,65d6bcc8089e753d14451724,0.0398,0.0398,0,47,47,129,1,fiveseven,,,,,,,,,,,,,,,,,,,,,,,,,,,,,,,,,,,,,,,,,,,,,,,,,,,,,,,,,,,,,,,,,,,,,,,,,,,,,,,,,,,,,,,,,,,,,,,,,,,,,,,,,,,,,,,,,,,,,,,,,,,,,,,,,,,,,,,,,
,,5b91dced1dda7800018d0a5b,2024-02-22_16h18.00.827,kallum_motion_pilot,2023.2.2,Win32,60.24096386,5b91dced1dda7800018d0a5b,65d6bb0e977760de756971f7,65d6bcc8089e753d14451724,0.0398,0.0399,0,48,48,44,1,threeone,,,,,,,,,,,,,,,,,,,,,,,,,,,,,,,,,,,,,,,,,,,,,,,,,,,,,,,,,,,,,,,,,,,,,,,,,,,,,,,,,,,,,,,,,,,,,,,,,,,,,,,,,,,,,,,,,,,,,,,,,,,,,,,,,,,,,,,,,
,,5b91dced1dda7800018d0a5b,2024-02-22_16h18.00.827,kallum_motion_pilot,2023.2.2,Win32,60.24096386,5b91dced1dda7800018d0a5b,65d6bb0e977760de756971f7,65d6bcc8089e753d14451724,0.04,0.04,0,49,49,60,1,threeone,,,,,,,,,,,,,,,,,,,,,,,,,,,,,,,,,,,,,,,,,,,,,,,,,,,,,,,,,,,,,,,,,,,,,,,,,,,,,,,,,,,,,,,,,,,,,,,,,,,,,,,,,,,,,,,,,,,,,,,,,,,,,,,,,,,,,,,,,
,,5b91dced1dda7800018d0a5b,2024-02-22_16h18.00.827,kallum_motion_pilot,2023.2.2,Win32,60.24096386,5b91dced1dda7800018d0a5b,65d6bb0e977760de756971f7,65d6bcc8089e753d14451724,0.0401,0.0401,0,50,50,147,1,sixeight,,,,,,,,,,,,,,,,,,,,,,,,,,,,,,,,,,,,,,,,,,,,,,,,,,,,,,,,,,,,,,,,,,,,,,,,,,,,,,,,,,,,,,,,,,,,,,,,,,,,,,,,,,,,,,,,,,,,,,,,,,,,,,,,,,,,,,,,,
,,5b91dced1dda7800018d0a5b,2024-02-22_16h18.00.827,kallum_motion_pilot,2023.2.2,Win32,60.24096386,5b91dced1dda7800018d0a5b,65d6bb0e977760de756971f7,65d6bcc8089e753d14451724,0.0402,0.0403,0,51,51,39,1,fourthree,,,,,,,,,,,,,,,,,,,,,,,,,,,,,,,,,,,,,,,,,,,,,,,,,,,,,,,,,,,,,,,,,,,,,,,,,,,,,,,,,,,,,,,,,,,,,,,,,,,,,,,,,,,,,,,,,,,,,,,,,,,,,,,,,,,,,,,,,
,,5b91dced1dda7800018d0a5b,2024-02-22_16h18.00.827,kallum_motion_pilot,2023.2.2,Win32,60.24096386,5b91dced1dda7800018d0a5b,65d6bb0e977760de756971f7,65d6bcc8089e753d14451724,0.0403,0.0404,0,52,52,154,1,sixfive,,,,,,,,,,,,,,,,,,,,,,,,,,,,,,,,,,,,,,,,,,,,,,,,,,,,,,,,,,,,,,,,,,,,,,,,,,,,,,,,,,,,,,,,,,,,,,,,,,,,,,,,,,,,,,,,,,,,,,,,,,,,,,,,,,,,,,,,,
,,5b91dced1dda7800018d0a5b,2024-02-22_16h18.00.827,kallum_motion_pilot,2023.2.2,Win32,60.24096386,5b91dced1dda7800018d0a5b,65d6bb0e977760de756971f7,65d6bcc8089e753d14451724,0.0405,0.0405,0,53,53,5,1,threefour,,,,,,,,,,,,,,,,,,,,,,,,,,,,,,,,,,,,,,,,,,,,,,,,,,,,,,,,,,,,,,,,,,,,,,,,,,,,,,,,,,,,,,,,,,,,,,,,,,,,,,,,,,,,,,,,,,,,,,,,,,,,,,,,,,,,,,,,,
,,5b91dced1dda7800018d0a5b,2024-02-22_16h18.00.827,kallum_motion_pilot,2023.2.2,Win32,60.24096386,5b91dced1dda7800018d0a5b,65d6bb0e977760de756971f7,65d6bcc8089e753d14451724,0.0406,0.0406,0,54,54,42,1,twoone,,,,,,,,,,,,,,,,,,,,,,,,,,,,,,,,,,,,,,,,,,,,,,,,,,,,,,,,,,,,,,,,,,,,,,,,,,,,,,,,,,,,,,,,,,,,,,,,,,,,,,,,,,,,,,,,,,,,,,,,,,,,,,,,,,,,,,,,,
,,5b91dced1dda7800018d0a5b,2024-02-22_16h18.00.827,kallum_motion_pilot,2023.2.2,Win32,60.24096386,5b91dced1dda7800018d0a5b,65d6bb0e977760de756971f7,65d6bcc8089e753d14451724,0.0406,0.0406,0,55,55,34,1,twoone,,,,,,,,,,,,,,,,,,,,,,,,,,,,,,,,,,,,,,,,,,,,,,,,,,,,,,,,,,,,,,,,,,,,,,,,,,,,,,,,,,,,,,,,,,,,,,,,,,,,,,,,,,,,,,,,,,,,,,,,,,,,,,,,,,,,,,,,,
,,5b91dced1dda7800018d0a5b,2024-02-22_16h18.00.827,kallum_motion_pilot,2023.2.2,Win32,60.24096386,5b91dced1dda7800018d0a5b,65d6bb0e977760de756971f7,65d6bcc8089e753d14451724,0.0408,0.0409,0,56,56,109,1,seveneight,,,,,,,,,,,,,,,,,,,,,,,,,,,,,,,,,,,,,,,,,,,,,,,,,,,,,,,,,,,,,,,,,,,,,,,,,,,,,,,,,,,,,,,,,,,,,,,,,,,,,,,,,,,,,,,,,,,,,,,,,,,,,,,,,,,,,,,,,
,,5b91dced1dda7800018d0a5b,2024-02-22_16h18.00.827,kallum_motion_pilot,2023.2.2,Win32,60.24096386,5b91dced1dda7800018d0a5b,65d6bb0e977760de756971f7,65d6bcc8089e753d14451724,0.0409,0.0409,0,57,57,62,1,fourtwo,,,,,,,,,,,,,,,,,,,,,,,,,,,,,,,,,,,,,,,,,,,,,,,,,,,,,,,,,,,,,,,,,,,,,,,,,,,,,,,,,,,,,,,,,,,,,,,,,,,,,,,,,,,,,,,,,,,,,,,,,,,,,,,,,,,,,,,,,
,,5b91dced1dda7800018d0a5b,2024-02-22_16h18.00.827,kallum_motion_pilot,2023.2.2,Win32,60.24096386,5b91dced1dda7800018d0a5b,65d6bb0e977760de756971f7,65d6bcc8089e753d14451724,0.041,0.041,0,58,58,90,1,sixfive,,,,,,,,,,,,,,,,,,,,,,,,,,,,,,,,,,,,,,,,,,,,,,,,,,,,,,,,,,,,,,,,,,,,,,,,,,,,,,,,,,,,,,,,,,,,,,,,,,,,,,,,,,,,,,,,,,,,,,,,,,,,,,,,,,,,,,,,,
,,5b91dced1dda7800018d0a5b,2024-02-22_16h18.00.827,kallum_motion_pilot,2023.2.2,Win32,60.24096386,5b91dced1dda7800018d0a5b,65d6bb0e977760de756971f7,65d6bcc8089e753d14451724,0.0411,0.0412,0,59,59,106,1,sixfive,,,,,,,,,,,,,,,,,,,,,,,,,,,,,,,,,,,,,,,,,,,,,,,,,,,,,,,,,,,,,,,,,,,,,,,,,,,,,,,,,,,,,,,,,,,,,,,,,,,,,,,,,,,,,,,,,,,,,,,,,,,,,,,,,,,,,,,,,
,,5b91dced1dda7800018d0a5b,2024-02-22_16h18.00.827,kallum_motion_pilot,2023.2.2,Win32,60.24096386,5b91dced1dda7800018d0a5b,65d6bb0e977760de756971f7,65d6bcc8089e753d14451724,0.0412,0.0412,0,60,60,24,1,onetwo,,,,,,,,,,,,,,,,,,,,,,,,,,,,,,,,,,,,,,,,,,,,,,,,,,,,,,,,,,,,,,,,,,,,,,,,,,,,,,,,,,,,,,,,,,,,,,,,,,,,,,,,,,,,,,,,,,,,,,,,,,,,,,,,,,,,,,,,,
,,5b91dced1dda7800018d0a5b,2024-02-22_16h18.00.827,kallum_motion_pilot,2023.2.2,Win32,60.24096386,5b91dced1dda7800018d0a5b,65d6bb0e977760de756971f7,65d6bcc8089e753d14451724,0.0413,0.0413,0,61,61,120,1,fivesix,,,,,,,,,,,,,,,,,,,,,,,,,,,,,,,,,,,,,,,,,,,,,,,,,,,,,,,,,,,,,,,,,,,,,,,,,,,,,,,,,,,,,,,,,,,,,,,,,,,,,,,,,,,,,,,,,,,,,,,,,,,,,,,,,,,,,,,,,
,,5b91dced1dda7800018d0a5b,2024-02-22_16h18.00.827,kallum_motion_pilot,2023.2.2,Win32,60.24096386,5b91dced1dda7800018d0a5b,65d6bb0e977760de756971f7,65d6bcc8089e753d14451724,0.0414,0.0415,0,62,62,115,1,sixeight,,,,,,,,,,,,,,,,,,,,,,,,,,,,,,,,,,,,,,,,,,,,,,,,,,,,,,,,,,,,,,,,,,,,,,,,,,,,,,,,,,,,,,,,,,,,,,,,,,,,,,,,,,,,,,,,,,,,,,,,,,,,,,,,,,,,,,,,,
,,5b91dced1dda7800018d0a5b,2024-02-22_16h18.00.827,kallum_motion_pilot,2023.2.2,Win32,60.24096386,5b91dced1dda7800018d0a5b,65d6bb0e977760de756971f7,65d6bcc8089e753d14451724,0.0415,0.0416,0,63,63,20,1,threeone,,,,,,,,,,,,,,,,,,,,,,,,,,,,,,,,,,,,,,,,,,,,,,,,,,,,,,,,,,,,,,,,,,,,,,,,,,,,,,,,,,,,,,,,,,,,,,,,,,,,,,,,,,,,,,,,,,,,,,,,,,,,,,,,,,,,,,,,,
,,5b91dced1dda7800018d0a5b,2024-02-22_16h18.00.827,kallum_motion_pilot,2023.2.2,Win32,60.24096386,5b91dced1dda7800018d0a5b,65d6bb0e977760de756971f7,65d6bcc8089e753d14451724,0.0417,0.0417,0,64,64,92,1,sevenfive,,,,,,,,,,,,,,,,,,,,,,,,,,,,,,,,,,,,,,,,,,,,,,,,,,,,,,,,,,,,,,,,,,,,,,,,,,,,,,,,,,,,,,,,,,,,,,,,,,,,,,,,,,,,,,,,,,,,,,,,,,,,,,,,,,,,,,,,,
,,5b91dced1dda7800018d0a5b,2024-02-22_16h18.00.827,kallum_motion_pilot,2023.2.2,Win32,60.24096386,5b91dced1dda7800018d0a5b,65d6bb0e977760de756971f7,65d6bcc8089e753d14451724,0.0418,0.0418,0,65,65,119,1,eightseven,,,,,,,,,,,,,,,,,,,,,,,,,,,,,,,,,,,,,,,,,,,,,,,,,,,,,,,,,,,,,,,,,,,,,,,,,,,,,,,,,,,,,,,,,,,,,,,,,,,,,,,,,,,,,,,,,,,,,,,,,,,,,,,,,,,,,,,,,
,,5b91dced1dda7800018d0a5b,2024-02-22_16h18.00.827,kallum_motion_pilot,2023.2.2,Win32,60.24096386,5b91dced1dda7800018d0a5b,65d6bb0e977760de756971f7,65d6bcc8089e753d14451724,0.042,0.042,0,66,66,105,1,fiveseven,,,,,,,,,,,,,,,,,,,,,,,,,,,,,,,,,,,,,,,,,,,,,,,,,,,,,,,,,,,,,,,,,,,,,,,,,,,,,,,,,,,,,,,,,,,,,,,,,,,,,,,,,,,,,,,,,,,,,,,,,,,,,,,,,,,,,,,,,
,,5b91dced1dda7800018d0a5b,2024-02-22_16h18.00.827,kallum_motion_pilot,2023.2.2,Win32,60.24096386,5b91dced1dda7800018d0a5b,65d6bb0e977760de756971f7,65d6bcc8089e753d14451724,0.042,0.042,0,67,67,96,1,fivesix,,,,,,,,,,,,,,,,,,,,,,,,,,,,,,,,,,,,,,,,,,,,,,,,,,,,,,,,,,,,,,,,,,,,,,,,,,,,,,,,,,,,,,,,,,,,,,,,,,,,,,,,,,,,,,,,,,,,,,,,,,,,,,,,,,,,,,,,,
,,5b91dced1dda7800018d0a5b,2024-02-22_16h18.00.827,kallum_motion_pilot,2023.2.2,Win32,60.24096386,5b91dced1dda7800018d0a5b,65d6bb0e977760de756971f7,65d6bcc8089e753d14451724,0.0422,0.0422,0,68,68,114,1,sixfive,,,,,,,,,,,,,,,,,,,,,,,,,,,,,,,,,,,,,,,,,,,,,,,,,,,,,,,,,,,,,,,,,,,,,,,,,,,,,,,,,,,,,,,,,,,,,,,,,,,,,,,,,,,,,,,,,,,,,,,,,,,,,,,,,,,,,,,,,
,,5b91dced1dda7800018d0a5b,2024-02-22_16h18.00.827,kallum_motion_pilot,2023.2.2,Win32,60.24096386,5b91dced1dda7800018d0a5b,65d6bb0e977760de756971f7,65d6bcc8089e753d14451724,0.0423,0.0424,0,69,69,84,1,sevenfive,,,,,,,,,,,,,,,,,,,,,,,,,,,,,,,,,,,,,,,,,,,,,,,,,,,,,,,,,,,,,,,,,,,,,,,,,,,,,,,,,,,,,,,,,,,,,,,,,,,,,,,,,,,,,,,,,,,,,,,,,,,,,,,,,,,,,,,,,
,,5b91dced1dda7800018d0a5b,2024-02-22_16h18.00.827,kallum_motion_pilot,2023.2.2,Win32,60.24096386,5b91dced1dda7800018d0a5b,65d6bb0e977760de756971f7,65d6bcc8089e753d14451724,0.0424,0.0425,0,70,70,94,1,eightsix,,,,,,,,,,,,,,,,,,,,,,,,,,,,,,,,,,,,,,,,,,,,,,,,,,,,,,,,,,,,,,,,,,,,,,,,,,,,,,,,,,,,,,,,,,,,,,,,,,,,,,,,,,,,,,,,,,,,,,,,,,,,,,,,,,,,,,,,,
,,5b91dced1dda7800018d0a5b,2024-02-22_16h18.00.827,kallum_motion_pilot,2023.2.2,Win32,60.24096386,5b91dced1dda7800018d0a5b,65d6bb0e977760de756971f7,65d6bcc8089e753d14451724,0.0425,0.0426,0,71,71,140,1,sevenfive,,,,,,,,,,,,,,,,,,,,,,,,,,,,,,,,,,,,,,,,,,,,,,,,,,,,,,,,,,,,,,,,,,,,,,,,,,,,,,,,,,,,,,,,,,,,,,,,,,,,,,,,,,,,,,,,,,,,,,,,,,,,,,,,,,,,,,,,,
,,5b91dced1dda7800018d0a5b,2024-02-22_16h18.00.827,kallum_motion_pilot,2023.2.2,Win32,60.24096386,5b91dced1dda7800018d0a5b,65d6bb0e977760de756971f7,65d6bcc8089e753d14451724,0.0427,0.0427,0,72,72,65,1,onethree,,,,,,,,,,,,,,,,,,,,,,,,,,,,,,,,,,,,,,,,,,,,,,,,,,,,,,,,,,,,,,,,,,,,,,,,,,,,,,,,,,,,,,,,,,,,,,,,,,,,,,,,,,,,,,,,,,,,,,,,,,,,,,,,,,,,,,,,,
,,5b91dced1dda7800018d0a5b,2024-02-22_16h18.00.827,kallum_motion_pilot,2023.2.2,Win32,60.24096386,5b91dced1dda7800018d0a5b,65d6bb0e977760de756971f7,65d6bcc8089e753d14451724,0.0428,0.0428,0,73,73,150,1,eightsix,,,,,,,,,,,,,,,,,,,,,,,,,,,,,,,,,,,,,,,,,,,,,,,,,,,,,,,,,,,,,,,,,,,,,,,,,,,,,,,,,,,,,,,,,,,,,,,,,,,,,,,,,,,,,,,,,,,,,,,,,,,,,,,,,,,,,,,,,
,,5b91dced1dda7800018d0a5b,2024-02-22_16h18.00.827,kallum_motion_pilot,2023.2.2,Win32,60.24096386,5b91dced1dda7800018d0a5b,65d6bb0e977760de756971f7,65d6bcc8089e753d14451724,0.0429,0.043,0,74,74,136,1,fivesix,,,,,,,,,,,,,,,,,,,,,,,,,,,,,,,,,,,,,,,,,,,,,,,,,,,,,,,,,,,,,,,,,,,,,,,,,,,,,,,,,,,,,,,,,,,,,,,,,,,,,,,,,,,,,,,,,,,,,,,,,,,,,,,,,,,,,,,,,
,,5b91dced1dda7800018d0a5b,2024-02-22_16h18.00.827,kallum_motion_pilot,2023.2.2,Win32,60.24096386,5b91dced1dda7800018d0a5b,65d6bb0e977760de756971f7,65d6bcc8089e753d14451724,0.0431,0.0431,0,75,75,158,1,eightsix,,,,,,,,,,,,,,,,,,,,,,,,,,,,,,,,,,,,,,,,,,,,,,,,,,,,,,,,,,,,,,,,,,,,,,,,,,,,,,,,,,,,,,,,,,,,,,,,,,,,,,,,,,,,,,,,,,,,,,,,,,,,,,,,,,,,,,,,,
,,5b91dced1dda7800018d0a5b,2024-02-22_16h18.00.827,kallum_motion_pilot,2023.2.2,Win32,60.24096386,5b91dced1dda7800018d0a5b,65d6bb0e977760de756971f7,65d6bcc8089e753d14451724,0.0431,0.0432,0,76,76,76,1,threeone,,,,,,,,,,,,,,,,,,,,,,,,,,,,,,,,,,,,,,,,,,,,,,,,,,,,,,,,,,,,,,,,,,,,,,,,,,,,,,,,,,,,,,,,,,,,,,,,,,,,,,,,,,,,,,,,,,,,,,,,,,,,,,,,,,,,,,,,,
,,5b91dced1dda7800018d0a5b,2024-02-22_16h18.00.827,kallum_motion_pilot,2023.2.2,Win32,60.24096386,5b91dced1dda7800018d0a5b,65d6bb0e977760de756971f7,65d6bcc8089e753d14451724,0.0432,0.0433,0,77,77,148,1,sevenfive,,,,,,,,,,,,,,,,,,,,,,,,,,,,,,,,,,,,,,,,,,,,,,,,,,,,,,,,,,,,,,,,,,,,,,,,,,,,,,,,,,,,,,,,,,,,,,,,,,,,,,,,,,,,,,,,,,,,,,,,,,,,,,,,,,,,,,,,,
,,5b91dced1dda7800018d0a5b,2024-02-22_16h18.00.827,kallum_motion_pilot,2023.2.2,Win32,60.24096386,5b91dced1dda7800018d0a5b,65d6bb0e977760de756971f7,65d6bcc8089e753d14451724,0.0433,0.0433,0,78,78,9,1,onethree,,,,,,,,,,,,,,,,,,,,,,,,,,,,,,,,,,,,,,,,,,,,,,,,,,,,,,,,,,,,,,,,,,,,,,,,,,,,,,,,,,,,,,,,,,,,,,,,,,,,,,,,,,,,,,,,,,,,,,,,,,,,,,,,,,,,,,,,,
,,5b91dced1dda7800018d0a5b,2024-02-22_16h18.00.827,kallum_motion_pilot,2023.2.2,Win32,60.24096386,5b91dced1dda7800018d0a5b,65d6bb0e977760de756971f7,65d6bcc8089e753d14451724,0.0434,0.0434,0,79,79,123,1,sixeight,,,,,,,,,,,,,,,,,,,,,,,,,,,,,,,,,,,,,,,,,,,,,,,,,,,,,,,,,,,,,,,,,,,,,,,,,,,,,,,,,,,,,,,,,,,,,,,,,,,,,,,,,,,,,,,,,,,,,,,,,,,,,,,,,,,,,,,,,
,,5b91dced1dda7800018d0a5b,2024-02-22_16h18.00.827,kallum_motion_pilot,2023.2.2,Win32,60.24096386,5b91dced1dda7800018d0a5b,65d6bb0e977760de756971f7,65d6bcc8089e753d14451724,0.0436,0.0436,0,80,80,132,1,sevenfive,,,,,,,,,,,,,,,,,,,,,,,,,,,,,,,,,,,,,,,,,,,,,,,,,,,,,,,,,,,,,,,,,,,,,,,,,,,,,,,,,,,,,,,,,,,,,,,,,,,,,,,,,,,,,,,,,,,,,,,,,,,,,,,,,,,,,,,,,
,,5b91dced1dda7800018d0a5b,2024-02-22_16h18.00.827,kallum_motion_pilot,2023.2.2,Win32,60.24096386,5b91dced1dda7800018d0a5b,65d6bb0e977760de756971f7,65d6bcc8089e753d14451724,0.0437,0.0437,0,81,81,1,1,onethree,,,,,,,,,,,,,,,,,,,,,,,,,,,,,,,,,,,,,,,,,,,,,,,,,,,,,,,,,,,,,,,,,,,,,,,,,,,,,,,,,,,,,,,,,,,,,,,,,,,,,,,,,,,,,,,,,,,,,,,,,,,,,,,,,,,,,,,,,
,,5b91dced1dda7800018d0a5b,2024-02-22_16h18.00.827,kallum_motion_pilot,2023.2.2,Win32,60.24096386,5b91dced1dda7800018d0a5b,65d6bb0e977760de756971f7,65d6bcc8089e753d14451724,0.0438,0.0438,0,82,82,111,1,eightseven,,,,,,,,,,,,,,,,,,,,,,,,,,,,,,,,,,,,,,,,,,,,,,,,,,,,,,,,,,,,,,,,,,,,,,,,,,,,,,,,,,,,,,,,,,,,,,,,,,,,,,,,,,,,,,,,,,,,,,,,,,,,,,,,,,,,,,,,,
,,5b91dced1dda7800018d0a5b,2024-02-22_16h18.00.827,kallum_motion_pilot,2023.2.2,Win32,60.24096386,5b91dced1dda7800018d0a5b,65d6bb0e977760de756971f7,65d6bcc8089e753d14451724,0.0439,0.0439,0,83,83,146,1,sixfive,,,,,,,,,,,,,,,,,,,,,,,,,,,,,,,,,,,,,,,,,,,,,,,,,,,,,,,,,,,,,,,,,,,,,,,,,,,,,,,,,,,,,,,,,,,,,,,,,,,,,,,,,,,,,,,,,,,,,,,,,,,,,,,,,,,,,,,,,
,,5b91dced1dda7800018d0a5b,2024-02-22_16h18.00.827,kallum_motion_pilot,2023.2.2,Win32,60.24096386,5b91dced1dda7800018d0a5b,65d6bb0e977760de756971f7,65d6bcc8089e753d14451724,0.0441,0.0441,0,84,84,153,1,fiveseven,,,,,,,,,,,,,,,,,,,,,,,,,,,,,,,,,,,,,,,,,,,,,,,,,,,,,,,,,,,,,,,,,,,,,,,,,,,,,,,,,,,,,,,,,,,,,,,,,,,,,,,,,,,,,,,,,,,,,,,,,,,,,,,,,,,,,,,,,
,,5b91dced1dda7800018d0a5b,2024-02-22_16h18.00.827,kallum_motion_pilot,2023.2.2,Win32,60.24096386,5b91dced1dda7800018d0a5b,65d6bb0e977760de756971f7,65d6bcc8089e753d14451724,0.0442,0.0442,0,85,85,64,1,onetwo,,,,,,,,,,,,,,,,,,,,,,,,,,,,,,,,,,,,,,,,,,,,,,,,,,,,,,,,,,,,,,,,,,,,,,,,,,,,,,,,,,,,,,,,,,,,,,,,,,,,,,,,,,,,,,,,,,,,,,,,,,,,,,,,,,,,,,,,,
,,5b91dced1dda7800018d0a5b,2024-02-22_16h18.00.827,kallum_motion_pilot,2023.2.2,Win32,60.24096386,5b91dced1dda7800018d0a5b,65d6bb0e977760de756971f7,65d6bcc8089e753d14451724,0.0443,0.0443,0,86,86,145,1,fiveseven,,,,,,,,,,,,,,,,,,,,,,,,,,,,,,,,,,,,,,,,,,,,,,,,,,,,,,,,,,,,,,,,,,,,,,,,,,,,,,,,,,,,,,,,,,,,,,,,,,,,,,,,,,,,,,,,,,,,,,,,,,,,,,,,,,,,,,,,,
,,5b91dced1dda7800018d0a5b,2024-02-22_16h18.00.827,kallum_motion_pilot,2023.2.2,Win32,60.24096386,5b91dced1dda7800018d0a5b,65d6bb0e977760de756971f7,65d6bcc8089e753d14451724,0.0444,0.0445,0,87,87,19,1,twofour,,,,,,,,,,,,,,,,,,,,,,,,,,,,,,,,,,,,,,,,,,,,,,,,,,,,,,,,,,,,,,,,,,,,,,,,,,,,,,,,,,,,,,,,,,,,,,,,,,,,,,,,,,,,,,,,,,,,,,,,,,,,,,,,,,,,,,,,,
,,5b91dced1dda7800018d0a5b,2024-02-22_16h18.00.827,kallum_motion_pilot,2023.2.2,Win32,60.24096386,5b91dced1dda7800018d0a5b,65d6bb0e977760de756971f7,65d6bcc8089e753d14451724,0.0446,0.0446,0,88,88,139,1,sixeight,,,,,,,,,,,,,,,,,,,,,,,,,,,,,,,,,,,,,,,,,,,,,,,,,,,,,,,,,,,,,,,,,,,,,,,,,,,,,,,,,,,,,,,,,,,,,,,,,,,,,,,,,,,,,,,,,,,,,,,,,,,,,,,,,,,,,,,,,
,,5b91dced1dda7800018d0a5b,2024-02-22_16h18.00.827,kallum_motion_pilot,2023.2.2,Win32,60.24096386,5b91dced1dda7800018d0a5b,65d6bb0e977760de756971f7,65d6bcc8089e753d14451724,0.0448,0.0448,0,89,89,47,1,fourthree,,,,,,,,,,,,,,,,,,,,,,,,,,,,,,,,,,,,,,,,,,,,,,,,,,,,,,,,,,,,,,,,,,,,,,,,,,,,,,,,,,,,,,,,,,,,,,,,,,,,,,,,,,,,,,,,,,,,,,,,,,,,,,,,,,,,,,,,,
,,5b91dced1dda7800018d0a5b,2024-02-22_16h18.00.827,kallum_motion_pilot,2023.2.2,Win32,60.24096386,5b91dced1dda7800018d0a5b,65d6bb0e977760de756971f7,65d6bcc8089e753d14451724,0.0449,0.0449,0,90,90,35,1,twofour,,,,,,,,,,,,,,,,,,,,,,,,,,,,,,,,,,,,,,,,,,,,,,,,,,,,,,,,,,,,,,,,,,,,,,,,,,,,,,,,,,,,,,,,,,,,,,,,,,,,,,,,,,,,,,,,,,,,,,,,,,,,,,,,,,,,,,,,,
,,5b91dced1dda7800018d0a5b,2024-02-22_16h18.00.827,kallum_motion_pilot,2023.2.2,Win32,60.24096386,5b91dced1dda7800018d0a5b,65d6bb0e977760de756971f7,65d6bcc8089e753d14451724,0.045,0.045,0,91,91,48,1,onetwo,,,,,,,,,,,,,,,,,,,,,,,,,,,,,,,,,,,,,,,,,,,,,,,,,,,,,,,,,,,,,,,,,,,,,,,,,,,,,,,,,,,,,,,,,,,,,,,,,,,,,,,,,,,,,,,,,,,,,,,,,,,,,,,,,,,,,,,,,
,,5b91dced1dda7800018d0a5b,2024-02-22_16h18.00.827,kallum_motion_pilot,2023.2.2,Win32,60.24096386,5b91dced1dda7800018d0a5b,65d6bb0e977760de756971f7,65d6bcc8089e753d14451724,0.0451,0.0451,0,92,92,155,1,sixeight,,,,,,,,,,,,,,,,,,,,,,,,,,,,,,,,,,,,,,,,,,,,,,,,,,,,,,,,,,,,,,,,,,,,,,,,,,,,,,,,,,,,,,,,,,,,,,,,,,,,,,,,,,,,,,,,,,,,,,,,,,,,,,,,,,,,,,,,,
,,5b91dced1dda7800018d0a5b,2024-02-22_16h18.00.827,kallum_motion_pilot,2023.2.2,Win32,60.24096386,5b91dced1dda7800018d0a5b,65d6bb0e977760de756971f7,65d6bcc8089e753d14451724,0.0451,0.0452,0,93,93,143,1,eightseven,,,,,,,,,,,,,,,,,,,,,,,,,,,,,,,,,,,,,,,,,,,,,,,,,,,,,,,,,,,,,,,,,,,,,,,,,,,,,,,,,,,,,,,,,,,,,,,,,,,,,,,,,,,,,,,,,,,,,,,,,,,,,,,,,,,,,,,,,
,,5b91dced1dda7800018d0a5b,2024-02-22_16h18.00.827,kallum_motion_pilot,2023.2.2,Win32,60.24096386,5b91dced1dda7800018d0a5b,65d6bb0e977760de756971f7,65d6bcc8089e753d14451724,0.0453,0.0454,0,94,94,101,1,seveneight,,,,,,,,,,,,,,,,,,,,,,,,,,,,,,,,,,,,,,,,,,,,,,,,,,,,,,,,,,,,,,,,,,,,,,,,,,,,,,,,,,,,,,,,,,,,,,,,,,,,,,,,,,,,,,,,,,,,,,,,,,,,,,,,,,,,,,,,,
,,5b91dced1dda7800018d0a5b,2024-02-22_16h18.00.827,kallum_motion_pilot,2023.2.2,Win32,60.24096386,5b91dced1dda7800018d0a5b,65d6bb0e977760de756971f7,65d6bcc8089e753d14451724,0.0454,0.0454,0,95,95,26,1,twoone,,,,,,,,,,,,,,,,,,,,,,,,,,,,,,,,,,,,,,,,,,,,,,,,,,,,,,,,,,,,,,,,,,,,,,,,,,,,,,,,,,,,,,,,,,,,,,,,,,,,,,,,,,,,,,,,,,,,,,,,,,,,,,,,,,,,,,,,,
,,5b91dced1dda7800018d0a5b,2024-02-22_16h18.00.827,kallum_motion_pilot,2023.2.2,Win32,60.24096386,5b91dced1dda7800018d0a5b,65d6bb0e977760de756971f7,65d6bcc8089e753d14451724,0.0455,0.0455,0,96,96,117,1,seveneight,,,,,,,,,,,,,,,,,,,,,,,,,,,,,,,,,,,,,,,,,,,,,,,,,,,,,,,,,,,,,,,,,,,,,,,,,,,,,,,,,,,,,,,,,,,,,,,,,,,,,,,,,,,,,,,,,,,,,,,,,,,,,,,,,,,,,,,,,
,,5b91dced1dda7800018d0a5b,2024-02-22_16h18.00.827,kallum_motion_pilot,2023.2.2,Win32,60.24096386,5b91dced1dda7800018d0a5b,65d6bb0e977760de756971f7,65d6bcc8089e753d14451724,0.0455,0.0456,0,97,97,98,1,sixfive,,,,,,,,,,,,,,,,,,,,,,,,,,,,,,,,,,,,,,,,,,,,,,,,,,,,,,,,,,,,,,,,,,,,,,,,,,,,,,,,,,,,,,,,,,,,,,,,,,,,,,,,,,,,,,,,,,,,,,,,,,,,,,,,,,,,,,,,,
,,5b91dced1dda7800018d0a5b,2024-02-22_16h18.00.827,kallum_motion_pilot,2023.2.2,Win32,60.24096386,5b91dced1dda7800018d0a5b,65d6bb0e977760de756971f7,65d6bcc8089e753d14451724,0.0457,0.0457,0,98,98,11,1,twofour,,,,,,,,,,,,,,,,,,,,,,,,,,,,,,,,,,,,,,,,,,,,,,,,,,,,,,,,,,,,,,,,,,,,,,,,,,,,,,,,,,,,,,,,,,,,,,,,,,,,,,,,,,,,,,,,,,,,,,,,,,,,,,,,,,,,,,,,,
,,5b91dced1dda7800018d0a5b,2024-02-22_16h18.00.827,kallum_motion_pilot,2023.2.2,Win32,60.24096386,5b91dced1dda7800018d0a5b,65d6bb0e977760de756971f7,65d6bcc8089e753d14451724,0.0458,0.0458,0,99,99,13,1,threefour,,,,,,,,,,,,,,,,,,,,,,,,,,,,,,,,,,,,,,,,,,,,,,,,,,,,,,,,,,,,,,,,,,,,,,,,,,,,,,,,,,,,,,,,,,,,,,,,,,,,,,,,,,,,,,,,,,,,,,,,,,,,,,,,,,,,,,,,,
,,5b91dced1dda7800018d0a5b,2024-02-22_16h18.00.827,kallum_motion_pilot,2023.2.2,Win32,60.24096386,5b91dced1dda7800018d0a5b,65d6bb0e977760de756971f7,65d6bcc8089e753d14451724,0.0459,0.0459,0,100,100,23,1,fourthree,,,,,,,,,,,,,,,,,,,,,,,,,,,,,,,,,,,,,,,,,,,,,,,,,,,,,,,,,,,,,,,,,,,,,,,,,,,,,,,,,,,,,,,,,,,,,,,,,,,,,,,,,,,,,,,,,,,,,,,,,,,,,,,,,,,,,,,,,
,,5b91dced1dda7800018d0a5b,2024-02-22_16h18.00.827,kallum_motion_pilot,2023.2.2,Win32,60.24096386,5b91dced1dda7800018d0a5b,65d6bb0e977760de756971f7,65d6bcc8089e753d14451724,0.0459,0.046,0,101,101,0,1,onetwo,,,,,,,,,,,,,,,,,,,,,,,,,,,,,,,,,,,,,,,,,,,,,,,,,,,,,,,,,,,,,,,,,,,,,,,,,,,,,,,,,,,,,,,,,,,,,,,,,,,,,,,,,,,,,,,,,,,,,,,,,,,,,,,,,,,,,,,,,
,,5b91dced1dda7800018d0a5b,2024-02-22_16h18.00.827,kallum_motion_pilot,2023.2.2,Win32,60.24096386,5b91dced1dda7800018d0a5b,65d6bb0e977760de756971f7,65d6bcc8089e753d14451724,0.0461,0.0461,0,102,102,86,1,eightsix,,,,,,,,,,,,,,,,,,,,,,,,,,,,,,,,,,,,,,,,,,,,,,,,,,,,,,,,,,,,,,,,,,,,,,,,,,,,,,,,,,,,,,,,,,,,,,,,,,,,,,,,,,,,,,,,,,,,,,,,,,,,,,,,,,,,,,,,,
,,5b91dced1dda7800018d0a5b,2024-02-22_16h18.00.827,kallum_motion_pilot,2023.2.2,Win32,60.24096386,5b91dced1dda7800018d0a5b,65d6bb0e977760de756971f7,65d6bcc8089e753d14451724,0.0462,0.0463,0,103,103,59,1,twofour,,,,,,,,,,,,,,,,,,,,,,,,,,,,,,,,,,,,,,,,,,,,,,,,,,,,,,,,,,,,,,,,,,,,,,,,,,,,,,,,,,,,,,,,,,,,,,,,,,,,,,,,,,,,,,,,,,,,,,,,,,,,,,,,,,,,,,,,,
,,5b91dced1dda7800018d0a5b,2024-02-22_16h18.00.827,kallum_motion_pilot,2023.2.2,Win32,60.24096386,5b91dced1dda7800018d0a5b,65d6bb0e977760de756971f7,65d6bcc8089e753d14451724,0.0464,0.0464,0,104,104,37,1,threefour,,,,,,,,,,,,,,,,,,,,,,,,,,,,,,,,,,,,,,,,,,,,,,,,,,,,,,,,,,,,,,,,,,,,,,,,,,,,,,,,,,,,,,,,,,,,,,,,,,,,,,,,,,,,,,,,,,,,,,,,,,,,,,,,,,,,,,,,,
,,5b91dced1dda7800018d0a5b,2024-02-22_16h18.00.827,kallum_motion_pilot,2023.2.2,Win32,60.24096386,5b91dced1dda7800018d0a5b,65d6bb0e977760de756971f7,65d6bcc8089e753d14451724,0.0465,0.0465,0,105,105,110,1,eightsix,,,,,,,,,,,,,,,,,,,,,,,,,,,,,,,,,,,,,,,,,,,,,,,,,,,,,,,,,,,,,,,,,,,,,,,,,,,,,,,,,,,,,,,,,,,,,,,,,,,,,,,,,,,,,,,,,,,,,,,,,,,,,,,,,,,,,,,,,
,,5b91dced1dda7800018d0a5b,2024-02-22_16h18.00.827,kallum_motion_pilot,2023.2.2,Win32,60.24096386,5b91dced1dda7800018d0a5b,65d6bb0e977760de756971f7,65d6bcc8089e753d14451724,0.0465,0.0466,0,106,106,7,1,fourthree,,,,,,,,,,,,,,,,,,,,,,,,,,,,,,,,,,,,,,,,,,,,,,,,,,,,,,,,,,,,,,,,,,,,,,,,,,,,,,,,,,,,,,,,,,,,,,,,,,,,,,,,,,,,,,,,,,,,,,,,,,,,,,,,,,,,,,,,,
,,5b91dced1dda7800018d0a5b,2024-02-22_16h18.00.827,kallum_motion_pilot,2023.2.2,Win32,60.24096386,5b91dced1dda7800018d0a5b,65d6bb0e977760de756971f7,65d6bcc8089e753d14451724,0.0467,0.0467,0,107,107,46,1,fourtwo,,,,,,,,,,,,,,,,,,,,,,,,,,,,,,,,,,,,,,,,,,,,,,,,,,,,,,,,,,,,,,,,,,,,,,,,,,,,,,,,,,,,,,,,,,,,,,,,,,,,,,,,,,,,,,,,,,,,,,,,,,,,,,,,,,,,,,,,,
,,5b91dced1dda7800018d0a5b,2024-02-22_16h18.00.827,kallum_motion_pilot,2023.2.2,Win32,60.24096386,5b91dced1dda7800018d0a5b,65d6bb0e977760de756971f7,65d6bcc8089e753d14451724,0.0468,0.0468,0,108,108,95,1,eightseven,,,,,,,,,,,,,,,,,,,,,,,,,,,,,,,,,,,,,,,,,,,,,,,,,,,,,,,,,,,,,,,,,,,,,,,,,,,,,,,,,,,,,,,,,,,,,,,,,,,,,,,,,,,,,,,,,,,,,,,,,,,,,,,,,,,,,,,,,
,,5b91dced1dda7800018d0a5b,2024-02-22_16h18.00.827,kallum_motion_pilot,2023.2.2,Win32,60.24096386,5b91dced1dda7800018d0a5b,65d6bb0e977760de756971f7,65d6bcc8089e753d14451724,0.0469,0.047,0,109,109,36,1,threeone,,,,,,,,,,,,,,,,,,,,,,,,,,,,,,,,,,,,,,,,,,,,,,,,,,,,,,,,,,,,,,,,,,,,,,,,,,,,,,,,,,,,,,,,,,,,,,,,,,,,,,,,,,,,,,,,,,,,,,,,,,,,,,,,,,,,,,,,,
,,5b91dced1dda7800018d0a5b,2024-02-22_16h18.00.827,kallum_motion_pilot,2023.2.2,Win32,60.24096386,5b91dced1dda7800018d0a5b,65d6bb0e977760de756971f7,65d6bcc8089e753d14451724,0.047,0.047,0,110,110,68,1,threeone,,,,,,,,,,,,,,,,,,,,,,,,,,,,,,,,,,,,,,,,,,,,,,,,,,,,,,,,,,,,,,,,,,,,,,,,,,,,,,,,,,,,,,,,,,,,,,,,,,,,,,,,,,,,,,,,,,,,,,,,,,,,,,,,,,,,,,,,,
,,5b91dced1dda7800018d0a5b,2024-02-22_16h18.00.827,kallum_motion_pilot,2023.2.2,Win32,60.24096386,5b91dced1dda7800018d0a5b,65d6bb0e977760de756971f7,65d6bcc8089e753d14451724,0.0472,0.0472,0,111,111,137,1,fiveseven,,,,,,,,,,,,,,,,,,,,,,,,,,,,,,,,,,,,,,,,,,,,,,,,,,,,,,,,,,,,,,,,,,,,,,,,,,,,,,,,,,,,,,,,,,,,,,,,,,,,,,,,,,,,,,,,,,,,,,,,,,,,,,,,,,,,,,,,,
,,5b91dced1dda7800018d0a5b,2024-02-22_16h18.00.827,kallum_motion_pilot,2023.2.2,Win32,60.24096386,5b91dced1dda7800018d0a5b,65d6bb0e977760de756971f7,65d6bcc8089e753d14451724,0.0473,0.0473,0,112,112,161,1,fiveseven,,,,,,,,,,,,,,,,,,,,,,,,,,,,,,,,,,,,,,,,,,,,,,,,,,,,,,,,,,,,,,,,,,,,,,,,,,,,,,,,,,,,,,,,,,,,,,,,,,,,,,,,,,,,,,,,,,,,,,,,,,,,,,,,,,,,,,,,,
,,5b91dced1dda7800018d0a5b,2024-02-22_16h18.00.827,kallum_motion_pilot,2023.2.2,Win32,60.24096386,5b91dced1dda7800018d0a5b,65d6bb0e977760de756971f7,65d6bcc8089e753d14451724,0.0473,0.0474,0,113,113,51,1,twofour,,,,,,,,,,,,,,,,,,,,,,,,,,,,,,,,,,,,,,,,,,,,,,,,,,,,,,,,,,,,,,,,,,,,,,,,,,,,,,,,,,,,,,,,,,,,,,,,,,,,,,,,,,,,,,,,,,,,,,,,,,,,,,,,,,,,,,,,,
,,5b91dced1dda7800018d0a5b,2024-02-22_16h18.00.827,kallum_motion_pilot,2023.2.2,Win32,60.24096386,5b91dced1dda7800018d0a5b,65d6bb0e977760de756971f7,65d6bcc8089e753d14451724,0.0474,0.0475,0,114,114,32,1,onetwo,,,,,,,,,,,,,,,,,,,,,,,,,,,,,,,,,,,,,,,,,,,,,,,,,,,,,,,,,,,,,,,,,,,,,,,,,,,,,,,,,,,,,,,,,,,,,,,,,,,,,,,,,,,,,,,,,,,,,,,,,,,,,,,,,,,,,,,,,
,,5b91dced1dda7800018d0a5b,2024-02-22_16h18.00.827,kallum_motion_pilot,2023.2.2,Win32,60.24096386,5b91dced1dda7800018d0a5b,65d6bb0e977760de756971f7,65d6bcc8089e753d14451724,0.0475,0.0476,0,115,115,83,1,sixeight,,,,,,,,,,,,,,,,,,,,,,,,,,,,,,,,,,,,,,,,,,,,,,,,,,,,,,,,,,,,,,,,,,,,,,,,,,,,,,,,,,,,,,,,,,,,,,,,,,,,,,,,,,,,,,,,,,,,,,,,,,,,,,,,,,,,,,,,,
,,5b91dced1dda7800018d0a5b,2024-02-22_16h18.00.827,kallum_motion_pilot,2023.2.2,Win32,60.24096386,5b91dced1dda7800018d0a5b,65d6bb0e977760de756971f7,65d6bcc8089e753d14451724,0.0476,0.0477,0,116,116,89,1,fiveseven,,,,,,,,,,,,,,,,,,,,,,,,,,,,,,,,,,,,,,,,,,,,,,,,,,,,,,,,,,,,,,,,,,,,,,,,,,,,,,,,,,,,,,,,,,,,,,,,,,,,,,,,,,,,,,,,,,,,,,,,,,,,,,,,,,,,,,,,,
,,5b91dced1dda7800018d0a5b,2024-02-22_16h18.00.827,kallum_motion_pilot,2023.2.2,Win32,60.24096386,5b91dced1dda7800018d0a5b,65d6bb0e977760de756971f7,65d6bcc8089e753d14451724,0.0478,0.0479,0,117,117,75,1,twofour,,,,,,,,,,,,,,,,,,,,,,,,,,,,,,,,,,,,,,,,,,,,,,,,,,,,,,,,,,,,,,,,,,,,,,,,,,,,,,,,,,,,,,,,,,,,,,,,,,,,,,,,,,,,,,,,,,,,,,,,,,,,,,,,,,,,,,,,,
,,5b91dced1dda7800018d0a5b,2024-02-22_16h18.00.827,kallum_motion_pilot,2023.2.2,Win32,60.24096386,5b91dced1dda7800018d0a5b,65d6bb0e977760de756971f7,65d6bcc8089e753d14451724,0.0479,0.0479,0,118,118,18,1,twoone,,,,,,,,,,,,,,,,,,,,,,,,,,,,,,,,,,,,,,,,,,,,,,,,,,,,,,,,,,,,,,,,,,,,,,,,,,,,,,,,,,,,,,,,,,,,,,,,,,,,,,,,,,,,,,,,,,,,,,,,,,,,,,,,,,,,,,,,,
,,5b91dced1dda7800018d0a5b,2024-02-22_16h18.00.827,kallum_motion_pilot,2023.2.2,Win32,60.24096386,5b91dced1dda7800018d0a5b,65d6bb0e977760de756971f7,65d6bcc8089e753d14451724,0.048,0.0481,0,119,119,134,1,eightsix,,,,,,,,,,,,,,,,,,,,,,,,,,,,,,,,,,,,,,,,,,,,,,,,,,,,,,,,,,,,,,,,,,,,,,,,,,,,,,,,,,,,,,,,,,,,,,,,,,,,,,,,,,,,,,,,,,,,,,,,,,,,,,,,,,,,,,,,,
,,5b91dced1dda7800018d0a5b,2024-02-22_16h18.00.827,kallum_motion_pilot,2023.2.2,Win32,60.24096386,5b91dced1dda7800018d0a5b,65d6bb0e977760de756971f7,65d6bcc8089e753d14451724,0.0483,0.0484,0,120,120,25,1,onethree,,,,,,,,,,,,,,,,,,,,,,,,,,,,,,,,,,,,,,,,,,,,,,,,,,,,,,,,,,,,,,,,,,,,,,,,,,,,,,,,,,,,,,,,,,,,,,,,,,,,,,,,,,,,,,,,,,,,,,,,,,,,,,,,,,,,,,,,,
,,5b91dced1dda7800018d0a5b,2024-02-22_16h18.00.827,kallum_motion_pilot,2023.2.2,Win32,60.24096386,5b91dced1dda7800018d0a5b,65d6bb0e977760de756971f7,65d6bcc8089e753d14451724,0.0485,0.0486,0,121,121,152,1,fivesix,,,,,,,,,,,,,,,,,,,,,,,,,,,,,,,,,,,,,,,,,,,,,,,,,,,,,,,,,,,,,,,,,,,,,,,,,,,,,,,,,,,,,,,,,,,,,,,,,,,,,,,,,,,,,,,,,,,,,,,,,,,,,,,,,,,,,,,,,
,,5b91dced1dda7800018d0a5b,2024-02-22_16h18.00.827,kallum_motion_pilot,2023.2.2,Win32,60.24096386,5b91dced1dda7800018d0a5b,65d6bb0e977760de756971f7,65d6bcc8089e753d14451724,0.0488,0.0488,0,122,122,69,1,threefour,,,,,,,,,,,,,,,,,,,,,,,,,,,,,,,,,,,,,,,,,,,,,,,,,,,,,,,,,,,,,,,,,,,,,,,,,,,,,,,,,,,,,,,,,,,,,,,,,,,,,,,,,,,,,,,,,,,,,,,,,,,,,,,,,,,,,,,,,
,,5b91dced1dda7800018d0a5b,2024-02-22_16h18.00.827,kallum_motion_pilot,2023.2.2,Win32,60.24096386,5b91dced1dda7800018d0a5b,65d6bb0e977760de756971f7,65d6bcc8089e753d14451724,0.049,0.049,0,123,123,63,1,fourthree,,,,,,,,,,,,,,,,,,,,,,,,,,,,,,,,,,,,,,,,,,,,,,,,,,,,,,,,,,,,,,,,,,,,,,,,,,,,,,,,,,,,,,,,,,,,,,,,,,,,,,,,,,,,,,,,,,,,,,,,,,,,,,,,,,,,,,,,,
,,5b91dced1dda7800018d0a5b,2024-02-22_16h18.00.827,kallum_motion_pilot,2023.2.2,Win32,60.24096386,5b91dced1dda7800018d0a5b,65d6bb0e977760de756971f7,65d6bcc8089e753d14451724,0.0492,0.0492,0,124,124,127,1,eightseven,,,,,,,,,,,,,,,,,,,,,,,,,,,,,,,,,,,,,,,,,,,,,,,,,,,,,,,,,,,,,,,,,,,,,,,,,,,,,,,,,,,,,,,,,,,,,,,,,,,,,,,,,,,,,,,,,,,,,,,,,,,,,,,,,,,,,,,,,
,,5b91dced1dda7800018d0a5b,2024-02-22_16h18.00.827,kallum_motion_pilot,2023.2.2,Win32,60.24096386,5b91dced1dda7800018d0a5b,65d6bb0e977760de756971f7,65d6bcc8089e753d14451724,0.0494,0.0494,0,125,125,74,1,twoone,,,,,,,,,,,,,,,,,,,,,,,,,,,,,,,,,,,,,,,,,,,,,,,,,,,,,,,,,,,,,,,,,,,,,,,,,,,,,,,,,,,,,,,,,,,,,,,,,,,,,,,,,,,,,,,,,,,,,,,,,,,,,,,,,,,,,,,,,
,,5b91dced1dda7800018d0a5b,2024-02-22_16h18.00.827,kallum_motion_pilot,2023.2.2,Win32,60.24096386,5b91dced1dda7800018d0a5b,65d6bb0e977760de756971f7,65d6bcc8089e753d14451724,0.0495,0.0496,0,126,126,57,1,onethree,,,,,,,,,,,,,,,,,,,,,,,,,,,,,,,,,,,,,,,,,,,,,,,,,,,,,,,,,,,,,,,,,,,,,,,,,,,,,,,,,,,,,,,,,,,,,,,,,,,,,,,,,,,,,,,,,,,,,,,,,,,,,,,,,,,,,,,,,
,,5b91dced1dda7800018d0a5b,2024-02-22_16h18.00.827,kallum_motion_pilot,2023.2.2,Win32,60.24096386,5b91dced1dda7800018d0a5b,65d6bb0e977760de756971f7,65d6bcc8089e753d14451724,0.0496,0.0496,0,127,127,3,1,twofour,,,,,,,,,,,,,,,,,,,,,,,,,,,,,,,,,,,,,,,,,,,,,,,,,,,,,,,,,,,,,,,,,,,,,,,,,,,,,,,,,,,,,,,,,,,,,,,,,,,,,,,,,,,,,,,,,,,,,,,,,,,,,,,,,,,,,,,,,
,,5b91dced1dda7800018d0a5b,2024-02-22_16h18.00.827,kallum_motion_pilot,2023.2.2,Win32,60.24096386,5b91dced1dda7800018d0a5b,65d6bb0e977760de756971f7,65d6bcc8089e753d14451724,0.0498,0.0499,0,128,128,151,1,eightseven,,,,,,,,,,,,,,,,,,,,,,,,,,,,,,,,,,,,,,,,,,,,,,,,,,,,,,,,,,,,,,,,,,,,,,,,,,,,,,,,,,,,,,,,,,,,,,,,,,,,,,,,,,,,,,,,,,,,,,,,,,,,,,,,,,,,,,,,,
,,5b91dced1dda7800018d0a5b,2024-02-22_16h18.00.827,kallum_motion_pilot,2023.2.2,Win32,60.24096386,5b91dced1dda7800018d0a5b,65d6bb0e977760de756971f7,65d6bcc8089e753d14451724,0.05,0.05,0,129,129,130,1,sixfive,,,,,,,,,,,,,,,,,,,,,,,,,,,,,,,,,,,,,,,,,,,,,,,,,,,,,,,,,,,,,,,,,,,,,,,,,,,,,,,,,,,,,,,,,,,,,,,,,,,,,,,,,,,,,,,,,,,,,,,,,,,,,,,,,,,,,,,,,
,,5b91dced1dda7800018d0a5b,2024-02-22_16h18.00.827,kallum_motion_pilot,2023.2.2,Win32,60.24096386,5b91dced1dda7800018d0a5b,65d6bb0e977760de756971f7,65d6bcc8089e753d14451724,0.05,0.05,0,130,130,73,1,onethree,,,,,,,,,,,,,,,,,,,,,,,,,,,,,,,,,,,,,,,,,,,,,,,,,,,,,,,,,,,,,,,,,,,,,,,,,,,,,,,,,,,,,,,,,,,,,,,,,,,,,,,,,,,,,,,,,,,,,,,,,,,,,,,,,,,,,,,,,
,,5b91dced1dda7800018d0a5b,2024-02-22_16h18.00.827,kallum_motion_pilot,2023.2.2,Win32,60.24096386,5b91dced1dda7800018d0a5b,65d6bb0e977760de756971f7,65d6bcc8089e753d14451724,0.0501,0.0502,0,131,131,125,1,seveneight,,,,,,,,,,,,,,,,,,,,,,,,,,,,,,,,,,,,,,,,,,,,,,,,,,,,,,,,,,,,,,,,,,,,,,,,,,,,,,,,,,,,,,,,,,,,,,,,,,,,,,,,,,,,,,,,,,,,,,,,,,,,,,,,,,,,,,,,,
,,5b91dced1dda7800018d0a5b,2024-02-22_16h18.00.827,kallum_motion_pilot,2023.2.2,Win32,60.24096386,5b91dced1dda7800018d0a5b,65d6bb0e977760de756971f7,65d6bcc8089e753d14451724,0.0502,0.0503,0,132,132,10,1,twoone,,,,,,,,,,,,,,,,,,,,,,,,,,,,,,,,,,,,,,,,,,,,,,,,,,,,,,,,,,,,,,,,,,,,,,,,,,,,,,,,,,,,,,,,,,,,,,,,,,,,,,,,,,,,,,,,,,,,,,,,,,,,,,,,,,,,,,,,,
,,5b91dced1dda7800018d0a5b,2024-02-22_16h18.00.827,kallum_motion_pilot,2023.2.2,Win32,60.24096386,5b91dced1dda7800018d0a5b,65d6bb0e977760de756971f7,65d6bcc8089e753d14451724,0.0503,0.0505,0,133,133,49,1,onethree,,,,,,,,,,,,,,,,,,,,,,,,,,,,,,,,,,,,,,,,,,,,,,,,,,,,,,,,,,,,,,,,,,,,,,,,,,,,,,,,,,,,,,,,,,,,,,,,,,,,,,,,,,,,,,,,,,,,,,,,,,,,,,,,,,,,,,,,,
,,5b91dced1dda7800018d0a5b,2024-02-22_16h18.00.827,kallum_motion_pilot,2023.2.2,Win32,60.24096386,5b91dced1dda7800018d0a5b,65d6bb0e977760de756971f7,65d6bcc8089e753d14451724,0.0506,0.0506,0,134,134,72,1,onetwo,,,,,,,,,,,,,,,,,,,,,,,,,,,,,,,,,,,,,,,,,,,,,,,,,,,,,,,,,,,,,,,,,,,,,,,,,,,,,,,,,,,,,,,,,,,,,,,,,,,,,,,,,,,,,,,,,,,,,,,,,,,,,,,,,,,,,,,,,
,,5b91dced1dda7800018d0a5b,2024-02-22_16h18.00.827,kallum_motion_pilot,2023.2.2,Win32,60.24096386,5b91dced1dda7800018d0a5b,65d6bb0e977760de756971f7,65d6bcc8089e753d14451724,0.0508,0.0508,0,135,135,12,1,threeone,,,,,,,,,,,,,,,,,,,,,,,,,,,,,,,,,,,,,,,,,,,,,,,,,,,,,,,,,,,,,,,,,,,,,,,,,,,,,,,,,,,,,,,,,,,,,,,,,,,,,,,,,,,,,,,,,,,,,,,,,,,,,,,,,,,,,,,,,
,,5b91dced1dda7800018d0a5b,2024-02-22_16h18.00.827,kallum_motion_pilot,2023.2.2,Win32,60.24096386,5b91dced1dda7800018d0a5b,65d6bb0e977760de756971f7,65d6bcc8089e753d14451724,0.0509,0.051,0,136,136,61,1,threefour,,,,,,,,,,,,,,,,,,,,,,,,,,,,,,,,,,,,,,,,,,,,,,,,,,,,,,,,,,,,,,,,,,,,,,,,,,,,,,,,,,,,,,,,,,,,,,,,,,,,,,,,,,,,,,,,,,,,,,,,,,,,,,,,,,,,,,,,,
,,5b91dced1dda7800018d0a5b,2024-02-22_16h18.00.827,kallum_motion_pilot,2023.2.2,Win32,60.24096386,5b91dced1dda7800018d0a5b,65d6bb0e977760de756971f7,65d6bcc8089e753d14451724,0.051,0.051,0,137,137,159,1,eightseven,,,,,,,,,,,,,,,,,,,,,,,,,,,,,,,,,,,,,,,,,,,,,,,,,,,,,,,,,,,,,,,,,,,,,,,,,,,,,,,,,,,,,,,,,,,,,,,,,,,,,,,,,,,,,,,,,,,,,,,,,,,,,,,,,,,,,,,,,
,,5b91dced1dda7800018d0a5b,2024-02-22_16h18.00.827,kallum_motion_pilot,2023.2.2,Win32,60.24096386,5b91dced1dda7800018d0a5b,65d6bb0e977760de756971f7,65d6bcc8089e753d14451724,0.0512,0.0513,0,138,138,31,1,fourthree,,,,,,,,,,,,,,,,,,,,,,,,,,,,,,,,,,,,,,,,,,,,,,,,,,,,,,,,,,,,,,,,,,,,,,,,,,,,,,,,,,,,,,,,,,,,,,,,,,,,,,,,,,,,,,,,,,,,,,,,,,,,,,,,,,,,,,,,,
,,5b91dced1dda7800018d0a5b,2024-02-22_16h18.00.827,kallum_motion_pilot,2023.2.2,Win32,60.24096386,5b91dced1dda7800018d0a5b,65d6bb0e977760de756971f7,65d6bcc8089e753d14451724,0.0513,0.0514,0,139,139,8,1,onetwo,,,,,,,,,,,,,,,,,,,,,,,,,,,,,,,,,,,,,,,,,,,,,,,,,,,,,,,,,,,,,,,,,,,,,,,,,,,,,,,,,,,,,,,,,,,,,,,,,,,,,,,,,,,,,,,,,,,,,,,,,,,,,,,,,,,,,,,,,
,,5b91dced1dda7800018d0a5b,2024-02-22_16h18.00.827,kallum_motion_pilot,2023.2.2,Win32,60.24096386,5b91dced1dda7800018d0a5b,65d6bb0e977760de756971f7,65d6bcc8089e753d14451724,0.0515,0.0515,0,140,140,138,1,sixfive,,,,,,,,,,,,,,,,,,,,,,,,,,,,,,,,,,,,,,,,,,,,,,,,,,,,,,,,,,,,,,,,,,,,,,,,,,,,,,,,,,,,,,,,,,,,,,,,,,,,,,,,,,,,,,,,,,,,,,,,,,,,,,,,,,,,,,,,,
,,5b91dced1dda7800018d0a5b,2024-02-22_16h18.00.827,kallum_motion_pilot,2023.2.2,Win32,60.24096386,5b91dced1dda7800018d0a5b,65d6bb0e977760de756971f7,65d6bcc8089e753d14451724,0.0516,0.0517,0,141,141,33,1,onethree,,,,,,,,,,,,,,,,,,,,,,,,,,,,,,,,,,,,,,,,,,,,,,,,,,,,,,,,,,,,,,,,,,,,,,,,,,,,,,,,,,,,,,,,,,,,,,,,,,,,,,,,,,,,,,,,,,,,,,,,,,,,,,,,,,,,,,,,,
,,5b91dced1dda7800018d0a5b,2024-02-22_16h18.00.827,kallum_motion_pilot,2023.2.2,Win32,60.24096386,5b91dced1dda7800018d0a5b,65d6bb0e977760de756971f7,65d6bcc8089e753d14451724,0.0517,0.0518,0,142,142,87,1,eightseven,,,,,,,,,,,,,,,,,,,,,,,,,,,,,,,,,,,,,,,,,,,,,,,,,,,,,,,,,,,,,,,,,,,,,,,,,,,,,,,,,,,,,,,,,,,,,,,,,,,,,,,,,,,,,,,,,,,,,,,,,,,,,,,,,,,,,,,,,
,,5b91dced1dda7800018d0a5b,2024-02-22_16h18.00.827,kallum_motion_pilot,2023.2.2,Win32,60.24096386,5b91dced1dda7800018d0a5b,65d6bb0e977760de756971f7,65d6bcc8089e753d14451724,0.0518,0.0519,0,143,143,142,1,eightsix,,,,,,,,,,,,,,,,,,,,,,,,,,,,,,,,,,,,,,,,,,,,,,,,,,,,,,,,,,,,,,,,,,,,,,,,,,,,,,,,,,,,,,,,,,,,,,,,,,,,,,,,,,,,,,,,,,,,,,,,,,,,,,,,,,,,,,,,,
,,5b91dced1dda7800018d0a5b,2024-02-22_16h18.00.827,kallum_motion_pilot,2023.2.2,Win32,60.24096386,5b91dced1dda7800018d0a5b,65d6bb0e977760de756971f7,65d6bcc8089e753d14451724,0.052,0.052,0,144,144,43,1,twofour,,,,,,,,,,,,,,,,,,,,,,,,,,,,,,,,,,,,,,,,,,,,,,,,,,,,,,,,,,,,,,,,,,,,,,,,,,,,,,,,,,,,,,,,,,,,,,,,,,,,,,,,,,,,,,,,,,,,,,,,,,,,,,,,,,,,,,,,,
,,5b91dced1dda7800018d0a5b,2024-02-22_16h18.00.827,kallum_motion_pilot,2023.2.2,Win32,60.24096386,5b91dced1dda7800018d0a5b,65d6bb0e977760de756971f7,65d6bcc8089e753d14451724,0.052,0.0522,0,145,145,121,1,fiveseven,,,,,,,,,,,,,,,,,,,,,,,,,,,,,,,,,,,,,,,,,,,,,,,,,,,,,,,,,,,,,,,,,,,,,,,,,,,,,,,,,,,,,,,,,,,,,,,,,,,,,,,,,,,,,,,,,,,,,,,,,,,,,,,,,,,,,,,,,
,,5b91dced1dda7800018d0a5b,2024-02-22_16h18.00.827,kallum_motion_pilot,2023.2.2,Win32,60.24096386,5b91dced1dda7800018d0a5b,65d6bb0e977760de756971f7,65d6bcc8089e753d14451724,0.0524,0.0525,0,146,146,28,1,threeone,,,,,,,,,,,,,,,,,,,,,,,,,,,,,,,,,,,,,,,,,,,,,,,,,,,,,,,,,,,,,,,,,,,,,,,,,,,,,,,,,,,,,,,,,,,,,,,,,,,,,,,,,,,,,,,,,,,,,,,,,,,,,,,,,,,,,,,,,
,,5b91dced1dda7800018d0a5b,2024-02-22_16h18.00.827,kallum_motion_pilot,2023.2.2,Win32,60.24096386,5b91dced1dda7800018d0a5b,65d6bb0e977760de756971f7,65d6bcc8089e753d14451724,0.0526,0.0527,0,147,147,81,1,fiveseven,,,,,,,,,,,,,,,,,,,,,,,,,,,,,,,,,,,,,,,,,,,,,,,,,,,,,,,,,,,,,,,,,,,,,,,,,,,,,,,,,,,,,,,,,,,,,,,,,,,,,,,,,,,,,,,,,,,,,,,,,,,,,,,,,,,,,,,,,
,,5b91dced1dda7800018d0a5b,2024-02-22_16h18.00.827,kallum_motion_pilot,2023.2.2,Win32,60.24096386,5b91dced1dda7800018d0a5b,65d6bb0e977760de756971f7,65d6bcc8089e753d14451724,0.0528,0.0528,0,148,148,144,1,fivesix,,,,,,,,,,,,,,,,,,,,,,,,,,,,,,,,,,,,,,,,,,,,,,,,,,,,,,,,,,,,,,,,,,,,,,,,,,,,,,,,,,,,,,,,,,,,,,,,,,,,,,,,,,,,,,,,,,,,,,,,,,,,,,,,,,,,,,,,,
,,5b91dced1dda7800018d0a5b,2024-02-22_16h18.00.827,kallum_motion_pilot,2023.2.2,Win32,60.24096386,5b91dced1dda7800018d0a5b,65d6bb0e977760de756971f7,65d6bcc8089e753d14451724,0.0529,0.053,0,149,149,122,1,sixfive,,,,,,,,,,,,,,,,,,,,,,,,,,,,,,,,,,,,,,,,,,,,,,,,,,,,,,,,,,,,,,,,,,,,,,,,,,,,,,,,,,,,,,,,,,,,,,,,,,,,,,,,,,,,,,,,,,,,,,,,,,,,,,,,,,,,,,,,,
,,5b91dced1dda7800018d0a5b,2024-02-22_16h18.00.827,kallum_motion_pilot,2023.2.2,Win32,60.24096386,5b91dced1dda7800018d0a5b,65d6bb0e977760de756971f7,65d6bcc8089e753d14451724,0.0532,0.0532,0,150,150,78,1,fourtwo,,,,,,,,,,,,,,,,,,,,,,,,,,,,,,,,,,,,,,,,,,,,,,,,,,,,,,,,,,,,,,,,,,,,,,,,,,,,,,,,,,,,,,,,,,,,,,,,,,,,,,,,,,,,,,,,,,,,,,,,,,,,,,,,,,,,,,,,,
,,5b91dced1dda7800018d0a5b,2024-02-22_16h18.00.827,kallum_motion_pilot,2023.2.2,Win32,60.24096386,5b91dced1dda7800018d0a5b,65d6bb0e977760de756971f7,65d6bcc8089e753d14451724,0.0533,0.0534,0,151,151,71,1,fourthree,,,,,,,,,,,,,,,,,,,,,,,,,,,,,,,,,,,,,,,,,,,,,,,,,,,,,,,,,,,,,,,,,,,,,,,,,,,,,,,,,,,,,,,,,,,,,,,,,,,,,,,,,,,,,,,,,,,,,,,,,,,,,,,,,,,,,,,,,
,,5b91dced1dda7800018d0a5b,2024-02-22_16h18.00.827,kallum_motion_pilot,2023.2.2,Win32,60.24096386,5b91dced1dda7800018d0a5b,65d6bb0e977760de756971f7,65d6bcc8089e753d14451724,0.0535,0.0535,0,152,152,124,1,sevenfive,,,,,,,,,,,,,,,,,,,,,,,,,,,,,,,,,,,,,,,,,,,,,,,,,,,,,,,,,,,,,,,,,,,,,,,,,,,,,,,,,,,,,,,,,,,,,,,,,,,,,,,,,,,,,,,,,,,,,,,,,,,,,,,,,,,,,,,,,
,,5b91dced1dda7800018d0a5b,2024-02-22_16h18.00.827,kallum_motion_pilot,2023.2.2,Win32,60.24096386,5b91dced1dda7800018d0a5b,65d6bb0e977760de756971f7,65d6bcc8089e753d14451724,0.0536,0.0536,0,153,153,82,1,sixfive,,,,,,,,,,,,,,,,,,,,,,,,,,,,,,,,,,,,,,,,,,,,,,,,,,,,,,,,,,,,,,,,,,,,,,,,,,,,,,,,,,,,,,,,,,,,,,,,,,,,,,,,,,,,,,,,,,,,,,,,,,,,,,,,,,,,,,,,,
,,5b91dced1dda7800018d0a5b,2024-02-22_16h18.00.827,kallum_motion_pilot,2023.2.2,Win32,60.24096386,5b91dced1dda7800018d0a5b,65d6bb0e977760de756971f7,65d6bcc8089e753d14451724,0.0536,0.0538,0,154,154,99,1,sixeight,,,,,,,,,,,,,,,,,,,,,,,,,,,,,,,,,,,,,,,,,,,,,,,,,,,,,,,,,,,,,,,,,,,,,,,,,,,,,,,,,,,,,,,,,,,,,,,,,,,,,,,,,,,,,,,,,,,,,,,,,,,,,,,,,,,,,,,,,
,,5b91dced1dda7800018d0a5b,2024-02-22_16h18.00.827,kallum_motion_pilot,2023.2.2,Win32,60.24096386,5b91dced1dda7800018d0a5b,65d6bb0e977760de756971f7,65d6bcc8089e753d14451724,0.0538,0.0538,0,155,155,2,1,twoone,,,,,,,,,,,,,,,,,,,,,,,,,,,,,,,,,,,,,,,,,,,,,,,,,,,,,,,,,,,,,,,,,,,,,,,,,,,,,,,,,,,,,,,,,,,,,,,,,,,,,,,,,,,,,,,,,,,,,,,,,,,,,,,,,,,,,,,,,
,,5b91dced1dda7800018d0a5b,2024-02-22_16h18.00.827,kallum_motion_pilot,2023.2.2,Win32,60.24096386,5b91dced1dda7800018d0a5b,65d6bb0e977760de756971f7,65d6bcc8089e753d14451724,0.0538,0.054,0,156,156,38,1,fourtwo,,,,,,,,,,,,,,,,,,,,,,,,,,,,,,,,,,,,,,,,,,,,,,,,,,,,,,,,,,,,,,,,,,,,,,,,,,,,,,,,,,,,,,,,,,,,,,,,,,,,,,,,,,,,,,,,,,,,,,,,,,,,,,,,,,,,,,,,,
,,5b91dced1dda7800018d0a5b,2024-02-22_16h18.00.827,kallum_motion_pilot,2023.2.2,Win32,60.24096386,5b91dced1dda7800018d0a5b,65d6bb0e977760de756971f7,65d6bcc8089e753d14451724,0.054,0.054,0,157,157,88,1,fivesix,,,,,,,,,,,,,,,,,,,,,,,,,,,,,,,,,,,,,,,,,,,,,,,,,,,,,,,,,,,,,,,,,,,,,,,,,,,,,,,,,,,,,,,,,,,,,,,,,,,,,,,,,,,,,,,,,,,,,,,,,,,,,,,,,,,,,,,,,
,,5b91dced1dda7800018d0a5b,2024-02-22_16h18.00.827,kallum_motion_pilot,2023.2.2,Win32,60.24096386,5b91dced1dda7800018d0a5b,65d6bb0e977760de756971f7,65d6bcc8089e753d14451724,0.0541,0.0542,0,158,158,50,1,twoone,,,,,,,,,,,,,,,,,,,,,,,,,,,,,,,,,,,,,,,,,,,,,,,,,,,,,,,,,,,,,,,,,,,,,,,,,,,,,,,,,,,,,,,,,,,,,,,,,,,,,,,,,,,,,,,,,,,,,,,,,,,,,,,,,,,,,,,,,
,,5b91dced1dda7800018d0a5b,2024-02-22_16h18.00.827,kallum_motion_pilot,2023.2.2,Win32,60.24096386,5b91dced1dda7800018d0a5b,65d6bb0e977760de756971f7,65d6bcc8089e753d14451724,0.0543,0.0543,0,159,159,135,1,eightseven,,,,,,,,,,,,,,,,,,,,,,,,,,,,,,,,,,,,,,,,,,,,,,,,,,,,,,,,,,,,,,,,,,,,,,,,,,,,,,,,,,,,,,,,,,,,,,,,,,,,,,,,,,,,,,,,,,,,,,,,,,,,,,,,,,,,,,,,,
,,5b91dced1dda7800018d0a5b,2024-02-22_16h18.00.827,kallum_motion_pilot,2023.2.2,Win32,60.24096386,5b91dced1dda7800018d0a5b,65d6bb0e977760de756971f7,65d6bcc8089e753d14451724,0.0543,0.0545,0,160,160,52,1,threeone,,,,,,,,,,,,,,,,,,,,,,,,,,,,,,,,,,,,,,,,,,,,,,,,,,,,,,,,,,,,,,,,,,,,,,,,,,,,,,,,,,,,,,,,,,,,,,,,,,,,,,,,,,,,,,,,,,,,,,,,,,,,,,,,,,,,,,,,,
,,5b91dced1dda7800018d0a5b,2024-02-22_16h18.00.827,kallum_motion_pilot,2023.2.2,Win32,60.24096386,5b91dced1dda7800018d0a5b,65d6bb0e977760de756971f7,65d6bcc8089e753d14451724,0.0545,0.0546,0,161,161,40,1,onetwo,,,,,,,,,,,,,,,,,,,,,,,,,,,,,,,,,,,,,,,,,,,,,,,,,,,,,,,,,,,,,,,,,,,,,,,,,,,,,,,,,,,,,,,,,,,,,,,,,,,,,,,,,,,,,,,,,,,,,,,,,,,,,,,,,,,,,,,,,
,,5b91dced1dda7800018d0a5b,2024-02-22_16h18.00.827,kallum_motion_pilot,2023.2.2,Win32,60.24096386,5b91dced1dda7800018d0a5b,65d6bb0e977760de756971f7,65d6bcc8089e753d14451724,0.0547,0.0548,1,0,162,155,1,sixeight,,,,,,,,,,,,,,,,,,,,,,,,,,,,,,,,,,,,,,,,,,,,,,,,,,,,,,,,,,,,,,,,,,,,,,,,,,,,,,,,,,,,,,,,,,,,,,,,,,,,,,,,,,,,,,,,,,,,,,,,,,,,,,,,,,,,,,,,,
,,5b91dced1dda7800018d0a5b,2024-02-22_16h18.00.827,kallum_motion_pilot,2023.2.2,Win32,60.24096386,5b91dced1dda7800018d0a5b,65d6bb0e977760de756971f7,65d6bcc8089e753d14451724,0.0548,0.0548,1,1,163,53,1,threefour,,,,,,,,,,,,,,,,,,,,,,,,,,,,,,,,,,,,,,,,,,,,,,,,,,,,,,,,,,,,,,,,,,,,,,,,,,,,,,,,,,,,,,,,,,,,,,,,,,,,,,,,,,,,,,,,,,,,,,,,,,,,,,,,,,,,,,,,,
,,5b91dced1dda7800018d0a5b,2024-02-22_16h18.00.827,kallum_motion_pilot,2023.2.2,Win32,60.24096386,5b91dced1dda7800018d0a5b,65d6bb0e977760de756971f7,65d6bcc8089e753d14451724,0.055,0.055,1,2,164,149,1,seveneight,,,,,,,,,,,,,,,,,,,,,,,,,,,,,,,,,,,,,,,,,,,,,,,,,,,,,,,,,,,,,,,,,,,,,,,,,,,,,,,,,,,,,,,,,,,,,,,,,,,,,,,,,,,,,,,,,,,,,,,,,,,,,,,,,,,,,,,,,
,,5b91dced1dda7800018d0a5b,2024-02-22_16h18.00.827,kallum_motion_pilot,2023.2.2,Win32,60.24096386,5b91dced1dda7800018d0a5b,65d6bb0e977760de756971f7,65d6bcc8089e753d14451724,0.0552,0.0553,1,3,165,108,1,sevenfive,,,,,,,,,,,,,,,,,,,,,,,,,,,,,,,,,,,,,,,,,,,,,,,,,,,,,,,,,,,,,,,,,,,,,,,,,,,,,,,,,,,,,,,,,,,,,,,,,,,,,,,,,,,,,,,,,,,,,,,,,,,,,,,,,,,,,,,,,
,,5b91dced1dda7800018d0a5b,2024-02-22_16h18.00.827,kallum_motion_pilot,2023.2.2,Win32,60.24096386,5b91dced1dda7800018d0a5b,65d6bb0e977760de756971f7,65d6bcc8089e753d14451724,0.0553,0.0554,1,4,166,33,1,onethree,,,,,,,,,,,,,,,,,,,,,,,,,,,,,,,,,,,,,,,,,,,,,,,,,,,,,,,,,,,,,,,,,,,,,,,,,,,,,,,,,,,,,,,,,,,,,,,,,,,,,,,,,,,,,,,,,,,,,,,,,,,,,,,,,,,,,,,,,
,,5b91dced1dda7800018d0a5b,2024-02-22_16h18.00.827,kallum_motion_pilot,2023.2.2,Win32,60.24096386,5b91dced1dda7800018d0a5b,65d6bb0e977760de756971f7,65d6bcc8089e753d14451724,0.0555,0.0555,1,5,167,45,1,threefour,,,,,,,,,,,,,,,,,,,,,,,,,,,,,,,,,,,,,,,,,,,,,,,,,,,,,,,,,,,,,,,,,,,,,,,,,,,,,,,,,,,,,,,,,,,,,,,,,,,,,,,,,,,,,,,,,,,,,,,,,,,,,,,,,,,,,,,,,
,,5b91dced1dda7800018d0a5b,2024-02-22_16h18.00.827,kallum_motion_pilot,2023.2.2,Win32,60.24096386,5b91dced1dda7800018d0a5b,65d6bb0e977760de756971f7,65d6bcc8089e753d14451724,0.0555,0.0556,1,6,168,104,1,fivesix,,,,,,,,,,,,,,,,,,,,,,,,,,,,,,,,,,,,,,,,,,,,,,,,,,,,,,,,,,,,,,,,,,,,,,,,,,,,,,,,,,,,,,,,,,,,,,,,,,,,,,,,,,,,,,,,,,,,,,,,,,,,,,,,,,,,,,,,,
,,5b91dced1dda7800018d0a5b,2024-02-22_16h18.00.827,kallum_motion_pilot,2023.2.2,Win32,60.24096386,5b91dced1dda7800018d0a5b,65d6bb0e977760de756971f7,65d6bcc8089e753d14451724,0.0557,0.0557,1,7,169,44,1,threeone,,,,,,,,,,,,,,,,,,,,,,,,,,,,,,,,,,,,,,,,,,,,,,,,,,,,,,,,,,,,,,,,,,,,,,,,,,,,,,,,,,,,,,,,,,,,,,,,,,,,,,,,,,,,,,,,,,,,,,,,,,,,,,,,,,,,,,,,,
,,5b91dced1dda7800018d0a5b,2024-02-22_16h18.00.827,kallum_motion_pilot,2023.2.2,Win32,60.24096386,5b91dced1dda7800018d0a5b,65d6bb0e977760de756971f7,65d6bcc8089e753d14451724,0.0557,0.0559,1,8,170,34,1,twoone,,,,,,,,,,,,,,,,,,,,,,,,,,,,,,,,,,,,,,,,,,,,,,,,,,,,,,,,,,,,,,,,,,,,,,,,,,,,,,,,,,,,,,,,,,,,,,,,,,,,,,,,,,,,,,,,,,,,,,,,,,,,,,,,,,,,,,,,,
,,5b91dced1dda7800018d0a5b,2024-02-22_16h18.00.827,kallum_motion_pilot,2023.2.2,Win32,60.24096386,5b91dced1dda7800018d0a5b,65d6bb0e977760de756971f7,65d6bcc8089e753d14451724,0.0559,0.056,1,9,171,121,1,fiveseven,,,,,,,,,,,,,,,,,,,,,,,,,,,,,,,,,,,,,,,,,,,,,,,,,,,,,,,,,,,,,,,,,,,,,,,,,,,,,,,,,,,,,,,,,,,,,,,,,,,,,,,,,,,,,,,,,,,,,,,,,,,,,,,,,,,,,,,,,
,,5b91dced1dda7800018d0a5b,2024-02-22_16h18.00.827,kallum_motion_pilot,2023.2.2,Win32,60.24096386,5b91dced1dda7800018d0a5b,65d6bb0e977760de756971f7,65d6bcc8089e753d14451724,0.0561,0.0561,1,10,172,103,1,eightseven,,,,,,,,,,,,,,,,,,,,,,,,,,,,,,,,,,,,,,,,,,,,,,,,,,,,,,,,,,,,,,,,,,,,,,,,,,,,,,,,,,,,,,,,,,,,,,,,,,,,,,,,,,,,,,,,,,,,,,,,,,,,,,,,,,,,,,,,,
,,5b91dced1dda7800018d0a5b,2024-02-22_16h18.00.827,kallum_motion_pilot,2023.2.2,Win32,60.24096386,5b91dced1dda7800018d0a5b,65d6bb0e977760de756971f7,65d6bcc8089e753d14451724,0.0562,0.0563,1,11,173,2,1,twoone,,,,,,,,,,,,,,,,,,,,,,,,,,,,,,,,,,,,,,,,,,,,,,,,,,,,,,,,,,,,,,,,,,,,,,,,,,,,,,,,,,,,,,,,,,,,,,,,,,,,,,,,,,,,,,,,,,,,,,,,,,,,,,,,,,,,,,,,,
,,5b91dced1dda7800018d0a5b,2024-02-22_16h18.00.827,kallum_motion_pilot,2023.2.2,Win32,60.24096386,5b91dced1dda7800018d0a5b,65d6bb0e977760de756971f7,65d6bcc8089e753d14451724,0.0564,0.0564,1,12,174,15,1,fourthree,,,,,,,,,,,,,,,,,,,,,,,,,,,,,,,,,,,,,,,,,,,,,,,,,,,,,,,,,,,,,,,,,,,,,,,,,,,,,,,,,,,,,,,,,,,,,,,,,,,,,,,,,,,,,,,,,,,,,,,,,,,,,,,,,,,,,,,,,
,,5b91dced1dda7800018d0a5b,2024-02-22_16h18.00.827,kallum_motion_pilot,2023.2.2,Win32,60.24096386,5b91dced1dda7800018d0a5b,65d6bb0e977760de756971f7,65d6bcc8089e753d14451724,0.0564,0.0565,1,13,175,68,1,threeone,,,,,,,,,,,,,,,,,,,,,,,,,,,,,,,,,,,,,,,,,,,,,,,,,,,,,,,,,,,,,,,,,,,,,,,,,,,,,,,,,,,,,,,,,,,,,,,,,,,,,,,,,,,,,,,,,,,,,,,,,,,,,,,,,,,,,,,,,
,,5b91dced1dda7800018d0a5b,2024-02-22_16h18.00.827,kallum_motion_pilot,2023.2.2,Win32,60.24096386,5b91dced1dda7800018d0a5b,65d6bb0e977760de756971f7,65d6bcc8089e753d14451724,0.0566,0.0567,1,14,176,79,1,eightseven,,,,,,,,,,,,,,,,,,,,,,,,,,,,,,,,,,,,,,,,,,,,,,,,,,,,,,,,,,,,,,,,,,,,,,,,,,,,,,,,,,,,,,,,,,,,,,,,,,,,,,,,,,,,,,,,,,,,,,,,,,,,,,,,,,,,,,,,,
,,5b91dced1dda7800018d0a5b,2024-02-22_16h18.00.827,kallum_motion_pilot,2023.2.2,Win32,60.24096386,5b91dced1dda7800018d0a5b,65d6bb0e977760de756971f7,65d6bcc8089e753d14451724,0.0567,0.0568,1,15,177,89,1,fiveseven,,,,,,,,,,,,,,,,,,,,,,,,,,,,,,,,,,,,,,,,,,,,,,,,,,,,,,,,,,,,,,,,,,,,,,,,,,,,,,,,,,,,,,,,,,,,,,,,,,,,,,,,,,,,,,,,,,,,,,,,,,,,,,,,,,,,,,,,,
,,5b91dced1dda7800018d0a5b,2024-02-22_16h18.00.827,kallum_motion_pilot,2023.2.2,Win32,60.24096386,5b91dced1dda7800018d0a5b,65d6bb0e977760de756971f7,65d6bcc8089e753d14451724,0.0569,0.0569,1,16,178,41,1,onethree,,,,,,,,,,,,,,,,,,,,,,,,,,,,,,,,,,,,,,,,,,,,,,,,,,,,,,,,,,,,,,,,,,,,,,,,,,,,,,,,,,,,,,,,,,,,,,,,,,,,,,,,,,,,,,,,,,,,,,,,,,,,,,,,,,,,,,,,,
,,5b91dced1dda7800018d0a5b,2024-02-22_16h18.00.827,kallum_motion_pilot,2023.2.2,Win32,60.24096386,5b91dced1dda7800018d0a5b,65d6bb0e977760de756971f7,65d6bcc8089e753d14451724,0.0569,0.057,1,17,179,11,1,twofour,,,,,,,,,,,,,,,,,,,,,,,,,,,,,,,,,,,,,,,,,,,,,,,,,,,,,,,,,,,,,,,,,,,,,,,,,,,,,,,,,,,,,,,,,,,,,,,,,,,,,,,,,,,,,,,,,,,,,,,,,,,,,,,,,,,,,,,,,
,,5b91dced1dda7800018d0a5b,2024-02-22_16h18.00.827,kallum_motion_pilot,2023.2.2,Win32,60.24096386,5b91dced1dda7800018d0a5b,65d6bb0e977760de756971f7,65d6bcc8089e753d14451724,0.0571,0.0572,1,18,180,143,1,eightseven,,,,,,,,,,,,,,,,,,,,,,,,,,,,,,,,,,,,,,,,,,,,,,,,,,,,,,,,,,,,,,,,,,,,,,,,,,,,,,,,,,,,,,,,,,,,,,,,,,,,,,,,,,,,,,,,,,,,,,,,,,,,,,,,,,,,,,,,,
,,5b91dced1dda7800018d0a5b,2024-02-22_16h18.00.827,kallum_motion_pilot,2023.2.2,Win32,60.24096386,5b91dced1dda7800018d0a5b,65d6bb0e977760de756971f7,65d6bcc8089e753d14451724,0.0573,0.0574,1,19,181,110,1,eightsix,,,,,,,,,,,,,,,,,,,,,,,,,,,,,,,,,,,,,,,,,,,,,,,,,,,,,,,,,,,,,,,,,,,,,,,,,,,,,,,,,,,,,,,,,,,,,,,,,,,,,,,,,,,,,,,,,,,,,,,,,,,,,,,,,,,,,,,,,
,,5b91dced1dda7800018d0a5b,2024-02-22_16h18.00.827,kallum_motion_pilot,2023.2.2,Win32,60.24096386,5b91dced1dda7800018d0a5b,65d6bb0e977760de756971f7,65d6bcc8089e753d14451724,0.0575,0.0575,1,20,182,142,1,eightsix,,,,,,,,,,,,,,,,,,,,,,,,,,,,,,,,,,,,,,,,,,,,,,,,,,,,,,,,,,,,,,,,,,,,,,,,,,,,,,,,,,,,,,,,,,,,,,,,,,,,,,,,,,,,,,,,,,,,,,,,,,,,,,,,,,,,,,,,,
,,5b91dced1dda7800018d0a5b,2024-02-22_16h18.00.827,kallum_motion_pilot,2023.2.2,Win32,60.24096386,5b91dced1dda7800018d0a5b,65d6bb0e977760de756971f7,65d6bcc8089e753d14451724,0.0575,0.0576,1,21,183,148,1,sevenfive,,,,,,,,,,,,,,,,,,,,,,,,,,,,,,,,,,,,,,,,,,,,,,,,,,,,,,,,,,,,,,,,,,,,,,,,,,,,,,,,,,,,,,,,,,,,,,,,,,,,,,,,,,,,,,,,,,,,,,,,,,,,,,,,,,,,,,,,,
,,5b91dced1dda7800018d0a5b,2024-02-22_16h18.00.827,kallum_motion_pilot,2023.2.2,Win32,60.24096386,5b91dced1dda7800018d0a5b,65d6bb0e977760de756971f7,65d6bcc8089e753d14451724,0.0578,0.058,1,22,184,152,1,fivesix,,,,,,,,,,,,,,,,,,,,,,,,,,,,,,,,,,,,,,,,,,,,,,,,,,,,,,,,,,,,,,,,,,,,,,,,,,,,,,,,,,,,,,,,,,,,,,,,,,,,,,,,,,,,,,,,,,,,,,,,,,,,,,,,,,,,,,,,,
,,5b91dced1dda7800018d0a5b,2024-02-22_16h18.00.827,kallum_motion_pilot,2023.2.2,Win32,60.24096386,5b91dced1dda7800018d0a5b,65d6bb0e977760de756971f7,65d6bcc8089e753d14451724,0.058,0.0581,1,23,185,23,1,fourthree,,,,,,,,,,,,,,,,,,,,,,,,,,,,,,,,,,,,,,,,,,,,,,,,,,,,,,,,,,,,,,,,,,,,,,,,,,,,,,,,,,,,,,,,,,,,,,,,,,,,,,,,,,,,,,,,,,,,,,,,,,,,,,,,,,,,,,,,,
,,5b91dced1dda7800018d0a5b,2024-02-22_16h18.00.827,kallum_motion_pilot,2023.2.2,Win32,60.24096386,5b91dced1dda7800018d0a5b,65d6bb0e977760de756971f7,65d6bcc8089e753d14451724,0.0583,0.0583,1,24,186,97,1,fiveseven,,,,,,,,,,,,,,,,,,,,,,,,,,,,,,,,,,,,,,,,,,,,,,,,,,,,,,,,,,,,,,,,,,,,,,,,,,,,,,,,,,,,,,,,,,,,,,,,,,,,,,,,,,,,,,,,,,,,,,,,,,,,,,,,,,,,,,,,,
,,5b91dced1dda7800018d0a5b,2024-02-22_16h18.00.827,kallum_motion_pilot,2023.2.2,Win32,60.24096386,5b91dced1dda7800018d0a5b,65d6bb0e977760de756971f7,65d6bcc8089e753d14451724,0.0584,0.0585,1,25,187,153,1,fiveseven,,,,,,,,,,,,,,,,,,,,,,,,,,,,,,,,,,,,,,,,,,,,,,,,,,,,,,,,,,,,,,,,,,,,,,,,,,,,,,,,,,,,,,,,,,,,,,,,,,,,,,,,,,,,,,,,,,,,,,,,,,,,,,,,,,,,,,,,,
,,5b91dced1dda7800018d0a5b,2024-02-22_16h18.00.827,kallum_motion_pilot,2023.2.2,Win32,60.24096386,5b91dced1dda7800018d0a5b,65d6bb0e977760de756971f7,65d6bcc8089e753d14451724,0.0586,0.0586,1,26,188,21,1,threefour,,,,,,,,,,,,,,,,,,,,,,,,,,,,,,,,,,,,,,,,,,,,,,,,,,,,,,,,,,,,,,,,,,,,,,,,,,,,,,,,,,,,,,,,,,,,,,,,,,,,,,,,,,,,,,,,,,,,,,,,,,,,,,,,,,,,,,,,,
,,5b91dced1dda7800018d0a5b,2024-02-22_16h18.00.827,kallum_motion_pilot,2023.2.2,Win32,60.24096386,5b91dced1dda7800018d0a5b,65d6bb0e977760de756971f7,65d6bcc8089e753d14451724,0.0587,0.0587,1,27,189,57,1,onethree,,,,,,,,,,,,,,,,,,,,,,,,,,,,,,,,,,,,,,,,,,,,,,,,,,,,,,,,,,,,,,,,,,,,,,,,,,,,,,,,,,,,,,,,,,,,,,,,,,,,,,,,,,,,,,,,,,,,,,,,,,,,,,,,,,,,,,,,,
,,5b91dced1dda7800018d0a5b,2024-02-22_16h18.00.827,kallum_motion_pilot,2023.2.2,Win32,60.24096386,5b91dced1dda7800018d0a5b,65d6bb0e977760de756971f7,65d6bcc8089e753d14451724,0.0588,0.0588,1,28,190,42,1,twoone,,,,,,,,,,,,,,,,,,,,,,,,,,,,,,,,,,,,,,,,,,,,,,,,,,,,,,,,,,,,,,,,,,,,,,,,,,,,,,,,,,,,,,,,,,,,,,,,,,,,,,,,,,,,,,,,,,,,,,,,,,,,,,,,,,,,,,,,,
,,5b91dced1dda7800018d0a5b,2024-02-22_16h18.00.827,kallum_motion_pilot,2023.2.2,Win32,60.24096386,5b91dced1dda7800018d0a5b,65d6bb0e977760de756971f7,65d6bcc8089e753d14451724,0.0589,0.0596,1,29,191,12,1,threeone,,,,,,,,,,,,,,,,,,,,,,,,,,,,,,,,,,,,,,,,,,,,,,,,,,,,,,,,,,,,,,,,,,,,,,,,,,,,,,,,,,,,,,,,,,,,,,,,,,,,,,,,,,,,,,,,,,,,,,,,,,,,,,,,,,,,,,,,,
,,5b91dced1dda7800018d0a5b,2024-02-22_16h18.00.827,kallum_motion_pilot,2023.2.2,Win32,60.24096386,5b91dced1dda7800018d0a5b,65d6bb0e977760de756971f7,65d6bcc8089e753d14451724,0.0597,0.0598,1,30,192,36,1,threeone,,,,,,,,,,,,,,,,,,,,,,,,,,,,,,,,,,,,,,,,,,,,,,,,,,,,,,,,,,,,,,,,,,,,,,,,,,,,,,,,,,,,,,,,,,,,,,,,,,,,,,,,,,,,,,,,,,,,,,,,,,,,,,,,,,,,,,,,,
,,5b91dced1dda7800018d0a5b,2024-02-22_16h18.00.827,kallum_motion_pilot,2023.2.2,Win32,60.24096386,5b91dced1dda7800018d0a5b,65d6bb0e977760de756971f7,65d6bcc8089e753d14451724,0.0599,0.0599,1,31,193,101,1,seveneight,,,,,,,,,,,,,,,,,,,,,,,,,,,,,,,,,,,,,,,,,,,,,,,,,,,,,,,,,,,,,,,,,,,,,,,,,,,,,,,,,,,,,,,,,,,,,,,,,,,,,,,,,,,,,,,,,,,,,,,,,,,,,,,,,,,,,,,,,
,,5b91dced1dda7800018d0a5b,2024-02-22_16h18.00.827,kallum_motion_pilot,2023.2.2,Win32,60.24096386,5b91dced1dda7800018d0a5b,65d6bb0e977760de756971f7,65d6bcc8089e753d14451724,0.06,0.0603,1,32,194,63,1,fourthree,,,,,,,,,,,,,,,,,,,,,,,,,,,,,,,,,,,,,,,,,,,,,,,,,,,,,,,,,,,,,,,,,,,,,,,,,,,,,,,,,,,,,,,,,,,,,,,,,,,,,,,,,,,,,,,,,,,,,,,,,,,,,,,,,,,,,,,,,
,,5b91dced1dda7800018d0a5b,2024-02-22_16h18.00.827,kallum_motion_pilot,2023.2.2,Win32,60.24096386,5b91dced1dda7800018d0a5b,65d6bb0e977760de756971f7,65d6bcc8089e753d14451724,0.0604,0.0605,1,33,195,74,1,twoone,,,,,,,,,,,,,,,,,,,,,,,,,,,,,,,,,,,,,,,,,,,,,,,,,,,,,,,,,,,,,,,,,,,,,,,,,,,,,,,,,,,,,,,,,,,,,,,,,,,,,,,,,,,,,,,,,,,,,,,,,,,,,,,,,,,,,,,,,
,,5b91dced1dda7800018d0a5b,2024-02-22_16h18.00.827,kallum_motion_pilot,2023.2.2,Win32,60.24096386,5b91dced1dda7800018d0a5b,65d6bb0e977760de756971f7,65d6bcc8089e753d14451724,0.0607,0.0608,1,34,196,52,1,threeone,,,,,,,,,,,,,,,,,,,,,,,,,,,,,,,,,,,,,,,,,,,,,,,,,,,,,,,,,,,,,,,,,,,,,,,,,,,,,,,,,,,,,,,,,,,,,,,,,,,,,,,,,,,,,,,,,,,,,,,,,,,,,,,,,,,,,,,,,
,,5b91dced1dda7800018d0a5b,2024-02-22_16h18.00.827,kallum_motion_pilot,2023.2.2,Win32,60.24096386,5b91dced1dda7800018d0a5b,65d6bb0e977760de756971f7,65d6bcc8089e753d14451724,0.061,0.061,1,35,197,146,1,sixfive,,,,,,,,,,,,,,,,,,,,,,,,,,,,,,,,,,,,,,,,,,,,,,,,,,,,,,,,,,,,,,,,,,,,,,,,,,,,,,,,,,,,,,,,,,,,,,,,,,,,,,,,,,,,,,,,,,,,,,,,,,,,,,,,,,,,,,,,,
,,5b91dced1dda7800018d0a5b,2024-02-22_16h18.00.827,kallum_motion_pilot,2023.2.2,Win32,60.24096386,5b91dced1dda7800018d0a5b,65d6bb0e977760de756971f7,65d6bcc8089e753d14451724,0.0612,0.0613,1,36,198,144,1,fivesix,,,,,,,,,,,,,,,,,,,,,,,,,,,,,,,,,,,,,,,,,,,,,,,,,,,,,,,,,,,,,,,,,,,,,,,,,,,,,,,,,,,,,,,,,,,,,,,,,,,,,,,,,,,,,,,,,,,,,,,,,,,,,,,,,,,,,,,,,
,,5b91dced1dda7800018d0a5b,2024-02-22_16h18.00.827,kallum_motion_pilot,2023.2.2,Win32,60.24096386,5b91dced1dda7800018d0a5b,65d6bb0e977760de756971f7,65d6bcc8089e753d14451724,0.0614,0.0615,1,37,199,29,1,threefour,,,,,,,,,,,,,,,,,,,,,,,,,,,,,,,,,,,,,,,,,,,,,,,,,,,,,,,,,,,,,,,,,,,,,,,,,,,,,,,,,,,,,,,,,,,,,,,,,,,,,,,,,,,,,,,,,,,,,,,,,,,,,,,,,,,,,,,,,
,,5b91dced1dda7800018d0a5b,2024-02-22_16h18.00.827,kallum_motion_pilot,2023.2.2,Win32,60.24096386,5b91dced1dda7800018d0a5b,65d6bb0e977760de756971f7,65d6bcc8089e753d14451724,0.0617,0.0617,1,38,200,159,1,eightseven,,,,,,,,,,,,,,,,,,,,,,,,,,,,,,,,,,,,,,,,,,,,,,,,,,,,,,,,,,,,,,,,,,,,,,,,,,,,,,,,,,,,,,,,,,,,,,,,,,,,,,,,,,,,,,,,,,,,,,,,,,,,,,,,,,,,,,,,,
,,5b91dced1dda7800018d0a5b,2024-02-22_16h18.00.827,kallum_motion_pilot,2023.2.2,Win32,60.24096386,5b91dced1dda7800018d0a5b,65d6bb0e977760de756971f7,65d6bcc8089e753d14451724,0.0619,0.0619,1,39,201,78,1,fourtwo,,,,,,,,,,,,,,,,,,,,,,,,,,,,,,,,,,,,,,,,,,,,,,,,,,,,,,,,,,,,,,,,,,,,,,,,,,,,,,,,,,,,,,,,,,,,,,,,,,,,,,,,,,,,,,,,,,,,,,,,,,,,,,,,,,,,,,,,,
,,5b91dced1dda7800018d0a5b,2024-02-22_16h18.00.827,kallum_motion_pilot,2023.2.2,Win32,60.24096386,5b91dced1dda7800018d0a5b,65d6bb0e977760de756971f7,65d6bcc8089e753d14451724,0.0621,0.0622,1,40,202,111,1,eightseven,,,,,,,,,,,,,,,,,,,,,,,,,,,,,,,,,,,,,,,,,,,,,,,,,,,,,,,,,,,,,,,,,,,,,,,,,,,,,,,,,,,,,,,,,,,,,,,,,,,,,,,,,,,,,,,,,,,,,,,,,,,,,,,,,,,,,,,,,
,,5b91dced1dda7800018d0a5b,2024-02-22_16h18.00.827,kallum_motion_pilot,2023.2.2,Win32,60.24096386,5b91dced1dda7800018d0a5b,65d6bb0e977760de756971f7,65d6bcc8089e753d14451724,0.0623,0.0625,1,41,203,50,1,twoone,,,,,,,,,,,,,,,,,,,,,,,,,,,,,,,,,,,,,,,,,,,,,,,,,,,,,,,,,,,,,,,,,,,,,,,,,,,,,,,,,,,,,,,,,,,,,,,,,,,,,,,,,,,,,,,,,,,,,,,,,,,,,,,,,,,,,,,,,
,,5b91dced1dda7800018d0a5b,2024-02-22_16h18.00.827,kallum_motion_pilot,2023.2.2,Win32,60.24096386,5b91dced1dda7800018d0a5b,65d6bb0e977760de756971f7,65d6bcc8089e753d14451724,0.0626,0.0627,1,42,204,100,1,sevenfive,,,,,,,,,,,,,,,,,,,,,,,,,,,,,,,,,,,,,,,,,,,,,,,,,,,,,,,,,,,,,,,,,,,,,,,,,,,,,,,,,,,,,,,,,,,,,,,,,,,,,,,,,,,,,,,,,,,,,,,,,,,,,,,,,,,,,,,,,
,,5b91dced1dda7800018d0a5b,2024-02-22_16h18.00.827,kallum_motion_pilot,2023.2.2,Win32,60.24096386,5b91dced1dda7800018d0a5b,65d6bb0e977760de756971f7,65d6bcc8089e753d14451724,0.0629,0.063,1,43,205,133,1,seveneight,,,,,,,,,,,,,,,,,,,,,,,,,,,,,,,,,,,,,,,,,,,,,,,,,,,,,,,,,,,,,,,,,,,,,,,,,,,,,,,,,,,,,,,,,,,,,,,,,,,,,,,,,,,,,,,,,,,,,,,,,,,,,,,,,,,,,,,,,
,,5b91dced1dda7800018d0a5b,2024-02-22_16h18.00.827,kallum_motion_pilot,2023.2.2,Win32,60.24096386,5b91dced1dda7800018d0a5b,65d6bb0e977760de756971f7,65d6bcc8089e753d14451724,0.0631,0.0632,1,44,206,113,1,fiveseven,,,,,,,,,,,,,,,,,,,,,,,,,,,,,,,,,,,,,,,,,,,,,,,,,,,,,,,,,,,,,,,,,,,,,,,,,,,,,,,,,,,,,,,,,,,,,,,,,,,,,,,,,,,,,,,,,,,,,,,,,,,,,,,,,,,,,,,,,
,,5b91dced1dda7800018d0a5b,2024-02-22_16h18.00.827,kallum_motion_pilot,2023.2.2,Win32,60.24096386,5b91dced1dda7800018d0a5b,65d6bb0e977760de756971f7,65d6bcc8089e753d14451724,0.0634,0.0635,1,45,207,58,1,twoone,,,,,,,,,,,,,,,,,,,,,,,,,,,,,,,,,,,,,,,,,,,,,,,,,,,,,,,,,,,,,,,,,,,,,,,,,,,,,,,,,,,,,,,,,,,,,,,,,,,,,,,,,,,,,,,,,,,,,,,,,,,,,,,,,,,,,,,,,
,,5b91dced1dda7800018d0a5b,2024-02-22_16h18.00.827,kallum_motion_pilot,2023.2.2,Win32,60.24096386,5b91dced1dda7800018d0a5b,65d6bb0e977760de756971f7,65d6bcc8089e753d14451724,0.0636,0.0638,1,46,208,140,1,sevenfive,,,,,,,,,,,,,,,,,,,,,,,,,,,,,,,,,,,,,,,,,,,,,,,,,,,,,,,,,,,,,,,,,,,,,,,,,,,,,,,,,,,,,,,,,,,,,,,,,,,,,,,,,,,,,,,,,,,,,,,,,,,,,,,,,,,,,,,,,
,,5b91dced1dda7800018d0a5b,2024-02-22_16h18.00.827,kallum_motion_pilot,2023.2.2,Win32,60.24096386,5b91dced1dda7800018d0a5b,65d6bb0e977760de756971f7,65d6bcc8089e753d14451724,0.0639,0.0641,1,47,209,47,1,fourthree,,,,,,,,,,,,,,,,,,,,,,,,,,,,,,,,,,,,,,,,,,,,,,,,,,,,,,,,,,,,,,,,,,,,,,,,,,,,,,,,,,,,,,,,,,,,,,,,,,,,,,,,,,,,,,,,,,,,,,,,,,,,,,,,,,,,,,,,,
,,5b91dced1dda7800018d0a5b,2024-02-22_16h18.00.827,kallum_motion_pilot,2023.2.2,Win32,60.24096386,5b91dced1dda7800018d0a5b,65d6bb0e977760de756971f7,65d6bcc8089e753d14451724,0.0642,0.0643,1,48,210,154,1,sixfive,,,,,,,,,,,,,,,,,,,,,,,,,,,,,,,,,,,,,,,,,,,,,,,,,,,,,,,,,,,,,,,,,,,,,,,,,,,,,,,,,,,,,,,,,,,,,,,,,,,,,,,,,,,,,,,,,,,,,,,,,,,,,,,,,,,,,,,,,
,,5b91dced1dda7800018d0a5b,2024-02-22_16h18.00.827,kallum_motion_pilot,2023.2.2,Win32,60.24096386,5b91dced1dda7800018d0a5b,65d6bb0e977760de756971f7,65d6bcc8089e753d14451724,0.0644,0.0646,1,49,211,0,1,onetwo,,,,,,,,,,,,,,,,,,,,,,,,,,,,,,,,,,,,,,,,,,,,,,,,,,,,,,,,,,,,,,,,,,,,,,,,,,,,,,,,,,,,,,,,,,,,,,,,,,,,,,,,,,,,,,,,,,,,,,,,,,,,,,,,,,,,,,,,,
,,5b91dced1dda7800018d0a5b,2024-02-22_16h18.00.827,kallum_motion_pilot,2023.2.2,Win32,60.24096386,5b91dced1dda7800018d0a5b,65d6bb0e977760de756971f7,65d6bcc8089e753d14451724,0.0647,0.0649,1,50,212,70,1,fourtwo,,,,,,,,,,,,,,,,,,,,,,,,,,,,,,,,,,,,,,,,,,,,,,,,,,,,,,,,,,,,,,,,,,,,,,,,,,,,,,,,,,,,,,,,,,,,,,,,,,,,,,,,,,,,,,,,,,,,,,,,,,,,,,,,,,,,,,,,,
,,5b91dced1dda7800018d0a5b,2024-02-22_16h18.00.827,kallum_motion_pilot,2023.2.2,Win32,60.24096386,5b91dced1dda7800018d0a5b,65d6bb0e977760de756971f7,65d6bcc8089e753d14451724,0.065,0.0651,1,51,213,94,1,eightsix,,,,,,,,,,,,,,,,,,,,,,,,,,,,,,,,,,,,,,,,,,,,,,,,,,,,,,,,,,,,,,,,,,,,,,,,,,,,,,,,,,,,,,,,,,,,,,,,,,,,,,,,,,,,,,,,,,,,,,,,,,,,,,,,,,,,,,,,,
,,5b91dced1dda7800018d0a5b,2024-02-22_16h18.00.827,kallum_motion_pilot,2023.2.2,Win32,60.24096386,5b91dced1dda7800018d0a5b,65d6bb0e977760de756971f7,65d6bcc8089e753d14451724,0.0652,0.0653,1,52,214,145,1,fiveseven,,,,,,,,,,,,,,,,,,,,,,,,,,,,,,,,,,,,,,,,,,,,,,,,,,,,,,,,,,,,,,,,,,,,,,,,,,,,,,,,,,,,,,,,,,,,,,,,,,,,,,,,,,,,,,,,,,,,,,,,,,,,,,,,,,,,,,,,,
,,5b91dced1dda7800018d0a5b,2024-02-22_16h18.00.827,kallum_motion_pilot,2023.2.2,Win32,60.24096386,5b91dced1dda7800018d0a5b,65d6bb0e977760de756971f7,65d6bcc8089e753d14451724,0.0654,0.0655,1,53,215,141,1,seveneight,,,,,,,,,,,,,,,,,,,,,,,,,,,,,,,,,,,,,,,,,,,,,,,,,,,,,,,,,,,,,,,,,,,,,,,,,,,,,,,,,,,,,,,,,,,,,,,,,,,,,,,,,,,,,,,,,,,,,,,,,,,,,,,,,,,,,,,,,
,,5b91dced1dda7800018d0a5b,2024-02-22_16h18.00.827,kallum_motion_pilot,2023.2.2,Win32,60.24096386,5b91dced1dda7800018d0a5b,65d6bb0e977760de756971f7,65d6bcc8089e753d14451724,0.0656,0.0657,1,54,216,134,1,eightsix,,,,,,,,,,,,,,,,,,,,,,,,,,,,,,,,,,,,,,,,,,,,,,,,,,,,,,,,,,,,,,,,,,,,,,,,,,,,,,,,,,,,,,,,,,,,,,,,,,,,,,,,,,,,,,,,,,,,,,,,,,,,,,,,,,,,,,,,,
,,5b91dced1dda7800018d0a5b,2024-02-22_16h18.00.827,kallum_motion_pilot,2023.2.2,Win32,60.24096386,5b91dced1dda7800018d0a5b,65d6bb0e977760de756971f7,65d6bcc8089e753d14451724,0.0658,0.0659,1,55,217,88,1,fivesix,,,,,,,,,,,,,,,,,,,,,,,,,,,,,,,,,,,,,,,,,,,,,,,,,,,,,,,,,,,,,,,,,,,,,,,,,,,,,,,,,,,,,,,,,,,,,,,,,,,,,,,,,,,,,,,,,,,,,,,,,,,,,,,,,,,,,,,,,
,,5b91dced1dda7800018d0a5b,2024-02-22_16h18.00.827,kallum_motion_pilot,2023.2.2,Win32,60.24096386,5b91dced1dda7800018d0a5b,65d6bb0e977760de756971f7,65d6bcc8089e753d14451724,0.0661,0.0661,1,56,218,92,1,sevenfive,,,,,,,,,,,,,,,,,,,,,,,,,,,,,,,,,,,,,,,,,,,,,,,,,,,,,,,,,,,,,,,,,,,,,,,,,,,,,,,,,,,,,,,,,,,,,,,,,,,,,,,,,,,,,,,,,,,,,,,,,,,,,,,,,,,,,,,,,
,,5b91dced1dda7800018d0a5b,2024-02-22_16h18.00.827,kallum_motion_pilot,2023.2.2,Win32,60.24096386,5b91dced1dda7800018d0a5b,65d6bb0e977760de756971f7,65d6bcc8089e753d14451724,0.0662,0.0663,1,57,219,46,1,fourtwo,,,,,,,,,,,,,,,,,,,,,,,,,,,,,,,,,,,,,,,,,,,,,,,,,,,,,,,,,,,,,,,,,,,,,,,,,,,,,,,,,,,,,,,,,,,,,,,,,,,,,,,,,,,,,,,,,,,,,,,,,,,,,,,,,,,,,,,,,
,,5b91dced1dda7800018d0a5b,2024-02-22_16h18.00.827,kallum_motion_pilot,2023.2.2,Win32,60.24096386,5b91dced1dda7800018d0a5b,65d6bb0e977760de756971f7,65d6bcc8089e753d14451724,0.0664,0.0665,1,58,220,87,1,eightseven,,,,,,,,,,,,,,,,,,,,,,,,,,,,,,,,,,,,,,,,,,,,,,,,,,,,,,,,,,,,,,,,,,,,,,,,,,,,,,,,,,,,,,,,,,,,,,,,,,,,,,,,,,,,,,,,,,,,,,,,,,,,,,,,,,,,,,,,,
,,5b91dced1dda7800018d0a5b,2024-02-22_16h18.00.827,kallum_motion_pilot,2023.2.2,Win32,60.24096386,5b91dced1dda7800018d0a5b,65d6bb0e977760de756971f7,65d6bcc8089e753d14451724,0.0666,0.0666,1,59,221,138,1,sixfive,,,,,,,,,,,,,,,,,,,,,,,,,,,,,,,,,,,,,,,,,,,,,,,,,,,,,,,,,,,,,,,,,,,,,,,,,,,,,,,,,,,,,,,,,,,,,,,,,,,,,,,,,,,,,,,,,,,,,,,,,,,,,,,,,,,,,,,,,
,,5b91dced1dda7800018d0a5b,2024-02-22_16h18.00.827,kallum_motion_pilot,2023.2.2,Win32,60.24096386,5b91dced1dda7800018d0a5b,65d6bb0e977760de756971f7,65d6bcc8089e753d14451724,0.0667,0.0667,1,60,222,102,1,eightsix,,,,,,,,,,,,,,,,,,,,,,,,,,,,,,,,,,,,,,,,,,,,,,,,,,,,,,,,,,,,,,,,,,,,,,,,,,,,,,,,,,,,,,,,,,,,,,,,,,,,,,,,,,,,,,,,,,,,,,,,,,,,,,,,,,,,,,,,,
,,5b91dced1dda7800018d0a5b,2024-02-22_16h18.00.827,kallum_motion_pilot,2023.2.2,Win32,60.24096386,5b91dced1dda7800018d0a5b,65d6bb0e977760de756971f7,65d6bcc8089e753d14451724,0.0668,0.0669,1,61,223,75,1,twofour,,,,,,,,,,,,,,,,,,,,,,,,,,,,,,,,,,,,,,,,,,,,,,,,,,,,,,,,,,,,,,,,,,,,,,,,,,,,,,,,,,,,,,,,,,,,,,,,,,,,,,,,,,,,,,,,,,,,,,,,,,,,,,,,,,,,,,,,,
,,5b91dced1dda7800018d0a5b,2024-02-22_16h18.00.827,kallum_motion_pilot,2023.2.2,Win32,60.24096386,5b91dced1dda7800018d0a5b,65d6bb0e977760de756971f7,65d6bcc8089e753d14451724,0.0669,0.0671,1,62,224,27,1,twofour,,,,,,,,,,,,,,,,,,,,,,,,,,,,,,,,,,,,,,,,,,,,,,,,,,,,,,,,,,,,,,,,,,,,,,,,,,,,,,,,,,,,,,,,,,,,,,,,,,,,,,,,,,,,,,,,,,,,,,,,,,,,,,,,,,,,,,,,,
,,5b91dced1dda7800018d0a5b,2024-02-22_16h18.00.827,kallum_motion_pilot,2023.2.2,Win32,60.24096386,5b91dced1dda7800018d0a5b,65d6bb0e977760de756971f7,65d6bcc8089e753d14451724,0.0671,0.0672,1,63,225,61,1,threefour,,,,,,,,,,,,,,,,,,,,,,,,,,,,,,,,,,,,,,,,,,,,,,,,,,,,,,,,,,,,,,,,,,,,,,,,,,,,,,,,,,,,,,,,,,,,,,,,,,,,,,,,,,,,,,,,,,,,,,,,,,,,,,,,,,,,,,,,,
,,5b91dced1dda7800018d0a5b,2024-02-22_16h18.00.827,kallum_motion_pilot,2023.2.2,Win32,60.24096386,5b91dced1dda7800018d0a5b,65d6bb0e977760de756971f7,65d6bcc8089e753d14451724,0.0673,0.0674,1,64,226,82,1,sixfive,,,,,,,,,,,,,,,,,,,,,,,,,,,,,,,,,,,,,,,,,,,,,,,,,,,,,,,,,,,,,,,,,,,,,,,,,,,,,,,,,,,,,,,,,,,,,,,,,,,,,,,,,,,,,,,,,,,,,,,,,,,,,,,,,,,,,,,,,
,,5b91dced1dda7800018d0a5b,2024-02-22_16h18.00.827,kallum_motion_pilot,2023.2.2,Win32,60.24096386,5b91dced1dda7800018d0a5b,65d6bb0e977760de756971f7,65d6bcc8089e753d14451724,0.0674,0.0675,1,65,227,26,1,twoone,,,,,,,,,,,,,,,,,,,,,,,,,,,,,,,,,,,,,,,,,,,,,,,,,,,,,,,,,,,,,,,,,,,,,,,,,,,,,,,,,,,,,,,,,,,,,,,,,,,,,,,,,,,,,,,,,,,,,,,,,,,,,,,,,,,,,,,,,
,,5b91dced1dda7800018d0a5b,2024-02-22_16h18.00.827,kallum_motion_pilot,2023.2.2,Win32,60.24096386,5b91dced1dda7800018d0a5b,65d6bb0e977760de756971f7,65d6bcc8089e753d14451724,0.0676,0.0677,1,66,228,139,1,sixeight,,,,,,,,,,,,,,,,,,,,,,,,,,,,,,,,,,,,,,,,,,,,,,,,,,,,,,,,,,,,,,,,,,,,,,,,,,,,,,,,,,,,,,,,,,,,,,,,,,,,,,,,,,,,,,,,,,,,,,,,,,,,,,,,,,,,,,,,,
,,5b91dced1dda7800018d0a5b,2024-02-22_16h18.00.827,kallum_motion_pilot,2023.2.2,Win32,60.24096386,5b91dced1dda7800018d0a5b,65d6bb0e977760de756971f7,65d6bcc8089e753d14451724,0.0677,0.0678,1,67,229,95,1,eightseven,,,,,,,,,,,,,,,,,,,,,,,,,,,,,,,,,,,,,,,,,,,,,,,,,,,,,,,,,,,,,,,,,,,,,,,,,,,,,,,,,,,,,,,,,,,,,,,,,,,,,,,,,,,,,,,,,,,,,,,,,,,,,,,,,,,,,,,,,
,,5b91dced1dda7800018d0a5b,2024-02-22_16h18.00.827,kallum_motion_pilot,2023.2.2,Win32,60.24096386,5b91dced1dda7800018d0a5b,65d6bb0e977760de756971f7,65d6bcc8089e753d14451724,0.0678,0.0679,1,68,230,132,1,sevenfive,,,,,,,,,,,,,,,,,,,,,,,,,,,,,,,,,,,,,,,,,,,,,,,,,,,,,,,,,,,,,,,,,,,,,,,,,,,,,,,,,,,,,,,,,,,,,,,,,,,,,,,,,,,,,,,,,,,,,,,,,,,,,,,,,,,,,,,,,
,,5b91dced1dda7800018d0a5b,2024-02-22_16h18.00.827,kallum_motion_pilot,2023.2.2,Win32,60.24096386,5b91dced1dda7800018d0a5b,65d6bb0e977760de756971f7,65d6bcc8089e753d14451724,0.068,0.0681,1,69,231,64,1,onetwo,,,,,,,,,,,,,,,,,,,,,,,,,,,,,,,,,,,,,,,,,,,,,,,,,,,,,,,,,,,,,,,,,,,,,,,,,,,,,,,,,,,,,,,,,,,,,,,,,,,,,,,,,,,,,,,,,,,,,,,,,,,,,,,,,,,,,,,,,
,,5b91dced1dda7800018d0a5b,2024-02-22_16h18.00.827,kallum_motion_pilot,2023.2.2,Win32,60.24096386,5b91dced1dda7800018d0a5b,65d6bb0e977760de756971f7,65d6bcc8089e753d14451724,0.0682,0.0683,1,70,232,16,1,onetwo,,,,,,,,,,,,,,,,,,,,,,,,,,,,,,,,,,,,,,,,,,,,,,,,,,,,,,,,,,,,,,,,,,,,,,,,,,,,,,,,,,,,,,,,,,,,,,,,,,,,,,,,,,,,,,,,,,,,,,,,,,,,,,,,,,,,,,,,,
,,5b91dced1dda7800018d0a5b,2024-02-22_16h18.00.827,kallum_motion_pilot,2023.2.2,Win32,60.24096386,5b91dced1dda7800018d0a5b,65d6bb0e977760de756971f7,65d6bcc8089e753d14451724,0.0684,0.0684,1,71,233,37,1,threefour,,,,,,,,,,,,,,,,,,,,,,,,,,,,,,,,,,,,,,,,,,,,,,,,,,,,,,,,,,,,,,,,,,,,,,,,,,,,,,,,,,,,,,,,,,,,,,,,,,,,,,,,,,,,,,,,,,,,,,,,,,,,,,,,,,,,,,,,,
,,5b91dced1dda7800018d0a5b,2024-02-22_16h18.00.827,kallum_motion_pilot,2023.2.2,Win32,60.24096386,5b91dced1dda7800018d0a5b,65d6bb0e977760de756971f7,65d6bcc8089e753d14451724,0.0684,0.0685,1,72,234,10,1,twoone,,,,,,,,,,,,,,,,,,,,,,,,,,,,,,,,,,,,,,,,,,,,,,,,,,,,,,,,,,,,,,,,,,,,,,,,,,,,,,,,,,,,,,,,,,,,,,,,,,,,,,,,,,,,,,,,,,,,,,,,,,,,,,,,,,,,,,,,,
,,5b91dced1dda7800018d0a5b,2024-02-22_16h18.00.827,kallum_motion_pilot,2023.2.2,Win32,60.24096386,5b91dced1dda7800018d0a5b,65d6bb0e977760de756971f7,65d6bcc8089e753d14451724,0.0685,0.0686,1,73,235,106,1,sixfive,,,,,,,,,,,,,,,,,,,,,,,,,,,,,,,,,,,,,,,,,,,,,,,,,,,,,,,,,,,,,,,,,,,,,,,,,,,,,,,,,,,,,,,,,,,,,,,,,,,,,,,,,,,,,,,,,,,,,,,,,,,,,,,,,,,,,,,,,
,,5b91dced1dda7800018d0a5b,2024-02-22_16h18.00.827,kallum_motion_pilot,2023.2.2,Win32,60.24096386,5b91dced1dda7800018d0a5b,65d6bb0e977760de756971f7,65d6bcc8089e753d14451724,0.0687,0.0688,1,74,236,14,1,fourtwo,,,,,,,,,,,,,,,,,,,,,,,,,,,,,,,,,,,,,,,,,,,,,,,,,,,,,,,,,,,,,,,,,,,,,,,,,,,,,,,,,,,,,,,,,,,,,,,,,,,,,,,,,,,,,,,,,,,,,,,,,,,,,,,,,,,,,,,,,
,,5b91dced1dda7800018d0a5b,2024-02-22_16h18.00.827,kallum_motion_pilot,2023.2.2,Win32,60.24096386,5b91dced1dda7800018d0a5b,65d6bb0e977760de756971f7,65d6bcc8089e753d14451724,0.0689,0.069,1,75,237,99,1,sixeight,,,,,,,,,,,,,,,,,,,,,,,,,,,,,,,,,,,,,,,,,,,,,,,,,,,,,,,,,,,,,,,,,,,,,,,,,,,,,,,,,,,,,,,,,,,,,,,,,,,,,,,,,,,,,,,,,,,,,,,,,,,,,,,,,,,,,,,,,
,,5b91dced1dda7800018d0a5b,2024-02-22_16h18.00.827,kallum_motion_pilot,2023.2.2,Win32,60.24096386,5b91dced1dda7800018d0a5b,65d6bb0e977760de756971f7,65d6bcc8089e753d14451724,0.0691,0.0692,1,76,238,125,1,seveneight,,,,,,,,,,,,,,,,,,,,,,,,,,,,,,,,,,,,,,,,,,,,,,,,,,,,,,,,,,,,,,,,,,,,,,,,,,,,,,,,,,,,,,,,,,,,,,,,,,,,,,,,,,,,,,,,,,,,,,,,,,,,,,,,,,,,,,,,,
,,5b91dced1dda7800018d0a5b,2024-02-22_16h18.00.827,kallum_motion_pilot,2023.2.2,Win32,60.24096386,5b91dced1dda7800018d0a5b,65d6bb0e977760de756971f7,65d6bcc8089e753d14451724,0.0693,0.0693,1,77,239,62,1,fourtwo,,,,,,,,,,,,,,,,,,,,,,,,,,,,,,,,,,,,,,,,,,,,,,,,,,,,,,,,,,,,,,,,,,,,,,,,,,,,,,,,,,,,,,,,,,,,,,,,,,,,,,,,,,,,,,,,,,,,,,,,,,,,,,,,,,,,,,,,,
,,5b91dced1dda7800018d0a5b,2024-02-22_16h18.00.827,kallum_motion_pilot,2023.2.2,Win32,60.24096386,5b91dced1dda7800018d0a5b,65d6bb0e977760de756971f7,65d6bcc8089e753d14451724,0.0694,0.0695,1,78,240,96,1,fivesix,,,,,,,,,,,,,,,,,,,,,,,,,,,,,,,,,,,,,,,,,,,,,,,,,,,,,,,,,,,,,,,,,,,,,,,,,,,,,,,,,,,,,,,,,,,,,,,,,,,,,,,,,,,,,,,,,,,,,,,,,,,,,,,,,,,,,,,,,
,,5b91dced1dda7800018d0a5b,2024-02-22_16h18.00.827,kallum_motion_pilot,2023.2.2,Win32,60.24096386,5b91dced1dda7800018d0a5b,65d6bb0e977760de756971f7,65d6bcc8089e753d14451724,0.0695,0.0697,1,79,241,116,1,sevenfive,,,,,,,,,,,,,,,,,,,,,,,,,,,,,,,,,,,,,,,,,,,,,,,,,,,,,,,,,,,,,,,,,,,,,,,,,,,,,,,,,,,,,,,,,,,,,,,,,,,,,,,,,,,,,,,,,,,,,,,,,,,,,,,,,,,,,,,,,
,,5b91dced1dda7800018d0a5b,2024-02-22_16h18.00.827,kallum_motion_pilot,2023.2.2,Win32,60.24096386,5b91dced1dda7800018d0a5b,65d6bb0e977760de756971f7,65d6bcc8089e753d14451724,0.0697,0.0698,1,80,242,1,1,onethree,,,,,,,,,,,,,,,,,,,,,,,,,,,,,,,,,,,,,,,,,,,,,,,,,,,,,,,,,,,,,,,,,,,,,,,,,,,,,,,,,,,,,,,,,,,,,,,,,,,,,,,,,,,,,,,,,,,,,,,,,,,,,,,,,,,,,,,,,
,,5b91dced1dda7800018d0a5b,2024-02-22_16h18.00.827,kallum_motion_pilot,2023.2.2,Win32,60.24096386,5b91dced1dda7800018d0a5b,65d6bb0e977760de756971f7,65d6bcc8089e753d14451724,0.0699,0.0699,1,81,243,156,1,sevenfive,,,,,,,,,,,,,,,,,,,,,,,,,,,,,,,,,,,,,,,,,,,,,,,,,,,,,,,,,,,,,,,,,,,,,,,,,,,,,,,,,,,,,,,,,,,,,,,,,,,,,,,,,,,,,,,,,,,,,,,,,,,,,,,,,,,,,,,,,
,,5b91dced1dda7800018d0a5b,2024-02-22_16h18.00.827,kallum_motion_pilot,2023.2.2,Win32,60.24096386,5b91dced1dda7800018d0a5b,65d6bb0e977760de756971f7,65d6bcc8089e753d14451724,0.07,0.0701,1,82,244,115,1,sixeight,,,,,,,,,,,,,,,,,,,,,,,,,,,,,,,,,,,,,,,,,,,,,,,,,,,,,,,,,,,,,,,,,,,,,,,,,,,,,,,,,,,,,,,,,,,,,,,,,,,,,,,,,,,,,,,,,,,,,,,,,,,,,,,,,,,,,,,,,
,,5b91dced1dda7800018d0a5b,2024-02-22_16h18.00.827,kallum_motion_pilot,2023.2.2,Win32,60.24096386,5b91dced1dda7800018d0a5b,65d6bb0e977760de756971f7,65d6bcc8089e753d14451724,0.0701,0.0702,1,83,245,60,1,threeone,,,,,,,,,,,,,,,,,,,,,,,,,,,,,,,,,,,,,,,,,,,,,,,,,,,,,,,,,,,,,,,,,,,,,,,,,,,,,,,,,,,,,,,,,,,,,,,,,,,,,,,,,,,,,,,,,,,,,,,,,,,,,,,,,,,,,,,,,
,,5b91dced1dda7800018d0a5b,2024-02-22_16h18.00.827,kallum_motion_pilot,2023.2.2,Win32,60.24096386,5b91dced1dda7800018d0a5b,65d6bb0e977760de756971f7,65d6bcc8089e753d14451724,0.0703,0.0704,1,84,246,51,1,twofour,,,,,,,,,,,,,,,,,,,,,,,,,,,,,,,,,,,,,,,,,,,,,,,,,,,,,,,,,,,,,,,,,,,,,,,,,,,,,,,,,,,,,,,,,,,,,,,,,,,,,,,,,,,,,,,,,,,,,,,,,,,,,,,,,,,,,,,,,
,,5b91dced1dda7800018d0a5b,2024-02-22_16h18.00.827,kallum_motion_pilot,2023.2.2,Win32,60.24096386,5b91dced1dda7800018d0a5b,65d6bb0e977760de756971f7,65d6bcc8089e753d14451724,0.0704,0.0705,1,85,247,124,1,sevenfive,,,,,,,,,,,,,,,,,,,,,,,,,,,,,,,,,,,,,,,,,,,,,,,,,,,,,,,,,,,,,,,,,,,,,,,,,,,,,,,,,,,,,,,,,,,,,,,,,,,,,,,,,,,,,,,,,,,,,,,,,,,,,,,,,,,,,,,,,
,,5b91dced1dda7800018d0a5b,2024-02-22_16h18.00.827,kallum_motion_pilot,2023.2.2,Win32,60.24096386,5b91dced1dda7800018d0a5b,65d6bb0e977760de756971f7,65d6bcc8089e753d14451724,0.0706,0.0707,1,86,248,127,1,eightseven,,,,,,,,,,,,,,,,,,,,,,,,,,,,,,,,,,,,,,,,,,,,,,,,,,,,,,,,,,,,,,,,,,,,,,,,,,,,,,,,,,,,,,,,,,,,,,,,,,,,,,,,,,,,,,,,,,,,,,,,,,,,,,,,,,,,,,,,,
,,5b91dced1dda7800018d0a5b,2024-02-22_16h18.00.827,kallum_motion_pilot,2023.2.2,Win32,60.24096386,5b91dced1dda7800018d0a5b,65d6bb0e977760de756971f7,65d6bcc8089e753d14451724,0.0707,0.0707,1,87,249,69,1,threefour,,,,,,,,,,,,,,,,,,,,,,,,,,,,,,,,,,,,,,,,,,,,,,,,,,,,,,,,,,,,,,,,,,,,,,,,,,,,,,,,,,,,,,,,,,,,,,,,,,,,,,,,,,,,,,,,,,,,,,,,,,,,,,,,,,,,,,,,,
,,5b91dced1dda7800018d0a5b,2024-02-22_16h18.00.827,kallum_motion_pilot,2023.2.2,Win32,60.24096386,5b91dced1dda7800018d0a5b,65d6bb0e977760de756971f7,65d6bcc8089e753d14451724,0.0708,0.0709,1,88,250,39,1,fourthree,,,,,,,,,,,,,,,,,,,,,,,,,,,,,,,,,,,,,,,,,,,,,,,,,,,,,,,,,,,,,,,,,,,,,,,,,,,,,,,,,,,,,,,,,,,,,,,,,,,,,,,,,,,,,,,,,,,,,,,,,,,,,,,,,,,,,,,,,
,,5b91dced1dda7800018d0a5b,2024-02-22_16h18.00.827,kallum_motion_pilot,2023.2.2,Win32,60.24096386,5b91dced1dda7800018d0a5b,65d6bb0e977760de756971f7,65d6bcc8089e753d14451724,0.071,0.0711,1,89,251,136,1,fivesix,,,,,,,,,,,,,,,,,,,,,,,,,,,,,,,,,,,,,,,,,,,,,,,,,,,,,,,,,,,,,,,,,,,,,,,,,,,,,,,,,,,,,,,,,,,,,,,,,,,,,,,,,,,,,,,,,,,,,,,,,,,,,,,,,,,,,,,,,
,,5b91dced1dda7800018d0a5b,2024-02-22_16h18.00.827,kallum_motion_pilot,2023.2.2,Win32,60.24096386,5b91dced1dda7800018d0a5b,65d6bb0e977760de756971f7,65d6bcc8089e753d14451724,0.0712,0.0713,1,90,252,128,1,fivesix,,,,,,,,,,,,,,,,,,,,,,,,,,,,,,,,,,,,,,,,,,,,,,,,,,,,,,,,,,,,,,,,,,,,,,,,,,,,,,,,,,,,,,,,,,,,,,,,,,,,,,,,,,,,,,,,,,,,,,,,,,,,,,,,,,,,,,,,,
,,5b91dced1dda7800018d0a5b,2024-02-22_16h18.00.827,kallum_motion_pilot,2023.2.2,Win32,60.24096386,5b91dced1dda7800018d0a5b,65d6bb0e977760de756971f7,65d6bcc8089e753d14451724,0.0714,0.0714,1,91,253,66,1,twoone,,,,,,,,,,,,,,,,,,,,,,,,,,,,,,,,,,,,,,,,,,,,,,,,,,,,,,,,,,,,,,,,,,,,,,,,,,,,,,,,,,,,,,,,,,,,,,,,,,,,,,,,,,,,,,,,,,,,,,,,,,,,,,,,,,,,,,,,,
,,5b91dced1dda7800018d0a5b,2024-02-22_16h18.00.827,kallum_motion_pilot,2023.2.2,Win32,60.24096386,5b91dced1dda7800018d0a5b,65d6bb0e977760de756971f7,65d6bcc8089e753d14451724,0.0714,0.0715,1,92,254,120,1,fivesix,,,,,,,,,,,,,,,,,,,,,,,,,,,,,,,,,,,,,,,,,,,,,,,,,,,,,,,,,,,,,,,,,,,,,,,,,,,,,,,,,,,,,,,,,,,,,,,,,,,,,,,,,,,,,,,,,,,,,,,,,,,,,,,,,,,,,,,,,
,,5b91dced1dda7800018d0a5b,2024-02-22_16h18.00.827,kallum_motion_pilot,2023.2.2,Win32,60.24096386,5b91dced1dda7800018d0a5b,65d6bb0e977760de756971f7,65d6bcc8089e753d14451724,0.0716,0.0717,1,93,255,19,1,twofour,,,,,,,,,,,,,,,,,,,,,,,,,,,,,,,,,,,,,,,,,,,,,,,,,,,,,,,,,,,,,,,,,,,,,,,,,,,,,,,,,,,,,,,,,,,,,,,,,,,,,,,,,,,,,,,,,,,,,,,,,,,,,,,,,,,,,,,,,
,,5b91dced1dda7800018d0a5b,2024-02-22_16h18.00.827,kallum_motion_pilot,2023.2.2,Win32,60.24096386,5b91dced1dda7800018d0a5b,65d6bb0e977760de756971f7,65d6bcc8089e753d14451724,0.0719,0.072,1,94,256,90,1,sixfive,,,,,,,,,,,,,,,,,,,,,,,,,,,,,,,,,,,,,,,,,,,,,,,,,,,,,,,,,,,,,,,,,,,,,,,,,,,,,,,,,,,,,,,,,,,,,,,,,,,,,,,,,,,,,,,,,,,,,,,,,,,,,,,,,,,,,,,,,
,,5b91dced1dda7800018d0a5b,2024-02-22_16h18.00.827,kallum_motion_pilot,2023.2.2,Win32,60.24096386,5b91dced1dda7800018d0a5b,65d6bb0e977760de756971f7,65d6bcc8089e753d14451724,0.0721,0.0721,1,95,257,55,1,fourthree,,,,,,,,,,,,,,,,,,,,,,,,,,,,,,,,,,,,,,,,,,,,,,,,,,,,,,,,,,,,,,,,,,,,,,,,,,,,,,,,,,,,,,,,,,,,,,,,,,,,,,,,,,,,,,,,,,,,,,,,,,,,,,,,,,,,,,,,,
,,5b91dced1dda7800018d0a5b,2024-02-22_16h18.00.827,kallum_motion_pilot,2023.2.2,Win32,60.24096386,5b91dced1dda7800018d0a5b,65d6bb0e977760de756971f7,65d6bcc8089e753d14451724,0.0722,0.0723,1,96,258,147,1,sixeight,,,,,,,,,,,,,,,,,,,,,,,,,,,,,,,,,,,,,,,,,,,,,,,,,,,,,,,,,,,,,,,,,,,,,,,,,,,,,,,,,,,,,,,,,,,,,,,,,,,,,,,,,,,,,,,,,,,,,,,,,,,,,,,,,,,,,,,,,
,,5b91dced1dda7800018d0a5b,2024-02-22_16h18.00.827,kallum_motion_pilot,2023.2.2,Win32,60.24096386,5b91dced1dda7800018d0a5b,65d6bb0e977760de756971f7,65d6bcc8089e753d14451724,0.0723,0.0724,1,97,259,76,1,threeone,,,,,,,,,,,,,,,,,,,,,,,,,,,,,,,,,,,,,,,,,,,,,,,,,,,,,,,,,,,,,,,,,,,,,,,,,,,,,,,,,,,,,,,,,,,,,,,,,,,,,,,,,,,,,,,,,,,,,,,,,,,,,,,,,,,,,,,,,
,,5b91dced1dda7800018d0a5b,2024-02-22_16h18.00.827,kallum_motion_pilot,2023.2.2,Win32,60.24096386,5b91dced1dda7800018d0a5b,65d6bb0e977760de756971f7,65d6bcc8089e753d14451724,0.0725,0.0726,1,98,260,13,1,threefour,,,,,,,,,,,,,,,,,,,,,,,,,,,,,,,,,,,,,,,,,,,,,,,,,,,,,,,,,,,,,,,,,,,,,,,,,,,,,,,,,,,,,,,,,,,,,,,,,,,,,,,,,,,,,,,,,,,,,,,,,,,,,,,,,,,,,,,,,
,,5b91dced1dda7800018d0a5b,2024-02-22_16h18.00.827,kallum_motion_pilot,2023.2.2,Win32,60.24096386,5b91dced1dda7800018d0a5b,65d6bb0e977760de756971f7,65d6bcc8089e753d14451724,0.0726,0.0727,1,99,261,9,1,onethree,,,,,,,,,,,,,,,,,,,,,,,,,,,,,,,,,,,,,,,,,,,,,,,,,,,,,,,,,,,,,,,,,,,,,,,,,,,,,,,,,,,,,,,,,,,,,,,,,,,,,,,,,,,,,,,,,,,,,,,,,,,,,,,,,,,,,,,,,
,,5b91dced1dda7800018d0a5b,2024-02-22_16h18.00.827,kallum_motion_pilot,2023.2.2,Win32,60.24096386,5b91dced1dda7800018d0a5b,65d6bb0e977760de756971f7,65d6bcc8089e753d14451724,0.0728,0.0729,1,100,262,85,1,seveneight,,,,,,,,,,,,,,,,,,,,,,,,,,,,,,,,,,,,,,,,,,,,,,,,,,,,,,,,,,,,,,,,,,,,,,,,,,,,,,,,,,,,,,,,,,,,,,,,,,,,,,,,,,,,,,,,,,,,,,,,,,,,,,,,,,,,,,,,,
,,5b91dced1dda7800018d0a5b,2024-02-22_16h18.00.827,kallum_motion_pilot,2023.2.2,Win32,60.24096386,5b91dced1dda7800018d0a5b,65d6bb0e977760de756971f7,65d6bcc8089e753d14451724,0.0729,0.073,1,101,263,24,1,onetwo,,,,,,,,,,,,,,,,,,,,,,,,,,,,,,,,,,,,,,,,,,,,,,,,,,,,,,,,,,,,,,,,,,,,,,,,,,,,,,,,,,,,,,,,,,,,,,,,,,,,,,,,,,,,,,,,,,,,,,,,,,,,,,,,,,,,,,,,,
,,5b91dced1dda7800018d0a5b,2024-02-22_16h18.00.827,kallum_motion_pilot,2023.2.2,Win32,60.24096386,5b91dced1dda7800018d0a5b,65d6bb0e977760de756971f7,65d6bcc8089e753d14451724,0.0732,0.0732,1,102,264,77,1,threefour,,,,,,,,,,,,,,,,,,,,,,,,,,,,,,,,,,,,,,,,,,,,,,,,,,,,,,,,,,,,,,,,,,,,,,,,,,,,,,,,,,,,,,,,,,,,,,,,,,,,,,,,,,,,,,,,,,,,,,,,,,,,,,,,,,,,,,,,,
,,5b91dced1dda7800018d0a5b,2024-02-22_16h18.00.827,kallum_motion_pilot,2023.2.2,Win32,60.24096386,5b91dced1dda7800018d0a5b,65d6bb0e977760de756971f7,65d6bcc8089e753d14451724,0.0733,0.0733,1,103,265,8,1,onetwo,,,,,,,,,,,,,,,,,,,,,,,,,,,,,,,,,,,,,,,,,,,,,,,,,,,,,,,,,,,,,,,,,,,,,,,,,,,,,,,,,,,,,,,,,,,,,,,,,,,,,,,,,,,,,,,,,,,,,,,,,,,,,,,,,,,,,,,,,
,,5b91dced1dda7800018d0a5b,2024-02-22_16h18.00.827,kallum_motion_pilot,2023.2.2,Win32,60.24096386,5b91dced1dda7800018d0a5b,65d6bb0e977760de756971f7,65d6bcc8089e753d14451724,0.0734,0.0735,1,104,266,160,1,fivesix,,,,,,,,,,,,,,,,,,,,,,,,,,,,,,,,,,,,,,,,,,,,,,,,,,,,,,,,,,,,,,,,,,,,,,,,,,,,,,,,,,,,,,,,,,,,,,,,,,,,,,,,,,,,,,,,,,,,,,,,,,,,,,,,,,,,,,,,,
,,5b91dced1dda7800018d0a5b,2024-02-22_16h18.00.827,kallum_motion_pilot,2023.2.2,Win32,60.24096386,5b91dced1dda7800018d0a5b,65d6bb0e977760de756971f7,65d6bcc8089e753d14451724,0.0738,0.0738,1,105,267,48,1,onetwo,,,,,,,,,,,,,,,,,,,,,,,,,,,,,,,,,,,,,,,,,,,,,,,,,,,,,,,,,,,,,,,,,,,,,,,,,,,,,,,,,,,,,,,,,,,,,,,,,,,,,,,,,,,,,,,,,,,,,,,,,,,,,,,,,,,,,,,,,
,,5b91dced1dda7800018d0a5b,2024-02-22_16h18.00.827,kallum_motion_pilot,2023.2.2,Win32,60.24096386,5b91dced1dda7800018d0a5b,65d6bb0e977760de756971f7,65d6bcc8089e753d14451724,0.0739,0.074,1,106,268,135,1,eightseven,,,,,,,,,,,,,,,,,,,,,,,,,,,,,,,,,,,,,,,,,,,,,,,,,,,,,,,,,,,,,,,,,,,,,,,,,,,,,,,,,,,,,,,,,,,,,,,,,,,,,,,,,,,,,,,,,,,,,,,,,,,,,,,,,,,,,,,,,
,,5b91dced1dda7800018d0a5b,2024-02-22_16h18.00.827,kallum_motion_pilot,2023.2.2,Win32,60.24096386,5b91dced1dda7800018d0a5b,65d6bb0e977760de756971f7,65d6bcc8089e753d14451724,0.0742,0.0743,1,107,269,72,1,onetwo,,,,,,,,,,,,,,,,,,,,,,,,,,,,,,,,,,,,,,,,,,,,,,,,,,,,,,,,,,,,,,,,,,,,,,,,,,,,,,,,,,,,,,,,,,,,,,,,,,,,,,,,,,,,,,,,,,,,,,,,,,,,,,,,,,,,,,,,,
,,5b91dced1dda7800018d0a5b,2024-02-22_16h18.00.827,kallum_motion_pilot,2023.2.2,Win32,60.24096386,5b91dced1dda7800018d0a5b,65d6bb0e977760de756971f7,65d6bcc8089e753d14451724,0.0746,0.0747,1,108,270,161,1,fiveseven,,,,,,,,,,,,,,,,,,,,,,,,,,,,,,,,,,,,,,,,,,,,,,,,,,,,,,,,,,,,,,,,,,,,,,,,,,,,,,,,,,,,,,,,,,,,,,,,,,,,,,,,,,,,,,,,,,,,,,,,,,,,,,,,,,,,,,,,,
,,5b91dced1dda7800018d0a5b,2024-02-22_16h18.00.827,kallum_motion_pilot,2023.2.2,Win32,60.24096386,5b91dced1dda7800018d0a5b,65d6bb0e977760de756971f7,65d6bcc8089e753d14451724,0.0749,0.0751,1,109,271,6,1,fourtwo,,,,,,,,,,,,,,,,,,,,,,,,,,,,,,,,,,,,,,,,,,,,,,,,,,,,,,,,,,,,,,,,,,,,,,,,,,,,,,,,,,,,,,,,,,,,,,,,,,,,,,,,,,,,,,,,,,,,,,,,,,,,,,,,,,,,,,,,,
,,5b91dced1dda7800018d0a5b,2024-02-22_16h18.00.827,kallum_motion_pilot,2023.2.2,Win32,60.24096386,5b91dced1dda7800018d0a5b,65d6bb0e977760de756971f7,65d6bcc8089e753d14451724,0.0752,0.0753,1,110,272,150,1,eightsix,,,,,,,,,,,,,,,,,,,,,,,,,,,,,,,,,,,,,,,,,,,,,,,,,,,,,,,,,,,,,,,,,,,,,,,,,,,,,,,,,,,,,,,,,,,,,,,,,,,,,,,,,,,,,,,,,,,,,,,,,,,,,,,,,,,,,,,,,
,,5b91dced1dda7800018d0a5b,2024-02-22_16h18.00.827,kallum_motion_pilot,2023.2.2,Win32,60.24096386,5b91dced1dda7800018d0a5b,65d6bb0e977760de756971f7,65d6bcc8089e753d14451724,0.0754,0.0754,1,111,273,5,1,threefour,,,,,,,,,,,,,,,,,,,,,,,,,,,,,,,,,,,,,,,,,,,,,,,,,,,,,,,,,,,,,,,,,,,,,,,,,,,,,,,,,,,,,,,,,,,,,,,,,,,,,,,,,,,,,,,,,,,,,,,,,,,,,,,,,,,,,,,,,
,,5b91dced1dda7800018d0a5b,2024-02-22_16h18.00.827,kallum_motion_pilot,2023.2.2,Win32,60.24096386,5b91dced1dda7800018d0a5b,65d6bb0e977760de756971f7,65d6bcc8089e753d14451724,0.0754,0.0756,1,112,274,18,1,twoone,,,,,,,,,,,,,,,,,,,,,,,,,,,,,,,,,,,,,,,,,,,,,,,,,,,,,,,,,,,,,,,,,,,,,,,,,,,,,,,,,,,,,,,,,,,,,,,,,,,,,,,,,,,,,,,,,,,,,,,,,,,,,,,,,,,,,,,,,
,,5b91dced1dda7800018d0a5b,2024-02-22_16h18.00.827,kallum_motion_pilot,2023.2.2,Win32,60.24096386,5b91dced1dda7800018d0a5b,65d6bb0e977760de756971f7,65d6bcc8089e753d14451724,0.0757,0.0757,1,113,275,73,1,onethree,,,,,,,,,,,,,,,,,,,,,,,,,,,,,,,,,,,,,,,,,,,,,,,,,,,,,,,,,,,,,,,,,,,,,,,,,,,,,,,,,,,,,,,,,,,,,,,,,,,,,,,,,,,,,,,,,,,,,,,,,,,,,,,,,,,,,,,,,
,,5b91dced1dda7800018d0a5b,2024-02-22_16h18.00.827,kallum_motion_pilot,2023.2.2,Win32,60.24096386,5b91dced1dda7800018d0a5b,65d6bb0e977760de756971f7,65d6bcc8089e753d14451724,0.0758,0.0759,1,114,276,35,1,twofour,,,,,,,,,,,,,,,,,,,,,,,,,,,,,,,,,,,,,,,,,,,,,,,,,,,,,,,,,,,,,,,,,,,,,,,,,,,,,,,,,,,,,,,,,,,,,,,,,,,,,,,,,,,,,,,,,,,,,,,,,,,,,,,,,,,,,,,,,
,,5b91dced1dda7800018d0a5b,2024-02-22_16h18.00.827,kallum_motion_pilot,2023.2.2,Win32,60.24096386,5b91dced1dda7800018d0a5b,65d6bb0e977760de756971f7,65d6bcc8089e753d14451724,0.0761,0.0761,1,115,277,54,1,fourtwo,,,,,,,,,,,,,,,,,,,,,,,,,,,,,,,,,,,,,,,,,,,,,,,,,,,,,,,,,,,,,,,,,,,,,,,,,,,,,,,,,,,,,,,,,,,,,,,,,,,,,,,,,,,,,,,,,,,,,,,,,,,,,,,,,,,,,,,,,
