startup.started,startup.stopped,Prolific ID*,date,expName,psychopyVersion,OS,frameRate,participant,study_id,session,stimpositions.started,stimpositions.stopped,hardcoded_stimulus_positions.thisRepN,hardcoded_stimulus_positions.thisTrialN,hardcoded_stimulus_positions.thisN,hardcoded_stimulus_positions.thisIndex,hardcoded_stimulus_positions.ran,StimulusPos,stimorientation.started,stimorientation.stopped,prac_stimorientation_import_loop.thisRepN,prac_stimorientation_import_loop.thisTrialN,prac_stimorientation_import_loop.thisN,prac_stimorientation_import_loop.thisIndex,prac_stimorientation_import_loop.ran,Stimorientation,welcome_instr.started,welcome_instr.stopped,key_resp.keys,key_resp.rt,key_resp.duration,response_steppedout_1.started,response_steppedout_1.stopped,key_resp_20.keys,key_resp_20.rt,key_resp_20.duration,response_steppedout_2.started,response_steppedout_2.stopped,key_resp_19.keys,key_resp_19.rt,key_resp_19.duration,stim_response_instr.started,stim_response_instr.stopped,key_resp_15.keys,key_resp_15.rt,key_resp_15.duration,direction_instr_2.started,direction_instr_2.stopped,key_resp_9.keys,key_resp_9.rt,key_resp_9.duration,instr_prac.started,instr_prac.stopped,key_resp_10.keys,key_resp_10.rt,key_resp_10.duration,Stim1_display_prac.started,Stim1_display_prac.stopped,Ecc,Circle1_ori,Circle2_ori,response_prac.started,similarity,response_time,response_prac.stopped,mouse_5.x,mouse_5.y,mouse_5.leftButton,mouse_5.midButton,mouse_5.rightButton,mouse_5.clicked_name,responseprac_feedback.started,responseprac_feedback.stopped,summary2_prac.started,summary2_prac.stopped,mouse_6.x,mouse_6.y,mouse_6.leftButton,mouse_6.midButton,mouse_6.rightButton,mouse_6.clicked_name,duringprac.thisRepN,duringprac.thisTrialN,duringprac.thisN,duringprac.thisIndex,duringprac.ran,begin.started,begin.stopped,key_resp_22.keys,key_resp_22.rt,key_resp_22.duration,Stim1_display.started,Stim1_display.stopped,circle1_ori,circle2_ori,circle1_SF,circle2_SF,response.started,response.stopped,mouse.x,mouse.y,mouse.leftButton,mouse.midButton,mouse.rightButton,mouse.clicked_name,trialnumber,double_pass.thisRepN,double_pass.thisTrialN,double_pass.thisN,double_pass.thisIndex,double_pass.ran,double_pass.order,main_trial.thisRepN,main_trial.thisTrialN,main_trial.thisN,main_trial.thisIndex,main_trial.ran,main_trial.order,Trial_Counter,Catch,Frequencies,response_2.started,response_2.stopped,mouse_2.x,mouse_2.y,mouse_2.leftButton,mouse_2.midButton,mouse_2.rightButton,mouse_2.clicked_name,special_trial.started,special_trial.stopped,catch_1.started,catch_1.stopped,mouse_3.x,mouse_3.y,mouse_3.leftButton,mouse_3.midButton,mouse_3.rightButton,catchresponse,catchnumber,response_time_catch,response_sum.started,response_sum.stopped,mouse_11.x,mouse_11.y,mouse_11.leftButton,mouse_11.midButton,mouse_11.rightButton,flip_presentation_sequence_for_double_pass.started,flip_presentation_sequence_for_double_pass.stopped,goodbye.started,goodbye.stopped,key_resp_3.keys,key_resp_3.rt,key_resp_3.duration
0.0005,0.0006,5ba85b3a46de410001ecf951,2024-02-21_21h24.54.555,kallum_motion_pilot,2023.2.2,Win32,60.24096386,5ba85b3a46de410001ecf951,65d6bb0e977760de756971f7,65d6be55893f8acd779ea57c,,,,,,,,,,,,,,,,,,,,,,,,,,,,,,,,,,,,,,,,,,,,,,,,,,,,,,,,,,,,,,,,,,,,,,,,,,,,,,,,,,,,,,,,,,,,,,,,,,,,,,,,,,,,,,,,,,,,,,,,,,,,,,,,,,,,,,,,,,,,,,,,,
,,5ba85b3a46de410001ecf951,2024-02-21_21h24.54.555,kallum_motion_pilot,2023.2.2,Win32,60.24096386,5ba85b3a46de410001ecf951,65d6bb0e977760de756971f7,65d6be55893f8acd779ea57c,0.0215,0.0216,0,0,0,93,1,seveneight,,,,,,,,,,,,,,,,,,,,,,,,,,,,,,,,,,,,,,,,,,,,,,,,,,,,,,,,,,,,,,,,,,,,,,,,,,,,,,,,,,,,,,,,,,,,,,,,,,,,,,,,,,,,,,,,,,,,,,,,,,,,,,,,,,,,,,,,,
,,5ba85b3a46de410001ecf951,2024-02-21_21h24.54.555,kallum_motion_pilot,2023.2.2,Win32,60.24096386,5ba85b3a46de410001ecf951,65d6bb0e977760de756971f7,65d6be55893f8acd779ea57c,0.0218,0.0218,0,1,1,136,1,fivesix,,,,,,,,,,,,,,,,,,,,,,,,,,,,,,,,,,,,,,,,,,,,,,,,,,,,,,,,,,,,,,,,,,,,,,,,,,,,,,,,,,,,,,,,,,,,,,,,,,,,,,,,,,,,,,,,,,,,,,,,,,,,,,,,,,,,,,,,,
,,5ba85b3a46de410001ecf951,2024-02-21_21h24.54.555,kallum_motion_pilot,2023.2.2,Win32,60.24096386,5ba85b3a46de410001ecf951,65d6bb0e977760de756971f7,65d6be55893f8acd779ea57c,0.0219,0.0219,0,2,2,35,1,twofour,,,,,,,,,,,,,,,,,,,,,,,,,,,,,,,,,,,,,,,,,,,,,,,,,,,,,,,,,,,,,,,,,,,,,,,,,,,,,,,,,,,,,,,,,,,,,,,,,,,,,,,,,,,,,,,,,,,,,,,,,,,,,,,,,,,,,,,,,
,,5ba85b3a46de410001ecf951,2024-02-21_21h24.54.555,kallum_motion_pilot,2023.2.2,Win32,60.24096386,5ba85b3a46de410001ecf951,65d6bb0e977760de756971f7,65d6be55893f8acd779ea57c,0.022,0.022,0,3,3,132,1,sevenfive,,,,,,,,,,,,,,,,,,,,,,,,,,,,,,,,,,,,,,,,,,,,,,,,,,,,,,,,,,,,,,,,,,,,,,,,,,,,,,,,,,,,,,,,,,,,,,,,,,,,,,,,,,,,,,,,,,,,,,,,,,,,,,,,,,,,,,,,,
,,5ba85b3a46de410001ecf951,2024-02-21_21h24.54.555,kallum_motion_pilot,2023.2.2,Win32,60.24096386,5ba85b3a46de410001ecf951,65d6bb0e977760de756971f7,65d6be55893f8acd779ea57c,0.0221,0.0221,0,4,4,60,1,threeone,,,,,,,,,,,,,,,,,,,,,,,,,,,,,,,,,,,,,,,,,,,,,,,,,,,,,,,,,,,,,,,,,,,,,,,,,,,,,,,,,,,,,,,,,,,,,,,,,,,,,,,,,,,,,,,,,,,,,,,,,,,,,,,,,,,,,,,,,
,,5ba85b3a46de410001ecf951,2024-02-21_21h24.54.555,kallum_motion_pilot,2023.2.2,Win32,60.24096386,5ba85b3a46de410001ecf951,65d6bb0e977760de756971f7,65d6be55893f8acd779ea57c,0.0223,0.0223,0,5,5,112,1,fivesix,,,,,,,,,,,,,,,,,,,,,,,,,,,,,,,,,,,,,,,,,,,,,,,,,,,,,,,,,,,,,,,,,,,,,,,,,,,,,,,,,,,,,,,,,,,,,,,,,,,,,,,,,,,,,,,,,,,,,,,,,,,,,,,,,,,,,,,,,
,,5ba85b3a46de410001ecf951,2024-02-21_21h24.54.555,kallum_motion_pilot,2023.2.2,Win32,60.24096386,5ba85b3a46de410001ecf951,65d6bb0e977760de756971f7,65d6be55893f8acd779ea57c,0.0223,0.0223,0,6,6,86,1,eightsix,,,,,,,,,,,,,,,,,,,,,,,,,,,,,,,,,,,,,,,,,,,,,,,,,,,,,,,,,,,,,,,,,,,,,,,,,,,,,,,,,,,,,,,,,,,,,,,,,,,,,,,,,,,,,,,,,,,,,,,,,,,,,,,,,,,,,,,,,
,,5ba85b3a46de410001ecf951,2024-02-21_21h24.54.555,kallum_motion_pilot,2023.2.2,Win32,60.24096386,5ba85b3a46de410001ecf951,65d6bb0e977760de756971f7,65d6be55893f8acd779ea57c,0.0224,0.0225,0,7,7,89,1,fiveseven,,,,,,,,,,,,,,,,,,,,,,,,,,,,,,,,,,,,,,,,,,,,,,,,,,,,,,,,,,,,,,,,,,,,,,,,,,,,,,,,,,,,,,,,,,,,,,,,,,,,,,,,,,,,,,,,,,,,,,,,,,,,,,,,,,,,,,,,,
,,5ba85b3a46de410001ecf951,2024-02-21_21h24.54.555,kallum_motion_pilot,2023.2.2,Win32,60.24096386,5ba85b3a46de410001ecf951,65d6bb0e977760de756971f7,65d6be55893f8acd779ea57c,0.0225,0.0225,0,8,8,98,1,sixfive,,,,,,,,,,,,,,,,,,,,,,,,,,,,,,,,,,,,,,,,,,,,,,,,,,,,,,,,,,,,,,,,,,,,,,,,,,,,,,,,,,,,,,,,,,,,,,,,,,,,,,,,,,,,,,,,,,,,,,,,,,,,,,,,,,,,,,,,,
,,5ba85b3a46de410001ecf951,2024-02-21_21h24.54.555,kallum_motion_pilot,2023.2.2,Win32,60.24096386,5ba85b3a46de410001ecf951,65d6bb0e977760de756971f7,65d6be55893f8acd779ea57c,0.0233,0.0234,0,9,9,157,1,seveneight,,,,,,,,,,,,,,,,,,,,,,,,,,,,,,,,,,,,,,,,,,,,,,,,,,,,,,,,,,,,,,,,,,,,,,,,,,,,,,,,,,,,,,,,,,,,,,,,,,,,,,,,,,,,,,,,,,,,,,,,,,,,,,,,,,,,,,,,,
,,5ba85b3a46de410001ecf951,2024-02-21_21h24.54.555,kallum_motion_pilot,2023.2.2,Win32,60.24096386,5ba85b3a46de410001ecf951,65d6bb0e977760de756971f7,65d6be55893f8acd779ea57c,0.0235,0.0235,0,10,10,123,1,sixeight,,,,,,,,,,,,,,,,,,,,,,,,,,,,,,,,,,,,,,,,,,,,,,,,,,,,,,,,,,,,,,,,,,,,,,,,,,,,,,,,,,,,,,,,,,,,,,,,,,,,,,,,,,,,,,,,,,,,,,,,,,,,,,,,,,,,,,,,,
,,5ba85b3a46de410001ecf951,2024-02-21_21h24.54.555,kallum_motion_pilot,2023.2.2,Win32,60.24096386,5ba85b3a46de410001ecf951,65d6bb0e977760de756971f7,65d6be55893f8acd779ea57c,0.0235,0.0235,0,11,11,120,1,fivesix,,,,,,,,,,,,,,,,,,,,,,,,,,,,,,,,,,,,,,,,,,,,,,,,,,,,,,,,,,,,,,,,,,,,,,,,,,,,,,,,,,,,,,,,,,,,,,,,,,,,,,,,,,,,,,,,,,,,,,,,,,,,,,,,,,,,,,,,,
,,5ba85b3a46de410001ecf951,2024-02-21_21h24.54.555,kallum_motion_pilot,2023.2.2,Win32,60.24096386,5ba85b3a46de410001ecf951,65d6bb0e977760de756971f7,65d6be55893f8acd779ea57c,0.0237,0.0237,0,12,12,104,1,fivesix,,,,,,,,,,,,,,,,,,,,,,,,,,,,,,,,,,,,,,,,,,,,,,,,,,,,,,,,,,,,,,,,,,,,,,,,,,,,,,,,,,,,,,,,,,,,,,,,,,,,,,,,,,,,,,,,,,,,,,,,,,,,,,,,,,,,,,,,,
,,5ba85b3a46de410001ecf951,2024-02-21_21h24.54.555,kallum_motion_pilot,2023.2.2,Win32,60.24096386,5ba85b3a46de410001ecf951,65d6bb0e977760de756971f7,65d6be55893f8acd779ea57c,0.0238,0.0238,0,13,13,45,1,threefour,,,,,,,,,,,,,,,,,,,,,,,,,,,,,,,,,,,,,,,,,,,,,,,,,,,,,,,,,,,,,,,,,,,,,,,,,,,,,,,,,,,,,,,,,,,,,,,,,,,,,,,,,,,,,,,,,,,,,,,,,,,,,,,,,,,,,,,,,
,,5ba85b3a46de410001ecf951,2024-02-21_21h24.54.555,kallum_motion_pilot,2023.2.2,Win32,60.24096386,5ba85b3a46de410001ecf951,65d6bb0e977760de756971f7,65d6be55893f8acd779ea57c,0.0238,0.0239,0,14,14,141,1,seveneight,,,,,,,,,,,,,,,,,,,,,,,,,,,,,,,,,,,,,,,,,,,,,,,,,,,,,,,,,,,,,,,,,,,,,,,,,,,,,,,,,,,,,,,,,,,,,,,,,,,,,,,,,,,,,,,,,,,,,,,,,,,,,,,,,,,,,,,,,
,,5ba85b3a46de410001ecf951,2024-02-21_21h24.54.555,kallum_motion_pilot,2023.2.2,Win32,60.24096386,5ba85b3a46de410001ecf951,65d6bb0e977760de756971f7,65d6be55893f8acd779ea57c,0.024,0.024,0,15,15,114,1,sixfive,,,,,,,,,,,,,,,,,,,,,,,,,,,,,,,,,,,,,,,,,,,,,,,,,,,,,,,,,,,,,,,,,,,,,,,,,,,,,,,,,,,,,,,,,,,,,,,,,,,,,,,,,,,,,,,,,,,,,,,,,,,,,,,,,,,,,,,,,
,,5ba85b3a46de410001ecf951,2024-02-21_21h24.54.555,kallum_motion_pilot,2023.2.2,Win32,60.24096386,5ba85b3a46de410001ecf951,65d6bb0e977760de756971f7,65d6be55893f8acd779ea57c,0.024,0.0241,0,16,16,20,1,threeone,,,,,,,,,,,,,,,,,,,,,,,,,,,,,,,,,,,,,,,,,,,,,,,,,,,,,,,,,,,,,,,,,,,,,,,,,,,,,,,,,,,,,,,,,,,,,,,,,,,,,,,,,,,,,,,,,,,,,,,,,,,,,,,,,,,,,,,,,
,,5ba85b3a46de410001ecf951,2024-02-21_21h24.54.555,kallum_motion_pilot,2023.2.2,Win32,60.24096386,5ba85b3a46de410001ecf951,65d6bb0e977760de756971f7,65d6be55893f8acd779ea57c,0.0241,0.0242,0,17,17,70,1,fourtwo,,,,,,,,,,,,,,,,,,,,,,,,,,,,,,,,,,,,,,,,,,,,,,,,,,,,,,,,,,,,,,,,,,,,,,,,,,,,,,,,,,,,,,,,,,,,,,,,,,,,,,,,,,,,,,,,,,,,,,,,,,,,,,,,,,,,,,,,,
,,5ba85b3a46de410001ecf951,2024-02-21_21h24.54.555,kallum_motion_pilot,2023.2.2,Win32,60.24096386,5ba85b3a46de410001ecf951,65d6bb0e977760de756971f7,65d6be55893f8acd779ea57c,0.0242,0.0242,0,18,18,10,1,twoone,,,,,,,,,,,,,,,,,,,,,,,,,,,,,,,,,,,,,,,,,,,,,,,,,,,,,,,,,,,,,,,,,,,,,,,,,,,,,,,,,,,,,,,,,,,,,,,,,,,,,,,,,,,,,,,,,,,,,,,,,,,,,,,,,,,,,,,,,
,,5ba85b3a46de410001ecf951,2024-02-21_21h24.54.555,kallum_motion_pilot,2023.2.2,Win32,60.24096386,5ba85b3a46de410001ecf951,65d6bb0e977760de756971f7,65d6be55893f8acd779ea57c,0.0243,0.0243,0,19,19,44,1,threeone,,,,,,,,,,,,,,,,,,,,,,,,,,,,,,,,,,,,,,,,,,,,,,,,,,,,,,,,,,,,,,,,,,,,,,,,,,,,,,,,,,,,,,,,,,,,,,,,,,,,,,,,,,,,,,,,,,,,,,,,,,,,,,,,,,,,,,,,,
,,5ba85b3a46de410001ecf951,2024-02-21_21h24.54.555,kallum_motion_pilot,2023.2.2,Win32,60.24096386,5ba85b3a46de410001ecf951,65d6bb0e977760de756971f7,65d6be55893f8acd779ea57c,0.0244,0.0244,0,20,20,42,1,twoone,,,,,,,,,,,,,,,,,,,,,,,,,,,,,,,,,,,,,,,,,,,,,,,,,,,,,,,,,,,,,,,,,,,,,,,,,,,,,,,,,,,,,,,,,,,,,,,,,,,,,,,,,,,,,,,,,,,,,,,,,,,,,,,,,,,,,,,,,
,,5ba85b3a46de410001ecf951,2024-02-21_21h24.54.555,kallum_motion_pilot,2023.2.2,Win32,60.24096386,5ba85b3a46de410001ecf951,65d6bb0e977760de756971f7,65d6be55893f8acd779ea57c,0.0245,0.0245,0,21,21,150,1,eightsix,,,,,,,,,,,,,,,,,,,,,,,,,,,,,,,,,,,,,,,,,,,,,,,,,,,,,,,,,,,,,,,,,,,,,,,,,,,,,,,,,,,,,,,,,,,,,,,,,,,,,,,,,,,,,,,,,,,,,,,,,,,,,,,,,,,,,,,,,
,,5ba85b3a46de410001ecf951,2024-02-21_21h24.54.555,kallum_motion_pilot,2023.2.2,Win32,60.24096386,5ba85b3a46de410001ecf951,65d6bb0e977760de756971f7,65d6be55893f8acd779ea57c,0.0246,0.0246,0,22,22,119,1,eightseven,,,,,,,,,,,,,,,,,,,,,,,,,,,,,,,,,,,,,,,,,,,,,,,,,,,,,,,,,,,,,,,,,,,,,,,,,,,,,,,,,,,,,,,,,,,,,,,,,,,,,,,,,,,,,,,,,,,,,,,,,,,,,,,,,,,,,,,,,
,,5ba85b3a46de410001ecf951,2024-02-21_21h24.54.555,kallum_motion_pilot,2023.2.2,Win32,60.24096386,5ba85b3a46de410001ecf951,65d6bb0e977760de756971f7,65d6be55893f8acd779ea57c,0.0246,0.0246,0,23,23,48,1,onetwo,,,,,,,,,,,,,,,,,,,,,,,,,,,,,,,,,,,,,,,,,,,,,,,,,,,,,,,,,,,,,,,,,,,,,,,,,,,,,,,,,,,,,,,,,,,,,,,,,,,,,,,,,,,,,,,,,,,,,,,,,,,,,,,,,,,,,,,,,
,,5ba85b3a46de410001ecf951,2024-02-21_21h24.54.555,kallum_motion_pilot,2023.2.2,Win32,60.24096386,5ba85b3a46de410001ecf951,65d6bb0e977760de756971f7,65d6be55893f8acd779ea57c,0.0248,0.0248,0,24,24,149,1,seveneight,,,,,,,,,,,,,,,,,,,,,,,,,,,,,,,,,,,,,,,,,,,,,,,,,,,,,,,,,,,,,,,,,,,,,,,,,,,,,,,,,,,,,,,,,,,,,,,,,,,,,,,,,,,,,,,,,,,,,,,,,,,,,,,,,,,,,,,,,
,,5ba85b3a46de410001ecf951,2024-02-21_21h24.54.555,kallum_motion_pilot,2023.2.2,Win32,60.24096386,5ba85b3a46de410001ecf951,65d6bb0e977760de756971f7,65d6be55893f8acd779ea57c,0.0248,0.0249,0,25,25,43,1,twofour,,,,,,,,,,,,,,,,,,,,,,,,,,,,,,,,,,,,,,,,,,,,,,,,,,,,,,,,,,,,,,,,,,,,,,,,,,,,,,,,,,,,,,,,,,,,,,,,,,,,,,,,,,,,,,,,,,,,,,,,,,,,,,,,,,,,,,,,,
,,5ba85b3a46de410001ecf951,2024-02-21_21h24.54.555,kallum_motion_pilot,2023.2.2,Win32,60.24096386,5ba85b3a46de410001ecf951,65d6bb0e977760de756971f7,65d6be55893f8acd779ea57c,0.025,0.025,0,26,26,58,1,twoone,,,,,,,,,,,,,,,,,,,,,,,,,,,,,,,,,,,,,,,,,,,,,,,,,,,,,,,,,,,,,,,,,,,,,,,,,,,,,,,,,,,,,,,,,,,,,,,,,,,,,,,,,,,,,,,,,,,,,,,,,,,,,,,,,,,,,,,,,
,,5ba85b3a46de410001ecf951,2024-02-21_21h24.54.555,kallum_motion_pilot,2023.2.2,Win32,60.24096386,5ba85b3a46de410001ecf951,65d6bb0e977760de756971f7,65d6be55893f8acd779ea57c,0.025,0.025,0,27,27,72,1,onetwo,,,,,,,,,,,,,,,,,,,,,,,,,,,,,,,,,,,,,,,,,,,,,,,,,,,,,,,,,,,,,,,,,,,,,,,,,,,,,,,,,,,,,,,,,,,,,,,,,,,,,,,,,,,,,,,,,,,,,,,,,,,,,,,,,,,,,,,,,
,,5ba85b3a46de410001ecf951,2024-02-21_21h24.54.555,kallum_motion_pilot,2023.2.2,Win32,60.24096386,5ba85b3a46de410001ecf951,65d6bb0e977760de756971f7,65d6be55893f8acd779ea57c,0.0251,0.0252,0,28,28,36,1,threeone,,,,,,,,,,,,,,,,,,,,,,,,,,,,,,,,,,,,,,,,,,,,,,,,,,,,,,,,,,,,,,,,,,,,,,,,,,,,,,,,,,,,,,,,,,,,,,,,,,,,,,,,,,,,,,,,,,,,,,,,,,,,,,,,,,,,,,,,,
,,5ba85b3a46de410001ecf951,2024-02-21_21h24.54.555,kallum_motion_pilot,2023.2.2,Win32,60.24096386,5ba85b3a46de410001ecf951,65d6bb0e977760de756971f7,65d6be55893f8acd779ea57c,0.0252,0.0253,0,29,29,49,1,onethree,,,,,,,,,,,,,,,,,,,,,,,,,,,,,,,,,,,,,,,,,,,,,,,,,,,,,,,,,,,,,,,,,,,,,,,,,,,,,,,,,,,,,,,,,,,,,,,,,,,,,,,,,,,,,,,,,,,,,,,,,,,,,,,,,,,,,,,,,
,,5ba85b3a46de410001ecf951,2024-02-21_21h24.54.555,kallum_motion_pilot,2023.2.2,Win32,60.24096386,5ba85b3a46de410001ecf951,65d6bb0e977760de756971f7,65d6be55893f8acd779ea57c,0.0253,0.0254,0,30,30,14,1,fourtwo,,,,,,,,,,,,,,,,,,,,,,,,,,,,,,,,,,,,,,,,,,,,,,,,,,,,,,,,,,,,,,,,,,,,,,,,,,,,,,,,,,,,,,,,,,,,,,,,,,,,,,,,,,,,,,,,,,,,,,,,,,,,,,,,,,,,,,,,,
,,5ba85b3a46de410001ecf951,2024-02-21_21h24.54.555,kallum_motion_pilot,2023.2.2,Win32,60.24096386,5ba85b3a46de410001ecf951,65d6bb0e977760de756971f7,65d6be55893f8acd779ea57c,0.0254,0.0254,0,31,31,154,1,sixfive,,,,,,,,,,,,,,,,,,,,,,,,,,,,,,,,,,,,,,,,,,,,,,,,,,,,,,,,,,,,,,,,,,,,,,,,,,,,,,,,,,,,,,,,,,,,,,,,,,,,,,,,,,,,,,,,,,,,,,,,,,,,,,,,,,,,,,,,,
,,5ba85b3a46de410001ecf951,2024-02-21_21h24.54.555,kallum_motion_pilot,2023.2.2,Win32,60.24096386,5ba85b3a46de410001ecf951,65d6bb0e977760de756971f7,65d6be55893f8acd779ea57c,0.0255,0.0255,0,32,32,94,1,eightsix,,,,,,,,,,,,,,,,,,,,,,,,,,,,,,,,,,,,,,,,,,,,,,,,,,,,,,,,,,,,,,,,,,,,,,,,,,,,,,,,,,,,,,,,,,,,,,,,,,,,,,,,,,,,,,,,,,,,,,,,,,,,,,,,,,,,,,,,,
,,5ba85b3a46de410001ecf951,2024-02-21_21h24.54.555,kallum_motion_pilot,2023.2.2,Win32,60.24096386,5ba85b3a46de410001ecf951,65d6bb0e977760de756971f7,65d6be55893f8acd779ea57c,0.0256,0.0257,0,33,33,99,1,sixeight,,,,,,,,,,,,,,,,,,,,,,,,,,,,,,,,,,,,,,,,,,,,,,,,,,,,,,,,,,,,,,,,,,,,,,,,,,,,,,,,,,,,,,,,,,,,,,,,,,,,,,,,,,,,,,,,,,,,,,,,,,,,,,,,,,,,,,,,,
,,5ba85b3a46de410001ecf951,2024-02-21_21h24.54.555,kallum_motion_pilot,2023.2.2,Win32,60.24096386,5ba85b3a46de410001ecf951,65d6bb0e977760de756971f7,65d6be55893f8acd779ea57c,0.0258,0.0258,0,34,34,85,1,seveneight,,,,,,,,,,,,,,,,,,,,,,,,,,,,,,,,,,,,,,,,,,,,,,,,,,,,,,,,,,,,,,,,,,,,,,,,,,,,,,,,,,,,,,,,,,,,,,,,,,,,,,,,,,,,,,,,,,,,,,,,,,,,,,,,,,,,,,,,,
,,5ba85b3a46de410001ecf951,2024-02-21_21h24.54.555,kallum_motion_pilot,2023.2.2,Win32,60.24096386,5ba85b3a46de410001ecf951,65d6bb0e977760de756971f7,65d6be55893f8acd779ea57c,0.0258,0.0259,0,35,35,11,1,twofour,,,,,,,,,,,,,,,,,,,,,,,,,,,,,,,,,,,,,,,,,,,,,,,,,,,,,,,,,,,,,,,,,,,,,,,,,,,,,,,,,,,,,,,,,,,,,,,,,,,,,,,,,,,,,,,,,,,,,,,,,,,,,,,,,,,,,,,,,
,,5ba85b3a46de410001ecf951,2024-02-21_21h24.54.555,kallum_motion_pilot,2023.2.2,Win32,60.24096386,5ba85b3a46de410001ecf951,65d6bb0e977760de756971f7,65d6be55893f8acd779ea57c,0.0259,0.0259,0,36,36,127,1,eightseven,,,,,,,,,,,,,,,,,,,,,,,,,,,,,,,,,,,,,,,,,,,,,,,,,,,,,,,,,,,,,,,,,,,,,,,,,,,,,,,,,,,,,,,,,,,,,,,,,,,,,,,,,,,,,,,,,,,,,,,,,,,,,,,,,,,,,,,,,
,,5ba85b3a46de410001ecf951,2024-02-21_21h24.54.555,kallum_motion_pilot,2023.2.2,Win32,60.24096386,5ba85b3a46de410001ecf951,65d6bb0e977760de756971f7,65d6be55893f8acd779ea57c,0.0261,0.0261,0,37,37,156,1,sevenfive,,,,,,,,,,,,,,,,,,,,,,,,,,,,,,,,,,,,,,,,,,,,,,,,,,,,,,,,,,,,,,,,,,,,,,,,,,,,,,,,,,,,,,,,,,,,,,,,,,,,,,,,,,,,,,,,,,,,,,,,,,,,,,,,,,,,,,,,,
,,5ba85b3a46de410001ecf951,2024-02-21_21h24.54.555,kallum_motion_pilot,2023.2.2,Win32,60.24096386,5ba85b3a46de410001ecf951,65d6bb0e977760de756971f7,65d6be55893f8acd779ea57c,0.0262,0.0262,0,38,38,117,1,seveneight,,,,,,,,,,,,,,,,,,,,,,,,,,,,,,,,,,,,,,,,,,,,,,,,,,,,,,,,,,,,,,,,,,,,,,,,,,,,,,,,,,,,,,,,,,,,,,,,,,,,,,,,,,,,,,,,,,,,,,,,,,,,,,,,,,,,,,,,,
,,5ba85b3a46de410001ecf951,2024-02-21_21h24.54.555,kallum_motion_pilot,2023.2.2,Win32,60.24096386,5ba85b3a46de410001ecf951,65d6bb0e977760de756971f7,65d6be55893f8acd779ea57c,0.0263,0.0264,0,39,39,105,1,fiveseven,,,,,,,,,,,,,,,,,,,,,,,,,,,,,,,,,,,,,,,,,,,,,,,,,,,,,,,,,,,,,,,,,,,,,,,,,,,,,,,,,,,,,,,,,,,,,,,,,,,,,,,,,,,,,,,,,,,,,,,,,,,,,,,,,,,,,,,,,
,,5ba85b3a46de410001ecf951,2024-02-21_21h24.54.555,kallum_motion_pilot,2023.2.2,Win32,60.24096386,5ba85b3a46de410001ecf951,65d6bb0e977760de756971f7,65d6be55893f8acd779ea57c,0.0264,0.0265,0,40,40,95,1,eightseven,,,,,,,,,,,,,,,,,,,,,,,,,,,,,,,,,,,,,,,,,,,,,,,,,,,,,,,,,,,,,,,,,,,,,,,,,,,,,,,,,,,,,,,,,,,,,,,,,,,,,,,,,,,,,,,,,,,,,,,,,,,,,,,,,,,,,,,,,
,,5ba85b3a46de410001ecf951,2024-02-21_21h24.54.555,kallum_motion_pilot,2023.2.2,Win32,60.24096386,5ba85b3a46de410001ecf951,65d6bb0e977760de756971f7,65d6be55893f8acd779ea57c,0.0265,0.0265,0,41,41,38,1,fourtwo,,,,,,,,,,,,,,,,,,,,,,,,,,,,,,,,,,,,,,,,,,,,,,,,,,,,,,,,,,,,,,,,,,,,,,,,,,,,,,,,,,,,,,,,,,,,,,,,,,,,,,,,,,,,,,,,,,,,,,,,,,,,,,,,,,,,,,,,,
,,5ba85b3a46de410001ecf951,2024-02-21_21h24.54.555,kallum_motion_pilot,2023.2.2,Win32,60.24096386,5ba85b3a46de410001ecf951,65d6bb0e977760de756971f7,65d6be55893f8acd779ea57c,0.0266,0.0266,0,42,42,142,1,eightsix,,,,,,,,,,,,,,,,,,,,,,,,,,,,,,,,,,,,,,,,,,,,,,,,,,,,,,,,,,,,,,,,,,,,,,,,,,,,,,,,,,,,,,,,,,,,,,,,,,,,,,,,,,,,,,,,,,,,,,,,,,,,,,,,,,,,,,,,,
,,5ba85b3a46de410001ecf951,2024-02-21_21h24.54.555,kallum_motion_pilot,2023.2.2,Win32,60.24096386,5ba85b3a46de410001ecf951,65d6bb0e977760de756971f7,65d6be55893f8acd779ea57c,0.0267,0.0267,0,43,43,23,1,fourthree,,,,,,,,,,,,,,,,,,,,,,,,,,,,,,,,,,,,,,,,,,,,,,,,,,,,,,,,,,,,,,,,,,,,,,,,,,,,,,,,,,,,,,,,,,,,,,,,,,,,,,,,,,,,,,,,,,,,,,,,,,,,,,,,,,,,,,,,,
,,5ba85b3a46de410001ecf951,2024-02-21_21h24.54.555,kallum_motion_pilot,2023.2.2,Win32,60.24096386,5ba85b3a46de410001ecf951,65d6bb0e977760de756971f7,65d6be55893f8acd779ea57c,0.0268,0.0268,0,44,44,143,1,eightseven,,,,,,,,,,,,,,,,,,,,,,,,,,,,,,,,,,,,,,,,,,,,,,,,,,,,,,,,,,,,,,,,,,,,,,,,,,,,,,,,,,,,,,,,,,,,,,,,,,,,,,,,,,,,,,,,,,,,,,,,,,,,,,,,,,,,,,,,,
,,5ba85b3a46de410001ecf951,2024-02-21_21h24.54.555,kallum_motion_pilot,2023.2.2,Win32,60.24096386,5ba85b3a46de410001ecf951,65d6bb0e977760de756971f7,65d6be55893f8acd779ea57c,0.0269,0.027,0,45,45,115,1,sixeight,,,,,,,,,,,,,,,,,,,,,,,,,,,,,,,,,,,,,,,,,,,,,,,,,,,,,,,,,,,,,,,,,,,,,,,,,,,,,,,,,,,,,,,,,,,,,,,,,,,,,,,,,,,,,,,,,,,,,,,,,,,,,,,,,,,,,,,,,
,,5ba85b3a46de410001ecf951,2024-02-21_21h24.54.555,kallum_motion_pilot,2023.2.2,Win32,60.24096386,5ba85b3a46de410001ecf951,65d6bb0e977760de756971f7,65d6be55893f8acd779ea57c,0.027,0.027,0,46,46,131,1,sixeight,,,,,,,,,,,,,,,,,,,,,,,,,,,,,,,,,,,,,,,,,,,,,,,,,,,,,,,,,,,,,,,,,,,,,,,,,,,,,,,,,,,,,,,,,,,,,,,,,,,,,,,,,,,,,,,,,,,,,,,,,,,,,,,,,,,,,,,,,
,,5ba85b3a46de410001ecf951,2024-02-21_21h24.54.555,kallum_motion_pilot,2023.2.2,Win32,60.24096386,5ba85b3a46de410001ecf951,65d6bb0e977760de756971f7,65d6be55893f8acd779ea57c,0.0272,0.0272,0,47,47,146,1,sixfive,,,,,,,,,,,,,,,,,,,,,,,,,,,,,,,,,,,,,,,,,,,,,,,,,,,,,,,,,,,,,,,,,,,,,,,,,,,,,,,,,,,,,,,,,,,,,,,,,,,,,,,,,,,,,,,,,,,,,,,,,,,,,,,,,,,,,,,,,
,,5ba85b3a46de410001ecf951,2024-02-21_21h24.54.555,kallum_motion_pilot,2023.2.2,Win32,60.24096386,5ba85b3a46de410001ecf951,65d6bb0e977760de756971f7,65d6be55893f8acd779ea57c,0.0272,0.0272,0,48,48,147,1,sixeight,,,,,,,,,,,,,,,,,,,,,,,,,,,,,,,,,,,,,,,,,,,,,,,,,,,,,,,,,,,,,,,,,,,,,,,,,,,,,,,,,,,,,,,,,,,,,,,,,,,,,,,,,,,,,,,,,,,,,,,,,,,,,,,,,,,,,,,,,
,,5ba85b3a46de410001ecf951,2024-02-21_21h24.54.555,kallum_motion_pilot,2023.2.2,Win32,60.24096386,5ba85b3a46de410001ecf951,65d6bb0e977760de756971f7,65d6be55893f8acd779ea57c,0.0273,0.0273,0,49,49,7,1,fourthree,,,,,,,,,,,,,,,,,,,,,,,,,,,,,,,,,,,,,,,,,,,,,,,,,,,,,,,,,,,,,,,,,,,,,,,,,,,,,,,,,,,,,,,,,,,,,,,,,,,,,,,,,,,,,,,,,,,,,,,,,,,,,,,,,,,,,,,,,
,,5ba85b3a46de410001ecf951,2024-02-21_21h24.54.555,kallum_motion_pilot,2023.2.2,Win32,60.24096386,5ba85b3a46de410001ecf951,65d6bb0e977760de756971f7,65d6be55893f8acd779ea57c,0.0274,0.0275,0,50,50,75,1,twofour,,,,,,,,,,,,,,,,,,,,,,,,,,,,,,,,,,,,,,,,,,,,,,,,,,,,,,,,,,,,,,,,,,,,,,,,,,,,,,,,,,,,,,,,,,,,,,,,,,,,,,,,,,,,,,,,,,,,,,,,,,,,,,,,,,,,,,,,,
,,5ba85b3a46de410001ecf951,2024-02-21_21h24.54.555,kallum_motion_pilot,2023.2.2,Win32,60.24096386,5ba85b3a46de410001ecf951,65d6bb0e977760de756971f7,65d6be55893f8acd779ea57c,0.0275,0.0275,0,51,51,153,1,fiveseven,,,,,,,,,,,,,,,,,,,,,,,,,,,,,,,,,,,,,,,,,,,,,,,,,,,,,,,,,,,,,,,,,,,,,,,,,,,,,,,,,,,,,,,,,,,,,,,,,,,,,,,,,,,,,,,,,,,,,,,,,,,,,,,,,,,,,,,,,
,,5ba85b3a46de410001ecf951,2024-02-21_21h24.54.555,kallum_motion_pilot,2023.2.2,Win32,60.24096386,5ba85b3a46de410001ecf951,65d6bb0e977760de756971f7,65d6be55893f8acd779ea57c,0.0276,0.0276,0,52,52,2,1,twoone,,,,,,,,,,,,,,,,,,,,,,,,,,,,,,,,,,,,,,,,,,,,,,,,,,,,,,,,,,,,,,,,,,,,,,,,,,,,,,,,,,,,,,,,,,,,,,,,,,,,,,,,,,,,,,,,,,,,,,,,,,,,,,,,,,,,,,,,,
,,5ba85b3a46de410001ecf951,2024-02-21_21h24.54.555,kallum_motion_pilot,2023.2.2,Win32,60.24096386,5ba85b3a46de410001ecf951,65d6bb0e977760de756971f7,65d6be55893f8acd779ea57c,0.0277,0.0277,0,53,53,110,1,eightsix,,,,,,,,,,,,,,,,,,,,,,,,,,,,,,,,,,,,,,,,,,,,,,,,,,,,,,,,,,,,,,,,,,,,,,,,,,,,,,,,,,,,,,,,,,,,,,,,,,,,,,,,,,,,,,,,,,,,,,,,,,,,,,,,,,,,,,,,,
,,5ba85b3a46de410001ecf951,2024-02-21_21h24.54.555,kallum_motion_pilot,2023.2.2,Win32,60.24096386,5ba85b3a46de410001ecf951,65d6bb0e977760de756971f7,65d6be55893f8acd779ea57c,0.0278,0.0278,0,54,54,15,1,fourthree,,,,,,,,,,,,,,,,,,,,,,,,,,,,,,,,,,,,,,,,,,,,,,,,,,,,,,,,,,,,,,,,,,,,,,,,,,,,,,,,,,,,,,,,,,,,,,,,,,,,,,,,,,,,,,,,,,,,,,,,,,,,,,,,,,,,,,,,,
,,5ba85b3a46de410001ecf951,2024-02-21_21h24.54.555,kallum_motion_pilot,2023.2.2,Win32,60.24096386,5ba85b3a46de410001ecf951,65d6bb0e977760de756971f7,65d6be55893f8acd779ea57c,0.0279,0.0279,0,55,55,27,1,twofour,,,,,,,,,,,,,,,,,,,,,,,,,,,,,,,,,,,,,,,,,,,,,,,,,,,,,,,,,,,,,,,,,,,,,,,,,,,,,,,,,,,,,,,,,,,,,,,,,,,,,,,,,,,,,,,,,,,,,,,,,,,,,,,,,,,,,,,,,
,,5ba85b3a46de410001ecf951,2024-02-21_21h24.54.555,kallum_motion_pilot,2023.2.2,Win32,60.24096386,5ba85b3a46de410001ecf951,65d6bb0e977760de756971f7,65d6be55893f8acd779ea57c,0.028,0.028,0,56,56,160,1,fivesix,,,,,,,,,,,,,,,,,,,,,,,,,,,,,,,,,,,,,,,,,,,,,,,,,,,,,,,,,,,,,,,,,,,,,,,,,,,,,,,,,,,,,,,,,,,,,,,,,,,,,,,,,,,,,,,,,,,,,,,,,,,,,,,,,,,,,,,,,
,,5ba85b3a46de410001ecf951,2024-02-21_21h24.54.555,kallum_motion_pilot,2023.2.2,Win32,60.24096386,5ba85b3a46de410001ecf951,65d6bb0e977760de756971f7,65d6be55893f8acd779ea57c,0.0281,0.0281,0,57,57,4,1,threeone,,,,,,,,,,,,,,,,,,,,,,,,,,,,,,,,,,,,,,,,,,,,,,,,,,,,,,,,,,,,,,,,,,,,,,,,,,,,,,,,,,,,,,,,,,,,,,,,,,,,,,,,,,,,,,,,,,,,,,,,,,,,,,,,,,,,,,,,,
,,5ba85b3a46de410001ecf951,2024-02-21_21h24.54.555,kallum_motion_pilot,2023.2.2,Win32,60.24096386,5ba85b3a46de410001ecf951,65d6bb0e977760de756971f7,65d6be55893f8acd779ea57c,0.0281,0.0282,0,58,58,83,1,sixeight,,,,,,,,,,,,,,,,,,,,,,,,,,,,,,,,,,,,,,,,,,,,,,,,,,,,,,,,,,,,,,,,,,,,,,,,,,,,,,,,,,,,,,,,,,,,,,,,,,,,,,,,,,,,,,,,,,,,,,,,,,,,,,,,,,,,,,,,,
,,5ba85b3a46de410001ecf951,2024-02-21_21h24.54.555,kallum_motion_pilot,2023.2.2,Win32,60.24096386,5ba85b3a46de410001ecf951,65d6bb0e977760de756971f7,65d6be55893f8acd779ea57c,0.0282,0.0283,0,59,59,74,1,twoone,,,,,,,,,,,,,,,,,,,,,,,,,,,,,,,,,,,,,,,,,,,,,,,,,,,,,,,,,,,,,,,,,,,,,,,,,,,,,,,,,,,,,,,,,,,,,,,,,,,,,,,,,,,,,,,,,,,,,,,,,,,,,,,,,,,,,,,,,
,,5ba85b3a46de410001ecf951,2024-02-21_21h24.54.555,kallum_motion_pilot,2023.2.2,Win32,60.24096386,5ba85b3a46de410001ecf951,65d6bb0e977760de756971f7,65d6be55893f8acd779ea57c,0.0284,0.0284,0,60,60,54,1,fourtwo,,,,,,,,,,,,,,,,,,,,,,,,,,,,,,,,,,,,,,,,,,,,,,,,,,,,,,,,,,,,,,,,,,,,,,,,,,,,,,,,,,,,,,,,,,,,,,,,,,,,,,,,,,,,,,,,,,,,,,,,,,,,,,,,,,,,,,,,,
,,5ba85b3a46de410001ecf951,2024-02-21_21h24.54.555,kallum_motion_pilot,2023.2.2,Win32,60.24096386,5ba85b3a46de410001ecf951,65d6bb0e977760de756971f7,65d6be55893f8acd779ea57c,0.0285,0.0285,0,61,61,57,1,onethree,,,,,,,,,,,,,,,,,,,,,,,,,,,,,,,,,,,,,,,,,,,,,,,,,,,,,,,,,,,,,,,,,,,,,,,,,,,,,,,,,,,,,,,,,,,,,,,,,,,,,,,,,,,,,,,,,,,,,,,,,,,,,,,,,,,,,,,,,
,,5ba85b3a46de410001ecf951,2024-02-21_21h24.54.555,kallum_motion_pilot,2023.2.2,Win32,60.24096386,5ba85b3a46de410001ecf951,65d6bb0e977760de756971f7,65d6be55893f8acd779ea57c,0.0286,0.0286,0,62,62,6,1,fourtwo,,,,,,,,,,,,,,,,,,,,,,,,,,,,,,,,,,,,,,,,,,,,,,,,,,,,,,,,,,,,,,,,,,,,,,,,,,,,,,,,,,,,,,,,,,,,,,,,,,,,,,,,,,,,,,,,,,,,,,,,,,,,,,,,,,,,,,,,,
,,5ba85b3a46de410001ecf951,2024-02-21_21h24.54.555,kallum_motion_pilot,2023.2.2,Win32,60.24096386,5ba85b3a46de410001ecf951,65d6bb0e977760de756971f7,65d6be55893f8acd779ea57c,0.0287,0.0287,0,63,63,47,1,fourthree,,,,,,,,,,,,,,,,,,,,,,,,,,,,,,,,,,,,,,,,,,,,,,,,,,,,,,,,,,,,,,,,,,,,,,,,,,,,,,,,,,,,,,,,,,,,,,,,,,,,,,,,,,,,,,,,,,,,,,,,,,,,,,,,,,,,,,,,,
,,5ba85b3a46de410001ecf951,2024-02-21_21h24.54.555,kallum_motion_pilot,2023.2.2,Win32,60.24096386,5ba85b3a46de410001ecf951,65d6bb0e977760de756971f7,65d6be55893f8acd779ea57c,0.0288,0.0288,0,64,64,148,1,sevenfive,,,,,,,,,,,,,,,,,,,,,,,,,,,,,,,,,,,,,,,,,,,,,,,,,,,,,,,,,,,,,,,,,,,,,,,,,,,,,,,,,,,,,,,,,,,,,,,,,,,,,,,,,,,,,,,,,,,,,,,,,,,,,,,,,,,,,,,,,
,,5ba85b3a46de410001ecf951,2024-02-21_21h24.54.555,kallum_motion_pilot,2023.2.2,Win32,60.24096386,5ba85b3a46de410001ecf951,65d6bb0e977760de756971f7,65d6be55893f8acd779ea57c,0.029,0.0291,0,65,65,56,1,onetwo,,,,,,,,,,,,,,,,,,,,,,,,,,,,,,,,,,,,,,,,,,,,,,,,,,,,,,,,,,,,,,,,,,,,,,,,,,,,,,,,,,,,,,,,,,,,,,,,,,,,,,,,,,,,,,,,,,,,,,,,,,,,,,,,,,,,,,,,,
,,5ba85b3a46de410001ecf951,2024-02-21_21h24.54.555,kallum_motion_pilot,2023.2.2,Win32,60.24096386,5ba85b3a46de410001ecf951,65d6bb0e977760de756971f7,65d6be55893f8acd779ea57c,0.0292,0.0292,0,66,66,30,1,fourtwo,,,,,,,,,,,,,,,,,,,,,,,,,,,,,,,,,,,,,,,,,,,,,,,,,,,,,,,,,,,,,,,,,,,,,,,,,,,,,,,,,,,,,,,,,,,,,,,,,,,,,,,,,,,,,,,,,,,,,,,,,,,,,,,,,,,,,,,,,
,,5ba85b3a46de410001ecf951,2024-02-21_21h24.54.555,kallum_motion_pilot,2023.2.2,Win32,60.24096386,5ba85b3a46de410001ecf951,65d6bb0e977760de756971f7,65d6be55893f8acd779ea57c,0.0294,0.0294,0,67,67,155,1,sixeight,,,,,,,,,,,,,,,,,,,,,,,,,,,,,,,,,,,,,,,,,,,,,,,,,,,,,,,,,,,,,,,,,,,,,,,,,,,,,,,,,,,,,,,,,,,,,,,,,,,,,,,,,,,,,,,,,,,,,,,,,,,,,,,,,,,,,,,,,
,,5ba85b3a46de410001ecf951,2024-02-21_21h24.54.555,kallum_motion_pilot,2023.2.2,Win32,60.24096386,5ba85b3a46de410001ecf951,65d6bb0e977760de756971f7,65d6be55893f8acd779ea57c,0.0295,0.0295,0,68,68,66,1,twoone,,,,,,,,,,,,,,,,,,,,,,,,,,,,,,,,,,,,,,,,,,,,,,,,,,,,,,,,,,,,,,,,,,,,,,,,,,,,,,,,,,,,,,,,,,,,,,,,,,,,,,,,,,,,,,,,,,,,,,,,,,,,,,,,,,,,,,,,,
,,5ba85b3a46de410001ecf951,2024-02-21_21h24.54.555,kallum_motion_pilot,2023.2.2,Win32,60.24096386,5ba85b3a46de410001ecf951,65d6bb0e977760de756971f7,65d6be55893f8acd779ea57c,0.0296,0.0296,0,69,69,80,1,fivesix,,,,,,,,,,,,,,,,,,,,,,,,,,,,,,,,,,,,,,,,,,,,,,,,,,,,,,,,,,,,,,,,,,,,,,,,,,,,,,,,,,,,,,,,,,,,,,,,,,,,,,,,,,,,,,,,,,,,,,,,,,,,,,,,,,,,,,,,,
,,5ba85b3a46de410001ecf951,2024-02-21_21h24.54.555,kallum_motion_pilot,2023.2.2,Win32,60.24096386,5ba85b3a46de410001ecf951,65d6bb0e977760de756971f7,65d6be55893f8acd779ea57c,0.0296,0.0297,0,70,70,19,1,twofour,,,,,,,,,,,,,,,,,,,,,,,,,,,,,,,,,,,,,,,,,,,,,,,,,,,,,,,,,,,,,,,,,,,,,,,,,,,,,,,,,,,,,,,,,,,,,,,,,,,,,,,,,,,,,,,,,,,,,,,,,,,,,,,,,,,,,,,,,
,,5ba85b3a46de410001ecf951,2024-02-21_21h24.54.555,kallum_motion_pilot,2023.2.2,Win32,60.24096386,5ba85b3a46de410001ecf951,65d6bb0e977760de756971f7,65d6be55893f8acd779ea57c,0.0297,0.0298,0,71,71,137,1,fiveseven,,,,,,,,,,,,,,,,,,,,,,,,,,,,,,,,,,,,,,,,,,,,,,,,,,,,,,,,,,,,,,,,,,,,,,,,,,,,,,,,,,,,,,,,,,,,,,,,,,,,,,,,,,,,,,,,,,,,,,,,,,,,,,,,,,,,,,,,,
,,5ba85b3a46de410001ecf951,2024-02-21_21h24.54.555,kallum_motion_pilot,2023.2.2,Win32,60.24096386,5ba85b3a46de410001ecf951,65d6bb0e977760de756971f7,65d6be55893f8acd779ea57c,0.0298,0.0299,0,72,72,40,1,onetwo,,,,,,,,,,,,,,,,,,,,,,,,,,,,,,,,,,,,,,,,,,,,,,,,,,,,,,,,,,,,,,,,,,,,,,,,,,,,,,,,,,,,,,,,,,,,,,,,,,,,,,,,,,,,,,,,,,,,,,,,,,,,,,,,,,,,,,,,,
,,5ba85b3a46de410001ecf951,2024-02-21_21h24.54.555,kallum_motion_pilot,2023.2.2,Win32,60.24096386,5ba85b3a46de410001ecf951,65d6bb0e977760de756971f7,65d6be55893f8acd779ea57c,0.03,0.03,0,73,73,0,1,onetwo,,,,,,,,,,,,,,,,,,,,,,,,,,,,,,,,,,,,,,,,,,,,,,,,,,,,,,,,,,,,,,,,,,,,,,,,,,,,,,,,,,,,,,,,,,,,,,,,,,,,,,,,,,,,,,,,,,,,,,,,,,,,,,,,,,,,,,,,,
,,5ba85b3a46de410001ecf951,2024-02-21_21h24.54.555,kallum_motion_pilot,2023.2.2,Win32,60.24096386,5ba85b3a46de410001ecf951,65d6bb0e977760de756971f7,65d6be55893f8acd779ea57c,0.0301,0.0301,0,74,74,135,1,eightseven,,,,,,,,,,,,,,,,,,,,,,,,,,,,,,,,,,,,,,,,,,,,,,,,,,,,,,,,,,,,,,,,,,,,,,,,,,,,,,,,,,,,,,,,,,,,,,,,,,,,,,,,,,,,,,,,,,,,,,,,,,,,,,,,,,,,,,,,,
,,5ba85b3a46de410001ecf951,2024-02-21_21h24.54.555,kallum_motion_pilot,2023.2.2,Win32,60.24096386,5ba85b3a46de410001ecf951,65d6bb0e977760de756971f7,65d6be55893f8acd779ea57c,0.0302,0.0302,0,75,75,134,1,eightsix,,,,,,,,,,,,,,,,,,,,,,,,,,,,,,,,,,,,,,,,,,,,,,,,,,,,,,,,,,,,,,,,,,,,,,,,,,,,,,,,,,,,,,,,,,,,,,,,,,,,,,,,,,,,,,,,,,,,,,,,,,,,,,,,,,,,,,,,,
,,5ba85b3a46de410001ecf951,2024-02-21_21h24.54.555,kallum_motion_pilot,2023.2.2,Win32,60.24096386,5ba85b3a46de410001ecf951,65d6bb0e977760de756971f7,65d6be55893f8acd779ea57c,0.0303,0.0303,0,76,76,122,1,sixfive,,,,,,,,,,,,,,,,,,,,,,,,,,,,,,,,,,,,,,,,,,,,,,,,,,,,,,,,,,,,,,,,,,,,,,,,,,,,,,,,,,,,,,,,,,,,,,,,,,,,,,,,,,,,,,,,,,,,,,,,,,,,,,,,,,,,,,,,,
,,5ba85b3a46de410001ecf951,2024-02-21_21h24.54.555,kallum_motion_pilot,2023.2.2,Win32,60.24096386,5ba85b3a46de410001ecf951,65d6bb0e977760de756971f7,65d6be55893f8acd779ea57c,0.0304,0.0305,0,77,77,62,1,fourtwo,,,,,,,,,,,,,,,,,,,,,,,,,,,,,,,,,,,,,,,,,,,,,,,,,,,,,,,,,,,,,,,,,,,,,,,,,,,,,,,,,,,,,,,,,,,,,,,,,,,,,,,,,,,,,,,,,,,,,,,,,,,,,,,,,,,,,,,,,
,,5ba85b3a46de410001ecf951,2024-02-21_21h24.54.555,kallum_motion_pilot,2023.2.2,Win32,60.24096386,5ba85b3a46de410001ecf951,65d6bb0e977760de756971f7,65d6be55893f8acd779ea57c,0.0305,0.0306,0,78,78,124,1,sevenfive,,,,,,,,,,,,,,,,,,,,,,,,,,,,,,,,,,,,,,,,,,,,,,,,,,,,,,,,,,,,,,,,,,,,,,,,,,,,,,,,,,,,,,,,,,,,,,,,,,,,,,,,,,,,,,,,,,,,,,,,,,,,,,,,,,,,,,,,,
,,5ba85b3a46de410001ecf951,2024-02-21_21h24.54.555,kallum_motion_pilot,2023.2.2,Win32,60.24096386,5ba85b3a46de410001ecf951,65d6bb0e977760de756971f7,65d6be55893f8acd779ea57c,0.0307,0.0307,0,79,79,67,1,twofour,,,,,,,,,,,,,,,,,,,,,,,,,,,,,,,,,,,,,,,,,,,,,,,,,,,,,,,,,,,,,,,,,,,,,,,,,,,,,,,,,,,,,,,,,,,,,,,,,,,,,,,,,,,,,,,,,,,,,,,,,,,,,,,,,,,,,,,,,
,,5ba85b3a46de410001ecf951,2024-02-21_21h24.54.555,kallum_motion_pilot,2023.2.2,Win32,60.24096386,5ba85b3a46de410001ecf951,65d6bb0e977760de756971f7,65d6be55893f8acd779ea57c,0.0314,0.0314,0,80,80,158,1,eightsix,,,,,,,,,,,,,,,,,,,,,,,,,,,,,,,,,,,,,,,,,,,,,,,,,,,,,,,,,,,,,,,,,,,,,,,,,,,,,,,,,,,,,,,,,,,,,,,,,,,,,,,,,,,,,,,,,,,,,,,,,,,,,,,,,,,,,,,,,
,,5ba85b3a46de410001ecf951,2024-02-21_21h24.54.555,kallum_motion_pilot,2023.2.2,Win32,60.24096386,5ba85b3a46de410001ecf951,65d6bb0e977760de756971f7,65d6be55893f8acd779ea57c,0.0315,0.0315,0,81,81,107,1,sixeight,,,,,,,,,,,,,,,,,,,,,,,,,,,,,,,,,,,,,,,,,,,,,,,,,,,,,,,,,,,,,,,,,,,,,,,,,,,,,,,,,,,,,,,,,,,,,,,,,,,,,,,,,,,,,,,,,,,,,,,,,,,,,,,,,,,,,,,,,
,,5ba85b3a46de410001ecf951,2024-02-21_21h24.54.555,kallum_motion_pilot,2023.2.2,Win32,60.24096386,5ba85b3a46de410001ecf951,65d6bb0e977760de756971f7,65d6be55893f8acd779ea57c,0.0315,0.0315,0,82,82,16,1,onetwo,,,,,,,,,,,,,,,,,,,,,,,,,,,,,,,,,,,,,,,,,,,,,,,,,,,,,,,,,,,,,,,,,,,,,,,,,,,,,,,,,,,,,,,,,,,,,,,,,,,,,,,,,,,,,,,,,,,,,,,,,,,,,,,,,,,,,,,,,
,,5ba85b3a46de410001ecf951,2024-02-21_21h24.54.555,kallum_motion_pilot,2023.2.2,Win32,60.24096386,5ba85b3a46de410001ecf951,65d6bb0e977760de756971f7,65d6be55893f8acd779ea57c,0.0316,0.0317,0,83,83,68,1,threeone,,,,,,,,,,,,,,,,,,,,,,,,,,,,,,,,,,,,,,,,,,,,,,,,,,,,,,,,,,,,,,,,,,,,,,,,,,,,,,,,,,,,,,,,,,,,,,,,,,,,,,,,,,,,,,,,,,,,,,,,,,,,,,,,,,,,,,,,,
,,5ba85b3a46de410001ecf951,2024-02-21_21h24.54.555,kallum_motion_pilot,2023.2.2,Win32,60.24096386,5ba85b3a46de410001ecf951,65d6bb0e977760de756971f7,65d6be55893f8acd779ea57c,0.0317,0.0318,0,84,84,100,1,sevenfive,,,,,,,,,,,,,,,,,,,,,,,,,,,,,,,,,,,,,,,,,,,,,,,,,,,,,,,,,,,,,,,,,,,,,,,,,,,,,,,,,,,,,,,,,,,,,,,,,,,,,,,,,,,,,,,,,,,,,,,,,,,,,,,,,,,,,,,,,
,,5ba85b3a46de410001ecf951,2024-02-21_21h24.54.555,kallum_motion_pilot,2023.2.2,Win32,60.24096386,5ba85b3a46de410001ecf951,65d6bb0e977760de756971f7,65d6be55893f8acd779ea57c,0.0318,0.0319,0,85,85,81,1,fiveseven,,,,,,,,,,,,,,,,,,,,,,,,,,,,,,,,,,,,,,,,,,,,,,,,,,,,,,,,,,,,,,,,,,,,,,,,,,,,,,,,,,,,,,,,,,,,,,,,,,,,,,,,,,,,,,,,,,,,,,,,,,,,,,,,,,,,,,,,,
,,5ba85b3a46de410001ecf951,2024-02-21_21h24.54.555,kallum_motion_pilot,2023.2.2,Win32,60.24096386,5ba85b3a46de410001ecf951,65d6bb0e977760de756971f7,65d6be55893f8acd779ea57c,0.032,0.032,0,86,86,111,1,eightseven,,,,,,,,,,,,,,,,,,,,,,,,,,,,,,,,,,,,,,,,,,,,,,,,,,,,,,,,,,,,,,,,,,,,,,,,,,,,,,,,,,,,,,,,,,,,,,,,,,,,,,,,,,,,,,,,,,,,,,,,,,,,,,,,,,,,,,,,,
,,5ba85b3a46de410001ecf951,2024-02-21_21h24.54.555,kallum_motion_pilot,2023.2.2,Win32,60.24096386,5ba85b3a46de410001ecf951,65d6bb0e977760de756971f7,65d6be55893f8acd779ea57c,0.0321,0.0321,0,87,87,133,1,seveneight,,,,,,,,,,,,,,,,,,,,,,,,,,,,,,,,,,,,,,,,,,,,,,,,,,,,,,,,,,,,,,,,,,,,,,,,,,,,,,,,,,,,,,,,,,,,,,,,,,,,,,,,,,,,,,,,,,,,,,,,,,,,,,,,,,,,,,,,,
,,5ba85b3a46de410001ecf951,2024-02-21_21h24.54.555,kallum_motion_pilot,2023.2.2,Win32,60.24096386,5ba85b3a46de410001ecf951,65d6bb0e977760de756971f7,65d6be55893f8acd779ea57c,0.0322,0.0322,0,88,88,63,1,fourthree,,,,,,,,,,,,,,,,,,,,,,,,,,,,,,,,,,,,,,,,,,,,,,,,,,,,,,,,,,,,,,,,,,,,,,,,,,,,,,,,,,,,,,,,,,,,,,,,,,,,,,,,,,,,,,,,,,,,,,,,,,,,,,,,,,,,,,,,,
,,5ba85b3a46de410001ecf951,2024-02-21_21h24.54.555,kallum_motion_pilot,2023.2.2,Win32,60.24096386,5ba85b3a46de410001ecf951,65d6bb0e977760de756971f7,65d6be55893f8acd779ea57c,0.0323,0.0324,0,89,89,1,1,onethree,,,,,,,,,,,,,,,,,,,,,,,,,,,,,,,,,,,,,,,,,,,,,,,,,,,,,,,,,,,,,,,,,,,,,,,,,,,,,,,,,,,,,,,,,,,,,,,,,,,,,,,,,,,,,,,,,,,,,,,,,,,,,,,,,,,,,,,,,
,,5ba85b3a46de410001ecf951,2024-02-21_21h24.54.555,kallum_motion_pilot,2023.2.2,Win32,60.24096386,5ba85b3a46de410001ecf951,65d6bb0e977760de756971f7,65d6be55893f8acd779ea57c,0.0325,0.0325,0,90,90,39,1,fourthree,,,,,,,,,,,,,,,,,,,,,,,,,,,,,,,,,,,,,,,,,,,,,,,,,,,,,,,,,,,,,,,,,,,,,,,,,,,,,,,,,,,,,,,,,,,,,,,,,,,,,,,,,,,,,,,,,,,,,,,,,,,,,,,,,,,,,,,,,
,,5ba85b3a46de410001ecf951,2024-02-21_21h24.54.555,kallum_motion_pilot,2023.2.2,Win32,60.24096386,5ba85b3a46de410001ecf951,65d6bb0e977760de756971f7,65d6be55893f8acd779ea57c,0.0325,0.0326,0,91,91,88,1,fivesix,,,,,,,,,,,,,,,,,,,,,,,,,,,,,,,,,,,,,,,,,,,,,,,,,,,,,,,,,,,,,,,,,,,,,,,,,,,,,,,,,,,,,,,,,,,,,,,,,,,,,,,,,,,,,,,,,,,,,,,,,,,,,,,,,,,,,,,,,
,,5ba85b3a46de410001ecf951,2024-02-21_21h24.54.555,kallum_motion_pilot,2023.2.2,Win32,60.24096386,5ba85b3a46de410001ecf951,65d6bb0e977760de756971f7,65d6be55893f8acd779ea57c,0.0327,0.0327,0,92,92,77,1,threefour,,,,,,,,,,,,,,,,,,,,,,,,,,,,,,,,,,,,,,,,,,,,,,,,,,,,,,,,,,,,,,,,,,,,,,,,,,,,,,,,,,,,,,,,,,,,,,,,,,,,,,,,,,,,,,,,,,,,,,,,,,,,,,,,,,,,,,,,,
,,5ba85b3a46de410001ecf951,2024-02-21_21h24.54.555,kallum_motion_pilot,2023.2.2,Win32,60.24096386,5ba85b3a46de410001ecf951,65d6bb0e977760de756971f7,65d6be55893f8acd779ea57c,0.0328,0.0328,0,93,93,92,1,sevenfive,,,,,,,,,,,,,,,,,,,,,,,,,,,,,,,,,,,,,,,,,,,,,,,,,,,,,,,,,,,,,,,,,,,,,,,,,,,,,,,,,,,,,,,,,,,,,,,,,,,,,,,,,,,,,,,,,,,,,,,,,,,,,,,,,,,,,,,,,
,,5ba85b3a46de410001ecf951,2024-02-21_21h24.54.555,kallum_motion_pilot,2023.2.2,Win32,60.24096386,5ba85b3a46de410001ecf951,65d6bb0e977760de756971f7,65d6be55893f8acd779ea57c,0.0328,0.0329,0,94,94,109,1,seveneight,,,,,,,,,,,,,,,,,,,,,,,,,,,,,,,,,,,,,,,,,,,,,,,,,,,,,,,,,,,,,,,,,,,,,,,,,,,,,,,,,,,,,,,,,,,,,,,,,,,,,,,,,,,,,,,,,,,,,,,,,,,,,,,,,,,,,,,,,
,,5ba85b3a46de410001ecf951,2024-02-21_21h24.54.555,kallum_motion_pilot,2023.2.2,Win32,60.24096386,5ba85b3a46de410001ecf951,65d6bb0e977760de756971f7,65d6be55893f8acd779ea57c,0.033,0.033,0,95,95,91,1,sixeight,,,,,,,,,,,,,,,,,,,,,,,,,,,,,,,,,,,,,,,,,,,,,,,,,,,,,,,,,,,,,,,,,,,,,,,,,,,,,,,,,,,,,,,,,,,,,,,,,,,,,,,,,,,,,,,,,,,,,,,,,,,,,,,,,,,,,,,,,
,,5ba85b3a46de410001ecf951,2024-02-21_21h24.54.555,kallum_motion_pilot,2023.2.2,Win32,60.24096386,5ba85b3a46de410001ecf951,65d6bb0e977760de756971f7,65d6be55893f8acd779ea57c,0.0331,0.0331,0,96,96,151,1,eightseven,,,,,,,,,,,,,,,,,,,,,,,,,,,,,,,,,,,,,,,,,,,,,,,,,,,,,,,,,,,,,,,,,,,,,,,,,,,,,,,,,,,,,,,,,,,,,,,,,,,,,,,,,,,,,,,,,,,,,,,,,,,,,,,,,,,,,,,,,
,,5ba85b3a46de410001ecf951,2024-02-21_21h24.54.555,kallum_motion_pilot,2023.2.2,Win32,60.24096386,5ba85b3a46de410001ecf951,65d6bb0e977760de756971f7,65d6be55893f8acd779ea57c,0.0332,0.0332,0,97,97,41,1,onethree,,,,,,,,,,,,,,,,,,,,,,,,,,,,,,,,,,,,,,,,,,,,,,,,,,,,,,,,,,,,,,,,,,,,,,,,,,,,,,,,,,,,,,,,,,,,,,,,,,,,,,,,,,,,,,,,,,,,,,,,,,,,,,,,,,,,,,,,,
,,5ba85b3a46de410001ecf951,2024-02-21_21h24.54.555,kallum_motion_pilot,2023.2.2,Win32,60.24096386,5ba85b3a46de410001ecf951,65d6bb0e977760de756971f7,65d6be55893f8acd779ea57c,0.0333,0.0333,0,98,98,8,1,onetwo,,,,,,,,,,,,,,,,,,,,,,,,,,,,,,,,,,,,,,,,,,,,,,,,,,,,,,,,,,,,,,,,,,,,,,,,,,,,,,,,,,,,,,,,,,,,,,,,,,,,,,,,,,,,,,,,,,,,,,,,,,,,,,,,,,,,,,,,,
,,5ba85b3a46de410001ecf951,2024-02-21_21h24.54.555,kallum_motion_pilot,2023.2.2,Win32,60.24096386,5ba85b3a46de410001ecf951,65d6bb0e977760de756971f7,65d6be55893f8acd779ea57c,0.0334,0.0334,0,99,99,118,1,eightsix,,,,,,,,,,,,,,,,,,,,,,,,,,,,,,,,,,,,,,,,,,,,,,,,,,,,,,,,,,,,,,,,,,,,,,,,,,,,,,,,,,,,,,,,,,,,,,,,,,,,,,,,,,,,,,,,,,,,,,,,,,,,,,,,,,,,,,,,,
,,5ba85b3a46de410001ecf951,2024-02-21_21h24.54.555,kallum_motion_pilot,2023.2.2,Win32,60.24096386,5ba85b3a46de410001ecf951,65d6bb0e977760de756971f7,65d6be55893f8acd779ea57c,0.0335,0.0335,0,100,100,84,1,sevenfive,,,,,,,,,,,,,,,,,,,,,,,,,,,,,,,,,,,,,,,,,,,,,,,,,,,,,,,,,,,,,,,,,,,,,,,,,,,,,,,,,,,,,,,,,,,,,,,,,,,,,,,,,,,,,,,,,,,,,,,,,,,,,,,,,,,,,,,,,
,,5ba85b3a46de410001ecf951,2024-02-21_21h24.54.555,kallum_motion_pilot,2023.2.2,Win32,60.24096386,5ba85b3a46de410001ecf951,65d6bb0e977760de756971f7,65d6be55893f8acd779ea57c,0.0336,0.0336,0,101,101,129,1,fiveseven,,,,,,,,,,,,,,,,,,,,,,,,,,,,,,,,,,,,,,,,,,,,,,,,,,,,,,,,,,,,,,,,,,,,,,,,,,,,,,,,,,,,,,,,,,,,,,,,,,,,,,,,,,,,,,,,,,,,,,,,,,,,,,,,,,,,,,,,,
,,5ba85b3a46de410001ecf951,2024-02-21_21h24.54.555,kallum_motion_pilot,2023.2.2,Win32,60.24096386,5ba85b3a46de410001ecf951,65d6bb0e977760de756971f7,65d6be55893f8acd779ea57c,0.0336,0.0337,0,102,102,64,1,onetwo,,,,,,,,,,,,,,,,,,,,,,,,,,,,,,,,,,,,,,,,,,,,,,,,,,,,,,,,,,,,,,,,,,,,,,,,,,,,,,,,,,,,,,,,,,,,,,,,,,,,,,,,,,,,,,,,,,,,,,,,,,,,,,,,,,,,,,,,,
,,5ba85b3a46de410001ecf951,2024-02-21_21h24.54.555,kallum_motion_pilot,2023.2.2,Win32,60.24096386,5ba85b3a46de410001ecf951,65d6bb0e977760de756971f7,65d6be55893f8acd779ea57c,0.0338,0.0338,0,103,103,126,1,eightsix,,,,,,,,,,,,,,,,,,,,,,,,,,,,,,,,,,,,,,,,,,,,,,,,,,,,,,,,,,,,,,,,,,,,,,,,,,,,,,,,,,,,,,,,,,,,,,,,,,,,,,,,,,,,,,,,,,,,,,,,,,,,,,,,,,,,,,,,,
,,5ba85b3a46de410001ecf951,2024-02-21_21h24.54.555,kallum_motion_pilot,2023.2.2,Win32,60.24096386,5ba85b3a46de410001ecf951,65d6bb0e977760de756971f7,65d6be55893f8acd779ea57c,0.0339,0.034,0,104,104,33,1,onethree,,,,,,,,,,,,,,,,,,,,,,,,,,,,,,,,,,,,,,,,,,,,,,,,,,,,,,,,,,,,,,,,,,,,,,,,,,,,,,,,,,,,,,,,,,,,,,,,,,,,,,,,,,,,,,,,,,,,,,,,,,,,,,,,,,,,,,,,,
,,5ba85b3a46de410001ecf951,2024-02-21_21h24.54.555,kallum_motion_pilot,2023.2.2,Win32,60.24096386,5ba85b3a46de410001ecf951,65d6bb0e977760de756971f7,65d6be55893f8acd779ea57c,0.0341,0.0341,0,105,105,139,1,sixeight,,,,,,,,,,,,,,,,,,,,,,,,,,,,,,,,,,,,,,,,,,,,,,,,,,,,,,,,,,,,,,,,,,,,,,,,,,,,,,,,,,,,,,,,,,,,,,,,,,,,,,,,,,,,,,,,,,,,,,,,,,,,,,,,,,,,,,,,,
,,5ba85b3a46de410001ecf951,2024-02-21_21h24.54.555,kallum_motion_pilot,2023.2.2,Win32,60.24096386,5ba85b3a46de410001ecf951,65d6bb0e977760de756971f7,65d6be55893f8acd779ea57c,0.0342,0.0343,0,106,106,28,1,threeone,,,,,,,,,,,,,,,,,,,,,,,,,,,,,,,,,,,,,,,,,,,,,,,,,,,,,,,,,,,,,,,,,,,,,,,,,,,,,,,,,,,,,,,,,,,,,,,,,,,,,,,,,,,,,,,,,,,,,,,,,,,,,,,,,,,,,,,,,
,,5ba85b3a46de410001ecf951,2024-02-21_21h24.54.555,kallum_motion_pilot,2023.2.2,Win32,60.24096386,5ba85b3a46de410001ecf951,65d6bb0e977760de756971f7,65d6be55893f8acd779ea57c,0.0344,0.0344,0,107,107,152,1,fivesix,,,,,,,,,,,,,,,,,,,,,,,,,,,,,,,,,,,,,,,,,,,,,,,,,,,,,,,,,,,,,,,,,,,,,,,,,,,,,,,,,,,,,,,,,,,,,,,,,,,,,,,,,,,,,,,,,,,,,,,,,,,,,,,,,,,,,,,,,
,,5ba85b3a46de410001ecf951,2024-02-21_21h24.54.555,kallum_motion_pilot,2023.2.2,Win32,60.24096386,5ba85b3a46de410001ecf951,65d6bb0e977760de756971f7,65d6be55893f8acd779ea57c,0.0345,0.0345,0,108,108,32,1,onetwo,,,,,,,,,,,,,,,,,,,,,,,,,,,,,,,,,,,,,,,,,,,,,,,,,,,,,,,,,,,,,,,,,,,,,,,,,,,,,,,,,,,,,,,,,,,,,,,,,,,,,,,,,,,,,,,,,,,,,,,,,,,,,,,,,,,,,,,,,
,,5ba85b3a46de410001ecf951,2024-02-21_21h24.54.555,kallum_motion_pilot,2023.2.2,Win32,60.24096386,5ba85b3a46de410001ecf951,65d6bb0e977760de756971f7,65d6be55893f8acd779ea57c,0.0346,0.0346,0,109,109,103,1,eightseven,,,,,,,,,,,,,,,,,,,,,,,,,,,,,,,,,,,,,,,,,,,,,,,,,,,,,,,,,,,,,,,,,,,,,,,,,,,,,,,,,,,,,,,,,,,,,,,,,,,,,,,,,,,,,,,,,,,,,,,,,,,,,,,,,,,,,,,,,
,,5ba85b3a46de410001ecf951,2024-02-21_21h24.54.555,kallum_motion_pilot,2023.2.2,Win32,60.24096386,5ba85b3a46de410001ecf951,65d6bb0e977760de756971f7,65d6be55893f8acd779ea57c,0.0347,0.0347,0,110,110,79,1,eightseven,,,,,,,,,,,,,,,,,,,,,,,,,,,,,,,,,,,,,,,,,,,,,,,,,,,,,,,,,,,,,,,,,,,,,,,,,,,,,,,,,,,,,,,,,,,,,,,,,,,,,,,,,,,,,,,,,,,,,,,,,,,,,,,,,,,,,,,,,
,,5ba85b3a46de410001ecf951,2024-02-21_21h24.54.555,kallum_motion_pilot,2023.2.2,Win32,60.24096386,5ba85b3a46de410001ecf951,65d6bb0e977760de756971f7,65d6be55893f8acd779ea57c,0.0348,0.0349,0,111,111,73,1,onethree,,,,,,,,,,,,,,,,,,,,,,,,,,,,,,,,,,,,,,,,,,,,,,,,,,,,,,,,,,,,,,,,,,,,,,,,,,,,,,,,,,,,,,,,,,,,,,,,,,,,,,,,,,,,,,,,,,,,,,,,,,,,,,,,,,,,,,,,,
,,5ba85b3a46de410001ecf951,2024-02-21_21h24.54.555,kallum_motion_pilot,2023.2.2,Win32,60.24096386,5ba85b3a46de410001ecf951,65d6bb0e977760de756971f7,65d6be55893f8acd779ea57c,0.0349,0.0349,0,112,112,138,1,sixfive,,,,,,,,,,,,,,,,,,,,,,,,,,,,,,,,,,,,,,,,,,,,,,,,,,,,,,,,,,,,,,,,,,,,,,,,,,,,,,,,,,,,,,,,,,,,,,,,,,,,,,,,,,,,,,,,,,,,,,,,,,,,,,,,,,,,,,,,,
,,5ba85b3a46de410001ecf951,2024-02-21_21h24.54.555,kallum_motion_pilot,2023.2.2,Win32,60.24096386,5ba85b3a46de410001ecf951,65d6bb0e977760de756971f7,65d6be55893f8acd779ea57c,0.035,0.035,0,113,113,5,1,threefour,,,,,,,,,,,,,,,,,,,,,,,,,,,,,,,,,,,,,,,,,,,,,,,,,,,,,,,,,,,,,,,,,,,,,,,,,,,,,,,,,,,,,,,,,,,,,,,,,,,,,,,,,,,,,,,,,,,,,,,,,,,,,,,,,,,,,,,,,
,,5ba85b3a46de410001ecf951,2024-02-21_21h24.54.555,kallum_motion_pilot,2023.2.2,Win32,60.24096386,5ba85b3a46de410001ecf951,65d6bb0e977760de756971f7,65d6be55893f8acd779ea57c,0.0351,0.0351,0,114,114,51,1,twofour,,,,,,,,,,,,,,,,,,,,,,,,,,,,,,,,,,,,,,,,,,,,,,,,,,,,,,,,,,,,,,,,,,,,,,,,,,,,,,,,,,,,,,,,,,,,,,,,,,,,,,,,,,,,,,,,,,,,,,,,,,,,,,,,,,,,,,,,,
,,5ba85b3a46de410001ecf951,2024-02-21_21h24.54.555,kallum_motion_pilot,2023.2.2,Win32,60.24096386,5ba85b3a46de410001ecf951,65d6bb0e977760de756971f7,65d6be55893f8acd779ea57c,0.0352,0.0353,0,115,115,50,1,twoone,,,,,,,,,,,,,,,,,,,,,,,,,,,,,,,,,,,,,,,,,,,,,,,,,,,,,,,,,,,,,,,,,,,,,,,,,,,,,,,,,,,,,,,,,,,,,,,,,,,,,,,,,,,,,,,,,,,,,,,,,,,,,,,,,,,,,,,,,
,,5ba85b3a46de410001ecf951,2024-02-21_21h24.54.555,kallum_motion_pilot,2023.2.2,Win32,60.24096386,5ba85b3a46de410001ecf951,65d6bb0e977760de756971f7,65d6be55893f8acd779ea57c,0.0353,0.0354,0,116,116,161,1,fiveseven,,,,,,,,,,,,,,,,,,,,,,,,,,,,,,,,,,,,,,,,,,,,,,,,,,,,,,,,,,,,,,,,,,,,,,,,,,,,,,,,,,,,,,,,,,,,,,,,,,,,,,,,,,,,,,,,,,,,,,,,,,,,,,,,,,,,,,,,,
,,5ba85b3a46de410001ecf951,2024-02-21_21h24.54.555,kallum_motion_pilot,2023.2.2,Win32,60.24096386,5ba85b3a46de410001ecf951,65d6bb0e977760de756971f7,65d6be55893f8acd779ea57c,0.0354,0.0354,0,117,117,13,1,threefour,,,,,,,,,,,,,,,,,,,,,,,,,,,,,,,,,,,,,,,,,,,,,,,,,,,,,,,,,,,,,,,,,,,,,,,,,,,,,,,,,,,,,,,,,,,,,,,,,,,,,,,,,,,,,,,,,,,,,,,,,,,,,,,,,,,,,,,,,
,,5ba85b3a46de410001ecf951,2024-02-21_21h24.54.555,kallum_motion_pilot,2023.2.2,Win32,60.24096386,5ba85b3a46de410001ecf951,65d6bb0e977760de756971f7,65d6be55893f8acd779ea57c,0.0355,0.0356,0,118,118,102,1,eightsix,,,,,,,,,,,,,,,,,,,,,,,,,,,,,,,,,,,,,,,,,,,,,,,,,,,,,,,,,,,,,,,,,,,,,,,,,,,,,,,,,,,,,,,,,,,,,,,,,,,,,,,,,,,,,,,,,,,,,,,,,,,,,,,,,,,,,,,,,
,,5ba85b3a46de410001ecf951,2024-02-21_21h24.54.555,kallum_motion_pilot,2023.2.2,Win32,60.24096386,5ba85b3a46de410001ecf951,65d6bb0e977760de756971f7,65d6be55893f8acd779ea57c,0.0356,0.0356,0,119,119,37,1,threefour,,,,,,,,,,,,,,,,,,,,,,,,,,,,,,,,,,,,,,,,,,,,,,,,,,,,,,,,,,,,,,,,,,,,,,,,,,,,,,,,,,,,,,,,,,,,,,,,,,,,,,,,,,,,,,,,,,,,,,,,,,,,,,,,,,,,,,,,,
,,5ba85b3a46de410001ecf951,2024-02-21_21h24.54.555,kallum_motion_pilot,2023.2.2,Win32,60.24096386,5ba85b3a46de410001ecf951,65d6bb0e977760de756971f7,65d6be55893f8acd779ea57c,0.0357,0.0357,0,120,120,97,1,fiveseven,,,,,,,,,,,,,,,,,,,,,,,,,,,,,,,,,,,,,,,,,,,,,,,,,,,,,,,,,,,,,,,,,,,,,,,,,,,,,,,,,,,,,,,,,,,,,,,,,,,,,,,,,,,,,,,,,,,,,,,,,,,,,,,,,,,,,,,,,
,,5ba85b3a46de410001ecf951,2024-02-21_21h24.54.555,kallum_motion_pilot,2023.2.2,Win32,60.24096386,5ba85b3a46de410001ecf951,65d6bb0e977760de756971f7,65d6be55893f8acd779ea57c,0.0358,0.0358,0,121,121,140,1,sevenfive,,,,,,,,,,,,,,,,,,,,,,,,,,,,,,,,,,,,,,,,,,,,,,,,,,,,,,,,,,,,,,,,,,,,,,,,,,,,,,,,,,,,,,,,,,,,,,,,,,,,,,,,,,,,,,,,,,,,,,,,,,,,,,,,,,,,,,,,,
,,5ba85b3a46de410001ecf951,2024-02-21_21h24.54.555,kallum_motion_pilot,2023.2.2,Win32,60.24096386,5ba85b3a46de410001ecf951,65d6bb0e977760de756971f7,65d6be55893f8acd779ea57c,0.0359,0.036,0,122,122,26,1,twoone,,,,,,,,,,,,,,,,,,,,,,,,,,,,,,,,,,,,,,,,,,,,,,,,,,,,,,,,,,,,,,,,,,,,,,,,,,,,,,,,,,,,,,,,,,,,,,,,,,,,,,,,,,,,,,,,,,,,,,,,,,,,,,,,,,,,,,,,,
,,5ba85b3a46de410001ecf951,2024-02-21_21h24.54.555,kallum_motion_pilot,2023.2.2,Win32,60.24096386,5ba85b3a46de410001ecf951,65d6bb0e977760de756971f7,65d6be55893f8acd779ea57c,0.036,0.0361,0,123,123,24,1,onetwo,,,,,,,,,,,,,,,,,,,,,,,,,,,,,,,,,,,,,,,,,,,,,,,,,,,,,,,,,,,,,,,,,,,,,,,,,,,,,,,,,,,,,,,,,,,,,,,,,,,,,,,,,,,,,,,,,,,,,,,,,,,,,,,,,,,,,,,,,
,,5ba85b3a46de410001ecf951,2024-02-21_21h24.54.555,kallum_motion_pilot,2023.2.2,Win32,60.24096386,5ba85b3a46de410001ecf951,65d6bb0e977760de756971f7,65d6be55893f8acd779ea57c,0.0362,0.0363,0,124,124,9,1,onethree,,,,,,,,,,,,,,,,,,,,,,,,,,,,,,,,,,,,,,,,,,,,,,,,,,,,,,,,,,,,,,,,,,,,,,,,,,,,,,,,,,,,,,,,,,,,,,,,,,,,,,,,,,,,,,,,,,,,,,,,,,,,,,,,,,,,,,,,,
,,5ba85b3a46de410001ecf951,2024-02-21_21h24.54.555,kallum_motion_pilot,2023.2.2,Win32,60.24096386,5ba85b3a46de410001ecf951,65d6bb0e977760de756971f7,65d6be55893f8acd779ea57c,0.0363,0.0364,0,125,125,69,1,threefour,,,,,,,,,,,,,,,,,,,,,,,,,,,,,,,,,,,,,,,,,,,,,,,,,,,,,,,,,,,,,,,,,,,,,,,,,,,,,,,,,,,,,,,,,,,,,,,,,,,,,,,,,,,,,,,,,,,,,,,,,,,,,,,,,,,,,,,,,
,,5ba85b3a46de410001ecf951,2024-02-21_21h24.54.555,kallum_motion_pilot,2023.2.2,Win32,60.24096386,5ba85b3a46de410001ecf951,65d6bb0e977760de756971f7,65d6be55893f8acd779ea57c,0.0364,0.0364,0,126,126,29,1,threefour,,,,,,,,,,,,,,,,,,,,,,,,,,,,,,,,,,,,,,,,,,,,,,,,,,,,,,,,,,,,,,,,,,,,,,,,,,,,,,,,,,,,,,,,,,,,,,,,,,,,,,,,,,,,,,,,,,,,,,,,,,,,,,,,,,,,,,,,,
,,5ba85b3a46de410001ecf951,2024-02-21_21h24.54.555,kallum_motion_pilot,2023.2.2,Win32,60.24096386,5ba85b3a46de410001ecf951,65d6bb0e977760de756971f7,65d6be55893f8acd779ea57c,0.0366,0.0366,0,127,127,21,1,threefour,,,,,,,,,,,,,,,,,,,,,,,,,,,,,,,,,,,,,,,,,,,,,,,,,,,,,,,,,,,,,,,,,,,,,,,,,,,,,,,,,,,,,,,,,,,,,,,,,,,,,,,,,,,,,,,,,,,,,,,,,,,,,,,,,,,,,,,,,
,,5ba85b3a46de410001ecf951,2024-02-21_21h24.54.555,kallum_motion_pilot,2023.2.2,Win32,60.24096386,5ba85b3a46de410001ecf951,65d6bb0e977760de756971f7,65d6be55893f8acd779ea57c,0.0366,0.0367,0,128,128,130,1,sixfive,,,,,,,,,,,,,,,,,,,,,,,,,,,,,,,,,,,,,,,,,,,,,,,,,,,,,,,,,,,,,,,,,,,,,,,,,,,,,,,,,,,,,,,,,,,,,,,,,,,,,,,,,,,,,,,,,,,,,,,,,,,,,,,,,,,,,,,,,
,,5ba85b3a46de410001ecf951,2024-02-21_21h24.54.555,kallum_motion_pilot,2023.2.2,Win32,60.24096386,5ba85b3a46de410001ecf951,65d6bb0e977760de756971f7,65d6be55893f8acd779ea57c,0.0368,0.0368,0,129,129,53,1,threefour,,,,,,,,,,,,,,,,,,,,,,,,,,,,,,,,,,,,,,,,,,,,,,,,,,,,,,,,,,,,,,,,,,,,,,,,,,,,,,,,,,,,,,,,,,,,,,,,,,,,,,,,,,,,,,,,,,,,,,,,,,,,,,,,,,,,,,,,,
,,5ba85b3a46de410001ecf951,2024-02-21_21h24.54.555,kallum_motion_pilot,2023.2.2,Win32,60.24096386,5ba85b3a46de410001ecf951,65d6bb0e977760de756971f7,65d6be55893f8acd779ea57c,0.0369,0.037,0,130,130,3,1,twofour,,,,,,,,,,,,,,,,,,,,,,,,,,,,,,,,,,,,,,,,,,,,,,,,,,,,,,,,,,,,,,,,,,,,,,,,,,,,,,,,,,,,,,,,,,,,,,,,,,,,,,,,,,,,,,,,,,,,,,,,,,,,,,,,,,,,,,,,,
,,5ba85b3a46de410001ecf951,2024-02-21_21h24.54.555,kallum_motion_pilot,2023.2.2,Win32,60.24096386,5ba85b3a46de410001ecf951,65d6bb0e977760de756971f7,65d6be55893f8acd779ea57c,0.037,0.037,0,131,131,22,1,fourtwo,,,,,,,,,,,,,,,,,,,,,,,,,,,,,,,,,,,,,,,,,,,,,,,,,,,,,,,,,,,,,,,,,,,,,,,,,,,,,,,,,,,,,,,,,,,,,,,,,,,,,,,,,,,,,,,,,,,,,,,,,,,,,,,,,,,,,,,,,
,,5ba85b3a46de410001ecf951,2024-02-21_21h24.54.555,kallum_motion_pilot,2023.2.2,Win32,60.24096386,5ba85b3a46de410001ecf951,65d6bb0e977760de756971f7,65d6be55893f8acd779ea57c,0.0371,0.0371,0,132,132,121,1,fiveseven,,,,,,,,,,,,,,,,,,,,,,,,,,,,,,,,,,,,,,,,,,,,,,,,,,,,,,,,,,,,,,,,,,,,,,,,,,,,,,,,,,,,,,,,,,,,,,,,,,,,,,,,,,,,,,,,,,,,,,,,,,,,,,,,,,,,,,,,,
,,5ba85b3a46de410001ecf951,2024-02-21_21h24.54.555,kallum_motion_pilot,2023.2.2,Win32,60.24096386,5ba85b3a46de410001ecf951,65d6bb0e977760de756971f7,65d6be55893f8acd779ea57c,0.0372,0.0372,0,133,133,125,1,seveneight,,,,,,,,,,,,,,,,,,,,,,,,,,,,,,,,,,,,,,,,,,,,,,,,,,,,,,,,,,,,,,,,,,,,,,,,,,,,,,,,,,,,,,,,,,,,,,,,,,,,,,,,,,,,,,,,,,,,,,,,,,,,,,,,,,,,,,,,,
,,5ba85b3a46de410001ecf951,2024-02-21_21h24.54.555,kallum_motion_pilot,2023.2.2,Win32,60.24096386,5ba85b3a46de410001ecf951,65d6bb0e977760de756971f7,65d6be55893f8acd779ea57c,0.0373,0.0374,0,134,134,12,1,threeone,,,,,,,,,,,,,,,,,,,,,,,,,,,,,,,,,,,,,,,,,,,,,,,,,,,,,,,,,,,,,,,,,,,,,,,,,,,,,,,,,,,,,,,,,,,,,,,,,,,,,,,,,,,,,,,,,,,,,,,,,,,,,,,,,,,,,,,,,
,,5ba85b3a46de410001ecf951,2024-02-21_21h24.54.555,kallum_motion_pilot,2023.2.2,Win32,60.24096386,5ba85b3a46de410001ecf951,65d6bb0e977760de756971f7,65d6be55893f8acd779ea57c,0.0375,0.0375,0,135,135,128,1,fivesix,,,,,,,,,,,,,,,,,,,,,,,,,,,,,,,,,,,,,,,,,,,,,,,,,,,,,,,,,,,,,,,,,,,,,,,,,,,,,,,,,,,,,,,,,,,,,,,,,,,,,,,,,,,,,,,,,,,,,,,,,,,,,,,,,,,,,,,,,
,,5ba85b3a46de410001ecf951,2024-02-21_21h24.54.555,kallum_motion_pilot,2023.2.2,Win32,60.24096386,5ba85b3a46de410001ecf951,65d6bb0e977760de756971f7,65d6be55893f8acd779ea57c,0.0375,0.0376,0,136,136,18,1,twoone,,,,,,,,,,,,,,,,,,,,,,,,,,,,,,,,,,,,,,,,,,,,,,,,,,,,,,,,,,,,,,,,,,,,,,,,,,,,,,,,,,,,,,,,,,,,,,,,,,,,,,,,,,,,,,,,,,,,,,,,,,,,,,,,,,,,,,,,,
,,5ba85b3a46de410001ecf951,2024-02-21_21h24.54.555,kallum_motion_pilot,2023.2.2,Win32,60.24096386,5ba85b3a46de410001ecf951,65d6bb0e977760de756971f7,65d6be55893f8acd779ea57c,0.0376,0.0378,0,137,137,59,1,twofour,,,,,,,,,,,,,,,,,,,,,,,,,,,,,,,,,,,,,,,,,,,,,,,,,,,,,,,,,,,,,,,,,,,,,,,,,,,,,,,,,,,,,,,,,,,,,,,,,,,,,,,,,,,,,,,,,,,,,,,,,,,,,,,,,,,,,,,,,
,,5ba85b3a46de410001ecf951,2024-02-21_21h24.54.555,kallum_motion_pilot,2023.2.2,Win32,60.24096386,5ba85b3a46de410001ecf951,65d6bb0e977760de756971f7,65d6be55893f8acd779ea57c,0.0378,0.0379,0,138,138,101,1,seveneight,,,,,,,,,,,,,,,,,,,,,,,,,,,,,,,,,,,,,,,,,,,,,,,,,,,,,,,,,,,,,,,,,,,,,,,,,,,,,,,,,,,,,,,,,,,,,,,,,,,,,,,,,,,,,,,,,,,,,,,,,,,,,,,,,,,,,,,,,
,,5ba85b3a46de410001ecf951,2024-02-21_21h24.54.555,kallum_motion_pilot,2023.2.2,Win32,60.24096386,5ba85b3a46de410001ecf951,65d6bb0e977760de756971f7,65d6be55893f8acd779ea57c,0.038,0.038,0,139,139,116,1,sevenfive,,,,,,,,,,,,,,,,,,,,,,,,,,,,,,,,,,,,,,,,,,,,,,,,,,,,,,,,,,,,,,,,,,,,,,,,,,,,,,,,,,,,,,,,,,,,,,,,,,,,,,,,,,,,,,,,,,,,,,,,,,,,,,,,,,,,,,,,,
,,5ba85b3a46de410001ecf951,2024-02-21_21h24.54.555,kallum_motion_pilot,2023.2.2,Win32,60.24096386,5ba85b3a46de410001ecf951,65d6bb0e977760de756971f7,65d6be55893f8acd779ea57c,0.0381,0.0381,0,140,140,144,1,fivesix,,,,,,,,,,,,,,,,,,,,,,,,,,,,,,,,,,,,,,,,,,,,,,,,,,,,,,,,,,,,,,,,,,,,,,,,,,,,,,,,,,,,,,,,,,,,,,,,,,,,,,,,,,,,,,,,,,,,,,,,,,,,,,,,,,,,,,,,,
,,5ba85b3a46de410001ecf951,2024-02-21_21h24.54.555,kallum_motion_pilot,2023.2.2,Win32,60.24096386,5ba85b3a46de410001ecf951,65d6bb0e977760de756971f7,65d6be55893f8acd779ea57c,0.0382,0.0382,0,141,141,82,1,sixfive,,,,,,,,,,,,,,,,,,,,,,,,,,,,,,,,,,,,,,,,,,,,,,,,,,,,,,,,,,,,,,,,,,,,,,,,,,,,,,,,,,,,,,,,,,,,,,,,,,,,,,,,,,,,,,,,,,,,,,,,,,,,,,,,,,,,,,,,,
,,5ba85b3a46de410001ecf951,2024-02-21_21h24.54.555,kallum_motion_pilot,2023.2.2,Win32,60.24096386,5ba85b3a46de410001ecf951,65d6bb0e977760de756971f7,65d6be55893f8acd779ea57c,0.0382,0.0383,0,142,142,145,1,fiveseven,,,,,,,,,,,,,,,,,,,,,,,,,,,,,,,,,,,,,,,,,,,,,,,,,,,,,,,,,,,,,,,,,,,,,,,,,,,,,,,,,,,,,,,,,,,,,,,,,,,,,,,,,,,,,,,,,,,,,,,,,,,,,,,,,,,,,,,,,
,,5ba85b3a46de410001ecf951,2024-02-21_21h24.54.555,kallum_motion_pilot,2023.2.2,Win32,60.24096386,5ba85b3a46de410001ecf951,65d6bb0e977760de756971f7,65d6be55893f8acd779ea57c,0.0384,0.0385,0,143,143,76,1,threeone,,,,,,,,,,,,,,,,,,,,,,,,,,,,,,,,,,,,,,,,,,,,,,,,,,,,,,,,,,,,,,,,,,,,,,,,,,,,,,,,,,,,,,,,,,,,,,,,,,,,,,,,,,,,,,,,,,,,,,,,,,,,,,,,,,,,,,,,,
,,5ba85b3a46de410001ecf951,2024-02-21_21h24.54.555,kallum_motion_pilot,2023.2.2,Win32,60.24096386,5ba85b3a46de410001ecf951,65d6bb0e977760de756971f7,65d6be55893f8acd779ea57c,0.0385,0.0385,0,144,144,52,1,threeone,,,,,,,,,,,,,,,,,,,,,,,,,,,,,,,,,,,,,,,,,,,,,,,,,,,,,,,,,,,,,,,,,,,,,,,,,,,,,,,,,,,,,,,,,,,,,,,,,,,,,,,,,,,,,,,,,,,,,,,,,,,,,,,,,,,,,,,,,
,,5ba85b3a46de410001ecf951,2024-02-21_21h24.54.555,kallum_motion_pilot,2023.2.2,Win32,60.24096386,5ba85b3a46de410001ecf951,65d6bb0e977760de756971f7,65d6be55893f8acd779ea57c,0.0386,0.0386,0,145,145,108,1,sevenfive,,,,,,,,,,,,,,,,,,,,,,,,,,,,,,,,,,,,,,,,,,,,,,,,,,,,,,,,,,,,,,,,,,,,,,,,,,,,,,,,,,,,,,,,,,,,,,,,,,,,,,,,,,,,,,,,,,,,,,,,,,,,,,,,,,,,,,,,,
,,5ba85b3a46de410001ecf951,2024-02-21_21h24.54.555,kallum_motion_pilot,2023.2.2,Win32,60.24096386,5ba85b3a46de410001ecf951,65d6bb0e977760de756971f7,65d6be55893f8acd779ea57c,0.0387,0.0387,0,146,146,25,1,onethree,,,,,,,,,,,,,,,,,,,,,,,,,,,,,,,,,,,,,,,,,,,,,,,,,,,,,,,,,,,,,,,,,,,,,,,,,,,,,,,,,,,,,,,,,,,,,,,,,,,,,,,,,,,,,,,,,,,,,,,,,,,,,,,,,,,,,,,,,
,,5ba85b3a46de410001ecf951,2024-02-21_21h24.54.555,kallum_motion_pilot,2023.2.2,Win32,60.24096386,5ba85b3a46de410001ecf951,65d6bb0e977760de756971f7,65d6be55893f8acd779ea57c,0.0389,0.0389,0,147,147,87,1,eightseven,,,,,,,,,,,,,,,,,,,,,,,,,,,,,,,,,,,,,,,,,,,,,,,,,,,,,,,,,,,,,,,,,,,,,,,,,,,,,,,,,,,,,,,,,,,,,,,,,,,,,,,,,,,,,,,,,,,,,,,,,,,,,,,,,,,,,,,,,
,,5ba85b3a46de410001ecf951,2024-02-21_21h24.54.555,kallum_motion_pilot,2023.2.2,Win32,60.24096386,5ba85b3a46de410001ecf951,65d6bb0e977760de756971f7,65d6be55893f8acd779ea57c,0.039,0.039,0,148,148,71,1,fourthree,,,,,,,,,,,,,,,,,,,,,,,,,,,,,,,,,,,,,,,,,,,,,,,,,,,,,,,,,,,,,,,,,,,,,,,,,,,,,,,,,,,,,,,,,,,,,,,,,,,,,,,,,,,,,,,,,,,,,,,,,,,,,,,,,,,,,,,,,
,,5ba85b3a46de410001ecf951,2024-02-21_21h24.54.555,kallum_motion_pilot,2023.2.2,Win32,60.24096386,5ba85b3a46de410001ecf951,65d6bb0e977760de756971f7,65d6be55893f8acd779ea57c,0.039,0.0391,0,149,149,159,1,eightseven,,,,,,,,,,,,,,,,,,,,,,,,,,,,,,,,,,,,,,,,,,,,,,,,,,,,,,,,,,,,,,,,,,,,,,,,,,,,,,,,,,,,,,,,,,,,,,,,,,,,,,,,,,,,,,,,,,,,,,,,,,,,,,,,,,,,,,,,,
,,5ba85b3a46de410001ecf951,2024-02-21_21h24.54.555,kallum_motion_pilot,2023.2.2,Win32,60.24096386,5ba85b3a46de410001ecf951,65d6bb0e977760de756971f7,65d6be55893f8acd779ea57c,0.0391,0.0392,0,150,150,31,1,fourthree,,,,,,,,,,,,,,,,,,,,,,,,,,,,,,,,,,,,,,,,,,,,,,,,,,,,,,,,,,,,,,,,,,,,,,,,,,,,,,,,,,,,,,,,,,,,,,,,,,,,,,,,,,,,,,,,,,,,,,,,,,,,,,,,,,,,,,,,,
,,5ba85b3a46de410001ecf951,2024-02-21_21h24.54.555,kallum_motion_pilot,2023.2.2,Win32,60.24096386,5ba85b3a46de410001ecf951,65d6bb0e977760de756971f7,65d6be55893f8acd779ea57c,0.0393,0.0393,0,151,151,61,1,threefour,,,,,,,,,,,,,,,,,,,,,,,,,,,,,,,,,,,,,,,,,,,,,,,,,,,,,,,,,,,,,,,,,,,,,,,,,,,,,,,,,,,,,,,,,,,,,,,,,,,,,,,,,,,,,,,,,,,,,,,,,,,,,,,,,,,,,,,,,
,,5ba85b3a46de410001ecf951,2024-02-21_21h24.54.555,kallum_motion_pilot,2023.2.2,Win32,60.24096386,5ba85b3a46de410001ecf951,65d6bb0e977760de756971f7,65d6be55893f8acd779ea57c,0.0394,0.0395,0,152,152,46,1,fourtwo,,,,,,,,,,,,,,,,,,,,,,,,,,,,,,,,,,,,,,,,,,,,,,,,,,,,,,,,,,,,,,,,,,,,,,,,,,,,,,,,,,,,,,,,,,,,,,,,,,,,,,,,,,,,,,,,,,,,,,,,,,,,,,,,,,,,,,,,,
,,5ba85b3a46de410001ecf951,2024-02-21_21h24.54.555,kallum_motion_pilot,2023.2.2,Win32,60.24096386,5ba85b3a46de410001ecf951,65d6bb0e977760de756971f7,65d6be55893f8acd779ea57c,0.0395,0.0395,0,153,153,65,1,onethree,,,,,,,,,,,,,,,,,,,,,,,,,,,,,,,,,,,,,,,,,,,,,,,,,,,,,,,,,,,,,,,,,,,,,,,,,,,,,,,,,,,,,,,,,,,,,,,,,,,,,,,,,,,,,,,,,,,,,,,,,,,,,,,,,,,,,,,,,
,,5ba85b3a46de410001ecf951,2024-02-21_21h24.54.555,kallum_motion_pilot,2023.2.2,Win32,60.24096386,5ba85b3a46de410001ecf951,65d6bb0e977760de756971f7,65d6be55893f8acd779ea57c,0.0396,0.0396,0,154,154,106,1,sixfive,,,,,,,,,,,,,,,,,,,,,,,,,,,,,,,,,,,,,,,,,,,,,,,,,,,,,,,,,,,,,,,,,,,,,,,,,,,,,,,,,,,,,,,,,,,,,,,,,,,,,,,,,,,,,,,,,,,,,,,,,,,,,,,,,,,,,,,,,
,,5ba85b3a46de410001ecf951,2024-02-21_21h24.54.555,kallum_motion_pilot,2023.2.2,Win32,60.24096386,5ba85b3a46de410001ecf951,65d6bb0e977760de756971f7,65d6be55893f8acd779ea57c,0.0398,0.0398,0,155,155,17,1,onethree,,,,,,,,,,,,,,,,,,,,,,,,,,,,,,,,,,,,,,,,,,,,,,,,,,,,,,,,,,,,,,,,,,,,,,,,,,,,,,,,,,,,,,,,,,,,,,,,,,,,,,,,,,,,,,,,,,,,,,,,,,,,,,,,,,,,,,,,,
,,5ba85b3a46de410001ecf951,2024-02-21_21h24.54.555,kallum_motion_pilot,2023.2.2,Win32,60.24096386,5ba85b3a46de410001ecf951,65d6bb0e977760de756971f7,65d6be55893f8acd779ea57c,0.0398,0.0399,0,156,156,90,1,sixfive,,,,,,,,,,,,,,,,,,,,,,,,,,,,,,,,,,,,,,,,,,,,,,,,,,,,,,,,,,,,,,,,,,,,,,,,,,,,,,,,,,,,,,,,,,,,,,,,,,,,,,,,,,,,,,,,,,,,,,,,,,,,,,,,,,,,,,,,,
,,5ba85b3a46de410001ecf951,2024-02-21_21h24.54.555,kallum_motion_pilot,2023.2.2,Win32,60.24096386,5ba85b3a46de410001ecf951,65d6bb0e977760de756971f7,65d6be55893f8acd779ea57c,0.04,0.04,0,157,157,55,1,fourthree,,,,,,,,,,,,,,,,,,,,,,,,,,,,,,,,,,,,,,,,,,,,,,,,,,,,,,,,,,,,,,,,,,,,,,,,,,,,,,,,,,,,,,,,,,,,,,,,,,,,,,,,,,,,,,,,,,,,,,,,,,,,,,,,,,,,,,,,,
,,5ba85b3a46de410001ecf951,2024-02-21_21h24.54.555,kallum_motion_pilot,2023.2.2,Win32,60.24096386,5ba85b3a46de410001ecf951,65d6bb0e977760de756971f7,65d6be55893f8acd779ea57c,0.0401,0.0401,0,158,158,113,1,fiveseven,,,,,,,,,,,,,,,,,,,,,,,,,,,,,,,,,,,,,,,,,,,,,,,,,,,,,,,,,,,,,,,,,,,,,,,,,,,,,,,,,,,,,,,,,,,,,,,,,,,,,,,,,,,,,,,,,,,,,,,,,,,,,,,,,,,,,,,,,
,,5ba85b3a46de410001ecf951,2024-02-21_21h24.54.555,kallum_motion_pilot,2023.2.2,Win32,60.24096386,5ba85b3a46de410001ecf951,65d6bb0e977760de756971f7,65d6be55893f8acd779ea57c,0.0402,0.0402,0,159,159,96,1,fivesix,,,,,,,,,,,,,,,,,,,,,,,,,,,,,,,,,,,,,,,,,,,,,,,,,,,,,,,,,,,,,,,,,,,,,,,,,,,,,,,,,,,,,,,,,,,,,,,,,,,,,,,,,,,,,,,,,,,,,,,,,,,,,,,,,,,,,,,,,
,,5ba85b3a46de410001ecf951,2024-02-21_21h24.54.555,kallum_motion_pilot,2023.2.2,Win32,60.24096386,5ba85b3a46de410001ecf951,65d6bb0e977760de756971f7,65d6be55893f8acd779ea57c,0.0403,0.0404,0,160,160,34,1,twoone,,,,,,,,,,,,,,,,,,,,,,,,,,,,,,,,,,,,,,,,,,,,,,,,,,,,,,,,,,,,,,,,,,,,,,,,,,,,,,,,,,,,,,,,,,,,,,,,,,,,,,,,,,,,,,,,,,,,,,,,,,,,,,,,,,,,,,,,,
,,5ba85b3a46de410001ecf951,2024-02-21_21h24.54.555,kallum_motion_pilot,2023.2.2,Win32,60.24096386,5ba85b3a46de410001ecf951,65d6bb0e977760de756971f7,65d6be55893f8acd779ea57c,0.0404,0.0404,0,161,161,78,1,fourtwo,,,,,,,,,,,,,,,,,,,,,,,,,,,,,,,,,,,,,,,,,,,,,,,,,,,,,,,,,,,,,,,,,,,,,,,,,,,,,,,,,,,,,,,,,,,,,,,,,,,,,,,,,,,,,,,,,,,,,,,,,,,,,,,,,,,,,,,,,
,,5ba85b3a46de410001ecf951,2024-02-21_21h24.54.555,kallum_motion_pilot,2023.2.2,Win32,60.24096386,5ba85b3a46de410001ecf951,65d6bb0e977760de756971f7,65d6be55893f8acd779ea57c,0.0405,0.0405,1,0,162,0,1,onetwo,,,,,,,,,,,,,,,,,,,,,,,,,,,,,,,,,,,,,,,,,,,,,,,,,,,,,,,,,,,,,,,,,,,,,,,,,,,,,,,,,,,,,,,,,,,,,,,,,,,,,,,,,,,,,,,,,,,,,,,,,,,,,,,,,,,,,,,,,
,,5ba85b3a46de410001ecf951,2024-02-21_21h24.54.555,kallum_motion_pilot,2023.2.2,Win32,60.24096386,5ba85b3a46de410001ecf951,65d6bb0e977760de756971f7,65d6be55893f8acd779ea57c,0.0407,0.0407,1,1,163,71,1,fourthree,,,,,,,,,,,,,,,,,,,,,,,,,,,,,,,,,,,,,,,,,,,,,,,,,,,,,,,,,,,,,,,,,,,,,,,,,,,,,,,,,,,,,,,,,,,,,,,,,,,,,,,,,,,,,,,,,,,,,,,,,,,,,,,,,,,,,,,,,
,,5ba85b3a46de410001ecf951,2024-02-21_21h24.54.555,kallum_motion_pilot,2023.2.2,Win32,60.24096386,5ba85b3a46de410001ecf951,65d6bb0e977760de756971f7,65d6be55893f8acd779ea57c,0.0407,0.0409,1,2,164,91,1,sixeight,,,,,,,,,,,,,,,,,,,,,,,,,,,,,,,,,,,,,,,,,,,,,,,,,,,,,,,,,,,,,,,,,,,,,,,,,,,,,,,,,,,,,,,,,,,,,,,,,,,,,,,,,,,,,,,,,,,,,,,,,,,,,,,,,,,,,,,,,
,,5ba85b3a46de410001ecf951,2024-02-21_21h24.54.555,kallum_motion_pilot,2023.2.2,Win32,60.24096386,5ba85b3a46de410001ecf951,65d6bb0e977760de756971f7,65d6be55893f8acd779ea57c,0.0409,0.0409,1,3,165,8,1,onetwo,,,,,,,,,,,,,,,,,,,,,,,,,,,,,,,,,,,,,,,,,,,,,,,,,,,,,,,,,,,,,,,,,,,,,,,,,,,,,,,,,,,,,,,,,,,,,,,,,,,,,,,,,,,,,,,,,,,,,,,,,,,,,,,,,,,,,,,,,
,,5ba85b3a46de410001ecf951,2024-02-21_21h24.54.555,kallum_motion_pilot,2023.2.2,Win32,60.24096386,5ba85b3a46de410001ecf951,65d6bb0e977760de756971f7,65d6be55893f8acd779ea57c,0.041,0.0411,1,4,166,19,1,twofour,,,,,,,,,,,,,,,,,,,,,,,,,,,,,,,,,,,,,,,,,,,,,,,,,,,,,,,,,,,,,,,,,,,,,,,,,,,,,,,,,,,,,,,,,,,,,,,,,,,,,,,,,,,,,,,,,,,,,,,,,,,,,,,,,,,,,,,,,
,,5ba85b3a46de410001ecf951,2024-02-21_21h24.54.555,kallum_motion_pilot,2023.2.2,Win32,60.24096386,5ba85b3a46de410001ecf951,65d6bb0e977760de756971f7,65d6be55893f8acd779ea57c,0.0411,0.0412,1,5,167,105,1,fiveseven,,,,,,,,,,,,,,,,,,,,,,,,,,,,,,,,,,,,,,,,,,,,,,,,,,,,,,,,,,,,,,,,,,,,,,,,,,,,,,,,,,,,,,,,,,,,,,,,,,,,,,,,,,,,,,,,,,,,,,,,,,,,,,,,,,,,,,,,,
,,5ba85b3a46de410001ecf951,2024-02-21_21h24.54.555,kallum_motion_pilot,2023.2.2,Win32,60.24096386,5ba85b3a46de410001ecf951,65d6bb0e977760de756971f7,65d6be55893f8acd779ea57c,0.0413,0.0413,1,6,168,96,1,fivesix,,,,,,,,,,,,,,,,,,,,,,,,,,,,,,,,,,,,,,,,,,,,,,,,,,,,,,,,,,,,,,,,,,,,,,,,,,,,,,,,,,,,,,,,,,,,,,,,,,,,,,,,,,,,,,,,,,,,,,,,,,,,,,,,,,,,,,,,,
,,5ba85b3a46de410001ecf951,2024-02-21_21h24.54.555,kallum_motion_pilot,2023.2.2,Win32,60.24096386,5ba85b3a46de410001ecf951,65d6bb0e977760de756971f7,65d6be55893f8acd779ea57c,0.0414,0.0415,1,7,169,39,1,fourthree,,,,,,,,,,,,,,,,,,,,,,,,,,,,,,,,,,,,,,,,,,,,,,,,,,,,,,,,,,,,,,,,,,,,,,,,,,,,,,,,,,,,,,,,,,,,,,,,,,,,,,,,,,,,,,,,,,,,,,,,,,,,,,,,,,,,,,,,,
,,5ba85b3a46de410001ecf951,2024-02-21_21h24.54.555,kallum_motion_pilot,2023.2.2,Win32,60.24096386,5ba85b3a46de410001ecf951,65d6bb0e977760de756971f7,65d6be55893f8acd779ea57c,0.0415,0.0416,1,8,170,63,1,fourthree,,,,,,,,,,,,,,,,,,,,,,,,,,,,,,,,,,,,,,,,,,,,,,,,,,,,,,,,,,,,,,,,,,,,,,,,,,,,,,,,,,,,,,,,,,,,,,,,,,,,,,,,,,,,,,,,,,,,,,,,,,,,,,,,,,,,,,,,,
,,5ba85b3a46de410001ecf951,2024-02-21_21h24.54.555,kallum_motion_pilot,2023.2.2,Win32,60.24096386,5ba85b3a46de410001ecf951,65d6bb0e977760de756971f7,65d6be55893f8acd779ea57c,0.0416,0.0417,1,9,171,36,1,threeone,,,,,,,,,,,,,,,,,,,,,,,,,,,,,,,,,,,,,,,,,,,,,,,,,,,,,,,,,,,,,,,,,,,,,,,,,,,,,,,,,,,,,,,,,,,,,,,,,,,,,,,,,,,,,,,,,,,,,,,,,,,,,,,,,,,,,,,,,
,,5ba85b3a46de410001ecf951,2024-02-21_21h24.54.555,kallum_motion_pilot,2023.2.2,Win32,60.24096386,5ba85b3a46de410001ecf951,65d6bb0e977760de756971f7,65d6be55893f8acd779ea57c,0.0418,0.0418,1,10,172,143,1,eightseven,,,,,,,,,,,,,,,,,,,,,,,,,,,,,,,,,,,,,,,,,,,,,,,,,,,,,,,,,,,,,,,,,,,,,,,,,,,,,,,,,,,,,,,,,,,,,,,,,,,,,,,,,,,,,,,,,,,,,,,,,,,,,,,,,,,,,,,,,
,,5ba85b3a46de410001ecf951,2024-02-21_21h24.54.555,kallum_motion_pilot,2023.2.2,Win32,60.24096386,5ba85b3a46de410001ecf951,65d6bb0e977760de756971f7,65d6be55893f8acd779ea57c,0.0419,0.042,1,11,173,41,1,onethree,,,,,,,,,,,,,,,,,,,,,,,,,,,,,,,,,,,,,,,,,,,,,,,,,,,,,,,,,,,,,,,,,,,,,,,,,,,,,,,,,,,,,,,,,,,,,,,,,,,,,,,,,,,,,,,,,,,,,,,,,,,,,,,,,,,,,,,,,
,,5ba85b3a46de410001ecf951,2024-02-21_21h24.54.555,kallum_motion_pilot,2023.2.2,Win32,60.24096386,5ba85b3a46de410001ecf951,65d6bb0e977760de756971f7,65d6be55893f8acd779ea57c,0.042,0.0421,1,12,174,60,1,threeone,,,,,,,,,,,,,,,,,,,,,,,,,,,,,,,,,,,,,,,,,,,,,,,,,,,,,,,,,,,,,,,,,,,,,,,,,,,,,,,,,,,,,,,,,,,,,,,,,,,,,,,,,,,,,,,,,,,,,,,,,,,,,,,,,,,,,,,,,
,,5ba85b3a46de410001ecf951,2024-02-21_21h24.54.555,kallum_motion_pilot,2023.2.2,Win32,60.24096386,5ba85b3a46de410001ecf951,65d6bb0e977760de756971f7,65d6be55893f8acd779ea57c,0.0421,0.0422,1,13,175,68,1,threeone,,,,,,,,,,,,,,,,,,,,,,,,,,,,,,,,,,,,,,,,,,,,,,,,,,,,,,,,,,,,,,,,,,,,,,,,,,,,,,,,,,,,,,,,,,,,,,,,,,,,,,,,,,,,,,,,,,,,,,,,,,,,,,,,,,,,,,,,,
,,5ba85b3a46de410001ecf951,2024-02-21_21h24.54.555,kallum_motion_pilot,2023.2.2,Win32,60.24096386,5ba85b3a46de410001ecf951,65d6bb0e977760de756971f7,65d6be55893f8acd779ea57c,0.0423,0.0423,1,14,176,99,1,sixeight,,,,,,,,,,,,,,,,,,,,,,,,,,,,,,,,,,,,,,,,,,,,,,,,,,,,,,,,,,,,,,,,,,,,,,,,,,,,,,,,,,,,,,,,,,,,,,,,,,,,,,,,,,,,,,,,,,,,,,,,,,,,,,,,,,,,,,,,,
,,5ba85b3a46de410001ecf951,2024-02-21_21h24.54.555,kallum_motion_pilot,2023.2.2,Win32,60.24096386,5ba85b3a46de410001ecf951,65d6bb0e977760de756971f7,65d6be55893f8acd779ea57c,0.0424,0.0424,1,15,177,78,1,fourtwo,,,,,,,,,,,,,,,,,,,,,,,,,,,,,,,,,,,,,,,,,,,,,,,,,,,,,,,,,,,,,,,,,,,,,,,,,,,,,,,,,,,,,,,,,,,,,,,,,,,,,,,,,,,,,,,,,,,,,,,,,,,,,,,,,,,,,,,,,
,,5ba85b3a46de410001ecf951,2024-02-21_21h24.54.555,kallum_motion_pilot,2023.2.2,Win32,60.24096386,5ba85b3a46de410001ecf951,65d6bb0e977760de756971f7,65d6be55893f8acd779ea57c,0.0425,0.0425,1,16,178,126,1,eightsix,,,,,,,,,,,,,,,,,,,,,,,,,,,,,,,,,,,,,,,,,,,,,,,,,,,,,,,,,,,,,,,,,,,,,,,,,,,,,,,,,,,,,,,,,,,,,,,,,,,,,,,,,,,,,,,,,,,,,,,,,,,,,,,,,,,,,,,,,
,,5ba85b3a46de410001ecf951,2024-02-21_21h24.54.555,kallum_motion_pilot,2023.2.2,Win32,60.24096386,5ba85b3a46de410001ecf951,65d6bb0e977760de756971f7,65d6be55893f8acd779ea57c,0.0427,0.0427,1,17,179,62,1,fourtwo,,,,,,,,,,,,,,,,,,,,,,,,,,,,,,,,,,,,,,,,,,,,,,,,,,,,,,,,,,,,,,,,,,,,,,,,,,,,,,,,,,,,,,,,,,,,,,,,,,,,,,,,,,,,,,,,,,,,,,,,,,,,,,,,,,,,,,,,,
,,5ba85b3a46de410001ecf951,2024-02-21_21h24.54.555,kallum_motion_pilot,2023.2.2,Win32,60.24096386,5ba85b3a46de410001ecf951,65d6bb0e977760de756971f7,65d6be55893f8acd779ea57c,0.0427,0.0428,1,18,180,14,1,fourtwo,,,,,,,,,,,,,,,,,,,,,,,,,,,,,,,,,,,,,,,,,,,,,,,,,,,,,,,,,,,,,,,,,,,,,,,,,,,,,,,,,,,,,,,,,,,,,,,,,,,,,,,,,,,,,,,,,,,,,,,,,,,,,,,,,,,,,,,,,
,,5ba85b3a46de410001ecf951,2024-02-21_21h24.54.555,kallum_motion_pilot,2023.2.2,Win32,60.24096386,5ba85b3a46de410001ecf951,65d6bb0e977760de756971f7,65d6be55893f8acd779ea57c,0.0432,0.0433,1,19,181,146,1,sixfive,,,,,,,,,,,,,,,,,,,,,,,,,,,,,,,,,,,,,,,,,,,,,,,,,,,,,,,,,,,,,,,,,,,,,,,,,,,,,,,,,,,,,,,,,,,,,,,,,,,,,,,,,,,,,,,,,,,,,,,,,,,,,,,,,,,,,,,,,
,,5ba85b3a46de410001ecf951,2024-02-21_21h24.54.555,kallum_motion_pilot,2023.2.2,Win32,60.24096386,5ba85b3a46de410001ecf951,65d6bb0e977760de756971f7,65d6be55893f8acd779ea57c,0.0434,0.0435,1,20,182,55,1,fourthree,,,,,,,,,,,,,,,,,,,,,,,,,,,,,,,,,,,,,,,,,,,,,,,,,,,,,,,,,,,,,,,,,,,,,,,,,,,,,,,,,,,,,,,,,,,,,,,,,,,,,,,,,,,,,,,,,,,,,,,,,,,,,,,,,,,,,,,,,
,,5ba85b3a46de410001ecf951,2024-02-21_21h24.54.555,kallum_motion_pilot,2023.2.2,Win32,60.24096386,5ba85b3a46de410001ecf951,65d6bb0e977760de756971f7,65d6be55893f8acd779ea57c,0.0435,0.0435,1,21,183,148,1,sevenfive,,,,,,,,,,,,,,,,,,,,,,,,,,,,,,,,,,,,,,,,,,,,,,,,,,,,,,,,,,,,,,,,,,,,,,,,,,,,,,,,,,,,,,,,,,,,,,,,,,,,,,,,,,,,,,,,,,,,,,,,,,,,,,,,,,,,,,,,,
,,5ba85b3a46de410001ecf951,2024-02-21_21h24.54.555,kallum_motion_pilot,2023.2.2,Win32,60.24096386,5ba85b3a46de410001ecf951,65d6bb0e977760de756971f7,65d6be55893f8acd779ea57c,0.0437,0.0437,1,22,184,66,1,twoone,,,,,,,,,,,,,,,,,,,,,,,,,,,,,,,,,,,,,,,,,,,,,,,,,,,,,,,,,,,,,,,,,,,,,,,,,,,,,,,,,,,,,,,,,,,,,,,,,,,,,,,,,,,,,,,,,,,,,,,,,,,,,,,,,,,,,,,,,
,,5ba85b3a46de410001ecf951,2024-02-21_21h24.54.555,kallum_motion_pilot,2023.2.2,Win32,60.24096386,5ba85b3a46de410001ecf951,65d6bb0e977760de756971f7,65d6be55893f8acd779ea57c,0.0438,0.0438,1,23,185,53,1,threefour,,,,,,,,,,,,,,,,,,,,,,,,,,,,,,,,,,,,,,,,,,,,,,,,,,,,,,,,,,,,,,,,,,,,,,,,,,,,,,,,,,,,,,,,,,,,,,,,,,,,,,,,,,,,,,,,,,,,,,,,,,,,,,,,,,,,,,,,,
,,5ba85b3a46de410001ecf951,2024-02-21_21h24.54.555,kallum_motion_pilot,2023.2.2,Win32,60.24096386,5ba85b3a46de410001ecf951,65d6bb0e977760de756971f7,65d6be55893f8acd779ea57c,0.0439,0.0439,1,24,186,38,1,fourtwo,,,,,,,,,,,,,,,,,,,,,,,,,,,,,,,,,,,,,,,,,,,,,,,,,,,,,,,,,,,,,,,,,,,,,,,,,,,,,,,,,,,,,,,,,,,,,,,,,,,,,,,,,,,,,,,,,,,,,,,,,,,,,,,,,,,,,,,,,
,,5ba85b3a46de410001ecf951,2024-02-21_21h24.54.555,kallum_motion_pilot,2023.2.2,Win32,60.24096386,5ba85b3a46de410001ecf951,65d6bb0e977760de756971f7,65d6be55893f8acd779ea57c,0.0441,0.0441,1,25,187,119,1,eightseven,,,,,,,,,,,,,,,,,,,,,,,,,,,,,,,,,,,,,,,,,,,,,,,,,,,,,,,,,,,,,,,,,,,,,,,,,,,,,,,,,,,,,,,,,,,,,,,,,,,,,,,,,,,,,,,,,,,,,,,,,,,,,,,,,,,,,,,,,
,,5ba85b3a46de410001ecf951,2024-02-21_21h24.54.555,kallum_motion_pilot,2023.2.2,Win32,60.24096386,5ba85b3a46de410001ecf951,65d6bb0e977760de756971f7,65d6be55893f8acd779ea57c,0.0442,0.0443,1,26,188,84,1,sevenfive,,,,,,,,,,,,,,,,,,,,,,,,,,,,,,,,,,,,,,,,,,,,,,,,,,,,,,,,,,,,,,,,,,,,,,,,,,,,,,,,,,,,,,,,,,,,,,,,,,,,,,,,,,,,,,,,,,,,,,,,,,,,,,,,,,,,,,,,,
,,5ba85b3a46de410001ecf951,2024-02-21_21h24.54.555,kallum_motion_pilot,2023.2.2,Win32,60.24096386,5ba85b3a46de410001ecf951,65d6bb0e977760de756971f7,65d6be55893f8acd779ea57c,0.0443,0.0443,1,27,189,113,1,fiveseven,,,,,,,,,,,,,,,,,,,,,,,,,,,,,,,,,,,,,,,,,,,,,,,,,,,,,,,,,,,,,,,,,,,,,,,,,,,,,,,,,,,,,,,,,,,,,,,,,,,,,,,,,,,,,,,,,,,,,,,,,,,,,,,,,,,,,,,,,
,,5ba85b3a46de410001ecf951,2024-02-21_21h24.54.555,kallum_motion_pilot,2023.2.2,Win32,60.24096386,5ba85b3a46de410001ecf951,65d6bb0e977760de756971f7,65d6be55893f8acd779ea57c,0.0444,0.0444,1,28,190,49,1,onethree,,,,,,,,,,,,,,,,,,,,,,,,,,,,,,,,,,,,,,,,,,,,,,,,,,,,,,,,,,,,,,,,,,,,,,,,,,,,,,,,,,,,,,,,,,,,,,,,,,,,,,,,,,,,,,,,,,,,,,,,,,,,,,,,,,,,,,,,,
,,5ba85b3a46de410001ecf951,2024-02-21_21h24.54.555,kallum_motion_pilot,2023.2.2,Win32,60.24096386,5ba85b3a46de410001ecf951,65d6bb0e977760de756971f7,65d6be55893f8acd779ea57c,0.0445,0.0446,1,29,191,50,1,twoone,,,,,,,,,,,,,,,,,,,,,,,,,,,,,,,,,,,,,,,,,,,,,,,,,,,,,,,,,,,,,,,,,,,,,,,,,,,,,,,,,,,,,,,,,,,,,,,,,,,,,,,,,,,,,,,,,,,,,,,,,,,,,,,,,,,,,,,,,
,,5ba85b3a46de410001ecf951,2024-02-21_21h24.54.555,kallum_motion_pilot,2023.2.2,Win32,60.24096386,5ba85b3a46de410001ecf951,65d6bb0e977760de756971f7,65d6be55893f8acd779ea57c,0.0446,0.0447,1,30,192,108,1,sevenfive,,,,,,,,,,,,,,,,,,,,,,,,,,,,,,,,,,,,,,,,,,,,,,,,,,,,,,,,,,,,,,,,,,,,,,,,,,,,,,,,,,,,,,,,,,,,,,,,,,,,,,,,,,,,,,,,,,,,,,,,,,,,,,,,,,,,,,,,,
,,5ba85b3a46de410001ecf951,2024-02-21_21h24.54.555,kallum_motion_pilot,2023.2.2,Win32,60.24096386,5ba85b3a46de410001ecf951,65d6bb0e977760de756971f7,65d6be55893f8acd779ea57c,0.0447,0.0448,1,31,193,27,1,twofour,,,,,,,,,,,,,,,,,,,,,,,,,,,,,,,,,,,,,,,,,,,,,,,,,,,,,,,,,,,,,,,,,,,,,,,,,,,,,,,,,,,,,,,,,,,,,,,,,,,,,,,,,,,,,,,,,,,,,,,,,,,,,,,,,,,,,,,,,
,,5ba85b3a46de410001ecf951,2024-02-21_21h24.54.555,kallum_motion_pilot,2023.2.2,Win32,60.24096386,5ba85b3a46de410001ecf951,65d6bb0e977760de756971f7,65d6be55893f8acd779ea57c,0.0449,0.045,1,32,194,70,1,fourtwo,,,,,,,,,,,,,,,,,,,,,,,,,,,,,,,,,,,,,,,,,,,,,,,,,,,,,,,,,,,,,,,,,,,,,,,,,,,,,,,,,,,,,,,,,,,,,,,,,,,,,,,,,,,,,,,,,,,,,,,,,,,,,,,,,,,,,,,,,
,,5ba85b3a46de410001ecf951,2024-02-21_21h24.54.555,kallum_motion_pilot,2023.2.2,Win32,60.24096386,5ba85b3a46de410001ecf951,65d6bb0e977760de756971f7,65d6be55893f8acd779ea57c,0.045,0.045,1,33,195,152,1,fivesix,,,,,,,,,,,,,,,,,,,,,,,,,,,,,,,,,,,,,,,,,,,,,,,,,,,,,,,,,,,,,,,,,,,,,,,,,,,,,,,,,,,,,,,,,,,,,,,,,,,,,,,,,,,,,,,,,,,,,,,,,,,,,,,,,,,,,,,,,
,,5ba85b3a46de410001ecf951,2024-02-21_21h24.54.555,kallum_motion_pilot,2023.2.2,Win32,60.24096386,5ba85b3a46de410001ecf951,65d6bb0e977760de756971f7,65d6be55893f8acd779ea57c,0.0452,0.0452,1,34,196,135,1,eightseven,,,,,,,,,,,,,,,,,,,,,,,,,,,,,,,,,,,,,,,,,,,,,,,,,,,,,,,,,,,,,,,,,,,,,,,,,,,,,,,,,,,,,,,,,,,,,,,,,,,,,,,,,,,,,,,,,,,,,,,,,,,,,,,,,,,,,,,,,
,,5ba85b3a46de410001ecf951,2024-02-21_21h24.54.555,kallum_motion_pilot,2023.2.2,Win32,60.24096386,5ba85b3a46de410001ecf951,65d6bb0e977760de756971f7,65d6be55893f8acd779ea57c,0.0452,0.0453,1,35,197,97,1,fiveseven,,,,,,,,,,,,,,,,,,,,,,,,,,,,,,,,,,,,,,,,,,,,,,,,,,,,,,,,,,,,,,,,,,,,,,,,,,,,,,,,,,,,,,,,,,,,,,,,,,,,,,,,,,,,,,,,,,,,,,,,,,,,,,,,,,,,,,,,,
,,5ba85b3a46de410001ecf951,2024-02-21_21h24.54.555,kallum_motion_pilot,2023.2.2,Win32,60.24096386,5ba85b3a46de410001ecf951,65d6bb0e977760de756971f7,65d6be55893f8acd779ea57c,0.0454,0.0455,1,36,198,118,1,eightsix,,,,,,,,,,,,,,,,,,,,,,,,,,,,,,,,,,,,,,,,,,,,,,,,,,,,,,,,,,,,,,,,,,,,,,,,,,,,,,,,,,,,,,,,,,,,,,,,,,,,,,,,,,,,,,,,,,,,,,,,,,,,,,,,,,,,,,,,,
,,5ba85b3a46de410001ecf951,2024-02-21_21h24.54.555,kallum_motion_pilot,2023.2.2,Win32,60.24096386,5ba85b3a46de410001ecf951,65d6bb0e977760de756971f7,65d6be55893f8acd779ea57c,0.0455,0.0455,1,37,199,89,1,fiveseven,,,,,,,,,,,,,,,,,,,,,,,,,,,,,,,,,,,,,,,,,,,,,,,,,,,,,,,,,,,,,,,,,,,,,,,,,,,,,,,,,,,,,,,,,,,,,,,,,,,,,,,,,,,,,,,,,,,,,,,,,,,,,,,,,,,,,,,,,
,,5ba85b3a46de410001ecf951,2024-02-21_21h24.54.555,kallum_motion_pilot,2023.2.2,Win32,60.24096386,5ba85b3a46de410001ecf951,65d6bb0e977760de756971f7,65d6be55893f8acd779ea57c,0.0457,0.0457,1,38,200,116,1,sevenfive,,,,,,,,,,,,,,,,,,,,,,,,,,,,,,,,,,,,,,,,,,,,,,,,,,,,,,,,,,,,,,,,,,,,,,,,,,,,,,,,,,,,,,,,,,,,,,,,,,,,,,,,,,,,,,,,,,,,,,,,,,,,,,,,,,,,,,,,,
,,5ba85b3a46de410001ecf951,2024-02-21_21h24.54.555,kallum_motion_pilot,2023.2.2,Win32,60.24096386,5ba85b3a46de410001ecf951,65d6bb0e977760de756971f7,65d6be55893f8acd779ea57c,0.0457,0.0458,1,39,201,54,1,fourtwo,,,,,,,,,,,,,,,,,,,,,,,,,,,,,,,,,,,,,,,,,,,,,,,,,,,,,,,,,,,,,,,,,,,,,,,,,,,,,,,,,,,,,,,,,,,,,,,,,,,,,,,,,,,,,,,,,,,,,,,,,,,,,,,,,,,,,,,,,
,,5ba85b3a46de410001ecf951,2024-02-21_21h24.54.555,kallum_motion_pilot,2023.2.2,Win32,60.24096386,5ba85b3a46de410001ecf951,65d6bb0e977760de756971f7,65d6be55893f8acd779ea57c,0.0458,0.0459,1,40,202,104,1,fivesix,,,,,,,,,,,,,,,,,,,,,,,,,,,,,,,,,,,,,,,,,,,,,,,,,,,,,,,,,,,,,,,,,,,,,,,,,,,,,,,,,,,,,,,,,,,,,,,,,,,,,,,,,,,,,,,,,,,,,,,,,,,,,,,,,,,,,,,,,
,,5ba85b3a46de410001ecf951,2024-02-21_21h24.54.555,kallum_motion_pilot,2023.2.2,Win32,60.24096386,5ba85b3a46de410001ecf951,65d6bb0e977760de756971f7,65d6be55893f8acd779ea57c,0.0459,0.046,1,41,203,67,1,twofour,,,,,,,,,,,,,,,,,,,,,,,,,,,,,,,,,,,,,,,,,,,,,,,,,,,,,,,,,,,,,,,,,,,,,,,,,,,,,,,,,,,,,,,,,,,,,,,,,,,,,,,,,,,,,,,,,,,,,,,,,,,,,,,,,,,,,,,,,
,,5ba85b3a46de410001ecf951,2024-02-21_21h24.54.555,kallum_motion_pilot,2023.2.2,Win32,60.24096386,5ba85b3a46de410001ecf951,65d6bb0e977760de756971f7,65d6be55893f8acd779ea57c,0.0461,0.0461,1,42,204,90,1,sixfive,,,,,,,,,,,,,,,,,,,,,,,,,,,,,,,,,,,,,,,,,,,,,,,,,,,,,,,,,,,,,,,,,,,,,,,,,,,,,,,,,,,,,,,,,,,,,,,,,,,,,,,,,,,,,,,,,,,,,,,,,,,,,,,,,,,,,,,,,
,,5ba85b3a46de410001ecf951,2024-02-21_21h24.54.555,kallum_motion_pilot,2023.2.2,Win32,60.24096386,5ba85b3a46de410001ecf951,65d6bb0e977760de756971f7,65d6be55893f8acd779ea57c,0.0462,0.0462,1,43,205,124,1,sevenfive,,,,,,,,,,,,,,,,,,,,,,,,,,,,,,,,,,,,,,,,,,,,,,,,,,,,,,,,,,,,,,,,,,,,,,,,,,,,,,,,,,,,,,,,,,,,,,,,,,,,,,,,,,,,,,,,,,,,,,,,,,,,,,,,,,,,,,,,,
,,5ba85b3a46de410001ecf951,2024-02-21_21h24.54.555,kallum_motion_pilot,2023.2.2,Win32,60.24096386,5ba85b3a46de410001ecf951,65d6bb0e977760de756971f7,65d6be55893f8acd779ea57c,0.0463,0.0464,1,44,206,136,1,fivesix,,,,,,,,,,,,,,,,,,,,,,,,,,,,,,,,,,,,,,,,,,,,,,,,,,,,,,,,,,,,,,,,,,,,,,,,,,,,,,,,,,,,,,,,,,,,,,,,,,,,,,,,,,,,,,,,,,,,,,,,,,,,,,,,,,,,,,,,,
,,5ba85b3a46de410001ecf951,2024-02-21_21h24.54.555,kallum_motion_pilot,2023.2.2,Win32,60.24096386,5ba85b3a46de410001ecf951,65d6bb0e977760de756971f7,65d6be55893f8acd779ea57c,0.0464,0.0465,1,45,207,107,1,sixeight,,,,,,,,,,,,,,,,,,,,,,,,,,,,,,,,,,,,,,,,,,,,,,,,,,,,,,,,,,,,,,,,,,,,,,,,,,,,,,,,,,,,,,,,,,,,,,,,,,,,,,,,,,,,,,,,,,,,,,,,,,,,,,,,,,,,,,,,,
,,5ba85b3a46de410001ecf951,2024-02-21_21h24.54.555,kallum_motion_pilot,2023.2.2,Win32,60.24096386,5ba85b3a46de410001ecf951,65d6bb0e977760de756971f7,65d6be55893f8acd779ea57c,0.0465,0.0466,1,46,208,130,1,sixfive,,,,,,,,,,,,,,,,,,,,,,,,,,,,,,,,,,,,,,,,,,,,,,,,,,,,,,,,,,,,,,,,,,,,,,,,,,,,,,,,,,,,,,,,,,,,,,,,,,,,,,,,,,,,,,,,,,,,,,,,,,,,,,,,,,,,,,,,,
,,5ba85b3a46de410001ecf951,2024-02-21_21h24.54.555,kallum_motion_pilot,2023.2.2,Win32,60.24096386,5ba85b3a46de410001ecf951,65d6bb0e977760de756971f7,65d6be55893f8acd779ea57c,0.0466,0.0467,1,47,209,79,1,eightseven,,,,,,,,,,,,,,,,,,,,,,,,,,,,,,,,,,,,,,,,,,,,,,,,,,,,,,,,,,,,,,,,,,,,,,,,,,,,,,,,,,,,,,,,,,,,,,,,,,,,,,,,,,,,,,,,,,,,,,,,,,,,,,,,,,,,,,,,,
,,5ba85b3a46de410001ecf951,2024-02-21_21h24.54.555,kallum_motion_pilot,2023.2.2,Win32,60.24096386,5ba85b3a46de410001ecf951,65d6bb0e977760de756971f7,65d6be55893f8acd779ea57c,0.0468,0.0469,1,48,210,76,1,threeone,,,,,,,,,,,,,,,,,,,,,,,,,,,,,,,,,,,,,,,,,,,,,,,,,,,,,,,,,,,,,,,,,,,,,,,,,,,,,,,,,,,,,,,,,,,,,,,,,,,,,,,,,,,,,,,,,,,,,,,,,,,,,,,,,,,,,,,,,
,,5ba85b3a46de410001ecf951,2024-02-21_21h24.54.555,kallum_motion_pilot,2023.2.2,Win32,60.24096386,5ba85b3a46de410001ecf951,65d6bb0e977760de756971f7,65d6be55893f8acd779ea57c,0.0469,0.0469,1,49,211,80,1,fivesix,,,,,,,,,,,,,,,,,,,,,,,,,,,,,,,,,,,,,,,,,,,,,,,,,,,,,,,,,,,,,,,,,,,,,,,,,,,,,,,,,,,,,,,,,,,,,,,,,,,,,,,,,,,,,,,,,,,,,,,,,,,,,,,,,,,,,,,,,
,,5ba85b3a46de410001ecf951,2024-02-21_21h24.54.555,kallum_motion_pilot,2023.2.2,Win32,60.24096386,5ba85b3a46de410001ecf951,65d6bb0e977760de756971f7,65d6be55893f8acd779ea57c,0.047,0.047,1,50,212,112,1,fivesix,,,,,,,,,,,,,,,,,,,,,,,,,,,,,,,,,,,,,,,,,,,,,,,,,,,,,,,,,,,,,,,,,,,,,,,,,,,,,,,,,,,,,,,,,,,,,,,,,,,,,,,,,,,,,,,,,,,,,,,,,,,,,,,,,,,,,,,,,
,,5ba85b3a46de410001ecf951,2024-02-21_21h24.54.555,kallum_motion_pilot,2023.2.2,Win32,60.24096386,5ba85b3a46de410001ecf951,65d6bb0e977760de756971f7,65d6be55893f8acd779ea57c,0.0471,0.0472,1,51,213,77,1,threefour,,,,,,,,,,,,,,,,,,,,,,,,,,,,,,,,,,,,,,,,,,,,,,,,,,,,,,,,,,,,,,,,,,,,,,,,,,,,,,,,,,,,,,,,,,,,,,,,,,,,,,,,,,,,,,,,,,,,,,,,,,,,,,,,,,,,,,,,,
,,5ba85b3a46de410001ecf951,2024-02-21_21h24.54.555,kallum_motion_pilot,2023.2.2,Win32,60.24096386,5ba85b3a46de410001ecf951,65d6bb0e977760de756971f7,65d6be55893f8acd779ea57c,0.0473,0.0473,1,52,214,129,1,fiveseven,,,,,,,,,,,,,,,,,,,,,,,,,,,,,,,,,,,,,,,,,,,,,,,,,,,,,,,,,,,,,,,,,,,,,,,,,,,,,,,,,,,,,,,,,,,,,,,,,,,,,,,,,,,,,,,,,,,,,,,,,,,,,,,,,,,,,,,,,
,,5ba85b3a46de410001ecf951,2024-02-21_21h24.54.555,kallum_motion_pilot,2023.2.2,Win32,60.24096386,5ba85b3a46de410001ecf951,65d6bb0e977760de756971f7,65d6be55893f8acd779ea57c,0.0474,0.0475,1,53,215,48,1,onetwo,,,,,,,,,,,,,,,,,,,,,,,,,,,,,,,,,,,,,,,,,,,,,,,,,,,,,,,,,,,,,,,,,,,,,,,,,,,,,,,,,,,,,,,,,,,,,,,,,,,,,,,,,,,,,,,,,,,,,,,,,,,,,,,,,,,,,,,,,
,,5ba85b3a46de410001ecf951,2024-02-21_21h24.54.555,kallum_motion_pilot,2023.2.2,Win32,60.24096386,5ba85b3a46de410001ecf951,65d6bb0e977760de756971f7,65d6be55893f8acd779ea57c,0.0475,0.0476,1,54,216,23,1,fourthree,,,,,,,,,,,,,,,,,,,,,,,,,,,,,,,,,,,,,,,,,,,,,,,,,,,,,,,,,,,,,,,,,,,,,,,,,,,,,,,,,,,,,,,,,,,,,,,,,,,,,,,,,,,,,,,,,,,,,,,,,,,,,,,,,,,,,,,,,
,,5ba85b3a46de410001ecf951,2024-02-21_21h24.54.555,kallum_motion_pilot,2023.2.2,Win32,60.24096386,5ba85b3a46de410001ecf951,65d6bb0e977760de756971f7,65d6be55893f8acd779ea57c,0.0476,0.0476,1,55,217,153,1,fiveseven,,,,,,,,,,,,,,,,,,,,,,,,,,,,,,,,,,,,,,,,,,,,,,,,,,,,,,,,,,,,,,,,,,,,,,,,,,,,,,,,,,,,,,,,,,,,,,,,,,,,,,,,,,,,,,,,,,,,,,,,,,,,,,,,,,,,,,,,,
,,5ba85b3a46de410001ecf951,2024-02-21_21h24.54.555,kallum_motion_pilot,2023.2.2,Win32,60.24096386,5ba85b3a46de410001ecf951,65d6bb0e977760de756971f7,65d6be55893f8acd779ea57c,0.0478,0.0478,1,56,218,134,1,eightsix,,,,,,,,,,,,,,,,,,,,,,,,,,,,,,,,,,,,,,,,,,,,,,,,,,,,,,,,,,,,,,,,,,,,,,,,,,,,,,,,,,,,,,,,,,,,,,,,,,,,,,,,,,,,,,,,,,,,,,,,,,,,,,,,,,,,,,,,,
,,5ba85b3a46de410001ecf951,2024-02-21_21h24.54.555,kallum_motion_pilot,2023.2.2,Win32,60.24096386,5ba85b3a46de410001ecf951,65d6bb0e977760de756971f7,65d6be55893f8acd779ea57c,0.0478,0.0479,1,57,219,120,1,fivesix,,,,,,,,,,,,,,,,,,,,,,,,,,,,,,,,,,,,,,,,,,,,,,,,,,,,,,,,,,,,,,,,,,,,,,,,,,,,,,,,,,,,,,,,,,,,,,,,,,,,,,,,,,,,,,,,,,,,,,,,,,,,,,,,,,,,,,,,,
,,5ba85b3a46de410001ecf951,2024-02-21_21h24.54.555,kallum_motion_pilot,2023.2.2,Win32,60.24096386,5ba85b3a46de410001ecf951,65d6bb0e977760de756971f7,65d6be55893f8acd779ea57c,0.048,0.048,1,58,220,98,1,sixfive,,,,,,,,,,,,,,,,,,,,,,,,,,,,,,,,,,,,,,,,,,,,,,,,,,,,,,,,,,,,,,,,,,,,,,,,,,,,,,,,,,,,,,,,,,,,,,,,,,,,,,,,,,,,,,,,,,,,,,,,,,,,,,,,,,,,,,,,,
,,5ba85b3a46de410001ecf951,2024-02-21_21h24.54.555,kallum_motion_pilot,2023.2.2,Win32,60.24096386,5ba85b3a46de410001ecf951,65d6bb0e977760de756971f7,65d6be55893f8acd779ea57c,0.0481,0.0482,1,59,221,43,1,twofour,,,,,,,,,,,,,,,,,,,,,,,,,,,,,,,,,,,,,,,,,,,,,,,,,,,,,,,,,,,,,,,,,,,,,,,,,,,,,,,,,,,,,,,,,,,,,,,,,,,,,,,,,,,,,,,,,,,,,,,,,,,,,,,,,,,,,,,,,
,,5ba85b3a46de410001ecf951,2024-02-21_21h24.54.555,kallum_motion_pilot,2023.2.2,Win32,60.24096386,5ba85b3a46de410001ecf951,65d6bb0e977760de756971f7,65d6be55893f8acd779ea57c,0.0483,0.0483,1,60,222,117,1,seveneight,,,,,,,,,,,,,,,,,,,,,,,,,,,,,,,,,,,,,,,,,,,,,,,,,,,,,,,,,,,,,,,,,,,,,,,,,,,,,,,,,,,,,,,,,,,,,,,,,,,,,,,,,,,,,,,,,,,,,,,,,,,,,,,,,,,,,,,,,
,,5ba85b3a46de410001ecf951,2024-02-21_21h24.54.555,kallum_motion_pilot,2023.2.2,Win32,60.24096386,5ba85b3a46de410001ecf951,65d6bb0e977760de756971f7,65d6be55893f8acd779ea57c,0.0484,0.0484,1,61,223,159,1,eightseven,,,,,,,,,,,,,,,,,,,,,,,,,,,,,,,,,,,,,,,,,,,,,,,,,,,,,,,,,,,,,,,,,,,,,,,,,,,,,,,,,,,,,,,,,,,,,,,,,,,,,,,,,,,,,,,,,,,,,,,,,,,,,,,,,,,,,,,,,
,,5ba85b3a46de410001ecf951,2024-02-21_21h24.54.555,kallum_motion_pilot,2023.2.2,Win32,60.24096386,5ba85b3a46de410001ecf951,65d6bb0e977760de756971f7,65d6be55893f8acd779ea57c,0.0484,0.0485,1,62,224,40,1,onetwo,,,,,,,,,,,,,,,,,,,,,,,,,,,,,,,,,,,,,,,,,,,,,,,,,,,,,,,,,,,,,,,,,,,,,,,,,,,,,,,,,,,,,,,,,,,,,,,,,,,,,,,,,,,,,,,,,,,,,,,,,,,,,,,,,,,,,,,,,
,,5ba85b3a46de410001ecf951,2024-02-21_21h24.54.555,kallum_motion_pilot,2023.2.2,Win32,60.24096386,5ba85b3a46de410001ecf951,65d6bb0e977760de756971f7,65d6be55893f8acd779ea57c,0.0486,0.0487,1,63,225,144,1,fivesix,,,,,,,,,,,,,,,,,,,,,,,,,,,,,,,,,,,,,,,,,,,,,,,,,,,,,,,,,,,,,,,,,,,,,,,,,,,,,,,,,,,,,,,,,,,,,,,,,,,,,,,,,,,,,,,,,,,,,,,,,,,,,,,,,,,,,,,,,
,,5ba85b3a46de410001ecf951,2024-02-21_21h24.54.555,kallum_motion_pilot,2023.2.2,Win32,60.24096386,5ba85b3a46de410001ecf951,65d6bb0e977760de756971f7,65d6be55893f8acd779ea57c,0.0487,0.0487,1,64,226,56,1,onetwo,,,,,,,,,,,,,,,,,,,,,,,,,,,,,,,,,,,,,,,,,,,,,,,,,,,,,,,,,,,,,,,,,,,,,,,,,,,,,,,,,,,,,,,,,,,,,,,,,,,,,,,,,,,,,,,,,,,,,,,,,,,,,,,,,,,,,,,,,
,,5ba85b3a46de410001ecf951,2024-02-21_21h24.54.555,kallum_motion_pilot,2023.2.2,Win32,60.24096386,5ba85b3a46de410001ecf951,65d6bb0e977760de756971f7,65d6be55893f8acd779ea57c,0.0489,0.0489,1,65,227,137,1,fiveseven,,,,,,,,,,,,,,,,,,,,,,,,,,,,,,,,,,,,,,,,,,,,,,,,,,,,,,,,,,,,,,,,,,,,,,,,,,,,,,,,,,,,,,,,,,,,,,,,,,,,,,,,,,,,,,,,,,,,,,,,,,,,,,,,,,,,,,,,,
,,5ba85b3a46de410001ecf951,2024-02-21_21h24.54.555,kallum_motion_pilot,2023.2.2,Win32,60.24096386,5ba85b3a46de410001ecf951,65d6bb0e977760de756971f7,65d6be55893f8acd779ea57c,0.0489,0.0491,1,66,228,17,1,onethree,,,,,,,,,,,,,,,,,,,,,,,,,,,,,,,,,,,,,,,,,,,,,,,,,,,,,,,,,,,,,,,,,,,,,,,,,,,,,,,,,,,,,,,,,,,,,,,,,,,,,,,,,,,,,,,,,,,,,,,,,,,,,,,,,,,,,,,,,
,,5ba85b3a46de410001ecf951,2024-02-21_21h24.54.555,kallum_motion_pilot,2023.2.2,Win32,60.24096386,5ba85b3a46de410001ecf951,65d6bb0e977760de756971f7,65d6be55893f8acd779ea57c,0.0491,0.0492,1,67,229,11,1,twofour,,,,,,,,,,,,,,,,,,,,,,,,,,,,,,,,,,,,,,,,,,,,,,,,,,,,,,,,,,,,,,,,,,,,,,,,,,,,,,,,,,,,,,,,,,,,,,,,,,,,,,,,,,,,,,,,,,,,,,,,,,,,,,,,,,,,,,,,,
,,5ba85b3a46de410001ecf951,2024-02-21_21h24.54.555,kallum_motion_pilot,2023.2.2,Win32,60.24096386,5ba85b3a46de410001ecf951,65d6bb0e977760de756971f7,65d6be55893f8acd779ea57c,0.0492,0.0493,1,68,230,69,1,threefour,,,,,,,,,,,,,,,,,,,,,,,,,,,,,,,,,,,,,,,,,,,,,,,,,,,,,,,,,,,,,,,,,,,,,,,,,,,,,,,,,,,,,,,,,,,,,,,,,,,,,,,,,,,,,,,,,,,,,,,,,,,,,,,,,,,,,,,,,
,,5ba85b3a46de410001ecf951,2024-02-21_21h24.54.555,kallum_motion_pilot,2023.2.2,Win32,60.24096386,5ba85b3a46de410001ecf951,65d6bb0e977760de756971f7,65d6be55893f8acd779ea57c,0.0493,0.0494,1,69,231,81,1,fiveseven,,,,,,,,,,,,,,,,,,,,,,,,,,,,,,,,,,,,,,,,,,,,,,,,,,,,,,,,,,,,,,,,,,,,,,,,,,,,,,,,,,,,,,,,,,,,,,,,,,,,,,,,,,,,,,,,,,,,,,,,,,,,,,,,,,,,,,,,,
,,5ba85b3a46de410001ecf951,2024-02-21_21h24.54.555,kallum_motion_pilot,2023.2.2,Win32,60.24096386,5ba85b3a46de410001ecf951,65d6bb0e977760de756971f7,65d6be55893f8acd779ea57c,0.0494,0.0495,1,70,232,161,1,fiveseven,,,,,,,,,,,,,,,,,,,,,,,,,,,,,,,,,,,,,,,,,,,,,,,,,,,,,,,,,,,,,,,,,,,,,,,,,,,,,,,,,,,,,,,,,,,,,,,,,,,,,,,,,,,,,,,,,,,,,,,,,,,,,,,,,,,,,,,,,
,,5ba85b3a46de410001ecf951,2024-02-21_21h24.54.555,kallum_motion_pilot,2023.2.2,Win32,60.24096386,5ba85b3a46de410001ecf951,65d6bb0e977760de756971f7,65d6be55893f8acd779ea57c,0.0495,0.0496,1,71,233,74,1,twoone,,,,,,,,,,,,,,,,,,,,,,,,,,,,,,,,,,,,,,,,,,,,,,,,,,,,,,,,,,,,,,,,,,,,,,,,,,,,,,,,,,,,,,,,,,,,,,,,,,,,,,,,,,,,,,,,,,,,,,,,,,,,,,,,,,,,,,,,,
,,5ba85b3a46de410001ecf951,2024-02-21_21h24.54.555,kallum_motion_pilot,2023.2.2,Win32,60.24096386,5ba85b3a46de410001ecf951,65d6bb0e977760de756971f7,65d6be55893f8acd779ea57c,0.0496,0.0497,1,72,234,59,1,twofour,,,,,,,,,,,,,,,,,,,,,,,,,,,,,,,,,,,,,,,,,,,,,,,,,,,,,,,,,,,,,,,,,,,,,,,,,,,,,,,,,,,,,,,,,,,,,,,,,,,,,,,,,,,,,,,,,,,,,,,,,,,,,,,,,,,,,,,,,
,,5ba85b3a46de410001ecf951,2024-02-21_21h24.54.555,kallum_motion_pilot,2023.2.2,Win32,60.24096386,5ba85b3a46de410001ecf951,65d6bb0e977760de756971f7,65d6be55893f8acd779ea57c,0.0498,0.0498,1,73,235,61,1,threefour,,,,,,,,,,,,,,,,,,,,,,,,,,,,,,,,,,,,,,,,,,,,,,,,,,,,,,,,,,,,,,,,,,,,,,,,,,,,,,,,,,,,,,,,,,,,,,,,,,,,,,,,,,,,,,,,,,,,,,,,,,,,,,,,,,,,,,,,,
,,5ba85b3a46de410001ecf951,2024-02-21_21h24.54.555,kallum_motion_pilot,2023.2.2,Win32,60.24096386,5ba85b3a46de410001ecf951,65d6bb0e977760de756971f7,65d6be55893f8acd779ea57c,0.0499,0.05,1,74,236,125,1,seveneight,,,,,,,,,,,,,,,,,,,,,,,,,,,,,,,,,,,,,,,,,,,,,,,,,,,,,,,,,,,,,,,,,,,,,,,,,,,,,,,,,,,,,,,,,,,,,,,,,,,,,,,,,,,,,,,,,,,,,,,,,,,,,,,,,,,,,,,,,
,,5ba85b3a46de410001ecf951,2024-02-21_21h24.54.555,kallum_motion_pilot,2023.2.2,Win32,60.24096386,5ba85b3a46de410001ecf951,65d6bb0e977760de756971f7,65d6be55893f8acd779ea57c,0.0501,0.0501,1,75,237,64,1,onetwo,,,,,,,,,,,,,,,,,,,,,,,,,,,,,,,,,,,,,,,,,,,,,,,,,,,,,,,,,,,,,,,,,,,,,,,,,,,,,,,,,,,,,,,,,,,,,,,,,,,,,,,,,,,,,,,,,,,,,,,,,,,,,,,,,,,,,,,,,
,,5ba85b3a46de410001ecf951,2024-02-21_21h24.54.555,kallum_motion_pilot,2023.2.2,Win32,60.24096386,5ba85b3a46de410001ecf951,65d6bb0e977760de756971f7,65d6be55893f8acd779ea57c,0.0502,0.0502,1,76,238,154,1,sixfive,,,,,,,,,,,,,,,,,,,,,,,,,,,,,,,,,,,,,,,,,,,,,,,,,,,,,,,,,,,,,,,,,,,,,,,,,,,,,,,,,,,,,,,,,,,,,,,,,,,,,,,,,,,,,,,,,,,,,,,,,,,,,,,,,,,,,,,,,
,,5ba85b3a46de410001ecf951,2024-02-21_21h24.54.555,kallum_motion_pilot,2023.2.2,Win32,60.24096386,5ba85b3a46de410001ecf951,65d6bb0e977760de756971f7,65d6be55893f8acd779ea57c,0.0503,0.0504,1,77,239,85,1,seveneight,,,,,,,,,,,,,,,,,,,,,,,,,,,,,,,,,,,,,,,,,,,,,,,,,,,,,,,,,,,,,,,,,,,,,,,,,,,,,,,,,,,,,,,,,,,,,,,,,,,,,,,,,,,,,,,,,,,,,,,,,,,,,,,,,,,,,,,,,
,,5ba85b3a46de410001ecf951,2024-02-21_21h24.54.555,kallum_motion_pilot,2023.2.2,Win32,60.24096386,5ba85b3a46de410001ecf951,65d6bb0e977760de756971f7,65d6be55893f8acd779ea57c,0.0504,0.0505,1,78,240,95,1,eightseven,,,,,,,,,,,,,,,,,,,,,,,,,,,,,,,,,,,,,,,,,,,,,,,,,,,,,,,,,,,,,,,,,,,,,,,,,,,,,,,,,,,,,,,,,,,,,,,,,,,,,,,,,,,,,,,,,,,,,,,,,,,,,,,,,,,,,,,,,
,,5ba85b3a46de410001ecf951,2024-02-21_21h24.54.555,kallum_motion_pilot,2023.2.2,Win32,60.24096386,5ba85b3a46de410001ecf951,65d6bb0e977760de756971f7,65d6be55893f8acd779ea57c,0.0506,0.0506,1,79,241,131,1,sixeight,,,,,,,,,,,,,,,,,,,,,,,,,,,,,,,,,,,,,,,,,,,,,,,,,,,,,,,,,,,,,,,,,,,,,,,,,,,,,,,,,,,,,,,,,,,,,,,,,,,,,,,,,,,,,,,,,,,,,,,,,,,,,,,,,,,,,,,,,
,,5ba85b3a46de410001ecf951,2024-02-21_21h24.54.555,kallum_motion_pilot,2023.2.2,Win32,60.24096386,5ba85b3a46de410001ecf951,65d6bb0e977760de756971f7,65d6be55893f8acd779ea57c,0.0507,0.0508,1,80,242,114,1,sixfive,,,,,,,,,,,,,,,,,,,,,,,,,,,,,,,,,,,,,,,,,,,,,,,,,,,,,,,,,,,,,,,,,,,,,,,,,,,,,,,,,,,,,,,,,,,,,,,,,,,,,,,,,,,,,,,,,,,,,,,,,,,,,,,,,,,,,,,,,
,,5ba85b3a46de410001ecf951,2024-02-21_21h24.54.555,kallum_motion_pilot,2023.2.2,Win32,60.24096386,5ba85b3a46de410001ecf951,65d6bb0e977760de756971f7,65d6be55893f8acd779ea57c,0.0508,0.0509,1,81,243,15,1,fourthree,,,,,,,,,,,,,,,,,,,,,,,,,,,,,,,,,,,,,,,,,,,,,,,,,,,,,,,,,,,,,,,,,,,,,,,,,,,,,,,,,,,,,,,,,,,,,,,,,,,,,,,,,,,,,,,,,,,,,,,,,,,,,,,,,,,,,,,,,
,,5ba85b3a46de410001ecf951,2024-02-21_21h24.54.555,kallum_motion_pilot,2023.2.2,Win32,60.24096386,5ba85b3a46de410001ecf951,65d6bb0e977760de756971f7,65d6be55893f8acd779ea57c,0.051,0.051,1,82,244,72,1,onetwo,,,,,,,,,,,,,,,,,,,,,,,,,,,,,,,,,,,,,,,,,,,,,,,,,,,,,,,,,,,,,,,,,,,,,,,,,,,,,,,,,,,,,,,,,,,,,,,,,,,,,,,,,,,,,,,,,,,,,,,,,,,,,,,,,,,,,,,,,
,,5ba85b3a46de410001ecf951,2024-02-21_21h24.54.555,kallum_motion_pilot,2023.2.2,Win32,60.24096386,5ba85b3a46de410001ecf951,65d6bb0e977760de756971f7,65d6be55893f8acd779ea57c,0.051,0.0511,1,83,245,132,1,sevenfive,,,,,,,,,,,,,,,,,,,,,,,,,,,,,,,,,,,,,,,,,,,,,,,,,,,,,,,,,,,,,,,,,,,,,,,,,,,,,,,,,,,,,,,,,,,,,,,,,,,,,,,,,,,,,,,,,,,,,,,,,,,,,,,,,,,,,,,,,
,,5ba85b3a46de410001ecf951,2024-02-21_21h24.54.555,kallum_motion_pilot,2023.2.2,Win32,60.24096386,5ba85b3a46de410001ecf951,65d6bb0e977760de756971f7,65d6be55893f8acd779ea57c,0.0511,0.0512,1,84,246,158,1,eightsix,,,,,,,,,,,,,,,,,,,,,,,,,,,,,,,,,,,,,,,,,,,,,,,,,,,,,,,,,,,,,,,,,,,,,,,,,,,,,,,,,,,,,,,,,,,,,,,,,,,,,,,,,,,,,,,,,,,,,,,,,,,,,,,,,,,,,,,,,
,,5ba85b3a46de410001ecf951,2024-02-21_21h24.54.555,kallum_motion_pilot,2023.2.2,Win32,60.24096386,5ba85b3a46de410001ecf951,65d6bb0e977760de756971f7,65d6be55893f8acd779ea57c,0.0513,0.0513,1,85,247,12,1,threeone,,,,,,,,,,,,,,,,,,,,,,,,,,,,,,,,,,,,,,,,,,,,,,,,,,,,,,,,,,,,,,,,,,,,,,,,,,,,,,,,,,,,,,,,,,,,,,,,,,,,,,,,,,,,,,,,,,,,,,,,,,,,,,,,,,,,,,,,,
,,5ba85b3a46de410001ecf951,2024-02-21_21h24.54.555,kallum_motion_pilot,2023.2.2,Win32,60.24096386,5ba85b3a46de410001ecf951,65d6bb0e977760de756971f7,65d6be55893f8acd779ea57c,0.0514,0.0515,1,86,248,47,1,fourthree,,,,,,,,,,,,,,,,,,,,,,,,,,,,,,,,,,,,,,,,,,,,,,,,,,,,,,,,,,,,,,,,,,,,,,,,,,,,,,,,,,,,,,,,,,,,,,,,,,,,,,,,,,,,,,,,,,,,,,,,,,,,,,,,,,,,,,,,,
,,5ba85b3a46de410001ecf951,2024-02-21_21h24.54.555,kallum_motion_pilot,2023.2.2,Win32,60.24096386,5ba85b3a46de410001ecf951,65d6bb0e977760de756971f7,65d6be55893f8acd779ea57c,0.0516,0.0516,1,87,249,156,1,sevenfive,,,,,,,,,,,,,,,,,,,,,,,,,,,,,,,,,,,,,,,,,,,,,,,,,,,,,,,,,,,,,,,,,,,,,,,,,,,,,,,,,,,,,,,,,,,,,,,,,,,,,,,,,,,,,,,,,,,,,,,,,,,,,,,,,,,,,,,,,
,,5ba85b3a46de410001ecf951,2024-02-21_21h24.54.555,kallum_motion_pilot,2023.2.2,Win32,60.24096386,5ba85b3a46de410001ecf951,65d6bb0e977760de756971f7,65d6be55893f8acd779ea57c,0.0517,0.0517,1,88,250,94,1,eightsix,,,,,,,,,,,,,,,,,,,,,,,,,,,,,,,,,,,,,,,,,,,,,,,,,,,,,,,,,,,,,,,,,,,,,,,,,,,,,,,,,,,,,,,,,,,,,,,,,,,,,,,,,,,,,,,,,,,,,,,,,,,,,,,,,,,,,,,,,
,,5ba85b3a46de410001ecf951,2024-02-21_21h24.54.555,kallum_motion_pilot,2023.2.2,Win32,60.24096386,5ba85b3a46de410001ecf951,65d6bb0e977760de756971f7,65d6be55893f8acd779ea57c,0.0518,0.0519,1,89,251,9,1,onethree,,,,,,,,,,,,,,,,,,,,,,,,,,,,,,,,,,,,,,,,,,,,,,,,,,,,,,,,,,,,,,,,,,,,,,,,,,,,,,,,,,,,,,,,,,,,,,,,,,,,,,,,,,,,,,,,,,,,,,,,,,,,,,,,,,,,,,,,,
,,5ba85b3a46de410001ecf951,2024-02-21_21h24.54.555,kallum_motion_pilot,2023.2.2,Win32,60.24096386,5ba85b3a46de410001ecf951,65d6bb0e977760de756971f7,65d6be55893f8acd779ea57c,0.0519,0.052,1,90,252,115,1,sixeight,,,,,,,,,,,,,,,,,,,,,,,,,,,,,,,,,,,,,,,,,,,,,,,,,,,,,,,,,,,,,,,,,,,,,,,,,,,,,,,,,,,,,,,,,,,,,,,,,,,,,,,,,,,,,,,,,,,,,,,,,,,,,,,,,,,,,,,,,
,,5ba85b3a46de410001ecf951,2024-02-21_21h24.54.555,kallum_motion_pilot,2023.2.2,Win32,60.24096386,5ba85b3a46de410001ecf951,65d6bb0e977760de756971f7,65d6be55893f8acd779ea57c,0.0521,0.0521,1,91,253,127,1,eightseven,,,,,,,,,,,,,,,,,,,,,,,,,,,,,,,,,,,,,,,,,,,,,,,,,,,,,,,,,,,,,,,,,,,,,,,,,,,,,,,,,,,,,,,,,,,,,,,,,,,,,,,,,,,,,,,,,,,,,,,,,,,,,,,,,,,,,,,,,
,,5ba85b3a46de410001ecf951,2024-02-21_21h24.54.555,kallum_motion_pilot,2023.2.2,Win32,60.24096386,5ba85b3a46de410001ecf951,65d6bb0e977760de756971f7,65d6be55893f8acd779ea57c,0.0523,0.0523,1,92,254,109,1,seveneight,,,,,,,,,,,,,,,,,,,,,,,,,,,,,,,,,,,,,,,,,,,,,,,,,,,,,,,,,,,,,,,,,,,,,,,,,,,,,,,,,,,,,,,,,,,,,,,,,,,,,,,,,,,,,,,,,,,,,,,,,,,,,,,,,,,,,,,,,
,,5ba85b3a46de410001ecf951,2024-02-21_21h24.54.555,kallum_motion_pilot,2023.2.2,Win32,60.24096386,5ba85b3a46de410001ecf951,65d6bb0e977760de756971f7,65d6be55893f8acd779ea57c,0.0524,0.0524,1,93,255,25,1,onethree,,,,,,,,,,,,,,,,,,,,,,,,,,,,,,,,,,,,,,,,,,,,,,,,,,,,,,,,,,,,,,,,,,,,,,,,,,,,,,,,,,,,,,,,,,,,,,,,,,,,,,,,,,,,,,,,,,,,,,,,,,,,,,,,,,,,,,,,,
,,5ba85b3a46de410001ecf951,2024-02-21_21h24.54.555,kallum_motion_pilot,2023.2.2,Win32,60.24096386,5ba85b3a46de410001ecf951,65d6bb0e977760de756971f7,65d6be55893f8acd779ea57c,0.0526,0.0526,1,94,256,157,1,seveneight,,,,,,,,,,,,,,,,,,,,,,,,,,,,,,,,,,,,,,,,,,,,,,,,,,,,,,,,,,,,,,,,,,,,,,,,,,,,,,,,,,,,,,,,,,,,,,,,,,,,,,,,,,,,,,,,,,,,,,,,,,,,,,,,,,,,,,,,,
,,5ba85b3a46de410001ecf951,2024-02-21_21h24.54.555,kallum_motion_pilot,2023.2.2,Win32,60.24096386,5ba85b3a46de410001ecf951,65d6bb0e977760de756971f7,65d6be55893f8acd779ea57c,0.0527,0.0527,1,95,257,73,1,onethree,,,,,,,,,,,,,,,,,,,,,,,,,,,,,,,,,,,,,,,,,,,,,,,,,,,,,,,,,,,,,,,,,,,,,,,,,,,,,,,,,,,,,,,,,,,,,,,,,,,,,,,,,,,,,,,,,,,,,,,,,,,,,,,,,,,,,,,,,
,,5ba85b3a46de410001ecf951,2024-02-21_21h24.54.555,kallum_motion_pilot,2023.2.2,Win32,60.24096386,5ba85b3a46de410001ecf951,65d6bb0e977760de756971f7,65d6be55893f8acd779ea57c,0.0528,0.0528,1,96,258,75,1,twofour,,,,,,,,,,,,,,,,,,,,,,,,,,,,,,,,,,,,,,,,,,,,,,,,,,,,,,,,,,,,,,,,,,,,,,,,,,,,,,,,,,,,,,,,,,,,,,,,,,,,,,,,,,,,,,,,,,,,,,,,,,,,,,,,,,,,,,,,,
,,5ba85b3a46de410001ecf951,2024-02-21_21h24.54.555,kallum_motion_pilot,2023.2.2,Win32,60.24096386,5ba85b3a46de410001ecf951,65d6bb0e977760de756971f7,65d6be55893f8acd779ea57c,0.0529,0.053,1,97,259,57,1,onethree,,,,,,,,,,,,,,,,,,,,,,,,,,,,,,,,,,,,,,,,,,,,,,,,,,,,,,,,,,,,,,,,,,,,,,,,,,,,,,,,,,,,,,,,,,,,,,,,,,,,,,,,,,,,,,,,,,,,,,,,,,,,,,,,,,,,,,,,,
,,5ba85b3a46de410001ecf951,2024-02-21_21h24.54.555,kallum_motion_pilot,2023.2.2,Win32,60.24096386,5ba85b3a46de410001ecf951,65d6bb0e977760de756971f7,65d6be55893f8acd779ea57c,0.053,0.0531,1,98,260,86,1,eightsix,,,,,,,,,,,,,,,,,,,,,,,,,,,,,,,,,,,,,,,,,,,,,,,,,,,,,,,,,,,,,,,,,,,,,,,,,,,,,,,,,,,,,,,,,,,,,,,,,,,,,,,,,,,,,,,,,,,,,,,,,,,,,,,,,,,,,,,,,
,,5ba85b3a46de410001ecf951,2024-02-21_21h24.54.555,kallum_motion_pilot,2023.2.2,Win32,60.24096386,5ba85b3a46de410001ecf951,65d6bb0e977760de756971f7,65d6be55893f8acd779ea57c,0.0532,0.0532,1,99,261,45,1,threefour,,,,,,,,,,,,,,,,,,,,,,,,,,,,,,,,,,,,,,,,,,,,,,,,,,,,,,,,,,,,,,,,,,,,,,,,,,,,,,,,,,,,,,,,,,,,,,,,,,,,,,,,,,,,,,,,,,,,,,,,,,,,,,,,,,,,,,,,,
,,5ba85b3a46de410001ecf951,2024-02-21_21h24.54.555,kallum_motion_pilot,2023.2.2,Win32,60.24096386,5ba85b3a46de410001ecf951,65d6bb0e977760de756971f7,65d6be55893f8acd779ea57c,0.0533,0.0533,1,100,262,106,1,sixfive,,,,,,,,,,,,,,,,,,,,,,,,,,,,,,,,,,,,,,,,,,,,,,,,,,,,,,,,,,,,,,,,,,,,,,,,,,,,,,,,,,,,,,,,,,,,,,,,,,,,,,,,,,,,,,,,,,,,,,,,,,,,,,,,,,,,,,,,,
,,5ba85b3a46de410001ecf951,2024-02-21_21h24.54.555,kallum_motion_pilot,2023.2.2,Win32,60.24096386,5ba85b3a46de410001ecf951,65d6bb0e977760de756971f7,65d6be55893f8acd779ea57c,0.0535,0.0535,1,101,263,151,1,eightseven,,,,,,,,,,,,,,,,,,,,,,,,,,,,,,,,,,,,,,,,,,,,,,,,,,,,,,,,,,,,,,,,,,,,,,,,,,,,,,,,,,,,,,,,,,,,,,,,,,,,,,,,,,,,,,,,,,,,,,,,,,,,,,,,,,,,,,,,,
,,5ba85b3a46de410001ecf951,2024-02-21_21h24.54.555,kallum_motion_pilot,2023.2.2,Win32,60.24096386,5ba85b3a46de410001ecf951,65d6bb0e977760de756971f7,65d6be55893f8acd779ea57c,0.0536,0.0537,1,102,264,121,1,fiveseven,,,,,,,,,,,,,,,,,,,,,,,,,,,,,,,,,,,,,,,,,,,,,,,,,,,,,,,,,,,,,,,,,,,,,,,,,,,,,,,,,,,,,,,,,,,,,,,,,,,,,,,,,,,,,,,,,,,,,,,,,,,,,,,,,,,,,,,,,
,,5ba85b3a46de410001ecf951,2024-02-21_21h24.54.555,kallum_motion_pilot,2023.2.2,Win32,60.24096386,5ba85b3a46de410001ecf951,65d6bb0e977760de756971f7,65d6be55893f8acd779ea57c,0.0538,0.0538,1,103,265,37,1,threefour,,,,,,,,,,,,,,,,,,,,,,,,,,,,,,,,,,,,,,,,,,,,,,,,,,,,,,,,,,,,,,,,,,,,,,,,,,,,,,,,,,,,,,,,,,,,,,,,,,,,,,,,,,,,,,,,,,,,,,,,,,,,,,,,,,,,,,,,,
,,5ba85b3a46de410001ecf951,2024-02-21_21h24.54.555,kallum_motion_pilot,2023.2.2,Win32,60.24096386,5ba85b3a46de410001ecf951,65d6bb0e977760de756971f7,65d6be55893f8acd779ea57c,0.0538,0.0539,1,104,266,93,1,seveneight,,,,,,,,,,,,,,,,,,,,,,,,,,,,,,,,,,,,,,,,,,,,,,,,,,,,,,,,,,,,,,,,,,,,,,,,,,,,,,,,,,,,,,,,,,,,,,,,,,,,,,,,,,,,,,,,,,,,,,,,,,,,,,,,,,,,,,,,,
,,5ba85b3a46de410001ecf951,2024-02-21_21h24.54.555,kallum_motion_pilot,2023.2.2,Win32,60.24096386,5ba85b3a46de410001ecf951,65d6bb0e977760de756971f7,65d6be55893f8acd779ea57c,0.054,0.054,1,105,267,58,1,twoone,,,,,,,,,,,,,,,,,,,,,,,,,,,,,,,,,,,,,,,,,,,,,,,,,,,,,,,,,,,,,,,,,,,,,,,,,,,,,,,,,,,,,,,,,,,,,,,,,,,,,,,,,,,,,,,,,,,,,,,,,,,,,,,,,,,,,,,,,
,,5ba85b3a46de410001ecf951,2024-02-21_21h24.54.555,kallum_motion_pilot,2023.2.2,Win32,60.24096386,5ba85b3a46de410001ecf951,65d6bb0e977760de756971f7,65d6be55893f8acd779ea57c,0.0542,0.0542,1,106,268,26,1,twoone,,,,,,,,,,,,,,,,,,,,,,,,,,,,,,,,,,,,,,,,,,,,,,,,,,,,,,,,,,,,,,,,,,,,,,,,,,,,,,,,,,,,,,,,,,,,,,,,,,,,,,,,,,,,,,,,,,,,,,,,,,,,,,,,,,,,,,,,,
,,5ba85b3a46de410001ecf951,2024-02-21_21h24.54.555,kallum_motion_pilot,2023.2.2,Win32,60.24096386,5ba85b3a46de410001ecf951,65d6bb0e977760de756971f7,65d6be55893f8acd779ea57c,0.0543,0.0543,1,107,269,110,1,eightsix,,,,,,,,,,,,,,,,,,,,,,,,,,,,,,,,,,,,,,,,,,,,,,,,,,,,,,,,,,,,,,,,,,,,,,,,,,,,,,,,,,,,,,,,,,,,,,,,,,,,,,,,,,,,,,,,,,,,,,,,,,,,,,,,,,,,,,,,,
,,5ba85b3a46de410001ecf951,2024-02-21_21h24.54.555,kallum_motion_pilot,2023.2.2,Win32,60.24096386,5ba85b3a46de410001ecf951,65d6bb0e977760de756971f7,65d6be55893f8acd779ea57c,0.0544,0.0545,1,108,270,92,1,sevenfive,,,,,,,,,,,,,,,,,,,,,,,,,,,,,,,,,,,,,,,,,,,,,,,,,,,,,,,,,,,,,,,,,,,,,,,,,,,,,,,,,,,,,,,,,,,,,,,,,,,,,,,,,,,,,,,,,,,,,,,,,,,,,,,,,,,,,,,,,
,,5ba85b3a46de410001ecf951,2024-02-21_21h24.54.555,kallum_motion_pilot,2023.2.2,Win32,60.24096386,5ba85b3a46de410001ecf951,65d6bb0e977760de756971f7,65d6be55893f8acd779ea57c,0.0546,0.0546,1,109,271,34,1,twoone,,,,,,,,,,,,,,,,,,,,,,,,,,,,,,,,,,,,,,,,,,,,,,,,,,,,,,,,,,,,,,,,,,,,,,,,,,,,,,,,,,,,,,,,,,,,,,,,,,,,,,,,,,,,,,,,,,,,,,,,,,,,,,,,,,,,,,,,,
,,5ba85b3a46de410001ecf951,2024-02-21_21h24.54.555,kallum_motion_pilot,2023.2.2,Win32,60.24096386,5ba85b3a46de410001ecf951,65d6bb0e977760de756971f7,65d6be55893f8acd779ea57c,0.0547,0.0547,1,110,272,51,1,twofour,,,,,,,,,,,,,,,,,,,,,,,,,,,,,,,,,,,,,,,,,,,,,,,,,,,,,,,,,,,,,,,,,,,,,,,,,,,,,,,,,,,,,,,,,,,,,,,,,,,,,,,,,,,,,,,,,,,,,,,,,,,,,,,,,,,,,,,,,
,,5ba85b3a46de410001ecf951,2024-02-21_21h24.54.555,kallum_motion_pilot,2023.2.2,Win32,60.24096386,5ba85b3a46de410001ecf951,65d6bb0e977760de756971f7,65d6be55893f8acd779ea57c,0.0548,0.0548,1,111,273,149,1,seveneight,,,,,,,,,,,,,,,,,,,,,,,,,,,,,,,,,,,,,,,,,,,,,,,,,,,,,,,,,,,,,,,,,,,,,,,,,,,,,,,,,,,,,,,,,,,,,,,,,,,,,,,,,,,,,,,,,,,,,,,,,,,,,,,,,,,,,,,,,
,,5ba85b3a46de410001ecf951,2024-02-21_21h24.54.555,kallum_motion_pilot,2023.2.2,Win32,60.24096386,5ba85b3a46de410001ecf951,65d6bb0e977760de756971f7,65d6be55893f8acd779ea57c,0.0549,0.055,1,112,274,128,1,fivesix,,,,,,,,,,,,,,,,,,,,,,,,,,,,,,,,,,,,,,,,,,,,,,,,,,,,,,,,,,,,,,,,,,,,,,,,,,,,,,,,,,,,,,,,,,,,,,,,,,,,,,,,,,,,,,,,,,,,,,,,,,,,,,,,,,,,,,,,,
,,5ba85b3a46de410001ecf951,2024-02-21_21h24.54.555,kallum_motion_pilot,2023.2.2,Win32,60.24096386,5ba85b3a46de410001ecf951,65d6bb0e977760de756971f7,65d6be55893f8acd779ea57c,0.055,0.0551,1,113,275,28,1,threeone,,,,,,,,,,,,,,,,,,,,,,,,,,,,,,,,,,,,,,,,,,,,,,,,,,,,,,,,,,,,,,,,,,,,,,,,,,,,,,,,,,,,,,,,,,,,,,,,,,,,,,,,,,,,,,,,,,,,,,,,,,,,,,,,,,,,,,,,,
,,5ba85b3a46de410001ecf951,2024-02-21_21h24.54.555,kallum_motion_pilot,2023.2.2,Win32,60.24096386,5ba85b3a46de410001ecf951,65d6bb0e977760de756971f7,65d6be55893f8acd779ea57c,0.0552,0.0552,1,114,276,24,1,onetwo,,,,,,,,,,,,,,,,,,,,,,,,,,,,,,,,,,,,,,,,,,,,,,,,,,,,,,,,,,,,,,,,,,,,,,,,,,,,,,,,,,,,,,,,,,,,,,,,,,,,,,,,,,,,,,,,,,,,,,,,,,,,,,,,,,,,,,,,,
,,5ba85b3a46de410001ecf951,2024-02-21_21h24.54.555,kallum_motion_pilot,2023.2.2,Win32,60.24096386,5ba85b3a46de410001ecf951,65d6bb0e977760de756971f7,65d6be55893f8acd779ea57c,0.0553,0.0553,1,115,277,16,1,onetwo,,,,,,,,,,,,,,,,,,,,,,,,,,,,,,,,,,,,,,,,,,,,,,,,,,,,,,,,,,,,,,,,,,,,,,,,,,,,,,,,,,,,,,,,,,,,,,,,,,,,,,,,,,,,,,,,,,,,,,,,,,,,,,,,,,,,,,,,,
