startup.started,startup.stopped,Prolific ID*,date,expName,psychopyVersion,OS,frameRate,participant,study_id,session,stimpositions.started,stimpositions.stopped,hardcoded_stimulus_positions.thisRepN,hardcoded_stimulus_positions.thisTrialN,hardcoded_stimulus_positions.thisN,hardcoded_stimulus_positions.thisIndex,hardcoded_stimulus_positions.ran,StimulusPos,stimorientation.started,stimorientation.stopped,prac_stimorientation_import_loop.thisRepN,prac_stimorientation_import_loop.thisTrialN,prac_stimorientation_import_loop.thisN,prac_stimorientation_import_loop.thisIndex,prac_stimorientation_import_loop.ran,Stimorientation,welcome_instr.started,welcome_instr.stopped,key_resp.keys,key_resp.rt,key_resp.duration,response_steppedout_1.started,response_steppedout_1.stopped,key_resp_20.keys,key_resp_20.rt,key_resp_20.duration,response_steppedout_2.started,response_steppedout_2.stopped,key_resp_19.keys,key_resp_19.rt,key_resp_19.duration,stim_response_instr.started,stim_response_instr.stopped,key_resp_15.keys,key_resp_15.rt,key_resp_15.duration,direction_instr_2.started,direction_instr_2.stopped,key_resp_9.keys,key_resp_9.rt,key_resp_9.duration,instr_prac.started,instr_prac.stopped,key_resp_10.keys,key_resp_10.rt,key_resp_10.duration,Stim1_display_prac.started,Stim1_display_prac.stopped,Ecc,Circle1_ori,Circle2_ori,response_prac.started,similarity,response_time,response_prac.stopped,mouse_5.x,mouse_5.y,mouse_5.leftButton,mouse_5.midButton,mouse_5.rightButton,mouse_5.clicked_name,responseprac_feedback.started,responseprac_feedback.stopped,summary2_prac.started,summary2_prac.stopped,mouse_6.x,mouse_6.y,mouse_6.leftButton,mouse_6.midButton,mouse_6.rightButton,mouse_6.clicked_name,duringprac.thisRepN,duringprac.thisTrialN,duringprac.thisN,duringprac.thisIndex,duringprac.ran,begin.started,begin.stopped,key_resp_22.keys,key_resp_22.rt,key_resp_22.duration,Stim1_display.started,Stim1_display.stopped,circle1_ori,circle2_ori,circle1_SF,circle2_SF,response.started,response.stopped,mouse.x,mouse.y,mouse.leftButton,mouse.midButton,mouse.rightButton,mouse.clicked_name,trialnumber,double_pass.thisRepN,double_pass.thisTrialN,double_pass.thisN,double_pass.thisIndex,double_pass.ran,double_pass.order,main_trial.thisRepN,main_trial.thisTrialN,main_trial.thisN,main_trial.thisIndex,main_trial.ran,main_trial.order,Trial_Counter,Catch,Frequencies,response_2.started,response_2.stopped,mouse_2.x,mouse_2.y,mouse_2.leftButton,mouse_2.midButton,mouse_2.rightButton,mouse_2.clicked_name,special_trial.started,special_trial.stopped,catch_1.started,catch_1.stopped,mouse_3.x,mouse_3.y,mouse_3.leftButton,mouse_3.midButton,mouse_3.rightButton,catchresponse,catchnumber,response_time_catch,response_sum.started,response_sum.stopped,mouse_11.x,mouse_11.y,mouse_11.leftButton,mouse_11.midButton,mouse_11.rightButton,flip_presentation_sequence_for_double_pass.started,flip_presentation_sequence_for_double_pass.stopped,goodbye.started,goodbye.stopped,key_resp_3.keys,key_resp_3.rt,key_resp_3.duration
0.0003,0.0003,5bc880109f7801000148601b,2024-02-22_13h00.54.649,kallum_motion_pilot,2023.2.2,Win32,142.8571429,5bc880109f7801000148601b,65d6bb0e977760de756971f7,65d6d4d811081d3e25dff681,,,,,,,,,,,,,,,,,,,,,,,,,,,,,,,,,,,,,,,,,,,,,,,,,,,,,,,,,,,,,,,,,,,,,,,,,,,,,,,,,,,,,,,,,,,,,,,,,,,,,,,,,,,,,,,,,,,,,,,,,,,,,,,,,,,,,,,,,,,,,,,,,
,,5bc880109f7801000148601b,2024-02-22_13h00.54.649,kallum_motion_pilot,2023.2.2,Win32,142.8571429,5bc880109f7801000148601b,65d6bb0e977760de756971f7,65d6d4d811081d3e25dff681,0.0139,0.014,0,0,0,11,1,twofour,,,,,,,,,,,,,,,,,,,,,,,,,,,,,,,,,,,,,,,,,,,,,,,,,,,,,,,,,,,,,,,,,,,,,,,,,,,,,,,,,,,,,,,,,,,,,,,,,,,,,,,,,,,,,,,,,,,,,,,,,,,,,,,,,,,,,,,,,
,,5bc880109f7801000148601b,2024-02-22_13h00.54.649,kallum_motion_pilot,2023.2.2,Win32,142.8571429,5bc880109f7801000148601b,65d6bb0e977760de756971f7,65d6d4d811081d3e25dff681,0.0141,0.0141,0,1,1,9,1,onethree,,,,,,,,,,,,,,,,,,,,,,,,,,,,,,,,,,,,,,,,,,,,,,,,,,,,,,,,,,,,,,,,,,,,,,,,,,,,,,,,,,,,,,,,,,,,,,,,,,,,,,,,,,,,,,,,,,,,,,,,,,,,,,,,,,,,,,,,,
,,5bc880109f7801000148601b,2024-02-22_13h00.54.649,kallum_motion_pilot,2023.2.2,Win32,142.8571429,5bc880109f7801000148601b,65d6bb0e977760de756971f7,65d6d4d811081d3e25dff681,0.0141,0.0142,0,2,2,42,1,twoone,,,,,,,,,,,,,,,,,,,,,,,,,,,,,,,,,,,,,,,,,,,,,,,,,,,,,,,,,,,,,,,,,,,,,,,,,,,,,,,,,,,,,,,,,,,,,,,,,,,,,,,,,,,,,,,,,,,,,,,,,,,,,,,,,,,,,,,,,
,,5bc880109f7801000148601b,2024-02-22_13h00.54.649,kallum_motion_pilot,2023.2.2,Win32,142.8571429,5bc880109f7801000148601b,65d6bb0e977760de756971f7,65d6d4d811081d3e25dff681,0.0143,0.0143,0,3,3,98,1,sixfive,,,,,,,,,,,,,,,,,,,,,,,,,,,,,,,,,,,,,,,,,,,,,,,,,,,,,,,,,,,,,,,,,,,,,,,,,,,,,,,,,,,,,,,,,,,,,,,,,,,,,,,,,,,,,,,,,,,,,,,,,,,,,,,,,,,,,,,,,
,,5bc880109f7801000148601b,2024-02-22_13h00.54.649,kallum_motion_pilot,2023.2.2,Win32,142.8571429,5bc880109f7801000148601b,65d6bb0e977760de756971f7,65d6d4d811081d3e25dff681,0.0143,0.0143,0,4,4,68,1,threeone,,,,,,,,,,,,,,,,,,,,,,,,,,,,,,,,,,,,,,,,,,,,,,,,,,,,,,,,,,,,,,,,,,,,,,,,,,,,,,,,,,,,,,,,,,,,,,,,,,,,,,,,,,,,,,,,,,,,,,,,,,,,,,,,,,,,,,,,,
,,5bc880109f7801000148601b,2024-02-22_13h00.54.649,kallum_motion_pilot,2023.2.2,Win32,142.8571429,5bc880109f7801000148601b,65d6bb0e977760de756971f7,65d6d4d811081d3e25dff681,0.0144,0.0144,0,5,5,99,1,sixeight,,,,,,,,,,,,,,,,,,,,,,,,,,,,,,,,,,,,,,,,,,,,,,,,,,,,,,,,,,,,,,,,,,,,,,,,,,,,,,,,,,,,,,,,,,,,,,,,,,,,,,,,,,,,,,,,,,,,,,,,,,,,,,,,,,,,,,,,,
,,5bc880109f7801000148601b,2024-02-22_13h00.54.649,kallum_motion_pilot,2023.2.2,Win32,142.8571429,5bc880109f7801000148601b,65d6bb0e977760de756971f7,65d6d4d811081d3e25dff681,0.0144,0.0145,0,6,6,18,1,twoone,,,,,,,,,,,,,,,,,,,,,,,,,,,,,,,,,,,,,,,,,,,,,,,,,,,,,,,,,,,,,,,,,,,,,,,,,,,,,,,,,,,,,,,,,,,,,,,,,,,,,,,,,,,,,,,,,,,,,,,,,,,,,,,,,,,,,,,,,
,,5bc880109f7801000148601b,2024-02-22_13h00.54.649,kallum_motion_pilot,2023.2.2,Win32,142.8571429,5bc880109f7801000148601b,65d6bb0e977760de756971f7,65d6d4d811081d3e25dff681,0.0145,0.0145,0,7,7,142,1,eightsix,,,,,,,,,,,,,,,,,,,,,,,,,,,,,,,,,,,,,,,,,,,,,,,,,,,,,,,,,,,,,,,,,,,,,,,,,,,,,,,,,,,,,,,,,,,,,,,,,,,,,,,,,,,,,,,,,,,,,,,,,,,,,,,,,,,,,,,,,
,,5bc880109f7801000148601b,2024-02-22_13h00.54.649,kallum_motion_pilot,2023.2.2,Win32,142.8571429,5bc880109f7801000148601b,65d6bb0e977760de756971f7,65d6d4d811081d3e25dff681,0.0145,0.0145,0,8,8,83,1,sixeight,,,,,,,,,,,,,,,,,,,,,,,,,,,,,,,,,,,,,,,,,,,,,,,,,,,,,,,,,,,,,,,,,,,,,,,,,,,,,,,,,,,,,,,,,,,,,,,,,,,,,,,,,,,,,,,,,,,,,,,,,,,,,,,,,,,,,,,,,
,,5bc880109f7801000148601b,2024-02-22_13h00.54.649,kallum_motion_pilot,2023.2.2,Win32,142.8571429,5bc880109f7801000148601b,65d6bb0e977760de756971f7,65d6d4d811081d3e25dff681,0.0146,0.0146,0,9,9,66,1,twoone,,,,,,,,,,,,,,,,,,,,,,,,,,,,,,,,,,,,,,,,,,,,,,,,,,,,,,,,,,,,,,,,,,,,,,,,,,,,,,,,,,,,,,,,,,,,,,,,,,,,,,,,,,,,,,,,,,,,,,,,,,,,,,,,,,,,,,,,,
,,5bc880109f7801000148601b,2024-02-22_13h00.54.649,kallum_motion_pilot,2023.2.2,Win32,142.8571429,5bc880109f7801000148601b,65d6bb0e977760de756971f7,65d6d4d811081d3e25dff681,0.0152,0.0152,0,10,10,120,1,fivesix,,,,,,,,,,,,,,,,,,,,,,,,,,,,,,,,,,,,,,,,,,,,,,,,,,,,,,,,,,,,,,,,,,,,,,,,,,,,,,,,,,,,,,,,,,,,,,,,,,,,,,,,,,,,,,,,,,,,,,,,,,,,,,,,,,,,,,,,,
,,5bc880109f7801000148601b,2024-02-22_13h00.54.649,kallum_motion_pilot,2023.2.2,Win32,142.8571429,5bc880109f7801000148601b,65d6bb0e977760de756971f7,65d6d4d811081d3e25dff681,0.0152,0.0152,0,11,11,123,1,sixeight,,,,,,,,,,,,,,,,,,,,,,,,,,,,,,,,,,,,,,,,,,,,,,,,,,,,,,,,,,,,,,,,,,,,,,,,,,,,,,,,,,,,,,,,,,,,,,,,,,,,,,,,,,,,,,,,,,,,,,,,,,,,,,,,,,,,,,,,,
,,5bc880109f7801000148601b,2024-02-22_13h00.54.649,kallum_motion_pilot,2023.2.2,Win32,142.8571429,5bc880109f7801000148601b,65d6bb0e977760de756971f7,65d6d4d811081d3e25dff681,0.0152,0.0153,0,12,12,15,1,fourthree,,,,,,,,,,,,,,,,,,,,,,,,,,,,,,,,,,,,,,,,,,,,,,,,,,,,,,,,,,,,,,,,,,,,,,,,,,,,,,,,,,,,,,,,,,,,,,,,,,,,,,,,,,,,,,,,,,,,,,,,,,,,,,,,,,,,,,,,,
,,5bc880109f7801000148601b,2024-02-22_13h00.54.649,kallum_motion_pilot,2023.2.2,Win32,142.8571429,5bc880109f7801000148601b,65d6bb0e977760de756971f7,65d6d4d811081d3e25dff681,0.0153,0.0153,0,13,13,94,1,eightsix,,,,,,,,,,,,,,,,,,,,,,,,,,,,,,,,,,,,,,,,,,,,,,,,,,,,,,,,,,,,,,,,,,,,,,,,,,,,,,,,,,,,,,,,,,,,,,,,,,,,,,,,,,,,,,,,,,,,,,,,,,,,,,,,,,,,,,,,,
,,5bc880109f7801000148601b,2024-02-22_13h00.54.649,kallum_motion_pilot,2023.2.2,Win32,142.8571429,5bc880109f7801000148601b,65d6bb0e977760de756971f7,65d6d4d811081d3e25dff681,0.0153,0.0154,0,14,14,69,1,threefour,,,,,,,,,,,,,,,,,,,,,,,,,,,,,,,,,,,,,,,,,,,,,,,,,,,,,,,,,,,,,,,,,,,,,,,,,,,,,,,,,,,,,,,,,,,,,,,,,,,,,,,,,,,,,,,,,,,,,,,,,,,,,,,,,,,,,,,,,
,,5bc880109f7801000148601b,2024-02-22_13h00.54.649,kallum_motion_pilot,2023.2.2,Win32,142.8571429,5bc880109f7801000148601b,65d6bb0e977760de756971f7,65d6d4d811081d3e25dff681,0.0154,0.0155,0,15,15,45,1,threefour,,,,,,,,,,,,,,,,,,,,,,,,,,,,,,,,,,,,,,,,,,,,,,,,,,,,,,,,,,,,,,,,,,,,,,,,,,,,,,,,,,,,,,,,,,,,,,,,,,,,,,,,,,,,,,,,,,,,,,,,,,,,,,,,,,,,,,,,,
,,5bc880109f7801000148601b,2024-02-22_13h00.54.649,kallum_motion_pilot,2023.2.2,Win32,142.8571429,5bc880109f7801000148601b,65d6bb0e977760de756971f7,65d6d4d811081d3e25dff681,0.0155,0.0155,0,16,16,93,1,seveneight,,,,,,,,,,,,,,,,,,,,,,,,,,,,,,,,,,,,,,,,,,,,,,,,,,,,,,,,,,,,,,,,,,,,,,,,,,,,,,,,,,,,,,,,,,,,,,,,,,,,,,,,,,,,,,,,,,,,,,,,,,,,,,,,,,,,,,,,,
,,5bc880109f7801000148601b,2024-02-22_13h00.54.649,kallum_motion_pilot,2023.2.2,Win32,142.8571429,5bc880109f7801000148601b,65d6bb0e977760de756971f7,65d6d4d811081d3e25dff681,0.0156,0.0156,0,17,17,114,1,sixfive,,,,,,,,,,,,,,,,,,,,,,,,,,,,,,,,,,,,,,,,,,,,,,,,,,,,,,,,,,,,,,,,,,,,,,,,,,,,,,,,,,,,,,,,,,,,,,,,,,,,,,,,,,,,,,,,,,,,,,,,,,,,,,,,,,,,,,,,,
,,5bc880109f7801000148601b,2024-02-22_13h00.54.649,kallum_motion_pilot,2023.2.2,Win32,142.8571429,5bc880109f7801000148601b,65d6bb0e977760de756971f7,65d6d4d811081d3e25dff681,0.0156,0.0156,0,18,18,146,1,sixfive,,,,,,,,,,,,,,,,,,,,,,,,,,,,,,,,,,,,,,,,,,,,,,,,,,,,,,,,,,,,,,,,,,,,,,,,,,,,,,,,,,,,,,,,,,,,,,,,,,,,,,,,,,,,,,,,,,,,,,,,,,,,,,,,,,,,,,,,,
,,5bc880109f7801000148601b,2024-02-22_13h00.54.649,kallum_motion_pilot,2023.2.2,Win32,142.8571429,5bc880109f7801000148601b,65d6bb0e977760de756971f7,65d6d4d811081d3e25dff681,0.0157,0.0157,0,19,19,151,1,eightseven,,,,,,,,,,,,,,,,,,,,,,,,,,,,,,,,,,,,,,,,,,,,,,,,,,,,,,,,,,,,,,,,,,,,,,,,,,,,,,,,,,,,,,,,,,,,,,,,,,,,,,,,,,,,,,,,,,,,,,,,,,,,,,,,,,,,,,,,,
,,5bc880109f7801000148601b,2024-02-22_13h00.54.649,kallum_motion_pilot,2023.2.2,Win32,142.8571429,5bc880109f7801000148601b,65d6bb0e977760de756971f7,65d6d4d811081d3e25dff681,0.0157,0.0157,0,20,20,160,1,fivesix,,,,,,,,,,,,,,,,,,,,,,,,,,,,,,,,,,,,,,,,,,,,,,,,,,,,,,,,,,,,,,,,,,,,,,,,,,,,,,,,,,,,,,,,,,,,,,,,,,,,,,,,,,,,,,,,,,,,,,,,,,,,,,,,,,,,,,,,,
,,5bc880109f7801000148601b,2024-02-22_13h00.54.649,kallum_motion_pilot,2023.2.2,Win32,142.8571429,5bc880109f7801000148601b,65d6bb0e977760de756971f7,65d6d4d811081d3e25dff681,0.0157,0.0157,0,21,21,108,1,sevenfive,,,,,,,,,,,,,,,,,,,,,,,,,,,,,,,,,,,,,,,,,,,,,,,,,,,,,,,,,,,,,,,,,,,,,,,,,,,,,,,,,,,,,,,,,,,,,,,,,,,,,,,,,,,,,,,,,,,,,,,,,,,,,,,,,,,,,,,,,
,,5bc880109f7801000148601b,2024-02-22_13h00.54.649,kallum_motion_pilot,2023.2.2,Win32,142.8571429,5bc880109f7801000148601b,65d6bb0e977760de756971f7,65d6d4d811081d3e25dff681,0.0158,0.0158,0,22,22,61,1,threefour,,,,,,,,,,,,,,,,,,,,,,,,,,,,,,,,,,,,,,,,,,,,,,,,,,,,,,,,,,,,,,,,,,,,,,,,,,,,,,,,,,,,,,,,,,,,,,,,,,,,,,,,,,,,,,,,,,,,,,,,,,,,,,,,,,,,,,,,,
,,5bc880109f7801000148601b,2024-02-22_13h00.54.649,kallum_motion_pilot,2023.2.2,Win32,142.8571429,5bc880109f7801000148601b,65d6bb0e977760de756971f7,65d6d4d811081d3e25dff681,0.0158,0.0159,0,23,23,118,1,eightsix,,,,,,,,,,,,,,,,,,,,,,,,,,,,,,,,,,,,,,,,,,,,,,,,,,,,,,,,,,,,,,,,,,,,,,,,,,,,,,,,,,,,,,,,,,,,,,,,,,,,,,,,,,,,,,,,,,,,,,,,,,,,,,,,,,,,,,,,,
,,5bc880109f7801000148601b,2024-02-22_13h00.54.649,kallum_motion_pilot,2023.2.2,Win32,142.8571429,5bc880109f7801000148601b,65d6bb0e977760de756971f7,65d6d4d811081d3e25dff681,0.0159,0.016,0,24,24,124,1,sevenfive,,,,,,,,,,,,,,,,,,,,,,,,,,,,,,,,,,,,,,,,,,,,,,,,,,,,,,,,,,,,,,,,,,,,,,,,,,,,,,,,,,,,,,,,,,,,,,,,,,,,,,,,,,,,,,,,,,,,,,,,,,,,,,,,,,,,,,,,,
,,5bc880109f7801000148601b,2024-02-22_13h00.54.649,kallum_motion_pilot,2023.2.2,Win32,142.8571429,5bc880109f7801000148601b,65d6bb0e977760de756971f7,65d6d4d811081d3e25dff681,0.016,0.016,0,25,25,80,1,fivesix,,,,,,,,,,,,,,,,,,,,,,,,,,,,,,,,,,,,,,,,,,,,,,,,,,,,,,,,,,,,,,,,,,,,,,,,,,,,,,,,,,,,,,,,,,,,,,,,,,,,,,,,,,,,,,,,,,,,,,,,,,,,,,,,,,,,,,,,,
,,5bc880109f7801000148601b,2024-02-22_13h00.54.649,kallum_motion_pilot,2023.2.2,Win32,142.8571429,5bc880109f7801000148601b,65d6bb0e977760de756971f7,65d6d4d811081d3e25dff681,0.016,0.016,0,26,26,133,1,seveneight,,,,,,,,,,,,,,,,,,,,,,,,,,,,,,,,,,,,,,,,,,,,,,,,,,,,,,,,,,,,,,,,,,,,,,,,,,,,,,,,,,,,,,,,,,,,,,,,,,,,,,,,,,,,,,,,,,,,,,,,,,,,,,,,,,,,,,,,,
,,5bc880109f7801000148601b,2024-02-22_13h00.54.649,kallum_motion_pilot,2023.2.2,Win32,142.8571429,5bc880109f7801000148601b,65d6bb0e977760de756971f7,65d6d4d811081d3e25dff681,0.0161,0.0161,0,27,27,46,1,fourtwo,,,,,,,,,,,,,,,,,,,,,,,,,,,,,,,,,,,,,,,,,,,,,,,,,,,,,,,,,,,,,,,,,,,,,,,,,,,,,,,,,,,,,,,,,,,,,,,,,,,,,,,,,,,,,,,,,,,,,,,,,,,,,,,,,,,,,,,,,
,,5bc880109f7801000148601b,2024-02-22_13h00.54.649,kallum_motion_pilot,2023.2.2,Win32,142.8571429,5bc880109f7801000148601b,65d6bb0e977760de756971f7,65d6d4d811081d3e25dff681,0.0161,0.0161,0,28,28,145,1,fiveseven,,,,,,,,,,,,,,,,,,,,,,,,,,,,,,,,,,,,,,,,,,,,,,,,,,,,,,,,,,,,,,,,,,,,,,,,,,,,,,,,,,,,,,,,,,,,,,,,,,,,,,,,,,,,,,,,,,,,,,,,,,,,,,,,,,,,,,,,,
,,5bc880109f7801000148601b,2024-02-22_13h00.54.649,kallum_motion_pilot,2023.2.2,Win32,142.8571429,5bc880109f7801000148601b,65d6bb0e977760de756971f7,65d6d4d811081d3e25dff681,0.0161,0.0162,0,29,29,115,1,sixeight,,,,,,,,,,,,,,,,,,,,,,,,,,,,,,,,,,,,,,,,,,,,,,,,,,,,,,,,,,,,,,,,,,,,,,,,,,,,,,,,,,,,,,,,,,,,,,,,,,,,,,,,,,,,,,,,,,,,,,,,,,,,,,,,,,,,,,,,,
,,5bc880109f7801000148601b,2024-02-22_13h00.54.649,kallum_motion_pilot,2023.2.2,Win32,142.8571429,5bc880109f7801000148601b,65d6bb0e977760de756971f7,65d6d4d811081d3e25dff681,0.0162,0.0162,0,30,30,48,1,onetwo,,,,,,,,,,,,,,,,,,,,,,,,,,,,,,,,,,,,,,,,,,,,,,,,,,,,,,,,,,,,,,,,,,,,,,,,,,,,,,,,,,,,,,,,,,,,,,,,,,,,,,,,,,,,,,,,,,,,,,,,,,,,,,,,,,,,,,,,,
,,5bc880109f7801000148601b,2024-02-22_13h00.54.649,kallum_motion_pilot,2023.2.2,Win32,142.8571429,5bc880109f7801000148601b,65d6bb0e977760de756971f7,65d6d4d811081d3e25dff681,0.0163,0.0163,0,31,31,60,1,threeone,,,,,,,,,,,,,,,,,,,,,,,,,,,,,,,,,,,,,,,,,,,,,,,,,,,,,,,,,,,,,,,,,,,,,,,,,,,,,,,,,,,,,,,,,,,,,,,,,,,,,,,,,,,,,,,,,,,,,,,,,,,,,,,,,,,,,,,,,
,,5bc880109f7801000148601b,2024-02-22_13h00.54.649,kallum_motion_pilot,2023.2.2,Win32,142.8571429,5bc880109f7801000148601b,65d6bb0e977760de756971f7,65d6d4d811081d3e25dff681,0.0163,0.0163,0,32,32,132,1,sevenfive,,,,,,,,,,,,,,,,,,,,,,,,,,,,,,,,,,,,,,,,,,,,,,,,,,,,,,,,,,,,,,,,,,,,,,,,,,,,,,,,,,,,,,,,,,,,,,,,,,,,,,,,,,,,,,,,,,,,,,,,,,,,,,,,,,,,,,,,,
,,5bc880109f7801000148601b,2024-02-22_13h00.54.649,kallum_motion_pilot,2023.2.2,Win32,142.8571429,5bc880109f7801000148601b,65d6bb0e977760de756971f7,65d6d4d811081d3e25dff681,0.0163,0.0163,0,33,33,19,1,twofour,,,,,,,,,,,,,,,,,,,,,,,,,,,,,,,,,,,,,,,,,,,,,,,,,,,,,,,,,,,,,,,,,,,,,,,,,,,,,,,,,,,,,,,,,,,,,,,,,,,,,,,,,,,,,,,,,,,,,,,,,,,,,,,,,,,,,,,,,
,,5bc880109f7801000148601b,2024-02-22_13h00.54.649,kallum_motion_pilot,2023.2.2,Win32,142.8571429,5bc880109f7801000148601b,65d6bb0e977760de756971f7,65d6d4d811081d3e25dff681,0.0164,0.0164,0,34,34,31,1,fourthree,,,,,,,,,,,,,,,,,,,,,,,,,,,,,,,,,,,,,,,,,,,,,,,,,,,,,,,,,,,,,,,,,,,,,,,,,,,,,,,,,,,,,,,,,,,,,,,,,,,,,,,,,,,,,,,,,,,,,,,,,,,,,,,,,,,,,,,,,
,,5bc880109f7801000148601b,2024-02-22_13h00.54.649,kallum_motion_pilot,2023.2.2,Win32,142.8571429,5bc880109f7801000148601b,65d6bb0e977760de756971f7,65d6d4d811081d3e25dff681,0.0164,0.0164,0,35,35,147,1,sixeight,,,,,,,,,,,,,,,,,,,,,,,,,,,,,,,,,,,,,,,,,,,,,,,,,,,,,,,,,,,,,,,,,,,,,,,,,,,,,,,,,,,,,,,,,,,,,,,,,,,,,,,,,,,,,,,,,,,,,,,,,,,,,,,,,,,,,,,,,
,,5bc880109f7801000148601b,2024-02-22_13h00.54.649,kallum_motion_pilot,2023.2.2,Win32,142.8571429,5bc880109f7801000148601b,65d6bb0e977760de756971f7,65d6d4d811081d3e25dff681,0.0164,0.0166,0,36,36,36,1,threeone,,,,,,,,,,,,,,,,,,,,,,,,,,,,,,,,,,,,,,,,,,,,,,,,,,,,,,,,,,,,,,,,,,,,,,,,,,,,,,,,,,,,,,,,,,,,,,,,,,,,,,,,,,,,,,,,,,,,,,,,,,,,,,,,,,,,,,,,,
,,5bc880109f7801000148601b,2024-02-22_13h00.54.649,kallum_motion_pilot,2023.2.2,Win32,142.8571429,5bc880109f7801000148601b,65d6bb0e977760de756971f7,65d6d4d811081d3e25dff681,0.0166,0.0166,0,37,37,77,1,threefour,,,,,,,,,,,,,,,,,,,,,,,,,,,,,,,,,,,,,,,,,,,,,,,,,,,,,,,,,,,,,,,,,,,,,,,,,,,,,,,,,,,,,,,,,,,,,,,,,,,,,,,,,,,,,,,,,,,,,,,,,,,,,,,,,,,,,,,,,
,,5bc880109f7801000148601b,2024-02-22_13h00.54.649,kallum_motion_pilot,2023.2.2,Win32,142.8571429,5bc880109f7801000148601b,65d6bb0e977760de756971f7,65d6d4d811081d3e25dff681,0.0166,0.0166,0,38,38,89,1,fiveseven,,,,,,,,,,,,,,,,,,,,,,,,,,,,,,,,,,,,,,,,,,,,,,,,,,,,,,,,,,,,,,,,,,,,,,,,,,,,,,,,,,,,,,,,,,,,,,,,,,,,,,,,,,,,,,,,,,,,,,,,,,,,,,,,,,,,,,,,,
,,5bc880109f7801000148601b,2024-02-22_13h00.54.649,kallum_motion_pilot,2023.2.2,Win32,142.8571429,5bc880109f7801000148601b,65d6bb0e977760de756971f7,65d6d4d811081d3e25dff681,0.0166,0.0167,0,39,39,106,1,sixfive,,,,,,,,,,,,,,,,,,,,,,,,,,,,,,,,,,,,,,,,,,,,,,,,,,,,,,,,,,,,,,,,,,,,,,,,,,,,,,,,,,,,,,,,,,,,,,,,,,,,,,,,,,,,,,,,,,,,,,,,,,,,,,,,,,,,,,,,,
,,5bc880109f7801000148601b,2024-02-22_13h00.54.649,kallum_motion_pilot,2023.2.2,Win32,142.8571429,5bc880109f7801000148601b,65d6bb0e977760de756971f7,65d6d4d811081d3e25dff681,0.0167,0.0167,0,40,40,81,1,fiveseven,,,,,,,,,,,,,,,,,,,,,,,,,,,,,,,,,,,,,,,,,,,,,,,,,,,,,,,,,,,,,,,,,,,,,,,,,,,,,,,,,,,,,,,,,,,,,,,,,,,,,,,,,,,,,,,,,,,,,,,,,,,,,,,,,,,,,,,,,
,,5bc880109f7801000148601b,2024-02-22_13h00.54.649,kallum_motion_pilot,2023.2.2,Win32,142.8571429,5bc880109f7801000148601b,65d6bb0e977760de756971f7,65d6d4d811081d3e25dff681,0.0167,0.0167,0,41,41,16,1,onetwo,,,,,,,,,,,,,,,,,,,,,,,,,,,,,,,,,,,,,,,,,,,,,,,,,,,,,,,,,,,,,,,,,,,,,,,,,,,,,,,,,,,,,,,,,,,,,,,,,,,,,,,,,,,,,,,,,,,,,,,,,,,,,,,,,,,,,,,,,
,,5bc880109f7801000148601b,2024-02-22_13h00.54.649,kallum_motion_pilot,2023.2.2,Win32,142.8571429,5bc880109f7801000148601b,65d6bb0e977760de756971f7,65d6d4d811081d3e25dff681,0.0168,0.0168,0,42,42,1,1,onethree,,,,,,,,,,,,,,,,,,,,,,,,,,,,,,,,,,,,,,,,,,,,,,,,,,,,,,,,,,,,,,,,,,,,,,,,,,,,,,,,,,,,,,,,,,,,,,,,,,,,,,,,,,,,,,,,,,,,,,,,,,,,,,,,,,,,,,,,,
,,5bc880109f7801000148601b,2024-02-22_13h00.54.649,kallum_motion_pilot,2023.2.2,Win32,142.8571429,5bc880109f7801000148601b,65d6bb0e977760de756971f7,65d6d4d811081d3e25dff681,0.0169,0.0169,0,43,43,29,1,threefour,,,,,,,,,,,,,,,,,,,,,,,,,,,,,,,,,,,,,,,,,,,,,,,,,,,,,,,,,,,,,,,,,,,,,,,,,,,,,,,,,,,,,,,,,,,,,,,,,,,,,,,,,,,,,,,,,,,,,,,,,,,,,,,,,,,,,,,,,
,,5bc880109f7801000148601b,2024-02-22_13h00.54.649,kallum_motion_pilot,2023.2.2,Win32,142.8571429,5bc880109f7801000148601b,65d6bb0e977760de756971f7,65d6d4d811081d3e25dff681,0.0169,0.0169,0,44,44,10,1,twoone,,,,,,,,,,,,,,,,,,,,,,,,,,,,,,,,,,,,,,,,,,,,,,,,,,,,,,,,,,,,,,,,,,,,,,,,,,,,,,,,,,,,,,,,,,,,,,,,,,,,,,,,,,,,,,,,,,,,,,,,,,,,,,,,,,,,,,,,,
,,5bc880109f7801000148601b,2024-02-22_13h00.54.649,kallum_motion_pilot,2023.2.2,Win32,142.8571429,5bc880109f7801000148601b,65d6bb0e977760de756971f7,65d6d4d811081d3e25dff681,0.017,0.017,0,45,45,125,1,seveneight,,,,,,,,,,,,,,,,,,,,,,,,,,,,,,,,,,,,,,,,,,,,,,,,,,,,,,,,,,,,,,,,,,,,,,,,,,,,,,,,,,,,,,,,,,,,,,,,,,,,,,,,,,,,,,,,,,,,,,,,,,,,,,,,,,,,,,,,,
,,5bc880109f7801000148601b,2024-02-22_13h00.54.649,kallum_motion_pilot,2023.2.2,Win32,142.8571429,5bc880109f7801000148601b,65d6bb0e977760de756971f7,65d6d4d811081d3e25dff681,0.017,0.017,0,46,46,28,1,threeone,,,,,,,,,,,,,,,,,,,,,,,,,,,,,,,,,,,,,,,,,,,,,,,,,,,,,,,,,,,,,,,,,,,,,,,,,,,,,,,,,,,,,,,,,,,,,,,,,,,,,,,,,,,,,,,,,,,,,,,,,,,,,,,,,,,,,,,,,
,,5bc880109f7801000148601b,2024-02-22_13h00.54.649,kallum_motion_pilot,2023.2.2,Win32,142.8571429,5bc880109f7801000148601b,65d6bb0e977760de756971f7,65d6d4d811081d3e25dff681,0.0171,0.0171,0,47,47,74,1,twoone,,,,,,,,,,,,,,,,,,,,,,,,,,,,,,,,,,,,,,,,,,,,,,,,,,,,,,,,,,,,,,,,,,,,,,,,,,,,,,,,,,,,,,,,,,,,,,,,,,,,,,,,,,,,,,,,,,,,,,,,,,,,,,,,,,,,,,,,,
,,5bc880109f7801000148601b,2024-02-22_13h00.54.649,kallum_motion_pilot,2023.2.2,Win32,142.8571429,5bc880109f7801000148601b,65d6bb0e977760de756971f7,65d6d4d811081d3e25dff681,0.0171,0.0171,0,48,48,127,1,eightseven,,,,,,,,,,,,,,,,,,,,,,,,,,,,,,,,,,,,,,,,,,,,,,,,,,,,,,,,,,,,,,,,,,,,,,,,,,,,,,,,,,,,,,,,,,,,,,,,,,,,,,,,,,,,,,,,,,,,,,,,,,,,,,,,,,,,,,,,,
,,5bc880109f7801000148601b,2024-02-22_13h00.54.649,kallum_motion_pilot,2023.2.2,Win32,142.8571429,5bc880109f7801000148601b,65d6bb0e977760de756971f7,65d6d4d811081d3e25dff681,0.0172,0.0172,0,49,49,149,1,seveneight,,,,,,,,,,,,,,,,,,,,,,,,,,,,,,,,,,,,,,,,,,,,,,,,,,,,,,,,,,,,,,,,,,,,,,,,,,,,,,,,,,,,,,,,,,,,,,,,,,,,,,,,,,,,,,,,,,,,,,,,,,,,,,,,,,,,,,,,,
,,5bc880109f7801000148601b,2024-02-22_13h00.54.649,kallum_motion_pilot,2023.2.2,Win32,142.8571429,5bc880109f7801000148601b,65d6bb0e977760de756971f7,65d6d4d811081d3e25dff681,0.0172,0.0172,0,50,50,50,1,twoone,,,,,,,,,,,,,,,,,,,,,,,,,,,,,,,,,,,,,,,,,,,,,,,,,,,,,,,,,,,,,,,,,,,,,,,,,,,,,,,,,,,,,,,,,,,,,,,,,,,,,,,,,,,,,,,,,,,,,,,,,,,,,,,,,,,,,,,,,
,,5bc880109f7801000148601b,2024-02-22_13h00.54.649,kallum_motion_pilot,2023.2.2,Win32,142.8571429,5bc880109f7801000148601b,65d6bb0e977760de756971f7,65d6d4d811081d3e25dff681,0.0172,0.0173,0,51,51,137,1,fiveseven,,,,,,,,,,,,,,,,,,,,,,,,,,,,,,,,,,,,,,,,,,,,,,,,,,,,,,,,,,,,,,,,,,,,,,,,,,,,,,,,,,,,,,,,,,,,,,,,,,,,,,,,,,,,,,,,,,,,,,,,,,,,,,,,,,,,,,,,,
,,5bc880109f7801000148601b,2024-02-22_13h00.54.649,kallum_motion_pilot,2023.2.2,Win32,142.8571429,5bc880109f7801000148601b,65d6bb0e977760de756971f7,65d6d4d811081d3e25dff681,0.0174,0.0174,0,52,52,73,1,onethree,,,,,,,,,,,,,,,,,,,,,,,,,,,,,,,,,,,,,,,,,,,,,,,,,,,,,,,,,,,,,,,,,,,,,,,,,,,,,,,,,,,,,,,,,,,,,,,,,,,,,,,,,,,,,,,,,,,,,,,,,,,,,,,,,,,,,,,,,
,,5bc880109f7801000148601b,2024-02-22_13h00.54.649,kallum_motion_pilot,2023.2.2,Win32,142.8571429,5bc880109f7801000148601b,65d6bb0e977760de756971f7,65d6d4d811081d3e25dff681,0.0174,0.0174,0,53,53,78,1,fourtwo,,,,,,,,,,,,,,,,,,,,,,,,,,,,,,,,,,,,,,,,,,,,,,,,,,,,,,,,,,,,,,,,,,,,,,,,,,,,,,,,,,,,,,,,,,,,,,,,,,,,,,,,,,,,,,,,,,,,,,,,,,,,,,,,,,,,,,,,,
,,5bc880109f7801000148601b,2024-02-22_13h00.54.649,kallum_motion_pilot,2023.2.2,Win32,142.8571429,5bc880109f7801000148601b,65d6bb0e977760de756971f7,65d6d4d811081d3e25dff681,0.0175,0.0175,0,54,54,2,1,twoone,,,,,,,,,,,,,,,,,,,,,,,,,,,,,,,,,,,,,,,,,,,,,,,,,,,,,,,,,,,,,,,,,,,,,,,,,,,,,,,,,,,,,,,,,,,,,,,,,,,,,,,,,,,,,,,,,,,,,,,,,,,,,,,,,,,,,,,,,
,,5bc880109f7801000148601b,2024-02-22_13h00.54.649,kallum_motion_pilot,2023.2.2,Win32,142.8571429,5bc880109f7801000148601b,65d6bb0e977760de756971f7,65d6d4d811081d3e25dff681,0.0175,0.0175,0,55,55,96,1,fivesix,,,,,,,,,,,,,,,,,,,,,,,,,,,,,,,,,,,,,,,,,,,,,,,,,,,,,,,,,,,,,,,,,,,,,,,,,,,,,,,,,,,,,,,,,,,,,,,,,,,,,,,,,,,,,,,,,,,,,,,,,,,,,,,,,,,,,,,,,
,,5bc880109f7801000148601b,2024-02-22_13h00.54.649,kallum_motion_pilot,2023.2.2,Win32,142.8571429,5bc880109f7801000148601b,65d6bb0e977760de756971f7,65d6d4d811081d3e25dff681,0.0176,0.0176,0,56,56,113,1,fiveseven,,,,,,,,,,,,,,,,,,,,,,,,,,,,,,,,,,,,,,,,,,,,,,,,,,,,,,,,,,,,,,,,,,,,,,,,,,,,,,,,,,,,,,,,,,,,,,,,,,,,,,,,,,,,,,,,,,,,,,,,,,,,,,,,,,,,,,,,,
,,5bc880109f7801000148601b,2024-02-22_13h00.54.649,kallum_motion_pilot,2023.2.2,Win32,142.8571429,5bc880109f7801000148601b,65d6bb0e977760de756971f7,65d6d4d811081d3e25dff681,0.0176,0.0176,0,57,57,104,1,fivesix,,,,,,,,,,,,,,,,,,,,,,,,,,,,,,,,,,,,,,,,,,,,,,,,,,,,,,,,,,,,,,,,,,,,,,,,,,,,,,,,,,,,,,,,,,,,,,,,,,,,,,,,,,,,,,,,,,,,,,,,,,,,,,,,,,,,,,,,,
,,5bc880109f7801000148601b,2024-02-22_13h00.54.649,kallum_motion_pilot,2023.2.2,Win32,142.8571429,5bc880109f7801000148601b,65d6bb0e977760de756971f7,65d6d4d811081d3e25dff681,0.0176,0.0176,0,58,58,90,1,sixfive,,,,,,,,,,,,,,,,,,,,,,,,,,,,,,,,,,,,,,,,,,,,,,,,,,,,,,,,,,,,,,,,,,,,,,,,,,,,,,,,,,,,,,,,,,,,,,,,,,,,,,,,,,,,,,,,,,,,,,,,,,,,,,,,,,,,,,,,,
,,5bc880109f7801000148601b,2024-02-22_13h00.54.649,kallum_motion_pilot,2023.2.2,Win32,142.8571429,5bc880109f7801000148601b,65d6bb0e977760de756971f7,65d6d4d811081d3e25dff681,0.0177,0.0177,0,59,59,130,1,sixfive,,,,,,,,,,,,,,,,,,,,,,,,,,,,,,,,,,,,,,,,,,,,,,,,,,,,,,,,,,,,,,,,,,,,,,,,,,,,,,,,,,,,,,,,,,,,,,,,,,,,,,,,,,,,,,,,,,,,,,,,,,,,,,,,,,,,,,,,,
,,5bc880109f7801000148601b,2024-02-22_13h00.54.649,kallum_motion_pilot,2023.2.2,Win32,142.8571429,5bc880109f7801000148601b,65d6bb0e977760de756971f7,65d6d4d811081d3e25dff681,0.0178,0.0178,0,60,60,7,1,fourthree,,,,,,,,,,,,,,,,,,,,,,,,,,,,,,,,,,,,,,,,,,,,,,,,,,,,,,,,,,,,,,,,,,,,,,,,,,,,,,,,,,,,,,,,,,,,,,,,,,,,,,,,,,,,,,,,,,,,,,,,,,,,,,,,,,,,,,,,,
,,5bc880109f7801000148601b,2024-02-22_13h00.54.649,kallum_motion_pilot,2023.2.2,Win32,142.8571429,5bc880109f7801000148601b,65d6bb0e977760de756971f7,65d6d4d811081d3e25dff681,0.0178,0.0178,0,61,61,67,1,twofour,,,,,,,,,,,,,,,,,,,,,,,,,,,,,,,,,,,,,,,,,,,,,,,,,,,,,,,,,,,,,,,,,,,,,,,,,,,,,,,,,,,,,,,,,,,,,,,,,,,,,,,,,,,,,,,,,,,,,,,,,,,,,,,,,,,,,,,,,
,,5bc880109f7801000148601b,2024-02-22_13h00.54.649,kallum_motion_pilot,2023.2.2,Win32,142.8571429,5bc880109f7801000148601b,65d6bb0e977760de756971f7,65d6d4d811081d3e25dff681,0.0178,0.0179,0,62,62,91,1,sixeight,,,,,,,,,,,,,,,,,,,,,,,,,,,,,,,,,,,,,,,,,,,,,,,,,,,,,,,,,,,,,,,,,,,,,,,,,,,,,,,,,,,,,,,,,,,,,,,,,,,,,,,,,,,,,,,,,,,,,,,,,,,,,,,,,,,,,,,,,
,,5bc880109f7801000148601b,2024-02-22_13h00.54.649,kallum_motion_pilot,2023.2.2,Win32,142.8571429,5bc880109f7801000148601b,65d6bb0e977760de756971f7,65d6d4d811081d3e25dff681,0.018,0.018,0,63,63,97,1,fiveseven,,,,,,,,,,,,,,,,,,,,,,,,,,,,,,,,,,,,,,,,,,,,,,,,,,,,,,,,,,,,,,,,,,,,,,,,,,,,,,,,,,,,,,,,,,,,,,,,,,,,,,,,,,,,,,,,,,,,,,,,,,,,,,,,,,,,,,,,,
,,5bc880109f7801000148601b,2024-02-22_13h00.54.649,kallum_motion_pilot,2023.2.2,Win32,142.8571429,5bc880109f7801000148601b,65d6bb0e977760de756971f7,65d6d4d811081d3e25dff681,0.018,0.018,0,64,64,111,1,eightseven,,,,,,,,,,,,,,,,,,,,,,,,,,,,,,,,,,,,,,,,,,,,,,,,,,,,,,,,,,,,,,,,,,,,,,,,,,,,,,,,,,,,,,,,,,,,,,,,,,,,,,,,,,,,,,,,,,,,,,,,,,,,,,,,,,,,,,,,,
,,5bc880109f7801000148601b,2024-02-22_13h00.54.649,kallum_motion_pilot,2023.2.2,Win32,142.8571429,5bc880109f7801000148601b,65d6bb0e977760de756971f7,65d6d4d811081d3e25dff681,0.0181,0.0181,0,65,65,143,1,eightseven,,,,,,,,,,,,,,,,,,,,,,,,,,,,,,,,,,,,,,,,,,,,,,,,,,,,,,,,,,,,,,,,,,,,,,,,,,,,,,,,,,,,,,,,,,,,,,,,,,,,,,,,,,,,,,,,,,,,,,,,,,,,,,,,,,,,,,,,,
,,5bc880109f7801000148601b,2024-02-22_13h00.54.649,kallum_motion_pilot,2023.2.2,Win32,142.8571429,5bc880109f7801000148601b,65d6bb0e977760de756971f7,65d6d4d811081d3e25dff681,0.0181,0.0181,0,66,66,95,1,eightseven,,,,,,,,,,,,,,,,,,,,,,,,,,,,,,,,,,,,,,,,,,,,,,,,,,,,,,,,,,,,,,,,,,,,,,,,,,,,,,,,,,,,,,,,,,,,,,,,,,,,,,,,,,,,,,,,,,,,,,,,,,,,,,,,,,,,,,,,,
,,5bc880109f7801000148601b,2024-02-22_13h00.54.649,kallum_motion_pilot,2023.2.2,Win32,142.8571429,5bc880109f7801000148601b,65d6bb0e977760de756971f7,65d6d4d811081d3e25dff681,0.0182,0.0182,0,67,67,6,1,fourtwo,,,,,,,,,,,,,,,,,,,,,,,,,,,,,,,,,,,,,,,,,,,,,,,,,,,,,,,,,,,,,,,,,,,,,,,,,,,,,,,,,,,,,,,,,,,,,,,,,,,,,,,,,,,,,,,,,,,,,,,,,,,,,,,,,,,,,,,,,
,,5bc880109f7801000148601b,2024-02-22_13h00.54.649,kallum_motion_pilot,2023.2.2,Win32,142.8571429,5bc880109f7801000148601b,65d6bb0e977760de756971f7,65d6d4d811081d3e25dff681,0.0183,0.0183,0,68,68,3,1,twofour,,,,,,,,,,,,,,,,,,,,,,,,,,,,,,,,,,,,,,,,,,,,,,,,,,,,,,,,,,,,,,,,,,,,,,,,,,,,,,,,,,,,,,,,,,,,,,,,,,,,,,,,,,,,,,,,,,,,,,,,,,,,,,,,,,,,,,,,,
,,5bc880109f7801000148601b,2024-02-22_13h00.54.649,kallum_motion_pilot,2023.2.2,Win32,142.8571429,5bc880109f7801000148601b,65d6bb0e977760de756971f7,65d6d4d811081d3e25dff681,0.0183,0.0183,0,69,69,121,1,fiveseven,,,,,,,,,,,,,,,,,,,,,,,,,,,,,,,,,,,,,,,,,,,,,,,,,,,,,,,,,,,,,,,,,,,,,,,,,,,,,,,,,,,,,,,,,,,,,,,,,,,,,,,,,,,,,,,,,,,,,,,,,,,,,,,,,,,,,,,,,
,,5bc880109f7801000148601b,2024-02-22_13h00.54.649,kallum_motion_pilot,2023.2.2,Win32,142.8571429,5bc880109f7801000148601b,65d6bb0e977760de756971f7,65d6d4d811081d3e25dff681,0.0184,0.0184,0,70,70,92,1,sevenfive,,,,,,,,,,,,,,,,,,,,,,,,,,,,,,,,,,,,,,,,,,,,,,,,,,,,,,,,,,,,,,,,,,,,,,,,,,,,,,,,,,,,,,,,,,,,,,,,,,,,,,,,,,,,,,,,,,,,,,,,,,,,,,,,,,,,,,,,,
,,5bc880109f7801000148601b,2024-02-22_13h00.54.649,kallum_motion_pilot,2023.2.2,Win32,142.8571429,5bc880109f7801000148601b,65d6bb0e977760de756971f7,65d6d4d811081d3e25dff681,0.0185,0.0185,0,71,71,119,1,eightseven,,,,,,,,,,,,,,,,,,,,,,,,,,,,,,,,,,,,,,,,,,,,,,,,,,,,,,,,,,,,,,,,,,,,,,,,,,,,,,,,,,,,,,,,,,,,,,,,,,,,,,,,,,,,,,,,,,,,,,,,,,,,,,,,,,,,,,,,,
,,5bc880109f7801000148601b,2024-02-22_13h00.54.649,kallum_motion_pilot,2023.2.2,Win32,142.8571429,5bc880109f7801000148601b,65d6bb0e977760de756971f7,65d6d4d811081d3e25dff681,0.0185,0.0185,0,72,72,156,1,sevenfive,,,,,,,,,,,,,,,,,,,,,,,,,,,,,,,,,,,,,,,,,,,,,,,,,,,,,,,,,,,,,,,,,,,,,,,,,,,,,,,,,,,,,,,,,,,,,,,,,,,,,,,,,,,,,,,,,,,,,,,,,,,,,,,,,,,,,,,,,
,,5bc880109f7801000148601b,2024-02-22_13h00.54.649,kallum_motion_pilot,2023.2.2,Win32,142.8571429,5bc880109f7801000148601b,65d6bb0e977760de756971f7,65d6d4d811081d3e25dff681,0.0185,0.0186,0,73,73,62,1,fourtwo,,,,,,,,,,,,,,,,,,,,,,,,,,,,,,,,,,,,,,,,,,,,,,,,,,,,,,,,,,,,,,,,,,,,,,,,,,,,,,,,,,,,,,,,,,,,,,,,,,,,,,,,,,,,,,,,,,,,,,,,,,,,,,,,,,,,,,,,,
,,5bc880109f7801000148601b,2024-02-22_13h00.54.649,kallum_motion_pilot,2023.2.2,Win32,142.8571429,5bc880109f7801000148601b,65d6bb0e977760de756971f7,65d6d4d811081d3e25dff681,0.0186,0.0186,0,74,74,102,1,eightsix,,,,,,,,,,,,,,,,,,,,,,,,,,,,,,,,,,,,,,,,,,,,,,,,,,,,,,,,,,,,,,,,,,,,,,,,,,,,,,,,,,,,,,,,,,,,,,,,,,,,,,,,,,,,,,,,,,,,,,,,,,,,,,,,,,,,,,,,,
,,5bc880109f7801000148601b,2024-02-22_13h00.54.649,kallum_motion_pilot,2023.2.2,Win32,142.8571429,5bc880109f7801000148601b,65d6bb0e977760de756971f7,65d6d4d811081d3e25dff681,0.0186,0.0187,0,75,75,134,1,eightsix,,,,,,,,,,,,,,,,,,,,,,,,,,,,,,,,,,,,,,,,,,,,,,,,,,,,,,,,,,,,,,,,,,,,,,,,,,,,,,,,,,,,,,,,,,,,,,,,,,,,,,,,,,,,,,,,,,,,,,,,,,,,,,,,,,,,,,,,,
,,5bc880109f7801000148601b,2024-02-22_13h00.54.649,kallum_motion_pilot,2023.2.2,Win32,142.8571429,5bc880109f7801000148601b,65d6bb0e977760de756971f7,65d6d4d811081d3e25dff681,0.0187,0.0187,0,76,76,34,1,twoone,,,,,,,,,,,,,,,,,,,,,,,,,,,,,,,,,,,,,,,,,,,,,,,,,,,,,,,,,,,,,,,,,,,,,,,,,,,,,,,,,,,,,,,,,,,,,,,,,,,,,,,,,,,,,,,,,,,,,,,,,,,,,,,,,,,,,,,,,
,,5bc880109f7801000148601b,2024-02-22_13h00.54.649,kallum_motion_pilot,2023.2.2,Win32,142.8571429,5bc880109f7801000148601b,65d6bb0e977760de756971f7,65d6d4d811081d3e25dff681,0.0188,0.0188,0,77,77,43,1,twofour,,,,,,,,,,,,,,,,,,,,,,,,,,,,,,,,,,,,,,,,,,,,,,,,,,,,,,,,,,,,,,,,,,,,,,,,,,,,,,,,,,,,,,,,,,,,,,,,,,,,,,,,,,,,,,,,,,,,,,,,,,,,,,,,,,,,,,,,,
,,5bc880109f7801000148601b,2024-02-22_13h00.54.649,kallum_motion_pilot,2023.2.2,Win32,142.8571429,5bc880109f7801000148601b,65d6bb0e977760de756971f7,65d6d4d811081d3e25dff681,0.0188,0.0188,0,78,78,122,1,sixfive,,,,,,,,,,,,,,,,,,,,,,,,,,,,,,,,,,,,,,,,,,,,,,,,,,,,,,,,,,,,,,,,,,,,,,,,,,,,,,,,,,,,,,,,,,,,,,,,,,,,,,,,,,,,,,,,,,,,,,,,,,,,,,,,,,,,,,,,,
,,5bc880109f7801000148601b,2024-02-22_13h00.54.649,kallum_motion_pilot,2023.2.2,Win32,142.8571429,5bc880109f7801000148601b,65d6bb0e977760de756971f7,65d6d4d811081d3e25dff681,0.0188,0.0189,0,79,79,148,1,sevenfive,,,,,,,,,,,,,,,,,,,,,,,,,,,,,,,,,,,,,,,,,,,,,,,,,,,,,,,,,,,,,,,,,,,,,,,,,,,,,,,,,,,,,,,,,,,,,,,,,,,,,,,,,,,,,,,,,,,,,,,,,,,,,,,,,,,,,,,,,
,,5bc880109f7801000148601b,2024-02-22_13h00.54.649,kallum_motion_pilot,2023.2.2,Win32,142.8571429,5bc880109f7801000148601b,65d6bb0e977760de756971f7,65d6d4d811081d3e25dff681,0.019,0.019,0,80,80,8,1,onetwo,,,,,,,,,,,,,,,,,,,,,,,,,,,,,,,,,,,,,,,,,,,,,,,,,,,,,,,,,,,,,,,,,,,,,,,,,,,,,,,,,,,,,,,,,,,,,,,,,,,,,,,,,,,,,,,,,,,,,,,,,,,,,,,,,,,,,,,,,
,,5bc880109f7801000148601b,2024-02-22_13h00.54.649,kallum_motion_pilot,2023.2.2,Win32,142.8571429,5bc880109f7801000148601b,65d6bb0e977760de756971f7,65d6d4d811081d3e25dff681,0.0194,0.0194,0,81,81,64,1,onetwo,,,,,,,,,,,,,,,,,,,,,,,,,,,,,,,,,,,,,,,,,,,,,,,,,,,,,,,,,,,,,,,,,,,,,,,,,,,,,,,,,,,,,,,,,,,,,,,,,,,,,,,,,,,,,,,,,,,,,,,,,,,,,,,,,,,,,,,,,
,,5bc880109f7801000148601b,2024-02-22_13h00.54.649,kallum_motion_pilot,2023.2.2,Win32,142.8571429,5bc880109f7801000148601b,65d6bb0e977760de756971f7,65d6d4d811081d3e25dff681,0.0194,0.0194,0,82,82,153,1,fiveseven,,,,,,,,,,,,,,,,,,,,,,,,,,,,,,,,,,,,,,,,,,,,,,,,,,,,,,,,,,,,,,,,,,,,,,,,,,,,,,,,,,,,,,,,,,,,,,,,,,,,,,,,,,,,,,,,,,,,,,,,,,,,,,,,,,,,,,,,,
,,5bc880109f7801000148601b,2024-02-22_13h00.54.649,kallum_motion_pilot,2023.2.2,Win32,142.8571429,5bc880109f7801000148601b,65d6bb0e977760de756971f7,65d6d4d811081d3e25dff681,0.0195,0.0195,0,83,83,25,1,onethree,,,,,,,,,,,,,,,,,,,,,,,,,,,,,,,,,,,,,,,,,,,,,,,,,,,,,,,,,,,,,,,,,,,,,,,,,,,,,,,,,,,,,,,,,,,,,,,,,,,,,,,,,,,,,,,,,,,,,,,,,,,,,,,,,,,,,,,,,
,,5bc880109f7801000148601b,2024-02-22_13h00.54.649,kallum_motion_pilot,2023.2.2,Win32,142.8571429,5bc880109f7801000148601b,65d6bb0e977760de756971f7,65d6d4d811081d3e25dff681,0.0195,0.0196,0,84,84,27,1,twofour,,,,,,,,,,,,,,,,,,,,,,,,,,,,,,,,,,,,,,,,,,,,,,,,,,,,,,,,,,,,,,,,,,,,,,,,,,,,,,,,,,,,,,,,,,,,,,,,,,,,,,,,,,,,,,,,,,,,,,,,,,,,,,,,,,,,,,,,,
,,5bc880109f7801000148601b,2024-02-22_13h00.54.649,kallum_motion_pilot,2023.2.2,Win32,142.8571429,5bc880109f7801000148601b,65d6bb0e977760de756971f7,65d6d4d811081d3e25dff681,0.0196,0.0196,0,85,85,105,1,fiveseven,,,,,,,,,,,,,,,,,,,,,,,,,,,,,,,,,,,,,,,,,,,,,,,,,,,,,,,,,,,,,,,,,,,,,,,,,,,,,,,,,,,,,,,,,,,,,,,,,,,,,,,,,,,,,,,,,,,,,,,,,,,,,,,,,,,,,,,,,
,,5bc880109f7801000148601b,2024-02-22_13h00.54.649,kallum_motion_pilot,2023.2.2,Win32,142.8571429,5bc880109f7801000148601b,65d6bb0e977760de756971f7,65d6d4d811081d3e25dff681,0.0197,0.0197,0,86,86,87,1,eightseven,,,,,,,,,,,,,,,,,,,,,,,,,,,,,,,,,,,,,,,,,,,,,,,,,,,,,,,,,,,,,,,,,,,,,,,,,,,,,,,,,,,,,,,,,,,,,,,,,,,,,,,,,,,,,,,,,,,,,,,,,,,,,,,,,,,,,,,,,
,,5bc880109f7801000148601b,2024-02-22_13h00.54.649,kallum_motion_pilot,2023.2.2,Win32,142.8571429,5bc880109f7801000148601b,65d6bb0e977760de756971f7,65d6d4d811081d3e25dff681,0.0197,0.0197,0,87,87,63,1,fourthree,,,,,,,,,,,,,,,,,,,,,,,,,,,,,,,,,,,,,,,,,,,,,,,,,,,,,,,,,,,,,,,,,,,,,,,,,,,,,,,,,,,,,,,,,,,,,,,,,,,,,,,,,,,,,,,,,,,,,,,,,,,,,,,,,,,,,,,,,
,,5bc880109f7801000148601b,2024-02-22_13h00.54.649,kallum_motion_pilot,2023.2.2,Win32,142.8571429,5bc880109f7801000148601b,65d6bb0e977760de756971f7,65d6d4d811081d3e25dff681,0.0198,0.0198,0,88,88,126,1,eightsix,,,,,,,,,,,,,,,,,,,,,,,,,,,,,,,,,,,,,,,,,,,,,,,,,,,,,,,,,,,,,,,,,,,,,,,,,,,,,,,,,,,,,,,,,,,,,,,,,,,,,,,,,,,,,,,,,,,,,,,,,,,,,,,,,,,,,,,,,
,,5bc880109f7801000148601b,2024-02-22_13h00.54.649,kallum_motion_pilot,2023.2.2,Win32,142.8571429,5bc880109f7801000148601b,65d6bb0e977760de756971f7,65d6d4d811081d3e25dff681,0.0198,0.0198,0,89,89,86,1,eightsix,,,,,,,,,,,,,,,,,,,,,,,,,,,,,,,,,,,,,,,,,,,,,,,,,,,,,,,,,,,,,,,,,,,,,,,,,,,,,,,,,,,,,,,,,,,,,,,,,,,,,,,,,,,,,,,,,,,,,,,,,,,,,,,,,,,,,,,,,
,,5bc880109f7801000148601b,2024-02-22_13h00.54.649,kallum_motion_pilot,2023.2.2,Win32,142.8571429,5bc880109f7801000148601b,65d6bb0e977760de756971f7,65d6d4d811081d3e25dff681,0.0199,0.0199,0,90,90,144,1,fivesix,,,,,,,,,,,,,,,,,,,,,,,,,,,,,,,,,,,,,,,,,,,,,,,,,,,,,,,,,,,,,,,,,,,,,,,,,,,,,,,,,,,,,,,,,,,,,,,,,,,,,,,,,,,,,,,,,,,,,,,,,,,,,,,,,,,,,,,,,
,,5bc880109f7801000148601b,2024-02-22_13h00.54.649,kallum_motion_pilot,2023.2.2,Win32,142.8571429,5bc880109f7801000148601b,65d6bb0e977760de756971f7,65d6d4d811081d3e25dff681,0.02,0.02,0,91,91,51,1,twofour,,,,,,,,,,,,,,,,,,,,,,,,,,,,,,,,,,,,,,,,,,,,,,,,,,,,,,,,,,,,,,,,,,,,,,,,,,,,,,,,,,,,,,,,,,,,,,,,,,,,,,,,,,,,,,,,,,,,,,,,,,,,,,,,,,,,,,,,,
,,5bc880109f7801000148601b,2024-02-22_13h00.54.649,kallum_motion_pilot,2023.2.2,Win32,142.8571429,5bc880109f7801000148601b,65d6bb0e977760de756971f7,65d6d4d811081d3e25dff681,0.02,0.02,0,92,92,13,1,threefour,,,,,,,,,,,,,,,,,,,,,,,,,,,,,,,,,,,,,,,,,,,,,,,,,,,,,,,,,,,,,,,,,,,,,,,,,,,,,,,,,,,,,,,,,,,,,,,,,,,,,,,,,,,,,,,,,,,,,,,,,,,,,,,,,,,,,,,,,
,,5bc880109f7801000148601b,2024-02-22_13h00.54.649,kallum_motion_pilot,2023.2.2,Win32,142.8571429,5bc880109f7801000148601b,65d6bb0e977760de756971f7,65d6d4d811081d3e25dff681,0.0201,0.0201,0,93,93,150,1,eightsix,,,,,,,,,,,,,,,,,,,,,,,,,,,,,,,,,,,,,,,,,,,,,,,,,,,,,,,,,,,,,,,,,,,,,,,,,,,,,,,,,,,,,,,,,,,,,,,,,,,,,,,,,,,,,,,,,,,,,,,,,,,,,,,,,,,,,,,,,
,,5bc880109f7801000148601b,2024-02-22_13h00.54.649,kallum_motion_pilot,2023.2.2,Win32,142.8571429,5bc880109f7801000148601b,65d6bb0e977760de756971f7,65d6d4d811081d3e25dff681,0.0201,0.0202,0,94,94,72,1,onetwo,,,,,,,,,,,,,,,,,,,,,,,,,,,,,,,,,,,,,,,,,,,,,,,,,,,,,,,,,,,,,,,,,,,,,,,,,,,,,,,,,,,,,,,,,,,,,,,,,,,,,,,,,,,,,,,,,,,,,,,,,,,,,,,,,,,,,,,,,
,,5bc880109f7801000148601b,2024-02-22_13h00.54.649,kallum_motion_pilot,2023.2.2,Win32,142.8571429,5bc880109f7801000148601b,65d6bb0e977760de756971f7,65d6d4d811081d3e25dff681,0.0202,0.0202,0,95,95,56,1,onetwo,,,,,,,,,,,,,,,,,,,,,,,,,,,,,,,,,,,,,,,,,,,,,,,,,,,,,,,,,,,,,,,,,,,,,,,,,,,,,,,,,,,,,,,,,,,,,,,,,,,,,,,,,,,,,,,,,,,,,,,,,,,,,,,,,,,,,,,,,
,,5bc880109f7801000148601b,2024-02-22_13h00.54.649,kallum_motion_pilot,2023.2.2,Win32,142.8571429,5bc880109f7801000148601b,65d6bb0e977760de756971f7,65d6d4d811081d3e25dff681,0.0202,0.0202,0,96,96,55,1,fourthree,,,,,,,,,,,,,,,,,,,,,,,,,,,,,,,,,,,,,,,,,,,,,,,,,,,,,,,,,,,,,,,,,,,,,,,,,,,,,,,,,,,,,,,,,,,,,,,,,,,,,,,,,,,,,,,,,,,,,,,,,,,,,,,,,,,,,,,,,
,,5bc880109f7801000148601b,2024-02-22_13h00.54.649,kallum_motion_pilot,2023.2.2,Win32,142.8571429,5bc880109f7801000148601b,65d6bb0e977760de756971f7,65d6d4d811081d3e25dff681,0.0203,0.0203,0,97,97,101,1,seveneight,,,,,,,,,,,,,,,,,,,,,,,,,,,,,,,,,,,,,,,,,,,,,,,,,,,,,,,,,,,,,,,,,,,,,,,,,,,,,,,,,,,,,,,,,,,,,,,,,,,,,,,,,,,,,,,,,,,,,,,,,,,,,,,,,,,,,,,,,
,,5bc880109f7801000148601b,2024-02-22_13h00.54.649,kallum_motion_pilot,2023.2.2,Win32,142.8571429,5bc880109f7801000148601b,65d6bb0e977760de756971f7,65d6d4d811081d3e25dff681,0.0204,0.0204,0,98,98,30,1,fourtwo,,,,,,,,,,,,,,,,,,,,,,,,,,,,,,,,,,,,,,,,,,,,,,,,,,,,,,,,,,,,,,,,,,,,,,,,,,,,,,,,,,,,,,,,,,,,,,,,,,,,,,,,,,,,,,,,,,,,,,,,,,,,,,,,,,,,,,,,,
,,5bc880109f7801000148601b,2024-02-22_13h00.54.649,kallum_motion_pilot,2023.2.2,Win32,142.8571429,5bc880109f7801000148601b,65d6bb0e977760de756971f7,65d6d4d811081d3e25dff681,0.0204,0.0204,0,99,99,154,1,sixfive,,,,,,,,,,,,,,,,,,,,,,,,,,,,,,,,,,,,,,,,,,,,,,,,,,,,,,,,,,,,,,,,,,,,,,,,,,,,,,,,,,,,,,,,,,,,,,,,,,,,,,,,,,,,,,,,,,,,,,,,,,,,,,,,,,,,,,,,,
,,5bc880109f7801000148601b,2024-02-22_13h00.54.649,kallum_motion_pilot,2023.2.2,Win32,142.8571429,5bc880109f7801000148601b,65d6bb0e977760de756971f7,65d6d4d811081d3e25dff681,0.0204,0.0205,0,100,100,110,1,eightsix,,,,,,,,,,,,,,,,,,,,,,,,,,,,,,,,,,,,,,,,,,,,,,,,,,,,,,,,,,,,,,,,,,,,,,,,,,,,,,,,,,,,,,,,,,,,,,,,,,,,,,,,,,,,,,,,,,,,,,,,,,,,,,,,,,,,,,,,,
,,5bc880109f7801000148601b,2024-02-22_13h00.54.649,kallum_motion_pilot,2023.2.2,Win32,142.8571429,5bc880109f7801000148601b,65d6bb0e977760de756971f7,65d6d4d811081d3e25dff681,0.0206,0.0206,0,101,101,21,1,threefour,,,,,,,,,,,,,,,,,,,,,,,,,,,,,,,,,,,,,,,,,,,,,,,,,,,,,,,,,,,,,,,,,,,,,,,,,,,,,,,,,,,,,,,,,,,,,,,,,,,,,,,,,,,,,,,,,,,,,,,,,,,,,,,,,,,,,,,,,
,,5bc880109f7801000148601b,2024-02-22_13h00.54.649,kallum_motion_pilot,2023.2.2,Win32,142.8571429,5bc880109f7801000148601b,65d6bb0e977760de756971f7,65d6d4d811081d3e25dff681,0.0207,0.0207,0,102,102,84,1,sevenfive,,,,,,,,,,,,,,,,,,,,,,,,,,,,,,,,,,,,,,,,,,,,,,,,,,,,,,,,,,,,,,,,,,,,,,,,,,,,,,,,,,,,,,,,,,,,,,,,,,,,,,,,,,,,,,,,,,,,,,,,,,,,,,,,,,,,,,,,,
,,5bc880109f7801000148601b,2024-02-22_13h00.54.649,kallum_motion_pilot,2023.2.2,Win32,142.8571429,5bc880109f7801000148601b,65d6bb0e977760de756971f7,65d6d4d811081d3e25dff681,0.0207,0.0207,0,103,103,35,1,twofour,,,,,,,,,,,,,,,,,,,,,,,,,,,,,,,,,,,,,,,,,,,,,,,,,,,,,,,,,,,,,,,,,,,,,,,,,,,,,,,,,,,,,,,,,,,,,,,,,,,,,,,,,,,,,,,,,,,,,,,,,,,,,,,,,,,,,,,,,
,,5bc880109f7801000148601b,2024-02-22_13h00.54.649,kallum_motion_pilot,2023.2.2,Win32,142.8571429,5bc880109f7801000148601b,65d6bb0e977760de756971f7,65d6d4d811081d3e25dff681,0.0208,0.0208,0,104,104,138,1,sixfive,,,,,,,,,,,,,,,,,,,,,,,,,,,,,,,,,,,,,,,,,,,,,,,,,,,,,,,,,,,,,,,,,,,,,,,,,,,,,,,,,,,,,,,,,,,,,,,,,,,,,,,,,,,,,,,,,,,,,,,,,,,,,,,,,,,,,,,,,
,,5bc880109f7801000148601b,2024-02-22_13h00.54.649,kallum_motion_pilot,2023.2.2,Win32,142.8571429,5bc880109f7801000148601b,65d6bb0e977760de756971f7,65d6d4d811081d3e25dff681,0.0208,0.0208,0,105,105,40,1,onetwo,,,,,,,,,,,,,,,,,,,,,,,,,,,,,,,,,,,,,,,,,,,,,,,,,,,,,,,,,,,,,,,,,,,,,,,,,,,,,,,,,,,,,,,,,,,,,,,,,,,,,,,,,,,,,,,,,,,,,,,,,,,,,,,,,,,,,,,,,
,,5bc880109f7801000148601b,2024-02-22_13h00.54.649,kallum_motion_pilot,2023.2.2,Win32,142.8571429,5bc880109f7801000148601b,65d6bb0e977760de756971f7,65d6d4d811081d3e25dff681,0.0208,0.0209,0,106,106,152,1,fivesix,,,,,,,,,,,,,,,,,,,,,,,,,,,,,,,,,,,,,,,,,,,,,,,,,,,,,,,,,,,,,,,,,,,,,,,,,,,,,,,,,,,,,,,,,,,,,,,,,,,,,,,,,,,,,,,,,,,,,,,,,,,,,,,,,,,,,,,,,
,,5bc880109f7801000148601b,2024-02-22_13h00.54.649,kallum_motion_pilot,2023.2.2,Win32,142.8571429,5bc880109f7801000148601b,65d6bb0e977760de756971f7,65d6d4d811081d3e25dff681,0.0209,0.021,0,107,107,53,1,threefour,,,,,,,,,,,,,,,,,,,,,,,,,,,,,,,,,,,,,,,,,,,,,,,,,,,,,,,,,,,,,,,,,,,,,,,,,,,,,,,,,,,,,,,,,,,,,,,,,,,,,,,,,,,,,,,,,,,,,,,,,,,,,,,,,,,,,,,,,
,,5bc880109f7801000148601b,2024-02-22_13h00.54.649,kallum_motion_pilot,2023.2.2,Win32,142.8571429,5bc880109f7801000148601b,65d6bb0e977760de756971f7,65d6d4d811081d3e25dff681,0.021,0.021,0,108,108,57,1,onethree,,,,,,,,,,,,,,,,,,,,,,,,,,,,,,,,,,,,,,,,,,,,,,,,,,,,,,,,,,,,,,,,,,,,,,,,,,,,,,,,,,,,,,,,,,,,,,,,,,,,,,,,,,,,,,,,,,,,,,,,,,,,,,,,,,,,,,,,,
,,5bc880109f7801000148601b,2024-02-22_13h00.54.649,kallum_motion_pilot,2023.2.2,Win32,142.8571429,5bc880109f7801000148601b,65d6bb0e977760de756971f7,65d6d4d811081d3e25dff681,0.021,0.021,0,109,109,141,1,seveneight,,,,,,,,,,,,,,,,,,,,,,,,,,,,,,,,,,,,,,,,,,,,,,,,,,,,,,,,,,,,,,,,,,,,,,,,,,,,,,,,,,,,,,,,,,,,,,,,,,,,,,,,,,,,,,,,,,,,,,,,,,,,,,,,,,,,,,,,,
,,5bc880109f7801000148601b,2024-02-22_13h00.54.649,kallum_motion_pilot,2023.2.2,Win32,142.8571429,5bc880109f7801000148601b,65d6bb0e977760de756971f7,65d6d4d811081d3e25dff681,0.0212,0.0212,0,110,110,131,1,sixeight,,,,,,,,,,,,,,,,,,,,,,,,,,,,,,,,,,,,,,,,,,,,,,,,,,,,,,,,,,,,,,,,,,,,,,,,,,,,,,,,,,,,,,,,,,,,,,,,,,,,,,,,,,,,,,,,,,,,,,,,,,,,,,,,,,,,,,,,,
,,5bc880109f7801000148601b,2024-02-22_13h00.54.649,kallum_motion_pilot,2023.2.2,Win32,142.8571429,5bc880109f7801000148601b,65d6bb0e977760de756971f7,65d6d4d811081d3e25dff681,0.0212,0.0212,0,111,111,79,1,eightseven,,,,,,,,,,,,,,,,,,,,,,,,,,,,,,,,,,,,,,,,,,,,,,,,,,,,,,,,,,,,,,,,,,,,,,,,,,,,,,,,,,,,,,,,,,,,,,,,,,,,,,,,,,,,,,,,,,,,,,,,,,,,,,,,,,,,,,,,,
,,5bc880109f7801000148601b,2024-02-22_13h00.54.649,kallum_motion_pilot,2023.2.2,Win32,142.8571429,5bc880109f7801000148601b,65d6bb0e977760de756971f7,65d6d4d811081d3e25dff681,0.0213,0.0213,0,112,112,100,1,sevenfive,,,,,,,,,,,,,,,,,,,,,,,,,,,,,,,,,,,,,,,,,,,,,,,,,,,,,,,,,,,,,,,,,,,,,,,,,,,,,,,,,,,,,,,,,,,,,,,,,,,,,,,,,,,,,,,,,,,,,,,,,,,,,,,,,,,,,,,,,
,,5bc880109f7801000148601b,2024-02-22_13h00.54.649,kallum_motion_pilot,2023.2.2,Win32,142.8571429,5bc880109f7801000148601b,65d6bb0e977760de756971f7,65d6d4d811081d3e25dff681,0.0213,0.0213,0,113,113,59,1,twofour,,,,,,,,,,,,,,,,,,,,,,,,,,,,,,,,,,,,,,,,,,,,,,,,,,,,,,,,,,,,,,,,,,,,,,,,,,,,,,,,,,,,,,,,,,,,,,,,,,,,,,,,,,,,,,,,,,,,,,,,,,,,,,,,,,,,,,,,,
,,5bc880109f7801000148601b,2024-02-22_13h00.54.649,kallum_motion_pilot,2023.2.2,Win32,142.8571429,5bc880109f7801000148601b,65d6bb0e977760de756971f7,65d6d4d811081d3e25dff681,0.0213,0.0214,0,114,114,22,1,fourtwo,,,,,,,,,,,,,,,,,,,,,,,,,,,,,,,,,,,,,,,,,,,,,,,,,,,,,,,,,,,,,,,,,,,,,,,,,,,,,,,,,,,,,,,,,,,,,,,,,,,,,,,,,,,,,,,,,,,,,,,,,,,,,,,,,,,,,,,,,
,,5bc880109f7801000148601b,2024-02-22_13h00.54.649,kallum_motion_pilot,2023.2.2,Win32,142.8571429,5bc880109f7801000148601b,65d6bb0e977760de756971f7,65d6d4d811081d3e25dff681,0.0214,0.0214,0,115,115,140,1,sevenfive,,,,,,,,,,,,,,,,,,,,,,,,,,,,,,,,,,,,,,,,,,,,,,,,,,,,,,,,,,,,,,,,,,,,,,,,,,,,,,,,,,,,,,,,,,,,,,,,,,,,,,,,,,,,,,,,,,,,,,,,,,,,,,,,,,,,,,,,,
,,5bc880109f7801000148601b,2024-02-22_13h00.54.649,kallum_motion_pilot,2023.2.2,Win32,142.8571429,5bc880109f7801000148601b,65d6bb0e977760de756971f7,65d6d4d811081d3e25dff681,0.0215,0.0216,0,116,116,88,1,fivesix,,,,,,,,,,,,,,,,,,,,,,,,,,,,,,,,,,,,,,,,,,,,,,,,,,,,,,,,,,,,,,,,,,,,,,,,,,,,,,,,,,,,,,,,,,,,,,,,,,,,,,,,,,,,,,,,,,,,,,,,,,,,,,,,,,,,,,,,,
,,5bc880109f7801000148601b,2024-02-22_13h00.54.649,kallum_motion_pilot,2023.2.2,Win32,142.8571429,5bc880109f7801000148601b,65d6bb0e977760de756971f7,65d6d4d811081d3e25dff681,0.0216,0.0216,0,117,117,71,1,fourthree,,,,,,,,,,,,,,,,,,,,,,,,,,,,,,,,,,,,,,,,,,,,,,,,,,,,,,,,,,,,,,,,,,,,,,,,,,,,,,,,,,,,,,,,,,,,,,,,,,,,,,,,,,,,,,,,,,,,,,,,,,,,,,,,,,,,,,,,,
,,5bc880109f7801000148601b,2024-02-22_13h00.54.649,kallum_motion_pilot,2023.2.2,Win32,142.8571429,5bc880109f7801000148601b,65d6bb0e977760de756971f7,65d6d4d811081d3e25dff681,0.0216,0.0216,0,118,118,49,1,onethree,,,,,,,,,,,,,,,,,,,,,,,,,,,,,,,,,,,,,,,,,,,,,,,,,,,,,,,,,,,,,,,,,,,,,,,,,,,,,,,,,,,,,,,,,,,,,,,,,,,,,,,,,,,,,,,,,,,,,,,,,,,,,,,,,,,,,,,,,
,,5bc880109f7801000148601b,2024-02-22_13h00.54.649,kallum_motion_pilot,2023.2.2,Win32,142.8571429,5bc880109f7801000148601b,65d6bb0e977760de756971f7,65d6d4d811081d3e25dff681,0.0217,0.0217,0,119,119,103,1,eightseven,,,,,,,,,,,,,,,,,,,,,,,,,,,,,,,,,,,,,,,,,,,,,,,,,,,,,,,,,,,,,,,,,,,,,,,,,,,,,,,,,,,,,,,,,,,,,,,,,,,,,,,,,,,,,,,,,,,,,,,,,,,,,,,,,,,,,,,,,
,,5bc880109f7801000148601b,2024-02-22_13h00.54.649,kallum_motion_pilot,2023.2.2,Win32,142.8571429,5bc880109f7801000148601b,65d6bb0e977760de756971f7,65d6d4d811081d3e25dff681,0.0218,0.0218,0,120,120,37,1,threefour,,,,,,,,,,,,,,,,,,,,,,,,,,,,,,,,,,,,,,,,,,,,,,,,,,,,,,,,,,,,,,,,,,,,,,,,,,,,,,,,,,,,,,,,,,,,,,,,,,,,,,,,,,,,,,,,,,,,,,,,,,,,,,,,,,,,,,,,,
,,5bc880109f7801000148601b,2024-02-22_13h00.54.649,kallum_motion_pilot,2023.2.2,Win32,142.8571429,5bc880109f7801000148601b,65d6bb0e977760de756971f7,65d6d4d811081d3e25dff681,0.0218,0.0219,0,121,121,24,1,onetwo,,,,,,,,,,,,,,,,,,,,,,,,,,,,,,,,,,,,,,,,,,,,,,,,,,,,,,,,,,,,,,,,,,,,,,,,,,,,,,,,,,,,,,,,,,,,,,,,,,,,,,,,,,,,,,,,,,,,,,,,,,,,,,,,,,,,,,,,,
,,5bc880109f7801000148601b,2024-02-22_13h00.54.649,kallum_motion_pilot,2023.2.2,Win32,142.8571429,5bc880109f7801000148601b,65d6bb0e977760de756971f7,65d6d4d811081d3e25dff681,0.0219,0.0219,0,122,122,107,1,sixeight,,,,,,,,,,,,,,,,,,,,,,,,,,,,,,,,,,,,,,,,,,,,,,,,,,,,,,,,,,,,,,,,,,,,,,,,,,,,,,,,,,,,,,,,,,,,,,,,,,,,,,,,,,,,,,,,,,,,,,,,,,,,,,,,,,,,,,,,,
,,5bc880109f7801000148601b,2024-02-22_13h00.54.649,kallum_motion_pilot,2023.2.2,Win32,142.8571429,5bc880109f7801000148601b,65d6bb0e977760de756971f7,65d6d4d811081d3e25dff681,0.0219,0.0219,0,123,123,159,1,eightseven,,,,,,,,,,,,,,,,,,,,,,,,,,,,,,,,,,,,,,,,,,,,,,,,,,,,,,,,,,,,,,,,,,,,,,,,,,,,,,,,,,,,,,,,,,,,,,,,,,,,,,,,,,,,,,,,,,,,,,,,,,,,,,,,,,,,,,,,,
,,5bc880109f7801000148601b,2024-02-22_13h00.54.649,kallum_motion_pilot,2023.2.2,Win32,142.8571429,5bc880109f7801000148601b,65d6bb0e977760de756971f7,65d6d4d811081d3e25dff681,0.022,0.022,0,124,124,82,1,sixfive,,,,,,,,,,,,,,,,,,,,,,,,,,,,,,,,,,,,,,,,,,,,,,,,,,,,,,,,,,,,,,,,,,,,,,,,,,,,,,,,,,,,,,,,,,,,,,,,,,,,,,,,,,,,,,,,,,,,,,,,,,,,,,,,,,,,,,,,,
,,5bc880109f7801000148601b,2024-02-22_13h00.54.649,kallum_motion_pilot,2023.2.2,Win32,142.8571429,5bc880109f7801000148601b,65d6bb0e977760de756971f7,65d6d4d811081d3e25dff681,0.0221,0.0221,0,125,125,4,1,threeone,,,,,,,,,,,,,,,,,,,,,,,,,,,,,,,,,,,,,,,,,,,,,,,,,,,,,,,,,,,,,,,,,,,,,,,,,,,,,,,,,,,,,,,,,,,,,,,,,,,,,,,,,,,,,,,,,,,,,,,,,,,,,,,,,,,,,,,,,
,,5bc880109f7801000148601b,2024-02-22_13h00.54.649,kallum_motion_pilot,2023.2.2,Win32,142.8571429,5bc880109f7801000148601b,65d6bb0e977760de756971f7,65d6d4d811081d3e25dff681,0.0221,0.0221,0,126,126,17,1,onethree,,,,,,,,,,,,,,,,,,,,,,,,,,,,,,,,,,,,,,,,,,,,,,,,,,,,,,,,,,,,,,,,,,,,,,,,,,,,,,,,,,,,,,,,,,,,,,,,,,,,,,,,,,,,,,,,,,,,,,,,,,,,,,,,,,,,,,,,,
,,5bc880109f7801000148601b,2024-02-22_13h00.54.649,kallum_motion_pilot,2023.2.2,Win32,142.8571429,5bc880109f7801000148601b,65d6bb0e977760de756971f7,65d6d4d811081d3e25dff681,0.0222,0.0223,0,127,127,109,1,seveneight,,,,,,,,,,,,,,,,,,,,,,,,,,,,,,,,,,,,,,,,,,,,,,,,,,,,,,,,,,,,,,,,,,,,,,,,,,,,,,,,,,,,,,,,,,,,,,,,,,,,,,,,,,,,,,,,,,,,,,,,,,,,,,,,,,,,,,,,,
,,5bc880109f7801000148601b,2024-02-22_13h00.54.649,kallum_motion_pilot,2023.2.2,Win32,142.8571429,5bc880109f7801000148601b,65d6bb0e977760de756971f7,65d6d4d811081d3e25dff681,0.0223,0.0223,0,128,128,39,1,fourthree,,,,,,,,,,,,,,,,,,,,,,,,,,,,,,,,,,,,,,,,,,,,,,,,,,,,,,,,,,,,,,,,,,,,,,,,,,,,,,,,,,,,,,,,,,,,,,,,,,,,,,,,,,,,,,,,,,,,,,,,,,,,,,,,,,,,,,,,,
,,5bc880109f7801000148601b,2024-02-22_13h00.54.649,kallum_motion_pilot,2023.2.2,Win32,142.8571429,5bc880109f7801000148601b,65d6bb0e977760de756971f7,65d6d4d811081d3e25dff681,0.0223,0.0224,0,129,129,76,1,threeone,,,,,,,,,,,,,,,,,,,,,,,,,,,,,,,,,,,,,,,,,,,,,,,,,,,,,,,,,,,,,,,,,,,,,,,,,,,,,,,,,,,,,,,,,,,,,,,,,,,,,,,,,,,,,,,,,,,,,,,,,,,,,,,,,,,,,,,,,
,,5bc880109f7801000148601b,2024-02-22_13h00.54.649,kallum_motion_pilot,2023.2.2,Win32,142.8571429,5bc880109f7801000148601b,65d6bb0e977760de756971f7,65d6d4d811081d3e25dff681,0.0224,0.0224,0,130,130,5,1,threefour,,,,,,,,,,,,,,,,,,,,,,,,,,,,,,,,,,,,,,,,,,,,,,,,,,,,,,,,,,,,,,,,,,,,,,,,,,,,,,,,,,,,,,,,,,,,,,,,,,,,,,,,,,,,,,,,,,,,,,,,,,,,,,,,,,,,,,,,,
,,5bc880109f7801000148601b,2024-02-22_13h00.54.649,kallum_motion_pilot,2023.2.2,Win32,142.8571429,5bc880109f7801000148601b,65d6bb0e977760de756971f7,65d6d4d811081d3e25dff681,0.0225,0.0225,0,131,131,85,1,seveneight,,,,,,,,,,,,,,,,,,,,,,,,,,,,,,,,,,,,,,,,,,,,,,,,,,,,,,,,,,,,,,,,,,,,,,,,,,,,,,,,,,,,,,,,,,,,,,,,,,,,,,,,,,,,,,,,,,,,,,,,,,,,,,,,,,,,,,,,,
,,5bc880109f7801000148601b,2024-02-22_13h00.54.649,kallum_motion_pilot,2023.2.2,Win32,142.8571429,5bc880109f7801000148601b,65d6bb0e977760de756971f7,65d6d4d811081d3e25dff681,0.0225,0.0225,0,132,132,14,1,fourtwo,,,,,,,,,,,,,,,,,,,,,,,,,,,,,,,,,,,,,,,,,,,,,,,,,,,,,,,,,,,,,,,,,,,,,,,,,,,,,,,,,,,,,,,,,,,,,,,,,,,,,,,,,,,,,,,,,,,,,,,,,,,,,,,,,,,,,,,,,
,,5bc880109f7801000148601b,2024-02-22_13h00.54.649,kallum_motion_pilot,2023.2.2,Win32,142.8571429,5bc880109f7801000148601b,65d6bb0e977760de756971f7,65d6d4d811081d3e25dff681,0.0225,0.0226,0,133,133,136,1,fivesix,,,,,,,,,,,,,,,,,,,,,,,,,,,,,,,,,,,,,,,,,,,,,,,,,,,,,,,,,,,,,,,,,,,,,,,,,,,,,,,,,,,,,,,,,,,,,,,,,,,,,,,,,,,,,,,,,,,,,,,,,,,,,,,,,,,,,,,,,
,,5bc880109f7801000148601b,2024-02-22_13h00.54.649,kallum_motion_pilot,2023.2.2,Win32,142.8571429,5bc880109f7801000148601b,65d6bb0e977760de756971f7,65d6d4d811081d3e25dff681,0.0227,0.0227,0,134,134,44,1,threeone,,,,,,,,,,,,,,,,,,,,,,,,,,,,,,,,,,,,,,,,,,,,,,,,,,,,,,,,,,,,,,,,,,,,,,,,,,,,,,,,,,,,,,,,,,,,,,,,,,,,,,,,,,,,,,,,,,,,,,,,,,,,,,,,,,,,,,,,,
,,5bc880109f7801000148601b,2024-02-22_13h00.54.649,kallum_motion_pilot,2023.2.2,Win32,142.8571429,5bc880109f7801000148601b,65d6bb0e977760de756971f7,65d6d4d811081d3e25dff681,0.0228,0.0228,0,135,135,155,1,sixeight,,,,,,,,,,,,,,,,,,,,,,,,,,,,,,,,,,,,,,,,,,,,,,,,,,,,,,,,,,,,,,,,,,,,,,,,,,,,,,,,,,,,,,,,,,,,,,,,,,,,,,,,,,,,,,,,,,,,,,,,,,,,,,,,,,,,,,,,,
,,5bc880109f7801000148601b,2024-02-22_13h00.54.649,kallum_motion_pilot,2023.2.2,Win32,142.8571429,5bc880109f7801000148601b,65d6bb0e977760de756971f7,65d6d4d811081d3e25dff681,0.0228,0.0229,0,136,136,33,1,onethree,,,,,,,,,,,,,,,,,,,,,,,,,,,,,,,,,,,,,,,,,,,,,,,,,,,,,,,,,,,,,,,,,,,,,,,,,,,,,,,,,,,,,,,,,,,,,,,,,,,,,,,,,,,,,,,,,,,,,,,,,,,,,,,,,,,,,,,,,
,,5bc880109f7801000148601b,2024-02-22_13h00.54.649,kallum_motion_pilot,2023.2.2,Win32,142.8571429,5bc880109f7801000148601b,65d6bb0e977760de756971f7,65d6d4d811081d3e25dff681,0.0229,0.0229,0,137,137,158,1,eightsix,,,,,,,,,,,,,,,,,,,,,,,,,,,,,,,,,,,,,,,,,,,,,,,,,,,,,,,,,,,,,,,,,,,,,,,,,,,,,,,,,,,,,,,,,,,,,,,,,,,,,,,,,,,,,,,,,,,,,,,,,,,,,,,,,,,,,,,,,
,,5bc880109f7801000148601b,2024-02-22_13h00.54.649,kallum_motion_pilot,2023.2.2,Win32,142.8571429,5bc880109f7801000148601b,65d6bb0e977760de756971f7,65d6d4d811081d3e25dff681,0.0229,0.0229,0,138,138,75,1,twofour,,,,,,,,,,,,,,,,,,,,,,,,,,,,,,,,,,,,,,,,,,,,,,,,,,,,,,,,,,,,,,,,,,,,,,,,,,,,,,,,,,,,,,,,,,,,,,,,,,,,,,,,,,,,,,,,,,,,,,,,,,,,,,,,,,,,,,,,,
,,5bc880109f7801000148601b,2024-02-22_13h00.54.649,kallum_motion_pilot,2023.2.2,Win32,142.8571429,5bc880109f7801000148601b,65d6bb0e977760de756971f7,65d6d4d811081d3e25dff681,0.023,0.023,0,139,139,129,1,fiveseven,,,,,,,,,,,,,,,,,,,,,,,,,,,,,,,,,,,,,,,,,,,,,,,,,,,,,,,,,,,,,,,,,,,,,,,,,,,,,,,,,,,,,,,,,,,,,,,,,,,,,,,,,,,,,,,,,,,,,,,,,,,,,,,,,,,,,,,,,
,,5bc880109f7801000148601b,2024-02-22_13h00.54.649,kallum_motion_pilot,2023.2.2,Win32,142.8571429,5bc880109f7801000148601b,65d6bb0e977760de756971f7,65d6d4d811081d3e25dff681,0.023,0.023,0,140,140,20,1,threeone,,,,,,,,,,,,,,,,,,,,,,,,,,,,,,,,,,,,,,,,,,,,,,,,,,,,,,,,,,,,,,,,,,,,,,,,,,,,,,,,,,,,,,,,,,,,,,,,,,,,,,,,,,,,,,,,,,,,,,,,,,,,,,,,,,,,,,,,,
,,5bc880109f7801000148601b,2024-02-22_13h00.54.649,kallum_motion_pilot,2023.2.2,Win32,142.8571429,5bc880109f7801000148601b,65d6bb0e977760de756971f7,65d6d4d811081d3e25dff681,0.0231,0.0231,0,141,141,139,1,sixeight,,,,,,,,,,,,,,,,,,,,,,,,,,,,,,,,,,,,,,,,,,,,,,,,,,,,,,,,,,,,,,,,,,,,,,,,,,,,,,,,,,,,,,,,,,,,,,,,,,,,,,,,,,,,,,,,,,,,,,,,,,,,,,,,,,,,,,,,,
,,5bc880109f7801000148601b,2024-02-22_13h00.54.649,kallum_motion_pilot,2023.2.2,Win32,142.8571429,5bc880109f7801000148601b,65d6bb0e977760de756971f7,65d6d4d811081d3e25dff681,0.0232,0.0232,0,142,142,12,1,threeone,,,,,,,,,,,,,,,,,,,,,,,,,,,,,,,,,,,,,,,,,,,,,,,,,,,,,,,,,,,,,,,,,,,,,,,,,,,,,,,,,,,,,,,,,,,,,,,,,,,,,,,,,,,,,,,,,,,,,,,,,,,,,,,,,,,,,,,,,
,,5bc880109f7801000148601b,2024-02-22_13h00.54.649,kallum_motion_pilot,2023.2.2,Win32,142.8571429,5bc880109f7801000148601b,65d6bb0e977760de756971f7,65d6d4d811081d3e25dff681,0.0233,0.0233,0,143,143,58,1,twoone,,,,,,,,,,,,,,,,,,,,,,,,,,,,,,,,,,,,,,,,,,,,,,,,,,,,,,,,,,,,,,,,,,,,,,,,,,,,,,,,,,,,,,,,,,,,,,,,,,,,,,,,,,,,,,,,,,,,,,,,,,,,,,,,,,,,,,,,,
,,5bc880109f7801000148601b,2024-02-22_13h00.54.649,kallum_motion_pilot,2023.2.2,Win32,142.8571429,5bc880109f7801000148601b,65d6bb0e977760de756971f7,65d6d4d811081d3e25dff681,0.0233,0.0233,0,144,144,0,1,onetwo,,,,,,,,,,,,,,,,,,,,,,,,,,,,,,,,,,,,,,,,,,,,,,,,,,,,,,,,,,,,,,,,,,,,,,,,,,,,,,,,,,,,,,,,,,,,,,,,,,,,,,,,,,,,,,,,,,,,,,,,,,,,,,,,,,,,,,,,,
,,5bc880109f7801000148601b,2024-02-22_13h00.54.649,kallum_motion_pilot,2023.2.2,Win32,142.8571429,5bc880109f7801000148601b,65d6bb0e977760de756971f7,65d6d4d811081d3e25dff681,0.0234,0.0235,0,145,145,23,1,fourthree,,,,,,,,,,,,,,,,,,,,,,,,,,,,,,,,,,,,,,,,,,,,,,,,,,,,,,,,,,,,,,,,,,,,,,,,,,,,,,,,,,,,,,,,,,,,,,,,,,,,,,,,,,,,,,,,,,,,,,,,,,,,,,,,,,,,,,,,,
,,5bc880109f7801000148601b,2024-02-22_13h00.54.649,kallum_motion_pilot,2023.2.2,Win32,142.8571429,5bc880109f7801000148601b,65d6bb0e977760de756971f7,65d6d4d811081d3e25dff681,0.0235,0.0235,0,146,146,47,1,fourthree,,,,,,,,,,,,,,,,,,,,,,,,,,,,,,,,,,,,,,,,,,,,,,,,,,,,,,,,,,,,,,,,,,,,,,,,,,,,,,,,,,,,,,,,,,,,,,,,,,,,,,,,,,,,,,,,,,,,,,,,,,,,,,,,,,,,,,,,,
,,5bc880109f7801000148601b,2024-02-22_13h00.54.649,kallum_motion_pilot,2023.2.2,Win32,142.8571429,5bc880109f7801000148601b,65d6bb0e977760de756971f7,65d6d4d811081d3e25dff681,0.0235,0.0236,0,147,147,54,1,fourtwo,,,,,,,,,,,,,,,,,,,,,,,,,,,,,,,,,,,,,,,,,,,,,,,,,,,,,,,,,,,,,,,,,,,,,,,,,,,,,,,,,,,,,,,,,,,,,,,,,,,,,,,,,,,,,,,,,,,,,,,,,,,,,,,,,,,,,,,,,
,,5bc880109f7801000148601b,2024-02-22_13h00.54.649,kallum_motion_pilot,2023.2.2,Win32,142.8571429,5bc880109f7801000148601b,65d6bb0e977760de756971f7,65d6d4d811081d3e25dff681,0.0236,0.0236,0,148,148,157,1,seveneight,,,,,,,,,,,,,,,,,,,,,,,,,,,,,,,,,,,,,,,,,,,,,,,,,,,,,,,,,,,,,,,,,,,,,,,,,,,,,,,,,,,,,,,,,,,,,,,,,,,,,,,,,,,,,,,,,,,,,,,,,,,,,,,,,,,,,,,,,
,,5bc880109f7801000148601b,2024-02-22_13h00.54.649,kallum_motion_pilot,2023.2.2,Win32,142.8571429,5bc880109f7801000148601b,65d6bb0e977760de756971f7,65d6d4d811081d3e25dff681,0.0237,0.0237,0,149,149,41,1,onethree,,,,,,,,,,,,,,,,,,,,,,,,,,,,,,,,,,,,,,,,,,,,,,,,,,,,,,,,,,,,,,,,,,,,,,,,,,,,,,,,,,,,,,,,,,,,,,,,,,,,,,,,,,,,,,,,,,,,,,,,,,,,,,,,,,,,,,,,,
,,5bc880109f7801000148601b,2024-02-22_13h00.54.649,kallum_motion_pilot,2023.2.2,Win32,142.8571429,5bc880109f7801000148601b,65d6bb0e977760de756971f7,65d6d4d811081d3e25dff681,0.0237,0.0238,0,150,150,116,1,sevenfive,,,,,,,,,,,,,,,,,,,,,,,,,,,,,,,,,,,,,,,,,,,,,,,,,,,,,,,,,,,,,,,,,,,,,,,,,,,,,,,,,,,,,,,,,,,,,,,,,,,,,,,,,,,,,,,,,,,,,,,,,,,,,,,,,,,,,,,,,
,,5bc880109f7801000148601b,2024-02-22_13h00.54.649,kallum_motion_pilot,2023.2.2,Win32,142.8571429,5bc880109f7801000148601b,65d6bb0e977760de756971f7,65d6d4d811081d3e25dff681,0.0238,0.0238,0,151,151,26,1,twoone,,,,,,,,,,,,,,,,,,,,,,,,,,,,,,,,,,,,,,,,,,,,,,,,,,,,,,,,,,,,,,,,,,,,,,,,,,,,,,,,,,,,,,,,,,,,,,,,,,,,,,,,,,,,,,,,,,,,,,,,,,,,,,,,,,,,,,,,,
,,5bc880109f7801000148601b,2024-02-22_13h00.54.649,kallum_motion_pilot,2023.2.2,Win32,142.8571429,5bc880109f7801000148601b,65d6bb0e977760de756971f7,65d6d4d811081d3e25dff681,0.0239,0.024,0,152,152,70,1,fourtwo,,,,,,,,,,,,,,,,,,,,,,,,,,,,,,,,,,,,,,,,,,,,,,,,,,,,,,,,,,,,,,,,,,,,,,,,,,,,,,,,,,,,,,,,,,,,,,,,,,,,,,,,,,,,,,,,,,,,,,,,,,,,,,,,,,,,,,,,,
,,5bc880109f7801000148601b,2024-02-22_13h00.54.649,kallum_motion_pilot,2023.2.2,Win32,142.8571429,5bc880109f7801000148601b,65d6bb0e977760de756971f7,65d6d4d811081d3e25dff681,0.024,0.024,0,153,153,161,1,fiveseven,,,,,,,,,,,,,,,,,,,,,,,,,,,,,,,,,,,,,,,,,,,,,,,,,,,,,,,,,,,,,,,,,,,,,,,,,,,,,,,,,,,,,,,,,,,,,,,,,,,,,,,,,,,,,,,,,,,,,,,,,,,,,,,,,,,,,,,,,
,,5bc880109f7801000148601b,2024-02-22_13h00.54.649,kallum_motion_pilot,2023.2.2,Win32,142.8571429,5bc880109f7801000148601b,65d6bb0e977760de756971f7,65d6d4d811081d3e25dff681,0.0241,0.0241,0,154,154,117,1,seveneight,,,,,,,,,,,,,,,,,,,,,,,,,,,,,,,,,,,,,,,,,,,,,,,,,,,,,,,,,,,,,,,,,,,,,,,,,,,,,,,,,,,,,,,,,,,,,,,,,,,,,,,,,,,,,,,,,,,,,,,,,,,,,,,,,,,,,,,,,
,,5bc880109f7801000148601b,2024-02-22_13h00.54.649,kallum_motion_pilot,2023.2.2,Win32,142.8571429,5bc880109f7801000148601b,65d6bb0e977760de756971f7,65d6d4d811081d3e25dff681,0.0241,0.0241,0,155,155,32,1,onetwo,,,,,,,,,,,,,,,,,,,,,,,,,,,,,,,,,,,,,,,,,,,,,,,,,,,,,,,,,,,,,,,,,,,,,,,,,,,,,,,,,,,,,,,,,,,,,,,,,,,,,,,,,,,,,,,,,,,,,,,,,,,,,,,,,,,,,,,,,
,,5bc880109f7801000148601b,2024-02-22_13h00.54.649,kallum_motion_pilot,2023.2.2,Win32,142.8571429,5bc880109f7801000148601b,65d6bb0e977760de756971f7,65d6d4d811081d3e25dff681,0.0242,0.0242,0,156,156,38,1,fourtwo,,,,,,,,,,,,,,,,,,,,,,,,,,,,,,,,,,,,,,,,,,,,,,,,,,,,,,,,,,,,,,,,,,,,,,,,,,,,,,,,,,,,,,,,,,,,,,,,,,,,,,,,,,,,,,,,,,,,,,,,,,,,,,,,,,,,,,,,,
,,5bc880109f7801000148601b,2024-02-22_13h00.54.649,kallum_motion_pilot,2023.2.2,Win32,142.8571429,5bc880109f7801000148601b,65d6bb0e977760de756971f7,65d6d4d811081d3e25dff681,0.0242,0.0243,0,157,157,112,1,fivesix,,,,,,,,,,,,,,,,,,,,,,,,,,,,,,,,,,,,,,,,,,,,,,,,,,,,,,,,,,,,,,,,,,,,,,,,,,,,,,,,,,,,,,,,,,,,,,,,,,,,,,,,,,,,,,,,,,,,,,,,,,,,,,,,,,,,,,,,,
,,5bc880109f7801000148601b,2024-02-22_13h00.54.649,kallum_motion_pilot,2023.2.2,Win32,142.8571429,5bc880109f7801000148601b,65d6bb0e977760de756971f7,65d6d4d811081d3e25dff681,0.0243,0.0243,0,158,158,135,1,eightseven,,,,,,,,,,,,,,,,,,,,,,,,,,,,,,,,,,,,,,,,,,,,,,,,,,,,,,,,,,,,,,,,,,,,,,,,,,,,,,,,,,,,,,,,,,,,,,,,,,,,,,,,,,,,,,,,,,,,,,,,,,,,,,,,,,,,,,,,,
,,5bc880109f7801000148601b,2024-02-22_13h00.54.649,kallum_motion_pilot,2023.2.2,Win32,142.8571429,5bc880109f7801000148601b,65d6bb0e977760de756971f7,65d6d4d811081d3e25dff681,0.0243,0.0243,0,159,159,128,1,fivesix,,,,,,,,,,,,,,,,,,,,,,,,,,,,,,,,,,,,,,,,,,,,,,,,,,,,,,,,,,,,,,,,,,,,,,,,,,,,,,,,,,,,,,,,,,,,,,,,,,,,,,,,,,,,,,,,,,,,,,,,,,,,,,,,,,,,,,,,,
,,5bc880109f7801000148601b,2024-02-22_13h00.54.649,kallum_motion_pilot,2023.2.2,Win32,142.8571429,5bc880109f7801000148601b,65d6bb0e977760de756971f7,65d6d4d811081d3e25dff681,0.0244,0.0245,0,160,160,52,1,threeone,,,,,,,,,,,,,,,,,,,,,,,,,,,,,,,,,,,,,,,,,,,,,,,,,,,,,,,,,,,,,,,,,,,,,,,,,,,,,,,,,,,,,,,,,,,,,,,,,,,,,,,,,,,,,,,,,,,,,,,,,,,,,,,,,,,,,,,,,
,,5bc880109f7801000148601b,2024-02-22_13h00.54.649,kallum_motion_pilot,2023.2.2,Win32,142.8571429,5bc880109f7801000148601b,65d6bb0e977760de756971f7,65d6d4d811081d3e25dff681,0.0245,0.0245,0,161,161,65,1,onethree,,,,,,,,,,,,,,,,,,,,,,,,,,,,,,,,,,,,,,,,,,,,,,,,,,,,,,,,,,,,,,,,,,,,,,,,,,,,,,,,,,,,,,,,,,,,,,,,,,,,,,,,,,,,,,,,,,,,,,,,,,,,,,,,,,,,,,,,,
,,5bc880109f7801000148601b,2024-02-22_13h00.54.649,kallum_motion_pilot,2023.2.2,Win32,142.8571429,5bc880109f7801000148601b,65d6bb0e977760de756971f7,65d6d4d811081d3e25dff681,0.0245,0.0246,1,0,162,135,1,eightseven,,,,,,,,,,,,,,,,,,,,,,,,,,,,,,,,,,,,,,,,,,,,,,,,,,,,,,,,,,,,,,,,,,,,,,,,,,,,,,,,,,,,,,,,,,,,,,,,,,,,,,,,,,,,,,,,,,,,,,,,,,,,,,,,,,,,,,,,,
,,5bc880109f7801000148601b,2024-02-22_13h00.54.649,kallum_motion_pilot,2023.2.2,Win32,142.8571429,5bc880109f7801000148601b,65d6bb0e977760de756971f7,65d6d4d811081d3e25dff681,0.0246,0.0247,1,1,163,140,1,sevenfive,,,,,,,,,,,,,,,,,,,,,,,,,,,,,,,,,,,,,,,,,,,,,,,,,,,,,,,,,,,,,,,,,,,,,,,,,,,,,,,,,,,,,,,,,,,,,,,,,,,,,,,,,,,,,,,,,,,,,,,,,,,,,,,,,,,,,,,,,
,,5bc880109f7801000148601b,2024-02-22_13h00.54.649,kallum_motion_pilot,2023.2.2,Win32,142.8571429,5bc880109f7801000148601b,65d6bb0e977760de756971f7,65d6d4d811081d3e25dff681,0.0247,0.0247,1,2,164,132,1,sevenfive,,,,,,,,,,,,,,,,,,,,,,,,,,,,,,,,,,,,,,,,,,,,,,,,,,,,,,,,,,,,,,,,,,,,,,,,,,,,,,,,,,,,,,,,,,,,,,,,,,,,,,,,,,,,,,,,,,,,,,,,,,,,,,,,,,,,,,,,,
,,5bc880109f7801000148601b,2024-02-22_13h00.54.649,kallum_motion_pilot,2023.2.2,Win32,142.8571429,5bc880109f7801000148601b,65d6bb0e977760de756971f7,65d6d4d811081d3e25dff681,0.0248,0.0248,1,3,165,14,1,fourtwo,,,,,,,,,,,,,,,,,,,,,,,,,,,,,,,,,,,,,,,,,,,,,,,,,,,,,,,,,,,,,,,,,,,,,,,,,,,,,,,,,,,,,,,,,,,,,,,,,,,,,,,,,,,,,,,,,,,,,,,,,,,,,,,,,,,,,,,,,
,,5bc880109f7801000148601b,2024-02-22_13h00.54.649,kallum_motion_pilot,2023.2.2,Win32,142.8571429,5bc880109f7801000148601b,65d6bb0e977760de756971f7,65d6d4d811081d3e25dff681,0.0249,0.0249,1,4,166,156,1,sevenfive,,,,,,,,,,,,,,,,,,,,,,,,,,,,,,,,,,,,,,,,,,,,,,,,,,,,,,,,,,,,,,,,,,,,,,,,,,,,,,,,,,,,,,,,,,,,,,,,,,,,,,,,,,,,,,,,,,,,,,,,,,,,,,,,,,,,,,,,,
,,5bc880109f7801000148601b,2024-02-22_13h00.54.649,kallum_motion_pilot,2023.2.2,Win32,142.8571429,5bc880109f7801000148601b,65d6bb0e977760de756971f7,65d6d4d811081d3e25dff681,0.0249,0.0249,1,5,167,24,1,onetwo,,,,,,,,,,,,,,,,,,,,,,,,,,,,,,,,,,,,,,,,,,,,,,,,,,,,,,,,,,,,,,,,,,,,,,,,,,,,,,,,,,,,,,,,,,,,,,,,,,,,,,,,,,,,,,,,,,,,,,,,,,,,,,,,,,,,,,,,,
,,5bc880109f7801000148601b,2024-02-22_13h00.54.649,kallum_motion_pilot,2023.2.2,Win32,142.8571429,5bc880109f7801000148601b,65d6bb0e977760de756971f7,65d6d4d811081d3e25dff681,0.025,0.025,1,6,168,100,1,sevenfive,,,,,,,,,,,,,,,,,,,,,,,,,,,,,,,,,,,,,,,,,,,,,,,,,,,,,,,,,,,,,,,,,,,,,,,,,,,,,,,,,,,,,,,,,,,,,,,,,,,,,,,,,,,,,,,,,,,,,,,,,,,,,,,,,,,,,,,,,
,,5bc880109f7801000148601b,2024-02-22_13h00.54.649,kallum_motion_pilot,2023.2.2,Win32,142.8571429,5bc880109f7801000148601b,65d6bb0e977760de756971f7,65d6d4d811081d3e25dff681,0.0251,0.0251,1,7,169,141,1,seveneight,,,,,,,,,,,,,,,,,,,,,,,,,,,,,,,,,,,,,,,,,,,,,,,,,,,,,,,,,,,,,,,,,,,,,,,,,,,,,,,,,,,,,,,,,,,,,,,,,,,,,,,,,,,,,,,,,,,,,,,,,,,,,,,,,,,,,,,,,
,,5bc880109f7801000148601b,2024-02-22_13h00.54.649,kallum_motion_pilot,2023.2.2,Win32,142.8571429,5bc880109f7801000148601b,65d6bb0e977760de756971f7,65d6d4d811081d3e25dff681,0.0251,0.0251,1,8,170,101,1,seveneight,,,,,,,,,,,,,,,,,,,,,,,,,,,,,,,,,,,,,,,,,,,,,,,,,,,,,,,,,,,,,,,,,,,,,,,,,,,,,,,,,,,,,,,,,,,,,,,,,,,,,,,,,,,,,,,,,,,,,,,,,,,,,,,,,,,,,,,,,
,,5bc880109f7801000148601b,2024-02-22_13h00.54.649,kallum_motion_pilot,2023.2.2,Win32,142.8571429,5bc880109f7801000148601b,65d6bb0e977760de756971f7,65d6d4d811081d3e25dff681,0.0252,0.0253,1,9,171,153,1,fiveseven,,,,,,,,,,,,,,,,,,,,,,,,,,,,,,,,,,,,,,,,,,,,,,,,,,,,,,,,,,,,,,,,,,,,,,,,,,,,,,,,,,,,,,,,,,,,,,,,,,,,,,,,,,,,,,,,,,,,,,,,,,,,,,,,,,,,,,,,,
,,5bc880109f7801000148601b,2024-02-22_13h00.54.649,kallum_motion_pilot,2023.2.2,Win32,142.8571429,5bc880109f7801000148601b,65d6bb0e977760de756971f7,65d6d4d811081d3e25dff681,0.0253,0.0253,1,10,172,96,1,fivesix,,,,,,,,,,,,,,,,,,,,,,,,,,,,,,,,,,,,,,,,,,,,,,,,,,,,,,,,,,,,,,,,,,,,,,,,,,,,,,,,,,,,,,,,,,,,,,,,,,,,,,,,,,,,,,,,,,,,,,,,,,,,,,,,,,,,,,,,,
,,5bc880109f7801000148601b,2024-02-22_13h00.54.649,kallum_motion_pilot,2023.2.2,Win32,142.8571429,5bc880109f7801000148601b,65d6bb0e977760de756971f7,65d6d4d811081d3e25dff681,0.0253,0.0253,1,11,173,9,1,onethree,,,,,,,,,,,,,,,,,,,,,,,,,,,,,,,,,,,,,,,,,,,,,,,,,,,,,,,,,,,,,,,,,,,,,,,,,,,,,,,,,,,,,,,,,,,,,,,,,,,,,,,,,,,,,,,,,,,,,,,,,,,,,,,,,,,,,,,,,
,,5bc880109f7801000148601b,2024-02-22_13h00.54.649,kallum_motion_pilot,2023.2.2,Win32,142.8571429,5bc880109f7801000148601b,65d6bb0e977760de756971f7,65d6d4d811081d3e25dff681,0.0254,0.0254,1,12,174,63,1,fourthree,,,,,,,,,,,,,,,,,,,,,,,,,,,,,,,,,,,,,,,,,,,,,,,,,,,,,,,,,,,,,,,,,,,,,,,,,,,,,,,,,,,,,,,,,,,,,,,,,,,,,,,,,,,,,,,,,,,,,,,,,,,,,,,,,,,,,,,,,
,,5bc880109f7801000148601b,2024-02-22_13h00.54.649,kallum_motion_pilot,2023.2.2,Win32,142.8571429,5bc880109f7801000148601b,65d6bb0e977760de756971f7,65d6d4d811081d3e25dff681,0.0254,0.0255,1,13,175,117,1,seveneight,,,,,,,,,,,,,,,,,,,,,,,,,,,,,,,,,,,,,,,,,,,,,,,,,,,,,,,,,,,,,,,,,,,,,,,,,,,,,,,,,,,,,,,,,,,,,,,,,,,,,,,,,,,,,,,,,,,,,,,,,,,,,,,,,,,,,,,,,
,,5bc880109f7801000148601b,2024-02-22_13h00.54.649,kallum_motion_pilot,2023.2.2,Win32,142.8571429,5bc880109f7801000148601b,65d6bb0e977760de756971f7,65d6d4d811081d3e25dff681,0.0255,0.0256,1,14,176,109,1,seveneight,,,,,,,,,,,,,,,,,,,,,,,,,,,,,,,,,,,,,,,,,,,,,,,,,,,,,,,,,,,,,,,,,,,,,,,,,,,,,,,,,,,,,,,,,,,,,,,,,,,,,,,,,,,,,,,,,,,,,,,,,,,,,,,,,,,,,,,,,
,,5bc880109f7801000148601b,2024-02-22_13h00.54.649,kallum_motion_pilot,2023.2.2,Win32,142.8571429,5bc880109f7801000148601b,65d6bb0e977760de756971f7,65d6d4d811081d3e25dff681,0.0256,0.0256,1,15,177,128,1,fivesix,,,,,,,,,,,,,,,,,,,,,,,,,,,,,,,,,,,,,,,,,,,,,,,,,,,,,,,,,,,,,,,,,,,,,,,,,,,,,,,,,,,,,,,,,,,,,,,,,,,,,,,,,,,,,,,,,,,,,,,,,,,,,,,,,,,,,,,,,
,,5bc880109f7801000148601b,2024-02-22_13h00.54.649,kallum_motion_pilot,2023.2.2,Win32,142.8571429,5bc880109f7801000148601b,65d6bb0e977760de756971f7,65d6d4d811081d3e25dff681,0.0257,0.0257,1,16,178,31,1,fourthree,,,,,,,,,,,,,,,,,,,,,,,,,,,,,,,,,,,,,,,,,,,,,,,,,,,,,,,,,,,,,,,,,,,,,,,,,,,,,,,,,,,,,,,,,,,,,,,,,,,,,,,,,,,,,,,,,,,,,,,,,,,,,,,,,,,,,,,,,
,,5bc880109f7801000148601b,2024-02-22_13h00.54.649,kallum_motion_pilot,2023.2.2,Win32,142.8571429,5bc880109f7801000148601b,65d6bb0e977760de756971f7,65d6d4d811081d3e25dff681,0.0257,0.0257,1,17,179,27,1,twofour,,,,,,,,,,,,,,,,,,,,,,,,,,,,,,,,,,,,,,,,,,,,,,,,,,,,,,,,,,,,,,,,,,,,,,,,,,,,,,,,,,,,,,,,,,,,,,,,,,,,,,,,,,,,,,,,,,,,,,,,,,,,,,,,,,,,,,,,,
,,5bc880109f7801000148601b,2024-02-22_13h00.54.649,kallum_motion_pilot,2023.2.2,Win32,142.8571429,5bc880109f7801000148601b,65d6bb0e977760de756971f7,65d6d4d811081d3e25dff681,0.0258,0.0258,1,18,180,36,1,threeone,,,,,,,,,,,,,,,,,,,,,,,,,,,,,,,,,,,,,,,,,,,,,,,,,,,,,,,,,,,,,,,,,,,,,,,,,,,,,,,,,,,,,,,,,,,,,,,,,,,,,,,,,,,,,,,,,,,,,,,,,,,,,,,,,,,,,,,,,
,,5bc880109f7801000148601b,2024-02-22_13h00.54.649,kallum_motion_pilot,2023.2.2,Win32,142.8571429,5bc880109f7801000148601b,65d6bb0e977760de756971f7,65d6d4d811081d3e25dff681,0.0258,0.0259,1,19,181,119,1,eightseven,,,,,,,,,,,,,,,,,,,,,,,,,,,,,,,,,,,,,,,,,,,,,,,,,,,,,,,,,,,,,,,,,,,,,,,,,,,,,,,,,,,,,,,,,,,,,,,,,,,,,,,,,,,,,,,,,,,,,,,,,,,,,,,,,,,,,,,,,
,,5bc880109f7801000148601b,2024-02-22_13h00.54.649,kallum_motion_pilot,2023.2.2,Win32,142.8571429,5bc880109f7801000148601b,65d6bb0e977760de756971f7,65d6d4d811081d3e25dff681,0.026,0.026,1,20,182,17,1,onethree,,,,,,,,,,,,,,,,,,,,,,,,,,,,,,,,,,,,,,,,,,,,,,,,,,,,,,,,,,,,,,,,,,,,,,,,,,,,,,,,,,,,,,,,,,,,,,,,,,,,,,,,,,,,,,,,,,,,,,,,,,,,,,,,,,,,,,,,,
,,5bc880109f7801000148601b,2024-02-22_13h00.54.649,kallum_motion_pilot,2023.2.2,Win32,142.8571429,5bc880109f7801000148601b,65d6bb0e977760de756971f7,65d6d4d811081d3e25dff681,0.026,0.026,1,21,183,91,1,sixeight,,,,,,,,,,,,,,,,,,,,,,,,,,,,,,,,,,,,,,,,,,,,,,,,,,,,,,,,,,,,,,,,,,,,,,,,,,,,,,,,,,,,,,,,,,,,,,,,,,,,,,,,,,,,,,,,,,,,,,,,,,,,,,,,,,,,,,,,,
,,5bc880109f7801000148601b,2024-02-22_13h00.54.649,kallum_motion_pilot,2023.2.2,Win32,142.8571429,5bc880109f7801000148601b,65d6bb0e977760de756971f7,65d6d4d811081d3e25dff681,0.0262,0.0262,1,22,184,5,1,threefour,,,,,,,,,,,,,,,,,,,,,,,,,,,,,,,,,,,,,,,,,,,,,,,,,,,,,,,,,,,,,,,,,,,,,,,,,,,,,,,,,,,,,,,,,,,,,,,,,,,,,,,,,,,,,,,,,,,,,,,,,,,,,,,,,,,,,,,,,
,,5bc880109f7801000148601b,2024-02-22_13h00.54.649,kallum_motion_pilot,2023.2.2,Win32,142.8571429,5bc880109f7801000148601b,65d6bb0e977760de756971f7,65d6d4d811081d3e25dff681,0.0262,0.0262,1,23,185,112,1,fivesix,,,,,,,,,,,,,,,,,,,,,,,,,,,,,,,,,,,,,,,,,,,,,,,,,,,,,,,,,,,,,,,,,,,,,,,,,,,,,,,,,,,,,,,,,,,,,,,,,,,,,,,,,,,,,,,,,,,,,,,,,,,,,,,,,,,,,,,,,
,,5bc880109f7801000148601b,2024-02-22_13h00.54.649,kallum_motion_pilot,2023.2.2,Win32,142.8571429,5bc880109f7801000148601b,65d6bb0e977760de756971f7,65d6d4d811081d3e25dff681,0.0263,0.0263,1,24,186,22,1,fourtwo,,,,,,,,,,,,,,,,,,,,,,,,,,,,,,,,,,,,,,,,,,,,,,,,,,,,,,,,,,,,,,,,,,,,,,,,,,,,,,,,,,,,,,,,,,,,,,,,,,,,,,,,,,,,,,,,,,,,,,,,,,,,,,,,,,,,,,,,,
,,5bc880109f7801000148601b,2024-02-22_13h00.54.649,kallum_motion_pilot,2023.2.2,Win32,142.8571429,5bc880109f7801000148601b,65d6bb0e977760de756971f7,65d6d4d811081d3e25dff681,0.0263,0.0264,1,25,187,20,1,threeone,,,,,,,,,,,,,,,,,,,,,,,,,,,,,,,,,,,,,,,,,,,,,,,,,,,,,,,,,,,,,,,,,,,,,,,,,,,,,,,,,,,,,,,,,,,,,,,,,,,,,,,,,,,,,,,,,,,,,,,,,,,,,,,,,,,,,,,,,
,,5bc880109f7801000148601b,2024-02-22_13h00.54.649,kallum_motion_pilot,2023.2.2,Win32,142.8571429,5bc880109f7801000148601b,65d6bb0e977760de756971f7,65d6d4d811081d3e25dff681,0.0264,0.0264,1,26,188,48,1,onetwo,,,,,,,,,,,,,,,,,,,,,,,,,,,,,,,,,,,,,,,,,,,,,,,,,,,,,,,,,,,,,,,,,,,,,,,,,,,,,,,,,,,,,,,,,,,,,,,,,,,,,,,,,,,,,,,,,,,,,,,,,,,,,,,,,,,,,,,,,
,,5bc880109f7801000148601b,2024-02-22_13h00.54.649,kallum_motion_pilot,2023.2.2,Win32,142.8571429,5bc880109f7801000148601b,65d6bb0e977760de756971f7,65d6d4d811081d3e25dff681,0.0264,0.0265,1,27,189,98,1,sixfive,,,,,,,,,,,,,,,,,,,,,,,,,,,,,,,,,,,,,,,,,,,,,,,,,,,,,,,,,,,,,,,,,,,,,,,,,,,,,,,,,,,,,,,,,,,,,,,,,,,,,,,,,,,,,,,,,,,,,,,,,,,,,,,,,,,,,,,,,
,,5bc880109f7801000148601b,2024-02-22_13h00.54.649,kallum_motion_pilot,2023.2.2,Win32,142.8571429,5bc880109f7801000148601b,65d6bb0e977760de756971f7,65d6d4d811081d3e25dff681,0.0265,0.0266,1,28,190,103,1,eightseven,,,,,,,,,,,,,,,,,,,,,,,,,,,,,,,,,,,,,,,,,,,,,,,,,,,,,,,,,,,,,,,,,,,,,,,,,,,,,,,,,,,,,,,,,,,,,,,,,,,,,,,,,,,,,,,,,,,,,,,,,,,,,,,,,,,,,,,,,
,,5bc880109f7801000148601b,2024-02-22_13h00.54.649,kallum_motion_pilot,2023.2.2,Win32,142.8571429,5bc880109f7801000148601b,65d6bb0e977760de756971f7,65d6d4d811081d3e25dff681,0.0266,0.0267,1,29,191,11,1,twofour,,,,,,,,,,,,,,,,,,,,,,,,,,,,,,,,,,,,,,,,,,,,,,,,,,,,,,,,,,,,,,,,,,,,,,,,,,,,,,,,,,,,,,,,,,,,,,,,,,,,,,,,,,,,,,,,,,,,,,,,,,,,,,,,,,,,,,,,,
,,5bc880109f7801000148601b,2024-02-22_13h00.54.649,kallum_motion_pilot,2023.2.2,Win32,142.8571429,5bc880109f7801000148601b,65d6bb0e977760de756971f7,65d6d4d811081d3e25dff681,0.0267,0.0268,1,30,192,150,1,eightsix,,,,,,,,,,,,,,,,,,,,,,,,,,,,,,,,,,,,,,,,,,,,,,,,,,,,,,,,,,,,,,,,,,,,,,,,,,,,,,,,,,,,,,,,,,,,,,,,,,,,,,,,,,,,,,,,,,,,,,,,,,,,,,,,,,,,,,,,,
,,5bc880109f7801000148601b,2024-02-22_13h00.54.649,kallum_motion_pilot,2023.2.2,Win32,142.8571429,5bc880109f7801000148601b,65d6bb0e977760de756971f7,65d6d4d811081d3e25dff681,0.0268,0.0268,1,31,193,43,1,twofour,,,,,,,,,,,,,,,,,,,,,,,,,,,,,,,,,,,,,,,,,,,,,,,,,,,,,,,,,,,,,,,,,,,,,,,,,,,,,,,,,,,,,,,,,,,,,,,,,,,,,,,,,,,,,,,,,,,,,,,,,,,,,,,,,,,,,,,,,
,,5bc880109f7801000148601b,2024-02-22_13h00.54.649,kallum_motion_pilot,2023.2.2,Win32,142.8571429,5bc880109f7801000148601b,65d6bb0e977760de756971f7,65d6d4d811081d3e25dff681,0.0269,0.0269,1,32,194,126,1,eightsix,,,,,,,,,,,,,,,,,,,,,,,,,,,,,,,,,,,,,,,,,,,,,,,,,,,,,,,,,,,,,,,,,,,,,,,,,,,,,,,,,,,,,,,,,,,,,,,,,,,,,,,,,,,,,,,,,,,,,,,,,,,,,,,,,,,,,,,,,
,,5bc880109f7801000148601b,2024-02-22_13h00.54.649,kallum_motion_pilot,2023.2.2,Win32,142.8571429,5bc880109f7801000148601b,65d6bb0e977760de756971f7,65d6d4d811081d3e25dff681,0.0269,0.027,1,33,195,94,1,eightsix,,,,,,,,,,,,,,,,,,,,,,,,,,,,,,,,,,,,,,,,,,,,,,,,,,,,,,,,,,,,,,,,,,,,,,,,,,,,,,,,,,,,,,,,,,,,,,,,,,,,,,,,,,,,,,,,,,,,,,,,,,,,,,,,,,,,,,,,,
,,5bc880109f7801000148601b,2024-02-22_13h00.54.649,kallum_motion_pilot,2023.2.2,Win32,142.8571429,5bc880109f7801000148601b,65d6bb0e977760de756971f7,65d6d4d811081d3e25dff681,0.027,0.027,1,34,196,115,1,sixeight,,,,,,,,,,,,,,,,,,,,,,,,,,,,,,,,,,,,,,,,,,,,,,,,,,,,,,,,,,,,,,,,,,,,,,,,,,,,,,,,,,,,,,,,,,,,,,,,,,,,,,,,,,,,,,,,,,,,,,,,,,,,,,,,,,,,,,,,,
,,5bc880109f7801000148601b,2024-02-22_13h00.54.649,kallum_motion_pilot,2023.2.2,Win32,142.8571429,5bc880109f7801000148601b,65d6bb0e977760de756971f7,65d6d4d811081d3e25dff681,0.0271,0.0272,1,35,197,143,1,eightseven,,,,,,,,,,,,,,,,,,,,,,,,,,,,,,,,,,,,,,,,,,,,,,,,,,,,,,,,,,,,,,,,,,,,,,,,,,,,,,,,,,,,,,,,,,,,,,,,,,,,,,,,,,,,,,,,,,,,,,,,,,,,,,,,,,,,,,,,,
,,5bc880109f7801000148601b,2024-02-22_13h00.54.649,kallum_motion_pilot,2023.2.2,Win32,142.8571429,5bc880109f7801000148601b,65d6bb0e977760de756971f7,65d6d4d811081d3e25dff681,0.0272,0.0272,1,36,198,66,1,twoone,,,,,,,,,,,,,,,,,,,,,,,,,,,,,,,,,,,,,,,,,,,,,,,,,,,,,,,,,,,,,,,,,,,,,,,,,,,,,,,,,,,,,,,,,,,,,,,,,,,,,,,,,,,,,,,,,,,,,,,,,,,,,,,,,,,,,,,,,
,,5bc880109f7801000148601b,2024-02-22_13h00.54.649,kallum_motion_pilot,2023.2.2,Win32,142.8571429,5bc880109f7801000148601b,65d6bb0e977760de756971f7,65d6d4d811081d3e25dff681,0.0272,0.0273,1,37,199,108,1,sevenfive,,,,,,,,,,,,,,,,,,,,,,,,,,,,,,,,,,,,,,,,,,,,,,,,,,,,,,,,,,,,,,,,,,,,,,,,,,,,,,,,,,,,,,,,,,,,,,,,,,,,,,,,,,,,,,,,,,,,,,,,,,,,,,,,,,,,,,,,,
,,5bc880109f7801000148601b,2024-02-22_13h00.54.649,kallum_motion_pilot,2023.2.2,Win32,142.8571429,5bc880109f7801000148601b,65d6bb0e977760de756971f7,65d6d4d811081d3e25dff681,0.0274,0.0274,1,38,200,85,1,seveneight,,,,,,,,,,,,,,,,,,,,,,,,,,,,,,,,,,,,,,,,,,,,,,,,,,,,,,,,,,,,,,,,,,,,,,,,,,,,,,,,,,,,,,,,,,,,,,,,,,,,,,,,,,,,,,,,,,,,,,,,,,,,,,,,,,,,,,,,,
,,5bc880109f7801000148601b,2024-02-22_13h00.54.649,kallum_motion_pilot,2023.2.2,Win32,142.8571429,5bc880109f7801000148601b,65d6bb0e977760de756971f7,65d6d4d811081d3e25dff681,0.0274,0.0275,1,39,201,123,1,sixeight,,,,,,,,,,,,,,,,,,,,,,,,,,,,,,,,,,,,,,,,,,,,,,,,,,,,,,,,,,,,,,,,,,,,,,,,,,,,,,,,,,,,,,,,,,,,,,,,,,,,,,,,,,,,,,,,,,,,,,,,,,,,,,,,,,,,,,,,,
,,5bc880109f7801000148601b,2024-02-22_13h00.54.649,kallum_motion_pilot,2023.2.2,Win32,142.8571429,5bc880109f7801000148601b,65d6bb0e977760de756971f7,65d6d4d811081d3e25dff681,0.0275,0.0275,1,40,202,69,1,threefour,,,,,,,,,,,,,,,,,,,,,,,,,,,,,,,,,,,,,,,,,,,,,,,,,,,,,,,,,,,,,,,,,,,,,,,,,,,,,,,,,,,,,,,,,,,,,,,,,,,,,,,,,,,,,,,,,,,,,,,,,,,,,,,,,,,,,,,,,
,,5bc880109f7801000148601b,2024-02-22_13h00.54.649,kallum_motion_pilot,2023.2.2,Win32,142.8571429,5bc880109f7801000148601b,65d6bb0e977760de756971f7,65d6d4d811081d3e25dff681,0.0276,0.0276,1,41,203,99,1,sixeight,,,,,,,,,,,,,,,,,,,,,,,,,,,,,,,,,,,,,,,,,,,,,,,,,,,,,,,,,,,,,,,,,,,,,,,,,,,,,,,,,,,,,,,,,,,,,,,,,,,,,,,,,,,,,,,,,,,,,,,,,,,,,,,,,,,,,,,,,
,,5bc880109f7801000148601b,2024-02-22_13h00.54.649,kallum_motion_pilot,2023.2.2,Win32,142.8571429,5bc880109f7801000148601b,65d6bb0e977760de756971f7,65d6d4d811081d3e25dff681,0.0277,0.0277,1,42,204,15,1,fourthree,,,,,,,,,,,,,,,,,,,,,,,,,,,,,,,,,,,,,,,,,,,,,,,,,,,,,,,,,,,,,,,,,,,,,,,,,,,,,,,,,,,,,,,,,,,,,,,,,,,,,,,,,,,,,,,,,,,,,,,,,,,,,,,,,,,,,,,,,
,,5bc880109f7801000148601b,2024-02-22_13h00.54.649,kallum_motion_pilot,2023.2.2,Win32,142.8571429,5bc880109f7801000148601b,65d6bb0e977760de756971f7,65d6d4d811081d3e25dff681,0.0278,0.0278,1,43,205,82,1,sixfive,,,,,,,,,,,,,,,,,,,,,,,,,,,,,,,,,,,,,,,,,,,,,,,,,,,,,,,,,,,,,,,,,,,,,,,,,,,,,,,,,,,,,,,,,,,,,,,,,,,,,,,,,,,,,,,,,,,,,,,,,,,,,,,,,,,,,,,,,
,,5bc880109f7801000148601b,2024-02-22_13h00.54.649,kallum_motion_pilot,2023.2.2,Win32,142.8571429,5bc880109f7801000148601b,65d6bb0e977760de756971f7,65d6d4d811081d3e25dff681,0.0278,0.0278,1,44,206,129,1,fiveseven,,,,,,,,,,,,,,,,,,,,,,,,,,,,,,,,,,,,,,,,,,,,,,,,,,,,,,,,,,,,,,,,,,,,,,,,,,,,,,,,,,,,,,,,,,,,,,,,,,,,,,,,,,,,,,,,,,,,,,,,,,,,,,,,,,,,,,,,,
,,5bc880109f7801000148601b,2024-02-22_13h00.54.649,kallum_motion_pilot,2023.2.2,Win32,142.8571429,5bc880109f7801000148601b,65d6bb0e977760de756971f7,65d6d4d811081d3e25dff681,0.0279,0.0279,1,45,207,157,1,seveneight,,,,,,,,,,,,,,,,,,,,,,,,,,,,,,,,,,,,,,,,,,,,,,,,,,,,,,,,,,,,,,,,,,,,,,,,,,,,,,,,,,,,,,,,,,,,,,,,,,,,,,,,,,,,,,,,,,,,,,,,,,,,,,,,,,,,,,,,,
,,5bc880109f7801000148601b,2024-02-22_13h00.54.649,kallum_motion_pilot,2023.2.2,Win32,142.8571429,5bc880109f7801000148601b,65d6bb0e977760de756971f7,65d6d4d811081d3e25dff681,0.0279,0.028,1,46,208,125,1,seveneight,,,,,,,,,,,,,,,,,,,,,,,,,,,,,,,,,,,,,,,,,,,,,,,,,,,,,,,,,,,,,,,,,,,,,,,,,,,,,,,,,,,,,,,,,,,,,,,,,,,,,,,,,,,,,,,,,,,,,,,,,,,,,,,,,,,,,,,,,
,,5bc880109f7801000148601b,2024-02-22_13h00.54.649,kallum_motion_pilot,2023.2.2,Win32,142.8571429,5bc880109f7801000148601b,65d6bb0e977760de756971f7,65d6d4d811081d3e25dff681,0.028,0.0281,1,47,209,72,1,onetwo,,,,,,,,,,,,,,,,,,,,,,,,,,,,,,,,,,,,,,,,,,,,,,,,,,,,,,,,,,,,,,,,,,,,,,,,,,,,,,,,,,,,,,,,,,,,,,,,,,,,,,,,,,,,,,,,,,,,,,,,,,,,,,,,,,,,,,,,,
,,5bc880109f7801000148601b,2024-02-22_13h00.54.649,kallum_motion_pilot,2023.2.2,Win32,142.8571429,5bc880109f7801000148601b,65d6bb0e977760de756971f7,65d6d4d811081d3e25dff681,0.0281,0.0281,1,48,210,93,1,seveneight,,,,,,,,,,,,,,,,,,,,,,,,,,,,,,,,,,,,,,,,,,,,,,,,,,,,,,,,,,,,,,,,,,,,,,,,,,,,,,,,,,,,,,,,,,,,,,,,,,,,,,,,,,,,,,,,,,,,,,,,,,,,,,,,,,,,,,,,,
,,5bc880109f7801000148601b,2024-02-22_13h00.54.649,kallum_motion_pilot,2023.2.2,Win32,142.8571429,5bc880109f7801000148601b,65d6bb0e977760de756971f7,65d6d4d811081d3e25dff681,0.0282,0.0282,1,49,211,105,1,fiveseven,,,,,,,,,,,,,,,,,,,,,,,,,,,,,,,,,,,,,,,,,,,,,,,,,,,,,,,,,,,,,,,,,,,,,,,,,,,,,,,,,,,,,,,,,,,,,,,,,,,,,,,,,,,,,,,,,,,,,,,,,,,,,,,,,,,,,,,,,
,,5bc880109f7801000148601b,2024-02-22_13h00.54.649,kallum_motion_pilot,2023.2.2,Win32,142.8571429,5bc880109f7801000148601b,65d6bb0e977760de756971f7,65d6d4d811081d3e25dff681,0.0283,0.0283,1,50,212,55,1,fourthree,,,,,,,,,,,,,,,,,,,,,,,,,,,,,,,,,,,,,,,,,,,,,,,,,,,,,,,,,,,,,,,,,,,,,,,,,,,,,,,,,,,,,,,,,,,,,,,,,,,,,,,,,,,,,,,,,,,,,,,,,,,,,,,,,,,,,,,,,
,,5bc880109f7801000148601b,2024-02-22_13h00.54.649,kallum_motion_pilot,2023.2.2,Win32,142.8571429,5bc880109f7801000148601b,65d6bb0e977760de756971f7,65d6d4d811081d3e25dff681,0.0283,0.0284,1,51,213,62,1,fourtwo,,,,,,,,,,,,,,,,,,,,,,,,,,,,,,,,,,,,,,,,,,,,,,,,,,,,,,,,,,,,,,,,,,,,,,,,,,,,,,,,,,,,,,,,,,,,,,,,,,,,,,,,,,,,,,,,,,,,,,,,,,,,,,,,,,,,,,,,,
,,5bc880109f7801000148601b,2024-02-22_13h00.54.649,kallum_motion_pilot,2023.2.2,Win32,142.8571429,5bc880109f7801000148601b,65d6bb0e977760de756971f7,65d6d4d811081d3e25dff681,0.0284,0.0284,1,52,214,79,1,eightseven,,,,,,,,,,,,,,,,,,,,,,,,,,,,,,,,,,,,,,,,,,,,,,,,,,,,,,,,,,,,,,,,,,,,,,,,,,,,,,,,,,,,,,,,,,,,,,,,,,,,,,,,,,,,,,,,,,,,,,,,,,,,,,,,,,,,,,,,,
,,5bc880109f7801000148601b,2024-02-22_13h00.54.649,kallum_motion_pilot,2023.2.2,Win32,142.8571429,5bc880109f7801000148601b,65d6bb0e977760de756971f7,65d6d4d811081d3e25dff681,0.0286,0.0286,1,53,215,116,1,sevenfive,,,,,,,,,,,,,,,,,,,,,,,,,,,,,,,,,,,,,,,,,,,,,,,,,,,,,,,,,,,,,,,,,,,,,,,,,,,,,,,,,,,,,,,,,,,,,,,,,,,,,,,,,,,,,,,,,,,,,,,,,,,,,,,,,,,,,,,,,
,,5bc880109f7801000148601b,2024-02-22_13h00.54.649,kallum_motion_pilot,2023.2.2,Win32,142.8571429,5bc880109f7801000148601b,65d6bb0e977760de756971f7,65d6d4d811081d3e25dff681,0.0286,0.0287,1,54,216,121,1,fiveseven,,,,,,,,,,,,,,,,,,,,,,,,,,,,,,,,,,,,,,,,,,,,,,,,,,,,,,,,,,,,,,,,,,,,,,,,,,,,,,,,,,,,,,,,,,,,,,,,,,,,,,,,,,,,,,,,,,,,,,,,,,,,,,,,,,,,,,,,,
,,5bc880109f7801000148601b,2024-02-22_13h00.54.649,kallum_motion_pilot,2023.2.2,Win32,142.8571429,5bc880109f7801000148601b,65d6bb0e977760de756971f7,65d6d4d811081d3e25dff681,0.0287,0.0287,1,55,217,6,1,fourtwo,,,,,,,,,,,,,,,,,,,,,,,,,,,,,,,,,,,,,,,,,,,,,,,,,,,,,,,,,,,,,,,,,,,,,,,,,,,,,,,,,,,,,,,,,,,,,,,,,,,,,,,,,,,,,,,,,,,,,,,,,,,,,,,,,,,,,,,,,
,,5bc880109f7801000148601b,2024-02-22_13h00.54.649,kallum_motion_pilot,2023.2.2,Win32,142.8571429,5bc880109f7801000148601b,65d6bb0e977760de756971f7,65d6d4d811081d3e25dff681,0.0287,0.0288,1,56,218,88,1,fivesix,,,,,,,,,,,,,,,,,,,,,,,,,,,,,,,,,,,,,,,,,,,,,,,,,,,,,,,,,,,,,,,,,,,,,,,,,,,,,,,,,,,,,,,,,,,,,,,,,,,,,,,,,,,,,,,,,,,,,,,,,,,,,,,,,,,,,,,,,
,,5bc880109f7801000148601b,2024-02-22_13h00.54.649,kallum_motion_pilot,2023.2.2,Win32,142.8571429,5bc880109f7801000148601b,65d6bb0e977760de756971f7,65d6d4d811081d3e25dff681,0.0289,0.0289,1,57,219,21,1,threefour,,,,,,,,,,,,,,,,,,,,,,,,,,,,,,,,,,,,,,,,,,,,,,,,,,,,,,,,,,,,,,,,,,,,,,,,,,,,,,,,,,,,,,,,,,,,,,,,,,,,,,,,,,,,,,,,,,,,,,,,,,,,,,,,,,,,,,,,,
,,5bc880109f7801000148601b,2024-02-22_13h00.54.649,kallum_motion_pilot,2023.2.2,Win32,142.8571429,5bc880109f7801000148601b,65d6bb0e977760de756971f7,65d6d4d811081d3e25dff681,0.0289,0.0289,1,58,220,118,1,eightsix,,,,,,,,,,,,,,,,,,,,,,,,,,,,,,,,,,,,,,,,,,,,,,,,,,,,,,,,,,,,,,,,,,,,,,,,,,,,,,,,,,,,,,,,,,,,,,,,,,,,,,,,,,,,,,,,,,,,,,,,,,,,,,,,,,,,,,,,,
,,5bc880109f7801000148601b,2024-02-22_13h00.54.649,kallum_motion_pilot,2023.2.2,Win32,142.8571429,5bc880109f7801000148601b,65d6bb0e977760de756971f7,65d6d4d811081d3e25dff681,0.029,0.029,1,59,221,34,1,twoone,,,,,,,,,,,,,,,,,,,,,,,,,,,,,,,,,,,,,,,,,,,,,,,,,,,,,,,,,,,,,,,,,,,,,,,,,,,,,,,,,,,,,,,,,,,,,,,,,,,,,,,,,,,,,,,,,,,,,,,,,,,,,,,,,,,,,,,,,
,,5bc880109f7801000148601b,2024-02-22_13h00.54.649,kallum_motion_pilot,2023.2.2,Win32,142.8571429,5bc880109f7801000148601b,65d6bb0e977760de756971f7,65d6d4d811081d3e25dff681,0.0291,0.0291,1,60,222,12,1,threeone,,,,,,,,,,,,,,,,,,,,,,,,,,,,,,,,,,,,,,,,,,,,,,,,,,,,,,,,,,,,,,,,,,,,,,,,,,,,,,,,,,,,,,,,,,,,,,,,,,,,,,,,,,,,,,,,,,,,,,,,,,,,,,,,,,,,,,,,,
,,5bc880109f7801000148601b,2024-02-22_13h00.54.649,kallum_motion_pilot,2023.2.2,Win32,142.8571429,5bc880109f7801000148601b,65d6bb0e977760de756971f7,65d6d4d811081d3e25dff681,0.0292,0.0292,1,61,223,106,1,sixfive,,,,,,,,,,,,,,,,,,,,,,,,,,,,,,,,,,,,,,,,,,,,,,,,,,,,,,,,,,,,,,,,,,,,,,,,,,,,,,,,,,,,,,,,,,,,,,,,,,,,,,,,,,,,,,,,,,,,,,,,,,,,,,,,,,,,,,,,,
,,5bc880109f7801000148601b,2024-02-22_13h00.54.649,kallum_motion_pilot,2023.2.2,Win32,142.8571429,5bc880109f7801000148601b,65d6bb0e977760de756971f7,65d6d4d811081d3e25dff681,0.0292,0.0292,1,62,224,133,1,seveneight,,,,,,,,,,,,,,,,,,,,,,,,,,,,,,,,,,,,,,,,,,,,,,,,,,,,,,,,,,,,,,,,,,,,,,,,,,,,,,,,,,,,,,,,,,,,,,,,,,,,,,,,,,,,,,,,,,,,,,,,,,,,,,,,,,,,,,,,,
,,5bc880109f7801000148601b,2024-02-22_13h00.54.649,kallum_motion_pilot,2023.2.2,Win32,142.8571429,5bc880109f7801000148601b,65d6bb0e977760de756971f7,65d6d4d811081d3e25dff681,0.0294,0.0294,1,63,225,46,1,fourtwo,,,,,,,,,,,,,,,,,,,,,,,,,,,,,,,,,,,,,,,,,,,,,,,,,,,,,,,,,,,,,,,,,,,,,,,,,,,,,,,,,,,,,,,,,,,,,,,,,,,,,,,,,,,,,,,,,,,,,,,,,,,,,,,,,,,,,,,,,
,,5bc880109f7801000148601b,2024-02-22_13h00.54.649,kallum_motion_pilot,2023.2.2,Win32,142.8571429,5bc880109f7801000148601b,65d6bb0e977760de756971f7,65d6d4d811081d3e25dff681,0.0294,0.0294,1,64,226,10,1,twoone,,,,,,,,,,,,,,,,,,,,,,,,,,,,,,,,,,,,,,,,,,,,,,,,,,,,,,,,,,,,,,,,,,,,,,,,,,,,,,,,,,,,,,,,,,,,,,,,,,,,,,,,,,,,,,,,,,,,,,,,,,,,,,,,,,,,,,,,,
,,5bc880109f7801000148601b,2024-02-22_13h00.54.649,kallum_motion_pilot,2023.2.2,Win32,142.8571429,5bc880109f7801000148601b,65d6bb0e977760de756971f7,65d6d4d811081d3e25dff681,0.0295,0.0295,1,65,227,114,1,sixfive,,,,,,,,,,,,,,,,,,,,,,,,,,,,,,,,,,,,,,,,,,,,,,,,,,,,,,,,,,,,,,,,,,,,,,,,,,,,,,,,,,,,,,,,,,,,,,,,,,,,,,,,,,,,,,,,,,,,,,,,,,,,,,,,,,,,,,,,,
,,5bc880109f7801000148601b,2024-02-22_13h00.54.649,kallum_motion_pilot,2023.2.2,Win32,142.8571429,5bc880109f7801000148601b,65d6bb0e977760de756971f7,65d6d4d811081d3e25dff681,0.0295,0.0296,1,66,228,134,1,eightsix,,,,,,,,,,,,,,,,,,,,,,,,,,,,,,,,,,,,,,,,,,,,,,,,,,,,,,,,,,,,,,,,,,,,,,,,,,,,,,,,,,,,,,,,,,,,,,,,,,,,,,,,,,,,,,,,,,,,,,,,,,,,,,,,,,,,,,,,,
,,5bc880109f7801000148601b,2024-02-22_13h00.54.649,kallum_motion_pilot,2023.2.2,Win32,142.8571429,5bc880109f7801000148601b,65d6bb0e977760de756971f7,65d6d4d811081d3e25dff681,0.0296,0.0296,1,67,229,136,1,fivesix,,,,,,,,,,,,,,,,,,,,,,,,,,,,,,,,,,,,,,,,,,,,,,,,,,,,,,,,,,,,,,,,,,,,,,,,,,,,,,,,,,,,,,,,,,,,,,,,,,,,,,,,,,,,,,,,,,,,,,,,,,,,,,,,,,,,,,,,,
,,5bc880109f7801000148601b,2024-02-22_13h00.54.649,kallum_motion_pilot,2023.2.2,Win32,142.8571429,5bc880109f7801000148601b,65d6bb0e977760de756971f7,65d6d4d811081d3e25dff681,0.0297,0.0298,1,68,230,145,1,fiveseven,,,,,,,,,,,,,,,,,,,,,,,,,,,,,,,,,,,,,,,,,,,,,,,,,,,,,,,,,,,,,,,,,,,,,,,,,,,,,,,,,,,,,,,,,,,,,,,,,,,,,,,,,,,,,,,,,,,,,,,,,,,,,,,,,,,,,,,,,
,,5bc880109f7801000148601b,2024-02-22_13h00.54.649,kallum_motion_pilot,2023.2.2,Win32,142.8571429,5bc880109f7801000148601b,65d6bb0e977760de756971f7,65d6d4d811081d3e25dff681,0.0298,0.0298,1,69,231,59,1,twofour,,,,,,,,,,,,,,,,,,,,,,,,,,,,,,,,,,,,,,,,,,,,,,,,,,,,,,,,,,,,,,,,,,,,,,,,,,,,,,,,,,,,,,,,,,,,,,,,,,,,,,,,,,,,,,,,,,,,,,,,,,,,,,,,,,,,,,,,,
,,5bc880109f7801000148601b,2024-02-22_13h00.54.649,kallum_motion_pilot,2023.2.2,Win32,142.8571429,5bc880109f7801000148601b,65d6bb0e977760de756971f7,65d6d4d811081d3e25dff681,0.0298,0.0299,1,70,232,49,1,onethree,,,,,,,,,,,,,,,,,,,,,,,,,,,,,,,,,,,,,,,,,,,,,,,,,,,,,,,,,,,,,,,,,,,,,,,,,,,,,,,,,,,,,,,,,,,,,,,,,,,,,,,,,,,,,,,,,,,,,,,,,,,,,,,,,,,,,,,,,
,,5bc880109f7801000148601b,2024-02-22_13h00.54.649,kallum_motion_pilot,2023.2.2,Win32,142.8571429,5bc880109f7801000148601b,65d6bb0e977760de756971f7,65d6d4d811081d3e25dff681,0.0299,0.0301,1,71,233,68,1,threeone,,,,,,,,,,,,,,,,,,,,,,,,,,,,,,,,,,,,,,,,,,,,,,,,,,,,,,,,,,,,,,,,,,,,,,,,,,,,,,,,,,,,,,,,,,,,,,,,,,,,,,,,,,,,,,,,,,,,,,,,,,,,,,,,,,,,,,,,,
,,5bc880109f7801000148601b,2024-02-22_13h00.54.649,kallum_motion_pilot,2023.2.2,Win32,142.8571429,5bc880109f7801000148601b,65d6bb0e977760de756971f7,65d6d4d811081d3e25dff681,0.0301,0.0301,1,72,234,51,1,twofour,,,,,,,,,,,,,,,,,,,,,,,,,,,,,,,,,,,,,,,,,,,,,,,,,,,,,,,,,,,,,,,,,,,,,,,,,,,,,,,,,,,,,,,,,,,,,,,,,,,,,,,,,,,,,,,,,,,,,,,,,,,,,,,,,,,,,,,,,
,,5bc880109f7801000148601b,2024-02-22_13h00.54.649,kallum_motion_pilot,2023.2.2,Win32,142.8571429,5bc880109f7801000148601b,65d6bb0e977760de756971f7,65d6d4d811081d3e25dff681,0.0301,0.0301,1,73,235,152,1,fivesix,,,,,,,,,,,,,,,,,,,,,,,,,,,,,,,,,,,,,,,,,,,,,,,,,,,,,,,,,,,,,,,,,,,,,,,,,,,,,,,,,,,,,,,,,,,,,,,,,,,,,,,,,,,,,,,,,,,,,,,,,,,,,,,,,,,,,,,,,
,,5bc880109f7801000148601b,2024-02-22_13h00.54.649,kallum_motion_pilot,2023.2.2,Win32,142.8571429,5bc880109f7801000148601b,65d6bb0e977760de756971f7,65d6d4d811081d3e25dff681,0.0302,0.0303,1,74,236,37,1,threefour,,,,,,,,,,,,,,,,,,,,,,,,,,,,,,,,,,,,,,,,,,,,,,,,,,,,,,,,,,,,,,,,,,,,,,,,,,,,,,,,,,,,,,,,,,,,,,,,,,,,,,,,,,,,,,,,,,,,,,,,,,,,,,,,,,,,,,,,,
,,5bc880109f7801000148601b,2024-02-22_13h00.54.649,kallum_motion_pilot,2023.2.2,Win32,142.8571429,5bc880109f7801000148601b,65d6bb0e977760de756971f7,65d6d4d811081d3e25dff681,0.0303,0.0303,1,75,237,65,1,onethree,,,,,,,,,,,,,,,,,,,,,,,,,,,,,,,,,,,,,,,,,,,,,,,,,,,,,,,,,,,,,,,,,,,,,,,,,,,,,,,,,,,,,,,,,,,,,,,,,,,,,,,,,,,,,,,,,,,,,,,,,,,,,,,,,,,,,,,,,
,,5bc880109f7801000148601b,2024-02-22_13h00.54.649,kallum_motion_pilot,2023.2.2,Win32,142.8571429,5bc880109f7801000148601b,65d6bb0e977760de756971f7,65d6d4d811081d3e25dff681,0.0304,0.0304,1,76,238,71,1,fourthree,,,,,,,,,,,,,,,,,,,,,,,,,,,,,,,,,,,,,,,,,,,,,,,,,,,,,,,,,,,,,,,,,,,,,,,,,,,,,,,,,,,,,,,,,,,,,,,,,,,,,,,,,,,,,,,,,,,,,,,,,,,,,,,,,,,,,,,,,
,,5bc880109f7801000148601b,2024-02-22_13h00.54.649,kallum_motion_pilot,2023.2.2,Win32,142.8571429,5bc880109f7801000148601b,65d6bb0e977760de756971f7,65d6d4d811081d3e25dff681,0.0304,0.0304,1,77,239,38,1,fourtwo,,,,,,,,,,,,,,,,,,,,,,,,,,,,,,,,,,,,,,,,,,,,,,,,,,,,,,,,,,,,,,,,,,,,,,,,,,,,,,,,,,,,,,,,,,,,,,,,,,,,,,,,,,,,,,,,,,,,,,,,,,,,,,,,,,,,,,,,,
,,5bc880109f7801000148601b,2024-02-22_13h00.54.649,kallum_motion_pilot,2023.2.2,Win32,142.8571429,5bc880109f7801000148601b,65d6bb0e977760de756971f7,65d6d4d811081d3e25dff681,0.0305,0.0306,1,78,240,127,1,eightseven,,,,,,,,,,,,,,,,,,,,,,,,,,,,,,,,,,,,,,,,,,,,,,,,,,,,,,,,,,,,,,,,,,,,,,,,,,,,,,,,,,,,,,,,,,,,,,,,,,,,,,,,,,,,,,,,,,,,,,,,,,,,,,,,,,,,,,,,,
,,5bc880109f7801000148601b,2024-02-22_13h00.54.649,kallum_motion_pilot,2023.2.2,Win32,142.8571429,5bc880109f7801000148601b,65d6bb0e977760de756971f7,65d6d4d811081d3e25dff681,0.0306,0.0307,1,79,241,142,1,eightsix,,,,,,,,,,,,,,,,,,,,,,,,,,,,,,,,,,,,,,,,,,,,,,,,,,,,,,,,,,,,,,,,,,,,,,,,,,,,,,,,,,,,,,,,,,,,,,,,,,,,,,,,,,,,,,,,,,,,,,,,,,,,,,,,,,,,,,,,,
,,5bc880109f7801000148601b,2024-02-22_13h00.54.649,kallum_motion_pilot,2023.2.2,Win32,142.8571429,5bc880109f7801000148601b,65d6bb0e977760de756971f7,65d6d4d811081d3e25dff681,0.0307,0.0308,1,80,242,60,1,threeone,,,,,,,,,,,,,,,,,,,,,,,,,,,,,,,,,,,,,,,,,,,,,,,,,,,,,,,,,,,,,,,,,,,,,,,,,,,,,,,,,,,,,,,,,,,,,,,,,,,,,,,,,,,,,,,,,,,,,,,,,,,,,,,,,,,,,,,,,
,,5bc880109f7801000148601b,2024-02-22_13h00.54.649,kallum_motion_pilot,2023.2.2,Win32,142.8571429,5bc880109f7801000148601b,65d6bb0e977760de756971f7,65d6d4d811081d3e25dff681,0.0308,0.0308,1,81,243,120,1,fivesix,,,,,,,,,,,,,,,,,,,,,,,,,,,,,,,,,,,,,,,,,,,,,,,,,,,,,,,,,,,,,,,,,,,,,,,,,,,,,,,,,,,,,,,,,,,,,,,,,,,,,,,,,,,,,,,,,,,,,,,,,,,,,,,,,,,,,,,,,
,,5bc880109f7801000148601b,2024-02-22_13h00.54.649,kallum_motion_pilot,2023.2.2,Win32,142.8571429,5bc880109f7801000148601b,65d6bb0e977760de756971f7,65d6d4d811081d3e25dff681,0.0308,0.0309,1,82,244,45,1,threefour,,,,,,,,,,,,,,,,,,,,,,,,,,,,,,,,,,,,,,,,,,,,,,,,,,,,,,,,,,,,,,,,,,,,,,,,,,,,,,,,,,,,,,,,,,,,,,,,,,,,,,,,,,,,,,,,,,,,,,,,,,,,,,,,,,,,,,,,,
,,5bc880109f7801000148601b,2024-02-22_13h00.54.649,kallum_motion_pilot,2023.2.2,Win32,142.8571429,5bc880109f7801000148601b,65d6bb0e977760de756971f7,65d6d4d811081d3e25dff681,0.0309,0.0309,1,83,245,53,1,threefour,,,,,,,,,,,,,,,,,,,,,,,,,,,,,,,,,,,,,,,,,,,,,,,,,,,,,,,,,,,,,,,,,,,,,,,,,,,,,,,,,,,,,,,,,,,,,,,,,,,,,,,,,,,,,,,,,,,,,,,,,,,,,,,,,,,,,,,,,
,,5bc880109f7801000148601b,2024-02-22_13h00.54.649,kallum_motion_pilot,2023.2.2,Win32,142.8571429,5bc880109f7801000148601b,65d6bb0e977760de756971f7,65d6d4d811081d3e25dff681,0.031,0.031,1,84,246,77,1,threefour,,,,,,,,,,,,,,,,,,,,,,,,,,,,,,,,,,,,,,,,,,,,,,,,,,,,,,,,,,,,,,,,,,,,,,,,,,,,,,,,,,,,,,,,,,,,,,,,,,,,,,,,,,,,,,,,,,,,,,,,,,,,,,,,,,,,,,,,,
,,5bc880109f7801000148601b,2024-02-22_13h00.54.649,kallum_motion_pilot,2023.2.2,Win32,142.8571429,5bc880109f7801000148601b,65d6bb0e977760de756971f7,65d6d4d811081d3e25dff681,0.0311,0.0311,1,85,247,155,1,sixeight,,,,,,,,,,,,,,,,,,,,,,,,,,,,,,,,,,,,,,,,,,,,,,,,,,,,,,,,,,,,,,,,,,,,,,,,,,,,,,,,,,,,,,,,,,,,,,,,,,,,,,,,,,,,,,,,,,,,,,,,,,,,,,,,,,,,,,,,,
,,5bc880109f7801000148601b,2024-02-22_13h00.54.649,kallum_motion_pilot,2023.2.2,Win32,142.8571429,5bc880109f7801000148601b,65d6bb0e977760de756971f7,65d6d4d811081d3e25dff681,0.0311,0.0312,1,86,248,23,1,fourthree,,,,,,,,,,,,,,,,,,,,,,,,,,,,,,,,,,,,,,,,,,,,,,,,,,,,,,,,,,,,,,,,,,,,,,,,,,,,,,,,,,,,,,,,,,,,,,,,,,,,,,,,,,,,,,,,,,,,,,,,,,,,,,,,,,,,,,,,,
,,5bc880109f7801000148601b,2024-02-22_13h00.54.649,kallum_motion_pilot,2023.2.2,Win32,142.8571429,5bc880109f7801000148601b,65d6bb0e977760de756971f7,65d6d4d811081d3e25dff681,0.0312,0.0313,1,87,249,130,1,sixfive,,,,,,,,,,,,,,,,,,,,,,,,,,,,,,,,,,,,,,,,,,,,,,,,,,,,,,,,,,,,,,,,,,,,,,,,,,,,,,,,,,,,,,,,,,,,,,,,,,,,,,,,,,,,,,,,,,,,,,,,,,,,,,,,,,,,,,,,,
,,5bc880109f7801000148601b,2024-02-22_13h00.54.649,kallum_motion_pilot,2023.2.2,Win32,142.8571429,5bc880109f7801000148601b,65d6bb0e977760de756971f7,65d6d4d811081d3e25dff681,0.0313,0.0314,1,88,250,40,1,onetwo,,,,,,,,,,,,,,,,,,,,,,,,,,,,,,,,,,,,,,,,,,,,,,,,,,,,,,,,,,,,,,,,,,,,,,,,,,,,,,,,,,,,,,,,,,,,,,,,,,,,,,,,,,,,,,,,,,,,,,,,,,,,,,,,,,,,,,,,,
,,5bc880109f7801000148601b,2024-02-22_13h00.54.649,kallum_motion_pilot,2023.2.2,Win32,142.8571429,5bc880109f7801000148601b,65d6bb0e977760de756971f7,65d6d4d811081d3e25dff681,0.0314,0.0315,1,89,251,102,1,eightsix,,,,,,,,,,,,,,,,,,,,,,,,,,,,,,,,,,,,,,,,,,,,,,,,,,,,,,,,,,,,,,,,,,,,,,,,,,,,,,,,,,,,,,,,,,,,,,,,,,,,,,,,,,,,,,,,,,,,,,,,,,,,,,,,,,,,,,,,,
,,5bc880109f7801000148601b,2024-02-22_13h00.54.649,kallum_motion_pilot,2023.2.2,Win32,142.8571429,5bc880109f7801000148601b,65d6bb0e977760de756971f7,65d6d4d811081d3e25dff681,0.0315,0.0316,1,90,252,92,1,sevenfive,,,,,,,,,,,,,,,,,,,,,,,,,,,,,,,,,,,,,,,,,,,,,,,,,,,,,,,,,,,,,,,,,,,,,,,,,,,,,,,,,,,,,,,,,,,,,,,,,,,,,,,,,,,,,,,,,,,,,,,,,,,,,,,,,,,,,,,,,
,,5bc880109f7801000148601b,2024-02-22_13h00.54.649,kallum_motion_pilot,2023.2.2,Win32,142.8571429,5bc880109f7801000148601b,65d6bb0e977760de756971f7,65d6d4d811081d3e25dff681,0.0316,0.0316,1,91,253,137,1,fiveseven,,,,,,,,,,,,,,,,,,,,,,,,,,,,,,,,,,,,,,,,,,,,,,,,,,,,,,,,,,,,,,,,,,,,,,,,,,,,,,,,,,,,,,,,,,,,,,,,,,,,,,,,,,,,,,,,,,,,,,,,,,,,,,,,,,,,,,,,,
,,5bc880109f7801000148601b,2024-02-22_13h00.54.649,kallum_motion_pilot,2023.2.2,Win32,142.8571429,5bc880109f7801000148601b,65d6bb0e977760de756971f7,65d6d4d811081d3e25dff681,0.0317,0.0317,1,92,254,19,1,twofour,,,,,,,,,,,,,,,,,,,,,,,,,,,,,,,,,,,,,,,,,,,,,,,,,,,,,,,,,,,,,,,,,,,,,,,,,,,,,,,,,,,,,,,,,,,,,,,,,,,,,,,,,,,,,,,,,,,,,,,,,,,,,,,,,,,,,,,,,
,,5bc880109f7801000148601b,2024-02-22_13h00.54.649,kallum_motion_pilot,2023.2.2,Win32,142.8571429,5bc880109f7801000148601b,65d6bb0e977760de756971f7,65d6d4d811081d3e25dff681,0.0318,0.0318,1,93,255,58,1,twoone,,,,,,,,,,,,,,,,,,,,,,,,,,,,,,,,,,,,,,,,,,,,,,,,,,,,,,,,,,,,,,,,,,,,,,,,,,,,,,,,,,,,,,,,,,,,,,,,,,,,,,,,,,,,,,,,,,,,,,,,,,,,,,,,,,,,,,,,,
,,5bc880109f7801000148601b,2024-02-22_13h00.54.649,kallum_motion_pilot,2023.2.2,Win32,142.8571429,5bc880109f7801000148601b,65d6bb0e977760de756971f7,65d6d4d811081d3e25dff681,0.0318,0.0319,1,94,256,35,1,twofour,,,,,,,,,,,,,,,,,,,,,,,,,,,,,,,,,,,,,,,,,,,,,,,,,,,,,,,,,,,,,,,,,,,,,,,,,,,,,,,,,,,,,,,,,,,,,,,,,,,,,,,,,,,,,,,,,,,,,,,,,,,,,,,,,,,,,,,,,
,,5bc880109f7801000148601b,2024-02-22_13h00.54.649,kallum_motion_pilot,2023.2.2,Win32,142.8571429,5bc880109f7801000148601b,65d6bb0e977760de756971f7,65d6d4d811081d3e25dff681,0.0319,0.032,1,95,257,39,1,fourthree,,,,,,,,,,,,,,,,,,,,,,,,,,,,,,,,,,,,,,,,,,,,,,,,,,,,,,,,,,,,,,,,,,,,,,,,,,,,,,,,,,,,,,,,,,,,,,,,,,,,,,,,,,,,,,,,,,,,,,,,,,,,,,,,,,,,,,,,,
,,5bc880109f7801000148601b,2024-02-22_13h00.54.649,kallum_motion_pilot,2023.2.2,Win32,142.8571429,5bc880109f7801000148601b,65d6bb0e977760de756971f7,65d6d4d811081d3e25dff681,0.0321,0.0321,1,96,258,13,1,threefour,,,,,,,,,,,,,,,,,,,,,,,,,,,,,,,,,,,,,,,,,,,,,,,,,,,,,,,,,,,,,,,,,,,,,,,,,,,,,,,,,,,,,,,,,,,,,,,,,,,,,,,,,,,,,,,,,,,,,,,,,,,,,,,,,,,,,,,,,
,,5bc880109f7801000148601b,2024-02-22_13h00.54.649,kallum_motion_pilot,2023.2.2,Win32,142.8571429,5bc880109f7801000148601b,65d6bb0e977760de756971f7,65d6d4d811081d3e25dff681,0.0321,0.0322,1,97,259,147,1,sixeight,,,,,,,,,,,,,,,,,,,,,,,,,,,,,,,,,,,,,,,,,,,,,,,,,,,,,,,,,,,,,,,,,,,,,,,,,,,,,,,,,,,,,,,,,,,,,,,,,,,,,,,,,,,,,,,,,,,,,,,,,,,,,,,,,,,,,,,,,
,,5bc880109f7801000148601b,2024-02-22_13h00.54.649,kallum_motion_pilot,2023.2.2,Win32,142.8571429,5bc880109f7801000148601b,65d6bb0e977760de756971f7,65d6d4d811081d3e25dff681,0.0322,0.0322,1,98,260,80,1,fivesix,,,,,,,,,,,,,,,,,,,,,,,,,,,,,,,,,,,,,,,,,,,,,,,,,,,,,,,,,,,,,,,,,,,,,,,,,,,,,,,,,,,,,,,,,,,,,,,,,,,,,,,,,,,,,,,,,,,,,,,,,,,,,,,,,,,,,,,,,
,,5bc880109f7801000148601b,2024-02-22_13h00.54.649,kallum_motion_pilot,2023.2.2,Win32,142.8571429,5bc880109f7801000148601b,65d6bb0e977760de756971f7,65d6d4d811081d3e25dff681,0.0322,0.0323,1,99,261,54,1,fourtwo,,,,,,,,,,,,,,,,,,,,,,,,,,,,,,,,,,,,,,,,,,,,,,,,,,,,,,,,,,,,,,,,,,,,,,,,,,,,,,,,,,,,,,,,,,,,,,,,,,,,,,,,,,,,,,,,,,,,,,,,,,,,,,,,,,,,,,,,,
,,5bc880109f7801000148601b,2024-02-22_13h00.54.649,kallum_motion_pilot,2023.2.2,Win32,142.8571429,5bc880109f7801000148601b,65d6bb0e977760de756971f7,65d6d4d811081d3e25dff681,0.0324,0.0324,1,100,262,42,1,twoone,,,,,,,,,,,,,,,,,,,,,,,,,,,,,,,,,,,,,,,,,,,,,,,,,,,,,,,,,,,,,,,,,,,,,,,,,,,,,,,,,,,,,,,,,,,,,,,,,,,,,,,,,,,,,,,,,,,,,,,,,,,,,,,,,,,,,,,,,
,,5bc880109f7801000148601b,2024-02-22_13h00.54.649,kallum_motion_pilot,2023.2.2,Win32,142.8571429,5bc880109f7801000148601b,65d6bb0e977760de756971f7,65d6d4d811081d3e25dff681,0.0324,0.0324,1,101,263,57,1,onethree,,,,,,,,,,,,,,,,,,,,,,,,,,,,,,,,,,,,,,,,,,,,,,,,,,,,,,,,,,,,,,,,,,,,,,,,,,,,,,,,,,,,,,,,,,,,,,,,,,,,,,,,,,,,,,,,,,,,,,,,,,,,,,,,,,,,,,,,,
,,5bc880109f7801000148601b,2024-02-22_13h00.54.649,kallum_motion_pilot,2023.2.2,Win32,142.8571429,5bc880109f7801000148601b,65d6bb0e977760de756971f7,65d6d4d811081d3e25dff681,0.0325,0.0326,1,102,264,158,1,eightsix,,,,,,,,,,,,,,,,,,,,,,,,,,,,,,,,,,,,,,,,,,,,,,,,,,,,,,,,,,,,,,,,,,,,,,,,,,,,,,,,,,,,,,,,,,,,,,,,,,,,,,,,,,,,,,,,,,,,,,,,,,,,,,,,,,,,,,,,,
,,5bc880109f7801000148601b,2024-02-22_13h00.54.649,kallum_motion_pilot,2023.2.2,Win32,142.8571429,5bc880109f7801000148601b,65d6bb0e977760de756971f7,65d6d4d811081d3e25dff681,0.0326,0.0327,1,103,265,52,1,threeone,,,,,,,,,,,,,,,,,,,,,,,,,,,,,,,,,,,,,,,,,,,,,,,,,,,,,,,,,,,,,,,,,,,,,,,,,,,,,,,,,,,,,,,,,,,,,,,,,,,,,,,,,,,,,,,,,,,,,,,,,,,,,,,,,,,,,,,,,
,,5bc880109f7801000148601b,2024-02-22_13h00.54.649,kallum_motion_pilot,2023.2.2,Win32,142.8571429,5bc880109f7801000148601b,65d6bb0e977760de756971f7,65d6d4d811081d3e25dff681,0.0328,0.0328,1,104,266,131,1,sixeight,,,,,,,,,,,,,,,,,,,,,,,,,,,,,,,,,,,,,,,,,,,,,,,,,,,,,,,,,,,,,,,,,,,,,,,,,,,,,,,,,,,,,,,,,,,,,,,,,,,,,,,,,,,,,,,,,,,,,,,,,,,,,,,,,,,,,,,,,
,,5bc880109f7801000148601b,2024-02-22_13h00.54.649,kallum_motion_pilot,2023.2.2,Win32,142.8571429,5bc880109f7801000148601b,65d6bb0e977760de756971f7,65d6d4d811081d3e25dff681,0.0328,0.0329,1,105,267,29,1,threefour,,,,,,,,,,,,,,,,,,,,,,,,,,,,,,,,,,,,,,,,,,,,,,,,,,,,,,,,,,,,,,,,,,,,,,,,,,,,,,,,,,,,,,,,,,,,,,,,,,,,,,,,,,,,,,,,,,,,,,,,,,,,,,,,,,,,,,,,,
,,5bc880109f7801000148601b,2024-02-22_13h00.54.649,kallum_motion_pilot,2023.2.2,Win32,142.8571429,5bc880109f7801000148601b,65d6bb0e977760de756971f7,65d6d4d811081d3e25dff681,0.033,0.033,1,106,268,154,1,sixfive,,,,,,,,,,,,,,,,,,,,,,,,,,,,,,,,,,,,,,,,,,,,,,,,,,,,,,,,,,,,,,,,,,,,,,,,,,,,,,,,,,,,,,,,,,,,,,,,,,,,,,,,,,,,,,,,,,,,,,,,,,,,,,,,,,,,,,,,,
,,5bc880109f7801000148601b,2024-02-22_13h00.54.649,kallum_motion_pilot,2023.2.2,Win32,142.8571429,5bc880109f7801000148601b,65d6bb0e977760de756971f7,65d6d4d811081d3e25dff681,0.0331,0.0331,1,107,269,64,1,onetwo,,,,,,,,,,,,,,,,,,,,,,,,,,,,,,,,,,,,,,,,,,,,,,,,,,,,,,,,,,,,,,,,,,,,,,,,,,,,,,,,,,,,,,,,,,,,,,,,,,,,,,,,,,,,,,,,,,,,,,,,,,,,,,,,,,,,,,,,,
,,5bc880109f7801000148601b,2024-02-22_13h00.54.649,kallum_motion_pilot,2023.2.2,Win32,142.8571429,5bc880109f7801000148601b,65d6bb0e977760de756971f7,65d6d4d811081d3e25dff681,0.0331,0.0332,1,108,270,122,1,sixfive,,,,,,,,,,,,,,,,,,,,,,,,,,,,,,,,,,,,,,,,,,,,,,,,,,,,,,,,,,,,,,,,,,,,,,,,,,,,,,,,,,,,,,,,,,,,,,,,,,,,,,,,,,,,,,,,,,,,,,,,,,,,,,,,,,,,,,,,,
,,5bc880109f7801000148601b,2024-02-22_13h00.54.649,kallum_motion_pilot,2023.2.2,Win32,142.8571429,5bc880109f7801000148601b,65d6bb0e977760de756971f7,65d6d4d811081d3e25dff681,0.0332,0.0332,1,109,271,111,1,eightseven,,,,,,,,,,,,,,,,,,,,,,,,,,,,,,,,,,,,,,,,,,,,,,,,,,,,,,,,,,,,,,,,,,,,,,,,,,,,,,,,,,,,,,,,,,,,,,,,,,,,,,,,,,,,,,,,,,,,,,,,,,,,,,,,,,,,,,,,,
,,5bc880109f7801000148601b,2024-02-22_13h00.54.649,kallum_motion_pilot,2023.2.2,Win32,142.8571429,5bc880109f7801000148601b,65d6bb0e977760de756971f7,65d6d4d811081d3e25dff681,0.0333,0.0333,1,110,272,86,1,eightsix,,,,,,,,,,,,,,,,,,,,,,,,,,,,,,,,,,,,,,,,,,,,,,,,,,,,,,,,,,,,,,,,,,,,,,,,,,,,,,,,,,,,,,,,,,,,,,,,,,,,,,,,,,,,,,,,,,,,,,,,,,,,,,,,,,,,,,,,,
,,5bc880109f7801000148601b,2024-02-22_13h00.54.649,kallum_motion_pilot,2023.2.2,Win32,142.8571429,5bc880109f7801000148601b,65d6bb0e977760de756971f7,65d6d4d811081d3e25dff681,0.0333,0.0334,1,111,273,149,1,seveneight,,,,,,,,,,,,,,,,,,,,,,,,,,,,,,,,,,,,,,,,,,,,,,,,,,,,,,,,,,,,,,,,,,,,,,,,,,,,,,,,,,,,,,,,,,,,,,,,,,,,,,,,,,,,,,,,,,,,,,,,,,,,,,,,,,,,,,,,,
,,5bc880109f7801000148601b,2024-02-22_13h00.54.649,kallum_motion_pilot,2023.2.2,Win32,142.8571429,5bc880109f7801000148601b,65d6bb0e977760de756971f7,65d6d4d811081d3e25dff681,0.0334,0.0334,1,112,274,18,1,twoone,,,,,,,,,,,,,,,,,,,,,,,,,,,,,,,,,,,,,,,,,,,,,,,,,,,,,,,,,,,,,,,,,,,,,,,,,,,,,,,,,,,,,,,,,,,,,,,,,,,,,,,,,,,,,,,,,,,,,,,,,,,,,,,,,,,,,,,,,
,,5bc880109f7801000148601b,2024-02-22_13h00.54.649,kallum_motion_pilot,2023.2.2,Win32,142.8571429,5bc880109f7801000148601b,65d6bb0e977760de756971f7,65d6d4d811081d3e25dff681,0.0335,0.0336,1,113,275,124,1,sevenfive,,,,,,,,,,,,,,,,,,,,,,,,,,,,,,,,,,,,,,,,,,,,,,,,,,,,,,,,,,,,,,,,,,,,,,,,,,,,,,,,,,,,,,,,,,,,,,,,,,,,,,,,,,,,,,,,,,,,,,,,,,,,,,,,,,,,,,,,,
,,5bc880109f7801000148601b,2024-02-22_13h00.54.649,kallum_motion_pilot,2023.2.2,Win32,142.8571429,5bc880109f7801000148601b,65d6bb0e977760de756971f7,65d6d4d811081d3e25dff681,0.0336,0.0336,1,114,276,28,1,threeone,,,,,,,,,,,,,,,,,,,,,,,,,,,,,,,,,,,,,,,,,,,,,,,,,,,,,,,,,,,,,,,,,,,,,,,,,,,,,,,,,,,,,,,,,,,,,,,,,,,,,,,,,,,,,,,,,,,,,,,,,,,,,,,,,,,,,,,,,
,,5bc880109f7801000148601b,2024-02-22_13h00.54.649,kallum_motion_pilot,2023.2.2,Win32,142.8571429,5bc880109f7801000148601b,65d6bb0e977760de756971f7,65d6d4d811081d3e25dff681,0.0337,0.0337,1,115,277,30,1,fourtwo,,,,,,,,,,,,,,,,,,,,,,,,,,,,,,,,,,,,,,,,,,,,,,,,,,,,,,,,,,,,,,,,,,,,,,,,,,,,,,,,,,,,,,,,,,,,,,,,,,,,,,,,,,,,,,,,,,,,,,,,,,,,,,,,,,,,,,,,,
