startup.started,startup.stopped,Prolific ID*,date,expName,psychopyVersion,OS,frameRate,participant,study_id,session,stimpositions.started,stimpositions.stopped,hardcoded_stimulus_positions.thisRepN,hardcoded_stimulus_positions.thisTrialN,hardcoded_stimulus_positions.thisN,hardcoded_stimulus_positions.thisIndex,hardcoded_stimulus_positions.ran,StimulusPos,stimorientation.started,stimorientation.stopped,prac_stimorientation_import_loop.thisRepN,prac_stimorientation_import_loop.thisTrialN,prac_stimorientation_import_loop.thisN,prac_stimorientation_import_loop.thisIndex,prac_stimorientation_import_loop.ran,Stimorientation,welcome_instr.started,welcome_instr.stopped,key_resp.keys,key_resp.rt,key_resp.duration,response_steppedout_1.started,response_steppedout_1.stopped,key_resp_20.keys,key_resp_20.rt,key_resp_20.duration,response_steppedout_2.started,response_steppedout_2.stopped,key_resp_19.keys,key_resp_19.rt,key_resp_19.duration,stim_response_instr.started,stim_response_instr.stopped,key_resp_15.keys,key_resp_15.rt,key_resp_15.duration,direction_instr_2.started,direction_instr_2.stopped,key_resp_9.keys,key_resp_9.rt,key_resp_9.duration,instr_prac.started,instr_prac.stopped,key_resp_10.keys,key_resp_10.rt,key_resp_10.duration,Stim1_display_prac.started,Stim1_display_prac.stopped,Ecc,Circle1_ori,Circle2_ori,response_prac.started,similarity,response_time,response_prac.stopped,mouse_5.x,mouse_5.y,mouse_5.leftButton,mouse_5.midButton,mouse_5.rightButton,mouse_5.clicked_name,responseprac_feedback.started,responseprac_feedback.stopped,summary2_prac.started,summary2_prac.stopped,mouse_6.x,mouse_6.y,mouse_6.leftButton,mouse_6.midButton,mouse_6.rightButton,mouse_6.clicked_name,duringprac.thisRepN,duringprac.thisTrialN,duringprac.thisN,duringprac.thisIndex,duringprac.ran,begin.started,begin.stopped,key_resp_22.keys,key_resp_22.rt,key_resp_22.duration,Stim1_display.started,Stim1_display.stopped,circle1_ori,circle2_ori,circle1_SF,circle2_SF,response.started,response.stopped,mouse.x,mouse.y,mouse.leftButton,mouse.midButton,mouse.rightButton,mouse.clicked_name,trialnumber,double_pass.thisRepN,double_pass.thisTrialN,double_pass.thisN,double_pass.thisIndex,double_pass.ran,double_pass.order,main_trial.thisRepN,main_trial.thisTrialN,main_trial.thisN,main_trial.thisIndex,main_trial.ran,main_trial.order,Trial_Counter,Catch,Frequencies,response_2.started,response_2.stopped,mouse_2.x,mouse_2.y,mouse_2.leftButton,mouse_2.midButton,mouse_2.rightButton,mouse_2.clicked_name,special_trial.started,special_trial.stopped,catch_1.started,catch_1.stopped,mouse_3.x,mouse_3.y,mouse_3.leftButton,mouse_3.midButton,mouse_3.rightButton,catchresponse,catchnumber,response_time_catch,response_sum.started,response_sum.stopped,mouse_11.x,mouse_11.y,mouse_11.leftButton,mouse_11.midButton,mouse_11.rightButton,flip_presentation_sequence_for_double_pass.started,flip_presentation_sequence_for_double_pass.stopped,goodbye.started,goodbye.stopped,key_resp_3.keys,key_resp_3.rt,key_resp_3.duration
0.0003,0.0004,5bcd11401662020001fe82c1,2024-02-19_03h16.29.521,kallum_motion_pilot,2023.2.2,Win32,59.88023952,5bcd11401662020001fe82c1,65d2b6c8f2eece985d8e374c,65d2b97070519faf7d3f00e8,,,,,,,,,,,,,,,,,,,,,,,,,,,,,,,,,,,,,,,,,,,,,,,,,,,,,,,,,,,,,,,,,,,,,,,,,,,,,,,,,,,,,,,,,,,,,,,,,,,,,,,,,,,,,,,,,,,,,,,,,,,,,,,,,,,,,,,,,,,,,,,,,
,,5bcd11401662020001fe82c1,2024-02-19_03h16.29.521,kallum_motion_pilot,2023.2.2,Win32,59.88023952,5bcd11401662020001fe82c1,65d2b6c8f2eece985d8e374c,65d2b97070519faf7d3f00e8,0.0174,0.0175,0,0,0,107,1,sixeight,,,,,,,,,,,,,,,,,,,,,,,,,,,,,,,,,,,,,,,,,,,,,,,,,,,,,,,,,,,,,,,,,,,,,,,,,,,,,,,,,,,,,,,,,,,,,,,,,,,,,,,,,,,,,,,,,,,,,,,,,,,,,,,,,,,,,,,,,
,,5bcd11401662020001fe82c1,2024-02-19_03h16.29.521,kallum_motion_pilot,2023.2.2,Win32,59.88023952,5bcd11401662020001fe82c1,65d2b6c8f2eece985d8e374c,65d2b97070519faf7d3f00e8,0.0177,0.0177,0,1,1,70,1,fourtwo,,,,,,,,,,,,,,,,,,,,,,,,,,,,,,,,,,,,,,,,,,,,,,,,,,,,,,,,,,,,,,,,,,,,,,,,,,,,,,,,,,,,,,,,,,,,,,,,,,,,,,,,,,,,,,,,,,,,,,,,,,,,,,,,,,,,,,,,,
,,5bcd11401662020001fe82c1,2024-02-19_03h16.29.521,kallum_motion_pilot,2023.2.2,Win32,59.88023952,5bcd11401662020001fe82c1,65d2b6c8f2eece985d8e374c,65d2b97070519faf7d3f00e8,0.0177,0.0178,0,2,2,41,1,onethree,,,,,,,,,,,,,,,,,,,,,,,,,,,,,,,,,,,,,,,,,,,,,,,,,,,,,,,,,,,,,,,,,,,,,,,,,,,,,,,,,,,,,,,,,,,,,,,,,,,,,,,,,,,,,,,,,,,,,,,,,,,,,,,,,,,,,,,,,
,,5bcd11401662020001fe82c1,2024-02-19_03h16.29.521,kallum_motion_pilot,2023.2.2,Win32,59.88023952,5bcd11401662020001fe82c1,65d2b6c8f2eece985d8e374c,65d2b97070519faf7d3f00e8,0.0178,0.0178,0,3,3,111,1,eightseven,,,,,,,,,,,,,,,,,,,,,,,,,,,,,,,,,,,,,,,,,,,,,,,,,,,,,,,,,,,,,,,,,,,,,,,,,,,,,,,,,,,,,,,,,,,,,,,,,,,,,,,,,,,,,,,,,,,,,,,,,,,,,,,,,,,,,,,,,
,,5bcd11401662020001fe82c1,2024-02-19_03h16.29.521,kallum_motion_pilot,2023.2.2,Win32,59.88023952,5bcd11401662020001fe82c1,65d2b6c8f2eece985d8e374c,65d2b97070519faf7d3f00e8,0.0179,0.0179,0,4,4,106,1,sixfive,,,,,,,,,,,,,,,,,,,,,,,,,,,,,,,,,,,,,,,,,,,,,,,,,,,,,,,,,,,,,,,,,,,,,,,,,,,,,,,,,,,,,,,,,,,,,,,,,,,,,,,,,,,,,,,,,,,,,,,,,,,,,,,,,,,,,,,,,
,,5bcd11401662020001fe82c1,2024-02-19_03h16.29.521,kallum_motion_pilot,2023.2.2,Win32,59.88023952,5bcd11401662020001fe82c1,65d2b6c8f2eece985d8e374c,65d2b97070519faf7d3f00e8,0.018,0.018,0,5,5,104,1,fivesix,,,,,,,,,,,,,,,,,,,,,,,,,,,,,,,,,,,,,,,,,,,,,,,,,,,,,,,,,,,,,,,,,,,,,,,,,,,,,,,,,,,,,,,,,,,,,,,,,,,,,,,,,,,,,,,,,,,,,,,,,,,,,,,,,,,,,,,,,
,,5bcd11401662020001fe82c1,2024-02-19_03h16.29.521,kallum_motion_pilot,2023.2.2,Win32,59.88023952,5bcd11401662020001fe82c1,65d2b6c8f2eece985d8e374c,65d2b97070519faf7d3f00e8,0.018,0.018,0,6,6,127,1,eightseven,,,,,,,,,,,,,,,,,,,,,,,,,,,,,,,,,,,,,,,,,,,,,,,,,,,,,,,,,,,,,,,,,,,,,,,,,,,,,,,,,,,,,,,,,,,,,,,,,,,,,,,,,,,,,,,,,,,,,,,,,,,,,,,,,,,,,,,,,
,,5bcd11401662020001fe82c1,2024-02-19_03h16.29.521,kallum_motion_pilot,2023.2.2,Win32,59.88023952,5bcd11401662020001fe82c1,65d2b6c8f2eece985d8e374c,65d2b97070519faf7d3f00e8,0.0181,0.0181,0,7,7,100,1,sevenfive,,,,,,,,,,,,,,,,,,,,,,,,,,,,,,,,,,,,,,,,,,,,,,,,,,,,,,,,,,,,,,,,,,,,,,,,,,,,,,,,,,,,,,,,,,,,,,,,,,,,,,,,,,,,,,,,,,,,,,,,,,,,,,,,,,,,,,,,,
,,5bcd11401662020001fe82c1,2024-02-19_03h16.29.521,kallum_motion_pilot,2023.2.2,Win32,59.88023952,5bcd11401662020001fe82c1,65d2b6c8f2eece985d8e374c,65d2b97070519faf7d3f00e8,0.0181,0.0182,0,8,8,93,1,seveneight,,,,,,,,,,,,,,,,,,,,,,,,,,,,,,,,,,,,,,,,,,,,,,,,,,,,,,,,,,,,,,,,,,,,,,,,,,,,,,,,,,,,,,,,,,,,,,,,,,,,,,,,,,,,,,,,,,,,,,,,,,,,,,,,,,,,,,,,,
,,5bcd11401662020001fe82c1,2024-02-19_03h16.29.521,kallum_motion_pilot,2023.2.2,Win32,59.88023952,5bcd11401662020001fe82c1,65d2b6c8f2eece985d8e374c,65d2b97070519faf7d3f00e8,0.0183,0.0183,0,9,9,49,1,onethree,,,,,,,,,,,,,,,,,,,,,,,,,,,,,,,,,,,,,,,,,,,,,,,,,,,,,,,,,,,,,,,,,,,,,,,,,,,,,,,,,,,,,,,,,,,,,,,,,,,,,,,,,,,,,,,,,,,,,,,,,,,,,,,,,,,,,,,,,
,,5bcd11401662020001fe82c1,2024-02-19_03h16.29.521,kallum_motion_pilot,2023.2.2,Win32,59.88023952,5bcd11401662020001fe82c1,65d2b6c8f2eece985d8e374c,65d2b97070519faf7d3f00e8,0.0183,0.0183,0,10,10,64,1,onetwo,,,,,,,,,,,,,,,,,,,,,,,,,,,,,,,,,,,,,,,,,,,,,,,,,,,,,,,,,,,,,,,,,,,,,,,,,,,,,,,,,,,,,,,,,,,,,,,,,,,,,,,,,,,,,,,,,,,,,,,,,,,,,,,,,,,,,,,,,
,,5bcd11401662020001fe82c1,2024-02-19_03h16.29.521,kallum_motion_pilot,2023.2.2,Win32,59.88023952,5bcd11401662020001fe82c1,65d2b6c8f2eece985d8e374c,65d2b97070519faf7d3f00e8,0.0184,0.0184,0,11,11,124,1,sevenfive,,,,,,,,,,,,,,,,,,,,,,,,,,,,,,,,,,,,,,,,,,,,,,,,,,,,,,,,,,,,,,,,,,,,,,,,,,,,,,,,,,,,,,,,,,,,,,,,,,,,,,,,,,,,,,,,,,,,,,,,,,,,,,,,,,,,,,,,,
,,5bcd11401662020001fe82c1,2024-02-19_03h16.29.521,kallum_motion_pilot,2023.2.2,Win32,59.88023952,5bcd11401662020001fe82c1,65d2b6c8f2eece985d8e374c,65d2b97070519faf7d3f00e8,0.0184,0.0184,0,12,12,38,1,fourtwo,,,,,,,,,,,,,,,,,,,,,,,,,,,,,,,,,,,,,,,,,,,,,,,,,,,,,,,,,,,,,,,,,,,,,,,,,,,,,,,,,,,,,,,,,,,,,,,,,,,,,,,,,,,,,,,,,,,,,,,,,,,,,,,,,,,,,,,,,
,,5bcd11401662020001fe82c1,2024-02-19_03h16.29.521,kallum_motion_pilot,2023.2.2,Win32,59.88023952,5bcd11401662020001fe82c1,65d2b6c8f2eece985d8e374c,65d2b97070519faf7d3f00e8,0.0185,0.0186,0,13,13,76,1,threeone,,,,,,,,,,,,,,,,,,,,,,,,,,,,,,,,,,,,,,,,,,,,,,,,,,,,,,,,,,,,,,,,,,,,,,,,,,,,,,,,,,,,,,,,,,,,,,,,,,,,,,,,,,,,,,,,,,,,,,,,,,,,,,,,,,,,,,,,,
,,5bcd11401662020001fe82c1,2024-02-19_03h16.29.521,kallum_motion_pilot,2023.2.2,Win32,59.88023952,5bcd11401662020001fe82c1,65d2b6c8f2eece985d8e374c,65d2b97070519faf7d3f00e8,0.0186,0.0186,0,14,14,88,1,fivesix,,,,,,,,,,,,,,,,,,,,,,,,,,,,,,,,,,,,,,,,,,,,,,,,,,,,,,,,,,,,,,,,,,,,,,,,,,,,,,,,,,,,,,,,,,,,,,,,,,,,,,,,,,,,,,,,,,,,,,,,,,,,,,,,,,,,,,,,,
,,5bcd11401662020001fe82c1,2024-02-19_03h16.29.521,kallum_motion_pilot,2023.2.2,Win32,59.88023952,5bcd11401662020001fe82c1,65d2b6c8f2eece985d8e374c,65d2b97070519faf7d3f00e8,0.0187,0.0187,0,15,15,5,1,threefour,,,,,,,,,,,,,,,,,,,,,,,,,,,,,,,,,,,,,,,,,,,,,,,,,,,,,,,,,,,,,,,,,,,,,,,,,,,,,,,,,,,,,,,,,,,,,,,,,,,,,,,,,,,,,,,,,,,,,,,,,,,,,,,,,,,,,,,,,
,,5bcd11401662020001fe82c1,2024-02-19_03h16.29.521,kallum_motion_pilot,2023.2.2,Win32,59.88023952,5bcd11401662020001fe82c1,65d2b6c8f2eece985d8e374c,65d2b97070519faf7d3f00e8,0.0187,0.0187,0,16,16,50,1,twoone,,,,,,,,,,,,,,,,,,,,,,,,,,,,,,,,,,,,,,,,,,,,,,,,,,,,,,,,,,,,,,,,,,,,,,,,,,,,,,,,,,,,,,,,,,,,,,,,,,,,,,,,,,,,,,,,,,,,,,,,,,,,,,,,,,,,,,,,,
,,5bcd11401662020001fe82c1,2024-02-19_03h16.29.521,kallum_motion_pilot,2023.2.2,Win32,59.88023952,5bcd11401662020001fe82c1,65d2b6c8f2eece985d8e374c,65d2b97070519faf7d3f00e8,0.0188,0.0188,0,17,17,121,1,fiveseven,,,,,,,,,,,,,,,,,,,,,,,,,,,,,,,,,,,,,,,,,,,,,,,,,,,,,,,,,,,,,,,,,,,,,,,,,,,,,,,,,,,,,,,,,,,,,,,,,,,,,,,,,,,,,,,,,,,,,,,,,,,,,,,,,,,,,,,,,
,,5bcd11401662020001fe82c1,2024-02-19_03h16.29.521,kallum_motion_pilot,2023.2.2,Win32,59.88023952,5bcd11401662020001fe82c1,65d2b6c8f2eece985d8e374c,65d2b97070519faf7d3f00e8,0.0188,0.0188,0,18,18,87,1,eightseven,,,,,,,,,,,,,,,,,,,,,,,,,,,,,,,,,,,,,,,,,,,,,,,,,,,,,,,,,,,,,,,,,,,,,,,,,,,,,,,,,,,,,,,,,,,,,,,,,,,,,,,,,,,,,,,,,,,,,,,,,,,,,,,,,,,,,,,,,
,,5bcd11401662020001fe82c1,2024-02-19_03h16.29.521,kallum_motion_pilot,2023.2.2,Win32,59.88023952,5bcd11401662020001fe82c1,65d2b6c8f2eece985d8e374c,65d2b97070519faf7d3f00e8,0.019,0.019,0,19,19,62,1,fourtwo,,,,,,,,,,,,,,,,,,,,,,,,,,,,,,,,,,,,,,,,,,,,,,,,,,,,,,,,,,,,,,,,,,,,,,,,,,,,,,,,,,,,,,,,,,,,,,,,,,,,,,,,,,,,,,,,,,,,,,,,,,,,,,,,,,,,,,,,,
,,5bcd11401662020001fe82c1,2024-02-19_03h16.29.521,kallum_motion_pilot,2023.2.2,Win32,59.88023952,5bcd11401662020001fe82c1,65d2b6c8f2eece985d8e374c,65d2b97070519faf7d3f00e8,0.019,0.019,0,20,20,148,1,sevenfive,,,,,,,,,,,,,,,,,,,,,,,,,,,,,,,,,,,,,,,,,,,,,,,,,,,,,,,,,,,,,,,,,,,,,,,,,,,,,,,,,,,,,,,,,,,,,,,,,,,,,,,,,,,,,,,,,,,,,,,,,,,,,,,,,,,,,,,,,
,,5bcd11401662020001fe82c1,2024-02-19_03h16.29.521,kallum_motion_pilot,2023.2.2,Win32,59.88023952,5bcd11401662020001fe82c1,65d2b6c8f2eece985d8e374c,65d2b97070519faf7d3f00e8,0.019,0.019,0,21,21,161,1,fiveseven,,,,,,,,,,,,,,,,,,,,,,,,,,,,,,,,,,,,,,,,,,,,,,,,,,,,,,,,,,,,,,,,,,,,,,,,,,,,,,,,,,,,,,,,,,,,,,,,,,,,,,,,,,,,,,,,,,,,,,,,,,,,,,,,,,,,,,,,,
,,5bcd11401662020001fe82c1,2024-02-19_03h16.29.521,kallum_motion_pilot,2023.2.2,Win32,59.88023952,5bcd11401662020001fe82c1,65d2b6c8f2eece985d8e374c,65d2b97070519faf7d3f00e8,0.0191,0.0191,0,22,22,91,1,sixeight,,,,,,,,,,,,,,,,,,,,,,,,,,,,,,,,,,,,,,,,,,,,,,,,,,,,,,,,,,,,,,,,,,,,,,,,,,,,,,,,,,,,,,,,,,,,,,,,,,,,,,,,,,,,,,,,,,,,,,,,,,,,,,,,,,,,,,,,,
,,5bcd11401662020001fe82c1,2024-02-19_03h16.29.521,kallum_motion_pilot,2023.2.2,Win32,59.88023952,5bcd11401662020001fe82c1,65d2b6c8f2eece985d8e374c,65d2b97070519faf7d3f00e8,0.0191,0.0191,0,23,23,58,1,twoone,,,,,,,,,,,,,,,,,,,,,,,,,,,,,,,,,,,,,,,,,,,,,,,,,,,,,,,,,,,,,,,,,,,,,,,,,,,,,,,,,,,,,,,,,,,,,,,,,,,,,,,,,,,,,,,,,,,,,,,,,,,,,,,,,,,,,,,,,
,,5bcd11401662020001fe82c1,2024-02-19_03h16.29.521,kallum_motion_pilot,2023.2.2,Win32,59.88023952,5bcd11401662020001fe82c1,65d2b6c8f2eece985d8e374c,65d2b97070519faf7d3f00e8,0.0192,0.0193,0,24,24,56,1,onetwo,,,,,,,,,,,,,,,,,,,,,,,,,,,,,,,,,,,,,,,,,,,,,,,,,,,,,,,,,,,,,,,,,,,,,,,,,,,,,,,,,,,,,,,,,,,,,,,,,,,,,,,,,,,,,,,,,,,,,,,,,,,,,,,,,,,,,,,,,
,,5bcd11401662020001fe82c1,2024-02-19_03h16.29.521,kallum_motion_pilot,2023.2.2,Win32,59.88023952,5bcd11401662020001fe82c1,65d2b6c8f2eece985d8e374c,65d2b97070519faf7d3f00e8,0.0193,0.0193,0,25,25,74,1,twoone,,,,,,,,,,,,,,,,,,,,,,,,,,,,,,,,,,,,,,,,,,,,,,,,,,,,,,,,,,,,,,,,,,,,,,,,,,,,,,,,,,,,,,,,,,,,,,,,,,,,,,,,,,,,,,,,,,,,,,,,,,,,,,,,,,,,,,,,,
,,5bcd11401662020001fe82c1,2024-02-19_03h16.29.521,kallum_motion_pilot,2023.2.2,Win32,59.88023952,5bcd11401662020001fe82c1,65d2b6c8f2eece985d8e374c,65d2b97070519faf7d3f00e8,0.0194,0.0194,0,26,26,59,1,twofour,,,,,,,,,,,,,,,,,,,,,,,,,,,,,,,,,,,,,,,,,,,,,,,,,,,,,,,,,,,,,,,,,,,,,,,,,,,,,,,,,,,,,,,,,,,,,,,,,,,,,,,,,,,,,,,,,,,,,,,,,,,,,,,,,,,,,,,,,
,,5bcd11401662020001fe82c1,2024-02-19_03h16.29.521,kallum_motion_pilot,2023.2.2,Win32,59.88023952,5bcd11401662020001fe82c1,65d2b6c8f2eece985d8e374c,65d2b97070519faf7d3f00e8,0.0195,0.0195,0,27,27,118,1,eightsix,,,,,,,,,,,,,,,,,,,,,,,,,,,,,,,,,,,,,,,,,,,,,,,,,,,,,,,,,,,,,,,,,,,,,,,,,,,,,,,,,,,,,,,,,,,,,,,,,,,,,,,,,,,,,,,,,,,,,,,,,,,,,,,,,,,,,,,,,
,,5bcd11401662020001fe82c1,2024-02-19_03h16.29.521,kallum_motion_pilot,2023.2.2,Win32,59.88023952,5bcd11401662020001fe82c1,65d2b6c8f2eece985d8e374c,65d2b97070519faf7d3f00e8,0.0195,0.0195,0,28,28,45,1,threefour,,,,,,,,,,,,,,,,,,,,,,,,,,,,,,,,,,,,,,,,,,,,,,,,,,,,,,,,,,,,,,,,,,,,,,,,,,,,,,,,,,,,,,,,,,,,,,,,,,,,,,,,,,,,,,,,,,,,,,,,,,,,,,,,,,,,,,,,,
,,5bcd11401662020001fe82c1,2024-02-19_03h16.29.521,kallum_motion_pilot,2023.2.2,Win32,59.88023952,5bcd11401662020001fe82c1,65d2b6c8f2eece985d8e374c,65d2b97070519faf7d3f00e8,0.0196,0.0196,0,29,29,139,1,sixeight,,,,,,,,,,,,,,,,,,,,,,,,,,,,,,,,,,,,,,,,,,,,,,,,,,,,,,,,,,,,,,,,,,,,,,,,,,,,,,,,,,,,,,,,,,,,,,,,,,,,,,,,,,,,,,,,,,,,,,,,,,,,,,,,,,,,,,,,,
,,5bcd11401662020001fe82c1,2024-02-19_03h16.29.521,kallum_motion_pilot,2023.2.2,Win32,59.88023952,5bcd11401662020001fe82c1,65d2b6c8f2eece985d8e374c,65d2b97070519faf7d3f00e8,0.0197,0.0197,0,30,30,36,1,threeone,,,,,,,,,,,,,,,,,,,,,,,,,,,,,,,,,,,,,,,,,,,,,,,,,,,,,,,,,,,,,,,,,,,,,,,,,,,,,,,,,,,,,,,,,,,,,,,,,,,,,,,,,,,,,,,,,,,,,,,,,,,,,,,,,,,,,,,,,
,,5bcd11401662020001fe82c1,2024-02-19_03h16.29.521,kallum_motion_pilot,2023.2.2,Win32,59.88023952,5bcd11401662020001fe82c1,65d2b6c8f2eece985d8e374c,65d2b97070519faf7d3f00e8,0.0197,0.0197,0,31,31,155,1,sixeight,,,,,,,,,,,,,,,,,,,,,,,,,,,,,,,,,,,,,,,,,,,,,,,,,,,,,,,,,,,,,,,,,,,,,,,,,,,,,,,,,,,,,,,,,,,,,,,,,,,,,,,,,,,,,,,,,,,,,,,,,,,,,,,,,,,,,,,,,
,,5bcd11401662020001fe82c1,2024-02-19_03h16.29.521,kallum_motion_pilot,2023.2.2,Win32,59.88023952,5bcd11401662020001fe82c1,65d2b6c8f2eece985d8e374c,65d2b97070519faf7d3f00e8,0.0198,0.0198,0,32,32,154,1,sixfive,,,,,,,,,,,,,,,,,,,,,,,,,,,,,,,,,,,,,,,,,,,,,,,,,,,,,,,,,,,,,,,,,,,,,,,,,,,,,,,,,,,,,,,,,,,,,,,,,,,,,,,,,,,,,,,,,,,,,,,,,,,,,,,,,,,,,,,,,
,,5bcd11401662020001fe82c1,2024-02-19_03h16.29.521,kallum_motion_pilot,2023.2.2,Win32,59.88023952,5bcd11401662020001fe82c1,65d2b6c8f2eece985d8e374c,65d2b97070519faf7d3f00e8,0.0199,0.0199,0,33,33,47,1,fourthree,,,,,,,,,,,,,,,,,,,,,,,,,,,,,,,,,,,,,,,,,,,,,,,,,,,,,,,,,,,,,,,,,,,,,,,,,,,,,,,,,,,,,,,,,,,,,,,,,,,,,,,,,,,,,,,,,,,,,,,,,,,,,,,,,,,,,,,,,
,,5bcd11401662020001fe82c1,2024-02-19_03h16.29.521,kallum_motion_pilot,2023.2.2,Win32,59.88023952,5bcd11401662020001fe82c1,65d2b6c8f2eece985d8e374c,65d2b97070519faf7d3f00e8,0.02,0.02,0,34,34,125,1,seveneight,,,,,,,,,,,,,,,,,,,,,,,,,,,,,,,,,,,,,,,,,,,,,,,,,,,,,,,,,,,,,,,,,,,,,,,,,,,,,,,,,,,,,,,,,,,,,,,,,,,,,,,,,,,,,,,,,,,,,,,,,,,,,,,,,,,,,,,,,
,,5bcd11401662020001fe82c1,2024-02-19_03h16.29.521,kallum_motion_pilot,2023.2.2,Win32,59.88023952,5bcd11401662020001fe82c1,65d2b6c8f2eece985d8e374c,65d2b97070519faf7d3f00e8,0.0201,0.0201,0,35,35,69,1,threefour,,,,,,,,,,,,,,,,,,,,,,,,,,,,,,,,,,,,,,,,,,,,,,,,,,,,,,,,,,,,,,,,,,,,,,,,,,,,,,,,,,,,,,,,,,,,,,,,,,,,,,,,,,,,,,,,,,,,,,,,,,,,,,,,,,,,,,,,,
,,5bcd11401662020001fe82c1,2024-02-19_03h16.29.521,kallum_motion_pilot,2023.2.2,Win32,59.88023952,5bcd11401662020001fe82c1,65d2b6c8f2eece985d8e374c,65d2b97070519faf7d3f00e8,0.0201,0.0202,0,36,36,77,1,threefour,,,,,,,,,,,,,,,,,,,,,,,,,,,,,,,,,,,,,,,,,,,,,,,,,,,,,,,,,,,,,,,,,,,,,,,,,,,,,,,,,,,,,,,,,,,,,,,,,,,,,,,,,,,,,,,,,,,,,,,,,,,,,,,,,,,,,,,,,
,,5bcd11401662020001fe82c1,2024-02-19_03h16.29.521,kallum_motion_pilot,2023.2.2,Win32,59.88023952,5bcd11401662020001fe82c1,65d2b6c8f2eece985d8e374c,65d2b97070519faf7d3f00e8,0.0202,0.0202,0,37,37,128,1,fivesix,,,,,,,,,,,,,,,,,,,,,,,,,,,,,,,,,,,,,,,,,,,,,,,,,,,,,,,,,,,,,,,,,,,,,,,,,,,,,,,,,,,,,,,,,,,,,,,,,,,,,,,,,,,,,,,,,,,,,,,,,,,,,,,,,,,,,,,,,
,,5bcd11401662020001fe82c1,2024-02-19_03h16.29.521,kallum_motion_pilot,2023.2.2,Win32,59.88023952,5bcd11401662020001fe82c1,65d2b6c8f2eece985d8e374c,65d2b97070519faf7d3f00e8,0.0202,0.0203,0,38,38,16,1,onetwo,,,,,,,,,,,,,,,,,,,,,,,,,,,,,,,,,,,,,,,,,,,,,,,,,,,,,,,,,,,,,,,,,,,,,,,,,,,,,,,,,,,,,,,,,,,,,,,,,,,,,,,,,,,,,,,,,,,,,,,,,,,,,,,,,,,,,,,,,
,,5bcd11401662020001fe82c1,2024-02-19_03h16.29.521,kallum_motion_pilot,2023.2.2,Win32,59.88023952,5bcd11401662020001fe82c1,65d2b6c8f2eece985d8e374c,65d2b97070519faf7d3f00e8,0.0204,0.0204,0,39,39,61,1,threefour,,,,,,,,,,,,,,,,,,,,,,,,,,,,,,,,,,,,,,,,,,,,,,,,,,,,,,,,,,,,,,,,,,,,,,,,,,,,,,,,,,,,,,,,,,,,,,,,,,,,,,,,,,,,,,,,,,,,,,,,,,,,,,,,,,,,,,,,,
,,5bcd11401662020001fe82c1,2024-02-19_03h16.29.521,kallum_motion_pilot,2023.2.2,Win32,59.88023952,5bcd11401662020001fe82c1,65d2b6c8f2eece985d8e374c,65d2b97070519faf7d3f00e8,0.0205,0.0205,0,40,40,23,1,fourthree,,,,,,,,,,,,,,,,,,,,,,,,,,,,,,,,,,,,,,,,,,,,,,,,,,,,,,,,,,,,,,,,,,,,,,,,,,,,,,,,,,,,,,,,,,,,,,,,,,,,,,,,,,,,,,,,,,,,,,,,,,,,,,,,,,,,,,,,,
,,5bcd11401662020001fe82c1,2024-02-19_03h16.29.521,kallum_motion_pilot,2023.2.2,Win32,59.88023952,5bcd11401662020001fe82c1,65d2b6c8f2eece985d8e374c,65d2b97070519faf7d3f00e8,0.0205,0.0205,0,41,41,90,1,sixfive,,,,,,,,,,,,,,,,,,,,,,,,,,,,,,,,,,,,,,,,,,,,,,,,,,,,,,,,,,,,,,,,,,,,,,,,,,,,,,,,,,,,,,,,,,,,,,,,,,,,,,,,,,,,,,,,,,,,,,,,,,,,,,,,,,,,,,,,,
,,5bcd11401662020001fe82c1,2024-02-19_03h16.29.521,kallum_motion_pilot,2023.2.2,Win32,59.88023952,5bcd11401662020001fe82c1,65d2b6c8f2eece985d8e374c,65d2b97070519faf7d3f00e8,0.0207,0.0207,0,42,42,42,1,twoone,,,,,,,,,,,,,,,,,,,,,,,,,,,,,,,,,,,,,,,,,,,,,,,,,,,,,,,,,,,,,,,,,,,,,,,,,,,,,,,,,,,,,,,,,,,,,,,,,,,,,,,,,,,,,,,,,,,,,,,,,,,,,,,,,,,,,,,,,
,,5bcd11401662020001fe82c1,2024-02-19_03h16.29.521,kallum_motion_pilot,2023.2.2,Win32,59.88023952,5bcd11401662020001fe82c1,65d2b6c8f2eece985d8e374c,65d2b97070519faf7d3f00e8,0.0207,0.0207,0,43,43,75,1,twofour,,,,,,,,,,,,,,,,,,,,,,,,,,,,,,,,,,,,,,,,,,,,,,,,,,,,,,,,,,,,,,,,,,,,,,,,,,,,,,,,,,,,,,,,,,,,,,,,,,,,,,,,,,,,,,,,,,,,,,,,,,,,,,,,,,,,,,,,,
,,5bcd11401662020001fe82c1,2024-02-19_03h16.29.521,kallum_motion_pilot,2023.2.2,Win32,59.88023952,5bcd11401662020001fe82c1,65d2b6c8f2eece985d8e374c,65d2b97070519faf7d3f00e8,0.0207,0.0208,0,44,44,13,1,threefour,,,,,,,,,,,,,,,,,,,,,,,,,,,,,,,,,,,,,,,,,,,,,,,,,,,,,,,,,,,,,,,,,,,,,,,,,,,,,,,,,,,,,,,,,,,,,,,,,,,,,,,,,,,,,,,,,,,,,,,,,,,,,,,,,,,,,,,,,
,,5bcd11401662020001fe82c1,2024-02-19_03h16.29.521,kallum_motion_pilot,2023.2.2,Win32,59.88023952,5bcd11401662020001fe82c1,65d2b6c8f2eece985d8e374c,65d2b97070519faf7d3f00e8,0.0208,0.0209,0,45,45,108,1,sevenfive,,,,,,,,,,,,,,,,,,,,,,,,,,,,,,,,,,,,,,,,,,,,,,,,,,,,,,,,,,,,,,,,,,,,,,,,,,,,,,,,,,,,,,,,,,,,,,,,,,,,,,,,,,,,,,,,,,,,,,,,,,,,,,,,,,,,,,,,,
,,5bcd11401662020001fe82c1,2024-02-19_03h16.29.521,kallum_motion_pilot,2023.2.2,Win32,59.88023952,5bcd11401662020001fe82c1,65d2b6c8f2eece985d8e374c,65d2b97070519faf7d3f00e8,0.0209,0.0209,0,46,46,71,1,fourthree,,,,,,,,,,,,,,,,,,,,,,,,,,,,,,,,,,,,,,,,,,,,,,,,,,,,,,,,,,,,,,,,,,,,,,,,,,,,,,,,,,,,,,,,,,,,,,,,,,,,,,,,,,,,,,,,,,,,,,,,,,,,,,,,,,,,,,,,,
,,5bcd11401662020001fe82c1,2024-02-19_03h16.29.521,kallum_motion_pilot,2023.2.2,Win32,59.88023952,5bcd11401662020001fe82c1,65d2b6c8f2eece985d8e374c,65d2b97070519faf7d3f00e8,0.021,0.021,0,47,47,10,1,twoone,,,,,,,,,,,,,,,,,,,,,,,,,,,,,,,,,,,,,,,,,,,,,,,,,,,,,,,,,,,,,,,,,,,,,,,,,,,,,,,,,,,,,,,,,,,,,,,,,,,,,,,,,,,,,,,,,,,,,,,,,,,,,,,,,,,,,,,,,
,,5bcd11401662020001fe82c1,2024-02-19_03h16.29.521,kallum_motion_pilot,2023.2.2,Win32,59.88023952,5bcd11401662020001fe82c1,65d2b6c8f2eece985d8e374c,65d2b97070519faf7d3f00e8,0.021,0.021,0,48,48,159,1,eightseven,,,,,,,,,,,,,,,,,,,,,,,,,,,,,,,,,,,,,,,,,,,,,,,,,,,,,,,,,,,,,,,,,,,,,,,,,,,,,,,,,,,,,,,,,,,,,,,,,,,,,,,,,,,,,,,,,,,,,,,,,,,,,,,,,,,,,,,,,
,,5bcd11401662020001fe82c1,2024-02-19_03h16.29.521,kallum_motion_pilot,2023.2.2,Win32,59.88023952,5bcd11401662020001fe82c1,65d2b6c8f2eece985d8e374c,65d2b97070519faf7d3f00e8,0.0211,0.0211,0,49,49,97,1,fiveseven,,,,,,,,,,,,,,,,,,,,,,,,,,,,,,,,,,,,,,,,,,,,,,,,,,,,,,,,,,,,,,,,,,,,,,,,,,,,,,,,,,,,,,,,,,,,,,,,,,,,,,,,,,,,,,,,,,,,,,,,,,,,,,,,,,,,,,,,,
,,5bcd11401662020001fe82c1,2024-02-19_03h16.29.521,kallum_motion_pilot,2023.2.2,Win32,59.88023952,5bcd11401662020001fe82c1,65d2b6c8f2eece985d8e374c,65d2b97070519faf7d3f00e8,0.0212,0.0212,0,50,50,67,1,twofour,,,,,,,,,,,,,,,,,,,,,,,,,,,,,,,,,,,,,,,,,,,,,,,,,,,,,,,,,,,,,,,,,,,,,,,,,,,,,,,,,,,,,,,,,,,,,,,,,,,,,,,,,,,,,,,,,,,,,,,,,,,,,,,,,,,,,,,,,
,,5bcd11401662020001fe82c1,2024-02-19_03h16.29.521,kallum_motion_pilot,2023.2.2,Win32,59.88023952,5bcd11401662020001fe82c1,65d2b6c8f2eece985d8e374c,65d2b97070519faf7d3f00e8,0.0212,0.0213,0,51,51,109,1,seveneight,,,,,,,,,,,,,,,,,,,,,,,,,,,,,,,,,,,,,,,,,,,,,,,,,,,,,,,,,,,,,,,,,,,,,,,,,,,,,,,,,,,,,,,,,,,,,,,,,,,,,,,,,,,,,,,,,,,,,,,,,,,,,,,,,,,,,,,,,
,,5bcd11401662020001fe82c1,2024-02-19_03h16.29.521,kallum_motion_pilot,2023.2.2,Win32,59.88023952,5bcd11401662020001fe82c1,65d2b6c8f2eece985d8e374c,65d2b97070519faf7d3f00e8,0.0214,0.0214,0,52,52,150,1,eightsix,,,,,,,,,,,,,,,,,,,,,,,,,,,,,,,,,,,,,,,,,,,,,,,,,,,,,,,,,,,,,,,,,,,,,,,,,,,,,,,,,,,,,,,,,,,,,,,,,,,,,,,,,,,,,,,,,,,,,,,,,,,,,,,,,,,,,,,,,
,,5bcd11401662020001fe82c1,2024-02-19_03h16.29.521,kallum_motion_pilot,2023.2.2,Win32,59.88023952,5bcd11401662020001fe82c1,65d2b6c8f2eece985d8e374c,65d2b97070519faf7d3f00e8,0.0214,0.0214,0,53,53,63,1,fourthree,,,,,,,,,,,,,,,,,,,,,,,,,,,,,,,,,,,,,,,,,,,,,,,,,,,,,,,,,,,,,,,,,,,,,,,,,,,,,,,,,,,,,,,,,,,,,,,,,,,,,,,,,,,,,,,,,,,,,,,,,,,,,,,,,,,,,,,,,
,,5bcd11401662020001fe82c1,2024-02-19_03h16.29.521,kallum_motion_pilot,2023.2.2,Win32,59.88023952,5bcd11401662020001fe82c1,65d2b6c8f2eece985d8e374c,65d2b97070519faf7d3f00e8,0.0214,0.0214,0,54,54,131,1,sixeight,,,,,,,,,,,,,,,,,,,,,,,,,,,,,,,,,,,,,,,,,,,,,,,,,,,,,,,,,,,,,,,,,,,,,,,,,,,,,,,,,,,,,,,,,,,,,,,,,,,,,,,,,,,,,,,,,,,,,,,,,,,,,,,,,,,,,,,,,
,,5bcd11401662020001fe82c1,2024-02-19_03h16.29.521,kallum_motion_pilot,2023.2.2,Win32,59.88023952,5bcd11401662020001fe82c1,65d2b6c8f2eece985d8e374c,65d2b97070519faf7d3f00e8,0.0215,0.0215,0,55,55,79,1,eightseven,,,,,,,,,,,,,,,,,,,,,,,,,,,,,,,,,,,,,,,,,,,,,,,,,,,,,,,,,,,,,,,,,,,,,,,,,,,,,,,,,,,,,,,,,,,,,,,,,,,,,,,,,,,,,,,,,,,,,,,,,,,,,,,,,,,,,,,,,
,,5bcd11401662020001fe82c1,2024-02-19_03h16.29.521,kallum_motion_pilot,2023.2.2,Win32,59.88023952,5bcd11401662020001fe82c1,65d2b6c8f2eece985d8e374c,65d2b97070519faf7d3f00e8,0.0216,0.0217,0,56,56,89,1,fiveseven,,,,,,,,,,,,,,,,,,,,,,,,,,,,,,,,,,,,,,,,,,,,,,,,,,,,,,,,,,,,,,,,,,,,,,,,,,,,,,,,,,,,,,,,,,,,,,,,,,,,,,,,,,,,,,,,,,,,,,,,,,,,,,,,,,,,,,,,,
,,5bcd11401662020001fe82c1,2024-02-19_03h16.29.521,kallum_motion_pilot,2023.2.2,Win32,59.88023952,5bcd11401662020001fe82c1,65d2b6c8f2eece985d8e374c,65d2b97070519faf7d3f00e8,0.0217,0.0217,0,57,57,145,1,fiveseven,,,,,,,,,,,,,,,,,,,,,,,,,,,,,,,,,,,,,,,,,,,,,,,,,,,,,,,,,,,,,,,,,,,,,,,,,,,,,,,,,,,,,,,,,,,,,,,,,,,,,,,,,,,,,,,,,,,,,,,,,,,,,,,,,,,,,,,,,
,,5bcd11401662020001fe82c1,2024-02-19_03h16.29.521,kallum_motion_pilot,2023.2.2,Win32,59.88023952,5bcd11401662020001fe82c1,65d2b6c8f2eece985d8e374c,65d2b97070519faf7d3f00e8,0.0217,0.0217,0,58,58,46,1,fourtwo,,,,,,,,,,,,,,,,,,,,,,,,,,,,,,,,,,,,,,,,,,,,,,,,,,,,,,,,,,,,,,,,,,,,,,,,,,,,,,,,,,,,,,,,,,,,,,,,,,,,,,,,,,,,,,,,,,,,,,,,,,,,,,,,,,,,,,,,,
,,5bcd11401662020001fe82c1,2024-02-19_03h16.29.521,kallum_motion_pilot,2023.2.2,Win32,59.88023952,5bcd11401662020001fe82c1,65d2b6c8f2eece985d8e374c,65d2b97070519faf7d3f00e8,0.0218,0.0218,0,59,59,22,1,fourtwo,,,,,,,,,,,,,,,,,,,,,,,,,,,,,,,,,,,,,,,,,,,,,,,,,,,,,,,,,,,,,,,,,,,,,,,,,,,,,,,,,,,,,,,,,,,,,,,,,,,,,,,,,,,,,,,,,,,,,,,,,,,,,,,,,,,,,,,,,
,,5bcd11401662020001fe82c1,2024-02-19_03h16.29.521,kallum_motion_pilot,2023.2.2,Win32,59.88023952,5bcd11401662020001fe82c1,65d2b6c8f2eece985d8e374c,65d2b97070519faf7d3f00e8,0.0219,0.022,0,60,60,82,1,sixfive,,,,,,,,,,,,,,,,,,,,,,,,,,,,,,,,,,,,,,,,,,,,,,,,,,,,,,,,,,,,,,,,,,,,,,,,,,,,,,,,,,,,,,,,,,,,,,,,,,,,,,,,,,,,,,,,,,,,,,,,,,,,,,,,,,,,,,,,,
,,5bcd11401662020001fe82c1,2024-02-19_03h16.29.521,kallum_motion_pilot,2023.2.2,Win32,59.88023952,5bcd11401662020001fe82c1,65d2b6c8f2eece985d8e374c,65d2b97070519faf7d3f00e8,0.022,0.022,0,61,61,160,1,fivesix,,,,,,,,,,,,,,,,,,,,,,,,,,,,,,,,,,,,,,,,,,,,,,,,,,,,,,,,,,,,,,,,,,,,,,,,,,,,,,,,,,,,,,,,,,,,,,,,,,,,,,,,,,,,,,,,,,,,,,,,,,,,,,,,,,,,,,,,,
,,5bcd11401662020001fe82c1,2024-02-19_03h16.29.521,kallum_motion_pilot,2023.2.2,Win32,59.88023952,5bcd11401662020001fe82c1,65d2b6c8f2eece985d8e374c,65d2b97070519faf7d3f00e8,0.022,0.022,0,62,62,57,1,onethree,,,,,,,,,,,,,,,,,,,,,,,,,,,,,,,,,,,,,,,,,,,,,,,,,,,,,,,,,,,,,,,,,,,,,,,,,,,,,,,,,,,,,,,,,,,,,,,,,,,,,,,,,,,,,,,,,,,,,,,,,,,,,,,,,,,,,,,,,
,,5bcd11401662020001fe82c1,2024-02-19_03h16.29.521,kallum_motion_pilot,2023.2.2,Win32,59.88023952,5bcd11401662020001fe82c1,65d2b6c8f2eece985d8e374c,65d2b97070519faf7d3f00e8,0.0221,0.0221,0,63,63,0,1,onetwo,,,,,,,,,,,,,,,,,,,,,,,,,,,,,,,,,,,,,,,,,,,,,,,,,,,,,,,,,,,,,,,,,,,,,,,,,,,,,,,,,,,,,,,,,,,,,,,,,,,,,,,,,,,,,,,,,,,,,,,,,,,,,,,,,,,,,,,,,
,,5bcd11401662020001fe82c1,2024-02-19_03h16.29.521,kallum_motion_pilot,2023.2.2,Win32,59.88023952,5bcd11401662020001fe82c1,65d2b6c8f2eece985d8e374c,65d2b97070519faf7d3f00e8,0.0222,0.0222,0,64,64,35,1,twofour,,,,,,,,,,,,,,,,,,,,,,,,,,,,,,,,,,,,,,,,,,,,,,,,,,,,,,,,,,,,,,,,,,,,,,,,,,,,,,,,,,,,,,,,,,,,,,,,,,,,,,,,,,,,,,,,,,,,,,,,,,,,,,,,,,,,,,,,,
,,5bcd11401662020001fe82c1,2024-02-19_03h16.29.521,kallum_motion_pilot,2023.2.2,Win32,59.88023952,5bcd11401662020001fe82c1,65d2b6c8f2eece985d8e374c,65d2b97070519faf7d3f00e8,0.0223,0.0223,0,65,65,103,1,eightseven,,,,,,,,,,,,,,,,,,,,,,,,,,,,,,,,,,,,,,,,,,,,,,,,,,,,,,,,,,,,,,,,,,,,,,,,,,,,,,,,,,,,,,,,,,,,,,,,,,,,,,,,,,,,,,,,,,,,,,,,,,,,,,,,,,,,,,,,,
,,5bcd11401662020001fe82c1,2024-02-19_03h16.29.521,kallum_motion_pilot,2023.2.2,Win32,59.88023952,5bcd11401662020001fe82c1,65d2b6c8f2eece985d8e374c,65d2b97070519faf7d3f00e8,0.0224,0.0224,0,66,66,142,1,eightsix,,,,,,,,,,,,,,,,,,,,,,,,,,,,,,,,,,,,,,,,,,,,,,,,,,,,,,,,,,,,,,,,,,,,,,,,,,,,,,,,,,,,,,,,,,,,,,,,,,,,,,,,,,,,,,,,,,,,,,,,,,,,,,,,,,,,,,,,,
,,5bcd11401662020001fe82c1,2024-02-19_03h16.29.521,kallum_motion_pilot,2023.2.2,Win32,59.88023952,5bcd11401662020001fe82c1,65d2b6c8f2eece985d8e374c,65d2b97070519faf7d3f00e8,0.0224,0.0225,0,67,67,48,1,onetwo,,,,,,,,,,,,,,,,,,,,,,,,,,,,,,,,,,,,,,,,,,,,,,,,,,,,,,,,,,,,,,,,,,,,,,,,,,,,,,,,,,,,,,,,,,,,,,,,,,,,,,,,,,,,,,,,,,,,,,,,,,,,,,,,,,,,,,,,,
,,5bcd11401662020001fe82c1,2024-02-19_03h16.29.521,kallum_motion_pilot,2023.2.2,Win32,59.88023952,5bcd11401662020001fe82c1,65d2b6c8f2eece985d8e374c,65d2b97070519faf7d3f00e8,0.0225,0.0225,0,68,68,96,1,fivesix,,,,,,,,,,,,,,,,,,,,,,,,,,,,,,,,,,,,,,,,,,,,,,,,,,,,,,,,,,,,,,,,,,,,,,,,,,,,,,,,,,,,,,,,,,,,,,,,,,,,,,,,,,,,,,,,,,,,,,,,,,,,,,,,,,,,,,,,,
,,5bcd11401662020001fe82c1,2024-02-19_03h16.29.521,kallum_motion_pilot,2023.2.2,Win32,59.88023952,5bcd11401662020001fe82c1,65d2b6c8f2eece985d8e374c,65d2b97070519faf7d3f00e8,0.0227,0.0227,0,69,69,123,1,sixeight,,,,,,,,,,,,,,,,,,,,,,,,,,,,,,,,,,,,,,,,,,,,,,,,,,,,,,,,,,,,,,,,,,,,,,,,,,,,,,,,,,,,,,,,,,,,,,,,,,,,,,,,,,,,,,,,,,,,,,,,,,,,,,,,,,,,,,,,,
,,5bcd11401662020001fe82c1,2024-02-19_03h16.29.521,kallum_motion_pilot,2023.2.2,Win32,59.88023952,5bcd11401662020001fe82c1,65d2b6c8f2eece985d8e374c,65d2b97070519faf7d3f00e8,0.0227,0.0227,0,70,70,153,1,fiveseven,,,,,,,,,,,,,,,,,,,,,,,,,,,,,,,,,,,,,,,,,,,,,,,,,,,,,,,,,,,,,,,,,,,,,,,,,,,,,,,,,,,,,,,,,,,,,,,,,,,,,,,,,,,,,,,,,,,,,,,,,,,,,,,,,,,,,,,,,
,,5bcd11401662020001fe82c1,2024-02-19_03h16.29.521,kallum_motion_pilot,2023.2.2,Win32,59.88023952,5bcd11401662020001fe82c1,65d2b6c8f2eece985d8e374c,65d2b97070519faf7d3f00e8,0.0228,0.0228,0,71,71,43,1,twofour,,,,,,,,,,,,,,,,,,,,,,,,,,,,,,,,,,,,,,,,,,,,,,,,,,,,,,,,,,,,,,,,,,,,,,,,,,,,,,,,,,,,,,,,,,,,,,,,,,,,,,,,,,,,,,,,,,,,,,,,,,,,,,,,,,,,,,,,,
,,5bcd11401662020001fe82c1,2024-02-19_03h16.29.521,kallum_motion_pilot,2023.2.2,Win32,59.88023952,5bcd11401662020001fe82c1,65d2b6c8f2eece985d8e374c,65d2b97070519faf7d3f00e8,0.0229,0.0229,0,72,72,53,1,threefour,,,,,,,,,,,,,,,,,,,,,,,,,,,,,,,,,,,,,,,,,,,,,,,,,,,,,,,,,,,,,,,,,,,,,,,,,,,,,,,,,,,,,,,,,,,,,,,,,,,,,,,,,,,,,,,,,,,,,,,,,,,,,,,,,,,,,,,,,
,,5bcd11401662020001fe82c1,2024-02-19_03h16.29.521,kallum_motion_pilot,2023.2.2,Win32,59.88023952,5bcd11401662020001fe82c1,65d2b6c8f2eece985d8e374c,65d2b97070519faf7d3f00e8,0.023,0.023,0,73,73,11,1,twofour,,,,,,,,,,,,,,,,,,,,,,,,,,,,,,,,,,,,,,,,,,,,,,,,,,,,,,,,,,,,,,,,,,,,,,,,,,,,,,,,,,,,,,,,,,,,,,,,,,,,,,,,,,,,,,,,,,,,,,,,,,,,,,,,,,,,,,,,,
,,5bcd11401662020001fe82c1,2024-02-19_03h16.29.521,kallum_motion_pilot,2023.2.2,Win32,59.88023952,5bcd11401662020001fe82c1,65d2b6c8f2eece985d8e374c,65d2b97070519faf7d3f00e8,0.023,0.023,0,74,74,122,1,sixfive,,,,,,,,,,,,,,,,,,,,,,,,,,,,,,,,,,,,,,,,,,,,,,,,,,,,,,,,,,,,,,,,,,,,,,,,,,,,,,,,,,,,,,,,,,,,,,,,,,,,,,,,,,,,,,,,,,,,,,,,,,,,,,,,,,,,,,,,,
,,5bcd11401662020001fe82c1,2024-02-19_03h16.29.521,kallum_motion_pilot,2023.2.2,Win32,59.88023952,5bcd11401662020001fe82c1,65d2b6c8f2eece985d8e374c,65d2b97070519faf7d3f00e8,0.0231,0.0231,0,75,75,15,1,fourthree,,,,,,,,,,,,,,,,,,,,,,,,,,,,,,,,,,,,,,,,,,,,,,,,,,,,,,,,,,,,,,,,,,,,,,,,,,,,,,,,,,,,,,,,,,,,,,,,,,,,,,,,,,,,,,,,,,,,,,,,,,,,,,,,,,,,,,,,,
,,5bcd11401662020001fe82c1,2024-02-19_03h16.29.521,kallum_motion_pilot,2023.2.2,Win32,59.88023952,5bcd11401662020001fe82c1,65d2b6c8f2eece985d8e374c,65d2b97070519faf7d3f00e8,0.0231,0.0231,0,76,76,84,1,sevenfive,,,,,,,,,,,,,,,,,,,,,,,,,,,,,,,,,,,,,,,,,,,,,,,,,,,,,,,,,,,,,,,,,,,,,,,,,,,,,,,,,,,,,,,,,,,,,,,,,,,,,,,,,,,,,,,,,,,,,,,,,,,,,,,,,,,,,,,,,
,,5bcd11401662020001fe82c1,2024-02-19_03h16.29.521,kallum_motion_pilot,2023.2.2,Win32,59.88023952,5bcd11401662020001fe82c1,65d2b6c8f2eece985d8e374c,65d2b97070519faf7d3f00e8,0.0232,0.0232,0,77,77,126,1,eightsix,,,,,,,,,,,,,,,,,,,,,,,,,,,,,,,,,,,,,,,,,,,,,,,,,,,,,,,,,,,,,,,,,,,,,,,,,,,,,,,,,,,,,,,,,,,,,,,,,,,,,,,,,,,,,,,,,,,,,,,,,,,,,,,,,,,,,,,,,
,,5bcd11401662020001fe82c1,2024-02-19_03h16.29.521,kallum_motion_pilot,2023.2.2,Win32,59.88023952,5bcd11401662020001fe82c1,65d2b6c8f2eece985d8e374c,65d2b97070519faf7d3f00e8,0.0234,0.0234,0,78,78,6,1,fourtwo,,,,,,,,,,,,,,,,,,,,,,,,,,,,,,,,,,,,,,,,,,,,,,,,,,,,,,,,,,,,,,,,,,,,,,,,,,,,,,,,,,,,,,,,,,,,,,,,,,,,,,,,,,,,,,,,,,,,,,,,,,,,,,,,,,,,,,,,,
,,5bcd11401662020001fe82c1,2024-02-19_03h16.29.521,kallum_motion_pilot,2023.2.2,Win32,59.88023952,5bcd11401662020001fe82c1,65d2b6c8f2eece985d8e374c,65d2b97070519faf7d3f00e8,0.0234,0.0239,0,79,79,151,1,eightseven,,,,,,,,,,,,,,,,,,,,,,,,,,,,,,,,,,,,,,,,,,,,,,,,,,,,,,,,,,,,,,,,,,,,,,,,,,,,,,,,,,,,,,,,,,,,,,,,,,,,,,,,,,,,,,,,,,,,,,,,,,,,,,,,,,,,,,,,,
,,5bcd11401662020001fe82c1,2024-02-19_03h16.29.521,kallum_motion_pilot,2023.2.2,Win32,59.88023952,5bcd11401662020001fe82c1,65d2b6c8f2eece985d8e374c,65d2b97070519faf7d3f00e8,0.0239,0.0239,0,80,80,40,1,onetwo,,,,,,,,,,,,,,,,,,,,,,,,,,,,,,,,,,,,,,,,,,,,,,,,,,,,,,,,,,,,,,,,,,,,,,,,,,,,,,,,,,,,,,,,,,,,,,,,,,,,,,,,,,,,,,,,,,,,,,,,,,,,,,,,,,,,,,,,,
,,5bcd11401662020001fe82c1,2024-02-19_03h16.29.521,kallum_motion_pilot,2023.2.2,Win32,59.88023952,5bcd11401662020001fe82c1,65d2b6c8f2eece985d8e374c,65d2b97070519faf7d3f00e8,0.024,0.0241,0,81,81,110,1,eightsix,,,,,,,,,,,,,,,,,,,,,,,,,,,,,,,,,,,,,,,,,,,,,,,,,,,,,,,,,,,,,,,,,,,,,,,,,,,,,,,,,,,,,,,,,,,,,,,,,,,,,,,,,,,,,,,,,,,,,,,,,,,,,,,,,,,,,,,,,
,,5bcd11401662020001fe82c1,2024-02-19_03h16.29.521,kallum_motion_pilot,2023.2.2,Win32,59.88023952,5bcd11401662020001fe82c1,65d2b6c8f2eece985d8e374c,65d2b97070519faf7d3f00e8,0.0241,0.0241,0,82,82,119,1,eightseven,,,,,,,,,,,,,,,,,,,,,,,,,,,,,,,,,,,,,,,,,,,,,,,,,,,,,,,,,,,,,,,,,,,,,,,,,,,,,,,,,,,,,,,,,,,,,,,,,,,,,,,,,,,,,,,,,,,,,,,,,,,,,,,,,,,,,,,,,
,,5bcd11401662020001fe82c1,2024-02-19_03h16.29.521,kallum_motion_pilot,2023.2.2,Win32,59.88023952,5bcd11401662020001fe82c1,65d2b6c8f2eece985d8e374c,65d2b97070519faf7d3f00e8,0.0241,0.0242,0,83,83,72,1,onetwo,,,,,,,,,,,,,,,,,,,,,,,,,,,,,,,,,,,,,,,,,,,,,,,,,,,,,,,,,,,,,,,,,,,,,,,,,,,,,,,,,,,,,,,,,,,,,,,,,,,,,,,,,,,,,,,,,,,,,,,,,,,,,,,,,,,,,,,,,
,,5bcd11401662020001fe82c1,2024-02-19_03h16.29.521,kallum_motion_pilot,2023.2.2,Win32,59.88023952,5bcd11401662020001fe82c1,65d2b6c8f2eece985d8e374c,65d2b97070519faf7d3f00e8,0.0242,0.0243,0,84,84,20,1,threeone,,,,,,,,,,,,,,,,,,,,,,,,,,,,,,,,,,,,,,,,,,,,,,,,,,,,,,,,,,,,,,,,,,,,,,,,,,,,,,,,,,,,,,,,,,,,,,,,,,,,,,,,,,,,,,,,,,,,,,,,,,,,,,,,,,,,,,,,,
,,5bcd11401662020001fe82c1,2024-02-19_03h16.29.521,kallum_motion_pilot,2023.2.2,Win32,59.88023952,5bcd11401662020001fe82c1,65d2b6c8f2eece985d8e374c,65d2b97070519faf7d3f00e8,0.0243,0.0243,0,85,85,27,1,twofour,,,,,,,,,,,,,,,,,,,,,,,,,,,,,,,,,,,,,,,,,,,,,,,,,,,,,,,,,,,,,,,,,,,,,,,,,,,,,,,,,,,,,,,,,,,,,,,,,,,,,,,,,,,,,,,,,,,,,,,,,,,,,,,,,,,,,,,,,
,,5bcd11401662020001fe82c1,2024-02-19_03h16.29.521,kallum_motion_pilot,2023.2.2,Win32,59.88023952,5bcd11401662020001fe82c1,65d2b6c8f2eece985d8e374c,65d2b97070519faf7d3f00e8,0.0244,0.0244,0,86,86,144,1,fivesix,,,,,,,,,,,,,,,,,,,,,,,,,,,,,,,,,,,,,,,,,,,,,,,,,,,,,,,,,,,,,,,,,,,,,,,,,,,,,,,,,,,,,,,,,,,,,,,,,,,,,,,,,,,,,,,,,,,,,,,,,,,,,,,,,,,,,,,,,
,,5bcd11401662020001fe82c1,2024-02-19_03h16.29.521,kallum_motion_pilot,2023.2.2,Win32,59.88023952,5bcd11401662020001fe82c1,65d2b6c8f2eece985d8e374c,65d2b97070519faf7d3f00e8,0.0245,0.0245,0,87,87,24,1,onetwo,,,,,,,,,,,,,,,,,,,,,,,,,,,,,,,,,,,,,,,,,,,,,,,,,,,,,,,,,,,,,,,,,,,,,,,,,,,,,,,,,,,,,,,,,,,,,,,,,,,,,,,,,,,,,,,,,,,,,,,,,,,,,,,,,,,,,,,,,
,,5bcd11401662020001fe82c1,2024-02-19_03h16.29.521,kallum_motion_pilot,2023.2.2,Win32,59.88023952,5bcd11401662020001fe82c1,65d2b6c8f2eece985d8e374c,65d2b97070519faf7d3f00e8,0.0245,0.0245,0,88,88,152,1,fivesix,,,,,,,,,,,,,,,,,,,,,,,,,,,,,,,,,,,,,,,,,,,,,,,,,,,,,,,,,,,,,,,,,,,,,,,,,,,,,,,,,,,,,,,,,,,,,,,,,,,,,,,,,,,,,,,,,,,,,,,,,,,,,,,,,,,,,,,,,
,,5bcd11401662020001fe82c1,2024-02-19_03h16.29.521,kallum_motion_pilot,2023.2.2,Win32,59.88023952,5bcd11401662020001fe82c1,65d2b6c8f2eece985d8e374c,65d2b97070519faf7d3f00e8,0.0245,0.0246,0,89,89,18,1,twoone,,,,,,,,,,,,,,,,,,,,,,,,,,,,,,,,,,,,,,,,,,,,,,,,,,,,,,,,,,,,,,,,,,,,,,,,,,,,,,,,,,,,,,,,,,,,,,,,,,,,,,,,,,,,,,,,,,,,,,,,,,,,,,,,,,,,,,,,,
,,5bcd11401662020001fe82c1,2024-02-19_03h16.29.521,kallum_motion_pilot,2023.2.2,Win32,59.88023952,5bcd11401662020001fe82c1,65d2b6c8f2eece985d8e374c,65d2b97070519faf7d3f00e8,0.0247,0.0247,0,90,90,29,1,threefour,,,,,,,,,,,,,,,,,,,,,,,,,,,,,,,,,,,,,,,,,,,,,,,,,,,,,,,,,,,,,,,,,,,,,,,,,,,,,,,,,,,,,,,,,,,,,,,,,,,,,,,,,,,,,,,,,,,,,,,,,,,,,,,,,,,,,,,,,
,,5bcd11401662020001fe82c1,2024-02-19_03h16.29.521,kallum_motion_pilot,2023.2.2,Win32,59.88023952,5bcd11401662020001fe82c1,65d2b6c8f2eece985d8e374c,65d2b97070519faf7d3f00e8,0.0247,0.0247,0,91,91,17,1,onethree,,,,,,,,,,,,,,,,,,,,,,,,,,,,,,,,,,,,,,,,,,,,,,,,,,,,,,,,,,,,,,,,,,,,,,,,,,,,,,,,,,,,,,,,,,,,,,,,,,,,,,,,,,,,,,,,,,,,,,,,,,,,,,,,,,,,,,,,,
,,5bcd11401662020001fe82c1,2024-02-19_03h16.29.521,kallum_motion_pilot,2023.2.2,Win32,59.88023952,5bcd11401662020001fe82c1,65d2b6c8f2eece985d8e374c,65d2b97070519faf7d3f00e8,0.0248,0.0249,0,92,92,99,1,sixeight,,,,,,,,,,,,,,,,,,,,,,,,,,,,,,,,,,,,,,,,,,,,,,,,,,,,,,,,,,,,,,,,,,,,,,,,,,,,,,,,,,,,,,,,,,,,,,,,,,,,,,,,,,,,,,,,,,,,,,,,,,,,,,,,,,,,,,,,,
,,5bcd11401662020001fe82c1,2024-02-19_03h16.29.521,kallum_motion_pilot,2023.2.2,Win32,59.88023952,5bcd11401662020001fe82c1,65d2b6c8f2eece985d8e374c,65d2b97070519faf7d3f00e8,0.0249,0.0249,0,93,93,140,1,sevenfive,,,,,,,,,,,,,,,,,,,,,,,,,,,,,,,,,,,,,,,,,,,,,,,,,,,,,,,,,,,,,,,,,,,,,,,,,,,,,,,,,,,,,,,,,,,,,,,,,,,,,,,,,,,,,,,,,,,,,,,,,,,,,,,,,,,,,,,,,
,,5bcd11401662020001fe82c1,2024-02-19_03h16.29.521,kallum_motion_pilot,2023.2.2,Win32,59.88023952,5bcd11401662020001fe82c1,65d2b6c8f2eece985d8e374c,65d2b97070519faf7d3f00e8,0.025,0.025,0,94,94,37,1,threefour,,,,,,,,,,,,,,,,,,,,,,,,,,,,,,,,,,,,,,,,,,,,,,,,,,,,,,,,,,,,,,,,,,,,,,,,,,,,,,,,,,,,,,,,,,,,,,,,,,,,,,,,,,,,,,,,,,,,,,,,,,,,,,,,,,,,,,,,,
,,5bcd11401662020001fe82c1,2024-02-19_03h16.29.521,kallum_motion_pilot,2023.2.2,Win32,59.88023952,5bcd11401662020001fe82c1,65d2b6c8f2eece985d8e374c,65d2b97070519faf7d3f00e8,0.025,0.025,0,95,95,78,1,fourtwo,,,,,,,,,,,,,,,,,,,,,,,,,,,,,,,,,,,,,,,,,,,,,,,,,,,,,,,,,,,,,,,,,,,,,,,,,,,,,,,,,,,,,,,,,,,,,,,,,,,,,,,,,,,,,,,,,,,,,,,,,,,,,,,,,,,,,,,,,
,,5bcd11401662020001fe82c1,2024-02-19_03h16.29.521,kallum_motion_pilot,2023.2.2,Win32,59.88023952,5bcd11401662020001fe82c1,65d2b6c8f2eece985d8e374c,65d2b97070519faf7d3f00e8,0.025,0.0251,0,96,96,134,1,eightsix,,,,,,,,,,,,,,,,,,,,,,,,,,,,,,,,,,,,,,,,,,,,,,,,,,,,,,,,,,,,,,,,,,,,,,,,,,,,,,,,,,,,,,,,,,,,,,,,,,,,,,,,,,,,,,,,,,,,,,,,,,,,,,,,,,,,,,,,,
,,5bcd11401662020001fe82c1,2024-02-19_03h16.29.521,kallum_motion_pilot,2023.2.2,Win32,59.88023952,5bcd11401662020001fe82c1,65d2b6c8f2eece985d8e374c,65d2b97070519faf7d3f00e8,0.0251,0.0251,0,97,97,158,1,eightsix,,,,,,,,,,,,,,,,,,,,,,,,,,,,,,,,,,,,,,,,,,,,,,,,,,,,,,,,,,,,,,,,,,,,,,,,,,,,,,,,,,,,,,,,,,,,,,,,,,,,,,,,,,,,,,,,,,,,,,,,,,,,,,,,,,,,,,,,,
,,5bcd11401662020001fe82c1,2024-02-19_03h16.29.521,kallum_motion_pilot,2023.2.2,Win32,59.88023952,5bcd11401662020001fe82c1,65d2b6c8f2eece985d8e374c,65d2b97070519faf7d3f00e8,0.0252,0.0253,0,98,98,54,1,fourtwo,,,,,,,,,,,,,,,,,,,,,,,,,,,,,,,,,,,,,,,,,,,,,,,,,,,,,,,,,,,,,,,,,,,,,,,,,,,,,,,,,,,,,,,,,,,,,,,,,,,,,,,,,,,,,,,,,,,,,,,,,,,,,,,,,,,,,,,,,
,,5bcd11401662020001fe82c1,2024-02-19_03h16.29.521,kallum_motion_pilot,2023.2.2,Win32,59.88023952,5bcd11401662020001fe82c1,65d2b6c8f2eece985d8e374c,65d2b97070519faf7d3f00e8,0.0253,0.0254,0,99,99,132,1,sevenfive,,,,,,,,,,,,,,,,,,,,,,,,,,,,,,,,,,,,,,,,,,,,,,,,,,,,,,,,,,,,,,,,,,,,,,,,,,,,,,,,,,,,,,,,,,,,,,,,,,,,,,,,,,,,,,,,,,,,,,,,,,,,,,,,,,,,,,,,,
,,5bcd11401662020001fe82c1,2024-02-19_03h16.29.521,kallum_motion_pilot,2023.2.2,Win32,59.88023952,5bcd11401662020001fe82c1,65d2b6c8f2eece985d8e374c,65d2b97070519faf7d3f00e8,0.0254,0.0254,0,100,100,73,1,onethree,,,,,,,,,,,,,,,,,,,,,,,,,,,,,,,,,,,,,,,,,,,,,,,,,,,,,,,,,,,,,,,,,,,,,,,,,,,,,,,,,,,,,,,,,,,,,,,,,,,,,,,,,,,,,,,,,,,,,,,,,,,,,,,,,,,,,,,,,
,,5bcd11401662020001fe82c1,2024-02-19_03h16.29.521,kallum_motion_pilot,2023.2.2,Win32,59.88023952,5bcd11401662020001fe82c1,65d2b6c8f2eece985d8e374c,65d2b97070519faf7d3f00e8,0.0255,0.0255,0,101,101,120,1,fivesix,,,,,,,,,,,,,,,,,,,,,,,,,,,,,,,,,,,,,,,,,,,,,,,,,,,,,,,,,,,,,,,,,,,,,,,,,,,,,,,,,,,,,,,,,,,,,,,,,,,,,,,,,,,,,,,,,,,,,,,,,,,,,,,,,,,,,,,,,
,,5bcd11401662020001fe82c1,2024-02-19_03h16.29.521,kallum_motion_pilot,2023.2.2,Win32,59.88023952,5bcd11401662020001fe82c1,65d2b6c8f2eece985d8e374c,65d2b97070519faf7d3f00e8,0.0255,0.0256,0,102,102,52,1,threeone,,,,,,,,,,,,,,,,,,,,,,,,,,,,,,,,,,,,,,,,,,,,,,,,,,,,,,,,,,,,,,,,,,,,,,,,,,,,,,,,,,,,,,,,,,,,,,,,,,,,,,,,,,,,,,,,,,,,,,,,,,,,,,,,,,,,,,,,,
,,5bcd11401662020001fe82c1,2024-02-19_03h16.29.521,kallum_motion_pilot,2023.2.2,Win32,59.88023952,5bcd11401662020001fe82c1,65d2b6c8f2eece985d8e374c,65d2b97070519faf7d3f00e8,0.0256,0.0256,0,103,103,130,1,sixfive,,,,,,,,,,,,,,,,,,,,,,,,,,,,,,,,,,,,,,,,,,,,,,,,,,,,,,,,,,,,,,,,,,,,,,,,,,,,,,,,,,,,,,,,,,,,,,,,,,,,,,,,,,,,,,,,,,,,,,,,,,,,,,,,,,,,,,,,,
,,5bcd11401662020001fe82c1,2024-02-19_03h16.29.521,kallum_motion_pilot,2023.2.2,Win32,59.88023952,5bcd11401662020001fe82c1,65d2b6c8f2eece985d8e374c,65d2b97070519faf7d3f00e8,0.0256,0.0257,0,104,104,8,1,onetwo,,,,,,,,,,,,,,,,,,,,,,,,,,,,,,,,,,,,,,,,,,,,,,,,,,,,,,,,,,,,,,,,,,,,,,,,,,,,,,,,,,,,,,,,,,,,,,,,,,,,,,,,,,,,,,,,,,,,,,,,,,,,,,,,,,,,,,,,,
,,5bcd11401662020001fe82c1,2024-02-19_03h16.29.521,kallum_motion_pilot,2023.2.2,Win32,59.88023952,5bcd11401662020001fe82c1,65d2b6c8f2eece985d8e374c,65d2b97070519faf7d3f00e8,0.0257,0.0258,0,105,105,85,1,seveneight,,,,,,,,,,,,,,,,,,,,,,,,,,,,,,,,,,,,,,,,,,,,,,,,,,,,,,,,,,,,,,,,,,,,,,,,,,,,,,,,,,,,,,,,,,,,,,,,,,,,,,,,,,,,,,,,,,,,,,,,,,,,,,,,,,,,,,,,,
,,5bcd11401662020001fe82c1,2024-02-19_03h16.29.521,kallum_motion_pilot,2023.2.2,Win32,59.88023952,5bcd11401662020001fe82c1,65d2b6c8f2eece985d8e374c,65d2b97070519faf7d3f00e8,0.0259,0.0259,0,106,106,26,1,twoone,,,,,,,,,,,,,,,,,,,,,,,,,,,,,,,,,,,,,,,,,,,,,,,,,,,,,,,,,,,,,,,,,,,,,,,,,,,,,,,,,,,,,,,,,,,,,,,,,,,,,,,,,,,,,,,,,,,,,,,,,,,,,,,,,,,,,,,,,
,,5bcd11401662020001fe82c1,2024-02-19_03h16.29.521,kallum_motion_pilot,2023.2.2,Win32,59.88023952,5bcd11401662020001fe82c1,65d2b6c8f2eece985d8e374c,65d2b97070519faf7d3f00e8,0.0259,0.026,0,107,107,138,1,sixfive,,,,,,,,,,,,,,,,,,,,,,,,,,,,,,,,,,,,,,,,,,,,,,,,,,,,,,,,,,,,,,,,,,,,,,,,,,,,,,,,,,,,,,,,,,,,,,,,,,,,,,,,,,,,,,,,,,,,,,,,,,,,,,,,,,,,,,,,,
,,5bcd11401662020001fe82c1,2024-02-19_03h16.29.521,kallum_motion_pilot,2023.2.2,Win32,59.88023952,5bcd11401662020001fe82c1,65d2b6c8f2eece985d8e374c,65d2b97070519faf7d3f00e8,0.026,0.026,0,108,108,33,1,onethree,,,,,,,,,,,,,,,,,,,,,,,,,,,,,,,,,,,,,,,,,,,,,,,,,,,,,,,,,,,,,,,,,,,,,,,,,,,,,,,,,,,,,,,,,,,,,,,,,,,,,,,,,,,,,,,,,,,,,,,,,,,,,,,,,,,,,,,,,
,,5bcd11401662020001fe82c1,2024-02-19_03h16.29.521,kallum_motion_pilot,2023.2.2,Win32,59.88023952,5bcd11401662020001fe82c1,65d2b6c8f2eece985d8e374c,65d2b97070519faf7d3f00e8,0.0261,0.0261,0,109,109,146,1,sixfive,,,,,,,,,,,,,,,,,,,,,,,,,,,,,,,,,,,,,,,,,,,,,,,,,,,,,,,,,,,,,,,,,,,,,,,,,,,,,,,,,,,,,,,,,,,,,,,,,,,,,,,,,,,,,,,,,,,,,,,,,,,,,,,,,,,,,,,,,
,,5bcd11401662020001fe82c1,2024-02-19_03h16.29.521,kallum_motion_pilot,2023.2.2,Win32,59.88023952,5bcd11401662020001fe82c1,65d2b6c8f2eece985d8e374c,65d2b97070519faf7d3f00e8,0.0261,0.0262,0,110,110,81,1,fiveseven,,,,,,,,,,,,,,,,,,,,,,,,,,,,,,,,,,,,,,,,,,,,,,,,,,,,,,,,,,,,,,,,,,,,,,,,,,,,,,,,,,,,,,,,,,,,,,,,,,,,,,,,,,,,,,,,,,,,,,,,,,,,,,,,,,,,,,,,,
,,5bcd11401662020001fe82c1,2024-02-19_03h16.29.521,kallum_motion_pilot,2023.2.2,Win32,59.88023952,5bcd11401662020001fe82c1,65d2b6c8f2eece985d8e374c,65d2b97070519faf7d3f00e8,0.0262,0.0263,0,111,111,12,1,threeone,,,,,,,,,,,,,,,,,,,,,,,,,,,,,,,,,,,,,,,,,,,,,,,,,,,,,,,,,,,,,,,,,,,,,,,,,,,,,,,,,,,,,,,,,,,,,,,,,,,,,,,,,,,,,,,,,,,,,,,,,,,,,,,,,,,,,,,,,
,,5bcd11401662020001fe82c1,2024-02-19_03h16.29.521,kallum_motion_pilot,2023.2.2,Win32,59.88023952,5bcd11401662020001fe82c1,65d2b6c8f2eece985d8e374c,65d2b97070519faf7d3f00e8,0.0263,0.0263,0,112,112,149,1,seveneight,,,,,,,,,,,,,,,,,,,,,,,,,,,,,,,,,,,,,,,,,,,,,,,,,,,,,,,,,,,,,,,,,,,,,,,,,,,,,,,,,,,,,,,,,,,,,,,,,,,,,,,,,,,,,,,,,,,,,,,,,,,,,,,,,,,,,,,,,
,,5bcd11401662020001fe82c1,2024-02-19_03h16.29.521,kallum_motion_pilot,2023.2.2,Win32,59.88023952,5bcd11401662020001fe82c1,65d2b6c8f2eece985d8e374c,65d2b97070519faf7d3f00e8,0.0264,0.0264,0,113,113,135,1,eightseven,,,,,,,,,,,,,,,,,,,,,,,,,,,,,,,,,,,,,,,,,,,,,,,,,,,,,,,,,,,,,,,,,,,,,,,,,,,,,,,,,,,,,,,,,,,,,,,,,,,,,,,,,,,,,,,,,,,,,,,,,,,,,,,,,,,,,,,,,
,,5bcd11401662020001fe82c1,2024-02-19_03h16.29.521,kallum_motion_pilot,2023.2.2,Win32,59.88023952,5bcd11401662020001fe82c1,65d2b6c8f2eece985d8e374c,65d2b97070519faf7d3f00e8,0.0264,0.0265,0,114,114,65,1,onethree,,,,,,,,,,,,,,,,,,,,,,,,,,,,,,,,,,,,,,,,,,,,,,,,,,,,,,,,,,,,,,,,,,,,,,,,,,,,,,,,,,,,,,,,,,,,,,,,,,,,,,,,,,,,,,,,,,,,,,,,,,,,,,,,,,,,,,,,,
,,5bcd11401662020001fe82c1,2024-02-19_03h16.29.521,kallum_motion_pilot,2023.2.2,Win32,59.88023952,5bcd11401662020001fe82c1,65d2b6c8f2eece985d8e374c,65d2b97070519faf7d3f00e8,0.0265,0.0265,0,115,115,83,1,sixeight,,,,,,,,,,,,,,,,,,,,,,,,,,,,,,,,,,,,,,,,,,,,,,,,,,,,,,,,,,,,,,,,,,,,,,,,,,,,,,,,,,,,,,,,,,,,,,,,,,,,,,,,,,,,,,,,,,,,,,,,,,,,,,,,,,,,,,,,,
,,5bcd11401662020001fe82c1,2024-02-19_03h16.29.521,kallum_motion_pilot,2023.2.2,Win32,59.88023952,5bcd11401662020001fe82c1,65d2b6c8f2eece985d8e374c,65d2b97070519faf7d3f00e8,0.0265,0.0266,0,116,116,95,1,eightseven,,,,,,,,,,,,,,,,,,,,,,,,,,,,,,,,,,,,,,,,,,,,,,,,,,,,,,,,,,,,,,,,,,,,,,,,,,,,,,,,,,,,,,,,,,,,,,,,,,,,,,,,,,,,,,,,,,,,,,,,,,,,,,,,,,,,,,,,,
,,5bcd11401662020001fe82c1,2024-02-19_03h16.29.521,kallum_motion_pilot,2023.2.2,Win32,59.88023952,5bcd11401662020001fe82c1,65d2b6c8f2eece985d8e374c,65d2b97070519faf7d3f00e8,0.0267,0.0267,0,117,117,147,1,sixeight,,,,,,,,,,,,,,,,,,,,,,,,,,,,,,,,,,,,,,,,,,,,,,,,,,,,,,,,,,,,,,,,,,,,,,,,,,,,,,,,,,,,,,,,,,,,,,,,,,,,,,,,,,,,,,,,,,,,,,,,,,,,,,,,,,,,,,,,,
,,5bcd11401662020001fe82c1,2024-02-19_03h16.29.521,kallum_motion_pilot,2023.2.2,Win32,59.88023952,5bcd11401662020001fe82c1,65d2b6c8f2eece985d8e374c,65d2b97070519faf7d3f00e8,0.0267,0.0268,0,118,118,137,1,fiveseven,,,,,,,,,,,,,,,,,,,,,,,,,,,,,,,,,,,,,,,,,,,,,,,,,,,,,,,,,,,,,,,,,,,,,,,,,,,,,,,,,,,,,,,,,,,,,,,,,,,,,,,,,,,,,,,,,,,,,,,,,,,,,,,,,,,,,,,,,
,,5bcd11401662020001fe82c1,2024-02-19_03h16.29.521,kallum_motion_pilot,2023.2.2,Win32,59.88023952,5bcd11401662020001fe82c1,65d2b6c8f2eece985d8e374c,65d2b97070519faf7d3f00e8,0.0269,0.0269,0,119,119,157,1,seveneight,,,,,,,,,,,,,,,,,,,,,,,,,,,,,,,,,,,,,,,,,,,,,,,,,,,,,,,,,,,,,,,,,,,,,,,,,,,,,,,,,,,,,,,,,,,,,,,,,,,,,,,,,,,,,,,,,,,,,,,,,,,,,,,,,,,,,,,,,
,,5bcd11401662020001fe82c1,2024-02-19_03h16.29.521,kallum_motion_pilot,2023.2.2,Win32,59.88023952,5bcd11401662020001fe82c1,65d2b6c8f2eece985d8e374c,65d2b97070519faf7d3f00e8,0.0269,0.0269,0,120,120,55,1,fourthree,,,,,,,,,,,,,,,,,,,,,,,,,,,,,,,,,,,,,,,,,,,,,,,,,,,,,,,,,,,,,,,,,,,,,,,,,,,,,,,,,,,,,,,,,,,,,,,,,,,,,,,,,,,,,,,,,,,,,,,,,,,,,,,,,,,,,,,,,
,,5bcd11401662020001fe82c1,2024-02-19_03h16.29.521,kallum_motion_pilot,2023.2.2,Win32,59.88023952,5bcd11401662020001fe82c1,65d2b6c8f2eece985d8e374c,65d2b97070519faf7d3f00e8,0.0269,0.027,0,121,121,101,1,seveneight,,,,,,,,,,,,,,,,,,,,,,,,,,,,,,,,,,,,,,,,,,,,,,,,,,,,,,,,,,,,,,,,,,,,,,,,,,,,,,,,,,,,,,,,,,,,,,,,,,,,,,,,,,,,,,,,,,,,,,,,,,,,,,,,,,,,,,,,,
,,5bcd11401662020001fe82c1,2024-02-19_03h16.29.521,kallum_motion_pilot,2023.2.2,Win32,59.88023952,5bcd11401662020001fe82c1,65d2b6c8f2eece985d8e374c,65d2b97070519faf7d3f00e8,0.027,0.027,0,122,122,4,1,threeone,,,,,,,,,,,,,,,,,,,,,,,,,,,,,,,,,,,,,,,,,,,,,,,,,,,,,,,,,,,,,,,,,,,,,,,,,,,,,,,,,,,,,,,,,,,,,,,,,,,,,,,,,,,,,,,,,,,,,,,,,,,,,,,,,,,,,,,,,
,,5bcd11401662020001fe82c1,2024-02-19_03h16.29.521,kallum_motion_pilot,2023.2.2,Win32,59.88023952,5bcd11401662020001fe82c1,65d2b6c8f2eece985d8e374c,65d2b97070519faf7d3f00e8,0.0271,0.0271,0,123,123,19,1,twofour,,,,,,,,,,,,,,,,,,,,,,,,,,,,,,,,,,,,,,,,,,,,,,,,,,,,,,,,,,,,,,,,,,,,,,,,,,,,,,,,,,,,,,,,,,,,,,,,,,,,,,,,,,,,,,,,,,,,,,,,,,,,,,,,,,,,,,,,,
,,5bcd11401662020001fe82c1,2024-02-19_03h16.29.521,kallum_motion_pilot,2023.2.2,Win32,59.88023952,5bcd11401662020001fe82c1,65d2b6c8f2eece985d8e374c,65d2b97070519faf7d3f00e8,0.0272,0.0273,0,124,124,7,1,fourthree,,,,,,,,,,,,,,,,,,,,,,,,,,,,,,,,,,,,,,,,,,,,,,,,,,,,,,,,,,,,,,,,,,,,,,,,,,,,,,,,,,,,,,,,,,,,,,,,,,,,,,,,,,,,,,,,,,,,,,,,,,,,,,,,,,,,,,,,,
,,5bcd11401662020001fe82c1,2024-02-19_03h16.29.521,kallum_motion_pilot,2023.2.2,Win32,59.88023952,5bcd11401662020001fe82c1,65d2b6c8f2eece985d8e374c,65d2b97070519faf7d3f00e8,0.0273,0.0273,0,125,125,3,1,twofour,,,,,,,,,,,,,,,,,,,,,,,,,,,,,,,,,,,,,,,,,,,,,,,,,,,,,,,,,,,,,,,,,,,,,,,,,,,,,,,,,,,,,,,,,,,,,,,,,,,,,,,,,,,,,,,,,,,,,,,,,,,,,,,,,,,,,,,,,
,,5bcd11401662020001fe82c1,2024-02-19_03h16.29.521,kallum_motion_pilot,2023.2.2,Win32,59.88023952,5bcd11401662020001fe82c1,65d2b6c8f2eece985d8e374c,65d2b97070519faf7d3f00e8,0.0274,0.0274,0,126,126,14,1,fourtwo,,,,,,,,,,,,,,,,,,,,,,,,,,,,,,,,,,,,,,,,,,,,,,,,,,,,,,,,,,,,,,,,,,,,,,,,,,,,,,,,,,,,,,,,,,,,,,,,,,,,,,,,,,,,,,,,,,,,,,,,,,,,,,,,,,,,,,,,,
,,5bcd11401662020001fe82c1,2024-02-19_03h16.29.521,kallum_motion_pilot,2023.2.2,Win32,59.88023952,5bcd11401662020001fe82c1,65d2b6c8f2eece985d8e374c,65d2b97070519faf7d3f00e8,0.0275,0.0276,0,127,127,60,1,threeone,,,,,,,,,,,,,,,,,,,,,,,,,,,,,,,,,,,,,,,,,,,,,,,,,,,,,,,,,,,,,,,,,,,,,,,,,,,,,,,,,,,,,,,,,,,,,,,,,,,,,,,,,,,,,,,,,,,,,,,,,,,,,,,,,,,,,,,,,
,,5bcd11401662020001fe82c1,2024-02-19_03h16.29.521,kallum_motion_pilot,2023.2.2,Win32,59.88023952,5bcd11401662020001fe82c1,65d2b6c8f2eece985d8e374c,65d2b97070519faf7d3f00e8,0.0276,0.0276,0,128,128,44,1,threeone,,,,,,,,,,,,,,,,,,,,,,,,,,,,,,,,,,,,,,,,,,,,,,,,,,,,,,,,,,,,,,,,,,,,,,,,,,,,,,,,,,,,,,,,,,,,,,,,,,,,,,,,,,,,,,,,,,,,,,,,,,,,,,,,,,,,,,,,,
,,5bcd11401662020001fe82c1,2024-02-19_03h16.29.521,kallum_motion_pilot,2023.2.2,Win32,59.88023952,5bcd11401662020001fe82c1,65d2b6c8f2eece985d8e374c,65d2b97070519faf7d3f00e8,0.0277,0.0277,0,129,129,113,1,fiveseven,,,,,,,,,,,,,,,,,,,,,,,,,,,,,,,,,,,,,,,,,,,,,,,,,,,,,,,,,,,,,,,,,,,,,,,,,,,,,,,,,,,,,,,,,,,,,,,,,,,,,,,,,,,,,,,,,,,,,,,,,,,,,,,,,,,,,,,,,
,,5bcd11401662020001fe82c1,2024-02-19_03h16.29.521,kallum_motion_pilot,2023.2.2,Win32,59.88023952,5bcd11401662020001fe82c1,65d2b6c8f2eece985d8e374c,65d2b97070519faf7d3f00e8,0.0277,0.0277,0,130,130,2,1,twoone,,,,,,,,,,,,,,,,,,,,,,,,,,,,,,,,,,,,,,,,,,,,,,,,,,,,,,,,,,,,,,,,,,,,,,,,,,,,,,,,,,,,,,,,,,,,,,,,,,,,,,,,,,,,,,,,,,,,,,,,,,,,,,,,,,,,,,,,,
,,5bcd11401662020001fe82c1,2024-02-19_03h16.29.521,kallum_motion_pilot,2023.2.2,Win32,59.88023952,5bcd11401662020001fe82c1,65d2b6c8f2eece985d8e374c,65d2b97070519faf7d3f00e8,0.0279,0.0279,0,131,131,94,1,eightsix,,,,,,,,,,,,,,,,,,,,,,,,,,,,,,,,,,,,,,,,,,,,,,,,,,,,,,,,,,,,,,,,,,,,,,,,,,,,,,,,,,,,,,,,,,,,,,,,,,,,,,,,,,,,,,,,,,,,,,,,,,,,,,,,,,,,,,,,,
,,5bcd11401662020001fe82c1,2024-02-19_03h16.29.521,kallum_motion_pilot,2023.2.2,Win32,59.88023952,5bcd11401662020001fe82c1,65d2b6c8f2eece985d8e374c,65d2b97070519faf7d3f00e8,0.0279,0.0279,0,132,132,143,1,eightseven,,,,,,,,,,,,,,,,,,,,,,,,,,,,,,,,,,,,,,,,,,,,,,,,,,,,,,,,,,,,,,,,,,,,,,,,,,,,,,,,,,,,,,,,,,,,,,,,,,,,,,,,,,,,,,,,,,,,,,,,,,,,,,,,,,,,,,,,,
,,5bcd11401662020001fe82c1,2024-02-19_03h16.29.521,kallum_motion_pilot,2023.2.2,Win32,59.88023952,5bcd11401662020001fe82c1,65d2b6c8f2eece985d8e374c,65d2b97070519faf7d3f00e8,0.028,0.028,0,133,133,30,1,fourtwo,,,,,,,,,,,,,,,,,,,,,,,,,,,,,,,,,,,,,,,,,,,,,,,,,,,,,,,,,,,,,,,,,,,,,,,,,,,,,,,,,,,,,,,,,,,,,,,,,,,,,,,,,,,,,,,,,,,,,,,,,,,,,,,,,,,,,,,,,
,,5bcd11401662020001fe82c1,2024-02-19_03h16.29.521,kallum_motion_pilot,2023.2.2,Win32,59.88023952,5bcd11401662020001fe82c1,65d2b6c8f2eece985d8e374c,65d2b97070519faf7d3f00e8,0.028,0.0281,0,134,134,86,1,eightsix,,,,,,,,,,,,,,,,,,,,,,,,,,,,,,,,,,,,,,,,,,,,,,,,,,,,,,,,,,,,,,,,,,,,,,,,,,,,,,,,,,,,,,,,,,,,,,,,,,,,,,,,,,,,,,,,,,,,,,,,,,,,,,,,,,,,,,,,,
,,5bcd11401662020001fe82c1,2024-02-19_03h16.29.521,kallum_motion_pilot,2023.2.2,Win32,59.88023952,5bcd11401662020001fe82c1,65d2b6c8f2eece985d8e374c,65d2b97070519faf7d3f00e8,0.0281,0.0281,0,135,135,141,1,seveneight,,,,,,,,,,,,,,,,,,,,,,,,,,,,,,,,,,,,,,,,,,,,,,,,,,,,,,,,,,,,,,,,,,,,,,,,,,,,,,,,,,,,,,,,,,,,,,,,,,,,,,,,,,,,,,,,,,,,,,,,,,,,,,,,,,,,,,,,,
,,5bcd11401662020001fe82c1,2024-02-19_03h16.29.521,kallum_motion_pilot,2023.2.2,Win32,59.88023952,5bcd11401662020001fe82c1,65d2b6c8f2eece985d8e374c,65d2b97070519faf7d3f00e8,0.0282,0.0282,0,136,136,51,1,twofour,,,,,,,,,,,,,,,,,,,,,,,,,,,,,,,,,,,,,,,,,,,,,,,,,,,,,,,,,,,,,,,,,,,,,,,,,,,,,,,,,,,,,,,,,,,,,,,,,,,,,,,,,,,,,,,,,,,,,,,,,,,,,,,,,,,,,,,,,
,,5bcd11401662020001fe82c1,2024-02-19_03h16.29.521,kallum_motion_pilot,2023.2.2,Win32,59.88023952,5bcd11401662020001fe82c1,65d2b6c8f2eece985d8e374c,65d2b97070519faf7d3f00e8,0.0283,0.0284,0,137,137,116,1,sevenfive,,,,,,,,,,,,,,,,,,,,,,,,,,,,,,,,,,,,,,,,,,,,,,,,,,,,,,,,,,,,,,,,,,,,,,,,,,,,,,,,,,,,,,,,,,,,,,,,,,,,,,,,,,,,,,,,,,,,,,,,,,,,,,,,,,,,,,,,,
,,5bcd11401662020001fe82c1,2024-02-19_03h16.29.521,kallum_motion_pilot,2023.2.2,Win32,59.88023952,5bcd11401662020001fe82c1,65d2b6c8f2eece985d8e374c,65d2b97070519faf7d3f00e8,0.0285,0.0286,0,138,138,32,1,onetwo,,,,,,,,,,,,,,,,,,,,,,,,,,,,,,,,,,,,,,,,,,,,,,,,,,,,,,,,,,,,,,,,,,,,,,,,,,,,,,,,,,,,,,,,,,,,,,,,,,,,,,,,,,,,,,,,,,,,,,,,,,,,,,,,,,,,,,,,,
,,5bcd11401662020001fe82c1,2024-02-19_03h16.29.521,kallum_motion_pilot,2023.2.2,Win32,59.88023952,5bcd11401662020001fe82c1,65d2b6c8f2eece985d8e374c,65d2b97070519faf7d3f00e8,0.0286,0.0287,0,139,139,114,1,sixfive,,,,,,,,,,,,,,,,,,,,,,,,,,,,,,,,,,,,,,,,,,,,,,,,,,,,,,,,,,,,,,,,,,,,,,,,,,,,,,,,,,,,,,,,,,,,,,,,,,,,,,,,,,,,,,,,,,,,,,,,,,,,,,,,,,,,,,,,,
,,5bcd11401662020001fe82c1,2024-02-19_03h16.29.521,kallum_motion_pilot,2023.2.2,Win32,59.88023952,5bcd11401662020001fe82c1,65d2b6c8f2eece985d8e374c,65d2b97070519faf7d3f00e8,0.0288,0.0289,0,140,140,136,1,fivesix,,,,,,,,,,,,,,,,,,,,,,,,,,,,,,,,,,,,,,,,,,,,,,,,,,,,,,,,,,,,,,,,,,,,,,,,,,,,,,,,,,,,,,,,,,,,,,,,,,,,,,,,,,,,,,,,,,,,,,,,,,,,,,,,,,,,,,,,,
,,5bcd11401662020001fe82c1,2024-02-19_03h16.29.521,kallum_motion_pilot,2023.2.2,Win32,59.88023952,5bcd11401662020001fe82c1,65d2b6c8f2eece985d8e374c,65d2b97070519faf7d3f00e8,0.029,0.029,0,141,141,39,1,fourthree,,,,,,,,,,,,,,,,,,,,,,,,,,,,,,,,,,,,,,,,,,,,,,,,,,,,,,,,,,,,,,,,,,,,,,,,,,,,,,,,,,,,,,,,,,,,,,,,,,,,,,,,,,,,,,,,,,,,,,,,,,,,,,,,,,,,,,,,,
,,5bcd11401662020001fe82c1,2024-02-19_03h16.29.521,kallum_motion_pilot,2023.2.2,Win32,59.88023952,5bcd11401662020001fe82c1,65d2b6c8f2eece985d8e374c,65d2b97070519faf7d3f00e8,0.0291,0.0291,0,142,142,129,1,fiveseven,,,,,,,,,,,,,,,,,,,,,,,,,,,,,,,,,,,,,,,,,,,,,,,,,,,,,,,,,,,,,,,,,,,,,,,,,,,,,,,,,,,,,,,,,,,,,,,,,,,,,,,,,,,,,,,,,,,,,,,,,,,,,,,,,,,,,,,,,
,,5bcd11401662020001fe82c1,2024-02-19_03h16.29.521,kallum_motion_pilot,2023.2.2,Win32,59.88023952,5bcd11401662020001fe82c1,65d2b6c8f2eece985d8e374c,65d2b97070519faf7d3f00e8,0.0292,0.0292,0,143,143,92,1,sevenfive,,,,,,,,,,,,,,,,,,,,,,,,,,,,,,,,,,,,,,,,,,,,,,,,,,,,,,,,,,,,,,,,,,,,,,,,,,,,,,,,,,,,,,,,,,,,,,,,,,,,,,,,,,,,,,,,,,,,,,,,,,,,,,,,,,,,,,,,,
,,5bcd11401662020001fe82c1,2024-02-19_03h16.29.521,kallum_motion_pilot,2023.2.2,Win32,59.88023952,5bcd11401662020001fe82c1,65d2b6c8f2eece985d8e374c,65d2b97070519faf7d3f00e8,0.0292,0.0293,0,144,144,21,1,threefour,,,,,,,,,,,,,,,,,,,,,,,,,,,,,,,,,,,,,,,,,,,,,,,,,,,,,,,,,,,,,,,,,,,,,,,,,,,,,,,,,,,,,,,,,,,,,,,,,,,,,,,,,,,,,,,,,,,,,,,,,,,,,,,,,,,,,,,,,
,,5bcd11401662020001fe82c1,2024-02-19_03h16.29.521,kallum_motion_pilot,2023.2.2,Win32,59.88023952,5bcd11401662020001fe82c1,65d2b6c8f2eece985d8e374c,65d2b97070519faf7d3f00e8,0.0293,0.0294,0,145,145,25,1,onethree,,,,,,,,,,,,,,,,,,,,,,,,,,,,,,,,,,,,,,,,,,,,,,,,,,,,,,,,,,,,,,,,,,,,,,,,,,,,,,,,,,,,,,,,,,,,,,,,,,,,,,,,,,,,,,,,,,,,,,,,,,,,,,,,,,,,,,,,,
,,5bcd11401662020001fe82c1,2024-02-19_03h16.29.521,kallum_motion_pilot,2023.2.2,Win32,59.88023952,5bcd11401662020001fe82c1,65d2b6c8f2eece985d8e374c,65d2b97070519faf7d3f00e8,0.0294,0.0294,0,146,146,105,1,fiveseven,,,,,,,,,,,,,,,,,,,,,,,,,,,,,,,,,,,,,,,,,,,,,,,,,,,,,,,,,,,,,,,,,,,,,,,,,,,,,,,,,,,,,,,,,,,,,,,,,,,,,,,,,,,,,,,,,,,,,,,,,,,,,,,,,,,,,,,,,
,,5bcd11401662020001fe82c1,2024-02-19_03h16.29.521,kallum_motion_pilot,2023.2.2,Win32,59.88023952,5bcd11401662020001fe82c1,65d2b6c8f2eece985d8e374c,65d2b97070519faf7d3f00e8,0.0295,0.0296,0,147,147,31,1,fourthree,,,,,,,,,,,,,,,,,,,,,,,,,,,,,,,,,,,,,,,,,,,,,,,,,,,,,,,,,,,,,,,,,,,,,,,,,,,,,,,,,,,,,,,,,,,,,,,,,,,,,,,,,,,,,,,,,,,,,,,,,,,,,,,,,,,,,,,,,
,,5bcd11401662020001fe82c1,2024-02-19_03h16.29.521,kallum_motion_pilot,2023.2.2,Win32,59.88023952,5bcd11401662020001fe82c1,65d2b6c8f2eece985d8e374c,65d2b97070519faf7d3f00e8,0.0296,0.0297,0,148,148,133,1,seveneight,,,,,,,,,,,,,,,,,,,,,,,,,,,,,,,,,,,,,,,,,,,,,,,,,,,,,,,,,,,,,,,,,,,,,,,,,,,,,,,,,,,,,,,,,,,,,,,,,,,,,,,,,,,,,,,,,,,,,,,,,,,,,,,,,,,,,,,,,
,,5bcd11401662020001fe82c1,2024-02-19_03h16.29.521,kallum_motion_pilot,2023.2.2,Win32,59.88023952,5bcd11401662020001fe82c1,65d2b6c8f2eece985d8e374c,65d2b97070519faf7d3f00e8,0.0297,0.0297,0,149,149,1,1,onethree,,,,,,,,,,,,,,,,,,,,,,,,,,,,,,,,,,,,,,,,,,,,,,,,,,,,,,,,,,,,,,,,,,,,,,,,,,,,,,,,,,,,,,,,,,,,,,,,,,,,,,,,,,,,,,,,,,,,,,,,,,,,,,,,,,,,,,,,,
,,5bcd11401662020001fe82c1,2024-02-19_03h16.29.521,kallum_motion_pilot,2023.2.2,Win32,59.88023952,5bcd11401662020001fe82c1,65d2b6c8f2eece985d8e374c,65d2b97070519faf7d3f00e8,0.0298,0.0299,0,150,150,112,1,fivesix,,,,,,,,,,,,,,,,,,,,,,,,,,,,,,,,,,,,,,,,,,,,,,,,,,,,,,,,,,,,,,,,,,,,,,,,,,,,,,,,,,,,,,,,,,,,,,,,,,,,,,,,,,,,,,,,,,,,,,,,,,,,,,,,,,,,,,,,,
,,5bcd11401662020001fe82c1,2024-02-19_03h16.29.521,kallum_motion_pilot,2023.2.2,Win32,59.88023952,5bcd11401662020001fe82c1,65d2b6c8f2eece985d8e374c,65d2b97070519faf7d3f00e8,0.0299,0.0299,0,151,151,102,1,eightsix,,,,,,,,,,,,,,,,,,,,,,,,,,,,,,,,,,,,,,,,,,,,,,,,,,,,,,,,,,,,,,,,,,,,,,,,,,,,,,,,,,,,,,,,,,,,,,,,,,,,,,,,,,,,,,,,,,,,,,,,,,,,,,,,,,,,,,,,,
,,5bcd11401662020001fe82c1,2024-02-19_03h16.29.521,kallum_motion_pilot,2023.2.2,Win32,59.88023952,5bcd11401662020001fe82c1,65d2b6c8f2eece985d8e374c,65d2b97070519faf7d3f00e8,0.03,0.03,0,152,152,68,1,threeone,,,,,,,,,,,,,,,,,,,,,,,,,,,,,,,,,,,,,,,,,,,,,,,,,,,,,,,,,,,,,,,,,,,,,,,,,,,,,,,,,,,,,,,,,,,,,,,,,,,,,,,,,,,,,,,,,,,,,,,,,,,,,,,,,,,,,,,,,
,,5bcd11401662020001fe82c1,2024-02-19_03h16.29.521,kallum_motion_pilot,2023.2.2,Win32,59.88023952,5bcd11401662020001fe82c1,65d2b6c8f2eece985d8e374c,65d2b97070519faf7d3f00e8,0.0301,0.0301,0,153,153,80,1,fivesix,,,,,,,,,,,,,,,,,,,,,,,,,,,,,,,,,,,,,,,,,,,,,,,,,,,,,,,,,,,,,,,,,,,,,,,,,,,,,,,,,,,,,,,,,,,,,,,,,,,,,,,,,,,,,,,,,,,,,,,,,,,,,,,,,,,,,,,,,
,,5bcd11401662020001fe82c1,2024-02-19_03h16.29.521,kallum_motion_pilot,2023.2.2,Win32,59.88023952,5bcd11401662020001fe82c1,65d2b6c8f2eece985d8e374c,65d2b97070519faf7d3f00e8,0.0301,0.0301,0,154,154,66,1,twoone,,,,,,,,,,,,,,,,,,,,,,,,,,,,,,,,,,,,,,,,,,,,,,,,,,,,,,,,,,,,,,,,,,,,,,,,,,,,,,,,,,,,,,,,,,,,,,,,,,,,,,,,,,,,,,,,,,,,,,,,,,,,,,,,,,,,,,,,,
,,5bcd11401662020001fe82c1,2024-02-19_03h16.29.521,kallum_motion_pilot,2023.2.2,Win32,59.88023952,5bcd11401662020001fe82c1,65d2b6c8f2eece985d8e374c,65d2b97070519faf7d3f00e8,0.0302,0.0302,0,155,155,117,1,seveneight,,,,,,,,,,,,,,,,,,,,,,,,,,,,,,,,,,,,,,,,,,,,,,,,,,,,,,,,,,,,,,,,,,,,,,,,,,,,,,,,,,,,,,,,,,,,,,,,,,,,,,,,,,,,,,,,,,,,,,,,,,,,,,,,,,,,,,,,,
,,5bcd11401662020001fe82c1,2024-02-19_03h16.29.521,kallum_motion_pilot,2023.2.2,Win32,59.88023952,5bcd11401662020001fe82c1,65d2b6c8f2eece985d8e374c,65d2b97070519faf7d3f00e8,0.0303,0.0303,0,156,156,9,1,onethree,,,,,,,,,,,,,,,,,,,,,,,,,,,,,,,,,,,,,,,,,,,,,,,,,,,,,,,,,,,,,,,,,,,,,,,,,,,,,,,,,,,,,,,,,,,,,,,,,,,,,,,,,,,,,,,,,,,,,,,,,,,,,,,,,,,,,,,,,
,,5bcd11401662020001fe82c1,2024-02-19_03h16.29.521,kallum_motion_pilot,2023.2.2,Win32,59.88023952,5bcd11401662020001fe82c1,65d2b6c8f2eece985d8e374c,65d2b97070519faf7d3f00e8,0.0304,0.0304,0,157,157,34,1,twoone,,,,,,,,,,,,,,,,,,,,,,,,,,,,,,,,,,,,,,,,,,,,,,,,,,,,,,,,,,,,,,,,,,,,,,,,,,,,,,,,,,,,,,,,,,,,,,,,,,,,,,,,,,,,,,,,,,,,,,,,,,,,,,,,,,,,,,,,,
,,5bcd11401662020001fe82c1,2024-02-19_03h16.29.521,kallum_motion_pilot,2023.2.2,Win32,59.88023952,5bcd11401662020001fe82c1,65d2b6c8f2eece985d8e374c,65d2b97070519faf7d3f00e8,0.0305,0.0305,0,158,158,28,1,threeone,,,,,,,,,,,,,,,,,,,,,,,,,,,,,,,,,,,,,,,,,,,,,,,,,,,,,,,,,,,,,,,,,,,,,,,,,,,,,,,,,,,,,,,,,,,,,,,,,,,,,,,,,,,,,,,,,,,,,,,,,,,,,,,,,,,,,,,,,
,,5bcd11401662020001fe82c1,2024-02-19_03h16.29.521,kallum_motion_pilot,2023.2.2,Win32,59.88023952,5bcd11401662020001fe82c1,65d2b6c8f2eece985d8e374c,65d2b97070519faf7d3f00e8,0.0305,0.0306,0,159,159,156,1,sevenfive,,,,,,,,,,,,,,,,,,,,,,,,,,,,,,,,,,,,,,,,,,,,,,,,,,,,,,,,,,,,,,,,,,,,,,,,,,,,,,,,,,,,,,,,,,,,,,,,,,,,,,,,,,,,,,,,,,,,,,,,,,,,,,,,,,,,,,,,,
,,5bcd11401662020001fe82c1,2024-02-19_03h16.29.521,kallum_motion_pilot,2023.2.2,Win32,59.88023952,5bcd11401662020001fe82c1,65d2b6c8f2eece985d8e374c,65d2b97070519faf7d3f00e8,0.0307,0.0307,0,160,160,115,1,sixeight,,,,,,,,,,,,,,,,,,,,,,,,,,,,,,,,,,,,,,,,,,,,,,,,,,,,,,,,,,,,,,,,,,,,,,,,,,,,,,,,,,,,,,,,,,,,,,,,,,,,,,,,,,,,,,,,,,,,,,,,,,,,,,,,,,,,,,,,,
,,5bcd11401662020001fe82c1,2024-02-19_03h16.29.521,kallum_motion_pilot,2023.2.2,Win32,59.88023952,5bcd11401662020001fe82c1,65d2b6c8f2eece985d8e374c,65d2b97070519faf7d3f00e8,0.0307,0.0308,0,161,161,98,1,sixfive,,,,,,,,,,,,,,,,,,,,,,,,,,,,,,,,,,,,,,,,,,,,,,,,,,,,,,,,,,,,,,,,,,,,,,,,,,,,,,,,,,,,,,,,,,,,,,,,,,,,,,,,,,,,,,,,,,,,,,,,,,,,,,,,,,,,,,,,,
,,5bcd11401662020001fe82c1,2024-02-19_03h16.29.521,kallum_motion_pilot,2023.2.2,Win32,59.88023952,5bcd11401662020001fe82c1,65d2b6c8f2eece985d8e374c,65d2b97070519faf7d3f00e8,0.0309,0.031,1,0,162,25,1,onethree,,,,,,,,,,,,,,,,,,,,,,,,,,,,,,,,,,,,,,,,,,,,,,,,,,,,,,,,,,,,,,,,,,,,,,,,,,,,,,,,,,,,,,,,,,,,,,,,,,,,,,,,,,,,,,,,,,,,,,,,,,,,,,,,,,,,,,,,,
,,5bcd11401662020001fe82c1,2024-02-19_03h16.29.521,kallum_motion_pilot,2023.2.2,Win32,59.88023952,5bcd11401662020001fe82c1,65d2b6c8f2eece985d8e374c,65d2b97070519faf7d3f00e8,0.031,0.031,1,1,163,9,1,onethree,,,,,,,,,,,,,,,,,,,,,,,,,,,,,,,,,,,,,,,,,,,,,,,,,,,,,,,,,,,,,,,,,,,,,,,,,,,,,,,,,,,,,,,,,,,,,,,,,,,,,,,,,,,,,,,,,,,,,,,,,,,,,,,,,,,,,,,,,
,,5bcd11401662020001fe82c1,2024-02-19_03h16.29.521,kallum_motion_pilot,2023.2.2,Win32,59.88023952,5bcd11401662020001fe82c1,65d2b6c8f2eece985d8e374c,65d2b97070519faf7d3f00e8,0.031,0.0311,1,2,164,12,1,threeone,,,,,,,,,,,,,,,,,,,,,,,,,,,,,,,,,,,,,,,,,,,,,,,,,,,,,,,,,,,,,,,,,,,,,,,,,,,,,,,,,,,,,,,,,,,,,,,,,,,,,,,,,,,,,,,,,,,,,,,,,,,,,,,,,,,,,,,,,
,,5bcd11401662020001fe82c1,2024-02-19_03h16.29.521,kallum_motion_pilot,2023.2.2,Win32,59.88023952,5bcd11401662020001fe82c1,65d2b6c8f2eece985d8e374c,65d2b97070519faf7d3f00e8,0.0311,0.0312,1,3,165,147,1,sixeight,,,,,,,,,,,,,,,,,,,,,,,,,,,,,,,,,,,,,,,,,,,,,,,,,,,,,,,,,,,,,,,,,,,,,,,,,,,,,,,,,,,,,,,,,,,,,,,,,,,,,,,,,,,,,,,,,,,,,,,,,,,,,,,,,,,,,,,,,
,,5bcd11401662020001fe82c1,2024-02-19_03h16.29.521,kallum_motion_pilot,2023.2.2,Win32,59.88023952,5bcd11401662020001fe82c1,65d2b6c8f2eece985d8e374c,65d2b97070519faf7d3f00e8,0.0312,0.0312,1,4,166,125,1,seveneight,,,,,,,,,,,,,,,,,,,,,,,,,,,,,,,,,,,,,,,,,,,,,,,,,,,,,,,,,,,,,,,,,,,,,,,,,,,,,,,,,,,,,,,,,,,,,,,,,,,,,,,,,,,,,,,,,,,,,,,,,,,,,,,,,,,,,,,,,
,,5bcd11401662020001fe82c1,2024-02-19_03h16.29.521,kallum_motion_pilot,2023.2.2,Win32,59.88023952,5bcd11401662020001fe82c1,65d2b6c8f2eece985d8e374c,65d2b97070519faf7d3f00e8,0.0313,0.0314,1,5,167,128,1,fivesix,,,,,,,,,,,,,,,,,,,,,,,,,,,,,,,,,,,,,,,,,,,,,,,,,,,,,,,,,,,,,,,,,,,,,,,,,,,,,,,,,,,,,,,,,,,,,,,,,,,,,,,,,,,,,,,,,,,,,,,,,,,,,,,,,,,,,,,,,
,,5bcd11401662020001fe82c1,2024-02-19_03h16.29.521,kallum_motion_pilot,2023.2.2,Win32,59.88023952,5bcd11401662020001fe82c1,65d2b6c8f2eece985d8e374c,65d2b97070519faf7d3f00e8,0.0314,0.0314,1,6,168,136,1,fivesix,,,,,,,,,,,,,,,,,,,,,,,,,,,,,,,,,,,,,,,,,,,,,,,,,,,,,,,,,,,,,,,,,,,,,,,,,,,,,,,,,,,,,,,,,,,,,,,,,,,,,,,,,,,,,,,,,,,,,,,,,,,,,,,,,,,,,,,,,
,,5bcd11401662020001fe82c1,2024-02-19_03h16.29.521,kallum_motion_pilot,2023.2.2,Win32,59.88023952,5bcd11401662020001fe82c1,65d2b6c8f2eece985d8e374c,65d2b97070519faf7d3f00e8,0.0315,0.0315,1,7,169,51,1,twofour,,,,,,,,,,,,,,,,,,,,,,,,,,,,,,,,,,,,,,,,,,,,,,,,,,,,,,,,,,,,,,,,,,,,,,,,,,,,,,,,,,,,,,,,,,,,,,,,,,,,,,,,,,,,,,,,,,,,,,,,,,,,,,,,,,,,,,,,,
,,5bcd11401662020001fe82c1,2024-02-19_03h16.29.521,kallum_motion_pilot,2023.2.2,Win32,59.88023952,5bcd11401662020001fe82c1,65d2b6c8f2eece985d8e374c,65d2b97070519faf7d3f00e8,0.0316,0.0316,1,8,170,68,1,threeone,,,,,,,,,,,,,,,,,,,,,,,,,,,,,,,,,,,,,,,,,,,,,,,,,,,,,,,,,,,,,,,,,,,,,,,,,,,,,,,,,,,,,,,,,,,,,,,,,,,,,,,,,,,,,,,,,,,,,,,,,,,,,,,,,,,,,,,,,
,,5bcd11401662020001fe82c1,2024-02-19_03h16.29.521,kallum_motion_pilot,2023.2.2,Win32,59.88023952,5bcd11401662020001fe82c1,65d2b6c8f2eece985d8e374c,65d2b97070519faf7d3f00e8,0.0317,0.0317,1,9,171,59,1,twofour,,,,,,,,,,,,,,,,,,,,,,,,,,,,,,,,,,,,,,,,,,,,,,,,,,,,,,,,,,,,,,,,,,,,,,,,,,,,,,,,,,,,,,,,,,,,,,,,,,,,,,,,,,,,,,,,,,,,,,,,,,,,,,,,,,,,,,,,,
,,5bcd11401662020001fe82c1,2024-02-19_03h16.29.521,kallum_motion_pilot,2023.2.2,Win32,59.88023952,5bcd11401662020001fe82c1,65d2b6c8f2eece985d8e374c,65d2b97070519faf7d3f00e8,0.0317,0.0318,1,10,172,130,1,sixfive,,,,,,,,,,,,,,,,,,,,,,,,,,,,,,,,,,,,,,,,,,,,,,,,,,,,,,,,,,,,,,,,,,,,,,,,,,,,,,,,,,,,,,,,,,,,,,,,,,,,,,,,,,,,,,,,,,,,,,,,,,,,,,,,,,,,,,,,,
,,5bcd11401662020001fe82c1,2024-02-19_03h16.29.521,kallum_motion_pilot,2023.2.2,Win32,59.88023952,5bcd11401662020001fe82c1,65d2b6c8f2eece985d8e374c,65d2b97070519faf7d3f00e8,0.0318,0.0319,1,11,173,23,1,fourthree,,,,,,,,,,,,,,,,,,,,,,,,,,,,,,,,,,,,,,,,,,,,,,,,,,,,,,,,,,,,,,,,,,,,,,,,,,,,,,,,,,,,,,,,,,,,,,,,,,,,,,,,,,,,,,,,,,,,,,,,,,,,,,,,,,,,,,,,,
,,5bcd11401662020001fe82c1,2024-02-19_03h16.29.521,kallum_motion_pilot,2023.2.2,Win32,59.88023952,5bcd11401662020001fe82c1,65d2b6c8f2eece985d8e374c,65d2b97070519faf7d3f00e8,0.032,0.032,1,12,174,21,1,threefour,,,,,,,,,,,,,,,,,,,,,,,,,,,,,,,,,,,,,,,,,,,,,,,,,,,,,,,,,,,,,,,,,,,,,,,,,,,,,,,,,,,,,,,,,,,,,,,,,,,,,,,,,,,,,,,,,,,,,,,,,,,,,,,,,,,,,,,,,
,,5bcd11401662020001fe82c1,2024-02-19_03h16.29.521,kallum_motion_pilot,2023.2.2,Win32,59.88023952,5bcd11401662020001fe82c1,65d2b6c8f2eece985d8e374c,65d2b97070519faf7d3f00e8,0.032,0.032,1,13,175,22,1,fourtwo,,,,,,,,,,,,,,,,,,,,,,,,,,,,,,,,,,,,,,,,,,,,,,,,,,,,,,,,,,,,,,,,,,,,,,,,,,,,,,,,,,,,,,,,,,,,,,,,,,,,,,,,,,,,,,,,,,,,,,,,,,,,,,,,,,,,,,,,,
,,5bcd11401662020001fe82c1,2024-02-19_03h16.29.521,kallum_motion_pilot,2023.2.2,Win32,59.88023952,5bcd11401662020001fe82c1,65d2b6c8f2eece985d8e374c,65d2b97070519faf7d3f00e8,0.0321,0.0321,1,14,176,40,1,onetwo,,,,,,,,,,,,,,,,,,,,,,,,,,,,,,,,,,,,,,,,,,,,,,,,,,,,,,,,,,,,,,,,,,,,,,,,,,,,,,,,,,,,,,,,,,,,,,,,,,,,,,,,,,,,,,,,,,,,,,,,,,,,,,,,,,,,,,,,,
,,5bcd11401662020001fe82c1,2024-02-19_03h16.29.521,kallum_motion_pilot,2023.2.2,Win32,59.88023952,5bcd11401662020001fe82c1,65d2b6c8f2eece985d8e374c,65d2b97070519faf7d3f00e8,0.0323,0.0323,1,15,177,19,1,twofour,,,,,,,,,,,,,,,,,,,,,,,,,,,,,,,,,,,,,,,,,,,,,,,,,,,,,,,,,,,,,,,,,,,,,,,,,,,,,,,,,,,,,,,,,,,,,,,,,,,,,,,,,,,,,,,,,,,,,,,,,,,,,,,,,,,,,,,,,
,,5bcd11401662020001fe82c1,2024-02-19_03h16.29.521,kallum_motion_pilot,2023.2.2,Win32,59.88023952,5bcd11401662020001fe82c1,65d2b6c8f2eece985d8e374c,65d2b97070519faf7d3f00e8,0.0323,0.0323,1,16,178,36,1,threeone,,,,,,,,,,,,,,,,,,,,,,,,,,,,,,,,,,,,,,,,,,,,,,,,,,,,,,,,,,,,,,,,,,,,,,,,,,,,,,,,,,,,,,,,,,,,,,,,,,,,,,,,,,,,,,,,,,,,,,,,,,,,,,,,,,,,,,,,,
,,5bcd11401662020001fe82c1,2024-02-19_03h16.29.521,kallum_motion_pilot,2023.2.2,Win32,59.88023952,5bcd11401662020001fe82c1,65d2b6c8f2eece985d8e374c,65d2b97070519faf7d3f00e8,0.0324,0.0325,1,17,179,76,1,threeone,,,,,,,,,,,,,,,,,,,,,,,,,,,,,,,,,,,,,,,,,,,,,,,,,,,,,,,,,,,,,,,,,,,,,,,,,,,,,,,,,,,,,,,,,,,,,,,,,,,,,,,,,,,,,,,,,,,,,,,,,,,,,,,,,,,,,,,,,
,,5bcd11401662020001fe82c1,2024-02-19_03h16.29.521,kallum_motion_pilot,2023.2.2,Win32,59.88023952,5bcd11401662020001fe82c1,65d2b6c8f2eece985d8e374c,65d2b97070519faf7d3f00e8,0.0325,0.0325,1,18,180,153,1,fiveseven,,,,,,,,,,,,,,,,,,,,,,,,,,,,,,,,,,,,,,,,,,,,,,,,,,,,,,,,,,,,,,,,,,,,,,,,,,,,,,,,,,,,,,,,,,,,,,,,,,,,,,,,,,,,,,,,,,,,,,,,,,,,,,,,,,,,,,,,,
,,5bcd11401662020001fe82c1,2024-02-19_03h16.29.521,kallum_motion_pilot,2023.2.2,Win32,59.88023952,5bcd11401662020001fe82c1,65d2b6c8f2eece985d8e374c,65d2b97070519faf7d3f00e8,0.0326,0.0326,1,19,181,65,1,onethree,,,,,,,,,,,,,,,,,,,,,,,,,,,,,,,,,,,,,,,,,,,,,,,,,,,,,,,,,,,,,,,,,,,,,,,,,,,,,,,,,,,,,,,,,,,,,,,,,,,,,,,,,,,,,,,,,,,,,,,,,,,,,,,,,,,,,,,,,
,,5bcd11401662020001fe82c1,2024-02-19_03h16.29.521,kallum_motion_pilot,2023.2.2,Win32,59.88023952,5bcd11401662020001fe82c1,65d2b6c8f2eece985d8e374c,65d2b97070519faf7d3f00e8,0.0326,0.0327,1,20,182,132,1,sevenfive,,,,,,,,,,,,,,,,,,,,,,,,,,,,,,,,,,,,,,,,,,,,,,,,,,,,,,,,,,,,,,,,,,,,,,,,,,,,,,,,,,,,,,,,,,,,,,,,,,,,,,,,,,,,,,,,,,,,,,,,,,,,,,,,,,,,,,,,,
,,5bcd11401662020001fe82c1,2024-02-19_03h16.29.521,kallum_motion_pilot,2023.2.2,Win32,59.88023952,5bcd11401662020001fe82c1,65d2b6c8f2eece985d8e374c,65d2b97070519faf7d3f00e8,0.0328,0.0329,1,21,183,114,1,sixfive,,,,,,,,,,,,,,,,,,,,,,,,,,,,,,,,,,,,,,,,,,,,,,,,,,,,,,,,,,,,,,,,,,,,,,,,,,,,,,,,,,,,,,,,,,,,,,,,,,,,,,,,,,,,,,,,,,,,,,,,,,,,,,,,,,,,,,,,,
,,5bcd11401662020001fe82c1,2024-02-19_03h16.29.521,kallum_motion_pilot,2023.2.2,Win32,59.88023952,5bcd11401662020001fe82c1,65d2b6c8f2eece985d8e374c,65d2b97070519faf7d3f00e8,0.0329,0.0329,1,22,184,54,1,fourtwo,,,,,,,,,,,,,,,,,,,,,,,,,,,,,,,,,,,,,,,,,,,,,,,,,,,,,,,,,,,,,,,,,,,,,,,,,,,,,,,,,,,,,,,,,,,,,,,,,,,,,,,,,,,,,,,,,,,,,,,,,,,,,,,,,,,,,,,,,
,,5bcd11401662020001fe82c1,2024-02-19_03h16.29.521,kallum_motion_pilot,2023.2.2,Win32,59.88023952,5bcd11401662020001fe82c1,65d2b6c8f2eece985d8e374c,65d2b97070519faf7d3f00e8,0.033,0.033,1,23,185,20,1,threeone,,,,,,,,,,,,,,,,,,,,,,,,,,,,,,,,,,,,,,,,,,,,,,,,,,,,,,,,,,,,,,,,,,,,,,,,,,,,,,,,,,,,,,,,,,,,,,,,,,,,,,,,,,,,,,,,,,,,,,,,,,,,,,,,,,,,,,,,,
,,5bcd11401662020001fe82c1,2024-02-19_03h16.29.521,kallum_motion_pilot,2023.2.2,Win32,59.88023952,5bcd11401662020001fe82c1,65d2b6c8f2eece985d8e374c,65d2b97070519faf7d3f00e8,0.033,0.0332,1,24,186,90,1,sixfive,,,,,,,,,,,,,,,,,,,,,,,,,,,,,,,,,,,,,,,,,,,,,,,,,,,,,,,,,,,,,,,,,,,,,,,,,,,,,,,,,,,,,,,,,,,,,,,,,,,,,,,,,,,,,,,,,,,,,,,,,,,,,,,,,,,,,,,,,
,,5bcd11401662020001fe82c1,2024-02-19_03h16.29.521,kallum_motion_pilot,2023.2.2,Win32,59.88023952,5bcd11401662020001fe82c1,65d2b6c8f2eece985d8e374c,65d2b97070519faf7d3f00e8,0.0332,0.0333,1,25,187,158,1,eightsix,,,,,,,,,,,,,,,,,,,,,,,,,,,,,,,,,,,,,,,,,,,,,,,,,,,,,,,,,,,,,,,,,,,,,,,,,,,,,,,,,,,,,,,,,,,,,,,,,,,,,,,,,,,,,,,,,,,,,,,,,,,,,,,,,,,,,,,,,
,,5bcd11401662020001fe82c1,2024-02-19_03h16.29.521,kallum_motion_pilot,2023.2.2,Win32,59.88023952,5bcd11401662020001fe82c1,65d2b6c8f2eece985d8e374c,65d2b97070519faf7d3f00e8,0.0333,0.0334,1,26,188,83,1,sixeight,,,,,,,,,,,,,,,,,,,,,,,,,,,,,,,,,,,,,,,,,,,,,,,,,,,,,,,,,,,,,,,,,,,,,,,,,,,,,,,,,,,,,,,,,,,,,,,,,,,,,,,,,,,,,,,,,,,,,,,,,,,,,,,,,,,,,,,,,
,,5bcd11401662020001fe82c1,2024-02-19_03h16.29.521,kallum_motion_pilot,2023.2.2,Win32,59.88023952,5bcd11401662020001fe82c1,65d2b6c8f2eece985d8e374c,65d2b97070519faf7d3f00e8,0.0334,0.0335,1,27,189,44,1,threeone,,,,,,,,,,,,,,,,,,,,,,,,,,,,,,,,,,,,,,,,,,,,,,,,,,,,,,,,,,,,,,,,,,,,,,,,,,,,,,,,,,,,,,,,,,,,,,,,,,,,,,,,,,,,,,,,,,,,,,,,,,,,,,,,,,,,,,,,,
,,5bcd11401662020001fe82c1,2024-02-19_03h16.29.521,kallum_motion_pilot,2023.2.2,Win32,59.88023952,5bcd11401662020001fe82c1,65d2b6c8f2eece985d8e374c,65d2b97070519faf7d3f00e8,0.0335,0.0336,1,28,190,99,1,sixeight,,,,,,,,,,,,,,,,,,,,,,,,,,,,,,,,,,,,,,,,,,,,,,,,,,,,,,,,,,,,,,,,,,,,,,,,,,,,,,,,,,,,,,,,,,,,,,,,,,,,,,,,,,,,,,,,,,,,,,,,,,,,,,,,,,,,,,,,,
,,5bcd11401662020001fe82c1,2024-02-19_03h16.29.521,kallum_motion_pilot,2023.2.2,Win32,59.88023952,5bcd11401662020001fe82c1,65d2b6c8f2eece985d8e374c,65d2b97070519faf7d3f00e8,0.0336,0.0337,1,29,191,103,1,eightseven,,,,,,,,,,,,,,,,,,,,,,,,,,,,,,,,,,,,,,,,,,,,,,,,,,,,,,,,,,,,,,,,,,,,,,,,,,,,,,,,,,,,,,,,,,,,,,,,,,,,,,,,,,,,,,,,,,,,,,,,,,,,,,,,,,,,,,,,,
,,5bcd11401662020001fe82c1,2024-02-19_03h16.29.521,kallum_motion_pilot,2023.2.2,Win32,59.88023952,5bcd11401662020001fe82c1,65d2b6c8f2eece985d8e374c,65d2b97070519faf7d3f00e8,0.0337,0.0338,1,30,192,154,1,sixfive,,,,,,,,,,,,,,,,,,,,,,,,,,,,,,,,,,,,,,,,,,,,,,,,,,,,,,,,,,,,,,,,,,,,,,,,,,,,,,,,,,,,,,,,,,,,,,,,,,,,,,,,,,,,,,,,,,,,,,,,,,,,,,,,,,,,,,,,,
,,5bcd11401662020001fe82c1,2024-02-19_03h16.29.521,kallum_motion_pilot,2023.2.2,Win32,59.88023952,5bcd11401662020001fe82c1,65d2b6c8f2eece985d8e374c,65d2b97070519faf7d3f00e8,0.0339,0.0339,1,31,193,96,1,fivesix,,,,,,,,,,,,,,,,,,,,,,,,,,,,,,,,,,,,,,,,,,,,,,,,,,,,,,,,,,,,,,,,,,,,,,,,,,,,,,,,,,,,,,,,,,,,,,,,,,,,,,,,,,,,,,,,,,,,,,,,,,,,,,,,,,,,,,,,,
,,5bcd11401662020001fe82c1,2024-02-19_03h16.29.521,kallum_motion_pilot,2023.2.2,Win32,59.88023952,5bcd11401662020001fe82c1,65d2b6c8f2eece985d8e374c,65d2b97070519faf7d3f00e8,0.034,0.034,1,32,194,57,1,onethree,,,,,,,,,,,,,,,,,,,,,,,,,,,,,,,,,,,,,,,,,,,,,,,,,,,,,,,,,,,,,,,,,,,,,,,,,,,,,,,,,,,,,,,,,,,,,,,,,,,,,,,,,,,,,,,,,,,,,,,,,,,,,,,,,,,,,,,,,
,,5bcd11401662020001fe82c1,2024-02-19_03h16.29.521,kallum_motion_pilot,2023.2.2,Win32,59.88023952,5bcd11401662020001fe82c1,65d2b6c8f2eece985d8e374c,65d2b97070519faf7d3f00e8,0.0341,0.0341,1,33,195,87,1,eightseven,,,,,,,,,,,,,,,,,,,,,,,,,,,,,,,,,,,,,,,,,,,,,,,,,,,,,,,,,,,,,,,,,,,,,,,,,,,,,,,,,,,,,,,,,,,,,,,,,,,,,,,,,,,,,,,,,,,,,,,,,,,,,,,,,,,,,,,,,
,,5bcd11401662020001fe82c1,2024-02-19_03h16.29.521,kallum_motion_pilot,2023.2.2,Win32,59.88023952,5bcd11401662020001fe82c1,65d2b6c8f2eece985d8e374c,65d2b97070519faf7d3f00e8,0.0341,0.0342,1,34,196,145,1,fiveseven,,,,,,,,,,,,,,,,,,,,,,,,,,,,,,,,,,,,,,,,,,,,,,,,,,,,,,,,,,,,,,,,,,,,,,,,,,,,,,,,,,,,,,,,,,,,,,,,,,,,,,,,,,,,,,,,,,,,,,,,,,,,,,,,,,,,,,,,,
,,5bcd11401662020001fe82c1,2024-02-19_03h16.29.521,kallum_motion_pilot,2023.2.2,Win32,59.88023952,5bcd11401662020001fe82c1,65d2b6c8f2eece985d8e374c,65d2b97070519faf7d3f00e8,0.0343,0.0343,1,35,197,106,1,sixfive,,,,,,,,,,,,,,,,,,,,,,,,,,,,,,,,,,,,,,,,,,,,,,,,,,,,,,,,,,,,,,,,,,,,,,,,,,,,,,,,,,,,,,,,,,,,,,,,,,,,,,,,,,,,,,,,,,,,,,,,,,,,,,,,,,,,,,,,,
,,5bcd11401662020001fe82c1,2024-02-19_03h16.29.521,kallum_motion_pilot,2023.2.2,Win32,59.88023952,5bcd11401662020001fe82c1,65d2b6c8f2eece985d8e374c,65d2b97070519faf7d3f00e8,0.0344,0.0344,1,36,198,155,1,sixeight,,,,,,,,,,,,,,,,,,,,,,,,,,,,,,,,,,,,,,,,,,,,,,,,,,,,,,,,,,,,,,,,,,,,,,,,,,,,,,,,,,,,,,,,,,,,,,,,,,,,,,,,,,,,,,,,,,,,,,,,,,,,,,,,,,,,,,,,,
,,5bcd11401662020001fe82c1,2024-02-19_03h16.29.521,kallum_motion_pilot,2023.2.2,Win32,59.88023952,5bcd11401662020001fe82c1,65d2b6c8f2eece985d8e374c,65d2b97070519faf7d3f00e8,0.0345,0.0345,1,37,199,18,1,twoone,,,,,,,,,,,,,,,,,,,,,,,,,,,,,,,,,,,,,,,,,,,,,,,,,,,,,,,,,,,,,,,,,,,,,,,,,,,,,,,,,,,,,,,,,,,,,,,,,,,,,,,,,,,,,,,,,,,,,,,,,,,,,,,,,,,,,,,,,
,,5bcd11401662020001fe82c1,2024-02-19_03h16.29.521,kallum_motion_pilot,2023.2.2,Win32,59.88023952,5bcd11401662020001fe82c1,65d2b6c8f2eece985d8e374c,65d2b97070519faf7d3f00e8,0.0346,0.0346,1,38,200,105,1,fiveseven,,,,,,,,,,,,,,,,,,,,,,,,,,,,,,,,,,,,,,,,,,,,,,,,,,,,,,,,,,,,,,,,,,,,,,,,,,,,,,,,,,,,,,,,,,,,,,,,,,,,,,,,,,,,,,,,,,,,,,,,,,,,,,,,,,,,,,,,,
,,5bcd11401662020001fe82c1,2024-02-19_03h16.29.521,kallum_motion_pilot,2023.2.2,Win32,59.88023952,5bcd11401662020001fe82c1,65d2b6c8f2eece985d8e374c,65d2b97070519faf7d3f00e8,0.0346,0.0346,1,39,201,27,1,twofour,,,,,,,,,,,,,,,,,,,,,,,,,,,,,,,,,,,,,,,,,,,,,,,,,,,,,,,,,,,,,,,,,,,,,,,,,,,,,,,,,,,,,,,,,,,,,,,,,,,,,,,,,,,,,,,,,,,,,,,,,,,,,,,,,,,,,,,,,
,,5bcd11401662020001fe82c1,2024-02-19_03h16.29.521,kallum_motion_pilot,2023.2.2,Win32,59.88023952,5bcd11401662020001fe82c1,65d2b6c8f2eece985d8e374c,65d2b97070519faf7d3f00e8,0.0347,0.0348,1,40,202,152,1,fivesix,,,,,,,,,,,,,,,,,,,,,,,,,,,,,,,,,,,,,,,,,,,,,,,,,,,,,,,,,,,,,,,,,,,,,,,,,,,,,,,,,,,,,,,,,,,,,,,,,,,,,,,,,,,,,,,,,,,,,,,,,,,,,,,,,,,,,,,,,
,,5bcd11401662020001fe82c1,2024-02-19_03h16.29.521,kallum_motion_pilot,2023.2.2,Win32,59.88023952,5bcd11401662020001fe82c1,65d2b6c8f2eece985d8e374c,65d2b97070519faf7d3f00e8,0.0349,0.0349,1,41,203,32,1,onetwo,,,,,,,,,,,,,,,,,,,,,,,,,,,,,,,,,,,,,,,,,,,,,,,,,,,,,,,,,,,,,,,,,,,,,,,,,,,,,,,,,,,,,,,,,,,,,,,,,,,,,,,,,,,,,,,,,,,,,,,,,,,,,,,,,,,,,,,,,
,,5bcd11401662020001fe82c1,2024-02-19_03h16.29.521,kallum_motion_pilot,2023.2.2,Win32,59.88023952,5bcd11401662020001fe82c1,65d2b6c8f2eece985d8e374c,65d2b97070519faf7d3f00e8,0.0349,0.0349,1,42,204,1,1,onethree,,,,,,,,,,,,,,,,,,,,,,,,,,,,,,,,,,,,,,,,,,,,,,,,,,,,,,,,,,,,,,,,,,,,,,,,,,,,,,,,,,,,,,,,,,,,,,,,,,,,,,,,,,,,,,,,,,,,,,,,,,,,,,,,,,,,,,,,,
,,5bcd11401662020001fe82c1,2024-02-19_03h16.29.521,kallum_motion_pilot,2023.2.2,Win32,59.88023952,5bcd11401662020001fe82c1,65d2b6c8f2eece985d8e374c,65d2b97070519faf7d3f00e8,0.035,0.0351,1,43,205,11,1,twofour,,,,,,,,,,,,,,,,,,,,,,,,,,,,,,,,,,,,,,,,,,,,,,,,,,,,,,,,,,,,,,,,,,,,,,,,,,,,,,,,,,,,,,,,,,,,,,,,,,,,,,,,,,,,,,,,,,,,,,,,,,,,,,,,,,,,,,,,,
,,5bcd11401662020001fe82c1,2024-02-19_03h16.29.521,kallum_motion_pilot,2023.2.2,Win32,59.88023952,5bcd11401662020001fe82c1,65d2b6c8f2eece985d8e374c,65d2b97070519faf7d3f00e8,0.0351,0.0351,1,44,206,61,1,threefour,,,,,,,,,,,,,,,,,,,,,,,,,,,,,,,,,,,,,,,,,,,,,,,,,,,,,,,,,,,,,,,,,,,,,,,,,,,,,,,,,,,,,,,,,,,,,,,,,,,,,,,,,,,,,,,,,,,,,,,,,,,,,,,,,,,,,,,,,
,,5bcd11401662020001fe82c1,2024-02-19_03h16.29.521,kallum_motion_pilot,2023.2.2,Win32,59.88023952,5bcd11401662020001fe82c1,65d2b6c8f2eece985d8e374c,65d2b97070519faf7d3f00e8,0.0352,0.0352,1,45,207,0,1,onetwo,,,,,,,,,,,,,,,,,,,,,,,,,,,,,,,,,,,,,,,,,,,,,,,,,,,,,,,,,,,,,,,,,,,,,,,,,,,,,,,,,,,,,,,,,,,,,,,,,,,,,,,,,,,,,,,,,,,,,,,,,,,,,,,,,,,,,,,,,
,,5bcd11401662020001fe82c1,2024-02-19_03h16.29.521,kallum_motion_pilot,2023.2.2,Win32,59.88023952,5bcd11401662020001fe82c1,65d2b6c8f2eece985d8e374c,65d2b97070519faf7d3f00e8,0.0353,0.0353,1,46,208,134,1,eightsix,,,,,,,,,,,,,,,,,,,,,,,,,,,,,,,,,,,,,,,,,,,,,,,,,,,,,,,,,,,,,,,,,,,,,,,,,,,,,,,,,,,,,,,,,,,,,,,,,,,,,,,,,,,,,,,,,,,,,,,,,,,,,,,,,,,,,,,,,
,,5bcd11401662020001fe82c1,2024-02-19_03h16.29.521,kallum_motion_pilot,2023.2.2,Win32,59.88023952,5bcd11401662020001fe82c1,65d2b6c8f2eece985d8e374c,65d2b97070519faf7d3f00e8,0.0354,0.0355,1,47,209,35,1,twofour,,,,,,,,,,,,,,,,,,,,,,,,,,,,,,,,,,,,,,,,,,,,,,,,,,,,,,,,,,,,,,,,,,,,,,,,,,,,,,,,,,,,,,,,,,,,,,,,,,,,,,,,,,,,,,,,,,,,,,,,,,,,,,,,,,,,,,,,,
,,5bcd11401662020001fe82c1,2024-02-19_03h16.29.521,kallum_motion_pilot,2023.2.2,Win32,59.88023952,5bcd11401662020001fe82c1,65d2b6c8f2eece985d8e374c,65d2b97070519faf7d3f00e8,0.0355,0.0355,1,48,210,63,1,fourthree,,,,,,,,,,,,,,,,,,,,,,,,,,,,,,,,,,,,,,,,,,,,,,,,,,,,,,,,,,,,,,,,,,,,,,,,,,,,,,,,,,,,,,,,,,,,,,,,,,,,,,,,,,,,,,,,,,,,,,,,,,,,,,,,,,,,,,,,,
,,5bcd11401662020001fe82c1,2024-02-19_03h16.29.521,kallum_motion_pilot,2023.2.2,Win32,59.88023952,5bcd11401662020001fe82c1,65d2b6c8f2eece985d8e374c,65d2b97070519faf7d3f00e8,0.0356,0.0356,1,49,211,161,1,fiveseven,,,,,,,,,,,,,,,,,,,,,,,,,,,,,,,,,,,,,,,,,,,,,,,,,,,,,,,,,,,,,,,,,,,,,,,,,,,,,,,,,,,,,,,,,,,,,,,,,,,,,,,,,,,,,,,,,,,,,,,,,,,,,,,,,,,,,,,,,
,,5bcd11401662020001fe82c1,2024-02-19_03h16.29.521,kallum_motion_pilot,2023.2.2,Win32,59.88023952,5bcd11401662020001fe82c1,65d2b6c8f2eece985d8e374c,65d2b97070519faf7d3f00e8,0.0357,0.0357,1,50,212,17,1,onethree,,,,,,,,,,,,,,,,,,,,,,,,,,,,,,,,,,,,,,,,,,,,,,,,,,,,,,,,,,,,,,,,,,,,,,,,,,,,,,,,,,,,,,,,,,,,,,,,,,,,,,,,,,,,,,,,,,,,,,,,,,,,,,,,,,,,,,,,,
,,5bcd11401662020001fe82c1,2024-02-19_03h16.29.521,kallum_motion_pilot,2023.2.2,Win32,59.88023952,5bcd11401662020001fe82c1,65d2b6c8f2eece985d8e374c,65d2b97070519faf7d3f00e8,0.0358,0.0358,1,51,213,42,1,twoone,,,,,,,,,,,,,,,,,,,,,,,,,,,,,,,,,,,,,,,,,,,,,,,,,,,,,,,,,,,,,,,,,,,,,,,,,,,,,,,,,,,,,,,,,,,,,,,,,,,,,,,,,,,,,,,,,,,,,,,,,,,,,,,,,,,,,,,,,
,,5bcd11401662020001fe82c1,2024-02-19_03h16.29.521,kallum_motion_pilot,2023.2.2,Win32,59.88023952,5bcd11401662020001fe82c1,65d2b6c8f2eece985d8e374c,65d2b97070519faf7d3f00e8,0.0359,0.0359,1,52,214,79,1,eightseven,,,,,,,,,,,,,,,,,,,,,,,,,,,,,,,,,,,,,,,,,,,,,,,,,,,,,,,,,,,,,,,,,,,,,,,,,,,,,,,,,,,,,,,,,,,,,,,,,,,,,,,,,,,,,,,,,,,,,,,,,,,,,,,,,,,,,,,,,
,,5bcd11401662020001fe82c1,2024-02-19_03h16.29.521,kallum_motion_pilot,2023.2.2,Win32,59.88023952,5bcd11401662020001fe82c1,65d2b6c8f2eece985d8e374c,65d2b97070519faf7d3f00e8,0.036,0.036,1,53,215,26,1,twoone,,,,,,,,,,,,,,,,,,,,,,,,,,,,,,,,,,,,,,,,,,,,,,,,,,,,,,,,,,,,,,,,,,,,,,,,,,,,,,,,,,,,,,,,,,,,,,,,,,,,,,,,,,,,,,,,,,,,,,,,,,,,,,,,,,,,,,,,,
,,5bcd11401662020001fe82c1,2024-02-19_03h16.29.521,kallum_motion_pilot,2023.2.2,Win32,59.88023952,5bcd11401662020001fe82c1,65d2b6c8f2eece985d8e374c,65d2b97070519faf7d3f00e8,0.0361,0.0362,1,54,216,141,1,seveneight,,,,,,,,,,,,,,,,,,,,,,,,,,,,,,,,,,,,,,,,,,,,,,,,,,,,,,,,,,,,,,,,,,,,,,,,,,,,,,,,,,,,,,,,,,,,,,,,,,,,,,,,,,,,,,,,,,,,,,,,,,,,,,,,,,,,,,,,,
,,5bcd11401662020001fe82c1,2024-02-19_03h16.29.521,kallum_motion_pilot,2023.2.2,Win32,59.88023952,5bcd11401662020001fe82c1,65d2b6c8f2eece985d8e374c,65d2b97070519faf7d3f00e8,0.0362,0.0362,1,55,217,101,1,seveneight,,,,,,,,,,,,,,,,,,,,,,,,,,,,,,,,,,,,,,,,,,,,,,,,,,,,,,,,,,,,,,,,,,,,,,,,,,,,,,,,,,,,,,,,,,,,,,,,,,,,,,,,,,,,,,,,,,,,,,,,,,,,,,,,,,,,,,,,,
,,5bcd11401662020001fe82c1,2024-02-19_03h16.29.521,kallum_motion_pilot,2023.2.2,Win32,59.88023952,5bcd11401662020001fe82c1,65d2b6c8f2eece985d8e374c,65d2b97070519faf7d3f00e8,0.0363,0.0363,1,56,218,111,1,eightseven,,,,,,,,,,,,,,,,,,,,,,,,,,,,,,,,,,,,,,,,,,,,,,,,,,,,,,,,,,,,,,,,,,,,,,,,,,,,,,,,,,,,,,,,,,,,,,,,,,,,,,,,,,,,,,,,,,,,,,,,,,,,,,,,,,,,,,,,,
,,5bcd11401662020001fe82c1,2024-02-19_03h16.29.521,kallum_motion_pilot,2023.2.2,Win32,59.88023952,5bcd11401662020001fe82c1,65d2b6c8f2eece985d8e374c,65d2b97070519faf7d3f00e8,0.0364,0.0364,1,57,219,30,1,fourtwo,,,,,,,,,,,,,,,,,,,,,,,,,,,,,,,,,,,,,,,,,,,,,,,,,,,,,,,,,,,,,,,,,,,,,,,,,,,,,,,,,,,,,,,,,,,,,,,,,,,,,,,,,,,,,,,,,,,,,,,,,,,,,,,,,,,,,,,,,
,,5bcd11401662020001fe82c1,2024-02-19_03h16.29.521,kallum_motion_pilot,2023.2.2,Win32,59.88023952,5bcd11401662020001fe82c1,65d2b6c8f2eece985d8e374c,65d2b97070519faf7d3f00e8,0.0366,0.0366,1,58,220,55,1,fourthree,,,,,,,,,,,,,,,,,,,,,,,,,,,,,,,,,,,,,,,,,,,,,,,,,,,,,,,,,,,,,,,,,,,,,,,,,,,,,,,,,,,,,,,,,,,,,,,,,,,,,,,,,,,,,,,,,,,,,,,,,,,,,,,,,,,,,,,,,
,,5bcd11401662020001fe82c1,2024-02-19_03h16.29.521,kallum_motion_pilot,2023.2.2,Win32,59.88023952,5bcd11401662020001fe82c1,65d2b6c8f2eece985d8e374c,65d2b97070519faf7d3f00e8,0.0368,0.0368,1,59,221,14,1,fourtwo,,,,,,,,,,,,,,,,,,,,,,,,,,,,,,,,,,,,,,,,,,,,,,,,,,,,,,,,,,,,,,,,,,,,,,,,,,,,,,,,,,,,,,,,,,,,,,,,,,,,,,,,,,,,,,,,,,,,,,,,,,,,,,,,,,,,,,,,,
,,5bcd11401662020001fe82c1,2024-02-19_03h16.29.521,kallum_motion_pilot,2023.2.2,Win32,59.88023952,5bcd11401662020001fe82c1,65d2b6c8f2eece985d8e374c,65d2b97070519faf7d3f00e8,0.0369,0.0369,1,60,222,47,1,fourthree,,,,,,,,,,,,,,,,,,,,,,,,,,,,,,,,,,,,,,,,,,,,,,,,,,,,,,,,,,,,,,,,,,,,,,,,,,,,,,,,,,,,,,,,,,,,,,,,,,,,,,,,,,,,,,,,,,,,,,,,,,,,,,,,,,,,,,,,,
,,5bcd11401662020001fe82c1,2024-02-19_03h16.29.521,kallum_motion_pilot,2023.2.2,Win32,59.88023952,5bcd11401662020001fe82c1,65d2b6c8f2eece985d8e374c,65d2b97070519faf7d3f00e8,0.037,0.0371,1,61,223,82,1,sixfive,,,,,,,,,,,,,,,,,,,,,,,,,,,,,,,,,,,,,,,,,,,,,,,,,,,,,,,,,,,,,,,,,,,,,,,,,,,,,,,,,,,,,,,,,,,,,,,,,,,,,,,,,,,,,,,,,,,,,,,,,,,,,,,,,,,,,,,,,
,,5bcd11401662020001fe82c1,2024-02-19_03h16.29.521,kallum_motion_pilot,2023.2.2,Win32,59.88023952,5bcd11401662020001fe82c1,65d2b6c8f2eece985d8e374c,65d2b97070519faf7d3f00e8,0.0371,0.0372,1,62,224,78,1,fourtwo,,,,,,,,,,,,,,,,,,,,,,,,,,,,,,,,,,,,,,,,,,,,,,,,,,,,,,,,,,,,,,,,,,,,,,,,,,,,,,,,,,,,,,,,,,,,,,,,,,,,,,,,,,,,,,,,,,,,,,,,,,,,,,,,,,,,,,,,,
,,5bcd11401662020001fe82c1,2024-02-19_03h16.29.521,kallum_motion_pilot,2023.2.2,Win32,59.88023952,5bcd11401662020001fe82c1,65d2b6c8f2eece985d8e374c,65d2b97070519faf7d3f00e8,0.0372,0.0373,1,63,225,53,1,threefour,,,,,,,,,,,,,,,,,,,,,,,,,,,,,,,,,,,,,,,,,,,,,,,,,,,,,,,,,,,,,,,,,,,,,,,,,,,,,,,,,,,,,,,,,,,,,,,,,,,,,,,,,,,,,,,,,,,,,,,,,,,,,,,,,,,,,,,,,
,,5bcd11401662020001fe82c1,2024-02-19_03h16.29.521,kallum_motion_pilot,2023.2.2,Win32,59.88023952,5bcd11401662020001fe82c1,65d2b6c8f2eece985d8e374c,65d2b97070519faf7d3f00e8,0.0373,0.0374,1,64,226,120,1,fivesix,,,,,,,,,,,,,,,,,,,,,,,,,,,,,,,,,,,,,,,,,,,,,,,,,,,,,,,,,,,,,,,,,,,,,,,,,,,,,,,,,,,,,,,,,,,,,,,,,,,,,,,,,,,,,,,,,,,,,,,,,,,,,,,,,,,,,,,,,
,,5bcd11401662020001fe82c1,2024-02-19_03h16.29.521,kallum_motion_pilot,2023.2.2,Win32,59.88023952,5bcd11401662020001fe82c1,65d2b6c8f2eece985d8e374c,65d2b97070519faf7d3f00e8,0.0374,0.0374,1,65,227,116,1,sevenfive,,,,,,,,,,,,,,,,,,,,,,,,,,,,,,,,,,,,,,,,,,,,,,,,,,,,,,,,,,,,,,,,,,,,,,,,,,,,,,,,,,,,,,,,,,,,,,,,,,,,,,,,,,,,,,,,,,,,,,,,,,,,,,,,,,,,,,,,,
,,5bcd11401662020001fe82c1,2024-02-19_03h16.29.521,kallum_motion_pilot,2023.2.2,Win32,59.88023952,5bcd11401662020001fe82c1,65d2b6c8f2eece985d8e374c,65d2b97070519faf7d3f00e8,0.0375,0.0376,1,66,228,74,1,twoone,,,,,,,,,,,,,,,,,,,,,,,,,,,,,,,,,,,,,,,,,,,,,,,,,,,,,,,,,,,,,,,,,,,,,,,,,,,,,,,,,,,,,,,,,,,,,,,,,,,,,,,,,,,,,,,,,,,,,,,,,,,,,,,,,,,,,,,,,
,,5bcd11401662020001fe82c1,2024-02-19_03h16.29.521,kallum_motion_pilot,2023.2.2,Win32,59.88023952,5bcd11401662020001fe82c1,65d2b6c8f2eece985d8e374c,65d2b97070519faf7d3f00e8,0.0376,0.0377,1,67,229,115,1,sixeight,,,,,,,,,,,,,,,,,,,,,,,,,,,,,,,,,,,,,,,,,,,,,,,,,,,,,,,,,,,,,,,,,,,,,,,,,,,,,,,,,,,,,,,,,,,,,,,,,,,,,,,,,,,,,,,,,,,,,,,,,,,,,,,,,,,,,,,,,
,,5bcd11401662020001fe82c1,2024-02-19_03h16.29.521,kallum_motion_pilot,2023.2.2,Win32,59.88023952,5bcd11401662020001fe82c1,65d2b6c8f2eece985d8e374c,65d2b97070519faf7d3f00e8,0.0377,0.0378,1,68,230,109,1,seveneight,,,,,,,,,,,,,,,,,,,,,,,,,,,,,,,,,,,,,,,,,,,,,,,,,,,,,,,,,,,,,,,,,,,,,,,,,,,,,,,,,,,,,,,,,,,,,,,,,,,,,,,,,,,,,,,,,,,,,,,,,,,,,,,,,,,,,,,,,
,,5bcd11401662020001fe82c1,2024-02-19_03h16.29.521,kallum_motion_pilot,2023.2.2,Win32,59.88023952,5bcd11401662020001fe82c1,65d2b6c8f2eece985d8e374c,65d2b97070519faf7d3f00e8,0.0379,0.0379,1,69,231,142,1,eightsix,,,,,,,,,,,,,,,,,,,,,,,,,,,,,,,,,,,,,,,,,,,,,,,,,,,,,,,,,,,,,,,,,,,,,,,,,,,,,,,,,,,,,,,,,,,,,,,,,,,,,,,,,,,,,,,,,,,,,,,,,,,,,,,,,,,,,,,,,
,,5bcd11401662020001fe82c1,2024-02-19_03h16.29.521,kallum_motion_pilot,2023.2.2,Win32,59.88023952,5bcd11401662020001fe82c1,65d2b6c8f2eece985d8e374c,65d2b97070519faf7d3f00e8,0.0379,0.0379,1,70,232,64,1,onetwo,,,,,,,,,,,,,,,,,,,,,,,,,,,,,,,,,,,,,,,,,,,,,,,,,,,,,,,,,,,,,,,,,,,,,,,,,,,,,,,,,,,,,,,,,,,,,,,,,,,,,,,,,,,,,,,,,,,,,,,,,,,,,,,,,,,,,,,,,
,,5bcd11401662020001fe82c1,2024-02-19_03h16.29.521,kallum_motion_pilot,2023.2.2,Win32,59.88023952,5bcd11401662020001fe82c1,65d2b6c8f2eece985d8e374c,65d2b97070519faf7d3f00e8,0.038,0.0381,1,71,233,157,1,seveneight,,,,,,,,,,,,,,,,,,,,,,,,,,,,,,,,,,,,,,,,,,,,,,,,,,,,,,,,,,,,,,,,,,,,,,,,,,,,,,,,,,,,,,,,,,,,,,,,,,,,,,,,,,,,,,,,,,,,,,,,,,,,,,,,,,,,,,,,,
,,5bcd11401662020001fe82c1,2024-02-19_03h16.29.521,kallum_motion_pilot,2023.2.2,Win32,59.88023952,5bcd11401662020001fe82c1,65d2b6c8f2eece985d8e374c,65d2b97070519faf7d3f00e8,0.0381,0.0381,1,72,234,8,1,onetwo,,,,,,,,,,,,,,,,,,,,,,,,,,,,,,,,,,,,,,,,,,,,,,,,,,,,,,,,,,,,,,,,,,,,,,,,,,,,,,,,,,,,,,,,,,,,,,,,,,,,,,,,,,,,,,,,,,,,,,,,,,,,,,,,,,,,,,,,,
,,5bcd11401662020001fe82c1,2024-02-19_03h16.29.521,kallum_motion_pilot,2023.2.2,Win32,59.88023952,5bcd11401662020001fe82c1,65d2b6c8f2eece985d8e374c,65d2b97070519faf7d3f00e8,0.0383,0.0383,1,73,235,10,1,twoone,,,,,,,,,,,,,,,,,,,,,,,,,,,,,,,,,,,,,,,,,,,,,,,,,,,,,,,,,,,,,,,,,,,,,,,,,,,,,,,,,,,,,,,,,,,,,,,,,,,,,,,,,,,,,,,,,,,,,,,,,,,,,,,,,,,,,,,,,
,,5bcd11401662020001fe82c1,2024-02-19_03h16.29.521,kallum_motion_pilot,2023.2.2,Win32,59.88023952,5bcd11401662020001fe82c1,65d2b6c8f2eece985d8e374c,65d2b97070519faf7d3f00e8,0.0383,0.0384,1,74,236,143,1,eightseven,,,,,,,,,,,,,,,,,,,,,,,,,,,,,,,,,,,,,,,,,,,,,,,,,,,,,,,,,,,,,,,,,,,,,,,,,,,,,,,,,,,,,,,,,,,,,,,,,,,,,,,,,,,,,,,,,,,,,,,,,,,,,,,,,,,,,,,,,
,,5bcd11401662020001fe82c1,2024-02-19_03h16.29.521,kallum_motion_pilot,2023.2.2,Win32,59.88023952,5bcd11401662020001fe82c1,65d2b6c8f2eece985d8e374c,65d2b97070519faf7d3f00e8,0.0384,0.0385,1,75,237,149,1,seveneight,,,,,,,,,,,,,,,,,,,,,,,,,,,,,,,,,,,,,,,,,,,,,,,,,,,,,,,,,,,,,,,,,,,,,,,,,,,,,,,,,,,,,,,,,,,,,,,,,,,,,,,,,,,,,,,,,,,,,,,,,,,,,,,,,,,,,,,,,
,,5bcd11401662020001fe82c1,2024-02-19_03h16.29.521,kallum_motion_pilot,2023.2.2,Win32,59.88023952,5bcd11401662020001fe82c1,65d2b6c8f2eece985d8e374c,65d2b97070519faf7d3f00e8,0.0386,0.0386,1,76,238,91,1,sixeight,,,,,,,,,,,,,,,,,,,,,,,,,,,,,,,,,,,,,,,,,,,,,,,,,,,,,,,,,,,,,,,,,,,,,,,,,,,,,,,,,,,,,,,,,,,,,,,,,,,,,,,,,,,,,,,,,,,,,,,,,,,,,,,,,,,,,,,,,
,,5bcd11401662020001fe82c1,2024-02-19_03h16.29.521,kallum_motion_pilot,2023.2.2,Win32,59.88023952,5bcd11401662020001fe82c1,65d2b6c8f2eece985d8e374c,65d2b97070519faf7d3f00e8,0.0386,0.0387,1,77,239,138,1,sixfive,,,,,,,,,,,,,,,,,,,,,,,,,,,,,,,,,,,,,,,,,,,,,,,,,,,,,,,,,,,,,,,,,,,,,,,,,,,,,,,,,,,,,,,,,,,,,,,,,,,,,,,,,,,,,,,,,,,,,,,,,,,,,,,,,,,,,,,,,
,,5bcd11401662020001fe82c1,2024-02-19_03h16.29.521,kallum_motion_pilot,2023.2.2,Win32,59.88023952,5bcd11401662020001fe82c1,65d2b6c8f2eece985d8e374c,65d2b97070519faf7d3f00e8,0.0388,0.0388,1,78,240,73,1,onethree,,,,,,,,,,,,,,,,,,,,,,,,,,,,,,,,,,,,,,,,,,,,,,,,,,,,,,,,,,,,,,,,,,,,,,,,,,,,,,,,,,,,,,,,,,,,,,,,,,,,,,,,,,,,,,,,,,,,,,,,,,,,,,,,,,,,,,,,,
,,5bcd11401662020001fe82c1,2024-02-19_03h16.29.521,kallum_motion_pilot,2023.2.2,Win32,59.88023952,5bcd11401662020001fe82c1,65d2b6c8f2eece985d8e374c,65d2b97070519faf7d3f00e8,0.0389,0.0389,1,79,241,49,1,onethree,,,,,,,,,,,,,,,,,,,,,,,,,,,,,,,,,,,,,,,,,,,,,,,,,,,,,,,,,,,,,,,,,,,,,,,,,,,,,,,,,,,,,,,,,,,,,,,,,,,,,,,,,,,,,,,,,,,,,,,,,,,,,,,,,,,,,,,,,
,,5bcd11401662020001fe82c1,2024-02-19_03h16.29.521,kallum_motion_pilot,2023.2.2,Win32,59.88023952,5bcd11401662020001fe82c1,65d2b6c8f2eece985d8e374c,65d2b97070519faf7d3f00e8,0.039,0.039,1,80,242,48,1,onetwo,,,,,,,,,,,,,,,,,,,,,,,,,,,,,,,,,,,,,,,,,,,,,,,,,,,,,,,,,,,,,,,,,,,,,,,,,,,,,,,,,,,,,,,,,,,,,,,,,,,,,,,,,,,,,,,,,,,,,,,,,,,,,,,,,,,,,,,,,
,,5bcd11401662020001fe82c1,2024-02-19_03h16.29.521,kallum_motion_pilot,2023.2.2,Win32,59.88023952,5bcd11401662020001fe82c1,65d2b6c8f2eece985d8e374c,65d2b97070519faf7d3f00e8,0.039,0.0391,1,81,243,58,1,twoone,,,,,,,,,,,,,,,,,,,,,,,,,,,,,,,,,,,,,,,,,,,,,,,,,,,,,,,,,,,,,,,,,,,,,,,,,,,,,,,,,,,,,,,,,,,,,,,,,,,,,,,,,,,,,,,,,,,,,,,,,,,,,,,,,,,,,,,,,
,,5bcd11401662020001fe82c1,2024-02-19_03h16.29.521,kallum_motion_pilot,2023.2.2,Win32,59.88023952,5bcd11401662020001fe82c1,65d2b6c8f2eece985d8e374c,65d2b97070519faf7d3f00e8,0.0392,0.0392,1,82,244,80,1,fivesix,,,,,,,,,,,,,,,,,,,,,,,,,,,,,,,,,,,,,,,,,,,,,,,,,,,,,,,,,,,,,,,,,,,,,,,,,,,,,,,,,,,,,,,,,,,,,,,,,,,,,,,,,,,,,,,,,,,,,,,,,,,,,,,,,,,,,,,,,
,,5bcd11401662020001fe82c1,2024-02-19_03h16.29.521,kallum_motion_pilot,2023.2.2,Win32,59.88023952,5bcd11401662020001fe82c1,65d2b6c8f2eece985d8e374c,65d2b97070519faf7d3f00e8,0.0393,0.0393,1,83,245,95,1,eightseven,,,,,,,,,,,,,,,,,,,,,,,,,,,,,,,,,,,,,,,,,,,,,,,,,,,,,,,,,,,,,,,,,,,,,,,,,,,,,,,,,,,,,,,,,,,,,,,,,,,,,,,,,,,,,,,,,,,,,,,,,,,,,,,,,,,,,,,,,
,,5bcd11401662020001fe82c1,2024-02-19_03h16.29.521,kallum_motion_pilot,2023.2.2,Win32,59.88023952,5bcd11401662020001fe82c1,65d2b6c8f2eece985d8e374c,65d2b97070519faf7d3f00e8,0.0393,0.0394,1,84,246,34,1,twoone,,,,,,,,,,,,,,,,,,,,,,,,,,,,,,,,,,,,,,,,,,,,,,,,,,,,,,,,,,,,,,,,,,,,,,,,,,,,,,,,,,,,,,,,,,,,,,,,,,,,,,,,,,,,,,,,,,,,,,,,,,,,,,,,,,,,,,,,,
,,5bcd11401662020001fe82c1,2024-02-19_03h16.29.521,kallum_motion_pilot,2023.2.2,Win32,59.88023952,5bcd11401662020001fe82c1,65d2b6c8f2eece985d8e374c,65d2b97070519faf7d3f00e8,0.0399,0.0399,1,85,247,98,1,sixfive,,,,,,,,,,,,,,,,,,,,,,,,,,,,,,,,,,,,,,,,,,,,,,,,,,,,,,,,,,,,,,,,,,,,,,,,,,,,,,,,,,,,,,,,,,,,,,,,,,,,,,,,,,,,,,,,,,,,,,,,,,,,,,,,,,,,,,,,,
,,5bcd11401662020001fe82c1,2024-02-19_03h16.29.521,kallum_motion_pilot,2023.2.2,Win32,59.88023952,5bcd11401662020001fe82c1,65d2b6c8f2eece985d8e374c,65d2b97070519faf7d3f00e8,0.0399,0.04,1,86,248,86,1,eightsix,,,,,,,,,,,,,,,,,,,,,,,,,,,,,,,,,,,,,,,,,,,,,,,,,,,,,,,,,,,,,,,,,,,,,,,,,,,,,,,,,,,,,,,,,,,,,,,,,,,,,,,,,,,,,,,,,,,,,,,,,,,,,,,,,,,,,,,,,
,,5bcd11401662020001fe82c1,2024-02-19_03h16.29.521,kallum_motion_pilot,2023.2.2,Win32,59.88023952,5bcd11401662020001fe82c1,65d2b6c8f2eece985d8e374c,65d2b97070519faf7d3f00e8,0.0401,0.0401,1,87,249,39,1,fourthree,,,,,,,,,,,,,,,,,,,,,,,,,,,,,,,,,,,,,,,,,,,,,,,,,,,,,,,,,,,,,,,,,,,,,,,,,,,,,,,,,,,,,,,,,,,,,,,,,,,,,,,,,,,,,,,,,,,,,,,,,,,,,,,,,,,,,,,,,
,,5bcd11401662020001fe82c1,2024-02-19_03h16.29.521,kallum_motion_pilot,2023.2.2,Win32,59.88023952,5bcd11401662020001fe82c1,65d2b6c8f2eece985d8e374c,65d2b97070519faf7d3f00e8,0.0401,0.0402,1,88,250,118,1,eightsix,,,,,,,,,,,,,,,,,,,,,,,,,,,,,,,,,,,,,,,,,,,,,,,,,,,,,,,,,,,,,,,,,,,,,,,,,,,,,,,,,,,,,,,,,,,,,,,,,,,,,,,,,,,,,,,,,,,,,,,,,,,,,,,,,,,,,,,,,
,,5bcd11401662020001fe82c1,2024-02-19_03h16.29.521,kallum_motion_pilot,2023.2.2,Win32,59.88023952,5bcd11401662020001fe82c1,65d2b6c8f2eece985d8e374c,65d2b97070519faf7d3f00e8,0.0403,0.0403,1,89,251,77,1,threefour,,,,,,,,,,,,,,,,,,,,,,,,,,,,,,,,,,,,,,,,,,,,,,,,,,,,,,,,,,,,,,,,,,,,,,,,,,,,,,,,,,,,,,,,,,,,,,,,,,,,,,,,,,,,,,,,,,,,,,,,,,,,,,,,,,,,,,,,,
,,5bcd11401662020001fe82c1,2024-02-19_03h16.29.521,kallum_motion_pilot,2023.2.2,Win32,59.88023952,5bcd11401662020001fe82c1,65d2b6c8f2eece985d8e374c,65d2b97070519faf7d3f00e8,0.0404,0.0404,1,90,252,88,1,fivesix,,,,,,,,,,,,,,,,,,,,,,,,,,,,,,,,,,,,,,,,,,,,,,,,,,,,,,,,,,,,,,,,,,,,,,,,,,,,,,,,,,,,,,,,,,,,,,,,,,,,,,,,,,,,,,,,,,,,,,,,,,,,,,,,,,,,,,,,,
,,5bcd11401662020001fe82c1,2024-02-19_03h16.29.521,kallum_motion_pilot,2023.2.2,Win32,59.88023952,5bcd11401662020001fe82c1,65d2b6c8f2eece985d8e374c,65d2b97070519faf7d3f00e8,0.0404,0.0405,1,91,253,60,1,threeone,,,,,,,,,,,,,,,,,,,,,,,,,,,,,,,,,,,,,,,,,,,,,,,,,,,,,,,,,,,,,,,,,,,,,,,,,,,,,,,,,,,,,,,,,,,,,,,,,,,,,,,,,,,,,,,,,,,,,,,,,,,,,,,,,,,,,,,,,
,,5bcd11401662020001fe82c1,2024-02-19_03h16.29.521,kallum_motion_pilot,2023.2.2,Win32,59.88023952,5bcd11401662020001fe82c1,65d2b6c8f2eece985d8e374c,65d2b97070519faf7d3f00e8,0.0406,0.0406,1,92,254,123,1,sixeight,,,,,,,,,,,,,,,,,,,,,,,,,,,,,,,,,,,,,,,,,,,,,,,,,,,,,,,,,,,,,,,,,,,,,,,,,,,,,,,,,,,,,,,,,,,,,,,,,,,,,,,,,,,,,,,,,,,,,,,,,,,,,,,,,,,,,,,,,
,,5bcd11401662020001fe82c1,2024-02-19_03h16.29.521,kallum_motion_pilot,2023.2.2,Win32,59.88023952,5bcd11401662020001fe82c1,65d2b6c8f2eece985d8e374c,65d2b97070519faf7d3f00e8,0.0406,0.0408,1,93,255,81,1,fiveseven,,,,,,,,,,,,,,,,,,,,,,,,,,,,,,,,,,,,,,,,,,,,,,,,,,,,,,,,,,,,,,,,,,,,,,,,,,,,,,,,,,,,,,,,,,,,,,,,,,,,,,,,,,,,,,,,,,,,,,,,,,,,,,,,,,,,,,,,,
,,5bcd11401662020001fe82c1,2024-02-19_03h16.29.521,kallum_motion_pilot,2023.2.2,Win32,59.88023952,5bcd11401662020001fe82c1,65d2b6c8f2eece985d8e374c,65d2b97070519faf7d3f00e8,0.0408,0.0408,1,94,256,150,1,eightsix,,,,,,,,,,,,,,,,,,,,,,,,,,,,,,,,,,,,,,,,,,,,,,,,,,,,,,,,,,,,,,,,,,,,,,,,,,,,,,,,,,,,,,,,,,,,,,,,,,,,,,,,,,,,,,,,,,,,,,,,,,,,,,,,,,,,,,,,,
,,5bcd11401662020001fe82c1,2024-02-19_03h16.29.521,kallum_motion_pilot,2023.2.2,Win32,59.88023952,5bcd11401662020001fe82c1,65d2b6c8f2eece985d8e374c,65d2b97070519faf7d3f00e8,0.0408,0.041,1,95,257,97,1,fiveseven,,,,,,,,,,,,,,,,,,,,,,,,,,,,,,,,,,,,,,,,,,,,,,,,,,,,,,,,,,,,,,,,,,,,,,,,,,,,,,,,,,,,,,,,,,,,,,,,,,,,,,,,,,,,,,,,,,,,,,,,,,,,,,,,,,,,,,,,,
,,5bcd11401662020001fe82c1,2024-02-19_03h16.29.521,kallum_motion_pilot,2023.2.2,Win32,59.88023952,5bcd11401662020001fe82c1,65d2b6c8f2eece985d8e374c,65d2b97070519faf7d3f00e8,0.041,0.041,1,96,258,144,1,fivesix,,,,,,,,,,,,,,,,,,,,,,,,,,,,,,,,,,,,,,,,,,,,,,,,,,,,,,,,,,,,,,,,,,,,,,,,,,,,,,,,,,,,,,,,,,,,,,,,,,,,,,,,,,,,,,,,,,,,,,,,,,,,,,,,,,,,,,,,,
,,5bcd11401662020001fe82c1,2024-02-19_03h16.29.521,kallum_motion_pilot,2023.2.2,Win32,59.88023952,5bcd11401662020001fe82c1,65d2b6c8f2eece985d8e374c,65d2b97070519faf7d3f00e8,0.0411,0.0412,1,97,259,112,1,fivesix,,,,,,,,,,,,,,,,,,,,,,,,,,,,,,,,,,,,,,,,,,,,,,,,,,,,,,,,,,,,,,,,,,,,,,,,,,,,,,,,,,,,,,,,,,,,,,,,,,,,,,,,,,,,,,,,,,,,,,,,,,,,,,,,,,,,,,,,,
,,5bcd11401662020001fe82c1,2024-02-19_03h16.29.521,kallum_motion_pilot,2023.2.2,Win32,59.88023952,5bcd11401662020001fe82c1,65d2b6c8f2eece985d8e374c,65d2b97070519faf7d3f00e8,0.0412,0.0412,1,98,260,139,1,sixeight,,,,,,,,,,,,,,,,,,,,,,,,,,,,,,,,,,,,,,,,,,,,,,,,,,,,,,,,,,,,,,,,,,,,,,,,,,,,,,,,,,,,,,,,,,,,,,,,,,,,,,,,,,,,,,,,,,,,,,,,,,,,,,,,,,,,,,,,,
,,5bcd11401662020001fe82c1,2024-02-19_03h16.29.521,kallum_motion_pilot,2023.2.2,Win32,59.88023952,5bcd11401662020001fe82c1,65d2b6c8f2eece985d8e374c,65d2b97070519faf7d3f00e8,0.0413,0.0413,1,99,261,71,1,fourthree,,,,,,,,,,,,,,,,,,,,,,,,,,,,,,,,,,,,,,,,,,,,,,,,,,,,,,,,,,,,,,,,,,,,,,,,,,,,,,,,,,,,,,,,,,,,,,,,,,,,,,,,,,,,,,,,,,,,,,,,,,,,,,,,,,,,,,,,,
,,5bcd11401662020001fe82c1,2024-02-19_03h16.29.521,kallum_motion_pilot,2023.2.2,Win32,59.88023952,5bcd11401662020001fe82c1,65d2b6c8f2eece985d8e374c,65d2b97070519faf7d3f00e8,0.0414,0.0415,1,100,262,50,1,twoone,,,,,,,,,,,,,,,,,,,,,,,,,,,,,,,,,,,,,,,,,,,,,,,,,,,,,,,,,,,,,,,,,,,,,,,,,,,,,,,,,,,,,,,,,,,,,,,,,,,,,,,,,,,,,,,,,,,,,,,,,,,,,,,,,,,,,,,,,
,,5bcd11401662020001fe82c1,2024-02-19_03h16.29.521,kallum_motion_pilot,2023.2.2,Win32,59.88023952,5bcd11401662020001fe82c1,65d2b6c8f2eece985d8e374c,65d2b97070519faf7d3f00e8,0.0415,0.0415,1,101,263,43,1,twofour,,,,,,,,,,,,,,,,,,,,,,,,,,,,,,,,,,,,,,,,,,,,,,,,,,,,,,,,,,,,,,,,,,,,,,,,,,,,,,,,,,,,,,,,,,,,,,,,,,,,,,,,,,,,,,,,,,,,,,,,,,,,,,,,,,,,,,,,,
,,5bcd11401662020001fe82c1,2024-02-19_03h16.29.521,kallum_motion_pilot,2023.2.2,Win32,59.88023952,5bcd11401662020001fe82c1,65d2b6c8f2eece985d8e374c,65d2b97070519faf7d3f00e8,0.0416,0.0416,1,102,264,133,1,seveneight,,,,,,,,,,,,,,,,,,,,,,,,,,,,,,,,,,,,,,,,,,,,,,,,,,,,,,,,,,,,,,,,,,,,,,,,,,,,,,,,,,,,,,,,,,,,,,,,,,,,,,,,,,,,,,,,,,,,,,,,,,,,,,,,,,,,,,,,,
,,5bcd11401662020001fe82c1,2024-02-19_03h16.29.521,kallum_motion_pilot,2023.2.2,Win32,59.88023952,5bcd11401662020001fe82c1,65d2b6c8f2eece985d8e374c,65d2b97070519faf7d3f00e8,0.0418,0.0419,1,103,265,16,1,onetwo,,,,,,,,,,,,,,,,,,,,,,,,,,,,,,,,,,,,,,,,,,,,,,,,,,,,,,,,,,,,,,,,,,,,,,,,,,,,,,,,,,,,,,,,,,,,,,,,,,,,,,,,,,,,,,,,,,,,,,,,,,,,,,,,,,,,,,,,,
,,5bcd11401662020001fe82c1,2024-02-19_03h16.29.521,kallum_motion_pilot,2023.2.2,Win32,59.88023952,5bcd11401662020001fe82c1,65d2b6c8f2eece985d8e374c,65d2b97070519faf7d3f00e8,0.0419,0.0419,1,104,266,100,1,sevenfive,,,,,,,,,,,,,,,,,,,,,,,,,,,,,,,,,,,,,,,,,,,,,,,,,,,,,,,,,,,,,,,,,,,,,,,,,,,,,,,,,,,,,,,,,,,,,,,,,,,,,,,,,,,,,,,,,,,,,,,,,,,,,,,,,,,,,,,,,
,,5bcd11401662020001fe82c1,2024-02-19_03h16.29.521,kallum_motion_pilot,2023.2.2,Win32,59.88023952,5bcd11401662020001fe82c1,65d2b6c8f2eece985d8e374c,65d2b97070519faf7d3f00e8,0.042,0.042,1,105,267,2,1,twoone,,,,,,,,,,,,,,,,,,,,,,,,,,,,,,,,,,,,,,,,,,,,,,,,,,,,,,,,,,,,,,,,,,,,,,,,,,,,,,,,,,,,,,,,,,,,,,,,,,,,,,,,,,,,,,,,,,,,,,,,,,,,,,,,,,,,,,,,,
,,5bcd11401662020001fe82c1,2024-02-19_03h16.29.521,kallum_motion_pilot,2023.2.2,Win32,59.88023952,5bcd11401662020001fe82c1,65d2b6c8f2eece985d8e374c,65d2b97070519faf7d3f00e8,0.042,0.0421,1,106,268,84,1,sevenfive,,,,,,,,,,,,,,,,,,,,,,,,,,,,,,,,,,,,,,,,,,,,,,,,,,,,,,,,,,,,,,,,,,,,,,,,,,,,,,,,,,,,,,,,,,,,,,,,,,,,,,,,,,,,,,,,,,,,,,,,,,,,,,,,,,,,,,,,,
,,5bcd11401662020001fe82c1,2024-02-19_03h16.29.521,kallum_motion_pilot,2023.2.2,Win32,59.88023952,5bcd11401662020001fe82c1,65d2b6c8f2eece985d8e374c,65d2b97070519faf7d3f00e8,0.0422,0.0422,1,107,269,52,1,threeone,,,,,,,,,,,,,,,,,,,,,,,,,,,,,,,,,,,,,,,,,,,,,,,,,,,,,,,,,,,,,,,,,,,,,,,,,,,,,,,,,,,,,,,,,,,,,,,,,,,,,,,,,,,,,,,,,,,,,,,,,,,,,,,,,,,,,,,,,
,,5bcd11401662020001fe82c1,2024-02-19_03h16.29.521,kallum_motion_pilot,2023.2.2,Win32,59.88023952,5bcd11401662020001fe82c1,65d2b6c8f2eece985d8e374c,65d2b97070519faf7d3f00e8,0.0423,0.0423,1,108,270,46,1,fourtwo,,,,,,,,,,,,,,,,,,,,,,,,,,,,,,,,,,,,,,,,,,,,,,,,,,,,,,,,,,,,,,,,,,,,,,,,,,,,,,,,,,,,,,,,,,,,,,,,,,,,,,,,,,,,,,,,,,,,,,,,,,,,,,,,,,,,,,,,,
,,5bcd11401662020001fe82c1,2024-02-19_03h16.29.521,kallum_motion_pilot,2023.2.2,Win32,59.88023952,5bcd11401662020001fe82c1,65d2b6c8f2eece985d8e374c,65d2b97070519faf7d3f00e8,0.0424,0.0424,1,109,271,102,1,eightsix,,,,,,,,,,,,,,,,,,,,,,,,,,,,,,,,,,,,,,,,,,,,,,,,,,,,,,,,,,,,,,,,,,,,,,,,,,,,,,,,,,,,,,,,,,,,,,,,,,,,,,,,,,,,,,,,,,,,,,,,,,,,,,,,,,,,,,,,,
,,5bcd11401662020001fe82c1,2024-02-19_03h16.29.521,kallum_motion_pilot,2023.2.2,Win32,59.88023952,5bcd11401662020001fe82c1,65d2b6c8f2eece985d8e374c,65d2b97070519faf7d3f00e8,0.0425,0.0425,1,110,272,151,1,eightseven,,,,,,,,,,,,,,,,,,,,,,,,,,,,,,,,,,,,,,,,,,,,,,,,,,,,,,,,,,,,,,,,,,,,,,,,,,,,,,,,,,,,,,,,,,,,,,,,,,,,,,,,,,,,,,,,,,,,,,,,,,,,,,,,,,,,,,,,,
,,5bcd11401662020001fe82c1,2024-02-19_03h16.29.521,kallum_motion_pilot,2023.2.2,Win32,59.88023952,5bcd11401662020001fe82c1,65d2b6c8f2eece985d8e374c,65d2b97070519faf7d3f00e8,0.0426,0.0426,1,111,273,31,1,fourthree,,,,,,,,,,,,,,,,,,,,,,,,,,,,,,,,,,,,,,,,,,,,,,,,,,,,,,,,,,,,,,,,,,,,,,,,,,,,,,,,,,,,,,,,,,,,,,,,,,,,,,,,,,,,,,,,,,,,,,,,,,,,,,,,,,,,,,,,,
,,5bcd11401662020001fe82c1,2024-02-19_03h16.29.521,kallum_motion_pilot,2023.2.2,Win32,59.88023952,5bcd11401662020001fe82c1,65d2b6c8f2eece985d8e374c,65d2b97070519faf7d3f00e8,0.0426,0.0427,1,112,274,13,1,threefour,,,,,,,,,,,,,,,,,,,,,,,,,,,,,,,,,,,,,,,,,,,,,,,,,,,,,,,,,,,,,,,,,,,,,,,,,,,,,,,,,,,,,,,,,,,,,,,,,,,,,,,,,,,,,,,,,,,,,,,,,,,,,,,,,,,,,,,,,
,,5bcd11401662020001fe82c1,2024-02-19_03h16.29.521,kallum_motion_pilot,2023.2.2,Win32,59.88023952,5bcd11401662020001fe82c1,65d2b6c8f2eece985d8e374c,65d2b97070519faf7d3f00e8,0.0428,0.0429,1,113,275,69,1,threefour,,,,,,,,,,,,,,,,,,,,,,,,,,,,,,,,,,,,,,,,,,,,,,,,,,,,,,,,,,,,,,,,,,,,,,,,,,,,,,,,,,,,,,,,,,,,,,,,,,,,,,,,,,,,,,,,,,,,,,,,,,,,,,,,,,,,,,,,,
,,5bcd11401662020001fe82c1,2024-02-19_03h16.29.521,kallum_motion_pilot,2023.2.2,Win32,59.88023952,5bcd11401662020001fe82c1,65d2b6c8f2eece985d8e374c,65d2b97070519faf7d3f00e8,0.0429,0.043,1,114,276,117,1,seveneight,,,,,,,,,,,,,,,,,,,,,,,,,,,,,,,,,,,,,,,,,,,,,,,,,,,,,,,,,,,,,,,,,,,,,,,,,,,,,,,,,,,,,,,,,,,,,,,,,,,,,,,,,,,,,,,,,,,,,,,,,,,,,,,,,,,,,,,,,
,,5bcd11401662020001fe82c1,2024-02-19_03h16.29.521,kallum_motion_pilot,2023.2.2,Win32,59.88023952,5bcd11401662020001fe82c1,65d2b6c8f2eece985d8e374c,65d2b97070519faf7d3f00e8,0.043,0.043,1,115,277,70,1,fourtwo,,,,,,,,,,,,,,,,,,,,,,,,,,,,,,,,,,,,,,,,,,,,,,,,,,,,,,,,,,,,,,,,,,,,,,,,,,,,,,,,,,,,,,,,,,,,,,,,,,,,,,,,,,,,,,,,,,,,,,,,,,,,,,,,,,,,,,,,,
