startup.started,startup.stopped,Prolific ID*,date,expName,psychopyVersion,OS,frameRate,participant,study_id,session,stimpositions.started,stimpositions.stopped,hardcoded_stimulus_positions.thisRepN,hardcoded_stimulus_positions.thisTrialN,hardcoded_stimulus_positions.thisN,hardcoded_stimulus_positions.thisIndex,hardcoded_stimulus_positions.ran,StimulusPos,stimorientation.started,stimorientation.stopped,prac_stimorientation_import_loop.thisRepN,prac_stimorientation_import_loop.thisTrialN,prac_stimorientation_import_loop.thisN,prac_stimorientation_import_loop.thisIndex,prac_stimorientation_import_loop.ran,Stimorientation,welcome_instr.started,welcome_instr.stopped,key_resp.keys,key_resp.rt,key_resp.duration,response_steppedout_1.started,response_steppedout_1.stopped,key_resp_20.keys,key_resp_20.rt,key_resp_20.duration,response_steppedout_2.started,response_steppedout_2.stopped,key_resp_19.keys,key_resp_19.rt,key_resp_19.duration,stim_response_instr.started,stim_response_instr.stopped,key_resp_15.keys,key_resp_15.rt,key_resp_15.duration,direction_instr_2.started,direction_instr_2.stopped,key_resp_9.keys,key_resp_9.rt,key_resp_9.duration,instr_prac.started,instr_prac.stopped,key_resp_10.keys,key_resp_10.rt,key_resp_10.duration,Stim1_display_prac.started,Stim1_display_prac.stopped,Ecc,Circle1_ori,Circle2_ori,response_prac.started,similarity,response_time,response_prac.stopped,mouse_5.x,mouse_5.y,mouse_5.leftButton,mouse_5.midButton,mouse_5.rightButton,mouse_5.clicked_name,responseprac_feedback.started,responseprac_feedback.stopped,summary2_prac.started,summary2_prac.stopped,mouse_6.x,mouse_6.y,mouse_6.leftButton,mouse_6.midButton,mouse_6.rightButton,mouse_6.clicked_name,duringprac.thisRepN,duringprac.thisTrialN,duringprac.thisN,duringprac.thisIndex,duringprac.ran,begin.started,begin.stopped,key_resp_22.keys,key_resp_22.rt,key_resp_22.duration,Stim1_display.started,Stim1_display.stopped,circle1_ori,circle2_ori,circle1_SF,circle2_SF,response.started,response.stopped,mouse.x,mouse.y,mouse.leftButton,mouse.midButton,mouse.rightButton,mouse.clicked_name,trialnumber,double_pass.thisRepN,double_pass.thisTrialN,double_pass.thisN,double_pass.thisIndex,double_pass.ran,double_pass.order,main_trial.thisRepN,main_trial.thisTrialN,main_trial.thisN,main_trial.thisIndex,main_trial.ran,main_trial.order,Trial_Counter,Catch,Frequencies,response_2.started,response_2.stopped,mouse_2.x,mouse_2.y,mouse_2.leftButton,mouse_2.midButton,mouse_2.rightButton,mouse_2.clicked_name,special_trial.started,special_trial.stopped,catch_1.started,catch_1.stopped,mouse_3.x,mouse_3.y,mouse_3.leftButton,mouse_3.midButton,mouse_3.rightButton,catchresponse,catchnumber,response_time_catch,response_sum.started,response_sum.stopped,mouse_11.x,mouse_11.y,mouse_11.leftButton,mouse_11.midButton,mouse_11.rightButton,flip_presentation_sequence_for_double_pass.started,flip_presentation_sequence_for_double_pass.stopped,goodbye.started,goodbye.stopped,key_resp_3.keys,key_resp_3.rt,key_resp_3.duration
0.0003,0.0004,5bdf91dbb32fa800012ea282,2024-02-18_21h45.35.221,kallum_motion_pilot,2023.2.2,Win32,59.88023952,5bdf91dbb32fa800012ea282,65d2b6c8f2eece985d8e374c,65d2cec1cf2bb0e35ac172c4,,,,,,,,,,,,,,,,,,,,,,,,,,,,,,,,,,,,,,,,,,,,,,,,,,,,,,,,,,,,,,,,,,,,,,,,,,,,,,,,,,,,,,,,,,,,,,,,,,,,,,,,,,,,,,,,,,,,,,,,,,,,,,,,,,,,,,,,,,,,,,,,,
,,5bdf91dbb32fa800012ea282,2024-02-18_21h45.35.221,kallum_motion_pilot,2023.2.2,Win32,59.88023952,5bdf91dbb32fa800012ea282,65d2b6c8f2eece985d8e374c,65d2cec1cf2bb0e35ac172c4,0.0159,0.016,0,0,0,96,1,fivesix,,,,,,,,,,,,,,,,,,,,,,,,,,,,,,,,,,,,,,,,,,,,,,,,,,,,,,,,,,,,,,,,,,,,,,,,,,,,,,,,,,,,,,,,,,,,,,,,,,,,,,,,,,,,,,,,,,,,,,,,,,,,,,,,,,,,,,,,,
,,5bdf91dbb32fa800012ea282,2024-02-18_21h45.35.221,kallum_motion_pilot,2023.2.2,Win32,59.88023952,5bdf91dbb32fa800012ea282,65d2b6c8f2eece985d8e374c,65d2cec1cf2bb0e35ac172c4,0.0162,0.0162,0,1,1,123,1,sixeight,,,,,,,,,,,,,,,,,,,,,,,,,,,,,,,,,,,,,,,,,,,,,,,,,,,,,,,,,,,,,,,,,,,,,,,,,,,,,,,,,,,,,,,,,,,,,,,,,,,,,,,,,,,,,,,,,,,,,,,,,,,,,,,,,,,,,,,,,
,,5bdf91dbb32fa800012ea282,2024-02-18_21h45.35.221,kallum_motion_pilot,2023.2.2,Win32,59.88023952,5bdf91dbb32fa800012ea282,65d2b6c8f2eece985d8e374c,65d2cec1cf2bb0e35ac172c4,0.0163,0.0163,0,2,2,98,1,sixfive,,,,,,,,,,,,,,,,,,,,,,,,,,,,,,,,,,,,,,,,,,,,,,,,,,,,,,,,,,,,,,,,,,,,,,,,,,,,,,,,,,,,,,,,,,,,,,,,,,,,,,,,,,,,,,,,,,,,,,,,,,,,,,,,,,,,,,,,,
,,5bdf91dbb32fa800012ea282,2024-02-18_21h45.35.221,kallum_motion_pilot,2023.2.2,Win32,59.88023952,5bdf91dbb32fa800012ea282,65d2b6c8f2eece985d8e374c,65d2cec1cf2bb0e35ac172c4,0.0164,0.0164,0,3,3,56,1,onetwo,,,,,,,,,,,,,,,,,,,,,,,,,,,,,,,,,,,,,,,,,,,,,,,,,,,,,,,,,,,,,,,,,,,,,,,,,,,,,,,,,,,,,,,,,,,,,,,,,,,,,,,,,,,,,,,,,,,,,,,,,,,,,,,,,,,,,,,,,
,,5bdf91dbb32fa800012ea282,2024-02-18_21h45.35.221,kallum_motion_pilot,2023.2.2,Win32,59.88023952,5bdf91dbb32fa800012ea282,65d2b6c8f2eece985d8e374c,65d2cec1cf2bb0e35ac172c4,0.0165,0.0165,0,4,4,28,1,threeone,,,,,,,,,,,,,,,,,,,,,,,,,,,,,,,,,,,,,,,,,,,,,,,,,,,,,,,,,,,,,,,,,,,,,,,,,,,,,,,,,,,,,,,,,,,,,,,,,,,,,,,,,,,,,,,,,,,,,,,,,,,,,,,,,,,,,,,,,
,,5bdf91dbb32fa800012ea282,2024-02-18_21h45.35.221,kallum_motion_pilot,2023.2.2,Win32,59.88023952,5bdf91dbb32fa800012ea282,65d2b6c8f2eece985d8e374c,65d2cec1cf2bb0e35ac172c4,0.0166,0.0166,0,5,5,48,1,onetwo,,,,,,,,,,,,,,,,,,,,,,,,,,,,,,,,,,,,,,,,,,,,,,,,,,,,,,,,,,,,,,,,,,,,,,,,,,,,,,,,,,,,,,,,,,,,,,,,,,,,,,,,,,,,,,,,,,,,,,,,,,,,,,,,,,,,,,,,,
,,5bdf91dbb32fa800012ea282,2024-02-18_21h45.35.221,kallum_motion_pilot,2023.2.2,Win32,59.88023952,5bdf91dbb32fa800012ea282,65d2b6c8f2eece985d8e374c,65d2cec1cf2bb0e35ac172c4,0.0166,0.0166,0,6,6,42,1,twoone,,,,,,,,,,,,,,,,,,,,,,,,,,,,,,,,,,,,,,,,,,,,,,,,,,,,,,,,,,,,,,,,,,,,,,,,,,,,,,,,,,,,,,,,,,,,,,,,,,,,,,,,,,,,,,,,,,,,,,,,,,,,,,,,,,,,,,,,,
,,5bdf91dbb32fa800012ea282,2024-02-18_21h45.35.221,kallum_motion_pilot,2023.2.2,Win32,59.88023952,5bdf91dbb32fa800012ea282,65d2b6c8f2eece985d8e374c,65d2cec1cf2bb0e35ac172c4,0.0167,0.0167,0,7,7,47,1,fourthree,,,,,,,,,,,,,,,,,,,,,,,,,,,,,,,,,,,,,,,,,,,,,,,,,,,,,,,,,,,,,,,,,,,,,,,,,,,,,,,,,,,,,,,,,,,,,,,,,,,,,,,,,,,,,,,,,,,,,,,,,,,,,,,,,,,,,,,,,
,,5bdf91dbb32fa800012ea282,2024-02-18_21h45.35.221,kallum_motion_pilot,2023.2.2,Win32,59.88023952,5bdf91dbb32fa800012ea282,65d2b6c8f2eece985d8e374c,65d2cec1cf2bb0e35ac172c4,0.0168,0.0168,0,8,8,6,1,fourtwo,,,,,,,,,,,,,,,,,,,,,,,,,,,,,,,,,,,,,,,,,,,,,,,,,,,,,,,,,,,,,,,,,,,,,,,,,,,,,,,,,,,,,,,,,,,,,,,,,,,,,,,,,,,,,,,,,,,,,,,,,,,,,,,,,,,,,,,,,
,,5bdf91dbb32fa800012ea282,2024-02-18_21h45.35.221,kallum_motion_pilot,2023.2.2,Win32,59.88023952,5bdf91dbb32fa800012ea282,65d2b6c8f2eece985d8e374c,65d2cec1cf2bb0e35ac172c4,0.0169,0.0169,0,9,9,157,1,seveneight,,,,,,,,,,,,,,,,,,,,,,,,,,,,,,,,,,,,,,,,,,,,,,,,,,,,,,,,,,,,,,,,,,,,,,,,,,,,,,,,,,,,,,,,,,,,,,,,,,,,,,,,,,,,,,,,,,,,,,,,,,,,,,,,,,,,,,,,,
,,5bdf91dbb32fa800012ea282,2024-02-18_21h45.35.221,kallum_motion_pilot,2023.2.2,Win32,59.88023952,5bdf91dbb32fa800012ea282,65d2b6c8f2eece985d8e374c,65d2cec1cf2bb0e35ac172c4,0.017,0.017,0,10,10,23,1,fourthree,,,,,,,,,,,,,,,,,,,,,,,,,,,,,,,,,,,,,,,,,,,,,,,,,,,,,,,,,,,,,,,,,,,,,,,,,,,,,,,,,,,,,,,,,,,,,,,,,,,,,,,,,,,,,,,,,,,,,,,,,,,,,,,,,,,,,,,,,
,,5bdf91dbb32fa800012ea282,2024-02-18_21h45.35.221,kallum_motion_pilot,2023.2.2,Win32,59.88023952,5bdf91dbb32fa800012ea282,65d2b6c8f2eece985d8e374c,65d2cec1cf2bb0e35ac172c4,0.0171,0.0171,0,11,11,138,1,sixfive,,,,,,,,,,,,,,,,,,,,,,,,,,,,,,,,,,,,,,,,,,,,,,,,,,,,,,,,,,,,,,,,,,,,,,,,,,,,,,,,,,,,,,,,,,,,,,,,,,,,,,,,,,,,,,,,,,,,,,,,,,,,,,,,,,,,,,,,,
,,5bdf91dbb32fa800012ea282,2024-02-18_21h45.35.221,kallum_motion_pilot,2023.2.2,Win32,59.88023952,5bdf91dbb32fa800012ea282,65d2b6c8f2eece985d8e374c,65d2cec1cf2bb0e35ac172c4,0.0171,0.0171,0,12,12,127,1,eightseven,,,,,,,,,,,,,,,,,,,,,,,,,,,,,,,,,,,,,,,,,,,,,,,,,,,,,,,,,,,,,,,,,,,,,,,,,,,,,,,,,,,,,,,,,,,,,,,,,,,,,,,,,,,,,,,,,,,,,,,,,,,,,,,,,,,,,,,,,
,,5bdf91dbb32fa800012ea282,2024-02-18_21h45.35.221,kallum_motion_pilot,2023.2.2,Win32,59.88023952,5bdf91dbb32fa800012ea282,65d2b6c8f2eece985d8e374c,65d2cec1cf2bb0e35ac172c4,0.0172,0.0172,0,13,13,69,1,threefour,,,,,,,,,,,,,,,,,,,,,,,,,,,,,,,,,,,,,,,,,,,,,,,,,,,,,,,,,,,,,,,,,,,,,,,,,,,,,,,,,,,,,,,,,,,,,,,,,,,,,,,,,,,,,,,,,,,,,,,,,,,,,,,,,,,,,,,,,
,,5bdf91dbb32fa800012ea282,2024-02-18_21h45.35.221,kallum_motion_pilot,2023.2.2,Win32,59.88023952,5bdf91dbb32fa800012ea282,65d2b6c8f2eece985d8e374c,65d2cec1cf2bb0e35ac172c4,0.0172,0.0172,0,14,14,84,1,sevenfive,,,,,,,,,,,,,,,,,,,,,,,,,,,,,,,,,,,,,,,,,,,,,,,,,,,,,,,,,,,,,,,,,,,,,,,,,,,,,,,,,,,,,,,,,,,,,,,,,,,,,,,,,,,,,,,,,,,,,,,,,,,,,,,,,,,,,,,,,
,,5bdf91dbb32fa800012ea282,2024-02-18_21h45.35.221,kallum_motion_pilot,2023.2.2,Win32,59.88023952,5bdf91dbb32fa800012ea282,65d2b6c8f2eece985d8e374c,65d2cec1cf2bb0e35ac172c4,0.0173,0.0173,0,15,15,59,1,twofour,,,,,,,,,,,,,,,,,,,,,,,,,,,,,,,,,,,,,,,,,,,,,,,,,,,,,,,,,,,,,,,,,,,,,,,,,,,,,,,,,,,,,,,,,,,,,,,,,,,,,,,,,,,,,,,,,,,,,,,,,,,,,,,,,,,,,,,,,
,,5bdf91dbb32fa800012ea282,2024-02-18_21h45.35.221,kallum_motion_pilot,2023.2.2,Win32,59.88023952,5bdf91dbb32fa800012ea282,65d2b6c8f2eece985d8e374c,65d2cec1cf2bb0e35ac172c4,0.0173,0.0173,0,16,16,160,1,fivesix,,,,,,,,,,,,,,,,,,,,,,,,,,,,,,,,,,,,,,,,,,,,,,,,,,,,,,,,,,,,,,,,,,,,,,,,,,,,,,,,,,,,,,,,,,,,,,,,,,,,,,,,,,,,,,,,,,,,,,,,,,,,,,,,,,,,,,,,,
,,5bdf91dbb32fa800012ea282,2024-02-18_21h45.35.221,kallum_motion_pilot,2023.2.2,Win32,59.88023952,5bdf91dbb32fa800012ea282,65d2b6c8f2eece985d8e374c,65d2cec1cf2bb0e35ac172c4,0.0174,0.0174,0,17,17,85,1,seveneight,,,,,,,,,,,,,,,,,,,,,,,,,,,,,,,,,,,,,,,,,,,,,,,,,,,,,,,,,,,,,,,,,,,,,,,,,,,,,,,,,,,,,,,,,,,,,,,,,,,,,,,,,,,,,,,,,,,,,,,,,,,,,,,,,,,,,,,,,
,,5bdf91dbb32fa800012ea282,2024-02-18_21h45.35.221,kallum_motion_pilot,2023.2.2,Win32,59.88023952,5bdf91dbb32fa800012ea282,65d2b6c8f2eece985d8e374c,65d2cec1cf2bb0e35ac172c4,0.0174,0.0174,0,18,18,76,1,threeone,,,,,,,,,,,,,,,,,,,,,,,,,,,,,,,,,,,,,,,,,,,,,,,,,,,,,,,,,,,,,,,,,,,,,,,,,,,,,,,,,,,,,,,,,,,,,,,,,,,,,,,,,,,,,,,,,,,,,,,,,,,,,,,,,,,,,,,,,
,,5bdf91dbb32fa800012ea282,2024-02-18_21h45.35.221,kallum_motion_pilot,2023.2.2,Win32,59.88023952,5bdf91dbb32fa800012ea282,65d2b6c8f2eece985d8e374c,65d2cec1cf2bb0e35ac172c4,0.0175,0.0176,0,19,19,134,1,eightsix,,,,,,,,,,,,,,,,,,,,,,,,,,,,,,,,,,,,,,,,,,,,,,,,,,,,,,,,,,,,,,,,,,,,,,,,,,,,,,,,,,,,,,,,,,,,,,,,,,,,,,,,,,,,,,,,,,,,,,,,,,,,,,,,,,,,,,,,,
,,5bdf91dbb32fa800012ea282,2024-02-18_21h45.35.221,kallum_motion_pilot,2023.2.2,Win32,59.88023952,5bdf91dbb32fa800012ea282,65d2b6c8f2eece985d8e374c,65d2cec1cf2bb0e35ac172c4,0.0176,0.0176,0,20,20,68,1,threeone,,,,,,,,,,,,,,,,,,,,,,,,,,,,,,,,,,,,,,,,,,,,,,,,,,,,,,,,,,,,,,,,,,,,,,,,,,,,,,,,,,,,,,,,,,,,,,,,,,,,,,,,,,,,,,,,,,,,,,,,,,,,,,,,,,,,,,,,,
,,5bdf91dbb32fa800012ea282,2024-02-18_21h45.35.221,kallum_motion_pilot,2023.2.2,Win32,59.88023952,5bdf91dbb32fa800012ea282,65d2b6c8f2eece985d8e374c,65d2cec1cf2bb0e35ac172c4,0.0176,0.0176,0,21,21,107,1,sixeight,,,,,,,,,,,,,,,,,,,,,,,,,,,,,,,,,,,,,,,,,,,,,,,,,,,,,,,,,,,,,,,,,,,,,,,,,,,,,,,,,,,,,,,,,,,,,,,,,,,,,,,,,,,,,,,,,,,,,,,,,,,,,,,,,,,,,,,,,
,,5bdf91dbb32fa800012ea282,2024-02-18_21h45.35.221,kallum_motion_pilot,2023.2.2,Win32,59.88023952,5bdf91dbb32fa800012ea282,65d2b6c8f2eece985d8e374c,65d2cec1cf2bb0e35ac172c4,0.0176,0.0177,0,22,22,129,1,fiveseven,,,,,,,,,,,,,,,,,,,,,,,,,,,,,,,,,,,,,,,,,,,,,,,,,,,,,,,,,,,,,,,,,,,,,,,,,,,,,,,,,,,,,,,,,,,,,,,,,,,,,,,,,,,,,,,,,,,,,,,,,,,,,,,,,,,,,,,,,
,,5bdf91dbb32fa800012ea282,2024-02-18_21h45.35.221,kallum_motion_pilot,2023.2.2,Win32,59.88023952,5bdf91dbb32fa800012ea282,65d2b6c8f2eece985d8e374c,65d2cec1cf2bb0e35ac172c4,0.0177,0.0178,0,23,23,115,1,sixeight,,,,,,,,,,,,,,,,,,,,,,,,,,,,,,,,,,,,,,,,,,,,,,,,,,,,,,,,,,,,,,,,,,,,,,,,,,,,,,,,,,,,,,,,,,,,,,,,,,,,,,,,,,,,,,,,,,,,,,,,,,,,,,,,,,,,,,,,,
,,5bdf91dbb32fa800012ea282,2024-02-18_21h45.35.221,kallum_motion_pilot,2023.2.2,Win32,59.88023952,5bdf91dbb32fa800012ea282,65d2b6c8f2eece985d8e374c,65d2cec1cf2bb0e35ac172c4,0.0178,0.0178,0,24,24,132,1,sevenfive,,,,,,,,,,,,,,,,,,,,,,,,,,,,,,,,,,,,,,,,,,,,,,,,,,,,,,,,,,,,,,,,,,,,,,,,,,,,,,,,,,,,,,,,,,,,,,,,,,,,,,,,,,,,,,,,,,,,,,,,,,,,,,,,,,,,,,,,,
,,5bdf91dbb32fa800012ea282,2024-02-18_21h45.35.221,kallum_motion_pilot,2023.2.2,Win32,59.88023952,5bdf91dbb32fa800012ea282,65d2b6c8f2eece985d8e374c,65d2cec1cf2bb0e35ac172c4,0.0178,0.0178,0,25,25,39,1,fourthree,,,,,,,,,,,,,,,,,,,,,,,,,,,,,,,,,,,,,,,,,,,,,,,,,,,,,,,,,,,,,,,,,,,,,,,,,,,,,,,,,,,,,,,,,,,,,,,,,,,,,,,,,,,,,,,,,,,,,,,,,,,,,,,,,,,,,,,,,
,,5bdf91dbb32fa800012ea282,2024-02-18_21h45.35.221,kallum_motion_pilot,2023.2.2,Win32,59.88023952,5bdf91dbb32fa800012ea282,65d2b6c8f2eece985d8e374c,65d2cec1cf2bb0e35ac172c4,0.0179,0.0179,0,26,26,53,1,threefour,,,,,,,,,,,,,,,,,,,,,,,,,,,,,,,,,,,,,,,,,,,,,,,,,,,,,,,,,,,,,,,,,,,,,,,,,,,,,,,,,,,,,,,,,,,,,,,,,,,,,,,,,,,,,,,,,,,,,,,,,,,,,,,,,,,,,,,,,
,,5bdf91dbb32fa800012ea282,2024-02-18_21h45.35.221,kallum_motion_pilot,2023.2.2,Win32,59.88023952,5bdf91dbb32fa800012ea282,65d2b6c8f2eece985d8e374c,65d2cec1cf2bb0e35ac172c4,0.0179,0.0179,0,27,27,114,1,sixfive,,,,,,,,,,,,,,,,,,,,,,,,,,,,,,,,,,,,,,,,,,,,,,,,,,,,,,,,,,,,,,,,,,,,,,,,,,,,,,,,,,,,,,,,,,,,,,,,,,,,,,,,,,,,,,,,,,,,,,,,,,,,,,,,,,,,,,,,,
,,5bdf91dbb32fa800012ea282,2024-02-18_21h45.35.221,kallum_motion_pilot,2023.2.2,Win32,59.88023952,5bdf91dbb32fa800012ea282,65d2b6c8f2eece985d8e374c,65d2cec1cf2bb0e35ac172c4,0.018,0.018,0,28,28,145,1,fiveseven,,,,,,,,,,,,,,,,,,,,,,,,,,,,,,,,,,,,,,,,,,,,,,,,,,,,,,,,,,,,,,,,,,,,,,,,,,,,,,,,,,,,,,,,,,,,,,,,,,,,,,,,,,,,,,,,,,,,,,,,,,,,,,,,,,,,,,,,,
,,5bdf91dbb32fa800012ea282,2024-02-18_21h45.35.221,kallum_motion_pilot,2023.2.2,Win32,59.88023952,5bdf91dbb32fa800012ea282,65d2b6c8f2eece985d8e374c,65d2cec1cf2bb0e35ac172c4,0.0181,0.0181,0,29,29,89,1,fiveseven,,,,,,,,,,,,,,,,,,,,,,,,,,,,,,,,,,,,,,,,,,,,,,,,,,,,,,,,,,,,,,,,,,,,,,,,,,,,,,,,,,,,,,,,,,,,,,,,,,,,,,,,,,,,,,,,,,,,,,,,,,,,,,,,,,,,,,,,,
,,5bdf91dbb32fa800012ea282,2024-02-18_21h45.35.221,kallum_motion_pilot,2023.2.2,Win32,59.88023952,5bdf91dbb32fa800012ea282,65d2b6c8f2eece985d8e374c,65d2cec1cf2bb0e35ac172c4,0.0181,0.0181,0,30,30,100,1,sevenfive,,,,,,,,,,,,,,,,,,,,,,,,,,,,,,,,,,,,,,,,,,,,,,,,,,,,,,,,,,,,,,,,,,,,,,,,,,,,,,,,,,,,,,,,,,,,,,,,,,,,,,,,,,,,,,,,,,,,,,,,,,,,,,,,,,,,,,,,,
,,5bdf91dbb32fa800012ea282,2024-02-18_21h45.35.221,kallum_motion_pilot,2023.2.2,Win32,59.88023952,5bdf91dbb32fa800012ea282,65d2b6c8f2eece985d8e374c,65d2cec1cf2bb0e35ac172c4,0.0182,0.0182,0,31,31,72,1,onetwo,,,,,,,,,,,,,,,,,,,,,,,,,,,,,,,,,,,,,,,,,,,,,,,,,,,,,,,,,,,,,,,,,,,,,,,,,,,,,,,,,,,,,,,,,,,,,,,,,,,,,,,,,,,,,,,,,,,,,,,,,,,,,,,,,,,,,,,,,
,,5bdf91dbb32fa800012ea282,2024-02-18_21h45.35.221,kallum_motion_pilot,2023.2.2,Win32,59.88023952,5bdf91dbb32fa800012ea282,65d2b6c8f2eece985d8e374c,65d2cec1cf2bb0e35ac172c4,0.0182,0.0183,0,32,32,27,1,twofour,,,,,,,,,,,,,,,,,,,,,,,,,,,,,,,,,,,,,,,,,,,,,,,,,,,,,,,,,,,,,,,,,,,,,,,,,,,,,,,,,,,,,,,,,,,,,,,,,,,,,,,,,,,,,,,,,,,,,,,,,,,,,,,,,,,,,,,,,
,,5bdf91dbb32fa800012ea282,2024-02-18_21h45.35.221,kallum_motion_pilot,2023.2.2,Win32,59.88023952,5bdf91dbb32fa800012ea282,65d2b6c8f2eece985d8e374c,65d2cec1cf2bb0e35ac172c4,0.0183,0.0183,0,33,33,79,1,eightseven,,,,,,,,,,,,,,,,,,,,,,,,,,,,,,,,,,,,,,,,,,,,,,,,,,,,,,,,,,,,,,,,,,,,,,,,,,,,,,,,,,,,,,,,,,,,,,,,,,,,,,,,,,,,,,,,,,,,,,,,,,,,,,,,,,,,,,,,,
,,5bdf91dbb32fa800012ea282,2024-02-18_21h45.35.221,kallum_motion_pilot,2023.2.2,Win32,59.88023952,5bdf91dbb32fa800012ea282,65d2b6c8f2eece985d8e374c,65d2cec1cf2bb0e35ac172c4,0.0183,0.0184,0,34,34,50,1,twoone,,,,,,,,,,,,,,,,,,,,,,,,,,,,,,,,,,,,,,,,,,,,,,,,,,,,,,,,,,,,,,,,,,,,,,,,,,,,,,,,,,,,,,,,,,,,,,,,,,,,,,,,,,,,,,,,,,,,,,,,,,,,,,,,,,,,,,,,,
,,5bdf91dbb32fa800012ea282,2024-02-18_21h45.35.221,kallum_motion_pilot,2023.2.2,Win32,59.88023952,5bdf91dbb32fa800012ea282,65d2b6c8f2eece985d8e374c,65d2cec1cf2bb0e35ac172c4,0.0184,0.0184,0,35,35,74,1,twoone,,,,,,,,,,,,,,,,,,,,,,,,,,,,,,,,,,,,,,,,,,,,,,,,,,,,,,,,,,,,,,,,,,,,,,,,,,,,,,,,,,,,,,,,,,,,,,,,,,,,,,,,,,,,,,,,,,,,,,,,,,,,,,,,,,,,,,,,,
,,5bdf91dbb32fa800012ea282,2024-02-18_21h45.35.221,kallum_motion_pilot,2023.2.2,Win32,59.88023952,5bdf91dbb32fa800012ea282,65d2b6c8f2eece985d8e374c,65d2cec1cf2bb0e35ac172c4,0.0184,0.0185,0,36,36,75,1,twofour,,,,,,,,,,,,,,,,,,,,,,,,,,,,,,,,,,,,,,,,,,,,,,,,,,,,,,,,,,,,,,,,,,,,,,,,,,,,,,,,,,,,,,,,,,,,,,,,,,,,,,,,,,,,,,,,,,,,,,,,,,,,,,,,,,,,,,,,,
,,5bdf91dbb32fa800012ea282,2024-02-18_21h45.35.221,kallum_motion_pilot,2023.2.2,Win32,59.88023952,5bdf91dbb32fa800012ea282,65d2b6c8f2eece985d8e374c,65d2cec1cf2bb0e35ac172c4,0.0186,0.0186,0,37,37,101,1,seveneight,,,,,,,,,,,,,,,,,,,,,,,,,,,,,,,,,,,,,,,,,,,,,,,,,,,,,,,,,,,,,,,,,,,,,,,,,,,,,,,,,,,,,,,,,,,,,,,,,,,,,,,,,,,,,,,,,,,,,,,,,,,,,,,,,,,,,,,,,
,,5bdf91dbb32fa800012ea282,2024-02-18_21h45.35.221,kallum_motion_pilot,2023.2.2,Win32,59.88023952,5bdf91dbb32fa800012ea282,65d2b6c8f2eece985d8e374c,65d2cec1cf2bb0e35ac172c4,0.0186,0.0186,0,38,38,82,1,sixfive,,,,,,,,,,,,,,,,,,,,,,,,,,,,,,,,,,,,,,,,,,,,,,,,,,,,,,,,,,,,,,,,,,,,,,,,,,,,,,,,,,,,,,,,,,,,,,,,,,,,,,,,,,,,,,,,,,,,,,,,,,,,,,,,,,,,,,,,,
,,5bdf91dbb32fa800012ea282,2024-02-18_21h45.35.221,kallum_motion_pilot,2023.2.2,Win32,59.88023952,5bdf91dbb32fa800012ea282,65d2b6c8f2eece985d8e374c,65d2cec1cf2bb0e35ac172c4,0.0186,0.0186,0,39,39,103,1,eightseven,,,,,,,,,,,,,,,,,,,,,,,,,,,,,,,,,,,,,,,,,,,,,,,,,,,,,,,,,,,,,,,,,,,,,,,,,,,,,,,,,,,,,,,,,,,,,,,,,,,,,,,,,,,,,,,,,,,,,,,,,,,,,,,,,,,,,,,,,
,,5bdf91dbb32fa800012ea282,2024-02-18_21h45.35.221,kallum_motion_pilot,2023.2.2,Win32,59.88023952,5bdf91dbb32fa800012ea282,65d2b6c8f2eece985d8e374c,65d2cec1cf2bb0e35ac172c4,0.0186,0.0187,0,40,40,99,1,sixeight,,,,,,,,,,,,,,,,,,,,,,,,,,,,,,,,,,,,,,,,,,,,,,,,,,,,,,,,,,,,,,,,,,,,,,,,,,,,,,,,,,,,,,,,,,,,,,,,,,,,,,,,,,,,,,,,,,,,,,,,,,,,,,,,,,,,,,,,,
,,5bdf91dbb32fa800012ea282,2024-02-18_21h45.35.221,kallum_motion_pilot,2023.2.2,Win32,59.88023952,5bdf91dbb32fa800012ea282,65d2b6c8f2eece985d8e374c,65d2cec1cf2bb0e35ac172c4,0.0188,0.0188,0,41,41,11,1,twofour,,,,,,,,,,,,,,,,,,,,,,,,,,,,,,,,,,,,,,,,,,,,,,,,,,,,,,,,,,,,,,,,,,,,,,,,,,,,,,,,,,,,,,,,,,,,,,,,,,,,,,,,,,,,,,,,,,,,,,,,,,,,,,,,,,,,,,,,,
,,5bdf91dbb32fa800012ea282,2024-02-18_21h45.35.221,kallum_motion_pilot,2023.2.2,Win32,59.88023952,5bdf91dbb32fa800012ea282,65d2b6c8f2eece985d8e374c,65d2cec1cf2bb0e35ac172c4,0.0188,0.0188,0,42,42,108,1,sevenfive,,,,,,,,,,,,,,,,,,,,,,,,,,,,,,,,,,,,,,,,,,,,,,,,,,,,,,,,,,,,,,,,,,,,,,,,,,,,,,,,,,,,,,,,,,,,,,,,,,,,,,,,,,,,,,,,,,,,,,,,,,,,,,,,,,,,,,,,,
,,5bdf91dbb32fa800012ea282,2024-02-18_21h45.35.221,kallum_motion_pilot,2023.2.2,Win32,59.88023952,5bdf91dbb32fa800012ea282,65d2b6c8f2eece985d8e374c,65d2cec1cf2bb0e35ac172c4,0.0189,0.0189,0,43,43,83,1,sixeight,,,,,,,,,,,,,,,,,,,,,,,,,,,,,,,,,,,,,,,,,,,,,,,,,,,,,,,,,,,,,,,,,,,,,,,,,,,,,,,,,,,,,,,,,,,,,,,,,,,,,,,,,,,,,,,,,,,,,,,,,,,,,,,,,,,,,,,,,
,,5bdf91dbb32fa800012ea282,2024-02-18_21h45.35.221,kallum_motion_pilot,2023.2.2,Win32,59.88023952,5bdf91dbb32fa800012ea282,65d2b6c8f2eece985d8e374c,65d2cec1cf2bb0e35ac172c4,0.0189,0.019,0,44,44,113,1,fiveseven,,,,,,,,,,,,,,,,,,,,,,,,,,,,,,,,,,,,,,,,,,,,,,,,,,,,,,,,,,,,,,,,,,,,,,,,,,,,,,,,,,,,,,,,,,,,,,,,,,,,,,,,,,,,,,,,,,,,,,,,,,,,,,,,,,,,,,,,,
,,5bdf91dbb32fa800012ea282,2024-02-18_21h45.35.221,kallum_motion_pilot,2023.2.2,Win32,59.88023952,5bdf91dbb32fa800012ea282,65d2b6c8f2eece985d8e374c,65d2cec1cf2bb0e35ac172c4,0.019,0.019,0,45,45,26,1,twoone,,,,,,,,,,,,,,,,,,,,,,,,,,,,,,,,,,,,,,,,,,,,,,,,,,,,,,,,,,,,,,,,,,,,,,,,,,,,,,,,,,,,,,,,,,,,,,,,,,,,,,,,,,,,,,,,,,,,,,,,,,,,,,,,,,,,,,,,,
,,5bdf91dbb32fa800012ea282,2024-02-18_21h45.35.221,kallum_motion_pilot,2023.2.2,Win32,59.88023952,5bdf91dbb32fa800012ea282,65d2b6c8f2eece985d8e374c,65d2cec1cf2bb0e35ac172c4,0.0191,0.0191,0,46,46,150,1,eightsix,,,,,,,,,,,,,,,,,,,,,,,,,,,,,,,,,,,,,,,,,,,,,,,,,,,,,,,,,,,,,,,,,,,,,,,,,,,,,,,,,,,,,,,,,,,,,,,,,,,,,,,,,,,,,,,,,,,,,,,,,,,,,,,,,,,,,,,,,
,,5bdf91dbb32fa800012ea282,2024-02-18_21h45.35.221,kallum_motion_pilot,2023.2.2,Win32,59.88023952,5bdf91dbb32fa800012ea282,65d2b6c8f2eece985d8e374c,65d2cec1cf2bb0e35ac172c4,0.0191,0.0191,0,47,47,45,1,threefour,,,,,,,,,,,,,,,,,,,,,,,,,,,,,,,,,,,,,,,,,,,,,,,,,,,,,,,,,,,,,,,,,,,,,,,,,,,,,,,,,,,,,,,,,,,,,,,,,,,,,,,,,,,,,,,,,,,,,,,,,,,,,,,,,,,,,,,,,
,,5bdf91dbb32fa800012ea282,2024-02-18_21h45.35.221,kallum_motion_pilot,2023.2.2,Win32,59.88023952,5bdf91dbb32fa800012ea282,65d2b6c8f2eece985d8e374c,65d2cec1cf2bb0e35ac172c4,0.0191,0.0192,0,48,48,71,1,fourthree,,,,,,,,,,,,,,,,,,,,,,,,,,,,,,,,,,,,,,,,,,,,,,,,,,,,,,,,,,,,,,,,,,,,,,,,,,,,,,,,,,,,,,,,,,,,,,,,,,,,,,,,,,,,,,,,,,,,,,,,,,,,,,,,,,,,,,,,,
,,5bdf91dbb32fa800012ea282,2024-02-18_21h45.35.221,kallum_motion_pilot,2023.2.2,Win32,59.88023952,5bdf91dbb32fa800012ea282,65d2b6c8f2eece985d8e374c,65d2cec1cf2bb0e35ac172c4,0.0192,0.0192,0,49,49,41,1,onethree,,,,,,,,,,,,,,,,,,,,,,,,,,,,,,,,,,,,,,,,,,,,,,,,,,,,,,,,,,,,,,,,,,,,,,,,,,,,,,,,,,,,,,,,,,,,,,,,,,,,,,,,,,,,,,,,,,,,,,,,,,,,,,,,,,,,,,,,,
,,5bdf91dbb32fa800012ea282,2024-02-18_21h45.35.221,kallum_motion_pilot,2023.2.2,Win32,59.88023952,5bdf91dbb32fa800012ea282,65d2b6c8f2eece985d8e374c,65d2cec1cf2bb0e35ac172c4,0.0193,0.0193,0,50,50,73,1,onethree,,,,,,,,,,,,,,,,,,,,,,,,,,,,,,,,,,,,,,,,,,,,,,,,,,,,,,,,,,,,,,,,,,,,,,,,,,,,,,,,,,,,,,,,,,,,,,,,,,,,,,,,,,,,,,,,,,,,,,,,,,,,,,,,,,,,,,,,,
,,5bdf91dbb32fa800012ea282,2024-02-18_21h45.35.221,kallum_motion_pilot,2023.2.2,Win32,59.88023952,5bdf91dbb32fa800012ea282,65d2b6c8f2eece985d8e374c,65d2cec1cf2bb0e35ac172c4,0.0194,0.0194,0,51,51,87,1,eightseven,,,,,,,,,,,,,,,,,,,,,,,,,,,,,,,,,,,,,,,,,,,,,,,,,,,,,,,,,,,,,,,,,,,,,,,,,,,,,,,,,,,,,,,,,,,,,,,,,,,,,,,,,,,,,,,,,,,,,,,,,,,,,,,,,,,,,,,,,
,,5bdf91dbb32fa800012ea282,2024-02-18_21h45.35.221,kallum_motion_pilot,2023.2.2,Win32,59.88023952,5bdf91dbb32fa800012ea282,65d2b6c8f2eece985d8e374c,65d2cec1cf2bb0e35ac172c4,0.0194,0.0194,0,52,52,80,1,fivesix,,,,,,,,,,,,,,,,,,,,,,,,,,,,,,,,,,,,,,,,,,,,,,,,,,,,,,,,,,,,,,,,,,,,,,,,,,,,,,,,,,,,,,,,,,,,,,,,,,,,,,,,,,,,,,,,,,,,,,,,,,,,,,,,,,,,,,,,,
,,5bdf91dbb32fa800012ea282,2024-02-18_21h45.35.221,kallum_motion_pilot,2023.2.2,Win32,59.88023952,5bdf91dbb32fa800012ea282,65d2b6c8f2eece985d8e374c,65d2cec1cf2bb0e35ac172c4,0.0195,0.0195,0,53,53,144,1,fivesix,,,,,,,,,,,,,,,,,,,,,,,,,,,,,,,,,,,,,,,,,,,,,,,,,,,,,,,,,,,,,,,,,,,,,,,,,,,,,,,,,,,,,,,,,,,,,,,,,,,,,,,,,,,,,,,,,,,,,,,,,,,,,,,,,,,,,,,,,
,,5bdf91dbb32fa800012ea282,2024-02-18_21h45.35.221,kallum_motion_pilot,2023.2.2,Win32,59.88023952,5bdf91dbb32fa800012ea282,65d2b6c8f2eece985d8e374c,65d2cec1cf2bb0e35ac172c4,0.0195,0.0195,0,54,54,18,1,twoone,,,,,,,,,,,,,,,,,,,,,,,,,,,,,,,,,,,,,,,,,,,,,,,,,,,,,,,,,,,,,,,,,,,,,,,,,,,,,,,,,,,,,,,,,,,,,,,,,,,,,,,,,,,,,,,,,,,,,,,,,,,,,,,,,,,,,,,,,
,,5bdf91dbb32fa800012ea282,2024-02-18_21h45.35.221,kallum_motion_pilot,2023.2.2,Win32,59.88023952,5bdf91dbb32fa800012ea282,65d2b6c8f2eece985d8e374c,65d2cec1cf2bb0e35ac172c4,0.0196,0.0196,0,55,55,105,1,fiveseven,,,,,,,,,,,,,,,,,,,,,,,,,,,,,,,,,,,,,,,,,,,,,,,,,,,,,,,,,,,,,,,,,,,,,,,,,,,,,,,,,,,,,,,,,,,,,,,,,,,,,,,,,,,,,,,,,,,,,,,,,,,,,,,,,,,,,,,,,
,,5bdf91dbb32fa800012ea282,2024-02-18_21h45.35.221,kallum_motion_pilot,2023.2.2,Win32,59.88023952,5bdf91dbb32fa800012ea282,65d2b6c8f2eece985d8e374c,65d2cec1cf2bb0e35ac172c4,0.0196,0.0196,0,56,56,43,1,twofour,,,,,,,,,,,,,,,,,,,,,,,,,,,,,,,,,,,,,,,,,,,,,,,,,,,,,,,,,,,,,,,,,,,,,,,,,,,,,,,,,,,,,,,,,,,,,,,,,,,,,,,,,,,,,,,,,,,,,,,,,,,,,,,,,,,,,,,,,
,,5bdf91dbb32fa800012ea282,2024-02-18_21h45.35.221,kallum_motion_pilot,2023.2.2,Win32,59.88023952,5bdf91dbb32fa800012ea282,65d2b6c8f2eece985d8e374c,65d2cec1cf2bb0e35ac172c4,0.0197,0.0197,0,57,57,92,1,sevenfive,,,,,,,,,,,,,,,,,,,,,,,,,,,,,,,,,,,,,,,,,,,,,,,,,,,,,,,,,,,,,,,,,,,,,,,,,,,,,,,,,,,,,,,,,,,,,,,,,,,,,,,,,,,,,,,,,,,,,,,,,,,,,,,,,,,,,,,,,
,,5bdf91dbb32fa800012ea282,2024-02-18_21h45.35.221,kallum_motion_pilot,2023.2.2,Win32,59.88023952,5bdf91dbb32fa800012ea282,65d2b6c8f2eece985d8e374c,65d2cec1cf2bb0e35ac172c4,0.0197,0.0198,0,58,58,137,1,fiveseven,,,,,,,,,,,,,,,,,,,,,,,,,,,,,,,,,,,,,,,,,,,,,,,,,,,,,,,,,,,,,,,,,,,,,,,,,,,,,,,,,,,,,,,,,,,,,,,,,,,,,,,,,,,,,,,,,,,,,,,,,,,,,,,,,,,,,,,,,
,,5bdf91dbb32fa800012ea282,2024-02-18_21h45.35.221,kallum_motion_pilot,2023.2.2,Win32,59.88023952,5bdf91dbb32fa800012ea282,65d2b6c8f2eece985d8e374c,65d2cec1cf2bb0e35ac172c4,0.0198,0.0198,0,59,59,38,1,fourtwo,,,,,,,,,,,,,,,,,,,,,,,,,,,,,,,,,,,,,,,,,,,,,,,,,,,,,,,,,,,,,,,,,,,,,,,,,,,,,,,,,,,,,,,,,,,,,,,,,,,,,,,,,,,,,,,,,,,,,,,,,,,,,,,,,,,,,,,,,
,,5bdf91dbb32fa800012ea282,2024-02-18_21h45.35.221,kallum_motion_pilot,2023.2.2,Win32,59.88023952,5bdf91dbb32fa800012ea282,65d2b6c8f2eece985d8e374c,65d2cec1cf2bb0e35ac172c4,0.0199,0.0199,0,60,60,30,1,fourtwo,,,,,,,,,,,,,,,,,,,,,,,,,,,,,,,,,,,,,,,,,,,,,,,,,,,,,,,,,,,,,,,,,,,,,,,,,,,,,,,,,,,,,,,,,,,,,,,,,,,,,,,,,,,,,,,,,,,,,,,,,,,,,,,,,,,,,,,,,
,,5bdf91dbb32fa800012ea282,2024-02-18_21h45.35.221,kallum_motion_pilot,2023.2.2,Win32,59.88023952,5bdf91dbb32fa800012ea282,65d2b6c8f2eece985d8e374c,65d2cec1cf2bb0e35ac172c4,0.0199,0.0205,0,61,61,63,1,fourthree,,,,,,,,,,,,,,,,,,,,,,,,,,,,,,,,,,,,,,,,,,,,,,,,,,,,,,,,,,,,,,,,,,,,,,,,,,,,,,,,,,,,,,,,,,,,,,,,,,,,,,,,,,,,,,,,,,,,,,,,,,,,,,,,,,,,,,,,,
,,5bdf91dbb32fa800012ea282,2024-02-18_21h45.35.221,kallum_motion_pilot,2023.2.2,Win32,59.88023952,5bdf91dbb32fa800012ea282,65d2b6c8f2eece985d8e374c,65d2cec1cf2bb0e35ac172c4,0.0206,0.0206,0,62,62,34,1,twoone,,,,,,,,,,,,,,,,,,,,,,,,,,,,,,,,,,,,,,,,,,,,,,,,,,,,,,,,,,,,,,,,,,,,,,,,,,,,,,,,,,,,,,,,,,,,,,,,,,,,,,,,,,,,,,,,,,,,,,,,,,,,,,,,,,,,,,,,,
,,5bdf91dbb32fa800012ea282,2024-02-18_21h45.35.221,kallum_motion_pilot,2023.2.2,Win32,59.88023952,5bdf91dbb32fa800012ea282,65d2b6c8f2eece985d8e374c,65d2cec1cf2bb0e35ac172c4,0.0207,0.0207,0,63,63,136,1,fivesix,,,,,,,,,,,,,,,,,,,,,,,,,,,,,,,,,,,,,,,,,,,,,,,,,,,,,,,,,,,,,,,,,,,,,,,,,,,,,,,,,,,,,,,,,,,,,,,,,,,,,,,,,,,,,,,,,,,,,,,,,,,,,,,,,,,,,,,,,
,,5bdf91dbb32fa800012ea282,2024-02-18_21h45.35.221,kallum_motion_pilot,2023.2.2,Win32,59.88023952,5bdf91dbb32fa800012ea282,65d2b6c8f2eece985d8e374c,65d2cec1cf2bb0e35ac172c4,0.0208,0.0208,0,64,64,142,1,eightsix,,,,,,,,,,,,,,,,,,,,,,,,,,,,,,,,,,,,,,,,,,,,,,,,,,,,,,,,,,,,,,,,,,,,,,,,,,,,,,,,,,,,,,,,,,,,,,,,,,,,,,,,,,,,,,,,,,,,,,,,,,,,,,,,,,,,,,,,,
,,5bdf91dbb32fa800012ea282,2024-02-18_21h45.35.221,kallum_motion_pilot,2023.2.2,Win32,59.88023952,5bdf91dbb32fa800012ea282,65d2b6c8f2eece985d8e374c,65d2cec1cf2bb0e35ac172c4,0.0208,0.0208,0,65,65,40,1,onetwo,,,,,,,,,,,,,,,,,,,,,,,,,,,,,,,,,,,,,,,,,,,,,,,,,,,,,,,,,,,,,,,,,,,,,,,,,,,,,,,,,,,,,,,,,,,,,,,,,,,,,,,,,,,,,,,,,,,,,,,,,,,,,,,,,,,,,,,,,
,,5bdf91dbb32fa800012ea282,2024-02-18_21h45.35.221,kallum_motion_pilot,2023.2.2,Win32,59.88023952,5bdf91dbb32fa800012ea282,65d2b6c8f2eece985d8e374c,65d2cec1cf2bb0e35ac172c4,0.0209,0.0209,0,66,66,91,1,sixeight,,,,,,,,,,,,,,,,,,,,,,,,,,,,,,,,,,,,,,,,,,,,,,,,,,,,,,,,,,,,,,,,,,,,,,,,,,,,,,,,,,,,,,,,,,,,,,,,,,,,,,,,,,,,,,,,,,,,,,,,,,,,,,,,,,,,,,,,,
,,5bdf91dbb32fa800012ea282,2024-02-18_21h45.35.221,kallum_motion_pilot,2023.2.2,Win32,59.88023952,5bdf91dbb32fa800012ea282,65d2b6c8f2eece985d8e374c,65d2cec1cf2bb0e35ac172c4,0.021,0.021,0,67,67,97,1,fiveseven,,,,,,,,,,,,,,,,,,,,,,,,,,,,,,,,,,,,,,,,,,,,,,,,,,,,,,,,,,,,,,,,,,,,,,,,,,,,,,,,,,,,,,,,,,,,,,,,,,,,,,,,,,,,,,,,,,,,,,,,,,,,,,,,,,,,,,,,,
,,5bdf91dbb32fa800012ea282,2024-02-18_21h45.35.221,kallum_motion_pilot,2023.2.2,Win32,59.88023952,5bdf91dbb32fa800012ea282,65d2b6c8f2eece985d8e374c,65d2cec1cf2bb0e35ac172c4,0.0211,0.0211,0,68,68,61,1,threefour,,,,,,,,,,,,,,,,,,,,,,,,,,,,,,,,,,,,,,,,,,,,,,,,,,,,,,,,,,,,,,,,,,,,,,,,,,,,,,,,,,,,,,,,,,,,,,,,,,,,,,,,,,,,,,,,,,,,,,,,,,,,,,,,,,,,,,,,,
,,5bdf91dbb32fa800012ea282,2024-02-18_21h45.35.221,kallum_motion_pilot,2023.2.2,Win32,59.88023952,5bdf91dbb32fa800012ea282,65d2b6c8f2eece985d8e374c,65d2cec1cf2bb0e35ac172c4,0.0211,0.0212,0,69,69,151,1,eightseven,,,,,,,,,,,,,,,,,,,,,,,,,,,,,,,,,,,,,,,,,,,,,,,,,,,,,,,,,,,,,,,,,,,,,,,,,,,,,,,,,,,,,,,,,,,,,,,,,,,,,,,,,,,,,,,,,,,,,,,,,,,,,,,,,,,,,,,,,
,,5bdf91dbb32fa800012ea282,2024-02-18_21h45.35.221,kallum_motion_pilot,2023.2.2,Win32,59.88023952,5bdf91dbb32fa800012ea282,65d2b6c8f2eece985d8e374c,65d2cec1cf2bb0e35ac172c4,0.0212,0.0213,0,70,70,20,1,threeone,,,,,,,,,,,,,,,,,,,,,,,,,,,,,,,,,,,,,,,,,,,,,,,,,,,,,,,,,,,,,,,,,,,,,,,,,,,,,,,,,,,,,,,,,,,,,,,,,,,,,,,,,,,,,,,,,,,,,,,,,,,,,,,,,,,,,,,,,
,,5bdf91dbb32fa800012ea282,2024-02-18_21h45.35.221,kallum_motion_pilot,2023.2.2,Win32,59.88023952,5bdf91dbb32fa800012ea282,65d2b6c8f2eece985d8e374c,65d2cec1cf2bb0e35ac172c4,0.0213,0.0213,0,71,71,35,1,twofour,,,,,,,,,,,,,,,,,,,,,,,,,,,,,,,,,,,,,,,,,,,,,,,,,,,,,,,,,,,,,,,,,,,,,,,,,,,,,,,,,,,,,,,,,,,,,,,,,,,,,,,,,,,,,,,,,,,,,,,,,,,,,,,,,,,,,,,,,
,,5bdf91dbb32fa800012ea282,2024-02-18_21h45.35.221,kallum_motion_pilot,2023.2.2,Win32,59.88023952,5bdf91dbb32fa800012ea282,65d2b6c8f2eece985d8e374c,65d2cec1cf2bb0e35ac172c4,0.0214,0.0214,0,72,72,31,1,fourthree,,,,,,,,,,,,,,,,,,,,,,,,,,,,,,,,,,,,,,,,,,,,,,,,,,,,,,,,,,,,,,,,,,,,,,,,,,,,,,,,,,,,,,,,,,,,,,,,,,,,,,,,,,,,,,,,,,,,,,,,,,,,,,,,,,,,,,,,,
,,5bdf91dbb32fa800012ea282,2024-02-18_21h45.35.221,kallum_motion_pilot,2023.2.2,Win32,59.88023952,5bdf91dbb32fa800012ea282,65d2b6c8f2eece985d8e374c,65d2cec1cf2bb0e35ac172c4,0.0214,0.0214,0,73,73,22,1,fourtwo,,,,,,,,,,,,,,,,,,,,,,,,,,,,,,,,,,,,,,,,,,,,,,,,,,,,,,,,,,,,,,,,,,,,,,,,,,,,,,,,,,,,,,,,,,,,,,,,,,,,,,,,,,,,,,,,,,,,,,,,,,,,,,,,,,,,,,,,,
,,5bdf91dbb32fa800012ea282,2024-02-18_21h45.35.221,kallum_motion_pilot,2023.2.2,Win32,59.88023952,5bdf91dbb32fa800012ea282,65d2b6c8f2eece985d8e374c,65d2cec1cf2bb0e35ac172c4,0.0216,0.0216,0,74,74,156,1,sevenfive,,,,,,,,,,,,,,,,,,,,,,,,,,,,,,,,,,,,,,,,,,,,,,,,,,,,,,,,,,,,,,,,,,,,,,,,,,,,,,,,,,,,,,,,,,,,,,,,,,,,,,,,,,,,,,,,,,,,,,,,,,,,,,,,,,,,,,,,,
,,5bdf91dbb32fa800012ea282,2024-02-18_21h45.35.221,kallum_motion_pilot,2023.2.2,Win32,59.88023952,5bdf91dbb32fa800012ea282,65d2b6c8f2eece985d8e374c,65d2cec1cf2bb0e35ac172c4,0.0216,0.0217,0,75,75,2,1,twoone,,,,,,,,,,,,,,,,,,,,,,,,,,,,,,,,,,,,,,,,,,,,,,,,,,,,,,,,,,,,,,,,,,,,,,,,,,,,,,,,,,,,,,,,,,,,,,,,,,,,,,,,,,,,,,,,,,,,,,,,,,,,,,,,,,,,,,,,,
,,5bdf91dbb32fa800012ea282,2024-02-18_21h45.35.221,kallum_motion_pilot,2023.2.2,Win32,59.88023952,5bdf91dbb32fa800012ea282,65d2b6c8f2eece985d8e374c,65d2cec1cf2bb0e35ac172c4,0.0218,0.0218,0,76,76,131,1,sixeight,,,,,,,,,,,,,,,,,,,,,,,,,,,,,,,,,,,,,,,,,,,,,,,,,,,,,,,,,,,,,,,,,,,,,,,,,,,,,,,,,,,,,,,,,,,,,,,,,,,,,,,,,,,,,,,,,,,,,,,,,,,,,,,,,,,,,,,,,
,,5bdf91dbb32fa800012ea282,2024-02-18_21h45.35.221,kallum_motion_pilot,2023.2.2,Win32,59.88023952,5bdf91dbb32fa800012ea282,65d2b6c8f2eece985d8e374c,65d2cec1cf2bb0e35ac172c4,0.0218,0.0219,0,77,77,130,1,sixfive,,,,,,,,,,,,,,,,,,,,,,,,,,,,,,,,,,,,,,,,,,,,,,,,,,,,,,,,,,,,,,,,,,,,,,,,,,,,,,,,,,,,,,,,,,,,,,,,,,,,,,,,,,,,,,,,,,,,,,,,,,,,,,,,,,,,,,,,,
,,5bdf91dbb32fa800012ea282,2024-02-18_21h45.35.221,kallum_motion_pilot,2023.2.2,Win32,59.88023952,5bdf91dbb32fa800012ea282,65d2b6c8f2eece985d8e374c,65d2cec1cf2bb0e35ac172c4,0.022,0.022,0,78,78,117,1,seveneight,,,,,,,,,,,,,,,,,,,,,,,,,,,,,,,,,,,,,,,,,,,,,,,,,,,,,,,,,,,,,,,,,,,,,,,,,,,,,,,,,,,,,,,,,,,,,,,,,,,,,,,,,,,,,,,,,,,,,,,,,,,,,,,,,,,,,,,,,
,,5bdf91dbb32fa800012ea282,2024-02-18_21h45.35.221,kallum_motion_pilot,2023.2.2,Win32,59.88023952,5bdf91dbb32fa800012ea282,65d2b6c8f2eece985d8e374c,65d2cec1cf2bb0e35ac172c4,0.0221,0.0221,0,79,79,0,1,onetwo,,,,,,,,,,,,,,,,,,,,,,,,,,,,,,,,,,,,,,,,,,,,,,,,,,,,,,,,,,,,,,,,,,,,,,,,,,,,,,,,,,,,,,,,,,,,,,,,,,,,,,,,,,,,,,,,,,,,,,,,,,,,,,,,,,,,,,,,,
,,5bdf91dbb32fa800012ea282,2024-02-18_21h45.35.221,kallum_motion_pilot,2023.2.2,Win32,59.88023952,5bdf91dbb32fa800012ea282,65d2b6c8f2eece985d8e374c,65d2cec1cf2bb0e35ac172c4,0.0221,0.0221,0,80,80,95,1,eightseven,,,,,,,,,,,,,,,,,,,,,,,,,,,,,,,,,,,,,,,,,,,,,,,,,,,,,,,,,,,,,,,,,,,,,,,,,,,,,,,,,,,,,,,,,,,,,,,,,,,,,,,,,,,,,,,,,,,,,,,,,,,,,,,,,,,,,,,,,
,,5bdf91dbb32fa800012ea282,2024-02-18_21h45.35.221,kallum_motion_pilot,2023.2.2,Win32,59.88023952,5bdf91dbb32fa800012ea282,65d2b6c8f2eece985d8e374c,65d2cec1cf2bb0e35ac172c4,0.0221,0.0222,0,81,81,37,1,threefour,,,,,,,,,,,,,,,,,,,,,,,,,,,,,,,,,,,,,,,,,,,,,,,,,,,,,,,,,,,,,,,,,,,,,,,,,,,,,,,,,,,,,,,,,,,,,,,,,,,,,,,,,,,,,,,,,,,,,,,,,,,,,,,,,,,,,,,,,
,,5bdf91dbb32fa800012ea282,2024-02-18_21h45.35.221,kallum_motion_pilot,2023.2.2,Win32,59.88023952,5bdf91dbb32fa800012ea282,65d2b6c8f2eece985d8e374c,65d2cec1cf2bb0e35ac172c4,0.0222,0.0222,0,82,82,58,1,twoone,,,,,,,,,,,,,,,,,,,,,,,,,,,,,,,,,,,,,,,,,,,,,,,,,,,,,,,,,,,,,,,,,,,,,,,,,,,,,,,,,,,,,,,,,,,,,,,,,,,,,,,,,,,,,,,,,,,,,,,,,,,,,,,,,,,,,,,,,
,,5bdf91dbb32fa800012ea282,2024-02-18_21h45.35.221,kallum_motion_pilot,2023.2.2,Win32,59.88023952,5bdf91dbb32fa800012ea282,65d2b6c8f2eece985d8e374c,65d2cec1cf2bb0e35ac172c4,0.0223,0.0223,0,83,83,126,1,eightsix,,,,,,,,,,,,,,,,,,,,,,,,,,,,,,,,,,,,,,,,,,,,,,,,,,,,,,,,,,,,,,,,,,,,,,,,,,,,,,,,,,,,,,,,,,,,,,,,,,,,,,,,,,,,,,,,,,,,,,,,,,,,,,,,,,,,,,,,,
,,5bdf91dbb32fa800012ea282,2024-02-18_21h45.35.221,kallum_motion_pilot,2023.2.2,Win32,59.88023952,5bdf91dbb32fa800012ea282,65d2b6c8f2eece985d8e374c,65d2cec1cf2bb0e35ac172c4,0.0223,0.0224,0,84,84,155,1,sixeight,,,,,,,,,,,,,,,,,,,,,,,,,,,,,,,,,,,,,,,,,,,,,,,,,,,,,,,,,,,,,,,,,,,,,,,,,,,,,,,,,,,,,,,,,,,,,,,,,,,,,,,,,,,,,,,,,,,,,,,,,,,,,,,,,,,,,,,,,
,,5bdf91dbb32fa800012ea282,2024-02-18_21h45.35.221,kallum_motion_pilot,2023.2.2,Win32,59.88023952,5bdf91dbb32fa800012ea282,65d2b6c8f2eece985d8e374c,65d2cec1cf2bb0e35ac172c4,0.0224,0.0224,0,85,85,133,1,seveneight,,,,,,,,,,,,,,,,,,,,,,,,,,,,,,,,,,,,,,,,,,,,,,,,,,,,,,,,,,,,,,,,,,,,,,,,,,,,,,,,,,,,,,,,,,,,,,,,,,,,,,,,,,,,,,,,,,,,,,,,,,,,,,,,,,,,,,,,,
,,5bdf91dbb32fa800012ea282,2024-02-18_21h45.35.221,kallum_motion_pilot,2023.2.2,Win32,59.88023952,5bdf91dbb32fa800012ea282,65d2b6c8f2eece985d8e374c,65d2cec1cf2bb0e35ac172c4,0.0224,0.0225,0,86,86,14,1,fourtwo,,,,,,,,,,,,,,,,,,,,,,,,,,,,,,,,,,,,,,,,,,,,,,,,,,,,,,,,,,,,,,,,,,,,,,,,,,,,,,,,,,,,,,,,,,,,,,,,,,,,,,,,,,,,,,,,,,,,,,,,,,,,,,,,,,,,,,,,,
,,5bdf91dbb32fa800012ea282,2024-02-18_21h45.35.221,kallum_motion_pilot,2023.2.2,Win32,59.88023952,5bdf91dbb32fa800012ea282,65d2b6c8f2eece985d8e374c,65d2cec1cf2bb0e35ac172c4,0.0225,0.0226,0,87,87,55,1,fourthree,,,,,,,,,,,,,,,,,,,,,,,,,,,,,,,,,,,,,,,,,,,,,,,,,,,,,,,,,,,,,,,,,,,,,,,,,,,,,,,,,,,,,,,,,,,,,,,,,,,,,,,,,,,,,,,,,,,,,,,,,,,,,,,,,,,,,,,,,
,,5bdf91dbb32fa800012ea282,2024-02-18_21h45.35.221,kallum_motion_pilot,2023.2.2,Win32,59.88023952,5bdf91dbb32fa800012ea282,65d2b6c8f2eece985d8e374c,65d2cec1cf2bb0e35ac172c4,0.0226,0.0226,0,88,88,81,1,fiveseven,,,,,,,,,,,,,,,,,,,,,,,,,,,,,,,,,,,,,,,,,,,,,,,,,,,,,,,,,,,,,,,,,,,,,,,,,,,,,,,,,,,,,,,,,,,,,,,,,,,,,,,,,,,,,,,,,,,,,,,,,,,,,,,,,,,,,,,,,
,,5bdf91dbb32fa800012ea282,2024-02-18_21h45.35.221,kallum_motion_pilot,2023.2.2,Win32,59.88023952,5bdf91dbb32fa800012ea282,65d2b6c8f2eece985d8e374c,65d2cec1cf2bb0e35ac172c4,0.0226,0.0227,0,89,89,158,1,eightsix,,,,,,,,,,,,,,,,,,,,,,,,,,,,,,,,,,,,,,,,,,,,,,,,,,,,,,,,,,,,,,,,,,,,,,,,,,,,,,,,,,,,,,,,,,,,,,,,,,,,,,,,,,,,,,,,,,,,,,,,,,,,,,,,,,,,,,,,,
,,5bdf91dbb32fa800012ea282,2024-02-18_21h45.35.221,kallum_motion_pilot,2023.2.2,Win32,59.88023952,5bdf91dbb32fa800012ea282,65d2b6c8f2eece985d8e374c,65d2cec1cf2bb0e35ac172c4,0.0227,0.0228,0,90,90,121,1,fiveseven,,,,,,,,,,,,,,,,,,,,,,,,,,,,,,,,,,,,,,,,,,,,,,,,,,,,,,,,,,,,,,,,,,,,,,,,,,,,,,,,,,,,,,,,,,,,,,,,,,,,,,,,,,,,,,,,,,,,,,,,,,,,,,,,,,,,,,,,,
,,5bdf91dbb32fa800012ea282,2024-02-18_21h45.35.221,kallum_motion_pilot,2023.2.2,Win32,59.88023952,5bdf91dbb32fa800012ea282,65d2b6c8f2eece985d8e374c,65d2cec1cf2bb0e35ac172c4,0.0229,0.0229,0,91,91,120,1,fivesix,,,,,,,,,,,,,,,,,,,,,,,,,,,,,,,,,,,,,,,,,,,,,,,,,,,,,,,,,,,,,,,,,,,,,,,,,,,,,,,,,,,,,,,,,,,,,,,,,,,,,,,,,,,,,,,,,,,,,,,,,,,,,,,,,,,,,,,,,
,,5bdf91dbb32fa800012ea282,2024-02-18_21h45.35.221,kallum_motion_pilot,2023.2.2,Win32,59.88023952,5bdf91dbb32fa800012ea282,65d2b6c8f2eece985d8e374c,65d2cec1cf2bb0e35ac172c4,0.0229,0.0229,0,92,92,159,1,eightseven,,,,,,,,,,,,,,,,,,,,,,,,,,,,,,,,,,,,,,,,,,,,,,,,,,,,,,,,,,,,,,,,,,,,,,,,,,,,,,,,,,,,,,,,,,,,,,,,,,,,,,,,,,,,,,,,,,,,,,,,,,,,,,,,,,,,,,,,,
,,5bdf91dbb32fa800012ea282,2024-02-18_21h45.35.221,kallum_motion_pilot,2023.2.2,Win32,59.88023952,5bdf91dbb32fa800012ea282,65d2b6c8f2eece985d8e374c,65d2cec1cf2bb0e35ac172c4,0.0229,0.0229,0,93,93,141,1,seveneight,,,,,,,,,,,,,,,,,,,,,,,,,,,,,,,,,,,,,,,,,,,,,,,,,,,,,,,,,,,,,,,,,,,,,,,,,,,,,,,,,,,,,,,,,,,,,,,,,,,,,,,,,,,,,,,,,,,,,,,,,,,,,,,,,,,,,,,,,
,,5bdf91dbb32fa800012ea282,2024-02-18_21h45.35.221,kallum_motion_pilot,2023.2.2,Win32,59.88023952,5bdf91dbb32fa800012ea282,65d2b6c8f2eece985d8e374c,65d2cec1cf2bb0e35ac172c4,0.023,0.023,0,94,94,119,1,eightseven,,,,,,,,,,,,,,,,,,,,,,,,,,,,,,,,,,,,,,,,,,,,,,,,,,,,,,,,,,,,,,,,,,,,,,,,,,,,,,,,,,,,,,,,,,,,,,,,,,,,,,,,,,,,,,,,,,,,,,,,,,,,,,,,,,,,,,,,,
,,5bdf91dbb32fa800012ea282,2024-02-18_21h45.35.221,kallum_motion_pilot,2023.2.2,Win32,59.88023952,5bdf91dbb32fa800012ea282,65d2b6c8f2eece985d8e374c,65d2cec1cf2bb0e35ac172c4,0.023,0.0231,0,95,95,21,1,threefour,,,,,,,,,,,,,,,,,,,,,,,,,,,,,,,,,,,,,,,,,,,,,,,,,,,,,,,,,,,,,,,,,,,,,,,,,,,,,,,,,,,,,,,,,,,,,,,,,,,,,,,,,,,,,,,,,,,,,,,,,,,,,,,,,,,,,,,,,
,,5bdf91dbb32fa800012ea282,2024-02-18_21h45.35.221,kallum_motion_pilot,2023.2.2,Win32,59.88023952,5bdf91dbb32fa800012ea282,65d2b6c8f2eece985d8e374c,65d2cec1cf2bb0e35ac172c4,0.0232,0.0232,0,96,96,54,1,fourtwo,,,,,,,,,,,,,,,,,,,,,,,,,,,,,,,,,,,,,,,,,,,,,,,,,,,,,,,,,,,,,,,,,,,,,,,,,,,,,,,,,,,,,,,,,,,,,,,,,,,,,,,,,,,,,,,,,,,,,,,,,,,,,,,,,,,,,,,,,
,,5bdf91dbb32fa800012ea282,2024-02-18_21h45.35.221,kallum_motion_pilot,2023.2.2,Win32,59.88023952,5bdf91dbb32fa800012ea282,65d2b6c8f2eece985d8e374c,65d2cec1cf2bb0e35ac172c4,0.0232,0.0233,0,97,97,77,1,threefour,,,,,,,,,,,,,,,,,,,,,,,,,,,,,,,,,,,,,,,,,,,,,,,,,,,,,,,,,,,,,,,,,,,,,,,,,,,,,,,,,,,,,,,,,,,,,,,,,,,,,,,,,,,,,,,,,,,,,,,,,,,,,,,,,,,,,,,,,
,,5bdf91dbb32fa800012ea282,2024-02-18_21h45.35.221,kallum_motion_pilot,2023.2.2,Win32,59.88023952,5bdf91dbb32fa800012ea282,65d2b6c8f2eece985d8e374c,65d2cec1cf2bb0e35ac172c4,0.0233,0.0233,0,98,98,148,1,sevenfive,,,,,,,,,,,,,,,,,,,,,,,,,,,,,,,,,,,,,,,,,,,,,,,,,,,,,,,,,,,,,,,,,,,,,,,,,,,,,,,,,,,,,,,,,,,,,,,,,,,,,,,,,,,,,,,,,,,,,,,,,,,,,,,,,,,,,,,,,
,,5bdf91dbb32fa800012ea282,2024-02-18_21h45.35.221,kallum_motion_pilot,2023.2.2,Win32,59.88023952,5bdf91dbb32fa800012ea282,65d2b6c8f2eece985d8e374c,65d2cec1cf2bb0e35ac172c4,0.0233,0.0233,0,99,99,125,1,seveneight,,,,,,,,,,,,,,,,,,,,,,,,,,,,,,,,,,,,,,,,,,,,,,,,,,,,,,,,,,,,,,,,,,,,,,,,,,,,,,,,,,,,,,,,,,,,,,,,,,,,,,,,,,,,,,,,,,,,,,,,,,,,,,,,,,,,,,,,,
,,5bdf91dbb32fa800012ea282,2024-02-18_21h45.35.221,kallum_motion_pilot,2023.2.2,Win32,59.88023952,5bdf91dbb32fa800012ea282,65d2b6c8f2eece985d8e374c,65d2cec1cf2bb0e35ac172c4,0.0234,0.0235,0,100,100,135,1,eightseven,,,,,,,,,,,,,,,,,,,,,,,,,,,,,,,,,,,,,,,,,,,,,,,,,,,,,,,,,,,,,,,,,,,,,,,,,,,,,,,,,,,,,,,,,,,,,,,,,,,,,,,,,,,,,,,,,,,,,,,,,,,,,,,,,,,,,,,,,
,,5bdf91dbb32fa800012ea282,2024-02-18_21h45.35.221,kallum_motion_pilot,2023.2.2,Win32,59.88023952,5bdf91dbb32fa800012ea282,65d2b6c8f2eece985d8e374c,65d2cec1cf2bb0e35ac172c4,0.0235,0.0235,0,101,101,140,1,sevenfive,,,,,,,,,,,,,,,,,,,,,,,,,,,,,,,,,,,,,,,,,,,,,,,,,,,,,,,,,,,,,,,,,,,,,,,,,,,,,,,,,,,,,,,,,,,,,,,,,,,,,,,,,,,,,,,,,,,,,,,,,,,,,,,,,,,,,,,,,
,,5bdf91dbb32fa800012ea282,2024-02-18_21h45.35.221,kallum_motion_pilot,2023.2.2,Win32,59.88023952,5bdf91dbb32fa800012ea282,65d2b6c8f2eece985d8e374c,65d2cec1cf2bb0e35ac172c4,0.0235,0.0235,0,102,102,65,1,onethree,,,,,,,,,,,,,,,,,,,,,,,,,,,,,,,,,,,,,,,,,,,,,,,,,,,,,,,,,,,,,,,,,,,,,,,,,,,,,,,,,,,,,,,,,,,,,,,,,,,,,,,,,,,,,,,,,,,,,,,,,,,,,,,,,,,,,,,,,
,,5bdf91dbb32fa800012ea282,2024-02-18_21h45.35.221,kallum_motion_pilot,2023.2.2,Win32,59.88023952,5bdf91dbb32fa800012ea282,65d2b6c8f2eece985d8e374c,65d2cec1cf2bb0e35ac172c4,0.0236,0.0236,0,103,103,122,1,sixfive,,,,,,,,,,,,,,,,,,,,,,,,,,,,,,,,,,,,,,,,,,,,,,,,,,,,,,,,,,,,,,,,,,,,,,,,,,,,,,,,,,,,,,,,,,,,,,,,,,,,,,,,,,,,,,,,,,,,,,,,,,,,,,,,,,,,,,,,,
,,5bdf91dbb32fa800012ea282,2024-02-18_21h45.35.221,kallum_motion_pilot,2023.2.2,Win32,59.88023952,5bdf91dbb32fa800012ea282,65d2b6c8f2eece985d8e374c,65d2cec1cf2bb0e35ac172c4,0.0237,0.0237,0,104,104,46,1,fourtwo,,,,,,,,,,,,,,,,,,,,,,,,,,,,,,,,,,,,,,,,,,,,,,,,,,,,,,,,,,,,,,,,,,,,,,,,,,,,,,,,,,,,,,,,,,,,,,,,,,,,,,,,,,,,,,,,,,,,,,,,,,,,,,,,,,,,,,,,,
,,5bdf91dbb32fa800012ea282,2024-02-18_21h45.35.221,kallum_motion_pilot,2023.2.2,Win32,59.88023952,5bdf91dbb32fa800012ea282,65d2b6c8f2eece985d8e374c,65d2cec1cf2bb0e35ac172c4,0.0237,0.0237,0,105,105,143,1,eightseven,,,,,,,,,,,,,,,,,,,,,,,,,,,,,,,,,,,,,,,,,,,,,,,,,,,,,,,,,,,,,,,,,,,,,,,,,,,,,,,,,,,,,,,,,,,,,,,,,,,,,,,,,,,,,,,,,,,,,,,,,,,,,,,,,,,,,,,,,
,,5bdf91dbb32fa800012ea282,2024-02-18_21h45.35.221,kallum_motion_pilot,2023.2.2,Win32,59.88023952,5bdf91dbb32fa800012ea282,65d2b6c8f2eece985d8e374c,65d2cec1cf2bb0e35ac172c4,0.0238,0.0238,0,106,106,93,1,seveneight,,,,,,,,,,,,,,,,,,,,,,,,,,,,,,,,,,,,,,,,,,,,,,,,,,,,,,,,,,,,,,,,,,,,,,,,,,,,,,,,,,,,,,,,,,,,,,,,,,,,,,,,,,,,,,,,,,,,,,,,,,,,,,,,,,,,,,,,,
,,5bdf91dbb32fa800012ea282,2024-02-18_21h45.35.221,kallum_motion_pilot,2023.2.2,Win32,59.88023952,5bdf91dbb32fa800012ea282,65d2b6c8f2eece985d8e374c,65d2cec1cf2bb0e35ac172c4,0.0238,0.0239,0,107,107,36,1,threeone,,,,,,,,,,,,,,,,,,,,,,,,,,,,,,,,,,,,,,,,,,,,,,,,,,,,,,,,,,,,,,,,,,,,,,,,,,,,,,,,,,,,,,,,,,,,,,,,,,,,,,,,,,,,,,,,,,,,,,,,,,,,,,,,,,,,,,,,,
,,5bdf91dbb32fa800012ea282,2024-02-18_21h45.35.221,kallum_motion_pilot,2023.2.2,Win32,59.88023952,5bdf91dbb32fa800012ea282,65d2b6c8f2eece985d8e374c,65d2cec1cf2bb0e35ac172c4,0.0239,0.0239,0,108,108,90,1,sixfive,,,,,,,,,,,,,,,,,,,,,,,,,,,,,,,,,,,,,,,,,,,,,,,,,,,,,,,,,,,,,,,,,,,,,,,,,,,,,,,,,,,,,,,,,,,,,,,,,,,,,,,,,,,,,,,,,,,,,,,,,,,,,,,,,,,,,,,,,
,,5bdf91dbb32fa800012ea282,2024-02-18_21h45.35.221,kallum_motion_pilot,2023.2.2,Win32,59.88023952,5bdf91dbb32fa800012ea282,65d2b6c8f2eece985d8e374c,65d2cec1cf2bb0e35ac172c4,0.024,0.0241,0,109,109,88,1,fivesix,,,,,,,,,,,,,,,,,,,,,,,,,,,,,,,,,,,,,,,,,,,,,,,,,,,,,,,,,,,,,,,,,,,,,,,,,,,,,,,,,,,,,,,,,,,,,,,,,,,,,,,,,,,,,,,,,,,,,,,,,,,,,,,,,,,,,,,,,
,,5bdf91dbb32fa800012ea282,2024-02-18_21h45.35.221,kallum_motion_pilot,2023.2.2,Win32,59.88023952,5bdf91dbb32fa800012ea282,65d2b6c8f2eece985d8e374c,65d2cec1cf2bb0e35ac172c4,0.0241,0.0241,0,110,110,60,1,threeone,,,,,,,,,,,,,,,,,,,,,,,,,,,,,,,,,,,,,,,,,,,,,,,,,,,,,,,,,,,,,,,,,,,,,,,,,,,,,,,,,,,,,,,,,,,,,,,,,,,,,,,,,,,,,,,,,,,,,,,,,,,,,,,,,,,,,,,,,
,,5bdf91dbb32fa800012ea282,2024-02-18_21h45.35.221,kallum_motion_pilot,2023.2.2,Win32,59.88023952,5bdf91dbb32fa800012ea282,65d2b6c8f2eece985d8e374c,65d2cec1cf2bb0e35ac172c4,0.0242,0.0242,0,111,111,8,1,onetwo,,,,,,,,,,,,,,,,,,,,,,,,,,,,,,,,,,,,,,,,,,,,,,,,,,,,,,,,,,,,,,,,,,,,,,,,,,,,,,,,,,,,,,,,,,,,,,,,,,,,,,,,,,,,,,,,,,,,,,,,,,,,,,,,,,,,,,,,,
,,5bdf91dbb32fa800012ea282,2024-02-18_21h45.35.221,kallum_motion_pilot,2023.2.2,Win32,59.88023952,5bdf91dbb32fa800012ea282,65d2b6c8f2eece985d8e374c,65d2cec1cf2bb0e35ac172c4,0.0242,0.0242,0,112,112,12,1,threeone,,,,,,,,,,,,,,,,,,,,,,,,,,,,,,,,,,,,,,,,,,,,,,,,,,,,,,,,,,,,,,,,,,,,,,,,,,,,,,,,,,,,,,,,,,,,,,,,,,,,,,,,,,,,,,,,,,,,,,,,,,,,,,,,,,,,,,,,,
,,5bdf91dbb32fa800012ea282,2024-02-18_21h45.35.221,kallum_motion_pilot,2023.2.2,Win32,59.88023952,5bdf91dbb32fa800012ea282,65d2b6c8f2eece985d8e374c,65d2cec1cf2bb0e35ac172c4,0.0243,0.0243,0,113,113,110,1,eightsix,,,,,,,,,,,,,,,,,,,,,,,,,,,,,,,,,,,,,,,,,,,,,,,,,,,,,,,,,,,,,,,,,,,,,,,,,,,,,,,,,,,,,,,,,,,,,,,,,,,,,,,,,,,,,,,,,,,,,,,,,,,,,,,,,,,,,,,,,
,,5bdf91dbb32fa800012ea282,2024-02-18_21h45.35.221,kallum_motion_pilot,2023.2.2,Win32,59.88023952,5bdf91dbb32fa800012ea282,65d2b6c8f2eece985d8e374c,65d2cec1cf2bb0e35ac172c4,0.0243,0.0244,0,114,114,29,1,threefour,,,,,,,,,,,,,,,,,,,,,,,,,,,,,,,,,,,,,,,,,,,,,,,,,,,,,,,,,,,,,,,,,,,,,,,,,,,,,,,,,,,,,,,,,,,,,,,,,,,,,,,,,,,,,,,,,,,,,,,,,,,,,,,,,,,,,,,,,
,,5bdf91dbb32fa800012ea282,2024-02-18_21h45.35.221,kallum_motion_pilot,2023.2.2,Win32,59.88023952,5bdf91dbb32fa800012ea282,65d2b6c8f2eece985d8e374c,65d2cec1cf2bb0e35ac172c4,0.0244,0.0245,0,115,115,7,1,fourthree,,,,,,,,,,,,,,,,,,,,,,,,,,,,,,,,,,,,,,,,,,,,,,,,,,,,,,,,,,,,,,,,,,,,,,,,,,,,,,,,,,,,,,,,,,,,,,,,,,,,,,,,,,,,,,,,,,,,,,,,,,,,,,,,,,,,,,,,,
,,5bdf91dbb32fa800012ea282,2024-02-18_21h45.35.221,kallum_motion_pilot,2023.2.2,Win32,59.88023952,5bdf91dbb32fa800012ea282,65d2b6c8f2eece985d8e374c,65d2cec1cf2bb0e35ac172c4,0.0245,0.0245,0,116,116,149,1,seveneight,,,,,,,,,,,,,,,,,,,,,,,,,,,,,,,,,,,,,,,,,,,,,,,,,,,,,,,,,,,,,,,,,,,,,,,,,,,,,,,,,,,,,,,,,,,,,,,,,,,,,,,,,,,,,,,,,,,,,,,,,,,,,,,,,,,,,,,,,
,,5bdf91dbb32fa800012ea282,2024-02-18_21h45.35.221,kallum_motion_pilot,2023.2.2,Win32,59.88023952,5bdf91dbb32fa800012ea282,65d2b6c8f2eece985d8e374c,65d2cec1cf2bb0e35ac172c4,0.0245,0.0246,0,117,117,24,1,onetwo,,,,,,,,,,,,,,,,,,,,,,,,,,,,,,,,,,,,,,,,,,,,,,,,,,,,,,,,,,,,,,,,,,,,,,,,,,,,,,,,,,,,,,,,,,,,,,,,,,,,,,,,,,,,,,,,,,,,,,,,,,,,,,,,,,,,,,,,,
,,5bdf91dbb32fa800012ea282,2024-02-18_21h45.35.221,kallum_motion_pilot,2023.2.2,Win32,59.88023952,5bdf91dbb32fa800012ea282,65d2b6c8f2eece985d8e374c,65d2cec1cf2bb0e35ac172c4,0.0246,0.0246,0,118,118,116,1,sevenfive,,,,,,,,,,,,,,,,,,,,,,,,,,,,,,,,,,,,,,,,,,,,,,,,,,,,,,,,,,,,,,,,,,,,,,,,,,,,,,,,,,,,,,,,,,,,,,,,,,,,,,,,,,,,,,,,,,,,,,,,,,,,,,,,,,,,,,,,,
,,5bdf91dbb32fa800012ea282,2024-02-18_21h45.35.221,kallum_motion_pilot,2023.2.2,Win32,59.88023952,5bdf91dbb32fa800012ea282,65d2b6c8f2eece985d8e374c,65d2cec1cf2bb0e35ac172c4,0.0246,0.0246,0,119,119,112,1,fivesix,,,,,,,,,,,,,,,,,,,,,,,,,,,,,,,,,,,,,,,,,,,,,,,,,,,,,,,,,,,,,,,,,,,,,,,,,,,,,,,,,,,,,,,,,,,,,,,,,,,,,,,,,,,,,,,,,,,,,,,,,,,,,,,,,,,,,,,,,
,,5bdf91dbb32fa800012ea282,2024-02-18_21h45.35.221,kallum_motion_pilot,2023.2.2,Win32,59.88023952,5bdf91dbb32fa800012ea282,65d2b6c8f2eece985d8e374c,65d2cec1cf2bb0e35ac172c4,0.0248,0.0248,0,120,120,17,1,onethree,,,,,,,,,,,,,,,,,,,,,,,,,,,,,,,,,,,,,,,,,,,,,,,,,,,,,,,,,,,,,,,,,,,,,,,,,,,,,,,,,,,,,,,,,,,,,,,,,,,,,,,,,,,,,,,,,,,,,,,,,,,,,,,,,,,,,,,,,
,,5bdf91dbb32fa800012ea282,2024-02-18_21h45.35.221,kallum_motion_pilot,2023.2.2,Win32,59.88023952,5bdf91dbb32fa800012ea282,65d2b6c8f2eece985d8e374c,65d2cec1cf2bb0e35ac172c4,0.0248,0.0248,0,121,121,147,1,sixeight,,,,,,,,,,,,,,,,,,,,,,,,,,,,,,,,,,,,,,,,,,,,,,,,,,,,,,,,,,,,,,,,,,,,,,,,,,,,,,,,,,,,,,,,,,,,,,,,,,,,,,,,,,,,,,,,,,,,,,,,,,,,,,,,,,,,,,,,,
,,5bdf91dbb32fa800012ea282,2024-02-18_21h45.35.221,kallum_motion_pilot,2023.2.2,Win32,59.88023952,5bdf91dbb32fa800012ea282,65d2b6c8f2eece985d8e374c,65d2cec1cf2bb0e35ac172c4,0.0249,0.0249,0,122,122,16,1,onetwo,,,,,,,,,,,,,,,,,,,,,,,,,,,,,,,,,,,,,,,,,,,,,,,,,,,,,,,,,,,,,,,,,,,,,,,,,,,,,,,,,,,,,,,,,,,,,,,,,,,,,,,,,,,,,,,,,,,,,,,,,,,,,,,,,,,,,,,,,
,,5bdf91dbb32fa800012ea282,2024-02-18_21h45.35.221,kallum_motion_pilot,2023.2.2,Win32,59.88023952,5bdf91dbb32fa800012ea282,65d2b6c8f2eece985d8e374c,65d2cec1cf2bb0e35ac172c4,0.0249,0.0249,0,123,123,86,1,eightsix,,,,,,,,,,,,,,,,,,,,,,,,,,,,,,,,,,,,,,,,,,,,,,,,,,,,,,,,,,,,,,,,,,,,,,,,,,,,,,,,,,,,,,,,,,,,,,,,,,,,,,,,,,,,,,,,,,,,,,,,,,,,,,,,,,,,,,,,,
,,5bdf91dbb32fa800012ea282,2024-02-18_21h45.35.221,kallum_motion_pilot,2023.2.2,Win32,59.88023952,5bdf91dbb32fa800012ea282,65d2b6c8f2eece985d8e374c,65d2cec1cf2bb0e35ac172c4,0.025,0.0251,0,124,124,10,1,twoone,,,,,,,,,,,,,,,,,,,,,,,,,,,,,,,,,,,,,,,,,,,,,,,,,,,,,,,,,,,,,,,,,,,,,,,,,,,,,,,,,,,,,,,,,,,,,,,,,,,,,,,,,,,,,,,,,,,,,,,,,,,,,,,,,,,,,,,,,
,,5bdf91dbb32fa800012ea282,2024-02-18_21h45.35.221,kallum_motion_pilot,2023.2.2,Win32,59.88023952,5bdf91dbb32fa800012ea282,65d2b6c8f2eece985d8e374c,65d2cec1cf2bb0e35ac172c4,0.0251,0.0252,0,125,125,70,1,fourtwo,,,,,,,,,,,,,,,,,,,,,,,,,,,,,,,,,,,,,,,,,,,,,,,,,,,,,,,,,,,,,,,,,,,,,,,,,,,,,,,,,,,,,,,,,,,,,,,,,,,,,,,,,,,,,,,,,,,,,,,,,,,,,,,,,,,,,,,,,
,,5bdf91dbb32fa800012ea282,2024-02-18_21h45.35.221,kallum_motion_pilot,2023.2.2,Win32,59.88023952,5bdf91dbb32fa800012ea282,65d2b6c8f2eece985d8e374c,65d2cec1cf2bb0e35ac172c4,0.0252,0.0252,0,126,126,19,1,twofour,,,,,,,,,,,,,,,,,,,,,,,,,,,,,,,,,,,,,,,,,,,,,,,,,,,,,,,,,,,,,,,,,,,,,,,,,,,,,,,,,,,,,,,,,,,,,,,,,,,,,,,,,,,,,,,,,,,,,,,,,,,,,,,,,,,,,,,,,
,,5bdf91dbb32fa800012ea282,2024-02-18_21h45.35.221,kallum_motion_pilot,2023.2.2,Win32,59.88023952,5bdf91dbb32fa800012ea282,65d2b6c8f2eece985d8e374c,65d2cec1cf2bb0e35ac172c4,0.0253,0.0253,0,127,127,139,1,sixeight,,,,,,,,,,,,,,,,,,,,,,,,,,,,,,,,,,,,,,,,,,,,,,,,,,,,,,,,,,,,,,,,,,,,,,,,,,,,,,,,,,,,,,,,,,,,,,,,,,,,,,,,,,,,,,,,,,,,,,,,,,,,,,,,,,,,,,,,,
,,5bdf91dbb32fa800012ea282,2024-02-18_21h45.35.221,kallum_motion_pilot,2023.2.2,Win32,59.88023952,5bdf91dbb32fa800012ea282,65d2b6c8f2eece985d8e374c,65d2cec1cf2bb0e35ac172c4,0.0254,0.0255,0,128,128,128,1,fivesix,,,,,,,,,,,,,,,,,,,,,,,,,,,,,,,,,,,,,,,,,,,,,,,,,,,,,,,,,,,,,,,,,,,,,,,,,,,,,,,,,,,,,,,,,,,,,,,,,,,,,,,,,,,,,,,,,,,,,,,,,,,,,,,,,,,,,,,,,
,,5bdf91dbb32fa800012ea282,2024-02-18_21h45.35.221,kallum_motion_pilot,2023.2.2,Win32,59.88023952,5bdf91dbb32fa800012ea282,65d2b6c8f2eece985d8e374c,65d2cec1cf2bb0e35ac172c4,0.0255,0.0255,0,129,129,111,1,eightseven,,,,,,,,,,,,,,,,,,,,,,,,,,,,,,,,,,,,,,,,,,,,,,,,,,,,,,,,,,,,,,,,,,,,,,,,,,,,,,,,,,,,,,,,,,,,,,,,,,,,,,,,,,,,,,,,,,,,,,,,,,,,,,,,,,,,,,,,,
,,5bdf91dbb32fa800012ea282,2024-02-18_21h45.35.221,kallum_motion_pilot,2023.2.2,Win32,59.88023952,5bdf91dbb32fa800012ea282,65d2b6c8f2eece985d8e374c,65d2cec1cf2bb0e35ac172c4,0.0256,0.0256,0,130,130,102,1,eightsix,,,,,,,,,,,,,,,,,,,,,,,,,,,,,,,,,,,,,,,,,,,,,,,,,,,,,,,,,,,,,,,,,,,,,,,,,,,,,,,,,,,,,,,,,,,,,,,,,,,,,,,,,,,,,,,,,,,,,,,,,,,,,,,,,,,,,,,,,
,,5bdf91dbb32fa800012ea282,2024-02-18_21h45.35.221,kallum_motion_pilot,2023.2.2,Win32,59.88023952,5bdf91dbb32fa800012ea282,65d2b6c8f2eece985d8e374c,65d2cec1cf2bb0e35ac172c4,0.0256,0.0257,0,131,131,15,1,fourthree,,,,,,,,,,,,,,,,,,,,,,,,,,,,,,,,,,,,,,,,,,,,,,,,,,,,,,,,,,,,,,,,,,,,,,,,,,,,,,,,,,,,,,,,,,,,,,,,,,,,,,,,,,,,,,,,,,,,,,,,,,,,,,,,,,,,,,,,,
,,5bdf91dbb32fa800012ea282,2024-02-18_21h45.35.221,kallum_motion_pilot,2023.2.2,Win32,59.88023952,5bdf91dbb32fa800012ea282,65d2b6c8f2eece985d8e374c,65d2cec1cf2bb0e35ac172c4,0.0258,0.0258,0,132,132,146,1,sixfive,,,,,,,,,,,,,,,,,,,,,,,,,,,,,,,,,,,,,,,,,,,,,,,,,,,,,,,,,,,,,,,,,,,,,,,,,,,,,,,,,,,,,,,,,,,,,,,,,,,,,,,,,,,,,,,,,,,,,,,,,,,,,,,,,,,,,,,,,
,,5bdf91dbb32fa800012ea282,2024-02-18_21h45.35.221,kallum_motion_pilot,2023.2.2,Win32,59.88023952,5bdf91dbb32fa800012ea282,65d2b6c8f2eece985d8e374c,65d2cec1cf2bb0e35ac172c4,0.0258,0.0259,0,133,133,3,1,twofour,,,,,,,,,,,,,,,,,,,,,,,,,,,,,,,,,,,,,,,,,,,,,,,,,,,,,,,,,,,,,,,,,,,,,,,,,,,,,,,,,,,,,,,,,,,,,,,,,,,,,,,,,,,,,,,,,,,,,,,,,,,,,,,,,,,,,,,,,
,,5bdf91dbb32fa800012ea282,2024-02-18_21h45.35.221,kallum_motion_pilot,2023.2.2,Win32,59.88023952,5bdf91dbb32fa800012ea282,65d2b6c8f2eece985d8e374c,65d2cec1cf2bb0e35ac172c4,0.0259,0.0259,0,134,134,106,1,sixfive,,,,,,,,,,,,,,,,,,,,,,,,,,,,,,,,,,,,,,,,,,,,,,,,,,,,,,,,,,,,,,,,,,,,,,,,,,,,,,,,,,,,,,,,,,,,,,,,,,,,,,,,,,,,,,,,,,,,,,,,,,,,,,,,,,,,,,,,,
,,5bdf91dbb32fa800012ea282,2024-02-18_21h45.35.221,kallum_motion_pilot,2023.2.2,Win32,59.88023952,5bdf91dbb32fa800012ea282,65d2b6c8f2eece985d8e374c,65d2cec1cf2bb0e35ac172c4,0.026,0.026,0,135,135,32,1,onetwo,,,,,,,,,,,,,,,,,,,,,,,,,,,,,,,,,,,,,,,,,,,,,,,,,,,,,,,,,,,,,,,,,,,,,,,,,,,,,,,,,,,,,,,,,,,,,,,,,,,,,,,,,,,,,,,,,,,,,,,,,,,,,,,,,,,,,,,,,
,,5bdf91dbb32fa800012ea282,2024-02-18_21h45.35.221,kallum_motion_pilot,2023.2.2,Win32,59.88023952,5bdf91dbb32fa800012ea282,65d2b6c8f2eece985d8e374c,65d2cec1cf2bb0e35ac172c4,0.0261,0.0261,0,136,136,161,1,fiveseven,,,,,,,,,,,,,,,,,,,,,,,,,,,,,,,,,,,,,,,,,,,,,,,,,,,,,,,,,,,,,,,,,,,,,,,,,,,,,,,,,,,,,,,,,,,,,,,,,,,,,,,,,,,,,,,,,,,,,,,,,,,,,,,,,,,,,,,,,
,,5bdf91dbb32fa800012ea282,2024-02-18_21h45.35.221,kallum_motion_pilot,2023.2.2,Win32,59.88023952,5bdf91dbb32fa800012ea282,65d2b6c8f2eece985d8e374c,65d2cec1cf2bb0e35ac172c4,0.0261,0.0262,0,137,137,67,1,twofour,,,,,,,,,,,,,,,,,,,,,,,,,,,,,,,,,,,,,,,,,,,,,,,,,,,,,,,,,,,,,,,,,,,,,,,,,,,,,,,,,,,,,,,,,,,,,,,,,,,,,,,,,,,,,,,,,,,,,,,,,,,,,,,,,,,,,,,,,
,,5bdf91dbb32fa800012ea282,2024-02-18_21h45.35.221,kallum_motion_pilot,2023.2.2,Win32,59.88023952,5bdf91dbb32fa800012ea282,65d2b6c8f2eece985d8e374c,65d2cec1cf2bb0e35ac172c4,0.0262,0.0262,0,138,138,66,1,twoone,,,,,,,,,,,,,,,,,,,,,,,,,,,,,,,,,,,,,,,,,,,,,,,,,,,,,,,,,,,,,,,,,,,,,,,,,,,,,,,,,,,,,,,,,,,,,,,,,,,,,,,,,,,,,,,,,,,,,,,,,,,,,,,,,,,,,,,,,
,,5bdf91dbb32fa800012ea282,2024-02-18_21h45.35.221,kallum_motion_pilot,2023.2.2,Win32,59.88023952,5bdf91dbb32fa800012ea282,65d2b6c8f2eece985d8e374c,65d2cec1cf2bb0e35ac172c4,0.0262,0.0263,0,139,139,5,1,threefour,,,,,,,,,,,,,,,,,,,,,,,,,,,,,,,,,,,,,,,,,,,,,,,,,,,,,,,,,,,,,,,,,,,,,,,,,,,,,,,,,,,,,,,,,,,,,,,,,,,,,,,,,,,,,,,,,,,,,,,,,,,,,,,,,,,,,,,,,
,,5bdf91dbb32fa800012ea282,2024-02-18_21h45.35.221,kallum_motion_pilot,2023.2.2,Win32,59.88023952,5bdf91dbb32fa800012ea282,65d2b6c8f2eece985d8e374c,65d2cec1cf2bb0e35ac172c4,0.0263,0.0264,0,140,140,62,1,fourtwo,,,,,,,,,,,,,,,,,,,,,,,,,,,,,,,,,,,,,,,,,,,,,,,,,,,,,,,,,,,,,,,,,,,,,,,,,,,,,,,,,,,,,,,,,,,,,,,,,,,,,,,,,,,,,,,,,,,,,,,,,,,,,,,,,,,,,,,,,
,,5bdf91dbb32fa800012ea282,2024-02-18_21h45.35.221,kallum_motion_pilot,2023.2.2,Win32,59.88023952,5bdf91dbb32fa800012ea282,65d2b6c8f2eece985d8e374c,65d2cec1cf2bb0e35ac172c4,0.0264,0.0265,0,141,141,1,1,onethree,,,,,,,,,,,,,,,,,,,,,,,,,,,,,,,,,,,,,,,,,,,,,,,,,,,,,,,,,,,,,,,,,,,,,,,,,,,,,,,,,,,,,,,,,,,,,,,,,,,,,,,,,,,,,,,,,,,,,,,,,,,,,,,,,,,,,,,,,
,,5bdf91dbb32fa800012ea282,2024-02-18_21h45.35.221,kallum_motion_pilot,2023.2.2,Win32,59.88023952,5bdf91dbb32fa800012ea282,65d2b6c8f2eece985d8e374c,65d2cec1cf2bb0e35ac172c4,0.0265,0.0265,0,142,142,4,1,threeone,,,,,,,,,,,,,,,,,,,,,,,,,,,,,,,,,,,,,,,,,,,,,,,,,,,,,,,,,,,,,,,,,,,,,,,,,,,,,,,,,,,,,,,,,,,,,,,,,,,,,,,,,,,,,,,,,,,,,,,,,,,,,,,,,,,,,,,,,
,,5bdf91dbb32fa800012ea282,2024-02-18_21h45.35.221,kallum_motion_pilot,2023.2.2,Win32,59.88023952,5bdf91dbb32fa800012ea282,65d2b6c8f2eece985d8e374c,65d2cec1cf2bb0e35ac172c4,0.0265,0.0266,0,143,143,94,1,eightsix,,,,,,,,,,,,,,,,,,,,,,,,,,,,,,,,,,,,,,,,,,,,,,,,,,,,,,,,,,,,,,,,,,,,,,,,,,,,,,,,,,,,,,,,,,,,,,,,,,,,,,,,,,,,,,,,,,,,,,,,,,,,,,,,,,,,,,,,,
,,5bdf91dbb32fa800012ea282,2024-02-18_21h45.35.221,kallum_motion_pilot,2023.2.2,Win32,59.88023952,5bdf91dbb32fa800012ea282,65d2b6c8f2eece985d8e374c,65d2cec1cf2bb0e35ac172c4,0.0266,0.0266,0,144,144,109,1,seveneight,,,,,,,,,,,,,,,,,,,,,,,,,,,,,,,,,,,,,,,,,,,,,,,,,,,,,,,,,,,,,,,,,,,,,,,,,,,,,,,,,,,,,,,,,,,,,,,,,,,,,,,,,,,,,,,,,,,,,,,,,,,,,,,,,,,,,,,,,
,,5bdf91dbb32fa800012ea282,2024-02-18_21h45.35.221,kallum_motion_pilot,2023.2.2,Win32,59.88023952,5bdf91dbb32fa800012ea282,65d2b6c8f2eece985d8e374c,65d2cec1cf2bb0e35ac172c4,0.0267,0.0267,0,145,145,78,1,fourtwo,,,,,,,,,,,,,,,,,,,,,,,,,,,,,,,,,,,,,,,,,,,,,,,,,,,,,,,,,,,,,,,,,,,,,,,,,,,,,,,,,,,,,,,,,,,,,,,,,,,,,,,,,,,,,,,,,,,,,,,,,,,,,,,,,,,,,,,,,
,,5bdf91dbb32fa800012ea282,2024-02-18_21h45.35.221,kallum_motion_pilot,2023.2.2,Win32,59.88023952,5bdf91dbb32fa800012ea282,65d2b6c8f2eece985d8e374c,65d2cec1cf2bb0e35ac172c4,0.0268,0.0268,0,146,146,33,1,onethree,,,,,,,,,,,,,,,,,,,,,,,,,,,,,,,,,,,,,,,,,,,,,,,,,,,,,,,,,,,,,,,,,,,,,,,,,,,,,,,,,,,,,,,,,,,,,,,,,,,,,,,,,,,,,,,,,,,,,,,,,,,,,,,,,,,,,,,,,
,,5bdf91dbb32fa800012ea282,2024-02-18_21h45.35.221,kallum_motion_pilot,2023.2.2,Win32,59.88023952,5bdf91dbb32fa800012ea282,65d2b6c8f2eece985d8e374c,65d2cec1cf2bb0e35ac172c4,0.0269,0.0269,0,147,147,64,1,onetwo,,,,,,,,,,,,,,,,,,,,,,,,,,,,,,,,,,,,,,,,,,,,,,,,,,,,,,,,,,,,,,,,,,,,,,,,,,,,,,,,,,,,,,,,,,,,,,,,,,,,,,,,,,,,,,,,,,,,,,,,,,,,,,,,,,,,,,,,,
,,5bdf91dbb32fa800012ea282,2024-02-18_21h45.35.221,kallum_motion_pilot,2023.2.2,Win32,59.88023952,5bdf91dbb32fa800012ea282,65d2b6c8f2eece985d8e374c,65d2cec1cf2bb0e35ac172c4,0.0269,0.027,0,148,148,57,1,onethree,,,,,,,,,,,,,,,,,,,,,,,,,,,,,,,,,,,,,,,,,,,,,,,,,,,,,,,,,,,,,,,,,,,,,,,,,,,,,,,,,,,,,,,,,,,,,,,,,,,,,,,,,,,,,,,,,,,,,,,,,,,,,,,,,,,,,,,,,
,,5bdf91dbb32fa800012ea282,2024-02-18_21h45.35.221,kallum_motion_pilot,2023.2.2,Win32,59.88023952,5bdf91dbb32fa800012ea282,65d2b6c8f2eece985d8e374c,65d2cec1cf2bb0e35ac172c4,0.027,0.027,0,149,149,124,1,sevenfive,,,,,,,,,,,,,,,,,,,,,,,,,,,,,,,,,,,,,,,,,,,,,,,,,,,,,,,,,,,,,,,,,,,,,,,,,,,,,,,,,,,,,,,,,,,,,,,,,,,,,,,,,,,,,,,,,,,,,,,,,,,,,,,,,,,,,,,,,
,,5bdf91dbb32fa800012ea282,2024-02-18_21h45.35.221,kallum_motion_pilot,2023.2.2,Win32,59.88023952,5bdf91dbb32fa800012ea282,65d2b6c8f2eece985d8e374c,65d2cec1cf2bb0e35ac172c4,0.027,0.0271,0,150,150,153,1,fiveseven,,,,,,,,,,,,,,,,,,,,,,,,,,,,,,,,,,,,,,,,,,,,,,,,,,,,,,,,,,,,,,,,,,,,,,,,,,,,,,,,,,,,,,,,,,,,,,,,,,,,,,,,,,,,,,,,,,,,,,,,,,,,,,,,,,,,,,,,,
,,5bdf91dbb32fa800012ea282,2024-02-18_21h45.35.221,kallum_motion_pilot,2023.2.2,Win32,59.88023952,5bdf91dbb32fa800012ea282,65d2b6c8f2eece985d8e374c,65d2cec1cf2bb0e35ac172c4,0.0274,0.0275,0,151,151,152,1,fivesix,,,,,,,,,,,,,,,,,,,,,,,,,,,,,,,,,,,,,,,,,,,,,,,,,,,,,,,,,,,,,,,,,,,,,,,,,,,,,,,,,,,,,,,,,,,,,,,,,,,,,,,,,,,,,,,,,,,,,,,,,,,,,,,,,,,,,,,,,
,,5bdf91dbb32fa800012ea282,2024-02-18_21h45.35.221,kallum_motion_pilot,2023.2.2,Win32,59.88023952,5bdf91dbb32fa800012ea282,65d2b6c8f2eece985d8e374c,65d2cec1cf2bb0e35ac172c4,0.0275,0.0276,0,152,152,118,1,eightsix,,,,,,,,,,,,,,,,,,,,,,,,,,,,,,,,,,,,,,,,,,,,,,,,,,,,,,,,,,,,,,,,,,,,,,,,,,,,,,,,,,,,,,,,,,,,,,,,,,,,,,,,,,,,,,,,,,,,,,,,,,,,,,,,,,,,,,,,,
,,5bdf91dbb32fa800012ea282,2024-02-18_21h45.35.221,kallum_motion_pilot,2023.2.2,Win32,59.88023952,5bdf91dbb32fa800012ea282,65d2b6c8f2eece985d8e374c,65d2cec1cf2bb0e35ac172c4,0.0276,0.0277,0,153,153,52,1,threeone,,,,,,,,,,,,,,,,,,,,,,,,,,,,,,,,,,,,,,,,,,,,,,,,,,,,,,,,,,,,,,,,,,,,,,,,,,,,,,,,,,,,,,,,,,,,,,,,,,,,,,,,,,,,,,,,,,,,,,,,,,,,,,,,,,,,,,,,,
,,5bdf91dbb32fa800012ea282,2024-02-18_21h45.35.221,kallum_motion_pilot,2023.2.2,Win32,59.88023952,5bdf91dbb32fa800012ea282,65d2b6c8f2eece985d8e374c,65d2cec1cf2bb0e35ac172c4,0.0277,0.0277,0,154,154,44,1,threeone,,,,,,,,,,,,,,,,,,,,,,,,,,,,,,,,,,,,,,,,,,,,,,,,,,,,,,,,,,,,,,,,,,,,,,,,,,,,,,,,,,,,,,,,,,,,,,,,,,,,,,,,,,,,,,,,,,,,,,,,,,,,,,,,,,,,,,,,,
,,5bdf91dbb32fa800012ea282,2024-02-18_21h45.35.221,kallum_motion_pilot,2023.2.2,Win32,59.88023952,5bdf91dbb32fa800012ea282,65d2b6c8f2eece985d8e374c,65d2cec1cf2bb0e35ac172c4,0.0278,0.0278,0,155,155,154,1,sixfive,,,,,,,,,,,,,,,,,,,,,,,,,,,,,,,,,,,,,,,,,,,,,,,,,,,,,,,,,,,,,,,,,,,,,,,,,,,,,,,,,,,,,,,,,,,,,,,,,,,,,,,,,,,,,,,,,,,,,,,,,,,,,,,,,,,,,,,,,
,,5bdf91dbb32fa800012ea282,2024-02-18_21h45.35.221,kallum_motion_pilot,2023.2.2,Win32,59.88023952,5bdf91dbb32fa800012ea282,65d2b6c8f2eece985d8e374c,65d2cec1cf2bb0e35ac172c4,0.0278,0.0279,0,156,156,104,1,fivesix,,,,,,,,,,,,,,,,,,,,,,,,,,,,,,,,,,,,,,,,,,,,,,,,,,,,,,,,,,,,,,,,,,,,,,,,,,,,,,,,,,,,,,,,,,,,,,,,,,,,,,,,,,,,,,,,,,,,,,,,,,,,,,,,,,,,,,,,,
,,5bdf91dbb32fa800012ea282,2024-02-18_21h45.35.221,kallum_motion_pilot,2023.2.2,Win32,59.88023952,5bdf91dbb32fa800012ea282,65d2b6c8f2eece985d8e374c,65d2cec1cf2bb0e35ac172c4,0.0279,0.028,0,157,157,9,1,onethree,,,,,,,,,,,,,,,,,,,,,,,,,,,,,,,,,,,,,,,,,,,,,,,,,,,,,,,,,,,,,,,,,,,,,,,,,,,,,,,,,,,,,,,,,,,,,,,,,,,,,,,,,,,,,,,,,,,,,,,,,,,,,,,,,,,,,,,,,
,,5bdf91dbb32fa800012ea282,2024-02-18_21h45.35.221,kallum_motion_pilot,2023.2.2,Win32,59.88023952,5bdf91dbb32fa800012ea282,65d2b6c8f2eece985d8e374c,65d2cec1cf2bb0e35ac172c4,0.028,0.028,0,158,158,51,1,twofour,,,,,,,,,,,,,,,,,,,,,,,,,,,,,,,,,,,,,,,,,,,,,,,,,,,,,,,,,,,,,,,,,,,,,,,,,,,,,,,,,,,,,,,,,,,,,,,,,,,,,,,,,,,,,,,,,,,,,,,,,,,,,,,,,,,,,,,,,
,,5bdf91dbb32fa800012ea282,2024-02-18_21h45.35.221,kallum_motion_pilot,2023.2.2,Win32,59.88023952,5bdf91dbb32fa800012ea282,65d2b6c8f2eece985d8e374c,65d2cec1cf2bb0e35ac172c4,0.028,0.028,0,159,159,25,1,onethree,,,,,,,,,,,,,,,,,,,,,,,,,,,,,,,,,,,,,,,,,,,,,,,,,,,,,,,,,,,,,,,,,,,,,,,,,,,,,,,,,,,,,,,,,,,,,,,,,,,,,,,,,,,,,,,,,,,,,,,,,,,,,,,,,,,,,,,,,
,,5bdf91dbb32fa800012ea282,2024-02-18_21h45.35.221,kallum_motion_pilot,2023.2.2,Win32,59.88023952,5bdf91dbb32fa800012ea282,65d2b6c8f2eece985d8e374c,65d2cec1cf2bb0e35ac172c4,0.0281,0.0281,0,160,160,13,1,threefour,,,,,,,,,,,,,,,,,,,,,,,,,,,,,,,,,,,,,,,,,,,,,,,,,,,,,,,,,,,,,,,,,,,,,,,,,,,,,,,,,,,,,,,,,,,,,,,,,,,,,,,,,,,,,,,,,,,,,,,,,,,,,,,,,,,,,,,,,
,,5bdf91dbb32fa800012ea282,2024-02-18_21h45.35.221,kallum_motion_pilot,2023.2.2,Win32,59.88023952,5bdf91dbb32fa800012ea282,65d2b6c8f2eece985d8e374c,65d2cec1cf2bb0e35ac172c4,0.0282,0.0282,0,161,161,49,1,onethree,,,,,,,,,,,,,,,,,,,,,,,,,,,,,,,,,,,,,,,,,,,,,,,,,,,,,,,,,,,,,,,,,,,,,,,,,,,,,,,,,,,,,,,,,,,,,,,,,,,,,,,,,,,,,,,,,,,,,,,,,,,,,,,,,,,,,,,,,
,,5bdf91dbb32fa800012ea282,2024-02-18_21h45.35.221,kallum_motion_pilot,2023.2.2,Win32,59.88023952,5bdf91dbb32fa800012ea282,65d2b6c8f2eece985d8e374c,65d2cec1cf2bb0e35ac172c4,0.0283,0.0283,1,0,162,155,1,sixeight,,,,,,,,,,,,,,,,,,,,,,,,,,,,,,,,,,,,,,,,,,,,,,,,,,,,,,,,,,,,,,,,,,,,,,,,,,,,,,,,,,,,,,,,,,,,,,,,,,,,,,,,,,,,,,,,,,,,,,,,,,,,,,,,,,,,,,,,,
,,5bdf91dbb32fa800012ea282,2024-02-18_21h45.35.221,kallum_motion_pilot,2023.2.2,Win32,59.88023952,5bdf91dbb32fa800012ea282,65d2b6c8f2eece985d8e374c,65d2cec1cf2bb0e35ac172c4,0.0284,0.0284,1,1,163,95,1,eightseven,,,,,,,,,,,,,,,,,,,,,,,,,,,,,,,,,,,,,,,,,,,,,,,,,,,,,,,,,,,,,,,,,,,,,,,,,,,,,,,,,,,,,,,,,,,,,,,,,,,,,,,,,,,,,,,,,,,,,,,,,,,,,,,,,,,,,,,,,
,,5bdf91dbb32fa800012ea282,2024-02-18_21h45.35.221,kallum_motion_pilot,2023.2.2,Win32,59.88023952,5bdf91dbb32fa800012ea282,65d2b6c8f2eece985d8e374c,65d2cec1cf2bb0e35ac172c4,0.0285,0.0285,1,2,164,63,1,fourthree,,,,,,,,,,,,,,,,,,,,,,,,,,,,,,,,,,,,,,,,,,,,,,,,,,,,,,,,,,,,,,,,,,,,,,,,,,,,,,,,,,,,,,,,,,,,,,,,,,,,,,,,,,,,,,,,,,,,,,,,,,,,,,,,,,,,,,,,,
,,5bdf91dbb32fa800012ea282,2024-02-18_21h45.35.221,kallum_motion_pilot,2023.2.2,Win32,59.88023952,5bdf91dbb32fa800012ea282,65d2b6c8f2eece985d8e374c,65d2cec1cf2bb0e35ac172c4,0.0285,0.0285,1,3,165,24,1,onetwo,,,,,,,,,,,,,,,,,,,,,,,,,,,,,,,,,,,,,,,,,,,,,,,,,,,,,,,,,,,,,,,,,,,,,,,,,,,,,,,,,,,,,,,,,,,,,,,,,,,,,,,,,,,,,,,,,,,,,,,,,,,,,,,,,,,,,,,,,
,,5bdf91dbb32fa800012ea282,2024-02-18_21h45.35.221,kallum_motion_pilot,2023.2.2,Win32,59.88023952,5bdf91dbb32fa800012ea282,65d2b6c8f2eece985d8e374c,65d2cec1cf2bb0e35ac172c4,0.0286,0.0287,1,4,166,22,1,fourtwo,,,,,,,,,,,,,,,,,,,,,,,,,,,,,,,,,,,,,,,,,,,,,,,,,,,,,,,,,,,,,,,,,,,,,,,,,,,,,,,,,,,,,,,,,,,,,,,,,,,,,,,,,,,,,,,,,,,,,,,,,,,,,,,,,,,,,,,,,
,,5bdf91dbb32fa800012ea282,2024-02-18_21h45.35.221,kallum_motion_pilot,2023.2.2,Win32,59.88023952,5bdf91dbb32fa800012ea282,65d2b6c8f2eece985d8e374c,65d2cec1cf2bb0e35ac172c4,0.0287,0.0287,1,5,167,152,1,fivesix,,,,,,,,,,,,,,,,,,,,,,,,,,,,,,,,,,,,,,,,,,,,,,,,,,,,,,,,,,,,,,,,,,,,,,,,,,,,,,,,,,,,,,,,,,,,,,,,,,,,,,,,,,,,,,,,,,,,,,,,,,,,,,,,,,,,,,,,,
,,5bdf91dbb32fa800012ea282,2024-02-18_21h45.35.221,kallum_motion_pilot,2023.2.2,Win32,59.88023952,5bdf91dbb32fa800012ea282,65d2b6c8f2eece985d8e374c,65d2cec1cf2bb0e35ac172c4,0.0288,0.0288,1,6,168,151,1,eightseven,,,,,,,,,,,,,,,,,,,,,,,,,,,,,,,,,,,,,,,,,,,,,,,,,,,,,,,,,,,,,,,,,,,,,,,,,,,,,,,,,,,,,,,,,,,,,,,,,,,,,,,,,,,,,,,,,,,,,,,,,,,,,,,,,,,,,,,,,
,,5bdf91dbb32fa800012ea282,2024-02-18_21h45.35.221,kallum_motion_pilot,2023.2.2,Win32,59.88023952,5bdf91dbb32fa800012ea282,65d2b6c8f2eece985d8e374c,65d2cec1cf2bb0e35ac172c4,0.0288,0.0288,1,7,169,101,1,seveneight,,,,,,,,,,,,,,,,,,,,,,,,,,,,,,,,,,,,,,,,,,,,,,,,,,,,,,,,,,,,,,,,,,,,,,,,,,,,,,,,,,,,,,,,,,,,,,,,,,,,,,,,,,,,,,,,,,,,,,,,,,,,,,,,,,,,,,,,,
,,5bdf91dbb32fa800012ea282,2024-02-18_21h45.35.221,kallum_motion_pilot,2023.2.2,Win32,59.88023952,5bdf91dbb32fa800012ea282,65d2b6c8f2eece985d8e374c,65d2cec1cf2bb0e35ac172c4,0.0289,0.029,1,8,170,33,1,onethree,,,,,,,,,,,,,,,,,,,,,,,,,,,,,,,,,,,,,,,,,,,,,,,,,,,,,,,,,,,,,,,,,,,,,,,,,,,,,,,,,,,,,,,,,,,,,,,,,,,,,,,,,,,,,,,,,,,,,,,,,,,,,,,,,,,,,,,,,
,,5bdf91dbb32fa800012ea282,2024-02-18_21h45.35.221,kallum_motion_pilot,2023.2.2,Win32,59.88023952,5bdf91dbb32fa800012ea282,65d2b6c8f2eece985d8e374c,65d2cec1cf2bb0e35ac172c4,0.029,0.029,1,9,171,70,1,fourtwo,,,,,,,,,,,,,,,,,,,,,,,,,,,,,,,,,,,,,,,,,,,,,,,,,,,,,,,,,,,,,,,,,,,,,,,,,,,,,,,,,,,,,,,,,,,,,,,,,,,,,,,,,,,,,,,,,,,,,,,,,,,,,,,,,,,,,,,,,
,,5bdf91dbb32fa800012ea282,2024-02-18_21h45.35.221,kallum_motion_pilot,2023.2.2,Win32,59.88023952,5bdf91dbb32fa800012ea282,65d2b6c8f2eece985d8e374c,65d2cec1cf2bb0e35ac172c4,0.029,0.0291,1,10,172,16,1,onetwo,,,,,,,,,,,,,,,,,,,,,,,,,,,,,,,,,,,,,,,,,,,,,,,,,,,,,,,,,,,,,,,,,,,,,,,,,,,,,,,,,,,,,,,,,,,,,,,,,,,,,,,,,,,,,,,,,,,,,,,,,,,,,,,,,,,,,,,,,
,,5bdf91dbb32fa800012ea282,2024-02-18_21h45.35.221,kallum_motion_pilot,2023.2.2,Win32,59.88023952,5bdf91dbb32fa800012ea282,65d2b6c8f2eece985d8e374c,65d2cec1cf2bb0e35ac172c4,0.0291,0.0292,1,11,173,130,1,sixfive,,,,,,,,,,,,,,,,,,,,,,,,,,,,,,,,,,,,,,,,,,,,,,,,,,,,,,,,,,,,,,,,,,,,,,,,,,,,,,,,,,,,,,,,,,,,,,,,,,,,,,,,,,,,,,,,,,,,,,,,,,,,,,,,,,,,,,,,,
,,5bdf91dbb32fa800012ea282,2024-02-18_21h45.35.221,kallum_motion_pilot,2023.2.2,Win32,59.88023952,5bdf91dbb32fa800012ea282,65d2b6c8f2eece985d8e374c,65d2cec1cf2bb0e35ac172c4,0.0293,0.0293,1,12,174,29,1,threefour,,,,,,,,,,,,,,,,,,,,,,,,,,,,,,,,,,,,,,,,,,,,,,,,,,,,,,,,,,,,,,,,,,,,,,,,,,,,,,,,,,,,,,,,,,,,,,,,,,,,,,,,,,,,,,,,,,,,,,,,,,,,,,,,,,,,,,,,,
,,5bdf91dbb32fa800012ea282,2024-02-18_21h45.35.221,kallum_motion_pilot,2023.2.2,Win32,59.88023952,5bdf91dbb32fa800012ea282,65d2b6c8f2eece985d8e374c,65d2cec1cf2bb0e35ac172c4,0.0294,0.0294,1,13,175,60,1,threeone,,,,,,,,,,,,,,,,,,,,,,,,,,,,,,,,,,,,,,,,,,,,,,,,,,,,,,,,,,,,,,,,,,,,,,,,,,,,,,,,,,,,,,,,,,,,,,,,,,,,,,,,,,,,,,,,,,,,,,,,,,,,,,,,,,,,,,,,,
,,5bdf91dbb32fa800012ea282,2024-02-18_21h45.35.221,kallum_motion_pilot,2023.2.2,Win32,59.88023952,5bdf91dbb32fa800012ea282,65d2b6c8f2eece985d8e374c,65d2cec1cf2bb0e35ac172c4,0.0295,0.0295,1,14,176,39,1,fourthree,,,,,,,,,,,,,,,,,,,,,,,,,,,,,,,,,,,,,,,,,,,,,,,,,,,,,,,,,,,,,,,,,,,,,,,,,,,,,,,,,,,,,,,,,,,,,,,,,,,,,,,,,,,,,,,,,,,,,,,,,,,,,,,,,,,,,,,,,
,,5bdf91dbb32fa800012ea282,2024-02-18_21h45.35.221,kallum_motion_pilot,2023.2.2,Win32,59.88023952,5bdf91dbb32fa800012ea282,65d2b6c8f2eece985d8e374c,65d2cec1cf2bb0e35ac172c4,0.0296,0.0296,1,15,177,54,1,fourtwo,,,,,,,,,,,,,,,,,,,,,,,,,,,,,,,,,,,,,,,,,,,,,,,,,,,,,,,,,,,,,,,,,,,,,,,,,,,,,,,,,,,,,,,,,,,,,,,,,,,,,,,,,,,,,,,,,,,,,,,,,,,,,,,,,,,,,,,,,
,,5bdf91dbb32fa800012ea282,2024-02-18_21h45.35.221,kallum_motion_pilot,2023.2.2,Win32,59.88023952,5bdf91dbb32fa800012ea282,65d2b6c8f2eece985d8e374c,65d2cec1cf2bb0e35ac172c4,0.0296,0.0296,1,16,178,119,1,eightseven,,,,,,,,,,,,,,,,,,,,,,,,,,,,,,,,,,,,,,,,,,,,,,,,,,,,,,,,,,,,,,,,,,,,,,,,,,,,,,,,,,,,,,,,,,,,,,,,,,,,,,,,,,,,,,,,,,,,,,,,,,,,,,,,,,,,,,,,,
,,5bdf91dbb32fa800012ea282,2024-02-18_21h45.35.221,kallum_motion_pilot,2023.2.2,Win32,59.88023952,5bdf91dbb32fa800012ea282,65d2b6c8f2eece985d8e374c,65d2cec1cf2bb0e35ac172c4,0.0297,0.0298,1,17,179,123,1,sixeight,,,,,,,,,,,,,,,,,,,,,,,,,,,,,,,,,,,,,,,,,,,,,,,,,,,,,,,,,,,,,,,,,,,,,,,,,,,,,,,,,,,,,,,,,,,,,,,,,,,,,,,,,,,,,,,,,,,,,,,,,,,,,,,,,,,,,,,,,
,,5bdf91dbb32fa800012ea282,2024-02-18_21h45.35.221,kallum_motion_pilot,2023.2.2,Win32,59.88023952,5bdf91dbb32fa800012ea282,65d2b6c8f2eece985d8e374c,65d2cec1cf2bb0e35ac172c4,0.0298,0.0298,1,18,180,50,1,twoone,,,,,,,,,,,,,,,,,,,,,,,,,,,,,,,,,,,,,,,,,,,,,,,,,,,,,,,,,,,,,,,,,,,,,,,,,,,,,,,,,,,,,,,,,,,,,,,,,,,,,,,,,,,,,,,,,,,,,,,,,,,,,,,,,,,,,,,,,
,,5bdf91dbb32fa800012ea282,2024-02-18_21h45.35.221,kallum_motion_pilot,2023.2.2,Win32,59.88023952,5bdf91dbb32fa800012ea282,65d2b6c8f2eece985d8e374c,65d2cec1cf2bb0e35ac172c4,0.0299,0.03,1,19,181,8,1,onetwo,,,,,,,,,,,,,,,,,,,,,,,,,,,,,,,,,,,,,,,,,,,,,,,,,,,,,,,,,,,,,,,,,,,,,,,,,,,,,,,,,,,,,,,,,,,,,,,,,,,,,,,,,,,,,,,,,,,,,,,,,,,,,,,,,,,,,,,,,
,,5bdf91dbb32fa800012ea282,2024-02-18_21h45.35.221,kallum_motion_pilot,2023.2.2,Win32,59.88023952,5bdf91dbb32fa800012ea282,65d2b6c8f2eece985d8e374c,65d2cec1cf2bb0e35ac172c4,0.03,0.03,1,20,182,4,1,threeone,,,,,,,,,,,,,,,,,,,,,,,,,,,,,,,,,,,,,,,,,,,,,,,,,,,,,,,,,,,,,,,,,,,,,,,,,,,,,,,,,,,,,,,,,,,,,,,,,,,,,,,,,,,,,,,,,,,,,,,,,,,,,,,,,,,,,,,,,
,,5bdf91dbb32fa800012ea282,2024-02-18_21h45.35.221,kallum_motion_pilot,2023.2.2,Win32,59.88023952,5bdf91dbb32fa800012ea282,65d2b6c8f2eece985d8e374c,65d2cec1cf2bb0e35ac172c4,0.0301,0.0302,1,21,183,89,1,fiveseven,,,,,,,,,,,,,,,,,,,,,,,,,,,,,,,,,,,,,,,,,,,,,,,,,,,,,,,,,,,,,,,,,,,,,,,,,,,,,,,,,,,,,,,,,,,,,,,,,,,,,,,,,,,,,,,,,,,,,,,,,,,,,,,,,,,,,,,,,
,,5bdf91dbb32fa800012ea282,2024-02-18_21h45.35.221,kallum_motion_pilot,2023.2.2,Win32,59.88023952,5bdf91dbb32fa800012ea282,65d2b6c8f2eece985d8e374c,65d2cec1cf2bb0e35ac172c4,0.0302,0.0302,1,22,184,92,1,sevenfive,,,,,,,,,,,,,,,,,,,,,,,,,,,,,,,,,,,,,,,,,,,,,,,,,,,,,,,,,,,,,,,,,,,,,,,,,,,,,,,,,,,,,,,,,,,,,,,,,,,,,,,,,,,,,,,,,,,,,,,,,,,,,,,,,,,,,,,,,
,,5bdf91dbb32fa800012ea282,2024-02-18_21h45.35.221,kallum_motion_pilot,2023.2.2,Win32,59.88023952,5bdf91dbb32fa800012ea282,65d2b6c8f2eece985d8e374c,65d2cec1cf2bb0e35ac172c4,0.0302,0.0303,1,23,185,83,1,sixeight,,,,,,,,,,,,,,,,,,,,,,,,,,,,,,,,,,,,,,,,,,,,,,,,,,,,,,,,,,,,,,,,,,,,,,,,,,,,,,,,,,,,,,,,,,,,,,,,,,,,,,,,,,,,,,,,,,,,,,,,,,,,,,,,,,,,,,,,,
,,5bdf91dbb32fa800012ea282,2024-02-18_21h45.35.221,kallum_motion_pilot,2023.2.2,Win32,59.88023952,5bdf91dbb32fa800012ea282,65d2b6c8f2eece985d8e374c,65d2cec1cf2bb0e35ac172c4,0.0304,0.0304,1,24,186,34,1,twoone,,,,,,,,,,,,,,,,,,,,,,,,,,,,,,,,,,,,,,,,,,,,,,,,,,,,,,,,,,,,,,,,,,,,,,,,,,,,,,,,,,,,,,,,,,,,,,,,,,,,,,,,,,,,,,,,,,,,,,,,,,,,,,,,,,,,,,,,,
,,5bdf91dbb32fa800012ea282,2024-02-18_21h45.35.221,kallum_motion_pilot,2023.2.2,Win32,59.88023952,5bdf91dbb32fa800012ea282,65d2b6c8f2eece985d8e374c,65d2cec1cf2bb0e35ac172c4,0.0304,0.0306,1,25,187,11,1,twofour,,,,,,,,,,,,,,,,,,,,,,,,,,,,,,,,,,,,,,,,,,,,,,,,,,,,,,,,,,,,,,,,,,,,,,,,,,,,,,,,,,,,,,,,,,,,,,,,,,,,,,,,,,,,,,,,,,,,,,,,,,,,,,,,,,,,,,,,,
,,5bdf91dbb32fa800012ea282,2024-02-18_21h45.35.221,kallum_motion_pilot,2023.2.2,Win32,59.88023952,5bdf91dbb32fa800012ea282,65d2b6c8f2eece985d8e374c,65d2cec1cf2bb0e35ac172c4,0.0306,0.0306,1,26,188,77,1,threefour,,,,,,,,,,,,,,,,,,,,,,,,,,,,,,,,,,,,,,,,,,,,,,,,,,,,,,,,,,,,,,,,,,,,,,,,,,,,,,,,,,,,,,,,,,,,,,,,,,,,,,,,,,,,,,,,,,,,,,,,,,,,,,,,,,,,,,,,,
,,5bdf91dbb32fa800012ea282,2024-02-18_21h45.35.221,kallum_motion_pilot,2023.2.2,Win32,59.88023952,5bdf91dbb32fa800012ea282,65d2b6c8f2eece985d8e374c,65d2cec1cf2bb0e35ac172c4,0.0306,0.0307,1,27,189,62,1,fourtwo,,,,,,,,,,,,,,,,,,,,,,,,,,,,,,,,,,,,,,,,,,,,,,,,,,,,,,,,,,,,,,,,,,,,,,,,,,,,,,,,,,,,,,,,,,,,,,,,,,,,,,,,,,,,,,,,,,,,,,,,,,,,,,,,,,,,,,,,,
,,5bdf91dbb32fa800012ea282,2024-02-18_21h45.35.221,kallum_motion_pilot,2023.2.2,Win32,59.88023952,5bdf91dbb32fa800012ea282,65d2b6c8f2eece985d8e374c,65d2cec1cf2bb0e35ac172c4,0.0308,0.0308,1,28,190,102,1,eightsix,,,,,,,,,,,,,,,,,,,,,,,,,,,,,,,,,,,,,,,,,,,,,,,,,,,,,,,,,,,,,,,,,,,,,,,,,,,,,,,,,,,,,,,,,,,,,,,,,,,,,,,,,,,,,,,,,,,,,,,,,,,,,,,,,,,,,,,,,
,,5bdf91dbb32fa800012ea282,2024-02-18_21h45.35.221,kallum_motion_pilot,2023.2.2,Win32,59.88023952,5bdf91dbb32fa800012ea282,65d2b6c8f2eece985d8e374c,65d2cec1cf2bb0e35ac172c4,0.0308,0.0308,1,29,191,37,1,threefour,,,,,,,,,,,,,,,,,,,,,,,,,,,,,,,,,,,,,,,,,,,,,,,,,,,,,,,,,,,,,,,,,,,,,,,,,,,,,,,,,,,,,,,,,,,,,,,,,,,,,,,,,,,,,,,,,,,,,,,,,,,,,,,,,,,,,,,,,
,,5bdf91dbb32fa800012ea282,2024-02-18_21h45.35.221,kallum_motion_pilot,2023.2.2,Win32,59.88023952,5bdf91dbb32fa800012ea282,65d2b6c8f2eece985d8e374c,65d2cec1cf2bb0e35ac172c4,0.0309,0.0309,1,30,192,113,1,fiveseven,,,,,,,,,,,,,,,,,,,,,,,,,,,,,,,,,,,,,,,,,,,,,,,,,,,,,,,,,,,,,,,,,,,,,,,,,,,,,,,,,,,,,,,,,,,,,,,,,,,,,,,,,,,,,,,,,,,,,,,,,,,,,,,,,,,,,,,,,
,,5bdf91dbb32fa800012ea282,2024-02-18_21h45.35.221,kallum_motion_pilot,2023.2.2,Win32,59.88023952,5bdf91dbb32fa800012ea282,65d2b6c8f2eece985d8e374c,65d2cec1cf2bb0e35ac172c4,0.031,0.031,1,31,193,112,1,fivesix,,,,,,,,,,,,,,,,,,,,,,,,,,,,,,,,,,,,,,,,,,,,,,,,,,,,,,,,,,,,,,,,,,,,,,,,,,,,,,,,,,,,,,,,,,,,,,,,,,,,,,,,,,,,,,,,,,,,,,,,,,,,,,,,,,,,,,,,,
,,5bdf91dbb32fa800012ea282,2024-02-18_21h45.35.221,kallum_motion_pilot,2023.2.2,Win32,59.88023952,5bdf91dbb32fa800012ea282,65d2b6c8f2eece985d8e374c,65d2cec1cf2bb0e35ac172c4,0.0311,0.0311,1,32,194,100,1,sevenfive,,,,,,,,,,,,,,,,,,,,,,,,,,,,,,,,,,,,,,,,,,,,,,,,,,,,,,,,,,,,,,,,,,,,,,,,,,,,,,,,,,,,,,,,,,,,,,,,,,,,,,,,,,,,,,,,,,,,,,,,,,,,,,,,,,,,,,,,,
,,5bdf91dbb32fa800012ea282,2024-02-18_21h45.35.221,kallum_motion_pilot,2023.2.2,Win32,59.88023952,5bdf91dbb32fa800012ea282,65d2b6c8f2eece985d8e374c,65d2cec1cf2bb0e35ac172c4,0.0311,0.0312,1,33,195,57,1,onethree,,,,,,,,,,,,,,,,,,,,,,,,,,,,,,,,,,,,,,,,,,,,,,,,,,,,,,,,,,,,,,,,,,,,,,,,,,,,,,,,,,,,,,,,,,,,,,,,,,,,,,,,,,,,,,,,,,,,,,,,,,,,,,,,,,,,,,,,,
,,5bdf91dbb32fa800012ea282,2024-02-18_21h45.35.221,kallum_motion_pilot,2023.2.2,Win32,59.88023952,5bdf91dbb32fa800012ea282,65d2b6c8f2eece985d8e374c,65d2cec1cf2bb0e35ac172c4,0.0312,0.0312,1,34,196,145,1,fiveseven,,,,,,,,,,,,,,,,,,,,,,,,,,,,,,,,,,,,,,,,,,,,,,,,,,,,,,,,,,,,,,,,,,,,,,,,,,,,,,,,,,,,,,,,,,,,,,,,,,,,,,,,,,,,,,,,,,,,,,,,,,,,,,,,,,,,,,,,,
,,5bdf91dbb32fa800012ea282,2024-02-18_21h45.35.221,kallum_motion_pilot,2023.2.2,Win32,59.88023952,5bdf91dbb32fa800012ea282,65d2b6c8f2eece985d8e374c,65d2cec1cf2bb0e35ac172c4,0.0314,0.0314,1,35,197,88,1,fivesix,,,,,,,,,,,,,,,,,,,,,,,,,,,,,,,,,,,,,,,,,,,,,,,,,,,,,,,,,,,,,,,,,,,,,,,,,,,,,,,,,,,,,,,,,,,,,,,,,,,,,,,,,,,,,,,,,,,,,,,,,,,,,,,,,,,,,,,,,
,,5bdf91dbb32fa800012ea282,2024-02-18_21h45.35.221,kallum_motion_pilot,2023.2.2,Win32,59.88023952,5bdf91dbb32fa800012ea282,65d2b6c8f2eece985d8e374c,65d2cec1cf2bb0e35ac172c4,0.0314,0.0315,1,36,198,45,1,threefour,,,,,,,,,,,,,,,,,,,,,,,,,,,,,,,,,,,,,,,,,,,,,,,,,,,,,,,,,,,,,,,,,,,,,,,,,,,,,,,,,,,,,,,,,,,,,,,,,,,,,,,,,,,,,,,,,,,,,,,,,,,,,,,,,,,,,,,,,
,,5bdf91dbb32fa800012ea282,2024-02-18_21h45.35.221,kallum_motion_pilot,2023.2.2,Win32,59.88023952,5bdf91dbb32fa800012ea282,65d2b6c8f2eece985d8e374c,65d2cec1cf2bb0e35ac172c4,0.0315,0.0316,1,37,199,86,1,eightsix,,,,,,,,,,,,,,,,,,,,,,,,,,,,,,,,,,,,,,,,,,,,,,,,,,,,,,,,,,,,,,,,,,,,,,,,,,,,,,,,,,,,,,,,,,,,,,,,,,,,,,,,,,,,,,,,,,,,,,,,,,,,,,,,,,,,,,,,,
,,5bdf91dbb32fa800012ea282,2024-02-18_21h45.35.221,kallum_motion_pilot,2023.2.2,Win32,59.88023952,5bdf91dbb32fa800012ea282,65d2b6c8f2eece985d8e374c,65d2cec1cf2bb0e35ac172c4,0.0317,0.0317,1,38,200,103,1,eightseven,,,,,,,,,,,,,,,,,,,,,,,,,,,,,,,,,,,,,,,,,,,,,,,,,,,,,,,,,,,,,,,,,,,,,,,,,,,,,,,,,,,,,,,,,,,,,,,,,,,,,,,,,,,,,,,,,,,,,,,,,,,,,,,,,,,,,,,,,
,,5bdf91dbb32fa800012ea282,2024-02-18_21h45.35.221,kallum_motion_pilot,2023.2.2,Win32,59.88023952,5bdf91dbb32fa800012ea282,65d2b6c8f2eece985d8e374c,65d2cec1cf2bb0e35ac172c4,0.0317,0.0317,1,39,201,43,1,twofour,,,,,,,,,,,,,,,,,,,,,,,,,,,,,,,,,,,,,,,,,,,,,,,,,,,,,,,,,,,,,,,,,,,,,,,,,,,,,,,,,,,,,,,,,,,,,,,,,,,,,,,,,,,,,,,,,,,,,,,,,,,,,,,,,,,,,,,,,
,,5bdf91dbb32fa800012ea282,2024-02-18_21h45.35.221,kallum_motion_pilot,2023.2.2,Win32,59.88023952,5bdf91dbb32fa800012ea282,65d2b6c8f2eece985d8e374c,65d2cec1cf2bb0e35ac172c4,0.0318,0.0318,1,40,202,75,1,twofour,,,,,,,,,,,,,,,,,,,,,,,,,,,,,,,,,,,,,,,,,,,,,,,,,,,,,,,,,,,,,,,,,,,,,,,,,,,,,,,,,,,,,,,,,,,,,,,,,,,,,,,,,,,,,,,,,,,,,,,,,,,,,,,,,,,,,,,,,
,,5bdf91dbb32fa800012ea282,2024-02-18_21h45.35.221,kallum_motion_pilot,2023.2.2,Win32,59.88023952,5bdf91dbb32fa800012ea282,65d2b6c8f2eece985d8e374c,65d2cec1cf2bb0e35ac172c4,0.0319,0.0319,1,41,203,134,1,eightsix,,,,,,,,,,,,,,,,,,,,,,,,,,,,,,,,,,,,,,,,,,,,,,,,,,,,,,,,,,,,,,,,,,,,,,,,,,,,,,,,,,,,,,,,,,,,,,,,,,,,,,,,,,,,,,,,,,,,,,,,,,,,,,,,,,,,,,,,,
,,5bdf91dbb32fa800012ea282,2024-02-18_21h45.35.221,kallum_motion_pilot,2023.2.2,Win32,59.88023952,5bdf91dbb32fa800012ea282,65d2b6c8f2eece985d8e374c,65d2cec1cf2bb0e35ac172c4,0.0319,0.032,1,42,204,65,1,onethree,,,,,,,,,,,,,,,,,,,,,,,,,,,,,,,,,,,,,,,,,,,,,,,,,,,,,,,,,,,,,,,,,,,,,,,,,,,,,,,,,,,,,,,,,,,,,,,,,,,,,,,,,,,,,,,,,,,,,,,,,,,,,,,,,,,,,,,,,
,,5bdf91dbb32fa800012ea282,2024-02-18_21h45.35.221,kallum_motion_pilot,2023.2.2,Win32,59.88023952,5bdf91dbb32fa800012ea282,65d2b6c8f2eece985d8e374c,65d2cec1cf2bb0e35ac172c4,0.0321,0.0321,1,43,205,55,1,fourthree,,,,,,,,,,,,,,,,,,,,,,,,,,,,,,,,,,,,,,,,,,,,,,,,,,,,,,,,,,,,,,,,,,,,,,,,,,,,,,,,,,,,,,,,,,,,,,,,,,,,,,,,,,,,,,,,,,,,,,,,,,,,,,,,,,,,,,,,,
,,5bdf91dbb32fa800012ea282,2024-02-18_21h45.35.221,kallum_motion_pilot,2023.2.2,Win32,59.88023952,5bdf91dbb32fa800012ea282,65d2b6c8f2eece985d8e374c,65d2cec1cf2bb0e35ac172c4,0.0322,0.0323,1,44,206,126,1,eightsix,,,,,,,,,,,,,,,,,,,,,,,,,,,,,,,,,,,,,,,,,,,,,,,,,,,,,,,,,,,,,,,,,,,,,,,,,,,,,,,,,,,,,,,,,,,,,,,,,,,,,,,,,,,,,,,,,,,,,,,,,,,,,,,,,,,,,,,,,
,,5bdf91dbb32fa800012ea282,2024-02-18_21h45.35.221,kallum_motion_pilot,2023.2.2,Win32,59.88023952,5bdf91dbb32fa800012ea282,65d2b6c8f2eece985d8e374c,65d2cec1cf2bb0e35ac172c4,0.0324,0.0324,1,45,207,94,1,eightsix,,,,,,,,,,,,,,,,,,,,,,,,,,,,,,,,,,,,,,,,,,,,,,,,,,,,,,,,,,,,,,,,,,,,,,,,,,,,,,,,,,,,,,,,,,,,,,,,,,,,,,,,,,,,,,,,,,,,,,,,,,,,,,,,,,,,,,,,,
,,5bdf91dbb32fa800012ea282,2024-02-18_21h45.35.221,kallum_motion_pilot,2023.2.2,Win32,59.88023952,5bdf91dbb32fa800012ea282,65d2b6c8f2eece985d8e374c,65d2cec1cf2bb0e35ac172c4,0.0325,0.0325,1,46,208,150,1,eightsix,,,,,,,,,,,,,,,,,,,,,,,,,,,,,,,,,,,,,,,,,,,,,,,,,,,,,,,,,,,,,,,,,,,,,,,,,,,,,,,,,,,,,,,,,,,,,,,,,,,,,,,,,,,,,,,,,,,,,,,,,,,,,,,,,,,,,,,,,
,,5bdf91dbb32fa800012ea282,2024-02-18_21h45.35.221,kallum_motion_pilot,2023.2.2,Win32,59.88023952,5bdf91dbb32fa800012ea282,65d2b6c8f2eece985d8e374c,65d2cec1cf2bb0e35ac172c4,0.0325,0.0326,1,47,209,135,1,eightseven,,,,,,,,,,,,,,,,,,,,,,,,,,,,,,,,,,,,,,,,,,,,,,,,,,,,,,,,,,,,,,,,,,,,,,,,,,,,,,,,,,,,,,,,,,,,,,,,,,,,,,,,,,,,,,,,,,,,,,,,,,,,,,,,,,,,,,,,,
,,5bdf91dbb32fa800012ea282,2024-02-18_21h45.35.221,kallum_motion_pilot,2023.2.2,Win32,59.88023952,5bdf91dbb32fa800012ea282,65d2b6c8f2eece985d8e374c,65d2cec1cf2bb0e35ac172c4,0.0326,0.0328,1,48,210,125,1,seveneight,,,,,,,,,,,,,,,,,,,,,,,,,,,,,,,,,,,,,,,,,,,,,,,,,,,,,,,,,,,,,,,,,,,,,,,,,,,,,,,,,,,,,,,,,,,,,,,,,,,,,,,,,,,,,,,,,,,,,,,,,,,,,,,,,,,,,,,,,
,,5bdf91dbb32fa800012ea282,2024-02-18_21h45.35.221,kallum_motion_pilot,2023.2.2,Win32,59.88023952,5bdf91dbb32fa800012ea282,65d2b6c8f2eece985d8e374c,65d2cec1cf2bb0e35ac172c4,0.0329,0.0329,1,49,211,157,1,seveneight,,,,,,,,,,,,,,,,,,,,,,,,,,,,,,,,,,,,,,,,,,,,,,,,,,,,,,,,,,,,,,,,,,,,,,,,,,,,,,,,,,,,,,,,,,,,,,,,,,,,,,,,,,,,,,,,,,,,,,,,,,,,,,,,,,,,,,,,,
,,5bdf91dbb32fa800012ea282,2024-02-18_21h45.35.221,kallum_motion_pilot,2023.2.2,Win32,59.88023952,5bdf91dbb32fa800012ea282,65d2b6c8f2eece985d8e374c,65d2cec1cf2bb0e35ac172c4,0.033,0.033,1,50,212,56,1,onetwo,,,,,,,,,,,,,,,,,,,,,,,,,,,,,,,,,,,,,,,,,,,,,,,,,,,,,,,,,,,,,,,,,,,,,,,,,,,,,,,,,,,,,,,,,,,,,,,,,,,,,,,,,,,,,,,,,,,,,,,,,,,,,,,,,,,,,,,,,
,,5bdf91dbb32fa800012ea282,2024-02-18_21h45.35.221,kallum_motion_pilot,2023.2.2,Win32,59.88023952,5bdf91dbb32fa800012ea282,65d2b6c8f2eece985d8e374c,65d2cec1cf2bb0e35ac172c4,0.033,0.0331,1,51,213,149,1,seveneight,,,,,,,,,,,,,,,,,,,,,,,,,,,,,,,,,,,,,,,,,,,,,,,,,,,,,,,,,,,,,,,,,,,,,,,,,,,,,,,,,,,,,,,,,,,,,,,,,,,,,,,,,,,,,,,,,,,,,,,,,,,,,,,,,,,,,,,,,
,,5bdf91dbb32fa800012ea282,2024-02-18_21h45.35.221,kallum_motion_pilot,2023.2.2,Win32,59.88023952,5bdf91dbb32fa800012ea282,65d2b6c8f2eece985d8e374c,65d2cec1cf2bb0e35ac172c4,0.0331,0.0332,1,52,214,129,1,fiveseven,,,,,,,,,,,,,,,,,,,,,,,,,,,,,,,,,,,,,,,,,,,,,,,,,,,,,,,,,,,,,,,,,,,,,,,,,,,,,,,,,,,,,,,,,,,,,,,,,,,,,,,,,,,,,,,,,,,,,,,,,,,,,,,,,,,,,,,,,
,,5bdf91dbb32fa800012ea282,2024-02-18_21h45.35.221,kallum_motion_pilot,2023.2.2,Win32,59.88023952,5bdf91dbb32fa800012ea282,65d2b6c8f2eece985d8e374c,65d2cec1cf2bb0e35ac172c4,0.0333,0.0334,1,53,215,73,1,onethree,,,,,,,,,,,,,,,,,,,,,,,,,,,,,,,,,,,,,,,,,,,,,,,,,,,,,,,,,,,,,,,,,,,,,,,,,,,,,,,,,,,,,,,,,,,,,,,,,,,,,,,,,,,,,,,,,,,,,,,,,,,,,,,,,,,,,,,,,
,,5bdf91dbb32fa800012ea282,2024-02-18_21h45.35.221,kallum_motion_pilot,2023.2.2,Win32,59.88023952,5bdf91dbb32fa800012ea282,65d2b6c8f2eece985d8e374c,65d2cec1cf2bb0e35ac172c4,0.0334,0.0335,1,54,216,154,1,sixfive,,,,,,,,,,,,,,,,,,,,,,,,,,,,,,,,,,,,,,,,,,,,,,,,,,,,,,,,,,,,,,,,,,,,,,,,,,,,,,,,,,,,,,,,,,,,,,,,,,,,,,,,,,,,,,,,,,,,,,,,,,,,,,,,,,,,,,,,,
,,5bdf91dbb32fa800012ea282,2024-02-18_21h45.35.221,kallum_motion_pilot,2023.2.2,Win32,59.88023952,5bdf91dbb32fa800012ea282,65d2b6c8f2eece985d8e374c,65d2cec1cf2bb0e35ac172c4,0.0335,0.0336,1,55,217,139,1,sixeight,,,,,,,,,,,,,,,,,,,,,,,,,,,,,,,,,,,,,,,,,,,,,,,,,,,,,,,,,,,,,,,,,,,,,,,,,,,,,,,,,,,,,,,,,,,,,,,,,,,,,,,,,,,,,,,,,,,,,,,,,,,,,,,,,,,,,,,,,
,,5bdf91dbb32fa800012ea282,2024-02-18_21h45.35.221,kallum_motion_pilot,2023.2.2,Win32,59.88023952,5bdf91dbb32fa800012ea282,65d2b6c8f2eece985d8e374c,65d2cec1cf2bb0e35ac172c4,0.0336,0.0336,1,56,218,107,1,sixeight,,,,,,,,,,,,,,,,,,,,,,,,,,,,,,,,,,,,,,,,,,,,,,,,,,,,,,,,,,,,,,,,,,,,,,,,,,,,,,,,,,,,,,,,,,,,,,,,,,,,,,,,,,,,,,,,,,,,,,,,,,,,,,,,,,,,,,,,,
,,5bdf91dbb32fa800012ea282,2024-02-18_21h45.35.221,kallum_motion_pilot,2023.2.2,Win32,59.88023952,5bdf91dbb32fa800012ea282,65d2b6c8f2eece985d8e374c,65d2cec1cf2bb0e35ac172c4,0.0337,0.0337,1,57,219,10,1,twoone,,,,,,,,,,,,,,,,,,,,,,,,,,,,,,,,,,,,,,,,,,,,,,,,,,,,,,,,,,,,,,,,,,,,,,,,,,,,,,,,,,,,,,,,,,,,,,,,,,,,,,,,,,,,,,,,,,,,,,,,,,,,,,,,,,,,,,,,,
,,5bdf91dbb32fa800012ea282,2024-02-18_21h45.35.221,kallum_motion_pilot,2023.2.2,Win32,59.88023952,5bdf91dbb32fa800012ea282,65d2b6c8f2eece985d8e374c,65d2cec1cf2bb0e35ac172c4,0.0339,0.0339,1,58,220,2,1,twoone,,,,,,,,,,,,,,,,,,,,,,,,,,,,,,,,,,,,,,,,,,,,,,,,,,,,,,,,,,,,,,,,,,,,,,,,,,,,,,,,,,,,,,,,,,,,,,,,,,,,,,,,,,,,,,,,,,,,,,,,,,,,,,,,,,,,,,,,,
,,5bdf91dbb32fa800012ea282,2024-02-18_21h45.35.221,kallum_motion_pilot,2023.2.2,Win32,59.88023952,5bdf91dbb32fa800012ea282,65d2b6c8f2eece985d8e374c,65d2cec1cf2bb0e35ac172c4,0.034,0.034,1,59,221,17,1,onethree,,,,,,,,,,,,,,,,,,,,,,,,,,,,,,,,,,,,,,,,,,,,,,,,,,,,,,,,,,,,,,,,,,,,,,,,,,,,,,,,,,,,,,,,,,,,,,,,,,,,,,,,,,,,,,,,,,,,,,,,,,,,,,,,,,,,,,,,,
,,5bdf91dbb32fa800012ea282,2024-02-18_21h45.35.221,kallum_motion_pilot,2023.2.2,Win32,59.88023952,5bdf91dbb32fa800012ea282,65d2b6c8f2eece985d8e374c,65d2cec1cf2bb0e35ac172c4,0.034,0.0341,1,60,222,58,1,twoone,,,,,,,,,,,,,,,,,,,,,,,,,,,,,,,,,,,,,,,,,,,,,,,,,,,,,,,,,,,,,,,,,,,,,,,,,,,,,,,,,,,,,,,,,,,,,,,,,,,,,,,,,,,,,,,,,,,,,,,,,,,,,,,,,,,,,,,,,
,,5bdf91dbb32fa800012ea282,2024-02-18_21h45.35.221,kallum_motion_pilot,2023.2.2,Win32,59.88023952,5bdf91dbb32fa800012ea282,65d2b6c8f2eece985d8e374c,65d2cec1cf2bb0e35ac172c4,0.0342,0.0342,1,61,223,114,1,sixfive,,,,,,,,,,,,,,,,,,,,,,,,,,,,,,,,,,,,,,,,,,,,,,,,,,,,,,,,,,,,,,,,,,,,,,,,,,,,,,,,,,,,,,,,,,,,,,,,,,,,,,,,,,,,,,,,,,,,,,,,,,,,,,,,,,,,,,,,,
,,5bdf91dbb32fa800012ea282,2024-02-18_21h45.35.221,kallum_motion_pilot,2023.2.2,Win32,59.88023952,5bdf91dbb32fa800012ea282,65d2b6c8f2eece985d8e374c,65d2cec1cf2bb0e35ac172c4,0.0342,0.0343,1,62,224,21,1,threefour,,,,,,,,,,,,,,,,,,,,,,,,,,,,,,,,,,,,,,,,,,,,,,,,,,,,,,,,,,,,,,,,,,,,,,,,,,,,,,,,,,,,,,,,,,,,,,,,,,,,,,,,,,,,,,,,,,,,,,,,,,,,,,,,,,,,,,,,,
,,5bdf91dbb32fa800012ea282,2024-02-18_21h45.35.221,kallum_motion_pilot,2023.2.2,Win32,59.88023952,5bdf91dbb32fa800012ea282,65d2b6c8f2eece985d8e374c,65d2cec1cf2bb0e35ac172c4,0.0344,0.0344,1,63,225,28,1,threeone,,,,,,,,,,,,,,,,,,,,,,,,,,,,,,,,,,,,,,,,,,,,,,,,,,,,,,,,,,,,,,,,,,,,,,,,,,,,,,,,,,,,,,,,,,,,,,,,,,,,,,,,,,,,,,,,,,,,,,,,,,,,,,,,,,,,,,,,,
,,5bdf91dbb32fa800012ea282,2024-02-18_21h45.35.221,kallum_motion_pilot,2023.2.2,Win32,59.88023952,5bdf91dbb32fa800012ea282,65d2b6c8f2eece985d8e374c,65d2cec1cf2bb0e35ac172c4,0.0344,0.0345,1,64,226,156,1,sevenfive,,,,,,,,,,,,,,,,,,,,,,,,,,,,,,,,,,,,,,,,,,,,,,,,,,,,,,,,,,,,,,,,,,,,,,,,,,,,,,,,,,,,,,,,,,,,,,,,,,,,,,,,,,,,,,,,,,,,,,,,,,,,,,,,,,,,,,,,,
,,5bdf91dbb32fa800012ea282,2024-02-18_21h45.35.221,kallum_motion_pilot,2023.2.2,Win32,59.88023952,5bdf91dbb32fa800012ea282,65d2b6c8f2eece985d8e374c,65d2cec1cf2bb0e35ac172c4,0.0345,0.0345,1,65,227,40,1,onetwo,,,,,,,,,,,,,,,,,,,,,,,,,,,,,,,,,,,,,,,,,,,,,,,,,,,,,,,,,,,,,,,,,,,,,,,,,,,,,,,,,,,,,,,,,,,,,,,,,,,,,,,,,,,,,,,,,,,,,,,,,,,,,,,,,,,,,,,,,
,,5bdf91dbb32fa800012ea282,2024-02-18_21h45.35.221,kallum_motion_pilot,2023.2.2,Win32,59.88023952,5bdf91dbb32fa800012ea282,65d2b6c8f2eece985d8e374c,65d2cec1cf2bb0e35ac172c4,0.0346,0.0347,1,66,228,15,1,fourthree,,,,,,,,,,,,,,,,,,,,,,,,,,,,,,,,,,,,,,,,,,,,,,,,,,,,,,,,,,,,,,,,,,,,,,,,,,,,,,,,,,,,,,,,,,,,,,,,,,,,,,,,,,,,,,,,,,,,,,,,,,,,,,,,,,,,,,,,,
,,5bdf91dbb32fa800012ea282,2024-02-18_21h45.35.221,kallum_motion_pilot,2023.2.2,Win32,59.88023952,5bdf91dbb32fa800012ea282,65d2b6c8f2eece985d8e374c,65d2cec1cf2bb0e35ac172c4,0.0347,0.0347,1,67,229,84,1,sevenfive,,,,,,,,,,,,,,,,,,,,,,,,,,,,,,,,,,,,,,,,,,,,,,,,,,,,,,,,,,,,,,,,,,,,,,,,,,,,,,,,,,,,,,,,,,,,,,,,,,,,,,,,,,,,,,,,,,,,,,,,,,,,,,,,,,,,,,,,,
,,5bdf91dbb32fa800012ea282,2024-02-18_21h45.35.221,kallum_motion_pilot,2023.2.2,Win32,59.88023952,5bdf91dbb32fa800012ea282,65d2b6c8f2eece985d8e374c,65d2cec1cf2bb0e35ac172c4,0.0347,0.0349,1,68,230,106,1,sixfive,,,,,,,,,,,,,,,,,,,,,,,,,,,,,,,,,,,,,,,,,,,,,,,,,,,,,,,,,,,,,,,,,,,,,,,,,,,,,,,,,,,,,,,,,,,,,,,,,,,,,,,,,,,,,,,,,,,,,,,,,,,,,,,,,,,,,,,,,
,,5bdf91dbb32fa800012ea282,2024-02-18_21h45.35.221,kallum_motion_pilot,2023.2.2,Win32,59.88023952,5bdf91dbb32fa800012ea282,65d2b6c8f2eece985d8e374c,65d2cec1cf2bb0e35ac172c4,0.0349,0.035,1,69,231,26,1,twoone,,,,,,,,,,,,,,,,,,,,,,,,,,,,,,,,,,,,,,,,,,,,,,,,,,,,,,,,,,,,,,,,,,,,,,,,,,,,,,,,,,,,,,,,,,,,,,,,,,,,,,,,,,,,,,,,,,,,,,,,,,,,,,,,,,,,,,,,,
,,5bdf91dbb32fa800012ea282,2024-02-18_21h45.35.221,kallum_motion_pilot,2023.2.2,Win32,59.88023952,5bdf91dbb32fa800012ea282,65d2b6c8f2eece985d8e374c,65d2cec1cf2bb0e35ac172c4,0.0351,0.0351,1,70,232,76,1,threeone,,,,,,,,,,,,,,,,,,,,,,,,,,,,,,,,,,,,,,,,,,,,,,,,,,,,,,,,,,,,,,,,,,,,,,,,,,,,,,,,,,,,,,,,,,,,,,,,,,,,,,,,,,,,,,,,,,,,,,,,,,,,,,,,,,,,,,,,,
,,5bdf91dbb32fa800012ea282,2024-02-18_21h45.35.221,kallum_motion_pilot,2023.2.2,Win32,59.88023952,5bdf91dbb32fa800012ea282,65d2b6c8f2eece985d8e374c,65d2cec1cf2bb0e35ac172c4,0.0351,0.0351,1,71,233,38,1,fourtwo,,,,,,,,,,,,,,,,,,,,,,,,,,,,,,,,,,,,,,,,,,,,,,,,,,,,,,,,,,,,,,,,,,,,,,,,,,,,,,,,,,,,,,,,,,,,,,,,,,,,,,,,,,,,,,,,,,,,,,,,,,,,,,,,,,,,,,,,,
,,5bdf91dbb32fa800012ea282,2024-02-18_21h45.35.221,kallum_motion_pilot,2023.2.2,Win32,59.88023952,5bdf91dbb32fa800012ea282,65d2b6c8f2eece985d8e374c,65d2cec1cf2bb0e35ac172c4,0.0352,0.0353,1,72,234,147,1,sixeight,,,,,,,,,,,,,,,,,,,,,,,,,,,,,,,,,,,,,,,,,,,,,,,,,,,,,,,,,,,,,,,,,,,,,,,,,,,,,,,,,,,,,,,,,,,,,,,,,,,,,,,,,,,,,,,,,,,,,,,,,,,,,,,,,,,,,,,,,
,,5bdf91dbb32fa800012ea282,2024-02-18_21h45.35.221,kallum_motion_pilot,2023.2.2,Win32,59.88023952,5bdf91dbb32fa800012ea282,65d2b6c8f2eece985d8e374c,65d2cec1cf2bb0e35ac172c4,0.0353,0.0354,1,73,235,42,1,twoone,,,,,,,,,,,,,,,,,,,,,,,,,,,,,,,,,,,,,,,,,,,,,,,,,,,,,,,,,,,,,,,,,,,,,,,,,,,,,,,,,,,,,,,,,,,,,,,,,,,,,,,,,,,,,,,,,,,,,,,,,,,,,,,,,,,,,,,,,
,,5bdf91dbb32fa800012ea282,2024-02-18_21h45.35.221,kallum_motion_pilot,2023.2.2,Win32,59.88023952,5bdf91dbb32fa800012ea282,65d2b6c8f2eece985d8e374c,65d2cec1cf2bb0e35ac172c4,0.0354,0.0355,1,74,236,53,1,threefour,,,,,,,,,,,,,,,,,,,,,,,,,,,,,,,,,,,,,,,,,,,,,,,,,,,,,,,,,,,,,,,,,,,,,,,,,,,,,,,,,,,,,,,,,,,,,,,,,,,,,,,,,,,,,,,,,,,,,,,,,,,,,,,,,,,,,,,,,
,,5bdf91dbb32fa800012ea282,2024-02-18_21h45.35.221,kallum_motion_pilot,2023.2.2,Win32,59.88023952,5bdf91dbb32fa800012ea282,65d2b6c8f2eece985d8e374c,65d2cec1cf2bb0e35ac172c4,0.0355,0.0356,1,75,237,131,1,sixeight,,,,,,,,,,,,,,,,,,,,,,,,,,,,,,,,,,,,,,,,,,,,,,,,,,,,,,,,,,,,,,,,,,,,,,,,,,,,,,,,,,,,,,,,,,,,,,,,,,,,,,,,,,,,,,,,,,,,,,,,,,,,,,,,,,,,,,,,,
,,5bdf91dbb32fa800012ea282,2024-02-18_21h45.35.221,kallum_motion_pilot,2023.2.2,Win32,59.88023952,5bdf91dbb32fa800012ea282,65d2b6c8f2eece985d8e374c,65d2cec1cf2bb0e35ac172c4,0.0356,0.0356,1,76,238,79,1,eightseven,,,,,,,,,,,,,,,,,,,,,,,,,,,,,,,,,,,,,,,,,,,,,,,,,,,,,,,,,,,,,,,,,,,,,,,,,,,,,,,,,,,,,,,,,,,,,,,,,,,,,,,,,,,,,,,,,,,,,,,,,,,,,,,,,,,,,,,,,
,,5bdf91dbb32fa800012ea282,2024-02-18_21h45.35.221,kallum_motion_pilot,2023.2.2,Win32,59.88023952,5bdf91dbb32fa800012ea282,65d2b6c8f2eece985d8e374c,65d2cec1cf2bb0e35ac172c4,0.0356,0.0357,1,77,239,44,1,threeone,,,,,,,,,,,,,,,,,,,,,,,,,,,,,,,,,,,,,,,,,,,,,,,,,,,,,,,,,,,,,,,,,,,,,,,,,,,,,,,,,,,,,,,,,,,,,,,,,,,,,,,,,,,,,,,,,,,,,,,,,,,,,,,,,,,,,,,,,
,,5bdf91dbb32fa800012ea282,2024-02-18_21h45.35.221,kallum_motion_pilot,2023.2.2,Win32,59.88023952,5bdf91dbb32fa800012ea282,65d2b6c8f2eece985d8e374c,65d2cec1cf2bb0e35ac172c4,0.0358,0.0358,1,78,240,85,1,seveneight,,,,,,,,,,,,,,,,,,,,,,,,,,,,,,,,,,,,,,,,,,,,,,,,,,,,,,,,,,,,,,,,,,,,,,,,,,,,,,,,,,,,,,,,,,,,,,,,,,,,,,,,,,,,,,,,,,,,,,,,,,,,,,,,,,,,,,,,,
,,5bdf91dbb32fa800012ea282,2024-02-18_21h45.35.221,kallum_motion_pilot,2023.2.2,Win32,59.88023952,5bdf91dbb32fa800012ea282,65d2b6c8f2eece985d8e374c,65d2cec1cf2bb0e35ac172c4,0.0358,0.0359,1,79,241,69,1,threefour,,,,,,,,,,,,,,,,,,,,,,,,,,,,,,,,,,,,,,,,,,,,,,,,,,,,,,,,,,,,,,,,,,,,,,,,,,,,,,,,,,,,,,,,,,,,,,,,,,,,,,,,,,,,,,,,,,,,,,,,,,,,,,,,,,,,,,,,,
,,5bdf91dbb32fa800012ea282,2024-02-18_21h45.35.221,kallum_motion_pilot,2023.2.2,Win32,59.88023952,5bdf91dbb32fa800012ea282,65d2b6c8f2eece985d8e374c,65d2cec1cf2bb0e35ac172c4,0.0359,0.0359,1,80,242,98,1,sixfive,,,,,,,,,,,,,,,,,,,,,,,,,,,,,,,,,,,,,,,,,,,,,,,,,,,,,,,,,,,,,,,,,,,,,,,,,,,,,,,,,,,,,,,,,,,,,,,,,,,,,,,,,,,,,,,,,,,,,,,,,,,,,,,,,,,,,,,,,
,,5bdf91dbb32fa800012ea282,2024-02-18_21h45.35.221,kallum_motion_pilot,2023.2.2,Win32,59.88023952,5bdf91dbb32fa800012ea282,65d2b6c8f2eece985d8e374c,65d2cec1cf2bb0e35ac172c4,0.036,0.0361,1,81,243,23,1,fourthree,,,,,,,,,,,,,,,,,,,,,,,,,,,,,,,,,,,,,,,,,,,,,,,,,,,,,,,,,,,,,,,,,,,,,,,,,,,,,,,,,,,,,,,,,,,,,,,,,,,,,,,,,,,,,,,,,,,,,,,,,,,,,,,,,,,,,,,,,
,,5bdf91dbb32fa800012ea282,2024-02-18_21h45.35.221,kallum_motion_pilot,2023.2.2,Win32,59.88023952,5bdf91dbb32fa800012ea282,65d2b6c8f2eece985d8e374c,65d2cec1cf2bb0e35ac172c4,0.0361,0.0362,1,82,244,105,1,fiveseven,,,,,,,,,,,,,,,,,,,,,,,,,,,,,,,,,,,,,,,,,,,,,,,,,,,,,,,,,,,,,,,,,,,,,,,,,,,,,,,,,,,,,,,,,,,,,,,,,,,,,,,,,,,,,,,,,,,,,,,,,,,,,,,,,,,,,,,,,
,,5bdf91dbb32fa800012ea282,2024-02-18_21h45.35.221,kallum_motion_pilot,2023.2.2,Win32,59.88023952,5bdf91dbb32fa800012ea282,65d2b6c8f2eece985d8e374c,65d2cec1cf2bb0e35ac172c4,0.0362,0.0362,1,83,245,97,1,fiveseven,,,,,,,,,,,,,,,,,,,,,,,,,,,,,,,,,,,,,,,,,,,,,,,,,,,,,,,,,,,,,,,,,,,,,,,,,,,,,,,,,,,,,,,,,,,,,,,,,,,,,,,,,,,,,,,,,,,,,,,,,,,,,,,,,,,,,,,,,
,,5bdf91dbb32fa800012ea282,2024-02-18_21h45.35.221,kallum_motion_pilot,2023.2.2,Win32,59.88023952,5bdf91dbb32fa800012ea282,65d2b6c8f2eece985d8e374c,65d2cec1cf2bb0e35ac172c4,0.0363,0.0363,1,84,246,159,1,eightseven,,,,,,,,,,,,,,,,,,,,,,,,,,,,,,,,,,,,,,,,,,,,,,,,,,,,,,,,,,,,,,,,,,,,,,,,,,,,,,,,,,,,,,,,,,,,,,,,,,,,,,,,,,,,,,,,,,,,,,,,,,,,,,,,,,,,,,,,,
,,5bdf91dbb32fa800012ea282,2024-02-18_21h45.35.221,kallum_motion_pilot,2023.2.2,Win32,59.88023952,5bdf91dbb32fa800012ea282,65d2b6c8f2eece985d8e374c,65d2cec1cf2bb0e35ac172c4,0.0363,0.0364,1,85,247,120,1,fivesix,,,,,,,,,,,,,,,,,,,,,,,,,,,,,,,,,,,,,,,,,,,,,,,,,,,,,,,,,,,,,,,,,,,,,,,,,,,,,,,,,,,,,,,,,,,,,,,,,,,,,,,,,,,,,,,,,,,,,,,,,,,,,,,,,,,,,,,,,
,,5bdf91dbb32fa800012ea282,2024-02-18_21h45.35.221,kallum_motion_pilot,2023.2.2,Win32,59.88023952,5bdf91dbb32fa800012ea282,65d2b6c8f2eece985d8e374c,65d2cec1cf2bb0e35ac172c4,0.0365,0.0365,1,86,248,137,1,fiveseven,,,,,,,,,,,,,,,,,,,,,,,,,,,,,,,,,,,,,,,,,,,,,,,,,,,,,,,,,,,,,,,,,,,,,,,,,,,,,,,,,,,,,,,,,,,,,,,,,,,,,,,,,,,,,,,,,,,,,,,,,,,,,,,,,,,,,,,,,
,,5bdf91dbb32fa800012ea282,2024-02-18_21h45.35.221,kallum_motion_pilot,2023.2.2,Win32,59.88023952,5bdf91dbb32fa800012ea282,65d2b6c8f2eece985d8e374c,65d2cec1cf2bb0e35ac172c4,0.0365,0.0365,1,87,249,146,1,sixfive,,,,,,,,,,,,,,,,,,,,,,,,,,,,,,,,,,,,,,,,,,,,,,,,,,,,,,,,,,,,,,,,,,,,,,,,,,,,,,,,,,,,,,,,,,,,,,,,,,,,,,,,,,,,,,,,,,,,,,,,,,,,,,,,,,,,,,,,,
,,5bdf91dbb32fa800012ea282,2024-02-18_21h45.35.221,kallum_motion_pilot,2023.2.2,Win32,59.88023952,5bdf91dbb32fa800012ea282,65d2b6c8f2eece985d8e374c,65d2cec1cf2bb0e35ac172c4,0.0366,0.0366,1,88,250,78,1,fourtwo,,,,,,,,,,,,,,,,,,,,,,,,,,,,,,,,,,,,,,,,,,,,,,,,,,,,,,,,,,,,,,,,,,,,,,,,,,,,,,,,,,,,,,,,,,,,,,,,,,,,,,,,,,,,,,,,,,,,,,,,,,,,,,,,,,,,,,,,,
,,5bdf91dbb32fa800012ea282,2024-02-18_21h45.35.221,kallum_motion_pilot,2023.2.2,Win32,59.88023952,5bdf91dbb32fa800012ea282,65d2b6c8f2eece985d8e374c,65d2cec1cf2bb0e35ac172c4,0.0367,0.0367,1,89,251,116,1,sevenfive,,,,,,,,,,,,,,,,,,,,,,,,,,,,,,,,,,,,,,,,,,,,,,,,,,,,,,,,,,,,,,,,,,,,,,,,,,,,,,,,,,,,,,,,,,,,,,,,,,,,,,,,,,,,,,,,,,,,,,,,,,,,,,,,,,,,,,,,,
,,5bdf91dbb32fa800012ea282,2024-02-18_21h45.35.221,kallum_motion_pilot,2023.2.2,Win32,59.88023952,5bdf91dbb32fa800012ea282,65d2b6c8f2eece985d8e374c,65d2cec1cf2bb0e35ac172c4,0.0368,0.0368,1,90,252,14,1,fourtwo,,,,,,,,,,,,,,,,,,,,,,,,,,,,,,,,,,,,,,,,,,,,,,,,,,,,,,,,,,,,,,,,,,,,,,,,,,,,,,,,,,,,,,,,,,,,,,,,,,,,,,,,,,,,,,,,,,,,,,,,,,,,,,,,,,,,,,,,,
,,5bdf91dbb32fa800012ea282,2024-02-18_21h45.35.221,kallum_motion_pilot,2023.2.2,Win32,59.88023952,5bdf91dbb32fa800012ea282,65d2b6c8f2eece985d8e374c,65d2cec1cf2bb0e35ac172c4,0.0371,0.0371,1,91,253,18,1,twoone,,,,,,,,,,,,,,,,,,,,,,,,,,,,,,,,,,,,,,,,,,,,,,,,,,,,,,,,,,,,,,,,,,,,,,,,,,,,,,,,,,,,,,,,,,,,,,,,,,,,,,,,,,,,,,,,,,,,,,,,,,,,,,,,,,,,,,,,,
,,5bdf91dbb32fa800012ea282,2024-02-18_21h45.35.221,kallum_motion_pilot,2023.2.2,Win32,59.88023952,5bdf91dbb32fa800012ea282,65d2b6c8f2eece985d8e374c,65d2cec1cf2bb0e35ac172c4,0.0372,0.0373,1,92,254,104,1,fivesix,,,,,,,,,,,,,,,,,,,,,,,,,,,,,,,,,,,,,,,,,,,,,,,,,,,,,,,,,,,,,,,,,,,,,,,,,,,,,,,,,,,,,,,,,,,,,,,,,,,,,,,,,,,,,,,,,,,,,,,,,,,,,,,,,,,,,,,,,
,,5bdf91dbb32fa800012ea282,2024-02-18_21h45.35.221,kallum_motion_pilot,2023.2.2,Win32,59.88023952,5bdf91dbb32fa800012ea282,65d2b6c8f2eece985d8e374c,65d2cec1cf2bb0e35ac172c4,0.0374,0.0374,1,93,255,49,1,onethree,,,,,,,,,,,,,,,,,,,,,,,,,,,,,,,,,,,,,,,,,,,,,,,,,,,,,,,,,,,,,,,,,,,,,,,,,,,,,,,,,,,,,,,,,,,,,,,,,,,,,,,,,,,,,,,,,,,,,,,,,,,,,,,,,,,,,,,,,
,,5bdf91dbb32fa800012ea282,2024-02-18_21h45.35.221,kallum_motion_pilot,2023.2.2,Win32,59.88023952,5bdf91dbb32fa800012ea282,65d2b6c8f2eece985d8e374c,65d2cec1cf2bb0e35ac172c4,0.0375,0.0376,1,94,256,9,1,onethree,,,,,,,,,,,,,,,,,,,,,,,,,,,,,,,,,,,,,,,,,,,,,,,,,,,,,,,,,,,,,,,,,,,,,,,,,,,,,,,,,,,,,,,,,,,,,,,,,,,,,,,,,,,,,,,,,,,,,,,,,,,,,,,,,,,,,,,,,
,,5bdf91dbb32fa800012ea282,2024-02-18_21h45.35.221,kallum_motion_pilot,2023.2.2,Win32,59.88023952,5bdf91dbb32fa800012ea282,65d2b6c8f2eece985d8e374c,65d2cec1cf2bb0e35ac172c4,0.0376,0.0376,1,95,257,142,1,eightsix,,,,,,,,,,,,,,,,,,,,,,,,,,,,,,,,,,,,,,,,,,,,,,,,,,,,,,,,,,,,,,,,,,,,,,,,,,,,,,,,,,,,,,,,,,,,,,,,,,,,,,,,,,,,,,,,,,,,,,,,,,,,,,,,,,,,,,,,,
,,5bdf91dbb32fa800012ea282,2024-02-18_21h45.35.221,kallum_motion_pilot,2023.2.2,Win32,59.88023952,5bdf91dbb32fa800012ea282,65d2b6c8f2eece985d8e374c,65d2cec1cf2bb0e35ac172c4,0.0377,0.0377,1,96,258,109,1,seveneight,,,,,,,,,,,,,,,,,,,,,,,,,,,,,,,,,,,,,,,,,,,,,,,,,,,,,,,,,,,,,,,,,,,,,,,,,,,,,,,,,,,,,,,,,,,,,,,,,,,,,,,,,,,,,,,,,,,,,,,,,,,,,,,,,,,,,,,,,
,,5bdf91dbb32fa800012ea282,2024-02-18_21h45.35.221,kallum_motion_pilot,2023.2.2,Win32,59.88023952,5bdf91dbb32fa800012ea282,65d2b6c8f2eece985d8e374c,65d2cec1cf2bb0e35ac172c4,0.0378,0.0378,1,97,259,118,1,eightsix,,,,,,,,,,,,,,,,,,,,,,,,,,,,,,,,,,,,,,,,,,,,,,,,,,,,,,,,,,,,,,,,,,,,,,,,,,,,,,,,,,,,,,,,,,,,,,,,,,,,,,,,,,,,,,,,,,,,,,,,,,,,,,,,,,,,,,,,,
,,5bdf91dbb32fa800012ea282,2024-02-18_21h45.35.221,kallum_motion_pilot,2023.2.2,Win32,59.88023952,5bdf91dbb32fa800012ea282,65d2b6c8f2eece985d8e374c,65d2cec1cf2bb0e35ac172c4,0.038,0.038,1,98,260,138,1,sixfive,,,,,,,,,,,,,,,,,,,,,,,,,,,,,,,,,,,,,,,,,,,,,,,,,,,,,,,,,,,,,,,,,,,,,,,,,,,,,,,,,,,,,,,,,,,,,,,,,,,,,,,,,,,,,,,,,,,,,,,,,,,,,,,,,,,,,,,,,
,,5bdf91dbb32fa800012ea282,2024-02-18_21h45.35.221,kallum_motion_pilot,2023.2.2,Win32,59.88023952,5bdf91dbb32fa800012ea282,65d2b6c8f2eece985d8e374c,65d2cec1cf2bb0e35ac172c4,0.038,0.0381,1,99,261,81,1,fiveseven,,,,,,,,,,,,,,,,,,,,,,,,,,,,,,,,,,,,,,,,,,,,,,,,,,,,,,,,,,,,,,,,,,,,,,,,,,,,,,,,,,,,,,,,,,,,,,,,,,,,,,,,,,,,,,,,,,,,,,,,,,,,,,,,,,,,,,,,,
,,5bdf91dbb32fa800012ea282,2024-02-18_21h45.35.221,kallum_motion_pilot,2023.2.2,Win32,59.88023952,5bdf91dbb32fa800012ea282,65d2b6c8f2eece985d8e374c,65d2cec1cf2bb0e35ac172c4,0.0381,0.0381,1,100,262,51,1,twofour,,,,,,,,,,,,,,,,,,,,,,,,,,,,,,,,,,,,,,,,,,,,,,,,,,,,,,,,,,,,,,,,,,,,,,,,,,,,,,,,,,,,,,,,,,,,,,,,,,,,,,,,,,,,,,,,,,,,,,,,,,,,,,,,,,,,,,,,,
,,5bdf91dbb32fa800012ea282,2024-02-18_21h45.35.221,kallum_motion_pilot,2023.2.2,Win32,59.88023952,5bdf91dbb32fa800012ea282,65d2b6c8f2eece985d8e374c,65d2cec1cf2bb0e35ac172c4,0.0382,0.0383,1,101,263,110,1,eightsix,,,,,,,,,,,,,,,,,,,,,,,,,,,,,,,,,,,,,,,,,,,,,,,,,,,,,,,,,,,,,,,,,,,,,,,,,,,,,,,,,,,,,,,,,,,,,,,,,,,,,,,,,,,,,,,,,,,,,,,,,,,,,,,,,,,,,,,,,
,,5bdf91dbb32fa800012ea282,2024-02-18_21h45.35.221,kallum_motion_pilot,2023.2.2,Win32,59.88023952,5bdf91dbb32fa800012ea282,65d2b6c8f2eece985d8e374c,65d2cec1cf2bb0e35ac172c4,0.0383,0.0384,1,102,264,31,1,fourthree,,,,,,,,,,,,,,,,,,,,,,,,,,,,,,,,,,,,,,,,,,,,,,,,,,,,,,,,,,,,,,,,,,,,,,,,,,,,,,,,,,,,,,,,,,,,,,,,,,,,,,,,,,,,,,,,,,,,,,,,,,,,,,,,,,,,,,,,,
,,5bdf91dbb32fa800012ea282,2024-02-18_21h45.35.221,kallum_motion_pilot,2023.2.2,Win32,59.88023952,5bdf91dbb32fa800012ea282,65d2b6c8f2eece985d8e374c,65d2cec1cf2bb0e35ac172c4,0.0385,0.0385,1,103,265,136,1,fivesix,,,,,,,,,,,,,,,,,,,,,,,,,,,,,,,,,,,,,,,,,,,,,,,,,,,,,,,,,,,,,,,,,,,,,,,,,,,,,,,,,,,,,,,,,,,,,,,,,,,,,,,,,,,,,,,,,,,,,,,,,,,,,,,,,,,,,,,,,
,,5bdf91dbb32fa800012ea282,2024-02-18_21h45.35.221,kallum_motion_pilot,2023.2.2,Win32,59.88023952,5bdf91dbb32fa800012ea282,65d2b6c8f2eece985d8e374c,65d2cec1cf2bb0e35ac172c4,0.0385,0.0386,1,104,266,36,1,threeone,,,,,,,,,,,,,,,,,,,,,,,,,,,,,,,,,,,,,,,,,,,,,,,,,,,,,,,,,,,,,,,,,,,,,,,,,,,,,,,,,,,,,,,,,,,,,,,,,,,,,,,,,,,,,,,,,,,,,,,,,,,,,,,,,,,,,,,,,
,,5bdf91dbb32fa800012ea282,2024-02-18_21h45.35.221,kallum_motion_pilot,2023.2.2,Win32,59.88023952,5bdf91dbb32fa800012ea282,65d2b6c8f2eece985d8e374c,65d2cec1cf2bb0e35ac172c4,0.0386,0.0387,1,105,267,121,1,fiveseven,,,,,,,,,,,,,,,,,,,,,,,,,,,,,,,,,,,,,,,,,,,,,,,,,,,,,,,,,,,,,,,,,,,,,,,,,,,,,,,,,,,,,,,,,,,,,,,,,,,,,,,,,,,,,,,,,,,,,,,,,,,,,,,,,,,,,,,,,
,,5bdf91dbb32fa800012ea282,2024-02-18_21h45.35.221,kallum_motion_pilot,2023.2.2,Win32,59.88023952,5bdf91dbb32fa800012ea282,65d2b6c8f2eece985d8e374c,65d2cec1cf2bb0e35ac172c4,0.0387,0.0387,1,106,268,160,1,fivesix,,,,,,,,,,,,,,,,,,,,,,,,,,,,,,,,,,,,,,,,,,,,,,,,,,,,,,,,,,,,,,,,,,,,,,,,,,,,,,,,,,,,,,,,,,,,,,,,,,,,,,,,,,,,,,,,,,,,,,,,,,,,,,,,,,,,,,,,,
,,5bdf91dbb32fa800012ea282,2024-02-18_21h45.35.221,kallum_motion_pilot,2023.2.2,Win32,59.88023952,5bdf91dbb32fa800012ea282,65d2b6c8f2eece985d8e374c,65d2cec1cf2bb0e35ac172c4,0.0388,0.0388,1,107,269,90,1,sixfive,,,,,,,,,,,,,,,,,,,,,,,,,,,,,,,,,,,,,,,,,,,,,,,,,,,,,,,,,,,,,,,,,,,,,,,,,,,,,,,,,,,,,,,,,,,,,,,,,,,,,,,,,,,,,,,,,,,,,,,,,,,,,,,,,,,,,,,,,
,,5bdf91dbb32fa800012ea282,2024-02-18_21h45.35.221,kallum_motion_pilot,2023.2.2,Win32,59.88023952,5bdf91dbb32fa800012ea282,65d2b6c8f2eece985d8e374c,65d2cec1cf2bb0e35ac172c4,0.0389,0.039,1,108,270,141,1,seveneight,,,,,,,,,,,,,,,,,,,,,,,,,,,,,,,,,,,,,,,,,,,,,,,,,,,,,,,,,,,,,,,,,,,,,,,,,,,,,,,,,,,,,,,,,,,,,,,,,,,,,,,,,,,,,,,,,,,,,,,,,,,,,,,,,,,,,,,,,
,,5bdf91dbb32fa800012ea282,2024-02-18_21h45.35.221,kallum_motion_pilot,2023.2.2,Win32,59.88023952,5bdf91dbb32fa800012ea282,65d2b6c8f2eece985d8e374c,65d2cec1cf2bb0e35ac172c4,0.039,0.039,1,109,271,12,1,threeone,,,,,,,,,,,,,,,,,,,,,,,,,,,,,,,,,,,,,,,,,,,,,,,,,,,,,,,,,,,,,,,,,,,,,,,,,,,,,,,,,,,,,,,,,,,,,,,,,,,,,,,,,,,,,,,,,,,,,,,,,,,,,,,,,,,,,,,,,
,,5bdf91dbb32fa800012ea282,2024-02-18_21h45.35.221,kallum_motion_pilot,2023.2.2,Win32,59.88023952,5bdf91dbb32fa800012ea282,65d2b6c8f2eece985d8e374c,65d2cec1cf2bb0e35ac172c4,0.0391,0.0391,1,110,272,74,1,twoone,,,,,,,,,,,,,,,,,,,,,,,,,,,,,,,,,,,,,,,,,,,,,,,,,,,,,,,,,,,,,,,,,,,,,,,,,,,,,,,,,,,,,,,,,,,,,,,,,,,,,,,,,,,,,,,,,,,,,,,,,,,,,,,,,,,,,,,,,
,,5bdf91dbb32fa800012ea282,2024-02-18_21h45.35.221,kallum_motion_pilot,2023.2.2,Win32,59.88023952,5bdf91dbb32fa800012ea282,65d2b6c8f2eece985d8e374c,65d2cec1cf2bb0e35ac172c4,0.0391,0.0393,1,111,273,132,1,sevenfive,,,,,,,,,,,,,,,,,,,,,,,,,,,,,,,,,,,,,,,,,,,,,,,,,,,,,,,,,,,,,,,,,,,,,,,,,,,,,,,,,,,,,,,,,,,,,,,,,,,,,,,,,,,,,,,,,,,,,,,,,,,,,,,,,,,,,,,,,
,,5bdf91dbb32fa800012ea282,2024-02-18_21h45.35.221,kallum_motion_pilot,2023.2.2,Win32,59.88023952,5bdf91dbb32fa800012ea282,65d2b6c8f2eece985d8e374c,65d2cec1cf2bb0e35ac172c4,0.0393,0.0394,1,112,274,80,1,fivesix,,,,,,,,,,,,,,,,,,,,,,,,,,,,,,,,,,,,,,,,,,,,,,,,,,,,,,,,,,,,,,,,,,,,,,,,,,,,,,,,,,,,,,,,,,,,,,,,,,,,,,,,,,,,,,,,,,,,,,,,,,,,,,,,,,,,,,,,,
,,5bdf91dbb32fa800012ea282,2024-02-18_21h45.35.221,kallum_motion_pilot,2023.2.2,Win32,59.88023952,5bdf91dbb32fa800012ea282,65d2b6c8f2eece985d8e374c,65d2cec1cf2bb0e35ac172c4,0.0394,0.0394,1,113,275,61,1,threefour,,,,,,,,,,,,,,,,,,,,,,,,,,,,,,,,,,,,,,,,,,,,,,,,,,,,,,,,,,,,,,,,,,,,,,,,,,,,,,,,,,,,,,,,,,,,,,,,,,,,,,,,,,,,,,,,,,,,,,,,,,,,,,,,,,,,,,,,,
,,5bdf91dbb32fa800012ea282,2024-02-18_21h45.35.221,kallum_motion_pilot,2023.2.2,Win32,59.88023952,5bdf91dbb32fa800012ea282,65d2b6c8f2eece985d8e374c,65d2cec1cf2bb0e35ac172c4,0.0395,0.0395,1,114,276,3,1,twofour,,,,,,,,,,,,,,,,,,,,,,,,,,,,,,,,,,,,,,,,,,,,,,,,,,,,,,,,,,,,,,,,,,,,,,,,,,,,,,,,,,,,,,,,,,,,,,,,,,,,,,,,,,,,,,,,,,,,,,,,,,,,,,,,,,,,,,,,,
,,5bdf91dbb32fa800012ea282,2024-02-18_21h45.35.221,kallum_motion_pilot,2023.2.2,Win32,59.88023952,5bdf91dbb32fa800012ea282,65d2b6c8f2eece985d8e374c,65d2cec1cf2bb0e35ac172c4,0.0395,0.0396,1,115,277,143,1,eightseven,,,,,,,,,,,,,,,,,,,,,,,,,,,,,,,,,,,,,,,,,,,,,,,,,,,,,,,,,,,,,,,,,,,,,,,,,,,,,,,,,,,,,,,,,,,,,,,,,,,,,,,,,,,,,,,,,,,,,,,,,,,,,,,,,,,,,,,,,
