startup.started,startup.stopped,Prolific ID*,date,expName,psychopyVersion,OS,frameRate,participant,study_id,session,stimpositions.started,stimpositions.stopped,hardcoded_stimulus_positions.thisRepN,hardcoded_stimulus_positions.thisTrialN,hardcoded_stimulus_positions.thisN,hardcoded_stimulus_positions.thisIndex,hardcoded_stimulus_positions.ran,StimulusPos,stimorientation.started,stimorientation.stopped,prac_stimorientation_import_loop.thisRepN,prac_stimorientation_import_loop.thisTrialN,prac_stimorientation_import_loop.thisN,prac_stimorientation_import_loop.thisIndex,prac_stimorientation_import_loop.ran,Stimorientation,welcome_instr.started,welcome_instr.stopped,key_resp.keys,key_resp.rt,key_resp.duration,response_steppedout_1.started,response_steppedout_1.stopped,key_resp_20.keys,key_resp_20.rt,key_resp_20.duration,response_steppedout_2.started,response_steppedout_2.stopped,key_resp_19.keys,key_resp_19.rt,key_resp_19.duration,stim_response_instr.started,stim_response_instr.stopped,key_resp_15.keys,key_resp_15.rt,key_resp_15.duration,direction_instr_2.started,direction_instr_2.stopped,key_resp_9.keys,key_resp_9.rt,key_resp_9.duration,instr_prac.started,instr_prac.stopped,key_resp_10.keys,key_resp_10.rt,key_resp_10.duration,Stim1_display_prac.started,Stim1_display_prac.stopped,Ecc,Circle1_ori,Circle2_ori,response_prac.started,similarity,response_time,response_prac.stopped,mouse_5.x,mouse_5.y,mouse_5.leftButton,mouse_5.midButton,mouse_5.rightButton,mouse_5.clicked_name,responseprac_feedback.started,responseprac_feedback.stopped,summary2_prac.started,summary2_prac.stopped,mouse_6.x,mouse_6.y,mouse_6.leftButton,mouse_6.midButton,mouse_6.rightButton,mouse_6.clicked_name,duringprac.thisRepN,duringprac.thisTrialN,duringprac.thisN,duringprac.thisIndex,duringprac.ran,begin.started,begin.stopped,key_resp_22.keys,key_resp_22.rt,key_resp_22.duration,Stim1_display.started,Stim1_display.stopped,circle1_ori,circle2_ori,circle1_SF,circle2_SF,response.started,response.stopped,mouse.x,mouse.y,mouse.leftButton,mouse.midButton,mouse.rightButton,mouse.clicked_name,trialnumber,double_pass.thisRepN,double_pass.thisTrialN,double_pass.thisN,double_pass.thisIndex,double_pass.ran,double_pass.order,main_trial.thisRepN,main_trial.thisTrialN,main_trial.thisN,main_trial.thisIndex,main_trial.ran,main_trial.order,Trial_Counter,Catch,Frequencies,response_2.started,response_2.stopped,mouse_2.x,mouse_2.y,mouse_2.leftButton,mouse_2.midButton,mouse_2.rightButton,mouse_2.clicked_name,special_trial.started,special_trial.stopped,catch_1.started,catch_1.stopped,mouse_3.x,mouse_3.y,mouse_3.leftButton,mouse_3.midButton,mouse_3.rightButton,catchresponse,catchnumber,response_time_catch,response_sum.started,response_sum.stopped,mouse_11.x,mouse_11.y,mouse_11.leftButton,mouse_11.midButton,mouse_11.rightButton,flip_presentation_sequence_for_double_pass.started,flip_presentation_sequence_for_double_pass.stopped,goodbye.started,goodbye.stopped,key_resp_3.keys,key_resp_3.rt,key_resp_3.duration
0.0019,0.0041,5c0624cf891bb4000121c772,2024-02-21_21h37.16.716,kallum_motion_pilot,2023.2.2,Win32,59.88023952,5c0624cf891bb4000121c772,65d6bb0e977760de756971f7,65d6bfaa0a464a429d9a9195,,,,,,,,,,,,,,,,,,,,,,,,,,,,,,,,,,,,,,,,,,,,,,,,,,,,,,,,,,,,,,,,,,,,,,,,,,,,,,,,,,,,,,,,,,,,,,,,,,,,,,,,,,,,,,,,,,,,,,,,,,,,,,,,,,,,,,,,,,,,,,,,,
,,5c0624cf891bb4000121c772,2024-02-21_21h37.16.716,kallum_motion_pilot,2023.2.2,Win32,59.88023952,5c0624cf891bb4000121c772,65d6bb0e977760de756971f7,65d6bfaa0a464a429d9a9195,0.1136,0.1163,0,0,0,71,1,fourthree,,,,,,,,,,,,,,,,,,,,,,,,,,,,,,,,,,,,,,,,,,,,,,,,,,,,,,,,,,,,,,,,,,,,,,,,,,,,,,,,,,,,,,,,,,,,,,,,,,,,,,,,,,,,,,,,,,,,,,,,,,,,,,,,,,,,,,,,,
,,5c0624cf891bb4000121c772,2024-02-21_21h37.16.716,kallum_motion_pilot,2023.2.2,Win32,59.88023952,5c0624cf891bb4000121c772,65d6bb0e977760de756971f7,65d6bfaa0a464a429d9a9195,0.118,0.1184,0,1,1,103,1,eightseven,,,,,,,,,,,,,,,,,,,,,,,,,,,,,,,,,,,,,,,,,,,,,,,,,,,,,,,,,,,,,,,,,,,,,,,,,,,,,,,,,,,,,,,,,,,,,,,,,,,,,,,,,,,,,,,,,,,,,,,,,,,,,,,,,,,,,,,,,
,,5c0624cf891bb4000121c772,2024-02-21_21h37.16.716,kallum_motion_pilot,2023.2.2,Win32,59.88023952,5c0624cf891bb4000121c772,65d6bb0e977760de756971f7,65d6bfaa0a464a429d9a9195,0.1195,0.1198,0,2,2,152,1,fivesix,,,,,,,,,,,,,,,,,,,,,,,,,,,,,,,,,,,,,,,,,,,,,,,,,,,,,,,,,,,,,,,,,,,,,,,,,,,,,,,,,,,,,,,,,,,,,,,,,,,,,,,,,,,,,,,,,,,,,,,,,,,,,,,,,,,,,,,,,
,,5c0624cf891bb4000121c772,2024-02-21_21h37.16.716,kallum_motion_pilot,2023.2.2,Win32,59.88023952,5c0624cf891bb4000121c772,65d6bb0e977760de756971f7,65d6bfaa0a464a429d9a9195,0.1207,0.1209,0,3,3,151,1,eightseven,,,,,,,,,,,,,,,,,,,,,,,,,,,,,,,,,,,,,,,,,,,,,,,,,,,,,,,,,,,,,,,,,,,,,,,,,,,,,,,,,,,,,,,,,,,,,,,,,,,,,,,,,,,,,,,,,,,,,,,,,,,,,,,,,,,,,,,,,
,,5c0624cf891bb4000121c772,2024-02-21_21h37.16.716,kallum_motion_pilot,2023.2.2,Win32,59.88023952,5c0624cf891bb4000121c772,65d6bb0e977760de756971f7,65d6bfaa0a464a429d9a9195,0.1217,0.1233,0,4,4,35,1,twofour,,,,,,,,,,,,,,,,,,,,,,,,,,,,,,,,,,,,,,,,,,,,,,,,,,,,,,,,,,,,,,,,,,,,,,,,,,,,,,,,,,,,,,,,,,,,,,,,,,,,,,,,,,,,,,,,,,,,,,,,,,,,,,,,,,,,,,,,,
,,5c0624cf891bb4000121c772,2024-02-21_21h37.16.716,kallum_motion_pilot,2023.2.2,Win32,59.88023952,5c0624cf891bb4000121c772,65d6bb0e977760de756971f7,65d6bfaa0a464a429d9a9195,0.1246,0.125,0,5,5,20,1,threeone,,,,,,,,,,,,,,,,,,,,,,,,,,,,,,,,,,,,,,,,,,,,,,,,,,,,,,,,,,,,,,,,,,,,,,,,,,,,,,,,,,,,,,,,,,,,,,,,,,,,,,,,,,,,,,,,,,,,,,,,,,,,,,,,,,,,,,,,,
,,5c0624cf891bb4000121c772,2024-02-21_21h37.16.716,kallum_motion_pilot,2023.2.2,Win32,59.88023952,5c0624cf891bb4000121c772,65d6bb0e977760de756971f7,65d6bfaa0a464a429d9a9195,0.1255,0.1257,0,6,6,115,1,sixeight,,,,,,,,,,,,,,,,,,,,,,,,,,,,,,,,,,,,,,,,,,,,,,,,,,,,,,,,,,,,,,,,,,,,,,,,,,,,,,,,,,,,,,,,,,,,,,,,,,,,,,,,,,,,,,,,,,,,,,,,,,,,,,,,,,,,,,,,,
,,5c0624cf891bb4000121c772,2024-02-21_21h37.16.716,kallum_motion_pilot,2023.2.2,Win32,59.88023952,5c0624cf891bb4000121c772,65d6bb0e977760de756971f7,65d6bfaa0a464a429d9a9195,0.1264,0.1265,0,7,7,141,1,seveneight,,,,,,,,,,,,,,,,,,,,,,,,,,,,,,,,,,,,,,,,,,,,,,,,,,,,,,,,,,,,,,,,,,,,,,,,,,,,,,,,,,,,,,,,,,,,,,,,,,,,,,,,,,,,,,,,,,,,,,,,,,,,,,,,,,,,,,,,,
,,5c0624cf891bb4000121c772,2024-02-21_21h37.16.716,kallum_motion_pilot,2023.2.2,Win32,59.88023952,5c0624cf891bb4000121c772,65d6bb0e977760de756971f7,65d6bfaa0a464a429d9a9195,0.1289,0.1291,0,8,8,70,1,fourtwo,,,,,,,,,,,,,,,,,,,,,,,,,,,,,,,,,,,,,,,,,,,,,,,,,,,,,,,,,,,,,,,,,,,,,,,,,,,,,,,,,,,,,,,,,,,,,,,,,,,,,,,,,,,,,,,,,,,,,,,,,,,,,,,,,,,,,,,,,
,,5c0624cf891bb4000121c772,2024-02-21_21h37.16.716,kallum_motion_pilot,2023.2.2,Win32,59.88023952,5c0624cf891bb4000121c772,65d6bb0e977760de756971f7,65d6bfaa0a464a429d9a9195,0.1296,0.1297,0,9,9,121,1,fiveseven,,,,,,,,,,,,,,,,,,,,,,,,,,,,,,,,,,,,,,,,,,,,,,,,,,,,,,,,,,,,,,,,,,,,,,,,,,,,,,,,,,,,,,,,,,,,,,,,,,,,,,,,,,,,,,,,,,,,,,,,,,,,,,,,,,,,,,,,,
,,5c0624cf891bb4000121c772,2024-02-21_21h37.16.716,kallum_motion_pilot,2023.2.2,Win32,59.88023952,5c0624cf891bb4000121c772,65d6bb0e977760de756971f7,65d6bfaa0a464a429d9a9195,0.1301,0.1319,0,10,10,5,1,threefour,,,,,,,,,,,,,,,,,,,,,,,,,,,,,,,,,,,,,,,,,,,,,,,,,,,,,,,,,,,,,,,,,,,,,,,,,,,,,,,,,,,,,,,,,,,,,,,,,,,,,,,,,,,,,,,,,,,,,,,,,,,,,,,,,,,,,,,,,
,,5c0624cf891bb4000121c772,2024-02-21_21h37.16.716,kallum_motion_pilot,2023.2.2,Win32,59.88023952,5c0624cf891bb4000121c772,65d6bb0e977760de756971f7,65d6bfaa0a464a429d9a9195,0.1325,0.1326,0,11,11,83,1,sixeight,,,,,,,,,,,,,,,,,,,,,,,,,,,,,,,,,,,,,,,,,,,,,,,,,,,,,,,,,,,,,,,,,,,,,,,,,,,,,,,,,,,,,,,,,,,,,,,,,,,,,,,,,,,,,,,,,,,,,,,,,,,,,,,,,,,,,,,,,
,,5c0624cf891bb4000121c772,2024-02-21_21h37.16.716,kallum_motion_pilot,2023.2.2,Win32,59.88023952,5c0624cf891bb4000121c772,65d6bb0e977760de756971f7,65d6bfaa0a464a429d9a9195,0.1331,0.1332,0,12,12,109,1,seveneight,,,,,,,,,,,,,,,,,,,,,,,,,,,,,,,,,,,,,,,,,,,,,,,,,,,,,,,,,,,,,,,,,,,,,,,,,,,,,,,,,,,,,,,,,,,,,,,,,,,,,,,,,,,,,,,,,,,,,,,,,,,,,,,,,,,,,,,,,
,,5c0624cf891bb4000121c772,2024-02-21_21h37.16.716,kallum_motion_pilot,2023.2.2,Win32,59.88023952,5c0624cf891bb4000121c772,65d6bb0e977760de756971f7,65d6bfaa0a464a429d9a9195,0.1335,0.1336,0,13,13,106,1,sixfive,,,,,,,,,,,,,,,,,,,,,,,,,,,,,,,,,,,,,,,,,,,,,,,,,,,,,,,,,,,,,,,,,,,,,,,,,,,,,,,,,,,,,,,,,,,,,,,,,,,,,,,,,,,,,,,,,,,,,,,,,,,,,,,,,,,,,,,,,
,,5c0624cf891bb4000121c772,2024-02-21_21h37.16.716,kallum_motion_pilot,2023.2.2,Win32,59.88023952,5c0624cf891bb4000121c772,65d6bb0e977760de756971f7,65d6bfaa0a464a429d9a9195,0.134,0.1341,0,14,14,38,1,fourtwo,,,,,,,,,,,,,,,,,,,,,,,,,,,,,,,,,,,,,,,,,,,,,,,,,,,,,,,,,,,,,,,,,,,,,,,,,,,,,,,,,,,,,,,,,,,,,,,,,,,,,,,,,,,,,,,,,,,,,,,,,,,,,,,,,,,,,,,,,
,,5c0624cf891bb4000121c772,2024-02-21_21h37.16.716,kallum_motion_pilot,2023.2.2,Win32,59.88023952,5c0624cf891bb4000121c772,65d6bb0e977760de756971f7,65d6bfaa0a464a429d9a9195,0.1345,0.1349,0,15,15,127,1,eightseven,,,,,,,,,,,,,,,,,,,,,,,,,,,,,,,,,,,,,,,,,,,,,,,,,,,,,,,,,,,,,,,,,,,,,,,,,,,,,,,,,,,,,,,,,,,,,,,,,,,,,,,,,,,,,,,,,,,,,,,,,,,,,,,,,,,,,,,,,
,,5c0624cf891bb4000121c772,2024-02-21_21h37.16.716,kallum_motion_pilot,2023.2.2,Win32,59.88023952,5c0624cf891bb4000121c772,65d6bb0e977760de756971f7,65d6bfaa0a464a429d9a9195,0.1353,0.1355,0,16,16,111,1,eightseven,,,,,,,,,,,,,,,,,,,,,,,,,,,,,,,,,,,,,,,,,,,,,,,,,,,,,,,,,,,,,,,,,,,,,,,,,,,,,,,,,,,,,,,,,,,,,,,,,,,,,,,,,,,,,,,,,,,,,,,,,,,,,,,,,,,,,,,,,
,,5c0624cf891bb4000121c772,2024-02-21_21h37.16.716,kallum_motion_pilot,2023.2.2,Win32,59.88023952,5c0624cf891bb4000121c772,65d6bb0e977760de756971f7,65d6bfaa0a464a429d9a9195,0.1358,0.1359,0,17,17,9,1,onethree,,,,,,,,,,,,,,,,,,,,,,,,,,,,,,,,,,,,,,,,,,,,,,,,,,,,,,,,,,,,,,,,,,,,,,,,,,,,,,,,,,,,,,,,,,,,,,,,,,,,,,,,,,,,,,,,,,,,,,,,,,,,,,,,,,,,,,,,,
,,5c0624cf891bb4000121c772,2024-02-21_21h37.16.716,kallum_motion_pilot,2023.2.2,Win32,59.88023952,5c0624cf891bb4000121c772,65d6bb0e977760de756971f7,65d6bfaa0a464a429d9a9195,0.1362,0.1364,0,18,18,119,1,eightseven,,,,,,,,,,,,,,,,,,,,,,,,,,,,,,,,,,,,,,,,,,,,,,,,,,,,,,,,,,,,,,,,,,,,,,,,,,,,,,,,,,,,,,,,,,,,,,,,,,,,,,,,,,,,,,,,,,,,,,,,,,,,,,,,,,,,,,,,,
,,5c0624cf891bb4000121c772,2024-02-21_21h37.16.716,kallum_motion_pilot,2023.2.2,Win32,59.88023952,5c0624cf891bb4000121c772,65d6bb0e977760de756971f7,65d6bfaa0a464a429d9a9195,0.1367,0.1369,0,19,19,76,1,threeone,,,,,,,,,,,,,,,,,,,,,,,,,,,,,,,,,,,,,,,,,,,,,,,,,,,,,,,,,,,,,,,,,,,,,,,,,,,,,,,,,,,,,,,,,,,,,,,,,,,,,,,,,,,,,,,,,,,,,,,,,,,,,,,,,,,,,,,,,
,,5c0624cf891bb4000121c772,2024-02-21_21h37.16.716,kallum_motion_pilot,2023.2.2,Win32,59.88023952,5c0624cf891bb4000121c772,65d6bb0e977760de756971f7,65d6bfaa0a464a429d9a9195,0.1371,0.1372,0,20,20,87,1,eightseven,,,,,,,,,,,,,,,,,,,,,,,,,,,,,,,,,,,,,,,,,,,,,,,,,,,,,,,,,,,,,,,,,,,,,,,,,,,,,,,,,,,,,,,,,,,,,,,,,,,,,,,,,,,,,,,,,,,,,,,,,,,,,,,,,,,,,,,,,
,,5c0624cf891bb4000121c772,2024-02-21_21h37.16.716,kallum_motion_pilot,2023.2.2,Win32,59.88023952,5c0624cf891bb4000121c772,65d6bb0e977760de756971f7,65d6bfaa0a464a429d9a9195,0.1378,0.138,0,21,21,57,1,onethree,,,,,,,,,,,,,,,,,,,,,,,,,,,,,,,,,,,,,,,,,,,,,,,,,,,,,,,,,,,,,,,,,,,,,,,,,,,,,,,,,,,,,,,,,,,,,,,,,,,,,,,,,,,,,,,,,,,,,,,,,,,,,,,,,,,,,,,,,
,,5c0624cf891bb4000121c772,2024-02-21_21h37.16.716,kallum_motion_pilot,2023.2.2,Win32,59.88023952,5c0624cf891bb4000121c772,65d6bb0e977760de756971f7,65d6bfaa0a464a429d9a9195,0.1399,0.1401,0,22,22,47,1,fourthree,,,,,,,,,,,,,,,,,,,,,,,,,,,,,,,,,,,,,,,,,,,,,,,,,,,,,,,,,,,,,,,,,,,,,,,,,,,,,,,,,,,,,,,,,,,,,,,,,,,,,,,,,,,,,,,,,,,,,,,,,,,,,,,,,,,,,,,,,
,,5c0624cf891bb4000121c772,2024-02-21_21h37.16.716,kallum_motion_pilot,2023.2.2,Win32,59.88023952,5c0624cf891bb4000121c772,65d6bb0e977760de756971f7,65d6bfaa0a464a429d9a9195,0.1406,0.1407,0,23,23,122,1,sixfive,,,,,,,,,,,,,,,,,,,,,,,,,,,,,,,,,,,,,,,,,,,,,,,,,,,,,,,,,,,,,,,,,,,,,,,,,,,,,,,,,,,,,,,,,,,,,,,,,,,,,,,,,,,,,,,,,,,,,,,,,,,,,,,,,,,,,,,,,
,,5c0624cf891bb4000121c772,2024-02-21_21h37.16.716,kallum_motion_pilot,2023.2.2,Win32,59.88023952,5c0624cf891bb4000121c772,65d6bb0e977760de756971f7,65d6bfaa0a464a429d9a9195,0.1412,0.1413,0,24,24,73,1,onethree,,,,,,,,,,,,,,,,,,,,,,,,,,,,,,,,,,,,,,,,,,,,,,,,,,,,,,,,,,,,,,,,,,,,,,,,,,,,,,,,,,,,,,,,,,,,,,,,,,,,,,,,,,,,,,,,,,,,,,,,,,,,,,,,,,,,,,,,,
,,5c0624cf891bb4000121c772,2024-02-21_21h37.16.716,kallum_motion_pilot,2023.2.2,Win32,59.88023952,5c0624cf891bb4000121c772,65d6bb0e977760de756971f7,65d6bfaa0a464a429d9a9195,0.1419,0.1421,0,25,25,69,1,threefour,,,,,,,,,,,,,,,,,,,,,,,,,,,,,,,,,,,,,,,,,,,,,,,,,,,,,,,,,,,,,,,,,,,,,,,,,,,,,,,,,,,,,,,,,,,,,,,,,,,,,,,,,,,,,,,,,,,,,,,,,,,,,,,,,,,,,,,,,
,,5c0624cf891bb4000121c772,2024-02-21_21h37.16.716,kallum_motion_pilot,2023.2.2,Win32,59.88023952,5c0624cf891bb4000121c772,65d6bb0e977760de756971f7,65d6bfaa0a464a429d9a9195,0.1425,0.1426,0,26,26,137,1,fiveseven,,,,,,,,,,,,,,,,,,,,,,,,,,,,,,,,,,,,,,,,,,,,,,,,,,,,,,,,,,,,,,,,,,,,,,,,,,,,,,,,,,,,,,,,,,,,,,,,,,,,,,,,,,,,,,,,,,,,,,,,,,,,,,,,,,,,,,,,,
,,5c0624cf891bb4000121c772,2024-02-21_21h37.16.716,kallum_motion_pilot,2023.2.2,Win32,59.88023952,5c0624cf891bb4000121c772,65d6bb0e977760de756971f7,65d6bfaa0a464a429d9a9195,0.1431,0.1432,0,27,27,72,1,onetwo,,,,,,,,,,,,,,,,,,,,,,,,,,,,,,,,,,,,,,,,,,,,,,,,,,,,,,,,,,,,,,,,,,,,,,,,,,,,,,,,,,,,,,,,,,,,,,,,,,,,,,,,,,,,,,,,,,,,,,,,,,,,,,,,,,,,,,,,,
,,5c0624cf891bb4000121c772,2024-02-21_21h37.16.716,kallum_motion_pilot,2023.2.2,Win32,59.88023952,5c0624cf891bb4000121c772,65d6bb0e977760de756971f7,65d6bfaa0a464a429d9a9195,0.1447,0.1484,0,28,28,19,1,twofour,,,,,,,,,,,,,,,,,,,,,,,,,,,,,,,,,,,,,,,,,,,,,,,,,,,,,,,,,,,,,,,,,,,,,,,,,,,,,,,,,,,,,,,,,,,,,,,,,,,,,,,,,,,,,,,,,,,,,,,,,,,,,,,,,,,,,,,,,
,,5c0624cf891bb4000121c772,2024-02-21_21h37.16.716,kallum_motion_pilot,2023.2.2,Win32,59.88023952,5c0624cf891bb4000121c772,65d6bb0e977760de756971f7,65d6bfaa0a464a429d9a9195,0.1489,0.149,0,29,29,58,1,twoone,,,,,,,,,,,,,,,,,,,,,,,,,,,,,,,,,,,,,,,,,,,,,,,,,,,,,,,,,,,,,,,,,,,,,,,,,,,,,,,,,,,,,,,,,,,,,,,,,,,,,,,,,,,,,,,,,,,,,,,,,,,,,,,,,,,,,,,,,
,,5c0624cf891bb4000121c772,2024-02-21_21h37.16.716,kallum_motion_pilot,2023.2.2,Win32,59.88023952,5c0624cf891bb4000121c772,65d6bb0e977760de756971f7,65d6bfaa0a464a429d9a9195,0.1494,0.1496,0,30,30,65,1,onethree,,,,,,,,,,,,,,,,,,,,,,,,,,,,,,,,,,,,,,,,,,,,,,,,,,,,,,,,,,,,,,,,,,,,,,,,,,,,,,,,,,,,,,,,,,,,,,,,,,,,,,,,,,,,,,,,,,,,,,,,,,,,,,,,,,,,,,,,,
,,5c0624cf891bb4000121c772,2024-02-21_21h37.16.716,kallum_motion_pilot,2023.2.2,Win32,59.88023952,5c0624cf891bb4000121c772,65d6bb0e977760de756971f7,65d6bfaa0a464a429d9a9195,0.1499,0.15,0,31,31,159,1,eightseven,,,,,,,,,,,,,,,,,,,,,,,,,,,,,,,,,,,,,,,,,,,,,,,,,,,,,,,,,,,,,,,,,,,,,,,,,,,,,,,,,,,,,,,,,,,,,,,,,,,,,,,,,,,,,,,,,,,,,,,,,,,,,,,,,,,,,,,,,
,,5c0624cf891bb4000121c772,2024-02-21_21h37.16.716,kallum_motion_pilot,2023.2.2,Win32,59.88023952,5c0624cf891bb4000121c772,65d6bb0e977760de756971f7,65d6bfaa0a464a429d9a9195,0.1503,0.1504,0,32,32,64,1,onetwo,,,,,,,,,,,,,,,,,,,,,,,,,,,,,,,,,,,,,,,,,,,,,,,,,,,,,,,,,,,,,,,,,,,,,,,,,,,,,,,,,,,,,,,,,,,,,,,,,,,,,,,,,,,,,,,,,,,,,,,,,,,,,,,,,,,,,,,,,
,,5c0624cf891bb4000121c772,2024-02-21_21h37.16.716,kallum_motion_pilot,2023.2.2,Win32,59.88023952,5c0624cf891bb4000121c772,65d6bb0e977760de756971f7,65d6bfaa0a464a429d9a9195,0.1508,0.1526,0,33,33,93,1,seveneight,,,,,,,,,,,,,,,,,,,,,,,,,,,,,,,,,,,,,,,,,,,,,,,,,,,,,,,,,,,,,,,,,,,,,,,,,,,,,,,,,,,,,,,,,,,,,,,,,,,,,,,,,,,,,,,,,,,,,,,,,,,,,,,,,,,,,,,,,
,,5c0624cf891bb4000121c772,2024-02-21_21h37.16.716,kallum_motion_pilot,2023.2.2,Win32,59.88023952,5c0624cf891bb4000121c772,65d6bb0e977760de756971f7,65d6bfaa0a464a429d9a9195,0.1536,0.1563,0,34,34,79,1,eightseven,,,,,,,,,,,,,,,,,,,,,,,,,,,,,,,,,,,,,,,,,,,,,,,,,,,,,,,,,,,,,,,,,,,,,,,,,,,,,,,,,,,,,,,,,,,,,,,,,,,,,,,,,,,,,,,,,,,,,,,,,,,,,,,,,,,,,,,,,
,,5c0624cf891bb4000121c772,2024-02-21_21h37.16.716,kallum_motion_pilot,2023.2.2,Win32,59.88023952,5c0624cf891bb4000121c772,65d6bb0e977760de756971f7,65d6bfaa0a464a429d9a9195,0.1568,0.1572,0,35,35,11,1,twofour,,,,,,,,,,,,,,,,,,,,,,,,,,,,,,,,,,,,,,,,,,,,,,,,,,,,,,,,,,,,,,,,,,,,,,,,,,,,,,,,,,,,,,,,,,,,,,,,,,,,,,,,,,,,,,,,,,,,,,,,,,,,,,,,,,,,,,,,,
,,5c0624cf891bb4000121c772,2024-02-21_21h37.16.716,kallum_motion_pilot,2023.2.2,Win32,59.88023952,5c0624cf891bb4000121c772,65d6bb0e977760de756971f7,65d6bfaa0a464a429d9a9195,0.1585,0.1591,0,36,36,98,1,sixfive,,,,,,,,,,,,,,,,,,,,,,,,,,,,,,,,,,,,,,,,,,,,,,,,,,,,,,,,,,,,,,,,,,,,,,,,,,,,,,,,,,,,,,,,,,,,,,,,,,,,,,,,,,,,,,,,,,,,,,,,,,,,,,,,,,,,,,,,,
,,5c0624cf891bb4000121c772,2024-02-21_21h37.16.716,kallum_motion_pilot,2023.2.2,Win32,59.88023952,5c0624cf891bb4000121c772,65d6bb0e977760de756971f7,65d6bfaa0a464a429d9a9195,0.1613,0.1616,0,37,37,153,1,fiveseven,,,,,,,,,,,,,,,,,,,,,,,,,,,,,,,,,,,,,,,,,,,,,,,,,,,,,,,,,,,,,,,,,,,,,,,,,,,,,,,,,,,,,,,,,,,,,,,,,,,,,,,,,,,,,,,,,,,,,,,,,,,,,,,,,,,,,,,,,
,,5c0624cf891bb4000121c772,2024-02-21_21h37.16.716,kallum_motion_pilot,2023.2.2,Win32,59.88023952,5c0624cf891bb4000121c772,65d6bb0e977760de756971f7,65d6bfaa0a464a429d9a9195,0.1631,0.1642,0,38,38,28,1,threeone,,,,,,,,,,,,,,,,,,,,,,,,,,,,,,,,,,,,,,,,,,,,,,,,,,,,,,,,,,,,,,,,,,,,,,,,,,,,,,,,,,,,,,,,,,,,,,,,,,,,,,,,,,,,,,,,,,,,,,,,,,,,,,,,,,,,,,,,,
,,5c0624cf891bb4000121c772,2024-02-21_21h37.16.716,kallum_motion_pilot,2023.2.2,Win32,59.88023952,5c0624cf891bb4000121c772,65d6bb0e977760de756971f7,65d6bfaa0a464a429d9a9195,0.1652,0.1657,0,39,39,131,1,sixeight,,,,,,,,,,,,,,,,,,,,,,,,,,,,,,,,,,,,,,,,,,,,,,,,,,,,,,,,,,,,,,,,,,,,,,,,,,,,,,,,,,,,,,,,,,,,,,,,,,,,,,,,,,,,,,,,,,,,,,,,,,,,,,,,,,,,,,,,,
,,5c0624cf891bb4000121c772,2024-02-21_21h37.16.716,kallum_motion_pilot,2023.2.2,Win32,59.88023952,5c0624cf891bb4000121c772,65d6bb0e977760de756971f7,65d6bfaa0a464a429d9a9195,0.1856,0.1877,0,40,40,105,1,fiveseven,,,,,,,,,,,,,,,,,,,,,,,,,,,,,,,,,,,,,,,,,,,,,,,,,,,,,,,,,,,,,,,,,,,,,,,,,,,,,,,,,,,,,,,,,,,,,,,,,,,,,,,,,,,,,,,,,,,,,,,,,,,,,,,,,,,,,,,,,
,,5c0624cf891bb4000121c772,2024-02-21_21h37.16.716,kallum_motion_pilot,2023.2.2,Win32,59.88023952,5c0624cf891bb4000121c772,65d6bb0e977760de756971f7,65d6bfaa0a464a429d9a9195,0.1899,0.1906,0,41,41,25,1,onethree,,,,,,,,,,,,,,,,,,,,,,,,,,,,,,,,,,,,,,,,,,,,,,,,,,,,,,,,,,,,,,,,,,,,,,,,,,,,,,,,,,,,,,,,,,,,,,,,,,,,,,,,,,,,,,,,,,,,,,,,,,,,,,,,,,,,,,,,,
,,5c0624cf891bb4000121c772,2024-02-21_21h37.16.716,kallum_motion_pilot,2023.2.2,Win32,59.88023952,5c0624cf891bb4000121c772,65d6bb0e977760de756971f7,65d6bfaa0a464a429d9a9195,0.1917,0.1925,0,42,42,143,1,eightseven,,,,,,,,,,,,,,,,,,,,,,,,,,,,,,,,,,,,,,,,,,,,,,,,,,,,,,,,,,,,,,,,,,,,,,,,,,,,,,,,,,,,,,,,,,,,,,,,,,,,,,,,,,,,,,,,,,,,,,,,,,,,,,,,,,,,,,,,,
,,5c0624cf891bb4000121c772,2024-02-21_21h37.16.716,kallum_motion_pilot,2023.2.2,Win32,59.88023952,5c0624cf891bb4000121c772,65d6bb0e977760de756971f7,65d6bfaa0a464a429d9a9195,0.1956,0.1965,0,43,43,110,1,eightsix,,,,,,,,,,,,,,,,,,,,,,,,,,,,,,,,,,,,,,,,,,,,,,,,,,,,,,,,,,,,,,,,,,,,,,,,,,,,,,,,,,,,,,,,,,,,,,,,,,,,,,,,,,,,,,,,,,,,,,,,,,,,,,,,,,,,,,,,,
,,5c0624cf891bb4000121c772,2024-02-21_21h37.16.716,kallum_motion_pilot,2023.2.2,Win32,59.88023952,5c0624cf891bb4000121c772,65d6bb0e977760de756971f7,65d6bfaa0a464a429d9a9195,0.1973,0.1977,0,44,44,53,1,threefour,,,,,,,,,,,,,,,,,,,,,,,,,,,,,,,,,,,,,,,,,,,,,,,,,,,,,,,,,,,,,,,,,,,,,,,,,,,,,,,,,,,,,,,,,,,,,,,,,,,,,,,,,,,,,,,,,,,,,,,,,,,,,,,,,,,,,,,,,
,,5c0624cf891bb4000121c772,2024-02-21_21h37.16.716,kallum_motion_pilot,2023.2.2,Win32,59.88023952,5c0624cf891bb4000121c772,65d6bb0e977760de756971f7,65d6bfaa0a464a429d9a9195,0.1985,0.1989,0,45,45,89,1,fiveseven,,,,,,,,,,,,,,,,,,,,,,,,,,,,,,,,,,,,,,,,,,,,,,,,,,,,,,,,,,,,,,,,,,,,,,,,,,,,,,,,,,,,,,,,,,,,,,,,,,,,,,,,,,,,,,,,,,,,,,,,,,,,,,,,,,,,,,,,,
,,5c0624cf891bb4000121c772,2024-02-21_21h37.16.716,kallum_motion_pilot,2023.2.2,Win32,59.88023952,5c0624cf891bb4000121c772,65d6bb0e977760de756971f7,65d6bfaa0a464a429d9a9195,0.2,0.2008,0,46,46,10,1,twoone,,,,,,,,,,,,,,,,,,,,,,,,,,,,,,,,,,,,,,,,,,,,,,,,,,,,,,,,,,,,,,,,,,,,,,,,,,,,,,,,,,,,,,,,,,,,,,,,,,,,,,,,,,,,,,,,,,,,,,,,,,,,,,,,,,,,,,,,,
,,5c0624cf891bb4000121c772,2024-02-21_21h37.16.716,kallum_motion_pilot,2023.2.2,Win32,59.88023952,5c0624cf891bb4000121c772,65d6bb0e977760de756971f7,65d6bfaa0a464a429d9a9195,0.2017,0.204,0,47,47,78,1,fourtwo,,,,,,,,,,,,,,,,,,,,,,,,,,,,,,,,,,,,,,,,,,,,,,,,,,,,,,,,,,,,,,,,,,,,,,,,,,,,,,,,,,,,,,,,,,,,,,,,,,,,,,,,,,,,,,,,,,,,,,,,,,,,,,,,,,,,,,,,,
,,5c0624cf891bb4000121c772,2024-02-21_21h37.16.716,kallum_motion_pilot,2023.2.2,Win32,59.88023952,5c0624cf891bb4000121c772,65d6bb0e977760de756971f7,65d6bfaa0a464a429d9a9195,0.2059,0.2066,0,48,48,40,1,onetwo,,,,,,,,,,,,,,,,,,,,,,,,,,,,,,,,,,,,,,,,,,,,,,,,,,,,,,,,,,,,,,,,,,,,,,,,,,,,,,,,,,,,,,,,,,,,,,,,,,,,,,,,,,,,,,,,,,,,,,,,,,,,,,,,,,,,,,,,,
,,5c0624cf891bb4000121c772,2024-02-21_21h37.16.716,kallum_motion_pilot,2023.2.2,Win32,59.88023952,5c0624cf891bb4000121c772,65d6bb0e977760de756971f7,65d6bfaa0a464a429d9a9195,0.2078,0.2083,0,49,49,44,1,threeone,,,,,,,,,,,,,,,,,,,,,,,,,,,,,,,,,,,,,,,,,,,,,,,,,,,,,,,,,,,,,,,,,,,,,,,,,,,,,,,,,,,,,,,,,,,,,,,,,,,,,,,,,,,,,,,,,,,,,,,,,,,,,,,,,,,,,,,,,
,,5c0624cf891bb4000121c772,2024-02-21_21h37.16.716,kallum_motion_pilot,2023.2.2,Win32,59.88023952,5c0624cf891bb4000121c772,65d6bb0e977760de756971f7,65d6bfaa0a464a429d9a9195,0.2094,0.2119,0,50,50,88,1,fivesix,,,,,,,,,,,,,,,,,,,,,,,,,,,,,,,,,,,,,,,,,,,,,,,,,,,,,,,,,,,,,,,,,,,,,,,,,,,,,,,,,,,,,,,,,,,,,,,,,,,,,,,,,,,,,,,,,,,,,,,,,,,,,,,,,,,,,,,,,
,,5c0624cf891bb4000121c772,2024-02-21_21h37.16.716,kallum_motion_pilot,2023.2.2,Win32,59.88023952,5c0624cf891bb4000121c772,65d6bb0e977760de756971f7,65d6bfaa0a464a429d9a9195,0.2158,0.2161,0,51,51,86,1,eightsix,,,,,,,,,,,,,,,,,,,,,,,,,,,,,,,,,,,,,,,,,,,,,,,,,,,,,,,,,,,,,,,,,,,,,,,,,,,,,,,,,,,,,,,,,,,,,,,,,,,,,,,,,,,,,,,,,,,,,,,,,,,,,,,,,,,,,,,,,
,,5c0624cf891bb4000121c772,2024-02-21_21h37.16.716,kallum_motion_pilot,2023.2.2,Win32,59.88023952,5c0624cf891bb4000121c772,65d6bb0e977760de756971f7,65d6bfaa0a464a429d9a9195,0.2167,0.2171,0,52,52,29,1,threefour,,,,,,,,,,,,,,,,,,,,,,,,,,,,,,,,,,,,,,,,,,,,,,,,,,,,,,,,,,,,,,,,,,,,,,,,,,,,,,,,,,,,,,,,,,,,,,,,,,,,,,,,,,,,,,,,,,,,,,,,,,,,,,,,,,,,,,,,,
,,5c0624cf891bb4000121c772,2024-02-21_21h37.16.716,kallum_motion_pilot,2023.2.2,Win32,59.88023952,5c0624cf891bb4000121c772,65d6bb0e977760de756971f7,65d6bfaa0a464a429d9a9195,0.2184,0.2186,0,53,53,30,1,fourtwo,,,,,,,,,,,,,,,,,,,,,,,,,,,,,,,,,,,,,,,,,,,,,,,,,,,,,,,,,,,,,,,,,,,,,,,,,,,,,,,,,,,,,,,,,,,,,,,,,,,,,,,,,,,,,,,,,,,,,,,,,,,,,,,,,,,,,,,,,
,,5c0624cf891bb4000121c772,2024-02-21_21h37.16.716,kallum_motion_pilot,2023.2.2,Win32,59.88023952,5c0624cf891bb4000121c772,65d6bb0e977760de756971f7,65d6bfaa0a464a429d9a9195,0.2193,0.2197,0,54,54,42,1,twoone,,,,,,,,,,,,,,,,,,,,,,,,,,,,,,,,,,,,,,,,,,,,,,,,,,,,,,,,,,,,,,,,,,,,,,,,,,,,,,,,,,,,,,,,,,,,,,,,,,,,,,,,,,,,,,,,,,,,,,,,,,,,,,,,,,,,,,,,,
,,5c0624cf891bb4000121c772,2024-02-21_21h37.16.716,kallum_motion_pilot,2023.2.2,Win32,59.88023952,5c0624cf891bb4000121c772,65d6bb0e977760de756971f7,65d6bfaa0a464a429d9a9195,0.2204,0.2208,0,55,55,15,1,fourthree,,,,,,,,,,,,,,,,,,,,,,,,,,,,,,,,,,,,,,,,,,,,,,,,,,,,,,,,,,,,,,,,,,,,,,,,,,,,,,,,,,,,,,,,,,,,,,,,,,,,,,,,,,,,,,,,,,,,,,,,,,,,,,,,,,,,,,,,,
,,5c0624cf891bb4000121c772,2024-02-21_21h37.16.716,kallum_motion_pilot,2023.2.2,Win32,59.88023952,5c0624cf891bb4000121c772,65d6bb0e977760de756971f7,65d6bfaa0a464a429d9a9195,0.2214,0.2218,0,56,56,61,1,threefour,,,,,,,,,,,,,,,,,,,,,,,,,,,,,,,,,,,,,,,,,,,,,,,,,,,,,,,,,,,,,,,,,,,,,,,,,,,,,,,,,,,,,,,,,,,,,,,,,,,,,,,,,,,,,,,,,,,,,,,,,,,,,,,,,,,,,,,,,
,,5c0624cf891bb4000121c772,2024-02-21_21h37.16.716,kallum_motion_pilot,2023.2.2,Win32,59.88023952,5c0624cf891bb4000121c772,65d6bb0e977760de756971f7,65d6bfaa0a464a429d9a9195,0.2224,0.2228,0,57,57,128,1,fivesix,,,,,,,,,,,,,,,,,,,,,,,,,,,,,,,,,,,,,,,,,,,,,,,,,,,,,,,,,,,,,,,,,,,,,,,,,,,,,,,,,,,,,,,,,,,,,,,,,,,,,,,,,,,,,,,,,,,,,,,,,,,,,,,,,,,,,,,,,
,,5c0624cf891bb4000121c772,2024-02-21_21h37.16.716,kallum_motion_pilot,2023.2.2,Win32,59.88023952,5c0624cf891bb4000121c772,65d6bb0e977760de756971f7,65d6bfaa0a464a429d9a9195,0.2234,0.2238,0,58,58,146,1,sixfive,,,,,,,,,,,,,,,,,,,,,,,,,,,,,,,,,,,,,,,,,,,,,,,,,,,,,,,,,,,,,,,,,,,,,,,,,,,,,,,,,,,,,,,,,,,,,,,,,,,,,,,,,,,,,,,,,,,,,,,,,,,,,,,,,,,,,,,,,
,,5c0624cf891bb4000121c772,2024-02-21_21h37.16.716,kallum_motion_pilot,2023.2.2,Win32,59.88023952,5c0624cf891bb4000121c772,65d6bb0e977760de756971f7,65d6bfaa0a464a429d9a9195,0.2244,0.2249,0,59,59,68,1,threeone,,,,,,,,,,,,,,,,,,,,,,,,,,,,,,,,,,,,,,,,,,,,,,,,,,,,,,,,,,,,,,,,,,,,,,,,,,,,,,,,,,,,,,,,,,,,,,,,,,,,,,,,,,,,,,,,,,,,,,,,,,,,,,,,,,,,,,,,,
,,5c0624cf891bb4000121c772,2024-02-21_21h37.16.716,kallum_motion_pilot,2023.2.2,Win32,59.88023952,5c0624cf891bb4000121c772,65d6bb0e977760de756971f7,65d6bfaa0a464a429d9a9195,0.2256,0.2261,0,60,60,101,1,seveneight,,,,,,,,,,,,,,,,,,,,,,,,,,,,,,,,,,,,,,,,,,,,,,,,,,,,,,,,,,,,,,,,,,,,,,,,,,,,,,,,,,,,,,,,,,,,,,,,,,,,,,,,,,,,,,,,,,,,,,,,,,,,,,,,,,,,,,,,,
,,5c0624cf891bb4000121c772,2024-02-21_21h37.16.716,kallum_motion_pilot,2023.2.2,Win32,59.88023952,5c0624cf891bb4000121c772,65d6bb0e977760de756971f7,65d6bfaa0a464a429d9a9195,0.2283,0.2295,0,61,61,142,1,eightsix,,,,,,,,,,,,,,,,,,,,,,,,,,,,,,,,,,,,,,,,,,,,,,,,,,,,,,,,,,,,,,,,,,,,,,,,,,,,,,,,,,,,,,,,,,,,,,,,,,,,,,,,,,,,,,,,,,,,,,,,,,,,,,,,,,,,,,,,,
,,5c0624cf891bb4000121c772,2024-02-21_21h37.16.716,kallum_motion_pilot,2023.2.2,Win32,59.88023952,5c0624cf891bb4000121c772,65d6bb0e977760de756971f7,65d6bfaa0a464a429d9a9195,0.2301,0.2305,0,62,62,104,1,fivesix,,,,,,,,,,,,,,,,,,,,,,,,,,,,,,,,,,,,,,,,,,,,,,,,,,,,,,,,,,,,,,,,,,,,,,,,,,,,,,,,,,,,,,,,,,,,,,,,,,,,,,,,,,,,,,,,,,,,,,,,,,,,,,,,,,,,,,,,,
,,5c0624cf891bb4000121c772,2024-02-21_21h37.16.716,kallum_motion_pilot,2023.2.2,Win32,59.88023952,5c0624cf891bb4000121c772,65d6bb0e977760de756971f7,65d6bfaa0a464a429d9a9195,0.2312,0.2318,0,63,63,34,1,twoone,,,,,,,,,,,,,,,,,,,,,,,,,,,,,,,,,,,,,,,,,,,,,,,,,,,,,,,,,,,,,,,,,,,,,,,,,,,,,,,,,,,,,,,,,,,,,,,,,,,,,,,,,,,,,,,,,,,,,,,,,,,,,,,,,,,,,,,,,
,,5c0624cf891bb4000121c772,2024-02-21_21h37.16.716,kallum_motion_pilot,2023.2.2,Win32,59.88023952,5c0624cf891bb4000121c772,65d6bb0e977760de756971f7,65d6bfaa0a464a429d9a9195,0.2323,0.2328,0,64,64,150,1,eightsix,,,,,,,,,,,,,,,,,,,,,,,,,,,,,,,,,,,,,,,,,,,,,,,,,,,,,,,,,,,,,,,,,,,,,,,,,,,,,,,,,,,,,,,,,,,,,,,,,,,,,,,,,,,,,,,,,,,,,,,,,,,,,,,,,,,,,,,,,
,,5c0624cf891bb4000121c772,2024-02-21_21h37.16.716,kallum_motion_pilot,2023.2.2,Win32,59.88023952,5c0624cf891bb4000121c772,65d6bb0e977760de756971f7,65d6bfaa0a464a429d9a9195,0.2333,0.2338,0,65,65,157,1,seveneight,,,,,,,,,,,,,,,,,,,,,,,,,,,,,,,,,,,,,,,,,,,,,,,,,,,,,,,,,,,,,,,,,,,,,,,,,,,,,,,,,,,,,,,,,,,,,,,,,,,,,,,,,,,,,,,,,,,,,,,,,,,,,,,,,,,,,,,,,
,,5c0624cf891bb4000121c772,2024-02-21_21h37.16.716,kallum_motion_pilot,2023.2.2,Win32,59.88023952,5c0624cf891bb4000121c772,65d6bb0e977760de756971f7,65d6bfaa0a464a429d9a9195,0.2344,0.2348,0,66,66,107,1,sixeight,,,,,,,,,,,,,,,,,,,,,,,,,,,,,,,,,,,,,,,,,,,,,,,,,,,,,,,,,,,,,,,,,,,,,,,,,,,,,,,,,,,,,,,,,,,,,,,,,,,,,,,,,,,,,,,,,,,,,,,,,,,,,,,,,,,,,,,,,
,,5c0624cf891bb4000121c772,2024-02-21_21h37.16.716,kallum_motion_pilot,2023.2.2,Win32,59.88023952,5c0624cf891bb4000121c772,65d6bb0e977760de756971f7,65d6bfaa0a464a429d9a9195,0.2355,0.2359,0,67,67,31,1,fourthree,,,,,,,,,,,,,,,,,,,,,,,,,,,,,,,,,,,,,,,,,,,,,,,,,,,,,,,,,,,,,,,,,,,,,,,,,,,,,,,,,,,,,,,,,,,,,,,,,,,,,,,,,,,,,,,,,,,,,,,,,,,,,,,,,,,,,,,,,
,,5c0624cf891bb4000121c772,2024-02-21_21h37.16.716,kallum_motion_pilot,2023.2.2,Win32,59.88023952,5c0624cf891bb4000121c772,65d6bb0e977760de756971f7,65d6bfaa0a464a429d9a9195,0.2536,0.2542,0,68,68,124,1,sevenfive,,,,,,,,,,,,,,,,,,,,,,,,,,,,,,,,,,,,,,,,,,,,,,,,,,,,,,,,,,,,,,,,,,,,,,,,,,,,,,,,,,,,,,,,,,,,,,,,,,,,,,,,,,,,,,,,,,,,,,,,,,,,,,,,,,,,,,,,,
,,5c0624cf891bb4000121c772,2024-02-21_21h37.16.716,kallum_motion_pilot,2023.2.2,Win32,59.88023952,5c0624cf891bb4000121c772,65d6bb0e977760de756971f7,65d6bfaa0a464a429d9a9195,0.2553,0.256,0,69,69,140,1,sevenfive,,,,,,,,,,,,,,,,,,,,,,,,,,,,,,,,,,,,,,,,,,,,,,,,,,,,,,,,,,,,,,,,,,,,,,,,,,,,,,,,,,,,,,,,,,,,,,,,,,,,,,,,,,,,,,,,,,,,,,,,,,,,,,,,,,,,,,,,,
,,5c0624cf891bb4000121c772,2024-02-21_21h37.16.716,kallum_motion_pilot,2023.2.2,Win32,59.88023952,5c0624cf891bb4000121c772,65d6bb0e977760de756971f7,65d6bfaa0a464a429d9a9195,0.257,0.2582,0,70,70,108,1,sevenfive,,,,,,,,,,,,,,,,,,,,,,,,,,,,,,,,,,,,,,,,,,,,,,,,,,,,,,,,,,,,,,,,,,,,,,,,,,,,,,,,,,,,,,,,,,,,,,,,,,,,,,,,,,,,,,,,,,,,,,,,,,,,,,,,,,,,,,,,,
,,5c0624cf891bb4000121c772,2024-02-21_21h37.16.716,kallum_motion_pilot,2023.2.2,Win32,59.88023952,5c0624cf891bb4000121c772,65d6bb0e977760de756971f7,65d6bfaa0a464a429d9a9195,0.2591,0.2615,0,71,71,23,1,fourthree,,,,,,,,,,,,,,,,,,,,,,,,,,,,,,,,,,,,,,,,,,,,,,,,,,,,,,,,,,,,,,,,,,,,,,,,,,,,,,,,,,,,,,,,,,,,,,,,,,,,,,,,,,,,,,,,,,,,,,,,,,,,,,,,,,,,,,,,,
,,5c0624cf891bb4000121c772,2024-02-21_21h37.16.716,kallum_motion_pilot,2023.2.2,Win32,59.88023952,5c0624cf891bb4000121c772,65d6bb0e977760de756971f7,65d6bfaa0a464a429d9a9195,0.2628,0.2639,0,72,72,114,1,sixfive,,,,,,,,,,,,,,,,,,,,,,,,,,,,,,,,,,,,,,,,,,,,,,,,,,,,,,,,,,,,,,,,,,,,,,,,,,,,,,,,,,,,,,,,,,,,,,,,,,,,,,,,,,,,,,,,,,,,,,,,,,,,,,,,,,,,,,,,,
,,5c0624cf891bb4000121c772,2024-02-21_21h37.16.716,kallum_motion_pilot,2023.2.2,Win32,59.88023952,5c0624cf891bb4000121c772,65d6bb0e977760de756971f7,65d6bfaa0a464a429d9a9195,0.2649,0.2655,0,73,73,63,1,fourthree,,,,,,,,,,,,,,,,,,,,,,,,,,,,,,,,,,,,,,,,,,,,,,,,,,,,,,,,,,,,,,,,,,,,,,,,,,,,,,,,,,,,,,,,,,,,,,,,,,,,,,,,,,,,,,,,,,,,,,,,,,,,,,,,,,,,,,,,,
,,5c0624cf891bb4000121c772,2024-02-21_21h37.16.716,kallum_motion_pilot,2023.2.2,Win32,59.88023952,5c0624cf891bb4000121c772,65d6bb0e977760de756971f7,65d6bfaa0a464a429d9a9195,0.2665,0.2686,0,74,74,96,1,fivesix,,,,,,,,,,,,,,,,,,,,,,,,,,,,,,,,,,,,,,,,,,,,,,,,,,,,,,,,,,,,,,,,,,,,,,,,,,,,,,,,,,,,,,,,,,,,,,,,,,,,,,,,,,,,,,,,,,,,,,,,,,,,,,,,,,,,,,,,,
,,5c0624cf891bb4000121c772,2024-02-21_21h37.16.716,kallum_motion_pilot,2023.2.2,Win32,59.88023952,5c0624cf891bb4000121c772,65d6bb0e977760de756971f7,65d6bfaa0a464a429d9a9195,0.2696,0.2703,0,75,75,92,1,sevenfive,,,,,,,,,,,,,,,,,,,,,,,,,,,,,,,,,,,,,,,,,,,,,,,,,,,,,,,,,,,,,,,,,,,,,,,,,,,,,,,,,,,,,,,,,,,,,,,,,,,,,,,,,,,,,,,,,,,,,,,,,,,,,,,,,,,,,,,,,
,,5c0624cf891bb4000121c772,2024-02-21_21h37.16.716,kallum_motion_pilot,2023.2.2,Win32,59.88023952,5c0624cf891bb4000121c772,65d6bb0e977760de756971f7,65d6bfaa0a464a429d9a9195,0.2711,0.2718,0,76,76,41,1,onethree,,,,,,,,,,,,,,,,,,,,,,,,,,,,,,,,,,,,,,,,,,,,,,,,,,,,,,,,,,,,,,,,,,,,,,,,,,,,,,,,,,,,,,,,,,,,,,,,,,,,,,,,,,,,,,,,,,,,,,,,,,,,,,,,,,,,,,,,,
,,5c0624cf891bb4000121c772,2024-02-21_21h37.16.716,kallum_motion_pilot,2023.2.2,Win32,59.88023952,5c0624cf891bb4000121c772,65d6bb0e977760de756971f7,65d6bfaa0a464a429d9a9195,0.2726,0.2733,0,77,77,125,1,seveneight,,,,,,,,,,,,,,,,,,,,,,,,,,,,,,,,,,,,,,,,,,,,,,,,,,,,,,,,,,,,,,,,,,,,,,,,,,,,,,,,,,,,,,,,,,,,,,,,,,,,,,,,,,,,,,,,,,,,,,,,,,,,,,,,,,,,,,,,,
,,5c0624cf891bb4000121c772,2024-02-21_21h37.16.716,kallum_motion_pilot,2023.2.2,Win32,59.88023952,5c0624cf891bb4000121c772,65d6bb0e977760de756971f7,65d6bfaa0a464a429d9a9195,0.2742,0.2748,0,78,78,13,1,threefour,,,,,,,,,,,,,,,,,,,,,,,,,,,,,,,,,,,,,,,,,,,,,,,,,,,,,,,,,,,,,,,,,,,,,,,,,,,,,,,,,,,,,,,,,,,,,,,,,,,,,,,,,,,,,,,,,,,,,,,,,,,,,,,,,,,,,,,,,
,,5c0624cf891bb4000121c772,2024-02-21_21h37.16.716,kallum_motion_pilot,2023.2.2,Win32,59.88023952,5c0624cf891bb4000121c772,65d6bb0e977760de756971f7,65d6bfaa0a464a429d9a9195,0.276,0.2764,0,79,79,123,1,sixeight,,,,,,,,,,,,,,,,,,,,,,,,,,,,,,,,,,,,,,,,,,,,,,,,,,,,,,,,,,,,,,,,,,,,,,,,,,,,,,,,,,,,,,,,,,,,,,,,,,,,,,,,,,,,,,,,,,,,,,,,,,,,,,,,,,,,,,,,,
,,5c0624cf891bb4000121c772,2024-02-21_21h37.16.716,kallum_motion_pilot,2023.2.2,Win32,59.88023952,5c0624cf891bb4000121c772,65d6bb0e977760de756971f7,65d6bfaa0a464a429d9a9195,0.2778,0.2786,0,80,80,2,1,twoone,,,,,,,,,,,,,,,,,,,,,,,,,,,,,,,,,,,,,,,,,,,,,,,,,,,,,,,,,,,,,,,,,,,,,,,,,,,,,,,,,,,,,,,,,,,,,,,,,,,,,,,,,,,,,,,,,,,,,,,,,,,,,,,,,,,,,,,,,
,,5c0624cf891bb4000121c772,2024-02-21_21h37.16.716,kallum_motion_pilot,2023.2.2,Win32,59.88023952,5c0624cf891bb4000121c772,65d6bb0e977760de756971f7,65d6bfaa0a464a429d9a9195,0.279,0.2795,0,81,81,148,1,sevenfive,,,,,,,,,,,,,,,,,,,,,,,,,,,,,,,,,,,,,,,,,,,,,,,,,,,,,,,,,,,,,,,,,,,,,,,,,,,,,,,,,,,,,,,,,,,,,,,,,,,,,,,,,,,,,,,,,,,,,,,,,,,,,,,,,,,,,,,,,
,,5c0624cf891bb4000121c772,2024-02-21_21h37.16.716,kallum_motion_pilot,2023.2.2,Win32,59.88023952,5c0624cf891bb4000121c772,65d6bb0e977760de756971f7,65d6bfaa0a464a429d9a9195,0.2805,0.2812,0,82,82,3,1,twofour,,,,,,,,,,,,,,,,,,,,,,,,,,,,,,,,,,,,,,,,,,,,,,,,,,,,,,,,,,,,,,,,,,,,,,,,,,,,,,,,,,,,,,,,,,,,,,,,,,,,,,,,,,,,,,,,,,,,,,,,,,,,,,,,,,,,,,,,,
,,5c0624cf891bb4000121c772,2024-02-21_21h37.16.716,kallum_motion_pilot,2023.2.2,Win32,59.88023952,5c0624cf891bb4000121c772,65d6bb0e977760de756971f7,65d6bfaa0a464a429d9a9195,0.2822,0.2828,0,83,83,36,1,threeone,,,,,,,,,,,,,,,,,,,,,,,,,,,,,,,,,,,,,,,,,,,,,,,,,,,,,,,,,,,,,,,,,,,,,,,,,,,,,,,,,,,,,,,,,,,,,,,,,,,,,,,,,,,,,,,,,,,,,,,,,,,,,,,,,,,,,,,,,
,,5c0624cf891bb4000121c772,2024-02-21_21h37.16.716,kallum_motion_pilot,2023.2.2,Win32,59.88023952,5c0624cf891bb4000121c772,65d6bb0e977760de756971f7,65d6bfaa0a464a429d9a9195,0.2841,0.2847,0,84,84,117,1,seveneight,,,,,,,,,,,,,,,,,,,,,,,,,,,,,,,,,,,,,,,,,,,,,,,,,,,,,,,,,,,,,,,,,,,,,,,,,,,,,,,,,,,,,,,,,,,,,,,,,,,,,,,,,,,,,,,,,,,,,,,,,,,,,,,,,,,,,,,,,
,,5c0624cf891bb4000121c772,2024-02-21_21h37.16.716,kallum_motion_pilot,2023.2.2,Win32,59.88023952,5c0624cf891bb4000121c772,65d6bb0e977760de756971f7,65d6bfaa0a464a429d9a9195,0.2857,0.2864,0,85,85,129,1,fiveseven,,,,,,,,,,,,,,,,,,,,,,,,,,,,,,,,,,,,,,,,,,,,,,,,,,,,,,,,,,,,,,,,,,,,,,,,,,,,,,,,,,,,,,,,,,,,,,,,,,,,,,,,,,,,,,,,,,,,,,,,,,,,,,,,,,,,,,,,,
,,5c0624cf891bb4000121c772,2024-02-21_21h37.16.716,kallum_motion_pilot,2023.2.2,Win32,59.88023952,5c0624cf891bb4000121c772,65d6bb0e977760de756971f7,65d6bfaa0a464a429d9a9195,0.2889,0.2896,0,86,86,46,1,fourtwo,,,,,,,,,,,,,,,,,,,,,,,,,,,,,,,,,,,,,,,,,,,,,,,,,,,,,,,,,,,,,,,,,,,,,,,,,,,,,,,,,,,,,,,,,,,,,,,,,,,,,,,,,,,,,,,,,,,,,,,,,,,,,,,,,,,,,,,,,
,,5c0624cf891bb4000121c772,2024-02-21_21h37.16.716,kallum_motion_pilot,2023.2.2,Win32,59.88023952,5c0624cf891bb4000121c772,65d6bb0e977760de756971f7,65d6bfaa0a464a429d9a9195,0.291,0.2916,0,87,87,90,1,sixfive,,,,,,,,,,,,,,,,,,,,,,,,,,,,,,,,,,,,,,,,,,,,,,,,,,,,,,,,,,,,,,,,,,,,,,,,,,,,,,,,,,,,,,,,,,,,,,,,,,,,,,,,,,,,,,,,,,,,,,,,,,,,,,,,,,,,,,,,,
,,5c0624cf891bb4000121c772,2024-02-21_21h37.16.716,kallum_motion_pilot,2023.2.2,Win32,59.88023952,5c0624cf891bb4000121c772,65d6bb0e977760de756971f7,65d6bfaa0a464a429d9a9195,0.2925,0.2942,0,88,88,52,1,threeone,,,,,,,,,,,,,,,,,,,,,,,,,,,,,,,,,,,,,,,,,,,,,,,,,,,,,,,,,,,,,,,,,,,,,,,,,,,,,,,,,,,,,,,,,,,,,,,,,,,,,,,,,,,,,,,,,,,,,,,,,,,,,,,,,,,,,,,,,
,,5c0624cf891bb4000121c772,2024-02-21_21h37.16.716,kallum_motion_pilot,2023.2.2,Win32,59.88023952,5c0624cf891bb4000121c772,65d6bb0e977760de756971f7,65d6bfaa0a464a429d9a9195,0.2951,0.2963,0,89,89,82,1,sixfive,,,,,,,,,,,,,,,,,,,,,,,,,,,,,,,,,,,,,,,,,,,,,,,,,,,,,,,,,,,,,,,,,,,,,,,,,,,,,,,,,,,,,,,,,,,,,,,,,,,,,,,,,,,,,,,,,,,,,,,,,,,,,,,,,,,,,,,,,
,,5c0624cf891bb4000121c772,2024-02-21_21h37.16.716,kallum_motion_pilot,2023.2.2,Win32,59.88023952,5c0624cf891bb4000121c772,65d6bb0e977760de756971f7,65d6bfaa0a464a429d9a9195,0.2988,0.2995,0,90,90,67,1,twofour,,,,,,,,,,,,,,,,,,,,,,,,,,,,,,,,,,,,,,,,,,,,,,,,,,,,,,,,,,,,,,,,,,,,,,,,,,,,,,,,,,,,,,,,,,,,,,,,,,,,,,,,,,,,,,,,,,,,,,,,,,,,,,,,,,,,,,,,,
,,5c0624cf891bb4000121c772,2024-02-21_21h37.16.716,kallum_motion_pilot,2023.2.2,Win32,59.88023952,5c0624cf891bb4000121c772,65d6bb0e977760de756971f7,65d6bfaa0a464a429d9a9195,0.3003,0.3007,0,91,91,12,1,threeone,,,,,,,,,,,,,,,,,,,,,,,,,,,,,,,,,,,,,,,,,,,,,,,,,,,,,,,,,,,,,,,,,,,,,,,,,,,,,,,,,,,,,,,,,,,,,,,,,,,,,,,,,,,,,,,,,,,,,,,,,,,,,,,,,,,,,,,,,
,,5c0624cf891bb4000121c772,2024-02-21_21h37.16.716,kallum_motion_pilot,2023.2.2,Win32,59.88023952,5c0624cf891bb4000121c772,65d6bb0e977760de756971f7,65d6bfaa0a464a429d9a9195,0.3012,0.3013,0,92,92,74,1,twoone,,,,,,,,,,,,,,,,,,,,,,,,,,,,,,,,,,,,,,,,,,,,,,,,,,,,,,,,,,,,,,,,,,,,,,,,,,,,,,,,,,,,,,,,,,,,,,,,,,,,,,,,,,,,,,,,,,,,,,,,,,,,,,,,,,,,,,,,,
,,5c0624cf891bb4000121c772,2024-02-21_21h37.16.716,kallum_motion_pilot,2023.2.2,Win32,59.88023952,5c0624cf891bb4000121c772,65d6bb0e977760de756971f7,65d6bfaa0a464a429d9a9195,0.3022,0.3023,0,93,93,113,1,fiveseven,,,,,,,,,,,,,,,,,,,,,,,,,,,,,,,,,,,,,,,,,,,,,,,,,,,,,,,,,,,,,,,,,,,,,,,,,,,,,,,,,,,,,,,,,,,,,,,,,,,,,,,,,,,,,,,,,,,,,,,,,,,,,,,,,,,,,,,,,
,,5c0624cf891bb4000121c772,2024-02-21_21h37.16.716,kallum_motion_pilot,2023.2.2,Win32,59.88023952,5c0624cf891bb4000121c772,65d6bb0e977760de756971f7,65d6bfaa0a464a429d9a9195,0.303,0.3033,0,94,94,22,1,fourtwo,,,,,,,,,,,,,,,,,,,,,,,,,,,,,,,,,,,,,,,,,,,,,,,,,,,,,,,,,,,,,,,,,,,,,,,,,,,,,,,,,,,,,,,,,,,,,,,,,,,,,,,,,,,,,,,,,,,,,,,,,,,,,,,,,,,,,,,,,
,,5c0624cf891bb4000121c772,2024-02-21_21h37.16.716,kallum_motion_pilot,2023.2.2,Win32,59.88023952,5c0624cf891bb4000121c772,65d6bb0e977760de756971f7,65d6bfaa0a464a429d9a9195,0.3038,0.3043,0,95,95,102,1,eightsix,,,,,,,,,,,,,,,,,,,,,,,,,,,,,,,,,,,,,,,,,,,,,,,,,,,,,,,,,,,,,,,,,,,,,,,,,,,,,,,,,,,,,,,,,,,,,,,,,,,,,,,,,,,,,,,,,,,,,,,,,,,,,,,,,,,,,,,,,
,,5c0624cf891bb4000121c772,2024-02-21_21h37.16.716,kallum_motion_pilot,2023.2.2,Win32,59.88023952,5c0624cf891bb4000121c772,65d6bb0e977760de756971f7,65d6bfaa0a464a429d9a9195,0.3049,0.3053,0,96,96,145,1,fiveseven,,,,,,,,,,,,,,,,,,,,,,,,,,,,,,,,,,,,,,,,,,,,,,,,,,,,,,,,,,,,,,,,,,,,,,,,,,,,,,,,,,,,,,,,,,,,,,,,,,,,,,,,,,,,,,,,,,,,,,,,,,,,,,,,,,,,,,,,,
,,5c0624cf891bb4000121c772,2024-02-21_21h37.16.716,kallum_motion_pilot,2023.2.2,Win32,59.88023952,5c0624cf891bb4000121c772,65d6bb0e977760de756971f7,65d6bfaa0a464a429d9a9195,0.3058,0.3062,0,97,97,139,1,sixeight,,,,,,,,,,,,,,,,,,,,,,,,,,,,,,,,,,,,,,,,,,,,,,,,,,,,,,,,,,,,,,,,,,,,,,,,,,,,,,,,,,,,,,,,,,,,,,,,,,,,,,,,,,,,,,,,,,,,,,,,,,,,,,,,,,,,,,,,,
,,5c0624cf891bb4000121c772,2024-02-21_21h37.16.716,kallum_motion_pilot,2023.2.2,Win32,59.88023952,5c0624cf891bb4000121c772,65d6bb0e977760de756971f7,65d6bfaa0a464a429d9a9195,0.3069,0.3077,0,98,98,59,1,twofour,,,,,,,,,,,,,,,,,,,,,,,,,,,,,,,,,,,,,,,,,,,,,,,,,,,,,,,,,,,,,,,,,,,,,,,,,,,,,,,,,,,,,,,,,,,,,,,,,,,,,,,,,,,,,,,,,,,,,,,,,,,,,,,,,,,,,,,,,
,,5c0624cf891bb4000121c772,2024-02-21_21h37.16.716,kallum_motion_pilot,2023.2.2,Win32,59.88023952,5c0624cf891bb4000121c772,65d6bb0e977760de756971f7,65d6bfaa0a464a429d9a9195,0.3084,0.3087,0,99,99,54,1,fourtwo,,,,,,,,,,,,,,,,,,,,,,,,,,,,,,,,,,,,,,,,,,,,,,,,,,,,,,,,,,,,,,,,,,,,,,,,,,,,,,,,,,,,,,,,,,,,,,,,,,,,,,,,,,,,,,,,,,,,,,,,,,,,,,,,,,,,,,,,,
,,5c0624cf891bb4000121c772,2024-02-21_21h37.16.716,kallum_motion_pilot,2023.2.2,Win32,59.88023952,5c0624cf891bb4000121c772,65d6bb0e977760de756971f7,65d6bfaa0a464a429d9a9195,0.3095,0.3098,0,100,100,147,1,sixeight,,,,,,,,,,,,,,,,,,,,,,,,,,,,,,,,,,,,,,,,,,,,,,,,,,,,,,,,,,,,,,,,,,,,,,,,,,,,,,,,,,,,,,,,,,,,,,,,,,,,,,,,,,,,,,,,,,,,,,,,,,,,,,,,,,,,,,,,,
,,5c0624cf891bb4000121c772,2024-02-21_21h37.16.716,kallum_motion_pilot,2023.2.2,Win32,59.88023952,5c0624cf891bb4000121c772,65d6bb0e977760de756971f7,65d6bfaa0a464a429d9a9195,0.311,0.3113,0,101,101,112,1,fivesix,,,,,,,,,,,,,,,,,,,,,,,,,,,,,,,,,,,,,,,,,,,,,,,,,,,,,,,,,,,,,,,,,,,,,,,,,,,,,,,,,,,,,,,,,,,,,,,,,,,,,,,,,,,,,,,,,,,,,,,,,,,,,,,,,,,,,,,,,
,,5c0624cf891bb4000121c772,2024-02-21_21h37.16.716,kallum_motion_pilot,2023.2.2,Win32,59.88023952,5c0624cf891bb4000121c772,65d6bb0e977760de756971f7,65d6bfaa0a464a429d9a9195,0.3123,0.3124,0,102,102,50,1,twoone,,,,,,,,,,,,,,,,,,,,,,,,,,,,,,,,,,,,,,,,,,,,,,,,,,,,,,,,,,,,,,,,,,,,,,,,,,,,,,,,,,,,,,,,,,,,,,,,,,,,,,,,,,,,,,,,,,,,,,,,,,,,,,,,,,,,,,,,,
,,5c0624cf891bb4000121c772,2024-02-21_21h37.16.716,kallum_motion_pilot,2023.2.2,Win32,59.88023952,5c0624cf891bb4000121c772,65d6bb0e977760de756971f7,65d6bfaa0a464a429d9a9195,0.3146,0.3148,0,103,103,4,1,threeone,,,,,,,,,,,,,,,,,,,,,,,,,,,,,,,,,,,,,,,,,,,,,,,,,,,,,,,,,,,,,,,,,,,,,,,,,,,,,,,,,,,,,,,,,,,,,,,,,,,,,,,,,,,,,,,,,,,,,,,,,,,,,,,,,,,,,,,,,
,,5c0624cf891bb4000121c772,2024-02-21_21h37.16.716,kallum_motion_pilot,2023.2.2,Win32,59.88023952,5c0624cf891bb4000121c772,65d6bb0e977760de756971f7,65d6bfaa0a464a429d9a9195,0.3154,0.3158,0,104,104,24,1,onetwo,,,,,,,,,,,,,,,,,,,,,,,,,,,,,,,,,,,,,,,,,,,,,,,,,,,,,,,,,,,,,,,,,,,,,,,,,,,,,,,,,,,,,,,,,,,,,,,,,,,,,,,,,,,,,,,,,,,,,,,,,,,,,,,,,,,,,,,,,
,,5c0624cf891bb4000121c772,2024-02-21_21h37.16.716,kallum_motion_pilot,2023.2.2,Win32,59.88023952,5c0624cf891bb4000121c772,65d6bb0e977760de756971f7,65d6bfaa0a464a429d9a9195,0.3169,0.3183,0,105,105,27,1,twofour,,,,,,,,,,,,,,,,,,,,,,,,,,,,,,,,,,,,,,,,,,,,,,,,,,,,,,,,,,,,,,,,,,,,,,,,,,,,,,,,,,,,,,,,,,,,,,,,,,,,,,,,,,,,,,,,,,,,,,,,,,,,,,,,,,,,,,,,,
,,5c0624cf891bb4000121c772,2024-02-21_21h37.16.716,kallum_motion_pilot,2023.2.2,Win32,59.88023952,5c0624cf891bb4000121c772,65d6bb0e977760de756971f7,65d6bfaa0a464a429d9a9195,0.3194,0.32,0,106,106,158,1,eightsix,,,,,,,,,,,,,,,,,,,,,,,,,,,,,,,,,,,,,,,,,,,,,,,,,,,,,,,,,,,,,,,,,,,,,,,,,,,,,,,,,,,,,,,,,,,,,,,,,,,,,,,,,,,,,,,,,,,,,,,,,,,,,,,,,,,,,,,,,
,,5c0624cf891bb4000121c772,2024-02-21_21h37.16.716,kallum_motion_pilot,2023.2.2,Win32,59.88023952,5c0624cf891bb4000121c772,65d6bb0e977760de756971f7,65d6bfaa0a464a429d9a9195,0.3209,0.3216,0,107,107,134,1,eightsix,,,,,,,,,,,,,,,,,,,,,,,,,,,,,,,,,,,,,,,,,,,,,,,,,,,,,,,,,,,,,,,,,,,,,,,,,,,,,,,,,,,,,,,,,,,,,,,,,,,,,,,,,,,,,,,,,,,,,,,,,,,,,,,,,,,,,,,,,
,,5c0624cf891bb4000121c772,2024-02-21_21h37.16.716,kallum_motion_pilot,2023.2.2,Win32,59.88023952,5c0624cf891bb4000121c772,65d6bb0e977760de756971f7,65d6bfaa0a464a429d9a9195,0.3225,0.3232,0,108,108,81,1,fiveseven,,,,,,,,,,,,,,,,,,,,,,,,,,,,,,,,,,,,,,,,,,,,,,,,,,,,,,,,,,,,,,,,,,,,,,,,,,,,,,,,,,,,,,,,,,,,,,,,,,,,,,,,,,,,,,,,,,,,,,,,,,,,,,,,,,,,,,,,,
,,5c0624cf891bb4000121c772,2024-02-21_21h37.16.716,kallum_motion_pilot,2023.2.2,Win32,59.88023952,5c0624cf891bb4000121c772,65d6bb0e977760de756971f7,65d6bfaa0a464a429d9a9195,0.3241,0.3349,0,109,109,138,1,sixfive,,,,,,,,,,,,,,,,,,,,,,,,,,,,,,,,,,,,,,,,,,,,,,,,,,,,,,,,,,,,,,,,,,,,,,,,,,,,,,,,,,,,,,,,,,,,,,,,,,,,,,,,,,,,,,,,,,,,,,,,,,,,,,,,,,,,,,,,,
,,5c0624cf891bb4000121c772,2024-02-21_21h37.16.716,kallum_motion_pilot,2023.2.2,Win32,59.88023952,5c0624cf891bb4000121c772,65d6bb0e977760de756971f7,65d6bfaa0a464a429d9a9195,0.3365,0.3391,0,110,110,91,1,sixeight,,,,,,,,,,,,,,,,,,,,,,,,,,,,,,,,,,,,,,,,,,,,,,,,,,,,,,,,,,,,,,,,,,,,,,,,,,,,,,,,,,,,,,,,,,,,,,,,,,,,,,,,,,,,,,,,,,,,,,,,,,,,,,,,,,,,,,,,,
,,5c0624cf891bb4000121c772,2024-02-21_21h37.16.716,kallum_motion_pilot,2023.2.2,Win32,59.88023952,5c0624cf891bb4000121c772,65d6bb0e977760de756971f7,65d6bfaa0a464a429d9a9195,0.3408,0.3416,0,111,111,136,1,fivesix,,,,,,,,,,,,,,,,,,,,,,,,,,,,,,,,,,,,,,,,,,,,,,,,,,,,,,,,,,,,,,,,,,,,,,,,,,,,,,,,,,,,,,,,,,,,,,,,,,,,,,,,,,,,,,,,,,,,,,,,,,,,,,,,,,,,,,,,,
,,5c0624cf891bb4000121c772,2024-02-21_21h37.16.716,kallum_motion_pilot,2023.2.2,Win32,59.88023952,5c0624cf891bb4000121c772,65d6bb0e977760de756971f7,65d6bfaa0a464a429d9a9195,0.3432,0.3451,0,112,112,80,1,fivesix,,,,,,,,,,,,,,,,,,,,,,,,,,,,,,,,,,,,,,,,,,,,,,,,,,,,,,,,,,,,,,,,,,,,,,,,,,,,,,,,,,,,,,,,,,,,,,,,,,,,,,,,,,,,,,,,,,,,,,,,,,,,,,,,,,,,,,,,,
,,5c0624cf891bb4000121c772,2024-02-21_21h37.16.716,kallum_motion_pilot,2023.2.2,Win32,59.88023952,5c0624cf891bb4000121c772,65d6bb0e977760de756971f7,65d6bfaa0a464a429d9a9195,0.3465,0.3467,0,113,113,32,1,onetwo,,,,,,,,,,,,,,,,,,,,,,,,,,,,,,,,,,,,,,,,,,,,,,,,,,,,,,,,,,,,,,,,,,,,,,,,,,,,,,,,,,,,,,,,,,,,,,,,,,,,,,,,,,,,,,,,,,,,,,,,,,,,,,,,,,,,,,,,,
,,5c0624cf891bb4000121c772,2024-02-21_21h37.16.716,kallum_motion_pilot,2023.2.2,Win32,59.88023952,5c0624cf891bb4000121c772,65d6bb0e977760de756971f7,65d6bfaa0a464a429d9a9195,0.3478,0.3484,0,114,114,49,1,onethree,,,,,,,,,,,,,,,,,,,,,,,,,,,,,,,,,,,,,,,,,,,,,,,,,,,,,,,,,,,,,,,,,,,,,,,,,,,,,,,,,,,,,,,,,,,,,,,,,,,,,,,,,,,,,,,,,,,,,,,,,,,,,,,,,,,,,,,,,
,,5c0624cf891bb4000121c772,2024-02-21_21h37.16.716,kallum_motion_pilot,2023.2.2,Win32,59.88023952,5c0624cf891bb4000121c772,65d6bb0e977760de756971f7,65d6bfaa0a464a429d9a9195,0.3493,0.3494,0,115,115,118,1,eightsix,,,,,,,,,,,,,,,,,,,,,,,,,,,,,,,,,,,,,,,,,,,,,,,,,,,,,,,,,,,,,,,,,,,,,,,,,,,,,,,,,,,,,,,,,,,,,,,,,,,,,,,,,,,,,,,,,,,,,,,,,,,,,,,,,,,,,,,,,
,,5c0624cf891bb4000121c772,2024-02-21_21h37.16.716,kallum_motion_pilot,2023.2.2,Win32,59.88023952,5c0624cf891bb4000121c772,65d6bb0e977760de756971f7,65d6bfaa0a464a429d9a9195,0.3503,0.351,0,116,116,17,1,onethree,,,,,,,,,,,,,,,,,,,,,,,,,,,,,,,,,,,,,,,,,,,,,,,,,,,,,,,,,,,,,,,,,,,,,,,,,,,,,,,,,,,,,,,,,,,,,,,,,,,,,,,,,,,,,,,,,,,,,,,,,,,,,,,,,,,,,,,,,
,,5c0624cf891bb4000121c772,2024-02-21_21h37.16.716,kallum_motion_pilot,2023.2.2,Win32,59.88023952,5c0624cf891bb4000121c772,65d6bb0e977760de756971f7,65d6bfaa0a464a429d9a9195,0.3529,0.3535,0,117,117,132,1,sevenfive,,,,,,,,,,,,,,,,,,,,,,,,,,,,,,,,,,,,,,,,,,,,,,,,,,,,,,,,,,,,,,,,,,,,,,,,,,,,,,,,,,,,,,,,,,,,,,,,,,,,,,,,,,,,,,,,,,,,,,,,,,,,,,,,,,,,,,,,,
,,5c0624cf891bb4000121c772,2024-02-21_21h37.16.716,kallum_motion_pilot,2023.2.2,Win32,59.88023952,5c0624cf891bb4000121c772,65d6bb0e977760de756971f7,65d6bfaa0a464a429d9a9195,0.3543,0.3545,0,118,118,126,1,eightsix,,,,,,,,,,,,,,,,,,,,,,,,,,,,,,,,,,,,,,,,,,,,,,,,,,,,,,,,,,,,,,,,,,,,,,,,,,,,,,,,,,,,,,,,,,,,,,,,,,,,,,,,,,,,,,,,,,,,,,,,,,,,,,,,,,,,,,,,,
,,5c0624cf891bb4000121c772,2024-02-21_21h37.16.716,kallum_motion_pilot,2023.2.2,Win32,59.88023952,5c0624cf891bb4000121c772,65d6bb0e977760de756971f7,65d6bfaa0a464a429d9a9195,0.3556,0.3558,0,119,119,77,1,threefour,,,,,,,,,,,,,,,,,,,,,,,,,,,,,,,,,,,,,,,,,,,,,,,,,,,,,,,,,,,,,,,,,,,,,,,,,,,,,,,,,,,,,,,,,,,,,,,,,,,,,,,,,,,,,,,,,,,,,,,,,,,,,,,,,,,,,,,,,
,,5c0624cf891bb4000121c772,2024-02-21_21h37.16.716,kallum_motion_pilot,2023.2.2,Win32,59.88023952,5c0624cf891bb4000121c772,65d6bb0e977760de756971f7,65d6bfaa0a464a429d9a9195,0.3564,0.3568,0,120,120,130,1,sixfive,,,,,,,,,,,,,,,,,,,,,,,,,,,,,,,,,,,,,,,,,,,,,,,,,,,,,,,,,,,,,,,,,,,,,,,,,,,,,,,,,,,,,,,,,,,,,,,,,,,,,,,,,,,,,,,,,,,,,,,,,,,,,,,,,,,,,,,,,
,,5c0624cf891bb4000121c772,2024-02-21_21h37.16.716,kallum_motion_pilot,2023.2.2,Win32,59.88023952,5c0624cf891bb4000121c772,65d6bb0e977760de756971f7,65d6bfaa0a464a429d9a9195,0.3583,0.3597,0,121,121,56,1,onetwo,,,,,,,,,,,,,,,,,,,,,,,,,,,,,,,,,,,,,,,,,,,,,,,,,,,,,,,,,,,,,,,,,,,,,,,,,,,,,,,,,,,,,,,,,,,,,,,,,,,,,,,,,,,,,,,,,,,,,,,,,,,,,,,,,,,,,,,,,
,,5c0624cf891bb4000121c772,2024-02-21_21h37.16.716,kallum_motion_pilot,2023.2.2,Win32,59.88023952,5c0624cf891bb4000121c772,65d6bb0e977760de756971f7,65d6bfaa0a464a429d9a9195,0.361,0.3613,0,122,122,16,1,onetwo,,,,,,,,,,,,,,,,,,,,,,,,,,,,,,,,,,,,,,,,,,,,,,,,,,,,,,,,,,,,,,,,,,,,,,,,,,,,,,,,,,,,,,,,,,,,,,,,,,,,,,,,,,,,,,,,,,,,,,,,,,,,,,,,,,,,,,,,,
,,5c0624cf891bb4000121c772,2024-02-21_21h37.16.716,kallum_motion_pilot,2023.2.2,Win32,59.88023952,5c0624cf891bb4000121c772,65d6bb0e977760de756971f7,65d6bfaa0a464a429d9a9195,0.362,0.3624,0,123,123,99,1,sixeight,,,,,,,,,,,,,,,,,,,,,,,,,,,,,,,,,,,,,,,,,,,,,,,,,,,,,,,,,,,,,,,,,,,,,,,,,,,,,,,,,,,,,,,,,,,,,,,,,,,,,,,,,,,,,,,,,,,,,,,,,,,,,,,,,,,,,,,,,
,,5c0624cf891bb4000121c772,2024-02-21_21h37.16.716,kallum_motion_pilot,2023.2.2,Win32,59.88023952,5c0624cf891bb4000121c772,65d6bb0e977760de756971f7,65d6bfaa0a464a429d9a9195,0.3641,0.3646,0,124,124,33,1,onethree,,,,,,,,,,,,,,,,,,,,,,,,,,,,,,,,,,,,,,,,,,,,,,,,,,,,,,,,,,,,,,,,,,,,,,,,,,,,,,,,,,,,,,,,,,,,,,,,,,,,,,,,,,,,,,,,,,,,,,,,,,,,,,,,,,,,,,,,,
,,5c0624cf891bb4000121c772,2024-02-21_21h37.16.716,kallum_motion_pilot,2023.2.2,Win32,59.88023952,5c0624cf891bb4000121c772,65d6bb0e977760de756971f7,65d6bfaa0a464a429d9a9195,0.3657,0.3666,0,125,125,66,1,twoone,,,,,,,,,,,,,,,,,,,,,,,,,,,,,,,,,,,,,,,,,,,,,,,,,,,,,,,,,,,,,,,,,,,,,,,,,,,,,,,,,,,,,,,,,,,,,,,,,,,,,,,,,,,,,,,,,,,,,,,,,,,,,,,,,,,,,,,,,
,,5c0624cf891bb4000121c772,2024-02-21_21h37.16.716,kallum_motion_pilot,2023.2.2,Win32,59.88023952,5c0624cf891bb4000121c772,65d6bb0e977760de756971f7,65d6bfaa0a464a429d9a9195,0.3682,0.3689,0,126,126,84,1,sevenfive,,,,,,,,,,,,,,,,,,,,,,,,,,,,,,,,,,,,,,,,,,,,,,,,,,,,,,,,,,,,,,,,,,,,,,,,,,,,,,,,,,,,,,,,,,,,,,,,,,,,,,,,,,,,,,,,,,,,,,,,,,,,,,,,,,,,,,,,,
,,5c0624cf891bb4000121c772,2024-02-21_21h37.16.716,kallum_motion_pilot,2023.2.2,Win32,59.88023952,5c0624cf891bb4000121c772,65d6bb0e977760de756971f7,65d6bfaa0a464a429d9a9195,0.3701,0.3706,0,127,127,144,1,fivesix,,,,,,,,,,,,,,,,,,,,,,,,,,,,,,,,,,,,,,,,,,,,,,,,,,,,,,,,,,,,,,,,,,,,,,,,,,,,,,,,,,,,,,,,,,,,,,,,,,,,,,,,,,,,,,,,,,,,,,,,,,,,,,,,,,,,,,,,,
,,5c0624cf891bb4000121c772,2024-02-21_21h37.16.716,kallum_motion_pilot,2023.2.2,Win32,59.88023952,5c0624cf891bb4000121c772,65d6bb0e977760de756971f7,65d6bfaa0a464a429d9a9195,0.3715,0.3721,0,128,128,37,1,threefour,,,,,,,,,,,,,,,,,,,,,,,,,,,,,,,,,,,,,,,,,,,,,,,,,,,,,,,,,,,,,,,,,,,,,,,,,,,,,,,,,,,,,,,,,,,,,,,,,,,,,,,,,,,,,,,,,,,,,,,,,,,,,,,,,,,,,,,,,
,,5c0624cf891bb4000121c772,2024-02-21_21h37.16.716,kallum_motion_pilot,2023.2.2,Win32,59.88023952,5c0624cf891bb4000121c772,65d6bb0e977760de756971f7,65d6bfaa0a464a429d9a9195,0.3729,0.3742,0,129,129,48,1,onetwo,,,,,,,,,,,,,,,,,,,,,,,,,,,,,,,,,,,,,,,,,,,,,,,,,,,,,,,,,,,,,,,,,,,,,,,,,,,,,,,,,,,,,,,,,,,,,,,,,,,,,,,,,,,,,,,,,,,,,,,,,,,,,,,,,,,,,,,,,
,,5c0624cf891bb4000121c772,2024-02-21_21h37.16.716,kallum_motion_pilot,2023.2.2,Win32,59.88023952,5c0624cf891bb4000121c772,65d6bb0e977760de756971f7,65d6bfaa0a464a429d9a9195,0.3763,0.3765,0,130,130,55,1,fourthree,,,,,,,,,,,,,,,,,,,,,,,,,,,,,,,,,,,,,,,,,,,,,,,,,,,,,,,,,,,,,,,,,,,,,,,,,,,,,,,,,,,,,,,,,,,,,,,,,,,,,,,,,,,,,,,,,,,,,,,,,,,,,,,,,,,,,,,,,
,,5c0624cf891bb4000121c772,2024-02-21_21h37.16.716,kallum_motion_pilot,2023.2.2,Win32,59.88023952,5c0624cf891bb4000121c772,65d6bb0e977760de756971f7,65d6bfaa0a464a429d9a9195,0.3785,0.379,0,131,131,75,1,twofour,,,,,,,,,,,,,,,,,,,,,,,,,,,,,,,,,,,,,,,,,,,,,,,,,,,,,,,,,,,,,,,,,,,,,,,,,,,,,,,,,,,,,,,,,,,,,,,,,,,,,,,,,,,,,,,,,,,,,,,,,,,,,,,,,,,,,,,,,
,,5c0624cf891bb4000121c772,2024-02-21_21h37.16.716,kallum_motion_pilot,2023.2.2,Win32,59.88023952,5c0624cf891bb4000121c772,65d6bb0e977760de756971f7,65d6bfaa0a464a429d9a9195,0.38,0.3808,0,132,132,97,1,fiveseven,,,,,,,,,,,,,,,,,,,,,,,,,,,,,,,,,,,,,,,,,,,,,,,,,,,,,,,,,,,,,,,,,,,,,,,,,,,,,,,,,,,,,,,,,,,,,,,,,,,,,,,,,,,,,,,,,,,,,,,,,,,,,,,,,,,,,,,,,
,,5c0624cf891bb4000121c772,2024-02-21_21h37.16.716,kallum_motion_pilot,2023.2.2,Win32,59.88023952,5c0624cf891bb4000121c772,65d6bb0e977760de756971f7,65d6bfaa0a464a429d9a9195,0.3818,0.3825,0,133,133,0,1,onetwo,,,,,,,,,,,,,,,,,,,,,,,,,,,,,,,,,,,,,,,,,,,,,,,,,,,,,,,,,,,,,,,,,,,,,,,,,,,,,,,,,,,,,,,,,,,,,,,,,,,,,,,,,,,,,,,,,,,,,,,,,,,,,,,,,,,,,,,,,
,,5c0624cf891bb4000121c772,2024-02-21_21h37.16.716,kallum_motion_pilot,2023.2.2,Win32,59.88023952,5c0624cf891bb4000121c772,65d6bb0e977760de756971f7,65d6bfaa0a464a429d9a9195,0.3836,0.3838,0,134,134,155,1,sixeight,,,,,,,,,,,,,,,,,,,,,,,,,,,,,,,,,,,,,,,,,,,,,,,,,,,,,,,,,,,,,,,,,,,,,,,,,,,,,,,,,,,,,,,,,,,,,,,,,,,,,,,,,,,,,,,,,,,,,,,,,,,,,,,,,,,,,,,,,
,,5c0624cf891bb4000121c772,2024-02-21_21h37.16.716,kallum_motion_pilot,2023.2.2,Win32,59.88023952,5c0624cf891bb4000121c772,65d6bb0e977760de756971f7,65d6bfaa0a464a429d9a9195,0.3845,0.3848,0,135,135,160,1,fivesix,,,,,,,,,,,,,,,,,,,,,,,,,,,,,,,,,,,,,,,,,,,,,,,,,,,,,,,,,,,,,,,,,,,,,,,,,,,,,,,,,,,,,,,,,,,,,,,,,,,,,,,,,,,,,,,,,,,,,,,,,,,,,,,,,,,,,,,,,
,,5c0624cf891bb4000121c772,2024-02-21_21h37.16.716,kallum_motion_pilot,2023.2.2,Win32,59.88023952,5c0624cf891bb4000121c772,65d6bb0e977760de756971f7,65d6bfaa0a464a429d9a9195,0.3854,0.3859,0,136,136,14,1,fourtwo,,,,,,,,,,,,,,,,,,,,,,,,,,,,,,,,,,,,,,,,,,,,,,,,,,,,,,,,,,,,,,,,,,,,,,,,,,,,,,,,,,,,,,,,,,,,,,,,,,,,,,,,,,,,,,,,,,,,,,,,,,,,,,,,,,,,,,,,,
,,5c0624cf891bb4000121c772,2024-02-21_21h37.16.716,kallum_motion_pilot,2023.2.2,Win32,59.88023952,5c0624cf891bb4000121c772,65d6bb0e977760de756971f7,65d6bfaa0a464a429d9a9195,0.3863,0.3868,0,137,137,1,1,onethree,,,,,,,,,,,,,,,,,,,,,,,,,,,,,,,,,,,,,,,,,,,,,,,,,,,,,,,,,,,,,,,,,,,,,,,,,,,,,,,,,,,,,,,,,,,,,,,,,,,,,,,,,,,,,,,,,,,,,,,,,,,,,,,,,,,,,,,,,
,,5c0624cf891bb4000121c772,2024-02-21_21h37.16.716,kallum_motion_pilot,2023.2.2,Win32,59.88023952,5c0624cf891bb4000121c772,65d6bb0e977760de756971f7,65d6bfaa0a464a429d9a9195,0.3877,0.3883,0,138,138,100,1,sevenfive,,,,,,,,,,,,,,,,,,,,,,,,,,,,,,,,,,,,,,,,,,,,,,,,,,,,,,,,,,,,,,,,,,,,,,,,,,,,,,,,,,,,,,,,,,,,,,,,,,,,,,,,,,,,,,,,,,,,,,,,,,,,,,,,,,,,,,,,,
,,5c0624cf891bb4000121c772,2024-02-21_21h37.16.716,kallum_motion_pilot,2023.2.2,Win32,59.88023952,5c0624cf891bb4000121c772,65d6bb0e977760de756971f7,65d6bfaa0a464a429d9a9195,0.3889,0.3893,0,139,139,26,1,twoone,,,,,,,,,,,,,,,,,,,,,,,,,,,,,,,,,,,,,,,,,,,,,,,,,,,,,,,,,,,,,,,,,,,,,,,,,,,,,,,,,,,,,,,,,,,,,,,,,,,,,,,,,,,,,,,,,,,,,,,,,,,,,,,,,,,,,,,,,
,,5c0624cf891bb4000121c772,2024-02-21_21h37.16.716,kallum_motion_pilot,2023.2.2,Win32,59.88023952,5c0624cf891bb4000121c772,65d6bb0e977760de756971f7,65d6bfaa0a464a429d9a9195,0.3903,0.3906,0,140,140,39,1,fourthree,,,,,,,,,,,,,,,,,,,,,,,,,,,,,,,,,,,,,,,,,,,,,,,,,,,,,,,,,,,,,,,,,,,,,,,,,,,,,,,,,,,,,,,,,,,,,,,,,,,,,,,,,,,,,,,,,,,,,,,,,,,,,,,,,,,,,,,,,
,,5c0624cf891bb4000121c772,2024-02-21_21h37.16.716,kallum_motion_pilot,2023.2.2,Win32,59.88023952,5c0624cf891bb4000121c772,65d6bb0e977760de756971f7,65d6bfaa0a464a429d9a9195,0.3921,0.3923,0,141,141,120,1,fivesix,,,,,,,,,,,,,,,,,,,,,,,,,,,,,,,,,,,,,,,,,,,,,,,,,,,,,,,,,,,,,,,,,,,,,,,,,,,,,,,,,,,,,,,,,,,,,,,,,,,,,,,,,,,,,,,,,,,,,,,,,,,,,,,,,,,,,,,,,
,,5c0624cf891bb4000121c772,2024-02-21_21h37.16.716,kallum_motion_pilot,2023.2.2,Win32,59.88023952,5c0624cf891bb4000121c772,65d6bb0e977760de756971f7,65d6bfaa0a464a429d9a9195,0.393,0.3942,0,142,142,21,1,threefour,,,,,,,,,,,,,,,,,,,,,,,,,,,,,,,,,,,,,,,,,,,,,,,,,,,,,,,,,,,,,,,,,,,,,,,,,,,,,,,,,,,,,,,,,,,,,,,,,,,,,,,,,,,,,,,,,,,,,,,,,,,,,,,,,,,,,,,,,
,,5c0624cf891bb4000121c772,2024-02-21_21h37.16.716,kallum_motion_pilot,2023.2.2,Win32,59.88023952,5c0624cf891bb4000121c772,65d6bb0e977760de756971f7,65d6bfaa0a464a429d9a9195,0.3953,0.3961,0,143,143,156,1,sevenfive,,,,,,,,,,,,,,,,,,,,,,,,,,,,,,,,,,,,,,,,,,,,,,,,,,,,,,,,,,,,,,,,,,,,,,,,,,,,,,,,,,,,,,,,,,,,,,,,,,,,,,,,,,,,,,,,,,,,,,,,,,,,,,,,,,,,,,,,,
,,5c0624cf891bb4000121c772,2024-02-21_21h37.16.716,kallum_motion_pilot,2023.2.2,Win32,59.88023952,5c0624cf891bb4000121c772,65d6bb0e977760de756971f7,65d6bfaa0a464a429d9a9195,0.3968,0.3975,0,144,144,43,1,twofour,,,,,,,,,,,,,,,,,,,,,,,,,,,,,,,,,,,,,,,,,,,,,,,,,,,,,,,,,,,,,,,,,,,,,,,,,,,,,,,,,,,,,,,,,,,,,,,,,,,,,,,,,,,,,,,,,,,,,,,,,,,,,,,,,,,,,,,,,
,,5c0624cf891bb4000121c772,2024-02-21_21h37.16.716,kallum_motion_pilot,2023.2.2,Win32,59.88023952,5c0624cf891bb4000121c772,65d6bb0e977760de756971f7,65d6bfaa0a464a429d9a9195,0.3983,0.3988,0,145,145,95,1,eightseven,,,,,,,,,,,,,,,,,,,,,,,,,,,,,,,,,,,,,,,,,,,,,,,,,,,,,,,,,,,,,,,,,,,,,,,,,,,,,,,,,,,,,,,,,,,,,,,,,,,,,,,,,,,,,,,,,,,,,,,,,,,,,,,,,,,,,,,,,
,,5c0624cf891bb4000121c772,2024-02-21_21h37.16.716,kallum_motion_pilot,2023.2.2,Win32,59.88023952,5c0624cf891bb4000121c772,65d6bb0e977760de756971f7,65d6bfaa0a464a429d9a9195,0.3995,0.3999,0,146,146,7,1,fourthree,,,,,,,,,,,,,,,,,,,,,,,,,,,,,,,,,,,,,,,,,,,,,,,,,,,,,,,,,,,,,,,,,,,,,,,,,,,,,,,,,,,,,,,,,,,,,,,,,,,,,,,,,,,,,,,,,,,,,,,,,,,,,,,,,,,,,,,,,
,,5c0624cf891bb4000121c772,2024-02-21_21h37.16.716,kallum_motion_pilot,2023.2.2,Win32,59.88023952,5c0624cf891bb4000121c772,65d6bb0e977760de756971f7,65d6bfaa0a464a429d9a9195,0.4009,0.4012,0,147,147,62,1,fourtwo,,,,,,,,,,,,,,,,,,,,,,,,,,,,,,,,,,,,,,,,,,,,,,,,,,,,,,,,,,,,,,,,,,,,,,,,,,,,,,,,,,,,,,,,,,,,,,,,,,,,,,,,,,,,,,,,,,,,,,,,,,,,,,,,,,,,,,,,,
,,5c0624cf891bb4000121c772,2024-02-21_21h37.16.716,kallum_motion_pilot,2023.2.2,Win32,59.88023952,5c0624cf891bb4000121c772,65d6bb0e977760de756971f7,65d6bfaa0a464a429d9a9195,0.4018,0.4022,0,148,148,6,1,fourtwo,,,,,,,,,,,,,,,,,,,,,,,,,,,,,,,,,,,,,,,,,,,,,,,,,,,,,,,,,,,,,,,,,,,,,,,,,,,,,,,,,,,,,,,,,,,,,,,,,,,,,,,,,,,,,,,,,,,,,,,,,,,,,,,,,,,,,,,,,
,,5c0624cf891bb4000121c772,2024-02-21_21h37.16.716,kallum_motion_pilot,2023.2.2,Win32,59.88023952,5c0624cf891bb4000121c772,65d6bb0e977760de756971f7,65d6bfaa0a464a429d9a9195,0.4027,0.4029,0,149,149,116,1,sevenfive,,,,,,,,,,,,,,,,,,,,,,,,,,,,,,,,,,,,,,,,,,,,,,,,,,,,,,,,,,,,,,,,,,,,,,,,,,,,,,,,,,,,,,,,,,,,,,,,,,,,,,,,,,,,,,,,,,,,,,,,,,,,,,,,,,,,,,,,,
,,5c0624cf891bb4000121c772,2024-02-21_21h37.16.716,kallum_motion_pilot,2023.2.2,Win32,59.88023952,5c0624cf891bb4000121c772,65d6bb0e977760de756971f7,65d6bfaa0a464a429d9a9195,0.4032,0.4038,0,150,150,161,1,fiveseven,,,,,,,,,,,,,,,,,,,,,,,,,,,,,,,,,,,,,,,,,,,,,,,,,,,,,,,,,,,,,,,,,,,,,,,,,,,,,,,,,,,,,,,,,,,,,,,,,,,,,,,,,,,,,,,,,,,,,,,,,,,,,,,,,,,,,,,,,
,,5c0624cf891bb4000121c772,2024-02-21_21h37.16.716,kallum_motion_pilot,2023.2.2,Win32,59.88023952,5c0624cf891bb4000121c772,65d6bb0e977760de756971f7,65d6bfaa0a464a429d9a9195,0.4047,0.4054,0,151,151,154,1,sixfive,,,,,,,,,,,,,,,,,,,,,,,,,,,,,,,,,,,,,,,,,,,,,,,,,,,,,,,,,,,,,,,,,,,,,,,,,,,,,,,,,,,,,,,,,,,,,,,,,,,,,,,,,,,,,,,,,,,,,,,,,,,,,,,,,,,,,,,,,
,,5c0624cf891bb4000121c772,2024-02-21_21h37.16.716,kallum_motion_pilot,2023.2.2,Win32,59.88023952,5c0624cf891bb4000121c772,65d6bb0e977760de756971f7,65d6bfaa0a464a429d9a9195,0.4062,0.4067,0,152,152,94,1,eightsix,,,,,,,,,,,,,,,,,,,,,,,,,,,,,,,,,,,,,,,,,,,,,,,,,,,,,,,,,,,,,,,,,,,,,,,,,,,,,,,,,,,,,,,,,,,,,,,,,,,,,,,,,,,,,,,,,,,,,,,,,,,,,,,,,,,,,,,,,
,,5c0624cf891bb4000121c772,2024-02-21_21h37.16.716,kallum_motion_pilot,2023.2.2,Win32,59.88023952,5c0624cf891bb4000121c772,65d6bb0e977760de756971f7,65d6bfaa0a464a429d9a9195,0.4081,0.4083,0,153,153,85,1,seveneight,,,,,,,,,,,,,,,,,,,,,,,,,,,,,,,,,,,,,,,,,,,,,,,,,,,,,,,,,,,,,,,,,,,,,,,,,,,,,,,,,,,,,,,,,,,,,,,,,,,,,,,,,,,,,,,,,,,,,,,,,,,,,,,,,,,,,,,,,
,,5c0624cf891bb4000121c772,2024-02-21_21h37.16.716,kallum_motion_pilot,2023.2.2,Win32,59.88023952,5c0624cf891bb4000121c772,65d6bb0e977760de756971f7,65d6bfaa0a464a429d9a9195,0.4094,0.4097,0,154,154,18,1,twoone,,,,,,,,,,,,,,,,,,,,,,,,,,,,,,,,,,,,,,,,,,,,,,,,,,,,,,,,,,,,,,,,,,,,,,,,,,,,,,,,,,,,,,,,,,,,,,,,,,,,,,,,,,,,,,,,,,,,,,,,,,,,,,,,,,,,,,,,,
,,5c0624cf891bb4000121c772,2024-02-21_21h37.16.716,kallum_motion_pilot,2023.2.2,Win32,59.88023952,5c0624cf891bb4000121c772,65d6bb0e977760de756971f7,65d6bfaa0a464a429d9a9195,0.4109,0.4114,0,155,155,133,1,seveneight,,,,,,,,,,,,,,,,,,,,,,,,,,,,,,,,,,,,,,,,,,,,,,,,,,,,,,,,,,,,,,,,,,,,,,,,,,,,,,,,,,,,,,,,,,,,,,,,,,,,,,,,,,,,,,,,,,,,,,,,,,,,,,,,,,,,,,,,,
,,5c0624cf891bb4000121c772,2024-02-21_21h37.16.716,kallum_motion_pilot,2023.2.2,Win32,59.88023952,5c0624cf891bb4000121c772,65d6bb0e977760de756971f7,65d6bfaa0a464a429d9a9195,0.412,0.4124,0,156,156,149,1,seveneight,,,,,,,,,,,,,,,,,,,,,,,,,,,,,,,,,,,,,,,,,,,,,,,,,,,,,,,,,,,,,,,,,,,,,,,,,,,,,,,,,,,,,,,,,,,,,,,,,,,,,,,,,,,,,,,,,,,,,,,,,,,,,,,,,,,,,,,,,
,,5c0624cf891bb4000121c772,2024-02-21_21h37.16.716,kallum_motion_pilot,2023.2.2,Win32,59.88023952,5c0624cf891bb4000121c772,65d6bb0e977760de756971f7,65d6bfaa0a464a429d9a9195,0.4132,0.4139,0,157,157,8,1,onetwo,,,,,,,,,,,,,,,,,,,,,,,,,,,,,,,,,,,,,,,,,,,,,,,,,,,,,,,,,,,,,,,,,,,,,,,,,,,,,,,,,,,,,,,,,,,,,,,,,,,,,,,,,,,,,,,,,,,,,,,,,,,,,,,,,,,,,,,,,
,,5c0624cf891bb4000121c772,2024-02-21_21h37.16.716,kallum_motion_pilot,2023.2.2,Win32,59.88023952,5c0624cf891bb4000121c772,65d6bb0e977760de756971f7,65d6bfaa0a464a429d9a9195,0.4147,0.4154,0,158,158,51,1,twofour,,,,,,,,,,,,,,,,,,,,,,,,,,,,,,,,,,,,,,,,,,,,,,,,,,,,,,,,,,,,,,,,,,,,,,,,,,,,,,,,,,,,,,,,,,,,,,,,,,,,,,,,,,,,,,,,,,,,,,,,,,,,,,,,,,,,,,,,,
,,5c0624cf891bb4000121c772,2024-02-21_21h37.16.716,kallum_motion_pilot,2023.2.2,Win32,59.88023952,5c0624cf891bb4000121c772,65d6bb0e977760de756971f7,65d6bfaa0a464a429d9a9195,0.4162,0.4169,0,159,159,45,1,threefour,,,,,,,,,,,,,,,,,,,,,,,,,,,,,,,,,,,,,,,,,,,,,,,,,,,,,,,,,,,,,,,,,,,,,,,,,,,,,,,,,,,,,,,,,,,,,,,,,,,,,,,,,,,,,,,,,,,,,,,,,,,,,,,,,,,,,,,,,
,,5c0624cf891bb4000121c772,2024-02-21_21h37.16.716,kallum_motion_pilot,2023.2.2,Win32,59.88023952,5c0624cf891bb4000121c772,65d6bb0e977760de756971f7,65d6bfaa0a464a429d9a9195,0.4183,0.4186,0,160,160,60,1,threeone,,,,,,,,,,,,,,,,,,,,,,,,,,,,,,,,,,,,,,,,,,,,,,,,,,,,,,,,,,,,,,,,,,,,,,,,,,,,,,,,,,,,,,,,,,,,,,,,,,,,,,,,,,,,,,,,,,,,,,,,,,,,,,,,,,,,,,,,,
,,5c0624cf891bb4000121c772,2024-02-21_21h37.16.716,kallum_motion_pilot,2023.2.2,Win32,59.88023952,5c0624cf891bb4000121c772,65d6bb0e977760de756971f7,65d6bfaa0a464a429d9a9195,0.4192,0.4196,0,161,161,135,1,eightseven,,,,,,,,,,,,,,,,,,,,,,,,,,,,,,,,,,,,,,,,,,,,,,,,,,,,,,,,,,,,,,,,,,,,,,,,,,,,,,,,,,,,,,,,,,,,,,,,,,,,,,,,,,,,,,,,,,,,,,,,,,,,,,,,,,,,,,,,,
,,5c0624cf891bb4000121c772,2024-02-21_21h37.16.716,kallum_motion_pilot,2023.2.2,Win32,59.88023952,5c0624cf891bb4000121c772,65d6bb0e977760de756971f7,65d6bfaa0a464a429d9a9195,0.4206,0.4208,1,0,162,20,1,threeone,,,,,,,,,,,,,,,,,,,,,,,,,,,,,,,,,,,,,,,,,,,,,,,,,,,,,,,,,,,,,,,,,,,,,,,,,,,,,,,,,,,,,,,,,,,,,,,,,,,,,,,,,,,,,,,,,,,,,,,,,,,,,,,,,,,,,,,,,
,,5c0624cf891bb4000121c772,2024-02-21_21h37.16.716,kallum_motion_pilot,2023.2.2,Win32,59.88023952,5c0624cf891bb4000121c772,65d6bb0e977760de756971f7,65d6bfaa0a464a429d9a9195,0.4214,0.4219,1,1,163,146,1,sixfive,,,,,,,,,,,,,,,,,,,,,,,,,,,,,,,,,,,,,,,,,,,,,,,,,,,,,,,,,,,,,,,,,,,,,,,,,,,,,,,,,,,,,,,,,,,,,,,,,,,,,,,,,,,,,,,,,,,,,,,,,,,,,,,,,,,,,,,,,
,,5c0624cf891bb4000121c772,2024-02-21_21h37.16.716,kallum_motion_pilot,2023.2.2,Win32,59.88023952,5c0624cf891bb4000121c772,65d6bb0e977760de756971f7,65d6bfaa0a464a429d9a9195,0.4229,0.4236,1,2,164,72,1,onetwo,,,,,,,,,,,,,,,,,,,,,,,,,,,,,,,,,,,,,,,,,,,,,,,,,,,,,,,,,,,,,,,,,,,,,,,,,,,,,,,,,,,,,,,,,,,,,,,,,,,,,,,,,,,,,,,,,,,,,,,,,,,,,,,,,,,,,,,,,
,,5c0624cf891bb4000121c772,2024-02-21_21h37.16.716,kallum_motion_pilot,2023.2.2,Win32,59.88023952,5c0624cf891bb4000121c772,65d6bb0e977760de756971f7,65d6bfaa0a464a429d9a9195,0.4245,0.4252,1,3,165,154,1,sixfive,,,,,,,,,,,,,,,,,,,,,,,,,,,,,,,,,,,,,,,,,,,,,,,,,,,,,,,,,,,,,,,,,,,,,,,,,,,,,,,,,,,,,,,,,,,,,,,,,,,,,,,,,,,,,,,,,,,,,,,,,,,,,,,,,,,,,,,,,
,,5c0624cf891bb4000121c772,2024-02-21_21h37.16.716,kallum_motion_pilot,2023.2.2,Win32,59.88023952,5c0624cf891bb4000121c772,65d6bb0e977760de756971f7,65d6bfaa0a464a429d9a9195,0.4262,0.4285,1,4,166,17,1,onethree,,,,,,,,,,,,,,,,,,,,,,,,,,,,,,,,,,,,,,,,,,,,,,,,,,,,,,,,,,,,,,,,,,,,,,,,,,,,,,,,,,,,,,,,,,,,,,,,,,,,,,,,,,,,,,,,,,,,,,,,,,,,,,,,,,,,,,,,,
,,5c0624cf891bb4000121c772,2024-02-21_21h37.16.716,kallum_motion_pilot,2023.2.2,Win32,59.88023952,5c0624cf891bb4000121c772,65d6bb0e977760de756971f7,65d6bfaa0a464a429d9a9195,0.4294,0.4301,1,5,167,5,1,threefour,,,,,,,,,,,,,,,,,,,,,,,,,,,,,,,,,,,,,,,,,,,,,,,,,,,,,,,,,,,,,,,,,,,,,,,,,,,,,,,,,,,,,,,,,,,,,,,,,,,,,,,,,,,,,,,,,,,,,,,,,,,,,,,,,,,,,,,,,
,,5c0624cf891bb4000121c772,2024-02-21_21h37.16.716,kallum_motion_pilot,2023.2.2,Win32,59.88023952,5c0624cf891bb4000121c772,65d6bb0e977760de756971f7,65d6bfaa0a464a429d9a9195,0.4306,0.4311,1,6,168,131,1,sixeight,,,,,,,,,,,,,,,,,,,,,,,,,,,,,,,,,,,,,,,,,,,,,,,,,,,,,,,,,,,,,,,,,,,,,,,,,,,,,,,,,,,,,,,,,,,,,,,,,,,,,,,,,,,,,,,,,,,,,,,,,,,,,,,,,,,,,,,,,
,,5c0624cf891bb4000121c772,2024-02-21_21h37.16.716,kallum_motion_pilot,2023.2.2,Win32,59.88023952,5c0624cf891bb4000121c772,65d6bb0e977760de756971f7,65d6bfaa0a464a429d9a9195,0.4316,0.4321,1,7,169,143,1,eightseven,,,,,,,,,,,,,,,,,,,,,,,,,,,,,,,,,,,,,,,,,,,,,,,,,,,,,,,,,,,,,,,,,,,,,,,,,,,,,,,,,,,,,,,,,,,,,,,,,,,,,,,,,,,,,,,,,,,,,,,,,,,,,,,,,,,,,,,,,
,,5c0624cf891bb4000121c772,2024-02-21_21h37.16.716,kallum_motion_pilot,2023.2.2,Win32,59.88023952,5c0624cf891bb4000121c772,65d6bb0e977760de756971f7,65d6bfaa0a464a429d9a9195,0.4331,0.4338,1,8,170,38,1,fourtwo,,,,,,,,,,,,,,,,,,,,,,,,,,,,,,,,,,,,,,,,,,,,,,,,,,,,,,,,,,,,,,,,,,,,,,,,,,,,,,,,,,,,,,,,,,,,,,,,,,,,,,,,,,,,,,,,,,,,,,,,,,,,,,,,,,,,,,,,,
,,5c0624cf891bb4000121c772,2024-02-21_21h37.16.716,kallum_motion_pilot,2023.2.2,Win32,59.88023952,5c0624cf891bb4000121c772,65d6bb0e977760de756971f7,65d6bfaa0a464a429d9a9195,0.4342,0.4346,1,9,171,99,1,sixeight,,,,,,,,,,,,,,,,,,,,,,,,,,,,,,,,,,,,,,,,,,,,,,,,,,,,,,,,,,,,,,,,,,,,,,,,,,,,,,,,,,,,,,,,,,,,,,,,,,,,,,,,,,,,,,,,,,,,,,,,,,,,,,,,,,,,,,,,,
,,5c0624cf891bb4000121c772,2024-02-21_21h37.16.716,kallum_motion_pilot,2023.2.2,Win32,59.88023952,5c0624cf891bb4000121c772,65d6bb0e977760de756971f7,65d6bfaa0a464a429d9a9195,0.4352,0.4357,1,10,172,57,1,onethree,,,,,,,,,,,,,,,,,,,,,,,,,,,,,,,,,,,,,,,,,,,,,,,,,,,,,,,,,,,,,,,,,,,,,,,,,,,,,,,,,,,,,,,,,,,,,,,,,,,,,,,,,,,,,,,,,,,,,,,,,,,,,,,,,,,,,,,,,
,,5c0624cf891bb4000121c772,2024-02-21_21h37.16.716,kallum_motion_pilot,2023.2.2,Win32,59.88023952,5c0624cf891bb4000121c772,65d6bb0e977760de756971f7,65d6bfaa0a464a429d9a9195,0.4364,0.4367,1,11,173,75,1,twofour,,,,,,,,,,,,,,,,,,,,,,,,,,,,,,,,,,,,,,,,,,,,,,,,,,,,,,,,,,,,,,,,,,,,,,,,,,,,,,,,,,,,,,,,,,,,,,,,,,,,,,,,,,,,,,,,,,,,,,,,,,,,,,,,,,,,,,,,,
,,5c0624cf891bb4000121c772,2024-02-21_21h37.16.716,kallum_motion_pilot,2023.2.2,Win32,59.88023952,5c0624cf891bb4000121c772,65d6bb0e977760de756971f7,65d6bfaa0a464a429d9a9195,0.4408,0.4411,1,12,174,116,1,sevenfive,,,,,,,,,,,,,,,,,,,,,,,,,,,,,,,,,,,,,,,,,,,,,,,,,,,,,,,,,,,,,,,,,,,,,,,,,,,,,,,,,,,,,,,,,,,,,,,,,,,,,,,,,,,,,,,,,,,,,,,,,,,,,,,,,,,,,,,,,
,,5c0624cf891bb4000121c772,2024-02-21_21h37.16.716,kallum_motion_pilot,2023.2.2,Win32,59.88023952,5c0624cf891bb4000121c772,65d6bb0e977760de756971f7,65d6bfaa0a464a429d9a9195,0.4421,0.4424,1,13,175,11,1,twofour,,,,,,,,,,,,,,,,,,,,,,,,,,,,,,,,,,,,,,,,,,,,,,,,,,,,,,,,,,,,,,,,,,,,,,,,,,,,,,,,,,,,,,,,,,,,,,,,,,,,,,,,,,,,,,,,,,,,,,,,,,,,,,,,,,,,,,,,,
,,5c0624cf891bb4000121c772,2024-02-21_21h37.16.716,kallum_motion_pilot,2023.2.2,Win32,59.88023952,5c0624cf891bb4000121c772,65d6bb0e977760de756971f7,65d6bfaa0a464a429d9a9195,0.443,0.444,1,14,176,140,1,sevenfive,,,,,,,,,,,,,,,,,,,,,,,,,,,,,,,,,,,,,,,,,,,,,,,,,,,,,,,,,,,,,,,,,,,,,,,,,,,,,,,,,,,,,,,,,,,,,,,,,,,,,,,,,,,,,,,,,,,,,,,,,,,,,,,,,,,,,,,,,
,,5c0624cf891bb4000121c772,2024-02-21_21h37.16.716,kallum_motion_pilot,2023.2.2,Win32,59.88023952,5c0624cf891bb4000121c772,65d6bb0e977760de756971f7,65d6bfaa0a464a429d9a9195,0.4449,0.4454,1,15,177,130,1,sixfive,,,,,,,,,,,,,,,,,,,,,,,,,,,,,,,,,,,,,,,,,,,,,,,,,,,,,,,,,,,,,,,,,,,,,,,,,,,,,,,,,,,,,,,,,,,,,,,,,,,,,,,,,,,,,,,,,,,,,,,,,,,,,,,,,,,,,,,,,
,,5c0624cf891bb4000121c772,2024-02-21_21h37.16.716,kallum_motion_pilot,2023.2.2,Win32,59.88023952,5c0624cf891bb4000121c772,65d6bb0e977760de756971f7,65d6bfaa0a464a429d9a9195,0.4463,0.4468,1,16,178,28,1,threeone,,,,,,,,,,,,,,,,,,,,,,,,,,,,,,,,,,,,,,,,,,,,,,,,,,,,,,,,,,,,,,,,,,,,,,,,,,,,,,,,,,,,,,,,,,,,,,,,,,,,,,,,,,,,,,,,,,,,,,,,,,,,,,,,,,,,,,,,,
,,5c0624cf891bb4000121c772,2024-02-21_21h37.16.716,kallum_motion_pilot,2023.2.2,Win32,59.88023952,5c0624cf891bb4000121c772,65d6bb0e977760de756971f7,65d6bfaa0a464a429d9a9195,0.4483,0.4491,1,17,179,141,1,seveneight,,,,,,,,,,,,,,,,,,,,,,,,,,,,,,,,,,,,,,,,,,,,,,,,,,,,,,,,,,,,,,,,,,,,,,,,,,,,,,,,,,,,,,,,,,,,,,,,,,,,,,,,,,,,,,,,,,,,,,,,,,,,,,,,,,,,,,,,,
,,5c0624cf891bb4000121c772,2024-02-21_21h37.16.716,kallum_motion_pilot,2023.2.2,Win32,59.88023952,5c0624cf891bb4000121c772,65d6bb0e977760de756971f7,65d6bfaa0a464a429d9a9195,0.4504,0.4507,1,18,180,134,1,eightsix,,,,,,,,,,,,,,,,,,,,,,,,,,,,,,,,,,,,,,,,,,,,,,,,,,,,,,,,,,,,,,,,,,,,,,,,,,,,,,,,,,,,,,,,,,,,,,,,,,,,,,,,,,,,,,,,,,,,,,,,,,,,,,,,,,,,,,,,,
,,5c0624cf891bb4000121c772,2024-02-21_21h37.16.716,kallum_motion_pilot,2023.2.2,Win32,59.88023952,5c0624cf891bb4000121c772,65d6bb0e977760de756971f7,65d6bfaa0a464a429d9a9195,0.4518,0.4521,1,19,181,26,1,twoone,,,,,,,,,,,,,,,,,,,,,,,,,,,,,,,,,,,,,,,,,,,,,,,,,,,,,,,,,,,,,,,,,,,,,,,,,,,,,,,,,,,,,,,,,,,,,,,,,,,,,,,,,,,,,,,,,,,,,,,,,,,,,,,,,,,,,,,,,
,,5c0624cf891bb4000121c772,2024-02-21_21h37.16.716,kallum_motion_pilot,2023.2.2,Win32,59.88023952,5c0624cf891bb4000121c772,65d6bb0e977760de756971f7,65d6bfaa0a464a429d9a9195,0.4527,0.4531,1,20,182,85,1,seveneight,,,,,,,,,,,,,,,,,,,,,,,,,,,,,,,,,,,,,,,,,,,,,,,,,,,,,,,,,,,,,,,,,,,,,,,,,,,,,,,,,,,,,,,,,,,,,,,,,,,,,,,,,,,,,,,,,,,,,,,,,,,,,,,,,,,,,,,,,
,,5c0624cf891bb4000121c772,2024-02-21_21h37.16.716,kallum_motion_pilot,2023.2.2,Win32,59.88023952,5c0624cf891bb4000121c772,65d6bb0e977760de756971f7,65d6bfaa0a464a429d9a9195,0.4539,0.4545,1,21,183,25,1,onethree,,,,,,,,,,,,,,,,,,,,,,,,,,,,,,,,,,,,,,,,,,,,,,,,,,,,,,,,,,,,,,,,,,,,,,,,,,,,,,,,,,,,,,,,,,,,,,,,,,,,,,,,,,,,,,,,,,,,,,,,,,,,,,,,,,,,,,,,,
,,5c0624cf891bb4000121c772,2024-02-21_21h37.16.716,kallum_motion_pilot,2023.2.2,Win32,59.88023952,5c0624cf891bb4000121c772,65d6bb0e977760de756971f7,65d6bfaa0a464a429d9a9195,0.4558,0.4574,1,22,184,22,1,fourtwo,,,,,,,,,,,,,,,,,,,,,,,,,,,,,,,,,,,,,,,,,,,,,,,,,,,,,,,,,,,,,,,,,,,,,,,,,,,,,,,,,,,,,,,,,,,,,,,,,,,,,,,,,,,,,,,,,,,,,,,,,,,,,,,,,,,,,,,,,
,,5c0624cf891bb4000121c772,2024-02-21_21h37.16.716,kallum_motion_pilot,2023.2.2,Win32,59.88023952,5c0624cf891bb4000121c772,65d6bb0e977760de756971f7,65d6bfaa0a464a429d9a9195,0.4583,0.4589,1,23,185,119,1,eightseven,,,,,,,,,,,,,,,,,,,,,,,,,,,,,,,,,,,,,,,,,,,,,,,,,,,,,,,,,,,,,,,,,,,,,,,,,,,,,,,,,,,,,,,,,,,,,,,,,,,,,,,,,,,,,,,,,,,,,,,,,,,,,,,,,,,,,,,,,
,,5c0624cf891bb4000121c772,2024-02-21_21h37.16.716,kallum_motion_pilot,2023.2.2,Win32,59.88023952,5c0624cf891bb4000121c772,65d6bb0e977760de756971f7,65d6bfaa0a464a429d9a9195,0.4595,0.4599,1,24,186,138,1,sixfive,,,,,,,,,,,,,,,,,,,,,,,,,,,,,,,,,,,,,,,,,,,,,,,,,,,,,,,,,,,,,,,,,,,,,,,,,,,,,,,,,,,,,,,,,,,,,,,,,,,,,,,,,,,,,,,,,,,,,,,,,,,,,,,,,,,,,,,,,
,,5c0624cf891bb4000121c772,2024-02-21_21h37.16.716,kallum_motion_pilot,2023.2.2,Win32,59.88023952,5c0624cf891bb4000121c772,65d6bb0e977760de756971f7,65d6bfaa0a464a429d9a9195,0.4617,0.4625,1,25,187,36,1,threeone,,,,,,,,,,,,,,,,,,,,,,,,,,,,,,,,,,,,,,,,,,,,,,,,,,,,,,,,,,,,,,,,,,,,,,,,,,,,,,,,,,,,,,,,,,,,,,,,,,,,,,,,,,,,,,,,,,,,,,,,,,,,,,,,,,,,,,,,,
,,5c0624cf891bb4000121c772,2024-02-21_21h37.16.716,kallum_motion_pilot,2023.2.2,Win32,59.88023952,5c0624cf891bb4000121c772,65d6bb0e977760de756971f7,65d6bfaa0a464a429d9a9195,0.4636,0.4645,1,26,188,58,1,twoone,,,,,,,,,,,,,,,,,,,,,,,,,,,,,,,,,,,,,,,,,,,,,,,,,,,,,,,,,,,,,,,,,,,,,,,,,,,,,,,,,,,,,,,,,,,,,,,,,,,,,,,,,,,,,,,,,,,,,,,,,,,,,,,,,,,,,,,,,
,,5c0624cf891bb4000121c772,2024-02-21_21h37.16.716,kallum_motion_pilot,2023.2.2,Win32,59.88023952,5c0624cf891bb4000121c772,65d6bb0e977760de756971f7,65d6bfaa0a464a429d9a9195,0.4655,0.4662,1,27,189,24,1,onetwo,,,,,,,,,,,,,,,,,,,,,,,,,,,,,,,,,,,,,,,,,,,,,,,,,,,,,,,,,,,,,,,,,,,,,,,,,,,,,,,,,,,,,,,,,,,,,,,,,,,,,,,,,,,,,,,,,,,,,,,,,,,,,,,,,,,,,,,,,
,,5c0624cf891bb4000121c772,2024-02-21_21h37.16.716,kallum_motion_pilot,2023.2.2,Win32,59.88023952,5c0624cf891bb4000121c772,65d6bb0e977760de756971f7,65d6bfaa0a464a429d9a9195,0.4672,0.4681,1,28,190,9,1,onethree,,,,,,,,,,,,,,,,,,,,,,,,,,,,,,,,,,,,,,,,,,,,,,,,,,,,,,,,,,,,,,,,,,,,,,,,,,,,,,,,,,,,,,,,,,,,,,,,,,,,,,,,,,,,,,,,,,,,,,,,,,,,,,,,,,,,,,,,,
,,5c0624cf891bb4000121c772,2024-02-21_21h37.16.716,kallum_motion_pilot,2023.2.2,Win32,59.88023952,5c0624cf891bb4000121c772,65d6bb0e977760de756971f7,65d6bfaa0a464a429d9a9195,0.4691,0.4694,1,29,191,123,1,sixeight,,,,,,,,,,,,,,,,,,,,,,,,,,,,,,,,,,,,,,,,,,,,,,,,,,,,,,,,,,,,,,,,,,,,,,,,,,,,,,,,,,,,,,,,,,,,,,,,,,,,,,,,,,,,,,,,,,,,,,,,,,,,,,,,,,,,,,,,,
,,5c0624cf891bb4000121c772,2024-02-21_21h37.16.716,kallum_motion_pilot,2023.2.2,Win32,59.88023952,5c0624cf891bb4000121c772,65d6bb0e977760de756971f7,65d6bfaa0a464a429d9a9195,0.47,0.4703,1,30,192,153,1,fiveseven,,,,,,,,,,,,,,,,,,,,,,,,,,,,,,,,,,,,,,,,,,,,,,,,,,,,,,,,,,,,,,,,,,,,,,,,,,,,,,,,,,,,,,,,,,,,,,,,,,,,,,,,,,,,,,,,,,,,,,,,,,,,,,,,,,,,,,,,,
,,5c0624cf891bb4000121c772,2024-02-21_21h37.16.716,kallum_motion_pilot,2023.2.2,Win32,59.88023952,5c0624cf891bb4000121c772,65d6bb0e977760de756971f7,65d6bfaa0a464a429d9a9195,0.4708,0.4712,1,31,193,40,1,onetwo,,,,,,,,,,,,,,,,,,,,,,,,,,,,,,,,,,,,,,,,,,,,,,,,,,,,,,,,,,,,,,,,,,,,,,,,,,,,,,,,,,,,,,,,,,,,,,,,,,,,,,,,,,,,,,,,,,,,,,,,,,,,,,,,,,,,,,,,,
,,5c0624cf891bb4000121c772,2024-02-21_21h37.16.716,kallum_motion_pilot,2023.2.2,Win32,59.88023952,5c0624cf891bb4000121c772,65d6bb0e977760de756971f7,65d6bfaa0a464a429d9a9195,0.4722,0.473,1,32,194,101,1,seveneight,,,,,,,,,,,,,,,,,,,,,,,,,,,,,,,,,,,,,,,,,,,,,,,,,,,,,,,,,,,,,,,,,,,,,,,,,,,,,,,,,,,,,,,,,,,,,,,,,,,,,,,,,,,,,,,,,,,,,,,,,,,,,,,,,,,,,,,,,
,,5c0624cf891bb4000121c772,2024-02-21_21h37.16.716,kallum_motion_pilot,2023.2.2,Win32,59.88023952,5c0624cf891bb4000121c772,65d6bb0e977760de756971f7,65d6bfaa0a464a429d9a9195,0.4735,0.474,1,33,195,133,1,seveneight,,,,,,,,,,,,,,,,,,,,,,,,,,,,,,,,,,,,,,,,,,,,,,,,,,,,,,,,,,,,,,,,,,,,,,,,,,,,,,,,,,,,,,,,,,,,,,,,,,,,,,,,,,,,,,,,,,,,,,,,,,,,,,,,,,,,,,,,,
,,5c0624cf891bb4000121c772,2024-02-21_21h37.16.716,kallum_motion_pilot,2023.2.2,Win32,59.88023952,5c0624cf891bb4000121c772,65d6bb0e977760de756971f7,65d6bfaa0a464a429d9a9195,0.4745,0.475,1,34,196,52,1,threeone,,,,,,,,,,,,,,,,,,,,,,,,,,,,,,,,,,,,,,,,,,,,,,,,,,,,,,,,,,,,,,,,,,,,,,,,,,,,,,,,,,,,,,,,,,,,,,,,,,,,,,,,,,,,,,,,,,,,,,,,,,,,,,,,,,,,,,,,,
,,5c0624cf891bb4000121c772,2024-02-21_21h37.16.716,kallum_motion_pilot,2023.2.2,Win32,59.88023952,5c0624cf891bb4000121c772,65d6bb0e977760de756971f7,65d6bfaa0a464a429d9a9195,0.4755,0.476,1,35,197,47,1,fourthree,,,,,,,,,,,,,,,,,,,,,,,,,,,,,,,,,,,,,,,,,,,,,,,,,,,,,,,,,,,,,,,,,,,,,,,,,,,,,,,,,,,,,,,,,,,,,,,,,,,,,,,,,,,,,,,,,,,,,,,,,,,,,,,,,,,,,,,,,
,,5c0624cf891bb4000121c772,2024-02-21_21h37.16.716,kallum_motion_pilot,2023.2.2,Win32,59.88023952,5c0624cf891bb4000121c772,65d6bb0e977760de756971f7,65d6bfaa0a464a429d9a9195,0.4768,0.4783,1,36,198,45,1,threefour,,,,,,,,,,,,,,,,,,,,,,,,,,,,,,,,,,,,,,,,,,,,,,,,,,,,,,,,,,,,,,,,,,,,,,,,,,,,,,,,,,,,,,,,,,,,,,,,,,,,,,,,,,,,,,,,,,,,,,,,,,,,,,,,,,,,,,,,,
,,5c0624cf891bb4000121c772,2024-02-21_21h37.16.716,kallum_motion_pilot,2023.2.2,Win32,59.88023952,5c0624cf891bb4000121c772,65d6bb0e977760de756971f7,65d6bfaa0a464a429d9a9195,0.4788,0.4792,1,37,199,156,1,sevenfive,,,,,,,,,,,,,,,,,,,,,,,,,,,,,,,,,,,,,,,,,,,,,,,,,,,,,,,,,,,,,,,,,,,,,,,,,,,,,,,,,,,,,,,,,,,,,,,,,,,,,,,,,,,,,,,,,,,,,,,,,,,,,,,,,,,,,,,,,
,,5c0624cf891bb4000121c772,2024-02-21_21h37.16.716,kallum_motion_pilot,2023.2.2,Win32,59.88023952,5c0624cf891bb4000121c772,65d6bb0e977760de756971f7,65d6bfaa0a464a429d9a9195,0.4798,0.4803,1,38,200,96,1,fivesix,,,,,,,,,,,,,,,,,,,,,,,,,,,,,,,,,,,,,,,,,,,,,,,,,,,,,,,,,,,,,,,,,,,,,,,,,,,,,,,,,,,,,,,,,,,,,,,,,,,,,,,,,,,,,,,,,,,,,,,,,,,,,,,,,,,,,,,,,
,,5c0624cf891bb4000121c772,2024-02-21_21h37.16.716,kallum_motion_pilot,2023.2.2,Win32,59.88023952,5c0624cf891bb4000121c772,65d6bb0e977760de756971f7,65d6bfaa0a464a429d9a9195,0.4806,0.481,1,39,201,13,1,threefour,,,,,,,,,,,,,,,,,,,,,,,,,,,,,,,,,,,,,,,,,,,,,,,,,,,,,,,,,,,,,,,,,,,,,,,,,,,,,,,,,,,,,,,,,,,,,,,,,,,,,,,,,,,,,,,,,,,,,,,,,,,,,,,,,,,,,,,,,
,,5c0624cf891bb4000121c772,2024-02-21_21h37.16.716,kallum_motion_pilot,2023.2.2,Win32,59.88023952,5c0624cf891bb4000121c772,65d6bb0e977760de756971f7,65d6bfaa0a464a429d9a9195,0.4817,0.4821,1,40,202,10,1,twoone,,,,,,,,,,,,,,,,,,,,,,,,,,,,,,,,,,,,,,,,,,,,,,,,,,,,,,,,,,,,,,,,,,,,,,,,,,,,,,,,,,,,,,,,,,,,,,,,,,,,,,,,,,,,,,,,,,,,,,,,,,,,,,,,,,,,,,,,,
,,5c0624cf891bb4000121c772,2024-02-21_21h37.16.716,kallum_motion_pilot,2023.2.2,Win32,59.88023952,5c0624cf891bb4000121c772,65d6bb0e977760de756971f7,65d6bfaa0a464a429d9a9195,0.4826,0.483,1,41,203,19,1,twofour,,,,,,,,,,,,,,,,,,,,,,,,,,,,,,,,,,,,,,,,,,,,,,,,,,,,,,,,,,,,,,,,,,,,,,,,,,,,,,,,,,,,,,,,,,,,,,,,,,,,,,,,,,,,,,,,,,,,,,,,,,,,,,,,,,,,,,,,,
,,5c0624cf891bb4000121c772,2024-02-21_21h37.16.716,kallum_motion_pilot,2023.2.2,Win32,59.88023952,5c0624cf891bb4000121c772,65d6bb0e977760de756971f7,65d6bfaa0a464a429d9a9195,0.4836,0.484,1,42,204,103,1,eightseven,,,,,,,,,,,,,,,,,,,,,,,,,,,,,,,,,,,,,,,,,,,,,,,,,,,,,,,,,,,,,,,,,,,,,,,,,,,,,,,,,,,,,,,,,,,,,,,,,,,,,,,,,,,,,,,,,,,,,,,,,,,,,,,,,,,,,,,,,
,,5c0624cf891bb4000121c772,2024-02-21_21h37.16.716,kallum_motion_pilot,2023.2.2,Win32,59.88023952,5c0624cf891bb4000121c772,65d6bb0e977760de756971f7,65d6bfaa0a464a429d9a9195,0.4845,0.485,1,43,205,7,1,fourthree,,,,,,,,,,,,,,,,,,,,,,,,,,,,,,,,,,,,,,,,,,,,,,,,,,,,,,,,,,,,,,,,,,,,,,,,,,,,,,,,,,,,,,,,,,,,,,,,,,,,,,,,,,,,,,,,,,,,,,,,,,,,,,,,,,,,,,,,,
,,5c0624cf891bb4000121c772,2024-02-21_21h37.16.716,kallum_motion_pilot,2023.2.2,Win32,59.88023952,5c0624cf891bb4000121c772,65d6bb0e977760de756971f7,65d6bfaa0a464a429d9a9195,0.4856,0.486,1,44,206,147,1,sixeight,,,,,,,,,,,,,,,,,,,,,,,,,,,,,,,,,,,,,,,,,,,,,,,,,,,,,,,,,,,,,,,,,,,,,,,,,,,,,,,,,,,,,,,,,,,,,,,,,,,,,,,,,,,,,,,,,,,,,,,,,,,,,,,,,,,,,,,,,
,,5c0624cf891bb4000121c772,2024-02-21_21h37.16.716,kallum_motion_pilot,2023.2.2,Win32,59.88023952,5c0624cf891bb4000121c772,65d6bb0e977760de756971f7,65d6bfaa0a464a429d9a9195,0.4865,0.487,1,45,207,55,1,fourthree,,,,,,,,,,,,,,,,,,,,,,,,,,,,,,,,,,,,,,,,,,,,,,,,,,,,,,,,,,,,,,,,,,,,,,,,,,,,,,,,,,,,,,,,,,,,,,,,,,,,,,,,,,,,,,,,,,,,,,,,,,,,,,,,,,,,,,,,,
,,5c0624cf891bb4000121c772,2024-02-21_21h37.16.716,kallum_motion_pilot,2023.2.2,Win32,59.88023952,5c0624cf891bb4000121c772,65d6bb0e977760de756971f7,65d6bfaa0a464a429d9a9195,0.4882,0.4885,1,46,208,1,1,onethree,,,,,,,,,,,,,,,,,,,,,,,,,,,,,,,,,,,,,,,,,,,,,,,,,,,,,,,,,,,,,,,,,,,,,,,,,,,,,,,,,,,,,,,,,,,,,,,,,,,,,,,,,,,,,,,,,,,,,,,,,,,,,,,,,,,,,,,,,
,,5c0624cf891bb4000121c772,2024-02-21_21h37.16.716,kallum_motion_pilot,2023.2.2,Win32,59.88023952,5c0624cf891bb4000121c772,65d6bb0e977760de756971f7,65d6bfaa0a464a429d9a9195,0.4891,0.4895,1,47,209,78,1,fourtwo,,,,,,,,,,,,,,,,,,,,,,,,,,,,,,,,,,,,,,,,,,,,,,,,,,,,,,,,,,,,,,,,,,,,,,,,,,,,,,,,,,,,,,,,,,,,,,,,,,,,,,,,,,,,,,,,,,,,,,,,,,,,,,,,,,,,,,,,,
,,5c0624cf891bb4000121c772,2024-02-21_21h37.16.716,kallum_motion_pilot,2023.2.2,Win32,59.88023952,5c0624cf891bb4000121c772,65d6bb0e977760de756971f7,65d6bfaa0a464a429d9a9195,0.4901,0.4905,1,48,210,87,1,eightseven,,,,,,,,,,,,,,,,,,,,,,,,,,,,,,,,,,,,,,,,,,,,,,,,,,,,,,,,,,,,,,,,,,,,,,,,,,,,,,,,,,,,,,,,,,,,,,,,,,,,,,,,,,,,,,,,,,,,,,,,,,,,,,,,,,,,,,,,,
,,5c0624cf891bb4000121c772,2024-02-21_21h37.16.716,kallum_motion_pilot,2023.2.2,Win32,59.88023952,5c0624cf891bb4000121c772,65d6bb0e977760de756971f7,65d6bfaa0a464a429d9a9195,0.4911,0.4916,1,49,211,41,1,onethree,,,,,,,,,,,,,,,,,,,,,,,,,,,,,,,,,,,,,,,,,,,,,,,,,,,,,,,,,,,,,,,,,,,,,,,,,,,,,,,,,,,,,,,,,,,,,,,,,,,,,,,,,,,,,,,,,,,,,,,,,,,,,,,,,,,,,,,,,
,,5c0624cf891bb4000121c772,2024-02-21_21h37.16.716,kallum_motion_pilot,2023.2.2,Win32,59.88023952,5c0624cf891bb4000121c772,65d6bb0e977760de756971f7,65d6bfaa0a464a429d9a9195,0.4926,0.4933,1,50,212,82,1,sixfive,,,,,,,,,,,,,,,,,,,,,,,,,,,,,,,,,,,,,,,,,,,,,,,,,,,,,,,,,,,,,,,,,,,,,,,,,,,,,,,,,,,,,,,,,,,,,,,,,,,,,,,,,,,,,,,,,,,,,,,,,,,,,,,,,,,,,,,,,
,,5c0624cf891bb4000121c772,2024-02-21_21h37.16.716,kallum_motion_pilot,2023.2.2,Win32,59.88023952,5c0624cf891bb4000121c772,65d6bb0e977760de756971f7,65d6bfaa0a464a429d9a9195,0.4948,0.4952,1,51,213,39,1,fourthree,,,,,,,,,,,,,,,,,,,,,,,,,,,,,,,,,,,,,,,,,,,,,,,,,,,,,,,,,,,,,,,,,,,,,,,,,,,,,,,,,,,,,,,,,,,,,,,,,,,,,,,,,,,,,,,,,,,,,,,,,,,,,,,,,,,,,,,,,
,,5c0624cf891bb4000121c772,2024-02-21_21h37.16.716,kallum_motion_pilot,2023.2.2,Win32,59.88023952,5c0624cf891bb4000121c772,65d6bb0e977760de756971f7,65d6bfaa0a464a429d9a9195,0.4958,0.4962,1,52,214,142,1,eightsix,,,,,,,,,,,,,,,,,,,,,,,,,,,,,,,,,,,,,,,,,,,,,,,,,,,,,,,,,,,,,,,,,,,,,,,,,,,,,,,,,,,,,,,,,,,,,,,,,,,,,,,,,,,,,,,,,,,,,,,,,,,,,,,,,,,,,,,,,
,,5c0624cf891bb4000121c772,2024-02-21_21h37.16.716,kallum_motion_pilot,2023.2.2,Win32,59.88023952,5c0624cf891bb4000121c772,65d6bb0e977760de756971f7,65d6bfaa0a464a429d9a9195,0.4983,0.4985,1,53,215,74,1,twoone,,,,,,,,,,,,,,,,,,,,,,,,,,,,,,,,,,,,,,,,,,,,,,,,,,,,,,,,,,,,,,,,,,,,,,,,,,,,,,,,,,,,,,,,,,,,,,,,,,,,,,,,,,,,,,,,,,,,,,,,,,,,,,,,,,,,,,,,,
,,5c0624cf891bb4000121c772,2024-02-21_21h37.16.716,kallum_motion_pilot,2023.2.2,Win32,59.88023952,5c0624cf891bb4000121c772,65d6bb0e977760de756971f7,65d6bfaa0a464a429d9a9195,0.4992,0.4996,1,54,216,4,1,threeone,,,,,,,,,,,,,,,,,,,,,,,,,,,,,,,,,,,,,,,,,,,,,,,,,,,,,,,,,,,,,,,,,,,,,,,,,,,,,,,,,,,,,,,,,,,,,,,,,,,,,,,,,,,,,,,,,,,,,,,,,,,,,,,,,,,,,,,,,
,,5c0624cf891bb4000121c772,2024-02-21_21h37.16.716,kallum_motion_pilot,2023.2.2,Win32,59.88023952,5c0624cf891bb4000121c772,65d6bb0e977760de756971f7,65d6bfaa0a464a429d9a9195,0.5002,0.5006,1,55,217,49,1,onethree,,,,,,,,,,,,,,,,,,,,,,,,,,,,,,,,,,,,,,,,,,,,,,,,,,,,,,,,,,,,,,,,,,,,,,,,,,,,,,,,,,,,,,,,,,,,,,,,,,,,,,,,,,,,,,,,,,,,,,,,,,,,,,,,,,,,,,,,,
,,5c0624cf891bb4000121c772,2024-02-21_21h37.16.716,kallum_motion_pilot,2023.2.2,Win32,59.88023952,5c0624cf891bb4000121c772,65d6bb0e977760de756971f7,65d6bfaa0a464a429d9a9195,0.5011,0.5016,1,56,218,97,1,fiveseven,,,,,,,,,,,,,,,,,,,,,,,,,,,,,,,,,,,,,,,,,,,,,,,,,,,,,,,,,,,,,,,,,,,,,,,,,,,,,,,,,,,,,,,,,,,,,,,,,,,,,,,,,,,,,,,,,,,,,,,,,,,,,,,,,,,,,,,,,
,,5c0624cf891bb4000121c772,2024-02-21_21h37.16.716,kallum_motion_pilot,2023.2.2,Win32,59.88023952,5c0624cf891bb4000121c772,65d6bb0e977760de756971f7,65d6bfaa0a464a429d9a9195,0.5022,0.5027,1,57,219,61,1,threefour,,,,,,,,,,,,,,,,,,,,,,,,,,,,,,,,,,,,,,,,,,,,,,,,,,,,,,,,,,,,,,,,,,,,,,,,,,,,,,,,,,,,,,,,,,,,,,,,,,,,,,,,,,,,,,,,,,,,,,,,,,,,,,,,,,,,,,,,,
,,5c0624cf891bb4000121c772,2024-02-21_21h37.16.716,kallum_motion_pilot,2023.2.2,Win32,59.88023952,5c0624cf891bb4000121c772,65d6bb0e977760de756971f7,65d6bfaa0a464a429d9a9195,0.5032,0.5034,1,58,220,161,1,fiveseven,,,,,,,,,,,,,,,,,,,,,,,,,,,,,,,,,,,,,,,,,,,,,,,,,,,,,,,,,,,,,,,,,,,,,,,,,,,,,,,,,,,,,,,,,,,,,,,,,,,,,,,,,,,,,,,,,,,,,,,,,,,,,,,,,,,,,,,,,
,,5c0624cf891bb4000121c772,2024-02-21_21h37.16.716,kallum_motion_pilot,2023.2.2,Win32,59.88023952,5c0624cf891bb4000121c772,65d6bb0e977760de756971f7,65d6bfaa0a464a429d9a9195,0.5042,0.5045,1,59,221,29,1,threefour,,,,,,,,,,,,,,,,,,,,,,,,,,,,,,,,,,,,,,,,,,,,,,,,,,,,,,,,,,,,,,,,,,,,,,,,,,,,,,,,,,,,,,,,,,,,,,,,,,,,,,,,,,,,,,,,,,,,,,,,,,,,,,,,,,,,,,,,,
,,5c0624cf891bb4000121c772,2024-02-21_21h37.16.716,kallum_motion_pilot,2023.2.2,Win32,59.88023952,5c0624cf891bb4000121c772,65d6bb0e977760de756971f7,65d6bfaa0a464a429d9a9195,0.5052,0.5055,1,60,222,53,1,threefour,,,,,,,,,,,,,,,,,,,,,,,,,,,,,,,,,,,,,,,,,,,,,,,,,,,,,,,,,,,,,,,,,,,,,,,,,,,,,,,,,,,,,,,,,,,,,,,,,,,,,,,,,,,,,,,,,,,,,,,,,,,,,,,,,,,,,,,,,
,,5c0624cf891bb4000121c772,2024-02-21_21h37.16.716,kallum_motion_pilot,2023.2.2,Win32,59.88023952,5c0624cf891bb4000121c772,65d6bb0e977760de756971f7,65d6bfaa0a464a429d9a9195,0.5062,0.5066,1,61,223,129,1,fiveseven,,,,,,,,,,,,,,,,,,,,,,,,,,,,,,,,,,,,,,,,,,,,,,,,,,,,,,,,,,,,,,,,,,,,,,,,,,,,,,,,,,,,,,,,,,,,,,,,,,,,,,,,,,,,,,,,,,,,,,,,,,,,,,,,,,,,,,,,,
,,5c0624cf891bb4000121c772,2024-02-21_21h37.16.716,kallum_motion_pilot,2023.2.2,Win32,59.88023952,5c0624cf891bb4000121c772,65d6bb0e977760de756971f7,65d6bfaa0a464a429d9a9195,0.507,0.5099,1,62,224,158,1,eightsix,,,,,,,,,,,,,,,,,,,,,,,,,,,,,,,,,,,,,,,,,,,,,,,,,,,,,,,,,,,,,,,,,,,,,,,,,,,,,,,,,,,,,,,,,,,,,,,,,,,,,,,,,,,,,,,,,,,,,,,,,,,,,,,,,,,,,,,,,
,,5c0624cf891bb4000121c772,2024-02-21_21h37.16.716,kallum_motion_pilot,2023.2.2,Win32,59.88023952,5c0624cf891bb4000121c772,65d6bb0e977760de756971f7,65d6bfaa0a464a429d9a9195,0.5104,0.5105,1,63,225,0,1,onetwo,,,,,,,,,,,,,,,,,,,,,,,,,,,,,,,,,,,,,,,,,,,,,,,,,,,,,,,,,,,,,,,,,,,,,,,,,,,,,,,,,,,,,,,,,,,,,,,,,,,,,,,,,,,,,,,,,,,,,,,,,,,,,,,,,,,,,,,,,
,,5c0624cf891bb4000121c772,2024-02-21_21h37.16.716,kallum_motion_pilot,2023.2.2,Win32,59.88023952,5c0624cf891bb4000121c772,65d6bb0e977760de756971f7,65d6bfaa0a464a429d9a9195,0.512,0.5132,1,64,226,71,1,fourthree,,,,,,,,,,,,,,,,,,,,,,,,,,,,,,,,,,,,,,,,,,,,,,,,,,,,,,,,,,,,,,,,,,,,,,,,,,,,,,,,,,,,,,,,,,,,,,,,,,,,,,,,,,,,,,,,,,,,,,,,,,,,,,,,,,,,,,,,,
,,5c0624cf891bb4000121c772,2024-02-21_21h37.16.716,kallum_motion_pilot,2023.2.2,Win32,59.88023952,5c0624cf891bb4000121c772,65d6bb0e977760de756971f7,65d6bfaa0a464a429d9a9195,0.5137,0.5141,1,65,227,14,1,fourtwo,,,,,,,,,,,,,,,,,,,,,,,,,,,,,,,,,,,,,,,,,,,,,,,,,,,,,,,,,,,,,,,,,,,,,,,,,,,,,,,,,,,,,,,,,,,,,,,,,,,,,,,,,,,,,,,,,,,,,,,,,,,,,,,,,,,,,,,,,
,,5c0624cf891bb4000121c772,2024-02-21_21h37.16.716,kallum_motion_pilot,2023.2.2,Win32,59.88023952,5c0624cf891bb4000121c772,65d6bb0e977760de756971f7,65d6bfaa0a464a429d9a9195,0.5153,0.5158,1,66,228,68,1,threeone,,,,,,,,,,,,,,,,,,,,,,,,,,,,,,,,,,,,,,,,,,,,,,,,,,,,,,,,,,,,,,,,,,,,,,,,,,,,,,,,,,,,,,,,,,,,,,,,,,,,,,,,,,,,,,,,,,,,,,,,,,,,,,,,,,,,,,,,,
,,5c0624cf891bb4000121c772,2024-02-21_21h37.16.716,kallum_motion_pilot,2023.2.2,Win32,59.88023952,5c0624cf891bb4000121c772,65d6bb0e977760de756971f7,65d6bfaa0a464a429d9a9195,0.5164,0.5164,1,67,229,110,1,eightsix,,,,,,,,,,,,,,,,,,,,,,,,,,,,,,,,,,,,,,,,,,,,,,,,,,,,,,,,,,,,,,,,,,,,,,,,,,,,,,,,,,,,,,,,,,,,,,,,,,,,,,,,,,,,,,,,,,,,,,,,,,,,,,,,,,,,,,,,,
,,5c0624cf891bb4000121c772,2024-02-21_21h37.16.716,kallum_motion_pilot,2023.2.2,Win32,59.88023952,5c0624cf891bb4000121c772,65d6bb0e977760de756971f7,65d6bfaa0a464a429d9a9195,0.5168,0.5182,1,68,230,34,1,twoone,,,,,,,,,,,,,,,,,,,,,,,,,,,,,,,,,,,,,,,,,,,,,,,,,,,,,,,,,,,,,,,,,,,,,,,,,,,,,,,,,,,,,,,,,,,,,,,,,,,,,,,,,,,,,,,,,,,,,,,,,,,,,,,,,,,,,,,,,
,,5c0624cf891bb4000121c772,2024-02-21_21h37.16.716,kallum_motion_pilot,2023.2.2,Win32,59.88023952,5c0624cf891bb4000121c772,65d6bb0e977760de756971f7,65d6bfaa0a464a429d9a9195,0.5187,0.5192,1,69,231,125,1,seveneight,,,,,,,,,,,,,,,,,,,,,,,,,,,,,,,,,,,,,,,,,,,,,,,,,,,,,,,,,,,,,,,,,,,,,,,,,,,,,,,,,,,,,,,,,,,,,,,,,,,,,,,,,,,,,,,,,,,,,,,,,,,,,,,,,,,,,,,,,
,,5c0624cf891bb4000121c772,2024-02-21_21h37.16.716,kallum_motion_pilot,2023.2.2,Win32,59.88023952,5c0624cf891bb4000121c772,65d6bb0e977760de756971f7,65d6bfaa0a464a429d9a9195,0.5198,0.5201,1,70,232,132,1,sevenfive,,,,,,,,,,,,,,,,,,,,,,,,,,,,,,,,,,,,,,,,,,,,,,,,,,,,,,,,,,,,,,,,,,,,,,,,,,,,,,,,,,,,,,,,,,,,,,,,,,,,,,,,,,,,,,,,,,,,,,,,,,,,,,,,,,,,,,,,,
,,5c0624cf891bb4000121c772,2024-02-21_21h37.16.716,kallum_motion_pilot,2023.2.2,Win32,59.88023952,5c0624cf891bb4000121c772,65d6bb0e977760de756971f7,65d6bfaa0a464a429d9a9195,0.5208,0.5212,1,71,233,77,1,threefour,,,,,,,,,,,,,,,,,,,,,,,,,,,,,,,,,,,,,,,,,,,,,,,,,,,,,,,,,,,,,,,,,,,,,,,,,,,,,,,,,,,,,,,,,,,,,,,,,,,,,,,,,,,,,,,,,,,,,,,,,,,,,,,,,,,,,,,,,
,,5c0624cf891bb4000121c772,2024-02-21_21h37.16.716,kallum_motion_pilot,2023.2.2,Win32,59.88023952,5c0624cf891bb4000121c772,65d6bb0e977760de756971f7,65d6bfaa0a464a429d9a9195,0.5225,0.5231,1,72,234,91,1,sixeight,,,,,,,,,,,,,,,,,,,,,,,,,,,,,,,,,,,,,,,,,,,,,,,,,,,,,,,,,,,,,,,,,,,,,,,,,,,,,,,,,,,,,,,,,,,,,,,,,,,,,,,,,,,,,,,,,,,,,,,,,,,,,,,,,,,,,,,,,
,,5c0624cf891bb4000121c772,2024-02-21_21h37.16.716,kallum_motion_pilot,2023.2.2,Win32,59.88023952,5c0624cf891bb4000121c772,65d6bb0e977760de756971f7,65d6bfaa0a464a429d9a9195,0.5241,0.5252,1,73,235,65,1,onethree,,,,,,,,,,,,,,,,,,,,,,,,,,,,,,,,,,,,,,,,,,,,,,,,,,,,,,,,,,,,,,,,,,,,,,,,,,,,,,,,,,,,,,,,,,,,,,,,,,,,,,,,,,,,,,,,,,,,,,,,,,,,,,,,,,,,,,,,,
,,5c0624cf891bb4000121c772,2024-02-21_21h37.16.716,kallum_motion_pilot,2023.2.2,Win32,59.88023952,5c0624cf891bb4000121c772,65d6bb0e977760de756971f7,65d6bfaa0a464a429d9a9195,0.5262,0.5287,1,74,236,42,1,twoone,,,,,,,,,,,,,,,,,,,,,,,,,,,,,,,,,,,,,,,,,,,,,,,,,,,,,,,,,,,,,,,,,,,,,,,,,,,,,,,,,,,,,,,,,,,,,,,,,,,,,,,,,,,,,,,,,,,,,,,,,,,,,,,,,,,,,,,,,
,,5c0624cf891bb4000121c772,2024-02-21_21h37.16.716,kallum_motion_pilot,2023.2.2,Win32,59.88023952,5c0624cf891bb4000121c772,65d6bb0e977760de756971f7,65d6bfaa0a464a429d9a9195,0.5302,0.5309,1,75,237,35,1,twofour,,,,,,,,,,,,,,,,,,,,,,,,,,,,,,,,,,,,,,,,,,,,,,,,,,,,,,,,,,,,,,,,,,,,,,,,,,,,,,,,,,,,,,,,,,,,,,,,,,,,,,,,,,,,,,,,,,,,,,,,,,,,,,,,,,,,,,,,,
,,5c0624cf891bb4000121c772,2024-02-21_21h37.16.716,kallum_motion_pilot,2023.2.2,Win32,59.88023952,5c0624cf891bb4000121c772,65d6bb0e977760de756971f7,65d6bfaa0a464a429d9a9195,0.5322,0.5325,1,76,238,21,1,threefour,,,,,,,,,,,,,,,,,,,,,,,,,,,,,,,,,,,,,,,,,,,,,,,,,,,,,,,,,,,,,,,,,,,,,,,,,,,,,,,,,,,,,,,,,,,,,,,,,,,,,,,,,,,,,,,,,,,,,,,,,,,,,,,,,,,,,,,,,
,,5c0624cf891bb4000121c772,2024-02-21_21h37.16.716,kallum_motion_pilot,2023.2.2,Win32,59.88023952,5c0624cf891bb4000121c772,65d6bb0e977760de756971f7,65d6bfaa0a464a429d9a9195,0.5331,0.5335,1,77,239,118,1,eightsix,,,,,,,,,,,,,,,,,,,,,,,,,,,,,,,,,,,,,,,,,,,,,,,,,,,,,,,,,,,,,,,,,,,,,,,,,,,,,,,,,,,,,,,,,,,,,,,,,,,,,,,,,,,,,,,,,,,,,,,,,,,,,,,,,,,,,,,,,
,,5c0624cf891bb4000121c772,2024-02-21_21h37.16.716,kallum_motion_pilot,2023.2.2,Win32,59.88023952,5c0624cf891bb4000121c772,65d6bb0e977760de756971f7,65d6bfaa0a464a429d9a9195,0.534,0.5342,1,78,240,126,1,eightsix,,,,,,,,,,,,,,,,,,,,,,,,,,,,,,,,,,,,,,,,,,,,,,,,,,,,,,,,,,,,,,,,,,,,,,,,,,,,,,,,,,,,,,,,,,,,,,,,,,,,,,,,,,,,,,,,,,,,,,,,,,,,,,,,,,,,,,,,,
,,5c0624cf891bb4000121c772,2024-02-21_21h37.16.716,kallum_motion_pilot,2023.2.2,Win32,59.88023952,5c0624cf891bb4000121c772,65d6bb0e977760de756971f7,65d6bfaa0a464a429d9a9195,0.535,0.5352,1,79,241,95,1,eightseven,,,,,,,,,,,,,,,,,,,,,,,,,,,,,,,,,,,,,,,,,,,,,,,,,,,,,,,,,,,,,,,,,,,,,,,,,,,,,,,,,,,,,,,,,,,,,,,,,,,,,,,,,,,,,,,,,,,,,,,,,,,,,,,,,,,,,,,,,
,,5c0624cf891bb4000121c772,2024-02-21_21h37.16.716,kallum_motion_pilot,2023.2.2,Win32,59.88023952,5c0624cf891bb4000121c772,65d6bb0e977760de756971f7,65d6bfaa0a464a429d9a9195,0.5358,0.5362,1,80,242,2,1,twoone,,,,,,,,,,,,,,,,,,,,,,,,,,,,,,,,,,,,,,,,,,,,,,,,,,,,,,,,,,,,,,,,,,,,,,,,,,,,,,,,,,,,,,,,,,,,,,,,,,,,,,,,,,,,,,,,,,,,,,,,,,,,,,,,,,,,,,,,,
,,5c0624cf891bb4000121c772,2024-02-21_21h37.16.716,kallum_motion_pilot,2023.2.2,Win32,59.88023952,5c0624cf891bb4000121c772,65d6bb0e977760de756971f7,65d6bfaa0a464a429d9a9195,0.5368,0.5378,1,81,243,70,1,fourtwo,,,,,,,,,,,,,,,,,,,,,,,,,,,,,,,,,,,,,,,,,,,,,,,,,,,,,,,,,,,,,,,,,,,,,,,,,,,,,,,,,,,,,,,,,,,,,,,,,,,,,,,,,,,,,,,,,,,,,,,,,,,,,,,,,,,,,,,,,
,,5c0624cf891bb4000121c772,2024-02-21_21h37.16.716,kallum_motion_pilot,2023.2.2,Win32,59.88023952,5c0624cf891bb4000121c772,65d6bb0e977760de756971f7,65d6bfaa0a464a429d9a9195,0.5385,0.5389,1,82,244,89,1,fiveseven,,,,,,,,,,,,,,,,,,,,,,,,,,,,,,,,,,,,,,,,,,,,,,,,,,,,,,,,,,,,,,,,,,,,,,,,,,,,,,,,,,,,,,,,,,,,,,,,,,,,,,,,,,,,,,,,,,,,,,,,,,,,,,,,,,,,,,,,,
,,5c0624cf891bb4000121c772,2024-02-21_21h37.16.716,kallum_motion_pilot,2023.2.2,Win32,59.88023952,5c0624cf891bb4000121c772,65d6bb0e977760de756971f7,65d6bfaa0a464a429d9a9195,0.5395,0.5398,1,83,245,92,1,sevenfive,,,,,,,,,,,,,,,,,,,,,,,,,,,,,,,,,,,,,,,,,,,,,,,,,,,,,,,,,,,,,,,,,,,,,,,,,,,,,,,,,,,,,,,,,,,,,,,,,,,,,,,,,,,,,,,,,,,,,,,,,,,,,,,,,,,,,,,,,
,,5c0624cf891bb4000121c772,2024-02-21_21h37.16.716,kallum_motion_pilot,2023.2.2,Win32,59.88023952,5c0624cf891bb4000121c772,65d6bb0e977760de756971f7,65d6bfaa0a464a429d9a9195,0.5404,0.5407,1,84,246,145,1,fiveseven,,,,,,,,,,,,,,,,,,,,,,,,,,,,,,,,,,,,,,,,,,,,,,,,,,,,,,,,,,,,,,,,,,,,,,,,,,,,,,,,,,,,,,,,,,,,,,,,,,,,,,,,,,,,,,,,,,,,,,,,,,,,,,,,,,,,,,,,,
,,5c0624cf891bb4000121c772,2024-02-21_21h37.16.716,kallum_motion_pilot,2023.2.2,Win32,59.88023952,5c0624cf891bb4000121c772,65d6bb0e977760de756971f7,65d6bfaa0a464a429d9a9195,0.5413,0.5417,1,85,247,67,1,twofour,,,,,,,,,,,,,,,,,,,,,,,,,,,,,,,,,,,,,,,,,,,,,,,,,,,,,,,,,,,,,,,,,,,,,,,,,,,,,,,,,,,,,,,,,,,,,,,,,,,,,,,,,,,,,,,,,,,,,,,,,,,,,,,,,,,,,,,,,
,,5c0624cf891bb4000121c772,2024-02-21_21h37.16.716,kallum_motion_pilot,2023.2.2,Win32,59.88023952,5c0624cf891bb4000121c772,65d6bb0e977760de756971f7,65d6bfaa0a464a429d9a9195,0.5422,0.5428,1,86,248,160,1,fivesix,,,,,,,,,,,,,,,,,,,,,,,,,,,,,,,,,,,,,,,,,,,,,,,,,,,,,,,,,,,,,,,,,,,,,,,,,,,,,,,,,,,,,,,,,,,,,,,,,,,,,,,,,,,,,,,,,,,,,,,,,,,,,,,,,,,,,,,,,
,,5c0624cf891bb4000121c772,2024-02-21_21h37.16.716,kallum_motion_pilot,2023.2.2,Win32,59.88023952,5c0624cf891bb4000121c772,65d6bb0e977760de756971f7,65d6bfaa0a464a429d9a9195,0.5439,0.5445,1,87,249,69,1,threefour,,,,,,,,,,,,,,,,,,,,,,,,,,,,,,,,,,,,,,,,,,,,,,,,,,,,,,,,,,,,,,,,,,,,,,,,,,,,,,,,,,,,,,,,,,,,,,,,,,,,,,,,,,,,,,,,,,,,,,,,,,,,,,,,,,,,,,,,,
,,5c0624cf891bb4000121c772,2024-02-21_21h37.16.716,kallum_motion_pilot,2023.2.2,Win32,59.88023952,5c0624cf891bb4000121c772,65d6bb0e977760de756971f7,65d6bfaa0a464a429d9a9195,0.5452,0.5456,1,88,250,90,1,sixfive,,,,,,,,,,,,,,,,,,,,,,,,,,,,,,,,,,,,,,,,,,,,,,,,,,,,,,,,,,,,,,,,,,,,,,,,,,,,,,,,,,,,,,,,,,,,,,,,,,,,,,,,,,,,,,,,,,,,,,,,,,,,,,,,,,,,,,,,,
,,5c0624cf891bb4000121c772,2024-02-21_21h37.16.716,kallum_motion_pilot,2023.2.2,Win32,59.88023952,5c0624cf891bb4000121c772,65d6bb0e977760de756971f7,65d6bfaa0a464a429d9a9195,0.5461,0.5466,1,89,251,63,1,fourthree,,,,,,,,,,,,,,,,,,,,,,,,,,,,,,,,,,,,,,,,,,,,,,,,,,,,,,,,,,,,,,,,,,,,,,,,,,,,,,,,,,,,,,,,,,,,,,,,,,,,,,,,,,,,,,,,,,,,,,,,,,,,,,,,,,,,,,,,,
,,5c0624cf891bb4000121c772,2024-02-21_21h37.16.716,kallum_motion_pilot,2023.2.2,Win32,59.88023952,5c0624cf891bb4000121c772,65d6bb0e977760de756971f7,65d6bfaa0a464a429d9a9195,0.5475,0.5483,1,90,252,81,1,fiveseven,,,,,,,,,,,,,,,,,,,,,,,,,,,,,,,,,,,,,,,,,,,,,,,,,,,,,,,,,,,,,,,,,,,,,,,,,,,,,,,,,,,,,,,,,,,,,,,,,,,,,,,,,,,,,,,,,,,,,,,,,,,,,,,,,,,,,,,,,
,,5c0624cf891bb4000121c772,2024-02-21_21h37.16.716,kallum_motion_pilot,2023.2.2,Win32,59.88023952,5c0624cf891bb4000121c772,65d6bb0e977760de756971f7,65d6bfaa0a464a429d9a9195,0.5489,0.5493,1,91,253,152,1,fivesix,,,,,,,,,,,,,,,,,,,,,,,,,,,,,,,,,,,,,,,,,,,,,,,,,,,,,,,,,,,,,,,,,,,,,,,,,,,,,,,,,,,,,,,,,,,,,,,,,,,,,,,,,,,,,,,,,,,,,,,,,,,,,,,,,,,,,,,,,
,,5c0624cf891bb4000121c772,2024-02-21_21h37.16.716,kallum_motion_pilot,2023.2.2,Win32,59.88023952,5c0624cf891bb4000121c772,65d6bb0e977760de756971f7,65d6bfaa0a464a429d9a9195,0.5499,0.5502,1,92,254,124,1,sevenfive,,,,,,,,,,,,,,,,,,,,,,,,,,,,,,,,,,,,,,,,,,,,,,,,,,,,,,,,,,,,,,,,,,,,,,,,,,,,,,,,,,,,,,,,,,,,,,,,,,,,,,,,,,,,,,,,,,,,,,,,,,,,,,,,,,,,,,,,,
,,5c0624cf891bb4000121c772,2024-02-21_21h37.16.716,kallum_motion_pilot,2023.2.2,Win32,59.88023952,5c0624cf891bb4000121c772,65d6bb0e977760de756971f7,65d6bfaa0a464a429d9a9195,0.5515,0.5518,1,93,255,46,1,fourtwo,,,,,,,,,,,,,,,,,,,,,,,,,,,,,,,,,,,,,,,,,,,,,,,,,,,,,,,,,,,,,,,,,,,,,,,,,,,,,,,,,,,,,,,,,,,,,,,,,,,,,,,,,,,,,,,,,,,,,,,,,,,,,,,,,,,,,,,,,
,,5c0624cf891bb4000121c772,2024-02-21_21h37.16.716,kallum_motion_pilot,2023.2.2,Win32,59.88023952,5c0624cf891bb4000121c772,65d6bb0e977760de756971f7,65d6bfaa0a464a429d9a9195,0.5524,0.5528,1,94,256,117,1,seveneight,,,,,,,,,,,,,,,,,,,,,,,,,,,,,,,,,,,,,,,,,,,,,,,,,,,,,,,,,,,,,,,,,,,,,,,,,,,,,,,,,,,,,,,,,,,,,,,,,,,,,,,,,,,,,,,,,,,,,,,,,,,,,,,,,,,,,,,,,
,,5c0624cf891bb4000121c772,2024-02-21_21h37.16.716,kallum_motion_pilot,2023.2.2,Win32,59.88023952,5c0624cf891bb4000121c772,65d6bb0e977760de756971f7,65d6bfaa0a464a429d9a9195,0.5535,0.5537,1,95,257,104,1,fivesix,,,,,,,,,,,,,,,,,,,,,,,,,,,,,,,,,,,,,,,,,,,,,,,,,,,,,,,,,,,,,,,,,,,,,,,,,,,,,,,,,,,,,,,,,,,,,,,,,,,,,,,,,,,,,,,,,,,,,,,,,,,,,,,,,,,,,,,,,
,,5c0624cf891bb4000121c772,2024-02-21_21h37.16.716,kallum_motion_pilot,2023.2.2,Win32,59.88023952,5c0624cf891bb4000121c772,65d6bb0e977760de756971f7,65d6bfaa0a464a429d9a9195,0.5543,0.5547,1,96,258,151,1,eightseven,,,,,,,,,,,,,,,,,,,,,,,,,,,,,,,,,,,,,,,,,,,,,,,,,,,,,,,,,,,,,,,,,,,,,,,,,,,,,,,,,,,,,,,,,,,,,,,,,,,,,,,,,,,,,,,,,,,,,,,,,,,,,,,,,,,,,,,,,
,,5c0624cf891bb4000121c772,2024-02-21_21h37.16.716,kallum_motion_pilot,2023.2.2,Win32,59.88023952,5c0624cf891bb4000121c772,65d6bb0e977760de756971f7,65d6bfaa0a464a429d9a9195,0.5554,0.5558,1,97,259,111,1,eightseven,,,,,,,,,,,,,,,,,,,,,,,,,,,,,,,,,,,,,,,,,,,,,,,,,,,,,,,,,,,,,,,,,,,,,,,,,,,,,,,,,,,,,,,,,,,,,,,,,,,,,,,,,,,,,,,,,,,,,,,,,,,,,,,,,,,,,,,,,
,,5c0624cf891bb4000121c772,2024-02-21_21h37.16.716,kallum_motion_pilot,2023.2.2,Win32,59.88023952,5c0624cf891bb4000121c772,65d6bb0e977760de756971f7,65d6bfaa0a464a429d9a9195,0.5565,0.5568,1,98,260,94,1,eightsix,,,,,,,,,,,,,,,,,,,,,,,,,,,,,,,,,,,,,,,,,,,,,,,,,,,,,,,,,,,,,,,,,,,,,,,,,,,,,,,,,,,,,,,,,,,,,,,,,,,,,,,,,,,,,,,,,,,,,,,,,,,,,,,,,,,,,,,,,
,,5c0624cf891bb4000121c772,2024-02-21_21h37.16.716,kallum_motion_pilot,2023.2.2,Win32,59.88023952,5c0624cf891bb4000121c772,65d6bb0e977760de756971f7,65d6bfaa0a464a429d9a9195,0.5581,0.5584,1,99,261,84,1,sevenfive,,,,,,,,,,,,,,,,,,,,,,,,,,,,,,,,,,,,,,,,,,,,,,,,,,,,,,,,,,,,,,,,,,,,,,,,,,,,,,,,,,,,,,,,,,,,,,,,,,,,,,,,,,,,,,,,,,,,,,,,,,,,,,,,,,,,,,,,,
,,5c0624cf891bb4000121c772,2024-02-21_21h37.16.716,kallum_motion_pilot,2023.2.2,Win32,59.88023952,5c0624cf891bb4000121c772,65d6bb0e977760de756971f7,65d6bfaa0a464a429d9a9195,0.559,0.5597,1,100,262,37,1,threefour,,,,,,,,,,,,,,,,,,,,,,,,,,,,,,,,,,,,,,,,,,,,,,,,,,,,,,,,,,,,,,,,,,,,,,,,,,,,,,,,,,,,,,,,,,,,,,,,,,,,,,,,,,,,,,,,,,,,,,,,,,,,,,,,,,,,,,,,,
,,5c0624cf891bb4000121c772,2024-02-21_21h37.16.716,kallum_motion_pilot,2023.2.2,Win32,59.88023952,5c0624cf891bb4000121c772,65d6bb0e977760de756971f7,65d6bfaa0a464a429d9a9195,0.561,0.5614,1,101,263,62,1,fourtwo,,,,,,,,,,,,,,,,,,,,,,,,,,,,,,,,,,,,,,,,,,,,,,,,,,,,,,,,,,,,,,,,,,,,,,,,,,,,,,,,,,,,,,,,,,,,,,,,,,,,,,,,,,,,,,,,,,,,,,,,,,,,,,,,,,,,,,,,,
,,5c0624cf891bb4000121c772,2024-02-21_21h37.16.716,kallum_motion_pilot,2023.2.2,Win32,59.88023952,5c0624cf891bb4000121c772,65d6bb0e977760de756971f7,65d6bfaa0a464a429d9a9195,0.5624,0.5627,1,102,264,122,1,sixfive,,,,,,,,,,,,,,,,,,,,,,,,,,,,,,,,,,,,,,,,,,,,,,,,,,,,,,,,,,,,,,,,,,,,,,,,,,,,,,,,,,,,,,,,,,,,,,,,,,,,,,,,,,,,,,,,,,,,,,,,,,,,,,,,,,,,,,,,,
,,5c0624cf891bb4000121c772,2024-02-21_21h37.16.716,kallum_motion_pilot,2023.2.2,Win32,59.88023952,5c0624cf891bb4000121c772,65d6bb0e977760de756971f7,65d6bfaa0a464a429d9a9195,0.5634,0.5638,1,103,265,18,1,twoone,,,,,,,,,,,,,,,,,,,,,,,,,,,,,,,,,,,,,,,,,,,,,,,,,,,,,,,,,,,,,,,,,,,,,,,,,,,,,,,,,,,,,,,,,,,,,,,,,,,,,,,,,,,,,,,,,,,,,,,,,,,,,,,,,,,,,,,,,
,,5c0624cf891bb4000121c772,2024-02-21_21h37.16.716,kallum_motion_pilot,2023.2.2,Win32,59.88023952,5c0624cf891bb4000121c772,65d6bb0e977760de756971f7,65d6bfaa0a464a429d9a9195,0.5644,0.5648,1,104,266,155,1,sixeight,,,,,,,,,,,,,,,,,,,,,,,,,,,,,,,,,,,,,,,,,,,,,,,,,,,,,,,,,,,,,,,,,,,,,,,,,,,,,,,,,,,,,,,,,,,,,,,,,,,,,,,,,,,,,,,,,,,,,,,,,,,,,,,,,,,,,,,,,
,,5c0624cf891bb4000121c772,2024-02-21_21h37.16.716,kallum_motion_pilot,2023.2.2,Win32,59.88023952,5c0624cf891bb4000121c772,65d6bb0e977760de756971f7,65d6bfaa0a464a429d9a9195,0.5654,0.5658,1,105,267,139,1,sixeight,,,,,,,,,,,,,,,,,,,,,,,,,,,,,,,,,,,,,,,,,,,,,,,,,,,,,,,,,,,,,,,,,,,,,,,,,,,,,,,,,,,,,,,,,,,,,,,,,,,,,,,,,,,,,,,,,,,,,,,,,,,,,,,,,,,,,,,,,
,,5c0624cf891bb4000121c772,2024-02-21_21h37.16.716,kallum_motion_pilot,2023.2.2,Win32,59.88023952,5c0624cf891bb4000121c772,65d6bb0e977760de756971f7,65d6bfaa0a464a429d9a9195,0.5664,0.5669,1,106,268,48,1,onetwo,,,,,,,,,,,,,,,,,,,,,,,,,,,,,,,,,,,,,,,,,,,,,,,,,,,,,,,,,,,,,,,,,,,,,,,,,,,,,,,,,,,,,,,,,,,,,,,,,,,,,,,,,,,,,,,,,,,,,,,,,,,,,,,,,,,,,,,,,
,,5c0624cf891bb4000121c772,2024-02-21_21h37.16.716,kallum_motion_pilot,2023.2.2,Win32,59.88023952,5c0624cf891bb4000121c772,65d6bb0e977760de756971f7,65d6bfaa0a464a429d9a9195,0.5681,0.5685,1,107,269,32,1,onetwo,,,,,,,,,,,,,,,,,,,,,,,,,,,,,,,,,,,,,,,,,,,,,,,,,,,,,,,,,,,,,,,,,,,,,,,,,,,,,,,,,,,,,,,,,,,,,,,,,,,,,,,,,,,,,,,,,,,,,,,,,,,,,,,,,,,,,,,,,
,,5c0624cf891bb4000121c772,2024-02-21_21h37.16.716,kallum_motion_pilot,2023.2.2,Win32,59.88023952,5c0624cf891bb4000121c772,65d6bb0e977760de756971f7,65d6bfaa0a464a429d9a9195,0.5691,0.5695,1,108,270,150,1,eightsix,,,,,,,,,,,,,,,,,,,,,,,,,,,,,,,,,,,,,,,,,,,,,,,,,,,,,,,,,,,,,,,,,,,,,,,,,,,,,,,,,,,,,,,,,,,,,,,,,,,,,,,,,,,,,,,,,,,,,,,,,,,,,,,,,,,,,,,,,
,,5c0624cf891bb4000121c772,2024-02-21_21h37.16.716,kallum_motion_pilot,2023.2.2,Win32,59.88023952,5c0624cf891bb4000121c772,65d6bb0e977760de756971f7,65d6bfaa0a464a429d9a9195,0.5701,0.5705,1,109,271,16,1,onetwo,,,,,,,,,,,,,,,,,,,,,,,,,,,,,,,,,,,,,,,,,,,,,,,,,,,,,,,,,,,,,,,,,,,,,,,,,,,,,,,,,,,,,,,,,,,,,,,,,,,,,,,,,,,,,,,,,,,,,,,,,,,,,,,,,,,,,,,,,
,,5c0624cf891bb4000121c772,2024-02-21_21h37.16.716,kallum_motion_pilot,2023.2.2,Win32,59.88023952,5c0624cf891bb4000121c772,65d6bb0e977760de756971f7,65d6bfaa0a464a429d9a9195,0.571,0.5715,1,110,272,44,1,threeone,,,,,,,,,,,,,,,,,,,,,,,,,,,,,,,,,,,,,,,,,,,,,,,,,,,,,,,,,,,,,,,,,,,,,,,,,,,,,,,,,,,,,,,,,,,,,,,,,,,,,,,,,,,,,,,,,,,,,,,,,,,,,,,,,,,,,,,,,
,,5c0624cf891bb4000121c772,2024-02-21_21h37.16.716,kallum_motion_pilot,2023.2.2,Win32,59.88023952,5c0624cf891bb4000121c772,65d6bb0e977760de756971f7,65d6bfaa0a464a429d9a9195,0.5721,0.5723,1,111,273,66,1,twoone,,,,,,,,,,,,,,,,,,,,,,,,,,,,,,,,,,,,,,,,,,,,,,,,,,,,,,,,,,,,,,,,,,,,,,,,,,,,,,,,,,,,,,,,,,,,,,,,,,,,,,,,,,,,,,,,,,,,,,,,,,,,,,,,,,,,,,,,,
,,5c0624cf891bb4000121c772,2024-02-21_21h37.16.716,kallum_motion_pilot,2023.2.2,Win32,59.88023952,5c0624cf891bb4000121c772,65d6bb0e977760de756971f7,65d6bfaa0a464a429d9a9195,0.573,0.5734,1,112,274,137,1,fiveseven,,,,,,,,,,,,,,,,,,,,,,,,,,,,,,,,,,,,,,,,,,,,,,,,,,,,,,,,,,,,,,,,,,,,,,,,,,,,,,,,,,,,,,,,,,,,,,,,,,,,,,,,,,,,,,,,,,,,,,,,,,,,,,,,,,,,,,,,,
,,5c0624cf891bb4000121c772,2024-02-21_21h37.16.716,kallum_motion_pilot,2023.2.2,Win32,59.88023952,5c0624cf891bb4000121c772,65d6bb0e977760de756971f7,65d6bfaa0a464a429d9a9195,0.574,0.5744,1,113,275,80,1,fivesix,,,,,,,,,,,,,,,,,,,,,,,,,,,,,,,,,,,,,,,,,,,,,,,,,,,,,,,,,,,,,,,,,,,,,,,,,,,,,,,,,,,,,,,,,,,,,,,,,,,,,,,,,,,,,,,,,,,,,,,,,,,,,,,,,,,,,,,,,
,,5c0624cf891bb4000121c772,2024-02-21_21h37.16.716,kallum_motion_pilot,2023.2.2,Win32,59.88023952,5c0624cf891bb4000121c772,65d6bb0e977760de756971f7,65d6bfaa0a464a429d9a9195,0.5803,0.5807,1,114,276,43,1,twofour,,,,,,,,,,,,,,,,,,,,,,,,,,,,,,,,,,,,,,,,,,,,,,,,,,,,,,,,,,,,,,,,,,,,,,,,,,,,,,,,,,,,,,,,,,,,,,,,,,,,,,,,,,,,,,,,,,,,,,,,,,,,,,,,,,,,,,,,,
,,5c0624cf891bb4000121c772,2024-02-21_21h37.16.716,kallum_motion_pilot,2023.2.2,Win32,59.88023952,5c0624cf891bb4000121c772,65d6bb0e977760de756971f7,65d6bfaa0a464a429d9a9195,0.5813,0.5815,1,115,277,31,1,fourthree,,,,,,,,,,,,,,,,,,,,,,,,,,,,,,,,,,,,,,,,,,,,,,,,,,,,,,,,,,,,,,,,,,,,,,,,,,,,,,,,,,,,,,,,,,,,,,,,,,,,,,,,,,,,,,,,,,,,,,,,,,,,,,,,,,,,,,,,,
