startup.started,startup.stopped,Prolific ID*,date,expName,psychopyVersion,OS,frameRate,participant,study_id,session,stimpositions.started,stimpositions.stopped,hardcoded_stimulus_positions.thisRepN,hardcoded_stimulus_positions.thisTrialN,hardcoded_stimulus_positions.thisN,hardcoded_stimulus_positions.thisIndex,hardcoded_stimulus_positions.ran,StimulusPos,stimorientation.started,stimorientation.stopped,prac_stimorientation_import_loop.thisRepN,prac_stimorientation_import_loop.thisTrialN,prac_stimorientation_import_loop.thisN,prac_stimorientation_import_loop.thisIndex,prac_stimorientation_import_loop.ran,Stimorientation,welcome_instr.started,welcome_instr.stopped,key_resp.keys,key_resp.rt,key_resp.duration,response_steppedout_1.started,response_steppedout_1.stopped,key_resp_20.keys,key_resp_20.rt,key_resp_20.duration,response_steppedout_2.started,response_steppedout_2.stopped,key_resp_19.keys,key_resp_19.rt,key_resp_19.duration,stim_response_instr.started,stim_response_instr.stopped,key_resp_15.keys,key_resp_15.rt,key_resp_15.duration,direction_instr_2.started,direction_instr_2.stopped,key_resp_9.keys,key_resp_9.rt,key_resp_9.duration,instr_prac.started,instr_prac.stopped,key_resp_10.keys,key_resp_10.rt,key_resp_10.duration,Stim1_display_prac.started,Stim1_display_prac.stopped,Ecc,Circle1_ori,Circle2_ori,response_prac.started,similarity,response_time,response_prac.stopped,mouse_5.x,mouse_5.y,mouse_5.leftButton,mouse_5.midButton,mouse_5.rightButton,mouse_5.clicked_name,responseprac_feedback.started,responseprac_feedback.stopped,summary2_prac.started,summary2_prac.stopped,mouse_6.x,mouse_6.y,mouse_6.leftButton,mouse_6.midButton,mouse_6.rightButton,mouse_6.clicked_name,duringprac.thisRepN,duringprac.thisTrialN,duringprac.thisN,duringprac.thisIndex,duringprac.ran,begin.started,begin.stopped,key_resp_22.keys,key_resp_22.rt,key_resp_22.duration,Stim1_display.started,Stim1_display.stopped,circle1_ori,circle2_ori,circle1_SF,circle2_SF,response.started,response.stopped,mouse.x,mouse.y,mouse.leftButton,mouse.midButton,mouse.rightButton,mouse.clicked_name,trialnumber,double_pass.thisRepN,double_pass.thisTrialN,double_pass.thisN,double_pass.thisIndex,double_pass.ran,double_pass.order,main_trial.thisRepN,main_trial.thisTrialN,main_trial.thisN,main_trial.thisIndex,main_trial.ran,main_trial.order,Trial_Counter,Catch,Frequencies,response_2.started,response_2.stopped,mouse_2.x,mouse_2.y,mouse_2.leftButton,mouse_2.midButton,mouse_2.rightButton,mouse_2.clicked_name,special_trial.started,special_trial.stopped,catch_1.started,catch_1.stopped,mouse_3.x,mouse_3.y,mouse_3.leftButton,mouse_3.midButton,mouse_3.rightButton,catchresponse,catchnumber,response_time_catch,response_sum.started,response_sum.stopped,mouse_11.x,mouse_11.y,mouse_11.leftButton,mouse_11.midButton,mouse_11.rightButton,flip_presentation_sequence_for_double_pass.started,flip_presentation_sequence_for_double_pass.stopped,goodbye.started,goodbye.stopped,key_resp_3.keys,key_resp_3.rt,key_resp_3.duration
0.001,0.001,5c5862c74339fd0001a8a41a,2024-02-18_20h12.16.345,kallum_motion_pilot,2023.2.2,Win32,58.82352941,5c5862c74339fd0001a8a41a,65d2b6c8f2eece985d8e374c,65d2b8eefe7a391178aea35a,,,,,,,,,,,,,,,,,,,,,,,,,,,,,,,,,,,,,,,,,,,,,,,,,,,,,,,,,,,,,,,,,,,,,,,,,,,,,,,,,,,,,,,,,,,,,,,,,,,,,,,,,,,,,,,,,,,,,,,,,,,,,,,,,,,,,,,,,,,,,,,,,
,,5c5862c74339fd0001a8a41a,2024-02-18_20h12.16.345,kallum_motion_pilot,2023.2.2,Win32,58.82352941,5c5862c74339fd0001a8a41a,65d2b6c8f2eece985d8e374c,65d2b8eefe7a391178aea35a,0.035,0.035,0,0,0,21,1,threefour,,,,,,,,,,,,,,,,,,,,,,,,,,,,,,,,,,,,,,,,,,,,,,,,,,,,,,,,,,,,,,,,,,,,,,,,,,,,,,,,,,,,,,,,,,,,,,,,,,,,,,,,,,,,,,,,,,,,,,,,,,,,,,,,,,,,,,,,,
,,5c5862c74339fd0001a8a41a,2024-02-18_20h12.16.345,kallum_motion_pilot,2023.2.2,Win32,58.82352941,5c5862c74339fd0001a8a41a,65d2b6c8f2eece985d8e374c,65d2b8eefe7a391178aea35a,0.035,0.035,0,1,1,20,1,threeone,,,,,,,,,,,,,,,,,,,,,,,,,,,,,,,,,,,,,,,,,,,,,,,,,,,,,,,,,,,,,,,,,,,,,,,,,,,,,,,,,,,,,,,,,,,,,,,,,,,,,,,,,,,,,,,,,,,,,,,,,,,,,,,,,,,,,,,,,
,,5c5862c74339fd0001a8a41a,2024-02-18_20h12.16.345,kallum_motion_pilot,2023.2.2,Win32,58.82352941,5c5862c74339fd0001a8a41a,65d2b6c8f2eece985d8e374c,65d2b8eefe7a391178aea35a,0.036,0.036,0,2,2,121,1,fiveseven,,,,,,,,,,,,,,,,,,,,,,,,,,,,,,,,,,,,,,,,,,,,,,,,,,,,,,,,,,,,,,,,,,,,,,,,,,,,,,,,,,,,,,,,,,,,,,,,,,,,,,,,,,,,,,,,,,,,,,,,,,,,,,,,,,,,,,,,,
,,5c5862c74339fd0001a8a41a,2024-02-18_20h12.16.345,kallum_motion_pilot,2023.2.2,Win32,58.82352941,5c5862c74339fd0001a8a41a,65d2b6c8f2eece985d8e374c,65d2b8eefe7a391178aea35a,0.036,0.036,0,3,3,143,1,eightseven,,,,,,,,,,,,,,,,,,,,,,,,,,,,,,,,,,,,,,,,,,,,,,,,,,,,,,,,,,,,,,,,,,,,,,,,,,,,,,,,,,,,,,,,,,,,,,,,,,,,,,,,,,,,,,,,,,,,,,,,,,,,,,,,,,,,,,,,,
,,5c5862c74339fd0001a8a41a,2024-02-18_20h12.16.345,kallum_motion_pilot,2023.2.2,Win32,58.82352941,5c5862c74339fd0001a8a41a,65d2b6c8f2eece985d8e374c,65d2b8eefe7a391178aea35a,0.037,0.037,0,4,4,128,1,fivesix,,,,,,,,,,,,,,,,,,,,,,,,,,,,,,,,,,,,,,,,,,,,,,,,,,,,,,,,,,,,,,,,,,,,,,,,,,,,,,,,,,,,,,,,,,,,,,,,,,,,,,,,,,,,,,,,,,,,,,,,,,,,,,,,,,,,,,,,,
,,5c5862c74339fd0001a8a41a,2024-02-18_20h12.16.345,kallum_motion_pilot,2023.2.2,Win32,58.82352941,5c5862c74339fd0001a8a41a,65d2b6c8f2eece985d8e374c,65d2b8eefe7a391178aea35a,0.037,0.037,0,5,5,113,1,fiveseven,,,,,,,,,,,,,,,,,,,,,,,,,,,,,,,,,,,,,,,,,,,,,,,,,,,,,,,,,,,,,,,,,,,,,,,,,,,,,,,,,,,,,,,,,,,,,,,,,,,,,,,,,,,,,,,,,,,,,,,,,,,,,,,,,,,,,,,,,
,,5c5862c74339fd0001a8a41a,2024-02-18_20h12.16.345,kallum_motion_pilot,2023.2.2,Win32,58.82352941,5c5862c74339fd0001a8a41a,65d2b6c8f2eece985d8e374c,65d2b8eefe7a391178aea35a,0.037,0.037,0,6,6,131,1,sixeight,,,,,,,,,,,,,,,,,,,,,,,,,,,,,,,,,,,,,,,,,,,,,,,,,,,,,,,,,,,,,,,,,,,,,,,,,,,,,,,,,,,,,,,,,,,,,,,,,,,,,,,,,,,,,,,,,,,,,,,,,,,,,,,,,,,,,,,,,
,,5c5862c74339fd0001a8a41a,2024-02-18_20h12.16.345,kallum_motion_pilot,2023.2.2,Win32,58.82352941,5c5862c74339fd0001a8a41a,65d2b6c8f2eece985d8e374c,65d2b8eefe7a391178aea35a,0.037,0.037,0,7,7,46,1,fourtwo,,,,,,,,,,,,,,,,,,,,,,,,,,,,,,,,,,,,,,,,,,,,,,,,,,,,,,,,,,,,,,,,,,,,,,,,,,,,,,,,,,,,,,,,,,,,,,,,,,,,,,,,,,,,,,,,,,,,,,,,,,,,,,,,,,,,,,,,,
,,5c5862c74339fd0001a8a41a,2024-02-18_20h12.16.345,kallum_motion_pilot,2023.2.2,Win32,58.82352941,5c5862c74339fd0001a8a41a,65d2b6c8f2eece985d8e374c,65d2b8eefe7a391178aea35a,0.037,0.037,0,8,8,42,1,twoone,,,,,,,,,,,,,,,,,,,,,,,,,,,,,,,,,,,,,,,,,,,,,,,,,,,,,,,,,,,,,,,,,,,,,,,,,,,,,,,,,,,,,,,,,,,,,,,,,,,,,,,,,,,,,,,,,,,,,,,,,,,,,,,,,,,,,,,,,
,,5c5862c74339fd0001a8a41a,2024-02-18_20h12.16.345,kallum_motion_pilot,2023.2.2,Win32,58.82352941,5c5862c74339fd0001a8a41a,65d2b6c8f2eece985d8e374c,65d2b8eefe7a391178aea35a,0.037,0.037,0,9,9,127,1,eightseven,,,,,,,,,,,,,,,,,,,,,,,,,,,,,,,,,,,,,,,,,,,,,,,,,,,,,,,,,,,,,,,,,,,,,,,,,,,,,,,,,,,,,,,,,,,,,,,,,,,,,,,,,,,,,,,,,,,,,,,,,,,,,,,,,,,,,,,,,
,,5c5862c74339fd0001a8a41a,2024-02-18_20h12.16.345,kallum_motion_pilot,2023.2.2,Win32,58.82352941,5c5862c74339fd0001a8a41a,65d2b6c8f2eece985d8e374c,65d2b8eefe7a391178aea35a,0.037,0.037,0,10,10,150,1,eightsix,,,,,,,,,,,,,,,,,,,,,,,,,,,,,,,,,,,,,,,,,,,,,,,,,,,,,,,,,,,,,,,,,,,,,,,,,,,,,,,,,,,,,,,,,,,,,,,,,,,,,,,,,,,,,,,,,,,,,,,,,,,,,,,,,,,,,,,,,
,,5c5862c74339fd0001a8a41a,2024-02-18_20h12.16.345,kallum_motion_pilot,2023.2.2,Win32,58.82352941,5c5862c74339fd0001a8a41a,65d2b6c8f2eece985d8e374c,65d2b8eefe7a391178aea35a,0.037,0.037,0,11,11,82,1,sixfive,,,,,,,,,,,,,,,,,,,,,,,,,,,,,,,,,,,,,,,,,,,,,,,,,,,,,,,,,,,,,,,,,,,,,,,,,,,,,,,,,,,,,,,,,,,,,,,,,,,,,,,,,,,,,,,,,,,,,,,,,,,,,,,,,,,,,,,,,
,,5c5862c74339fd0001a8a41a,2024-02-18_20h12.16.345,kallum_motion_pilot,2023.2.2,Win32,58.82352941,5c5862c74339fd0001a8a41a,65d2b6c8f2eece985d8e374c,65d2b8eefe7a391178aea35a,0.037,0.037,0,12,12,145,1,fiveseven,,,,,,,,,,,,,,,,,,,,,,,,,,,,,,,,,,,,,,,,,,,,,,,,,,,,,,,,,,,,,,,,,,,,,,,,,,,,,,,,,,,,,,,,,,,,,,,,,,,,,,,,,,,,,,,,,,,,,,,,,,,,,,,,,,,,,,,,,
,,5c5862c74339fd0001a8a41a,2024-02-18_20h12.16.345,kallum_motion_pilot,2023.2.2,Win32,58.82352941,5c5862c74339fd0001a8a41a,65d2b6c8f2eece985d8e374c,65d2b8eefe7a391178aea35a,0.037,0.037,0,13,13,74,1,twoone,,,,,,,,,,,,,,,,,,,,,,,,,,,,,,,,,,,,,,,,,,,,,,,,,,,,,,,,,,,,,,,,,,,,,,,,,,,,,,,,,,,,,,,,,,,,,,,,,,,,,,,,,,,,,,,,,,,,,,,,,,,,,,,,,,,,,,,,,
,,5c5862c74339fd0001a8a41a,2024-02-18_20h12.16.345,kallum_motion_pilot,2023.2.2,Win32,58.82352941,5c5862c74339fd0001a8a41a,65d2b6c8f2eece985d8e374c,65d2b8eefe7a391178aea35a,0.037,0.037,0,14,14,14,1,fourtwo,,,,,,,,,,,,,,,,,,,,,,,,,,,,,,,,,,,,,,,,,,,,,,,,,,,,,,,,,,,,,,,,,,,,,,,,,,,,,,,,,,,,,,,,,,,,,,,,,,,,,,,,,,,,,,,,,,,,,,,,,,,,,,,,,,,,,,,,,
,,5c5862c74339fd0001a8a41a,2024-02-18_20h12.16.345,kallum_motion_pilot,2023.2.2,Win32,58.82352941,5c5862c74339fd0001a8a41a,65d2b6c8f2eece985d8e374c,65d2b8eefe7a391178aea35a,0.037,0.037,0,15,15,125,1,seveneight,,,,,,,,,,,,,,,,,,,,,,,,,,,,,,,,,,,,,,,,,,,,,,,,,,,,,,,,,,,,,,,,,,,,,,,,,,,,,,,,,,,,,,,,,,,,,,,,,,,,,,,,,,,,,,,,,,,,,,,,,,,,,,,,,,,,,,,,,
,,5c5862c74339fd0001a8a41a,2024-02-18_20h12.16.345,kallum_motion_pilot,2023.2.2,Win32,58.82352941,5c5862c74339fd0001a8a41a,65d2b6c8f2eece985d8e374c,65d2b8eefe7a391178aea35a,0.037,0.037,0,16,16,120,1,fivesix,,,,,,,,,,,,,,,,,,,,,,,,,,,,,,,,,,,,,,,,,,,,,,,,,,,,,,,,,,,,,,,,,,,,,,,,,,,,,,,,,,,,,,,,,,,,,,,,,,,,,,,,,,,,,,,,,,,,,,,,,,,,,,,,,,,,,,,,,
,,5c5862c74339fd0001a8a41a,2024-02-18_20h12.16.345,kallum_motion_pilot,2023.2.2,Win32,58.82352941,5c5862c74339fd0001a8a41a,65d2b6c8f2eece985d8e374c,65d2b8eefe7a391178aea35a,0.037,0.037,0,17,17,151,1,eightseven,,,,,,,,,,,,,,,,,,,,,,,,,,,,,,,,,,,,,,,,,,,,,,,,,,,,,,,,,,,,,,,,,,,,,,,,,,,,,,,,,,,,,,,,,,,,,,,,,,,,,,,,,,,,,,,,,,,,,,,,,,,,,,,,,,,,,,,,,
,,5c5862c74339fd0001a8a41a,2024-02-18_20h12.16.345,kallum_motion_pilot,2023.2.2,Win32,58.82352941,5c5862c74339fd0001a8a41a,65d2b6c8f2eece985d8e374c,65d2b8eefe7a391178aea35a,0.038,0.038,0,18,18,88,1,fivesix,,,,,,,,,,,,,,,,,,,,,,,,,,,,,,,,,,,,,,,,,,,,,,,,,,,,,,,,,,,,,,,,,,,,,,,,,,,,,,,,,,,,,,,,,,,,,,,,,,,,,,,,,,,,,,,,,,,,,,,,,,,,,,,,,,,,,,,,,
,,5c5862c74339fd0001a8a41a,2024-02-18_20h12.16.345,kallum_motion_pilot,2023.2.2,Win32,58.82352941,5c5862c74339fd0001a8a41a,65d2b6c8f2eece985d8e374c,65d2b8eefe7a391178aea35a,0.038,0.038,0,19,19,153,1,fiveseven,,,,,,,,,,,,,,,,,,,,,,,,,,,,,,,,,,,,,,,,,,,,,,,,,,,,,,,,,,,,,,,,,,,,,,,,,,,,,,,,,,,,,,,,,,,,,,,,,,,,,,,,,,,,,,,,,,,,,,,,,,,,,,,,,,,,,,,,,
,,5c5862c74339fd0001a8a41a,2024-02-18_20h12.16.345,kallum_motion_pilot,2023.2.2,Win32,58.82352941,5c5862c74339fd0001a8a41a,65d2b6c8f2eece985d8e374c,65d2b8eefe7a391178aea35a,0.038,0.038,0,20,20,56,1,onetwo,,,,,,,,,,,,,,,,,,,,,,,,,,,,,,,,,,,,,,,,,,,,,,,,,,,,,,,,,,,,,,,,,,,,,,,,,,,,,,,,,,,,,,,,,,,,,,,,,,,,,,,,,,,,,,,,,,,,,,,,,,,,,,,,,,,,,,,,,
,,5c5862c74339fd0001a8a41a,2024-02-18_20h12.16.345,kallum_motion_pilot,2023.2.2,Win32,58.82352941,5c5862c74339fd0001a8a41a,65d2b6c8f2eece985d8e374c,65d2b8eefe7a391178aea35a,0.038,0.038,0,21,21,156,1,sevenfive,,,,,,,,,,,,,,,,,,,,,,,,,,,,,,,,,,,,,,,,,,,,,,,,,,,,,,,,,,,,,,,,,,,,,,,,,,,,,,,,,,,,,,,,,,,,,,,,,,,,,,,,,,,,,,,,,,,,,,,,,,,,,,,,,,,,,,,,,
,,5c5862c74339fd0001a8a41a,2024-02-18_20h12.16.345,kallum_motion_pilot,2023.2.2,Win32,58.82352941,5c5862c74339fd0001a8a41a,65d2b6c8f2eece985d8e374c,65d2b8eefe7a391178aea35a,0.038,0.038,0,22,22,54,1,fourtwo,,,,,,,,,,,,,,,,,,,,,,,,,,,,,,,,,,,,,,,,,,,,,,,,,,,,,,,,,,,,,,,,,,,,,,,,,,,,,,,,,,,,,,,,,,,,,,,,,,,,,,,,,,,,,,,,,,,,,,,,,,,,,,,,,,,,,,,,,
,,5c5862c74339fd0001a8a41a,2024-02-18_20h12.16.345,kallum_motion_pilot,2023.2.2,Win32,58.82352941,5c5862c74339fd0001a8a41a,65d2b6c8f2eece985d8e374c,65d2b8eefe7a391178aea35a,0.038,0.038,0,23,23,44,1,threeone,,,,,,,,,,,,,,,,,,,,,,,,,,,,,,,,,,,,,,,,,,,,,,,,,,,,,,,,,,,,,,,,,,,,,,,,,,,,,,,,,,,,,,,,,,,,,,,,,,,,,,,,,,,,,,,,,,,,,,,,,,,,,,,,,,,,,,,,,
,,5c5862c74339fd0001a8a41a,2024-02-18_20h12.16.345,kallum_motion_pilot,2023.2.2,Win32,58.82352941,5c5862c74339fd0001a8a41a,65d2b6c8f2eece985d8e374c,65d2b8eefe7a391178aea35a,0.038,0.038,0,24,24,130,1,sixfive,,,,,,,,,,,,,,,,,,,,,,,,,,,,,,,,,,,,,,,,,,,,,,,,,,,,,,,,,,,,,,,,,,,,,,,,,,,,,,,,,,,,,,,,,,,,,,,,,,,,,,,,,,,,,,,,,,,,,,,,,,,,,,,,,,,,,,,,,
,,5c5862c74339fd0001a8a41a,2024-02-18_20h12.16.345,kallum_motion_pilot,2023.2.2,Win32,58.82352941,5c5862c74339fd0001a8a41a,65d2b6c8f2eece985d8e374c,65d2b8eefe7a391178aea35a,0.038,0.038,0,25,25,31,1,fourthree,,,,,,,,,,,,,,,,,,,,,,,,,,,,,,,,,,,,,,,,,,,,,,,,,,,,,,,,,,,,,,,,,,,,,,,,,,,,,,,,,,,,,,,,,,,,,,,,,,,,,,,,,,,,,,,,,,,,,,,,,,,,,,,,,,,,,,,,,
,,5c5862c74339fd0001a8a41a,2024-02-18_20h12.16.345,kallum_motion_pilot,2023.2.2,Win32,58.82352941,5c5862c74339fd0001a8a41a,65d2b6c8f2eece985d8e374c,65d2b8eefe7a391178aea35a,0.038,0.038,0,26,26,62,1,fourtwo,,,,,,,,,,,,,,,,,,,,,,,,,,,,,,,,,,,,,,,,,,,,,,,,,,,,,,,,,,,,,,,,,,,,,,,,,,,,,,,,,,,,,,,,,,,,,,,,,,,,,,,,,,,,,,,,,,,,,,,,,,,,,,,,,,,,,,,,,
,,5c5862c74339fd0001a8a41a,2024-02-18_20h12.16.345,kallum_motion_pilot,2023.2.2,Win32,58.82352941,5c5862c74339fd0001a8a41a,65d2b6c8f2eece985d8e374c,65d2b8eefe7a391178aea35a,0.039,0.039,0,27,27,159,1,eightseven,,,,,,,,,,,,,,,,,,,,,,,,,,,,,,,,,,,,,,,,,,,,,,,,,,,,,,,,,,,,,,,,,,,,,,,,,,,,,,,,,,,,,,,,,,,,,,,,,,,,,,,,,,,,,,,,,,,,,,,,,,,,,,,,,,,,,,,,,
,,5c5862c74339fd0001a8a41a,2024-02-18_20h12.16.345,kallum_motion_pilot,2023.2.2,Win32,58.82352941,5c5862c74339fd0001a8a41a,65d2b6c8f2eece985d8e374c,65d2b8eefe7a391178aea35a,0.039,0.039,0,28,28,119,1,eightseven,,,,,,,,,,,,,,,,,,,,,,,,,,,,,,,,,,,,,,,,,,,,,,,,,,,,,,,,,,,,,,,,,,,,,,,,,,,,,,,,,,,,,,,,,,,,,,,,,,,,,,,,,,,,,,,,,,,,,,,,,,,,,,,,,,,,,,,,,
,,5c5862c74339fd0001a8a41a,2024-02-18_20h12.16.345,kallum_motion_pilot,2023.2.2,Win32,58.82352941,5c5862c74339fd0001a8a41a,65d2b6c8f2eece985d8e374c,65d2b8eefe7a391178aea35a,0.039,0.039,0,29,29,97,1,fiveseven,,,,,,,,,,,,,,,,,,,,,,,,,,,,,,,,,,,,,,,,,,,,,,,,,,,,,,,,,,,,,,,,,,,,,,,,,,,,,,,,,,,,,,,,,,,,,,,,,,,,,,,,,,,,,,,,,,,,,,,,,,,,,,,,,,,,,,,,,
,,5c5862c74339fd0001a8a41a,2024-02-18_20h12.16.345,kallum_motion_pilot,2023.2.2,Win32,58.82352941,5c5862c74339fd0001a8a41a,65d2b6c8f2eece985d8e374c,65d2b8eefe7a391178aea35a,0.039,0.039,0,30,30,158,1,eightsix,,,,,,,,,,,,,,,,,,,,,,,,,,,,,,,,,,,,,,,,,,,,,,,,,,,,,,,,,,,,,,,,,,,,,,,,,,,,,,,,,,,,,,,,,,,,,,,,,,,,,,,,,,,,,,,,,,,,,,,,,,,,,,,,,,,,,,,,,
,,5c5862c74339fd0001a8a41a,2024-02-18_20h12.16.345,kallum_motion_pilot,2023.2.2,Win32,58.82352941,5c5862c74339fd0001a8a41a,65d2b6c8f2eece985d8e374c,65d2b8eefe7a391178aea35a,0.039,0.039,0,31,31,118,1,eightsix,,,,,,,,,,,,,,,,,,,,,,,,,,,,,,,,,,,,,,,,,,,,,,,,,,,,,,,,,,,,,,,,,,,,,,,,,,,,,,,,,,,,,,,,,,,,,,,,,,,,,,,,,,,,,,,,,,,,,,,,,,,,,,,,,,,,,,,,,
,,5c5862c74339fd0001a8a41a,2024-02-18_20h12.16.345,kallum_motion_pilot,2023.2.2,Win32,58.82352941,5c5862c74339fd0001a8a41a,65d2b6c8f2eece985d8e374c,65d2b8eefe7a391178aea35a,0.039,0.039,0,32,32,106,1,sixfive,,,,,,,,,,,,,,,,,,,,,,,,,,,,,,,,,,,,,,,,,,,,,,,,,,,,,,,,,,,,,,,,,,,,,,,,,,,,,,,,,,,,,,,,,,,,,,,,,,,,,,,,,,,,,,,,,,,,,,,,,,,,,,,,,,,,,,,,,
,,5c5862c74339fd0001a8a41a,2024-02-18_20h12.16.345,kallum_motion_pilot,2023.2.2,Win32,58.82352941,5c5862c74339fd0001a8a41a,65d2b6c8f2eece985d8e374c,65d2b8eefe7a391178aea35a,0.039,0.039,0,33,33,4,1,threeone,,,,,,,,,,,,,,,,,,,,,,,,,,,,,,,,,,,,,,,,,,,,,,,,,,,,,,,,,,,,,,,,,,,,,,,,,,,,,,,,,,,,,,,,,,,,,,,,,,,,,,,,,,,,,,,,,,,,,,,,,,,,,,,,,,,,,,,,,
,,5c5862c74339fd0001a8a41a,2024-02-18_20h12.16.345,kallum_motion_pilot,2023.2.2,Win32,58.82352941,5c5862c74339fd0001a8a41a,65d2b6c8f2eece985d8e374c,65d2b8eefe7a391178aea35a,0.039,0.039,0,34,34,80,1,fivesix,,,,,,,,,,,,,,,,,,,,,,,,,,,,,,,,,,,,,,,,,,,,,,,,,,,,,,,,,,,,,,,,,,,,,,,,,,,,,,,,,,,,,,,,,,,,,,,,,,,,,,,,,,,,,,,,,,,,,,,,,,,,,,,,,,,,,,,,,
,,5c5862c74339fd0001a8a41a,2024-02-18_20h12.16.345,kallum_motion_pilot,2023.2.2,Win32,58.82352941,5c5862c74339fd0001a8a41a,65d2b6c8f2eece985d8e374c,65d2b8eefe7a391178aea35a,0.039,0.039,0,35,35,38,1,fourtwo,,,,,,,,,,,,,,,,,,,,,,,,,,,,,,,,,,,,,,,,,,,,,,,,,,,,,,,,,,,,,,,,,,,,,,,,,,,,,,,,,,,,,,,,,,,,,,,,,,,,,,,,,,,,,,,,,,,,,,,,,,,,,,,,,,,,,,,,,
,,5c5862c74339fd0001a8a41a,2024-02-18_20h12.16.345,kallum_motion_pilot,2023.2.2,Win32,58.82352941,5c5862c74339fd0001a8a41a,65d2b6c8f2eece985d8e374c,65d2b8eefe7a391178aea35a,0.04,0.04,0,36,36,35,1,twofour,,,,,,,,,,,,,,,,,,,,,,,,,,,,,,,,,,,,,,,,,,,,,,,,,,,,,,,,,,,,,,,,,,,,,,,,,,,,,,,,,,,,,,,,,,,,,,,,,,,,,,,,,,,,,,,,,,,,,,,,,,,,,,,,,,,,,,,,,
,,5c5862c74339fd0001a8a41a,2024-02-18_20h12.16.345,kallum_motion_pilot,2023.2.2,Win32,58.82352941,5c5862c74339fd0001a8a41a,65d2b6c8f2eece985d8e374c,65d2b8eefe7a391178aea35a,0.04,0.04,0,37,37,50,1,twoone,,,,,,,,,,,,,,,,,,,,,,,,,,,,,,,,,,,,,,,,,,,,,,,,,,,,,,,,,,,,,,,,,,,,,,,,,,,,,,,,,,,,,,,,,,,,,,,,,,,,,,,,,,,,,,,,,,,,,,,,,,,,,,,,,,,,,,,,,
,,5c5862c74339fd0001a8a41a,2024-02-18_20h12.16.345,kallum_motion_pilot,2023.2.2,Win32,58.82352941,5c5862c74339fd0001a8a41a,65d2b6c8f2eece985d8e374c,65d2b8eefe7a391178aea35a,0.04,0.04,0,38,38,8,1,onetwo,,,,,,,,,,,,,,,,,,,,,,,,,,,,,,,,,,,,,,,,,,,,,,,,,,,,,,,,,,,,,,,,,,,,,,,,,,,,,,,,,,,,,,,,,,,,,,,,,,,,,,,,,,,,,,,,,,,,,,,,,,,,,,,,,,,,,,,,,
,,5c5862c74339fd0001a8a41a,2024-02-18_20h12.16.345,kallum_motion_pilot,2023.2.2,Win32,58.82352941,5c5862c74339fd0001a8a41a,65d2b6c8f2eece985d8e374c,65d2b8eefe7a391178aea35a,0.04,0.04,0,39,39,36,1,threeone,,,,,,,,,,,,,,,,,,,,,,,,,,,,,,,,,,,,,,,,,,,,,,,,,,,,,,,,,,,,,,,,,,,,,,,,,,,,,,,,,,,,,,,,,,,,,,,,,,,,,,,,,,,,,,,,,,,,,,,,,,,,,,,,,,,,,,,,,
,,5c5862c74339fd0001a8a41a,2024-02-18_20h12.16.345,kallum_motion_pilot,2023.2.2,Win32,58.82352941,5c5862c74339fd0001a8a41a,65d2b6c8f2eece985d8e374c,65d2b8eefe7a391178aea35a,0.041,0.041,0,40,40,17,1,onethree,,,,,,,,,,,,,,,,,,,,,,,,,,,,,,,,,,,,,,,,,,,,,,,,,,,,,,,,,,,,,,,,,,,,,,,,,,,,,,,,,,,,,,,,,,,,,,,,,,,,,,,,,,,,,,,,,,,,,,,,,,,,,,,,,,,,,,,,,
,,5c5862c74339fd0001a8a41a,2024-02-18_20h12.16.345,kallum_motion_pilot,2023.2.2,Win32,58.82352941,5c5862c74339fd0001a8a41a,65d2b6c8f2eece985d8e374c,65d2b8eefe7a391178aea35a,0.041,0.041,0,41,41,68,1,threeone,,,,,,,,,,,,,,,,,,,,,,,,,,,,,,,,,,,,,,,,,,,,,,,,,,,,,,,,,,,,,,,,,,,,,,,,,,,,,,,,,,,,,,,,,,,,,,,,,,,,,,,,,,,,,,,,,,,,,,,,,,,,,,,,,,,,,,,,,
,,5c5862c74339fd0001a8a41a,2024-02-18_20h12.16.345,kallum_motion_pilot,2023.2.2,Win32,58.82352941,5c5862c74339fd0001a8a41a,65d2b6c8f2eece985d8e374c,65d2b8eefe7a391178aea35a,0.041,0.041,0,42,42,96,1,fivesix,,,,,,,,,,,,,,,,,,,,,,,,,,,,,,,,,,,,,,,,,,,,,,,,,,,,,,,,,,,,,,,,,,,,,,,,,,,,,,,,,,,,,,,,,,,,,,,,,,,,,,,,,,,,,,,,,,,,,,,,,,,,,,,,,,,,,,,,,
,,5c5862c74339fd0001a8a41a,2024-02-18_20h12.16.345,kallum_motion_pilot,2023.2.2,Win32,58.82352941,5c5862c74339fd0001a8a41a,65d2b6c8f2eece985d8e374c,65d2b8eefe7a391178aea35a,0.041,0.041,0,43,43,24,1,onetwo,,,,,,,,,,,,,,,,,,,,,,,,,,,,,,,,,,,,,,,,,,,,,,,,,,,,,,,,,,,,,,,,,,,,,,,,,,,,,,,,,,,,,,,,,,,,,,,,,,,,,,,,,,,,,,,,,,,,,,,,,,,,,,,,,,,,,,,,,
,,5c5862c74339fd0001a8a41a,2024-02-18_20h12.16.345,kallum_motion_pilot,2023.2.2,Win32,58.82352941,5c5862c74339fd0001a8a41a,65d2b6c8f2eece985d8e374c,65d2b8eefe7a391178aea35a,0.041,0.041,0,44,44,67,1,twofour,,,,,,,,,,,,,,,,,,,,,,,,,,,,,,,,,,,,,,,,,,,,,,,,,,,,,,,,,,,,,,,,,,,,,,,,,,,,,,,,,,,,,,,,,,,,,,,,,,,,,,,,,,,,,,,,,,,,,,,,,,,,,,,,,,,,,,,,,
,,5c5862c74339fd0001a8a41a,2024-02-18_20h12.16.345,kallum_motion_pilot,2023.2.2,Win32,58.82352941,5c5862c74339fd0001a8a41a,65d2b6c8f2eece985d8e374c,65d2b8eefe7a391178aea35a,0.041,0.041,0,45,45,22,1,fourtwo,,,,,,,,,,,,,,,,,,,,,,,,,,,,,,,,,,,,,,,,,,,,,,,,,,,,,,,,,,,,,,,,,,,,,,,,,,,,,,,,,,,,,,,,,,,,,,,,,,,,,,,,,,,,,,,,,,,,,,,,,,,,,,,,,,,,,,,,,
,,5c5862c74339fd0001a8a41a,2024-02-18_20h12.16.345,kallum_motion_pilot,2023.2.2,Win32,58.82352941,5c5862c74339fd0001a8a41a,65d2b6c8f2eece985d8e374c,65d2b8eefe7a391178aea35a,0.041,0.041,0,46,46,26,1,twoone,,,,,,,,,,,,,,,,,,,,,,,,,,,,,,,,,,,,,,,,,,,,,,,,,,,,,,,,,,,,,,,,,,,,,,,,,,,,,,,,,,,,,,,,,,,,,,,,,,,,,,,,,,,,,,,,,,,,,,,,,,,,,,,,,,,,,,,,,
,,5c5862c74339fd0001a8a41a,2024-02-18_20h12.16.345,kallum_motion_pilot,2023.2.2,Win32,58.82352941,5c5862c74339fd0001a8a41a,65d2b6c8f2eece985d8e374c,65d2b8eefe7a391178aea35a,0.041,0.041,0,47,47,103,1,eightseven,,,,,,,,,,,,,,,,,,,,,,,,,,,,,,,,,,,,,,,,,,,,,,,,,,,,,,,,,,,,,,,,,,,,,,,,,,,,,,,,,,,,,,,,,,,,,,,,,,,,,,,,,,,,,,,,,,,,,,,,,,,,,,,,,,,,,,,,,
,,5c5862c74339fd0001a8a41a,2024-02-18_20h12.16.345,kallum_motion_pilot,2023.2.2,Win32,58.82352941,5c5862c74339fd0001a8a41a,65d2b6c8f2eece985d8e374c,65d2b8eefe7a391178aea35a,0.042,0.042,0,48,48,1,1,onethree,,,,,,,,,,,,,,,,,,,,,,,,,,,,,,,,,,,,,,,,,,,,,,,,,,,,,,,,,,,,,,,,,,,,,,,,,,,,,,,,,,,,,,,,,,,,,,,,,,,,,,,,,,,,,,,,,,,,,,,,,,,,,,,,,,,,,,,,,
,,5c5862c74339fd0001a8a41a,2024-02-18_20h12.16.345,kallum_motion_pilot,2023.2.2,Win32,58.82352941,5c5862c74339fd0001a8a41a,65d2b6c8f2eece985d8e374c,65d2b8eefe7a391178aea35a,0.042,0.042,0,49,49,57,1,onethree,,,,,,,,,,,,,,,,,,,,,,,,,,,,,,,,,,,,,,,,,,,,,,,,,,,,,,,,,,,,,,,,,,,,,,,,,,,,,,,,,,,,,,,,,,,,,,,,,,,,,,,,,,,,,,,,,,,,,,,,,,,,,,,,,,,,,,,,,
,,5c5862c74339fd0001a8a41a,2024-02-18_20h12.16.345,kallum_motion_pilot,2023.2.2,Win32,58.82352941,5c5862c74339fd0001a8a41a,65d2b6c8f2eece985d8e374c,65d2b8eefe7a391178aea35a,0.042,0.042,0,50,50,90,1,sixfive,,,,,,,,,,,,,,,,,,,,,,,,,,,,,,,,,,,,,,,,,,,,,,,,,,,,,,,,,,,,,,,,,,,,,,,,,,,,,,,,,,,,,,,,,,,,,,,,,,,,,,,,,,,,,,,,,,,,,,,,,,,,,,,,,,,,,,,,,
,,5c5862c74339fd0001a8a41a,2024-02-18_20h12.16.345,kallum_motion_pilot,2023.2.2,Win32,58.82352941,5c5862c74339fd0001a8a41a,65d2b6c8f2eece985d8e374c,65d2b8eefe7a391178aea35a,0.042,0.043,0,51,51,112,1,fivesix,,,,,,,,,,,,,,,,,,,,,,,,,,,,,,,,,,,,,,,,,,,,,,,,,,,,,,,,,,,,,,,,,,,,,,,,,,,,,,,,,,,,,,,,,,,,,,,,,,,,,,,,,,,,,,,,,,,,,,,,,,,,,,,,,,,,,,,,,
,,5c5862c74339fd0001a8a41a,2024-02-18_20h12.16.345,kallum_motion_pilot,2023.2.2,Win32,58.82352941,5c5862c74339fd0001a8a41a,65d2b6c8f2eece985d8e374c,65d2b8eefe7a391178aea35a,0.043,0.043,0,52,52,116,1,sevenfive,,,,,,,,,,,,,,,,,,,,,,,,,,,,,,,,,,,,,,,,,,,,,,,,,,,,,,,,,,,,,,,,,,,,,,,,,,,,,,,,,,,,,,,,,,,,,,,,,,,,,,,,,,,,,,,,,,,,,,,,,,,,,,,,,,,,,,,,,
,,5c5862c74339fd0001a8a41a,2024-02-18_20h12.16.345,kallum_motion_pilot,2023.2.2,Win32,58.82352941,5c5862c74339fd0001a8a41a,65d2b6c8f2eece985d8e374c,65d2b8eefe7a391178aea35a,0.043,0.043,0,53,53,107,1,sixeight,,,,,,,,,,,,,,,,,,,,,,,,,,,,,,,,,,,,,,,,,,,,,,,,,,,,,,,,,,,,,,,,,,,,,,,,,,,,,,,,,,,,,,,,,,,,,,,,,,,,,,,,,,,,,,,,,,,,,,,,,,,,,,,,,,,,,,,,,
,,5c5862c74339fd0001a8a41a,2024-02-18_20h12.16.345,kallum_motion_pilot,2023.2.2,Win32,58.82352941,5c5862c74339fd0001a8a41a,65d2b6c8f2eece985d8e374c,65d2b8eefe7a391178aea35a,0.043,0.043,0,54,54,39,1,fourthree,,,,,,,,,,,,,,,,,,,,,,,,,,,,,,,,,,,,,,,,,,,,,,,,,,,,,,,,,,,,,,,,,,,,,,,,,,,,,,,,,,,,,,,,,,,,,,,,,,,,,,,,,,,,,,,,,,,,,,,,,,,,,,,,,,,,,,,,,
,,5c5862c74339fd0001a8a41a,2024-02-18_20h12.16.345,kallum_motion_pilot,2023.2.2,Win32,58.82352941,5c5862c74339fd0001a8a41a,65d2b6c8f2eece985d8e374c,65d2b8eefe7a391178aea35a,0.043,0.043,0,55,55,70,1,fourtwo,,,,,,,,,,,,,,,,,,,,,,,,,,,,,,,,,,,,,,,,,,,,,,,,,,,,,,,,,,,,,,,,,,,,,,,,,,,,,,,,,,,,,,,,,,,,,,,,,,,,,,,,,,,,,,,,,,,,,,,,,,,,,,,,,,,,,,,,,
,,5c5862c74339fd0001a8a41a,2024-02-18_20h12.16.345,kallum_motion_pilot,2023.2.2,Win32,58.82352941,5c5862c74339fd0001a8a41a,65d2b6c8f2eece985d8e374c,65d2b8eefe7a391178aea35a,0.043,0.043,0,56,56,87,1,eightseven,,,,,,,,,,,,,,,,,,,,,,,,,,,,,,,,,,,,,,,,,,,,,,,,,,,,,,,,,,,,,,,,,,,,,,,,,,,,,,,,,,,,,,,,,,,,,,,,,,,,,,,,,,,,,,,,,,,,,,,,,,,,,,,,,,,,,,,,,
,,5c5862c74339fd0001a8a41a,2024-02-18_20h12.16.345,kallum_motion_pilot,2023.2.2,Win32,58.82352941,5c5862c74339fd0001a8a41a,65d2b6c8f2eece985d8e374c,65d2b8eefe7a391178aea35a,0.043,0.043,0,57,57,65,1,onethree,,,,,,,,,,,,,,,,,,,,,,,,,,,,,,,,,,,,,,,,,,,,,,,,,,,,,,,,,,,,,,,,,,,,,,,,,,,,,,,,,,,,,,,,,,,,,,,,,,,,,,,,,,,,,,,,,,,,,,,,,,,,,,,,,,,,,,,,,
,,5c5862c74339fd0001a8a41a,2024-02-18_20h12.16.345,kallum_motion_pilot,2023.2.2,Win32,58.82352941,5c5862c74339fd0001a8a41a,65d2b6c8f2eece985d8e374c,65d2b8eefe7a391178aea35a,0.043,0.043,0,58,58,49,1,onethree,,,,,,,,,,,,,,,,,,,,,,,,,,,,,,,,,,,,,,,,,,,,,,,,,,,,,,,,,,,,,,,,,,,,,,,,,,,,,,,,,,,,,,,,,,,,,,,,,,,,,,,,,,,,,,,,,,,,,,,,,,,,,,,,,,,,,,,,,
,,5c5862c74339fd0001a8a41a,2024-02-18_20h12.16.345,kallum_motion_pilot,2023.2.2,Win32,58.82352941,5c5862c74339fd0001a8a41a,65d2b6c8f2eece985d8e374c,65d2b8eefe7a391178aea35a,0.043,0.043,0,59,59,105,1,fiveseven,,,,,,,,,,,,,,,,,,,,,,,,,,,,,,,,,,,,,,,,,,,,,,,,,,,,,,,,,,,,,,,,,,,,,,,,,,,,,,,,,,,,,,,,,,,,,,,,,,,,,,,,,,,,,,,,,,,,,,,,,,,,,,,,,,,,,,,,,
,,5c5862c74339fd0001a8a41a,2024-02-18_20h12.16.345,kallum_motion_pilot,2023.2.2,Win32,58.82352941,5c5862c74339fd0001a8a41a,65d2b6c8f2eece985d8e374c,65d2b8eefe7a391178aea35a,0.043,0.043,0,60,60,104,1,fivesix,,,,,,,,,,,,,,,,,,,,,,,,,,,,,,,,,,,,,,,,,,,,,,,,,,,,,,,,,,,,,,,,,,,,,,,,,,,,,,,,,,,,,,,,,,,,,,,,,,,,,,,,,,,,,,,,,,,,,,,,,,,,,,,,,,,,,,,,,
,,5c5862c74339fd0001a8a41a,2024-02-18_20h12.16.345,kallum_motion_pilot,2023.2.2,Win32,58.82352941,5c5862c74339fd0001a8a41a,65d2b6c8f2eece985d8e374c,65d2b8eefe7a391178aea35a,0.043,0.043,0,61,61,58,1,twoone,,,,,,,,,,,,,,,,,,,,,,,,,,,,,,,,,,,,,,,,,,,,,,,,,,,,,,,,,,,,,,,,,,,,,,,,,,,,,,,,,,,,,,,,,,,,,,,,,,,,,,,,,,,,,,,,,,,,,,,,,,,,,,,,,,,,,,,,,
,,5c5862c74339fd0001a8a41a,2024-02-18_20h12.16.345,kallum_motion_pilot,2023.2.2,Win32,58.82352941,5c5862c74339fd0001a8a41a,65d2b6c8f2eece985d8e374c,65d2b8eefe7a391178aea35a,0.043,0.044,0,62,62,48,1,onetwo,,,,,,,,,,,,,,,,,,,,,,,,,,,,,,,,,,,,,,,,,,,,,,,,,,,,,,,,,,,,,,,,,,,,,,,,,,,,,,,,,,,,,,,,,,,,,,,,,,,,,,,,,,,,,,,,,,,,,,,,,,,,,,,,,,,,,,,,,
,,5c5862c74339fd0001a8a41a,2024-02-18_20h12.16.345,kallum_motion_pilot,2023.2.2,Win32,58.82352941,5c5862c74339fd0001a8a41a,65d2b6c8f2eece985d8e374c,65d2b8eefe7a391178aea35a,0.044,0.044,0,63,63,136,1,fivesix,,,,,,,,,,,,,,,,,,,,,,,,,,,,,,,,,,,,,,,,,,,,,,,,,,,,,,,,,,,,,,,,,,,,,,,,,,,,,,,,,,,,,,,,,,,,,,,,,,,,,,,,,,,,,,,,,,,,,,,,,,,,,,,,,,,,,,,,,
,,5c5862c74339fd0001a8a41a,2024-02-18_20h12.16.345,kallum_motion_pilot,2023.2.2,Win32,58.82352941,5c5862c74339fd0001a8a41a,65d2b6c8f2eece985d8e374c,65d2b8eefe7a391178aea35a,0.044,0.044,0,64,64,154,1,sixfive,,,,,,,,,,,,,,,,,,,,,,,,,,,,,,,,,,,,,,,,,,,,,,,,,,,,,,,,,,,,,,,,,,,,,,,,,,,,,,,,,,,,,,,,,,,,,,,,,,,,,,,,,,,,,,,,,,,,,,,,,,,,,,,,,,,,,,,,,
,,5c5862c74339fd0001a8a41a,2024-02-18_20h12.16.345,kallum_motion_pilot,2023.2.2,Win32,58.82352941,5c5862c74339fd0001a8a41a,65d2b6c8f2eece985d8e374c,65d2b8eefe7a391178aea35a,0.044,0.044,0,65,65,60,1,threeone,,,,,,,,,,,,,,,,,,,,,,,,,,,,,,,,,,,,,,,,,,,,,,,,,,,,,,,,,,,,,,,,,,,,,,,,,,,,,,,,,,,,,,,,,,,,,,,,,,,,,,,,,,,,,,,,,,,,,,,,,,,,,,,,,,,,,,,,,
,,5c5862c74339fd0001a8a41a,2024-02-18_20h12.16.345,kallum_motion_pilot,2023.2.2,Win32,58.82352941,5c5862c74339fd0001a8a41a,65d2b6c8f2eece985d8e374c,65d2b8eefe7a391178aea35a,0.044,0.044,0,66,66,71,1,fourthree,,,,,,,,,,,,,,,,,,,,,,,,,,,,,,,,,,,,,,,,,,,,,,,,,,,,,,,,,,,,,,,,,,,,,,,,,,,,,,,,,,,,,,,,,,,,,,,,,,,,,,,,,,,,,,,,,,,,,,,,,,,,,,,,,,,,,,,,,
,,5c5862c74339fd0001a8a41a,2024-02-18_20h12.16.345,kallum_motion_pilot,2023.2.2,Win32,58.82352941,5c5862c74339fd0001a8a41a,65d2b6c8f2eece985d8e374c,65d2b8eefe7a391178aea35a,0.045,0.045,0,67,67,18,1,twoone,,,,,,,,,,,,,,,,,,,,,,,,,,,,,,,,,,,,,,,,,,,,,,,,,,,,,,,,,,,,,,,,,,,,,,,,,,,,,,,,,,,,,,,,,,,,,,,,,,,,,,,,,,,,,,,,,,,,,,,,,,,,,,,,,,,,,,,,,
,,5c5862c74339fd0001a8a41a,2024-02-18_20h12.16.345,kallum_motion_pilot,2023.2.2,Win32,58.82352941,5c5862c74339fd0001a8a41a,65d2b6c8f2eece985d8e374c,65d2b8eefe7a391178aea35a,0.045,0.045,0,68,68,155,1,sixeight,,,,,,,,,,,,,,,,,,,,,,,,,,,,,,,,,,,,,,,,,,,,,,,,,,,,,,,,,,,,,,,,,,,,,,,,,,,,,,,,,,,,,,,,,,,,,,,,,,,,,,,,,,,,,,,,,,,,,,,,,,,,,,,,,,,,,,,,,
,,5c5862c74339fd0001a8a41a,2024-02-18_20h12.16.345,kallum_motion_pilot,2023.2.2,Win32,58.82352941,5c5862c74339fd0001a8a41a,65d2b6c8f2eece985d8e374c,65d2b8eefe7a391178aea35a,0.045,0.045,0,69,69,25,1,onethree,,,,,,,,,,,,,,,,,,,,,,,,,,,,,,,,,,,,,,,,,,,,,,,,,,,,,,,,,,,,,,,,,,,,,,,,,,,,,,,,,,,,,,,,,,,,,,,,,,,,,,,,,,,,,,,,,,,,,,,,,,,,,,,,,,,,,,,,,
,,5c5862c74339fd0001a8a41a,2024-02-18_20h12.16.345,kallum_motion_pilot,2023.2.2,Win32,58.82352941,5c5862c74339fd0001a8a41a,65d2b6c8f2eece985d8e374c,65d2b8eefe7a391178aea35a,0.046,0.046,0,70,70,129,1,fiveseven,,,,,,,,,,,,,,,,,,,,,,,,,,,,,,,,,,,,,,,,,,,,,,,,,,,,,,,,,,,,,,,,,,,,,,,,,,,,,,,,,,,,,,,,,,,,,,,,,,,,,,,,,,,,,,,,,,,,,,,,,,,,,,,,,,,,,,,,,
,,5c5862c74339fd0001a8a41a,2024-02-18_20h12.16.345,kallum_motion_pilot,2023.2.2,Win32,58.82352941,5c5862c74339fd0001a8a41a,65d2b6c8f2eece985d8e374c,65d2b8eefe7a391178aea35a,0.046,0.046,0,71,71,16,1,onetwo,,,,,,,,,,,,,,,,,,,,,,,,,,,,,,,,,,,,,,,,,,,,,,,,,,,,,,,,,,,,,,,,,,,,,,,,,,,,,,,,,,,,,,,,,,,,,,,,,,,,,,,,,,,,,,,,,,,,,,,,,,,,,,,,,,,,,,,,,
,,5c5862c74339fd0001a8a41a,2024-02-18_20h12.16.345,kallum_motion_pilot,2023.2.2,Win32,58.82352941,5c5862c74339fd0001a8a41a,65d2b6c8f2eece985d8e374c,65d2b8eefe7a391178aea35a,0.046,0.046,0,72,72,43,1,twofour,,,,,,,,,,,,,,,,,,,,,,,,,,,,,,,,,,,,,,,,,,,,,,,,,,,,,,,,,,,,,,,,,,,,,,,,,,,,,,,,,,,,,,,,,,,,,,,,,,,,,,,,,,,,,,,,,,,,,,,,,,,,,,,,,,,,,,,,,
,,5c5862c74339fd0001a8a41a,2024-02-18_20h12.16.345,kallum_motion_pilot,2023.2.2,Win32,58.82352941,5c5862c74339fd0001a8a41a,65d2b6c8f2eece985d8e374c,65d2b8eefe7a391178aea35a,0.046,0.046,0,73,73,100,1,sevenfive,,,,,,,,,,,,,,,,,,,,,,,,,,,,,,,,,,,,,,,,,,,,,,,,,,,,,,,,,,,,,,,,,,,,,,,,,,,,,,,,,,,,,,,,,,,,,,,,,,,,,,,,,,,,,,,,,,,,,,,,,,,,,,,,,,,,,,,,,
,,5c5862c74339fd0001a8a41a,2024-02-18_20h12.16.345,kallum_motion_pilot,2023.2.2,Win32,58.82352941,5c5862c74339fd0001a8a41a,65d2b6c8f2eece985d8e374c,65d2b8eefe7a391178aea35a,0.046,0.046,0,74,74,142,1,eightsix,,,,,,,,,,,,,,,,,,,,,,,,,,,,,,,,,,,,,,,,,,,,,,,,,,,,,,,,,,,,,,,,,,,,,,,,,,,,,,,,,,,,,,,,,,,,,,,,,,,,,,,,,,,,,,,,,,,,,,,,,,,,,,,,,,,,,,,,,
,,5c5862c74339fd0001a8a41a,2024-02-18_20h12.16.345,kallum_motion_pilot,2023.2.2,Win32,58.82352941,5c5862c74339fd0001a8a41a,65d2b6c8f2eece985d8e374c,65d2b8eefe7a391178aea35a,0.046,0.046,0,75,75,89,1,fiveseven,,,,,,,,,,,,,,,,,,,,,,,,,,,,,,,,,,,,,,,,,,,,,,,,,,,,,,,,,,,,,,,,,,,,,,,,,,,,,,,,,,,,,,,,,,,,,,,,,,,,,,,,,,,,,,,,,,,,,,,,,,,,,,,,,,,,,,,,,
,,5c5862c74339fd0001a8a41a,2024-02-18_20h12.16.345,kallum_motion_pilot,2023.2.2,Win32,58.82352941,5c5862c74339fd0001a8a41a,65d2b6c8f2eece985d8e374c,65d2b8eefe7a391178aea35a,0.046,0.046,0,76,76,33,1,onethree,,,,,,,,,,,,,,,,,,,,,,,,,,,,,,,,,,,,,,,,,,,,,,,,,,,,,,,,,,,,,,,,,,,,,,,,,,,,,,,,,,,,,,,,,,,,,,,,,,,,,,,,,,,,,,,,,,,,,,,,,,,,,,,,,,,,,,,,,
,,5c5862c74339fd0001a8a41a,2024-02-18_20h12.16.345,kallum_motion_pilot,2023.2.2,Win32,58.82352941,5c5862c74339fd0001a8a41a,65d2b6c8f2eece985d8e374c,65d2b8eefe7a391178aea35a,0.046,0.046,0,77,77,19,1,twofour,,,,,,,,,,,,,,,,,,,,,,,,,,,,,,,,,,,,,,,,,,,,,,,,,,,,,,,,,,,,,,,,,,,,,,,,,,,,,,,,,,,,,,,,,,,,,,,,,,,,,,,,,,,,,,,,,,,,,,,,,,,,,,,,,,,,,,,,,
,,5c5862c74339fd0001a8a41a,2024-02-18_20h12.16.345,kallum_motion_pilot,2023.2.2,Win32,58.82352941,5c5862c74339fd0001a8a41a,65d2b6c8f2eece985d8e374c,65d2b8eefe7a391178aea35a,0.046,0.046,0,78,78,134,1,eightsix,,,,,,,,,,,,,,,,,,,,,,,,,,,,,,,,,,,,,,,,,,,,,,,,,,,,,,,,,,,,,,,,,,,,,,,,,,,,,,,,,,,,,,,,,,,,,,,,,,,,,,,,,,,,,,,,,,,,,,,,,,,,,,,,,,,,,,,,,
,,5c5862c74339fd0001a8a41a,2024-02-18_20h12.16.345,kallum_motion_pilot,2023.2.2,Win32,58.82352941,5c5862c74339fd0001a8a41a,65d2b6c8f2eece985d8e374c,65d2b8eefe7a391178aea35a,0.046,0.046,0,79,79,12,1,threeone,,,,,,,,,,,,,,,,,,,,,,,,,,,,,,,,,,,,,,,,,,,,,,,,,,,,,,,,,,,,,,,,,,,,,,,,,,,,,,,,,,,,,,,,,,,,,,,,,,,,,,,,,,,,,,,,,,,,,,,,,,,,,,,,,,,,,,,,,
,,5c5862c74339fd0001a8a41a,2024-02-18_20h12.16.345,kallum_motion_pilot,2023.2.2,Win32,58.82352941,5c5862c74339fd0001a8a41a,65d2b6c8f2eece985d8e374c,65d2b8eefe7a391178aea35a,0.046,0.047,0,80,80,75,1,twofour,,,,,,,,,,,,,,,,,,,,,,,,,,,,,,,,,,,,,,,,,,,,,,,,,,,,,,,,,,,,,,,,,,,,,,,,,,,,,,,,,,,,,,,,,,,,,,,,,,,,,,,,,,,,,,,,,,,,,,,,,,,,,,,,,,,,,,,,,
,,5c5862c74339fd0001a8a41a,2024-02-18_20h12.16.345,kallum_motion_pilot,2023.2.2,Win32,58.82352941,5c5862c74339fd0001a8a41a,65d2b6c8f2eece985d8e374c,65d2b8eefe7a391178aea35a,0.047,0.047,0,81,81,27,1,twofour,,,,,,,,,,,,,,,,,,,,,,,,,,,,,,,,,,,,,,,,,,,,,,,,,,,,,,,,,,,,,,,,,,,,,,,,,,,,,,,,,,,,,,,,,,,,,,,,,,,,,,,,,,,,,,,,,,,,,,,,,,,,,,,,,,,,,,,,,
,,5c5862c74339fd0001a8a41a,2024-02-18_20h12.16.345,kallum_motion_pilot,2023.2.2,Win32,58.82352941,5c5862c74339fd0001a8a41a,65d2b6c8f2eece985d8e374c,65d2b8eefe7a391178aea35a,0.047,0.047,0,82,82,109,1,seveneight,,,,,,,,,,,,,,,,,,,,,,,,,,,,,,,,,,,,,,,,,,,,,,,,,,,,,,,,,,,,,,,,,,,,,,,,,,,,,,,,,,,,,,,,,,,,,,,,,,,,,,,,,,,,,,,,,,,,,,,,,,,,,,,,,,,,,,,,,
,,5c5862c74339fd0001a8a41a,2024-02-18_20h12.16.345,kallum_motion_pilot,2023.2.2,Win32,58.82352941,5c5862c74339fd0001a8a41a,65d2b6c8f2eece985d8e374c,65d2b8eefe7a391178aea35a,0.047,0.047,0,83,83,64,1,onetwo,,,,,,,,,,,,,,,,,,,,,,,,,,,,,,,,,,,,,,,,,,,,,,,,,,,,,,,,,,,,,,,,,,,,,,,,,,,,,,,,,,,,,,,,,,,,,,,,,,,,,,,,,,,,,,,,,,,,,,,,,,,,,,,,,,,,,,,,,
,,5c5862c74339fd0001a8a41a,2024-02-18_20h12.16.345,kallum_motion_pilot,2023.2.2,Win32,58.82352941,5c5862c74339fd0001a8a41a,65d2b6c8f2eece985d8e374c,65d2b8eefe7a391178aea35a,0.047,0.047,0,84,84,86,1,eightsix,,,,,,,,,,,,,,,,,,,,,,,,,,,,,,,,,,,,,,,,,,,,,,,,,,,,,,,,,,,,,,,,,,,,,,,,,,,,,,,,,,,,,,,,,,,,,,,,,,,,,,,,,,,,,,,,,,,,,,,,,,,,,,,,,,,,,,,,,
,,5c5862c74339fd0001a8a41a,2024-02-18_20h12.16.345,kallum_motion_pilot,2023.2.2,Win32,58.82352941,5c5862c74339fd0001a8a41a,65d2b6c8f2eece985d8e374c,65d2b8eefe7a391178aea35a,0.047,0.047,0,85,85,95,1,eightseven,,,,,,,,,,,,,,,,,,,,,,,,,,,,,,,,,,,,,,,,,,,,,,,,,,,,,,,,,,,,,,,,,,,,,,,,,,,,,,,,,,,,,,,,,,,,,,,,,,,,,,,,,,,,,,,,,,,,,,,,,,,,,,,,,,,,,,,,,
,,5c5862c74339fd0001a8a41a,2024-02-18_20h12.16.345,kallum_motion_pilot,2023.2.2,Win32,58.82352941,5c5862c74339fd0001a8a41a,65d2b6c8f2eece985d8e374c,65d2b8eefe7a391178aea35a,0.047,0.047,0,86,86,9,1,onethree,,,,,,,,,,,,,,,,,,,,,,,,,,,,,,,,,,,,,,,,,,,,,,,,,,,,,,,,,,,,,,,,,,,,,,,,,,,,,,,,,,,,,,,,,,,,,,,,,,,,,,,,,,,,,,,,,,,,,,,,,,,,,,,,,,,,,,,,,
,,5c5862c74339fd0001a8a41a,2024-02-18_20h12.16.345,kallum_motion_pilot,2023.2.2,Win32,58.82352941,5c5862c74339fd0001a8a41a,65d2b6c8f2eece985d8e374c,65d2b8eefe7a391178aea35a,0.047,0.047,0,87,87,140,1,sevenfive,,,,,,,,,,,,,,,,,,,,,,,,,,,,,,,,,,,,,,,,,,,,,,,,,,,,,,,,,,,,,,,,,,,,,,,,,,,,,,,,,,,,,,,,,,,,,,,,,,,,,,,,,,,,,,,,,,,,,,,,,,,,,,,,,,,,,,,,,
,,5c5862c74339fd0001a8a41a,2024-02-18_20h12.16.345,kallum_motion_pilot,2023.2.2,Win32,58.82352941,5c5862c74339fd0001a8a41a,65d2b6c8f2eece985d8e374c,65d2b8eefe7a391178aea35a,0.047,0.048,0,88,88,34,1,twoone,,,,,,,,,,,,,,,,,,,,,,,,,,,,,,,,,,,,,,,,,,,,,,,,,,,,,,,,,,,,,,,,,,,,,,,,,,,,,,,,,,,,,,,,,,,,,,,,,,,,,,,,,,,,,,,,,,,,,,,,,,,,,,,,,,,,,,,,,
,,5c5862c74339fd0001a8a41a,2024-02-18_20h12.16.345,kallum_motion_pilot,2023.2.2,Win32,58.82352941,5c5862c74339fd0001a8a41a,65d2b6c8f2eece985d8e374c,65d2b8eefe7a391178aea35a,0.048,0.048,0,89,89,78,1,fourtwo,,,,,,,,,,,,,,,,,,,,,,,,,,,,,,,,,,,,,,,,,,,,,,,,,,,,,,,,,,,,,,,,,,,,,,,,,,,,,,,,,,,,,,,,,,,,,,,,,,,,,,,,,,,,,,,,,,,,,,,,,,,,,,,,,,,,,,,,,
,,5c5862c74339fd0001a8a41a,2024-02-18_20h12.16.345,kallum_motion_pilot,2023.2.2,Win32,58.82352941,5c5862c74339fd0001a8a41a,65d2b6c8f2eece985d8e374c,65d2b8eefe7a391178aea35a,0.048,0.048,0,90,90,32,1,onetwo,,,,,,,,,,,,,,,,,,,,,,,,,,,,,,,,,,,,,,,,,,,,,,,,,,,,,,,,,,,,,,,,,,,,,,,,,,,,,,,,,,,,,,,,,,,,,,,,,,,,,,,,,,,,,,,,,,,,,,,,,,,,,,,,,,,,,,,,,
,,5c5862c74339fd0001a8a41a,2024-02-18_20h12.16.345,kallum_motion_pilot,2023.2.2,Win32,58.82352941,5c5862c74339fd0001a8a41a,65d2b6c8f2eece985d8e374c,65d2b8eefe7a391178aea35a,0.048,0.049,0,91,91,157,1,seveneight,,,,,,,,,,,,,,,,,,,,,,,,,,,,,,,,,,,,,,,,,,,,,,,,,,,,,,,,,,,,,,,,,,,,,,,,,,,,,,,,,,,,,,,,,,,,,,,,,,,,,,,,,,,,,,,,,,,,,,,,,,,,,,,,,,,,,,,,,
,,5c5862c74339fd0001a8a41a,2024-02-18_20h12.16.345,kallum_motion_pilot,2023.2.2,Win32,58.82352941,5c5862c74339fd0001a8a41a,65d2b6c8f2eece985d8e374c,65d2b8eefe7a391178aea35a,0.049,0.049,0,92,92,7,1,fourthree,,,,,,,,,,,,,,,,,,,,,,,,,,,,,,,,,,,,,,,,,,,,,,,,,,,,,,,,,,,,,,,,,,,,,,,,,,,,,,,,,,,,,,,,,,,,,,,,,,,,,,,,,,,,,,,,,,,,,,,,,,,,,,,,,,,,,,,,,
,,5c5862c74339fd0001a8a41a,2024-02-18_20h12.16.345,kallum_motion_pilot,2023.2.2,Win32,58.82352941,5c5862c74339fd0001a8a41a,65d2b6c8f2eece985d8e374c,65d2b8eefe7a391178aea35a,0.049,0.049,0,93,93,115,1,sixeight,,,,,,,,,,,,,,,,,,,,,,,,,,,,,,,,,,,,,,,,,,,,,,,,,,,,,,,,,,,,,,,,,,,,,,,,,,,,,,,,,,,,,,,,,,,,,,,,,,,,,,,,,,,,,,,,,,,,,,,,,,,,,,,,,,,,,,,,,
,,5c5862c74339fd0001a8a41a,2024-02-18_20h12.16.345,kallum_motion_pilot,2023.2.2,Win32,58.82352941,5c5862c74339fd0001a8a41a,65d2b6c8f2eece985d8e374c,65d2b8eefe7a391178aea35a,0.049,0.049,0,94,94,13,1,threefour,,,,,,,,,,,,,,,,,,,,,,,,,,,,,,,,,,,,,,,,,,,,,,,,,,,,,,,,,,,,,,,,,,,,,,,,,,,,,,,,,,,,,,,,,,,,,,,,,,,,,,,,,,,,,,,,,,,,,,,,,,,,,,,,,,,,,,,,,
,,5c5862c74339fd0001a8a41a,2024-02-18_20h12.16.345,kallum_motion_pilot,2023.2.2,Win32,58.82352941,5c5862c74339fd0001a8a41a,65d2b6c8f2eece985d8e374c,65d2b8eefe7a391178aea35a,0.049,0.049,0,95,95,123,1,sixeight,,,,,,,,,,,,,,,,,,,,,,,,,,,,,,,,,,,,,,,,,,,,,,,,,,,,,,,,,,,,,,,,,,,,,,,,,,,,,,,,,,,,,,,,,,,,,,,,,,,,,,,,,,,,,,,,,,,,,,,,,,,,,,,,,,,,,,,,,
,,5c5862c74339fd0001a8a41a,2024-02-18_20h12.16.345,kallum_motion_pilot,2023.2.2,Win32,58.82352941,5c5862c74339fd0001a8a41a,65d2b6c8f2eece985d8e374c,65d2b8eefe7a391178aea35a,0.049,0.05,0,96,96,3,1,twofour,,,,,,,,,,,,,,,,,,,,,,,,,,,,,,,,,,,,,,,,,,,,,,,,,,,,,,,,,,,,,,,,,,,,,,,,,,,,,,,,,,,,,,,,,,,,,,,,,,,,,,,,,,,,,,,,,,,,,,,,,,,,,,,,,,,,,,,,,
,,5c5862c74339fd0001a8a41a,2024-02-18_20h12.16.345,kallum_motion_pilot,2023.2.2,Win32,58.82352941,5c5862c74339fd0001a8a41a,65d2b6c8f2eece985d8e374c,65d2b8eefe7a391178aea35a,0.05,0.05,0,97,97,2,1,twoone,,,,,,,,,,,,,,,,,,,,,,,,,,,,,,,,,,,,,,,,,,,,,,,,,,,,,,,,,,,,,,,,,,,,,,,,,,,,,,,,,,,,,,,,,,,,,,,,,,,,,,,,,,,,,,,,,,,,,,,,,,,,,,,,,,,,,,,,,
,,5c5862c74339fd0001a8a41a,2024-02-18_20h12.16.345,kallum_motion_pilot,2023.2.2,Win32,58.82352941,5c5862c74339fd0001a8a41a,65d2b6c8f2eece985d8e374c,65d2b8eefe7a391178aea35a,0.05,0.05,0,98,98,63,1,fourthree,,,,,,,,,,,,,,,,,,,,,,,,,,,,,,,,,,,,,,,,,,,,,,,,,,,,,,,,,,,,,,,,,,,,,,,,,,,,,,,,,,,,,,,,,,,,,,,,,,,,,,,,,,,,,,,,,,,,,,,,,,,,,,,,,,,,,,,,,
,,5c5862c74339fd0001a8a41a,2024-02-18_20h12.16.345,kallum_motion_pilot,2023.2.2,Win32,58.82352941,5c5862c74339fd0001a8a41a,65d2b6c8f2eece985d8e374c,65d2b8eefe7a391178aea35a,0.051,0.051,0,99,99,55,1,fourthree,,,,,,,,,,,,,,,,,,,,,,,,,,,,,,,,,,,,,,,,,,,,,,,,,,,,,,,,,,,,,,,,,,,,,,,,,,,,,,,,,,,,,,,,,,,,,,,,,,,,,,,,,,,,,,,,,,,,,,,,,,,,,,,,,,,,,,,,,
,,5c5862c74339fd0001a8a41a,2024-02-18_20h12.16.345,kallum_motion_pilot,2023.2.2,Win32,58.82352941,5c5862c74339fd0001a8a41a,65d2b6c8f2eece985d8e374c,65d2b8eefe7a391178aea35a,0.051,0.051,0,100,100,124,1,sevenfive,,,,,,,,,,,,,,,,,,,,,,,,,,,,,,,,,,,,,,,,,,,,,,,,,,,,,,,,,,,,,,,,,,,,,,,,,,,,,,,,,,,,,,,,,,,,,,,,,,,,,,,,,,,,,,,,,,,,,,,,,,,,,,,,,,,,,,,,,
,,5c5862c74339fd0001a8a41a,2024-02-18_20h12.16.345,kallum_motion_pilot,2023.2.2,Win32,58.82352941,5c5862c74339fd0001a8a41a,65d2b6c8f2eece985d8e374c,65d2b8eefe7a391178aea35a,0.051,0.051,0,101,101,79,1,eightseven,,,,,,,,,,,,,,,,,,,,,,,,,,,,,,,,,,,,,,,,,,,,,,,,,,,,,,,,,,,,,,,,,,,,,,,,,,,,,,,,,,,,,,,,,,,,,,,,,,,,,,,,,,,,,,,,,,,,,,,,,,,,,,,,,,,,,,,,,
,,5c5862c74339fd0001a8a41a,2024-02-18_20h12.16.345,kallum_motion_pilot,2023.2.2,Win32,58.82352941,5c5862c74339fd0001a8a41a,65d2b6c8f2eece985d8e374c,65d2b8eefe7a391178aea35a,0.051,0.051,0,102,102,92,1,sevenfive,,,,,,,,,,,,,,,,,,,,,,,,,,,,,,,,,,,,,,,,,,,,,,,,,,,,,,,,,,,,,,,,,,,,,,,,,,,,,,,,,,,,,,,,,,,,,,,,,,,,,,,,,,,,,,,,,,,,,,,,,,,,,,,,,,,,,,,,,
,,5c5862c74339fd0001a8a41a,2024-02-18_20h12.16.345,kallum_motion_pilot,2023.2.2,Win32,58.82352941,5c5862c74339fd0001a8a41a,65d2b6c8f2eece985d8e374c,65d2b8eefe7a391178aea35a,0.051,0.051,0,103,103,144,1,fivesix,,,,,,,,,,,,,,,,,,,,,,,,,,,,,,,,,,,,,,,,,,,,,,,,,,,,,,,,,,,,,,,,,,,,,,,,,,,,,,,,,,,,,,,,,,,,,,,,,,,,,,,,,,,,,,,,,,,,,,,,,,,,,,,,,,,,,,,,,
,,5c5862c74339fd0001a8a41a,2024-02-18_20h12.16.345,kallum_motion_pilot,2023.2.2,Win32,58.82352941,5c5862c74339fd0001a8a41a,65d2b6c8f2eece985d8e374c,65d2b8eefe7a391178aea35a,0.051,0.051,0,104,104,98,1,sixfive,,,,,,,,,,,,,,,,,,,,,,,,,,,,,,,,,,,,,,,,,,,,,,,,,,,,,,,,,,,,,,,,,,,,,,,,,,,,,,,,,,,,,,,,,,,,,,,,,,,,,,,,,,,,,,,,,,,,,,,,,,,,,,,,,,,,,,,,,
,,5c5862c74339fd0001a8a41a,2024-02-18_20h12.16.345,kallum_motion_pilot,2023.2.2,Win32,58.82352941,5c5862c74339fd0001a8a41a,65d2b6c8f2eece985d8e374c,65d2b8eefe7a391178aea35a,0.051,0.051,0,105,105,59,1,twofour,,,,,,,,,,,,,,,,,,,,,,,,,,,,,,,,,,,,,,,,,,,,,,,,,,,,,,,,,,,,,,,,,,,,,,,,,,,,,,,,,,,,,,,,,,,,,,,,,,,,,,,,,,,,,,,,,,,,,,,,,,,,,,,,,,,,,,,,,
,,5c5862c74339fd0001a8a41a,2024-02-18_20h12.16.345,kallum_motion_pilot,2023.2.2,Win32,58.82352941,5c5862c74339fd0001a8a41a,65d2b6c8f2eece985d8e374c,65d2b8eefe7a391178aea35a,0.052,0.052,0,106,106,132,1,sevenfive,,,,,,,,,,,,,,,,,,,,,,,,,,,,,,,,,,,,,,,,,,,,,,,,,,,,,,,,,,,,,,,,,,,,,,,,,,,,,,,,,,,,,,,,,,,,,,,,,,,,,,,,,,,,,,,,,,,,,,,,,,,,,,,,,,,,,,,,,
,,5c5862c74339fd0001a8a41a,2024-02-18_20h12.16.345,kallum_motion_pilot,2023.2.2,Win32,58.82352941,5c5862c74339fd0001a8a41a,65d2b6c8f2eece985d8e374c,65d2b8eefe7a391178aea35a,0.052,0.052,0,107,107,147,1,sixeight,,,,,,,,,,,,,,,,,,,,,,,,,,,,,,,,,,,,,,,,,,,,,,,,,,,,,,,,,,,,,,,,,,,,,,,,,,,,,,,,,,,,,,,,,,,,,,,,,,,,,,,,,,,,,,,,,,,,,,,,,,,,,,,,,,,,,,,,,
,,5c5862c74339fd0001a8a41a,2024-02-18_20h12.16.345,kallum_motion_pilot,2023.2.2,Win32,58.82352941,5c5862c74339fd0001a8a41a,65d2b6c8f2eece985d8e374c,65d2b8eefe7a391178aea35a,0.052,0.052,0,108,108,93,1,seveneight,,,,,,,,,,,,,,,,,,,,,,,,,,,,,,,,,,,,,,,,,,,,,,,,,,,,,,,,,,,,,,,,,,,,,,,,,,,,,,,,,,,,,,,,,,,,,,,,,,,,,,,,,,,,,,,,,,,,,,,,,,,,,,,,,,,,,,,,,
,,5c5862c74339fd0001a8a41a,2024-02-18_20h12.16.345,kallum_motion_pilot,2023.2.2,Win32,58.82352941,5c5862c74339fd0001a8a41a,65d2b6c8f2eece985d8e374c,65d2b8eefe7a391178aea35a,0.052,0.052,0,109,109,41,1,onethree,,,,,,,,,,,,,,,,,,,,,,,,,,,,,,,,,,,,,,,,,,,,,,,,,,,,,,,,,,,,,,,,,,,,,,,,,,,,,,,,,,,,,,,,,,,,,,,,,,,,,,,,,,,,,,,,,,,,,,,,,,,,,,,,,,,,,,,,,
,,5c5862c74339fd0001a8a41a,2024-02-18_20h12.16.345,kallum_motion_pilot,2023.2.2,Win32,58.82352941,5c5862c74339fd0001a8a41a,65d2b6c8f2eece985d8e374c,65d2b8eefe7a391178aea35a,0.052,0.052,0,110,110,61,1,threefour,,,,,,,,,,,,,,,,,,,,,,,,,,,,,,,,,,,,,,,,,,,,,,,,,,,,,,,,,,,,,,,,,,,,,,,,,,,,,,,,,,,,,,,,,,,,,,,,,,,,,,,,,,,,,,,,,,,,,,,,,,,,,,,,,,,,,,,,,
,,5c5862c74339fd0001a8a41a,2024-02-18_20h12.16.345,kallum_motion_pilot,2023.2.2,Win32,58.82352941,5c5862c74339fd0001a8a41a,65d2b6c8f2eece985d8e374c,65d2b8eefe7a391178aea35a,0.052,0.052,0,111,111,23,1,fourthree,,,,,,,,,,,,,,,,,,,,,,,,,,,,,,,,,,,,,,,,,,,,,,,,,,,,,,,,,,,,,,,,,,,,,,,,,,,,,,,,,,,,,,,,,,,,,,,,,,,,,,,,,,,,,,,,,,,,,,,,,,,,,,,,,,,,,,,,,
,,5c5862c74339fd0001a8a41a,2024-02-18_20h12.16.345,kallum_motion_pilot,2023.2.2,Win32,58.82352941,5c5862c74339fd0001a8a41a,65d2b6c8f2eece985d8e374c,65d2b8eefe7a391178aea35a,0.052,0.052,0,112,112,141,1,seveneight,,,,,,,,,,,,,,,,,,,,,,,,,,,,,,,,,,,,,,,,,,,,,,,,,,,,,,,,,,,,,,,,,,,,,,,,,,,,,,,,,,,,,,,,,,,,,,,,,,,,,,,,,,,,,,,,,,,,,,,,,,,,,,,,,,,,,,,,,
,,5c5862c74339fd0001a8a41a,2024-02-18_20h12.16.345,kallum_motion_pilot,2023.2.2,Win32,58.82352941,5c5862c74339fd0001a8a41a,65d2b6c8f2eece985d8e374c,65d2b8eefe7a391178aea35a,0.052,0.052,0,113,113,137,1,fiveseven,,,,,,,,,,,,,,,,,,,,,,,,,,,,,,,,,,,,,,,,,,,,,,,,,,,,,,,,,,,,,,,,,,,,,,,,,,,,,,,,,,,,,,,,,,,,,,,,,,,,,,,,,,,,,,,,,,,,,,,,,,,,,,,,,,,,,,,,,
,,5c5862c74339fd0001a8a41a,2024-02-18_20h12.16.345,kallum_motion_pilot,2023.2.2,Win32,58.82352941,5c5862c74339fd0001a8a41a,65d2b6c8f2eece985d8e374c,65d2b8eefe7a391178aea35a,0.052,0.052,0,114,114,29,1,threefour,,,,,,,,,,,,,,,,,,,,,,,,,,,,,,,,,,,,,,,,,,,,,,,,,,,,,,,,,,,,,,,,,,,,,,,,,,,,,,,,,,,,,,,,,,,,,,,,,,,,,,,,,,,,,,,,,,,,,,,,,,,,,,,,,,,,,,,,,
,,5c5862c74339fd0001a8a41a,2024-02-18_20h12.16.345,kallum_motion_pilot,2023.2.2,Win32,58.82352941,5c5862c74339fd0001a8a41a,65d2b6c8f2eece985d8e374c,65d2b8eefe7a391178aea35a,0.052,0.053,0,115,115,76,1,threeone,,,,,,,,,,,,,,,,,,,,,,,,,,,,,,,,,,,,,,,,,,,,,,,,,,,,,,,,,,,,,,,,,,,,,,,,,,,,,,,,,,,,,,,,,,,,,,,,,,,,,,,,,,,,,,,,,,,,,,,,,,,,,,,,,,,,,,,,,
,,5c5862c74339fd0001a8a41a,2024-02-18_20h12.16.345,kallum_motion_pilot,2023.2.2,Win32,58.82352941,5c5862c74339fd0001a8a41a,65d2b6c8f2eece985d8e374c,65d2b8eefe7a391178aea35a,0.053,0.053,0,116,116,160,1,fivesix,,,,,,,,,,,,,,,,,,,,,,,,,,,,,,,,,,,,,,,,,,,,,,,,,,,,,,,,,,,,,,,,,,,,,,,,,,,,,,,,,,,,,,,,,,,,,,,,,,,,,,,,,,,,,,,,,,,,,,,,,,,,,,,,,,,,,,,,,
,,5c5862c74339fd0001a8a41a,2024-02-18_20h12.16.345,kallum_motion_pilot,2023.2.2,Win32,58.82352941,5c5862c74339fd0001a8a41a,65d2b6c8f2eece985d8e374c,65d2b8eefe7a391178aea35a,0.053,0.053,0,117,117,101,1,seveneight,,,,,,,,,,,,,,,,,,,,,,,,,,,,,,,,,,,,,,,,,,,,,,,,,,,,,,,,,,,,,,,,,,,,,,,,,,,,,,,,,,,,,,,,,,,,,,,,,,,,,,,,,,,,,,,,,,,,,,,,,,,,,,,,,,,,,,,,,
,,5c5862c74339fd0001a8a41a,2024-02-18_20h12.16.345,kallum_motion_pilot,2023.2.2,Win32,58.82352941,5c5862c74339fd0001a8a41a,65d2b6c8f2eece985d8e374c,65d2b8eefe7a391178aea35a,0.053,0.053,0,118,118,133,1,seveneight,,,,,,,,,,,,,,,,,,,,,,,,,,,,,,,,,,,,,,,,,,,,,,,,,,,,,,,,,,,,,,,,,,,,,,,,,,,,,,,,,,,,,,,,,,,,,,,,,,,,,,,,,,,,,,,,,,,,,,,,,,,,,,,,,,,,,,,,,
,,5c5862c74339fd0001a8a41a,2024-02-18_20h12.16.345,kallum_motion_pilot,2023.2.2,Win32,58.82352941,5c5862c74339fd0001a8a41a,65d2b6c8f2eece985d8e374c,65d2b8eefe7a391178aea35a,0.053,0.053,0,119,119,111,1,eightseven,,,,,,,,,,,,,,,,,,,,,,,,,,,,,,,,,,,,,,,,,,,,,,,,,,,,,,,,,,,,,,,,,,,,,,,,,,,,,,,,,,,,,,,,,,,,,,,,,,,,,,,,,,,,,,,,,,,,,,,,,,,,,,,,,,,,,,,,,
,,5c5862c74339fd0001a8a41a,2024-02-18_20h12.16.345,kallum_motion_pilot,2023.2.2,Win32,58.82352941,5c5862c74339fd0001a8a41a,65d2b6c8f2eece985d8e374c,65d2b8eefe7a391178aea35a,0.053,0.053,0,120,120,28,1,threeone,,,,,,,,,,,,,,,,,,,,,,,,,,,,,,,,,,,,,,,,,,,,,,,,,,,,,,,,,,,,,,,,,,,,,,,,,,,,,,,,,,,,,,,,,,,,,,,,,,,,,,,,,,,,,,,,,,,,,,,,,,,,,,,,,,,,,,,,,
,,5c5862c74339fd0001a8a41a,2024-02-18_20h12.16.345,kallum_motion_pilot,2023.2.2,Win32,58.82352941,5c5862c74339fd0001a8a41a,65d2b6c8f2eece985d8e374c,65d2b8eefe7a391178aea35a,0.053,0.053,0,121,121,40,1,onetwo,,,,,,,,,,,,,,,,,,,,,,,,,,,,,,,,,,,,,,,,,,,,,,,,,,,,,,,,,,,,,,,,,,,,,,,,,,,,,,,,,,,,,,,,,,,,,,,,,,,,,,,,,,,,,,,,,,,,,,,,,,,,,,,,,,,,,,,,,
,,5c5862c74339fd0001a8a41a,2024-02-18_20h12.16.345,kallum_motion_pilot,2023.2.2,Win32,58.82352941,5c5862c74339fd0001a8a41a,65d2b6c8f2eece985d8e374c,65d2b8eefe7a391178aea35a,0.054,0.054,0,122,122,114,1,sixfive,,,,,,,,,,,,,,,,,,,,,,,,,,,,,,,,,,,,,,,,,,,,,,,,,,,,,,,,,,,,,,,,,,,,,,,,,,,,,,,,,,,,,,,,,,,,,,,,,,,,,,,,,,,,,,,,,,,,,,,,,,,,,,,,,,,,,,,,,
,,5c5862c74339fd0001a8a41a,2024-02-18_20h12.16.345,kallum_motion_pilot,2023.2.2,Win32,58.82352941,5c5862c74339fd0001a8a41a,65d2b6c8f2eece985d8e374c,65d2b8eefe7a391178aea35a,0.055,0.055,0,123,123,10,1,twoone,,,,,,,,,,,,,,,,,,,,,,,,,,,,,,,,,,,,,,,,,,,,,,,,,,,,,,,,,,,,,,,,,,,,,,,,,,,,,,,,,,,,,,,,,,,,,,,,,,,,,,,,,,,,,,,,,,,,,,,,,,,,,,,,,,,,,,,,,
,,5c5862c74339fd0001a8a41a,2024-02-18_20h12.16.345,kallum_motion_pilot,2023.2.2,Win32,58.82352941,5c5862c74339fd0001a8a41a,65d2b6c8f2eece985d8e374c,65d2b8eefe7a391178aea35a,0.055,0.055,0,124,124,77,1,threefour,,,,,,,,,,,,,,,,,,,,,,,,,,,,,,,,,,,,,,,,,,,,,,,,,,,,,,,,,,,,,,,,,,,,,,,,,,,,,,,,,,,,,,,,,,,,,,,,,,,,,,,,,,,,,,,,,,,,,,,,,,,,,,,,,,,,,,,,,
,,5c5862c74339fd0001a8a41a,2024-02-18_20h12.16.345,kallum_motion_pilot,2023.2.2,Win32,58.82352941,5c5862c74339fd0001a8a41a,65d2b6c8f2eece985d8e374c,65d2b8eefe7a391178aea35a,0.055,0.055,0,125,125,110,1,eightsix,,,,,,,,,,,,,,,,,,,,,,,,,,,,,,,,,,,,,,,,,,,,,,,,,,,,,,,,,,,,,,,,,,,,,,,,,,,,,,,,,,,,,,,,,,,,,,,,,,,,,,,,,,,,,,,,,,,,,,,,,,,,,,,,,,,,,,,,,
,,5c5862c74339fd0001a8a41a,2024-02-18_20h12.16.345,kallum_motion_pilot,2023.2.2,Win32,58.82352941,5c5862c74339fd0001a8a41a,65d2b6c8f2eece985d8e374c,65d2b8eefe7a391178aea35a,0.055,0.055,0,126,126,146,1,sixfive,,,,,,,,,,,,,,,,,,,,,,,,,,,,,,,,,,,,,,,,,,,,,,,,,,,,,,,,,,,,,,,,,,,,,,,,,,,,,,,,,,,,,,,,,,,,,,,,,,,,,,,,,,,,,,,,,,,,,,,,,,,,,,,,,,,,,,,,,
,,5c5862c74339fd0001a8a41a,2024-02-18_20h12.16.345,kallum_motion_pilot,2023.2.2,Win32,58.82352941,5c5862c74339fd0001a8a41a,65d2b6c8f2eece985d8e374c,65d2b8eefe7a391178aea35a,0.055,0.055,0,127,127,15,1,fourthree,,,,,,,,,,,,,,,,,,,,,,,,,,,,,,,,,,,,,,,,,,,,,,,,,,,,,,,,,,,,,,,,,,,,,,,,,,,,,,,,,,,,,,,,,,,,,,,,,,,,,,,,,,,,,,,,,,,,,,,,,,,,,,,,,,,,,,,,,
,,5c5862c74339fd0001a8a41a,2024-02-18_20h12.16.345,kallum_motion_pilot,2023.2.2,Win32,58.82352941,5c5862c74339fd0001a8a41a,65d2b6c8f2eece985d8e374c,65d2b8eefe7a391178aea35a,0.055,0.055,0,128,128,102,1,eightsix,,,,,,,,,,,,,,,,,,,,,,,,,,,,,,,,,,,,,,,,,,,,,,,,,,,,,,,,,,,,,,,,,,,,,,,,,,,,,,,,,,,,,,,,,,,,,,,,,,,,,,,,,,,,,,,,,,,,,,,,,,,,,,,,,,,,,,,,,
,,5c5862c74339fd0001a8a41a,2024-02-18_20h12.16.345,kallum_motion_pilot,2023.2.2,Win32,58.82352941,5c5862c74339fd0001a8a41a,65d2b6c8f2eece985d8e374c,65d2b8eefe7a391178aea35a,0.055,0.055,0,129,129,139,1,sixeight,,,,,,,,,,,,,,,,,,,,,,,,,,,,,,,,,,,,,,,,,,,,,,,,,,,,,,,,,,,,,,,,,,,,,,,,,,,,,,,,,,,,,,,,,,,,,,,,,,,,,,,,,,,,,,,,,,,,,,,,,,,,,,,,,,,,,,,,,
,,5c5862c74339fd0001a8a41a,2024-02-18_20h12.16.345,kallum_motion_pilot,2023.2.2,Win32,58.82352941,5c5862c74339fd0001a8a41a,65d2b6c8f2eece985d8e374c,65d2b8eefe7a391178aea35a,0.055,0.055,0,130,130,0,1,onetwo,,,,,,,,,,,,,,,,,,,,,,,,,,,,,,,,,,,,,,,,,,,,,,,,,,,,,,,,,,,,,,,,,,,,,,,,,,,,,,,,,,,,,,,,,,,,,,,,,,,,,,,,,,,,,,,,,,,,,,,,,,,,,,,,,,,,,,,,,
,,5c5862c74339fd0001a8a41a,2024-02-18_20h12.16.345,kallum_motion_pilot,2023.2.2,Win32,58.82352941,5c5862c74339fd0001a8a41a,65d2b6c8f2eece985d8e374c,65d2b8eefe7a391178aea35a,0.055,0.055,0,131,131,52,1,threeone,,,,,,,,,,,,,,,,,,,,,,,,,,,,,,,,,,,,,,,,,,,,,,,,,,,,,,,,,,,,,,,,,,,,,,,,,,,,,,,,,,,,,,,,,,,,,,,,,,,,,,,,,,,,,,,,,,,,,,,,,,,,,,,,,,,,,,,,,
,,5c5862c74339fd0001a8a41a,2024-02-18_20h12.16.345,kallum_motion_pilot,2023.2.2,Win32,58.82352941,5c5862c74339fd0001a8a41a,65d2b6c8f2eece985d8e374c,65d2b8eefe7a391178aea35a,0.055,0.055,0,132,132,99,1,sixeight,,,,,,,,,,,,,,,,,,,,,,,,,,,,,,,,,,,,,,,,,,,,,,,,,,,,,,,,,,,,,,,,,,,,,,,,,,,,,,,,,,,,,,,,,,,,,,,,,,,,,,,,,,,,,,,,,,,,,,,,,,,,,,,,,,,,,,,,,
,,5c5862c74339fd0001a8a41a,2024-02-18_20h12.16.345,kallum_motion_pilot,2023.2.2,Win32,58.82352941,5c5862c74339fd0001a8a41a,65d2b6c8f2eece985d8e374c,65d2b8eefe7a391178aea35a,0.055,0.055,0,133,133,91,1,sixeight,,,,,,,,,,,,,,,,,,,,,,,,,,,,,,,,,,,,,,,,,,,,,,,,,,,,,,,,,,,,,,,,,,,,,,,,,,,,,,,,,,,,,,,,,,,,,,,,,,,,,,,,,,,,,,,,,,,,,,,,,,,,,,,,,,,,,,,,,
,,5c5862c74339fd0001a8a41a,2024-02-18_20h12.16.345,kallum_motion_pilot,2023.2.2,Win32,58.82352941,5c5862c74339fd0001a8a41a,65d2b6c8f2eece985d8e374c,65d2b8eefe7a391178aea35a,0.056,0.056,0,134,134,135,1,eightseven,,,,,,,,,,,,,,,,,,,,,,,,,,,,,,,,,,,,,,,,,,,,,,,,,,,,,,,,,,,,,,,,,,,,,,,,,,,,,,,,,,,,,,,,,,,,,,,,,,,,,,,,,,,,,,,,,,,,,,,,,,,,,,,,,,,,,,,,,
,,5c5862c74339fd0001a8a41a,2024-02-18_20h12.16.345,kallum_motion_pilot,2023.2.2,Win32,58.82352941,5c5862c74339fd0001a8a41a,65d2b6c8f2eece985d8e374c,65d2b8eefe7a391178aea35a,0.056,0.056,0,135,135,122,1,sixfive,,,,,,,,,,,,,,,,,,,,,,,,,,,,,,,,,,,,,,,,,,,,,,,,,,,,,,,,,,,,,,,,,,,,,,,,,,,,,,,,,,,,,,,,,,,,,,,,,,,,,,,,,,,,,,,,,,,,,,,,,,,,,,,,,,,,,,,,,
,,5c5862c74339fd0001a8a41a,2024-02-18_20h12.16.345,kallum_motion_pilot,2023.2.2,Win32,58.82352941,5c5862c74339fd0001a8a41a,65d2b6c8f2eece985d8e374c,65d2b8eefe7a391178aea35a,0.056,0.056,0,136,136,37,1,threefour,,,,,,,,,,,,,,,,,,,,,,,,,,,,,,,,,,,,,,,,,,,,,,,,,,,,,,,,,,,,,,,,,,,,,,,,,,,,,,,,,,,,,,,,,,,,,,,,,,,,,,,,,,,,,,,,,,,,,,,,,,,,,,,,,,,,,,,,,
,,5c5862c74339fd0001a8a41a,2024-02-18_20h12.16.345,kallum_motion_pilot,2023.2.2,Win32,58.82352941,5c5862c74339fd0001a8a41a,65d2b6c8f2eece985d8e374c,65d2b8eefe7a391178aea35a,0.056,0.056,0,137,137,85,1,seveneight,,,,,,,,,,,,,,,,,,,,,,,,,,,,,,,,,,,,,,,,,,,,,,,,,,,,,,,,,,,,,,,,,,,,,,,,,,,,,,,,,,,,,,,,,,,,,,,,,,,,,,,,,,,,,,,,,,,,,,,,,,,,,,,,,,,,,,,,,
,,5c5862c74339fd0001a8a41a,2024-02-18_20h12.16.345,kallum_motion_pilot,2023.2.2,Win32,58.82352941,5c5862c74339fd0001a8a41a,65d2b6c8f2eece985d8e374c,65d2b8eefe7a391178aea35a,0.056,0.056,0,138,138,69,1,threefour,,,,,,,,,,,,,,,,,,,,,,,,,,,,,,,,,,,,,,,,,,,,,,,,,,,,,,,,,,,,,,,,,,,,,,,,,,,,,,,,,,,,,,,,,,,,,,,,,,,,,,,,,,,,,,,,,,,,,,,,,,,,,,,,,,,,,,,,,
,,5c5862c74339fd0001a8a41a,2024-02-18_20h12.16.345,kallum_motion_pilot,2023.2.2,Win32,58.82352941,5c5862c74339fd0001a8a41a,65d2b6c8f2eece985d8e374c,65d2b8eefe7a391178aea35a,0.056,0.057,0,139,139,47,1,fourthree,,,,,,,,,,,,,,,,,,,,,,,,,,,,,,,,,,,,,,,,,,,,,,,,,,,,,,,,,,,,,,,,,,,,,,,,,,,,,,,,,,,,,,,,,,,,,,,,,,,,,,,,,,,,,,,,,,,,,,,,,,,,,,,,,,,,,,,,,
,,5c5862c74339fd0001a8a41a,2024-02-18_20h12.16.345,kallum_motion_pilot,2023.2.2,Win32,58.82352941,5c5862c74339fd0001a8a41a,65d2b6c8f2eece985d8e374c,65d2b8eefe7a391178aea35a,0.057,0.057,0,140,140,81,1,fiveseven,,,,,,,,,,,,,,,,,,,,,,,,,,,,,,,,,,,,,,,,,,,,,,,,,,,,,,,,,,,,,,,,,,,,,,,,,,,,,,,,,,,,,,,,,,,,,,,,,,,,,,,,,,,,,,,,,,,,,,,,,,,,,,,,,,,,,,,,,
,,5c5862c74339fd0001a8a41a,2024-02-18_20h12.16.345,kallum_motion_pilot,2023.2.2,Win32,58.82352941,5c5862c74339fd0001a8a41a,65d2b6c8f2eece985d8e374c,65d2b8eefe7a391178aea35a,0.057,0.057,0,141,141,148,1,sevenfive,,,,,,,,,,,,,,,,,,,,,,,,,,,,,,,,,,,,,,,,,,,,,,,,,,,,,,,,,,,,,,,,,,,,,,,,,,,,,,,,,,,,,,,,,,,,,,,,,,,,,,,,,,,,,,,,,,,,,,,,,,,,,,,,,,,,,,,,,
,,5c5862c74339fd0001a8a41a,2024-02-18_20h12.16.345,kallum_motion_pilot,2023.2.2,Win32,58.82352941,5c5862c74339fd0001a8a41a,65d2b6c8f2eece985d8e374c,65d2b8eefe7a391178aea35a,0.057,0.057,0,142,142,45,1,threefour,,,,,,,,,,,,,,,,,,,,,,,,,,,,,,,,,,,,,,,,,,,,,,,,,,,,,,,,,,,,,,,,,,,,,,,,,,,,,,,,,,,,,,,,,,,,,,,,,,,,,,,,,,,,,,,,,,,,,,,,,,,,,,,,,,,,,,,,,
,,5c5862c74339fd0001a8a41a,2024-02-18_20h12.16.345,kallum_motion_pilot,2023.2.2,Win32,58.82352941,5c5862c74339fd0001a8a41a,65d2b6c8f2eece985d8e374c,65d2b8eefe7a391178aea35a,0.058,0.058,0,143,143,30,1,fourtwo,,,,,,,,,,,,,,,,,,,,,,,,,,,,,,,,,,,,,,,,,,,,,,,,,,,,,,,,,,,,,,,,,,,,,,,,,,,,,,,,,,,,,,,,,,,,,,,,,,,,,,,,,,,,,,,,,,,,,,,,,,,,,,,,,,,,,,,,,
,,5c5862c74339fd0001a8a41a,2024-02-18_20h12.16.345,kallum_motion_pilot,2023.2.2,Win32,58.82352941,5c5862c74339fd0001a8a41a,65d2b6c8f2eece985d8e374c,65d2b8eefe7a391178aea35a,0.058,0.058,0,144,144,66,1,twoone,,,,,,,,,,,,,,,,,,,,,,,,,,,,,,,,,,,,,,,,,,,,,,,,,,,,,,,,,,,,,,,,,,,,,,,,,,,,,,,,,,,,,,,,,,,,,,,,,,,,,,,,,,,,,,,,,,,,,,,,,,,,,,,,,,,,,,,,,
,,5c5862c74339fd0001a8a41a,2024-02-18_20h12.16.345,kallum_motion_pilot,2023.2.2,Win32,58.82352941,5c5862c74339fd0001a8a41a,65d2b6c8f2eece985d8e374c,65d2b8eefe7a391178aea35a,0.058,0.058,0,145,145,126,1,eightsix,,,,,,,,,,,,,,,,,,,,,,,,,,,,,,,,,,,,,,,,,,,,,,,,,,,,,,,,,,,,,,,,,,,,,,,,,,,,,,,,,,,,,,,,,,,,,,,,,,,,,,,,,,,,,,,,,,,,,,,,,,,,,,,,,,,,,,,,,
,,5c5862c74339fd0001a8a41a,2024-02-18_20h12.16.345,kallum_motion_pilot,2023.2.2,Win32,58.82352941,5c5862c74339fd0001a8a41a,65d2b6c8f2eece985d8e374c,65d2b8eefe7a391178aea35a,0.058,0.058,0,146,146,73,1,onethree,,,,,,,,,,,,,,,,,,,,,,,,,,,,,,,,,,,,,,,,,,,,,,,,,,,,,,,,,,,,,,,,,,,,,,,,,,,,,,,,,,,,,,,,,,,,,,,,,,,,,,,,,,,,,,,,,,,,,,,,,,,,,,,,,,,,,,,,,
,,5c5862c74339fd0001a8a41a,2024-02-18_20h12.16.345,kallum_motion_pilot,2023.2.2,Win32,58.82352941,5c5862c74339fd0001a8a41a,65d2b6c8f2eece985d8e374c,65d2b8eefe7a391178aea35a,0.059,0.059,0,147,147,149,1,seveneight,,,,,,,,,,,,,,,,,,,,,,,,,,,,,,,,,,,,,,,,,,,,,,,,,,,,,,,,,,,,,,,,,,,,,,,,,,,,,,,,,,,,,,,,,,,,,,,,,,,,,,,,,,,,,,,,,,,,,,,,,,,,,,,,,,,,,,,,,
,,5c5862c74339fd0001a8a41a,2024-02-18_20h12.16.345,kallum_motion_pilot,2023.2.2,Win32,58.82352941,5c5862c74339fd0001a8a41a,65d2b6c8f2eece985d8e374c,65d2b8eefe7a391178aea35a,0.059,0.059,0,148,148,51,1,twofour,,,,,,,,,,,,,,,,,,,,,,,,,,,,,,,,,,,,,,,,,,,,,,,,,,,,,,,,,,,,,,,,,,,,,,,,,,,,,,,,,,,,,,,,,,,,,,,,,,,,,,,,,,,,,,,,,,,,,,,,,,,,,,,,,,,,,,,,,
,,5c5862c74339fd0001a8a41a,2024-02-18_20h12.16.345,kallum_motion_pilot,2023.2.2,Win32,58.82352941,5c5862c74339fd0001a8a41a,65d2b6c8f2eece985d8e374c,65d2b8eefe7a391178aea35a,0.059,0.059,0,149,149,5,1,threefour,,,,,,,,,,,,,,,,,,,,,,,,,,,,,,,,,,,,,,,,,,,,,,,,,,,,,,,,,,,,,,,,,,,,,,,,,,,,,,,,,,,,,,,,,,,,,,,,,,,,,,,,,,,,,,,,,,,,,,,,,,,,,,,,,,,,,,,,,
,,5c5862c74339fd0001a8a41a,2024-02-18_20h12.16.345,kallum_motion_pilot,2023.2.2,Win32,58.82352941,5c5862c74339fd0001a8a41a,65d2b6c8f2eece985d8e374c,65d2b8eefe7a391178aea35a,0.059,0.059,0,150,150,117,1,seveneight,,,,,,,,,,,,,,,,,,,,,,,,,,,,,,,,,,,,,,,,,,,,,,,,,,,,,,,,,,,,,,,,,,,,,,,,,,,,,,,,,,,,,,,,,,,,,,,,,,,,,,,,,,,,,,,,,,,,,,,,,,,,,,,,,,,,,,,,,
,,5c5862c74339fd0001a8a41a,2024-02-18_20h12.16.345,kallum_motion_pilot,2023.2.2,Win32,58.82352941,5c5862c74339fd0001a8a41a,65d2b6c8f2eece985d8e374c,65d2b8eefe7a391178aea35a,0.06,0.06,0,151,151,138,1,sixfive,,,,,,,,,,,,,,,,,,,,,,,,,,,,,,,,,,,,,,,,,,,,,,,,,,,,,,,,,,,,,,,,,,,,,,,,,,,,,,,,,,,,,,,,,,,,,,,,,,,,,,,,,,,,,,,,,,,,,,,,,,,,,,,,,,,,,,,,,
,,5c5862c74339fd0001a8a41a,2024-02-18_20h12.16.345,kallum_motion_pilot,2023.2.2,Win32,58.82352941,5c5862c74339fd0001a8a41a,65d2b6c8f2eece985d8e374c,65d2b8eefe7a391178aea35a,0.06,0.06,0,152,152,53,1,threefour,,,,,,,,,,,,,,,,,,,,,,,,,,,,,,,,,,,,,,,,,,,,,,,,,,,,,,,,,,,,,,,,,,,,,,,,,,,,,,,,,,,,,,,,,,,,,,,,,,,,,,,,,,,,,,,,,,,,,,,,,,,,,,,,,,,,,,,,,
,,5c5862c74339fd0001a8a41a,2024-02-18_20h12.16.345,kallum_motion_pilot,2023.2.2,Win32,58.82352941,5c5862c74339fd0001a8a41a,65d2b6c8f2eece985d8e374c,65d2b8eefe7a391178aea35a,0.06,0.06,0,153,153,108,1,sevenfive,,,,,,,,,,,,,,,,,,,,,,,,,,,,,,,,,,,,,,,,,,,,,,,,,,,,,,,,,,,,,,,,,,,,,,,,,,,,,,,,,,,,,,,,,,,,,,,,,,,,,,,,,,,,,,,,,,,,,,,,,,,,,,,,,,,,,,,,,
,,5c5862c74339fd0001a8a41a,2024-02-18_20h12.16.345,kallum_motion_pilot,2023.2.2,Win32,58.82352941,5c5862c74339fd0001a8a41a,65d2b6c8f2eece985d8e374c,65d2b8eefe7a391178aea35a,0.061,0.061,0,154,154,94,1,eightsix,,,,,,,,,,,,,,,,,,,,,,,,,,,,,,,,,,,,,,,,,,,,,,,,,,,,,,,,,,,,,,,,,,,,,,,,,,,,,,,,,,,,,,,,,,,,,,,,,,,,,,,,,,,,,,,,,,,,,,,,,,,,,,,,,,,,,,,,,
,,5c5862c74339fd0001a8a41a,2024-02-18_20h12.16.345,kallum_motion_pilot,2023.2.2,Win32,58.82352941,5c5862c74339fd0001a8a41a,65d2b6c8f2eece985d8e374c,65d2b8eefe7a391178aea35a,0.061,0.061,0,155,155,72,1,onetwo,,,,,,,,,,,,,,,,,,,,,,,,,,,,,,,,,,,,,,,,,,,,,,,,,,,,,,,,,,,,,,,,,,,,,,,,,,,,,,,,,,,,,,,,,,,,,,,,,,,,,,,,,,,,,,,,,,,,,,,,,,,,,,,,,,,,,,,,,
,,5c5862c74339fd0001a8a41a,2024-02-18_20h12.16.345,kallum_motion_pilot,2023.2.2,Win32,58.82352941,5c5862c74339fd0001a8a41a,65d2b6c8f2eece985d8e374c,65d2b8eefe7a391178aea35a,0.061,0.061,0,156,156,11,1,twofour,,,,,,,,,,,,,,,,,,,,,,,,,,,,,,,,,,,,,,,,,,,,,,,,,,,,,,,,,,,,,,,,,,,,,,,,,,,,,,,,,,,,,,,,,,,,,,,,,,,,,,,,,,,,,,,,,,,,,,,,,,,,,,,,,,,,,,,,,
,,5c5862c74339fd0001a8a41a,2024-02-18_20h12.16.345,kallum_motion_pilot,2023.2.2,Win32,58.82352941,5c5862c74339fd0001a8a41a,65d2b6c8f2eece985d8e374c,65d2b8eefe7a391178aea35a,0.061,0.061,0,157,157,83,1,sixeight,,,,,,,,,,,,,,,,,,,,,,,,,,,,,,,,,,,,,,,,,,,,,,,,,,,,,,,,,,,,,,,,,,,,,,,,,,,,,,,,,,,,,,,,,,,,,,,,,,,,,,,,,,,,,,,,,,,,,,,,,,,,,,,,,,,,,,,,,
,,5c5862c74339fd0001a8a41a,2024-02-18_20h12.16.345,kallum_motion_pilot,2023.2.2,Win32,58.82352941,5c5862c74339fd0001a8a41a,65d2b6c8f2eece985d8e374c,65d2b8eefe7a391178aea35a,0.062,0.062,0,158,158,6,1,fourtwo,,,,,,,,,,,,,,,,,,,,,,,,,,,,,,,,,,,,,,,,,,,,,,,,,,,,,,,,,,,,,,,,,,,,,,,,,,,,,,,,,,,,,,,,,,,,,,,,,,,,,,,,,,,,,,,,,,,,,,,,,,,,,,,,,,,,,,,,,
,,5c5862c74339fd0001a8a41a,2024-02-18_20h12.16.345,kallum_motion_pilot,2023.2.2,Win32,58.82352941,5c5862c74339fd0001a8a41a,65d2b6c8f2eece985d8e374c,65d2b8eefe7a391178aea35a,0.062,0.062,0,159,159,161,1,fiveseven,,,,,,,,,,,,,,,,,,,,,,,,,,,,,,,,,,,,,,,,,,,,,,,,,,,,,,,,,,,,,,,,,,,,,,,,,,,,,,,,,,,,,,,,,,,,,,,,,,,,,,,,,,,,,,,,,,,,,,,,,,,,,,,,,,,,,,,,,
,,5c5862c74339fd0001a8a41a,2024-02-18_20h12.16.345,kallum_motion_pilot,2023.2.2,Win32,58.82352941,5c5862c74339fd0001a8a41a,65d2b6c8f2eece985d8e374c,65d2b8eefe7a391178aea35a,0.062,0.062,0,160,160,152,1,fivesix,,,,,,,,,,,,,,,,,,,,,,,,,,,,,,,,,,,,,,,,,,,,,,,,,,,,,,,,,,,,,,,,,,,,,,,,,,,,,,,,,,,,,,,,,,,,,,,,,,,,,,,,,,,,,,,,,,,,,,,,,,,,,,,,,,,,,,,,,
,,5c5862c74339fd0001a8a41a,2024-02-18_20h12.16.345,kallum_motion_pilot,2023.2.2,Win32,58.82352941,5c5862c74339fd0001a8a41a,65d2b6c8f2eece985d8e374c,65d2b8eefe7a391178aea35a,0.062,0.062,0,161,161,84,1,sevenfive,,,,,,,,,,,,,,,,,,,,,,,,,,,,,,,,,,,,,,,,,,,,,,,,,,,,,,,,,,,,,,,,,,,,,,,,,,,,,,,,,,,,,,,,,,,,,,,,,,,,,,,,,,,,,,,,,,,,,,,,,,,,,,,,,,,,,,,,,
,,5c5862c74339fd0001a8a41a,2024-02-18_20h12.16.345,kallum_motion_pilot,2023.2.2,Win32,58.82352941,5c5862c74339fd0001a8a41a,65d2b6c8f2eece985d8e374c,65d2b8eefe7a391178aea35a,0.063,0.063,1,0,162,149,1,seveneight,,,,,,,,,,,,,,,,,,,,,,,,,,,,,,,,,,,,,,,,,,,,,,,,,,,,,,,,,,,,,,,,,,,,,,,,,,,,,,,,,,,,,,,,,,,,,,,,,,,,,,,,,,,,,,,,,,,,,,,,,,,,,,,,,,,,,,,,,
,,5c5862c74339fd0001a8a41a,2024-02-18_20h12.16.345,kallum_motion_pilot,2023.2.2,Win32,58.82352941,5c5862c74339fd0001a8a41a,65d2b6c8f2eece985d8e374c,65d2b8eefe7a391178aea35a,0.063,0.063,1,1,163,64,1,onetwo,,,,,,,,,,,,,,,,,,,,,,,,,,,,,,,,,,,,,,,,,,,,,,,,,,,,,,,,,,,,,,,,,,,,,,,,,,,,,,,,,,,,,,,,,,,,,,,,,,,,,,,,,,,,,,,,,,,,,,,,,,,,,,,,,,,,,,,,,
,,5c5862c74339fd0001a8a41a,2024-02-18_20h12.16.345,kallum_motion_pilot,2023.2.2,Win32,58.82352941,5c5862c74339fd0001a8a41a,65d2b6c8f2eece985d8e374c,65d2b8eefe7a391178aea35a,0.063,0.063,1,2,164,72,1,onetwo,,,,,,,,,,,,,,,,,,,,,,,,,,,,,,,,,,,,,,,,,,,,,,,,,,,,,,,,,,,,,,,,,,,,,,,,,,,,,,,,,,,,,,,,,,,,,,,,,,,,,,,,,,,,,,,,,,,,,,,,,,,,,,,,,,,,,,,,,
,,5c5862c74339fd0001a8a41a,2024-02-18_20h12.16.345,kallum_motion_pilot,2023.2.2,Win32,58.82352941,5c5862c74339fd0001a8a41a,65d2b6c8f2eece985d8e374c,65d2b8eefe7a391178aea35a,0.063,0.063,1,3,165,0,1,onetwo,,,,,,,,,,,,,,,,,,,,,,,,,,,,,,,,,,,,,,,,,,,,,,,,,,,,,,,,,,,,,,,,,,,,,,,,,,,,,,,,,,,,,,,,,,,,,,,,,,,,,,,,,,,,,,,,,,,,,,,,,,,,,,,,,,,,,,,,,
,,5c5862c74339fd0001a8a41a,2024-02-18_20h12.16.345,kallum_motion_pilot,2023.2.2,Win32,58.82352941,5c5862c74339fd0001a8a41a,65d2b6c8f2eece985d8e374c,65d2b8eefe7a391178aea35a,0.063,0.063,1,4,166,61,1,threefour,,,,,,,,,,,,,,,,,,,,,,,,,,,,,,,,,,,,,,,,,,,,,,,,,,,,,,,,,,,,,,,,,,,,,,,,,,,,,,,,,,,,,,,,,,,,,,,,,,,,,,,,,,,,,,,,,,,,,,,,,,,,,,,,,,,,,,,,,
,,5c5862c74339fd0001a8a41a,2024-02-18_20h12.16.345,kallum_motion_pilot,2023.2.2,Win32,58.82352941,5c5862c74339fd0001a8a41a,65d2b6c8f2eece985d8e374c,65d2b8eefe7a391178aea35a,0.063,0.063,1,5,167,134,1,eightsix,,,,,,,,,,,,,,,,,,,,,,,,,,,,,,,,,,,,,,,,,,,,,,,,,,,,,,,,,,,,,,,,,,,,,,,,,,,,,,,,,,,,,,,,,,,,,,,,,,,,,,,,,,,,,,,,,,,,,,,,,,,,,,,,,,,,,,,,,
,,5c5862c74339fd0001a8a41a,2024-02-18_20h12.16.345,kallum_motion_pilot,2023.2.2,Win32,58.82352941,5c5862c74339fd0001a8a41a,65d2b6c8f2eece985d8e374c,65d2b8eefe7a391178aea35a,0.063,0.063,1,6,168,90,1,sixfive,,,,,,,,,,,,,,,,,,,,,,,,,,,,,,,,,,,,,,,,,,,,,,,,,,,,,,,,,,,,,,,,,,,,,,,,,,,,,,,,,,,,,,,,,,,,,,,,,,,,,,,,,,,,,,,,,,,,,,,,,,,,,,,,,,,,,,,,,
,,5c5862c74339fd0001a8a41a,2024-02-18_20h12.16.345,kallum_motion_pilot,2023.2.2,Win32,58.82352941,5c5862c74339fd0001a8a41a,65d2b6c8f2eece985d8e374c,65d2b8eefe7a391178aea35a,0.063,0.063,1,7,169,76,1,threeone,,,,,,,,,,,,,,,,,,,,,,,,,,,,,,,,,,,,,,,,,,,,,,,,,,,,,,,,,,,,,,,,,,,,,,,,,,,,,,,,,,,,,,,,,,,,,,,,,,,,,,,,,,,,,,,,,,,,,,,,,,,,,,,,,,,,,,,,,
,,5c5862c74339fd0001a8a41a,2024-02-18_20h12.16.345,kallum_motion_pilot,2023.2.2,Win32,58.82352941,5c5862c74339fd0001a8a41a,65d2b6c8f2eece985d8e374c,65d2b8eefe7a391178aea35a,0.064,0.064,1,8,170,136,1,fivesix,,,,,,,,,,,,,,,,,,,,,,,,,,,,,,,,,,,,,,,,,,,,,,,,,,,,,,,,,,,,,,,,,,,,,,,,,,,,,,,,,,,,,,,,,,,,,,,,,,,,,,,,,,,,,,,,,,,,,,,,,,,,,,,,,,,,,,,,,
,,5c5862c74339fd0001a8a41a,2024-02-18_20h12.16.345,kallum_motion_pilot,2023.2.2,Win32,58.82352941,5c5862c74339fd0001a8a41a,65d2b6c8f2eece985d8e374c,65d2b8eefe7a391178aea35a,0.064,0.064,1,9,171,65,1,onethree,,,,,,,,,,,,,,,,,,,,,,,,,,,,,,,,,,,,,,,,,,,,,,,,,,,,,,,,,,,,,,,,,,,,,,,,,,,,,,,,,,,,,,,,,,,,,,,,,,,,,,,,,,,,,,,,,,,,,,,,,,,,,,,,,,,,,,,,,
,,5c5862c74339fd0001a8a41a,2024-02-18_20h12.16.345,kallum_motion_pilot,2023.2.2,Win32,58.82352941,5c5862c74339fd0001a8a41a,65d2b6c8f2eece985d8e374c,65d2b8eefe7a391178aea35a,0.064,0.064,1,10,172,131,1,sixeight,,,,,,,,,,,,,,,,,,,,,,,,,,,,,,,,,,,,,,,,,,,,,,,,,,,,,,,,,,,,,,,,,,,,,,,,,,,,,,,,,,,,,,,,,,,,,,,,,,,,,,,,,,,,,,,,,,,,,,,,,,,,,,,,,,,,,,,,,
,,5c5862c74339fd0001a8a41a,2024-02-18_20h12.16.345,kallum_motion_pilot,2023.2.2,Win32,58.82352941,5c5862c74339fd0001a8a41a,65d2b6c8f2eece985d8e374c,65d2b8eefe7a391178aea35a,0.064,0.064,1,11,173,29,1,threefour,,,,,,,,,,,,,,,,,,,,,,,,,,,,,,,,,,,,,,,,,,,,,,,,,,,,,,,,,,,,,,,,,,,,,,,,,,,,,,,,,,,,,,,,,,,,,,,,,,,,,,,,,,,,,,,,,,,,,,,,,,,,,,,,,,,,,,,,,
,,5c5862c74339fd0001a8a41a,2024-02-18_20h12.16.345,kallum_motion_pilot,2023.2.2,Win32,58.82352941,5c5862c74339fd0001a8a41a,65d2b6c8f2eece985d8e374c,65d2b8eefe7a391178aea35a,0.064,0.064,1,12,174,109,1,seveneight,,,,,,,,,,,,,,,,,,,,,,,,,,,,,,,,,,,,,,,,,,,,,,,,,,,,,,,,,,,,,,,,,,,,,,,,,,,,,,,,,,,,,,,,,,,,,,,,,,,,,,,,,,,,,,,,,,,,,,,,,,,,,,,,,,,,,,,,,
,,5c5862c74339fd0001a8a41a,2024-02-18_20h12.16.345,kallum_motion_pilot,2023.2.2,Win32,58.82352941,5c5862c74339fd0001a8a41a,65d2b6c8f2eece985d8e374c,65d2b8eefe7a391178aea35a,0.064,0.064,1,13,175,135,1,eightseven,,,,,,,,,,,,,,,,,,,,,,,,,,,,,,,,,,,,,,,,,,,,,,,,,,,,,,,,,,,,,,,,,,,,,,,,,,,,,,,,,,,,,,,,,,,,,,,,,,,,,,,,,,,,,,,,,,,,,,,,,,,,,,,,,,,,,,,,,
,,5c5862c74339fd0001a8a41a,2024-02-18_20h12.16.345,kallum_motion_pilot,2023.2.2,Win32,58.82352941,5c5862c74339fd0001a8a41a,65d2b6c8f2eece985d8e374c,65d2b8eefe7a391178aea35a,0.064,0.065,1,14,176,43,1,twofour,,,,,,,,,,,,,,,,,,,,,,,,,,,,,,,,,,,,,,,,,,,,,,,,,,,,,,,,,,,,,,,,,,,,,,,,,,,,,,,,,,,,,,,,,,,,,,,,,,,,,,,,,,,,,,,,,,,,,,,,,,,,,,,,,,,,,,,,,
,,5c5862c74339fd0001a8a41a,2024-02-18_20h12.16.345,kallum_motion_pilot,2023.2.2,Win32,58.82352941,5c5862c74339fd0001a8a41a,65d2b6c8f2eece985d8e374c,65d2b8eefe7a391178aea35a,0.065,0.065,1,15,177,33,1,onethree,,,,,,,,,,,,,,,,,,,,,,,,,,,,,,,,,,,,,,,,,,,,,,,,,,,,,,,,,,,,,,,,,,,,,,,,,,,,,,,,,,,,,,,,,,,,,,,,,,,,,,,,,,,,,,,,,,,,,,,,,,,,,,,,,,,,,,,,,
,,5c5862c74339fd0001a8a41a,2024-02-18_20h12.16.345,kallum_motion_pilot,2023.2.2,Win32,58.82352941,5c5862c74339fd0001a8a41a,65d2b6c8f2eece985d8e374c,65d2b8eefe7a391178aea35a,0.065,0.065,1,16,178,19,1,twofour,,,,,,,,,,,,,,,,,,,,,,,,,,,,,,,,,,,,,,,,,,,,,,,,,,,,,,,,,,,,,,,,,,,,,,,,,,,,,,,,,,,,,,,,,,,,,,,,,,,,,,,,,,,,,,,,,,,,,,,,,,,,,,,,,,,,,,,,,
,,5c5862c74339fd0001a8a41a,2024-02-18_20h12.16.345,kallum_motion_pilot,2023.2.2,Win32,58.82352941,5c5862c74339fd0001a8a41a,65d2b6c8f2eece985d8e374c,65d2b8eefe7a391178aea35a,0.066,0.066,1,17,179,9,1,onethree,,,,,,,,,,,,,,,,,,,,,,,,,,,,,,,,,,,,,,,,,,,,,,,,,,,,,,,,,,,,,,,,,,,,,,,,,,,,,,,,,,,,,,,,,,,,,,,,,,,,,,,,,,,,,,,,,,,,,,,,,,,,,,,,,,,,,,,,,
,,5c5862c74339fd0001a8a41a,2024-02-18_20h12.16.345,kallum_motion_pilot,2023.2.2,Win32,58.82352941,5c5862c74339fd0001a8a41a,65d2b6c8f2eece985d8e374c,65d2b8eefe7a391178aea35a,0.066,0.066,1,18,180,96,1,fivesix,,,,,,,,,,,,,,,,,,,,,,,,,,,,,,,,,,,,,,,,,,,,,,,,,,,,,,,,,,,,,,,,,,,,,,,,,,,,,,,,,,,,,,,,,,,,,,,,,,,,,,,,,,,,,,,,,,,,,,,,,,,,,,,,,,,,,,,,,
,,5c5862c74339fd0001a8a41a,2024-02-18_20h12.16.345,kallum_motion_pilot,2023.2.2,Win32,58.82352941,5c5862c74339fd0001a8a41a,65d2b6c8f2eece985d8e374c,65d2b8eefe7a391178aea35a,0.066,0.066,1,19,181,112,1,fivesix,,,,,,,,,,,,,,,,,,,,,,,,,,,,,,,,,,,,,,,,,,,,,,,,,,,,,,,,,,,,,,,,,,,,,,,,,,,,,,,,,,,,,,,,,,,,,,,,,,,,,,,,,,,,,,,,,,,,,,,,,,,,,,,,,,,,,,,,,
,,5c5862c74339fd0001a8a41a,2024-02-18_20h12.16.345,kallum_motion_pilot,2023.2.2,Win32,58.82352941,5c5862c74339fd0001a8a41a,65d2b6c8f2eece985d8e374c,65d2b8eefe7a391178aea35a,0.066,0.066,1,20,182,92,1,sevenfive,,,,,,,,,,,,,,,,,,,,,,,,,,,,,,,,,,,,,,,,,,,,,,,,,,,,,,,,,,,,,,,,,,,,,,,,,,,,,,,,,,,,,,,,,,,,,,,,,,,,,,,,,,,,,,,,,,,,,,,,,,,,,,,,,,,,,,,,,
,,5c5862c74339fd0001a8a41a,2024-02-18_20h12.16.345,kallum_motion_pilot,2023.2.2,Win32,58.82352941,5c5862c74339fd0001a8a41a,65d2b6c8f2eece985d8e374c,65d2b8eefe7a391178aea35a,0.066,0.066,1,21,183,53,1,threefour,,,,,,,,,,,,,,,,,,,,,,,,,,,,,,,,,,,,,,,,,,,,,,,,,,,,,,,,,,,,,,,,,,,,,,,,,,,,,,,,,,,,,,,,,,,,,,,,,,,,,,,,,,,,,,,,,,,,,,,,,,,,,,,,,,,,,,,,,
,,5c5862c74339fd0001a8a41a,2024-02-18_20h12.16.345,kallum_motion_pilot,2023.2.2,Win32,58.82352941,5c5862c74339fd0001a8a41a,65d2b6c8f2eece985d8e374c,65d2b8eefe7a391178aea35a,0.066,0.066,1,22,184,151,1,eightseven,,,,,,,,,,,,,,,,,,,,,,,,,,,,,,,,,,,,,,,,,,,,,,,,,,,,,,,,,,,,,,,,,,,,,,,,,,,,,,,,,,,,,,,,,,,,,,,,,,,,,,,,,,,,,,,,,,,,,,,,,,,,,,,,,,,,,,,,,
,,5c5862c74339fd0001a8a41a,2024-02-18_20h12.16.345,kallum_motion_pilot,2023.2.2,Win32,58.82352941,5c5862c74339fd0001a8a41a,65d2b6c8f2eece985d8e374c,65d2b8eefe7a391178aea35a,0.067,0.067,1,23,185,4,1,threeone,,,,,,,,,,,,,,,,,,,,,,,,,,,,,,,,,,,,,,,,,,,,,,,,,,,,,,,,,,,,,,,,,,,,,,,,,,,,,,,,,,,,,,,,,,,,,,,,,,,,,,,,,,,,,,,,,,,,,,,,,,,,,,,,,,,,,,,,,
,,5c5862c74339fd0001a8a41a,2024-02-18_20h12.16.345,kallum_motion_pilot,2023.2.2,Win32,58.82352941,5c5862c74339fd0001a8a41a,65d2b6c8f2eece985d8e374c,65d2b8eefe7a391178aea35a,0.067,0.068,1,24,186,81,1,fiveseven,,,,,,,,,,,,,,,,,,,,,,,,,,,,,,,,,,,,,,,,,,,,,,,,,,,,,,,,,,,,,,,,,,,,,,,,,,,,,,,,,,,,,,,,,,,,,,,,,,,,,,,,,,,,,,,,,,,,,,,,,,,,,,,,,,,,,,,,,
,,5c5862c74339fd0001a8a41a,2024-02-18_20h12.16.345,kallum_motion_pilot,2023.2.2,Win32,58.82352941,5c5862c74339fd0001a8a41a,65d2b6c8f2eece985d8e374c,65d2b8eefe7a391178aea35a,0.068,0.068,1,25,187,41,1,onethree,,,,,,,,,,,,,,,,,,,,,,,,,,,,,,,,,,,,,,,,,,,,,,,,,,,,,,,,,,,,,,,,,,,,,,,,,,,,,,,,,,,,,,,,,,,,,,,,,,,,,,,,,,,,,,,,,,,,,,,,,,,,,,,,,,,,,,,,,
,,5c5862c74339fd0001a8a41a,2024-02-18_20h12.16.345,kallum_motion_pilot,2023.2.2,Win32,58.82352941,5c5862c74339fd0001a8a41a,65d2b6c8f2eece985d8e374c,65d2b8eefe7a391178aea35a,0.068,0.068,1,26,188,17,1,onethree,,,,,,,,,,,,,,,,,,,,,,,,,,,,,,,,,,,,,,,,,,,,,,,,,,,,,,,,,,,,,,,,,,,,,,,,,,,,,,,,,,,,,,,,,,,,,,,,,,,,,,,,,,,,,,,,,,,,,,,,,,,,,,,,,,,,,,,,,
,,5c5862c74339fd0001a8a41a,2024-02-18_20h12.16.345,kallum_motion_pilot,2023.2.2,Win32,58.82352941,5c5862c74339fd0001a8a41a,65d2b6c8f2eece985d8e374c,65d2b8eefe7a391178aea35a,0.068,0.068,1,27,189,156,1,sevenfive,,,,,,,,,,,,,,,,,,,,,,,,,,,,,,,,,,,,,,,,,,,,,,,,,,,,,,,,,,,,,,,,,,,,,,,,,,,,,,,,,,,,,,,,,,,,,,,,,,,,,,,,,,,,,,,,,,,,,,,,,,,,,,,,,,,,,,,,,
,,5c5862c74339fd0001a8a41a,2024-02-18_20h12.16.345,kallum_motion_pilot,2023.2.2,Win32,58.82352941,5c5862c74339fd0001a8a41a,65d2b6c8f2eece985d8e374c,65d2b8eefe7a391178aea35a,0.068,0.068,1,28,190,34,1,twoone,,,,,,,,,,,,,,,,,,,,,,,,,,,,,,,,,,,,,,,,,,,,,,,,,,,,,,,,,,,,,,,,,,,,,,,,,,,,,,,,,,,,,,,,,,,,,,,,,,,,,,,,,,,,,,,,,,,,,,,,,,,,,,,,,,,,,,,,,
,,5c5862c74339fd0001a8a41a,2024-02-18_20h12.16.345,kallum_motion_pilot,2023.2.2,Win32,58.82352941,5c5862c74339fd0001a8a41a,65d2b6c8f2eece985d8e374c,65d2b8eefe7a391178aea35a,0.068,0.068,1,29,191,40,1,onetwo,,,,,,,,,,,,,,,,,,,,,,,,,,,,,,,,,,,,,,,,,,,,,,,,,,,,,,,,,,,,,,,,,,,,,,,,,,,,,,,,,,,,,,,,,,,,,,,,,,,,,,,,,,,,,,,,,,,,,,,,,,,,,,,,,,,,,,,,,
,,5c5862c74339fd0001a8a41a,2024-02-18_20h12.16.345,kallum_motion_pilot,2023.2.2,Win32,58.82352941,5c5862c74339fd0001a8a41a,65d2b6c8f2eece985d8e374c,65d2b8eefe7a391178aea35a,0.068,0.068,1,30,192,38,1,fourtwo,,,,,,,,,,,,,,,,,,,,,,,,,,,,,,,,,,,,,,,,,,,,,,,,,,,,,,,,,,,,,,,,,,,,,,,,,,,,,,,,,,,,,,,,,,,,,,,,,,,,,,,,,,,,,,,,,,,,,,,,,,,,,,,,,,,,,,,,,
,,5c5862c74339fd0001a8a41a,2024-02-18_20h12.16.345,kallum_motion_pilot,2023.2.2,Win32,58.82352941,5c5862c74339fd0001a8a41a,65d2b6c8f2eece985d8e374c,65d2b8eefe7a391178aea35a,0.068,0.068,1,31,193,80,1,fivesix,,,,,,,,,,,,,,,,,,,,,,,,,,,,,,,,,,,,,,,,,,,,,,,,,,,,,,,,,,,,,,,,,,,,,,,,,,,,,,,,,,,,,,,,,,,,,,,,,,,,,,,,,,,,,,,,,,,,,,,,,,,,,,,,,,,,,,,,,
,,5c5862c74339fd0001a8a41a,2024-02-18_20h12.16.345,kallum_motion_pilot,2023.2.2,Win32,58.82352941,5c5862c74339fd0001a8a41a,65d2b6c8f2eece985d8e374c,65d2b8eefe7a391178aea35a,0.069,0.069,1,32,194,157,1,seveneight,,,,,,,,,,,,,,,,,,,,,,,,,,,,,,,,,,,,,,,,,,,,,,,,,,,,,,,,,,,,,,,,,,,,,,,,,,,,,,,,,,,,,,,,,,,,,,,,,,,,,,,,,,,,,,,,,,,,,,,,,,,,,,,,,,,,,,,,,
,,5c5862c74339fd0001a8a41a,2024-02-18_20h12.16.345,kallum_motion_pilot,2023.2.2,Win32,58.82352941,5c5862c74339fd0001a8a41a,65d2b6c8f2eece985d8e374c,65d2b8eefe7a391178aea35a,0.069,0.069,1,33,195,129,1,fiveseven,,,,,,,,,,,,,,,,,,,,,,,,,,,,,,,,,,,,,,,,,,,,,,,,,,,,,,,,,,,,,,,,,,,,,,,,,,,,,,,,,,,,,,,,,,,,,,,,,,,,,,,,,,,,,,,,,,,,,,,,,,,,,,,,,,,,,,,,,
,,5c5862c74339fd0001a8a41a,2024-02-18_20h12.16.345,kallum_motion_pilot,2023.2.2,Win32,58.82352941,5c5862c74339fd0001a8a41a,65d2b6c8f2eece985d8e374c,65d2b8eefe7a391178aea35a,0.069,0.069,1,34,196,125,1,seveneight,,,,,,,,,,,,,,,,,,,,,,,,,,,,,,,,,,,,,,,,,,,,,,,,,,,,,,,,,,,,,,,,,,,,,,,,,,,,,,,,,,,,,,,,,,,,,,,,,,,,,,,,,,,,,,,,,,,,,,,,,,,,,,,,,,,,,,,,,
,,5c5862c74339fd0001a8a41a,2024-02-18_20h12.16.345,kallum_motion_pilot,2023.2.2,Win32,58.82352941,5c5862c74339fd0001a8a41a,65d2b6c8f2eece985d8e374c,65d2b8eefe7a391178aea35a,0.069,0.069,1,35,197,88,1,fivesix,,,,,,,,,,,,,,,,,,,,,,,,,,,,,,,,,,,,,,,,,,,,,,,,,,,,,,,,,,,,,,,,,,,,,,,,,,,,,,,,,,,,,,,,,,,,,,,,,,,,,,,,,,,,,,,,,,,,,,,,,,,,,,,,,,,,,,,,,
,,5c5862c74339fd0001a8a41a,2024-02-18_20h12.16.345,kallum_motion_pilot,2023.2.2,Win32,58.82352941,5c5862c74339fd0001a8a41a,65d2b6c8f2eece985d8e374c,65d2b8eefe7a391178aea35a,0.069,0.069,1,36,198,63,1,fourthree,,,,,,,,,,,,,,,,,,,,,,,,,,,,,,,,,,,,,,,,,,,,,,,,,,,,,,,,,,,,,,,,,,,,,,,,,,,,,,,,,,,,,,,,,,,,,,,,,,,,,,,,,,,,,,,,,,,,,,,,,,,,,,,,,,,,,,,,,
,,5c5862c74339fd0001a8a41a,2024-02-18_20h12.16.345,kallum_motion_pilot,2023.2.2,Win32,58.82352941,5c5862c74339fd0001a8a41a,65d2b6c8f2eece985d8e374c,65d2b8eefe7a391178aea35a,0.069,0.07,1,37,199,1,1,onethree,,,,,,,,,,,,,,,,,,,,,,,,,,,,,,,,,,,,,,,,,,,,,,,,,,,,,,,,,,,,,,,,,,,,,,,,,,,,,,,,,,,,,,,,,,,,,,,,,,,,,,,,,,,,,,,,,,,,,,,,,,,,,,,,,,,,,,,,,
,,5c5862c74339fd0001a8a41a,2024-02-18_20h12.16.345,kallum_motion_pilot,2023.2.2,Win32,58.82352941,5c5862c74339fd0001a8a41a,65d2b6c8f2eece985d8e374c,65d2b8eefe7a391178aea35a,0.07,0.07,1,38,200,117,1,seveneight,,,,,,,,,,,,,,,,,,,,,,,,,,,,,,,,,,,,,,,,,,,,,,,,,,,,,,,,,,,,,,,,,,,,,,,,,,,,,,,,,,,,,,,,,,,,,,,,,,,,,,,,,,,,,,,,,,,,,,,,,,,,,,,,,,,,,,,,,
,,5c5862c74339fd0001a8a41a,2024-02-18_20h12.16.345,kallum_motion_pilot,2023.2.2,Win32,58.82352941,5c5862c74339fd0001a8a41a,65d2b6c8f2eece985d8e374c,65d2b8eefe7a391178aea35a,0.07,0.07,1,39,201,47,1,fourthree,,,,,,,,,,,,,,,,,,,,,,,,,,,,,,,,,,,,,,,,,,,,,,,,,,,,,,,,,,,,,,,,,,,,,,,,,,,,,,,,,,,,,,,,,,,,,,,,,,,,,,,,,,,,,,,,,,,,,,,,,,,,,,,,,,,,,,,,,
,,5c5862c74339fd0001a8a41a,2024-02-18_20h12.16.345,kallum_motion_pilot,2023.2.2,Win32,58.82352941,5c5862c74339fd0001a8a41a,65d2b6c8f2eece985d8e374c,65d2b8eefe7a391178aea35a,0.07,0.071,1,40,202,113,1,fiveseven,,,,,,,,,,,,,,,,,,,,,,,,,,,,,,,,,,,,,,,,,,,,,,,,,,,,,,,,,,,,,,,,,,,,,,,,,,,,,,,,,,,,,,,,,,,,,,,,,,,,,,,,,,,,,,,,,,,,,,,,,,,,,,,,,,,,,,,,,
,,5c5862c74339fd0001a8a41a,2024-02-18_20h12.16.345,kallum_motion_pilot,2023.2.2,Win32,58.82352941,5c5862c74339fd0001a8a41a,65d2b6c8f2eece985d8e374c,65d2b8eefe7a391178aea35a,0.071,0.071,1,41,203,123,1,sixeight,,,,,,,,,,,,,,,,,,,,,,,,,,,,,,,,,,,,,,,,,,,,,,,,,,,,,,,,,,,,,,,,,,,,,,,,,,,,,,,,,,,,,,,,,,,,,,,,,,,,,,,,,,,,,,,,,,,,,,,,,,,,,,,,,,,,,,,,,
,,5c5862c74339fd0001a8a41a,2024-02-18_20h12.16.345,kallum_motion_pilot,2023.2.2,Win32,58.82352941,5c5862c74339fd0001a8a41a,65d2b6c8f2eece985d8e374c,65d2b8eefe7a391178aea35a,0.071,0.071,1,42,204,137,1,fiveseven,,,,,,,,,,,,,,,,,,,,,,,,,,,,,,,,,,,,,,,,,,,,,,,,,,,,,,,,,,,,,,,,,,,,,,,,,,,,,,,,,,,,,,,,,,,,,,,,,,,,,,,,,,,,,,,,,,,,,,,,,,,,,,,,,,,,,,,,,
,,5c5862c74339fd0001a8a41a,2024-02-18_20h12.16.345,kallum_motion_pilot,2023.2.2,Win32,58.82352941,5c5862c74339fd0001a8a41a,65d2b6c8f2eece985d8e374c,65d2b8eefe7a391178aea35a,0.071,0.071,1,43,205,70,1,fourtwo,,,,,,,,,,,,,,,,,,,,,,,,,,,,,,,,,,,,,,,,,,,,,,,,,,,,,,,,,,,,,,,,,,,,,,,,,,,,,,,,,,,,,,,,,,,,,,,,,,,,,,,,,,,,,,,,,,,,,,,,,,,,,,,,,,,,,,,,,
,,5c5862c74339fd0001a8a41a,2024-02-18_20h12.16.345,kallum_motion_pilot,2023.2.2,Win32,58.82352941,5c5862c74339fd0001a8a41a,65d2b6c8f2eece985d8e374c,65d2b8eefe7a391178aea35a,0.071,0.071,1,44,206,23,1,fourthree,,,,,,,,,,,,,,,,,,,,,,,,,,,,,,,,,,,,,,,,,,,,,,,,,,,,,,,,,,,,,,,,,,,,,,,,,,,,,,,,,,,,,,,,,,,,,,,,,,,,,,,,,,,,,,,,,,,,,,,,,,,,,,,,,,,,,,,,,
,,5c5862c74339fd0001a8a41a,2024-02-18_20h12.16.345,kallum_motion_pilot,2023.2.2,Win32,58.82352941,5c5862c74339fd0001a8a41a,65d2b6c8f2eece985d8e374c,65d2b8eefe7a391178aea35a,0.071,0.071,1,45,207,146,1,sixfive,,,,,,,,,,,,,,,,,,,,,,,,,,,,,,,,,,,,,,,,,,,,,,,,,,,,,,,,,,,,,,,,,,,,,,,,,,,,,,,,,,,,,,,,,,,,,,,,,,,,,,,,,,,,,,,,,,,,,,,,,,,,,,,,,,,,,,,,,
,,5c5862c74339fd0001a8a41a,2024-02-18_20h12.16.345,kallum_motion_pilot,2023.2.2,Win32,58.82352941,5c5862c74339fd0001a8a41a,65d2b6c8f2eece985d8e374c,65d2b8eefe7a391178aea35a,0.072,0.072,1,46,208,150,1,eightsix,,,,,,,,,,,,,,,,,,,,,,,,,,,,,,,,,,,,,,,,,,,,,,,,,,,,,,,,,,,,,,,,,,,,,,,,,,,,,,,,,,,,,,,,,,,,,,,,,,,,,,,,,,,,,,,,,,,,,,,,,,,,,,,,,,,,,,,,,
,,5c5862c74339fd0001a8a41a,2024-02-18_20h12.16.345,kallum_motion_pilot,2023.2.2,Win32,58.82352941,5c5862c74339fd0001a8a41a,65d2b6c8f2eece985d8e374c,65d2b8eefe7a391178aea35a,0.072,0.072,1,47,209,14,1,fourtwo,,,,,,,,,,,,,,,,,,,,,,,,,,,,,,,,,,,,,,,,,,,,,,,,,,,,,,,,,,,,,,,,,,,,,,,,,,,,,,,,,,,,,,,,,,,,,,,,,,,,,,,,,,,,,,,,,,,,,,,,,,,,,,,,,,,,,,,,,
,,5c5862c74339fd0001a8a41a,2024-02-18_20h12.16.345,kallum_motion_pilot,2023.2.2,Win32,58.82352941,5c5862c74339fd0001a8a41a,65d2b6c8f2eece985d8e374c,65d2b8eefe7a391178aea35a,0.072,0.073,1,48,210,161,1,fiveseven,,,,,,,,,,,,,,,,,,,,,,,,,,,,,,,,,,,,,,,,,,,,,,,,,,,,,,,,,,,,,,,,,,,,,,,,,,,,,,,,,,,,,,,,,,,,,,,,,,,,,,,,,,,,,,,,,,,,,,,,,,,,,,,,,,,,,,,,,
,,5c5862c74339fd0001a8a41a,2024-02-18_20h12.16.345,kallum_motion_pilot,2023.2.2,Win32,58.82352941,5c5862c74339fd0001a8a41a,65d2b6c8f2eece985d8e374c,65d2b8eefe7a391178aea35a,0.073,0.073,1,49,211,13,1,threefour,,,,,,,,,,,,,,,,,,,,,,,,,,,,,,,,,,,,,,,,,,,,,,,,,,,,,,,,,,,,,,,,,,,,,,,,,,,,,,,,,,,,,,,,,,,,,,,,,,,,,,,,,,,,,,,,,,,,,,,,,,,,,,,,,,,,,,,,,
,,5c5862c74339fd0001a8a41a,2024-02-18_20h12.16.345,kallum_motion_pilot,2023.2.2,Win32,58.82352941,5c5862c74339fd0001a8a41a,65d2b6c8f2eece985d8e374c,65d2b8eefe7a391178aea35a,0.073,0.073,1,50,212,68,1,threeone,,,,,,,,,,,,,,,,,,,,,,,,,,,,,,,,,,,,,,,,,,,,,,,,,,,,,,,,,,,,,,,,,,,,,,,,,,,,,,,,,,,,,,,,,,,,,,,,,,,,,,,,,,,,,,,,,,,,,,,,,,,,,,,,,,,,,,,,,
,,5c5862c74339fd0001a8a41a,2024-02-18_20h12.16.345,kallum_motion_pilot,2023.2.2,Win32,58.82352941,5c5862c74339fd0001a8a41a,65d2b6c8f2eece985d8e374c,65d2b8eefe7a391178aea35a,0.073,0.073,1,51,213,15,1,fourthree,,,,,,,,,,,,,,,,,,,,,,,,,,,,,,,,,,,,,,,,,,,,,,,,,,,,,,,,,,,,,,,,,,,,,,,,,,,,,,,,,,,,,,,,,,,,,,,,,,,,,,,,,,,,,,,,,,,,,,,,,,,,,,,,,,,,,,,,,
,,5c5862c74339fd0001a8a41a,2024-02-18_20h12.16.345,kallum_motion_pilot,2023.2.2,Win32,58.82352941,5c5862c74339fd0001a8a41a,65d2b6c8f2eece985d8e374c,65d2b8eefe7a391178aea35a,0.073,0.073,1,52,214,3,1,twofour,,,,,,,,,,,,,,,,,,,,,,,,,,,,,,,,,,,,,,,,,,,,,,,,,,,,,,,,,,,,,,,,,,,,,,,,,,,,,,,,,,,,,,,,,,,,,,,,,,,,,,,,,,,,,,,,,,,,,,,,,,,,,,,,,,,,,,,,,
,,5c5862c74339fd0001a8a41a,2024-02-18_20h12.16.345,kallum_motion_pilot,2023.2.2,Win32,58.82352941,5c5862c74339fd0001a8a41a,65d2b6c8f2eece985d8e374c,65d2b8eefe7a391178aea35a,0.073,0.073,1,53,215,132,1,sevenfive,,,,,,,,,,,,,,,,,,,,,,,,,,,,,,,,,,,,,,,,,,,,,,,,,,,,,,,,,,,,,,,,,,,,,,,,,,,,,,,,,,,,,,,,,,,,,,,,,,,,,,,,,,,,,,,,,,,,,,,,,,,,,,,,,,,,,,,,,
,,5c5862c74339fd0001a8a41a,2024-02-18_20h12.16.345,kallum_motion_pilot,2023.2.2,Win32,58.82352941,5c5862c74339fd0001a8a41a,65d2b6c8f2eece985d8e374c,65d2b8eefe7a391178aea35a,0.073,0.073,1,54,216,97,1,fiveseven,,,,,,,,,,,,,,,,,,,,,,,,,,,,,,,,,,,,,,,,,,,,,,,,,,,,,,,,,,,,,,,,,,,,,,,,,,,,,,,,,,,,,,,,,,,,,,,,,,,,,,,,,,,,,,,,,,,,,,,,,,,,,,,,,,,,,,,,,
,,5c5862c74339fd0001a8a41a,2024-02-18_20h12.16.345,kallum_motion_pilot,2023.2.2,Win32,58.82352941,5c5862c74339fd0001a8a41a,65d2b6c8f2eece985d8e374c,65d2b8eefe7a391178aea35a,0.073,0.073,1,55,217,128,1,fivesix,,,,,,,,,,,,,,,,,,,,,,,,,,,,,,,,,,,,,,,,,,,,,,,,,,,,,,,,,,,,,,,,,,,,,,,,,,,,,,,,,,,,,,,,,,,,,,,,,,,,,,,,,,,,,,,,,,,,,,,,,,,,,,,,,,,,,,,,,
,,5c5862c74339fd0001a8a41a,2024-02-18_20h12.16.345,kallum_motion_pilot,2023.2.2,Win32,58.82352941,5c5862c74339fd0001a8a41a,65d2b6c8f2eece985d8e374c,65d2b8eefe7a391178aea35a,0.074,0.074,1,56,218,122,1,sixfive,,,,,,,,,,,,,,,,,,,,,,,,,,,,,,,,,,,,,,,,,,,,,,,,,,,,,,,,,,,,,,,,,,,,,,,,,,,,,,,,,,,,,,,,,,,,,,,,,,,,,,,,,,,,,,,,,,,,,,,,,,,,,,,,,,,,,,,,,
,,5c5862c74339fd0001a8a41a,2024-02-18_20h12.16.345,kallum_motion_pilot,2023.2.2,Win32,58.82352941,5c5862c74339fd0001a8a41a,65d2b6c8f2eece985d8e374c,65d2b8eefe7a391178aea35a,0.074,0.074,1,57,219,85,1,seveneight,,,,,,,,,,,,,,,,,,,,,,,,,,,,,,,,,,,,,,,,,,,,,,,,,,,,,,,,,,,,,,,,,,,,,,,,,,,,,,,,,,,,,,,,,,,,,,,,,,,,,,,,,,,,,,,,,,,,,,,,,,,,,,,,,,,,,,,,,
,,5c5862c74339fd0001a8a41a,2024-02-18_20h12.16.345,kallum_motion_pilot,2023.2.2,Win32,58.82352941,5c5862c74339fd0001a8a41a,65d2b6c8f2eece985d8e374c,65d2b8eefe7a391178aea35a,0.074,0.074,1,58,220,126,1,eightsix,,,,,,,,,,,,,,,,,,,,,,,,,,,,,,,,,,,,,,,,,,,,,,,,,,,,,,,,,,,,,,,,,,,,,,,,,,,,,,,,,,,,,,,,,,,,,,,,,,,,,,,,,,,,,,,,,,,,,,,,,,,,,,,,,,,,,,,,,
,,5c5862c74339fd0001a8a41a,2024-02-18_20h12.16.345,kallum_motion_pilot,2023.2.2,Win32,58.82352941,5c5862c74339fd0001a8a41a,65d2b6c8f2eece985d8e374c,65d2b8eefe7a391178aea35a,0.075,0.075,1,59,221,87,1,eightseven,,,,,,,,,,,,,,,,,,,,,,,,,,,,,,,,,,,,,,,,,,,,,,,,,,,,,,,,,,,,,,,,,,,,,,,,,,,,,,,,,,,,,,,,,,,,,,,,,,,,,,,,,,,,,,,,,,,,,,,,,,,,,,,,,,,,,,,,,
,,5c5862c74339fd0001a8a41a,2024-02-18_20h12.16.345,kallum_motion_pilot,2023.2.2,Win32,58.82352941,5c5862c74339fd0001a8a41a,65d2b6c8f2eece985d8e374c,65d2b8eefe7a391178aea35a,0.075,0.075,1,60,222,37,1,threefour,,,,,,,,,,,,,,,,,,,,,,,,,,,,,,,,,,,,,,,,,,,,,,,,,,,,,,,,,,,,,,,,,,,,,,,,,,,,,,,,,,,,,,,,,,,,,,,,,,,,,,,,,,,,,,,,,,,,,,,,,,,,,,,,,,,,,,,,,
,,5c5862c74339fd0001a8a41a,2024-02-18_20h12.16.345,kallum_motion_pilot,2023.2.2,Win32,58.82352941,5c5862c74339fd0001a8a41a,65d2b6c8f2eece985d8e374c,65d2b8eefe7a391178aea35a,0.076,0.076,1,61,223,133,1,seveneight,,,,,,,,,,,,,,,,,,,,,,,,,,,,,,,,,,,,,,,,,,,,,,,,,,,,,,,,,,,,,,,,,,,,,,,,,,,,,,,,,,,,,,,,,,,,,,,,,,,,,,,,,,,,,,,,,,,,,,,,,,,,,,,,,,,,,,,,,
,,5c5862c74339fd0001a8a41a,2024-02-18_20h12.16.345,kallum_motion_pilot,2023.2.2,Win32,58.82352941,5c5862c74339fd0001a8a41a,65d2b6c8f2eece985d8e374c,65d2b8eefe7a391178aea35a,0.076,0.076,1,62,224,107,1,sixeight,,,,,,,,,,,,,,,,,,,,,,,,,,,,,,,,,,,,,,,,,,,,,,,,,,,,,,,,,,,,,,,,,,,,,,,,,,,,,,,,,,,,,,,,,,,,,,,,,,,,,,,,,,,,,,,,,,,,,,,,,,,,,,,,,,,,,,,,,
,,5c5862c74339fd0001a8a41a,2024-02-18_20h12.16.345,kallum_motion_pilot,2023.2.2,Win32,58.82352941,5c5862c74339fd0001a8a41a,65d2b6c8f2eece985d8e374c,65d2b8eefe7a391178aea35a,0.076,0.076,1,63,225,105,1,fiveseven,,,,,,,,,,,,,,,,,,,,,,,,,,,,,,,,,,,,,,,,,,,,,,,,,,,,,,,,,,,,,,,,,,,,,,,,,,,,,,,,,,,,,,,,,,,,,,,,,,,,,,,,,,,,,,,,,,,,,,,,,,,,,,,,,,,,,,,,,
,,5c5862c74339fd0001a8a41a,2024-02-18_20h12.16.345,kallum_motion_pilot,2023.2.2,Win32,58.82352941,5c5862c74339fd0001a8a41a,65d2b6c8f2eece985d8e374c,65d2b8eefe7a391178aea35a,0.076,0.077,1,64,226,77,1,threefour,,,,,,,,,,,,,,,,,,,,,,,,,,,,,,,,,,,,,,,,,,,,,,,,,,,,,,,,,,,,,,,,,,,,,,,,,,,,,,,,,,,,,,,,,,,,,,,,,,,,,,,,,,,,,,,,,,,,,,,,,,,,,,,,,,,,,,,,,
,,5c5862c74339fd0001a8a41a,2024-02-18_20h12.16.345,kallum_motion_pilot,2023.2.2,Win32,58.82352941,5c5862c74339fd0001a8a41a,65d2b6c8f2eece985d8e374c,65d2b8eefe7a391178aea35a,0.077,0.077,1,65,227,57,1,onethree,,,,,,,,,,,,,,,,,,,,,,,,,,,,,,,,,,,,,,,,,,,,,,,,,,,,,,,,,,,,,,,,,,,,,,,,,,,,,,,,,,,,,,,,,,,,,,,,,,,,,,,,,,,,,,,,,,,,,,,,,,,,,,,,,,,,,,,,,
,,5c5862c74339fd0001a8a41a,2024-02-18_20h12.16.345,kallum_motion_pilot,2023.2.2,Win32,58.82352941,5c5862c74339fd0001a8a41a,65d2b6c8f2eece985d8e374c,65d2b8eefe7a391178aea35a,0.077,0.077,1,66,228,60,1,threeone,,,,,,,,,,,,,,,,,,,,,,,,,,,,,,,,,,,,,,,,,,,,,,,,,,,,,,,,,,,,,,,,,,,,,,,,,,,,,,,,,,,,,,,,,,,,,,,,,,,,,,,,,,,,,,,,,,,,,,,,,,,,,,,,,,,,,,,,,
,,5c5862c74339fd0001a8a41a,2024-02-18_20h12.16.345,kallum_motion_pilot,2023.2.2,Win32,58.82352941,5c5862c74339fd0001a8a41a,65d2b6c8f2eece985d8e374c,65d2b8eefe7a391178aea35a,0.077,0.077,1,67,229,45,1,threefour,,,,,,,,,,,,,,,,,,,,,,,,,,,,,,,,,,,,,,,,,,,,,,,,,,,,,,,,,,,,,,,,,,,,,,,,,,,,,,,,,,,,,,,,,,,,,,,,,,,,,,,,,,,,,,,,,,,,,,,,,,,,,,,,,,,,,,,,,
,,5c5862c74339fd0001a8a41a,2024-02-18_20h12.16.345,kallum_motion_pilot,2023.2.2,Win32,58.82352941,5c5862c74339fd0001a8a41a,65d2b6c8f2eece985d8e374c,65d2b8eefe7a391178aea35a,0.077,0.077,1,68,230,30,1,fourtwo,,,,,,,,,,,,,,,,,,,,,,,,,,,,,,,,,,,,,,,,,,,,,,,,,,,,,,,,,,,,,,,,,,,,,,,,,,,,,,,,,,,,,,,,,,,,,,,,,,,,,,,,,,,,,,,,,,,,,,,,,,,,,,,,,,,,,,,,,
,,5c5862c74339fd0001a8a41a,2024-02-18_20h12.16.345,kallum_motion_pilot,2023.2.2,Win32,58.82352941,5c5862c74339fd0001a8a41a,65d2b6c8f2eece985d8e374c,65d2b8eefe7a391178aea35a,0.078,0.078,1,69,231,31,1,fourthree,,,,,,,,,,,,,,,,,,,,,,,,,,,,,,,,,,,,,,,,,,,,,,,,,,,,,,,,,,,,,,,,,,,,,,,,,,,,,,,,,,,,,,,,,,,,,,,,,,,,,,,,,,,,,,,,,,,,,,,,,,,,,,,,,,,,,,,,,
,,5c5862c74339fd0001a8a41a,2024-02-18_20h12.16.345,kallum_motion_pilot,2023.2.2,Win32,58.82352941,5c5862c74339fd0001a8a41a,65d2b6c8f2eece985d8e374c,65d2b8eefe7a391178aea35a,0.078,0.078,1,70,232,127,1,eightseven,,,,,,,,,,,,,,,,,,,,,,,,,,,,,,,,,,,,,,,,,,,,,,,,,,,,,,,,,,,,,,,,,,,,,,,,,,,,,,,,,,,,,,,,,,,,,,,,,,,,,,,,,,,,,,,,,,,,,,,,,,,,,,,,,,,,,,,,,
,,5c5862c74339fd0001a8a41a,2024-02-18_20h12.16.345,kallum_motion_pilot,2023.2.2,Win32,58.82352941,5c5862c74339fd0001a8a41a,65d2b6c8f2eece985d8e374c,65d2b8eefe7a391178aea35a,0.078,0.078,1,71,233,8,1,onetwo,,,,,,,,,,,,,,,,,,,,,,,,,,,,,,,,,,,,,,,,,,,,,,,,,,,,,,,,,,,,,,,,,,,,,,,,,,,,,,,,,,,,,,,,,,,,,,,,,,,,,,,,,,,,,,,,,,,,,,,,,,,,,,,,,,,,,,,,,
,,5c5862c74339fd0001a8a41a,2024-02-18_20h12.16.345,kallum_motion_pilot,2023.2.2,Win32,58.82352941,5c5862c74339fd0001a8a41a,65d2b6c8f2eece985d8e374c,65d2b8eefe7a391178aea35a,0.078,0.078,1,72,234,116,1,sevenfive,,,,,,,,,,,,,,,,,,,,,,,,,,,,,,,,,,,,,,,,,,,,,,,,,,,,,,,,,,,,,,,,,,,,,,,,,,,,,,,,,,,,,,,,,,,,,,,,,,,,,,,,,,,,,,,,,,,,,,,,,,,,,,,,,,,,,,,,,
,,5c5862c74339fd0001a8a41a,2024-02-18_20h12.16.345,kallum_motion_pilot,2023.2.2,Win32,58.82352941,5c5862c74339fd0001a8a41a,65d2b6c8f2eece985d8e374c,65d2b8eefe7a391178aea35a,0.078,0.078,1,73,235,144,1,fivesix,,,,,,,,,,,,,,,,,,,,,,,,,,,,,,,,,,,,,,,,,,,,,,,,,,,,,,,,,,,,,,,,,,,,,,,,,,,,,,,,,,,,,,,,,,,,,,,,,,,,,,,,,,,,,,,,,,,,,,,,,,,,,,,,,,,,,,,,,
,,5c5862c74339fd0001a8a41a,2024-02-18_20h12.16.345,kallum_motion_pilot,2023.2.2,Win32,58.82352941,5c5862c74339fd0001a8a41a,65d2b6c8f2eece985d8e374c,65d2b8eefe7a391178aea35a,0.078,0.078,1,74,236,36,1,threeone,,,,,,,,,,,,,,,,,,,,,,,,,,,,,,,,,,,,,,,,,,,,,,,,,,,,,,,,,,,,,,,,,,,,,,,,,,,,,,,,,,,,,,,,,,,,,,,,,,,,,,,,,,,,,,,,,,,,,,,,,,,,,,,,,,,,,,,,,
,,5c5862c74339fd0001a8a41a,2024-02-18_20h12.16.345,kallum_motion_pilot,2023.2.2,Win32,58.82352941,5c5862c74339fd0001a8a41a,65d2b6c8f2eece985d8e374c,65d2b8eefe7a391178aea35a,0.078,0.079,1,75,237,152,1,fivesix,,,,,,,,,,,,,,,,,,,,,,,,,,,,,,,,,,,,,,,,,,,,,,,,,,,,,,,,,,,,,,,,,,,,,,,,,,,,,,,,,,,,,,,,,,,,,,,,,,,,,,,,,,,,,,,,,,,,,,,,,,,,,,,,,,,,,,,,,
,,5c5862c74339fd0001a8a41a,2024-02-18_20h12.16.345,kallum_motion_pilot,2023.2.2,Win32,58.82352941,5c5862c74339fd0001a8a41a,65d2b6c8f2eece985d8e374c,65d2b8eefe7a391178aea35a,0.079,0.079,1,76,238,118,1,eightsix,,,,,,,,,,,,,,,,,,,,,,,,,,,,,,,,,,,,,,,,,,,,,,,,,,,,,,,,,,,,,,,,,,,,,,,,,,,,,,,,,,,,,,,,,,,,,,,,,,,,,,,,,,,,,,,,,,,,,,,,,,,,,,,,,,,,,,,,,
,,5c5862c74339fd0001a8a41a,2024-02-18_20h12.16.345,kallum_motion_pilot,2023.2.2,Win32,58.82352941,5c5862c74339fd0001a8a41a,65d2b6c8f2eece985d8e374c,65d2b8eefe7a391178aea35a,0.079,0.079,1,77,239,108,1,sevenfive,,,,,,,,,,,,,,,,,,,,,,,,,,,,,,,,,,,,,,,,,,,,,,,,,,,,,,,,,,,,,,,,,,,,,,,,,,,,,,,,,,,,,,,,,,,,,,,,,,,,,,,,,,,,,,,,,,,,,,,,,,,,,,,,,,,,,,,,,
,,5c5862c74339fd0001a8a41a,2024-02-18_20h12.16.345,kallum_motion_pilot,2023.2.2,Win32,58.82352941,5c5862c74339fd0001a8a41a,65d2b6c8f2eece985d8e374c,65d2b8eefe7a391178aea35a,0.079,0.08,1,78,240,101,1,seveneight,,,,,,,,,,,,,,,,,,,,,,,,,,,,,,,,,,,,,,,,,,,,,,,,,,,,,,,,,,,,,,,,,,,,,,,,,,,,,,,,,,,,,,,,,,,,,,,,,,,,,,,,,,,,,,,,,,,,,,,,,,,,,,,,,,,,,,,,,
,,5c5862c74339fd0001a8a41a,2024-02-18_20h12.16.345,kallum_motion_pilot,2023.2.2,Win32,58.82352941,5c5862c74339fd0001a8a41a,65d2b6c8f2eece985d8e374c,65d2b8eefe7a391178aea35a,0.08,0.081,1,79,241,130,1,sixfive,,,,,,,,,,,,,,,,,,,,,,,,,,,,,,,,,,,,,,,,,,,,,,,,,,,,,,,,,,,,,,,,,,,,,,,,,,,,,,,,,,,,,,,,,,,,,,,,,,,,,,,,,,,,,,,,,,,,,,,,,,,,,,,,,,,,,,,,,
,,5c5862c74339fd0001a8a41a,2024-02-18_20h12.16.345,kallum_motion_pilot,2023.2.2,Win32,58.82352941,5c5862c74339fd0001a8a41a,65d2b6c8f2eece985d8e374c,65d2b8eefe7a391178aea35a,0.081,0.081,1,80,242,54,1,fourtwo,,,,,,,,,,,,,,,,,,,,,,,,,,,,,,,,,,,,,,,,,,,,,,,,,,,,,,,,,,,,,,,,,,,,,,,,,,,,,,,,,,,,,,,,,,,,,,,,,,,,,,,,,,,,,,,,,,,,,,,,,,,,,,,,,,,,,,,,,
,,5c5862c74339fd0001a8a41a,2024-02-18_20h12.16.345,kallum_motion_pilot,2023.2.2,Win32,58.82352941,5c5862c74339fd0001a8a41a,65d2b6c8f2eece985d8e374c,65d2b8eefe7a391178aea35a,0.081,0.081,1,81,243,16,1,onetwo,,,,,,,,,,,,,,,,,,,,,,,,,,,,,,,,,,,,,,,,,,,,,,,,,,,,,,,,,,,,,,,,,,,,,,,,,,,,,,,,,,,,,,,,,,,,,,,,,,,,,,,,,,,,,,,,,,,,,,,,,,,,,,,,,,,,,,,,,
,,5c5862c74339fd0001a8a41a,2024-02-18_20h12.16.345,kallum_motion_pilot,2023.2.2,Win32,58.82352941,5c5862c74339fd0001a8a41a,65d2b6c8f2eece985d8e374c,65d2b8eefe7a391178aea35a,0.081,0.081,1,82,244,114,1,sixfive,,,,,,,,,,,,,,,,,,,,,,,,,,,,,,,,,,,,,,,,,,,,,,,,,,,,,,,,,,,,,,,,,,,,,,,,,,,,,,,,,,,,,,,,,,,,,,,,,,,,,,,,,,,,,,,,,,,,,,,,,,,,,,,,,,,,,,,,,
,,5c5862c74339fd0001a8a41a,2024-02-18_20h12.16.345,kallum_motion_pilot,2023.2.2,Win32,58.82352941,5c5862c74339fd0001a8a41a,65d2b6c8f2eece985d8e374c,65d2b8eefe7a391178aea35a,0.081,0.081,1,83,245,111,1,eightseven,,,,,,,,,,,,,,,,,,,,,,,,,,,,,,,,,,,,,,,,,,,,,,,,,,,,,,,,,,,,,,,,,,,,,,,,,,,,,,,,,,,,,,,,,,,,,,,,,,,,,,,,,,,,,,,,,,,,,,,,,,,,,,,,,,,,,,,,,
,,5c5862c74339fd0001a8a41a,2024-02-18_20h12.16.345,kallum_motion_pilot,2023.2.2,Win32,58.82352941,5c5862c74339fd0001a8a41a,65d2b6c8f2eece985d8e374c,65d2b8eefe7a391178aea35a,0.081,0.082,1,84,246,32,1,onetwo,,,,,,,,,,,,,,,,,,,,,,,,,,,,,,,,,,,,,,,,,,,,,,,,,,,,,,,,,,,,,,,,,,,,,,,,,,,,,,,,,,,,,,,,,,,,,,,,,,,,,,,,,,,,,,,,,,,,,,,,,,,,,,,,,,,,,,,,,
,,5c5862c74339fd0001a8a41a,2024-02-18_20h12.16.345,kallum_motion_pilot,2023.2.2,Win32,58.82352941,5c5862c74339fd0001a8a41a,65d2b6c8f2eece985d8e374c,65d2b8eefe7a391178aea35a,0.082,0.082,1,85,247,155,1,sixeight,,,,,,,,,,,,,,,,,,,,,,,,,,,,,,,,,,,,,,,,,,,,,,,,,,,,,,,,,,,,,,,,,,,,,,,,,,,,,,,,,,,,,,,,,,,,,,,,,,,,,,,,,,,,,,,,,,,,,,,,,,,,,,,,,,,,,,,,,
,,5c5862c74339fd0001a8a41a,2024-02-18_20h12.16.345,kallum_motion_pilot,2023.2.2,Win32,58.82352941,5c5862c74339fd0001a8a41a,65d2b6c8f2eece985d8e374c,65d2b8eefe7a391178aea35a,0.082,0.083,1,86,248,79,1,eightseven,,,,,,,,,,,,,,,,,,,,,,,,,,,,,,,,,,,,,,,,,,,,,,,,,,,,,,,,,,,,,,,,,,,,,,,,,,,,,,,,,,,,,,,,,,,,,,,,,,,,,,,,,,,,,,,,,,,,,,,,,,,,,,,,,,,,,,,,,
,,5c5862c74339fd0001a8a41a,2024-02-18_20h12.16.345,kallum_motion_pilot,2023.2.2,Win32,58.82352941,5c5862c74339fd0001a8a41a,65d2b6c8f2eece985d8e374c,65d2b8eefe7a391178aea35a,0.083,0.083,1,87,249,139,1,sixeight,,,,,,,,,,,,,,,,,,,,,,,,,,,,,,,,,,,,,,,,,,,,,,,,,,,,,,,,,,,,,,,,,,,,,,,,,,,,,,,,,,,,,,,,,,,,,,,,,,,,,,,,,,,,,,,,,,,,,,,,,,,,,,,,,,,,,,,,,
,,5c5862c74339fd0001a8a41a,2024-02-18_20h12.16.345,kallum_motion_pilot,2023.2.2,Win32,58.82352941,5c5862c74339fd0001a8a41a,65d2b6c8f2eece985d8e374c,65d2b8eefe7a391178aea35a,0.083,0.083,1,88,250,124,1,sevenfive,,,,,,,,,,,,,,,,,,,,,,,,,,,,,,,,,,,,,,,,,,,,,,,,,,,,,,,,,,,,,,,,,,,,,,,,,,,,,,,,,,,,,,,,,,,,,,,,,,,,,,,,,,,,,,,,,,,,,,,,,,,,,,,,,,,,,,,,,
,,5c5862c74339fd0001a8a41a,2024-02-18_20h12.16.345,kallum_motion_pilot,2023.2.2,Win32,58.82352941,5c5862c74339fd0001a8a41a,65d2b6c8f2eece985d8e374c,65d2b8eefe7a391178aea35a,0.083,0.083,1,89,251,59,1,twofour,,,,,,,,,,,,,,,,,,,,,,,,,,,,,,,,,,,,,,,,,,,,,,,,,,,,,,,,,,,,,,,,,,,,,,,,,,,,,,,,,,,,,,,,,,,,,,,,,,,,,,,,,,,,,,,,,,,,,,,,,,,,,,,,,,,,,,,,,
,,5c5862c74339fd0001a8a41a,2024-02-18_20h12.16.345,kallum_motion_pilot,2023.2.2,Win32,58.82352941,5c5862c74339fd0001a8a41a,65d2b6c8f2eece985d8e374c,65d2b8eefe7a391178aea35a,0.084,0.084,1,90,252,55,1,fourthree,,,,,,,,,,,,,,,,,,,,,,,,,,,,,,,,,,,,,,,,,,,,,,,,,,,,,,,,,,,,,,,,,,,,,,,,,,,,,,,,,,,,,,,,,,,,,,,,,,,,,,,,,,,,,,,,,,,,,,,,,,,,,,,,,,,,,,,,,
,,5c5862c74339fd0001a8a41a,2024-02-18_20h12.16.345,kallum_motion_pilot,2023.2.2,Win32,58.82352941,5c5862c74339fd0001a8a41a,65d2b6c8f2eece985d8e374c,65d2b8eefe7a391178aea35a,0.084,0.084,1,91,253,28,1,threeone,,,,,,,,,,,,,,,,,,,,,,,,,,,,,,,,,,,,,,,,,,,,,,,,,,,,,,,,,,,,,,,,,,,,,,,,,,,,,,,,,,,,,,,,,,,,,,,,,,,,,,,,,,,,,,,,,,,,,,,,,,,,,,,,,,,,,,,,,
,,5c5862c74339fd0001a8a41a,2024-02-18_20h12.16.345,kallum_motion_pilot,2023.2.2,Win32,58.82352941,5c5862c74339fd0001a8a41a,65d2b6c8f2eece985d8e374c,65d2b8eefe7a391178aea35a,0.084,0.084,1,92,254,39,1,fourthree,,,,,,,,,,,,,,,,,,,,,,,,,,,,,,,,,,,,,,,,,,,,,,,,,,,,,,,,,,,,,,,,,,,,,,,,,,,,,,,,,,,,,,,,,,,,,,,,,,,,,,,,,,,,,,,,,,,,,,,,,,,,,,,,,,,,,,,,,
,,5c5862c74339fd0001a8a41a,2024-02-18_20h12.16.345,kallum_motion_pilot,2023.2.2,Win32,58.82352941,5c5862c74339fd0001a8a41a,65d2b6c8f2eece985d8e374c,65d2b8eefe7a391178aea35a,0.085,0.085,1,93,255,35,1,twofour,,,,,,,,,,,,,,,,,,,,,,,,,,,,,,,,,,,,,,,,,,,,,,,,,,,,,,,,,,,,,,,,,,,,,,,,,,,,,,,,,,,,,,,,,,,,,,,,,,,,,,,,,,,,,,,,,,,,,,,,,,,,,,,,,,,,,,,,,
,,5c5862c74339fd0001a8a41a,2024-02-18_20h12.16.345,kallum_motion_pilot,2023.2.2,Win32,58.82352941,5c5862c74339fd0001a8a41a,65d2b6c8f2eece985d8e374c,65d2b8eefe7a391178aea35a,0.085,0.085,1,94,256,58,1,twoone,,,,,,,,,,,,,,,,,,,,,,,,,,,,,,,,,,,,,,,,,,,,,,,,,,,,,,,,,,,,,,,,,,,,,,,,,,,,,,,,,,,,,,,,,,,,,,,,,,,,,,,,,,,,,,,,,,,,,,,,,,,,,,,,,,,,,,,,,
,,5c5862c74339fd0001a8a41a,2024-02-18_20h12.16.345,kallum_motion_pilot,2023.2.2,Win32,58.82352941,5c5862c74339fd0001a8a41a,65d2b6c8f2eece985d8e374c,65d2b8eefe7a391178aea35a,0.085,0.086,1,95,257,73,1,onethree,,,,,,,,,,,,,,,,,,,,,,,,,,,,,,,,,,,,,,,,,,,,,,,,,,,,,,,,,,,,,,,,,,,,,,,,,,,,,,,,,,,,,,,,,,,,,,,,,,,,,,,,,,,,,,,,,,,,,,,,,,,,,,,,,,,,,,,,,
,,5c5862c74339fd0001a8a41a,2024-02-18_20h12.16.345,kallum_motion_pilot,2023.2.2,Win32,58.82352941,5c5862c74339fd0001a8a41a,65d2b6c8f2eece985d8e374c,65d2b8eefe7a391178aea35a,0.086,0.086,1,96,258,142,1,eightsix,,,,,,,,,,,,,,,,,,,,,,,,,,,,,,,,,,,,,,,,,,,,,,,,,,,,,,,,,,,,,,,,,,,,,,,,,,,,,,,,,,,,,,,,,,,,,,,,,,,,,,,,,,,,,,,,,,,,,,,,,,,,,,,,,,,,,,,,,
,,5c5862c74339fd0001a8a41a,2024-02-18_20h12.16.345,kallum_motion_pilot,2023.2.2,Win32,58.82352941,5c5862c74339fd0001a8a41a,65d2b6c8f2eece985d8e374c,65d2b8eefe7a391178aea35a,0.086,0.086,1,97,259,148,1,sevenfive,,,,,,,,,,,,,,,,,,,,,,,,,,,,,,,,,,,,,,,,,,,,,,,,,,,,,,,,,,,,,,,,,,,,,,,,,,,,,,,,,,,,,,,,,,,,,,,,,,,,,,,,,,,,,,,,,,,,,,,,,,,,,,,,,,,,,,,,,
,,5c5862c74339fd0001a8a41a,2024-02-18_20h12.16.345,kallum_motion_pilot,2023.2.2,Win32,58.82352941,5c5862c74339fd0001a8a41a,65d2b6c8f2eece985d8e374c,65d2b8eefe7a391178aea35a,0.086,0.086,1,98,260,138,1,sixfive,,,,,,,,,,,,,,,,,,,,,,,,,,,,,,,,,,,,,,,,,,,,,,,,,,,,,,,,,,,,,,,,,,,,,,,,,,,,,,,,,,,,,,,,,,,,,,,,,,,,,,,,,,,,,,,,,,,,,,,,,,,,,,,,,,,,,,,,,
,,5c5862c74339fd0001a8a41a,2024-02-18_20h12.16.345,kallum_motion_pilot,2023.2.2,Win32,58.82352941,5c5862c74339fd0001a8a41a,65d2b6c8f2eece985d8e374c,65d2b8eefe7a391178aea35a,0.086,0.086,1,99,261,10,1,twoone,,,,,,,,,,,,,,,,,,,,,,,,,,,,,,,,,,,,,,,,,,,,,,,,,,,,,,,,,,,,,,,,,,,,,,,,,,,,,,,,,,,,,,,,,,,,,,,,,,,,,,,,,,,,,,,,,,,,,,,,,,,,,,,,,,,,,,,,,
,,5c5862c74339fd0001a8a41a,2024-02-18_20h12.16.345,kallum_motion_pilot,2023.2.2,Win32,58.82352941,5c5862c74339fd0001a8a41a,65d2b6c8f2eece985d8e374c,65d2b8eefe7a391178aea35a,0.086,0.086,1,100,262,24,1,onetwo,,,,,,,,,,,,,,,,,,,,,,,,,,,,,,,,,,,,,,,,,,,,,,,,,,,,,,,,,,,,,,,,,,,,,,,,,,,,,,,,,,,,,,,,,,,,,,,,,,,,,,,,,,,,,,,,,,,,,,,,,,,,,,,,,,,,,,,,,
,,5c5862c74339fd0001a8a41a,2024-02-18_20h12.16.345,kallum_motion_pilot,2023.2.2,Win32,58.82352941,5c5862c74339fd0001a8a41a,65d2b6c8f2eece985d8e374c,65d2b8eefe7a391178aea35a,0.087,0.087,1,101,263,160,1,fivesix,,,,,,,,,,,,,,,,,,,,,,,,,,,,,,,,,,,,,,,,,,,,,,,,,,,,,,,,,,,,,,,,,,,,,,,,,,,,,,,,,,,,,,,,,,,,,,,,,,,,,,,,,,,,,,,,,,,,,,,,,,,,,,,,,,,,,,,,,
,,5c5862c74339fd0001a8a41a,2024-02-18_20h12.16.345,kallum_motion_pilot,2023.2.2,Win32,58.82352941,5c5862c74339fd0001a8a41a,65d2b6c8f2eece985d8e374c,65d2b8eefe7a391178aea35a,0.087,0.088,1,102,264,159,1,eightseven,,,,,,,,,,,,,,,,,,,,,,,,,,,,,,,,,,,,,,,,,,,,,,,,,,,,,,,,,,,,,,,,,,,,,,,,,,,,,,,,,,,,,,,,,,,,,,,,,,,,,,,,,,,,,,,,,,,,,,,,,,,,,,,,,,,,,,,,,
,,5c5862c74339fd0001a8a41a,2024-02-18_20h12.16.345,kallum_motion_pilot,2023.2.2,Win32,58.82352941,5c5862c74339fd0001a8a41a,65d2b6c8f2eece985d8e374c,65d2b8eefe7a391178aea35a,0.088,0.088,1,103,265,75,1,twofour,,,,,,,,,,,,,,,,,,,,,,,,,,,,,,,,,,,,,,,,,,,,,,,,,,,,,,,,,,,,,,,,,,,,,,,,,,,,,,,,,,,,,,,,,,,,,,,,,,,,,,,,,,,,,,,,,,,,,,,,,,,,,,,,,,,,,,,,,
,,5c5862c74339fd0001a8a41a,2024-02-18_20h12.16.345,kallum_motion_pilot,2023.2.2,Win32,58.82352941,5c5862c74339fd0001a8a41a,65d2b6c8f2eece985d8e374c,65d2b8eefe7a391178aea35a,0.088,0.088,1,104,266,62,1,fourtwo,,,,,,,,,,,,,,,,,,,,,,,,,,,,,,,,,,,,,,,,,,,,,,,,,,,,,,,,,,,,,,,,,,,,,,,,,,,,,,,,,,,,,,,,,,,,,,,,,,,,,,,,,,,,,,,,,,,,,,,,,,,,,,,,,,,,,,,,,
,,5c5862c74339fd0001a8a41a,2024-02-18_20h12.16.345,kallum_motion_pilot,2023.2.2,Win32,58.82352941,5c5862c74339fd0001a8a41a,65d2b6c8f2eece985d8e374c,65d2b8eefe7a391178aea35a,0.088,0.088,1,105,267,83,1,sixeight,,,,,,,,,,,,,,,,,,,,,,,,,,,,,,,,,,,,,,,,,,,,,,,,,,,,,,,,,,,,,,,,,,,,,,,,,,,,,,,,,,,,,,,,,,,,,,,,,,,,,,,,,,,,,,,,,,,,,,,,,,,,,,,,,,,,,,,,,
,,5c5862c74339fd0001a8a41a,2024-02-18_20h12.16.345,kallum_motion_pilot,2023.2.2,Win32,58.82352941,5c5862c74339fd0001a8a41a,65d2b6c8f2eece985d8e374c,65d2b8eefe7a391178aea35a,0.088,0.089,1,106,268,147,1,sixeight,,,,,,,,,,,,,,,,,,,,,,,,,,,,,,,,,,,,,,,,,,,,,,,,,,,,,,,,,,,,,,,,,,,,,,,,,,,,,,,,,,,,,,,,,,,,,,,,,,,,,,,,,,,,,,,,,,,,,,,,,,,,,,,,,,,,,,,,,
,,5c5862c74339fd0001a8a41a,2024-02-18_20h12.16.345,kallum_motion_pilot,2023.2.2,Win32,58.82352941,5c5862c74339fd0001a8a41a,65d2b6c8f2eece985d8e374c,65d2b8eefe7a391178aea35a,0.089,0.089,1,107,269,50,1,twoone,,,,,,,,,,,,,,,,,,,,,,,,,,,,,,,,,,,,,,,,,,,,,,,,,,,,,,,,,,,,,,,,,,,,,,,,,,,,,,,,,,,,,,,,,,,,,,,,,,,,,,,,,,,,,,,,,,,,,,,,,,,,,,,,,,,,,,,,,
,,5c5862c74339fd0001a8a41a,2024-02-18_20h12.16.345,kallum_motion_pilot,2023.2.2,Win32,58.82352941,5c5862c74339fd0001a8a41a,65d2b6c8f2eece985d8e374c,65d2b8eefe7a391178aea35a,0.089,0.089,1,108,270,100,1,sevenfive,,,,,,,,,,,,,,,,,,,,,,,,,,,,,,,,,,,,,,,,,,,,,,,,,,,,,,,,,,,,,,,,,,,,,,,,,,,,,,,,,,,,,,,,,,,,,,,,,,,,,,,,,,,,,,,,,,,,,,,,,,,,,,,,,,,,,,,,,
,,5c5862c74339fd0001a8a41a,2024-02-18_20h12.16.345,kallum_motion_pilot,2023.2.2,Win32,58.82352941,5c5862c74339fd0001a8a41a,65d2b6c8f2eece985d8e374c,65d2b8eefe7a391178aea35a,0.089,0.089,1,109,271,104,1,fivesix,,,,,,,,,,,,,,,,,,,,,,,,,,,,,,,,,,,,,,,,,,,,,,,,,,,,,,,,,,,,,,,,,,,,,,,,,,,,,,,,,,,,,,,,,,,,,,,,,,,,,,,,,,,,,,,,,,,,,,,,,,,,,,,,,,,,,,,,,
,,5c5862c74339fd0001a8a41a,2024-02-18_20h12.16.345,kallum_motion_pilot,2023.2.2,Win32,58.82352941,5c5862c74339fd0001a8a41a,65d2b6c8f2eece985d8e374c,65d2b8eefe7a391178aea35a,0.089,0.09,1,110,272,69,1,threefour,,,,,,,,,,,,,,,,,,,,,,,,,,,,,,,,,,,,,,,,,,,,,,,,,,,,,,,,,,,,,,,,,,,,,,,,,,,,,,,,,,,,,,,,,,,,,,,,,,,,,,,,,,,,,,,,,,,,,,,,,,,,,,,,,,,,,,,,,
,,5c5862c74339fd0001a8a41a,2024-02-18_20h12.16.345,kallum_motion_pilot,2023.2.2,Win32,58.82352941,5c5862c74339fd0001a8a41a,65d2b6c8f2eece985d8e374c,65d2b8eefe7a391178aea35a,0.09,0.09,1,111,273,119,1,eightseven,,,,,,,,,,,,,,,,,,,,,,,,,,,,,,,,,,,,,,,,,,,,,,,,,,,,,,,,,,,,,,,,,,,,,,,,,,,,,,,,,,,,,,,,,,,,,,,,,,,,,,,,,,,,,,,,,,,,,,,,,,,,,,,,,,,,,,,,,
,,5c5862c74339fd0001a8a41a,2024-02-18_20h12.16.345,kallum_motion_pilot,2023.2.2,Win32,58.82352941,5c5862c74339fd0001a8a41a,65d2b6c8f2eece985d8e374c,65d2b8eefe7a391178aea35a,0.09,0.09,1,112,274,95,1,eightseven,,,,,,,,,,,,,,,,,,,,,,,,,,,,,,,,,,,,,,,,,,,,,,,,,,,,,,,,,,,,,,,,,,,,,,,,,,,,,,,,,,,,,,,,,,,,,,,,,,,,,,,,,,,,,,,,,,,,,,,,,,,,,,,,,,,,,,,,,
,,5c5862c74339fd0001a8a41a,2024-02-18_20h12.16.345,kallum_motion_pilot,2023.2.2,Win32,58.82352941,5c5862c74339fd0001a8a41a,65d2b6c8f2eece985d8e374c,65d2b8eefe7a391178aea35a,0.09,0.091,1,113,275,145,1,fiveseven,,,,,,,,,,,,,,,,,,,,,,,,,,,,,,,,,,,,,,,,,,,,,,,,,,,,,,,,,,,,,,,,,,,,,,,,,,,,,,,,,,,,,,,,,,,,,,,,,,,,,,,,,,,,,,,,,,,,,,,,,,,,,,,,,,,,,,,,,
,,5c5862c74339fd0001a8a41a,2024-02-18_20h12.16.345,kallum_motion_pilot,2023.2.2,Win32,58.82352941,5c5862c74339fd0001a8a41a,65d2b6c8f2eece985d8e374c,65d2b8eefe7a391178aea35a,0.091,0.091,1,114,276,94,1,eightsix,,,,,,,,,,,,,,,,,,,,,,,,,,,,,,,,,,,,,,,,,,,,,,,,,,,,,,,,,,,,,,,,,,,,,,,,,,,,,,,,,,,,,,,,,,,,,,,,,,,,,,,,,,,,,,,,,,,,,,,,,,,,,,,,,,,,,,,,,
,,5c5862c74339fd0001a8a41a,2024-02-18_20h12.16.345,kallum_motion_pilot,2023.2.2,Win32,58.82352941,5c5862c74339fd0001a8a41a,65d2b6c8f2eece985d8e374c,65d2b8eefe7a391178aea35a,0.091,0.091,1,115,277,22,1,fourtwo,,,,,,,,,,,,,,,,,,,,,,,,,,,,,,,,,,,,,,,,,,,,,,,,,,,,,,,,,,,,,,,,,,,,,,,,,,,,,,,,,,,,,,,,,,,,,,,,,,,,,,,,,,,,,,,,,,,,,,,,,,,,,,,,,,,,,,,,,
,,5c5862c74339fd0001a8a41a,2024-02-18_20h12.16.345,kallum_motion_pilot,2023.2.2,Win32,58.82352941,5c5862c74339fd0001a8a41a,65d2b6c8f2eece985d8e374c,65d2b8eefe7a391178aea35a,0.091,0.091,1,116,278,56,1,onetwo,,,,,,,,,,,,,,,,,,,,,,,,,,,,,,,,,,,,,,,,,,,,,,,,,,,,,,,,,,,,,,,,,,,,,,,,,,,,,,,,,,,,,,,,,,,,,,,,,,,,,,,,,,,,,,,,,,,,,,,,,,,,,,,,,,,,,,,,,
,,5c5862c74339fd0001a8a41a,2024-02-18_20h12.16.345,kallum_motion_pilot,2023.2.2,Win32,58.82352941,5c5862c74339fd0001a8a41a,65d2b6c8f2eece985d8e374c,65d2b8eefe7a391178aea35a,0.091,0.091,1,117,279,140,1,sevenfive,,,,,,,,,,,,,,,,,,,,,,,,,,,,,,,,,,,,,,,,,,,,,,,,,,,,,,,,,,,,,,,,,,,,,,,,,,,,,,,,,,,,,,,,,,,,,,,,,,,,,,,,,,,,,,,,,,,,,,,,,,,,,,,,,,,,,,,,,
