startup.started,startup.stopped,Prolific ID*,date,expName,psychopyVersion,OS,frameRate,participant,study_id,session,stimpositions.started,stimpositions.stopped,hardcoded_stimulus_positions.thisRepN,hardcoded_stimulus_positions.thisTrialN,hardcoded_stimulus_positions.thisN,hardcoded_stimulus_positions.thisIndex,hardcoded_stimulus_positions.ran,StimulusPos,stimorientation.started,stimorientation.stopped,prac_stimorientation_import_loop.thisRepN,prac_stimorientation_import_loop.thisTrialN,prac_stimorientation_import_loop.thisN,prac_stimorientation_import_loop.thisIndex,prac_stimorientation_import_loop.ran,Stimorientation,welcome_instr.started,welcome_instr.stopped,key_resp.keys,key_resp.rt,key_resp.duration,response_steppedout_1.started,response_steppedout_1.stopped,key_resp_20.keys,key_resp_20.rt,key_resp_20.duration,response_steppedout_2.started,response_steppedout_2.stopped,key_resp_19.keys,key_resp_19.rt,key_resp_19.duration,stim_response_instr.started,stim_response_instr.stopped,key_resp_15.keys,key_resp_15.rt,key_resp_15.duration,direction_instr_2.started,direction_instr_2.stopped,key_resp_9.keys,key_resp_9.rt,key_resp_9.duration,instr_prac.started,instr_prac.stopped,key_resp_10.keys,key_resp_10.rt,key_resp_10.duration,Stim1_display_prac.started,Stim1_display_prac.stopped,Ecc,Circle1_ori,Circle2_ori,response_prac.started,similarity,response_time,response_prac.stopped,mouse_5.x,mouse_5.y,mouse_5.leftButton,mouse_5.midButton,mouse_5.rightButton,mouse_5.clicked_name,responseprac_feedback.started,responseprac_feedback.stopped,summary2_prac.started,summary2_prac.stopped,mouse_6.x,mouse_6.y,mouse_6.leftButton,mouse_6.midButton,mouse_6.rightButton,mouse_6.clicked_name,duringprac.thisRepN,duringprac.thisTrialN,duringprac.thisN,duringprac.thisIndex,duringprac.ran,begin.started,begin.stopped,key_resp_22.keys,key_resp_22.rt,key_resp_22.duration,Stim1_display.started,Stim1_display.stopped,circle1_ori,circle2_ori,circle1_SF,circle2_SF,response.started,response.stopped,mouse.x,mouse.y,mouse.leftButton,mouse.midButton,mouse.rightButton,mouse.clicked_name,trialnumber,double_pass.thisRepN,double_pass.thisTrialN,double_pass.thisN,double_pass.thisIndex,double_pass.ran,double_pass.order,main_trial.thisRepN,main_trial.thisTrialN,main_trial.thisN,main_trial.thisIndex,main_trial.ran,main_trial.order,Trial_Counter,Catch,Frequencies,response_2.started,response_2.stopped,mouse_2.x,mouse_2.y,mouse_2.leftButton,mouse_2.midButton,mouse_2.rightButton,mouse_2.clicked_name,special_trial.started,special_trial.stopped,catch_1.started,catch_1.stopped,mouse_3.x,mouse_3.y,mouse_3.leftButton,mouse_3.midButton,mouse_3.rightButton,catchresponse,catchnumber,response_time_catch,response_sum.started,response_sum.stopped,mouse_11.x,mouse_11.y,mouse_11.leftButton,mouse_11.midButton,mouse_11.rightButton,flip_presentation_sequence_for_double_pass.started,flip_presentation_sequence_for_double_pass.stopped,goodbye.started,goodbye.stopped,key_resp_3.keys,key_resp_3.rt,key_resp_3.duration
0,0.001,5c5b31c415f6c30001de2df5,2024-02-22_05h02.04.631,kallum_motion_pilot,2023.2.2,Win32,144.092219,5c5b31c415f6c30001de2df5,65d6bb0e977760de756971f7,65d6d4d78f8d77324a4eeb90,,,,,,,,,,,,,,,,,,,,,,,,,,,,,,,,,,,,,,,,,,,,,,,,,,,,,,,,,,,,,,,,,,,,,,,,,,,,,,,,,,,,,,,,,,,,,,,,,,,,,,,,,,,,,,,,,,,,,,,,,,,,,,,,,,,,,,,,,,,,,,,,,
,,5c5b31c415f6c30001de2df5,2024-02-22_05h02.04.631,kallum_motion_pilot,2023.2.2,Win32,144.092219,5c5b31c415f6c30001de2df5,65d6bb0e977760de756971f7,65d6d4d78f8d77324a4eeb90,0.015,0.015,0,0,0,57,1,onethree,,,,,,,,,,,,,,,,,,,,,,,,,,,,,,,,,,,,,,,,,,,,,,,,,,,,,,,,,,,,,,,,,,,,,,,,,,,,,,,,,,,,,,,,,,,,,,,,,,,,,,,,,,,,,,,,,,,,,,,,,,,,,,,,,,,,,,,,,
,,5c5b31c415f6c30001de2df5,2024-02-22_05h02.04.631,kallum_motion_pilot,2023.2.2,Win32,144.092219,5c5b31c415f6c30001de2df5,65d6bb0e977760de756971f7,65d6d4d78f8d77324a4eeb90,0.016,0.016,0,1,1,122,1,sixfive,,,,,,,,,,,,,,,,,,,,,,,,,,,,,,,,,,,,,,,,,,,,,,,,,,,,,,,,,,,,,,,,,,,,,,,,,,,,,,,,,,,,,,,,,,,,,,,,,,,,,,,,,,,,,,,,,,,,,,,,,,,,,,,,,,,,,,,,,
,,5c5b31c415f6c30001de2df5,2024-02-22_05h02.04.631,kallum_motion_pilot,2023.2.2,Win32,144.092219,5c5b31c415f6c30001de2df5,65d6bb0e977760de756971f7,65d6d4d78f8d77324a4eeb90,0.016,0.016,0,2,2,113,1,fiveseven,,,,,,,,,,,,,,,,,,,,,,,,,,,,,,,,,,,,,,,,,,,,,,,,,,,,,,,,,,,,,,,,,,,,,,,,,,,,,,,,,,,,,,,,,,,,,,,,,,,,,,,,,,,,,,,,,,,,,,,,,,,,,,,,,,,,,,,,,
,,5c5b31c415f6c30001de2df5,2024-02-22_05h02.04.631,kallum_motion_pilot,2023.2.2,Win32,144.092219,5c5b31c415f6c30001de2df5,65d6bb0e977760de756971f7,65d6d4d78f8d77324a4eeb90,0.016,0.016,0,3,3,70,1,fourtwo,,,,,,,,,,,,,,,,,,,,,,,,,,,,,,,,,,,,,,,,,,,,,,,,,,,,,,,,,,,,,,,,,,,,,,,,,,,,,,,,,,,,,,,,,,,,,,,,,,,,,,,,,,,,,,,,,,,,,,,,,,,,,,,,,,,,,,,,,
,,5c5b31c415f6c30001de2df5,2024-02-22_05h02.04.631,kallum_motion_pilot,2023.2.2,Win32,144.092219,5c5b31c415f6c30001de2df5,65d6bb0e977760de756971f7,65d6d4d78f8d77324a4eeb90,0.016,0.016,0,4,4,94,1,eightsix,,,,,,,,,,,,,,,,,,,,,,,,,,,,,,,,,,,,,,,,,,,,,,,,,,,,,,,,,,,,,,,,,,,,,,,,,,,,,,,,,,,,,,,,,,,,,,,,,,,,,,,,,,,,,,,,,,,,,,,,,,,,,,,,,,,,,,,,,
,,5c5b31c415f6c30001de2df5,2024-02-22_05h02.04.631,kallum_motion_pilot,2023.2.2,Win32,144.092219,5c5b31c415f6c30001de2df5,65d6bb0e977760de756971f7,65d6d4d78f8d77324a4eeb90,0.016,0.016,0,5,5,95,1,eightseven,,,,,,,,,,,,,,,,,,,,,,,,,,,,,,,,,,,,,,,,,,,,,,,,,,,,,,,,,,,,,,,,,,,,,,,,,,,,,,,,,,,,,,,,,,,,,,,,,,,,,,,,,,,,,,,,,,,,,,,,,,,,,,,,,,,,,,,,,
,,5c5b31c415f6c30001de2df5,2024-02-22_05h02.04.631,kallum_motion_pilot,2023.2.2,Win32,144.092219,5c5b31c415f6c30001de2df5,65d6bb0e977760de756971f7,65d6d4d78f8d77324a4eeb90,0.016,0.016,0,6,6,121,1,fiveseven,,,,,,,,,,,,,,,,,,,,,,,,,,,,,,,,,,,,,,,,,,,,,,,,,,,,,,,,,,,,,,,,,,,,,,,,,,,,,,,,,,,,,,,,,,,,,,,,,,,,,,,,,,,,,,,,,,,,,,,,,,,,,,,,,,,,,,,,,
,,5c5b31c415f6c30001de2df5,2024-02-22_05h02.04.631,kallum_motion_pilot,2023.2.2,Win32,144.092219,5c5b31c415f6c30001de2df5,65d6bb0e977760de756971f7,65d6d4d78f8d77324a4eeb90,0.016,0.016,0,7,7,112,1,fivesix,,,,,,,,,,,,,,,,,,,,,,,,,,,,,,,,,,,,,,,,,,,,,,,,,,,,,,,,,,,,,,,,,,,,,,,,,,,,,,,,,,,,,,,,,,,,,,,,,,,,,,,,,,,,,,,,,,,,,,,,,,,,,,,,,,,,,,,,,
,,5c5b31c415f6c30001de2df5,2024-02-22_05h02.04.631,kallum_motion_pilot,2023.2.2,Win32,144.092219,5c5b31c415f6c30001de2df5,65d6bb0e977760de756971f7,65d6d4d78f8d77324a4eeb90,0.016,0.016,0,8,8,148,1,sevenfive,,,,,,,,,,,,,,,,,,,,,,,,,,,,,,,,,,,,,,,,,,,,,,,,,,,,,,,,,,,,,,,,,,,,,,,,,,,,,,,,,,,,,,,,,,,,,,,,,,,,,,,,,,,,,,,,,,,,,,,,,,,,,,,,,,,,,,,,,
,,5c5b31c415f6c30001de2df5,2024-02-22_05h02.04.631,kallum_motion_pilot,2023.2.2,Win32,144.092219,5c5b31c415f6c30001de2df5,65d6bb0e977760de756971f7,65d6d4d78f8d77324a4eeb90,0.017,0.017,0,9,9,135,1,eightseven,,,,,,,,,,,,,,,,,,,,,,,,,,,,,,,,,,,,,,,,,,,,,,,,,,,,,,,,,,,,,,,,,,,,,,,,,,,,,,,,,,,,,,,,,,,,,,,,,,,,,,,,,,,,,,,,,,,,,,,,,,,,,,,,,,,,,,,,,
,,5c5b31c415f6c30001de2df5,2024-02-22_05h02.04.631,kallum_motion_pilot,2023.2.2,Win32,144.092219,5c5b31c415f6c30001de2df5,65d6bb0e977760de756971f7,65d6d4d78f8d77324a4eeb90,0.017,0.017,0,10,10,149,1,seveneight,,,,,,,,,,,,,,,,,,,,,,,,,,,,,,,,,,,,,,,,,,,,,,,,,,,,,,,,,,,,,,,,,,,,,,,,,,,,,,,,,,,,,,,,,,,,,,,,,,,,,,,,,,,,,,,,,,,,,,,,,,,,,,,,,,,,,,,,,
,,5c5b31c415f6c30001de2df5,2024-02-22_05h02.04.631,kallum_motion_pilot,2023.2.2,Win32,144.092219,5c5b31c415f6c30001de2df5,65d6bb0e977760de756971f7,65d6d4d78f8d77324a4eeb90,0.017,0.017,0,11,11,103,1,eightseven,,,,,,,,,,,,,,,,,,,,,,,,,,,,,,,,,,,,,,,,,,,,,,,,,,,,,,,,,,,,,,,,,,,,,,,,,,,,,,,,,,,,,,,,,,,,,,,,,,,,,,,,,,,,,,,,,,,,,,,,,,,,,,,,,,,,,,,,,
,,5c5b31c415f6c30001de2df5,2024-02-22_05h02.04.631,kallum_motion_pilot,2023.2.2,Win32,144.092219,5c5b31c415f6c30001de2df5,65d6bb0e977760de756971f7,65d6d4d78f8d77324a4eeb90,0.017,0.017,0,12,12,40,1,onetwo,,,,,,,,,,,,,,,,,,,,,,,,,,,,,,,,,,,,,,,,,,,,,,,,,,,,,,,,,,,,,,,,,,,,,,,,,,,,,,,,,,,,,,,,,,,,,,,,,,,,,,,,,,,,,,,,,,,,,,,,,,,,,,,,,,,,,,,,,
,,5c5b31c415f6c30001de2df5,2024-02-22_05h02.04.631,kallum_motion_pilot,2023.2.2,Win32,144.092219,5c5b31c415f6c30001de2df5,65d6bb0e977760de756971f7,65d6d4d78f8d77324a4eeb90,0.017,0.017,0,13,13,29,1,threefour,,,,,,,,,,,,,,,,,,,,,,,,,,,,,,,,,,,,,,,,,,,,,,,,,,,,,,,,,,,,,,,,,,,,,,,,,,,,,,,,,,,,,,,,,,,,,,,,,,,,,,,,,,,,,,,,,,,,,,,,,,,,,,,,,,,,,,,,,
,,5c5b31c415f6c30001de2df5,2024-02-22_05h02.04.631,kallum_motion_pilot,2023.2.2,Win32,144.092219,5c5b31c415f6c30001de2df5,65d6bb0e977760de756971f7,65d6d4d78f8d77324a4eeb90,0.017,0.017,0,14,14,37,1,threefour,,,,,,,,,,,,,,,,,,,,,,,,,,,,,,,,,,,,,,,,,,,,,,,,,,,,,,,,,,,,,,,,,,,,,,,,,,,,,,,,,,,,,,,,,,,,,,,,,,,,,,,,,,,,,,,,,,,,,,,,,,,,,,,,,,,,,,,,,
,,5c5b31c415f6c30001de2df5,2024-02-22_05h02.04.631,kallum_motion_pilot,2023.2.2,Win32,144.092219,5c5b31c415f6c30001de2df5,65d6bb0e977760de756971f7,65d6d4d78f8d77324a4eeb90,0.017,0.017,0,15,15,52,1,threeone,,,,,,,,,,,,,,,,,,,,,,,,,,,,,,,,,,,,,,,,,,,,,,,,,,,,,,,,,,,,,,,,,,,,,,,,,,,,,,,,,,,,,,,,,,,,,,,,,,,,,,,,,,,,,,,,,,,,,,,,,,,,,,,,,,,,,,,,,
,,5c5b31c415f6c30001de2df5,2024-02-22_05h02.04.631,kallum_motion_pilot,2023.2.2,Win32,144.092219,5c5b31c415f6c30001de2df5,65d6bb0e977760de756971f7,65d6d4d78f8d77324a4eeb90,0.017,0.017,0,16,16,96,1,fivesix,,,,,,,,,,,,,,,,,,,,,,,,,,,,,,,,,,,,,,,,,,,,,,,,,,,,,,,,,,,,,,,,,,,,,,,,,,,,,,,,,,,,,,,,,,,,,,,,,,,,,,,,,,,,,,,,,,,,,,,,,,,,,,,,,,,,,,,,,
,,5c5b31c415f6c30001de2df5,2024-02-22_05h02.04.631,kallum_motion_pilot,2023.2.2,Win32,144.092219,5c5b31c415f6c30001de2df5,65d6bb0e977760de756971f7,65d6d4d78f8d77324a4eeb90,0.017,0.017,0,17,17,34,1,twoone,,,,,,,,,,,,,,,,,,,,,,,,,,,,,,,,,,,,,,,,,,,,,,,,,,,,,,,,,,,,,,,,,,,,,,,,,,,,,,,,,,,,,,,,,,,,,,,,,,,,,,,,,,,,,,,,,,,,,,,,,,,,,,,,,,,,,,,,,
,,5c5b31c415f6c30001de2df5,2024-02-22_05h02.04.631,kallum_motion_pilot,2023.2.2,Win32,144.092219,5c5b31c415f6c30001de2df5,65d6bb0e977760de756971f7,65d6d4d78f8d77324a4eeb90,0.017,0.017,0,18,18,156,1,sevenfive,,,,,,,,,,,,,,,,,,,,,,,,,,,,,,,,,,,,,,,,,,,,,,,,,,,,,,,,,,,,,,,,,,,,,,,,,,,,,,,,,,,,,,,,,,,,,,,,,,,,,,,,,,,,,,,,,,,,,,,,,,,,,,,,,,,,,,,,,
,,5c5b31c415f6c30001de2df5,2024-02-22_05h02.04.631,kallum_motion_pilot,2023.2.2,Win32,144.092219,5c5b31c415f6c30001de2df5,65d6bb0e977760de756971f7,65d6d4d78f8d77324a4eeb90,0.017,0.017,0,19,19,78,1,fourtwo,,,,,,,,,,,,,,,,,,,,,,,,,,,,,,,,,,,,,,,,,,,,,,,,,,,,,,,,,,,,,,,,,,,,,,,,,,,,,,,,,,,,,,,,,,,,,,,,,,,,,,,,,,,,,,,,,,,,,,,,,,,,,,,,,,,,,,,,,
,,5c5b31c415f6c30001de2df5,2024-02-22_05h02.04.631,kallum_motion_pilot,2023.2.2,Win32,144.092219,5c5b31c415f6c30001de2df5,65d6bb0e977760de756971f7,65d6d4d78f8d77324a4eeb90,0.017,0.017,0,20,20,15,1,fourthree,,,,,,,,,,,,,,,,,,,,,,,,,,,,,,,,,,,,,,,,,,,,,,,,,,,,,,,,,,,,,,,,,,,,,,,,,,,,,,,,,,,,,,,,,,,,,,,,,,,,,,,,,,,,,,,,,,,,,,,,,,,,,,,,,,,,,,,,,
,,5c5b31c415f6c30001de2df5,2024-02-22_05h02.04.631,kallum_motion_pilot,2023.2.2,Win32,144.092219,5c5b31c415f6c30001de2df5,65d6bb0e977760de756971f7,65d6d4d78f8d77324a4eeb90,0.017,0.017,0,21,21,93,1,seveneight,,,,,,,,,,,,,,,,,,,,,,,,,,,,,,,,,,,,,,,,,,,,,,,,,,,,,,,,,,,,,,,,,,,,,,,,,,,,,,,,,,,,,,,,,,,,,,,,,,,,,,,,,,,,,,,,,,,,,,,,,,,,,,,,,,,,,,,,,
,,5c5b31c415f6c30001de2df5,2024-02-22_05h02.04.631,kallum_motion_pilot,2023.2.2,Win32,144.092219,5c5b31c415f6c30001de2df5,65d6bb0e977760de756971f7,65d6d4d78f8d77324a4eeb90,0.018,0.018,0,22,22,140,1,sevenfive,,,,,,,,,,,,,,,,,,,,,,,,,,,,,,,,,,,,,,,,,,,,,,,,,,,,,,,,,,,,,,,,,,,,,,,,,,,,,,,,,,,,,,,,,,,,,,,,,,,,,,,,,,,,,,,,,,,,,,,,,,,,,,,,,,,,,,,,,
,,5c5b31c415f6c30001de2df5,2024-02-22_05h02.04.631,kallum_motion_pilot,2023.2.2,Win32,144.092219,5c5b31c415f6c30001de2df5,65d6bb0e977760de756971f7,65d6d4d78f8d77324a4eeb90,0.018,0.018,0,23,23,87,1,eightseven,,,,,,,,,,,,,,,,,,,,,,,,,,,,,,,,,,,,,,,,,,,,,,,,,,,,,,,,,,,,,,,,,,,,,,,,,,,,,,,,,,,,,,,,,,,,,,,,,,,,,,,,,,,,,,,,,,,,,,,,,,,,,,,,,,,,,,,,,
,,5c5b31c415f6c30001de2df5,2024-02-22_05h02.04.631,kallum_motion_pilot,2023.2.2,Win32,144.092219,5c5b31c415f6c30001de2df5,65d6bb0e977760de756971f7,65d6d4d78f8d77324a4eeb90,0.018,0.018,0,24,24,1,1,onethree,,,,,,,,,,,,,,,,,,,,,,,,,,,,,,,,,,,,,,,,,,,,,,,,,,,,,,,,,,,,,,,,,,,,,,,,,,,,,,,,,,,,,,,,,,,,,,,,,,,,,,,,,,,,,,,,,,,,,,,,,,,,,,,,,,,,,,,,,
,,5c5b31c415f6c30001de2df5,2024-02-22_05h02.04.631,kallum_motion_pilot,2023.2.2,Win32,144.092219,5c5b31c415f6c30001de2df5,65d6bb0e977760de756971f7,65d6d4d78f8d77324a4eeb90,0.018,0.018,0,25,25,147,1,sixeight,,,,,,,,,,,,,,,,,,,,,,,,,,,,,,,,,,,,,,,,,,,,,,,,,,,,,,,,,,,,,,,,,,,,,,,,,,,,,,,,,,,,,,,,,,,,,,,,,,,,,,,,,,,,,,,,,,,,,,,,,,,,,,,,,,,,,,,,,
,,5c5b31c415f6c30001de2df5,2024-02-22_05h02.04.631,kallum_motion_pilot,2023.2.2,Win32,144.092219,5c5b31c415f6c30001de2df5,65d6bb0e977760de756971f7,65d6d4d78f8d77324a4eeb90,0.018,0.018,0,26,26,155,1,sixeight,,,,,,,,,,,,,,,,,,,,,,,,,,,,,,,,,,,,,,,,,,,,,,,,,,,,,,,,,,,,,,,,,,,,,,,,,,,,,,,,,,,,,,,,,,,,,,,,,,,,,,,,,,,,,,,,,,,,,,,,,,,,,,,,,,,,,,,,,
,,5c5b31c415f6c30001de2df5,2024-02-22_05h02.04.631,kallum_motion_pilot,2023.2.2,Win32,144.092219,5c5b31c415f6c30001de2df5,65d6bb0e977760de756971f7,65d6d4d78f8d77324a4eeb90,0.018,0.018,0,27,27,137,1,fiveseven,,,,,,,,,,,,,,,,,,,,,,,,,,,,,,,,,,,,,,,,,,,,,,,,,,,,,,,,,,,,,,,,,,,,,,,,,,,,,,,,,,,,,,,,,,,,,,,,,,,,,,,,,,,,,,,,,,,,,,,,,,,,,,,,,,,,,,,,,
,,5c5b31c415f6c30001de2df5,2024-02-22_05h02.04.631,kallum_motion_pilot,2023.2.2,Win32,144.092219,5c5b31c415f6c30001de2df5,65d6bb0e977760de756971f7,65d6d4d78f8d77324a4eeb90,0.018,0.018,0,28,28,127,1,eightseven,,,,,,,,,,,,,,,,,,,,,,,,,,,,,,,,,,,,,,,,,,,,,,,,,,,,,,,,,,,,,,,,,,,,,,,,,,,,,,,,,,,,,,,,,,,,,,,,,,,,,,,,,,,,,,,,,,,,,,,,,,,,,,,,,,,,,,,,,
,,5c5b31c415f6c30001de2df5,2024-02-22_05h02.04.631,kallum_motion_pilot,2023.2.2,Win32,144.092219,5c5b31c415f6c30001de2df5,65d6bb0e977760de756971f7,65d6d4d78f8d77324a4eeb90,0.018,0.018,0,29,29,55,1,fourthree,,,,,,,,,,,,,,,,,,,,,,,,,,,,,,,,,,,,,,,,,,,,,,,,,,,,,,,,,,,,,,,,,,,,,,,,,,,,,,,,,,,,,,,,,,,,,,,,,,,,,,,,,,,,,,,,,,,,,,,,,,,,,,,,,,,,,,,,,
,,5c5b31c415f6c30001de2df5,2024-02-22_05h02.04.631,kallum_motion_pilot,2023.2.2,Win32,144.092219,5c5b31c415f6c30001de2df5,65d6bb0e977760de756971f7,65d6d4d78f8d77324a4eeb90,0.018,0.018,0,30,30,68,1,threeone,,,,,,,,,,,,,,,,,,,,,,,,,,,,,,,,,,,,,,,,,,,,,,,,,,,,,,,,,,,,,,,,,,,,,,,,,,,,,,,,,,,,,,,,,,,,,,,,,,,,,,,,,,,,,,,,,,,,,,,,,,,,,,,,,,,,,,,,,
,,5c5b31c415f6c30001de2df5,2024-02-22_05h02.04.631,kallum_motion_pilot,2023.2.2,Win32,144.092219,5c5b31c415f6c30001de2df5,65d6bb0e977760de756971f7,65d6d4d78f8d77324a4eeb90,0.018,0.018,0,31,31,154,1,sixfive,,,,,,,,,,,,,,,,,,,,,,,,,,,,,,,,,,,,,,,,,,,,,,,,,,,,,,,,,,,,,,,,,,,,,,,,,,,,,,,,,,,,,,,,,,,,,,,,,,,,,,,,,,,,,,,,,,,,,,,,,,,,,,,,,,,,,,,,,
,,5c5b31c415f6c30001de2df5,2024-02-22_05h02.04.631,kallum_motion_pilot,2023.2.2,Win32,144.092219,5c5b31c415f6c30001de2df5,65d6bb0e977760de756971f7,65d6d4d78f8d77324a4eeb90,0.018,0.018,0,32,32,144,1,fivesix,,,,,,,,,,,,,,,,,,,,,,,,,,,,,,,,,,,,,,,,,,,,,,,,,,,,,,,,,,,,,,,,,,,,,,,,,,,,,,,,,,,,,,,,,,,,,,,,,,,,,,,,,,,,,,,,,,,,,,,,,,,,,,,,,,,,,,,,,
,,5c5b31c415f6c30001de2df5,2024-02-22_05h02.04.631,kallum_motion_pilot,2023.2.2,Win32,144.092219,5c5b31c415f6c30001de2df5,65d6bb0e977760de756971f7,65d6d4d78f8d77324a4eeb90,0.019,0.019,0,33,33,123,1,sixeight,,,,,,,,,,,,,,,,,,,,,,,,,,,,,,,,,,,,,,,,,,,,,,,,,,,,,,,,,,,,,,,,,,,,,,,,,,,,,,,,,,,,,,,,,,,,,,,,,,,,,,,,,,,,,,,,,,,,,,,,,,,,,,,,,,,,,,,,,
,,5c5b31c415f6c30001de2df5,2024-02-22_05h02.04.631,kallum_motion_pilot,2023.2.2,Win32,144.092219,5c5b31c415f6c30001de2df5,65d6bb0e977760de756971f7,65d6d4d78f8d77324a4eeb90,0.019,0.019,0,34,34,104,1,fivesix,,,,,,,,,,,,,,,,,,,,,,,,,,,,,,,,,,,,,,,,,,,,,,,,,,,,,,,,,,,,,,,,,,,,,,,,,,,,,,,,,,,,,,,,,,,,,,,,,,,,,,,,,,,,,,,,,,,,,,,,,,,,,,,,,,,,,,,,,
,,5c5b31c415f6c30001de2df5,2024-02-22_05h02.04.631,kallum_motion_pilot,2023.2.2,Win32,144.092219,5c5b31c415f6c30001de2df5,65d6bb0e977760de756971f7,65d6d4d78f8d77324a4eeb90,0.019,0.019,0,35,35,106,1,sixfive,,,,,,,,,,,,,,,,,,,,,,,,,,,,,,,,,,,,,,,,,,,,,,,,,,,,,,,,,,,,,,,,,,,,,,,,,,,,,,,,,,,,,,,,,,,,,,,,,,,,,,,,,,,,,,,,,,,,,,,,,,,,,,,,,,,,,,,,,
,,5c5b31c415f6c30001de2df5,2024-02-22_05h02.04.631,kallum_motion_pilot,2023.2.2,Win32,144.092219,5c5b31c415f6c30001de2df5,65d6bb0e977760de756971f7,65d6d4d78f8d77324a4eeb90,0.019,0.019,0,36,36,119,1,eightseven,,,,,,,,,,,,,,,,,,,,,,,,,,,,,,,,,,,,,,,,,,,,,,,,,,,,,,,,,,,,,,,,,,,,,,,,,,,,,,,,,,,,,,,,,,,,,,,,,,,,,,,,,,,,,,,,,,,,,,,,,,,,,,,,,,,,,,,,,
,,5c5b31c415f6c30001de2df5,2024-02-22_05h02.04.631,kallum_motion_pilot,2023.2.2,Win32,144.092219,5c5b31c415f6c30001de2df5,65d6bb0e977760de756971f7,65d6d4d78f8d77324a4eeb90,0.019,0.019,0,37,37,101,1,seveneight,,,,,,,,,,,,,,,,,,,,,,,,,,,,,,,,,,,,,,,,,,,,,,,,,,,,,,,,,,,,,,,,,,,,,,,,,,,,,,,,,,,,,,,,,,,,,,,,,,,,,,,,,,,,,,,,,,,,,,,,,,,,,,,,,,,,,,,,,
,,5c5b31c415f6c30001de2df5,2024-02-22_05h02.04.631,kallum_motion_pilot,2023.2.2,Win32,144.092219,5c5b31c415f6c30001de2df5,65d6bb0e977760de756971f7,65d6d4d78f8d77324a4eeb90,0.019,0.019,0,38,38,62,1,fourtwo,,,,,,,,,,,,,,,,,,,,,,,,,,,,,,,,,,,,,,,,,,,,,,,,,,,,,,,,,,,,,,,,,,,,,,,,,,,,,,,,,,,,,,,,,,,,,,,,,,,,,,,,,,,,,,,,,,,,,,,,,,,,,,,,,,,,,,,,,
,,5c5b31c415f6c30001de2df5,2024-02-22_05h02.04.631,kallum_motion_pilot,2023.2.2,Win32,144.092219,5c5b31c415f6c30001de2df5,65d6bb0e977760de756971f7,65d6d4d78f8d77324a4eeb90,0.019,0.019,0,39,39,21,1,threefour,,,,,,,,,,,,,,,,,,,,,,,,,,,,,,,,,,,,,,,,,,,,,,,,,,,,,,,,,,,,,,,,,,,,,,,,,,,,,,,,,,,,,,,,,,,,,,,,,,,,,,,,,,,,,,,,,,,,,,,,,,,,,,,,,,,,,,,,,
,,5c5b31c415f6c30001de2df5,2024-02-22_05h02.04.631,kallum_motion_pilot,2023.2.2,Win32,144.092219,5c5b31c415f6c30001de2df5,65d6bb0e977760de756971f7,65d6d4d78f8d77324a4eeb90,0.019,0.019,0,40,40,133,1,seveneight,,,,,,,,,,,,,,,,,,,,,,,,,,,,,,,,,,,,,,,,,,,,,,,,,,,,,,,,,,,,,,,,,,,,,,,,,,,,,,,,,,,,,,,,,,,,,,,,,,,,,,,,,,,,,,,,,,,,,,,,,,,,,,,,,,,,,,,,,
,,5c5b31c415f6c30001de2df5,2024-02-22_05h02.04.631,kallum_motion_pilot,2023.2.2,Win32,144.092219,5c5b31c415f6c30001de2df5,65d6bb0e977760de756971f7,65d6d4d78f8d77324a4eeb90,0.019,0.019,0,41,41,72,1,onetwo,,,,,,,,,,,,,,,,,,,,,,,,,,,,,,,,,,,,,,,,,,,,,,,,,,,,,,,,,,,,,,,,,,,,,,,,,,,,,,,,,,,,,,,,,,,,,,,,,,,,,,,,,,,,,,,,,,,,,,,,,,,,,,,,,,,,,,,,,
,,5c5b31c415f6c30001de2df5,2024-02-22_05h02.04.631,kallum_motion_pilot,2023.2.2,Win32,144.092219,5c5b31c415f6c30001de2df5,65d6bb0e977760de756971f7,65d6d4d78f8d77324a4eeb90,0.019,0.019,0,42,42,107,1,sixeight,,,,,,,,,,,,,,,,,,,,,,,,,,,,,,,,,,,,,,,,,,,,,,,,,,,,,,,,,,,,,,,,,,,,,,,,,,,,,,,,,,,,,,,,,,,,,,,,,,,,,,,,,,,,,,,,,,,,,,,,,,,,,,,,,,,,,,,,,
,,5c5b31c415f6c30001de2df5,2024-02-22_05h02.04.631,kallum_motion_pilot,2023.2.2,Win32,144.092219,5c5b31c415f6c30001de2df5,65d6bb0e977760de756971f7,65d6d4d78f8d77324a4eeb90,0.019,0.019,0,43,43,75,1,twofour,,,,,,,,,,,,,,,,,,,,,,,,,,,,,,,,,,,,,,,,,,,,,,,,,,,,,,,,,,,,,,,,,,,,,,,,,,,,,,,,,,,,,,,,,,,,,,,,,,,,,,,,,,,,,,,,,,,,,,,,,,,,,,,,,,,,,,,,,
,,5c5b31c415f6c30001de2df5,2024-02-22_05h02.04.631,kallum_motion_pilot,2023.2.2,Win32,144.092219,5c5b31c415f6c30001de2df5,65d6bb0e977760de756971f7,65d6d4d78f8d77324a4eeb90,0.02,0.02,0,44,44,56,1,onetwo,,,,,,,,,,,,,,,,,,,,,,,,,,,,,,,,,,,,,,,,,,,,,,,,,,,,,,,,,,,,,,,,,,,,,,,,,,,,,,,,,,,,,,,,,,,,,,,,,,,,,,,,,,,,,,,,,,,,,,,,,,,,,,,,,,,,,,,,,
,,5c5b31c415f6c30001de2df5,2024-02-22_05h02.04.631,kallum_motion_pilot,2023.2.2,Win32,144.092219,5c5b31c415f6c30001de2df5,65d6bb0e977760de756971f7,65d6d4d78f8d77324a4eeb90,0.02,0.02,0,45,45,109,1,seveneight,,,,,,,,,,,,,,,,,,,,,,,,,,,,,,,,,,,,,,,,,,,,,,,,,,,,,,,,,,,,,,,,,,,,,,,,,,,,,,,,,,,,,,,,,,,,,,,,,,,,,,,,,,,,,,,,,,,,,,,,,,,,,,,,,,,,,,,,,
,,5c5b31c415f6c30001de2df5,2024-02-22_05h02.04.631,kallum_motion_pilot,2023.2.2,Win32,144.092219,5c5b31c415f6c30001de2df5,65d6bb0e977760de756971f7,65d6d4d78f8d77324a4eeb90,0.02,0.02,0,46,46,132,1,sevenfive,,,,,,,,,,,,,,,,,,,,,,,,,,,,,,,,,,,,,,,,,,,,,,,,,,,,,,,,,,,,,,,,,,,,,,,,,,,,,,,,,,,,,,,,,,,,,,,,,,,,,,,,,,,,,,,,,,,,,,,,,,,,,,,,,,,,,,,,,
,,5c5b31c415f6c30001de2df5,2024-02-22_05h02.04.631,kallum_motion_pilot,2023.2.2,Win32,144.092219,5c5b31c415f6c30001de2df5,65d6bb0e977760de756971f7,65d6d4d78f8d77324a4eeb90,0.02,0.02,0,47,47,66,1,twoone,,,,,,,,,,,,,,,,,,,,,,,,,,,,,,,,,,,,,,,,,,,,,,,,,,,,,,,,,,,,,,,,,,,,,,,,,,,,,,,,,,,,,,,,,,,,,,,,,,,,,,,,,,,,,,,,,,,,,,,,,,,,,,,,,,,,,,,,,
,,5c5b31c415f6c30001de2df5,2024-02-22_05h02.04.631,kallum_motion_pilot,2023.2.2,Win32,144.092219,5c5b31c415f6c30001de2df5,65d6bb0e977760de756971f7,65d6d4d78f8d77324a4eeb90,0.02,0.02,0,48,48,99,1,sixeight,,,,,,,,,,,,,,,,,,,,,,,,,,,,,,,,,,,,,,,,,,,,,,,,,,,,,,,,,,,,,,,,,,,,,,,,,,,,,,,,,,,,,,,,,,,,,,,,,,,,,,,,,,,,,,,,,,,,,,,,,,,,,,,,,,,,,,,,,
,,5c5b31c415f6c30001de2df5,2024-02-22_05h02.04.631,kallum_motion_pilot,2023.2.2,Win32,144.092219,5c5b31c415f6c30001de2df5,65d6bb0e977760de756971f7,65d6d4d78f8d77324a4eeb90,0.02,0.02,0,49,49,58,1,twoone,,,,,,,,,,,,,,,,,,,,,,,,,,,,,,,,,,,,,,,,,,,,,,,,,,,,,,,,,,,,,,,,,,,,,,,,,,,,,,,,,,,,,,,,,,,,,,,,,,,,,,,,,,,,,,,,,,,,,,,,,,,,,,,,,,,,,,,,,
,,5c5b31c415f6c30001de2df5,2024-02-22_05h02.04.631,kallum_motion_pilot,2023.2.2,Win32,144.092219,5c5b31c415f6c30001de2df5,65d6bb0e977760de756971f7,65d6d4d78f8d77324a4eeb90,0.02,0.02,0,50,50,6,1,fourtwo,,,,,,,,,,,,,,,,,,,,,,,,,,,,,,,,,,,,,,,,,,,,,,,,,,,,,,,,,,,,,,,,,,,,,,,,,,,,,,,,,,,,,,,,,,,,,,,,,,,,,,,,,,,,,,,,,,,,,,,,,,,,,,,,,,,,,,,,,
,,5c5b31c415f6c30001de2df5,2024-02-22_05h02.04.631,kallum_motion_pilot,2023.2.2,Win32,144.092219,5c5b31c415f6c30001de2df5,65d6bb0e977760de756971f7,65d6d4d78f8d77324a4eeb90,0.02,0.02,0,51,51,151,1,eightseven,,,,,,,,,,,,,,,,,,,,,,,,,,,,,,,,,,,,,,,,,,,,,,,,,,,,,,,,,,,,,,,,,,,,,,,,,,,,,,,,,,,,,,,,,,,,,,,,,,,,,,,,,,,,,,,,,,,,,,,,,,,,,,,,,,,,,,,,,
,,5c5b31c415f6c30001de2df5,2024-02-22_05h02.04.631,kallum_motion_pilot,2023.2.2,Win32,144.092219,5c5b31c415f6c30001de2df5,65d6bb0e977760de756971f7,65d6d4d78f8d77324a4eeb90,0.02,0.02,0,52,52,146,1,sixfive,,,,,,,,,,,,,,,,,,,,,,,,,,,,,,,,,,,,,,,,,,,,,,,,,,,,,,,,,,,,,,,,,,,,,,,,,,,,,,,,,,,,,,,,,,,,,,,,,,,,,,,,,,,,,,,,,,,,,,,,,,,,,,,,,,,,,,,,,
,,5c5b31c415f6c30001de2df5,2024-02-22_05h02.04.631,kallum_motion_pilot,2023.2.2,Win32,144.092219,5c5b31c415f6c30001de2df5,65d6bb0e977760de756971f7,65d6d4d78f8d77324a4eeb90,0.02,0.02,0,53,53,124,1,sevenfive,,,,,,,,,,,,,,,,,,,,,,,,,,,,,,,,,,,,,,,,,,,,,,,,,,,,,,,,,,,,,,,,,,,,,,,,,,,,,,,,,,,,,,,,,,,,,,,,,,,,,,,,,,,,,,,,,,,,,,,,,,,,,,,,,,,,,,,,,
,,5c5b31c415f6c30001de2df5,2024-02-22_05h02.04.631,kallum_motion_pilot,2023.2.2,Win32,144.092219,5c5b31c415f6c30001de2df5,65d6bb0e977760de756971f7,65d6d4d78f8d77324a4eeb90,0.02,0.02,0,54,54,100,1,sevenfive,,,,,,,,,,,,,,,,,,,,,,,,,,,,,,,,,,,,,,,,,,,,,,,,,,,,,,,,,,,,,,,,,,,,,,,,,,,,,,,,,,,,,,,,,,,,,,,,,,,,,,,,,,,,,,,,,,,,,,,,,,,,,,,,,,,,,,,,,
,,5c5b31c415f6c30001de2df5,2024-02-22_05h02.04.631,kallum_motion_pilot,2023.2.2,Win32,144.092219,5c5b31c415f6c30001de2df5,65d6bb0e977760de756971f7,65d6d4d78f8d77324a4eeb90,0.02,0.02,0,55,55,12,1,threeone,,,,,,,,,,,,,,,,,,,,,,,,,,,,,,,,,,,,,,,,,,,,,,,,,,,,,,,,,,,,,,,,,,,,,,,,,,,,,,,,,,,,,,,,,,,,,,,,,,,,,,,,,,,,,,,,,,,,,,,,,,,,,,,,,,,,,,,,,
,,5c5b31c415f6c30001de2df5,2024-02-22_05h02.04.631,kallum_motion_pilot,2023.2.2,Win32,144.092219,5c5b31c415f6c30001de2df5,65d6bb0e977760de756971f7,65d6d4d78f8d77324a4eeb90,0.021,0.021,0,56,56,74,1,twoone,,,,,,,,,,,,,,,,,,,,,,,,,,,,,,,,,,,,,,,,,,,,,,,,,,,,,,,,,,,,,,,,,,,,,,,,,,,,,,,,,,,,,,,,,,,,,,,,,,,,,,,,,,,,,,,,,,,,,,,,,,,,,,,,,,,,,,,,,
,,5c5b31c415f6c30001de2df5,2024-02-22_05h02.04.631,kallum_motion_pilot,2023.2.2,Win32,144.092219,5c5b31c415f6c30001de2df5,65d6bb0e977760de756971f7,65d6d4d78f8d77324a4eeb90,0.021,0.021,0,57,57,13,1,threefour,,,,,,,,,,,,,,,,,,,,,,,,,,,,,,,,,,,,,,,,,,,,,,,,,,,,,,,,,,,,,,,,,,,,,,,,,,,,,,,,,,,,,,,,,,,,,,,,,,,,,,,,,,,,,,,,,,,,,,,,,,,,,,,,,,,,,,,,,
,,5c5b31c415f6c30001de2df5,2024-02-22_05h02.04.631,kallum_motion_pilot,2023.2.2,Win32,144.092219,5c5b31c415f6c30001de2df5,65d6bb0e977760de756971f7,65d6d4d78f8d77324a4eeb90,0.021,0.021,0,58,58,110,1,eightsix,,,,,,,,,,,,,,,,,,,,,,,,,,,,,,,,,,,,,,,,,,,,,,,,,,,,,,,,,,,,,,,,,,,,,,,,,,,,,,,,,,,,,,,,,,,,,,,,,,,,,,,,,,,,,,,,,,,,,,,,,,,,,,,,,,,,,,,,,
,,5c5b31c415f6c30001de2df5,2024-02-22_05h02.04.631,kallum_motion_pilot,2023.2.2,Win32,144.092219,5c5b31c415f6c30001de2df5,65d6bb0e977760de756971f7,65d6d4d78f8d77324a4eeb90,0.021,0.021,0,59,59,86,1,eightsix,,,,,,,,,,,,,,,,,,,,,,,,,,,,,,,,,,,,,,,,,,,,,,,,,,,,,,,,,,,,,,,,,,,,,,,,,,,,,,,,,,,,,,,,,,,,,,,,,,,,,,,,,,,,,,,,,,,,,,,,,,,,,,,,,,,,,,,,,
,,5c5b31c415f6c30001de2df5,2024-02-22_05h02.04.631,kallum_motion_pilot,2023.2.2,Win32,144.092219,5c5b31c415f6c30001de2df5,65d6bb0e977760de756971f7,65d6d4d78f8d77324a4eeb90,0.021,0.021,0,60,60,36,1,threeone,,,,,,,,,,,,,,,,,,,,,,,,,,,,,,,,,,,,,,,,,,,,,,,,,,,,,,,,,,,,,,,,,,,,,,,,,,,,,,,,,,,,,,,,,,,,,,,,,,,,,,,,,,,,,,,,,,,,,,,,,,,,,,,,,,,,,,,,,
,,5c5b31c415f6c30001de2df5,2024-02-22_05h02.04.631,kallum_motion_pilot,2023.2.2,Win32,144.092219,5c5b31c415f6c30001de2df5,65d6bb0e977760de756971f7,65d6d4d78f8d77324a4eeb90,0.021,0.021,0,61,61,115,1,sixeight,,,,,,,,,,,,,,,,,,,,,,,,,,,,,,,,,,,,,,,,,,,,,,,,,,,,,,,,,,,,,,,,,,,,,,,,,,,,,,,,,,,,,,,,,,,,,,,,,,,,,,,,,,,,,,,,,,,,,,,,,,,,,,,,,,,,,,,,,
,,5c5b31c415f6c30001de2df5,2024-02-22_05h02.04.631,kallum_motion_pilot,2023.2.2,Win32,144.092219,5c5b31c415f6c30001de2df5,65d6bb0e977760de756971f7,65d6d4d78f8d77324a4eeb90,0.021,0.021,0,62,62,160,1,fivesix,,,,,,,,,,,,,,,,,,,,,,,,,,,,,,,,,,,,,,,,,,,,,,,,,,,,,,,,,,,,,,,,,,,,,,,,,,,,,,,,,,,,,,,,,,,,,,,,,,,,,,,,,,,,,,,,,,,,,,,,,,,,,,,,,,,,,,,,,
,,5c5b31c415f6c30001de2df5,2024-02-22_05h02.04.631,kallum_motion_pilot,2023.2.2,Win32,144.092219,5c5b31c415f6c30001de2df5,65d6bb0e977760de756971f7,65d6d4d78f8d77324a4eeb90,0.021,0.021,0,63,63,5,1,threefour,,,,,,,,,,,,,,,,,,,,,,,,,,,,,,,,,,,,,,,,,,,,,,,,,,,,,,,,,,,,,,,,,,,,,,,,,,,,,,,,,,,,,,,,,,,,,,,,,,,,,,,,,,,,,,,,,,,,,,,,,,,,,,,,,,,,,,,,,
,,5c5b31c415f6c30001de2df5,2024-02-22_05h02.04.631,kallum_motion_pilot,2023.2.2,Win32,144.092219,5c5b31c415f6c30001de2df5,65d6bb0e977760de756971f7,65d6d4d78f8d77324a4eeb90,0.021,0.021,0,64,64,30,1,fourtwo,,,,,,,,,,,,,,,,,,,,,,,,,,,,,,,,,,,,,,,,,,,,,,,,,,,,,,,,,,,,,,,,,,,,,,,,,,,,,,,,,,,,,,,,,,,,,,,,,,,,,,,,,,,,,,,,,,,,,,,,,,,,,,,,,,,,,,,,,
,,5c5b31c415f6c30001de2df5,2024-02-22_05h02.04.631,kallum_motion_pilot,2023.2.2,Win32,144.092219,5c5b31c415f6c30001de2df5,65d6bb0e977760de756971f7,65d6d4d78f8d77324a4eeb90,0.021,0.021,0,65,65,131,1,sixeight,,,,,,,,,,,,,,,,,,,,,,,,,,,,,,,,,,,,,,,,,,,,,,,,,,,,,,,,,,,,,,,,,,,,,,,,,,,,,,,,,,,,,,,,,,,,,,,,,,,,,,,,,,,,,,,,,,,,,,,,,,,,,,,,,,,,,,,,,
,,5c5b31c415f6c30001de2df5,2024-02-22_05h02.04.631,kallum_motion_pilot,2023.2.2,Win32,144.092219,5c5b31c415f6c30001de2df5,65d6bb0e977760de756971f7,65d6d4d78f8d77324a4eeb90,0.021,0.021,0,66,66,97,1,fiveseven,,,,,,,,,,,,,,,,,,,,,,,,,,,,,,,,,,,,,,,,,,,,,,,,,,,,,,,,,,,,,,,,,,,,,,,,,,,,,,,,,,,,,,,,,,,,,,,,,,,,,,,,,,,,,,,,,,,,,,,,,,,,,,,,,,,,,,,,,
,,5c5b31c415f6c30001de2df5,2024-02-22_05h02.04.631,kallum_motion_pilot,2023.2.2,Win32,144.092219,5c5b31c415f6c30001de2df5,65d6bb0e977760de756971f7,65d6d4d78f8d77324a4eeb90,0.021,0.021,0,67,67,19,1,twofour,,,,,,,,,,,,,,,,,,,,,,,,,,,,,,,,,,,,,,,,,,,,,,,,,,,,,,,,,,,,,,,,,,,,,,,,,,,,,,,,,,,,,,,,,,,,,,,,,,,,,,,,,,,,,,,,,,,,,,,,,,,,,,,,,,,,,,,,,
,,5c5b31c415f6c30001de2df5,2024-02-22_05h02.04.631,kallum_motion_pilot,2023.2.2,Win32,144.092219,5c5b31c415f6c30001de2df5,65d6bb0e977760de756971f7,65d6d4d78f8d77324a4eeb90,0.021,0.021,0,68,68,134,1,eightsix,,,,,,,,,,,,,,,,,,,,,,,,,,,,,,,,,,,,,,,,,,,,,,,,,,,,,,,,,,,,,,,,,,,,,,,,,,,,,,,,,,,,,,,,,,,,,,,,,,,,,,,,,,,,,,,,,,,,,,,,,,,,,,,,,,,,,,,,,
,,5c5b31c415f6c30001de2df5,2024-02-22_05h02.04.631,kallum_motion_pilot,2023.2.2,Win32,144.092219,5c5b31c415f6c30001de2df5,65d6bb0e977760de756971f7,65d6d4d78f8d77324a4eeb90,0.021,0.021,0,69,69,142,1,eightsix,,,,,,,,,,,,,,,,,,,,,,,,,,,,,,,,,,,,,,,,,,,,,,,,,,,,,,,,,,,,,,,,,,,,,,,,,,,,,,,,,,,,,,,,,,,,,,,,,,,,,,,,,,,,,,,,,,,,,,,,,,,,,,,,,,,,,,,,,
,,5c5b31c415f6c30001de2df5,2024-02-22_05h02.04.631,kallum_motion_pilot,2023.2.2,Win32,144.092219,5c5b31c415f6c30001de2df5,65d6bb0e977760de756971f7,65d6d4d78f8d77324a4eeb90,0.022,0.022,0,70,70,32,1,onetwo,,,,,,,,,,,,,,,,,,,,,,,,,,,,,,,,,,,,,,,,,,,,,,,,,,,,,,,,,,,,,,,,,,,,,,,,,,,,,,,,,,,,,,,,,,,,,,,,,,,,,,,,,,,,,,,,,,,,,,,,,,,,,,,,,,,,,,,,,
,,5c5b31c415f6c30001de2df5,2024-02-22_05h02.04.631,kallum_motion_pilot,2023.2.2,Win32,144.092219,5c5b31c415f6c30001de2df5,65d6bb0e977760de756971f7,65d6d4d78f8d77324a4eeb90,0.022,0.022,0,71,71,108,1,sevenfive,,,,,,,,,,,,,,,,,,,,,,,,,,,,,,,,,,,,,,,,,,,,,,,,,,,,,,,,,,,,,,,,,,,,,,,,,,,,,,,,,,,,,,,,,,,,,,,,,,,,,,,,,,,,,,,,,,,,,,,,,,,,,,,,,,,,,,,,,
,,5c5b31c415f6c30001de2df5,2024-02-22_05h02.04.631,kallum_motion_pilot,2023.2.2,Win32,144.092219,5c5b31c415f6c30001de2df5,65d6bb0e977760de756971f7,65d6d4d78f8d77324a4eeb90,0.022,0.022,0,72,72,79,1,eightseven,,,,,,,,,,,,,,,,,,,,,,,,,,,,,,,,,,,,,,,,,,,,,,,,,,,,,,,,,,,,,,,,,,,,,,,,,,,,,,,,,,,,,,,,,,,,,,,,,,,,,,,,,,,,,,,,,,,,,,,,,,,,,,,,,,,,,,,,,
,,5c5b31c415f6c30001de2df5,2024-02-22_05h02.04.631,kallum_motion_pilot,2023.2.2,Win32,144.092219,5c5b31c415f6c30001de2df5,65d6bb0e977760de756971f7,65d6d4d78f8d77324a4eeb90,0.023,0.023,0,73,73,53,1,threefour,,,,,,,,,,,,,,,,,,,,,,,,,,,,,,,,,,,,,,,,,,,,,,,,,,,,,,,,,,,,,,,,,,,,,,,,,,,,,,,,,,,,,,,,,,,,,,,,,,,,,,,,,,,,,,,,,,,,,,,,,,,,,,,,,,,,,,,,,
,,5c5b31c415f6c30001de2df5,2024-02-22_05h02.04.631,kallum_motion_pilot,2023.2.2,Win32,144.092219,5c5b31c415f6c30001de2df5,65d6bb0e977760de756971f7,65d6d4d78f8d77324a4eeb90,0.023,0.023,0,74,74,153,1,fiveseven,,,,,,,,,,,,,,,,,,,,,,,,,,,,,,,,,,,,,,,,,,,,,,,,,,,,,,,,,,,,,,,,,,,,,,,,,,,,,,,,,,,,,,,,,,,,,,,,,,,,,,,,,,,,,,,,,,,,,,,,,,,,,,,,,,,,,,,,,
,,5c5b31c415f6c30001de2df5,2024-02-22_05h02.04.631,kallum_motion_pilot,2023.2.2,Win32,144.092219,5c5b31c415f6c30001de2df5,65d6bb0e977760de756971f7,65d6d4d78f8d77324a4eeb90,0.023,0.023,0,75,75,116,1,sevenfive,,,,,,,,,,,,,,,,,,,,,,,,,,,,,,,,,,,,,,,,,,,,,,,,,,,,,,,,,,,,,,,,,,,,,,,,,,,,,,,,,,,,,,,,,,,,,,,,,,,,,,,,,,,,,,,,,,,,,,,,,,,,,,,,,,,,,,,,,
,,5c5b31c415f6c30001de2df5,2024-02-22_05h02.04.631,kallum_motion_pilot,2023.2.2,Win32,144.092219,5c5b31c415f6c30001de2df5,65d6bb0e977760de756971f7,65d6d4d78f8d77324a4eeb90,0.023,0.023,0,76,76,118,1,eightsix,,,,,,,,,,,,,,,,,,,,,,,,,,,,,,,,,,,,,,,,,,,,,,,,,,,,,,,,,,,,,,,,,,,,,,,,,,,,,,,,,,,,,,,,,,,,,,,,,,,,,,,,,,,,,,,,,,,,,,,,,,,,,,,,,,,,,,,,,
,,5c5b31c415f6c30001de2df5,2024-02-22_05h02.04.631,kallum_motion_pilot,2023.2.2,Win32,144.092219,5c5b31c415f6c30001de2df5,65d6bb0e977760de756971f7,65d6d4d78f8d77324a4eeb90,0.023,0.024,0,77,77,65,1,onethree,,,,,,,,,,,,,,,,,,,,,,,,,,,,,,,,,,,,,,,,,,,,,,,,,,,,,,,,,,,,,,,,,,,,,,,,,,,,,,,,,,,,,,,,,,,,,,,,,,,,,,,,,,,,,,,,,,,,,,,,,,,,,,,,,,,,,,,,,
,,5c5b31c415f6c30001de2df5,2024-02-22_05h02.04.631,kallum_motion_pilot,2023.2.2,Win32,144.092219,5c5b31c415f6c30001de2df5,65d6bb0e977760de756971f7,65d6d4d78f8d77324a4eeb90,0.024,0.024,0,78,78,114,1,sixfive,,,,,,,,,,,,,,,,,,,,,,,,,,,,,,,,,,,,,,,,,,,,,,,,,,,,,,,,,,,,,,,,,,,,,,,,,,,,,,,,,,,,,,,,,,,,,,,,,,,,,,,,,,,,,,,,,,,,,,,,,,,,,,,,,,,,,,,,,
,,5c5b31c415f6c30001de2df5,2024-02-22_05h02.04.631,kallum_motion_pilot,2023.2.2,Win32,144.092219,5c5b31c415f6c30001de2df5,65d6bb0e977760de756971f7,65d6d4d78f8d77324a4eeb90,0.024,0.024,0,79,79,24,1,onetwo,,,,,,,,,,,,,,,,,,,,,,,,,,,,,,,,,,,,,,,,,,,,,,,,,,,,,,,,,,,,,,,,,,,,,,,,,,,,,,,,,,,,,,,,,,,,,,,,,,,,,,,,,,,,,,,,,,,,,,,,,,,,,,,,,,,,,,,,,
,,5c5b31c415f6c30001de2df5,2024-02-22_05h02.04.631,kallum_motion_pilot,2023.2.2,Win32,144.092219,5c5b31c415f6c30001de2df5,65d6bb0e977760de756971f7,65d6d4d78f8d77324a4eeb90,0.024,0.024,0,80,80,71,1,fourthree,,,,,,,,,,,,,,,,,,,,,,,,,,,,,,,,,,,,,,,,,,,,,,,,,,,,,,,,,,,,,,,,,,,,,,,,,,,,,,,,,,,,,,,,,,,,,,,,,,,,,,,,,,,,,,,,,,,,,,,,,,,,,,,,,,,,,,,,,
,,5c5b31c415f6c30001de2df5,2024-02-22_05h02.04.631,kallum_motion_pilot,2023.2.2,Win32,144.092219,5c5b31c415f6c30001de2df5,65d6bb0e977760de756971f7,65d6d4d78f8d77324a4eeb90,0.024,0.024,0,81,81,61,1,threefour,,,,,,,,,,,,,,,,,,,,,,,,,,,,,,,,,,,,,,,,,,,,,,,,,,,,,,,,,,,,,,,,,,,,,,,,,,,,,,,,,,,,,,,,,,,,,,,,,,,,,,,,,,,,,,,,,,,,,,,,,,,,,,,,,,,,,,,,,
,,5c5b31c415f6c30001de2df5,2024-02-22_05h02.04.631,kallum_motion_pilot,2023.2.2,Win32,144.092219,5c5b31c415f6c30001de2df5,65d6bb0e977760de756971f7,65d6d4d78f8d77324a4eeb90,0.024,0.024,0,82,82,16,1,onetwo,,,,,,,,,,,,,,,,,,,,,,,,,,,,,,,,,,,,,,,,,,,,,,,,,,,,,,,,,,,,,,,,,,,,,,,,,,,,,,,,,,,,,,,,,,,,,,,,,,,,,,,,,,,,,,,,,,,,,,,,,,,,,,,,,,,,,,,,,
,,5c5b31c415f6c30001de2df5,2024-02-22_05h02.04.631,kallum_motion_pilot,2023.2.2,Win32,144.092219,5c5b31c415f6c30001de2df5,65d6bb0e977760de756971f7,65d6d4d78f8d77324a4eeb90,0.024,0.024,0,83,83,48,1,onetwo,,,,,,,,,,,,,,,,,,,,,,,,,,,,,,,,,,,,,,,,,,,,,,,,,,,,,,,,,,,,,,,,,,,,,,,,,,,,,,,,,,,,,,,,,,,,,,,,,,,,,,,,,,,,,,,,,,,,,,,,,,,,,,,,,,,,,,,,,
,,5c5b31c415f6c30001de2df5,2024-02-22_05h02.04.631,kallum_motion_pilot,2023.2.2,Win32,144.092219,5c5b31c415f6c30001de2df5,65d6bb0e977760de756971f7,65d6d4d78f8d77324a4eeb90,0.024,0.024,0,84,84,125,1,seveneight,,,,,,,,,,,,,,,,,,,,,,,,,,,,,,,,,,,,,,,,,,,,,,,,,,,,,,,,,,,,,,,,,,,,,,,,,,,,,,,,,,,,,,,,,,,,,,,,,,,,,,,,,,,,,,,,,,,,,,,,,,,,,,,,,,,,,,,,,
,,5c5b31c415f6c30001de2df5,2024-02-22_05h02.04.631,kallum_motion_pilot,2023.2.2,Win32,144.092219,5c5b31c415f6c30001de2df5,65d6bb0e977760de756971f7,65d6d4d78f8d77324a4eeb90,0.024,0.024,0,85,85,23,1,fourthree,,,,,,,,,,,,,,,,,,,,,,,,,,,,,,,,,,,,,,,,,,,,,,,,,,,,,,,,,,,,,,,,,,,,,,,,,,,,,,,,,,,,,,,,,,,,,,,,,,,,,,,,,,,,,,,,,,,,,,,,,,,,,,,,,,,,,,,,,
,,5c5b31c415f6c30001de2df5,2024-02-22_05h02.04.631,kallum_motion_pilot,2023.2.2,Win32,144.092219,5c5b31c415f6c30001de2df5,65d6bb0e977760de756971f7,65d6d4d78f8d77324a4eeb90,0.024,0.024,0,86,86,20,1,threeone,,,,,,,,,,,,,,,,,,,,,,,,,,,,,,,,,,,,,,,,,,,,,,,,,,,,,,,,,,,,,,,,,,,,,,,,,,,,,,,,,,,,,,,,,,,,,,,,,,,,,,,,,,,,,,,,,,,,,,,,,,,,,,,,,,,,,,,,,
,,5c5b31c415f6c30001de2df5,2024-02-22_05h02.04.631,kallum_motion_pilot,2023.2.2,Win32,144.092219,5c5b31c415f6c30001de2df5,65d6bb0e977760de756971f7,65d6d4d78f8d77324a4eeb90,0.024,0.024,0,87,87,105,1,fiveseven,,,,,,,,,,,,,,,,,,,,,,,,,,,,,,,,,,,,,,,,,,,,,,,,,,,,,,,,,,,,,,,,,,,,,,,,,,,,,,,,,,,,,,,,,,,,,,,,,,,,,,,,,,,,,,,,,,,,,,,,,,,,,,,,,,,,,,,,,
,,5c5b31c415f6c30001de2df5,2024-02-22_05h02.04.631,kallum_motion_pilot,2023.2.2,Win32,144.092219,5c5b31c415f6c30001de2df5,65d6bb0e977760de756971f7,65d6d4d78f8d77324a4eeb90,0.024,0.025,0,88,88,73,1,onethree,,,,,,,,,,,,,,,,,,,,,,,,,,,,,,,,,,,,,,,,,,,,,,,,,,,,,,,,,,,,,,,,,,,,,,,,,,,,,,,,,,,,,,,,,,,,,,,,,,,,,,,,,,,,,,,,,,,,,,,,,,,,,,,,,,,,,,,,,
,,5c5b31c415f6c30001de2df5,2024-02-22_05h02.04.631,kallum_motion_pilot,2023.2.2,Win32,144.092219,5c5b31c415f6c30001de2df5,65d6bb0e977760de756971f7,65d6d4d78f8d77324a4eeb90,0.025,0.025,0,89,89,88,1,fivesix,,,,,,,,,,,,,,,,,,,,,,,,,,,,,,,,,,,,,,,,,,,,,,,,,,,,,,,,,,,,,,,,,,,,,,,,,,,,,,,,,,,,,,,,,,,,,,,,,,,,,,,,,,,,,,,,,,,,,,,,,,,,,,,,,,,,,,,,,
,,5c5b31c415f6c30001de2df5,2024-02-22_05h02.04.631,kallum_motion_pilot,2023.2.2,Win32,144.092219,5c5b31c415f6c30001de2df5,65d6bb0e977760de756971f7,65d6d4d78f8d77324a4eeb90,0.025,0.025,0,90,90,157,1,seveneight,,,,,,,,,,,,,,,,,,,,,,,,,,,,,,,,,,,,,,,,,,,,,,,,,,,,,,,,,,,,,,,,,,,,,,,,,,,,,,,,,,,,,,,,,,,,,,,,,,,,,,,,,,,,,,,,,,,,,,,,,,,,,,,,,,,,,,,,,
,,5c5b31c415f6c30001de2df5,2024-02-22_05h02.04.631,kallum_motion_pilot,2023.2.2,Win32,144.092219,5c5b31c415f6c30001de2df5,65d6bb0e977760de756971f7,65d6d4d78f8d77324a4eeb90,0.025,0.025,0,91,91,41,1,onethree,,,,,,,,,,,,,,,,,,,,,,,,,,,,,,,,,,,,,,,,,,,,,,,,,,,,,,,,,,,,,,,,,,,,,,,,,,,,,,,,,,,,,,,,,,,,,,,,,,,,,,,,,,,,,,,,,,,,,,,,,,,,,,,,,,,,,,,,,
,,5c5b31c415f6c30001de2df5,2024-02-22_05h02.04.631,kallum_motion_pilot,2023.2.2,Win32,144.092219,5c5b31c415f6c30001de2df5,65d6bb0e977760de756971f7,65d6d4d78f8d77324a4eeb90,0.025,0.025,0,92,92,27,1,twofour,,,,,,,,,,,,,,,,,,,,,,,,,,,,,,,,,,,,,,,,,,,,,,,,,,,,,,,,,,,,,,,,,,,,,,,,,,,,,,,,,,,,,,,,,,,,,,,,,,,,,,,,,,,,,,,,,,,,,,,,,,,,,,,,,,,,,,,,,
,,5c5b31c415f6c30001de2df5,2024-02-22_05h02.04.631,kallum_motion_pilot,2023.2.2,Win32,144.092219,5c5b31c415f6c30001de2df5,65d6bb0e977760de756971f7,65d6d4d78f8d77324a4eeb90,0.025,0.025,0,93,93,7,1,fourthree,,,,,,,,,,,,,,,,,,,,,,,,,,,,,,,,,,,,,,,,,,,,,,,,,,,,,,,,,,,,,,,,,,,,,,,,,,,,,,,,,,,,,,,,,,,,,,,,,,,,,,,,,,,,,,,,,,,,,,,,,,,,,,,,,,,,,,,,,
,,5c5b31c415f6c30001de2df5,2024-02-22_05h02.04.631,kallum_motion_pilot,2023.2.2,Win32,144.092219,5c5b31c415f6c30001de2df5,65d6bb0e977760de756971f7,65d6d4d78f8d77324a4eeb90,0.025,0.025,0,94,94,14,1,fourtwo,,,,,,,,,,,,,,,,,,,,,,,,,,,,,,,,,,,,,,,,,,,,,,,,,,,,,,,,,,,,,,,,,,,,,,,,,,,,,,,,,,,,,,,,,,,,,,,,,,,,,,,,,,,,,,,,,,,,,,,,,,,,,,,,,,,,,,,,,
,,5c5b31c415f6c30001de2df5,2024-02-22_05h02.04.631,kallum_motion_pilot,2023.2.2,Win32,144.092219,5c5b31c415f6c30001de2df5,65d6bb0e977760de756971f7,65d6d4d78f8d77324a4eeb90,0.025,0.025,0,95,95,138,1,sixfive,,,,,,,,,,,,,,,,,,,,,,,,,,,,,,,,,,,,,,,,,,,,,,,,,,,,,,,,,,,,,,,,,,,,,,,,,,,,,,,,,,,,,,,,,,,,,,,,,,,,,,,,,,,,,,,,,,,,,,,,,,,,,,,,,,,,,,,,,
,,5c5b31c415f6c30001de2df5,2024-02-22_05h02.04.631,kallum_motion_pilot,2023.2.2,Win32,144.092219,5c5b31c415f6c30001de2df5,65d6bb0e977760de756971f7,65d6d4d78f8d77324a4eeb90,0.026,0.026,0,96,96,39,1,fourthree,,,,,,,,,,,,,,,,,,,,,,,,,,,,,,,,,,,,,,,,,,,,,,,,,,,,,,,,,,,,,,,,,,,,,,,,,,,,,,,,,,,,,,,,,,,,,,,,,,,,,,,,,,,,,,,,,,,,,,,,,,,,,,,,,,,,,,,,,
,,5c5b31c415f6c30001de2df5,2024-02-22_05h02.04.631,kallum_motion_pilot,2023.2.2,Win32,144.092219,5c5b31c415f6c30001de2df5,65d6bb0e977760de756971f7,65d6d4d78f8d77324a4eeb90,0.026,0.026,0,97,97,85,1,seveneight,,,,,,,,,,,,,,,,,,,,,,,,,,,,,,,,,,,,,,,,,,,,,,,,,,,,,,,,,,,,,,,,,,,,,,,,,,,,,,,,,,,,,,,,,,,,,,,,,,,,,,,,,,,,,,,,,,,,,,,,,,,,,,,,,,,,,,,,,
,,5c5b31c415f6c30001de2df5,2024-02-22_05h02.04.631,kallum_motion_pilot,2023.2.2,Win32,144.092219,5c5b31c415f6c30001de2df5,65d6bb0e977760de756971f7,65d6d4d78f8d77324a4eeb90,0.026,0.026,0,98,98,111,1,eightseven,,,,,,,,,,,,,,,,,,,,,,,,,,,,,,,,,,,,,,,,,,,,,,,,,,,,,,,,,,,,,,,,,,,,,,,,,,,,,,,,,,,,,,,,,,,,,,,,,,,,,,,,,,,,,,,,,,,,,,,,,,,,,,,,,,,,,,,,,
,,5c5b31c415f6c30001de2df5,2024-02-22_05h02.04.631,kallum_motion_pilot,2023.2.2,Win32,144.092219,5c5b31c415f6c30001de2df5,65d6bb0e977760de756971f7,65d6d4d78f8d77324a4eeb90,0.026,0.026,0,99,99,4,1,threeone,,,,,,,,,,,,,,,,,,,,,,,,,,,,,,,,,,,,,,,,,,,,,,,,,,,,,,,,,,,,,,,,,,,,,,,,,,,,,,,,,,,,,,,,,,,,,,,,,,,,,,,,,,,,,,,,,,,,,,,,,,,,,,,,,,,,,,,,,
,,5c5b31c415f6c30001de2df5,2024-02-22_05h02.04.631,kallum_motion_pilot,2023.2.2,Win32,144.092219,5c5b31c415f6c30001de2df5,65d6bb0e977760de756971f7,65d6d4d78f8d77324a4eeb90,0.026,0.026,0,100,100,2,1,twoone,,,,,,,,,,,,,,,,,,,,,,,,,,,,,,,,,,,,,,,,,,,,,,,,,,,,,,,,,,,,,,,,,,,,,,,,,,,,,,,,,,,,,,,,,,,,,,,,,,,,,,,,,,,,,,,,,,,,,,,,,,,,,,,,,,,,,,,,,
,,5c5b31c415f6c30001de2df5,2024-02-22_05h02.04.631,kallum_motion_pilot,2023.2.2,Win32,144.092219,5c5b31c415f6c30001de2df5,65d6bb0e977760de756971f7,65d6d4d78f8d77324a4eeb90,0.026,0.026,0,101,101,102,1,eightsix,,,,,,,,,,,,,,,,,,,,,,,,,,,,,,,,,,,,,,,,,,,,,,,,,,,,,,,,,,,,,,,,,,,,,,,,,,,,,,,,,,,,,,,,,,,,,,,,,,,,,,,,,,,,,,,,,,,,,,,,,,,,,,,,,,,,,,,,,
,,5c5b31c415f6c30001de2df5,2024-02-22_05h02.04.631,kallum_motion_pilot,2023.2.2,Win32,144.092219,5c5b31c415f6c30001de2df5,65d6bb0e977760de756971f7,65d6d4d78f8d77324a4eeb90,0.026,0.026,0,102,102,25,1,onethree,,,,,,,,,,,,,,,,,,,,,,,,,,,,,,,,,,,,,,,,,,,,,,,,,,,,,,,,,,,,,,,,,,,,,,,,,,,,,,,,,,,,,,,,,,,,,,,,,,,,,,,,,,,,,,,,,,,,,,,,,,,,,,,,,,,,,,,,,
,,5c5b31c415f6c30001de2df5,2024-02-22_05h02.04.631,kallum_motion_pilot,2023.2.2,Win32,144.092219,5c5b31c415f6c30001de2df5,65d6bb0e977760de756971f7,65d6d4d78f8d77324a4eeb90,0.026,0.026,0,103,103,152,1,fivesix,,,,,,,,,,,,,,,,,,,,,,,,,,,,,,,,,,,,,,,,,,,,,,,,,,,,,,,,,,,,,,,,,,,,,,,,,,,,,,,,,,,,,,,,,,,,,,,,,,,,,,,,,,,,,,,,,,,,,,,,,,,,,,,,,,,,,,,,,
,,5c5b31c415f6c30001de2df5,2024-02-22_05h02.04.631,kallum_motion_pilot,2023.2.2,Win32,144.092219,5c5b31c415f6c30001de2df5,65d6bb0e977760de756971f7,65d6d4d78f8d77324a4eeb90,0.026,0.026,0,104,104,0,1,onetwo,,,,,,,,,,,,,,,,,,,,,,,,,,,,,,,,,,,,,,,,,,,,,,,,,,,,,,,,,,,,,,,,,,,,,,,,,,,,,,,,,,,,,,,,,,,,,,,,,,,,,,,,,,,,,,,,,,,,,,,,,,,,,,,,,,,,,,,,,
,,5c5b31c415f6c30001de2df5,2024-02-22_05h02.04.631,kallum_motion_pilot,2023.2.2,Win32,144.092219,5c5b31c415f6c30001de2df5,65d6bb0e977760de756971f7,65d6d4d78f8d77324a4eeb90,0.026,0.026,0,105,105,63,1,fourthree,,,,,,,,,,,,,,,,,,,,,,,,,,,,,,,,,,,,,,,,,,,,,,,,,,,,,,,,,,,,,,,,,,,,,,,,,,,,,,,,,,,,,,,,,,,,,,,,,,,,,,,,,,,,,,,,,,,,,,,,,,,,,,,,,,,,,,,,,
,,5c5b31c415f6c30001de2df5,2024-02-22_05h02.04.631,kallum_motion_pilot,2023.2.2,Win32,144.092219,5c5b31c415f6c30001de2df5,65d6bb0e977760de756971f7,65d6d4d78f8d77324a4eeb90,0.026,0.026,0,106,106,33,1,onethree,,,,,,,,,,,,,,,,,,,,,,,,,,,,,,,,,,,,,,,,,,,,,,,,,,,,,,,,,,,,,,,,,,,,,,,,,,,,,,,,,,,,,,,,,,,,,,,,,,,,,,,,,,,,,,,,,,,,,,,,,,,,,,,,,,,,,,,,,
,,5c5b31c415f6c30001de2df5,2024-02-22_05h02.04.631,kallum_motion_pilot,2023.2.2,Win32,144.092219,5c5b31c415f6c30001de2df5,65d6bb0e977760de756971f7,65d6d4d78f8d77324a4eeb90,0.026,0.026,0,107,107,76,1,threeone,,,,,,,,,,,,,,,,,,,,,,,,,,,,,,,,,,,,,,,,,,,,,,,,,,,,,,,,,,,,,,,,,,,,,,,,,,,,,,,,,,,,,,,,,,,,,,,,,,,,,,,,,,,,,,,,,,,,,,,,,,,,,,,,,,,,,,,,,
,,5c5b31c415f6c30001de2df5,2024-02-22_05h02.04.631,kallum_motion_pilot,2023.2.2,Win32,144.092219,5c5b31c415f6c30001de2df5,65d6bb0e977760de756971f7,65d6d4d78f8d77324a4eeb90,0.027,0.027,0,108,108,80,1,fivesix,,,,,,,,,,,,,,,,,,,,,,,,,,,,,,,,,,,,,,,,,,,,,,,,,,,,,,,,,,,,,,,,,,,,,,,,,,,,,,,,,,,,,,,,,,,,,,,,,,,,,,,,,,,,,,,,,,,,,,,,,,,,,,,,,,,,,,,,,
,,5c5b31c415f6c30001de2df5,2024-02-22_05h02.04.631,kallum_motion_pilot,2023.2.2,Win32,144.092219,5c5b31c415f6c30001de2df5,65d6bb0e977760de756971f7,65d6d4d78f8d77324a4eeb90,0.027,0.027,0,109,109,54,1,fourtwo,,,,,,,,,,,,,,,,,,,,,,,,,,,,,,,,,,,,,,,,,,,,,,,,,,,,,,,,,,,,,,,,,,,,,,,,,,,,,,,,,,,,,,,,,,,,,,,,,,,,,,,,,,,,,,,,,,,,,,,,,,,,,,,,,,,,,,,,,
,,5c5b31c415f6c30001de2df5,2024-02-22_05h02.04.631,kallum_motion_pilot,2023.2.2,Win32,144.092219,5c5b31c415f6c30001de2df5,65d6bb0e977760de756971f7,65d6d4d78f8d77324a4eeb90,0.027,0.027,0,110,110,31,1,fourthree,,,,,,,,,,,,,,,,,,,,,,,,,,,,,,,,,,,,,,,,,,,,,,,,,,,,,,,,,,,,,,,,,,,,,,,,,,,,,,,,,,,,,,,,,,,,,,,,,,,,,,,,,,,,,,,,,,,,,,,,,,,,,,,,,,,,,,,,,
,,5c5b31c415f6c30001de2df5,2024-02-22_05h02.04.631,kallum_motion_pilot,2023.2.2,Win32,144.092219,5c5b31c415f6c30001de2df5,65d6bb0e977760de756971f7,65d6d4d78f8d77324a4eeb90,0.027,0.027,0,111,111,91,1,sixeight,,,,,,,,,,,,,,,,,,,,,,,,,,,,,,,,,,,,,,,,,,,,,,,,,,,,,,,,,,,,,,,,,,,,,,,,,,,,,,,,,,,,,,,,,,,,,,,,,,,,,,,,,,,,,,,,,,,,,,,,,,,,,,,,,,,,,,,,,
,,5c5b31c415f6c30001de2df5,2024-02-22_05h02.04.631,kallum_motion_pilot,2023.2.2,Win32,144.092219,5c5b31c415f6c30001de2df5,65d6bb0e977760de756971f7,65d6d4d78f8d77324a4eeb90,0.027,0.027,0,112,112,150,1,eightsix,,,,,,,,,,,,,,,,,,,,,,,,,,,,,,,,,,,,,,,,,,,,,,,,,,,,,,,,,,,,,,,,,,,,,,,,,,,,,,,,,,,,,,,,,,,,,,,,,,,,,,,,,,,,,,,,,,,,,,,,,,,,,,,,,,,,,,,,,
,,5c5b31c415f6c30001de2df5,2024-02-22_05h02.04.631,kallum_motion_pilot,2023.2.2,Win32,144.092219,5c5b31c415f6c30001de2df5,65d6bb0e977760de756971f7,65d6d4d78f8d77324a4eeb90,0.027,0.027,0,113,113,64,1,onetwo,,,,,,,,,,,,,,,,,,,,,,,,,,,,,,,,,,,,,,,,,,,,,,,,,,,,,,,,,,,,,,,,,,,,,,,,,,,,,,,,,,,,,,,,,,,,,,,,,,,,,,,,,,,,,,,,,,,,,,,,,,,,,,,,,,,,,,,,,
,,5c5b31c415f6c30001de2df5,2024-02-22_05h02.04.631,kallum_motion_pilot,2023.2.2,Win32,144.092219,5c5b31c415f6c30001de2df5,65d6bb0e977760de756971f7,65d6d4d78f8d77324a4eeb90,0.027,0.027,0,114,114,120,1,fivesix,,,,,,,,,,,,,,,,,,,,,,,,,,,,,,,,,,,,,,,,,,,,,,,,,,,,,,,,,,,,,,,,,,,,,,,,,,,,,,,,,,,,,,,,,,,,,,,,,,,,,,,,,,,,,,,,,,,,,,,,,,,,,,,,,,,,,,,,,
,,5c5b31c415f6c30001de2df5,2024-02-22_05h02.04.631,kallum_motion_pilot,2023.2.2,Win32,144.092219,5c5b31c415f6c30001de2df5,65d6bb0e977760de756971f7,65d6d4d78f8d77324a4eeb90,0.027,0.027,0,115,115,81,1,fiveseven,,,,,,,,,,,,,,,,,,,,,,,,,,,,,,,,,,,,,,,,,,,,,,,,,,,,,,,,,,,,,,,,,,,,,,,,,,,,,,,,,,,,,,,,,,,,,,,,,,,,,,,,,,,,,,,,,,,,,,,,,,,,,,,,,,,,,,,,,
,,5c5b31c415f6c30001de2df5,2024-02-22_05h02.04.631,kallum_motion_pilot,2023.2.2,Win32,144.092219,5c5b31c415f6c30001de2df5,65d6bb0e977760de756971f7,65d6d4d78f8d77324a4eeb90,0.027,0.027,0,116,116,145,1,fiveseven,,,,,,,,,,,,,,,,,,,,,,,,,,,,,,,,,,,,,,,,,,,,,,,,,,,,,,,,,,,,,,,,,,,,,,,,,,,,,,,,,,,,,,,,,,,,,,,,,,,,,,,,,,,,,,,,,,,,,,,,,,,,,,,,,,,,,,,,,
,,5c5b31c415f6c30001de2df5,2024-02-22_05h02.04.631,kallum_motion_pilot,2023.2.2,Win32,144.092219,5c5b31c415f6c30001de2df5,65d6bb0e977760de756971f7,65d6d4d78f8d77324a4eeb90,0.027,0.027,0,117,117,89,1,fiveseven,,,,,,,,,,,,,,,,,,,,,,,,,,,,,,,,,,,,,,,,,,,,,,,,,,,,,,,,,,,,,,,,,,,,,,,,,,,,,,,,,,,,,,,,,,,,,,,,,,,,,,,,,,,,,,,,,,,,,,,,,,,,,,,,,,,,,,,,,
,,5c5b31c415f6c30001de2df5,2024-02-22_05h02.04.631,kallum_motion_pilot,2023.2.2,Win32,144.092219,5c5b31c415f6c30001de2df5,65d6bb0e977760de756971f7,65d6d4d78f8d77324a4eeb90,0.027,0.027,0,118,118,26,1,twoone,,,,,,,,,,,,,,,,,,,,,,,,,,,,,,,,,,,,,,,,,,,,,,,,,,,,,,,,,,,,,,,,,,,,,,,,,,,,,,,,,,,,,,,,,,,,,,,,,,,,,,,,,,,,,,,,,,,,,,,,,,,,,,,,,,,,,,,,,
,,5c5b31c415f6c30001de2df5,2024-02-22_05h02.04.631,kallum_motion_pilot,2023.2.2,Win32,144.092219,5c5b31c415f6c30001de2df5,65d6bb0e977760de756971f7,65d6d4d78f8d77324a4eeb90,0.027,0.027,0,119,119,126,1,eightsix,,,,,,,,,,,,,,,,,,,,,,,,,,,,,,,,,,,,,,,,,,,,,,,,,,,,,,,,,,,,,,,,,,,,,,,,,,,,,,,,,,,,,,,,,,,,,,,,,,,,,,,,,,,,,,,,,,,,,,,,,,,,,,,,,,,,,,,,,
,,5c5b31c415f6c30001de2df5,2024-02-22_05h02.04.631,kallum_motion_pilot,2023.2.2,Win32,144.092219,5c5b31c415f6c30001de2df5,65d6bb0e977760de756971f7,65d6d4d78f8d77324a4eeb90,0.027,0.027,0,120,120,141,1,seveneight,,,,,,,,,,,,,,,,,,,,,,,,,,,,,,,,,,,,,,,,,,,,,,,,,,,,,,,,,,,,,,,,,,,,,,,,,,,,,,,,,,,,,,,,,,,,,,,,,,,,,,,,,,,,,,,,,,,,,,,,,,,,,,,,,,,,,,,,,
,,5c5b31c415f6c30001de2df5,2024-02-22_05h02.04.631,kallum_motion_pilot,2023.2.2,Win32,144.092219,5c5b31c415f6c30001de2df5,65d6bb0e977760de756971f7,65d6d4d78f8d77324a4eeb90,0.027,0.027,0,121,121,51,1,twofour,,,,,,,,,,,,,,,,,,,,,,,,,,,,,,,,,,,,,,,,,,,,,,,,,,,,,,,,,,,,,,,,,,,,,,,,,,,,,,,,,,,,,,,,,,,,,,,,,,,,,,,,,,,,,,,,,,,,,,,,,,,,,,,,,,,,,,,,,
,,5c5b31c415f6c30001de2df5,2024-02-22_05h02.04.631,kallum_motion_pilot,2023.2.2,Win32,144.092219,5c5b31c415f6c30001de2df5,65d6bb0e977760de756971f7,65d6d4d78f8d77324a4eeb90,0.027,0.027,0,122,122,46,1,fourtwo,,,,,,,,,,,,,,,,,,,,,,,,,,,,,,,,,,,,,,,,,,,,,,,,,,,,,,,,,,,,,,,,,,,,,,,,,,,,,,,,,,,,,,,,,,,,,,,,,,,,,,,,,,,,,,,,,,,,,,,,,,,,,,,,,,,,,,,,,
,,5c5b31c415f6c30001de2df5,2024-02-22_05h02.04.631,kallum_motion_pilot,2023.2.2,Win32,144.092219,5c5b31c415f6c30001de2df5,65d6bb0e977760de756971f7,65d6d4d78f8d77324a4eeb90,0.028,0.028,0,123,123,98,1,sixfive,,,,,,,,,,,,,,,,,,,,,,,,,,,,,,,,,,,,,,,,,,,,,,,,,,,,,,,,,,,,,,,,,,,,,,,,,,,,,,,,,,,,,,,,,,,,,,,,,,,,,,,,,,,,,,,,,,,,,,,,,,,,,,,,,,,,,,,,,
,,5c5b31c415f6c30001de2df5,2024-02-22_05h02.04.631,kallum_motion_pilot,2023.2.2,Win32,144.092219,5c5b31c415f6c30001de2df5,65d6bb0e977760de756971f7,65d6d4d78f8d77324a4eeb90,0.028,0.028,0,124,124,11,1,twofour,,,,,,,,,,,,,,,,,,,,,,,,,,,,,,,,,,,,,,,,,,,,,,,,,,,,,,,,,,,,,,,,,,,,,,,,,,,,,,,,,,,,,,,,,,,,,,,,,,,,,,,,,,,,,,,,,,,,,,,,,,,,,,,,,,,,,,,,,
,,5c5b31c415f6c30001de2df5,2024-02-22_05h02.04.631,kallum_motion_pilot,2023.2.2,Win32,144.092219,5c5b31c415f6c30001de2df5,65d6bb0e977760de756971f7,65d6d4d78f8d77324a4eeb90,0.028,0.028,0,125,125,117,1,seveneight,,,,,,,,,,,,,,,,,,,,,,,,,,,,,,,,,,,,,,,,,,,,,,,,,,,,,,,,,,,,,,,,,,,,,,,,,,,,,,,,,,,,,,,,,,,,,,,,,,,,,,,,,,,,,,,,,,,,,,,,,,,,,,,,,,,,,,,,,
,,5c5b31c415f6c30001de2df5,2024-02-22_05h02.04.631,kallum_motion_pilot,2023.2.2,Win32,144.092219,5c5b31c415f6c30001de2df5,65d6bb0e977760de756971f7,65d6d4d78f8d77324a4eeb90,0.028,0.028,0,126,126,49,1,onethree,,,,,,,,,,,,,,,,,,,,,,,,,,,,,,,,,,,,,,,,,,,,,,,,,,,,,,,,,,,,,,,,,,,,,,,,,,,,,,,,,,,,,,,,,,,,,,,,,,,,,,,,,,,,,,,,,,,,,,,,,,,,,,,,,,,,,,,,,
,,5c5b31c415f6c30001de2df5,2024-02-22_05h02.04.631,kallum_motion_pilot,2023.2.2,Win32,144.092219,5c5b31c415f6c30001de2df5,65d6bb0e977760de756971f7,65d6d4d78f8d77324a4eeb90,0.028,0.028,0,127,127,82,1,sixfive,,,,,,,,,,,,,,,,,,,,,,,,,,,,,,,,,,,,,,,,,,,,,,,,,,,,,,,,,,,,,,,,,,,,,,,,,,,,,,,,,,,,,,,,,,,,,,,,,,,,,,,,,,,,,,,,,,,,,,,,,,,,,,,,,,,,,,,,,
,,5c5b31c415f6c30001de2df5,2024-02-22_05h02.04.631,kallum_motion_pilot,2023.2.2,Win32,144.092219,5c5b31c415f6c30001de2df5,65d6bb0e977760de756971f7,65d6d4d78f8d77324a4eeb90,0.028,0.028,0,128,128,9,1,onethree,,,,,,,,,,,,,,,,,,,,,,,,,,,,,,,,,,,,,,,,,,,,,,,,,,,,,,,,,,,,,,,,,,,,,,,,,,,,,,,,,,,,,,,,,,,,,,,,,,,,,,,,,,,,,,,,,,,,,,,,,,,,,,,,,,,,,,,,,
,,5c5b31c415f6c30001de2df5,2024-02-22_05h02.04.631,kallum_motion_pilot,2023.2.2,Win32,144.092219,5c5b31c415f6c30001de2df5,65d6bb0e977760de756971f7,65d6d4d78f8d77324a4eeb90,0.028,0.028,0,129,129,92,1,sevenfive,,,,,,,,,,,,,,,,,,,,,,,,,,,,,,,,,,,,,,,,,,,,,,,,,,,,,,,,,,,,,,,,,,,,,,,,,,,,,,,,,,,,,,,,,,,,,,,,,,,,,,,,,,,,,,,,,,,,,,,,,,,,,,,,,,,,,,,,,
,,5c5b31c415f6c30001de2df5,2024-02-22_05h02.04.631,kallum_motion_pilot,2023.2.2,Win32,144.092219,5c5b31c415f6c30001de2df5,65d6bb0e977760de756971f7,65d6d4d78f8d77324a4eeb90,0.028,0.028,0,130,130,136,1,fivesix,,,,,,,,,,,,,,,,,,,,,,,,,,,,,,,,,,,,,,,,,,,,,,,,,,,,,,,,,,,,,,,,,,,,,,,,,,,,,,,,,,,,,,,,,,,,,,,,,,,,,,,,,,,,,,,,,,,,,,,,,,,,,,,,,,,,,,,,,
,,5c5b31c415f6c30001de2df5,2024-02-22_05h02.04.631,kallum_motion_pilot,2023.2.2,Win32,144.092219,5c5b31c415f6c30001de2df5,65d6bb0e977760de756971f7,65d6d4d78f8d77324a4eeb90,0.028,0.028,0,131,131,143,1,eightseven,,,,,,,,,,,,,,,,,,,,,,,,,,,,,,,,,,,,,,,,,,,,,,,,,,,,,,,,,,,,,,,,,,,,,,,,,,,,,,,,,,,,,,,,,,,,,,,,,,,,,,,,,,,,,,,,,,,,,,,,,,,,,,,,,,,,,,,,,
,,5c5b31c415f6c30001de2df5,2024-02-22_05h02.04.631,kallum_motion_pilot,2023.2.2,Win32,144.092219,5c5b31c415f6c30001de2df5,65d6bb0e977760de756971f7,65d6d4d78f8d77324a4eeb90,0.028,0.028,0,132,132,90,1,sixfive,,,,,,,,,,,,,,,,,,,,,,,,,,,,,,,,,,,,,,,,,,,,,,,,,,,,,,,,,,,,,,,,,,,,,,,,,,,,,,,,,,,,,,,,,,,,,,,,,,,,,,,,,,,,,,,,,,,,,,,,,,,,,,,,,,,,,,,,,
,,5c5b31c415f6c30001de2df5,2024-02-22_05h02.04.631,kallum_motion_pilot,2023.2.2,Win32,144.092219,5c5b31c415f6c30001de2df5,65d6bb0e977760de756971f7,65d6d4d78f8d77324a4eeb90,0.028,0.028,0,133,133,60,1,threeone,,,,,,,,,,,,,,,,,,,,,,,,,,,,,,,,,,,,,,,,,,,,,,,,,,,,,,,,,,,,,,,,,,,,,,,,,,,,,,,,,,,,,,,,,,,,,,,,,,,,,,,,,,,,,,,,,,,,,,,,,,,,,,,,,,,,,,,,,
,,5c5b31c415f6c30001de2df5,2024-02-22_05h02.04.631,kallum_motion_pilot,2023.2.2,Win32,144.092219,5c5b31c415f6c30001de2df5,65d6bb0e977760de756971f7,65d6d4d78f8d77324a4eeb90,0.028,0.028,0,134,134,130,1,sixfive,,,,,,,,,,,,,,,,,,,,,,,,,,,,,,,,,,,,,,,,,,,,,,,,,,,,,,,,,,,,,,,,,,,,,,,,,,,,,,,,,,,,,,,,,,,,,,,,,,,,,,,,,,,,,,,,,,,,,,,,,,,,,,,,,,,,,,,,,
,,5c5b31c415f6c30001de2df5,2024-02-22_05h02.04.631,kallum_motion_pilot,2023.2.2,Win32,144.092219,5c5b31c415f6c30001de2df5,65d6bb0e977760de756971f7,65d6d4d78f8d77324a4eeb90,0.028,0.028,0,135,135,84,1,sevenfive,,,,,,,,,,,,,,,,,,,,,,,,,,,,,,,,,,,,,,,,,,,,,,,,,,,,,,,,,,,,,,,,,,,,,,,,,,,,,,,,,,,,,,,,,,,,,,,,,,,,,,,,,,,,,,,,,,,,,,,,,,,,,,,,,,,,,,,,,
,,5c5b31c415f6c30001de2df5,2024-02-22_05h02.04.631,kallum_motion_pilot,2023.2.2,Win32,144.092219,5c5b31c415f6c30001de2df5,65d6bb0e977760de756971f7,65d6d4d78f8d77324a4eeb90,0.029,0.029,0,136,136,161,1,fiveseven,,,,,,,,,,,,,,,,,,,,,,,,,,,,,,,,,,,,,,,,,,,,,,,,,,,,,,,,,,,,,,,,,,,,,,,,,,,,,,,,,,,,,,,,,,,,,,,,,,,,,,,,,,,,,,,,,,,,,,,,,,,,,,,,,,,,,,,,,
,,5c5b31c415f6c30001de2df5,2024-02-22_05h02.04.631,kallum_motion_pilot,2023.2.2,Win32,144.092219,5c5b31c415f6c30001de2df5,65d6bb0e977760de756971f7,65d6d4d78f8d77324a4eeb90,0.029,0.029,0,137,137,69,1,threefour,,,,,,,,,,,,,,,,,,,,,,,,,,,,,,,,,,,,,,,,,,,,,,,,,,,,,,,,,,,,,,,,,,,,,,,,,,,,,,,,,,,,,,,,,,,,,,,,,,,,,,,,,,,,,,,,,,,,,,,,,,,,,,,,,,,,,,,,,
,,5c5b31c415f6c30001de2df5,2024-02-22_05h02.04.631,kallum_motion_pilot,2023.2.2,Win32,144.092219,5c5b31c415f6c30001de2df5,65d6bb0e977760de756971f7,65d6d4d78f8d77324a4eeb90,0.029,0.029,0,138,138,158,1,eightsix,,,,,,,,,,,,,,,,,,,,,,,,,,,,,,,,,,,,,,,,,,,,,,,,,,,,,,,,,,,,,,,,,,,,,,,,,,,,,,,,,,,,,,,,,,,,,,,,,,,,,,,,,,,,,,,,,,,,,,,,,,,,,,,,,,,,,,,,,
,,5c5b31c415f6c30001de2df5,2024-02-22_05h02.04.631,kallum_motion_pilot,2023.2.2,Win32,144.092219,5c5b31c415f6c30001de2df5,65d6bb0e977760de756971f7,65d6d4d78f8d77324a4eeb90,0.029,0.029,0,139,139,50,1,twoone,,,,,,,,,,,,,,,,,,,,,,,,,,,,,,,,,,,,,,,,,,,,,,,,,,,,,,,,,,,,,,,,,,,,,,,,,,,,,,,,,,,,,,,,,,,,,,,,,,,,,,,,,,,,,,,,,,,,,,,,,,,,,,,,,,,,,,,,,
,,5c5b31c415f6c30001de2df5,2024-02-22_05h02.04.631,kallum_motion_pilot,2023.2.2,Win32,144.092219,5c5b31c415f6c30001de2df5,65d6bb0e977760de756971f7,65d6d4d78f8d77324a4eeb90,0.029,0.029,0,140,140,43,1,twofour,,,,,,,,,,,,,,,,,,,,,,,,,,,,,,,,,,,,,,,,,,,,,,,,,,,,,,,,,,,,,,,,,,,,,,,,,,,,,,,,,,,,,,,,,,,,,,,,,,,,,,,,,,,,,,,,,,,,,,,,,,,,,,,,,,,,,,,,,
,,5c5b31c415f6c30001de2df5,2024-02-22_05h02.04.631,kallum_motion_pilot,2023.2.2,Win32,144.092219,5c5b31c415f6c30001de2df5,65d6bb0e977760de756971f7,65d6d4d78f8d77324a4eeb90,0.029,0.029,0,141,141,42,1,twoone,,,,,,,,,,,,,,,,,,,,,,,,,,,,,,,,,,,,,,,,,,,,,,,,,,,,,,,,,,,,,,,,,,,,,,,,,,,,,,,,,,,,,,,,,,,,,,,,,,,,,,,,,,,,,,,,,,,,,,,,,,,,,,,,,,,,,,,,,
,,5c5b31c415f6c30001de2df5,2024-02-22_05h02.04.631,kallum_motion_pilot,2023.2.2,Win32,144.092219,5c5b31c415f6c30001de2df5,65d6bb0e977760de756971f7,65d6d4d78f8d77324a4eeb90,0.029,0.029,0,142,142,77,1,threefour,,,,,,,,,,,,,,,,,,,,,,,,,,,,,,,,,,,,,,,,,,,,,,,,,,,,,,,,,,,,,,,,,,,,,,,,,,,,,,,,,,,,,,,,,,,,,,,,,,,,,,,,,,,,,,,,,,,,,,,,,,,,,,,,,,,,,,,,,
,,5c5b31c415f6c30001de2df5,2024-02-22_05h02.04.631,kallum_motion_pilot,2023.2.2,Win32,144.092219,5c5b31c415f6c30001de2df5,65d6bb0e977760de756971f7,65d6d4d78f8d77324a4eeb90,0.029,0.029,0,143,143,44,1,threeone,,,,,,,,,,,,,,,,,,,,,,,,,,,,,,,,,,,,,,,,,,,,,,,,,,,,,,,,,,,,,,,,,,,,,,,,,,,,,,,,,,,,,,,,,,,,,,,,,,,,,,,,,,,,,,,,,,,,,,,,,,,,,,,,,,,,,,,,,
,,5c5b31c415f6c30001de2df5,2024-02-22_05h02.04.631,kallum_motion_pilot,2023.2.2,Win32,144.092219,5c5b31c415f6c30001de2df5,65d6bb0e977760de756971f7,65d6d4d78f8d77324a4eeb90,0.029,0.029,0,144,144,18,1,twoone,,,,,,,,,,,,,,,,,,,,,,,,,,,,,,,,,,,,,,,,,,,,,,,,,,,,,,,,,,,,,,,,,,,,,,,,,,,,,,,,,,,,,,,,,,,,,,,,,,,,,,,,,,,,,,,,,,,,,,,,,,,,,,,,,,,,,,,,,
,,5c5b31c415f6c30001de2df5,2024-02-22_05h02.04.631,kallum_motion_pilot,2023.2.2,Win32,144.092219,5c5b31c415f6c30001de2df5,65d6bb0e977760de756971f7,65d6d4d78f8d77324a4eeb90,0.029,0.029,0,145,145,67,1,twofour,,,,,,,,,,,,,,,,,,,,,,,,,,,,,,,,,,,,,,,,,,,,,,,,,,,,,,,,,,,,,,,,,,,,,,,,,,,,,,,,,,,,,,,,,,,,,,,,,,,,,,,,,,,,,,,,,,,,,,,,,,,,,,,,,,,,,,,,,
,,5c5b31c415f6c30001de2df5,2024-02-22_05h02.04.631,kallum_motion_pilot,2023.2.2,Win32,144.092219,5c5b31c415f6c30001de2df5,65d6bb0e977760de756971f7,65d6d4d78f8d77324a4eeb90,0.029,0.029,0,146,146,129,1,fiveseven,,,,,,,,,,,,,,,,,,,,,,,,,,,,,,,,,,,,,,,,,,,,,,,,,,,,,,,,,,,,,,,,,,,,,,,,,,,,,,,,,,,,,,,,,,,,,,,,,,,,,,,,,,,,,,,,,,,,,,,,,,,,,,,,,,,,,,,,,
,,5c5b31c415f6c30001de2df5,2024-02-22_05h02.04.631,kallum_motion_pilot,2023.2.2,Win32,144.092219,5c5b31c415f6c30001de2df5,65d6bb0e977760de756971f7,65d6d4d78f8d77324a4eeb90,0.029,0.029,0,147,147,8,1,onetwo,,,,,,,,,,,,,,,,,,,,,,,,,,,,,,,,,,,,,,,,,,,,,,,,,,,,,,,,,,,,,,,,,,,,,,,,,,,,,,,,,,,,,,,,,,,,,,,,,,,,,,,,,,,,,,,,,,,,,,,,,,,,,,,,,,,,,,,,,
,,5c5b31c415f6c30001de2df5,2024-02-22_05h02.04.631,kallum_motion_pilot,2023.2.2,Win32,144.092219,5c5b31c415f6c30001de2df5,65d6bb0e977760de756971f7,65d6d4d78f8d77324a4eeb90,0.029,0.029,0,148,148,28,1,threeone,,,,,,,,,,,,,,,,,,,,,,,,,,,,,,,,,,,,,,,,,,,,,,,,,,,,,,,,,,,,,,,,,,,,,,,,,,,,,,,,,,,,,,,,,,,,,,,,,,,,,,,,,,,,,,,,,,,,,,,,,,,,,,,,,,,,,,,,,
,,5c5b31c415f6c30001de2df5,2024-02-22_05h02.04.631,kallum_motion_pilot,2023.2.2,Win32,144.092219,5c5b31c415f6c30001de2df5,65d6bb0e977760de756971f7,65d6d4d78f8d77324a4eeb90,0.029,0.029,0,149,149,22,1,fourtwo,,,,,,,,,,,,,,,,,,,,,,,,,,,,,,,,,,,,,,,,,,,,,,,,,,,,,,,,,,,,,,,,,,,,,,,,,,,,,,,,,,,,,,,,,,,,,,,,,,,,,,,,,,,,,,,,,,,,,,,,,,,,,,,,,,,,,,,,,
,,5c5b31c415f6c30001de2df5,2024-02-22_05h02.04.631,kallum_motion_pilot,2023.2.2,Win32,144.092219,5c5b31c415f6c30001de2df5,65d6bb0e977760de756971f7,65d6d4d78f8d77324a4eeb90,0.029,0.029,0,150,150,3,1,twofour,,,,,,,,,,,,,,,,,,,,,,,,,,,,,,,,,,,,,,,,,,,,,,,,,,,,,,,,,,,,,,,,,,,,,,,,,,,,,,,,,,,,,,,,,,,,,,,,,,,,,,,,,,,,,,,,,,,,,,,,,,,,,,,,,,,,,,,,,
,,5c5b31c415f6c30001de2df5,2024-02-22_05h02.04.631,kallum_motion_pilot,2023.2.2,Win32,144.092219,5c5b31c415f6c30001de2df5,65d6bb0e977760de756971f7,65d6d4d78f8d77324a4eeb90,0.029,0.03,0,151,151,47,1,fourthree,,,,,,,,,,,,,,,,,,,,,,,,,,,,,,,,,,,,,,,,,,,,,,,,,,,,,,,,,,,,,,,,,,,,,,,,,,,,,,,,,,,,,,,,,,,,,,,,,,,,,,,,,,,,,,,,,,,,,,,,,,,,,,,,,,,,,,,,,
,,5c5b31c415f6c30001de2df5,2024-02-22_05h02.04.631,kallum_motion_pilot,2023.2.2,Win32,144.092219,5c5b31c415f6c30001de2df5,65d6bb0e977760de756971f7,65d6d4d78f8d77324a4eeb90,0.03,0.03,0,152,152,35,1,twofour,,,,,,,,,,,,,,,,,,,,,,,,,,,,,,,,,,,,,,,,,,,,,,,,,,,,,,,,,,,,,,,,,,,,,,,,,,,,,,,,,,,,,,,,,,,,,,,,,,,,,,,,,,,,,,,,,,,,,,,,,,,,,,,,,,,,,,,,,
,,5c5b31c415f6c30001de2df5,2024-02-22_05h02.04.631,kallum_motion_pilot,2023.2.2,Win32,144.092219,5c5b31c415f6c30001de2df5,65d6bb0e977760de756971f7,65d6d4d78f8d77324a4eeb90,0.03,0.03,0,153,153,128,1,fivesix,,,,,,,,,,,,,,,,,,,,,,,,,,,,,,,,,,,,,,,,,,,,,,,,,,,,,,,,,,,,,,,,,,,,,,,,,,,,,,,,,,,,,,,,,,,,,,,,,,,,,,,,,,,,,,,,,,,,,,,,,,,,,,,,,,,,,,,,,
,,5c5b31c415f6c30001de2df5,2024-02-22_05h02.04.631,kallum_motion_pilot,2023.2.2,Win32,144.092219,5c5b31c415f6c30001de2df5,65d6bb0e977760de756971f7,65d6d4d78f8d77324a4eeb90,0.03,0.03,0,154,154,139,1,sixeight,,,,,,,,,,,,,,,,,,,,,,,,,,,,,,,,,,,,,,,,,,,,,,,,,,,,,,,,,,,,,,,,,,,,,,,,,,,,,,,,,,,,,,,,,,,,,,,,,,,,,,,,,,,,,,,,,,,,,,,,,,,,,,,,,,,,,,,,,
,,5c5b31c415f6c30001de2df5,2024-02-22_05h02.04.631,kallum_motion_pilot,2023.2.2,Win32,144.092219,5c5b31c415f6c30001de2df5,65d6bb0e977760de756971f7,65d6d4d78f8d77324a4eeb90,0.03,0.03,0,155,155,83,1,sixeight,,,,,,,,,,,,,,,,,,,,,,,,,,,,,,,,,,,,,,,,,,,,,,,,,,,,,,,,,,,,,,,,,,,,,,,,,,,,,,,,,,,,,,,,,,,,,,,,,,,,,,,,,,,,,,,,,,,,,,,,,,,,,,,,,,,,,,,,,
,,5c5b31c415f6c30001de2df5,2024-02-22_05h02.04.631,kallum_motion_pilot,2023.2.2,Win32,144.092219,5c5b31c415f6c30001de2df5,65d6bb0e977760de756971f7,65d6d4d78f8d77324a4eeb90,0.03,0.03,0,156,156,59,1,twofour,,,,,,,,,,,,,,,,,,,,,,,,,,,,,,,,,,,,,,,,,,,,,,,,,,,,,,,,,,,,,,,,,,,,,,,,,,,,,,,,,,,,,,,,,,,,,,,,,,,,,,,,,,,,,,,,,,,,,,,,,,,,,,,,,,,,,,,,,
,,5c5b31c415f6c30001de2df5,2024-02-22_05h02.04.631,kallum_motion_pilot,2023.2.2,Win32,144.092219,5c5b31c415f6c30001de2df5,65d6bb0e977760de756971f7,65d6d4d78f8d77324a4eeb90,0.03,0.03,0,157,157,38,1,fourtwo,,,,,,,,,,,,,,,,,,,,,,,,,,,,,,,,,,,,,,,,,,,,,,,,,,,,,,,,,,,,,,,,,,,,,,,,,,,,,,,,,,,,,,,,,,,,,,,,,,,,,,,,,,,,,,,,,,,,,,,,,,,,,,,,,,,,,,,,,
,,5c5b31c415f6c30001de2df5,2024-02-22_05h02.04.631,kallum_motion_pilot,2023.2.2,Win32,144.092219,5c5b31c415f6c30001de2df5,65d6bb0e977760de756971f7,65d6d4d78f8d77324a4eeb90,0.03,0.03,0,158,158,17,1,onethree,,,,,,,,,,,,,,,,,,,,,,,,,,,,,,,,,,,,,,,,,,,,,,,,,,,,,,,,,,,,,,,,,,,,,,,,,,,,,,,,,,,,,,,,,,,,,,,,,,,,,,,,,,,,,,,,,,,,,,,,,,,,,,,,,,,,,,,,,
,,5c5b31c415f6c30001de2df5,2024-02-22_05h02.04.631,kallum_motion_pilot,2023.2.2,Win32,144.092219,5c5b31c415f6c30001de2df5,65d6bb0e977760de756971f7,65d6d4d78f8d77324a4eeb90,0.03,0.03,0,159,159,10,1,twoone,,,,,,,,,,,,,,,,,,,,,,,,,,,,,,,,,,,,,,,,,,,,,,,,,,,,,,,,,,,,,,,,,,,,,,,,,,,,,,,,,,,,,,,,,,,,,,,,,,,,,,,,,,,,,,,,,,,,,,,,,,,,,,,,,,,,,,,,,
,,5c5b31c415f6c30001de2df5,2024-02-22_05h02.04.631,kallum_motion_pilot,2023.2.2,Win32,144.092219,5c5b31c415f6c30001de2df5,65d6bb0e977760de756971f7,65d6d4d78f8d77324a4eeb90,0.03,0.03,0,160,160,159,1,eightseven,,,,,,,,,,,,,,,,,,,,,,,,,,,,,,,,,,,,,,,,,,,,,,,,,,,,,,,,,,,,,,,,,,,,,,,,,,,,,,,,,,,,,,,,,,,,,,,,,,,,,,,,,,,,,,,,,,,,,,,,,,,,,,,,,,,,,,,,,
,,5c5b31c415f6c30001de2df5,2024-02-22_05h02.04.631,kallum_motion_pilot,2023.2.2,Win32,144.092219,5c5b31c415f6c30001de2df5,65d6bb0e977760de756971f7,65d6d4d78f8d77324a4eeb90,0.03,0.03,0,161,161,45,1,threefour,,,,,,,,,,,,,,,,,,,,,,,,,,,,,,,,,,,,,,,,,,,,,,,,,,,,,,,,,,,,,,,,,,,,,,,,,,,,,,,,,,,,,,,,,,,,,,,,,,,,,,,,,,,,,,,,,,,,,,,,,,,,,,,,,,,,,,,,,
,,5c5b31c415f6c30001de2df5,2024-02-22_05h02.04.631,kallum_motion_pilot,2023.2.2,Win32,144.092219,5c5b31c415f6c30001de2df5,65d6bb0e977760de756971f7,65d6d4d78f8d77324a4eeb90,0.03,0.03,1,0,162,156,1,sevenfive,,,,,,,,,,,,,,,,,,,,,,,,,,,,,,,,,,,,,,,,,,,,,,,,,,,,,,,,,,,,,,,,,,,,,,,,,,,,,,,,,,,,,,,,,,,,,,,,,,,,,,,,,,,,,,,,,,,,,,,,,,,,,,,,,,,,,,,,,
,,5c5b31c415f6c30001de2df5,2024-02-22_05h02.04.631,kallum_motion_pilot,2023.2.2,Win32,144.092219,5c5b31c415f6c30001de2df5,65d6bb0e977760de756971f7,65d6d4d78f8d77324a4eeb90,0.03,0.03,1,1,163,147,1,sixeight,,,,,,,,,,,,,,,,,,,,,,,,,,,,,,,,,,,,,,,,,,,,,,,,,,,,,,,,,,,,,,,,,,,,,,,,,,,,,,,,,,,,,,,,,,,,,,,,,,,,,,,,,,,,,,,,,,,,,,,,,,,,,,,,,,,,,,,,,
,,5c5b31c415f6c30001de2df5,2024-02-22_05h02.04.631,kallum_motion_pilot,2023.2.2,Win32,144.092219,5c5b31c415f6c30001de2df5,65d6bb0e977760de756971f7,65d6d4d78f8d77324a4eeb90,0.03,0.031,1,2,164,98,1,sixfive,,,,,,,,,,,,,,,,,,,,,,,,,,,,,,,,,,,,,,,,,,,,,,,,,,,,,,,,,,,,,,,,,,,,,,,,,,,,,,,,,,,,,,,,,,,,,,,,,,,,,,,,,,,,,,,,,,,,,,,,,,,,,,,,,,,,,,,,,
,,5c5b31c415f6c30001de2df5,2024-02-22_05h02.04.631,kallum_motion_pilot,2023.2.2,Win32,144.092219,5c5b31c415f6c30001de2df5,65d6bb0e977760de756971f7,65d6d4d78f8d77324a4eeb90,0.031,0.031,1,3,165,134,1,eightsix,,,,,,,,,,,,,,,,,,,,,,,,,,,,,,,,,,,,,,,,,,,,,,,,,,,,,,,,,,,,,,,,,,,,,,,,,,,,,,,,,,,,,,,,,,,,,,,,,,,,,,,,,,,,,,,,,,,,,,,,,,,,,,,,,,,,,,,,,
,,5c5b31c415f6c30001de2df5,2024-02-22_05h02.04.631,kallum_motion_pilot,2023.2.2,Win32,144.092219,5c5b31c415f6c30001de2df5,65d6bb0e977760de756971f7,65d6d4d78f8d77324a4eeb90,0.031,0.031,1,4,166,65,1,onethree,,,,,,,,,,,,,,,,,,,,,,,,,,,,,,,,,,,,,,,,,,,,,,,,,,,,,,,,,,,,,,,,,,,,,,,,,,,,,,,,,,,,,,,,,,,,,,,,,,,,,,,,,,,,,,,,,,,,,,,,,,,,,,,,,,,,,,,,,
,,5c5b31c415f6c30001de2df5,2024-02-22_05h02.04.631,kallum_motion_pilot,2023.2.2,Win32,144.092219,5c5b31c415f6c30001de2df5,65d6bb0e977760de756971f7,65d6d4d78f8d77324a4eeb90,0.031,0.031,1,5,167,15,1,fourthree,,,,,,,,,,,,,,,,,,,,,,,,,,,,,,,,,,,,,,,,,,,,,,,,,,,,,,,,,,,,,,,,,,,,,,,,,,,,,,,,,,,,,,,,,,,,,,,,,,,,,,,,,,,,,,,,,,,,,,,,,,,,,,,,,,,,,,,,,
,,5c5b31c415f6c30001de2df5,2024-02-22_05h02.04.631,kallum_motion_pilot,2023.2.2,Win32,144.092219,5c5b31c415f6c30001de2df5,65d6bb0e977760de756971f7,65d6d4d78f8d77324a4eeb90,0.031,0.031,1,6,168,14,1,fourtwo,,,,,,,,,,,,,,,,,,,,,,,,,,,,,,,,,,,,,,,,,,,,,,,,,,,,,,,,,,,,,,,,,,,,,,,,,,,,,,,,,,,,,,,,,,,,,,,,,,,,,,,,,,,,,,,,,,,,,,,,,,,,,,,,,,,,,,,,,
,,5c5b31c415f6c30001de2df5,2024-02-22_05h02.04.631,kallum_motion_pilot,2023.2.2,Win32,144.092219,5c5b31c415f6c30001de2df5,65d6bb0e977760de756971f7,65d6d4d78f8d77324a4eeb90,0.031,0.031,1,7,169,84,1,sevenfive,,,,,,,,,,,,,,,,,,,,,,,,,,,,,,,,,,,,,,,,,,,,,,,,,,,,,,,,,,,,,,,,,,,,,,,,,,,,,,,,,,,,,,,,,,,,,,,,,,,,,,,,,,,,,,,,,,,,,,,,,,,,,,,,,,,,,,,,,
,,5c5b31c415f6c30001de2df5,2024-02-22_05h02.04.631,kallum_motion_pilot,2023.2.2,Win32,144.092219,5c5b31c415f6c30001de2df5,65d6bb0e977760de756971f7,65d6d4d78f8d77324a4eeb90,0.031,0.031,1,8,170,111,1,eightseven,,,,,,,,,,,,,,,,,,,,,,,,,,,,,,,,,,,,,,,,,,,,,,,,,,,,,,,,,,,,,,,,,,,,,,,,,,,,,,,,,,,,,,,,,,,,,,,,,,,,,,,,,,,,,,,,,,,,,,,,,,,,,,,,,,,,,,,,,
,,5c5b31c415f6c30001de2df5,2024-02-22_05h02.04.631,kallum_motion_pilot,2023.2.2,Win32,144.092219,5c5b31c415f6c30001de2df5,65d6bb0e977760de756971f7,65d6d4d78f8d77324a4eeb90,0.031,0.031,1,9,171,67,1,twofour,,,,,,,,,,,,,,,,,,,,,,,,,,,,,,,,,,,,,,,,,,,,,,,,,,,,,,,,,,,,,,,,,,,,,,,,,,,,,,,,,,,,,,,,,,,,,,,,,,,,,,,,,,,,,,,,,,,,,,,,,,,,,,,,,,,,,,,,,
,,5c5b31c415f6c30001de2df5,2024-02-22_05h02.04.631,kallum_motion_pilot,2023.2.2,Win32,144.092219,5c5b31c415f6c30001de2df5,65d6bb0e977760de756971f7,65d6d4d78f8d77324a4eeb90,0.031,0.031,1,10,172,43,1,twofour,,,,,,,,,,,,,,,,,,,,,,,,,,,,,,,,,,,,,,,,,,,,,,,,,,,,,,,,,,,,,,,,,,,,,,,,,,,,,,,,,,,,,,,,,,,,,,,,,,,,,,,,,,,,,,,,,,,,,,,,,,,,,,,,,,,,,,,,,
,,5c5b31c415f6c30001de2df5,2024-02-22_05h02.04.631,kallum_motion_pilot,2023.2.2,Win32,144.092219,5c5b31c415f6c30001de2df5,65d6bb0e977760de756971f7,65d6d4d78f8d77324a4eeb90,0.031,0.031,1,11,173,59,1,twofour,,,,,,,,,,,,,,,,,,,,,,,,,,,,,,,,,,,,,,,,,,,,,,,,,,,,,,,,,,,,,,,,,,,,,,,,,,,,,,,,,,,,,,,,,,,,,,,,,,,,,,,,,,,,,,,,,,,,,,,,,,,,,,,,,,,,,,,,,
,,5c5b31c415f6c30001de2df5,2024-02-22_05h02.04.631,kallum_motion_pilot,2023.2.2,Win32,144.092219,5c5b31c415f6c30001de2df5,65d6bb0e977760de756971f7,65d6d4d78f8d77324a4eeb90,0.031,0.031,1,12,174,63,1,fourthree,,,,,,,,,,,,,,,,,,,,,,,,,,,,,,,,,,,,,,,,,,,,,,,,,,,,,,,,,,,,,,,,,,,,,,,,,,,,,,,,,,,,,,,,,,,,,,,,,,,,,,,,,,,,,,,,,,,,,,,,,,,,,,,,,,,,,,,,,
,,5c5b31c415f6c30001de2df5,2024-02-22_05h02.04.631,kallum_motion_pilot,2023.2.2,Win32,144.092219,5c5b31c415f6c30001de2df5,65d6bb0e977760de756971f7,65d6d4d78f8d77324a4eeb90,0.031,0.031,1,13,175,7,1,fourthree,,,,,,,,,,,,,,,,,,,,,,,,,,,,,,,,,,,,,,,,,,,,,,,,,,,,,,,,,,,,,,,,,,,,,,,,,,,,,,,,,,,,,,,,,,,,,,,,,,,,,,,,,,,,,,,,,,,,,,,,,,,,,,,,,,,,,,,,,
,,5c5b31c415f6c30001de2df5,2024-02-22_05h02.04.631,kallum_motion_pilot,2023.2.2,Win32,144.092219,5c5b31c415f6c30001de2df5,65d6bb0e977760de756971f7,65d6d4d78f8d77324a4eeb90,0.031,0.031,1,14,176,115,1,sixeight,,,,,,,,,,,,,,,,,,,,,,,,,,,,,,,,,,,,,,,,,,,,,,,,,,,,,,,,,,,,,,,,,,,,,,,,,,,,,,,,,,,,,,,,,,,,,,,,,,,,,,,,,,,,,,,,,,,,,,,,,,,,,,,,,,,,,,,,,
,,5c5b31c415f6c30001de2df5,2024-02-22_05h02.04.631,kallum_motion_pilot,2023.2.2,Win32,144.092219,5c5b31c415f6c30001de2df5,65d6bb0e977760de756971f7,65d6d4d78f8d77324a4eeb90,0.031,0.031,1,15,177,4,1,threeone,,,,,,,,,,,,,,,,,,,,,,,,,,,,,,,,,,,,,,,,,,,,,,,,,,,,,,,,,,,,,,,,,,,,,,,,,,,,,,,,,,,,,,,,,,,,,,,,,,,,,,,,,,,,,,,,,,,,,,,,,,,,,,,,,,,,,,,,,
,,5c5b31c415f6c30001de2df5,2024-02-22_05h02.04.631,kallum_motion_pilot,2023.2.2,Win32,144.092219,5c5b31c415f6c30001de2df5,65d6bb0e977760de756971f7,65d6d4d78f8d77324a4eeb90,0.031,0.031,1,16,178,133,1,seveneight,,,,,,,,,,,,,,,,,,,,,,,,,,,,,,,,,,,,,,,,,,,,,,,,,,,,,,,,,,,,,,,,,,,,,,,,,,,,,,,,,,,,,,,,,,,,,,,,,,,,,,,,,,,,,,,,,,,,,,,,,,,,,,,,,,,,,,,,,
,,5c5b31c415f6c30001de2df5,2024-02-22_05h02.04.631,kallum_motion_pilot,2023.2.2,Win32,144.092219,5c5b31c415f6c30001de2df5,65d6bb0e977760de756971f7,65d6d4d78f8d77324a4eeb90,0.031,0.031,1,17,179,150,1,eightsix,,,,,,,,,,,,,,,,,,,,,,,,,,,,,,,,,,,,,,,,,,,,,,,,,,,,,,,,,,,,,,,,,,,,,,,,,,,,,,,,,,,,,,,,,,,,,,,,,,,,,,,,,,,,,,,,,,,,,,,,,,,,,,,,,,,,,,,,,
,,5c5b31c415f6c30001de2df5,2024-02-22_05h02.04.631,kallum_motion_pilot,2023.2.2,Win32,144.092219,5c5b31c415f6c30001de2df5,65d6bb0e977760de756971f7,65d6d4d78f8d77324a4eeb90,0.031,0.031,1,18,180,9,1,onethree,,,,,,,,,,,,,,,,,,,,,,,,,,,,,,,,,,,,,,,,,,,,,,,,,,,,,,,,,,,,,,,,,,,,,,,,,,,,,,,,,,,,,,,,,,,,,,,,,,,,,,,,,,,,,,,,,,,,,,,,,,,,,,,,,,,,,,,,,
,,5c5b31c415f6c30001de2df5,2024-02-22_05h02.04.631,kallum_motion_pilot,2023.2.2,Win32,144.092219,5c5b31c415f6c30001de2df5,65d6bb0e977760de756971f7,65d6d4d78f8d77324a4eeb90,0.031,0.031,1,19,181,16,1,onetwo,,,,,,,,,,,,,,,,,,,,,,,,,,,,,,,,,,,,,,,,,,,,,,,,,,,,,,,,,,,,,,,,,,,,,,,,,,,,,,,,,,,,,,,,,,,,,,,,,,,,,,,,,,,,,,,,,,,,,,,,,,,,,,,,,,,,,,,,,
,,5c5b31c415f6c30001de2df5,2024-02-22_05h02.04.631,kallum_motion_pilot,2023.2.2,Win32,144.092219,5c5b31c415f6c30001de2df5,65d6bb0e977760de756971f7,65d6d4d78f8d77324a4eeb90,0.031,0.031,1,20,182,100,1,sevenfive,,,,,,,,,,,,,,,,,,,,,,,,,,,,,,,,,,,,,,,,,,,,,,,,,,,,,,,,,,,,,,,,,,,,,,,,,,,,,,,,,,,,,,,,,,,,,,,,,,,,,,,,,,,,,,,,,,,,,,,,,,,,,,,,,,,,,,,,,
,,5c5b31c415f6c30001de2df5,2024-02-22_05h02.04.631,kallum_motion_pilot,2023.2.2,Win32,144.092219,5c5b31c415f6c30001de2df5,65d6bb0e977760de756971f7,65d6d4d78f8d77324a4eeb90,0.031,0.032,1,21,183,42,1,twoone,,,,,,,,,,,,,,,,,,,,,,,,,,,,,,,,,,,,,,,,,,,,,,,,,,,,,,,,,,,,,,,,,,,,,,,,,,,,,,,,,,,,,,,,,,,,,,,,,,,,,,,,,,,,,,,,,,,,,,,,,,,,,,,,,,,,,,,,,
,,5c5b31c415f6c30001de2df5,2024-02-22_05h02.04.631,kallum_motion_pilot,2023.2.2,Win32,144.092219,5c5b31c415f6c30001de2df5,65d6bb0e977760de756971f7,65d6d4d78f8d77324a4eeb90,0.032,0.032,1,22,184,47,1,fourthree,,,,,,,,,,,,,,,,,,,,,,,,,,,,,,,,,,,,,,,,,,,,,,,,,,,,,,,,,,,,,,,,,,,,,,,,,,,,,,,,,,,,,,,,,,,,,,,,,,,,,,,,,,,,,,,,,,,,,,,,,,,,,,,,,,,,,,,,,
,,5c5b31c415f6c30001de2df5,2024-02-22_05h02.04.631,kallum_motion_pilot,2023.2.2,Win32,144.092219,5c5b31c415f6c30001de2df5,65d6bb0e977760de756971f7,65d6d4d78f8d77324a4eeb90,0.032,0.032,1,23,185,152,1,fivesix,,,,,,,,,,,,,,,,,,,,,,,,,,,,,,,,,,,,,,,,,,,,,,,,,,,,,,,,,,,,,,,,,,,,,,,,,,,,,,,,,,,,,,,,,,,,,,,,,,,,,,,,,,,,,,,,,,,,,,,,,,,,,,,,,,,,,,,,,
,,5c5b31c415f6c30001de2df5,2024-02-22_05h02.04.631,kallum_motion_pilot,2023.2.2,Win32,144.092219,5c5b31c415f6c30001de2df5,65d6bb0e977760de756971f7,65d6d4d78f8d77324a4eeb90,0.032,0.032,1,24,186,17,1,onethree,,,,,,,,,,,,,,,,,,,,,,,,,,,,,,,,,,,,,,,,,,,,,,,,,,,,,,,,,,,,,,,,,,,,,,,,,,,,,,,,,,,,,,,,,,,,,,,,,,,,,,,,,,,,,,,,,,,,,,,,,,,,,,,,,,,,,,,,,
,,5c5b31c415f6c30001de2df5,2024-02-22_05h02.04.631,kallum_motion_pilot,2023.2.2,Win32,144.092219,5c5b31c415f6c30001de2df5,65d6bb0e977760de756971f7,65d6d4d78f8d77324a4eeb90,0.032,0.032,1,25,187,48,1,onetwo,,,,,,,,,,,,,,,,,,,,,,,,,,,,,,,,,,,,,,,,,,,,,,,,,,,,,,,,,,,,,,,,,,,,,,,,,,,,,,,,,,,,,,,,,,,,,,,,,,,,,,,,,,,,,,,,,,,,,,,,,,,,,,,,,,,,,,,,,
,,5c5b31c415f6c30001de2df5,2024-02-22_05h02.04.631,kallum_motion_pilot,2023.2.2,Win32,144.092219,5c5b31c415f6c30001de2df5,65d6bb0e977760de756971f7,65d6d4d78f8d77324a4eeb90,0.032,0.032,1,26,188,118,1,eightsix,,,,,,,,,,,,,,,,,,,,,,,,,,,,,,,,,,,,,,,,,,,,,,,,,,,,,,,,,,,,,,,,,,,,,,,,,,,,,,,,,,,,,,,,,,,,,,,,,,,,,,,,,,,,,,,,,,,,,,,,,,,,,,,,,,,,,,,,,
,,5c5b31c415f6c30001de2df5,2024-02-22_05h02.04.631,kallum_motion_pilot,2023.2.2,Win32,144.092219,5c5b31c415f6c30001de2df5,65d6bb0e977760de756971f7,65d6d4d78f8d77324a4eeb90,0.032,0.032,1,27,189,33,1,onethree,,,,,,,,,,,,,,,,,,,,,,,,,,,,,,,,,,,,,,,,,,,,,,,,,,,,,,,,,,,,,,,,,,,,,,,,,,,,,,,,,,,,,,,,,,,,,,,,,,,,,,,,,,,,,,,,,,,,,,,,,,,,,,,,,,,,,,,,,
,,5c5b31c415f6c30001de2df5,2024-02-22_05h02.04.631,kallum_motion_pilot,2023.2.2,Win32,144.092219,5c5b31c415f6c30001de2df5,65d6bb0e977760de756971f7,65d6d4d78f8d77324a4eeb90,0.032,0.032,1,28,190,39,1,fourthree,,,,,,,,,,,,,,,,,,,,,,,,,,,,,,,,,,,,,,,,,,,,,,,,,,,,,,,,,,,,,,,,,,,,,,,,,,,,,,,,,,,,,,,,,,,,,,,,,,,,,,,,,,,,,,,,,,,,,,,,,,,,,,,,,,,,,,,,,
,,5c5b31c415f6c30001de2df5,2024-02-22_05h02.04.631,kallum_motion_pilot,2023.2.2,Win32,144.092219,5c5b31c415f6c30001de2df5,65d6bb0e977760de756971f7,65d6d4d78f8d77324a4eeb90,0.032,0.032,1,29,191,90,1,sixfive,,,,,,,,,,,,,,,,,,,,,,,,,,,,,,,,,,,,,,,,,,,,,,,,,,,,,,,,,,,,,,,,,,,,,,,,,,,,,,,,,,,,,,,,,,,,,,,,,,,,,,,,,,,,,,,,,,,,,,,,,,,,,,,,,,,,,,,,,
,,5c5b31c415f6c30001de2df5,2024-02-22_05h02.04.631,kallum_motion_pilot,2023.2.2,Win32,144.092219,5c5b31c415f6c30001de2df5,65d6bb0e977760de756971f7,65d6d4d78f8d77324a4eeb90,0.032,0.032,1,30,192,11,1,twofour,,,,,,,,,,,,,,,,,,,,,,,,,,,,,,,,,,,,,,,,,,,,,,,,,,,,,,,,,,,,,,,,,,,,,,,,,,,,,,,,,,,,,,,,,,,,,,,,,,,,,,,,,,,,,,,,,,,,,,,,,,,,,,,,,,,,,,,,,
,,5c5b31c415f6c30001de2df5,2024-02-22_05h02.04.631,kallum_motion_pilot,2023.2.2,Win32,144.092219,5c5b31c415f6c30001de2df5,65d6bb0e977760de756971f7,65d6d4d78f8d77324a4eeb90,0.032,0.032,1,31,193,40,1,onetwo,,,,,,,,,,,,,,,,,,,,,,,,,,,,,,,,,,,,,,,,,,,,,,,,,,,,,,,,,,,,,,,,,,,,,,,,,,,,,,,,,,,,,,,,,,,,,,,,,,,,,,,,,,,,,,,,,,,,,,,,,,,,,,,,,,,,,,,,,
,,5c5b31c415f6c30001de2df5,2024-02-22_05h02.04.631,kallum_motion_pilot,2023.2.2,Win32,144.092219,5c5b31c415f6c30001de2df5,65d6bb0e977760de756971f7,65d6d4d78f8d77324a4eeb90,0.032,0.032,1,32,194,82,1,sixfive,,,,,,,,,,,,,,,,,,,,,,,,,,,,,,,,,,,,,,,,,,,,,,,,,,,,,,,,,,,,,,,,,,,,,,,,,,,,,,,,,,,,,,,,,,,,,,,,,,,,,,,,,,,,,,,,,,,,,,,,,,,,,,,,,,,,,,,,,
,,5c5b31c415f6c30001de2df5,2024-02-22_05h02.04.631,kallum_motion_pilot,2023.2.2,Win32,144.092219,5c5b31c415f6c30001de2df5,65d6bb0e977760de756971f7,65d6d4d78f8d77324a4eeb90,0.032,0.032,1,33,195,105,1,fiveseven,,,,,,,,,,,,,,,,,,,,,,,,,,,,,,,,,,,,,,,,,,,,,,,,,,,,,,,,,,,,,,,,,,,,,,,,,,,,,,,,,,,,,,,,,,,,,,,,,,,,,,,,,,,,,,,,,,,,,,,,,,,,,,,,,,,,,,,,,
,,5c5b31c415f6c30001de2df5,2024-02-22_05h02.04.631,kallum_motion_pilot,2023.2.2,Win32,144.092219,5c5b31c415f6c30001de2df5,65d6bb0e977760de756971f7,65d6d4d78f8d77324a4eeb90,0.032,0.032,1,34,196,139,1,sixeight,,,,,,,,,,,,,,,,,,,,,,,,,,,,,,,,,,,,,,,,,,,,,,,,,,,,,,,,,,,,,,,,,,,,,,,,,,,,,,,,,,,,,,,,,,,,,,,,,,,,,,,,,,,,,,,,,,,,,,,,,,,,,,,,,,,,,,,,,
,,5c5b31c415f6c30001de2df5,2024-02-22_05h02.04.631,kallum_motion_pilot,2023.2.2,Win32,144.092219,5c5b31c415f6c30001de2df5,65d6bb0e977760de756971f7,65d6d4d78f8d77324a4eeb90,0.033,0.033,1,35,197,140,1,sevenfive,,,,,,,,,,,,,,,,,,,,,,,,,,,,,,,,,,,,,,,,,,,,,,,,,,,,,,,,,,,,,,,,,,,,,,,,,,,,,,,,,,,,,,,,,,,,,,,,,,,,,,,,,,,,,,,,,,,,,,,,,,,,,,,,,,,,,,,,,
,,5c5b31c415f6c30001de2df5,2024-02-22_05h02.04.631,kallum_motion_pilot,2023.2.2,Win32,144.092219,5c5b31c415f6c30001de2df5,65d6bb0e977760de756971f7,65d6d4d78f8d77324a4eeb90,0.033,0.033,1,36,198,97,1,fiveseven,,,,,,,,,,,,,,,,,,,,,,,,,,,,,,,,,,,,,,,,,,,,,,,,,,,,,,,,,,,,,,,,,,,,,,,,,,,,,,,,,,,,,,,,,,,,,,,,,,,,,,,,,,,,,,,,,,,,,,,,,,,,,,,,,,,,,,,,,
,,5c5b31c415f6c30001de2df5,2024-02-22_05h02.04.631,kallum_motion_pilot,2023.2.2,Win32,144.092219,5c5b31c415f6c30001de2df5,65d6bb0e977760de756971f7,65d6d4d78f8d77324a4eeb90,0.033,0.033,1,37,199,130,1,sixfive,,,,,,,,,,,,,,,,,,,,,,,,,,,,,,,,,,,,,,,,,,,,,,,,,,,,,,,,,,,,,,,,,,,,,,,,,,,,,,,,,,,,,,,,,,,,,,,,,,,,,,,,,,,,,,,,,,,,,,,,,,,,,,,,,,,,,,,,,
,,5c5b31c415f6c30001de2df5,2024-02-22_05h02.04.631,kallum_motion_pilot,2023.2.2,Win32,144.092219,5c5b31c415f6c30001de2df5,65d6bb0e977760de756971f7,65d6d4d78f8d77324a4eeb90,0.033,0.033,1,38,200,62,1,fourtwo,,,,,,,,,,,,,,,,,,,,,,,,,,,,,,,,,,,,,,,,,,,,,,,,,,,,,,,,,,,,,,,,,,,,,,,,,,,,,,,,,,,,,,,,,,,,,,,,,,,,,,,,,,,,,,,,,,,,,,,,,,,,,,,,,,,,,,,,,
,,5c5b31c415f6c30001de2df5,2024-02-22_05h02.04.631,kallum_motion_pilot,2023.2.2,Win32,144.092219,5c5b31c415f6c30001de2df5,65d6bb0e977760de756971f7,65d6d4d78f8d77324a4eeb90,0.033,0.033,1,39,201,46,1,fourtwo,,,,,,,,,,,,,,,,,,,,,,,,,,,,,,,,,,,,,,,,,,,,,,,,,,,,,,,,,,,,,,,,,,,,,,,,,,,,,,,,,,,,,,,,,,,,,,,,,,,,,,,,,,,,,,,,,,,,,,,,,,,,,,,,,,,,,,,,,
,,5c5b31c415f6c30001de2df5,2024-02-22_05h02.04.631,kallum_motion_pilot,2023.2.2,Win32,144.092219,5c5b31c415f6c30001de2df5,65d6bb0e977760de756971f7,65d6d4d78f8d77324a4eeb90,0.033,0.033,1,40,202,44,1,threeone,,,,,,,,,,,,,,,,,,,,,,,,,,,,,,,,,,,,,,,,,,,,,,,,,,,,,,,,,,,,,,,,,,,,,,,,,,,,,,,,,,,,,,,,,,,,,,,,,,,,,,,,,,,,,,,,,,,,,,,,,,,,,,,,,,,,,,,,,
,,5c5b31c415f6c30001de2df5,2024-02-22_05h02.04.631,kallum_motion_pilot,2023.2.2,Win32,144.092219,5c5b31c415f6c30001de2df5,65d6bb0e977760de756971f7,65d6d4d78f8d77324a4eeb90,0.033,0.033,1,41,203,124,1,sevenfive,,,,,,,,,,,,,,,,,,,,,,,,,,,,,,,,,,,,,,,,,,,,,,,,,,,,,,,,,,,,,,,,,,,,,,,,,,,,,,,,,,,,,,,,,,,,,,,,,,,,,,,,,,,,,,,,,,,,,,,,,,,,,,,,,,,,,,,,,
,,5c5b31c415f6c30001de2df5,2024-02-22_05h02.04.631,kallum_motion_pilot,2023.2.2,Win32,144.092219,5c5b31c415f6c30001de2df5,65d6bb0e977760de756971f7,65d6d4d78f8d77324a4eeb90,0.033,0.033,1,42,204,66,1,twoone,,,,,,,,,,,,,,,,,,,,,,,,,,,,,,,,,,,,,,,,,,,,,,,,,,,,,,,,,,,,,,,,,,,,,,,,,,,,,,,,,,,,,,,,,,,,,,,,,,,,,,,,,,,,,,,,,,,,,,,,,,,,,,,,,,,,,,,,,
,,5c5b31c415f6c30001de2df5,2024-02-22_05h02.04.631,kallum_motion_pilot,2023.2.2,Win32,144.092219,5c5b31c415f6c30001de2df5,65d6bb0e977760de756971f7,65d6d4d78f8d77324a4eeb90,0.033,0.033,1,43,205,34,1,twoone,,,,,,,,,,,,,,,,,,,,,,,,,,,,,,,,,,,,,,,,,,,,,,,,,,,,,,,,,,,,,,,,,,,,,,,,,,,,,,,,,,,,,,,,,,,,,,,,,,,,,,,,,,,,,,,,,,,,,,,,,,,,,,,,,,,,,,,,,
,,5c5b31c415f6c30001de2df5,2024-02-22_05h02.04.631,kallum_motion_pilot,2023.2.2,Win32,144.092219,5c5b31c415f6c30001de2df5,65d6bb0e977760de756971f7,65d6d4d78f8d77324a4eeb90,0.033,0.033,1,44,206,83,1,sixeight,,,,,,,,,,,,,,,,,,,,,,,,,,,,,,,,,,,,,,,,,,,,,,,,,,,,,,,,,,,,,,,,,,,,,,,,,,,,,,,,,,,,,,,,,,,,,,,,,,,,,,,,,,,,,,,,,,,,,,,,,,,,,,,,,,,,,,,,,
,,5c5b31c415f6c30001de2df5,2024-02-22_05h02.04.631,kallum_motion_pilot,2023.2.2,Win32,144.092219,5c5b31c415f6c30001de2df5,65d6bb0e977760de756971f7,65d6d4d78f8d77324a4eeb90,0.033,0.033,1,45,207,106,1,sixfive,,,,,,,,,,,,,,,,,,,,,,,,,,,,,,,,,,,,,,,,,,,,,,,,,,,,,,,,,,,,,,,,,,,,,,,,,,,,,,,,,,,,,,,,,,,,,,,,,,,,,,,,,,,,,,,,,,,,,,,,,,,,,,,,,,,,,,,,,
,,5c5b31c415f6c30001de2df5,2024-02-22_05h02.04.631,kallum_motion_pilot,2023.2.2,Win32,144.092219,5c5b31c415f6c30001de2df5,65d6bb0e977760de756971f7,65d6d4d78f8d77324a4eeb90,0.033,0.033,1,46,208,136,1,fivesix,,,,,,,,,,,,,,,,,,,,,,,,,,,,,,,,,,,,,,,,,,,,,,,,,,,,,,,,,,,,,,,,,,,,,,,,,,,,,,,,,,,,,,,,,,,,,,,,,,,,,,,,,,,,,,,,,,,,,,,,,,,,,,,,,,,,,,,,,
,,5c5b31c415f6c30001de2df5,2024-02-22_05h02.04.631,kallum_motion_pilot,2023.2.2,Win32,144.092219,5c5b31c415f6c30001de2df5,65d6bb0e977760de756971f7,65d6d4d78f8d77324a4eeb90,0.033,0.033,1,47,209,38,1,fourtwo,,,,,,,,,,,,,,,,,,,,,,,,,,,,,,,,,,,,,,,,,,,,,,,,,,,,,,,,,,,,,,,,,,,,,,,,,,,,,,,,,,,,,,,,,,,,,,,,,,,,,,,,,,,,,,,,,,,,,,,,,,,,,,,,,,,,,,,,,
,,5c5b31c415f6c30001de2df5,2024-02-22_05h02.04.631,kallum_motion_pilot,2023.2.2,Win32,144.092219,5c5b31c415f6c30001de2df5,65d6bb0e977760de756971f7,65d6d4d78f8d77324a4eeb90,0.033,0.033,1,48,210,141,1,seveneight,,,,,,,,,,,,,,,,,,,,,,,,,,,,,,,,,,,,,,,,,,,,,,,,,,,,,,,,,,,,,,,,,,,,,,,,,,,,,,,,,,,,,,,,,,,,,,,,,,,,,,,,,,,,,,,,,,,,,,,,,,,,,,,,,,,,,,,,,
,,5c5b31c415f6c30001de2df5,2024-02-22_05h02.04.631,kallum_motion_pilot,2023.2.2,Win32,144.092219,5c5b31c415f6c30001de2df5,65d6bb0e977760de756971f7,65d6d4d78f8d77324a4eeb90,0.033,0.033,1,49,211,123,1,sixeight,,,,,,,,,,,,,,,,,,,,,,,,,,,,,,,,,,,,,,,,,,,,,,,,,,,,,,,,,,,,,,,,,,,,,,,,,,,,,,,,,,,,,,,,,,,,,,,,,,,,,,,,,,,,,,,,,,,,,,,,,,,,,,,,,,,,,,,,,
,,5c5b31c415f6c30001de2df5,2024-02-22_05h02.04.631,kallum_motion_pilot,2023.2.2,Win32,144.092219,5c5b31c415f6c30001de2df5,65d6bb0e977760de756971f7,65d6d4d78f8d77324a4eeb90,0.034,0.034,1,50,212,1,1,onethree,,,,,,,,,,,,,,,,,,,,,,,,,,,,,,,,,,,,,,,,,,,,,,,,,,,,,,,,,,,,,,,,,,,,,,,,,,,,,,,,,,,,,,,,,,,,,,,,,,,,,,,,,,,,,,,,,,,,,,,,,,,,,,,,,,,,,,,,,
,,5c5b31c415f6c30001de2df5,2024-02-22_05h02.04.631,kallum_motion_pilot,2023.2.2,Win32,144.092219,5c5b31c415f6c30001de2df5,65d6bb0e977760de756971f7,65d6d4d78f8d77324a4eeb90,0.034,0.034,1,51,213,18,1,twoone,,,,,,,,,,,,,,,,,,,,,,,,,,,,,,,,,,,,,,,,,,,,,,,,,,,,,,,,,,,,,,,,,,,,,,,,,,,,,,,,,,,,,,,,,,,,,,,,,,,,,,,,,,,,,,,,,,,,,,,,,,,,,,,,,,,,,,,,,
,,5c5b31c415f6c30001de2df5,2024-02-22_05h02.04.631,kallum_motion_pilot,2023.2.2,Win32,144.092219,5c5b31c415f6c30001de2df5,65d6bb0e977760de756971f7,65d6d4d78f8d77324a4eeb90,0.034,0.034,1,52,214,159,1,eightseven,,,,,,,,,,,,,,,,,,,,,,,,,,,,,,,,,,,,,,,,,,,,,,,,,,,,,,,,,,,,,,,,,,,,,,,,,,,,,,,,,,,,,,,,,,,,,,,,,,,,,,,,,,,,,,,,,,,,,,,,,,,,,,,,,,,,,,,,,
,,5c5b31c415f6c30001de2df5,2024-02-22_05h02.04.631,kallum_motion_pilot,2023.2.2,Win32,144.092219,5c5b31c415f6c30001de2df5,65d6bb0e977760de756971f7,65d6d4d78f8d77324a4eeb90,0.034,0.034,1,53,215,23,1,fourthree,,,,,,,,,,,,,,,,,,,,,,,,,,,,,,,,,,,,,,,,,,,,,,,,,,,,,,,,,,,,,,,,,,,,,,,,,,,,,,,,,,,,,,,,,,,,,,,,,,,,,,,,,,,,,,,,,,,,,,,,,,,,,,,,,,,,,,,,,
,,5c5b31c415f6c30001de2df5,2024-02-22_05h02.04.631,kallum_motion_pilot,2023.2.2,Win32,144.092219,5c5b31c415f6c30001de2df5,65d6bb0e977760de756971f7,65d6d4d78f8d77324a4eeb90,0.034,0.034,1,54,216,74,1,twoone,,,,,,,,,,,,,,,,,,,,,,,,,,,,,,,,,,,,,,,,,,,,,,,,,,,,,,,,,,,,,,,,,,,,,,,,,,,,,,,,,,,,,,,,,,,,,,,,,,,,,,,,,,,,,,,,,,,,,,,,,,,,,,,,,,,,,,,,,
,,5c5b31c415f6c30001de2df5,2024-02-22_05h02.04.631,kallum_motion_pilot,2023.2.2,Win32,144.092219,5c5b31c415f6c30001de2df5,65d6bb0e977760de756971f7,65d6d4d78f8d77324a4eeb90,0.034,0.034,1,55,217,28,1,threeone,,,,,,,,,,,,,,,,,,,,,,,,,,,,,,,,,,,,,,,,,,,,,,,,,,,,,,,,,,,,,,,,,,,,,,,,,,,,,,,,,,,,,,,,,,,,,,,,,,,,,,,,,,,,,,,,,,,,,,,,,,,,,,,,,,,,,,,,,
,,5c5b31c415f6c30001de2df5,2024-02-22_05h02.04.631,kallum_motion_pilot,2023.2.2,Win32,144.092219,5c5b31c415f6c30001de2df5,65d6bb0e977760de756971f7,65d6d4d78f8d77324a4eeb90,0.034,0.034,1,56,218,32,1,onetwo,,,,,,,,,,,,,,,,,,,,,,,,,,,,,,,,,,,,,,,,,,,,,,,,,,,,,,,,,,,,,,,,,,,,,,,,,,,,,,,,,,,,,,,,,,,,,,,,,,,,,,,,,,,,,,,,,,,,,,,,,,,,,,,,,,,,,,,,,
,,5c5b31c415f6c30001de2df5,2024-02-22_05h02.04.631,kallum_motion_pilot,2023.2.2,Win32,144.092219,5c5b31c415f6c30001de2df5,65d6bb0e977760de756971f7,65d6d4d78f8d77324a4eeb90,0.034,0.034,1,57,219,30,1,fourtwo,,,,,,,,,,,,,,,,,,,,,,,,,,,,,,,,,,,,,,,,,,,,,,,,,,,,,,,,,,,,,,,,,,,,,,,,,,,,,,,,,,,,,,,,,,,,,,,,,,,,,,,,,,,,,,,,,,,,,,,,,,,,,,,,,,,,,,,,,
,,5c5b31c415f6c30001de2df5,2024-02-22_05h02.04.631,kallum_motion_pilot,2023.2.2,Win32,144.092219,5c5b31c415f6c30001de2df5,65d6bb0e977760de756971f7,65d6d4d78f8d77324a4eeb90,0.034,0.034,1,58,220,116,1,sevenfive,,,,,,,,,,,,,,,,,,,,,,,,,,,,,,,,,,,,,,,,,,,,,,,,,,,,,,,,,,,,,,,,,,,,,,,,,,,,,,,,,,,,,,,,,,,,,,,,,,,,,,,,,,,,,,,,,,,,,,,,,,,,,,,,,,,,,,,,,
,,5c5b31c415f6c30001de2df5,2024-02-22_05h02.04.631,kallum_motion_pilot,2023.2.2,Win32,144.092219,5c5b31c415f6c30001de2df5,65d6bb0e977760de756971f7,65d6d4d78f8d77324a4eeb90,0.034,0.034,1,59,221,94,1,eightsix,,,,,,,,,,,,,,,,,,,,,,,,,,,,,,,,,,,,,,,,,,,,,,,,,,,,,,,,,,,,,,,,,,,,,,,,,,,,,,,,,,,,,,,,,,,,,,,,,,,,,,,,,,,,,,,,,,,,,,,,,,,,,,,,,,,,,,,,,
,,5c5b31c415f6c30001de2df5,2024-02-22_05h02.04.631,kallum_motion_pilot,2023.2.2,Win32,144.092219,5c5b31c415f6c30001de2df5,65d6bb0e977760de756971f7,65d6d4d78f8d77324a4eeb90,0.034,0.034,1,60,222,56,1,onetwo,,,,,,,,,,,,,,,,,,,,,,,,,,,,,,,,,,,,,,,,,,,,,,,,,,,,,,,,,,,,,,,,,,,,,,,,,,,,,,,,,,,,,,,,,,,,,,,,,,,,,,,,,,,,,,,,,,,,,,,,,,,,,,,,,,,,,,,,,
,,5c5b31c415f6c30001de2df5,2024-02-22_05h02.04.631,kallum_motion_pilot,2023.2.2,Win32,144.092219,5c5b31c415f6c30001de2df5,65d6bb0e977760de756971f7,65d6d4d78f8d77324a4eeb90,0.034,0.034,1,61,223,113,1,fiveseven,,,,,,,,,,,,,,,,,,,,,,,,,,,,,,,,,,,,,,,,,,,,,,,,,,,,,,,,,,,,,,,,,,,,,,,,,,,,,,,,,,,,,,,,,,,,,,,,,,,,,,,,,,,,,,,,,,,,,,,,,,,,,,,,,,,,,,,,,
,,5c5b31c415f6c30001de2df5,2024-02-22_05h02.04.631,kallum_motion_pilot,2023.2.2,Win32,144.092219,5c5b31c415f6c30001de2df5,65d6bb0e977760de756971f7,65d6d4d78f8d77324a4eeb90,0.034,0.034,1,62,224,138,1,sixfive,,,,,,,,,,,,,,,,,,,,,,,,,,,,,,,,,,,,,,,,,,,,,,,,,,,,,,,,,,,,,,,,,,,,,,,,,,,,,,,,,,,,,,,,,,,,,,,,,,,,,,,,,,,,,,,,,,,,,,,,,,,,,,,,,,,,,,,,,
,,5c5b31c415f6c30001de2df5,2024-02-22_05h02.04.631,kallum_motion_pilot,2023.2.2,Win32,144.092219,5c5b31c415f6c30001de2df5,65d6bb0e977760de756971f7,65d6d4d78f8d77324a4eeb90,0.034,0.035,1,63,225,131,1,sixeight,,,,,,,,,,,,,,,,,,,,,,,,,,,,,,,,,,,,,,,,,,,,,,,,,,,,,,,,,,,,,,,,,,,,,,,,,,,,,,,,,,,,,,,,,,,,,,,,,,,,,,,,,,,,,,,,,,,,,,,,,,,,,,,,,,,,,,,,,
,,5c5b31c415f6c30001de2df5,2024-02-22_05h02.04.631,kallum_motion_pilot,2023.2.2,Win32,144.092219,5c5b31c415f6c30001de2df5,65d6bb0e977760de756971f7,65d6d4d78f8d77324a4eeb90,0.035,0.035,1,64,226,57,1,onethree,,,,,,,,,,,,,,,,,,,,,,,,,,,,,,,,,,,,,,,,,,,,,,,,,,,,,,,,,,,,,,,,,,,,,,,,,,,,,,,,,,,,,,,,,,,,,,,,,,,,,,,,,,,,,,,,,,,,,,,,,,,,,,,,,,,,,,,,,
,,5c5b31c415f6c30001de2df5,2024-02-22_05h02.04.631,kallum_motion_pilot,2023.2.2,Win32,144.092219,5c5b31c415f6c30001de2df5,65d6bb0e977760de756971f7,65d6d4d78f8d77324a4eeb90,0.035,0.035,1,65,227,155,1,sixeight,,,,,,,,,,,,,,,,,,,,,,,,,,,,,,,,,,,,,,,,,,,,,,,,,,,,,,,,,,,,,,,,,,,,,,,,,,,,,,,,,,,,,,,,,,,,,,,,,,,,,,,,,,,,,,,,,,,,,,,,,,,,,,,,,,,,,,,,,
,,5c5b31c415f6c30001de2df5,2024-02-22_05h02.04.631,kallum_motion_pilot,2023.2.2,Win32,144.092219,5c5b31c415f6c30001de2df5,65d6bb0e977760de756971f7,65d6d4d78f8d77324a4eeb90,0.035,0.035,1,66,228,151,1,eightseven,,,,,,,,,,,,,,,,,,,,,,,,,,,,,,,,,,,,,,,,,,,,,,,,,,,,,,,,,,,,,,,,,,,,,,,,,,,,,,,,,,,,,,,,,,,,,,,,,,,,,,,,,,,,,,,,,,,,,,,,,,,,,,,,,,,,,,,,,
,,5c5b31c415f6c30001de2df5,2024-02-22_05h02.04.631,kallum_motion_pilot,2023.2.2,Win32,144.092219,5c5b31c415f6c30001de2df5,65d6bb0e977760de756971f7,65d6d4d78f8d77324a4eeb90,0.035,0.035,1,67,229,157,1,seveneight,,,,,,,,,,,,,,,,,,,,,,,,,,,,,,,,,,,,,,,,,,,,,,,,,,,,,,,,,,,,,,,,,,,,,,,,,,,,,,,,,,,,,,,,,,,,,,,,,,,,,,,,,,,,,,,,,,,,,,,,,,,,,,,,,,,,,,,,,
,,5c5b31c415f6c30001de2df5,2024-02-22_05h02.04.631,kallum_motion_pilot,2023.2.2,Win32,144.092219,5c5b31c415f6c30001de2df5,65d6bb0e977760de756971f7,65d6d4d78f8d77324a4eeb90,0.035,0.035,1,68,230,153,1,fiveseven,,,,,,,,,,,,,,,,,,,,,,,,,,,,,,,,,,,,,,,,,,,,,,,,,,,,,,,,,,,,,,,,,,,,,,,,,,,,,,,,,,,,,,,,,,,,,,,,,,,,,,,,,,,,,,,,,,,,,,,,,,,,,,,,,,,,,,,,,
,,5c5b31c415f6c30001de2df5,2024-02-22_05h02.04.631,kallum_motion_pilot,2023.2.2,Win32,144.092219,5c5b31c415f6c30001de2df5,65d6bb0e977760de756971f7,65d6d4d78f8d77324a4eeb90,0.035,0.035,1,69,231,75,1,twofour,,,,,,,,,,,,,,,,,,,,,,,,,,,,,,,,,,,,,,,,,,,,,,,,,,,,,,,,,,,,,,,,,,,,,,,,,,,,,,,,,,,,,,,,,,,,,,,,,,,,,,,,,,,,,,,,,,,,,,,,,,,,,,,,,,,,,,,,,
,,5c5b31c415f6c30001de2df5,2024-02-22_05h02.04.631,kallum_motion_pilot,2023.2.2,Win32,144.092219,5c5b31c415f6c30001de2df5,65d6bb0e977760de756971f7,65d6d4d78f8d77324a4eeb90,0.035,0.035,1,70,232,31,1,fourthree,,,,,,,,,,,,,,,,,,,,,,,,,,,,,,,,,,,,,,,,,,,,,,,,,,,,,,,,,,,,,,,,,,,,,,,,,,,,,,,,,,,,,,,,,,,,,,,,,,,,,,,,,,,,,,,,,,,,,,,,,,,,,,,,,,,,,,,,,
,,5c5b31c415f6c30001de2df5,2024-02-22_05h02.04.631,kallum_motion_pilot,2023.2.2,Win32,144.092219,5c5b31c415f6c30001de2df5,65d6bb0e977760de756971f7,65d6d4d78f8d77324a4eeb90,0.035,0.035,1,71,233,96,1,fivesix,,,,,,,,,,,,,,,,,,,,,,,,,,,,,,,,,,,,,,,,,,,,,,,,,,,,,,,,,,,,,,,,,,,,,,,,,,,,,,,,,,,,,,,,,,,,,,,,,,,,,,,,,,,,,,,,,,,,,,,,,,,,,,,,,,,,,,,,,
,,5c5b31c415f6c30001de2df5,2024-02-22_05h02.04.631,kallum_motion_pilot,2023.2.2,Win32,144.092219,5c5b31c415f6c30001de2df5,65d6bb0e977760de756971f7,65d6d4d78f8d77324a4eeb90,0.035,0.035,1,72,234,112,1,fivesix,,,,,,,,,,,,,,,,,,,,,,,,,,,,,,,,,,,,,,,,,,,,,,,,,,,,,,,,,,,,,,,,,,,,,,,,,,,,,,,,,,,,,,,,,,,,,,,,,,,,,,,,,,,,,,,,,,,,,,,,,,,,,,,,,,,,,,,,,
,,5c5b31c415f6c30001de2df5,2024-02-22_05h02.04.631,kallum_motion_pilot,2023.2.2,Win32,144.092219,5c5b31c415f6c30001de2df5,65d6bb0e977760de756971f7,65d6d4d78f8d77324a4eeb90,0.035,0.035,1,73,235,145,1,fiveseven,,,,,,,,,,,,,,,,,,,,,,,,,,,,,,,,,,,,,,,,,,,,,,,,,,,,,,,,,,,,,,,,,,,,,,,,,,,,,,,,,,,,,,,,,,,,,,,,,,,,,,,,,,,,,,,,,,,,,,,,,,,,,,,,,,,,,,,,,
,,5c5b31c415f6c30001de2df5,2024-02-22_05h02.04.631,kallum_motion_pilot,2023.2.2,Win32,144.092219,5c5b31c415f6c30001de2df5,65d6bb0e977760de756971f7,65d6d4d78f8d77324a4eeb90,0.035,0.035,1,74,236,58,1,twoone,,,,,,,,,,,,,,,,,,,,,,,,,,,,,,,,,,,,,,,,,,,,,,,,,,,,,,,,,,,,,,,,,,,,,,,,,,,,,,,,,,,,,,,,,,,,,,,,,,,,,,,,,,,,,,,,,,,,,,,,,,,,,,,,,,,,,,,,,
,,5c5b31c415f6c30001de2df5,2024-02-22_05h02.04.631,kallum_motion_pilot,2023.2.2,Win32,144.092219,5c5b31c415f6c30001de2df5,65d6bb0e977760de756971f7,65d6d4d78f8d77324a4eeb90,0.036,0.036,1,75,237,125,1,seveneight,,,,,,,,,,,,,,,,,,,,,,,,,,,,,,,,,,,,,,,,,,,,,,,,,,,,,,,,,,,,,,,,,,,,,,,,,,,,,,,,,,,,,,,,,,,,,,,,,,,,,,,,,,,,,,,,,,,,,,,,,,,,,,,,,,,,,,,,,
,,5c5b31c415f6c30001de2df5,2024-02-22_05h02.04.631,kallum_motion_pilot,2023.2.2,Win32,144.092219,5c5b31c415f6c30001de2df5,65d6bb0e977760de756971f7,65d6d4d78f8d77324a4eeb90,0.036,0.036,1,76,238,45,1,threefour,,,,,,,,,,,,,,,,,,,,,,,,,,,,,,,,,,,,,,,,,,,,,,,,,,,,,,,,,,,,,,,,,,,,,,,,,,,,,,,,,,,,,,,,,,,,,,,,,,,,,,,,,,,,,,,,,,,,,,,,,,,,,,,,,,,,,,,,,
,,5c5b31c415f6c30001de2df5,2024-02-22_05h02.04.631,kallum_motion_pilot,2023.2.2,Win32,144.092219,5c5b31c415f6c30001de2df5,65d6bb0e977760de756971f7,65d6d4d78f8d77324a4eeb90,0.036,0.036,1,77,239,55,1,fourthree,,,,,,,,,,,,,,,,,,,,,,,,,,,,,,,,,,,,,,,,,,,,,,,,,,,,,,,,,,,,,,,,,,,,,,,,,,,,,,,,,,,,,,,,,,,,,,,,,,,,,,,,,,,,,,,,,,,,,,,,,,,,,,,,,,,,,,,,,
,,5c5b31c415f6c30001de2df5,2024-02-22_05h02.04.631,kallum_motion_pilot,2023.2.2,Win32,144.092219,5c5b31c415f6c30001de2df5,65d6bb0e977760de756971f7,65d6d4d78f8d77324a4eeb90,0.036,0.036,1,78,240,121,1,fiveseven,,,,,,,,,,,,,,,,,,,,,,,,,,,,,,,,,,,,,,,,,,,,,,,,,,,,,,,,,,,,,,,,,,,,,,,,,,,,,,,,,,,,,,,,,,,,,,,,,,,,,,,,,,,,,,,,,,,,,,,,,,,,,,,,,,,,,,,,,
,,5c5b31c415f6c30001de2df5,2024-02-22_05h02.04.631,kallum_motion_pilot,2023.2.2,Win32,144.092219,5c5b31c415f6c30001de2df5,65d6bb0e977760de756971f7,65d6d4d78f8d77324a4eeb90,0.036,0.036,1,79,241,80,1,fivesix,,,,,,,,,,,,,,,,,,,,,,,,,,,,,,,,,,,,,,,,,,,,,,,,,,,,,,,,,,,,,,,,,,,,,,,,,,,,,,,,,,,,,,,,,,,,,,,,,,,,,,,,,,,,,,,,,,,,,,,,,,,,,,,,,,,,,,,,,
,,5c5b31c415f6c30001de2df5,2024-02-22_05h02.04.631,kallum_motion_pilot,2023.2.2,Win32,144.092219,5c5b31c415f6c30001de2df5,65d6bb0e977760de756971f7,65d6d4d78f8d77324a4eeb90,0.036,0.036,1,80,242,27,1,twofour,,,,,,,,,,,,,,,,,,,,,,,,,,,,,,,,,,,,,,,,,,,,,,,,,,,,,,,,,,,,,,,,,,,,,,,,,,,,,,,,,,,,,,,,,,,,,,,,,,,,,,,,,,,,,,,,,,,,,,,,,,,,,,,,,,,,,,,,,
,,5c5b31c415f6c30001de2df5,2024-02-22_05h02.04.631,kallum_motion_pilot,2023.2.2,Win32,144.092219,5c5b31c415f6c30001de2df5,65d6bb0e977760de756971f7,65d6d4d78f8d77324a4eeb90,0.036,0.036,1,81,243,142,1,eightsix,,,,,,,,,,,,,,,,,,,,,,,,,,,,,,,,,,,,,,,,,,,,,,,,,,,,,,,,,,,,,,,,,,,,,,,,,,,,,,,,,,,,,,,,,,,,,,,,,,,,,,,,,,,,,,,,,,,,,,,,,,,,,,,,,,,,,,,,,
,,5c5b31c415f6c30001de2df5,2024-02-22_05h02.04.631,kallum_motion_pilot,2023.2.2,Win32,144.092219,5c5b31c415f6c30001de2df5,65d6bb0e977760de756971f7,65d6d4d78f8d77324a4eeb90,0.036,0.036,1,82,244,85,1,seveneight,,,,,,,,,,,,,,,,,,,,,,,,,,,,,,,,,,,,,,,,,,,,,,,,,,,,,,,,,,,,,,,,,,,,,,,,,,,,,,,,,,,,,,,,,,,,,,,,,,,,,,,,,,,,,,,,,,,,,,,,,,,,,,,,,,,,,,,,,
,,5c5b31c415f6c30001de2df5,2024-02-22_05h02.04.631,kallum_motion_pilot,2023.2.2,Win32,144.092219,5c5b31c415f6c30001de2df5,65d6bb0e977760de756971f7,65d6d4d78f8d77324a4eeb90,0.036,0.036,1,83,245,87,1,eightseven,,,,,,,,,,,,,,,,,,,,,,,,,,,,,,,,,,,,,,,,,,,,,,,,,,,,,,,,,,,,,,,,,,,,,,,,,,,,,,,,,,,,,,,,,,,,,,,,,,,,,,,,,,,,,,,,,,,,,,,,,,,,,,,,,,,,,,,,,
,,5c5b31c415f6c30001de2df5,2024-02-22_05h02.04.631,kallum_motion_pilot,2023.2.2,Win32,144.092219,5c5b31c415f6c30001de2df5,65d6bb0e977760de756971f7,65d6d4d78f8d77324a4eeb90,0.036,0.036,1,84,246,88,1,fivesix,,,,,,,,,,,,,,,,,,,,,,,,,,,,,,,,,,,,,,,,,,,,,,,,,,,,,,,,,,,,,,,,,,,,,,,,,,,,,,,,,,,,,,,,,,,,,,,,,,,,,,,,,,,,,,,,,,,,,,,,,,,,,,,,,,,,,,,,,
,,5c5b31c415f6c30001de2df5,2024-02-22_05h02.04.631,kallum_motion_pilot,2023.2.2,Win32,144.092219,5c5b31c415f6c30001de2df5,65d6bb0e977760de756971f7,65d6d4d78f8d77324a4eeb90,0.036,0.036,1,85,247,129,1,fiveseven,,,,,,,,,,,,,,,,,,,,,,,,,,,,,,,,,,,,,,,,,,,,,,,,,,,,,,,,,,,,,,,,,,,,,,,,,,,,,,,,,,,,,,,,,,,,,,,,,,,,,,,,,,,,,,,,,,,,,,,,,,,,,,,,,,,,,,,,,
,,5c5b31c415f6c30001de2df5,2024-02-22_05h02.04.631,kallum_motion_pilot,2023.2.2,Win32,144.092219,5c5b31c415f6c30001de2df5,65d6bb0e977760de756971f7,65d6d4d78f8d77324a4eeb90,0.036,0.036,1,86,248,148,1,sevenfive,,,,,,,,,,,,,,,,,,,,,,,,,,,,,,,,,,,,,,,,,,,,,,,,,,,,,,,,,,,,,,,,,,,,,,,,,,,,,,,,,,,,,,,,,,,,,,,,,,,,,,,,,,,,,,,,,,,,,,,,,,,,,,,,,,,,,,,,,
,,5c5b31c415f6c30001de2df5,2024-02-22_05h02.04.631,kallum_motion_pilot,2023.2.2,Win32,144.092219,5c5b31c415f6c30001de2df5,65d6bb0e977760de756971f7,65d6d4d78f8d77324a4eeb90,0.036,0.036,1,87,249,143,1,eightseven,,,,,,,,,,,,,,,,,,,,,,,,,,,,,,,,,,,,,,,,,,,,,,,,,,,,,,,,,,,,,,,,,,,,,,,,,,,,,,,,,,,,,,,,,,,,,,,,,,,,,,,,,,,,,,,,,,,,,,,,,,,,,,,,,,,,,,,,,
,,5c5b31c415f6c30001de2df5,2024-02-22_05h02.04.631,kallum_motion_pilot,2023.2.2,Win32,144.092219,5c5b31c415f6c30001de2df5,65d6bb0e977760de756971f7,65d6d4d78f8d77324a4eeb90,0.036,0.036,1,88,250,70,1,fourtwo,,,,,,,,,,,,,,,,,,,,,,,,,,,,,,,,,,,,,,,,,,,,,,,,,,,,,,,,,,,,,,,,,,,,,,,,,,,,,,,,,,,,,,,,,,,,,,,,,,,,,,,,,,,,,,,,,,,,,,,,,,,,,,,,,,,,,,,,,
,,5c5b31c415f6c30001de2df5,2024-02-22_05h02.04.631,kallum_motion_pilot,2023.2.2,Win32,144.092219,5c5b31c415f6c30001de2df5,65d6bb0e977760de756971f7,65d6d4d78f8d77324a4eeb90,0.036,0.036,1,89,251,0,1,onetwo,,,,,,,,,,,,,,,,,,,,,,,,,,,,,,,,,,,,,,,,,,,,,,,,,,,,,,,,,,,,,,,,,,,,,,,,,,,,,,,,,,,,,,,,,,,,,,,,,,,,,,,,,,,,,,,,,,,,,,,,,,,,,,,,,,,,,,,,,
,,5c5b31c415f6c30001de2df5,2024-02-22_05h02.04.631,kallum_motion_pilot,2023.2.2,Win32,144.092219,5c5b31c415f6c30001de2df5,65d6bb0e977760de756971f7,65d6d4d78f8d77324a4eeb90,0.036,0.036,1,90,252,122,1,sixfive,,,,,,,,,,,,,,,,,,,,,,,,,,,,,,,,,,,,,,,,,,,,,,,,,,,,,,,,,,,,,,,,,,,,,,,,,,,,,,,,,,,,,,,,,,,,,,,,,,,,,,,,,,,,,,,,,,,,,,,,,,,,,,,,,,,,,,,,,
,,5c5b31c415f6c30001de2df5,2024-02-22_05h02.04.631,kallum_motion_pilot,2023.2.2,Win32,144.092219,5c5b31c415f6c30001de2df5,65d6bb0e977760de756971f7,65d6d4d78f8d77324a4eeb90,0.036,0.036,1,91,253,8,1,onetwo,,,,,,,,,,,,,,,,,,,,,,,,,,,,,,,,,,,,,,,,,,,,,,,,,,,,,,,,,,,,,,,,,,,,,,,,,,,,,,,,,,,,,,,,,,,,,,,,,,,,,,,,,,,,,,,,,,,,,,,,,,,,,,,,,,,,,,,,,
,,5c5b31c415f6c30001de2df5,2024-02-22_05h02.04.631,kallum_motion_pilot,2023.2.2,Win32,144.092219,5c5b31c415f6c30001de2df5,65d6bb0e977760de756971f7,65d6d4d78f8d77324a4eeb90,0.036,0.036,1,92,254,2,1,twoone,,,,,,,,,,,,,,,,,,,,,,,,,,,,,,,,,,,,,,,,,,,,,,,,,,,,,,,,,,,,,,,,,,,,,,,,,,,,,,,,,,,,,,,,,,,,,,,,,,,,,,,,,,,,,,,,,,,,,,,,,,,,,,,,,,,,,,,,,
,,5c5b31c415f6c30001de2df5,2024-02-22_05h02.04.631,kallum_motion_pilot,2023.2.2,Win32,144.092219,5c5b31c415f6c30001de2df5,65d6bb0e977760de756971f7,65d6d4d78f8d77324a4eeb90,0.036,0.036,1,93,255,19,1,twofour,,,,,,,,,,,,,,,,,,,,,,,,,,,,,,,,,,,,,,,,,,,,,,,,,,,,,,,,,,,,,,,,,,,,,,,,,,,,,,,,,,,,,,,,,,,,,,,,,,,,,,,,,,,,,,,,,,,,,,,,,,,,,,,,,,,,,,,,,
,,5c5b31c415f6c30001de2df5,2024-02-22_05h02.04.631,kallum_motion_pilot,2023.2.2,Win32,144.092219,5c5b31c415f6c30001de2df5,65d6bb0e977760de756971f7,65d6d4d78f8d77324a4eeb90,0.036,0.036,1,94,256,53,1,threefour,,,,,,,,,,,,,,,,,,,,,,,,,,,,,,,,,,,,,,,,,,,,,,,,,,,,,,,,,,,,,,,,,,,,,,,,,,,,,,,,,,,,,,,,,,,,,,,,,,,,,,,,,,,,,,,,,,,,,,,,,,,,,,,,,,,,,,,,,
,,5c5b31c415f6c30001de2df5,2024-02-22_05h02.04.631,kallum_motion_pilot,2023.2.2,Win32,144.092219,5c5b31c415f6c30001de2df5,65d6bb0e977760de756971f7,65d6d4d78f8d77324a4eeb90,0.036,0.036,1,95,257,108,1,sevenfive,,,,,,,,,,,,,,,,,,,,,,,,,,,,,,,,,,,,,,,,,,,,,,,,,,,,,,,,,,,,,,,,,,,,,,,,,,,,,,,,,,,,,,,,,,,,,,,,,,,,,,,,,,,,,,,,,,,,,,,,,,,,,,,,,,,,,,,,,
,,5c5b31c415f6c30001de2df5,2024-02-22_05h02.04.631,kallum_motion_pilot,2023.2.2,Win32,144.092219,5c5b31c415f6c30001de2df5,65d6bb0e977760de756971f7,65d6d4d78f8d77324a4eeb90,0.037,0.037,1,96,258,101,1,seveneight,,,,,,,,,,,,,,,,,,,,,,,,,,,,,,,,,,,,,,,,,,,,,,,,,,,,,,,,,,,,,,,,,,,,,,,,,,,,,,,,,,,,,,,,,,,,,,,,,,,,,,,,,,,,,,,,,,,,,,,,,,,,,,,,,,,,,,,,,
,,5c5b31c415f6c30001de2df5,2024-02-22_05h02.04.631,kallum_motion_pilot,2023.2.2,Win32,144.092219,5c5b31c415f6c30001de2df5,65d6bb0e977760de756971f7,65d6d4d78f8d77324a4eeb90,0.037,0.037,1,97,259,95,1,eightseven,,,,,,,,,,,,,,,,,,,,,,,,,,,,,,,,,,,,,,,,,,,,,,,,,,,,,,,,,,,,,,,,,,,,,,,,,,,,,,,,,,,,,,,,,,,,,,,,,,,,,,,,,,,,,,,,,,,,,,,,,,,,,,,,,,,,,,,,,
,,5c5b31c415f6c30001de2df5,2024-02-22_05h02.04.631,kallum_motion_pilot,2023.2.2,Win32,144.092219,5c5b31c415f6c30001de2df5,65d6bb0e977760de756971f7,65d6d4d78f8d77324a4eeb90,0.037,0.037,1,98,260,77,1,threefour,,,,,,,,,,,,,,,,,,,,,,,,,,,,,,,,,,,,,,,,,,,,,,,,,,,,,,,,,,,,,,,,,,,,,,,,,,,,,,,,,,,,,,,,,,,,,,,,,,,,,,,,,,,,,,,,,,,,,,,,,,,,,,,,,,,,,,,,,
,,5c5b31c415f6c30001de2df5,2024-02-22_05h02.04.631,kallum_motion_pilot,2023.2.2,Win32,144.092219,5c5b31c415f6c30001de2df5,65d6bb0e977760de756971f7,65d6d4d78f8d77324a4eeb90,0.037,0.037,1,99,261,126,1,eightsix,,,,,,,,,,,,,,,,,,,,,,,,,,,,,,,,,,,,,,,,,,,,,,,,,,,,,,,,,,,,,,,,,,,,,,,,,,,,,,,,,,,,,,,,,,,,,,,,,,,,,,,,,,,,,,,,,,,,,,,,,,,,,,,,,,,,,,,,,
,,5c5b31c415f6c30001de2df5,2024-02-22_05h02.04.631,kallum_motion_pilot,2023.2.2,Win32,144.092219,5c5b31c415f6c30001de2df5,65d6bb0e977760de756971f7,65d6d4d78f8d77324a4eeb90,0.037,0.037,1,100,262,149,1,seveneight,,,,,,,,,,,,,,,,,,,,,,,,,,,,,,,,,,,,,,,,,,,,,,,,,,,,,,,,,,,,,,,,,,,,,,,,,,,,,,,,,,,,,,,,,,,,,,,,,,,,,,,,,,,,,,,,,,,,,,,,,,,,,,,,,,,,,,,,,
,,5c5b31c415f6c30001de2df5,2024-02-22_05h02.04.631,kallum_motion_pilot,2023.2.2,Win32,144.092219,5c5b31c415f6c30001de2df5,65d6bb0e977760de756971f7,65d6d4d78f8d77324a4eeb90,0.037,0.037,1,101,263,5,1,threefour,,,,,,,,,,,,,,,,,,,,,,,,,,,,,,,,,,,,,,,,,,,,,,,,,,,,,,,,,,,,,,,,,,,,,,,,,,,,,,,,,,,,,,,,,,,,,,,,,,,,,,,,,,,,,,,,,,,,,,,,,,,,,,,,,,,,,,,,,
,,5c5b31c415f6c30001de2df5,2024-02-22_05h02.04.631,kallum_motion_pilot,2023.2.2,Win32,144.092219,5c5b31c415f6c30001de2df5,65d6bb0e977760de756971f7,65d6d4d78f8d77324a4eeb90,0.037,0.037,1,102,264,128,1,fivesix,,,,,,,,,,,,,,,,,,,,,,,,,,,,,,,,,,,,,,,,,,,,,,,,,,,,,,,,,,,,,,,,,,,,,,,,,,,,,,,,,,,,,,,,,,,,,,,,,,,,,,,,,,,,,,,,,,,,,,,,,,,,,,,,,,,,,,,,,
,,5c5b31c415f6c30001de2df5,2024-02-22_05h02.04.631,kallum_motion_pilot,2023.2.2,Win32,144.092219,5c5b31c415f6c30001de2df5,65d6bb0e977760de756971f7,65d6d4d78f8d77324a4eeb90,0.037,0.037,1,103,265,29,1,threefour,,,,,,,,,,,,,,,,,,,,,,,,,,,,,,,,,,,,,,,,,,,,,,,,,,,,,,,,,,,,,,,,,,,,,,,,,,,,,,,,,,,,,,,,,,,,,,,,,,,,,,,,,,,,,,,,,,,,,,,,,,,,,,,,,,,,,,,,,
,,5c5b31c415f6c30001de2df5,2024-02-22_05h02.04.631,kallum_motion_pilot,2023.2.2,Win32,144.092219,5c5b31c415f6c30001de2df5,65d6bb0e977760de756971f7,65d6d4d78f8d77324a4eeb90,0.037,0.037,1,104,266,78,1,fourtwo,,,,,,,,,,,,,,,,,,,,,,,,,,,,,,,,,,,,,,,,,,,,,,,,,,,,,,,,,,,,,,,,,,,,,,,,,,,,,,,,,,,,,,,,,,,,,,,,,,,,,,,,,,,,,,,,,,,,,,,,,,,,,,,,,,,,,,,,,
,,5c5b31c415f6c30001de2df5,2024-02-22_05h02.04.631,kallum_motion_pilot,2023.2.2,Win32,144.092219,5c5b31c415f6c30001de2df5,65d6bb0e977760de756971f7,65d6d4d78f8d77324a4eeb90,0.037,0.037,1,105,267,144,1,fivesix,,,,,,,,,,,,,,,,,,,,,,,,,,,,,,,,,,,,,,,,,,,,,,,,,,,,,,,,,,,,,,,,,,,,,,,,,,,,,,,,,,,,,,,,,,,,,,,,,,,,,,,,,,,,,,,,,,,,,,,,,,,,,,,,,,,,,,,,,
,,5c5b31c415f6c30001de2df5,2024-02-22_05h02.04.631,kallum_motion_pilot,2023.2.2,Win32,144.092219,5c5b31c415f6c30001de2df5,65d6bb0e977760de756971f7,65d6d4d78f8d77324a4eeb90,0.037,0.037,1,106,268,41,1,onethree,,,,,,,,,,,,,,,,,,,,,,,,,,,,,,,,,,,,,,,,,,,,,,,,,,,,,,,,,,,,,,,,,,,,,,,,,,,,,,,,,,,,,,,,,,,,,,,,,,,,,,,,,,,,,,,,,,,,,,,,,,,,,,,,,,,,,,,,,
,,5c5b31c415f6c30001de2df5,2024-02-22_05h02.04.631,kallum_motion_pilot,2023.2.2,Win32,144.092219,5c5b31c415f6c30001de2df5,65d6bb0e977760de756971f7,65d6d4d78f8d77324a4eeb90,0.037,0.037,1,107,269,110,1,eightsix,,,,,,,,,,,,,,,,,,,,,,,,,,,,,,,,,,,,,,,,,,,,,,,,,,,,,,,,,,,,,,,,,,,,,,,,,,,,,,,,,,,,,,,,,,,,,,,,,,,,,,,,,,,,,,,,,,,,,,,,,,,,,,,,,,,,,,,,,
,,5c5b31c415f6c30001de2df5,2024-02-22_05h02.04.631,kallum_motion_pilot,2023.2.2,Win32,144.092219,5c5b31c415f6c30001de2df5,65d6bb0e977760de756971f7,65d6d4d78f8d77324a4eeb90,0.037,0.037,1,108,270,104,1,fivesix,,,,,,,,,,,,,,,,,,,,,,,,,,,,,,,,,,,,,,,,,,,,,,,,,,,,,,,,,,,,,,,,,,,,,,,,,,,,,,,,,,,,,,,,,,,,,,,,,,,,,,,,,,,,,,,,,,,,,,,,,,,,,,,,,,,,,,,,,
,,5c5b31c415f6c30001de2df5,2024-02-22_05h02.04.631,kallum_motion_pilot,2023.2.2,Win32,144.092219,5c5b31c415f6c30001de2df5,65d6bb0e977760de756971f7,65d6d4d78f8d77324a4eeb90,0.038,0.038,1,109,271,99,1,sixeight,,,,,,,,,,,,,,,,,,,,,,,,,,,,,,,,,,,,,,,,,,,,,,,,,,,,,,,,,,,,,,,,,,,,,,,,,,,,,,,,,,,,,,,,,,,,,,,,,,,,,,,,,,,,,,,,,,,,,,,,,,,,,,,,,,,,,,,,,
,,5c5b31c415f6c30001de2df5,2024-02-22_05h02.04.631,kallum_motion_pilot,2023.2.2,Win32,144.092219,5c5b31c415f6c30001de2df5,65d6bb0e977760de756971f7,65d6d4d78f8d77324a4eeb90,0.038,0.038,1,110,272,119,1,eightseven,,,,,,,,,,,,,,,,,,,,,,,,,,,,,,,,,,,,,,,,,,,,,,,,,,,,,,,,,,,,,,,,,,,,,,,,,,,,,,,,,,,,,,,,,,,,,,,,,,,,,,,,,,,,,,,,,,,,,,,,,,,,,,,,,,,,,,,,,
,,5c5b31c415f6c30001de2df5,2024-02-22_05h02.04.631,kallum_motion_pilot,2023.2.2,Win32,144.092219,5c5b31c415f6c30001de2df5,65d6bb0e977760de756971f7,65d6d4d78f8d77324a4eeb90,0.038,0.038,1,111,273,6,1,fourtwo,,,,,,,,,,,,,,,,,,,,,,,,,,,,,,,,,,,,,,,,,,,,,,,,,,,,,,,,,,,,,,,,,,,,,,,,,,,,,,,,,,,,,,,,,,,,,,,,,,,,,,,,,,,,,,,,,,,,,,,,,,,,,,,,,,,,,,,,,
,,5c5b31c415f6c30001de2df5,2024-02-22_05h02.04.631,kallum_motion_pilot,2023.2.2,Win32,144.092219,5c5b31c415f6c30001de2df5,65d6bb0e977760de756971f7,65d6d4d78f8d77324a4eeb90,0.038,0.038,1,112,274,24,1,onetwo,,,,,,,,,,,,,,,,,,,,,,,,,,,,,,,,,,,,,,,,,,,,,,,,,,,,,,,,,,,,,,,,,,,,,,,,,,,,,,,,,,,,,,,,,,,,,,,,,,,,,,,,,,,,,,,,,,,,,,,,,,,,,,,,,,,,,,,,,
,,5c5b31c415f6c30001de2df5,2024-02-22_05h02.04.631,kallum_motion_pilot,2023.2.2,Win32,144.092219,5c5b31c415f6c30001de2df5,65d6bb0e977760de756971f7,65d6d4d78f8d77324a4eeb90,0.038,0.038,1,113,275,127,1,eightseven,,,,,,,,,,,,,,,,,,,,,,,,,,,,,,,,,,,,,,,,,,,,,,,,,,,,,,,,,,,,,,,,,,,,,,,,,,,,,,,,,,,,,,,,,,,,,,,,,,,,,,,,,,,,,,,,,,,,,,,,,,,,,,,,,,,,,,,,,
,,5c5b31c415f6c30001de2df5,2024-02-22_05h02.04.631,kallum_motion_pilot,2023.2.2,Win32,144.092219,5c5b31c415f6c30001de2df5,65d6bb0e977760de756971f7,65d6d4d78f8d77324a4eeb90,0.038,0.038,1,114,276,81,1,fiveseven,,,,,,,,,,,,,,,,,,,,,,,,,,,,,,,,,,,,,,,,,,,,,,,,,,,,,,,,,,,,,,,,,,,,,,,,,,,,,,,,,,,,,,,,,,,,,,,,,,,,,,,,,,,,,,,,,,,,,,,,,,,,,,,,,,,,,,,,,
,,5c5b31c415f6c30001de2df5,2024-02-22_05h02.04.631,kallum_motion_pilot,2023.2.2,Win32,144.092219,5c5b31c415f6c30001de2df5,65d6bb0e977760de756971f7,65d6d4d78f8d77324a4eeb90,0.038,0.038,1,115,277,89,1,fiveseven,,,,,,,,,,,,,,,,,,,,,,,,,,,,,,,,,,,,,,,,,,,,,,,,,,,,,,,,,,,,,,,,,,,,,,,,,,,,,,,,,,,,,,,,,,,,,,,,,,,,,,,,,,,,,,,,,,,,,,,,,,,,,,,,,,,,,,,,,
,,5c5b31c415f6c30001de2df5,2024-02-22_05h02.04.631,kallum_motion_pilot,2023.2.2,Win32,144.092219,5c5b31c415f6c30001de2df5,65d6bb0e977760de756971f7,65d6d4d78f8d77324a4eeb90,0.038,0.038,1,116,278,91,1,sixeight,,,,,,,,,,,,,,,,,,,,,,,,,,,,,,,,,,,,,,,,,,,,,,,,,,,,,,,,,,,,,,,,,,,,,,,,,,,,,,,,,,,,,,,,,,,,,,,,,,,,,,,,,,,,,,,,,,,,,,,,,,,,,,,,,,,,,,,,,
,,5c5b31c415f6c30001de2df5,2024-02-22_05h02.04.631,kallum_motion_pilot,2023.2.2,Win32,144.092219,5c5b31c415f6c30001de2df5,65d6bb0e977760de756971f7,65d6d4d78f8d77324a4eeb90,0.038,0.038,1,117,279,86,1,eightsix,,,,,,,,,,,,,,,,,,,,,,,,,,,,,,,,,,,,,,,,,,,,,,,,,,,,,,,,,,,,,,,,,,,,,,,,,,,,,,,,,,,,,,,,,,,,,,,,,,,,,,,,,,,,,,,,,,,,,,,,,,,,,,,,,,,,,,,,,
,,5c5b31c415f6c30001de2df5,2024-02-22_05h02.04.631,kallum_motion_pilot,2023.2.2,Win32,144.092219,5c5b31c415f6c30001de2df5,65d6bb0e977760de756971f7,65d6d4d78f8d77324a4eeb90,0.038,0.038,1,118,280,71,1,fourthree,,,,,,,,,,,,,,,,,,,,,,,,,,,,,,,,,,,,,,,,,,,,,,,,,,,,,,,,,,,,,,,,,,,,,,,,,,,,,,,,,,,,,,,,,,,,,,,,,,,,,,,,,,,,,,,,,,,,,,,,,,,,,,,,,,,,,,,,,
