startup.started,startup.stopped,Prolific ID*,date,expName,psychopyVersion,OS,frameRate,participant,study_id,session,stimpositions.started,stimpositions.stopped,hardcoded_stimulus_positions.thisRepN,hardcoded_stimulus_positions.thisTrialN,hardcoded_stimulus_positions.thisN,hardcoded_stimulus_positions.thisIndex,hardcoded_stimulus_positions.ran,StimulusPos,stimorientation.started,stimorientation.stopped,prac_stimorientation_import_loop.thisRepN,prac_stimorientation_import_loop.thisTrialN,prac_stimorientation_import_loop.thisN,prac_stimorientation_import_loop.thisIndex,prac_stimorientation_import_loop.ran,Stimorientation,welcome_instr.started,welcome_instr.stopped,key_resp.keys,key_resp.rt,key_resp.duration,response_steppedout_1.started,response_steppedout_1.stopped,key_resp_20.keys,key_resp_20.rt,key_resp_20.duration,response_steppedout_2.started,response_steppedout_2.stopped,key_resp_19.keys,key_resp_19.rt,key_resp_19.duration,stim_response_instr.started,stim_response_instr.stopped,key_resp_15.keys,key_resp_15.rt,key_resp_15.duration,direction_instr_2.started,direction_instr_2.stopped,key_resp_9.keys,key_resp_9.rt,key_resp_9.duration,instr_prac.started,instr_prac.stopped,key_resp_10.keys,key_resp_10.rt,key_resp_10.duration,Stim1_display_prac.started,Stim1_display_prac.stopped,Ecc,Circle1_ori,Circle2_ori,response_prac.started,similarity,response_time,response_prac.stopped,mouse_5.x,mouse_5.y,mouse_5.leftButton,mouse_5.midButton,mouse_5.rightButton,mouse_5.clicked_name,responseprac_feedback.started,responseprac_feedback.stopped,summary2_prac.started,summary2_prac.stopped,mouse_6.x,mouse_6.y,mouse_6.leftButton,mouse_6.midButton,mouse_6.rightButton,mouse_6.clicked_name,duringprac.thisRepN,duringprac.thisTrialN,duringprac.thisN,duringprac.thisIndex,duringprac.ran,begin.started,begin.stopped,key_resp_22.keys,key_resp_22.rt,key_resp_22.duration,Stim1_display.started,Stim1_display.stopped,circle1_ori,circle2_ori,circle1_SF,circle2_SF,response.started,response.stopped,mouse.x,mouse.y,mouse.leftButton,mouse.midButton,mouse.rightButton,mouse.clicked_name,trialnumber,double_pass.thisRepN,double_pass.thisTrialN,double_pass.thisN,double_pass.thisIndex,double_pass.ran,double_pass.order,main_trial.thisRepN,main_trial.thisTrialN,main_trial.thisN,main_trial.thisIndex,main_trial.ran,main_trial.order,Trial_Counter,Catch,Frequencies,response_2.started,response_2.stopped,mouse_2.x,mouse_2.y,mouse_2.leftButton,mouse_2.midButton,mouse_2.rightButton,mouse_2.clicked_name,special_trial.started,special_trial.stopped,catch_1.started,catch_1.stopped,mouse_3.x,mouse_3.y,mouse_3.leftButton,mouse_3.midButton,mouse_3.rightButton,catchresponse,catchnumber,response_time_catch,response_sum.started,response_sum.stopped,mouse_11.x,mouse_11.y,mouse_11.leftButton,mouse_11.midButton,mouse_11.rightButton,flip_presentation_sequence_for_double_pass.started,flip_presentation_sequence_for_double_pass.stopped,goodbye.started,goodbye.stopped,key_resp_3.keys,key_resp_3.rt,key_resp_3.duration
0.001,0.001,5c849a40a869d400179ab427,2024-02-18_21h16.31.911,kallum_motion_pilot,2023.2.2,Win32,59.88023952,5c849a40a869d400179ab427,65d2b6c8f2eece985d8e374c,65d2b9dff54f05027e23ca1d,,,,,,,,,,,,,,,,,,,,,,,,,,,,,,,,,,,,,,,,,,,,,,,,,,,,,,,,,,,,,,,,,,,,,,,,,,,,,,,,,,,,,,,,,,,,,,,,,,,,,,,,,,,,,,,,,,,,,,,,,,,,,,,,,,,,,,,,,,,,,,,,,
,,5c849a40a869d400179ab427,2024-02-18_21h16.31.911,kallum_motion_pilot,2023.2.2,Win32,59.88023952,5c849a40a869d400179ab427,65d2b6c8f2eece985d8e374c,65d2b9dff54f05027e23ca1d,0.029,0.029,0,0,0,143,1,eightseven,,,,,,,,,,,,,,,,,,,,,,,,,,,,,,,,,,,,,,,,,,,,,,,,,,,,,,,,,,,,,,,,,,,,,,,,,,,,,,,,,,,,,,,,,,,,,,,,,,,,,,,,,,,,,,,,,,,,,,,,,,,,,,,,,,,,,,,,,
,,5c849a40a869d400179ab427,2024-02-18_21h16.31.911,kallum_motion_pilot,2023.2.2,Win32,59.88023952,5c849a40a869d400179ab427,65d2b6c8f2eece985d8e374c,65d2b9dff54f05027e23ca1d,0.03,0.03,0,1,1,84,1,sevenfive,,,,,,,,,,,,,,,,,,,,,,,,,,,,,,,,,,,,,,,,,,,,,,,,,,,,,,,,,,,,,,,,,,,,,,,,,,,,,,,,,,,,,,,,,,,,,,,,,,,,,,,,,,,,,,,,,,,,,,,,,,,,,,,,,,,,,,,,,
,,5c849a40a869d400179ab427,2024-02-18_21h16.31.911,kallum_motion_pilot,2023.2.2,Win32,59.88023952,5c849a40a869d400179ab427,65d2b6c8f2eece985d8e374c,65d2b9dff54f05027e23ca1d,0.03,0.03,0,2,2,81,1,fiveseven,,,,,,,,,,,,,,,,,,,,,,,,,,,,,,,,,,,,,,,,,,,,,,,,,,,,,,,,,,,,,,,,,,,,,,,,,,,,,,,,,,,,,,,,,,,,,,,,,,,,,,,,,,,,,,,,,,,,,,,,,,,,,,,,,,,,,,,,,
,,5c849a40a869d400179ab427,2024-02-18_21h16.31.911,kallum_motion_pilot,2023.2.2,Win32,59.88023952,5c849a40a869d400179ab427,65d2b6c8f2eece985d8e374c,65d2b9dff54f05027e23ca1d,0.03,0.03,0,3,3,53,1,threefour,,,,,,,,,,,,,,,,,,,,,,,,,,,,,,,,,,,,,,,,,,,,,,,,,,,,,,,,,,,,,,,,,,,,,,,,,,,,,,,,,,,,,,,,,,,,,,,,,,,,,,,,,,,,,,,,,,,,,,,,,,,,,,,,,,,,,,,,,
,,5c849a40a869d400179ab427,2024-02-18_21h16.31.911,kallum_motion_pilot,2023.2.2,Win32,59.88023952,5c849a40a869d400179ab427,65d2b6c8f2eece985d8e374c,65d2b9dff54f05027e23ca1d,0.03,0.03,0,4,4,68,1,threeone,,,,,,,,,,,,,,,,,,,,,,,,,,,,,,,,,,,,,,,,,,,,,,,,,,,,,,,,,,,,,,,,,,,,,,,,,,,,,,,,,,,,,,,,,,,,,,,,,,,,,,,,,,,,,,,,,,,,,,,,,,,,,,,,,,,,,,,,,
,,5c849a40a869d400179ab427,2024-02-18_21h16.31.911,kallum_motion_pilot,2023.2.2,Win32,59.88023952,5c849a40a869d400179ab427,65d2b6c8f2eece985d8e374c,65d2b9dff54f05027e23ca1d,0.031,0.031,0,5,5,82,1,sixfive,,,,,,,,,,,,,,,,,,,,,,,,,,,,,,,,,,,,,,,,,,,,,,,,,,,,,,,,,,,,,,,,,,,,,,,,,,,,,,,,,,,,,,,,,,,,,,,,,,,,,,,,,,,,,,,,,,,,,,,,,,,,,,,,,,,,,,,,,
,,5c849a40a869d400179ab427,2024-02-18_21h16.31.911,kallum_motion_pilot,2023.2.2,Win32,59.88023952,5c849a40a869d400179ab427,65d2b6c8f2eece985d8e374c,65d2b9dff54f05027e23ca1d,0.031,0.031,0,6,6,17,1,onethree,,,,,,,,,,,,,,,,,,,,,,,,,,,,,,,,,,,,,,,,,,,,,,,,,,,,,,,,,,,,,,,,,,,,,,,,,,,,,,,,,,,,,,,,,,,,,,,,,,,,,,,,,,,,,,,,,,,,,,,,,,,,,,,,,,,,,,,,,
,,5c849a40a869d400179ab427,2024-02-18_21h16.31.911,kallum_motion_pilot,2023.2.2,Win32,59.88023952,5c849a40a869d400179ab427,65d2b6c8f2eece985d8e374c,65d2b9dff54f05027e23ca1d,0.031,0.031,0,7,7,103,1,eightseven,,,,,,,,,,,,,,,,,,,,,,,,,,,,,,,,,,,,,,,,,,,,,,,,,,,,,,,,,,,,,,,,,,,,,,,,,,,,,,,,,,,,,,,,,,,,,,,,,,,,,,,,,,,,,,,,,,,,,,,,,,,,,,,,,,,,,,,,,
,,5c849a40a869d400179ab427,2024-02-18_21h16.31.911,kallum_motion_pilot,2023.2.2,Win32,59.88023952,5c849a40a869d400179ab427,65d2b6c8f2eece985d8e374c,65d2b9dff54f05027e23ca1d,0.031,0.032,0,8,8,32,1,onetwo,,,,,,,,,,,,,,,,,,,,,,,,,,,,,,,,,,,,,,,,,,,,,,,,,,,,,,,,,,,,,,,,,,,,,,,,,,,,,,,,,,,,,,,,,,,,,,,,,,,,,,,,,,,,,,,,,,,,,,,,,,,,,,,,,,,,,,,,,
,,5c849a40a869d400179ab427,2024-02-18_21h16.31.911,kallum_motion_pilot,2023.2.2,Win32,59.88023952,5c849a40a869d400179ab427,65d2b6c8f2eece985d8e374c,65d2b9dff54f05027e23ca1d,0.032,0.032,0,9,9,29,1,threefour,,,,,,,,,,,,,,,,,,,,,,,,,,,,,,,,,,,,,,,,,,,,,,,,,,,,,,,,,,,,,,,,,,,,,,,,,,,,,,,,,,,,,,,,,,,,,,,,,,,,,,,,,,,,,,,,,,,,,,,,,,,,,,,,,,,,,,,,,
,,5c849a40a869d400179ab427,2024-02-18_21h16.31.911,kallum_motion_pilot,2023.2.2,Win32,59.88023952,5c849a40a869d400179ab427,65d2b6c8f2eece985d8e374c,65d2b9dff54f05027e23ca1d,0.032,0.032,0,10,10,77,1,threefour,,,,,,,,,,,,,,,,,,,,,,,,,,,,,,,,,,,,,,,,,,,,,,,,,,,,,,,,,,,,,,,,,,,,,,,,,,,,,,,,,,,,,,,,,,,,,,,,,,,,,,,,,,,,,,,,,,,,,,,,,,,,,,,,,,,,,,,,,
,,5c849a40a869d400179ab427,2024-02-18_21h16.31.911,kallum_motion_pilot,2023.2.2,Win32,59.88023952,5c849a40a869d400179ab427,65d2b6c8f2eece985d8e374c,65d2b9dff54f05027e23ca1d,0.032,0.032,0,11,11,57,1,onethree,,,,,,,,,,,,,,,,,,,,,,,,,,,,,,,,,,,,,,,,,,,,,,,,,,,,,,,,,,,,,,,,,,,,,,,,,,,,,,,,,,,,,,,,,,,,,,,,,,,,,,,,,,,,,,,,,,,,,,,,,,,,,,,,,,,,,,,,,
,,5c849a40a869d400179ab427,2024-02-18_21h16.31.911,kallum_motion_pilot,2023.2.2,Win32,59.88023952,5c849a40a869d400179ab427,65d2b6c8f2eece985d8e374c,65d2b9dff54f05027e23ca1d,0.032,0.032,0,12,12,58,1,twoone,,,,,,,,,,,,,,,,,,,,,,,,,,,,,,,,,,,,,,,,,,,,,,,,,,,,,,,,,,,,,,,,,,,,,,,,,,,,,,,,,,,,,,,,,,,,,,,,,,,,,,,,,,,,,,,,,,,,,,,,,,,,,,,,,,,,,,,,,
,,5c849a40a869d400179ab427,2024-02-18_21h16.31.911,kallum_motion_pilot,2023.2.2,Win32,59.88023952,5c849a40a869d400179ab427,65d2b6c8f2eece985d8e374c,65d2b9dff54f05027e23ca1d,0.032,0.032,0,13,13,60,1,threeone,,,,,,,,,,,,,,,,,,,,,,,,,,,,,,,,,,,,,,,,,,,,,,,,,,,,,,,,,,,,,,,,,,,,,,,,,,,,,,,,,,,,,,,,,,,,,,,,,,,,,,,,,,,,,,,,,,,,,,,,,,,,,,,,,,,,,,,,,
,,5c849a40a869d400179ab427,2024-02-18_21h16.31.911,kallum_motion_pilot,2023.2.2,Win32,59.88023952,5c849a40a869d400179ab427,65d2b6c8f2eece985d8e374c,65d2b9dff54f05027e23ca1d,0.032,0.032,0,14,14,153,1,fiveseven,,,,,,,,,,,,,,,,,,,,,,,,,,,,,,,,,,,,,,,,,,,,,,,,,,,,,,,,,,,,,,,,,,,,,,,,,,,,,,,,,,,,,,,,,,,,,,,,,,,,,,,,,,,,,,,,,,,,,,,,,,,,,,,,,,,,,,,,,
,,5c849a40a869d400179ab427,2024-02-18_21h16.31.911,kallum_motion_pilot,2023.2.2,Win32,59.88023952,5c849a40a869d400179ab427,65d2b6c8f2eece985d8e374c,65d2b9dff54f05027e23ca1d,0.033,0.033,0,15,15,90,1,sixfive,,,,,,,,,,,,,,,,,,,,,,,,,,,,,,,,,,,,,,,,,,,,,,,,,,,,,,,,,,,,,,,,,,,,,,,,,,,,,,,,,,,,,,,,,,,,,,,,,,,,,,,,,,,,,,,,,,,,,,,,,,,,,,,,,,,,,,,,,
,,5c849a40a869d400179ab427,2024-02-18_21h16.31.911,kallum_motion_pilot,2023.2.2,Win32,59.88023952,5c849a40a869d400179ab427,65d2b6c8f2eece985d8e374c,65d2b9dff54f05027e23ca1d,0.033,0.033,0,16,16,131,1,sixeight,,,,,,,,,,,,,,,,,,,,,,,,,,,,,,,,,,,,,,,,,,,,,,,,,,,,,,,,,,,,,,,,,,,,,,,,,,,,,,,,,,,,,,,,,,,,,,,,,,,,,,,,,,,,,,,,,,,,,,,,,,,,,,,,,,,,,,,,,
,,5c849a40a869d400179ab427,2024-02-18_21h16.31.911,kallum_motion_pilot,2023.2.2,Win32,59.88023952,5c849a40a869d400179ab427,65d2b6c8f2eece985d8e374c,65d2b9dff54f05027e23ca1d,0.033,0.033,0,17,17,157,1,seveneight,,,,,,,,,,,,,,,,,,,,,,,,,,,,,,,,,,,,,,,,,,,,,,,,,,,,,,,,,,,,,,,,,,,,,,,,,,,,,,,,,,,,,,,,,,,,,,,,,,,,,,,,,,,,,,,,,,,,,,,,,,,,,,,,,,,,,,,,,
,,5c849a40a869d400179ab427,2024-02-18_21h16.31.911,kallum_motion_pilot,2023.2.2,Win32,59.88023952,5c849a40a869d400179ab427,65d2b6c8f2eece985d8e374c,65d2b9dff54f05027e23ca1d,0.034,0.034,0,18,18,33,1,onethree,,,,,,,,,,,,,,,,,,,,,,,,,,,,,,,,,,,,,,,,,,,,,,,,,,,,,,,,,,,,,,,,,,,,,,,,,,,,,,,,,,,,,,,,,,,,,,,,,,,,,,,,,,,,,,,,,,,,,,,,,,,,,,,,,,,,,,,,,
,,5c849a40a869d400179ab427,2024-02-18_21h16.31.911,kallum_motion_pilot,2023.2.2,Win32,59.88023952,5c849a40a869d400179ab427,65d2b6c8f2eece985d8e374c,65d2b9dff54f05027e23ca1d,0.034,0.034,0,19,19,52,1,threeone,,,,,,,,,,,,,,,,,,,,,,,,,,,,,,,,,,,,,,,,,,,,,,,,,,,,,,,,,,,,,,,,,,,,,,,,,,,,,,,,,,,,,,,,,,,,,,,,,,,,,,,,,,,,,,,,,,,,,,,,,,,,,,,,,,,,,,,,,
,,5c849a40a869d400179ab427,2024-02-18_21h16.31.911,kallum_motion_pilot,2023.2.2,Win32,59.88023952,5c849a40a869d400179ab427,65d2b6c8f2eece985d8e374c,65d2b9dff54f05027e23ca1d,0.034,0.034,0,20,20,35,1,twofour,,,,,,,,,,,,,,,,,,,,,,,,,,,,,,,,,,,,,,,,,,,,,,,,,,,,,,,,,,,,,,,,,,,,,,,,,,,,,,,,,,,,,,,,,,,,,,,,,,,,,,,,,,,,,,,,,,,,,,,,,,,,,,,,,,,,,,,,,
,,5c849a40a869d400179ab427,2024-02-18_21h16.31.911,kallum_motion_pilot,2023.2.2,Win32,59.88023952,5c849a40a869d400179ab427,65d2b6c8f2eece985d8e374c,65d2b9dff54f05027e23ca1d,0.034,0.034,0,21,21,154,1,sixfive,,,,,,,,,,,,,,,,,,,,,,,,,,,,,,,,,,,,,,,,,,,,,,,,,,,,,,,,,,,,,,,,,,,,,,,,,,,,,,,,,,,,,,,,,,,,,,,,,,,,,,,,,,,,,,,,,,,,,,,,,,,,,,,,,,,,,,,,,
,,5c849a40a869d400179ab427,2024-02-18_21h16.31.911,kallum_motion_pilot,2023.2.2,Win32,59.88023952,5c849a40a869d400179ab427,65d2b6c8f2eece985d8e374c,65d2b9dff54f05027e23ca1d,0.034,0.034,0,22,22,117,1,seveneight,,,,,,,,,,,,,,,,,,,,,,,,,,,,,,,,,,,,,,,,,,,,,,,,,,,,,,,,,,,,,,,,,,,,,,,,,,,,,,,,,,,,,,,,,,,,,,,,,,,,,,,,,,,,,,,,,,,,,,,,,,,,,,,,,,,,,,,,,
,,5c849a40a869d400179ab427,2024-02-18_21h16.31.911,kallum_motion_pilot,2023.2.2,Win32,59.88023952,5c849a40a869d400179ab427,65d2b6c8f2eece985d8e374c,65d2b9dff54f05027e23ca1d,0.034,0.034,0,23,23,12,1,threeone,,,,,,,,,,,,,,,,,,,,,,,,,,,,,,,,,,,,,,,,,,,,,,,,,,,,,,,,,,,,,,,,,,,,,,,,,,,,,,,,,,,,,,,,,,,,,,,,,,,,,,,,,,,,,,,,,,,,,,,,,,,,,,,,,,,,,,,,,
,,5c849a40a869d400179ab427,2024-02-18_21h16.31.911,kallum_motion_pilot,2023.2.2,Win32,59.88023952,5c849a40a869d400179ab427,65d2b6c8f2eece985d8e374c,65d2b9dff54f05027e23ca1d,0.034,0.035,0,24,24,2,1,twoone,,,,,,,,,,,,,,,,,,,,,,,,,,,,,,,,,,,,,,,,,,,,,,,,,,,,,,,,,,,,,,,,,,,,,,,,,,,,,,,,,,,,,,,,,,,,,,,,,,,,,,,,,,,,,,,,,,,,,,,,,,,,,,,,,,,,,,,,,
,,5c849a40a869d400179ab427,2024-02-18_21h16.31.911,kallum_motion_pilot,2023.2.2,Win32,59.88023952,5c849a40a869d400179ab427,65d2b6c8f2eece985d8e374c,65d2b9dff54f05027e23ca1d,0.035,0.035,0,25,25,100,1,sevenfive,,,,,,,,,,,,,,,,,,,,,,,,,,,,,,,,,,,,,,,,,,,,,,,,,,,,,,,,,,,,,,,,,,,,,,,,,,,,,,,,,,,,,,,,,,,,,,,,,,,,,,,,,,,,,,,,,,,,,,,,,,,,,,,,,,,,,,,,,
,,5c849a40a869d400179ab427,2024-02-18_21h16.31.911,kallum_motion_pilot,2023.2.2,Win32,59.88023952,5c849a40a869d400179ab427,65d2b6c8f2eece985d8e374c,65d2b9dff54f05027e23ca1d,0.035,0.035,0,26,26,130,1,sixfive,,,,,,,,,,,,,,,,,,,,,,,,,,,,,,,,,,,,,,,,,,,,,,,,,,,,,,,,,,,,,,,,,,,,,,,,,,,,,,,,,,,,,,,,,,,,,,,,,,,,,,,,,,,,,,,,,,,,,,,,,,,,,,,,,,,,,,,,,
,,5c849a40a869d400179ab427,2024-02-18_21h16.31.911,kallum_motion_pilot,2023.2.2,Win32,59.88023952,5c849a40a869d400179ab427,65d2b6c8f2eece985d8e374c,65d2b9dff54f05027e23ca1d,0.035,0.035,0,27,27,144,1,fivesix,,,,,,,,,,,,,,,,,,,,,,,,,,,,,,,,,,,,,,,,,,,,,,,,,,,,,,,,,,,,,,,,,,,,,,,,,,,,,,,,,,,,,,,,,,,,,,,,,,,,,,,,,,,,,,,,,,,,,,,,,,,,,,,,,,,,,,,,,
,,5c849a40a869d400179ab427,2024-02-18_21h16.31.911,kallum_motion_pilot,2023.2.2,Win32,59.88023952,5c849a40a869d400179ab427,65d2b6c8f2eece985d8e374c,65d2b9dff54f05027e23ca1d,0.036,0.036,0,28,28,156,1,sevenfive,,,,,,,,,,,,,,,,,,,,,,,,,,,,,,,,,,,,,,,,,,,,,,,,,,,,,,,,,,,,,,,,,,,,,,,,,,,,,,,,,,,,,,,,,,,,,,,,,,,,,,,,,,,,,,,,,,,,,,,,,,,,,,,,,,,,,,,,,
,,5c849a40a869d400179ab427,2024-02-18_21h16.31.911,kallum_motion_pilot,2023.2.2,Win32,59.88023952,5c849a40a869d400179ab427,65d2b6c8f2eece985d8e374c,65d2b9dff54f05027e23ca1d,0.036,0.036,0,29,29,113,1,fiveseven,,,,,,,,,,,,,,,,,,,,,,,,,,,,,,,,,,,,,,,,,,,,,,,,,,,,,,,,,,,,,,,,,,,,,,,,,,,,,,,,,,,,,,,,,,,,,,,,,,,,,,,,,,,,,,,,,,,,,,,,,,,,,,,,,,,,,,,,,
,,5c849a40a869d400179ab427,2024-02-18_21h16.31.911,kallum_motion_pilot,2023.2.2,Win32,59.88023952,5c849a40a869d400179ab427,65d2b6c8f2eece985d8e374c,65d2b9dff54f05027e23ca1d,0.036,0.036,0,30,30,4,1,threeone,,,,,,,,,,,,,,,,,,,,,,,,,,,,,,,,,,,,,,,,,,,,,,,,,,,,,,,,,,,,,,,,,,,,,,,,,,,,,,,,,,,,,,,,,,,,,,,,,,,,,,,,,,,,,,,,,,,,,,,,,,,,,,,,,,,,,,,,,
,,5c849a40a869d400179ab427,2024-02-18_21h16.31.911,kallum_motion_pilot,2023.2.2,Win32,59.88023952,5c849a40a869d400179ab427,65d2b6c8f2eece985d8e374c,65d2b9dff54f05027e23ca1d,0.036,0.036,0,31,31,76,1,threeone,,,,,,,,,,,,,,,,,,,,,,,,,,,,,,,,,,,,,,,,,,,,,,,,,,,,,,,,,,,,,,,,,,,,,,,,,,,,,,,,,,,,,,,,,,,,,,,,,,,,,,,,,,,,,,,,,,,,,,,,,,,,,,,,,,,,,,,,,
,,5c849a40a869d400179ab427,2024-02-18_21h16.31.911,kallum_motion_pilot,2023.2.2,Win32,59.88023952,5c849a40a869d400179ab427,65d2b6c8f2eece985d8e374c,65d2b9dff54f05027e23ca1d,0.037,0.037,0,32,32,16,1,onetwo,,,,,,,,,,,,,,,,,,,,,,,,,,,,,,,,,,,,,,,,,,,,,,,,,,,,,,,,,,,,,,,,,,,,,,,,,,,,,,,,,,,,,,,,,,,,,,,,,,,,,,,,,,,,,,,,,,,,,,,,,,,,,,,,,,,,,,,,,
,,5c849a40a869d400179ab427,2024-02-18_21h16.31.911,kallum_motion_pilot,2023.2.2,Win32,59.88023952,5c849a40a869d400179ab427,65d2b6c8f2eece985d8e374c,65d2b9dff54f05027e23ca1d,0.037,0.037,0,33,33,23,1,fourthree,,,,,,,,,,,,,,,,,,,,,,,,,,,,,,,,,,,,,,,,,,,,,,,,,,,,,,,,,,,,,,,,,,,,,,,,,,,,,,,,,,,,,,,,,,,,,,,,,,,,,,,,,,,,,,,,,,,,,,,,,,,,,,,,,,,,,,,,,
,,5c849a40a869d400179ab427,2024-02-18_21h16.31.911,kallum_motion_pilot,2023.2.2,Win32,59.88023952,5c849a40a869d400179ab427,65d2b6c8f2eece985d8e374c,65d2b9dff54f05027e23ca1d,0.037,0.037,0,34,34,66,1,twoone,,,,,,,,,,,,,,,,,,,,,,,,,,,,,,,,,,,,,,,,,,,,,,,,,,,,,,,,,,,,,,,,,,,,,,,,,,,,,,,,,,,,,,,,,,,,,,,,,,,,,,,,,,,,,,,,,,,,,,,,,,,,,,,,,,,,,,,,,
,,5c849a40a869d400179ab427,2024-02-18_21h16.31.911,kallum_motion_pilot,2023.2.2,Win32,59.88023952,5c849a40a869d400179ab427,65d2b6c8f2eece985d8e374c,65d2b9dff54f05027e23ca1d,0.037,0.037,0,35,35,55,1,fourthree,,,,,,,,,,,,,,,,,,,,,,,,,,,,,,,,,,,,,,,,,,,,,,,,,,,,,,,,,,,,,,,,,,,,,,,,,,,,,,,,,,,,,,,,,,,,,,,,,,,,,,,,,,,,,,,,,,,,,,,,,,,,,,,,,,,,,,,,,
,,5c849a40a869d400179ab427,2024-02-18_21h16.31.911,kallum_motion_pilot,2023.2.2,Win32,59.88023952,5c849a40a869d400179ab427,65d2b6c8f2eece985d8e374c,65d2b9dff54f05027e23ca1d,0.037,0.037,0,36,36,63,1,fourthree,,,,,,,,,,,,,,,,,,,,,,,,,,,,,,,,,,,,,,,,,,,,,,,,,,,,,,,,,,,,,,,,,,,,,,,,,,,,,,,,,,,,,,,,,,,,,,,,,,,,,,,,,,,,,,,,,,,,,,,,,,,,,,,,,,,,,,,,,
,,5c849a40a869d400179ab427,2024-02-18_21h16.31.911,kallum_motion_pilot,2023.2.2,Win32,59.88023952,5c849a40a869d400179ab427,65d2b6c8f2eece985d8e374c,65d2b9dff54f05027e23ca1d,0.037,0.037,0,37,37,123,1,sixeight,,,,,,,,,,,,,,,,,,,,,,,,,,,,,,,,,,,,,,,,,,,,,,,,,,,,,,,,,,,,,,,,,,,,,,,,,,,,,,,,,,,,,,,,,,,,,,,,,,,,,,,,,,,,,,,,,,,,,,,,,,,,,,,,,,,,,,,,,
,,5c849a40a869d400179ab427,2024-02-18_21h16.31.911,kallum_motion_pilot,2023.2.2,Win32,59.88023952,5c849a40a869d400179ab427,65d2b6c8f2eece985d8e374c,65d2b9dff54f05027e23ca1d,0.037,0.037,0,38,38,149,1,seveneight,,,,,,,,,,,,,,,,,,,,,,,,,,,,,,,,,,,,,,,,,,,,,,,,,,,,,,,,,,,,,,,,,,,,,,,,,,,,,,,,,,,,,,,,,,,,,,,,,,,,,,,,,,,,,,,,,,,,,,,,,,,,,,,,,,,,,,,,,
,,5c849a40a869d400179ab427,2024-02-18_21h16.31.911,kallum_motion_pilot,2023.2.2,Win32,59.88023952,5c849a40a869d400179ab427,65d2b6c8f2eece985d8e374c,65d2b9dff54f05027e23ca1d,0.037,0.037,0,39,39,5,1,threefour,,,,,,,,,,,,,,,,,,,,,,,,,,,,,,,,,,,,,,,,,,,,,,,,,,,,,,,,,,,,,,,,,,,,,,,,,,,,,,,,,,,,,,,,,,,,,,,,,,,,,,,,,,,,,,,,,,,,,,,,,,,,,,,,,,,,,,,,,
,,5c849a40a869d400179ab427,2024-02-18_21h16.31.911,kallum_motion_pilot,2023.2.2,Win32,59.88023952,5c849a40a869d400179ab427,65d2b6c8f2eece985d8e374c,65d2b9dff54f05027e23ca1d,0.038,0.038,0,40,40,151,1,eightseven,,,,,,,,,,,,,,,,,,,,,,,,,,,,,,,,,,,,,,,,,,,,,,,,,,,,,,,,,,,,,,,,,,,,,,,,,,,,,,,,,,,,,,,,,,,,,,,,,,,,,,,,,,,,,,,,,,,,,,,,,,,,,,,,,,,,,,,,,
,,5c849a40a869d400179ab427,2024-02-18_21h16.31.911,kallum_motion_pilot,2023.2.2,Win32,59.88023952,5c849a40a869d400179ab427,65d2b6c8f2eece985d8e374c,65d2b9dff54f05027e23ca1d,0.038,0.038,0,41,41,8,1,onetwo,,,,,,,,,,,,,,,,,,,,,,,,,,,,,,,,,,,,,,,,,,,,,,,,,,,,,,,,,,,,,,,,,,,,,,,,,,,,,,,,,,,,,,,,,,,,,,,,,,,,,,,,,,,,,,,,,,,,,,,,,,,,,,,,,,,,,,,,,
,,5c849a40a869d400179ab427,2024-02-18_21h16.31.911,kallum_motion_pilot,2023.2.2,Win32,59.88023952,5c849a40a869d400179ab427,65d2b6c8f2eece985d8e374c,65d2b9dff54f05027e23ca1d,0.038,0.038,0,42,42,132,1,sevenfive,,,,,,,,,,,,,,,,,,,,,,,,,,,,,,,,,,,,,,,,,,,,,,,,,,,,,,,,,,,,,,,,,,,,,,,,,,,,,,,,,,,,,,,,,,,,,,,,,,,,,,,,,,,,,,,,,,,,,,,,,,,,,,,,,,,,,,,,,
,,5c849a40a869d400179ab427,2024-02-18_21h16.31.911,kallum_motion_pilot,2023.2.2,Win32,59.88023952,5c849a40a869d400179ab427,65d2b6c8f2eece985d8e374c,65d2b9dff54f05027e23ca1d,0.038,0.038,0,43,43,28,1,threeone,,,,,,,,,,,,,,,,,,,,,,,,,,,,,,,,,,,,,,,,,,,,,,,,,,,,,,,,,,,,,,,,,,,,,,,,,,,,,,,,,,,,,,,,,,,,,,,,,,,,,,,,,,,,,,,,,,,,,,,,,,,,,,,,,,,,,,,,,
,,5c849a40a869d400179ab427,2024-02-18_21h16.31.911,kallum_motion_pilot,2023.2.2,Win32,59.88023952,5c849a40a869d400179ab427,65d2b6c8f2eece985d8e374c,65d2b9dff54f05027e23ca1d,0.038,0.038,0,44,44,47,1,fourthree,,,,,,,,,,,,,,,,,,,,,,,,,,,,,,,,,,,,,,,,,,,,,,,,,,,,,,,,,,,,,,,,,,,,,,,,,,,,,,,,,,,,,,,,,,,,,,,,,,,,,,,,,,,,,,,,,,,,,,,,,,,,,,,,,,,,,,,,,
,,5c849a40a869d400179ab427,2024-02-18_21h16.31.911,kallum_motion_pilot,2023.2.2,Win32,59.88023952,5c849a40a869d400179ab427,65d2b6c8f2eece985d8e374c,65d2b9dff54f05027e23ca1d,0.039,0.039,0,45,45,40,1,onetwo,,,,,,,,,,,,,,,,,,,,,,,,,,,,,,,,,,,,,,,,,,,,,,,,,,,,,,,,,,,,,,,,,,,,,,,,,,,,,,,,,,,,,,,,,,,,,,,,,,,,,,,,,,,,,,,,,,,,,,,,,,,,,,,,,,,,,,,,,
,,5c849a40a869d400179ab427,2024-02-18_21h16.31.911,kallum_motion_pilot,2023.2.2,Win32,59.88023952,5c849a40a869d400179ab427,65d2b6c8f2eece985d8e374c,65d2b9dff54f05027e23ca1d,0.039,0.039,0,46,46,38,1,fourtwo,,,,,,,,,,,,,,,,,,,,,,,,,,,,,,,,,,,,,,,,,,,,,,,,,,,,,,,,,,,,,,,,,,,,,,,,,,,,,,,,,,,,,,,,,,,,,,,,,,,,,,,,,,,,,,,,,,,,,,,,,,,,,,,,,,,,,,,,,
,,5c849a40a869d400179ab427,2024-02-18_21h16.31.911,kallum_motion_pilot,2023.2.2,Win32,59.88023952,5c849a40a869d400179ab427,65d2b6c8f2eece985d8e374c,65d2b9dff54f05027e23ca1d,0.039,0.039,0,47,47,129,1,fiveseven,,,,,,,,,,,,,,,,,,,,,,,,,,,,,,,,,,,,,,,,,,,,,,,,,,,,,,,,,,,,,,,,,,,,,,,,,,,,,,,,,,,,,,,,,,,,,,,,,,,,,,,,,,,,,,,,,,,,,,,,,,,,,,,,,,,,,,,,,
,,5c849a40a869d400179ab427,2024-02-18_21h16.31.911,kallum_motion_pilot,2023.2.2,Win32,59.88023952,5c849a40a869d400179ab427,65d2b6c8f2eece985d8e374c,65d2b9dff54f05027e23ca1d,0.039,0.039,0,48,48,56,1,onetwo,,,,,,,,,,,,,,,,,,,,,,,,,,,,,,,,,,,,,,,,,,,,,,,,,,,,,,,,,,,,,,,,,,,,,,,,,,,,,,,,,,,,,,,,,,,,,,,,,,,,,,,,,,,,,,,,,,,,,,,,,,,,,,,,,,,,,,,,,
,,5c849a40a869d400179ab427,2024-02-18_21h16.31.911,kallum_motion_pilot,2023.2.2,Win32,59.88023952,5c849a40a869d400179ab427,65d2b6c8f2eece985d8e374c,65d2b9dff54f05027e23ca1d,0.039,0.039,0,49,49,85,1,seveneight,,,,,,,,,,,,,,,,,,,,,,,,,,,,,,,,,,,,,,,,,,,,,,,,,,,,,,,,,,,,,,,,,,,,,,,,,,,,,,,,,,,,,,,,,,,,,,,,,,,,,,,,,,,,,,,,,,,,,,,,,,,,,,,,,,,,,,,,,
,,5c849a40a869d400179ab427,2024-02-18_21h16.31.911,kallum_motion_pilot,2023.2.2,Win32,59.88023952,5c849a40a869d400179ab427,65d2b6c8f2eece985d8e374c,65d2b9dff54f05027e23ca1d,0.04,0.04,0,50,50,65,1,onethree,,,,,,,,,,,,,,,,,,,,,,,,,,,,,,,,,,,,,,,,,,,,,,,,,,,,,,,,,,,,,,,,,,,,,,,,,,,,,,,,,,,,,,,,,,,,,,,,,,,,,,,,,,,,,,,,,,,,,,,,,,,,,,,,,,,,,,,,,
,,5c849a40a869d400179ab427,2024-02-18_21h16.31.911,kallum_motion_pilot,2023.2.2,Win32,59.88023952,5c849a40a869d400179ab427,65d2b6c8f2eece985d8e374c,65d2b9dff54f05027e23ca1d,0.04,0.04,0,51,51,115,1,sixeight,,,,,,,,,,,,,,,,,,,,,,,,,,,,,,,,,,,,,,,,,,,,,,,,,,,,,,,,,,,,,,,,,,,,,,,,,,,,,,,,,,,,,,,,,,,,,,,,,,,,,,,,,,,,,,,,,,,,,,,,,,,,,,,,,,,,,,,,,
,,5c849a40a869d400179ab427,2024-02-18_21h16.31.911,kallum_motion_pilot,2023.2.2,Win32,59.88023952,5c849a40a869d400179ab427,65d2b6c8f2eece985d8e374c,65d2b9dff54f05027e23ca1d,0.04,0.04,0,52,52,134,1,eightsix,,,,,,,,,,,,,,,,,,,,,,,,,,,,,,,,,,,,,,,,,,,,,,,,,,,,,,,,,,,,,,,,,,,,,,,,,,,,,,,,,,,,,,,,,,,,,,,,,,,,,,,,,,,,,,,,,,,,,,,,,,,,,,,,,,,,,,,,,
,,5c849a40a869d400179ab427,2024-02-18_21h16.31.911,kallum_motion_pilot,2023.2.2,Win32,59.88023952,5c849a40a869d400179ab427,65d2b6c8f2eece985d8e374c,65d2b9dff54f05027e23ca1d,0.04,0.04,0,53,53,159,1,eightseven,,,,,,,,,,,,,,,,,,,,,,,,,,,,,,,,,,,,,,,,,,,,,,,,,,,,,,,,,,,,,,,,,,,,,,,,,,,,,,,,,,,,,,,,,,,,,,,,,,,,,,,,,,,,,,,,,,,,,,,,,,,,,,,,,,,,,,,,,
,,5c849a40a869d400179ab427,2024-02-18_21h16.31.911,kallum_motion_pilot,2023.2.2,Win32,59.88023952,5c849a40a869d400179ab427,65d2b6c8f2eece985d8e374c,65d2b9dff54f05027e23ca1d,0.04,0.04,0,54,54,152,1,fivesix,,,,,,,,,,,,,,,,,,,,,,,,,,,,,,,,,,,,,,,,,,,,,,,,,,,,,,,,,,,,,,,,,,,,,,,,,,,,,,,,,,,,,,,,,,,,,,,,,,,,,,,,,,,,,,,,,,,,,,,,,,,,,,,,,,,,,,,,,
,,5c849a40a869d400179ab427,2024-02-18_21h16.31.911,kallum_motion_pilot,2023.2.2,Win32,59.88023952,5c849a40a869d400179ab427,65d2b6c8f2eece985d8e374c,65d2b9dff54f05027e23ca1d,0.04,0.04,0,55,55,98,1,sixfive,,,,,,,,,,,,,,,,,,,,,,,,,,,,,,,,,,,,,,,,,,,,,,,,,,,,,,,,,,,,,,,,,,,,,,,,,,,,,,,,,,,,,,,,,,,,,,,,,,,,,,,,,,,,,,,,,,,,,,,,,,,,,,,,,,,,,,,,,
,,5c849a40a869d400179ab427,2024-02-18_21h16.31.911,kallum_motion_pilot,2023.2.2,Win32,59.88023952,5c849a40a869d400179ab427,65d2b6c8f2eece985d8e374c,65d2b9dff54f05027e23ca1d,0.04,0.04,0,56,56,19,1,twofour,,,,,,,,,,,,,,,,,,,,,,,,,,,,,,,,,,,,,,,,,,,,,,,,,,,,,,,,,,,,,,,,,,,,,,,,,,,,,,,,,,,,,,,,,,,,,,,,,,,,,,,,,,,,,,,,,,,,,,,,,,,,,,,,,,,,,,,,,
,,5c849a40a869d400179ab427,2024-02-18_21h16.31.911,kallum_motion_pilot,2023.2.2,Win32,59.88023952,5c849a40a869d400179ab427,65d2b6c8f2eece985d8e374c,65d2b9dff54f05027e23ca1d,0.04,0.04,0,57,57,128,1,fivesix,,,,,,,,,,,,,,,,,,,,,,,,,,,,,,,,,,,,,,,,,,,,,,,,,,,,,,,,,,,,,,,,,,,,,,,,,,,,,,,,,,,,,,,,,,,,,,,,,,,,,,,,,,,,,,,,,,,,,,,,,,,,,,,,,,,,,,,,,
,,5c849a40a869d400179ab427,2024-02-18_21h16.31.911,kallum_motion_pilot,2023.2.2,Win32,59.88023952,5c849a40a869d400179ab427,65d2b6c8f2eece985d8e374c,65d2b9dff54f05027e23ca1d,0.04,0.04,0,58,58,119,1,eightseven,,,,,,,,,,,,,,,,,,,,,,,,,,,,,,,,,,,,,,,,,,,,,,,,,,,,,,,,,,,,,,,,,,,,,,,,,,,,,,,,,,,,,,,,,,,,,,,,,,,,,,,,,,,,,,,,,,,,,,,,,,,,,,,,,,,,,,,,,
,,5c849a40a869d400179ab427,2024-02-18_21h16.31.911,kallum_motion_pilot,2023.2.2,Win32,59.88023952,5c849a40a869d400179ab427,65d2b6c8f2eece985d8e374c,65d2b9dff54f05027e23ca1d,0.041,0.041,0,59,59,125,1,seveneight,,,,,,,,,,,,,,,,,,,,,,,,,,,,,,,,,,,,,,,,,,,,,,,,,,,,,,,,,,,,,,,,,,,,,,,,,,,,,,,,,,,,,,,,,,,,,,,,,,,,,,,,,,,,,,,,,,,,,,,,,,,,,,,,,,,,,,,,,
,,5c849a40a869d400179ab427,2024-02-18_21h16.31.911,kallum_motion_pilot,2023.2.2,Win32,59.88023952,5c849a40a869d400179ab427,65d2b6c8f2eece985d8e374c,65d2b9dff54f05027e23ca1d,0.041,0.041,0,60,60,148,1,sevenfive,,,,,,,,,,,,,,,,,,,,,,,,,,,,,,,,,,,,,,,,,,,,,,,,,,,,,,,,,,,,,,,,,,,,,,,,,,,,,,,,,,,,,,,,,,,,,,,,,,,,,,,,,,,,,,,,,,,,,,,,,,,,,,,,,,,,,,,,,
,,5c849a40a869d400179ab427,2024-02-18_21h16.31.911,kallum_motion_pilot,2023.2.2,Win32,59.88023952,5c849a40a869d400179ab427,65d2b6c8f2eece985d8e374c,65d2b9dff54f05027e23ca1d,0.041,0.041,0,61,61,139,1,sixeight,,,,,,,,,,,,,,,,,,,,,,,,,,,,,,,,,,,,,,,,,,,,,,,,,,,,,,,,,,,,,,,,,,,,,,,,,,,,,,,,,,,,,,,,,,,,,,,,,,,,,,,,,,,,,,,,,,,,,,,,,,,,,,,,,,,,,,,,,
,,5c849a40a869d400179ab427,2024-02-18_21h16.31.911,kallum_motion_pilot,2023.2.2,Win32,59.88023952,5c849a40a869d400179ab427,65d2b6c8f2eece985d8e374c,65d2b9dff54f05027e23ca1d,0.041,0.041,0,62,62,59,1,twofour,,,,,,,,,,,,,,,,,,,,,,,,,,,,,,,,,,,,,,,,,,,,,,,,,,,,,,,,,,,,,,,,,,,,,,,,,,,,,,,,,,,,,,,,,,,,,,,,,,,,,,,,,,,,,,,,,,,,,,,,,,,,,,,,,,,,,,,,,
,,5c849a40a869d400179ab427,2024-02-18_21h16.31.911,kallum_motion_pilot,2023.2.2,Win32,59.88023952,5c849a40a869d400179ab427,65d2b6c8f2eece985d8e374c,65d2b9dff54f05027e23ca1d,0.041,0.041,0,63,63,49,1,onethree,,,,,,,,,,,,,,,,,,,,,,,,,,,,,,,,,,,,,,,,,,,,,,,,,,,,,,,,,,,,,,,,,,,,,,,,,,,,,,,,,,,,,,,,,,,,,,,,,,,,,,,,,,,,,,,,,,,,,,,,,,,,,,,,,,,,,,,,,
,,5c849a40a869d400179ab427,2024-02-18_21h16.31.911,kallum_motion_pilot,2023.2.2,Win32,59.88023952,5c849a40a869d400179ab427,65d2b6c8f2eece985d8e374c,65d2b9dff54f05027e23ca1d,0.041,0.041,0,64,64,155,1,sixeight,,,,,,,,,,,,,,,,,,,,,,,,,,,,,,,,,,,,,,,,,,,,,,,,,,,,,,,,,,,,,,,,,,,,,,,,,,,,,,,,,,,,,,,,,,,,,,,,,,,,,,,,,,,,,,,,,,,,,,,,,,,,,,,,,,,,,,,,,
,,5c849a40a869d400179ab427,2024-02-18_21h16.31.911,kallum_motion_pilot,2023.2.2,Win32,59.88023952,5c849a40a869d400179ab427,65d2b6c8f2eece985d8e374c,65d2b9dff54f05027e23ca1d,0.041,0.041,0,65,65,13,1,threefour,,,,,,,,,,,,,,,,,,,,,,,,,,,,,,,,,,,,,,,,,,,,,,,,,,,,,,,,,,,,,,,,,,,,,,,,,,,,,,,,,,,,,,,,,,,,,,,,,,,,,,,,,,,,,,,,,,,,,,,,,,,,,,,,,,,,,,,,,
,,5c849a40a869d400179ab427,2024-02-18_21h16.31.911,kallum_motion_pilot,2023.2.2,Win32,59.88023952,5c849a40a869d400179ab427,65d2b6c8f2eece985d8e374c,65d2b9dff54f05027e23ca1d,0.041,0.041,0,66,66,142,1,eightsix,,,,,,,,,,,,,,,,,,,,,,,,,,,,,,,,,,,,,,,,,,,,,,,,,,,,,,,,,,,,,,,,,,,,,,,,,,,,,,,,,,,,,,,,,,,,,,,,,,,,,,,,,,,,,,,,,,,,,,,,,,,,,,,,,,,,,,,,,
,,5c849a40a869d400179ab427,2024-02-18_21h16.31.911,kallum_motion_pilot,2023.2.2,Win32,59.88023952,5c849a40a869d400179ab427,65d2b6c8f2eece985d8e374c,65d2b9dff54f05027e23ca1d,0.041,0.041,0,67,67,21,1,threefour,,,,,,,,,,,,,,,,,,,,,,,,,,,,,,,,,,,,,,,,,,,,,,,,,,,,,,,,,,,,,,,,,,,,,,,,,,,,,,,,,,,,,,,,,,,,,,,,,,,,,,,,,,,,,,,,,,,,,,,,,,,,,,,,,,,,,,,,,
,,5c849a40a869d400179ab427,2024-02-18_21h16.31.911,kallum_motion_pilot,2023.2.2,Win32,59.88023952,5c849a40a869d400179ab427,65d2b6c8f2eece985d8e374c,65d2b9dff54f05027e23ca1d,0.042,0.042,0,68,68,97,1,fiveseven,,,,,,,,,,,,,,,,,,,,,,,,,,,,,,,,,,,,,,,,,,,,,,,,,,,,,,,,,,,,,,,,,,,,,,,,,,,,,,,,,,,,,,,,,,,,,,,,,,,,,,,,,,,,,,,,,,,,,,,,,,,,,,,,,,,,,,,,,
,,5c849a40a869d400179ab427,2024-02-18_21h16.31.911,kallum_motion_pilot,2023.2.2,Win32,59.88023952,5c849a40a869d400179ab427,65d2b6c8f2eece985d8e374c,65d2b9dff54f05027e23ca1d,0.042,0.042,0,69,69,99,1,sixeight,,,,,,,,,,,,,,,,,,,,,,,,,,,,,,,,,,,,,,,,,,,,,,,,,,,,,,,,,,,,,,,,,,,,,,,,,,,,,,,,,,,,,,,,,,,,,,,,,,,,,,,,,,,,,,,,,,,,,,,,,,,,,,,,,,,,,,,,,
,,5c849a40a869d400179ab427,2024-02-18_21h16.31.911,kallum_motion_pilot,2023.2.2,Win32,59.88023952,5c849a40a869d400179ab427,65d2b6c8f2eece985d8e374c,65d2b9dff54f05027e23ca1d,0.042,0.042,0,70,70,136,1,fivesix,,,,,,,,,,,,,,,,,,,,,,,,,,,,,,,,,,,,,,,,,,,,,,,,,,,,,,,,,,,,,,,,,,,,,,,,,,,,,,,,,,,,,,,,,,,,,,,,,,,,,,,,,,,,,,,,,,,,,,,,,,,,,,,,,,,,,,,,,
,,5c849a40a869d400179ab427,2024-02-18_21h16.31.911,kallum_motion_pilot,2023.2.2,Win32,59.88023952,5c849a40a869d400179ab427,65d2b6c8f2eece985d8e374c,65d2b9dff54f05027e23ca1d,0.042,0.042,0,71,71,15,1,fourthree,,,,,,,,,,,,,,,,,,,,,,,,,,,,,,,,,,,,,,,,,,,,,,,,,,,,,,,,,,,,,,,,,,,,,,,,,,,,,,,,,,,,,,,,,,,,,,,,,,,,,,,,,,,,,,,,,,,,,,,,,,,,,,,,,,,,,,,,,
,,5c849a40a869d400179ab427,2024-02-18_21h16.31.911,kallum_motion_pilot,2023.2.2,Win32,59.88023952,5c849a40a869d400179ab427,65d2b6c8f2eece985d8e374c,65d2b9dff54f05027e23ca1d,0.043,0.043,0,72,72,112,1,fivesix,,,,,,,,,,,,,,,,,,,,,,,,,,,,,,,,,,,,,,,,,,,,,,,,,,,,,,,,,,,,,,,,,,,,,,,,,,,,,,,,,,,,,,,,,,,,,,,,,,,,,,,,,,,,,,,,,,,,,,,,,,,,,,,,,,,,,,,,,
,,5c849a40a869d400179ab427,2024-02-18_21h16.31.911,kallum_motion_pilot,2023.2.2,Win32,59.88023952,5c849a40a869d400179ab427,65d2b6c8f2eece985d8e374c,65d2b9dff54f05027e23ca1d,0.043,0.043,0,73,73,11,1,twofour,,,,,,,,,,,,,,,,,,,,,,,,,,,,,,,,,,,,,,,,,,,,,,,,,,,,,,,,,,,,,,,,,,,,,,,,,,,,,,,,,,,,,,,,,,,,,,,,,,,,,,,,,,,,,,,,,,,,,,,,,,,,,,,,,,,,,,,,,
,,5c849a40a869d400179ab427,2024-02-18_21h16.31.911,kallum_motion_pilot,2023.2.2,Win32,59.88023952,5c849a40a869d400179ab427,65d2b6c8f2eece985d8e374c,65d2b9dff54f05027e23ca1d,0.043,0.043,0,74,74,108,1,sevenfive,,,,,,,,,,,,,,,,,,,,,,,,,,,,,,,,,,,,,,,,,,,,,,,,,,,,,,,,,,,,,,,,,,,,,,,,,,,,,,,,,,,,,,,,,,,,,,,,,,,,,,,,,,,,,,,,,,,,,,,,,,,,,,,,,,,,,,,,,
,,5c849a40a869d400179ab427,2024-02-18_21h16.31.911,kallum_motion_pilot,2023.2.2,Win32,59.88023952,5c849a40a869d400179ab427,65d2b6c8f2eece985d8e374c,65d2b9dff54f05027e23ca1d,0.043,0.043,0,75,75,83,1,sixeight,,,,,,,,,,,,,,,,,,,,,,,,,,,,,,,,,,,,,,,,,,,,,,,,,,,,,,,,,,,,,,,,,,,,,,,,,,,,,,,,,,,,,,,,,,,,,,,,,,,,,,,,,,,,,,,,,,,,,,,,,,,,,,,,,,,,,,,,,
,,5c849a40a869d400179ab427,2024-02-18_21h16.31.911,kallum_motion_pilot,2023.2.2,Win32,59.88023952,5c849a40a869d400179ab427,65d2b6c8f2eece985d8e374c,65d2b9dff54f05027e23ca1d,0.044,0.044,0,76,76,51,1,twofour,,,,,,,,,,,,,,,,,,,,,,,,,,,,,,,,,,,,,,,,,,,,,,,,,,,,,,,,,,,,,,,,,,,,,,,,,,,,,,,,,,,,,,,,,,,,,,,,,,,,,,,,,,,,,,,,,,,,,,,,,,,,,,,,,,,,,,,,,
,,5c849a40a869d400179ab427,2024-02-18_21h16.31.911,kallum_motion_pilot,2023.2.2,Win32,59.88023952,5c849a40a869d400179ab427,65d2b6c8f2eece985d8e374c,65d2b9dff54f05027e23ca1d,0.044,0.044,0,77,77,18,1,twoone,,,,,,,,,,,,,,,,,,,,,,,,,,,,,,,,,,,,,,,,,,,,,,,,,,,,,,,,,,,,,,,,,,,,,,,,,,,,,,,,,,,,,,,,,,,,,,,,,,,,,,,,,,,,,,,,,,,,,,,,,,,,,,,,,,,,,,,,,
,,5c849a40a869d400179ab427,2024-02-18_21h16.31.911,kallum_motion_pilot,2023.2.2,Win32,59.88023952,5c849a40a869d400179ab427,65d2b6c8f2eece985d8e374c,65d2b9dff54f05027e23ca1d,0.044,0.044,0,78,78,137,1,fiveseven,,,,,,,,,,,,,,,,,,,,,,,,,,,,,,,,,,,,,,,,,,,,,,,,,,,,,,,,,,,,,,,,,,,,,,,,,,,,,,,,,,,,,,,,,,,,,,,,,,,,,,,,,,,,,,,,,,,,,,,,,,,,,,,,,,,,,,,,,
,,5c849a40a869d400179ab427,2024-02-18_21h16.31.911,kallum_motion_pilot,2023.2.2,Win32,59.88023952,5c849a40a869d400179ab427,65d2b6c8f2eece985d8e374c,65d2b9dff54f05027e23ca1d,0.044,0.044,0,79,79,141,1,seveneight,,,,,,,,,,,,,,,,,,,,,,,,,,,,,,,,,,,,,,,,,,,,,,,,,,,,,,,,,,,,,,,,,,,,,,,,,,,,,,,,,,,,,,,,,,,,,,,,,,,,,,,,,,,,,,,,,,,,,,,,,,,,,,,,,,,,,,,,,
,,5c849a40a869d400179ab427,2024-02-18_21h16.31.911,kallum_motion_pilot,2023.2.2,Win32,59.88023952,5c849a40a869d400179ab427,65d2b6c8f2eece985d8e374c,65d2b9dff54f05027e23ca1d,0.044,0.044,0,80,80,92,1,sevenfive,,,,,,,,,,,,,,,,,,,,,,,,,,,,,,,,,,,,,,,,,,,,,,,,,,,,,,,,,,,,,,,,,,,,,,,,,,,,,,,,,,,,,,,,,,,,,,,,,,,,,,,,,,,,,,,,,,,,,,,,,,,,,,,,,,,,,,,,,
,,5c849a40a869d400179ab427,2024-02-18_21h16.31.911,kallum_motion_pilot,2023.2.2,Win32,59.88023952,5c849a40a869d400179ab427,65d2b6c8f2eece985d8e374c,65d2b9dff54f05027e23ca1d,0.045,0.045,0,81,81,158,1,eightsix,,,,,,,,,,,,,,,,,,,,,,,,,,,,,,,,,,,,,,,,,,,,,,,,,,,,,,,,,,,,,,,,,,,,,,,,,,,,,,,,,,,,,,,,,,,,,,,,,,,,,,,,,,,,,,,,,,,,,,,,,,,,,,,,,,,,,,,,,
,,5c849a40a869d400179ab427,2024-02-18_21h16.31.911,kallum_motion_pilot,2023.2.2,Win32,59.88023952,5c849a40a869d400179ab427,65d2b6c8f2eece985d8e374c,65d2b9dff54f05027e23ca1d,0.045,0.045,0,82,82,146,1,sixfive,,,,,,,,,,,,,,,,,,,,,,,,,,,,,,,,,,,,,,,,,,,,,,,,,,,,,,,,,,,,,,,,,,,,,,,,,,,,,,,,,,,,,,,,,,,,,,,,,,,,,,,,,,,,,,,,,,,,,,,,,,,,,,,,,,,,,,,,,
,,5c849a40a869d400179ab427,2024-02-18_21h16.31.911,kallum_motion_pilot,2023.2.2,Win32,59.88023952,5c849a40a869d400179ab427,65d2b6c8f2eece985d8e374c,65d2b9dff54f05027e23ca1d,0.045,0.045,0,83,83,22,1,fourtwo,,,,,,,,,,,,,,,,,,,,,,,,,,,,,,,,,,,,,,,,,,,,,,,,,,,,,,,,,,,,,,,,,,,,,,,,,,,,,,,,,,,,,,,,,,,,,,,,,,,,,,,,,,,,,,,,,,,,,,,,,,,,,,,,,,,,,,,,,
,,5c849a40a869d400179ab427,2024-02-18_21h16.31.911,kallum_motion_pilot,2023.2.2,Win32,59.88023952,5c849a40a869d400179ab427,65d2b6c8f2eece985d8e374c,65d2b9dff54f05027e23ca1d,0.045,0.045,0,84,84,62,1,fourtwo,,,,,,,,,,,,,,,,,,,,,,,,,,,,,,,,,,,,,,,,,,,,,,,,,,,,,,,,,,,,,,,,,,,,,,,,,,,,,,,,,,,,,,,,,,,,,,,,,,,,,,,,,,,,,,,,,,,,,,,,,,,,,,,,,,,,,,,,,
,,5c849a40a869d400179ab427,2024-02-18_21h16.31.911,kallum_motion_pilot,2023.2.2,Win32,59.88023952,5c849a40a869d400179ab427,65d2b6c8f2eece985d8e374c,65d2b9dff54f05027e23ca1d,0.045,0.045,0,85,85,1,1,onethree,,,,,,,,,,,,,,,,,,,,,,,,,,,,,,,,,,,,,,,,,,,,,,,,,,,,,,,,,,,,,,,,,,,,,,,,,,,,,,,,,,,,,,,,,,,,,,,,,,,,,,,,,,,,,,,,,,,,,,,,,,,,,,,,,,,,,,,,,
,,5c849a40a869d400179ab427,2024-02-18_21h16.31.911,kallum_motion_pilot,2023.2.2,Win32,59.88023952,5c849a40a869d400179ab427,65d2b6c8f2eece985d8e374c,65d2b9dff54f05027e23ca1d,0.045,0.045,0,86,86,106,1,sixfive,,,,,,,,,,,,,,,,,,,,,,,,,,,,,,,,,,,,,,,,,,,,,,,,,,,,,,,,,,,,,,,,,,,,,,,,,,,,,,,,,,,,,,,,,,,,,,,,,,,,,,,,,,,,,,,,,,,,,,,,,,,,,,,,,,,,,,,,,
,,5c849a40a869d400179ab427,2024-02-18_21h16.31.911,kallum_motion_pilot,2023.2.2,Win32,59.88023952,5c849a40a869d400179ab427,65d2b6c8f2eece985d8e374c,65d2b9dff54f05027e23ca1d,0.045,0.045,0,87,87,71,1,fourthree,,,,,,,,,,,,,,,,,,,,,,,,,,,,,,,,,,,,,,,,,,,,,,,,,,,,,,,,,,,,,,,,,,,,,,,,,,,,,,,,,,,,,,,,,,,,,,,,,,,,,,,,,,,,,,,,,,,,,,,,,,,,,,,,,,,,,,,,,
,,5c849a40a869d400179ab427,2024-02-18_21h16.31.911,kallum_motion_pilot,2023.2.2,Win32,59.88023952,5c849a40a869d400179ab427,65d2b6c8f2eece985d8e374c,65d2b9dff54f05027e23ca1d,0.046,0.046,0,88,88,14,1,fourtwo,,,,,,,,,,,,,,,,,,,,,,,,,,,,,,,,,,,,,,,,,,,,,,,,,,,,,,,,,,,,,,,,,,,,,,,,,,,,,,,,,,,,,,,,,,,,,,,,,,,,,,,,,,,,,,,,,,,,,,,,,,,,,,,,,,,,,,,,,
,,5c849a40a869d400179ab427,2024-02-18_21h16.31.911,kallum_motion_pilot,2023.2.2,Win32,59.88023952,5c849a40a869d400179ab427,65d2b6c8f2eece985d8e374c,65d2b9dff54f05027e23ca1d,0.046,0.046,0,89,89,44,1,threeone,,,,,,,,,,,,,,,,,,,,,,,,,,,,,,,,,,,,,,,,,,,,,,,,,,,,,,,,,,,,,,,,,,,,,,,,,,,,,,,,,,,,,,,,,,,,,,,,,,,,,,,,,,,,,,,,,,,,,,,,,,,,,,,,,,,,,,,,,
,,5c849a40a869d400179ab427,2024-02-18_21h16.31.911,kallum_motion_pilot,2023.2.2,Win32,59.88023952,5c849a40a869d400179ab427,65d2b6c8f2eece985d8e374c,65d2b9dff54f05027e23ca1d,0.046,0.046,0,90,90,122,1,sixfive,,,,,,,,,,,,,,,,,,,,,,,,,,,,,,,,,,,,,,,,,,,,,,,,,,,,,,,,,,,,,,,,,,,,,,,,,,,,,,,,,,,,,,,,,,,,,,,,,,,,,,,,,,,,,,,,,,,,,,,,,,,,,,,,,,,,,,,,,
,,5c849a40a869d400179ab427,2024-02-18_21h16.31.911,kallum_motion_pilot,2023.2.2,Win32,59.88023952,5c849a40a869d400179ab427,65d2b6c8f2eece985d8e374c,65d2b9dff54f05027e23ca1d,0.046,0.046,0,91,91,87,1,eightseven,,,,,,,,,,,,,,,,,,,,,,,,,,,,,,,,,,,,,,,,,,,,,,,,,,,,,,,,,,,,,,,,,,,,,,,,,,,,,,,,,,,,,,,,,,,,,,,,,,,,,,,,,,,,,,,,,,,,,,,,,,,,,,,,,,,,,,,,,
,,5c849a40a869d400179ab427,2024-02-18_21h16.31.911,kallum_motion_pilot,2023.2.2,Win32,59.88023952,5c849a40a869d400179ab427,65d2b6c8f2eece985d8e374c,65d2b9dff54f05027e23ca1d,0.046,0.046,0,92,92,127,1,eightseven,,,,,,,,,,,,,,,,,,,,,,,,,,,,,,,,,,,,,,,,,,,,,,,,,,,,,,,,,,,,,,,,,,,,,,,,,,,,,,,,,,,,,,,,,,,,,,,,,,,,,,,,,,,,,,,,,,,,,,,,,,,,,,,,,,,,,,,,,
,,5c849a40a869d400179ab427,2024-02-18_21h16.31.911,kallum_motion_pilot,2023.2.2,Win32,59.88023952,5c849a40a869d400179ab427,65d2b6c8f2eece985d8e374c,65d2b9dff54f05027e23ca1d,0.046,0.046,0,93,93,124,1,sevenfive,,,,,,,,,,,,,,,,,,,,,,,,,,,,,,,,,,,,,,,,,,,,,,,,,,,,,,,,,,,,,,,,,,,,,,,,,,,,,,,,,,,,,,,,,,,,,,,,,,,,,,,,,,,,,,,,,,,,,,,,,,,,,,,,,,,,,,,,,
,,5c849a40a869d400179ab427,2024-02-18_21h16.31.911,kallum_motion_pilot,2023.2.2,Win32,59.88023952,5c849a40a869d400179ab427,65d2b6c8f2eece985d8e374c,65d2b9dff54f05027e23ca1d,0.046,0.046,0,94,94,135,1,eightseven,,,,,,,,,,,,,,,,,,,,,,,,,,,,,,,,,,,,,,,,,,,,,,,,,,,,,,,,,,,,,,,,,,,,,,,,,,,,,,,,,,,,,,,,,,,,,,,,,,,,,,,,,,,,,,,,,,,,,,,,,,,,,,,,,,,,,,,,,
,,5c849a40a869d400179ab427,2024-02-18_21h16.31.911,kallum_motion_pilot,2023.2.2,Win32,59.88023952,5c849a40a869d400179ab427,65d2b6c8f2eece985d8e374c,65d2b9dff54f05027e23ca1d,0.046,0.046,0,95,95,48,1,onetwo,,,,,,,,,,,,,,,,,,,,,,,,,,,,,,,,,,,,,,,,,,,,,,,,,,,,,,,,,,,,,,,,,,,,,,,,,,,,,,,,,,,,,,,,,,,,,,,,,,,,,,,,,,,,,,,,,,,,,,,,,,,,,,,,,,,,,,,,,
,,5c849a40a869d400179ab427,2024-02-18_21h16.31.911,kallum_motion_pilot,2023.2.2,Win32,59.88023952,5c849a40a869d400179ab427,65d2b6c8f2eece985d8e374c,65d2b9dff54f05027e23ca1d,0.046,0.046,0,96,96,116,1,sevenfive,,,,,,,,,,,,,,,,,,,,,,,,,,,,,,,,,,,,,,,,,,,,,,,,,,,,,,,,,,,,,,,,,,,,,,,,,,,,,,,,,,,,,,,,,,,,,,,,,,,,,,,,,,,,,,,,,,,,,,,,,,,,,,,,,,,,,,,,,
,,5c849a40a869d400179ab427,2024-02-18_21h16.31.911,kallum_motion_pilot,2023.2.2,Win32,59.88023952,5c849a40a869d400179ab427,65d2b6c8f2eece985d8e374c,65d2b9dff54f05027e23ca1d,0.046,0.047,0,97,97,107,1,sixeight,,,,,,,,,,,,,,,,,,,,,,,,,,,,,,,,,,,,,,,,,,,,,,,,,,,,,,,,,,,,,,,,,,,,,,,,,,,,,,,,,,,,,,,,,,,,,,,,,,,,,,,,,,,,,,,,,,,,,,,,,,,,,,,,,,,,,,,,,
,,5c849a40a869d400179ab427,2024-02-18_21h16.31.911,kallum_motion_pilot,2023.2.2,Win32,59.88023952,5c849a40a869d400179ab427,65d2b6c8f2eece985d8e374c,65d2b9dff54f05027e23ca1d,0.047,0.047,0,98,98,91,1,sixeight,,,,,,,,,,,,,,,,,,,,,,,,,,,,,,,,,,,,,,,,,,,,,,,,,,,,,,,,,,,,,,,,,,,,,,,,,,,,,,,,,,,,,,,,,,,,,,,,,,,,,,,,,,,,,,,,,,,,,,,,,,,,,,,,,,,,,,,,,
,,5c849a40a869d400179ab427,2024-02-18_21h16.31.911,kallum_motion_pilot,2023.2.2,Win32,59.88023952,5c849a40a869d400179ab427,65d2b6c8f2eece985d8e374c,65d2b9dff54f05027e23ca1d,0.047,0.047,0,99,99,147,1,sixeight,,,,,,,,,,,,,,,,,,,,,,,,,,,,,,,,,,,,,,,,,,,,,,,,,,,,,,,,,,,,,,,,,,,,,,,,,,,,,,,,,,,,,,,,,,,,,,,,,,,,,,,,,,,,,,,,,,,,,,,,,,,,,,,,,,,,,,,,,
,,5c849a40a869d400179ab427,2024-02-18_21h16.31.911,kallum_motion_pilot,2023.2.2,Win32,59.88023952,5c849a40a869d400179ab427,65d2b6c8f2eece985d8e374c,65d2b9dff54f05027e23ca1d,0.047,0.047,0,100,100,73,1,onethree,,,,,,,,,,,,,,,,,,,,,,,,,,,,,,,,,,,,,,,,,,,,,,,,,,,,,,,,,,,,,,,,,,,,,,,,,,,,,,,,,,,,,,,,,,,,,,,,,,,,,,,,,,,,,,,,,,,,,,,,,,,,,,,,,,,,,,,,,
,,5c849a40a869d400179ab427,2024-02-18_21h16.31.911,kallum_motion_pilot,2023.2.2,Win32,59.88023952,5c849a40a869d400179ab427,65d2b6c8f2eece985d8e374c,65d2b9dff54f05027e23ca1d,0.047,0.047,0,101,101,9,1,onethree,,,,,,,,,,,,,,,,,,,,,,,,,,,,,,,,,,,,,,,,,,,,,,,,,,,,,,,,,,,,,,,,,,,,,,,,,,,,,,,,,,,,,,,,,,,,,,,,,,,,,,,,,,,,,,,,,,,,,,,,,,,,,,,,,,,,,,,,,
,,5c849a40a869d400179ab427,2024-02-18_21h16.31.911,kallum_motion_pilot,2023.2.2,Win32,59.88023952,5c849a40a869d400179ab427,65d2b6c8f2eece985d8e374c,65d2b9dff54f05027e23ca1d,0.047,0.047,0,102,102,74,1,twoone,,,,,,,,,,,,,,,,,,,,,,,,,,,,,,,,,,,,,,,,,,,,,,,,,,,,,,,,,,,,,,,,,,,,,,,,,,,,,,,,,,,,,,,,,,,,,,,,,,,,,,,,,,,,,,,,,,,,,,,,,,,,,,,,,,,,,,,,,
,,5c849a40a869d400179ab427,2024-02-18_21h16.31.911,kallum_motion_pilot,2023.2.2,Win32,59.88023952,5c849a40a869d400179ab427,65d2b6c8f2eece985d8e374c,65d2b9dff54f05027e23ca1d,0.047,0.047,0,103,103,109,1,seveneight,,,,,,,,,,,,,,,,,,,,,,,,,,,,,,,,,,,,,,,,,,,,,,,,,,,,,,,,,,,,,,,,,,,,,,,,,,,,,,,,,,,,,,,,,,,,,,,,,,,,,,,,,,,,,,,,,,,,,,,,,,,,,,,,,,,,,,,,,
,,5c849a40a869d400179ab427,2024-02-18_21h16.31.911,kallum_motion_pilot,2023.2.2,Win32,59.88023952,5c849a40a869d400179ab427,65d2b6c8f2eece985d8e374c,65d2b9dff54f05027e23ca1d,0.047,0.047,0,104,104,24,1,onetwo,,,,,,,,,,,,,,,,,,,,,,,,,,,,,,,,,,,,,,,,,,,,,,,,,,,,,,,,,,,,,,,,,,,,,,,,,,,,,,,,,,,,,,,,,,,,,,,,,,,,,,,,,,,,,,,,,,,,,,,,,,,,,,,,,,,,,,,,,
,,5c849a40a869d400179ab427,2024-02-18_21h16.31.911,kallum_motion_pilot,2023.2.2,Win32,59.88023952,5c849a40a869d400179ab427,65d2b6c8f2eece985d8e374c,65d2b9dff54f05027e23ca1d,0.048,0.048,0,105,105,39,1,fourthree,,,,,,,,,,,,,,,,,,,,,,,,,,,,,,,,,,,,,,,,,,,,,,,,,,,,,,,,,,,,,,,,,,,,,,,,,,,,,,,,,,,,,,,,,,,,,,,,,,,,,,,,,,,,,,,,,,,,,,,,,,,,,,,,,,,,,,,,,
,,5c849a40a869d400179ab427,2024-02-18_21h16.31.911,kallum_motion_pilot,2023.2.2,Win32,59.88023952,5c849a40a869d400179ab427,65d2b6c8f2eece985d8e374c,65d2b9dff54f05027e23ca1d,0.048,0.048,0,106,106,121,1,fiveseven,,,,,,,,,,,,,,,,,,,,,,,,,,,,,,,,,,,,,,,,,,,,,,,,,,,,,,,,,,,,,,,,,,,,,,,,,,,,,,,,,,,,,,,,,,,,,,,,,,,,,,,,,,,,,,,,,,,,,,,,,,,,,,,,,,,,,,,,,
,,5c849a40a869d400179ab427,2024-02-18_21h16.31.911,kallum_motion_pilot,2023.2.2,Win32,59.88023952,5c849a40a869d400179ab427,65d2b6c8f2eece985d8e374c,65d2b9dff54f05027e23ca1d,0.048,0.048,0,107,107,160,1,fivesix,,,,,,,,,,,,,,,,,,,,,,,,,,,,,,,,,,,,,,,,,,,,,,,,,,,,,,,,,,,,,,,,,,,,,,,,,,,,,,,,,,,,,,,,,,,,,,,,,,,,,,,,,,,,,,,,,,,,,,,,,,,,,,,,,,,,,,,,,
,,5c849a40a869d400179ab427,2024-02-18_21h16.31.911,kallum_motion_pilot,2023.2.2,Win32,59.88023952,5c849a40a869d400179ab427,65d2b6c8f2eece985d8e374c,65d2b9dff54f05027e23ca1d,0.048,0.048,0,108,108,94,1,eightsix,,,,,,,,,,,,,,,,,,,,,,,,,,,,,,,,,,,,,,,,,,,,,,,,,,,,,,,,,,,,,,,,,,,,,,,,,,,,,,,,,,,,,,,,,,,,,,,,,,,,,,,,,,,,,,,,,,,,,,,,,,,,,,,,,,,,,,,,,
,,5c849a40a869d400179ab427,2024-02-18_21h16.31.911,kallum_motion_pilot,2023.2.2,Win32,59.88023952,5c849a40a869d400179ab427,65d2b6c8f2eece985d8e374c,65d2b9dff54f05027e23ca1d,0.048,0.048,0,109,109,75,1,twofour,,,,,,,,,,,,,,,,,,,,,,,,,,,,,,,,,,,,,,,,,,,,,,,,,,,,,,,,,,,,,,,,,,,,,,,,,,,,,,,,,,,,,,,,,,,,,,,,,,,,,,,,,,,,,,,,,,,,,,,,,,,,,,,,,,,,,,,,,
,,5c849a40a869d400179ab427,2024-02-18_21h16.31.911,kallum_motion_pilot,2023.2.2,Win32,59.88023952,5c849a40a869d400179ab427,65d2b6c8f2eece985d8e374c,65d2b9dff54f05027e23ca1d,0.048,0.048,0,110,110,43,1,twofour,,,,,,,,,,,,,,,,,,,,,,,,,,,,,,,,,,,,,,,,,,,,,,,,,,,,,,,,,,,,,,,,,,,,,,,,,,,,,,,,,,,,,,,,,,,,,,,,,,,,,,,,,,,,,,,,,,,,,,,,,,,,,,,,,,,,,,,,,
,,5c849a40a869d400179ab427,2024-02-18_21h16.31.911,kallum_motion_pilot,2023.2.2,Win32,59.88023952,5c849a40a869d400179ab427,65d2b6c8f2eece985d8e374c,65d2b9dff54f05027e23ca1d,0.048,0.048,0,111,111,70,1,fourtwo,,,,,,,,,,,,,,,,,,,,,,,,,,,,,,,,,,,,,,,,,,,,,,,,,,,,,,,,,,,,,,,,,,,,,,,,,,,,,,,,,,,,,,,,,,,,,,,,,,,,,,,,,,,,,,,,,,,,,,,,,,,,,,,,,,,,,,,,,
,,5c849a40a869d400179ab427,2024-02-18_21h16.31.911,kallum_motion_pilot,2023.2.2,Win32,59.88023952,5c849a40a869d400179ab427,65d2b6c8f2eece985d8e374c,65d2b9dff54f05027e23ca1d,0.048,0.048,0,112,112,114,1,sixfive,,,,,,,,,,,,,,,,,,,,,,,,,,,,,,,,,,,,,,,,,,,,,,,,,,,,,,,,,,,,,,,,,,,,,,,,,,,,,,,,,,,,,,,,,,,,,,,,,,,,,,,,,,,,,,,,,,,,,,,,,,,,,,,,,,,,,,,,,
,,5c849a40a869d400179ab427,2024-02-18_21h16.31.911,kallum_motion_pilot,2023.2.2,Win32,59.88023952,5c849a40a869d400179ab427,65d2b6c8f2eece985d8e374c,65d2b9dff54f05027e23ca1d,0.048,0.048,0,113,113,30,1,fourtwo,,,,,,,,,,,,,,,,,,,,,,,,,,,,,,,,,,,,,,,,,,,,,,,,,,,,,,,,,,,,,,,,,,,,,,,,,,,,,,,,,,,,,,,,,,,,,,,,,,,,,,,,,,,,,,,,,,,,,,,,,,,,,,,,,,,,,,,,,
,,5c849a40a869d400179ab427,2024-02-18_21h16.31.911,kallum_motion_pilot,2023.2.2,Win32,59.88023952,5c849a40a869d400179ab427,65d2b6c8f2eece985d8e374c,65d2b9dff54f05027e23ca1d,0.048,0.048,0,114,114,118,1,eightsix,,,,,,,,,,,,,,,,,,,,,,,,,,,,,,,,,,,,,,,,,,,,,,,,,,,,,,,,,,,,,,,,,,,,,,,,,,,,,,,,,,,,,,,,,,,,,,,,,,,,,,,,,,,,,,,,,,,,,,,,,,,,,,,,,,,,,,,,,
,,5c849a40a869d400179ab427,2024-02-18_21h16.31.911,kallum_motion_pilot,2023.2.2,Win32,59.88023952,5c849a40a869d400179ab427,65d2b6c8f2eece985d8e374c,65d2b9dff54f05027e23ca1d,0.049,0.049,0,115,115,110,1,eightsix,,,,,,,,,,,,,,,,,,,,,,,,,,,,,,,,,,,,,,,,,,,,,,,,,,,,,,,,,,,,,,,,,,,,,,,,,,,,,,,,,,,,,,,,,,,,,,,,,,,,,,,,,,,,,,,,,,,,,,,,,,,,,,,,,,,,,,,,,
,,5c849a40a869d400179ab427,2024-02-18_21h16.31.911,kallum_motion_pilot,2023.2.2,Win32,59.88023952,5c849a40a869d400179ab427,65d2b6c8f2eece985d8e374c,65d2b9dff54f05027e23ca1d,0.049,0.049,0,116,116,54,1,fourtwo,,,,,,,,,,,,,,,,,,,,,,,,,,,,,,,,,,,,,,,,,,,,,,,,,,,,,,,,,,,,,,,,,,,,,,,,,,,,,,,,,,,,,,,,,,,,,,,,,,,,,,,,,,,,,,,,,,,,,,,,,,,,,,,,,,,,,,,,,
,,5c849a40a869d400179ab427,2024-02-18_21h16.31.911,kallum_motion_pilot,2023.2.2,Win32,59.88023952,5c849a40a869d400179ab427,65d2b6c8f2eece985d8e374c,65d2b9dff54f05027e23ca1d,0.049,0.049,0,117,117,138,1,sixfive,,,,,,,,,,,,,,,,,,,,,,,,,,,,,,,,,,,,,,,,,,,,,,,,,,,,,,,,,,,,,,,,,,,,,,,,,,,,,,,,,,,,,,,,,,,,,,,,,,,,,,,,,,,,,,,,,,,,,,,,,,,,,,,,,,,,,,,,,
,,5c849a40a869d400179ab427,2024-02-18_21h16.31.911,kallum_motion_pilot,2023.2.2,Win32,59.88023952,5c849a40a869d400179ab427,65d2b6c8f2eece985d8e374c,65d2b9dff54f05027e23ca1d,0.049,0.049,0,118,118,86,1,eightsix,,,,,,,,,,,,,,,,,,,,,,,,,,,,,,,,,,,,,,,,,,,,,,,,,,,,,,,,,,,,,,,,,,,,,,,,,,,,,,,,,,,,,,,,,,,,,,,,,,,,,,,,,,,,,,,,,,,,,,,,,,,,,,,,,,,,,,,,,
,,5c849a40a869d400179ab427,2024-02-18_21h16.31.911,kallum_motion_pilot,2023.2.2,Win32,59.88023952,5c849a40a869d400179ab427,65d2b6c8f2eece985d8e374c,65d2b9dff54f05027e23ca1d,0.049,0.049,0,119,119,7,1,fourthree,,,,,,,,,,,,,,,,,,,,,,,,,,,,,,,,,,,,,,,,,,,,,,,,,,,,,,,,,,,,,,,,,,,,,,,,,,,,,,,,,,,,,,,,,,,,,,,,,,,,,,,,,,,,,,,,,,,,,,,,,,,,,,,,,,,,,,,,,
,,5c849a40a869d400179ab427,2024-02-18_21h16.31.911,kallum_motion_pilot,2023.2.2,Win32,59.88023952,5c849a40a869d400179ab427,65d2b6c8f2eece985d8e374c,65d2b9dff54f05027e23ca1d,0.049,0.049,0,120,120,45,1,threefour,,,,,,,,,,,,,,,,,,,,,,,,,,,,,,,,,,,,,,,,,,,,,,,,,,,,,,,,,,,,,,,,,,,,,,,,,,,,,,,,,,,,,,,,,,,,,,,,,,,,,,,,,,,,,,,,,,,,,,,,,,,,,,,,,,,,,,,,,
,,5c849a40a869d400179ab427,2024-02-18_21h16.31.911,kallum_motion_pilot,2023.2.2,Win32,59.88023952,5c849a40a869d400179ab427,65d2b6c8f2eece985d8e374c,65d2b9dff54f05027e23ca1d,0.049,0.049,0,121,121,133,1,seveneight,,,,,,,,,,,,,,,,,,,,,,,,,,,,,,,,,,,,,,,,,,,,,,,,,,,,,,,,,,,,,,,,,,,,,,,,,,,,,,,,,,,,,,,,,,,,,,,,,,,,,,,,,,,,,,,,,,,,,,,,,,,,,,,,,,,,,,,,,
,,5c849a40a869d400179ab427,2024-02-18_21h16.31.911,kallum_motion_pilot,2023.2.2,Win32,59.88023952,5c849a40a869d400179ab427,65d2b6c8f2eece985d8e374c,65d2b9dff54f05027e23ca1d,0.049,0.049,0,122,122,25,1,onethree,,,,,,,,,,,,,,,,,,,,,,,,,,,,,,,,,,,,,,,,,,,,,,,,,,,,,,,,,,,,,,,,,,,,,,,,,,,,,,,,,,,,,,,,,,,,,,,,,,,,,,,,,,,,,,,,,,,,,,,,,,,,,,,,,,,,,,,,,
,,5c849a40a869d400179ab427,2024-02-18_21h16.31.911,kallum_motion_pilot,2023.2.2,Win32,59.88023952,5c849a40a869d400179ab427,65d2b6c8f2eece985d8e374c,65d2b9dff54f05027e23ca1d,0.049,0.049,0,123,123,80,1,fivesix,,,,,,,,,,,,,,,,,,,,,,,,,,,,,,,,,,,,,,,,,,,,,,,,,,,,,,,,,,,,,,,,,,,,,,,,,,,,,,,,,,,,,,,,,,,,,,,,,,,,,,,,,,,,,,,,,,,,,,,,,,,,,,,,,,,,,,,,,
,,5c849a40a869d400179ab427,2024-02-18_21h16.31.911,kallum_motion_pilot,2023.2.2,Win32,59.88023952,5c849a40a869d400179ab427,65d2b6c8f2eece985d8e374c,65d2b9dff54f05027e23ca1d,0.049,0.049,0,124,124,105,1,fiveseven,,,,,,,,,,,,,,,,,,,,,,,,,,,,,,,,,,,,,,,,,,,,,,,,,,,,,,,,,,,,,,,,,,,,,,,,,,,,,,,,,,,,,,,,,,,,,,,,,,,,,,,,,,,,,,,,,,,,,,,,,,,,,,,,,,,,,,,,,
,,5c849a40a869d400179ab427,2024-02-18_21h16.31.911,kallum_motion_pilot,2023.2.2,Win32,59.88023952,5c849a40a869d400179ab427,65d2b6c8f2eece985d8e374c,65d2b9dff54f05027e23ca1d,0.05,0.05,0,125,125,102,1,eightsix,,,,,,,,,,,,,,,,,,,,,,,,,,,,,,,,,,,,,,,,,,,,,,,,,,,,,,,,,,,,,,,,,,,,,,,,,,,,,,,,,,,,,,,,,,,,,,,,,,,,,,,,,,,,,,,,,,,,,,,,,,,,,,,,,,,,,,,,,
,,5c849a40a869d400179ab427,2024-02-18_21h16.31.911,kallum_motion_pilot,2023.2.2,Win32,59.88023952,5c849a40a869d400179ab427,65d2b6c8f2eece985d8e374c,65d2b9dff54f05027e23ca1d,0.05,0.05,0,126,126,6,1,fourtwo,,,,,,,,,,,,,,,,,,,,,,,,,,,,,,,,,,,,,,,,,,,,,,,,,,,,,,,,,,,,,,,,,,,,,,,,,,,,,,,,,,,,,,,,,,,,,,,,,,,,,,,,,,,,,,,,,,,,,,,,,,,,,,,,,,,,,,,,,
,,5c849a40a869d400179ab427,2024-02-18_21h16.31.911,kallum_motion_pilot,2023.2.2,Win32,59.88023952,5c849a40a869d400179ab427,65d2b6c8f2eece985d8e374c,65d2b9dff54f05027e23ca1d,0.05,0.05,0,127,127,88,1,fivesix,,,,,,,,,,,,,,,,,,,,,,,,,,,,,,,,,,,,,,,,,,,,,,,,,,,,,,,,,,,,,,,,,,,,,,,,,,,,,,,,,,,,,,,,,,,,,,,,,,,,,,,,,,,,,,,,,,,,,,,,,,,,,,,,,,,,,,,,,
,,5c849a40a869d400179ab427,2024-02-18_21h16.31.911,kallum_motion_pilot,2023.2.2,Win32,59.88023952,5c849a40a869d400179ab427,65d2b6c8f2eece985d8e374c,65d2b9dff54f05027e23ca1d,0.05,0.05,0,128,128,42,1,twoone,,,,,,,,,,,,,,,,,,,,,,,,,,,,,,,,,,,,,,,,,,,,,,,,,,,,,,,,,,,,,,,,,,,,,,,,,,,,,,,,,,,,,,,,,,,,,,,,,,,,,,,,,,,,,,,,,,,,,,,,,,,,,,,,,,,,,,,,,
,,5c849a40a869d400179ab427,2024-02-18_21h16.31.911,kallum_motion_pilot,2023.2.2,Win32,59.88023952,5c849a40a869d400179ab427,65d2b6c8f2eece985d8e374c,65d2b9dff54f05027e23ca1d,0.05,0.05,0,129,129,104,1,fivesix,,,,,,,,,,,,,,,,,,,,,,,,,,,,,,,,,,,,,,,,,,,,,,,,,,,,,,,,,,,,,,,,,,,,,,,,,,,,,,,,,,,,,,,,,,,,,,,,,,,,,,,,,,,,,,,,,,,,,,,,,,,,,,,,,,,,,,,,,
,,5c849a40a869d400179ab427,2024-02-18_21h16.31.911,kallum_motion_pilot,2023.2.2,Win32,59.88023952,5c849a40a869d400179ab427,65d2b6c8f2eece985d8e374c,65d2b9dff54f05027e23ca1d,0.051,0.051,0,130,130,67,1,twofour,,,,,,,,,,,,,,,,,,,,,,,,,,,,,,,,,,,,,,,,,,,,,,,,,,,,,,,,,,,,,,,,,,,,,,,,,,,,,,,,,,,,,,,,,,,,,,,,,,,,,,,,,,,,,,,,,,,,,,,,,,,,,,,,,,,,,,,,,
,,5c849a40a869d400179ab427,2024-02-18_21h16.31.911,kallum_motion_pilot,2023.2.2,Win32,59.88023952,5c849a40a869d400179ab427,65d2b6c8f2eece985d8e374c,65d2b9dff54f05027e23ca1d,0.051,0.051,0,131,131,120,1,fivesix,,,,,,,,,,,,,,,,,,,,,,,,,,,,,,,,,,,,,,,,,,,,,,,,,,,,,,,,,,,,,,,,,,,,,,,,,,,,,,,,,,,,,,,,,,,,,,,,,,,,,,,,,,,,,,,,,,,,,,,,,,,,,,,,,,,,,,,,,
,,5c849a40a869d400179ab427,2024-02-18_21h16.31.911,kallum_motion_pilot,2023.2.2,Win32,59.88023952,5c849a40a869d400179ab427,65d2b6c8f2eece985d8e374c,65d2b9dff54f05027e23ca1d,0.051,0.051,0,132,132,69,1,threefour,,,,,,,,,,,,,,,,,,,,,,,,,,,,,,,,,,,,,,,,,,,,,,,,,,,,,,,,,,,,,,,,,,,,,,,,,,,,,,,,,,,,,,,,,,,,,,,,,,,,,,,,,,,,,,,,,,,,,,,,,,,,,,,,,,,,,,,,,
,,5c849a40a869d400179ab427,2024-02-18_21h16.31.911,kallum_motion_pilot,2023.2.2,Win32,59.88023952,5c849a40a869d400179ab427,65d2b6c8f2eece985d8e374c,65d2b9dff54f05027e23ca1d,0.051,0.051,0,133,133,93,1,seveneight,,,,,,,,,,,,,,,,,,,,,,,,,,,,,,,,,,,,,,,,,,,,,,,,,,,,,,,,,,,,,,,,,,,,,,,,,,,,,,,,,,,,,,,,,,,,,,,,,,,,,,,,,,,,,,,,,,,,,,,,,,,,,,,,,,,,,,,,,
,,5c849a40a869d400179ab427,2024-02-18_21h16.31.911,kallum_motion_pilot,2023.2.2,Win32,59.88023952,5c849a40a869d400179ab427,65d2b6c8f2eece985d8e374c,65d2b9dff54f05027e23ca1d,0.051,0.051,0,134,134,79,1,eightseven,,,,,,,,,,,,,,,,,,,,,,,,,,,,,,,,,,,,,,,,,,,,,,,,,,,,,,,,,,,,,,,,,,,,,,,,,,,,,,,,,,,,,,,,,,,,,,,,,,,,,,,,,,,,,,,,,,,,,,,,,,,,,,,,,,,,,,,,,
,,5c849a40a869d400179ab427,2024-02-18_21h16.31.911,kallum_motion_pilot,2023.2.2,Win32,59.88023952,5c849a40a869d400179ab427,65d2b6c8f2eece985d8e374c,65d2b9dff54f05027e23ca1d,0.051,0.051,0,135,135,41,1,onethree,,,,,,,,,,,,,,,,,,,,,,,,,,,,,,,,,,,,,,,,,,,,,,,,,,,,,,,,,,,,,,,,,,,,,,,,,,,,,,,,,,,,,,,,,,,,,,,,,,,,,,,,,,,,,,,,,,,,,,,,,,,,,,,,,,,,,,,,,
,,5c849a40a869d400179ab427,2024-02-18_21h16.31.911,kallum_motion_pilot,2023.2.2,Win32,59.88023952,5c849a40a869d400179ab427,65d2b6c8f2eece985d8e374c,65d2b9dff54f05027e23ca1d,0.051,0.051,0,136,136,145,1,fiveseven,,,,,,,,,,,,,,,,,,,,,,,,,,,,,,,,,,,,,,,,,,,,,,,,,,,,,,,,,,,,,,,,,,,,,,,,,,,,,,,,,,,,,,,,,,,,,,,,,,,,,,,,,,,,,,,,,,,,,,,,,,,,,,,,,,,,,,,,,
,,5c849a40a869d400179ab427,2024-02-18_21h16.31.911,kallum_motion_pilot,2023.2.2,Win32,59.88023952,5c849a40a869d400179ab427,65d2b6c8f2eece985d8e374c,65d2b9dff54f05027e23ca1d,0.052,0.052,0,137,137,95,1,eightseven,,,,,,,,,,,,,,,,,,,,,,,,,,,,,,,,,,,,,,,,,,,,,,,,,,,,,,,,,,,,,,,,,,,,,,,,,,,,,,,,,,,,,,,,,,,,,,,,,,,,,,,,,,,,,,,,,,,,,,,,,,,,,,,,,,,,,,,,,
,,5c849a40a869d400179ab427,2024-02-18_21h16.31.911,kallum_motion_pilot,2023.2.2,Win32,59.88023952,5c849a40a869d400179ab427,65d2b6c8f2eece985d8e374c,65d2b9dff54f05027e23ca1d,0.052,0.052,0,138,138,72,1,onetwo,,,,,,,,,,,,,,,,,,,,,,,,,,,,,,,,,,,,,,,,,,,,,,,,,,,,,,,,,,,,,,,,,,,,,,,,,,,,,,,,,,,,,,,,,,,,,,,,,,,,,,,,,,,,,,,,,,,,,,,,,,,,,,,,,,,,,,,,,
,,5c849a40a869d400179ab427,2024-02-18_21h16.31.911,kallum_motion_pilot,2023.2.2,Win32,59.88023952,5c849a40a869d400179ab427,65d2b6c8f2eece985d8e374c,65d2b9dff54f05027e23ca1d,0.052,0.052,0,139,139,31,1,fourthree,,,,,,,,,,,,,,,,,,,,,,,,,,,,,,,,,,,,,,,,,,,,,,,,,,,,,,,,,,,,,,,,,,,,,,,,,,,,,,,,,,,,,,,,,,,,,,,,,,,,,,,,,,,,,,,,,,,,,,,,,,,,,,,,,,,,,,,,,
,,5c849a40a869d400179ab427,2024-02-18_21h16.31.911,kallum_motion_pilot,2023.2.2,Win32,59.88023952,5c849a40a869d400179ab427,65d2b6c8f2eece985d8e374c,65d2b9dff54f05027e23ca1d,0.052,0.052,0,140,140,20,1,threeone,,,,,,,,,,,,,,,,,,,,,,,,,,,,,,,,,,,,,,,,,,,,,,,,,,,,,,,,,,,,,,,,,,,,,,,,,,,,,,,,,,,,,,,,,,,,,,,,,,,,,,,,,,,,,,,,,,,,,,,,,,,,,,,,,,,,,,,,,
,,5c849a40a869d400179ab427,2024-02-18_21h16.31.911,kallum_motion_pilot,2023.2.2,Win32,59.88023952,5c849a40a869d400179ab427,65d2b6c8f2eece985d8e374c,65d2b9dff54f05027e23ca1d,0.052,0.052,0,141,141,46,1,fourtwo,,,,,,,,,,,,,,,,,,,,,,,,,,,,,,,,,,,,,,,,,,,,,,,,,,,,,,,,,,,,,,,,,,,,,,,,,,,,,,,,,,,,,,,,,,,,,,,,,,,,,,,,,,,,,,,,,,,,,,,,,,,,,,,,,,,,,,,,,
,,5c849a40a869d400179ab427,2024-02-18_21h16.31.911,kallum_motion_pilot,2023.2.2,Win32,59.88023952,5c849a40a869d400179ab427,65d2b6c8f2eece985d8e374c,65d2b9dff54f05027e23ca1d,0.052,0.052,0,142,142,26,1,twoone,,,,,,,,,,,,,,,,,,,,,,,,,,,,,,,,,,,,,,,,,,,,,,,,,,,,,,,,,,,,,,,,,,,,,,,,,,,,,,,,,,,,,,,,,,,,,,,,,,,,,,,,,,,,,,,,,,,,,,,,,,,,,,,,,,,,,,,,,
,,5c849a40a869d400179ab427,2024-02-18_21h16.31.911,kallum_motion_pilot,2023.2.2,Win32,59.88023952,5c849a40a869d400179ab427,65d2b6c8f2eece985d8e374c,65d2b9dff54f05027e23ca1d,0.052,0.052,0,143,143,140,1,sevenfive,,,,,,,,,,,,,,,,,,,,,,,,,,,,,,,,,,,,,,,,,,,,,,,,,,,,,,,,,,,,,,,,,,,,,,,,,,,,,,,,,,,,,,,,,,,,,,,,,,,,,,,,,,,,,,,,,,,,,,,,,,,,,,,,,,,,,,,,,
,,5c849a40a869d400179ab427,2024-02-18_21h16.31.911,kallum_motion_pilot,2023.2.2,Win32,59.88023952,5c849a40a869d400179ab427,65d2b6c8f2eece985d8e374c,65d2b9dff54f05027e23ca1d,0.052,0.052,0,144,144,161,1,fiveseven,,,,,,,,,,,,,,,,,,,,,,,,,,,,,,,,,,,,,,,,,,,,,,,,,,,,,,,,,,,,,,,,,,,,,,,,,,,,,,,,,,,,,,,,,,,,,,,,,,,,,,,,,,,,,,,,,,,,,,,,,,,,,,,,,,,,,,,,,
,,5c849a40a869d400179ab427,2024-02-18_21h16.31.911,kallum_motion_pilot,2023.2.2,Win32,59.88023952,5c849a40a869d400179ab427,65d2b6c8f2eece985d8e374c,65d2b9dff54f05027e23ca1d,0.053,0.053,0,145,145,61,1,threefour,,,,,,,,,,,,,,,,,,,,,,,,,,,,,,,,,,,,,,,,,,,,,,,,,,,,,,,,,,,,,,,,,,,,,,,,,,,,,,,,,,,,,,,,,,,,,,,,,,,,,,,,,,,,,,,,,,,,,,,,,,,,,,,,,,,,,,,,,
,,5c849a40a869d400179ab427,2024-02-18_21h16.31.911,kallum_motion_pilot,2023.2.2,Win32,59.88023952,5c849a40a869d400179ab427,65d2b6c8f2eece985d8e374c,65d2b9dff54f05027e23ca1d,0.053,0.053,0,146,146,50,1,twoone,,,,,,,,,,,,,,,,,,,,,,,,,,,,,,,,,,,,,,,,,,,,,,,,,,,,,,,,,,,,,,,,,,,,,,,,,,,,,,,,,,,,,,,,,,,,,,,,,,,,,,,,,,,,,,,,,,,,,,,,,,,,,,,,,,,,,,,,,
,,5c849a40a869d400179ab427,2024-02-18_21h16.31.911,kallum_motion_pilot,2023.2.2,Win32,59.88023952,5c849a40a869d400179ab427,65d2b6c8f2eece985d8e374c,65d2b9dff54f05027e23ca1d,0.053,0.053,0,147,147,78,1,fourtwo,,,,,,,,,,,,,,,,,,,,,,,,,,,,,,,,,,,,,,,,,,,,,,,,,,,,,,,,,,,,,,,,,,,,,,,,,,,,,,,,,,,,,,,,,,,,,,,,,,,,,,,,,,,,,,,,,,,,,,,,,,,,,,,,,,,,,,,,,
,,5c849a40a869d400179ab427,2024-02-18_21h16.31.911,kallum_motion_pilot,2023.2.2,Win32,59.88023952,5c849a40a869d400179ab427,65d2b6c8f2eece985d8e374c,65d2b9dff54f05027e23ca1d,0.053,0.053,0,148,148,3,1,twofour,,,,,,,,,,,,,,,,,,,,,,,,,,,,,,,,,,,,,,,,,,,,,,,,,,,,,,,,,,,,,,,,,,,,,,,,,,,,,,,,,,,,,,,,,,,,,,,,,,,,,,,,,,,,,,,,,,,,,,,,,,,,,,,,,,,,,,,,,
,,5c849a40a869d400179ab427,2024-02-18_21h16.31.911,kallum_motion_pilot,2023.2.2,Win32,59.88023952,5c849a40a869d400179ab427,65d2b6c8f2eece985d8e374c,65d2b9dff54f05027e23ca1d,0.053,0.053,0,149,149,0,1,onetwo,,,,,,,,,,,,,,,,,,,,,,,,,,,,,,,,,,,,,,,,,,,,,,,,,,,,,,,,,,,,,,,,,,,,,,,,,,,,,,,,,,,,,,,,,,,,,,,,,,,,,,,,,,,,,,,,,,,,,,,,,,,,,,,,,,,,,,,,,
,,5c849a40a869d400179ab427,2024-02-18_21h16.31.911,kallum_motion_pilot,2023.2.2,Win32,59.88023952,5c849a40a869d400179ab427,65d2b6c8f2eece985d8e374c,65d2b9dff54f05027e23ca1d,0.053,0.053,0,150,150,37,1,threefour,,,,,,,,,,,,,,,,,,,,,,,,,,,,,,,,,,,,,,,,,,,,,,,,,,,,,,,,,,,,,,,,,,,,,,,,,,,,,,,,,,,,,,,,,,,,,,,,,,,,,,,,,,,,,,,,,,,,,,,,,,,,,,,,,,,,,,,,,
,,5c849a40a869d400179ab427,2024-02-18_21h16.31.911,kallum_motion_pilot,2023.2.2,Win32,59.88023952,5c849a40a869d400179ab427,65d2b6c8f2eece985d8e374c,65d2b9dff54f05027e23ca1d,0.053,0.053,0,151,151,36,1,threeone,,,,,,,,,,,,,,,,,,,,,,,,,,,,,,,,,,,,,,,,,,,,,,,,,,,,,,,,,,,,,,,,,,,,,,,,,,,,,,,,,,,,,,,,,,,,,,,,,,,,,,,,,,,,,,,,,,,,,,,,,,,,,,,,,,,,,,,,,
,,5c849a40a869d400179ab427,2024-02-18_21h16.31.911,kallum_motion_pilot,2023.2.2,Win32,59.88023952,5c849a40a869d400179ab427,65d2b6c8f2eece985d8e374c,65d2b9dff54f05027e23ca1d,0.053,0.053,0,152,152,150,1,eightsix,,,,,,,,,,,,,,,,,,,,,,,,,,,,,,,,,,,,,,,,,,,,,,,,,,,,,,,,,,,,,,,,,,,,,,,,,,,,,,,,,,,,,,,,,,,,,,,,,,,,,,,,,,,,,,,,,,,,,,,,,,,,,,,,,,,,,,,,,
,,5c849a40a869d400179ab427,2024-02-18_21h16.31.911,kallum_motion_pilot,2023.2.2,Win32,59.88023952,5c849a40a869d400179ab427,65d2b6c8f2eece985d8e374c,65d2b9dff54f05027e23ca1d,0.053,0.053,0,153,153,10,1,twoone,,,,,,,,,,,,,,,,,,,,,,,,,,,,,,,,,,,,,,,,,,,,,,,,,,,,,,,,,,,,,,,,,,,,,,,,,,,,,,,,,,,,,,,,,,,,,,,,,,,,,,,,,,,,,,,,,,,,,,,,,,,,,,,,,,,,,,,,,
,,5c849a40a869d400179ab427,2024-02-18_21h16.31.911,kallum_motion_pilot,2023.2.2,Win32,59.88023952,5c849a40a869d400179ab427,65d2b6c8f2eece985d8e374c,65d2b9dff54f05027e23ca1d,0.053,0.053,0,154,154,64,1,onetwo,,,,,,,,,,,,,,,,,,,,,,,,,,,,,,,,,,,,,,,,,,,,,,,,,,,,,,,,,,,,,,,,,,,,,,,,,,,,,,,,,,,,,,,,,,,,,,,,,,,,,,,,,,,,,,,,,,,,,,,,,,,,,,,,,,,,,,,,,
,,5c849a40a869d400179ab427,2024-02-18_21h16.31.911,kallum_motion_pilot,2023.2.2,Win32,59.88023952,5c849a40a869d400179ab427,65d2b6c8f2eece985d8e374c,65d2b9dff54f05027e23ca1d,0.056,0.056,0,155,155,101,1,seveneight,,,,,,,,,,,,,,,,,,,,,,,,,,,,,,,,,,,,,,,,,,,,,,,,,,,,,,,,,,,,,,,,,,,,,,,,,,,,,,,,,,,,,,,,,,,,,,,,,,,,,,,,,,,,,,,,,,,,,,,,,,,,,,,,,,,,,,,,,
,,5c849a40a869d400179ab427,2024-02-18_21h16.31.911,kallum_motion_pilot,2023.2.2,Win32,59.88023952,5c849a40a869d400179ab427,65d2b6c8f2eece985d8e374c,65d2b9dff54f05027e23ca1d,0.056,0.056,0,156,156,111,1,eightseven,,,,,,,,,,,,,,,,,,,,,,,,,,,,,,,,,,,,,,,,,,,,,,,,,,,,,,,,,,,,,,,,,,,,,,,,,,,,,,,,,,,,,,,,,,,,,,,,,,,,,,,,,,,,,,,,,,,,,,,,,,,,,,,,,,,,,,,,,
,,5c849a40a869d400179ab427,2024-02-18_21h16.31.911,kallum_motion_pilot,2023.2.2,Win32,59.88023952,5c849a40a869d400179ab427,65d2b6c8f2eece985d8e374c,65d2b9dff54f05027e23ca1d,0.056,0.056,0,157,157,126,1,eightsix,,,,,,,,,,,,,,,,,,,,,,,,,,,,,,,,,,,,,,,,,,,,,,,,,,,,,,,,,,,,,,,,,,,,,,,,,,,,,,,,,,,,,,,,,,,,,,,,,,,,,,,,,,,,,,,,,,,,,,,,,,,,,,,,,,,,,,,,,
,,5c849a40a869d400179ab427,2024-02-18_21h16.31.911,kallum_motion_pilot,2023.2.2,Win32,59.88023952,5c849a40a869d400179ab427,65d2b6c8f2eece985d8e374c,65d2b9dff54f05027e23ca1d,0.057,0.057,0,158,158,27,1,twofour,,,,,,,,,,,,,,,,,,,,,,,,,,,,,,,,,,,,,,,,,,,,,,,,,,,,,,,,,,,,,,,,,,,,,,,,,,,,,,,,,,,,,,,,,,,,,,,,,,,,,,,,,,,,,,,,,,,,,,,,,,,,,,,,,,,,,,,,,
,,5c849a40a869d400179ab427,2024-02-18_21h16.31.911,kallum_motion_pilot,2023.2.2,Win32,59.88023952,5c849a40a869d400179ab427,65d2b6c8f2eece985d8e374c,65d2b9dff54f05027e23ca1d,0.057,0.057,0,159,159,34,1,twoone,,,,,,,,,,,,,,,,,,,,,,,,,,,,,,,,,,,,,,,,,,,,,,,,,,,,,,,,,,,,,,,,,,,,,,,,,,,,,,,,,,,,,,,,,,,,,,,,,,,,,,,,,,,,,,,,,,,,,,,,,,,,,,,,,,,,,,,,,
,,5c849a40a869d400179ab427,2024-02-18_21h16.31.911,kallum_motion_pilot,2023.2.2,Win32,59.88023952,5c849a40a869d400179ab427,65d2b6c8f2eece985d8e374c,65d2b9dff54f05027e23ca1d,0.057,0.057,0,160,160,89,1,fiveseven,,,,,,,,,,,,,,,,,,,,,,,,,,,,,,,,,,,,,,,,,,,,,,,,,,,,,,,,,,,,,,,,,,,,,,,,,,,,,,,,,,,,,,,,,,,,,,,,,,,,,,,,,,,,,,,,,,,,,,,,,,,,,,,,,,,,,,,,,
,,5c849a40a869d400179ab427,2024-02-18_21h16.31.911,kallum_motion_pilot,2023.2.2,Win32,59.88023952,5c849a40a869d400179ab427,65d2b6c8f2eece985d8e374c,65d2b9dff54f05027e23ca1d,0.057,0.057,0,161,161,96,1,fivesix,,,,,,,,,,,,,,,,,,,,,,,,,,,,,,,,,,,,,,,,,,,,,,,,,,,,,,,,,,,,,,,,,,,,,,,,,,,,,,,,,,,,,,,,,,,,,,,,,,,,,,,,,,,,,,,,,,,,,,,,,,,,,,,,,,,,,,,,,
,,5c849a40a869d400179ab427,2024-02-18_21h16.31.911,kallum_motion_pilot,2023.2.2,Win32,59.88023952,5c849a40a869d400179ab427,65d2b6c8f2eece985d8e374c,65d2b9dff54f05027e23ca1d,0.057,0.057,1,0,162,130,1,sixfive,,,,,,,,,,,,,,,,,,,,,,,,,,,,,,,,,,,,,,,,,,,,,,,,,,,,,,,,,,,,,,,,,,,,,,,,,,,,,,,,,,,,,,,,,,,,,,,,,,,,,,,,,,,,,,,,,,,,,,,,,,,,,,,,,,,,,,,,,
,,5c849a40a869d400179ab427,2024-02-18_21h16.31.911,kallum_motion_pilot,2023.2.2,Win32,59.88023952,5c849a40a869d400179ab427,65d2b6c8f2eece985d8e374c,65d2b9dff54f05027e23ca1d,0.057,0.057,1,1,163,96,1,fivesix,,,,,,,,,,,,,,,,,,,,,,,,,,,,,,,,,,,,,,,,,,,,,,,,,,,,,,,,,,,,,,,,,,,,,,,,,,,,,,,,,,,,,,,,,,,,,,,,,,,,,,,,,,,,,,,,,,,,,,,,,,,,,,,,,,,,,,,,,
,,5c849a40a869d400179ab427,2024-02-18_21h16.31.911,kallum_motion_pilot,2023.2.2,Win32,59.88023952,5c849a40a869d400179ab427,65d2b6c8f2eece985d8e374c,65d2b9dff54f05027e23ca1d,0.057,0.057,1,2,164,83,1,sixeight,,,,,,,,,,,,,,,,,,,,,,,,,,,,,,,,,,,,,,,,,,,,,,,,,,,,,,,,,,,,,,,,,,,,,,,,,,,,,,,,,,,,,,,,,,,,,,,,,,,,,,,,,,,,,,,,,,,,,,,,,,,,,,,,,,,,,,,,,
,,5c849a40a869d400179ab427,2024-02-18_21h16.31.911,kallum_motion_pilot,2023.2.2,Win32,59.88023952,5c849a40a869d400179ab427,65d2b6c8f2eece985d8e374c,65d2b9dff54f05027e23ca1d,0.057,0.057,1,3,165,65,1,onethree,,,,,,,,,,,,,,,,,,,,,,,,,,,,,,,,,,,,,,,,,,,,,,,,,,,,,,,,,,,,,,,,,,,,,,,,,,,,,,,,,,,,,,,,,,,,,,,,,,,,,,,,,,,,,,,,,,,,,,,,,,,,,,,,,,,,,,,,,
,,5c849a40a869d400179ab427,2024-02-18_21h16.31.911,kallum_motion_pilot,2023.2.2,Win32,59.88023952,5c849a40a869d400179ab427,65d2b6c8f2eece985d8e374c,65d2b9dff54f05027e23ca1d,0.057,0.057,1,4,166,142,1,eightsix,,,,,,,,,,,,,,,,,,,,,,,,,,,,,,,,,,,,,,,,,,,,,,,,,,,,,,,,,,,,,,,,,,,,,,,,,,,,,,,,,,,,,,,,,,,,,,,,,,,,,,,,,,,,,,,,,,,,,,,,,,,,,,,,,,,,,,,,,
,,5c849a40a869d400179ab427,2024-02-18_21h16.31.911,kallum_motion_pilot,2023.2.2,Win32,59.88023952,5c849a40a869d400179ab427,65d2b6c8f2eece985d8e374c,65d2b9dff54f05027e23ca1d,0.057,0.058,1,5,167,116,1,sevenfive,,,,,,,,,,,,,,,,,,,,,,,,,,,,,,,,,,,,,,,,,,,,,,,,,,,,,,,,,,,,,,,,,,,,,,,,,,,,,,,,,,,,,,,,,,,,,,,,,,,,,,,,,,,,,,,,,,,,,,,,,,,,,,,,,,,,,,,,,
,,5c849a40a869d400179ab427,2024-02-18_21h16.31.911,kallum_motion_pilot,2023.2.2,Win32,59.88023952,5c849a40a869d400179ab427,65d2b6c8f2eece985d8e374c,65d2b9dff54f05027e23ca1d,0.058,0.058,1,6,168,18,1,twoone,,,,,,,,,,,,,,,,,,,,,,,,,,,,,,,,,,,,,,,,,,,,,,,,,,,,,,,,,,,,,,,,,,,,,,,,,,,,,,,,,,,,,,,,,,,,,,,,,,,,,,,,,,,,,,,,,,,,,,,,,,,,,,,,,,,,,,,,,
,,5c849a40a869d400179ab427,2024-02-18_21h16.31.911,kallum_motion_pilot,2023.2.2,Win32,59.88023952,5c849a40a869d400179ab427,65d2b6c8f2eece985d8e374c,65d2b9dff54f05027e23ca1d,0.058,0.058,1,7,169,31,1,fourthree,,,,,,,,,,,,,,,,,,,,,,,,,,,,,,,,,,,,,,,,,,,,,,,,,,,,,,,,,,,,,,,,,,,,,,,,,,,,,,,,,,,,,,,,,,,,,,,,,,,,,,,,,,,,,,,,,,,,,,,,,,,,,,,,,,,,,,,,,
,,5c849a40a869d400179ab427,2024-02-18_21h16.31.911,kallum_motion_pilot,2023.2.2,Win32,59.88023952,5c849a40a869d400179ab427,65d2b6c8f2eece985d8e374c,65d2b9dff54f05027e23ca1d,0.058,0.058,1,8,170,109,1,seveneight,,,,,,,,,,,,,,,,,,,,,,,,,,,,,,,,,,,,,,,,,,,,,,,,,,,,,,,,,,,,,,,,,,,,,,,,,,,,,,,,,,,,,,,,,,,,,,,,,,,,,,,,,,,,,,,,,,,,,,,,,,,,,,,,,,,,,,,,,
,,5c849a40a869d400179ab427,2024-02-18_21h16.31.911,kallum_motion_pilot,2023.2.2,Win32,59.88023952,5c849a40a869d400179ab427,65d2b6c8f2eece985d8e374c,65d2b9dff54f05027e23ca1d,0.058,0.058,1,9,171,27,1,twofour,,,,,,,,,,,,,,,,,,,,,,,,,,,,,,,,,,,,,,,,,,,,,,,,,,,,,,,,,,,,,,,,,,,,,,,,,,,,,,,,,,,,,,,,,,,,,,,,,,,,,,,,,,,,,,,,,,,,,,,,,,,,,,,,,,,,,,,,,
,,5c849a40a869d400179ab427,2024-02-18_21h16.31.911,kallum_motion_pilot,2023.2.2,Win32,59.88023952,5c849a40a869d400179ab427,65d2b6c8f2eece985d8e374c,65d2b9dff54f05027e23ca1d,0.058,0.058,1,10,172,87,1,eightseven,,,,,,,,,,,,,,,,,,,,,,,,,,,,,,,,,,,,,,,,,,,,,,,,,,,,,,,,,,,,,,,,,,,,,,,,,,,,,,,,,,,,,,,,,,,,,,,,,,,,,,,,,,,,,,,,,,,,,,,,,,,,,,,,,,,,,,,,,
,,5c849a40a869d400179ab427,2024-02-18_21h16.31.911,kallum_motion_pilot,2023.2.2,Win32,59.88023952,5c849a40a869d400179ab427,65d2b6c8f2eece985d8e374c,65d2b9dff54f05027e23ca1d,0.058,0.058,1,11,173,148,1,sevenfive,,,,,,,,,,,,,,,,,,,,,,,,,,,,,,,,,,,,,,,,,,,,,,,,,,,,,,,,,,,,,,,,,,,,,,,,,,,,,,,,,,,,,,,,,,,,,,,,,,,,,,,,,,,,,,,,,,,,,,,,,,,,,,,,,,,,,,,,,
,,5c849a40a869d400179ab427,2024-02-18_21h16.31.911,kallum_motion_pilot,2023.2.2,Win32,59.88023952,5c849a40a869d400179ab427,65d2b6c8f2eece985d8e374c,65d2b9dff54f05027e23ca1d,0.058,0.058,1,12,174,134,1,eightsix,,,,,,,,,,,,,,,,,,,,,,,,,,,,,,,,,,,,,,,,,,,,,,,,,,,,,,,,,,,,,,,,,,,,,,,,,,,,,,,,,,,,,,,,,,,,,,,,,,,,,,,,,,,,,,,,,,,,,,,,,,,,,,,,,,,,,,,,,
,,5c849a40a869d400179ab427,2024-02-18_21h16.31.911,kallum_motion_pilot,2023.2.2,Win32,59.88023952,5c849a40a869d400179ab427,65d2b6c8f2eece985d8e374c,65d2b9dff54f05027e23ca1d,0.058,0.058,1,13,175,146,1,sixfive,,,,,,,,,,,,,,,,,,,,,,,,,,,,,,,,,,,,,,,,,,,,,,,,,,,,,,,,,,,,,,,,,,,,,,,,,,,,,,,,,,,,,,,,,,,,,,,,,,,,,,,,,,,,,,,,,,,,,,,,,,,,,,,,,,,,,,,,,
,,5c849a40a869d400179ab427,2024-02-18_21h16.31.911,kallum_motion_pilot,2023.2.2,Win32,59.88023952,5c849a40a869d400179ab427,65d2b6c8f2eece985d8e374c,65d2b9dff54f05027e23ca1d,0.058,0.058,1,14,176,2,1,twoone,,,,,,,,,,,,,,,,,,,,,,,,,,,,,,,,,,,,,,,,,,,,,,,,,,,,,,,,,,,,,,,,,,,,,,,,,,,,,,,,,,,,,,,,,,,,,,,,,,,,,,,,,,,,,,,,,,,,,,,,,,,,,,,,,,,,,,,,,
,,5c849a40a869d400179ab427,2024-02-18_21h16.31.911,kallum_motion_pilot,2023.2.2,Win32,59.88023952,5c849a40a869d400179ab427,65d2b6c8f2eece985d8e374c,65d2b9dff54f05027e23ca1d,0.058,0.058,1,15,177,20,1,threeone,,,,,,,,,,,,,,,,,,,,,,,,,,,,,,,,,,,,,,,,,,,,,,,,,,,,,,,,,,,,,,,,,,,,,,,,,,,,,,,,,,,,,,,,,,,,,,,,,,,,,,,,,,,,,,,,,,,,,,,,,,,,,,,,,,,,,,,,,
,,5c849a40a869d400179ab427,2024-02-18_21h16.31.911,kallum_motion_pilot,2023.2.2,Win32,59.88023952,5c849a40a869d400179ab427,65d2b6c8f2eece985d8e374c,65d2b9dff54f05027e23ca1d,0.058,0.059,1,16,178,89,1,fiveseven,,,,,,,,,,,,,,,,,,,,,,,,,,,,,,,,,,,,,,,,,,,,,,,,,,,,,,,,,,,,,,,,,,,,,,,,,,,,,,,,,,,,,,,,,,,,,,,,,,,,,,,,,,,,,,,,,,,,,,,,,,,,,,,,,,,,,,,,,
,,5c849a40a869d400179ab427,2024-02-18_21h16.31.911,kallum_motion_pilot,2023.2.2,Win32,59.88023952,5c849a40a869d400179ab427,65d2b6c8f2eece985d8e374c,65d2b9dff54f05027e23ca1d,0.059,0.059,1,17,179,158,1,eightsix,,,,,,,,,,,,,,,,,,,,,,,,,,,,,,,,,,,,,,,,,,,,,,,,,,,,,,,,,,,,,,,,,,,,,,,,,,,,,,,,,,,,,,,,,,,,,,,,,,,,,,,,,,,,,,,,,,,,,,,,,,,,,,,,,,,,,,,,,
,,5c849a40a869d400179ab427,2024-02-18_21h16.31.911,kallum_motion_pilot,2023.2.2,Win32,59.88023952,5c849a40a869d400179ab427,65d2b6c8f2eece985d8e374c,65d2b9dff54f05027e23ca1d,0.059,0.059,1,18,180,3,1,twofour,,,,,,,,,,,,,,,,,,,,,,,,,,,,,,,,,,,,,,,,,,,,,,,,,,,,,,,,,,,,,,,,,,,,,,,,,,,,,,,,,,,,,,,,,,,,,,,,,,,,,,,,,,,,,,,,,,,,,,,,,,,,,,,,,,,,,,,,,
,,5c849a40a869d400179ab427,2024-02-18_21h16.31.911,kallum_motion_pilot,2023.2.2,Win32,59.88023952,5c849a40a869d400179ab427,65d2b6c8f2eece985d8e374c,65d2b9dff54f05027e23ca1d,0.059,0.059,1,19,181,73,1,onethree,,,,,,,,,,,,,,,,,,,,,,,,,,,,,,,,,,,,,,,,,,,,,,,,,,,,,,,,,,,,,,,,,,,,,,,,,,,,,,,,,,,,,,,,,,,,,,,,,,,,,,,,,,,,,,,,,,,,,,,,,,,,,,,,,,,,,,,,,
,,5c849a40a869d400179ab427,2024-02-18_21h16.31.911,kallum_motion_pilot,2023.2.2,Win32,59.88023952,5c849a40a869d400179ab427,65d2b6c8f2eece985d8e374c,65d2b9dff54f05027e23ca1d,0.059,0.06,1,20,182,111,1,eightseven,,,,,,,,,,,,,,,,,,,,,,,,,,,,,,,,,,,,,,,,,,,,,,,,,,,,,,,,,,,,,,,,,,,,,,,,,,,,,,,,,,,,,,,,,,,,,,,,,,,,,,,,,,,,,,,,,,,,,,,,,,,,,,,,,,,,,,,,,
,,5c849a40a869d400179ab427,2024-02-18_21h16.31.911,kallum_motion_pilot,2023.2.2,Win32,59.88023952,5c849a40a869d400179ab427,65d2b6c8f2eece985d8e374c,65d2b9dff54f05027e23ca1d,0.06,0.06,1,21,183,160,1,fivesix,,,,,,,,,,,,,,,,,,,,,,,,,,,,,,,,,,,,,,,,,,,,,,,,,,,,,,,,,,,,,,,,,,,,,,,,,,,,,,,,,,,,,,,,,,,,,,,,,,,,,,,,,,,,,,,,,,,,,,,,,,,,,,,,,,,,,,,,,
,,5c849a40a869d400179ab427,2024-02-18_21h16.31.911,kallum_motion_pilot,2023.2.2,Win32,59.88023952,5c849a40a869d400179ab427,65d2b6c8f2eece985d8e374c,65d2b9dff54f05027e23ca1d,0.06,0.06,1,22,184,51,1,twofour,,,,,,,,,,,,,,,,,,,,,,,,,,,,,,,,,,,,,,,,,,,,,,,,,,,,,,,,,,,,,,,,,,,,,,,,,,,,,,,,,,,,,,,,,,,,,,,,,,,,,,,,,,,,,,,,,,,,,,,,,,,,,,,,,,,,,,,,,
,,5c849a40a869d400179ab427,2024-02-18_21h16.31.911,kallum_motion_pilot,2023.2.2,Win32,59.88023952,5c849a40a869d400179ab427,65d2b6c8f2eece985d8e374c,65d2b9dff54f05027e23ca1d,0.06,0.06,1,23,185,145,1,fiveseven,,,,,,,,,,,,,,,,,,,,,,,,,,,,,,,,,,,,,,,,,,,,,,,,,,,,,,,,,,,,,,,,,,,,,,,,,,,,,,,,,,,,,,,,,,,,,,,,,,,,,,,,,,,,,,,,,,,,,,,,,,,,,,,,,,,,,,,,,
,,5c849a40a869d400179ab427,2024-02-18_21h16.31.911,kallum_motion_pilot,2023.2.2,Win32,59.88023952,5c849a40a869d400179ab427,65d2b6c8f2eece985d8e374c,65d2b9dff54f05027e23ca1d,0.06,0.06,1,24,186,21,1,threefour,,,,,,,,,,,,,,,,,,,,,,,,,,,,,,,,,,,,,,,,,,,,,,,,,,,,,,,,,,,,,,,,,,,,,,,,,,,,,,,,,,,,,,,,,,,,,,,,,,,,,,,,,,,,,,,,,,,,,,,,,,,,,,,,,,,,,,,,,
,,5c849a40a869d400179ab427,2024-02-18_21h16.31.911,kallum_motion_pilot,2023.2.2,Win32,59.88023952,5c849a40a869d400179ab427,65d2b6c8f2eece985d8e374c,65d2b9dff54f05027e23ca1d,0.06,0.06,1,25,187,77,1,threefour,,,,,,,,,,,,,,,,,,,,,,,,,,,,,,,,,,,,,,,,,,,,,,,,,,,,,,,,,,,,,,,,,,,,,,,,,,,,,,,,,,,,,,,,,,,,,,,,,,,,,,,,,,,,,,,,,,,,,,,,,,,,,,,,,,,,,,,,,
,,5c849a40a869d400179ab427,2024-02-18_21h16.31.911,kallum_motion_pilot,2023.2.2,Win32,59.88023952,5c849a40a869d400179ab427,65d2b6c8f2eece985d8e374c,65d2b9dff54f05027e23ca1d,0.06,0.06,1,26,188,136,1,fivesix,,,,,,,,,,,,,,,,,,,,,,,,,,,,,,,,,,,,,,,,,,,,,,,,,,,,,,,,,,,,,,,,,,,,,,,,,,,,,,,,,,,,,,,,,,,,,,,,,,,,,,,,,,,,,,,,,,,,,,,,,,,,,,,,,,,,,,,,,
,,5c849a40a869d400179ab427,2024-02-18_21h16.31.911,kallum_motion_pilot,2023.2.2,Win32,59.88023952,5c849a40a869d400179ab427,65d2b6c8f2eece985d8e374c,65d2b9dff54f05027e23ca1d,0.06,0.06,1,27,189,69,1,threefour,,,,,,,,,,,,,,,,,,,,,,,,,,,,,,,,,,,,,,,,,,,,,,,,,,,,,,,,,,,,,,,,,,,,,,,,,,,,,,,,,,,,,,,,,,,,,,,,,,,,,,,,,,,,,,,,,,,,,,,,,,,,,,,,,,,,,,,,,
,,5c849a40a869d400179ab427,2024-02-18_21h16.31.911,kallum_motion_pilot,2023.2.2,Win32,59.88023952,5c849a40a869d400179ab427,65d2b6c8f2eece985d8e374c,65d2b9dff54f05027e23ca1d,0.061,0.061,1,28,190,85,1,seveneight,,,,,,,,,,,,,,,,,,,,,,,,,,,,,,,,,,,,,,,,,,,,,,,,,,,,,,,,,,,,,,,,,,,,,,,,,,,,,,,,,,,,,,,,,,,,,,,,,,,,,,,,,,,,,,,,,,,,,,,,,,,,,,,,,,,,,,,,,
,,5c849a40a869d400179ab427,2024-02-18_21h16.31.911,kallum_motion_pilot,2023.2.2,Win32,59.88023952,5c849a40a869d400179ab427,65d2b6c8f2eece985d8e374c,65d2b9dff54f05027e23ca1d,0.061,0.061,1,29,191,26,1,twoone,,,,,,,,,,,,,,,,,,,,,,,,,,,,,,,,,,,,,,,,,,,,,,,,,,,,,,,,,,,,,,,,,,,,,,,,,,,,,,,,,,,,,,,,,,,,,,,,,,,,,,,,,,,,,,,,,,,,,,,,,,,,,,,,,,,,,,,,,
,,5c849a40a869d400179ab427,2024-02-18_21h16.31.911,kallum_motion_pilot,2023.2.2,Win32,59.88023952,5c849a40a869d400179ab427,65d2b6c8f2eece985d8e374c,65d2b9dff54f05027e23ca1d,0.061,0.061,1,30,192,46,1,fourtwo,,,,,,,,,,,,,,,,,,,,,,,,,,,,,,,,,,,,,,,,,,,,,,,,,,,,,,,,,,,,,,,,,,,,,,,,,,,,,,,,,,,,,,,,,,,,,,,,,,,,,,,,,,,,,,,,,,,,,,,,,,,,,,,,,,,,,,,,,
,,5c849a40a869d400179ab427,2024-02-18_21h16.31.911,kallum_motion_pilot,2023.2.2,Win32,59.88023952,5c849a40a869d400179ab427,65d2b6c8f2eece985d8e374c,65d2b9dff54f05027e23ca1d,0.061,0.061,1,31,193,94,1,eightsix,,,,,,,,,,,,,,,,,,,,,,,,,,,,,,,,,,,,,,,,,,,,,,,,,,,,,,,,,,,,,,,,,,,,,,,,,,,,,,,,,,,,,,,,,,,,,,,,,,,,,,,,,,,,,,,,,,,,,,,,,,,,,,,,,,,,,,,,,
,,5c849a40a869d400179ab427,2024-02-18_21h16.31.911,kallum_motion_pilot,2023.2.2,Win32,59.88023952,5c849a40a869d400179ab427,65d2b6c8f2eece985d8e374c,65d2b9dff54f05027e23ca1d,0.061,0.061,1,32,194,93,1,seveneight,,,,,,,,,,,,,,,,,,,,,,,,,,,,,,,,,,,,,,,,,,,,,,,,,,,,,,,,,,,,,,,,,,,,,,,,,,,,,,,,,,,,,,,,,,,,,,,,,,,,,,,,,,,,,,,,,,,,,,,,,,,,,,,,,,,,,,,,,
,,5c849a40a869d400179ab427,2024-02-18_21h16.31.911,kallum_motion_pilot,2023.2.2,Win32,59.88023952,5c849a40a869d400179ab427,65d2b6c8f2eece985d8e374c,65d2b9dff54f05027e23ca1d,0.061,0.061,1,33,195,22,1,fourtwo,,,,,,,,,,,,,,,,,,,,,,,,,,,,,,,,,,,,,,,,,,,,,,,,,,,,,,,,,,,,,,,,,,,,,,,,,,,,,,,,,,,,,,,,,,,,,,,,,,,,,,,,,,,,,,,,,,,,,,,,,,,,,,,,,,,,,,,,,
,,5c849a40a869d400179ab427,2024-02-18_21h16.31.911,kallum_motion_pilot,2023.2.2,Win32,59.88023952,5c849a40a869d400179ab427,65d2b6c8f2eece985d8e374c,65d2b9dff54f05027e23ca1d,0.061,0.061,1,34,196,40,1,onetwo,,,,,,,,,,,,,,,,,,,,,,,,,,,,,,,,,,,,,,,,,,,,,,,,,,,,,,,,,,,,,,,,,,,,,,,,,,,,,,,,,,,,,,,,,,,,,,,,,,,,,,,,,,,,,,,,,,,,,,,,,,,,,,,,,,,,,,,,,
,,5c849a40a869d400179ab427,2024-02-18_21h16.31.911,kallum_motion_pilot,2023.2.2,Win32,59.88023952,5c849a40a869d400179ab427,65d2b6c8f2eece985d8e374c,65d2b9dff54f05027e23ca1d,0.061,0.061,1,35,197,38,1,fourtwo,,,,,,,,,,,,,,,,,,,,,,,,,,,,,,,,,,,,,,,,,,,,,,,,,,,,,,,,,,,,,,,,,,,,,,,,,,,,,,,,,,,,,,,,,,,,,,,,,,,,,,,,,,,,,,,,,,,,,,,,,,,,,,,,,,,,,,,,,
,,5c849a40a869d400179ab427,2024-02-18_21h16.31.911,kallum_motion_pilot,2023.2.2,Win32,59.88023952,5c849a40a869d400179ab427,65d2b6c8f2eece985d8e374c,65d2b9dff54f05027e23ca1d,0.062,0.062,1,36,198,48,1,onetwo,,,,,,,,,,,,,,,,,,,,,,,,,,,,,,,,,,,,,,,,,,,,,,,,,,,,,,,,,,,,,,,,,,,,,,,,,,,,,,,,,,,,,,,,,,,,,,,,,,,,,,,,,,,,,,,,,,,,,,,,,,,,,,,,,,,,,,,,,
,,5c849a40a869d400179ab427,2024-02-18_21h16.31.911,kallum_motion_pilot,2023.2.2,Win32,59.88023952,5c849a40a869d400179ab427,65d2b6c8f2eece985d8e374c,65d2b9dff54f05027e23ca1d,0.062,0.062,1,37,199,154,1,sixfive,,,,,,,,,,,,,,,,,,,,,,,,,,,,,,,,,,,,,,,,,,,,,,,,,,,,,,,,,,,,,,,,,,,,,,,,,,,,,,,,,,,,,,,,,,,,,,,,,,,,,,,,,,,,,,,,,,,,,,,,,,,,,,,,,,,,,,,,,
,,5c849a40a869d400179ab427,2024-02-18_21h16.31.911,kallum_motion_pilot,2023.2.2,Win32,59.88023952,5c849a40a869d400179ab427,65d2b6c8f2eece985d8e374c,65d2b9dff54f05027e23ca1d,0.062,0.062,1,38,200,13,1,threefour,,,,,,,,,,,,,,,,,,,,,,,,,,,,,,,,,,,,,,,,,,,,,,,,,,,,,,,,,,,,,,,,,,,,,,,,,,,,,,,,,,,,,,,,,,,,,,,,,,,,,,,,,,,,,,,,,,,,,,,,,,,,,,,,,,,,,,,,,
,,5c849a40a869d400179ab427,2024-02-18_21h16.31.911,kallum_motion_pilot,2023.2.2,Win32,59.88023952,5c849a40a869d400179ab427,65d2b6c8f2eece985d8e374c,65d2b9dff54f05027e23ca1d,0.062,0.062,1,39,201,108,1,sevenfive,,,,,,,,,,,,,,,,,,,,,,,,,,,,,,,,,,,,,,,,,,,,,,,,,,,,,,,,,,,,,,,,,,,,,,,,,,,,,,,,,,,,,,,,,,,,,,,,,,,,,,,,,,,,,,,,,,,,,,,,,,,,,,,,,,,,,,,,,
,,5c849a40a869d400179ab427,2024-02-18_21h16.31.911,kallum_motion_pilot,2023.2.2,Win32,59.88023952,5c849a40a869d400179ab427,65d2b6c8f2eece985d8e374c,65d2b9dff54f05027e23ca1d,0.062,0.062,1,40,202,43,1,twofour,,,,,,,,,,,,,,,,,,,,,,,,,,,,,,,,,,,,,,,,,,,,,,,,,,,,,,,,,,,,,,,,,,,,,,,,,,,,,,,,,,,,,,,,,,,,,,,,,,,,,,,,,,,,,,,,,,,,,,,,,,,,,,,,,,,,,,,,,
,,5c849a40a869d400179ab427,2024-02-18_21h16.31.911,kallum_motion_pilot,2023.2.2,Win32,59.88023952,5c849a40a869d400179ab427,65d2b6c8f2eece985d8e374c,65d2b9dff54f05027e23ca1d,0.062,0.062,1,41,203,144,1,fivesix,,,,,,,,,,,,,,,,,,,,,,,,,,,,,,,,,,,,,,,,,,,,,,,,,,,,,,,,,,,,,,,,,,,,,,,,,,,,,,,,,,,,,,,,,,,,,,,,,,,,,,,,,,,,,,,,,,,,,,,,,,,,,,,,,,,,,,,,,
,,5c849a40a869d400179ab427,2024-02-18_21h16.31.911,kallum_motion_pilot,2023.2.2,Win32,59.88023952,5c849a40a869d400179ab427,65d2b6c8f2eece985d8e374c,65d2b9dff54f05027e23ca1d,0.062,0.062,1,42,204,156,1,sevenfive,,,,,,,,,,,,,,,,,,,,,,,,,,,,,,,,,,,,,,,,,,,,,,,,,,,,,,,,,,,,,,,,,,,,,,,,,,,,,,,,,,,,,,,,,,,,,,,,,,,,,,,,,,,,,,,,,,,,,,,,,,,,,,,,,,,,,,,,,
,,5c849a40a869d400179ab427,2024-02-18_21h16.31.911,kallum_motion_pilot,2023.2.2,Win32,59.88023952,5c849a40a869d400179ab427,65d2b6c8f2eece985d8e374c,65d2b9dff54f05027e23ca1d,0.062,0.062,1,43,205,45,1,threefour,,,,,,,,,,,,,,,,,,,,,,,,,,,,,,,,,,,,,,,,,,,,,,,,,,,,,,,,,,,,,,,,,,,,,,,,,,,,,,,,,,,,,,,,,,,,,,,,,,,,,,,,,,,,,,,,,,,,,,,,,,,,,,,,,,,,,,,,,
,,5c849a40a869d400179ab427,2024-02-18_21h16.31.911,kallum_motion_pilot,2023.2.2,Win32,59.88023952,5c849a40a869d400179ab427,65d2b6c8f2eece985d8e374c,65d2b9dff54f05027e23ca1d,0.062,0.062,1,44,206,81,1,fiveseven,,,,,,,,,,,,,,,,,,,,,,,,,,,,,,,,,,,,,,,,,,,,,,,,,,,,,,,,,,,,,,,,,,,,,,,,,,,,,,,,,,,,,,,,,,,,,,,,,,,,,,,,,,,,,,,,,,,,,,,,,,,,,,,,,,,,,,,,,
,,5c849a40a869d400179ab427,2024-02-18_21h16.31.911,kallum_motion_pilot,2023.2.2,Win32,59.88023952,5c849a40a869d400179ab427,65d2b6c8f2eece985d8e374c,65d2b9dff54f05027e23ca1d,0.062,0.062,1,45,207,50,1,twoone,,,,,,,,,,,,,,,,,,,,,,,,,,,,,,,,,,,,,,,,,,,,,,,,,,,,,,,,,,,,,,,,,,,,,,,,,,,,,,,,,,,,,,,,,,,,,,,,,,,,,,,,,,,,,,,,,,,,,,,,,,,,,,,,,,,,,,,,,
,,5c849a40a869d400179ab427,2024-02-18_21h16.31.911,kallum_motion_pilot,2023.2.2,Win32,59.88023952,5c849a40a869d400179ab427,65d2b6c8f2eece985d8e374c,65d2b9dff54f05027e23ca1d,0.063,0.063,1,46,208,140,1,sevenfive,,,,,,,,,,,,,,,,,,,,,,,,,,,,,,,,,,,,,,,,,,,,,,,,,,,,,,,,,,,,,,,,,,,,,,,,,,,,,,,,,,,,,,,,,,,,,,,,,,,,,,,,,,,,,,,,,,,,,,,,,,,,,,,,,,,,,,,,,
,,5c849a40a869d400179ab427,2024-02-18_21h16.31.911,kallum_motion_pilot,2023.2.2,Win32,59.88023952,5c849a40a869d400179ab427,65d2b6c8f2eece985d8e374c,65d2b9dff54f05027e23ca1d,0.063,0.063,1,47,209,58,1,twoone,,,,,,,,,,,,,,,,,,,,,,,,,,,,,,,,,,,,,,,,,,,,,,,,,,,,,,,,,,,,,,,,,,,,,,,,,,,,,,,,,,,,,,,,,,,,,,,,,,,,,,,,,,,,,,,,,,,,,,,,,,,,,,,,,,,,,,,,,
,,5c849a40a869d400179ab427,2024-02-18_21h16.31.911,kallum_motion_pilot,2023.2.2,Win32,59.88023952,5c849a40a869d400179ab427,65d2b6c8f2eece985d8e374c,65d2b9dff54f05027e23ca1d,0.063,0.063,1,48,210,105,1,fiveseven,,,,,,,,,,,,,,,,,,,,,,,,,,,,,,,,,,,,,,,,,,,,,,,,,,,,,,,,,,,,,,,,,,,,,,,,,,,,,,,,,,,,,,,,,,,,,,,,,,,,,,,,,,,,,,,,,,,,,,,,,,,,,,,,,,,,,,,,,
,,5c849a40a869d400179ab427,2024-02-18_21h16.31.911,kallum_motion_pilot,2023.2.2,Win32,59.88023952,5c849a40a869d400179ab427,65d2b6c8f2eece985d8e374c,65d2b9dff54f05027e23ca1d,0.063,0.063,1,49,211,155,1,sixeight,,,,,,,,,,,,,,,,,,,,,,,,,,,,,,,,,,,,,,,,,,,,,,,,,,,,,,,,,,,,,,,,,,,,,,,,,,,,,,,,,,,,,,,,,,,,,,,,,,,,,,,,,,,,,,,,,,,,,,,,,,,,,,,,,,,,,,,,,
,,5c849a40a869d400179ab427,2024-02-18_21h16.31.911,kallum_motion_pilot,2023.2.2,Win32,59.88023952,5c849a40a869d400179ab427,65d2b6c8f2eece985d8e374c,65d2b9dff54f05027e23ca1d,0.063,0.063,1,50,212,114,1,sixfive,,,,,,,,,,,,,,,,,,,,,,,,,,,,,,,,,,,,,,,,,,,,,,,,,,,,,,,,,,,,,,,,,,,,,,,,,,,,,,,,,,,,,,,,,,,,,,,,,,,,,,,,,,,,,,,,,,,,,,,,,,,,,,,,,,,,,,,,,
,,5c849a40a869d400179ab427,2024-02-18_21h16.31.911,kallum_motion_pilot,2023.2.2,Win32,59.88023952,5c849a40a869d400179ab427,65d2b6c8f2eece985d8e374c,65d2b9dff54f05027e23ca1d,0.063,0.063,1,51,213,79,1,eightseven,,,,,,,,,,,,,,,,,,,,,,,,,,,,,,,,,,,,,,,,,,,,,,,,,,,,,,,,,,,,,,,,,,,,,,,,,,,,,,,,,,,,,,,,,,,,,,,,,,,,,,,,,,,,,,,,,,,,,,,,,,,,,,,,,,,,,,,,,
,,5c849a40a869d400179ab427,2024-02-18_21h16.31.911,kallum_motion_pilot,2023.2.2,Win32,59.88023952,5c849a40a869d400179ab427,65d2b6c8f2eece985d8e374c,65d2b9dff54f05027e23ca1d,0.063,0.063,1,52,214,123,1,sixeight,,,,,,,,,,,,,,,,,,,,,,,,,,,,,,,,,,,,,,,,,,,,,,,,,,,,,,,,,,,,,,,,,,,,,,,,,,,,,,,,,,,,,,,,,,,,,,,,,,,,,,,,,,,,,,,,,,,,,,,,,,,,,,,,,,,,,,,,,
,,5c849a40a869d400179ab427,2024-02-18_21h16.31.911,kallum_motion_pilot,2023.2.2,Win32,59.88023952,5c849a40a869d400179ab427,65d2b6c8f2eece985d8e374c,65d2b9dff54f05027e23ca1d,0.063,0.063,1,53,215,143,1,eightseven,,,,,,,,,,,,,,,,,,,,,,,,,,,,,,,,,,,,,,,,,,,,,,,,,,,,,,,,,,,,,,,,,,,,,,,,,,,,,,,,,,,,,,,,,,,,,,,,,,,,,,,,,,,,,,,,,,,,,,,,,,,,,,,,,,,,,,,,,
,,5c849a40a869d400179ab427,2024-02-18_21h16.31.911,kallum_motion_pilot,2023.2.2,Win32,59.88023952,5c849a40a869d400179ab427,65d2b6c8f2eece985d8e374c,65d2b9dff54f05027e23ca1d,0.063,0.063,1,54,216,30,1,fourtwo,,,,,,,,,,,,,,,,,,,,,,,,,,,,,,,,,,,,,,,,,,,,,,,,,,,,,,,,,,,,,,,,,,,,,,,,,,,,,,,,,,,,,,,,,,,,,,,,,,,,,,,,,,,,,,,,,,,,,,,,,,,,,,,,,,,,,,,,,
,,5c849a40a869d400179ab427,2024-02-18_21h16.31.911,kallum_motion_pilot,2023.2.2,Win32,59.88023952,5c849a40a869d400179ab427,65d2b6c8f2eece985d8e374c,65d2b9dff54f05027e23ca1d,0.064,0.064,1,55,217,32,1,onetwo,,,,,,,,,,,,,,,,,,,,,,,,,,,,,,,,,,,,,,,,,,,,,,,,,,,,,,,,,,,,,,,,,,,,,,,,,,,,,,,,,,,,,,,,,,,,,,,,,,,,,,,,,,,,,,,,,,,,,,,,,,,,,,,,,,,,,,,,,
,,5c849a40a869d400179ab427,2024-02-18_21h16.31.911,kallum_motion_pilot,2023.2.2,Win32,59.88023952,5c849a40a869d400179ab427,65d2b6c8f2eece985d8e374c,65d2b9dff54f05027e23ca1d,0.064,0.064,1,56,218,99,1,sixeight,,,,,,,,,,,,,,,,,,,,,,,,,,,,,,,,,,,,,,,,,,,,,,,,,,,,,,,,,,,,,,,,,,,,,,,,,,,,,,,,,,,,,,,,,,,,,,,,,,,,,,,,,,,,,,,,,,,,,,,,,,,,,,,,,,,,,,,,,
,,5c849a40a869d400179ab427,2024-02-18_21h16.31.911,kallum_motion_pilot,2023.2.2,Win32,59.88023952,5c849a40a869d400179ab427,65d2b6c8f2eece985d8e374c,65d2b9dff54f05027e23ca1d,0.064,0.064,1,57,219,106,1,sixfive,,,,,,,,,,,,,,,,,,,,,,,,,,,,,,,,,,,,,,,,,,,,,,,,,,,,,,,,,,,,,,,,,,,,,,,,,,,,,,,,,,,,,,,,,,,,,,,,,,,,,,,,,,,,,,,,,,,,,,,,,,,,,,,,,,,,,,,,,
,,5c849a40a869d400179ab427,2024-02-18_21h16.31.911,kallum_motion_pilot,2023.2.2,Win32,59.88023952,5c849a40a869d400179ab427,65d2b6c8f2eece985d8e374c,65d2b9dff54f05027e23ca1d,0.064,0.064,1,58,220,41,1,onethree,,,,,,,,,,,,,,,,,,,,,,,,,,,,,,,,,,,,,,,,,,,,,,,,,,,,,,,,,,,,,,,,,,,,,,,,,,,,,,,,,,,,,,,,,,,,,,,,,,,,,,,,,,,,,,,,,,,,,,,,,,,,,,,,,,,,,,,,,
,,5c849a40a869d400179ab427,2024-02-18_21h16.31.911,kallum_motion_pilot,2023.2.2,Win32,59.88023952,5c849a40a869d400179ab427,65d2b6c8f2eece985d8e374c,65d2b9dff54f05027e23ca1d,0.064,0.064,1,59,221,82,1,sixfive,,,,,,,,,,,,,,,,,,,,,,,,,,,,,,,,,,,,,,,,,,,,,,,,,,,,,,,,,,,,,,,,,,,,,,,,,,,,,,,,,,,,,,,,,,,,,,,,,,,,,,,,,,,,,,,,,,,,,,,,,,,,,,,,,,,,,,,,,
,,5c849a40a869d400179ab427,2024-02-18_21h16.31.911,kallum_motion_pilot,2023.2.2,Win32,59.88023952,5c849a40a869d400179ab427,65d2b6c8f2eece985d8e374c,65d2b9dff54f05027e23ca1d,0.064,0.064,1,60,222,118,1,eightsix,,,,,,,,,,,,,,,,,,,,,,,,,,,,,,,,,,,,,,,,,,,,,,,,,,,,,,,,,,,,,,,,,,,,,,,,,,,,,,,,,,,,,,,,,,,,,,,,,,,,,,,,,,,,,,,,,,,,,,,,,,,,,,,,,,,,,,,,,
,,5c849a40a869d400179ab427,2024-02-18_21h16.31.911,kallum_motion_pilot,2023.2.2,Win32,59.88023952,5c849a40a869d400179ab427,65d2b6c8f2eece985d8e374c,65d2b9dff54f05027e23ca1d,0.064,0.064,1,61,223,126,1,eightsix,,,,,,,,,,,,,,,,,,,,,,,,,,,,,,,,,,,,,,,,,,,,,,,,,,,,,,,,,,,,,,,,,,,,,,,,,,,,,,,,,,,,,,,,,,,,,,,,,,,,,,,,,,,,,,,,,,,,,,,,,,,,,,,,,,,,,,,,,
,,5c849a40a869d400179ab427,2024-02-18_21h16.31.911,kallum_motion_pilot,2023.2.2,Win32,59.88023952,5c849a40a869d400179ab427,65d2b6c8f2eece985d8e374c,65d2b9dff54f05027e23ca1d,0.064,0.064,1,62,224,39,1,fourthree,,,,,,,,,,,,,,,,,,,,,,,,,,,,,,,,,,,,,,,,,,,,,,,,,,,,,,,,,,,,,,,,,,,,,,,,,,,,,,,,,,,,,,,,,,,,,,,,,,,,,,,,,,,,,,,,,,,,,,,,,,,,,,,,,,,,,,,,,
,,5c849a40a869d400179ab427,2024-02-18_21h16.31.911,kallum_motion_pilot,2023.2.2,Win32,59.88023952,5c849a40a869d400179ab427,65d2b6c8f2eece985d8e374c,65d2b9dff54f05027e23ca1d,0.064,0.064,1,63,225,74,1,twoone,,,,,,,,,,,,,,,,,,,,,,,,,,,,,,,,,,,,,,,,,,,,,,,,,,,,,,,,,,,,,,,,,,,,,,,,,,,,,,,,,,,,,,,,,,,,,,,,,,,,,,,,,,,,,,,,,,,,,,,,,,,,,,,,,,,,,,,,,
,,5c849a40a869d400179ab427,2024-02-18_21h16.31.911,kallum_motion_pilot,2023.2.2,Win32,59.88023952,5c849a40a869d400179ab427,65d2b6c8f2eece985d8e374c,65d2b9dff54f05027e23ca1d,0.064,0.064,1,64,226,56,1,onetwo,,,,,,,,,,,,,,,,,,,,,,,,,,,,,,,,,,,,,,,,,,,,,,,,,,,,,,,,,,,,,,,,,,,,,,,,,,,,,,,,,,,,,,,,,,,,,,,,,,,,,,,,,,,,,,,,,,,,,,,,,,,,,,,,,,,,,,,,,
,,5c849a40a869d400179ab427,2024-02-18_21h16.31.911,kallum_motion_pilot,2023.2.2,Win32,59.88023952,5c849a40a869d400179ab427,65d2b6c8f2eece985d8e374c,65d2b9dff54f05027e23ca1d,0.065,0.065,1,65,227,33,1,onethree,,,,,,,,,,,,,,,,,,,,,,,,,,,,,,,,,,,,,,,,,,,,,,,,,,,,,,,,,,,,,,,,,,,,,,,,,,,,,,,,,,,,,,,,,,,,,,,,,,,,,,,,,,,,,,,,,,,,,,,,,,,,,,,,,,,,,,,,,
,,5c849a40a869d400179ab427,2024-02-18_21h16.31.911,kallum_motion_pilot,2023.2.2,Win32,59.88023952,5c849a40a869d400179ab427,65d2b6c8f2eece985d8e374c,65d2b9dff54f05027e23ca1d,0.065,0.065,1,66,228,95,1,eightseven,,,,,,,,,,,,,,,,,,,,,,,,,,,,,,,,,,,,,,,,,,,,,,,,,,,,,,,,,,,,,,,,,,,,,,,,,,,,,,,,,,,,,,,,,,,,,,,,,,,,,,,,,,,,,,,,,,,,,,,,,,,,,,,,,,,,,,,,,
,,5c849a40a869d400179ab427,2024-02-18_21h16.31.911,kallum_motion_pilot,2023.2.2,Win32,59.88023952,5c849a40a869d400179ab427,65d2b6c8f2eece985d8e374c,65d2b9dff54f05027e23ca1d,0.065,0.065,1,67,229,67,1,twofour,,,,,,,,,,,,,,,,,,,,,,,,,,,,,,,,,,,,,,,,,,,,,,,,,,,,,,,,,,,,,,,,,,,,,,,,,,,,,,,,,,,,,,,,,,,,,,,,,,,,,,,,,,,,,,,,,,,,,,,,,,,,,,,,,,,,,,,,,
,,5c849a40a869d400179ab427,2024-02-18_21h16.31.911,kallum_motion_pilot,2023.2.2,Win32,59.88023952,5c849a40a869d400179ab427,65d2b6c8f2eece985d8e374c,65d2b9dff54f05027e23ca1d,0.065,0.065,1,68,230,92,1,sevenfive,,,,,,,,,,,,,,,,,,,,,,,,,,,,,,,,,,,,,,,,,,,,,,,,,,,,,,,,,,,,,,,,,,,,,,,,,,,,,,,,,,,,,,,,,,,,,,,,,,,,,,,,,,,,,,,,,,,,,,,,,,,,,,,,,,,,,,,,,
,,5c849a40a869d400179ab427,2024-02-18_21h16.31.911,kallum_motion_pilot,2023.2.2,Win32,59.88023952,5c849a40a869d400179ab427,65d2b6c8f2eece985d8e374c,65d2b9dff54f05027e23ca1d,0.065,0.065,1,69,231,75,1,twofour,,,,,,,,,,,,,,,,,,,,,,,,,,,,,,,,,,,,,,,,,,,,,,,,,,,,,,,,,,,,,,,,,,,,,,,,,,,,,,,,,,,,,,,,,,,,,,,,,,,,,,,,,,,,,,,,,,,,,,,,,,,,,,,,,,,,,,,,,
,,5c849a40a869d400179ab427,2024-02-18_21h16.31.911,kallum_motion_pilot,2023.2.2,Win32,59.88023952,5c849a40a869d400179ab427,65d2b6c8f2eece985d8e374c,65d2b9dff54f05027e23ca1d,0.065,0.065,1,70,232,138,1,sixfive,,,,,,,,,,,,,,,,,,,,,,,,,,,,,,,,,,,,,,,,,,,,,,,,,,,,,,,,,,,,,,,,,,,,,,,,,,,,,,,,,,,,,,,,,,,,,,,,,,,,,,,,,,,,,,,,,,,,,,,,,,,,,,,,,,,,,,,,,
,,5c849a40a869d400179ab427,2024-02-18_21h16.31.911,kallum_motion_pilot,2023.2.2,Win32,59.88023952,5c849a40a869d400179ab427,65d2b6c8f2eece985d8e374c,65d2b9dff54f05027e23ca1d,0.065,0.065,1,71,233,15,1,fourthree,,,,,,,,,,,,,,,,,,,,,,,,,,,,,,,,,,,,,,,,,,,,,,,,,,,,,,,,,,,,,,,,,,,,,,,,,,,,,,,,,,,,,,,,,,,,,,,,,,,,,,,,,,,,,,,,,,,,,,,,,,,,,,,,,,,,,,,,,
,,5c849a40a869d400179ab427,2024-02-18_21h16.31.911,kallum_motion_pilot,2023.2.2,Win32,59.88023952,5c849a40a869d400179ab427,65d2b6c8f2eece985d8e374c,65d2b9dff54f05027e23ca1d,0.065,0.065,1,72,234,147,1,sixeight,,,,,,,,,,,,,,,,,,,,,,,,,,,,,,,,,,,,,,,,,,,,,,,,,,,,,,,,,,,,,,,,,,,,,,,,,,,,,,,,,,,,,,,,,,,,,,,,,,,,,,,,,,,,,,,,,,,,,,,,,,,,,,,,,,,,,,,,,
,,5c849a40a869d400179ab427,2024-02-18_21h16.31.911,kallum_motion_pilot,2023.2.2,Win32,59.88023952,5c849a40a869d400179ab427,65d2b6c8f2eece985d8e374c,65d2b9dff54f05027e23ca1d,0.065,0.066,1,73,235,11,1,twofour,,,,,,,,,,,,,,,,,,,,,,,,,,,,,,,,,,,,,,,,,,,,,,,,,,,,,,,,,,,,,,,,,,,,,,,,,,,,,,,,,,,,,,,,,,,,,,,,,,,,,,,,,,,,,,,,,,,,,,,,,,,,,,,,,,,,,,,,,
,,5c849a40a869d400179ab427,2024-02-18_21h16.31.911,kallum_motion_pilot,2023.2.2,Win32,59.88023952,5c849a40a869d400179ab427,65d2b6c8f2eece985d8e374c,65d2b9dff54f05027e23ca1d,0.066,0.066,1,74,236,101,1,seveneight,,,,,,,,,,,,,,,,,,,,,,,,,,,,,,,,,,,,,,,,,,,,,,,,,,,,,,,,,,,,,,,,,,,,,,,,,,,,,,,,,,,,,,,,,,,,,,,,,,,,,,,,,,,,,,,,,,,,,,,,,,,,,,,,,,,,,,,,,
,,5c849a40a869d400179ab427,2024-02-18_21h16.31.911,kallum_motion_pilot,2023.2.2,Win32,59.88023952,5c849a40a869d400179ab427,65d2b6c8f2eece985d8e374c,65d2b9dff54f05027e23ca1d,0.066,0.066,1,75,237,159,1,eightseven,,,,,,,,,,,,,,,,,,,,,,,,,,,,,,,,,,,,,,,,,,,,,,,,,,,,,,,,,,,,,,,,,,,,,,,,,,,,,,,,,,,,,,,,,,,,,,,,,,,,,,,,,,,,,,,,,,,,,,,,,,,,,,,,,,,,,,,,,
,,5c849a40a869d400179ab427,2024-02-18_21h16.31.911,kallum_motion_pilot,2023.2.2,Win32,59.88023952,5c849a40a869d400179ab427,65d2b6c8f2eece985d8e374c,65d2b9dff54f05027e23ca1d,0.066,0.066,1,76,238,61,1,threefour,,,,,,,,,,,,,,,,,,,,,,,,,,,,,,,,,,,,,,,,,,,,,,,,,,,,,,,,,,,,,,,,,,,,,,,,,,,,,,,,,,,,,,,,,,,,,,,,,,,,,,,,,,,,,,,,,,,,,,,,,,,,,,,,,,,,,,,,,
,,5c849a40a869d400179ab427,2024-02-18_21h16.31.911,kallum_motion_pilot,2023.2.2,Win32,59.88023952,5c849a40a869d400179ab427,65d2b6c8f2eece985d8e374c,65d2b9dff54f05027e23ca1d,0.066,0.066,1,77,239,129,1,fiveseven,,,,,,,,,,,,,,,,,,,,,,,,,,,,,,,,,,,,,,,,,,,,,,,,,,,,,,,,,,,,,,,,,,,,,,,,,,,,,,,,,,,,,,,,,,,,,,,,,,,,,,,,,,,,,,,,,,,,,,,,,,,,,,,,,,,,,,,,,
,,5c849a40a869d400179ab427,2024-02-18_21h16.31.911,kallum_motion_pilot,2023.2.2,Win32,59.88023952,5c849a40a869d400179ab427,65d2b6c8f2eece985d8e374c,65d2b9dff54f05027e23ca1d,0.066,0.066,1,78,240,0,1,onetwo,,,,,,,,,,,,,,,,,,,,,,,,,,,,,,,,,,,,,,,,,,,,,,,,,,,,,,,,,,,,,,,,,,,,,,,,,,,,,,,,,,,,,,,,,,,,,,,,,,,,,,,,,,,,,,,,,,,,,,,,,,,,,,,,,,,,,,,,,
,,5c849a40a869d400179ab427,2024-02-18_21h16.31.911,kallum_motion_pilot,2023.2.2,Win32,59.88023952,5c849a40a869d400179ab427,65d2b6c8f2eece985d8e374c,65d2b9dff54f05027e23ca1d,0.066,0.066,1,79,241,1,1,onethree,,,,,,,,,,,,,,,,,,,,,,,,,,,,,,,,,,,,,,,,,,,,,,,,,,,,,,,,,,,,,,,,,,,,,,,,,,,,,,,,,,,,,,,,,,,,,,,,,,,,,,,,,,,,,,,,,,,,,,,,,,,,,,,,,,,,,,,,,
,,5c849a40a869d400179ab427,2024-02-18_21h16.31.911,kallum_motion_pilot,2023.2.2,Win32,59.88023952,5c849a40a869d400179ab427,65d2b6c8f2eece985d8e374c,65d2b9dff54f05027e23ca1d,0.066,0.067,1,80,242,131,1,sixeight,,,,,,,,,,,,,,,,,,,,,,,,,,,,,,,,,,,,,,,,,,,,,,,,,,,,,,,,,,,,,,,,,,,,,,,,,,,,,,,,,,,,,,,,,,,,,,,,,,,,,,,,,,,,,,,,,,,,,,,,,,,,,,,,,,,,,,,,,
,,5c849a40a869d400179ab427,2024-02-18_21h16.31.911,kallum_motion_pilot,2023.2.2,Win32,59.88023952,5c849a40a869d400179ab427,65d2b6c8f2eece985d8e374c,65d2b9dff54f05027e23ca1d,0.068,0.068,1,81,243,110,1,eightsix,,,,,,,,,,,,,,,,,,,,,,,,,,,,,,,,,,,,,,,,,,,,,,,,,,,,,,,,,,,,,,,,,,,,,,,,,,,,,,,,,,,,,,,,,,,,,,,,,,,,,,,,,,,,,,,,,,,,,,,,,,,,,,,,,,,,,,,,,
,,5c849a40a869d400179ab427,2024-02-18_21h16.31.911,kallum_motion_pilot,2023.2.2,Win32,59.88023952,5c849a40a869d400179ab427,65d2b6c8f2eece985d8e374c,65d2b9dff54f05027e23ca1d,0.068,0.068,1,82,244,55,1,fourthree,,,,,,,,,,,,,,,,,,,,,,,,,,,,,,,,,,,,,,,,,,,,,,,,,,,,,,,,,,,,,,,,,,,,,,,,,,,,,,,,,,,,,,,,,,,,,,,,,,,,,,,,,,,,,,,,,,,,,,,,,,,,,,,,,,,,,,,,,
,,5c849a40a869d400179ab427,2024-02-18_21h16.31.911,kallum_motion_pilot,2023.2.2,Win32,59.88023952,5c849a40a869d400179ab427,65d2b6c8f2eece985d8e374c,65d2b9dff54f05027e23ca1d,0.068,0.068,1,83,245,60,1,threeone,,,,,,,,,,,,,,,,,,,,,,,,,,,,,,,,,,,,,,,,,,,,,,,,,,,,,,,,,,,,,,,,,,,,,,,,,,,,,,,,,,,,,,,,,,,,,,,,,,,,,,,,,,,,,,,,,,,,,,,,,,,,,,,,,,,,,,,,,
,,5c849a40a869d400179ab427,2024-02-18_21h16.31.911,kallum_motion_pilot,2023.2.2,Win32,59.88023952,5c849a40a869d400179ab427,65d2b6c8f2eece985d8e374c,65d2b9dff54f05027e23ca1d,0.068,0.068,1,84,246,34,1,twoone,,,,,,,,,,,,,,,,,,,,,,,,,,,,,,,,,,,,,,,,,,,,,,,,,,,,,,,,,,,,,,,,,,,,,,,,,,,,,,,,,,,,,,,,,,,,,,,,,,,,,,,,,,,,,,,,,,,,,,,,,,,,,,,,,,,,,,,,,
,,5c849a40a869d400179ab427,2024-02-18_21h16.31.911,kallum_motion_pilot,2023.2.2,Win32,59.88023952,5c849a40a869d400179ab427,65d2b6c8f2eece985d8e374c,65d2b9dff54f05027e23ca1d,0.069,0.069,1,85,247,124,1,sevenfive,,,,,,,,,,,,,,,,,,,,,,,,,,,,,,,,,,,,,,,,,,,,,,,,,,,,,,,,,,,,,,,,,,,,,,,,,,,,,,,,,,,,,,,,,,,,,,,,,,,,,,,,,,,,,,,,,,,,,,,,,,,,,,,,,,,,,,,,,
,,5c849a40a869d400179ab427,2024-02-18_21h16.31.911,kallum_motion_pilot,2023.2.2,Win32,59.88023952,5c849a40a869d400179ab427,65d2b6c8f2eece985d8e374c,65d2b9dff54f05027e23ca1d,0.069,0.069,1,86,248,14,1,fourtwo,,,,,,,,,,,,,,,,,,,,,,,,,,,,,,,,,,,,,,,,,,,,,,,,,,,,,,,,,,,,,,,,,,,,,,,,,,,,,,,,,,,,,,,,,,,,,,,,,,,,,,,,,,,,,,,,,,,,,,,,,,,,,,,,,,,,,,,,,
,,5c849a40a869d400179ab427,2024-02-18_21h16.31.911,kallum_motion_pilot,2023.2.2,Win32,59.88023952,5c849a40a869d400179ab427,65d2b6c8f2eece985d8e374c,65d2b9dff54f05027e23ca1d,0.069,0.069,1,87,249,84,1,sevenfive,,,,,,,,,,,,,,,,,,,,,,,,,,,,,,,,,,,,,,,,,,,,,,,,,,,,,,,,,,,,,,,,,,,,,,,,,,,,,,,,,,,,,,,,,,,,,,,,,,,,,,,,,,,,,,,,,,,,,,,,,,,,,,,,,,,,,,,,,
,,5c849a40a869d400179ab427,2024-02-18_21h16.31.911,kallum_motion_pilot,2023.2.2,Win32,59.88023952,5c849a40a869d400179ab427,65d2b6c8f2eece985d8e374c,65d2b9dff54f05027e23ca1d,0.069,0.069,1,88,250,5,1,threefour,,,,,,,,,,,,,,,,,,,,,,,,,,,,,,,,,,,,,,,,,,,,,,,,,,,,,,,,,,,,,,,,,,,,,,,,,,,,,,,,,,,,,,,,,,,,,,,,,,,,,,,,,,,,,,,,,,,,,,,,,,,,,,,,,,,,,,,,,
,,5c849a40a869d400179ab427,2024-02-18_21h16.31.911,kallum_motion_pilot,2023.2.2,Win32,59.88023952,5c849a40a869d400179ab427,65d2b6c8f2eece985d8e374c,65d2b9dff54f05027e23ca1d,0.069,0.069,1,89,251,86,1,eightsix,,,,,,,,,,,,,,,,,,,,,,,,,,,,,,,,,,,,,,,,,,,,,,,,,,,,,,,,,,,,,,,,,,,,,,,,,,,,,,,,,,,,,,,,,,,,,,,,,,,,,,,,,,,,,,,,,,,,,,,,,,,,,,,,,,,,,,,,,
,,5c849a40a869d400179ab427,2024-02-18_21h16.31.911,kallum_motion_pilot,2023.2.2,Win32,59.88023952,5c849a40a869d400179ab427,65d2b6c8f2eece985d8e374c,65d2b9dff54f05027e23ca1d,0.069,0.069,1,90,252,8,1,onetwo,,,,,,,,,,,,,,,,,,,,,,,,,,,,,,,,,,,,,,,,,,,,,,,,,,,,,,,,,,,,,,,,,,,,,,,,,,,,,,,,,,,,,,,,,,,,,,,,,,,,,,,,,,,,,,,,,,,,,,,,,,,,,,,,,,,,,,,,,
,,5c849a40a869d400179ab427,2024-02-18_21h16.31.911,kallum_motion_pilot,2023.2.2,Win32,59.88023952,5c849a40a869d400179ab427,65d2b6c8f2eece985d8e374c,65d2b9dff54f05027e23ca1d,0.069,0.069,1,91,253,151,1,eightseven,,,,,,,,,,,,,,,,,,,,,,,,,,,,,,,,,,,,,,,,,,,,,,,,,,,,,,,,,,,,,,,,,,,,,,,,,,,,,,,,,,,,,,,,,,,,,,,,,,,,,,,,,,,,,,,,,,,,,,,,,,,,,,,,,,,,,,,,,
,,5c849a40a869d400179ab427,2024-02-18_21h16.31.911,kallum_motion_pilot,2023.2.2,Win32,59.88023952,5c849a40a869d400179ab427,65d2b6c8f2eece985d8e374c,65d2b9dff54f05027e23ca1d,0.069,0.069,1,92,254,149,1,seveneight,,,,,,,,,,,,,,,,,,,,,,,,,,,,,,,,,,,,,,,,,,,,,,,,,,,,,,,,,,,,,,,,,,,,,,,,,,,,,,,,,,,,,,,,,,,,,,,,,,,,,,,,,,,,,,,,,,,,,,,,,,,,,,,,,,,,,,,,,
,,5c849a40a869d400179ab427,2024-02-18_21h16.31.911,kallum_motion_pilot,2023.2.2,Win32,59.88023952,5c849a40a869d400179ab427,65d2b6c8f2eece985d8e374c,65d2b9dff54f05027e23ca1d,0.069,0.07,1,93,255,157,1,seveneight,,,,,,,,,,,,,,,,,,,,,,,,,,,,,,,,,,,,,,,,,,,,,,,,,,,,,,,,,,,,,,,,,,,,,,,,,,,,,,,,,,,,,,,,,,,,,,,,,,,,,,,,,,,,,,,,,,,,,,,,,,,,,,,,,,,,,,,,,
,,5c849a40a869d400179ab427,2024-02-18_21h16.31.911,kallum_motion_pilot,2023.2.2,Win32,59.88023952,5c849a40a869d400179ab427,65d2b6c8f2eece985d8e374c,65d2b9dff54f05027e23ca1d,0.07,0.07,1,94,256,132,1,sevenfive,,,,,,,,,,,,,,,,,,,,,,,,,,,,,,,,,,,,,,,,,,,,,,,,,,,,,,,,,,,,,,,,,,,,,,,,,,,,,,,,,,,,,,,,,,,,,,,,,,,,,,,,,,,,,,,,,,,,,,,,,,,,,,,,,,,,,,,,,
,,5c849a40a869d400179ab427,2024-02-18_21h16.31.911,kallum_motion_pilot,2023.2.2,Win32,59.88023952,5c849a40a869d400179ab427,65d2b6c8f2eece985d8e374c,65d2b9dff54f05027e23ca1d,0.07,0.07,1,95,257,102,1,eightsix,,,,,,,,,,,,,,,,,,,,,,,,,,,,,,,,,,,,,,,,,,,,,,,,,,,,,,,,,,,,,,,,,,,,,,,,,,,,,,,,,,,,,,,,,,,,,,,,,,,,,,,,,,,,,,,,,,,,,,,,,,,,,,,,,,,,,,,,,
,,5c849a40a869d400179ab427,2024-02-18_21h16.31.911,kallum_motion_pilot,2023.2.2,Win32,59.88023952,5c849a40a869d400179ab427,65d2b6c8f2eece985d8e374c,65d2b9dff54f05027e23ca1d,0.07,0.07,1,96,258,88,1,fivesix,,,,,,,,,,,,,,,,,,,,,,,,,,,,,,,,,,,,,,,,,,,,,,,,,,,,,,,,,,,,,,,,,,,,,,,,,,,,,,,,,,,,,,,,,,,,,,,,,,,,,,,,,,,,,,,,,,,,,,,,,,,,,,,,,,,,,,,,,
,,5c849a40a869d400179ab427,2024-02-18_21h16.31.911,kallum_motion_pilot,2023.2.2,Win32,59.88023952,5c849a40a869d400179ab427,65d2b6c8f2eece985d8e374c,65d2b9dff54f05027e23ca1d,0.07,0.07,1,97,259,90,1,sixfive,,,,,,,,,,,,,,,,,,,,,,,,,,,,,,,,,,,,,,,,,,,,,,,,,,,,,,,,,,,,,,,,,,,,,,,,,,,,,,,,,,,,,,,,,,,,,,,,,,,,,,,,,,,,,,,,,,,,,,,,,,,,,,,,,,,,,,,,,
,,5c849a40a869d400179ab427,2024-02-18_21h16.31.911,kallum_motion_pilot,2023.2.2,Win32,59.88023952,5c849a40a869d400179ab427,65d2b6c8f2eece985d8e374c,65d2b9dff54f05027e23ca1d,0.07,0.07,1,98,260,112,1,fivesix,,,,,,,,,,,,,,,,,,,,,,,,,,,,,,,,,,,,,,,,,,,,,,,,,,,,,,,,,,,,,,,,,,,,,,,,,,,,,,,,,,,,,,,,,,,,,,,,,,,,,,,,,,,,,,,,,,,,,,,,,,,,,,,,,,,,,,,,,
,,5c849a40a869d400179ab427,2024-02-18_21h16.31.911,kallum_motion_pilot,2023.2.2,Win32,59.88023952,5c849a40a869d400179ab427,65d2b6c8f2eece985d8e374c,65d2b9dff54f05027e23ca1d,0.07,0.07,1,99,261,44,1,threeone,,,,,,,,,,,,,,,,,,,,,,,,,,,,,,,,,,,,,,,,,,,,,,,,,,,,,,,,,,,,,,,,,,,,,,,,,,,,,,,,,,,,,,,,,,,,,,,,,,,,,,,,,,,,,,,,,,,,,,,,,,,,,,,,,,,,,,,,,
,,5c849a40a869d400179ab427,2024-02-18_21h16.31.911,kallum_motion_pilot,2023.2.2,Win32,59.88023952,5c849a40a869d400179ab427,65d2b6c8f2eece985d8e374c,65d2b9dff54f05027e23ca1d,0.07,0.07,1,100,262,16,1,onetwo,,,,,,,,,,,,,,,,,,,,,,,,,,,,,,,,,,,,,,,,,,,,,,,,,,,,,,,,,,,,,,,,,,,,,,,,,,,,,,,,,,,,,,,,,,,,,,,,,,,,,,,,,,,,,,,,,,,,,,,,,,,,,,,,,,,,,,,,,
,,5c849a40a869d400179ab427,2024-02-18_21h16.31.911,kallum_motion_pilot,2023.2.2,Win32,59.88023952,5c849a40a869d400179ab427,65d2b6c8f2eece985d8e374c,65d2b9dff54f05027e23ca1d,0.07,0.07,1,101,263,36,1,threeone,,,,,,,,,,,,,,,,,,,,,,,,,,,,,,,,,,,,,,,,,,,,,,,,,,,,,,,,,,,,,,,,,,,,,,,,,,,,,,,,,,,,,,,,,,,,,,,,,,,,,,,,,,,,,,,,,,,,,,,,,,,,,,,,,,,,,,,,,
,,5c849a40a869d400179ab427,2024-02-18_21h16.31.911,kallum_motion_pilot,2023.2.2,Win32,59.88023952,5c849a40a869d400179ab427,65d2b6c8f2eece985d8e374c,65d2b9dff54f05027e23ca1d,0.07,0.071,1,102,264,24,1,onetwo,,,,,,,,,,,,,,,,,,,,,,,,,,,,,,,,,,,,,,,,,,,,,,,,,,,,,,,,,,,,,,,,,,,,,,,,,,,,,,,,,,,,,,,,,,,,,,,,,,,,,,,,,,,,,,,,,,,,,,,,,,,,,,,,,,,,,,,,,
,,5c849a40a869d400179ab427,2024-02-18_21h16.31.911,kallum_motion_pilot,2023.2.2,Win32,59.88023952,5c849a40a869d400179ab427,65d2b6c8f2eece985d8e374c,65d2b9dff54f05027e23ca1d,0.071,0.071,1,103,265,127,1,eightseven,,,,,,,,,,,,,,,,,,,,,,,,,,,,,,,,,,,,,,,,,,,,,,,,,,,,,,,,,,,,,,,,,,,,,,,,,,,,,,,,,,,,,,,,,,,,,,,,,,,,,,,,,,,,,,,,,,,,,,,,,,,,,,,,,,,,,,,,,
,,5c849a40a869d400179ab427,2024-02-18_21h16.31.911,kallum_motion_pilot,2023.2.2,Win32,59.88023952,5c849a40a869d400179ab427,65d2b6c8f2eece985d8e374c,65d2b9dff54f05027e23ca1d,0.071,0.071,1,104,266,91,1,sixeight,,,,,,,,,,,,,,,,,,,,,,,,,,,,,,,,,,,,,,,,,,,,,,,,,,,,,,,,,,,,,,,,,,,,,,,,,,,,,,,,,,,,,,,,,,,,,,,,,,,,,,,,,,,,,,,,,,,,,,,,,,,,,,,,,,,,,,,,,
,,5c849a40a869d400179ab427,2024-02-18_21h16.31.911,kallum_motion_pilot,2023.2.2,Win32,59.88023952,5c849a40a869d400179ab427,65d2b6c8f2eece985d8e374c,65d2b9dff54f05027e23ca1d,0.071,0.071,1,105,267,52,1,threeone,,,,,,,,,,,,,,,,,,,,,,,,,,,,,,,,,,,,,,,,,,,,,,,,,,,,,,,,,,,,,,,,,,,,,,,,,,,,,,,,,,,,,,,,,,,,,,,,,,,,,,,,,,,,,,,,,,,,,,,,,,,,,,,,,,,,,,,,,
,,5c849a40a869d400179ab427,2024-02-18_21h16.31.911,kallum_motion_pilot,2023.2.2,Win32,59.88023952,5c849a40a869d400179ab427,65d2b6c8f2eece985d8e374c,65d2b9dff54f05027e23ca1d,0.071,0.071,1,106,268,42,1,twoone,,,,,,,,,,,,,,,,,,,,,,,,,,,,,,,,,,,,,,,,,,,,,,,,,,,,,,,,,,,,,,,,,,,,,,,,,,,,,,,,,,,,,,,,,,,,,,,,,,,,,,,,,,,,,,,,,,,,,,,,,,,,,,,,,,,,,,,,,
,,5c849a40a869d400179ab427,2024-02-18_21h16.31.911,kallum_motion_pilot,2023.2.2,Win32,59.88023952,5c849a40a869d400179ab427,65d2b6c8f2eece985d8e374c,65d2b9dff54f05027e23ca1d,0.071,0.071,1,107,269,139,1,sixeight,,,,,,,,,,,,,,,,,,,,,,,,,,,,,,,,,,,,,,,,,,,,,,,,,,,,,,,,,,,,,,,,,,,,,,,,,,,,,,,,,,,,,,,,,,,,,,,,,,,,,,,,,,,,,,,,,,,,,,,,,,,,,,,,,,,,,,,,,
,,5c849a40a869d400179ab427,2024-02-18_21h16.31.911,kallum_motion_pilot,2023.2.2,Win32,59.88023952,5c849a40a869d400179ab427,65d2b6c8f2eece985d8e374c,65d2b9dff54f05027e23ca1d,0.071,0.071,1,108,270,35,1,twofour,,,,,,,,,,,,,,,,,,,,,,,,,,,,,,,,,,,,,,,,,,,,,,,,,,,,,,,,,,,,,,,,,,,,,,,,,,,,,,,,,,,,,,,,,,,,,,,,,,,,,,,,,,,,,,,,,,,,,,,,,,,,,,,,,,,,,,,,,
,,5c849a40a869d400179ab427,2024-02-18_21h16.31.911,kallum_motion_pilot,2023.2.2,Win32,59.88023952,5c849a40a869d400179ab427,65d2b6c8f2eece985d8e374c,65d2b9dff54f05027e23ca1d,0.071,0.071,1,109,271,107,1,sixeight,,,,,,,,,,,,,,,,,,,,,,,,,,,,,,,,,,,,,,,,,,,,,,,,,,,,,,,,,,,,,,,,,,,,,,,,,,,,,,,,,,,,,,,,,,,,,,,,,,,,,,,,,,,,,,,,,,,,,,,,,,,,,,,,,,,,,,,,,
,,5c849a40a869d400179ab427,2024-02-18_21h16.31.911,kallum_motion_pilot,2023.2.2,Win32,59.88023952,5c849a40a869d400179ab427,65d2b6c8f2eece985d8e374c,65d2b9dff54f05027e23ca1d,0.071,0.071,1,110,272,59,1,twofour,,,,,,,,,,,,,,,,,,,,,,,,,,,,,,,,,,,,,,,,,,,,,,,,,,,,,,,,,,,,,,,,,,,,,,,,,,,,,,,,,,,,,,,,,,,,,,,,,,,,,,,,,,,,,,,,,,,,,,,,,,,,,,,,,,,,,,,,,
,,5c849a40a869d400179ab427,2024-02-18_21h16.31.911,kallum_motion_pilot,2023.2.2,Win32,59.88023952,5c849a40a869d400179ab427,65d2b6c8f2eece985d8e374c,65d2b9dff54f05027e23ca1d,0.071,0.071,1,111,273,9,1,onethree,,,,,,,,,,,,,,,,,,,,,,,,,,,,,,,,,,,,,,,,,,,,,,,,,,,,,,,,,,,,,,,,,,,,,,,,,,,,,,,,,,,,,,,,,,,,,,,,,,,,,,,,,,,,,,,,,,,,,,,,,,,,,,,,,,,,,,,,,
,,5c849a40a869d400179ab427,2024-02-18_21h16.31.911,kallum_motion_pilot,2023.2.2,Win32,59.88023952,5c849a40a869d400179ab427,65d2b6c8f2eece985d8e374c,65d2b9dff54f05027e23ca1d,0.071,0.072,1,112,274,117,1,seveneight,,,,,,,,,,,,,,,,,,,,,,,,,,,,,,,,,,,,,,,,,,,,,,,,,,,,,,,,,,,,,,,,,,,,,,,,,,,,,,,,,,,,,,,,,,,,,,,,,,,,,,,,,,,,,,,,,,,,,,,,,,,,,,,,,,,,,,,,,
,,5c849a40a869d400179ab427,2024-02-18_21h16.31.911,kallum_motion_pilot,2023.2.2,Win32,59.88023952,5c849a40a869d400179ab427,65d2b6c8f2eece985d8e374c,65d2b9dff54f05027e23ca1d,0.072,0.072,1,113,275,37,1,threefour,,,,,,,,,,,,,,,,,,,,,,,,,,,,,,,,,,,,,,,,,,,,,,,,,,,,,,,,,,,,,,,,,,,,,,,,,,,,,,,,,,,,,,,,,,,,,,,,,,,,,,,,,,,,,,,,,,,,,,,,,,,,,,,,,,,,,,,,,
,,5c849a40a869d400179ab427,2024-02-18_21h16.31.911,kallum_motion_pilot,2023.2.2,Win32,59.88023952,5c849a40a869d400179ab427,65d2b6c8f2eece985d8e374c,65d2b9dff54f05027e23ca1d,0.072,0.072,1,114,276,47,1,fourthree,,,,,,,,,,,,,,,,,,,,,,,,,,,,,,,,,,,,,,,,,,,,,,,,,,,,,,,,,,,,,,,,,,,,,,,,,,,,,,,,,,,,,,,,,,,,,,,,,,,,,,,,,,,,,,,,,,,,,,,,,,,,,,,,,,,,,,,,,
,,5c849a40a869d400179ab427,2024-02-18_21h16.31.911,kallum_motion_pilot,2023.2.2,Win32,59.88023952,5c849a40a869d400179ab427,65d2b6c8f2eece985d8e374c,65d2b9dff54f05027e23ca1d,0.072,0.072,1,115,277,17,1,onethree,,,,,,,,,,,,,,,,,,,,,,,,,,,,,,,,,,,,,,,,,,,,,,,,,,,,,,,,,,,,,,,,,,,,,,,,,,,,,,,,,,,,,,,,,,,,,,,,,,,,,,,,,,,,,,,,,,,,,,,,,,,,,,,,,,,,,,,,,
,,5c849a40a869d400179ab427,2024-02-18_21h16.31.911,kallum_motion_pilot,2023.2.2,Win32,59.88023952,5c849a40a869d400179ab427,65d2b6c8f2eece985d8e374c,65d2b9dff54f05027e23ca1d,0.072,0.072,1,116,278,152,1,fivesix,,,,,,,,,,,,,,,,,,,,,,,,,,,,,,,,,,,,,,,,,,,,,,,,,,,,,,,,,,,,,,,,,,,,,,,,,,,,,,,,,,,,,,,,,,,,,,,,,,,,,,,,,,,,,,,,,,,,,,,,,,,,,,,,,,,,,,,,,
,,5c849a40a869d400179ab427,2024-02-18_21h16.31.911,kallum_motion_pilot,2023.2.2,Win32,59.88023952,5c849a40a869d400179ab427,65d2b6c8f2eece985d8e374c,65d2b9dff54f05027e23ca1d,0.072,0.072,1,117,279,63,1,fourthree,,,,,,,,,,,,,,,,,,,,,,,,,,,,,,,,,,,,,,,,,,,,,,,,,,,,,,,,,,,,,,,,,,,,,,,,,,,,,,,,,,,,,,,,,,,,,,,,,,,,,,,,,,,,,,,,,,,,,,,,,,,,,,,,,,,,,,,,,
