startup.started,startup.stopped,Prolific ID*,date,expName,psychopyVersion,OS,frameRate,participant,study_id,session,stimpositions.started,stimpositions.stopped,hardcoded_stimulus_positions.thisRepN,hardcoded_stimulus_positions.thisTrialN,hardcoded_stimulus_positions.thisN,hardcoded_stimulus_positions.thisIndex,hardcoded_stimulus_positions.ran,StimulusPos,stimorientation.started,stimorientation.stopped,prac_stimorientation_import_loop.thisRepN,prac_stimorientation_import_loop.thisTrialN,prac_stimorientation_import_loop.thisN,prac_stimorientation_import_loop.thisIndex,prac_stimorientation_import_loop.ran,Stimorientation,welcome_instr.started,welcome_instr.stopped,key_resp.keys,key_resp.rt,key_resp.duration,response_steppedout_1.started,response_steppedout_1.stopped,key_resp_20.keys,key_resp_20.rt,key_resp_20.duration,response_steppedout_2.started,response_steppedout_2.stopped,key_resp_19.keys,key_resp_19.rt,key_resp_19.duration,stim_response_instr.started,stim_response_instr.stopped,key_resp_15.keys,key_resp_15.rt,key_resp_15.duration,direction_instr_2.started,direction_instr_2.stopped,key_resp_9.keys,key_resp_9.rt,key_resp_9.duration,instr_prac.started,instr_prac.stopped,key_resp_10.keys,key_resp_10.rt,key_resp_10.duration,Stim1_display_prac.started,Stim1_display_prac.stopped,Ecc,Circle1_ori,Circle2_ori,response_prac.started,similarity,response_time,response_prac.stopped,mouse_5.x,mouse_5.y,mouse_5.leftButton,mouse_5.midButton,mouse_5.rightButton,mouse_5.clicked_name,responseprac_feedback.started,responseprac_feedback.stopped,summary2_prac.started,summary2_prac.stopped,mouse_6.x,mouse_6.y,mouse_6.leftButton,mouse_6.midButton,mouse_6.rightButton,mouse_6.clicked_name,duringprac.thisRepN,duringprac.thisTrialN,duringprac.thisN,duringprac.thisIndex,duringprac.ran,begin.started,begin.stopped,key_resp_22.keys,key_resp_22.rt,key_resp_22.duration,Stim1_display.started,Stim1_display.stopped,circle1_ori,circle2_ori,circle1_SF,circle2_SF,response.started,response.stopped,mouse.x,mouse.y,mouse.leftButton,mouse.midButton,mouse.rightButton,mouse.clicked_name,trialnumber,double_pass.thisRepN,double_pass.thisTrialN,double_pass.thisN,double_pass.thisIndex,double_pass.ran,double_pass.order,main_trial.thisRepN,main_trial.thisTrialN,main_trial.thisN,main_trial.thisIndex,main_trial.ran,main_trial.order,Trial_Counter,Catch,Frequencies,response_2.started,response_2.stopped,mouse_2.x,mouse_2.y,mouse_2.leftButton,mouse_2.midButton,mouse_2.rightButton,mouse_2.clicked_name,special_trial.started,special_trial.stopped,catch_1.started,catch_1.stopped,mouse_3.x,mouse_3.y,mouse_3.leftButton,mouse_3.midButton,mouse_3.rightButton,catchresponse,catchnumber,response_time_catch,response_sum.started,response_sum.stopped,mouse_11.x,mouse_11.y,mouse_11.leftButton,mouse_11.midButton,mouse_11.rightButton,flip_presentation_sequence_for_double_pass.started,flip_presentation_sequence_for_double_pass.stopped,goodbye.started,goodbye.stopped,key_resp_3.keys,key_resp_3.rt,key_resp_3.duration
0.0009,0.0012,5c8c59d99c57e70001a659a6,2024-02-22_04h32.08.951,kallum_motion_pilot,2023.2.2,Win32,59.88023952,5c8c59d99c57e70001a659a6,65d6bb0e977760de756971f7,65d6bfa055338e31f88bed2b,,,,,,,,,,,,,,,,,,,,,,,,,,,,,,,,,,,,,,,,,,,,,,,,,,,,,,,,,,,,,,,,,,,,,,,,,,,,,,,,,,,,,,,,,,,,,,,,,,,,,,,,,,,,,,,,,,,,,,,,,,,,,,,,,,,,,,,,,,,,,,,,,
,,5c8c59d99c57e70001a659a6,2024-02-22_04h32.08.951,kallum_motion_pilot,2023.2.2,Win32,59.88023952,5c8c59d99c57e70001a659a6,65d6bb0e977760de756971f7,65d6bfa055338e31f88bed2b,0.3539,0.3548,0,0,0,100,1,sevenfive,,,,,,,,,,,,,,,,,,,,,,,,,,,,,,,,,,,,,,,,,,,,,,,,,,,,,,,,,,,,,,,,,,,,,,,,,,,,,,,,,,,,,,,,,,,,,,,,,,,,,,,,,,,,,,,,,,,,,,,,,,,,,,,,,,,,,,,,,
,,5c8c59d99c57e70001a659a6,2024-02-22_04h32.08.951,kallum_motion_pilot,2023.2.2,Win32,59.88023952,5c8c59d99c57e70001a659a6,65d6bb0e977760de756971f7,65d6bfa055338e31f88bed2b,0.356,0.3564,0,1,1,55,1,fourthree,,,,,,,,,,,,,,,,,,,,,,,,,,,,,,,,,,,,,,,,,,,,,,,,,,,,,,,,,,,,,,,,,,,,,,,,,,,,,,,,,,,,,,,,,,,,,,,,,,,,,,,,,,,,,,,,,,,,,,,,,,,,,,,,,,,,,,,,,
,,5c8c59d99c57e70001a659a6,2024-02-22_04h32.08.951,kallum_motion_pilot,2023.2.2,Win32,59.88023952,5c8c59d99c57e70001a659a6,65d6bb0e977760de756971f7,65d6bfa055338e31f88bed2b,0.3571,0.3574,0,2,2,127,1,eightseven,,,,,,,,,,,,,,,,,,,,,,,,,,,,,,,,,,,,,,,,,,,,,,,,,,,,,,,,,,,,,,,,,,,,,,,,,,,,,,,,,,,,,,,,,,,,,,,,,,,,,,,,,,,,,,,,,,,,,,,,,,,,,,,,,,,,,,,,,
,,5c8c59d99c57e70001a659a6,2024-02-22_04h32.08.951,kallum_motion_pilot,2023.2.2,Win32,59.88023952,5c8c59d99c57e70001a659a6,65d6bb0e977760de756971f7,65d6bfa055338e31f88bed2b,0.3581,0.3585,0,3,3,149,1,seveneight,,,,,,,,,,,,,,,,,,,,,,,,,,,,,,,,,,,,,,,,,,,,,,,,,,,,,,,,,,,,,,,,,,,,,,,,,,,,,,,,,,,,,,,,,,,,,,,,,,,,,,,,,,,,,,,,,,,,,,,,,,,,,,,,,,,,,,,,,
,,5c8c59d99c57e70001a659a6,2024-02-22_04h32.08.951,kallum_motion_pilot,2023.2.2,Win32,59.88023952,5c8c59d99c57e70001a659a6,65d6bb0e977760de756971f7,65d6bfa055338e31f88bed2b,0.3592,0.3596,0,4,4,96,1,fivesix,,,,,,,,,,,,,,,,,,,,,,,,,,,,,,,,,,,,,,,,,,,,,,,,,,,,,,,,,,,,,,,,,,,,,,,,,,,,,,,,,,,,,,,,,,,,,,,,,,,,,,,,,,,,,,,,,,,,,,,,,,,,,,,,,,,,,,,,,
,,5c8c59d99c57e70001a659a6,2024-02-22_04h32.08.951,kallum_motion_pilot,2023.2.2,Win32,59.88023952,5c8c59d99c57e70001a659a6,65d6bb0e977760de756971f7,65d6bfa055338e31f88bed2b,0.3602,0.3605,0,5,5,51,1,twofour,,,,,,,,,,,,,,,,,,,,,,,,,,,,,,,,,,,,,,,,,,,,,,,,,,,,,,,,,,,,,,,,,,,,,,,,,,,,,,,,,,,,,,,,,,,,,,,,,,,,,,,,,,,,,,,,,,,,,,,,,,,,,,,,,,,,,,,,,
,,5c8c59d99c57e70001a659a6,2024-02-22_04h32.08.951,kallum_motion_pilot,2023.2.2,Win32,59.88023952,5c8c59d99c57e70001a659a6,65d6bb0e977760de756971f7,65d6bfa055338e31f88bed2b,0.3614,0.3618,0,6,6,19,1,twofour,,,,,,,,,,,,,,,,,,,,,,,,,,,,,,,,,,,,,,,,,,,,,,,,,,,,,,,,,,,,,,,,,,,,,,,,,,,,,,,,,,,,,,,,,,,,,,,,,,,,,,,,,,,,,,,,,,,,,,,,,,,,,,,,,,,,,,,,,
,,5c8c59d99c57e70001a659a6,2024-02-22_04h32.08.951,kallum_motion_pilot,2023.2.2,Win32,59.88023952,5c8c59d99c57e70001a659a6,65d6bb0e977760de756971f7,65d6bfa055338e31f88bed2b,0.3629,0.3631,0,7,7,148,1,sevenfive,,,,,,,,,,,,,,,,,,,,,,,,,,,,,,,,,,,,,,,,,,,,,,,,,,,,,,,,,,,,,,,,,,,,,,,,,,,,,,,,,,,,,,,,,,,,,,,,,,,,,,,,,,,,,,,,,,,,,,,,,,,,,,,,,,,,,,,,,
,,5c8c59d99c57e70001a659a6,2024-02-22_04h32.08.951,kallum_motion_pilot,2023.2.2,Win32,59.88023952,5c8c59d99c57e70001a659a6,65d6bb0e977760de756971f7,65d6bfa055338e31f88bed2b,0.3639,0.3642,0,8,8,151,1,eightseven,,,,,,,,,,,,,,,,,,,,,,,,,,,,,,,,,,,,,,,,,,,,,,,,,,,,,,,,,,,,,,,,,,,,,,,,,,,,,,,,,,,,,,,,,,,,,,,,,,,,,,,,,,,,,,,,,,,,,,,,,,,,,,,,,,,,,,,,,
,,5c8c59d99c57e70001a659a6,2024-02-22_04h32.08.951,kallum_motion_pilot,2023.2.2,Win32,59.88023952,5c8c59d99c57e70001a659a6,65d6bb0e977760de756971f7,65d6bfa055338e31f88bed2b,0.3648,0.3651,0,9,9,32,1,onetwo,,,,,,,,,,,,,,,,,,,,,,,,,,,,,,,,,,,,,,,,,,,,,,,,,,,,,,,,,,,,,,,,,,,,,,,,,,,,,,,,,,,,,,,,,,,,,,,,,,,,,,,,,,,,,,,,,,,,,,,,,,,,,,,,,,,,,,,,,
,,5c8c59d99c57e70001a659a6,2024-02-22_04h32.08.951,kallum_motion_pilot,2023.2.2,Win32,59.88023952,5c8c59d99c57e70001a659a6,65d6bb0e977760de756971f7,65d6bfa055338e31f88bed2b,0.3657,0.366,0,10,10,54,1,fourtwo,,,,,,,,,,,,,,,,,,,,,,,,,,,,,,,,,,,,,,,,,,,,,,,,,,,,,,,,,,,,,,,,,,,,,,,,,,,,,,,,,,,,,,,,,,,,,,,,,,,,,,,,,,,,,,,,,,,,,,,,,,,,,,,,,,,,,,,,,
,,5c8c59d99c57e70001a659a6,2024-02-22_04h32.08.951,kallum_motion_pilot,2023.2.2,Win32,59.88023952,5c8c59d99c57e70001a659a6,65d6bb0e977760de756971f7,65d6bfa055338e31f88bed2b,0.3666,0.3668,0,11,11,37,1,threefour,,,,,,,,,,,,,,,,,,,,,,,,,,,,,,,,,,,,,,,,,,,,,,,,,,,,,,,,,,,,,,,,,,,,,,,,,,,,,,,,,,,,,,,,,,,,,,,,,,,,,,,,,,,,,,,,,,,,,,,,,,,,,,,,,,,,,,,,,
,,5c8c59d99c57e70001a659a6,2024-02-22_04h32.08.951,kallum_motion_pilot,2023.2.2,Win32,59.88023952,5c8c59d99c57e70001a659a6,65d6bb0e977760de756971f7,65d6bfa055338e31f88bed2b,0.3673,0.3676,0,12,12,27,1,twofour,,,,,,,,,,,,,,,,,,,,,,,,,,,,,,,,,,,,,,,,,,,,,,,,,,,,,,,,,,,,,,,,,,,,,,,,,,,,,,,,,,,,,,,,,,,,,,,,,,,,,,,,,,,,,,,,,,,,,,,,,,,,,,,,,,,,,,,,,
,,5c8c59d99c57e70001a659a6,2024-02-22_04h32.08.951,kallum_motion_pilot,2023.2.2,Win32,59.88023952,5c8c59d99c57e70001a659a6,65d6bb0e977760de756971f7,65d6bfa055338e31f88bed2b,0.3682,0.3684,0,13,13,79,1,eightseven,,,,,,,,,,,,,,,,,,,,,,,,,,,,,,,,,,,,,,,,,,,,,,,,,,,,,,,,,,,,,,,,,,,,,,,,,,,,,,,,,,,,,,,,,,,,,,,,,,,,,,,,,,,,,,,,,,,,,,,,,,,,,,,,,,,,,,,,,
,,5c8c59d99c57e70001a659a6,2024-02-22_04h32.08.951,kallum_motion_pilot,2023.2.2,Win32,59.88023952,5c8c59d99c57e70001a659a6,65d6bb0e977760de756971f7,65d6bfa055338e31f88bed2b,0.3689,0.3692,0,14,14,40,1,onetwo,,,,,,,,,,,,,,,,,,,,,,,,,,,,,,,,,,,,,,,,,,,,,,,,,,,,,,,,,,,,,,,,,,,,,,,,,,,,,,,,,,,,,,,,,,,,,,,,,,,,,,,,,,,,,,,,,,,,,,,,,,,,,,,,,,,,,,,,,
,,5c8c59d99c57e70001a659a6,2024-02-22_04h32.08.951,kallum_motion_pilot,2023.2.2,Win32,59.88023952,5c8c59d99c57e70001a659a6,65d6bb0e977760de756971f7,65d6bfa055338e31f88bed2b,0.3697,0.37,0,15,15,81,1,fiveseven,,,,,,,,,,,,,,,,,,,,,,,,,,,,,,,,,,,,,,,,,,,,,,,,,,,,,,,,,,,,,,,,,,,,,,,,,,,,,,,,,,,,,,,,,,,,,,,,,,,,,,,,,,,,,,,,,,,,,,,,,,,,,,,,,,,,,,,,,
,,5c8c59d99c57e70001a659a6,2024-02-22_04h32.08.951,kallum_motion_pilot,2023.2.2,Win32,59.88023952,5c8c59d99c57e70001a659a6,65d6bb0e977760de756971f7,65d6bfa055338e31f88bed2b,0.3705,0.3707,0,16,16,52,1,threeone,,,,,,,,,,,,,,,,,,,,,,,,,,,,,,,,,,,,,,,,,,,,,,,,,,,,,,,,,,,,,,,,,,,,,,,,,,,,,,,,,,,,,,,,,,,,,,,,,,,,,,,,,,,,,,,,,,,,,,,,,,,,,,,,,,,,,,,,,
,,5c8c59d99c57e70001a659a6,2024-02-22_04h32.08.951,kallum_motion_pilot,2023.2.2,Win32,59.88023952,5c8c59d99c57e70001a659a6,65d6bb0e977760de756971f7,65d6bfa055338e31f88bed2b,0.3713,0.3716,0,17,17,147,1,sixeight,,,,,,,,,,,,,,,,,,,,,,,,,,,,,,,,,,,,,,,,,,,,,,,,,,,,,,,,,,,,,,,,,,,,,,,,,,,,,,,,,,,,,,,,,,,,,,,,,,,,,,,,,,,,,,,,,,,,,,,,,,,,,,,,,,,,,,,,,
,,5c8c59d99c57e70001a659a6,2024-02-22_04h32.08.951,kallum_motion_pilot,2023.2.2,Win32,59.88023952,5c8c59d99c57e70001a659a6,65d6bb0e977760de756971f7,65d6bfa055338e31f88bed2b,0.3725,0.3727,0,18,18,49,1,onethree,,,,,,,,,,,,,,,,,,,,,,,,,,,,,,,,,,,,,,,,,,,,,,,,,,,,,,,,,,,,,,,,,,,,,,,,,,,,,,,,,,,,,,,,,,,,,,,,,,,,,,,,,,,,,,,,,,,,,,,,,,,,,,,,,,,,,,,,,
,,5c8c59d99c57e70001a659a6,2024-02-22_04h32.08.951,kallum_motion_pilot,2023.2.2,Win32,59.88023952,5c8c59d99c57e70001a659a6,65d6bb0e977760de756971f7,65d6bfa055338e31f88bed2b,0.3737,0.374,0,19,19,22,1,fourtwo,,,,,,,,,,,,,,,,,,,,,,,,,,,,,,,,,,,,,,,,,,,,,,,,,,,,,,,,,,,,,,,,,,,,,,,,,,,,,,,,,,,,,,,,,,,,,,,,,,,,,,,,,,,,,,,,,,,,,,,,,,,,,,,,,,,,,,,,,
,,5c8c59d99c57e70001a659a6,2024-02-22_04h32.08.951,kallum_motion_pilot,2023.2.2,Win32,59.88023952,5c8c59d99c57e70001a659a6,65d6bb0e977760de756971f7,65d6bfa055338e31f88bed2b,0.3745,0.3747,0,20,20,80,1,fivesix,,,,,,,,,,,,,,,,,,,,,,,,,,,,,,,,,,,,,,,,,,,,,,,,,,,,,,,,,,,,,,,,,,,,,,,,,,,,,,,,,,,,,,,,,,,,,,,,,,,,,,,,,,,,,,,,,,,,,,,,,,,,,,,,,,,,,,,,,
,,5c8c59d99c57e70001a659a6,2024-02-22_04h32.08.951,kallum_motion_pilot,2023.2.2,Win32,59.88023952,5c8c59d99c57e70001a659a6,65d6bb0e977760de756971f7,65d6bfa055338e31f88bed2b,0.3753,0.3756,0,21,21,88,1,fivesix,,,,,,,,,,,,,,,,,,,,,,,,,,,,,,,,,,,,,,,,,,,,,,,,,,,,,,,,,,,,,,,,,,,,,,,,,,,,,,,,,,,,,,,,,,,,,,,,,,,,,,,,,,,,,,,,,,,,,,,,,,,,,,,,,,,,,,,,,
,,5c8c59d99c57e70001a659a6,2024-02-22_04h32.08.951,kallum_motion_pilot,2023.2.2,Win32,59.88023952,5c8c59d99c57e70001a659a6,65d6bb0e977760de756971f7,65d6bfa055338e31f88bed2b,0.3761,0.3764,0,22,22,141,1,seveneight,,,,,,,,,,,,,,,,,,,,,,,,,,,,,,,,,,,,,,,,,,,,,,,,,,,,,,,,,,,,,,,,,,,,,,,,,,,,,,,,,,,,,,,,,,,,,,,,,,,,,,,,,,,,,,,,,,,,,,,,,,,,,,,,,,,,,,,,,
,,5c8c59d99c57e70001a659a6,2024-02-22_04h32.08.951,kallum_motion_pilot,2023.2.2,Win32,59.88023952,5c8c59d99c57e70001a659a6,65d6bb0e977760de756971f7,65d6bfa055338e31f88bed2b,0.3769,0.3772,0,23,23,104,1,fivesix,,,,,,,,,,,,,,,,,,,,,,,,,,,,,,,,,,,,,,,,,,,,,,,,,,,,,,,,,,,,,,,,,,,,,,,,,,,,,,,,,,,,,,,,,,,,,,,,,,,,,,,,,,,,,,,,,,,,,,,,,,,,,,,,,,,,,,,,,
,,5c8c59d99c57e70001a659a6,2024-02-22_04h32.08.951,kallum_motion_pilot,2023.2.2,Win32,59.88023952,5c8c59d99c57e70001a659a6,65d6bb0e977760de756971f7,65d6bfa055338e31f88bed2b,0.3776,0.3779,0,24,24,24,1,onetwo,,,,,,,,,,,,,,,,,,,,,,,,,,,,,,,,,,,,,,,,,,,,,,,,,,,,,,,,,,,,,,,,,,,,,,,,,,,,,,,,,,,,,,,,,,,,,,,,,,,,,,,,,,,,,,,,,,,,,,,,,,,,,,,,,,,,,,,,,
,,5c8c59d99c57e70001a659a6,2024-02-22_04h32.08.951,kallum_motion_pilot,2023.2.2,Win32,59.88023952,5c8c59d99c57e70001a659a6,65d6bb0e977760de756971f7,65d6bfa055338e31f88bed2b,0.3789,0.3792,0,25,25,157,1,seveneight,,,,,,,,,,,,,,,,,,,,,,,,,,,,,,,,,,,,,,,,,,,,,,,,,,,,,,,,,,,,,,,,,,,,,,,,,,,,,,,,,,,,,,,,,,,,,,,,,,,,,,,,,,,,,,,,,,,,,,,,,,,,,,,,,,,,,,,,,
,,5c8c59d99c57e70001a659a6,2024-02-22_04h32.08.951,kallum_motion_pilot,2023.2.2,Win32,59.88023952,5c8c59d99c57e70001a659a6,65d6bb0e977760de756971f7,65d6bfa055338e31f88bed2b,0.3797,0.38,0,26,26,129,1,fiveseven,,,,,,,,,,,,,,,,,,,,,,,,,,,,,,,,,,,,,,,,,,,,,,,,,,,,,,,,,,,,,,,,,,,,,,,,,,,,,,,,,,,,,,,,,,,,,,,,,,,,,,,,,,,,,,,,,,,,,,,,,,,,,,,,,,,,,,,,,
,,5c8c59d99c57e70001a659a6,2024-02-22_04h32.08.951,kallum_motion_pilot,2023.2.2,Win32,59.88023952,5c8c59d99c57e70001a659a6,65d6bb0e977760de756971f7,65d6bfa055338e31f88bed2b,0.3805,0.3809,0,27,27,74,1,twoone,,,,,,,,,,,,,,,,,,,,,,,,,,,,,,,,,,,,,,,,,,,,,,,,,,,,,,,,,,,,,,,,,,,,,,,,,,,,,,,,,,,,,,,,,,,,,,,,,,,,,,,,,,,,,,,,,,,,,,,,,,,,,,,,,,,,,,,,,
,,5c8c59d99c57e70001a659a6,2024-02-22_04h32.08.951,kallum_motion_pilot,2023.2.2,Win32,59.88023952,5c8c59d99c57e70001a659a6,65d6bb0e977760de756971f7,65d6bfa055338e31f88bed2b,0.3813,0.3817,0,28,28,78,1,fourtwo,,,,,,,,,,,,,,,,,,,,,,,,,,,,,,,,,,,,,,,,,,,,,,,,,,,,,,,,,,,,,,,,,,,,,,,,,,,,,,,,,,,,,,,,,,,,,,,,,,,,,,,,,,,,,,,,,,,,,,,,,,,,,,,,,,,,,,,,,
,,5c8c59d99c57e70001a659a6,2024-02-22_04h32.08.951,kallum_motion_pilot,2023.2.2,Win32,59.88023952,5c8c59d99c57e70001a659a6,65d6bb0e977760de756971f7,65d6bfa055338e31f88bed2b,0.3827,0.3828,0,29,29,102,1,eightsix,,,,,,,,,,,,,,,,,,,,,,,,,,,,,,,,,,,,,,,,,,,,,,,,,,,,,,,,,,,,,,,,,,,,,,,,,,,,,,,,,,,,,,,,,,,,,,,,,,,,,,,,,,,,,,,,,,,,,,,,,,,,,,,,,,,,,,,,,
,,5c8c59d99c57e70001a659a6,2024-02-22_04h32.08.951,kallum_motion_pilot,2023.2.2,Win32,59.88023952,5c8c59d99c57e70001a659a6,65d6bb0e977760de756971f7,65d6bfa055338e31f88bed2b,0.3836,0.3839,0,30,30,8,1,onetwo,,,,,,,,,,,,,,,,,,,,,,,,,,,,,,,,,,,,,,,,,,,,,,,,,,,,,,,,,,,,,,,,,,,,,,,,,,,,,,,,,,,,,,,,,,,,,,,,,,,,,,,,,,,,,,,,,,,,,,,,,,,,,,,,,,,,,,,,,
,,5c8c59d99c57e70001a659a6,2024-02-22_04h32.08.951,kallum_motion_pilot,2023.2.2,Win32,59.88023952,5c8c59d99c57e70001a659a6,65d6bb0e977760de756971f7,65d6bfa055338e31f88bed2b,0.3844,0.3847,0,31,31,44,1,threeone,,,,,,,,,,,,,,,,,,,,,,,,,,,,,,,,,,,,,,,,,,,,,,,,,,,,,,,,,,,,,,,,,,,,,,,,,,,,,,,,,,,,,,,,,,,,,,,,,,,,,,,,,,,,,,,,,,,,,,,,,,,,,,,,,,,,,,,,,
,,5c8c59d99c57e70001a659a6,2024-02-22_04h32.08.951,kallum_motion_pilot,2023.2.2,Win32,59.88023952,5c8c59d99c57e70001a659a6,65d6bb0e977760de756971f7,65d6bfa055338e31f88bed2b,0.3852,0.3855,0,32,32,58,1,twoone,,,,,,,,,,,,,,,,,,,,,,,,,,,,,,,,,,,,,,,,,,,,,,,,,,,,,,,,,,,,,,,,,,,,,,,,,,,,,,,,,,,,,,,,,,,,,,,,,,,,,,,,,,,,,,,,,,,,,,,,,,,,,,,,,,,,,,,,,
,,5c8c59d99c57e70001a659a6,2024-02-22_04h32.08.951,kallum_motion_pilot,2023.2.2,Win32,59.88023952,5c8c59d99c57e70001a659a6,65d6bb0e977760de756971f7,65d6bfa055338e31f88bed2b,0.386,0.3863,0,33,33,138,1,sixfive,,,,,,,,,,,,,,,,,,,,,,,,,,,,,,,,,,,,,,,,,,,,,,,,,,,,,,,,,,,,,,,,,,,,,,,,,,,,,,,,,,,,,,,,,,,,,,,,,,,,,,,,,,,,,,,,,,,,,,,,,,,,,,,,,,,,,,,,,
,,5c8c59d99c57e70001a659a6,2024-02-22_04h32.08.951,kallum_motion_pilot,2023.2.2,Win32,59.88023952,5c8c59d99c57e70001a659a6,65d6bb0e977760de756971f7,65d6bfa055338e31f88bed2b,0.3868,0.3871,0,34,34,113,1,fiveseven,,,,,,,,,,,,,,,,,,,,,,,,,,,,,,,,,,,,,,,,,,,,,,,,,,,,,,,,,,,,,,,,,,,,,,,,,,,,,,,,,,,,,,,,,,,,,,,,,,,,,,,,,,,,,,,,,,,,,,,,,,,,,,,,,,,,,,,,,
,,5c8c59d99c57e70001a659a6,2024-02-22_04h32.08.951,kallum_motion_pilot,2023.2.2,Win32,59.88023952,5c8c59d99c57e70001a659a6,65d6bb0e977760de756971f7,65d6bfa055338e31f88bed2b,0.3876,0.3879,0,35,35,116,1,sevenfive,,,,,,,,,,,,,,,,,,,,,,,,,,,,,,,,,,,,,,,,,,,,,,,,,,,,,,,,,,,,,,,,,,,,,,,,,,,,,,,,,,,,,,,,,,,,,,,,,,,,,,,,,,,,,,,,,,,,,,,,,,,,,,,,,,,,,,,,,
,,5c8c59d99c57e70001a659a6,2024-02-22_04h32.08.951,kallum_motion_pilot,2023.2.2,Win32,59.88023952,5c8c59d99c57e70001a659a6,65d6bb0e977760de756971f7,65d6bfa055338e31f88bed2b,0.3884,0.3887,0,36,36,42,1,twoone,,,,,,,,,,,,,,,,,,,,,,,,,,,,,,,,,,,,,,,,,,,,,,,,,,,,,,,,,,,,,,,,,,,,,,,,,,,,,,,,,,,,,,,,,,,,,,,,,,,,,,,,,,,,,,,,,,,,,,,,,,,,,,,,,,,,,,,,,
,,5c8c59d99c57e70001a659a6,2024-02-22_04h32.08.951,kallum_motion_pilot,2023.2.2,Win32,59.88023952,5c8c59d99c57e70001a659a6,65d6bb0e977760de756971f7,65d6bfa055338e31f88bed2b,0.3892,0.3895,0,37,37,12,1,threeone,,,,,,,,,,,,,,,,,,,,,,,,,,,,,,,,,,,,,,,,,,,,,,,,,,,,,,,,,,,,,,,,,,,,,,,,,,,,,,,,,,,,,,,,,,,,,,,,,,,,,,,,,,,,,,,,,,,,,,,,,,,,,,,,,,,,,,,,,
,,5c8c59d99c57e70001a659a6,2024-02-22_04h32.08.951,kallum_motion_pilot,2023.2.2,Win32,59.88023952,5c8c59d99c57e70001a659a6,65d6bb0e977760de756971f7,65d6bfa055338e31f88bed2b,0.39,0.3904,0,38,38,86,1,eightsix,,,,,,,,,,,,,,,,,,,,,,,,,,,,,,,,,,,,,,,,,,,,,,,,,,,,,,,,,,,,,,,,,,,,,,,,,,,,,,,,,,,,,,,,,,,,,,,,,,,,,,,,,,,,,,,,,,,,,,,,,,,,,,,,,,,,,,,,,
,,5c8c59d99c57e70001a659a6,2024-02-22_04h32.08.951,kallum_motion_pilot,2023.2.2,Win32,59.88023952,5c8c59d99c57e70001a659a6,65d6bb0e977760de756971f7,65d6bfa055338e31f88bed2b,0.3909,0.3913,0,39,39,84,1,sevenfive,,,,,,,,,,,,,,,,,,,,,,,,,,,,,,,,,,,,,,,,,,,,,,,,,,,,,,,,,,,,,,,,,,,,,,,,,,,,,,,,,,,,,,,,,,,,,,,,,,,,,,,,,,,,,,,,,,,,,,,,,,,,,,,,,,,,,,,,,
,,5c8c59d99c57e70001a659a6,2024-02-22_04h32.08.951,kallum_motion_pilot,2023.2.2,Win32,59.88023952,5c8c59d99c57e70001a659a6,65d6bb0e977760de756971f7,65d6bfa055338e31f88bed2b,0.3918,0.3921,0,40,40,105,1,fiveseven,,,,,,,,,,,,,,,,,,,,,,,,,,,,,,,,,,,,,,,,,,,,,,,,,,,,,,,,,,,,,,,,,,,,,,,,,,,,,,,,,,,,,,,,,,,,,,,,,,,,,,,,,,,,,,,,,,,,,,,,,,,,,,,,,,,,,,,,,
,,5c8c59d99c57e70001a659a6,2024-02-22_04h32.08.951,kallum_motion_pilot,2023.2.2,Win32,59.88023952,5c8c59d99c57e70001a659a6,65d6bb0e977760de756971f7,65d6bfa055338e31f88bed2b,0.3926,0.3933,0,41,41,16,1,onetwo,,,,,,,,,,,,,,,,,,,,,,,,,,,,,,,,,,,,,,,,,,,,,,,,,,,,,,,,,,,,,,,,,,,,,,,,,,,,,,,,,,,,,,,,,,,,,,,,,,,,,,,,,,,,,,,,,,,,,,,,,,,,,,,,,,,,,,,,,
,,5c8c59d99c57e70001a659a6,2024-02-22_04h32.08.951,kallum_motion_pilot,2023.2.2,Win32,59.88023952,5c8c59d99c57e70001a659a6,65d6bb0e977760de756971f7,65d6bfa055338e31f88bed2b,0.3939,0.3944,0,42,42,46,1,fourtwo,,,,,,,,,,,,,,,,,,,,,,,,,,,,,,,,,,,,,,,,,,,,,,,,,,,,,,,,,,,,,,,,,,,,,,,,,,,,,,,,,,,,,,,,,,,,,,,,,,,,,,,,,,,,,,,,,,,,,,,,,,,,,,,,,,,,,,,,,
,,5c8c59d99c57e70001a659a6,2024-02-22_04h32.08.951,kallum_motion_pilot,2023.2.2,Win32,59.88023952,5c8c59d99c57e70001a659a6,65d6bb0e977760de756971f7,65d6bfa055338e31f88bed2b,0.395,0.3955,0,43,43,146,1,sixfive,,,,,,,,,,,,,,,,,,,,,,,,,,,,,,,,,,,,,,,,,,,,,,,,,,,,,,,,,,,,,,,,,,,,,,,,,,,,,,,,,,,,,,,,,,,,,,,,,,,,,,,,,,,,,,,,,,,,,,,,,,,,,,,,,,,,,,,,,
,,5c8c59d99c57e70001a659a6,2024-02-22_04h32.08.951,kallum_motion_pilot,2023.2.2,Win32,59.88023952,5c8c59d99c57e70001a659a6,65d6bb0e977760de756971f7,65d6bfa055338e31f88bed2b,0.3962,0.3965,0,44,44,47,1,fourthree,,,,,,,,,,,,,,,,,,,,,,,,,,,,,,,,,,,,,,,,,,,,,,,,,,,,,,,,,,,,,,,,,,,,,,,,,,,,,,,,,,,,,,,,,,,,,,,,,,,,,,,,,,,,,,,,,,,,,,,,,,,,,,,,,,,,,,,,,
,,5c8c59d99c57e70001a659a6,2024-02-22_04h32.08.951,kallum_motion_pilot,2023.2.2,Win32,59.88023952,5c8c59d99c57e70001a659a6,65d6bb0e977760de756971f7,65d6bfa055338e31f88bed2b,0.397,0.3976,0,45,45,120,1,fivesix,,,,,,,,,,,,,,,,,,,,,,,,,,,,,,,,,,,,,,,,,,,,,,,,,,,,,,,,,,,,,,,,,,,,,,,,,,,,,,,,,,,,,,,,,,,,,,,,,,,,,,,,,,,,,,,,,,,,,,,,,,,,,,,,,,,,,,,,,
,,5c8c59d99c57e70001a659a6,2024-02-22_04h32.08.951,kallum_motion_pilot,2023.2.2,Win32,59.88023952,5c8c59d99c57e70001a659a6,65d6bb0e977760de756971f7,65d6bfa055338e31f88bed2b,0.3981,0.3984,0,46,46,139,1,sixeight,,,,,,,,,,,,,,,,,,,,,,,,,,,,,,,,,,,,,,,,,,,,,,,,,,,,,,,,,,,,,,,,,,,,,,,,,,,,,,,,,,,,,,,,,,,,,,,,,,,,,,,,,,,,,,,,,,,,,,,,,,,,,,,,,,,,,,,,,
,,5c8c59d99c57e70001a659a6,2024-02-22_04h32.08.951,kallum_motion_pilot,2023.2.2,Win32,59.88023952,5c8c59d99c57e70001a659a6,65d6bb0e977760de756971f7,65d6bfa055338e31f88bed2b,0.3989,0.3992,0,47,47,39,1,fourthree,,,,,,,,,,,,,,,,,,,,,,,,,,,,,,,,,,,,,,,,,,,,,,,,,,,,,,,,,,,,,,,,,,,,,,,,,,,,,,,,,,,,,,,,,,,,,,,,,,,,,,,,,,,,,,,,,,,,,,,,,,,,,,,,,,,,,,,,,
,,5c8c59d99c57e70001a659a6,2024-02-22_04h32.08.951,kallum_motion_pilot,2023.2.2,Win32,59.88023952,5c8c59d99c57e70001a659a6,65d6bb0e977760de756971f7,65d6bfa055338e31f88bed2b,0.3998,0.4,0,48,48,124,1,sevenfive,,,,,,,,,,,,,,,,,,,,,,,,,,,,,,,,,,,,,,,,,,,,,,,,,,,,,,,,,,,,,,,,,,,,,,,,,,,,,,,,,,,,,,,,,,,,,,,,,,,,,,,,,,,,,,,,,,,,,,,,,,,,,,,,,,,,,,,,,
,,5c8c59d99c57e70001a659a6,2024-02-22_04h32.08.951,kallum_motion_pilot,2023.2.2,Win32,59.88023952,5c8c59d99c57e70001a659a6,65d6bb0e977760de756971f7,65d6bfa055338e31f88bed2b,0.4005,0.4009,0,49,49,66,1,twoone,,,,,,,,,,,,,,,,,,,,,,,,,,,,,,,,,,,,,,,,,,,,,,,,,,,,,,,,,,,,,,,,,,,,,,,,,,,,,,,,,,,,,,,,,,,,,,,,,,,,,,,,,,,,,,,,,,,,,,,,,,,,,,,,,,,,,,,,,
,,5c8c59d99c57e70001a659a6,2024-02-22_04h32.08.951,kallum_motion_pilot,2023.2.2,Win32,59.88023952,5c8c59d99c57e70001a659a6,65d6bb0e977760de756971f7,65d6bfa055338e31f88bed2b,0.4015,0.4019,0,50,50,122,1,sixfive,,,,,,,,,,,,,,,,,,,,,,,,,,,,,,,,,,,,,,,,,,,,,,,,,,,,,,,,,,,,,,,,,,,,,,,,,,,,,,,,,,,,,,,,,,,,,,,,,,,,,,,,,,,,,,,,,,,,,,,,,,,,,,,,,,,,,,,,,
,,5c8c59d99c57e70001a659a6,2024-02-22_04h32.08.951,kallum_motion_pilot,2023.2.2,Win32,59.88023952,5c8c59d99c57e70001a659a6,65d6bb0e977760de756971f7,65d6bfa055338e31f88bed2b,0.4027,0.403,0,51,51,26,1,twoone,,,,,,,,,,,,,,,,,,,,,,,,,,,,,,,,,,,,,,,,,,,,,,,,,,,,,,,,,,,,,,,,,,,,,,,,,,,,,,,,,,,,,,,,,,,,,,,,,,,,,,,,,,,,,,,,,,,,,,,,,,,,,,,,,,,,,,,,,
,,5c8c59d99c57e70001a659a6,2024-02-22_04h32.08.951,kallum_motion_pilot,2023.2.2,Win32,59.88023952,5c8c59d99c57e70001a659a6,65d6bb0e977760de756971f7,65d6bfa055338e31f88bed2b,0.4035,0.4039,0,52,52,150,1,eightsix,,,,,,,,,,,,,,,,,,,,,,,,,,,,,,,,,,,,,,,,,,,,,,,,,,,,,,,,,,,,,,,,,,,,,,,,,,,,,,,,,,,,,,,,,,,,,,,,,,,,,,,,,,,,,,,,,,,,,,,,,,,,,,,,,,,,,,,,,
,,5c8c59d99c57e70001a659a6,2024-02-22_04h32.08.951,kallum_motion_pilot,2023.2.2,Win32,59.88023952,5c8c59d99c57e70001a659a6,65d6bb0e977760de756971f7,65d6bfa055338e31f88bed2b,0.4045,0.4048,0,53,53,140,1,sevenfive,,,,,,,,,,,,,,,,,,,,,,,,,,,,,,,,,,,,,,,,,,,,,,,,,,,,,,,,,,,,,,,,,,,,,,,,,,,,,,,,,,,,,,,,,,,,,,,,,,,,,,,,,,,,,,,,,,,,,,,,,,,,,,,,,,,,,,,,,
,,5c8c59d99c57e70001a659a6,2024-02-22_04h32.08.951,kallum_motion_pilot,2023.2.2,Win32,59.88023952,5c8c59d99c57e70001a659a6,65d6bb0e977760de756971f7,65d6bfa055338e31f88bed2b,0.4053,0.4056,0,54,54,85,1,seveneight,,,,,,,,,,,,,,,,,,,,,,,,,,,,,,,,,,,,,,,,,,,,,,,,,,,,,,,,,,,,,,,,,,,,,,,,,,,,,,,,,,,,,,,,,,,,,,,,,,,,,,,,,,,,,,,,,,,,,,,,,,,,,,,,,,,,,,,,,
,,5c8c59d99c57e70001a659a6,2024-02-22_04h32.08.951,kallum_motion_pilot,2023.2.2,Win32,59.88023952,5c8c59d99c57e70001a659a6,65d6bb0e977760de756971f7,65d6bfa055338e31f88bed2b,0.4062,0.4064,0,55,55,2,1,twoone,,,,,,,,,,,,,,,,,,,,,,,,,,,,,,,,,,,,,,,,,,,,,,,,,,,,,,,,,,,,,,,,,,,,,,,,,,,,,,,,,,,,,,,,,,,,,,,,,,,,,,,,,,,,,,,,,,,,,,,,,,,,,,,,,,,,,,,,,
,,5c8c59d99c57e70001a659a6,2024-02-22_04h32.08.951,kallum_motion_pilot,2023.2.2,Win32,59.88023952,5c8c59d99c57e70001a659a6,65d6bb0e977760de756971f7,65d6bfa055338e31f88bed2b,0.407,0.4073,0,56,56,25,1,onethree,,,,,,,,,,,,,,,,,,,,,,,,,,,,,,,,,,,,,,,,,,,,,,,,,,,,,,,,,,,,,,,,,,,,,,,,,,,,,,,,,,,,,,,,,,,,,,,,,,,,,,,,,,,,,,,,,,,,,,,,,,,,,,,,,,,,,,,,,
,,5c8c59d99c57e70001a659a6,2024-02-22_04h32.08.951,kallum_motion_pilot,2023.2.2,Win32,59.88023952,5c8c59d99c57e70001a659a6,65d6bb0e977760de756971f7,65d6bfa055338e31f88bed2b,0.4078,0.4081,0,57,57,59,1,twofour,,,,,,,,,,,,,,,,,,,,,,,,,,,,,,,,,,,,,,,,,,,,,,,,,,,,,,,,,,,,,,,,,,,,,,,,,,,,,,,,,,,,,,,,,,,,,,,,,,,,,,,,,,,,,,,,,,,,,,,,,,,,,,,,,,,,,,,,,
,,5c8c59d99c57e70001a659a6,2024-02-22_04h32.08.951,kallum_motion_pilot,2023.2.2,Win32,59.88023952,5c8c59d99c57e70001a659a6,65d6bb0e977760de756971f7,65d6bfa055338e31f88bed2b,0.4087,0.409,0,58,58,128,1,fivesix,,,,,,,,,,,,,,,,,,,,,,,,,,,,,,,,,,,,,,,,,,,,,,,,,,,,,,,,,,,,,,,,,,,,,,,,,,,,,,,,,,,,,,,,,,,,,,,,,,,,,,,,,,,,,,,,,,,,,,,,,,,,,,,,,,,,,,,,,
,,5c8c59d99c57e70001a659a6,2024-02-22_04h32.08.951,kallum_motion_pilot,2023.2.2,Win32,59.88023952,5c8c59d99c57e70001a659a6,65d6bb0e977760de756971f7,65d6bfa055338e31f88bed2b,0.4094,0.4097,0,59,59,50,1,twoone,,,,,,,,,,,,,,,,,,,,,,,,,,,,,,,,,,,,,,,,,,,,,,,,,,,,,,,,,,,,,,,,,,,,,,,,,,,,,,,,,,,,,,,,,,,,,,,,,,,,,,,,,,,,,,,,,,,,,,,,,,,,,,,,,,,,,,,,,
,,5c8c59d99c57e70001a659a6,2024-02-22_04h32.08.951,kallum_motion_pilot,2023.2.2,Win32,59.88023952,5c8c59d99c57e70001a659a6,65d6bb0e977760de756971f7,65d6bfa055338e31f88bed2b,0.4103,0.4106,0,60,60,145,1,fiveseven,,,,,,,,,,,,,,,,,,,,,,,,,,,,,,,,,,,,,,,,,,,,,,,,,,,,,,,,,,,,,,,,,,,,,,,,,,,,,,,,,,,,,,,,,,,,,,,,,,,,,,,,,,,,,,,,,,,,,,,,,,,,,,,,,,,,,,,,,
,,5c8c59d99c57e70001a659a6,2024-02-22_04h32.08.951,kallum_motion_pilot,2023.2.2,Win32,59.88023952,5c8c59d99c57e70001a659a6,65d6bb0e977760de756971f7,65d6bfa055338e31f88bed2b,0.4111,0.4116,0,61,61,67,1,twofour,,,,,,,,,,,,,,,,,,,,,,,,,,,,,,,,,,,,,,,,,,,,,,,,,,,,,,,,,,,,,,,,,,,,,,,,,,,,,,,,,,,,,,,,,,,,,,,,,,,,,,,,,,,,,,,,,,,,,,,,,,,,,,,,,,,,,,,,,
,,5c8c59d99c57e70001a659a6,2024-02-22_04h32.08.951,kallum_motion_pilot,2023.2.2,Win32,59.88023952,5c8c59d99c57e70001a659a6,65d6bb0e977760de756971f7,65d6bfa055338e31f88bed2b,0.4133,0.4134,0,62,62,132,1,sevenfive,,,,,,,,,,,,,,,,,,,,,,,,,,,,,,,,,,,,,,,,,,,,,,,,,,,,,,,,,,,,,,,,,,,,,,,,,,,,,,,,,,,,,,,,,,,,,,,,,,,,,,,,,,,,,,,,,,,,,,,,,,,,,,,,,,,,,,,,,
,,5c8c59d99c57e70001a659a6,2024-02-22_04h32.08.951,kallum_motion_pilot,2023.2.2,Win32,59.88023952,5c8c59d99c57e70001a659a6,65d6bb0e977760de756971f7,65d6bfa055338e31f88bed2b,0.4166,0.417,0,63,63,14,1,fourtwo,,,,,,,,,,,,,,,,,,,,,,,,,,,,,,,,,,,,,,,,,,,,,,,,,,,,,,,,,,,,,,,,,,,,,,,,,,,,,,,,,,,,,,,,,,,,,,,,,,,,,,,,,,,,,,,,,,,,,,,,,,,,,,,,,,,,,,,,,
,,5c8c59d99c57e70001a659a6,2024-02-22_04h32.08.951,kallum_motion_pilot,2023.2.2,Win32,59.88023952,5c8c59d99c57e70001a659a6,65d6bb0e977760de756971f7,65d6bfa055338e31f88bed2b,0.4174,0.4177,0,64,64,11,1,twofour,,,,,,,,,,,,,,,,,,,,,,,,,,,,,,,,,,,,,,,,,,,,,,,,,,,,,,,,,,,,,,,,,,,,,,,,,,,,,,,,,,,,,,,,,,,,,,,,,,,,,,,,,,,,,,,,,,,,,,,,,,,,,,,,,,,,,,,,,
,,5c8c59d99c57e70001a659a6,2024-02-22_04h32.08.951,kallum_motion_pilot,2023.2.2,Win32,59.88023952,5c8c59d99c57e70001a659a6,65d6bb0e977760de756971f7,65d6bfa055338e31f88bed2b,0.4182,0.4185,0,65,65,70,1,fourtwo,,,,,,,,,,,,,,,,,,,,,,,,,,,,,,,,,,,,,,,,,,,,,,,,,,,,,,,,,,,,,,,,,,,,,,,,,,,,,,,,,,,,,,,,,,,,,,,,,,,,,,,,,,,,,,,,,,,,,,,,,,,,,,,,,,,,,,,,,
,,5c8c59d99c57e70001a659a6,2024-02-22_04h32.08.951,kallum_motion_pilot,2023.2.2,Win32,59.88023952,5c8c59d99c57e70001a659a6,65d6bb0e977760de756971f7,65d6bfa055338e31f88bed2b,0.419,0.4194,0,66,66,158,1,eightsix,,,,,,,,,,,,,,,,,,,,,,,,,,,,,,,,,,,,,,,,,,,,,,,,,,,,,,,,,,,,,,,,,,,,,,,,,,,,,,,,,,,,,,,,,,,,,,,,,,,,,,,,,,,,,,,,,,,,,,,,,,,,,,,,,,,,,,,,,
,,5c8c59d99c57e70001a659a6,2024-02-22_04h32.08.951,kallum_motion_pilot,2023.2.2,Win32,59.88023952,5c8c59d99c57e70001a659a6,65d6bb0e977760de756971f7,65d6bfa055338e31f88bed2b,0.42,0.4203,0,67,67,6,1,fourtwo,,,,,,,,,,,,,,,,,,,,,,,,,,,,,,,,,,,,,,,,,,,,,,,,,,,,,,,,,,,,,,,,,,,,,,,,,,,,,,,,,,,,,,,,,,,,,,,,,,,,,,,,,,,,,,,,,,,,,,,,,,,,,,,,,,,,,,,,,
,,5c8c59d99c57e70001a659a6,2024-02-22_04h32.08.951,kallum_motion_pilot,2023.2.2,Win32,59.88023952,5c8c59d99c57e70001a659a6,65d6bb0e977760de756971f7,65d6bfa055338e31f88bed2b,0.4209,0.4213,0,68,68,7,1,fourthree,,,,,,,,,,,,,,,,,,,,,,,,,,,,,,,,,,,,,,,,,,,,,,,,,,,,,,,,,,,,,,,,,,,,,,,,,,,,,,,,,,,,,,,,,,,,,,,,,,,,,,,,,,,,,,,,,,,,,,,,,,,,,,,,,,,,,,,,,
,,5c8c59d99c57e70001a659a6,2024-02-22_04h32.08.951,kallum_motion_pilot,2023.2.2,Win32,59.88023952,5c8c59d99c57e70001a659a6,65d6bb0e977760de756971f7,65d6bfa055338e31f88bed2b,0.4218,0.4223,0,69,69,92,1,sevenfive,,,,,,,,,,,,,,,,,,,,,,,,,,,,,,,,,,,,,,,,,,,,,,,,,,,,,,,,,,,,,,,,,,,,,,,,,,,,,,,,,,,,,,,,,,,,,,,,,,,,,,,,,,,,,,,,,,,,,,,,,,,,,,,,,,,,,,,,,
,,5c8c59d99c57e70001a659a6,2024-02-22_04h32.08.951,kallum_motion_pilot,2023.2.2,Win32,59.88023952,5c8c59d99c57e70001a659a6,65d6bb0e977760de756971f7,65d6bfa055338e31f88bed2b,0.4229,0.4232,0,70,70,20,1,threeone,,,,,,,,,,,,,,,,,,,,,,,,,,,,,,,,,,,,,,,,,,,,,,,,,,,,,,,,,,,,,,,,,,,,,,,,,,,,,,,,,,,,,,,,,,,,,,,,,,,,,,,,,,,,,,,,,,,,,,,,,,,,,,,,,,,,,,,,,
,,5c8c59d99c57e70001a659a6,2024-02-22_04h32.08.951,kallum_motion_pilot,2023.2.2,Win32,59.88023952,5c8c59d99c57e70001a659a6,65d6bb0e977760de756971f7,65d6bfa055338e31f88bed2b,0.4237,0.424,0,71,71,41,1,onethree,,,,,,,,,,,,,,,,,,,,,,,,,,,,,,,,,,,,,,,,,,,,,,,,,,,,,,,,,,,,,,,,,,,,,,,,,,,,,,,,,,,,,,,,,,,,,,,,,,,,,,,,,,,,,,,,,,,,,,,,,,,,,,,,,,,,,,,,,
,,5c8c59d99c57e70001a659a6,2024-02-22_04h32.08.951,kallum_motion_pilot,2023.2.2,Win32,59.88023952,5c8c59d99c57e70001a659a6,65d6bb0e977760de756971f7,65d6bfa055338e31f88bed2b,0.4246,0.4249,0,72,72,18,1,twoone,,,,,,,,,,,,,,,,,,,,,,,,,,,,,,,,,,,,,,,,,,,,,,,,,,,,,,,,,,,,,,,,,,,,,,,,,,,,,,,,,,,,,,,,,,,,,,,,,,,,,,,,,,,,,,,,,,,,,,,,,,,,,,,,,,,,,,,,,
,,5c8c59d99c57e70001a659a6,2024-02-22_04h32.08.951,kallum_motion_pilot,2023.2.2,Win32,59.88023952,5c8c59d99c57e70001a659a6,65d6bb0e977760de756971f7,65d6bfa055338e31f88bed2b,0.4254,0.4257,0,73,73,3,1,twofour,,,,,,,,,,,,,,,,,,,,,,,,,,,,,,,,,,,,,,,,,,,,,,,,,,,,,,,,,,,,,,,,,,,,,,,,,,,,,,,,,,,,,,,,,,,,,,,,,,,,,,,,,,,,,,,,,,,,,,,,,,,,,,,,,,,,,,,,,
,,5c8c59d99c57e70001a659a6,2024-02-22_04h32.08.951,kallum_motion_pilot,2023.2.2,Win32,59.88023952,5c8c59d99c57e70001a659a6,65d6bb0e977760de756971f7,65d6bfa055338e31f88bed2b,0.4262,0.4265,0,74,74,63,1,fourthree,,,,,,,,,,,,,,,,,,,,,,,,,,,,,,,,,,,,,,,,,,,,,,,,,,,,,,,,,,,,,,,,,,,,,,,,,,,,,,,,,,,,,,,,,,,,,,,,,,,,,,,,,,,,,,,,,,,,,,,,,,,,,,,,,,,,,,,,,
,,5c8c59d99c57e70001a659a6,2024-02-22_04h32.08.951,kallum_motion_pilot,2023.2.2,Win32,59.88023952,5c8c59d99c57e70001a659a6,65d6bb0e977760de756971f7,65d6bfa055338e31f88bed2b,0.427,0.4273,0,75,75,57,1,onethree,,,,,,,,,,,,,,,,,,,,,,,,,,,,,,,,,,,,,,,,,,,,,,,,,,,,,,,,,,,,,,,,,,,,,,,,,,,,,,,,,,,,,,,,,,,,,,,,,,,,,,,,,,,,,,,,,,,,,,,,,,,,,,,,,,,,,,,,,
,,5c8c59d99c57e70001a659a6,2024-02-22_04h32.08.951,kallum_motion_pilot,2023.2.2,Win32,59.88023952,5c8c59d99c57e70001a659a6,65d6bb0e977760de756971f7,65d6bfa055338e31f88bed2b,0.4278,0.4281,0,76,76,43,1,twofour,,,,,,,,,,,,,,,,,,,,,,,,,,,,,,,,,,,,,,,,,,,,,,,,,,,,,,,,,,,,,,,,,,,,,,,,,,,,,,,,,,,,,,,,,,,,,,,,,,,,,,,,,,,,,,,,,,,,,,,,,,,,,,,,,,,,,,,,,
,,5c8c59d99c57e70001a659a6,2024-02-22_04h32.08.951,kallum_motion_pilot,2023.2.2,Win32,59.88023952,5c8c59d99c57e70001a659a6,65d6bb0e977760de756971f7,65d6bfa055338e31f88bed2b,0.4291,0.4295,0,77,77,65,1,onethree,,,,,,,,,,,,,,,,,,,,,,,,,,,,,,,,,,,,,,,,,,,,,,,,,,,,,,,,,,,,,,,,,,,,,,,,,,,,,,,,,,,,,,,,,,,,,,,,,,,,,,,,,,,,,,,,,,,,,,,,,,,,,,,,,,,,,,,,,
,,5c8c59d99c57e70001a659a6,2024-02-22_04h32.08.951,kallum_motion_pilot,2023.2.2,Win32,59.88023952,5c8c59d99c57e70001a659a6,65d6bb0e977760de756971f7,65d6bfa055338e31f88bed2b,0.43,0.4303,0,78,78,34,1,twoone,,,,,,,,,,,,,,,,,,,,,,,,,,,,,,,,,,,,,,,,,,,,,,,,,,,,,,,,,,,,,,,,,,,,,,,,,,,,,,,,,,,,,,,,,,,,,,,,,,,,,,,,,,,,,,,,,,,,,,,,,,,,,,,,,,,,,,,,,
,,5c8c59d99c57e70001a659a6,2024-02-22_04h32.08.951,kallum_motion_pilot,2023.2.2,Win32,59.88023952,5c8c59d99c57e70001a659a6,65d6bb0e977760de756971f7,65d6bfa055338e31f88bed2b,0.4308,0.4312,0,79,79,17,1,onethree,,,,,,,,,,,,,,,,,,,,,,,,,,,,,,,,,,,,,,,,,,,,,,,,,,,,,,,,,,,,,,,,,,,,,,,,,,,,,,,,,,,,,,,,,,,,,,,,,,,,,,,,,,,,,,,,,,,,,,,,,,,,,,,,,,,,,,,,,
,,5c8c59d99c57e70001a659a6,2024-02-22_04h32.08.951,kallum_motion_pilot,2023.2.2,Win32,59.88023952,5c8c59d99c57e70001a659a6,65d6bb0e977760de756971f7,65d6bfa055338e31f88bed2b,0.4317,0.4321,0,80,80,89,1,fiveseven,,,,,,,,,,,,,,,,,,,,,,,,,,,,,,,,,,,,,,,,,,,,,,,,,,,,,,,,,,,,,,,,,,,,,,,,,,,,,,,,,,,,,,,,,,,,,,,,,,,,,,,,,,,,,,,,,,,,,,,,,,,,,,,,,,,,,,,,,
,,5c8c59d99c57e70001a659a6,2024-02-22_04h32.08.951,kallum_motion_pilot,2023.2.2,Win32,59.88023952,5c8c59d99c57e70001a659a6,65d6bb0e977760de756971f7,65d6bfa055338e31f88bed2b,0.4327,0.4335,0,81,81,90,1,sixfive,,,,,,,,,,,,,,,,,,,,,,,,,,,,,,,,,,,,,,,,,,,,,,,,,,,,,,,,,,,,,,,,,,,,,,,,,,,,,,,,,,,,,,,,,,,,,,,,,,,,,,,,,,,,,,,,,,,,,,,,,,,,,,,,,,,,,,,,,
,,5c8c59d99c57e70001a659a6,2024-02-22_04h32.08.951,kallum_motion_pilot,2023.2.2,Win32,59.88023952,5c8c59d99c57e70001a659a6,65d6bb0e977760de756971f7,65d6bfa055338e31f88bed2b,0.434,0.4344,0,82,82,109,1,seveneight,,,,,,,,,,,,,,,,,,,,,,,,,,,,,,,,,,,,,,,,,,,,,,,,,,,,,,,,,,,,,,,,,,,,,,,,,,,,,,,,,,,,,,,,,,,,,,,,,,,,,,,,,,,,,,,,,,,,,,,,,,,,,,,,,,,,,,,,,
,,5c8c59d99c57e70001a659a6,2024-02-22_04h32.08.951,kallum_motion_pilot,2023.2.2,Win32,59.88023952,5c8c59d99c57e70001a659a6,65d6bb0e977760de756971f7,65d6bfa055338e31f88bed2b,0.4349,0.4353,0,83,83,133,1,seveneight,,,,,,,,,,,,,,,,,,,,,,,,,,,,,,,,,,,,,,,,,,,,,,,,,,,,,,,,,,,,,,,,,,,,,,,,,,,,,,,,,,,,,,,,,,,,,,,,,,,,,,,,,,,,,,,,,,,,,,,,,,,,,,,,,,,,,,,,,
,,5c8c59d99c57e70001a659a6,2024-02-22_04h32.08.951,kallum_motion_pilot,2023.2.2,Win32,59.88023952,5c8c59d99c57e70001a659a6,65d6bb0e977760de756971f7,65d6bfa055338e31f88bed2b,0.4358,0.4362,0,84,84,95,1,eightseven,,,,,,,,,,,,,,,,,,,,,,,,,,,,,,,,,,,,,,,,,,,,,,,,,,,,,,,,,,,,,,,,,,,,,,,,,,,,,,,,,,,,,,,,,,,,,,,,,,,,,,,,,,,,,,,,,,,,,,,,,,,,,,,,,,,,,,,,,
,,5c8c59d99c57e70001a659a6,2024-02-22_04h32.08.951,kallum_motion_pilot,2023.2.2,Win32,59.88023952,5c8c59d99c57e70001a659a6,65d6bb0e977760de756971f7,65d6bfa055338e31f88bed2b,0.4366,0.437,0,85,85,118,1,eightsix,,,,,,,,,,,,,,,,,,,,,,,,,,,,,,,,,,,,,,,,,,,,,,,,,,,,,,,,,,,,,,,,,,,,,,,,,,,,,,,,,,,,,,,,,,,,,,,,,,,,,,,,,,,,,,,,,,,,,,,,,,,,,,,,,,,,,,,,,
,,5c8c59d99c57e70001a659a6,2024-02-22_04h32.08.951,kallum_motion_pilot,2023.2.2,Win32,59.88023952,5c8c59d99c57e70001a659a6,65d6bb0e977760de756971f7,65d6bfa055338e31f88bed2b,0.4377,0.4381,0,86,86,103,1,eightseven,,,,,,,,,,,,,,,,,,,,,,,,,,,,,,,,,,,,,,,,,,,,,,,,,,,,,,,,,,,,,,,,,,,,,,,,,,,,,,,,,,,,,,,,,,,,,,,,,,,,,,,,,,,,,,,,,,,,,,,,,,,,,,,,,,,,,,,,,
,,5c8c59d99c57e70001a659a6,2024-02-22_04h32.08.951,kallum_motion_pilot,2023.2.2,Win32,59.88023952,5c8c59d99c57e70001a659a6,65d6bb0e977760de756971f7,65d6bfa055338e31f88bed2b,0.4399,0.4402,0,87,87,76,1,threeone,,,,,,,,,,,,,,,,,,,,,,,,,,,,,,,,,,,,,,,,,,,,,,,,,,,,,,,,,,,,,,,,,,,,,,,,,,,,,,,,,,,,,,,,,,,,,,,,,,,,,,,,,,,,,,,,,,,,,,,,,,,,,,,,,,,,,,,,,
,,5c8c59d99c57e70001a659a6,2024-02-22_04h32.08.951,kallum_motion_pilot,2023.2.2,Win32,59.88023952,5c8c59d99c57e70001a659a6,65d6bb0e977760de756971f7,65d6bfa055338e31f88bed2b,0.441,0.4414,0,88,88,21,1,threefour,,,,,,,,,,,,,,,,,,,,,,,,,,,,,,,,,,,,,,,,,,,,,,,,,,,,,,,,,,,,,,,,,,,,,,,,,,,,,,,,,,,,,,,,,,,,,,,,,,,,,,,,,,,,,,,,,,,,,,,,,,,,,,,,,,,,,,,,,
,,5c8c59d99c57e70001a659a6,2024-02-22_04h32.08.951,kallum_motion_pilot,2023.2.2,Win32,59.88023952,5c8c59d99c57e70001a659a6,65d6bb0e977760de756971f7,65d6bfa055338e31f88bed2b,0.442,0.4427,0,89,89,83,1,sixeight,,,,,,,,,,,,,,,,,,,,,,,,,,,,,,,,,,,,,,,,,,,,,,,,,,,,,,,,,,,,,,,,,,,,,,,,,,,,,,,,,,,,,,,,,,,,,,,,,,,,,,,,,,,,,,,,,,,,,,,,,,,,,,,,,,,,,,,,,
,,5c8c59d99c57e70001a659a6,2024-02-22_04h32.08.951,kallum_motion_pilot,2023.2.2,Win32,59.88023952,5c8c59d99c57e70001a659a6,65d6bb0e977760de756971f7,65d6bfa055338e31f88bed2b,0.4432,0.4436,0,90,90,53,1,threefour,,,,,,,,,,,,,,,,,,,,,,,,,,,,,,,,,,,,,,,,,,,,,,,,,,,,,,,,,,,,,,,,,,,,,,,,,,,,,,,,,,,,,,,,,,,,,,,,,,,,,,,,,,,,,,,,,,,,,,,,,,,,,,,,,,,,,,,,,
,,5c8c59d99c57e70001a659a6,2024-02-22_04h32.08.951,kallum_motion_pilot,2023.2.2,Win32,59.88023952,5c8c59d99c57e70001a659a6,65d6bb0e977760de756971f7,65d6bfa055338e31f88bed2b,0.4441,0.4445,0,91,91,135,1,eightseven,,,,,,,,,,,,,,,,,,,,,,,,,,,,,,,,,,,,,,,,,,,,,,,,,,,,,,,,,,,,,,,,,,,,,,,,,,,,,,,,,,,,,,,,,,,,,,,,,,,,,,,,,,,,,,,,,,,,,,,,,,,,,,,,,,,,,,,,,
,,5c8c59d99c57e70001a659a6,2024-02-22_04h32.08.951,kallum_motion_pilot,2023.2.2,Win32,59.88023952,5c8c59d99c57e70001a659a6,65d6bb0e977760de756971f7,65d6bfa055338e31f88bed2b,0.445,0.4467,0,92,92,107,1,sixeight,,,,,,,,,,,,,,,,,,,,,,,,,,,,,,,,,,,,,,,,,,,,,,,,,,,,,,,,,,,,,,,,,,,,,,,,,,,,,,,,,,,,,,,,,,,,,,,,,,,,,,,,,,,,,,,,,,,,,,,,,,,,,,,,,,,,,,,,,
,,5c8c59d99c57e70001a659a6,2024-02-22_04h32.08.951,kallum_motion_pilot,2023.2.2,Win32,59.88023952,5c8c59d99c57e70001a659a6,65d6bb0e977760de756971f7,65d6bfa055338e31f88bed2b,0.4473,0.4477,0,93,93,87,1,eightseven,,,,,,,,,,,,,,,,,,,,,,,,,,,,,,,,,,,,,,,,,,,,,,,,,,,,,,,,,,,,,,,,,,,,,,,,,,,,,,,,,,,,,,,,,,,,,,,,,,,,,,,,,,,,,,,,,,,,,,,,,,,,,,,,,,,,,,,,,
,,5c8c59d99c57e70001a659a6,2024-02-22_04h32.08.951,kallum_motion_pilot,2023.2.2,Win32,59.88023952,5c8c59d99c57e70001a659a6,65d6bb0e977760de756971f7,65d6bfa055338e31f88bed2b,0.4482,0.4485,0,94,94,28,1,threeone,,,,,,,,,,,,,,,,,,,,,,,,,,,,,,,,,,,,,,,,,,,,,,,,,,,,,,,,,,,,,,,,,,,,,,,,,,,,,,,,,,,,,,,,,,,,,,,,,,,,,,,,,,,,,,,,,,,,,,,,,,,,,,,,,,,,,,,,,
,,5c8c59d99c57e70001a659a6,2024-02-22_04h32.08.951,kallum_motion_pilot,2023.2.2,Win32,59.88023952,5c8c59d99c57e70001a659a6,65d6bb0e977760de756971f7,65d6bfa055338e31f88bed2b,0.449,0.4494,0,95,95,72,1,onetwo,,,,,,,,,,,,,,,,,,,,,,,,,,,,,,,,,,,,,,,,,,,,,,,,,,,,,,,,,,,,,,,,,,,,,,,,,,,,,,,,,,,,,,,,,,,,,,,,,,,,,,,,,,,,,,,,,,,,,,,,,,,,,,,,,,,,,,,,,
,,5c8c59d99c57e70001a659a6,2024-02-22_04h32.08.951,kallum_motion_pilot,2023.2.2,Win32,59.88023952,5c8c59d99c57e70001a659a6,65d6bb0e977760de756971f7,65d6bfa055338e31f88bed2b,0.45,0.4503,0,96,96,123,1,sixeight,,,,,,,,,,,,,,,,,,,,,,,,,,,,,,,,,,,,,,,,,,,,,,,,,,,,,,,,,,,,,,,,,,,,,,,,,,,,,,,,,,,,,,,,,,,,,,,,,,,,,,,,,,,,,,,,,,,,,,,,,,,,,,,,,,,,,,,,,
,,5c8c59d99c57e70001a659a6,2024-02-22_04h32.08.951,kallum_motion_pilot,2023.2.2,Win32,59.88023952,5c8c59d99c57e70001a659a6,65d6bb0e977760de756971f7,65d6bfa055338e31f88bed2b,0.4508,0.4512,0,97,97,125,1,seveneight,,,,,,,,,,,,,,,,,,,,,,,,,,,,,,,,,,,,,,,,,,,,,,,,,,,,,,,,,,,,,,,,,,,,,,,,,,,,,,,,,,,,,,,,,,,,,,,,,,,,,,,,,,,,,,,,,,,,,,,,,,,,,,,,,,,,,,,,,
,,5c8c59d99c57e70001a659a6,2024-02-22_04h32.08.951,kallum_motion_pilot,2023.2.2,Win32,59.88023952,5c8c59d99c57e70001a659a6,65d6bb0e977760de756971f7,65d6bfa055338e31f88bed2b,0.4517,0.4521,0,98,98,1,1,onethree,,,,,,,,,,,,,,,,,,,,,,,,,,,,,,,,,,,,,,,,,,,,,,,,,,,,,,,,,,,,,,,,,,,,,,,,,,,,,,,,,,,,,,,,,,,,,,,,,,,,,,,,,,,,,,,,,,,,,,,,,,,,,,,,,,,,,,,,,
,,5c8c59d99c57e70001a659a6,2024-02-22_04h32.08.951,kallum_motion_pilot,2023.2.2,Win32,59.88023952,5c8c59d99c57e70001a659a6,65d6bb0e977760de756971f7,65d6bfa055338e31f88bed2b,0.4531,0.4535,0,99,99,134,1,eightsix,,,,,,,,,,,,,,,,,,,,,,,,,,,,,,,,,,,,,,,,,,,,,,,,,,,,,,,,,,,,,,,,,,,,,,,,,,,,,,,,,,,,,,,,,,,,,,,,,,,,,,,,,,,,,,,,,,,,,,,,,,,,,,,,,,,,,,,,,
,,5c8c59d99c57e70001a659a6,2024-02-22_04h32.08.951,kallum_motion_pilot,2023.2.2,Win32,59.88023952,5c8c59d99c57e70001a659a6,65d6bb0e977760de756971f7,65d6bfa055338e31f88bed2b,0.4545,0.4547,0,100,100,75,1,twofour,,,,,,,,,,,,,,,,,,,,,,,,,,,,,,,,,,,,,,,,,,,,,,,,,,,,,,,,,,,,,,,,,,,,,,,,,,,,,,,,,,,,,,,,,,,,,,,,,,,,,,,,,,,,,,,,,,,,,,,,,,,,,,,,,,,,,,,,,
,,5c8c59d99c57e70001a659a6,2024-02-22_04h32.08.951,kallum_motion_pilot,2023.2.2,Win32,59.88023952,5c8c59d99c57e70001a659a6,65d6bb0e977760de756971f7,65d6bfa055338e31f88bed2b,0.4553,0.4557,0,101,101,77,1,threefour,,,,,,,,,,,,,,,,,,,,,,,,,,,,,,,,,,,,,,,,,,,,,,,,,,,,,,,,,,,,,,,,,,,,,,,,,,,,,,,,,,,,,,,,,,,,,,,,,,,,,,,,,,,,,,,,,,,,,,,,,,,,,,,,,,,,,,,,,
,,5c8c59d99c57e70001a659a6,2024-02-22_04h32.08.951,kallum_motion_pilot,2023.2.2,Win32,59.88023952,5c8c59d99c57e70001a659a6,65d6bb0e977760de756971f7,65d6bfa055338e31f88bed2b,0.4562,0.4565,0,102,102,130,1,sixfive,,,,,,,,,,,,,,,,,,,,,,,,,,,,,,,,,,,,,,,,,,,,,,,,,,,,,,,,,,,,,,,,,,,,,,,,,,,,,,,,,,,,,,,,,,,,,,,,,,,,,,,,,,,,,,,,,,,,,,,,,,,,,,,,,,,,,,,,,
,,5c8c59d99c57e70001a659a6,2024-02-22_04h32.08.951,kallum_motion_pilot,2023.2.2,Win32,59.88023952,5c8c59d99c57e70001a659a6,65d6bb0e977760de756971f7,65d6bfa055338e31f88bed2b,0.4571,0.4575,0,103,103,30,1,fourtwo,,,,,,,,,,,,,,,,,,,,,,,,,,,,,,,,,,,,,,,,,,,,,,,,,,,,,,,,,,,,,,,,,,,,,,,,,,,,,,,,,,,,,,,,,,,,,,,,,,,,,,,,,,,,,,,,,,,,,,,,,,,,,,,,,,,,,,,,,
,,5c8c59d99c57e70001a659a6,2024-02-22_04h32.08.951,kallum_motion_pilot,2023.2.2,Win32,59.88023952,5c8c59d99c57e70001a659a6,65d6bb0e977760de756971f7,65d6bfa055338e31f88bed2b,0.458,0.4583,0,104,104,131,1,sixeight,,,,,,,,,,,,,,,,,,,,,,,,,,,,,,,,,,,,,,,,,,,,,,,,,,,,,,,,,,,,,,,,,,,,,,,,,,,,,,,,,,,,,,,,,,,,,,,,,,,,,,,,,,,,,,,,,,,,,,,,,,,,,,,,,,,,,,,,,
,,5c8c59d99c57e70001a659a6,2024-02-22_04h32.08.951,kallum_motion_pilot,2023.2.2,Win32,59.88023952,5c8c59d99c57e70001a659a6,65d6bb0e977760de756971f7,65d6bfa055338e31f88bed2b,0.4589,0.4593,0,105,105,161,1,fiveseven,,,,,,,,,,,,,,,,,,,,,,,,,,,,,,,,,,,,,,,,,,,,,,,,,,,,,,,,,,,,,,,,,,,,,,,,,,,,,,,,,,,,,,,,,,,,,,,,,,,,,,,,,,,,,,,,,,,,,,,,,,,,,,,,,,,,,,,,,
,,5c8c59d99c57e70001a659a6,2024-02-22_04h32.08.951,kallum_motion_pilot,2023.2.2,Win32,59.88023952,5c8c59d99c57e70001a659a6,65d6bb0e977760de756971f7,65d6bfa055338e31f88bed2b,0.4598,0.4602,0,106,106,45,1,threefour,,,,,,,,,,,,,,,,,,,,,,,,,,,,,,,,,,,,,,,,,,,,,,,,,,,,,,,,,,,,,,,,,,,,,,,,,,,,,,,,,,,,,,,,,,,,,,,,,,,,,,,,,,,,,,,,,,,,,,,,,,,,,,,,,,,,,,,,,
,,5c8c59d99c57e70001a659a6,2024-02-22_04h32.08.951,kallum_motion_pilot,2023.2.2,Win32,59.88023952,5c8c59d99c57e70001a659a6,65d6bb0e977760de756971f7,65d6bfa055338e31f88bed2b,0.4607,0.461,0,107,107,61,1,threefour,,,,,,,,,,,,,,,,,,,,,,,,,,,,,,,,,,,,,,,,,,,,,,,,,,,,,,,,,,,,,,,,,,,,,,,,,,,,,,,,,,,,,,,,,,,,,,,,,,,,,,,,,,,,,,,,,,,,,,,,,,,,,,,,,,,,,,,,,
,,5c8c59d99c57e70001a659a6,2024-02-22_04h32.08.951,kallum_motion_pilot,2023.2.2,Win32,59.88023952,5c8c59d99c57e70001a659a6,65d6bb0e977760de756971f7,65d6bfa055338e31f88bed2b,0.4628,0.4631,0,108,108,60,1,threeone,,,,,,,,,,,,,,,,,,,,,,,,,,,,,,,,,,,,,,,,,,,,,,,,,,,,,,,,,,,,,,,,,,,,,,,,,,,,,,,,,,,,,,,,,,,,,,,,,,,,,,,,,,,,,,,,,,,,,,,,,,,,,,,,,,,,,,,,,
,,5c8c59d99c57e70001a659a6,2024-02-22_04h32.08.951,kallum_motion_pilot,2023.2.2,Win32,59.88023952,5c8c59d99c57e70001a659a6,65d6bb0e977760de756971f7,65d6bfa055338e31f88bed2b,0.4637,0.4641,0,109,109,5,1,threefour,,,,,,,,,,,,,,,,,,,,,,,,,,,,,,,,,,,,,,,,,,,,,,,,,,,,,,,,,,,,,,,,,,,,,,,,,,,,,,,,,,,,,,,,,,,,,,,,,,,,,,,,,,,,,,,,,,,,,,,,,,,,,,,,,,,,,,,,,
,,5c8c59d99c57e70001a659a6,2024-02-22_04h32.08.951,kallum_motion_pilot,2023.2.2,Win32,59.88023952,5c8c59d99c57e70001a659a6,65d6bb0e977760de756971f7,65d6bfa055338e31f88bed2b,0.4645,0.4649,0,110,110,56,1,onetwo,,,,,,,,,,,,,,,,,,,,,,,,,,,,,,,,,,,,,,,,,,,,,,,,,,,,,,,,,,,,,,,,,,,,,,,,,,,,,,,,,,,,,,,,,,,,,,,,,,,,,,,,,,,,,,,,,,,,,,,,,,,,,,,,,,,,,,,,,
,,5c8c59d99c57e70001a659a6,2024-02-22_04h32.08.951,kallum_motion_pilot,2023.2.2,Win32,59.88023952,5c8c59d99c57e70001a659a6,65d6bb0e977760de756971f7,65d6bfa055338e31f88bed2b,0.4655,0.4659,0,111,111,110,1,eightsix,,,,,,,,,,,,,,,,,,,,,,,,,,,,,,,,,,,,,,,,,,,,,,,,,,,,,,,,,,,,,,,,,,,,,,,,,,,,,,,,,,,,,,,,,,,,,,,,,,,,,,,,,,,,,,,,,,,,,,,,,,,,,,,,,,,,,,,,,
,,5c8c59d99c57e70001a659a6,2024-02-22_04h32.08.951,kallum_motion_pilot,2023.2.2,Win32,59.88023952,5c8c59d99c57e70001a659a6,65d6bb0e977760de756971f7,65d6bfa055338e31f88bed2b,0.4663,0.4667,0,112,112,114,1,sixfive,,,,,,,,,,,,,,,,,,,,,,,,,,,,,,,,,,,,,,,,,,,,,,,,,,,,,,,,,,,,,,,,,,,,,,,,,,,,,,,,,,,,,,,,,,,,,,,,,,,,,,,,,,,,,,,,,,,,,,,,,,,,,,,,,,,,,,,,,
,,5c8c59d99c57e70001a659a6,2024-02-22_04h32.08.951,kallum_motion_pilot,2023.2.2,Win32,59.88023952,5c8c59d99c57e70001a659a6,65d6bb0e977760de756971f7,65d6bfa055338e31f88bed2b,0.4672,0.4676,0,113,113,156,1,sevenfive,,,,,,,,,,,,,,,,,,,,,,,,,,,,,,,,,,,,,,,,,,,,,,,,,,,,,,,,,,,,,,,,,,,,,,,,,,,,,,,,,,,,,,,,,,,,,,,,,,,,,,,,,,,,,,,,,,,,,,,,,,,,,,,,,,,,,,,,,
,,5c8c59d99c57e70001a659a6,2024-02-22_04h32.08.951,kallum_motion_pilot,2023.2.2,Win32,59.88023952,5c8c59d99c57e70001a659a6,65d6bb0e977760de756971f7,65d6bfa055338e31f88bed2b,0.4682,0.4685,0,114,114,136,1,fivesix,,,,,,,,,,,,,,,,,,,,,,,,,,,,,,,,,,,,,,,,,,,,,,,,,,,,,,,,,,,,,,,,,,,,,,,,,,,,,,,,,,,,,,,,,,,,,,,,,,,,,,,,,,,,,,,,,,,,,,,,,,,,,,,,,,,,,,,,,
,,5c8c59d99c57e70001a659a6,2024-02-22_04h32.08.951,kallum_motion_pilot,2023.2.2,Win32,59.88023952,5c8c59d99c57e70001a659a6,65d6bb0e977760de756971f7,65d6bfa055338e31f88bed2b,0.4691,0.4695,0,115,115,115,1,sixeight,,,,,,,,,,,,,,,,,,,,,,,,,,,,,,,,,,,,,,,,,,,,,,,,,,,,,,,,,,,,,,,,,,,,,,,,,,,,,,,,,,,,,,,,,,,,,,,,,,,,,,,,,,,,,,,,,,,,,,,,,,,,,,,,,,,,,,,,,
,,5c8c59d99c57e70001a659a6,2024-02-22_04h32.08.951,kallum_motion_pilot,2023.2.2,Win32,59.88023952,5c8c59d99c57e70001a659a6,65d6bb0e977760de756971f7,65d6bfa055338e31f88bed2b,0.47,0.4704,0,116,116,155,1,sixeight,,,,,,,,,,,,,,,,,,,,,,,,,,,,,,,,,,,,,,,,,,,,,,,,,,,,,,,,,,,,,,,,,,,,,,,,,,,,,,,,,,,,,,,,,,,,,,,,,,,,,,,,,,,,,,,,,,,,,,,,,,,,,,,,,,,,,,,,,
,,5c8c59d99c57e70001a659a6,2024-02-22_04h32.08.951,kallum_motion_pilot,2023.2.2,Win32,59.88023952,5c8c59d99c57e70001a659a6,65d6bb0e977760de756971f7,65d6bfa055338e31f88bed2b,0.4711,0.4716,0,117,117,93,1,seveneight,,,,,,,,,,,,,,,,,,,,,,,,,,,,,,,,,,,,,,,,,,,,,,,,,,,,,,,,,,,,,,,,,,,,,,,,,,,,,,,,,,,,,,,,,,,,,,,,,,,,,,,,,,,,,,,,,,,,,,,,,,,,,,,,,,,,,,,,,
,,5c8c59d99c57e70001a659a6,2024-02-22_04h32.08.951,kallum_motion_pilot,2023.2.2,Win32,59.88023952,5c8c59d99c57e70001a659a6,65d6bb0e977760de756971f7,65d6bfa055338e31f88bed2b,0.4722,0.4726,0,118,118,23,1,fourthree,,,,,,,,,,,,,,,,,,,,,,,,,,,,,,,,,,,,,,,,,,,,,,,,,,,,,,,,,,,,,,,,,,,,,,,,,,,,,,,,,,,,,,,,,,,,,,,,,,,,,,,,,,,,,,,,,,,,,,,,,,,,,,,,,,,,,,,,,
,,5c8c59d99c57e70001a659a6,2024-02-22_04h32.08.951,kallum_motion_pilot,2023.2.2,Win32,59.88023952,5c8c59d99c57e70001a659a6,65d6bb0e977760de756971f7,65d6bfa055338e31f88bed2b,0.4733,0.4737,0,119,119,33,1,onethree,,,,,,,,,,,,,,,,,,,,,,,,,,,,,,,,,,,,,,,,,,,,,,,,,,,,,,,,,,,,,,,,,,,,,,,,,,,,,,,,,,,,,,,,,,,,,,,,,,,,,,,,,,,,,,,,,,,,,,,,,,,,,,,,,,,,,,,,,
,,5c8c59d99c57e70001a659a6,2024-02-22_04h32.08.951,kallum_motion_pilot,2023.2.2,Win32,59.88023952,5c8c59d99c57e70001a659a6,65d6bb0e977760de756971f7,65d6bfa055338e31f88bed2b,0.4743,0.4746,0,120,120,64,1,onetwo,,,,,,,,,,,,,,,,,,,,,,,,,,,,,,,,,,,,,,,,,,,,,,,,,,,,,,,,,,,,,,,,,,,,,,,,,,,,,,,,,,,,,,,,,,,,,,,,,,,,,,,,,,,,,,,,,,,,,,,,,,,,,,,,,,,,,,,,,
,,5c8c59d99c57e70001a659a6,2024-02-22_04h32.08.951,kallum_motion_pilot,2023.2.2,Win32,59.88023952,5c8c59d99c57e70001a659a6,65d6bb0e977760de756971f7,65d6bfa055338e31f88bed2b,0.4751,0.4755,0,121,121,98,1,sixfive,,,,,,,,,,,,,,,,,,,,,,,,,,,,,,,,,,,,,,,,,,,,,,,,,,,,,,,,,,,,,,,,,,,,,,,,,,,,,,,,,,,,,,,,,,,,,,,,,,,,,,,,,,,,,,,,,,,,,,,,,,,,,,,,,,,,,,,,,
,,5c8c59d99c57e70001a659a6,2024-02-22_04h32.08.951,kallum_motion_pilot,2023.2.2,Win32,59.88023952,5c8c59d99c57e70001a659a6,65d6bb0e977760de756971f7,65d6bfa055338e31f88bed2b,0.4761,0.4767,0,122,122,117,1,seveneight,,,,,,,,,,,,,,,,,,,,,,,,,,,,,,,,,,,,,,,,,,,,,,,,,,,,,,,,,,,,,,,,,,,,,,,,,,,,,,,,,,,,,,,,,,,,,,,,,,,,,,,,,,,,,,,,,,,,,,,,,,,,,,,,,,,,,,,,,
,,5c8c59d99c57e70001a659a6,2024-02-22_04h32.08.951,kallum_motion_pilot,2023.2.2,Win32,59.88023952,5c8c59d99c57e70001a659a6,65d6bb0e977760de756971f7,65d6bfa055338e31f88bed2b,0.4792,0.48,0,123,123,4,1,threeone,,,,,,,,,,,,,,,,,,,,,,,,,,,,,,,,,,,,,,,,,,,,,,,,,,,,,,,,,,,,,,,,,,,,,,,,,,,,,,,,,,,,,,,,,,,,,,,,,,,,,,,,,,,,,,,,,,,,,,,,,,,,,,,,,,,,,,,,,
,,5c8c59d99c57e70001a659a6,2024-02-22_04h32.08.951,kallum_motion_pilot,2023.2.2,Win32,59.88023952,5c8c59d99c57e70001a659a6,65d6bb0e977760de756971f7,65d6bfa055338e31f88bed2b,0.481,0.4818,0,124,124,97,1,fiveseven,,,,,,,,,,,,,,,,,,,,,,,,,,,,,,,,,,,,,,,,,,,,,,,,,,,,,,,,,,,,,,,,,,,,,,,,,,,,,,,,,,,,,,,,,,,,,,,,,,,,,,,,,,,,,,,,,,,,,,,,,,,,,,,,,,,,,,,,,
,,5c8c59d99c57e70001a659a6,2024-02-22_04h32.08.951,kallum_motion_pilot,2023.2.2,Win32,59.88023952,5c8c59d99c57e70001a659a6,65d6bb0e977760de756971f7,65d6bfa055338e31f88bed2b,0.4828,0.4834,0,125,125,112,1,fivesix,,,,,,,,,,,,,,,,,,,,,,,,,,,,,,,,,,,,,,,,,,,,,,,,,,,,,,,,,,,,,,,,,,,,,,,,,,,,,,,,,,,,,,,,,,,,,,,,,,,,,,,,,,,,,,,,,,,,,,,,,,,,,,,,,,,,,,,,,
,,5c8c59d99c57e70001a659a6,2024-02-22_04h32.08.951,kallum_motion_pilot,2023.2.2,Win32,59.88023952,5c8c59d99c57e70001a659a6,65d6bb0e977760de756971f7,65d6bfa055338e31f88bed2b,0.484,0.4844,0,126,126,71,1,fourthree,,,,,,,,,,,,,,,,,,,,,,,,,,,,,,,,,,,,,,,,,,,,,,,,,,,,,,,,,,,,,,,,,,,,,,,,,,,,,,,,,,,,,,,,,,,,,,,,,,,,,,,,,,,,,,,,,,,,,,,,,,,,,,,,,,,,,,,,,
,,5c8c59d99c57e70001a659a6,2024-02-22_04h32.08.951,kallum_motion_pilot,2023.2.2,Win32,59.88023952,5c8c59d99c57e70001a659a6,65d6bb0e977760de756971f7,65d6bfa055338e31f88bed2b,0.4849,0.4853,0,127,127,35,1,twofour,,,,,,,,,,,,,,,,,,,,,,,,,,,,,,,,,,,,,,,,,,,,,,,,,,,,,,,,,,,,,,,,,,,,,,,,,,,,,,,,,,,,,,,,,,,,,,,,,,,,,,,,,,,,,,,,,,,,,,,,,,,,,,,,,,,,,,,,,
,,5c8c59d99c57e70001a659a6,2024-02-22_04h32.08.951,kallum_motion_pilot,2023.2.2,Win32,59.88023952,5c8c59d99c57e70001a659a6,65d6bb0e977760de756971f7,65d6bfa055338e31f88bed2b,0.4863,0.4866,0,128,128,62,1,fourtwo,,,,,,,,,,,,,,,,,,,,,,,,,,,,,,,,,,,,,,,,,,,,,,,,,,,,,,,,,,,,,,,,,,,,,,,,,,,,,,,,,,,,,,,,,,,,,,,,,,,,,,,,,,,,,,,,,,,,,,,,,,,,,,,,,,,,,,,,,
,,5c8c59d99c57e70001a659a6,2024-02-22_04h32.08.951,kallum_motion_pilot,2023.2.2,Win32,59.88023952,5c8c59d99c57e70001a659a6,65d6bb0e977760de756971f7,65d6bfa055338e31f88bed2b,0.4873,0.4877,0,129,129,31,1,fourthree,,,,,,,,,,,,,,,,,,,,,,,,,,,,,,,,,,,,,,,,,,,,,,,,,,,,,,,,,,,,,,,,,,,,,,,,,,,,,,,,,,,,,,,,,,,,,,,,,,,,,,,,,,,,,,,,,,,,,,,,,,,,,,,,,,,,,,,,,
,,5c8c59d99c57e70001a659a6,2024-02-22_04h32.08.951,kallum_motion_pilot,2023.2.2,Win32,59.88023952,5c8c59d99c57e70001a659a6,65d6bb0e977760de756971f7,65d6bfa055338e31f88bed2b,0.4882,0.4885,0,130,130,48,1,onetwo,,,,,,,,,,,,,,,,,,,,,,,,,,,,,,,,,,,,,,,,,,,,,,,,,,,,,,,,,,,,,,,,,,,,,,,,,,,,,,,,,,,,,,,,,,,,,,,,,,,,,,,,,,,,,,,,,,,,,,,,,,,,,,,,,,,,,,,,,
,,5c8c59d99c57e70001a659a6,2024-02-22_04h32.08.951,kallum_motion_pilot,2023.2.2,Win32,59.88023952,5c8c59d99c57e70001a659a6,65d6bb0e977760de756971f7,65d6bfa055338e31f88bed2b,0.4891,0.4895,0,131,131,111,1,eightseven,,,,,,,,,,,,,,,,,,,,,,,,,,,,,,,,,,,,,,,,,,,,,,,,,,,,,,,,,,,,,,,,,,,,,,,,,,,,,,,,,,,,,,,,,,,,,,,,,,,,,,,,,,,,,,,,,,,,,,,,,,,,,,,,,,,,,,,,,
,,5c8c59d99c57e70001a659a6,2024-02-22_04h32.08.951,kallum_motion_pilot,2023.2.2,Win32,59.88023952,5c8c59d99c57e70001a659a6,65d6bb0e977760de756971f7,65d6bfa055338e31f88bed2b,0.4901,0.4904,0,132,132,13,1,threefour,,,,,,,,,,,,,,,,,,,,,,,,,,,,,,,,,,,,,,,,,,,,,,,,,,,,,,,,,,,,,,,,,,,,,,,,,,,,,,,,,,,,,,,,,,,,,,,,,,,,,,,,,,,,,,,,,,,,,,,,,,,,,,,,,,,,,,,,,
,,5c8c59d99c57e70001a659a6,2024-02-22_04h32.08.951,kallum_motion_pilot,2023.2.2,Win32,59.88023952,5c8c59d99c57e70001a659a6,65d6bb0e977760de756971f7,65d6bfa055338e31f88bed2b,0.4913,0.4919,0,133,133,143,1,eightseven,,,,,,,,,,,,,,,,,,,,,,,,,,,,,,,,,,,,,,,,,,,,,,,,,,,,,,,,,,,,,,,,,,,,,,,,,,,,,,,,,,,,,,,,,,,,,,,,,,,,,,,,,,,,,,,,,,,,,,,,,,,,,,,,,,,,,,,,,
,,5c8c59d99c57e70001a659a6,2024-02-22_04h32.08.951,kallum_motion_pilot,2023.2.2,Win32,59.88023952,5c8c59d99c57e70001a659a6,65d6bb0e977760de756971f7,65d6bfa055338e31f88bed2b,0.4924,0.493,0,134,134,159,1,eightseven,,,,,,,,,,,,,,,,,,,,,,,,,,,,,,,,,,,,,,,,,,,,,,,,,,,,,,,,,,,,,,,,,,,,,,,,,,,,,,,,,,,,,,,,,,,,,,,,,,,,,,,,,,,,,,,,,,,,,,,,,,,,,,,,,,,,,,,,,
,,5c8c59d99c57e70001a659a6,2024-02-22_04h32.08.951,kallum_motion_pilot,2023.2.2,Win32,59.88023952,5c8c59d99c57e70001a659a6,65d6bb0e977760de756971f7,65d6bfa055338e31f88bed2b,0.4936,0.494,0,135,135,101,1,seveneight,,,,,,,,,,,,,,,,,,,,,,,,,,,,,,,,,,,,,,,,,,,,,,,,,,,,,,,,,,,,,,,,,,,,,,,,,,,,,,,,,,,,,,,,,,,,,,,,,,,,,,,,,,,,,,,,,,,,,,,,,,,,,,,,,,,,,,,,,
,,5c8c59d99c57e70001a659a6,2024-02-22_04h32.08.951,kallum_motion_pilot,2023.2.2,Win32,59.88023952,5c8c59d99c57e70001a659a6,65d6bb0e977760de756971f7,65d6bfa055338e31f88bed2b,0.4945,0.4949,0,136,136,15,1,fourthree,,,,,,,,,,,,,,,,,,,,,,,,,,,,,,,,,,,,,,,,,,,,,,,,,,,,,,,,,,,,,,,,,,,,,,,,,,,,,,,,,,,,,,,,,,,,,,,,,,,,,,,,,,,,,,,,,,,,,,,,,,,,,,,,,,,,,,,,,
,,5c8c59d99c57e70001a659a6,2024-02-22_04h32.08.951,kallum_motion_pilot,2023.2.2,Win32,59.88023952,5c8c59d99c57e70001a659a6,65d6bb0e977760de756971f7,65d6bfa055338e31f88bed2b,0.4967,0.497,0,137,137,160,1,fivesix,,,,,,,,,,,,,,,,,,,,,,,,,,,,,,,,,,,,,,,,,,,,,,,,,,,,,,,,,,,,,,,,,,,,,,,,,,,,,,,,,,,,,,,,,,,,,,,,,,,,,,,,,,,,,,,,,,,,,,,,,,,,,,,,,,,,,,,,,
,,5c8c59d99c57e70001a659a6,2024-02-22_04h32.08.951,kallum_motion_pilot,2023.2.2,Win32,59.88023952,5c8c59d99c57e70001a659a6,65d6bb0e977760de756971f7,65d6bfa055338e31f88bed2b,0.4976,0.4979,0,138,138,68,1,threeone,,,,,,,,,,,,,,,,,,,,,,,,,,,,,,,,,,,,,,,,,,,,,,,,,,,,,,,,,,,,,,,,,,,,,,,,,,,,,,,,,,,,,,,,,,,,,,,,,,,,,,,,,,,,,,,,,,,,,,,,,,,,,,,,,,,,,,,,,
,,5c8c59d99c57e70001a659a6,2024-02-22_04h32.08.951,kallum_motion_pilot,2023.2.2,Win32,59.88023952,5c8c59d99c57e70001a659a6,65d6bb0e977760de756971f7,65d6bfa055338e31f88bed2b,0.4985,0.4988,0,139,139,153,1,fiveseven,,,,,,,,,,,,,,,,,,,,,,,,,,,,,,,,,,,,,,,,,,,,,,,,,,,,,,,,,,,,,,,,,,,,,,,,,,,,,,,,,,,,,,,,,,,,,,,,,,,,,,,,,,,,,,,,,,,,,,,,,,,,,,,,,,,,,,,,,
,,5c8c59d99c57e70001a659a6,2024-02-22_04h32.08.951,kallum_motion_pilot,2023.2.2,Win32,59.88023952,5c8c59d99c57e70001a659a6,65d6bb0e977760de756971f7,65d6bfa055338e31f88bed2b,0.4994,0.4999,0,140,140,154,1,sixfive,,,,,,,,,,,,,,,,,,,,,,,,,,,,,,,,,,,,,,,,,,,,,,,,,,,,,,,,,,,,,,,,,,,,,,,,,,,,,,,,,,,,,,,,,,,,,,,,,,,,,,,,,,,,,,,,,,,,,,,,,,,,,,,,,,,,,,,,,
,,5c8c59d99c57e70001a659a6,2024-02-22_04h32.08.951,kallum_motion_pilot,2023.2.2,Win32,59.88023952,5c8c59d99c57e70001a659a6,65d6bb0e977760de756971f7,65d6bfa055338e31f88bed2b,0.5004,0.5008,0,141,141,29,1,threefour,,,,,,,,,,,,,,,,,,,,,,,,,,,,,,,,,,,,,,,,,,,,,,,,,,,,,,,,,,,,,,,,,,,,,,,,,,,,,,,,,,,,,,,,,,,,,,,,,,,,,,,,,,,,,,,,,,,,,,,,,,,,,,,,,,,,,,,,,
,,5c8c59d99c57e70001a659a6,2024-02-22_04h32.08.951,kallum_motion_pilot,2023.2.2,Win32,59.88023952,5c8c59d99c57e70001a659a6,65d6bb0e977760de756971f7,65d6bfa055338e31f88bed2b,0.5014,0.5019,0,142,142,106,1,sixfive,,,,,,,,,,,,,,,,,,,,,,,,,,,,,,,,,,,,,,,,,,,,,,,,,,,,,,,,,,,,,,,,,,,,,,,,,,,,,,,,,,,,,,,,,,,,,,,,,,,,,,,,,,,,,,,,,,,,,,,,,,,,,,,,,,,,,,,,,
,,5c8c59d99c57e70001a659a6,2024-02-22_04h32.08.951,kallum_motion_pilot,2023.2.2,Win32,59.88023952,5c8c59d99c57e70001a659a6,65d6bb0e977760de756971f7,65d6bfa055338e31f88bed2b,0.5029,0.5033,0,143,143,126,1,eightsix,,,,,,,,,,,,,,,,,,,,,,,,,,,,,,,,,,,,,,,,,,,,,,,,,,,,,,,,,,,,,,,,,,,,,,,,,,,,,,,,,,,,,,,,,,,,,,,,,,,,,,,,,,,,,,,,,,,,,,,,,,,,,,,,,,,,,,,,,
,,5c8c59d99c57e70001a659a6,2024-02-22_04h32.08.951,kallum_motion_pilot,2023.2.2,Win32,59.88023952,5c8c59d99c57e70001a659a6,65d6bb0e977760de756971f7,65d6bfa055338e31f88bed2b,0.5038,0.5043,0,144,144,108,1,sevenfive,,,,,,,,,,,,,,,,,,,,,,,,,,,,,,,,,,,,,,,,,,,,,,,,,,,,,,,,,,,,,,,,,,,,,,,,,,,,,,,,,,,,,,,,,,,,,,,,,,,,,,,,,,,,,,,,,,,,,,,,,,,,,,,,,,,,,,,,,
,,5c8c59d99c57e70001a659a6,2024-02-22_04h32.08.951,kallum_motion_pilot,2023.2.2,Win32,59.88023952,5c8c59d99c57e70001a659a6,65d6bb0e977760de756971f7,65d6bfa055338e31f88bed2b,0.5048,0.5053,0,145,145,69,1,threefour,,,,,,,,,,,,,,,,,,,,,,,,,,,,,,,,,,,,,,,,,,,,,,,,,,,,,,,,,,,,,,,,,,,,,,,,,,,,,,,,,,,,,,,,,,,,,,,,,,,,,,,,,,,,,,,,,,,,,,,,,,,,,,,,,,,,,,,,,
,,5c8c59d99c57e70001a659a6,2024-02-22_04h32.08.951,kallum_motion_pilot,2023.2.2,Win32,59.88023952,5c8c59d99c57e70001a659a6,65d6bb0e977760de756971f7,65d6bfa055338e31f88bed2b,0.5058,0.5062,0,146,146,36,1,threeone,,,,,,,,,,,,,,,,,,,,,,,,,,,,,,,,,,,,,,,,,,,,,,,,,,,,,,,,,,,,,,,,,,,,,,,,,,,,,,,,,,,,,,,,,,,,,,,,,,,,,,,,,,,,,,,,,,,,,,,,,,,,,,,,,,,,,,,,,
,,5c8c59d99c57e70001a659a6,2024-02-22_04h32.08.951,kallum_motion_pilot,2023.2.2,Win32,59.88023952,5c8c59d99c57e70001a659a6,65d6bb0e977760de756971f7,65d6bfa055338e31f88bed2b,0.5067,0.5071,0,147,147,0,1,onetwo,,,,,,,,,,,,,,,,,,,,,,,,,,,,,,,,,,,,,,,,,,,,,,,,,,,,,,,,,,,,,,,,,,,,,,,,,,,,,,,,,,,,,,,,,,,,,,,,,,,,,,,,,,,,,,,,,,,,,,,,,,,,,,,,,,,,,,,,,
,,5c8c59d99c57e70001a659a6,2024-02-22_04h32.08.951,kallum_motion_pilot,2023.2.2,Win32,59.88023952,5c8c59d99c57e70001a659a6,65d6bb0e977760de756971f7,65d6bfa055338e31f88bed2b,0.5092,0.5095,0,148,148,73,1,onethree,,,,,,,,,,,,,,,,,,,,,,,,,,,,,,,,,,,,,,,,,,,,,,,,,,,,,,,,,,,,,,,,,,,,,,,,,,,,,,,,,,,,,,,,,,,,,,,,,,,,,,,,,,,,,,,,,,,,,,,,,,,,,,,,,,,,,,,,,
,,5c8c59d99c57e70001a659a6,2024-02-22_04h32.08.951,kallum_motion_pilot,2023.2.2,Win32,59.88023952,5c8c59d99c57e70001a659a6,65d6bb0e977760de756971f7,65d6bfa055338e31f88bed2b,0.5101,0.5105,0,149,149,94,1,eightsix,,,,,,,,,,,,,,,,,,,,,,,,,,,,,,,,,,,,,,,,,,,,,,,,,,,,,,,,,,,,,,,,,,,,,,,,,,,,,,,,,,,,,,,,,,,,,,,,,,,,,,,,,,,,,,,,,,,,,,,,,,,,,,,,,,,,,,,,,
,,5c8c59d99c57e70001a659a6,2024-02-22_04h32.08.951,kallum_motion_pilot,2023.2.2,Win32,59.88023952,5c8c59d99c57e70001a659a6,65d6bb0e977760de756971f7,65d6bfa055338e31f88bed2b,0.5111,0.5115,0,150,150,137,1,fiveseven,,,,,,,,,,,,,,,,,,,,,,,,,,,,,,,,,,,,,,,,,,,,,,,,,,,,,,,,,,,,,,,,,,,,,,,,,,,,,,,,,,,,,,,,,,,,,,,,,,,,,,,,,,,,,,,,,,,,,,,,,,,,,,,,,,,,,,,,,
,,5c8c59d99c57e70001a659a6,2024-02-22_04h32.08.951,kallum_motion_pilot,2023.2.2,Win32,59.88023952,5c8c59d99c57e70001a659a6,65d6bb0e977760de756971f7,65d6bfa055338e31f88bed2b,0.5126,0.5132,0,151,151,91,1,sixeight,,,,,,,,,,,,,,,,,,,,,,,,,,,,,,,,,,,,,,,,,,,,,,,,,,,,,,,,,,,,,,,,,,,,,,,,,,,,,,,,,,,,,,,,,,,,,,,,,,,,,,,,,,,,,,,,,,,,,,,,,,,,,,,,,,,,,,,,,
,,5c8c59d99c57e70001a659a6,2024-02-22_04h32.08.951,kallum_motion_pilot,2023.2.2,Win32,59.88023952,5c8c59d99c57e70001a659a6,65d6bb0e977760de756971f7,65d6bfa055338e31f88bed2b,0.5138,0.5143,0,152,152,152,1,fivesix,,,,,,,,,,,,,,,,,,,,,,,,,,,,,,,,,,,,,,,,,,,,,,,,,,,,,,,,,,,,,,,,,,,,,,,,,,,,,,,,,,,,,,,,,,,,,,,,,,,,,,,,,,,,,,,,,,,,,,,,,,,,,,,,,,,,,,,,,
,,5c8c59d99c57e70001a659a6,2024-02-22_04h32.08.951,kallum_motion_pilot,2023.2.2,Win32,59.88023952,5c8c59d99c57e70001a659a6,65d6bb0e977760de756971f7,65d6bfa055338e31f88bed2b,0.5148,0.5152,0,153,153,119,1,eightseven,,,,,,,,,,,,,,,,,,,,,,,,,,,,,,,,,,,,,,,,,,,,,,,,,,,,,,,,,,,,,,,,,,,,,,,,,,,,,,,,,,,,,,,,,,,,,,,,,,,,,,,,,,,,,,,,,,,,,,,,,,,,,,,,,,,,,,,,,
,,5c8c59d99c57e70001a659a6,2024-02-22_04h32.08.951,kallum_motion_pilot,2023.2.2,Win32,59.88023952,5c8c59d99c57e70001a659a6,65d6bb0e977760de756971f7,65d6bfa055338e31f88bed2b,0.5158,0.5161,0,154,154,82,1,sixfive,,,,,,,,,,,,,,,,,,,,,,,,,,,,,,,,,,,,,,,,,,,,,,,,,,,,,,,,,,,,,,,,,,,,,,,,,,,,,,,,,,,,,,,,,,,,,,,,,,,,,,,,,,,,,,,,,,,,,,,,,,,,,,,,,,,,,,,,,
,,5c8c59d99c57e70001a659a6,2024-02-22_04h32.08.951,kallum_motion_pilot,2023.2.2,Win32,59.88023952,5c8c59d99c57e70001a659a6,65d6bb0e977760de756971f7,65d6bfa055338e31f88bed2b,0.5167,0.5171,0,155,155,10,1,twoone,,,,,,,,,,,,,,,,,,,,,,,,,,,,,,,,,,,,,,,,,,,,,,,,,,,,,,,,,,,,,,,,,,,,,,,,,,,,,,,,,,,,,,,,,,,,,,,,,,,,,,,,,,,,,,,,,,,,,,,,,,,,,,,,,,,,,,,,,
,,5c8c59d99c57e70001a659a6,2024-02-22_04h32.08.951,kallum_motion_pilot,2023.2.2,Win32,59.88023952,5c8c59d99c57e70001a659a6,65d6bb0e977760de756971f7,65d6bfa055338e31f88bed2b,0.5176,0.518,0,156,156,38,1,fourtwo,,,,,,,,,,,,,,,,,,,,,,,,,,,,,,,,,,,,,,,,,,,,,,,,,,,,,,,,,,,,,,,,,,,,,,,,,,,,,,,,,,,,,,,,,,,,,,,,,,,,,,,,,,,,,,,,,,,,,,,,,,,,,,,,,,,,,,,,,
,,5c8c59d99c57e70001a659a6,2024-02-22_04h32.08.951,kallum_motion_pilot,2023.2.2,Win32,59.88023952,5c8c59d99c57e70001a659a6,65d6bb0e977760de756971f7,65d6bfa055338e31f88bed2b,0.5185,0.5189,0,157,157,99,1,sixeight,,,,,,,,,,,,,,,,,,,,,,,,,,,,,,,,,,,,,,,,,,,,,,,,,,,,,,,,,,,,,,,,,,,,,,,,,,,,,,,,,,,,,,,,,,,,,,,,,,,,,,,,,,,,,,,,,,,,,,,,,,,,,,,,,,,,,,,,,
,,5c8c59d99c57e70001a659a6,2024-02-22_04h32.08.951,kallum_motion_pilot,2023.2.2,Win32,59.88023952,5c8c59d99c57e70001a659a6,65d6bb0e977760de756971f7,65d6bfa055338e31f88bed2b,0.5195,0.5198,0,158,158,142,1,eightsix,,,,,,,,,,,,,,,,,,,,,,,,,,,,,,,,,,,,,,,,,,,,,,,,,,,,,,,,,,,,,,,,,,,,,,,,,,,,,,,,,,,,,,,,,,,,,,,,,,,,,,,,,,,,,,,,,,,,,,,,,,,,,,,,,,,,,,,,,
,,5c8c59d99c57e70001a659a6,2024-02-22_04h32.08.951,kallum_motion_pilot,2023.2.2,Win32,59.88023952,5c8c59d99c57e70001a659a6,65d6bb0e977760de756971f7,65d6bfa055338e31f88bed2b,0.5204,0.5207,0,159,159,9,1,onethree,,,,,,,,,,,,,,,,,,,,,,,,,,,,,,,,,,,,,,,,,,,,,,,,,,,,,,,,,,,,,,,,,,,,,,,,,,,,,,,,,,,,,,,,,,,,,,,,,,,,,,,,,,,,,,,,,,,,,,,,,,,,,,,,,,,,,,,,,
,,5c8c59d99c57e70001a659a6,2024-02-22_04h32.08.951,kallum_motion_pilot,2023.2.2,Win32,59.88023952,5c8c59d99c57e70001a659a6,65d6bb0e977760de756971f7,65d6bfa055338e31f88bed2b,0.5214,0.5218,0,160,160,121,1,fiveseven,,,,,,,,,,,,,,,,,,,,,,,,,,,,,,,,,,,,,,,,,,,,,,,,,,,,,,,,,,,,,,,,,,,,,,,,,,,,,,,,,,,,,,,,,,,,,,,,,,,,,,,,,,,,,,,,,,,,,,,,,,,,,,,,,,,,,,,,,
,,5c8c59d99c57e70001a659a6,2024-02-22_04h32.08.951,kallum_motion_pilot,2023.2.2,Win32,59.88023952,5c8c59d99c57e70001a659a6,65d6bb0e977760de756971f7,65d6bfa055338e31f88bed2b,0.5227,0.523,0,161,161,144,1,fivesix,,,,,,,,,,,,,,,,,,,,,,,,,,,,,,,,,,,,,,,,,,,,,,,,,,,,,,,,,,,,,,,,,,,,,,,,,,,,,,,,,,,,,,,,,,,,,,,,,,,,,,,,,,,,,,,,,,,,,,,,,,,,,,,,,,,,,,,,,
,,5c8c59d99c57e70001a659a6,2024-02-22_04h32.08.951,kallum_motion_pilot,2023.2.2,Win32,59.88023952,5c8c59d99c57e70001a659a6,65d6bb0e977760de756971f7,65d6bfa055338e31f88bed2b,0.5236,0.524,1,0,162,32,1,onetwo,,,,,,,,,,,,,,,,,,,,,,,,,,,,,,,,,,,,,,,,,,,,,,,,,,,,,,,,,,,,,,,,,,,,,,,,,,,,,,,,,,,,,,,,,,,,,,,,,,,,,,,,,,,,,,,,,,,,,,,,,,,,,,,,,,,,,,,,,
,,5c8c59d99c57e70001a659a6,2024-02-22_04h32.08.951,kallum_motion_pilot,2023.2.2,Win32,59.88023952,5c8c59d99c57e70001a659a6,65d6bb0e977760de756971f7,65d6bfa055338e31f88bed2b,0.5245,0.525,1,1,163,65,1,onethree,,,,,,,,,,,,,,,,,,,,,,,,,,,,,,,,,,,,,,,,,,,,,,,,,,,,,,,,,,,,,,,,,,,,,,,,,,,,,,,,,,,,,,,,,,,,,,,,,,,,,,,,,,,,,,,,,,,,,,,,,,,,,,,,,,,,,,,,,
,,5c8c59d99c57e70001a659a6,2024-02-22_04h32.08.951,kallum_motion_pilot,2023.2.2,Win32,59.88023952,5c8c59d99c57e70001a659a6,65d6bb0e977760de756971f7,65d6bfa055338e31f88bed2b,0.5256,0.526,1,2,164,1,1,onethree,,,,,,,,,,,,,,,,,,,,,,,,,,,,,,,,,,,,,,,,,,,,,,,,,,,,,,,,,,,,,,,,,,,,,,,,,,,,,,,,,,,,,,,,,,,,,,,,,,,,,,,,,,,,,,,,,,,,,,,,,,,,,,,,,,,,,,,,,
,,5c8c59d99c57e70001a659a6,2024-02-22_04h32.08.951,kallum_motion_pilot,2023.2.2,Win32,59.88023952,5c8c59d99c57e70001a659a6,65d6bb0e977760de756971f7,65d6bfa055338e31f88bed2b,0.5265,0.527,1,3,165,71,1,fourthree,,,,,,,,,,,,,,,,,,,,,,,,,,,,,,,,,,,,,,,,,,,,,,,,,,,,,,,,,,,,,,,,,,,,,,,,,,,,,,,,,,,,,,,,,,,,,,,,,,,,,,,,,,,,,,,,,,,,,,,,,,,,,,,,,,,,,,,,,
,,5c8c59d99c57e70001a659a6,2024-02-22_04h32.08.951,kallum_motion_pilot,2023.2.2,Win32,59.88023952,5c8c59d99c57e70001a659a6,65d6bb0e977760de756971f7,65d6bfa055338e31f88bed2b,0.5274,0.5279,1,4,166,50,1,twoone,,,,,,,,,,,,,,,,,,,,,,,,,,,,,,,,,,,,,,,,,,,,,,,,,,,,,,,,,,,,,,,,,,,,,,,,,,,,,,,,,,,,,,,,,,,,,,,,,,,,,,,,,,,,,,,,,,,,,,,,,,,,,,,,,,,,,,,,,
,,5c8c59d99c57e70001a659a6,2024-02-22_04h32.08.951,kallum_motion_pilot,2023.2.2,Win32,59.88023952,5c8c59d99c57e70001a659a6,65d6bb0e977760de756971f7,65d6bfa055338e31f88bed2b,0.5284,0.5291,1,5,167,147,1,sixeight,,,,,,,,,,,,,,,,,,,,,,,,,,,,,,,,,,,,,,,,,,,,,,,,,,,,,,,,,,,,,,,,,,,,,,,,,,,,,,,,,,,,,,,,,,,,,,,,,,,,,,,,,,,,,,,,,,,,,,,,,,,,,,,,,,,,,,,,,
,,5c8c59d99c57e70001a659a6,2024-02-22_04h32.08.951,kallum_motion_pilot,2023.2.2,Win32,59.88023952,5c8c59d99c57e70001a659a6,65d6bb0e977760de756971f7,65d6bfa055338e31f88bed2b,0.5297,0.5301,1,6,168,119,1,eightseven,,,,,,,,,,,,,,,,,,,,,,,,,,,,,,,,,,,,,,,,,,,,,,,,,,,,,,,,,,,,,,,,,,,,,,,,,,,,,,,,,,,,,,,,,,,,,,,,,,,,,,,,,,,,,,,,,,,,,,,,,,,,,,,,,,,,,,,,,
,,5c8c59d99c57e70001a659a6,2024-02-22_04h32.08.951,kallum_motion_pilot,2023.2.2,Win32,59.88023952,5c8c59d99c57e70001a659a6,65d6bb0e977760de756971f7,65d6bfa055338e31f88bed2b,0.5307,0.5311,1,7,169,52,1,threeone,,,,,,,,,,,,,,,,,,,,,,,,,,,,,,,,,,,,,,,,,,,,,,,,,,,,,,,,,,,,,,,,,,,,,,,,,,,,,,,,,,,,,,,,,,,,,,,,,,,,,,,,,,,,,,,,,,,,,,,,,,,,,,,,,,,,,,,,,
,,5c8c59d99c57e70001a659a6,2024-02-22_04h32.08.951,kallum_motion_pilot,2023.2.2,Win32,59.88023952,5c8c59d99c57e70001a659a6,65d6bb0e977760de756971f7,65d6bfa055338e31f88bed2b,0.5319,0.5323,1,8,170,126,1,eightsix,,,,,,,,,,,,,,,,,,,,,,,,,,,,,,,,,,,,,,,,,,,,,,,,,,,,,,,,,,,,,,,,,,,,,,,,,,,,,,,,,,,,,,,,,,,,,,,,,,,,,,,,,,,,,,,,,,,,,,,,,,,,,,,,,,,,,,,,,
,,5c8c59d99c57e70001a659a6,2024-02-22_04h32.08.951,kallum_motion_pilot,2023.2.2,Win32,59.88023952,5c8c59d99c57e70001a659a6,65d6bb0e977760de756971f7,65d6bfa055338e31f88bed2b,0.5333,0.5338,1,9,171,30,1,fourtwo,,,,,,,,,,,,,,,,,,,,,,,,,,,,,,,,,,,,,,,,,,,,,,,,,,,,,,,,,,,,,,,,,,,,,,,,,,,,,,,,,,,,,,,,,,,,,,,,,,,,,,,,,,,,,,,,,,,,,,,,,,,,,,,,,,,,,,,,,
,,5c8c59d99c57e70001a659a6,2024-02-22_04h32.08.951,kallum_motion_pilot,2023.2.2,Win32,59.88023952,5c8c59d99c57e70001a659a6,65d6bb0e977760de756971f7,65d6bfa055338e31f88bed2b,0.5343,0.5347,1,10,172,35,1,twofour,,,,,,,,,,,,,,,,,,,,,,,,,,,,,,,,,,,,,,,,,,,,,,,,,,,,,,,,,,,,,,,,,,,,,,,,,,,,,,,,,,,,,,,,,,,,,,,,,,,,,,,,,,,,,,,,,,,,,,,,,,,,,,,,,,,,,,,,,
,,5c8c59d99c57e70001a659a6,2024-02-22_04h32.08.951,kallum_motion_pilot,2023.2.2,Win32,59.88023952,5c8c59d99c57e70001a659a6,65d6bb0e977760de756971f7,65d6bfa055338e31f88bed2b,0.5352,0.5356,1,11,173,105,1,fiveseven,,,,,,,,,,,,,,,,,,,,,,,,,,,,,,,,,,,,,,,,,,,,,,,,,,,,,,,,,,,,,,,,,,,,,,,,,,,,,,,,,,,,,,,,,,,,,,,,,,,,,,,,,,,,,,,,,,,,,,,,,,,,,,,,,,,,,,,,,
,,5c8c59d99c57e70001a659a6,2024-02-22_04h32.08.951,kallum_motion_pilot,2023.2.2,Win32,59.88023952,5c8c59d99c57e70001a659a6,65d6bb0e977760de756971f7,65d6bfa055338e31f88bed2b,0.5362,0.5365,1,12,174,125,1,seveneight,,,,,,,,,,,,,,,,,,,,,,,,,,,,,,,,,,,,,,,,,,,,,,,,,,,,,,,,,,,,,,,,,,,,,,,,,,,,,,,,,,,,,,,,,,,,,,,,,,,,,,,,,,,,,,,,,,,,,,,,,,,,,,,,,,,,,,,,,
,,5c8c59d99c57e70001a659a6,2024-02-22_04h32.08.951,kallum_motion_pilot,2023.2.2,Win32,59.88023952,5c8c59d99c57e70001a659a6,65d6bb0e977760de756971f7,65d6bfa055338e31f88bed2b,0.537,0.5375,1,13,175,97,1,fiveseven,,,,,,,,,,,,,,,,,,,,,,,,,,,,,,,,,,,,,,,,,,,,,,,,,,,,,,,,,,,,,,,,,,,,,,,,,,,,,,,,,,,,,,,,,,,,,,,,,,,,,,,,,,,,,,,,,,,,,,,,,,,,,,,,,,,,,,,,,
,,5c8c59d99c57e70001a659a6,2024-02-22_04h32.08.951,kallum_motion_pilot,2023.2.2,Win32,59.88023952,5c8c59d99c57e70001a659a6,65d6bb0e977760de756971f7,65d6bfa055338e31f88bed2b,0.538,0.5384,1,14,176,128,1,fivesix,,,,,,,,,,,,,,,,,,,,,,,,,,,,,,,,,,,,,,,,,,,,,,,,,,,,,,,,,,,,,,,,,,,,,,,,,,,,,,,,,,,,,,,,,,,,,,,,,,,,,,,,,,,,,,,,,,,,,,,,,,,,,,,,,,,,,,,,,
,,5c8c59d99c57e70001a659a6,2024-02-22_04h32.08.951,kallum_motion_pilot,2023.2.2,Win32,59.88023952,5c8c59d99c57e70001a659a6,65d6bb0e977760de756971f7,65d6bfa055338e31f88bed2b,0.5389,0.5393,1,15,177,153,1,fiveseven,,,,,,,,,,,,,,,,,,,,,,,,,,,,,,,,,,,,,,,,,,,,,,,,,,,,,,,,,,,,,,,,,,,,,,,,,,,,,,,,,,,,,,,,,,,,,,,,,,,,,,,,,,,,,,,,,,,,,,,,,,,,,,,,,,,,,,,,,
,,5c8c59d99c57e70001a659a6,2024-02-22_04h32.08.951,kallum_motion_pilot,2023.2.2,Win32,59.88023952,5c8c59d99c57e70001a659a6,65d6bb0e977760de756971f7,65d6bfa055338e31f88bed2b,0.5398,0.5403,1,16,178,134,1,eightsix,,,,,,,,,,,,,,,,,,,,,,,,,,,,,,,,,,,,,,,,,,,,,,,,,,,,,,,,,,,,,,,,,,,,,,,,,,,,,,,,,,,,,,,,,,,,,,,,,,,,,,,,,,,,,,,,,,,,,,,,,,,,,,,,,,,,,,,,,
,,5c8c59d99c57e70001a659a6,2024-02-22_04h32.08.951,kallum_motion_pilot,2023.2.2,Win32,59.88023952,5c8c59d99c57e70001a659a6,65d6bb0e977760de756971f7,65d6bfa055338e31f88bed2b,0.5407,0.5412,1,17,179,160,1,fivesix,,,,,,,,,,,,,,,,,,,,,,,,,,,,,,,,,,,,,,,,,,,,,,,,,,,,,,,,,,,,,,,,,,,,,,,,,,,,,,,,,,,,,,,,,,,,,,,,,,,,,,,,,,,,,,,,,,,,,,,,,,,,,,,,,,,,,,,,,
,,5c8c59d99c57e70001a659a6,2024-02-22_04h32.08.951,kallum_motion_pilot,2023.2.2,Win32,59.88023952,5c8c59d99c57e70001a659a6,65d6bb0e977760de756971f7,65d6bfa055338e31f88bed2b,0.5418,0.5427,1,18,180,33,1,onethree,,,,,,,,,,,,,,,,,,,,,,,,,,,,,,,,,,,,,,,,,,,,,,,,,,,,,,,,,,,,,,,,,,,,,,,,,,,,,,,,,,,,,,,,,,,,,,,,,,,,,,,,,,,,,,,,,,,,,,,,,,,,,,,,,,,,,,,,,
,,5c8c59d99c57e70001a659a6,2024-02-22_04h32.08.951,kallum_motion_pilot,2023.2.2,Win32,59.88023952,5c8c59d99c57e70001a659a6,65d6bb0e977760de756971f7,65d6bfa055338e31f88bed2b,0.5431,0.5436,1,19,181,0,1,onetwo,,,,,,,,,,,,,,,,,,,,,,,,,,,,,,,,,,,,,,,,,,,,,,,,,,,,,,,,,,,,,,,,,,,,,,,,,,,,,,,,,,,,,,,,,,,,,,,,,,,,,,,,,,,,,,,,,,,,,,,,,,,,,,,,,,,,,,,,,
,,5c8c59d99c57e70001a659a6,2024-02-22_04h32.08.951,kallum_motion_pilot,2023.2.2,Win32,59.88023952,5c8c59d99c57e70001a659a6,65d6bb0e977760de756971f7,65d6bfa055338e31f88bed2b,0.5441,0.5445,1,20,182,36,1,threeone,,,,,,,,,,,,,,,,,,,,,,,,,,,,,,,,,,,,,,,,,,,,,,,,,,,,,,,,,,,,,,,,,,,,,,,,,,,,,,,,,,,,,,,,,,,,,,,,,,,,,,,,,,,,,,,,,,,,,,,,,,,,,,,,,,,,,,,,,
,,5c8c59d99c57e70001a659a6,2024-02-22_04h32.08.951,kallum_motion_pilot,2023.2.2,Win32,59.88023952,5c8c59d99c57e70001a659a6,65d6bb0e977760de756971f7,65d6bfa055338e31f88bed2b,0.545,0.5457,1,21,183,22,1,fourtwo,,,,,,,,,,,,,,,,,,,,,,,,,,,,,,,,,,,,,,,,,,,,,,,,,,,,,,,,,,,,,,,,,,,,,,,,,,,,,,,,,,,,,,,,,,,,,,,,,,,,,,,,,,,,,,,,,,,,,,,,,,,,,,,,,,,,,,,,,
,,5c8c59d99c57e70001a659a6,2024-02-22_04h32.08.951,kallum_motion_pilot,2023.2.2,Win32,59.88023952,5c8c59d99c57e70001a659a6,65d6bb0e977760de756971f7,65d6bfa055338e31f88bed2b,0.5466,0.547,1,22,184,99,1,sixeight,,,,,,,,,,,,,,,,,,,,,,,,,,,,,,,,,,,,,,,,,,,,,,,,,,,,,,,,,,,,,,,,,,,,,,,,,,,,,,,,,,,,,,,,,,,,,,,,,,,,,,,,,,,,,,,,,,,,,,,,,,,,,,,,,,,,,,,,,
,,5c8c59d99c57e70001a659a6,2024-02-22_04h32.08.951,kallum_motion_pilot,2023.2.2,Win32,59.88023952,5c8c59d99c57e70001a659a6,65d6bb0e977760de756971f7,65d6bfa055338e31f88bed2b,0.5476,0.548,1,23,185,81,1,fiveseven,,,,,,,,,,,,,,,,,,,,,,,,,,,,,,,,,,,,,,,,,,,,,,,,,,,,,,,,,,,,,,,,,,,,,,,,,,,,,,,,,,,,,,,,,,,,,,,,,,,,,,,,,,,,,,,,,,,,,,,,,,,,,,,,,,,,,,,,,
,,5c8c59d99c57e70001a659a6,2024-02-22_04h32.08.951,kallum_motion_pilot,2023.2.2,Win32,59.88023952,5c8c59d99c57e70001a659a6,65d6bb0e977760de756971f7,65d6bfa055338e31f88bed2b,0.5485,0.5491,1,24,186,151,1,eightseven,,,,,,,,,,,,,,,,,,,,,,,,,,,,,,,,,,,,,,,,,,,,,,,,,,,,,,,,,,,,,,,,,,,,,,,,,,,,,,,,,,,,,,,,,,,,,,,,,,,,,,,,,,,,,,,,,,,,,,,,,,,,,,,,,,,,,,,,,
,,5c8c59d99c57e70001a659a6,2024-02-22_04h32.08.951,kallum_motion_pilot,2023.2.2,Win32,59.88023952,5c8c59d99c57e70001a659a6,65d6bb0e977760de756971f7,65d6bfa055338e31f88bed2b,0.5501,0.5504,1,25,187,11,1,twofour,,,,,,,,,,,,,,,,,,,,,,,,,,,,,,,,,,,,,,,,,,,,,,,,,,,,,,,,,,,,,,,,,,,,,,,,,,,,,,,,,,,,,,,,,,,,,,,,,,,,,,,,,,,,,,,,,,,,,,,,,,,,,,,,,,,,,,,,,
,,5c8c59d99c57e70001a659a6,2024-02-22_04h32.08.951,kallum_motion_pilot,2023.2.2,Win32,59.88023952,5c8c59d99c57e70001a659a6,65d6bb0e977760de756971f7,65d6bfa055338e31f88bed2b,0.551,0.5515,1,26,188,127,1,eightseven,,,,,,,,,,,,,,,,,,,,,,,,,,,,,,,,,,,,,,,,,,,,,,,,,,,,,,,,,,,,,,,,,,,,,,,,,,,,,,,,,,,,,,,,,,,,,,,,,,,,,,,,,,,,,,,,,,,,,,,,,,,,,,,,,,,,,,,,,
,,5c8c59d99c57e70001a659a6,2024-02-22_04h32.08.951,kallum_motion_pilot,2023.2.2,Win32,59.88023952,5c8c59d99c57e70001a659a6,65d6bb0e977760de756971f7,65d6bfa055338e31f88bed2b,0.552,0.5524,1,27,189,3,1,twofour,,,,,,,,,,,,,,,,,,,,,,,,,,,,,,,,,,,,,,,,,,,,,,,,,,,,,,,,,,,,,,,,,,,,,,,,,,,,,,,,,,,,,,,,,,,,,,,,,,,,,,,,,,,,,,,,,,,,,,,,,,,,,,,,,,,,,,,,,
,,5c8c59d99c57e70001a659a6,2024-02-22_04h32.08.951,kallum_motion_pilot,2023.2.2,Win32,59.88023952,5c8c59d99c57e70001a659a6,65d6bb0e977760de756971f7,65d6bfa055338e31f88bed2b,0.5533,0.5536,1,28,190,91,1,sixeight,,,,,,,,,,,,,,,,,,,,,,,,,,,,,,,,,,,,,,,,,,,,,,,,,,,,,,,,,,,,,,,,,,,,,,,,,,,,,,,,,,,,,,,,,,,,,,,,,,,,,,,,,,,,,,,,,,,,,,,,,,,,,,,,,,,,,,,,,
,,5c8c59d99c57e70001a659a6,2024-02-22_04h32.08.951,kallum_motion_pilot,2023.2.2,Win32,59.88023952,5c8c59d99c57e70001a659a6,65d6bb0e977760de756971f7,65d6bfa055338e31f88bed2b,0.5542,0.5546,1,29,191,90,1,sixfive,,,,,,,,,,,,,,,,,,,,,,,,,,,,,,,,,,,,,,,,,,,,,,,,,,,,,,,,,,,,,,,,,,,,,,,,,,,,,,,,,,,,,,,,,,,,,,,,,,,,,,,,,,,,,,,,,,,,,,,,,,,,,,,,,,,,,,,,,
,,5c8c59d99c57e70001a659a6,2024-02-22_04h32.08.951,kallum_motion_pilot,2023.2.2,Win32,59.88023952,5c8c59d99c57e70001a659a6,65d6bb0e977760de756971f7,65d6bfa055338e31f88bed2b,0.5552,0.5555,1,30,192,18,1,twoone,,,,,,,,,,,,,,,,,,,,,,,,,,,,,,,,,,,,,,,,,,,,,,,,,,,,,,,,,,,,,,,,,,,,,,,,,,,,,,,,,,,,,,,,,,,,,,,,,,,,,,,,,,,,,,,,,,,,,,,,,,,,,,,,,,,,,,,,,
,,5c8c59d99c57e70001a659a6,2024-02-22_04h32.08.951,kallum_motion_pilot,2023.2.2,Win32,59.88023952,5c8c59d99c57e70001a659a6,65d6bb0e977760de756971f7,65d6bfa055338e31f88bed2b,0.5561,0.5565,1,31,193,23,1,fourthree,,,,,,,,,,,,,,,,,,,,,,,,,,,,,,,,,,,,,,,,,,,,,,,,,,,,,,,,,,,,,,,,,,,,,,,,,,,,,,,,,,,,,,,,,,,,,,,,,,,,,,,,,,,,,,,,,,,,,,,,,,,,,,,,,,,,,,,,,
,,5c8c59d99c57e70001a659a6,2024-02-22_04h32.08.951,kallum_motion_pilot,2023.2.2,Win32,59.88023952,5c8c59d99c57e70001a659a6,65d6bb0e977760de756971f7,65d6bfa055338e31f88bed2b,0.5571,0.5575,1,32,194,118,1,eightsix,,,,,,,,,,,,,,,,,,,,,,,,,,,,,,,,,,,,,,,,,,,,,,,,,,,,,,,,,,,,,,,,,,,,,,,,,,,,,,,,,,,,,,,,,,,,,,,,,,,,,,,,,,,,,,,,,,,,,,,,,,,,,,,,,,,,,,,,,
,,5c8c59d99c57e70001a659a6,2024-02-22_04h32.08.951,kallum_motion_pilot,2023.2.2,Win32,59.88023952,5c8c59d99c57e70001a659a6,65d6bb0e977760de756971f7,65d6bfa055338e31f88bed2b,0.558,0.5584,1,33,195,28,1,threeone,,,,,,,,,,,,,,,,,,,,,,,,,,,,,,,,,,,,,,,,,,,,,,,,,,,,,,,,,,,,,,,,,,,,,,,,,,,,,,,,,,,,,,,,,,,,,,,,,,,,,,,,,,,,,,,,,,,,,,,,,,,,,,,,,,,,,,,,,
,,5c8c59d99c57e70001a659a6,2024-02-22_04h32.08.951,kallum_motion_pilot,2023.2.2,Win32,59.88023952,5c8c59d99c57e70001a659a6,65d6bb0e977760de756971f7,65d6bfa055338e31f88bed2b,0.559,0.5594,1,34,196,45,1,threefour,,,,,,,,,,,,,,,,,,,,,,,,,,,,,,,,,,,,,,,,,,,,,,,,,,,,,,,,,,,,,,,,,,,,,,,,,,,,,,,,,,,,,,,,,,,,,,,,,,,,,,,,,,,,,,,,,,,,,,,,,,,,,,,,,,,,,,,,,
,,5c8c59d99c57e70001a659a6,2024-02-22_04h32.08.951,kallum_motion_pilot,2023.2.2,Win32,59.88023952,5c8c59d99c57e70001a659a6,65d6bb0e977760de756971f7,65d6bfa055338e31f88bed2b,0.5599,0.5603,1,35,197,135,1,eightseven,,,,,,,,,,,,,,,,,,,,,,,,,,,,,,,,,,,,,,,,,,,,,,,,,,,,,,,,,,,,,,,,,,,,,,,,,,,,,,,,,,,,,,,,,,,,,,,,,,,,,,,,,,,,,,,,,,,,,,,,,,,,,,,,,,,,,,,,,
,,5c8c59d99c57e70001a659a6,2024-02-22_04h32.08.951,kallum_motion_pilot,2023.2.2,Win32,59.88023952,5c8c59d99c57e70001a659a6,65d6bb0e977760de756971f7,65d6bfa055338e31f88bed2b,0.5608,0.5613,1,36,198,29,1,threefour,,,,,,,,,,,,,,,,,,,,,,,,,,,,,,,,,,,,,,,,,,,,,,,,,,,,,,,,,,,,,,,,,,,,,,,,,,,,,,,,,,,,,,,,,,,,,,,,,,,,,,,,,,,,,,,,,,,,,,,,,,,,,,,,,,,,,,,,,
,,5c8c59d99c57e70001a659a6,2024-02-22_04h32.08.951,kallum_motion_pilot,2023.2.2,Win32,59.88023952,5c8c59d99c57e70001a659a6,65d6bb0e977760de756971f7,65d6bfa055338e31f88bed2b,0.5628,0.5637,1,37,199,38,1,fourtwo,,,,,,,,,,,,,,,,,,,,,,,,,,,,,,,,,,,,,,,,,,,,,,,,,,,,,,,,,,,,,,,,,,,,,,,,,,,,,,,,,,,,,,,,,,,,,,,,,,,,,,,,,,,,,,,,,,,,,,,,,,,,,,,,,,,,,,,,,
,,5c8c59d99c57e70001a659a6,2024-02-22_04h32.08.951,kallum_motion_pilot,2023.2.2,Win32,59.88023952,5c8c59d99c57e70001a659a6,65d6bb0e977760de756971f7,65d6bfa055338e31f88bed2b,0.5644,0.5648,1,38,200,57,1,onethree,,,,,,,,,,,,,,,,,,,,,,,,,,,,,,,,,,,,,,,,,,,,,,,,,,,,,,,,,,,,,,,,,,,,,,,,,,,,,,,,,,,,,,,,,,,,,,,,,,,,,,,,,,,,,,,,,,,,,,,,,,,,,,,,,,,,,,,,,
,,5c8c59d99c57e70001a659a6,2024-02-22_04h32.08.951,kallum_motion_pilot,2023.2.2,Win32,59.88023952,5c8c59d99c57e70001a659a6,65d6bb0e977760de756971f7,65d6bfa055338e31f88bed2b,0.5654,0.5659,1,39,201,34,1,twoone,,,,,,,,,,,,,,,,,,,,,,,,,,,,,,,,,,,,,,,,,,,,,,,,,,,,,,,,,,,,,,,,,,,,,,,,,,,,,,,,,,,,,,,,,,,,,,,,,,,,,,,,,,,,,,,,,,,,,,,,,,,,,,,,,,,,,,,,,
,,5c8c59d99c57e70001a659a6,2024-02-22_04h32.08.951,kallum_motion_pilot,2023.2.2,Win32,59.88023952,5c8c59d99c57e70001a659a6,65d6bb0e977760de756971f7,65d6bfa055338e31f88bed2b,0.5664,0.5669,1,40,202,43,1,twofour,,,,,,,,,,,,,,,,,,,,,,,,,,,,,,,,,,,,,,,,,,,,,,,,,,,,,,,,,,,,,,,,,,,,,,,,,,,,,,,,,,,,,,,,,,,,,,,,,,,,,,,,,,,,,,,,,,,,,,,,,,,,,,,,,,,,,,,,,
,,5c8c59d99c57e70001a659a6,2024-02-22_04h32.08.951,kallum_motion_pilot,2023.2.2,Win32,59.88023952,5c8c59d99c57e70001a659a6,65d6bb0e977760de756971f7,65d6bfa055338e31f88bed2b,0.5675,0.5678,1,41,203,40,1,onetwo,,,,,,,,,,,,,,,,,,,,,,,,,,,,,,,,,,,,,,,,,,,,,,,,,,,,,,,,,,,,,,,,,,,,,,,,,,,,,,,,,,,,,,,,,,,,,,,,,,,,,,,,,,,,,,,,,,,,,,,,,,,,,,,,,,,,,,,,,
,,5c8c59d99c57e70001a659a6,2024-02-22_04h32.08.951,kallum_motion_pilot,2023.2.2,Win32,59.88023952,5c8c59d99c57e70001a659a6,65d6bb0e977760de756971f7,65d6bfa055338e31f88bed2b,0.5684,0.5687,1,42,204,159,1,eightseven,,,,,,,,,,,,,,,,,,,,,,,,,,,,,,,,,,,,,,,,,,,,,,,,,,,,,,,,,,,,,,,,,,,,,,,,,,,,,,,,,,,,,,,,,,,,,,,,,,,,,,,,,,,,,,,,,,,,,,,,,,,,,,,,,,,,,,,,,
,,5c8c59d99c57e70001a659a6,2024-02-22_04h32.08.951,kallum_motion_pilot,2023.2.2,Win32,59.88023952,5c8c59d99c57e70001a659a6,65d6bb0e977760de756971f7,65d6bfa055338e31f88bed2b,0.5693,0.5697,1,43,205,133,1,seveneight,,,,,,,,,,,,,,,,,,,,,,,,,,,,,,,,,,,,,,,,,,,,,,,,,,,,,,,,,,,,,,,,,,,,,,,,,,,,,,,,,,,,,,,,,,,,,,,,,,,,,,,,,,,,,,,,,,,,,,,,,,,,,,,,,,,,,,,,,
,,5c8c59d99c57e70001a659a6,2024-02-22_04h32.08.951,kallum_motion_pilot,2023.2.2,Win32,59.88023952,5c8c59d99c57e70001a659a6,65d6bb0e977760de756971f7,65d6bfa055338e31f88bed2b,0.5702,0.5707,1,44,206,155,1,sixeight,,,,,,,,,,,,,,,,,,,,,,,,,,,,,,,,,,,,,,,,,,,,,,,,,,,,,,,,,,,,,,,,,,,,,,,,,,,,,,,,,,,,,,,,,,,,,,,,,,,,,,,,,,,,,,,,,,,,,,,,,,,,,,,,,,,,,,,,,
,,5c8c59d99c57e70001a659a6,2024-02-22_04h32.08.951,kallum_motion_pilot,2023.2.2,Win32,59.88023952,5c8c59d99c57e70001a659a6,65d6bb0e977760de756971f7,65d6bfa055338e31f88bed2b,0.5713,0.5717,1,45,207,82,1,sixfive,,,,,,,,,,,,,,,,,,,,,,,,,,,,,,,,,,,,,,,,,,,,,,,,,,,,,,,,,,,,,,,,,,,,,,,,,,,,,,,,,,,,,,,,,,,,,,,,,,,,,,,,,,,,,,,,,,,,,,,,,,,,,,,,,,,,,,,,,
,,5c8c59d99c57e70001a659a6,2024-02-22_04h32.08.951,kallum_motion_pilot,2023.2.2,Win32,59.88023952,5c8c59d99c57e70001a659a6,65d6bb0e977760de756971f7,65d6bfa055338e31f88bed2b,0.5722,0.5738,1,46,208,56,1,onetwo,,,,,,,,,,,,,,,,,,,,,,,,,,,,,,,,,,,,,,,,,,,,,,,,,,,,,,,,,,,,,,,,,,,,,,,,,,,,,,,,,,,,,,,,,,,,,,,,,,,,,,,,,,,,,,,,,,,,,,,,,,,,,,,,,,,,,,,,,
,,5c8c59d99c57e70001a659a6,2024-02-22_04h32.08.951,kallum_motion_pilot,2023.2.2,Win32,59.88023952,5c8c59d99c57e70001a659a6,65d6bb0e977760de756971f7,65d6bfa055338e31f88bed2b,0.5749,0.5754,1,47,209,47,1,fourthree,,,,,,,,,,,,,,,,,,,,,,,,,,,,,,,,,,,,,,,,,,,,,,,,,,,,,,,,,,,,,,,,,,,,,,,,,,,,,,,,,,,,,,,,,,,,,,,,,,,,,,,,,,,,,,,,,,,,,,,,,,,,,,,,,,,,,,,,,
,,5c8c59d99c57e70001a659a6,2024-02-22_04h32.08.951,kallum_motion_pilot,2023.2.2,Win32,59.88023952,5c8c59d99c57e70001a659a6,65d6bb0e977760de756971f7,65d6bfa055338e31f88bed2b,0.576,0.5766,1,48,210,107,1,sixeight,,,,,,,,,,,,,,,,,,,,,,,,,,,,,,,,,,,,,,,,,,,,,,,,,,,,,,,,,,,,,,,,,,,,,,,,,,,,,,,,,,,,,,,,,,,,,,,,,,,,,,,,,,,,,,,,,,,,,,,,,,,,,,,,,,,,,,,,,
,,5c8c59d99c57e70001a659a6,2024-02-22_04h32.08.951,kallum_motion_pilot,2023.2.2,Win32,59.88023952,5c8c59d99c57e70001a659a6,65d6bb0e977760de756971f7,65d6bfa055338e31f88bed2b,0.5771,0.5775,1,49,211,20,1,threeone,,,,,,,,,,,,,,,,,,,,,,,,,,,,,,,,,,,,,,,,,,,,,,,,,,,,,,,,,,,,,,,,,,,,,,,,,,,,,,,,,,,,,,,,,,,,,,,,,,,,,,,,,,,,,,,,,,,,,,,,,,,,,,,,,,,,,,,,,
,,5c8c59d99c57e70001a659a6,2024-02-22_04h32.08.951,kallum_motion_pilot,2023.2.2,Win32,59.88023952,5c8c59d99c57e70001a659a6,65d6bb0e977760de756971f7,65d6bfa055338e31f88bed2b,0.578,0.5784,1,50,212,78,1,fourtwo,,,,,,,,,,,,,,,,,,,,,,,,,,,,,,,,,,,,,,,,,,,,,,,,,,,,,,,,,,,,,,,,,,,,,,,,,,,,,,,,,,,,,,,,,,,,,,,,,,,,,,,,,,,,,,,,,,,,,,,,,,,,,,,,,,,,,,,,,
,,5c8c59d99c57e70001a659a6,2024-02-22_04h32.08.951,kallum_motion_pilot,2023.2.2,Win32,59.88023952,5c8c59d99c57e70001a659a6,65d6bb0e977760de756971f7,65d6bfa055338e31f88bed2b,0.5795,0.58,1,51,213,62,1,fourtwo,,,,,,,,,,,,,,,,,,,,,,,,,,,,,,,,,,,,,,,,,,,,,,,,,,,,,,,,,,,,,,,,,,,,,,,,,,,,,,,,,,,,,,,,,,,,,,,,,,,,,,,,,,,,,,,,,,,,,,,,,,,,,,,,,,,,,,,,,
,,5c8c59d99c57e70001a659a6,2024-02-22_04h32.08.951,kallum_motion_pilot,2023.2.2,Win32,59.88023952,5c8c59d99c57e70001a659a6,65d6bb0e977760de756971f7,65d6bfa055338e31f88bed2b,0.5806,0.581,1,52,214,115,1,sixeight,,,,,,,,,,,,,,,,,,,,,,,,,,,,,,,,,,,,,,,,,,,,,,,,,,,,,,,,,,,,,,,,,,,,,,,,,,,,,,,,,,,,,,,,,,,,,,,,,,,,,,,,,,,,,,,,,,,,,,,,,,,,,,,,,,,,,,,,,
,,5c8c59d99c57e70001a659a6,2024-02-22_04h32.08.951,kallum_motion_pilot,2023.2.2,Win32,59.88023952,5c8c59d99c57e70001a659a6,65d6bb0e977760de756971f7,65d6bfa055338e31f88bed2b,0.5816,0.582,1,53,215,120,1,fivesix,,,,,,,,,,,,,,,,,,,,,,,,,,,,,,,,,,,,,,,,,,,,,,,,,,,,,,,,,,,,,,,,,,,,,,,,,,,,,,,,,,,,,,,,,,,,,,,,,,,,,,,,,,,,,,,,,,,,,,,,,,,,,,,,,,,,,,,,,
,,5c8c59d99c57e70001a659a6,2024-02-22_04h32.08.951,kallum_motion_pilot,2023.2.2,Win32,59.88023952,5c8c59d99c57e70001a659a6,65d6bb0e977760de756971f7,65d6bfa055338e31f88bed2b,0.5828,0.5832,1,54,216,10,1,twoone,,,,,,,,,,,,,,,,,,,,,,,,,,,,,,,,,,,,,,,,,,,,,,,,,,,,,,,,,,,,,,,,,,,,,,,,,,,,,,,,,,,,,,,,,,,,,,,,,,,,,,,,,,,,,,,,,,,,,,,,,,,,,,,,,,,,,,,,,
,,5c8c59d99c57e70001a659a6,2024-02-22_04h32.08.951,kallum_motion_pilot,2023.2.2,Win32,59.88023952,5c8c59d99c57e70001a659a6,65d6bb0e977760de756971f7,65d6bfa055338e31f88bed2b,0.5839,0.5845,1,55,217,150,1,eightsix,,,,,,,,,,,,,,,,,,,,,,,,,,,,,,,,,,,,,,,,,,,,,,,,,,,,,,,,,,,,,,,,,,,,,,,,,,,,,,,,,,,,,,,,,,,,,,,,,,,,,,,,,,,,,,,,,,,,,,,,,,,,,,,,,,,,,,,,,
,,5c8c59d99c57e70001a659a6,2024-02-22_04h32.08.951,kallum_motion_pilot,2023.2.2,Win32,59.88023952,5c8c59d99c57e70001a659a6,65d6bb0e977760de756971f7,65d6bfa055338e31f88bed2b,0.5851,0.5856,1,56,218,112,1,fivesix,,,,,,,,,,,,,,,,,,,,,,,,,,,,,,,,,,,,,,,,,,,,,,,,,,,,,,,,,,,,,,,,,,,,,,,,,,,,,,,,,,,,,,,,,,,,,,,,,,,,,,,,,,,,,,,,,,,,,,,,,,,,,,,,,,,,,,,,,
,,5c8c59d99c57e70001a659a6,2024-02-22_04h32.08.951,kallum_motion_pilot,2023.2.2,Win32,59.88023952,5c8c59d99c57e70001a659a6,65d6bb0e977760de756971f7,65d6bfa055338e31f88bed2b,0.5861,0.5865,1,57,219,69,1,threefour,,,,,,,,,,,,,,,,,,,,,,,,,,,,,,,,,,,,,,,,,,,,,,,,,,,,,,,,,,,,,,,,,,,,,,,,,,,,,,,,,,,,,,,,,,,,,,,,,,,,,,,,,,,,,,,,,,,,,,,,,,,,,,,,,,,,,,,,,
,,5c8c59d99c57e70001a659a6,2024-02-22_04h32.08.951,kallum_motion_pilot,2023.2.2,Win32,59.88023952,5c8c59d99c57e70001a659a6,65d6bb0e977760de756971f7,65d6bfa055338e31f88bed2b,0.5871,0.5875,1,58,220,6,1,fourtwo,,,,,,,,,,,,,,,,,,,,,,,,,,,,,,,,,,,,,,,,,,,,,,,,,,,,,,,,,,,,,,,,,,,,,,,,,,,,,,,,,,,,,,,,,,,,,,,,,,,,,,,,,,,,,,,,,,,,,,,,,,,,,,,,,,,,,,,,,
,,5c8c59d99c57e70001a659a6,2024-02-22_04h32.08.951,kallum_motion_pilot,2023.2.2,Win32,59.88023952,5c8c59d99c57e70001a659a6,65d6bb0e977760de756971f7,65d6bfa055338e31f88bed2b,0.5881,0.5885,1,59,221,137,1,fiveseven,,,,,,,,,,,,,,,,,,,,,,,,,,,,,,,,,,,,,,,,,,,,,,,,,,,,,,,,,,,,,,,,,,,,,,,,,,,,,,,,,,,,,,,,,,,,,,,,,,,,,,,,,,,,,,,,,,,,,,,,,,,,,,,,,,,,,,,,,
,,5c8c59d99c57e70001a659a6,2024-02-22_04h32.08.951,kallum_motion_pilot,2023.2.2,Win32,59.88023952,5c8c59d99c57e70001a659a6,65d6bb0e977760de756971f7,65d6bfa055338e31f88bed2b,0.5891,0.5895,1,60,222,131,1,sixeight,,,,,,,,,,,,,,,,,,,,,,,,,,,,,,,,,,,,,,,,,,,,,,,,,,,,,,,,,,,,,,,,,,,,,,,,,,,,,,,,,,,,,,,,,,,,,,,,,,,,,,,,,,,,,,,,,,,,,,,,,,,,,,,,,,,,,,,,,
,,5c8c59d99c57e70001a659a6,2024-02-22_04h32.08.951,kallum_motion_pilot,2023.2.2,Win32,59.88023952,5c8c59d99c57e70001a659a6,65d6bb0e977760de756971f7,65d6bfa055338e31f88bed2b,0.5901,0.5905,1,61,223,73,1,onethree,,,,,,,,,,,,,,,,,,,,,,,,,,,,,,,,,,,,,,,,,,,,,,,,,,,,,,,,,,,,,,,,,,,,,,,,,,,,,,,,,,,,,,,,,,,,,,,,,,,,,,,,,,,,,,,,,,,,,,,,,,,,,,,,,,,,,,,,,
,,5c8c59d99c57e70001a659a6,2024-02-22_04h32.08.951,kallum_motion_pilot,2023.2.2,Win32,59.88023952,5c8c59d99c57e70001a659a6,65d6bb0e977760de756971f7,65d6bfa055338e31f88bed2b,0.5914,0.5917,1,62,224,94,1,eightsix,,,,,,,,,,,,,,,,,,,,,,,,,,,,,,,,,,,,,,,,,,,,,,,,,,,,,,,,,,,,,,,,,,,,,,,,,,,,,,,,,,,,,,,,,,,,,,,,,,,,,,,,,,,,,,,,,,,,,,,,,,,,,,,,,,,,,,,,,
,,5c8c59d99c57e70001a659a6,2024-02-22_04h32.08.951,kallum_motion_pilot,2023.2.2,Win32,59.88023952,5c8c59d99c57e70001a659a6,65d6bb0e977760de756971f7,65d6bfa055338e31f88bed2b,0.5924,0.5927,1,63,225,44,1,threeone,,,,,,,,,,,,,,,,,,,,,,,,,,,,,,,,,,,,,,,,,,,,,,,,,,,,,,,,,,,,,,,,,,,,,,,,,,,,,,,,,,,,,,,,,,,,,,,,,,,,,,,,,,,,,,,,,,,,,,,,,,,,,,,,,,,,,,,,,
,,5c8c59d99c57e70001a659a6,2024-02-22_04h32.08.951,kallum_motion_pilot,2023.2.2,Win32,59.88023952,5c8c59d99c57e70001a659a6,65d6bb0e977760de756971f7,65d6bfa055338e31f88bed2b,0.5938,0.5943,1,64,226,54,1,fourtwo,,,,,,,,,,,,,,,,,,,,,,,,,,,,,,,,,,,,,,,,,,,,,,,,,,,,,,,,,,,,,,,,,,,,,,,,,,,,,,,,,,,,,,,,,,,,,,,,,,,,,,,,,,,,,,,,,,,,,,,,,,,,,,,,,,,,,,,,,
,,5c8c59d99c57e70001a659a6,2024-02-22_04h32.08.951,kallum_motion_pilot,2023.2.2,Win32,59.88023952,5c8c59d99c57e70001a659a6,65d6bb0e977760de756971f7,65d6bfa055338e31f88bed2b,0.5948,0.5961,1,65,227,89,1,fiveseven,,,,,,,,,,,,,,,,,,,,,,,,,,,,,,,,,,,,,,,,,,,,,,,,,,,,,,,,,,,,,,,,,,,,,,,,,,,,,,,,,,,,,,,,,,,,,,,,,,,,,,,,,,,,,,,,,,,,,,,,,,,,,,,,,,,,,,,,,
,,5c8c59d99c57e70001a659a6,2024-02-22_04h32.08.951,kallum_motion_pilot,2023.2.2,Win32,59.88023952,5c8c59d99c57e70001a659a6,65d6bb0e977760de756971f7,65d6bfa055338e31f88bed2b,0.5966,0.5971,1,66,228,106,1,sixfive,,,,,,,,,,,,,,,,,,,,,,,,,,,,,,,,,,,,,,,,,,,,,,,,,,,,,,,,,,,,,,,,,,,,,,,,,,,,,,,,,,,,,,,,,,,,,,,,,,,,,,,,,,,,,,,,,,,,,,,,,,,,,,,,,,,,,,,,,
,,5c8c59d99c57e70001a659a6,2024-02-22_04h32.08.951,kallum_motion_pilot,2023.2.2,Win32,59.88023952,5c8c59d99c57e70001a659a6,65d6bb0e977760de756971f7,65d6bfa055338e31f88bed2b,0.5976,0.5981,1,67,229,14,1,fourtwo,,,,,,,,,,,,,,,,,,,,,,,,,,,,,,,,,,,,,,,,,,,,,,,,,,,,,,,,,,,,,,,,,,,,,,,,,,,,,,,,,,,,,,,,,,,,,,,,,,,,,,,,,,,,,,,,,,,,,,,,,,,,,,,,,,,,,,,,,
,,5c8c59d99c57e70001a659a6,2024-02-22_04h32.08.951,kallum_motion_pilot,2023.2.2,Win32,59.88023952,5c8c59d99c57e70001a659a6,65d6bb0e977760de756971f7,65d6bfa055338e31f88bed2b,0.5987,0.5991,1,68,230,152,1,fivesix,,,,,,,,,,,,,,,,,,,,,,,,,,,,,,,,,,,,,,,,,,,,,,,,,,,,,,,,,,,,,,,,,,,,,,,,,,,,,,,,,,,,,,,,,,,,,,,,,,,,,,,,,,,,,,,,,,,,,,,,,,,,,,,,,,,,,,,,,
,,5c8c59d99c57e70001a659a6,2024-02-22_04h32.08.951,kallum_motion_pilot,2023.2.2,Win32,59.88023952,5c8c59d99c57e70001a659a6,65d6bb0e977760de756971f7,65d6bfa055338e31f88bed2b,0.5997,0.6001,1,69,231,130,1,sixfive,,,,,,,,,,,,,,,,,,,,,,,,,,,,,,,,,,,,,,,,,,,,,,,,,,,,,,,,,,,,,,,,,,,,,,,,,,,,,,,,,,,,,,,,,,,,,,,,,,,,,,,,,,,,,,,,,,,,,,,,,,,,,,,,,,,,,,,,,
,,5c8c59d99c57e70001a659a6,2024-02-22_04h32.08.951,kallum_motion_pilot,2023.2.2,Win32,59.88023952,5c8c59d99c57e70001a659a6,65d6bb0e977760de756971f7,65d6bfa055338e31f88bed2b,0.6006,0.601,1,70,232,109,1,seveneight,,,,,,,,,,,,,,,,,,,,,,,,,,,,,,,,,,,,,,,,,,,,,,,,,,,,,,,,,,,,,,,,,,,,,,,,,,,,,,,,,,,,,,,,,,,,,,,,,,,,,,,,,,,,,,,,,,,,,,,,,,,,,,,,,,,,,,,,,
,,5c8c59d99c57e70001a659a6,2024-02-22_04h32.08.951,kallum_motion_pilot,2023.2.2,Win32,59.88023952,5c8c59d99c57e70001a659a6,65d6bb0e977760de756971f7,65d6bfa055338e31f88bed2b,0.6016,0.6024,1,71,233,61,1,threefour,,,,,,,,,,,,,,,,,,,,,,,,,,,,,,,,,,,,,,,,,,,,,,,,,,,,,,,,,,,,,,,,,,,,,,,,,,,,,,,,,,,,,,,,,,,,,,,,,,,,,,,,,,,,,,,,,,,,,,,,,,,,,,,,,,,,,,,,,
,,5c8c59d99c57e70001a659a6,2024-02-22_04h32.08.951,kallum_motion_pilot,2023.2.2,Win32,59.88023952,5c8c59d99c57e70001a659a6,65d6bb0e977760de756971f7,65d6bfa055338e31f88bed2b,0.6029,0.6034,1,72,234,63,1,fourthree,,,,,,,,,,,,,,,,,,,,,,,,,,,,,,,,,,,,,,,,,,,,,,,,,,,,,,,,,,,,,,,,,,,,,,,,,,,,,,,,,,,,,,,,,,,,,,,,,,,,,,,,,,,,,,,,,,,,,,,,,,,,,,,,,,,,,,,,,
,,5c8c59d99c57e70001a659a6,2024-02-22_04h32.08.951,kallum_motion_pilot,2023.2.2,Win32,59.88023952,5c8c59d99c57e70001a659a6,65d6bb0e977760de756971f7,65d6bfa055338e31f88bed2b,0.6039,0.6043,1,73,235,104,1,fivesix,,,,,,,,,,,,,,,,,,,,,,,,,,,,,,,,,,,,,,,,,,,,,,,,,,,,,,,,,,,,,,,,,,,,,,,,,,,,,,,,,,,,,,,,,,,,,,,,,,,,,,,,,,,,,,,,,,,,,,,,,,,,,,,,,,,,,,,,,
,,5c8c59d99c57e70001a659a6,2024-02-22_04h32.08.951,kallum_motion_pilot,2023.2.2,Win32,59.88023952,5c8c59d99c57e70001a659a6,65d6bb0e977760de756971f7,65d6bfa055338e31f88bed2b,0.6049,0.6053,1,74,236,149,1,seveneight,,,,,,,,,,,,,,,,,,,,,,,,,,,,,,,,,,,,,,,,,,,,,,,,,,,,,,,,,,,,,,,,,,,,,,,,,,,,,,,,,,,,,,,,,,,,,,,,,,,,,,,,,,,,,,,,,,,,,,,,,,,,,,,,,,,,,,,,,
,,5c8c59d99c57e70001a659a6,2024-02-22_04h32.08.951,kallum_motion_pilot,2023.2.2,Win32,59.88023952,5c8c59d99c57e70001a659a6,65d6bb0e977760de756971f7,65d6bfa055338e31f88bed2b,0.6058,0.6063,1,75,237,13,1,threefour,,,,,,,,,,,,,,,,,,,,,,,,,,,,,,,,,,,,,,,,,,,,,,,,,,,,,,,,,,,,,,,,,,,,,,,,,,,,,,,,,,,,,,,,,,,,,,,,,,,,,,,,,,,,,,,,,,,,,,,,,,,,,,,,,,,,,,,,,
,,5c8c59d99c57e70001a659a6,2024-02-22_04h32.08.951,kallum_motion_pilot,2023.2.2,Win32,59.88023952,5c8c59d99c57e70001a659a6,65d6bb0e977760de756971f7,65d6bfa055338e31f88bed2b,0.6068,0.6073,1,76,238,25,1,onethree,,,,,,,,,,,,,,,,,,,,,,,,,,,,,,,,,,,,,,,,,,,,,,,,,,,,,,,,,,,,,,,,,,,,,,,,,,,,,,,,,,,,,,,,,,,,,,,,,,,,,,,,,,,,,,,,,,,,,,,,,,,,,,,,,,,,,,,,,
,,5c8c59d99c57e70001a659a6,2024-02-22_04h32.08.951,kallum_motion_pilot,2023.2.2,Win32,59.88023952,5c8c59d99c57e70001a659a6,65d6bb0e977760de756971f7,65d6bfa055338e31f88bed2b,0.6078,0.6088,1,77,239,39,1,fourthree,,,,,,,,,,,,,,,,,,,,,,,,,,,,,,,,,,,,,,,,,,,,,,,,,,,,,,,,,,,,,,,,,,,,,,,,,,,,,,,,,,,,,,,,,,,,,,,,,,,,,,,,,,,,,,,,,,,,,,,,,,,,,,,,,,,,,,,,,
,,5c8c59d99c57e70001a659a6,2024-02-22_04h32.08.951,kallum_motion_pilot,2023.2.2,Win32,59.88023952,5c8c59d99c57e70001a659a6,65d6bb0e977760de756971f7,65d6bfa055338e31f88bed2b,0.6093,0.6097,1,78,240,9,1,onethree,,,,,,,,,,,,,,,,,,,,,,,,,,,,,,,,,,,,,,,,,,,,,,,,,,,,,,,,,,,,,,,,,,,,,,,,,,,,,,,,,,,,,,,,,,,,,,,,,,,,,,,,,,,,,,,,,,,,,,,,,,,,,,,,,,,,,,,,,
,,5c8c59d99c57e70001a659a6,2024-02-22_04h32.08.951,kallum_motion_pilot,2023.2.2,Win32,59.88023952,5c8c59d99c57e70001a659a6,65d6bb0e977760de756971f7,65d6bfa055338e31f88bed2b,0.6103,0.6107,1,79,241,8,1,onetwo,,,,,,,,,,,,,,,,,,,,,,,,,,,,,,,,,,,,,,,,,,,,,,,,,,,,,,,,,,,,,,,,,,,,,,,,,,,,,,,,,,,,,,,,,,,,,,,,,,,,,,,,,,,,,,,,,,,,,,,,,,,,,,,,,,,,,,,,,
,,5c8c59d99c57e70001a659a6,2024-02-22_04h32.08.951,kallum_motion_pilot,2023.2.2,Win32,59.88023952,5c8c59d99c57e70001a659a6,65d6bb0e977760de756971f7,65d6bfa055338e31f88bed2b,0.6112,0.6117,1,80,242,80,1,fivesix,,,,,,,,,,,,,,,,,,,,,,,,,,,,,,,,,,,,,,,,,,,,,,,,,,,,,,,,,,,,,,,,,,,,,,,,,,,,,,,,,,,,,,,,,,,,,,,,,,,,,,,,,,,,,,,,,,,,,,,,,,,,,,,,,,,,,,,,,
,,5c8c59d99c57e70001a659a6,2024-02-22_04h32.08.951,kallum_motion_pilot,2023.2.2,Win32,59.88023952,5c8c59d99c57e70001a659a6,65d6bb0e977760de756971f7,65d6bfa055338e31f88bed2b,0.6129,0.6134,1,81,243,83,1,sixeight,,,,,,,,,,,,,,,,,,,,,,,,,,,,,,,,,,,,,,,,,,,,,,,,,,,,,,,,,,,,,,,,,,,,,,,,,,,,,,,,,,,,,,,,,,,,,,,,,,,,,,,,,,,,,,,,,,,,,,,,,,,,,,,,,,,,,,,,,
,,5c8c59d99c57e70001a659a6,2024-02-22_04h32.08.951,kallum_motion_pilot,2023.2.2,Win32,59.88023952,5c8c59d99c57e70001a659a6,65d6bb0e977760de756971f7,65d6bfa055338e31f88bed2b,0.614,0.6144,1,82,244,59,1,twofour,,,,,,,,,,,,,,,,,,,,,,,,,,,,,,,,,,,,,,,,,,,,,,,,,,,,,,,,,,,,,,,,,,,,,,,,,,,,,,,,,,,,,,,,,,,,,,,,,,,,,,,,,,,,,,,,,,,,,,,,,,,,,,,,,,,,,,,,,
,,5c8c59d99c57e70001a659a6,2024-02-22_04h32.08.951,kallum_motion_pilot,2023.2.2,Win32,59.88023952,5c8c59d99c57e70001a659a6,65d6bb0e977760de756971f7,65d6bfa055338e31f88bed2b,0.615,0.6154,1,83,245,92,1,sevenfive,,,,,,,,,,,,,,,,,,,,,,,,,,,,,,,,,,,,,,,,,,,,,,,,,,,,,,,,,,,,,,,,,,,,,,,,,,,,,,,,,,,,,,,,,,,,,,,,,,,,,,,,,,,,,,,,,,,,,,,,,,,,,,,,,,,,,,,,,
,,5c8c59d99c57e70001a659a6,2024-02-22_04h32.08.951,kallum_motion_pilot,2023.2.2,Win32,59.88023952,5c8c59d99c57e70001a659a6,65d6bb0e977760de756971f7,65d6bfa055338e31f88bed2b,0.6159,0.6164,1,84,246,143,1,eightseven,,,,,,,,,,,,,,,,,,,,,,,,,,,,,,,,,,,,,,,,,,,,,,,,,,,,,,,,,,,,,,,,,,,,,,,,,,,,,,,,,,,,,,,,,,,,,,,,,,,,,,,,,,,,,,,,,,,,,,,,,,,,,,,,,,,,,,,,,
,,5c8c59d99c57e70001a659a6,2024-02-22_04h32.08.951,kallum_motion_pilot,2023.2.2,Win32,59.88023952,5c8c59d99c57e70001a659a6,65d6bb0e977760de756971f7,65d6bfa055338e31f88bed2b,0.6169,0.6173,1,85,247,157,1,seveneight,,,,,,,,,,,,,,,,,,,,,,,,,,,,,,,,,,,,,,,,,,,,,,,,,,,,,,,,,,,,,,,,,,,,,,,,,,,,,,,,,,,,,,,,,,,,,,,,,,,,,,,,,,,,,,,,,,,,,,,,,,,,,,,,,,,,,,,,,
,,5c8c59d99c57e70001a659a6,2024-02-22_04h32.08.951,kallum_motion_pilot,2023.2.2,Win32,59.88023952,5c8c59d99c57e70001a659a6,65d6bb0e977760de756971f7,65d6bfa055338e31f88bed2b,0.6179,0.6186,1,86,248,53,1,threefour,,,,,,,,,,,,,,,,,,,,,,,,,,,,,,,,,,,,,,,,,,,,,,,,,,,,,,,,,,,,,,,,,,,,,,,,,,,,,,,,,,,,,,,,,,,,,,,,,,,,,,,,,,,,,,,,,,,,,,,,,,,,,,,,,,,,,,,,,
,,5c8c59d99c57e70001a659a6,2024-02-22_04h32.08.951,kallum_motion_pilot,2023.2.2,Win32,59.88023952,5c8c59d99c57e70001a659a6,65d6bb0e977760de756971f7,65d6bfa055338e31f88bed2b,0.6192,0.6196,1,87,249,142,1,eightsix,,,,,,,,,,,,,,,,,,,,,,,,,,,,,,,,,,,,,,,,,,,,,,,,,,,,,,,,,,,,,,,,,,,,,,,,,,,,,,,,,,,,,,,,,,,,,,,,,,,,,,,,,,,,,,,,,,,,,,,,,,,,,,,,,,,,,,,,,
,,5c8c59d99c57e70001a659a6,2024-02-22_04h32.08.951,kallum_motion_pilot,2023.2.2,Win32,59.88023952,5c8c59d99c57e70001a659a6,65d6bb0e977760de756971f7,65d6bfa055338e31f88bed2b,0.6209,0.6213,1,88,250,156,1,sevenfive,,,,,,,,,,,,,,,,,,,,,,,,,,,,,,,,,,,,,,,,,,,,,,,,,,,,,,,,,,,,,,,,,,,,,,,,,,,,,,,,,,,,,,,,,,,,,,,,,,,,,,,,,,,,,,,,,,,,,,,,,,,,,,,,,,,,,,,,,
,,5c8c59d99c57e70001a659a6,2024-02-22_04h32.08.951,kallum_motion_pilot,2023.2.2,Win32,59.88023952,5c8c59d99c57e70001a659a6,65d6bb0e977760de756971f7,65d6bfa055338e31f88bed2b,0.6223,0.6226,1,89,251,84,1,sevenfive,,,,,,,,,,,,,,,,,,,,,,,,,,,,,,,,,,,,,,,,,,,,,,,,,,,,,,,,,,,,,,,,,,,,,,,,,,,,,,,,,,,,,,,,,,,,,,,,,,,,,,,,,,,,,,,,,,,,,,,,,,,,,,,,,,,,,,,,,
,,5c8c59d99c57e70001a659a6,2024-02-22_04h32.08.951,kallum_motion_pilot,2023.2.2,Win32,59.88023952,5c8c59d99c57e70001a659a6,65d6bb0e977760de756971f7,65d6bfa055338e31f88bed2b,0.6232,0.6236,1,90,252,67,1,twofour,,,,,,,,,,,,,,,,,,,,,,,,,,,,,,,,,,,,,,,,,,,,,,,,,,,,,,,,,,,,,,,,,,,,,,,,,,,,,,,,,,,,,,,,,,,,,,,,,,,,,,,,,,,,,,,,,,,,,,,,,,,,,,,,,,,,,,,,,
,,5c8c59d99c57e70001a659a6,2024-02-22_04h32.08.951,kallum_motion_pilot,2023.2.2,Win32,59.88023952,5c8c59d99c57e70001a659a6,65d6bb0e977760de756971f7,65d6bfa055338e31f88bed2b,0.6242,0.6245,1,91,253,141,1,seveneight,,,,,,,,,,,,,,,,,,,,,,,,,,,,,,,,,,,,,,,,,,,,,,,,,,,,,,,,,,,,,,,,,,,,,,,,,,,,,,,,,,,,,,,,,,,,,,,,,,,,,,,,,,,,,,,,,,,,,,,,,,,,,,,,,,,,,,,,,
,,5c8c59d99c57e70001a659a6,2024-02-22_04h32.08.951,kallum_motion_pilot,2023.2.2,Win32,59.88023952,5c8c59d99c57e70001a659a6,65d6bb0e977760de756971f7,65d6bfa055338e31f88bed2b,0.6251,0.6256,1,92,254,136,1,fivesix,,,,,,,,,,,,,,,,,,,,,,,,,,,,,,,,,,,,,,,,,,,,,,,,,,,,,,,,,,,,,,,,,,,,,,,,,,,,,,,,,,,,,,,,,,,,,,,,,,,,,,,,,,,,,,,,,,,,,,,,,,,,,,,,,,,,,,,,,
,,5c8c59d99c57e70001a659a6,2024-02-22_04h32.08.951,kallum_motion_pilot,2023.2.2,Win32,59.88023952,5c8c59d99c57e70001a659a6,65d6bb0e977760de756971f7,65d6bfa055338e31f88bed2b,0.6263,0.6267,1,93,255,122,1,sixfive,,,,,,,,,,,,,,,,,,,,,,,,,,,,,,,,,,,,,,,,,,,,,,,,,,,,,,,,,,,,,,,,,,,,,,,,,,,,,,,,,,,,,,,,,,,,,,,,,,,,,,,,,,,,,,,,,,,,,,,,,,,,,,,,,,,,,,,,,
,,5c8c59d99c57e70001a659a6,2024-02-22_04h32.08.951,kallum_motion_pilot,2023.2.2,Win32,59.88023952,5c8c59d99c57e70001a659a6,65d6bb0e977760de756971f7,65d6bfa055338e31f88bed2b,0.6278,0.6281,1,94,256,86,1,eightsix,,,,,,,,,,,,,,,,,,,,,,,,,,,,,,,,,,,,,,,,,,,,,,,,,,,,,,,,,,,,,,,,,,,,,,,,,,,,,,,,,,,,,,,,,,,,,,,,,,,,,,,,,,,,,,,,,,,,,,,,,,,,,,,,,,,,,,,,,
,,5c8c59d99c57e70001a659a6,2024-02-22_04h32.08.951,kallum_motion_pilot,2023.2.2,Win32,59.88023952,5c8c59d99c57e70001a659a6,65d6bb0e977760de756971f7,65d6bfa055338e31f88bed2b,0.6293,0.6296,1,95,257,161,1,fiveseven,,,,,,,,,,,,,,,,,,,,,,,,,,,,,,,,,,,,,,,,,,,,,,,,,,,,,,,,,,,,,,,,,,,,,,,,,,,,,,,,,,,,,,,,,,,,,,,,,,,,,,,,,,,,,,,,,,,,,,,,,,,,,,,,,,,,,,,,,
,,5c8c59d99c57e70001a659a6,2024-02-22_04h32.08.951,kallum_motion_pilot,2023.2.2,Win32,59.88023952,5c8c59d99c57e70001a659a6,65d6bb0e977760de756971f7,65d6bfa055338e31f88bed2b,0.6302,0.6307,1,96,258,74,1,twoone,,,,,,,,,,,,,,,,,,,,,,,,,,,,,,,,,,,,,,,,,,,,,,,,,,,,,,,,,,,,,,,,,,,,,,,,,,,,,,,,,,,,,,,,,,,,,,,,,,,,,,,,,,,,,,,,,,,,,,,,,,,,,,,,,,,,,,,,,
,,5c8c59d99c57e70001a659a6,2024-02-22_04h32.08.951,kallum_motion_pilot,2023.2.2,Win32,59.88023952,5c8c59d99c57e70001a659a6,65d6bb0e977760de756971f7,65d6bfa055338e31f88bed2b,0.6313,0.6317,1,97,259,121,1,fiveseven,,,,,,,,,,,,,,,,,,,,,,,,,,,,,,,,,,,,,,,,,,,,,,,,,,,,,,,,,,,,,,,,,,,,,,,,,,,,,,,,,,,,,,,,,,,,,,,,,,,,,,,,,,,,,,,,,,,,,,,,,,,,,,,,,,,,,,,,,
,,5c8c59d99c57e70001a659a6,2024-02-22_04h32.08.951,kallum_motion_pilot,2023.2.2,Win32,59.88023952,5c8c59d99c57e70001a659a6,65d6bb0e977760de756971f7,65d6bfa055338e31f88bed2b,0.6323,0.6331,1,98,260,76,1,threeone,,,,,,,,,,,,,,,,,,,,,,,,,,,,,,,,,,,,,,,,,,,,,,,,,,,,,,,,,,,,,,,,,,,,,,,,,,,,,,,,,,,,,,,,,,,,,,,,,,,,,,,,,,,,,,,,,,,,,,,,,,,,,,,,,,,,,,,,,
,,5c8c59d99c57e70001a659a6,2024-02-22_04h32.08.951,kallum_motion_pilot,2023.2.2,Win32,59.88023952,5c8c59d99c57e70001a659a6,65d6bb0e977760de756971f7,65d6bfa055338e31f88bed2b,0.6338,0.6342,1,99,261,58,1,twoone,,,,,,,,,,,,,,,,,,,,,,,,,,,,,,,,,,,,,,,,,,,,,,,,,,,,,,,,,,,,,,,,,,,,,,,,,,,,,,,,,,,,,,,,,,,,,,,,,,,,,,,,,,,,,,,,,,,,,,,,,,,,,,,,,,,,,,,,,
,,5c8c59d99c57e70001a659a6,2024-02-22_04h32.08.951,kallum_motion_pilot,2023.2.2,Win32,59.88023952,5c8c59d99c57e70001a659a6,65d6bb0e977760de756971f7,65d6bfa055338e31f88bed2b,0.6348,0.6352,1,100,262,102,1,eightsix,,,,,,,,,,,,,,,,,,,,,,,,,,,,,,,,,,,,,,,,,,,,,,,,,,,,,,,,,,,,,,,,,,,,,,,,,,,,,,,,,,,,,,,,,,,,,,,,,,,,,,,,,,,,,,,,,,,,,,,,,,,,,,,,,,,,,,,,,
,,5c8c59d99c57e70001a659a6,2024-02-22_04h32.08.951,kallum_motion_pilot,2023.2.2,Win32,59.88023952,5c8c59d99c57e70001a659a6,65d6bb0e977760de756971f7,65d6bfa055338e31f88bed2b,0.6359,0.6365,1,101,263,108,1,sevenfive,,,,,,,,,,,,,,,,,,,,,,,,,,,,,,,,,,,,,,,,,,,,,,,,,,,,,,,,,,,,,,,,,,,,,,,,,,,,,,,,,,,,,,,,,,,,,,,,,,,,,,,,,,,,,,,,,,,,,,,,,,,,,,,,,,,,,,,,,
,,5c8c59d99c57e70001a659a6,2024-02-22_04h32.08.951,kallum_motion_pilot,2023.2.2,Win32,59.88023952,5c8c59d99c57e70001a659a6,65d6bb0e977760de756971f7,65d6bfa055338e31f88bed2b,0.6375,0.6378,1,102,264,2,1,twoone,,,,,,,,,,,,,,,,,,,,,,,,,,,,,,,,,,,,,,,,,,,,,,,,,,,,,,,,,,,,,,,,,,,,,,,,,,,,,,,,,,,,,,,,,,,,,,,,,,,,,,,,,,,,,,,,,,,,,,,,,,,,,,,,,,,,,,,,,
,,5c8c59d99c57e70001a659a6,2024-02-22_04h32.08.951,kallum_motion_pilot,2023.2.2,Win32,59.88023952,5c8c59d99c57e70001a659a6,65d6bb0e977760de756971f7,65d6bfa055338e31f88bed2b,0.6385,0.6389,1,103,265,15,1,fourthree,,,,,,,,,,,,,,,,,,,,,,,,,,,,,,,,,,,,,,,,,,,,,,,,,,,,,,,,,,,,,,,,,,,,,,,,,,,,,,,,,,,,,,,,,,,,,,,,,,,,,,,,,,,,,,,,,,,,,,,,,,,,,,,,,,,,,,,,,
,,5c8c59d99c57e70001a659a6,2024-02-22_04h32.08.951,kallum_motion_pilot,2023.2.2,Win32,59.88023952,5c8c59d99c57e70001a659a6,65d6bb0e977760de756971f7,65d6bfa055338e31f88bed2b,0.6395,0.6399,1,104,266,98,1,sixfive,,,,,,,,,,,,,,,,,,,,,,,,,,,,,,,,,,,,,,,,,,,,,,,,,,,,,,,,,,,,,,,,,,,,,,,,,,,,,,,,,,,,,,,,,,,,,,,,,,,,,,,,,,,,,,,,,,,,,,,,,,,,,,,,,,,,,,,,,
,,5c8c59d99c57e70001a659a6,2024-02-22_04h32.08.951,kallum_motion_pilot,2023.2.2,Win32,59.88023952,5c8c59d99c57e70001a659a6,65d6bb0e977760de756971f7,65d6bfa055338e31f88bed2b,0.6408,0.6414,1,105,267,72,1,onetwo,,,,,,,,,,,,,,,,,,,,,,,,,,,,,,,,,,,,,,,,,,,,,,,,,,,,,,,,,,,,,,,,,,,,,,,,,,,,,,,,,,,,,,,,,,,,,,,,,,,,,,,,,,,,,,,,,,,,,,,,,,,,,,,,,,,,,,,,,
,,5c8c59d99c57e70001a659a6,2024-02-22_04h32.08.951,kallum_motion_pilot,2023.2.2,Win32,59.88023952,5c8c59d99c57e70001a659a6,65d6bb0e977760de756971f7,65d6bfa055338e31f88bed2b,0.6424,0.6429,1,106,268,101,1,seveneight,,,,,,,,,,,,,,,,,,,,,,,,,,,,,,,,,,,,,,,,,,,,,,,,,,,,,,,,,,,,,,,,,,,,,,,,,,,,,,,,,,,,,,,,,,,,,,,,,,,,,,,,,,,,,,,,,,,,,,,,,,,,,,,,,,,,,,,,,
,,5c8c59d99c57e70001a659a6,2024-02-22_04h32.08.951,kallum_motion_pilot,2023.2.2,Win32,59.88023952,5c8c59d99c57e70001a659a6,65d6bb0e977760de756971f7,65d6bfa055338e31f88bed2b,0.6437,0.6441,1,107,269,85,1,seveneight,,,,,,,,,,,,,,,,,,,,,,,,,,,,,,,,,,,,,,,,,,,,,,,,,,,,,,,,,,,,,,,,,,,,,,,,,,,,,,,,,,,,,,,,,,,,,,,,,,,,,,,,,,,,,,,,,,,,,,,,,,,,,,,,,,,,,,,,,
,,5c8c59d99c57e70001a659a6,2024-02-22_04h32.08.951,kallum_motion_pilot,2023.2.2,Win32,59.88023952,5c8c59d99c57e70001a659a6,65d6bb0e977760de756971f7,65d6bfa055338e31f88bed2b,0.6447,0.6451,1,108,270,93,1,seveneight,,,,,,,,,,,,,,,,,,,,,,,,,,,,,,,,,,,,,,,,,,,,,,,,,,,,,,,,,,,,,,,,,,,,,,,,,,,,,,,,,,,,,,,,,,,,,,,,,,,,,,,,,,,,,,,,,,,,,,,,,,,,,,,,,,,,,,,,,
,,5c8c59d99c57e70001a659a6,2024-02-22_04h32.08.951,kallum_motion_pilot,2023.2.2,Win32,59.88023952,5c8c59d99c57e70001a659a6,65d6bb0e977760de756971f7,65d6bfa055338e31f88bed2b,0.6461,0.6466,1,109,271,55,1,fourthree,,,,,,,,,,,,,,,,,,,,,,,,,,,,,,,,,,,,,,,,,,,,,,,,,,,,,,,,,,,,,,,,,,,,,,,,,,,,,,,,,,,,,,,,,,,,,,,,,,,,,,,,,,,,,,,,,,,,,,,,,,,,,,,,,,,,,,,,,
,,5c8c59d99c57e70001a659a6,2024-02-22_04h32.08.951,kallum_motion_pilot,2023.2.2,Win32,59.88023952,5c8c59d99c57e70001a659a6,65d6bb0e977760de756971f7,65d6bfa055338e31f88bed2b,0.6471,0.6475,1,110,272,96,1,fivesix,,,,,,,,,,,,,,,,,,,,,,,,,,,,,,,,,,,,,,,,,,,,,,,,,,,,,,,,,,,,,,,,,,,,,,,,,,,,,,,,,,,,,,,,,,,,,,,,,,,,,,,,,,,,,,,,,,,,,,,,,,,,,,,,,,,,,,,,,
,,5c8c59d99c57e70001a659a6,2024-02-22_04h32.08.951,kallum_motion_pilot,2023.2.2,Win32,59.88023952,5c8c59d99c57e70001a659a6,65d6bb0e977760de756971f7,65d6bfa055338e31f88bed2b,0.6481,0.6485,1,111,273,103,1,eightseven,,,,,,,,,,,,,,,,,,,,,,,,,,,,,,,,,,,,,,,,,,,,,,,,,,,,,,,,,,,,,,,,,,,,,,,,,,,,,,,,,,,,,,,,,,,,,,,,,,,,,,,,,,,,,,,,,,,,,,,,,,,,,,,,,,,,,,,,,
,,5c8c59d99c57e70001a659a6,2024-02-22_04h32.08.951,kallum_motion_pilot,2023.2.2,Win32,59.88023952,5c8c59d99c57e70001a659a6,65d6bb0e977760de756971f7,65d6bfa055338e31f88bed2b,0.6491,0.6495,1,112,274,24,1,onetwo,,,,,,,,,,,,,,,,,,,,,,,,,,,,,,,,,,,,,,,,,,,,,,,,,,,,,,,,,,,,,,,,,,,,,,,,,,,,,,,,,,,,,,,,,,,,,,,,,,,,,,,,,,,,,,,,,,,,,,,,,,,,,,,,,,,,,,,,,
,,5c8c59d99c57e70001a659a6,2024-02-22_04h32.08.951,kallum_motion_pilot,2023.2.2,Win32,59.88023952,5c8c59d99c57e70001a659a6,65d6bb0e977760de756971f7,65d6bfa055338e31f88bed2b,0.6501,0.6505,1,113,275,116,1,sevenfive,,,,,,,,,,,,,,,,,,,,,,,,,,,,,,,,,,,,,,,,,,,,,,,,,,,,,,,,,,,,,,,,,,,,,,,,,,,,,,,,,,,,,,,,,,,,,,,,,,,,,,,,,,,,,,,,,,,,,,,,,,,,,,,,,,,,,,,,,
,,5c8c59d99c57e70001a659a6,2024-02-22_04h32.08.951,kallum_motion_pilot,2023.2.2,Win32,59.88023952,5c8c59d99c57e70001a659a6,65d6bb0e977760de756971f7,65d6bfa055338e31f88bed2b,0.6511,0.6515,1,114,276,95,1,eightseven,,,,,,,,,,,,,,,,,,,,,,,,,,,,,,,,,,,,,,,,,,,,,,,,,,,,,,,,,,,,,,,,,,,,,,,,,,,,,,,,,,,,,,,,,,,,,,,,,,,,,,,,,,,,,,,,,,,,,,,,,,,,,,,,,,,,,,,,,
,,5c8c59d99c57e70001a659a6,2024-02-22_04h32.08.951,kallum_motion_pilot,2023.2.2,Win32,59.88023952,5c8c59d99c57e70001a659a6,65d6bb0e977760de756971f7,65d6bfa055338e31f88bed2b,0.6521,0.6529,1,115,277,148,1,sevenfive,,,,,,,,,,,,,,,,,,,,,,,,,,,,,,,,,,,,,,,,,,,,,,,,,,,,,,,,,,,,,,,,,,,,,,,,,,,,,,,,,,,,,,,,,,,,,,,,,,,,,,,,,,,,,,,,,,,,,,,,,,,,,,,,,,,,,,,,,
