startup.started,startup.stopped,Prolific ID*,date,expName,psychopyVersion,OS,frameRate,participant,study_id,session,stimpositions.started,stimpositions.stopped,hardcoded_stimulus_positions.thisRepN,hardcoded_stimulus_positions.thisTrialN,hardcoded_stimulus_positions.thisN,hardcoded_stimulus_positions.thisIndex,hardcoded_stimulus_positions.ran,StimulusPos,stimorientation.started,stimorientation.stopped,prac_stimorientation_import_loop.thisRepN,prac_stimorientation_import_loop.thisTrialN,prac_stimorientation_import_loop.thisN,prac_stimorientation_import_loop.thisIndex,prac_stimorientation_import_loop.ran,Stimorientation,welcome_instr.started,welcome_instr.stopped,key_resp.keys,key_resp.rt,key_resp.duration,response_steppedout_1.started,response_steppedout_1.stopped,key_resp_20.keys,key_resp_20.rt,key_resp_20.duration,response_steppedout_2.started,response_steppedout_2.stopped,key_resp_19.keys,key_resp_19.rt,key_resp_19.duration,stim_response_instr.started,stim_response_instr.stopped,key_resp_15.keys,key_resp_15.rt,key_resp_15.duration,direction_instr_2.started,direction_instr_2.stopped,key_resp_9.keys,key_resp_9.rt,key_resp_9.duration,instr_prac.started,instr_prac.stopped,key_resp_10.keys,key_resp_10.rt,key_resp_10.duration,Stim1_display_prac.started,Stim1_display_prac.stopped,Ecc,Circle1_ori,Circle2_ori,response_prac.started,similarity,response_time,response_prac.stopped,mouse_5.x,mouse_5.y,mouse_5.leftButton,mouse_5.midButton,mouse_5.rightButton,mouse_5.clicked_name,responseprac_feedback.started,responseprac_feedback.stopped,summary2_prac.started,summary2_prac.stopped,mouse_6.x,mouse_6.y,mouse_6.leftButton,mouse_6.midButton,mouse_6.rightButton,mouse_6.clicked_name,duringprac.thisRepN,duringprac.thisTrialN,duringprac.thisN,duringprac.thisIndex,duringprac.ran,begin.started,begin.stopped,key_resp_22.keys,key_resp_22.rt,key_resp_22.duration,Stim1_display.started,Stim1_display.stopped,circle1_ori,circle2_ori,circle1_SF,circle2_SF,response.started,response.stopped,mouse.x,mouse.y,mouse.leftButton,mouse.midButton,mouse.rightButton,mouse.clicked_name,trialnumber,double_pass.thisRepN,double_pass.thisTrialN,double_pass.thisN,double_pass.thisIndex,double_pass.ran,double_pass.order,main_trial.thisRepN,main_trial.thisTrialN,main_trial.thisN,main_trial.thisIndex,main_trial.ran,main_trial.order,Trial_Counter,Catch,Frequencies,response_2.started,response_2.stopped,mouse_2.x,mouse_2.y,mouse_2.leftButton,mouse_2.midButton,mouse_2.rightButton,mouse_2.clicked_name,special_trial.started,special_trial.stopped,catch_1.started,catch_1.stopped,mouse_3.x,mouse_3.y,mouse_3.leftButton,mouse_3.midButton,mouse_3.rightButton,catchresponse,catchnumber,response_time_catch,response_sum.started,response_sum.stopped,mouse_11.x,mouse_11.y,mouse_11.leftButton,mouse_11.midButton,mouse_11.rightButton,flip_presentation_sequence_for_double_pass.started,flip_presentation_sequence_for_double_pass.stopped,goodbye.started,goodbye.stopped,key_resp_3.keys,key_resp_3.rt,key_resp_3.duration
0.0008,0.0012,5caad602a15c9800161ad6d3,2024-02-18_20h18.12.663,kallum_motion_pilot,2023.2.2,Win32,50.25125628,5caad602a15c9800161ad6d3,65d2b6c8f2eece985d8e374c,65d2b9c60cd6bbd3caa87785,,,,,,,,,,,,,,,,,,,,,,,,,,,,,,,,,,,,,,,,,,,,,,,,,,,,,,,,,,,,,,,,,,,,,,,,,,,,,,,,,,,,,,,,,,,,,,,,,,,,,,,,,,,,,,,,,,,,,,,,,,,,,,,,,,,,,,,,,,,,,,,,,
,,5caad602a15c9800161ad6d3,2024-02-18_20h18.12.663,kallum_motion_pilot,2023.2.2,Win32,50.25125628,5caad602a15c9800161ad6d3,65d2b6c8f2eece985d8e374c,65d2b9c60cd6bbd3caa87785,0.0613,0.0617,0,0,0,58,1,twoone,,,,,,,,,,,,,,,,,,,,,,,,,,,,,,,,,,,,,,,,,,,,,,,,,,,,,,,,,,,,,,,,,,,,,,,,,,,,,,,,,,,,,,,,,,,,,,,,,,,,,,,,,,,,,,,,,,,,,,,,,,,,,,,,,,,,,,,,,
,,5caad602a15c9800161ad6d3,2024-02-18_20h18.12.663,kallum_motion_pilot,2023.2.2,Win32,50.25125628,5caad602a15c9800161ad6d3,65d2b6c8f2eece985d8e374c,65d2b9c60cd6bbd3caa87785,0.0623,0.0624,0,1,1,45,1,threefour,,,,,,,,,,,,,,,,,,,,,,,,,,,,,,,,,,,,,,,,,,,,,,,,,,,,,,,,,,,,,,,,,,,,,,,,,,,,,,,,,,,,,,,,,,,,,,,,,,,,,,,,,,,,,,,,,,,,,,,,,,,,,,,,,,,,,,,,,
,,5caad602a15c9800161ad6d3,2024-02-18_20h18.12.663,kallum_motion_pilot,2023.2.2,Win32,50.25125628,5caad602a15c9800161ad6d3,65d2b6c8f2eece985d8e374c,65d2b9c60cd6bbd3caa87785,0.0627,0.0627,0,2,2,67,1,twofour,,,,,,,,,,,,,,,,,,,,,,,,,,,,,,,,,,,,,,,,,,,,,,,,,,,,,,,,,,,,,,,,,,,,,,,,,,,,,,,,,,,,,,,,,,,,,,,,,,,,,,,,,,,,,,,,,,,,,,,,,,,,,,,,,,,,,,,,,
,,5caad602a15c9800161ad6d3,2024-02-18_20h18.12.663,kallum_motion_pilot,2023.2.2,Win32,50.25125628,5caad602a15c9800161ad6d3,65d2b6c8f2eece985d8e374c,65d2b9c60cd6bbd3caa87785,0.0631,0.0634,0,3,3,126,1,eightsix,,,,,,,,,,,,,,,,,,,,,,,,,,,,,,,,,,,,,,,,,,,,,,,,,,,,,,,,,,,,,,,,,,,,,,,,,,,,,,,,,,,,,,,,,,,,,,,,,,,,,,,,,,,,,,,,,,,,,,,,,,,,,,,,,,,,,,,,,
,,5caad602a15c9800161ad6d3,2024-02-18_20h18.12.663,kallum_motion_pilot,2023.2.2,Win32,50.25125628,5caad602a15c9800161ad6d3,65d2b6c8f2eece985d8e374c,65d2b9c60cd6bbd3caa87785,0.0637,0.0638,0,4,4,75,1,twofour,,,,,,,,,,,,,,,,,,,,,,,,,,,,,,,,,,,,,,,,,,,,,,,,,,,,,,,,,,,,,,,,,,,,,,,,,,,,,,,,,,,,,,,,,,,,,,,,,,,,,,,,,,,,,,,,,,,,,,,,,,,,,,,,,,,,,,,,,
,,5caad602a15c9800161ad6d3,2024-02-18_20h18.12.663,kallum_motion_pilot,2023.2.2,Win32,50.25125628,5caad602a15c9800161ad6d3,65d2b6c8f2eece985d8e374c,65d2b9c60cd6bbd3caa87785,0.0641,0.0642,0,5,5,106,1,sixfive,,,,,,,,,,,,,,,,,,,,,,,,,,,,,,,,,,,,,,,,,,,,,,,,,,,,,,,,,,,,,,,,,,,,,,,,,,,,,,,,,,,,,,,,,,,,,,,,,,,,,,,,,,,,,,,,,,,,,,,,,,,,,,,,,,,,,,,,,
,,5caad602a15c9800161ad6d3,2024-02-18_20h18.12.663,kallum_motion_pilot,2023.2.2,Win32,50.25125628,5caad602a15c9800161ad6d3,65d2b6c8f2eece985d8e374c,65d2b9c60cd6bbd3caa87785,0.0645,0.0646,0,6,6,36,1,threeone,,,,,,,,,,,,,,,,,,,,,,,,,,,,,,,,,,,,,,,,,,,,,,,,,,,,,,,,,,,,,,,,,,,,,,,,,,,,,,,,,,,,,,,,,,,,,,,,,,,,,,,,,,,,,,,,,,,,,,,,,,,,,,,,,,,,,,,,,
,,5caad602a15c9800161ad6d3,2024-02-18_20h18.12.663,kallum_motion_pilot,2023.2.2,Win32,50.25125628,5caad602a15c9800161ad6d3,65d2b6c8f2eece985d8e374c,65d2b9c60cd6bbd3caa87785,0.0649,0.065,0,7,7,53,1,threefour,,,,,,,,,,,,,,,,,,,,,,,,,,,,,,,,,,,,,,,,,,,,,,,,,,,,,,,,,,,,,,,,,,,,,,,,,,,,,,,,,,,,,,,,,,,,,,,,,,,,,,,,,,,,,,,,,,,,,,,,,,,,,,,,,,,,,,,,,
,,5caad602a15c9800161ad6d3,2024-02-18_20h18.12.663,kallum_motion_pilot,2023.2.2,Win32,50.25125628,5caad602a15c9800161ad6d3,65d2b6c8f2eece985d8e374c,65d2b9c60cd6bbd3caa87785,0.0653,0.0654,0,8,8,66,1,twoone,,,,,,,,,,,,,,,,,,,,,,,,,,,,,,,,,,,,,,,,,,,,,,,,,,,,,,,,,,,,,,,,,,,,,,,,,,,,,,,,,,,,,,,,,,,,,,,,,,,,,,,,,,,,,,,,,,,,,,,,,,,,,,,,,,,,,,,,,
,,5caad602a15c9800161ad6d3,2024-02-18_20h18.12.663,kallum_motion_pilot,2023.2.2,Win32,50.25125628,5caad602a15c9800161ad6d3,65d2b6c8f2eece985d8e374c,65d2b9c60cd6bbd3caa87785,0.0657,0.0657,0,9,9,100,1,sevenfive,,,,,,,,,,,,,,,,,,,,,,,,,,,,,,,,,,,,,,,,,,,,,,,,,,,,,,,,,,,,,,,,,,,,,,,,,,,,,,,,,,,,,,,,,,,,,,,,,,,,,,,,,,,,,,,,,,,,,,,,,,,,,,,,,,,,,,,,,
,,5caad602a15c9800161ad6d3,2024-02-18_20h18.12.663,kallum_motion_pilot,2023.2.2,Win32,50.25125628,5caad602a15c9800161ad6d3,65d2b6c8f2eece985d8e374c,65d2b9c60cd6bbd3caa87785,0.066,0.0661,0,10,10,153,1,fiveseven,,,,,,,,,,,,,,,,,,,,,,,,,,,,,,,,,,,,,,,,,,,,,,,,,,,,,,,,,,,,,,,,,,,,,,,,,,,,,,,,,,,,,,,,,,,,,,,,,,,,,,,,,,,,,,,,,,,,,,,,,,,,,,,,,,,,,,,,,
,,5caad602a15c9800161ad6d3,2024-02-18_20h18.12.663,kallum_motion_pilot,2023.2.2,Win32,50.25125628,5caad602a15c9800161ad6d3,65d2b6c8f2eece985d8e374c,65d2b9c60cd6bbd3caa87785,0.0664,0.0665,0,11,11,139,1,sixeight,,,,,,,,,,,,,,,,,,,,,,,,,,,,,,,,,,,,,,,,,,,,,,,,,,,,,,,,,,,,,,,,,,,,,,,,,,,,,,,,,,,,,,,,,,,,,,,,,,,,,,,,,,,,,,,,,,,,,,,,,,,,,,,,,,,,,,,,,
,,5caad602a15c9800161ad6d3,2024-02-18_20h18.12.663,kallum_motion_pilot,2023.2.2,Win32,50.25125628,5caad602a15c9800161ad6d3,65d2b6c8f2eece985d8e374c,65d2b9c60cd6bbd3caa87785,0.0668,0.0669,0,12,12,43,1,twofour,,,,,,,,,,,,,,,,,,,,,,,,,,,,,,,,,,,,,,,,,,,,,,,,,,,,,,,,,,,,,,,,,,,,,,,,,,,,,,,,,,,,,,,,,,,,,,,,,,,,,,,,,,,,,,,,,,,,,,,,,,,,,,,,,,,,,,,,,
,,5caad602a15c9800161ad6d3,2024-02-18_20h18.12.663,kallum_motion_pilot,2023.2.2,Win32,50.25125628,5caad602a15c9800161ad6d3,65d2b6c8f2eece985d8e374c,65d2b9c60cd6bbd3caa87785,0.0671,0.0672,0,13,13,80,1,fivesix,,,,,,,,,,,,,,,,,,,,,,,,,,,,,,,,,,,,,,,,,,,,,,,,,,,,,,,,,,,,,,,,,,,,,,,,,,,,,,,,,,,,,,,,,,,,,,,,,,,,,,,,,,,,,,,,,,,,,,,,,,,,,,,,,,,,,,,,,
,,5caad602a15c9800161ad6d3,2024-02-18_20h18.12.663,kallum_motion_pilot,2023.2.2,Win32,50.25125628,5caad602a15c9800161ad6d3,65d2b6c8f2eece985d8e374c,65d2b9c60cd6bbd3caa87785,0.0676,0.0677,0,14,14,154,1,sixfive,,,,,,,,,,,,,,,,,,,,,,,,,,,,,,,,,,,,,,,,,,,,,,,,,,,,,,,,,,,,,,,,,,,,,,,,,,,,,,,,,,,,,,,,,,,,,,,,,,,,,,,,,,,,,,,,,,,,,,,,,,,,,,,,,,,,,,,,,
,,5caad602a15c9800161ad6d3,2024-02-18_20h18.12.663,kallum_motion_pilot,2023.2.2,Win32,50.25125628,5caad602a15c9800161ad6d3,65d2b6c8f2eece985d8e374c,65d2b9c60cd6bbd3caa87785,0.0679,0.068,0,15,15,42,1,twoone,,,,,,,,,,,,,,,,,,,,,,,,,,,,,,,,,,,,,,,,,,,,,,,,,,,,,,,,,,,,,,,,,,,,,,,,,,,,,,,,,,,,,,,,,,,,,,,,,,,,,,,,,,,,,,,,,,,,,,,,,,,,,,,,,,,,,,,,,
,,5caad602a15c9800161ad6d3,2024-02-18_20h18.12.663,kallum_motion_pilot,2023.2.2,Win32,50.25125628,5caad602a15c9800161ad6d3,65d2b6c8f2eece985d8e374c,65d2b9c60cd6bbd3caa87785,0.0684,0.0684,0,16,16,111,1,eightseven,,,,,,,,,,,,,,,,,,,,,,,,,,,,,,,,,,,,,,,,,,,,,,,,,,,,,,,,,,,,,,,,,,,,,,,,,,,,,,,,,,,,,,,,,,,,,,,,,,,,,,,,,,,,,,,,,,,,,,,,,,,,,,,,,,,,,,,,,
,,5caad602a15c9800161ad6d3,2024-02-18_20h18.12.663,kallum_motion_pilot,2023.2.2,Win32,50.25125628,5caad602a15c9800161ad6d3,65d2b6c8f2eece985d8e374c,65d2b9c60cd6bbd3caa87785,0.0688,0.0688,0,17,17,133,1,seveneight,,,,,,,,,,,,,,,,,,,,,,,,,,,,,,,,,,,,,,,,,,,,,,,,,,,,,,,,,,,,,,,,,,,,,,,,,,,,,,,,,,,,,,,,,,,,,,,,,,,,,,,,,,,,,,,,,,,,,,,,,,,,,,,,,,,,,,,,,
,,5caad602a15c9800161ad6d3,2024-02-18_20h18.12.663,kallum_motion_pilot,2023.2.2,Win32,50.25125628,5caad602a15c9800161ad6d3,65d2b6c8f2eece985d8e374c,65d2b9c60cd6bbd3caa87785,0.0691,0.0691,0,18,18,107,1,sixeight,,,,,,,,,,,,,,,,,,,,,,,,,,,,,,,,,,,,,,,,,,,,,,,,,,,,,,,,,,,,,,,,,,,,,,,,,,,,,,,,,,,,,,,,,,,,,,,,,,,,,,,,,,,,,,,,,,,,,,,,,,,,,,,,,,,,,,,,,
,,5caad602a15c9800161ad6d3,2024-02-18_20h18.12.663,kallum_motion_pilot,2023.2.2,Win32,50.25125628,5caad602a15c9800161ad6d3,65d2b6c8f2eece985d8e374c,65d2b9c60cd6bbd3caa87785,0.0694,0.0695,0,19,19,116,1,sevenfive,,,,,,,,,,,,,,,,,,,,,,,,,,,,,,,,,,,,,,,,,,,,,,,,,,,,,,,,,,,,,,,,,,,,,,,,,,,,,,,,,,,,,,,,,,,,,,,,,,,,,,,,,,,,,,,,,,,,,,,,,,,,,,,,,,,,,,,,,
,,5caad602a15c9800161ad6d3,2024-02-18_20h18.12.663,kallum_motion_pilot,2023.2.2,Win32,50.25125628,5caad602a15c9800161ad6d3,65d2b6c8f2eece985d8e374c,65d2b9c60cd6bbd3caa87785,0.0698,0.0699,0,20,20,147,1,sixeight,,,,,,,,,,,,,,,,,,,,,,,,,,,,,,,,,,,,,,,,,,,,,,,,,,,,,,,,,,,,,,,,,,,,,,,,,,,,,,,,,,,,,,,,,,,,,,,,,,,,,,,,,,,,,,,,,,,,,,,,,,,,,,,,,,,,,,,,,
,,5caad602a15c9800161ad6d3,2024-02-18_20h18.12.663,kallum_motion_pilot,2023.2.2,Win32,50.25125628,5caad602a15c9800161ad6d3,65d2b6c8f2eece985d8e374c,65d2b9c60cd6bbd3caa87785,0.0701,0.0702,0,21,21,47,1,fourthree,,,,,,,,,,,,,,,,,,,,,,,,,,,,,,,,,,,,,,,,,,,,,,,,,,,,,,,,,,,,,,,,,,,,,,,,,,,,,,,,,,,,,,,,,,,,,,,,,,,,,,,,,,,,,,,,,,,,,,,,,,,,,,,,,,,,,,,,,
,,5caad602a15c9800161ad6d3,2024-02-18_20h18.12.663,kallum_motion_pilot,2023.2.2,Win32,50.25125628,5caad602a15c9800161ad6d3,65d2b6c8f2eece985d8e374c,65d2b9c60cd6bbd3caa87785,0.0704,0.0706,0,22,22,149,1,seveneight,,,,,,,,,,,,,,,,,,,,,,,,,,,,,,,,,,,,,,,,,,,,,,,,,,,,,,,,,,,,,,,,,,,,,,,,,,,,,,,,,,,,,,,,,,,,,,,,,,,,,,,,,,,,,,,,,,,,,,,,,,,,,,,,,,,,,,,,,
,,5caad602a15c9800161ad6d3,2024-02-18_20h18.12.663,kallum_motion_pilot,2023.2.2,Win32,50.25125628,5caad602a15c9800161ad6d3,65d2b6c8f2eece985d8e374c,65d2b9c60cd6bbd3caa87785,0.0707,0.0708,0,23,23,49,1,onethree,,,,,,,,,,,,,,,,,,,,,,,,,,,,,,,,,,,,,,,,,,,,,,,,,,,,,,,,,,,,,,,,,,,,,,,,,,,,,,,,,,,,,,,,,,,,,,,,,,,,,,,,,,,,,,,,,,,,,,,,,,,,,,,,,,,,,,,,,
,,5caad602a15c9800161ad6d3,2024-02-18_20h18.12.663,kallum_motion_pilot,2023.2.2,Win32,50.25125628,5caad602a15c9800161ad6d3,65d2b6c8f2eece985d8e374c,65d2b9c60cd6bbd3caa87785,0.0712,0.0713,0,24,24,97,1,fiveseven,,,,,,,,,,,,,,,,,,,,,,,,,,,,,,,,,,,,,,,,,,,,,,,,,,,,,,,,,,,,,,,,,,,,,,,,,,,,,,,,,,,,,,,,,,,,,,,,,,,,,,,,,,,,,,,,,,,,,,,,,,,,,,,,,,,,,,,,,
,,5caad602a15c9800161ad6d3,2024-02-18_20h18.12.663,kallum_motion_pilot,2023.2.2,Win32,50.25125628,5caad602a15c9800161ad6d3,65d2b6c8f2eece985d8e374c,65d2b9c60cd6bbd3caa87785,0.0715,0.0716,0,25,25,102,1,eightsix,,,,,,,,,,,,,,,,,,,,,,,,,,,,,,,,,,,,,,,,,,,,,,,,,,,,,,,,,,,,,,,,,,,,,,,,,,,,,,,,,,,,,,,,,,,,,,,,,,,,,,,,,,,,,,,,,,,,,,,,,,,,,,,,,,,,,,,,,
,,5caad602a15c9800161ad6d3,2024-02-18_20h18.12.663,kallum_motion_pilot,2023.2.2,Win32,50.25125628,5caad602a15c9800161ad6d3,65d2b6c8f2eece985d8e374c,65d2b9c60cd6bbd3caa87785,0.0719,0.072,0,26,26,119,1,eightseven,,,,,,,,,,,,,,,,,,,,,,,,,,,,,,,,,,,,,,,,,,,,,,,,,,,,,,,,,,,,,,,,,,,,,,,,,,,,,,,,,,,,,,,,,,,,,,,,,,,,,,,,,,,,,,,,,,,,,,,,,,,,,,,,,,,,,,,,,
,,5caad602a15c9800161ad6d3,2024-02-18_20h18.12.663,kallum_motion_pilot,2023.2.2,Win32,50.25125628,5caad602a15c9800161ad6d3,65d2b6c8f2eece985d8e374c,65d2b9c60cd6bbd3caa87785,0.0723,0.0724,0,27,27,150,1,eightsix,,,,,,,,,,,,,,,,,,,,,,,,,,,,,,,,,,,,,,,,,,,,,,,,,,,,,,,,,,,,,,,,,,,,,,,,,,,,,,,,,,,,,,,,,,,,,,,,,,,,,,,,,,,,,,,,,,,,,,,,,,,,,,,,,,,,,,,,,
,,5caad602a15c9800161ad6d3,2024-02-18_20h18.12.663,kallum_motion_pilot,2023.2.2,Win32,50.25125628,5caad602a15c9800161ad6d3,65d2b6c8f2eece985d8e374c,65d2b9c60cd6bbd3caa87785,0.0727,0.0728,0,28,28,159,1,eightseven,,,,,,,,,,,,,,,,,,,,,,,,,,,,,,,,,,,,,,,,,,,,,,,,,,,,,,,,,,,,,,,,,,,,,,,,,,,,,,,,,,,,,,,,,,,,,,,,,,,,,,,,,,,,,,,,,,,,,,,,,,,,,,,,,,,,,,,,,
,,5caad602a15c9800161ad6d3,2024-02-18_20h18.12.663,kallum_motion_pilot,2023.2.2,Win32,50.25125628,5caad602a15c9800161ad6d3,65d2b6c8f2eece985d8e374c,65d2b9c60cd6bbd3caa87785,0.073,0.0731,0,29,29,55,1,fourthree,,,,,,,,,,,,,,,,,,,,,,,,,,,,,,,,,,,,,,,,,,,,,,,,,,,,,,,,,,,,,,,,,,,,,,,,,,,,,,,,,,,,,,,,,,,,,,,,,,,,,,,,,,,,,,,,,,,,,,,,,,,,,,,,,,,,,,,,,
,,5caad602a15c9800161ad6d3,2024-02-18_20h18.12.663,kallum_motion_pilot,2023.2.2,Win32,50.25125628,5caad602a15c9800161ad6d3,65d2b6c8f2eece985d8e374c,65d2b9c60cd6bbd3caa87785,0.0735,0.0735,0,30,30,63,1,fourthree,,,,,,,,,,,,,,,,,,,,,,,,,,,,,,,,,,,,,,,,,,,,,,,,,,,,,,,,,,,,,,,,,,,,,,,,,,,,,,,,,,,,,,,,,,,,,,,,,,,,,,,,,,,,,,,,,,,,,,,,,,,,,,,,,,,,,,,,,
,,5caad602a15c9800161ad6d3,2024-02-18_20h18.12.663,kallum_motion_pilot,2023.2.2,Win32,50.25125628,5caad602a15c9800161ad6d3,65d2b6c8f2eece985d8e374c,65d2b9c60cd6bbd3caa87785,0.0739,0.074,0,31,31,88,1,fivesix,,,,,,,,,,,,,,,,,,,,,,,,,,,,,,,,,,,,,,,,,,,,,,,,,,,,,,,,,,,,,,,,,,,,,,,,,,,,,,,,,,,,,,,,,,,,,,,,,,,,,,,,,,,,,,,,,,,,,,,,,,,,,,,,,,,,,,,,,
,,5caad602a15c9800161ad6d3,2024-02-18_20h18.12.663,kallum_motion_pilot,2023.2.2,Win32,50.25125628,5caad602a15c9800161ad6d3,65d2b6c8f2eece985d8e374c,65d2b9c60cd6bbd3caa87785,0.0743,0.0745,0,32,32,82,1,sixfive,,,,,,,,,,,,,,,,,,,,,,,,,,,,,,,,,,,,,,,,,,,,,,,,,,,,,,,,,,,,,,,,,,,,,,,,,,,,,,,,,,,,,,,,,,,,,,,,,,,,,,,,,,,,,,,,,,,,,,,,,,,,,,,,,,,,,,,,,
,,5caad602a15c9800161ad6d3,2024-02-18_20h18.12.663,kallum_motion_pilot,2023.2.2,Win32,50.25125628,5caad602a15c9800161ad6d3,65d2b6c8f2eece985d8e374c,65d2b9c60cd6bbd3caa87785,0.0751,0.0752,0,33,33,1,1,onethree,,,,,,,,,,,,,,,,,,,,,,,,,,,,,,,,,,,,,,,,,,,,,,,,,,,,,,,,,,,,,,,,,,,,,,,,,,,,,,,,,,,,,,,,,,,,,,,,,,,,,,,,,,,,,,,,,,,,,,,,,,,,,,,,,,,,,,,,,
,,5caad602a15c9800161ad6d3,2024-02-18_20h18.12.663,kallum_motion_pilot,2023.2.2,Win32,50.25125628,5caad602a15c9800161ad6d3,65d2b6c8f2eece985d8e374c,65d2b9c60cd6bbd3caa87785,0.0755,0.0756,0,34,34,54,1,fourtwo,,,,,,,,,,,,,,,,,,,,,,,,,,,,,,,,,,,,,,,,,,,,,,,,,,,,,,,,,,,,,,,,,,,,,,,,,,,,,,,,,,,,,,,,,,,,,,,,,,,,,,,,,,,,,,,,,,,,,,,,,,,,,,,,,,,,,,,,,
,,5caad602a15c9800161ad6d3,2024-02-18_20h18.12.663,kallum_motion_pilot,2023.2.2,Win32,50.25125628,5caad602a15c9800161ad6d3,65d2b6c8f2eece985d8e374c,65d2b9c60cd6bbd3caa87785,0.0759,0.076,0,35,35,79,1,eightseven,,,,,,,,,,,,,,,,,,,,,,,,,,,,,,,,,,,,,,,,,,,,,,,,,,,,,,,,,,,,,,,,,,,,,,,,,,,,,,,,,,,,,,,,,,,,,,,,,,,,,,,,,,,,,,,,,,,,,,,,,,,,,,,,,,,,,,,,,
,,5caad602a15c9800161ad6d3,2024-02-18_20h18.12.663,kallum_motion_pilot,2023.2.2,Win32,50.25125628,5caad602a15c9800161ad6d3,65d2b6c8f2eece985d8e374c,65d2b9c60cd6bbd3caa87785,0.0765,0.0767,0,36,36,61,1,threefour,,,,,,,,,,,,,,,,,,,,,,,,,,,,,,,,,,,,,,,,,,,,,,,,,,,,,,,,,,,,,,,,,,,,,,,,,,,,,,,,,,,,,,,,,,,,,,,,,,,,,,,,,,,,,,,,,,,,,,,,,,,,,,,,,,,,,,,,,
,,5caad602a15c9800161ad6d3,2024-02-18_20h18.12.663,kallum_motion_pilot,2023.2.2,Win32,50.25125628,5caad602a15c9800161ad6d3,65d2b6c8f2eece985d8e374c,65d2b9c60cd6bbd3caa87785,0.077,0.0771,0,37,37,112,1,fivesix,,,,,,,,,,,,,,,,,,,,,,,,,,,,,,,,,,,,,,,,,,,,,,,,,,,,,,,,,,,,,,,,,,,,,,,,,,,,,,,,,,,,,,,,,,,,,,,,,,,,,,,,,,,,,,,,,,,,,,,,,,,,,,,,,,,,,,,,,
,,5caad602a15c9800161ad6d3,2024-02-18_20h18.12.663,kallum_motion_pilot,2023.2.2,Win32,50.25125628,5caad602a15c9800161ad6d3,65d2b6c8f2eece985d8e374c,65d2b9c60cd6bbd3caa87785,0.0774,0.0774,0,38,38,81,1,fiveseven,,,,,,,,,,,,,,,,,,,,,,,,,,,,,,,,,,,,,,,,,,,,,,,,,,,,,,,,,,,,,,,,,,,,,,,,,,,,,,,,,,,,,,,,,,,,,,,,,,,,,,,,,,,,,,,,,,,,,,,,,,,,,,,,,,,,,,,,,
,,5caad602a15c9800161ad6d3,2024-02-18_20h18.12.663,kallum_motion_pilot,2023.2.2,Win32,50.25125628,5caad602a15c9800161ad6d3,65d2b6c8f2eece985d8e374c,65d2b9c60cd6bbd3caa87785,0.0777,0.0779,0,39,39,128,1,fivesix,,,,,,,,,,,,,,,,,,,,,,,,,,,,,,,,,,,,,,,,,,,,,,,,,,,,,,,,,,,,,,,,,,,,,,,,,,,,,,,,,,,,,,,,,,,,,,,,,,,,,,,,,,,,,,,,,,,,,,,,,,,,,,,,,,,,,,,,,
,,5caad602a15c9800161ad6d3,2024-02-18_20h18.12.663,kallum_motion_pilot,2023.2.2,Win32,50.25125628,5caad602a15c9800161ad6d3,65d2b6c8f2eece985d8e374c,65d2b9c60cd6bbd3caa87785,0.0783,0.0783,0,40,40,14,1,fourtwo,,,,,,,,,,,,,,,,,,,,,,,,,,,,,,,,,,,,,,,,,,,,,,,,,,,,,,,,,,,,,,,,,,,,,,,,,,,,,,,,,,,,,,,,,,,,,,,,,,,,,,,,,,,,,,,,,,,,,,,,,,,,,,,,,,,,,,,,,
,,5caad602a15c9800161ad6d3,2024-02-18_20h18.12.663,kallum_motion_pilot,2023.2.2,Win32,50.25125628,5caad602a15c9800161ad6d3,65d2b6c8f2eece985d8e374c,65d2b9c60cd6bbd3caa87785,0.0786,0.0787,0,41,41,146,1,sixfive,,,,,,,,,,,,,,,,,,,,,,,,,,,,,,,,,,,,,,,,,,,,,,,,,,,,,,,,,,,,,,,,,,,,,,,,,,,,,,,,,,,,,,,,,,,,,,,,,,,,,,,,,,,,,,,,,,,,,,,,,,,,,,,,,,,,,,,,,
,,5caad602a15c9800161ad6d3,2024-02-18_20h18.12.663,kallum_motion_pilot,2023.2.2,Win32,50.25125628,5caad602a15c9800161ad6d3,65d2b6c8f2eece985d8e374c,65d2b9c60cd6bbd3caa87785,0.0791,0.0793,0,42,42,9,1,onethree,,,,,,,,,,,,,,,,,,,,,,,,,,,,,,,,,,,,,,,,,,,,,,,,,,,,,,,,,,,,,,,,,,,,,,,,,,,,,,,,,,,,,,,,,,,,,,,,,,,,,,,,,,,,,,,,,,,,,,,,,,,,,,,,,,,,,,,,,
,,5caad602a15c9800161ad6d3,2024-02-18_20h18.12.663,kallum_motion_pilot,2023.2.2,Win32,50.25125628,5caad602a15c9800161ad6d3,65d2b6c8f2eece985d8e374c,65d2b9c60cd6bbd3caa87785,0.0796,0.0798,0,43,43,156,1,sevenfive,,,,,,,,,,,,,,,,,,,,,,,,,,,,,,,,,,,,,,,,,,,,,,,,,,,,,,,,,,,,,,,,,,,,,,,,,,,,,,,,,,,,,,,,,,,,,,,,,,,,,,,,,,,,,,,,,,,,,,,,,,,,,,,,,,,,,,,,,
,,5caad602a15c9800161ad6d3,2024-02-18_20h18.12.663,kallum_motion_pilot,2023.2.2,Win32,50.25125628,5caad602a15c9800161ad6d3,65d2b6c8f2eece985d8e374c,65d2b9c60cd6bbd3caa87785,0.08,0.0801,0,44,44,65,1,onethree,,,,,,,,,,,,,,,,,,,,,,,,,,,,,,,,,,,,,,,,,,,,,,,,,,,,,,,,,,,,,,,,,,,,,,,,,,,,,,,,,,,,,,,,,,,,,,,,,,,,,,,,,,,,,,,,,,,,,,,,,,,,,,,,,,,,,,,,,
,,5caad602a15c9800161ad6d3,2024-02-18_20h18.12.663,kallum_motion_pilot,2023.2.2,Win32,50.25125628,5caad602a15c9800161ad6d3,65d2b6c8f2eece985d8e374c,65d2b9c60cd6bbd3caa87785,0.0804,0.0805,0,45,45,91,1,sixeight,,,,,,,,,,,,,,,,,,,,,,,,,,,,,,,,,,,,,,,,,,,,,,,,,,,,,,,,,,,,,,,,,,,,,,,,,,,,,,,,,,,,,,,,,,,,,,,,,,,,,,,,,,,,,,,,,,,,,,,,,,,,,,,,,,,,,,,,,
,,5caad602a15c9800161ad6d3,2024-02-18_20h18.12.663,kallum_motion_pilot,2023.2.2,Win32,50.25125628,5caad602a15c9800161ad6d3,65d2b6c8f2eece985d8e374c,65d2b9c60cd6bbd3caa87785,0.0808,0.0809,0,46,46,69,1,threefour,,,,,,,,,,,,,,,,,,,,,,,,,,,,,,,,,,,,,,,,,,,,,,,,,,,,,,,,,,,,,,,,,,,,,,,,,,,,,,,,,,,,,,,,,,,,,,,,,,,,,,,,,,,,,,,,,,,,,,,,,,,,,,,,,,,,,,,,,
,,5caad602a15c9800161ad6d3,2024-02-18_20h18.12.663,kallum_motion_pilot,2023.2.2,Win32,50.25125628,5caad602a15c9800161ad6d3,65d2b6c8f2eece985d8e374c,65d2b9c60cd6bbd3caa87785,0.0817,0.0818,0,47,47,151,1,eightseven,,,,,,,,,,,,,,,,,,,,,,,,,,,,,,,,,,,,,,,,,,,,,,,,,,,,,,,,,,,,,,,,,,,,,,,,,,,,,,,,,,,,,,,,,,,,,,,,,,,,,,,,,,,,,,,,,,,,,,,,,,,,,,,,,,,,,,,,,
,,5caad602a15c9800161ad6d3,2024-02-18_20h18.12.663,kallum_motion_pilot,2023.2.2,Win32,50.25125628,5caad602a15c9800161ad6d3,65d2b6c8f2eece985d8e374c,65d2b9c60cd6bbd3caa87785,0.0823,0.0824,0,48,48,118,1,eightsix,,,,,,,,,,,,,,,,,,,,,,,,,,,,,,,,,,,,,,,,,,,,,,,,,,,,,,,,,,,,,,,,,,,,,,,,,,,,,,,,,,,,,,,,,,,,,,,,,,,,,,,,,,,,,,,,,,,,,,,,,,,,,,,,,,,,,,,,,
,,5caad602a15c9800161ad6d3,2024-02-18_20h18.12.663,kallum_motion_pilot,2023.2.2,Win32,50.25125628,5caad602a15c9800161ad6d3,65d2b6c8f2eece985d8e374c,65d2b9c60cd6bbd3caa87785,0.0828,0.0829,0,49,49,33,1,onethree,,,,,,,,,,,,,,,,,,,,,,,,,,,,,,,,,,,,,,,,,,,,,,,,,,,,,,,,,,,,,,,,,,,,,,,,,,,,,,,,,,,,,,,,,,,,,,,,,,,,,,,,,,,,,,,,,,,,,,,,,,,,,,,,,,,,,,,,,
,,5caad602a15c9800161ad6d3,2024-02-18_20h18.12.663,kallum_motion_pilot,2023.2.2,Win32,50.25125628,5caad602a15c9800161ad6d3,65d2b6c8f2eece985d8e374c,65d2b9c60cd6bbd3caa87785,0.0833,0.0834,0,50,50,93,1,seveneight,,,,,,,,,,,,,,,,,,,,,,,,,,,,,,,,,,,,,,,,,,,,,,,,,,,,,,,,,,,,,,,,,,,,,,,,,,,,,,,,,,,,,,,,,,,,,,,,,,,,,,,,,,,,,,,,,,,,,,,,,,,,,,,,,,,,,,,,,
,,5caad602a15c9800161ad6d3,2024-02-18_20h18.12.663,kallum_motion_pilot,2023.2.2,Win32,50.25125628,5caad602a15c9800161ad6d3,65d2b6c8f2eece985d8e374c,65d2b9c60cd6bbd3caa87785,0.0836,0.0838,0,51,51,37,1,threefour,,,,,,,,,,,,,,,,,,,,,,,,,,,,,,,,,,,,,,,,,,,,,,,,,,,,,,,,,,,,,,,,,,,,,,,,,,,,,,,,,,,,,,,,,,,,,,,,,,,,,,,,,,,,,,,,,,,,,,,,,,,,,,,,,,,,,,,,,
,,5caad602a15c9800161ad6d3,2024-02-18_20h18.12.663,kallum_motion_pilot,2023.2.2,Win32,50.25125628,5caad602a15c9800161ad6d3,65d2b6c8f2eece985d8e374c,65d2b9c60cd6bbd3caa87785,0.084,0.0842,0,52,52,161,1,fiveseven,,,,,,,,,,,,,,,,,,,,,,,,,,,,,,,,,,,,,,,,,,,,,,,,,,,,,,,,,,,,,,,,,,,,,,,,,,,,,,,,,,,,,,,,,,,,,,,,,,,,,,,,,,,,,,,,,,,,,,,,,,,,,,,,,,,,,,,,,
,,5caad602a15c9800161ad6d3,2024-02-18_20h18.12.663,kallum_motion_pilot,2023.2.2,Win32,50.25125628,5caad602a15c9800161ad6d3,65d2b6c8f2eece985d8e374c,65d2b9c60cd6bbd3caa87785,0.0844,0.0844,0,53,53,140,1,sevenfive,,,,,,,,,,,,,,,,,,,,,,,,,,,,,,,,,,,,,,,,,,,,,,,,,,,,,,,,,,,,,,,,,,,,,,,,,,,,,,,,,,,,,,,,,,,,,,,,,,,,,,,,,,,,,,,,,,,,,,,,,,,,,,,,,,,,,,,,,
,,5caad602a15c9800161ad6d3,2024-02-18_20h18.12.663,kallum_motion_pilot,2023.2.2,Win32,50.25125628,5caad602a15c9800161ad6d3,65d2b6c8f2eece985d8e374c,65d2b9c60cd6bbd3caa87785,0.0847,0.0848,0,54,54,57,1,onethree,,,,,,,,,,,,,,,,,,,,,,,,,,,,,,,,,,,,,,,,,,,,,,,,,,,,,,,,,,,,,,,,,,,,,,,,,,,,,,,,,,,,,,,,,,,,,,,,,,,,,,,,,,,,,,,,,,,,,,,,,,,,,,,,,,,,,,,,,
,,5caad602a15c9800161ad6d3,2024-02-18_20h18.12.663,kallum_motion_pilot,2023.2.2,Win32,50.25125628,5caad602a15c9800161ad6d3,65d2b6c8f2eece985d8e374c,65d2b9c60cd6bbd3caa87785,0.0851,0.0851,0,55,55,143,1,eightseven,,,,,,,,,,,,,,,,,,,,,,,,,,,,,,,,,,,,,,,,,,,,,,,,,,,,,,,,,,,,,,,,,,,,,,,,,,,,,,,,,,,,,,,,,,,,,,,,,,,,,,,,,,,,,,,,,,,,,,,,,,,,,,,,,,,,,,,,,
,,5caad602a15c9800161ad6d3,2024-02-18_20h18.12.663,kallum_motion_pilot,2023.2.2,Win32,50.25125628,5caad602a15c9800161ad6d3,65d2b6c8f2eece985d8e374c,65d2b9c60cd6bbd3caa87785,0.0854,0.0855,0,56,56,73,1,onethree,,,,,,,,,,,,,,,,,,,,,,,,,,,,,,,,,,,,,,,,,,,,,,,,,,,,,,,,,,,,,,,,,,,,,,,,,,,,,,,,,,,,,,,,,,,,,,,,,,,,,,,,,,,,,,,,,,,,,,,,,,,,,,,,,,,,,,,,,
,,5caad602a15c9800161ad6d3,2024-02-18_20h18.12.663,kallum_motion_pilot,2023.2.2,Win32,50.25125628,5caad602a15c9800161ad6d3,65d2b6c8f2eece985d8e374c,65d2b9c60cd6bbd3caa87785,0.0857,0.0858,0,57,57,44,1,threeone,,,,,,,,,,,,,,,,,,,,,,,,,,,,,,,,,,,,,,,,,,,,,,,,,,,,,,,,,,,,,,,,,,,,,,,,,,,,,,,,,,,,,,,,,,,,,,,,,,,,,,,,,,,,,,,,,,,,,,,,,,,,,,,,,,,,,,,,,
,,5caad602a15c9800161ad6d3,2024-02-18_20h18.12.663,kallum_motion_pilot,2023.2.2,Win32,50.25125628,5caad602a15c9800161ad6d3,65d2b6c8f2eece985d8e374c,65d2b9c60cd6bbd3caa87785,0.0875,0.0876,0,58,58,60,1,threeone,,,,,,,,,,,,,,,,,,,,,,,,,,,,,,,,,,,,,,,,,,,,,,,,,,,,,,,,,,,,,,,,,,,,,,,,,,,,,,,,,,,,,,,,,,,,,,,,,,,,,,,,,,,,,,,,,,,,,,,,,,,,,,,,,,,,,,,,,
,,5caad602a15c9800161ad6d3,2024-02-18_20h18.12.663,kallum_motion_pilot,2023.2.2,Win32,50.25125628,5caad602a15c9800161ad6d3,65d2b6c8f2eece985d8e374c,65d2b9c60cd6bbd3caa87785,0.0879,0.088,0,59,59,121,1,fiveseven,,,,,,,,,,,,,,,,,,,,,,,,,,,,,,,,,,,,,,,,,,,,,,,,,,,,,,,,,,,,,,,,,,,,,,,,,,,,,,,,,,,,,,,,,,,,,,,,,,,,,,,,,,,,,,,,,,,,,,,,,,,,,,,,,,,,,,,,,
,,5caad602a15c9800161ad6d3,2024-02-18_20h18.12.663,kallum_motion_pilot,2023.2.2,Win32,50.25125628,5caad602a15c9800161ad6d3,65d2b6c8f2eece985d8e374c,65d2b9c60cd6bbd3caa87785,0.0883,0.0883,0,60,60,108,1,sevenfive,,,,,,,,,,,,,,,,,,,,,,,,,,,,,,,,,,,,,,,,,,,,,,,,,,,,,,,,,,,,,,,,,,,,,,,,,,,,,,,,,,,,,,,,,,,,,,,,,,,,,,,,,,,,,,,,,,,,,,,,,,,,,,,,,,,,,,,,,
,,5caad602a15c9800161ad6d3,2024-02-18_20h18.12.663,kallum_motion_pilot,2023.2.2,Win32,50.25125628,5caad602a15c9800161ad6d3,65d2b6c8f2eece985d8e374c,65d2b9c60cd6bbd3caa87785,0.0886,0.0887,0,61,61,132,1,sevenfive,,,,,,,,,,,,,,,,,,,,,,,,,,,,,,,,,,,,,,,,,,,,,,,,,,,,,,,,,,,,,,,,,,,,,,,,,,,,,,,,,,,,,,,,,,,,,,,,,,,,,,,,,,,,,,,,,,,,,,,,,,,,,,,,,,,,,,,,,
,,5caad602a15c9800161ad6d3,2024-02-18_20h18.12.663,kallum_motion_pilot,2023.2.2,Win32,50.25125628,5caad602a15c9800161ad6d3,65d2b6c8f2eece985d8e374c,65d2b9c60cd6bbd3caa87785,0.0889,0.0891,0,62,62,160,1,fivesix,,,,,,,,,,,,,,,,,,,,,,,,,,,,,,,,,,,,,,,,,,,,,,,,,,,,,,,,,,,,,,,,,,,,,,,,,,,,,,,,,,,,,,,,,,,,,,,,,,,,,,,,,,,,,,,,,,,,,,,,,,,,,,,,,,,,,,,,,
,,5caad602a15c9800161ad6d3,2024-02-18_20h18.12.663,kallum_motion_pilot,2023.2.2,Win32,50.25125628,5caad602a15c9800161ad6d3,65d2b6c8f2eece985d8e374c,65d2b9c60cd6bbd3caa87785,0.0894,0.0896,0,63,63,11,1,twofour,,,,,,,,,,,,,,,,,,,,,,,,,,,,,,,,,,,,,,,,,,,,,,,,,,,,,,,,,,,,,,,,,,,,,,,,,,,,,,,,,,,,,,,,,,,,,,,,,,,,,,,,,,,,,,,,,,,,,,,,,,,,,,,,,,,,,,,,,
,,5caad602a15c9800161ad6d3,2024-02-18_20h18.12.663,kallum_motion_pilot,2023.2.2,Win32,50.25125628,5caad602a15c9800161ad6d3,65d2b6c8f2eece985d8e374c,65d2b9c60cd6bbd3caa87785,0.09,0.0902,0,64,64,24,1,onetwo,,,,,,,,,,,,,,,,,,,,,,,,,,,,,,,,,,,,,,,,,,,,,,,,,,,,,,,,,,,,,,,,,,,,,,,,,,,,,,,,,,,,,,,,,,,,,,,,,,,,,,,,,,,,,,,,,,,,,,,,,,,,,,,,,,,,,,,,,
,,5caad602a15c9800161ad6d3,2024-02-18_20h18.12.663,kallum_motion_pilot,2023.2.2,Win32,50.25125628,5caad602a15c9800161ad6d3,65d2b6c8f2eece985d8e374c,65d2b9c60cd6bbd3caa87785,0.0905,0.0906,0,65,65,86,1,eightsix,,,,,,,,,,,,,,,,,,,,,,,,,,,,,,,,,,,,,,,,,,,,,,,,,,,,,,,,,,,,,,,,,,,,,,,,,,,,,,,,,,,,,,,,,,,,,,,,,,,,,,,,,,,,,,,,,,,,,,,,,,,,,,,,,,,,,,,,,
,,5caad602a15c9800161ad6d3,2024-02-18_20h18.12.663,kallum_motion_pilot,2023.2.2,Win32,50.25125628,5caad602a15c9800161ad6d3,65d2b6c8f2eece985d8e374c,65d2b9c60cd6bbd3caa87785,0.0909,0.091,0,66,66,96,1,fivesix,,,,,,,,,,,,,,,,,,,,,,,,,,,,,,,,,,,,,,,,,,,,,,,,,,,,,,,,,,,,,,,,,,,,,,,,,,,,,,,,,,,,,,,,,,,,,,,,,,,,,,,,,,,,,,,,,,,,,,,,,,,,,,,,,,,,,,,,,
,,5caad602a15c9800161ad6d3,2024-02-18_20h18.12.663,kallum_motion_pilot,2023.2.2,Win32,50.25125628,5caad602a15c9800161ad6d3,65d2b6c8f2eece985d8e374c,65d2b9c60cd6bbd3caa87785,0.0912,0.0913,0,67,67,114,1,sixfive,,,,,,,,,,,,,,,,,,,,,,,,,,,,,,,,,,,,,,,,,,,,,,,,,,,,,,,,,,,,,,,,,,,,,,,,,,,,,,,,,,,,,,,,,,,,,,,,,,,,,,,,,,,,,,,,,,,,,,,,,,,,,,,,,,,,,,,,,
,,5caad602a15c9800161ad6d3,2024-02-18_20h18.12.663,kallum_motion_pilot,2023.2.2,Win32,50.25125628,5caad602a15c9800161ad6d3,65d2b6c8f2eece985d8e374c,65d2b9c60cd6bbd3caa87785,0.0916,0.0917,0,68,68,142,1,eightsix,,,,,,,,,,,,,,,,,,,,,,,,,,,,,,,,,,,,,,,,,,,,,,,,,,,,,,,,,,,,,,,,,,,,,,,,,,,,,,,,,,,,,,,,,,,,,,,,,,,,,,,,,,,,,,,,,,,,,,,,,,,,,,,,,,,,,,,,,
,,5caad602a15c9800161ad6d3,2024-02-18_20h18.12.663,kallum_motion_pilot,2023.2.2,Win32,50.25125628,5caad602a15c9800161ad6d3,65d2b6c8f2eece985d8e374c,65d2b9c60cd6bbd3caa87785,0.0919,0.092,0,69,69,78,1,fourtwo,,,,,,,,,,,,,,,,,,,,,,,,,,,,,,,,,,,,,,,,,,,,,,,,,,,,,,,,,,,,,,,,,,,,,,,,,,,,,,,,,,,,,,,,,,,,,,,,,,,,,,,,,,,,,,,,,,,,,,,,,,,,,,,,,,,,,,,,,
,,5caad602a15c9800161ad6d3,2024-02-18_20h18.12.663,kallum_motion_pilot,2023.2.2,Win32,50.25125628,5caad602a15c9800161ad6d3,65d2b6c8f2eece985d8e374c,65d2b9c60cd6bbd3caa87785,0.0922,0.0923,0,70,70,72,1,onetwo,,,,,,,,,,,,,,,,,,,,,,,,,,,,,,,,,,,,,,,,,,,,,,,,,,,,,,,,,,,,,,,,,,,,,,,,,,,,,,,,,,,,,,,,,,,,,,,,,,,,,,,,,,,,,,,,,,,,,,,,,,,,,,,,,,,,,,,,,
,,5caad602a15c9800161ad6d3,2024-02-18_20h18.12.663,kallum_motion_pilot,2023.2.2,Win32,50.25125628,5caad602a15c9800161ad6d3,65d2b6c8f2eece985d8e374c,65d2b9c60cd6bbd3caa87785,0.0927,0.0928,0,71,71,152,1,fivesix,,,,,,,,,,,,,,,,,,,,,,,,,,,,,,,,,,,,,,,,,,,,,,,,,,,,,,,,,,,,,,,,,,,,,,,,,,,,,,,,,,,,,,,,,,,,,,,,,,,,,,,,,,,,,,,,,,,,,,,,,,,,,,,,,,,,,,,,,
,,5caad602a15c9800161ad6d3,2024-02-18_20h18.12.663,kallum_motion_pilot,2023.2.2,Win32,50.25125628,5caad602a15c9800161ad6d3,65d2b6c8f2eece985d8e374c,65d2b9c60cd6bbd3caa87785,0.0931,0.0932,0,72,72,115,1,sixeight,,,,,,,,,,,,,,,,,,,,,,,,,,,,,,,,,,,,,,,,,,,,,,,,,,,,,,,,,,,,,,,,,,,,,,,,,,,,,,,,,,,,,,,,,,,,,,,,,,,,,,,,,,,,,,,,,,,,,,,,,,,,,,,,,,,,,,,,,
,,5caad602a15c9800161ad6d3,2024-02-18_20h18.12.663,kallum_motion_pilot,2023.2.2,Win32,50.25125628,5caad602a15c9800161ad6d3,65d2b6c8f2eece985d8e374c,65d2b9c60cd6bbd3caa87785,0.0935,0.0935,0,73,73,125,1,seveneight,,,,,,,,,,,,,,,,,,,,,,,,,,,,,,,,,,,,,,,,,,,,,,,,,,,,,,,,,,,,,,,,,,,,,,,,,,,,,,,,,,,,,,,,,,,,,,,,,,,,,,,,,,,,,,,,,,,,,,,,,,,,,,,,,,,,,,,,,
,,5caad602a15c9800161ad6d3,2024-02-18_20h18.12.663,kallum_motion_pilot,2023.2.2,Win32,50.25125628,5caad602a15c9800161ad6d3,65d2b6c8f2eece985d8e374c,65d2b9c60cd6bbd3caa87785,0.0938,0.0939,0,74,74,29,1,threefour,,,,,,,,,,,,,,,,,,,,,,,,,,,,,,,,,,,,,,,,,,,,,,,,,,,,,,,,,,,,,,,,,,,,,,,,,,,,,,,,,,,,,,,,,,,,,,,,,,,,,,,,,,,,,,,,,,,,,,,,,,,,,,,,,,,,,,,,,
,,5caad602a15c9800161ad6d3,2024-02-18_20h18.12.663,kallum_motion_pilot,2023.2.2,Win32,50.25125628,5caad602a15c9800161ad6d3,65d2b6c8f2eece985d8e374c,65d2b9c60cd6bbd3caa87785,0.0942,0.0944,0,75,75,83,1,sixeight,,,,,,,,,,,,,,,,,,,,,,,,,,,,,,,,,,,,,,,,,,,,,,,,,,,,,,,,,,,,,,,,,,,,,,,,,,,,,,,,,,,,,,,,,,,,,,,,,,,,,,,,,,,,,,,,,,,,,,,,,,,,,,,,,,,,,,,,,
,,5caad602a15c9800161ad6d3,2024-02-18_20h18.12.663,kallum_motion_pilot,2023.2.2,Win32,50.25125628,5caad602a15c9800161ad6d3,65d2b6c8f2eece985d8e374c,65d2b9c60cd6bbd3caa87785,0.0947,0.0948,0,76,76,3,1,twofour,,,,,,,,,,,,,,,,,,,,,,,,,,,,,,,,,,,,,,,,,,,,,,,,,,,,,,,,,,,,,,,,,,,,,,,,,,,,,,,,,,,,,,,,,,,,,,,,,,,,,,,,,,,,,,,,,,,,,,,,,,,,,,,,,,,,,,,,,
,,5caad602a15c9800161ad6d3,2024-02-18_20h18.12.663,kallum_motion_pilot,2023.2.2,Win32,50.25125628,5caad602a15c9800161ad6d3,65d2b6c8f2eece985d8e374c,65d2b9c60cd6bbd3caa87785,0.0951,0.0952,0,77,77,70,1,fourtwo,,,,,,,,,,,,,,,,,,,,,,,,,,,,,,,,,,,,,,,,,,,,,,,,,,,,,,,,,,,,,,,,,,,,,,,,,,,,,,,,,,,,,,,,,,,,,,,,,,,,,,,,,,,,,,,,,,,,,,,,,,,,,,,,,,,,,,,,,
,,5caad602a15c9800161ad6d3,2024-02-18_20h18.12.663,kallum_motion_pilot,2023.2.2,Win32,50.25125628,5caad602a15c9800161ad6d3,65d2b6c8f2eece985d8e374c,65d2b9c60cd6bbd3caa87785,0.0955,0.0956,0,78,78,117,1,seveneight,,,,,,,,,,,,,,,,,,,,,,,,,,,,,,,,,,,,,,,,,,,,,,,,,,,,,,,,,,,,,,,,,,,,,,,,,,,,,,,,,,,,,,,,,,,,,,,,,,,,,,,,,,,,,,,,,,,,,,,,,,,,,,,,,,,,,,,,,
,,5caad602a15c9800161ad6d3,2024-02-18_20h18.12.663,kallum_motion_pilot,2023.2.2,Win32,50.25125628,5caad602a15c9800161ad6d3,65d2b6c8f2eece985d8e374c,65d2b9c60cd6bbd3caa87785,0.0958,0.096,0,79,79,68,1,threeone,,,,,,,,,,,,,,,,,,,,,,,,,,,,,,,,,,,,,,,,,,,,,,,,,,,,,,,,,,,,,,,,,,,,,,,,,,,,,,,,,,,,,,,,,,,,,,,,,,,,,,,,,,,,,,,,,,,,,,,,,,,,,,,,,,,,,,,,,
,,5caad602a15c9800161ad6d3,2024-02-18_20h18.12.663,kallum_motion_pilot,2023.2.2,Win32,50.25125628,5caad602a15c9800161ad6d3,65d2b6c8f2eece985d8e374c,65d2b9c60cd6bbd3caa87785,0.0961,0.0963,0,80,80,94,1,eightsix,,,,,,,,,,,,,,,,,,,,,,,,,,,,,,,,,,,,,,,,,,,,,,,,,,,,,,,,,,,,,,,,,,,,,,,,,,,,,,,,,,,,,,,,,,,,,,,,,,,,,,,,,,,,,,,,,,,,,,,,,,,,,,,,,,,,,,,,,
,,5caad602a15c9800161ad6d3,2024-02-18_20h18.12.663,kallum_motion_pilot,2023.2.2,Win32,50.25125628,5caad602a15c9800161ad6d3,65d2b6c8f2eece985d8e374c,65d2b9c60cd6bbd3caa87785,0.0966,0.0967,0,81,81,23,1,fourthree,,,,,,,,,,,,,,,,,,,,,,,,,,,,,,,,,,,,,,,,,,,,,,,,,,,,,,,,,,,,,,,,,,,,,,,,,,,,,,,,,,,,,,,,,,,,,,,,,,,,,,,,,,,,,,,,,,,,,,,,,,,,,,,,,,,,,,,,,
,,5caad602a15c9800161ad6d3,2024-02-18_20h18.12.663,kallum_motion_pilot,2023.2.2,Win32,50.25125628,5caad602a15c9800161ad6d3,65d2b6c8f2eece985d8e374c,65d2b9c60cd6bbd3caa87785,0.097,0.0971,0,82,82,50,1,twoone,,,,,,,,,,,,,,,,,,,,,,,,,,,,,,,,,,,,,,,,,,,,,,,,,,,,,,,,,,,,,,,,,,,,,,,,,,,,,,,,,,,,,,,,,,,,,,,,,,,,,,,,,,,,,,,,,,,,,,,,,,,,,,,,,,,,,,,,,
,,5caad602a15c9800161ad6d3,2024-02-18_20h18.12.663,kallum_motion_pilot,2023.2.2,Win32,50.25125628,5caad602a15c9800161ad6d3,65d2b6c8f2eece985d8e374c,65d2b9c60cd6bbd3caa87785,0.0974,0.0975,0,83,83,4,1,threeone,,,,,,,,,,,,,,,,,,,,,,,,,,,,,,,,,,,,,,,,,,,,,,,,,,,,,,,,,,,,,,,,,,,,,,,,,,,,,,,,,,,,,,,,,,,,,,,,,,,,,,,,,,,,,,,,,,,,,,,,,,,,,,,,,,,,,,,,,
,,5caad602a15c9800161ad6d3,2024-02-18_20h18.12.663,kallum_motion_pilot,2023.2.2,Win32,50.25125628,5caad602a15c9800161ad6d3,65d2b6c8f2eece985d8e374c,65d2b9c60cd6bbd3caa87785,0.0978,0.0979,0,84,84,21,1,threefour,,,,,,,,,,,,,,,,,,,,,,,,,,,,,,,,,,,,,,,,,,,,,,,,,,,,,,,,,,,,,,,,,,,,,,,,,,,,,,,,,,,,,,,,,,,,,,,,,,,,,,,,,,,,,,,,,,,,,,,,,,,,,,,,,,,,,,,,,
,,5caad602a15c9800161ad6d3,2024-02-18_20h18.12.663,kallum_motion_pilot,2023.2.2,Win32,50.25125628,5caad602a15c9800161ad6d3,65d2b6c8f2eece985d8e374c,65d2b9c60cd6bbd3caa87785,0.0981,0.0982,0,85,85,51,1,twofour,,,,,,,,,,,,,,,,,,,,,,,,,,,,,,,,,,,,,,,,,,,,,,,,,,,,,,,,,,,,,,,,,,,,,,,,,,,,,,,,,,,,,,,,,,,,,,,,,,,,,,,,,,,,,,,,,,,,,,,,,,,,,,,,,,,,,,,,,
,,5caad602a15c9800161ad6d3,2024-02-18_20h18.12.663,kallum_motion_pilot,2023.2.2,Win32,50.25125628,5caad602a15c9800161ad6d3,65d2b6c8f2eece985d8e374c,65d2b9c60cd6bbd3caa87785,0.0984,0.0986,0,86,86,87,1,eightseven,,,,,,,,,,,,,,,,,,,,,,,,,,,,,,,,,,,,,,,,,,,,,,,,,,,,,,,,,,,,,,,,,,,,,,,,,,,,,,,,,,,,,,,,,,,,,,,,,,,,,,,,,,,,,,,,,,,,,,,,,,,,,,,,,,,,,,,,,
,,5caad602a15c9800161ad6d3,2024-02-18_20h18.12.663,kallum_motion_pilot,2023.2.2,Win32,50.25125628,5caad602a15c9800161ad6d3,65d2b6c8f2eece985d8e374c,65d2b9c60cd6bbd3caa87785,0.0989,0.0989,0,87,87,113,1,fiveseven,,,,,,,,,,,,,,,,,,,,,,,,,,,,,,,,,,,,,,,,,,,,,,,,,,,,,,,,,,,,,,,,,,,,,,,,,,,,,,,,,,,,,,,,,,,,,,,,,,,,,,,,,,,,,,,,,,,,,,,,,,,,,,,,,,,,,,,,,
,,5caad602a15c9800161ad6d3,2024-02-18_20h18.12.663,kallum_motion_pilot,2023.2.2,Win32,50.25125628,5caad602a15c9800161ad6d3,65d2b6c8f2eece985d8e374c,65d2b9c60cd6bbd3caa87785,0.0992,0.0995,0,88,88,48,1,onetwo,,,,,,,,,,,,,,,,,,,,,,,,,,,,,,,,,,,,,,,,,,,,,,,,,,,,,,,,,,,,,,,,,,,,,,,,,,,,,,,,,,,,,,,,,,,,,,,,,,,,,,,,,,,,,,,,,,,,,,,,,,,,,,,,,,,,,,,,,
,,5caad602a15c9800161ad6d3,2024-02-18_20h18.12.663,kallum_motion_pilot,2023.2.2,Win32,50.25125628,5caad602a15c9800161ad6d3,65d2b6c8f2eece985d8e374c,65d2b9c60cd6bbd3caa87785,0.0997,0.0998,0,89,89,127,1,eightseven,,,,,,,,,,,,,,,,,,,,,,,,,,,,,,,,,,,,,,,,,,,,,,,,,,,,,,,,,,,,,,,,,,,,,,,,,,,,,,,,,,,,,,,,,,,,,,,,,,,,,,,,,,,,,,,,,,,,,,,,,,,,,,,,,,,,,,,,,
,,5caad602a15c9800161ad6d3,2024-02-18_20h18.12.663,kallum_motion_pilot,2023.2.2,Win32,50.25125628,5caad602a15c9800161ad6d3,65d2b6c8f2eece985d8e374c,65d2b9c60cd6bbd3caa87785,0.1,0.1002,0,90,90,17,1,onethree,,,,,,,,,,,,,,,,,,,,,,,,,,,,,,,,,,,,,,,,,,,,,,,,,,,,,,,,,,,,,,,,,,,,,,,,,,,,,,,,,,,,,,,,,,,,,,,,,,,,,,,,,,,,,,,,,,,,,,,,,,,,,,,,,,,,,,,,,
,,5caad602a15c9800161ad6d3,2024-02-18_20h18.12.663,kallum_motion_pilot,2023.2.2,Win32,50.25125628,5caad602a15c9800161ad6d3,65d2b6c8f2eece985d8e374c,65d2b9c60cd6bbd3caa87785,0.1005,0.1005,0,91,91,2,1,twoone,,,,,,,,,,,,,,,,,,,,,,,,,,,,,,,,,,,,,,,,,,,,,,,,,,,,,,,,,,,,,,,,,,,,,,,,,,,,,,,,,,,,,,,,,,,,,,,,,,,,,,,,,,,,,,,,,,,,,,,,,,,,,,,,,,,,,,,,,
,,5caad602a15c9800161ad6d3,2024-02-18_20h18.12.663,kallum_motion_pilot,2023.2.2,Win32,50.25125628,5caad602a15c9800161ad6d3,65d2b6c8f2eece985d8e374c,65d2b9c60cd6bbd3caa87785,0.1008,0.101,0,92,92,136,1,fivesix,,,,,,,,,,,,,,,,,,,,,,,,,,,,,,,,,,,,,,,,,,,,,,,,,,,,,,,,,,,,,,,,,,,,,,,,,,,,,,,,,,,,,,,,,,,,,,,,,,,,,,,,,,,,,,,,,,,,,,,,,,,,,,,,,,,,,,,,,
,,5caad602a15c9800161ad6d3,2024-02-18_20h18.12.663,kallum_motion_pilot,2023.2.2,Win32,50.25125628,5caad602a15c9800161ad6d3,65d2b6c8f2eece985d8e374c,65d2b9c60cd6bbd3caa87785,0.1012,0.1013,0,93,93,28,1,threeone,,,,,,,,,,,,,,,,,,,,,,,,,,,,,,,,,,,,,,,,,,,,,,,,,,,,,,,,,,,,,,,,,,,,,,,,,,,,,,,,,,,,,,,,,,,,,,,,,,,,,,,,,,,,,,,,,,,,,,,,,,,,,,,,,,,,,,,,,
,,5caad602a15c9800161ad6d3,2024-02-18_20h18.12.663,kallum_motion_pilot,2023.2.2,Win32,50.25125628,5caad602a15c9800161ad6d3,65d2b6c8f2eece985d8e374c,65d2b9c60cd6bbd3caa87785,0.1015,0.1017,0,94,94,99,1,sixeight,,,,,,,,,,,,,,,,,,,,,,,,,,,,,,,,,,,,,,,,,,,,,,,,,,,,,,,,,,,,,,,,,,,,,,,,,,,,,,,,,,,,,,,,,,,,,,,,,,,,,,,,,,,,,,,,,,,,,,,,,,,,,,,,,,,,,,,,,
,,5caad602a15c9800161ad6d3,2024-02-18_20h18.12.663,kallum_motion_pilot,2023.2.2,Win32,50.25125628,5caad602a15c9800161ad6d3,65d2b6c8f2eece985d8e374c,65d2b9c60cd6bbd3caa87785,0.1019,0.1021,0,95,95,158,1,eightsix,,,,,,,,,,,,,,,,,,,,,,,,,,,,,,,,,,,,,,,,,,,,,,,,,,,,,,,,,,,,,,,,,,,,,,,,,,,,,,,,,,,,,,,,,,,,,,,,,,,,,,,,,,,,,,,,,,,,,,,,,,,,,,,,,,,,,,,,,
,,5caad602a15c9800161ad6d3,2024-02-18_20h18.12.663,kallum_motion_pilot,2023.2.2,Win32,50.25125628,5caad602a15c9800161ad6d3,65d2b6c8f2eece985d8e374c,65d2b9c60cd6bbd3caa87785,0.1023,0.1024,0,96,96,56,1,onetwo,,,,,,,,,,,,,,,,,,,,,,,,,,,,,,,,,,,,,,,,,,,,,,,,,,,,,,,,,,,,,,,,,,,,,,,,,,,,,,,,,,,,,,,,,,,,,,,,,,,,,,,,,,,,,,,,,,,,,,,,,,,,,,,,,,,,,,,,,
,,5caad602a15c9800161ad6d3,2024-02-18_20h18.12.663,kallum_motion_pilot,2023.2.2,Win32,50.25125628,5caad602a15c9800161ad6d3,65d2b6c8f2eece985d8e374c,65d2b9c60cd6bbd3caa87785,0.1027,0.1028,0,97,97,16,1,onetwo,,,,,,,,,,,,,,,,,,,,,,,,,,,,,,,,,,,,,,,,,,,,,,,,,,,,,,,,,,,,,,,,,,,,,,,,,,,,,,,,,,,,,,,,,,,,,,,,,,,,,,,,,,,,,,,,,,,,,,,,,,,,,,,,,,,,,,,,,
,,5caad602a15c9800161ad6d3,2024-02-18_20h18.12.663,kallum_motion_pilot,2023.2.2,Win32,50.25125628,5caad602a15c9800161ad6d3,65d2b6c8f2eece985d8e374c,65d2b9c60cd6bbd3caa87785,0.1031,0.1033,0,98,98,26,1,twoone,,,,,,,,,,,,,,,,,,,,,,,,,,,,,,,,,,,,,,,,,,,,,,,,,,,,,,,,,,,,,,,,,,,,,,,,,,,,,,,,,,,,,,,,,,,,,,,,,,,,,,,,,,,,,,,,,,,,,,,,,,,,,,,,,,,,,,,,,
,,5caad602a15c9800161ad6d3,2024-02-18_20h18.12.663,kallum_motion_pilot,2023.2.2,Win32,50.25125628,5caad602a15c9800161ad6d3,65d2b6c8f2eece985d8e374c,65d2b9c60cd6bbd3caa87785,0.1035,0.1037,0,99,99,84,1,sevenfive,,,,,,,,,,,,,,,,,,,,,,,,,,,,,,,,,,,,,,,,,,,,,,,,,,,,,,,,,,,,,,,,,,,,,,,,,,,,,,,,,,,,,,,,,,,,,,,,,,,,,,,,,,,,,,,,,,,,,,,,,,,,,,,,,,,,,,,,,
,,5caad602a15c9800161ad6d3,2024-02-18_20h18.12.663,kallum_motion_pilot,2023.2.2,Win32,50.25125628,5caad602a15c9800161ad6d3,65d2b6c8f2eece985d8e374c,65d2b9c60cd6bbd3caa87785,0.104,0.1043,0,100,100,155,1,sixeight,,,,,,,,,,,,,,,,,,,,,,,,,,,,,,,,,,,,,,,,,,,,,,,,,,,,,,,,,,,,,,,,,,,,,,,,,,,,,,,,,,,,,,,,,,,,,,,,,,,,,,,,,,,,,,,,,,,,,,,,,,,,,,,,,,,,,,,,,
,,5caad602a15c9800161ad6d3,2024-02-18_20h18.12.663,kallum_motion_pilot,2023.2.2,Win32,50.25125628,5caad602a15c9800161ad6d3,65d2b6c8f2eece985d8e374c,65d2b9c60cd6bbd3caa87785,0.1045,0.1047,0,101,101,101,1,seveneight,,,,,,,,,,,,,,,,,,,,,,,,,,,,,,,,,,,,,,,,,,,,,,,,,,,,,,,,,,,,,,,,,,,,,,,,,,,,,,,,,,,,,,,,,,,,,,,,,,,,,,,,,,,,,,,,,,,,,,,,,,,,,,,,,,,,,,,,,
,,5caad602a15c9800161ad6d3,2024-02-18_20h18.12.663,kallum_motion_pilot,2023.2.2,Win32,50.25125628,5caad602a15c9800161ad6d3,65d2b6c8f2eece985d8e374c,65d2b9c60cd6bbd3caa87785,0.1049,0.1051,0,102,102,31,1,fourthree,,,,,,,,,,,,,,,,,,,,,,,,,,,,,,,,,,,,,,,,,,,,,,,,,,,,,,,,,,,,,,,,,,,,,,,,,,,,,,,,,,,,,,,,,,,,,,,,,,,,,,,,,,,,,,,,,,,,,,,,,,,,,,,,,,,,,,,,,
,,5caad602a15c9800161ad6d3,2024-02-18_20h18.12.663,kallum_motion_pilot,2023.2.2,Win32,50.25125628,5caad602a15c9800161ad6d3,65d2b6c8f2eece985d8e374c,65d2b9c60cd6bbd3caa87785,0.1053,0.1055,0,103,103,95,1,eightseven,,,,,,,,,,,,,,,,,,,,,,,,,,,,,,,,,,,,,,,,,,,,,,,,,,,,,,,,,,,,,,,,,,,,,,,,,,,,,,,,,,,,,,,,,,,,,,,,,,,,,,,,,,,,,,,,,,,,,,,,,,,,,,,,,,,,,,,,,
,,5caad602a15c9800161ad6d3,2024-02-18_20h18.12.663,kallum_motion_pilot,2023.2.2,Win32,50.25125628,5caad602a15c9800161ad6d3,65d2b6c8f2eece985d8e374c,65d2b9c60cd6bbd3caa87785,0.1057,0.1058,0,104,104,13,1,threefour,,,,,,,,,,,,,,,,,,,,,,,,,,,,,,,,,,,,,,,,,,,,,,,,,,,,,,,,,,,,,,,,,,,,,,,,,,,,,,,,,,,,,,,,,,,,,,,,,,,,,,,,,,,,,,,,,,,,,,,,,,,,,,,,,,,,,,,,,
,,5caad602a15c9800161ad6d3,2024-02-18_20h18.12.663,kallum_motion_pilot,2023.2.2,Win32,50.25125628,5caad602a15c9800161ad6d3,65d2b6c8f2eece985d8e374c,65d2b9c60cd6bbd3caa87785,0.1061,0.1063,0,105,105,71,1,fourthree,,,,,,,,,,,,,,,,,,,,,,,,,,,,,,,,,,,,,,,,,,,,,,,,,,,,,,,,,,,,,,,,,,,,,,,,,,,,,,,,,,,,,,,,,,,,,,,,,,,,,,,,,,,,,,,,,,,,,,,,,,,,,,,,,,,,,,,,,
,,5caad602a15c9800161ad6d3,2024-02-18_20h18.12.663,kallum_motion_pilot,2023.2.2,Win32,50.25125628,5caad602a15c9800161ad6d3,65d2b6c8f2eece985d8e374c,65d2b9c60cd6bbd3caa87785,0.1065,0.1066,0,106,106,46,1,fourtwo,,,,,,,,,,,,,,,,,,,,,,,,,,,,,,,,,,,,,,,,,,,,,,,,,,,,,,,,,,,,,,,,,,,,,,,,,,,,,,,,,,,,,,,,,,,,,,,,,,,,,,,,,,,,,,,,,,,,,,,,,,,,,,,,,,,,,,,,,
,,5caad602a15c9800161ad6d3,2024-02-18_20h18.12.663,kallum_motion_pilot,2023.2.2,Win32,50.25125628,5caad602a15c9800161ad6d3,65d2b6c8f2eece985d8e374c,65d2b9c60cd6bbd3caa87785,0.107,0.1072,0,107,107,85,1,seveneight,,,,,,,,,,,,,,,,,,,,,,,,,,,,,,,,,,,,,,,,,,,,,,,,,,,,,,,,,,,,,,,,,,,,,,,,,,,,,,,,,,,,,,,,,,,,,,,,,,,,,,,,,,,,,,,,,,,,,,,,,,,,,,,,,,,,,,,,,
,,5caad602a15c9800161ad6d3,2024-02-18_20h18.12.663,kallum_motion_pilot,2023.2.2,Win32,50.25125628,5caad602a15c9800161ad6d3,65d2b6c8f2eece985d8e374c,65d2b9c60cd6bbd3caa87785,0.1074,0.1076,0,108,108,34,1,twoone,,,,,,,,,,,,,,,,,,,,,,,,,,,,,,,,,,,,,,,,,,,,,,,,,,,,,,,,,,,,,,,,,,,,,,,,,,,,,,,,,,,,,,,,,,,,,,,,,,,,,,,,,,,,,,,,,,,,,,,,,,,,,,,,,,,,,,,,,
,,5caad602a15c9800161ad6d3,2024-02-18_20h18.12.663,kallum_motion_pilot,2023.2.2,Win32,50.25125628,5caad602a15c9800161ad6d3,65d2b6c8f2eece985d8e374c,65d2b9c60cd6bbd3caa87785,0.1078,0.108,0,109,109,10,1,twoone,,,,,,,,,,,,,,,,,,,,,,,,,,,,,,,,,,,,,,,,,,,,,,,,,,,,,,,,,,,,,,,,,,,,,,,,,,,,,,,,,,,,,,,,,,,,,,,,,,,,,,,,,,,,,,,,,,,,,,,,,,,,,,,,,,,,,,,,,
,,5caad602a15c9800161ad6d3,2024-02-18_20h18.12.663,kallum_motion_pilot,2023.2.2,Win32,50.25125628,5caad602a15c9800161ad6d3,65d2b6c8f2eece985d8e374c,65d2b9c60cd6bbd3caa87785,0.1082,0.1083,0,110,110,129,1,fiveseven,,,,,,,,,,,,,,,,,,,,,,,,,,,,,,,,,,,,,,,,,,,,,,,,,,,,,,,,,,,,,,,,,,,,,,,,,,,,,,,,,,,,,,,,,,,,,,,,,,,,,,,,,,,,,,,,,,,,,,,,,,,,,,,,,,,,,,,,,
,,5caad602a15c9800161ad6d3,2024-02-18_20h18.12.663,kallum_motion_pilot,2023.2.2,Win32,50.25125628,5caad602a15c9800161ad6d3,65d2b6c8f2eece985d8e374c,65d2b9c60cd6bbd3caa87785,0.1085,0.1087,0,111,111,40,1,onetwo,,,,,,,,,,,,,,,,,,,,,,,,,,,,,,,,,,,,,,,,,,,,,,,,,,,,,,,,,,,,,,,,,,,,,,,,,,,,,,,,,,,,,,,,,,,,,,,,,,,,,,,,,,,,,,,,,,,,,,,,,,,,,,,,,,,,,,,,,
,,5caad602a15c9800161ad6d3,2024-02-18_20h18.12.663,kallum_motion_pilot,2023.2.2,Win32,50.25125628,5caad602a15c9800161ad6d3,65d2b6c8f2eece985d8e374c,65d2b9c60cd6bbd3caa87785,0.109,0.1091,0,112,112,74,1,twoone,,,,,,,,,,,,,,,,,,,,,,,,,,,,,,,,,,,,,,,,,,,,,,,,,,,,,,,,,,,,,,,,,,,,,,,,,,,,,,,,,,,,,,,,,,,,,,,,,,,,,,,,,,,,,,,,,,,,,,,,,,,,,,,,,,,,,,,,,
,,5caad602a15c9800161ad6d3,2024-02-18_20h18.12.663,kallum_motion_pilot,2023.2.2,Win32,50.25125628,5caad602a15c9800161ad6d3,65d2b6c8f2eece985d8e374c,65d2b9c60cd6bbd3caa87785,0.1094,0.1094,0,113,113,8,1,onetwo,,,,,,,,,,,,,,,,,,,,,,,,,,,,,,,,,,,,,,,,,,,,,,,,,,,,,,,,,,,,,,,,,,,,,,,,,,,,,,,,,,,,,,,,,,,,,,,,,,,,,,,,,,,,,,,,,,,,,,,,,,,,,,,,,,,,,,,,,
,,5caad602a15c9800161ad6d3,2024-02-18_20h18.12.663,kallum_motion_pilot,2023.2.2,Win32,50.25125628,5caad602a15c9800161ad6d3,65d2b6c8f2eece985d8e374c,65d2b9c60cd6bbd3caa87785,0.1097,0.1099,0,114,114,103,1,eightseven,,,,,,,,,,,,,,,,,,,,,,,,,,,,,,,,,,,,,,,,,,,,,,,,,,,,,,,,,,,,,,,,,,,,,,,,,,,,,,,,,,,,,,,,,,,,,,,,,,,,,,,,,,,,,,,,,,,,,,,,,,,,,,,,,,,,,,,,,
,,5caad602a15c9800161ad6d3,2024-02-18_20h18.12.663,kallum_motion_pilot,2023.2.2,Win32,50.25125628,5caad602a15c9800161ad6d3,65d2b6c8f2eece985d8e374c,65d2b9c60cd6bbd3caa87785,0.1101,0.1103,0,115,115,18,1,twoone,,,,,,,,,,,,,,,,,,,,,,,,,,,,,,,,,,,,,,,,,,,,,,,,,,,,,,,,,,,,,,,,,,,,,,,,,,,,,,,,,,,,,,,,,,,,,,,,,,,,,,,,,,,,,,,,,,,,,,,,,,,,,,,,,,,,,,,,,
,,5caad602a15c9800161ad6d3,2024-02-18_20h18.12.663,kallum_motion_pilot,2023.2.2,Win32,50.25125628,5caad602a15c9800161ad6d3,65d2b6c8f2eece985d8e374c,65d2b9c60cd6bbd3caa87785,0.1105,0.1106,0,116,116,20,1,threeone,,,,,,,,,,,,,,,,,,,,,,,,,,,,,,,,,,,,,,,,,,,,,,,,,,,,,,,,,,,,,,,,,,,,,,,,,,,,,,,,,,,,,,,,,,,,,,,,,,,,,,,,,,,,,,,,,,,,,,,,,,,,,,,,,,,,,,,,,
,,5caad602a15c9800161ad6d3,2024-02-18_20h18.12.663,kallum_motion_pilot,2023.2.2,Win32,50.25125628,5caad602a15c9800161ad6d3,65d2b6c8f2eece985d8e374c,65d2b9c60cd6bbd3caa87785,0.1108,0.1109,0,117,117,105,1,fiveseven,,,,,,,,,,,,,,,,,,,,,,,,,,,,,,,,,,,,,,,,,,,,,,,,,,,,,,,,,,,,,,,,,,,,,,,,,,,,,,,,,,,,,,,,,,,,,,,,,,,,,,,,,,,,,,,,,,,,,,,,,,,,,,,,,,,,,,,,,
,,5caad602a15c9800161ad6d3,2024-02-18_20h18.12.663,kallum_motion_pilot,2023.2.2,Win32,50.25125628,5caad602a15c9800161ad6d3,65d2b6c8f2eece985d8e374c,65d2b9c60cd6bbd3caa87785,0.1112,0.1112,0,118,118,41,1,onethree,,,,,,,,,,,,,,,,,,,,,,,,,,,,,,,,,,,,,,,,,,,,,,,,,,,,,,,,,,,,,,,,,,,,,,,,,,,,,,,,,,,,,,,,,,,,,,,,,,,,,,,,,,,,,,,,,,,,,,,,,,,,,,,,,,,,,,,,,
,,5caad602a15c9800161ad6d3,2024-02-18_20h18.12.663,kallum_motion_pilot,2023.2.2,Win32,50.25125628,5caad602a15c9800161ad6d3,65d2b6c8f2eece985d8e374c,65d2b9c60cd6bbd3caa87785,0.1115,0.1117,0,119,119,148,1,sevenfive,,,,,,,,,,,,,,,,,,,,,,,,,,,,,,,,,,,,,,,,,,,,,,,,,,,,,,,,,,,,,,,,,,,,,,,,,,,,,,,,,,,,,,,,,,,,,,,,,,,,,,,,,,,,,,,,,,,,,,,,,,,,,,,,,,,,,,,,,
,,5caad602a15c9800161ad6d3,2024-02-18_20h18.12.663,kallum_motion_pilot,2023.2.2,Win32,50.25125628,5caad602a15c9800161ad6d3,65d2b6c8f2eece985d8e374c,65d2b9c60cd6bbd3caa87785,0.112,0.1122,0,120,120,0,1,onetwo,,,,,,,,,,,,,,,,,,,,,,,,,,,,,,,,,,,,,,,,,,,,,,,,,,,,,,,,,,,,,,,,,,,,,,,,,,,,,,,,,,,,,,,,,,,,,,,,,,,,,,,,,,,,,,,,,,,,,,,,,,,,,,,,,,,,,,,,,
,,5caad602a15c9800161ad6d3,2024-02-18_20h18.12.663,kallum_motion_pilot,2023.2.2,Win32,50.25125628,5caad602a15c9800161ad6d3,65d2b6c8f2eece985d8e374c,65d2b9c60cd6bbd3caa87785,0.1124,0.1126,0,121,121,25,1,onethree,,,,,,,,,,,,,,,,,,,,,,,,,,,,,,,,,,,,,,,,,,,,,,,,,,,,,,,,,,,,,,,,,,,,,,,,,,,,,,,,,,,,,,,,,,,,,,,,,,,,,,,,,,,,,,,,,,,,,,,,,,,,,,,,,,,,,,,,,
,,5caad602a15c9800161ad6d3,2024-02-18_20h18.12.663,kallum_motion_pilot,2023.2.2,Win32,50.25125628,5caad602a15c9800161ad6d3,65d2b6c8f2eece985d8e374c,65d2b9c60cd6bbd3caa87785,0.1127,0.113,0,122,122,27,1,twofour,,,,,,,,,,,,,,,,,,,,,,,,,,,,,,,,,,,,,,,,,,,,,,,,,,,,,,,,,,,,,,,,,,,,,,,,,,,,,,,,,,,,,,,,,,,,,,,,,,,,,,,,,,,,,,,,,,,,,,,,,,,,,,,,,,,,,,,,,
,,5caad602a15c9800161ad6d3,2024-02-18_20h18.12.663,kallum_motion_pilot,2023.2.2,Win32,50.25125628,5caad602a15c9800161ad6d3,65d2b6c8f2eece985d8e374c,65d2b9c60cd6bbd3caa87785,0.1132,0.1133,0,123,123,123,1,sixeight,,,,,,,,,,,,,,,,,,,,,,,,,,,,,,,,,,,,,,,,,,,,,,,,,,,,,,,,,,,,,,,,,,,,,,,,,,,,,,,,,,,,,,,,,,,,,,,,,,,,,,,,,,,,,,,,,,,,,,,,,,,,,,,,,,,,,,,,,
,,5caad602a15c9800161ad6d3,2024-02-18_20h18.12.663,kallum_motion_pilot,2023.2.2,Win32,50.25125628,5caad602a15c9800161ad6d3,65d2b6c8f2eece985d8e374c,65d2b9c60cd6bbd3caa87785,0.1136,0.1137,0,124,124,62,1,fourtwo,,,,,,,,,,,,,,,,,,,,,,,,,,,,,,,,,,,,,,,,,,,,,,,,,,,,,,,,,,,,,,,,,,,,,,,,,,,,,,,,,,,,,,,,,,,,,,,,,,,,,,,,,,,,,,,,,,,,,,,,,,,,,,,,,,,,,,,,,
,,5caad602a15c9800161ad6d3,2024-02-18_20h18.12.663,kallum_motion_pilot,2023.2.2,Win32,50.25125628,5caad602a15c9800161ad6d3,65d2b6c8f2eece985d8e374c,65d2b9c60cd6bbd3caa87785,0.114,0.1141,0,125,125,77,1,threefour,,,,,,,,,,,,,,,,,,,,,,,,,,,,,,,,,,,,,,,,,,,,,,,,,,,,,,,,,,,,,,,,,,,,,,,,,,,,,,,,,,,,,,,,,,,,,,,,,,,,,,,,,,,,,,,,,,,,,,,,,,,,,,,,,,,,,,,,,
,,5caad602a15c9800161ad6d3,2024-02-18_20h18.12.663,kallum_motion_pilot,2023.2.2,Win32,50.25125628,5caad602a15c9800161ad6d3,65d2b6c8f2eece985d8e374c,65d2b9c60cd6bbd3caa87785,0.1147,0.1152,0,126,126,12,1,threeone,,,,,,,,,,,,,,,,,,,,,,,,,,,,,,,,,,,,,,,,,,,,,,,,,,,,,,,,,,,,,,,,,,,,,,,,,,,,,,,,,,,,,,,,,,,,,,,,,,,,,,,,,,,,,,,,,,,,,,,,,,,,,,,,,,,,,,,,,
,,5caad602a15c9800161ad6d3,2024-02-18_20h18.12.663,kallum_motion_pilot,2023.2.2,Win32,50.25125628,5caad602a15c9800161ad6d3,65d2b6c8f2eece985d8e374c,65d2b9c60cd6bbd3caa87785,0.1158,0.1161,0,127,127,90,1,sixfive,,,,,,,,,,,,,,,,,,,,,,,,,,,,,,,,,,,,,,,,,,,,,,,,,,,,,,,,,,,,,,,,,,,,,,,,,,,,,,,,,,,,,,,,,,,,,,,,,,,,,,,,,,,,,,,,,,,,,,,,,,,,,,,,,,,,,,,,,
,,5caad602a15c9800161ad6d3,2024-02-18_20h18.12.663,kallum_motion_pilot,2023.2.2,Win32,50.25125628,5caad602a15c9800161ad6d3,65d2b6c8f2eece985d8e374c,65d2b9c60cd6bbd3caa87785,0.1166,0.1167,0,128,128,120,1,fivesix,,,,,,,,,,,,,,,,,,,,,,,,,,,,,,,,,,,,,,,,,,,,,,,,,,,,,,,,,,,,,,,,,,,,,,,,,,,,,,,,,,,,,,,,,,,,,,,,,,,,,,,,,,,,,,,,,,,,,,,,,,,,,,,,,,,,,,,,,
,,5caad602a15c9800161ad6d3,2024-02-18_20h18.12.663,kallum_motion_pilot,2023.2.2,Win32,50.25125628,5caad602a15c9800161ad6d3,65d2b6c8f2eece985d8e374c,65d2b9c60cd6bbd3caa87785,0.1174,0.1176,0,129,129,39,1,fourthree,,,,,,,,,,,,,,,,,,,,,,,,,,,,,,,,,,,,,,,,,,,,,,,,,,,,,,,,,,,,,,,,,,,,,,,,,,,,,,,,,,,,,,,,,,,,,,,,,,,,,,,,,,,,,,,,,,,,,,,,,,,,,,,,,,,,,,,,,
,,5caad602a15c9800161ad6d3,2024-02-18_20h18.12.663,kallum_motion_pilot,2023.2.2,Win32,50.25125628,5caad602a15c9800161ad6d3,65d2b6c8f2eece985d8e374c,65d2b9c60cd6bbd3caa87785,0.1179,0.1181,0,130,130,59,1,twofour,,,,,,,,,,,,,,,,,,,,,,,,,,,,,,,,,,,,,,,,,,,,,,,,,,,,,,,,,,,,,,,,,,,,,,,,,,,,,,,,,,,,,,,,,,,,,,,,,,,,,,,,,,,,,,,,,,,,,,,,,,,,,,,,,,,,,,,,,
,,5caad602a15c9800161ad6d3,2024-02-18_20h18.12.663,kallum_motion_pilot,2023.2.2,Win32,50.25125628,5caad602a15c9800161ad6d3,65d2b6c8f2eece985d8e374c,65d2b9c60cd6bbd3caa87785,0.1187,0.1189,0,131,131,5,1,threefour,,,,,,,,,,,,,,,,,,,,,,,,,,,,,,,,,,,,,,,,,,,,,,,,,,,,,,,,,,,,,,,,,,,,,,,,,,,,,,,,,,,,,,,,,,,,,,,,,,,,,,,,,,,,,,,,,,,,,,,,,,,,,,,,,,,,,,,,,
,,5caad602a15c9800161ad6d3,2024-02-18_20h18.12.663,kallum_motion_pilot,2023.2.2,Win32,50.25125628,5caad602a15c9800161ad6d3,65d2b6c8f2eece985d8e374c,65d2b9c60cd6bbd3caa87785,0.1192,0.1194,0,132,132,145,1,fiveseven,,,,,,,,,,,,,,,,,,,,,,,,,,,,,,,,,,,,,,,,,,,,,,,,,,,,,,,,,,,,,,,,,,,,,,,,,,,,,,,,,,,,,,,,,,,,,,,,,,,,,,,,,,,,,,,,,,,,,,,,,,,,,,,,,,,,,,,,,
,,5caad602a15c9800161ad6d3,2024-02-18_20h18.12.663,kallum_motion_pilot,2023.2.2,Win32,50.25125628,5caad602a15c9800161ad6d3,65d2b6c8f2eece985d8e374c,65d2b9c60cd6bbd3caa87785,0.121,0.1213,0,133,133,89,1,fiveseven,,,,,,,,,,,,,,,,,,,,,,,,,,,,,,,,,,,,,,,,,,,,,,,,,,,,,,,,,,,,,,,,,,,,,,,,,,,,,,,,,,,,,,,,,,,,,,,,,,,,,,,,,,,,,,,,,,,,,,,,,,,,,,,,,,,,,,,,,
,,5caad602a15c9800161ad6d3,2024-02-18_20h18.12.663,kallum_motion_pilot,2023.2.2,Win32,50.25125628,5caad602a15c9800161ad6d3,65d2b6c8f2eece985d8e374c,65d2b9c60cd6bbd3caa87785,0.1217,0.122,0,134,134,52,1,threeone,,,,,,,,,,,,,,,,,,,,,,,,,,,,,,,,,,,,,,,,,,,,,,,,,,,,,,,,,,,,,,,,,,,,,,,,,,,,,,,,,,,,,,,,,,,,,,,,,,,,,,,,,,,,,,,,,,,,,,,,,,,,,,,,,,,,,,,,,
,,5caad602a15c9800161ad6d3,2024-02-18_20h18.12.663,kallum_motion_pilot,2023.2.2,Win32,50.25125628,5caad602a15c9800161ad6d3,65d2b6c8f2eece985d8e374c,65d2b9c60cd6bbd3caa87785,0.1222,0.1224,0,135,135,110,1,eightsix,,,,,,,,,,,,,,,,,,,,,,,,,,,,,,,,,,,,,,,,,,,,,,,,,,,,,,,,,,,,,,,,,,,,,,,,,,,,,,,,,,,,,,,,,,,,,,,,,,,,,,,,,,,,,,,,,,,,,,,,,,,,,,,,,,,,,,,,,
,,5caad602a15c9800161ad6d3,2024-02-18_20h18.12.663,kallum_motion_pilot,2023.2.2,Win32,50.25125628,5caad602a15c9800161ad6d3,65d2b6c8f2eece985d8e374c,65d2b9c60cd6bbd3caa87785,0.1226,0.1227,0,136,136,32,1,onetwo,,,,,,,,,,,,,,,,,,,,,,,,,,,,,,,,,,,,,,,,,,,,,,,,,,,,,,,,,,,,,,,,,,,,,,,,,,,,,,,,,,,,,,,,,,,,,,,,,,,,,,,,,,,,,,,,,,,,,,,,,,,,,,,,,,,,,,,,,
,,5caad602a15c9800161ad6d3,2024-02-18_20h18.12.663,kallum_motion_pilot,2023.2.2,Win32,50.25125628,5caad602a15c9800161ad6d3,65d2b6c8f2eece985d8e374c,65d2b9c60cd6bbd3caa87785,0.123,0.1232,0,137,137,35,1,twofour,,,,,,,,,,,,,,,,,,,,,,,,,,,,,,,,,,,,,,,,,,,,,,,,,,,,,,,,,,,,,,,,,,,,,,,,,,,,,,,,,,,,,,,,,,,,,,,,,,,,,,,,,,,,,,,,,,,,,,,,,,,,,,,,,,,,,,,,,
,,5caad602a15c9800161ad6d3,2024-02-18_20h18.12.663,kallum_motion_pilot,2023.2.2,Win32,50.25125628,5caad602a15c9800161ad6d3,65d2b6c8f2eece985d8e374c,65d2b9c60cd6bbd3caa87785,0.1234,0.1236,0,138,138,109,1,seveneight,,,,,,,,,,,,,,,,,,,,,,,,,,,,,,,,,,,,,,,,,,,,,,,,,,,,,,,,,,,,,,,,,,,,,,,,,,,,,,,,,,,,,,,,,,,,,,,,,,,,,,,,,,,,,,,,,,,,,,,,,,,,,,,,,,,,,,,,,
,,5caad602a15c9800161ad6d3,2024-02-18_20h18.12.663,kallum_motion_pilot,2023.2.2,Win32,50.25125628,5caad602a15c9800161ad6d3,65d2b6c8f2eece985d8e374c,65d2b9c60cd6bbd3caa87785,0.1237,0.124,0,139,139,138,1,sixfive,,,,,,,,,,,,,,,,,,,,,,,,,,,,,,,,,,,,,,,,,,,,,,,,,,,,,,,,,,,,,,,,,,,,,,,,,,,,,,,,,,,,,,,,,,,,,,,,,,,,,,,,,,,,,,,,,,,,,,,,,,,,,,,,,,,,,,,,,
,,5caad602a15c9800161ad6d3,2024-02-18_20h18.12.663,kallum_motion_pilot,2023.2.2,Win32,50.25125628,5caad602a15c9800161ad6d3,65d2b6c8f2eece985d8e374c,65d2b9c60cd6bbd3caa87785,0.1242,0.1244,0,140,140,124,1,sevenfive,,,,,,,,,,,,,,,,,,,,,,,,,,,,,,,,,,,,,,,,,,,,,,,,,,,,,,,,,,,,,,,,,,,,,,,,,,,,,,,,,,,,,,,,,,,,,,,,,,,,,,,,,,,,,,,,,,,,,,,,,,,,,,,,,,,,,,,,,
,,5caad602a15c9800161ad6d3,2024-02-18_20h18.12.663,kallum_motion_pilot,2023.2.2,Win32,50.25125628,5caad602a15c9800161ad6d3,65d2b6c8f2eece985d8e374c,65d2b9c60cd6bbd3caa87785,0.1246,0.1248,0,141,141,157,1,seveneight,,,,,,,,,,,,,,,,,,,,,,,,,,,,,,,,,,,,,,,,,,,,,,,,,,,,,,,,,,,,,,,,,,,,,,,,,,,,,,,,,,,,,,,,,,,,,,,,,,,,,,,,,,,,,,,,,,,,,,,,,,,,,,,,,,,,,,,,,
,,5caad602a15c9800161ad6d3,2024-02-18_20h18.12.663,kallum_motion_pilot,2023.2.2,Win32,50.25125628,5caad602a15c9800161ad6d3,65d2b6c8f2eece985d8e374c,65d2b9c60cd6bbd3caa87785,0.1251,0.1252,0,142,142,134,1,eightsix,,,,,,,,,,,,,,,,,,,,,,,,,,,,,,,,,,,,,,,,,,,,,,,,,,,,,,,,,,,,,,,,,,,,,,,,,,,,,,,,,,,,,,,,,,,,,,,,,,,,,,,,,,,,,,,,,,,,,,,,,,,,,,,,,,,,,,,,,
,,5caad602a15c9800161ad6d3,2024-02-18_20h18.12.663,kallum_motion_pilot,2023.2.2,Win32,50.25125628,5caad602a15c9800161ad6d3,65d2b6c8f2eece985d8e374c,65d2b9c60cd6bbd3caa87785,0.1255,0.1256,0,143,143,19,1,twofour,,,,,,,,,,,,,,,,,,,,,,,,,,,,,,,,,,,,,,,,,,,,,,,,,,,,,,,,,,,,,,,,,,,,,,,,,,,,,,,,,,,,,,,,,,,,,,,,,,,,,,,,,,,,,,,,,,,,,,,,,,,,,,,,,,,,,,,,,
,,5caad602a15c9800161ad6d3,2024-02-18_20h18.12.663,kallum_motion_pilot,2023.2.2,Win32,50.25125628,5caad602a15c9800161ad6d3,65d2b6c8f2eece985d8e374c,65d2b9c60cd6bbd3caa87785,0.1258,0.126,0,144,144,144,1,fivesix,,,,,,,,,,,,,,,,,,,,,,,,,,,,,,,,,,,,,,,,,,,,,,,,,,,,,,,,,,,,,,,,,,,,,,,,,,,,,,,,,,,,,,,,,,,,,,,,,,,,,,,,,,,,,,,,,,,,,,,,,,,,,,,,,,,,,,,,,
,,5caad602a15c9800161ad6d3,2024-02-18_20h18.12.663,kallum_motion_pilot,2023.2.2,Win32,50.25125628,5caad602a15c9800161ad6d3,65d2b6c8f2eece985d8e374c,65d2b9c60cd6bbd3caa87785,0.1261,0.1263,0,145,145,6,1,fourtwo,,,,,,,,,,,,,,,,,,,,,,,,,,,,,,,,,,,,,,,,,,,,,,,,,,,,,,,,,,,,,,,,,,,,,,,,,,,,,,,,,,,,,,,,,,,,,,,,,,,,,,,,,,,,,,,,,,,,,,,,,,,,,,,,,,,,,,,,,
,,5caad602a15c9800161ad6d3,2024-02-18_20h18.12.663,kallum_motion_pilot,2023.2.2,Win32,50.25125628,5caad602a15c9800161ad6d3,65d2b6c8f2eece985d8e374c,65d2b9c60cd6bbd3caa87785,0.1265,0.1267,0,146,146,64,1,onetwo,,,,,,,,,,,,,,,,,,,,,,,,,,,,,,,,,,,,,,,,,,,,,,,,,,,,,,,,,,,,,,,,,,,,,,,,,,,,,,,,,,,,,,,,,,,,,,,,,,,,,,,,,,,,,,,,,,,,,,,,,,,,,,,,,,,,,,,,,
,,5caad602a15c9800161ad6d3,2024-02-18_20h18.12.663,kallum_motion_pilot,2023.2.2,Win32,50.25125628,5caad602a15c9800161ad6d3,65d2b6c8f2eece985d8e374c,65d2b9c60cd6bbd3caa87785,0.1269,0.127,0,147,147,122,1,sixfive,,,,,,,,,,,,,,,,,,,,,,,,,,,,,,,,,,,,,,,,,,,,,,,,,,,,,,,,,,,,,,,,,,,,,,,,,,,,,,,,,,,,,,,,,,,,,,,,,,,,,,,,,,,,,,,,,,,,,,,,,,,,,,,,,,,,,,,,,
,,5caad602a15c9800161ad6d3,2024-02-18_20h18.12.663,kallum_motion_pilot,2023.2.2,Win32,50.25125628,5caad602a15c9800161ad6d3,65d2b6c8f2eece985d8e374c,65d2b9c60cd6bbd3caa87785,0.1272,0.1274,0,148,148,30,1,fourtwo,,,,,,,,,,,,,,,,,,,,,,,,,,,,,,,,,,,,,,,,,,,,,,,,,,,,,,,,,,,,,,,,,,,,,,,,,,,,,,,,,,,,,,,,,,,,,,,,,,,,,,,,,,,,,,,,,,,,,,,,,,,,,,,,,,,,,,,,,
,,5caad602a15c9800161ad6d3,2024-02-18_20h18.12.663,kallum_motion_pilot,2023.2.2,Win32,50.25125628,5caad602a15c9800161ad6d3,65d2b6c8f2eece985d8e374c,65d2b9c60cd6bbd3caa87785,0.1277,0.1278,0,149,149,131,1,sixeight,,,,,,,,,,,,,,,,,,,,,,,,,,,,,,,,,,,,,,,,,,,,,,,,,,,,,,,,,,,,,,,,,,,,,,,,,,,,,,,,,,,,,,,,,,,,,,,,,,,,,,,,,,,,,,,,,,,,,,,,,,,,,,,,,,,,,,,,,
,,5caad602a15c9800161ad6d3,2024-02-18_20h18.12.663,kallum_motion_pilot,2023.2.2,Win32,50.25125628,5caad602a15c9800161ad6d3,65d2b6c8f2eece985d8e374c,65d2b9c60cd6bbd3caa87785,0.128,0.1281,0,150,150,92,1,sevenfive,,,,,,,,,,,,,,,,,,,,,,,,,,,,,,,,,,,,,,,,,,,,,,,,,,,,,,,,,,,,,,,,,,,,,,,,,,,,,,,,,,,,,,,,,,,,,,,,,,,,,,,,,,,,,,,,,,,,,,,,,,,,,,,,,,,,,,,,,
,,5caad602a15c9800161ad6d3,2024-02-18_20h18.12.663,kallum_motion_pilot,2023.2.2,Win32,50.25125628,5caad602a15c9800161ad6d3,65d2b6c8f2eece985d8e374c,65d2b9c60cd6bbd3caa87785,0.1285,0.1286,0,151,151,7,1,fourthree,,,,,,,,,,,,,,,,,,,,,,,,,,,,,,,,,,,,,,,,,,,,,,,,,,,,,,,,,,,,,,,,,,,,,,,,,,,,,,,,,,,,,,,,,,,,,,,,,,,,,,,,,,,,,,,,,,,,,,,,,,,,,,,,,,,,,,,,,
,,5caad602a15c9800161ad6d3,2024-02-18_20h18.12.663,kallum_motion_pilot,2023.2.2,Win32,50.25125628,5caad602a15c9800161ad6d3,65d2b6c8f2eece985d8e374c,65d2b9c60cd6bbd3caa87785,0.1288,0.129,0,152,152,38,1,fourtwo,,,,,,,,,,,,,,,,,,,,,,,,,,,,,,,,,,,,,,,,,,,,,,,,,,,,,,,,,,,,,,,,,,,,,,,,,,,,,,,,,,,,,,,,,,,,,,,,,,,,,,,,,,,,,,,,,,,,,,,,,,,,,,,,,,,,,,,,,
,,5caad602a15c9800161ad6d3,2024-02-18_20h18.12.663,kallum_motion_pilot,2023.2.2,Win32,50.25125628,5caad602a15c9800161ad6d3,65d2b6c8f2eece985d8e374c,65d2b9c60cd6bbd3caa87785,0.1292,0.1294,0,153,153,22,1,fourtwo,,,,,,,,,,,,,,,,,,,,,,,,,,,,,,,,,,,,,,,,,,,,,,,,,,,,,,,,,,,,,,,,,,,,,,,,,,,,,,,,,,,,,,,,,,,,,,,,,,,,,,,,,,,,,,,,,,,,,,,,,,,,,,,,,,,,,,,,,
,,5caad602a15c9800161ad6d3,2024-02-18_20h18.12.663,kallum_motion_pilot,2023.2.2,Win32,50.25125628,5caad602a15c9800161ad6d3,65d2b6c8f2eece985d8e374c,65d2b9c60cd6bbd3caa87785,0.1296,0.1297,0,154,154,104,1,fivesix,,,,,,,,,,,,,,,,,,,,,,,,,,,,,,,,,,,,,,,,,,,,,,,,,,,,,,,,,,,,,,,,,,,,,,,,,,,,,,,,,,,,,,,,,,,,,,,,,,,,,,,,,,,,,,,,,,,,,,,,,,,,,,,,,,,,,,,,,
,,5caad602a15c9800161ad6d3,2024-02-18_20h18.12.663,kallum_motion_pilot,2023.2.2,Win32,50.25125628,5caad602a15c9800161ad6d3,65d2b6c8f2eece985d8e374c,65d2b9c60cd6bbd3caa87785,0.1301,0.1302,0,155,155,135,1,eightseven,,,,,,,,,,,,,,,,,,,,,,,,,,,,,,,,,,,,,,,,,,,,,,,,,,,,,,,,,,,,,,,,,,,,,,,,,,,,,,,,,,,,,,,,,,,,,,,,,,,,,,,,,,,,,,,,,,,,,,,,,,,,,,,,,,,,,,,,,
,,5caad602a15c9800161ad6d3,2024-02-18_20h18.12.663,kallum_motion_pilot,2023.2.2,Win32,50.25125628,5caad602a15c9800161ad6d3,65d2b6c8f2eece985d8e374c,65d2b9c60cd6bbd3caa87785,0.1306,0.1307,0,156,156,137,1,fiveseven,,,,,,,,,,,,,,,,,,,,,,,,,,,,,,,,,,,,,,,,,,,,,,,,,,,,,,,,,,,,,,,,,,,,,,,,,,,,,,,,,,,,,,,,,,,,,,,,,,,,,,,,,,,,,,,,,,,,,,,,,,,,,,,,,,,,,,,,,
,,5caad602a15c9800161ad6d3,2024-02-18_20h18.12.663,kallum_motion_pilot,2023.2.2,Win32,50.25125628,5caad602a15c9800161ad6d3,65d2b6c8f2eece985d8e374c,65d2b9c60cd6bbd3caa87785,0.1311,0.1313,0,157,157,15,1,fourthree,,,,,,,,,,,,,,,,,,,,,,,,,,,,,,,,,,,,,,,,,,,,,,,,,,,,,,,,,,,,,,,,,,,,,,,,,,,,,,,,,,,,,,,,,,,,,,,,,,,,,,,,,,,,,,,,,,,,,,,,,,,,,,,,,,,,,,,,,
,,5caad602a15c9800161ad6d3,2024-02-18_20h18.12.663,kallum_motion_pilot,2023.2.2,Win32,50.25125628,5caad602a15c9800161ad6d3,65d2b6c8f2eece985d8e374c,65d2b9c60cd6bbd3caa87785,0.1315,0.1317,0,158,158,130,1,sixfive,,,,,,,,,,,,,,,,,,,,,,,,,,,,,,,,,,,,,,,,,,,,,,,,,,,,,,,,,,,,,,,,,,,,,,,,,,,,,,,,,,,,,,,,,,,,,,,,,,,,,,,,,,,,,,,,,,,,,,,,,,,,,,,,,,,,,,,,,
,,5caad602a15c9800161ad6d3,2024-02-18_20h18.12.663,kallum_motion_pilot,2023.2.2,Win32,50.25125628,5caad602a15c9800161ad6d3,65d2b6c8f2eece985d8e374c,65d2b9c60cd6bbd3caa87785,0.1319,0.132,0,159,159,98,1,sixfive,,,,,,,,,,,,,,,,,,,,,,,,,,,,,,,,,,,,,,,,,,,,,,,,,,,,,,,,,,,,,,,,,,,,,,,,,,,,,,,,,,,,,,,,,,,,,,,,,,,,,,,,,,,,,,,,,,,,,,,,,,,,,,,,,,,,,,,,,
,,5caad602a15c9800161ad6d3,2024-02-18_20h18.12.663,kallum_motion_pilot,2023.2.2,Win32,50.25125628,5caad602a15c9800161ad6d3,65d2b6c8f2eece985d8e374c,65d2b9c60cd6bbd3caa87785,0.1323,0.1325,0,160,160,141,1,seveneight,,,,,,,,,,,,,,,,,,,,,,,,,,,,,,,,,,,,,,,,,,,,,,,,,,,,,,,,,,,,,,,,,,,,,,,,,,,,,,,,,,,,,,,,,,,,,,,,,,,,,,,,,,,,,,,,,,,,,,,,,,,,,,,,,,,,,,,,,
,,5caad602a15c9800161ad6d3,2024-02-18_20h18.12.663,kallum_motion_pilot,2023.2.2,Win32,50.25125628,5caad602a15c9800161ad6d3,65d2b6c8f2eece985d8e374c,65d2b9c60cd6bbd3caa87785,0.1327,0.1329,0,161,161,76,1,threeone,,,,,,,,,,,,,,,,,,,,,,,,,,,,,,,,,,,,,,,,,,,,,,,,,,,,,,,,,,,,,,,,,,,,,,,,,,,,,,,,,,,,,,,,,,,,,,,,,,,,,,,,,,,,,,,,,,,,,,,,,,,,,,,,,,,,,,,,,
,,5caad602a15c9800161ad6d3,2024-02-18_20h18.12.663,kallum_motion_pilot,2023.2.2,Win32,50.25125628,5caad602a15c9800161ad6d3,65d2b6c8f2eece985d8e374c,65d2b9c60cd6bbd3caa87785,0.1331,0.1333,1,0,162,61,1,threefour,,,,,,,,,,,,,,,,,,,,,,,,,,,,,,,,,,,,,,,,,,,,,,,,,,,,,,,,,,,,,,,,,,,,,,,,,,,,,,,,,,,,,,,,,,,,,,,,,,,,,,,,,,,,,,,,,,,,,,,,,,,,,,,,,,,,,,,,,
,,5caad602a15c9800161ad6d3,2024-02-18_20h18.12.663,kallum_motion_pilot,2023.2.2,Win32,50.25125628,5caad602a15c9800161ad6d3,65d2b6c8f2eece985d8e374c,65d2b9c60cd6bbd3caa87785,0.1335,0.1336,1,1,163,54,1,fourtwo,,,,,,,,,,,,,,,,,,,,,,,,,,,,,,,,,,,,,,,,,,,,,,,,,,,,,,,,,,,,,,,,,,,,,,,,,,,,,,,,,,,,,,,,,,,,,,,,,,,,,,,,,,,,,,,,,,,,,,,,,,,,,,,,,,,,,,,,,
,,5caad602a15c9800161ad6d3,2024-02-18_20h18.12.663,kallum_motion_pilot,2023.2.2,Win32,50.25125628,5caad602a15c9800161ad6d3,65d2b6c8f2eece985d8e374c,65d2b9c60cd6bbd3caa87785,0.1338,0.134,1,2,164,151,1,eightseven,,,,,,,,,,,,,,,,,,,,,,,,,,,,,,,,,,,,,,,,,,,,,,,,,,,,,,,,,,,,,,,,,,,,,,,,,,,,,,,,,,,,,,,,,,,,,,,,,,,,,,,,,,,,,,,,,,,,,,,,,,,,,,,,,,,,,,,,,
,,5caad602a15c9800161ad6d3,2024-02-18_20h18.12.663,kallum_motion_pilot,2023.2.2,Win32,50.25125628,5caad602a15c9800161ad6d3,65d2b6c8f2eece985d8e374c,65d2b9c60cd6bbd3caa87785,0.1342,0.1343,1,3,165,117,1,seveneight,,,,,,,,,,,,,,,,,,,,,,,,,,,,,,,,,,,,,,,,,,,,,,,,,,,,,,,,,,,,,,,,,,,,,,,,,,,,,,,,,,,,,,,,,,,,,,,,,,,,,,,,,,,,,,,,,,,,,,,,,,,,,,,,,,,,,,,,,
,,5caad602a15c9800161ad6d3,2024-02-18_20h18.12.663,kallum_motion_pilot,2023.2.2,Win32,50.25125628,5caad602a15c9800161ad6d3,65d2b6c8f2eece985d8e374c,65d2b9c60cd6bbd3caa87785,0.1345,0.1348,1,4,166,29,1,threefour,,,,,,,,,,,,,,,,,,,,,,,,,,,,,,,,,,,,,,,,,,,,,,,,,,,,,,,,,,,,,,,,,,,,,,,,,,,,,,,,,,,,,,,,,,,,,,,,,,,,,,,,,,,,,,,,,,,,,,,,,,,,,,,,,,,,,,,,,
,,5caad602a15c9800161ad6d3,2024-02-18_20h18.12.663,kallum_motion_pilot,2023.2.2,Win32,50.25125628,5caad602a15c9800161ad6d3,65d2b6c8f2eece985d8e374c,65d2b9c60cd6bbd3caa87785,0.135,0.1351,1,5,167,103,1,eightseven,,,,,,,,,,,,,,,,,,,,,,,,,,,,,,,,,,,,,,,,,,,,,,,,,,,,,,,,,,,,,,,,,,,,,,,,,,,,,,,,,,,,,,,,,,,,,,,,,,,,,,,,,,,,,,,,,,,,,,,,,,,,,,,,,,,,,,,,,
,,5caad602a15c9800161ad6d3,2024-02-18_20h18.12.663,kallum_motion_pilot,2023.2.2,Win32,50.25125628,5caad602a15c9800161ad6d3,65d2b6c8f2eece985d8e374c,65d2b9c60cd6bbd3caa87785,0.1353,0.1355,1,6,168,1,1,onethree,,,,,,,,,,,,,,,,,,,,,,,,,,,,,,,,,,,,,,,,,,,,,,,,,,,,,,,,,,,,,,,,,,,,,,,,,,,,,,,,,,,,,,,,,,,,,,,,,,,,,,,,,,,,,,,,,,,,,,,,,,,,,,,,,,,,,,,,,
,,5caad602a15c9800161ad6d3,2024-02-18_20h18.12.663,kallum_motion_pilot,2023.2.2,Win32,50.25125628,5caad602a15c9800161ad6d3,65d2b6c8f2eece985d8e374c,65d2b9c60cd6bbd3caa87785,0.1357,0.1358,1,7,169,144,1,fivesix,,,,,,,,,,,,,,,,,,,,,,,,,,,,,,,,,,,,,,,,,,,,,,,,,,,,,,,,,,,,,,,,,,,,,,,,,,,,,,,,,,,,,,,,,,,,,,,,,,,,,,,,,,,,,,,,,,,,,,,,,,,,,,,,,,,,,,,,,
,,5caad602a15c9800161ad6d3,2024-02-18_20h18.12.663,kallum_motion_pilot,2023.2.2,Win32,50.25125628,5caad602a15c9800161ad6d3,65d2b6c8f2eece985d8e374c,65d2b9c60cd6bbd3caa87785,0.136,0.1363,1,8,170,127,1,eightseven,,,,,,,,,,,,,,,,,,,,,,,,,,,,,,,,,,,,,,,,,,,,,,,,,,,,,,,,,,,,,,,,,,,,,,,,,,,,,,,,,,,,,,,,,,,,,,,,,,,,,,,,,,,,,,,,,,,,,,,,,,,,,,,,,,,,,,,,,
,,5caad602a15c9800161ad6d3,2024-02-18_20h18.12.663,kallum_motion_pilot,2023.2.2,Win32,50.25125628,5caad602a15c9800161ad6d3,65d2b6c8f2eece985d8e374c,65d2b9c60cd6bbd3caa87785,0.1365,0.1366,1,9,171,148,1,sevenfive,,,,,,,,,,,,,,,,,,,,,,,,,,,,,,,,,,,,,,,,,,,,,,,,,,,,,,,,,,,,,,,,,,,,,,,,,,,,,,,,,,,,,,,,,,,,,,,,,,,,,,,,,,,,,,,,,,,,,,,,,,,,,,,,,,,,,,,,,
,,5caad602a15c9800161ad6d3,2024-02-18_20h18.12.663,kallum_motion_pilot,2023.2.2,Win32,50.25125628,5caad602a15c9800161ad6d3,65d2b6c8f2eece985d8e374c,65d2b9c60cd6bbd3caa87785,0.1369,0.137,1,10,172,98,1,sixfive,,,,,,,,,,,,,,,,,,,,,,,,,,,,,,,,,,,,,,,,,,,,,,,,,,,,,,,,,,,,,,,,,,,,,,,,,,,,,,,,,,,,,,,,,,,,,,,,,,,,,,,,,,,,,,,,,,,,,,,,,,,,,,,,,,,,,,,,,
,,5caad602a15c9800161ad6d3,2024-02-18_20h18.12.663,kallum_motion_pilot,2023.2.2,Win32,50.25125628,5caad602a15c9800161ad6d3,65d2b6c8f2eece985d8e374c,65d2b9c60cd6bbd3caa87785,0.1373,0.1374,1,11,173,68,1,threeone,,,,,,,,,,,,,,,,,,,,,,,,,,,,,,,,,,,,,,,,,,,,,,,,,,,,,,,,,,,,,,,,,,,,,,,,,,,,,,,,,,,,,,,,,,,,,,,,,,,,,,,,,,,,,,,,,,,,,,,,,,,,,,,,,,,,,,,,,
,,5caad602a15c9800161ad6d3,2024-02-18_20h18.12.663,kallum_motion_pilot,2023.2.2,Win32,50.25125628,5caad602a15c9800161ad6d3,65d2b6c8f2eece985d8e374c,65d2b9c60cd6bbd3caa87785,0.1376,0.1378,1,12,174,107,1,sixeight,,,,,,,,,,,,,,,,,,,,,,,,,,,,,,,,,,,,,,,,,,,,,,,,,,,,,,,,,,,,,,,,,,,,,,,,,,,,,,,,,,,,,,,,,,,,,,,,,,,,,,,,,,,,,,,,,,,,,,,,,,,,,,,,,,,,,,,,,
,,5caad602a15c9800161ad6d3,2024-02-18_20h18.12.663,kallum_motion_pilot,2023.2.2,Win32,50.25125628,5caad602a15c9800161ad6d3,65d2b6c8f2eece985d8e374c,65d2b9c60cd6bbd3caa87785,0.138,0.1382,1,13,175,136,1,fivesix,,,,,,,,,,,,,,,,,,,,,,,,,,,,,,,,,,,,,,,,,,,,,,,,,,,,,,,,,,,,,,,,,,,,,,,,,,,,,,,,,,,,,,,,,,,,,,,,,,,,,,,,,,,,,,,,,,,,,,,,,,,,,,,,,,,,,,,,,
,,5caad602a15c9800161ad6d3,2024-02-18_20h18.12.663,kallum_motion_pilot,2023.2.2,Win32,50.25125628,5caad602a15c9800161ad6d3,65d2b6c8f2eece985d8e374c,65d2b9c60cd6bbd3caa87785,0.1385,0.1387,1,14,176,48,1,onetwo,,,,,,,,,,,,,,,,,,,,,,,,,,,,,,,,,,,,,,,,,,,,,,,,,,,,,,,,,,,,,,,,,,,,,,,,,,,,,,,,,,,,,,,,,,,,,,,,,,,,,,,,,,,,,,,,,,,,,,,,,,,,,,,,,,,,,,,,,
,,5caad602a15c9800161ad6d3,2024-02-18_20h18.12.663,kallum_motion_pilot,2023.2.2,Win32,50.25125628,5caad602a15c9800161ad6d3,65d2b6c8f2eece985d8e374c,65d2b9c60cd6bbd3caa87785,0.1389,0.1391,1,15,177,11,1,twofour,,,,,,,,,,,,,,,,,,,,,,,,,,,,,,,,,,,,,,,,,,,,,,,,,,,,,,,,,,,,,,,,,,,,,,,,,,,,,,,,,,,,,,,,,,,,,,,,,,,,,,,,,,,,,,,,,,,,,,,,,,,,,,,,,,,,,,,,,
,,5caad602a15c9800161ad6d3,2024-02-18_20h18.12.663,kallum_motion_pilot,2023.2.2,Win32,50.25125628,5caad602a15c9800161ad6d3,65d2b6c8f2eece985d8e374c,65d2b9c60cd6bbd3caa87785,0.1393,0.1395,1,16,178,63,1,fourthree,,,,,,,,,,,,,,,,,,,,,,,,,,,,,,,,,,,,,,,,,,,,,,,,,,,,,,,,,,,,,,,,,,,,,,,,,,,,,,,,,,,,,,,,,,,,,,,,,,,,,,,,,,,,,,,,,,,,,,,,,,,,,,,,,,,,,,,,,
,,5caad602a15c9800161ad6d3,2024-02-18_20h18.12.663,kallum_motion_pilot,2023.2.2,Win32,50.25125628,5caad602a15c9800161ad6d3,65d2b6c8f2eece985d8e374c,65d2b9c60cd6bbd3caa87785,0.1397,0.14,1,17,179,153,1,fiveseven,,,,,,,,,,,,,,,,,,,,,,,,,,,,,,,,,,,,,,,,,,,,,,,,,,,,,,,,,,,,,,,,,,,,,,,,,,,,,,,,,,,,,,,,,,,,,,,,,,,,,,,,,,,,,,,,,,,,,,,,,,,,,,,,,,,,,,,,,
,,5caad602a15c9800161ad6d3,2024-02-18_20h18.12.663,kallum_motion_pilot,2023.2.2,Win32,50.25125628,5caad602a15c9800161ad6d3,65d2b6c8f2eece985d8e374c,65d2b9c60cd6bbd3caa87785,0.1401,0.1403,1,18,180,80,1,fivesix,,,,,,,,,,,,,,,,,,,,,,,,,,,,,,,,,,,,,,,,,,,,,,,,,,,,,,,,,,,,,,,,,,,,,,,,,,,,,,,,,,,,,,,,,,,,,,,,,,,,,,,,,,,,,,,,,,,,,,,,,,,,,,,,,,,,,,,,,
,,5caad602a15c9800161ad6d3,2024-02-18_20h18.12.663,kallum_motion_pilot,2023.2.2,Win32,50.25125628,5caad602a15c9800161ad6d3,65d2b6c8f2eece985d8e374c,65d2b9c60cd6bbd3caa87785,0.1405,0.1406,1,19,181,99,1,sixeight,,,,,,,,,,,,,,,,,,,,,,,,,,,,,,,,,,,,,,,,,,,,,,,,,,,,,,,,,,,,,,,,,,,,,,,,,,,,,,,,,,,,,,,,,,,,,,,,,,,,,,,,,,,,,,,,,,,,,,,,,,,,,,,,,,,,,,,,,
,,5caad602a15c9800161ad6d3,2024-02-18_20h18.12.663,kallum_motion_pilot,2023.2.2,Win32,50.25125628,5caad602a15c9800161ad6d3,65d2b6c8f2eece985d8e374c,65d2b9c60cd6bbd3caa87785,0.1409,0.1411,1,20,182,67,1,twofour,,,,,,,,,,,,,,,,,,,,,,,,,,,,,,,,,,,,,,,,,,,,,,,,,,,,,,,,,,,,,,,,,,,,,,,,,,,,,,,,,,,,,,,,,,,,,,,,,,,,,,,,,,,,,,,,,,,,,,,,,,,,,,,,,,,,,,,,,
,,5caad602a15c9800161ad6d3,2024-02-18_20h18.12.663,kallum_motion_pilot,2023.2.2,Win32,50.25125628,5caad602a15c9800161ad6d3,65d2b6c8f2eece985d8e374c,65d2b9c60cd6bbd3caa87785,0.1413,0.1415,1,21,183,118,1,eightsix,,,,,,,,,,,,,,,,,,,,,,,,,,,,,,,,,,,,,,,,,,,,,,,,,,,,,,,,,,,,,,,,,,,,,,,,,,,,,,,,,,,,,,,,,,,,,,,,,,,,,,,,,,,,,,,,,,,,,,,,,,,,,,,,,,,,,,,,,
,,5caad602a15c9800161ad6d3,2024-02-18_20h18.12.663,kallum_motion_pilot,2023.2.2,Win32,50.25125628,5caad602a15c9800161ad6d3,65d2b6c8f2eece985d8e374c,65d2b9c60cd6bbd3caa87785,0.1417,0.1419,1,22,184,129,1,fiveseven,,,,,,,,,,,,,,,,,,,,,,,,,,,,,,,,,,,,,,,,,,,,,,,,,,,,,,,,,,,,,,,,,,,,,,,,,,,,,,,,,,,,,,,,,,,,,,,,,,,,,,,,,,,,,,,,,,,,,,,,,,,,,,,,,,,,,,,,,
,,5caad602a15c9800161ad6d3,2024-02-18_20h18.12.663,kallum_motion_pilot,2023.2.2,Win32,50.25125628,5caad602a15c9800161ad6d3,65d2b6c8f2eece985d8e374c,65d2b9c60cd6bbd3caa87785,0.1421,0.1423,1,23,185,16,1,onetwo,,,,,,,,,,,,,,,,,,,,,,,,,,,,,,,,,,,,,,,,,,,,,,,,,,,,,,,,,,,,,,,,,,,,,,,,,,,,,,,,,,,,,,,,,,,,,,,,,,,,,,,,,,,,,,,,,,,,,,,,,,,,,,,,,,,,,,,,,
,,5caad602a15c9800161ad6d3,2024-02-18_20h18.12.663,kallum_motion_pilot,2023.2.2,Win32,50.25125628,5caad602a15c9800161ad6d3,65d2b6c8f2eece985d8e374c,65d2b9c60cd6bbd3caa87785,0.1425,0.1427,1,24,186,119,1,eightseven,,,,,,,,,,,,,,,,,,,,,,,,,,,,,,,,,,,,,,,,,,,,,,,,,,,,,,,,,,,,,,,,,,,,,,,,,,,,,,,,,,,,,,,,,,,,,,,,,,,,,,,,,,,,,,,,,,,,,,,,,,,,,,,,,,,,,,,,,
,,5caad602a15c9800161ad6d3,2024-02-18_20h18.12.663,kallum_motion_pilot,2023.2.2,Win32,50.25125628,5caad602a15c9800161ad6d3,65d2b6c8f2eece985d8e374c,65d2b9c60cd6bbd3caa87785,0.1432,0.1435,1,25,187,7,1,fourthree,,,,,,,,,,,,,,,,,,,,,,,,,,,,,,,,,,,,,,,,,,,,,,,,,,,,,,,,,,,,,,,,,,,,,,,,,,,,,,,,,,,,,,,,,,,,,,,,,,,,,,,,,,,,,,,,,,,,,,,,,,,,,,,,,,,,,,,,,
,,5caad602a15c9800161ad6d3,2024-02-18_20h18.12.663,kallum_motion_pilot,2023.2.2,Win32,50.25125628,5caad602a15c9800161ad6d3,65d2b6c8f2eece985d8e374c,65d2b9c60cd6bbd3caa87785,0.1439,0.144,1,26,188,47,1,fourthree,,,,,,,,,,,,,,,,,,,,,,,,,,,,,,,,,,,,,,,,,,,,,,,,,,,,,,,,,,,,,,,,,,,,,,,,,,,,,,,,,,,,,,,,,,,,,,,,,,,,,,,,,,,,,,,,,,,,,,,,,,,,,,,,,,,,,,,,,
,,5caad602a15c9800161ad6d3,2024-02-18_20h18.12.663,kallum_motion_pilot,2023.2.2,Win32,50.25125628,5caad602a15c9800161ad6d3,65d2b6c8f2eece985d8e374c,65d2b9c60cd6bbd3caa87785,0.1443,0.1445,1,27,189,110,1,eightsix,,,,,,,,,,,,,,,,,,,,,,,,,,,,,,,,,,,,,,,,,,,,,,,,,,,,,,,,,,,,,,,,,,,,,,,,,,,,,,,,,,,,,,,,,,,,,,,,,,,,,,,,,,,,,,,,,,,,,,,,,,,,,,,,,,,,,,,,,
,,5caad602a15c9800161ad6d3,2024-02-18_20h18.12.663,kallum_motion_pilot,2023.2.2,Win32,50.25125628,5caad602a15c9800161ad6d3,65d2b6c8f2eece985d8e374c,65d2b9c60cd6bbd3caa87785,0.1446,0.1449,1,28,190,120,1,fivesix,,,,,,,,,,,,,,,,,,,,,,,,,,,,,,,,,,,,,,,,,,,,,,,,,,,,,,,,,,,,,,,,,,,,,,,,,,,,,,,,,,,,,,,,,,,,,,,,,,,,,,,,,,,,,,,,,,,,,,,,,,,,,,,,,,,,,,,,,
,,5caad602a15c9800161ad6d3,2024-02-18_20h18.12.663,kallum_motion_pilot,2023.2.2,Win32,50.25125628,5caad602a15c9800161ad6d3,65d2b6c8f2eece985d8e374c,65d2b9c60cd6bbd3caa87785,0.1451,0.1453,1,29,191,8,1,onetwo,,,,,,,,,,,,,,,,,,,,,,,,,,,,,,,,,,,,,,,,,,,,,,,,,,,,,,,,,,,,,,,,,,,,,,,,,,,,,,,,,,,,,,,,,,,,,,,,,,,,,,,,,,,,,,,,,,,,,,,,,,,,,,,,,,,,,,,,,
,,5caad602a15c9800161ad6d3,2024-02-18_20h18.12.663,kallum_motion_pilot,2023.2.2,Win32,50.25125628,5caad602a15c9800161ad6d3,65d2b6c8f2eece985d8e374c,65d2b9c60cd6bbd3caa87785,0.1454,0.1457,1,30,192,139,1,sixeight,,,,,,,,,,,,,,,,,,,,,,,,,,,,,,,,,,,,,,,,,,,,,,,,,,,,,,,,,,,,,,,,,,,,,,,,,,,,,,,,,,,,,,,,,,,,,,,,,,,,,,,,,,,,,,,,,,,,,,,,,,,,,,,,,,,,,,,,,
,,5caad602a15c9800161ad6d3,2024-02-18_20h18.12.663,kallum_motion_pilot,2023.2.2,Win32,50.25125628,5caad602a15c9800161ad6d3,65d2b6c8f2eece985d8e374c,65d2b9c60cd6bbd3caa87785,0.1458,0.1461,1,31,193,40,1,onetwo,,,,,,,,,,,,,,,,,,,,,,,,,,,,,,,,,,,,,,,,,,,,,,,,,,,,,,,,,,,,,,,,,,,,,,,,,,,,,,,,,,,,,,,,,,,,,,,,,,,,,,,,,,,,,,,,,,,,,,,,,,,,,,,,,,,,,,,,,
,,5caad602a15c9800161ad6d3,2024-02-18_20h18.12.663,kallum_motion_pilot,2023.2.2,Win32,50.25125628,5caad602a15c9800161ad6d3,65d2b6c8f2eece985d8e374c,65d2b9c60cd6bbd3caa87785,0.1463,0.1465,1,32,194,147,1,sixeight,,,,,,,,,,,,,,,,,,,,,,,,,,,,,,,,,,,,,,,,,,,,,,,,,,,,,,,,,,,,,,,,,,,,,,,,,,,,,,,,,,,,,,,,,,,,,,,,,,,,,,,,,,,,,,,,,,,,,,,,,,,,,,,,,,,,,,,,,
,,5caad602a15c9800161ad6d3,2024-02-18_20h18.12.663,kallum_motion_pilot,2023.2.2,Win32,50.25125628,5caad602a15c9800161ad6d3,65d2b6c8f2eece985d8e374c,65d2b9c60cd6bbd3caa87785,0.1467,0.1469,1,33,195,77,1,threefour,,,,,,,,,,,,,,,,,,,,,,,,,,,,,,,,,,,,,,,,,,,,,,,,,,,,,,,,,,,,,,,,,,,,,,,,,,,,,,,,,,,,,,,,,,,,,,,,,,,,,,,,,,,,,,,,,,,,,,,,,,,,,,,,,,,,,,,,,
,,5caad602a15c9800161ad6d3,2024-02-18_20h18.12.663,kallum_motion_pilot,2023.2.2,Win32,50.25125628,5caad602a15c9800161ad6d3,65d2b6c8f2eece985d8e374c,65d2b9c60cd6bbd3caa87785,0.1473,0.1474,1,34,196,154,1,sixfive,,,,,,,,,,,,,,,,,,,,,,,,,,,,,,,,,,,,,,,,,,,,,,,,,,,,,,,,,,,,,,,,,,,,,,,,,,,,,,,,,,,,,,,,,,,,,,,,,,,,,,,,,,,,,,,,,,,,,,,,,,,,,,,,,,,,,,,,,
,,5caad602a15c9800161ad6d3,2024-02-18_20h18.12.663,kallum_motion_pilot,2023.2.2,Win32,50.25125628,5caad602a15c9800161ad6d3,65d2b6c8f2eece985d8e374c,65d2b9c60cd6bbd3caa87785,0.1477,0.1478,1,35,197,53,1,threefour,,,,,,,,,,,,,,,,,,,,,,,,,,,,,,,,,,,,,,,,,,,,,,,,,,,,,,,,,,,,,,,,,,,,,,,,,,,,,,,,,,,,,,,,,,,,,,,,,,,,,,,,,,,,,,,,,,,,,,,,,,,,,,,,,,,,,,,,,
,,5caad602a15c9800161ad6d3,2024-02-18_20h18.12.663,kallum_motion_pilot,2023.2.2,Win32,50.25125628,5caad602a15c9800161ad6d3,65d2b6c8f2eece985d8e374c,65d2b9c60cd6bbd3caa87785,0.148,0.1482,1,36,198,114,1,sixfive,,,,,,,,,,,,,,,,,,,,,,,,,,,,,,,,,,,,,,,,,,,,,,,,,,,,,,,,,,,,,,,,,,,,,,,,,,,,,,,,,,,,,,,,,,,,,,,,,,,,,,,,,,,,,,,,,,,,,,,,,,,,,,,,,,,,,,,,,
,,5caad602a15c9800161ad6d3,2024-02-18_20h18.12.663,kallum_motion_pilot,2023.2.2,Win32,50.25125628,5caad602a15c9800161ad6d3,65d2b6c8f2eece985d8e374c,65d2b9c60cd6bbd3caa87785,0.1484,0.1485,1,37,199,125,1,seveneight,,,,,,,,,,,,,,,,,,,,,,,,,,,,,,,,,,,,,,,,,,,,,,,,,,,,,,,,,,,,,,,,,,,,,,,,,,,,,,,,,,,,,,,,,,,,,,,,,,,,,,,,,,,,,,,,,,,,,,,,,,,,,,,,,,,,,,,,,
,,5caad602a15c9800161ad6d3,2024-02-18_20h18.12.663,kallum_motion_pilot,2023.2.2,Win32,50.25125628,5caad602a15c9800161ad6d3,65d2b6c8f2eece985d8e374c,65d2b9c60cd6bbd3caa87785,0.1488,0.149,1,38,200,36,1,threeone,,,,,,,,,,,,,,,,,,,,,,,,,,,,,,,,,,,,,,,,,,,,,,,,,,,,,,,,,,,,,,,,,,,,,,,,,,,,,,,,,,,,,,,,,,,,,,,,,,,,,,,,,,,,,,,,,,,,,,,,,,,,,,,,,,,,,,,,,
,,5caad602a15c9800161ad6d3,2024-02-18_20h18.12.663,kallum_motion_pilot,2023.2.2,Win32,50.25125628,5caad602a15c9800161ad6d3,65d2b6c8f2eece985d8e374c,65d2b9c60cd6bbd3caa87785,0.1493,0.1494,1,39,201,112,1,fivesix,,,,,,,,,,,,,,,,,,,,,,,,,,,,,,,,,,,,,,,,,,,,,,,,,,,,,,,,,,,,,,,,,,,,,,,,,,,,,,,,,,,,,,,,,,,,,,,,,,,,,,,,,,,,,,,,,,,,,,,,,,,,,,,,,,,,,,,,,
,,5caad602a15c9800161ad6d3,2024-02-18_20h18.12.663,kallum_motion_pilot,2023.2.2,Win32,50.25125628,5caad602a15c9800161ad6d3,65d2b6c8f2eece985d8e374c,65d2b9c60cd6bbd3caa87785,0.1496,0.1498,1,40,202,31,1,fourthree,,,,,,,,,,,,,,,,,,,,,,,,,,,,,,,,,,,,,,,,,,,,,,,,,,,,,,,,,,,,,,,,,,,,,,,,,,,,,,,,,,,,,,,,,,,,,,,,,,,,,,,,,,,,,,,,,,,,,,,,,,,,,,,,,,,,,,,,,
,,5caad602a15c9800161ad6d3,2024-02-18_20h18.12.663,kallum_motion_pilot,2023.2.2,Win32,50.25125628,5caad602a15c9800161ad6d3,65d2b6c8f2eece985d8e374c,65d2b9c60cd6bbd3caa87785,0.15,0.1502,1,41,203,5,1,threefour,,,,,,,,,,,,,,,,,,,,,,,,,,,,,,,,,,,,,,,,,,,,,,,,,,,,,,,,,,,,,,,,,,,,,,,,,,,,,,,,,,,,,,,,,,,,,,,,,,,,,,,,,,,,,,,,,,,,,,,,,,,,,,,,,,,,,,,,,
,,5caad602a15c9800161ad6d3,2024-02-18_20h18.12.663,kallum_motion_pilot,2023.2.2,Win32,50.25125628,5caad602a15c9800161ad6d3,65d2b6c8f2eece985d8e374c,65d2b9c60cd6bbd3caa87785,0.1504,0.1505,1,42,204,18,1,twoone,,,,,,,,,,,,,,,,,,,,,,,,,,,,,,,,,,,,,,,,,,,,,,,,,,,,,,,,,,,,,,,,,,,,,,,,,,,,,,,,,,,,,,,,,,,,,,,,,,,,,,,,,,,,,,,,,,,,,,,,,,,,,,,,,,,,,,,,,
,,5caad602a15c9800161ad6d3,2024-02-18_20h18.12.663,kallum_motion_pilot,2023.2.2,Win32,50.25125628,5caad602a15c9800161ad6d3,65d2b6c8f2eece985d8e374c,65d2b9c60cd6bbd3caa87785,0.1508,0.151,1,43,205,141,1,seveneight,,,,,,,,,,,,,,,,,,,,,,,,,,,,,,,,,,,,,,,,,,,,,,,,,,,,,,,,,,,,,,,,,,,,,,,,,,,,,,,,,,,,,,,,,,,,,,,,,,,,,,,,,,,,,,,,,,,,,,,,,,,,,,,,,,,,,,,,,
,,5caad602a15c9800161ad6d3,2024-02-18_20h18.12.663,kallum_motion_pilot,2023.2.2,Win32,50.25125628,5caad602a15c9800161ad6d3,65d2b6c8f2eece985d8e374c,65d2b9c60cd6bbd3caa87785,0.1512,0.1513,1,44,206,89,1,fiveseven,,,,,,,,,,,,,,,,,,,,,,,,,,,,,,,,,,,,,,,,,,,,,,,,,,,,,,,,,,,,,,,,,,,,,,,,,,,,,,,,,,,,,,,,,,,,,,,,,,,,,,,,,,,,,,,,,,,,,,,,,,,,,,,,,,,,,,,,,
,,5caad602a15c9800161ad6d3,2024-02-18_20h18.12.663,kallum_motion_pilot,2023.2.2,Win32,50.25125628,5caad602a15c9800161ad6d3,65d2b6c8f2eece985d8e374c,65d2b9c60cd6bbd3caa87785,0.1516,0.1517,1,45,207,6,1,fourtwo,,,,,,,,,,,,,,,,,,,,,,,,,,,,,,,,,,,,,,,,,,,,,,,,,,,,,,,,,,,,,,,,,,,,,,,,,,,,,,,,,,,,,,,,,,,,,,,,,,,,,,,,,,,,,,,,,,,,,,,,,,,,,,,,,,,,,,,,,
,,5caad602a15c9800161ad6d3,2024-02-18_20h18.12.663,kallum_motion_pilot,2023.2.2,Win32,50.25125628,5caad602a15c9800161ad6d3,65d2b6c8f2eece985d8e374c,65d2b9c60cd6bbd3caa87785,0.152,0.1522,1,46,208,111,1,eightseven,,,,,,,,,,,,,,,,,,,,,,,,,,,,,,,,,,,,,,,,,,,,,,,,,,,,,,,,,,,,,,,,,,,,,,,,,,,,,,,,,,,,,,,,,,,,,,,,,,,,,,,,,,,,,,,,,,,,,,,,,,,,,,,,,,,,,,,,,
,,5caad602a15c9800161ad6d3,2024-02-18_20h18.12.663,kallum_motion_pilot,2023.2.2,Win32,50.25125628,5caad602a15c9800161ad6d3,65d2b6c8f2eece985d8e374c,65d2b9c60cd6bbd3caa87785,0.1524,0.1525,1,47,209,157,1,seveneight,,,,,,,,,,,,,,,,,,,,,,,,,,,,,,,,,,,,,,,,,,,,,,,,,,,,,,,,,,,,,,,,,,,,,,,,,,,,,,,,,,,,,,,,,,,,,,,,,,,,,,,,,,,,,,,,,,,,,,,,,,,,,,,,,,,,,,,,,
,,5caad602a15c9800161ad6d3,2024-02-18_20h18.12.663,kallum_motion_pilot,2023.2.2,Win32,50.25125628,5caad602a15c9800161ad6d3,65d2b6c8f2eece985d8e374c,65d2b9c60cd6bbd3caa87785,0.1527,0.1529,1,48,210,73,1,onethree,,,,,,,,,,,,,,,,,,,,,,,,,,,,,,,,,,,,,,,,,,,,,,,,,,,,,,,,,,,,,,,,,,,,,,,,,,,,,,,,,,,,,,,,,,,,,,,,,,,,,,,,,,,,,,,,,,,,,,,,,,,,,,,,,,,,,,,,,
,,5caad602a15c9800161ad6d3,2024-02-18_20h18.12.663,kallum_motion_pilot,2023.2.2,Win32,50.25125628,5caad602a15c9800161ad6d3,65d2b6c8f2eece985d8e374c,65d2b9c60cd6bbd3caa87785,0.1532,0.1533,1,49,211,135,1,eightseven,,,,,,,,,,,,,,,,,,,,,,,,,,,,,,,,,,,,,,,,,,,,,,,,,,,,,,,,,,,,,,,,,,,,,,,,,,,,,,,,,,,,,,,,,,,,,,,,,,,,,,,,,,,,,,,,,,,,,,,,,,,,,,,,,,,,,,,,,
,,5caad602a15c9800161ad6d3,2024-02-18_20h18.12.663,kallum_motion_pilot,2023.2.2,Win32,50.25125628,5caad602a15c9800161ad6d3,65d2b6c8f2eece985d8e374c,65d2b9c60cd6bbd3caa87785,0.1535,0.1537,1,50,212,17,1,onethree,,,,,,,,,,,,,,,,,,,,,,,,,,,,,,,,,,,,,,,,,,,,,,,,,,,,,,,,,,,,,,,,,,,,,,,,,,,,,,,,,,,,,,,,,,,,,,,,,,,,,,,,,,,,,,,,,,,,,,,,,,,,,,,,,,,,,,,,,
,,5caad602a15c9800161ad6d3,2024-02-18_20h18.12.663,kallum_motion_pilot,2023.2.2,Win32,50.25125628,5caad602a15c9800161ad6d3,65d2b6c8f2eece985d8e374c,65d2b9c60cd6bbd3caa87785,0.154,0.1542,1,51,213,95,1,eightseven,,,,,,,,,,,,,,,,,,,,,,,,,,,,,,,,,,,,,,,,,,,,,,,,,,,,,,,,,,,,,,,,,,,,,,,,,,,,,,,,,,,,,,,,,,,,,,,,,,,,,,,,,,,,,,,,,,,,,,,,,,,,,,,,,,,,,,,,,
,,5caad602a15c9800161ad6d3,2024-02-18_20h18.12.663,kallum_motion_pilot,2023.2.2,Win32,50.25125628,5caad602a15c9800161ad6d3,65d2b6c8f2eece985d8e374c,65d2b9c60cd6bbd3caa87785,0.1543,0.1545,1,52,214,57,1,onethree,,,,,,,,,,,,,,,,,,,,,,,,,,,,,,,,,,,,,,,,,,,,,,,,,,,,,,,,,,,,,,,,,,,,,,,,,,,,,,,,,,,,,,,,,,,,,,,,,,,,,,,,,,,,,,,,,,,,,,,,,,,,,,,,,,,,,,,,,
,,5caad602a15c9800161ad6d3,2024-02-18_20h18.12.663,kallum_motion_pilot,2023.2.2,Win32,50.25125628,5caad602a15c9800161ad6d3,65d2b6c8f2eece985d8e374c,65d2b9c60cd6bbd3caa87785,0.1547,0.1549,1,53,215,132,1,sevenfive,,,,,,,,,,,,,,,,,,,,,,,,,,,,,,,,,,,,,,,,,,,,,,,,,,,,,,,,,,,,,,,,,,,,,,,,,,,,,,,,,,,,,,,,,,,,,,,,,,,,,,,,,,,,,,,,,,,,,,,,,,,,,,,,,,,,,,,,,
,,5caad602a15c9800161ad6d3,2024-02-18_20h18.12.663,kallum_motion_pilot,2023.2.2,Win32,50.25125628,5caad602a15c9800161ad6d3,65d2b6c8f2eece985d8e374c,65d2b9c60cd6bbd3caa87785,0.1551,0.1554,1,54,216,41,1,onethree,,,,,,,,,,,,,,,,,,,,,,,,,,,,,,,,,,,,,,,,,,,,,,,,,,,,,,,,,,,,,,,,,,,,,,,,,,,,,,,,,,,,,,,,,,,,,,,,,,,,,,,,,,,,,,,,,,,,,,,,,,,,,,,,,,,,,,,,,
,,5caad602a15c9800161ad6d3,2024-02-18_20h18.12.663,kallum_motion_pilot,2023.2.2,Win32,50.25125628,5caad602a15c9800161ad6d3,65d2b6c8f2eece985d8e374c,65d2b9c60cd6bbd3caa87785,0.1555,0.1557,1,55,217,46,1,fourtwo,,,,,,,,,,,,,,,,,,,,,,,,,,,,,,,,,,,,,,,,,,,,,,,,,,,,,,,,,,,,,,,,,,,,,,,,,,,,,,,,,,,,,,,,,,,,,,,,,,,,,,,,,,,,,,,,,,,,,,,,,,,,,,,,,,,,,,,,,
,,5caad602a15c9800161ad6d3,2024-02-18_20h18.12.663,kallum_motion_pilot,2023.2.2,Win32,50.25125628,5caad602a15c9800161ad6d3,65d2b6c8f2eece985d8e374c,65d2b9c60cd6bbd3caa87785,0.1559,0.1561,1,56,218,126,1,eightsix,,,,,,,,,,,,,,,,,,,,,,,,,,,,,,,,,,,,,,,,,,,,,,,,,,,,,,,,,,,,,,,,,,,,,,,,,,,,,,,,,,,,,,,,,,,,,,,,,,,,,,,,,,,,,,,,,,,,,,,,,,,,,,,,,,,,,,,,,
,,5caad602a15c9800161ad6d3,2024-02-18_20h18.12.663,kallum_motion_pilot,2023.2.2,Win32,50.25125628,5caad602a15c9800161ad6d3,65d2b6c8f2eece985d8e374c,65d2b9c60cd6bbd3caa87785,0.1564,0.1565,1,57,219,66,1,twoone,,,,,,,,,,,,,,,,,,,,,,,,,,,,,,,,,,,,,,,,,,,,,,,,,,,,,,,,,,,,,,,,,,,,,,,,,,,,,,,,,,,,,,,,,,,,,,,,,,,,,,,,,,,,,,,,,,,,,,,,,,,,,,,,,,,,,,,,,
,,5caad602a15c9800161ad6d3,2024-02-18_20h18.12.663,kallum_motion_pilot,2023.2.2,Win32,50.25125628,5caad602a15c9800161ad6d3,65d2b6c8f2eece985d8e374c,65d2b9c60cd6bbd3caa87785,0.1567,0.1569,1,58,220,65,1,onethree,,,,,,,,,,,,,,,,,,,,,,,,,,,,,,,,,,,,,,,,,,,,,,,,,,,,,,,,,,,,,,,,,,,,,,,,,,,,,,,,,,,,,,,,,,,,,,,,,,,,,,,,,,,,,,,,,,,,,,,,,,,,,,,,,,,,,,,,,
,,5caad602a15c9800161ad6d3,2024-02-18_20h18.12.663,kallum_motion_pilot,2023.2.2,Win32,50.25125628,5caad602a15c9800161ad6d3,65d2b6c8f2eece985d8e374c,65d2b9c60cd6bbd3caa87785,0.1572,0.1574,1,59,221,108,1,sevenfive,,,,,,,,,,,,,,,,,,,,,,,,,,,,,,,,,,,,,,,,,,,,,,,,,,,,,,,,,,,,,,,,,,,,,,,,,,,,,,,,,,,,,,,,,,,,,,,,,,,,,,,,,,,,,,,,,,,,,,,,,,,,,,,,,,,,,,,,,
,,5caad602a15c9800161ad6d3,2024-02-18_20h18.12.663,kallum_motion_pilot,2023.2.2,Win32,50.25125628,5caad602a15c9800161ad6d3,65d2b6c8f2eece985d8e374c,65d2b9c60cd6bbd3caa87785,0.1575,0.1577,1,60,222,146,1,sixfive,,,,,,,,,,,,,,,,,,,,,,,,,,,,,,,,,,,,,,,,,,,,,,,,,,,,,,,,,,,,,,,,,,,,,,,,,,,,,,,,,,,,,,,,,,,,,,,,,,,,,,,,,,,,,,,,,,,,,,,,,,,,,,,,,,,,,,,,,
,,5caad602a15c9800161ad6d3,2024-02-18_20h18.12.663,kallum_motion_pilot,2023.2.2,Win32,50.25125628,5caad602a15c9800161ad6d3,65d2b6c8f2eece985d8e374c,65d2b9c60cd6bbd3caa87785,0.1581,0.1583,1,61,223,24,1,onetwo,,,,,,,,,,,,,,,,,,,,,,,,,,,,,,,,,,,,,,,,,,,,,,,,,,,,,,,,,,,,,,,,,,,,,,,,,,,,,,,,,,,,,,,,,,,,,,,,,,,,,,,,,,,,,,,,,,,,,,,,,,,,,,,,,,,,,,,,,
,,5caad602a15c9800161ad6d3,2024-02-18_20h18.12.663,kallum_motion_pilot,2023.2.2,Win32,50.25125628,5caad602a15c9800161ad6d3,65d2b6c8f2eece985d8e374c,65d2b9c60cd6bbd3caa87785,0.1584,0.1587,1,62,224,93,1,seveneight,,,,,,,,,,,,,,,,,,,,,,,,,,,,,,,,,,,,,,,,,,,,,,,,,,,,,,,,,,,,,,,,,,,,,,,,,,,,,,,,,,,,,,,,,,,,,,,,,,,,,,,,,,,,,,,,,,,,,,,,,,,,,,,,,,,,,,,,,
,,5caad602a15c9800161ad6d3,2024-02-18_20h18.12.663,kallum_motion_pilot,2023.2.2,Win32,50.25125628,5caad602a15c9800161ad6d3,65d2b6c8f2eece985d8e374c,65d2b9c60cd6bbd3caa87785,0.1588,0.159,1,63,225,87,1,eightseven,,,,,,,,,,,,,,,,,,,,,,,,,,,,,,,,,,,,,,,,,,,,,,,,,,,,,,,,,,,,,,,,,,,,,,,,,,,,,,,,,,,,,,,,,,,,,,,,,,,,,,,,,,,,,,,,,,,,,,,,,,,,,,,,,,,,,,,,,
,,5caad602a15c9800161ad6d3,2024-02-18_20h18.12.663,kallum_motion_pilot,2023.2.2,Win32,50.25125628,5caad602a15c9800161ad6d3,65d2b6c8f2eece985d8e374c,65d2b9c60cd6bbd3caa87785,0.1593,0.1595,1,64,226,161,1,fiveseven,,,,,,,,,,,,,,,,,,,,,,,,,,,,,,,,,,,,,,,,,,,,,,,,,,,,,,,,,,,,,,,,,,,,,,,,,,,,,,,,,,,,,,,,,,,,,,,,,,,,,,,,,,,,,,,,,,,,,,,,,,,,,,,,,,,,,,,,,
,,5caad602a15c9800161ad6d3,2024-02-18_20h18.12.663,kallum_motion_pilot,2023.2.2,Win32,50.25125628,5caad602a15c9800161ad6d3,65d2b6c8f2eece985d8e374c,65d2b9c60cd6bbd3caa87785,0.1597,0.16,1,65,227,156,1,sevenfive,,,,,,,,,,,,,,,,,,,,,,,,,,,,,,,,,,,,,,,,,,,,,,,,,,,,,,,,,,,,,,,,,,,,,,,,,,,,,,,,,,,,,,,,,,,,,,,,,,,,,,,,,,,,,,,,,,,,,,,,,,,,,,,,,,,,,,,,,
,,5caad602a15c9800161ad6d3,2024-02-18_20h18.12.663,kallum_motion_pilot,2023.2.2,Win32,50.25125628,5caad602a15c9800161ad6d3,65d2b6c8f2eece985d8e374c,65d2b9c60cd6bbd3caa87785,0.1602,0.1604,1,66,228,124,1,sevenfive,,,,,,,,,,,,,,,,,,,,,,,,,,,,,,,,,,,,,,,,,,,,,,,,,,,,,,,,,,,,,,,,,,,,,,,,,,,,,,,,,,,,,,,,,,,,,,,,,,,,,,,,,,,,,,,,,,,,,,,,,,,,,,,,,,,,,,,,,
,,5caad602a15c9800161ad6d3,2024-02-18_20h18.12.663,kallum_motion_pilot,2023.2.2,Win32,50.25125628,5caad602a15c9800161ad6d3,65d2b6c8f2eece985d8e374c,65d2b9c60cd6bbd3caa87785,0.1605,0.1608,1,67,229,20,1,threeone,,,,,,,,,,,,,,,,,,,,,,,,,,,,,,,,,,,,,,,,,,,,,,,,,,,,,,,,,,,,,,,,,,,,,,,,,,,,,,,,,,,,,,,,,,,,,,,,,,,,,,,,,,,,,,,,,,,,,,,,,,,,,,,,,,,,,,,,,
,,5caad602a15c9800161ad6d3,2024-02-18_20h18.12.663,kallum_motion_pilot,2023.2.2,Win32,50.25125628,5caad602a15c9800161ad6d3,65d2b6c8f2eece985d8e374c,65d2b9c60cd6bbd3caa87785,0.161,0.1612,1,68,230,2,1,twoone,,,,,,,,,,,,,,,,,,,,,,,,,,,,,,,,,,,,,,,,,,,,,,,,,,,,,,,,,,,,,,,,,,,,,,,,,,,,,,,,,,,,,,,,,,,,,,,,,,,,,,,,,,,,,,,,,,,,,,,,,,,,,,,,,,,,,,,,,
,,5caad602a15c9800161ad6d3,2024-02-18_20h18.12.663,kallum_motion_pilot,2023.2.2,Win32,50.25125628,5caad602a15c9800161ad6d3,65d2b6c8f2eece985d8e374c,65d2b9c60cd6bbd3caa87785,0.1613,0.1615,1,69,231,10,1,twoone,,,,,,,,,,,,,,,,,,,,,,,,,,,,,,,,,,,,,,,,,,,,,,,,,,,,,,,,,,,,,,,,,,,,,,,,,,,,,,,,,,,,,,,,,,,,,,,,,,,,,,,,,,,,,,,,,,,,,,,,,,,,,,,,,,,,,,,,,
,,5caad602a15c9800161ad6d3,2024-02-18_20h18.12.663,kallum_motion_pilot,2023.2.2,Win32,50.25125628,5caad602a15c9800161ad6d3,65d2b6c8f2eece985d8e374c,65d2b9c60cd6bbd3caa87785,0.1617,0.1619,1,70,232,45,1,threefour,,,,,,,,,,,,,,,,,,,,,,,,,,,,,,,,,,,,,,,,,,,,,,,,,,,,,,,,,,,,,,,,,,,,,,,,,,,,,,,,,,,,,,,,,,,,,,,,,,,,,,,,,,,,,,,,,,,,,,,,,,,,,,,,,,,,,,,,,
,,5caad602a15c9800161ad6d3,2024-02-18_20h18.12.663,kallum_motion_pilot,2023.2.2,Win32,50.25125628,5caad602a15c9800161ad6d3,65d2b6c8f2eece985d8e374c,65d2b9c60cd6bbd3caa87785,0.1621,0.1622,1,71,233,14,1,fourtwo,,,,,,,,,,,,,,,,,,,,,,,,,,,,,,,,,,,,,,,,,,,,,,,,,,,,,,,,,,,,,,,,,,,,,,,,,,,,,,,,,,,,,,,,,,,,,,,,,,,,,,,,,,,,,,,,,,,,,,,,,,,,,,,,,,,,,,,,,
,,5caad602a15c9800161ad6d3,2024-02-18_20h18.12.663,kallum_motion_pilot,2023.2.2,Win32,50.25125628,5caad602a15c9800161ad6d3,65d2b6c8f2eece985d8e374c,65d2b9c60cd6bbd3caa87785,0.1625,0.1626,1,72,234,82,1,sixfive,,,,,,,,,,,,,,,,,,,,,,,,,,,,,,,,,,,,,,,,,,,,,,,,,,,,,,,,,,,,,,,,,,,,,,,,,,,,,,,,,,,,,,,,,,,,,,,,,,,,,,,,,,,,,,,,,,,,,,,,,,,,,,,,,,,,,,,,,
,,5caad602a15c9800161ad6d3,2024-02-18_20h18.12.663,kallum_motion_pilot,2023.2.2,Win32,50.25125628,5caad602a15c9800161ad6d3,65d2b6c8f2eece985d8e374c,65d2b9c60cd6bbd3caa87785,0.1628,0.1631,1,73,235,130,1,sixfive,,,,,,,,,,,,,,,,,,,,,,,,,,,,,,,,,,,,,,,,,,,,,,,,,,,,,,,,,,,,,,,,,,,,,,,,,,,,,,,,,,,,,,,,,,,,,,,,,,,,,,,,,,,,,,,,,,,,,,,,,,,,,,,,,,,,,,,,,
,,5caad602a15c9800161ad6d3,2024-02-18_20h18.12.663,kallum_motion_pilot,2023.2.2,Win32,50.25125628,5caad602a15c9800161ad6d3,65d2b6c8f2eece985d8e374c,65d2b9c60cd6bbd3caa87785,0.1634,0.1636,1,74,236,51,1,twofour,,,,,,,,,,,,,,,,,,,,,,,,,,,,,,,,,,,,,,,,,,,,,,,,,,,,,,,,,,,,,,,,,,,,,,,,,,,,,,,,,,,,,,,,,,,,,,,,,,,,,,,,,,,,,,,,,,,,,,,,,,,,,,,,,,,,,,,,,
,,5caad602a15c9800161ad6d3,2024-02-18_20h18.12.663,kallum_motion_pilot,2023.2.2,Win32,50.25125628,5caad602a15c9800161ad6d3,65d2b6c8f2eece985d8e374c,65d2b9c60cd6bbd3caa87785,0.1638,0.164,1,75,237,142,1,eightsix,,,,,,,,,,,,,,,,,,,,,,,,,,,,,,,,,,,,,,,,,,,,,,,,,,,,,,,,,,,,,,,,,,,,,,,,,,,,,,,,,,,,,,,,,,,,,,,,,,,,,,,,,,,,,,,,,,,,,,,,,,,,,,,,,,,,,,,,,
,,5caad602a15c9800161ad6d3,2024-02-18_20h18.12.663,kallum_motion_pilot,2023.2.2,Win32,50.25125628,5caad602a15c9800161ad6d3,65d2b6c8f2eece985d8e374c,65d2b9c60cd6bbd3caa87785,0.1642,0.1644,1,76,238,62,1,fourtwo,,,,,,,,,,,,,,,,,,,,,,,,,,,,,,,,,,,,,,,,,,,,,,,,,,,,,,,,,,,,,,,,,,,,,,,,,,,,,,,,,,,,,,,,,,,,,,,,,,,,,,,,,,,,,,,,,,,,,,,,,,,,,,,,,,,,,,,,,
,,5caad602a15c9800161ad6d3,2024-02-18_20h18.12.663,kallum_motion_pilot,2023.2.2,Win32,50.25125628,5caad602a15c9800161ad6d3,65d2b6c8f2eece985d8e374c,65d2b9c60cd6bbd3caa87785,0.1646,0.1648,1,77,239,159,1,eightseven,,,,,,,,,,,,,,,,,,,,,,,,,,,,,,,,,,,,,,,,,,,,,,,,,,,,,,,,,,,,,,,,,,,,,,,,,,,,,,,,,,,,,,,,,,,,,,,,,,,,,,,,,,,,,,,,,,,,,,,,,,,,,,,,,,,,,,,,,
,,5caad602a15c9800161ad6d3,2024-02-18_20h18.12.663,kallum_motion_pilot,2023.2.2,Win32,50.25125628,5caad602a15c9800161ad6d3,65d2b6c8f2eece985d8e374c,65d2b9c60cd6bbd3caa87785,0.165,0.1653,1,78,240,30,1,fourtwo,,,,,,,,,,,,,,,,,,,,,,,,,,,,,,,,,,,,,,,,,,,,,,,,,,,,,,,,,,,,,,,,,,,,,,,,,,,,,,,,,,,,,,,,,,,,,,,,,,,,,,,,,,,,,,,,,,,,,,,,,,,,,,,,,,,,,,,,,
,,5caad602a15c9800161ad6d3,2024-02-18_20h18.12.663,kallum_motion_pilot,2023.2.2,Win32,50.25125628,5caad602a15c9800161ad6d3,65d2b6c8f2eece985d8e374c,65d2b9c60cd6bbd3caa87785,0.1655,0.1657,1,79,241,52,1,threeone,,,,,,,,,,,,,,,,,,,,,,,,,,,,,,,,,,,,,,,,,,,,,,,,,,,,,,,,,,,,,,,,,,,,,,,,,,,,,,,,,,,,,,,,,,,,,,,,,,,,,,,,,,,,,,,,,,,,,,,,,,,,,,,,,,,,,,,,,
,,5caad602a15c9800161ad6d3,2024-02-18_20h18.12.663,kallum_motion_pilot,2023.2.2,Win32,50.25125628,5caad602a15c9800161ad6d3,65d2b6c8f2eece985d8e374c,65d2b9c60cd6bbd3caa87785,0.1659,0.1661,1,80,242,131,1,sixeight,,,,,,,,,,,,,,,,,,,,,,,,,,,,,,,,,,,,,,,,,,,,,,,,,,,,,,,,,,,,,,,,,,,,,,,,,,,,,,,,,,,,,,,,,,,,,,,,,,,,,,,,,,,,,,,,,,,,,,,,,,,,,,,,,,,,,,,,,
,,5caad602a15c9800161ad6d3,2024-02-18_20h18.12.663,kallum_motion_pilot,2023.2.2,Win32,50.25125628,5caad602a15c9800161ad6d3,65d2b6c8f2eece985d8e374c,65d2b9c60cd6bbd3caa87785,0.1663,0.1665,1,81,243,88,1,fivesix,,,,,,,,,,,,,,,,,,,,,,,,,,,,,,,,,,,,,,,,,,,,,,,,,,,,,,,,,,,,,,,,,,,,,,,,,,,,,,,,,,,,,,,,,,,,,,,,,,,,,,,,,,,,,,,,,,,,,,,,,,,,,,,,,,,,,,,,,
,,5caad602a15c9800161ad6d3,2024-02-18_20h18.12.663,kallum_motion_pilot,2023.2.2,Win32,50.25125628,5caad602a15c9800161ad6d3,65d2b6c8f2eece985d8e374c,65d2b9c60cd6bbd3caa87785,0.1667,0.167,1,82,244,70,1,fourtwo,,,,,,,,,,,,,,,,,,,,,,,,,,,,,,,,,,,,,,,,,,,,,,,,,,,,,,,,,,,,,,,,,,,,,,,,,,,,,,,,,,,,,,,,,,,,,,,,,,,,,,,,,,,,,,,,,,,,,,,,,,,,,,,,,,,,,,,,,
,,5caad602a15c9800161ad6d3,2024-02-18_20h18.12.663,kallum_motion_pilot,2023.2.2,Win32,50.25125628,5caad602a15c9800161ad6d3,65d2b6c8f2eece985d8e374c,65d2b9c60cd6bbd3caa87785,0.1672,0.1674,1,83,245,92,1,sevenfive,,,,,,,,,,,,,,,,,,,,,,,,,,,,,,,,,,,,,,,,,,,,,,,,,,,,,,,,,,,,,,,,,,,,,,,,,,,,,,,,,,,,,,,,,,,,,,,,,,,,,,,,,,,,,,,,,,,,,,,,,,,,,,,,,,,,,,,,,
,,5caad602a15c9800161ad6d3,2024-02-18_20h18.12.663,kallum_motion_pilot,2023.2.2,Win32,50.25125628,5caad602a15c9800161ad6d3,65d2b6c8f2eece985d8e374c,65d2b9c60cd6bbd3caa87785,0.1676,0.1678,1,84,246,150,1,eightsix,,,,,,,,,,,,,,,,,,,,,,,,,,,,,,,,,,,,,,,,,,,,,,,,,,,,,,,,,,,,,,,,,,,,,,,,,,,,,,,,,,,,,,,,,,,,,,,,,,,,,,,,,,,,,,,,,,,,,,,,,,,,,,,,,,,,,,,,,
,,5caad602a15c9800161ad6d3,2024-02-18_20h18.12.663,kallum_motion_pilot,2023.2.2,Win32,50.25125628,5caad602a15c9800161ad6d3,65d2b6c8f2eece985d8e374c,65d2b9c60cd6bbd3caa87785,0.168,0.1682,1,85,247,123,1,sixeight,,,,,,,,,,,,,,,,,,,,,,,,,,,,,,,,,,,,,,,,,,,,,,,,,,,,,,,,,,,,,,,,,,,,,,,,,,,,,,,,,,,,,,,,,,,,,,,,,,,,,,,,,,,,,,,,,,,,,,,,,,,,,,,,,,,,,,,,,
,,5caad602a15c9800161ad6d3,2024-02-18_20h18.12.663,kallum_motion_pilot,2023.2.2,Win32,50.25125628,5caad602a15c9800161ad6d3,65d2b6c8f2eece985d8e374c,65d2b9c60cd6bbd3caa87785,0.1684,0.1686,1,86,248,160,1,fivesix,,,,,,,,,,,,,,,,,,,,,,,,,,,,,,,,,,,,,,,,,,,,,,,,,,,,,,,,,,,,,,,,,,,,,,,,,,,,,,,,,,,,,,,,,,,,,,,,,,,,,,,,,,,,,,,,,,,,,,,,,,,,,,,,,,,,,,,,,
,,5caad602a15c9800161ad6d3,2024-02-18_20h18.12.663,kallum_motion_pilot,2023.2.2,Win32,50.25125628,5caad602a15c9800161ad6d3,65d2b6c8f2eece985d8e374c,65d2b9c60cd6bbd3caa87785,0.1689,0.1691,1,87,249,90,1,sixfive,,,,,,,,,,,,,,,,,,,,,,,,,,,,,,,,,,,,,,,,,,,,,,,,,,,,,,,,,,,,,,,,,,,,,,,,,,,,,,,,,,,,,,,,,,,,,,,,,,,,,,,,,,,,,,,,,,,,,,,,,,,,,,,,,,,,,,,,,
,,5caad602a15c9800161ad6d3,2024-02-18_20h18.12.663,kallum_motion_pilot,2023.2.2,Win32,50.25125628,5caad602a15c9800161ad6d3,65d2b6c8f2eece985d8e374c,65d2b9c60cd6bbd3caa87785,0.1694,0.1696,1,88,250,76,1,threeone,,,,,,,,,,,,,,,,,,,,,,,,,,,,,,,,,,,,,,,,,,,,,,,,,,,,,,,,,,,,,,,,,,,,,,,,,,,,,,,,,,,,,,,,,,,,,,,,,,,,,,,,,,,,,,,,,,,,,,,,,,,,,,,,,,,,,,,,,
,,5caad602a15c9800161ad6d3,2024-02-18_20h18.12.663,kallum_motion_pilot,2023.2.2,Win32,50.25125628,5caad602a15c9800161ad6d3,65d2b6c8f2eece985d8e374c,65d2b9c60cd6bbd3caa87785,0.1699,0.1701,1,89,251,42,1,twoone,,,,,,,,,,,,,,,,,,,,,,,,,,,,,,,,,,,,,,,,,,,,,,,,,,,,,,,,,,,,,,,,,,,,,,,,,,,,,,,,,,,,,,,,,,,,,,,,,,,,,,,,,,,,,,,,,,,,,,,,,,,,,,,,,,,,,,,,,
,,5caad602a15c9800161ad6d3,2024-02-18_20h18.12.663,kallum_motion_pilot,2023.2.2,Win32,50.25125628,5caad602a15c9800161ad6d3,65d2b6c8f2eece985d8e374c,65d2b9c60cd6bbd3caa87785,0.1703,0.1705,1,90,252,21,1,threefour,,,,,,,,,,,,,,,,,,,,,,,,,,,,,,,,,,,,,,,,,,,,,,,,,,,,,,,,,,,,,,,,,,,,,,,,,,,,,,,,,,,,,,,,,,,,,,,,,,,,,,,,,,,,,,,,,,,,,,,,,,,,,,,,,,,,,,,,,
,,5caad602a15c9800161ad6d3,2024-02-18_20h18.12.663,kallum_motion_pilot,2023.2.2,Win32,50.25125628,5caad602a15c9800161ad6d3,65d2b6c8f2eece985d8e374c,65d2b9c60cd6bbd3caa87785,0.1708,0.171,1,91,253,113,1,fiveseven,,,,,,,,,,,,,,,,,,,,,,,,,,,,,,,,,,,,,,,,,,,,,,,,,,,,,,,,,,,,,,,,,,,,,,,,,,,,,,,,,,,,,,,,,,,,,,,,,,,,,,,,,,,,,,,,,,,,,,,,,,,,,,,,,,,,,,,,,
,,5caad602a15c9800161ad6d3,2024-02-18_20h18.12.663,kallum_motion_pilot,2023.2.2,Win32,50.25125628,5caad602a15c9800161ad6d3,65d2b6c8f2eece985d8e374c,65d2b9c60cd6bbd3caa87785,0.1722,0.1725,1,92,254,37,1,threefour,,,,,,,,,,,,,,,,,,,,,,,,,,,,,,,,,,,,,,,,,,,,,,,,,,,,,,,,,,,,,,,,,,,,,,,,,,,,,,,,,,,,,,,,,,,,,,,,,,,,,,,,,,,,,,,,,,,,,,,,,,,,,,,,,,,,,,,,,
,,5caad602a15c9800161ad6d3,2024-02-18_20h18.12.663,kallum_motion_pilot,2023.2.2,Win32,50.25125628,5caad602a15c9800161ad6d3,65d2b6c8f2eece985d8e374c,65d2b9c60cd6bbd3caa87785,0.1728,0.173,1,93,255,59,1,twofour,,,,,,,,,,,,,,,,,,,,,,,,,,,,,,,,,,,,,,,,,,,,,,,,,,,,,,,,,,,,,,,,,,,,,,,,,,,,,,,,,,,,,,,,,,,,,,,,,,,,,,,,,,,,,,,,,,,,,,,,,,,,,,,,,,,,,,,,,
,,5caad602a15c9800161ad6d3,2024-02-18_20h18.12.663,kallum_motion_pilot,2023.2.2,Win32,50.25125628,5caad602a15c9800161ad6d3,65d2b6c8f2eece985d8e374c,65d2b9c60cd6bbd3caa87785,0.1732,0.1734,1,94,256,105,1,fiveseven,,,,,,,,,,,,,,,,,,,,,,,,,,,,,,,,,,,,,,,,,,,,,,,,,,,,,,,,,,,,,,,,,,,,,,,,,,,,,,,,,,,,,,,,,,,,,,,,,,,,,,,,,,,,,,,,,,,,,,,,,,,,,,,,,,,,,,,,,
,,5caad602a15c9800161ad6d3,2024-02-18_20h18.12.663,kallum_motion_pilot,2023.2.2,Win32,50.25125628,5caad602a15c9800161ad6d3,65d2b6c8f2eece985d8e374c,65d2b9c60cd6bbd3caa87785,0.1736,0.1738,1,95,257,102,1,eightsix,,,,,,,,,,,,,,,,,,,,,,,,,,,,,,,,,,,,,,,,,,,,,,,,,,,,,,,,,,,,,,,,,,,,,,,,,,,,,,,,,,,,,,,,,,,,,,,,,,,,,,,,,,,,,,,,,,,,,,,,,,,,,,,,,,,,,,,,,
,,5caad602a15c9800161ad6d3,2024-02-18_20h18.12.663,kallum_motion_pilot,2023.2.2,Win32,50.25125628,5caad602a15c9800161ad6d3,65d2b6c8f2eece985d8e374c,65d2b9c60cd6bbd3caa87785,0.174,0.1742,1,96,258,83,1,sixeight,,,,,,,,,,,,,,,,,,,,,,,,,,,,,,,,,,,,,,,,,,,,,,,,,,,,,,,,,,,,,,,,,,,,,,,,,,,,,,,,,,,,,,,,,,,,,,,,,,,,,,,,,,,,,,,,,,,,,,,,,,,,,,,,,,,,,,,,,
,,5caad602a15c9800161ad6d3,2024-02-18_20h18.12.663,kallum_motion_pilot,2023.2.2,Win32,50.25125628,5caad602a15c9800161ad6d3,65d2b6c8f2eece985d8e374c,65d2b9c60cd6bbd3caa87785,0.1744,0.1746,1,97,259,64,1,onetwo,,,,,,,,,,,,,,,,,,,,,,,,,,,,,,,,,,,,,,,,,,,,,,,,,,,,,,,,,,,,,,,,,,,,,,,,,,,,,,,,,,,,,,,,,,,,,,,,,,,,,,,,,,,,,,,,,,,,,,,,,,,,,,,,,,,,,,,,,
,,5caad602a15c9800161ad6d3,2024-02-18_20h18.12.663,kallum_motion_pilot,2023.2.2,Win32,50.25125628,5caad602a15c9800161ad6d3,65d2b6c8f2eece985d8e374c,65d2b9c60cd6bbd3caa87785,0.1749,0.175,1,98,260,9,1,onethree,,,,,,,,,,,,,,,,,,,,,,,,,,,,,,,,,,,,,,,,,,,,,,,,,,,,,,,,,,,,,,,,,,,,,,,,,,,,,,,,,,,,,,,,,,,,,,,,,,,,,,,,,,,,,,,,,,,,,,,,,,,,,,,,,,,,,,,,,
,,5caad602a15c9800161ad6d3,2024-02-18_20h18.12.663,kallum_motion_pilot,2023.2.2,Win32,50.25125628,5caad602a15c9800161ad6d3,65d2b6c8f2eece985d8e374c,65d2b9c60cd6bbd3caa87785,0.1754,0.1758,1,99,261,137,1,fiveseven,,,,,,,,,,,,,,,,,,,,,,,,,,,,,,,,,,,,,,,,,,,,,,,,,,,,,,,,,,,,,,,,,,,,,,,,,,,,,,,,,,,,,,,,,,,,,,,,,,,,,,,,,,,,,,,,,,,,,,,,,,,,,,,,,,,,,,,,,
,,5caad602a15c9800161ad6d3,2024-02-18_20h18.12.663,kallum_motion_pilot,2023.2.2,Win32,50.25125628,5caad602a15c9800161ad6d3,65d2b6c8f2eece985d8e374c,65d2b9c60cd6bbd3caa87785,0.1761,0.1763,1,100,262,60,1,threeone,,,,,,,,,,,,,,,,,,,,,,,,,,,,,,,,,,,,,,,,,,,,,,,,,,,,,,,,,,,,,,,,,,,,,,,,,,,,,,,,,,,,,,,,,,,,,,,,,,,,,,,,,,,,,,,,,,,,,,,,,,,,,,,,,,,,,,,,,
,,5caad602a15c9800161ad6d3,2024-02-18_20h18.12.663,kallum_motion_pilot,2023.2.2,Win32,50.25125628,5caad602a15c9800161ad6d3,65d2b6c8f2eece985d8e374c,65d2b9c60cd6bbd3caa87785,0.1765,0.1767,1,101,263,149,1,seveneight,,,,,,,,,,,,,,,,,,,,,,,,,,,,,,,,,,,,,,,,,,,,,,,,,,,,,,,,,,,,,,,,,,,,,,,,,,,,,,,,,,,,,,,,,,,,,,,,,,,,,,,,,,,,,,,,,,,,,,,,,,,,,,,,,,,,,,,,,
,,5caad602a15c9800161ad6d3,2024-02-18_20h18.12.663,kallum_motion_pilot,2023.2.2,Win32,50.25125628,5caad602a15c9800161ad6d3,65d2b6c8f2eece985d8e374c,65d2b9c60cd6bbd3caa87785,0.177,0.1772,1,102,264,115,1,sixeight,,,,,,,,,,,,,,,,,,,,,,,,,,,,,,,,,,,,,,,,,,,,,,,,,,,,,,,,,,,,,,,,,,,,,,,,,,,,,,,,,,,,,,,,,,,,,,,,,,,,,,,,,,,,,,,,,,,,,,,,,,,,,,,,,,,,,,,,,
,,5caad602a15c9800161ad6d3,2024-02-18_20h18.12.663,kallum_motion_pilot,2023.2.2,Win32,50.25125628,5caad602a15c9800161ad6d3,65d2b6c8f2eece985d8e374c,65d2b9c60cd6bbd3caa87785,0.1774,0.1775,1,103,265,50,1,twoone,,,,,,,,,,,,,,,,,,,,,,,,,,,,,,,,,,,,,,,,,,,,,,,,,,,,,,,,,,,,,,,,,,,,,,,,,,,,,,,,,,,,,,,,,,,,,,,,,,,,,,,,,,,,,,,,,,,,,,,,,,,,,,,,,,,,,,,,,
,,5caad602a15c9800161ad6d3,2024-02-18_20h18.12.663,kallum_motion_pilot,2023.2.2,Win32,50.25125628,5caad602a15c9800161ad6d3,65d2b6c8f2eece985d8e374c,65d2b9c60cd6bbd3caa87785,0.1778,0.178,1,104,266,106,1,sixfive,,,,,,,,,,,,,,,,,,,,,,,,,,,,,,,,,,,,,,,,,,,,,,,,,,,,,,,,,,,,,,,,,,,,,,,,,,,,,,,,,,,,,,,,,,,,,,,,,,,,,,,,,,,,,,,,,,,,,,,,,,,,,,,,,,,,,,,,,
,,5caad602a15c9800161ad6d3,2024-02-18_20h18.12.663,kallum_motion_pilot,2023.2.2,Win32,50.25125628,5caad602a15c9800161ad6d3,65d2b6c8f2eece985d8e374c,65d2b9c60cd6bbd3caa87785,0.1782,0.1784,1,105,267,128,1,fivesix,,,,,,,,,,,,,,,,,,,,,,,,,,,,,,,,,,,,,,,,,,,,,,,,,,,,,,,,,,,,,,,,,,,,,,,,,,,,,,,,,,,,,,,,,,,,,,,,,,,,,,,,,,,,,,,,,,,,,,,,,,,,,,,,,,,,,,,,,
,,5caad602a15c9800161ad6d3,2024-02-18_20h18.12.663,kallum_motion_pilot,2023.2.2,Win32,50.25125628,5caad602a15c9800161ad6d3,65d2b6c8f2eece985d8e374c,65d2b9c60cd6bbd3caa87785,0.1787,0.1789,1,106,268,75,1,twofour,,,,,,,,,,,,,,,,,,,,,,,,,,,,,,,,,,,,,,,,,,,,,,,,,,,,,,,,,,,,,,,,,,,,,,,,,,,,,,,,,,,,,,,,,,,,,,,,,,,,,,,,,,,,,,,,,,,,,,,,,,,,,,,,,,,,,,,,,
,,5caad602a15c9800161ad6d3,2024-02-18_20h18.12.663,kallum_motion_pilot,2023.2.2,Win32,50.25125628,5caad602a15c9800161ad6d3,65d2b6c8f2eece985d8e374c,65d2b9c60cd6bbd3caa87785,0.179,0.1793,1,107,269,100,1,sevenfive,,,,,,,,,,,,,,,,,,,,,,,,,,,,,,,,,,,,,,,,,,,,,,,,,,,,,,,,,,,,,,,,,,,,,,,,,,,,,,,,,,,,,,,,,,,,,,,,,,,,,,,,,,,,,,,,,,,,,,,,,,,,,,,,,,,,,,,,,
,,5caad602a15c9800161ad6d3,2024-02-18_20h18.12.663,kallum_motion_pilot,2023.2.2,Win32,50.25125628,5caad602a15c9800161ad6d3,65d2b6c8f2eece985d8e374c,65d2b9c60cd6bbd3caa87785,0.1795,0.1797,1,108,270,86,1,eightsix,,,,,,,,,,,,,,,,,,,,,,,,,,,,,,,,,,,,,,,,,,,,,,,,,,,,,,,,,,,,,,,,,,,,,,,,,,,,,,,,,,,,,,,,,,,,,,,,,,,,,,,,,,,,,,,,,,,,,,,,,,,,,,,,,,,,,,,,,
,,5caad602a15c9800161ad6d3,2024-02-18_20h18.12.663,kallum_motion_pilot,2023.2.2,Win32,50.25125628,5caad602a15c9800161ad6d3,65d2b6c8f2eece985d8e374c,65d2b9c60cd6bbd3caa87785,0.18,0.1802,1,109,271,133,1,seveneight,,,,,,,,,,,,,,,,,,,,,,,,,,,,,,,,,,,,,,,,,,,,,,,,,,,,,,,,,,,,,,,,,,,,,,,,,,,,,,,,,,,,,,,,,,,,,,,,,,,,,,,,,,,,,,,,,,,,,,,,,,,,,,,,,,,,,,,,,
,,5caad602a15c9800161ad6d3,2024-02-18_20h18.12.663,kallum_motion_pilot,2023.2.2,Win32,50.25125628,5caad602a15c9800161ad6d3,65d2b6c8f2eece985d8e374c,65d2b9c60cd6bbd3caa87785,0.1804,0.1806,1,110,272,116,1,sevenfive,,,,,,,,,,,,,,,,,,,,,,,,,,,,,,,,,,,,,,,,,,,,,,,,,,,,,,,,,,,,,,,,,,,,,,,,,,,,,,,,,,,,,,,,,,,,,,,,,,,,,,,,,,,,,,,,,,,,,,,,,,,,,,,,,,,,,,,,,
,,5caad602a15c9800161ad6d3,2024-02-18_20h18.12.663,kallum_motion_pilot,2023.2.2,Win32,50.25125628,5caad602a15c9800161ad6d3,65d2b6c8f2eece985d8e374c,65d2b9c60cd6bbd3caa87785,0.1808,0.1811,1,111,273,15,1,fourthree,,,,,,,,,,,,,,,,,,,,,,,,,,,,,,,,,,,,,,,,,,,,,,,,,,,,,,,,,,,,,,,,,,,,,,,,,,,,,,,,,,,,,,,,,,,,,,,,,,,,,,,,,,,,,,,,,,,,,,,,,,,,,,,,,,,,,,,,,
,,5caad602a15c9800161ad6d3,2024-02-18_20h18.12.663,kallum_motion_pilot,2023.2.2,Win32,50.25125628,5caad602a15c9800161ad6d3,65d2b6c8f2eece985d8e374c,65d2b9c60cd6bbd3caa87785,0.1813,0.1815,1,112,274,4,1,threeone,,,,,,,,,,,,,,,,,,,,,,,,,,,,,,,,,,,,,,,,,,,,,,,,,,,,,,,,,,,,,,,,,,,,,,,,,,,,,,,,,,,,,,,,,,,,,,,,,,,,,,,,,,,,,,,,,,,,,,,,,,,,,,,,,,,,,,,,,
,,5caad602a15c9800161ad6d3,2024-02-18_20h18.12.663,kallum_motion_pilot,2023.2.2,Win32,50.25125628,5caad602a15c9800161ad6d3,65d2b6c8f2eece985d8e374c,65d2b9c60cd6bbd3caa87785,0.1817,0.1819,1,113,275,3,1,twofour,,,,,,,,,,,,,,,,,,,,,,,,,,,,,,,,,,,,,,,,,,,,,,,,,,,,,,,,,,,,,,,,,,,,,,,,,,,,,,,,,,,,,,,,,,,,,,,,,,,,,,,,,,,,,,,,,,,,,,,,,,,,,,,,,,,,,,,,,
,,5caad602a15c9800161ad6d3,2024-02-18_20h18.12.663,kallum_motion_pilot,2023.2.2,Win32,50.25125628,5caad602a15c9800161ad6d3,65d2b6c8f2eece985d8e374c,65d2b9c60cd6bbd3caa87785,0.1822,0.1824,1,114,276,134,1,eightsix,,,,,,,,,,,,,,,,,,,,,,,,,,,,,,,,,,,,,,,,,,,,,,,,,,,,,,,,,,,,,,,,,,,,,,,,,,,,,,,,,,,,,,,,,,,,,,,,,,,,,,,,,,,,,,,,,,,,,,,,,,,,,,,,,,,,,,,,,
,,5caad602a15c9800161ad6d3,2024-02-18_20h18.12.663,kallum_motion_pilot,2023.2.2,Win32,50.25125628,5caad602a15c9800161ad6d3,65d2b6c8f2eece985d8e374c,65d2b9c60cd6bbd3caa87785,0.1826,0.1828,1,115,277,49,1,onethree,,,,,,,,,,,,,,,,,,,,,,,,,,,,,,,,,,,,,,,,,,,,,,,,,,,,,,,,,,,,,,,,,,,,,,,,,,,,,,,,,,,,,,,,,,,,,,,,,,,,,,,,,,,,,,,,,,,,,,,,,,,,,,,,,,,,,,,,,
