startup.started,startup.stopped,Prolific ID*,date,expName,psychopyVersion,OS,frameRate,participant,study_id,session,stimpositions.started,stimpositions.stopped,hardcoded_stimulus_positions.thisRepN,hardcoded_stimulus_positions.thisTrialN,hardcoded_stimulus_positions.thisN,hardcoded_stimulus_positions.thisIndex,hardcoded_stimulus_positions.ran,StimulusPos,stimorientation.started,stimorientation.stopped,prac_stimorientation_import_loop.thisRepN,prac_stimorientation_import_loop.thisTrialN,prac_stimorientation_import_loop.thisN,prac_stimorientation_import_loop.thisIndex,prac_stimorientation_import_loop.ran,Stimorientation,welcome_instr.started,welcome_instr.stopped,key_resp.keys,key_resp.rt,key_resp.duration,response_steppedout_1.started,response_steppedout_1.stopped,key_resp_20.keys,key_resp_20.rt,key_resp_20.duration,response_steppedout_2.started,response_steppedout_2.stopped,key_resp_19.keys,key_resp_19.rt,key_resp_19.duration,stim_response_instr.started,stim_response_instr.stopped,key_resp_15.keys,key_resp_15.rt,key_resp_15.duration,direction_instr_2.started,direction_instr_2.stopped,key_resp_9.keys,key_resp_9.rt,key_resp_9.duration,instr_prac.started,instr_prac.stopped,key_resp_10.keys,key_resp_10.rt,key_resp_10.duration,Stim1_display_prac.started,Stim1_display_prac.stopped,Ecc,Circle1_ori,Circle2_ori,response_prac.started,similarity,response_time,response_prac.stopped,mouse_5.x,mouse_5.y,mouse_5.leftButton,mouse_5.midButton,mouse_5.rightButton,mouse_5.clicked_name,responseprac_feedback.started,responseprac_feedback.stopped,summary2_prac.started,summary2_prac.stopped,mouse_6.x,mouse_6.y,mouse_6.leftButton,mouse_6.midButton,mouse_6.rightButton,mouse_6.clicked_name,duringprac.thisRepN,duringprac.thisTrialN,duringprac.thisN,duringprac.thisIndex,duringprac.ran,begin.started,begin.stopped,key_resp_22.keys,key_resp_22.rt,key_resp_22.duration,Stim1_display.started,Stim1_display.stopped,circle1_ori,circle2_ori,circle1_SF,circle2_SF,response.started,response.stopped,mouse.x,mouse.y,mouse.leftButton,mouse.midButton,mouse.rightButton,mouse.clicked_name,trialnumber,double_pass.thisRepN,double_pass.thisTrialN,double_pass.thisN,double_pass.thisIndex,double_pass.ran,double_pass.order,main_trial.thisRepN,main_trial.thisTrialN,main_trial.thisN,main_trial.thisIndex,main_trial.ran,main_trial.order,Trial_Counter,Catch,Frequencies,response_2.started,response_2.stopped,mouse_2.x,mouse_2.y,mouse_2.leftButton,mouse_2.midButton,mouse_2.rightButton,mouse_2.clicked_name,special_trial.started,special_trial.stopped,catch_1.started,catch_1.stopped,mouse_3.x,mouse_3.y,mouse_3.leftButton,mouse_3.midButton,mouse_3.rightButton,catchresponse,catchnumber,response_time_catch,response_sum.started,response_sum.stopped,mouse_11.x,mouse_11.y,mouse_11.leftButton,mouse_11.midButton,mouse_11.rightButton,flip_presentation_sequence_for_double_pass.started,flip_presentation_sequence_for_double_pass.stopped,goodbye.started,goodbye.stopped,key_resp_3.keys,key_resp_3.rt,key_resp_3.duration
0.0005,0.0006,5caddec9facb4c0016ed3652,2024-02-22_06h01.29.167,kallum_motion_pilot,2023.2.2,Win32,59.88023952,5caddec9facb4c0016ed3652,65d6bb0e977760de756971f7,65d6d4d8cb0a17198e65bbac,,,,,,,,,,,,,,,,,,,,,,,,,,,,,,,,,,,,,,,,,,,,,,,,,,,,,,,,,,,,,,,,,,,,,,,,,,,,,,,,,,,,,,,,,,,,,,,,,,,,,,,,,,,,,,,,,,,,,,,,,,,,,,,,,,,,,,,,,,,,,,,,,
,,5caddec9facb4c0016ed3652,2024-02-22_06h01.29.167,kallum_motion_pilot,2023.2.2,Win32,59.88023952,5caddec9facb4c0016ed3652,65d6bb0e977760de756971f7,65d6d4d8cb0a17198e65bbac,0.0408,0.041,0,0,0,56,1,onetwo,,,,,,,,,,,,,,,,,,,,,,,,,,,,,,,,,,,,,,,,,,,,,,,,,,,,,,,,,,,,,,,,,,,,,,,,,,,,,,,,,,,,,,,,,,,,,,,,,,,,,,,,,,,,,,,,,,,,,,,,,,,,,,,,,,,,,,,,,
,,5caddec9facb4c0016ed3652,2024-02-22_06h01.29.167,kallum_motion_pilot,2023.2.2,Win32,59.88023952,5caddec9facb4c0016ed3652,65d6bb0e977760de756971f7,65d6d4d8cb0a17198e65bbac,0.0416,0.0416,0,1,1,52,1,threeone,,,,,,,,,,,,,,,,,,,,,,,,,,,,,,,,,,,,,,,,,,,,,,,,,,,,,,,,,,,,,,,,,,,,,,,,,,,,,,,,,,,,,,,,,,,,,,,,,,,,,,,,,,,,,,,,,,,,,,,,,,,,,,,,,,,,,,,,,
,,5caddec9facb4c0016ed3652,2024-02-22_06h01.29.167,kallum_motion_pilot,2023.2.2,Win32,59.88023952,5caddec9facb4c0016ed3652,65d6bb0e977760de756971f7,65d6d4d8cb0a17198e65bbac,0.0419,0.042,0,2,2,44,1,threeone,,,,,,,,,,,,,,,,,,,,,,,,,,,,,,,,,,,,,,,,,,,,,,,,,,,,,,,,,,,,,,,,,,,,,,,,,,,,,,,,,,,,,,,,,,,,,,,,,,,,,,,,,,,,,,,,,,,,,,,,,,,,,,,,,,,,,,,,,
,,5caddec9facb4c0016ed3652,2024-02-22_06h01.29.167,kallum_motion_pilot,2023.2.2,Win32,59.88023952,5caddec9facb4c0016ed3652,65d6bb0e977760de756971f7,65d6d4d8cb0a17198e65bbac,0.0423,0.0423,0,3,3,59,1,twofour,,,,,,,,,,,,,,,,,,,,,,,,,,,,,,,,,,,,,,,,,,,,,,,,,,,,,,,,,,,,,,,,,,,,,,,,,,,,,,,,,,,,,,,,,,,,,,,,,,,,,,,,,,,,,,,,,,,,,,,,,,,,,,,,,,,,,,,,,
,,5caddec9facb4c0016ed3652,2024-02-22_06h01.29.167,kallum_motion_pilot,2023.2.2,Win32,59.88023952,5caddec9facb4c0016ed3652,65d6bb0e977760de756971f7,65d6d4d8cb0a17198e65bbac,0.0427,0.0427,0,4,4,126,1,eightsix,,,,,,,,,,,,,,,,,,,,,,,,,,,,,,,,,,,,,,,,,,,,,,,,,,,,,,,,,,,,,,,,,,,,,,,,,,,,,,,,,,,,,,,,,,,,,,,,,,,,,,,,,,,,,,,,,,,,,,,,,,,,,,,,,,,,,,,,,
,,5caddec9facb4c0016ed3652,2024-02-22_06h01.29.167,kallum_motion_pilot,2023.2.2,Win32,59.88023952,5caddec9facb4c0016ed3652,65d6bb0e977760de756971f7,65d6d4d8cb0a17198e65bbac,0.0431,0.0432,0,5,5,124,1,sevenfive,,,,,,,,,,,,,,,,,,,,,,,,,,,,,,,,,,,,,,,,,,,,,,,,,,,,,,,,,,,,,,,,,,,,,,,,,,,,,,,,,,,,,,,,,,,,,,,,,,,,,,,,,,,,,,,,,,,,,,,,,,,,,,,,,,,,,,,,,
,,5caddec9facb4c0016ed3652,2024-02-22_06h01.29.167,kallum_motion_pilot,2023.2.2,Win32,59.88023952,5caddec9facb4c0016ed3652,65d6bb0e977760de756971f7,65d6d4d8cb0a17198e65bbac,0.0435,0.0438,0,6,6,30,1,fourtwo,,,,,,,,,,,,,,,,,,,,,,,,,,,,,,,,,,,,,,,,,,,,,,,,,,,,,,,,,,,,,,,,,,,,,,,,,,,,,,,,,,,,,,,,,,,,,,,,,,,,,,,,,,,,,,,,,,,,,,,,,,,,,,,,,,,,,,,,,
,,5caddec9facb4c0016ed3652,2024-02-22_06h01.29.167,kallum_motion_pilot,2023.2.2,Win32,59.88023952,5caddec9facb4c0016ed3652,65d6bb0e977760de756971f7,65d6d4d8cb0a17198e65bbac,0.0441,0.0442,0,7,7,135,1,eightseven,,,,,,,,,,,,,,,,,,,,,,,,,,,,,,,,,,,,,,,,,,,,,,,,,,,,,,,,,,,,,,,,,,,,,,,,,,,,,,,,,,,,,,,,,,,,,,,,,,,,,,,,,,,,,,,,,,,,,,,,,,,,,,,,,,,,,,,,,
,,5caddec9facb4c0016ed3652,2024-02-22_06h01.29.167,kallum_motion_pilot,2023.2.2,Win32,59.88023952,5caddec9facb4c0016ed3652,65d6bb0e977760de756971f7,65d6d4d8cb0a17198e65bbac,0.0447,0.0447,0,8,8,27,1,twofour,,,,,,,,,,,,,,,,,,,,,,,,,,,,,,,,,,,,,,,,,,,,,,,,,,,,,,,,,,,,,,,,,,,,,,,,,,,,,,,,,,,,,,,,,,,,,,,,,,,,,,,,,,,,,,,,,,,,,,,,,,,,,,,,,,,,,,,,,
,,5caddec9facb4c0016ed3652,2024-02-22_06h01.29.167,kallum_motion_pilot,2023.2.2,Win32,59.88023952,5caddec9facb4c0016ed3652,65d6bb0e977760de756971f7,65d6d4d8cb0a17198e65bbac,0.045,0.0451,0,9,9,34,1,twoone,,,,,,,,,,,,,,,,,,,,,,,,,,,,,,,,,,,,,,,,,,,,,,,,,,,,,,,,,,,,,,,,,,,,,,,,,,,,,,,,,,,,,,,,,,,,,,,,,,,,,,,,,,,,,,,,,,,,,,,,,,,,,,,,,,,,,,,,,
,,5caddec9facb4c0016ed3652,2024-02-22_06h01.29.167,kallum_motion_pilot,2023.2.2,Win32,59.88023952,5caddec9facb4c0016ed3652,65d6bb0e977760de756971f7,65d6d4d8cb0a17198e65bbac,0.0453,0.0453,0,10,10,155,1,sixeight,,,,,,,,,,,,,,,,,,,,,,,,,,,,,,,,,,,,,,,,,,,,,,,,,,,,,,,,,,,,,,,,,,,,,,,,,,,,,,,,,,,,,,,,,,,,,,,,,,,,,,,,,,,,,,,,,,,,,,,,,,,,,,,,,,,,,,,,,
,,5caddec9facb4c0016ed3652,2024-02-22_06h01.29.167,kallum_motion_pilot,2023.2.2,Win32,59.88023952,5caddec9facb4c0016ed3652,65d6bb0e977760de756971f7,65d6d4d8cb0a17198e65bbac,0.0456,0.0457,0,11,11,57,1,onethree,,,,,,,,,,,,,,,,,,,,,,,,,,,,,,,,,,,,,,,,,,,,,,,,,,,,,,,,,,,,,,,,,,,,,,,,,,,,,,,,,,,,,,,,,,,,,,,,,,,,,,,,,,,,,,,,,,,,,,,,,,,,,,,,,,,,,,,,,
,,5caddec9facb4c0016ed3652,2024-02-22_06h01.29.167,kallum_motion_pilot,2023.2.2,Win32,59.88023952,5caddec9facb4c0016ed3652,65d6bb0e977760de756971f7,65d6d4d8cb0a17198e65bbac,0.0459,0.0459,0,12,12,74,1,twoone,,,,,,,,,,,,,,,,,,,,,,,,,,,,,,,,,,,,,,,,,,,,,,,,,,,,,,,,,,,,,,,,,,,,,,,,,,,,,,,,,,,,,,,,,,,,,,,,,,,,,,,,,,,,,,,,,,,,,,,,,,,,,,,,,,,,,,,,,
,,5caddec9facb4c0016ed3652,2024-02-22_06h01.29.167,kallum_motion_pilot,2023.2.2,Win32,59.88023952,5caddec9facb4c0016ed3652,65d6bb0e977760de756971f7,65d6d4d8cb0a17198e65bbac,0.0462,0.0462,0,13,13,42,1,twoone,,,,,,,,,,,,,,,,,,,,,,,,,,,,,,,,,,,,,,,,,,,,,,,,,,,,,,,,,,,,,,,,,,,,,,,,,,,,,,,,,,,,,,,,,,,,,,,,,,,,,,,,,,,,,,,,,,,,,,,,,,,,,,,,,,,,,,,,,
,,5caddec9facb4c0016ed3652,2024-02-22_06h01.29.167,kallum_motion_pilot,2023.2.2,Win32,59.88023952,5caddec9facb4c0016ed3652,65d6bb0e977760de756971f7,65d6d4d8cb0a17198e65bbac,0.0464,0.0465,0,14,14,8,1,onetwo,,,,,,,,,,,,,,,,,,,,,,,,,,,,,,,,,,,,,,,,,,,,,,,,,,,,,,,,,,,,,,,,,,,,,,,,,,,,,,,,,,,,,,,,,,,,,,,,,,,,,,,,,,,,,,,,,,,,,,,,,,,,,,,,,,,,,,,,,
,,5caddec9facb4c0016ed3652,2024-02-22_06h01.29.167,kallum_motion_pilot,2023.2.2,Win32,59.88023952,5caddec9facb4c0016ed3652,65d6bb0e977760de756971f7,65d6d4d8cb0a17198e65bbac,0.0467,0.0468,0,15,15,116,1,sevenfive,,,,,,,,,,,,,,,,,,,,,,,,,,,,,,,,,,,,,,,,,,,,,,,,,,,,,,,,,,,,,,,,,,,,,,,,,,,,,,,,,,,,,,,,,,,,,,,,,,,,,,,,,,,,,,,,,,,,,,,,,,,,,,,,,,,,,,,,,
,,5caddec9facb4c0016ed3652,2024-02-22_06h01.29.167,kallum_motion_pilot,2023.2.2,Win32,59.88023952,5caddec9facb4c0016ed3652,65d6bb0e977760de756971f7,65d6d4d8cb0a17198e65bbac,0.0469,0.047,0,16,16,63,1,fourthree,,,,,,,,,,,,,,,,,,,,,,,,,,,,,,,,,,,,,,,,,,,,,,,,,,,,,,,,,,,,,,,,,,,,,,,,,,,,,,,,,,,,,,,,,,,,,,,,,,,,,,,,,,,,,,,,,,,,,,,,,,,,,,,,,,,,,,,,,
,,5caddec9facb4c0016ed3652,2024-02-22_06h01.29.167,kallum_motion_pilot,2023.2.2,Win32,59.88023952,5caddec9facb4c0016ed3652,65d6bb0e977760de756971f7,65d6d4d8cb0a17198e65bbac,0.0472,0.0473,0,17,17,111,1,eightseven,,,,,,,,,,,,,,,,,,,,,,,,,,,,,,,,,,,,,,,,,,,,,,,,,,,,,,,,,,,,,,,,,,,,,,,,,,,,,,,,,,,,,,,,,,,,,,,,,,,,,,,,,,,,,,,,,,,,,,,,,,,,,,,,,,,,,,,,,
,,5caddec9facb4c0016ed3652,2024-02-22_06h01.29.167,kallum_motion_pilot,2023.2.2,Win32,59.88023952,5caddec9facb4c0016ed3652,65d6bb0e977760de756971f7,65d6d4d8cb0a17198e65bbac,0.0474,0.0474,0,18,18,81,1,fiveseven,,,,,,,,,,,,,,,,,,,,,,,,,,,,,,,,,,,,,,,,,,,,,,,,,,,,,,,,,,,,,,,,,,,,,,,,,,,,,,,,,,,,,,,,,,,,,,,,,,,,,,,,,,,,,,,,,,,,,,,,,,,,,,,,,,,,,,,,,
,,5caddec9facb4c0016ed3652,2024-02-22_06h01.29.167,kallum_motion_pilot,2023.2.2,Win32,59.88023952,5caddec9facb4c0016ed3652,65d6bb0e977760de756971f7,65d6d4d8cb0a17198e65bbac,0.0477,0.0477,0,19,19,5,1,threefour,,,,,,,,,,,,,,,,,,,,,,,,,,,,,,,,,,,,,,,,,,,,,,,,,,,,,,,,,,,,,,,,,,,,,,,,,,,,,,,,,,,,,,,,,,,,,,,,,,,,,,,,,,,,,,,,,,,,,,,,,,,,,,,,,,,,,,,,,
,,5caddec9facb4c0016ed3652,2024-02-22_06h01.29.167,kallum_motion_pilot,2023.2.2,Win32,59.88023952,5caddec9facb4c0016ed3652,65d6bb0e977760de756971f7,65d6d4d8cb0a17198e65bbac,0.0479,0.0479,0,20,20,104,1,fivesix,,,,,,,,,,,,,,,,,,,,,,,,,,,,,,,,,,,,,,,,,,,,,,,,,,,,,,,,,,,,,,,,,,,,,,,,,,,,,,,,,,,,,,,,,,,,,,,,,,,,,,,,,,,,,,,,,,,,,,,,,,,,,,,,,,,,,,,,,
,,5caddec9facb4c0016ed3652,2024-02-22_06h01.29.167,kallum_motion_pilot,2023.2.2,Win32,59.88023952,5caddec9facb4c0016ed3652,65d6bb0e977760de756971f7,65d6d4d8cb0a17198e65bbac,0.0481,0.0482,0,21,21,120,1,fivesix,,,,,,,,,,,,,,,,,,,,,,,,,,,,,,,,,,,,,,,,,,,,,,,,,,,,,,,,,,,,,,,,,,,,,,,,,,,,,,,,,,,,,,,,,,,,,,,,,,,,,,,,,,,,,,,,,,,,,,,,,,,,,,,,,,,,,,,,,
,,5caddec9facb4c0016ed3652,2024-02-22_06h01.29.167,kallum_motion_pilot,2023.2.2,Win32,59.88023952,5caddec9facb4c0016ed3652,65d6bb0e977760de756971f7,65d6d4d8cb0a17198e65bbac,0.0483,0.0485,0,22,22,88,1,fivesix,,,,,,,,,,,,,,,,,,,,,,,,,,,,,,,,,,,,,,,,,,,,,,,,,,,,,,,,,,,,,,,,,,,,,,,,,,,,,,,,,,,,,,,,,,,,,,,,,,,,,,,,,,,,,,,,,,,,,,,,,,,,,,,,,,,,,,,,,
,,5caddec9facb4c0016ed3652,2024-02-22_06h01.29.167,kallum_motion_pilot,2023.2.2,Win32,59.88023952,5caddec9facb4c0016ed3652,65d6bb0e977760de756971f7,65d6d4d8cb0a17198e65bbac,0.0486,0.0487,0,23,23,96,1,fivesix,,,,,,,,,,,,,,,,,,,,,,,,,,,,,,,,,,,,,,,,,,,,,,,,,,,,,,,,,,,,,,,,,,,,,,,,,,,,,,,,,,,,,,,,,,,,,,,,,,,,,,,,,,,,,,,,,,,,,,,,,,,,,,,,,,,,,,,,,
,,5caddec9facb4c0016ed3652,2024-02-22_06h01.29.167,kallum_motion_pilot,2023.2.2,Win32,59.88023952,5caddec9facb4c0016ed3652,65d6bb0e977760de756971f7,65d6d4d8cb0a17198e65bbac,0.0488,0.0489,0,24,24,102,1,eightsix,,,,,,,,,,,,,,,,,,,,,,,,,,,,,,,,,,,,,,,,,,,,,,,,,,,,,,,,,,,,,,,,,,,,,,,,,,,,,,,,,,,,,,,,,,,,,,,,,,,,,,,,,,,,,,,,,,,,,,,,,,,,,,,,,,,,,,,,,
,,5caddec9facb4c0016ed3652,2024-02-22_06h01.29.167,kallum_motion_pilot,2023.2.2,Win32,59.88023952,5caddec9facb4c0016ed3652,65d6bb0e977760de756971f7,65d6d4d8cb0a17198e65bbac,0.0491,0.0492,0,25,25,15,1,fourthree,,,,,,,,,,,,,,,,,,,,,,,,,,,,,,,,,,,,,,,,,,,,,,,,,,,,,,,,,,,,,,,,,,,,,,,,,,,,,,,,,,,,,,,,,,,,,,,,,,,,,,,,,,,,,,,,,,,,,,,,,,,,,,,,,,,,,,,,,
,,5caddec9facb4c0016ed3652,2024-02-22_06h01.29.167,kallum_motion_pilot,2023.2.2,Win32,59.88023952,5caddec9facb4c0016ed3652,65d6bb0e977760de756971f7,65d6d4d8cb0a17198e65bbac,0.0494,0.0495,0,26,26,130,1,sixfive,,,,,,,,,,,,,,,,,,,,,,,,,,,,,,,,,,,,,,,,,,,,,,,,,,,,,,,,,,,,,,,,,,,,,,,,,,,,,,,,,,,,,,,,,,,,,,,,,,,,,,,,,,,,,,,,,,,,,,,,,,,,,,,,,,,,,,,,,
,,5caddec9facb4c0016ed3652,2024-02-22_06h01.29.167,kallum_motion_pilot,2023.2.2,Win32,59.88023952,5caddec9facb4c0016ed3652,65d6bb0e977760de756971f7,65d6d4d8cb0a17198e65bbac,0.0497,0.0497,0,27,27,36,1,threeone,,,,,,,,,,,,,,,,,,,,,,,,,,,,,,,,,,,,,,,,,,,,,,,,,,,,,,,,,,,,,,,,,,,,,,,,,,,,,,,,,,,,,,,,,,,,,,,,,,,,,,,,,,,,,,,,,,,,,,,,,,,,,,,,,,,,,,,,,
,,5caddec9facb4c0016ed3652,2024-02-22_06h01.29.167,kallum_motion_pilot,2023.2.2,Win32,59.88023952,5caddec9facb4c0016ed3652,65d6bb0e977760de756971f7,65d6d4d8cb0a17198e65bbac,0.0498,0.0499,0,28,28,115,1,sixeight,,,,,,,,,,,,,,,,,,,,,,,,,,,,,,,,,,,,,,,,,,,,,,,,,,,,,,,,,,,,,,,,,,,,,,,,,,,,,,,,,,,,,,,,,,,,,,,,,,,,,,,,,,,,,,,,,,,,,,,,,,,,,,,,,,,,,,,,,
,,5caddec9facb4c0016ed3652,2024-02-22_06h01.29.167,kallum_motion_pilot,2023.2.2,Win32,59.88023952,5caddec9facb4c0016ed3652,65d6bb0e977760de756971f7,65d6d4d8cb0a17198e65bbac,0.0514,0.0515,0,29,29,0,1,onetwo,,,,,,,,,,,,,,,,,,,,,,,,,,,,,,,,,,,,,,,,,,,,,,,,,,,,,,,,,,,,,,,,,,,,,,,,,,,,,,,,,,,,,,,,,,,,,,,,,,,,,,,,,,,,,,,,,,,,,,,,,,,,,,,,,,,,,,,,,
,,5caddec9facb4c0016ed3652,2024-02-22_06h01.29.167,kallum_motion_pilot,2023.2.2,Win32,59.88023952,5caddec9facb4c0016ed3652,65d6bb0e977760de756971f7,65d6d4d8cb0a17198e65bbac,0.0516,0.0517,0,30,30,89,1,fiveseven,,,,,,,,,,,,,,,,,,,,,,,,,,,,,,,,,,,,,,,,,,,,,,,,,,,,,,,,,,,,,,,,,,,,,,,,,,,,,,,,,,,,,,,,,,,,,,,,,,,,,,,,,,,,,,,,,,,,,,,,,,,,,,,,,,,,,,,,,
,,5caddec9facb4c0016ed3652,2024-02-22_06h01.29.167,kallum_motion_pilot,2023.2.2,Win32,59.88023952,5caddec9facb4c0016ed3652,65d6bb0e977760de756971f7,65d6d4d8cb0a17198e65bbac,0.0518,0.0519,0,31,31,158,1,eightsix,,,,,,,,,,,,,,,,,,,,,,,,,,,,,,,,,,,,,,,,,,,,,,,,,,,,,,,,,,,,,,,,,,,,,,,,,,,,,,,,,,,,,,,,,,,,,,,,,,,,,,,,,,,,,,,,,,,,,,,,,,,,,,,,,,,,,,,,,
,,5caddec9facb4c0016ed3652,2024-02-22_06h01.29.167,kallum_motion_pilot,2023.2.2,Win32,59.88023952,5caddec9facb4c0016ed3652,65d6bb0e977760de756971f7,65d6d4d8cb0a17198e65bbac,0.0521,0.0522,0,32,32,138,1,sixfive,,,,,,,,,,,,,,,,,,,,,,,,,,,,,,,,,,,,,,,,,,,,,,,,,,,,,,,,,,,,,,,,,,,,,,,,,,,,,,,,,,,,,,,,,,,,,,,,,,,,,,,,,,,,,,,,,,,,,,,,,,,,,,,,,,,,,,,,,
,,5caddec9facb4c0016ed3652,2024-02-22_06h01.29.167,kallum_motion_pilot,2023.2.2,Win32,59.88023952,5caddec9facb4c0016ed3652,65d6bb0e977760de756971f7,65d6d4d8cb0a17198e65bbac,0.0523,0.0524,0,33,33,150,1,eightsix,,,,,,,,,,,,,,,,,,,,,,,,,,,,,,,,,,,,,,,,,,,,,,,,,,,,,,,,,,,,,,,,,,,,,,,,,,,,,,,,,,,,,,,,,,,,,,,,,,,,,,,,,,,,,,,,,,,,,,,,,,,,,,,,,,,,,,,,,
,,5caddec9facb4c0016ed3652,2024-02-22_06h01.29.167,kallum_motion_pilot,2023.2.2,Win32,59.88023952,5caddec9facb4c0016ed3652,65d6bb0e977760de756971f7,65d6d4d8cb0a17198e65bbac,0.0525,0.0527,0,34,34,32,1,onetwo,,,,,,,,,,,,,,,,,,,,,,,,,,,,,,,,,,,,,,,,,,,,,,,,,,,,,,,,,,,,,,,,,,,,,,,,,,,,,,,,,,,,,,,,,,,,,,,,,,,,,,,,,,,,,,,,,,,,,,,,,,,,,,,,,,,,,,,,,
,,5caddec9facb4c0016ed3652,2024-02-22_06h01.29.167,kallum_motion_pilot,2023.2.2,Win32,59.88023952,5caddec9facb4c0016ed3652,65d6bb0e977760de756971f7,65d6d4d8cb0a17198e65bbac,0.0528,0.0529,0,35,35,151,1,eightseven,,,,,,,,,,,,,,,,,,,,,,,,,,,,,,,,,,,,,,,,,,,,,,,,,,,,,,,,,,,,,,,,,,,,,,,,,,,,,,,,,,,,,,,,,,,,,,,,,,,,,,,,,,,,,,,,,,,,,,,,,,,,,,,,,,,,,,,,,
,,5caddec9facb4c0016ed3652,2024-02-22_06h01.29.167,kallum_motion_pilot,2023.2.2,Win32,59.88023952,5caddec9facb4c0016ed3652,65d6bb0e977760de756971f7,65d6d4d8cb0a17198e65bbac,0.053,0.0531,0,36,36,161,1,fiveseven,,,,,,,,,,,,,,,,,,,,,,,,,,,,,,,,,,,,,,,,,,,,,,,,,,,,,,,,,,,,,,,,,,,,,,,,,,,,,,,,,,,,,,,,,,,,,,,,,,,,,,,,,,,,,,,,,,,,,,,,,,,,,,,,,,,,,,,,,
,,5caddec9facb4c0016ed3652,2024-02-22_06h01.29.167,kallum_motion_pilot,2023.2.2,Win32,59.88023952,5caddec9facb4c0016ed3652,65d6bb0e977760de756971f7,65d6d4d8cb0a17198e65bbac,0.0532,0.0533,0,37,37,39,1,fourthree,,,,,,,,,,,,,,,,,,,,,,,,,,,,,,,,,,,,,,,,,,,,,,,,,,,,,,,,,,,,,,,,,,,,,,,,,,,,,,,,,,,,,,,,,,,,,,,,,,,,,,,,,,,,,,,,,,,,,,,,,,,,,,,,,,,,,,,,,
,,5caddec9facb4c0016ed3652,2024-02-22_06h01.29.167,kallum_motion_pilot,2023.2.2,Win32,59.88023952,5caddec9facb4c0016ed3652,65d6bb0e977760de756971f7,65d6d4d8cb0a17198e65bbac,0.0535,0.0536,0,38,38,110,1,eightsix,,,,,,,,,,,,,,,,,,,,,,,,,,,,,,,,,,,,,,,,,,,,,,,,,,,,,,,,,,,,,,,,,,,,,,,,,,,,,,,,,,,,,,,,,,,,,,,,,,,,,,,,,,,,,,,,,,,,,,,,,,,,,,,,,,,,,,,,,
,,5caddec9facb4c0016ed3652,2024-02-22_06h01.29.167,kallum_motion_pilot,2023.2.2,Win32,59.88023952,5caddec9facb4c0016ed3652,65d6bb0e977760de756971f7,65d6d4d8cb0a17198e65bbac,0.0537,0.0537,0,39,39,55,1,fourthree,,,,,,,,,,,,,,,,,,,,,,,,,,,,,,,,,,,,,,,,,,,,,,,,,,,,,,,,,,,,,,,,,,,,,,,,,,,,,,,,,,,,,,,,,,,,,,,,,,,,,,,,,,,,,,,,,,,,,,,,,,,,,,,,,,,,,,,,,
,,5caddec9facb4c0016ed3652,2024-02-22_06h01.29.167,kallum_motion_pilot,2023.2.2,Win32,59.88023952,5caddec9facb4c0016ed3652,65d6bb0e977760de756971f7,65d6d4d8cb0a17198e65bbac,0.0539,0.0539,0,40,40,65,1,onethree,,,,,,,,,,,,,,,,,,,,,,,,,,,,,,,,,,,,,,,,,,,,,,,,,,,,,,,,,,,,,,,,,,,,,,,,,,,,,,,,,,,,,,,,,,,,,,,,,,,,,,,,,,,,,,,,,,,,,,,,,,,,,,,,,,,,,,,,,
,,5caddec9facb4c0016ed3652,2024-02-22_06h01.29.167,kallum_motion_pilot,2023.2.2,Win32,59.88023952,5caddec9facb4c0016ed3652,65d6bb0e977760de756971f7,65d6d4d8cb0a17198e65bbac,0.054,0.0541,0,41,41,10,1,twoone,,,,,,,,,,,,,,,,,,,,,,,,,,,,,,,,,,,,,,,,,,,,,,,,,,,,,,,,,,,,,,,,,,,,,,,,,,,,,,,,,,,,,,,,,,,,,,,,,,,,,,,,,,,,,,,,,,,,,,,,,,,,,,,,,,,,,,,,,
,,5caddec9facb4c0016ed3652,2024-02-22_06h01.29.167,kallum_motion_pilot,2023.2.2,Win32,59.88023952,5caddec9facb4c0016ed3652,65d6bb0e977760de756971f7,65d6d4d8cb0a17198e65bbac,0.0543,0.0544,0,42,42,23,1,fourthree,,,,,,,,,,,,,,,,,,,,,,,,,,,,,,,,,,,,,,,,,,,,,,,,,,,,,,,,,,,,,,,,,,,,,,,,,,,,,,,,,,,,,,,,,,,,,,,,,,,,,,,,,,,,,,,,,,,,,,,,,,,,,,,,,,,,,,,,,
,,5caddec9facb4c0016ed3652,2024-02-22_06h01.29.167,kallum_motion_pilot,2023.2.2,Win32,59.88023952,5caddec9facb4c0016ed3652,65d6bb0e977760de756971f7,65d6d4d8cb0a17198e65bbac,0.0545,0.0546,0,43,43,61,1,threefour,,,,,,,,,,,,,,,,,,,,,,,,,,,,,,,,,,,,,,,,,,,,,,,,,,,,,,,,,,,,,,,,,,,,,,,,,,,,,,,,,,,,,,,,,,,,,,,,,,,,,,,,,,,,,,,,,,,,,,,,,,,,,,,,,,,,,,,,,
,,5caddec9facb4c0016ed3652,2024-02-22_06h01.29.167,kallum_motion_pilot,2023.2.2,Win32,59.88023952,5caddec9facb4c0016ed3652,65d6bb0e977760de756971f7,65d6d4d8cb0a17198e65bbac,0.0547,0.0548,0,44,44,12,1,threeone,,,,,,,,,,,,,,,,,,,,,,,,,,,,,,,,,,,,,,,,,,,,,,,,,,,,,,,,,,,,,,,,,,,,,,,,,,,,,,,,,,,,,,,,,,,,,,,,,,,,,,,,,,,,,,,,,,,,,,,,,,,,,,,,,,,,,,,,,
,,5caddec9facb4c0016ed3652,2024-02-22_06h01.29.167,kallum_motion_pilot,2023.2.2,Win32,59.88023952,5caddec9facb4c0016ed3652,65d6bb0e977760de756971f7,65d6d4d8cb0a17198e65bbac,0.055,0.0551,0,45,45,6,1,fourtwo,,,,,,,,,,,,,,,,,,,,,,,,,,,,,,,,,,,,,,,,,,,,,,,,,,,,,,,,,,,,,,,,,,,,,,,,,,,,,,,,,,,,,,,,,,,,,,,,,,,,,,,,,,,,,,,,,,,,,,,,,,,,,,,,,,,,,,,,,
,,5caddec9facb4c0016ed3652,2024-02-22_06h01.29.167,kallum_motion_pilot,2023.2.2,Win32,59.88023952,5caddec9facb4c0016ed3652,65d6bb0e977760de756971f7,65d6d4d8cb0a17198e65bbac,0.0552,0.0552,0,46,46,2,1,twoone,,,,,,,,,,,,,,,,,,,,,,,,,,,,,,,,,,,,,,,,,,,,,,,,,,,,,,,,,,,,,,,,,,,,,,,,,,,,,,,,,,,,,,,,,,,,,,,,,,,,,,,,,,,,,,,,,,,,,,,,,,,,,,,,,,,,,,,,,
,,5caddec9facb4c0016ed3652,2024-02-22_06h01.29.167,kallum_motion_pilot,2023.2.2,Win32,59.88023952,5caddec9facb4c0016ed3652,65d6bb0e977760de756971f7,65d6d4d8cb0a17198e65bbac,0.0553,0.0555,0,47,47,20,1,threeone,,,,,,,,,,,,,,,,,,,,,,,,,,,,,,,,,,,,,,,,,,,,,,,,,,,,,,,,,,,,,,,,,,,,,,,,,,,,,,,,,,,,,,,,,,,,,,,,,,,,,,,,,,,,,,,,,,,,,,,,,,,,,,,,,,,,,,,,,
,,5caddec9facb4c0016ed3652,2024-02-22_06h01.29.167,kallum_motion_pilot,2023.2.2,Win32,59.88023952,5caddec9facb4c0016ed3652,65d6bb0e977760de756971f7,65d6d4d8cb0a17198e65bbac,0.0556,0.0556,0,48,48,139,1,sixeight,,,,,,,,,,,,,,,,,,,,,,,,,,,,,,,,,,,,,,,,,,,,,,,,,,,,,,,,,,,,,,,,,,,,,,,,,,,,,,,,,,,,,,,,,,,,,,,,,,,,,,,,,,,,,,,,,,,,,,,,,,,,,,,,,,,,,,,,,
,,5caddec9facb4c0016ed3652,2024-02-22_06h01.29.167,kallum_motion_pilot,2023.2.2,Win32,59.88023952,5caddec9facb4c0016ed3652,65d6bb0e977760de756971f7,65d6d4d8cb0a17198e65bbac,0.0559,0.0559,0,49,49,64,1,onetwo,,,,,,,,,,,,,,,,,,,,,,,,,,,,,,,,,,,,,,,,,,,,,,,,,,,,,,,,,,,,,,,,,,,,,,,,,,,,,,,,,,,,,,,,,,,,,,,,,,,,,,,,,,,,,,,,,,,,,,,,,,,,,,,,,,,,,,,,,
,,5caddec9facb4c0016ed3652,2024-02-22_06h01.29.167,kallum_motion_pilot,2023.2.2,Win32,59.88023952,5caddec9facb4c0016ed3652,65d6bb0e977760de756971f7,65d6d4d8cb0a17198e65bbac,0.0561,0.0561,0,50,50,58,1,twoone,,,,,,,,,,,,,,,,,,,,,,,,,,,,,,,,,,,,,,,,,,,,,,,,,,,,,,,,,,,,,,,,,,,,,,,,,,,,,,,,,,,,,,,,,,,,,,,,,,,,,,,,,,,,,,,,,,,,,,,,,,,,,,,,,,,,,,,,,
,,5caddec9facb4c0016ed3652,2024-02-22_06h01.29.167,kallum_motion_pilot,2023.2.2,Win32,59.88023952,5caddec9facb4c0016ed3652,65d6bb0e977760de756971f7,65d6d4d8cb0a17198e65bbac,0.0563,0.0563,0,51,51,103,1,eightseven,,,,,,,,,,,,,,,,,,,,,,,,,,,,,,,,,,,,,,,,,,,,,,,,,,,,,,,,,,,,,,,,,,,,,,,,,,,,,,,,,,,,,,,,,,,,,,,,,,,,,,,,,,,,,,,,,,,,,,,,,,,,,,,,,,,,,,,,,
,,5caddec9facb4c0016ed3652,2024-02-22_06h01.29.167,kallum_motion_pilot,2023.2.2,Win32,59.88023952,5caddec9facb4c0016ed3652,65d6bb0e977760de756971f7,65d6d4d8cb0a17198e65bbac,0.0565,0.0565,0,52,52,51,1,twofour,,,,,,,,,,,,,,,,,,,,,,,,,,,,,,,,,,,,,,,,,,,,,,,,,,,,,,,,,,,,,,,,,,,,,,,,,,,,,,,,,,,,,,,,,,,,,,,,,,,,,,,,,,,,,,,,,,,,,,,,,,,,,,,,,,,,,,,,,
,,5caddec9facb4c0016ed3652,2024-02-22_06h01.29.167,kallum_motion_pilot,2023.2.2,Win32,59.88023952,5caddec9facb4c0016ed3652,65d6bb0e977760de756971f7,65d6d4d8cb0a17198e65bbac,0.0567,0.0568,0,53,53,142,1,eightsix,,,,,,,,,,,,,,,,,,,,,,,,,,,,,,,,,,,,,,,,,,,,,,,,,,,,,,,,,,,,,,,,,,,,,,,,,,,,,,,,,,,,,,,,,,,,,,,,,,,,,,,,,,,,,,,,,,,,,,,,,,,,,,,,,,,,,,,,,
,,5caddec9facb4c0016ed3652,2024-02-22_06h01.29.167,kallum_motion_pilot,2023.2.2,Win32,59.88023952,5caddec9facb4c0016ed3652,65d6bb0e977760de756971f7,65d6d4d8cb0a17198e65bbac,0.0569,0.0571,0,54,54,131,1,sixeight,,,,,,,,,,,,,,,,,,,,,,,,,,,,,,,,,,,,,,,,,,,,,,,,,,,,,,,,,,,,,,,,,,,,,,,,,,,,,,,,,,,,,,,,,,,,,,,,,,,,,,,,,,,,,,,,,,,,,,,,,,,,,,,,,,,,,,,,,
,,5caddec9facb4c0016ed3652,2024-02-22_06h01.29.167,kallum_motion_pilot,2023.2.2,Win32,59.88023952,5caddec9facb4c0016ed3652,65d6bb0e977760de756971f7,65d6d4d8cb0a17198e65bbac,0.0572,0.0573,0,55,55,107,1,sixeight,,,,,,,,,,,,,,,,,,,,,,,,,,,,,,,,,,,,,,,,,,,,,,,,,,,,,,,,,,,,,,,,,,,,,,,,,,,,,,,,,,,,,,,,,,,,,,,,,,,,,,,,,,,,,,,,,,,,,,,,,,,,,,,,,,,,,,,,,
,,5caddec9facb4c0016ed3652,2024-02-22_06h01.29.167,kallum_motion_pilot,2023.2.2,Win32,59.88023952,5caddec9facb4c0016ed3652,65d6bb0e977760de756971f7,65d6d4d8cb0a17198e65bbac,0.0574,0.0575,0,56,56,28,1,threeone,,,,,,,,,,,,,,,,,,,,,,,,,,,,,,,,,,,,,,,,,,,,,,,,,,,,,,,,,,,,,,,,,,,,,,,,,,,,,,,,,,,,,,,,,,,,,,,,,,,,,,,,,,,,,,,,,,,,,,,,,,,,,,,,,,,,,,,,,
,,5caddec9facb4c0016ed3652,2024-02-22_06h01.29.167,kallum_motion_pilot,2023.2.2,Win32,59.88023952,5caddec9facb4c0016ed3652,65d6bb0e977760de756971f7,65d6d4d8cb0a17198e65bbac,0.0576,0.0578,0,57,57,3,1,twofour,,,,,,,,,,,,,,,,,,,,,,,,,,,,,,,,,,,,,,,,,,,,,,,,,,,,,,,,,,,,,,,,,,,,,,,,,,,,,,,,,,,,,,,,,,,,,,,,,,,,,,,,,,,,,,,,,,,,,,,,,,,,,,,,,,,,,,,,,
,,5caddec9facb4c0016ed3652,2024-02-22_06h01.29.167,kallum_motion_pilot,2023.2.2,Win32,59.88023952,5caddec9facb4c0016ed3652,65d6bb0e977760de756971f7,65d6d4d8cb0a17198e65bbac,0.0579,0.058,0,58,58,82,1,sixfive,,,,,,,,,,,,,,,,,,,,,,,,,,,,,,,,,,,,,,,,,,,,,,,,,,,,,,,,,,,,,,,,,,,,,,,,,,,,,,,,,,,,,,,,,,,,,,,,,,,,,,,,,,,,,,,,,,,,,,,,,,,,,,,,,,,,,,,,,
,,5caddec9facb4c0016ed3652,2024-02-22_06h01.29.167,kallum_motion_pilot,2023.2.2,Win32,59.88023952,5caddec9facb4c0016ed3652,65d6bb0e977760de756971f7,65d6d4d8cb0a17198e65bbac,0.0582,0.0582,0,59,59,136,1,fivesix,,,,,,,,,,,,,,,,,,,,,,,,,,,,,,,,,,,,,,,,,,,,,,,,,,,,,,,,,,,,,,,,,,,,,,,,,,,,,,,,,,,,,,,,,,,,,,,,,,,,,,,,,,,,,,,,,,,,,,,,,,,,,,,,,,,,,,,,,
,,5caddec9facb4c0016ed3652,2024-02-22_06h01.29.167,kallum_motion_pilot,2023.2.2,Win32,59.88023952,5caddec9facb4c0016ed3652,65d6bb0e977760de756971f7,65d6d4d8cb0a17198e65bbac,0.0584,0.0585,0,60,60,69,1,threefour,,,,,,,,,,,,,,,,,,,,,,,,,,,,,,,,,,,,,,,,,,,,,,,,,,,,,,,,,,,,,,,,,,,,,,,,,,,,,,,,,,,,,,,,,,,,,,,,,,,,,,,,,,,,,,,,,,,,,,,,,,,,,,,,,,,,,,,,,
,,5caddec9facb4c0016ed3652,2024-02-22_06h01.29.167,kallum_motion_pilot,2023.2.2,Win32,59.88023952,5caddec9facb4c0016ed3652,65d6bb0e977760de756971f7,65d6d4d8cb0a17198e65bbac,0.0586,0.0588,0,61,61,43,1,twofour,,,,,,,,,,,,,,,,,,,,,,,,,,,,,,,,,,,,,,,,,,,,,,,,,,,,,,,,,,,,,,,,,,,,,,,,,,,,,,,,,,,,,,,,,,,,,,,,,,,,,,,,,,,,,,,,,,,,,,,,,,,,,,,,,,,,,,,,,
,,5caddec9facb4c0016ed3652,2024-02-22_06h01.29.167,kallum_motion_pilot,2023.2.2,Win32,59.88023952,5caddec9facb4c0016ed3652,65d6bb0e977760de756971f7,65d6d4d8cb0a17198e65bbac,0.0589,0.059,0,62,62,95,1,eightseven,,,,,,,,,,,,,,,,,,,,,,,,,,,,,,,,,,,,,,,,,,,,,,,,,,,,,,,,,,,,,,,,,,,,,,,,,,,,,,,,,,,,,,,,,,,,,,,,,,,,,,,,,,,,,,,,,,,,,,,,,,,,,,,,,,,,,,,,,
,,5caddec9facb4c0016ed3652,2024-02-22_06h01.29.167,kallum_motion_pilot,2023.2.2,Win32,59.88023952,5caddec9facb4c0016ed3652,65d6bb0e977760de756971f7,65d6d4d8cb0a17198e65bbac,0.0592,0.0593,0,63,63,93,1,seveneight,,,,,,,,,,,,,,,,,,,,,,,,,,,,,,,,,,,,,,,,,,,,,,,,,,,,,,,,,,,,,,,,,,,,,,,,,,,,,,,,,,,,,,,,,,,,,,,,,,,,,,,,,,,,,,,,,,,,,,,,,,,,,,,,,,,,,,,,,
,,5caddec9facb4c0016ed3652,2024-02-22_06h01.29.167,kallum_motion_pilot,2023.2.2,Win32,59.88023952,5caddec9facb4c0016ed3652,65d6bb0e977760de756971f7,65d6d4d8cb0a17198e65bbac,0.0602,0.0605,0,64,64,80,1,fivesix,,,,,,,,,,,,,,,,,,,,,,,,,,,,,,,,,,,,,,,,,,,,,,,,,,,,,,,,,,,,,,,,,,,,,,,,,,,,,,,,,,,,,,,,,,,,,,,,,,,,,,,,,,,,,,,,,,,,,,,,,,,,,,,,,,,,,,,,,
,,5caddec9facb4c0016ed3652,2024-02-22_06h01.29.167,kallum_motion_pilot,2023.2.2,Win32,59.88023952,5caddec9facb4c0016ed3652,65d6bb0e977760de756971f7,65d6d4d8cb0a17198e65bbac,0.0608,0.061,0,65,65,154,1,sixfive,,,,,,,,,,,,,,,,,,,,,,,,,,,,,,,,,,,,,,,,,,,,,,,,,,,,,,,,,,,,,,,,,,,,,,,,,,,,,,,,,,,,,,,,,,,,,,,,,,,,,,,,,,,,,,,,,,,,,,,,,,,,,,,,,,,,,,,,,
,,5caddec9facb4c0016ed3652,2024-02-22_06h01.29.167,kallum_motion_pilot,2023.2.2,Win32,59.88023952,5caddec9facb4c0016ed3652,65d6bb0e977760de756971f7,65d6d4d8cb0a17198e65bbac,0.0612,0.0613,0,66,66,78,1,fourtwo,,,,,,,,,,,,,,,,,,,,,,,,,,,,,,,,,,,,,,,,,,,,,,,,,,,,,,,,,,,,,,,,,,,,,,,,,,,,,,,,,,,,,,,,,,,,,,,,,,,,,,,,,,,,,,,,,,,,,,,,,,,,,,,,,,,,,,,,,
,,5caddec9facb4c0016ed3652,2024-02-22_06h01.29.167,kallum_motion_pilot,2023.2.2,Win32,59.88023952,5caddec9facb4c0016ed3652,65d6bb0e977760de756971f7,65d6d4d8cb0a17198e65bbac,0.0615,0.0616,0,67,67,141,1,seveneight,,,,,,,,,,,,,,,,,,,,,,,,,,,,,,,,,,,,,,,,,,,,,,,,,,,,,,,,,,,,,,,,,,,,,,,,,,,,,,,,,,,,,,,,,,,,,,,,,,,,,,,,,,,,,,,,,,,,,,,,,,,,,,,,,,,,,,,,,
,,5caddec9facb4c0016ed3652,2024-02-22_06h01.29.167,kallum_motion_pilot,2023.2.2,Win32,59.88023952,5caddec9facb4c0016ed3652,65d6bb0e977760de756971f7,65d6d4d8cb0a17198e65bbac,0.0619,0.062,0,68,68,7,1,fourthree,,,,,,,,,,,,,,,,,,,,,,,,,,,,,,,,,,,,,,,,,,,,,,,,,,,,,,,,,,,,,,,,,,,,,,,,,,,,,,,,,,,,,,,,,,,,,,,,,,,,,,,,,,,,,,,,,,,,,,,,,,,,,,,,,,,,,,,,,
,,5caddec9facb4c0016ed3652,2024-02-22_06h01.29.167,kallum_motion_pilot,2023.2.2,Win32,59.88023952,5caddec9facb4c0016ed3652,65d6bb0e977760de756971f7,65d6d4d8cb0a17198e65bbac,0.0621,0.0622,0,69,69,149,1,seveneight,,,,,,,,,,,,,,,,,,,,,,,,,,,,,,,,,,,,,,,,,,,,,,,,,,,,,,,,,,,,,,,,,,,,,,,,,,,,,,,,,,,,,,,,,,,,,,,,,,,,,,,,,,,,,,,,,,,,,,,,,,,,,,,,,,,,,,,,,
,,5caddec9facb4c0016ed3652,2024-02-22_06h01.29.167,kallum_motion_pilot,2023.2.2,Win32,59.88023952,5caddec9facb4c0016ed3652,65d6bb0e977760de756971f7,65d6d4d8cb0a17198e65bbac,0.0624,0.0624,0,70,70,148,1,sevenfive,,,,,,,,,,,,,,,,,,,,,,,,,,,,,,,,,,,,,,,,,,,,,,,,,,,,,,,,,,,,,,,,,,,,,,,,,,,,,,,,,,,,,,,,,,,,,,,,,,,,,,,,,,,,,,,,,,,,,,,,,,,,,,,,,,,,,,,,,
,,5caddec9facb4c0016ed3652,2024-02-22_06h01.29.167,kallum_motion_pilot,2023.2.2,Win32,59.88023952,5caddec9facb4c0016ed3652,65d6bb0e977760de756971f7,65d6d4d8cb0a17198e65bbac,0.0627,0.0628,0,71,71,24,1,onetwo,,,,,,,,,,,,,,,,,,,,,,,,,,,,,,,,,,,,,,,,,,,,,,,,,,,,,,,,,,,,,,,,,,,,,,,,,,,,,,,,,,,,,,,,,,,,,,,,,,,,,,,,,,,,,,,,,,,,,,,,,,,,,,,,,,,,,,,,,
,,5caddec9facb4c0016ed3652,2024-02-22_06h01.29.167,kallum_motion_pilot,2023.2.2,Win32,59.88023952,5caddec9facb4c0016ed3652,65d6bb0e977760de756971f7,65d6d4d8cb0a17198e65bbac,0.0629,0.063,0,72,72,53,1,threefour,,,,,,,,,,,,,,,,,,,,,,,,,,,,,,,,,,,,,,,,,,,,,,,,,,,,,,,,,,,,,,,,,,,,,,,,,,,,,,,,,,,,,,,,,,,,,,,,,,,,,,,,,,,,,,,,,,,,,,,,,,,,,,,,,,,,,,,,,
,,5caddec9facb4c0016ed3652,2024-02-22_06h01.29.167,kallum_motion_pilot,2023.2.2,Win32,59.88023952,5caddec9facb4c0016ed3652,65d6bb0e977760de756971f7,65d6d4d8cb0a17198e65bbac,0.0631,0.0632,0,73,73,92,1,sevenfive,,,,,,,,,,,,,,,,,,,,,,,,,,,,,,,,,,,,,,,,,,,,,,,,,,,,,,,,,,,,,,,,,,,,,,,,,,,,,,,,,,,,,,,,,,,,,,,,,,,,,,,,,,,,,,,,,,,,,,,,,,,,,,,,,,,,,,,,,
,,5caddec9facb4c0016ed3652,2024-02-22_06h01.29.167,kallum_motion_pilot,2023.2.2,Win32,59.88023952,5caddec9facb4c0016ed3652,65d6bb0e977760de756971f7,65d6d4d8cb0a17198e65bbac,0.0634,0.0635,0,74,74,68,1,threeone,,,,,,,,,,,,,,,,,,,,,,,,,,,,,,,,,,,,,,,,,,,,,,,,,,,,,,,,,,,,,,,,,,,,,,,,,,,,,,,,,,,,,,,,,,,,,,,,,,,,,,,,,,,,,,,,,,,,,,,,,,,,,,,,,,,,,,,,,
,,5caddec9facb4c0016ed3652,2024-02-22_06h01.29.167,kallum_motion_pilot,2023.2.2,Win32,59.88023952,5caddec9facb4c0016ed3652,65d6bb0e977760de756971f7,65d6d4d8cb0a17198e65bbac,0.0637,0.0637,0,75,75,146,1,sixfive,,,,,,,,,,,,,,,,,,,,,,,,,,,,,,,,,,,,,,,,,,,,,,,,,,,,,,,,,,,,,,,,,,,,,,,,,,,,,,,,,,,,,,,,,,,,,,,,,,,,,,,,,,,,,,,,,,,,,,,,,,,,,,,,,,,,,,,,,
,,5caddec9facb4c0016ed3652,2024-02-22_06h01.29.167,kallum_motion_pilot,2023.2.2,Win32,59.88023952,5caddec9facb4c0016ed3652,65d6bb0e977760de756971f7,65d6d4d8cb0a17198e65bbac,0.0639,0.0641,0,76,76,99,1,sixeight,,,,,,,,,,,,,,,,,,,,,,,,,,,,,,,,,,,,,,,,,,,,,,,,,,,,,,,,,,,,,,,,,,,,,,,,,,,,,,,,,,,,,,,,,,,,,,,,,,,,,,,,,,,,,,,,,,,,,,,,,,,,,,,,,,,,,,,,,
,,5caddec9facb4c0016ed3652,2024-02-22_06h01.29.167,kallum_motion_pilot,2023.2.2,Win32,59.88023952,5caddec9facb4c0016ed3652,65d6bb0e977760de756971f7,65d6d4d8cb0a17198e65bbac,0.0642,0.0643,0,77,77,114,1,sixfive,,,,,,,,,,,,,,,,,,,,,,,,,,,,,,,,,,,,,,,,,,,,,,,,,,,,,,,,,,,,,,,,,,,,,,,,,,,,,,,,,,,,,,,,,,,,,,,,,,,,,,,,,,,,,,,,,,,,,,,,,,,,,,,,,,,,,,,,,
,,5caddec9facb4c0016ed3652,2024-02-22_06h01.29.167,kallum_motion_pilot,2023.2.2,Win32,59.88023952,5caddec9facb4c0016ed3652,65d6bb0e977760de756971f7,65d6d4d8cb0a17198e65bbac,0.0645,0.0645,0,78,78,97,1,fiveseven,,,,,,,,,,,,,,,,,,,,,,,,,,,,,,,,,,,,,,,,,,,,,,,,,,,,,,,,,,,,,,,,,,,,,,,,,,,,,,,,,,,,,,,,,,,,,,,,,,,,,,,,,,,,,,,,,,,,,,,,,,,,,,,,,,,,,,,,,
,,5caddec9facb4c0016ed3652,2024-02-22_06h01.29.167,kallum_motion_pilot,2023.2.2,Win32,59.88023952,5caddec9facb4c0016ed3652,65d6bb0e977760de756971f7,65d6d4d8cb0a17198e65bbac,0.0647,0.0648,0,79,79,122,1,sixfive,,,,,,,,,,,,,,,,,,,,,,,,,,,,,,,,,,,,,,,,,,,,,,,,,,,,,,,,,,,,,,,,,,,,,,,,,,,,,,,,,,,,,,,,,,,,,,,,,,,,,,,,,,,,,,,,,,,,,,,,,,,,,,,,,,,,,,,,,
,,5caddec9facb4c0016ed3652,2024-02-22_06h01.29.167,kallum_motion_pilot,2023.2.2,Win32,59.88023952,5caddec9facb4c0016ed3652,65d6bb0e977760de756971f7,65d6d4d8cb0a17198e65bbac,0.065,0.065,0,80,80,31,1,fourthree,,,,,,,,,,,,,,,,,,,,,,,,,,,,,,,,,,,,,,,,,,,,,,,,,,,,,,,,,,,,,,,,,,,,,,,,,,,,,,,,,,,,,,,,,,,,,,,,,,,,,,,,,,,,,,,,,,,,,,,,,,,,,,,,,,,,,,,,,
,,5caddec9facb4c0016ed3652,2024-02-22_06h01.29.167,kallum_motion_pilot,2023.2.2,Win32,59.88023952,5caddec9facb4c0016ed3652,65d6bb0e977760de756971f7,65d6d4d8cb0a17198e65bbac,0.0653,0.0653,0,81,81,25,1,onethree,,,,,,,,,,,,,,,,,,,,,,,,,,,,,,,,,,,,,,,,,,,,,,,,,,,,,,,,,,,,,,,,,,,,,,,,,,,,,,,,,,,,,,,,,,,,,,,,,,,,,,,,,,,,,,,,,,,,,,,,,,,,,,,,,,,,,,,,,
,,5caddec9facb4c0016ed3652,2024-02-22_06h01.29.167,kallum_motion_pilot,2023.2.2,Win32,59.88023952,5caddec9facb4c0016ed3652,65d6bb0e977760de756971f7,65d6d4d8cb0a17198e65bbac,0.0655,0.0656,0,82,82,87,1,eightseven,,,,,,,,,,,,,,,,,,,,,,,,,,,,,,,,,,,,,,,,,,,,,,,,,,,,,,,,,,,,,,,,,,,,,,,,,,,,,,,,,,,,,,,,,,,,,,,,,,,,,,,,,,,,,,,,,,,,,,,,,,,,,,,,,,,,,,,,,
,,5caddec9facb4c0016ed3652,2024-02-22_06h01.29.167,kallum_motion_pilot,2023.2.2,Win32,59.88023952,5caddec9facb4c0016ed3652,65d6bb0e977760de756971f7,65d6d4d8cb0a17198e65bbac,0.0658,0.0658,0,83,83,70,1,fourtwo,,,,,,,,,,,,,,,,,,,,,,,,,,,,,,,,,,,,,,,,,,,,,,,,,,,,,,,,,,,,,,,,,,,,,,,,,,,,,,,,,,,,,,,,,,,,,,,,,,,,,,,,,,,,,,,,,,,,,,,,,,,,,,,,,,,,,,,,,
,,5caddec9facb4c0016ed3652,2024-02-22_06h01.29.167,kallum_motion_pilot,2023.2.2,Win32,59.88023952,5caddec9facb4c0016ed3652,65d6bb0e977760de756971f7,65d6d4d8cb0a17198e65bbac,0.066,0.0661,0,84,84,49,1,onethree,,,,,,,,,,,,,,,,,,,,,,,,,,,,,,,,,,,,,,,,,,,,,,,,,,,,,,,,,,,,,,,,,,,,,,,,,,,,,,,,,,,,,,,,,,,,,,,,,,,,,,,,,,,,,,,,,,,,,,,,,,,,,,,,,,,,,,,,,
,,5caddec9facb4c0016ed3652,2024-02-22_06h01.29.167,kallum_motion_pilot,2023.2.2,Win32,59.88023952,5caddec9facb4c0016ed3652,65d6bb0e977760de756971f7,65d6d4d8cb0a17198e65bbac,0.0663,0.0664,0,85,85,137,1,fiveseven,,,,,,,,,,,,,,,,,,,,,,,,,,,,,,,,,,,,,,,,,,,,,,,,,,,,,,,,,,,,,,,,,,,,,,,,,,,,,,,,,,,,,,,,,,,,,,,,,,,,,,,,,,,,,,,,,,,,,,,,,,,,,,,,,,,,,,,,,
,,5caddec9facb4c0016ed3652,2024-02-22_06h01.29.167,kallum_motion_pilot,2023.2.2,Win32,59.88023952,5caddec9facb4c0016ed3652,65d6bb0e977760de756971f7,65d6d4d8cb0a17198e65bbac,0.0666,0.0667,0,86,86,108,1,sevenfive,,,,,,,,,,,,,,,,,,,,,,,,,,,,,,,,,,,,,,,,,,,,,,,,,,,,,,,,,,,,,,,,,,,,,,,,,,,,,,,,,,,,,,,,,,,,,,,,,,,,,,,,,,,,,,,,,,,,,,,,,,,,,,,,,,,,,,,,,
,,5caddec9facb4c0016ed3652,2024-02-22_06h01.29.167,kallum_motion_pilot,2023.2.2,Win32,59.88023952,5caddec9facb4c0016ed3652,65d6bb0e977760de756971f7,65d6d4d8cb0a17198e65bbac,0.0668,0.067,0,87,87,13,1,threefour,,,,,,,,,,,,,,,,,,,,,,,,,,,,,,,,,,,,,,,,,,,,,,,,,,,,,,,,,,,,,,,,,,,,,,,,,,,,,,,,,,,,,,,,,,,,,,,,,,,,,,,,,,,,,,,,,,,,,,,,,,,,,,,,,,,,,,,,,
,,5caddec9facb4c0016ed3652,2024-02-22_06h01.29.167,kallum_motion_pilot,2023.2.2,Win32,59.88023952,5caddec9facb4c0016ed3652,65d6bb0e977760de756971f7,65d6d4d8cb0a17198e65bbac,0.0671,0.0672,0,88,88,121,1,fiveseven,,,,,,,,,,,,,,,,,,,,,,,,,,,,,,,,,,,,,,,,,,,,,,,,,,,,,,,,,,,,,,,,,,,,,,,,,,,,,,,,,,,,,,,,,,,,,,,,,,,,,,,,,,,,,,,,,,,,,,,,,,,,,,,,,,,,,,,,,
,,5caddec9facb4c0016ed3652,2024-02-22_06h01.29.167,kallum_motion_pilot,2023.2.2,Win32,59.88023952,5caddec9facb4c0016ed3652,65d6bb0e977760de756971f7,65d6d4d8cb0a17198e65bbac,0.0673,0.0674,0,89,89,14,1,fourtwo,,,,,,,,,,,,,,,,,,,,,,,,,,,,,,,,,,,,,,,,,,,,,,,,,,,,,,,,,,,,,,,,,,,,,,,,,,,,,,,,,,,,,,,,,,,,,,,,,,,,,,,,,,,,,,,,,,,,,,,,,,,,,,,,,,,,,,,,,
,,5caddec9facb4c0016ed3652,2024-02-22_06h01.29.167,kallum_motion_pilot,2023.2.2,Win32,59.88023952,5caddec9facb4c0016ed3652,65d6bb0e977760de756971f7,65d6d4d8cb0a17198e65bbac,0.0676,0.0677,0,90,90,1,1,onethree,,,,,,,,,,,,,,,,,,,,,,,,,,,,,,,,,,,,,,,,,,,,,,,,,,,,,,,,,,,,,,,,,,,,,,,,,,,,,,,,,,,,,,,,,,,,,,,,,,,,,,,,,,,,,,,,,,,,,,,,,,,,,,,,,,,,,,,,,
,,5caddec9facb4c0016ed3652,2024-02-22_06h01.29.167,kallum_motion_pilot,2023.2.2,Win32,59.88023952,5caddec9facb4c0016ed3652,65d6bb0e977760de756971f7,65d6d4d8cb0a17198e65bbac,0.0679,0.068,0,91,91,54,1,fourtwo,,,,,,,,,,,,,,,,,,,,,,,,,,,,,,,,,,,,,,,,,,,,,,,,,,,,,,,,,,,,,,,,,,,,,,,,,,,,,,,,,,,,,,,,,,,,,,,,,,,,,,,,,,,,,,,,,,,,,,,,,,,,,,,,,,,,,,,,,
,,5caddec9facb4c0016ed3652,2024-02-22_06h01.29.167,kallum_motion_pilot,2023.2.2,Win32,59.88023952,5caddec9facb4c0016ed3652,65d6bb0e977760de756971f7,65d6d4d8cb0a17198e65bbac,0.0681,0.0682,0,92,92,134,1,eightsix,,,,,,,,,,,,,,,,,,,,,,,,,,,,,,,,,,,,,,,,,,,,,,,,,,,,,,,,,,,,,,,,,,,,,,,,,,,,,,,,,,,,,,,,,,,,,,,,,,,,,,,,,,,,,,,,,,,,,,,,,,,,,,,,,,,,,,,,,
,,5caddec9facb4c0016ed3652,2024-02-22_06h01.29.167,kallum_motion_pilot,2023.2.2,Win32,59.88023952,5caddec9facb4c0016ed3652,65d6bb0e977760de756971f7,65d6d4d8cb0a17198e65bbac,0.0684,0.0685,0,93,93,119,1,eightseven,,,,,,,,,,,,,,,,,,,,,,,,,,,,,,,,,,,,,,,,,,,,,,,,,,,,,,,,,,,,,,,,,,,,,,,,,,,,,,,,,,,,,,,,,,,,,,,,,,,,,,,,,,,,,,,,,,,,,,,,,,,,,,,,,,,,,,,,,
,,5caddec9facb4c0016ed3652,2024-02-22_06h01.29.167,kallum_motion_pilot,2023.2.2,Win32,59.88023952,5caddec9facb4c0016ed3652,65d6bb0e977760de756971f7,65d6d4d8cb0a17198e65bbac,0.0687,0.0687,0,94,94,143,1,eightseven,,,,,,,,,,,,,,,,,,,,,,,,,,,,,,,,,,,,,,,,,,,,,,,,,,,,,,,,,,,,,,,,,,,,,,,,,,,,,,,,,,,,,,,,,,,,,,,,,,,,,,,,,,,,,,,,,,,,,,,,,,,,,,,,,,,,,,,,,
,,5caddec9facb4c0016ed3652,2024-02-22_06h01.29.167,kallum_motion_pilot,2023.2.2,Win32,59.88023952,5caddec9facb4c0016ed3652,65d6bb0e977760de756971f7,65d6d4d8cb0a17198e65bbac,0.069,0.069,0,95,95,40,1,onetwo,,,,,,,,,,,,,,,,,,,,,,,,,,,,,,,,,,,,,,,,,,,,,,,,,,,,,,,,,,,,,,,,,,,,,,,,,,,,,,,,,,,,,,,,,,,,,,,,,,,,,,,,,,,,,,,,,,,,,,,,,,,,,,,,,,,,,,,,,
,,5caddec9facb4c0016ed3652,2024-02-22_06h01.29.167,kallum_motion_pilot,2023.2.2,Win32,59.88023952,5caddec9facb4c0016ed3652,65d6bb0e977760de756971f7,65d6d4d8cb0a17198e65bbac,0.0692,0.0693,0,96,96,47,1,fourthree,,,,,,,,,,,,,,,,,,,,,,,,,,,,,,,,,,,,,,,,,,,,,,,,,,,,,,,,,,,,,,,,,,,,,,,,,,,,,,,,,,,,,,,,,,,,,,,,,,,,,,,,,,,,,,,,,,,,,,,,,,,,,,,,,,,,,,,,,
,,5caddec9facb4c0016ed3652,2024-02-22_06h01.29.167,kallum_motion_pilot,2023.2.2,Win32,59.88023952,5caddec9facb4c0016ed3652,65d6bb0e977760de756971f7,65d6d4d8cb0a17198e65bbac,0.0695,0.0696,0,97,97,145,1,fiveseven,,,,,,,,,,,,,,,,,,,,,,,,,,,,,,,,,,,,,,,,,,,,,,,,,,,,,,,,,,,,,,,,,,,,,,,,,,,,,,,,,,,,,,,,,,,,,,,,,,,,,,,,,,,,,,,,,,,,,,,,,,,,,,,,,,,,,,,,,
,,5caddec9facb4c0016ed3652,2024-02-22_06h01.29.167,kallum_motion_pilot,2023.2.2,Win32,59.88023952,5caddec9facb4c0016ed3652,65d6bb0e977760de756971f7,65d6d4d8cb0a17198e65bbac,0.0697,0.0698,0,98,98,132,1,sevenfive,,,,,,,,,,,,,,,,,,,,,,,,,,,,,,,,,,,,,,,,,,,,,,,,,,,,,,,,,,,,,,,,,,,,,,,,,,,,,,,,,,,,,,,,,,,,,,,,,,,,,,,,,,,,,,,,,,,,,,,,,,,,,,,,,,,,,,,,,
,,5caddec9facb4c0016ed3652,2024-02-22_06h01.29.167,kallum_motion_pilot,2023.2.2,Win32,59.88023952,5caddec9facb4c0016ed3652,65d6bb0e977760de756971f7,65d6d4d8cb0a17198e65bbac,0.071,0.0712,0,99,99,71,1,fourthree,,,,,,,,,,,,,,,,,,,,,,,,,,,,,,,,,,,,,,,,,,,,,,,,,,,,,,,,,,,,,,,,,,,,,,,,,,,,,,,,,,,,,,,,,,,,,,,,,,,,,,,,,,,,,,,,,,,,,,,,,,,,,,,,,,,,,,,,,
,,5caddec9facb4c0016ed3652,2024-02-22_06h01.29.167,kallum_motion_pilot,2023.2.2,Win32,59.88023952,5caddec9facb4c0016ed3652,65d6bb0e977760de756971f7,65d6d4d8cb0a17198e65bbac,0.0713,0.0714,0,100,100,117,1,seveneight,,,,,,,,,,,,,,,,,,,,,,,,,,,,,,,,,,,,,,,,,,,,,,,,,,,,,,,,,,,,,,,,,,,,,,,,,,,,,,,,,,,,,,,,,,,,,,,,,,,,,,,,,,,,,,,,,,,,,,,,,,,,,,,,,,,,,,,,,
,,5caddec9facb4c0016ed3652,2024-02-22_06h01.29.167,kallum_motion_pilot,2023.2.2,Win32,59.88023952,5caddec9facb4c0016ed3652,65d6bb0e977760de756971f7,65d6d4d8cb0a17198e65bbac,0.0715,0.0716,0,101,101,19,1,twofour,,,,,,,,,,,,,,,,,,,,,,,,,,,,,,,,,,,,,,,,,,,,,,,,,,,,,,,,,,,,,,,,,,,,,,,,,,,,,,,,,,,,,,,,,,,,,,,,,,,,,,,,,,,,,,,,,,,,,,,,,,,,,,,,,,,,,,,,,
,,5caddec9facb4c0016ed3652,2024-02-22_06h01.29.167,kallum_motion_pilot,2023.2.2,Win32,59.88023952,5caddec9facb4c0016ed3652,65d6bb0e977760de756971f7,65d6d4d8cb0a17198e65bbac,0.0719,0.0719,0,102,102,133,1,seveneight,,,,,,,,,,,,,,,,,,,,,,,,,,,,,,,,,,,,,,,,,,,,,,,,,,,,,,,,,,,,,,,,,,,,,,,,,,,,,,,,,,,,,,,,,,,,,,,,,,,,,,,,,,,,,,,,,,,,,,,,,,,,,,,,,,,,,,,,,
,,5caddec9facb4c0016ed3652,2024-02-22_06h01.29.167,kallum_motion_pilot,2023.2.2,Win32,59.88023952,5caddec9facb4c0016ed3652,65d6bb0e977760de756971f7,65d6d4d8cb0a17198e65bbac,0.0721,0.0723,0,103,103,18,1,twoone,,,,,,,,,,,,,,,,,,,,,,,,,,,,,,,,,,,,,,,,,,,,,,,,,,,,,,,,,,,,,,,,,,,,,,,,,,,,,,,,,,,,,,,,,,,,,,,,,,,,,,,,,,,,,,,,,,,,,,,,,,,,,,,,,,,,,,,,,
,,5caddec9facb4c0016ed3652,2024-02-22_06h01.29.167,kallum_motion_pilot,2023.2.2,Win32,59.88023952,5caddec9facb4c0016ed3652,65d6bb0e977760de756971f7,65d6d4d8cb0a17198e65bbac,0.0724,0.0725,0,104,104,9,1,onethree,,,,,,,,,,,,,,,,,,,,,,,,,,,,,,,,,,,,,,,,,,,,,,,,,,,,,,,,,,,,,,,,,,,,,,,,,,,,,,,,,,,,,,,,,,,,,,,,,,,,,,,,,,,,,,,,,,,,,,,,,,,,,,,,,,,,,,,,,
,,5caddec9facb4c0016ed3652,2024-02-22_06h01.29.167,kallum_motion_pilot,2023.2.2,Win32,59.88023952,5caddec9facb4c0016ed3652,65d6bb0e977760de756971f7,65d6d4d8cb0a17198e65bbac,0.0727,0.0728,0,105,105,118,1,eightsix,,,,,,,,,,,,,,,,,,,,,,,,,,,,,,,,,,,,,,,,,,,,,,,,,,,,,,,,,,,,,,,,,,,,,,,,,,,,,,,,,,,,,,,,,,,,,,,,,,,,,,,,,,,,,,,,,,,,,,,,,,,,,,,,,,,,,,,,,
,,5caddec9facb4c0016ed3652,2024-02-22_06h01.29.167,kallum_motion_pilot,2023.2.2,Win32,59.88023952,5caddec9facb4c0016ed3652,65d6bb0e977760de756971f7,65d6d4d8cb0a17198e65bbac,0.073,0.0731,0,106,106,98,1,sixfive,,,,,,,,,,,,,,,,,,,,,,,,,,,,,,,,,,,,,,,,,,,,,,,,,,,,,,,,,,,,,,,,,,,,,,,,,,,,,,,,,,,,,,,,,,,,,,,,,,,,,,,,,,,,,,,,,,,,,,,,,,,,,,,,,,,,,,,,,
,,5caddec9facb4c0016ed3652,2024-02-22_06h01.29.167,kallum_motion_pilot,2023.2.2,Win32,59.88023952,5caddec9facb4c0016ed3652,65d6bb0e977760de756971f7,65d6d4d8cb0a17198e65bbac,0.0733,0.0734,0,107,107,50,1,twoone,,,,,,,,,,,,,,,,,,,,,,,,,,,,,,,,,,,,,,,,,,,,,,,,,,,,,,,,,,,,,,,,,,,,,,,,,,,,,,,,,,,,,,,,,,,,,,,,,,,,,,,,,,,,,,,,,,,,,,,,,,,,,,,,,,,,,,,,,
,,5caddec9facb4c0016ed3652,2024-02-22_06h01.29.167,kallum_motion_pilot,2023.2.2,Win32,59.88023952,5caddec9facb4c0016ed3652,65d6bb0e977760de756971f7,65d6d4d8cb0a17198e65bbac,0.0736,0.0737,0,108,108,94,1,eightsix,,,,,,,,,,,,,,,,,,,,,,,,,,,,,,,,,,,,,,,,,,,,,,,,,,,,,,,,,,,,,,,,,,,,,,,,,,,,,,,,,,,,,,,,,,,,,,,,,,,,,,,,,,,,,,,,,,,,,,,,,,,,,,,,,,,,,,,,,
,,5caddec9facb4c0016ed3652,2024-02-22_06h01.29.167,kallum_motion_pilot,2023.2.2,Win32,59.88023952,5caddec9facb4c0016ed3652,65d6bb0e977760de756971f7,65d6d4d8cb0a17198e65bbac,0.0738,0.074,0,109,109,67,1,twofour,,,,,,,,,,,,,,,,,,,,,,,,,,,,,,,,,,,,,,,,,,,,,,,,,,,,,,,,,,,,,,,,,,,,,,,,,,,,,,,,,,,,,,,,,,,,,,,,,,,,,,,,,,,,,,,,,,,,,,,,,,,,,,,,,,,,,,,,,
,,5caddec9facb4c0016ed3652,2024-02-22_06h01.29.167,kallum_motion_pilot,2023.2.2,Win32,59.88023952,5caddec9facb4c0016ed3652,65d6bb0e977760de756971f7,65d6d4d8cb0a17198e65bbac,0.0741,0.0743,0,110,110,66,1,twoone,,,,,,,,,,,,,,,,,,,,,,,,,,,,,,,,,,,,,,,,,,,,,,,,,,,,,,,,,,,,,,,,,,,,,,,,,,,,,,,,,,,,,,,,,,,,,,,,,,,,,,,,,,,,,,,,,,,,,,,,,,,,,,,,,,,,,,,,,
,,5caddec9facb4c0016ed3652,2024-02-22_06h01.29.167,kallum_motion_pilot,2023.2.2,Win32,59.88023952,5caddec9facb4c0016ed3652,65d6bb0e977760de756971f7,65d6d4d8cb0a17198e65bbac,0.0744,0.0745,0,111,111,84,1,sevenfive,,,,,,,,,,,,,,,,,,,,,,,,,,,,,,,,,,,,,,,,,,,,,,,,,,,,,,,,,,,,,,,,,,,,,,,,,,,,,,,,,,,,,,,,,,,,,,,,,,,,,,,,,,,,,,,,,,,,,,,,,,,,,,,,,,,,,,,,,
,,5caddec9facb4c0016ed3652,2024-02-22_06h01.29.167,kallum_motion_pilot,2023.2.2,Win32,59.88023952,5caddec9facb4c0016ed3652,65d6bb0e977760de756971f7,65d6d4d8cb0a17198e65bbac,0.0748,0.0748,0,112,112,72,1,onetwo,,,,,,,,,,,,,,,,,,,,,,,,,,,,,,,,,,,,,,,,,,,,,,,,,,,,,,,,,,,,,,,,,,,,,,,,,,,,,,,,,,,,,,,,,,,,,,,,,,,,,,,,,,,,,,,,,,,,,,,,,,,,,,,,,,,,,,,,,
,,5caddec9facb4c0016ed3652,2024-02-22_06h01.29.167,kallum_motion_pilot,2023.2.2,Win32,59.88023952,5caddec9facb4c0016ed3652,65d6bb0e977760de756971f7,65d6d4d8cb0a17198e65bbac,0.075,0.0751,0,113,113,105,1,fiveseven,,,,,,,,,,,,,,,,,,,,,,,,,,,,,,,,,,,,,,,,,,,,,,,,,,,,,,,,,,,,,,,,,,,,,,,,,,,,,,,,,,,,,,,,,,,,,,,,,,,,,,,,,,,,,,,,,,,,,,,,,,,,,,,,,,,,,,,,,
,,5caddec9facb4c0016ed3652,2024-02-22_06h01.29.167,kallum_motion_pilot,2023.2.2,Win32,59.88023952,5caddec9facb4c0016ed3652,65d6bb0e977760de756971f7,65d6d4d8cb0a17198e65bbac,0.0753,0.0754,0,114,114,85,1,seveneight,,,,,,,,,,,,,,,,,,,,,,,,,,,,,,,,,,,,,,,,,,,,,,,,,,,,,,,,,,,,,,,,,,,,,,,,,,,,,,,,,,,,,,,,,,,,,,,,,,,,,,,,,,,,,,,,,,,,,,,,,,,,,,,,,,,,,,,,,
,,5caddec9facb4c0016ed3652,2024-02-22_06h01.29.167,kallum_motion_pilot,2023.2.2,Win32,59.88023952,5caddec9facb4c0016ed3652,65d6bb0e977760de756971f7,65d6d4d8cb0a17198e65bbac,0.0755,0.0756,0,115,115,45,1,threefour,,,,,,,,,,,,,,,,,,,,,,,,,,,,,,,,,,,,,,,,,,,,,,,,,,,,,,,,,,,,,,,,,,,,,,,,,,,,,,,,,,,,,,,,,,,,,,,,,,,,,,,,,,,,,,,,,,,,,,,,,,,,,,,,,,,,,,,,,
,,5caddec9facb4c0016ed3652,2024-02-22_06h01.29.167,kallum_motion_pilot,2023.2.2,Win32,59.88023952,5caddec9facb4c0016ed3652,65d6bb0e977760de756971f7,65d6d4d8cb0a17198e65bbac,0.0758,0.0759,0,116,116,101,1,seveneight,,,,,,,,,,,,,,,,,,,,,,,,,,,,,,,,,,,,,,,,,,,,,,,,,,,,,,,,,,,,,,,,,,,,,,,,,,,,,,,,,,,,,,,,,,,,,,,,,,,,,,,,,,,,,,,,,,,,,,,,,,,,,,,,,,,,,,,,,
,,5caddec9facb4c0016ed3652,2024-02-22_06h01.29.167,kallum_motion_pilot,2023.2.2,Win32,59.88023952,5caddec9facb4c0016ed3652,65d6bb0e977760de756971f7,65d6d4d8cb0a17198e65bbac,0.076,0.0764,0,117,117,159,1,eightseven,,,,,,,,,,,,,,,,,,,,,,,,,,,,,,,,,,,,,,,,,,,,,,,,,,,,,,,,,,,,,,,,,,,,,,,,,,,,,,,,,,,,,,,,,,,,,,,,,,,,,,,,,,,,,,,,,,,,,,,,,,,,,,,,,,,,,,,,,
,,5caddec9facb4c0016ed3652,2024-02-22_06h01.29.167,kallum_motion_pilot,2023.2.2,Win32,59.88023952,5caddec9facb4c0016ed3652,65d6bb0e977760de756971f7,65d6d4d8cb0a17198e65bbac,0.0771,0.0775,0,118,118,100,1,sevenfive,,,,,,,,,,,,,,,,,,,,,,,,,,,,,,,,,,,,,,,,,,,,,,,,,,,,,,,,,,,,,,,,,,,,,,,,,,,,,,,,,,,,,,,,,,,,,,,,,,,,,,,,,,,,,,,,,,,,,,,,,,,,,,,,,,,,,,,,,
,,5caddec9facb4c0016ed3652,2024-02-22_06h01.29.167,kallum_motion_pilot,2023.2.2,Win32,59.88023952,5caddec9facb4c0016ed3652,65d6bb0e977760de756971f7,65d6d4d8cb0a17198e65bbac,0.0778,0.0779,0,119,119,73,1,onethree,,,,,,,,,,,,,,,,,,,,,,,,,,,,,,,,,,,,,,,,,,,,,,,,,,,,,,,,,,,,,,,,,,,,,,,,,,,,,,,,,,,,,,,,,,,,,,,,,,,,,,,,,,,,,,,,,,,,,,,,,,,,,,,,,,,,,,,,,
,,5caddec9facb4c0016ed3652,2024-02-22_06h01.29.167,kallum_motion_pilot,2023.2.2,Win32,59.88023952,5caddec9facb4c0016ed3652,65d6bb0e977760de756971f7,65d6d4d8cb0a17198e65bbac,0.0781,0.0783,0,120,120,112,1,fivesix,,,,,,,,,,,,,,,,,,,,,,,,,,,,,,,,,,,,,,,,,,,,,,,,,,,,,,,,,,,,,,,,,,,,,,,,,,,,,,,,,,,,,,,,,,,,,,,,,,,,,,,,,,,,,,,,,,,,,,,,,,,,,,,,,,,,,,,,,
,,5caddec9facb4c0016ed3652,2024-02-22_06h01.29.167,kallum_motion_pilot,2023.2.2,Win32,59.88023952,5caddec9facb4c0016ed3652,65d6bb0e977760de756971f7,65d6d4d8cb0a17198e65bbac,0.0785,0.0786,0,121,121,4,1,threeone,,,,,,,,,,,,,,,,,,,,,,,,,,,,,,,,,,,,,,,,,,,,,,,,,,,,,,,,,,,,,,,,,,,,,,,,,,,,,,,,,,,,,,,,,,,,,,,,,,,,,,,,,,,,,,,,,,,,,,,,,,,,,,,,,,,,,,,,,
,,5caddec9facb4c0016ed3652,2024-02-22_06h01.29.167,kallum_motion_pilot,2023.2.2,Win32,59.88023952,5caddec9facb4c0016ed3652,65d6bb0e977760de756971f7,65d6d4d8cb0a17198e65bbac,0.0788,0.0789,0,122,122,113,1,fiveseven,,,,,,,,,,,,,,,,,,,,,,,,,,,,,,,,,,,,,,,,,,,,,,,,,,,,,,,,,,,,,,,,,,,,,,,,,,,,,,,,,,,,,,,,,,,,,,,,,,,,,,,,,,,,,,,,,,,,,,,,,,,,,,,,,,,,,,,,,
,,5caddec9facb4c0016ed3652,2024-02-22_06h01.29.167,kallum_motion_pilot,2023.2.2,Win32,59.88023952,5caddec9facb4c0016ed3652,65d6bb0e977760de756971f7,65d6d4d8cb0a17198e65bbac,0.0791,0.0792,0,123,123,153,1,fiveseven,,,,,,,,,,,,,,,,,,,,,,,,,,,,,,,,,,,,,,,,,,,,,,,,,,,,,,,,,,,,,,,,,,,,,,,,,,,,,,,,,,,,,,,,,,,,,,,,,,,,,,,,,,,,,,,,,,,,,,,,,,,,,,,,,,,,,,,,,
,,5caddec9facb4c0016ed3652,2024-02-22_06h01.29.167,kallum_motion_pilot,2023.2.2,Win32,59.88023952,5caddec9facb4c0016ed3652,65d6bb0e977760de756971f7,65d6d4d8cb0a17198e65bbac,0.0795,0.0795,0,124,124,147,1,sixeight,,,,,,,,,,,,,,,,,,,,,,,,,,,,,,,,,,,,,,,,,,,,,,,,,,,,,,,,,,,,,,,,,,,,,,,,,,,,,,,,,,,,,,,,,,,,,,,,,,,,,,,,,,,,,,,,,,,,,,,,,,,,,,,,,,,,,,,,,
,,5caddec9facb4c0016ed3652,2024-02-22_06h01.29.167,kallum_motion_pilot,2023.2.2,Win32,59.88023952,5caddec9facb4c0016ed3652,65d6bb0e977760de756971f7,65d6d4d8cb0a17198e65bbac,0.0797,0.0798,0,125,125,128,1,fivesix,,,,,,,,,,,,,,,,,,,,,,,,,,,,,,,,,,,,,,,,,,,,,,,,,,,,,,,,,,,,,,,,,,,,,,,,,,,,,,,,,,,,,,,,,,,,,,,,,,,,,,,,,,,,,,,,,,,,,,,,,,,,,,,,,,,,,,,,,
,,5caddec9facb4c0016ed3652,2024-02-22_06h01.29.167,kallum_motion_pilot,2023.2.2,Win32,59.88023952,5caddec9facb4c0016ed3652,65d6bb0e977760de756971f7,65d6d4d8cb0a17198e65bbac,0.0801,0.0802,0,126,126,76,1,threeone,,,,,,,,,,,,,,,,,,,,,,,,,,,,,,,,,,,,,,,,,,,,,,,,,,,,,,,,,,,,,,,,,,,,,,,,,,,,,,,,,,,,,,,,,,,,,,,,,,,,,,,,,,,,,,,,,,,,,,,,,,,,,,,,,,,,,,,,,
,,5caddec9facb4c0016ed3652,2024-02-22_06h01.29.167,kallum_motion_pilot,2023.2.2,Win32,59.88023952,5caddec9facb4c0016ed3652,65d6bb0e977760de756971f7,65d6d4d8cb0a17198e65bbac,0.0804,0.0806,0,127,127,86,1,eightsix,,,,,,,,,,,,,,,,,,,,,,,,,,,,,,,,,,,,,,,,,,,,,,,,,,,,,,,,,,,,,,,,,,,,,,,,,,,,,,,,,,,,,,,,,,,,,,,,,,,,,,,,,,,,,,,,,,,,,,,,,,,,,,,,,,,,,,,,,
,,5caddec9facb4c0016ed3652,2024-02-22_06h01.29.167,kallum_motion_pilot,2023.2.2,Win32,59.88023952,5caddec9facb4c0016ed3652,65d6bb0e977760de756971f7,65d6d4d8cb0a17198e65bbac,0.0807,0.0808,0,128,128,17,1,onethree,,,,,,,,,,,,,,,,,,,,,,,,,,,,,,,,,,,,,,,,,,,,,,,,,,,,,,,,,,,,,,,,,,,,,,,,,,,,,,,,,,,,,,,,,,,,,,,,,,,,,,,,,,,,,,,,,,,,,,,,,,,,,,,,,,,,,,,,,
,,5caddec9facb4c0016ed3652,2024-02-22_06h01.29.167,kallum_motion_pilot,2023.2.2,Win32,59.88023952,5caddec9facb4c0016ed3652,65d6bb0e977760de756971f7,65d6d4d8cb0a17198e65bbac,0.081,0.0811,0,129,129,129,1,fiveseven,,,,,,,,,,,,,,,,,,,,,,,,,,,,,,,,,,,,,,,,,,,,,,,,,,,,,,,,,,,,,,,,,,,,,,,,,,,,,,,,,,,,,,,,,,,,,,,,,,,,,,,,,,,,,,,,,,,,,,,,,,,,,,,,,,,,,,,,,
,,5caddec9facb4c0016ed3652,2024-02-22_06h01.29.167,kallum_motion_pilot,2023.2.2,Win32,59.88023952,5caddec9facb4c0016ed3652,65d6bb0e977760de756971f7,65d6d4d8cb0a17198e65bbac,0.0813,0.0814,0,130,130,38,1,fourtwo,,,,,,,,,,,,,,,,,,,,,,,,,,,,,,,,,,,,,,,,,,,,,,,,,,,,,,,,,,,,,,,,,,,,,,,,,,,,,,,,,,,,,,,,,,,,,,,,,,,,,,,,,,,,,,,,,,,,,,,,,,,,,,,,,,,,,,,,,
,,5caddec9facb4c0016ed3652,2024-02-22_06h01.29.167,kallum_motion_pilot,2023.2.2,Win32,59.88023952,5caddec9facb4c0016ed3652,65d6bb0e977760de756971f7,65d6d4d8cb0a17198e65bbac,0.0815,0.0816,0,131,131,160,1,fivesix,,,,,,,,,,,,,,,,,,,,,,,,,,,,,,,,,,,,,,,,,,,,,,,,,,,,,,,,,,,,,,,,,,,,,,,,,,,,,,,,,,,,,,,,,,,,,,,,,,,,,,,,,,,,,,,,,,,,,,,,,,,,,,,,,,,,,,,,,
,,5caddec9facb4c0016ed3652,2024-02-22_06h01.29.167,kallum_motion_pilot,2023.2.2,Win32,59.88023952,5caddec9facb4c0016ed3652,65d6bb0e977760de756971f7,65d6d4d8cb0a17198e65bbac,0.0819,0.082,0,132,132,62,1,fourtwo,,,,,,,,,,,,,,,,,,,,,,,,,,,,,,,,,,,,,,,,,,,,,,,,,,,,,,,,,,,,,,,,,,,,,,,,,,,,,,,,,,,,,,,,,,,,,,,,,,,,,,,,,,,,,,,,,,,,,,,,,,,,,,,,,,,,,,,,,
,,5caddec9facb4c0016ed3652,2024-02-22_06h01.29.167,kallum_motion_pilot,2023.2.2,Win32,59.88023952,5caddec9facb4c0016ed3652,65d6bb0e977760de756971f7,65d6d4d8cb0a17198e65bbac,0.0821,0.0822,0,133,133,83,1,sixeight,,,,,,,,,,,,,,,,,,,,,,,,,,,,,,,,,,,,,,,,,,,,,,,,,,,,,,,,,,,,,,,,,,,,,,,,,,,,,,,,,,,,,,,,,,,,,,,,,,,,,,,,,,,,,,,,,,,,,,,,,,,,,,,,,,,,,,,,,
,,5caddec9facb4c0016ed3652,2024-02-22_06h01.29.167,kallum_motion_pilot,2023.2.2,Win32,59.88023952,5caddec9facb4c0016ed3652,65d6bb0e977760de756971f7,65d6d4d8cb0a17198e65bbac,0.0824,0.0826,0,134,134,156,1,sevenfive,,,,,,,,,,,,,,,,,,,,,,,,,,,,,,,,,,,,,,,,,,,,,,,,,,,,,,,,,,,,,,,,,,,,,,,,,,,,,,,,,,,,,,,,,,,,,,,,,,,,,,,,,,,,,,,,,,,,,,,,,,,,,,,,,,,,,,,,,
,,5caddec9facb4c0016ed3652,2024-02-22_06h01.29.167,kallum_motion_pilot,2023.2.2,Win32,59.88023952,5caddec9facb4c0016ed3652,65d6bb0e977760de756971f7,65d6d4d8cb0a17198e65bbac,0.0828,0.0828,0,135,135,26,1,twoone,,,,,,,,,,,,,,,,,,,,,,,,,,,,,,,,,,,,,,,,,,,,,,,,,,,,,,,,,,,,,,,,,,,,,,,,,,,,,,,,,,,,,,,,,,,,,,,,,,,,,,,,,,,,,,,,,,,,,,,,,,,,,,,,,,,,,,,,,
,,5caddec9facb4c0016ed3652,2024-02-22_06h01.29.167,kallum_motion_pilot,2023.2.2,Win32,59.88023952,5caddec9facb4c0016ed3652,65d6bb0e977760de756971f7,65d6d4d8cb0a17198e65bbac,0.083,0.0831,0,136,136,75,1,twofour,,,,,,,,,,,,,,,,,,,,,,,,,,,,,,,,,,,,,,,,,,,,,,,,,,,,,,,,,,,,,,,,,,,,,,,,,,,,,,,,,,,,,,,,,,,,,,,,,,,,,,,,,,,,,,,,,,,,,,,,,,,,,,,,,,,,,,,,,
,,5caddec9facb4c0016ed3652,2024-02-22_06h01.29.167,kallum_motion_pilot,2023.2.2,Win32,59.88023952,5caddec9facb4c0016ed3652,65d6bb0e977760de756971f7,65d6d4d8cb0a17198e65bbac,0.0833,0.0834,0,137,137,46,1,fourtwo,,,,,,,,,,,,,,,,,,,,,,,,,,,,,,,,,,,,,,,,,,,,,,,,,,,,,,,,,,,,,,,,,,,,,,,,,,,,,,,,,,,,,,,,,,,,,,,,,,,,,,,,,,,,,,,,,,,,,,,,,,,,,,,,,,,,,,,,,
,,5caddec9facb4c0016ed3652,2024-02-22_06h01.29.167,kallum_motion_pilot,2023.2.2,Win32,59.88023952,5caddec9facb4c0016ed3652,65d6bb0e977760de756971f7,65d6d4d8cb0a17198e65bbac,0.0836,0.0837,0,138,138,21,1,threefour,,,,,,,,,,,,,,,,,,,,,,,,,,,,,,,,,,,,,,,,,,,,,,,,,,,,,,,,,,,,,,,,,,,,,,,,,,,,,,,,,,,,,,,,,,,,,,,,,,,,,,,,,,,,,,,,,,,,,,,,,,,,,,,,,,,,,,,,,
,,5caddec9facb4c0016ed3652,2024-02-22_06h01.29.167,kallum_motion_pilot,2023.2.2,Win32,59.88023952,5caddec9facb4c0016ed3652,65d6bb0e977760de756971f7,65d6d4d8cb0a17198e65bbac,0.0839,0.0841,0,139,139,77,1,threefour,,,,,,,,,,,,,,,,,,,,,,,,,,,,,,,,,,,,,,,,,,,,,,,,,,,,,,,,,,,,,,,,,,,,,,,,,,,,,,,,,,,,,,,,,,,,,,,,,,,,,,,,,,,,,,,,,,,,,,,,,,,,,,,,,,,,,,,,,
,,5caddec9facb4c0016ed3652,2024-02-22_06h01.29.167,kallum_motion_pilot,2023.2.2,Win32,59.88023952,5caddec9facb4c0016ed3652,65d6bb0e977760de756971f7,65d6d4d8cb0a17198e65bbac,0.0843,0.0844,0,140,140,11,1,twofour,,,,,,,,,,,,,,,,,,,,,,,,,,,,,,,,,,,,,,,,,,,,,,,,,,,,,,,,,,,,,,,,,,,,,,,,,,,,,,,,,,,,,,,,,,,,,,,,,,,,,,,,,,,,,,,,,,,,,,,,,,,,,,,,,,,,,,,,,
,,5caddec9facb4c0016ed3652,2024-02-22_06h01.29.167,kallum_motion_pilot,2023.2.2,Win32,59.88023952,5caddec9facb4c0016ed3652,65d6bb0e977760de756971f7,65d6d4d8cb0a17198e65bbac,0.0847,0.0848,0,141,141,123,1,sixeight,,,,,,,,,,,,,,,,,,,,,,,,,,,,,,,,,,,,,,,,,,,,,,,,,,,,,,,,,,,,,,,,,,,,,,,,,,,,,,,,,,,,,,,,,,,,,,,,,,,,,,,,,,,,,,,,,,,,,,,,,,,,,,,,,,,,,,,,,
,,5caddec9facb4c0016ed3652,2024-02-22_06h01.29.167,kallum_motion_pilot,2023.2.2,Win32,59.88023952,5caddec9facb4c0016ed3652,65d6bb0e977760de756971f7,65d6d4d8cb0a17198e65bbac,0.085,0.0851,0,142,142,35,1,twofour,,,,,,,,,,,,,,,,,,,,,,,,,,,,,,,,,,,,,,,,,,,,,,,,,,,,,,,,,,,,,,,,,,,,,,,,,,,,,,,,,,,,,,,,,,,,,,,,,,,,,,,,,,,,,,,,,,,,,,,,,,,,,,,,,,,,,,,,,
,,5caddec9facb4c0016ed3652,2024-02-22_06h01.29.167,kallum_motion_pilot,2023.2.2,Win32,59.88023952,5caddec9facb4c0016ed3652,65d6bb0e977760de756971f7,65d6d4d8cb0a17198e65bbac,0.0853,0.0854,0,143,143,79,1,eightseven,,,,,,,,,,,,,,,,,,,,,,,,,,,,,,,,,,,,,,,,,,,,,,,,,,,,,,,,,,,,,,,,,,,,,,,,,,,,,,,,,,,,,,,,,,,,,,,,,,,,,,,,,,,,,,,,,,,,,,,,,,,,,,,,,,,,,,,,,
,,5caddec9facb4c0016ed3652,2024-02-22_06h01.29.167,kallum_motion_pilot,2023.2.2,Win32,59.88023952,5caddec9facb4c0016ed3652,65d6bb0e977760de756971f7,65d6d4d8cb0a17198e65bbac,0.0856,0.0858,0,144,144,109,1,seveneight,,,,,,,,,,,,,,,,,,,,,,,,,,,,,,,,,,,,,,,,,,,,,,,,,,,,,,,,,,,,,,,,,,,,,,,,,,,,,,,,,,,,,,,,,,,,,,,,,,,,,,,,,,,,,,,,,,,,,,,,,,,,,,,,,,,,,,,,,
,,5caddec9facb4c0016ed3652,2024-02-22_06h01.29.167,kallum_motion_pilot,2023.2.2,Win32,59.88023952,5caddec9facb4c0016ed3652,65d6bb0e977760de756971f7,65d6d4d8cb0a17198e65bbac,0.086,0.0861,0,145,145,140,1,sevenfive,,,,,,,,,,,,,,,,,,,,,,,,,,,,,,,,,,,,,,,,,,,,,,,,,,,,,,,,,,,,,,,,,,,,,,,,,,,,,,,,,,,,,,,,,,,,,,,,,,,,,,,,,,,,,,,,,,,,,,,,,,,,,,,,,,,,,,,,,
,,5caddec9facb4c0016ed3652,2024-02-22_06h01.29.167,kallum_motion_pilot,2023.2.2,Win32,59.88023952,5caddec9facb4c0016ed3652,65d6bb0e977760de756971f7,65d6d4d8cb0a17198e65bbac,0.0863,0.0864,0,146,146,90,1,sixfive,,,,,,,,,,,,,,,,,,,,,,,,,,,,,,,,,,,,,,,,,,,,,,,,,,,,,,,,,,,,,,,,,,,,,,,,,,,,,,,,,,,,,,,,,,,,,,,,,,,,,,,,,,,,,,,,,,,,,,,,,,,,,,,,,,,,,,,,,
,,5caddec9facb4c0016ed3652,2024-02-22_06h01.29.167,kallum_motion_pilot,2023.2.2,Win32,59.88023952,5caddec9facb4c0016ed3652,65d6bb0e977760de756971f7,65d6d4d8cb0a17198e65bbac,0.0866,0.0867,0,147,147,48,1,onetwo,,,,,,,,,,,,,,,,,,,,,,,,,,,,,,,,,,,,,,,,,,,,,,,,,,,,,,,,,,,,,,,,,,,,,,,,,,,,,,,,,,,,,,,,,,,,,,,,,,,,,,,,,,,,,,,,,,,,,,,,,,,,,,,,,,,,,,,,,
,,5caddec9facb4c0016ed3652,2024-02-22_06h01.29.167,kallum_motion_pilot,2023.2.2,Win32,59.88023952,5caddec9facb4c0016ed3652,65d6bb0e977760de756971f7,65d6d4d8cb0a17198e65bbac,0.0869,0.087,0,148,148,106,1,sixfive,,,,,,,,,,,,,,,,,,,,,,,,,,,,,,,,,,,,,,,,,,,,,,,,,,,,,,,,,,,,,,,,,,,,,,,,,,,,,,,,,,,,,,,,,,,,,,,,,,,,,,,,,,,,,,,,,,,,,,,,,,,,,,,,,,,,,,,,,
,,5caddec9facb4c0016ed3652,2024-02-22_06h01.29.167,kallum_motion_pilot,2023.2.2,Win32,59.88023952,5caddec9facb4c0016ed3652,65d6bb0e977760de756971f7,65d6d4d8cb0a17198e65bbac,0.0872,0.0874,0,149,149,127,1,eightseven,,,,,,,,,,,,,,,,,,,,,,,,,,,,,,,,,,,,,,,,,,,,,,,,,,,,,,,,,,,,,,,,,,,,,,,,,,,,,,,,,,,,,,,,,,,,,,,,,,,,,,,,,,,,,,,,,,,,,,,,,,,,,,,,,,,,,,,,,
,,5caddec9facb4c0016ed3652,2024-02-22_06h01.29.167,kallum_motion_pilot,2023.2.2,Win32,59.88023952,5caddec9facb4c0016ed3652,65d6bb0e977760de756971f7,65d6d4d8cb0a17198e65bbac,0.0875,0.0876,0,150,150,125,1,seveneight,,,,,,,,,,,,,,,,,,,,,,,,,,,,,,,,,,,,,,,,,,,,,,,,,,,,,,,,,,,,,,,,,,,,,,,,,,,,,,,,,,,,,,,,,,,,,,,,,,,,,,,,,,,,,,,,,,,,,,,,,,,,,,,,,,,,,,,,,
,,5caddec9facb4c0016ed3652,2024-02-22_06h01.29.167,kallum_motion_pilot,2023.2.2,Win32,59.88023952,5caddec9facb4c0016ed3652,65d6bb0e977760de756971f7,65d6d4d8cb0a17198e65bbac,0.0878,0.0878,0,151,151,33,1,onethree,,,,,,,,,,,,,,,,,,,,,,,,,,,,,,,,,,,,,,,,,,,,,,,,,,,,,,,,,,,,,,,,,,,,,,,,,,,,,,,,,,,,,,,,,,,,,,,,,,,,,,,,,,,,,,,,,,,,,,,,,,,,,,,,,,,,,,,,,
,,5caddec9facb4c0016ed3652,2024-02-22_06h01.29.167,kallum_motion_pilot,2023.2.2,Win32,59.88023952,5caddec9facb4c0016ed3652,65d6bb0e977760de756971f7,65d6d4d8cb0a17198e65bbac,0.088,0.088,0,152,152,41,1,onethree,,,,,,,,,,,,,,,,,,,,,,,,,,,,,,,,,,,,,,,,,,,,,,,,,,,,,,,,,,,,,,,,,,,,,,,,,,,,,,,,,,,,,,,,,,,,,,,,,,,,,,,,,,,,,,,,,,,,,,,,,,,,,,,,,,,,,,,,,
,,5caddec9facb4c0016ed3652,2024-02-22_06h01.29.167,kallum_motion_pilot,2023.2.2,Win32,59.88023952,5caddec9facb4c0016ed3652,65d6bb0e977760de756971f7,65d6d4d8cb0a17198e65bbac,0.0882,0.0883,0,153,153,37,1,threefour,,,,,,,,,,,,,,,,,,,,,,,,,,,,,,,,,,,,,,,,,,,,,,,,,,,,,,,,,,,,,,,,,,,,,,,,,,,,,,,,,,,,,,,,,,,,,,,,,,,,,,,,,,,,,,,,,,,,,,,,,,,,,,,,,,,,,,,,,
,,5caddec9facb4c0016ed3652,2024-02-22_06h01.29.167,kallum_motion_pilot,2023.2.2,Win32,59.88023952,5caddec9facb4c0016ed3652,65d6bb0e977760de756971f7,65d6d4d8cb0a17198e65bbac,0.0884,0.0886,0,154,154,144,1,fivesix,,,,,,,,,,,,,,,,,,,,,,,,,,,,,,,,,,,,,,,,,,,,,,,,,,,,,,,,,,,,,,,,,,,,,,,,,,,,,,,,,,,,,,,,,,,,,,,,,,,,,,,,,,,,,,,,,,,,,,,,,,,,,,,,,,,,,,,,,
,,5caddec9facb4c0016ed3652,2024-02-22_06h01.29.167,kallum_motion_pilot,2023.2.2,Win32,59.88023952,5caddec9facb4c0016ed3652,65d6bb0e977760de756971f7,65d6d4d8cb0a17198e65bbac,0.0886,0.0888,0,155,155,22,1,fourtwo,,,,,,,,,,,,,,,,,,,,,,,,,,,,,,,,,,,,,,,,,,,,,,,,,,,,,,,,,,,,,,,,,,,,,,,,,,,,,,,,,,,,,,,,,,,,,,,,,,,,,,,,,,,,,,,,,,,,,,,,,,,,,,,,,,,,,,,,,
,,5caddec9facb4c0016ed3652,2024-02-22_06h01.29.167,kallum_motion_pilot,2023.2.2,Win32,59.88023952,5caddec9facb4c0016ed3652,65d6bb0e977760de756971f7,65d6d4d8cb0a17198e65bbac,0.0888,0.089,0,156,156,60,1,threeone,,,,,,,,,,,,,,,,,,,,,,,,,,,,,,,,,,,,,,,,,,,,,,,,,,,,,,,,,,,,,,,,,,,,,,,,,,,,,,,,,,,,,,,,,,,,,,,,,,,,,,,,,,,,,,,,,,,,,,,,,,,,,,,,,,,,,,,,,
,,5caddec9facb4c0016ed3652,2024-02-22_06h01.29.167,kallum_motion_pilot,2023.2.2,Win32,59.88023952,5caddec9facb4c0016ed3652,65d6bb0e977760de756971f7,65d6d4d8cb0a17198e65bbac,0.0891,0.0892,0,157,157,29,1,threefour,,,,,,,,,,,,,,,,,,,,,,,,,,,,,,,,,,,,,,,,,,,,,,,,,,,,,,,,,,,,,,,,,,,,,,,,,,,,,,,,,,,,,,,,,,,,,,,,,,,,,,,,,,,,,,,,,,,,,,,,,,,,,,,,,,,,,,,,,
,,5caddec9facb4c0016ed3652,2024-02-22_06h01.29.167,kallum_motion_pilot,2023.2.2,Win32,59.88023952,5caddec9facb4c0016ed3652,65d6bb0e977760de756971f7,65d6d4d8cb0a17198e65bbac,0.0894,0.0895,0,158,158,91,1,sixeight,,,,,,,,,,,,,,,,,,,,,,,,,,,,,,,,,,,,,,,,,,,,,,,,,,,,,,,,,,,,,,,,,,,,,,,,,,,,,,,,,,,,,,,,,,,,,,,,,,,,,,,,,,,,,,,,,,,,,,,,,,,,,,,,,,,,,,,,,
,,5caddec9facb4c0016ed3652,2024-02-22_06h01.29.167,kallum_motion_pilot,2023.2.2,Win32,59.88023952,5caddec9facb4c0016ed3652,65d6bb0e977760de756971f7,65d6d4d8cb0a17198e65bbac,0.0897,0.0898,0,159,159,157,1,seveneight,,,,,,,,,,,,,,,,,,,,,,,,,,,,,,,,,,,,,,,,,,,,,,,,,,,,,,,,,,,,,,,,,,,,,,,,,,,,,,,,,,,,,,,,,,,,,,,,,,,,,,,,,,,,,,,,,,,,,,,,,,,,,,,,,,,,,,,,,
,,5caddec9facb4c0016ed3652,2024-02-22_06h01.29.167,kallum_motion_pilot,2023.2.2,Win32,59.88023952,5caddec9facb4c0016ed3652,65d6bb0e977760de756971f7,65d6d4d8cb0a17198e65bbac,0.0899,0.0901,0,160,160,152,1,fivesix,,,,,,,,,,,,,,,,,,,,,,,,,,,,,,,,,,,,,,,,,,,,,,,,,,,,,,,,,,,,,,,,,,,,,,,,,,,,,,,,,,,,,,,,,,,,,,,,,,,,,,,,,,,,,,,,,,,,,,,,,,,,,,,,,,,,,,,,,
,,5caddec9facb4c0016ed3652,2024-02-22_06h01.29.167,kallum_motion_pilot,2023.2.2,Win32,59.88023952,5caddec9facb4c0016ed3652,65d6bb0e977760de756971f7,65d6d4d8cb0a17198e65bbac,0.0903,0.0904,0,161,161,16,1,onetwo,,,,,,,,,,,,,,,,,,,,,,,,,,,,,,,,,,,,,,,,,,,,,,,,,,,,,,,,,,,,,,,,,,,,,,,,,,,,,,,,,,,,,,,,,,,,,,,,,,,,,,,,,,,,,,,,,,,,,,,,,,,,,,,,,,,,,,,,,
,,5caddec9facb4c0016ed3652,2024-02-22_06h01.29.167,kallum_motion_pilot,2023.2.2,Win32,59.88023952,5caddec9facb4c0016ed3652,65d6bb0e977760de756971f7,65d6d4d8cb0a17198e65bbac,0.0907,0.0908,1,0,162,92,1,sevenfive,,,,,,,,,,,,,,,,,,,,,,,,,,,,,,,,,,,,,,,,,,,,,,,,,,,,,,,,,,,,,,,,,,,,,,,,,,,,,,,,,,,,,,,,,,,,,,,,,,,,,,,,,,,,,,,,,,,,,,,,,,,,,,,,,,,,,,,,,
,,5caddec9facb4c0016ed3652,2024-02-22_06h01.29.167,kallum_motion_pilot,2023.2.2,Win32,59.88023952,5caddec9facb4c0016ed3652,65d6bb0e977760de756971f7,65d6d4d8cb0a17198e65bbac,0.091,0.0911,1,1,163,79,1,eightseven,,,,,,,,,,,,,,,,,,,,,,,,,,,,,,,,,,,,,,,,,,,,,,,,,,,,,,,,,,,,,,,,,,,,,,,,,,,,,,,,,,,,,,,,,,,,,,,,,,,,,,,,,,,,,,,,,,,,,,,,,,,,,,,,,,,,,,,,,
,,5caddec9facb4c0016ed3652,2024-02-22_06h01.29.167,kallum_motion_pilot,2023.2.2,Win32,59.88023952,5caddec9facb4c0016ed3652,65d6bb0e977760de756971f7,65d6d4d8cb0a17198e65bbac,0.0912,0.0914,1,2,164,115,1,sixeight,,,,,,,,,,,,,,,,,,,,,,,,,,,,,,,,,,,,,,,,,,,,,,,,,,,,,,,,,,,,,,,,,,,,,,,,,,,,,,,,,,,,,,,,,,,,,,,,,,,,,,,,,,,,,,,,,,,,,,,,,,,,,,,,,,,,,,,,,
,,5caddec9facb4c0016ed3652,2024-02-22_06h01.29.167,kallum_motion_pilot,2023.2.2,Win32,59.88023952,5caddec9facb4c0016ed3652,65d6bb0e977760de756971f7,65d6d4d8cb0a17198e65bbac,0.0915,0.0917,1,3,165,149,1,seveneight,,,,,,,,,,,,,,,,,,,,,,,,,,,,,,,,,,,,,,,,,,,,,,,,,,,,,,,,,,,,,,,,,,,,,,,,,,,,,,,,,,,,,,,,,,,,,,,,,,,,,,,,,,,,,,,,,,,,,,,,,,,,,,,,,,,,,,,,,
,,5caddec9facb4c0016ed3652,2024-02-22_06h01.29.167,kallum_motion_pilot,2023.2.2,Win32,59.88023952,5caddec9facb4c0016ed3652,65d6bb0e977760de756971f7,65d6d4d8cb0a17198e65bbac,0.0919,0.092,1,4,166,57,1,onethree,,,,,,,,,,,,,,,,,,,,,,,,,,,,,,,,,,,,,,,,,,,,,,,,,,,,,,,,,,,,,,,,,,,,,,,,,,,,,,,,,,,,,,,,,,,,,,,,,,,,,,,,,,,,,,,,,,,,,,,,,,,,,,,,,,,,,,,,,
,,5caddec9facb4c0016ed3652,2024-02-22_06h01.29.167,kallum_motion_pilot,2023.2.2,Win32,59.88023952,5caddec9facb4c0016ed3652,65d6bb0e977760de756971f7,65d6d4d8cb0a17198e65bbac,0.0922,0.0924,1,5,167,107,1,sixeight,,,,,,,,,,,,,,,,,,,,,,,,,,,,,,,,,,,,,,,,,,,,,,,,,,,,,,,,,,,,,,,,,,,,,,,,,,,,,,,,,,,,,,,,,,,,,,,,,,,,,,,,,,,,,,,,,,,,,,,,,,,,,,,,,,,,,,,,,
,,5caddec9facb4c0016ed3652,2024-02-22_06h01.29.167,kallum_motion_pilot,2023.2.2,Win32,59.88023952,5caddec9facb4c0016ed3652,65d6bb0e977760de756971f7,65d6d4d8cb0a17198e65bbac,0.0926,0.093,1,6,168,103,1,eightseven,,,,,,,,,,,,,,,,,,,,,,,,,,,,,,,,,,,,,,,,,,,,,,,,,,,,,,,,,,,,,,,,,,,,,,,,,,,,,,,,,,,,,,,,,,,,,,,,,,,,,,,,,,,,,,,,,,,,,,,,,,,,,,,,,,,,,,,,,
,,5caddec9facb4c0016ed3652,2024-02-22_06h01.29.167,kallum_motion_pilot,2023.2.2,Win32,59.88023952,5caddec9facb4c0016ed3652,65d6bb0e977760de756971f7,65d6d4d8cb0a17198e65bbac,0.0935,0.0939,1,7,169,139,1,sixeight,,,,,,,,,,,,,,,,,,,,,,,,,,,,,,,,,,,,,,,,,,,,,,,,,,,,,,,,,,,,,,,,,,,,,,,,,,,,,,,,,,,,,,,,,,,,,,,,,,,,,,,,,,,,,,,,,,,,,,,,,,,,,,,,,,,,,,,,,
,,5caddec9facb4c0016ed3652,2024-02-22_06h01.29.167,kallum_motion_pilot,2023.2.2,Win32,59.88023952,5caddec9facb4c0016ed3652,65d6bb0e977760de756971f7,65d6d4d8cb0a17198e65bbac,0.0941,0.0942,1,8,170,31,1,fourthree,,,,,,,,,,,,,,,,,,,,,,,,,,,,,,,,,,,,,,,,,,,,,,,,,,,,,,,,,,,,,,,,,,,,,,,,,,,,,,,,,,,,,,,,,,,,,,,,,,,,,,,,,,,,,,,,,,,,,,,,,,,,,,,,,,,,,,,,,
,,5caddec9facb4c0016ed3652,2024-02-22_06h01.29.167,kallum_motion_pilot,2023.2.2,Win32,59.88023952,5caddec9facb4c0016ed3652,65d6bb0e977760de756971f7,65d6d4d8cb0a17198e65bbac,0.0946,0.0947,1,9,171,77,1,threefour,,,,,,,,,,,,,,,,,,,,,,,,,,,,,,,,,,,,,,,,,,,,,,,,,,,,,,,,,,,,,,,,,,,,,,,,,,,,,,,,,,,,,,,,,,,,,,,,,,,,,,,,,,,,,,,,,,,,,,,,,,,,,,,,,,,,,,,,,
,,5caddec9facb4c0016ed3652,2024-02-22_06h01.29.167,kallum_motion_pilot,2023.2.2,Win32,59.88023952,5caddec9facb4c0016ed3652,65d6bb0e977760de756971f7,65d6d4d8cb0a17198e65bbac,0.0949,0.0951,1,10,172,10,1,twoone,,,,,,,,,,,,,,,,,,,,,,,,,,,,,,,,,,,,,,,,,,,,,,,,,,,,,,,,,,,,,,,,,,,,,,,,,,,,,,,,,,,,,,,,,,,,,,,,,,,,,,,,,,,,,,,,,,,,,,,,,,,,,,,,,,,,,,,,,
,,5caddec9facb4c0016ed3652,2024-02-22_06h01.29.167,kallum_motion_pilot,2023.2.2,Win32,59.88023952,5caddec9facb4c0016ed3652,65d6bb0e977760de756971f7,65d6d4d8cb0a17198e65bbac,0.0952,0.0954,1,11,173,30,1,fourtwo,,,,,,,,,,,,,,,,,,,,,,,,,,,,,,,,,,,,,,,,,,,,,,,,,,,,,,,,,,,,,,,,,,,,,,,,,,,,,,,,,,,,,,,,,,,,,,,,,,,,,,,,,,,,,,,,,,,,,,,,,,,,,,,,,,,,,,,,,
,,5caddec9facb4c0016ed3652,2024-02-22_06h01.29.167,kallum_motion_pilot,2023.2.2,Win32,59.88023952,5caddec9facb4c0016ed3652,65d6bb0e977760de756971f7,65d6d4d8cb0a17198e65bbac,0.0956,0.0957,1,12,174,40,1,onetwo,,,,,,,,,,,,,,,,,,,,,,,,,,,,,,,,,,,,,,,,,,,,,,,,,,,,,,,,,,,,,,,,,,,,,,,,,,,,,,,,,,,,,,,,,,,,,,,,,,,,,,,,,,,,,,,,,,,,,,,,,,,,,,,,,,,,,,,,,
,,5caddec9facb4c0016ed3652,2024-02-22_06h01.29.167,kallum_motion_pilot,2023.2.2,Win32,59.88023952,5caddec9facb4c0016ed3652,65d6bb0e977760de756971f7,65d6d4d8cb0a17198e65bbac,0.0959,0.0961,1,13,175,161,1,fiveseven,,,,,,,,,,,,,,,,,,,,,,,,,,,,,,,,,,,,,,,,,,,,,,,,,,,,,,,,,,,,,,,,,,,,,,,,,,,,,,,,,,,,,,,,,,,,,,,,,,,,,,,,,,,,,,,,,,,,,,,,,,,,,,,,,,,,,,,,,
,,5caddec9facb4c0016ed3652,2024-02-22_06h01.29.167,kallum_motion_pilot,2023.2.2,Win32,59.88023952,5caddec9facb4c0016ed3652,65d6bb0e977760de756971f7,65d6d4d8cb0a17198e65bbac,0.0962,0.0964,1,14,176,155,1,sixeight,,,,,,,,,,,,,,,,,,,,,,,,,,,,,,,,,,,,,,,,,,,,,,,,,,,,,,,,,,,,,,,,,,,,,,,,,,,,,,,,,,,,,,,,,,,,,,,,,,,,,,,,,,,,,,,,,,,,,,,,,,,,,,,,,,,,,,,,,
,,5caddec9facb4c0016ed3652,2024-02-22_06h01.29.167,kallum_motion_pilot,2023.2.2,Win32,59.88023952,5caddec9facb4c0016ed3652,65d6bb0e977760de756971f7,65d6d4d8cb0a17198e65bbac,0.0966,0.0967,1,15,177,112,1,fivesix,,,,,,,,,,,,,,,,,,,,,,,,,,,,,,,,,,,,,,,,,,,,,,,,,,,,,,,,,,,,,,,,,,,,,,,,,,,,,,,,,,,,,,,,,,,,,,,,,,,,,,,,,,,,,,,,,,,,,,,,,,,,,,,,,,,,,,,,,
,,5caddec9facb4c0016ed3652,2024-02-22_06h01.29.167,kallum_motion_pilot,2023.2.2,Win32,59.88023952,5caddec9facb4c0016ed3652,65d6bb0e977760de756971f7,65d6d4d8cb0a17198e65bbac,0.0969,0.0971,1,16,178,99,1,sixeight,,,,,,,,,,,,,,,,,,,,,,,,,,,,,,,,,,,,,,,,,,,,,,,,,,,,,,,,,,,,,,,,,,,,,,,,,,,,,,,,,,,,,,,,,,,,,,,,,,,,,,,,,,,,,,,,,,,,,,,,,,,,,,,,,,,,,,,,,
,,5caddec9facb4c0016ed3652,2024-02-22_06h01.29.167,kallum_motion_pilot,2023.2.2,Win32,59.88023952,5caddec9facb4c0016ed3652,65d6bb0e977760de756971f7,65d6d4d8cb0a17198e65bbac,0.0972,0.0973,1,17,179,102,1,eightsix,,,,,,,,,,,,,,,,,,,,,,,,,,,,,,,,,,,,,,,,,,,,,,,,,,,,,,,,,,,,,,,,,,,,,,,,,,,,,,,,,,,,,,,,,,,,,,,,,,,,,,,,,,,,,,,,,,,,,,,,,,,,,,,,,,,,,,,,,
,,5caddec9facb4c0016ed3652,2024-02-22_06h01.29.167,kallum_motion_pilot,2023.2.2,Win32,59.88023952,5caddec9facb4c0016ed3652,65d6bb0e977760de756971f7,65d6d4d8cb0a17198e65bbac,0.0975,0.0976,1,18,180,21,1,threefour,,,,,,,,,,,,,,,,,,,,,,,,,,,,,,,,,,,,,,,,,,,,,,,,,,,,,,,,,,,,,,,,,,,,,,,,,,,,,,,,,,,,,,,,,,,,,,,,,,,,,,,,,,,,,,,,,,,,,,,,,,,,,,,,,,,,,,,,,
,,5caddec9facb4c0016ed3652,2024-02-22_06h01.29.167,kallum_motion_pilot,2023.2.2,Win32,59.88023952,5caddec9facb4c0016ed3652,65d6bb0e977760de756971f7,65d6d4d8cb0a17198e65bbac,0.0978,0.0979,1,19,181,68,1,threeone,,,,,,,,,,,,,,,,,,,,,,,,,,,,,,,,,,,,,,,,,,,,,,,,,,,,,,,,,,,,,,,,,,,,,,,,,,,,,,,,,,,,,,,,,,,,,,,,,,,,,,,,,,,,,,,,,,,,,,,,,,,,,,,,,,,,,,,,,
,,5caddec9facb4c0016ed3652,2024-02-22_06h01.29.167,kallum_motion_pilot,2023.2.2,Win32,59.88023952,5caddec9facb4c0016ed3652,65d6bb0e977760de756971f7,65d6d4d8cb0a17198e65bbac,0.0981,0.0982,1,20,182,52,1,threeone,,,,,,,,,,,,,,,,,,,,,,,,,,,,,,,,,,,,,,,,,,,,,,,,,,,,,,,,,,,,,,,,,,,,,,,,,,,,,,,,,,,,,,,,,,,,,,,,,,,,,,,,,,,,,,,,,,,,,,,,,,,,,,,,,,,,,,,,,
,,5caddec9facb4c0016ed3652,2024-02-22_06h01.29.167,kallum_motion_pilot,2023.2.2,Win32,59.88023952,5caddec9facb4c0016ed3652,65d6bb0e977760de756971f7,65d6d4d8cb0a17198e65bbac,0.0984,0.0985,1,21,183,46,1,fourtwo,,,,,,,,,,,,,,,,,,,,,,,,,,,,,,,,,,,,,,,,,,,,,,,,,,,,,,,,,,,,,,,,,,,,,,,,,,,,,,,,,,,,,,,,,,,,,,,,,,,,,,,,,,,,,,,,,,,,,,,,,,,,,,,,,,,,,,,,,
,,5caddec9facb4c0016ed3652,2024-02-22_06h01.29.167,kallum_motion_pilot,2023.2.2,Win32,59.88023952,5caddec9facb4c0016ed3652,65d6bb0e977760de756971f7,65d6d4d8cb0a17198e65bbac,0.0987,0.0989,1,22,184,118,1,eightsix,,,,,,,,,,,,,,,,,,,,,,,,,,,,,,,,,,,,,,,,,,,,,,,,,,,,,,,,,,,,,,,,,,,,,,,,,,,,,,,,,,,,,,,,,,,,,,,,,,,,,,,,,,,,,,,,,,,,,,,,,,,,,,,,,,,,,,,,,
,,5caddec9facb4c0016ed3652,2024-02-22_06h01.29.167,kallum_motion_pilot,2023.2.2,Win32,59.88023952,5caddec9facb4c0016ed3652,65d6bb0e977760de756971f7,65d6d4d8cb0a17198e65bbac,0.099,0.0992,1,23,185,93,1,seveneight,,,,,,,,,,,,,,,,,,,,,,,,,,,,,,,,,,,,,,,,,,,,,,,,,,,,,,,,,,,,,,,,,,,,,,,,,,,,,,,,,,,,,,,,,,,,,,,,,,,,,,,,,,,,,,,,,,,,,,,,,,,,,,,,,,,,,,,,,
,,5caddec9facb4c0016ed3652,2024-02-22_06h01.29.167,kallum_motion_pilot,2023.2.2,Win32,59.88023952,5caddec9facb4c0016ed3652,65d6bb0e977760de756971f7,65d6d4d8cb0a17198e65bbac,0.0994,0.0995,1,24,186,142,1,eightsix,,,,,,,,,,,,,,,,,,,,,,,,,,,,,,,,,,,,,,,,,,,,,,,,,,,,,,,,,,,,,,,,,,,,,,,,,,,,,,,,,,,,,,,,,,,,,,,,,,,,,,,,,,,,,,,,,,,,,,,,,,,,,,,,,,,,,,,,,
,,5caddec9facb4c0016ed3652,2024-02-22_06h01.29.167,kallum_motion_pilot,2023.2.2,Win32,59.88023952,5caddec9facb4c0016ed3652,65d6bb0e977760de756971f7,65d6d4d8cb0a17198e65bbac,0.0997,0.0998,1,25,187,109,1,seveneight,,,,,,,,,,,,,,,,,,,,,,,,,,,,,,,,,,,,,,,,,,,,,,,,,,,,,,,,,,,,,,,,,,,,,,,,,,,,,,,,,,,,,,,,,,,,,,,,,,,,,,,,,,,,,,,,,,,,,,,,,,,,,,,,,,,,,,,,,
,,5caddec9facb4c0016ed3652,2024-02-22_06h01.29.167,kallum_motion_pilot,2023.2.2,Win32,59.88023952,5caddec9facb4c0016ed3652,65d6bb0e977760de756971f7,65d6d4d8cb0a17198e65bbac,0.1,0.1001,1,26,188,41,1,onethree,,,,,,,,,,,,,,,,,,,,,,,,,,,,,,,,,,,,,,,,,,,,,,,,,,,,,,,,,,,,,,,,,,,,,,,,,,,,,,,,,,,,,,,,,,,,,,,,,,,,,,,,,,,,,,,,,,,,,,,,,,,,,,,,,,,,,,,,,
,,5caddec9facb4c0016ed3652,2024-02-22_06h01.29.167,kallum_motion_pilot,2023.2.2,Win32,59.88023952,5caddec9facb4c0016ed3652,65d6bb0e977760de756971f7,65d6d4d8cb0a17198e65bbac,0.1003,0.1005,1,27,189,54,1,fourtwo,,,,,,,,,,,,,,,,,,,,,,,,,,,,,,,,,,,,,,,,,,,,,,,,,,,,,,,,,,,,,,,,,,,,,,,,,,,,,,,,,,,,,,,,,,,,,,,,,,,,,,,,,,,,,,,,,,,,,,,,,,,,,,,,,,,,,,,,,
,,5caddec9facb4c0016ed3652,2024-02-22_06h01.29.167,kallum_motion_pilot,2023.2.2,Win32,59.88023952,5caddec9facb4c0016ed3652,65d6bb0e977760de756971f7,65d6d4d8cb0a17198e65bbac,0.1007,0.1008,1,28,190,94,1,eightsix,,,,,,,,,,,,,,,,,,,,,,,,,,,,,,,,,,,,,,,,,,,,,,,,,,,,,,,,,,,,,,,,,,,,,,,,,,,,,,,,,,,,,,,,,,,,,,,,,,,,,,,,,,,,,,,,,,,,,,,,,,,,,,,,,,,,,,,,,
,,5caddec9facb4c0016ed3652,2024-02-22_06h01.29.167,kallum_motion_pilot,2023.2.2,Win32,59.88023952,5caddec9facb4c0016ed3652,65d6bb0e977760de756971f7,65d6d4d8cb0a17198e65bbac,0.101,0.1012,1,29,191,148,1,sevenfive,,,,,,,,,,,,,,,,,,,,,,,,,,,,,,,,,,,,,,,,,,,,,,,,,,,,,,,,,,,,,,,,,,,,,,,,,,,,,,,,,,,,,,,,,,,,,,,,,,,,,,,,,,,,,,,,,,,,,,,,,,,,,,,,,,,,,,,,,
,,5caddec9facb4c0016ed3652,2024-02-22_06h01.29.167,kallum_motion_pilot,2023.2.2,Win32,59.88023952,5caddec9facb4c0016ed3652,65d6bb0e977760de756971f7,65d6d4d8cb0a17198e65bbac,0.1014,0.1015,1,30,192,13,1,threefour,,,,,,,,,,,,,,,,,,,,,,,,,,,,,,,,,,,,,,,,,,,,,,,,,,,,,,,,,,,,,,,,,,,,,,,,,,,,,,,,,,,,,,,,,,,,,,,,,,,,,,,,,,,,,,,,,,,,,,,,,,,,,,,,,,,,,,,,,
,,5caddec9facb4c0016ed3652,2024-02-22_06h01.29.167,kallum_motion_pilot,2023.2.2,Win32,59.88023952,5caddec9facb4c0016ed3652,65d6bb0e977760de756971f7,65d6d4d8cb0a17198e65bbac,0.1017,0.1019,1,31,193,85,1,seveneight,,,,,,,,,,,,,,,,,,,,,,,,,,,,,,,,,,,,,,,,,,,,,,,,,,,,,,,,,,,,,,,,,,,,,,,,,,,,,,,,,,,,,,,,,,,,,,,,,,,,,,,,,,,,,,,,,,,,,,,,,,,,,,,,,,,,,,,,,
,,5caddec9facb4c0016ed3652,2024-02-22_06h01.29.167,kallum_motion_pilot,2023.2.2,Win32,59.88023952,5caddec9facb4c0016ed3652,65d6bb0e977760de756971f7,65d6d4d8cb0a17198e65bbac,0.1021,0.1023,1,32,194,27,1,twofour,,,,,,,,,,,,,,,,,,,,,,,,,,,,,,,,,,,,,,,,,,,,,,,,,,,,,,,,,,,,,,,,,,,,,,,,,,,,,,,,,,,,,,,,,,,,,,,,,,,,,,,,,,,,,,,,,,,,,,,,,,,,,,,,,,,,,,,,,
,,5caddec9facb4c0016ed3652,2024-02-22_06h01.29.167,kallum_motion_pilot,2023.2.2,Win32,59.88023952,5caddec9facb4c0016ed3652,65d6bb0e977760de756971f7,65d6d4d8cb0a17198e65bbac,0.1024,0.1026,1,33,195,73,1,onethree,,,,,,,,,,,,,,,,,,,,,,,,,,,,,,,,,,,,,,,,,,,,,,,,,,,,,,,,,,,,,,,,,,,,,,,,,,,,,,,,,,,,,,,,,,,,,,,,,,,,,,,,,,,,,,,,,,,,,,,,,,,,,,,,,,,,,,,,,
,,5caddec9facb4c0016ed3652,2024-02-22_06h01.29.167,kallum_motion_pilot,2023.2.2,Win32,59.88023952,5caddec9facb4c0016ed3652,65d6bb0e977760de756971f7,65d6d4d8cb0a17198e65bbac,0.1028,0.1029,1,34,196,59,1,twofour,,,,,,,,,,,,,,,,,,,,,,,,,,,,,,,,,,,,,,,,,,,,,,,,,,,,,,,,,,,,,,,,,,,,,,,,,,,,,,,,,,,,,,,,,,,,,,,,,,,,,,,,,,,,,,,,,,,,,,,,,,,,,,,,,,,,,,,,,
,,5caddec9facb4c0016ed3652,2024-02-22_06h01.29.167,kallum_motion_pilot,2023.2.2,Win32,59.88023952,5caddec9facb4c0016ed3652,65d6bb0e977760de756971f7,65d6d4d8cb0a17198e65bbac,0.1032,0.1033,1,35,197,121,1,fiveseven,,,,,,,,,,,,,,,,,,,,,,,,,,,,,,,,,,,,,,,,,,,,,,,,,,,,,,,,,,,,,,,,,,,,,,,,,,,,,,,,,,,,,,,,,,,,,,,,,,,,,,,,,,,,,,,,,,,,,,,,,,,,,,,,,,,,,,,,,
,,5caddec9facb4c0016ed3652,2024-02-22_06h01.29.167,kallum_motion_pilot,2023.2.2,Win32,59.88023952,5caddec9facb4c0016ed3652,65d6bb0e977760de756971f7,65d6d4d8cb0a17198e65bbac,0.1035,0.1036,1,36,198,116,1,sevenfive,,,,,,,,,,,,,,,,,,,,,,,,,,,,,,,,,,,,,,,,,,,,,,,,,,,,,,,,,,,,,,,,,,,,,,,,,,,,,,,,,,,,,,,,,,,,,,,,,,,,,,,,,,,,,,,,,,,,,,,,,,,,,,,,,,,,,,,,,
,,5caddec9facb4c0016ed3652,2024-02-22_06h01.29.167,kallum_motion_pilot,2023.2.2,Win32,59.88023952,5caddec9facb4c0016ed3652,65d6bb0e977760de756971f7,65d6d4d8cb0a17198e65bbac,0.1037,0.1038,1,37,199,151,1,eightseven,,,,,,,,,,,,,,,,,,,,,,,,,,,,,,,,,,,,,,,,,,,,,,,,,,,,,,,,,,,,,,,,,,,,,,,,,,,,,,,,,,,,,,,,,,,,,,,,,,,,,,,,,,,,,,,,,,,,,,,,,,,,,,,,,,,,,,,,,
,,5caddec9facb4c0016ed3652,2024-02-22_06h01.29.167,kallum_motion_pilot,2023.2.2,Win32,59.88023952,5caddec9facb4c0016ed3652,65d6bb0e977760de756971f7,65d6d4d8cb0a17198e65bbac,0.1044,0.1044,1,38,200,101,1,seveneight,,,,,,,,,,,,,,,,,,,,,,,,,,,,,,,,,,,,,,,,,,,,,,,,,,,,,,,,,,,,,,,,,,,,,,,,,,,,,,,,,,,,,,,,,,,,,,,,,,,,,,,,,,,,,,,,,,,,,,,,,,,,,,,,,,,,,,,,,
,,5caddec9facb4c0016ed3652,2024-02-22_06h01.29.167,kallum_motion_pilot,2023.2.2,Win32,59.88023952,5caddec9facb4c0016ed3652,65d6bb0e977760de756971f7,65d6d4d8cb0a17198e65bbac,0.1046,0.1047,1,39,201,6,1,fourtwo,,,,,,,,,,,,,,,,,,,,,,,,,,,,,,,,,,,,,,,,,,,,,,,,,,,,,,,,,,,,,,,,,,,,,,,,,,,,,,,,,,,,,,,,,,,,,,,,,,,,,,,,,,,,,,,,,,,,,,,,,,,,,,,,,,,,,,,,,
,,5caddec9facb4c0016ed3652,2024-02-22_06h01.29.167,kallum_motion_pilot,2023.2.2,Win32,59.88023952,5caddec9facb4c0016ed3652,65d6bb0e977760de756971f7,65d6d4d8cb0a17198e65bbac,0.1049,0.1051,1,40,202,80,1,fivesix,,,,,,,,,,,,,,,,,,,,,,,,,,,,,,,,,,,,,,,,,,,,,,,,,,,,,,,,,,,,,,,,,,,,,,,,,,,,,,,,,,,,,,,,,,,,,,,,,,,,,,,,,,,,,,,,,,,,,,,,,,,,,,,,,,,,,,,,,
,,5caddec9facb4c0016ed3652,2024-02-22_06h01.29.167,kallum_motion_pilot,2023.2.2,Win32,59.88023952,5caddec9facb4c0016ed3652,65d6bb0e977760de756971f7,65d6d4d8cb0a17198e65bbac,0.1053,0.1054,1,41,203,76,1,threeone,,,,,,,,,,,,,,,,,,,,,,,,,,,,,,,,,,,,,,,,,,,,,,,,,,,,,,,,,,,,,,,,,,,,,,,,,,,,,,,,,,,,,,,,,,,,,,,,,,,,,,,,,,,,,,,,,,,,,,,,,,,,,,,,,,,,,,,,,
,,5caddec9facb4c0016ed3652,2024-02-22_06h01.29.167,kallum_motion_pilot,2023.2.2,Win32,59.88023952,5caddec9facb4c0016ed3652,65d6bb0e977760de756971f7,65d6d4d8cb0a17198e65bbac,0.1057,0.1058,1,42,204,38,1,fourtwo,,,,,,,,,,,,,,,,,,,,,,,,,,,,,,,,,,,,,,,,,,,,,,,,,,,,,,,,,,,,,,,,,,,,,,,,,,,,,,,,,,,,,,,,,,,,,,,,,,,,,,,,,,,,,,,,,,,,,,,,,,,,,,,,,,,,,,,,,
,,5caddec9facb4c0016ed3652,2024-02-22_06h01.29.167,kallum_motion_pilot,2023.2.2,Win32,59.88023952,5caddec9facb4c0016ed3652,65d6bb0e977760de756971f7,65d6d4d8cb0a17198e65bbac,0.106,0.1061,1,43,205,24,1,onetwo,,,,,,,,,,,,,,,,,,,,,,,,,,,,,,,,,,,,,,,,,,,,,,,,,,,,,,,,,,,,,,,,,,,,,,,,,,,,,,,,,,,,,,,,,,,,,,,,,,,,,,,,,,,,,,,,,,,,,,,,,,,,,,,,,,,,,,,,,
,,5caddec9facb4c0016ed3652,2024-02-22_06h01.29.167,kallum_motion_pilot,2023.2.2,Win32,59.88023952,5caddec9facb4c0016ed3652,65d6bb0e977760de756971f7,65d6d4d8cb0a17198e65bbac,0.1063,0.1065,1,44,206,22,1,fourtwo,,,,,,,,,,,,,,,,,,,,,,,,,,,,,,,,,,,,,,,,,,,,,,,,,,,,,,,,,,,,,,,,,,,,,,,,,,,,,,,,,,,,,,,,,,,,,,,,,,,,,,,,,,,,,,,,,,,,,,,,,,,,,,,,,,,,,,,,,
,,5caddec9facb4c0016ed3652,2024-02-22_06h01.29.167,kallum_motion_pilot,2023.2.2,Win32,59.88023952,5caddec9facb4c0016ed3652,65d6bb0e977760de756971f7,65d6d4d8cb0a17198e65bbac,0.1067,0.1069,1,45,207,51,1,twofour,,,,,,,,,,,,,,,,,,,,,,,,,,,,,,,,,,,,,,,,,,,,,,,,,,,,,,,,,,,,,,,,,,,,,,,,,,,,,,,,,,,,,,,,,,,,,,,,,,,,,,,,,,,,,,,,,,,,,,,,,,,,,,,,,,,,,,,,,
,,5caddec9facb4c0016ed3652,2024-02-22_06h01.29.167,kallum_motion_pilot,2023.2.2,Win32,59.88023952,5caddec9facb4c0016ed3652,65d6bb0e977760de756971f7,65d6d4d8cb0a17198e65bbac,0.107,0.1072,1,46,208,47,1,fourthree,,,,,,,,,,,,,,,,,,,,,,,,,,,,,,,,,,,,,,,,,,,,,,,,,,,,,,,,,,,,,,,,,,,,,,,,,,,,,,,,,,,,,,,,,,,,,,,,,,,,,,,,,,,,,,,,,,,,,,,,,,,,,,,,,,,,,,,,,
,,5caddec9facb4c0016ed3652,2024-02-22_06h01.29.167,kallum_motion_pilot,2023.2.2,Win32,59.88023952,5caddec9facb4c0016ed3652,65d6bb0e977760de756971f7,65d6d4d8cb0a17198e65bbac,0.1074,0.1076,1,47,209,66,1,twoone,,,,,,,,,,,,,,,,,,,,,,,,,,,,,,,,,,,,,,,,,,,,,,,,,,,,,,,,,,,,,,,,,,,,,,,,,,,,,,,,,,,,,,,,,,,,,,,,,,,,,,,,,,,,,,,,,,,,,,,,,,,,,,,,,,,,,,,,,
,,5caddec9facb4c0016ed3652,2024-02-22_06h01.29.167,kallum_motion_pilot,2023.2.2,Win32,59.88023952,5caddec9facb4c0016ed3652,65d6bb0e977760de756971f7,65d6d4d8cb0a17198e65bbac,0.1078,0.1079,1,48,210,152,1,fivesix,,,,,,,,,,,,,,,,,,,,,,,,,,,,,,,,,,,,,,,,,,,,,,,,,,,,,,,,,,,,,,,,,,,,,,,,,,,,,,,,,,,,,,,,,,,,,,,,,,,,,,,,,,,,,,,,,,,,,,,,,,,,,,,,,,,,,,,,,
,,5caddec9facb4c0016ed3652,2024-02-22_06h01.29.167,kallum_motion_pilot,2023.2.2,Win32,59.88023952,5caddec9facb4c0016ed3652,65d6bb0e977760de756971f7,65d6d4d8cb0a17198e65bbac,0.1081,0.1083,1,49,211,150,1,eightsix,,,,,,,,,,,,,,,,,,,,,,,,,,,,,,,,,,,,,,,,,,,,,,,,,,,,,,,,,,,,,,,,,,,,,,,,,,,,,,,,,,,,,,,,,,,,,,,,,,,,,,,,,,,,,,,,,,,,,,,,,,,,,,,,,,,,,,,,,
,,5caddec9facb4c0016ed3652,2024-02-22_06h01.29.167,kallum_motion_pilot,2023.2.2,Win32,59.88023952,5caddec9facb4c0016ed3652,65d6bb0e977760de756971f7,65d6d4d8cb0a17198e65bbac,0.1085,0.1086,1,50,212,4,1,threeone,,,,,,,,,,,,,,,,,,,,,,,,,,,,,,,,,,,,,,,,,,,,,,,,,,,,,,,,,,,,,,,,,,,,,,,,,,,,,,,,,,,,,,,,,,,,,,,,,,,,,,,,,,,,,,,,,,,,,,,,,,,,,,,,,,,,,,,,,
,,5caddec9facb4c0016ed3652,2024-02-22_06h01.29.167,kallum_motion_pilot,2023.2.2,Win32,59.88023952,5caddec9facb4c0016ed3652,65d6bb0e977760de756971f7,65d6d4d8cb0a17198e65bbac,0.1089,0.109,1,51,213,129,1,fiveseven,,,,,,,,,,,,,,,,,,,,,,,,,,,,,,,,,,,,,,,,,,,,,,,,,,,,,,,,,,,,,,,,,,,,,,,,,,,,,,,,,,,,,,,,,,,,,,,,,,,,,,,,,,,,,,,,,,,,,,,,,,,,,,,,,,,,,,,,,
,,5caddec9facb4c0016ed3652,2024-02-22_06h01.29.167,kallum_motion_pilot,2023.2.2,Win32,59.88023952,5caddec9facb4c0016ed3652,65d6bb0e977760de756971f7,65d6d4d8cb0a17198e65bbac,0.1093,0.1096,1,52,214,157,1,seveneight,,,,,,,,,,,,,,,,,,,,,,,,,,,,,,,,,,,,,,,,,,,,,,,,,,,,,,,,,,,,,,,,,,,,,,,,,,,,,,,,,,,,,,,,,,,,,,,,,,,,,,,,,,,,,,,,,,,,,,,,,,,,,,,,,,,,,,,,,
,,5caddec9facb4c0016ed3652,2024-02-22_06h01.29.167,kallum_motion_pilot,2023.2.2,Win32,59.88023952,5caddec9facb4c0016ed3652,65d6bb0e977760de756971f7,65d6d4d8cb0a17198e65bbac,0.1102,0.1105,1,53,215,143,1,eightseven,,,,,,,,,,,,,,,,,,,,,,,,,,,,,,,,,,,,,,,,,,,,,,,,,,,,,,,,,,,,,,,,,,,,,,,,,,,,,,,,,,,,,,,,,,,,,,,,,,,,,,,,,,,,,,,,,,,,,,,,,,,,,,,,,,,,,,,,,
,,5caddec9facb4c0016ed3652,2024-02-22_06h01.29.167,kallum_motion_pilot,2023.2.2,Win32,59.88023952,5caddec9facb4c0016ed3652,65d6bb0e977760de756971f7,65d6d4d8cb0a17198e65bbac,0.1109,0.1111,1,54,216,90,1,sixfive,,,,,,,,,,,,,,,,,,,,,,,,,,,,,,,,,,,,,,,,,,,,,,,,,,,,,,,,,,,,,,,,,,,,,,,,,,,,,,,,,,,,,,,,,,,,,,,,,,,,,,,,,,,,,,,,,,,,,,,,,,,,,,,,,,,,,,,,,
,,5caddec9facb4c0016ed3652,2024-02-22_06h01.29.167,kallum_motion_pilot,2023.2.2,Win32,59.88023952,5caddec9facb4c0016ed3652,65d6bb0e977760de756971f7,65d6d4d8cb0a17198e65bbac,0.1113,0.1115,1,55,217,18,1,twoone,,,,,,,,,,,,,,,,,,,,,,,,,,,,,,,,,,,,,,,,,,,,,,,,,,,,,,,,,,,,,,,,,,,,,,,,,,,,,,,,,,,,,,,,,,,,,,,,,,,,,,,,,,,,,,,,,,,,,,,,,,,,,,,,,,,,,,,,,
,,5caddec9facb4c0016ed3652,2024-02-22_06h01.29.167,kallum_motion_pilot,2023.2.2,Win32,59.88023952,5caddec9facb4c0016ed3652,65d6bb0e977760de756971f7,65d6d4d8cb0a17198e65bbac,0.1117,0.1119,1,56,218,55,1,fourthree,,,,,,,,,,,,,,,,,,,,,,,,,,,,,,,,,,,,,,,,,,,,,,,,,,,,,,,,,,,,,,,,,,,,,,,,,,,,,,,,,,,,,,,,,,,,,,,,,,,,,,,,,,,,,,,,,,,,,,,,,,,,,,,,,,,,,,,,,
,,5caddec9facb4c0016ed3652,2024-02-22_06h01.29.167,kallum_motion_pilot,2023.2.2,Win32,59.88023952,5caddec9facb4c0016ed3652,65d6bb0e977760de756971f7,65d6d4d8cb0a17198e65bbac,0.1121,0.1123,1,57,219,17,1,onethree,,,,,,,,,,,,,,,,,,,,,,,,,,,,,,,,,,,,,,,,,,,,,,,,,,,,,,,,,,,,,,,,,,,,,,,,,,,,,,,,,,,,,,,,,,,,,,,,,,,,,,,,,,,,,,,,,,,,,,,,,,,,,,,,,,,,,,,,,
,,5caddec9facb4c0016ed3652,2024-02-22_06h01.29.167,kallum_motion_pilot,2023.2.2,Win32,59.88023952,5caddec9facb4c0016ed3652,65d6bb0e977760de756971f7,65d6d4d8cb0a17198e65bbac,0.1124,0.1126,1,58,220,130,1,sixfive,,,,,,,,,,,,,,,,,,,,,,,,,,,,,,,,,,,,,,,,,,,,,,,,,,,,,,,,,,,,,,,,,,,,,,,,,,,,,,,,,,,,,,,,,,,,,,,,,,,,,,,,,,,,,,,,,,,,,,,,,,,,,,,,,,,,,,,,,
,,5caddec9facb4c0016ed3652,2024-02-22_06h01.29.167,kallum_motion_pilot,2023.2.2,Win32,59.88023952,5caddec9facb4c0016ed3652,65d6bb0e977760de756971f7,65d6d4d8cb0a17198e65bbac,0.1128,0.113,1,59,221,125,1,seveneight,,,,,,,,,,,,,,,,,,,,,,,,,,,,,,,,,,,,,,,,,,,,,,,,,,,,,,,,,,,,,,,,,,,,,,,,,,,,,,,,,,,,,,,,,,,,,,,,,,,,,,,,,,,,,,,,,,,,,,,,,,,,,,,,,,,,,,,,,
,,5caddec9facb4c0016ed3652,2024-02-22_06h01.29.167,kallum_motion_pilot,2023.2.2,Win32,59.88023952,5caddec9facb4c0016ed3652,65d6bb0e977760de756971f7,65d6d4d8cb0a17198e65bbac,0.1132,0.1134,1,60,222,119,1,eightseven,,,,,,,,,,,,,,,,,,,,,,,,,,,,,,,,,,,,,,,,,,,,,,,,,,,,,,,,,,,,,,,,,,,,,,,,,,,,,,,,,,,,,,,,,,,,,,,,,,,,,,,,,,,,,,,,,,,,,,,,,,,,,,,,,,,,,,,,,
,,5caddec9facb4c0016ed3652,2024-02-22_06h01.29.167,kallum_motion_pilot,2023.2.2,Win32,59.88023952,5caddec9facb4c0016ed3652,65d6bb0e977760de756971f7,65d6d4d8cb0a17198e65bbac,0.1136,0.1138,1,61,223,5,1,threefour,,,,,,,,,,,,,,,,,,,,,,,,,,,,,,,,,,,,,,,,,,,,,,,,,,,,,,,,,,,,,,,,,,,,,,,,,,,,,,,,,,,,,,,,,,,,,,,,,,,,,,,,,,,,,,,,,,,,,,,,,,,,,,,,,,,,,,,,,
,,5caddec9facb4c0016ed3652,2024-02-22_06h01.29.167,kallum_motion_pilot,2023.2.2,Win32,59.88023952,5caddec9facb4c0016ed3652,65d6bb0e977760de756971f7,65d6d4d8cb0a17198e65bbac,0.1142,0.1143,1,62,224,14,1,fourtwo,,,,,,,,,,,,,,,,,,,,,,,,,,,,,,,,,,,,,,,,,,,,,,,,,,,,,,,,,,,,,,,,,,,,,,,,,,,,,,,,,,,,,,,,,,,,,,,,,,,,,,,,,,,,,,,,,,,,,,,,,,,,,,,,,,,,,,,,,
,,5caddec9facb4c0016ed3652,2024-02-22_06h01.29.167,kallum_motion_pilot,2023.2.2,Win32,59.88023952,5caddec9facb4c0016ed3652,65d6bb0e977760de756971f7,65d6d4d8cb0a17198e65bbac,0.1145,0.1147,1,63,225,108,1,sevenfive,,,,,,,,,,,,,,,,,,,,,,,,,,,,,,,,,,,,,,,,,,,,,,,,,,,,,,,,,,,,,,,,,,,,,,,,,,,,,,,,,,,,,,,,,,,,,,,,,,,,,,,,,,,,,,,,,,,,,,,,,,,,,,,,,,,,,,,,,
,,5caddec9facb4c0016ed3652,2024-02-22_06h01.29.167,kallum_motion_pilot,2023.2.2,Win32,59.88023952,5caddec9facb4c0016ed3652,65d6bb0e977760de756971f7,65d6d4d8cb0a17198e65bbac,0.1149,0.1151,1,64,226,12,1,threeone,,,,,,,,,,,,,,,,,,,,,,,,,,,,,,,,,,,,,,,,,,,,,,,,,,,,,,,,,,,,,,,,,,,,,,,,,,,,,,,,,,,,,,,,,,,,,,,,,,,,,,,,,,,,,,,,,,,,,,,,,,,,,,,,,,,,,,,,,
,,5caddec9facb4c0016ed3652,2024-02-22_06h01.29.167,kallum_motion_pilot,2023.2.2,Win32,59.88023952,5caddec9facb4c0016ed3652,65d6bb0e977760de756971f7,65d6d4d8cb0a17198e65bbac,0.1153,0.1154,1,65,227,113,1,fiveseven,,,,,,,,,,,,,,,,,,,,,,,,,,,,,,,,,,,,,,,,,,,,,,,,,,,,,,,,,,,,,,,,,,,,,,,,,,,,,,,,,,,,,,,,,,,,,,,,,,,,,,,,,,,,,,,,,,,,,,,,,,,,,,,,,,,,,,,,,
,,5caddec9facb4c0016ed3652,2024-02-22_06h01.29.167,kallum_motion_pilot,2023.2.2,Win32,59.88023952,5caddec9facb4c0016ed3652,65d6bb0e977760de756971f7,65d6d4d8cb0a17198e65bbac,0.1156,0.1158,1,66,228,95,1,eightseven,,,,,,,,,,,,,,,,,,,,,,,,,,,,,,,,,,,,,,,,,,,,,,,,,,,,,,,,,,,,,,,,,,,,,,,,,,,,,,,,,,,,,,,,,,,,,,,,,,,,,,,,,,,,,,,,,,,,,,,,,,,,,,,,,,,,,,,,,
,,5caddec9facb4c0016ed3652,2024-02-22_06h01.29.167,kallum_motion_pilot,2023.2.2,Win32,59.88023952,5caddec9facb4c0016ed3652,65d6bb0e977760de756971f7,65d6d4d8cb0a17198e65bbac,0.116,0.1161,1,67,229,63,1,fourthree,,,,,,,,,,,,,,,,,,,,,,,,,,,,,,,,,,,,,,,,,,,,,,,,,,,,,,,,,,,,,,,,,,,,,,,,,,,,,,,,,,,,,,,,,,,,,,,,,,,,,,,,,,,,,,,,,,,,,,,,,,,,,,,,,,,,,,,,,
,,5caddec9facb4c0016ed3652,2024-02-22_06h01.29.167,kallum_motion_pilot,2023.2.2,Win32,59.88023952,5caddec9facb4c0016ed3652,65d6bb0e977760de756971f7,65d6d4d8cb0a17198e65bbac,0.1163,0.1164,1,68,230,49,1,onethree,,,,,,,,,,,,,,,,,,,,,,,,,,,,,,,,,,,,,,,,,,,,,,,,,,,,,,,,,,,,,,,,,,,,,,,,,,,,,,,,,,,,,,,,,,,,,,,,,,,,,,,,,,,,,,,,,,,,,,,,,,,,,,,,,,,,,,,,,
,,5caddec9facb4c0016ed3652,2024-02-22_06h01.29.167,kallum_motion_pilot,2023.2.2,Win32,59.88023952,5caddec9facb4c0016ed3652,65d6bb0e977760de756971f7,65d6d4d8cb0a17198e65bbac,0.1166,0.1167,1,69,231,138,1,sixfive,,,,,,,,,,,,,,,,,,,,,,,,,,,,,,,,,,,,,,,,,,,,,,,,,,,,,,,,,,,,,,,,,,,,,,,,,,,,,,,,,,,,,,,,,,,,,,,,,,,,,,,,,,,,,,,,,,,,,,,,,,,,,,,,,,,,,,,,,
,,5caddec9facb4c0016ed3652,2024-02-22_06h01.29.167,kallum_motion_pilot,2023.2.2,Win32,59.88023952,5caddec9facb4c0016ed3652,65d6bb0e977760de756971f7,65d6d4d8cb0a17198e65bbac,0.1169,0.1171,1,70,232,110,1,eightsix,,,,,,,,,,,,,,,,,,,,,,,,,,,,,,,,,,,,,,,,,,,,,,,,,,,,,,,,,,,,,,,,,,,,,,,,,,,,,,,,,,,,,,,,,,,,,,,,,,,,,,,,,,,,,,,,,,,,,,,,,,,,,,,,,,,,,,,,,
,,5caddec9facb4c0016ed3652,2024-02-22_06h01.29.167,kallum_motion_pilot,2023.2.2,Win32,59.88023952,5caddec9facb4c0016ed3652,65d6bb0e977760de756971f7,65d6d4d8cb0a17198e65bbac,0.1173,0.1174,1,71,233,29,1,threefour,,,,,,,,,,,,,,,,,,,,,,,,,,,,,,,,,,,,,,,,,,,,,,,,,,,,,,,,,,,,,,,,,,,,,,,,,,,,,,,,,,,,,,,,,,,,,,,,,,,,,,,,,,,,,,,,,,,,,,,,,,,,,,,,,,,,,,,,,
,,5caddec9facb4c0016ed3652,2024-02-22_06h01.29.167,kallum_motion_pilot,2023.2.2,Win32,59.88023952,5caddec9facb4c0016ed3652,65d6bb0e977760de756971f7,65d6d4d8cb0a17198e65bbac,0.1175,0.1177,1,72,234,96,1,fivesix,,,,,,,,,,,,,,,,,,,,,,,,,,,,,,,,,,,,,,,,,,,,,,,,,,,,,,,,,,,,,,,,,,,,,,,,,,,,,,,,,,,,,,,,,,,,,,,,,,,,,,,,,,,,,,,,,,,,,,,,,,,,,,,,,,,,,,,,,
,,5caddec9facb4c0016ed3652,2024-02-22_06h01.29.167,kallum_motion_pilot,2023.2.2,Win32,59.88023952,5caddec9facb4c0016ed3652,65d6bb0e977760de756971f7,65d6d4d8cb0a17198e65bbac,0.1179,0.1181,1,73,235,28,1,threeone,,,,,,,,,,,,,,,,,,,,,,,,,,,,,,,,,,,,,,,,,,,,,,,,,,,,,,,,,,,,,,,,,,,,,,,,,,,,,,,,,,,,,,,,,,,,,,,,,,,,,,,,,,,,,,,,,,,,,,,,,,,,,,,,,,,,,,,,,
,,5caddec9facb4c0016ed3652,2024-02-22_06h01.29.167,kallum_motion_pilot,2023.2.2,Win32,59.88023952,5caddec9facb4c0016ed3652,65d6bb0e977760de756971f7,65d6d4d8cb0a17198e65bbac,0.1182,0.1184,1,74,236,104,1,fivesix,,,,,,,,,,,,,,,,,,,,,,,,,,,,,,,,,,,,,,,,,,,,,,,,,,,,,,,,,,,,,,,,,,,,,,,,,,,,,,,,,,,,,,,,,,,,,,,,,,,,,,,,,,,,,,,,,,,,,,,,,,,,,,,,,,,,,,,,,
,,5caddec9facb4c0016ed3652,2024-02-22_06h01.29.167,kallum_motion_pilot,2023.2.2,Win32,59.88023952,5caddec9facb4c0016ed3652,65d6bb0e977760de756971f7,65d6d4d8cb0a17198e65bbac,0.1186,0.1187,1,75,237,64,1,onetwo,,,,,,,,,,,,,,,,,,,,,,,,,,,,,,,,,,,,,,,,,,,,,,,,,,,,,,,,,,,,,,,,,,,,,,,,,,,,,,,,,,,,,,,,,,,,,,,,,,,,,,,,,,,,,,,,,,,,,,,,,,,,,,,,,,,,,,,,,
,,5caddec9facb4c0016ed3652,2024-02-22_06h01.29.167,kallum_motion_pilot,2023.2.2,Win32,59.88023952,5caddec9facb4c0016ed3652,65d6bb0e977760de756971f7,65d6d4d8cb0a17198e65bbac,0.1189,0.119,1,76,238,88,1,fivesix,,,,,,,,,,,,,,,,,,,,,,,,,,,,,,,,,,,,,,,,,,,,,,,,,,,,,,,,,,,,,,,,,,,,,,,,,,,,,,,,,,,,,,,,,,,,,,,,,,,,,,,,,,,,,,,,,,,,,,,,,,,,,,,,,,,,,,,,,
,,5caddec9facb4c0016ed3652,2024-02-22_06h01.29.167,kallum_motion_pilot,2023.2.2,Win32,59.88023952,5caddec9facb4c0016ed3652,65d6bb0e977760de756971f7,65d6d4d8cb0a17198e65bbac,0.1192,0.1193,1,77,239,100,1,sevenfive,,,,,,,,,,,,,,,,,,,,,,,,,,,,,,,,,,,,,,,,,,,,,,,,,,,,,,,,,,,,,,,,,,,,,,,,,,,,,,,,,,,,,,,,,,,,,,,,,,,,,,,,,,,,,,,,,,,,,,,,,,,,,,,,,,,,,,,,,
,,5caddec9facb4c0016ed3652,2024-02-22_06h01.29.167,kallum_motion_pilot,2023.2.2,Win32,59.88023952,5caddec9facb4c0016ed3652,65d6bb0e977760de756971f7,65d6d4d8cb0a17198e65bbac,0.1195,0.1197,1,78,240,9,1,onethree,,,,,,,,,,,,,,,,,,,,,,,,,,,,,,,,,,,,,,,,,,,,,,,,,,,,,,,,,,,,,,,,,,,,,,,,,,,,,,,,,,,,,,,,,,,,,,,,,,,,,,,,,,,,,,,,,,,,,,,,,,,,,,,,,,,,,,,,,
,,5caddec9facb4c0016ed3652,2024-02-22_06h01.29.167,kallum_motion_pilot,2023.2.2,Win32,59.88023952,5caddec9facb4c0016ed3652,65d6bb0e977760de756971f7,65d6d4d8cb0a17198e65bbac,0.1199,0.1201,1,79,241,36,1,threeone,,,,,,,,,,,,,,,,,,,,,,,,,,,,,,,,,,,,,,,,,,,,,,,,,,,,,,,,,,,,,,,,,,,,,,,,,,,,,,,,,,,,,,,,,,,,,,,,,,,,,,,,,,,,,,,,,,,,,,,,,,,,,,,,,,,,,,,,,
,,5caddec9facb4c0016ed3652,2024-02-22_06h01.29.167,kallum_motion_pilot,2023.2.2,Win32,59.88023952,5caddec9facb4c0016ed3652,65d6bb0e977760de756971f7,65d6d4d8cb0a17198e65bbac,0.1201,0.1203,1,80,242,158,1,eightsix,,,,,,,,,,,,,,,,,,,,,,,,,,,,,,,,,,,,,,,,,,,,,,,,,,,,,,,,,,,,,,,,,,,,,,,,,,,,,,,,,,,,,,,,,,,,,,,,,,,,,,,,,,,,,,,,,,,,,,,,,,,,,,,,,,,,,,,,,
,,5caddec9facb4c0016ed3652,2024-02-22_06h01.29.167,kallum_motion_pilot,2023.2.2,Win32,59.88023952,5caddec9facb4c0016ed3652,65d6bb0e977760de756971f7,65d6d4d8cb0a17198e65bbac,0.1205,0.1206,1,81,243,19,1,twofour,,,,,,,,,,,,,,,,,,,,,,,,,,,,,,,,,,,,,,,,,,,,,,,,,,,,,,,,,,,,,,,,,,,,,,,,,,,,,,,,,,,,,,,,,,,,,,,,,,,,,,,,,,,,,,,,,,,,,,,,,,,,,,,,,,,,,,,,,
,,5caddec9facb4c0016ed3652,2024-02-22_06h01.29.167,kallum_motion_pilot,2023.2.2,Win32,59.88023952,5caddec9facb4c0016ed3652,65d6bb0e977760de756971f7,65d6d4d8cb0a17198e65bbac,0.1208,0.121,1,82,244,124,1,sevenfive,,,,,,,,,,,,,,,,,,,,,,,,,,,,,,,,,,,,,,,,,,,,,,,,,,,,,,,,,,,,,,,,,,,,,,,,,,,,,,,,,,,,,,,,,,,,,,,,,,,,,,,,,,,,,,,,,,,,,,,,,,,,,,,,,,,,,,,,,
,,5caddec9facb4c0016ed3652,2024-02-22_06h01.29.167,kallum_motion_pilot,2023.2.2,Win32,59.88023952,5caddec9facb4c0016ed3652,65d6bb0e977760de756971f7,65d6d4d8cb0a17198e65bbac,0.1211,0.1214,1,83,245,153,1,fiveseven,,,,,,,,,,,,,,,,,,,,,,,,,,,,,,,,,,,,,,,,,,,,,,,,,,,,,,,,,,,,,,,,,,,,,,,,,,,,,,,,,,,,,,,,,,,,,,,,,,,,,,,,,,,,,,,,,,,,,,,,,,,,,,,,,,,,,,,,,
,,5caddec9facb4c0016ed3652,2024-02-22_06h01.29.167,kallum_motion_pilot,2023.2.2,Win32,59.88023952,5caddec9facb4c0016ed3652,65d6bb0e977760de756971f7,65d6d4d8cb0a17198e65bbac,0.1215,0.1216,1,84,246,128,1,fivesix,,,,,,,,,,,,,,,,,,,,,,,,,,,,,,,,,,,,,,,,,,,,,,,,,,,,,,,,,,,,,,,,,,,,,,,,,,,,,,,,,,,,,,,,,,,,,,,,,,,,,,,,,,,,,,,,,,,,,,,,,,,,,,,,,,,,,,,,,
,,5caddec9facb4c0016ed3652,2024-02-22_06h01.29.167,kallum_motion_pilot,2023.2.2,Win32,59.88023952,5caddec9facb4c0016ed3652,65d6bb0e977760de756971f7,65d6d4d8cb0a17198e65bbac,0.1218,0.122,1,85,247,126,1,eightsix,,,,,,,,,,,,,,,,,,,,,,,,,,,,,,,,,,,,,,,,,,,,,,,,,,,,,,,,,,,,,,,,,,,,,,,,,,,,,,,,,,,,,,,,,,,,,,,,,,,,,,,,,,,,,,,,,,,,,,,,,,,,,,,,,,,,,,,,,
,,5caddec9facb4c0016ed3652,2024-02-22_06h01.29.167,kallum_motion_pilot,2023.2.2,Win32,59.88023952,5caddec9facb4c0016ed3652,65d6bb0e977760de756971f7,65d6d4d8cb0a17198e65bbac,0.1221,0.1223,1,86,248,137,1,fiveseven,,,,,,,,,,,,,,,,,,,,,,,,,,,,,,,,,,,,,,,,,,,,,,,,,,,,,,,,,,,,,,,,,,,,,,,,,,,,,,,,,,,,,,,,,,,,,,,,,,,,,,,,,,,,,,,,,,,,,,,,,,,,,,,,,,,,,,,,,
,,5caddec9facb4c0016ed3652,2024-02-22_06h01.29.167,kallum_motion_pilot,2023.2.2,Win32,59.88023952,5caddec9facb4c0016ed3652,65d6bb0e977760de756971f7,65d6d4d8cb0a17198e65bbac,0.1225,0.1227,1,87,249,145,1,fiveseven,,,,,,,,,,,,,,,,,,,,,,,,,,,,,,,,,,,,,,,,,,,,,,,,,,,,,,,,,,,,,,,,,,,,,,,,,,,,,,,,,,,,,,,,,,,,,,,,,,,,,,,,,,,,,,,,,,,,,,,,,,,,,,,,,,,,,,,,,
,,5caddec9facb4c0016ed3652,2024-02-22_06h01.29.167,kallum_motion_pilot,2023.2.2,Win32,59.88023952,5caddec9facb4c0016ed3652,65d6bb0e977760de756971f7,65d6d4d8cb0a17198e65bbac,0.1229,0.123,1,88,250,56,1,onetwo,,,,,,,,,,,,,,,,,,,,,,,,,,,,,,,,,,,,,,,,,,,,,,,,,,,,,,,,,,,,,,,,,,,,,,,,,,,,,,,,,,,,,,,,,,,,,,,,,,,,,,,,,,,,,,,,,,,,,,,,,,,,,,,,,,,,,,,,,
,,5caddec9facb4c0016ed3652,2024-02-22_06h01.29.167,kallum_motion_pilot,2023.2.2,Win32,59.88023952,5caddec9facb4c0016ed3652,65d6bb0e977760de756971f7,65d6d4d8cb0a17198e65bbac,0.1231,0.1232,1,89,251,106,1,sixfive,,,,,,,,,,,,,,,,,,,,,,,,,,,,,,,,,,,,,,,,,,,,,,,,,,,,,,,,,,,,,,,,,,,,,,,,,,,,,,,,,,,,,,,,,,,,,,,,,,,,,,,,,,,,,,,,,,,,,,,,,,,,,,,,,,,,,,,,,
,,5caddec9facb4c0016ed3652,2024-02-22_06h01.29.167,kallum_motion_pilot,2023.2.2,Win32,59.88023952,5caddec9facb4c0016ed3652,65d6bb0e977760de756971f7,65d6d4d8cb0a17198e65bbac,0.1234,0.1235,1,90,252,35,1,twofour,,,,,,,,,,,,,,,,,,,,,,,,,,,,,,,,,,,,,,,,,,,,,,,,,,,,,,,,,,,,,,,,,,,,,,,,,,,,,,,,,,,,,,,,,,,,,,,,,,,,,,,,,,,,,,,,,,,,,,,,,,,,,,,,,,,,,,,,,
,,5caddec9facb4c0016ed3652,2024-02-22_06h01.29.167,kallum_motion_pilot,2023.2.2,Win32,59.88023952,5caddec9facb4c0016ed3652,65d6bb0e977760de756971f7,65d6d4d8cb0a17198e65bbac,0.1237,0.1238,1,91,253,33,1,onethree,,,,,,,,,,,,,,,,,,,,,,,,,,,,,,,,,,,,,,,,,,,,,,,,,,,,,,,,,,,,,,,,,,,,,,,,,,,,,,,,,,,,,,,,,,,,,,,,,,,,,,,,,,,,,,,,,,,,,,,,,,,,,,,,,,,,,,,,,
,,5caddec9facb4c0016ed3652,2024-02-22_06h01.29.167,kallum_motion_pilot,2023.2.2,Win32,59.88023952,5caddec9facb4c0016ed3652,65d6bb0e977760de756971f7,65d6d4d8cb0a17198e65bbac,0.124,0.1241,1,92,254,15,1,fourthree,,,,,,,,,,,,,,,,,,,,,,,,,,,,,,,,,,,,,,,,,,,,,,,,,,,,,,,,,,,,,,,,,,,,,,,,,,,,,,,,,,,,,,,,,,,,,,,,,,,,,,,,,,,,,,,,,,,,,,,,,,,,,,,,,,,,,,,,,
,,5caddec9facb4c0016ed3652,2024-02-22_06h01.29.167,kallum_motion_pilot,2023.2.2,Win32,59.88023952,5caddec9facb4c0016ed3652,65d6bb0e977760de756971f7,65d6d4d8cb0a17198e65bbac,0.1243,0.1244,1,93,255,127,1,eightseven,,,,,,,,,,,,,,,,,,,,,,,,,,,,,,,,,,,,,,,,,,,,,,,,,,,,,,,,,,,,,,,,,,,,,,,,,,,,,,,,,,,,,,,,,,,,,,,,,,,,,,,,,,,,,,,,,,,,,,,,,,,,,,,,,,,,,,,,,
,,5caddec9facb4c0016ed3652,2024-02-22_06h01.29.167,kallum_motion_pilot,2023.2.2,Win32,59.88023952,5caddec9facb4c0016ed3652,65d6bb0e977760de756971f7,65d6d4d8cb0a17198e65bbac,0.1246,0.1247,1,94,256,69,1,threefour,,,,,,,,,,,,,,,,,,,,,,,,,,,,,,,,,,,,,,,,,,,,,,,,,,,,,,,,,,,,,,,,,,,,,,,,,,,,,,,,,,,,,,,,,,,,,,,,,,,,,,,,,,,,,,,,,,,,,,,,,,,,,,,,,,,,,,,,,
,,5caddec9facb4c0016ed3652,2024-02-22_06h01.29.167,kallum_motion_pilot,2023.2.2,Win32,59.88023952,5caddec9facb4c0016ed3652,65d6bb0e977760de756971f7,65d6d4d8cb0a17198e65bbac,0.1249,0.125,1,95,257,84,1,sevenfive,,,,,,,,,,,,,,,,,,,,,,,,,,,,,,,,,,,,,,,,,,,,,,,,,,,,,,,,,,,,,,,,,,,,,,,,,,,,,,,,,,,,,,,,,,,,,,,,,,,,,,,,,,,,,,,,,,,,,,,,,,,,,,,,,,,,,,,,,
,,5caddec9facb4c0016ed3652,2024-02-22_06h01.29.167,kallum_motion_pilot,2023.2.2,Win32,59.88023952,5caddec9facb4c0016ed3652,65d6bb0e977760de756971f7,65d6d4d8cb0a17198e65bbac,0.1252,0.1253,1,96,258,146,1,sixfive,,,,,,,,,,,,,,,,,,,,,,,,,,,,,,,,,,,,,,,,,,,,,,,,,,,,,,,,,,,,,,,,,,,,,,,,,,,,,,,,,,,,,,,,,,,,,,,,,,,,,,,,,,,,,,,,,,,,,,,,,,,,,,,,,,,,,,,,,
,,5caddec9facb4c0016ed3652,2024-02-22_06h01.29.167,kallum_motion_pilot,2023.2.2,Win32,59.88023952,5caddec9facb4c0016ed3652,65d6bb0e977760de756971f7,65d6d4d8cb0a17198e65bbac,0.1254,0.1256,1,97,259,97,1,fiveseven,,,,,,,,,,,,,,,,,,,,,,,,,,,,,,,,,,,,,,,,,,,,,,,,,,,,,,,,,,,,,,,,,,,,,,,,,,,,,,,,,,,,,,,,,,,,,,,,,,,,,,,,,,,,,,,,,,,,,,,,,,,,,,,,,,,,,,,,,
,,5caddec9facb4c0016ed3652,2024-02-22_06h01.29.167,kallum_motion_pilot,2023.2.2,Win32,59.88023952,5caddec9facb4c0016ed3652,65d6bb0e977760de756971f7,65d6d4d8cb0a17198e65bbac,0.1258,0.126,1,98,260,48,1,onetwo,,,,,,,,,,,,,,,,,,,,,,,,,,,,,,,,,,,,,,,,,,,,,,,,,,,,,,,,,,,,,,,,,,,,,,,,,,,,,,,,,,,,,,,,,,,,,,,,,,,,,,,,,,,,,,,,,,,,,,,,,,,,,,,,,,,,,,,,,
,,5caddec9facb4c0016ed3652,2024-02-22_06h01.29.167,kallum_motion_pilot,2023.2.2,Win32,59.88023952,5caddec9facb4c0016ed3652,65d6bb0e977760de756971f7,65d6d4d8cb0a17198e65bbac,0.1266,0.1267,1,99,261,123,1,sixeight,,,,,,,,,,,,,,,,,,,,,,,,,,,,,,,,,,,,,,,,,,,,,,,,,,,,,,,,,,,,,,,,,,,,,,,,,,,,,,,,,,,,,,,,,,,,,,,,,,,,,,,,,,,,,,,,,,,,,,,,,,,,,,,,,,,,,,,,,
,,5caddec9facb4c0016ed3652,2024-02-22_06h01.29.167,kallum_motion_pilot,2023.2.2,Win32,59.88023952,5caddec9facb4c0016ed3652,65d6bb0e977760de756971f7,65d6d4d8cb0a17198e65bbac,0.1271,0.1273,1,100,262,25,1,onethree,,,,,,,,,,,,,,,,,,,,,,,,,,,,,,,,,,,,,,,,,,,,,,,,,,,,,,,,,,,,,,,,,,,,,,,,,,,,,,,,,,,,,,,,,,,,,,,,,,,,,,,,,,,,,,,,,,,,,,,,,,,,,,,,,,,,,,,,,
,,5caddec9facb4c0016ed3652,2024-02-22_06h01.29.167,kallum_motion_pilot,2023.2.2,Win32,59.88023952,5caddec9facb4c0016ed3652,65d6bb0e977760de756971f7,65d6d4d8cb0a17198e65bbac,0.1275,0.1276,1,101,263,11,1,twofour,,,,,,,,,,,,,,,,,,,,,,,,,,,,,,,,,,,,,,,,,,,,,,,,,,,,,,,,,,,,,,,,,,,,,,,,,,,,,,,,,,,,,,,,,,,,,,,,,,,,,,,,,,,,,,,,,,,,,,,,,,,,,,,,,,,,,,,,,
,,5caddec9facb4c0016ed3652,2024-02-22_06h01.29.167,kallum_motion_pilot,2023.2.2,Win32,59.88023952,5caddec9facb4c0016ed3652,65d6bb0e977760de756971f7,65d6d4d8cb0a17198e65bbac,0.1279,0.128,1,102,264,2,1,twoone,,,,,,,,,,,,,,,,,,,,,,,,,,,,,,,,,,,,,,,,,,,,,,,,,,,,,,,,,,,,,,,,,,,,,,,,,,,,,,,,,,,,,,,,,,,,,,,,,,,,,,,,,,,,,,,,,,,,,,,,,,,,,,,,,,,,,,,,,
,,5caddec9facb4c0016ed3652,2024-02-22_06h01.29.167,kallum_motion_pilot,2023.2.2,Win32,59.88023952,5caddec9facb4c0016ed3652,65d6bb0e977760de756971f7,65d6d4d8cb0a17198e65bbac,0.1282,0.1285,1,103,265,32,1,onetwo,,,,,,,,,,,,,,,,,,,,,,,,,,,,,,,,,,,,,,,,,,,,,,,,,,,,,,,,,,,,,,,,,,,,,,,,,,,,,,,,,,,,,,,,,,,,,,,,,,,,,,,,,,,,,,,,,,,,,,,,,,,,,,,,,,,,,,,,,
,,5caddec9facb4c0016ed3652,2024-02-22_06h01.29.167,kallum_motion_pilot,2023.2.2,Win32,59.88023952,5caddec9facb4c0016ed3652,65d6bb0e977760de756971f7,65d6d4d8cb0a17198e65bbac,0.1286,0.1289,1,104,266,37,1,threefour,,,,,,,,,,,,,,,,,,,,,,,,,,,,,,,,,,,,,,,,,,,,,,,,,,,,,,,,,,,,,,,,,,,,,,,,,,,,,,,,,,,,,,,,,,,,,,,,,,,,,,,,,,,,,,,,,,,,,,,,,,,,,,,,,,,,,,,,,
,,5caddec9facb4c0016ed3652,2024-02-22_06h01.29.167,kallum_motion_pilot,2023.2.2,Win32,59.88023952,5caddec9facb4c0016ed3652,65d6bb0e977760de756971f7,65d6d4d8cb0a17198e65bbac,0.1291,0.1292,1,105,267,114,1,sixfive,,,,,,,,,,,,,,,,,,,,,,,,,,,,,,,,,,,,,,,,,,,,,,,,,,,,,,,,,,,,,,,,,,,,,,,,,,,,,,,,,,,,,,,,,,,,,,,,,,,,,,,,,,,,,,,,,,,,,,,,,,,,,,,,,,,,,,,,,
,,5caddec9facb4c0016ed3652,2024-02-22_06h01.29.167,kallum_motion_pilot,2023.2.2,Win32,59.88023952,5caddec9facb4c0016ed3652,65d6bb0e977760de756971f7,65d6d4d8cb0a17198e65bbac,0.1293,0.1295,1,106,268,26,1,twoone,,,,,,,,,,,,,,,,,,,,,,,,,,,,,,,,,,,,,,,,,,,,,,,,,,,,,,,,,,,,,,,,,,,,,,,,,,,,,,,,,,,,,,,,,,,,,,,,,,,,,,,,,,,,,,,,,,,,,,,,,,,,,,,,,,,,,,,,,
,,5caddec9facb4c0016ed3652,2024-02-22_06h01.29.167,kallum_motion_pilot,2023.2.2,Win32,59.88023952,5caddec9facb4c0016ed3652,65d6bb0e977760de756971f7,65d6d4d8cb0a17198e65bbac,0.1296,0.1298,1,107,269,60,1,threeone,,,,,,,,,,,,,,,,,,,,,,,,,,,,,,,,,,,,,,,,,,,,,,,,,,,,,,,,,,,,,,,,,,,,,,,,,,,,,,,,,,,,,,,,,,,,,,,,,,,,,,,,,,,,,,,,,,,,,,,,,,,,,,,,,,,,,,,,,
,,5caddec9facb4c0016ed3652,2024-02-22_06h01.29.167,kallum_motion_pilot,2023.2.2,Win32,59.88023952,5caddec9facb4c0016ed3652,65d6bb0e977760de756971f7,65d6d4d8cb0a17198e65bbac,0.1299,0.1301,1,108,270,136,1,fivesix,,,,,,,,,,,,,,,,,,,,,,,,,,,,,,,,,,,,,,,,,,,,,,,,,,,,,,,,,,,,,,,,,,,,,,,,,,,,,,,,,,,,,,,,,,,,,,,,,,,,,,,,,,,,,,,,,,,,,,,,,,,,,,,,,,,,,,,,,
,,5caddec9facb4c0016ed3652,2024-02-22_06h01.29.167,kallum_motion_pilot,2023.2.2,Win32,59.88023952,5caddec9facb4c0016ed3652,65d6bb0e977760de756971f7,65d6d4d8cb0a17198e65bbac,0.1302,0.1304,1,109,271,75,1,twofour,,,,,,,,,,,,,,,,,,,,,,,,,,,,,,,,,,,,,,,,,,,,,,,,,,,,,,,,,,,,,,,,,,,,,,,,,,,,,,,,,,,,,,,,,,,,,,,,,,,,,,,,,,,,,,,,,,,,,,,,,,,,,,,,,,,,,,,,,
,,5caddec9facb4c0016ed3652,2024-02-22_06h01.29.167,kallum_motion_pilot,2023.2.2,Win32,59.88023952,5caddec9facb4c0016ed3652,65d6bb0e977760de756971f7,65d6d4d8cb0a17198e65bbac,0.1306,0.1307,1,110,272,82,1,sixfive,,,,,,,,,,,,,,,,,,,,,,,,,,,,,,,,,,,,,,,,,,,,,,,,,,,,,,,,,,,,,,,,,,,,,,,,,,,,,,,,,,,,,,,,,,,,,,,,,,,,,,,,,,,,,,,,,,,,,,,,,,,,,,,,,,,,,,,,,
,,5caddec9facb4c0016ed3652,2024-02-22_06h01.29.167,kallum_motion_pilot,2023.2.2,Win32,59.88023952,5caddec9facb4c0016ed3652,65d6bb0e977760de756971f7,65d6d4d8cb0a17198e65bbac,0.131,0.1311,1,111,273,147,1,sixeight,,,,,,,,,,,,,,,,,,,,,,,,,,,,,,,,,,,,,,,,,,,,,,,,,,,,,,,,,,,,,,,,,,,,,,,,,,,,,,,,,,,,,,,,,,,,,,,,,,,,,,,,,,,,,,,,,,,,,,,,,,,,,,,,,,,,,,,,,
,,5caddec9facb4c0016ed3652,2024-02-22_06h01.29.167,kallum_motion_pilot,2023.2.2,Win32,59.88023952,5caddec9facb4c0016ed3652,65d6bb0e977760de756971f7,65d6d4d8cb0a17198e65bbac,0.1312,0.1314,1,112,274,61,1,threefour,,,,,,,,,,,,,,,,,,,,,,,,,,,,,,,,,,,,,,,,,,,,,,,,,,,,,,,,,,,,,,,,,,,,,,,,,,,,,,,,,,,,,,,,,,,,,,,,,,,,,,,,,,,,,,,,,,,,,,,,,,,,,,,,,,,,,,,,,
,,5caddec9facb4c0016ed3652,2024-02-22_06h01.29.167,kallum_motion_pilot,2023.2.2,Win32,59.88023952,5caddec9facb4c0016ed3652,65d6bb0e977760de756971f7,65d6d4d8cb0a17198e65bbac,0.1315,0.1318,1,113,275,53,1,threefour,,,,,,,,,,,,,,,,,,,,,,,,,,,,,,,,,,,,,,,,,,,,,,,,,,,,,,,,,,,,,,,,,,,,,,,,,,,,,,,,,,,,,,,,,,,,,,,,,,,,,,,,,,,,,,,,,,,,,,,,,,,,,,,,,,,,,,,,,
,,5caddec9facb4c0016ed3652,2024-02-22_06h01.29.167,kallum_motion_pilot,2023.2.2,Win32,59.88023952,5caddec9facb4c0016ed3652,65d6bb0e977760de756971f7,65d6d4d8cb0a17198e65bbac,0.1319,0.1321,1,114,276,135,1,eightseven,,,,,,,,,,,,,,,,,,,,,,,,,,,,,,,,,,,,,,,,,,,,,,,,,,,,,,,,,,,,,,,,,,,,,,,,,,,,,,,,,,,,,,,,,,,,,,,,,,,,,,,,,,,,,,,,,,,,,,,,,,,,,,,,,,,,,,,,,
,,5caddec9facb4c0016ed3652,2024-02-22_06h01.29.167,kallum_motion_pilot,2023.2.2,Win32,59.88023952,5caddec9facb4c0016ed3652,65d6bb0e977760de756971f7,65d6d4d8cb0a17198e65bbac,0.1323,0.1324,1,115,277,140,1,sevenfive,,,,,,,,,,,,,,,,,,,,,,,,,,,,,,,,,,,,,,,,,,,,,,,,,,,,,,,,,,,,,,,,,,,,,,,,,,,,,,,,,,,,,,,,,,,,,,,,,,,,,,,,,,,,,,,,,,,,,,,,,,,,,,,,,,,,,,,,,
