startup.started,startup.stopped,Prolific ID*,date,expName,psychopyVersion,OS,frameRate,participant,study_id,session,stimpositions.started,stimpositions.stopped,hardcoded_stimulus_positions.thisRepN,hardcoded_stimulus_positions.thisTrialN,hardcoded_stimulus_positions.thisN,hardcoded_stimulus_positions.thisIndex,hardcoded_stimulus_positions.ran,StimulusPos,stimorientation.started,stimorientation.stopped,prac_stimorientation_import_loop.thisRepN,prac_stimorientation_import_loop.thisTrialN,prac_stimorientation_import_loop.thisN,prac_stimorientation_import_loop.thisIndex,prac_stimorientation_import_loop.ran,Stimorientation,welcome_instr.started,welcome_instr.stopped,key_resp.keys,key_resp.rt,key_resp.duration,response_steppedout_1.started,response_steppedout_1.stopped,key_resp_20.keys,key_resp_20.rt,key_resp_20.duration,response_steppedout_2.started,response_steppedout_2.stopped,key_resp_19.keys,key_resp_19.rt,key_resp_19.duration,stim_response_instr.started,stim_response_instr.stopped,key_resp_15.keys,key_resp_15.rt,key_resp_15.duration,direction_instr_2.started,direction_instr_2.stopped,key_resp_9.keys,key_resp_9.rt,key_resp_9.duration,instr_prac.started,instr_prac.stopped,key_resp_10.keys,key_resp_10.rt,key_resp_10.duration,Stim1_display_prac.started,Stim1_display_prac.stopped,Ecc,Circle1_ori,Circle2_ori,response_prac.started,similarity,response_time,response_prac.stopped,mouse_5.x,mouse_5.y,mouse_5.leftButton,mouse_5.midButton,mouse_5.rightButton,mouse_5.clicked_name,responseprac_feedback.started,responseprac_feedback.stopped,summary2_prac.started,summary2_prac.stopped,mouse_6.x,mouse_6.y,mouse_6.leftButton,mouse_6.midButton,mouse_6.rightButton,mouse_6.clicked_name,duringprac.thisRepN,duringprac.thisTrialN,duringprac.thisN,duringprac.thisIndex,duringprac.ran,begin.started,begin.stopped,key_resp_22.keys,key_resp_22.rt,key_resp_22.duration,Stim1_display.started,Stim1_display.stopped,circle1_ori,circle2_ori,circle1_SF,circle2_SF,response.started,response.stopped,mouse.x,mouse.y,mouse.leftButton,mouse.midButton,mouse.rightButton,mouse.clicked_name,trialnumber,double_pass.thisRepN,double_pass.thisTrialN,double_pass.thisN,double_pass.thisIndex,double_pass.ran,double_pass.order,main_trial.thisRepN,main_trial.thisTrialN,main_trial.thisN,main_trial.thisIndex,main_trial.ran,main_trial.order,Trial_Counter,Catch,Frequencies,response_2.started,response_2.stopped,mouse_2.x,mouse_2.y,mouse_2.leftButton,mouse_2.midButton,mouse_2.rightButton,mouse_2.clicked_name,special_trial.started,special_trial.stopped,catch_1.started,catch_1.stopped,mouse_3.x,mouse_3.y,mouse_3.leftButton,mouse_3.midButton,mouse_3.rightButton,catchresponse,catchnumber,response_time_catch,response_sum.started,response_sum.stopped,mouse_11.x,mouse_11.y,mouse_11.leftButton,mouse_11.midButton,mouse_11.rightButton,flip_presentation_sequence_for_double_pass.started,flip_presentation_sequence_for_double_pass.stopped,goodbye.started,goodbye.stopped,key_resp_3.keys,key_resp_3.rt,key_resp_3.duration
0.0003,0.0004,5d1e4a3ed4b9d60001ec8f1c,2024-02-22_06h02.32.539,kallum_motion_pilot,2023.2.2,Win32,60.24096386,5d1e4a3ed4b9d60001ec8f1c,65d6bb0e977760de756971f7,65d6c6fbbcd697ef2196c113,,,,,,,,,,,,,,,,,,,,,,,,,,,,,,,,,,,,,,,,,,,,,,,,,,,,,,,,,,,,,,,,,,,,,,,,,,,,,,,,,,,,,,,,,,,,,,,,,,,,,,,,,,,,,,,,,,,,,,,,,,,,,,,,,,,,,,,,,,,,,,,,,
,,5d1e4a3ed4b9d60001ec8f1c,2024-02-22_06h02.32.539,kallum_motion_pilot,2023.2.2,Win32,60.24096386,5d1e4a3ed4b9d60001ec8f1c,65d6bb0e977760de756971f7,65d6c6fbbcd697ef2196c113,0.0175,0.0176,0,0,0,113,1,fiveseven,,,,,,,,,,,,,,,,,,,,,,,,,,,,,,,,,,,,,,,,,,,,,,,,,,,,,,,,,,,,,,,,,,,,,,,,,,,,,,,,,,,,,,,,,,,,,,,,,,,,,,,,,,,,,,,,,,,,,,,,,,,,,,,,,,,,,,,,,
,,5d1e4a3ed4b9d60001ec8f1c,2024-02-22_06h02.32.539,kallum_motion_pilot,2023.2.2,Win32,60.24096386,5d1e4a3ed4b9d60001ec8f1c,65d6bb0e977760de756971f7,65d6c6fbbcd697ef2196c113,0.0179,0.0179,0,1,1,11,1,twofour,,,,,,,,,,,,,,,,,,,,,,,,,,,,,,,,,,,,,,,,,,,,,,,,,,,,,,,,,,,,,,,,,,,,,,,,,,,,,,,,,,,,,,,,,,,,,,,,,,,,,,,,,,,,,,,,,,,,,,,,,,,,,,,,,,,,,,,,,
,,5d1e4a3ed4b9d60001ec8f1c,2024-02-22_06h02.32.539,kallum_motion_pilot,2023.2.2,Win32,60.24096386,5d1e4a3ed4b9d60001ec8f1c,65d6bb0e977760de756971f7,65d6c6fbbcd697ef2196c113,0.018,0.018,0,2,2,25,1,onethree,,,,,,,,,,,,,,,,,,,,,,,,,,,,,,,,,,,,,,,,,,,,,,,,,,,,,,,,,,,,,,,,,,,,,,,,,,,,,,,,,,,,,,,,,,,,,,,,,,,,,,,,,,,,,,,,,,,,,,,,,,,,,,,,,,,,,,,,,
,,5d1e4a3ed4b9d60001ec8f1c,2024-02-22_06h02.32.539,kallum_motion_pilot,2023.2.2,Win32,60.24096386,5d1e4a3ed4b9d60001ec8f1c,65d6bb0e977760de756971f7,65d6c6fbbcd697ef2196c113,0.0181,0.0181,0,3,3,141,1,seveneight,,,,,,,,,,,,,,,,,,,,,,,,,,,,,,,,,,,,,,,,,,,,,,,,,,,,,,,,,,,,,,,,,,,,,,,,,,,,,,,,,,,,,,,,,,,,,,,,,,,,,,,,,,,,,,,,,,,,,,,,,,,,,,,,,,,,,,,,,
,,5d1e4a3ed4b9d60001ec8f1c,2024-02-22_06h02.32.539,kallum_motion_pilot,2023.2.2,Win32,60.24096386,5d1e4a3ed4b9d60001ec8f1c,65d6bb0e977760de756971f7,65d6c6fbbcd697ef2196c113,0.0181,0.0181,0,4,4,109,1,seveneight,,,,,,,,,,,,,,,,,,,,,,,,,,,,,,,,,,,,,,,,,,,,,,,,,,,,,,,,,,,,,,,,,,,,,,,,,,,,,,,,,,,,,,,,,,,,,,,,,,,,,,,,,,,,,,,,,,,,,,,,,,,,,,,,,,,,,,,,,
,,5d1e4a3ed4b9d60001ec8f1c,2024-02-22_06h02.32.539,kallum_motion_pilot,2023.2.2,Win32,60.24096386,5d1e4a3ed4b9d60001ec8f1c,65d6bb0e977760de756971f7,65d6c6fbbcd697ef2196c113,0.0182,0.0182,0,5,5,107,1,sixeight,,,,,,,,,,,,,,,,,,,,,,,,,,,,,,,,,,,,,,,,,,,,,,,,,,,,,,,,,,,,,,,,,,,,,,,,,,,,,,,,,,,,,,,,,,,,,,,,,,,,,,,,,,,,,,,,,,,,,,,,,,,,,,,,,,,,,,,,,
,,5d1e4a3ed4b9d60001ec8f1c,2024-02-22_06h02.32.539,kallum_motion_pilot,2023.2.2,Win32,60.24096386,5d1e4a3ed4b9d60001ec8f1c,65d6bb0e977760de756971f7,65d6c6fbbcd697ef2196c113,0.0183,0.0184,0,6,6,78,1,fourtwo,,,,,,,,,,,,,,,,,,,,,,,,,,,,,,,,,,,,,,,,,,,,,,,,,,,,,,,,,,,,,,,,,,,,,,,,,,,,,,,,,,,,,,,,,,,,,,,,,,,,,,,,,,,,,,,,,,,,,,,,,,,,,,,,,,,,,,,,,
,,5d1e4a3ed4b9d60001ec8f1c,2024-02-22_06h02.32.539,kallum_motion_pilot,2023.2.2,Win32,60.24096386,5d1e4a3ed4b9d60001ec8f1c,65d6bb0e977760de756971f7,65d6c6fbbcd697ef2196c113,0.0184,0.0184,0,7,7,135,1,eightseven,,,,,,,,,,,,,,,,,,,,,,,,,,,,,,,,,,,,,,,,,,,,,,,,,,,,,,,,,,,,,,,,,,,,,,,,,,,,,,,,,,,,,,,,,,,,,,,,,,,,,,,,,,,,,,,,,,,,,,,,,,,,,,,,,,,,,,,,,
,,5d1e4a3ed4b9d60001ec8f1c,2024-02-22_06h02.32.539,kallum_motion_pilot,2023.2.2,Win32,60.24096386,5d1e4a3ed4b9d60001ec8f1c,65d6bb0e977760de756971f7,65d6c6fbbcd697ef2196c113,0.0185,0.0186,0,8,8,48,1,onetwo,,,,,,,,,,,,,,,,,,,,,,,,,,,,,,,,,,,,,,,,,,,,,,,,,,,,,,,,,,,,,,,,,,,,,,,,,,,,,,,,,,,,,,,,,,,,,,,,,,,,,,,,,,,,,,,,,,,,,,,,,,,,,,,,,,,,,,,,,
,,5d1e4a3ed4b9d60001ec8f1c,2024-02-22_06h02.32.539,kallum_motion_pilot,2023.2.2,Win32,60.24096386,5d1e4a3ed4b9d60001ec8f1c,65d6bb0e977760de756971f7,65d6c6fbbcd697ef2196c113,0.0187,0.0187,0,9,9,6,1,fourtwo,,,,,,,,,,,,,,,,,,,,,,,,,,,,,,,,,,,,,,,,,,,,,,,,,,,,,,,,,,,,,,,,,,,,,,,,,,,,,,,,,,,,,,,,,,,,,,,,,,,,,,,,,,,,,,,,,,,,,,,,,,,,,,,,,,,,,,,,,
,,5d1e4a3ed4b9d60001ec8f1c,2024-02-22_06h02.32.539,kallum_motion_pilot,2023.2.2,Win32,60.24096386,5d1e4a3ed4b9d60001ec8f1c,65d6bb0e977760de756971f7,65d6c6fbbcd697ef2196c113,0.0187,0.0187,0,10,10,45,1,threefour,,,,,,,,,,,,,,,,,,,,,,,,,,,,,,,,,,,,,,,,,,,,,,,,,,,,,,,,,,,,,,,,,,,,,,,,,,,,,,,,,,,,,,,,,,,,,,,,,,,,,,,,,,,,,,,,,,,,,,,,,,,,,,,,,,,,,,,,,
,,5d1e4a3ed4b9d60001ec8f1c,2024-02-22_06h02.32.539,kallum_motion_pilot,2023.2.2,Win32,60.24096386,5d1e4a3ed4b9d60001ec8f1c,65d6bb0e977760de756971f7,65d6c6fbbcd697ef2196c113,0.0188,0.0188,0,11,11,59,1,twofour,,,,,,,,,,,,,,,,,,,,,,,,,,,,,,,,,,,,,,,,,,,,,,,,,,,,,,,,,,,,,,,,,,,,,,,,,,,,,,,,,,,,,,,,,,,,,,,,,,,,,,,,,,,,,,,,,,,,,,,,,,,,,,,,,,,,,,,,,
,,5d1e4a3ed4b9d60001ec8f1c,2024-02-22_06h02.32.539,kallum_motion_pilot,2023.2.2,Win32,60.24096386,5d1e4a3ed4b9d60001ec8f1c,65d6bb0e977760de756971f7,65d6c6fbbcd697ef2196c113,0.0188,0.0188,0,12,12,80,1,fivesix,,,,,,,,,,,,,,,,,,,,,,,,,,,,,,,,,,,,,,,,,,,,,,,,,,,,,,,,,,,,,,,,,,,,,,,,,,,,,,,,,,,,,,,,,,,,,,,,,,,,,,,,,,,,,,,,,,,,,,,,,,,,,,,,,,,,,,,,,
,,5d1e4a3ed4b9d60001ec8f1c,2024-02-22_06h02.32.539,kallum_motion_pilot,2023.2.2,Win32,60.24096386,5d1e4a3ed4b9d60001ec8f1c,65d6bb0e977760de756971f7,65d6c6fbbcd697ef2196c113,0.0189,0.019,0,13,13,152,1,fivesix,,,,,,,,,,,,,,,,,,,,,,,,,,,,,,,,,,,,,,,,,,,,,,,,,,,,,,,,,,,,,,,,,,,,,,,,,,,,,,,,,,,,,,,,,,,,,,,,,,,,,,,,,,,,,,,,,,,,,,,,,,,,,,,,,,,,,,,,,
,,5d1e4a3ed4b9d60001ec8f1c,2024-02-22_06h02.32.539,kallum_motion_pilot,2023.2.2,Win32,60.24096386,5d1e4a3ed4b9d60001ec8f1c,65d6bb0e977760de756971f7,65d6c6fbbcd697ef2196c113,0.019,0.019,0,14,14,94,1,eightsix,,,,,,,,,,,,,,,,,,,,,,,,,,,,,,,,,,,,,,,,,,,,,,,,,,,,,,,,,,,,,,,,,,,,,,,,,,,,,,,,,,,,,,,,,,,,,,,,,,,,,,,,,,,,,,,,,,,,,,,,,,,,,,,,,,,,,,,,,
,,5d1e4a3ed4b9d60001ec8f1c,2024-02-22_06h02.32.539,kallum_motion_pilot,2023.2.2,Win32,60.24096386,5d1e4a3ed4b9d60001ec8f1c,65d6bb0e977760de756971f7,65d6c6fbbcd697ef2196c113,0.0191,0.0191,0,15,15,158,1,eightsix,,,,,,,,,,,,,,,,,,,,,,,,,,,,,,,,,,,,,,,,,,,,,,,,,,,,,,,,,,,,,,,,,,,,,,,,,,,,,,,,,,,,,,,,,,,,,,,,,,,,,,,,,,,,,,,,,,,,,,,,,,,,,,,,,,,,,,,,,
,,5d1e4a3ed4b9d60001ec8f1c,2024-02-22_06h02.32.539,kallum_motion_pilot,2023.2.2,Win32,60.24096386,5d1e4a3ed4b9d60001ec8f1c,65d6bb0e977760de756971f7,65d6c6fbbcd697ef2196c113,0.0191,0.0191,0,16,16,142,1,eightsix,,,,,,,,,,,,,,,,,,,,,,,,,,,,,,,,,,,,,,,,,,,,,,,,,,,,,,,,,,,,,,,,,,,,,,,,,,,,,,,,,,,,,,,,,,,,,,,,,,,,,,,,,,,,,,,,,,,,,,,,,,,,,,,,,,,,,,,,,
,,5d1e4a3ed4b9d60001ec8f1c,2024-02-22_06h02.32.539,kallum_motion_pilot,2023.2.2,Win32,60.24096386,5d1e4a3ed4b9d60001ec8f1c,65d6bb0e977760de756971f7,65d6c6fbbcd697ef2196c113,0.0192,0.0192,0,17,17,62,1,fourtwo,,,,,,,,,,,,,,,,,,,,,,,,,,,,,,,,,,,,,,,,,,,,,,,,,,,,,,,,,,,,,,,,,,,,,,,,,,,,,,,,,,,,,,,,,,,,,,,,,,,,,,,,,,,,,,,,,,,,,,,,,,,,,,,,,,,,,,,,,
,,5d1e4a3ed4b9d60001ec8f1c,2024-02-22_06h02.32.539,kallum_motion_pilot,2023.2.2,Win32,60.24096386,5d1e4a3ed4b9d60001ec8f1c,65d6bb0e977760de756971f7,65d6c6fbbcd697ef2196c113,0.0192,0.0193,0,18,18,91,1,sixeight,,,,,,,,,,,,,,,,,,,,,,,,,,,,,,,,,,,,,,,,,,,,,,,,,,,,,,,,,,,,,,,,,,,,,,,,,,,,,,,,,,,,,,,,,,,,,,,,,,,,,,,,,,,,,,,,,,,,,,,,,,,,,,,,,,,,,,,,,
,,5d1e4a3ed4b9d60001ec8f1c,2024-02-22_06h02.32.539,kallum_motion_pilot,2023.2.2,Win32,60.24096386,5d1e4a3ed4b9d60001ec8f1c,65d6bb0e977760de756971f7,65d6c6fbbcd697ef2196c113,0.0194,0.0194,0,19,19,160,1,fivesix,,,,,,,,,,,,,,,,,,,,,,,,,,,,,,,,,,,,,,,,,,,,,,,,,,,,,,,,,,,,,,,,,,,,,,,,,,,,,,,,,,,,,,,,,,,,,,,,,,,,,,,,,,,,,,,,,,,,,,,,,,,,,,,,,,,,,,,,,
,,5d1e4a3ed4b9d60001ec8f1c,2024-02-22_06h02.32.539,kallum_motion_pilot,2023.2.2,Win32,60.24096386,5d1e4a3ed4b9d60001ec8f1c,65d6bb0e977760de756971f7,65d6c6fbbcd697ef2196c113,0.0194,0.0194,0,20,20,148,1,sevenfive,,,,,,,,,,,,,,,,,,,,,,,,,,,,,,,,,,,,,,,,,,,,,,,,,,,,,,,,,,,,,,,,,,,,,,,,,,,,,,,,,,,,,,,,,,,,,,,,,,,,,,,,,,,,,,,,,,,,,,,,,,,,,,,,,,,,,,,,,
,,5d1e4a3ed4b9d60001ec8f1c,2024-02-22_06h02.32.539,kallum_motion_pilot,2023.2.2,Win32,60.24096386,5d1e4a3ed4b9d60001ec8f1c,65d6bb0e977760de756971f7,65d6c6fbbcd697ef2196c113,0.0195,0.0195,0,21,21,49,1,onethree,,,,,,,,,,,,,,,,,,,,,,,,,,,,,,,,,,,,,,,,,,,,,,,,,,,,,,,,,,,,,,,,,,,,,,,,,,,,,,,,,,,,,,,,,,,,,,,,,,,,,,,,,,,,,,,,,,,,,,,,,,,,,,,,,,,,,,,,,
,,5d1e4a3ed4b9d60001ec8f1c,2024-02-22_06h02.32.539,kallum_motion_pilot,2023.2.2,Win32,60.24096386,5d1e4a3ed4b9d60001ec8f1c,65d6bb0e977760de756971f7,65d6c6fbbcd697ef2196c113,0.0196,0.0196,0,22,22,150,1,eightsix,,,,,,,,,,,,,,,,,,,,,,,,,,,,,,,,,,,,,,,,,,,,,,,,,,,,,,,,,,,,,,,,,,,,,,,,,,,,,,,,,,,,,,,,,,,,,,,,,,,,,,,,,,,,,,,,,,,,,,,,,,,,,,,,,,,,,,,,,
,,5d1e4a3ed4b9d60001ec8f1c,2024-02-22_06h02.32.539,kallum_motion_pilot,2023.2.2,Win32,60.24096386,5d1e4a3ed4b9d60001ec8f1c,65d6bb0e977760de756971f7,65d6c6fbbcd697ef2196c113,0.0197,0.0197,0,23,23,145,1,fiveseven,,,,,,,,,,,,,,,,,,,,,,,,,,,,,,,,,,,,,,,,,,,,,,,,,,,,,,,,,,,,,,,,,,,,,,,,,,,,,,,,,,,,,,,,,,,,,,,,,,,,,,,,,,,,,,,,,,,,,,,,,,,,,,,,,,,,,,,,,
,,5d1e4a3ed4b9d60001ec8f1c,2024-02-22_06h02.32.539,kallum_motion_pilot,2023.2.2,Win32,60.24096386,5d1e4a3ed4b9d60001ec8f1c,65d6bb0e977760de756971f7,65d6c6fbbcd697ef2196c113,0.0197,0.0198,0,24,24,15,1,fourthree,,,,,,,,,,,,,,,,,,,,,,,,,,,,,,,,,,,,,,,,,,,,,,,,,,,,,,,,,,,,,,,,,,,,,,,,,,,,,,,,,,,,,,,,,,,,,,,,,,,,,,,,,,,,,,,,,,,,,,,,,,,,,,,,,,,,,,,,,
,,5d1e4a3ed4b9d60001ec8f1c,2024-02-22_06h02.32.539,kallum_motion_pilot,2023.2.2,Win32,60.24096386,5d1e4a3ed4b9d60001ec8f1c,65d6bb0e977760de756971f7,65d6c6fbbcd697ef2196c113,0.0199,0.0199,0,25,25,138,1,sixfive,,,,,,,,,,,,,,,,,,,,,,,,,,,,,,,,,,,,,,,,,,,,,,,,,,,,,,,,,,,,,,,,,,,,,,,,,,,,,,,,,,,,,,,,,,,,,,,,,,,,,,,,,,,,,,,,,,,,,,,,,,,,,,,,,,,,,,,,,
,,5d1e4a3ed4b9d60001ec8f1c,2024-02-22_06h02.32.539,kallum_motion_pilot,2023.2.2,Win32,60.24096386,5d1e4a3ed4b9d60001ec8f1c,65d6bb0e977760de756971f7,65d6c6fbbcd697ef2196c113,0.0199,0.0199,0,26,26,26,1,twoone,,,,,,,,,,,,,,,,,,,,,,,,,,,,,,,,,,,,,,,,,,,,,,,,,,,,,,,,,,,,,,,,,,,,,,,,,,,,,,,,,,,,,,,,,,,,,,,,,,,,,,,,,,,,,,,,,,,,,,,,,,,,,,,,,,,,,,,,,
,,5d1e4a3ed4b9d60001ec8f1c,2024-02-22_06h02.32.539,kallum_motion_pilot,2023.2.2,Win32,60.24096386,5d1e4a3ed4b9d60001ec8f1c,65d6bb0e977760de756971f7,65d6c6fbbcd697ef2196c113,0.0199,0.0199,0,27,27,157,1,seveneight,,,,,,,,,,,,,,,,,,,,,,,,,,,,,,,,,,,,,,,,,,,,,,,,,,,,,,,,,,,,,,,,,,,,,,,,,,,,,,,,,,,,,,,,,,,,,,,,,,,,,,,,,,,,,,,,,,,,,,,,,,,,,,,,,,,,,,,,,
,,5d1e4a3ed4b9d60001ec8f1c,2024-02-22_06h02.32.539,kallum_motion_pilot,2023.2.2,Win32,60.24096386,5d1e4a3ed4b9d60001ec8f1c,65d6bb0e977760de756971f7,65d6c6fbbcd697ef2196c113,0.02,0.02,0,28,28,136,1,fivesix,,,,,,,,,,,,,,,,,,,,,,,,,,,,,,,,,,,,,,,,,,,,,,,,,,,,,,,,,,,,,,,,,,,,,,,,,,,,,,,,,,,,,,,,,,,,,,,,,,,,,,,,,,,,,,,,,,,,,,,,,,,,,,,,,,,,,,,,,
,,5d1e4a3ed4b9d60001ec8f1c,2024-02-22_06h02.32.539,kallum_motion_pilot,2023.2.2,Win32,60.24096386,5d1e4a3ed4b9d60001ec8f1c,65d6bb0e977760de756971f7,65d6c6fbbcd697ef2196c113,0.0201,0.0201,0,29,29,129,1,fiveseven,,,,,,,,,,,,,,,,,,,,,,,,,,,,,,,,,,,,,,,,,,,,,,,,,,,,,,,,,,,,,,,,,,,,,,,,,,,,,,,,,,,,,,,,,,,,,,,,,,,,,,,,,,,,,,,,,,,,,,,,,,,,,,,,,,,,,,,,,
,,5d1e4a3ed4b9d60001ec8f1c,2024-02-22_06h02.32.539,kallum_motion_pilot,2023.2.2,Win32,60.24096386,5d1e4a3ed4b9d60001ec8f1c,65d6bb0e977760de756971f7,65d6c6fbbcd697ef2196c113,0.0202,0.0202,0,30,30,86,1,eightsix,,,,,,,,,,,,,,,,,,,,,,,,,,,,,,,,,,,,,,,,,,,,,,,,,,,,,,,,,,,,,,,,,,,,,,,,,,,,,,,,,,,,,,,,,,,,,,,,,,,,,,,,,,,,,,,,,,,,,,,,,,,,,,,,,,,,,,,,,
,,5d1e4a3ed4b9d60001ec8f1c,2024-02-22_06h02.32.539,kallum_motion_pilot,2023.2.2,Win32,60.24096386,5d1e4a3ed4b9d60001ec8f1c,65d6bb0e977760de756971f7,65d6c6fbbcd697ef2196c113,0.0202,0.0202,0,31,31,79,1,eightseven,,,,,,,,,,,,,,,,,,,,,,,,,,,,,,,,,,,,,,,,,,,,,,,,,,,,,,,,,,,,,,,,,,,,,,,,,,,,,,,,,,,,,,,,,,,,,,,,,,,,,,,,,,,,,,,,,,,,,,,,,,,,,,,,,,,,,,,,,
,,5d1e4a3ed4b9d60001ec8f1c,2024-02-22_06h02.32.539,kallum_motion_pilot,2023.2.2,Win32,60.24096386,5d1e4a3ed4b9d60001ec8f1c,65d6bb0e977760de756971f7,65d6c6fbbcd697ef2196c113,0.0203,0.0203,0,32,32,146,1,sixfive,,,,,,,,,,,,,,,,,,,,,,,,,,,,,,,,,,,,,,,,,,,,,,,,,,,,,,,,,,,,,,,,,,,,,,,,,,,,,,,,,,,,,,,,,,,,,,,,,,,,,,,,,,,,,,,,,,,,,,,,,,,,,,,,,,,,,,,,,
,,5d1e4a3ed4b9d60001ec8f1c,2024-02-22_06h02.32.539,kallum_motion_pilot,2023.2.2,Win32,60.24096386,5d1e4a3ed4b9d60001ec8f1c,65d6bb0e977760de756971f7,65d6c6fbbcd697ef2196c113,0.0203,0.0204,0,33,33,14,1,fourtwo,,,,,,,,,,,,,,,,,,,,,,,,,,,,,,,,,,,,,,,,,,,,,,,,,,,,,,,,,,,,,,,,,,,,,,,,,,,,,,,,,,,,,,,,,,,,,,,,,,,,,,,,,,,,,,,,,,,,,,,,,,,,,,,,,,,,,,,,,
,,5d1e4a3ed4b9d60001ec8f1c,2024-02-22_06h02.32.539,kallum_motion_pilot,2023.2.2,Win32,60.24096386,5d1e4a3ed4b9d60001ec8f1c,65d6bb0e977760de756971f7,65d6c6fbbcd697ef2196c113,0.0204,0.0204,0,34,34,159,1,eightseven,,,,,,,,,,,,,,,,,,,,,,,,,,,,,,,,,,,,,,,,,,,,,,,,,,,,,,,,,,,,,,,,,,,,,,,,,,,,,,,,,,,,,,,,,,,,,,,,,,,,,,,,,,,,,,,,,,,,,,,,,,,,,,,,,,,,,,,,,
,,5d1e4a3ed4b9d60001ec8f1c,2024-02-22_06h02.32.539,kallum_motion_pilot,2023.2.2,Win32,60.24096386,5d1e4a3ed4b9d60001ec8f1c,65d6bb0e977760de756971f7,65d6c6fbbcd697ef2196c113,0.0205,0.0206,0,35,35,18,1,twoone,,,,,,,,,,,,,,,,,,,,,,,,,,,,,,,,,,,,,,,,,,,,,,,,,,,,,,,,,,,,,,,,,,,,,,,,,,,,,,,,,,,,,,,,,,,,,,,,,,,,,,,,,,,,,,,,,,,,,,,,,,,,,,,,,,,,,,,,,
,,5d1e4a3ed4b9d60001ec8f1c,2024-02-22_06h02.32.539,kallum_motion_pilot,2023.2.2,Win32,60.24096386,5d1e4a3ed4b9d60001ec8f1c,65d6bb0e977760de756971f7,65d6c6fbbcd697ef2196c113,0.0206,0.0206,0,36,36,8,1,onetwo,,,,,,,,,,,,,,,,,,,,,,,,,,,,,,,,,,,,,,,,,,,,,,,,,,,,,,,,,,,,,,,,,,,,,,,,,,,,,,,,,,,,,,,,,,,,,,,,,,,,,,,,,,,,,,,,,,,,,,,,,,,,,,,,,,,,,,,,,
,,5d1e4a3ed4b9d60001ec8f1c,2024-02-22_06h02.32.539,kallum_motion_pilot,2023.2.2,Win32,60.24096386,5d1e4a3ed4b9d60001ec8f1c,65d6bb0e977760de756971f7,65d6c6fbbcd697ef2196c113,0.0206,0.0206,0,37,37,96,1,fivesix,,,,,,,,,,,,,,,,,,,,,,,,,,,,,,,,,,,,,,,,,,,,,,,,,,,,,,,,,,,,,,,,,,,,,,,,,,,,,,,,,,,,,,,,,,,,,,,,,,,,,,,,,,,,,,,,,,,,,,,,,,,,,,,,,,,,,,,,,
,,5d1e4a3ed4b9d60001ec8f1c,2024-02-22_06h02.32.539,kallum_motion_pilot,2023.2.2,Win32,60.24096386,5d1e4a3ed4b9d60001ec8f1c,65d6bb0e977760de756971f7,65d6c6fbbcd697ef2196c113,0.0207,0.0208,0,38,38,50,1,twoone,,,,,,,,,,,,,,,,,,,,,,,,,,,,,,,,,,,,,,,,,,,,,,,,,,,,,,,,,,,,,,,,,,,,,,,,,,,,,,,,,,,,,,,,,,,,,,,,,,,,,,,,,,,,,,,,,,,,,,,,,,,,,,,,,,,,,,,,,
,,5d1e4a3ed4b9d60001ec8f1c,2024-02-22_06h02.32.539,kallum_motion_pilot,2023.2.2,Win32,60.24096386,5d1e4a3ed4b9d60001ec8f1c,65d6bb0e977760de756971f7,65d6c6fbbcd697ef2196c113,0.0208,0.0208,0,39,39,75,1,twofour,,,,,,,,,,,,,,,,,,,,,,,,,,,,,,,,,,,,,,,,,,,,,,,,,,,,,,,,,,,,,,,,,,,,,,,,,,,,,,,,,,,,,,,,,,,,,,,,,,,,,,,,,,,,,,,,,,,,,,,,,,,,,,,,,,,,,,,,,
,,5d1e4a3ed4b9d60001ec8f1c,2024-02-22_06h02.32.539,kallum_motion_pilot,2023.2.2,Win32,60.24096386,5d1e4a3ed4b9d60001ec8f1c,65d6bb0e977760de756971f7,65d6c6fbbcd697ef2196c113,0.0208,0.0208,0,40,40,69,1,threefour,,,,,,,,,,,,,,,,,,,,,,,,,,,,,,,,,,,,,,,,,,,,,,,,,,,,,,,,,,,,,,,,,,,,,,,,,,,,,,,,,,,,,,,,,,,,,,,,,,,,,,,,,,,,,,,,,,,,,,,,,,,,,,,,,,,,,,,,,
,,5d1e4a3ed4b9d60001ec8f1c,2024-02-22_06h02.32.539,kallum_motion_pilot,2023.2.2,Win32,60.24096386,5d1e4a3ed4b9d60001ec8f1c,65d6bb0e977760de756971f7,65d6c6fbbcd697ef2196c113,0.0209,0.0209,0,41,41,71,1,fourthree,,,,,,,,,,,,,,,,,,,,,,,,,,,,,,,,,,,,,,,,,,,,,,,,,,,,,,,,,,,,,,,,,,,,,,,,,,,,,,,,,,,,,,,,,,,,,,,,,,,,,,,,,,,,,,,,,,,,,,,,,,,,,,,,,,,,,,,,,
,,5d1e4a3ed4b9d60001ec8f1c,2024-02-22_06h02.32.539,kallum_motion_pilot,2023.2.2,Win32,60.24096386,5d1e4a3ed4b9d60001ec8f1c,65d6bb0e977760de756971f7,65d6c6fbbcd697ef2196c113,0.0209,0.021,0,42,42,154,1,sixfive,,,,,,,,,,,,,,,,,,,,,,,,,,,,,,,,,,,,,,,,,,,,,,,,,,,,,,,,,,,,,,,,,,,,,,,,,,,,,,,,,,,,,,,,,,,,,,,,,,,,,,,,,,,,,,,,,,,,,,,,,,,,,,,,,,,,,,,,,
,,5d1e4a3ed4b9d60001ec8f1c,2024-02-22_06h02.32.539,kallum_motion_pilot,2023.2.2,Win32,60.24096386,5d1e4a3ed4b9d60001ec8f1c,65d6bb0e977760de756971f7,65d6c6fbbcd697ef2196c113,0.0211,0.0211,0,43,43,82,1,sixfive,,,,,,,,,,,,,,,,,,,,,,,,,,,,,,,,,,,,,,,,,,,,,,,,,,,,,,,,,,,,,,,,,,,,,,,,,,,,,,,,,,,,,,,,,,,,,,,,,,,,,,,,,,,,,,,,,,,,,,,,,,,,,,,,,,,,,,,,,
,,5d1e4a3ed4b9d60001ec8f1c,2024-02-22_06h02.32.539,kallum_motion_pilot,2023.2.2,Win32,60.24096386,5d1e4a3ed4b9d60001ec8f1c,65d6bb0e977760de756971f7,65d6c6fbbcd697ef2196c113,0.0211,0.0212,0,44,44,149,1,seveneight,,,,,,,,,,,,,,,,,,,,,,,,,,,,,,,,,,,,,,,,,,,,,,,,,,,,,,,,,,,,,,,,,,,,,,,,,,,,,,,,,,,,,,,,,,,,,,,,,,,,,,,,,,,,,,,,,,,,,,,,,,,,,,,,,,,,,,,,,
,,5d1e4a3ed4b9d60001ec8f1c,2024-02-22_06h02.32.539,kallum_motion_pilot,2023.2.2,Win32,60.24096386,5d1e4a3ed4b9d60001ec8f1c,65d6bb0e977760de756971f7,65d6c6fbbcd697ef2196c113,0.0212,0.0212,0,45,45,103,1,eightseven,,,,,,,,,,,,,,,,,,,,,,,,,,,,,,,,,,,,,,,,,,,,,,,,,,,,,,,,,,,,,,,,,,,,,,,,,,,,,,,,,,,,,,,,,,,,,,,,,,,,,,,,,,,,,,,,,,,,,,,,,,,,,,,,,,,,,,,,,
,,5d1e4a3ed4b9d60001ec8f1c,2024-02-22_06h02.32.539,kallum_motion_pilot,2023.2.2,Win32,60.24096386,5d1e4a3ed4b9d60001ec8f1c,65d6bb0e977760de756971f7,65d6c6fbbcd697ef2196c113,0.0213,0.0213,0,46,46,54,1,fourtwo,,,,,,,,,,,,,,,,,,,,,,,,,,,,,,,,,,,,,,,,,,,,,,,,,,,,,,,,,,,,,,,,,,,,,,,,,,,,,,,,,,,,,,,,,,,,,,,,,,,,,,,,,,,,,,,,,,,,,,,,,,,,,,,,,,,,,,,,,
,,5d1e4a3ed4b9d60001ec8f1c,2024-02-22_06h02.32.539,kallum_motion_pilot,2023.2.2,Win32,60.24096386,5d1e4a3ed4b9d60001ec8f1c,65d6bb0e977760de756971f7,65d6c6fbbcd697ef2196c113,0.0213,0.0213,0,47,47,23,1,fourthree,,,,,,,,,,,,,,,,,,,,,,,,,,,,,,,,,,,,,,,,,,,,,,,,,,,,,,,,,,,,,,,,,,,,,,,,,,,,,,,,,,,,,,,,,,,,,,,,,,,,,,,,,,,,,,,,,,,,,,,,,,,,,,,,,,,,,,,,,
,,5d1e4a3ed4b9d60001ec8f1c,2024-02-22_06h02.32.539,kallum_motion_pilot,2023.2.2,Win32,60.24096386,5d1e4a3ed4b9d60001ec8f1c,65d6bb0e977760de756971f7,65d6c6fbbcd697ef2196c113,0.0214,0.0214,0,48,48,56,1,onetwo,,,,,,,,,,,,,,,,,,,,,,,,,,,,,,,,,,,,,,,,,,,,,,,,,,,,,,,,,,,,,,,,,,,,,,,,,,,,,,,,,,,,,,,,,,,,,,,,,,,,,,,,,,,,,,,,,,,,,,,,,,,,,,,,,,,,,,,,,
,,5d1e4a3ed4b9d60001ec8f1c,2024-02-22_06h02.32.539,kallum_motion_pilot,2023.2.2,Win32,60.24096386,5d1e4a3ed4b9d60001ec8f1c,65d6bb0e977760de756971f7,65d6c6fbbcd697ef2196c113,0.0214,0.0214,0,49,49,101,1,seveneight,,,,,,,,,,,,,,,,,,,,,,,,,,,,,,,,,,,,,,,,,,,,,,,,,,,,,,,,,,,,,,,,,,,,,,,,,,,,,,,,,,,,,,,,,,,,,,,,,,,,,,,,,,,,,,,,,,,,,,,,,,,,,,,,,,,,,,,,,
,,5d1e4a3ed4b9d60001ec8f1c,2024-02-22_06h02.32.539,kallum_motion_pilot,2023.2.2,Win32,60.24096386,5d1e4a3ed4b9d60001ec8f1c,65d6bb0e977760de756971f7,65d6c6fbbcd697ef2196c113,0.0216,0.0216,0,50,50,68,1,threeone,,,,,,,,,,,,,,,,,,,,,,,,,,,,,,,,,,,,,,,,,,,,,,,,,,,,,,,,,,,,,,,,,,,,,,,,,,,,,,,,,,,,,,,,,,,,,,,,,,,,,,,,,,,,,,,,,,,,,,,,,,,,,,,,,,,,,,,,,
,,5d1e4a3ed4b9d60001ec8f1c,2024-02-22_06h02.32.539,kallum_motion_pilot,2023.2.2,Win32,60.24096386,5d1e4a3ed4b9d60001ec8f1c,65d6bb0e977760de756971f7,65d6c6fbbcd697ef2196c113,0.0216,0.0216,0,51,51,114,1,sixfive,,,,,,,,,,,,,,,,,,,,,,,,,,,,,,,,,,,,,,,,,,,,,,,,,,,,,,,,,,,,,,,,,,,,,,,,,,,,,,,,,,,,,,,,,,,,,,,,,,,,,,,,,,,,,,,,,,,,,,,,,,,,,,,,,,,,,,,,,
,,5d1e4a3ed4b9d60001ec8f1c,2024-02-22_06h02.32.539,kallum_motion_pilot,2023.2.2,Win32,60.24096386,5d1e4a3ed4b9d60001ec8f1c,65d6bb0e977760de756971f7,65d6c6fbbcd697ef2196c113,0.0217,0.0217,0,52,52,41,1,onethree,,,,,,,,,,,,,,,,,,,,,,,,,,,,,,,,,,,,,,,,,,,,,,,,,,,,,,,,,,,,,,,,,,,,,,,,,,,,,,,,,,,,,,,,,,,,,,,,,,,,,,,,,,,,,,,,,,,,,,,,,,,,,,,,,,,,,,,,,
,,5d1e4a3ed4b9d60001ec8f1c,2024-02-22_06h02.32.539,kallum_motion_pilot,2023.2.2,Win32,60.24096386,5d1e4a3ed4b9d60001ec8f1c,65d6bb0e977760de756971f7,65d6c6fbbcd697ef2196c113,0.0217,0.0217,0,53,53,155,1,sixeight,,,,,,,,,,,,,,,,,,,,,,,,,,,,,,,,,,,,,,,,,,,,,,,,,,,,,,,,,,,,,,,,,,,,,,,,,,,,,,,,,,,,,,,,,,,,,,,,,,,,,,,,,,,,,,,,,,,,,,,,,,,,,,,,,,,,,,,,,
,,5d1e4a3ed4b9d60001ec8f1c,2024-02-22_06h02.32.539,kallum_motion_pilot,2023.2.2,Win32,60.24096386,5d1e4a3ed4b9d60001ec8f1c,65d6bb0e977760de756971f7,65d6c6fbbcd697ef2196c113,0.0218,0.0218,0,54,54,67,1,twofour,,,,,,,,,,,,,,,,,,,,,,,,,,,,,,,,,,,,,,,,,,,,,,,,,,,,,,,,,,,,,,,,,,,,,,,,,,,,,,,,,,,,,,,,,,,,,,,,,,,,,,,,,,,,,,,,,,,,,,,,,,,,,,,,,,,,,,,,,
,,5d1e4a3ed4b9d60001ec8f1c,2024-02-22_06h02.32.539,kallum_motion_pilot,2023.2.2,Win32,60.24096386,5d1e4a3ed4b9d60001ec8f1c,65d6bb0e977760de756971f7,65d6c6fbbcd697ef2196c113,0.0219,0.0219,0,55,55,22,1,fourtwo,,,,,,,,,,,,,,,,,,,,,,,,,,,,,,,,,,,,,,,,,,,,,,,,,,,,,,,,,,,,,,,,,,,,,,,,,,,,,,,,,,,,,,,,,,,,,,,,,,,,,,,,,,,,,,,,,,,,,,,,,,,,,,,,,,,,,,,,,
,,5d1e4a3ed4b9d60001ec8f1c,2024-02-22_06h02.32.539,kallum_motion_pilot,2023.2.2,Win32,60.24096386,5d1e4a3ed4b9d60001ec8f1c,65d6bb0e977760de756971f7,65d6c6fbbcd697ef2196c113,0.0219,0.022,0,56,56,53,1,threefour,,,,,,,,,,,,,,,,,,,,,,,,,,,,,,,,,,,,,,,,,,,,,,,,,,,,,,,,,,,,,,,,,,,,,,,,,,,,,,,,,,,,,,,,,,,,,,,,,,,,,,,,,,,,,,,,,,,,,,,,,,,,,,,,,,,,,,,,,
,,5d1e4a3ed4b9d60001ec8f1c,2024-02-22_06h02.32.539,kallum_motion_pilot,2023.2.2,Win32,60.24096386,5d1e4a3ed4b9d60001ec8f1c,65d6bb0e977760de756971f7,65d6c6fbbcd697ef2196c113,0.022,0.022,0,57,57,30,1,fourtwo,,,,,,,,,,,,,,,,,,,,,,,,,,,,,,,,,,,,,,,,,,,,,,,,,,,,,,,,,,,,,,,,,,,,,,,,,,,,,,,,,,,,,,,,,,,,,,,,,,,,,,,,,,,,,,,,,,,,,,,,,,,,,,,,,,,,,,,,,
,,5d1e4a3ed4b9d60001ec8f1c,2024-02-22_06h02.32.539,kallum_motion_pilot,2023.2.2,Win32,60.24096386,5d1e4a3ed4b9d60001ec8f1c,65d6bb0e977760de756971f7,65d6c6fbbcd697ef2196c113,0.0221,0.0221,0,58,58,74,1,twoone,,,,,,,,,,,,,,,,,,,,,,,,,,,,,,,,,,,,,,,,,,,,,,,,,,,,,,,,,,,,,,,,,,,,,,,,,,,,,,,,,,,,,,,,,,,,,,,,,,,,,,,,,,,,,,,,,,,,,,,,,,,,,,,,,,,,,,,,,
,,5d1e4a3ed4b9d60001ec8f1c,2024-02-22_06h02.32.539,kallum_motion_pilot,2023.2.2,Win32,60.24096386,5d1e4a3ed4b9d60001ec8f1c,65d6bb0e977760de756971f7,65d6c6fbbcd697ef2196c113,0.0222,0.0222,0,59,59,13,1,threefour,,,,,,,,,,,,,,,,,,,,,,,,,,,,,,,,,,,,,,,,,,,,,,,,,,,,,,,,,,,,,,,,,,,,,,,,,,,,,,,,,,,,,,,,,,,,,,,,,,,,,,,,,,,,,,,,,,,,,,,,,,,,,,,,,,,,,,,,,
,,5d1e4a3ed4b9d60001ec8f1c,2024-02-22_06h02.32.539,kallum_motion_pilot,2023.2.2,Win32,60.24096386,5d1e4a3ed4b9d60001ec8f1c,65d6bb0e977760de756971f7,65d6c6fbbcd697ef2196c113,0.0222,0.0222,0,60,60,9,1,onethree,,,,,,,,,,,,,,,,,,,,,,,,,,,,,,,,,,,,,,,,,,,,,,,,,,,,,,,,,,,,,,,,,,,,,,,,,,,,,,,,,,,,,,,,,,,,,,,,,,,,,,,,,,,,,,,,,,,,,,,,,,,,,,,,,,,,,,,,,
,,5d1e4a3ed4b9d60001ec8f1c,2024-02-22_06h02.32.539,kallum_motion_pilot,2023.2.2,Win32,60.24096386,5d1e4a3ed4b9d60001ec8f1c,65d6bb0e977760de756971f7,65d6c6fbbcd697ef2196c113,0.0223,0.0223,0,61,61,28,1,threeone,,,,,,,,,,,,,,,,,,,,,,,,,,,,,,,,,,,,,,,,,,,,,,,,,,,,,,,,,,,,,,,,,,,,,,,,,,,,,,,,,,,,,,,,,,,,,,,,,,,,,,,,,,,,,,,,,,,,,,,,,,,,,,,,,,,,,,,,,
,,5d1e4a3ed4b9d60001ec8f1c,2024-02-22_06h02.32.539,kallum_motion_pilot,2023.2.2,Win32,60.24096386,5d1e4a3ed4b9d60001ec8f1c,65d6bb0e977760de756971f7,65d6c6fbbcd697ef2196c113,0.0223,0.0224,0,62,62,36,1,threeone,,,,,,,,,,,,,,,,,,,,,,,,,,,,,,,,,,,,,,,,,,,,,,,,,,,,,,,,,,,,,,,,,,,,,,,,,,,,,,,,,,,,,,,,,,,,,,,,,,,,,,,,,,,,,,,,,,,,,,,,,,,,,,,,,,,,,,,,,
,,5d1e4a3ed4b9d60001ec8f1c,2024-02-22_06h02.32.539,kallum_motion_pilot,2023.2.2,Win32,60.24096386,5d1e4a3ed4b9d60001ec8f1c,65d6bb0e977760de756971f7,65d6c6fbbcd697ef2196c113,0.0225,0.0225,0,63,63,99,1,sixeight,,,,,,,,,,,,,,,,,,,,,,,,,,,,,,,,,,,,,,,,,,,,,,,,,,,,,,,,,,,,,,,,,,,,,,,,,,,,,,,,,,,,,,,,,,,,,,,,,,,,,,,,,,,,,,,,,,,,,,,,,,,,,,,,,,,,,,,,,
,,5d1e4a3ed4b9d60001ec8f1c,2024-02-22_06h02.32.539,kallum_motion_pilot,2023.2.2,Win32,60.24096386,5d1e4a3ed4b9d60001ec8f1c,65d6bb0e977760de756971f7,65d6c6fbbcd697ef2196c113,0.0225,0.0225,0,64,64,34,1,twoone,,,,,,,,,,,,,,,,,,,,,,,,,,,,,,,,,,,,,,,,,,,,,,,,,,,,,,,,,,,,,,,,,,,,,,,,,,,,,,,,,,,,,,,,,,,,,,,,,,,,,,,,,,,,,,,,,,,,,,,,,,,,,,,,,,,,,,,,,
,,5d1e4a3ed4b9d60001ec8f1c,2024-02-22_06h02.32.539,kallum_motion_pilot,2023.2.2,Win32,60.24096386,5d1e4a3ed4b9d60001ec8f1c,65d6bb0e977760de756971f7,65d6c6fbbcd697ef2196c113,0.0226,0.0227,0,65,65,61,1,threefour,,,,,,,,,,,,,,,,,,,,,,,,,,,,,,,,,,,,,,,,,,,,,,,,,,,,,,,,,,,,,,,,,,,,,,,,,,,,,,,,,,,,,,,,,,,,,,,,,,,,,,,,,,,,,,,,,,,,,,,,,,,,,,,,,,,,,,,,,
,,5d1e4a3ed4b9d60001ec8f1c,2024-02-22_06h02.32.539,kallum_motion_pilot,2023.2.2,Win32,60.24096386,5d1e4a3ed4b9d60001ec8f1c,65d6bb0e977760de756971f7,65d6c6fbbcd697ef2196c113,0.0227,0.0227,0,66,66,126,1,eightsix,,,,,,,,,,,,,,,,,,,,,,,,,,,,,,,,,,,,,,,,,,,,,,,,,,,,,,,,,,,,,,,,,,,,,,,,,,,,,,,,,,,,,,,,,,,,,,,,,,,,,,,,,,,,,,,,,,,,,,,,,,,,,,,,,,,,,,,,,
,,5d1e4a3ed4b9d60001ec8f1c,2024-02-22_06h02.32.539,kallum_motion_pilot,2023.2.2,Win32,60.24096386,5d1e4a3ed4b9d60001ec8f1c,65d6bb0e977760de756971f7,65d6c6fbbcd697ef2196c113,0.0228,0.0228,0,67,67,116,1,sevenfive,,,,,,,,,,,,,,,,,,,,,,,,,,,,,,,,,,,,,,,,,,,,,,,,,,,,,,,,,,,,,,,,,,,,,,,,,,,,,,,,,,,,,,,,,,,,,,,,,,,,,,,,,,,,,,,,,,,,,,,,,,,,,,,,,,,,,,,,,
,,5d1e4a3ed4b9d60001ec8f1c,2024-02-22_06h02.32.539,kallum_motion_pilot,2023.2.2,Win32,60.24096386,5d1e4a3ed4b9d60001ec8f1c,65d6bb0e977760de756971f7,65d6c6fbbcd697ef2196c113,0.0229,0.0229,0,68,68,81,1,fiveseven,,,,,,,,,,,,,,,,,,,,,,,,,,,,,,,,,,,,,,,,,,,,,,,,,,,,,,,,,,,,,,,,,,,,,,,,,,,,,,,,,,,,,,,,,,,,,,,,,,,,,,,,,,,,,,,,,,,,,,,,,,,,,,,,,,,,,,,,,
,,5d1e4a3ed4b9d60001ec8f1c,2024-02-22_06h02.32.539,kallum_motion_pilot,2023.2.2,Win32,60.24096386,5d1e4a3ed4b9d60001ec8f1c,65d6bb0e977760de756971f7,65d6c6fbbcd697ef2196c113,0.023,0.023,0,69,69,7,1,fourthree,,,,,,,,,,,,,,,,,,,,,,,,,,,,,,,,,,,,,,,,,,,,,,,,,,,,,,,,,,,,,,,,,,,,,,,,,,,,,,,,,,,,,,,,,,,,,,,,,,,,,,,,,,,,,,,,,,,,,,,,,,,,,,,,,,,,,,,,,
,,5d1e4a3ed4b9d60001ec8f1c,2024-02-22_06h02.32.539,kallum_motion_pilot,2023.2.2,Win32,60.24096386,5d1e4a3ed4b9d60001ec8f1c,65d6bb0e977760de756971f7,65d6c6fbbcd697ef2196c113,0.023,0.023,0,70,70,110,1,eightsix,,,,,,,,,,,,,,,,,,,,,,,,,,,,,,,,,,,,,,,,,,,,,,,,,,,,,,,,,,,,,,,,,,,,,,,,,,,,,,,,,,,,,,,,,,,,,,,,,,,,,,,,,,,,,,,,,,,,,,,,,,,,,,,,,,,,,,,,,
,,5d1e4a3ed4b9d60001ec8f1c,2024-02-22_06h02.32.539,kallum_motion_pilot,2023.2.2,Win32,60.24096386,5d1e4a3ed4b9d60001ec8f1c,65d6bb0e977760de756971f7,65d6c6fbbcd697ef2196c113,0.0231,0.0231,0,71,71,130,1,sixfive,,,,,,,,,,,,,,,,,,,,,,,,,,,,,,,,,,,,,,,,,,,,,,,,,,,,,,,,,,,,,,,,,,,,,,,,,,,,,,,,,,,,,,,,,,,,,,,,,,,,,,,,,,,,,,,,,,,,,,,,,,,,,,,,,,,,,,,,,
,,5d1e4a3ed4b9d60001ec8f1c,2024-02-22_06h02.32.539,kallum_motion_pilot,2023.2.2,Win32,60.24096386,5d1e4a3ed4b9d60001ec8f1c,65d6bb0e977760de756971f7,65d6c6fbbcd697ef2196c113,0.0231,0.0232,0,72,72,24,1,onetwo,,,,,,,,,,,,,,,,,,,,,,,,,,,,,,,,,,,,,,,,,,,,,,,,,,,,,,,,,,,,,,,,,,,,,,,,,,,,,,,,,,,,,,,,,,,,,,,,,,,,,,,,,,,,,,,,,,,,,,,,,,,,,,,,,,,,,,,,,
,,5d1e4a3ed4b9d60001ec8f1c,2024-02-22_06h02.32.539,kallum_motion_pilot,2023.2.2,Win32,60.24096386,5d1e4a3ed4b9d60001ec8f1c,65d6bb0e977760de756971f7,65d6c6fbbcd697ef2196c113,0.0232,0.0232,0,73,73,120,1,fivesix,,,,,,,,,,,,,,,,,,,,,,,,,,,,,,,,,,,,,,,,,,,,,,,,,,,,,,,,,,,,,,,,,,,,,,,,,,,,,,,,,,,,,,,,,,,,,,,,,,,,,,,,,,,,,,,,,,,,,,,,,,,,,,,,,,,,,,,,,
,,5d1e4a3ed4b9d60001ec8f1c,2024-02-22_06h02.32.539,kallum_motion_pilot,2023.2.2,Win32,60.24096386,5d1e4a3ed4b9d60001ec8f1c,65d6bb0e977760de756971f7,65d6c6fbbcd697ef2196c113,0.0233,0.0233,0,74,74,60,1,threeone,,,,,,,,,,,,,,,,,,,,,,,,,,,,,,,,,,,,,,,,,,,,,,,,,,,,,,,,,,,,,,,,,,,,,,,,,,,,,,,,,,,,,,,,,,,,,,,,,,,,,,,,,,,,,,,,,,,,,,,,,,,,,,,,,,,,,,,,,
,,5d1e4a3ed4b9d60001ec8f1c,2024-02-22_06h02.32.539,kallum_motion_pilot,2023.2.2,Win32,60.24096386,5d1e4a3ed4b9d60001ec8f1c,65d6bb0e977760de756971f7,65d6c6fbbcd697ef2196c113,0.0234,0.0234,0,75,75,37,1,threefour,,,,,,,,,,,,,,,,,,,,,,,,,,,,,,,,,,,,,,,,,,,,,,,,,,,,,,,,,,,,,,,,,,,,,,,,,,,,,,,,,,,,,,,,,,,,,,,,,,,,,,,,,,,,,,,,,,,,,,,,,,,,,,,,,,,,,,,,,
,,5d1e4a3ed4b9d60001ec8f1c,2024-02-22_06h02.32.539,kallum_motion_pilot,2023.2.2,Win32,60.24096386,5d1e4a3ed4b9d60001ec8f1c,65d6bb0e977760de756971f7,65d6c6fbbcd697ef2196c113,0.0235,0.0235,0,76,76,77,1,threefour,,,,,,,,,,,,,,,,,,,,,,,,,,,,,,,,,,,,,,,,,,,,,,,,,,,,,,,,,,,,,,,,,,,,,,,,,,,,,,,,,,,,,,,,,,,,,,,,,,,,,,,,,,,,,,,,,,,,,,,,,,,,,,,,,,,,,,,,,
,,5d1e4a3ed4b9d60001ec8f1c,2024-02-22_06h02.32.539,kallum_motion_pilot,2023.2.2,Win32,60.24096386,5d1e4a3ed4b9d60001ec8f1c,65d6bb0e977760de756971f7,65d6c6fbbcd697ef2196c113,0.0235,0.0236,0,77,77,38,1,fourtwo,,,,,,,,,,,,,,,,,,,,,,,,,,,,,,,,,,,,,,,,,,,,,,,,,,,,,,,,,,,,,,,,,,,,,,,,,,,,,,,,,,,,,,,,,,,,,,,,,,,,,,,,,,,,,,,,,,,,,,,,,,,,,,,,,,,,,,,,,
,,5d1e4a3ed4b9d60001ec8f1c,2024-02-22_06h02.32.539,kallum_motion_pilot,2023.2.2,Win32,60.24096386,5d1e4a3ed4b9d60001ec8f1c,65d6bb0e977760de756971f7,65d6c6fbbcd697ef2196c113,0.0236,0.0236,0,78,78,33,1,onethree,,,,,,,,,,,,,,,,,,,,,,,,,,,,,,,,,,,,,,,,,,,,,,,,,,,,,,,,,,,,,,,,,,,,,,,,,,,,,,,,,,,,,,,,,,,,,,,,,,,,,,,,,,,,,,,,,,,,,,,,,,,,,,,,,,,,,,,,,
,,5d1e4a3ed4b9d60001ec8f1c,2024-02-22_06h02.32.539,kallum_motion_pilot,2023.2.2,Win32,60.24096386,5d1e4a3ed4b9d60001ec8f1c,65d6bb0e977760de756971f7,65d6c6fbbcd697ef2196c113,0.0236,0.0237,0,79,79,40,1,onetwo,,,,,,,,,,,,,,,,,,,,,,,,,,,,,,,,,,,,,,,,,,,,,,,,,,,,,,,,,,,,,,,,,,,,,,,,,,,,,,,,,,,,,,,,,,,,,,,,,,,,,,,,,,,,,,,,,,,,,,,,,,,,,,,,,,,,,,,,,
,,5d1e4a3ed4b9d60001ec8f1c,2024-02-22_06h02.32.539,kallum_motion_pilot,2023.2.2,Win32,60.24096386,5d1e4a3ed4b9d60001ec8f1c,65d6bb0e977760de756971f7,65d6c6fbbcd697ef2196c113,0.0243,0.0243,0,80,80,132,1,sevenfive,,,,,,,,,,,,,,,,,,,,,,,,,,,,,,,,,,,,,,,,,,,,,,,,,,,,,,,,,,,,,,,,,,,,,,,,,,,,,,,,,,,,,,,,,,,,,,,,,,,,,,,,,,,,,,,,,,,,,,,,,,,,,,,,,,,,,,,,,
,,5d1e4a3ed4b9d60001ec8f1c,2024-02-22_06h02.32.539,kallum_motion_pilot,2023.2.2,Win32,60.24096386,5d1e4a3ed4b9d60001ec8f1c,65d6bb0e977760de756971f7,65d6c6fbbcd697ef2196c113,0.0244,0.0244,0,81,81,21,1,threefour,,,,,,,,,,,,,,,,,,,,,,,,,,,,,,,,,,,,,,,,,,,,,,,,,,,,,,,,,,,,,,,,,,,,,,,,,,,,,,,,,,,,,,,,,,,,,,,,,,,,,,,,,,,,,,,,,,,,,,,,,,,,,,,,,,,,,,,,,
,,5d1e4a3ed4b9d60001ec8f1c,2024-02-22_06h02.32.539,kallum_motion_pilot,2023.2.2,Win32,60.24096386,5d1e4a3ed4b9d60001ec8f1c,65d6bb0e977760de756971f7,65d6c6fbbcd697ef2196c113,0.0244,0.0245,0,82,82,76,1,threeone,,,,,,,,,,,,,,,,,,,,,,,,,,,,,,,,,,,,,,,,,,,,,,,,,,,,,,,,,,,,,,,,,,,,,,,,,,,,,,,,,,,,,,,,,,,,,,,,,,,,,,,,,,,,,,,,,,,,,,,,,,,,,,,,,,,,,,,,,
,,5d1e4a3ed4b9d60001ec8f1c,2024-02-22_06h02.32.539,kallum_motion_pilot,2023.2.2,Win32,60.24096386,5d1e4a3ed4b9d60001ec8f1c,65d6bb0e977760de756971f7,65d6c6fbbcd697ef2196c113,0.0245,0.0245,0,83,83,156,1,sevenfive,,,,,,,,,,,,,,,,,,,,,,,,,,,,,,,,,,,,,,,,,,,,,,,,,,,,,,,,,,,,,,,,,,,,,,,,,,,,,,,,,,,,,,,,,,,,,,,,,,,,,,,,,,,,,,,,,,,,,,,,,,,,,,,,,,,,,,,,,
,,5d1e4a3ed4b9d60001ec8f1c,2024-02-22_06h02.32.539,kallum_motion_pilot,2023.2.2,Win32,60.24096386,5d1e4a3ed4b9d60001ec8f1c,65d6bb0e977760de756971f7,65d6c6fbbcd697ef2196c113,0.0246,0.0247,0,84,84,153,1,fiveseven,,,,,,,,,,,,,,,,,,,,,,,,,,,,,,,,,,,,,,,,,,,,,,,,,,,,,,,,,,,,,,,,,,,,,,,,,,,,,,,,,,,,,,,,,,,,,,,,,,,,,,,,,,,,,,,,,,,,,,,,,,,,,,,,,,,,,,,,,
,,5d1e4a3ed4b9d60001ec8f1c,2024-02-22_06h02.32.539,kallum_motion_pilot,2023.2.2,Win32,60.24096386,5d1e4a3ed4b9d60001ec8f1c,65d6bb0e977760de756971f7,65d6c6fbbcd697ef2196c113,0.0247,0.0247,0,85,85,139,1,sixeight,,,,,,,,,,,,,,,,,,,,,,,,,,,,,,,,,,,,,,,,,,,,,,,,,,,,,,,,,,,,,,,,,,,,,,,,,,,,,,,,,,,,,,,,,,,,,,,,,,,,,,,,,,,,,,,,,,,,,,,,,,,,,,,,,,,,,,,,,
,,5d1e4a3ed4b9d60001ec8f1c,2024-02-22_06h02.32.539,kallum_motion_pilot,2023.2.2,Win32,60.24096386,5d1e4a3ed4b9d60001ec8f1c,65d6bb0e977760de756971f7,65d6c6fbbcd697ef2196c113,0.0248,0.0248,0,86,86,73,1,onethree,,,,,,,,,,,,,,,,,,,,,,,,,,,,,,,,,,,,,,,,,,,,,,,,,,,,,,,,,,,,,,,,,,,,,,,,,,,,,,,,,,,,,,,,,,,,,,,,,,,,,,,,,,,,,,,,,,,,,,,,,,,,,,,,,,,,,,,,,
,,5d1e4a3ed4b9d60001ec8f1c,2024-02-22_06h02.32.539,kallum_motion_pilot,2023.2.2,Win32,60.24096386,5d1e4a3ed4b9d60001ec8f1c,65d6bb0e977760de756971f7,65d6c6fbbcd697ef2196c113,0.0248,0.0249,0,87,87,144,1,fivesix,,,,,,,,,,,,,,,,,,,,,,,,,,,,,,,,,,,,,,,,,,,,,,,,,,,,,,,,,,,,,,,,,,,,,,,,,,,,,,,,,,,,,,,,,,,,,,,,,,,,,,,,,,,,,,,,,,,,,,,,,,,,,,,,,,,,,,,,,
,,5d1e4a3ed4b9d60001ec8f1c,2024-02-22_06h02.32.539,kallum_motion_pilot,2023.2.2,Win32,60.24096386,5d1e4a3ed4b9d60001ec8f1c,65d6bb0e977760de756971f7,65d6c6fbbcd697ef2196c113,0.0249,0.025,0,88,88,3,1,twofour,,,,,,,,,,,,,,,,,,,,,,,,,,,,,,,,,,,,,,,,,,,,,,,,,,,,,,,,,,,,,,,,,,,,,,,,,,,,,,,,,,,,,,,,,,,,,,,,,,,,,,,,,,,,,,,,,,,,,,,,,,,,,,,,,,,,,,,,,
,,5d1e4a3ed4b9d60001ec8f1c,2024-02-22_06h02.32.539,kallum_motion_pilot,2023.2.2,Win32,60.24096386,5d1e4a3ed4b9d60001ec8f1c,65d6bb0e977760de756971f7,65d6c6fbbcd697ef2196c113,0.025,0.025,0,89,89,83,1,sixeight,,,,,,,,,,,,,,,,,,,,,,,,,,,,,,,,,,,,,,,,,,,,,,,,,,,,,,,,,,,,,,,,,,,,,,,,,,,,,,,,,,,,,,,,,,,,,,,,,,,,,,,,,,,,,,,,,,,,,,,,,,,,,,,,,,,,,,,,,
,,5d1e4a3ed4b9d60001ec8f1c,2024-02-22_06h02.32.539,kallum_motion_pilot,2023.2.2,Win32,60.24096386,5d1e4a3ed4b9d60001ec8f1c,65d6bb0e977760de756971f7,65d6c6fbbcd697ef2196c113,0.0251,0.0251,0,90,90,108,1,sevenfive,,,,,,,,,,,,,,,,,,,,,,,,,,,,,,,,,,,,,,,,,,,,,,,,,,,,,,,,,,,,,,,,,,,,,,,,,,,,,,,,,,,,,,,,,,,,,,,,,,,,,,,,,,,,,,,,,,,,,,,,,,,,,,,,,,,,,,,,,
,,5d1e4a3ed4b9d60001ec8f1c,2024-02-22_06h02.32.539,kallum_motion_pilot,2023.2.2,Win32,60.24096386,5d1e4a3ed4b9d60001ec8f1c,65d6bb0e977760de756971f7,65d6c6fbbcd697ef2196c113,0.0252,0.0252,0,91,91,93,1,seveneight,,,,,,,,,,,,,,,,,,,,,,,,,,,,,,,,,,,,,,,,,,,,,,,,,,,,,,,,,,,,,,,,,,,,,,,,,,,,,,,,,,,,,,,,,,,,,,,,,,,,,,,,,,,,,,,,,,,,,,,,,,,,,,,,,,,,,,,,,
,,5d1e4a3ed4b9d60001ec8f1c,2024-02-22_06h02.32.539,kallum_motion_pilot,2023.2.2,Win32,60.24096386,5d1e4a3ed4b9d60001ec8f1c,65d6bb0e977760de756971f7,65d6c6fbbcd697ef2196c113,0.0253,0.0253,0,92,92,151,1,eightseven,,,,,,,,,,,,,,,,,,,,,,,,,,,,,,,,,,,,,,,,,,,,,,,,,,,,,,,,,,,,,,,,,,,,,,,,,,,,,,,,,,,,,,,,,,,,,,,,,,,,,,,,,,,,,,,,,,,,,,,,,,,,,,,,,,,,,,,,,
,,5d1e4a3ed4b9d60001ec8f1c,2024-02-22_06h02.32.539,kallum_motion_pilot,2023.2.2,Win32,60.24096386,5d1e4a3ed4b9d60001ec8f1c,65d6bb0e977760de756971f7,65d6c6fbbcd697ef2196c113,0.0254,0.0254,0,93,93,95,1,eightseven,,,,,,,,,,,,,,,,,,,,,,,,,,,,,,,,,,,,,,,,,,,,,,,,,,,,,,,,,,,,,,,,,,,,,,,,,,,,,,,,,,,,,,,,,,,,,,,,,,,,,,,,,,,,,,,,,,,,,,,,,,,,,,,,,,,,,,,,,
,,5d1e4a3ed4b9d60001ec8f1c,2024-02-22_06h02.32.539,kallum_motion_pilot,2023.2.2,Win32,60.24096386,5d1e4a3ed4b9d60001ec8f1c,65d6bb0e977760de756971f7,65d6c6fbbcd697ef2196c113,0.0254,0.0255,0,94,94,17,1,onethree,,,,,,,,,,,,,,,,,,,,,,,,,,,,,,,,,,,,,,,,,,,,,,,,,,,,,,,,,,,,,,,,,,,,,,,,,,,,,,,,,,,,,,,,,,,,,,,,,,,,,,,,,,,,,,,,,,,,,,,,,,,,,,,,,,,,,,,,,
,,5d1e4a3ed4b9d60001ec8f1c,2024-02-22_06h02.32.539,kallum_motion_pilot,2023.2.2,Win32,60.24096386,5d1e4a3ed4b9d60001ec8f1c,65d6bb0e977760de756971f7,65d6c6fbbcd697ef2196c113,0.0255,0.0255,0,95,95,137,1,fiveseven,,,,,,,,,,,,,,,,,,,,,,,,,,,,,,,,,,,,,,,,,,,,,,,,,,,,,,,,,,,,,,,,,,,,,,,,,,,,,,,,,,,,,,,,,,,,,,,,,,,,,,,,,,,,,,,,,,,,,,,,,,,,,,,,,,,,,,,,,
,,5d1e4a3ed4b9d60001ec8f1c,2024-02-22_06h02.32.539,kallum_motion_pilot,2023.2.2,Win32,60.24096386,5d1e4a3ed4b9d60001ec8f1c,65d6bb0e977760de756971f7,65d6c6fbbcd697ef2196c113,0.0256,0.0256,0,96,96,12,1,threeone,,,,,,,,,,,,,,,,,,,,,,,,,,,,,,,,,,,,,,,,,,,,,,,,,,,,,,,,,,,,,,,,,,,,,,,,,,,,,,,,,,,,,,,,,,,,,,,,,,,,,,,,,,,,,,,,,,,,,,,,,,,,,,,,,,,,,,,,,
,,5d1e4a3ed4b9d60001ec8f1c,2024-02-22_06h02.32.539,kallum_motion_pilot,2023.2.2,Win32,60.24096386,5d1e4a3ed4b9d60001ec8f1c,65d6bb0e977760de756971f7,65d6c6fbbcd697ef2196c113,0.0258,0.0258,0,97,97,29,1,threefour,,,,,,,,,,,,,,,,,,,,,,,,,,,,,,,,,,,,,,,,,,,,,,,,,,,,,,,,,,,,,,,,,,,,,,,,,,,,,,,,,,,,,,,,,,,,,,,,,,,,,,,,,,,,,,,,,,,,,,,,,,,,,,,,,,,,,,,,,
,,5d1e4a3ed4b9d60001ec8f1c,2024-02-22_06h02.32.539,kallum_motion_pilot,2023.2.2,Win32,60.24096386,5d1e4a3ed4b9d60001ec8f1c,65d6bb0e977760de756971f7,65d6c6fbbcd697ef2196c113,0.0259,0.026,0,98,98,16,1,onetwo,,,,,,,,,,,,,,,,,,,,,,,,,,,,,,,,,,,,,,,,,,,,,,,,,,,,,,,,,,,,,,,,,,,,,,,,,,,,,,,,,,,,,,,,,,,,,,,,,,,,,,,,,,,,,,,,,,,,,,,,,,,,,,,,,,,,,,,,,
,,5d1e4a3ed4b9d60001ec8f1c,2024-02-22_06h02.32.539,kallum_motion_pilot,2023.2.2,Win32,60.24096386,5d1e4a3ed4b9d60001ec8f1c,65d6bb0e977760de756971f7,65d6c6fbbcd697ef2196c113,0.0261,0.0261,0,99,99,140,1,sevenfive,,,,,,,,,,,,,,,,,,,,,,,,,,,,,,,,,,,,,,,,,,,,,,,,,,,,,,,,,,,,,,,,,,,,,,,,,,,,,,,,,,,,,,,,,,,,,,,,,,,,,,,,,,,,,,,,,,,,,,,,,,,,,,,,,,,,,,,,,
,,5d1e4a3ed4b9d60001ec8f1c,2024-02-22_06h02.32.539,kallum_motion_pilot,2023.2.2,Win32,60.24096386,5d1e4a3ed4b9d60001ec8f1c,65d6bb0e977760de756971f7,65d6c6fbbcd697ef2196c113,0.0262,0.0263,0,100,100,118,1,eightsix,,,,,,,,,,,,,,,,,,,,,,,,,,,,,,,,,,,,,,,,,,,,,,,,,,,,,,,,,,,,,,,,,,,,,,,,,,,,,,,,,,,,,,,,,,,,,,,,,,,,,,,,,,,,,,,,,,,,,,,,,,,,,,,,,,,,,,,,,
,,5d1e4a3ed4b9d60001ec8f1c,2024-02-22_06h02.32.539,kallum_motion_pilot,2023.2.2,Win32,60.24096386,5d1e4a3ed4b9d60001ec8f1c,65d6bb0e977760de756971f7,65d6c6fbbcd697ef2196c113,0.0265,0.0265,0,101,101,66,1,twoone,,,,,,,,,,,,,,,,,,,,,,,,,,,,,,,,,,,,,,,,,,,,,,,,,,,,,,,,,,,,,,,,,,,,,,,,,,,,,,,,,,,,,,,,,,,,,,,,,,,,,,,,,,,,,,,,,,,,,,,,,,,,,,,,,,,,,,,,,
,,5d1e4a3ed4b9d60001ec8f1c,2024-02-22_06h02.32.539,kallum_motion_pilot,2023.2.2,Win32,60.24096386,5d1e4a3ed4b9d60001ec8f1c,65d6bb0e977760de756971f7,65d6c6fbbcd697ef2196c113,0.0268,0.0268,0,102,102,131,1,sixeight,,,,,,,,,,,,,,,,,,,,,,,,,,,,,,,,,,,,,,,,,,,,,,,,,,,,,,,,,,,,,,,,,,,,,,,,,,,,,,,,,,,,,,,,,,,,,,,,,,,,,,,,,,,,,,,,,,,,,,,,,,,,,,,,,,,,,,,,,
,,5d1e4a3ed4b9d60001ec8f1c,2024-02-22_06h02.32.539,kallum_motion_pilot,2023.2.2,Win32,60.24096386,5d1e4a3ed4b9d60001ec8f1c,65d6bb0e977760de756971f7,65d6c6fbbcd697ef2196c113,0.027,0.027,0,103,103,64,1,onetwo,,,,,,,,,,,,,,,,,,,,,,,,,,,,,,,,,,,,,,,,,,,,,,,,,,,,,,,,,,,,,,,,,,,,,,,,,,,,,,,,,,,,,,,,,,,,,,,,,,,,,,,,,,,,,,,,,,,,,,,,,,,,,,,,,,,,,,,,,
,,5d1e4a3ed4b9d60001ec8f1c,2024-02-22_06h02.32.539,kallum_motion_pilot,2023.2.2,Win32,60.24096386,5d1e4a3ed4b9d60001ec8f1c,65d6bb0e977760de756971f7,65d6c6fbbcd697ef2196c113,0.0271,0.0271,0,104,104,4,1,threeone,,,,,,,,,,,,,,,,,,,,,,,,,,,,,,,,,,,,,,,,,,,,,,,,,,,,,,,,,,,,,,,,,,,,,,,,,,,,,,,,,,,,,,,,,,,,,,,,,,,,,,,,,,,,,,,,,,,,,,,,,,,,,,,,,,,,,,,,,
,,5d1e4a3ed4b9d60001ec8f1c,2024-02-22_06h02.32.539,kallum_motion_pilot,2023.2.2,Win32,60.24096386,5d1e4a3ed4b9d60001ec8f1c,65d6bb0e977760de756971f7,65d6c6fbbcd697ef2196c113,0.0271,0.0272,0,105,105,127,1,eightseven,,,,,,,,,,,,,,,,,,,,,,,,,,,,,,,,,,,,,,,,,,,,,,,,,,,,,,,,,,,,,,,,,,,,,,,,,,,,,,,,,,,,,,,,,,,,,,,,,,,,,,,,,,,,,,,,,,,,,,,,,,,,,,,,,,,,,,,,,
,,5d1e4a3ed4b9d60001ec8f1c,2024-02-22_06h02.32.539,kallum_motion_pilot,2023.2.2,Win32,60.24096386,5d1e4a3ed4b9d60001ec8f1c,65d6bb0e977760de756971f7,65d6c6fbbcd697ef2196c113,0.0273,0.0273,0,106,106,70,1,fourtwo,,,,,,,,,,,,,,,,,,,,,,,,,,,,,,,,,,,,,,,,,,,,,,,,,,,,,,,,,,,,,,,,,,,,,,,,,,,,,,,,,,,,,,,,,,,,,,,,,,,,,,,,,,,,,,,,,,,,,,,,,,,,,,,,,,,,,,,,,
,,5d1e4a3ed4b9d60001ec8f1c,2024-02-22_06h02.32.539,kallum_motion_pilot,2023.2.2,Win32,60.24096386,5d1e4a3ed4b9d60001ec8f1c,65d6bb0e977760de756971f7,65d6c6fbbcd697ef2196c113,0.0274,0.0274,0,107,107,161,1,fiveseven,,,,,,,,,,,,,,,,,,,,,,,,,,,,,,,,,,,,,,,,,,,,,,,,,,,,,,,,,,,,,,,,,,,,,,,,,,,,,,,,,,,,,,,,,,,,,,,,,,,,,,,,,,,,,,,,,,,,,,,,,,,,,,,,,,,,,,,,,
,,5d1e4a3ed4b9d60001ec8f1c,2024-02-22_06h02.32.539,kallum_motion_pilot,2023.2.2,Win32,60.24096386,5d1e4a3ed4b9d60001ec8f1c,65d6bb0e977760de756971f7,65d6c6fbbcd697ef2196c113,0.0274,0.0275,0,108,108,19,1,twofour,,,,,,,,,,,,,,,,,,,,,,,,,,,,,,,,,,,,,,,,,,,,,,,,,,,,,,,,,,,,,,,,,,,,,,,,,,,,,,,,,,,,,,,,,,,,,,,,,,,,,,,,,,,,,,,,,,,,,,,,,,,,,,,,,,,,,,,,,
,,5d1e4a3ed4b9d60001ec8f1c,2024-02-22_06h02.32.539,kallum_motion_pilot,2023.2.2,Win32,60.24096386,5d1e4a3ed4b9d60001ec8f1c,65d6bb0e977760de756971f7,65d6c6fbbcd697ef2196c113,0.0275,0.0276,0,109,109,119,1,eightseven,,,,,,,,,,,,,,,,,,,,,,,,,,,,,,,,,,,,,,,,,,,,,,,,,,,,,,,,,,,,,,,,,,,,,,,,,,,,,,,,,,,,,,,,,,,,,,,,,,,,,,,,,,,,,,,,,,,,,,,,,,,,,,,,,,,,,,,,,
,,5d1e4a3ed4b9d60001ec8f1c,2024-02-22_06h02.32.539,kallum_motion_pilot,2023.2.2,Win32,60.24096386,5d1e4a3ed4b9d60001ec8f1c,65d6bb0e977760de756971f7,65d6c6fbbcd697ef2196c113,0.0276,0.0277,0,110,110,63,1,fourthree,,,,,,,,,,,,,,,,,,,,,,,,,,,,,,,,,,,,,,,,,,,,,,,,,,,,,,,,,,,,,,,,,,,,,,,,,,,,,,,,,,,,,,,,,,,,,,,,,,,,,,,,,,,,,,,,,,,,,,,,,,,,,,,,,,,,,,,,,
,,5d1e4a3ed4b9d60001ec8f1c,2024-02-22_06h02.32.539,kallum_motion_pilot,2023.2.2,Win32,60.24096386,5d1e4a3ed4b9d60001ec8f1c,65d6bb0e977760de756971f7,65d6c6fbbcd697ef2196c113,0.0277,0.0277,0,111,111,52,1,threeone,,,,,,,,,,,,,,,,,,,,,,,,,,,,,,,,,,,,,,,,,,,,,,,,,,,,,,,,,,,,,,,,,,,,,,,,,,,,,,,,,,,,,,,,,,,,,,,,,,,,,,,,,,,,,,,,,,,,,,,,,,,,,,,,,,,,,,,,,
,,5d1e4a3ed4b9d60001ec8f1c,2024-02-22_06h02.32.539,kallum_motion_pilot,2023.2.2,Win32,60.24096386,5d1e4a3ed4b9d60001ec8f1c,65d6bb0e977760de756971f7,65d6c6fbbcd697ef2196c113,0.0277,0.0278,0,112,112,143,1,eightseven,,,,,,,,,,,,,,,,,,,,,,,,,,,,,,,,,,,,,,,,,,,,,,,,,,,,,,,,,,,,,,,,,,,,,,,,,,,,,,,,,,,,,,,,,,,,,,,,,,,,,,,,,,,,,,,,,,,,,,,,,,,,,,,,,,,,,,,,,
,,5d1e4a3ed4b9d60001ec8f1c,2024-02-22_06h02.32.539,kallum_motion_pilot,2023.2.2,Win32,60.24096386,5d1e4a3ed4b9d60001ec8f1c,65d6bb0e977760de756971f7,65d6c6fbbcd697ef2196c113,0.0278,0.0279,0,113,113,134,1,eightsix,,,,,,,,,,,,,,,,,,,,,,,,,,,,,,,,,,,,,,,,,,,,,,,,,,,,,,,,,,,,,,,,,,,,,,,,,,,,,,,,,,,,,,,,,,,,,,,,,,,,,,,,,,,,,,,,,,,,,,,,,,,,,,,,,,,,,,,,,
,,5d1e4a3ed4b9d60001ec8f1c,2024-02-22_06h02.32.539,kallum_motion_pilot,2023.2.2,Win32,60.24096386,5d1e4a3ed4b9d60001ec8f1c,65d6bb0e977760de756971f7,65d6c6fbbcd697ef2196c113,0.0279,0.028,0,114,114,147,1,sixeight,,,,,,,,,,,,,,,,,,,,,,,,,,,,,,,,,,,,,,,,,,,,,,,,,,,,,,,,,,,,,,,,,,,,,,,,,,,,,,,,,,,,,,,,,,,,,,,,,,,,,,,,,,,,,,,,,,,,,,,,,,,,,,,,,,,,,,,,,
,,5d1e4a3ed4b9d60001ec8f1c,2024-02-22_06h02.32.539,kallum_motion_pilot,2023.2.2,Win32,60.24096386,5d1e4a3ed4b9d60001ec8f1c,65d6bb0e977760de756971f7,65d6c6fbbcd697ef2196c113,0.028,0.028,0,115,115,35,1,twofour,,,,,,,,,,,,,,,,,,,,,,,,,,,,,,,,,,,,,,,,,,,,,,,,,,,,,,,,,,,,,,,,,,,,,,,,,,,,,,,,,,,,,,,,,,,,,,,,,,,,,,,,,,,,,,,,,,,,,,,,,,,,,,,,,,,,,,,,,
,,5d1e4a3ed4b9d60001ec8f1c,2024-02-22_06h02.32.539,kallum_motion_pilot,2023.2.2,Win32,60.24096386,5d1e4a3ed4b9d60001ec8f1c,65d6bb0e977760de756971f7,65d6c6fbbcd697ef2196c113,0.0281,0.0281,0,116,116,123,1,sixeight,,,,,,,,,,,,,,,,,,,,,,,,,,,,,,,,,,,,,,,,,,,,,,,,,,,,,,,,,,,,,,,,,,,,,,,,,,,,,,,,,,,,,,,,,,,,,,,,,,,,,,,,,,,,,,,,,,,,,,,,,,,,,,,,,,,,,,,,,
,,5d1e4a3ed4b9d60001ec8f1c,2024-02-22_06h02.32.539,kallum_motion_pilot,2023.2.2,Win32,60.24096386,5d1e4a3ed4b9d60001ec8f1c,65d6bb0e977760de756971f7,65d6c6fbbcd697ef2196c113,0.0282,0.0284,0,117,117,90,1,sixfive,,,,,,,,,,,,,,,,,,,,,,,,,,,,,,,,,,,,,,,,,,,,,,,,,,,,,,,,,,,,,,,,,,,,,,,,,,,,,,,,,,,,,,,,,,,,,,,,,,,,,,,,,,,,,,,,,,,,,,,,,,,,,,,,,,,,,,,,,
,,5d1e4a3ed4b9d60001ec8f1c,2024-02-22_06h02.32.539,kallum_motion_pilot,2023.2.2,Win32,60.24096386,5d1e4a3ed4b9d60001ec8f1c,65d6bb0e977760de756971f7,65d6c6fbbcd697ef2196c113,0.0284,0.0285,0,118,118,133,1,seveneight,,,,,,,,,,,,,,,,,,,,,,,,,,,,,,,,,,,,,,,,,,,,,,,,,,,,,,,,,,,,,,,,,,,,,,,,,,,,,,,,,,,,,,,,,,,,,,,,,,,,,,,,,,,,,,,,,,,,,,,,,,,,,,,,,,,,,,,,,
,,5d1e4a3ed4b9d60001ec8f1c,2024-02-22_06h02.32.539,kallum_motion_pilot,2023.2.2,Win32,60.24096386,5d1e4a3ed4b9d60001ec8f1c,65d6bb0e977760de756971f7,65d6c6fbbcd697ef2196c113,0.0285,0.0285,0,119,119,87,1,eightseven,,,,,,,,,,,,,,,,,,,,,,,,,,,,,,,,,,,,,,,,,,,,,,,,,,,,,,,,,,,,,,,,,,,,,,,,,,,,,,,,,,,,,,,,,,,,,,,,,,,,,,,,,,,,,,,,,,,,,,,,,,,,,,,,,,,,,,,,,
,,5d1e4a3ed4b9d60001ec8f1c,2024-02-22_06h02.32.539,kallum_motion_pilot,2023.2.2,Win32,60.24096386,5d1e4a3ed4b9d60001ec8f1c,65d6bb0e977760de756971f7,65d6c6fbbcd697ef2196c113,0.0285,0.0286,0,120,120,104,1,fivesix,,,,,,,,,,,,,,,,,,,,,,,,,,,,,,,,,,,,,,,,,,,,,,,,,,,,,,,,,,,,,,,,,,,,,,,,,,,,,,,,,,,,,,,,,,,,,,,,,,,,,,,,,,,,,,,,,,,,,,,,,,,,,,,,,,,,,,,,,
,,5d1e4a3ed4b9d60001ec8f1c,2024-02-22_06h02.32.539,kallum_motion_pilot,2023.2.2,Win32,60.24096386,5d1e4a3ed4b9d60001ec8f1c,65d6bb0e977760de756971f7,65d6c6fbbcd697ef2196c113,0.0287,0.0287,0,121,121,47,1,fourthree,,,,,,,,,,,,,,,,,,,,,,,,,,,,,,,,,,,,,,,,,,,,,,,,,,,,,,,,,,,,,,,,,,,,,,,,,,,,,,,,,,,,,,,,,,,,,,,,,,,,,,,,,,,,,,,,,,,,,,,,,,,,,,,,,,,,,,,,,
,,5d1e4a3ed4b9d60001ec8f1c,2024-02-22_06h02.32.539,kallum_motion_pilot,2023.2.2,Win32,60.24096386,5d1e4a3ed4b9d60001ec8f1c,65d6bb0e977760de756971f7,65d6c6fbbcd697ef2196c113,0.0288,0.0288,0,122,122,57,1,onethree,,,,,,,,,,,,,,,,,,,,,,,,,,,,,,,,,,,,,,,,,,,,,,,,,,,,,,,,,,,,,,,,,,,,,,,,,,,,,,,,,,,,,,,,,,,,,,,,,,,,,,,,,,,,,,,,,,,,,,,,,,,,,,,,,,,,,,,,,
,,5d1e4a3ed4b9d60001ec8f1c,2024-02-22_06h02.32.539,kallum_motion_pilot,2023.2.2,Win32,60.24096386,5d1e4a3ed4b9d60001ec8f1c,65d6bb0e977760de756971f7,65d6c6fbbcd697ef2196c113,0.0288,0.0288,0,123,123,125,1,seveneight,,,,,,,,,,,,,,,,,,,,,,,,,,,,,,,,,,,,,,,,,,,,,,,,,,,,,,,,,,,,,,,,,,,,,,,,,,,,,,,,,,,,,,,,,,,,,,,,,,,,,,,,,,,,,,,,,,,,,,,,,,,,,,,,,,,,,,,,,
,,5d1e4a3ed4b9d60001ec8f1c,2024-02-22_06h02.32.539,kallum_motion_pilot,2023.2.2,Win32,60.24096386,5d1e4a3ed4b9d60001ec8f1c,65d6bb0e977760de756971f7,65d6c6fbbcd697ef2196c113,0.0289,0.0289,0,124,124,0,1,onetwo,,,,,,,,,,,,,,,,,,,,,,,,,,,,,,,,,,,,,,,,,,,,,,,,,,,,,,,,,,,,,,,,,,,,,,,,,,,,,,,,,,,,,,,,,,,,,,,,,,,,,,,,,,,,,,,,,,,,,,,,,,,,,,,,,,,,,,,,,
,,5d1e4a3ed4b9d60001ec8f1c,2024-02-22_06h02.32.539,kallum_motion_pilot,2023.2.2,Win32,60.24096386,5d1e4a3ed4b9d60001ec8f1c,65d6bb0e977760de756971f7,65d6c6fbbcd697ef2196c113,0.029,0.0291,0,125,125,65,1,onethree,,,,,,,,,,,,,,,,,,,,,,,,,,,,,,,,,,,,,,,,,,,,,,,,,,,,,,,,,,,,,,,,,,,,,,,,,,,,,,,,,,,,,,,,,,,,,,,,,,,,,,,,,,,,,,,,,,,,,,,,,,,,,,,,,,,,,,,,,
,,5d1e4a3ed4b9d60001ec8f1c,2024-02-22_06h02.32.539,kallum_motion_pilot,2023.2.2,Win32,60.24096386,5d1e4a3ed4b9d60001ec8f1c,65d6bb0e977760de756971f7,65d6c6fbbcd697ef2196c113,0.0291,0.0291,0,126,126,122,1,sixfive,,,,,,,,,,,,,,,,,,,,,,,,,,,,,,,,,,,,,,,,,,,,,,,,,,,,,,,,,,,,,,,,,,,,,,,,,,,,,,,,,,,,,,,,,,,,,,,,,,,,,,,,,,,,,,,,,,,,,,,,,,,,,,,,,,,,,,,,,
,,5d1e4a3ed4b9d60001ec8f1c,2024-02-22_06h02.32.539,kallum_motion_pilot,2023.2.2,Win32,60.24096386,5d1e4a3ed4b9d60001ec8f1c,65d6bb0e977760de756971f7,65d6c6fbbcd697ef2196c113,0.0292,0.0293,0,127,127,92,1,sevenfive,,,,,,,,,,,,,,,,,,,,,,,,,,,,,,,,,,,,,,,,,,,,,,,,,,,,,,,,,,,,,,,,,,,,,,,,,,,,,,,,,,,,,,,,,,,,,,,,,,,,,,,,,,,,,,,,,,,,,,,,,,,,,,,,,,,,,,,,,
,,5d1e4a3ed4b9d60001ec8f1c,2024-02-22_06h02.32.539,kallum_motion_pilot,2023.2.2,Win32,60.24096386,5d1e4a3ed4b9d60001ec8f1c,65d6bb0e977760de756971f7,65d6c6fbbcd697ef2196c113,0.0293,0.0294,0,128,128,98,1,sixfive,,,,,,,,,,,,,,,,,,,,,,,,,,,,,,,,,,,,,,,,,,,,,,,,,,,,,,,,,,,,,,,,,,,,,,,,,,,,,,,,,,,,,,,,,,,,,,,,,,,,,,,,,,,,,,,,,,,,,,,,,,,,,,,,,,,,,,,,,
,,5d1e4a3ed4b9d60001ec8f1c,2024-02-22_06h02.32.539,kallum_motion_pilot,2023.2.2,Win32,60.24096386,5d1e4a3ed4b9d60001ec8f1c,65d6bb0e977760de756971f7,65d6c6fbbcd697ef2196c113,0.0294,0.0295,0,129,129,112,1,fivesix,,,,,,,,,,,,,,,,,,,,,,,,,,,,,,,,,,,,,,,,,,,,,,,,,,,,,,,,,,,,,,,,,,,,,,,,,,,,,,,,,,,,,,,,,,,,,,,,,,,,,,,,,,,,,,,,,,,,,,,,,,,,,,,,,,,,,,,,,
,,5d1e4a3ed4b9d60001ec8f1c,2024-02-22_06h02.32.539,kallum_motion_pilot,2023.2.2,Win32,60.24096386,5d1e4a3ed4b9d60001ec8f1c,65d6bb0e977760de756971f7,65d6c6fbbcd697ef2196c113,0.0295,0.0295,0,130,130,31,1,fourthree,,,,,,,,,,,,,,,,,,,,,,,,,,,,,,,,,,,,,,,,,,,,,,,,,,,,,,,,,,,,,,,,,,,,,,,,,,,,,,,,,,,,,,,,,,,,,,,,,,,,,,,,,,,,,,,,,,,,,,,,,,,,,,,,,,,,,,,,,
,,5d1e4a3ed4b9d60001ec8f1c,2024-02-22_06h02.32.539,kallum_motion_pilot,2023.2.2,Win32,60.24096386,5d1e4a3ed4b9d60001ec8f1c,65d6bb0e977760de756971f7,65d6c6fbbcd697ef2196c113,0.0295,0.0297,0,131,131,43,1,twofour,,,,,,,,,,,,,,,,,,,,,,,,,,,,,,,,,,,,,,,,,,,,,,,,,,,,,,,,,,,,,,,,,,,,,,,,,,,,,,,,,,,,,,,,,,,,,,,,,,,,,,,,,,,,,,,,,,,,,,,,,,,,,,,,,,,,,,,,,
,,5d1e4a3ed4b9d60001ec8f1c,2024-02-22_06h02.32.539,kallum_motion_pilot,2023.2.2,Win32,60.24096386,5d1e4a3ed4b9d60001ec8f1c,65d6bb0e977760de756971f7,65d6c6fbbcd697ef2196c113,0.0297,0.0297,0,132,132,44,1,threeone,,,,,,,,,,,,,,,,,,,,,,,,,,,,,,,,,,,,,,,,,,,,,,,,,,,,,,,,,,,,,,,,,,,,,,,,,,,,,,,,,,,,,,,,,,,,,,,,,,,,,,,,,,,,,,,,,,,,,,,,,,,,,,,,,,,,,,,,,
,,5d1e4a3ed4b9d60001ec8f1c,2024-02-22_06h02.32.539,kallum_motion_pilot,2023.2.2,Win32,60.24096386,5d1e4a3ed4b9d60001ec8f1c,65d6bb0e977760de756971f7,65d6c6fbbcd697ef2196c113,0.0298,0.0298,0,133,133,128,1,fivesix,,,,,,,,,,,,,,,,,,,,,,,,,,,,,,,,,,,,,,,,,,,,,,,,,,,,,,,,,,,,,,,,,,,,,,,,,,,,,,,,,,,,,,,,,,,,,,,,,,,,,,,,,,,,,,,,,,,,,,,,,,,,,,,,,,,,,,,,,
,,5d1e4a3ed4b9d60001ec8f1c,2024-02-22_06h02.32.539,kallum_motion_pilot,2023.2.2,Win32,60.24096386,5d1e4a3ed4b9d60001ec8f1c,65d6bb0e977760de756971f7,65d6c6fbbcd697ef2196c113,0.0299,0.0299,0,134,134,102,1,eightsix,,,,,,,,,,,,,,,,,,,,,,,,,,,,,,,,,,,,,,,,,,,,,,,,,,,,,,,,,,,,,,,,,,,,,,,,,,,,,,,,,,,,,,,,,,,,,,,,,,,,,,,,,,,,,,,,,,,,,,,,,,,,,,,,,,,,,,,,,
,,5d1e4a3ed4b9d60001ec8f1c,2024-02-22_06h02.32.539,kallum_motion_pilot,2023.2.2,Win32,60.24096386,5d1e4a3ed4b9d60001ec8f1c,65d6bb0e977760de756971f7,65d6c6fbbcd697ef2196c113,0.03,0.03,0,135,135,32,1,onetwo,,,,,,,,,,,,,,,,,,,,,,,,,,,,,,,,,,,,,,,,,,,,,,,,,,,,,,,,,,,,,,,,,,,,,,,,,,,,,,,,,,,,,,,,,,,,,,,,,,,,,,,,,,,,,,,,,,,,,,,,,,,,,,,,,,,,,,,,,
,,5d1e4a3ed4b9d60001ec8f1c,2024-02-22_06h02.32.539,kallum_motion_pilot,2023.2.2,Win32,60.24096386,5d1e4a3ed4b9d60001ec8f1c,65d6bb0e977760de756971f7,65d6c6fbbcd697ef2196c113,0.03,0.03,0,136,136,42,1,twoone,,,,,,,,,,,,,,,,,,,,,,,,,,,,,,,,,,,,,,,,,,,,,,,,,,,,,,,,,,,,,,,,,,,,,,,,,,,,,,,,,,,,,,,,,,,,,,,,,,,,,,,,,,,,,,,,,,,,,,,,,,,,,,,,,,,,,,,,,
,,5d1e4a3ed4b9d60001ec8f1c,2024-02-22_06h02.32.539,kallum_motion_pilot,2023.2.2,Win32,60.24096386,5d1e4a3ed4b9d60001ec8f1c,65d6bb0e977760de756971f7,65d6c6fbbcd697ef2196c113,0.0301,0.0301,0,137,137,84,1,sevenfive,,,,,,,,,,,,,,,,,,,,,,,,,,,,,,,,,,,,,,,,,,,,,,,,,,,,,,,,,,,,,,,,,,,,,,,,,,,,,,,,,,,,,,,,,,,,,,,,,,,,,,,,,,,,,,,,,,,,,,,,,,,,,,,,,,,,,,,,,
,,5d1e4a3ed4b9d60001ec8f1c,2024-02-22_06h02.32.539,kallum_motion_pilot,2023.2.2,Win32,60.24096386,5d1e4a3ed4b9d60001ec8f1c,65d6bb0e977760de756971f7,65d6c6fbbcd697ef2196c113,0.0302,0.0302,0,138,138,117,1,seveneight,,,,,,,,,,,,,,,,,,,,,,,,,,,,,,,,,,,,,,,,,,,,,,,,,,,,,,,,,,,,,,,,,,,,,,,,,,,,,,,,,,,,,,,,,,,,,,,,,,,,,,,,,,,,,,,,,,,,,,,,,,,,,,,,,,,,,,,,,
,,5d1e4a3ed4b9d60001ec8f1c,2024-02-22_06h02.32.539,kallum_motion_pilot,2023.2.2,Win32,60.24096386,5d1e4a3ed4b9d60001ec8f1c,65d6bb0e977760de756971f7,65d6c6fbbcd697ef2196c113,0.0302,0.0303,0,139,139,27,1,twofour,,,,,,,,,,,,,,,,,,,,,,,,,,,,,,,,,,,,,,,,,,,,,,,,,,,,,,,,,,,,,,,,,,,,,,,,,,,,,,,,,,,,,,,,,,,,,,,,,,,,,,,,,,,,,,,,,,,,,,,,,,,,,,,,,,,,,,,,,
,,5d1e4a3ed4b9d60001ec8f1c,2024-02-22_06h02.32.539,kallum_motion_pilot,2023.2.2,Win32,60.24096386,5d1e4a3ed4b9d60001ec8f1c,65d6bb0e977760de756971f7,65d6c6fbbcd697ef2196c113,0.0303,0.0303,0,140,140,2,1,twoone,,,,,,,,,,,,,,,,,,,,,,,,,,,,,,,,,,,,,,,,,,,,,,,,,,,,,,,,,,,,,,,,,,,,,,,,,,,,,,,,,,,,,,,,,,,,,,,,,,,,,,,,,,,,,,,,,,,,,,,,,,,,,,,,,,,,,,,,,
,,5d1e4a3ed4b9d60001ec8f1c,2024-02-22_06h02.32.539,kallum_motion_pilot,2023.2.2,Win32,60.24096386,5d1e4a3ed4b9d60001ec8f1c,65d6bb0e977760de756971f7,65d6c6fbbcd697ef2196c113,0.0304,0.0305,0,141,141,115,1,sixeight,,,,,,,,,,,,,,,,,,,,,,,,,,,,,,,,,,,,,,,,,,,,,,,,,,,,,,,,,,,,,,,,,,,,,,,,,,,,,,,,,,,,,,,,,,,,,,,,,,,,,,,,,,,,,,,,,,,,,,,,,,,,,,,,,,,,,,,,,
,,5d1e4a3ed4b9d60001ec8f1c,2024-02-22_06h02.32.539,kallum_motion_pilot,2023.2.2,Win32,60.24096386,5d1e4a3ed4b9d60001ec8f1c,65d6bb0e977760de756971f7,65d6c6fbbcd697ef2196c113,0.0306,0.0306,0,142,142,105,1,fiveseven,,,,,,,,,,,,,,,,,,,,,,,,,,,,,,,,,,,,,,,,,,,,,,,,,,,,,,,,,,,,,,,,,,,,,,,,,,,,,,,,,,,,,,,,,,,,,,,,,,,,,,,,,,,,,,,,,,,,,,,,,,,,,,,,,,,,,,,,,
,,5d1e4a3ed4b9d60001ec8f1c,2024-02-22_06h02.32.539,kallum_motion_pilot,2023.2.2,Win32,60.24096386,5d1e4a3ed4b9d60001ec8f1c,65d6bb0e977760de756971f7,65d6c6fbbcd697ef2196c113,0.0306,0.0306,0,143,143,39,1,fourthree,,,,,,,,,,,,,,,,,,,,,,,,,,,,,,,,,,,,,,,,,,,,,,,,,,,,,,,,,,,,,,,,,,,,,,,,,,,,,,,,,,,,,,,,,,,,,,,,,,,,,,,,,,,,,,,,,,,,,,,,,,,,,,,,,,,,,,,,,
,,5d1e4a3ed4b9d60001ec8f1c,2024-02-22_06h02.32.539,kallum_motion_pilot,2023.2.2,Win32,60.24096386,5d1e4a3ed4b9d60001ec8f1c,65d6bb0e977760de756971f7,65d6c6fbbcd697ef2196c113,0.0307,0.0308,0,144,144,5,1,threefour,,,,,,,,,,,,,,,,,,,,,,,,,,,,,,,,,,,,,,,,,,,,,,,,,,,,,,,,,,,,,,,,,,,,,,,,,,,,,,,,,,,,,,,,,,,,,,,,,,,,,,,,,,,,,,,,,,,,,,,,,,,,,,,,,,,,,,,,,
,,5d1e4a3ed4b9d60001ec8f1c,2024-02-22_06h02.32.539,kallum_motion_pilot,2023.2.2,Win32,60.24096386,5d1e4a3ed4b9d60001ec8f1c,65d6bb0e977760de756971f7,65d6c6fbbcd697ef2196c113,0.0308,0.0308,0,145,145,106,1,sixfive,,,,,,,,,,,,,,,,,,,,,,,,,,,,,,,,,,,,,,,,,,,,,,,,,,,,,,,,,,,,,,,,,,,,,,,,,,,,,,,,,,,,,,,,,,,,,,,,,,,,,,,,,,,,,,,,,,,,,,,,,,,,,,,,,,,,,,,,,
,,5d1e4a3ed4b9d60001ec8f1c,2024-02-22_06h02.32.539,kallum_motion_pilot,2023.2.2,Win32,60.24096386,5d1e4a3ed4b9d60001ec8f1c,65d6bb0e977760de756971f7,65d6c6fbbcd697ef2196c113,0.0309,0.0309,0,146,146,124,1,sevenfive,,,,,,,,,,,,,,,,,,,,,,,,,,,,,,,,,,,,,,,,,,,,,,,,,,,,,,,,,,,,,,,,,,,,,,,,,,,,,,,,,,,,,,,,,,,,,,,,,,,,,,,,,,,,,,,,,,,,,,,,,,,,,,,,,,,,,,,,,
,,5d1e4a3ed4b9d60001ec8f1c,2024-02-22_06h02.32.539,kallum_motion_pilot,2023.2.2,Win32,60.24096386,5d1e4a3ed4b9d60001ec8f1c,65d6bb0e977760de756971f7,65d6c6fbbcd697ef2196c113,0.0309,0.0309,0,147,147,97,1,fiveseven,,,,,,,,,,,,,,,,,,,,,,,,,,,,,,,,,,,,,,,,,,,,,,,,,,,,,,,,,,,,,,,,,,,,,,,,,,,,,,,,,,,,,,,,,,,,,,,,,,,,,,,,,,,,,,,,,,,,,,,,,,,,,,,,,,,,,,,,,
,,5d1e4a3ed4b9d60001ec8f1c,2024-02-22_06h02.32.539,kallum_motion_pilot,2023.2.2,Win32,60.24096386,5d1e4a3ed4b9d60001ec8f1c,65d6bb0e977760de756971f7,65d6c6fbbcd697ef2196c113,0.0311,0.0311,0,148,148,72,1,onetwo,,,,,,,,,,,,,,,,,,,,,,,,,,,,,,,,,,,,,,,,,,,,,,,,,,,,,,,,,,,,,,,,,,,,,,,,,,,,,,,,,,,,,,,,,,,,,,,,,,,,,,,,,,,,,,,,,,,,,,,,,,,,,,,,,,,,,,,,,
,,5d1e4a3ed4b9d60001ec8f1c,2024-02-22_06h02.32.539,kallum_motion_pilot,2023.2.2,Win32,60.24096386,5d1e4a3ed4b9d60001ec8f1c,65d6bb0e977760de756971f7,65d6c6fbbcd697ef2196c113,0.0311,0.0312,0,149,149,20,1,threeone,,,,,,,,,,,,,,,,,,,,,,,,,,,,,,,,,,,,,,,,,,,,,,,,,,,,,,,,,,,,,,,,,,,,,,,,,,,,,,,,,,,,,,,,,,,,,,,,,,,,,,,,,,,,,,,,,,,,,,,,,,,,,,,,,,,,,,,,,
,,5d1e4a3ed4b9d60001ec8f1c,2024-02-22_06h02.32.539,kallum_motion_pilot,2023.2.2,Win32,60.24096386,5d1e4a3ed4b9d60001ec8f1c,65d6bb0e977760de756971f7,65d6c6fbbcd697ef2196c113,0.0312,0.0312,0,150,150,46,1,fourtwo,,,,,,,,,,,,,,,,,,,,,,,,,,,,,,,,,,,,,,,,,,,,,,,,,,,,,,,,,,,,,,,,,,,,,,,,,,,,,,,,,,,,,,,,,,,,,,,,,,,,,,,,,,,,,,,,,,,,,,,,,,,,,,,,,,,,,,,,,
,,5d1e4a3ed4b9d60001ec8f1c,2024-02-22_06h02.32.539,kallum_motion_pilot,2023.2.2,Win32,60.24096386,5d1e4a3ed4b9d60001ec8f1c,65d6bb0e977760de756971f7,65d6c6fbbcd697ef2196c113,0.0313,0.0313,0,151,151,10,1,twoone,,,,,,,,,,,,,,,,,,,,,,,,,,,,,,,,,,,,,,,,,,,,,,,,,,,,,,,,,,,,,,,,,,,,,,,,,,,,,,,,,,,,,,,,,,,,,,,,,,,,,,,,,,,,,,,,,,,,,,,,,,,,,,,,,,,,,,,,,
,,5d1e4a3ed4b9d60001ec8f1c,2024-02-22_06h02.32.539,kallum_motion_pilot,2023.2.2,Win32,60.24096386,5d1e4a3ed4b9d60001ec8f1c,65d6bb0e977760de756971f7,65d6c6fbbcd697ef2196c113,0.0314,0.0315,0,152,152,51,1,twofour,,,,,,,,,,,,,,,,,,,,,,,,,,,,,,,,,,,,,,,,,,,,,,,,,,,,,,,,,,,,,,,,,,,,,,,,,,,,,,,,,,,,,,,,,,,,,,,,,,,,,,,,,,,,,,,,,,,,,,,,,,,,,,,,,,,,,,,,,
,,5d1e4a3ed4b9d60001ec8f1c,2024-02-22_06h02.32.539,kallum_motion_pilot,2023.2.2,Win32,60.24096386,5d1e4a3ed4b9d60001ec8f1c,65d6bb0e977760de756971f7,65d6c6fbbcd697ef2196c113,0.0315,0.0316,0,153,153,121,1,fiveseven,,,,,,,,,,,,,,,,,,,,,,,,,,,,,,,,,,,,,,,,,,,,,,,,,,,,,,,,,,,,,,,,,,,,,,,,,,,,,,,,,,,,,,,,,,,,,,,,,,,,,,,,,,,,,,,,,,,,,,,,,,,,,,,,,,,,,,,,,
,,5d1e4a3ed4b9d60001ec8f1c,2024-02-22_06h02.32.539,kallum_motion_pilot,2023.2.2,Win32,60.24096386,5d1e4a3ed4b9d60001ec8f1c,65d6bb0e977760de756971f7,65d6c6fbbcd697ef2196c113,0.0316,0.0316,0,154,154,88,1,fivesix,,,,,,,,,,,,,,,,,,,,,,,,,,,,,,,,,,,,,,,,,,,,,,,,,,,,,,,,,,,,,,,,,,,,,,,,,,,,,,,,,,,,,,,,,,,,,,,,,,,,,,,,,,,,,,,,,,,,,,,,,,,,,,,,,,,,,,,,,
,,5d1e4a3ed4b9d60001ec8f1c,2024-02-22_06h02.32.539,kallum_motion_pilot,2023.2.2,Win32,60.24096386,5d1e4a3ed4b9d60001ec8f1c,65d6bb0e977760de756971f7,65d6c6fbbcd697ef2196c113,0.0316,0.0317,0,155,155,100,1,sevenfive,,,,,,,,,,,,,,,,,,,,,,,,,,,,,,,,,,,,,,,,,,,,,,,,,,,,,,,,,,,,,,,,,,,,,,,,,,,,,,,,,,,,,,,,,,,,,,,,,,,,,,,,,,,,,,,,,,,,,,,,,,,,,,,,,,,,,,,,,
,,5d1e4a3ed4b9d60001ec8f1c,2024-02-22_06h02.32.539,kallum_motion_pilot,2023.2.2,Win32,60.24096386,5d1e4a3ed4b9d60001ec8f1c,65d6bb0e977760de756971f7,65d6c6fbbcd697ef2196c113,0.0317,0.0318,0,156,156,111,1,eightseven,,,,,,,,,,,,,,,,,,,,,,,,,,,,,,,,,,,,,,,,,,,,,,,,,,,,,,,,,,,,,,,,,,,,,,,,,,,,,,,,,,,,,,,,,,,,,,,,,,,,,,,,,,,,,,,,,,,,,,,,,,,,,,,,,,,,,,,,,
,,5d1e4a3ed4b9d60001ec8f1c,2024-02-22_06h02.32.539,kallum_motion_pilot,2023.2.2,Win32,60.24096386,5d1e4a3ed4b9d60001ec8f1c,65d6bb0e977760de756971f7,65d6c6fbbcd697ef2196c113,0.0319,0.0319,0,157,157,55,1,fourthree,,,,,,,,,,,,,,,,,,,,,,,,,,,,,,,,,,,,,,,,,,,,,,,,,,,,,,,,,,,,,,,,,,,,,,,,,,,,,,,,,,,,,,,,,,,,,,,,,,,,,,,,,,,,,,,,,,,,,,,,,,,,,,,,,,,,,,,,,
,,5d1e4a3ed4b9d60001ec8f1c,2024-02-22_06h02.32.539,kallum_motion_pilot,2023.2.2,Win32,60.24096386,5d1e4a3ed4b9d60001ec8f1c,65d6bb0e977760de756971f7,65d6c6fbbcd697ef2196c113,0.0319,0.032,0,158,158,85,1,seveneight,,,,,,,,,,,,,,,,,,,,,,,,,,,,,,,,,,,,,,,,,,,,,,,,,,,,,,,,,,,,,,,,,,,,,,,,,,,,,,,,,,,,,,,,,,,,,,,,,,,,,,,,,,,,,,,,,,,,,,,,,,,,,,,,,,,,,,,,,
,,5d1e4a3ed4b9d60001ec8f1c,2024-02-22_06h02.32.539,kallum_motion_pilot,2023.2.2,Win32,60.24096386,5d1e4a3ed4b9d60001ec8f1c,65d6bb0e977760de756971f7,65d6c6fbbcd697ef2196c113,0.032,0.0321,0,159,159,58,1,twoone,,,,,,,,,,,,,,,,,,,,,,,,,,,,,,,,,,,,,,,,,,,,,,,,,,,,,,,,,,,,,,,,,,,,,,,,,,,,,,,,,,,,,,,,,,,,,,,,,,,,,,,,,,,,,,,,,,,,,,,,,,,,,,,,,,,,,,,,,
,,5d1e4a3ed4b9d60001ec8f1c,2024-02-22_06h02.32.539,kallum_motion_pilot,2023.2.2,Win32,60.24096386,5d1e4a3ed4b9d60001ec8f1c,65d6bb0e977760de756971f7,65d6c6fbbcd697ef2196c113,0.0321,0.0321,0,160,160,1,1,onethree,,,,,,,,,,,,,,,,,,,,,,,,,,,,,,,,,,,,,,,,,,,,,,,,,,,,,,,,,,,,,,,,,,,,,,,,,,,,,,,,,,,,,,,,,,,,,,,,,,,,,,,,,,,,,,,,,,,,,,,,,,,,,,,,,,,,,,,,,
,,5d1e4a3ed4b9d60001ec8f1c,2024-02-22_06h02.32.539,kallum_motion_pilot,2023.2.2,Win32,60.24096386,5d1e4a3ed4b9d60001ec8f1c,65d6bb0e977760de756971f7,65d6c6fbbcd697ef2196c113,0.0321,0.0322,0,161,161,89,1,fiveseven,,,,,,,,,,,,,,,,,,,,,,,,,,,,,,,,,,,,,,,,,,,,,,,,,,,,,,,,,,,,,,,,,,,,,,,,,,,,,,,,,,,,,,,,,,,,,,,,,,,,,,,,,,,,,,,,,,,,,,,,,,,,,,,,,,,,,,,,,
,,5d1e4a3ed4b9d60001ec8f1c,2024-02-22_06h02.32.539,kallum_motion_pilot,2023.2.2,Win32,60.24096386,5d1e4a3ed4b9d60001ec8f1c,65d6bb0e977760de756971f7,65d6c6fbbcd697ef2196c113,0.0323,0.0323,1,0,162,154,1,sixfive,,,,,,,,,,,,,,,,,,,,,,,,,,,,,,,,,,,,,,,,,,,,,,,,,,,,,,,,,,,,,,,,,,,,,,,,,,,,,,,,,,,,,,,,,,,,,,,,,,,,,,,,,,,,,,,,,,,,,,,,,,,,,,,,,,,,,,,,,
,,5d1e4a3ed4b9d60001ec8f1c,2024-02-22_06h02.32.539,kallum_motion_pilot,2023.2.2,Win32,60.24096386,5d1e4a3ed4b9d60001ec8f1c,65d6bb0e977760de756971f7,65d6c6fbbcd697ef2196c113,0.0324,0.0324,1,1,163,79,1,eightseven,,,,,,,,,,,,,,,,,,,,,,,,,,,,,,,,,,,,,,,,,,,,,,,,,,,,,,,,,,,,,,,,,,,,,,,,,,,,,,,,,,,,,,,,,,,,,,,,,,,,,,,,,,,,,,,,,,,,,,,,,,,,,,,,,,,,,,,,,
,,5d1e4a3ed4b9d60001ec8f1c,2024-02-22_06h02.32.539,kallum_motion_pilot,2023.2.2,Win32,60.24096386,5d1e4a3ed4b9d60001ec8f1c,65d6bb0e977760de756971f7,65d6c6fbbcd697ef2196c113,0.0325,0.0325,1,2,164,42,1,twoone,,,,,,,,,,,,,,,,,,,,,,,,,,,,,,,,,,,,,,,,,,,,,,,,,,,,,,,,,,,,,,,,,,,,,,,,,,,,,,,,,,,,,,,,,,,,,,,,,,,,,,,,,,,,,,,,,,,,,,,,,,,,,,,,,,,,,,,,,
,,5d1e4a3ed4b9d60001ec8f1c,2024-02-22_06h02.32.539,kallum_motion_pilot,2023.2.2,Win32,60.24096386,5d1e4a3ed4b9d60001ec8f1c,65d6bb0e977760de756971f7,65d6c6fbbcd697ef2196c113,0.0326,0.0326,1,3,165,36,1,threeone,,,,,,,,,,,,,,,,,,,,,,,,,,,,,,,,,,,,,,,,,,,,,,,,,,,,,,,,,,,,,,,,,,,,,,,,,,,,,,,,,,,,,,,,,,,,,,,,,,,,,,,,,,,,,,,,,,,,,,,,,,,,,,,,,,,,,,,,,
,,5d1e4a3ed4b9d60001ec8f1c,2024-02-22_06h02.32.539,kallum_motion_pilot,2023.2.2,Win32,60.24096386,5d1e4a3ed4b9d60001ec8f1c,65d6bb0e977760de756971f7,65d6c6fbbcd697ef2196c113,0.0326,0.0328,1,4,166,138,1,sixfive,,,,,,,,,,,,,,,,,,,,,,,,,,,,,,,,,,,,,,,,,,,,,,,,,,,,,,,,,,,,,,,,,,,,,,,,,,,,,,,,,,,,,,,,,,,,,,,,,,,,,,,,,,,,,,,,,,,,,,,,,,,,,,,,,,,,,,,,,
,,5d1e4a3ed4b9d60001ec8f1c,2024-02-22_06h02.32.539,kallum_motion_pilot,2023.2.2,Win32,60.24096386,5d1e4a3ed4b9d60001ec8f1c,65d6bb0e977760de756971f7,65d6c6fbbcd697ef2196c113,0.0328,0.0328,1,5,167,75,1,twofour,,,,,,,,,,,,,,,,,,,,,,,,,,,,,,,,,,,,,,,,,,,,,,,,,,,,,,,,,,,,,,,,,,,,,,,,,,,,,,,,,,,,,,,,,,,,,,,,,,,,,,,,,,,,,,,,,,,,,,,,,,,,,,,,,,,,,,,,,
,,5d1e4a3ed4b9d60001ec8f1c,2024-02-22_06h02.32.539,kallum_motion_pilot,2023.2.2,Win32,60.24096386,5d1e4a3ed4b9d60001ec8f1c,65d6bb0e977760de756971f7,65d6c6fbbcd697ef2196c113,0.0328,0.0329,1,6,168,113,1,fiveseven,,,,,,,,,,,,,,,,,,,,,,,,,,,,,,,,,,,,,,,,,,,,,,,,,,,,,,,,,,,,,,,,,,,,,,,,,,,,,,,,,,,,,,,,,,,,,,,,,,,,,,,,,,,,,,,,,,,,,,,,,,,,,,,,,,,,,,,,,
,,5d1e4a3ed4b9d60001ec8f1c,2024-02-22_06h02.32.539,kallum_motion_pilot,2023.2.2,Win32,60.24096386,5d1e4a3ed4b9d60001ec8f1c,65d6bb0e977760de756971f7,65d6c6fbbcd697ef2196c113,0.0329,0.033,1,7,169,69,1,threefour,,,,,,,,,,,,,,,,,,,,,,,,,,,,,,,,,,,,,,,,,,,,,,,,,,,,,,,,,,,,,,,,,,,,,,,,,,,,,,,,,,,,,,,,,,,,,,,,,,,,,,,,,,,,,,,,,,,,,,,,,,,,,,,,,,,,,,,,,
,,5d1e4a3ed4b9d60001ec8f1c,2024-02-22_06h02.32.539,kallum_motion_pilot,2023.2.2,Win32,60.24096386,5d1e4a3ed4b9d60001ec8f1c,65d6bb0e977760de756971f7,65d6c6fbbcd697ef2196c113,0.033,0.0331,1,8,170,3,1,twofour,,,,,,,,,,,,,,,,,,,,,,,,,,,,,,,,,,,,,,,,,,,,,,,,,,,,,,,,,,,,,,,,,,,,,,,,,,,,,,,,,,,,,,,,,,,,,,,,,,,,,,,,,,,,,,,,,,,,,,,,,,,,,,,,,,,,,,,,,
,,5d1e4a3ed4b9d60001ec8f1c,2024-02-22_06h02.32.539,kallum_motion_pilot,2023.2.2,Win32,60.24096386,5d1e4a3ed4b9d60001ec8f1c,65d6bb0e977760de756971f7,65d6c6fbbcd697ef2196c113,0.0331,0.0332,1,9,171,78,1,fourtwo,,,,,,,,,,,,,,,,,,,,,,,,,,,,,,,,,,,,,,,,,,,,,,,,,,,,,,,,,,,,,,,,,,,,,,,,,,,,,,,,,,,,,,,,,,,,,,,,,,,,,,,,,,,,,,,,,,,,,,,,,,,,,,,,,,,,,,,,,
,,5d1e4a3ed4b9d60001ec8f1c,2024-02-22_06h02.32.539,kallum_motion_pilot,2023.2.2,Win32,60.24096386,5d1e4a3ed4b9d60001ec8f1c,65d6bb0e977760de756971f7,65d6c6fbbcd697ef2196c113,0.0333,0.0333,1,10,172,15,1,fourthree,,,,,,,,,,,,,,,,,,,,,,,,,,,,,,,,,,,,,,,,,,,,,,,,,,,,,,,,,,,,,,,,,,,,,,,,,,,,,,,,,,,,,,,,,,,,,,,,,,,,,,,,,,,,,,,,,,,,,,,,,,,,,,,,,,,,,,,,,
,,5d1e4a3ed4b9d60001ec8f1c,2024-02-22_06h02.32.539,kallum_motion_pilot,2023.2.2,Win32,60.24096386,5d1e4a3ed4b9d60001ec8f1c,65d6bb0e977760de756971f7,65d6c6fbbcd697ef2196c113,0.0333,0.0333,1,11,173,155,1,sixeight,,,,,,,,,,,,,,,,,,,,,,,,,,,,,,,,,,,,,,,,,,,,,,,,,,,,,,,,,,,,,,,,,,,,,,,,,,,,,,,,,,,,,,,,,,,,,,,,,,,,,,,,,,,,,,,,,,,,,,,,,,,,,,,,,,,,,,,,,
,,5d1e4a3ed4b9d60001ec8f1c,2024-02-22_06h02.32.539,kallum_motion_pilot,2023.2.2,Win32,60.24096386,5d1e4a3ed4b9d60001ec8f1c,65d6bb0e977760de756971f7,65d6c6fbbcd697ef2196c113,0.0334,0.0335,1,12,174,134,1,eightsix,,,,,,,,,,,,,,,,,,,,,,,,,,,,,,,,,,,,,,,,,,,,,,,,,,,,,,,,,,,,,,,,,,,,,,,,,,,,,,,,,,,,,,,,,,,,,,,,,,,,,,,,,,,,,,,,,,,,,,,,,,,,,,,,,,,,,,,,,
,,5d1e4a3ed4b9d60001ec8f1c,2024-02-22_06h02.32.539,kallum_motion_pilot,2023.2.2,Win32,60.24096386,5d1e4a3ed4b9d60001ec8f1c,65d6bb0e977760de756971f7,65d6c6fbbcd697ef2196c113,0.0335,0.0335,1,13,175,104,1,fivesix,,,,,,,,,,,,,,,,,,,,,,,,,,,,,,,,,,,,,,,,,,,,,,,,,,,,,,,,,,,,,,,,,,,,,,,,,,,,,,,,,,,,,,,,,,,,,,,,,,,,,,,,,,,,,,,,,,,,,,,,,,,,,,,,,,,,,,,,,
,,5d1e4a3ed4b9d60001ec8f1c,2024-02-22_06h02.32.539,kallum_motion_pilot,2023.2.2,Win32,60.24096386,5d1e4a3ed4b9d60001ec8f1c,65d6bb0e977760de756971f7,65d6c6fbbcd697ef2196c113,0.0336,0.0336,1,14,176,124,1,sevenfive,,,,,,,,,,,,,,,,,,,,,,,,,,,,,,,,,,,,,,,,,,,,,,,,,,,,,,,,,,,,,,,,,,,,,,,,,,,,,,,,,,,,,,,,,,,,,,,,,,,,,,,,,,,,,,,,,,,,,,,,,,,,,,,,,,,,,,,,,
,,5d1e4a3ed4b9d60001ec8f1c,2024-02-22_06h02.32.539,kallum_motion_pilot,2023.2.2,Win32,60.24096386,5d1e4a3ed4b9d60001ec8f1c,65d6bb0e977760de756971f7,65d6c6fbbcd697ef2196c113,0.0337,0.0337,1,15,177,4,1,threeone,,,,,,,,,,,,,,,,,,,,,,,,,,,,,,,,,,,,,,,,,,,,,,,,,,,,,,,,,,,,,,,,,,,,,,,,,,,,,,,,,,,,,,,,,,,,,,,,,,,,,,,,,,,,,,,,,,,,,,,,,,,,,,,,,,,,,,,,,
,,5d1e4a3ed4b9d60001ec8f1c,2024-02-22_06h02.32.539,kallum_motion_pilot,2023.2.2,Win32,60.24096386,5d1e4a3ed4b9d60001ec8f1c,65d6bb0e977760de756971f7,65d6c6fbbcd697ef2196c113,0.0337,0.0338,1,16,178,149,1,seveneight,,,,,,,,,,,,,,,,,,,,,,,,,,,,,,,,,,,,,,,,,,,,,,,,,,,,,,,,,,,,,,,,,,,,,,,,,,,,,,,,,,,,,,,,,,,,,,,,,,,,,,,,,,,,,,,,,,,,,,,,,,,,,,,,,,,,,,,,,
,,5d1e4a3ed4b9d60001ec8f1c,2024-02-22_06h02.32.539,kallum_motion_pilot,2023.2.2,Win32,60.24096386,5d1e4a3ed4b9d60001ec8f1c,65d6bb0e977760de756971f7,65d6c6fbbcd697ef2196c113,0.0339,0.0339,1,17,179,47,1,fourthree,,,,,,,,,,,,,,,,,,,,,,,,,,,,,,,,,,,,,,,,,,,,,,,,,,,,,,,,,,,,,,,,,,,,,,,,,,,,,,,,,,,,,,,,,,,,,,,,,,,,,,,,,,,,,,,,,,,,,,,,,,,,,,,,,,,,,,,,,
,,5d1e4a3ed4b9d60001ec8f1c,2024-02-22_06h02.32.539,kallum_motion_pilot,2023.2.2,Win32,60.24096386,5d1e4a3ed4b9d60001ec8f1c,65d6bb0e977760de756971f7,65d6c6fbbcd697ef2196c113,0.034,0.034,1,18,180,140,1,sevenfive,,,,,,,,,,,,,,,,,,,,,,,,,,,,,,,,,,,,,,,,,,,,,,,,,,,,,,,,,,,,,,,,,,,,,,,,,,,,,,,,,,,,,,,,,,,,,,,,,,,,,,,,,,,,,,,,,,,,,,,,,,,,,,,,,,,,,,,,,
,,5d1e4a3ed4b9d60001ec8f1c,2024-02-22_06h02.32.539,kallum_motion_pilot,2023.2.2,Win32,60.24096386,5d1e4a3ed4b9d60001ec8f1c,65d6bb0e977760de756971f7,65d6c6fbbcd697ef2196c113,0.034,0.0341,1,19,181,142,1,eightsix,,,,,,,,,,,,,,,,,,,,,,,,,,,,,,,,,,,,,,,,,,,,,,,,,,,,,,,,,,,,,,,,,,,,,,,,,,,,,,,,,,,,,,,,,,,,,,,,,,,,,,,,,,,,,,,,,,,,,,,,,,,,,,,,,,,,,,,,,
,,5d1e4a3ed4b9d60001ec8f1c,2024-02-22_06h02.32.539,kallum_motion_pilot,2023.2.2,Win32,60.24096386,5d1e4a3ed4b9d60001ec8f1c,65d6bb0e977760de756971f7,65d6c6fbbcd697ef2196c113,0.0342,0.0342,1,20,182,103,1,eightseven,,,,,,,,,,,,,,,,,,,,,,,,,,,,,,,,,,,,,,,,,,,,,,,,,,,,,,,,,,,,,,,,,,,,,,,,,,,,,,,,,,,,,,,,,,,,,,,,,,,,,,,,,,,,,,,,,,,,,,,,,,,,,,,,,,,,,,,,,
,,5d1e4a3ed4b9d60001ec8f1c,2024-02-22_06h02.32.539,kallum_motion_pilot,2023.2.2,Win32,60.24096386,5d1e4a3ed4b9d60001ec8f1c,65d6bb0e977760de756971f7,65d6c6fbbcd697ef2196c113,0.0342,0.0343,1,21,183,88,1,fivesix,,,,,,,,,,,,,,,,,,,,,,,,,,,,,,,,,,,,,,,,,,,,,,,,,,,,,,,,,,,,,,,,,,,,,,,,,,,,,,,,,,,,,,,,,,,,,,,,,,,,,,,,,,,,,,,,,,,,,,,,,,,,,,,,,,,,,,,,,
,,5d1e4a3ed4b9d60001ec8f1c,2024-02-22_06h02.32.539,kallum_motion_pilot,2023.2.2,Win32,60.24096386,5d1e4a3ed4b9d60001ec8f1c,65d6bb0e977760de756971f7,65d6c6fbbcd697ef2196c113,0.0343,0.0344,1,22,184,93,1,seveneight,,,,,,,,,,,,,,,,,,,,,,,,,,,,,,,,,,,,,,,,,,,,,,,,,,,,,,,,,,,,,,,,,,,,,,,,,,,,,,,,,,,,,,,,,,,,,,,,,,,,,,,,,,,,,,,,,,,,,,,,,,,,,,,,,,,,,,,,,
,,5d1e4a3ed4b9d60001ec8f1c,2024-02-22_06h02.32.539,kallum_motion_pilot,2023.2.2,Win32,60.24096386,5d1e4a3ed4b9d60001ec8f1c,65d6bb0e977760de756971f7,65d6c6fbbcd697ef2196c113,0.0345,0.0345,1,23,185,108,1,sevenfive,,,,,,,,,,,,,,,,,,,,,,,,,,,,,,,,,,,,,,,,,,,,,,,,,,,,,,,,,,,,,,,,,,,,,,,,,,,,,,,,,,,,,,,,,,,,,,,,,,,,,,,,,,,,,,,,,,,,,,,,,,,,,,,,,,,,,,,,,
,,5d1e4a3ed4b9d60001ec8f1c,2024-02-22_06h02.32.539,kallum_motion_pilot,2023.2.2,Win32,60.24096386,5d1e4a3ed4b9d60001ec8f1c,65d6bb0e977760de756971f7,65d6c6fbbcd697ef2196c113,0.0345,0.0346,1,24,186,17,1,onethree,,,,,,,,,,,,,,,,,,,,,,,,,,,,,,,,,,,,,,,,,,,,,,,,,,,,,,,,,,,,,,,,,,,,,,,,,,,,,,,,,,,,,,,,,,,,,,,,,,,,,,,,,,,,,,,,,,,,,,,,,,,,,,,,,,,,,,,,,
,,5d1e4a3ed4b9d60001ec8f1c,2024-02-22_06h02.32.539,kallum_motion_pilot,2023.2.2,Win32,60.24096386,5d1e4a3ed4b9d60001ec8f1c,65d6bb0e977760de756971f7,65d6c6fbbcd697ef2196c113,0.0347,0.0347,1,25,187,92,1,sevenfive,,,,,,,,,,,,,,,,,,,,,,,,,,,,,,,,,,,,,,,,,,,,,,,,,,,,,,,,,,,,,,,,,,,,,,,,,,,,,,,,,,,,,,,,,,,,,,,,,,,,,,,,,,,,,,,,,,,,,,,,,,,,,,,,,,,,,,,,,
,,5d1e4a3ed4b9d60001ec8f1c,2024-02-22_06h02.32.539,kallum_motion_pilot,2023.2.2,Win32,60.24096386,5d1e4a3ed4b9d60001ec8f1c,65d6bb0e977760de756971f7,65d6c6fbbcd697ef2196c113,0.0347,0.0348,1,26,188,19,1,twofour,,,,,,,,,,,,,,,,,,,,,,,,,,,,,,,,,,,,,,,,,,,,,,,,,,,,,,,,,,,,,,,,,,,,,,,,,,,,,,,,,,,,,,,,,,,,,,,,,,,,,,,,,,,,,,,,,,,,,,,,,,,,,,,,,,,,,,,,,
,,5d1e4a3ed4b9d60001ec8f1c,2024-02-22_06h02.32.539,kallum_motion_pilot,2023.2.2,Win32,60.24096386,5d1e4a3ed4b9d60001ec8f1c,65d6bb0e977760de756971f7,65d6c6fbbcd697ef2196c113,0.0349,0.0349,1,27,189,18,1,twoone,,,,,,,,,,,,,,,,,,,,,,,,,,,,,,,,,,,,,,,,,,,,,,,,,,,,,,,,,,,,,,,,,,,,,,,,,,,,,,,,,,,,,,,,,,,,,,,,,,,,,,,,,,,,,,,,,,,,,,,,,,,,,,,,,,,,,,,,,
,,5d1e4a3ed4b9d60001ec8f1c,2024-02-22_06h02.32.539,kallum_motion_pilot,2023.2.2,Win32,60.24096386,5d1e4a3ed4b9d60001ec8f1c,65d6bb0e977760de756971f7,65d6c6fbbcd697ef2196c113,0.035,0.035,1,28,190,44,1,threeone,,,,,,,,,,,,,,,,,,,,,,,,,,,,,,,,,,,,,,,,,,,,,,,,,,,,,,,,,,,,,,,,,,,,,,,,,,,,,,,,,,,,,,,,,,,,,,,,,,,,,,,,,,,,,,,,,,,,,,,,,,,,,,,,,,,,,,,,,
,,5d1e4a3ed4b9d60001ec8f1c,2024-02-22_06h02.32.539,kallum_motion_pilot,2023.2.2,Win32,60.24096386,5d1e4a3ed4b9d60001ec8f1c,65d6bb0e977760de756971f7,65d6c6fbbcd697ef2196c113,0.035,0.0351,1,29,191,100,1,sevenfive,,,,,,,,,,,,,,,,,,,,,,,,,,,,,,,,,,,,,,,,,,,,,,,,,,,,,,,,,,,,,,,,,,,,,,,,,,,,,,,,,,,,,,,,,,,,,,,,,,,,,,,,,,,,,,,,,,,,,,,,,,,,,,,,,,,,,,,,,
,,5d1e4a3ed4b9d60001ec8f1c,2024-02-22_06h02.32.539,kallum_motion_pilot,2023.2.2,Win32,60.24096386,5d1e4a3ed4b9d60001ec8f1c,65d6bb0e977760de756971f7,65d6c6fbbcd697ef2196c113,0.0352,0.0352,1,30,192,119,1,eightseven,,,,,,,,,,,,,,,,,,,,,,,,,,,,,,,,,,,,,,,,,,,,,,,,,,,,,,,,,,,,,,,,,,,,,,,,,,,,,,,,,,,,,,,,,,,,,,,,,,,,,,,,,,,,,,,,,,,,,,,,,,,,,,,,,,,,,,,,,
,,5d1e4a3ed4b9d60001ec8f1c,2024-02-22_06h02.32.539,kallum_motion_pilot,2023.2.2,Win32,60.24096386,5d1e4a3ed4b9d60001ec8f1c,65d6bb0e977760de756971f7,65d6c6fbbcd697ef2196c113,0.0352,0.0352,1,31,193,84,1,sevenfive,,,,,,,,,,,,,,,,,,,,,,,,,,,,,,,,,,,,,,,,,,,,,,,,,,,,,,,,,,,,,,,,,,,,,,,,,,,,,,,,,,,,,,,,,,,,,,,,,,,,,,,,,,,,,,,,,,,,,,,,,,,,,,,,,,,,,,,,,
,,5d1e4a3ed4b9d60001ec8f1c,2024-02-22_06h02.32.539,kallum_motion_pilot,2023.2.2,Win32,60.24096386,5d1e4a3ed4b9d60001ec8f1c,65d6bb0e977760de756971f7,65d6c6fbbcd697ef2196c113,0.0353,0.0354,1,32,194,16,1,onetwo,,,,,,,,,,,,,,,,,,,,,,,,,,,,,,,,,,,,,,,,,,,,,,,,,,,,,,,,,,,,,,,,,,,,,,,,,,,,,,,,,,,,,,,,,,,,,,,,,,,,,,,,,,,,,,,,,,,,,,,,,,,,,,,,,,,,,,,,,
,,5d1e4a3ed4b9d60001ec8f1c,2024-02-22_06h02.32.539,kallum_motion_pilot,2023.2.2,Win32,60.24096386,5d1e4a3ed4b9d60001ec8f1c,65d6bb0e977760de756971f7,65d6c6fbbcd697ef2196c113,0.0355,0.0355,1,33,195,21,1,threefour,,,,,,,,,,,,,,,,,,,,,,,,,,,,,,,,,,,,,,,,,,,,,,,,,,,,,,,,,,,,,,,,,,,,,,,,,,,,,,,,,,,,,,,,,,,,,,,,,,,,,,,,,,,,,,,,,,,,,,,,,,,,,,,,,,,,,,,,,
,,5d1e4a3ed4b9d60001ec8f1c,2024-02-22_06h02.32.539,kallum_motion_pilot,2023.2.2,Win32,60.24096386,5d1e4a3ed4b9d60001ec8f1c,65d6bb0e977760de756971f7,65d6c6fbbcd697ef2196c113,0.0356,0.0356,1,34,196,132,1,sevenfive,,,,,,,,,,,,,,,,,,,,,,,,,,,,,,,,,,,,,,,,,,,,,,,,,,,,,,,,,,,,,,,,,,,,,,,,,,,,,,,,,,,,,,,,,,,,,,,,,,,,,,,,,,,,,,,,,,,,,,,,,,,,,,,,,,,,,,,,,
,,5d1e4a3ed4b9d60001ec8f1c,2024-02-22_06h02.32.539,kallum_motion_pilot,2023.2.2,Win32,60.24096386,5d1e4a3ed4b9d60001ec8f1c,65d6bb0e977760de756971f7,65d6c6fbbcd697ef2196c113,0.0357,0.0357,1,35,197,107,1,sixeight,,,,,,,,,,,,,,,,,,,,,,,,,,,,,,,,,,,,,,,,,,,,,,,,,,,,,,,,,,,,,,,,,,,,,,,,,,,,,,,,,,,,,,,,,,,,,,,,,,,,,,,,,,,,,,,,,,,,,,,,,,,,,,,,,,,,,,,,,
,,5d1e4a3ed4b9d60001ec8f1c,2024-02-22_06h02.32.539,kallum_motion_pilot,2023.2.2,Win32,60.24096386,5d1e4a3ed4b9d60001ec8f1c,65d6bb0e977760de756971f7,65d6c6fbbcd697ef2196c113,0.0358,0.0358,1,36,198,65,1,onethree,,,,,,,,,,,,,,,,,,,,,,,,,,,,,,,,,,,,,,,,,,,,,,,,,,,,,,,,,,,,,,,,,,,,,,,,,,,,,,,,,,,,,,,,,,,,,,,,,,,,,,,,,,,,,,,,,,,,,,,,,,,,,,,,,,,,,,,,,
,,5d1e4a3ed4b9d60001ec8f1c,2024-02-22_06h02.32.539,kallum_motion_pilot,2023.2.2,Win32,60.24096386,5d1e4a3ed4b9d60001ec8f1c,65d6bb0e977760de756971f7,65d6c6fbbcd697ef2196c113,0.0359,0.0359,1,37,199,141,1,seveneight,,,,,,,,,,,,,,,,,,,,,,,,,,,,,,,,,,,,,,,,,,,,,,,,,,,,,,,,,,,,,,,,,,,,,,,,,,,,,,,,,,,,,,,,,,,,,,,,,,,,,,,,,,,,,,,,,,,,,,,,,,,,,,,,,,,,,,,,,
,,5d1e4a3ed4b9d60001ec8f1c,2024-02-22_06h02.32.539,kallum_motion_pilot,2023.2.2,Win32,60.24096386,5d1e4a3ed4b9d60001ec8f1c,65d6bb0e977760de756971f7,65d6c6fbbcd697ef2196c113,0.036,0.0361,1,38,200,54,1,fourtwo,,,,,,,,,,,,,,,,,,,,,,,,,,,,,,,,,,,,,,,,,,,,,,,,,,,,,,,,,,,,,,,,,,,,,,,,,,,,,,,,,,,,,,,,,,,,,,,,,,,,,,,,,,,,,,,,,,,,,,,,,,,,,,,,,,,,,,,,,
,,5d1e4a3ed4b9d60001ec8f1c,2024-02-22_06h02.32.539,kallum_motion_pilot,2023.2.2,Win32,60.24096386,5d1e4a3ed4b9d60001ec8f1c,65d6bb0e977760de756971f7,65d6c6fbbcd697ef2196c113,0.0362,0.0362,1,39,201,26,1,twoone,,,,,,,,,,,,,,,,,,,,,,,,,,,,,,,,,,,,,,,,,,,,,,,,,,,,,,,,,,,,,,,,,,,,,,,,,,,,,,,,,,,,,,,,,,,,,,,,,,,,,,,,,,,,,,,,,,,,,,,,,,,,,,,,,,,,,,,,,
,,5d1e4a3ed4b9d60001ec8f1c,2024-02-22_06h02.32.539,kallum_motion_pilot,2023.2.2,Win32,60.24096386,5d1e4a3ed4b9d60001ec8f1c,65d6bb0e977760de756971f7,65d6c6fbbcd697ef2196c113,0.0362,0.0362,1,40,202,136,1,fivesix,,,,,,,,,,,,,,,,,,,,,,,,,,,,,,,,,,,,,,,,,,,,,,,,,,,,,,,,,,,,,,,,,,,,,,,,,,,,,,,,,,,,,,,,,,,,,,,,,,,,,,,,,,,,,,,,,,,,,,,,,,,,,,,,,,,,,,,,,
,,5d1e4a3ed4b9d60001ec8f1c,2024-02-22_06h02.32.539,kallum_motion_pilot,2023.2.2,Win32,60.24096386,5d1e4a3ed4b9d60001ec8f1c,65d6bb0e977760de756971f7,65d6c6fbbcd697ef2196c113,0.0364,0.0364,1,41,203,53,1,threefour,,,,,,,,,,,,,,,,,,,,,,,,,,,,,,,,,,,,,,,,,,,,,,,,,,,,,,,,,,,,,,,,,,,,,,,,,,,,,,,,,,,,,,,,,,,,,,,,,,,,,,,,,,,,,,,,,,,,,,,,,,,,,,,,,,,,,,,,,
,,5d1e4a3ed4b9d60001ec8f1c,2024-02-22_06h02.32.539,kallum_motion_pilot,2023.2.2,Win32,60.24096386,5d1e4a3ed4b9d60001ec8f1c,65d6bb0e977760de756971f7,65d6c6fbbcd697ef2196c113,0.0364,0.0365,1,42,204,129,1,fiveseven,,,,,,,,,,,,,,,,,,,,,,,,,,,,,,,,,,,,,,,,,,,,,,,,,,,,,,,,,,,,,,,,,,,,,,,,,,,,,,,,,,,,,,,,,,,,,,,,,,,,,,,,,,,,,,,,,,,,,,,,,,,,,,,,,,,,,,,,,
,,5d1e4a3ed4b9d60001ec8f1c,2024-02-22_06h02.32.539,kallum_motion_pilot,2023.2.2,Win32,60.24096386,5d1e4a3ed4b9d60001ec8f1c,65d6bb0e977760de756971f7,65d6c6fbbcd697ef2196c113,0.0366,0.0366,1,43,205,114,1,sixfive,,,,,,,,,,,,,,,,,,,,,,,,,,,,,,,,,,,,,,,,,,,,,,,,,,,,,,,,,,,,,,,,,,,,,,,,,,,,,,,,,,,,,,,,,,,,,,,,,,,,,,,,,,,,,,,,,,,,,,,,,,,,,,,,,,,,,,,,,
,,5d1e4a3ed4b9d60001ec8f1c,2024-02-22_06h02.32.539,kallum_motion_pilot,2023.2.2,Win32,60.24096386,5d1e4a3ed4b9d60001ec8f1c,65d6bb0e977760de756971f7,65d6c6fbbcd697ef2196c113,0.0367,0.0367,1,44,206,28,1,threeone,,,,,,,,,,,,,,,,,,,,,,,,,,,,,,,,,,,,,,,,,,,,,,,,,,,,,,,,,,,,,,,,,,,,,,,,,,,,,,,,,,,,,,,,,,,,,,,,,,,,,,,,,,,,,,,,,,,,,,,,,,,,,,,,,,,,,,,,,
,,5d1e4a3ed4b9d60001ec8f1c,2024-02-22_06h02.32.539,kallum_motion_pilot,2023.2.2,Win32,60.24096386,5d1e4a3ed4b9d60001ec8f1c,65d6bb0e977760de756971f7,65d6c6fbbcd697ef2196c113,0.0368,0.0368,1,45,207,161,1,fiveseven,,,,,,,,,,,,,,,,,,,,,,,,,,,,,,,,,,,,,,,,,,,,,,,,,,,,,,,,,,,,,,,,,,,,,,,,,,,,,,,,,,,,,,,,,,,,,,,,,,,,,,,,,,,,,,,,,,,,,,,,,,,,,,,,,,,,,,,,,
,,5d1e4a3ed4b9d60001ec8f1c,2024-02-22_06h02.32.539,kallum_motion_pilot,2023.2.2,Win32,60.24096386,5d1e4a3ed4b9d60001ec8f1c,65d6bb0e977760de756971f7,65d6c6fbbcd697ef2196c113,0.0368,0.0369,1,46,208,55,1,fourthree,,,,,,,,,,,,,,,,,,,,,,,,,,,,,,,,,,,,,,,,,,,,,,,,,,,,,,,,,,,,,,,,,,,,,,,,,,,,,,,,,,,,,,,,,,,,,,,,,,,,,,,,,,,,,,,,,,,,,,,,,,,,,,,,,,,,,,,,,
,,5d1e4a3ed4b9d60001ec8f1c,2024-02-22_06h02.32.539,kallum_motion_pilot,2023.2.2,Win32,60.24096386,5d1e4a3ed4b9d60001ec8f1c,65d6bb0e977760de756971f7,65d6c6fbbcd697ef2196c113,0.0369,0.037,1,47,209,118,1,eightsix,,,,,,,,,,,,,,,,,,,,,,,,,,,,,,,,,,,,,,,,,,,,,,,,,,,,,,,,,,,,,,,,,,,,,,,,,,,,,,,,,,,,,,,,,,,,,,,,,,,,,,,,,,,,,,,,,,,,,,,,,,,,,,,,,,,,,,,,,
,,5d1e4a3ed4b9d60001ec8f1c,2024-02-22_06h02.32.539,kallum_motion_pilot,2023.2.2,Win32,60.24096386,5d1e4a3ed4b9d60001ec8f1c,65d6bb0e977760de756971f7,65d6c6fbbcd697ef2196c113,0.037,0.0371,1,48,210,37,1,threefour,,,,,,,,,,,,,,,,,,,,,,,,,,,,,,,,,,,,,,,,,,,,,,,,,,,,,,,,,,,,,,,,,,,,,,,,,,,,,,,,,,,,,,,,,,,,,,,,,,,,,,,,,,,,,,,,,,,,,,,,,,,,,,,,,,,,,,,,,
,,5d1e4a3ed4b9d60001ec8f1c,2024-02-22_06h02.32.539,kallum_motion_pilot,2023.2.2,Win32,60.24096386,5d1e4a3ed4b9d60001ec8f1c,65d6bb0e977760de756971f7,65d6c6fbbcd697ef2196c113,0.0371,0.0372,1,49,211,11,1,twofour,,,,,,,,,,,,,,,,,,,,,,,,,,,,,,,,,,,,,,,,,,,,,,,,,,,,,,,,,,,,,,,,,,,,,,,,,,,,,,,,,,,,,,,,,,,,,,,,,,,,,,,,,,,,,,,,,,,,,,,,,,,,,,,,,,,,,,,,,
,,5d1e4a3ed4b9d60001ec8f1c,2024-02-22_06h02.32.539,kallum_motion_pilot,2023.2.2,Win32,60.24096386,5d1e4a3ed4b9d60001ec8f1c,65d6bb0e977760de756971f7,65d6c6fbbcd697ef2196c113,0.0372,0.0373,1,50,212,143,1,eightseven,,,,,,,,,,,,,,,,,,,,,,,,,,,,,,,,,,,,,,,,,,,,,,,,,,,,,,,,,,,,,,,,,,,,,,,,,,,,,,,,,,,,,,,,,,,,,,,,,,,,,,,,,,,,,,,,,,,,,,,,,,,,,,,,,,,,,,,,,
,,5d1e4a3ed4b9d60001ec8f1c,2024-02-22_06h02.32.539,kallum_motion_pilot,2023.2.2,Win32,60.24096386,5d1e4a3ed4b9d60001ec8f1c,65d6bb0e977760de756971f7,65d6c6fbbcd697ef2196c113,0.0373,0.0374,1,51,213,99,1,sixeight,,,,,,,,,,,,,,,,,,,,,,,,,,,,,,,,,,,,,,,,,,,,,,,,,,,,,,,,,,,,,,,,,,,,,,,,,,,,,,,,,,,,,,,,,,,,,,,,,,,,,,,,,,,,,,,,,,,,,,,,,,,,,,,,,,,,,,,,,
,,5d1e4a3ed4b9d60001ec8f1c,2024-02-22_06h02.32.539,kallum_motion_pilot,2023.2.2,Win32,60.24096386,5d1e4a3ed4b9d60001ec8f1c,65d6bb0e977760de756971f7,65d6c6fbbcd697ef2196c113,0.0375,0.0375,1,52,214,59,1,twofour,,,,,,,,,,,,,,,,,,,,,,,,,,,,,,,,,,,,,,,,,,,,,,,,,,,,,,,,,,,,,,,,,,,,,,,,,,,,,,,,,,,,,,,,,,,,,,,,,,,,,,,,,,,,,,,,,,,,,,,,,,,,,,,,,,,,,,,,,
,,5d1e4a3ed4b9d60001ec8f1c,2024-02-22_06h02.32.539,kallum_motion_pilot,2023.2.2,Win32,60.24096386,5d1e4a3ed4b9d60001ec8f1c,65d6bb0e977760de756971f7,65d6c6fbbcd697ef2196c113,0.0376,0.0376,1,53,215,109,1,seveneight,,,,,,,,,,,,,,,,,,,,,,,,,,,,,,,,,,,,,,,,,,,,,,,,,,,,,,,,,,,,,,,,,,,,,,,,,,,,,,,,,,,,,,,,,,,,,,,,,,,,,,,,,,,,,,,,,,,,,,,,,,,,,,,,,,,,,,,,,
,,5d1e4a3ed4b9d60001ec8f1c,2024-02-22_06h02.32.539,kallum_motion_pilot,2023.2.2,Win32,60.24096386,5d1e4a3ed4b9d60001ec8f1c,65d6bb0e977760de756971f7,65d6c6fbbcd697ef2196c113,0.0376,0.0377,1,54,216,20,1,threeone,,,,,,,,,,,,,,,,,,,,,,,,,,,,,,,,,,,,,,,,,,,,,,,,,,,,,,,,,,,,,,,,,,,,,,,,,,,,,,,,,,,,,,,,,,,,,,,,,,,,,,,,,,,,,,,,,,,,,,,,,,,,,,,,,,,,,,,,,
,,5d1e4a3ed4b9d60001ec8f1c,2024-02-22_06h02.32.539,kallum_motion_pilot,2023.2.2,Win32,60.24096386,5d1e4a3ed4b9d60001ec8f1c,65d6bb0e977760de756971f7,65d6c6fbbcd697ef2196c113,0.0378,0.0378,1,55,217,110,1,eightsix,,,,,,,,,,,,,,,,,,,,,,,,,,,,,,,,,,,,,,,,,,,,,,,,,,,,,,,,,,,,,,,,,,,,,,,,,,,,,,,,,,,,,,,,,,,,,,,,,,,,,,,,,,,,,,,,,,,,,,,,,,,,,,,,,,,,,,,,,
,,5d1e4a3ed4b9d60001ec8f1c,2024-02-22_06h02.32.539,kallum_motion_pilot,2023.2.2,Win32,60.24096386,5d1e4a3ed4b9d60001ec8f1c,65d6bb0e977760de756971f7,65d6c6fbbcd697ef2196c113,0.0378,0.0379,1,56,218,45,1,threefour,,,,,,,,,,,,,,,,,,,,,,,,,,,,,,,,,,,,,,,,,,,,,,,,,,,,,,,,,,,,,,,,,,,,,,,,,,,,,,,,,,,,,,,,,,,,,,,,,,,,,,,,,,,,,,,,,,,,,,,,,,,,,,,,,,,,,,,,,
,,5d1e4a3ed4b9d60001ec8f1c,2024-02-22_06h02.32.539,kallum_motion_pilot,2023.2.2,Win32,60.24096386,5d1e4a3ed4b9d60001ec8f1c,65d6bb0e977760de756971f7,65d6c6fbbcd697ef2196c113,0.038,0.038,1,57,219,68,1,threeone,,,,,,,,,,,,,,,,,,,,,,,,,,,,,,,,,,,,,,,,,,,,,,,,,,,,,,,,,,,,,,,,,,,,,,,,,,,,,,,,,,,,,,,,,,,,,,,,,,,,,,,,,,,,,,,,,,,,,,,,,,,,,,,,,,,,,,,,,
,,5d1e4a3ed4b9d60001ec8f1c,2024-02-22_06h02.32.539,kallum_motion_pilot,2023.2.2,Win32,60.24096386,5d1e4a3ed4b9d60001ec8f1c,65d6bb0e977760de756971f7,65d6c6fbbcd697ef2196c113,0.038,0.0381,1,58,220,156,1,sevenfive,,,,,,,,,,,,,,,,,,,,,,,,,,,,,,,,,,,,,,,,,,,,,,,,,,,,,,,,,,,,,,,,,,,,,,,,,,,,,,,,,,,,,,,,,,,,,,,,,,,,,,,,,,,,,,,,,,,,,,,,,,,,,,,,,,,,,,,,,
,,5d1e4a3ed4b9d60001ec8f1c,2024-02-22_06h02.32.539,kallum_motion_pilot,2023.2.2,Win32,60.24096386,5d1e4a3ed4b9d60001ec8f1c,65d6bb0e977760de756971f7,65d6c6fbbcd697ef2196c113,0.0381,0.0382,1,59,221,135,1,eightseven,,,,,,,,,,,,,,,,,,,,,,,,,,,,,,,,,,,,,,,,,,,,,,,,,,,,,,,,,,,,,,,,,,,,,,,,,,,,,,,,,,,,,,,,,,,,,,,,,,,,,,,,,,,,,,,,,,,,,,,,,,,,,,,,,,,,,,,,,
,,5d1e4a3ed4b9d60001ec8f1c,2024-02-22_06h02.32.539,kallum_motion_pilot,2023.2.2,Win32,60.24096386,5d1e4a3ed4b9d60001ec8f1c,65d6bb0e977760de756971f7,65d6c6fbbcd697ef2196c113,0.0383,0.0383,1,60,222,153,1,fiveseven,,,,,,,,,,,,,,,,,,,,,,,,,,,,,,,,,,,,,,,,,,,,,,,,,,,,,,,,,,,,,,,,,,,,,,,,,,,,,,,,,,,,,,,,,,,,,,,,,,,,,,,,,,,,,,,,,,,,,,,,,,,,,,,,,,,,,,,,,
,,5d1e4a3ed4b9d60001ec8f1c,2024-02-22_06h02.32.539,kallum_motion_pilot,2023.2.2,Win32,60.24096386,5d1e4a3ed4b9d60001ec8f1c,65d6bb0e977760de756971f7,65d6c6fbbcd697ef2196c113,0.0383,0.0383,1,61,223,122,1,sixfive,,,,,,,,,,,,,,,,,,,,,,,,,,,,,,,,,,,,,,,,,,,,,,,,,,,,,,,,,,,,,,,,,,,,,,,,,,,,,,,,,,,,,,,,,,,,,,,,,,,,,,,,,,,,,,,,,,,,,,,,,,,,,,,,,,,,,,,,,
,,5d1e4a3ed4b9d60001ec8f1c,2024-02-22_06h02.32.539,kallum_motion_pilot,2023.2.2,Win32,60.24096386,5d1e4a3ed4b9d60001ec8f1c,65d6bb0e977760de756971f7,65d6c6fbbcd697ef2196c113,0.0384,0.0385,1,62,224,39,1,fourthree,,,,,,,,,,,,,,,,,,,,,,,,,,,,,,,,,,,,,,,,,,,,,,,,,,,,,,,,,,,,,,,,,,,,,,,,,,,,,,,,,,,,,,,,,,,,,,,,,,,,,,,,,,,,,,,,,,,,,,,,,,,,,,,,,,,,,,,,,
,,5d1e4a3ed4b9d60001ec8f1c,2024-02-22_06h02.32.539,kallum_motion_pilot,2023.2.2,Win32,60.24096386,5d1e4a3ed4b9d60001ec8f1c,65d6bb0e977760de756971f7,65d6c6fbbcd697ef2196c113,0.0385,0.0386,1,63,225,116,1,sevenfive,,,,,,,,,,,,,,,,,,,,,,,,,,,,,,,,,,,,,,,,,,,,,,,,,,,,,,,,,,,,,,,,,,,,,,,,,,,,,,,,,,,,,,,,,,,,,,,,,,,,,,,,,,,,,,,,,,,,,,,,,,,,,,,,,,,,,,,,,
,,5d1e4a3ed4b9d60001ec8f1c,2024-02-22_06h02.32.539,kallum_motion_pilot,2023.2.2,Win32,60.24096386,5d1e4a3ed4b9d60001ec8f1c,65d6bb0e977760de756971f7,65d6c6fbbcd697ef2196c113,0.0386,0.0387,1,64,226,95,1,eightseven,,,,,,,,,,,,,,,,,,,,,,,,,,,,,,,,,,,,,,,,,,,,,,,,,,,,,,,,,,,,,,,,,,,,,,,,,,,,,,,,,,,,,,,,,,,,,,,,,,,,,,,,,,,,,,,,,,,,,,,,,,,,,,,,,,,,,,,,,
,,5d1e4a3ed4b9d60001ec8f1c,2024-02-22_06h02.32.539,kallum_motion_pilot,2023.2.2,Win32,60.24096386,5d1e4a3ed4b9d60001ec8f1c,65d6bb0e977760de756971f7,65d6c6fbbcd697ef2196c113,0.0388,0.0388,1,65,227,102,1,eightsix,,,,,,,,,,,,,,,,,,,,,,,,,,,,,,,,,,,,,,,,,,,,,,,,,,,,,,,,,,,,,,,,,,,,,,,,,,,,,,,,,,,,,,,,,,,,,,,,,,,,,,,,,,,,,,,,,,,,,,,,,,,,,,,,,,,,,,,,,
,,5d1e4a3ed4b9d60001ec8f1c,2024-02-22_06h02.32.539,kallum_motion_pilot,2023.2.2,Win32,60.24096386,5d1e4a3ed4b9d60001ec8f1c,65d6bb0e977760de756971f7,65d6c6fbbcd697ef2196c113,0.0389,0.0389,1,66,228,40,1,onetwo,,,,,,,,,,,,,,,,,,,,,,,,,,,,,,,,,,,,,,,,,,,,,,,,,,,,,,,,,,,,,,,,,,,,,,,,,,,,,,,,,,,,,,,,,,,,,,,,,,,,,,,,,,,,,,,,,,,,,,,,,,,,,,,,,,,,,,,,,
,,5d1e4a3ed4b9d60001ec8f1c,2024-02-22_06h02.32.539,kallum_motion_pilot,2023.2.2,Win32,60.24096386,5d1e4a3ed4b9d60001ec8f1c,65d6bb0e977760de756971f7,65d6c6fbbcd697ef2196c113,0.0389,0.039,1,67,229,151,1,eightseven,,,,,,,,,,,,,,,,,,,,,,,,,,,,,,,,,,,,,,,,,,,,,,,,,,,,,,,,,,,,,,,,,,,,,,,,,,,,,,,,,,,,,,,,,,,,,,,,,,,,,,,,,,,,,,,,,,,,,,,,,,,,,,,,,,,,,,,,,
,,5d1e4a3ed4b9d60001ec8f1c,2024-02-22_06h02.32.539,kallum_motion_pilot,2023.2.2,Win32,60.24096386,5d1e4a3ed4b9d60001ec8f1c,65d6bb0e977760de756971f7,65d6c6fbbcd697ef2196c113,0.0391,0.0391,1,68,230,63,1,fourthree,,,,,,,,,,,,,,,,,,,,,,,,,,,,,,,,,,,,,,,,,,,,,,,,,,,,,,,,,,,,,,,,,,,,,,,,,,,,,,,,,,,,,,,,,,,,,,,,,,,,,,,,,,,,,,,,,,,,,,,,,,,,,,,,,,,,,,,,,
,,5d1e4a3ed4b9d60001ec8f1c,2024-02-22_06h02.32.539,kallum_motion_pilot,2023.2.2,Win32,60.24096386,5d1e4a3ed4b9d60001ec8f1c,65d6bb0e977760de756971f7,65d6c6fbbcd697ef2196c113,0.0392,0.0392,1,69,231,150,1,eightsix,,,,,,,,,,,,,,,,,,,,,,,,,,,,,,,,,,,,,,,,,,,,,,,,,,,,,,,,,,,,,,,,,,,,,,,,,,,,,,,,,,,,,,,,,,,,,,,,,,,,,,,,,,,,,,,,,,,,,,,,,,,,,,,,,,,,,,,,,
,,5d1e4a3ed4b9d60001ec8f1c,2024-02-22_06h02.32.539,kallum_motion_pilot,2023.2.2,Win32,60.24096386,5d1e4a3ed4b9d60001ec8f1c,65d6bb0e977760de756971f7,65d6c6fbbcd697ef2196c113,0.0393,0.0393,1,70,232,160,1,fivesix,,,,,,,,,,,,,,,,,,,,,,,,,,,,,,,,,,,,,,,,,,,,,,,,,,,,,,,,,,,,,,,,,,,,,,,,,,,,,,,,,,,,,,,,,,,,,,,,,,,,,,,,,,,,,,,,,,,,,,,,,,,,,,,,,,,,,,,,,
,,5d1e4a3ed4b9d60001ec8f1c,2024-02-22_06h02.32.539,kallum_motion_pilot,2023.2.2,Win32,60.24096386,5d1e4a3ed4b9d60001ec8f1c,65d6bb0e977760de756971f7,65d6c6fbbcd697ef2196c113,0.0394,0.0394,1,71,233,41,1,onethree,,,,,,,,,,,,,,,,,,,,,,,,,,,,,,,,,,,,,,,,,,,,,,,,,,,,,,,,,,,,,,,,,,,,,,,,,,,,,,,,,,,,,,,,,,,,,,,,,,,,,,,,,,,,,,,,,,,,,,,,,,,,,,,,,,,,,,,,,
,,5d1e4a3ed4b9d60001ec8f1c,2024-02-22_06h02.32.539,kallum_motion_pilot,2023.2.2,Win32,60.24096386,5d1e4a3ed4b9d60001ec8f1c,65d6bb0e977760de756971f7,65d6c6fbbcd697ef2196c113,0.0395,0.0395,1,72,234,89,1,fiveseven,,,,,,,,,,,,,,,,,,,,,,,,,,,,,,,,,,,,,,,,,,,,,,,,,,,,,,,,,,,,,,,,,,,,,,,,,,,,,,,,,,,,,,,,,,,,,,,,,,,,,,,,,,,,,,,,,,,,,,,,,,,,,,,,,,,,,,,,,
,,5d1e4a3ed4b9d60001ec8f1c,2024-02-22_06h02.32.539,kallum_motion_pilot,2023.2.2,Win32,60.24096386,5d1e4a3ed4b9d60001ec8f1c,65d6bb0e977760de756971f7,65d6c6fbbcd697ef2196c113,0.0395,0.0396,1,73,235,123,1,sixeight,,,,,,,,,,,,,,,,,,,,,,,,,,,,,,,,,,,,,,,,,,,,,,,,,,,,,,,,,,,,,,,,,,,,,,,,,,,,,,,,,,,,,,,,,,,,,,,,,,,,,,,,,,,,,,,,,,,,,,,,,,,,,,,,,,,,,,,,,
,,5d1e4a3ed4b9d60001ec8f1c,2024-02-22_06h02.32.539,kallum_motion_pilot,2023.2.2,Win32,60.24096386,5d1e4a3ed4b9d60001ec8f1c,65d6bb0e977760de756971f7,65d6c6fbbcd697ef2196c113,0.0396,0.0397,1,74,236,10,1,twoone,,,,,,,,,,,,,,,,,,,,,,,,,,,,,,,,,,,,,,,,,,,,,,,,,,,,,,,,,,,,,,,,,,,,,,,,,,,,,,,,,,,,,,,,,,,,,,,,,,,,,,,,,,,,,,,,,,,,,,,,,,,,,,,,,,,,,,,,,
,,5d1e4a3ed4b9d60001ec8f1c,2024-02-22_06h02.32.539,kallum_motion_pilot,2023.2.2,Win32,60.24096386,5d1e4a3ed4b9d60001ec8f1c,65d6bb0e977760de756971f7,65d6c6fbbcd697ef2196c113,0.0397,0.0398,1,75,237,52,1,threeone,,,,,,,,,,,,,,,,,,,,,,,,,,,,,,,,,,,,,,,,,,,,,,,,,,,,,,,,,,,,,,,,,,,,,,,,,,,,,,,,,,,,,,,,,,,,,,,,,,,,,,,,,,,,,,,,,,,,,,,,,,,,,,,,,,,,,,,,,
,,5d1e4a3ed4b9d60001ec8f1c,2024-02-22_06h02.32.539,kallum_motion_pilot,2023.2.2,Win32,60.24096386,5d1e4a3ed4b9d60001ec8f1c,65d6bb0e977760de756971f7,65d6c6fbbcd697ef2196c113,0.0399,0.0399,1,76,238,71,1,fourthree,,,,,,,,,,,,,,,,,,,,,,,,,,,,,,,,,,,,,,,,,,,,,,,,,,,,,,,,,,,,,,,,,,,,,,,,,,,,,,,,,,,,,,,,,,,,,,,,,,,,,,,,,,,,,,,,,,,,,,,,,,,,,,,,,,,,,,,,,
,,5d1e4a3ed4b9d60001ec8f1c,2024-02-22_06h02.32.539,kallum_motion_pilot,2023.2.2,Win32,60.24096386,5d1e4a3ed4b9d60001ec8f1c,65d6bb0e977760de756971f7,65d6c6fbbcd697ef2196c113,0.04,0.04,1,77,239,0,1,onetwo,,,,,,,,,,,,,,,,,,,,,,,,,,,,,,,,,,,,,,,,,,,,,,,,,,,,,,,,,,,,,,,,,,,,,,,,,,,,,,,,,,,,,,,,,,,,,,,,,,,,,,,,,,,,,,,,,,,,,,,,,,,,,,,,,,,,,,,,,
,,5d1e4a3ed4b9d60001ec8f1c,2024-02-22_06h02.32.539,kallum_motion_pilot,2023.2.2,Win32,60.24096386,5d1e4a3ed4b9d60001ec8f1c,65d6bb0e977760de756971f7,65d6c6fbbcd697ef2196c113,0.04,0.0401,1,78,240,23,1,fourthree,,,,,,,,,,,,,,,,,,,,,,,,,,,,,,,,,,,,,,,,,,,,,,,,,,,,,,,,,,,,,,,,,,,,,,,,,,,,,,,,,,,,,,,,,,,,,,,,,,,,,,,,,,,,,,,,,,,,,,,,,,,,,,,,,,,,,,,,,
,,5d1e4a3ed4b9d60001ec8f1c,2024-02-22_06h02.32.539,kallum_motion_pilot,2023.2.2,Win32,60.24096386,5d1e4a3ed4b9d60001ec8f1c,65d6bb0e977760de756971f7,65d6c6fbbcd697ef2196c113,0.0402,0.0402,1,79,241,48,1,onetwo,,,,,,,,,,,,,,,,,,,,,,,,,,,,,,,,,,,,,,,,,,,,,,,,,,,,,,,,,,,,,,,,,,,,,,,,,,,,,,,,,,,,,,,,,,,,,,,,,,,,,,,,,,,,,,,,,,,,,,,,,,,,,,,,,,,,,,,,,
,,5d1e4a3ed4b9d60001ec8f1c,2024-02-22_06h02.32.539,kallum_motion_pilot,2023.2.2,Win32,60.24096386,5d1e4a3ed4b9d60001ec8f1c,65d6bb0e977760de756971f7,65d6c6fbbcd697ef2196c113,0.0402,0.0403,1,80,242,157,1,seveneight,,,,,,,,,,,,,,,,,,,,,,,,,,,,,,,,,,,,,,,,,,,,,,,,,,,,,,,,,,,,,,,,,,,,,,,,,,,,,,,,,,,,,,,,,,,,,,,,,,,,,,,,,,,,,,,,,,,,,,,,,,,,,,,,,,,,,,,,,
,,5d1e4a3ed4b9d60001ec8f1c,2024-02-22_06h02.32.539,kallum_motion_pilot,2023.2.2,Win32,60.24096386,5d1e4a3ed4b9d60001ec8f1c,65d6bb0e977760de756971f7,65d6c6fbbcd697ef2196c113,0.0404,0.0404,1,81,243,96,1,fivesix,,,,,,,,,,,,,,,,,,,,,,,,,,,,,,,,,,,,,,,,,,,,,,,,,,,,,,,,,,,,,,,,,,,,,,,,,,,,,,,,,,,,,,,,,,,,,,,,,,,,,,,,,,,,,,,,,,,,,,,,,,,,,,,,,,,,,,,,,
,,5d1e4a3ed4b9d60001ec8f1c,2024-02-22_06h02.32.539,kallum_motion_pilot,2023.2.2,Win32,60.24096386,5d1e4a3ed4b9d60001ec8f1c,65d6bb0e977760de756971f7,65d6c6fbbcd697ef2196c113,0.0405,0.0405,1,82,244,85,1,seveneight,,,,,,,,,,,,,,,,,,,,,,,,,,,,,,,,,,,,,,,,,,,,,,,,,,,,,,,,,,,,,,,,,,,,,,,,,,,,,,,,,,,,,,,,,,,,,,,,,,,,,,,,,,,,,,,,,,,,,,,,,,,,,,,,,,,,,,,,,
,,5d1e4a3ed4b9d60001ec8f1c,2024-02-22_06h02.32.539,kallum_motion_pilot,2023.2.2,Win32,60.24096386,5d1e4a3ed4b9d60001ec8f1c,65d6bb0e977760de756971f7,65d6c6fbbcd697ef2196c113,0.0405,0.0406,1,83,245,77,1,threefour,,,,,,,,,,,,,,,,,,,,,,,,,,,,,,,,,,,,,,,,,,,,,,,,,,,,,,,,,,,,,,,,,,,,,,,,,,,,,,,,,,,,,,,,,,,,,,,,,,,,,,,,,,,,,,,,,,,,,,,,,,,,,,,,,,,,,,,,,
,,5d1e4a3ed4b9d60001ec8f1c,2024-02-22_06h02.32.539,kallum_motion_pilot,2023.2.2,Win32,60.24096386,5d1e4a3ed4b9d60001ec8f1c,65d6bb0e977760de756971f7,65d6c6fbbcd697ef2196c113,0.0407,0.0407,1,84,246,58,1,twoone,,,,,,,,,,,,,,,,,,,,,,,,,,,,,,,,,,,,,,,,,,,,,,,,,,,,,,,,,,,,,,,,,,,,,,,,,,,,,,,,,,,,,,,,,,,,,,,,,,,,,,,,,,,,,,,,,,,,,,,,,,,,,,,,,,,,,,,,,
,,5d1e4a3ed4b9d60001ec8f1c,2024-02-22_06h02.32.539,kallum_motion_pilot,2023.2.2,Win32,60.24096386,5d1e4a3ed4b9d60001ec8f1c,65d6bb0e977760de756971f7,65d6c6fbbcd697ef2196c113,0.0408,0.0408,1,85,247,31,1,fourthree,,,,,,,,,,,,,,,,,,,,,,,,,,,,,,,,,,,,,,,,,,,,,,,,,,,,,,,,,,,,,,,,,,,,,,,,,,,,,,,,,,,,,,,,,,,,,,,,,,,,,,,,,,,,,,,,,,,,,,,,,,,,,,,,,,,,,,,,,
,,5d1e4a3ed4b9d60001ec8f1c,2024-02-22_06h02.32.539,kallum_motion_pilot,2023.2.2,Win32,60.24096386,5d1e4a3ed4b9d60001ec8f1c,65d6bb0e977760de756971f7,65d6c6fbbcd697ef2196c113,0.0408,0.0409,1,86,248,86,1,eightsix,,,,,,,,,,,,,,,,,,,,,,,,,,,,,,,,,,,,,,,,,,,,,,,,,,,,,,,,,,,,,,,,,,,,,,,,,,,,,,,,,,,,,,,,,,,,,,,,,,,,,,,,,,,,,,,,,,,,,,,,,,,,,,,,,,,,,,,,,
,,5d1e4a3ed4b9d60001ec8f1c,2024-02-22_06h02.32.539,kallum_motion_pilot,2023.2.2,Win32,60.24096386,5d1e4a3ed4b9d60001ec8f1c,65d6bb0e977760de756971f7,65d6c6fbbcd697ef2196c113,0.0415,0.0415,1,87,249,81,1,fiveseven,,,,,,,,,,,,,,,,,,,,,,,,,,,,,,,,,,,,,,,,,,,,,,,,,,,,,,,,,,,,,,,,,,,,,,,,,,,,,,,,,,,,,,,,,,,,,,,,,,,,,,,,,,,,,,,,,,,,,,,,,,,,,,,,,,,,,,,,,
,,5d1e4a3ed4b9d60001ec8f1c,2024-02-22_06h02.32.539,kallum_motion_pilot,2023.2.2,Win32,60.24096386,5d1e4a3ed4b9d60001ec8f1c,65d6bb0e977760de756971f7,65d6c6fbbcd697ef2196c113,0.0416,0.0417,1,88,250,87,1,eightseven,,,,,,,,,,,,,,,,,,,,,,,,,,,,,,,,,,,,,,,,,,,,,,,,,,,,,,,,,,,,,,,,,,,,,,,,,,,,,,,,,,,,,,,,,,,,,,,,,,,,,,,,,,,,,,,,,,,,,,,,,,,,,,,,,,,,,,,,,
,,5d1e4a3ed4b9d60001ec8f1c,2024-02-22_06h02.32.539,kallum_motion_pilot,2023.2.2,Win32,60.24096386,5d1e4a3ed4b9d60001ec8f1c,65d6bb0e977760de756971f7,65d6c6fbbcd697ef2196c113,0.0418,0.0418,1,89,251,74,1,twoone,,,,,,,,,,,,,,,,,,,,,,,,,,,,,,,,,,,,,,,,,,,,,,,,,,,,,,,,,,,,,,,,,,,,,,,,,,,,,,,,,,,,,,,,,,,,,,,,,,,,,,,,,,,,,,,,,,,,,,,,,,,,,,,,,,,,,,,,,
,,5d1e4a3ed4b9d60001ec8f1c,2024-02-22_06h02.32.539,kallum_motion_pilot,2023.2.2,Win32,60.24096386,5d1e4a3ed4b9d60001ec8f1c,65d6bb0e977760de756971f7,65d6c6fbbcd697ef2196c113,0.0419,0.0419,1,90,252,62,1,fourtwo,,,,,,,,,,,,,,,,,,,,,,,,,,,,,,,,,,,,,,,,,,,,,,,,,,,,,,,,,,,,,,,,,,,,,,,,,,,,,,,,,,,,,,,,,,,,,,,,,,,,,,,,,,,,,,,,,,,,,,,,,,,,,,,,,,,,,,,,,
,,5d1e4a3ed4b9d60001ec8f1c,2024-02-22_06h02.32.539,kallum_motion_pilot,2023.2.2,Win32,60.24096386,5d1e4a3ed4b9d60001ec8f1c,65d6bb0e977760de756971f7,65d6c6fbbcd697ef2196c113,0.042,0.042,1,91,253,34,1,twoone,,,,,,,,,,,,,,,,,,,,,,,,,,,,,,,,,,,,,,,,,,,,,,,,,,,,,,,,,,,,,,,,,,,,,,,,,,,,,,,,,,,,,,,,,,,,,,,,,,,,,,,,,,,,,,,,,,,,,,,,,,,,,,,,,,,,,,,,,
,,5d1e4a3ed4b9d60001ec8f1c,2024-02-22_06h02.32.539,kallum_motion_pilot,2023.2.2,Win32,60.24096386,5d1e4a3ed4b9d60001ec8f1c,65d6bb0e977760de756971f7,65d6c6fbbcd697ef2196c113,0.042,0.0421,1,92,254,130,1,sixfive,,,,,,,,,,,,,,,,,,,,,,,,,,,,,,,,,,,,,,,,,,,,,,,,,,,,,,,,,,,,,,,,,,,,,,,,,,,,,,,,,,,,,,,,,,,,,,,,,,,,,,,,,,,,,,,,,,,,,,,,,,,,,,,,,,,,,,,,,
,,5d1e4a3ed4b9d60001ec8f1c,2024-02-22_06h02.32.539,kallum_motion_pilot,2023.2.2,Win32,60.24096386,5d1e4a3ed4b9d60001ec8f1c,65d6bb0e977760de756971f7,65d6c6fbbcd697ef2196c113,0.0422,0.0423,1,93,255,133,1,seveneight,,,,,,,,,,,,,,,,,,,,,,,,,,,,,,,,,,,,,,,,,,,,,,,,,,,,,,,,,,,,,,,,,,,,,,,,,,,,,,,,,,,,,,,,,,,,,,,,,,,,,,,,,,,,,,,,,,,,,,,,,,,,,,,,,,,,,,,,,
,,5d1e4a3ed4b9d60001ec8f1c,2024-02-22_06h02.32.539,kallum_motion_pilot,2023.2.2,Win32,60.24096386,5d1e4a3ed4b9d60001ec8f1c,65d6bb0e977760de756971f7,65d6c6fbbcd697ef2196c113,0.0423,0.0424,1,94,256,147,1,sixeight,,,,,,,,,,,,,,,,,,,,,,,,,,,,,,,,,,,,,,,,,,,,,,,,,,,,,,,,,,,,,,,,,,,,,,,,,,,,,,,,,,,,,,,,,,,,,,,,,,,,,,,,,,,,,,,,,,,,,,,,,,,,,,,,,,,,,,,,,
,,5d1e4a3ed4b9d60001ec8f1c,2024-02-22_06h02.32.539,kallum_motion_pilot,2023.2.2,Win32,60.24096386,5d1e4a3ed4b9d60001ec8f1c,65d6bb0e977760de756971f7,65d6c6fbbcd697ef2196c113,0.0426,0.0426,1,95,257,66,1,twoone,,,,,,,,,,,,,,,,,,,,,,,,,,,,,,,,,,,,,,,,,,,,,,,,,,,,,,,,,,,,,,,,,,,,,,,,,,,,,,,,,,,,,,,,,,,,,,,,,,,,,,,,,,,,,,,,,,,,,,,,,,,,,,,,,,,,,,,,,
,,5d1e4a3ed4b9d60001ec8f1c,2024-02-22_06h02.32.539,kallum_motion_pilot,2023.2.2,Win32,60.24096386,5d1e4a3ed4b9d60001ec8f1c,65d6bb0e977760de756971f7,65d6c6fbbcd697ef2196c113,0.0426,0.0427,1,96,258,137,1,fiveseven,,,,,,,,,,,,,,,,,,,,,,,,,,,,,,,,,,,,,,,,,,,,,,,,,,,,,,,,,,,,,,,,,,,,,,,,,,,,,,,,,,,,,,,,,,,,,,,,,,,,,,,,,,,,,,,,,,,,,,,,,,,,,,,,,,,,,,,,,
,,5d1e4a3ed4b9d60001ec8f1c,2024-02-22_06h02.32.539,kallum_motion_pilot,2023.2.2,Win32,60.24096386,5d1e4a3ed4b9d60001ec8f1c,65d6bb0e977760de756971f7,65d6c6fbbcd697ef2196c113,0.0428,0.0428,1,97,259,159,1,eightseven,,,,,,,,,,,,,,,,,,,,,,,,,,,,,,,,,,,,,,,,,,,,,,,,,,,,,,,,,,,,,,,,,,,,,,,,,,,,,,,,,,,,,,,,,,,,,,,,,,,,,,,,,,,,,,,,,,,,,,,,,,,,,,,,,,,,,,,,,
,,5d1e4a3ed4b9d60001ec8f1c,2024-02-22_06h02.32.539,kallum_motion_pilot,2023.2.2,Win32,60.24096386,5d1e4a3ed4b9d60001ec8f1c,65d6bb0e977760de756971f7,65d6c6fbbcd697ef2196c113,0.0429,0.043,1,98,260,6,1,fourtwo,,,,,,,,,,,,,,,,,,,,,,,,,,,,,,,,,,,,,,,,,,,,,,,,,,,,,,,,,,,,,,,,,,,,,,,,,,,,,,,,,,,,,,,,,,,,,,,,,,,,,,,,,,,,,,,,,,,,,,,,,,,,,,,,,,,,,,,,,
,,5d1e4a3ed4b9d60001ec8f1c,2024-02-22_06h02.32.539,kallum_motion_pilot,2023.2.2,Win32,60.24096386,5d1e4a3ed4b9d60001ec8f1c,65d6bb0e977760de756971f7,65d6c6fbbcd697ef2196c113,0.0431,0.0433,1,99,261,64,1,onetwo,,,,,,,,,,,,,,,,,,,,,,,,,,,,,,,,,,,,,,,,,,,,,,,,,,,,,,,,,,,,,,,,,,,,,,,,,,,,,,,,,,,,,,,,,,,,,,,,,,,,,,,,,,,,,,,,,,,,,,,,,,,,,,,,,,,,,,,,,
,,5d1e4a3ed4b9d60001ec8f1c,2024-02-22_06h02.32.539,kallum_motion_pilot,2023.2.2,Win32,60.24096386,5d1e4a3ed4b9d60001ec8f1c,65d6bb0e977760de756971f7,65d6c6fbbcd697ef2196c113,0.0434,0.0435,1,100,262,35,1,twofour,,,,,,,,,,,,,,,,,,,,,,,,,,,,,,,,,,,,,,,,,,,,,,,,,,,,,,,,,,,,,,,,,,,,,,,,,,,,,,,,,,,,,,,,,,,,,,,,,,,,,,,,,,,,,,,,,,,,,,,,,,,,,,,,,,,,,,,,,
,,5d1e4a3ed4b9d60001ec8f1c,2024-02-22_06h02.32.539,kallum_motion_pilot,2023.2.2,Win32,60.24096386,5d1e4a3ed4b9d60001ec8f1c,65d6bb0e977760de756971f7,65d6c6fbbcd697ef2196c113,0.0436,0.0436,1,101,263,13,1,threefour,,,,,,,,,,,,,,,,,,,,,,,,,,,,,,,,,,,,,,,,,,,,,,,,,,,,,,,,,,,,,,,,,,,,,,,,,,,,,,,,,,,,,,,,,,,,,,,,,,,,,,,,,,,,,,,,,,,,,,,,,,,,,,,,,,,,,,,,,
,,5d1e4a3ed4b9d60001ec8f1c,2024-02-22_06h02.32.539,kallum_motion_pilot,2023.2.2,Win32,60.24096386,5d1e4a3ed4b9d60001ec8f1c,65d6bb0e977760de756971f7,65d6c6fbbcd697ef2196c113,0.0437,0.0437,1,102,264,29,1,threefour,,,,,,,,,,,,,,,,,,,,,,,,,,,,,,,,,,,,,,,,,,,,,,,,,,,,,,,,,,,,,,,,,,,,,,,,,,,,,,,,,,,,,,,,,,,,,,,,,,,,,,,,,,,,,,,,,,,,,,,,,,,,,,,,,,,,,,,,,
,,5d1e4a3ed4b9d60001ec8f1c,2024-02-22_06h02.32.539,kallum_motion_pilot,2023.2.2,Win32,60.24096386,5d1e4a3ed4b9d60001ec8f1c,65d6bb0e977760de756971f7,65d6c6fbbcd697ef2196c113,0.0438,0.0439,1,103,265,139,1,sixeight,,,,,,,,,,,,,,,,,,,,,,,,,,,,,,,,,,,,,,,,,,,,,,,,,,,,,,,,,,,,,,,,,,,,,,,,,,,,,,,,,,,,,,,,,,,,,,,,,,,,,,,,,,,,,,,,,,,,,,,,,,,,,,,,,,,,,,,,,
,,5d1e4a3ed4b9d60001ec8f1c,2024-02-22_06h02.32.539,kallum_motion_pilot,2023.2.2,Win32,60.24096386,5d1e4a3ed4b9d60001ec8f1c,65d6bb0e977760de756971f7,65d6c6fbbcd697ef2196c113,0.0439,0.0441,1,104,266,158,1,eightsix,,,,,,,,,,,,,,,,,,,,,,,,,,,,,,,,,,,,,,,,,,,,,,,,,,,,,,,,,,,,,,,,,,,,,,,,,,,,,,,,,,,,,,,,,,,,,,,,,,,,,,,,,,,,,,,,,,,,,,,,,,,,,,,,,,,,,,,,,
,,5d1e4a3ed4b9d60001ec8f1c,2024-02-22_06h02.32.539,kallum_motion_pilot,2023.2.2,Win32,60.24096386,5d1e4a3ed4b9d60001ec8f1c,65d6bb0e977760de756971f7,65d6c6fbbcd697ef2196c113,0.0441,0.0442,1,105,267,106,1,sixfive,,,,,,,,,,,,,,,,,,,,,,,,,,,,,,,,,,,,,,,,,,,,,,,,,,,,,,,,,,,,,,,,,,,,,,,,,,,,,,,,,,,,,,,,,,,,,,,,,,,,,,,,,,,,,,,,,,,,,,,,,,,,,,,,,,,,,,,,,
,,5d1e4a3ed4b9d60001ec8f1c,2024-02-22_06h02.32.539,kallum_motion_pilot,2023.2.2,Win32,60.24096386,5d1e4a3ed4b9d60001ec8f1c,65d6bb0e977760de756971f7,65d6c6fbbcd697ef2196c113,0.0442,0.0443,1,106,268,105,1,fiveseven,,,,,,,,,,,,,,,,,,,,,,,,,,,,,,,,,,,,,,,,,,,,,,,,,,,,,,,,,,,,,,,,,,,,,,,,,,,,,,,,,,,,,,,,,,,,,,,,,,,,,,,,,,,,,,,,,,,,,,,,,,,,,,,,,,,,,,,,,
,,5d1e4a3ed4b9d60001ec8f1c,2024-02-22_06h02.32.539,kallum_motion_pilot,2023.2.2,Win32,60.24096386,5d1e4a3ed4b9d60001ec8f1c,65d6bb0e977760de756971f7,65d6c6fbbcd697ef2196c113,0.0443,0.0444,1,107,269,101,1,seveneight,,,,,,,,,,,,,,,,,,,,,,,,,,,,,,,,,,,,,,,,,,,,,,,,,,,,,,,,,,,,,,,,,,,,,,,,,,,,,,,,,,,,,,,,,,,,,,,,,,,,,,,,,,,,,,,,,,,,,,,,,,,,,,,,,,,,,,,,,
,,5d1e4a3ed4b9d60001ec8f1c,2024-02-22_06h02.32.539,kallum_motion_pilot,2023.2.2,Win32,60.24096386,5d1e4a3ed4b9d60001ec8f1c,65d6bb0e977760de756971f7,65d6c6fbbcd697ef2196c113,0.0444,0.0445,1,108,270,90,1,sixfive,,,,,,,,,,,,,,,,,,,,,,,,,,,,,,,,,,,,,,,,,,,,,,,,,,,,,,,,,,,,,,,,,,,,,,,,,,,,,,,,,,,,,,,,,,,,,,,,,,,,,,,,,,,,,,,,,,,,,,,,,,,,,,,,,,,,,,,,,
,,5d1e4a3ed4b9d60001ec8f1c,2024-02-22_06h02.32.539,kallum_motion_pilot,2023.2.2,Win32,60.24096386,5d1e4a3ed4b9d60001ec8f1c,65d6bb0e977760de756971f7,65d6c6fbbcd697ef2196c113,0.0446,0.0446,1,109,271,117,1,seveneight,,,,,,,,,,,,,,,,,,,,,,,,,,,,,,,,,,,,,,,,,,,,,,,,,,,,,,,,,,,,,,,,,,,,,,,,,,,,,,,,,,,,,,,,,,,,,,,,,,,,,,,,,,,,,,,,,,,,,,,,,,,,,,,,,,,,,,,,,
,,5d1e4a3ed4b9d60001ec8f1c,2024-02-22_06h02.32.539,kallum_motion_pilot,2023.2.2,Win32,60.24096386,5d1e4a3ed4b9d60001ec8f1c,65d6bb0e977760de756971f7,65d6c6fbbcd697ef2196c113,0.0446,0.0448,1,110,272,146,1,sixfive,,,,,,,,,,,,,,,,,,,,,,,,,,,,,,,,,,,,,,,,,,,,,,,,,,,,,,,,,,,,,,,,,,,,,,,,,,,,,,,,,,,,,,,,,,,,,,,,,,,,,,,,,,,,,,,,,,,,,,,,,,,,,,,,,,,,,,,,,
,,5d1e4a3ed4b9d60001ec8f1c,2024-02-22_06h02.32.539,kallum_motion_pilot,2023.2.2,Win32,60.24096386,5d1e4a3ed4b9d60001ec8f1c,65d6bb0e977760de756971f7,65d6c6fbbcd697ef2196c113,0.0448,0.0448,1,111,273,131,1,sixeight,,,,,,,,,,,,,,,,,,,,,,,,,,,,,,,,,,,,,,,,,,,,,,,,,,,,,,,,,,,,,,,,,,,,,,,,,,,,,,,,,,,,,,,,,,,,,,,,,,,,,,,,,,,,,,,,,,,,,,,,,,,,,,,,,,,,,,,,,
,,5d1e4a3ed4b9d60001ec8f1c,2024-02-22_06h02.32.539,kallum_motion_pilot,2023.2.2,Win32,60.24096386,5d1e4a3ed4b9d60001ec8f1c,65d6bb0e977760de756971f7,65d6c6fbbcd697ef2196c113,0.0448,0.0449,1,112,274,73,1,onethree,,,,,,,,,,,,,,,,,,,,,,,,,,,,,,,,,,,,,,,,,,,,,,,,,,,,,,,,,,,,,,,,,,,,,,,,,,,,,,,,,,,,,,,,,,,,,,,,,,,,,,,,,,,,,,,,,,,,,,,,,,,,,,,,,,,,,,,,,
,,5d1e4a3ed4b9d60001ec8f1c,2024-02-22_06h02.32.539,kallum_motion_pilot,2023.2.2,Win32,60.24096386,5d1e4a3ed4b9d60001ec8f1c,65d6bb0e977760de756971f7,65d6c6fbbcd697ef2196c113,0.045,0.0451,1,113,275,91,1,sixeight,,,,,,,,,,,,,,,,,,,,,,,,,,,,,,,,,,,,,,,,,,,,,,,,,,,,,,,,,,,,,,,,,,,,,,,,,,,,,,,,,,,,,,,,,,,,,,,,,,,,,,,,,,,,,,,,,,,,,,,,,,,,,,,,,,,,,,,,,
,,5d1e4a3ed4b9d60001ec8f1c,2024-02-22_06h02.32.539,kallum_motion_pilot,2023.2.2,Win32,60.24096386,5d1e4a3ed4b9d60001ec8f1c,65d6bb0e977760de756971f7,65d6c6fbbcd697ef2196c113,0.0451,0.0452,1,114,276,32,1,onetwo,,,,,,,,,,,,,,,,,,,,,,,,,,,,,,,,,,,,,,,,,,,,,,,,,,,,,,,,,,,,,,,,,,,,,,,,,,,,,,,,,,,,,,,,,,,,,,,,,,,,,,,,,,,,,,,,,,,,,,,,,,,,,,,,,,,,,,,,,
,,5d1e4a3ed4b9d60001ec8f1c,2024-02-22_06h02.32.539,kallum_motion_pilot,2023.2.2,Win32,60.24096386,5d1e4a3ed4b9d60001ec8f1c,65d6bb0e977760de756971f7,65d6c6fbbcd697ef2196c113,0.0452,0.0452,1,115,277,49,1,onethree,,,,,,,,,,,,,,,,,,,,,,,,,,,,,,,,,,,,,,,,,,,,,,,,,,,,,,,,,,,,,,,,,,,,,,,,,,,,,,,,,,,,,,,,,,,,,,,,,,,,,,,,,,,,,,,,,,,,,,,,,,,,,,,,,,,,,,,,,
