startup.started,startup.stopped,Prolific ID*,date,expName,psychopyVersion,OS,frameRate,participant,study_id,session,stimpositions.started,stimpositions.stopped,hardcoded_stimulus_positions.thisRepN,hardcoded_stimulus_positions.thisTrialN,hardcoded_stimulus_positions.thisN,hardcoded_stimulus_positions.thisIndex,hardcoded_stimulus_positions.ran,StimulusPos,stimorientation.started,stimorientation.stopped,prac_stimorientation_import_loop.thisRepN,prac_stimorientation_import_loop.thisTrialN,prac_stimorientation_import_loop.thisN,prac_stimorientation_import_loop.thisIndex,prac_stimorientation_import_loop.ran,Stimorientation,welcome_instr.started,welcome_instr.stopped,key_resp.keys,key_resp.rt,key_resp.duration,response_steppedout_1.started,response_steppedout_1.stopped,key_resp_20.keys,key_resp_20.rt,key_resp_20.duration,response_steppedout_2.started,response_steppedout_2.stopped,key_resp_19.keys,key_resp_19.rt,key_resp_19.duration,stim_response_instr.started,stim_response_instr.stopped,key_resp_15.keys,key_resp_15.rt,key_resp_15.duration,direction_instr_2.started,direction_instr_2.stopped,key_resp_9.keys,key_resp_9.rt,key_resp_9.duration,instr_prac.started,instr_prac.stopped,key_resp_10.keys,key_resp_10.rt,key_resp_10.duration,Stim1_display_prac.started,Stim1_display_prac.stopped,Ecc,Circle1_ori,Circle2_ori,response_prac.started,similarity,response_time,response_prac.stopped,mouse_5.x,mouse_5.y,mouse_5.leftButton,mouse_5.midButton,mouse_5.rightButton,mouse_5.clicked_name,responseprac_feedback.started,responseprac_feedback.stopped,summary2_prac.started,summary2_prac.stopped,mouse_6.x,mouse_6.y,mouse_6.leftButton,mouse_6.midButton,mouse_6.rightButton,mouse_6.clicked_name,duringprac.thisRepN,duringprac.thisTrialN,duringprac.thisN,duringprac.thisIndex,duringprac.ran,begin.started,begin.stopped,key_resp_22.keys,key_resp_22.rt,key_resp_22.duration,Stim1_display.started,Stim1_display.stopped,circle1_ori,circle2_ori,circle1_SF,circle2_SF,response.started,response.stopped,mouse.x,mouse.y,mouse.leftButton,mouse.midButton,mouse.rightButton,mouse.clicked_name,trialnumber,double_pass.thisRepN,double_pass.thisTrialN,double_pass.thisN,double_pass.thisIndex,double_pass.ran,double_pass.order,main_trial.thisRepN,main_trial.thisTrialN,main_trial.thisN,main_trial.thisIndex,main_trial.ran,main_trial.order,Trial_Counter,Catch,Frequencies,response_2.started,response_2.stopped,mouse_2.x,mouse_2.y,mouse_2.leftButton,mouse_2.midButton,mouse_2.rightButton,mouse_2.clicked_name,special_trial.started,special_trial.stopped,catch_1.started,catch_1.stopped,mouse_3.x,mouse_3.y,mouse_3.leftButton,mouse_3.midButton,mouse_3.rightButton,catchresponse,catchnumber,response_time_catch,response_sum.started,response_sum.stopped,mouse_11.x,mouse_11.y,mouse_11.leftButton,mouse_11.midButton,mouse_11.rightButton,flip_presentation_sequence_for_double_pass.started,flip_presentation_sequence_for_double_pass.stopped,goodbye.started,goodbye.stopped,key_resp_3.keys,key_resp_3.rt,key_resp_3.duration
0.003,0.003,5d474ed70f79810001c36084,2024-02-22_00h24.09.051,kallum_motion_pilot,2023.2.2,Win32,144.092219,5d474ed70f79810001c36084,65d6bb0e977760de756971f7,65d6be3efde08c320ec404b7,,,,,,,,,,,,,,,,,,,,,,,,,,,,,,,,,,,,,,,,,,,,,,,,,,,,,,,,,,,,,,,,,,,,,,,,,,,,,,,,,,,,,,,,,,,,,,,,,,,,,,,,,,,,,,,,,,,,,,,,,,,,,,,,,,,,,,,,,,,,,,,,,
,,5d474ed70f79810001c36084,2024-02-22_00h24.09.051,kallum_motion_pilot,2023.2.2,Win32,144.092219,5d474ed70f79810001c36084,65d6bb0e977760de756971f7,65d6be3efde08c320ec404b7,0.016,0.016,0,0,0,55,1,fourthree,,,,,,,,,,,,,,,,,,,,,,,,,,,,,,,,,,,,,,,,,,,,,,,,,,,,,,,,,,,,,,,,,,,,,,,,,,,,,,,,,,,,,,,,,,,,,,,,,,,,,,,,,,,,,,,,,,,,,,,,,,,,,,,,,,,,,,,,,
,,5d474ed70f79810001c36084,2024-02-22_00h24.09.051,kallum_motion_pilot,2023.2.2,Win32,144.092219,5d474ed70f79810001c36084,65d6bb0e977760de756971f7,65d6be3efde08c320ec404b7,0.017,0.017,0,1,1,72,1,onetwo,,,,,,,,,,,,,,,,,,,,,,,,,,,,,,,,,,,,,,,,,,,,,,,,,,,,,,,,,,,,,,,,,,,,,,,,,,,,,,,,,,,,,,,,,,,,,,,,,,,,,,,,,,,,,,,,,,,,,,,,,,,,,,,,,,,,,,,,,
,,5d474ed70f79810001c36084,2024-02-22_00h24.09.051,kallum_motion_pilot,2023.2.2,Win32,144.092219,5d474ed70f79810001c36084,65d6bb0e977760de756971f7,65d6be3efde08c320ec404b7,0.017,0.017,0,2,2,150,1,eightsix,,,,,,,,,,,,,,,,,,,,,,,,,,,,,,,,,,,,,,,,,,,,,,,,,,,,,,,,,,,,,,,,,,,,,,,,,,,,,,,,,,,,,,,,,,,,,,,,,,,,,,,,,,,,,,,,,,,,,,,,,,,,,,,,,,,,,,,,,
,,5d474ed70f79810001c36084,2024-02-22_00h24.09.051,kallum_motion_pilot,2023.2.2,Win32,144.092219,5d474ed70f79810001c36084,65d6bb0e977760de756971f7,65d6be3efde08c320ec404b7,0.017,0.017,0,3,3,65,1,onethree,,,,,,,,,,,,,,,,,,,,,,,,,,,,,,,,,,,,,,,,,,,,,,,,,,,,,,,,,,,,,,,,,,,,,,,,,,,,,,,,,,,,,,,,,,,,,,,,,,,,,,,,,,,,,,,,,,,,,,,,,,,,,,,,,,,,,,,,,
,,5d474ed70f79810001c36084,2024-02-22_00h24.09.051,kallum_motion_pilot,2023.2.2,Win32,144.092219,5d474ed70f79810001c36084,65d6bb0e977760de756971f7,65d6be3efde08c320ec404b7,0.017,0.017,0,4,4,121,1,fiveseven,,,,,,,,,,,,,,,,,,,,,,,,,,,,,,,,,,,,,,,,,,,,,,,,,,,,,,,,,,,,,,,,,,,,,,,,,,,,,,,,,,,,,,,,,,,,,,,,,,,,,,,,,,,,,,,,,,,,,,,,,,,,,,,,,,,,,,,,,
,,5d474ed70f79810001c36084,2024-02-22_00h24.09.051,kallum_motion_pilot,2023.2.2,Win32,144.092219,5d474ed70f79810001c36084,65d6bb0e977760de756971f7,65d6be3efde08c320ec404b7,0.017,0.017,0,5,5,56,1,onetwo,,,,,,,,,,,,,,,,,,,,,,,,,,,,,,,,,,,,,,,,,,,,,,,,,,,,,,,,,,,,,,,,,,,,,,,,,,,,,,,,,,,,,,,,,,,,,,,,,,,,,,,,,,,,,,,,,,,,,,,,,,,,,,,,,,,,,,,,,
,,5d474ed70f79810001c36084,2024-02-22_00h24.09.051,kallum_motion_pilot,2023.2.2,Win32,144.092219,5d474ed70f79810001c36084,65d6bb0e977760de756971f7,65d6be3efde08c320ec404b7,0.017,0.017,0,6,6,80,1,fivesix,,,,,,,,,,,,,,,,,,,,,,,,,,,,,,,,,,,,,,,,,,,,,,,,,,,,,,,,,,,,,,,,,,,,,,,,,,,,,,,,,,,,,,,,,,,,,,,,,,,,,,,,,,,,,,,,,,,,,,,,,,,,,,,,,,,,,,,,,
,,5d474ed70f79810001c36084,2024-02-22_00h24.09.051,kallum_motion_pilot,2023.2.2,Win32,144.092219,5d474ed70f79810001c36084,65d6bb0e977760de756971f7,65d6be3efde08c320ec404b7,0.017,0.017,0,7,7,77,1,threefour,,,,,,,,,,,,,,,,,,,,,,,,,,,,,,,,,,,,,,,,,,,,,,,,,,,,,,,,,,,,,,,,,,,,,,,,,,,,,,,,,,,,,,,,,,,,,,,,,,,,,,,,,,,,,,,,,,,,,,,,,,,,,,,,,,,,,,,,,
,,5d474ed70f79810001c36084,2024-02-22_00h24.09.051,kallum_motion_pilot,2023.2.2,Win32,144.092219,5d474ed70f79810001c36084,65d6bb0e977760de756971f7,65d6be3efde08c320ec404b7,0.017,0.017,0,8,8,103,1,eightseven,,,,,,,,,,,,,,,,,,,,,,,,,,,,,,,,,,,,,,,,,,,,,,,,,,,,,,,,,,,,,,,,,,,,,,,,,,,,,,,,,,,,,,,,,,,,,,,,,,,,,,,,,,,,,,,,,,,,,,,,,,,,,,,,,,,,,,,,,
,,5d474ed70f79810001c36084,2024-02-22_00h24.09.051,kallum_motion_pilot,2023.2.2,Win32,144.092219,5d474ed70f79810001c36084,65d6bb0e977760de756971f7,65d6be3efde08c320ec404b7,0.017,0.017,0,9,9,90,1,sixfive,,,,,,,,,,,,,,,,,,,,,,,,,,,,,,,,,,,,,,,,,,,,,,,,,,,,,,,,,,,,,,,,,,,,,,,,,,,,,,,,,,,,,,,,,,,,,,,,,,,,,,,,,,,,,,,,,,,,,,,,,,,,,,,,,,,,,,,,,
,,5d474ed70f79810001c36084,2024-02-22_00h24.09.051,kallum_motion_pilot,2023.2.2,Win32,144.092219,5d474ed70f79810001c36084,65d6bb0e977760de756971f7,65d6be3efde08c320ec404b7,0.017,0.017,0,10,10,18,1,twoone,,,,,,,,,,,,,,,,,,,,,,,,,,,,,,,,,,,,,,,,,,,,,,,,,,,,,,,,,,,,,,,,,,,,,,,,,,,,,,,,,,,,,,,,,,,,,,,,,,,,,,,,,,,,,,,,,,,,,,,,,,,,,,,,,,,,,,,,,
,,5d474ed70f79810001c36084,2024-02-22_00h24.09.051,kallum_motion_pilot,2023.2.2,Win32,144.092219,5d474ed70f79810001c36084,65d6bb0e977760de756971f7,65d6be3efde08c320ec404b7,0.017,0.018,0,11,11,136,1,fivesix,,,,,,,,,,,,,,,,,,,,,,,,,,,,,,,,,,,,,,,,,,,,,,,,,,,,,,,,,,,,,,,,,,,,,,,,,,,,,,,,,,,,,,,,,,,,,,,,,,,,,,,,,,,,,,,,,,,,,,,,,,,,,,,,,,,,,,,,,
,,5d474ed70f79810001c36084,2024-02-22_00h24.09.051,kallum_motion_pilot,2023.2.2,Win32,144.092219,5d474ed70f79810001c36084,65d6bb0e977760de756971f7,65d6be3efde08c320ec404b7,0.018,0.018,0,12,12,146,1,sixfive,,,,,,,,,,,,,,,,,,,,,,,,,,,,,,,,,,,,,,,,,,,,,,,,,,,,,,,,,,,,,,,,,,,,,,,,,,,,,,,,,,,,,,,,,,,,,,,,,,,,,,,,,,,,,,,,,,,,,,,,,,,,,,,,,,,,,,,,,
,,5d474ed70f79810001c36084,2024-02-22_00h24.09.051,kallum_motion_pilot,2023.2.2,Win32,144.092219,5d474ed70f79810001c36084,65d6bb0e977760de756971f7,65d6be3efde08c320ec404b7,0.018,0.018,0,13,13,120,1,fivesix,,,,,,,,,,,,,,,,,,,,,,,,,,,,,,,,,,,,,,,,,,,,,,,,,,,,,,,,,,,,,,,,,,,,,,,,,,,,,,,,,,,,,,,,,,,,,,,,,,,,,,,,,,,,,,,,,,,,,,,,,,,,,,,,,,,,,,,,,
,,5d474ed70f79810001c36084,2024-02-22_00h24.09.051,kallum_motion_pilot,2023.2.2,Win32,144.092219,5d474ed70f79810001c36084,65d6bb0e977760de756971f7,65d6be3efde08c320ec404b7,0.018,0.018,0,14,14,17,1,onethree,,,,,,,,,,,,,,,,,,,,,,,,,,,,,,,,,,,,,,,,,,,,,,,,,,,,,,,,,,,,,,,,,,,,,,,,,,,,,,,,,,,,,,,,,,,,,,,,,,,,,,,,,,,,,,,,,,,,,,,,,,,,,,,,,,,,,,,,,
,,5d474ed70f79810001c36084,2024-02-22_00h24.09.051,kallum_motion_pilot,2023.2.2,Win32,144.092219,5d474ed70f79810001c36084,65d6bb0e977760de756971f7,65d6be3efde08c320ec404b7,0.018,0.018,0,15,15,104,1,fivesix,,,,,,,,,,,,,,,,,,,,,,,,,,,,,,,,,,,,,,,,,,,,,,,,,,,,,,,,,,,,,,,,,,,,,,,,,,,,,,,,,,,,,,,,,,,,,,,,,,,,,,,,,,,,,,,,,,,,,,,,,,,,,,,,,,,,,,,,,
,,5d474ed70f79810001c36084,2024-02-22_00h24.09.051,kallum_motion_pilot,2023.2.2,Win32,144.092219,5d474ed70f79810001c36084,65d6bb0e977760de756971f7,65d6be3efde08c320ec404b7,0.018,0.018,0,16,16,59,1,twofour,,,,,,,,,,,,,,,,,,,,,,,,,,,,,,,,,,,,,,,,,,,,,,,,,,,,,,,,,,,,,,,,,,,,,,,,,,,,,,,,,,,,,,,,,,,,,,,,,,,,,,,,,,,,,,,,,,,,,,,,,,,,,,,,,,,,,,,,,
,,5d474ed70f79810001c36084,2024-02-22_00h24.09.051,kallum_motion_pilot,2023.2.2,Win32,144.092219,5d474ed70f79810001c36084,65d6bb0e977760de756971f7,65d6be3efde08c320ec404b7,0.018,0.018,0,17,17,24,1,onetwo,,,,,,,,,,,,,,,,,,,,,,,,,,,,,,,,,,,,,,,,,,,,,,,,,,,,,,,,,,,,,,,,,,,,,,,,,,,,,,,,,,,,,,,,,,,,,,,,,,,,,,,,,,,,,,,,,,,,,,,,,,,,,,,,,,,,,,,,,
,,5d474ed70f79810001c36084,2024-02-22_00h24.09.051,kallum_motion_pilot,2023.2.2,Win32,144.092219,5d474ed70f79810001c36084,65d6bb0e977760de756971f7,65d6be3efde08c320ec404b7,0.018,0.018,0,18,18,94,1,eightsix,,,,,,,,,,,,,,,,,,,,,,,,,,,,,,,,,,,,,,,,,,,,,,,,,,,,,,,,,,,,,,,,,,,,,,,,,,,,,,,,,,,,,,,,,,,,,,,,,,,,,,,,,,,,,,,,,,,,,,,,,,,,,,,,,,,,,,,,,
,,5d474ed70f79810001c36084,2024-02-22_00h24.09.051,kallum_motion_pilot,2023.2.2,Win32,144.092219,5d474ed70f79810001c36084,65d6bb0e977760de756971f7,65d6be3efde08c320ec404b7,0.018,0.018,0,19,19,61,1,threefour,,,,,,,,,,,,,,,,,,,,,,,,,,,,,,,,,,,,,,,,,,,,,,,,,,,,,,,,,,,,,,,,,,,,,,,,,,,,,,,,,,,,,,,,,,,,,,,,,,,,,,,,,,,,,,,,,,,,,,,,,,,,,,,,,,,,,,,,,
,,5d474ed70f79810001c36084,2024-02-22_00h24.09.051,kallum_motion_pilot,2023.2.2,Win32,144.092219,5d474ed70f79810001c36084,65d6bb0e977760de756971f7,65d6be3efde08c320ec404b7,0.018,0.018,0,20,20,51,1,twofour,,,,,,,,,,,,,,,,,,,,,,,,,,,,,,,,,,,,,,,,,,,,,,,,,,,,,,,,,,,,,,,,,,,,,,,,,,,,,,,,,,,,,,,,,,,,,,,,,,,,,,,,,,,,,,,,,,,,,,,,,,,,,,,,,,,,,,,,,
,,5d474ed70f79810001c36084,2024-02-22_00h24.09.051,kallum_motion_pilot,2023.2.2,Win32,144.092219,5d474ed70f79810001c36084,65d6bb0e977760de756971f7,65d6be3efde08c320ec404b7,0.018,0.018,0,21,21,152,1,fivesix,,,,,,,,,,,,,,,,,,,,,,,,,,,,,,,,,,,,,,,,,,,,,,,,,,,,,,,,,,,,,,,,,,,,,,,,,,,,,,,,,,,,,,,,,,,,,,,,,,,,,,,,,,,,,,,,,,,,,,,,,,,,,,,,,,,,,,,,,
,,5d474ed70f79810001c36084,2024-02-22_00h24.09.051,kallum_motion_pilot,2023.2.2,Win32,144.092219,5d474ed70f79810001c36084,65d6bb0e977760de756971f7,65d6be3efde08c320ec404b7,0.018,0.018,0,22,22,105,1,fiveseven,,,,,,,,,,,,,,,,,,,,,,,,,,,,,,,,,,,,,,,,,,,,,,,,,,,,,,,,,,,,,,,,,,,,,,,,,,,,,,,,,,,,,,,,,,,,,,,,,,,,,,,,,,,,,,,,,,,,,,,,,,,,,,,,,,,,,,,,,
,,5d474ed70f79810001c36084,2024-02-22_00h24.09.051,kallum_motion_pilot,2023.2.2,Win32,144.092219,5d474ed70f79810001c36084,65d6bb0e977760de756971f7,65d6be3efde08c320ec404b7,0.018,0.018,0,23,23,60,1,threeone,,,,,,,,,,,,,,,,,,,,,,,,,,,,,,,,,,,,,,,,,,,,,,,,,,,,,,,,,,,,,,,,,,,,,,,,,,,,,,,,,,,,,,,,,,,,,,,,,,,,,,,,,,,,,,,,,,,,,,,,,,,,,,,,,,,,,,,,,
,,5d474ed70f79810001c36084,2024-02-22_00h24.09.051,kallum_motion_pilot,2023.2.2,Win32,144.092219,5d474ed70f79810001c36084,65d6bb0e977760de756971f7,65d6be3efde08c320ec404b7,0.018,0.018,0,24,24,161,1,fiveseven,,,,,,,,,,,,,,,,,,,,,,,,,,,,,,,,,,,,,,,,,,,,,,,,,,,,,,,,,,,,,,,,,,,,,,,,,,,,,,,,,,,,,,,,,,,,,,,,,,,,,,,,,,,,,,,,,,,,,,,,,,,,,,,,,,,,,,,,,
,,5d474ed70f79810001c36084,2024-02-22_00h24.09.051,kallum_motion_pilot,2023.2.2,Win32,144.092219,5d474ed70f79810001c36084,65d6bb0e977760de756971f7,65d6be3efde08c320ec404b7,0.018,0.018,0,25,25,54,1,fourtwo,,,,,,,,,,,,,,,,,,,,,,,,,,,,,,,,,,,,,,,,,,,,,,,,,,,,,,,,,,,,,,,,,,,,,,,,,,,,,,,,,,,,,,,,,,,,,,,,,,,,,,,,,,,,,,,,,,,,,,,,,,,,,,,,,,,,,,,,,
,,5d474ed70f79810001c36084,2024-02-22_00h24.09.051,kallum_motion_pilot,2023.2.2,Win32,144.092219,5d474ed70f79810001c36084,65d6bb0e977760de756971f7,65d6be3efde08c320ec404b7,0.018,0.018,0,26,26,49,1,onethree,,,,,,,,,,,,,,,,,,,,,,,,,,,,,,,,,,,,,,,,,,,,,,,,,,,,,,,,,,,,,,,,,,,,,,,,,,,,,,,,,,,,,,,,,,,,,,,,,,,,,,,,,,,,,,,,,,,,,,,,,,,,,,,,,,,,,,,,,
,,5d474ed70f79810001c36084,2024-02-22_00h24.09.051,kallum_motion_pilot,2023.2.2,Win32,144.092219,5d474ed70f79810001c36084,65d6bb0e977760de756971f7,65d6be3efde08c320ec404b7,0.018,0.018,0,27,27,145,1,fiveseven,,,,,,,,,,,,,,,,,,,,,,,,,,,,,,,,,,,,,,,,,,,,,,,,,,,,,,,,,,,,,,,,,,,,,,,,,,,,,,,,,,,,,,,,,,,,,,,,,,,,,,,,,,,,,,,,,,,,,,,,,,,,,,,,,,,,,,,,,
,,5d474ed70f79810001c36084,2024-02-22_00h24.09.051,kallum_motion_pilot,2023.2.2,Win32,144.092219,5d474ed70f79810001c36084,65d6bb0e977760de756971f7,65d6be3efde08c320ec404b7,0.018,0.018,0,28,28,83,1,sixeight,,,,,,,,,,,,,,,,,,,,,,,,,,,,,,,,,,,,,,,,,,,,,,,,,,,,,,,,,,,,,,,,,,,,,,,,,,,,,,,,,,,,,,,,,,,,,,,,,,,,,,,,,,,,,,,,,,,,,,,,,,,,,,,,,,,,,,,,,
,,5d474ed70f79810001c36084,2024-02-22_00h24.09.051,kallum_motion_pilot,2023.2.2,Win32,144.092219,5d474ed70f79810001c36084,65d6bb0e977760de756971f7,65d6be3efde08c320ec404b7,0.018,0.019,0,29,29,102,1,eightsix,,,,,,,,,,,,,,,,,,,,,,,,,,,,,,,,,,,,,,,,,,,,,,,,,,,,,,,,,,,,,,,,,,,,,,,,,,,,,,,,,,,,,,,,,,,,,,,,,,,,,,,,,,,,,,,,,,,,,,,,,,,,,,,,,,,,,,,,,
,,5d474ed70f79810001c36084,2024-02-22_00h24.09.051,kallum_motion_pilot,2023.2.2,Win32,144.092219,5d474ed70f79810001c36084,65d6bb0e977760de756971f7,65d6be3efde08c320ec404b7,0.019,0.019,0,30,30,50,1,twoone,,,,,,,,,,,,,,,,,,,,,,,,,,,,,,,,,,,,,,,,,,,,,,,,,,,,,,,,,,,,,,,,,,,,,,,,,,,,,,,,,,,,,,,,,,,,,,,,,,,,,,,,,,,,,,,,,,,,,,,,,,,,,,,,,,,,,,,,,
,,5d474ed70f79810001c36084,2024-02-22_00h24.09.051,kallum_motion_pilot,2023.2.2,Win32,144.092219,5d474ed70f79810001c36084,65d6bb0e977760de756971f7,65d6be3efde08c320ec404b7,0.019,0.019,0,31,31,114,1,sixfive,,,,,,,,,,,,,,,,,,,,,,,,,,,,,,,,,,,,,,,,,,,,,,,,,,,,,,,,,,,,,,,,,,,,,,,,,,,,,,,,,,,,,,,,,,,,,,,,,,,,,,,,,,,,,,,,,,,,,,,,,,,,,,,,,,,,,,,,,
,,5d474ed70f79810001c36084,2024-02-22_00h24.09.051,kallum_motion_pilot,2023.2.2,Win32,144.092219,5d474ed70f79810001c36084,65d6bb0e977760de756971f7,65d6be3efde08c320ec404b7,0.019,0.019,0,32,32,147,1,sixeight,,,,,,,,,,,,,,,,,,,,,,,,,,,,,,,,,,,,,,,,,,,,,,,,,,,,,,,,,,,,,,,,,,,,,,,,,,,,,,,,,,,,,,,,,,,,,,,,,,,,,,,,,,,,,,,,,,,,,,,,,,,,,,,,,,,,,,,,,
,,5d474ed70f79810001c36084,2024-02-22_00h24.09.051,kallum_motion_pilot,2023.2.2,Win32,144.092219,5d474ed70f79810001c36084,65d6bb0e977760de756971f7,65d6be3efde08c320ec404b7,0.019,0.019,0,33,33,160,1,fivesix,,,,,,,,,,,,,,,,,,,,,,,,,,,,,,,,,,,,,,,,,,,,,,,,,,,,,,,,,,,,,,,,,,,,,,,,,,,,,,,,,,,,,,,,,,,,,,,,,,,,,,,,,,,,,,,,,,,,,,,,,,,,,,,,,,,,,,,,,
,,5d474ed70f79810001c36084,2024-02-22_00h24.09.051,kallum_motion_pilot,2023.2.2,Win32,144.092219,5d474ed70f79810001c36084,65d6bb0e977760de756971f7,65d6be3efde08c320ec404b7,0.019,0.019,0,34,34,1,1,onethree,,,,,,,,,,,,,,,,,,,,,,,,,,,,,,,,,,,,,,,,,,,,,,,,,,,,,,,,,,,,,,,,,,,,,,,,,,,,,,,,,,,,,,,,,,,,,,,,,,,,,,,,,,,,,,,,,,,,,,,,,,,,,,,,,,,,,,,,,
,,5d474ed70f79810001c36084,2024-02-22_00h24.09.051,kallum_motion_pilot,2023.2.2,Win32,144.092219,5d474ed70f79810001c36084,65d6bb0e977760de756971f7,65d6be3efde08c320ec404b7,0.019,0.019,0,35,35,19,1,twofour,,,,,,,,,,,,,,,,,,,,,,,,,,,,,,,,,,,,,,,,,,,,,,,,,,,,,,,,,,,,,,,,,,,,,,,,,,,,,,,,,,,,,,,,,,,,,,,,,,,,,,,,,,,,,,,,,,,,,,,,,,,,,,,,,,,,,,,,,
,,5d474ed70f79810001c36084,2024-02-22_00h24.09.051,kallum_motion_pilot,2023.2.2,Win32,144.092219,5d474ed70f79810001c36084,65d6bb0e977760de756971f7,65d6be3efde08c320ec404b7,0.019,0.019,0,36,36,131,1,sixeight,,,,,,,,,,,,,,,,,,,,,,,,,,,,,,,,,,,,,,,,,,,,,,,,,,,,,,,,,,,,,,,,,,,,,,,,,,,,,,,,,,,,,,,,,,,,,,,,,,,,,,,,,,,,,,,,,,,,,,,,,,,,,,,,,,,,,,,,,
,,5d474ed70f79810001c36084,2024-02-22_00h24.09.051,kallum_motion_pilot,2023.2.2,Win32,144.092219,5d474ed70f79810001c36084,65d6bb0e977760de756971f7,65d6be3efde08c320ec404b7,0.019,0.019,0,37,37,45,1,threefour,,,,,,,,,,,,,,,,,,,,,,,,,,,,,,,,,,,,,,,,,,,,,,,,,,,,,,,,,,,,,,,,,,,,,,,,,,,,,,,,,,,,,,,,,,,,,,,,,,,,,,,,,,,,,,,,,,,,,,,,,,,,,,,,,,,,,,,,,
,,5d474ed70f79810001c36084,2024-02-22_00h24.09.051,kallum_motion_pilot,2023.2.2,Win32,144.092219,5d474ed70f79810001c36084,65d6bb0e977760de756971f7,65d6be3efde08c320ec404b7,0.019,0.019,0,38,38,4,1,threeone,,,,,,,,,,,,,,,,,,,,,,,,,,,,,,,,,,,,,,,,,,,,,,,,,,,,,,,,,,,,,,,,,,,,,,,,,,,,,,,,,,,,,,,,,,,,,,,,,,,,,,,,,,,,,,,,,,,,,,,,,,,,,,,,,,,,,,,,,
,,5d474ed70f79810001c36084,2024-02-22_00h24.09.051,kallum_motion_pilot,2023.2.2,Win32,144.092219,5d474ed70f79810001c36084,65d6bb0e977760de756971f7,65d6be3efde08c320ec404b7,0.019,0.019,0,39,39,35,1,twofour,,,,,,,,,,,,,,,,,,,,,,,,,,,,,,,,,,,,,,,,,,,,,,,,,,,,,,,,,,,,,,,,,,,,,,,,,,,,,,,,,,,,,,,,,,,,,,,,,,,,,,,,,,,,,,,,,,,,,,,,,,,,,,,,,,,,,,,,,
,,5d474ed70f79810001c36084,2024-02-22_00h24.09.051,kallum_motion_pilot,2023.2.2,Win32,144.092219,5d474ed70f79810001c36084,65d6bb0e977760de756971f7,65d6be3efde08c320ec404b7,0.019,0.019,0,40,40,149,1,seveneight,,,,,,,,,,,,,,,,,,,,,,,,,,,,,,,,,,,,,,,,,,,,,,,,,,,,,,,,,,,,,,,,,,,,,,,,,,,,,,,,,,,,,,,,,,,,,,,,,,,,,,,,,,,,,,,,,,,,,,,,,,,,,,,,,,,,,,,,,
,,5d474ed70f79810001c36084,2024-02-22_00h24.09.051,kallum_motion_pilot,2023.2.2,Win32,144.092219,5d474ed70f79810001c36084,65d6bb0e977760de756971f7,65d6be3efde08c320ec404b7,0.019,0.019,0,41,41,32,1,onetwo,,,,,,,,,,,,,,,,,,,,,,,,,,,,,,,,,,,,,,,,,,,,,,,,,,,,,,,,,,,,,,,,,,,,,,,,,,,,,,,,,,,,,,,,,,,,,,,,,,,,,,,,,,,,,,,,,,,,,,,,,,,,,,,,,,,,,,,,,
,,5d474ed70f79810001c36084,2024-02-22_00h24.09.051,kallum_motion_pilot,2023.2.2,Win32,144.092219,5d474ed70f79810001c36084,65d6bb0e977760de756971f7,65d6be3efde08c320ec404b7,0.019,0.019,0,42,42,87,1,eightseven,,,,,,,,,,,,,,,,,,,,,,,,,,,,,,,,,,,,,,,,,,,,,,,,,,,,,,,,,,,,,,,,,,,,,,,,,,,,,,,,,,,,,,,,,,,,,,,,,,,,,,,,,,,,,,,,,,,,,,,,,,,,,,,,,,,,,,,,,
,,5d474ed70f79810001c36084,2024-02-22_00h24.09.051,kallum_motion_pilot,2023.2.2,Win32,144.092219,5d474ed70f79810001c36084,65d6bb0e977760de756971f7,65d6be3efde08c320ec404b7,0.019,0.019,0,43,43,81,1,fiveseven,,,,,,,,,,,,,,,,,,,,,,,,,,,,,,,,,,,,,,,,,,,,,,,,,,,,,,,,,,,,,,,,,,,,,,,,,,,,,,,,,,,,,,,,,,,,,,,,,,,,,,,,,,,,,,,,,,,,,,,,,,,,,,,,,,,,,,,,,
,,5d474ed70f79810001c36084,2024-02-22_00h24.09.051,kallum_motion_pilot,2023.2.2,Win32,144.092219,5d474ed70f79810001c36084,65d6bb0e977760de756971f7,65d6be3efde08c320ec404b7,0.019,0.019,0,44,44,100,1,sevenfive,,,,,,,,,,,,,,,,,,,,,,,,,,,,,,,,,,,,,,,,,,,,,,,,,,,,,,,,,,,,,,,,,,,,,,,,,,,,,,,,,,,,,,,,,,,,,,,,,,,,,,,,,,,,,,,,,,,,,,,,,,,,,,,,,,,,,,,,,
,,5d474ed70f79810001c36084,2024-02-22_00h24.09.051,kallum_motion_pilot,2023.2.2,Win32,144.092219,5d474ed70f79810001c36084,65d6bb0e977760de756971f7,65d6be3efde08c320ec404b7,0.019,0.019,0,45,45,126,1,eightsix,,,,,,,,,,,,,,,,,,,,,,,,,,,,,,,,,,,,,,,,,,,,,,,,,,,,,,,,,,,,,,,,,,,,,,,,,,,,,,,,,,,,,,,,,,,,,,,,,,,,,,,,,,,,,,,,,,,,,,,,,,,,,,,,,,,,,,,,,
,,5d474ed70f79810001c36084,2024-02-22_00h24.09.051,kallum_motion_pilot,2023.2.2,Win32,144.092219,5d474ed70f79810001c36084,65d6bb0e977760de756971f7,65d6be3efde08c320ec404b7,0.019,0.019,0,46,46,37,1,threefour,,,,,,,,,,,,,,,,,,,,,,,,,,,,,,,,,,,,,,,,,,,,,,,,,,,,,,,,,,,,,,,,,,,,,,,,,,,,,,,,,,,,,,,,,,,,,,,,,,,,,,,,,,,,,,,,,,,,,,,,,,,,,,,,,,,,,,,,,
,,5d474ed70f79810001c36084,2024-02-22_00h24.09.051,kallum_motion_pilot,2023.2.2,Win32,144.092219,5d474ed70f79810001c36084,65d6bb0e977760de756971f7,65d6be3efde08c320ec404b7,0.019,0.019,0,47,47,16,1,onetwo,,,,,,,,,,,,,,,,,,,,,,,,,,,,,,,,,,,,,,,,,,,,,,,,,,,,,,,,,,,,,,,,,,,,,,,,,,,,,,,,,,,,,,,,,,,,,,,,,,,,,,,,,,,,,,,,,,,,,,,,,,,,,,,,,,,,,,,,,
,,5d474ed70f79810001c36084,2024-02-22_00h24.09.051,kallum_motion_pilot,2023.2.2,Win32,144.092219,5d474ed70f79810001c36084,65d6bb0e977760de756971f7,65d6be3efde08c320ec404b7,0.02,0.02,0,48,48,108,1,sevenfive,,,,,,,,,,,,,,,,,,,,,,,,,,,,,,,,,,,,,,,,,,,,,,,,,,,,,,,,,,,,,,,,,,,,,,,,,,,,,,,,,,,,,,,,,,,,,,,,,,,,,,,,,,,,,,,,,,,,,,,,,,,,,,,,,,,,,,,,,
,,5d474ed70f79810001c36084,2024-02-22_00h24.09.051,kallum_motion_pilot,2023.2.2,Win32,144.092219,5d474ed70f79810001c36084,65d6bb0e977760de756971f7,65d6be3efde08c320ec404b7,0.02,0.02,0,49,49,79,1,eightseven,,,,,,,,,,,,,,,,,,,,,,,,,,,,,,,,,,,,,,,,,,,,,,,,,,,,,,,,,,,,,,,,,,,,,,,,,,,,,,,,,,,,,,,,,,,,,,,,,,,,,,,,,,,,,,,,,,,,,,,,,,,,,,,,,,,,,,,,,
,,5d474ed70f79810001c36084,2024-02-22_00h24.09.051,kallum_motion_pilot,2023.2.2,Win32,144.092219,5d474ed70f79810001c36084,65d6bb0e977760de756971f7,65d6be3efde08c320ec404b7,0.02,0.02,0,50,50,6,1,fourtwo,,,,,,,,,,,,,,,,,,,,,,,,,,,,,,,,,,,,,,,,,,,,,,,,,,,,,,,,,,,,,,,,,,,,,,,,,,,,,,,,,,,,,,,,,,,,,,,,,,,,,,,,,,,,,,,,,,,,,,,,,,,,,,,,,,,,,,,,,
,,5d474ed70f79810001c36084,2024-02-22_00h24.09.051,kallum_motion_pilot,2023.2.2,Win32,144.092219,5d474ed70f79810001c36084,65d6bb0e977760de756971f7,65d6be3efde08c320ec404b7,0.02,0.02,0,51,51,143,1,eightseven,,,,,,,,,,,,,,,,,,,,,,,,,,,,,,,,,,,,,,,,,,,,,,,,,,,,,,,,,,,,,,,,,,,,,,,,,,,,,,,,,,,,,,,,,,,,,,,,,,,,,,,,,,,,,,,,,,,,,,,,,,,,,,,,,,,,,,,,,
,,5d474ed70f79810001c36084,2024-02-22_00h24.09.051,kallum_motion_pilot,2023.2.2,Win32,144.092219,5d474ed70f79810001c36084,65d6bb0e977760de756971f7,65d6be3efde08c320ec404b7,0.02,0.02,0,52,52,144,1,fivesix,,,,,,,,,,,,,,,,,,,,,,,,,,,,,,,,,,,,,,,,,,,,,,,,,,,,,,,,,,,,,,,,,,,,,,,,,,,,,,,,,,,,,,,,,,,,,,,,,,,,,,,,,,,,,,,,,,,,,,,,,,,,,,,,,,,,,,,,,
,,5d474ed70f79810001c36084,2024-02-22_00h24.09.051,kallum_motion_pilot,2023.2.2,Win32,144.092219,5d474ed70f79810001c36084,65d6bb0e977760de756971f7,65d6be3efde08c320ec404b7,0.02,0.02,0,53,53,39,1,fourthree,,,,,,,,,,,,,,,,,,,,,,,,,,,,,,,,,,,,,,,,,,,,,,,,,,,,,,,,,,,,,,,,,,,,,,,,,,,,,,,,,,,,,,,,,,,,,,,,,,,,,,,,,,,,,,,,,,,,,,,,,,,,,,,,,,,,,,,,,
,,5d474ed70f79810001c36084,2024-02-22_00h24.09.051,kallum_motion_pilot,2023.2.2,Win32,144.092219,5d474ed70f79810001c36084,65d6bb0e977760de756971f7,65d6be3efde08c320ec404b7,0.02,0.02,0,54,54,140,1,sevenfive,,,,,,,,,,,,,,,,,,,,,,,,,,,,,,,,,,,,,,,,,,,,,,,,,,,,,,,,,,,,,,,,,,,,,,,,,,,,,,,,,,,,,,,,,,,,,,,,,,,,,,,,,,,,,,,,,,,,,,,,,,,,,,,,,,,,,,,,,
,,5d474ed70f79810001c36084,2024-02-22_00h24.09.051,kallum_motion_pilot,2023.2.2,Win32,144.092219,5d474ed70f79810001c36084,65d6bb0e977760de756971f7,65d6be3efde08c320ec404b7,0.02,0.02,0,55,55,85,1,seveneight,,,,,,,,,,,,,,,,,,,,,,,,,,,,,,,,,,,,,,,,,,,,,,,,,,,,,,,,,,,,,,,,,,,,,,,,,,,,,,,,,,,,,,,,,,,,,,,,,,,,,,,,,,,,,,,,,,,,,,,,,,,,,,,,,,,,,,,,,
,,5d474ed70f79810001c36084,2024-02-22_00h24.09.051,kallum_motion_pilot,2023.2.2,Win32,144.092219,5d474ed70f79810001c36084,65d6bb0e977760de756971f7,65d6be3efde08c320ec404b7,0.02,0.02,0,56,56,93,1,seveneight,,,,,,,,,,,,,,,,,,,,,,,,,,,,,,,,,,,,,,,,,,,,,,,,,,,,,,,,,,,,,,,,,,,,,,,,,,,,,,,,,,,,,,,,,,,,,,,,,,,,,,,,,,,,,,,,,,,,,,,,,,,,,,,,,,,,,,,,,
,,5d474ed70f79810001c36084,2024-02-22_00h24.09.051,kallum_motion_pilot,2023.2.2,Win32,144.092219,5d474ed70f79810001c36084,65d6bb0e977760de756971f7,65d6be3efde08c320ec404b7,0.02,0.02,0,57,57,107,1,sixeight,,,,,,,,,,,,,,,,,,,,,,,,,,,,,,,,,,,,,,,,,,,,,,,,,,,,,,,,,,,,,,,,,,,,,,,,,,,,,,,,,,,,,,,,,,,,,,,,,,,,,,,,,,,,,,,,,,,,,,,,,,,,,,,,,,,,,,,,,
,,5d474ed70f79810001c36084,2024-02-22_00h24.09.051,kallum_motion_pilot,2023.2.2,Win32,144.092219,5d474ed70f79810001c36084,65d6bb0e977760de756971f7,65d6be3efde08c320ec404b7,0.02,0.02,0,58,58,12,1,threeone,,,,,,,,,,,,,,,,,,,,,,,,,,,,,,,,,,,,,,,,,,,,,,,,,,,,,,,,,,,,,,,,,,,,,,,,,,,,,,,,,,,,,,,,,,,,,,,,,,,,,,,,,,,,,,,,,,,,,,,,,,,,,,,,,,,,,,,,,
,,5d474ed70f79810001c36084,2024-02-22_00h24.09.051,kallum_motion_pilot,2023.2.2,Win32,144.092219,5d474ed70f79810001c36084,65d6bb0e977760de756971f7,65d6be3efde08c320ec404b7,0.02,0.02,0,59,59,122,1,sixfive,,,,,,,,,,,,,,,,,,,,,,,,,,,,,,,,,,,,,,,,,,,,,,,,,,,,,,,,,,,,,,,,,,,,,,,,,,,,,,,,,,,,,,,,,,,,,,,,,,,,,,,,,,,,,,,,,,,,,,,,,,,,,,,,,,,,,,,,,
,,5d474ed70f79810001c36084,2024-02-22_00h24.09.051,kallum_motion_pilot,2023.2.2,Win32,144.092219,5d474ed70f79810001c36084,65d6bb0e977760de756971f7,65d6be3efde08c320ec404b7,0.02,0.02,0,60,60,64,1,onetwo,,,,,,,,,,,,,,,,,,,,,,,,,,,,,,,,,,,,,,,,,,,,,,,,,,,,,,,,,,,,,,,,,,,,,,,,,,,,,,,,,,,,,,,,,,,,,,,,,,,,,,,,,,,,,,,,,,,,,,,,,,,,,,,,,,,,,,,,,
,,5d474ed70f79810001c36084,2024-02-22_00h24.09.051,kallum_motion_pilot,2023.2.2,Win32,144.092219,5d474ed70f79810001c36084,65d6bb0e977760de756971f7,65d6be3efde08c320ec404b7,0.02,0.02,0,61,61,58,1,twoone,,,,,,,,,,,,,,,,,,,,,,,,,,,,,,,,,,,,,,,,,,,,,,,,,,,,,,,,,,,,,,,,,,,,,,,,,,,,,,,,,,,,,,,,,,,,,,,,,,,,,,,,,,,,,,,,,,,,,,,,,,,,,,,,,,,,,,,,,
,,5d474ed70f79810001c36084,2024-02-22_00h24.09.051,kallum_motion_pilot,2023.2.2,Win32,144.092219,5d474ed70f79810001c36084,65d6bb0e977760de756971f7,65d6be3efde08c320ec404b7,0.02,0.02,0,62,62,5,1,threefour,,,,,,,,,,,,,,,,,,,,,,,,,,,,,,,,,,,,,,,,,,,,,,,,,,,,,,,,,,,,,,,,,,,,,,,,,,,,,,,,,,,,,,,,,,,,,,,,,,,,,,,,,,,,,,,,,,,,,,,,,,,,,,,,,,,,,,,,,
,,5d474ed70f79810001c36084,2024-02-22_00h24.09.051,kallum_motion_pilot,2023.2.2,Win32,144.092219,5d474ed70f79810001c36084,65d6bb0e977760de756971f7,65d6be3efde08c320ec404b7,0.02,0.02,0,63,63,52,1,threeone,,,,,,,,,,,,,,,,,,,,,,,,,,,,,,,,,,,,,,,,,,,,,,,,,,,,,,,,,,,,,,,,,,,,,,,,,,,,,,,,,,,,,,,,,,,,,,,,,,,,,,,,,,,,,,,,,,,,,,,,,,,,,,,,,,,,,,,,,
,,5d474ed70f79810001c36084,2024-02-22_00h24.09.051,kallum_motion_pilot,2023.2.2,Win32,144.092219,5d474ed70f79810001c36084,65d6bb0e977760de756971f7,65d6be3efde08c320ec404b7,0.02,0.02,0,64,64,142,1,eightsix,,,,,,,,,,,,,,,,,,,,,,,,,,,,,,,,,,,,,,,,,,,,,,,,,,,,,,,,,,,,,,,,,,,,,,,,,,,,,,,,,,,,,,,,,,,,,,,,,,,,,,,,,,,,,,,,,,,,,,,,,,,,,,,,,,,,,,,,,
,,5d474ed70f79810001c36084,2024-02-22_00h24.09.051,kallum_motion_pilot,2023.2.2,Win32,144.092219,5d474ed70f79810001c36084,65d6bb0e977760de756971f7,65d6be3efde08c320ec404b7,0.02,0.02,0,65,65,69,1,threefour,,,,,,,,,,,,,,,,,,,,,,,,,,,,,,,,,,,,,,,,,,,,,,,,,,,,,,,,,,,,,,,,,,,,,,,,,,,,,,,,,,,,,,,,,,,,,,,,,,,,,,,,,,,,,,,,,,,,,,,,,,,,,,,,,,,,,,,,,
,,5d474ed70f79810001c36084,2024-02-22_00h24.09.051,kallum_motion_pilot,2023.2.2,Win32,144.092219,5d474ed70f79810001c36084,65d6bb0e977760de756971f7,65d6be3efde08c320ec404b7,0.02,0.02,0,66,66,111,1,eightseven,,,,,,,,,,,,,,,,,,,,,,,,,,,,,,,,,,,,,,,,,,,,,,,,,,,,,,,,,,,,,,,,,,,,,,,,,,,,,,,,,,,,,,,,,,,,,,,,,,,,,,,,,,,,,,,,,,,,,,,,,,,,,,,,,,,,,,,,,
,,5d474ed70f79810001c36084,2024-02-22_00h24.09.051,kallum_motion_pilot,2023.2.2,Win32,144.092219,5d474ed70f79810001c36084,65d6bb0e977760de756971f7,65d6be3efde08c320ec404b7,0.02,0.02,0,67,67,88,1,fivesix,,,,,,,,,,,,,,,,,,,,,,,,,,,,,,,,,,,,,,,,,,,,,,,,,,,,,,,,,,,,,,,,,,,,,,,,,,,,,,,,,,,,,,,,,,,,,,,,,,,,,,,,,,,,,,,,,,,,,,,,,,,,,,,,,,,,,,,,,
,,5d474ed70f79810001c36084,2024-02-22_00h24.09.051,kallum_motion_pilot,2023.2.2,Win32,144.092219,5d474ed70f79810001c36084,65d6bb0e977760de756971f7,65d6be3efde08c320ec404b7,0.02,0.02,0,68,68,63,1,fourthree,,,,,,,,,,,,,,,,,,,,,,,,,,,,,,,,,,,,,,,,,,,,,,,,,,,,,,,,,,,,,,,,,,,,,,,,,,,,,,,,,,,,,,,,,,,,,,,,,,,,,,,,,,,,,,,,,,,,,,,,,,,,,,,,,,,,,,,,,
,,5d474ed70f79810001c36084,2024-02-22_00h24.09.051,kallum_motion_pilot,2023.2.2,Win32,144.092219,5d474ed70f79810001c36084,65d6bb0e977760de756971f7,65d6be3efde08c320ec404b7,0.02,0.02,0,69,69,40,1,onetwo,,,,,,,,,,,,,,,,,,,,,,,,,,,,,,,,,,,,,,,,,,,,,,,,,,,,,,,,,,,,,,,,,,,,,,,,,,,,,,,,,,,,,,,,,,,,,,,,,,,,,,,,,,,,,,,,,,,,,,,,,,,,,,,,,,,,,,,,,
,,5d474ed70f79810001c36084,2024-02-22_00h24.09.051,kallum_motion_pilot,2023.2.2,Win32,144.092219,5d474ed70f79810001c36084,65d6bb0e977760de756971f7,65d6be3efde08c320ec404b7,0.02,0.02,0,70,70,42,1,twoone,,,,,,,,,,,,,,,,,,,,,,,,,,,,,,,,,,,,,,,,,,,,,,,,,,,,,,,,,,,,,,,,,,,,,,,,,,,,,,,,,,,,,,,,,,,,,,,,,,,,,,,,,,,,,,,,,,,,,,,,,,,,,,,,,,,,,,,,,
,,5d474ed70f79810001c36084,2024-02-22_00h24.09.051,kallum_motion_pilot,2023.2.2,Win32,144.092219,5d474ed70f79810001c36084,65d6bb0e977760de756971f7,65d6be3efde08c320ec404b7,0.02,0.02,0,71,71,154,1,sixfive,,,,,,,,,,,,,,,,,,,,,,,,,,,,,,,,,,,,,,,,,,,,,,,,,,,,,,,,,,,,,,,,,,,,,,,,,,,,,,,,,,,,,,,,,,,,,,,,,,,,,,,,,,,,,,,,,,,,,,,,,,,,,,,,,,,,,,,,,
,,5d474ed70f79810001c36084,2024-02-22_00h24.09.051,kallum_motion_pilot,2023.2.2,Win32,144.092219,5d474ed70f79810001c36084,65d6bb0e977760de756971f7,65d6be3efde08c320ec404b7,0.02,0.02,0,72,72,66,1,twoone,,,,,,,,,,,,,,,,,,,,,,,,,,,,,,,,,,,,,,,,,,,,,,,,,,,,,,,,,,,,,,,,,,,,,,,,,,,,,,,,,,,,,,,,,,,,,,,,,,,,,,,,,,,,,,,,,,,,,,,,,,,,,,,,,,,,,,,,,
,,5d474ed70f79810001c36084,2024-02-22_00h24.09.051,kallum_motion_pilot,2023.2.2,Win32,144.092219,5d474ed70f79810001c36084,65d6bb0e977760de756971f7,65d6be3efde08c320ec404b7,0.02,0.02,0,73,73,25,1,onethree,,,,,,,,,,,,,,,,,,,,,,,,,,,,,,,,,,,,,,,,,,,,,,,,,,,,,,,,,,,,,,,,,,,,,,,,,,,,,,,,,,,,,,,,,,,,,,,,,,,,,,,,,,,,,,,,,,,,,,,,,,,,,,,,,,,,,,,,,
,,5d474ed70f79810001c36084,2024-02-22_00h24.09.051,kallum_motion_pilot,2023.2.2,Win32,144.092219,5d474ed70f79810001c36084,65d6bb0e977760de756971f7,65d6be3efde08c320ec404b7,0.021,0.021,0,74,74,71,1,fourthree,,,,,,,,,,,,,,,,,,,,,,,,,,,,,,,,,,,,,,,,,,,,,,,,,,,,,,,,,,,,,,,,,,,,,,,,,,,,,,,,,,,,,,,,,,,,,,,,,,,,,,,,,,,,,,,,,,,,,,,,,,,,,,,,,,,,,,,,,
,,5d474ed70f79810001c36084,2024-02-22_00h24.09.051,kallum_motion_pilot,2023.2.2,Win32,144.092219,5d474ed70f79810001c36084,65d6bb0e977760de756971f7,65d6be3efde08c320ec404b7,0.021,0.021,0,75,75,125,1,seveneight,,,,,,,,,,,,,,,,,,,,,,,,,,,,,,,,,,,,,,,,,,,,,,,,,,,,,,,,,,,,,,,,,,,,,,,,,,,,,,,,,,,,,,,,,,,,,,,,,,,,,,,,,,,,,,,,,,,,,,,,,,,,,,,,,,,,,,,,,
,,5d474ed70f79810001c36084,2024-02-22_00h24.09.051,kallum_motion_pilot,2023.2.2,Win32,144.092219,5d474ed70f79810001c36084,65d6bb0e977760de756971f7,65d6be3efde08c320ec404b7,0.021,0.021,0,76,76,113,1,fiveseven,,,,,,,,,,,,,,,,,,,,,,,,,,,,,,,,,,,,,,,,,,,,,,,,,,,,,,,,,,,,,,,,,,,,,,,,,,,,,,,,,,,,,,,,,,,,,,,,,,,,,,,,,,,,,,,,,,,,,,,,,,,,,,,,,,,,,,,,,
,,5d474ed70f79810001c36084,2024-02-22_00h24.09.051,kallum_motion_pilot,2023.2.2,Win32,144.092219,5d474ed70f79810001c36084,65d6bb0e977760de756971f7,65d6be3efde08c320ec404b7,0.021,0.021,0,77,77,34,1,twoone,,,,,,,,,,,,,,,,,,,,,,,,,,,,,,,,,,,,,,,,,,,,,,,,,,,,,,,,,,,,,,,,,,,,,,,,,,,,,,,,,,,,,,,,,,,,,,,,,,,,,,,,,,,,,,,,,,,,,,,,,,,,,,,,,,,,,,,,,
,,5d474ed70f79810001c36084,2024-02-22_00h24.09.051,kallum_motion_pilot,2023.2.2,Win32,144.092219,5d474ed70f79810001c36084,65d6bb0e977760de756971f7,65d6be3efde08c320ec404b7,0.021,0.021,0,78,78,109,1,seveneight,,,,,,,,,,,,,,,,,,,,,,,,,,,,,,,,,,,,,,,,,,,,,,,,,,,,,,,,,,,,,,,,,,,,,,,,,,,,,,,,,,,,,,,,,,,,,,,,,,,,,,,,,,,,,,,,,,,,,,,,,,,,,,,,,,,,,,,,,
,,5d474ed70f79810001c36084,2024-02-22_00h24.09.051,kallum_motion_pilot,2023.2.2,Win32,144.092219,5d474ed70f79810001c36084,65d6bb0e977760de756971f7,65d6be3efde08c320ec404b7,0.021,0.021,0,79,79,130,1,sixfive,,,,,,,,,,,,,,,,,,,,,,,,,,,,,,,,,,,,,,,,,,,,,,,,,,,,,,,,,,,,,,,,,,,,,,,,,,,,,,,,,,,,,,,,,,,,,,,,,,,,,,,,,,,,,,,,,,,,,,,,,,,,,,,,,,,,,,,,,
,,5d474ed70f79810001c36084,2024-02-22_00h24.09.051,kallum_motion_pilot,2023.2.2,Win32,144.092219,5d474ed70f79810001c36084,65d6bb0e977760de756971f7,65d6be3efde08c320ec404b7,0.021,0.021,0,80,80,96,1,fivesix,,,,,,,,,,,,,,,,,,,,,,,,,,,,,,,,,,,,,,,,,,,,,,,,,,,,,,,,,,,,,,,,,,,,,,,,,,,,,,,,,,,,,,,,,,,,,,,,,,,,,,,,,,,,,,,,,,,,,,,,,,,,,,,,,,,,,,,,,
,,5d474ed70f79810001c36084,2024-02-22_00h24.09.051,kallum_motion_pilot,2023.2.2,Win32,144.092219,5d474ed70f79810001c36084,65d6bb0e977760de756971f7,65d6be3efde08c320ec404b7,0.021,0.021,0,81,81,134,1,eightsix,,,,,,,,,,,,,,,,,,,,,,,,,,,,,,,,,,,,,,,,,,,,,,,,,,,,,,,,,,,,,,,,,,,,,,,,,,,,,,,,,,,,,,,,,,,,,,,,,,,,,,,,,,,,,,,,,,,,,,,,,,,,,,,,,,,,,,,,,
,,5d474ed70f79810001c36084,2024-02-22_00h24.09.051,kallum_motion_pilot,2023.2.2,Win32,144.092219,5d474ed70f79810001c36084,65d6bb0e977760de756971f7,65d6be3efde08c320ec404b7,0.021,0.021,0,82,82,31,1,fourthree,,,,,,,,,,,,,,,,,,,,,,,,,,,,,,,,,,,,,,,,,,,,,,,,,,,,,,,,,,,,,,,,,,,,,,,,,,,,,,,,,,,,,,,,,,,,,,,,,,,,,,,,,,,,,,,,,,,,,,,,,,,,,,,,,,,,,,,,,
,,5d474ed70f79810001c36084,2024-02-22_00h24.09.051,kallum_motion_pilot,2023.2.2,Win32,144.092219,5d474ed70f79810001c36084,65d6bb0e977760de756971f7,65d6be3efde08c320ec404b7,0.021,0.021,0,83,83,8,1,onetwo,,,,,,,,,,,,,,,,,,,,,,,,,,,,,,,,,,,,,,,,,,,,,,,,,,,,,,,,,,,,,,,,,,,,,,,,,,,,,,,,,,,,,,,,,,,,,,,,,,,,,,,,,,,,,,,,,,,,,,,,,,,,,,,,,,,,,,,,,
,,5d474ed70f79810001c36084,2024-02-22_00h24.09.051,kallum_motion_pilot,2023.2.2,Win32,144.092219,5d474ed70f79810001c36084,65d6bb0e977760de756971f7,65d6be3efde08c320ec404b7,0.021,0.021,0,84,84,44,1,threeone,,,,,,,,,,,,,,,,,,,,,,,,,,,,,,,,,,,,,,,,,,,,,,,,,,,,,,,,,,,,,,,,,,,,,,,,,,,,,,,,,,,,,,,,,,,,,,,,,,,,,,,,,,,,,,,,,,,,,,,,,,,,,,,,,,,,,,,,,
,,5d474ed70f79810001c36084,2024-02-22_00h24.09.051,kallum_motion_pilot,2023.2.2,Win32,144.092219,5d474ed70f79810001c36084,65d6bb0e977760de756971f7,65d6be3efde08c320ec404b7,0.021,0.021,0,85,85,10,1,twoone,,,,,,,,,,,,,,,,,,,,,,,,,,,,,,,,,,,,,,,,,,,,,,,,,,,,,,,,,,,,,,,,,,,,,,,,,,,,,,,,,,,,,,,,,,,,,,,,,,,,,,,,,,,,,,,,,,,,,,,,,,,,,,,,,,,,,,,,,
,,5d474ed70f79810001c36084,2024-02-22_00h24.09.051,kallum_motion_pilot,2023.2.2,Win32,144.092219,5d474ed70f79810001c36084,65d6bb0e977760de756971f7,65d6be3efde08c320ec404b7,0.021,0.021,0,86,86,70,1,fourtwo,,,,,,,,,,,,,,,,,,,,,,,,,,,,,,,,,,,,,,,,,,,,,,,,,,,,,,,,,,,,,,,,,,,,,,,,,,,,,,,,,,,,,,,,,,,,,,,,,,,,,,,,,,,,,,,,,,,,,,,,,,,,,,,,,,,,,,,,,
,,5d474ed70f79810001c36084,2024-02-22_00h24.09.051,kallum_motion_pilot,2023.2.2,Win32,144.092219,5d474ed70f79810001c36084,65d6bb0e977760de756971f7,65d6be3efde08c320ec404b7,0.021,0.021,0,87,87,89,1,fiveseven,,,,,,,,,,,,,,,,,,,,,,,,,,,,,,,,,,,,,,,,,,,,,,,,,,,,,,,,,,,,,,,,,,,,,,,,,,,,,,,,,,,,,,,,,,,,,,,,,,,,,,,,,,,,,,,,,,,,,,,,,,,,,,,,,,,,,,,,,
,,5d474ed70f79810001c36084,2024-02-22_00h24.09.051,kallum_motion_pilot,2023.2.2,Win32,144.092219,5d474ed70f79810001c36084,65d6bb0e977760de756971f7,65d6be3efde08c320ec404b7,0.021,0.021,0,88,88,156,1,sevenfive,,,,,,,,,,,,,,,,,,,,,,,,,,,,,,,,,,,,,,,,,,,,,,,,,,,,,,,,,,,,,,,,,,,,,,,,,,,,,,,,,,,,,,,,,,,,,,,,,,,,,,,,,,,,,,,,,,,,,,,,,,,,,,,,,,,,,,,,,
,,5d474ed70f79810001c36084,2024-02-22_00h24.09.051,kallum_motion_pilot,2023.2.2,Win32,144.092219,5d474ed70f79810001c36084,65d6bb0e977760de756971f7,65d6be3efde08c320ec404b7,0.021,0.021,0,89,89,123,1,sixeight,,,,,,,,,,,,,,,,,,,,,,,,,,,,,,,,,,,,,,,,,,,,,,,,,,,,,,,,,,,,,,,,,,,,,,,,,,,,,,,,,,,,,,,,,,,,,,,,,,,,,,,,,,,,,,,,,,,,,,,,,,,,,,,,,,,,,,,,,
,,5d474ed70f79810001c36084,2024-02-22_00h24.09.051,kallum_motion_pilot,2023.2.2,Win32,144.092219,5d474ed70f79810001c36084,65d6bb0e977760de756971f7,65d6be3efde08c320ec404b7,0.021,0.021,0,90,90,119,1,eightseven,,,,,,,,,,,,,,,,,,,,,,,,,,,,,,,,,,,,,,,,,,,,,,,,,,,,,,,,,,,,,,,,,,,,,,,,,,,,,,,,,,,,,,,,,,,,,,,,,,,,,,,,,,,,,,,,,,,,,,,,,,,,,,,,,,,,,,,,,
,,5d474ed70f79810001c36084,2024-02-22_00h24.09.051,kallum_motion_pilot,2023.2.2,Win32,144.092219,5d474ed70f79810001c36084,65d6bb0e977760de756971f7,65d6be3efde08c320ec404b7,0.021,0.021,0,91,91,7,1,fourthree,,,,,,,,,,,,,,,,,,,,,,,,,,,,,,,,,,,,,,,,,,,,,,,,,,,,,,,,,,,,,,,,,,,,,,,,,,,,,,,,,,,,,,,,,,,,,,,,,,,,,,,,,,,,,,,,,,,,,,,,,,,,,,,,,,,,,,,,,
,,5d474ed70f79810001c36084,2024-02-22_00h24.09.051,kallum_motion_pilot,2023.2.2,Win32,144.092219,5d474ed70f79810001c36084,65d6bb0e977760de756971f7,65d6be3efde08c320ec404b7,0.021,0.021,0,92,92,57,1,onethree,,,,,,,,,,,,,,,,,,,,,,,,,,,,,,,,,,,,,,,,,,,,,,,,,,,,,,,,,,,,,,,,,,,,,,,,,,,,,,,,,,,,,,,,,,,,,,,,,,,,,,,,,,,,,,,,,,,,,,,,,,,,,,,,,,,,,,,,,
,,5d474ed70f79810001c36084,2024-02-22_00h24.09.051,kallum_motion_pilot,2023.2.2,Win32,144.092219,5d474ed70f79810001c36084,65d6bb0e977760de756971f7,65d6be3efde08c320ec404b7,0.022,0.022,0,93,93,101,1,seveneight,,,,,,,,,,,,,,,,,,,,,,,,,,,,,,,,,,,,,,,,,,,,,,,,,,,,,,,,,,,,,,,,,,,,,,,,,,,,,,,,,,,,,,,,,,,,,,,,,,,,,,,,,,,,,,,,,,,,,,,,,,,,,,,,,,,,,,,,,
,,5d474ed70f79810001c36084,2024-02-22_00h24.09.051,kallum_motion_pilot,2023.2.2,Win32,144.092219,5d474ed70f79810001c36084,65d6bb0e977760de756971f7,65d6be3efde08c320ec404b7,0.022,0.022,0,94,94,132,1,sevenfive,,,,,,,,,,,,,,,,,,,,,,,,,,,,,,,,,,,,,,,,,,,,,,,,,,,,,,,,,,,,,,,,,,,,,,,,,,,,,,,,,,,,,,,,,,,,,,,,,,,,,,,,,,,,,,,,,,,,,,,,,,,,,,,,,,,,,,,,,
,,5d474ed70f79810001c36084,2024-02-22_00h24.09.051,kallum_motion_pilot,2023.2.2,Win32,144.092219,5d474ed70f79810001c36084,65d6bb0e977760de756971f7,65d6be3efde08c320ec404b7,0.022,0.022,0,95,95,138,1,sixfive,,,,,,,,,,,,,,,,,,,,,,,,,,,,,,,,,,,,,,,,,,,,,,,,,,,,,,,,,,,,,,,,,,,,,,,,,,,,,,,,,,,,,,,,,,,,,,,,,,,,,,,,,,,,,,,,,,,,,,,,,,,,,,,,,,,,,,,,,
,,5d474ed70f79810001c36084,2024-02-22_00h24.09.051,kallum_motion_pilot,2023.2.2,Win32,144.092219,5d474ed70f79810001c36084,65d6bb0e977760de756971f7,65d6be3efde08c320ec404b7,0.022,0.022,0,96,96,157,1,seveneight,,,,,,,,,,,,,,,,,,,,,,,,,,,,,,,,,,,,,,,,,,,,,,,,,,,,,,,,,,,,,,,,,,,,,,,,,,,,,,,,,,,,,,,,,,,,,,,,,,,,,,,,,,,,,,,,,,,,,,,,,,,,,,,,,,,,,,,,,
,,5d474ed70f79810001c36084,2024-02-22_00h24.09.051,kallum_motion_pilot,2023.2.2,Win32,144.092219,5d474ed70f79810001c36084,65d6bb0e977760de756971f7,65d6be3efde08c320ec404b7,0.022,0.022,0,97,97,30,1,fourtwo,,,,,,,,,,,,,,,,,,,,,,,,,,,,,,,,,,,,,,,,,,,,,,,,,,,,,,,,,,,,,,,,,,,,,,,,,,,,,,,,,,,,,,,,,,,,,,,,,,,,,,,,,,,,,,,,,,,,,,,,,,,,,,,,,,,,,,,,,
,,5d474ed70f79810001c36084,2024-02-22_00h24.09.051,kallum_motion_pilot,2023.2.2,Win32,144.092219,5d474ed70f79810001c36084,65d6bb0e977760de756971f7,65d6be3efde08c320ec404b7,0.022,0.022,0,98,98,15,1,fourthree,,,,,,,,,,,,,,,,,,,,,,,,,,,,,,,,,,,,,,,,,,,,,,,,,,,,,,,,,,,,,,,,,,,,,,,,,,,,,,,,,,,,,,,,,,,,,,,,,,,,,,,,,,,,,,,,,,,,,,,,,,,,,,,,,,,,,,,,,
,,5d474ed70f79810001c36084,2024-02-22_00h24.09.051,kallum_motion_pilot,2023.2.2,Win32,144.092219,5d474ed70f79810001c36084,65d6bb0e977760de756971f7,65d6be3efde08c320ec404b7,0.022,0.022,0,99,99,135,1,eightseven,,,,,,,,,,,,,,,,,,,,,,,,,,,,,,,,,,,,,,,,,,,,,,,,,,,,,,,,,,,,,,,,,,,,,,,,,,,,,,,,,,,,,,,,,,,,,,,,,,,,,,,,,,,,,,,,,,,,,,,,,,,,,,,,,,,,,,,,,
,,5d474ed70f79810001c36084,2024-02-22_00h24.09.051,kallum_motion_pilot,2023.2.2,Win32,144.092219,5d474ed70f79810001c36084,65d6bb0e977760de756971f7,65d6be3efde08c320ec404b7,0.022,0.022,0,100,100,153,1,fiveseven,,,,,,,,,,,,,,,,,,,,,,,,,,,,,,,,,,,,,,,,,,,,,,,,,,,,,,,,,,,,,,,,,,,,,,,,,,,,,,,,,,,,,,,,,,,,,,,,,,,,,,,,,,,,,,,,,,,,,,,,,,,,,,,,,,,,,,,,,
,,5d474ed70f79810001c36084,2024-02-22_00h24.09.051,kallum_motion_pilot,2023.2.2,Win32,144.092219,5d474ed70f79810001c36084,65d6bb0e977760de756971f7,65d6be3efde08c320ec404b7,0.022,0.022,0,101,101,38,1,fourtwo,,,,,,,,,,,,,,,,,,,,,,,,,,,,,,,,,,,,,,,,,,,,,,,,,,,,,,,,,,,,,,,,,,,,,,,,,,,,,,,,,,,,,,,,,,,,,,,,,,,,,,,,,,,,,,,,,,,,,,,,,,,,,,,,,,,,,,,,,
,,5d474ed70f79810001c36084,2024-02-22_00h24.09.051,kallum_motion_pilot,2023.2.2,Win32,144.092219,5d474ed70f79810001c36084,65d6bb0e977760de756971f7,65d6be3efde08c320ec404b7,0.022,0.022,0,102,102,46,1,fourtwo,,,,,,,,,,,,,,,,,,,,,,,,,,,,,,,,,,,,,,,,,,,,,,,,,,,,,,,,,,,,,,,,,,,,,,,,,,,,,,,,,,,,,,,,,,,,,,,,,,,,,,,,,,,,,,,,,,,,,,,,,,,,,,,,,,,,,,,,,
,,5d474ed70f79810001c36084,2024-02-22_00h24.09.051,kallum_motion_pilot,2023.2.2,Win32,144.092219,5d474ed70f79810001c36084,65d6bb0e977760de756971f7,65d6be3efde08c320ec404b7,0.022,0.022,0,103,103,86,1,eightsix,,,,,,,,,,,,,,,,,,,,,,,,,,,,,,,,,,,,,,,,,,,,,,,,,,,,,,,,,,,,,,,,,,,,,,,,,,,,,,,,,,,,,,,,,,,,,,,,,,,,,,,,,,,,,,,,,,,,,,,,,,,,,,,,,,,,,,,,,
,,5d474ed70f79810001c36084,2024-02-22_00h24.09.051,kallum_motion_pilot,2023.2.2,Win32,144.092219,5d474ed70f79810001c36084,65d6bb0e977760de756971f7,65d6be3efde08c320ec404b7,0.022,0.022,0,104,104,92,1,sevenfive,,,,,,,,,,,,,,,,,,,,,,,,,,,,,,,,,,,,,,,,,,,,,,,,,,,,,,,,,,,,,,,,,,,,,,,,,,,,,,,,,,,,,,,,,,,,,,,,,,,,,,,,,,,,,,,,,,,,,,,,,,,,,,,,,,,,,,,,,
,,5d474ed70f79810001c36084,2024-02-22_00h24.09.051,kallum_motion_pilot,2023.2.2,Win32,144.092219,5d474ed70f79810001c36084,65d6bb0e977760de756971f7,65d6be3efde08c320ec404b7,0.022,0.022,0,105,105,128,1,fivesix,,,,,,,,,,,,,,,,,,,,,,,,,,,,,,,,,,,,,,,,,,,,,,,,,,,,,,,,,,,,,,,,,,,,,,,,,,,,,,,,,,,,,,,,,,,,,,,,,,,,,,,,,,,,,,,,,,,,,,,,,,,,,,,,,,,,,,,,,
,,5d474ed70f79810001c36084,2024-02-22_00h24.09.051,kallum_motion_pilot,2023.2.2,Win32,144.092219,5d474ed70f79810001c36084,65d6bb0e977760de756971f7,65d6be3efde08c320ec404b7,0.022,0.022,0,106,106,47,1,fourthree,,,,,,,,,,,,,,,,,,,,,,,,,,,,,,,,,,,,,,,,,,,,,,,,,,,,,,,,,,,,,,,,,,,,,,,,,,,,,,,,,,,,,,,,,,,,,,,,,,,,,,,,,,,,,,,,,,,,,,,,,,,,,,,,,,,,,,,,,
,,5d474ed70f79810001c36084,2024-02-22_00h24.09.051,kallum_motion_pilot,2023.2.2,Win32,144.092219,5d474ed70f79810001c36084,65d6bb0e977760de756971f7,65d6be3efde08c320ec404b7,0.022,0.022,0,107,107,115,1,sixeight,,,,,,,,,,,,,,,,,,,,,,,,,,,,,,,,,,,,,,,,,,,,,,,,,,,,,,,,,,,,,,,,,,,,,,,,,,,,,,,,,,,,,,,,,,,,,,,,,,,,,,,,,,,,,,,,,,,,,,,,,,,,,,,,,,,,,,,,,
,,5d474ed70f79810001c36084,2024-02-22_00h24.09.051,kallum_motion_pilot,2023.2.2,Win32,144.092219,5d474ed70f79810001c36084,65d6bb0e977760de756971f7,65d6be3efde08c320ec404b7,0.022,0.022,0,108,108,62,1,fourtwo,,,,,,,,,,,,,,,,,,,,,,,,,,,,,,,,,,,,,,,,,,,,,,,,,,,,,,,,,,,,,,,,,,,,,,,,,,,,,,,,,,,,,,,,,,,,,,,,,,,,,,,,,,,,,,,,,,,,,,,,,,,,,,,,,,,,,,,,,
,,5d474ed70f79810001c36084,2024-02-22_00h24.09.051,kallum_motion_pilot,2023.2.2,Win32,144.092219,5d474ed70f79810001c36084,65d6bb0e977760de756971f7,65d6be3efde08c320ec404b7,0.022,0.022,0,109,109,29,1,threefour,,,,,,,,,,,,,,,,,,,,,,,,,,,,,,,,,,,,,,,,,,,,,,,,,,,,,,,,,,,,,,,,,,,,,,,,,,,,,,,,,,,,,,,,,,,,,,,,,,,,,,,,,,,,,,,,,,,,,,,,,,,,,,,,,,,,,,,,,
,,5d474ed70f79810001c36084,2024-02-22_00h24.09.051,kallum_motion_pilot,2023.2.2,Win32,144.092219,5d474ed70f79810001c36084,65d6bb0e977760de756971f7,65d6be3efde08c320ec404b7,0.022,0.022,0,110,110,41,1,onethree,,,,,,,,,,,,,,,,,,,,,,,,,,,,,,,,,,,,,,,,,,,,,,,,,,,,,,,,,,,,,,,,,,,,,,,,,,,,,,,,,,,,,,,,,,,,,,,,,,,,,,,,,,,,,,,,,,,,,,,,,,,,,,,,,,,,,,,,,
,,5d474ed70f79810001c36084,2024-02-22_00h24.09.051,kallum_motion_pilot,2023.2.2,Win32,144.092219,5d474ed70f79810001c36084,65d6bb0e977760de756971f7,65d6be3efde08c320ec404b7,0.022,0.022,0,111,111,82,1,sixfive,,,,,,,,,,,,,,,,,,,,,,,,,,,,,,,,,,,,,,,,,,,,,,,,,,,,,,,,,,,,,,,,,,,,,,,,,,,,,,,,,,,,,,,,,,,,,,,,,,,,,,,,,,,,,,,,,,,,,,,,,,,,,,,,,,,,,,,,,
,,5d474ed70f79810001c36084,2024-02-22_00h24.09.051,kallum_motion_pilot,2023.2.2,Win32,144.092219,5d474ed70f79810001c36084,65d6bb0e977760de756971f7,65d6be3efde08c320ec404b7,0.023,0.023,0,112,112,21,1,threefour,,,,,,,,,,,,,,,,,,,,,,,,,,,,,,,,,,,,,,,,,,,,,,,,,,,,,,,,,,,,,,,,,,,,,,,,,,,,,,,,,,,,,,,,,,,,,,,,,,,,,,,,,,,,,,,,,,,,,,,,,,,,,,,,,,,,,,,,,
,,5d474ed70f79810001c36084,2024-02-22_00h24.09.051,kallum_motion_pilot,2023.2.2,Win32,144.092219,5d474ed70f79810001c36084,65d6bb0e977760de756971f7,65d6be3efde08c320ec404b7,0.023,0.023,0,113,113,99,1,sixeight,,,,,,,,,,,,,,,,,,,,,,,,,,,,,,,,,,,,,,,,,,,,,,,,,,,,,,,,,,,,,,,,,,,,,,,,,,,,,,,,,,,,,,,,,,,,,,,,,,,,,,,,,,,,,,,,,,,,,,,,,,,,,,,,,,,,,,,,,
,,5d474ed70f79810001c36084,2024-02-22_00h24.09.051,kallum_motion_pilot,2023.2.2,Win32,144.092219,5d474ed70f79810001c36084,65d6bb0e977760de756971f7,65d6be3efde08c320ec404b7,0.023,0.023,0,114,114,116,1,sevenfive,,,,,,,,,,,,,,,,,,,,,,,,,,,,,,,,,,,,,,,,,,,,,,,,,,,,,,,,,,,,,,,,,,,,,,,,,,,,,,,,,,,,,,,,,,,,,,,,,,,,,,,,,,,,,,,,,,,,,,,,,,,,,,,,,,,,,,,,,
,,5d474ed70f79810001c36084,2024-02-22_00h24.09.051,kallum_motion_pilot,2023.2.2,Win32,144.092219,5d474ed70f79810001c36084,65d6bb0e977760de756971f7,65d6be3efde08c320ec404b7,0.023,0.023,0,115,115,78,1,fourtwo,,,,,,,,,,,,,,,,,,,,,,,,,,,,,,,,,,,,,,,,,,,,,,,,,,,,,,,,,,,,,,,,,,,,,,,,,,,,,,,,,,,,,,,,,,,,,,,,,,,,,,,,,,,,,,,,,,,,,,,,,,,,,,,,,,,,,,,,,
,,5d474ed70f79810001c36084,2024-02-22_00h24.09.051,kallum_motion_pilot,2023.2.2,Win32,144.092219,5d474ed70f79810001c36084,65d6bb0e977760de756971f7,65d6be3efde08c320ec404b7,0.023,0.023,0,116,116,0,1,onetwo,,,,,,,,,,,,,,,,,,,,,,,,,,,,,,,,,,,,,,,,,,,,,,,,,,,,,,,,,,,,,,,,,,,,,,,,,,,,,,,,,,,,,,,,,,,,,,,,,,,,,,,,,,,,,,,,,,,,,,,,,,,,,,,,,,,,,,,,,
,,5d474ed70f79810001c36084,2024-02-22_00h24.09.051,kallum_motion_pilot,2023.2.2,Win32,144.092219,5d474ed70f79810001c36084,65d6bb0e977760de756971f7,65d6be3efde08c320ec404b7,0.023,0.023,0,117,117,22,1,fourtwo,,,,,,,,,,,,,,,,,,,,,,,,,,,,,,,,,,,,,,,,,,,,,,,,,,,,,,,,,,,,,,,,,,,,,,,,,,,,,,,,,,,,,,,,,,,,,,,,,,,,,,,,,,,,,,,,,,,,,,,,,,,,,,,,,,,,,,,,,
,,5d474ed70f79810001c36084,2024-02-22_00h24.09.051,kallum_motion_pilot,2023.2.2,Win32,144.092219,5d474ed70f79810001c36084,65d6bb0e977760de756971f7,65d6be3efde08c320ec404b7,0.023,0.023,0,118,118,13,1,threefour,,,,,,,,,,,,,,,,,,,,,,,,,,,,,,,,,,,,,,,,,,,,,,,,,,,,,,,,,,,,,,,,,,,,,,,,,,,,,,,,,,,,,,,,,,,,,,,,,,,,,,,,,,,,,,,,,,,,,,,,,,,,,,,,,,,,,,,,,
,,5d474ed70f79810001c36084,2024-02-22_00h24.09.051,kallum_motion_pilot,2023.2.2,Win32,144.092219,5d474ed70f79810001c36084,65d6bb0e977760de756971f7,65d6be3efde08c320ec404b7,0.023,0.023,0,119,119,75,1,twofour,,,,,,,,,,,,,,,,,,,,,,,,,,,,,,,,,,,,,,,,,,,,,,,,,,,,,,,,,,,,,,,,,,,,,,,,,,,,,,,,,,,,,,,,,,,,,,,,,,,,,,,,,,,,,,,,,,,,,,,,,,,,,,,,,,,,,,,,,
,,5d474ed70f79810001c36084,2024-02-22_00h24.09.051,kallum_motion_pilot,2023.2.2,Win32,144.092219,5d474ed70f79810001c36084,65d6bb0e977760de756971f7,65d6be3efde08c320ec404b7,0.023,0.023,0,120,120,43,1,twofour,,,,,,,,,,,,,,,,,,,,,,,,,,,,,,,,,,,,,,,,,,,,,,,,,,,,,,,,,,,,,,,,,,,,,,,,,,,,,,,,,,,,,,,,,,,,,,,,,,,,,,,,,,,,,,,,,,,,,,,,,,,,,,,,,,,,,,,,,
,,5d474ed70f79810001c36084,2024-02-22_00h24.09.051,kallum_motion_pilot,2023.2.2,Win32,144.092219,5d474ed70f79810001c36084,65d6bb0e977760de756971f7,65d6be3efde08c320ec404b7,0.023,0.023,0,121,121,20,1,threeone,,,,,,,,,,,,,,,,,,,,,,,,,,,,,,,,,,,,,,,,,,,,,,,,,,,,,,,,,,,,,,,,,,,,,,,,,,,,,,,,,,,,,,,,,,,,,,,,,,,,,,,,,,,,,,,,,,,,,,,,,,,,,,,,,,,,,,,,,
,,5d474ed70f79810001c36084,2024-02-22_00h24.09.051,kallum_motion_pilot,2023.2.2,Win32,144.092219,5d474ed70f79810001c36084,65d6bb0e977760de756971f7,65d6be3efde08c320ec404b7,0.023,0.023,0,122,122,23,1,fourthree,,,,,,,,,,,,,,,,,,,,,,,,,,,,,,,,,,,,,,,,,,,,,,,,,,,,,,,,,,,,,,,,,,,,,,,,,,,,,,,,,,,,,,,,,,,,,,,,,,,,,,,,,,,,,,,,,,,,,,,,,,,,,,,,,,,,,,,,,
,,5d474ed70f79810001c36084,2024-02-22_00h24.09.051,kallum_motion_pilot,2023.2.2,Win32,144.092219,5d474ed70f79810001c36084,65d6bb0e977760de756971f7,65d6be3efde08c320ec404b7,0.023,0.023,0,123,123,127,1,eightseven,,,,,,,,,,,,,,,,,,,,,,,,,,,,,,,,,,,,,,,,,,,,,,,,,,,,,,,,,,,,,,,,,,,,,,,,,,,,,,,,,,,,,,,,,,,,,,,,,,,,,,,,,,,,,,,,,,,,,,,,,,,,,,,,,,,,,,,,,
,,5d474ed70f79810001c36084,2024-02-22_00h24.09.051,kallum_motion_pilot,2023.2.2,Win32,144.092219,5d474ed70f79810001c36084,65d6bb0e977760de756971f7,65d6be3efde08c320ec404b7,0.023,0.023,0,124,124,98,1,sixfive,,,,,,,,,,,,,,,,,,,,,,,,,,,,,,,,,,,,,,,,,,,,,,,,,,,,,,,,,,,,,,,,,,,,,,,,,,,,,,,,,,,,,,,,,,,,,,,,,,,,,,,,,,,,,,,,,,,,,,,,,,,,,,,,,,,,,,,,,
,,5d474ed70f79810001c36084,2024-02-22_00h24.09.051,kallum_motion_pilot,2023.2.2,Win32,144.092219,5d474ed70f79810001c36084,65d6bb0e977760de756971f7,65d6be3efde08c320ec404b7,0.023,0.023,0,125,125,133,1,seveneight,,,,,,,,,,,,,,,,,,,,,,,,,,,,,,,,,,,,,,,,,,,,,,,,,,,,,,,,,,,,,,,,,,,,,,,,,,,,,,,,,,,,,,,,,,,,,,,,,,,,,,,,,,,,,,,,,,,,,,,,,,,,,,,,,,,,,,,,,
,,5d474ed70f79810001c36084,2024-02-22_00h24.09.051,kallum_motion_pilot,2023.2.2,Win32,144.092219,5d474ed70f79810001c36084,65d6bb0e977760de756971f7,65d6be3efde08c320ec404b7,0.023,0.023,0,126,126,53,1,threefour,,,,,,,,,,,,,,,,,,,,,,,,,,,,,,,,,,,,,,,,,,,,,,,,,,,,,,,,,,,,,,,,,,,,,,,,,,,,,,,,,,,,,,,,,,,,,,,,,,,,,,,,,,,,,,,,,,,,,,,,,,,,,,,,,,,,,,,,,
,,5d474ed70f79810001c36084,2024-02-22_00h24.09.051,kallum_motion_pilot,2023.2.2,Win32,144.092219,5d474ed70f79810001c36084,65d6bb0e977760de756971f7,65d6be3efde08c320ec404b7,0.023,0.023,0,127,127,148,1,sevenfive,,,,,,,,,,,,,,,,,,,,,,,,,,,,,,,,,,,,,,,,,,,,,,,,,,,,,,,,,,,,,,,,,,,,,,,,,,,,,,,,,,,,,,,,,,,,,,,,,,,,,,,,,,,,,,,,,,,,,,,,,,,,,,,,,,,,,,,,,
,,5d474ed70f79810001c36084,2024-02-22_00h24.09.051,kallum_motion_pilot,2023.2.2,Win32,144.092219,5d474ed70f79810001c36084,65d6bb0e977760de756971f7,65d6be3efde08c320ec404b7,0.023,0.023,0,128,128,68,1,threeone,,,,,,,,,,,,,,,,,,,,,,,,,,,,,,,,,,,,,,,,,,,,,,,,,,,,,,,,,,,,,,,,,,,,,,,,,,,,,,,,,,,,,,,,,,,,,,,,,,,,,,,,,,,,,,,,,,,,,,,,,,,,,,,,,,,,,,,,,
,,5d474ed70f79810001c36084,2024-02-22_00h24.09.051,kallum_motion_pilot,2023.2.2,Win32,144.092219,5d474ed70f79810001c36084,65d6bb0e977760de756971f7,65d6be3efde08c320ec404b7,0.023,0.023,0,129,129,26,1,twoone,,,,,,,,,,,,,,,,,,,,,,,,,,,,,,,,,,,,,,,,,,,,,,,,,,,,,,,,,,,,,,,,,,,,,,,,,,,,,,,,,,,,,,,,,,,,,,,,,,,,,,,,,,,,,,,,,,,,,,,,,,,,,,,,,,,,,,,,,
,,5d474ed70f79810001c36084,2024-02-22_00h24.09.051,kallum_motion_pilot,2023.2.2,Win32,144.092219,5d474ed70f79810001c36084,65d6bb0e977760de756971f7,65d6be3efde08c320ec404b7,0.023,0.023,0,130,130,36,1,threeone,,,,,,,,,,,,,,,,,,,,,,,,,,,,,,,,,,,,,,,,,,,,,,,,,,,,,,,,,,,,,,,,,,,,,,,,,,,,,,,,,,,,,,,,,,,,,,,,,,,,,,,,,,,,,,,,,,,,,,,,,,,,,,,,,,,,,,,,,
,,5d474ed70f79810001c36084,2024-02-22_00h24.09.051,kallum_motion_pilot,2023.2.2,Win32,144.092219,5d474ed70f79810001c36084,65d6bb0e977760de756971f7,65d6be3efde08c320ec404b7,0.023,0.023,0,131,131,110,1,eightsix,,,,,,,,,,,,,,,,,,,,,,,,,,,,,,,,,,,,,,,,,,,,,,,,,,,,,,,,,,,,,,,,,,,,,,,,,,,,,,,,,,,,,,,,,,,,,,,,,,,,,,,,,,,,,,,,,,,,,,,,,,,,,,,,,,,,,,,,,
,,5d474ed70f79810001c36084,2024-02-22_00h24.09.051,kallum_motion_pilot,2023.2.2,Win32,144.092219,5d474ed70f79810001c36084,65d6bb0e977760de756971f7,65d6be3efde08c320ec404b7,0.024,0.024,0,132,132,84,1,sevenfive,,,,,,,,,,,,,,,,,,,,,,,,,,,,,,,,,,,,,,,,,,,,,,,,,,,,,,,,,,,,,,,,,,,,,,,,,,,,,,,,,,,,,,,,,,,,,,,,,,,,,,,,,,,,,,,,,,,,,,,,,,,,,,,,,,,,,,,,,
,,5d474ed70f79810001c36084,2024-02-22_00h24.09.051,kallum_motion_pilot,2023.2.2,Win32,144.092219,5d474ed70f79810001c36084,65d6bb0e977760de756971f7,65d6be3efde08c320ec404b7,0.024,0.024,0,133,133,159,1,eightseven,,,,,,,,,,,,,,,,,,,,,,,,,,,,,,,,,,,,,,,,,,,,,,,,,,,,,,,,,,,,,,,,,,,,,,,,,,,,,,,,,,,,,,,,,,,,,,,,,,,,,,,,,,,,,,,,,,,,,,,,,,,,,,,,,,,,,,,,,
,,5d474ed70f79810001c36084,2024-02-22_00h24.09.051,kallum_motion_pilot,2023.2.2,Win32,144.092219,5d474ed70f79810001c36084,65d6bb0e977760de756971f7,65d6be3efde08c320ec404b7,0.024,0.024,0,134,134,28,1,threeone,,,,,,,,,,,,,,,,,,,,,,,,,,,,,,,,,,,,,,,,,,,,,,,,,,,,,,,,,,,,,,,,,,,,,,,,,,,,,,,,,,,,,,,,,,,,,,,,,,,,,,,,,,,,,,,,,,,,,,,,,,,,,,,,,,,,,,,,,
,,5d474ed70f79810001c36084,2024-02-22_00h24.09.051,kallum_motion_pilot,2023.2.2,Win32,144.092219,5d474ed70f79810001c36084,65d6bb0e977760de756971f7,65d6be3efde08c320ec404b7,0.024,0.024,0,135,135,97,1,fiveseven,,,,,,,,,,,,,,,,,,,,,,,,,,,,,,,,,,,,,,,,,,,,,,,,,,,,,,,,,,,,,,,,,,,,,,,,,,,,,,,,,,,,,,,,,,,,,,,,,,,,,,,,,,,,,,,,,,,,,,,,,,,,,,,,,,,,,,,,,
,,5d474ed70f79810001c36084,2024-02-22_00h24.09.051,kallum_motion_pilot,2023.2.2,Win32,144.092219,5d474ed70f79810001c36084,65d6bb0e977760de756971f7,65d6be3efde08c320ec404b7,0.024,0.024,0,136,136,129,1,fiveseven,,,,,,,,,,,,,,,,,,,,,,,,,,,,,,,,,,,,,,,,,,,,,,,,,,,,,,,,,,,,,,,,,,,,,,,,,,,,,,,,,,,,,,,,,,,,,,,,,,,,,,,,,,,,,,,,,,,,,,,,,,,,,,,,,,,,,,,,,
,,5d474ed70f79810001c36084,2024-02-22_00h24.09.051,kallum_motion_pilot,2023.2.2,Win32,144.092219,5d474ed70f79810001c36084,65d6bb0e977760de756971f7,65d6be3efde08c320ec404b7,0.024,0.024,0,137,137,14,1,fourtwo,,,,,,,,,,,,,,,,,,,,,,,,,,,,,,,,,,,,,,,,,,,,,,,,,,,,,,,,,,,,,,,,,,,,,,,,,,,,,,,,,,,,,,,,,,,,,,,,,,,,,,,,,,,,,,,,,,,,,,,,,,,,,,,,,,,,,,,,,
,,5d474ed70f79810001c36084,2024-02-22_00h24.09.051,kallum_motion_pilot,2023.2.2,Win32,144.092219,5d474ed70f79810001c36084,65d6bb0e977760de756971f7,65d6be3efde08c320ec404b7,0.024,0.024,0,138,138,117,1,seveneight,,,,,,,,,,,,,,,,,,,,,,,,,,,,,,,,,,,,,,,,,,,,,,,,,,,,,,,,,,,,,,,,,,,,,,,,,,,,,,,,,,,,,,,,,,,,,,,,,,,,,,,,,,,,,,,,,,,,,,,,,,,,,,,,,,,,,,,,,
,,5d474ed70f79810001c36084,2024-02-22_00h24.09.051,kallum_motion_pilot,2023.2.2,Win32,144.092219,5d474ed70f79810001c36084,65d6bb0e977760de756971f7,65d6be3efde08c320ec404b7,0.024,0.024,0,139,139,106,1,sixfive,,,,,,,,,,,,,,,,,,,,,,,,,,,,,,,,,,,,,,,,,,,,,,,,,,,,,,,,,,,,,,,,,,,,,,,,,,,,,,,,,,,,,,,,,,,,,,,,,,,,,,,,,,,,,,,,,,,,,,,,,,,,,,,,,,,,,,,,,
,,5d474ed70f79810001c36084,2024-02-22_00h24.09.051,kallum_motion_pilot,2023.2.2,Win32,144.092219,5d474ed70f79810001c36084,65d6bb0e977760de756971f7,65d6be3efde08c320ec404b7,0.024,0.024,0,140,140,137,1,fiveseven,,,,,,,,,,,,,,,,,,,,,,,,,,,,,,,,,,,,,,,,,,,,,,,,,,,,,,,,,,,,,,,,,,,,,,,,,,,,,,,,,,,,,,,,,,,,,,,,,,,,,,,,,,,,,,,,,,,,,,,,,,,,,,,,,,,,,,,,,
,,5d474ed70f79810001c36084,2024-02-22_00h24.09.051,kallum_motion_pilot,2023.2.2,Win32,144.092219,5d474ed70f79810001c36084,65d6bb0e977760de756971f7,65d6be3efde08c320ec404b7,0.024,0.024,0,141,141,139,1,sixeight,,,,,,,,,,,,,,,,,,,,,,,,,,,,,,,,,,,,,,,,,,,,,,,,,,,,,,,,,,,,,,,,,,,,,,,,,,,,,,,,,,,,,,,,,,,,,,,,,,,,,,,,,,,,,,,,,,,,,,,,,,,,,,,,,,,,,,,,,
,,5d474ed70f79810001c36084,2024-02-22_00h24.09.051,kallum_motion_pilot,2023.2.2,Win32,144.092219,5d474ed70f79810001c36084,65d6bb0e977760de756971f7,65d6be3efde08c320ec404b7,0.024,0.024,0,142,142,2,1,twoone,,,,,,,,,,,,,,,,,,,,,,,,,,,,,,,,,,,,,,,,,,,,,,,,,,,,,,,,,,,,,,,,,,,,,,,,,,,,,,,,,,,,,,,,,,,,,,,,,,,,,,,,,,,,,,,,,,,,,,,,,,,,,,,,,,,,,,,,,
,,5d474ed70f79810001c36084,2024-02-22_00h24.09.051,kallum_motion_pilot,2023.2.2,Win32,144.092219,5d474ed70f79810001c36084,65d6bb0e977760de756971f7,65d6be3efde08c320ec404b7,0.024,0.024,0,143,143,158,1,eightsix,,,,,,,,,,,,,,,,,,,,,,,,,,,,,,,,,,,,,,,,,,,,,,,,,,,,,,,,,,,,,,,,,,,,,,,,,,,,,,,,,,,,,,,,,,,,,,,,,,,,,,,,,,,,,,,,,,,,,,,,,,,,,,,,,,,,,,,,,
,,5d474ed70f79810001c36084,2024-02-22_00h24.09.051,kallum_motion_pilot,2023.2.2,Win32,144.092219,5d474ed70f79810001c36084,65d6bb0e977760de756971f7,65d6be3efde08c320ec404b7,0.024,0.024,0,144,144,141,1,seveneight,,,,,,,,,,,,,,,,,,,,,,,,,,,,,,,,,,,,,,,,,,,,,,,,,,,,,,,,,,,,,,,,,,,,,,,,,,,,,,,,,,,,,,,,,,,,,,,,,,,,,,,,,,,,,,,,,,,,,,,,,,,,,,,,,,,,,,,,,
,,5d474ed70f79810001c36084,2024-02-22_00h24.09.051,kallum_motion_pilot,2023.2.2,Win32,144.092219,5d474ed70f79810001c36084,65d6bb0e977760de756971f7,65d6be3efde08c320ec404b7,0.024,0.024,0,145,145,67,1,twofour,,,,,,,,,,,,,,,,,,,,,,,,,,,,,,,,,,,,,,,,,,,,,,,,,,,,,,,,,,,,,,,,,,,,,,,,,,,,,,,,,,,,,,,,,,,,,,,,,,,,,,,,,,,,,,,,,,,,,,,,,,,,,,,,,,,,,,,,,
,,5d474ed70f79810001c36084,2024-02-22_00h24.09.051,kallum_motion_pilot,2023.2.2,Win32,144.092219,5d474ed70f79810001c36084,65d6bb0e977760de756971f7,65d6be3efde08c320ec404b7,0.024,0.024,0,146,146,118,1,eightsix,,,,,,,,,,,,,,,,,,,,,,,,,,,,,,,,,,,,,,,,,,,,,,,,,,,,,,,,,,,,,,,,,,,,,,,,,,,,,,,,,,,,,,,,,,,,,,,,,,,,,,,,,,,,,,,,,,,,,,,,,,,,,,,,,,,,,,,,,
,,5d474ed70f79810001c36084,2024-02-22_00h24.09.051,kallum_motion_pilot,2023.2.2,Win32,144.092219,5d474ed70f79810001c36084,65d6bb0e977760de756971f7,65d6be3efde08c320ec404b7,0.024,0.024,0,147,147,3,1,twofour,,,,,,,,,,,,,,,,,,,,,,,,,,,,,,,,,,,,,,,,,,,,,,,,,,,,,,,,,,,,,,,,,,,,,,,,,,,,,,,,,,,,,,,,,,,,,,,,,,,,,,,,,,,,,,,,,,,,,,,,,,,,,,,,,,,,,,,,,
,,5d474ed70f79810001c36084,2024-02-22_00h24.09.051,kallum_motion_pilot,2023.2.2,Win32,144.092219,5d474ed70f79810001c36084,65d6bb0e977760de756971f7,65d6be3efde08c320ec404b7,0.024,0.024,0,148,148,155,1,sixeight,,,,,,,,,,,,,,,,,,,,,,,,,,,,,,,,,,,,,,,,,,,,,,,,,,,,,,,,,,,,,,,,,,,,,,,,,,,,,,,,,,,,,,,,,,,,,,,,,,,,,,,,,,,,,,,,,,,,,,,,,,,,,,,,,,,,,,,,,
,,5d474ed70f79810001c36084,2024-02-22_00h24.09.051,kallum_motion_pilot,2023.2.2,Win32,144.092219,5d474ed70f79810001c36084,65d6bb0e977760de756971f7,65d6be3efde08c320ec404b7,0.024,0.024,0,149,149,124,1,sevenfive,,,,,,,,,,,,,,,,,,,,,,,,,,,,,,,,,,,,,,,,,,,,,,,,,,,,,,,,,,,,,,,,,,,,,,,,,,,,,,,,,,,,,,,,,,,,,,,,,,,,,,,,,,,,,,,,,,,,,,,,,,,,,,,,,,,,,,,,,
,,5d474ed70f79810001c36084,2024-02-22_00h24.09.051,kallum_motion_pilot,2023.2.2,Win32,144.092219,5d474ed70f79810001c36084,65d6bb0e977760de756971f7,65d6be3efde08c320ec404b7,0.024,0.024,0,150,150,11,1,twofour,,,,,,,,,,,,,,,,,,,,,,,,,,,,,,,,,,,,,,,,,,,,,,,,,,,,,,,,,,,,,,,,,,,,,,,,,,,,,,,,,,,,,,,,,,,,,,,,,,,,,,,,,,,,,,,,,,,,,,,,,,,,,,,,,,,,,,,,,
,,5d474ed70f79810001c36084,2024-02-22_00h24.09.051,kallum_motion_pilot,2023.2.2,Win32,144.092219,5d474ed70f79810001c36084,65d6bb0e977760de756971f7,65d6be3efde08c320ec404b7,0.024,0.024,0,151,151,27,1,twofour,,,,,,,,,,,,,,,,,,,,,,,,,,,,,,,,,,,,,,,,,,,,,,,,,,,,,,,,,,,,,,,,,,,,,,,,,,,,,,,,,,,,,,,,,,,,,,,,,,,,,,,,,,,,,,,,,,,,,,,,,,,,,,,,,,,,,,,,,
,,5d474ed70f79810001c36084,2024-02-22_00h24.09.051,kallum_motion_pilot,2023.2.2,Win32,144.092219,5d474ed70f79810001c36084,65d6bb0e977760de756971f7,65d6be3efde08c320ec404b7,0.024,0.024,0,152,152,48,1,onetwo,,,,,,,,,,,,,,,,,,,,,,,,,,,,,,,,,,,,,,,,,,,,,,,,,,,,,,,,,,,,,,,,,,,,,,,,,,,,,,,,,,,,,,,,,,,,,,,,,,,,,,,,,,,,,,,,,,,,,,,,,,,,,,,,,,,,,,,,,
,,5d474ed70f79810001c36084,2024-02-22_00h24.09.051,kallum_motion_pilot,2023.2.2,Win32,144.092219,5d474ed70f79810001c36084,65d6bb0e977760de756971f7,65d6be3efde08c320ec404b7,0.024,0.024,0,153,153,76,1,threeone,,,,,,,,,,,,,,,,,,,,,,,,,,,,,,,,,,,,,,,,,,,,,,,,,,,,,,,,,,,,,,,,,,,,,,,,,,,,,,,,,,,,,,,,,,,,,,,,,,,,,,,,,,,,,,,,,,,,,,,,,,,,,,,,,,,,,,,,,
,,5d474ed70f79810001c36084,2024-02-22_00h24.09.051,kallum_motion_pilot,2023.2.2,Win32,144.092219,5d474ed70f79810001c36084,65d6bb0e977760de756971f7,65d6be3efde08c320ec404b7,0.024,0.024,0,154,154,112,1,fivesix,,,,,,,,,,,,,,,,,,,,,,,,,,,,,,,,,,,,,,,,,,,,,,,,,,,,,,,,,,,,,,,,,,,,,,,,,,,,,,,,,,,,,,,,,,,,,,,,,,,,,,,,,,,,,,,,,,,,,,,,,,,,,,,,,,,,,,,,,
,,5d474ed70f79810001c36084,2024-02-22_00h24.09.051,kallum_motion_pilot,2023.2.2,Win32,144.092219,5d474ed70f79810001c36084,65d6bb0e977760de756971f7,65d6be3efde08c320ec404b7,0.025,0.025,0,155,155,73,1,onethree,,,,,,,,,,,,,,,,,,,,,,,,,,,,,,,,,,,,,,,,,,,,,,,,,,,,,,,,,,,,,,,,,,,,,,,,,,,,,,,,,,,,,,,,,,,,,,,,,,,,,,,,,,,,,,,,,,,,,,,,,,,,,,,,,,,,,,,,,
,,5d474ed70f79810001c36084,2024-02-22_00h24.09.051,kallum_motion_pilot,2023.2.2,Win32,144.092219,5d474ed70f79810001c36084,65d6bb0e977760de756971f7,65d6be3efde08c320ec404b7,0.025,0.025,0,156,156,74,1,twoone,,,,,,,,,,,,,,,,,,,,,,,,,,,,,,,,,,,,,,,,,,,,,,,,,,,,,,,,,,,,,,,,,,,,,,,,,,,,,,,,,,,,,,,,,,,,,,,,,,,,,,,,,,,,,,,,,,,,,,,,,,,,,,,,,,,,,,,,,
,,5d474ed70f79810001c36084,2024-02-22_00h24.09.051,kallum_motion_pilot,2023.2.2,Win32,144.092219,5d474ed70f79810001c36084,65d6bb0e977760de756971f7,65d6be3efde08c320ec404b7,0.025,0.025,0,157,157,33,1,onethree,,,,,,,,,,,,,,,,,,,,,,,,,,,,,,,,,,,,,,,,,,,,,,,,,,,,,,,,,,,,,,,,,,,,,,,,,,,,,,,,,,,,,,,,,,,,,,,,,,,,,,,,,,,,,,,,,,,,,,,,,,,,,,,,,,,,,,,,,
,,5d474ed70f79810001c36084,2024-02-22_00h24.09.051,kallum_motion_pilot,2023.2.2,Win32,144.092219,5d474ed70f79810001c36084,65d6bb0e977760de756971f7,65d6be3efde08c320ec404b7,0.025,0.025,0,158,158,91,1,sixeight,,,,,,,,,,,,,,,,,,,,,,,,,,,,,,,,,,,,,,,,,,,,,,,,,,,,,,,,,,,,,,,,,,,,,,,,,,,,,,,,,,,,,,,,,,,,,,,,,,,,,,,,,,,,,,,,,,,,,,,,,,,,,,,,,,,,,,,,,
,,5d474ed70f79810001c36084,2024-02-22_00h24.09.051,kallum_motion_pilot,2023.2.2,Win32,144.092219,5d474ed70f79810001c36084,65d6bb0e977760de756971f7,65d6be3efde08c320ec404b7,0.025,0.025,0,159,159,9,1,onethree,,,,,,,,,,,,,,,,,,,,,,,,,,,,,,,,,,,,,,,,,,,,,,,,,,,,,,,,,,,,,,,,,,,,,,,,,,,,,,,,,,,,,,,,,,,,,,,,,,,,,,,,,,,,,,,,,,,,,,,,,,,,,,,,,,,,,,,,,
,,5d474ed70f79810001c36084,2024-02-22_00h24.09.051,kallum_motion_pilot,2023.2.2,Win32,144.092219,5d474ed70f79810001c36084,65d6bb0e977760de756971f7,65d6be3efde08c320ec404b7,0.025,0.025,0,160,160,95,1,eightseven,,,,,,,,,,,,,,,,,,,,,,,,,,,,,,,,,,,,,,,,,,,,,,,,,,,,,,,,,,,,,,,,,,,,,,,,,,,,,,,,,,,,,,,,,,,,,,,,,,,,,,,,,,,,,,,,,,,,,,,,,,,,,,,,,,,,,,,,,
,,5d474ed70f79810001c36084,2024-02-22_00h24.09.051,kallum_motion_pilot,2023.2.2,Win32,144.092219,5d474ed70f79810001c36084,65d6bb0e977760de756971f7,65d6be3efde08c320ec404b7,0.025,0.025,0,161,161,151,1,eightseven,,,,,,,,,,,,,,,,,,,,,,,,,,,,,,,,,,,,,,,,,,,,,,,,,,,,,,,,,,,,,,,,,,,,,,,,,,,,,,,,,,,,,,,,,,,,,,,,,,,,,,,,,,,,,,,,,,,,,,,,,,,,,,,,,,,,,,,,,
,,5d474ed70f79810001c36084,2024-02-22_00h24.09.051,kallum_motion_pilot,2023.2.2,Win32,144.092219,5d474ed70f79810001c36084,65d6bb0e977760de756971f7,65d6be3efde08c320ec404b7,0.025,0.025,1,0,162,121,1,fiveseven,,,,,,,,,,,,,,,,,,,,,,,,,,,,,,,,,,,,,,,,,,,,,,,,,,,,,,,,,,,,,,,,,,,,,,,,,,,,,,,,,,,,,,,,,,,,,,,,,,,,,,,,,,,,,,,,,,,,,,,,,,,,,,,,,,,,,,,,,
,,5d474ed70f79810001c36084,2024-02-22_00h24.09.051,kallum_motion_pilot,2023.2.2,Win32,144.092219,5d474ed70f79810001c36084,65d6bb0e977760de756971f7,65d6be3efde08c320ec404b7,0.025,0.026,1,1,163,97,1,fiveseven,,,,,,,,,,,,,,,,,,,,,,,,,,,,,,,,,,,,,,,,,,,,,,,,,,,,,,,,,,,,,,,,,,,,,,,,,,,,,,,,,,,,,,,,,,,,,,,,,,,,,,,,,,,,,,,,,,,,,,,,,,,,,,,,,,,,,,,,,
,,5d474ed70f79810001c36084,2024-02-22_00h24.09.051,kallum_motion_pilot,2023.2.2,Win32,144.092219,5d474ed70f79810001c36084,65d6bb0e977760de756971f7,65d6be3efde08c320ec404b7,0.026,0.026,1,2,164,122,1,sixfive,,,,,,,,,,,,,,,,,,,,,,,,,,,,,,,,,,,,,,,,,,,,,,,,,,,,,,,,,,,,,,,,,,,,,,,,,,,,,,,,,,,,,,,,,,,,,,,,,,,,,,,,,,,,,,,,,,,,,,,,,,,,,,,,,,,,,,,,,
,,5d474ed70f79810001c36084,2024-02-22_00h24.09.051,kallum_motion_pilot,2023.2.2,Win32,144.092219,5d474ed70f79810001c36084,65d6bb0e977760de756971f7,65d6be3efde08c320ec404b7,0.026,0.026,1,3,165,137,1,fiveseven,,,,,,,,,,,,,,,,,,,,,,,,,,,,,,,,,,,,,,,,,,,,,,,,,,,,,,,,,,,,,,,,,,,,,,,,,,,,,,,,,,,,,,,,,,,,,,,,,,,,,,,,,,,,,,,,,,,,,,,,,,,,,,,,,,,,,,,,,
,,5d474ed70f79810001c36084,2024-02-22_00h24.09.051,kallum_motion_pilot,2023.2.2,Win32,144.092219,5d474ed70f79810001c36084,65d6bb0e977760de756971f7,65d6be3efde08c320ec404b7,0.026,0.026,1,4,166,27,1,twofour,,,,,,,,,,,,,,,,,,,,,,,,,,,,,,,,,,,,,,,,,,,,,,,,,,,,,,,,,,,,,,,,,,,,,,,,,,,,,,,,,,,,,,,,,,,,,,,,,,,,,,,,,,,,,,,,,,,,,,,,,,,,,,,,,,,,,,,,,
,,5d474ed70f79810001c36084,2024-02-22_00h24.09.051,kallum_motion_pilot,2023.2.2,Win32,144.092219,5d474ed70f79810001c36084,65d6bb0e977760de756971f7,65d6be3efde08c320ec404b7,0.026,0.026,1,5,167,126,1,eightsix,,,,,,,,,,,,,,,,,,,,,,,,,,,,,,,,,,,,,,,,,,,,,,,,,,,,,,,,,,,,,,,,,,,,,,,,,,,,,,,,,,,,,,,,,,,,,,,,,,,,,,,,,,,,,,,,,,,,,,,,,,,,,,,,,,,,,,,,,
,,5d474ed70f79810001c36084,2024-02-22_00h24.09.051,kallum_motion_pilot,2023.2.2,Win32,144.092219,5d474ed70f79810001c36084,65d6bb0e977760de756971f7,65d6be3efde08c320ec404b7,0.026,0.026,1,6,168,42,1,twoone,,,,,,,,,,,,,,,,,,,,,,,,,,,,,,,,,,,,,,,,,,,,,,,,,,,,,,,,,,,,,,,,,,,,,,,,,,,,,,,,,,,,,,,,,,,,,,,,,,,,,,,,,,,,,,,,,,,,,,,,,,,,,,,,,,,,,,,,,
,,5d474ed70f79810001c36084,2024-02-22_00h24.09.051,kallum_motion_pilot,2023.2.2,Win32,144.092219,5d474ed70f79810001c36084,65d6bb0e977760de756971f7,65d6be3efde08c320ec404b7,0.026,0.026,1,7,169,160,1,fivesix,,,,,,,,,,,,,,,,,,,,,,,,,,,,,,,,,,,,,,,,,,,,,,,,,,,,,,,,,,,,,,,,,,,,,,,,,,,,,,,,,,,,,,,,,,,,,,,,,,,,,,,,,,,,,,,,,,,,,,,,,,,,,,,,,,,,,,,,,
,,5d474ed70f79810001c36084,2024-02-22_00h24.09.051,kallum_motion_pilot,2023.2.2,Win32,144.092219,5d474ed70f79810001c36084,65d6bb0e977760de756971f7,65d6be3efde08c320ec404b7,0.026,0.026,1,8,170,38,1,fourtwo,,,,,,,,,,,,,,,,,,,,,,,,,,,,,,,,,,,,,,,,,,,,,,,,,,,,,,,,,,,,,,,,,,,,,,,,,,,,,,,,,,,,,,,,,,,,,,,,,,,,,,,,,,,,,,,,,,,,,,,,,,,,,,,,,,,,,,,,,
,,5d474ed70f79810001c36084,2024-02-22_00h24.09.051,kallum_motion_pilot,2023.2.2,Win32,144.092219,5d474ed70f79810001c36084,65d6bb0e977760de756971f7,65d6be3efde08c320ec404b7,0.026,0.026,1,9,171,78,1,fourtwo,,,,,,,,,,,,,,,,,,,,,,,,,,,,,,,,,,,,,,,,,,,,,,,,,,,,,,,,,,,,,,,,,,,,,,,,,,,,,,,,,,,,,,,,,,,,,,,,,,,,,,,,,,,,,,,,,,,,,,,,,,,,,,,,,,,,,,,,,
,,5d474ed70f79810001c36084,2024-02-22_00h24.09.051,kallum_motion_pilot,2023.2.2,Win32,144.092219,5d474ed70f79810001c36084,65d6bb0e977760de756971f7,65d6be3efde08c320ec404b7,0.026,0.026,1,10,172,61,1,threefour,,,,,,,,,,,,,,,,,,,,,,,,,,,,,,,,,,,,,,,,,,,,,,,,,,,,,,,,,,,,,,,,,,,,,,,,,,,,,,,,,,,,,,,,,,,,,,,,,,,,,,,,,,,,,,,,,,,,,,,,,,,,,,,,,,,,,,,,,
,,5d474ed70f79810001c36084,2024-02-22_00h24.09.051,kallum_motion_pilot,2023.2.2,Win32,144.092219,5d474ed70f79810001c36084,65d6bb0e977760de756971f7,65d6be3efde08c320ec404b7,0.026,0.026,1,11,173,144,1,fivesix,,,,,,,,,,,,,,,,,,,,,,,,,,,,,,,,,,,,,,,,,,,,,,,,,,,,,,,,,,,,,,,,,,,,,,,,,,,,,,,,,,,,,,,,,,,,,,,,,,,,,,,,,,,,,,,,,,,,,,,,,,,,,,,,,,,,,,,,,
,,5d474ed70f79810001c36084,2024-02-22_00h24.09.051,kallum_motion_pilot,2023.2.2,Win32,144.092219,5d474ed70f79810001c36084,65d6bb0e977760de756971f7,65d6be3efde08c320ec404b7,0.026,0.026,1,12,174,28,1,threeone,,,,,,,,,,,,,,,,,,,,,,,,,,,,,,,,,,,,,,,,,,,,,,,,,,,,,,,,,,,,,,,,,,,,,,,,,,,,,,,,,,,,,,,,,,,,,,,,,,,,,,,,,,,,,,,,,,,,,,,,,,,,,,,,,,,,,,,,,
,,5d474ed70f79810001c36084,2024-02-22_00h24.09.051,kallum_motion_pilot,2023.2.2,Win32,144.092219,5d474ed70f79810001c36084,65d6bb0e977760de756971f7,65d6be3efde08c320ec404b7,0.026,0.026,1,13,175,73,1,onethree,,,,,,,,,,,,,,,,,,,,,,,,,,,,,,,,,,,,,,,,,,,,,,,,,,,,,,,,,,,,,,,,,,,,,,,,,,,,,,,,,,,,,,,,,,,,,,,,,,,,,,,,,,,,,,,,,,,,,,,,,,,,,,,,,,,,,,,,,
,,5d474ed70f79810001c36084,2024-02-22_00h24.09.051,kallum_motion_pilot,2023.2.2,Win32,144.092219,5d474ed70f79810001c36084,65d6bb0e977760de756971f7,65d6be3efde08c320ec404b7,0.026,0.026,1,14,176,1,1,onethree,,,,,,,,,,,,,,,,,,,,,,,,,,,,,,,,,,,,,,,,,,,,,,,,,,,,,,,,,,,,,,,,,,,,,,,,,,,,,,,,,,,,,,,,,,,,,,,,,,,,,,,,,,,,,,,,,,,,,,,,,,,,,,,,,,,,,,,,,
,,5d474ed70f79810001c36084,2024-02-22_00h24.09.051,kallum_motion_pilot,2023.2.2,Win32,144.092219,5d474ed70f79810001c36084,65d6bb0e977760de756971f7,65d6be3efde08c320ec404b7,0.026,0.026,1,15,177,15,1,fourthree,,,,,,,,,,,,,,,,,,,,,,,,,,,,,,,,,,,,,,,,,,,,,,,,,,,,,,,,,,,,,,,,,,,,,,,,,,,,,,,,,,,,,,,,,,,,,,,,,,,,,,,,,,,,,,,,,,,,,,,,,,,,,,,,,,,,,,,,,
,,5d474ed70f79810001c36084,2024-02-22_00h24.09.051,kallum_motion_pilot,2023.2.2,Win32,144.092219,5d474ed70f79810001c36084,65d6bb0e977760de756971f7,65d6be3efde08c320ec404b7,0.026,0.026,1,16,178,102,1,eightsix,,,,,,,,,,,,,,,,,,,,,,,,,,,,,,,,,,,,,,,,,,,,,,,,,,,,,,,,,,,,,,,,,,,,,,,,,,,,,,,,,,,,,,,,,,,,,,,,,,,,,,,,,,,,,,,,,,,,,,,,,,,,,,,,,,,,,,,,,
,,5d474ed70f79810001c36084,2024-02-22_00h24.09.051,kallum_motion_pilot,2023.2.2,Win32,144.092219,5d474ed70f79810001c36084,65d6bb0e977760de756971f7,65d6be3efde08c320ec404b7,0.026,0.026,1,17,179,56,1,onetwo,,,,,,,,,,,,,,,,,,,,,,,,,,,,,,,,,,,,,,,,,,,,,,,,,,,,,,,,,,,,,,,,,,,,,,,,,,,,,,,,,,,,,,,,,,,,,,,,,,,,,,,,,,,,,,,,,,,,,,,,,,,,,,,,,,,,,,,,,
,,5d474ed70f79810001c36084,2024-02-22_00h24.09.051,kallum_motion_pilot,2023.2.2,Win32,144.092219,5d474ed70f79810001c36084,65d6bb0e977760de756971f7,65d6be3efde08c320ec404b7,0.026,0.026,1,18,180,149,1,seveneight,,,,,,,,,,,,,,,,,,,,,,,,,,,,,,,,,,,,,,,,,,,,,,,,,,,,,,,,,,,,,,,,,,,,,,,,,,,,,,,,,,,,,,,,,,,,,,,,,,,,,,,,,,,,,,,,,,,,,,,,,,,,,,,,,,,,,,,,,
,,5d474ed70f79810001c36084,2024-02-22_00h24.09.051,kallum_motion_pilot,2023.2.2,Win32,144.092219,5d474ed70f79810001c36084,65d6bb0e977760de756971f7,65d6be3efde08c320ec404b7,0.026,0.026,1,19,181,107,1,sixeight,,,,,,,,,,,,,,,,,,,,,,,,,,,,,,,,,,,,,,,,,,,,,,,,,,,,,,,,,,,,,,,,,,,,,,,,,,,,,,,,,,,,,,,,,,,,,,,,,,,,,,,,,,,,,,,,,,,,,,,,,,,,,,,,,,,,,,,,,
,,5d474ed70f79810001c36084,2024-02-22_00h24.09.051,kallum_motion_pilot,2023.2.2,Win32,144.092219,5d474ed70f79810001c36084,65d6bb0e977760de756971f7,65d6be3efde08c320ec404b7,0.026,0.026,1,20,182,8,1,onetwo,,,,,,,,,,,,,,,,,,,,,,,,,,,,,,,,,,,,,,,,,,,,,,,,,,,,,,,,,,,,,,,,,,,,,,,,,,,,,,,,,,,,,,,,,,,,,,,,,,,,,,,,,,,,,,,,,,,,,,,,,,,,,,,,,,,,,,,,,
,,5d474ed70f79810001c36084,2024-02-22_00h24.09.051,kallum_motion_pilot,2023.2.2,Win32,144.092219,5d474ed70f79810001c36084,65d6bb0e977760de756971f7,65d6be3efde08c320ec404b7,0.026,0.026,1,21,183,98,1,sixfive,,,,,,,,,,,,,,,,,,,,,,,,,,,,,,,,,,,,,,,,,,,,,,,,,,,,,,,,,,,,,,,,,,,,,,,,,,,,,,,,,,,,,,,,,,,,,,,,,,,,,,,,,,,,,,,,,,,,,,,,,,,,,,,,,,,,,,,,,
,,5d474ed70f79810001c36084,2024-02-22_00h24.09.051,kallum_motion_pilot,2023.2.2,Win32,144.092219,5d474ed70f79810001c36084,65d6bb0e977760de756971f7,65d6be3efde08c320ec404b7,0.026,0.026,1,22,184,12,1,threeone,,,,,,,,,,,,,,,,,,,,,,,,,,,,,,,,,,,,,,,,,,,,,,,,,,,,,,,,,,,,,,,,,,,,,,,,,,,,,,,,,,,,,,,,,,,,,,,,,,,,,,,,,,,,,,,,,,,,,,,,,,,,,,,,,,,,,,,,,
,,5d474ed70f79810001c36084,2024-02-22_00h24.09.051,kallum_motion_pilot,2023.2.2,Win32,144.092219,5d474ed70f79810001c36084,65d6bb0e977760de756971f7,65d6be3efde08c320ec404b7,0.027,0.027,1,23,185,92,1,sevenfive,,,,,,,,,,,,,,,,,,,,,,,,,,,,,,,,,,,,,,,,,,,,,,,,,,,,,,,,,,,,,,,,,,,,,,,,,,,,,,,,,,,,,,,,,,,,,,,,,,,,,,,,,,,,,,,,,,,,,,,,,,,,,,,,,,,,,,,,,
,,5d474ed70f79810001c36084,2024-02-22_00h24.09.051,kallum_motion_pilot,2023.2.2,Win32,144.092219,5d474ed70f79810001c36084,65d6bb0e977760de756971f7,65d6be3efde08c320ec404b7,0.027,0.027,1,24,186,159,1,eightseven,,,,,,,,,,,,,,,,,,,,,,,,,,,,,,,,,,,,,,,,,,,,,,,,,,,,,,,,,,,,,,,,,,,,,,,,,,,,,,,,,,,,,,,,,,,,,,,,,,,,,,,,,,,,,,,,,,,,,,,,,,,,,,,,,,,,,,,,,
,,5d474ed70f79810001c36084,2024-02-22_00h24.09.051,kallum_motion_pilot,2023.2.2,Win32,144.092219,5d474ed70f79810001c36084,65d6bb0e977760de756971f7,65d6be3efde08c320ec404b7,0.027,0.027,1,25,187,131,1,sixeight,,,,,,,,,,,,,,,,,,,,,,,,,,,,,,,,,,,,,,,,,,,,,,,,,,,,,,,,,,,,,,,,,,,,,,,,,,,,,,,,,,,,,,,,,,,,,,,,,,,,,,,,,,,,,,,,,,,,,,,,,,,,,,,,,,,,,,,,,
,,5d474ed70f79810001c36084,2024-02-22_00h24.09.051,kallum_motion_pilot,2023.2.2,Win32,144.092219,5d474ed70f79810001c36084,65d6bb0e977760de756971f7,65d6be3efde08c320ec404b7,0.027,0.027,1,26,188,114,1,sixfive,,,,,,,,,,,,,,,,,,,,,,,,,,,,,,,,,,,,,,,,,,,,,,,,,,,,,,,,,,,,,,,,,,,,,,,,,,,,,,,,,,,,,,,,,,,,,,,,,,,,,,,,,,,,,,,,,,,,,,,,,,,,,,,,,,,,,,,,,
,,5d474ed70f79810001c36084,2024-02-22_00h24.09.051,kallum_motion_pilot,2023.2.2,Win32,144.092219,5d474ed70f79810001c36084,65d6bb0e977760de756971f7,65d6be3efde08c320ec404b7,0.027,0.027,1,27,189,120,1,fivesix,,,,,,,,,,,,,,,,,,,,,,,,,,,,,,,,,,,,,,,,,,,,,,,,,,,,,,,,,,,,,,,,,,,,,,,,,,,,,,,,,,,,,,,,,,,,,,,,,,,,,,,,,,,,,,,,,,,,,,,,,,,,,,,,,,,,,,,,,
,,5d474ed70f79810001c36084,2024-02-22_00h24.09.051,kallum_motion_pilot,2023.2.2,Win32,144.092219,5d474ed70f79810001c36084,65d6bb0e977760de756971f7,65d6be3efde08c320ec404b7,0.027,0.027,1,28,190,81,1,fiveseven,,,,,,,,,,,,,,,,,,,,,,,,,,,,,,,,,,,,,,,,,,,,,,,,,,,,,,,,,,,,,,,,,,,,,,,,,,,,,,,,,,,,,,,,,,,,,,,,,,,,,,,,,,,,,,,,,,,,,,,,,,,,,,,,,,,,,,,,,
,,5d474ed70f79810001c36084,2024-02-22_00h24.09.051,kallum_motion_pilot,2023.2.2,Win32,144.092219,5d474ed70f79810001c36084,65d6bb0e977760de756971f7,65d6be3efde08c320ec404b7,0.027,0.027,1,29,191,88,1,fivesix,,,,,,,,,,,,,,,,,,,,,,,,,,,,,,,,,,,,,,,,,,,,,,,,,,,,,,,,,,,,,,,,,,,,,,,,,,,,,,,,,,,,,,,,,,,,,,,,,,,,,,,,,,,,,,,,,,,,,,,,,,,,,,,,,,,,,,,,,
,,5d474ed70f79810001c36084,2024-02-22_00h24.09.051,kallum_motion_pilot,2023.2.2,Win32,144.092219,5d474ed70f79810001c36084,65d6bb0e977760de756971f7,65d6be3efde08c320ec404b7,0.027,0.027,1,30,192,66,1,twoone,,,,,,,,,,,,,,,,,,,,,,,,,,,,,,,,,,,,,,,,,,,,,,,,,,,,,,,,,,,,,,,,,,,,,,,,,,,,,,,,,,,,,,,,,,,,,,,,,,,,,,,,,,,,,,,,,,,,,,,,,,,,,,,,,,,,,,,,,
,,5d474ed70f79810001c36084,2024-02-22_00h24.09.051,kallum_motion_pilot,2023.2.2,Win32,144.092219,5d474ed70f79810001c36084,65d6bb0e977760de756971f7,65d6be3efde08c320ec404b7,0.027,0.027,1,31,193,129,1,fiveseven,,,,,,,,,,,,,,,,,,,,,,,,,,,,,,,,,,,,,,,,,,,,,,,,,,,,,,,,,,,,,,,,,,,,,,,,,,,,,,,,,,,,,,,,,,,,,,,,,,,,,,,,,,,,,,,,,,,,,,,,,,,,,,,,,,,,,,,,,
,,5d474ed70f79810001c36084,2024-02-22_00h24.09.051,kallum_motion_pilot,2023.2.2,Win32,144.092219,5d474ed70f79810001c36084,65d6bb0e977760de756971f7,65d6be3efde08c320ec404b7,0.027,0.027,1,32,194,117,1,seveneight,,,,,,,,,,,,,,,,,,,,,,,,,,,,,,,,,,,,,,,,,,,,,,,,,,,,,,,,,,,,,,,,,,,,,,,,,,,,,,,,,,,,,,,,,,,,,,,,,,,,,,,,,,,,,,,,,,,,,,,,,,,,,,,,,,,,,,,,,
,,5d474ed70f79810001c36084,2024-02-22_00h24.09.051,kallum_motion_pilot,2023.2.2,Win32,144.092219,5d474ed70f79810001c36084,65d6bb0e977760de756971f7,65d6be3efde08c320ec404b7,0.027,0.027,1,33,195,32,1,onetwo,,,,,,,,,,,,,,,,,,,,,,,,,,,,,,,,,,,,,,,,,,,,,,,,,,,,,,,,,,,,,,,,,,,,,,,,,,,,,,,,,,,,,,,,,,,,,,,,,,,,,,,,,,,,,,,,,,,,,,,,,,,,,,,,,,,,,,,,,
,,5d474ed70f79810001c36084,2024-02-22_00h24.09.051,kallum_motion_pilot,2023.2.2,Win32,144.092219,5d474ed70f79810001c36084,65d6bb0e977760de756971f7,65d6be3efde08c320ec404b7,0.027,0.027,1,34,196,140,1,sevenfive,,,,,,,,,,,,,,,,,,,,,,,,,,,,,,,,,,,,,,,,,,,,,,,,,,,,,,,,,,,,,,,,,,,,,,,,,,,,,,,,,,,,,,,,,,,,,,,,,,,,,,,,,,,,,,,,,,,,,,,,,,,,,,,,,,,,,,,,,
,,5d474ed70f79810001c36084,2024-02-22_00h24.09.051,kallum_motion_pilot,2023.2.2,Win32,144.092219,5d474ed70f79810001c36084,65d6bb0e977760de756971f7,65d6be3efde08c320ec404b7,0.027,0.027,1,35,197,90,1,sixfive,,,,,,,,,,,,,,,,,,,,,,,,,,,,,,,,,,,,,,,,,,,,,,,,,,,,,,,,,,,,,,,,,,,,,,,,,,,,,,,,,,,,,,,,,,,,,,,,,,,,,,,,,,,,,,,,,,,,,,,,,,,,,,,,,,,,,,,,,
,,5d474ed70f79810001c36084,2024-02-22_00h24.09.051,kallum_motion_pilot,2023.2.2,Win32,144.092219,5d474ed70f79810001c36084,65d6bb0e977760de756971f7,65d6be3efde08c320ec404b7,0.027,0.027,1,36,198,69,1,threefour,,,,,,,,,,,,,,,,,,,,,,,,,,,,,,,,,,,,,,,,,,,,,,,,,,,,,,,,,,,,,,,,,,,,,,,,,,,,,,,,,,,,,,,,,,,,,,,,,,,,,,,,,,,,,,,,,,,,,,,,,,,,,,,,,,,,,,,,,
,,5d474ed70f79810001c36084,2024-02-22_00h24.09.051,kallum_motion_pilot,2023.2.2,Win32,144.092219,5d474ed70f79810001c36084,65d6bb0e977760de756971f7,65d6be3efde08c320ec404b7,0.027,0.027,1,37,199,35,1,twofour,,,,,,,,,,,,,,,,,,,,,,,,,,,,,,,,,,,,,,,,,,,,,,,,,,,,,,,,,,,,,,,,,,,,,,,,,,,,,,,,,,,,,,,,,,,,,,,,,,,,,,,,,,,,,,,,,,,,,,,,,,,,,,,,,,,,,,,,,
,,5d474ed70f79810001c36084,2024-02-22_00h24.09.051,kallum_motion_pilot,2023.2.2,Win32,144.092219,5d474ed70f79810001c36084,65d6bb0e977760de756971f7,65d6be3efde08c320ec404b7,0.027,0.027,1,38,200,150,1,eightsix,,,,,,,,,,,,,,,,,,,,,,,,,,,,,,,,,,,,,,,,,,,,,,,,,,,,,,,,,,,,,,,,,,,,,,,,,,,,,,,,,,,,,,,,,,,,,,,,,,,,,,,,,,,,,,,,,,,,,,,,,,,,,,,,,,,,,,,,,
,,5d474ed70f79810001c36084,2024-02-22_00h24.09.051,kallum_motion_pilot,2023.2.2,Win32,144.092219,5d474ed70f79810001c36084,65d6bb0e977760de756971f7,65d6be3efde08c320ec404b7,0.027,0.027,1,39,201,139,1,sixeight,,,,,,,,,,,,,,,,,,,,,,,,,,,,,,,,,,,,,,,,,,,,,,,,,,,,,,,,,,,,,,,,,,,,,,,,,,,,,,,,,,,,,,,,,,,,,,,,,,,,,,,,,,,,,,,,,,,,,,,,,,,,,,,,,,,,,,,,,
,,5d474ed70f79810001c36084,2024-02-22_00h24.09.051,kallum_motion_pilot,2023.2.2,Win32,144.092219,5d474ed70f79810001c36084,65d6bb0e977760de756971f7,65d6be3efde08c320ec404b7,0.027,0.027,1,40,202,52,1,threeone,,,,,,,,,,,,,,,,,,,,,,,,,,,,,,,,,,,,,,,,,,,,,,,,,,,,,,,,,,,,,,,,,,,,,,,,,,,,,,,,,,,,,,,,,,,,,,,,,,,,,,,,,,,,,,,,,,,,,,,,,,,,,,,,,,,,,,,,,
,,5d474ed70f79810001c36084,2024-02-22_00h24.09.051,kallum_motion_pilot,2023.2.2,Win32,144.092219,5d474ed70f79810001c36084,65d6bb0e977760de756971f7,65d6be3efde08c320ec404b7,0.027,0.027,1,41,203,67,1,twofour,,,,,,,,,,,,,,,,,,,,,,,,,,,,,,,,,,,,,,,,,,,,,,,,,,,,,,,,,,,,,,,,,,,,,,,,,,,,,,,,,,,,,,,,,,,,,,,,,,,,,,,,,,,,,,,,,,,,,,,,,,,,,,,,,,,,,,,,,
,,5d474ed70f79810001c36084,2024-02-22_00h24.09.051,kallum_motion_pilot,2023.2.2,Win32,144.092219,5d474ed70f79810001c36084,65d6bb0e977760de756971f7,65d6be3efde08c320ec404b7,0.027,0.027,1,42,204,86,1,eightsix,,,,,,,,,,,,,,,,,,,,,,,,,,,,,,,,,,,,,,,,,,,,,,,,,,,,,,,,,,,,,,,,,,,,,,,,,,,,,,,,,,,,,,,,,,,,,,,,,,,,,,,,,,,,,,,,,,,,,,,,,,,,,,,,,,,,,,,,,
,,5d474ed70f79810001c36084,2024-02-22_00h24.09.051,kallum_motion_pilot,2023.2.2,Win32,144.092219,5d474ed70f79810001c36084,65d6bb0e977760de756971f7,65d6be3efde08c320ec404b7,0.027,0.027,1,43,205,103,1,eightseven,,,,,,,,,,,,,,,,,,,,,,,,,,,,,,,,,,,,,,,,,,,,,,,,,,,,,,,,,,,,,,,,,,,,,,,,,,,,,,,,,,,,,,,,,,,,,,,,,,,,,,,,,,,,,,,,,,,,,,,,,,,,,,,,,,,,,,,,,
,,5d474ed70f79810001c36084,2024-02-22_00h24.09.051,kallum_motion_pilot,2023.2.2,Win32,144.092219,5d474ed70f79810001c36084,65d6bb0e977760de756971f7,65d6be3efde08c320ec404b7,0.027,0.027,1,44,206,41,1,onethree,,,,,,,,,,,,,,,,,,,,,,,,,,,,,,,,,,,,,,,,,,,,,,,,,,,,,,,,,,,,,,,,,,,,,,,,,,,,,,,,,,,,,,,,,,,,,,,,,,,,,,,,,,,,,,,,,,,,,,,,,,,,,,,,,,,,,,,,,
,,5d474ed70f79810001c36084,2024-02-22_00h24.09.051,kallum_motion_pilot,2023.2.2,Win32,144.092219,5d474ed70f79810001c36084,65d6bb0e977760de756971f7,65d6be3efde08c320ec404b7,0.028,0.028,1,45,207,101,1,seveneight,,,,,,,,,,,,,,,,,,,,,,,,,,,,,,,,,,,,,,,,,,,,,,,,,,,,,,,,,,,,,,,,,,,,,,,,,,,,,,,,,,,,,,,,,,,,,,,,,,,,,,,,,,,,,,,,,,,,,,,,,,,,,,,,,,,,,,,,,
,,5d474ed70f79810001c36084,2024-02-22_00h24.09.051,kallum_motion_pilot,2023.2.2,Win32,144.092219,5d474ed70f79810001c36084,65d6bb0e977760de756971f7,65d6be3efde08c320ec404b7,0.028,0.028,1,46,208,34,1,twoone,,,,,,,,,,,,,,,,,,,,,,,,,,,,,,,,,,,,,,,,,,,,,,,,,,,,,,,,,,,,,,,,,,,,,,,,,,,,,,,,,,,,,,,,,,,,,,,,,,,,,,,,,,,,,,,,,,,,,,,,,,,,,,,,,,,,,,,,,
,,5d474ed70f79810001c36084,2024-02-22_00h24.09.051,kallum_motion_pilot,2023.2.2,Win32,144.092219,5d474ed70f79810001c36084,65d6bb0e977760de756971f7,65d6be3efde08c320ec404b7,0.028,0.028,1,47,209,146,1,sixfive,,,,,,,,,,,,,,,,,,,,,,,,,,,,,,,,,,,,,,,,,,,,,,,,,,,,,,,,,,,,,,,,,,,,,,,,,,,,,,,,,,,,,,,,,,,,,,,,,,,,,,,,,,,,,,,,,,,,,,,,,,,,,,,,,,,,,,,,,
,,5d474ed70f79810001c36084,2024-02-22_00h24.09.051,kallum_motion_pilot,2023.2.2,Win32,144.092219,5d474ed70f79810001c36084,65d6bb0e977760de756971f7,65d6be3efde08c320ec404b7,0.028,0.028,1,48,210,116,1,sevenfive,,,,,,,,,,,,,,,,,,,,,,,,,,,,,,,,,,,,,,,,,,,,,,,,,,,,,,,,,,,,,,,,,,,,,,,,,,,,,,,,,,,,,,,,,,,,,,,,,,,,,,,,,,,,,,,,,,,,,,,,,,,,,,,,,,,,,,,,,
,,5d474ed70f79810001c36084,2024-02-22_00h24.09.051,kallum_motion_pilot,2023.2.2,Win32,144.092219,5d474ed70f79810001c36084,65d6bb0e977760de756971f7,65d6be3efde08c320ec404b7,0.028,0.028,1,49,211,111,1,eightseven,,,,,,,,,,,,,,,,,,,,,,,,,,,,,,,,,,,,,,,,,,,,,,,,,,,,,,,,,,,,,,,,,,,,,,,,,,,,,,,,,,,,,,,,,,,,,,,,,,,,,,,,,,,,,,,,,,,,,,,,,,,,,,,,,,,,,,,,,
,,5d474ed70f79810001c36084,2024-02-22_00h24.09.051,kallum_motion_pilot,2023.2.2,Win32,144.092219,5d474ed70f79810001c36084,65d6bb0e977760de756971f7,65d6be3efde08c320ec404b7,0.028,0.028,1,50,212,57,1,onethree,,,,,,,,,,,,,,,,,,,,,,,,,,,,,,,,,,,,,,,,,,,,,,,,,,,,,,,,,,,,,,,,,,,,,,,,,,,,,,,,,,,,,,,,,,,,,,,,,,,,,,,,,,,,,,,,,,,,,,,,,,,,,,,,,,,,,,,,,
,,5d474ed70f79810001c36084,2024-02-22_00h24.09.051,kallum_motion_pilot,2023.2.2,Win32,144.092219,5d474ed70f79810001c36084,65d6bb0e977760de756971f7,65d6be3efde08c320ec404b7,0.028,0.028,1,51,213,10,1,twoone,,,,,,,,,,,,,,,,,,,,,,,,,,,,,,,,,,,,,,,,,,,,,,,,,,,,,,,,,,,,,,,,,,,,,,,,,,,,,,,,,,,,,,,,,,,,,,,,,,,,,,,,,,,,,,,,,,,,,,,,,,,,,,,,,,,,,,,,,
,,5d474ed70f79810001c36084,2024-02-22_00h24.09.051,kallum_motion_pilot,2023.2.2,Win32,144.092219,5d474ed70f79810001c36084,65d6bb0e977760de756971f7,65d6be3efde08c320ec404b7,0.028,0.028,1,52,214,60,1,threeone,,,,,,,,,,,,,,,,,,,,,,,,,,,,,,,,,,,,,,,,,,,,,,,,,,,,,,,,,,,,,,,,,,,,,,,,,,,,,,,,,,,,,,,,,,,,,,,,,,,,,,,,,,,,,,,,,,,,,,,,,,,,,,,,,,,,,,,,,
,,5d474ed70f79810001c36084,2024-02-22_00h24.09.051,kallum_motion_pilot,2023.2.2,Win32,144.092219,5d474ed70f79810001c36084,65d6bb0e977760de756971f7,65d6be3efde08c320ec404b7,0.028,0.028,1,53,215,152,1,fivesix,,,,,,,,,,,,,,,,,,,,,,,,,,,,,,,,,,,,,,,,,,,,,,,,,,,,,,,,,,,,,,,,,,,,,,,,,,,,,,,,,,,,,,,,,,,,,,,,,,,,,,,,,,,,,,,,,,,,,,,,,,,,,,,,,,,,,,,,,
,,5d474ed70f79810001c36084,2024-02-22_00h24.09.051,kallum_motion_pilot,2023.2.2,Win32,144.092219,5d474ed70f79810001c36084,65d6bb0e977760de756971f7,65d6be3efde08c320ec404b7,0.028,0.028,1,54,216,48,1,onetwo,,,,,,,,,,,,,,,,,,,,,,,,,,,,,,,,,,,,,,,,,,,,,,,,,,,,,,,,,,,,,,,,,,,,,,,,,,,,,,,,,,,,,,,,,,,,,,,,,,,,,,,,,,,,,,,,,,,,,,,,,,,,,,,,,,,,,,,,,
,,5d474ed70f79810001c36084,2024-02-22_00h24.09.051,kallum_motion_pilot,2023.2.2,Win32,144.092219,5d474ed70f79810001c36084,65d6bb0e977760de756971f7,65d6be3efde08c320ec404b7,0.028,0.028,1,55,217,20,1,threeone,,,,,,,,,,,,,,,,,,,,,,,,,,,,,,,,,,,,,,,,,,,,,,,,,,,,,,,,,,,,,,,,,,,,,,,,,,,,,,,,,,,,,,,,,,,,,,,,,,,,,,,,,,,,,,,,,,,,,,,,,,,,,,,,,,,,,,,,,
,,5d474ed70f79810001c36084,2024-02-22_00h24.09.051,kallum_motion_pilot,2023.2.2,Win32,144.092219,5d474ed70f79810001c36084,65d6bb0e977760de756971f7,65d6be3efde08c320ec404b7,0.028,0.028,1,56,218,22,1,fourtwo,,,,,,,,,,,,,,,,,,,,,,,,,,,,,,,,,,,,,,,,,,,,,,,,,,,,,,,,,,,,,,,,,,,,,,,,,,,,,,,,,,,,,,,,,,,,,,,,,,,,,,,,,,,,,,,,,,,,,,,,,,,,,,,,,,,,,,,,,
,,5d474ed70f79810001c36084,2024-02-22_00h24.09.051,kallum_motion_pilot,2023.2.2,Win32,144.092219,5d474ed70f79810001c36084,65d6bb0e977760de756971f7,65d6be3efde08c320ec404b7,0.028,0.028,1,57,219,37,1,threefour,,,,,,,,,,,,,,,,,,,,,,,,,,,,,,,,,,,,,,,,,,,,,,,,,,,,,,,,,,,,,,,,,,,,,,,,,,,,,,,,,,,,,,,,,,,,,,,,,,,,,,,,,,,,,,,,,,,,,,,,,,,,,,,,,,,,,,,,,
,,5d474ed70f79810001c36084,2024-02-22_00h24.09.051,kallum_motion_pilot,2023.2.2,Win32,144.092219,5d474ed70f79810001c36084,65d6bb0e977760de756971f7,65d6be3efde08c320ec404b7,0.028,0.028,1,58,220,155,1,sixeight,,,,,,,,,,,,,,,,,,,,,,,,,,,,,,,,,,,,,,,,,,,,,,,,,,,,,,,,,,,,,,,,,,,,,,,,,,,,,,,,,,,,,,,,,,,,,,,,,,,,,,,,,,,,,,,,,,,,,,,,,,,,,,,,,,,,,,,,,
,,5d474ed70f79810001c36084,2024-02-22_00h24.09.051,kallum_motion_pilot,2023.2.2,Win32,144.092219,5d474ed70f79810001c36084,65d6bb0e977760de756971f7,65d6be3efde08c320ec404b7,0.028,0.028,1,59,221,11,1,twofour,,,,,,,,,,,,,,,,,,,,,,,,,,,,,,,,,,,,,,,,,,,,,,,,,,,,,,,,,,,,,,,,,,,,,,,,,,,,,,,,,,,,,,,,,,,,,,,,,,,,,,,,,,,,,,,,,,,,,,,,,,,,,,,,,,,,,,,,,
,,5d474ed70f79810001c36084,2024-02-22_00h24.09.051,kallum_motion_pilot,2023.2.2,Win32,144.092219,5d474ed70f79810001c36084,65d6bb0e977760de756971f7,65d6be3efde08c320ec404b7,0.028,0.028,1,60,222,95,1,eightseven,,,,,,,,,,,,,,,,,,,,,,,,,,,,,,,,,,,,,,,,,,,,,,,,,,,,,,,,,,,,,,,,,,,,,,,,,,,,,,,,,,,,,,,,,,,,,,,,,,,,,,,,,,,,,,,,,,,,,,,,,,,,,,,,,,,,,,,,,
,,5d474ed70f79810001c36084,2024-02-22_00h24.09.051,kallum_motion_pilot,2023.2.2,Win32,144.092219,5d474ed70f79810001c36084,65d6bb0e977760de756971f7,65d6be3efde08c320ec404b7,0.028,0.028,1,61,223,74,1,twoone,,,,,,,,,,,,,,,,,,,,,,,,,,,,,,,,,,,,,,,,,,,,,,,,,,,,,,,,,,,,,,,,,,,,,,,,,,,,,,,,,,,,,,,,,,,,,,,,,,,,,,,,,,,,,,,,,,,,,,,,,,,,,,,,,,,,,,,,,
,,5d474ed70f79810001c36084,2024-02-22_00h24.09.051,kallum_motion_pilot,2023.2.2,Win32,144.092219,5d474ed70f79810001c36084,65d6bb0e977760de756971f7,65d6be3efde08c320ec404b7,0.028,0.028,1,62,224,30,1,fourtwo,,,,,,,,,,,,,,,,,,,,,,,,,,,,,,,,,,,,,,,,,,,,,,,,,,,,,,,,,,,,,,,,,,,,,,,,,,,,,,,,,,,,,,,,,,,,,,,,,,,,,,,,,,,,,,,,,,,,,,,,,,,,,,,,,,,,,,,,,
,,5d474ed70f79810001c36084,2024-02-22_00h24.09.051,kallum_motion_pilot,2023.2.2,Win32,144.092219,5d474ed70f79810001c36084,65d6bb0e977760de756971f7,65d6be3efde08c320ec404b7,0.028,0.028,1,63,225,58,1,twoone,,,,,,,,,,,,,,,,,,,,,,,,,,,,,,,,,,,,,,,,,,,,,,,,,,,,,,,,,,,,,,,,,,,,,,,,,,,,,,,,,,,,,,,,,,,,,,,,,,,,,,,,,,,,,,,,,,,,,,,,,,,,,,,,,,,,,,,,,
,,5d474ed70f79810001c36084,2024-02-22_00h24.09.051,kallum_motion_pilot,2023.2.2,Win32,144.092219,5d474ed70f79810001c36084,65d6bb0e977760de756971f7,65d6be3efde08c320ec404b7,0.028,0.028,1,64,226,65,1,onethree,,,,,,,,,,,,,,,,,,,,,,,,,,,,,,,,,,,,,,,,,,,,,,,,,,,,,,,,,,,,,,,,,,,,,,,,,,,,,,,,,,,,,,,,,,,,,,,,,,,,,,,,,,,,,,,,,,,,,,,,,,,,,,,,,,,,,,,,,
,,5d474ed70f79810001c36084,2024-02-22_00h24.09.051,kallum_motion_pilot,2023.2.2,Win32,144.092219,5d474ed70f79810001c36084,65d6bb0e977760de756971f7,65d6be3efde08c320ec404b7,0.028,0.029,1,65,227,31,1,fourthree,,,,,,,,,,,,,,,,,,,,,,,,,,,,,,,,,,,,,,,,,,,,,,,,,,,,,,,,,,,,,,,,,,,,,,,,,,,,,,,,,,,,,,,,,,,,,,,,,,,,,,,,,,,,,,,,,,,,,,,,,,,,,,,,,,,,,,,,,
,,5d474ed70f79810001c36084,2024-02-22_00h24.09.051,kallum_motion_pilot,2023.2.2,Win32,144.092219,5d474ed70f79810001c36084,65d6bb0e977760de756971f7,65d6be3efde08c320ec404b7,0.029,0.029,1,66,228,59,1,twofour,,,,,,,,,,,,,,,,,,,,,,,,,,,,,,,,,,,,,,,,,,,,,,,,,,,,,,,,,,,,,,,,,,,,,,,,,,,,,,,,,,,,,,,,,,,,,,,,,,,,,,,,,,,,,,,,,,,,,,,,,,,,,,,,,,,,,,,,,
,,5d474ed70f79810001c36084,2024-02-22_00h24.09.051,kallum_motion_pilot,2023.2.2,Win32,144.092219,5d474ed70f79810001c36084,65d6bb0e977760de756971f7,65d6be3efde08c320ec404b7,0.029,0.029,1,67,229,51,1,twofour,,,,,,,,,,,,,,,,,,,,,,,,,,,,,,,,,,,,,,,,,,,,,,,,,,,,,,,,,,,,,,,,,,,,,,,,,,,,,,,,,,,,,,,,,,,,,,,,,,,,,,,,,,,,,,,,,,,,,,,,,,,,,,,,,,,,,,,,,
,,5d474ed70f79810001c36084,2024-02-22_00h24.09.051,kallum_motion_pilot,2023.2.2,Win32,144.092219,5d474ed70f79810001c36084,65d6bb0e977760de756971f7,65d6be3efde08c320ec404b7,0.029,0.029,1,68,230,83,1,sixeight,,,,,,,,,,,,,,,,,,,,,,,,,,,,,,,,,,,,,,,,,,,,,,,,,,,,,,,,,,,,,,,,,,,,,,,,,,,,,,,,,,,,,,,,,,,,,,,,,,,,,,,,,,,,,,,,,,,,,,,,,,,,,,,,,,,,,,,,,
,,5d474ed70f79810001c36084,2024-02-22_00h24.09.051,kallum_motion_pilot,2023.2.2,Win32,144.092219,5d474ed70f79810001c36084,65d6bb0e977760de756971f7,65d6be3efde08c320ec404b7,0.029,0.029,1,69,231,77,1,threefour,,,,,,,,,,,,,,,,,,,,,,,,,,,,,,,,,,,,,,,,,,,,,,,,,,,,,,,,,,,,,,,,,,,,,,,,,,,,,,,,,,,,,,,,,,,,,,,,,,,,,,,,,,,,,,,,,,,,,,,,,,,,,,,,,,,,,,,,,
,,5d474ed70f79810001c36084,2024-02-22_00h24.09.051,kallum_motion_pilot,2023.2.2,Win32,144.092219,5d474ed70f79810001c36084,65d6bb0e977760de756971f7,65d6be3efde08c320ec404b7,0.029,0.029,1,70,232,82,1,sixfive,,,,,,,,,,,,,,,,,,,,,,,,,,,,,,,,,,,,,,,,,,,,,,,,,,,,,,,,,,,,,,,,,,,,,,,,,,,,,,,,,,,,,,,,,,,,,,,,,,,,,,,,,,,,,,,,,,,,,,,,,,,,,,,,,,,,,,,,,
,,5d474ed70f79810001c36084,2024-02-22_00h24.09.051,kallum_motion_pilot,2023.2.2,Win32,144.092219,5d474ed70f79810001c36084,65d6bb0e977760de756971f7,65d6be3efde08c320ec404b7,0.029,0.029,1,71,233,118,1,eightsix,,,,,,,,,,,,,,,,,,,,,,,,,,,,,,,,,,,,,,,,,,,,,,,,,,,,,,,,,,,,,,,,,,,,,,,,,,,,,,,,,,,,,,,,,,,,,,,,,,,,,,,,,,,,,,,,,,,,,,,,,,,,,,,,,,,,,,,,,
,,5d474ed70f79810001c36084,2024-02-22_00h24.09.051,kallum_motion_pilot,2023.2.2,Win32,144.092219,5d474ed70f79810001c36084,65d6bb0e977760de756971f7,65d6be3efde08c320ec404b7,0.029,0.029,1,72,234,99,1,sixeight,,,,,,,,,,,,,,,,,,,,,,,,,,,,,,,,,,,,,,,,,,,,,,,,,,,,,,,,,,,,,,,,,,,,,,,,,,,,,,,,,,,,,,,,,,,,,,,,,,,,,,,,,,,,,,,,,,,,,,,,,,,,,,,,,,,,,,,,,
,,5d474ed70f79810001c36084,2024-02-22_00h24.09.051,kallum_motion_pilot,2023.2.2,Win32,144.092219,5d474ed70f79810001c36084,65d6bb0e977760de756971f7,65d6be3efde08c320ec404b7,0.029,0.029,1,73,235,96,1,fivesix,,,,,,,,,,,,,,,,,,,,,,,,,,,,,,,,,,,,,,,,,,,,,,,,,,,,,,,,,,,,,,,,,,,,,,,,,,,,,,,,,,,,,,,,,,,,,,,,,,,,,,,,,,,,,,,,,,,,,,,,,,,,,,,,,,,,,,,,,
,,5d474ed70f79810001c36084,2024-02-22_00h24.09.051,kallum_motion_pilot,2023.2.2,Win32,144.092219,5d474ed70f79810001c36084,65d6bb0e977760de756971f7,65d6be3efde08c320ec404b7,0.029,0.029,1,74,236,4,1,threeone,,,,,,,,,,,,,,,,,,,,,,,,,,,,,,,,,,,,,,,,,,,,,,,,,,,,,,,,,,,,,,,,,,,,,,,,,,,,,,,,,,,,,,,,,,,,,,,,,,,,,,,,,,,,,,,,,,,,,,,,,,,,,,,,,,,,,,,,,
,,5d474ed70f79810001c36084,2024-02-22_00h24.09.051,kallum_motion_pilot,2023.2.2,Win32,144.092219,5d474ed70f79810001c36084,65d6bb0e977760de756971f7,65d6be3efde08c320ec404b7,0.029,0.029,1,75,237,76,1,threeone,,,,,,,,,,,,,,,,,,,,,,,,,,,,,,,,,,,,,,,,,,,,,,,,,,,,,,,,,,,,,,,,,,,,,,,,,,,,,,,,,,,,,,,,,,,,,,,,,,,,,,,,,,,,,,,,,,,,,,,,,,,,,,,,,,,,,,,,,
,,5d474ed70f79810001c36084,2024-02-22_00h24.09.051,kallum_motion_pilot,2023.2.2,Win32,144.092219,5d474ed70f79810001c36084,65d6bb0e977760de756971f7,65d6be3efde08c320ec404b7,0.029,0.029,1,76,238,21,1,threefour,,,,,,,,,,,,,,,,,,,,,,,,,,,,,,,,,,,,,,,,,,,,,,,,,,,,,,,,,,,,,,,,,,,,,,,,,,,,,,,,,,,,,,,,,,,,,,,,,,,,,,,,,,,,,,,,,,,,,,,,,,,,,,,,,,,,,,,,,
,,5d474ed70f79810001c36084,2024-02-22_00h24.09.051,kallum_motion_pilot,2023.2.2,Win32,144.092219,5d474ed70f79810001c36084,65d6bb0e977760de756971f7,65d6be3efde08c320ec404b7,0.029,0.029,1,77,239,142,1,eightsix,,,,,,,,,,,,,,,,,,,,,,,,,,,,,,,,,,,,,,,,,,,,,,,,,,,,,,,,,,,,,,,,,,,,,,,,,,,,,,,,,,,,,,,,,,,,,,,,,,,,,,,,,,,,,,,,,,,,,,,,,,,,,,,,,,,,,,,,,
,,5d474ed70f79810001c36084,2024-02-22_00h24.09.051,kallum_motion_pilot,2023.2.2,Win32,144.092219,5d474ed70f79810001c36084,65d6bb0e977760de756971f7,65d6be3efde08c320ec404b7,0.029,0.029,1,78,240,100,1,sevenfive,,,,,,,,,,,,,,,,,,,,,,,,,,,,,,,,,,,,,,,,,,,,,,,,,,,,,,,,,,,,,,,,,,,,,,,,,,,,,,,,,,,,,,,,,,,,,,,,,,,,,,,,,,,,,,,,,,,,,,,,,,,,,,,,,,,,,,,,,
,,5d474ed70f79810001c36084,2024-02-22_00h24.09.051,kallum_motion_pilot,2023.2.2,Win32,144.092219,5d474ed70f79810001c36084,65d6bb0e977760de756971f7,65d6be3efde08c320ec404b7,0.029,0.029,1,79,241,119,1,eightseven,,,,,,,,,,,,,,,,,,,,,,,,,,,,,,,,,,,,,,,,,,,,,,,,,,,,,,,,,,,,,,,,,,,,,,,,,,,,,,,,,,,,,,,,,,,,,,,,,,,,,,,,,,,,,,,,,,,,,,,,,,,,,,,,,,,,,,,,,
,,5d474ed70f79810001c36084,2024-02-22_00h24.09.051,kallum_motion_pilot,2023.2.2,Win32,144.092219,5d474ed70f79810001c36084,65d6bb0e977760de756971f7,65d6be3efde08c320ec404b7,0.029,0.029,1,80,242,75,1,twofour,,,,,,,,,,,,,,,,,,,,,,,,,,,,,,,,,,,,,,,,,,,,,,,,,,,,,,,,,,,,,,,,,,,,,,,,,,,,,,,,,,,,,,,,,,,,,,,,,,,,,,,,,,,,,,,,,,,,,,,,,,,,,,,,,,,,,,,,,
,,5d474ed70f79810001c36084,2024-02-22_00h24.09.051,kallum_motion_pilot,2023.2.2,Win32,144.092219,5d474ed70f79810001c36084,65d6bb0e977760de756971f7,65d6be3efde08c320ec404b7,0.029,0.029,1,81,243,110,1,eightsix,,,,,,,,,,,,,,,,,,,,,,,,,,,,,,,,,,,,,,,,,,,,,,,,,,,,,,,,,,,,,,,,,,,,,,,,,,,,,,,,,,,,,,,,,,,,,,,,,,,,,,,,,,,,,,,,,,,,,,,,,,,,,,,,,,,,,,,,,
,,5d474ed70f79810001c36084,2024-02-22_00h24.09.051,kallum_motion_pilot,2023.2.2,Win32,144.092219,5d474ed70f79810001c36084,65d6bb0e977760de756971f7,65d6be3efde08c320ec404b7,0.029,0.029,1,82,244,125,1,seveneight,,,,,,,,,,,,,,,,,,,,,,,,,,,,,,,,,,,,,,,,,,,,,,,,,,,,,,,,,,,,,,,,,,,,,,,,,,,,,,,,,,,,,,,,,,,,,,,,,,,,,,,,,,,,,,,,,,,,,,,,,,,,,,,,,,,,,,,,,
,,5d474ed70f79810001c36084,2024-02-22_00h24.09.051,kallum_motion_pilot,2023.2.2,Win32,144.092219,5d474ed70f79810001c36084,65d6bb0e977760de756971f7,65d6be3efde08c320ec404b7,0.029,0.029,1,83,245,156,1,sevenfive,,,,,,,,,,,,,,,,,,,,,,,,,,,,,,,,,,,,,,,,,,,,,,,,,,,,,,,,,,,,,,,,,,,,,,,,,,,,,,,,,,,,,,,,,,,,,,,,,,,,,,,,,,,,,,,,,,,,,,,,,,,,,,,,,,,,,,,,,
,,5d474ed70f79810001c36084,2024-02-22_00h24.09.051,kallum_motion_pilot,2023.2.2,Win32,144.092219,5d474ed70f79810001c36084,65d6bb0e977760de756971f7,65d6be3efde08c320ec404b7,0.029,0.029,1,84,246,68,1,threeone,,,,,,,,,,,,,,,,,,,,,,,,,,,,,,,,,,,,,,,,,,,,,,,,,,,,,,,,,,,,,,,,,,,,,,,,,,,,,,,,,,,,,,,,,,,,,,,,,,,,,,,,,,,,,,,,,,,,,,,,,,,,,,,,,,,,,,,,,
,,5d474ed70f79810001c36084,2024-02-22_00h24.09.051,kallum_motion_pilot,2023.2.2,Win32,144.092219,5d474ed70f79810001c36084,65d6bb0e977760de756971f7,65d6be3efde08c320ec404b7,0.029,0.029,1,85,247,23,1,fourthree,,,,,,,,,,,,,,,,,,,,,,,,,,,,,,,,,,,,,,,,,,,,,,,,,,,,,,,,,,,,,,,,,,,,,,,,,,,,,,,,,,,,,,,,,,,,,,,,,,,,,,,,,,,,,,,,,,,,,,,,,,,,,,,,,,,,,,,,,
,,5d474ed70f79810001c36084,2024-02-22_00h24.09.051,kallum_motion_pilot,2023.2.2,Win32,144.092219,5d474ed70f79810001c36084,65d6bb0e977760de756971f7,65d6be3efde08c320ec404b7,0.029,0.029,1,86,248,112,1,fivesix,,,,,,,,,,,,,,,,,,,,,,,,,,,,,,,,,,,,,,,,,,,,,,,,,,,,,,,,,,,,,,,,,,,,,,,,,,,,,,,,,,,,,,,,,,,,,,,,,,,,,,,,,,,,,,,,,,,,,,,,,,,,,,,,,,,,,,,,,
,,5d474ed70f79810001c36084,2024-02-22_00h24.09.051,kallum_motion_pilot,2023.2.2,Win32,144.092219,5d474ed70f79810001c36084,65d6bb0e977760de756971f7,65d6be3efde08c320ec404b7,0.03,0.03,1,87,249,5,1,threefour,,,,,,,,,,,,,,,,,,,,,,,,,,,,,,,,,,,,,,,,,,,,,,,,,,,,,,,,,,,,,,,,,,,,,,,,,,,,,,,,,,,,,,,,,,,,,,,,,,,,,,,,,,,,,,,,,,,,,,,,,,,,,,,,,,,,,,,,,
,,5d474ed70f79810001c36084,2024-02-22_00h24.09.051,kallum_motion_pilot,2023.2.2,Win32,144.092219,5d474ed70f79810001c36084,65d6bb0e977760de756971f7,65d6be3efde08c320ec404b7,0.03,0.03,1,88,250,128,1,fivesix,,,,,,,,,,,,,,,,,,,,,,,,,,,,,,,,,,,,,,,,,,,,,,,,,,,,,,,,,,,,,,,,,,,,,,,,,,,,,,,,,,,,,,,,,,,,,,,,,,,,,,,,,,,,,,,,,,,,,,,,,,,,,,,,,,,,,,,,,
,,5d474ed70f79810001c36084,2024-02-22_00h24.09.051,kallum_motion_pilot,2023.2.2,Win32,144.092219,5d474ed70f79810001c36084,65d6bb0e977760de756971f7,65d6be3efde08c320ec404b7,0.03,0.03,1,89,251,49,1,onethree,,,,,,,,,,,,,,,,,,,,,,,,,,,,,,,,,,,,,,,,,,,,,,,,,,,,,,,,,,,,,,,,,,,,,,,,,,,,,,,,,,,,,,,,,,,,,,,,,,,,,,,,,,,,,,,,,,,,,,,,,,,,,,,,,,,,,,,,,
,,5d474ed70f79810001c36084,2024-02-22_00h24.09.051,kallum_motion_pilot,2023.2.2,Win32,144.092219,5d474ed70f79810001c36084,65d6bb0e977760de756971f7,65d6be3efde08c320ec404b7,0.03,0.03,1,90,252,147,1,sixeight,,,,,,,,,,,,,,,,,,,,,,,,,,,,,,,,,,,,,,,,,,,,,,,,,,,,,,,,,,,,,,,,,,,,,,,,,,,,,,,,,,,,,,,,,,,,,,,,,,,,,,,,,,,,,,,,,,,,,,,,,,,,,,,,,,,,,,,,,
,,5d474ed70f79810001c36084,2024-02-22_00h24.09.051,kallum_motion_pilot,2023.2.2,Win32,144.092219,5d474ed70f79810001c36084,65d6bb0e977760de756971f7,65d6be3efde08c320ec404b7,0.03,0.03,1,91,253,63,1,fourthree,,,,,,,,,,,,,,,,,,,,,,,,,,,,,,,,,,,,,,,,,,,,,,,,,,,,,,,,,,,,,,,,,,,,,,,,,,,,,,,,,,,,,,,,,,,,,,,,,,,,,,,,,,,,,,,,,,,,,,,,,,,,,,,,,,,,,,,,,
,,5d474ed70f79810001c36084,2024-02-22_00h24.09.051,kallum_motion_pilot,2023.2.2,Win32,144.092219,5d474ed70f79810001c36084,65d6bb0e977760de756971f7,65d6be3efde08c320ec404b7,0.03,0.03,1,92,254,17,1,onethree,,,,,,,,,,,,,,,,,,,,,,,,,,,,,,,,,,,,,,,,,,,,,,,,,,,,,,,,,,,,,,,,,,,,,,,,,,,,,,,,,,,,,,,,,,,,,,,,,,,,,,,,,,,,,,,,,,,,,,,,,,,,,,,,,,,,,,,,,
,,5d474ed70f79810001c36084,2024-02-22_00h24.09.051,kallum_motion_pilot,2023.2.2,Win32,144.092219,5d474ed70f79810001c36084,65d6bb0e977760de756971f7,65d6be3efde08c320ec404b7,0.03,0.03,1,93,255,79,1,eightseven,,,,,,,,,,,,,,,,,,,,,,,,,,,,,,,,,,,,,,,,,,,,,,,,,,,,,,,,,,,,,,,,,,,,,,,,,,,,,,,,,,,,,,,,,,,,,,,,,,,,,,,,,,,,,,,,,,,,,,,,,,,,,,,,,,,,,,,,,
,,5d474ed70f79810001c36084,2024-02-22_00h24.09.051,kallum_motion_pilot,2023.2.2,Win32,144.092219,5d474ed70f79810001c36084,65d6bb0e977760de756971f7,65d6be3efde08c320ec404b7,0.03,0.03,1,94,256,89,1,fiveseven,,,,,,,,,,,,,,,,,,,,,,,,,,,,,,,,,,,,,,,,,,,,,,,,,,,,,,,,,,,,,,,,,,,,,,,,,,,,,,,,,,,,,,,,,,,,,,,,,,,,,,,,,,,,,,,,,,,,,,,,,,,,,,,,,,,,,,,,,
,,5d474ed70f79810001c36084,2024-02-22_00h24.09.051,kallum_motion_pilot,2023.2.2,Win32,144.092219,5d474ed70f79810001c36084,65d6bb0e977760de756971f7,65d6be3efde08c320ec404b7,0.03,0.03,1,95,257,91,1,sixeight,,,,,,,,,,,,,,,,,,,,,,,,,,,,,,,,,,,,,,,,,,,,,,,,,,,,,,,,,,,,,,,,,,,,,,,,,,,,,,,,,,,,,,,,,,,,,,,,,,,,,,,,,,,,,,,,,,,,,,,,,,,,,,,,,,,,,,,,,
,,5d474ed70f79810001c36084,2024-02-22_00h24.09.051,kallum_motion_pilot,2023.2.2,Win32,144.092219,5d474ed70f79810001c36084,65d6bb0e977760de756971f7,65d6be3efde08c320ec404b7,0.03,0.03,1,96,258,154,1,sixfive,,,,,,,,,,,,,,,,,,,,,,,,,,,,,,,,,,,,,,,,,,,,,,,,,,,,,,,,,,,,,,,,,,,,,,,,,,,,,,,,,,,,,,,,,,,,,,,,,,,,,,,,,,,,,,,,,,,,,,,,,,,,,,,,,,,,,,,,,
,,5d474ed70f79810001c36084,2024-02-22_00h24.09.051,kallum_motion_pilot,2023.2.2,Win32,144.092219,5d474ed70f79810001c36084,65d6bb0e977760de756971f7,65d6be3efde08c320ec404b7,0.03,0.03,1,97,259,16,1,onetwo,,,,,,,,,,,,,,,,,,,,,,,,,,,,,,,,,,,,,,,,,,,,,,,,,,,,,,,,,,,,,,,,,,,,,,,,,,,,,,,,,,,,,,,,,,,,,,,,,,,,,,,,,,,,,,,,,,,,,,,,,,,,,,,,,,,,,,,,,
,,5d474ed70f79810001c36084,2024-02-22_00h24.09.051,kallum_motion_pilot,2023.2.2,Win32,144.092219,5d474ed70f79810001c36084,65d6bb0e977760de756971f7,65d6be3efde08c320ec404b7,0.03,0.03,1,98,260,29,1,threefour,,,,,,,,,,,,,,,,,,,,,,,,,,,,,,,,,,,,,,,,,,,,,,,,,,,,,,,,,,,,,,,,,,,,,,,,,,,,,,,,,,,,,,,,,,,,,,,,,,,,,,,,,,,,,,,,,,,,,,,,,,,,,,,,,,,,,,,,,
,,5d474ed70f79810001c36084,2024-02-22_00h24.09.051,kallum_motion_pilot,2023.2.2,Win32,144.092219,5d474ed70f79810001c36084,65d6bb0e977760de756971f7,65d6be3efde08c320ec404b7,0.03,0.03,1,99,261,53,1,threefour,,,,,,,,,,,,,,,,,,,,,,,,,,,,,,,,,,,,,,,,,,,,,,,,,,,,,,,,,,,,,,,,,,,,,,,,,,,,,,,,,,,,,,,,,,,,,,,,,,,,,,,,,,,,,,,,,,,,,,,,,,,,,,,,,,,,,,,,,
,,5d474ed70f79810001c36084,2024-02-22_00h24.09.051,kallum_motion_pilot,2023.2.2,Win32,144.092219,5d474ed70f79810001c36084,65d6bb0e977760de756971f7,65d6be3efde08c320ec404b7,0.03,0.03,1,100,262,80,1,fivesix,,,,,,,,,,,,,,,,,,,,,,,,,,,,,,,,,,,,,,,,,,,,,,,,,,,,,,,,,,,,,,,,,,,,,,,,,,,,,,,,,,,,,,,,,,,,,,,,,,,,,,,,,,,,,,,,,,,,,,,,,,,,,,,,,,,,,,,,,
,,5d474ed70f79810001c36084,2024-02-22_00h24.09.051,kallum_motion_pilot,2023.2.2,Win32,144.092219,5d474ed70f79810001c36084,65d6bb0e977760de756971f7,65d6be3efde08c320ec404b7,0.03,0.03,1,101,263,115,1,sixeight,,,,,,,,,,,,,,,,,,,,,,,,,,,,,,,,,,,,,,,,,,,,,,,,,,,,,,,,,,,,,,,,,,,,,,,,,,,,,,,,,,,,,,,,,,,,,,,,,,,,,,,,,,,,,,,,,,,,,,,,,,,,,,,,,,,,,,,,,
,,5d474ed70f79810001c36084,2024-02-22_00h24.09.051,kallum_motion_pilot,2023.2.2,Win32,144.092219,5d474ed70f79810001c36084,65d6bb0e977760de756971f7,65d6be3efde08c320ec404b7,0.03,0.03,1,102,264,6,1,fourtwo,,,,,,,,,,,,,,,,,,,,,,,,,,,,,,,,,,,,,,,,,,,,,,,,,,,,,,,,,,,,,,,,,,,,,,,,,,,,,,,,,,,,,,,,,,,,,,,,,,,,,,,,,,,,,,,,,,,,,,,,,,,,,,,,,,,,,,,,,
,,5d474ed70f79810001c36084,2024-02-22_00h24.09.051,kallum_motion_pilot,2023.2.2,Win32,144.092219,5d474ed70f79810001c36084,65d6bb0e977760de756971f7,65d6be3efde08c320ec404b7,0.03,0.03,1,103,265,47,1,fourthree,,,,,,,,,,,,,,,,,,,,,,,,,,,,,,,,,,,,,,,,,,,,,,,,,,,,,,,,,,,,,,,,,,,,,,,,,,,,,,,,,,,,,,,,,,,,,,,,,,,,,,,,,,,,,,,,,,,,,,,,,,,,,,,,,,,,,,,,,
,,5d474ed70f79810001c36084,2024-02-22_00h24.09.051,kallum_motion_pilot,2023.2.2,Win32,144.092219,5d474ed70f79810001c36084,65d6bb0e977760de756971f7,65d6be3efde08c320ec404b7,0.03,0.03,1,104,266,104,1,fivesix,,,,,,,,,,,,,,,,,,,,,,,,,,,,,,,,,,,,,,,,,,,,,,,,,,,,,,,,,,,,,,,,,,,,,,,,,,,,,,,,,,,,,,,,,,,,,,,,,,,,,,,,,,,,,,,,,,,,,,,,,,,,,,,,,,,,,,,,,
,,5d474ed70f79810001c36084,2024-02-22_00h24.09.051,kallum_motion_pilot,2023.2.2,Win32,144.092219,5d474ed70f79810001c36084,65d6bb0e977760de756971f7,65d6be3efde08c320ec404b7,0.03,0.03,1,105,267,138,1,sixfive,,,,,,,,,,,,,,,,,,,,,,,,,,,,,,,,,,,,,,,,,,,,,,,,,,,,,,,,,,,,,,,,,,,,,,,,,,,,,,,,,,,,,,,,,,,,,,,,,,,,,,,,,,,,,,,,,,,,,,,,,,,,,,,,,,,,,,,,,
,,5d474ed70f79810001c36084,2024-02-22_00h24.09.051,kallum_motion_pilot,2023.2.2,Win32,144.092219,5d474ed70f79810001c36084,65d6bb0e977760de756971f7,65d6be3efde08c320ec404b7,0.03,0.03,1,106,268,108,1,sevenfive,,,,,,,,,,,,,,,,,,,,,,,,,,,,,,,,,,,,,,,,,,,,,,,,,,,,,,,,,,,,,,,,,,,,,,,,,,,,,,,,,,,,,,,,,,,,,,,,,,,,,,,,,,,,,,,,,,,,,,,,,,,,,,,,,,,,,,,,,
,,5d474ed70f79810001c36084,2024-02-22_00h24.09.051,kallum_motion_pilot,2023.2.2,Win32,144.092219,5d474ed70f79810001c36084,65d6bb0e977760de756971f7,65d6be3efde08c320ec404b7,0.03,0.03,1,107,269,54,1,fourtwo,,,,,,,,,,,,,,,,,,,,,,,,,,,,,,,,,,,,,,,,,,,,,,,,,,,,,,,,,,,,,,,,,,,,,,,,,,,,,,,,,,,,,,,,,,,,,,,,,,,,,,,,,,,,,,,,,,,,,,,,,,,,,,,,,,,,,,,,,
,,5d474ed70f79810001c36084,2024-02-22_00h24.09.051,kallum_motion_pilot,2023.2.2,Win32,144.092219,5d474ed70f79810001c36084,65d6bb0e977760de756971f7,65d6be3efde08c320ec404b7,0.03,0.03,1,108,270,134,1,eightsix,,,,,,,,,,,,,,,,,,,,,,,,,,,,,,,,,,,,,,,,,,,,,,,,,,,,,,,,,,,,,,,,,,,,,,,,,,,,,,,,,,,,,,,,,,,,,,,,,,,,,,,,,,,,,,,,,,,,,,,,,,,,,,,,,,,,,,,,,
,,5d474ed70f79810001c36084,2024-02-22_00h24.09.051,kallum_motion_pilot,2023.2.2,Win32,144.092219,5d474ed70f79810001c36084,65d6bb0e977760de756971f7,65d6be3efde08c320ec404b7,0.03,0.03,1,109,271,7,1,fourthree,,,,,,,,,,,,,,,,,,,,,,,,,,,,,,,,,,,,,,,,,,,,,,,,,,,,,,,,,,,,,,,,,,,,,,,,,,,,,,,,,,,,,,,,,,,,,,,,,,,,,,,,,,,,,,,,,,,,,,,,,,,,,,,,,,,,,,,,,
,,5d474ed70f79810001c36084,2024-02-22_00h24.09.051,kallum_motion_pilot,2023.2.2,Win32,144.092219,5d474ed70f79810001c36084,65d6bb0e977760de756971f7,65d6be3efde08c320ec404b7,0.03,0.03,1,110,272,85,1,seveneight,,,,,,,,,,,,,,,,,,,,,,,,,,,,,,,,,,,,,,,,,,,,,,,,,,,,,,,,,,,,,,,,,,,,,,,,,,,,,,,,,,,,,,,,,,,,,,,,,,,,,,,,,,,,,,,,,,,,,,,,,,,,,,,,,,,,,,,,,
,,5d474ed70f79810001c36084,2024-02-22_00h24.09.051,kallum_motion_pilot,2023.2.2,Win32,144.092219,5d474ed70f79810001c36084,65d6bb0e977760de756971f7,65d6be3efde08c320ec404b7,0.031,0.031,1,111,273,153,1,fiveseven,,,,,,,,,,,,,,,,,,,,,,,,,,,,,,,,,,,,,,,,,,,,,,,,,,,,,,,,,,,,,,,,,,,,,,,,,,,,,,,,,,,,,,,,,,,,,,,,,,,,,,,,,,,,,,,,,,,,,,,,,,,,,,,,,,,,,,,,,
,,5d474ed70f79810001c36084,2024-02-22_00h24.09.051,kallum_motion_pilot,2023.2.2,Win32,144.092219,5d474ed70f79810001c36084,65d6bb0e977760de756971f7,65d6be3efde08c320ec404b7,0.031,0.031,1,112,274,145,1,fiveseven,,,,,,,,,,,,,,,,,,,,,,,,,,,,,,,,,,,,,,,,,,,,,,,,,,,,,,,,,,,,,,,,,,,,,,,,,,,,,,,,,,,,,,,,,,,,,,,,,,,,,,,,,,,,,,,,,,,,,,,,,,,,,,,,,,,,,,,,,
,,5d474ed70f79810001c36084,2024-02-22_00h24.09.051,kallum_motion_pilot,2023.2.2,Win32,144.092219,5d474ed70f79810001c36084,65d6bb0e977760de756971f7,65d6be3efde08c320ec404b7,0.031,0.031,1,113,275,132,1,sevenfive,,,,,,,,,,,,,,,,,,,,,,,,,,,,,,,,,,,,,,,,,,,,,,,,,,,,,,,,,,,,,,,,,,,,,,,,,,,,,,,,,,,,,,,,,,,,,,,,,,,,,,,,,,,,,,,,,,,,,,,,,,,,,,,,,,,,,,,,,
,,5d474ed70f79810001c36084,2024-02-22_00h24.09.051,kallum_motion_pilot,2023.2.2,Win32,144.092219,5d474ed70f79810001c36084,65d6bb0e977760de756971f7,65d6be3efde08c320ec404b7,0.031,0.031,1,114,276,64,1,onetwo,,,,,,,,,,,,,,,,,,,,,,,,,,,,,,,,,,,,,,,,,,,,,,,,,,,,,,,,,,,,,,,,,,,,,,,,,,,,,,,,,,,,,,,,,,,,,,,,,,,,,,,,,,,,,,,,,,,,,,,,,,,,,,,,,,,,,,,,,
,,5d474ed70f79810001c36084,2024-02-22_00h24.09.051,kallum_motion_pilot,2023.2.2,Win32,144.092219,5d474ed70f79810001c36084,65d6bb0e977760de756971f7,65d6be3efde08c320ec404b7,0.031,0.031,1,115,277,143,1,eightseven,,,,,,,,,,,,,,,,,,,,,,,,,,,,,,,,,,,,,,,,,,,,,,,,,,,,,,,,,,,,,,,,,,,,,,,,,,,,,,,,,,,,,,,,,,,,,,,,,,,,,,,,,,,,,,,,,,,,,,,,,,,,,,,,,,,,,,,,,
,,5d474ed70f79810001c36084,2024-02-22_00h24.09.051,kallum_motion_pilot,2023.2.2,Win32,144.092219,5d474ed70f79810001c36084,65d6bb0e977760de756971f7,65d6be3efde08c320ec404b7,0.031,0.031,1,116,278,106,1,sixfive,,,,,,,,,,,,,,,,,,,,,,,,,,,,,,,,,,,,,,,,,,,,,,,,,,,,,,,,,,,,,,,,,,,,,,,,,,,,,,,,,,,,,,,,,,,,,,,,,,,,,,,,,,,,,,,,,,,,,,,,,,,,,,,,,,,,,,,,,
,,5d474ed70f79810001c36084,2024-02-22_00h24.09.051,kallum_motion_pilot,2023.2.2,Win32,144.092219,5d474ed70f79810001c36084,65d6bb0e977760de756971f7,65d6be3efde08c320ec404b7,0.031,0.031,1,117,279,109,1,seveneight,,,,,,,,,,,,,,,,,,,,,,,,,,,,,,,,,,,,,,,,,,,,,,,,,,,,,,,,,,,,,,,,,,,,,,,,,,,,,,,,,,,,,,,,,,,,,,,,,,,,,,,,,,,,,,,,,,,,,,,,,,,,,,,,,,,,,,,,,
,,5d474ed70f79810001c36084,2024-02-22_00h24.09.051,kallum_motion_pilot,2023.2.2,Win32,144.092219,5d474ed70f79810001c36084,65d6bb0e977760de756971f7,65d6be3efde08c320ec404b7,0.031,0.031,1,118,280,94,1,eightsix,,,,,,,,,,,,,,,,,,,,,,,,,,,,,,,,,,,,,,,,,,,,,,,,,,,,,,,,,,,,,,,,,,,,,,,,,,,,,,,,,,,,,,,,,,,,,,,,,,,,,,,,,,,,,,,,,,,,,,,,,,,,,,,,,,,,,,,,,
