startup.started,startup.stopped,Prolific ID*,date,expName,psychopyVersion,OS,frameRate,participant,study_id,session,stimpositions.started,stimpositions.stopped,hardcoded_stimulus_positions.thisRepN,hardcoded_stimulus_positions.thisTrialN,hardcoded_stimulus_positions.thisN,hardcoded_stimulus_positions.thisIndex,hardcoded_stimulus_positions.ran,StimulusPos,stimorientation.started,stimorientation.stopped,prac_stimorientation_import_loop.thisRepN,prac_stimorientation_import_loop.thisTrialN,prac_stimorientation_import_loop.thisN,prac_stimorientation_import_loop.thisIndex,prac_stimorientation_import_loop.ran,Stimorientation,welcome_instr.started,welcome_instr.stopped,key_resp.keys,key_resp.rt,key_resp.duration,response_steppedout_1.started,response_steppedout_1.stopped,key_resp_20.keys,key_resp_20.rt,key_resp_20.duration,response_steppedout_2.started,response_steppedout_2.stopped,key_resp_19.keys,key_resp_19.rt,key_resp_19.duration,stim_response_instr.started,stim_response_instr.stopped,key_resp_15.keys,key_resp_15.rt,key_resp_15.duration,direction_instr_2.started,direction_instr_2.stopped,key_resp_9.keys,key_resp_9.rt,key_resp_9.duration,instr_prac.started,instr_prac.stopped,key_resp_10.keys,key_resp_10.rt,key_resp_10.duration,Stim1_display_prac.started,Stim1_display_prac.stopped,Ecc,Circle1_ori,Circle2_ori,response_prac.started,similarity,response_time,response_prac.stopped,mouse_5.x,mouse_5.y,mouse_5.leftButton,mouse_5.midButton,mouse_5.rightButton,mouse_5.clicked_name,responseprac_feedback.started,responseprac_feedback.stopped,summary2_prac.started,summary2_prac.stopped,mouse_6.x,mouse_6.y,mouse_6.leftButton,mouse_6.midButton,mouse_6.rightButton,mouse_6.clicked_name,duringprac.thisRepN,duringprac.thisTrialN,duringprac.thisN,duringprac.thisIndex,duringprac.ran,begin.started,begin.stopped,key_resp_22.keys,key_resp_22.rt,key_resp_22.duration,Stim1_display.started,Stim1_display.stopped,circle1_ori,circle2_ori,circle1_SF,circle2_SF,response.started,response.stopped,mouse.x,mouse.y,mouse.leftButton,mouse.midButton,mouse.rightButton,mouse.clicked_name,trialnumber,double_pass.thisRepN,double_pass.thisTrialN,double_pass.thisN,double_pass.thisIndex,double_pass.ran,double_pass.order,main_trial.thisRepN,main_trial.thisTrialN,main_trial.thisN,main_trial.thisIndex,main_trial.ran,main_trial.order,Trial_Counter,Catch,Frequencies,response_2.started,response_2.stopped,mouse_2.x,mouse_2.y,mouse_2.leftButton,mouse_2.midButton,mouse_2.rightButton,mouse_2.clicked_name,special_trial.started,special_trial.stopped,catch_1.started,catch_1.stopped,mouse_3.x,mouse_3.y,mouse_3.leftButton,mouse_3.midButton,mouse_3.rightButton,catchresponse,catchnumber,response_time_catch,response_sum.started,response_sum.stopped,mouse_11.x,mouse_11.y,mouse_11.leftButton,mouse_11.midButton,mouse_11.rightButton,flip_presentation_sequence_for_double_pass.started,flip_presentation_sequence_for_double_pass.stopped,goodbye.started,goodbye.stopped,key_resp_3.keys,key_resp_3.rt,key_resp_3.duration
0.0043,0.0044,5d4dddbd3f4ed60001300679,2024-02-21_22h25.48.162,kallum_motion_pilot,2023.2.2,MacIntel,59.52380952,5d4dddbd3f4ed60001300679,65d6bb0e977760de756971f7,65d6be986941bacdccd541d6,,,,,,,,,,,,,,,,,,,,,,,,,,,,,,,,,,,,,,,,,,,,,,,,,,,,,,,,,,,,,,,,,,,,,,,,,,,,,,,,,,,,,,,,,,,,,,,,,,,,,,,,,,,,,,,,,,,,,,,,,,,,,,,,,,,,,,,,,,,,,,,,,
,,5d4dddbd3f4ed60001300679,2024-02-21_22h25.48.162,kallum_motion_pilot,2023.2.2,MacIntel,59.52380952,5d4dddbd3f4ed60001300679,65d6bb0e977760de756971f7,65d6be986941bacdccd541d6,0.0394,0.0396,0,0,0,64,1,onetwo,,,,,,,,,,,,,,,,,,,,,,,,,,,,,,,,,,,,,,,,,,,,,,,,,,,,,,,,,,,,,,,,,,,,,,,,,,,,,,,,,,,,,,,,,,,,,,,,,,,,,,,,,,,,,,,,,,,,,,,,,,,,,,,,,,,,,,,,,
,,5d4dddbd3f4ed60001300679,2024-02-21_22h25.48.162,kallum_motion_pilot,2023.2.2,MacIntel,59.52380952,5d4dddbd3f4ed60001300679,65d6bb0e977760de756971f7,65d6be986941bacdccd541d6,0.04,0.04,0,1,1,28,1,threeone,,,,,,,,,,,,,,,,,,,,,,,,,,,,,,,,,,,,,,,,,,,,,,,,,,,,,,,,,,,,,,,,,,,,,,,,,,,,,,,,,,,,,,,,,,,,,,,,,,,,,,,,,,,,,,,,,,,,,,,,,,,,,,,,,,,,,,,,,
,,5d4dddbd3f4ed60001300679,2024-02-21_22h25.48.162,kallum_motion_pilot,2023.2.2,MacIntel,59.52380952,5d4dddbd3f4ed60001300679,65d6bb0e977760de756971f7,65d6be986941bacdccd541d6,0.0402,0.0402,0,2,2,7,1,fourthree,,,,,,,,,,,,,,,,,,,,,,,,,,,,,,,,,,,,,,,,,,,,,,,,,,,,,,,,,,,,,,,,,,,,,,,,,,,,,,,,,,,,,,,,,,,,,,,,,,,,,,,,,,,,,,,,,,,,,,,,,,,,,,,,,,,,,,,,,
,,5d4dddbd3f4ed60001300679,2024-02-21_22h25.48.162,kallum_motion_pilot,2023.2.2,MacIntel,59.52380952,5d4dddbd3f4ed60001300679,65d6bb0e977760de756971f7,65d6be986941bacdccd541d6,0.0405,0.0405,0,3,3,118,1,eightsix,,,,,,,,,,,,,,,,,,,,,,,,,,,,,,,,,,,,,,,,,,,,,,,,,,,,,,,,,,,,,,,,,,,,,,,,,,,,,,,,,,,,,,,,,,,,,,,,,,,,,,,,,,,,,,,,,,,,,,,,,,,,,,,,,,,,,,,,,
,,5d4dddbd3f4ed60001300679,2024-02-21_22h25.48.162,kallum_motion_pilot,2023.2.2,MacIntel,59.52380952,5d4dddbd3f4ed60001300679,65d6bb0e977760de756971f7,65d6be986941bacdccd541d6,0.0409,0.0409,0,4,4,113,1,fiveseven,,,,,,,,,,,,,,,,,,,,,,,,,,,,,,,,,,,,,,,,,,,,,,,,,,,,,,,,,,,,,,,,,,,,,,,,,,,,,,,,,,,,,,,,,,,,,,,,,,,,,,,,,,,,,,,,,,,,,,,,,,,,,,,,,,,,,,,,,
,,5d4dddbd3f4ed60001300679,2024-02-21_22h25.48.162,kallum_motion_pilot,2023.2.2,MacIntel,59.52380952,5d4dddbd3f4ed60001300679,65d6bb0e977760de756971f7,65d6be986941bacdccd541d6,0.0411,0.0411,0,5,5,138,1,sixfive,,,,,,,,,,,,,,,,,,,,,,,,,,,,,,,,,,,,,,,,,,,,,,,,,,,,,,,,,,,,,,,,,,,,,,,,,,,,,,,,,,,,,,,,,,,,,,,,,,,,,,,,,,,,,,,,,,,,,,,,,,,,,,,,,,,,,,,,,
,,5d4dddbd3f4ed60001300679,2024-02-21_22h25.48.162,kallum_motion_pilot,2023.2.2,MacIntel,59.52380952,5d4dddbd3f4ed60001300679,65d6bb0e977760de756971f7,65d6be986941bacdccd541d6,0.0412,0.0413,0,6,6,97,1,fiveseven,,,,,,,,,,,,,,,,,,,,,,,,,,,,,,,,,,,,,,,,,,,,,,,,,,,,,,,,,,,,,,,,,,,,,,,,,,,,,,,,,,,,,,,,,,,,,,,,,,,,,,,,,,,,,,,,,,,,,,,,,,,,,,,,,,,,,,,,,
,,5d4dddbd3f4ed60001300679,2024-02-21_22h25.48.162,kallum_motion_pilot,2023.2.2,MacIntel,59.52380952,5d4dddbd3f4ed60001300679,65d6bb0e977760de756971f7,65d6be986941bacdccd541d6,0.0414,0.0414,0,7,7,25,1,onethree,,,,,,,,,,,,,,,,,,,,,,,,,,,,,,,,,,,,,,,,,,,,,,,,,,,,,,,,,,,,,,,,,,,,,,,,,,,,,,,,,,,,,,,,,,,,,,,,,,,,,,,,,,,,,,,,,,,,,,,,,,,,,,,,,,,,,,,,,
,,5d4dddbd3f4ed60001300679,2024-02-21_22h25.48.162,kallum_motion_pilot,2023.2.2,MacIntel,59.52380952,5d4dddbd3f4ed60001300679,65d6bb0e977760de756971f7,65d6be986941bacdccd541d6,0.0418,0.0419,0,8,8,150,1,eightsix,,,,,,,,,,,,,,,,,,,,,,,,,,,,,,,,,,,,,,,,,,,,,,,,,,,,,,,,,,,,,,,,,,,,,,,,,,,,,,,,,,,,,,,,,,,,,,,,,,,,,,,,,,,,,,,,,,,,,,,,,,,,,,,,,,,,,,,,,
,,5d4dddbd3f4ed60001300679,2024-02-21_22h25.48.162,kallum_motion_pilot,2023.2.2,MacIntel,59.52380952,5d4dddbd3f4ed60001300679,65d6bb0e977760de756971f7,65d6be986941bacdccd541d6,0.042,0.0421,0,9,9,44,1,threeone,,,,,,,,,,,,,,,,,,,,,,,,,,,,,,,,,,,,,,,,,,,,,,,,,,,,,,,,,,,,,,,,,,,,,,,,,,,,,,,,,,,,,,,,,,,,,,,,,,,,,,,,,,,,,,,,,,,,,,,,,,,,,,,,,,,,,,,,,
,,5d4dddbd3f4ed60001300679,2024-02-21_22h25.48.162,kallum_motion_pilot,2023.2.2,MacIntel,59.52380952,5d4dddbd3f4ed60001300679,65d6bb0e977760de756971f7,65d6be986941bacdccd541d6,0.0422,0.0422,0,10,10,98,1,sixfive,,,,,,,,,,,,,,,,,,,,,,,,,,,,,,,,,,,,,,,,,,,,,,,,,,,,,,,,,,,,,,,,,,,,,,,,,,,,,,,,,,,,,,,,,,,,,,,,,,,,,,,,,,,,,,,,,,,,,,,,,,,,,,,,,,,,,,,,,
,,5d4dddbd3f4ed60001300679,2024-02-21_22h25.48.162,kallum_motion_pilot,2023.2.2,MacIntel,59.52380952,5d4dddbd3f4ed60001300679,65d6bb0e977760de756971f7,65d6be986941bacdccd541d6,0.0424,0.0424,0,11,11,61,1,threefour,,,,,,,,,,,,,,,,,,,,,,,,,,,,,,,,,,,,,,,,,,,,,,,,,,,,,,,,,,,,,,,,,,,,,,,,,,,,,,,,,,,,,,,,,,,,,,,,,,,,,,,,,,,,,,,,,,,,,,,,,,,,,,,,,,,,,,,,,
,,5d4dddbd3f4ed60001300679,2024-02-21_22h25.48.162,kallum_motion_pilot,2023.2.2,MacIntel,59.52380952,5d4dddbd3f4ed60001300679,65d6bb0e977760de756971f7,65d6be986941bacdccd541d6,0.0428,0.0429,0,12,12,88,1,fivesix,,,,,,,,,,,,,,,,,,,,,,,,,,,,,,,,,,,,,,,,,,,,,,,,,,,,,,,,,,,,,,,,,,,,,,,,,,,,,,,,,,,,,,,,,,,,,,,,,,,,,,,,,,,,,,,,,,,,,,,,,,,,,,,,,,,,,,,,,
,,5d4dddbd3f4ed60001300679,2024-02-21_22h25.48.162,kallum_motion_pilot,2023.2.2,MacIntel,59.52380952,5d4dddbd3f4ed60001300679,65d6bb0e977760de756971f7,65d6be986941bacdccd541d6,0.0431,0.0432,0,13,13,32,1,onetwo,,,,,,,,,,,,,,,,,,,,,,,,,,,,,,,,,,,,,,,,,,,,,,,,,,,,,,,,,,,,,,,,,,,,,,,,,,,,,,,,,,,,,,,,,,,,,,,,,,,,,,,,,,,,,,,,,,,,,,,,,,,,,,,,,,,,,,,,,
,,5d4dddbd3f4ed60001300679,2024-02-21_22h25.48.162,kallum_motion_pilot,2023.2.2,MacIntel,59.52380952,5d4dddbd3f4ed60001300679,65d6bb0e977760de756971f7,65d6be986941bacdccd541d6,0.0433,0.0433,0,14,14,107,1,sixeight,,,,,,,,,,,,,,,,,,,,,,,,,,,,,,,,,,,,,,,,,,,,,,,,,,,,,,,,,,,,,,,,,,,,,,,,,,,,,,,,,,,,,,,,,,,,,,,,,,,,,,,,,,,,,,,,,,,,,,,,,,,,,,,,,,,,,,,,,
,,5d4dddbd3f4ed60001300679,2024-02-21_22h25.48.162,kallum_motion_pilot,2023.2.2,MacIntel,59.52380952,5d4dddbd3f4ed60001300679,65d6bb0e977760de756971f7,65d6be986941bacdccd541d6,0.0434,0.0435,0,15,15,69,1,threefour,,,,,,,,,,,,,,,,,,,,,,,,,,,,,,,,,,,,,,,,,,,,,,,,,,,,,,,,,,,,,,,,,,,,,,,,,,,,,,,,,,,,,,,,,,,,,,,,,,,,,,,,,,,,,,,,,,,,,,,,,,,,,,,,,,,,,,,,,
,,5d4dddbd3f4ed60001300679,2024-02-21_22h25.48.162,kallum_motion_pilot,2023.2.2,MacIntel,59.52380952,5d4dddbd3f4ed60001300679,65d6bb0e977760de756971f7,65d6be986941bacdccd541d6,0.0436,0.0437,0,16,16,23,1,fourthree,,,,,,,,,,,,,,,,,,,,,,,,,,,,,,,,,,,,,,,,,,,,,,,,,,,,,,,,,,,,,,,,,,,,,,,,,,,,,,,,,,,,,,,,,,,,,,,,,,,,,,,,,,,,,,,,,,,,,,,,,,,,,,,,,,,,,,,,,
,,5d4dddbd3f4ed60001300679,2024-02-21_22h25.48.162,kallum_motion_pilot,2023.2.2,MacIntel,59.52380952,5d4dddbd3f4ed60001300679,65d6bb0e977760de756971f7,65d6be986941bacdccd541d6,0.0439,0.0439,0,17,17,66,1,twoone,,,,,,,,,,,,,,,,,,,,,,,,,,,,,,,,,,,,,,,,,,,,,,,,,,,,,,,,,,,,,,,,,,,,,,,,,,,,,,,,,,,,,,,,,,,,,,,,,,,,,,,,,,,,,,,,,,,,,,,,,,,,,,,,,,,,,,,,,
,,5d4dddbd3f4ed60001300679,2024-02-21_22h25.48.162,kallum_motion_pilot,2023.2.2,MacIntel,59.52380952,5d4dddbd3f4ed60001300679,65d6bb0e977760de756971f7,65d6be986941bacdccd541d6,0.044,0.044,0,18,18,74,1,twoone,,,,,,,,,,,,,,,,,,,,,,,,,,,,,,,,,,,,,,,,,,,,,,,,,,,,,,,,,,,,,,,,,,,,,,,,,,,,,,,,,,,,,,,,,,,,,,,,,,,,,,,,,,,,,,,,,,,,,,,,,,,,,,,,,,,,,,,,,
,,5d4dddbd3f4ed60001300679,2024-02-21_22h25.48.162,kallum_motion_pilot,2023.2.2,MacIntel,59.52380952,5d4dddbd3f4ed60001300679,65d6bb0e977760de756971f7,65d6be986941bacdccd541d6,0.0442,0.0442,0,19,19,55,1,fourthree,,,,,,,,,,,,,,,,,,,,,,,,,,,,,,,,,,,,,,,,,,,,,,,,,,,,,,,,,,,,,,,,,,,,,,,,,,,,,,,,,,,,,,,,,,,,,,,,,,,,,,,,,,,,,,,,,,,,,,,,,,,,,,,,,,,,,,,,,
,,5d4dddbd3f4ed60001300679,2024-02-21_22h25.48.162,kallum_motion_pilot,2023.2.2,MacIntel,59.52380952,5d4dddbd3f4ed60001300679,65d6bb0e977760de756971f7,65d6be986941bacdccd541d6,0.0443,0.0443,0,20,20,128,1,fivesix,,,,,,,,,,,,,,,,,,,,,,,,,,,,,,,,,,,,,,,,,,,,,,,,,,,,,,,,,,,,,,,,,,,,,,,,,,,,,,,,,,,,,,,,,,,,,,,,,,,,,,,,,,,,,,,,,,,,,,,,,,,,,,,,,,,,,,,,,
,,5d4dddbd3f4ed60001300679,2024-02-21_22h25.48.162,kallum_motion_pilot,2023.2.2,MacIntel,59.52380952,5d4dddbd3f4ed60001300679,65d6bb0e977760de756971f7,65d6be986941bacdccd541d6,0.0444,0.0444,0,21,21,26,1,twoone,,,,,,,,,,,,,,,,,,,,,,,,,,,,,,,,,,,,,,,,,,,,,,,,,,,,,,,,,,,,,,,,,,,,,,,,,,,,,,,,,,,,,,,,,,,,,,,,,,,,,,,,,,,,,,,,,,,,,,,,,,,,,,,,,,,,,,,,,
,,5d4dddbd3f4ed60001300679,2024-02-21_22h25.48.162,kallum_motion_pilot,2023.2.2,MacIntel,59.52380952,5d4dddbd3f4ed60001300679,65d6bb0e977760de756971f7,65d6be986941bacdccd541d6,0.0446,0.0446,0,22,22,11,1,twofour,,,,,,,,,,,,,,,,,,,,,,,,,,,,,,,,,,,,,,,,,,,,,,,,,,,,,,,,,,,,,,,,,,,,,,,,,,,,,,,,,,,,,,,,,,,,,,,,,,,,,,,,,,,,,,,,,,,,,,,,,,,,,,,,,,,,,,,,,
,,5d4dddbd3f4ed60001300679,2024-02-21_22h25.48.162,kallum_motion_pilot,2023.2.2,MacIntel,59.52380952,5d4dddbd3f4ed60001300679,65d6bb0e977760de756971f7,65d6be986941bacdccd541d6,0.0447,0.0447,0,23,23,109,1,seveneight,,,,,,,,,,,,,,,,,,,,,,,,,,,,,,,,,,,,,,,,,,,,,,,,,,,,,,,,,,,,,,,,,,,,,,,,,,,,,,,,,,,,,,,,,,,,,,,,,,,,,,,,,,,,,,,,,,,,,,,,,,,,,,,,,,,,,,,,,
,,5d4dddbd3f4ed60001300679,2024-02-21_22h25.48.162,kallum_motion_pilot,2023.2.2,MacIntel,59.52380952,5d4dddbd3f4ed60001300679,65d6bb0e977760de756971f7,65d6be986941bacdccd541d6,0.0449,0.0449,0,24,24,160,1,fivesix,,,,,,,,,,,,,,,,,,,,,,,,,,,,,,,,,,,,,,,,,,,,,,,,,,,,,,,,,,,,,,,,,,,,,,,,,,,,,,,,,,,,,,,,,,,,,,,,,,,,,,,,,,,,,,,,,,,,,,,,,,,,,,,,,,,,,,,,,
,,5d4dddbd3f4ed60001300679,2024-02-21_22h25.48.162,kallum_motion_pilot,2023.2.2,MacIntel,59.52380952,5d4dddbd3f4ed60001300679,65d6bb0e977760de756971f7,65d6be986941bacdccd541d6,0.045,0.045,0,25,25,156,1,sevenfive,,,,,,,,,,,,,,,,,,,,,,,,,,,,,,,,,,,,,,,,,,,,,,,,,,,,,,,,,,,,,,,,,,,,,,,,,,,,,,,,,,,,,,,,,,,,,,,,,,,,,,,,,,,,,,,,,,,,,,,,,,,,,,,,,,,,,,,,,
,,5d4dddbd3f4ed60001300679,2024-02-21_22h25.48.162,kallum_motion_pilot,2023.2.2,MacIntel,59.52380952,5d4dddbd3f4ed60001300679,65d6bb0e977760de756971f7,65d6be986941bacdccd541d6,0.0454,0.0454,0,26,26,143,1,eightseven,,,,,,,,,,,,,,,,,,,,,,,,,,,,,,,,,,,,,,,,,,,,,,,,,,,,,,,,,,,,,,,,,,,,,,,,,,,,,,,,,,,,,,,,,,,,,,,,,,,,,,,,,,,,,,,,,,,,,,,,,,,,,,,,,,,,,,,,,
,,5d4dddbd3f4ed60001300679,2024-02-21_22h25.48.162,kallum_motion_pilot,2023.2.2,MacIntel,59.52380952,5d4dddbd3f4ed60001300679,65d6bb0e977760de756971f7,65d6be986941bacdccd541d6,0.0456,0.0456,0,27,27,112,1,fivesix,,,,,,,,,,,,,,,,,,,,,,,,,,,,,,,,,,,,,,,,,,,,,,,,,,,,,,,,,,,,,,,,,,,,,,,,,,,,,,,,,,,,,,,,,,,,,,,,,,,,,,,,,,,,,,,,,,,,,,,,,,,,,,,,,,,,,,,,,
,,5d4dddbd3f4ed60001300679,2024-02-21_22h25.48.162,kallum_motion_pilot,2023.2.2,MacIntel,59.52380952,5d4dddbd3f4ed60001300679,65d6bb0e977760de756971f7,65d6be986941bacdccd541d6,0.0458,0.0459,0,28,28,52,1,threeone,,,,,,,,,,,,,,,,,,,,,,,,,,,,,,,,,,,,,,,,,,,,,,,,,,,,,,,,,,,,,,,,,,,,,,,,,,,,,,,,,,,,,,,,,,,,,,,,,,,,,,,,,,,,,,,,,,,,,,,,,,,,,,,,,,,,,,,,,
,,5d4dddbd3f4ed60001300679,2024-02-21_22h25.48.162,kallum_motion_pilot,2023.2.2,MacIntel,59.52380952,5d4dddbd3f4ed60001300679,65d6bb0e977760de756971f7,65d6be986941bacdccd541d6,0.0462,0.0462,0,29,29,101,1,seveneight,,,,,,,,,,,,,,,,,,,,,,,,,,,,,,,,,,,,,,,,,,,,,,,,,,,,,,,,,,,,,,,,,,,,,,,,,,,,,,,,,,,,,,,,,,,,,,,,,,,,,,,,,,,,,,,,,,,,,,,,,,,,,,,,,,,,,,,,,
,,5d4dddbd3f4ed60001300679,2024-02-21_22h25.48.162,kallum_motion_pilot,2023.2.2,MacIntel,59.52380952,5d4dddbd3f4ed60001300679,65d6bb0e977760de756971f7,65d6be986941bacdccd541d6,0.0464,0.0464,0,30,30,155,1,sixeight,,,,,,,,,,,,,,,,,,,,,,,,,,,,,,,,,,,,,,,,,,,,,,,,,,,,,,,,,,,,,,,,,,,,,,,,,,,,,,,,,,,,,,,,,,,,,,,,,,,,,,,,,,,,,,,,,,,,,,,,,,,,,,,,,,,,,,,,,
,,5d4dddbd3f4ed60001300679,2024-02-21_22h25.48.162,kallum_motion_pilot,2023.2.2,MacIntel,59.52380952,5d4dddbd3f4ed60001300679,65d6bb0e977760de756971f7,65d6be986941bacdccd541d6,0.0465,0.0466,0,31,31,54,1,fourtwo,,,,,,,,,,,,,,,,,,,,,,,,,,,,,,,,,,,,,,,,,,,,,,,,,,,,,,,,,,,,,,,,,,,,,,,,,,,,,,,,,,,,,,,,,,,,,,,,,,,,,,,,,,,,,,,,,,,,,,,,,,,,,,,,,,,,,,,,,
,,5d4dddbd3f4ed60001300679,2024-02-21_22h25.48.162,kallum_motion_pilot,2023.2.2,MacIntel,59.52380952,5d4dddbd3f4ed60001300679,65d6bb0e977760de756971f7,65d6be986941bacdccd541d6,0.047,0.047,0,32,32,96,1,fivesix,,,,,,,,,,,,,,,,,,,,,,,,,,,,,,,,,,,,,,,,,,,,,,,,,,,,,,,,,,,,,,,,,,,,,,,,,,,,,,,,,,,,,,,,,,,,,,,,,,,,,,,,,,,,,,,,,,,,,,,,,,,,,,,,,,,,,,,,,
,,5d4dddbd3f4ed60001300679,2024-02-21_22h25.48.162,kallum_motion_pilot,2023.2.2,MacIntel,59.52380952,5d4dddbd3f4ed60001300679,65d6bb0e977760de756971f7,65d6be986941bacdccd541d6,0.0472,0.0472,0,33,33,35,1,twofour,,,,,,,,,,,,,,,,,,,,,,,,,,,,,,,,,,,,,,,,,,,,,,,,,,,,,,,,,,,,,,,,,,,,,,,,,,,,,,,,,,,,,,,,,,,,,,,,,,,,,,,,,,,,,,,,,,,,,,,,,,,,,,,,,,,,,,,,,
,,5d4dddbd3f4ed60001300679,2024-02-21_22h25.48.162,kallum_motion_pilot,2023.2.2,MacIntel,59.52380952,5d4dddbd3f4ed60001300679,65d6bb0e977760de756971f7,65d6be986941bacdccd541d6,0.0473,0.0473,0,34,34,141,1,seveneight,,,,,,,,,,,,,,,,,,,,,,,,,,,,,,,,,,,,,,,,,,,,,,,,,,,,,,,,,,,,,,,,,,,,,,,,,,,,,,,,,,,,,,,,,,,,,,,,,,,,,,,,,,,,,,,,,,,,,,,,,,,,,,,,,,,,,,,,,
,,5d4dddbd3f4ed60001300679,2024-02-21_22h25.48.162,kallum_motion_pilot,2023.2.2,MacIntel,59.52380952,5d4dddbd3f4ed60001300679,65d6bb0e977760de756971f7,65d6be986941bacdccd541d6,0.0475,0.0475,0,35,35,50,1,twoone,,,,,,,,,,,,,,,,,,,,,,,,,,,,,,,,,,,,,,,,,,,,,,,,,,,,,,,,,,,,,,,,,,,,,,,,,,,,,,,,,,,,,,,,,,,,,,,,,,,,,,,,,,,,,,,,,,,,,,,,,,,,,,,,,,,,,,,,,
,,5d4dddbd3f4ed60001300679,2024-02-21_22h25.48.162,kallum_motion_pilot,2023.2.2,MacIntel,59.52380952,5d4dddbd3f4ed60001300679,65d6bb0e977760de756971f7,65d6be986941bacdccd541d6,0.0476,0.0476,0,36,36,20,1,threeone,,,,,,,,,,,,,,,,,,,,,,,,,,,,,,,,,,,,,,,,,,,,,,,,,,,,,,,,,,,,,,,,,,,,,,,,,,,,,,,,,,,,,,,,,,,,,,,,,,,,,,,,,,,,,,,,,,,,,,,,,,,,,,,,,,,,,,,,,
,,5d4dddbd3f4ed60001300679,2024-02-21_22h25.48.162,kallum_motion_pilot,2023.2.2,MacIntel,59.52380952,5d4dddbd3f4ed60001300679,65d6bb0e977760de756971f7,65d6be986941bacdccd541d6,0.0477,0.0478,0,37,37,119,1,eightseven,,,,,,,,,,,,,,,,,,,,,,,,,,,,,,,,,,,,,,,,,,,,,,,,,,,,,,,,,,,,,,,,,,,,,,,,,,,,,,,,,,,,,,,,,,,,,,,,,,,,,,,,,,,,,,,,,,,,,,,,,,,,,,,,,,,,,,,,,
,,5d4dddbd3f4ed60001300679,2024-02-21_22h25.48.162,kallum_motion_pilot,2023.2.2,MacIntel,59.52380952,5d4dddbd3f4ed60001300679,65d6bb0e977760de756971f7,65d6be986941bacdccd541d6,0.0479,0.0479,0,38,38,121,1,fiveseven,,,,,,,,,,,,,,,,,,,,,,,,,,,,,,,,,,,,,,,,,,,,,,,,,,,,,,,,,,,,,,,,,,,,,,,,,,,,,,,,,,,,,,,,,,,,,,,,,,,,,,,,,,,,,,,,,,,,,,,,,,,,,,,,,,,,,,,,,
,,5d4dddbd3f4ed60001300679,2024-02-21_22h25.48.162,kallum_motion_pilot,2023.2.2,MacIntel,59.52380952,5d4dddbd3f4ed60001300679,65d6bb0e977760de756971f7,65d6be986941bacdccd541d6,0.048,0.0481,0,39,39,159,1,eightseven,,,,,,,,,,,,,,,,,,,,,,,,,,,,,,,,,,,,,,,,,,,,,,,,,,,,,,,,,,,,,,,,,,,,,,,,,,,,,,,,,,,,,,,,,,,,,,,,,,,,,,,,,,,,,,,,,,,,,,,,,,,,,,,,,,,,,,,,,
,,5d4dddbd3f4ed60001300679,2024-02-21_22h25.48.162,kallum_motion_pilot,2023.2.2,MacIntel,59.52380952,5d4dddbd3f4ed60001300679,65d6bb0e977760de756971f7,65d6be986941bacdccd541d6,0.0482,0.0482,0,40,40,29,1,threefour,,,,,,,,,,,,,,,,,,,,,,,,,,,,,,,,,,,,,,,,,,,,,,,,,,,,,,,,,,,,,,,,,,,,,,,,,,,,,,,,,,,,,,,,,,,,,,,,,,,,,,,,,,,,,,,,,,,,,,,,,,,,,,,,,,,,,,,,,
,,5d4dddbd3f4ed60001300679,2024-02-21_22h25.48.162,kallum_motion_pilot,2023.2.2,MacIntel,59.52380952,5d4dddbd3f4ed60001300679,65d6bb0e977760de756971f7,65d6be986941bacdccd541d6,0.0484,0.0485,0,41,41,10,1,twoone,,,,,,,,,,,,,,,,,,,,,,,,,,,,,,,,,,,,,,,,,,,,,,,,,,,,,,,,,,,,,,,,,,,,,,,,,,,,,,,,,,,,,,,,,,,,,,,,,,,,,,,,,,,,,,,,,,,,,,,,,,,,,,,,,,,,,,,,,
,,5d4dddbd3f4ed60001300679,2024-02-21_22h25.48.162,kallum_motion_pilot,2023.2.2,MacIntel,59.52380952,5d4dddbd3f4ed60001300679,65d6bb0e977760de756971f7,65d6be986941bacdccd541d6,0.0486,0.0486,0,42,42,27,1,twofour,,,,,,,,,,,,,,,,,,,,,,,,,,,,,,,,,,,,,,,,,,,,,,,,,,,,,,,,,,,,,,,,,,,,,,,,,,,,,,,,,,,,,,,,,,,,,,,,,,,,,,,,,,,,,,,,,,,,,,,,,,,,,,,,,,,,,,,,,
,,5d4dddbd3f4ed60001300679,2024-02-21_22h25.48.162,kallum_motion_pilot,2023.2.2,MacIntel,59.52380952,5d4dddbd3f4ed60001300679,65d6bb0e977760de756971f7,65d6be986941bacdccd541d6,0.049,0.049,0,43,43,135,1,eightseven,,,,,,,,,,,,,,,,,,,,,,,,,,,,,,,,,,,,,,,,,,,,,,,,,,,,,,,,,,,,,,,,,,,,,,,,,,,,,,,,,,,,,,,,,,,,,,,,,,,,,,,,,,,,,,,,,,,,,,,,,,,,,,,,,,,,,,,,,
,,5d4dddbd3f4ed60001300679,2024-02-21_22h25.48.162,kallum_motion_pilot,2023.2.2,MacIntel,59.52380952,5d4dddbd3f4ed60001300679,65d6bb0e977760de756971f7,65d6be986941bacdccd541d6,0.0491,0.0492,0,44,44,12,1,threeone,,,,,,,,,,,,,,,,,,,,,,,,,,,,,,,,,,,,,,,,,,,,,,,,,,,,,,,,,,,,,,,,,,,,,,,,,,,,,,,,,,,,,,,,,,,,,,,,,,,,,,,,,,,,,,,,,,,,,,,,,,,,,,,,,,,,,,,,,
,,5d4dddbd3f4ed60001300679,2024-02-21_22h25.48.162,kallum_motion_pilot,2023.2.2,MacIntel,59.52380952,5d4dddbd3f4ed60001300679,65d6bb0e977760de756971f7,65d6be986941bacdccd541d6,0.0503,0.0503,0,45,45,144,1,fivesix,,,,,,,,,,,,,,,,,,,,,,,,,,,,,,,,,,,,,,,,,,,,,,,,,,,,,,,,,,,,,,,,,,,,,,,,,,,,,,,,,,,,,,,,,,,,,,,,,,,,,,,,,,,,,,,,,,,,,,,,,,,,,,,,,,,,,,,,,
,,5d4dddbd3f4ed60001300679,2024-02-21_22h25.48.162,kallum_motion_pilot,2023.2.2,MacIntel,59.52380952,5d4dddbd3f4ed60001300679,65d6bb0e977760de756971f7,65d6be986941bacdccd541d6,0.0508,0.0509,0,46,46,126,1,eightsix,,,,,,,,,,,,,,,,,,,,,,,,,,,,,,,,,,,,,,,,,,,,,,,,,,,,,,,,,,,,,,,,,,,,,,,,,,,,,,,,,,,,,,,,,,,,,,,,,,,,,,,,,,,,,,,,,,,,,,,,,,,,,,,,,,,,,,,,,
,,5d4dddbd3f4ed60001300679,2024-02-21_22h25.48.162,kallum_motion_pilot,2023.2.2,MacIntel,59.52380952,5d4dddbd3f4ed60001300679,65d6bb0e977760de756971f7,65d6be986941bacdccd541d6,0.0513,0.0514,0,47,47,56,1,onetwo,,,,,,,,,,,,,,,,,,,,,,,,,,,,,,,,,,,,,,,,,,,,,,,,,,,,,,,,,,,,,,,,,,,,,,,,,,,,,,,,,,,,,,,,,,,,,,,,,,,,,,,,,,,,,,,,,,,,,,,,,,,,,,,,,,,,,,,,,
,,5d4dddbd3f4ed60001300679,2024-02-21_22h25.48.162,kallum_motion_pilot,2023.2.2,MacIntel,59.52380952,5d4dddbd3f4ed60001300679,65d6bb0e977760de756971f7,65d6be986941bacdccd541d6,0.0519,0.052,0,48,48,136,1,fivesix,,,,,,,,,,,,,,,,,,,,,,,,,,,,,,,,,,,,,,,,,,,,,,,,,,,,,,,,,,,,,,,,,,,,,,,,,,,,,,,,,,,,,,,,,,,,,,,,,,,,,,,,,,,,,,,,,,,,,,,,,,,,,,,,,,,,,,,,,
,,5d4dddbd3f4ed60001300679,2024-02-21_22h25.48.162,kallum_motion_pilot,2023.2.2,MacIntel,59.52380952,5d4dddbd3f4ed60001300679,65d6bb0e977760de756971f7,65d6be986941bacdccd541d6,0.0521,0.0522,0,49,49,18,1,twoone,,,,,,,,,,,,,,,,,,,,,,,,,,,,,,,,,,,,,,,,,,,,,,,,,,,,,,,,,,,,,,,,,,,,,,,,,,,,,,,,,,,,,,,,,,,,,,,,,,,,,,,,,,,,,,,,,,,,,,,,,,,,,,,,,,,,,,,,,
,,5d4dddbd3f4ed60001300679,2024-02-21_22h25.48.162,kallum_motion_pilot,2023.2.2,MacIntel,59.52380952,5d4dddbd3f4ed60001300679,65d6bb0e977760de756971f7,65d6be986941bacdccd541d6,0.0524,0.0524,0,50,50,39,1,fourthree,,,,,,,,,,,,,,,,,,,,,,,,,,,,,,,,,,,,,,,,,,,,,,,,,,,,,,,,,,,,,,,,,,,,,,,,,,,,,,,,,,,,,,,,,,,,,,,,,,,,,,,,,,,,,,,,,,,,,,,,,,,,,,,,,,,,,,,,,
,,5d4dddbd3f4ed60001300679,2024-02-21_22h25.48.162,kallum_motion_pilot,2023.2.2,MacIntel,59.52380952,5d4dddbd3f4ed60001300679,65d6bb0e977760de756971f7,65d6be986941bacdccd541d6,0.0526,0.0527,0,51,51,117,1,seveneight,,,,,,,,,,,,,,,,,,,,,,,,,,,,,,,,,,,,,,,,,,,,,,,,,,,,,,,,,,,,,,,,,,,,,,,,,,,,,,,,,,,,,,,,,,,,,,,,,,,,,,,,,,,,,,,,,,,,,,,,,,,,,,,,,,,,,,,,,
,,5d4dddbd3f4ed60001300679,2024-02-21_22h25.48.162,kallum_motion_pilot,2023.2.2,MacIntel,59.52380952,5d4dddbd3f4ed60001300679,65d6bb0e977760de756971f7,65d6be986941bacdccd541d6,0.0528,0.0528,0,52,52,58,1,twoone,,,,,,,,,,,,,,,,,,,,,,,,,,,,,,,,,,,,,,,,,,,,,,,,,,,,,,,,,,,,,,,,,,,,,,,,,,,,,,,,,,,,,,,,,,,,,,,,,,,,,,,,,,,,,,,,,,,,,,,,,,,,,,,,,,,,,,,,,
,,5d4dddbd3f4ed60001300679,2024-02-21_22h25.48.162,kallum_motion_pilot,2023.2.2,MacIntel,59.52380952,5d4dddbd3f4ed60001300679,65d6bb0e977760de756971f7,65d6be986941bacdccd541d6,0.0563,0.0563,0,53,53,132,1,sevenfive,,,,,,,,,,,,,,,,,,,,,,,,,,,,,,,,,,,,,,,,,,,,,,,,,,,,,,,,,,,,,,,,,,,,,,,,,,,,,,,,,,,,,,,,,,,,,,,,,,,,,,,,,,,,,,,,,,,,,,,,,,,,,,,,,,,,,,,,,
,,5d4dddbd3f4ed60001300679,2024-02-21_22h25.48.162,kallum_motion_pilot,2023.2.2,MacIntel,59.52380952,5d4dddbd3f4ed60001300679,65d6bb0e977760de756971f7,65d6be986941bacdccd541d6,0.0565,0.0566,0,54,54,13,1,threefour,,,,,,,,,,,,,,,,,,,,,,,,,,,,,,,,,,,,,,,,,,,,,,,,,,,,,,,,,,,,,,,,,,,,,,,,,,,,,,,,,,,,,,,,,,,,,,,,,,,,,,,,,,,,,,,,,,,,,,,,,,,,,,,,,,,,,,,,,
,,5d4dddbd3f4ed60001300679,2024-02-21_22h25.48.162,kallum_motion_pilot,2023.2.2,MacIntel,59.52380952,5d4dddbd3f4ed60001300679,65d6bb0e977760de756971f7,65d6be986941bacdccd541d6,0.0567,0.0568,0,55,55,84,1,sevenfive,,,,,,,,,,,,,,,,,,,,,,,,,,,,,,,,,,,,,,,,,,,,,,,,,,,,,,,,,,,,,,,,,,,,,,,,,,,,,,,,,,,,,,,,,,,,,,,,,,,,,,,,,,,,,,,,,,,,,,,,,,,,,,,,,,,,,,,,,
,,5d4dddbd3f4ed60001300679,2024-02-21_22h25.48.162,kallum_motion_pilot,2023.2.2,MacIntel,59.52380952,5d4dddbd3f4ed60001300679,65d6bb0e977760de756971f7,65d6be986941bacdccd541d6,0.0569,0.0569,0,56,56,148,1,sevenfive,,,,,,,,,,,,,,,,,,,,,,,,,,,,,,,,,,,,,,,,,,,,,,,,,,,,,,,,,,,,,,,,,,,,,,,,,,,,,,,,,,,,,,,,,,,,,,,,,,,,,,,,,,,,,,,,,,,,,,,,,,,,,,,,,,,,,,,,,
,,5d4dddbd3f4ed60001300679,2024-02-21_22h25.48.162,kallum_motion_pilot,2023.2.2,MacIntel,59.52380952,5d4dddbd3f4ed60001300679,65d6bb0e977760de756971f7,65d6be986941bacdccd541d6,0.057,0.0571,0,57,57,145,1,fiveseven,,,,,,,,,,,,,,,,,,,,,,,,,,,,,,,,,,,,,,,,,,,,,,,,,,,,,,,,,,,,,,,,,,,,,,,,,,,,,,,,,,,,,,,,,,,,,,,,,,,,,,,,,,,,,,,,,,,,,,,,,,,,,,,,,,,,,,,,,
,,5d4dddbd3f4ed60001300679,2024-02-21_22h25.48.162,kallum_motion_pilot,2023.2.2,MacIntel,59.52380952,5d4dddbd3f4ed60001300679,65d6bb0e977760de756971f7,65d6be986941bacdccd541d6,0.0575,0.0575,0,58,58,146,1,sixfive,,,,,,,,,,,,,,,,,,,,,,,,,,,,,,,,,,,,,,,,,,,,,,,,,,,,,,,,,,,,,,,,,,,,,,,,,,,,,,,,,,,,,,,,,,,,,,,,,,,,,,,,,,,,,,,,,,,,,,,,,,,,,,,,,,,,,,,,,
,,5d4dddbd3f4ed60001300679,2024-02-21_22h25.48.162,kallum_motion_pilot,2023.2.2,MacIntel,59.52380952,5d4dddbd3f4ed60001300679,65d6bb0e977760de756971f7,65d6be986941bacdccd541d6,0.0577,0.0578,0,59,59,80,1,fivesix,,,,,,,,,,,,,,,,,,,,,,,,,,,,,,,,,,,,,,,,,,,,,,,,,,,,,,,,,,,,,,,,,,,,,,,,,,,,,,,,,,,,,,,,,,,,,,,,,,,,,,,,,,,,,,,,,,,,,,,,,,,,,,,,,,,,,,,,,
,,5d4dddbd3f4ed60001300679,2024-02-21_22h25.48.162,kallum_motion_pilot,2023.2.2,MacIntel,59.52380952,5d4dddbd3f4ed60001300679,65d6bb0e977760de756971f7,65d6be986941bacdccd541d6,0.0579,0.058,0,60,60,108,1,sevenfive,,,,,,,,,,,,,,,,,,,,,,,,,,,,,,,,,,,,,,,,,,,,,,,,,,,,,,,,,,,,,,,,,,,,,,,,,,,,,,,,,,,,,,,,,,,,,,,,,,,,,,,,,,,,,,,,,,,,,,,,,,,,,,,,,,,,,,,,,
,,5d4dddbd3f4ed60001300679,2024-02-21_22h25.48.162,kallum_motion_pilot,2023.2.2,MacIntel,59.52380952,5d4dddbd3f4ed60001300679,65d6bb0e977760de756971f7,65d6be986941bacdccd541d6,0.058,0.0582,0,61,61,14,1,fourtwo,,,,,,,,,,,,,,,,,,,,,,,,,,,,,,,,,,,,,,,,,,,,,,,,,,,,,,,,,,,,,,,,,,,,,,,,,,,,,,,,,,,,,,,,,,,,,,,,,,,,,,,,,,,,,,,,,,,,,,,,,,,,,,,,,,,,,,,,,
,,5d4dddbd3f4ed60001300679,2024-02-21_22h25.48.162,kallum_motion_pilot,2023.2.2,MacIntel,59.52380952,5d4dddbd3f4ed60001300679,65d6bb0e977760de756971f7,65d6be986941bacdccd541d6,0.0582,0.0582,0,62,62,48,1,onetwo,,,,,,,,,,,,,,,,,,,,,,,,,,,,,,,,,,,,,,,,,,,,,,,,,,,,,,,,,,,,,,,,,,,,,,,,,,,,,,,,,,,,,,,,,,,,,,,,,,,,,,,,,,,,,,,,,,,,,,,,,,,,,,,,,,,,,,,,,
,,5d4dddbd3f4ed60001300679,2024-02-21_22h25.48.162,kallum_motion_pilot,2023.2.2,MacIntel,59.52380952,5d4dddbd3f4ed60001300679,65d6bb0e977760de756971f7,65d6be986941bacdccd541d6,0.0585,0.0585,0,63,63,116,1,sevenfive,,,,,,,,,,,,,,,,,,,,,,,,,,,,,,,,,,,,,,,,,,,,,,,,,,,,,,,,,,,,,,,,,,,,,,,,,,,,,,,,,,,,,,,,,,,,,,,,,,,,,,,,,,,,,,,,,,,,,,,,,,,,,,,,,,,,,,,,,
,,5d4dddbd3f4ed60001300679,2024-02-21_22h25.48.162,kallum_motion_pilot,2023.2.2,MacIntel,59.52380952,5d4dddbd3f4ed60001300679,65d6bb0e977760de756971f7,65d6be986941bacdccd541d6,0.0593,0.0593,0,64,64,17,1,onethree,,,,,,,,,,,,,,,,,,,,,,,,,,,,,,,,,,,,,,,,,,,,,,,,,,,,,,,,,,,,,,,,,,,,,,,,,,,,,,,,,,,,,,,,,,,,,,,,,,,,,,,,,,,,,,,,,,,,,,,,,,,,,,,,,,,,,,,,,
,,5d4dddbd3f4ed60001300679,2024-02-21_22h25.48.162,kallum_motion_pilot,2023.2.2,MacIntel,59.52380952,5d4dddbd3f4ed60001300679,65d6bb0e977760de756971f7,65d6be986941bacdccd541d6,0.0594,0.0595,0,65,65,57,1,onethree,,,,,,,,,,,,,,,,,,,,,,,,,,,,,,,,,,,,,,,,,,,,,,,,,,,,,,,,,,,,,,,,,,,,,,,,,,,,,,,,,,,,,,,,,,,,,,,,,,,,,,,,,,,,,,,,,,,,,,,,,,,,,,,,,,,,,,,,,
,,5d4dddbd3f4ed60001300679,2024-02-21_22h25.48.162,kallum_motion_pilot,2023.2.2,MacIntel,59.52380952,5d4dddbd3f4ed60001300679,65d6bb0e977760de756971f7,65d6be986941bacdccd541d6,0.0595,0.0597,0,66,66,154,1,sixfive,,,,,,,,,,,,,,,,,,,,,,,,,,,,,,,,,,,,,,,,,,,,,,,,,,,,,,,,,,,,,,,,,,,,,,,,,,,,,,,,,,,,,,,,,,,,,,,,,,,,,,,,,,,,,,,,,,,,,,,,,,,,,,,,,,,,,,,,,
,,5d4dddbd3f4ed60001300679,2024-02-21_22h25.48.162,kallum_motion_pilot,2023.2.2,MacIntel,59.52380952,5d4dddbd3f4ed60001300679,65d6bb0e977760de756971f7,65d6be986941bacdccd541d6,0.0598,0.0598,0,67,67,8,1,onetwo,,,,,,,,,,,,,,,,,,,,,,,,,,,,,,,,,,,,,,,,,,,,,,,,,,,,,,,,,,,,,,,,,,,,,,,,,,,,,,,,,,,,,,,,,,,,,,,,,,,,,,,,,,,,,,,,,,,,,,,,,,,,,,,,,,,,,,,,,
,,5d4dddbd3f4ed60001300679,2024-02-21_22h25.48.162,kallum_motion_pilot,2023.2.2,MacIntel,59.52380952,5d4dddbd3f4ed60001300679,65d6bb0e977760de756971f7,65d6be986941bacdccd541d6,0.0601,0.0602,0,68,68,16,1,onetwo,,,,,,,,,,,,,,,,,,,,,,,,,,,,,,,,,,,,,,,,,,,,,,,,,,,,,,,,,,,,,,,,,,,,,,,,,,,,,,,,,,,,,,,,,,,,,,,,,,,,,,,,,,,,,,,,,,,,,,,,,,,,,,,,,,,,,,,,,
,,5d4dddbd3f4ed60001300679,2024-02-21_22h25.48.162,kallum_motion_pilot,2023.2.2,MacIntel,59.52380952,5d4dddbd3f4ed60001300679,65d6bb0e977760de756971f7,65d6be986941bacdccd541d6,0.0603,0.0604,0,69,69,86,1,eightsix,,,,,,,,,,,,,,,,,,,,,,,,,,,,,,,,,,,,,,,,,,,,,,,,,,,,,,,,,,,,,,,,,,,,,,,,,,,,,,,,,,,,,,,,,,,,,,,,,,,,,,,,,,,,,,,,,,,,,,,,,,,,,,,,,,,,,,,,,
,,5d4dddbd3f4ed60001300679,2024-02-21_22h25.48.162,kallum_motion_pilot,2023.2.2,MacIntel,59.52380952,5d4dddbd3f4ed60001300679,65d6bb0e977760de756971f7,65d6be986941bacdccd541d6,0.0605,0.0605,0,70,70,62,1,fourtwo,,,,,,,,,,,,,,,,,,,,,,,,,,,,,,,,,,,,,,,,,,,,,,,,,,,,,,,,,,,,,,,,,,,,,,,,,,,,,,,,,,,,,,,,,,,,,,,,,,,,,,,,,,,,,,,,,,,,,,,,,,,,,,,,,,,,,,,,,
,,5d4dddbd3f4ed60001300679,2024-02-21_22h25.48.162,kallum_motion_pilot,2023.2.2,MacIntel,59.52380952,5d4dddbd3f4ed60001300679,65d6bb0e977760de756971f7,65d6be986941bacdccd541d6,0.0609,0.0609,0,71,71,36,1,threeone,,,,,,,,,,,,,,,,,,,,,,,,,,,,,,,,,,,,,,,,,,,,,,,,,,,,,,,,,,,,,,,,,,,,,,,,,,,,,,,,,,,,,,,,,,,,,,,,,,,,,,,,,,,,,,,,,,,,,,,,,,,,,,,,,,,,,,,,,
,,5d4dddbd3f4ed60001300679,2024-02-21_22h25.48.162,kallum_motion_pilot,2023.2.2,MacIntel,59.52380952,5d4dddbd3f4ed60001300679,65d6bb0e977760de756971f7,65d6be986941bacdccd541d6,0.061,0.0612,0,72,72,131,1,sixeight,,,,,,,,,,,,,,,,,,,,,,,,,,,,,,,,,,,,,,,,,,,,,,,,,,,,,,,,,,,,,,,,,,,,,,,,,,,,,,,,,,,,,,,,,,,,,,,,,,,,,,,,,,,,,,,,,,,,,,,,,,,,,,,,,,,,,,,,,
,,5d4dddbd3f4ed60001300679,2024-02-21_22h25.48.162,kallum_motion_pilot,2023.2.2,MacIntel,59.52380952,5d4dddbd3f4ed60001300679,65d6bb0e977760de756971f7,65d6be986941bacdccd541d6,0.0613,0.0614,0,73,73,158,1,eightsix,,,,,,,,,,,,,,,,,,,,,,,,,,,,,,,,,,,,,,,,,,,,,,,,,,,,,,,,,,,,,,,,,,,,,,,,,,,,,,,,,,,,,,,,,,,,,,,,,,,,,,,,,,,,,,,,,,,,,,,,,,,,,,,,,,,,,,,,,
,,5d4dddbd3f4ed60001300679,2024-02-21_22h25.48.162,kallum_motion_pilot,2023.2.2,MacIntel,59.52380952,5d4dddbd3f4ed60001300679,65d6bb0e977760de756971f7,65d6be986941bacdccd541d6,0.0614,0.0615,0,74,74,157,1,seveneight,,,,,,,,,,,,,,,,,,,,,,,,,,,,,,,,,,,,,,,,,,,,,,,,,,,,,,,,,,,,,,,,,,,,,,,,,,,,,,,,,,,,,,,,,,,,,,,,,,,,,,,,,,,,,,,,,,,,,,,,,,,,,,,,,,,,,,,,,
,,5d4dddbd3f4ed60001300679,2024-02-21_22h25.48.162,kallum_motion_pilot,2023.2.2,MacIntel,59.52380952,5d4dddbd3f4ed60001300679,65d6bb0e977760de756971f7,65d6be986941bacdccd541d6,0.0616,0.0616,0,75,75,99,1,sixeight,,,,,,,,,,,,,,,,,,,,,,,,,,,,,,,,,,,,,,,,,,,,,,,,,,,,,,,,,,,,,,,,,,,,,,,,,,,,,,,,,,,,,,,,,,,,,,,,,,,,,,,,,,,,,,,,,,,,,,,,,,,,,,,,,,,,,,,,,
,,5d4dddbd3f4ed60001300679,2024-02-21_22h25.48.162,kallum_motion_pilot,2023.2.2,MacIntel,59.52380952,5d4dddbd3f4ed60001300679,65d6bb0e977760de756971f7,65d6be986941bacdccd541d6,0.0618,0.0618,0,76,76,94,1,eightsix,,,,,,,,,,,,,,,,,,,,,,,,,,,,,,,,,,,,,,,,,,,,,,,,,,,,,,,,,,,,,,,,,,,,,,,,,,,,,,,,,,,,,,,,,,,,,,,,,,,,,,,,,,,,,,,,,,,,,,,,,,,,,,,,,,,,,,,,,
,,5d4dddbd3f4ed60001300679,2024-02-21_22h25.48.162,kallum_motion_pilot,2023.2.2,MacIntel,59.52380952,5d4dddbd3f4ed60001300679,65d6bb0e977760de756971f7,65d6be986941bacdccd541d6,0.062,0.062,0,77,77,78,1,fourtwo,,,,,,,,,,,,,,,,,,,,,,,,,,,,,,,,,,,,,,,,,,,,,,,,,,,,,,,,,,,,,,,,,,,,,,,,,,,,,,,,,,,,,,,,,,,,,,,,,,,,,,,,,,,,,,,,,,,,,,,,,,,,,,,,,,,,,,,,,
,,5d4dddbd3f4ed60001300679,2024-02-21_22h25.48.162,kallum_motion_pilot,2023.2.2,MacIntel,59.52380952,5d4dddbd3f4ed60001300679,65d6bb0e977760de756971f7,65d6be986941bacdccd541d6,0.062,0.0621,0,78,78,49,1,onethree,,,,,,,,,,,,,,,,,,,,,,,,,,,,,,,,,,,,,,,,,,,,,,,,,,,,,,,,,,,,,,,,,,,,,,,,,,,,,,,,,,,,,,,,,,,,,,,,,,,,,,,,,,,,,,,,,,,,,,,,,,,,,,,,,,,,,,,,,
,,5d4dddbd3f4ed60001300679,2024-02-21_22h25.48.162,kallum_motion_pilot,2023.2.2,MacIntel,59.52380952,5d4dddbd3f4ed60001300679,65d6bb0e977760de756971f7,65d6be986941bacdccd541d6,0.0622,0.0622,0,79,79,1,1,onethree,,,,,,,,,,,,,,,,,,,,,,,,,,,,,,,,,,,,,,,,,,,,,,,,,,,,,,,,,,,,,,,,,,,,,,,,,,,,,,,,,,,,,,,,,,,,,,,,,,,,,,,,,,,,,,,,,,,,,,,,,,,,,,,,,,,,,,,,,
,,5d4dddbd3f4ed60001300679,2024-02-21_22h25.48.162,kallum_motion_pilot,2023.2.2,MacIntel,59.52380952,5d4dddbd3f4ed60001300679,65d6bb0e977760de756971f7,65d6be986941bacdccd541d6,0.0623,0.0625,0,80,80,140,1,sevenfive,,,,,,,,,,,,,,,,,,,,,,,,,,,,,,,,,,,,,,,,,,,,,,,,,,,,,,,,,,,,,,,,,,,,,,,,,,,,,,,,,,,,,,,,,,,,,,,,,,,,,,,,,,,,,,,,,,,,,,,,,,,,,,,,,,,,,,,,,
,,5d4dddbd3f4ed60001300679,2024-02-21_22h25.48.162,kallum_motion_pilot,2023.2.2,MacIntel,59.52380952,5d4dddbd3f4ed60001300679,65d6bb0e977760de756971f7,65d6be986941bacdccd541d6,0.0627,0.0628,0,81,81,4,1,threeone,,,,,,,,,,,,,,,,,,,,,,,,,,,,,,,,,,,,,,,,,,,,,,,,,,,,,,,,,,,,,,,,,,,,,,,,,,,,,,,,,,,,,,,,,,,,,,,,,,,,,,,,,,,,,,,,,,,,,,,,,,,,,,,,,,,,,,,,,
,,5d4dddbd3f4ed60001300679,2024-02-21_22h25.48.162,kallum_motion_pilot,2023.2.2,MacIntel,59.52380952,5d4dddbd3f4ed60001300679,65d6bb0e977760de756971f7,65d6be986941bacdccd541d6,0.0632,0.0632,0,82,82,53,1,threefour,,,,,,,,,,,,,,,,,,,,,,,,,,,,,,,,,,,,,,,,,,,,,,,,,,,,,,,,,,,,,,,,,,,,,,,,,,,,,,,,,,,,,,,,,,,,,,,,,,,,,,,,,,,,,,,,,,,,,,,,,,,,,,,,,,,,,,,,,
,,5d4dddbd3f4ed60001300679,2024-02-21_22h25.48.162,kallum_motion_pilot,2023.2.2,MacIntel,59.52380952,5d4dddbd3f4ed60001300679,65d6bb0e977760de756971f7,65d6be986941bacdccd541d6,0.0634,0.0636,0,83,83,87,1,eightseven,,,,,,,,,,,,,,,,,,,,,,,,,,,,,,,,,,,,,,,,,,,,,,,,,,,,,,,,,,,,,,,,,,,,,,,,,,,,,,,,,,,,,,,,,,,,,,,,,,,,,,,,,,,,,,,,,,,,,,,,,,,,,,,,,,,,,,,,,
,,5d4dddbd3f4ed60001300679,2024-02-21_22h25.48.162,kallum_motion_pilot,2023.2.2,MacIntel,59.52380952,5d4dddbd3f4ed60001300679,65d6bb0e977760de756971f7,65d6be986941bacdccd541d6,0.0637,0.0638,0,84,84,46,1,fourtwo,,,,,,,,,,,,,,,,,,,,,,,,,,,,,,,,,,,,,,,,,,,,,,,,,,,,,,,,,,,,,,,,,,,,,,,,,,,,,,,,,,,,,,,,,,,,,,,,,,,,,,,,,,,,,,,,,,,,,,,,,,,,,,,,,,,,,,,,,
,,5d4dddbd3f4ed60001300679,2024-02-21_22h25.48.162,kallum_motion_pilot,2023.2.2,MacIntel,59.52380952,5d4dddbd3f4ed60001300679,65d6bb0e977760de756971f7,65d6be986941bacdccd541d6,0.0639,0.0639,0,85,85,142,1,eightsix,,,,,,,,,,,,,,,,,,,,,,,,,,,,,,,,,,,,,,,,,,,,,,,,,,,,,,,,,,,,,,,,,,,,,,,,,,,,,,,,,,,,,,,,,,,,,,,,,,,,,,,,,,,,,,,,,,,,,,,,,,,,,,,,,,,,,,,,,
,,5d4dddbd3f4ed60001300679,2024-02-21_22h25.48.162,kallum_motion_pilot,2023.2.2,MacIntel,59.52380952,5d4dddbd3f4ed60001300679,65d6bb0e977760de756971f7,65d6be986941bacdccd541d6,0.0641,0.0641,0,86,86,6,1,fourtwo,,,,,,,,,,,,,,,,,,,,,,,,,,,,,,,,,,,,,,,,,,,,,,,,,,,,,,,,,,,,,,,,,,,,,,,,,,,,,,,,,,,,,,,,,,,,,,,,,,,,,,,,,,,,,,,,,,,,,,,,,,,,,,,,,,,,,,,,,
,,5d4dddbd3f4ed60001300679,2024-02-21_22h25.48.162,kallum_motion_pilot,2023.2.2,MacIntel,59.52380952,5d4dddbd3f4ed60001300679,65d6bb0e977760de756971f7,65d6be986941bacdccd541d6,0.0642,0.0643,0,87,87,105,1,fiveseven,,,,,,,,,,,,,,,,,,,,,,,,,,,,,,,,,,,,,,,,,,,,,,,,,,,,,,,,,,,,,,,,,,,,,,,,,,,,,,,,,,,,,,,,,,,,,,,,,,,,,,,,,,,,,,,,,,,,,,,,,,,,,,,,,,,,,,,,,
,,5d4dddbd3f4ed60001300679,2024-02-21_22h25.48.162,kallum_motion_pilot,2023.2.2,MacIntel,59.52380952,5d4dddbd3f4ed60001300679,65d6bb0e977760de756971f7,65d6be986941bacdccd541d6,0.0644,0.0646,0,88,88,33,1,onethree,,,,,,,,,,,,,,,,,,,,,,,,,,,,,,,,,,,,,,,,,,,,,,,,,,,,,,,,,,,,,,,,,,,,,,,,,,,,,,,,,,,,,,,,,,,,,,,,,,,,,,,,,,,,,,,,,,,,,,,,,,,,,,,,,,,,,,,,,
,,5d4dddbd3f4ed60001300679,2024-02-21_22h25.48.162,kallum_motion_pilot,2023.2.2,MacIntel,59.52380952,5d4dddbd3f4ed60001300679,65d6bb0e977760de756971f7,65d6be986941bacdccd541d6,0.0649,0.0649,0,89,89,70,1,fourtwo,,,,,,,,,,,,,,,,,,,,,,,,,,,,,,,,,,,,,,,,,,,,,,,,,,,,,,,,,,,,,,,,,,,,,,,,,,,,,,,,,,,,,,,,,,,,,,,,,,,,,,,,,,,,,,,,,,,,,,,,,,,,,,,,,,,,,,,,,
,,5d4dddbd3f4ed60001300679,2024-02-21_22h25.48.162,kallum_motion_pilot,2023.2.2,MacIntel,59.52380952,5d4dddbd3f4ed60001300679,65d6bb0e977760de756971f7,65d6be986941bacdccd541d6,0.0651,0.0651,0,90,90,47,1,fourthree,,,,,,,,,,,,,,,,,,,,,,,,,,,,,,,,,,,,,,,,,,,,,,,,,,,,,,,,,,,,,,,,,,,,,,,,,,,,,,,,,,,,,,,,,,,,,,,,,,,,,,,,,,,,,,,,,,,,,,,,,,,,,,,,,,,,,,,,,
,,5d4dddbd3f4ed60001300679,2024-02-21_22h25.48.162,kallum_motion_pilot,2023.2.2,MacIntel,59.52380952,5d4dddbd3f4ed60001300679,65d6bb0e977760de756971f7,65d6be986941bacdccd541d6,0.0652,0.0672,0,91,91,2,1,twoone,,,,,,,,,,,,,,,,,,,,,,,,,,,,,,,,,,,,,,,,,,,,,,,,,,,,,,,,,,,,,,,,,,,,,,,,,,,,,,,,,,,,,,,,,,,,,,,,,,,,,,,,,,,,,,,,,,,,,,,,,,,,,,,,,,,,,,,,,
,,5d4dddbd3f4ed60001300679,2024-02-21_22h25.48.162,kallum_motion_pilot,2023.2.2,MacIntel,59.52380952,5d4dddbd3f4ed60001300679,65d6bb0e977760de756971f7,65d6be986941bacdccd541d6,0.0682,0.0683,0,92,92,92,1,sevenfive,,,,,,,,,,,,,,,,,,,,,,,,,,,,,,,,,,,,,,,,,,,,,,,,,,,,,,,,,,,,,,,,,,,,,,,,,,,,,,,,,,,,,,,,,,,,,,,,,,,,,,,,,,,,,,,,,,,,,,,,,,,,,,,,,,,,,,,,,
,,5d4dddbd3f4ed60001300679,2024-02-21_22h25.48.162,kallum_motion_pilot,2023.2.2,MacIntel,59.52380952,5d4dddbd3f4ed60001300679,65d6bb0e977760de756971f7,65d6be986941bacdccd541d6,0.069,0.0691,0,93,93,89,1,fiveseven,,,,,,,,,,,,,,,,,,,,,,,,,,,,,,,,,,,,,,,,,,,,,,,,,,,,,,,,,,,,,,,,,,,,,,,,,,,,,,,,,,,,,,,,,,,,,,,,,,,,,,,,,,,,,,,,,,,,,,,,,,,,,,,,,,,,,,,,,
,,5d4dddbd3f4ed60001300679,2024-02-21_22h25.48.162,kallum_motion_pilot,2023.2.2,MacIntel,59.52380952,5d4dddbd3f4ed60001300679,65d6bb0e977760de756971f7,65d6be986941bacdccd541d6,0.0694,0.0694,0,94,94,125,1,seveneight,,,,,,,,,,,,,,,,,,,,,,,,,,,,,,,,,,,,,,,,,,,,,,,,,,,,,,,,,,,,,,,,,,,,,,,,,,,,,,,,,,,,,,,,,,,,,,,,,,,,,,,,,,,,,,,,,,,,,,,,,,,,,,,,,,,,,,,,,
,,5d4dddbd3f4ed60001300679,2024-02-21_22h25.48.162,kallum_motion_pilot,2023.2.2,MacIntel,59.52380952,5d4dddbd3f4ed60001300679,65d6bb0e977760de756971f7,65d6be986941bacdccd541d6,0.0706,0.071,0,95,95,9,1,onethree,,,,,,,,,,,,,,,,,,,,,,,,,,,,,,,,,,,,,,,,,,,,,,,,,,,,,,,,,,,,,,,,,,,,,,,,,,,,,,,,,,,,,,,,,,,,,,,,,,,,,,,,,,,,,,,,,,,,,,,,,,,,,,,,,,,,,,,,,
,,5d4dddbd3f4ed60001300679,2024-02-21_22h25.48.162,kallum_motion_pilot,2023.2.2,MacIntel,59.52380952,5d4dddbd3f4ed60001300679,65d6bb0e977760de756971f7,65d6be986941bacdccd541d6,0.0715,0.0718,0,96,96,22,1,fourtwo,,,,,,,,,,,,,,,,,,,,,,,,,,,,,,,,,,,,,,,,,,,,,,,,,,,,,,,,,,,,,,,,,,,,,,,,,,,,,,,,,,,,,,,,,,,,,,,,,,,,,,,,,,,,,,,,,,,,,,,,,,,,,,,,,,,,,,,,,
,,5d4dddbd3f4ed60001300679,2024-02-21_22h25.48.162,kallum_motion_pilot,2023.2.2,MacIntel,59.52380952,5d4dddbd3f4ed60001300679,65d6bb0e977760de756971f7,65d6be986941bacdccd541d6,0.072,0.072,0,97,97,102,1,eightsix,,,,,,,,,,,,,,,,,,,,,,,,,,,,,,,,,,,,,,,,,,,,,,,,,,,,,,,,,,,,,,,,,,,,,,,,,,,,,,,,,,,,,,,,,,,,,,,,,,,,,,,,,,,,,,,,,,,,,,,,,,,,,,,,,,,,,,,,,
,,5d4dddbd3f4ed60001300679,2024-02-21_22h25.48.162,kallum_motion_pilot,2023.2.2,MacIntel,59.52380952,5d4dddbd3f4ed60001300679,65d6bb0e977760de756971f7,65d6be986941bacdccd541d6,0.0723,0.0724,0,98,98,147,1,sixeight,,,,,,,,,,,,,,,,,,,,,,,,,,,,,,,,,,,,,,,,,,,,,,,,,,,,,,,,,,,,,,,,,,,,,,,,,,,,,,,,,,,,,,,,,,,,,,,,,,,,,,,,,,,,,,,,,,,,,,,,,,,,,,,,,,,,,,,,,
,,5d4dddbd3f4ed60001300679,2024-02-21_22h25.48.162,kallum_motion_pilot,2023.2.2,MacIntel,59.52380952,5d4dddbd3f4ed60001300679,65d6bb0e977760de756971f7,65d6be986941bacdccd541d6,0.0726,0.0726,0,99,99,82,1,sixfive,,,,,,,,,,,,,,,,,,,,,,,,,,,,,,,,,,,,,,,,,,,,,,,,,,,,,,,,,,,,,,,,,,,,,,,,,,,,,,,,,,,,,,,,,,,,,,,,,,,,,,,,,,,,,,,,,,,,,,,,,,,,,,,,,,,,,,,,,
,,5d4dddbd3f4ed60001300679,2024-02-21_22h25.48.162,kallum_motion_pilot,2023.2.2,MacIntel,59.52380952,5d4dddbd3f4ed60001300679,65d6bb0e977760de756971f7,65d6be986941bacdccd541d6,0.0727,0.0728,0,100,100,73,1,onethree,,,,,,,,,,,,,,,,,,,,,,,,,,,,,,,,,,,,,,,,,,,,,,,,,,,,,,,,,,,,,,,,,,,,,,,,,,,,,,,,,,,,,,,,,,,,,,,,,,,,,,,,,,,,,,,,,,,,,,,,,,,,,,,,,,,,,,,,,
,,5d4dddbd3f4ed60001300679,2024-02-21_22h25.48.162,kallum_motion_pilot,2023.2.2,MacIntel,59.52380952,5d4dddbd3f4ed60001300679,65d6bb0e977760de756971f7,65d6be986941bacdccd541d6,0.0729,0.0729,0,101,101,149,1,seveneight,,,,,,,,,,,,,,,,,,,,,,,,,,,,,,,,,,,,,,,,,,,,,,,,,,,,,,,,,,,,,,,,,,,,,,,,,,,,,,,,,,,,,,,,,,,,,,,,,,,,,,,,,,,,,,,,,,,,,,,,,,,,,,,,,,,,,,,,,
,,5d4dddbd3f4ed60001300679,2024-02-21_22h25.48.162,kallum_motion_pilot,2023.2.2,MacIntel,59.52380952,5d4dddbd3f4ed60001300679,65d6bb0e977760de756971f7,65d6be986941bacdccd541d6,0.0731,0.0732,0,102,102,45,1,threefour,,,,,,,,,,,,,,,,,,,,,,,,,,,,,,,,,,,,,,,,,,,,,,,,,,,,,,,,,,,,,,,,,,,,,,,,,,,,,,,,,,,,,,,,,,,,,,,,,,,,,,,,,,,,,,,,,,,,,,,,,,,,,,,,,,,,,,,,,
,,5d4dddbd3f4ed60001300679,2024-02-21_22h25.48.162,kallum_motion_pilot,2023.2.2,MacIntel,59.52380952,5d4dddbd3f4ed60001300679,65d6bb0e977760de756971f7,65d6be986941bacdccd541d6,0.0733,0.0733,0,103,103,83,1,sixeight,,,,,,,,,,,,,,,,,,,,,,,,,,,,,,,,,,,,,,,,,,,,,,,,,,,,,,,,,,,,,,,,,,,,,,,,,,,,,,,,,,,,,,,,,,,,,,,,,,,,,,,,,,,,,,,,,,,,,,,,,,,,,,,,,,,,,,,,,
,,5d4dddbd3f4ed60001300679,2024-02-21_22h25.48.162,kallum_motion_pilot,2023.2.2,MacIntel,59.52380952,5d4dddbd3f4ed60001300679,65d6bb0e977760de756971f7,65d6be986941bacdccd541d6,0.0735,0.0735,0,104,104,85,1,seveneight,,,,,,,,,,,,,,,,,,,,,,,,,,,,,,,,,,,,,,,,,,,,,,,,,,,,,,,,,,,,,,,,,,,,,,,,,,,,,,,,,,,,,,,,,,,,,,,,,,,,,,,,,,,,,,,,,,,,,,,,,,,,,,,,,,,,,,,,,
,,5d4dddbd3f4ed60001300679,2024-02-21_22h25.48.162,kallum_motion_pilot,2023.2.2,MacIntel,59.52380952,5d4dddbd3f4ed60001300679,65d6bb0e977760de756971f7,65d6be986941bacdccd541d6,0.0736,0.0737,0,105,105,24,1,onetwo,,,,,,,,,,,,,,,,,,,,,,,,,,,,,,,,,,,,,,,,,,,,,,,,,,,,,,,,,,,,,,,,,,,,,,,,,,,,,,,,,,,,,,,,,,,,,,,,,,,,,,,,,,,,,,,,,,,,,,,,,,,,,,,,,,,,,,,,,
,,5d4dddbd3f4ed60001300679,2024-02-21_22h25.48.162,kallum_motion_pilot,2023.2.2,MacIntel,59.52380952,5d4dddbd3f4ed60001300679,65d6bb0e977760de756971f7,65d6be986941bacdccd541d6,0.0739,0.074,0,106,106,151,1,eightseven,,,,,,,,,,,,,,,,,,,,,,,,,,,,,,,,,,,,,,,,,,,,,,,,,,,,,,,,,,,,,,,,,,,,,,,,,,,,,,,,,,,,,,,,,,,,,,,,,,,,,,,,,,,,,,,,,,,,,,,,,,,,,,,,,,,,,,,,,
,,5d4dddbd3f4ed60001300679,2024-02-21_22h25.48.162,kallum_motion_pilot,2023.2.2,MacIntel,59.52380952,5d4dddbd3f4ed60001300679,65d6bb0e977760de756971f7,65d6be986941bacdccd541d6,0.0741,0.0742,0,107,107,115,1,sixeight,,,,,,,,,,,,,,,,,,,,,,,,,,,,,,,,,,,,,,,,,,,,,,,,,,,,,,,,,,,,,,,,,,,,,,,,,,,,,,,,,,,,,,,,,,,,,,,,,,,,,,,,,,,,,,,,,,,,,,,,,,,,,,,,,,,,,,,,,
,,5d4dddbd3f4ed60001300679,2024-02-21_22h25.48.162,kallum_motion_pilot,2023.2.2,MacIntel,59.52380952,5d4dddbd3f4ed60001300679,65d6bb0e977760de756971f7,65d6be986941bacdccd541d6,0.0744,0.0744,0,108,108,41,1,onethree,,,,,,,,,,,,,,,,,,,,,,,,,,,,,,,,,,,,,,,,,,,,,,,,,,,,,,,,,,,,,,,,,,,,,,,,,,,,,,,,,,,,,,,,,,,,,,,,,,,,,,,,,,,,,,,,,,,,,,,,,,,,,,,,,,,,,,,,,
,,5d4dddbd3f4ed60001300679,2024-02-21_22h25.48.162,kallum_motion_pilot,2023.2.2,MacIntel,59.52380952,5d4dddbd3f4ed60001300679,65d6bb0e977760de756971f7,65d6be986941bacdccd541d6,0.0745,0.0745,0,109,109,91,1,sixeight,,,,,,,,,,,,,,,,,,,,,,,,,,,,,,,,,,,,,,,,,,,,,,,,,,,,,,,,,,,,,,,,,,,,,,,,,,,,,,,,,,,,,,,,,,,,,,,,,,,,,,,,,,,,,,,,,,,,,,,,,,,,,,,,,,,,,,,,,
,,5d4dddbd3f4ed60001300679,2024-02-21_22h25.48.162,kallum_motion_pilot,2023.2.2,MacIntel,59.52380952,5d4dddbd3f4ed60001300679,65d6bb0e977760de756971f7,65d6be986941bacdccd541d6,0.0747,0.0748,0,110,110,124,1,sevenfive,,,,,,,,,,,,,,,,,,,,,,,,,,,,,,,,,,,,,,,,,,,,,,,,,,,,,,,,,,,,,,,,,,,,,,,,,,,,,,,,,,,,,,,,,,,,,,,,,,,,,,,,,,,,,,,,,,,,,,,,,,,,,,,,,,,,,,,,,
,,5d4dddbd3f4ed60001300679,2024-02-21_22h25.48.162,kallum_motion_pilot,2023.2.2,MacIntel,59.52380952,5d4dddbd3f4ed60001300679,65d6bb0e977760de756971f7,65d6be986941bacdccd541d6,0.0748,0.0749,0,111,111,65,1,onethree,,,,,,,,,,,,,,,,,,,,,,,,,,,,,,,,,,,,,,,,,,,,,,,,,,,,,,,,,,,,,,,,,,,,,,,,,,,,,,,,,,,,,,,,,,,,,,,,,,,,,,,,,,,,,,,,,,,,,,,,,,,,,,,,,,,,,,,,,
,,5d4dddbd3f4ed60001300679,2024-02-21_22h25.48.162,kallum_motion_pilot,2023.2.2,MacIntel,59.52380952,5d4dddbd3f4ed60001300679,65d6bb0e977760de756971f7,65d6be986941bacdccd541d6,0.075,0.075,0,112,112,40,1,onetwo,,,,,,,,,,,,,,,,,,,,,,,,,,,,,,,,,,,,,,,,,,,,,,,,,,,,,,,,,,,,,,,,,,,,,,,,,,,,,,,,,,,,,,,,,,,,,,,,,,,,,,,,,,,,,,,,,,,,,,,,,,,,,,,,,,,,,,,,,
,,5d4dddbd3f4ed60001300679,2024-02-21_22h25.48.162,kallum_motion_pilot,2023.2.2,MacIntel,59.52380952,5d4dddbd3f4ed60001300679,65d6bb0e977760de756971f7,65d6be986941bacdccd541d6,0.0751,0.0752,0,113,113,100,1,sevenfive,,,,,,,,,,,,,,,,,,,,,,,,,,,,,,,,,,,,,,,,,,,,,,,,,,,,,,,,,,,,,,,,,,,,,,,,,,,,,,,,,,,,,,,,,,,,,,,,,,,,,,,,,,,,,,,,,,,,,,,,,,,,,,,,,,,,,,,,,
,,5d4dddbd3f4ed60001300679,2024-02-21_22h25.48.162,kallum_motion_pilot,2023.2.2,MacIntel,59.52380952,5d4dddbd3f4ed60001300679,65d6bb0e977760de756971f7,65d6be986941bacdccd541d6,0.0753,0.0753,0,114,114,42,1,twoone,,,,,,,,,,,,,,,,,,,,,,,,,,,,,,,,,,,,,,,,,,,,,,,,,,,,,,,,,,,,,,,,,,,,,,,,,,,,,,,,,,,,,,,,,,,,,,,,,,,,,,,,,,,,,,,,,,,,,,,,,,,,,,,,,,,,,,,,,
,,5d4dddbd3f4ed60001300679,2024-02-21_22h25.48.162,kallum_motion_pilot,2023.2.2,MacIntel,59.52380952,5d4dddbd3f4ed60001300679,65d6bb0e977760de756971f7,65d6be986941bacdccd541d6,0.0754,0.0755,0,115,115,15,1,fourthree,,,,,,,,,,,,,,,,,,,,,,,,,,,,,,,,,,,,,,,,,,,,,,,,,,,,,,,,,,,,,,,,,,,,,,,,,,,,,,,,,,,,,,,,,,,,,,,,,,,,,,,,,,,,,,,,,,,,,,,,,,,,,,,,,,,,,,,,,
,,5d4dddbd3f4ed60001300679,2024-02-21_22h25.48.162,kallum_motion_pilot,2023.2.2,MacIntel,59.52380952,5d4dddbd3f4ed60001300679,65d6bb0e977760de756971f7,65d6be986941bacdccd541d6,0.0756,0.0756,0,116,116,68,1,threeone,,,,,,,,,,,,,,,,,,,,,,,,,,,,,,,,,,,,,,,,,,,,,,,,,,,,,,,,,,,,,,,,,,,,,,,,,,,,,,,,,,,,,,,,,,,,,,,,,,,,,,,,,,,,,,,,,,,,,,,,,,,,,,,,,,,,,,,,,
,,5d4dddbd3f4ed60001300679,2024-02-21_22h25.48.162,kallum_motion_pilot,2023.2.2,MacIntel,59.52380952,5d4dddbd3f4ed60001300679,65d6bb0e977760de756971f7,65d6be986941bacdccd541d6,0.0758,0.0759,0,117,117,77,1,threefour,,,,,,,,,,,,,,,,,,,,,,,,,,,,,,,,,,,,,,,,,,,,,,,,,,,,,,,,,,,,,,,,,,,,,,,,,,,,,,,,,,,,,,,,,,,,,,,,,,,,,,,,,,,,,,,,,,,,,,,,,,,,,,,,,,,,,,,,,
,,5d4dddbd3f4ed60001300679,2024-02-21_22h25.48.162,kallum_motion_pilot,2023.2.2,MacIntel,59.52380952,5d4dddbd3f4ed60001300679,65d6bb0e977760de756971f7,65d6be986941bacdccd541d6,0.076,0.0761,0,118,118,79,1,eightseven,,,,,,,,,,,,,,,,,,,,,,,,,,,,,,,,,,,,,,,,,,,,,,,,,,,,,,,,,,,,,,,,,,,,,,,,,,,,,,,,,,,,,,,,,,,,,,,,,,,,,,,,,,,,,,,,,,,,,,,,,,,,,,,,,,,,,,,,,
,,5d4dddbd3f4ed60001300679,2024-02-21_22h25.48.162,kallum_motion_pilot,2023.2.2,MacIntel,59.52380952,5d4dddbd3f4ed60001300679,65d6bb0e977760de756971f7,65d6be986941bacdccd541d6,0.0762,0.0762,0,119,119,133,1,seveneight,,,,,,,,,,,,,,,,,,,,,,,,,,,,,,,,,,,,,,,,,,,,,,,,,,,,,,,,,,,,,,,,,,,,,,,,,,,,,,,,,,,,,,,,,,,,,,,,,,,,,,,,,,,,,,,,,,,,,,,,,,,,,,,,,,,,,,,,,
,,5d4dddbd3f4ed60001300679,2024-02-21_22h25.48.162,kallum_motion_pilot,2023.2.2,MacIntel,59.52380952,5d4dddbd3f4ed60001300679,65d6bb0e977760de756971f7,65d6be986941bacdccd541d6,0.0764,0.0764,0,120,120,51,1,twofour,,,,,,,,,,,,,,,,,,,,,,,,,,,,,,,,,,,,,,,,,,,,,,,,,,,,,,,,,,,,,,,,,,,,,,,,,,,,,,,,,,,,,,,,,,,,,,,,,,,,,,,,,,,,,,,,,,,,,,,,,,,,,,,,,,,,,,,,,
,,5d4dddbd3f4ed60001300679,2024-02-21_22h25.48.162,kallum_motion_pilot,2023.2.2,MacIntel,59.52380952,5d4dddbd3f4ed60001300679,65d6bb0e977760de756971f7,65d6be986941bacdccd541d6,0.0765,0.0766,0,121,121,130,1,sixfive,,,,,,,,,,,,,,,,,,,,,,,,,,,,,,,,,,,,,,,,,,,,,,,,,,,,,,,,,,,,,,,,,,,,,,,,,,,,,,,,,,,,,,,,,,,,,,,,,,,,,,,,,,,,,,,,,,,,,,,,,,,,,,,,,,,,,,,,,
,,5d4dddbd3f4ed60001300679,2024-02-21_22h25.48.162,kallum_motion_pilot,2023.2.2,MacIntel,59.52380952,5d4dddbd3f4ed60001300679,65d6bb0e977760de756971f7,65d6be986941bacdccd541d6,0.0767,0.0768,0,122,122,30,1,fourtwo,,,,,,,,,,,,,,,,,,,,,,,,,,,,,,,,,,,,,,,,,,,,,,,,,,,,,,,,,,,,,,,,,,,,,,,,,,,,,,,,,,,,,,,,,,,,,,,,,,,,,,,,,,,,,,,,,,,,,,,,,,,,,,,,,,,,,,,,,
,,5d4dddbd3f4ed60001300679,2024-02-21_22h25.48.162,kallum_motion_pilot,2023.2.2,MacIntel,59.52380952,5d4dddbd3f4ed60001300679,65d6bb0e977760de756971f7,65d6be986941bacdccd541d6,0.0768,0.077,0,123,123,75,1,twofour,,,,,,,,,,,,,,,,,,,,,,,,,,,,,,,,,,,,,,,,,,,,,,,,,,,,,,,,,,,,,,,,,,,,,,,,,,,,,,,,,,,,,,,,,,,,,,,,,,,,,,,,,,,,,,,,,,,,,,,,,,,,,,,,,,,,,,,,,
,,5d4dddbd3f4ed60001300679,2024-02-21_22h25.48.162,kallum_motion_pilot,2023.2.2,MacIntel,59.52380952,5d4dddbd3f4ed60001300679,65d6bb0e977760de756971f7,65d6be986941bacdccd541d6,0.0775,0.0777,0,124,124,71,1,fourthree,,,,,,,,,,,,,,,,,,,,,,,,,,,,,,,,,,,,,,,,,,,,,,,,,,,,,,,,,,,,,,,,,,,,,,,,,,,,,,,,,,,,,,,,,,,,,,,,,,,,,,,,,,,,,,,,,,,,,,,,,,,,,,,,,,,,,,,,,
,,5d4dddbd3f4ed60001300679,2024-02-21_22h25.48.162,kallum_motion_pilot,2023.2.2,MacIntel,59.52380952,5d4dddbd3f4ed60001300679,65d6bb0e977760de756971f7,65d6be986941bacdccd541d6,0.0779,0.0781,0,125,125,43,1,twofour,,,,,,,,,,,,,,,,,,,,,,,,,,,,,,,,,,,,,,,,,,,,,,,,,,,,,,,,,,,,,,,,,,,,,,,,,,,,,,,,,,,,,,,,,,,,,,,,,,,,,,,,,,,,,,,,,,,,,,,,,,,,,,,,,,,,,,,,,
,,5d4dddbd3f4ed60001300679,2024-02-21_22h25.48.162,kallum_motion_pilot,2023.2.2,MacIntel,59.52380952,5d4dddbd3f4ed60001300679,65d6bb0e977760de756971f7,65d6be986941bacdccd541d6,0.0782,0.0782,0,126,126,123,1,sixeight,,,,,,,,,,,,,,,,,,,,,,,,,,,,,,,,,,,,,,,,,,,,,,,,,,,,,,,,,,,,,,,,,,,,,,,,,,,,,,,,,,,,,,,,,,,,,,,,,,,,,,,,,,,,,,,,,,,,,,,,,,,,,,,,,,,,,,,,,
,,5d4dddbd3f4ed60001300679,2024-02-21_22h25.48.162,kallum_motion_pilot,2023.2.2,MacIntel,59.52380952,5d4dddbd3f4ed60001300679,65d6bb0e977760de756971f7,65d6be986941bacdccd541d6,0.0783,0.0784,0,127,127,5,1,threefour,,,,,,,,,,,,,,,,,,,,,,,,,,,,,,,,,,,,,,,,,,,,,,,,,,,,,,,,,,,,,,,,,,,,,,,,,,,,,,,,,,,,,,,,,,,,,,,,,,,,,,,,,,,,,,,,,,,,,,,,,,,,,,,,,,,,,,,,,
,,5d4dddbd3f4ed60001300679,2024-02-21_22h25.48.162,kallum_motion_pilot,2023.2.2,MacIntel,59.52380952,5d4dddbd3f4ed60001300679,65d6bb0e977760de756971f7,65d6be986941bacdccd541d6,0.0785,0.0786,0,128,128,106,1,sixfive,,,,,,,,,,,,,,,,,,,,,,,,,,,,,,,,,,,,,,,,,,,,,,,,,,,,,,,,,,,,,,,,,,,,,,,,,,,,,,,,,,,,,,,,,,,,,,,,,,,,,,,,,,,,,,,,,,,,,,,,,,,,,,,,,,,,,,,,,
,,5d4dddbd3f4ed60001300679,2024-02-21_22h25.48.162,kallum_motion_pilot,2023.2.2,MacIntel,59.52380952,5d4dddbd3f4ed60001300679,65d6bb0e977760de756971f7,65d6be986941bacdccd541d6,0.0788,0.079,0,129,129,63,1,fourthree,,,,,,,,,,,,,,,,,,,,,,,,,,,,,,,,,,,,,,,,,,,,,,,,,,,,,,,,,,,,,,,,,,,,,,,,,,,,,,,,,,,,,,,,,,,,,,,,,,,,,,,,,,,,,,,,,,,,,,,,,,,,,,,,,,,,,,,,,
,,5d4dddbd3f4ed60001300679,2024-02-21_22h25.48.162,kallum_motion_pilot,2023.2.2,MacIntel,59.52380952,5d4dddbd3f4ed60001300679,65d6bb0e977760de756971f7,65d6be986941bacdccd541d6,0.0793,0.0794,0,130,130,21,1,threefour,,,,,,,,,,,,,,,,,,,,,,,,,,,,,,,,,,,,,,,,,,,,,,,,,,,,,,,,,,,,,,,,,,,,,,,,,,,,,,,,,,,,,,,,,,,,,,,,,,,,,,,,,,,,,,,,,,,,,,,,,,,,,,,,,,,,,,,,,
,,5d4dddbd3f4ed60001300679,2024-02-21_22h25.48.162,kallum_motion_pilot,2023.2.2,MacIntel,59.52380952,5d4dddbd3f4ed60001300679,65d6bb0e977760de756971f7,65d6be986941bacdccd541d6,0.0795,0.0796,0,131,131,93,1,seveneight,,,,,,,,,,,,,,,,,,,,,,,,,,,,,,,,,,,,,,,,,,,,,,,,,,,,,,,,,,,,,,,,,,,,,,,,,,,,,,,,,,,,,,,,,,,,,,,,,,,,,,,,,,,,,,,,,,,,,,,,,,,,,,,,,,,,,,,,,
,,5d4dddbd3f4ed60001300679,2024-02-21_22h25.48.162,kallum_motion_pilot,2023.2.2,MacIntel,59.52380952,5d4dddbd3f4ed60001300679,65d6bb0e977760de756971f7,65d6be986941bacdccd541d6,0.0798,0.0798,0,132,132,60,1,threeone,,,,,,,,,,,,,,,,,,,,,,,,,,,,,,,,,,,,,,,,,,,,,,,,,,,,,,,,,,,,,,,,,,,,,,,,,,,,,,,,,,,,,,,,,,,,,,,,,,,,,,,,,,,,,,,,,,,,,,,,,,,,,,,,,,,,,,,,,
,,5d4dddbd3f4ed60001300679,2024-02-21_22h25.48.162,kallum_motion_pilot,2023.2.2,MacIntel,59.52380952,5d4dddbd3f4ed60001300679,65d6bb0e977760de756971f7,65d6be986941bacdccd541d6,0.0799,0.08,0,133,133,137,1,fiveseven,,,,,,,,,,,,,,,,,,,,,,,,,,,,,,,,,,,,,,,,,,,,,,,,,,,,,,,,,,,,,,,,,,,,,,,,,,,,,,,,,,,,,,,,,,,,,,,,,,,,,,,,,,,,,,,,,,,,,,,,,,,,,,,,,,,,,,,,,
,,5d4dddbd3f4ed60001300679,2024-02-21_22h25.48.162,kallum_motion_pilot,2023.2.2,MacIntel,59.52380952,5d4dddbd3f4ed60001300679,65d6bb0e977760de756971f7,65d6be986941bacdccd541d6,0.08,0.0802,0,134,134,110,1,eightsix,,,,,,,,,,,,,,,,,,,,,,,,,,,,,,,,,,,,,,,,,,,,,,,,,,,,,,,,,,,,,,,,,,,,,,,,,,,,,,,,,,,,,,,,,,,,,,,,,,,,,,,,,,,,,,,,,,,,,,,,,,,,,,,,,,,,,,,,,
,,5d4dddbd3f4ed60001300679,2024-02-21_22h25.48.162,kallum_motion_pilot,2023.2.2,MacIntel,59.52380952,5d4dddbd3f4ed60001300679,65d6bb0e977760de756971f7,65d6be986941bacdccd541d6,0.0802,0.0804,0,135,135,122,1,sixfive,,,,,,,,,,,,,,,,,,,,,,,,,,,,,,,,,,,,,,,,,,,,,,,,,,,,,,,,,,,,,,,,,,,,,,,,,,,,,,,,,,,,,,,,,,,,,,,,,,,,,,,,,,,,,,,,,,,,,,,,,,,,,,,,,,,,,,,,,
,,5d4dddbd3f4ed60001300679,2024-02-21_22h25.48.162,kallum_motion_pilot,2023.2.2,MacIntel,59.52380952,5d4dddbd3f4ed60001300679,65d6bb0e977760de756971f7,65d6be986941bacdccd541d6,0.0804,0.0805,0,136,136,114,1,sixfive,,,,,,,,,,,,,,,,,,,,,,,,,,,,,,,,,,,,,,,,,,,,,,,,,,,,,,,,,,,,,,,,,,,,,,,,,,,,,,,,,,,,,,,,,,,,,,,,,,,,,,,,,,,,,,,,,,,,,,,,,,,,,,,,,,,,,,,,,
,,5d4dddbd3f4ed60001300679,2024-02-21_22h25.48.162,kallum_motion_pilot,2023.2.2,MacIntel,59.52380952,5d4dddbd3f4ed60001300679,65d6bb0e977760de756971f7,65d6be986941bacdccd541d6,0.0807,0.0807,0,137,137,95,1,eightseven,,,,,,,,,,,,,,,,,,,,,,,,,,,,,,,,,,,,,,,,,,,,,,,,,,,,,,,,,,,,,,,,,,,,,,,,,,,,,,,,,,,,,,,,,,,,,,,,,,,,,,,,,,,,,,,,,,,,,,,,,,,,,,,,,,,,,,,,,
,,5d4dddbd3f4ed60001300679,2024-02-21_22h25.48.162,kallum_motion_pilot,2023.2.2,MacIntel,59.52380952,5d4dddbd3f4ed60001300679,65d6bb0e977760de756971f7,65d6be986941bacdccd541d6,0.0808,0.0809,0,138,138,3,1,twofour,,,,,,,,,,,,,,,,,,,,,,,,,,,,,,,,,,,,,,,,,,,,,,,,,,,,,,,,,,,,,,,,,,,,,,,,,,,,,,,,,,,,,,,,,,,,,,,,,,,,,,,,,,,,,,,,,,,,,,,,,,,,,,,,,,,,,,,,,
,,5d4dddbd3f4ed60001300679,2024-02-21_22h25.48.162,kallum_motion_pilot,2023.2.2,MacIntel,59.52380952,5d4dddbd3f4ed60001300679,65d6bb0e977760de756971f7,65d6be986941bacdccd541d6,0.081,0.0811,0,139,139,34,1,twoone,,,,,,,,,,,,,,,,,,,,,,,,,,,,,,,,,,,,,,,,,,,,,,,,,,,,,,,,,,,,,,,,,,,,,,,,,,,,,,,,,,,,,,,,,,,,,,,,,,,,,,,,,,,,,,,,,,,,,,,,,,,,,,,,,,,,,,,,,
,,5d4dddbd3f4ed60001300679,2024-02-21_22h25.48.162,kallum_motion_pilot,2023.2.2,MacIntel,59.52380952,5d4dddbd3f4ed60001300679,65d6bb0e977760de756971f7,65d6be986941bacdccd541d6,0.0812,0.0813,0,140,140,161,1,fiveseven,,,,,,,,,,,,,,,,,,,,,,,,,,,,,,,,,,,,,,,,,,,,,,,,,,,,,,,,,,,,,,,,,,,,,,,,,,,,,,,,,,,,,,,,,,,,,,,,,,,,,,,,,,,,,,,,,,,,,,,,,,,,,,,,,,,,,,,,,
,,5d4dddbd3f4ed60001300679,2024-02-21_22h25.48.162,kallum_motion_pilot,2023.2.2,MacIntel,59.52380952,5d4dddbd3f4ed60001300679,65d6bb0e977760de756971f7,65d6be986941bacdccd541d6,0.0816,0.0816,0,141,141,129,1,fiveseven,,,,,,,,,,,,,,,,,,,,,,,,,,,,,,,,,,,,,,,,,,,,,,,,,,,,,,,,,,,,,,,,,,,,,,,,,,,,,,,,,,,,,,,,,,,,,,,,,,,,,,,,,,,,,,,,,,,,,,,,,,,,,,,,,,,,,,,,,
,,5d4dddbd3f4ed60001300679,2024-02-21_22h25.48.162,kallum_motion_pilot,2023.2.2,MacIntel,59.52380952,5d4dddbd3f4ed60001300679,65d6bb0e977760de756971f7,65d6be986941bacdccd541d6,0.082,0.082,0,142,142,59,1,twofour,,,,,,,,,,,,,,,,,,,,,,,,,,,,,,,,,,,,,,,,,,,,,,,,,,,,,,,,,,,,,,,,,,,,,,,,,,,,,,,,,,,,,,,,,,,,,,,,,,,,,,,,,,,,,,,,,,,,,,,,,,,,,,,,,,,,,,,,,
,,5d4dddbd3f4ed60001300679,2024-02-21_22h25.48.162,kallum_motion_pilot,2023.2.2,MacIntel,59.52380952,5d4dddbd3f4ed60001300679,65d6bb0e977760de756971f7,65d6be986941bacdccd541d6,0.0824,0.0825,0,143,143,104,1,fivesix,,,,,,,,,,,,,,,,,,,,,,,,,,,,,,,,,,,,,,,,,,,,,,,,,,,,,,,,,,,,,,,,,,,,,,,,,,,,,,,,,,,,,,,,,,,,,,,,,,,,,,,,,,,,,,,,,,,,,,,,,,,,,,,,,,,,,,,,,
,,5d4dddbd3f4ed60001300679,2024-02-21_22h25.48.162,kallum_motion_pilot,2023.2.2,MacIntel,59.52380952,5d4dddbd3f4ed60001300679,65d6bb0e977760de756971f7,65d6be986941bacdccd541d6,0.0828,0.0829,0,144,144,134,1,eightsix,,,,,,,,,,,,,,,,,,,,,,,,,,,,,,,,,,,,,,,,,,,,,,,,,,,,,,,,,,,,,,,,,,,,,,,,,,,,,,,,,,,,,,,,,,,,,,,,,,,,,,,,,,,,,,,,,,,,,,,,,,,,,,,,,,,,,,,,,
,,5d4dddbd3f4ed60001300679,2024-02-21_22h25.48.162,kallum_motion_pilot,2023.2.2,MacIntel,59.52380952,5d4dddbd3f4ed60001300679,65d6bb0e977760de756971f7,65d6be986941bacdccd541d6,0.0831,0.0837,0,145,145,127,1,eightseven,,,,,,,,,,,,,,,,,,,,,,,,,,,,,,,,,,,,,,,,,,,,,,,,,,,,,,,,,,,,,,,,,,,,,,,,,,,,,,,,,,,,,,,,,,,,,,,,,,,,,,,,,,,,,,,,,,,,,,,,,,,,,,,,,,,,,,,,,
,,5d4dddbd3f4ed60001300679,2024-02-21_22h25.48.162,kallum_motion_pilot,2023.2.2,MacIntel,59.52380952,5d4dddbd3f4ed60001300679,65d6bb0e977760de756971f7,65d6be986941bacdccd541d6,0.0847,0.0849,0,146,146,152,1,fivesix,,,,,,,,,,,,,,,,,,,,,,,,,,,,,,,,,,,,,,,,,,,,,,,,,,,,,,,,,,,,,,,,,,,,,,,,,,,,,,,,,,,,,,,,,,,,,,,,,,,,,,,,,,,,,,,,,,,,,,,,,,,,,,,,,,,,,,,,,
,,5d4dddbd3f4ed60001300679,2024-02-21_22h25.48.162,kallum_motion_pilot,2023.2.2,MacIntel,59.52380952,5d4dddbd3f4ed60001300679,65d6bb0e977760de756971f7,65d6be986941bacdccd541d6,0.0851,0.0852,0,147,147,67,1,twofour,,,,,,,,,,,,,,,,,,,,,,,,,,,,,,,,,,,,,,,,,,,,,,,,,,,,,,,,,,,,,,,,,,,,,,,,,,,,,,,,,,,,,,,,,,,,,,,,,,,,,,,,,,,,,,,,,,,,,,,,,,,,,,,,,,,,,,,,,
,,5d4dddbd3f4ed60001300679,2024-02-21_22h25.48.162,kallum_motion_pilot,2023.2.2,MacIntel,59.52380952,5d4dddbd3f4ed60001300679,65d6bb0e977760de756971f7,65d6be986941bacdccd541d6,0.0853,0.0854,0,148,148,111,1,eightseven,,,,,,,,,,,,,,,,,,,,,,,,,,,,,,,,,,,,,,,,,,,,,,,,,,,,,,,,,,,,,,,,,,,,,,,,,,,,,,,,,,,,,,,,,,,,,,,,,,,,,,,,,,,,,,,,,,,,,,,,,,,,,,,,,,,,,,,,,
,,5d4dddbd3f4ed60001300679,2024-02-21_22h25.48.162,kallum_motion_pilot,2023.2.2,MacIntel,59.52380952,5d4dddbd3f4ed60001300679,65d6bb0e977760de756971f7,65d6be986941bacdccd541d6,0.0856,0.0857,0,149,149,90,1,sixfive,,,,,,,,,,,,,,,,,,,,,,,,,,,,,,,,,,,,,,,,,,,,,,,,,,,,,,,,,,,,,,,,,,,,,,,,,,,,,,,,,,,,,,,,,,,,,,,,,,,,,,,,,,,,,,,,,,,,,,,,,,,,,,,,,,,,,,,,,
,,5d4dddbd3f4ed60001300679,2024-02-21_22h25.48.162,kallum_motion_pilot,2023.2.2,MacIntel,59.52380952,5d4dddbd3f4ed60001300679,65d6bb0e977760de756971f7,65d6be986941bacdccd541d6,0.0859,0.0859,0,150,150,120,1,fivesix,,,,,,,,,,,,,,,,,,,,,,,,,,,,,,,,,,,,,,,,,,,,,,,,,,,,,,,,,,,,,,,,,,,,,,,,,,,,,,,,,,,,,,,,,,,,,,,,,,,,,,,,,,,,,,,,,,,,,,,,,,,,,,,,,,,,,,,,,
,,5d4dddbd3f4ed60001300679,2024-02-21_22h25.48.162,kallum_motion_pilot,2023.2.2,MacIntel,59.52380952,5d4dddbd3f4ed60001300679,65d6bb0e977760de756971f7,65d6be986941bacdccd541d6,0.0861,0.0861,0,151,151,37,1,threefour,,,,,,,,,,,,,,,,,,,,,,,,,,,,,,,,,,,,,,,,,,,,,,,,,,,,,,,,,,,,,,,,,,,,,,,,,,,,,,,,,,,,,,,,,,,,,,,,,,,,,,,,,,,,,,,,,,,,,,,,,,,,,,,,,,,,,,,,,
,,5d4dddbd3f4ed60001300679,2024-02-21_22h25.48.162,kallum_motion_pilot,2023.2.2,MacIntel,59.52380952,5d4dddbd3f4ed60001300679,65d6bb0e977760de756971f7,65d6be986941bacdccd541d6,0.0862,0.0863,0,152,152,76,1,threeone,,,,,,,,,,,,,,,,,,,,,,,,,,,,,,,,,,,,,,,,,,,,,,,,,,,,,,,,,,,,,,,,,,,,,,,,,,,,,,,,,,,,,,,,,,,,,,,,,,,,,,,,,,,,,,,,,,,,,,,,,,,,,,,,,,,,,,,,,
,,5d4dddbd3f4ed60001300679,2024-02-21_22h25.48.162,kallum_motion_pilot,2023.2.2,MacIntel,59.52380952,5d4dddbd3f4ed60001300679,65d6bb0e977760de756971f7,65d6be986941bacdccd541d6,0.0864,0.0865,0,153,153,81,1,fiveseven,,,,,,,,,,,,,,,,,,,,,,,,,,,,,,,,,,,,,,,,,,,,,,,,,,,,,,,,,,,,,,,,,,,,,,,,,,,,,,,,,,,,,,,,,,,,,,,,,,,,,,,,,,,,,,,,,,,,,,,,,,,,,,,,,,,,,,,,,
,,5d4dddbd3f4ed60001300679,2024-02-21_22h25.48.162,kallum_motion_pilot,2023.2.2,MacIntel,59.52380952,5d4dddbd3f4ed60001300679,65d6bb0e977760de756971f7,65d6be986941bacdccd541d6,0.0866,0.0867,0,154,154,103,1,eightseven,,,,,,,,,,,,,,,,,,,,,,,,,,,,,,,,,,,,,,,,,,,,,,,,,,,,,,,,,,,,,,,,,,,,,,,,,,,,,,,,,,,,,,,,,,,,,,,,,,,,,,,,,,,,,,,,,,,,,,,,,,,,,,,,,,,,,,,,,
,,5d4dddbd3f4ed60001300679,2024-02-21_22h25.48.162,kallum_motion_pilot,2023.2.2,MacIntel,59.52380952,5d4dddbd3f4ed60001300679,65d6bb0e977760de756971f7,65d6be986941bacdccd541d6,0.0868,0.0869,0,155,155,139,1,sixeight,,,,,,,,,,,,,,,,,,,,,,,,,,,,,,,,,,,,,,,,,,,,,,,,,,,,,,,,,,,,,,,,,,,,,,,,,,,,,,,,,,,,,,,,,,,,,,,,,,,,,,,,,,,,,,,,,,,,,,,,,,,,,,,,,,,,,,,,,
,,5d4dddbd3f4ed60001300679,2024-02-21_22h25.48.162,kallum_motion_pilot,2023.2.2,MacIntel,59.52380952,5d4dddbd3f4ed60001300679,65d6bb0e977760de756971f7,65d6be986941bacdccd541d6,0.087,0.087,0,156,156,0,1,onetwo,,,,,,,,,,,,,,,,,,,,,,,,,,,,,,,,,,,,,,,,,,,,,,,,,,,,,,,,,,,,,,,,,,,,,,,,,,,,,,,,,,,,,,,,,,,,,,,,,,,,,,,,,,,,,,,,,,,,,,,,,,,,,,,,,,,,,,,,,
,,5d4dddbd3f4ed60001300679,2024-02-21_22h25.48.162,kallum_motion_pilot,2023.2.2,MacIntel,59.52380952,5d4dddbd3f4ed60001300679,65d6bb0e977760de756971f7,65d6be986941bacdccd541d6,0.0871,0.0872,0,157,157,31,1,fourthree,,,,,,,,,,,,,,,,,,,,,,,,,,,,,,,,,,,,,,,,,,,,,,,,,,,,,,,,,,,,,,,,,,,,,,,,,,,,,,,,,,,,,,,,,,,,,,,,,,,,,,,,,,,,,,,,,,,,,,,,,,,,,,,,,,,,,,,,,
,,5d4dddbd3f4ed60001300679,2024-02-21_22h25.48.162,kallum_motion_pilot,2023.2.2,MacIntel,59.52380952,5d4dddbd3f4ed60001300679,65d6bb0e977760de756971f7,65d6be986941bacdccd541d6,0.0874,0.0875,0,158,158,19,1,twofour,,,,,,,,,,,,,,,,,,,,,,,,,,,,,,,,,,,,,,,,,,,,,,,,,,,,,,,,,,,,,,,,,,,,,,,,,,,,,,,,,,,,,,,,,,,,,,,,,,,,,,,,,,,,,,,,,,,,,,,,,,,,,,,,,,,,,,,,,
,,5d4dddbd3f4ed60001300679,2024-02-21_22h25.48.162,kallum_motion_pilot,2023.2.2,MacIntel,59.52380952,5d4dddbd3f4ed60001300679,65d6bb0e977760de756971f7,65d6be986941bacdccd541d6,0.0875,0.0876,0,159,159,72,1,onetwo,,,,,,,,,,,,,,,,,,,,,,,,,,,,,,,,,,,,,,,,,,,,,,,,,,,,,,,,,,,,,,,,,,,,,,,,,,,,,,,,,,,,,,,,,,,,,,,,,,,,,,,,,,,,,,,,,,,,,,,,,,,,,,,,,,,,,,,,,
,,5d4dddbd3f4ed60001300679,2024-02-21_22h25.48.162,kallum_motion_pilot,2023.2.2,MacIntel,59.52380952,5d4dddbd3f4ed60001300679,65d6bb0e977760de756971f7,65d6be986941bacdccd541d6,0.0877,0.0878,0,160,160,153,1,fiveseven,,,,,,,,,,,,,,,,,,,,,,,,,,,,,,,,,,,,,,,,,,,,,,,,,,,,,,,,,,,,,,,,,,,,,,,,,,,,,,,,,,,,,,,,,,,,,,,,,,,,,,,,,,,,,,,,,,,,,,,,,,,,,,,,,,,,,,,,,
,,5d4dddbd3f4ed60001300679,2024-02-21_22h25.48.162,kallum_motion_pilot,2023.2.2,MacIntel,59.52380952,5d4dddbd3f4ed60001300679,65d6bb0e977760de756971f7,65d6be986941bacdccd541d6,0.0879,0.088,0,161,161,38,1,fourtwo,,,,,,,,,,,,,,,,,,,,,,,,,,,,,,,,,,,,,,,,,,,,,,,,,,,,,,,,,,,,,,,,,,,,,,,,,,,,,,,,,,,,,,,,,,,,,,,,,,,,,,,,,,,,,,,,,,,,,,,,,,,,,,,,,,,,,,,,,
,,5d4dddbd3f4ed60001300679,2024-02-21_22h25.48.162,kallum_motion_pilot,2023.2.2,MacIntel,59.52380952,5d4dddbd3f4ed60001300679,65d6bb0e977760de756971f7,65d6be986941bacdccd541d6,0.0882,0.0883,1,0,162,144,1,fivesix,,,,,,,,,,,,,,,,,,,,,,,,,,,,,,,,,,,,,,,,,,,,,,,,,,,,,,,,,,,,,,,,,,,,,,,,,,,,,,,,,,,,,,,,,,,,,,,,,,,,,,,,,,,,,,,,,,,,,,,,,,,,,,,,,,,,,,,,,
,,5d4dddbd3f4ed60001300679,2024-02-21_22h25.48.162,kallum_motion_pilot,2023.2.2,MacIntel,59.52380952,5d4dddbd3f4ed60001300679,65d6bb0e977760de756971f7,65d6be986941bacdccd541d6,0.0884,0.0884,1,1,163,159,1,eightseven,,,,,,,,,,,,,,,,,,,,,,,,,,,,,,,,,,,,,,,,,,,,,,,,,,,,,,,,,,,,,,,,,,,,,,,,,,,,,,,,,,,,,,,,,,,,,,,,,,,,,,,,,,,,,,,,,,,,,,,,,,,,,,,,,,,,,,,,,
,,5d4dddbd3f4ed60001300679,2024-02-21_22h25.48.162,kallum_motion_pilot,2023.2.2,MacIntel,59.52380952,5d4dddbd3f4ed60001300679,65d6bb0e977760de756971f7,65d6be986941bacdccd541d6,0.0886,0.0886,1,2,164,39,1,fourthree,,,,,,,,,,,,,,,,,,,,,,,,,,,,,,,,,,,,,,,,,,,,,,,,,,,,,,,,,,,,,,,,,,,,,,,,,,,,,,,,,,,,,,,,,,,,,,,,,,,,,,,,,,,,,,,,,,,,,,,,,,,,,,,,,,,,,,,,,
,,5d4dddbd3f4ed60001300679,2024-02-21_22h25.48.162,kallum_motion_pilot,2023.2.2,MacIntel,59.52380952,5d4dddbd3f4ed60001300679,65d6bb0e977760de756971f7,65d6be986941bacdccd541d6,0.0887,0.0889,1,3,165,129,1,fiveseven,,,,,,,,,,,,,,,,,,,,,,,,,,,,,,,,,,,,,,,,,,,,,,,,,,,,,,,,,,,,,,,,,,,,,,,,,,,,,,,,,,,,,,,,,,,,,,,,,,,,,,,,,,,,,,,,,,,,,,,,,,,,,,,,,,,,,,,,,
,,5d4dddbd3f4ed60001300679,2024-02-21_22h25.48.162,kallum_motion_pilot,2023.2.2,MacIntel,59.52380952,5d4dddbd3f4ed60001300679,65d6bb0e977760de756971f7,65d6be986941bacdccd541d6,0.0892,0.0894,1,4,166,68,1,threeone,,,,,,,,,,,,,,,,,,,,,,,,,,,,,,,,,,,,,,,,,,,,,,,,,,,,,,,,,,,,,,,,,,,,,,,,,,,,,,,,,,,,,,,,,,,,,,,,,,,,,,,,,,,,,,,,,,,,,,,,,,,,,,,,,,,,,,,,,
,,5d4dddbd3f4ed60001300679,2024-02-21_22h25.48.162,kallum_motion_pilot,2023.2.2,MacIntel,59.52380952,5d4dddbd3f4ed60001300679,65d6bb0e977760de756971f7,65d6be986941bacdccd541d6,0.0896,0.0897,1,5,167,111,1,eightseven,,,,,,,,,,,,,,,,,,,,,,,,,,,,,,,,,,,,,,,,,,,,,,,,,,,,,,,,,,,,,,,,,,,,,,,,,,,,,,,,,,,,,,,,,,,,,,,,,,,,,,,,,,,,,,,,,,,,,,,,,,,,,,,,,,,,,,,,,
,,5d4dddbd3f4ed60001300679,2024-02-21_22h25.48.162,kallum_motion_pilot,2023.2.2,MacIntel,59.52380952,5d4dddbd3f4ed60001300679,65d6bb0e977760de756971f7,65d6be986941bacdccd541d6,0.0899,0.0899,1,6,168,4,1,threeone,,,,,,,,,,,,,,,,,,,,,,,,,,,,,,,,,,,,,,,,,,,,,,,,,,,,,,,,,,,,,,,,,,,,,,,,,,,,,,,,,,,,,,,,,,,,,,,,,,,,,,,,,,,,,,,,,,,,,,,,,,,,,,,,,,,,,,,,,
,,5d4dddbd3f4ed60001300679,2024-02-21_22h25.48.162,kallum_motion_pilot,2023.2.2,MacIntel,59.52380952,5d4dddbd3f4ed60001300679,65d6bb0e977760de756971f7,65d6be986941bacdccd541d6,0.0901,0.0902,1,7,169,85,1,seveneight,,,,,,,,,,,,,,,,,,,,,,,,,,,,,,,,,,,,,,,,,,,,,,,,,,,,,,,,,,,,,,,,,,,,,,,,,,,,,,,,,,,,,,,,,,,,,,,,,,,,,,,,,,,,,,,,,,,,,,,,,,,,,,,,,,,,,,,,,
,,5d4dddbd3f4ed60001300679,2024-02-21_22h25.48.162,kallum_motion_pilot,2023.2.2,MacIntel,59.52380952,5d4dddbd3f4ed60001300679,65d6bb0e977760de756971f7,65d6be986941bacdccd541d6,0.0903,0.0904,1,8,170,17,1,onethree,,,,,,,,,,,,,,,,,,,,,,,,,,,,,,,,,,,,,,,,,,,,,,,,,,,,,,,,,,,,,,,,,,,,,,,,,,,,,,,,,,,,,,,,,,,,,,,,,,,,,,,,,,,,,,,,,,,,,,,,,,,,,,,,,,,,,,,,,
,,5d4dddbd3f4ed60001300679,2024-02-21_22h25.48.162,kallum_motion_pilot,2023.2.2,MacIntel,59.52380952,5d4dddbd3f4ed60001300679,65d6bb0e977760de756971f7,65d6be986941bacdccd541d6,0.0906,0.0907,1,9,171,101,1,seveneight,,,,,,,,,,,,,,,,,,,,,,,,,,,,,,,,,,,,,,,,,,,,,,,,,,,,,,,,,,,,,,,,,,,,,,,,,,,,,,,,,,,,,,,,,,,,,,,,,,,,,,,,,,,,,,,,,,,,,,,,,,,,,,,,,,,,,,,,,
,,5d4dddbd3f4ed60001300679,2024-02-21_22h25.48.162,kallum_motion_pilot,2023.2.2,MacIntel,59.52380952,5d4dddbd3f4ed60001300679,65d6bb0e977760de756971f7,65d6be986941bacdccd541d6,0.0909,0.091,1,10,172,13,1,threefour,,,,,,,,,,,,,,,,,,,,,,,,,,,,,,,,,,,,,,,,,,,,,,,,,,,,,,,,,,,,,,,,,,,,,,,,,,,,,,,,,,,,,,,,,,,,,,,,,,,,,,,,,,,,,,,,,,,,,,,,,,,,,,,,,,,,,,,,,
,,5d4dddbd3f4ed60001300679,2024-02-21_22h25.48.162,kallum_motion_pilot,2023.2.2,MacIntel,59.52380952,5d4dddbd3f4ed60001300679,65d6bb0e977760de756971f7,65d6be986941bacdccd541d6,0.0911,0.0912,1,11,173,7,1,fourthree,,,,,,,,,,,,,,,,,,,,,,,,,,,,,,,,,,,,,,,,,,,,,,,,,,,,,,,,,,,,,,,,,,,,,,,,,,,,,,,,,,,,,,,,,,,,,,,,,,,,,,,,,,,,,,,,,,,,,,,,,,,,,,,,,,,,,,,,,
,,5d4dddbd3f4ed60001300679,2024-02-21_22h25.48.162,kallum_motion_pilot,2023.2.2,MacIntel,59.52380952,5d4dddbd3f4ed60001300679,65d6bb0e977760de756971f7,65d6be986941bacdccd541d6,0.0913,0.0914,1,12,174,136,1,fivesix,,,,,,,,,,,,,,,,,,,,,,,,,,,,,,,,,,,,,,,,,,,,,,,,,,,,,,,,,,,,,,,,,,,,,,,,,,,,,,,,,,,,,,,,,,,,,,,,,,,,,,,,,,,,,,,,,,,,,,,,,,,,,,,,,,,,,,,,,
,,5d4dddbd3f4ed60001300679,2024-02-21_22h25.48.162,kallum_motion_pilot,2023.2.2,MacIntel,59.52380952,5d4dddbd3f4ed60001300679,65d6bb0e977760de756971f7,65d6be986941bacdccd541d6,0.0916,0.0916,1,13,175,148,1,sevenfive,,,,,,,,,,,,,,,,,,,,,,,,,,,,,,,,,,,,,,,,,,,,,,,,,,,,,,,,,,,,,,,,,,,,,,,,,,,,,,,,,,,,,,,,,,,,,,,,,,,,,,,,,,,,,,,,,,,,,,,,,,,,,,,,,,,,,,,,,
,,5d4dddbd3f4ed60001300679,2024-02-21_22h25.48.162,kallum_motion_pilot,2023.2.2,MacIntel,59.52380952,5d4dddbd3f4ed60001300679,65d6bb0e977760de756971f7,65d6be986941bacdccd541d6,0.0917,0.0918,1,14,176,127,1,eightseven,,,,,,,,,,,,,,,,,,,,,,,,,,,,,,,,,,,,,,,,,,,,,,,,,,,,,,,,,,,,,,,,,,,,,,,,,,,,,,,,,,,,,,,,,,,,,,,,,,,,,,,,,,,,,,,,,,,,,,,,,,,,,,,,,,,,,,,,,
,,5d4dddbd3f4ed60001300679,2024-02-21_22h25.48.162,kallum_motion_pilot,2023.2.2,MacIntel,59.52380952,5d4dddbd3f4ed60001300679,65d6bb0e977760de756971f7,65d6be986941bacdccd541d6,0.0919,0.092,1,15,177,138,1,sixfive,,,,,,,,,,,,,,,,,,,,,,,,,,,,,,,,,,,,,,,,,,,,,,,,,,,,,,,,,,,,,,,,,,,,,,,,,,,,,,,,,,,,,,,,,,,,,,,,,,,,,,,,,,,,,,,,,,,,,,,,,,,,,,,,,,,,,,,,,
,,5d4dddbd3f4ed60001300679,2024-02-21_22h25.48.162,kallum_motion_pilot,2023.2.2,MacIntel,59.52380952,5d4dddbd3f4ed60001300679,65d6bb0e977760de756971f7,65d6be986941bacdccd541d6,0.0922,0.0922,1,16,178,53,1,threefour,,,,,,,,,,,,,,,,,,,,,,,,,,,,,,,,,,,,,,,,,,,,,,,,,,,,,,,,,,,,,,,,,,,,,,,,,,,,,,,,,,,,,,,,,,,,,,,,,,,,,,,,,,,,,,,,,,,,,,,,,,,,,,,,,,,,,,,,,
,,5d4dddbd3f4ed60001300679,2024-02-21_22h25.48.162,kallum_motion_pilot,2023.2.2,MacIntel,59.52380952,5d4dddbd3f4ed60001300679,65d6bb0e977760de756971f7,65d6be986941bacdccd541d6,0.0924,0.0925,1,17,179,5,1,threefour,,,,,,,,,,,,,,,,,,,,,,,,,,,,,,,,,,,,,,,,,,,,,,,,,,,,,,,,,,,,,,,,,,,,,,,,,,,,,,,,,,,,,,,,,,,,,,,,,,,,,,,,,,,,,,,,,,,,,,,,,,,,,,,,,,,,,,,,,
,,5d4dddbd3f4ed60001300679,2024-02-21_22h25.48.162,kallum_motion_pilot,2023.2.2,MacIntel,59.52380952,5d4dddbd3f4ed60001300679,65d6bb0e977760de756971f7,65d6be986941bacdccd541d6,0.0927,0.0927,1,18,180,96,1,fivesix,,,,,,,,,,,,,,,,,,,,,,,,,,,,,,,,,,,,,,,,,,,,,,,,,,,,,,,,,,,,,,,,,,,,,,,,,,,,,,,,,,,,,,,,,,,,,,,,,,,,,,,,,,,,,,,,,,,,,,,,,,,,,,,,,,,,,,,,,
,,5d4dddbd3f4ed60001300679,2024-02-21_22h25.48.162,kallum_motion_pilot,2023.2.2,MacIntel,59.52380952,5d4dddbd3f4ed60001300679,65d6bb0e977760de756971f7,65d6be986941bacdccd541d6,0.0929,0.0929,1,19,181,20,1,threeone,,,,,,,,,,,,,,,,,,,,,,,,,,,,,,,,,,,,,,,,,,,,,,,,,,,,,,,,,,,,,,,,,,,,,,,,,,,,,,,,,,,,,,,,,,,,,,,,,,,,,,,,,,,,,,,,,,,,,,,,,,,,,,,,,,,,,,,,,
,,5d4dddbd3f4ed60001300679,2024-02-21_22h25.48.162,kallum_motion_pilot,2023.2.2,MacIntel,59.52380952,5d4dddbd3f4ed60001300679,65d6bb0e977760de756971f7,65d6be986941bacdccd541d6,0.0931,0.0932,1,20,182,132,1,sevenfive,,,,,,,,,,,,,,,,,,,,,,,,,,,,,,,,,,,,,,,,,,,,,,,,,,,,,,,,,,,,,,,,,,,,,,,,,,,,,,,,,,,,,,,,,,,,,,,,,,,,,,,,,,,,,,,,,,,,,,,,,,,,,,,,,,,,,,,,,
,,5d4dddbd3f4ed60001300679,2024-02-21_22h25.48.162,kallum_motion_pilot,2023.2.2,MacIntel,59.52380952,5d4dddbd3f4ed60001300679,65d6bb0e977760de756971f7,65d6be986941bacdccd541d6,0.0933,0.0934,1,21,183,29,1,threefour,,,,,,,,,,,,,,,,,,,,,,,,,,,,,,,,,,,,,,,,,,,,,,,,,,,,,,,,,,,,,,,,,,,,,,,,,,,,,,,,,,,,,,,,,,,,,,,,,,,,,,,,,,,,,,,,,,,,,,,,,,,,,,,,,,,,,,,,,
,,5d4dddbd3f4ed60001300679,2024-02-21_22h25.48.162,kallum_motion_pilot,2023.2.2,MacIntel,59.52380952,5d4dddbd3f4ed60001300679,65d6bb0e977760de756971f7,65d6be986941bacdccd541d6,0.0935,0.0936,1,22,184,73,1,onethree,,,,,,,,,,,,,,,,,,,,,,,,,,,,,,,,,,,,,,,,,,,,,,,,,,,,,,,,,,,,,,,,,,,,,,,,,,,,,,,,,,,,,,,,,,,,,,,,,,,,,,,,,,,,,,,,,,,,,,,,,,,,,,,,,,,,,,,,,
,,5d4dddbd3f4ed60001300679,2024-02-21_22h25.48.162,kallum_motion_pilot,2023.2.2,MacIntel,59.52380952,5d4dddbd3f4ed60001300679,65d6bb0e977760de756971f7,65d6be986941bacdccd541d6,0.0938,0.0938,1,23,185,35,1,twofour,,,,,,,,,,,,,,,,,,,,,,,,,,,,,,,,,,,,,,,,,,,,,,,,,,,,,,,,,,,,,,,,,,,,,,,,,,,,,,,,,,,,,,,,,,,,,,,,,,,,,,,,,,,,,,,,,,,,,,,,,,,,,,,,,,,,,,,,,
,,5d4dddbd3f4ed60001300679,2024-02-21_22h25.48.162,kallum_motion_pilot,2023.2.2,MacIntel,59.52380952,5d4dddbd3f4ed60001300679,65d6bb0e977760de756971f7,65d6be986941bacdccd541d6,0.094,0.094,1,24,186,18,1,twoone,,,,,,,,,,,,,,,,,,,,,,,,,,,,,,,,,,,,,,,,,,,,,,,,,,,,,,,,,,,,,,,,,,,,,,,,,,,,,,,,,,,,,,,,,,,,,,,,,,,,,,,,,,,,,,,,,,,,,,,,,,,,,,,,,,,,,,,,,
,,5d4dddbd3f4ed60001300679,2024-02-21_22h25.48.162,kallum_motion_pilot,2023.2.2,MacIntel,59.52380952,5d4dddbd3f4ed60001300679,65d6bb0e977760de756971f7,65d6be986941bacdccd541d6,0.0943,0.0943,1,25,187,134,1,eightsix,,,,,,,,,,,,,,,,,,,,,,,,,,,,,,,,,,,,,,,,,,,,,,,,,,,,,,,,,,,,,,,,,,,,,,,,,,,,,,,,,,,,,,,,,,,,,,,,,,,,,,,,,,,,,,,,,,,,,,,,,,,,,,,,,,,,,,,,,
,,5d4dddbd3f4ed60001300679,2024-02-21_22h25.48.162,kallum_motion_pilot,2023.2.2,MacIntel,59.52380952,5d4dddbd3f4ed60001300679,65d6bb0e977760de756971f7,65d6be986941bacdccd541d6,0.0945,0.0946,1,26,188,70,1,fourtwo,,,,,,,,,,,,,,,,,,,,,,,,,,,,,,,,,,,,,,,,,,,,,,,,,,,,,,,,,,,,,,,,,,,,,,,,,,,,,,,,,,,,,,,,,,,,,,,,,,,,,,,,,,,,,,,,,,,,,,,,,,,,,,,,,,,,,,,,,
,,5d4dddbd3f4ed60001300679,2024-02-21_22h25.48.162,kallum_motion_pilot,2023.2.2,MacIntel,59.52380952,5d4dddbd3f4ed60001300679,65d6bb0e977760de756971f7,65d6be986941bacdccd541d6,0.0947,0.095,1,27,189,78,1,fourtwo,,,,,,,,,,,,,,,,,,,,,,,,,,,,,,,,,,,,,,,,,,,,,,,,,,,,,,,,,,,,,,,,,,,,,,,,,,,,,,,,,,,,,,,,,,,,,,,,,,,,,,,,,,,,,,,,,,,,,,,,,,,,,,,,,,,,,,,,,
,,5d4dddbd3f4ed60001300679,2024-02-21_22h25.48.162,kallum_motion_pilot,2023.2.2,MacIntel,59.52380952,5d4dddbd3f4ed60001300679,65d6bb0e977760de756971f7,65d6be986941bacdccd541d6,0.0952,0.0955,1,28,190,79,1,eightseven,,,,,,,,,,,,,,,,,,,,,,,,,,,,,,,,,,,,,,,,,,,,,,,,,,,,,,,,,,,,,,,,,,,,,,,,,,,,,,,,,,,,,,,,,,,,,,,,,,,,,,,,,,,,,,,,,,,,,,,,,,,,,,,,,,,,,,,,,
,,5d4dddbd3f4ed60001300679,2024-02-21_22h25.48.162,kallum_motion_pilot,2023.2.2,MacIntel,59.52380952,5d4dddbd3f4ed60001300679,65d6bb0e977760de756971f7,65d6be986941bacdccd541d6,0.0957,0.0958,1,29,191,10,1,twoone,,,,,,,,,,,,,,,,,,,,,,,,,,,,,,,,,,,,,,,,,,,,,,,,,,,,,,,,,,,,,,,,,,,,,,,,,,,,,,,,,,,,,,,,,,,,,,,,,,,,,,,,,,,,,,,,,,,,,,,,,,,,,,,,,,,,,,,,,
,,5d4dddbd3f4ed60001300679,2024-02-21_22h25.48.162,kallum_motion_pilot,2023.2.2,MacIntel,59.52380952,5d4dddbd3f4ed60001300679,65d6bb0e977760de756971f7,65d6be986941bacdccd541d6,0.0959,0.096,1,30,192,114,1,sixfive,,,,,,,,,,,,,,,,,,,,,,,,,,,,,,,,,,,,,,,,,,,,,,,,,,,,,,,,,,,,,,,,,,,,,,,,,,,,,,,,,,,,,,,,,,,,,,,,,,,,,,,,,,,,,,,,,,,,,,,,,,,,,,,,,,,,,,,,,
,,5d4dddbd3f4ed60001300679,2024-02-21_22h25.48.162,kallum_motion_pilot,2023.2.2,MacIntel,59.52380952,5d4dddbd3f4ed60001300679,65d6bb0e977760de756971f7,65d6be986941bacdccd541d6,0.0962,0.0963,1,31,193,21,1,threefour,,,,,,,,,,,,,,,,,,,,,,,,,,,,,,,,,,,,,,,,,,,,,,,,,,,,,,,,,,,,,,,,,,,,,,,,,,,,,,,,,,,,,,,,,,,,,,,,,,,,,,,,,,,,,,,,,,,,,,,,,,,,,,,,,,,,,,,,,
,,5d4dddbd3f4ed60001300679,2024-02-21_22h25.48.162,kallum_motion_pilot,2023.2.2,MacIntel,59.52380952,5d4dddbd3f4ed60001300679,65d6bb0e977760de756971f7,65d6be986941bacdccd541d6,0.0964,0.0965,1,32,194,0,1,onetwo,,,,,,,,,,,,,,,,,,,,,,,,,,,,,,,,,,,,,,,,,,,,,,,,,,,,,,,,,,,,,,,,,,,,,,,,,,,,,,,,,,,,,,,,,,,,,,,,,,,,,,,,,,,,,,,,,,,,,,,,,,,,,,,,,,,,,,,,,
,,5d4dddbd3f4ed60001300679,2024-02-21_22h25.48.162,kallum_motion_pilot,2023.2.2,MacIntel,59.52380952,5d4dddbd3f4ed60001300679,65d6bb0e977760de756971f7,65d6be986941bacdccd541d6,0.0966,0.0967,1,33,195,102,1,eightsix,,,,,,,,,,,,,,,,,,,,,,,,,,,,,,,,,,,,,,,,,,,,,,,,,,,,,,,,,,,,,,,,,,,,,,,,,,,,,,,,,,,,,,,,,,,,,,,,,,,,,,,,,,,,,,,,,,,,,,,,,,,,,,,,,,,,,,,,,
,,5d4dddbd3f4ed60001300679,2024-02-21_22h25.48.162,kallum_motion_pilot,2023.2.2,MacIntel,59.52380952,5d4dddbd3f4ed60001300679,65d6bb0e977760de756971f7,65d6be986941bacdccd541d6,0.0969,0.097,1,34,196,75,1,twofour,,,,,,,,,,,,,,,,,,,,,,,,,,,,,,,,,,,,,,,,,,,,,,,,,,,,,,,,,,,,,,,,,,,,,,,,,,,,,,,,,,,,,,,,,,,,,,,,,,,,,,,,,,,,,,,,,,,,,,,,,,,,,,,,,,,,,,,,,
,,5d4dddbd3f4ed60001300679,2024-02-21_22h25.48.162,kallum_motion_pilot,2023.2.2,MacIntel,59.52380952,5d4dddbd3f4ed60001300679,65d6bb0e977760de756971f7,65d6be986941bacdccd541d6,0.0971,0.0971,1,35,197,119,1,eightseven,,,,,,,,,,,,,,,,,,,,,,,,,,,,,,,,,,,,,,,,,,,,,,,,,,,,,,,,,,,,,,,,,,,,,,,,,,,,,,,,,,,,,,,,,,,,,,,,,,,,,,,,,,,,,,,,,,,,,,,,,,,,,,,,,,,,,,,,,
,,5d4dddbd3f4ed60001300679,2024-02-21_22h25.48.162,kallum_motion_pilot,2023.2.2,MacIntel,59.52380952,5d4dddbd3f4ed60001300679,65d6bb0e977760de756971f7,65d6be986941bacdccd541d6,0.0975,0.0976,1,36,198,11,1,twofour,,,,,,,,,,,,,,,,,,,,,,,,,,,,,,,,,,,,,,,,,,,,,,,,,,,,,,,,,,,,,,,,,,,,,,,,,,,,,,,,,,,,,,,,,,,,,,,,,,,,,,,,,,,,,,,,,,,,,,,,,,,,,,,,,,,,,,,,,
,,5d4dddbd3f4ed60001300679,2024-02-21_22h25.48.162,kallum_motion_pilot,2023.2.2,MacIntel,59.52380952,5d4dddbd3f4ed60001300679,65d6bb0e977760de756971f7,65d6be986941bacdccd541d6,0.0978,0.0979,1,37,199,97,1,fiveseven,,,,,,,,,,,,,,,,,,,,,,,,,,,,,,,,,,,,,,,,,,,,,,,,,,,,,,,,,,,,,,,,,,,,,,,,,,,,,,,,,,,,,,,,,,,,,,,,,,,,,,,,,,,,,,,,,,,,,,,,,,,,,,,,,,,,,,,,,
,,5d4dddbd3f4ed60001300679,2024-02-21_22h25.48.162,kallum_motion_pilot,2023.2.2,MacIntel,59.52380952,5d4dddbd3f4ed60001300679,65d6bb0e977760de756971f7,65d6be986941bacdccd541d6,0.0981,0.0981,1,38,200,28,1,threeone,,,,,,,,,,,,,,,,,,,,,,,,,,,,,,,,,,,,,,,,,,,,,,,,,,,,,,,,,,,,,,,,,,,,,,,,,,,,,,,,,,,,,,,,,,,,,,,,,,,,,,,,,,,,,,,,,,,,,,,,,,,,,,,,,,,,,,,,,
,,5d4dddbd3f4ed60001300679,2024-02-21_22h25.48.162,kallum_motion_pilot,2023.2.2,MacIntel,59.52380952,5d4dddbd3f4ed60001300679,65d6bb0e977760de756971f7,65d6be986941bacdccd541d6,0.0982,0.0984,1,39,201,91,1,sixeight,,,,,,,,,,,,,,,,,,,,,,,,,,,,,,,,,,,,,,,,,,,,,,,,,,,,,,,,,,,,,,,,,,,,,,,,,,,,,,,,,,,,,,,,,,,,,,,,,,,,,,,,,,,,,,,,,,,,,,,,,,,,,,,,,,,,,,,,,
,,5d4dddbd3f4ed60001300679,2024-02-21_22h25.48.162,kallum_motion_pilot,2023.2.2,MacIntel,59.52380952,5d4dddbd3f4ed60001300679,65d6bb0e977760de756971f7,65d6be986941bacdccd541d6,0.0984,0.0985,1,40,202,37,1,threefour,,,,,,,,,,,,,,,,,,,,,,,,,,,,,,,,,,,,,,,,,,,,,,,,,,,,,,,,,,,,,,,,,,,,,,,,,,,,,,,,,,,,,,,,,,,,,,,,,,,,,,,,,,,,,,,,,,,,,,,,,,,,,,,,,,,,,,,,,
,,5d4dddbd3f4ed60001300679,2024-02-21_22h25.48.162,kallum_motion_pilot,2023.2.2,MacIntel,59.52380952,5d4dddbd3f4ed60001300679,65d6bb0e977760de756971f7,65d6be986941bacdccd541d6,0.0986,0.0988,1,41,203,107,1,sixeight,,,,,,,,,,,,,,,,,,,,,,,,,,,,,,,,,,,,,,,,,,,,,,,,,,,,,,,,,,,,,,,,,,,,,,,,,,,,,,,,,,,,,,,,,,,,,,,,,,,,,,,,,,,,,,,,,,,,,,,,,,,,,,,,,,,,,,,,,
,,5d4dddbd3f4ed60001300679,2024-02-21_22h25.48.162,kallum_motion_pilot,2023.2.2,MacIntel,59.52380952,5d4dddbd3f4ed60001300679,65d6bb0e977760de756971f7,65d6be986941bacdccd541d6,0.099,0.0991,1,42,204,105,1,fiveseven,,,,,,,,,,,,,,,,,,,,,,,,,,,,,,,,,,,,,,,,,,,,,,,,,,,,,,,,,,,,,,,,,,,,,,,,,,,,,,,,,,,,,,,,,,,,,,,,,,,,,,,,,,,,,,,,,,,,,,,,,,,,,,,,,,,,,,,,,
,,5d4dddbd3f4ed60001300679,2024-02-21_22h25.48.162,kallum_motion_pilot,2023.2.2,MacIntel,59.52380952,5d4dddbd3f4ed60001300679,65d6bb0e977760de756971f7,65d6be986941bacdccd541d6,0.0992,0.0998,1,43,205,6,1,fourtwo,,,,,,,,,,,,,,,,,,,,,,,,,,,,,,,,,,,,,,,,,,,,,,,,,,,,,,,,,,,,,,,,,,,,,,,,,,,,,,,,,,,,,,,,,,,,,,,,,,,,,,,,,,,,,,,,,,,,,,,,,,,,,,,,,,,,,,,,,
,,5d4dddbd3f4ed60001300679,2024-02-21_22h25.48.162,kallum_motion_pilot,2023.2.2,MacIntel,59.52380952,5d4dddbd3f4ed60001300679,65d6bb0e977760de756971f7,65d6be986941bacdccd541d6,0.1,0.1004,1,44,206,32,1,onetwo,,,,,,,,,,,,,,,,,,,,,,,,,,,,,,,,,,,,,,,,,,,,,,,,,,,,,,,,,,,,,,,,,,,,,,,,,,,,,,,,,,,,,,,,,,,,,,,,,,,,,,,,,,,,,,,,,,,,,,,,,,,,,,,,,,,,,,,,,
,,5d4dddbd3f4ed60001300679,2024-02-21_22h25.48.162,kallum_motion_pilot,2023.2.2,MacIntel,59.52380952,5d4dddbd3f4ed60001300679,65d6bb0e977760de756971f7,65d6be986941bacdccd541d6,0.1015,0.1016,1,45,207,45,1,threefour,,,,,,,,,,,,,,,,,,,,,,,,,,,,,,,,,,,,,,,,,,,,,,,,,,,,,,,,,,,,,,,,,,,,,,,,,,,,,,,,,,,,,,,,,,,,,,,,,,,,,,,,,,,,,,,,,,,,,,,,,,,,,,,,,,,,,,,,,
,,5d4dddbd3f4ed60001300679,2024-02-21_22h25.48.162,kallum_motion_pilot,2023.2.2,MacIntel,59.52380952,5d4dddbd3f4ed60001300679,65d6bb0e977760de756971f7,65d6be986941bacdccd541d6,0.1018,0.1019,1,46,208,99,1,sixeight,,,,,,,,,,,,,,,,,,,,,,,,,,,,,,,,,,,,,,,,,,,,,,,,,,,,,,,,,,,,,,,,,,,,,,,,,,,,,,,,,,,,,,,,,,,,,,,,,,,,,,,,,,,,,,,,,,,,,,,,,,,,,,,,,,,,,,,,,
,,5d4dddbd3f4ed60001300679,2024-02-21_22h25.48.162,kallum_motion_pilot,2023.2.2,MacIntel,59.52380952,5d4dddbd3f4ed60001300679,65d6bb0e977760de756971f7,65d6be986941bacdccd541d6,0.102,0.1021,1,47,209,137,1,fiveseven,,,,,,,,,,,,,,,,,,,,,,,,,,,,,,,,,,,,,,,,,,,,,,,,,,,,,,,,,,,,,,,,,,,,,,,,,,,,,,,,,,,,,,,,,,,,,,,,,,,,,,,,,,,,,,,,,,,,,,,,,,,,,,,,,,,,,,,,,
,,5d4dddbd3f4ed60001300679,2024-02-21_22h25.48.162,kallum_motion_pilot,2023.2.2,MacIntel,59.52380952,5d4dddbd3f4ed60001300679,65d6bb0e977760de756971f7,65d6be986941bacdccd541d6,0.1023,0.1024,1,48,210,131,1,sixeight,,,,,,,,,,,,,,,,,,,,,,,,,,,,,,,,,,,,,,,,,,,,,,,,,,,,,,,,,,,,,,,,,,,,,,,,,,,,,,,,,,,,,,,,,,,,,,,,,,,,,,,,,,,,,,,,,,,,,,,,,,,,,,,,,,,,,,,,,
,,5d4dddbd3f4ed60001300679,2024-02-21_22h25.48.162,kallum_motion_pilot,2023.2.2,MacIntel,59.52380952,5d4dddbd3f4ed60001300679,65d6bb0e977760de756971f7,65d6be986941bacdccd541d6,0.1026,0.1027,1,49,211,14,1,fourtwo,,,,,,,,,,,,,,,,,,,,,,,,,,,,,,,,,,,,,,,,,,,,,,,,,,,,,,,,,,,,,,,,,,,,,,,,,,,,,,,,,,,,,,,,,,,,,,,,,,,,,,,,,,,,,,,,,,,,,,,,,,,,,,,,,,,,,,,,,
,,5d4dddbd3f4ed60001300679,2024-02-21_22h25.48.162,kallum_motion_pilot,2023.2.2,MacIntel,59.52380952,5d4dddbd3f4ed60001300679,65d6bb0e977760de756971f7,65d6be986941bacdccd541d6,0.1029,0.1029,1,50,212,133,1,seveneight,,,,,,,,,,,,,,,,,,,,,,,,,,,,,,,,,,,,,,,,,,,,,,,,,,,,,,,,,,,,,,,,,,,,,,,,,,,,,,,,,,,,,,,,,,,,,,,,,,,,,,,,,,,,,,,,,,,,,,,,,,,,,,,,,,,,,,,,,
,,5d4dddbd3f4ed60001300679,2024-02-21_22h25.48.162,kallum_motion_pilot,2023.2.2,MacIntel,59.52380952,5d4dddbd3f4ed60001300679,65d6bb0e977760de756971f7,65d6be986941bacdccd541d6,0.103,0.1031,1,51,213,82,1,sixfive,,,,,,,,,,,,,,,,,,,,,,,,,,,,,,,,,,,,,,,,,,,,,,,,,,,,,,,,,,,,,,,,,,,,,,,,,,,,,,,,,,,,,,,,,,,,,,,,,,,,,,,,,,,,,,,,,,,,,,,,,,,,,,,,,,,,,,,,,
,,5d4dddbd3f4ed60001300679,2024-02-21_22h25.48.162,kallum_motion_pilot,2023.2.2,MacIntel,59.52380952,5d4dddbd3f4ed60001300679,65d6bb0e977760de756971f7,65d6be986941bacdccd541d6,0.1033,0.1034,1,52,214,25,1,onethree,,,,,,,,,,,,,,,,,,,,,,,,,,,,,,,,,,,,,,,,,,,,,,,,,,,,,,,,,,,,,,,,,,,,,,,,,,,,,,,,,,,,,,,,,,,,,,,,,,,,,,,,,,,,,,,,,,,,,,,,,,,,,,,,,,,,,,,,,
,,5d4dddbd3f4ed60001300679,2024-02-21_22h25.48.162,kallum_motion_pilot,2023.2.2,MacIntel,59.52380952,5d4dddbd3f4ed60001300679,65d6bb0e977760de756971f7,65d6be986941bacdccd541d6,0.1035,0.1036,1,53,215,59,1,twofour,,,,,,,,,,,,,,,,,,,,,,,,,,,,,,,,,,,,,,,,,,,,,,,,,,,,,,,,,,,,,,,,,,,,,,,,,,,,,,,,,,,,,,,,,,,,,,,,,,,,,,,,,,,,,,,,,,,,,,,,,,,,,,,,,,,,,,,,,
,,5d4dddbd3f4ed60001300679,2024-02-21_22h25.48.162,kallum_motion_pilot,2023.2.2,MacIntel,59.52380952,5d4dddbd3f4ed60001300679,65d6bb0e977760de756971f7,65d6be986941bacdccd541d6,0.1037,0.1038,1,54,216,121,1,fiveseven,,,,,,,,,,,,,,,,,,,,,,,,,,,,,,,,,,,,,,,,,,,,,,,,,,,,,,,,,,,,,,,,,,,,,,,,,,,,,,,,,,,,,,,,,,,,,,,,,,,,,,,,,,,,,,,,,,,,,,,,,,,,,,,,,,,,,,,,,
,,5d4dddbd3f4ed60001300679,2024-02-21_22h25.48.162,kallum_motion_pilot,2023.2.2,MacIntel,59.52380952,5d4dddbd3f4ed60001300679,65d6bb0e977760de756971f7,65d6be986941bacdccd541d6,0.1039,0.104,1,55,217,135,1,eightseven,,,,,,,,,,,,,,,,,,,,,,,,,,,,,,,,,,,,,,,,,,,,,,,,,,,,,,,,,,,,,,,,,,,,,,,,,,,,,,,,,,,,,,,,,,,,,,,,,,,,,,,,,,,,,,,,,,,,,,,,,,,,,,,,,,,,,,,,,
,,5d4dddbd3f4ed60001300679,2024-02-21_22h25.48.162,kallum_motion_pilot,2023.2.2,MacIntel,59.52380952,5d4dddbd3f4ed60001300679,65d6bb0e977760de756971f7,65d6be986941bacdccd541d6,0.1043,0.1044,1,56,218,3,1,twofour,,,,,,,,,,,,,,,,,,,,,,,,,,,,,,,,,,,,,,,,,,,,,,,,,,,,,,,,,,,,,,,,,,,,,,,,,,,,,,,,,,,,,,,,,,,,,,,,,,,,,,,,,,,,,,,,,,,,,,,,,,,,,,,,,,,,,,,,,
,,5d4dddbd3f4ed60001300679,2024-02-21_22h25.48.162,kallum_motion_pilot,2023.2.2,MacIntel,59.52380952,5d4dddbd3f4ed60001300679,65d6bb0e977760de756971f7,65d6be986941bacdccd541d6,0.1046,0.1046,1,57,219,72,1,onetwo,,,,,,,,,,,,,,,,,,,,,,,,,,,,,,,,,,,,,,,,,,,,,,,,,,,,,,,,,,,,,,,,,,,,,,,,,,,,,,,,,,,,,,,,,,,,,,,,,,,,,,,,,,,,,,,,,,,,,,,,,,,,,,,,,,,,,,,,,
,,5d4dddbd3f4ed60001300679,2024-02-21_22h25.48.162,kallum_motion_pilot,2023.2.2,MacIntel,59.52380952,5d4dddbd3f4ed60001300679,65d6bb0e977760de756971f7,65d6be986941bacdccd541d6,0.1048,0.1049,1,58,220,92,1,sevenfive,,,,,,,,,,,,,,,,,,,,,,,,,,,,,,,,,,,,,,,,,,,,,,,,,,,,,,,,,,,,,,,,,,,,,,,,,,,,,,,,,,,,,,,,,,,,,,,,,,,,,,,,,,,,,,,,,,,,,,,,,,,,,,,,,,,,,,,,,
,,5d4dddbd3f4ed60001300679,2024-02-21_22h25.48.162,kallum_motion_pilot,2023.2.2,MacIntel,59.52380952,5d4dddbd3f4ed60001300679,65d6bb0e977760de756971f7,65d6be986941bacdccd541d6,0.105,0.1051,1,59,221,56,1,onetwo,,,,,,,,,,,,,,,,,,,,,,,,,,,,,,,,,,,,,,,,,,,,,,,,,,,,,,,,,,,,,,,,,,,,,,,,,,,,,,,,,,,,,,,,,,,,,,,,,,,,,,,,,,,,,,,,,,,,,,,,,,,,,,,,,,,,,,,,,
,,5d4dddbd3f4ed60001300679,2024-02-21_22h25.48.162,kallum_motion_pilot,2023.2.2,MacIntel,59.52380952,5d4dddbd3f4ed60001300679,65d6bb0e977760de756971f7,65d6be986941bacdccd541d6,0.1052,0.1056,1,60,222,154,1,sixfive,,,,,,,,,,,,,,,,,,,,,,,,,,,,,,,,,,,,,,,,,,,,,,,,,,,,,,,,,,,,,,,,,,,,,,,,,,,,,,,,,,,,,,,,,,,,,,,,,,,,,,,,,,,,,,,,,,,,,,,,,,,,,,,,,,,,,,,,,
,,5d4dddbd3f4ed60001300679,2024-02-21_22h25.48.162,kallum_motion_pilot,2023.2.2,MacIntel,59.52380952,5d4dddbd3f4ed60001300679,65d6bb0e977760de756971f7,65d6be986941bacdccd541d6,0.1057,0.1059,1,61,223,62,1,fourtwo,,,,,,,,,,,,,,,,,,,,,,,,,,,,,,,,,,,,,,,,,,,,,,,,,,,,,,,,,,,,,,,,,,,,,,,,,,,,,,,,,,,,,,,,,,,,,,,,,,,,,,,,,,,,,,,,,,,,,,,,,,,,,,,,,,,,,,,,,
,,5d4dddbd3f4ed60001300679,2024-02-21_22h25.48.162,kallum_motion_pilot,2023.2.2,MacIntel,59.52380952,5d4dddbd3f4ed60001300679,65d6bb0e977760de756971f7,65d6be986941bacdccd541d6,0.106,0.1062,1,62,224,8,1,onetwo,,,,,,,,,,,,,,,,,,,,,,,,,,,,,,,,,,,,,,,,,,,,,,,,,,,,,,,,,,,,,,,,,,,,,,,,,,,,,,,,,,,,,,,,,,,,,,,,,,,,,,,,,,,,,,,,,,,,,,,,,,,,,,,,,,,,,,,,,
,,5d4dddbd3f4ed60001300679,2024-02-21_22h25.48.162,kallum_motion_pilot,2023.2.2,MacIntel,59.52380952,5d4dddbd3f4ed60001300679,65d6bb0e977760de756971f7,65d6be986941bacdccd541d6,0.1077,0.1078,1,63,225,1,1,onethree,,,,,,,,,,,,,,,,,,,,,,,,,,,,,,,,,,,,,,,,,,,,,,,,,,,,,,,,,,,,,,,,,,,,,,,,,,,,,,,,,,,,,,,,,,,,,,,,,,,,,,,,,,,,,,,,,,,,,,,,,,,,,,,,,,,,,,,,,
,,5d4dddbd3f4ed60001300679,2024-02-21_22h25.48.162,kallum_motion_pilot,2023.2.2,MacIntel,59.52380952,5d4dddbd3f4ed60001300679,65d6bb0e977760de756971f7,65d6be986941bacdccd541d6,0.108,0.1081,1,64,226,83,1,sixeight,,,,,,,,,,,,,,,,,,,,,,,,,,,,,,,,,,,,,,,,,,,,,,,,,,,,,,,,,,,,,,,,,,,,,,,,,,,,,,,,,,,,,,,,,,,,,,,,,,,,,,,,,,,,,,,,,,,,,,,,,,,,,,,,,,,,,,,,,
,,5d4dddbd3f4ed60001300679,2024-02-21_22h25.48.162,kallum_motion_pilot,2023.2.2,MacIntel,59.52380952,5d4dddbd3f4ed60001300679,65d6bb0e977760de756971f7,65d6be986941bacdccd541d6,0.1082,0.1083,1,65,227,15,1,fourthree,,,,,,,,,,,,,,,,,,,,,,,,,,,,,,,,,,,,,,,,,,,,,,,,,,,,,,,,,,,,,,,,,,,,,,,,,,,,,,,,,,,,,,,,,,,,,,,,,,,,,,,,,,,,,,,,,,,,,,,,,,,,,,,,,,,,,,,,,
,,5d4dddbd3f4ed60001300679,2024-02-21_22h25.48.162,kallum_motion_pilot,2023.2.2,MacIntel,59.52380952,5d4dddbd3f4ed60001300679,65d6bb0e977760de756971f7,65d6be986941bacdccd541d6,0.1084,0.1085,1,66,228,95,1,eightseven,,,,,,,,,,,,,,,,,,,,,,,,,,,,,,,,,,,,,,,,,,,,,,,,,,,,,,,,,,,,,,,,,,,,,,,,,,,,,,,,,,,,,,,,,,,,,,,,,,,,,,,,,,,,,,,,,,,,,,,,,,,,,,,,,,,,,,,,,
,,5d4dddbd3f4ed60001300679,2024-02-21_22h25.48.162,kallum_motion_pilot,2023.2.2,MacIntel,59.52380952,5d4dddbd3f4ed60001300679,65d6bb0e977760de756971f7,65d6be986941bacdccd541d6,0.1086,0.1087,1,67,229,64,1,onetwo,,,,,,,,,,,,,,,,,,,,,,,,,,,,,,,,,,,,,,,,,,,,,,,,,,,,,,,,,,,,,,,,,,,,,,,,,,,,,,,,,,,,,,,,,,,,,,,,,,,,,,,,,,,,,,,,,,,,,,,,,,,,,,,,,,,,,,,,,
,,5d4dddbd3f4ed60001300679,2024-02-21_22h25.48.162,kallum_motion_pilot,2023.2.2,MacIntel,59.52380952,5d4dddbd3f4ed60001300679,65d6bb0e977760de756971f7,65d6be986941bacdccd541d6,0.1088,0.1089,1,68,230,98,1,sixfive,,,,,,,,,,,,,,,,,,,,,,,,,,,,,,,,,,,,,,,,,,,,,,,,,,,,,,,,,,,,,,,,,,,,,,,,,,,,,,,,,,,,,,,,,,,,,,,,,,,,,,,,,,,,,,,,,,,,,,,,,,,,,,,,,,,,,,,,,
,,5d4dddbd3f4ed60001300679,2024-02-21_22h25.48.162,kallum_motion_pilot,2023.2.2,MacIntel,59.52380952,5d4dddbd3f4ed60001300679,65d6bb0e977760de756971f7,65d6be986941bacdccd541d6,0.109,0.1091,1,69,231,115,1,sixeight,,,,,,,,,,,,,,,,,,,,,,,,,,,,,,,,,,,,,,,,,,,,,,,,,,,,,,,,,,,,,,,,,,,,,,,,,,,,,,,,,,,,,,,,,,,,,,,,,,,,,,,,,,,,,,,,,,,,,,,,,,,,,,,,,,,,,,,,,
,,5d4dddbd3f4ed60001300679,2024-02-21_22h25.48.162,kallum_motion_pilot,2023.2.2,MacIntel,59.52380952,5d4dddbd3f4ed60001300679,65d6bb0e977760de756971f7,65d6be986941bacdccd541d6,0.1092,0.1093,1,70,232,161,1,fiveseven,,,,,,,,,,,,,,,,,,,,,,,,,,,,,,,,,,,,,,,,,,,,,,,,,,,,,,,,,,,,,,,,,,,,,,,,,,,,,,,,,,,,,,,,,,,,,,,,,,,,,,,,,,,,,,,,,,,,,,,,,,,,,,,,,,,,,,,,,
,,5d4dddbd3f4ed60001300679,2024-02-21_22h25.48.162,kallum_motion_pilot,2023.2.2,MacIntel,59.52380952,5d4dddbd3f4ed60001300679,65d6bb0e977760de756971f7,65d6be986941bacdccd541d6,0.1094,0.1095,1,71,233,54,1,fourtwo,,,,,,,,,,,,,,,,,,,,,,,,,,,,,,,,,,,,,,,,,,,,,,,,,,,,,,,,,,,,,,,,,,,,,,,,,,,,,,,,,,,,,,,,,,,,,,,,,,,,,,,,,,,,,,,,,,,,,,,,,,,,,,,,,,,,,,,,,
,,5d4dddbd3f4ed60001300679,2024-02-21_22h25.48.162,kallum_motion_pilot,2023.2.2,MacIntel,59.52380952,5d4dddbd3f4ed60001300679,65d6bb0e977760de756971f7,65d6be986941bacdccd541d6,0.1096,0.1097,1,72,234,67,1,twofour,,,,,,,,,,,,,,,,,,,,,,,,,,,,,,,,,,,,,,,,,,,,,,,,,,,,,,,,,,,,,,,,,,,,,,,,,,,,,,,,,,,,,,,,,,,,,,,,,,,,,,,,,,,,,,,,,,,,,,,,,,,,,,,,,,,,,,,,,
,,5d4dddbd3f4ed60001300679,2024-02-21_22h25.48.162,kallum_motion_pilot,2023.2.2,MacIntel,59.52380952,5d4dddbd3f4ed60001300679,65d6bb0e977760de756971f7,65d6be986941bacdccd541d6,0.1098,0.1099,1,73,235,71,1,fourthree,,,,,,,,,,,,,,,,,,,,,,,,,,,,,,,,,,,,,,,,,,,,,,,,,,,,,,,,,,,,,,,,,,,,,,,,,,,,,,,,,,,,,,,,,,,,,,,,,,,,,,,,,,,,,,,,,,,,,,,,,,,,,,,,,,,,,,,,,
,,5d4dddbd3f4ed60001300679,2024-02-21_22h25.48.162,kallum_motion_pilot,2023.2.2,MacIntel,59.52380952,5d4dddbd3f4ed60001300679,65d6bb0e977760de756971f7,65d6be986941bacdccd541d6,0.11,0.1101,1,74,236,27,1,twofour,,,,,,,,,,,,,,,,,,,,,,,,,,,,,,,,,,,,,,,,,,,,,,,,,,,,,,,,,,,,,,,,,,,,,,,,,,,,,,,,,,,,,,,,,,,,,,,,,,,,,,,,,,,,,,,,,,,,,,,,,,,,,,,,,,,,,,,,,
,,5d4dddbd3f4ed60001300679,2024-02-21_22h25.48.162,kallum_motion_pilot,2023.2.2,MacIntel,59.52380952,5d4dddbd3f4ed60001300679,65d6bb0e977760de756971f7,65d6be986941bacdccd541d6,0.1102,0.1103,1,75,237,76,1,threeone,,,,,,,,,,,,,,,,,,,,,,,,,,,,,,,,,,,,,,,,,,,,,,,,,,,,,,,,,,,,,,,,,,,,,,,,,,,,,,,,,,,,,,,,,,,,,,,,,,,,,,,,,,,,,,,,,,,,,,,,,,,,,,,,,,,,,,,,,
,,5d4dddbd3f4ed60001300679,2024-02-21_22h25.48.162,kallum_motion_pilot,2023.2.2,MacIntel,59.52380952,5d4dddbd3f4ed60001300679,65d6bb0e977760de756971f7,65d6be986941bacdccd541d6,0.1104,0.1105,1,76,238,51,1,twofour,,,,,,,,,,,,,,,,,,,,,,,,,,,,,,,,,,,,,,,,,,,,,,,,,,,,,,,,,,,,,,,,,,,,,,,,,,,,,,,,,,,,,,,,,,,,,,,,,,,,,,,,,,,,,,,,,,,,,,,,,,,,,,,,,,,,,,,,,
,,5d4dddbd3f4ed60001300679,2024-02-21_22h25.48.162,kallum_motion_pilot,2023.2.2,MacIntel,59.52380952,5d4dddbd3f4ed60001300679,65d6bb0e977760de756971f7,65d6be986941bacdccd541d6,0.1106,0.1106,1,77,239,120,1,fivesix,,,,,,,,,,,,,,,,,,,,,,,,,,,,,,,,,,,,,,,,,,,,,,,,,,,,,,,,,,,,,,,,,,,,,,,,,,,,,,,,,,,,,,,,,,,,,,,,,,,,,,,,,,,,,,,,,,,,,,,,,,,,,,,,,,,,,,,,,
,,5d4dddbd3f4ed60001300679,2024-02-21_22h25.48.162,kallum_motion_pilot,2023.2.2,MacIntel,59.52380952,5d4dddbd3f4ed60001300679,65d6bb0e977760de756971f7,65d6be986941bacdccd541d6,0.1107,0.1108,1,78,240,86,1,eightsix,,,,,,,,,,,,,,,,,,,,,,,,,,,,,,,,,,,,,,,,,,,,,,,,,,,,,,,,,,,,,,,,,,,,,,,,,,,,,,,,,,,,,,,,,,,,,,,,,,,,,,,,,,,,,,,,,,,,,,,,,,,,,,,,,,,,,,,,,
,,5d4dddbd3f4ed60001300679,2024-02-21_22h25.48.162,kallum_motion_pilot,2023.2.2,MacIntel,59.52380952,5d4dddbd3f4ed60001300679,65d6bb0e977760de756971f7,65d6be986941bacdccd541d6,0.1109,0.111,1,79,241,100,1,sevenfive,,,,,,,,,,,,,,,,,,,,,,,,,,,,,,,,,,,,,,,,,,,,,,,,,,,,,,,,,,,,,,,,,,,,,,,,,,,,,,,,,,,,,,,,,,,,,,,,,,,,,,,,,,,,,,,,,,,,,,,,,,,,,,,,,,,,,,,,,
,,5d4dddbd3f4ed60001300679,2024-02-21_22h25.48.162,kallum_motion_pilot,2023.2.2,MacIntel,59.52380952,5d4dddbd3f4ed60001300679,65d6bb0e977760de756971f7,65d6be986941bacdccd541d6,0.1111,0.1112,1,80,242,26,1,twoone,,,,,,,,,,,,,,,,,,,,,,,,,,,,,,,,,,,,,,,,,,,,,,,,,,,,,,,,,,,,,,,,,,,,,,,,,,,,,,,,,,,,,,,,,,,,,,,,,,,,,,,,,,,,,,,,,,,,,,,,,,,,,,,,,,,,,,,,,
,,5d4dddbd3f4ed60001300679,2024-02-21_22h25.48.162,kallum_motion_pilot,2023.2.2,MacIntel,59.52380952,5d4dddbd3f4ed60001300679,65d6bb0e977760de756971f7,65d6be986941bacdccd541d6,0.1114,0.1115,1,81,243,139,1,sixeight,,,,,,,,,,,,,,,,,,,,,,,,,,,,,,,,,,,,,,,,,,,,,,,,,,,,,,,,,,,,,,,,,,,,,,,,,,,,,,,,,,,,,,,,,,,,,,,,,,,,,,,,,,,,,,,,,,,,,,,,,,,,,,,,,,,,,,,,,
,,5d4dddbd3f4ed60001300679,2024-02-21_22h25.48.162,kallum_motion_pilot,2023.2.2,MacIntel,59.52380952,5d4dddbd3f4ed60001300679,65d6bb0e977760de756971f7,65d6be986941bacdccd541d6,0.1115,0.1116,1,82,244,80,1,fivesix,,,,,,,,,,,,,,,,,,,,,,,,,,,,,,,,,,,,,,,,,,,,,,,,,,,,,,,,,,,,,,,,,,,,,,,,,,,,,,,,,,,,,,,,,,,,,,,,,,,,,,,,,,,,,,,,,,,,,,,,,,,,,,,,,,,,,,,,,
,,5d4dddbd3f4ed60001300679,2024-02-21_22h25.48.162,kallum_motion_pilot,2023.2.2,MacIntel,59.52380952,5d4dddbd3f4ed60001300679,65d6bb0e977760de756971f7,65d6be986941bacdccd541d6,0.1117,0.1118,1,83,245,141,1,seveneight,,,,,,,,,,,,,,,,,,,,,,,,,,,,,,,,,,,,,,,,,,,,,,,,,,,,,,,,,,,,,,,,,,,,,,,,,,,,,,,,,,,,,,,,,,,,,,,,,,,,,,,,,,,,,,,,,,,,,,,,,,,,,,,,,,,,,,,,,
,,5d4dddbd3f4ed60001300679,2024-02-21_22h25.48.162,kallum_motion_pilot,2023.2.2,MacIntel,59.52380952,5d4dddbd3f4ed60001300679,65d6bb0e977760de756971f7,65d6be986941bacdccd541d6,0.1119,0.1121,1,84,246,30,1,fourtwo,,,,,,,,,,,,,,,,,,,,,,,,,,,,,,,,,,,,,,,,,,,,,,,,,,,,,,,,,,,,,,,,,,,,,,,,,,,,,,,,,,,,,,,,,,,,,,,,,,,,,,,,,,,,,,,,,,,,,,,,,,,,,,,,,,,,,,,,,
,,5d4dddbd3f4ed60001300679,2024-02-21_22h25.48.162,kallum_motion_pilot,2023.2.2,MacIntel,59.52380952,5d4dddbd3f4ed60001300679,65d6bb0e977760de756971f7,65d6be986941bacdccd541d6,0.1125,0.1126,1,85,247,128,1,fivesix,,,,,,,,,,,,,,,,,,,,,,,,,,,,,,,,,,,,,,,,,,,,,,,,,,,,,,,,,,,,,,,,,,,,,,,,,,,,,,,,,,,,,,,,,,,,,,,,,,,,,,,,,,,,,,,,,,,,,,,,,,,,,,,,,,,,,,,,,
,,5d4dddbd3f4ed60001300679,2024-02-21_22h25.48.162,kallum_motion_pilot,2023.2.2,MacIntel,59.52380952,5d4dddbd3f4ed60001300679,65d6bb0e977760de756971f7,65d6be986941bacdccd541d6,0.1128,0.113,1,86,248,151,1,eightseven,,,,,,,,,,,,,,,,,,,,,,,,,,,,,,,,,,,,,,,,,,,,,,,,,,,,,,,,,,,,,,,,,,,,,,,,,,,,,,,,,,,,,,,,,,,,,,,,,,,,,,,,,,,,,,,,,,,,,,,,,,,,,,,,,,,,,,,,,
,,5d4dddbd3f4ed60001300679,2024-02-21_22h25.48.162,kallum_motion_pilot,2023.2.2,MacIntel,59.52380952,5d4dddbd3f4ed60001300679,65d6bb0e977760de756971f7,65d6be986941bacdccd541d6,0.1131,0.1133,1,87,249,147,1,sixeight,,,,,,,,,,,,,,,,,,,,,,,,,,,,,,,,,,,,,,,,,,,,,,,,,,,,,,,,,,,,,,,,,,,,,,,,,,,,,,,,,,,,,,,,,,,,,,,,,,,,,,,,,,,,,,,,,,,,,,,,,,,,,,,,,,,,,,,,,
,,5d4dddbd3f4ed60001300679,2024-02-21_22h25.48.162,kallum_motion_pilot,2023.2.2,MacIntel,59.52380952,5d4dddbd3f4ed60001300679,65d6bb0e977760de756971f7,65d6be986941bacdccd541d6,0.1136,0.1137,1,88,250,124,1,sevenfive,,,,,,,,,,,,,,,,,,,,,,,,,,,,,,,,,,,,,,,,,,,,,,,,,,,,,,,,,,,,,,,,,,,,,,,,,,,,,,,,,,,,,,,,,,,,,,,,,,,,,,,,,,,,,,,,,,,,,,,,,,,,,,,,,,,,,,,,,
,,5d4dddbd3f4ed60001300679,2024-02-21_22h25.48.162,kallum_motion_pilot,2023.2.2,MacIntel,59.52380952,5d4dddbd3f4ed60001300679,65d6bb0e977760de756971f7,65d6be986941bacdccd541d6,0.1138,0.114,1,89,251,69,1,threefour,,,,,,,,,,,,,,,,,,,,,,,,,,,,,,,,,,,,,,,,,,,,,,,,,,,,,,,,,,,,,,,,,,,,,,,,,,,,,,,,,,,,,,,,,,,,,,,,,,,,,,,,,,,,,,,,,,,,,,,,,,,,,,,,,,,,,,,,,
,,5d4dddbd3f4ed60001300679,2024-02-21_22h25.48.162,kallum_motion_pilot,2023.2.2,MacIntel,59.52380952,5d4dddbd3f4ed60001300679,65d6bb0e977760de756971f7,65d6be986941bacdccd541d6,0.1141,0.1142,1,90,252,40,1,onetwo,,,,,,,,,,,,,,,,,,,,,,,,,,,,,,,,,,,,,,,,,,,,,,,,,,,,,,,,,,,,,,,,,,,,,,,,,,,,,,,,,,,,,,,,,,,,,,,,,,,,,,,,,,,,,,,,,,,,,,,,,,,,,,,,,,,,,,,,,
,,5d4dddbd3f4ed60001300679,2024-02-21_22h25.48.162,kallum_motion_pilot,2023.2.2,MacIntel,59.52380952,5d4dddbd3f4ed60001300679,65d6bb0e977760de756971f7,65d6be986941bacdccd541d6,0.1143,0.1144,1,91,253,23,1,fourthree,,,,,,,,,,,,,,,,,,,,,,,,,,,,,,,,,,,,,,,,,,,,,,,,,,,,,,,,,,,,,,,,,,,,,,,,,,,,,,,,,,,,,,,,,,,,,,,,,,,,,,,,,,,,,,,,,,,,,,,,,,,,,,,,,,,,,,,,,
,,5d4dddbd3f4ed60001300679,2024-02-21_22h25.48.162,kallum_motion_pilot,2023.2.2,MacIntel,59.52380952,5d4dddbd3f4ed60001300679,65d6bb0e977760de756971f7,65d6be986941bacdccd541d6,0.1145,0.1146,1,92,254,108,1,sevenfive,,,,,,,,,,,,,,,,,,,,,,,,,,,,,,,,,,,,,,,,,,,,,,,,,,,,,,,,,,,,,,,,,,,,,,,,,,,,,,,,,,,,,,,,,,,,,,,,,,,,,,,,,,,,,,,,,,,,,,,,,,,,,,,,,,,,,,,,,
,,5d4dddbd3f4ed60001300679,2024-02-21_22h25.48.162,kallum_motion_pilot,2023.2.2,MacIntel,59.52380952,5d4dddbd3f4ed60001300679,65d6bb0e977760de756971f7,65d6be986941bacdccd541d6,0.1148,0.1149,1,93,255,109,1,seveneight,,,,,,,,,,,,,,,,,,,,,,,,,,,,,,,,,,,,,,,,,,,,,,,,,,,,,,,,,,,,,,,,,,,,,,,,,,,,,,,,,,,,,,,,,,,,,,,,,,,,,,,,,,,,,,,,,,,,,,,,,,,,,,,,,,,,,,,,,
,,5d4dddbd3f4ed60001300679,2024-02-21_22h25.48.162,kallum_motion_pilot,2023.2.2,MacIntel,59.52380952,5d4dddbd3f4ed60001300679,65d6bb0e977760de756971f7,65d6be986941bacdccd541d6,0.1151,0.1151,1,94,256,77,1,threefour,,,,,,,,,,,,,,,,,,,,,,,,,,,,,,,,,,,,,,,,,,,,,,,,,,,,,,,,,,,,,,,,,,,,,,,,,,,,,,,,,,,,,,,,,,,,,,,,,,,,,,,,,,,,,,,,,,,,,,,,,,,,,,,,,,,,,,,,,
,,5d4dddbd3f4ed60001300679,2024-02-21_22h25.48.162,kallum_motion_pilot,2023.2.2,MacIntel,59.52380952,5d4dddbd3f4ed60001300679,65d6bb0e977760de756971f7,65d6be986941bacdccd541d6,0.1153,0.1156,1,95,257,126,1,eightsix,,,,,,,,,,,,,,,,,,,,,,,,,,,,,,,,,,,,,,,,,,,,,,,,,,,,,,,,,,,,,,,,,,,,,,,,,,,,,,,,,,,,,,,,,,,,,,,,,,,,,,,,,,,,,,,,,,,,,,,,,,,,,,,,,,,,,,,,,
,,5d4dddbd3f4ed60001300679,2024-02-21_22h25.48.162,kallum_motion_pilot,2023.2.2,MacIntel,59.52380952,5d4dddbd3f4ed60001300679,65d6bb0e977760de756971f7,65d6be986941bacdccd541d6,0.1158,0.1158,1,96,258,84,1,sevenfive,,,,,,,,,,,,,,,,,,,,,,,,,,,,,,,,,,,,,,,,,,,,,,,,,,,,,,,,,,,,,,,,,,,,,,,,,,,,,,,,,,,,,,,,,,,,,,,,,,,,,,,,,,,,,,,,,,,,,,,,,,,,,,,,,,,,,,,,,
,,5d4dddbd3f4ed60001300679,2024-02-21_22h25.48.162,kallum_motion_pilot,2023.2.2,MacIntel,59.52380952,5d4dddbd3f4ed60001300679,65d6bb0e977760de756971f7,65d6be986941bacdccd541d6,0.1159,0.1163,1,97,259,89,1,fiveseven,,,,,,,,,,,,,,,,,,,,,,,,,,,,,,,,,,,,,,,,,,,,,,,,,,,,,,,,,,,,,,,,,,,,,,,,,,,,,,,,,,,,,,,,,,,,,,,,,,,,,,,,,,,,,,,,,,,,,,,,,,,,,,,,,,,,,,,,,
,,5d4dddbd3f4ed60001300679,2024-02-21_22h25.48.162,kallum_motion_pilot,2023.2.2,MacIntel,59.52380952,5d4dddbd3f4ed60001300679,65d6bb0e977760de756971f7,65d6be986941bacdccd541d6,0.1165,0.1166,1,98,260,74,1,twoone,,,,,,,,,,,,,,,,,,,,,,,,,,,,,,,,,,,,,,,,,,,,,,,,,,,,,,,,,,,,,,,,,,,,,,,,,,,,,,,,,,,,,,,,,,,,,,,,,,,,,,,,,,,,,,,,,,,,,,,,,,,,,,,,,,,,,,,,,
,,5d4dddbd3f4ed60001300679,2024-02-21_22h25.48.162,kallum_motion_pilot,2023.2.2,MacIntel,59.52380952,5d4dddbd3f4ed60001300679,65d6bb0e977760de756971f7,65d6be986941bacdccd541d6,0.1169,0.1179,1,99,261,9,1,onethree,,,,,,,,,,,,,,,,,,,,,,,,,,,,,,,,,,,,,,,,,,,,,,,,,,,,,,,,,,,,,,,,,,,,,,,,,,,,,,,,,,,,,,,,,,,,,,,,,,,,,,,,,,,,,,,,,,,,,,,,,,,,,,,,,,,,,,,,,
,,5d4dddbd3f4ed60001300679,2024-02-21_22h25.48.162,kallum_motion_pilot,2023.2.2,MacIntel,59.52380952,5d4dddbd3f4ed60001300679,65d6bb0e977760de756971f7,65d6be986941bacdccd541d6,0.1182,0.1183,1,100,262,117,1,seveneight,,,,,,,,,,,,,,,,,,,,,,,,,,,,,,,,,,,,,,,,,,,,,,,,,,,,,,,,,,,,,,,,,,,,,,,,,,,,,,,,,,,,,,,,,,,,,,,,,,,,,,,,,,,,,,,,,,,,,,,,,,,,,,,,,,,,,,,,,
,,5d4dddbd3f4ed60001300679,2024-02-21_22h25.48.162,kallum_motion_pilot,2023.2.2,MacIntel,59.52380952,5d4dddbd3f4ed60001300679,65d6bb0e977760de756971f7,65d6be986941bacdccd541d6,0.1185,0.1187,1,101,263,157,1,seveneight,,,,,,,,,,,,,,,,,,,,,,,,,,,,,,,,,,,,,,,,,,,,,,,,,,,,,,,,,,,,,,,,,,,,,,,,,,,,,,,,,,,,,,,,,,,,,,,,,,,,,,,,,,,,,,,,,,,,,,,,,,,,,,,,,,,,,,,,,
,,5d4dddbd3f4ed60001300679,2024-02-21_22h25.48.162,kallum_motion_pilot,2023.2.2,MacIntel,59.52380952,5d4dddbd3f4ed60001300679,65d6bb0e977760de756971f7,65d6be986941bacdccd541d6,0.1189,0.119,1,102,264,140,1,sevenfive,,,,,,,,,,,,,,,,,,,,,,,,,,,,,,,,,,,,,,,,,,,,,,,,,,,,,,,,,,,,,,,,,,,,,,,,,,,,,,,,,,,,,,,,,,,,,,,,,,,,,,,,,,,,,,,,,,,,,,,,,,,,,,,,,,,,,,,,,
,,5d4dddbd3f4ed60001300679,2024-02-21_22h25.48.162,kallum_motion_pilot,2023.2.2,MacIntel,59.52380952,5d4dddbd3f4ed60001300679,65d6bb0e977760de756971f7,65d6be986941bacdccd541d6,0.1191,0.1193,1,103,265,112,1,fivesix,,,,,,,,,,,,,,,,,,,,,,,,,,,,,,,,,,,,,,,,,,,,,,,,,,,,,,,,,,,,,,,,,,,,,,,,,,,,,,,,,,,,,,,,,,,,,,,,,,,,,,,,,,,,,,,,,,,,,,,,,,,,,,,,,,,,,,,,,
,,5d4dddbd3f4ed60001300679,2024-02-21_22h25.48.162,kallum_motion_pilot,2023.2.2,MacIntel,59.52380952,5d4dddbd3f4ed60001300679,65d6bb0e977760de756971f7,65d6be986941bacdccd541d6,0.1195,0.1196,1,104,266,155,1,sixeight,,,,,,,,,,,,,,,,,,,,,,,,,,,,,,,,,,,,,,,,,,,,,,,,,,,,,,,,,,,,,,,,,,,,,,,,,,,,,,,,,,,,,,,,,,,,,,,,,,,,,,,,,,,,,,,,,,,,,,,,,,,,,,,,,,,,,,,,,
,,5d4dddbd3f4ed60001300679,2024-02-21_22h25.48.162,kallum_motion_pilot,2023.2.2,MacIntel,59.52380952,5d4dddbd3f4ed60001300679,65d6bb0e977760de756971f7,65d6be986941bacdccd541d6,0.1197,0.1198,1,105,267,87,1,eightseven,,,,,,,,,,,,,,,,,,,,,,,,,,,,,,,,,,,,,,,,,,,,,,,,,,,,,,,,,,,,,,,,,,,,,,,,,,,,,,,,,,,,,,,,,,,,,,,,,,,,,,,,,,,,,,,,,,,,,,,,,,,,,,,,,,,,,,,,,
,,5d4dddbd3f4ed60001300679,2024-02-21_22h25.48.162,kallum_motion_pilot,2023.2.2,MacIntel,59.52380952,5d4dddbd3f4ed60001300679,65d6bb0e977760de756971f7,65d6be986941bacdccd541d6,0.1198,0.12,1,106,268,49,1,onethree,,,,,,,,,,,,,,,,,,,,,,,,,,,,,,,,,,,,,,,,,,,,,,,,,,,,,,,,,,,,,,,,,,,,,,,,,,,,,,,,,,,,,,,,,,,,,,,,,,,,,,,,,,,,,,,,,,,,,,,,,,,,,,,,,,,,,,,,,
,,5d4dddbd3f4ed60001300679,2024-02-21_22h25.48.162,kallum_motion_pilot,2023.2.2,MacIntel,59.52380952,5d4dddbd3f4ed60001300679,65d6bb0e977760de756971f7,65d6be986941bacdccd541d6,0.1201,0.1202,1,107,269,106,1,sixfive,,,,,,,,,,,,,,,,,,,,,,,,,,,,,,,,,,,,,,,,,,,,,,,,,,,,,,,,,,,,,,,,,,,,,,,,,,,,,,,,,,,,,,,,,,,,,,,,,,,,,,,,,,,,,,,,,,,,,,,,,,,,,,,,,,,,,,,,,
,,5d4dddbd3f4ed60001300679,2024-02-21_22h25.48.162,kallum_motion_pilot,2023.2.2,MacIntel,59.52380952,5d4dddbd3f4ed60001300679,65d6bb0e977760de756971f7,65d6be986941bacdccd541d6,0.1203,0.1204,1,108,270,38,1,fourtwo,,,,,,,,,,,,,,,,,,,,,,,,,,,,,,,,,,,,,,,,,,,,,,,,,,,,,,,,,,,,,,,,,,,,,,,,,,,,,,,,,,,,,,,,,,,,,,,,,,,,,,,,,,,,,,,,,,,,,,,,,,,,,,,,,,,,,,,,,
,,5d4dddbd3f4ed60001300679,2024-02-21_22h25.48.162,kallum_motion_pilot,2023.2.2,MacIntel,59.52380952,5d4dddbd3f4ed60001300679,65d6bb0e977760de756971f7,65d6be986941bacdccd541d6,0.1205,0.1207,1,109,271,58,1,twoone,,,,,,,,,,,,,,,,,,,,,,,,,,,,,,,,,,,,,,,,,,,,,,,,,,,,,,,,,,,,,,,,,,,,,,,,,,,,,,,,,,,,,,,,,,,,,,,,,,,,,,,,,,,,,,,,,,,,,,,,,,,,,,,,,,,,,,,,,
,,5d4dddbd3f4ed60001300679,2024-02-21_22h25.48.162,kallum_motion_pilot,2023.2.2,MacIntel,59.52380952,5d4dddbd3f4ed60001300679,65d6bb0e977760de756971f7,65d6be986941bacdccd541d6,0.1207,0.1208,1,110,272,152,1,fivesix,,,,,,,,,,,,,,,,,,,,,,,,,,,,,,,,,,,,,,,,,,,,,,,,,,,,,,,,,,,,,,,,,,,,,,,,,,,,,,,,,,,,,,,,,,,,,,,,,,,,,,,,,,,,,,,,,,,,,,,,,,,,,,,,,,,,,,,,,
,,5d4dddbd3f4ed60001300679,2024-02-21_22h25.48.162,kallum_motion_pilot,2023.2.2,MacIntel,59.52380952,5d4dddbd3f4ed60001300679,65d6bb0e977760de756971f7,65d6be986941bacdccd541d6,0.1209,0.1211,1,111,273,65,1,onethree,,,,,,,,,,,,,,,,,,,,,,,,,,,,,,,,,,,,,,,,,,,,,,,,,,,,,,,,,,,,,,,,,,,,,,,,,,,,,,,,,,,,,,,,,,,,,,,,,,,,,,,,,,,,,,,,,,,,,,,,,,,,,,,,,,,,,,,,,
,,5d4dddbd3f4ed60001300679,2024-02-21_22h25.48.162,kallum_motion_pilot,2023.2.2,MacIntel,59.52380952,5d4dddbd3f4ed60001300679,65d6bb0e977760de756971f7,65d6be986941bacdccd541d6,0.1211,0.1212,1,112,274,88,1,fivesix,,,,,,,,,,,,,,,,,,,,,,,,,,,,,,,,,,,,,,,,,,,,,,,,,,,,,,,,,,,,,,,,,,,,,,,,,,,,,,,,,,,,,,,,,,,,,,,,,,,,,,,,,,,,,,,,,,,,,,,,,,,,,,,,,,,,,,,,,
,,5d4dddbd3f4ed60001300679,2024-02-21_22h25.48.162,kallum_motion_pilot,2023.2.2,MacIntel,59.52380952,5d4dddbd3f4ed60001300679,65d6bb0e977760de756971f7,65d6be986941bacdccd541d6,0.1213,0.1216,1,113,275,104,1,fivesix,,,,,,,,,,,,,,,,,,,,,,,,,,,,,,,,,,,,,,,,,,,,,,,,,,,,,,,,,,,,,,,,,,,,,,,,,,,,,,,,,,,,,,,,,,,,,,,,,,,,,,,,,,,,,,,,,,,,,,,,,,,,,,,,,,,,,,,,,
