startup.started,startup.stopped,Prolific ID*,date,expName,psychopyVersion,OS,frameRate,participant,study_id,session,stimpositions.started,stimpositions.stopped,hardcoded_stimulus_positions.thisRepN,hardcoded_stimulus_positions.thisTrialN,hardcoded_stimulus_positions.thisN,hardcoded_stimulus_positions.thisIndex,hardcoded_stimulus_positions.ran,StimulusPos,stimorientation.started,stimorientation.stopped,prac_stimorientation_import_loop.thisRepN,prac_stimorientation_import_loop.thisTrialN,prac_stimorientation_import_loop.thisN,prac_stimorientation_import_loop.thisIndex,prac_stimorientation_import_loop.ran,Stimorientation,welcome_instr.started,welcome_instr.stopped,key_resp.keys,key_resp.rt,key_resp.duration,response_steppedout_1.started,response_steppedout_1.stopped,key_resp_20.keys,key_resp_20.rt,key_resp_20.duration,response_steppedout_2.started,response_steppedout_2.stopped,key_resp_19.keys,key_resp_19.rt,key_resp_19.duration,stim_response_instr.started,stim_response_instr.stopped,key_resp_15.keys,key_resp_15.rt,key_resp_15.duration,direction_instr_2.started,direction_instr_2.stopped,key_resp_9.keys,key_resp_9.rt,key_resp_9.duration,instr_prac.started,instr_prac.stopped,key_resp_10.keys,key_resp_10.rt,key_resp_10.duration,Stim1_display_prac.started,Stim1_display_prac.stopped,Ecc,Circle1_ori,Circle2_ori,response_prac.started,similarity,response_time,response_prac.stopped,mouse_5.x,mouse_5.y,mouse_5.leftButton,mouse_5.midButton,mouse_5.rightButton,mouse_5.clicked_name,responseprac_feedback.started,responseprac_feedback.stopped,summary2_prac.started,summary2_prac.stopped,mouse_6.x,mouse_6.y,mouse_6.leftButton,mouse_6.midButton,mouse_6.rightButton,mouse_6.clicked_name,duringprac.thisRepN,duringprac.thisTrialN,duringprac.thisN,duringprac.thisIndex,duringprac.ran,begin.started,begin.stopped,key_resp_22.keys,key_resp_22.rt,key_resp_22.duration,Stim1_display.started,Stim1_display.stopped,circle1_ori,circle2_ori,circle1_SF,circle2_SF,response.started,response.stopped,mouse.x,mouse.y,mouse.leftButton,mouse.midButton,mouse.rightButton,mouse.clicked_name,trialnumber,double_pass.thisRepN,double_pass.thisTrialN,double_pass.thisN,double_pass.thisIndex,double_pass.ran,double_pass.order,main_trial.thisRepN,main_trial.thisTrialN,main_trial.thisN,main_trial.thisIndex,main_trial.ran,main_trial.order,Trial_Counter,Catch,Frequencies,response_2.started,response_2.stopped,mouse_2.x,mouse_2.y,mouse_2.leftButton,mouse_2.midButton,mouse_2.rightButton,mouse_2.clicked_name,special_trial.started,special_trial.stopped,catch_1.started,catch_1.stopped,mouse_3.x,mouse_3.y,mouse_3.leftButton,mouse_3.midButton,mouse_3.rightButton,catchresponse,catchnumber,response_time_catch,response_sum.started,response_sum.stopped,mouse_11.x,mouse_11.y,mouse_11.leftButton,mouse_11.midButton,mouse_11.rightButton,flip_presentation_sequence_for_double_pass.started,flip_presentation_sequence_for_double_pass.stopped,goodbye.started,goodbye.stopped,key_resp_3.keys,key_resp_3.rt,key_resp_3.duration
0.0003,0.0003,5d968811d3cea301700f4868,2024-02-21_21h19.06.720,kallum_motion_pilot,2023.2.2,Win32,59.88023952,5d968811d3cea301700f4868,65d6bb0e977760de756971f7,65d6bd079fd3ab199827bec7,,,,,,,,,,,,,,,,,,,,,,,,,,,,,,,,,,,,,,,,,,,,,,,,,,,,,,,,,,,,,,,,,,,,,,,,,,,,,,,,,,,,,,,,,,,,,,,,,,,,,,,,,,,,,,,,,,,,,,,,,,,,,,,,,,,,,,,,,,,,,,,,,
,,5d968811d3cea301700f4868,2024-02-21_21h19.06.720,kallum_motion_pilot,2023.2.2,Win32,59.88023952,5d968811d3cea301700f4868,65d6bb0e977760de756971f7,65d6bd079fd3ab199827bec7,0.0178,0.0179,0,0,0,75,1,twofour,,,,,,,,,,,,,,,,,,,,,,,,,,,,,,,,,,,,,,,,,,,,,,,,,,,,,,,,,,,,,,,,,,,,,,,,,,,,,,,,,,,,,,,,,,,,,,,,,,,,,,,,,,,,,,,,,,,,,,,,,,,,,,,,,,,,,,,,,
,,5d968811d3cea301700f4868,2024-02-21_21h19.06.720,kallum_motion_pilot,2023.2.2,Win32,59.88023952,5d968811d3cea301700f4868,65d6bb0e977760de756971f7,65d6bd079fd3ab199827bec7,0.018,0.0181,0,1,1,7,1,fourthree,,,,,,,,,,,,,,,,,,,,,,,,,,,,,,,,,,,,,,,,,,,,,,,,,,,,,,,,,,,,,,,,,,,,,,,,,,,,,,,,,,,,,,,,,,,,,,,,,,,,,,,,,,,,,,,,,,,,,,,,,,,,,,,,,,,,,,,,,
,,5d968811d3cea301700f4868,2024-02-21_21h19.06.720,kallum_motion_pilot,2023.2.2,Win32,59.88023952,5d968811d3cea301700f4868,65d6bb0e977760de756971f7,65d6bd079fd3ab199827bec7,0.0181,0.0181,0,2,2,94,1,eightsix,,,,,,,,,,,,,,,,,,,,,,,,,,,,,,,,,,,,,,,,,,,,,,,,,,,,,,,,,,,,,,,,,,,,,,,,,,,,,,,,,,,,,,,,,,,,,,,,,,,,,,,,,,,,,,,,,,,,,,,,,,,,,,,,,,,,,,,,,
,,5d968811d3cea301700f4868,2024-02-21_21h19.06.720,kallum_motion_pilot,2023.2.2,Win32,59.88023952,5d968811d3cea301700f4868,65d6bb0e977760de756971f7,65d6bd079fd3ab199827bec7,0.0182,0.0182,0,3,3,39,1,fourthree,,,,,,,,,,,,,,,,,,,,,,,,,,,,,,,,,,,,,,,,,,,,,,,,,,,,,,,,,,,,,,,,,,,,,,,,,,,,,,,,,,,,,,,,,,,,,,,,,,,,,,,,,,,,,,,,,,,,,,,,,,,,,,,,,,,,,,,,,
,,5d968811d3cea301700f4868,2024-02-21_21h19.06.720,kallum_motion_pilot,2023.2.2,Win32,59.88023952,5d968811d3cea301700f4868,65d6bb0e977760de756971f7,65d6bd079fd3ab199827bec7,0.0183,0.0183,0,4,4,68,1,threeone,,,,,,,,,,,,,,,,,,,,,,,,,,,,,,,,,,,,,,,,,,,,,,,,,,,,,,,,,,,,,,,,,,,,,,,,,,,,,,,,,,,,,,,,,,,,,,,,,,,,,,,,,,,,,,,,,,,,,,,,,,,,,,,,,,,,,,,,,
,,5d968811d3cea301700f4868,2024-02-21_21h19.06.720,kallum_motion_pilot,2023.2.2,Win32,59.88023952,5d968811d3cea301700f4868,65d6bb0e977760de756971f7,65d6bd079fd3ab199827bec7,0.0183,0.0183,0,5,5,61,1,threefour,,,,,,,,,,,,,,,,,,,,,,,,,,,,,,,,,,,,,,,,,,,,,,,,,,,,,,,,,,,,,,,,,,,,,,,,,,,,,,,,,,,,,,,,,,,,,,,,,,,,,,,,,,,,,,,,,,,,,,,,,,,,,,,,,,,,,,,,,
,,5d968811d3cea301700f4868,2024-02-21_21h19.06.720,kallum_motion_pilot,2023.2.2,Win32,59.88023952,5d968811d3cea301700f4868,65d6bb0e977760de756971f7,65d6bd079fd3ab199827bec7,0.0184,0.0184,0,6,6,38,1,fourtwo,,,,,,,,,,,,,,,,,,,,,,,,,,,,,,,,,,,,,,,,,,,,,,,,,,,,,,,,,,,,,,,,,,,,,,,,,,,,,,,,,,,,,,,,,,,,,,,,,,,,,,,,,,,,,,,,,,,,,,,,,,,,,,,,,,,,,,,,,
,,5d968811d3cea301700f4868,2024-02-21_21h19.06.720,kallum_motion_pilot,2023.2.2,Win32,59.88023952,5d968811d3cea301700f4868,65d6bb0e977760de756971f7,65d6bd079fd3ab199827bec7,0.0185,0.0185,0,7,7,30,1,fourtwo,,,,,,,,,,,,,,,,,,,,,,,,,,,,,,,,,,,,,,,,,,,,,,,,,,,,,,,,,,,,,,,,,,,,,,,,,,,,,,,,,,,,,,,,,,,,,,,,,,,,,,,,,,,,,,,,,,,,,,,,,,,,,,,,,,,,,,,,,
,,5d968811d3cea301700f4868,2024-02-21_21h19.06.720,kallum_motion_pilot,2023.2.2,Win32,59.88023952,5d968811d3cea301700f4868,65d6bb0e977760de756971f7,65d6bd079fd3ab199827bec7,0.0186,0.0186,0,8,8,18,1,twoone,,,,,,,,,,,,,,,,,,,,,,,,,,,,,,,,,,,,,,,,,,,,,,,,,,,,,,,,,,,,,,,,,,,,,,,,,,,,,,,,,,,,,,,,,,,,,,,,,,,,,,,,,,,,,,,,,,,,,,,,,,,,,,,,,,,,,,,,,
,,5d968811d3cea301700f4868,2024-02-21_21h19.06.720,kallum_motion_pilot,2023.2.2,Win32,59.88023952,5d968811d3cea301700f4868,65d6bb0e977760de756971f7,65d6bd079fd3ab199827bec7,0.0186,0.0186,0,9,9,103,1,eightseven,,,,,,,,,,,,,,,,,,,,,,,,,,,,,,,,,,,,,,,,,,,,,,,,,,,,,,,,,,,,,,,,,,,,,,,,,,,,,,,,,,,,,,,,,,,,,,,,,,,,,,,,,,,,,,,,,,,,,,,,,,,,,,,,,,,,,,,,,
,,5d968811d3cea301700f4868,2024-02-21_21h19.06.720,kallum_motion_pilot,2023.2.2,Win32,59.88023952,5d968811d3cea301700f4868,65d6bb0e977760de756971f7,65d6bd079fd3ab199827bec7,0.0187,0.0187,0,10,10,73,1,onethree,,,,,,,,,,,,,,,,,,,,,,,,,,,,,,,,,,,,,,,,,,,,,,,,,,,,,,,,,,,,,,,,,,,,,,,,,,,,,,,,,,,,,,,,,,,,,,,,,,,,,,,,,,,,,,,,,,,,,,,,,,,,,,,,,,,,,,,,,
,,5d968811d3cea301700f4868,2024-02-21_21h19.06.720,kallum_motion_pilot,2023.2.2,Win32,59.88023952,5d968811d3cea301700f4868,65d6bb0e977760de756971f7,65d6bd079fd3ab199827bec7,0.0188,0.0188,0,11,11,144,1,fivesix,,,,,,,,,,,,,,,,,,,,,,,,,,,,,,,,,,,,,,,,,,,,,,,,,,,,,,,,,,,,,,,,,,,,,,,,,,,,,,,,,,,,,,,,,,,,,,,,,,,,,,,,,,,,,,,,,,,,,,,,,,,,,,,,,,,,,,,,,
,,5d968811d3cea301700f4868,2024-02-21_21h19.06.720,kallum_motion_pilot,2023.2.2,Win32,59.88023952,5d968811d3cea301700f4868,65d6bb0e977760de756971f7,65d6bd079fd3ab199827bec7,0.0188,0.0188,0,12,12,26,1,twoone,,,,,,,,,,,,,,,,,,,,,,,,,,,,,,,,,,,,,,,,,,,,,,,,,,,,,,,,,,,,,,,,,,,,,,,,,,,,,,,,,,,,,,,,,,,,,,,,,,,,,,,,,,,,,,,,,,,,,,,,,,,,,,,,,,,,,,,,,
,,5d968811d3cea301700f4868,2024-02-21_21h19.06.720,kallum_motion_pilot,2023.2.2,Win32,59.88023952,5d968811d3cea301700f4868,65d6bb0e977760de756971f7,65d6bd079fd3ab199827bec7,0.0189,0.0189,0,13,13,145,1,fiveseven,,,,,,,,,,,,,,,,,,,,,,,,,,,,,,,,,,,,,,,,,,,,,,,,,,,,,,,,,,,,,,,,,,,,,,,,,,,,,,,,,,,,,,,,,,,,,,,,,,,,,,,,,,,,,,,,,,,,,,,,,,,,,,,,,,,,,,,,,
,,5d968811d3cea301700f4868,2024-02-21_21h19.06.720,kallum_motion_pilot,2023.2.2,Win32,59.88023952,5d968811d3cea301700f4868,65d6bb0e977760de756971f7,65d6bd079fd3ab199827bec7,0.019,0.019,0,14,14,42,1,twoone,,,,,,,,,,,,,,,,,,,,,,,,,,,,,,,,,,,,,,,,,,,,,,,,,,,,,,,,,,,,,,,,,,,,,,,,,,,,,,,,,,,,,,,,,,,,,,,,,,,,,,,,,,,,,,,,,,,,,,,,,,,,,,,,,,,,,,,,,
,,5d968811d3cea301700f4868,2024-02-21_21h19.06.720,kallum_motion_pilot,2023.2.2,Win32,59.88023952,5d968811d3cea301700f4868,65d6bb0e977760de756971f7,65d6bd079fd3ab199827bec7,0.019,0.019,0,15,15,119,1,eightseven,,,,,,,,,,,,,,,,,,,,,,,,,,,,,,,,,,,,,,,,,,,,,,,,,,,,,,,,,,,,,,,,,,,,,,,,,,,,,,,,,,,,,,,,,,,,,,,,,,,,,,,,,,,,,,,,,,,,,,,,,,,,,,,,,,,,,,,,,
,,5d968811d3cea301700f4868,2024-02-21_21h19.06.720,kallum_motion_pilot,2023.2.2,Win32,59.88023952,5d968811d3cea301700f4868,65d6bb0e977760de756971f7,65d6bd079fd3ab199827bec7,0.019,0.0191,0,16,16,1,1,onethree,,,,,,,,,,,,,,,,,,,,,,,,,,,,,,,,,,,,,,,,,,,,,,,,,,,,,,,,,,,,,,,,,,,,,,,,,,,,,,,,,,,,,,,,,,,,,,,,,,,,,,,,,,,,,,,,,,,,,,,,,,,,,,,,,,,,,,,,,
,,5d968811d3cea301700f4868,2024-02-21_21h19.06.720,kallum_motion_pilot,2023.2.2,Win32,59.88023952,5d968811d3cea301700f4868,65d6bb0e977760de756971f7,65d6bd079fd3ab199827bec7,0.0191,0.0191,0,17,17,98,1,sixfive,,,,,,,,,,,,,,,,,,,,,,,,,,,,,,,,,,,,,,,,,,,,,,,,,,,,,,,,,,,,,,,,,,,,,,,,,,,,,,,,,,,,,,,,,,,,,,,,,,,,,,,,,,,,,,,,,,,,,,,,,,,,,,,,,,,,,,,,,
,,5d968811d3cea301700f4868,2024-02-21_21h19.06.720,kallum_motion_pilot,2023.2.2,Win32,59.88023952,5d968811d3cea301700f4868,65d6bb0e977760de756971f7,65d6bd079fd3ab199827bec7,0.0191,0.0191,0,18,18,142,1,eightsix,,,,,,,,,,,,,,,,,,,,,,,,,,,,,,,,,,,,,,,,,,,,,,,,,,,,,,,,,,,,,,,,,,,,,,,,,,,,,,,,,,,,,,,,,,,,,,,,,,,,,,,,,,,,,,,,,,,,,,,,,,,,,,,,,,,,,,,,,
,,5d968811d3cea301700f4868,2024-02-21_21h19.06.720,kallum_motion_pilot,2023.2.2,Win32,59.88023952,5d968811d3cea301700f4868,65d6bb0e977760de756971f7,65d6bd079fd3ab199827bec7,0.0192,0.0193,0,19,19,153,1,fiveseven,,,,,,,,,,,,,,,,,,,,,,,,,,,,,,,,,,,,,,,,,,,,,,,,,,,,,,,,,,,,,,,,,,,,,,,,,,,,,,,,,,,,,,,,,,,,,,,,,,,,,,,,,,,,,,,,,,,,,,,,,,,,,,,,,,,,,,,,,
,,5d968811d3cea301700f4868,2024-02-21_21h19.06.720,kallum_motion_pilot,2023.2.2,Win32,59.88023952,5d968811d3cea301700f4868,65d6bb0e977760de756971f7,65d6bd079fd3ab199827bec7,0.0193,0.0193,0,20,20,97,1,fiveseven,,,,,,,,,,,,,,,,,,,,,,,,,,,,,,,,,,,,,,,,,,,,,,,,,,,,,,,,,,,,,,,,,,,,,,,,,,,,,,,,,,,,,,,,,,,,,,,,,,,,,,,,,,,,,,,,,,,,,,,,,,,,,,,,,,,,,,,,,
,,5d968811d3cea301700f4868,2024-02-21_21h19.06.720,kallum_motion_pilot,2023.2.2,Win32,59.88023952,5d968811d3cea301700f4868,65d6bb0e977760de756971f7,65d6bd079fd3ab199827bec7,0.0193,0.0193,0,21,21,2,1,twoone,,,,,,,,,,,,,,,,,,,,,,,,,,,,,,,,,,,,,,,,,,,,,,,,,,,,,,,,,,,,,,,,,,,,,,,,,,,,,,,,,,,,,,,,,,,,,,,,,,,,,,,,,,,,,,,,,,,,,,,,,,,,,,,,,,,,,,,,,
,,5d968811d3cea301700f4868,2024-02-21_21h19.06.720,kallum_motion_pilot,2023.2.2,Win32,59.88023952,5d968811d3cea301700f4868,65d6bb0e977760de756971f7,65d6bd079fd3ab199827bec7,0.0194,0.0194,0,22,22,3,1,twofour,,,,,,,,,,,,,,,,,,,,,,,,,,,,,,,,,,,,,,,,,,,,,,,,,,,,,,,,,,,,,,,,,,,,,,,,,,,,,,,,,,,,,,,,,,,,,,,,,,,,,,,,,,,,,,,,,,,,,,,,,,,,,,,,,,,,,,,,,
,,5d968811d3cea301700f4868,2024-02-21_21h19.06.720,kallum_motion_pilot,2023.2.2,Win32,59.88023952,5d968811d3cea301700f4868,65d6bb0e977760de756971f7,65d6bd079fd3ab199827bec7,0.0195,0.0195,0,23,23,59,1,twofour,,,,,,,,,,,,,,,,,,,,,,,,,,,,,,,,,,,,,,,,,,,,,,,,,,,,,,,,,,,,,,,,,,,,,,,,,,,,,,,,,,,,,,,,,,,,,,,,,,,,,,,,,,,,,,,,,,,,,,,,,,,,,,,,,,,,,,,,,
,,5d968811d3cea301700f4868,2024-02-21_21h19.06.720,kallum_motion_pilot,2023.2.2,Win32,59.88023952,5d968811d3cea301700f4868,65d6bb0e977760de756971f7,65d6bd079fd3ab199827bec7,0.0195,0.0195,0,24,24,133,1,seveneight,,,,,,,,,,,,,,,,,,,,,,,,,,,,,,,,,,,,,,,,,,,,,,,,,,,,,,,,,,,,,,,,,,,,,,,,,,,,,,,,,,,,,,,,,,,,,,,,,,,,,,,,,,,,,,,,,,,,,,,,,,,,,,,,,,,,,,,,,
,,5d968811d3cea301700f4868,2024-02-21_21h19.06.720,kallum_motion_pilot,2023.2.2,Win32,59.88023952,5d968811d3cea301700f4868,65d6bb0e977760de756971f7,65d6bd079fd3ab199827bec7,0.0196,0.0197,0,25,25,76,1,threeone,,,,,,,,,,,,,,,,,,,,,,,,,,,,,,,,,,,,,,,,,,,,,,,,,,,,,,,,,,,,,,,,,,,,,,,,,,,,,,,,,,,,,,,,,,,,,,,,,,,,,,,,,,,,,,,,,,,,,,,,,,,,,,,,,,,,,,,,,
,,5d968811d3cea301700f4868,2024-02-21_21h19.06.720,kallum_motion_pilot,2023.2.2,Win32,59.88023952,5d968811d3cea301700f4868,65d6bb0e977760de756971f7,65d6bd079fd3ab199827bec7,0.0197,0.0197,0,26,26,85,1,seveneight,,,,,,,,,,,,,,,,,,,,,,,,,,,,,,,,,,,,,,,,,,,,,,,,,,,,,,,,,,,,,,,,,,,,,,,,,,,,,,,,,,,,,,,,,,,,,,,,,,,,,,,,,,,,,,,,,,,,,,,,,,,,,,,,,,,,,,,,,
,,5d968811d3cea301700f4868,2024-02-21_21h19.06.720,kallum_motion_pilot,2023.2.2,Win32,59.88023952,5d968811d3cea301700f4868,65d6bb0e977760de756971f7,65d6bd079fd3ab199827bec7,0.0198,0.0198,0,27,27,106,1,sixfive,,,,,,,,,,,,,,,,,,,,,,,,,,,,,,,,,,,,,,,,,,,,,,,,,,,,,,,,,,,,,,,,,,,,,,,,,,,,,,,,,,,,,,,,,,,,,,,,,,,,,,,,,,,,,,,,,,,,,,,,,,,,,,,,,,,,,,,,,
,,5d968811d3cea301700f4868,2024-02-21_21h19.06.720,kallum_motion_pilot,2023.2.2,Win32,59.88023952,5d968811d3cea301700f4868,65d6bb0e977760de756971f7,65d6bd079fd3ab199827bec7,0.0198,0.0199,0,28,28,91,1,sixeight,,,,,,,,,,,,,,,,,,,,,,,,,,,,,,,,,,,,,,,,,,,,,,,,,,,,,,,,,,,,,,,,,,,,,,,,,,,,,,,,,,,,,,,,,,,,,,,,,,,,,,,,,,,,,,,,,,,,,,,,,,,,,,,,,,,,,,,,,
,,5d968811d3cea301700f4868,2024-02-21_21h19.06.720,kallum_motion_pilot,2023.2.2,Win32,59.88023952,5d968811d3cea301700f4868,65d6bb0e977760de756971f7,65d6bd079fd3ab199827bec7,0.0199,0.0199,0,29,29,129,1,fiveseven,,,,,,,,,,,,,,,,,,,,,,,,,,,,,,,,,,,,,,,,,,,,,,,,,,,,,,,,,,,,,,,,,,,,,,,,,,,,,,,,,,,,,,,,,,,,,,,,,,,,,,,,,,,,,,,,,,,,,,,,,,,,,,,,,,,,,,,,,
,,5d968811d3cea301700f4868,2024-02-21_21h19.06.720,kallum_motion_pilot,2023.2.2,Win32,59.88023952,5d968811d3cea301700f4868,65d6bb0e977760de756971f7,65d6bd079fd3ab199827bec7,0.02,0.02,0,30,30,95,1,eightseven,,,,,,,,,,,,,,,,,,,,,,,,,,,,,,,,,,,,,,,,,,,,,,,,,,,,,,,,,,,,,,,,,,,,,,,,,,,,,,,,,,,,,,,,,,,,,,,,,,,,,,,,,,,,,,,,,,,,,,,,,,,,,,,,,,,,,,,,,
,,5d968811d3cea301700f4868,2024-02-21_21h19.06.720,kallum_motion_pilot,2023.2.2,Win32,59.88023952,5d968811d3cea301700f4868,65d6bb0e977760de756971f7,65d6bd079fd3ab199827bec7,0.02,0.0201,0,31,31,127,1,eightseven,,,,,,,,,,,,,,,,,,,,,,,,,,,,,,,,,,,,,,,,,,,,,,,,,,,,,,,,,,,,,,,,,,,,,,,,,,,,,,,,,,,,,,,,,,,,,,,,,,,,,,,,,,,,,,,,,,,,,,,,,,,,,,,,,,,,,,,,,
,,5d968811d3cea301700f4868,2024-02-21_21h19.06.720,kallum_motion_pilot,2023.2.2,Win32,59.88023952,5d968811d3cea301700f4868,65d6bb0e977760de756971f7,65d6bd079fd3ab199827bec7,0.0201,0.0201,0,32,32,0,1,onetwo,,,,,,,,,,,,,,,,,,,,,,,,,,,,,,,,,,,,,,,,,,,,,,,,,,,,,,,,,,,,,,,,,,,,,,,,,,,,,,,,,,,,,,,,,,,,,,,,,,,,,,,,,,,,,,,,,,,,,,,,,,,,,,,,,,,,,,,,,
,,5d968811d3cea301700f4868,2024-02-21_21h19.06.720,kallum_motion_pilot,2023.2.2,Win32,59.88023952,5d968811d3cea301700f4868,65d6bb0e977760de756971f7,65d6bd079fd3ab199827bec7,0.0202,0.0202,0,33,33,158,1,eightsix,,,,,,,,,,,,,,,,,,,,,,,,,,,,,,,,,,,,,,,,,,,,,,,,,,,,,,,,,,,,,,,,,,,,,,,,,,,,,,,,,,,,,,,,,,,,,,,,,,,,,,,,,,,,,,,,,,,,,,,,,,,,,,,,,,,,,,,,,
,,5d968811d3cea301700f4868,2024-02-21_21h19.06.720,kallum_motion_pilot,2023.2.2,Win32,59.88023952,5d968811d3cea301700f4868,65d6bb0e977760de756971f7,65d6bd079fd3ab199827bec7,0.0202,0.0203,0,34,34,154,1,sixfive,,,,,,,,,,,,,,,,,,,,,,,,,,,,,,,,,,,,,,,,,,,,,,,,,,,,,,,,,,,,,,,,,,,,,,,,,,,,,,,,,,,,,,,,,,,,,,,,,,,,,,,,,,,,,,,,,,,,,,,,,,,,,,,,,,,,,,,,,
,,5d968811d3cea301700f4868,2024-02-21_21h19.06.720,kallum_motion_pilot,2023.2.2,Win32,59.88023952,5d968811d3cea301700f4868,65d6bb0e977760de756971f7,65d6bd079fd3ab199827bec7,0.0203,0.0203,0,35,35,23,1,fourthree,,,,,,,,,,,,,,,,,,,,,,,,,,,,,,,,,,,,,,,,,,,,,,,,,,,,,,,,,,,,,,,,,,,,,,,,,,,,,,,,,,,,,,,,,,,,,,,,,,,,,,,,,,,,,,,,,,,,,,,,,,,,,,,,,,,,,,,,,
,,5d968811d3cea301700f4868,2024-02-21_21h19.06.720,kallum_motion_pilot,2023.2.2,Win32,59.88023952,5d968811d3cea301700f4868,65d6bb0e977760de756971f7,65d6bd079fd3ab199827bec7,0.0203,0.0203,0,36,36,146,1,sixfive,,,,,,,,,,,,,,,,,,,,,,,,,,,,,,,,,,,,,,,,,,,,,,,,,,,,,,,,,,,,,,,,,,,,,,,,,,,,,,,,,,,,,,,,,,,,,,,,,,,,,,,,,,,,,,,,,,,,,,,,,,,,,,,,,,,,,,,,,
,,5d968811d3cea301700f4868,2024-02-21_21h19.06.720,kallum_motion_pilot,2023.2.2,Win32,59.88023952,5d968811d3cea301700f4868,65d6bb0e977760de756971f7,65d6bd079fd3ab199827bec7,0.0204,0.0204,0,37,37,115,1,sixeight,,,,,,,,,,,,,,,,,,,,,,,,,,,,,,,,,,,,,,,,,,,,,,,,,,,,,,,,,,,,,,,,,,,,,,,,,,,,,,,,,,,,,,,,,,,,,,,,,,,,,,,,,,,,,,,,,,,,,,,,,,,,,,,,,,,,,,,,,
,,5d968811d3cea301700f4868,2024-02-21_21h19.06.720,kallum_motion_pilot,2023.2.2,Win32,59.88023952,5d968811d3cea301700f4868,65d6bb0e977760de756971f7,65d6bd079fd3ab199827bec7,0.0204,0.0204,0,38,38,28,1,threeone,,,,,,,,,,,,,,,,,,,,,,,,,,,,,,,,,,,,,,,,,,,,,,,,,,,,,,,,,,,,,,,,,,,,,,,,,,,,,,,,,,,,,,,,,,,,,,,,,,,,,,,,,,,,,,,,,,,,,,,,,,,,,,,,,,,,,,,,,
,,5d968811d3cea301700f4868,2024-02-21_21h19.06.720,kallum_motion_pilot,2023.2.2,Win32,59.88023952,5d968811d3cea301700f4868,65d6bb0e977760de756971f7,65d6bd079fd3ab199827bec7,0.0205,0.0205,0,39,39,86,1,eightsix,,,,,,,,,,,,,,,,,,,,,,,,,,,,,,,,,,,,,,,,,,,,,,,,,,,,,,,,,,,,,,,,,,,,,,,,,,,,,,,,,,,,,,,,,,,,,,,,,,,,,,,,,,,,,,,,,,,,,,,,,,,,,,,,,,,,,,,,,
,,5d968811d3cea301700f4868,2024-02-21_21h19.06.720,kallum_motion_pilot,2023.2.2,Win32,59.88023952,5d968811d3cea301700f4868,65d6bb0e977760de756971f7,65d6bd079fd3ab199827bec7,0.0205,0.0205,0,40,40,69,1,threefour,,,,,,,,,,,,,,,,,,,,,,,,,,,,,,,,,,,,,,,,,,,,,,,,,,,,,,,,,,,,,,,,,,,,,,,,,,,,,,,,,,,,,,,,,,,,,,,,,,,,,,,,,,,,,,,,,,,,,,,,,,,,,,,,,,,,,,,,,
,,5d968811d3cea301700f4868,2024-02-21_21h19.06.720,kallum_motion_pilot,2023.2.2,Win32,59.88023952,5d968811d3cea301700f4868,65d6bb0e977760de756971f7,65d6bd079fd3ab199827bec7,0.0206,0.0206,0,41,41,47,1,fourthree,,,,,,,,,,,,,,,,,,,,,,,,,,,,,,,,,,,,,,,,,,,,,,,,,,,,,,,,,,,,,,,,,,,,,,,,,,,,,,,,,,,,,,,,,,,,,,,,,,,,,,,,,,,,,,,,,,,,,,,,,,,,,,,,,,,,,,,,,
,,5d968811d3cea301700f4868,2024-02-21_21h19.06.720,kallum_motion_pilot,2023.2.2,Win32,59.88023952,5d968811d3cea301700f4868,65d6bb0e977760de756971f7,65d6bd079fd3ab199827bec7,0.0206,0.0206,0,42,42,36,1,threeone,,,,,,,,,,,,,,,,,,,,,,,,,,,,,,,,,,,,,,,,,,,,,,,,,,,,,,,,,,,,,,,,,,,,,,,,,,,,,,,,,,,,,,,,,,,,,,,,,,,,,,,,,,,,,,,,,,,,,,,,,,,,,,,,,,,,,,,,,
,,5d968811d3cea301700f4868,2024-02-21_21h19.06.720,kallum_motion_pilot,2023.2.2,Win32,59.88023952,5d968811d3cea301700f4868,65d6bb0e977760de756971f7,65d6bd079fd3ab199827bec7,0.0208,0.0208,0,43,43,29,1,threefour,,,,,,,,,,,,,,,,,,,,,,,,,,,,,,,,,,,,,,,,,,,,,,,,,,,,,,,,,,,,,,,,,,,,,,,,,,,,,,,,,,,,,,,,,,,,,,,,,,,,,,,,,,,,,,,,,,,,,,,,,,,,,,,,,,,,,,,,,
,,5d968811d3cea301700f4868,2024-02-21_21h19.06.720,kallum_motion_pilot,2023.2.2,Win32,59.88023952,5d968811d3cea301700f4868,65d6bb0e977760de756971f7,65d6bd079fd3ab199827bec7,0.0208,0.0208,0,44,44,82,1,sixfive,,,,,,,,,,,,,,,,,,,,,,,,,,,,,,,,,,,,,,,,,,,,,,,,,,,,,,,,,,,,,,,,,,,,,,,,,,,,,,,,,,,,,,,,,,,,,,,,,,,,,,,,,,,,,,,,,,,,,,,,,,,,,,,,,,,,,,,,,
,,5d968811d3cea301700f4868,2024-02-21_21h19.06.720,kallum_motion_pilot,2023.2.2,Win32,59.88023952,5d968811d3cea301700f4868,65d6bb0e977760de756971f7,65d6bd079fd3ab199827bec7,0.0208,0.0208,0,45,45,159,1,eightseven,,,,,,,,,,,,,,,,,,,,,,,,,,,,,,,,,,,,,,,,,,,,,,,,,,,,,,,,,,,,,,,,,,,,,,,,,,,,,,,,,,,,,,,,,,,,,,,,,,,,,,,,,,,,,,,,,,,,,,,,,,,,,,,,,,,,,,,,,
,,5d968811d3cea301700f4868,2024-02-21_21h19.06.720,kallum_motion_pilot,2023.2.2,Win32,59.88023952,5d968811d3cea301700f4868,65d6bb0e977760de756971f7,65d6bd079fd3ab199827bec7,0.0208,0.0209,0,46,46,32,1,onetwo,,,,,,,,,,,,,,,,,,,,,,,,,,,,,,,,,,,,,,,,,,,,,,,,,,,,,,,,,,,,,,,,,,,,,,,,,,,,,,,,,,,,,,,,,,,,,,,,,,,,,,,,,,,,,,,,,,,,,,,,,,,,,,,,,,,,,,,,,
,,5d968811d3cea301700f4868,2024-02-21_21h19.06.720,kallum_motion_pilot,2023.2.2,Win32,59.88023952,5d968811d3cea301700f4868,65d6bb0e977760de756971f7,65d6bd079fd3ab199827bec7,0.021,0.021,0,47,47,81,1,fiveseven,,,,,,,,,,,,,,,,,,,,,,,,,,,,,,,,,,,,,,,,,,,,,,,,,,,,,,,,,,,,,,,,,,,,,,,,,,,,,,,,,,,,,,,,,,,,,,,,,,,,,,,,,,,,,,,,,,,,,,,,,,,,,,,,,,,,,,,,,
,,5d968811d3cea301700f4868,2024-02-21_21h19.06.720,kallum_motion_pilot,2023.2.2,Win32,59.88023952,5d968811d3cea301700f4868,65d6bb0e977760de756971f7,65d6bd079fd3ab199827bec7,0.021,0.021,0,48,48,134,1,eightsix,,,,,,,,,,,,,,,,,,,,,,,,,,,,,,,,,,,,,,,,,,,,,,,,,,,,,,,,,,,,,,,,,,,,,,,,,,,,,,,,,,,,,,,,,,,,,,,,,,,,,,,,,,,,,,,,,,,,,,,,,,,,,,,,,,,,,,,,,
,,5d968811d3cea301700f4868,2024-02-21_21h19.06.720,kallum_motion_pilot,2023.2.2,Win32,59.88023952,5d968811d3cea301700f4868,65d6bb0e977760de756971f7,65d6bd079fd3ab199827bec7,0.021,0.0211,0,49,49,15,1,fourthree,,,,,,,,,,,,,,,,,,,,,,,,,,,,,,,,,,,,,,,,,,,,,,,,,,,,,,,,,,,,,,,,,,,,,,,,,,,,,,,,,,,,,,,,,,,,,,,,,,,,,,,,,,,,,,,,,,,,,,,,,,,,,,,,,,,,,,,,,
,,5d968811d3cea301700f4868,2024-02-21_21h19.06.720,kallum_motion_pilot,2023.2.2,Win32,59.88023952,5d968811d3cea301700f4868,65d6bb0e977760de756971f7,65d6bd079fd3ab199827bec7,0.0211,0.0211,0,50,50,48,1,onetwo,,,,,,,,,,,,,,,,,,,,,,,,,,,,,,,,,,,,,,,,,,,,,,,,,,,,,,,,,,,,,,,,,,,,,,,,,,,,,,,,,,,,,,,,,,,,,,,,,,,,,,,,,,,,,,,,,,,,,,,,,,,,,,,,,,,,,,,,,
,,5d968811d3cea301700f4868,2024-02-21_21h19.06.720,kallum_motion_pilot,2023.2.2,Win32,59.88023952,5d968811d3cea301700f4868,65d6bb0e977760de756971f7,65d6bd079fd3ab199827bec7,0.0212,0.0212,0,51,51,49,1,onethree,,,,,,,,,,,,,,,,,,,,,,,,,,,,,,,,,,,,,,,,,,,,,,,,,,,,,,,,,,,,,,,,,,,,,,,,,,,,,,,,,,,,,,,,,,,,,,,,,,,,,,,,,,,,,,,,,,,,,,,,,,,,,,,,,,,,,,,,,
,,5d968811d3cea301700f4868,2024-02-21_21h19.06.720,kallum_motion_pilot,2023.2.2,Win32,59.88023952,5d968811d3cea301700f4868,65d6bb0e977760de756971f7,65d6bd079fd3ab199827bec7,0.0212,0.0213,0,52,52,143,1,eightseven,,,,,,,,,,,,,,,,,,,,,,,,,,,,,,,,,,,,,,,,,,,,,,,,,,,,,,,,,,,,,,,,,,,,,,,,,,,,,,,,,,,,,,,,,,,,,,,,,,,,,,,,,,,,,,,,,,,,,,,,,,,,,,,,,,,,,,,,,
,,5d968811d3cea301700f4868,2024-02-21_21h19.06.720,kallum_motion_pilot,2023.2.2,Win32,59.88023952,5d968811d3cea301700f4868,65d6bb0e977760de756971f7,65d6bd079fd3ab199827bec7,0.0213,0.0213,0,53,53,12,1,threeone,,,,,,,,,,,,,,,,,,,,,,,,,,,,,,,,,,,,,,,,,,,,,,,,,,,,,,,,,,,,,,,,,,,,,,,,,,,,,,,,,,,,,,,,,,,,,,,,,,,,,,,,,,,,,,,,,,,,,,,,,,,,,,,,,,,,,,,,,
,,5d968811d3cea301700f4868,2024-02-21_21h19.06.720,kallum_motion_pilot,2023.2.2,Win32,59.88023952,5d968811d3cea301700f4868,65d6bb0e977760de756971f7,65d6bd079fd3ab199827bec7,0.0214,0.0214,0,54,54,88,1,fivesix,,,,,,,,,,,,,,,,,,,,,,,,,,,,,,,,,,,,,,,,,,,,,,,,,,,,,,,,,,,,,,,,,,,,,,,,,,,,,,,,,,,,,,,,,,,,,,,,,,,,,,,,,,,,,,,,,,,,,,,,,,,,,,,,,,,,,,,,,
,,5d968811d3cea301700f4868,2024-02-21_21h19.06.720,kallum_motion_pilot,2023.2.2,Win32,59.88023952,5d968811d3cea301700f4868,65d6bb0e977760de756971f7,65d6bd079fd3ab199827bec7,0.0214,0.0214,0,55,55,139,1,sixeight,,,,,,,,,,,,,,,,,,,,,,,,,,,,,,,,,,,,,,,,,,,,,,,,,,,,,,,,,,,,,,,,,,,,,,,,,,,,,,,,,,,,,,,,,,,,,,,,,,,,,,,,,,,,,,,,,,,,,,,,,,,,,,,,,,,,,,,,,
,,5d968811d3cea301700f4868,2024-02-21_21h19.06.720,kallum_motion_pilot,2023.2.2,Win32,59.88023952,5d968811d3cea301700f4868,65d6bb0e977760de756971f7,65d6bd079fd3ab199827bec7,0.0215,0.0215,0,56,56,53,1,threefour,,,,,,,,,,,,,,,,,,,,,,,,,,,,,,,,,,,,,,,,,,,,,,,,,,,,,,,,,,,,,,,,,,,,,,,,,,,,,,,,,,,,,,,,,,,,,,,,,,,,,,,,,,,,,,,,,,,,,,,,,,,,,,,,,,,,,,,,,
,,5d968811d3cea301700f4868,2024-02-21_21h19.06.720,kallum_motion_pilot,2023.2.2,Win32,59.88023952,5d968811d3cea301700f4868,65d6bb0e977760de756971f7,65d6bd079fd3ab199827bec7,0.0215,0.0215,0,57,57,21,1,threefour,,,,,,,,,,,,,,,,,,,,,,,,,,,,,,,,,,,,,,,,,,,,,,,,,,,,,,,,,,,,,,,,,,,,,,,,,,,,,,,,,,,,,,,,,,,,,,,,,,,,,,,,,,,,,,,,,,,,,,,,,,,,,,,,,,,,,,,,,
,,5d968811d3cea301700f4868,2024-02-21_21h19.06.720,kallum_motion_pilot,2023.2.2,Win32,59.88023952,5d968811d3cea301700f4868,65d6bb0e977760de756971f7,65d6bd079fd3ab199827bec7,0.0216,0.0216,0,58,58,132,1,sevenfive,,,,,,,,,,,,,,,,,,,,,,,,,,,,,,,,,,,,,,,,,,,,,,,,,,,,,,,,,,,,,,,,,,,,,,,,,,,,,,,,,,,,,,,,,,,,,,,,,,,,,,,,,,,,,,,,,,,,,,,,,,,,,,,,,,,,,,,,,
,,5d968811d3cea301700f4868,2024-02-21_21h19.06.720,kallum_motion_pilot,2023.2.2,Win32,59.88023952,5d968811d3cea301700f4868,65d6bb0e977760de756971f7,65d6bd079fd3ab199827bec7,0.0216,0.0217,0,59,59,128,1,fivesix,,,,,,,,,,,,,,,,,,,,,,,,,,,,,,,,,,,,,,,,,,,,,,,,,,,,,,,,,,,,,,,,,,,,,,,,,,,,,,,,,,,,,,,,,,,,,,,,,,,,,,,,,,,,,,,,,,,,,,,,,,,,,,,,,,,,,,,,,
,,5d968811d3cea301700f4868,2024-02-21_21h19.06.720,kallum_motion_pilot,2023.2.2,Win32,59.88023952,5d968811d3cea301700f4868,65d6bb0e977760de756971f7,65d6bd079fd3ab199827bec7,0.0217,0.0217,0,60,60,70,1,fourtwo,,,,,,,,,,,,,,,,,,,,,,,,,,,,,,,,,,,,,,,,,,,,,,,,,,,,,,,,,,,,,,,,,,,,,,,,,,,,,,,,,,,,,,,,,,,,,,,,,,,,,,,,,,,,,,,,,,,,,,,,,,,,,,,,,,,,,,,,,
,,5d968811d3cea301700f4868,2024-02-21_21h19.06.720,kallum_motion_pilot,2023.2.2,Win32,59.88023952,5d968811d3cea301700f4868,65d6bb0e977760de756971f7,65d6bd079fd3ab199827bec7,0.0217,0.0217,0,61,61,35,1,twofour,,,,,,,,,,,,,,,,,,,,,,,,,,,,,,,,,,,,,,,,,,,,,,,,,,,,,,,,,,,,,,,,,,,,,,,,,,,,,,,,,,,,,,,,,,,,,,,,,,,,,,,,,,,,,,,,,,,,,,,,,,,,,,,,,,,,,,,,,
,,5d968811d3cea301700f4868,2024-02-21_21h19.06.720,kallum_motion_pilot,2023.2.2,Win32,59.88023952,5d968811d3cea301700f4868,65d6bb0e977760de756971f7,65d6bd079fd3ab199827bec7,0.0218,0.0219,0,62,62,40,1,onetwo,,,,,,,,,,,,,,,,,,,,,,,,,,,,,,,,,,,,,,,,,,,,,,,,,,,,,,,,,,,,,,,,,,,,,,,,,,,,,,,,,,,,,,,,,,,,,,,,,,,,,,,,,,,,,,,,,,,,,,,,,,,,,,,,,,,,,,,,,
,,5d968811d3cea301700f4868,2024-02-21_21h19.06.720,kallum_motion_pilot,2023.2.2,Win32,59.88023952,5d968811d3cea301700f4868,65d6bb0e977760de756971f7,65d6bd079fd3ab199827bec7,0.0219,0.0219,0,63,63,156,1,sevenfive,,,,,,,,,,,,,,,,,,,,,,,,,,,,,,,,,,,,,,,,,,,,,,,,,,,,,,,,,,,,,,,,,,,,,,,,,,,,,,,,,,,,,,,,,,,,,,,,,,,,,,,,,,,,,,,,,,,,,,,,,,,,,,,,,,,,,,,,,
,,5d968811d3cea301700f4868,2024-02-21_21h19.06.720,kallum_motion_pilot,2023.2.2,Win32,59.88023952,5d968811d3cea301700f4868,65d6bb0e977760de756971f7,65d6bd079fd3ab199827bec7,0.0219,0.0219,0,64,64,120,1,fivesix,,,,,,,,,,,,,,,,,,,,,,,,,,,,,,,,,,,,,,,,,,,,,,,,,,,,,,,,,,,,,,,,,,,,,,,,,,,,,,,,,,,,,,,,,,,,,,,,,,,,,,,,,,,,,,,,,,,,,,,,,,,,,,,,,,,,,,,,,
,,5d968811d3cea301700f4868,2024-02-21_21h19.06.720,kallum_motion_pilot,2023.2.2,Win32,59.88023952,5d968811d3cea301700f4868,65d6bb0e977760de756971f7,65d6bd079fd3ab199827bec7,0.0221,0.0221,0,65,65,117,1,seveneight,,,,,,,,,,,,,,,,,,,,,,,,,,,,,,,,,,,,,,,,,,,,,,,,,,,,,,,,,,,,,,,,,,,,,,,,,,,,,,,,,,,,,,,,,,,,,,,,,,,,,,,,,,,,,,,,,,,,,,,,,,,,,,,,,,,,,,,,,
,,5d968811d3cea301700f4868,2024-02-21_21h19.06.720,kallum_motion_pilot,2023.2.2,Win32,59.88023952,5d968811d3cea301700f4868,65d6bb0e977760de756971f7,65d6bd079fd3ab199827bec7,0.0221,0.0221,0,66,66,77,1,threefour,,,,,,,,,,,,,,,,,,,,,,,,,,,,,,,,,,,,,,,,,,,,,,,,,,,,,,,,,,,,,,,,,,,,,,,,,,,,,,,,,,,,,,,,,,,,,,,,,,,,,,,,,,,,,,,,,,,,,,,,,,,,,,,,,,,,,,,,,
,,5d968811d3cea301700f4868,2024-02-21_21h19.06.720,kallum_motion_pilot,2023.2.2,Win32,59.88023952,5d968811d3cea301700f4868,65d6bb0e977760de756971f7,65d6bd079fd3ab199827bec7,0.0222,0.0222,0,67,67,56,1,onetwo,,,,,,,,,,,,,,,,,,,,,,,,,,,,,,,,,,,,,,,,,,,,,,,,,,,,,,,,,,,,,,,,,,,,,,,,,,,,,,,,,,,,,,,,,,,,,,,,,,,,,,,,,,,,,,,,,,,,,,,,,,,,,,,,,,,,,,,,,
,,5d968811d3cea301700f4868,2024-02-21_21h19.06.720,kallum_motion_pilot,2023.2.2,Win32,59.88023952,5d968811d3cea301700f4868,65d6bb0e977760de756971f7,65d6bd079fd3ab199827bec7,0.0222,0.0222,0,68,68,152,1,fivesix,,,,,,,,,,,,,,,,,,,,,,,,,,,,,,,,,,,,,,,,,,,,,,,,,,,,,,,,,,,,,,,,,,,,,,,,,,,,,,,,,,,,,,,,,,,,,,,,,,,,,,,,,,,,,,,,,,,,,,,,,,,,,,,,,,,,,,,,,
,,5d968811d3cea301700f4868,2024-02-21_21h19.06.720,kallum_motion_pilot,2023.2.2,Win32,59.88023952,5d968811d3cea301700f4868,65d6bb0e977760de756971f7,65d6bd079fd3ab199827bec7,0.0223,0.0223,0,69,69,37,1,threefour,,,,,,,,,,,,,,,,,,,,,,,,,,,,,,,,,,,,,,,,,,,,,,,,,,,,,,,,,,,,,,,,,,,,,,,,,,,,,,,,,,,,,,,,,,,,,,,,,,,,,,,,,,,,,,,,,,,,,,,,,,,,,,,,,,,,,,,,,
,,5d968811d3cea301700f4868,2024-02-21_21h19.06.720,kallum_motion_pilot,2023.2.2,Win32,59.88023952,5d968811d3cea301700f4868,65d6bb0e977760de756971f7,65d6bd079fd3ab199827bec7,0.0224,0.0224,0,70,70,99,1,sixeight,,,,,,,,,,,,,,,,,,,,,,,,,,,,,,,,,,,,,,,,,,,,,,,,,,,,,,,,,,,,,,,,,,,,,,,,,,,,,,,,,,,,,,,,,,,,,,,,,,,,,,,,,,,,,,,,,,,,,,,,,,,,,,,,,,,,,,,,,
,,5d968811d3cea301700f4868,2024-02-21_21h19.06.720,kallum_motion_pilot,2023.2.2,Win32,59.88023952,5d968811d3cea301700f4868,65d6bb0e977760de756971f7,65d6bd079fd3ab199827bec7,0.0224,0.0224,0,71,71,109,1,seveneight,,,,,,,,,,,,,,,,,,,,,,,,,,,,,,,,,,,,,,,,,,,,,,,,,,,,,,,,,,,,,,,,,,,,,,,,,,,,,,,,,,,,,,,,,,,,,,,,,,,,,,,,,,,,,,,,,,,,,,,,,,,,,,,,,,,,,,,,,
,,5d968811d3cea301700f4868,2024-02-21_21h19.06.720,kallum_motion_pilot,2023.2.2,Win32,59.88023952,5d968811d3cea301700f4868,65d6bb0e977760de756971f7,65d6bd079fd3ab199827bec7,0.0225,0.0225,0,72,72,150,1,eightsix,,,,,,,,,,,,,,,,,,,,,,,,,,,,,,,,,,,,,,,,,,,,,,,,,,,,,,,,,,,,,,,,,,,,,,,,,,,,,,,,,,,,,,,,,,,,,,,,,,,,,,,,,,,,,,,,,,,,,,,,,,,,,,,,,,,,,,,,,
,,5d968811d3cea301700f4868,2024-02-21_21h19.06.720,kallum_motion_pilot,2023.2.2,Win32,59.88023952,5d968811d3cea301700f4868,65d6bb0e977760de756971f7,65d6bd079fd3ab199827bec7,0.0226,0.0226,0,73,73,83,1,sixeight,,,,,,,,,,,,,,,,,,,,,,,,,,,,,,,,,,,,,,,,,,,,,,,,,,,,,,,,,,,,,,,,,,,,,,,,,,,,,,,,,,,,,,,,,,,,,,,,,,,,,,,,,,,,,,,,,,,,,,,,,,,,,,,,,,,,,,,,,
,,5d968811d3cea301700f4868,2024-02-21_21h19.06.720,kallum_motion_pilot,2023.2.2,Win32,59.88023952,5d968811d3cea301700f4868,65d6bb0e977760de756971f7,65d6bd079fd3ab199827bec7,0.0227,0.0227,0,74,74,5,1,threefour,,,,,,,,,,,,,,,,,,,,,,,,,,,,,,,,,,,,,,,,,,,,,,,,,,,,,,,,,,,,,,,,,,,,,,,,,,,,,,,,,,,,,,,,,,,,,,,,,,,,,,,,,,,,,,,,,,,,,,,,,,,,,,,,,,,,,,,,,
,,5d968811d3cea301700f4868,2024-02-21_21h19.06.720,kallum_motion_pilot,2023.2.2,Win32,59.88023952,5d968811d3cea301700f4868,65d6bb0e977760de756971f7,65d6bd079fd3ab199827bec7,0.0227,0.0227,0,75,75,20,1,threeone,,,,,,,,,,,,,,,,,,,,,,,,,,,,,,,,,,,,,,,,,,,,,,,,,,,,,,,,,,,,,,,,,,,,,,,,,,,,,,,,,,,,,,,,,,,,,,,,,,,,,,,,,,,,,,,,,,,,,,,,,,,,,,,,,,,,,,,,,
,,5d968811d3cea301700f4868,2024-02-21_21h19.06.720,kallum_motion_pilot,2023.2.2,Win32,59.88023952,5d968811d3cea301700f4868,65d6bb0e977760de756971f7,65d6bd079fd3ab199827bec7,0.0228,0.0228,0,76,76,64,1,onetwo,,,,,,,,,,,,,,,,,,,,,,,,,,,,,,,,,,,,,,,,,,,,,,,,,,,,,,,,,,,,,,,,,,,,,,,,,,,,,,,,,,,,,,,,,,,,,,,,,,,,,,,,,,,,,,,,,,,,,,,,,,,,,,,,,,,,,,,,,
,,5d968811d3cea301700f4868,2024-02-21_21h19.06.720,kallum_motion_pilot,2023.2.2,Win32,59.88023952,5d968811d3cea301700f4868,65d6bb0e977760de756971f7,65d6bd079fd3ab199827bec7,0.0229,0.0229,0,77,77,10,1,twoone,,,,,,,,,,,,,,,,,,,,,,,,,,,,,,,,,,,,,,,,,,,,,,,,,,,,,,,,,,,,,,,,,,,,,,,,,,,,,,,,,,,,,,,,,,,,,,,,,,,,,,,,,,,,,,,,,,,,,,,,,,,,,,,,,,,,,,,,,
,,5d968811d3cea301700f4868,2024-02-21_21h19.06.720,kallum_motion_pilot,2023.2.2,Win32,59.88023952,5d968811d3cea301700f4868,65d6bb0e977760de756971f7,65d6bd079fd3ab199827bec7,0.0229,0.0229,0,78,78,27,1,twofour,,,,,,,,,,,,,,,,,,,,,,,,,,,,,,,,,,,,,,,,,,,,,,,,,,,,,,,,,,,,,,,,,,,,,,,,,,,,,,,,,,,,,,,,,,,,,,,,,,,,,,,,,,,,,,,,,,,,,,,,,,,,,,,,,,,,,,,,,
,,5d968811d3cea301700f4868,2024-02-21_21h19.06.720,kallum_motion_pilot,2023.2.2,Win32,59.88023952,5d968811d3cea301700f4868,65d6bb0e977760de756971f7,65d6bd079fd3ab199827bec7,0.0229,0.0229,0,79,79,122,1,sixfive,,,,,,,,,,,,,,,,,,,,,,,,,,,,,,,,,,,,,,,,,,,,,,,,,,,,,,,,,,,,,,,,,,,,,,,,,,,,,,,,,,,,,,,,,,,,,,,,,,,,,,,,,,,,,,,,,,,,,,,,,,,,,,,,,,,,,,,,,
,,5d968811d3cea301700f4868,2024-02-21_21h19.06.720,kallum_motion_pilot,2023.2.2,Win32,59.88023952,5d968811d3cea301700f4868,65d6bb0e977760de756971f7,65d6bd079fd3ab199827bec7,0.023,0.023,0,80,80,44,1,threeone,,,,,,,,,,,,,,,,,,,,,,,,,,,,,,,,,,,,,,,,,,,,,,,,,,,,,,,,,,,,,,,,,,,,,,,,,,,,,,,,,,,,,,,,,,,,,,,,,,,,,,,,,,,,,,,,,,,,,,,,,,,,,,,,,,,,,,,,,
,,5d968811d3cea301700f4868,2024-02-21_21h19.06.720,kallum_motion_pilot,2023.2.2,Win32,59.88023952,5d968811d3cea301700f4868,65d6bb0e977760de756971f7,65d6bd079fd3ab199827bec7,0.0231,0.0231,0,81,81,100,1,sevenfive,,,,,,,,,,,,,,,,,,,,,,,,,,,,,,,,,,,,,,,,,,,,,,,,,,,,,,,,,,,,,,,,,,,,,,,,,,,,,,,,,,,,,,,,,,,,,,,,,,,,,,,,,,,,,,,,,,,,,,,,,,,,,,,,,,,,,,,,,
,,5d968811d3cea301700f4868,2024-02-21_21h19.06.720,kallum_motion_pilot,2023.2.2,Win32,59.88023952,5d968811d3cea301700f4868,65d6bb0e977760de756971f7,65d6bd079fd3ab199827bec7,0.0231,0.0231,0,82,82,58,1,twoone,,,,,,,,,,,,,,,,,,,,,,,,,,,,,,,,,,,,,,,,,,,,,,,,,,,,,,,,,,,,,,,,,,,,,,,,,,,,,,,,,,,,,,,,,,,,,,,,,,,,,,,,,,,,,,,,,,,,,,,,,,,,,,,,,,,,,,,,,
,,5d968811d3cea301700f4868,2024-02-21_21h19.06.720,kallum_motion_pilot,2023.2.2,Win32,59.88023952,5d968811d3cea301700f4868,65d6bb0e977760de756971f7,65d6bd079fd3ab199827bec7,0.0232,0.0232,0,83,83,22,1,fourtwo,,,,,,,,,,,,,,,,,,,,,,,,,,,,,,,,,,,,,,,,,,,,,,,,,,,,,,,,,,,,,,,,,,,,,,,,,,,,,,,,,,,,,,,,,,,,,,,,,,,,,,,,,,,,,,,,,,,,,,,,,,,,,,,,,,,,,,,,,
,,5d968811d3cea301700f4868,2024-02-21_21h19.06.720,kallum_motion_pilot,2023.2.2,Win32,59.88023952,5d968811d3cea301700f4868,65d6bb0e977760de756971f7,65d6bd079fd3ab199827bec7,0.0233,0.0233,0,84,84,138,1,sixfive,,,,,,,,,,,,,,,,,,,,,,,,,,,,,,,,,,,,,,,,,,,,,,,,,,,,,,,,,,,,,,,,,,,,,,,,,,,,,,,,,,,,,,,,,,,,,,,,,,,,,,,,,,,,,,,,,,,,,,,,,,,,,,,,,,,,,,,,,
,,5d968811d3cea301700f4868,2024-02-21_21h19.06.720,kallum_motion_pilot,2023.2.2,Win32,59.88023952,5d968811d3cea301700f4868,65d6bb0e977760de756971f7,65d6bd079fd3ab199827bec7,0.0233,0.0234,0,85,85,80,1,fivesix,,,,,,,,,,,,,,,,,,,,,,,,,,,,,,,,,,,,,,,,,,,,,,,,,,,,,,,,,,,,,,,,,,,,,,,,,,,,,,,,,,,,,,,,,,,,,,,,,,,,,,,,,,,,,,,,,,,,,,,,,,,,,,,,,,,,,,,,,
,,5d968811d3cea301700f4868,2024-02-21_21h19.06.720,kallum_motion_pilot,2023.2.2,Win32,59.88023952,5d968811d3cea301700f4868,65d6bb0e977760de756971f7,65d6bd079fd3ab199827bec7,0.0234,0.0234,0,86,86,54,1,fourtwo,,,,,,,,,,,,,,,,,,,,,,,,,,,,,,,,,,,,,,,,,,,,,,,,,,,,,,,,,,,,,,,,,,,,,,,,,,,,,,,,,,,,,,,,,,,,,,,,,,,,,,,,,,,,,,,,,,,,,,,,,,,,,,,,,,,,,,,,,
,,5d968811d3cea301700f4868,2024-02-21_21h19.06.720,kallum_motion_pilot,2023.2.2,Win32,59.88023952,5d968811d3cea301700f4868,65d6bb0e977760de756971f7,65d6bd079fd3ab199827bec7,0.0235,0.0235,0,87,87,101,1,seveneight,,,,,,,,,,,,,,,,,,,,,,,,,,,,,,,,,,,,,,,,,,,,,,,,,,,,,,,,,,,,,,,,,,,,,,,,,,,,,,,,,,,,,,,,,,,,,,,,,,,,,,,,,,,,,,,,,,,,,,,,,,,,,,,,,,,,,,,,,
,,5d968811d3cea301700f4868,2024-02-21_21h19.06.720,kallum_motion_pilot,2023.2.2,Win32,59.88023952,5d968811d3cea301700f4868,65d6bb0e977760de756971f7,65d6bd079fd3ab199827bec7,0.0242,0.0242,0,88,88,123,1,sixeight,,,,,,,,,,,,,,,,,,,,,,,,,,,,,,,,,,,,,,,,,,,,,,,,,,,,,,,,,,,,,,,,,,,,,,,,,,,,,,,,,,,,,,,,,,,,,,,,,,,,,,,,,,,,,,,,,,,,,,,,,,,,,,,,,,,,,,,,,
,,5d968811d3cea301700f4868,2024-02-21_21h19.06.720,kallum_motion_pilot,2023.2.2,Win32,59.88023952,5d968811d3cea301700f4868,65d6bb0e977760de756971f7,65d6bd079fd3ab199827bec7,0.0243,0.0244,0,89,89,45,1,threefour,,,,,,,,,,,,,,,,,,,,,,,,,,,,,,,,,,,,,,,,,,,,,,,,,,,,,,,,,,,,,,,,,,,,,,,,,,,,,,,,,,,,,,,,,,,,,,,,,,,,,,,,,,,,,,,,,,,,,,,,,,,,,,,,,,,,,,,,,
,,5d968811d3cea301700f4868,2024-02-21_21h19.06.720,kallum_motion_pilot,2023.2.2,Win32,59.88023952,5d968811d3cea301700f4868,65d6bb0e977760de756971f7,65d6bd079fd3ab199827bec7,0.0244,0.0244,0,90,90,130,1,sixfive,,,,,,,,,,,,,,,,,,,,,,,,,,,,,,,,,,,,,,,,,,,,,,,,,,,,,,,,,,,,,,,,,,,,,,,,,,,,,,,,,,,,,,,,,,,,,,,,,,,,,,,,,,,,,,,,,,,,,,,,,,,,,,,,,,,,,,,,,
,,5d968811d3cea301700f4868,2024-02-21_21h19.06.720,kallum_motion_pilot,2023.2.2,Win32,59.88023952,5d968811d3cea301700f4868,65d6bb0e977760de756971f7,65d6bd079fd3ab199827bec7,0.0244,0.0245,0,91,91,136,1,fivesix,,,,,,,,,,,,,,,,,,,,,,,,,,,,,,,,,,,,,,,,,,,,,,,,,,,,,,,,,,,,,,,,,,,,,,,,,,,,,,,,,,,,,,,,,,,,,,,,,,,,,,,,,,,,,,,,,,,,,,,,,,,,,,,,,,,,,,,,,
,,5d968811d3cea301700f4868,2024-02-21_21h19.06.720,kallum_motion_pilot,2023.2.2,Win32,59.88023952,5d968811d3cea301700f4868,65d6bb0e977760de756971f7,65d6bd079fd3ab199827bec7,0.0245,0.0245,0,92,92,118,1,eightsix,,,,,,,,,,,,,,,,,,,,,,,,,,,,,,,,,,,,,,,,,,,,,,,,,,,,,,,,,,,,,,,,,,,,,,,,,,,,,,,,,,,,,,,,,,,,,,,,,,,,,,,,,,,,,,,,,,,,,,,,,,,,,,,,,,,,,,,,,
,,5d968811d3cea301700f4868,2024-02-21_21h19.06.720,kallum_motion_pilot,2023.2.2,Win32,59.88023952,5d968811d3cea301700f4868,65d6bb0e977760de756971f7,65d6bd079fd3ab199827bec7,0.0246,0.0246,0,93,93,41,1,onethree,,,,,,,,,,,,,,,,,,,,,,,,,,,,,,,,,,,,,,,,,,,,,,,,,,,,,,,,,,,,,,,,,,,,,,,,,,,,,,,,,,,,,,,,,,,,,,,,,,,,,,,,,,,,,,,,,,,,,,,,,,,,,,,,,,,,,,,,,
,,5d968811d3cea301700f4868,2024-02-21_21h19.06.720,kallum_motion_pilot,2023.2.2,Win32,59.88023952,5d968811d3cea301700f4868,65d6bb0e977760de756971f7,65d6bd079fd3ab199827bec7,0.0247,0.0247,0,94,94,124,1,sevenfive,,,,,,,,,,,,,,,,,,,,,,,,,,,,,,,,,,,,,,,,,,,,,,,,,,,,,,,,,,,,,,,,,,,,,,,,,,,,,,,,,,,,,,,,,,,,,,,,,,,,,,,,,,,,,,,,,,,,,,,,,,,,,,,,,,,,,,,,,
,,5d968811d3cea301700f4868,2024-02-21_21h19.06.720,kallum_motion_pilot,2023.2.2,Win32,59.88023952,5d968811d3cea301700f4868,65d6bb0e977760de756971f7,65d6bd079fd3ab199827bec7,0.0247,0.0247,0,95,95,50,1,twoone,,,,,,,,,,,,,,,,,,,,,,,,,,,,,,,,,,,,,,,,,,,,,,,,,,,,,,,,,,,,,,,,,,,,,,,,,,,,,,,,,,,,,,,,,,,,,,,,,,,,,,,,,,,,,,,,,,,,,,,,,,,,,,,,,,,,,,,,,
,,5d968811d3cea301700f4868,2024-02-21_21h19.06.720,kallum_motion_pilot,2023.2.2,Win32,59.88023952,5d968811d3cea301700f4868,65d6bb0e977760de756971f7,65d6bd079fd3ab199827bec7,0.0247,0.0248,0,96,96,84,1,sevenfive,,,,,,,,,,,,,,,,,,,,,,,,,,,,,,,,,,,,,,,,,,,,,,,,,,,,,,,,,,,,,,,,,,,,,,,,,,,,,,,,,,,,,,,,,,,,,,,,,,,,,,,,,,,,,,,,,,,,,,,,,,,,,,,,,,,,,,,,,
,,5d968811d3cea301700f4868,2024-02-21_21h19.06.720,kallum_motion_pilot,2023.2.2,Win32,59.88023952,5d968811d3cea301700f4868,65d6bb0e977760de756971f7,65d6bd079fd3ab199827bec7,0.0248,0.0248,0,97,97,17,1,onethree,,,,,,,,,,,,,,,,,,,,,,,,,,,,,,,,,,,,,,,,,,,,,,,,,,,,,,,,,,,,,,,,,,,,,,,,,,,,,,,,,,,,,,,,,,,,,,,,,,,,,,,,,,,,,,,,,,,,,,,,,,,,,,,,,,,,,,,,,
,,5d968811d3cea301700f4868,2024-02-21_21h19.06.720,kallum_motion_pilot,2023.2.2,Win32,59.88023952,5d968811d3cea301700f4868,65d6bb0e977760de756971f7,65d6bd079fd3ab199827bec7,0.0248,0.0249,0,98,98,105,1,fiveseven,,,,,,,,,,,,,,,,,,,,,,,,,,,,,,,,,,,,,,,,,,,,,,,,,,,,,,,,,,,,,,,,,,,,,,,,,,,,,,,,,,,,,,,,,,,,,,,,,,,,,,,,,,,,,,,,,,,,,,,,,,,,,,,,,,,,,,,,,
,,5d968811d3cea301700f4868,2024-02-21_21h19.06.720,kallum_motion_pilot,2023.2.2,Win32,59.88023952,5d968811d3cea301700f4868,65d6bb0e977760de756971f7,65d6bd079fd3ab199827bec7,0.0249,0.025,0,99,99,113,1,fiveseven,,,,,,,,,,,,,,,,,,,,,,,,,,,,,,,,,,,,,,,,,,,,,,,,,,,,,,,,,,,,,,,,,,,,,,,,,,,,,,,,,,,,,,,,,,,,,,,,,,,,,,,,,,,,,,,,,,,,,,,,,,,,,,,,,,,,,,,,,
,,5d968811d3cea301700f4868,2024-02-21_21h19.06.720,kallum_motion_pilot,2023.2.2,Win32,59.88023952,5d968811d3cea301700f4868,65d6bb0e977760de756971f7,65d6bd079fd3ab199827bec7,0.025,0.025,0,100,100,148,1,sevenfive,,,,,,,,,,,,,,,,,,,,,,,,,,,,,,,,,,,,,,,,,,,,,,,,,,,,,,,,,,,,,,,,,,,,,,,,,,,,,,,,,,,,,,,,,,,,,,,,,,,,,,,,,,,,,,,,,,,,,,,,,,,,,,,,,,,,,,,,,
,,5d968811d3cea301700f4868,2024-02-21_21h19.06.720,kallum_motion_pilot,2023.2.2,Win32,59.88023952,5d968811d3cea301700f4868,65d6bb0e977760de756971f7,65d6bd079fd3ab199827bec7,0.0251,0.0251,0,101,101,93,1,seveneight,,,,,,,,,,,,,,,,,,,,,,,,,,,,,,,,,,,,,,,,,,,,,,,,,,,,,,,,,,,,,,,,,,,,,,,,,,,,,,,,,,,,,,,,,,,,,,,,,,,,,,,,,,,,,,,,,,,,,,,,,,,,,,,,,,,,,,,,,
,,5d968811d3cea301700f4868,2024-02-21_21h19.06.720,kallum_motion_pilot,2023.2.2,Win32,59.88023952,5d968811d3cea301700f4868,65d6bb0e977760de756971f7,65d6bd079fd3ab199827bec7,0.0252,0.0252,0,102,102,87,1,eightseven,,,,,,,,,,,,,,,,,,,,,,,,,,,,,,,,,,,,,,,,,,,,,,,,,,,,,,,,,,,,,,,,,,,,,,,,,,,,,,,,,,,,,,,,,,,,,,,,,,,,,,,,,,,,,,,,,,,,,,,,,,,,,,,,,,,,,,,,,
,,5d968811d3cea301700f4868,2024-02-21_21h19.06.720,kallum_motion_pilot,2023.2.2,Win32,59.88023952,5d968811d3cea301700f4868,65d6bb0e977760de756971f7,65d6bd079fd3ab199827bec7,0.0252,0.0252,0,103,103,137,1,fiveseven,,,,,,,,,,,,,,,,,,,,,,,,,,,,,,,,,,,,,,,,,,,,,,,,,,,,,,,,,,,,,,,,,,,,,,,,,,,,,,,,,,,,,,,,,,,,,,,,,,,,,,,,,,,,,,,,,,,,,,,,,,,,,,,,,,,,,,,,,
,,5d968811d3cea301700f4868,2024-02-21_21h19.06.720,kallum_motion_pilot,2023.2.2,Win32,59.88023952,5d968811d3cea301700f4868,65d6bb0e977760de756971f7,65d6bd079fd3ab199827bec7,0.0252,0.0252,0,104,104,62,1,fourtwo,,,,,,,,,,,,,,,,,,,,,,,,,,,,,,,,,,,,,,,,,,,,,,,,,,,,,,,,,,,,,,,,,,,,,,,,,,,,,,,,,,,,,,,,,,,,,,,,,,,,,,,,,,,,,,,,,,,,,,,,,,,,,,,,,,,,,,,,,
,,5d968811d3cea301700f4868,2024-02-21_21h19.06.720,kallum_motion_pilot,2023.2.2,Win32,59.88023952,5d968811d3cea301700f4868,65d6bb0e977760de756971f7,65d6bd079fd3ab199827bec7,0.0253,0.0253,0,105,105,55,1,fourthree,,,,,,,,,,,,,,,,,,,,,,,,,,,,,,,,,,,,,,,,,,,,,,,,,,,,,,,,,,,,,,,,,,,,,,,,,,,,,,,,,,,,,,,,,,,,,,,,,,,,,,,,,,,,,,,,,,,,,,,,,,,,,,,,,,,,,,,,,
,,5d968811d3cea301700f4868,2024-02-21_21h19.06.720,kallum_motion_pilot,2023.2.2,Win32,59.88023952,5d968811d3cea301700f4868,65d6bb0e977760de756971f7,65d6bd079fd3ab199827bec7,0.0253,0.0254,0,106,106,13,1,threefour,,,,,,,,,,,,,,,,,,,,,,,,,,,,,,,,,,,,,,,,,,,,,,,,,,,,,,,,,,,,,,,,,,,,,,,,,,,,,,,,,,,,,,,,,,,,,,,,,,,,,,,,,,,,,,,,,,,,,,,,,,,,,,,,,,,,,,,,,
,,5d968811d3cea301700f4868,2024-02-21_21h19.06.720,kallum_motion_pilot,2023.2.2,Win32,59.88023952,5d968811d3cea301700f4868,65d6bb0e977760de756971f7,65d6bd079fd3ab199827bec7,0.0254,0.0255,0,107,107,126,1,eightsix,,,,,,,,,,,,,,,,,,,,,,,,,,,,,,,,,,,,,,,,,,,,,,,,,,,,,,,,,,,,,,,,,,,,,,,,,,,,,,,,,,,,,,,,,,,,,,,,,,,,,,,,,,,,,,,,,,,,,,,,,,,,,,,,,,,,,,,,,
,,5d968811d3cea301700f4868,2024-02-21_21h19.06.720,kallum_motion_pilot,2023.2.2,Win32,59.88023952,5d968811d3cea301700f4868,65d6bb0e977760de756971f7,65d6bd079fd3ab199827bec7,0.0255,0.0255,0,108,108,147,1,sixeight,,,,,,,,,,,,,,,,,,,,,,,,,,,,,,,,,,,,,,,,,,,,,,,,,,,,,,,,,,,,,,,,,,,,,,,,,,,,,,,,,,,,,,,,,,,,,,,,,,,,,,,,,,,,,,,,,,,,,,,,,,,,,,,,,,,,,,,,,
,,5d968811d3cea301700f4868,2024-02-21_21h19.06.720,kallum_motion_pilot,2023.2.2,Win32,59.88023952,5d968811d3cea301700f4868,65d6bb0e977760de756971f7,65d6bd079fd3ab199827bec7,0.0256,0.0256,0,109,109,63,1,fourthree,,,,,,,,,,,,,,,,,,,,,,,,,,,,,,,,,,,,,,,,,,,,,,,,,,,,,,,,,,,,,,,,,,,,,,,,,,,,,,,,,,,,,,,,,,,,,,,,,,,,,,,,,,,,,,,,,,,,,,,,,,,,,,,,,,,,,,,,,
,,5d968811d3cea301700f4868,2024-02-21_21h19.06.720,kallum_motion_pilot,2023.2.2,Win32,59.88023952,5d968811d3cea301700f4868,65d6bb0e977760de756971f7,65d6bd079fd3ab199827bec7,0.0257,0.0257,0,110,110,125,1,seveneight,,,,,,,,,,,,,,,,,,,,,,,,,,,,,,,,,,,,,,,,,,,,,,,,,,,,,,,,,,,,,,,,,,,,,,,,,,,,,,,,,,,,,,,,,,,,,,,,,,,,,,,,,,,,,,,,,,,,,,,,,,,,,,,,,,,,,,,,,
,,5d968811d3cea301700f4868,2024-02-21_21h19.06.720,kallum_motion_pilot,2023.2.2,Win32,59.88023952,5d968811d3cea301700f4868,65d6bb0e977760de756971f7,65d6bd079fd3ab199827bec7,0.0257,0.0257,0,111,111,160,1,fivesix,,,,,,,,,,,,,,,,,,,,,,,,,,,,,,,,,,,,,,,,,,,,,,,,,,,,,,,,,,,,,,,,,,,,,,,,,,,,,,,,,,,,,,,,,,,,,,,,,,,,,,,,,,,,,,,,,,,,,,,,,,,,,,,,,,,,,,,,,
,,5d968811d3cea301700f4868,2024-02-21_21h19.06.720,kallum_motion_pilot,2023.2.2,Win32,59.88023952,5d968811d3cea301700f4868,65d6bb0e977760de756971f7,65d6bd079fd3ab199827bec7,0.0258,0.0258,0,112,112,79,1,eightseven,,,,,,,,,,,,,,,,,,,,,,,,,,,,,,,,,,,,,,,,,,,,,,,,,,,,,,,,,,,,,,,,,,,,,,,,,,,,,,,,,,,,,,,,,,,,,,,,,,,,,,,,,,,,,,,,,,,,,,,,,,,,,,,,,,,,,,,,,
,,5d968811d3cea301700f4868,2024-02-21_21h19.06.720,kallum_motion_pilot,2023.2.2,Win32,59.88023952,5d968811d3cea301700f4868,65d6bb0e977760de756971f7,65d6bd079fd3ab199827bec7,0.0258,0.0258,0,113,113,8,1,onetwo,,,,,,,,,,,,,,,,,,,,,,,,,,,,,,,,,,,,,,,,,,,,,,,,,,,,,,,,,,,,,,,,,,,,,,,,,,,,,,,,,,,,,,,,,,,,,,,,,,,,,,,,,,,,,,,,,,,,,,,,,,,,,,,,,,,,,,,,,
,,5d968811d3cea301700f4868,2024-02-21_21h19.06.720,kallum_motion_pilot,2023.2.2,Win32,59.88023952,5d968811d3cea301700f4868,65d6bb0e977760de756971f7,65d6bd079fd3ab199827bec7,0.0258,0.0259,0,114,114,78,1,fourtwo,,,,,,,,,,,,,,,,,,,,,,,,,,,,,,,,,,,,,,,,,,,,,,,,,,,,,,,,,,,,,,,,,,,,,,,,,,,,,,,,,,,,,,,,,,,,,,,,,,,,,,,,,,,,,,,,,,,,,,,,,,,,,,,,,,,,,,,,,
,,5d968811d3cea301700f4868,2024-02-21_21h19.06.720,kallum_motion_pilot,2023.2.2,Win32,59.88023952,5d968811d3cea301700f4868,65d6bb0e977760de756971f7,65d6bd079fd3ab199827bec7,0.0259,0.026,0,115,115,107,1,sixeight,,,,,,,,,,,,,,,,,,,,,,,,,,,,,,,,,,,,,,,,,,,,,,,,,,,,,,,,,,,,,,,,,,,,,,,,,,,,,,,,,,,,,,,,,,,,,,,,,,,,,,,,,,,,,,,,,,,,,,,,,,,,,,,,,,,,,,,,,
,,5d968811d3cea301700f4868,2024-02-21_21h19.06.720,kallum_motion_pilot,2023.2.2,Win32,59.88023952,5d968811d3cea301700f4868,65d6bb0e977760de756971f7,65d6bd079fd3ab199827bec7,0.026,0.026,0,116,116,16,1,onetwo,,,,,,,,,,,,,,,,,,,,,,,,,,,,,,,,,,,,,,,,,,,,,,,,,,,,,,,,,,,,,,,,,,,,,,,,,,,,,,,,,,,,,,,,,,,,,,,,,,,,,,,,,,,,,,,,,,,,,,,,,,,,,,,,,,,,,,,,,
,,5d968811d3cea301700f4868,2024-02-21_21h19.06.720,kallum_motion_pilot,2023.2.2,Win32,59.88023952,5d968811d3cea301700f4868,65d6bb0e977760de756971f7,65d6bd079fd3ab199827bec7,0.026,0.0261,0,117,117,149,1,seveneight,,,,,,,,,,,,,,,,,,,,,,,,,,,,,,,,,,,,,,,,,,,,,,,,,,,,,,,,,,,,,,,,,,,,,,,,,,,,,,,,,,,,,,,,,,,,,,,,,,,,,,,,,,,,,,,,,,,,,,,,,,,,,,,,,,,,,,,,,
,,5d968811d3cea301700f4868,2024-02-21_21h19.06.720,kallum_motion_pilot,2023.2.2,Win32,59.88023952,5d968811d3cea301700f4868,65d6bb0e977760de756971f7,65d6bd079fd3ab199827bec7,0.0261,0.0261,0,118,118,9,1,onethree,,,,,,,,,,,,,,,,,,,,,,,,,,,,,,,,,,,,,,,,,,,,,,,,,,,,,,,,,,,,,,,,,,,,,,,,,,,,,,,,,,,,,,,,,,,,,,,,,,,,,,,,,,,,,,,,,,,,,,,,,,,,,,,,,,,,,,,,,
,,5d968811d3cea301700f4868,2024-02-21_21h19.06.720,kallum_motion_pilot,2023.2.2,Win32,59.88023952,5d968811d3cea301700f4868,65d6bb0e977760de756971f7,65d6bd079fd3ab199827bec7,0.0262,0.0263,0,119,119,157,1,seveneight,,,,,,,,,,,,,,,,,,,,,,,,,,,,,,,,,,,,,,,,,,,,,,,,,,,,,,,,,,,,,,,,,,,,,,,,,,,,,,,,,,,,,,,,,,,,,,,,,,,,,,,,,,,,,,,,,,,,,,,,,,,,,,,,,,,,,,,,,
,,5d968811d3cea301700f4868,2024-02-21_21h19.06.720,kallum_motion_pilot,2023.2.2,Win32,59.88023952,5d968811d3cea301700f4868,65d6bb0e977760de756971f7,65d6bd079fd3ab199827bec7,0.0263,0.0263,0,120,120,57,1,onethree,,,,,,,,,,,,,,,,,,,,,,,,,,,,,,,,,,,,,,,,,,,,,,,,,,,,,,,,,,,,,,,,,,,,,,,,,,,,,,,,,,,,,,,,,,,,,,,,,,,,,,,,,,,,,,,,,,,,,,,,,,,,,,,,,,,,,,,,,
,,5d968811d3cea301700f4868,2024-02-21_21h19.06.720,kallum_motion_pilot,2023.2.2,Win32,59.88023952,5d968811d3cea301700f4868,65d6bb0e977760de756971f7,65d6bd079fd3ab199827bec7,0.0264,0.0264,0,121,121,67,1,twofour,,,,,,,,,,,,,,,,,,,,,,,,,,,,,,,,,,,,,,,,,,,,,,,,,,,,,,,,,,,,,,,,,,,,,,,,,,,,,,,,,,,,,,,,,,,,,,,,,,,,,,,,,,,,,,,,,,,,,,,,,,,,,,,,,,,,,,,,,
,,5d968811d3cea301700f4868,2024-02-21_21h19.06.720,kallum_motion_pilot,2023.2.2,Win32,59.88023952,5d968811d3cea301700f4868,65d6bb0e977760de756971f7,65d6bd079fd3ab199827bec7,0.0264,0.0264,0,122,122,96,1,fivesix,,,,,,,,,,,,,,,,,,,,,,,,,,,,,,,,,,,,,,,,,,,,,,,,,,,,,,,,,,,,,,,,,,,,,,,,,,,,,,,,,,,,,,,,,,,,,,,,,,,,,,,,,,,,,,,,,,,,,,,,,,,,,,,,,,,,,,,,,
,,5d968811d3cea301700f4868,2024-02-21_21h19.06.720,kallum_motion_pilot,2023.2.2,Win32,59.88023952,5d968811d3cea301700f4868,65d6bb0e977760de756971f7,65d6bd079fd3ab199827bec7,0.0265,0.0265,0,123,123,114,1,sixfive,,,,,,,,,,,,,,,,,,,,,,,,,,,,,,,,,,,,,,,,,,,,,,,,,,,,,,,,,,,,,,,,,,,,,,,,,,,,,,,,,,,,,,,,,,,,,,,,,,,,,,,,,,,,,,,,,,,,,,,,,,,,,,,,,,,,,,,,,
,,5d968811d3cea301700f4868,2024-02-21_21h19.06.720,kallum_motion_pilot,2023.2.2,Win32,59.88023952,5d968811d3cea301700f4868,65d6bb0e977760de756971f7,65d6bd079fd3ab199827bec7,0.0266,0.0266,0,124,124,141,1,seveneight,,,,,,,,,,,,,,,,,,,,,,,,,,,,,,,,,,,,,,,,,,,,,,,,,,,,,,,,,,,,,,,,,,,,,,,,,,,,,,,,,,,,,,,,,,,,,,,,,,,,,,,,,,,,,,,,,,,,,,,,,,,,,,,,,,,,,,,,,
,,5d968811d3cea301700f4868,2024-02-21_21h19.06.720,kallum_motion_pilot,2023.2.2,Win32,59.88023952,5d968811d3cea301700f4868,65d6bb0e977760de756971f7,65d6bd079fd3ab199827bec7,0.0267,0.0267,0,125,125,74,1,twoone,,,,,,,,,,,,,,,,,,,,,,,,,,,,,,,,,,,,,,,,,,,,,,,,,,,,,,,,,,,,,,,,,,,,,,,,,,,,,,,,,,,,,,,,,,,,,,,,,,,,,,,,,,,,,,,,,,,,,,,,,,,,,,,,,,,,,,,,,
,,5d968811d3cea301700f4868,2024-02-21_21h19.06.720,kallum_motion_pilot,2023.2.2,Win32,59.88023952,5d968811d3cea301700f4868,65d6bb0e977760de756971f7,65d6bd079fd3ab199827bec7,0.0268,0.0269,0,126,126,24,1,onetwo,,,,,,,,,,,,,,,,,,,,,,,,,,,,,,,,,,,,,,,,,,,,,,,,,,,,,,,,,,,,,,,,,,,,,,,,,,,,,,,,,,,,,,,,,,,,,,,,,,,,,,,,,,,,,,,,,,,,,,,,,,,,,,,,,,,,,,,,,
,,5d968811d3cea301700f4868,2024-02-21_21h19.06.720,kallum_motion_pilot,2023.2.2,Win32,59.88023952,5d968811d3cea301700f4868,65d6bb0e977760de756971f7,65d6bd079fd3ab199827bec7,0.0269,0.0269,0,127,127,90,1,sixfive,,,,,,,,,,,,,,,,,,,,,,,,,,,,,,,,,,,,,,,,,,,,,,,,,,,,,,,,,,,,,,,,,,,,,,,,,,,,,,,,,,,,,,,,,,,,,,,,,,,,,,,,,,,,,,,,,,,,,,,,,,,,,,,,,,,,,,,,,
,,5d968811d3cea301700f4868,2024-02-21_21h19.06.720,kallum_motion_pilot,2023.2.2,Win32,59.88023952,5d968811d3cea301700f4868,65d6bb0e977760de756971f7,65d6bd079fd3ab199827bec7,0.027,0.027,0,128,128,108,1,sevenfive,,,,,,,,,,,,,,,,,,,,,,,,,,,,,,,,,,,,,,,,,,,,,,,,,,,,,,,,,,,,,,,,,,,,,,,,,,,,,,,,,,,,,,,,,,,,,,,,,,,,,,,,,,,,,,,,,,,,,,,,,,,,,,,,,,,,,,,,,
,,5d968811d3cea301700f4868,2024-02-21_21h19.06.720,kallum_motion_pilot,2023.2.2,Win32,59.88023952,5d968811d3cea301700f4868,65d6bb0e977760de756971f7,65d6bd079fd3ab199827bec7,0.0271,0.0271,0,129,129,43,1,twofour,,,,,,,,,,,,,,,,,,,,,,,,,,,,,,,,,,,,,,,,,,,,,,,,,,,,,,,,,,,,,,,,,,,,,,,,,,,,,,,,,,,,,,,,,,,,,,,,,,,,,,,,,,,,,,,,,,,,,,,,,,,,,,,,,,,,,,,,,
,,5d968811d3cea301700f4868,2024-02-21_21h19.06.720,kallum_motion_pilot,2023.2.2,Win32,59.88023952,5d968811d3cea301700f4868,65d6bb0e977760de756971f7,65d6bd079fd3ab199827bec7,0.0272,0.0272,0,130,130,104,1,fivesix,,,,,,,,,,,,,,,,,,,,,,,,,,,,,,,,,,,,,,,,,,,,,,,,,,,,,,,,,,,,,,,,,,,,,,,,,,,,,,,,,,,,,,,,,,,,,,,,,,,,,,,,,,,,,,,,,,,,,,,,,,,,,,,,,,,,,,,,,
,,5d968811d3cea301700f4868,2024-02-21_21h19.06.720,kallum_motion_pilot,2023.2.2,Win32,59.88023952,5d968811d3cea301700f4868,65d6bb0e977760de756971f7,65d6bd079fd3ab199827bec7,0.0273,0.0273,0,131,131,140,1,sevenfive,,,,,,,,,,,,,,,,,,,,,,,,,,,,,,,,,,,,,,,,,,,,,,,,,,,,,,,,,,,,,,,,,,,,,,,,,,,,,,,,,,,,,,,,,,,,,,,,,,,,,,,,,,,,,,,,,,,,,,,,,,,,,,,,,,,,,,,,,
,,5d968811d3cea301700f4868,2024-02-21_21h19.06.720,kallum_motion_pilot,2023.2.2,Win32,59.88023952,5d968811d3cea301700f4868,65d6bb0e977760de756971f7,65d6bd079fd3ab199827bec7,0.0274,0.0274,0,132,132,121,1,fiveseven,,,,,,,,,,,,,,,,,,,,,,,,,,,,,,,,,,,,,,,,,,,,,,,,,,,,,,,,,,,,,,,,,,,,,,,,,,,,,,,,,,,,,,,,,,,,,,,,,,,,,,,,,,,,,,,,,,,,,,,,,,,,,,,,,,,,,,,,,
,,5d968811d3cea301700f4868,2024-02-21_21h19.06.720,kallum_motion_pilot,2023.2.2,Win32,59.88023952,5d968811d3cea301700f4868,65d6bb0e977760de756971f7,65d6bd079fd3ab199827bec7,0.0274,0.0274,0,133,133,131,1,sixeight,,,,,,,,,,,,,,,,,,,,,,,,,,,,,,,,,,,,,,,,,,,,,,,,,,,,,,,,,,,,,,,,,,,,,,,,,,,,,,,,,,,,,,,,,,,,,,,,,,,,,,,,,,,,,,,,,,,,,,,,,,,,,,,,,,,,,,,,,
,,5d968811d3cea301700f4868,2024-02-21_21h19.06.720,kallum_motion_pilot,2023.2.2,Win32,59.88023952,5d968811d3cea301700f4868,65d6bb0e977760de756971f7,65d6bd079fd3ab199827bec7,0.0276,0.0276,0,134,134,92,1,sevenfive,,,,,,,,,,,,,,,,,,,,,,,,,,,,,,,,,,,,,,,,,,,,,,,,,,,,,,,,,,,,,,,,,,,,,,,,,,,,,,,,,,,,,,,,,,,,,,,,,,,,,,,,,,,,,,,,,,,,,,,,,,,,,,,,,,,,,,,,,
,,5d968811d3cea301700f4868,2024-02-21_21h19.06.720,kallum_motion_pilot,2023.2.2,Win32,59.88023952,5d968811d3cea301700f4868,65d6bb0e977760de756971f7,65d6bd079fd3ab199827bec7,0.0276,0.0276,0,135,135,155,1,sixeight,,,,,,,,,,,,,,,,,,,,,,,,,,,,,,,,,,,,,,,,,,,,,,,,,,,,,,,,,,,,,,,,,,,,,,,,,,,,,,,,,,,,,,,,,,,,,,,,,,,,,,,,,,,,,,,,,,,,,,,,,,,,,,,,,,,,,,,,,
,,5d968811d3cea301700f4868,2024-02-21_21h19.06.720,kallum_motion_pilot,2023.2.2,Win32,59.88023952,5d968811d3cea301700f4868,65d6bb0e977760de756971f7,65d6bd079fd3ab199827bec7,0.0277,0.0277,0,136,136,71,1,fourthree,,,,,,,,,,,,,,,,,,,,,,,,,,,,,,,,,,,,,,,,,,,,,,,,,,,,,,,,,,,,,,,,,,,,,,,,,,,,,,,,,,,,,,,,,,,,,,,,,,,,,,,,,,,,,,,,,,,,,,,,,,,,,,,,,,,,,,,,,
,,5d968811d3cea301700f4868,2024-02-21_21h19.06.720,kallum_motion_pilot,2023.2.2,Win32,59.88023952,5d968811d3cea301700f4868,65d6bb0e977760de756971f7,65d6bd079fd3ab199827bec7,0.0277,0.0278,0,137,137,60,1,threeone,,,,,,,,,,,,,,,,,,,,,,,,,,,,,,,,,,,,,,,,,,,,,,,,,,,,,,,,,,,,,,,,,,,,,,,,,,,,,,,,,,,,,,,,,,,,,,,,,,,,,,,,,,,,,,,,,,,,,,,,,,,,,,,,,,,,,,,,,
,,5d968811d3cea301700f4868,2024-02-21_21h19.06.720,kallum_motion_pilot,2023.2.2,Win32,59.88023952,5d968811d3cea301700f4868,65d6bb0e977760de756971f7,65d6bd079fd3ab199827bec7,0.0278,0.028,0,138,138,33,1,onethree,,,,,,,,,,,,,,,,,,,,,,,,,,,,,,,,,,,,,,,,,,,,,,,,,,,,,,,,,,,,,,,,,,,,,,,,,,,,,,,,,,,,,,,,,,,,,,,,,,,,,,,,,,,,,,,,,,,,,,,,,,,,,,,,,,,,,,,,,
,,5d968811d3cea301700f4868,2024-02-21_21h19.06.720,kallum_motion_pilot,2023.2.2,Win32,59.88023952,5d968811d3cea301700f4868,65d6bb0e977760de756971f7,65d6bd079fd3ab199827bec7,0.028,0.028,0,139,139,161,1,fiveseven,,,,,,,,,,,,,,,,,,,,,,,,,,,,,,,,,,,,,,,,,,,,,,,,,,,,,,,,,,,,,,,,,,,,,,,,,,,,,,,,,,,,,,,,,,,,,,,,,,,,,,,,,,,,,,,,,,,,,,,,,,,,,,,,,,,,,,,,,
,,5d968811d3cea301700f4868,2024-02-21_21h19.06.720,kallum_motion_pilot,2023.2.2,Win32,59.88023952,5d968811d3cea301700f4868,65d6bb0e977760de756971f7,65d6bd079fd3ab199827bec7,0.0281,0.0281,0,140,140,46,1,fourtwo,,,,,,,,,,,,,,,,,,,,,,,,,,,,,,,,,,,,,,,,,,,,,,,,,,,,,,,,,,,,,,,,,,,,,,,,,,,,,,,,,,,,,,,,,,,,,,,,,,,,,,,,,,,,,,,,,,,,,,,,,,,,,,,,,,,,,,,,,
,,5d968811d3cea301700f4868,2024-02-21_21h19.06.720,kallum_motion_pilot,2023.2.2,Win32,59.88023952,5d968811d3cea301700f4868,65d6bb0e977760de756971f7,65d6bd079fd3ab199827bec7,0.0281,0.0281,0,141,141,102,1,eightsix,,,,,,,,,,,,,,,,,,,,,,,,,,,,,,,,,,,,,,,,,,,,,,,,,,,,,,,,,,,,,,,,,,,,,,,,,,,,,,,,,,,,,,,,,,,,,,,,,,,,,,,,,,,,,,,,,,,,,,,,,,,,,,,,,,,,,,,,,
,,5d968811d3cea301700f4868,2024-02-21_21h19.06.720,kallum_motion_pilot,2023.2.2,Win32,59.88023952,5d968811d3cea301700f4868,65d6bb0e977760de756971f7,65d6bd079fd3ab199827bec7,0.0282,0.0282,0,142,142,4,1,threeone,,,,,,,,,,,,,,,,,,,,,,,,,,,,,,,,,,,,,,,,,,,,,,,,,,,,,,,,,,,,,,,,,,,,,,,,,,,,,,,,,,,,,,,,,,,,,,,,,,,,,,,,,,,,,,,,,,,,,,,,,,,,,,,,,,,,,,,,,
,,5d968811d3cea301700f4868,2024-02-21_21h19.06.720,kallum_motion_pilot,2023.2.2,Win32,59.88023952,5d968811d3cea301700f4868,65d6bb0e977760de756971f7,65d6bd079fd3ab199827bec7,0.0283,0.0283,0,143,143,151,1,eightseven,,,,,,,,,,,,,,,,,,,,,,,,,,,,,,,,,,,,,,,,,,,,,,,,,,,,,,,,,,,,,,,,,,,,,,,,,,,,,,,,,,,,,,,,,,,,,,,,,,,,,,,,,,,,,,,,,,,,,,,,,,,,,,,,,,,,,,,,,
,,5d968811d3cea301700f4868,2024-02-21_21h19.06.720,kallum_motion_pilot,2023.2.2,Win32,59.88023952,5d968811d3cea301700f4868,65d6bb0e977760de756971f7,65d6bd079fd3ab199827bec7,0.0283,0.0284,0,144,144,25,1,onethree,,,,,,,,,,,,,,,,,,,,,,,,,,,,,,,,,,,,,,,,,,,,,,,,,,,,,,,,,,,,,,,,,,,,,,,,,,,,,,,,,,,,,,,,,,,,,,,,,,,,,,,,,,,,,,,,,,,,,,,,,,,,,,,,,,,,,,,,,
,,5d968811d3cea301700f4868,2024-02-21_21h19.06.720,kallum_motion_pilot,2023.2.2,Win32,59.88023952,5d968811d3cea301700f4868,65d6bb0e977760de756971f7,65d6bd079fd3ab199827bec7,0.0284,0.0285,0,145,145,14,1,fourtwo,,,,,,,,,,,,,,,,,,,,,,,,,,,,,,,,,,,,,,,,,,,,,,,,,,,,,,,,,,,,,,,,,,,,,,,,,,,,,,,,,,,,,,,,,,,,,,,,,,,,,,,,,,,,,,,,,,,,,,,,,,,,,,,,,,,,,,,,,
,,5d968811d3cea301700f4868,2024-02-21_21h19.06.720,kallum_motion_pilot,2023.2.2,Win32,59.88023952,5d968811d3cea301700f4868,65d6bb0e977760de756971f7,65d6bd079fd3ab199827bec7,0.0285,0.0285,0,146,146,52,1,threeone,,,,,,,,,,,,,,,,,,,,,,,,,,,,,,,,,,,,,,,,,,,,,,,,,,,,,,,,,,,,,,,,,,,,,,,,,,,,,,,,,,,,,,,,,,,,,,,,,,,,,,,,,,,,,,,,,,,,,,,,,,,,,,,,,,,,,,,,,
,,5d968811d3cea301700f4868,2024-02-21_21h19.06.720,kallum_motion_pilot,2023.2.2,Win32,59.88023952,5d968811d3cea301700f4868,65d6bb0e977760de756971f7,65d6bd079fd3ab199827bec7,0.0285,0.0286,0,147,147,66,1,twoone,,,,,,,,,,,,,,,,,,,,,,,,,,,,,,,,,,,,,,,,,,,,,,,,,,,,,,,,,,,,,,,,,,,,,,,,,,,,,,,,,,,,,,,,,,,,,,,,,,,,,,,,,,,,,,,,,,,,,,,,,,,,,,,,,,,,,,,,,
,,5d968811d3cea301700f4868,2024-02-21_21h19.06.720,kallum_motion_pilot,2023.2.2,Win32,59.88023952,5d968811d3cea301700f4868,65d6bb0e977760de756971f7,65d6bd079fd3ab199827bec7,0.0286,0.0286,0,148,148,116,1,sevenfive,,,,,,,,,,,,,,,,,,,,,,,,,,,,,,,,,,,,,,,,,,,,,,,,,,,,,,,,,,,,,,,,,,,,,,,,,,,,,,,,,,,,,,,,,,,,,,,,,,,,,,,,,,,,,,,,,,,,,,,,,,,,,,,,,,,,,,,,,
,,5d968811d3cea301700f4868,2024-02-21_21h19.06.720,kallum_motion_pilot,2023.2.2,Win32,59.88023952,5d968811d3cea301700f4868,65d6bb0e977760de756971f7,65d6bd079fd3ab199827bec7,0.0287,0.0287,0,149,149,34,1,twoone,,,,,,,,,,,,,,,,,,,,,,,,,,,,,,,,,,,,,,,,,,,,,,,,,,,,,,,,,,,,,,,,,,,,,,,,,,,,,,,,,,,,,,,,,,,,,,,,,,,,,,,,,,,,,,,,,,,,,,,,,,,,,,,,,,,,,,,,,
,,5d968811d3cea301700f4868,2024-02-21_21h19.06.720,kallum_motion_pilot,2023.2.2,Win32,59.88023952,5d968811d3cea301700f4868,65d6bb0e977760de756971f7,65d6bd079fd3ab199827bec7,0.0287,0.0288,0,150,150,31,1,fourthree,,,,,,,,,,,,,,,,,,,,,,,,,,,,,,,,,,,,,,,,,,,,,,,,,,,,,,,,,,,,,,,,,,,,,,,,,,,,,,,,,,,,,,,,,,,,,,,,,,,,,,,,,,,,,,,,,,,,,,,,,,,,,,,,,,,,,,,,,
,,5d968811d3cea301700f4868,2024-02-21_21h19.06.720,kallum_motion_pilot,2023.2.2,Win32,59.88023952,5d968811d3cea301700f4868,65d6bb0e977760de756971f7,65d6bd079fd3ab199827bec7,0.0288,0.0288,0,151,151,11,1,twofour,,,,,,,,,,,,,,,,,,,,,,,,,,,,,,,,,,,,,,,,,,,,,,,,,,,,,,,,,,,,,,,,,,,,,,,,,,,,,,,,,,,,,,,,,,,,,,,,,,,,,,,,,,,,,,,,,,,,,,,,,,,,,,,,,,,,,,,,,
,,5d968811d3cea301700f4868,2024-02-21_21h19.06.720,kallum_motion_pilot,2023.2.2,Win32,59.88023952,5d968811d3cea301700f4868,65d6bb0e977760de756971f7,65d6bd079fd3ab199827bec7,0.029,0.029,0,152,152,135,1,eightseven,,,,,,,,,,,,,,,,,,,,,,,,,,,,,,,,,,,,,,,,,,,,,,,,,,,,,,,,,,,,,,,,,,,,,,,,,,,,,,,,,,,,,,,,,,,,,,,,,,,,,,,,,,,,,,,,,,,,,,,,,,,,,,,,,,,,,,,,,
,,5d968811d3cea301700f4868,2024-02-21_21h19.06.720,kallum_motion_pilot,2023.2.2,Win32,59.88023952,5d968811d3cea301700f4868,65d6bb0e977760de756971f7,65d6bd079fd3ab199827bec7,0.029,0.029,0,153,153,51,1,twofour,,,,,,,,,,,,,,,,,,,,,,,,,,,,,,,,,,,,,,,,,,,,,,,,,,,,,,,,,,,,,,,,,,,,,,,,,,,,,,,,,,,,,,,,,,,,,,,,,,,,,,,,,,,,,,,,,,,,,,,,,,,,,,,,,,,,,,,,,
,,5d968811d3cea301700f4868,2024-02-21_21h19.06.720,kallum_motion_pilot,2023.2.2,Win32,59.88023952,5d968811d3cea301700f4868,65d6bb0e977760de756971f7,65d6bd079fd3ab199827bec7,0.0291,0.0291,0,154,154,6,1,fourtwo,,,,,,,,,,,,,,,,,,,,,,,,,,,,,,,,,,,,,,,,,,,,,,,,,,,,,,,,,,,,,,,,,,,,,,,,,,,,,,,,,,,,,,,,,,,,,,,,,,,,,,,,,,,,,,,,,,,,,,,,,,,,,,,,,,,,,,,,,
,,5d968811d3cea301700f4868,2024-02-21_21h19.06.720,kallum_motion_pilot,2023.2.2,Win32,59.88023952,5d968811d3cea301700f4868,65d6bb0e977760de756971f7,65d6bd079fd3ab199827bec7,0.0292,0.0292,0,155,155,89,1,fiveseven,,,,,,,,,,,,,,,,,,,,,,,,,,,,,,,,,,,,,,,,,,,,,,,,,,,,,,,,,,,,,,,,,,,,,,,,,,,,,,,,,,,,,,,,,,,,,,,,,,,,,,,,,,,,,,,,,,,,,,,,,,,,,,,,,,,,,,,,,
,,5d968811d3cea301700f4868,2024-02-21_21h19.06.720,kallum_motion_pilot,2023.2.2,Win32,59.88023952,5d968811d3cea301700f4868,65d6bb0e977760de756971f7,65d6bd079fd3ab199827bec7,0.0292,0.0292,0,156,156,65,1,onethree,,,,,,,,,,,,,,,,,,,,,,,,,,,,,,,,,,,,,,,,,,,,,,,,,,,,,,,,,,,,,,,,,,,,,,,,,,,,,,,,,,,,,,,,,,,,,,,,,,,,,,,,,,,,,,,,,,,,,,,,,,,,,,,,,,,,,,,,,
,,5d968811d3cea301700f4868,2024-02-21_21h19.06.720,kallum_motion_pilot,2023.2.2,Win32,59.88023952,5d968811d3cea301700f4868,65d6bb0e977760de756971f7,65d6bd079fd3ab199827bec7,0.0293,0.0293,0,157,157,112,1,fivesix,,,,,,,,,,,,,,,,,,,,,,,,,,,,,,,,,,,,,,,,,,,,,,,,,,,,,,,,,,,,,,,,,,,,,,,,,,,,,,,,,,,,,,,,,,,,,,,,,,,,,,,,,,,,,,,,,,,,,,,,,,,,,,,,,,,,,,,,,
,,5d968811d3cea301700f4868,2024-02-21_21h19.06.720,kallum_motion_pilot,2023.2.2,Win32,59.88023952,5d968811d3cea301700f4868,65d6bb0e977760de756971f7,65d6bd079fd3ab199827bec7,0.0294,0.0294,0,158,158,72,1,onetwo,,,,,,,,,,,,,,,,,,,,,,,,,,,,,,,,,,,,,,,,,,,,,,,,,,,,,,,,,,,,,,,,,,,,,,,,,,,,,,,,,,,,,,,,,,,,,,,,,,,,,,,,,,,,,,,,,,,,,,,,,,,,,,,,,,,,,,,,,
,,5d968811d3cea301700f4868,2024-02-21_21h19.06.720,kallum_motion_pilot,2023.2.2,Win32,59.88023952,5d968811d3cea301700f4868,65d6bb0e977760de756971f7,65d6bd079fd3ab199827bec7,0.0294,0.0294,0,159,159,111,1,eightseven,,,,,,,,,,,,,,,,,,,,,,,,,,,,,,,,,,,,,,,,,,,,,,,,,,,,,,,,,,,,,,,,,,,,,,,,,,,,,,,,,,,,,,,,,,,,,,,,,,,,,,,,,,,,,,,,,,,,,,,,,,,,,,,,,,,,,,,,,
,,5d968811d3cea301700f4868,2024-02-21_21h19.06.720,kallum_motion_pilot,2023.2.2,Win32,59.88023952,5d968811d3cea301700f4868,65d6bb0e977760de756971f7,65d6bd079fd3ab199827bec7,0.0295,0.0295,0,160,160,110,1,eightsix,,,,,,,,,,,,,,,,,,,,,,,,,,,,,,,,,,,,,,,,,,,,,,,,,,,,,,,,,,,,,,,,,,,,,,,,,,,,,,,,,,,,,,,,,,,,,,,,,,,,,,,,,,,,,,,,,,,,,,,,,,,,,,,,,,,,,,,,,
,,5d968811d3cea301700f4868,2024-02-21_21h19.06.720,kallum_motion_pilot,2023.2.2,Win32,59.88023952,5d968811d3cea301700f4868,65d6bb0e977760de756971f7,65d6bd079fd3ab199827bec7,0.0295,0.0295,0,161,161,19,1,twofour,,,,,,,,,,,,,,,,,,,,,,,,,,,,,,,,,,,,,,,,,,,,,,,,,,,,,,,,,,,,,,,,,,,,,,,,,,,,,,,,,,,,,,,,,,,,,,,,,,,,,,,,,,,,,,,,,,,,,,,,,,,,,,,,,,,,,,,,,
,,5d968811d3cea301700f4868,2024-02-21_21h19.06.720,kallum_motion_pilot,2023.2.2,Win32,59.88023952,5d968811d3cea301700f4868,65d6bb0e977760de756971f7,65d6bd079fd3ab199827bec7,0.0296,0.0296,1,0,162,36,1,threeone,,,,,,,,,,,,,,,,,,,,,,,,,,,,,,,,,,,,,,,,,,,,,,,,,,,,,,,,,,,,,,,,,,,,,,,,,,,,,,,,,,,,,,,,,,,,,,,,,,,,,,,,,,,,,,,,,,,,,,,,,,,,,,,,,,,,,,,,,
,,5d968811d3cea301700f4868,2024-02-21_21h19.06.720,kallum_motion_pilot,2023.2.2,Win32,59.88023952,5d968811d3cea301700f4868,65d6bb0e977760de756971f7,65d6bd079fd3ab199827bec7,0.0297,0.0297,1,1,163,114,1,sixfive,,,,,,,,,,,,,,,,,,,,,,,,,,,,,,,,,,,,,,,,,,,,,,,,,,,,,,,,,,,,,,,,,,,,,,,,,,,,,,,,,,,,,,,,,,,,,,,,,,,,,,,,,,,,,,,,,,,,,,,,,,,,,,,,,,,,,,,,,
,,5d968811d3cea301700f4868,2024-02-21_21h19.06.720,kallum_motion_pilot,2023.2.2,Win32,59.88023952,5d968811d3cea301700f4868,65d6bb0e977760de756971f7,65d6bd079fd3ab199827bec7,0.0298,0.0298,1,2,164,158,1,eightsix,,,,,,,,,,,,,,,,,,,,,,,,,,,,,,,,,,,,,,,,,,,,,,,,,,,,,,,,,,,,,,,,,,,,,,,,,,,,,,,,,,,,,,,,,,,,,,,,,,,,,,,,,,,,,,,,,,,,,,,,,,,,,,,,,,,,,,,,,
,,5d968811d3cea301700f4868,2024-02-21_21h19.06.720,kallum_motion_pilot,2023.2.2,Win32,59.88023952,5d968811d3cea301700f4868,65d6bb0e977760de756971f7,65d6bd079fd3ab199827bec7,0.0299,0.0299,1,3,165,140,1,sevenfive,,,,,,,,,,,,,,,,,,,,,,,,,,,,,,,,,,,,,,,,,,,,,,,,,,,,,,,,,,,,,,,,,,,,,,,,,,,,,,,,,,,,,,,,,,,,,,,,,,,,,,,,,,,,,,,,,,,,,,,,,,,,,,,,,,,,,,,,,
,,5d968811d3cea301700f4868,2024-02-21_21h19.06.720,kallum_motion_pilot,2023.2.2,Win32,59.88023952,5d968811d3cea301700f4868,65d6bb0e977760de756971f7,65d6bd079fd3ab199827bec7,0.0299,0.0299,1,4,166,22,1,fourtwo,,,,,,,,,,,,,,,,,,,,,,,,,,,,,,,,,,,,,,,,,,,,,,,,,,,,,,,,,,,,,,,,,,,,,,,,,,,,,,,,,,,,,,,,,,,,,,,,,,,,,,,,,,,,,,,,,,,,,,,,,,,,,,,,,,,,,,,,,
,,5d968811d3cea301700f4868,2024-02-21_21h19.06.720,kallum_motion_pilot,2023.2.2,Win32,59.88023952,5d968811d3cea301700f4868,65d6bb0e977760de756971f7,65d6bd079fd3ab199827bec7,0.03,0.03,1,5,167,81,1,fiveseven,,,,,,,,,,,,,,,,,,,,,,,,,,,,,,,,,,,,,,,,,,,,,,,,,,,,,,,,,,,,,,,,,,,,,,,,,,,,,,,,,,,,,,,,,,,,,,,,,,,,,,,,,,,,,,,,,,,,,,,,,,,,,,,,,,,,,,,,,
,,5d968811d3cea301700f4868,2024-02-21_21h19.06.720,kallum_motion_pilot,2023.2.2,Win32,59.88023952,5d968811d3cea301700f4868,65d6bb0e977760de756971f7,65d6bd079fd3ab199827bec7,0.0301,0.0301,1,6,168,30,1,fourtwo,,,,,,,,,,,,,,,,,,,,,,,,,,,,,,,,,,,,,,,,,,,,,,,,,,,,,,,,,,,,,,,,,,,,,,,,,,,,,,,,,,,,,,,,,,,,,,,,,,,,,,,,,,,,,,,,,,,,,,,,,,,,,,,,,,,,,,,,,
,,5d968811d3cea301700f4868,2024-02-21_21h19.06.720,kallum_motion_pilot,2023.2.2,Win32,59.88023952,5d968811d3cea301700f4868,65d6bb0e977760de756971f7,65d6bd079fd3ab199827bec7,0.0301,0.0302,1,7,169,38,1,fourtwo,,,,,,,,,,,,,,,,,,,,,,,,,,,,,,,,,,,,,,,,,,,,,,,,,,,,,,,,,,,,,,,,,,,,,,,,,,,,,,,,,,,,,,,,,,,,,,,,,,,,,,,,,,,,,,,,,,,,,,,,,,,,,,,,,,,,,,,,,
,,5d968811d3cea301700f4868,2024-02-21_21h19.06.720,kallum_motion_pilot,2023.2.2,Win32,59.88023952,5d968811d3cea301700f4868,65d6bb0e977760de756971f7,65d6bd079fd3ab199827bec7,0.0302,0.0302,1,8,170,17,1,onethree,,,,,,,,,,,,,,,,,,,,,,,,,,,,,,,,,,,,,,,,,,,,,,,,,,,,,,,,,,,,,,,,,,,,,,,,,,,,,,,,,,,,,,,,,,,,,,,,,,,,,,,,,,,,,,,,,,,,,,,,,,,,,,,,,,,,,,,,,
,,5d968811d3cea301700f4868,2024-02-21_21h19.06.720,kallum_motion_pilot,2023.2.2,Win32,59.88023952,5d968811d3cea301700f4868,65d6bb0e977760de756971f7,65d6bd079fd3ab199827bec7,0.0303,0.0304,1,9,171,75,1,twofour,,,,,,,,,,,,,,,,,,,,,,,,,,,,,,,,,,,,,,,,,,,,,,,,,,,,,,,,,,,,,,,,,,,,,,,,,,,,,,,,,,,,,,,,,,,,,,,,,,,,,,,,,,,,,,,,,,,,,,,,,,,,,,,,,,,,,,,,,
,,5d968811d3cea301700f4868,2024-02-21_21h19.06.720,kallum_motion_pilot,2023.2.2,Win32,59.88023952,5d968811d3cea301700f4868,65d6bb0e977760de756971f7,65d6bd079fd3ab199827bec7,0.0304,0.0304,1,10,172,117,1,seveneight,,,,,,,,,,,,,,,,,,,,,,,,,,,,,,,,,,,,,,,,,,,,,,,,,,,,,,,,,,,,,,,,,,,,,,,,,,,,,,,,,,,,,,,,,,,,,,,,,,,,,,,,,,,,,,,,,,,,,,,,,,,,,,,,,,,,,,,,,
,,5d968811d3cea301700f4868,2024-02-21_21h19.06.720,kallum_motion_pilot,2023.2.2,Win32,59.88023952,5d968811d3cea301700f4868,65d6bb0e977760de756971f7,65d6bd079fd3ab199827bec7,0.0304,0.0305,1,11,173,12,1,threeone,,,,,,,,,,,,,,,,,,,,,,,,,,,,,,,,,,,,,,,,,,,,,,,,,,,,,,,,,,,,,,,,,,,,,,,,,,,,,,,,,,,,,,,,,,,,,,,,,,,,,,,,,,,,,,,,,,,,,,,,,,,,,,,,,,,,,,,,,
,,5d968811d3cea301700f4868,2024-02-21_21h19.06.720,kallum_motion_pilot,2023.2.2,Win32,59.88023952,5d968811d3cea301700f4868,65d6bb0e977760de756971f7,65d6bd079fd3ab199827bec7,0.0305,0.0305,1,12,174,153,1,fiveseven,,,,,,,,,,,,,,,,,,,,,,,,,,,,,,,,,,,,,,,,,,,,,,,,,,,,,,,,,,,,,,,,,,,,,,,,,,,,,,,,,,,,,,,,,,,,,,,,,,,,,,,,,,,,,,,,,,,,,,,,,,,,,,,,,,,,,,,,,
,,5d968811d3cea301700f4868,2024-02-21_21h19.06.720,kallum_motion_pilot,2023.2.2,Win32,59.88023952,5d968811d3cea301700f4868,65d6bb0e977760de756971f7,65d6bd079fd3ab199827bec7,0.0306,0.0306,1,13,175,56,1,onetwo,,,,,,,,,,,,,,,,,,,,,,,,,,,,,,,,,,,,,,,,,,,,,,,,,,,,,,,,,,,,,,,,,,,,,,,,,,,,,,,,,,,,,,,,,,,,,,,,,,,,,,,,,,,,,,,,,,,,,,,,,,,,,,,,,,,,,,,,,
,,5d968811d3cea301700f4868,2024-02-21_21h19.06.720,kallum_motion_pilot,2023.2.2,Win32,59.88023952,5d968811d3cea301700f4868,65d6bb0e977760de756971f7,65d6bd079fd3ab199827bec7,0.0307,0.0307,1,14,176,159,1,eightseven,,,,,,,,,,,,,,,,,,,,,,,,,,,,,,,,,,,,,,,,,,,,,,,,,,,,,,,,,,,,,,,,,,,,,,,,,,,,,,,,,,,,,,,,,,,,,,,,,,,,,,,,,,,,,,,,,,,,,,,,,,,,,,,,,,,,,,,,,
,,5d968811d3cea301700f4868,2024-02-21_21h19.06.720,kallum_motion_pilot,2023.2.2,Win32,59.88023952,5d968811d3cea301700f4868,65d6bb0e977760de756971f7,65d6bd079fd3ab199827bec7,0.0308,0.0308,1,15,177,147,1,sixeight,,,,,,,,,,,,,,,,,,,,,,,,,,,,,,,,,,,,,,,,,,,,,,,,,,,,,,,,,,,,,,,,,,,,,,,,,,,,,,,,,,,,,,,,,,,,,,,,,,,,,,,,,,,,,,,,,,,,,,,,,,,,,,,,,,,,,,,,,
,,5d968811d3cea301700f4868,2024-02-21_21h19.06.720,kallum_motion_pilot,2023.2.2,Win32,59.88023952,5d968811d3cea301700f4868,65d6bb0e977760de756971f7,65d6bd079fd3ab199827bec7,0.0309,0.0309,1,16,178,115,1,sixeight,,,,,,,,,,,,,,,,,,,,,,,,,,,,,,,,,,,,,,,,,,,,,,,,,,,,,,,,,,,,,,,,,,,,,,,,,,,,,,,,,,,,,,,,,,,,,,,,,,,,,,,,,,,,,,,,,,,,,,,,,,,,,,,,,,,,,,,,,
,,5d968811d3cea301700f4868,2024-02-21_21h19.06.720,kallum_motion_pilot,2023.2.2,Win32,59.88023952,5d968811d3cea301700f4868,65d6bb0e977760de756971f7,65d6bd079fd3ab199827bec7,0.031,0.031,1,17,179,141,1,seveneight,,,,,,,,,,,,,,,,,,,,,,,,,,,,,,,,,,,,,,,,,,,,,,,,,,,,,,,,,,,,,,,,,,,,,,,,,,,,,,,,,,,,,,,,,,,,,,,,,,,,,,,,,,,,,,,,,,,,,,,,,,,,,,,,,,,,,,,,,
,,5d968811d3cea301700f4868,2024-02-21_21h19.06.720,kallum_motion_pilot,2023.2.2,Win32,59.88023952,5d968811d3cea301700f4868,65d6bb0e977760de756971f7,65d6bd079fd3ab199827bec7,0.031,0.0311,1,18,180,160,1,fivesix,,,,,,,,,,,,,,,,,,,,,,,,,,,,,,,,,,,,,,,,,,,,,,,,,,,,,,,,,,,,,,,,,,,,,,,,,,,,,,,,,,,,,,,,,,,,,,,,,,,,,,,,,,,,,,,,,,,,,,,,,,,,,,,,,,,,,,,,,
,,5d968811d3cea301700f4868,2024-02-21_21h19.06.720,kallum_motion_pilot,2023.2.2,Win32,59.88023952,5d968811d3cea301700f4868,65d6bb0e977760de756971f7,65d6bd079fd3ab199827bec7,0.0311,0.0311,1,19,181,28,1,threeone,,,,,,,,,,,,,,,,,,,,,,,,,,,,,,,,,,,,,,,,,,,,,,,,,,,,,,,,,,,,,,,,,,,,,,,,,,,,,,,,,,,,,,,,,,,,,,,,,,,,,,,,,,,,,,,,,,,,,,,,,,,,,,,,,,,,,,,,,
,,5d968811d3cea301700f4868,2024-02-21_21h19.06.720,kallum_motion_pilot,2023.2.2,Win32,59.88023952,5d968811d3cea301700f4868,65d6bb0e977760de756971f7,65d6bd079fd3ab199827bec7,0.0311,0.0312,1,20,182,91,1,sixeight,,,,,,,,,,,,,,,,,,,,,,,,,,,,,,,,,,,,,,,,,,,,,,,,,,,,,,,,,,,,,,,,,,,,,,,,,,,,,,,,,,,,,,,,,,,,,,,,,,,,,,,,,,,,,,,,,,,,,,,,,,,,,,,,,,,,,,,,,
,,5d968811d3cea301700f4868,2024-02-21_21h19.06.720,kallum_motion_pilot,2023.2.2,Win32,59.88023952,5d968811d3cea301700f4868,65d6bb0e977760de756971f7,65d6bd079fd3ab199827bec7,0.0312,0.0313,1,21,183,2,1,twoone,,,,,,,,,,,,,,,,,,,,,,,,,,,,,,,,,,,,,,,,,,,,,,,,,,,,,,,,,,,,,,,,,,,,,,,,,,,,,,,,,,,,,,,,,,,,,,,,,,,,,,,,,,,,,,,,,,,,,,,,,,,,,,,,,,,,,,,,,
,,5d968811d3cea301700f4868,2024-02-21_21h19.06.720,kallum_motion_pilot,2023.2.2,Win32,59.88023952,5d968811d3cea301700f4868,65d6bb0e977760de756971f7,65d6bd079fd3ab199827bec7,0.0313,0.0314,1,22,184,128,1,fivesix,,,,,,,,,,,,,,,,,,,,,,,,,,,,,,,,,,,,,,,,,,,,,,,,,,,,,,,,,,,,,,,,,,,,,,,,,,,,,,,,,,,,,,,,,,,,,,,,,,,,,,,,,,,,,,,,,,,,,,,,,,,,,,,,,,,,,,,,,
,,5d968811d3cea301700f4868,2024-02-21_21h19.06.720,kallum_motion_pilot,2023.2.2,Win32,59.88023952,5d968811d3cea301700f4868,65d6bb0e977760de756971f7,65d6bd079fd3ab199827bec7,0.0314,0.0314,1,23,185,10,1,twoone,,,,,,,,,,,,,,,,,,,,,,,,,,,,,,,,,,,,,,,,,,,,,,,,,,,,,,,,,,,,,,,,,,,,,,,,,,,,,,,,,,,,,,,,,,,,,,,,,,,,,,,,,,,,,,,,,,,,,,,,,,,,,,,,,,,,,,,,,
,,5d968811d3cea301700f4868,2024-02-21_21h19.06.720,kallum_motion_pilot,2023.2.2,Win32,59.88023952,5d968811d3cea301700f4868,65d6bb0e977760de756971f7,65d6bd079fd3ab199827bec7,0.0315,0.0315,1,24,186,125,1,seveneight,,,,,,,,,,,,,,,,,,,,,,,,,,,,,,,,,,,,,,,,,,,,,,,,,,,,,,,,,,,,,,,,,,,,,,,,,,,,,,,,,,,,,,,,,,,,,,,,,,,,,,,,,,,,,,,,,,,,,,,,,,,,,,,,,,,,,,,,,
,,5d968811d3cea301700f4868,2024-02-21_21h19.06.720,kallum_motion_pilot,2023.2.2,Win32,59.88023952,5d968811d3cea301700f4868,65d6bb0e977760de756971f7,65d6bd079fd3ab199827bec7,0.0316,0.0316,1,25,187,96,1,fivesix,,,,,,,,,,,,,,,,,,,,,,,,,,,,,,,,,,,,,,,,,,,,,,,,,,,,,,,,,,,,,,,,,,,,,,,,,,,,,,,,,,,,,,,,,,,,,,,,,,,,,,,,,,,,,,,,,,,,,,,,,,,,,,,,,,,,,,,,,
,,5d968811d3cea301700f4868,2024-02-21_21h19.06.720,kallum_motion_pilot,2023.2.2,Win32,59.88023952,5d968811d3cea301700f4868,65d6bb0e977760de756971f7,65d6bd079fd3ab199827bec7,0.0317,0.0317,1,26,188,89,1,fiveseven,,,,,,,,,,,,,,,,,,,,,,,,,,,,,,,,,,,,,,,,,,,,,,,,,,,,,,,,,,,,,,,,,,,,,,,,,,,,,,,,,,,,,,,,,,,,,,,,,,,,,,,,,,,,,,,,,,,,,,,,,,,,,,,,,,,,,,,,,
,,5d968811d3cea301700f4868,2024-02-21_21h19.06.720,kallum_motion_pilot,2023.2.2,Win32,59.88023952,5d968811d3cea301700f4868,65d6bb0e977760de756971f7,65d6bd079fd3ab199827bec7,0.0318,0.0318,1,27,189,46,1,fourtwo,,,,,,,,,,,,,,,,,,,,,,,,,,,,,,,,,,,,,,,,,,,,,,,,,,,,,,,,,,,,,,,,,,,,,,,,,,,,,,,,,,,,,,,,,,,,,,,,,,,,,,,,,,,,,,,,,,,,,,,,,,,,,,,,,,,,,,,,,
,,5d968811d3cea301700f4868,2024-02-21_21h19.06.720,kallum_motion_pilot,2023.2.2,Win32,59.88023952,5d968811d3cea301700f4868,65d6bb0e977760de756971f7,65d6bd079fd3ab199827bec7,0.0319,0.0319,1,28,190,78,1,fourtwo,,,,,,,,,,,,,,,,,,,,,,,,,,,,,,,,,,,,,,,,,,,,,,,,,,,,,,,,,,,,,,,,,,,,,,,,,,,,,,,,,,,,,,,,,,,,,,,,,,,,,,,,,,,,,,,,,,,,,,,,,,,,,,,,,,,,,,,,,
,,5d968811d3cea301700f4868,2024-02-21_21h19.06.720,kallum_motion_pilot,2023.2.2,Win32,59.88023952,5d968811d3cea301700f4868,65d6bb0e977760de756971f7,65d6bd079fd3ab199827bec7,0.032,0.032,1,29,191,57,1,onethree,,,,,,,,,,,,,,,,,,,,,,,,,,,,,,,,,,,,,,,,,,,,,,,,,,,,,,,,,,,,,,,,,,,,,,,,,,,,,,,,,,,,,,,,,,,,,,,,,,,,,,,,,,,,,,,,,,,,,,,,,,,,,,,,,,,,,,,,,
,,5d968811d3cea301700f4868,2024-02-21_21h19.06.720,kallum_motion_pilot,2023.2.2,Win32,59.88023952,5d968811d3cea301700f4868,65d6bb0e977760de756971f7,65d6bd079fd3ab199827bec7,0.0321,0.0321,1,30,192,121,1,fiveseven,,,,,,,,,,,,,,,,,,,,,,,,,,,,,,,,,,,,,,,,,,,,,,,,,,,,,,,,,,,,,,,,,,,,,,,,,,,,,,,,,,,,,,,,,,,,,,,,,,,,,,,,,,,,,,,,,,,,,,,,,,,,,,,,,,,,,,,,,
,,5d968811d3cea301700f4868,2024-02-21_21h19.06.720,kallum_motion_pilot,2023.2.2,Win32,59.88023952,5d968811d3cea301700f4868,65d6bb0e977760de756971f7,65d6bd079fd3ab199827bec7,0.0321,0.0322,1,31,193,39,1,fourthree,,,,,,,,,,,,,,,,,,,,,,,,,,,,,,,,,,,,,,,,,,,,,,,,,,,,,,,,,,,,,,,,,,,,,,,,,,,,,,,,,,,,,,,,,,,,,,,,,,,,,,,,,,,,,,,,,,,,,,,,,,,,,,,,,,,,,,,,,
,,5d968811d3cea301700f4868,2024-02-21_21h19.06.720,kallum_motion_pilot,2023.2.2,Win32,59.88023952,5d968811d3cea301700f4868,65d6bb0e977760de756971f7,65d6bd079fd3ab199827bec7,0.0323,0.0323,1,32,194,126,1,eightsix,,,,,,,,,,,,,,,,,,,,,,,,,,,,,,,,,,,,,,,,,,,,,,,,,,,,,,,,,,,,,,,,,,,,,,,,,,,,,,,,,,,,,,,,,,,,,,,,,,,,,,,,,,,,,,,,,,,,,,,,,,,,,,,,,,,,,,,,,
,,5d968811d3cea301700f4868,2024-02-21_21h19.06.720,kallum_motion_pilot,2023.2.2,Win32,59.88023952,5d968811d3cea301700f4868,65d6bb0e977760de756971f7,65d6bd079fd3ab199827bec7,0.0323,0.0323,1,33,195,71,1,fourthree,,,,,,,,,,,,,,,,,,,,,,,,,,,,,,,,,,,,,,,,,,,,,,,,,,,,,,,,,,,,,,,,,,,,,,,,,,,,,,,,,,,,,,,,,,,,,,,,,,,,,,,,,,,,,,,,,,,,,,,,,,,,,,,,,,,,,,,,,
,,5d968811d3cea301700f4868,2024-02-21_21h19.06.720,kallum_motion_pilot,2023.2.2,Win32,59.88023952,5d968811d3cea301700f4868,65d6bb0e977760de756971f7,65d6bd079fd3ab199827bec7,0.0324,0.0324,1,34,196,66,1,twoone,,,,,,,,,,,,,,,,,,,,,,,,,,,,,,,,,,,,,,,,,,,,,,,,,,,,,,,,,,,,,,,,,,,,,,,,,,,,,,,,,,,,,,,,,,,,,,,,,,,,,,,,,,,,,,,,,,,,,,,,,,,,,,,,,,,,,,,,,
,,5d968811d3cea301700f4868,2024-02-21_21h19.06.720,kallum_motion_pilot,2023.2.2,Win32,59.88023952,5d968811d3cea301700f4868,65d6bb0e977760de756971f7,65d6bd079fd3ab199827bec7,0.0325,0.0325,1,35,197,37,1,threefour,,,,,,,,,,,,,,,,,,,,,,,,,,,,,,,,,,,,,,,,,,,,,,,,,,,,,,,,,,,,,,,,,,,,,,,,,,,,,,,,,,,,,,,,,,,,,,,,,,,,,,,,,,,,,,,,,,,,,,,,,,,,,,,,,,,,,,,,,
,,5d968811d3cea301700f4868,2024-02-21_21h19.06.720,kallum_motion_pilot,2023.2.2,Win32,59.88023952,5d968811d3cea301700f4868,65d6bb0e977760de756971f7,65d6bd079fd3ab199827bec7,0.0326,0.0327,1,36,198,148,1,sevenfive,,,,,,,,,,,,,,,,,,,,,,,,,,,,,,,,,,,,,,,,,,,,,,,,,,,,,,,,,,,,,,,,,,,,,,,,,,,,,,,,,,,,,,,,,,,,,,,,,,,,,,,,,,,,,,,,,,,,,,,,,,,,,,,,,,,,,,,,,
,,5d968811d3cea301700f4868,2024-02-21_21h19.06.720,kallum_motion_pilot,2023.2.2,Win32,59.88023952,5d968811d3cea301700f4868,65d6bb0e977760de756971f7,65d6bd079fd3ab199827bec7,0.0327,0.0327,1,37,199,54,1,fourtwo,,,,,,,,,,,,,,,,,,,,,,,,,,,,,,,,,,,,,,,,,,,,,,,,,,,,,,,,,,,,,,,,,,,,,,,,,,,,,,,,,,,,,,,,,,,,,,,,,,,,,,,,,,,,,,,,,,,,,,,,,,,,,,,,,,,,,,,,,
,,5d968811d3cea301700f4868,2024-02-21_21h19.06.720,kallum_motion_pilot,2023.2.2,Win32,59.88023952,5d968811d3cea301700f4868,65d6bb0e977760de756971f7,65d6bd079fd3ab199827bec7,0.0328,0.0329,1,38,200,131,1,sixeight,,,,,,,,,,,,,,,,,,,,,,,,,,,,,,,,,,,,,,,,,,,,,,,,,,,,,,,,,,,,,,,,,,,,,,,,,,,,,,,,,,,,,,,,,,,,,,,,,,,,,,,,,,,,,,,,,,,,,,,,,,,,,,,,,,,,,,,,,
,,5d968811d3cea301700f4868,2024-02-21_21h19.06.720,kallum_motion_pilot,2023.2.2,Win32,59.88023952,5d968811d3cea301700f4868,65d6bb0e977760de756971f7,65d6bd079fd3ab199827bec7,0.0329,0.0329,1,39,201,103,1,eightseven,,,,,,,,,,,,,,,,,,,,,,,,,,,,,,,,,,,,,,,,,,,,,,,,,,,,,,,,,,,,,,,,,,,,,,,,,,,,,,,,,,,,,,,,,,,,,,,,,,,,,,,,,,,,,,,,,,,,,,,,,,,,,,,,,,,,,,,,,
,,5d968811d3cea301700f4868,2024-02-21_21h19.06.720,kallum_motion_pilot,2023.2.2,Win32,59.88023952,5d968811d3cea301700f4868,65d6bb0e977760de756971f7,65d6bd079fd3ab199827bec7,0.033,0.033,1,40,202,145,1,fiveseven,,,,,,,,,,,,,,,,,,,,,,,,,,,,,,,,,,,,,,,,,,,,,,,,,,,,,,,,,,,,,,,,,,,,,,,,,,,,,,,,,,,,,,,,,,,,,,,,,,,,,,,,,,,,,,,,,,,,,,,,,,,,,,,,,,,,,,,,,
,,5d968811d3cea301700f4868,2024-02-21_21h19.06.720,kallum_motion_pilot,2023.2.2,Win32,59.88023952,5d968811d3cea301700f4868,65d6bb0e977760de756971f7,65d6bd079fd3ab199827bec7,0.0331,0.0331,1,41,203,137,1,fiveseven,,,,,,,,,,,,,,,,,,,,,,,,,,,,,,,,,,,,,,,,,,,,,,,,,,,,,,,,,,,,,,,,,,,,,,,,,,,,,,,,,,,,,,,,,,,,,,,,,,,,,,,,,,,,,,,,,,,,,,,,,,,,,,,,,,,,,,,,,
,,5d968811d3cea301700f4868,2024-02-21_21h19.06.720,kallum_motion_pilot,2023.2.2,Win32,59.88023952,5d968811d3cea301700f4868,65d6bb0e977760de756971f7,65d6bd079fd3ab199827bec7,0.0331,0.0331,1,42,204,50,1,twoone,,,,,,,,,,,,,,,,,,,,,,,,,,,,,,,,,,,,,,,,,,,,,,,,,,,,,,,,,,,,,,,,,,,,,,,,,,,,,,,,,,,,,,,,,,,,,,,,,,,,,,,,,,,,,,,,,,,,,,,,,,,,,,,,,,,,,,,,,
,,5d968811d3cea301700f4868,2024-02-21_21h19.06.720,kallum_motion_pilot,2023.2.2,Win32,59.88023952,5d968811d3cea301700f4868,65d6bb0e977760de756971f7,65d6bd079fd3ab199827bec7,0.0332,0.0332,1,43,205,76,1,threeone,,,,,,,,,,,,,,,,,,,,,,,,,,,,,,,,,,,,,,,,,,,,,,,,,,,,,,,,,,,,,,,,,,,,,,,,,,,,,,,,,,,,,,,,,,,,,,,,,,,,,,,,,,,,,,,,,,,,,,,,,,,,,,,,,,,,,,,,,
,,5d968811d3cea301700f4868,2024-02-21_21h19.06.720,kallum_motion_pilot,2023.2.2,Win32,59.88023952,5d968811d3cea301700f4868,65d6bb0e977760de756971f7,65d6bd079fd3ab199827bec7,0.0333,0.0334,1,44,206,40,1,onetwo,,,,,,,,,,,,,,,,,,,,,,,,,,,,,,,,,,,,,,,,,,,,,,,,,,,,,,,,,,,,,,,,,,,,,,,,,,,,,,,,,,,,,,,,,,,,,,,,,,,,,,,,,,,,,,,,,,,,,,,,,,,,,,,,,,,,,,,,,
,,5d968811d3cea301700f4868,2024-02-21_21h19.06.720,kallum_motion_pilot,2023.2.2,Win32,59.88023952,5d968811d3cea301700f4868,65d6bb0e977760de756971f7,65d6bd079fd3ab199827bec7,0.0334,0.0334,1,45,207,83,1,sixeight,,,,,,,,,,,,,,,,,,,,,,,,,,,,,,,,,,,,,,,,,,,,,,,,,,,,,,,,,,,,,,,,,,,,,,,,,,,,,,,,,,,,,,,,,,,,,,,,,,,,,,,,,,,,,,,,,,,,,,,,,,,,,,,,,,,,,,,,,
,,5d968811d3cea301700f4868,2024-02-21_21h19.06.720,kallum_motion_pilot,2023.2.2,Win32,59.88023952,5d968811d3cea301700f4868,65d6bb0e977760de756971f7,65d6bd079fd3ab199827bec7,0.0334,0.0335,1,46,208,34,1,twoone,,,,,,,,,,,,,,,,,,,,,,,,,,,,,,,,,,,,,,,,,,,,,,,,,,,,,,,,,,,,,,,,,,,,,,,,,,,,,,,,,,,,,,,,,,,,,,,,,,,,,,,,,,,,,,,,,,,,,,,,,,,,,,,,,,,,,,,,,
,,5d968811d3cea301700f4868,2024-02-21_21h19.06.720,kallum_motion_pilot,2023.2.2,Win32,59.88023952,5d968811d3cea301700f4868,65d6bb0e977760de756971f7,65d6bd079fd3ab199827bec7,0.0336,0.0336,1,47,209,77,1,threefour,,,,,,,,,,,,,,,,,,,,,,,,,,,,,,,,,,,,,,,,,,,,,,,,,,,,,,,,,,,,,,,,,,,,,,,,,,,,,,,,,,,,,,,,,,,,,,,,,,,,,,,,,,,,,,,,,,,,,,,,,,,,,,,,,,,,,,,,,
,,5d968811d3cea301700f4868,2024-02-21_21h19.06.720,kallum_motion_pilot,2023.2.2,Win32,59.88023952,5d968811d3cea301700f4868,65d6bb0e977760de756971f7,65d6bd079fd3ab199827bec7,0.0337,0.0337,1,48,210,112,1,fivesix,,,,,,,,,,,,,,,,,,,,,,,,,,,,,,,,,,,,,,,,,,,,,,,,,,,,,,,,,,,,,,,,,,,,,,,,,,,,,,,,,,,,,,,,,,,,,,,,,,,,,,,,,,,,,,,,,,,,,,,,,,,,,,,,,,,,,,,,,
,,5d968811d3cea301700f4868,2024-02-21_21h19.06.720,kallum_motion_pilot,2023.2.2,Win32,59.88023952,5d968811d3cea301700f4868,65d6bb0e977760de756971f7,65d6bd079fd3ab199827bec7,0.0337,0.0337,1,49,211,29,1,threefour,,,,,,,,,,,,,,,,,,,,,,,,,,,,,,,,,,,,,,,,,,,,,,,,,,,,,,,,,,,,,,,,,,,,,,,,,,,,,,,,,,,,,,,,,,,,,,,,,,,,,,,,,,,,,,,,,,,,,,,,,,,,,,,,,,,,,,,,,
,,5d968811d3cea301700f4868,2024-02-21_21h19.06.720,kallum_motion_pilot,2023.2.2,Win32,59.88023952,5d968811d3cea301700f4868,65d6bb0e977760de756971f7,65d6bd079fd3ab199827bec7,0.0338,0.0338,1,50,212,143,1,eightseven,,,,,,,,,,,,,,,,,,,,,,,,,,,,,,,,,,,,,,,,,,,,,,,,,,,,,,,,,,,,,,,,,,,,,,,,,,,,,,,,,,,,,,,,,,,,,,,,,,,,,,,,,,,,,,,,,,,,,,,,,,,,,,,,,,,,,,,,,
,,5d968811d3cea301700f4868,2024-02-21_21h19.06.720,kallum_motion_pilot,2023.2.2,Win32,59.88023952,5d968811d3cea301700f4868,65d6bb0e977760de756971f7,65d6bd079fd3ab199827bec7,0.0339,0.034,1,51,213,85,1,seveneight,,,,,,,,,,,,,,,,,,,,,,,,,,,,,,,,,,,,,,,,,,,,,,,,,,,,,,,,,,,,,,,,,,,,,,,,,,,,,,,,,,,,,,,,,,,,,,,,,,,,,,,,,,,,,,,,,,,,,,,,,,,,,,,,,,,,,,,,,
,,5d968811d3cea301700f4868,2024-02-21_21h19.06.720,kallum_motion_pilot,2023.2.2,Win32,59.88023952,5d968811d3cea301700f4868,65d6bb0e977760de756971f7,65d6bd079fd3ab199827bec7,0.034,0.034,1,52,214,67,1,twofour,,,,,,,,,,,,,,,,,,,,,,,,,,,,,,,,,,,,,,,,,,,,,,,,,,,,,,,,,,,,,,,,,,,,,,,,,,,,,,,,,,,,,,,,,,,,,,,,,,,,,,,,,,,,,,,,,,,,,,,,,,,,,,,,,,,,,,,,,
,,5d968811d3cea301700f4868,2024-02-21_21h19.06.720,kallum_motion_pilot,2023.2.2,Win32,59.88023952,5d968811d3cea301700f4868,65d6bb0e977760de756971f7,65d6bd079fd3ab199827bec7,0.034,0.0341,1,53,215,94,1,eightsix,,,,,,,,,,,,,,,,,,,,,,,,,,,,,,,,,,,,,,,,,,,,,,,,,,,,,,,,,,,,,,,,,,,,,,,,,,,,,,,,,,,,,,,,,,,,,,,,,,,,,,,,,,,,,,,,,,,,,,,,,,,,,,,,,,,,,,,,,
,,5d968811d3cea301700f4868,2024-02-21_21h19.06.720,kallum_motion_pilot,2023.2.2,Win32,59.88023952,5d968811d3cea301700f4868,65d6bb0e977760de756971f7,65d6bd079fd3ab199827bec7,0.0342,0.0342,1,54,216,111,1,eightseven,,,,,,,,,,,,,,,,,,,,,,,,,,,,,,,,,,,,,,,,,,,,,,,,,,,,,,,,,,,,,,,,,,,,,,,,,,,,,,,,,,,,,,,,,,,,,,,,,,,,,,,,,,,,,,,,,,,,,,,,,,,,,,,,,,,,,,,,,
,,5d968811d3cea301700f4868,2024-02-21_21h19.06.720,kallum_motion_pilot,2023.2.2,Win32,59.88023952,5d968811d3cea301700f4868,65d6bb0e977760de756971f7,65d6bd079fd3ab199827bec7,0.0342,0.0343,1,55,217,146,1,sixfive,,,,,,,,,,,,,,,,,,,,,,,,,,,,,,,,,,,,,,,,,,,,,,,,,,,,,,,,,,,,,,,,,,,,,,,,,,,,,,,,,,,,,,,,,,,,,,,,,,,,,,,,,,,,,,,,,,,,,,,,,,,,,,,,,,,,,,,,,
,,5d968811d3cea301700f4868,2024-02-21_21h19.06.720,kallum_motion_pilot,2023.2.2,Win32,59.88023952,5d968811d3cea301700f4868,65d6bb0e977760de756971f7,65d6bd079fd3ab199827bec7,0.0343,0.0344,1,56,218,19,1,twofour,,,,,,,,,,,,,,,,,,,,,,,,,,,,,,,,,,,,,,,,,,,,,,,,,,,,,,,,,,,,,,,,,,,,,,,,,,,,,,,,,,,,,,,,,,,,,,,,,,,,,,,,,,,,,,,,,,,,,,,,,,,,,,,,,,,,,,,,,
,,5d968811d3cea301700f4868,2024-02-21_21h19.06.720,kallum_motion_pilot,2023.2.2,Win32,59.88023952,5d968811d3cea301700f4868,65d6bb0e977760de756971f7,65d6bd079fd3ab199827bec7,0.0345,0.0345,1,57,219,6,1,fourtwo,,,,,,,,,,,,,,,,,,,,,,,,,,,,,,,,,,,,,,,,,,,,,,,,,,,,,,,,,,,,,,,,,,,,,,,,,,,,,,,,,,,,,,,,,,,,,,,,,,,,,,,,,,,,,,,,,,,,,,,,,,,,,,,,,,,,,,,,,
,,5d968811d3cea301700f4868,2024-02-21_21h19.06.720,kallum_motion_pilot,2023.2.2,Win32,59.88023952,5d968811d3cea301700f4868,65d6bb0e977760de756971f7,65d6bd079fd3ab199827bec7,0.0345,0.0346,1,58,220,97,1,fiveseven,,,,,,,,,,,,,,,,,,,,,,,,,,,,,,,,,,,,,,,,,,,,,,,,,,,,,,,,,,,,,,,,,,,,,,,,,,,,,,,,,,,,,,,,,,,,,,,,,,,,,,,,,,,,,,,,,,,,,,,,,,,,,,,,,,,,,,,,,
,,5d968811d3cea301700f4868,2024-02-21_21h19.06.720,kallum_motion_pilot,2023.2.2,Win32,59.88023952,5d968811d3cea301700f4868,65d6bb0e977760de756971f7,65d6bd079fd3ab199827bec7,0.0347,0.0347,1,59,221,0,1,onetwo,,,,,,,,,,,,,,,,,,,,,,,,,,,,,,,,,,,,,,,,,,,,,,,,,,,,,,,,,,,,,,,,,,,,,,,,,,,,,,,,,,,,,,,,,,,,,,,,,,,,,,,,,,,,,,,,,,,,,,,,,,,,,,,,,,,,,,,,,
,,5d968811d3cea301700f4868,2024-02-21_21h19.06.720,kallum_motion_pilot,2023.2.2,Win32,59.88023952,5d968811d3cea301700f4868,65d6bb0e977760de756971f7,65d6bd079fd3ab199827bec7,0.0348,0.0349,1,60,222,23,1,fourthree,,,,,,,,,,,,,,,,,,,,,,,,,,,,,,,,,,,,,,,,,,,,,,,,,,,,,,,,,,,,,,,,,,,,,,,,,,,,,,,,,,,,,,,,,,,,,,,,,,,,,,,,,,,,,,,,,,,,,,,,,,,,,,,,,,,,,,,,,
,,5d968811d3cea301700f4868,2024-02-21_21h19.06.720,kallum_motion_pilot,2023.2.2,Win32,59.88023952,5d968811d3cea301700f4868,65d6bb0e977760de756971f7,65d6bd079fd3ab199827bec7,0.0349,0.0349,1,61,223,99,1,sixeight,,,,,,,,,,,,,,,,,,,,,,,,,,,,,,,,,,,,,,,,,,,,,,,,,,,,,,,,,,,,,,,,,,,,,,,,,,,,,,,,,,,,,,,,,,,,,,,,,,,,,,,,,,,,,,,,,,,,,,,,,,,,,,,,,,,,,,,,,
,,5d968811d3cea301700f4868,2024-02-21_21h19.06.720,kallum_motion_pilot,2023.2.2,Win32,59.88023952,5d968811d3cea301700f4868,65d6bb0e977760de756971f7,65d6bd079fd3ab199827bec7,0.035,0.035,1,62,224,8,1,onetwo,,,,,,,,,,,,,,,,,,,,,,,,,,,,,,,,,,,,,,,,,,,,,,,,,,,,,,,,,,,,,,,,,,,,,,,,,,,,,,,,,,,,,,,,,,,,,,,,,,,,,,,,,,,,,,,,,,,,,,,,,,,,,,,,,,,,,,,,,
,,5d968811d3cea301700f4868,2024-02-21_21h19.06.720,kallum_motion_pilot,2023.2.2,Win32,59.88023952,5d968811d3cea301700f4868,65d6bb0e977760de756971f7,65d6bd079fd3ab199827bec7,0.035,0.0351,1,63,225,109,1,seveneight,,,,,,,,,,,,,,,,,,,,,,,,,,,,,,,,,,,,,,,,,,,,,,,,,,,,,,,,,,,,,,,,,,,,,,,,,,,,,,,,,,,,,,,,,,,,,,,,,,,,,,,,,,,,,,,,,,,,,,,,,,,,,,,,,,,,,,,,,
,,5d968811d3cea301700f4868,2024-02-21_21h19.06.720,kallum_motion_pilot,2023.2.2,Win32,59.88023952,5d968811d3cea301700f4868,65d6bb0e977760de756971f7,65d6bd079fd3ab199827bec7,0.0351,0.0351,1,64,226,33,1,onethree,,,,,,,,,,,,,,,,,,,,,,,,,,,,,,,,,,,,,,,,,,,,,,,,,,,,,,,,,,,,,,,,,,,,,,,,,,,,,,,,,,,,,,,,,,,,,,,,,,,,,,,,,,,,,,,,,,,,,,,,,,,,,,,,,,,,,,,,,
,,5d968811d3cea301700f4868,2024-02-21_21h19.06.720,kallum_motion_pilot,2023.2.2,Win32,59.88023952,5d968811d3cea301700f4868,65d6bb0e977760de756971f7,65d6bd079fd3ab199827bec7,0.0352,0.0352,1,65,227,123,1,sixeight,,,,,,,,,,,,,,,,,,,,,,,,,,,,,,,,,,,,,,,,,,,,,,,,,,,,,,,,,,,,,,,,,,,,,,,,,,,,,,,,,,,,,,,,,,,,,,,,,,,,,,,,,,,,,,,,,,,,,,,,,,,,,,,,,,,,,,,,,
,,5d968811d3cea301700f4868,2024-02-21_21h19.06.720,kallum_motion_pilot,2023.2.2,Win32,59.88023952,5d968811d3cea301700f4868,65d6bb0e977760de756971f7,65d6bd079fd3ab199827bec7,0.0353,0.0353,1,66,228,142,1,eightsix,,,,,,,,,,,,,,,,,,,,,,,,,,,,,,,,,,,,,,,,,,,,,,,,,,,,,,,,,,,,,,,,,,,,,,,,,,,,,,,,,,,,,,,,,,,,,,,,,,,,,,,,,,,,,,,,,,,,,,,,,,,,,,,,,,,,,,,,,
,,5d968811d3cea301700f4868,2024-02-21_21h19.06.720,kallum_motion_pilot,2023.2.2,Win32,59.88023952,5d968811d3cea301700f4868,65d6bb0e977760de756971f7,65d6bd079fd3ab199827bec7,0.0353,0.0354,1,67,229,92,1,sevenfive,,,,,,,,,,,,,,,,,,,,,,,,,,,,,,,,,,,,,,,,,,,,,,,,,,,,,,,,,,,,,,,,,,,,,,,,,,,,,,,,,,,,,,,,,,,,,,,,,,,,,,,,,,,,,,,,,,,,,,,,,,,,,,,,,,,,,,,,,
,,5d968811d3cea301700f4868,2024-02-21_21h19.06.720,kallum_motion_pilot,2023.2.2,Win32,59.88023952,5d968811d3cea301700f4868,65d6bb0e977760de756971f7,65d6bd079fd3ab199827bec7,0.0355,0.0355,1,68,230,27,1,twofour,,,,,,,,,,,,,,,,,,,,,,,,,,,,,,,,,,,,,,,,,,,,,,,,,,,,,,,,,,,,,,,,,,,,,,,,,,,,,,,,,,,,,,,,,,,,,,,,,,,,,,,,,,,,,,,,,,,,,,,,,,,,,,,,,,,,,,,,,
,,5d968811d3cea301700f4868,2024-02-21_21h19.06.720,kallum_motion_pilot,2023.2.2,Win32,59.88023952,5d968811d3cea301700f4868,65d6bb0e977760de756971f7,65d6bd079fd3ab199827bec7,0.0355,0.0355,1,69,231,107,1,sixeight,,,,,,,,,,,,,,,,,,,,,,,,,,,,,,,,,,,,,,,,,,,,,,,,,,,,,,,,,,,,,,,,,,,,,,,,,,,,,,,,,,,,,,,,,,,,,,,,,,,,,,,,,,,,,,,,,,,,,,,,,,,,,,,,,,,,,,,,,
,,5d968811d3cea301700f4868,2024-02-21_21h19.06.720,kallum_motion_pilot,2023.2.2,Win32,59.88023952,5d968811d3cea301700f4868,65d6bb0e977760de756971f7,65d6bd079fd3ab199827bec7,0.0356,0.0357,1,70,232,144,1,fivesix,,,,,,,,,,,,,,,,,,,,,,,,,,,,,,,,,,,,,,,,,,,,,,,,,,,,,,,,,,,,,,,,,,,,,,,,,,,,,,,,,,,,,,,,,,,,,,,,,,,,,,,,,,,,,,,,,,,,,,,,,,,,,,,,,,,,,,,,,
,,5d968811d3cea301700f4868,2024-02-21_21h19.06.720,kallum_motion_pilot,2023.2.2,Win32,59.88023952,5d968811d3cea301700f4868,65d6bb0e977760de756971f7,65d6bd079fd3ab199827bec7,0.0357,0.0358,1,71,233,95,1,eightseven,,,,,,,,,,,,,,,,,,,,,,,,,,,,,,,,,,,,,,,,,,,,,,,,,,,,,,,,,,,,,,,,,,,,,,,,,,,,,,,,,,,,,,,,,,,,,,,,,,,,,,,,,,,,,,,,,,,,,,,,,,,,,,,,,,,,,,,,,
,,5d968811d3cea301700f4868,2024-02-21_21h19.06.720,kallum_motion_pilot,2023.2.2,Win32,59.88023952,5d968811d3cea301700f4868,65d6bb0e977760de756971f7,65d6bd079fd3ab199827bec7,0.0358,0.0359,1,72,234,122,1,sixfive,,,,,,,,,,,,,,,,,,,,,,,,,,,,,,,,,,,,,,,,,,,,,,,,,,,,,,,,,,,,,,,,,,,,,,,,,,,,,,,,,,,,,,,,,,,,,,,,,,,,,,,,,,,,,,,,,,,,,,,,,,,,,,,,,,,,,,,,,
,,5d968811d3cea301700f4868,2024-02-21_21h19.06.720,kallum_motion_pilot,2023.2.2,Win32,59.88023952,5d968811d3cea301700f4868,65d6bb0e977760de756971f7,65d6bd079fd3ab199827bec7,0.0359,0.036,1,73,235,155,1,sixeight,,,,,,,,,,,,,,,,,,,,,,,,,,,,,,,,,,,,,,,,,,,,,,,,,,,,,,,,,,,,,,,,,,,,,,,,,,,,,,,,,,,,,,,,,,,,,,,,,,,,,,,,,,,,,,,,,,,,,,,,,,,,,,,,,,,,,,,,,
,,5d968811d3cea301700f4868,2024-02-21_21h19.06.720,kallum_motion_pilot,2023.2.2,Win32,59.88023952,5d968811d3cea301700f4868,65d6bb0e977760de756971f7,65d6bd079fd3ab199827bec7,0.036,0.0361,1,74,236,101,1,seveneight,,,,,,,,,,,,,,,,,,,,,,,,,,,,,,,,,,,,,,,,,,,,,,,,,,,,,,,,,,,,,,,,,,,,,,,,,,,,,,,,,,,,,,,,,,,,,,,,,,,,,,,,,,,,,,,,,,,,,,,,,,,,,,,,,,,,,,,,,
,,5d968811d3cea301700f4868,2024-02-21_21h19.06.720,kallum_motion_pilot,2023.2.2,Win32,59.88023952,5d968811d3cea301700f4868,65d6bb0e977760de756971f7,65d6bd079fd3ab199827bec7,0.0361,0.0361,1,75,237,18,1,twoone,,,,,,,,,,,,,,,,,,,,,,,,,,,,,,,,,,,,,,,,,,,,,,,,,,,,,,,,,,,,,,,,,,,,,,,,,,,,,,,,,,,,,,,,,,,,,,,,,,,,,,,,,,,,,,,,,,,,,,,,,,,,,,,,,,,,,,,,,
,,5d968811d3cea301700f4868,2024-02-21_21h19.06.720,kallum_motion_pilot,2023.2.2,Win32,59.88023952,5d968811d3cea301700f4868,65d6bb0e977760de756971f7,65d6bd079fd3ab199827bec7,0.0362,0.0362,1,76,238,138,1,sixfive,,,,,,,,,,,,,,,,,,,,,,,,,,,,,,,,,,,,,,,,,,,,,,,,,,,,,,,,,,,,,,,,,,,,,,,,,,,,,,,,,,,,,,,,,,,,,,,,,,,,,,,,,,,,,,,,,,,,,,,,,,,,,,,,,,,,,,,,,
,,5d968811d3cea301700f4868,2024-02-21_21h19.06.720,kallum_motion_pilot,2023.2.2,Win32,59.88023952,5d968811d3cea301700f4868,65d6bb0e977760de756971f7,65d6bd079fd3ab199827bec7,0.0364,0.0364,1,77,239,84,1,sevenfive,,,,,,,,,,,,,,,,,,,,,,,,,,,,,,,,,,,,,,,,,,,,,,,,,,,,,,,,,,,,,,,,,,,,,,,,,,,,,,,,,,,,,,,,,,,,,,,,,,,,,,,,,,,,,,,,,,,,,,,,,,,,,,,,,,,,,,,,,
,,5d968811d3cea301700f4868,2024-02-21_21h19.06.720,kallum_motion_pilot,2023.2.2,Win32,59.88023952,5d968811d3cea301700f4868,65d6bb0e977760de756971f7,65d6bd079fd3ab199827bec7,0.0364,0.0365,1,78,240,102,1,eightsix,,,,,,,,,,,,,,,,,,,,,,,,,,,,,,,,,,,,,,,,,,,,,,,,,,,,,,,,,,,,,,,,,,,,,,,,,,,,,,,,,,,,,,,,,,,,,,,,,,,,,,,,,,,,,,,,,,,,,,,,,,,,,,,,,,,,,,,,,
,,5d968811d3cea301700f4868,2024-02-21_21h19.06.720,kallum_motion_pilot,2023.2.2,Win32,59.88023952,5d968811d3cea301700f4868,65d6bb0e977760de756971f7,65d6bd079fd3ab199827bec7,0.0366,0.0366,1,79,241,80,1,fivesix,,,,,,,,,,,,,,,,,,,,,,,,,,,,,,,,,,,,,,,,,,,,,,,,,,,,,,,,,,,,,,,,,,,,,,,,,,,,,,,,,,,,,,,,,,,,,,,,,,,,,,,,,,,,,,,,,,,,,,,,,,,,,,,,,,,,,,,,,
,,5d968811d3cea301700f4868,2024-02-21_21h19.06.720,kallum_motion_pilot,2023.2.2,Win32,59.88023952,5d968811d3cea301700f4868,65d6bb0e977760de756971f7,65d6bd079fd3ab199827bec7,0.0366,0.0367,1,80,242,61,1,threefour,,,,,,,,,,,,,,,,,,,,,,,,,,,,,,,,,,,,,,,,,,,,,,,,,,,,,,,,,,,,,,,,,,,,,,,,,,,,,,,,,,,,,,,,,,,,,,,,,,,,,,,,,,,,,,,,,,,,,,,,,,,,,,,,,,,,,,,,,
,,5d968811d3cea301700f4868,2024-02-21_21h19.06.720,kallum_motion_pilot,2023.2.2,Win32,59.88023952,5d968811d3cea301700f4868,65d6bb0e977760de756971f7,65d6bd079fd3ab199827bec7,0.0367,0.0367,1,81,243,98,1,sixfive,,,,,,,,,,,,,,,,,,,,,,,,,,,,,,,,,,,,,,,,,,,,,,,,,,,,,,,,,,,,,,,,,,,,,,,,,,,,,,,,,,,,,,,,,,,,,,,,,,,,,,,,,,,,,,,,,,,,,,,,,,,,,,,,,,,,,,,,,
,,5d968811d3cea301700f4868,2024-02-21_21h19.06.720,kallum_motion_pilot,2023.2.2,Win32,59.88023952,5d968811d3cea301700f4868,65d6bb0e977760de756971f7,65d6bd079fd3ab199827bec7,0.0367,0.0368,1,82,244,43,1,twofour,,,,,,,,,,,,,,,,,,,,,,,,,,,,,,,,,,,,,,,,,,,,,,,,,,,,,,,,,,,,,,,,,,,,,,,,,,,,,,,,,,,,,,,,,,,,,,,,,,,,,,,,,,,,,,,,,,,,,,,,,,,,,,,,,,,,,,,,,
,,5d968811d3cea301700f4868,2024-02-21_21h19.06.720,kallum_motion_pilot,2023.2.2,Win32,59.88023952,5d968811d3cea301700f4868,65d6bb0e977760de756971f7,65d6bd079fd3ab199827bec7,0.0368,0.0369,1,83,245,161,1,fiveseven,,,,,,,,,,,,,,,,,,,,,,,,,,,,,,,,,,,,,,,,,,,,,,,,,,,,,,,,,,,,,,,,,,,,,,,,,,,,,,,,,,,,,,,,,,,,,,,,,,,,,,,,,,,,,,,,,,,,,,,,,,,,,,,,,,,,,,,,,
,,5d968811d3cea301700f4868,2024-02-21_21h19.06.720,kallum_motion_pilot,2023.2.2,Win32,59.88023952,5d968811d3cea301700f4868,65d6bb0e977760de756971f7,65d6bd079fd3ab199827bec7,0.0369,0.037,1,84,246,60,1,threeone,,,,,,,,,,,,,,,,,,,,,,,,,,,,,,,,,,,,,,,,,,,,,,,,,,,,,,,,,,,,,,,,,,,,,,,,,,,,,,,,,,,,,,,,,,,,,,,,,,,,,,,,,,,,,,,,,,,,,,,,,,,,,,,,,,,,,,,,,
,,5d968811d3cea301700f4868,2024-02-21_21h19.06.720,kallum_motion_pilot,2023.2.2,Win32,59.88023952,5d968811d3cea301700f4868,65d6bb0e977760de756971f7,65d6bd079fd3ab199827bec7,0.0371,0.0371,1,85,247,157,1,seveneight,,,,,,,,,,,,,,,,,,,,,,,,,,,,,,,,,,,,,,,,,,,,,,,,,,,,,,,,,,,,,,,,,,,,,,,,,,,,,,,,,,,,,,,,,,,,,,,,,,,,,,,,,,,,,,,,,,,,,,,,,,,,,,,,,,,,,,,,,
,,5d968811d3cea301700f4868,2024-02-21_21h19.06.720,kallum_motion_pilot,2023.2.2,Win32,59.88023952,5d968811d3cea301700f4868,65d6bb0e977760de756971f7,65d6bd079fd3ab199827bec7,0.0371,0.0371,1,86,248,139,1,sixeight,,,,,,,,,,,,,,,,,,,,,,,,,,,,,,,,,,,,,,,,,,,,,,,,,,,,,,,,,,,,,,,,,,,,,,,,,,,,,,,,,,,,,,,,,,,,,,,,,,,,,,,,,,,,,,,,,,,,,,,,,,,,,,,,,,,,,,,,,
,,5d968811d3cea301700f4868,2024-02-21_21h19.06.720,kallum_motion_pilot,2023.2.2,Win32,59.88023952,5d968811d3cea301700f4868,65d6bb0e977760de756971f7,65d6bd079fd3ab199827bec7,0.0372,0.0373,1,87,249,59,1,twofour,,,,,,,,,,,,,,,,,,,,,,,,,,,,,,,,,,,,,,,,,,,,,,,,,,,,,,,,,,,,,,,,,,,,,,,,,,,,,,,,,,,,,,,,,,,,,,,,,,,,,,,,,,,,,,,,,,,,,,,,,,,,,,,,,,,,,,,,,
,,5d968811d3cea301700f4868,2024-02-21_21h19.06.720,kallum_motion_pilot,2023.2.2,Win32,59.88023952,5d968811d3cea301700f4868,65d6bb0e977760de756971f7,65d6bd079fd3ab199827bec7,0.0373,0.0373,1,88,250,124,1,sevenfive,,,,,,,,,,,,,,,,,,,,,,,,,,,,,,,,,,,,,,,,,,,,,,,,,,,,,,,,,,,,,,,,,,,,,,,,,,,,,,,,,,,,,,,,,,,,,,,,,,,,,,,,,,,,,,,,,,,,,,,,,,,,,,,,,,,,,,,,,
,,5d968811d3cea301700f4868,2024-02-21_21h19.06.720,kallum_motion_pilot,2023.2.2,Win32,59.88023952,5d968811d3cea301700f4868,65d6bb0e977760de756971f7,65d6bd079fd3ab199827bec7,0.0373,0.0374,1,89,251,5,1,threefour,,,,,,,,,,,,,,,,,,,,,,,,,,,,,,,,,,,,,,,,,,,,,,,,,,,,,,,,,,,,,,,,,,,,,,,,,,,,,,,,,,,,,,,,,,,,,,,,,,,,,,,,,,,,,,,,,,,,,,,,,,,,,,,,,,,,,,,,,
,,5d968811d3cea301700f4868,2024-02-21_21h19.06.720,kallum_motion_pilot,2023.2.2,Win32,59.88023952,5d968811d3cea301700f4868,65d6bb0e977760de756971f7,65d6bd079fd3ab199827bec7,0.0374,0.0375,1,90,252,9,1,onethree,,,,,,,,,,,,,,,,,,,,,,,,,,,,,,,,,,,,,,,,,,,,,,,,,,,,,,,,,,,,,,,,,,,,,,,,,,,,,,,,,,,,,,,,,,,,,,,,,,,,,,,,,,,,,,,,,,,,,,,,,,,,,,,,,,,,,,,,,
,,5d968811d3cea301700f4868,2024-02-21_21h19.06.720,kallum_motion_pilot,2023.2.2,Win32,59.88023952,5d968811d3cea301700f4868,65d6bb0e977760de756971f7,65d6bd079fd3ab199827bec7,0.0375,0.0376,1,91,253,110,1,eightsix,,,,,,,,,,,,,,,,,,,,,,,,,,,,,,,,,,,,,,,,,,,,,,,,,,,,,,,,,,,,,,,,,,,,,,,,,,,,,,,,,,,,,,,,,,,,,,,,,,,,,,,,,,,,,,,,,,,,,,,,,,,,,,,,,,,,,,,,,
,,5d968811d3cea301700f4868,2024-02-21_21h19.06.720,kallum_motion_pilot,2023.2.2,Win32,59.88023952,5d968811d3cea301700f4868,65d6bb0e977760de756971f7,65d6bd079fd3ab199827bec7,0.038,0.0381,1,92,254,118,1,eightsix,,,,,,,,,,,,,,,,,,,,,,,,,,,,,,,,,,,,,,,,,,,,,,,,,,,,,,,,,,,,,,,,,,,,,,,,,,,,,,,,,,,,,,,,,,,,,,,,,,,,,,,,,,,,,,,,,,,,,,,,,,,,,,,,,,,,,,,,,
,,5d968811d3cea301700f4868,2024-02-21_21h19.06.720,kallum_motion_pilot,2023.2.2,Win32,59.88023952,5d968811d3cea301700f4868,65d6bb0e977760de756971f7,65d6bd079fd3ab199827bec7,0.0381,0.0382,1,93,255,11,1,twofour,,,,,,,,,,,,,,,,,,,,,,,,,,,,,,,,,,,,,,,,,,,,,,,,,,,,,,,,,,,,,,,,,,,,,,,,,,,,,,,,,,,,,,,,,,,,,,,,,,,,,,,,,,,,,,,,,,,,,,,,,,,,,,,,,,,,,,,,,
,,5d968811d3cea301700f4868,2024-02-21_21h19.06.720,kallum_motion_pilot,2023.2.2,Win32,59.88023952,5d968811d3cea301700f4868,65d6bb0e977760de756971f7,65d6bd079fd3ab199827bec7,0.0382,0.0382,1,94,256,72,1,onetwo,,,,,,,,,,,,,,,,,,,,,,,,,,,,,,,,,,,,,,,,,,,,,,,,,,,,,,,,,,,,,,,,,,,,,,,,,,,,,,,,,,,,,,,,,,,,,,,,,,,,,,,,,,,,,,,,,,,,,,,,,,,,,,,,,,,,,,,,,
,,5d968811d3cea301700f4868,2024-02-21_21h19.06.720,kallum_motion_pilot,2023.2.2,Win32,59.88023952,5d968811d3cea301700f4868,65d6bb0e977760de756971f7,65d6bd079fd3ab199827bec7,0.0383,0.0383,1,95,257,120,1,fivesix,,,,,,,,,,,,,,,,,,,,,,,,,,,,,,,,,,,,,,,,,,,,,,,,,,,,,,,,,,,,,,,,,,,,,,,,,,,,,,,,,,,,,,,,,,,,,,,,,,,,,,,,,,,,,,,,,,,,,,,,,,,,,,,,,,,,,,,,,
,,5d968811d3cea301700f4868,2024-02-21_21h19.06.720,kallum_motion_pilot,2023.2.2,Win32,59.88023952,5d968811d3cea301700f4868,65d6bb0e977760de756971f7,65d6bd079fd3ab199827bec7,0.0383,0.0384,1,96,258,4,1,threeone,,,,,,,,,,,,,,,,,,,,,,,,,,,,,,,,,,,,,,,,,,,,,,,,,,,,,,,,,,,,,,,,,,,,,,,,,,,,,,,,,,,,,,,,,,,,,,,,,,,,,,,,,,,,,,,,,,,,,,,,,,,,,,,,,,,,,,,,,
,,5d968811d3cea301700f4868,2024-02-21_21h19.06.720,kallum_motion_pilot,2023.2.2,Win32,59.88023952,5d968811d3cea301700f4868,65d6bb0e977760de756971f7,65d6bd079fd3ab199827bec7,0.0384,0.0385,1,97,259,65,1,onethree,,,,,,,,,,,,,,,,,,,,,,,,,,,,,,,,,,,,,,,,,,,,,,,,,,,,,,,,,,,,,,,,,,,,,,,,,,,,,,,,,,,,,,,,,,,,,,,,,,,,,,,,,,,,,,,,,,,,,,,,,,,,,,,,,,,,,,,,,
,,5d968811d3cea301700f4868,2024-02-21_21h19.06.720,kallum_motion_pilot,2023.2.2,Win32,59.88023952,5d968811d3cea301700f4868,65d6bb0e977760de756971f7,65d6bd079fd3ab199827bec7,0.0385,0.0385,1,98,260,55,1,fourthree,,,,,,,,,,,,,,,,,,,,,,,,,,,,,,,,,,,,,,,,,,,,,,,,,,,,,,,,,,,,,,,,,,,,,,,,,,,,,,,,,,,,,,,,,,,,,,,,,,,,,,,,,,,,,,,,,,,,,,,,,,,,,,,,,,,,,,,,,
,,5d968811d3cea301700f4868,2024-02-21_21h19.06.720,kallum_motion_pilot,2023.2.2,Win32,59.88023952,5d968811d3cea301700f4868,65d6bb0e977760de756971f7,65d6bd079fd3ab199827bec7,0.0387,0.0387,1,99,261,100,1,sevenfive,,,,,,,,,,,,,,,,,,,,,,,,,,,,,,,,,,,,,,,,,,,,,,,,,,,,,,,,,,,,,,,,,,,,,,,,,,,,,,,,,,,,,,,,,,,,,,,,,,,,,,,,,,,,,,,,,,,,,,,,,,,,,,,,,,,,,,,,,
,,5d968811d3cea301700f4868,2024-02-21_21h19.06.720,kallum_motion_pilot,2023.2.2,Win32,59.88023952,5d968811d3cea301700f4868,65d6bb0e977760de756971f7,65d6bd079fd3ab199827bec7,0.0387,0.0387,1,100,262,31,1,fourthree,,,,,,,,,,,,,,,,,,,,,,,,,,,,,,,,,,,,,,,,,,,,,,,,,,,,,,,,,,,,,,,,,,,,,,,,,,,,,,,,,,,,,,,,,,,,,,,,,,,,,,,,,,,,,,,,,,,,,,,,,,,,,,,,,,,,,,,,,
,,5d968811d3cea301700f4868,2024-02-21_21h19.06.720,kallum_motion_pilot,2023.2.2,Win32,59.88023952,5d968811d3cea301700f4868,65d6bb0e977760de756971f7,65d6bd079fd3ab199827bec7,0.0388,0.0388,1,101,263,105,1,fiveseven,,,,,,,,,,,,,,,,,,,,,,,,,,,,,,,,,,,,,,,,,,,,,,,,,,,,,,,,,,,,,,,,,,,,,,,,,,,,,,,,,,,,,,,,,,,,,,,,,,,,,,,,,,,,,,,,,,,,,,,,,,,,,,,,,,,,,,,,,
,,5d968811d3cea301700f4868,2024-02-21_21h19.06.720,kallum_motion_pilot,2023.2.2,Win32,59.88023952,5d968811d3cea301700f4868,65d6bb0e977760de756971f7,65d6bd079fd3ab199827bec7,0.0389,0.0389,1,102,264,47,1,fourthree,,,,,,,,,,,,,,,,,,,,,,,,,,,,,,,,,,,,,,,,,,,,,,,,,,,,,,,,,,,,,,,,,,,,,,,,,,,,,,,,,,,,,,,,,,,,,,,,,,,,,,,,,,,,,,,,,,,,,,,,,,,,,,,,,,,,,,,,,
,,5d968811d3cea301700f4868,2024-02-21_21h19.06.720,kallum_motion_pilot,2023.2.2,Win32,59.88023952,5d968811d3cea301700f4868,65d6bb0e977760de756971f7,65d6bd079fd3ab199827bec7,0.0389,0.039,1,103,265,1,1,onethree,,,,,,,,,,,,,,,,,,,,,,,,,,,,,,,,,,,,,,,,,,,,,,,,,,,,,,,,,,,,,,,,,,,,,,,,,,,,,,,,,,,,,,,,,,,,,,,,,,,,,,,,,,,,,,,,,,,,,,,,,,,,,,,,,,,,,,,,,
,,5d968811d3cea301700f4868,2024-02-21_21h19.06.720,kallum_motion_pilot,2023.2.2,Win32,59.88023952,5d968811d3cea301700f4868,65d6bb0e977760de756971f7,65d6bd079fd3ab199827bec7,0.0391,0.0391,1,104,266,51,1,twofour,,,,,,,,,,,,,,,,,,,,,,,,,,,,,,,,,,,,,,,,,,,,,,,,,,,,,,,,,,,,,,,,,,,,,,,,,,,,,,,,,,,,,,,,,,,,,,,,,,,,,,,,,,,,,,,,,,,,,,,,,,,,,,,,,,,,,,,,,
,,5d968811d3cea301700f4868,2024-02-21_21h19.06.720,kallum_motion_pilot,2023.2.2,Win32,59.88023952,5d968811d3cea301700f4868,65d6bb0e977760de756971f7,65d6bd079fd3ab199827bec7,0.0391,0.0391,1,105,267,52,1,threeone,,,,,,,,,,,,,,,,,,,,,,,,,,,,,,,,,,,,,,,,,,,,,,,,,,,,,,,,,,,,,,,,,,,,,,,,,,,,,,,,,,,,,,,,,,,,,,,,,,,,,,,,,,,,,,,,,,,,,,,,,,,,,,,,,,,,,,,,,
,,5d968811d3cea301700f4868,2024-02-21_21h19.06.720,kallum_motion_pilot,2023.2.2,Win32,59.88023952,5d968811d3cea301700f4868,65d6bb0e977760de756971f7,65d6bd079fd3ab199827bec7,0.0392,0.0393,1,106,268,35,1,twofour,,,,,,,,,,,,,,,,,,,,,,,,,,,,,,,,,,,,,,,,,,,,,,,,,,,,,,,,,,,,,,,,,,,,,,,,,,,,,,,,,,,,,,,,,,,,,,,,,,,,,,,,,,,,,,,,,,,,,,,,,,,,,,,,,,,,,,,,,
,,5d968811d3cea301700f4868,2024-02-21_21h19.06.720,kallum_motion_pilot,2023.2.2,Win32,59.88023952,5d968811d3cea301700f4868,65d6bb0e977760de756971f7,65d6bd079fd3ab199827bec7,0.0393,0.0394,1,107,269,134,1,eightsix,,,,,,,,,,,,,,,,,,,,,,,,,,,,,,,,,,,,,,,,,,,,,,,,,,,,,,,,,,,,,,,,,,,,,,,,,,,,,,,,,,,,,,,,,,,,,,,,,,,,,,,,,,,,,,,,,,,,,,,,,,,,,,,,,,,,,,,,,
,,5d968811d3cea301700f4868,2024-02-21_21h19.06.720,kallum_motion_pilot,2023.2.2,Win32,59.88023952,5d968811d3cea301700f4868,65d6bb0e977760de756971f7,65d6bd079fd3ab199827bec7,0.0395,0.0395,1,108,270,151,1,eightseven,,,,,,,,,,,,,,,,,,,,,,,,,,,,,,,,,,,,,,,,,,,,,,,,,,,,,,,,,,,,,,,,,,,,,,,,,,,,,,,,,,,,,,,,,,,,,,,,,,,,,,,,,,,,,,,,,,,,,,,,,,,,,,,,,,,,,,,,,
,,5d968811d3cea301700f4868,2024-02-21_21h19.06.720,kallum_motion_pilot,2023.2.2,Win32,59.88023952,5d968811d3cea301700f4868,65d6bb0e977760de756971f7,65d6bd079fd3ab199827bec7,0.0395,0.0396,1,109,271,21,1,threefour,,,,,,,,,,,,,,,,,,,,,,,,,,,,,,,,,,,,,,,,,,,,,,,,,,,,,,,,,,,,,,,,,,,,,,,,,,,,,,,,,,,,,,,,,,,,,,,,,,,,,,,,,,,,,,,,,,,,,,,,,,,,,,,,,,,,,,,,,
,,5d968811d3cea301700f4868,2024-02-21_21h19.06.720,kallum_motion_pilot,2023.2.2,Win32,59.88023952,5d968811d3cea301700f4868,65d6bb0e977760de756971f7,65d6bd079fd3ab199827bec7,0.0396,0.0396,1,110,272,113,1,fiveseven,,,,,,,,,,,,,,,,,,,,,,,,,,,,,,,,,,,,,,,,,,,,,,,,,,,,,,,,,,,,,,,,,,,,,,,,,,,,,,,,,,,,,,,,,,,,,,,,,,,,,,,,,,,,,,,,,,,,,,,,,,,,,,,,,,,,,,,,,
,,5d968811d3cea301700f4868,2024-02-21_21h19.06.720,kallum_motion_pilot,2023.2.2,Win32,59.88023952,5d968811d3cea301700f4868,65d6bb0e977760de756971f7,65d6bd079fd3ab199827bec7,0.0396,0.0397,1,111,273,14,1,fourtwo,,,,,,,,,,,,,,,,,,,,,,,,,,,,,,,,,,,,,,,,,,,,,,,,,,,,,,,,,,,,,,,,,,,,,,,,,,,,,,,,,,,,,,,,,,,,,,,,,,,,,,,,,,,,,,,,,,,,,,,,,,,,,,,,,,,,,,,,,
,,5d968811d3cea301700f4868,2024-02-21_21h19.06.720,kallum_motion_pilot,2023.2.2,Win32,59.88023952,5d968811d3cea301700f4868,65d6bb0e977760de756971f7,65d6bd079fd3ab199827bec7,0.0397,0.0398,1,112,274,48,1,onetwo,,,,,,,,,,,,,,,,,,,,,,,,,,,,,,,,,,,,,,,,,,,,,,,,,,,,,,,,,,,,,,,,,,,,,,,,,,,,,,,,,,,,,,,,,,,,,,,,,,,,,,,,,,,,,,,,,,,,,,,,,,,,,,,,,,,,,,,,,
,,5d968811d3cea301700f4868,2024-02-21_21h19.06.720,kallum_motion_pilot,2023.2.2,Win32,59.88023952,5d968811d3cea301700f4868,65d6bb0e977760de756971f7,65d6bd079fd3ab199827bec7,0.0399,0.0399,1,113,275,127,1,eightseven,,,,,,,,,,,,,,,,,,,,,,,,,,,,,,,,,,,,,,,,,,,,,,,,,,,,,,,,,,,,,,,,,,,,,,,,,,,,,,,,,,,,,,,,,,,,,,,,,,,,,,,,,,,,,,,,,,,,,,,,,,,,,,,,,,,,,,,,,
,,5d968811d3cea301700f4868,2024-02-21_21h19.06.720,kallum_motion_pilot,2023.2.2,Win32,59.88023952,5d968811d3cea301700f4868,65d6bb0e977760de756971f7,65d6bd079fd3ab199827bec7,0.0399,0.0399,1,114,276,129,1,fiveseven,,,,,,,,,,,,,,,,,,,,,,,,,,,,,,,,,,,,,,,,,,,,,,,,,,,,,,,,,,,,,,,,,,,,,,,,,,,,,,,,,,,,,,,,,,,,,,,,,,,,,,,,,,,,,,,,,,,,,,,,,,,,,,,,,,,,,,,,,
,,5d968811d3cea301700f4868,2024-02-21_21h19.06.720,kallum_motion_pilot,2023.2.2,Win32,59.88023952,5d968811d3cea301700f4868,65d6bb0e977760de756971f7,65d6bd079fd3ab199827bec7,0.04,0.0401,1,115,277,132,1,sevenfive,,,,,,,,,,,,,,,,,,,,,,,,,,,,,,,,,,,,,,,,,,,,,,,,,,,,,,,,,,,,,,,,,,,,,,,,,,,,,,,,,,,,,,,,,,,,,,,,,,,,,,,,,,,,,,,,,,,,,,,,,,,,,,,,,,,,,,,,,
