startup.started,startup.stopped,Prolific ID*,date,expName,psychopyVersion,OS,frameRate,participant,study_id,session,stimpositions.started,stimpositions.stopped,hardcoded_stimulus_positions.thisRepN,hardcoded_stimulus_positions.thisTrialN,hardcoded_stimulus_positions.thisN,hardcoded_stimulus_positions.thisIndex,hardcoded_stimulus_positions.ran,StimulusPos,stimorientation.started,stimorientation.stopped,prac_stimorientation_import_loop.thisRepN,prac_stimorientation_import_loop.thisTrialN,prac_stimorientation_import_loop.thisN,prac_stimorientation_import_loop.thisIndex,prac_stimorientation_import_loop.ran,Stimorientation,welcome_instr.started,welcome_instr.stopped,key_resp.keys,key_resp.rt,key_resp.duration,response_steppedout_1.started,response_steppedout_1.stopped,key_resp_20.keys,key_resp_20.rt,key_resp_20.duration,response_steppedout_2.started,response_steppedout_2.stopped,key_resp_19.keys,key_resp_19.rt,key_resp_19.duration,stim_response_instr.started,stim_response_instr.stopped,key_resp_15.keys,key_resp_15.rt,key_resp_15.duration,direction_instr_2.started,direction_instr_2.stopped,key_resp_9.keys,key_resp_9.rt,key_resp_9.duration,instr_prac.started,instr_prac.stopped,key_resp_10.keys,key_resp_10.rt,key_resp_10.duration,Stim1_display_prac.started,Stim1_display_prac.stopped,Ecc,Circle1_ori,Circle2_ori,response_prac.started,similarity,response_time,response_prac.stopped,mouse_5.x,mouse_5.y,mouse_5.leftButton,mouse_5.midButton,mouse_5.rightButton,mouse_5.clicked_name,responseprac_feedback.started,responseprac_feedback.stopped,summary2_prac.started,summary2_prac.stopped,mouse_6.x,mouse_6.y,mouse_6.leftButton,mouse_6.midButton,mouse_6.rightButton,mouse_6.clicked_name,duringprac.thisRepN,duringprac.thisTrialN,duringprac.thisN,duringprac.thisIndex,duringprac.ran,begin.started,begin.stopped,key_resp_22.keys,key_resp_22.rt,key_resp_22.duration,Stim1_display.started,Stim1_display.stopped,circle1_ori,circle2_ori,circle1_SF,circle2_SF,response.started,response.stopped,mouse.x,mouse.y,mouse.leftButton,mouse.midButton,mouse.rightButton,mouse.clicked_name,trialnumber,double_pass.thisRepN,double_pass.thisTrialN,double_pass.thisN,double_pass.thisIndex,double_pass.ran,double_pass.order,main_trial.thisRepN,main_trial.thisTrialN,main_trial.thisN,main_trial.thisIndex,main_trial.ran,main_trial.order,Trial_Counter,Catch,Frequencies,response_2.started,response_2.stopped,mouse_2.x,mouse_2.y,mouse_2.leftButton,mouse_2.midButton,mouse_2.rightButton,mouse_2.clicked_name,special_trial.started,special_trial.stopped,catch_1.started,catch_1.stopped,mouse_3.x,mouse_3.y,mouse_3.leftButton,mouse_3.midButton,mouse_3.rightButton,catchresponse,catchnumber,response_time_catch,response_sum.started,response_sum.stopped,mouse_11.x,mouse_11.y,mouse_11.leftButton,mouse_11.midButton,mouse_11.rightButton,flip_presentation_sequence_for_double_pass.started,flip_presentation_sequence_for_double_pass.stopped,goodbye.started,goodbye.stopped,key_resp_3.keys,key_resp_3.rt,key_resp_3.duration
0,0,5d96a61b5d0f1c00117201bd,2024-02-19_03h19.00.087,kallum_motion_pilot,2023.2.2,Win32,144.092219,5d96a61b5d0f1c00117201bd,65d2b6c8f2eece985d8e374c,65d2b9a3424f1685f09383fd,,,,,,,,,,,,,,,,,,,,,,,,,,,,,,,,,,,,,,,,,,,,,,,,,,,,,,,,,,,,,,,,,,,,,,,,,,,,,,,,,,,,,,,,,,,,,,,,,,,,,,,,,,,,,,,,,,,,,,,,,,,,,,,,,,,,,,,,,,,,,,,,,
,,5d96a61b5d0f1c00117201bd,2024-02-19_03h19.00.087,kallum_motion_pilot,2023.2.2,Win32,144.092219,5d96a61b5d0f1c00117201bd,65d2b6c8f2eece985d8e374c,65d2b9a3424f1685f09383fd,0.012,0.012,0,0,0,5,1,threefour,,,,,,,,,,,,,,,,,,,,,,,,,,,,,,,,,,,,,,,,,,,,,,,,,,,,,,,,,,,,,,,,,,,,,,,,,,,,,,,,,,,,,,,,,,,,,,,,,,,,,,,,,,,,,,,,,,,,,,,,,,,,,,,,,,,,,,,,,
,,5d96a61b5d0f1c00117201bd,2024-02-19_03h19.00.087,kallum_motion_pilot,2023.2.2,Win32,144.092219,5d96a61b5d0f1c00117201bd,65d2b6c8f2eece985d8e374c,65d2b9a3424f1685f09383fd,0.012,0.012,0,1,1,93,1,seveneight,,,,,,,,,,,,,,,,,,,,,,,,,,,,,,,,,,,,,,,,,,,,,,,,,,,,,,,,,,,,,,,,,,,,,,,,,,,,,,,,,,,,,,,,,,,,,,,,,,,,,,,,,,,,,,,,,,,,,,,,,,,,,,,,,,,,,,,,,
,,5d96a61b5d0f1c00117201bd,2024-02-19_03h19.00.087,kallum_motion_pilot,2023.2.2,Win32,144.092219,5d96a61b5d0f1c00117201bd,65d2b6c8f2eece985d8e374c,65d2b9a3424f1685f09383fd,0.012,0.012,0,2,2,82,1,sixfive,,,,,,,,,,,,,,,,,,,,,,,,,,,,,,,,,,,,,,,,,,,,,,,,,,,,,,,,,,,,,,,,,,,,,,,,,,,,,,,,,,,,,,,,,,,,,,,,,,,,,,,,,,,,,,,,,,,,,,,,,,,,,,,,,,,,,,,,,
,,5d96a61b5d0f1c00117201bd,2024-02-19_03h19.00.087,kallum_motion_pilot,2023.2.2,Win32,144.092219,5d96a61b5d0f1c00117201bd,65d2b6c8f2eece985d8e374c,65d2b9a3424f1685f09383fd,0.012,0.012,0,3,3,12,1,threeone,,,,,,,,,,,,,,,,,,,,,,,,,,,,,,,,,,,,,,,,,,,,,,,,,,,,,,,,,,,,,,,,,,,,,,,,,,,,,,,,,,,,,,,,,,,,,,,,,,,,,,,,,,,,,,,,,,,,,,,,,,,,,,,,,,,,,,,,,
,,5d96a61b5d0f1c00117201bd,2024-02-19_03h19.00.087,kallum_motion_pilot,2023.2.2,Win32,144.092219,5d96a61b5d0f1c00117201bd,65d2b6c8f2eece985d8e374c,65d2b9a3424f1685f09383fd,0.012,0.012,0,4,4,125,1,seveneight,,,,,,,,,,,,,,,,,,,,,,,,,,,,,,,,,,,,,,,,,,,,,,,,,,,,,,,,,,,,,,,,,,,,,,,,,,,,,,,,,,,,,,,,,,,,,,,,,,,,,,,,,,,,,,,,,,,,,,,,,,,,,,,,,,,,,,,,,
,,5d96a61b5d0f1c00117201bd,2024-02-19_03h19.00.087,kallum_motion_pilot,2023.2.2,Win32,144.092219,5d96a61b5d0f1c00117201bd,65d2b6c8f2eece985d8e374c,65d2b9a3424f1685f09383fd,0.012,0.012,0,5,5,56,1,onetwo,,,,,,,,,,,,,,,,,,,,,,,,,,,,,,,,,,,,,,,,,,,,,,,,,,,,,,,,,,,,,,,,,,,,,,,,,,,,,,,,,,,,,,,,,,,,,,,,,,,,,,,,,,,,,,,,,,,,,,,,,,,,,,,,,,,,,,,,,
,,5d96a61b5d0f1c00117201bd,2024-02-19_03h19.00.087,kallum_motion_pilot,2023.2.2,Win32,144.092219,5d96a61b5d0f1c00117201bd,65d2b6c8f2eece985d8e374c,65d2b9a3424f1685f09383fd,0.012,0.012,0,6,6,150,1,eightsix,,,,,,,,,,,,,,,,,,,,,,,,,,,,,,,,,,,,,,,,,,,,,,,,,,,,,,,,,,,,,,,,,,,,,,,,,,,,,,,,,,,,,,,,,,,,,,,,,,,,,,,,,,,,,,,,,,,,,,,,,,,,,,,,,,,,,,,,,
,,5d96a61b5d0f1c00117201bd,2024-02-19_03h19.00.087,kallum_motion_pilot,2023.2.2,Win32,144.092219,5d96a61b5d0f1c00117201bd,65d2b6c8f2eece985d8e374c,65d2b9a3424f1685f09383fd,0.012,0.012,0,7,7,48,1,onetwo,,,,,,,,,,,,,,,,,,,,,,,,,,,,,,,,,,,,,,,,,,,,,,,,,,,,,,,,,,,,,,,,,,,,,,,,,,,,,,,,,,,,,,,,,,,,,,,,,,,,,,,,,,,,,,,,,,,,,,,,,,,,,,,,,,,,,,,,,
,,5d96a61b5d0f1c00117201bd,2024-02-19_03h19.00.087,kallum_motion_pilot,2023.2.2,Win32,144.092219,5d96a61b5d0f1c00117201bd,65d2b6c8f2eece985d8e374c,65d2b9a3424f1685f09383fd,0.012,0.012,0,8,8,87,1,eightseven,,,,,,,,,,,,,,,,,,,,,,,,,,,,,,,,,,,,,,,,,,,,,,,,,,,,,,,,,,,,,,,,,,,,,,,,,,,,,,,,,,,,,,,,,,,,,,,,,,,,,,,,,,,,,,,,,,,,,,,,,,,,,,,,,,,,,,,,,
,,5d96a61b5d0f1c00117201bd,2024-02-19_03h19.00.087,kallum_motion_pilot,2023.2.2,Win32,144.092219,5d96a61b5d0f1c00117201bd,65d2b6c8f2eece985d8e374c,65d2b9a3424f1685f09383fd,0.012,0.012,0,9,9,160,1,fivesix,,,,,,,,,,,,,,,,,,,,,,,,,,,,,,,,,,,,,,,,,,,,,,,,,,,,,,,,,,,,,,,,,,,,,,,,,,,,,,,,,,,,,,,,,,,,,,,,,,,,,,,,,,,,,,,,,,,,,,,,,,,,,,,,,,,,,,,,,
,,5d96a61b5d0f1c00117201bd,2024-02-19_03h19.00.087,kallum_motion_pilot,2023.2.2,Win32,144.092219,5d96a61b5d0f1c00117201bd,65d2b6c8f2eece985d8e374c,65d2b9a3424f1685f09383fd,0.012,0.012,0,10,10,69,1,threefour,,,,,,,,,,,,,,,,,,,,,,,,,,,,,,,,,,,,,,,,,,,,,,,,,,,,,,,,,,,,,,,,,,,,,,,,,,,,,,,,,,,,,,,,,,,,,,,,,,,,,,,,,,,,,,,,,,,,,,,,,,,,,,,,,,,,,,,,,
,,5d96a61b5d0f1c00117201bd,2024-02-19_03h19.00.087,kallum_motion_pilot,2023.2.2,Win32,144.092219,5d96a61b5d0f1c00117201bd,65d2b6c8f2eece985d8e374c,65d2b9a3424f1685f09383fd,0.012,0.012,0,11,11,156,1,sevenfive,,,,,,,,,,,,,,,,,,,,,,,,,,,,,,,,,,,,,,,,,,,,,,,,,,,,,,,,,,,,,,,,,,,,,,,,,,,,,,,,,,,,,,,,,,,,,,,,,,,,,,,,,,,,,,,,,,,,,,,,,,,,,,,,,,,,,,,,,
,,5d96a61b5d0f1c00117201bd,2024-02-19_03h19.00.087,kallum_motion_pilot,2023.2.2,Win32,144.092219,5d96a61b5d0f1c00117201bd,65d2b6c8f2eece985d8e374c,65d2b9a3424f1685f09383fd,0.012,0.012,0,12,12,138,1,sixfive,,,,,,,,,,,,,,,,,,,,,,,,,,,,,,,,,,,,,,,,,,,,,,,,,,,,,,,,,,,,,,,,,,,,,,,,,,,,,,,,,,,,,,,,,,,,,,,,,,,,,,,,,,,,,,,,,,,,,,,,,,,,,,,,,,,,,,,,,
,,5d96a61b5d0f1c00117201bd,2024-02-19_03h19.00.087,kallum_motion_pilot,2023.2.2,Win32,144.092219,5d96a61b5d0f1c00117201bd,65d2b6c8f2eece985d8e374c,65d2b9a3424f1685f09383fd,0.012,0.013,0,13,13,98,1,sixfive,,,,,,,,,,,,,,,,,,,,,,,,,,,,,,,,,,,,,,,,,,,,,,,,,,,,,,,,,,,,,,,,,,,,,,,,,,,,,,,,,,,,,,,,,,,,,,,,,,,,,,,,,,,,,,,,,,,,,,,,,,,,,,,,,,,,,,,,,
,,5d96a61b5d0f1c00117201bd,2024-02-19_03h19.00.087,kallum_motion_pilot,2023.2.2,Win32,144.092219,5d96a61b5d0f1c00117201bd,65d2b6c8f2eece985d8e374c,65d2b9a3424f1685f09383fd,0.013,0.013,0,14,14,135,1,eightseven,,,,,,,,,,,,,,,,,,,,,,,,,,,,,,,,,,,,,,,,,,,,,,,,,,,,,,,,,,,,,,,,,,,,,,,,,,,,,,,,,,,,,,,,,,,,,,,,,,,,,,,,,,,,,,,,,,,,,,,,,,,,,,,,,,,,,,,,,
,,5d96a61b5d0f1c00117201bd,2024-02-19_03h19.00.087,kallum_motion_pilot,2023.2.2,Win32,144.092219,5d96a61b5d0f1c00117201bd,65d2b6c8f2eece985d8e374c,65d2b9a3424f1685f09383fd,0.013,0.013,0,15,15,43,1,twofour,,,,,,,,,,,,,,,,,,,,,,,,,,,,,,,,,,,,,,,,,,,,,,,,,,,,,,,,,,,,,,,,,,,,,,,,,,,,,,,,,,,,,,,,,,,,,,,,,,,,,,,,,,,,,,,,,,,,,,,,,,,,,,,,,,,,,,,,,
,,5d96a61b5d0f1c00117201bd,2024-02-19_03h19.00.087,kallum_motion_pilot,2023.2.2,Win32,144.092219,5d96a61b5d0f1c00117201bd,65d2b6c8f2eece985d8e374c,65d2b9a3424f1685f09383fd,0.013,0.013,0,16,16,55,1,fourthree,,,,,,,,,,,,,,,,,,,,,,,,,,,,,,,,,,,,,,,,,,,,,,,,,,,,,,,,,,,,,,,,,,,,,,,,,,,,,,,,,,,,,,,,,,,,,,,,,,,,,,,,,,,,,,,,,,,,,,,,,,,,,,,,,,,,,,,,,
,,5d96a61b5d0f1c00117201bd,2024-02-19_03h19.00.087,kallum_motion_pilot,2023.2.2,Win32,144.092219,5d96a61b5d0f1c00117201bd,65d2b6c8f2eece985d8e374c,65d2b9a3424f1685f09383fd,0.013,0.013,0,17,17,127,1,eightseven,,,,,,,,,,,,,,,,,,,,,,,,,,,,,,,,,,,,,,,,,,,,,,,,,,,,,,,,,,,,,,,,,,,,,,,,,,,,,,,,,,,,,,,,,,,,,,,,,,,,,,,,,,,,,,,,,,,,,,,,,,,,,,,,,,,,,,,,,
,,5d96a61b5d0f1c00117201bd,2024-02-19_03h19.00.087,kallum_motion_pilot,2023.2.2,Win32,144.092219,5d96a61b5d0f1c00117201bd,65d2b6c8f2eece985d8e374c,65d2b9a3424f1685f09383fd,0.013,0.013,0,18,18,122,1,sixfive,,,,,,,,,,,,,,,,,,,,,,,,,,,,,,,,,,,,,,,,,,,,,,,,,,,,,,,,,,,,,,,,,,,,,,,,,,,,,,,,,,,,,,,,,,,,,,,,,,,,,,,,,,,,,,,,,,,,,,,,,,,,,,,,,,,,,,,,,
,,5d96a61b5d0f1c00117201bd,2024-02-19_03h19.00.087,kallum_motion_pilot,2023.2.2,Win32,144.092219,5d96a61b5d0f1c00117201bd,65d2b6c8f2eece985d8e374c,65d2b9a3424f1685f09383fd,0.013,0.013,0,19,19,114,1,sixfive,,,,,,,,,,,,,,,,,,,,,,,,,,,,,,,,,,,,,,,,,,,,,,,,,,,,,,,,,,,,,,,,,,,,,,,,,,,,,,,,,,,,,,,,,,,,,,,,,,,,,,,,,,,,,,,,,,,,,,,,,,,,,,,,,,,,,,,,,
,,5d96a61b5d0f1c00117201bd,2024-02-19_03h19.00.087,kallum_motion_pilot,2023.2.2,Win32,144.092219,5d96a61b5d0f1c00117201bd,65d2b6c8f2eece985d8e374c,65d2b9a3424f1685f09383fd,0.013,0.013,0,20,20,44,1,threeone,,,,,,,,,,,,,,,,,,,,,,,,,,,,,,,,,,,,,,,,,,,,,,,,,,,,,,,,,,,,,,,,,,,,,,,,,,,,,,,,,,,,,,,,,,,,,,,,,,,,,,,,,,,,,,,,,,,,,,,,,,,,,,,,,,,,,,,,,
,,5d96a61b5d0f1c00117201bd,2024-02-19_03h19.00.087,kallum_motion_pilot,2023.2.2,Win32,144.092219,5d96a61b5d0f1c00117201bd,65d2b6c8f2eece985d8e374c,65d2b9a3424f1685f09383fd,0.013,0.013,0,21,21,9,1,onethree,,,,,,,,,,,,,,,,,,,,,,,,,,,,,,,,,,,,,,,,,,,,,,,,,,,,,,,,,,,,,,,,,,,,,,,,,,,,,,,,,,,,,,,,,,,,,,,,,,,,,,,,,,,,,,,,,,,,,,,,,,,,,,,,,,,,,,,,,
,,5d96a61b5d0f1c00117201bd,2024-02-19_03h19.00.087,kallum_motion_pilot,2023.2.2,Win32,144.092219,5d96a61b5d0f1c00117201bd,65d2b6c8f2eece985d8e374c,65d2b9a3424f1685f09383fd,0.013,0.013,0,22,22,22,1,fourtwo,,,,,,,,,,,,,,,,,,,,,,,,,,,,,,,,,,,,,,,,,,,,,,,,,,,,,,,,,,,,,,,,,,,,,,,,,,,,,,,,,,,,,,,,,,,,,,,,,,,,,,,,,,,,,,,,,,,,,,,,,,,,,,,,,,,,,,,,,
,,5d96a61b5d0f1c00117201bd,2024-02-19_03h19.00.087,kallum_motion_pilot,2023.2.2,Win32,144.092219,5d96a61b5d0f1c00117201bd,65d2b6c8f2eece985d8e374c,65d2b9a3424f1685f09383fd,0.013,0.013,0,23,23,36,1,threeone,,,,,,,,,,,,,,,,,,,,,,,,,,,,,,,,,,,,,,,,,,,,,,,,,,,,,,,,,,,,,,,,,,,,,,,,,,,,,,,,,,,,,,,,,,,,,,,,,,,,,,,,,,,,,,,,,,,,,,,,,,,,,,,,,,,,,,,,,
,,5d96a61b5d0f1c00117201bd,2024-02-19_03h19.00.087,kallum_motion_pilot,2023.2.2,Win32,144.092219,5d96a61b5d0f1c00117201bd,65d2b6c8f2eece985d8e374c,65d2b9a3424f1685f09383fd,0.013,0.013,0,24,24,65,1,onethree,,,,,,,,,,,,,,,,,,,,,,,,,,,,,,,,,,,,,,,,,,,,,,,,,,,,,,,,,,,,,,,,,,,,,,,,,,,,,,,,,,,,,,,,,,,,,,,,,,,,,,,,,,,,,,,,,,,,,,,,,,,,,,,,,,,,,,,,,
,,5d96a61b5d0f1c00117201bd,2024-02-19_03h19.00.087,kallum_motion_pilot,2023.2.2,Win32,144.092219,5d96a61b5d0f1c00117201bd,65d2b6c8f2eece985d8e374c,65d2b9a3424f1685f09383fd,0.013,0.013,0,25,25,95,1,eightseven,,,,,,,,,,,,,,,,,,,,,,,,,,,,,,,,,,,,,,,,,,,,,,,,,,,,,,,,,,,,,,,,,,,,,,,,,,,,,,,,,,,,,,,,,,,,,,,,,,,,,,,,,,,,,,,,,,,,,,,,,,,,,,,,,,,,,,,,,
,,5d96a61b5d0f1c00117201bd,2024-02-19_03h19.00.087,kallum_motion_pilot,2023.2.2,Win32,144.092219,5d96a61b5d0f1c00117201bd,65d2b6c8f2eece985d8e374c,65d2b9a3424f1685f09383fd,0.013,0.013,0,26,26,148,1,sevenfive,,,,,,,,,,,,,,,,,,,,,,,,,,,,,,,,,,,,,,,,,,,,,,,,,,,,,,,,,,,,,,,,,,,,,,,,,,,,,,,,,,,,,,,,,,,,,,,,,,,,,,,,,,,,,,,,,,,,,,,,,,,,,,,,,,,,,,,,,
,,5d96a61b5d0f1c00117201bd,2024-02-19_03h19.00.087,kallum_motion_pilot,2023.2.2,Win32,144.092219,5d96a61b5d0f1c00117201bd,65d2b6c8f2eece985d8e374c,65d2b9a3424f1685f09383fd,0.014,0.014,0,27,27,91,1,sixeight,,,,,,,,,,,,,,,,,,,,,,,,,,,,,,,,,,,,,,,,,,,,,,,,,,,,,,,,,,,,,,,,,,,,,,,,,,,,,,,,,,,,,,,,,,,,,,,,,,,,,,,,,,,,,,,,,,,,,,,,,,,,,,,,,,,,,,,,,
,,5d96a61b5d0f1c00117201bd,2024-02-19_03h19.00.087,kallum_motion_pilot,2023.2.2,Win32,144.092219,5d96a61b5d0f1c00117201bd,65d2b6c8f2eece985d8e374c,65d2b9a3424f1685f09383fd,0.014,0.014,0,28,28,159,1,eightseven,,,,,,,,,,,,,,,,,,,,,,,,,,,,,,,,,,,,,,,,,,,,,,,,,,,,,,,,,,,,,,,,,,,,,,,,,,,,,,,,,,,,,,,,,,,,,,,,,,,,,,,,,,,,,,,,,,,,,,,,,,,,,,,,,,,,,,,,,
,,5d96a61b5d0f1c00117201bd,2024-02-19_03h19.00.087,kallum_motion_pilot,2023.2.2,Win32,144.092219,5d96a61b5d0f1c00117201bd,65d2b6c8f2eece985d8e374c,65d2b9a3424f1685f09383fd,0.014,0.014,0,29,29,39,1,fourthree,,,,,,,,,,,,,,,,,,,,,,,,,,,,,,,,,,,,,,,,,,,,,,,,,,,,,,,,,,,,,,,,,,,,,,,,,,,,,,,,,,,,,,,,,,,,,,,,,,,,,,,,,,,,,,,,,,,,,,,,,,,,,,,,,,,,,,,,,
,,5d96a61b5d0f1c00117201bd,2024-02-19_03h19.00.087,kallum_motion_pilot,2023.2.2,Win32,144.092219,5d96a61b5d0f1c00117201bd,65d2b6c8f2eece985d8e374c,65d2b9a3424f1685f09383fd,0.014,0.014,0,30,30,111,1,eightseven,,,,,,,,,,,,,,,,,,,,,,,,,,,,,,,,,,,,,,,,,,,,,,,,,,,,,,,,,,,,,,,,,,,,,,,,,,,,,,,,,,,,,,,,,,,,,,,,,,,,,,,,,,,,,,,,,,,,,,,,,,,,,,,,,,,,,,,,,
,,5d96a61b5d0f1c00117201bd,2024-02-19_03h19.00.087,kallum_motion_pilot,2023.2.2,Win32,144.092219,5d96a61b5d0f1c00117201bd,65d2b6c8f2eece985d8e374c,65d2b9a3424f1685f09383fd,0.014,0.014,0,31,31,49,1,onethree,,,,,,,,,,,,,,,,,,,,,,,,,,,,,,,,,,,,,,,,,,,,,,,,,,,,,,,,,,,,,,,,,,,,,,,,,,,,,,,,,,,,,,,,,,,,,,,,,,,,,,,,,,,,,,,,,,,,,,,,,,,,,,,,,,,,,,,,,
,,5d96a61b5d0f1c00117201bd,2024-02-19_03h19.00.087,kallum_motion_pilot,2023.2.2,Win32,144.092219,5d96a61b5d0f1c00117201bd,65d2b6c8f2eece985d8e374c,65d2b9a3424f1685f09383fd,0.014,0.014,0,32,32,53,1,threefour,,,,,,,,,,,,,,,,,,,,,,,,,,,,,,,,,,,,,,,,,,,,,,,,,,,,,,,,,,,,,,,,,,,,,,,,,,,,,,,,,,,,,,,,,,,,,,,,,,,,,,,,,,,,,,,,,,,,,,,,,,,,,,,,,,,,,,,,,
,,5d96a61b5d0f1c00117201bd,2024-02-19_03h19.00.087,kallum_motion_pilot,2023.2.2,Win32,144.092219,5d96a61b5d0f1c00117201bd,65d2b6c8f2eece985d8e374c,65d2b9a3424f1685f09383fd,0.014,0.014,0,33,33,47,1,fourthree,,,,,,,,,,,,,,,,,,,,,,,,,,,,,,,,,,,,,,,,,,,,,,,,,,,,,,,,,,,,,,,,,,,,,,,,,,,,,,,,,,,,,,,,,,,,,,,,,,,,,,,,,,,,,,,,,,,,,,,,,,,,,,,,,,,,,,,,,
,,5d96a61b5d0f1c00117201bd,2024-02-19_03h19.00.087,kallum_motion_pilot,2023.2.2,Win32,144.092219,5d96a61b5d0f1c00117201bd,65d2b6c8f2eece985d8e374c,65d2b9a3424f1685f09383fd,0.014,0.014,0,34,34,101,1,seveneight,,,,,,,,,,,,,,,,,,,,,,,,,,,,,,,,,,,,,,,,,,,,,,,,,,,,,,,,,,,,,,,,,,,,,,,,,,,,,,,,,,,,,,,,,,,,,,,,,,,,,,,,,,,,,,,,,,,,,,,,,,,,,,,,,,,,,,,,,
,,5d96a61b5d0f1c00117201bd,2024-02-19_03h19.00.087,kallum_motion_pilot,2023.2.2,Win32,144.092219,5d96a61b5d0f1c00117201bd,65d2b6c8f2eece985d8e374c,65d2b9a3424f1685f09383fd,0.014,0.014,0,35,35,157,1,seveneight,,,,,,,,,,,,,,,,,,,,,,,,,,,,,,,,,,,,,,,,,,,,,,,,,,,,,,,,,,,,,,,,,,,,,,,,,,,,,,,,,,,,,,,,,,,,,,,,,,,,,,,,,,,,,,,,,,,,,,,,,,,,,,,,,,,,,,,,,
,,5d96a61b5d0f1c00117201bd,2024-02-19_03h19.00.087,kallum_motion_pilot,2023.2.2,Win32,144.092219,5d96a61b5d0f1c00117201bd,65d2b6c8f2eece985d8e374c,65d2b9a3424f1685f09383fd,0.014,0.014,0,36,36,11,1,twofour,,,,,,,,,,,,,,,,,,,,,,,,,,,,,,,,,,,,,,,,,,,,,,,,,,,,,,,,,,,,,,,,,,,,,,,,,,,,,,,,,,,,,,,,,,,,,,,,,,,,,,,,,,,,,,,,,,,,,,,,,,,,,,,,,,,,,,,,,
,,5d96a61b5d0f1c00117201bd,2024-02-19_03h19.00.087,kallum_motion_pilot,2023.2.2,Win32,144.092219,5d96a61b5d0f1c00117201bd,65d2b6c8f2eece985d8e374c,65d2b9a3424f1685f09383fd,0.014,0.014,0,37,37,161,1,fiveseven,,,,,,,,,,,,,,,,,,,,,,,,,,,,,,,,,,,,,,,,,,,,,,,,,,,,,,,,,,,,,,,,,,,,,,,,,,,,,,,,,,,,,,,,,,,,,,,,,,,,,,,,,,,,,,,,,,,,,,,,,,,,,,,,,,,,,,,,,
,,5d96a61b5d0f1c00117201bd,2024-02-19_03h19.00.087,kallum_motion_pilot,2023.2.2,Win32,144.092219,5d96a61b5d0f1c00117201bd,65d2b6c8f2eece985d8e374c,65d2b9a3424f1685f09383fd,0.014,0.014,0,38,38,15,1,fourthree,,,,,,,,,,,,,,,,,,,,,,,,,,,,,,,,,,,,,,,,,,,,,,,,,,,,,,,,,,,,,,,,,,,,,,,,,,,,,,,,,,,,,,,,,,,,,,,,,,,,,,,,,,,,,,,,,,,,,,,,,,,,,,,,,,,,,,,,,
,,5d96a61b5d0f1c00117201bd,2024-02-19_03h19.00.087,kallum_motion_pilot,2023.2.2,Win32,144.092219,5d96a61b5d0f1c00117201bd,65d2b6c8f2eece985d8e374c,65d2b9a3424f1685f09383fd,0.014,0.014,0,39,39,92,1,sevenfive,,,,,,,,,,,,,,,,,,,,,,,,,,,,,,,,,,,,,,,,,,,,,,,,,,,,,,,,,,,,,,,,,,,,,,,,,,,,,,,,,,,,,,,,,,,,,,,,,,,,,,,,,,,,,,,,,,,,,,,,,,,,,,,,,,,,,,,,,
,,5d96a61b5d0f1c00117201bd,2024-02-19_03h19.00.087,kallum_motion_pilot,2023.2.2,Win32,144.092219,5d96a61b5d0f1c00117201bd,65d2b6c8f2eece985d8e374c,65d2b9a3424f1685f09383fd,0.014,0.014,0,40,40,31,1,fourthree,,,,,,,,,,,,,,,,,,,,,,,,,,,,,,,,,,,,,,,,,,,,,,,,,,,,,,,,,,,,,,,,,,,,,,,,,,,,,,,,,,,,,,,,,,,,,,,,,,,,,,,,,,,,,,,,,,,,,,,,,,,,,,,,,,,,,,,,,
,,5d96a61b5d0f1c00117201bd,2024-02-19_03h19.00.087,kallum_motion_pilot,2023.2.2,Win32,144.092219,5d96a61b5d0f1c00117201bd,65d2b6c8f2eece985d8e374c,65d2b9a3424f1685f09383fd,0.014,0.014,0,41,41,136,1,fivesix,,,,,,,,,,,,,,,,,,,,,,,,,,,,,,,,,,,,,,,,,,,,,,,,,,,,,,,,,,,,,,,,,,,,,,,,,,,,,,,,,,,,,,,,,,,,,,,,,,,,,,,,,,,,,,,,,,,,,,,,,,,,,,,,,,,,,,,,,
,,5d96a61b5d0f1c00117201bd,2024-02-19_03h19.00.087,kallum_motion_pilot,2023.2.2,Win32,144.092219,5d96a61b5d0f1c00117201bd,65d2b6c8f2eece985d8e374c,65d2b9a3424f1685f09383fd,0.014,0.014,0,42,42,99,1,sixeight,,,,,,,,,,,,,,,,,,,,,,,,,,,,,,,,,,,,,,,,,,,,,,,,,,,,,,,,,,,,,,,,,,,,,,,,,,,,,,,,,,,,,,,,,,,,,,,,,,,,,,,,,,,,,,,,,,,,,,,,,,,,,,,,,,,,,,,,,
,,5d96a61b5d0f1c00117201bd,2024-02-19_03h19.00.087,kallum_motion_pilot,2023.2.2,Win32,144.092219,5d96a61b5d0f1c00117201bd,65d2b6c8f2eece985d8e374c,65d2b9a3424f1685f09383fd,0.014,0.014,0,43,43,137,1,fiveseven,,,,,,,,,,,,,,,,,,,,,,,,,,,,,,,,,,,,,,,,,,,,,,,,,,,,,,,,,,,,,,,,,,,,,,,,,,,,,,,,,,,,,,,,,,,,,,,,,,,,,,,,,,,,,,,,,,,,,,,,,,,,,,,,,,,,,,,,,
,,5d96a61b5d0f1c00117201bd,2024-02-19_03h19.00.087,kallum_motion_pilot,2023.2.2,Win32,144.092219,5d96a61b5d0f1c00117201bd,65d2b6c8f2eece985d8e374c,65d2b9a3424f1685f09383fd,0.014,0.014,0,44,44,158,1,eightsix,,,,,,,,,,,,,,,,,,,,,,,,,,,,,,,,,,,,,,,,,,,,,,,,,,,,,,,,,,,,,,,,,,,,,,,,,,,,,,,,,,,,,,,,,,,,,,,,,,,,,,,,,,,,,,,,,,,,,,,,,,,,,,,,,,,,,,,,,
,,5d96a61b5d0f1c00117201bd,2024-02-19_03h19.00.087,kallum_motion_pilot,2023.2.2,Win32,144.092219,5d96a61b5d0f1c00117201bd,65d2b6c8f2eece985d8e374c,65d2b9a3424f1685f09383fd,0.014,0.014,0,45,45,17,1,onethree,,,,,,,,,,,,,,,,,,,,,,,,,,,,,,,,,,,,,,,,,,,,,,,,,,,,,,,,,,,,,,,,,,,,,,,,,,,,,,,,,,,,,,,,,,,,,,,,,,,,,,,,,,,,,,,,,,,,,,,,,,,,,,,,,,,,,,,,,
,,5d96a61b5d0f1c00117201bd,2024-02-19_03h19.00.087,kallum_motion_pilot,2023.2.2,Win32,144.092219,5d96a61b5d0f1c00117201bd,65d2b6c8f2eece985d8e374c,65d2b9a3424f1685f09383fd,0.014,0.014,0,46,46,19,1,twofour,,,,,,,,,,,,,,,,,,,,,,,,,,,,,,,,,,,,,,,,,,,,,,,,,,,,,,,,,,,,,,,,,,,,,,,,,,,,,,,,,,,,,,,,,,,,,,,,,,,,,,,,,,,,,,,,,,,,,,,,,,,,,,,,,,,,,,,,,
,,5d96a61b5d0f1c00117201bd,2024-02-19_03h19.00.087,kallum_motion_pilot,2023.2.2,Win32,144.092219,5d96a61b5d0f1c00117201bd,65d2b6c8f2eece985d8e374c,65d2b9a3424f1685f09383fd,0.015,0.015,0,47,47,46,1,fourtwo,,,,,,,,,,,,,,,,,,,,,,,,,,,,,,,,,,,,,,,,,,,,,,,,,,,,,,,,,,,,,,,,,,,,,,,,,,,,,,,,,,,,,,,,,,,,,,,,,,,,,,,,,,,,,,,,,,,,,,,,,,,,,,,,,,,,,,,,,
,,5d96a61b5d0f1c00117201bd,2024-02-19_03h19.00.087,kallum_motion_pilot,2023.2.2,Win32,144.092219,5d96a61b5d0f1c00117201bd,65d2b6c8f2eece985d8e374c,65d2b9a3424f1685f09383fd,0.015,0.015,0,48,48,28,1,threeone,,,,,,,,,,,,,,,,,,,,,,,,,,,,,,,,,,,,,,,,,,,,,,,,,,,,,,,,,,,,,,,,,,,,,,,,,,,,,,,,,,,,,,,,,,,,,,,,,,,,,,,,,,,,,,,,,,,,,,,,,,,,,,,,,,,,,,,,,
,,5d96a61b5d0f1c00117201bd,2024-02-19_03h19.00.087,kallum_motion_pilot,2023.2.2,Win32,144.092219,5d96a61b5d0f1c00117201bd,65d2b6c8f2eece985d8e374c,65d2b9a3424f1685f09383fd,0.015,0.015,0,49,49,34,1,twoone,,,,,,,,,,,,,,,,,,,,,,,,,,,,,,,,,,,,,,,,,,,,,,,,,,,,,,,,,,,,,,,,,,,,,,,,,,,,,,,,,,,,,,,,,,,,,,,,,,,,,,,,,,,,,,,,,,,,,,,,,,,,,,,,,,,,,,,,,
,,5d96a61b5d0f1c00117201bd,2024-02-19_03h19.00.087,kallum_motion_pilot,2023.2.2,Win32,144.092219,5d96a61b5d0f1c00117201bd,65d2b6c8f2eece985d8e374c,65d2b9a3424f1685f09383fd,0.015,0.015,0,50,50,103,1,eightseven,,,,,,,,,,,,,,,,,,,,,,,,,,,,,,,,,,,,,,,,,,,,,,,,,,,,,,,,,,,,,,,,,,,,,,,,,,,,,,,,,,,,,,,,,,,,,,,,,,,,,,,,,,,,,,,,,,,,,,,,,,,,,,,,,,,,,,,,,
,,5d96a61b5d0f1c00117201bd,2024-02-19_03h19.00.087,kallum_motion_pilot,2023.2.2,Win32,144.092219,5d96a61b5d0f1c00117201bd,65d2b6c8f2eece985d8e374c,65d2b9a3424f1685f09383fd,0.015,0.015,0,51,51,115,1,sixeight,,,,,,,,,,,,,,,,,,,,,,,,,,,,,,,,,,,,,,,,,,,,,,,,,,,,,,,,,,,,,,,,,,,,,,,,,,,,,,,,,,,,,,,,,,,,,,,,,,,,,,,,,,,,,,,,,,,,,,,,,,,,,,,,,,,,,,,,,
,,5d96a61b5d0f1c00117201bd,2024-02-19_03h19.00.087,kallum_motion_pilot,2023.2.2,Win32,144.092219,5d96a61b5d0f1c00117201bd,65d2b6c8f2eece985d8e374c,65d2b9a3424f1685f09383fd,0.015,0.015,0,52,52,152,1,fivesix,,,,,,,,,,,,,,,,,,,,,,,,,,,,,,,,,,,,,,,,,,,,,,,,,,,,,,,,,,,,,,,,,,,,,,,,,,,,,,,,,,,,,,,,,,,,,,,,,,,,,,,,,,,,,,,,,,,,,,,,,,,,,,,,,,,,,,,,,
,,5d96a61b5d0f1c00117201bd,2024-02-19_03h19.00.087,kallum_motion_pilot,2023.2.2,Win32,144.092219,5d96a61b5d0f1c00117201bd,65d2b6c8f2eece985d8e374c,65d2b9a3424f1685f09383fd,0.015,0.015,0,53,53,68,1,threeone,,,,,,,,,,,,,,,,,,,,,,,,,,,,,,,,,,,,,,,,,,,,,,,,,,,,,,,,,,,,,,,,,,,,,,,,,,,,,,,,,,,,,,,,,,,,,,,,,,,,,,,,,,,,,,,,,,,,,,,,,,,,,,,,,,,,,,,,,
,,5d96a61b5d0f1c00117201bd,2024-02-19_03h19.00.087,kallum_motion_pilot,2023.2.2,Win32,144.092219,5d96a61b5d0f1c00117201bd,65d2b6c8f2eece985d8e374c,65d2b9a3424f1685f09383fd,0.015,0.015,0,54,54,129,1,fiveseven,,,,,,,,,,,,,,,,,,,,,,,,,,,,,,,,,,,,,,,,,,,,,,,,,,,,,,,,,,,,,,,,,,,,,,,,,,,,,,,,,,,,,,,,,,,,,,,,,,,,,,,,,,,,,,,,,,,,,,,,,,,,,,,,,,,,,,,,,
,,5d96a61b5d0f1c00117201bd,2024-02-19_03h19.00.087,kallum_motion_pilot,2023.2.2,Win32,144.092219,5d96a61b5d0f1c00117201bd,65d2b6c8f2eece985d8e374c,65d2b9a3424f1685f09383fd,0.015,0.015,0,55,55,61,1,threefour,,,,,,,,,,,,,,,,,,,,,,,,,,,,,,,,,,,,,,,,,,,,,,,,,,,,,,,,,,,,,,,,,,,,,,,,,,,,,,,,,,,,,,,,,,,,,,,,,,,,,,,,,,,,,,,,,,,,,,,,,,,,,,,,,,,,,,,,,
,,5d96a61b5d0f1c00117201bd,2024-02-19_03h19.00.087,kallum_motion_pilot,2023.2.2,Win32,144.092219,5d96a61b5d0f1c00117201bd,65d2b6c8f2eece985d8e374c,65d2b9a3424f1685f09383fd,0.015,0.015,0,56,56,38,1,fourtwo,,,,,,,,,,,,,,,,,,,,,,,,,,,,,,,,,,,,,,,,,,,,,,,,,,,,,,,,,,,,,,,,,,,,,,,,,,,,,,,,,,,,,,,,,,,,,,,,,,,,,,,,,,,,,,,,,,,,,,,,,,,,,,,,,,,,,,,,,
,,5d96a61b5d0f1c00117201bd,2024-02-19_03h19.00.087,kallum_motion_pilot,2023.2.2,Win32,144.092219,5d96a61b5d0f1c00117201bd,65d2b6c8f2eece985d8e374c,65d2b9a3424f1685f09383fd,0.015,0.015,0,57,57,94,1,eightsix,,,,,,,,,,,,,,,,,,,,,,,,,,,,,,,,,,,,,,,,,,,,,,,,,,,,,,,,,,,,,,,,,,,,,,,,,,,,,,,,,,,,,,,,,,,,,,,,,,,,,,,,,,,,,,,,,,,,,,,,,,,,,,,,,,,,,,,,,
,,5d96a61b5d0f1c00117201bd,2024-02-19_03h19.00.087,kallum_motion_pilot,2023.2.2,Win32,144.092219,5d96a61b5d0f1c00117201bd,65d2b6c8f2eece985d8e374c,65d2b9a3424f1685f09383fd,0.015,0.015,0,58,58,143,1,eightseven,,,,,,,,,,,,,,,,,,,,,,,,,,,,,,,,,,,,,,,,,,,,,,,,,,,,,,,,,,,,,,,,,,,,,,,,,,,,,,,,,,,,,,,,,,,,,,,,,,,,,,,,,,,,,,,,,,,,,,,,,,,,,,,,,,,,,,,,,
,,5d96a61b5d0f1c00117201bd,2024-02-19_03h19.00.087,kallum_motion_pilot,2023.2.2,Win32,144.092219,5d96a61b5d0f1c00117201bd,65d2b6c8f2eece985d8e374c,65d2b9a3424f1685f09383fd,0.015,0.015,0,59,59,84,1,sevenfive,,,,,,,,,,,,,,,,,,,,,,,,,,,,,,,,,,,,,,,,,,,,,,,,,,,,,,,,,,,,,,,,,,,,,,,,,,,,,,,,,,,,,,,,,,,,,,,,,,,,,,,,,,,,,,,,,,,,,,,,,,,,,,,,,,,,,,,,,
,,5d96a61b5d0f1c00117201bd,2024-02-19_03h19.00.087,kallum_motion_pilot,2023.2.2,Win32,144.092219,5d96a61b5d0f1c00117201bd,65d2b6c8f2eece985d8e374c,65d2b9a3424f1685f09383fd,0.015,0.015,0,60,60,7,1,fourthree,,,,,,,,,,,,,,,,,,,,,,,,,,,,,,,,,,,,,,,,,,,,,,,,,,,,,,,,,,,,,,,,,,,,,,,,,,,,,,,,,,,,,,,,,,,,,,,,,,,,,,,,,,,,,,,,,,,,,,,,,,,,,,,,,,,,,,,,,
,,5d96a61b5d0f1c00117201bd,2024-02-19_03h19.00.087,kallum_motion_pilot,2023.2.2,Win32,144.092219,5d96a61b5d0f1c00117201bd,65d2b6c8f2eece985d8e374c,65d2b9a3424f1685f09383fd,0.015,0.015,0,61,61,64,1,onetwo,,,,,,,,,,,,,,,,,,,,,,,,,,,,,,,,,,,,,,,,,,,,,,,,,,,,,,,,,,,,,,,,,,,,,,,,,,,,,,,,,,,,,,,,,,,,,,,,,,,,,,,,,,,,,,,,,,,,,,,,,,,,,,,,,,,,,,,,,
,,5d96a61b5d0f1c00117201bd,2024-02-19_03h19.00.087,kallum_motion_pilot,2023.2.2,Win32,144.092219,5d96a61b5d0f1c00117201bd,65d2b6c8f2eece985d8e374c,65d2b9a3424f1685f09383fd,0.015,0.015,0,62,62,133,1,seveneight,,,,,,,,,,,,,,,,,,,,,,,,,,,,,,,,,,,,,,,,,,,,,,,,,,,,,,,,,,,,,,,,,,,,,,,,,,,,,,,,,,,,,,,,,,,,,,,,,,,,,,,,,,,,,,,,,,,,,,,,,,,,,,,,,,,,,,,,,
,,5d96a61b5d0f1c00117201bd,2024-02-19_03h19.00.087,kallum_motion_pilot,2023.2.2,Win32,144.092219,5d96a61b5d0f1c00117201bd,65d2b6c8f2eece985d8e374c,65d2b9a3424f1685f09383fd,0.015,0.015,0,63,63,35,1,twofour,,,,,,,,,,,,,,,,,,,,,,,,,,,,,,,,,,,,,,,,,,,,,,,,,,,,,,,,,,,,,,,,,,,,,,,,,,,,,,,,,,,,,,,,,,,,,,,,,,,,,,,,,,,,,,,,,,,,,,,,,,,,,,,,,,,,,,,,,
,,5d96a61b5d0f1c00117201bd,2024-02-19_03h19.00.087,kallum_motion_pilot,2023.2.2,Win32,144.092219,5d96a61b5d0f1c00117201bd,65d2b6c8f2eece985d8e374c,65d2b9a3424f1685f09383fd,0.015,0.015,0,64,64,142,1,eightsix,,,,,,,,,,,,,,,,,,,,,,,,,,,,,,,,,,,,,,,,,,,,,,,,,,,,,,,,,,,,,,,,,,,,,,,,,,,,,,,,,,,,,,,,,,,,,,,,,,,,,,,,,,,,,,,,,,,,,,,,,,,,,,,,,,,,,,,,,
,,5d96a61b5d0f1c00117201bd,2024-02-19_03h19.00.087,kallum_motion_pilot,2023.2.2,Win32,144.092219,5d96a61b5d0f1c00117201bd,65d2b6c8f2eece985d8e374c,65d2b9a3424f1685f09383fd,0.016,0.016,0,65,65,63,1,fourthree,,,,,,,,,,,,,,,,,,,,,,,,,,,,,,,,,,,,,,,,,,,,,,,,,,,,,,,,,,,,,,,,,,,,,,,,,,,,,,,,,,,,,,,,,,,,,,,,,,,,,,,,,,,,,,,,,,,,,,,,,,,,,,,,,,,,,,,,,
,,5d96a61b5d0f1c00117201bd,2024-02-19_03h19.00.087,kallum_motion_pilot,2023.2.2,Win32,144.092219,5d96a61b5d0f1c00117201bd,65d2b6c8f2eece985d8e374c,65d2b9a3424f1685f09383fd,0.016,0.016,0,66,66,18,1,twoone,,,,,,,,,,,,,,,,,,,,,,,,,,,,,,,,,,,,,,,,,,,,,,,,,,,,,,,,,,,,,,,,,,,,,,,,,,,,,,,,,,,,,,,,,,,,,,,,,,,,,,,,,,,,,,,,,,,,,,,,,,,,,,,,,,,,,,,,,
,,5d96a61b5d0f1c00117201bd,2024-02-19_03h19.00.087,kallum_motion_pilot,2023.2.2,Win32,144.092219,5d96a61b5d0f1c00117201bd,65d2b6c8f2eece985d8e374c,65d2b9a3424f1685f09383fd,0.016,0.016,0,67,67,16,1,onetwo,,,,,,,,,,,,,,,,,,,,,,,,,,,,,,,,,,,,,,,,,,,,,,,,,,,,,,,,,,,,,,,,,,,,,,,,,,,,,,,,,,,,,,,,,,,,,,,,,,,,,,,,,,,,,,,,,,,,,,,,,,,,,,,,,,,,,,,,,
,,5d96a61b5d0f1c00117201bd,2024-02-19_03h19.00.087,kallum_motion_pilot,2023.2.2,Win32,144.092219,5d96a61b5d0f1c00117201bd,65d2b6c8f2eece985d8e374c,65d2b9a3424f1685f09383fd,0.016,0.016,0,68,68,51,1,twofour,,,,,,,,,,,,,,,,,,,,,,,,,,,,,,,,,,,,,,,,,,,,,,,,,,,,,,,,,,,,,,,,,,,,,,,,,,,,,,,,,,,,,,,,,,,,,,,,,,,,,,,,,,,,,,,,,,,,,,,,,,,,,,,,,,,,,,,,,
,,5d96a61b5d0f1c00117201bd,2024-02-19_03h19.00.087,kallum_motion_pilot,2023.2.2,Win32,144.092219,5d96a61b5d0f1c00117201bd,65d2b6c8f2eece985d8e374c,65d2b9a3424f1685f09383fd,0.016,0.016,0,69,69,110,1,eightsix,,,,,,,,,,,,,,,,,,,,,,,,,,,,,,,,,,,,,,,,,,,,,,,,,,,,,,,,,,,,,,,,,,,,,,,,,,,,,,,,,,,,,,,,,,,,,,,,,,,,,,,,,,,,,,,,,,,,,,,,,,,,,,,,,,,,,,,,,
,,5d96a61b5d0f1c00117201bd,2024-02-19_03h19.00.087,kallum_motion_pilot,2023.2.2,Win32,144.092219,5d96a61b5d0f1c00117201bd,65d2b6c8f2eece985d8e374c,65d2b9a3424f1685f09383fd,0.016,0.016,0,70,70,123,1,sixeight,,,,,,,,,,,,,,,,,,,,,,,,,,,,,,,,,,,,,,,,,,,,,,,,,,,,,,,,,,,,,,,,,,,,,,,,,,,,,,,,,,,,,,,,,,,,,,,,,,,,,,,,,,,,,,,,,,,,,,,,,,,,,,,,,,,,,,,,,
,,5d96a61b5d0f1c00117201bd,2024-02-19_03h19.00.087,kallum_motion_pilot,2023.2.2,Win32,144.092219,5d96a61b5d0f1c00117201bd,65d2b6c8f2eece985d8e374c,65d2b9a3424f1685f09383fd,0.016,0.016,0,71,71,66,1,twoone,,,,,,,,,,,,,,,,,,,,,,,,,,,,,,,,,,,,,,,,,,,,,,,,,,,,,,,,,,,,,,,,,,,,,,,,,,,,,,,,,,,,,,,,,,,,,,,,,,,,,,,,,,,,,,,,,,,,,,,,,,,,,,,,,,,,,,,,,
,,5d96a61b5d0f1c00117201bd,2024-02-19_03h19.00.087,kallum_motion_pilot,2023.2.2,Win32,144.092219,5d96a61b5d0f1c00117201bd,65d2b6c8f2eece985d8e374c,65d2b9a3424f1685f09383fd,0.016,0.016,0,72,72,90,1,sixfive,,,,,,,,,,,,,,,,,,,,,,,,,,,,,,,,,,,,,,,,,,,,,,,,,,,,,,,,,,,,,,,,,,,,,,,,,,,,,,,,,,,,,,,,,,,,,,,,,,,,,,,,,,,,,,,,,,,,,,,,,,,,,,,,,,,,,,,,,
,,5d96a61b5d0f1c00117201bd,2024-02-19_03h19.00.087,kallum_motion_pilot,2023.2.2,Win32,144.092219,5d96a61b5d0f1c00117201bd,65d2b6c8f2eece985d8e374c,65d2b9a3424f1685f09383fd,0.016,0.016,0,73,73,117,1,seveneight,,,,,,,,,,,,,,,,,,,,,,,,,,,,,,,,,,,,,,,,,,,,,,,,,,,,,,,,,,,,,,,,,,,,,,,,,,,,,,,,,,,,,,,,,,,,,,,,,,,,,,,,,,,,,,,,,,,,,,,,,,,,,,,,,,,,,,,,,
,,5d96a61b5d0f1c00117201bd,2024-02-19_03h19.00.087,kallum_motion_pilot,2023.2.2,Win32,144.092219,5d96a61b5d0f1c00117201bd,65d2b6c8f2eece985d8e374c,65d2b9a3424f1685f09383fd,0.016,0.016,0,74,74,3,1,twofour,,,,,,,,,,,,,,,,,,,,,,,,,,,,,,,,,,,,,,,,,,,,,,,,,,,,,,,,,,,,,,,,,,,,,,,,,,,,,,,,,,,,,,,,,,,,,,,,,,,,,,,,,,,,,,,,,,,,,,,,,,,,,,,,,,,,,,,,,
,,5d96a61b5d0f1c00117201bd,2024-02-19_03h19.00.087,kallum_motion_pilot,2023.2.2,Win32,144.092219,5d96a61b5d0f1c00117201bd,65d2b6c8f2eece985d8e374c,65d2b9a3424f1685f09383fd,0.016,0.016,0,75,75,62,1,fourtwo,,,,,,,,,,,,,,,,,,,,,,,,,,,,,,,,,,,,,,,,,,,,,,,,,,,,,,,,,,,,,,,,,,,,,,,,,,,,,,,,,,,,,,,,,,,,,,,,,,,,,,,,,,,,,,,,,,,,,,,,,,,,,,,,,,,,,,,,,
,,5d96a61b5d0f1c00117201bd,2024-02-19_03h19.00.087,kallum_motion_pilot,2023.2.2,Win32,144.092219,5d96a61b5d0f1c00117201bd,65d2b6c8f2eece985d8e374c,65d2b9a3424f1685f09383fd,0.016,0.016,0,76,76,113,1,fiveseven,,,,,,,,,,,,,,,,,,,,,,,,,,,,,,,,,,,,,,,,,,,,,,,,,,,,,,,,,,,,,,,,,,,,,,,,,,,,,,,,,,,,,,,,,,,,,,,,,,,,,,,,,,,,,,,,,,,,,,,,,,,,,,,,,,,,,,,,,
,,5d96a61b5d0f1c00117201bd,2024-02-19_03h19.00.087,kallum_motion_pilot,2023.2.2,Win32,144.092219,5d96a61b5d0f1c00117201bd,65d2b6c8f2eece985d8e374c,65d2b9a3424f1685f09383fd,0.016,0.016,0,77,77,144,1,fivesix,,,,,,,,,,,,,,,,,,,,,,,,,,,,,,,,,,,,,,,,,,,,,,,,,,,,,,,,,,,,,,,,,,,,,,,,,,,,,,,,,,,,,,,,,,,,,,,,,,,,,,,,,,,,,,,,,,,,,,,,,,,,,,,,,,,,,,,,,
,,5d96a61b5d0f1c00117201bd,2024-02-19_03h19.00.087,kallum_motion_pilot,2023.2.2,Win32,144.092219,5d96a61b5d0f1c00117201bd,65d2b6c8f2eece985d8e374c,65d2b9a3424f1685f09383fd,0.016,0.016,0,78,78,154,1,sixfive,,,,,,,,,,,,,,,,,,,,,,,,,,,,,,,,,,,,,,,,,,,,,,,,,,,,,,,,,,,,,,,,,,,,,,,,,,,,,,,,,,,,,,,,,,,,,,,,,,,,,,,,,,,,,,,,,,,,,,,,,,,,,,,,,,,,,,,,,
,,5d96a61b5d0f1c00117201bd,2024-02-19_03h19.00.087,kallum_motion_pilot,2023.2.2,Win32,144.092219,5d96a61b5d0f1c00117201bd,65d2b6c8f2eece985d8e374c,65d2b9a3424f1685f09383fd,0.016,0.016,0,79,79,71,1,fourthree,,,,,,,,,,,,,,,,,,,,,,,,,,,,,,,,,,,,,,,,,,,,,,,,,,,,,,,,,,,,,,,,,,,,,,,,,,,,,,,,,,,,,,,,,,,,,,,,,,,,,,,,,,,,,,,,,,,,,,,,,,,,,,,,,,,,,,,,,
,,5d96a61b5d0f1c00117201bd,2024-02-19_03h19.00.087,kallum_motion_pilot,2023.2.2,Win32,144.092219,5d96a61b5d0f1c00117201bd,65d2b6c8f2eece985d8e374c,65d2b9a3424f1685f09383fd,0.016,0.016,0,80,80,130,1,sixfive,,,,,,,,,,,,,,,,,,,,,,,,,,,,,,,,,,,,,,,,,,,,,,,,,,,,,,,,,,,,,,,,,,,,,,,,,,,,,,,,,,,,,,,,,,,,,,,,,,,,,,,,,,,,,,,,,,,,,,,,,,,,,,,,,,,,,,,,,
,,5d96a61b5d0f1c00117201bd,2024-02-19_03h19.00.087,kallum_motion_pilot,2023.2.2,Win32,144.092219,5d96a61b5d0f1c00117201bd,65d2b6c8f2eece985d8e374c,65d2b9a3424f1685f09383fd,0.017,0.017,0,81,81,41,1,onethree,,,,,,,,,,,,,,,,,,,,,,,,,,,,,,,,,,,,,,,,,,,,,,,,,,,,,,,,,,,,,,,,,,,,,,,,,,,,,,,,,,,,,,,,,,,,,,,,,,,,,,,,,,,,,,,,,,,,,,,,,,,,,,,,,,,,,,,,,
,,5d96a61b5d0f1c00117201bd,2024-02-19_03h19.00.087,kallum_motion_pilot,2023.2.2,Win32,144.092219,5d96a61b5d0f1c00117201bd,65d2b6c8f2eece985d8e374c,65d2b9a3424f1685f09383fd,0.017,0.017,0,82,82,112,1,fivesix,,,,,,,,,,,,,,,,,,,,,,,,,,,,,,,,,,,,,,,,,,,,,,,,,,,,,,,,,,,,,,,,,,,,,,,,,,,,,,,,,,,,,,,,,,,,,,,,,,,,,,,,,,,,,,,,,,,,,,,,,,,,,,,,,,,,,,,,,
,,5d96a61b5d0f1c00117201bd,2024-02-19_03h19.00.087,kallum_motion_pilot,2023.2.2,Win32,144.092219,5d96a61b5d0f1c00117201bd,65d2b6c8f2eece985d8e374c,65d2b9a3424f1685f09383fd,0.017,0.017,0,83,83,120,1,fivesix,,,,,,,,,,,,,,,,,,,,,,,,,,,,,,,,,,,,,,,,,,,,,,,,,,,,,,,,,,,,,,,,,,,,,,,,,,,,,,,,,,,,,,,,,,,,,,,,,,,,,,,,,,,,,,,,,,,,,,,,,,,,,,,,,,,,,,,,,
,,5d96a61b5d0f1c00117201bd,2024-02-19_03h19.00.087,kallum_motion_pilot,2023.2.2,Win32,144.092219,5d96a61b5d0f1c00117201bd,65d2b6c8f2eece985d8e374c,65d2b9a3424f1685f09383fd,0.017,0.017,0,84,84,76,1,threeone,,,,,,,,,,,,,,,,,,,,,,,,,,,,,,,,,,,,,,,,,,,,,,,,,,,,,,,,,,,,,,,,,,,,,,,,,,,,,,,,,,,,,,,,,,,,,,,,,,,,,,,,,,,,,,,,,,,,,,,,,,,,,,,,,,,,,,,,,
,,5d96a61b5d0f1c00117201bd,2024-02-19_03h19.00.087,kallum_motion_pilot,2023.2.2,Win32,144.092219,5d96a61b5d0f1c00117201bd,65d2b6c8f2eece985d8e374c,65d2b9a3424f1685f09383fd,0.017,0.017,0,85,85,100,1,sevenfive,,,,,,,,,,,,,,,,,,,,,,,,,,,,,,,,,,,,,,,,,,,,,,,,,,,,,,,,,,,,,,,,,,,,,,,,,,,,,,,,,,,,,,,,,,,,,,,,,,,,,,,,,,,,,,,,,,,,,,,,,,,,,,,,,,,,,,,,,
,,5d96a61b5d0f1c00117201bd,2024-02-19_03h19.00.087,kallum_motion_pilot,2023.2.2,Win32,144.092219,5d96a61b5d0f1c00117201bd,65d2b6c8f2eece985d8e374c,65d2b9a3424f1685f09383fd,0.017,0.017,0,86,86,72,1,onetwo,,,,,,,,,,,,,,,,,,,,,,,,,,,,,,,,,,,,,,,,,,,,,,,,,,,,,,,,,,,,,,,,,,,,,,,,,,,,,,,,,,,,,,,,,,,,,,,,,,,,,,,,,,,,,,,,,,,,,,,,,,,,,,,,,,,,,,,,,
,,5d96a61b5d0f1c00117201bd,2024-02-19_03h19.00.087,kallum_motion_pilot,2023.2.2,Win32,144.092219,5d96a61b5d0f1c00117201bd,65d2b6c8f2eece985d8e374c,65d2b9a3424f1685f09383fd,0.017,0.017,0,87,87,32,1,onetwo,,,,,,,,,,,,,,,,,,,,,,,,,,,,,,,,,,,,,,,,,,,,,,,,,,,,,,,,,,,,,,,,,,,,,,,,,,,,,,,,,,,,,,,,,,,,,,,,,,,,,,,,,,,,,,,,,,,,,,,,,,,,,,,,,,,,,,,,,
,,5d96a61b5d0f1c00117201bd,2024-02-19_03h19.00.087,kallum_motion_pilot,2023.2.2,Win32,144.092219,5d96a61b5d0f1c00117201bd,65d2b6c8f2eece985d8e374c,65d2b9a3424f1685f09383fd,0.017,0.017,0,88,88,132,1,sevenfive,,,,,,,,,,,,,,,,,,,,,,,,,,,,,,,,,,,,,,,,,,,,,,,,,,,,,,,,,,,,,,,,,,,,,,,,,,,,,,,,,,,,,,,,,,,,,,,,,,,,,,,,,,,,,,,,,,,,,,,,,,,,,,,,,,,,,,,,,
,,5d96a61b5d0f1c00117201bd,2024-02-19_03h19.00.087,kallum_motion_pilot,2023.2.2,Win32,144.092219,5d96a61b5d0f1c00117201bd,65d2b6c8f2eece985d8e374c,65d2b9a3424f1685f09383fd,0.017,0.017,0,89,89,33,1,onethree,,,,,,,,,,,,,,,,,,,,,,,,,,,,,,,,,,,,,,,,,,,,,,,,,,,,,,,,,,,,,,,,,,,,,,,,,,,,,,,,,,,,,,,,,,,,,,,,,,,,,,,,,,,,,,,,,,,,,,,,,,,,,,,,,,,,,,,,,
,,5d96a61b5d0f1c00117201bd,2024-02-19_03h19.00.087,kallum_motion_pilot,2023.2.2,Win32,144.092219,5d96a61b5d0f1c00117201bd,65d2b6c8f2eece985d8e374c,65d2b9a3424f1685f09383fd,0.017,0.017,0,90,90,102,1,eightsix,,,,,,,,,,,,,,,,,,,,,,,,,,,,,,,,,,,,,,,,,,,,,,,,,,,,,,,,,,,,,,,,,,,,,,,,,,,,,,,,,,,,,,,,,,,,,,,,,,,,,,,,,,,,,,,,,,,,,,,,,,,,,,,,,,,,,,,,,
,,5d96a61b5d0f1c00117201bd,2024-02-19_03h19.00.087,kallum_motion_pilot,2023.2.2,Win32,144.092219,5d96a61b5d0f1c00117201bd,65d2b6c8f2eece985d8e374c,65d2b9a3424f1685f09383fd,0.017,0.017,0,91,91,121,1,fiveseven,,,,,,,,,,,,,,,,,,,,,,,,,,,,,,,,,,,,,,,,,,,,,,,,,,,,,,,,,,,,,,,,,,,,,,,,,,,,,,,,,,,,,,,,,,,,,,,,,,,,,,,,,,,,,,,,,,,,,,,,,,,,,,,,,,,,,,,,,
,,5d96a61b5d0f1c00117201bd,2024-02-19_03h19.00.087,kallum_motion_pilot,2023.2.2,Win32,144.092219,5d96a61b5d0f1c00117201bd,65d2b6c8f2eece985d8e374c,65d2b9a3424f1685f09383fd,0.017,0.017,0,92,92,104,1,fivesix,,,,,,,,,,,,,,,,,,,,,,,,,,,,,,,,,,,,,,,,,,,,,,,,,,,,,,,,,,,,,,,,,,,,,,,,,,,,,,,,,,,,,,,,,,,,,,,,,,,,,,,,,,,,,,,,,,,,,,,,,,,,,,,,,,,,,,,,,
,,5d96a61b5d0f1c00117201bd,2024-02-19_03h19.00.087,kallum_motion_pilot,2023.2.2,Win32,144.092219,5d96a61b5d0f1c00117201bd,65d2b6c8f2eece985d8e374c,65d2b9a3424f1685f09383fd,0.017,0.017,0,93,93,70,1,fourtwo,,,,,,,,,,,,,,,,,,,,,,,,,,,,,,,,,,,,,,,,,,,,,,,,,,,,,,,,,,,,,,,,,,,,,,,,,,,,,,,,,,,,,,,,,,,,,,,,,,,,,,,,,,,,,,,,,,,,,,,,,,,,,,,,,,,,,,,,,
,,5d96a61b5d0f1c00117201bd,2024-02-19_03h19.00.087,kallum_motion_pilot,2023.2.2,Win32,144.092219,5d96a61b5d0f1c00117201bd,65d2b6c8f2eece985d8e374c,65d2b9a3424f1685f09383fd,0.017,0.017,0,94,94,10,1,twoone,,,,,,,,,,,,,,,,,,,,,,,,,,,,,,,,,,,,,,,,,,,,,,,,,,,,,,,,,,,,,,,,,,,,,,,,,,,,,,,,,,,,,,,,,,,,,,,,,,,,,,,,,,,,,,,,,,,,,,,,,,,,,,,,,,,,,,,,,
,,5d96a61b5d0f1c00117201bd,2024-02-19_03h19.00.087,kallum_motion_pilot,2023.2.2,Win32,144.092219,5d96a61b5d0f1c00117201bd,65d2b6c8f2eece985d8e374c,65d2b9a3424f1685f09383fd,0.017,0.017,0,95,95,78,1,fourtwo,,,,,,,,,,,,,,,,,,,,,,,,,,,,,,,,,,,,,,,,,,,,,,,,,,,,,,,,,,,,,,,,,,,,,,,,,,,,,,,,,,,,,,,,,,,,,,,,,,,,,,,,,,,,,,,,,,,,,,,,,,,,,,,,,,,,,,,,,
,,5d96a61b5d0f1c00117201bd,2024-02-19_03h19.00.087,kallum_motion_pilot,2023.2.2,Win32,144.092219,5d96a61b5d0f1c00117201bd,65d2b6c8f2eece985d8e374c,65d2b9a3424f1685f09383fd,0.017,0.017,0,96,96,155,1,sixeight,,,,,,,,,,,,,,,,,,,,,,,,,,,,,,,,,,,,,,,,,,,,,,,,,,,,,,,,,,,,,,,,,,,,,,,,,,,,,,,,,,,,,,,,,,,,,,,,,,,,,,,,,,,,,,,,,,,,,,,,,,,,,,,,,,,,,,,,,
,,5d96a61b5d0f1c00117201bd,2024-02-19_03h19.00.087,kallum_motion_pilot,2023.2.2,Win32,144.092219,5d96a61b5d0f1c00117201bd,65d2b6c8f2eece985d8e374c,65d2b9a3424f1685f09383fd,0.017,0.017,0,97,97,86,1,eightsix,,,,,,,,,,,,,,,,,,,,,,,,,,,,,,,,,,,,,,,,,,,,,,,,,,,,,,,,,,,,,,,,,,,,,,,,,,,,,,,,,,,,,,,,,,,,,,,,,,,,,,,,,,,,,,,,,,,,,,,,,,,,,,,,,,,,,,,,,
,,5d96a61b5d0f1c00117201bd,2024-02-19_03h19.00.087,kallum_motion_pilot,2023.2.2,Win32,144.092219,5d96a61b5d0f1c00117201bd,65d2b6c8f2eece985d8e374c,65d2b9a3424f1685f09383fd,0.017,0.017,0,98,98,21,1,threefour,,,,,,,,,,,,,,,,,,,,,,,,,,,,,,,,,,,,,,,,,,,,,,,,,,,,,,,,,,,,,,,,,,,,,,,,,,,,,,,,,,,,,,,,,,,,,,,,,,,,,,,,,,,,,,,,,,,,,,,,,,,,,,,,,,,,,,,,,
,,5d96a61b5d0f1c00117201bd,2024-02-19_03h19.00.087,kallum_motion_pilot,2023.2.2,Win32,144.092219,5d96a61b5d0f1c00117201bd,65d2b6c8f2eece985d8e374c,65d2b9a3424f1685f09383fd,0.017,0.018,0,99,99,67,1,twofour,,,,,,,,,,,,,,,,,,,,,,,,,,,,,,,,,,,,,,,,,,,,,,,,,,,,,,,,,,,,,,,,,,,,,,,,,,,,,,,,,,,,,,,,,,,,,,,,,,,,,,,,,,,,,,,,,,,,,,,,,,,,,,,,,,,,,,,,,
,,5d96a61b5d0f1c00117201bd,2024-02-19_03h19.00.087,kallum_motion_pilot,2023.2.2,Win32,144.092219,5d96a61b5d0f1c00117201bd,65d2b6c8f2eece985d8e374c,65d2b9a3424f1685f09383fd,0.018,0.018,0,100,100,1,1,onethree,,,,,,,,,,,,,,,,,,,,,,,,,,,,,,,,,,,,,,,,,,,,,,,,,,,,,,,,,,,,,,,,,,,,,,,,,,,,,,,,,,,,,,,,,,,,,,,,,,,,,,,,,,,,,,,,,,,,,,,,,,,,,,,,,,,,,,,,,
,,5d96a61b5d0f1c00117201bd,2024-02-19_03h19.00.087,kallum_motion_pilot,2023.2.2,Win32,144.092219,5d96a61b5d0f1c00117201bd,65d2b6c8f2eece985d8e374c,65d2b9a3424f1685f09383fd,0.018,0.018,0,101,101,27,1,twofour,,,,,,,,,,,,,,,,,,,,,,,,,,,,,,,,,,,,,,,,,,,,,,,,,,,,,,,,,,,,,,,,,,,,,,,,,,,,,,,,,,,,,,,,,,,,,,,,,,,,,,,,,,,,,,,,,,,,,,,,,,,,,,,,,,,,,,,,,
,,5d96a61b5d0f1c00117201bd,2024-02-19_03h19.00.087,kallum_motion_pilot,2023.2.2,Win32,144.092219,5d96a61b5d0f1c00117201bd,65d2b6c8f2eece985d8e374c,65d2b9a3424f1685f09383fd,0.018,0.018,0,102,102,14,1,fourtwo,,,,,,,,,,,,,,,,,,,,,,,,,,,,,,,,,,,,,,,,,,,,,,,,,,,,,,,,,,,,,,,,,,,,,,,,,,,,,,,,,,,,,,,,,,,,,,,,,,,,,,,,,,,,,,,,,,,,,,,,,,,,,,,,,,,,,,,,,
,,5d96a61b5d0f1c00117201bd,2024-02-19_03h19.00.087,kallum_motion_pilot,2023.2.2,Win32,144.092219,5d96a61b5d0f1c00117201bd,65d2b6c8f2eece985d8e374c,65d2b9a3424f1685f09383fd,0.018,0.018,0,103,103,37,1,threefour,,,,,,,,,,,,,,,,,,,,,,,,,,,,,,,,,,,,,,,,,,,,,,,,,,,,,,,,,,,,,,,,,,,,,,,,,,,,,,,,,,,,,,,,,,,,,,,,,,,,,,,,,,,,,,,,,,,,,,,,,,,,,,,,,,,,,,,,,
,,5d96a61b5d0f1c00117201bd,2024-02-19_03h19.00.087,kallum_motion_pilot,2023.2.2,Win32,144.092219,5d96a61b5d0f1c00117201bd,65d2b6c8f2eece985d8e374c,65d2b9a3424f1685f09383fd,0.018,0.018,0,104,104,116,1,sevenfive,,,,,,,,,,,,,,,,,,,,,,,,,,,,,,,,,,,,,,,,,,,,,,,,,,,,,,,,,,,,,,,,,,,,,,,,,,,,,,,,,,,,,,,,,,,,,,,,,,,,,,,,,,,,,,,,,,,,,,,,,,,,,,,,,,,,,,,,,
,,5d96a61b5d0f1c00117201bd,2024-02-19_03h19.00.087,kallum_motion_pilot,2023.2.2,Win32,144.092219,5d96a61b5d0f1c00117201bd,65d2b6c8f2eece985d8e374c,65d2b9a3424f1685f09383fd,0.018,0.018,0,105,105,8,1,onetwo,,,,,,,,,,,,,,,,,,,,,,,,,,,,,,,,,,,,,,,,,,,,,,,,,,,,,,,,,,,,,,,,,,,,,,,,,,,,,,,,,,,,,,,,,,,,,,,,,,,,,,,,,,,,,,,,,,,,,,,,,,,,,,,,,,,,,,,,,
,,5d96a61b5d0f1c00117201bd,2024-02-19_03h19.00.087,kallum_motion_pilot,2023.2.2,Win32,144.092219,5d96a61b5d0f1c00117201bd,65d2b6c8f2eece985d8e374c,65d2b9a3424f1685f09383fd,0.018,0.018,0,106,106,54,1,fourtwo,,,,,,,,,,,,,,,,,,,,,,,,,,,,,,,,,,,,,,,,,,,,,,,,,,,,,,,,,,,,,,,,,,,,,,,,,,,,,,,,,,,,,,,,,,,,,,,,,,,,,,,,,,,,,,,,,,,,,,,,,,,,,,,,,,,,,,,,,
,,5d96a61b5d0f1c00117201bd,2024-02-19_03h19.00.087,kallum_motion_pilot,2023.2.2,Win32,144.092219,5d96a61b5d0f1c00117201bd,65d2b6c8f2eece985d8e374c,65d2b9a3424f1685f09383fd,0.018,0.018,0,107,107,75,1,twofour,,,,,,,,,,,,,,,,,,,,,,,,,,,,,,,,,,,,,,,,,,,,,,,,,,,,,,,,,,,,,,,,,,,,,,,,,,,,,,,,,,,,,,,,,,,,,,,,,,,,,,,,,,,,,,,,,,,,,,,,,,,,,,,,,,,,,,,,,
,,5d96a61b5d0f1c00117201bd,2024-02-19_03h19.00.087,kallum_motion_pilot,2023.2.2,Win32,144.092219,5d96a61b5d0f1c00117201bd,65d2b6c8f2eece985d8e374c,65d2b9a3424f1685f09383fd,0.018,0.018,0,108,108,80,1,fivesix,,,,,,,,,,,,,,,,,,,,,,,,,,,,,,,,,,,,,,,,,,,,,,,,,,,,,,,,,,,,,,,,,,,,,,,,,,,,,,,,,,,,,,,,,,,,,,,,,,,,,,,,,,,,,,,,,,,,,,,,,,,,,,,,,,,,,,,,,
,,5d96a61b5d0f1c00117201bd,2024-02-19_03h19.00.087,kallum_motion_pilot,2023.2.2,Win32,144.092219,5d96a61b5d0f1c00117201bd,65d2b6c8f2eece985d8e374c,65d2b9a3424f1685f09383fd,0.018,0.018,0,109,109,118,1,eightsix,,,,,,,,,,,,,,,,,,,,,,,,,,,,,,,,,,,,,,,,,,,,,,,,,,,,,,,,,,,,,,,,,,,,,,,,,,,,,,,,,,,,,,,,,,,,,,,,,,,,,,,,,,,,,,,,,,,,,,,,,,,,,,,,,,,,,,,,,
,,5d96a61b5d0f1c00117201bd,2024-02-19_03h19.00.087,kallum_motion_pilot,2023.2.2,Win32,144.092219,5d96a61b5d0f1c00117201bd,65d2b6c8f2eece985d8e374c,65d2b9a3424f1685f09383fd,0.018,0.018,0,110,110,107,1,sixeight,,,,,,,,,,,,,,,,,,,,,,,,,,,,,,,,,,,,,,,,,,,,,,,,,,,,,,,,,,,,,,,,,,,,,,,,,,,,,,,,,,,,,,,,,,,,,,,,,,,,,,,,,,,,,,,,,,,,,,,,,,,,,,,,,,,,,,,,,
,,5d96a61b5d0f1c00117201bd,2024-02-19_03h19.00.087,kallum_motion_pilot,2023.2.2,Win32,144.092219,5d96a61b5d0f1c00117201bd,65d2b6c8f2eece985d8e374c,65d2b9a3424f1685f09383fd,0.018,0.018,0,111,111,105,1,fiveseven,,,,,,,,,,,,,,,,,,,,,,,,,,,,,,,,,,,,,,,,,,,,,,,,,,,,,,,,,,,,,,,,,,,,,,,,,,,,,,,,,,,,,,,,,,,,,,,,,,,,,,,,,,,,,,,,,,,,,,,,,,,,,,,,,,,,,,,,,
,,5d96a61b5d0f1c00117201bd,2024-02-19_03h19.00.087,kallum_motion_pilot,2023.2.2,Win32,144.092219,5d96a61b5d0f1c00117201bd,65d2b6c8f2eece985d8e374c,65d2b9a3424f1685f09383fd,0.018,0.018,0,112,112,40,1,onetwo,,,,,,,,,,,,,,,,,,,,,,,,,,,,,,,,,,,,,,,,,,,,,,,,,,,,,,,,,,,,,,,,,,,,,,,,,,,,,,,,,,,,,,,,,,,,,,,,,,,,,,,,,,,,,,,,,,,,,,,,,,,,,,,,,,,,,,,,,
,,5d96a61b5d0f1c00117201bd,2024-02-19_03h19.00.087,kallum_motion_pilot,2023.2.2,Win32,144.092219,5d96a61b5d0f1c00117201bd,65d2b6c8f2eece985d8e374c,65d2b9a3424f1685f09383fd,0.018,0.018,0,113,113,145,1,fiveseven,,,,,,,,,,,,,,,,,,,,,,,,,,,,,,,,,,,,,,,,,,,,,,,,,,,,,,,,,,,,,,,,,,,,,,,,,,,,,,,,,,,,,,,,,,,,,,,,,,,,,,,,,,,,,,,,,,,,,,,,,,,,,,,,,,,,,,,,,
,,5d96a61b5d0f1c00117201bd,2024-02-19_03h19.00.087,kallum_motion_pilot,2023.2.2,Win32,144.092219,5d96a61b5d0f1c00117201bd,65d2b6c8f2eece985d8e374c,65d2b9a3424f1685f09383fd,0.018,0.018,0,114,114,24,1,onetwo,,,,,,,,,,,,,,,,,,,,,,,,,,,,,,,,,,,,,,,,,,,,,,,,,,,,,,,,,,,,,,,,,,,,,,,,,,,,,,,,,,,,,,,,,,,,,,,,,,,,,,,,,,,,,,,,,,,,,,,,,,,,,,,,,,,,,,,,,
,,5d96a61b5d0f1c00117201bd,2024-02-19_03h19.00.087,kallum_motion_pilot,2023.2.2,Win32,144.092219,5d96a61b5d0f1c00117201bd,65d2b6c8f2eece985d8e374c,65d2b9a3424f1685f09383fd,0.018,0.018,0,115,115,4,1,threeone,,,,,,,,,,,,,,,,,,,,,,,,,,,,,,,,,,,,,,,,,,,,,,,,,,,,,,,,,,,,,,,,,,,,,,,,,,,,,,,,,,,,,,,,,,,,,,,,,,,,,,,,,,,,,,,,,,,,,,,,,,,,,,,,,,,,,,,,,
,,5d96a61b5d0f1c00117201bd,2024-02-19_03h19.00.087,kallum_motion_pilot,2023.2.2,Win32,144.092219,5d96a61b5d0f1c00117201bd,65d2b6c8f2eece985d8e374c,65d2b9a3424f1685f09383fd,0.018,0.018,0,116,116,20,1,threeone,,,,,,,,,,,,,,,,,,,,,,,,,,,,,,,,,,,,,,,,,,,,,,,,,,,,,,,,,,,,,,,,,,,,,,,,,,,,,,,,,,,,,,,,,,,,,,,,,,,,,,,,,,,,,,,,,,,,,,,,,,,,,,,,,,,,,,,,,
,,5d96a61b5d0f1c00117201bd,2024-02-19_03h19.00.087,kallum_motion_pilot,2023.2.2,Win32,144.092219,5d96a61b5d0f1c00117201bd,65d2b6c8f2eece985d8e374c,65d2b9a3424f1685f09383fd,0.018,0.018,0,117,117,85,1,seveneight,,,,,,,,,,,,,,,,,,,,,,,,,,,,,,,,,,,,,,,,,,,,,,,,,,,,,,,,,,,,,,,,,,,,,,,,,,,,,,,,,,,,,,,,,,,,,,,,,,,,,,,,,,,,,,,,,,,,,,,,,,,,,,,,,,,,,,,,,
,,5d96a61b5d0f1c00117201bd,2024-02-19_03h19.00.087,kallum_motion_pilot,2023.2.2,Win32,144.092219,5d96a61b5d0f1c00117201bd,65d2b6c8f2eece985d8e374c,65d2b9a3424f1685f09383fd,0.018,0.018,0,118,118,57,1,onethree,,,,,,,,,,,,,,,,,,,,,,,,,,,,,,,,,,,,,,,,,,,,,,,,,,,,,,,,,,,,,,,,,,,,,,,,,,,,,,,,,,,,,,,,,,,,,,,,,,,,,,,,,,,,,,,,,,,,,,,,,,,,,,,,,,,,,,,,,
,,5d96a61b5d0f1c00117201bd,2024-02-19_03h19.00.087,kallum_motion_pilot,2023.2.2,Win32,144.092219,5d96a61b5d0f1c00117201bd,65d2b6c8f2eece985d8e374c,65d2b9a3424f1685f09383fd,0.018,0.018,0,119,119,149,1,seveneight,,,,,,,,,,,,,,,,,,,,,,,,,,,,,,,,,,,,,,,,,,,,,,,,,,,,,,,,,,,,,,,,,,,,,,,,,,,,,,,,,,,,,,,,,,,,,,,,,,,,,,,,,,,,,,,,,,,,,,,,,,,,,,,,,,,,,,,,,
,,5d96a61b5d0f1c00117201bd,2024-02-19_03h19.00.087,kallum_motion_pilot,2023.2.2,Win32,144.092219,5d96a61b5d0f1c00117201bd,65d2b6c8f2eece985d8e374c,65d2b9a3424f1685f09383fd,0.018,0.018,0,120,120,140,1,sevenfive,,,,,,,,,,,,,,,,,,,,,,,,,,,,,,,,,,,,,,,,,,,,,,,,,,,,,,,,,,,,,,,,,,,,,,,,,,,,,,,,,,,,,,,,,,,,,,,,,,,,,,,,,,,,,,,,,,,,,,,,,,,,,,,,,,,,,,,,,
,,5d96a61b5d0f1c00117201bd,2024-02-19_03h19.00.087,kallum_motion_pilot,2023.2.2,Win32,144.092219,5d96a61b5d0f1c00117201bd,65d2b6c8f2eece985d8e374c,65d2b9a3424f1685f09383fd,0.018,0.018,0,121,121,134,1,eightsix,,,,,,,,,,,,,,,,,,,,,,,,,,,,,,,,,,,,,,,,,,,,,,,,,,,,,,,,,,,,,,,,,,,,,,,,,,,,,,,,,,,,,,,,,,,,,,,,,,,,,,,,,,,,,,,,,,,,,,,,,,,,,,,,,,,,,,,,,
,,5d96a61b5d0f1c00117201bd,2024-02-19_03h19.00.087,kallum_motion_pilot,2023.2.2,Win32,144.092219,5d96a61b5d0f1c00117201bd,65d2b6c8f2eece985d8e374c,65d2b9a3424f1685f09383fd,0.018,0.018,0,122,122,97,1,fiveseven,,,,,,,,,,,,,,,,,,,,,,,,,,,,,,,,,,,,,,,,,,,,,,,,,,,,,,,,,,,,,,,,,,,,,,,,,,,,,,,,,,,,,,,,,,,,,,,,,,,,,,,,,,,,,,,,,,,,,,,,,,,,,,,,,,,,,,,,,
,,5d96a61b5d0f1c00117201bd,2024-02-19_03h19.00.087,kallum_motion_pilot,2023.2.2,Win32,144.092219,5d96a61b5d0f1c00117201bd,65d2b6c8f2eece985d8e374c,65d2b9a3424f1685f09383fd,0.018,0.018,0,123,123,79,1,eightseven,,,,,,,,,,,,,,,,,,,,,,,,,,,,,,,,,,,,,,,,,,,,,,,,,,,,,,,,,,,,,,,,,,,,,,,,,,,,,,,,,,,,,,,,,,,,,,,,,,,,,,,,,,,,,,,,,,,,,,,,,,,,,,,,,,,,,,,,,
,,5d96a61b5d0f1c00117201bd,2024-02-19_03h19.00.087,kallum_motion_pilot,2023.2.2,Win32,144.092219,5d96a61b5d0f1c00117201bd,65d2b6c8f2eece985d8e374c,65d2b9a3424f1685f09383fd,0.018,0.018,0,124,124,25,1,onethree,,,,,,,,,,,,,,,,,,,,,,,,,,,,,,,,,,,,,,,,,,,,,,,,,,,,,,,,,,,,,,,,,,,,,,,,,,,,,,,,,,,,,,,,,,,,,,,,,,,,,,,,,,,,,,,,,,,,,,,,,,,,,,,,,,,,,,,,,
,,5d96a61b5d0f1c00117201bd,2024-02-19_03h19.00.087,kallum_motion_pilot,2023.2.2,Win32,144.092219,5d96a61b5d0f1c00117201bd,65d2b6c8f2eece985d8e374c,65d2b9a3424f1685f09383fd,0.018,0.018,0,125,125,139,1,sixeight,,,,,,,,,,,,,,,,,,,,,,,,,,,,,,,,,,,,,,,,,,,,,,,,,,,,,,,,,,,,,,,,,,,,,,,,,,,,,,,,,,,,,,,,,,,,,,,,,,,,,,,,,,,,,,,,,,,,,,,,,,,,,,,,,,,,,,,,,
,,5d96a61b5d0f1c00117201bd,2024-02-19_03h19.00.087,kallum_motion_pilot,2023.2.2,Win32,144.092219,5d96a61b5d0f1c00117201bd,65d2b6c8f2eece985d8e374c,65d2b9a3424f1685f09383fd,0.018,0.018,0,126,126,83,1,sixeight,,,,,,,,,,,,,,,,,,,,,,,,,,,,,,,,,,,,,,,,,,,,,,,,,,,,,,,,,,,,,,,,,,,,,,,,,,,,,,,,,,,,,,,,,,,,,,,,,,,,,,,,,,,,,,,,,,,,,,,,,,,,,,,,,,,,,,,,,
,,5d96a61b5d0f1c00117201bd,2024-02-19_03h19.00.087,kallum_motion_pilot,2023.2.2,Win32,144.092219,5d96a61b5d0f1c00117201bd,65d2b6c8f2eece985d8e374c,65d2b9a3424f1685f09383fd,0.019,0.019,0,127,127,119,1,eightseven,,,,,,,,,,,,,,,,,,,,,,,,,,,,,,,,,,,,,,,,,,,,,,,,,,,,,,,,,,,,,,,,,,,,,,,,,,,,,,,,,,,,,,,,,,,,,,,,,,,,,,,,,,,,,,,,,,,,,,,,,,,,,,,,,,,,,,,,,
,,5d96a61b5d0f1c00117201bd,2024-02-19_03h19.00.087,kallum_motion_pilot,2023.2.2,Win32,144.092219,5d96a61b5d0f1c00117201bd,65d2b6c8f2eece985d8e374c,65d2b9a3424f1685f09383fd,0.019,0.019,0,128,128,2,1,twoone,,,,,,,,,,,,,,,,,,,,,,,,,,,,,,,,,,,,,,,,,,,,,,,,,,,,,,,,,,,,,,,,,,,,,,,,,,,,,,,,,,,,,,,,,,,,,,,,,,,,,,,,,,,,,,,,,,,,,,,,,,,,,,,,,,,,,,,,,
,,5d96a61b5d0f1c00117201bd,2024-02-19_03h19.00.087,kallum_motion_pilot,2023.2.2,Win32,144.092219,5d96a61b5d0f1c00117201bd,65d2b6c8f2eece985d8e374c,65d2b9a3424f1685f09383fd,0.019,0.019,0,129,129,96,1,fivesix,,,,,,,,,,,,,,,,,,,,,,,,,,,,,,,,,,,,,,,,,,,,,,,,,,,,,,,,,,,,,,,,,,,,,,,,,,,,,,,,,,,,,,,,,,,,,,,,,,,,,,,,,,,,,,,,,,,,,,,,,,,,,,,,,,,,,,,,,
,,5d96a61b5d0f1c00117201bd,2024-02-19_03h19.00.087,kallum_motion_pilot,2023.2.2,Win32,144.092219,5d96a61b5d0f1c00117201bd,65d2b6c8f2eece985d8e374c,65d2b9a3424f1685f09383fd,0.019,0.019,0,130,130,42,1,twoone,,,,,,,,,,,,,,,,,,,,,,,,,,,,,,,,,,,,,,,,,,,,,,,,,,,,,,,,,,,,,,,,,,,,,,,,,,,,,,,,,,,,,,,,,,,,,,,,,,,,,,,,,,,,,,,,,,,,,,,,,,,,,,,,,,,,,,,,,
,,5d96a61b5d0f1c00117201bd,2024-02-19_03h19.00.087,kallum_motion_pilot,2023.2.2,Win32,144.092219,5d96a61b5d0f1c00117201bd,65d2b6c8f2eece985d8e374c,65d2b9a3424f1685f09383fd,0.019,0.019,0,131,131,131,1,sixeight,,,,,,,,,,,,,,,,,,,,,,,,,,,,,,,,,,,,,,,,,,,,,,,,,,,,,,,,,,,,,,,,,,,,,,,,,,,,,,,,,,,,,,,,,,,,,,,,,,,,,,,,,,,,,,,,,,,,,,,,,,,,,,,,,,,,,,,,,
,,5d96a61b5d0f1c00117201bd,2024-02-19_03h19.00.087,kallum_motion_pilot,2023.2.2,Win32,144.092219,5d96a61b5d0f1c00117201bd,65d2b6c8f2eece985d8e374c,65d2b9a3424f1685f09383fd,0.019,0.019,0,132,132,50,1,twoone,,,,,,,,,,,,,,,,,,,,,,,,,,,,,,,,,,,,,,,,,,,,,,,,,,,,,,,,,,,,,,,,,,,,,,,,,,,,,,,,,,,,,,,,,,,,,,,,,,,,,,,,,,,,,,,,,,,,,,,,,,,,,,,,,,,,,,,,,
,,5d96a61b5d0f1c00117201bd,2024-02-19_03h19.00.087,kallum_motion_pilot,2023.2.2,Win32,144.092219,5d96a61b5d0f1c00117201bd,65d2b6c8f2eece985d8e374c,65d2b9a3424f1685f09383fd,0.019,0.019,0,133,133,52,1,threeone,,,,,,,,,,,,,,,,,,,,,,,,,,,,,,,,,,,,,,,,,,,,,,,,,,,,,,,,,,,,,,,,,,,,,,,,,,,,,,,,,,,,,,,,,,,,,,,,,,,,,,,,,,,,,,,,,,,,,,,,,,,,,,,,,,,,,,,,,
,,5d96a61b5d0f1c00117201bd,2024-02-19_03h19.00.087,kallum_motion_pilot,2023.2.2,Win32,144.092219,5d96a61b5d0f1c00117201bd,65d2b6c8f2eece985d8e374c,65d2b9a3424f1685f09383fd,0.019,0.019,0,134,134,60,1,threeone,,,,,,,,,,,,,,,,,,,,,,,,,,,,,,,,,,,,,,,,,,,,,,,,,,,,,,,,,,,,,,,,,,,,,,,,,,,,,,,,,,,,,,,,,,,,,,,,,,,,,,,,,,,,,,,,,,,,,,,,,,,,,,,,,,,,,,,,,
,,5d96a61b5d0f1c00117201bd,2024-02-19_03h19.00.087,kallum_motion_pilot,2023.2.2,Win32,144.092219,5d96a61b5d0f1c00117201bd,65d2b6c8f2eece985d8e374c,65d2b9a3424f1685f09383fd,0.019,0.019,0,135,135,74,1,twoone,,,,,,,,,,,,,,,,,,,,,,,,,,,,,,,,,,,,,,,,,,,,,,,,,,,,,,,,,,,,,,,,,,,,,,,,,,,,,,,,,,,,,,,,,,,,,,,,,,,,,,,,,,,,,,,,,,,,,,,,,,,,,,,,,,,,,,,,,
,,5d96a61b5d0f1c00117201bd,2024-02-19_03h19.00.087,kallum_motion_pilot,2023.2.2,Win32,144.092219,5d96a61b5d0f1c00117201bd,65d2b6c8f2eece985d8e374c,65d2b9a3424f1685f09383fd,0.019,0.019,0,136,136,0,1,onetwo,,,,,,,,,,,,,,,,,,,,,,,,,,,,,,,,,,,,,,,,,,,,,,,,,,,,,,,,,,,,,,,,,,,,,,,,,,,,,,,,,,,,,,,,,,,,,,,,,,,,,,,,,,,,,,,,,,,,,,,,,,,,,,,,,,,,,,,,,
,,5d96a61b5d0f1c00117201bd,2024-02-19_03h19.00.087,kallum_motion_pilot,2023.2.2,Win32,144.092219,5d96a61b5d0f1c00117201bd,65d2b6c8f2eece985d8e374c,65d2b9a3424f1685f09383fd,0.019,0.019,0,137,137,89,1,fiveseven,,,,,,,,,,,,,,,,,,,,,,,,,,,,,,,,,,,,,,,,,,,,,,,,,,,,,,,,,,,,,,,,,,,,,,,,,,,,,,,,,,,,,,,,,,,,,,,,,,,,,,,,,,,,,,,,,,,,,,,,,,,,,,,,,,,,,,,,,
,,5d96a61b5d0f1c00117201bd,2024-02-19_03h19.00.087,kallum_motion_pilot,2023.2.2,Win32,144.092219,5d96a61b5d0f1c00117201bd,65d2b6c8f2eece985d8e374c,65d2b9a3424f1685f09383fd,0.019,0.019,0,138,138,106,1,sixfive,,,,,,,,,,,,,,,,,,,,,,,,,,,,,,,,,,,,,,,,,,,,,,,,,,,,,,,,,,,,,,,,,,,,,,,,,,,,,,,,,,,,,,,,,,,,,,,,,,,,,,,,,,,,,,,,,,,,,,,,,,,,,,,,,,,,,,,,,
,,5d96a61b5d0f1c00117201bd,2024-02-19_03h19.00.087,kallum_motion_pilot,2023.2.2,Win32,144.092219,5d96a61b5d0f1c00117201bd,65d2b6c8f2eece985d8e374c,65d2b9a3424f1685f09383fd,0.019,0.019,0,139,139,109,1,seveneight,,,,,,,,,,,,,,,,,,,,,,,,,,,,,,,,,,,,,,,,,,,,,,,,,,,,,,,,,,,,,,,,,,,,,,,,,,,,,,,,,,,,,,,,,,,,,,,,,,,,,,,,,,,,,,,,,,,,,,,,,,,,,,,,,,,,,,,,,
,,5d96a61b5d0f1c00117201bd,2024-02-19_03h19.00.087,kallum_motion_pilot,2023.2.2,Win32,144.092219,5d96a61b5d0f1c00117201bd,65d2b6c8f2eece985d8e374c,65d2b9a3424f1685f09383fd,0.019,0.019,0,140,140,29,1,threefour,,,,,,,,,,,,,,,,,,,,,,,,,,,,,,,,,,,,,,,,,,,,,,,,,,,,,,,,,,,,,,,,,,,,,,,,,,,,,,,,,,,,,,,,,,,,,,,,,,,,,,,,,,,,,,,,,,,,,,,,,,,,,,,,,,,,,,,,,
,,5d96a61b5d0f1c00117201bd,2024-02-19_03h19.00.087,kallum_motion_pilot,2023.2.2,Win32,144.092219,5d96a61b5d0f1c00117201bd,65d2b6c8f2eece985d8e374c,65d2b9a3424f1685f09383fd,0.019,0.019,0,141,141,30,1,fourtwo,,,,,,,,,,,,,,,,,,,,,,,,,,,,,,,,,,,,,,,,,,,,,,,,,,,,,,,,,,,,,,,,,,,,,,,,,,,,,,,,,,,,,,,,,,,,,,,,,,,,,,,,,,,,,,,,,,,,,,,,,,,,,,,,,,,,,,,,,
,,5d96a61b5d0f1c00117201bd,2024-02-19_03h19.00.087,kallum_motion_pilot,2023.2.2,Win32,144.092219,5d96a61b5d0f1c00117201bd,65d2b6c8f2eece985d8e374c,65d2b9a3424f1685f09383fd,0.019,0.019,0,142,142,147,1,sixeight,,,,,,,,,,,,,,,,,,,,,,,,,,,,,,,,,,,,,,,,,,,,,,,,,,,,,,,,,,,,,,,,,,,,,,,,,,,,,,,,,,,,,,,,,,,,,,,,,,,,,,,,,,,,,,,,,,,,,,,,,,,,,,,,,,,,,,,,,
,,5d96a61b5d0f1c00117201bd,2024-02-19_03h19.00.087,kallum_motion_pilot,2023.2.2,Win32,144.092219,5d96a61b5d0f1c00117201bd,65d2b6c8f2eece985d8e374c,65d2b9a3424f1685f09383fd,0.019,0.019,0,143,143,13,1,threefour,,,,,,,,,,,,,,,,,,,,,,,,,,,,,,,,,,,,,,,,,,,,,,,,,,,,,,,,,,,,,,,,,,,,,,,,,,,,,,,,,,,,,,,,,,,,,,,,,,,,,,,,,,,,,,,,,,,,,,,,,,,,,,,,,,,,,,,,,
,,5d96a61b5d0f1c00117201bd,2024-02-19_03h19.00.087,kallum_motion_pilot,2023.2.2,Win32,144.092219,5d96a61b5d0f1c00117201bd,65d2b6c8f2eece985d8e374c,65d2b9a3424f1685f09383fd,0.019,0.019,0,144,144,77,1,threefour,,,,,,,,,,,,,,,,,,,,,,,,,,,,,,,,,,,,,,,,,,,,,,,,,,,,,,,,,,,,,,,,,,,,,,,,,,,,,,,,,,,,,,,,,,,,,,,,,,,,,,,,,,,,,,,,,,,,,,,,,,,,,,,,,,,,,,,,,
,,5d96a61b5d0f1c00117201bd,2024-02-19_03h19.00.087,kallum_motion_pilot,2023.2.2,Win32,144.092219,5d96a61b5d0f1c00117201bd,65d2b6c8f2eece985d8e374c,65d2b9a3424f1685f09383fd,0.019,0.019,0,145,145,81,1,fiveseven,,,,,,,,,,,,,,,,,,,,,,,,,,,,,,,,,,,,,,,,,,,,,,,,,,,,,,,,,,,,,,,,,,,,,,,,,,,,,,,,,,,,,,,,,,,,,,,,,,,,,,,,,,,,,,,,,,,,,,,,,,,,,,,,,,,,,,,,,
,,5d96a61b5d0f1c00117201bd,2024-02-19_03h19.00.087,kallum_motion_pilot,2023.2.2,Win32,144.092219,5d96a61b5d0f1c00117201bd,65d2b6c8f2eece985d8e374c,65d2b9a3424f1685f09383fd,0.019,0.02,0,146,146,6,1,fourtwo,,,,,,,,,,,,,,,,,,,,,,,,,,,,,,,,,,,,,,,,,,,,,,,,,,,,,,,,,,,,,,,,,,,,,,,,,,,,,,,,,,,,,,,,,,,,,,,,,,,,,,,,,,,,,,,,,,,,,,,,,,,,,,,,,,,,,,,,,
,,5d96a61b5d0f1c00117201bd,2024-02-19_03h19.00.087,kallum_motion_pilot,2023.2.2,Win32,144.092219,5d96a61b5d0f1c00117201bd,65d2b6c8f2eece985d8e374c,65d2b9a3424f1685f09383fd,0.02,0.02,0,147,147,23,1,fourthree,,,,,,,,,,,,,,,,,,,,,,,,,,,,,,,,,,,,,,,,,,,,,,,,,,,,,,,,,,,,,,,,,,,,,,,,,,,,,,,,,,,,,,,,,,,,,,,,,,,,,,,,,,,,,,,,,,,,,,,,,,,,,,,,,,,,,,,,,
,,5d96a61b5d0f1c00117201bd,2024-02-19_03h19.00.087,kallum_motion_pilot,2023.2.2,Win32,144.092219,5d96a61b5d0f1c00117201bd,65d2b6c8f2eece985d8e374c,65d2b9a3424f1685f09383fd,0.02,0.02,0,148,148,108,1,sevenfive,,,,,,,,,,,,,,,,,,,,,,,,,,,,,,,,,,,,,,,,,,,,,,,,,,,,,,,,,,,,,,,,,,,,,,,,,,,,,,,,,,,,,,,,,,,,,,,,,,,,,,,,,,,,,,,,,,,,,,,,,,,,,,,,,,,,,,,,,
,,5d96a61b5d0f1c00117201bd,2024-02-19_03h19.00.087,kallum_motion_pilot,2023.2.2,Win32,144.092219,5d96a61b5d0f1c00117201bd,65d2b6c8f2eece985d8e374c,65d2b9a3424f1685f09383fd,0.02,0.02,0,149,149,126,1,eightsix,,,,,,,,,,,,,,,,,,,,,,,,,,,,,,,,,,,,,,,,,,,,,,,,,,,,,,,,,,,,,,,,,,,,,,,,,,,,,,,,,,,,,,,,,,,,,,,,,,,,,,,,,,,,,,,,,,,,,,,,,,,,,,,,,,,,,,,,,
,,5d96a61b5d0f1c00117201bd,2024-02-19_03h19.00.087,kallum_motion_pilot,2023.2.2,Win32,144.092219,5d96a61b5d0f1c00117201bd,65d2b6c8f2eece985d8e374c,65d2b9a3424f1685f09383fd,0.02,0.02,0,150,150,45,1,threefour,,,,,,,,,,,,,,,,,,,,,,,,,,,,,,,,,,,,,,,,,,,,,,,,,,,,,,,,,,,,,,,,,,,,,,,,,,,,,,,,,,,,,,,,,,,,,,,,,,,,,,,,,,,,,,,,,,,,,,,,,,,,,,,,,,,,,,,,,
,,5d96a61b5d0f1c00117201bd,2024-02-19_03h19.00.087,kallum_motion_pilot,2023.2.2,Win32,144.092219,5d96a61b5d0f1c00117201bd,65d2b6c8f2eece985d8e374c,65d2b9a3424f1685f09383fd,0.02,0.02,0,151,151,146,1,sixfive,,,,,,,,,,,,,,,,,,,,,,,,,,,,,,,,,,,,,,,,,,,,,,,,,,,,,,,,,,,,,,,,,,,,,,,,,,,,,,,,,,,,,,,,,,,,,,,,,,,,,,,,,,,,,,,,,,,,,,,,,,,,,,,,,,,,,,,,,
,,5d96a61b5d0f1c00117201bd,2024-02-19_03h19.00.087,kallum_motion_pilot,2023.2.2,Win32,144.092219,5d96a61b5d0f1c00117201bd,65d2b6c8f2eece985d8e374c,65d2b9a3424f1685f09383fd,0.02,0.02,0,152,152,73,1,onethree,,,,,,,,,,,,,,,,,,,,,,,,,,,,,,,,,,,,,,,,,,,,,,,,,,,,,,,,,,,,,,,,,,,,,,,,,,,,,,,,,,,,,,,,,,,,,,,,,,,,,,,,,,,,,,,,,,,,,,,,,,,,,,,,,,,,,,,,,
,,5d96a61b5d0f1c00117201bd,2024-02-19_03h19.00.087,kallum_motion_pilot,2023.2.2,Win32,144.092219,5d96a61b5d0f1c00117201bd,65d2b6c8f2eece985d8e374c,65d2b9a3424f1685f09383fd,0.02,0.02,0,153,153,59,1,twofour,,,,,,,,,,,,,,,,,,,,,,,,,,,,,,,,,,,,,,,,,,,,,,,,,,,,,,,,,,,,,,,,,,,,,,,,,,,,,,,,,,,,,,,,,,,,,,,,,,,,,,,,,,,,,,,,,,,,,,,,,,,,,,,,,,,,,,,,,
,,5d96a61b5d0f1c00117201bd,2024-02-19_03h19.00.087,kallum_motion_pilot,2023.2.2,Win32,144.092219,5d96a61b5d0f1c00117201bd,65d2b6c8f2eece985d8e374c,65d2b9a3424f1685f09383fd,0.02,0.02,0,154,154,88,1,fivesix,,,,,,,,,,,,,,,,,,,,,,,,,,,,,,,,,,,,,,,,,,,,,,,,,,,,,,,,,,,,,,,,,,,,,,,,,,,,,,,,,,,,,,,,,,,,,,,,,,,,,,,,,,,,,,,,,,,,,,,,,,,,,,,,,,,,,,,,,
,,5d96a61b5d0f1c00117201bd,2024-02-19_03h19.00.087,kallum_motion_pilot,2023.2.2,Win32,144.092219,5d96a61b5d0f1c00117201bd,65d2b6c8f2eece985d8e374c,65d2b9a3424f1685f09383fd,0.02,0.02,0,155,155,124,1,sevenfive,,,,,,,,,,,,,,,,,,,,,,,,,,,,,,,,,,,,,,,,,,,,,,,,,,,,,,,,,,,,,,,,,,,,,,,,,,,,,,,,,,,,,,,,,,,,,,,,,,,,,,,,,,,,,,,,,,,,,,,,,,,,,,,,,,,,,,,,,
,,5d96a61b5d0f1c00117201bd,2024-02-19_03h19.00.087,kallum_motion_pilot,2023.2.2,Win32,144.092219,5d96a61b5d0f1c00117201bd,65d2b6c8f2eece985d8e374c,65d2b9a3424f1685f09383fd,0.02,0.02,0,156,156,153,1,fiveseven,,,,,,,,,,,,,,,,,,,,,,,,,,,,,,,,,,,,,,,,,,,,,,,,,,,,,,,,,,,,,,,,,,,,,,,,,,,,,,,,,,,,,,,,,,,,,,,,,,,,,,,,,,,,,,,,,,,,,,,,,,,,,,,,,,,,,,,,,
,,5d96a61b5d0f1c00117201bd,2024-02-19_03h19.00.087,kallum_motion_pilot,2023.2.2,Win32,144.092219,5d96a61b5d0f1c00117201bd,65d2b6c8f2eece985d8e374c,65d2b9a3424f1685f09383fd,0.02,0.021,0,157,157,26,1,twoone,,,,,,,,,,,,,,,,,,,,,,,,,,,,,,,,,,,,,,,,,,,,,,,,,,,,,,,,,,,,,,,,,,,,,,,,,,,,,,,,,,,,,,,,,,,,,,,,,,,,,,,,,,,,,,,,,,,,,,,,,,,,,,,,,,,,,,,,,
,,5d96a61b5d0f1c00117201bd,2024-02-19_03h19.00.087,kallum_motion_pilot,2023.2.2,Win32,144.092219,5d96a61b5d0f1c00117201bd,65d2b6c8f2eece985d8e374c,65d2b9a3424f1685f09383fd,0.021,0.021,0,158,158,151,1,eightseven,,,,,,,,,,,,,,,,,,,,,,,,,,,,,,,,,,,,,,,,,,,,,,,,,,,,,,,,,,,,,,,,,,,,,,,,,,,,,,,,,,,,,,,,,,,,,,,,,,,,,,,,,,,,,,,,,,,,,,,,,,,,,,,,,,,,,,,,,
,,5d96a61b5d0f1c00117201bd,2024-02-19_03h19.00.087,kallum_motion_pilot,2023.2.2,Win32,144.092219,5d96a61b5d0f1c00117201bd,65d2b6c8f2eece985d8e374c,65d2b9a3424f1685f09383fd,0.021,0.021,0,159,159,128,1,fivesix,,,,,,,,,,,,,,,,,,,,,,,,,,,,,,,,,,,,,,,,,,,,,,,,,,,,,,,,,,,,,,,,,,,,,,,,,,,,,,,,,,,,,,,,,,,,,,,,,,,,,,,,,,,,,,,,,,,,,,,,,,,,,,,,,,,,,,,,,
,,5d96a61b5d0f1c00117201bd,2024-02-19_03h19.00.087,kallum_motion_pilot,2023.2.2,Win32,144.092219,5d96a61b5d0f1c00117201bd,65d2b6c8f2eece985d8e374c,65d2b9a3424f1685f09383fd,0.021,0.021,0,160,160,58,1,twoone,,,,,,,,,,,,,,,,,,,,,,,,,,,,,,,,,,,,,,,,,,,,,,,,,,,,,,,,,,,,,,,,,,,,,,,,,,,,,,,,,,,,,,,,,,,,,,,,,,,,,,,,,,,,,,,,,,,,,,,,,,,,,,,,,,,,,,,,,
,,5d96a61b5d0f1c00117201bd,2024-02-19_03h19.00.087,kallum_motion_pilot,2023.2.2,Win32,144.092219,5d96a61b5d0f1c00117201bd,65d2b6c8f2eece985d8e374c,65d2b9a3424f1685f09383fd,0.021,0.021,0,161,161,141,1,seveneight,,,,,,,,,,,,,,,,,,,,,,,,,,,,,,,,,,,,,,,,,,,,,,,,,,,,,,,,,,,,,,,,,,,,,,,,,,,,,,,,,,,,,,,,,,,,,,,,,,,,,,,,,,,,,,,,,,,,,,,,,,,,,,,,,,,,,,,,,
,,5d96a61b5d0f1c00117201bd,2024-02-19_03h19.00.087,kallum_motion_pilot,2023.2.2,Win32,144.092219,5d96a61b5d0f1c00117201bd,65d2b6c8f2eece985d8e374c,65d2b9a3424f1685f09383fd,0.021,0.021,1,0,162,97,1,fiveseven,,,,,,,,,,,,,,,,,,,,,,,,,,,,,,,,,,,,,,,,,,,,,,,,,,,,,,,,,,,,,,,,,,,,,,,,,,,,,,,,,,,,,,,,,,,,,,,,,,,,,,,,,,,,,,,,,,,,,,,,,,,,,,,,,,,,,,,,,
,,5d96a61b5d0f1c00117201bd,2024-02-19_03h19.00.087,kallum_motion_pilot,2023.2.2,Win32,144.092219,5d96a61b5d0f1c00117201bd,65d2b6c8f2eece985d8e374c,65d2b9a3424f1685f09383fd,0.021,0.021,1,1,163,82,1,sixfive,,,,,,,,,,,,,,,,,,,,,,,,,,,,,,,,,,,,,,,,,,,,,,,,,,,,,,,,,,,,,,,,,,,,,,,,,,,,,,,,,,,,,,,,,,,,,,,,,,,,,,,,,,,,,,,,,,,,,,,,,,,,,,,,,,,,,,,,,
,,5d96a61b5d0f1c00117201bd,2024-02-19_03h19.00.087,kallum_motion_pilot,2023.2.2,Win32,144.092219,5d96a61b5d0f1c00117201bd,65d2b6c8f2eece985d8e374c,65d2b9a3424f1685f09383fd,0.021,0.021,1,2,164,79,1,eightseven,,,,,,,,,,,,,,,,,,,,,,,,,,,,,,,,,,,,,,,,,,,,,,,,,,,,,,,,,,,,,,,,,,,,,,,,,,,,,,,,,,,,,,,,,,,,,,,,,,,,,,,,,,,,,,,,,,,,,,,,,,,,,,,,,,,,,,,,,
,,5d96a61b5d0f1c00117201bd,2024-02-19_03h19.00.087,kallum_motion_pilot,2023.2.2,Win32,144.092219,5d96a61b5d0f1c00117201bd,65d2b6c8f2eece985d8e374c,65d2b9a3424f1685f09383fd,0.021,0.021,1,3,165,95,1,eightseven,,,,,,,,,,,,,,,,,,,,,,,,,,,,,,,,,,,,,,,,,,,,,,,,,,,,,,,,,,,,,,,,,,,,,,,,,,,,,,,,,,,,,,,,,,,,,,,,,,,,,,,,,,,,,,,,,,,,,,,,,,,,,,,,,,,,,,,,,
,,5d96a61b5d0f1c00117201bd,2024-02-19_03h19.00.087,kallum_motion_pilot,2023.2.2,Win32,144.092219,5d96a61b5d0f1c00117201bd,65d2b6c8f2eece985d8e374c,65d2b9a3424f1685f09383fd,0.021,0.021,1,4,166,78,1,fourtwo,,,,,,,,,,,,,,,,,,,,,,,,,,,,,,,,,,,,,,,,,,,,,,,,,,,,,,,,,,,,,,,,,,,,,,,,,,,,,,,,,,,,,,,,,,,,,,,,,,,,,,,,,,,,,,,,,,,,,,,,,,,,,,,,,,,,,,,,,
,,5d96a61b5d0f1c00117201bd,2024-02-19_03h19.00.087,kallum_motion_pilot,2023.2.2,Win32,144.092219,5d96a61b5d0f1c00117201bd,65d2b6c8f2eece985d8e374c,65d2b9a3424f1685f09383fd,0.021,0.021,1,5,167,6,1,fourtwo,,,,,,,,,,,,,,,,,,,,,,,,,,,,,,,,,,,,,,,,,,,,,,,,,,,,,,,,,,,,,,,,,,,,,,,,,,,,,,,,,,,,,,,,,,,,,,,,,,,,,,,,,,,,,,,,,,,,,,,,,,,,,,,,,,,,,,,,,
,,5d96a61b5d0f1c00117201bd,2024-02-19_03h19.00.087,kallum_motion_pilot,2023.2.2,Win32,144.092219,5d96a61b5d0f1c00117201bd,65d2b6c8f2eece985d8e374c,65d2b9a3424f1685f09383fd,0.021,0.021,1,6,168,40,1,onetwo,,,,,,,,,,,,,,,,,,,,,,,,,,,,,,,,,,,,,,,,,,,,,,,,,,,,,,,,,,,,,,,,,,,,,,,,,,,,,,,,,,,,,,,,,,,,,,,,,,,,,,,,,,,,,,,,,,,,,,,,,,,,,,,,,,,,,,,,,
,,5d96a61b5d0f1c00117201bd,2024-02-19_03h19.00.087,kallum_motion_pilot,2023.2.2,Win32,144.092219,5d96a61b5d0f1c00117201bd,65d2b6c8f2eece985d8e374c,65d2b9a3424f1685f09383fd,0.021,0.021,1,7,169,153,1,fiveseven,,,,,,,,,,,,,,,,,,,,,,,,,,,,,,,,,,,,,,,,,,,,,,,,,,,,,,,,,,,,,,,,,,,,,,,,,,,,,,,,,,,,,,,,,,,,,,,,,,,,,,,,,,,,,,,,,,,,,,,,,,,,,,,,,,,,,,,,,
,,5d96a61b5d0f1c00117201bd,2024-02-19_03h19.00.087,kallum_motion_pilot,2023.2.2,Win32,144.092219,5d96a61b5d0f1c00117201bd,65d2b6c8f2eece985d8e374c,65d2b9a3424f1685f09383fd,0.021,0.021,1,8,170,116,1,sevenfive,,,,,,,,,,,,,,,,,,,,,,,,,,,,,,,,,,,,,,,,,,,,,,,,,,,,,,,,,,,,,,,,,,,,,,,,,,,,,,,,,,,,,,,,,,,,,,,,,,,,,,,,,,,,,,,,,,,,,,,,,,,,,,,,,,,,,,,,,
,,5d96a61b5d0f1c00117201bd,2024-02-19_03h19.00.087,kallum_motion_pilot,2023.2.2,Win32,144.092219,5d96a61b5d0f1c00117201bd,65d2b6c8f2eece985d8e374c,65d2b9a3424f1685f09383fd,0.021,0.021,1,9,171,80,1,fivesix,,,,,,,,,,,,,,,,,,,,,,,,,,,,,,,,,,,,,,,,,,,,,,,,,,,,,,,,,,,,,,,,,,,,,,,,,,,,,,,,,,,,,,,,,,,,,,,,,,,,,,,,,,,,,,,,,,,,,,,,,,,,,,,,,,,,,,,,,
,,5d96a61b5d0f1c00117201bd,2024-02-19_03h19.00.087,kallum_motion_pilot,2023.2.2,Win32,144.092219,5d96a61b5d0f1c00117201bd,65d2b6c8f2eece985d8e374c,65d2b9a3424f1685f09383fd,0.021,0.021,1,10,172,160,1,fivesix,,,,,,,,,,,,,,,,,,,,,,,,,,,,,,,,,,,,,,,,,,,,,,,,,,,,,,,,,,,,,,,,,,,,,,,,,,,,,,,,,,,,,,,,,,,,,,,,,,,,,,,,,,,,,,,,,,,,,,,,,,,,,,,,,,,,,,,,,
,,5d96a61b5d0f1c00117201bd,2024-02-19_03h19.00.087,kallum_motion_pilot,2023.2.2,Win32,144.092219,5d96a61b5d0f1c00117201bd,65d2b6c8f2eece985d8e374c,65d2b9a3424f1685f09383fd,0.021,0.021,1,11,173,55,1,fourthree,,,,,,,,,,,,,,,,,,,,,,,,,,,,,,,,,,,,,,,,,,,,,,,,,,,,,,,,,,,,,,,,,,,,,,,,,,,,,,,,,,,,,,,,,,,,,,,,,,,,,,,,,,,,,,,,,,,,,,,,,,,,,,,,,,,,,,,,,
,,5d96a61b5d0f1c00117201bd,2024-02-19_03h19.00.087,kallum_motion_pilot,2023.2.2,Win32,144.092219,5d96a61b5d0f1c00117201bd,65d2b6c8f2eece985d8e374c,65d2b9a3424f1685f09383fd,0.021,0.021,1,12,174,64,1,onetwo,,,,,,,,,,,,,,,,,,,,,,,,,,,,,,,,,,,,,,,,,,,,,,,,,,,,,,,,,,,,,,,,,,,,,,,,,,,,,,,,,,,,,,,,,,,,,,,,,,,,,,,,,,,,,,,,,,,,,,,,,,,,,,,,,,,,,,,,,
,,5d96a61b5d0f1c00117201bd,2024-02-19_03h19.00.087,kallum_motion_pilot,2023.2.2,Win32,144.092219,5d96a61b5d0f1c00117201bd,65d2b6c8f2eece985d8e374c,65d2b9a3424f1685f09383fd,0.021,0.021,1,13,175,50,1,twoone,,,,,,,,,,,,,,,,,,,,,,,,,,,,,,,,,,,,,,,,,,,,,,,,,,,,,,,,,,,,,,,,,,,,,,,,,,,,,,,,,,,,,,,,,,,,,,,,,,,,,,,,,,,,,,,,,,,,,,,,,,,,,,,,,,,,,,,,,
,,5d96a61b5d0f1c00117201bd,2024-02-19_03h19.00.087,kallum_motion_pilot,2023.2.2,Win32,144.092219,5d96a61b5d0f1c00117201bd,65d2b6c8f2eece985d8e374c,65d2b9a3424f1685f09383fd,0.021,0.021,1,14,176,120,1,fivesix,,,,,,,,,,,,,,,,,,,,,,,,,,,,,,,,,,,,,,,,,,,,,,,,,,,,,,,,,,,,,,,,,,,,,,,,,,,,,,,,,,,,,,,,,,,,,,,,,,,,,,,,,,,,,,,,,,,,,,,,,,,,,,,,,,,,,,,,,
,,5d96a61b5d0f1c00117201bd,2024-02-19_03h19.00.087,kallum_motion_pilot,2023.2.2,Win32,144.092219,5d96a61b5d0f1c00117201bd,65d2b6c8f2eece985d8e374c,65d2b9a3424f1685f09383fd,0.021,0.021,1,15,177,31,1,fourthree,,,,,,,,,,,,,,,,,,,,,,,,,,,,,,,,,,,,,,,,,,,,,,,,,,,,,,,,,,,,,,,,,,,,,,,,,,,,,,,,,,,,,,,,,,,,,,,,,,,,,,,,,,,,,,,,,,,,,,,,,,,,,,,,,,,,,,,,,
,,5d96a61b5d0f1c00117201bd,2024-02-19_03h19.00.087,kallum_motion_pilot,2023.2.2,Win32,144.092219,5d96a61b5d0f1c00117201bd,65d2b6c8f2eece985d8e374c,65d2b9a3424f1685f09383fd,0.021,0.021,1,16,178,52,1,threeone,,,,,,,,,,,,,,,,,,,,,,,,,,,,,,,,,,,,,,,,,,,,,,,,,,,,,,,,,,,,,,,,,,,,,,,,,,,,,,,,,,,,,,,,,,,,,,,,,,,,,,,,,,,,,,,,,,,,,,,,,,,,,,,,,,,,,,,,,
,,5d96a61b5d0f1c00117201bd,2024-02-19_03h19.00.087,kallum_motion_pilot,2023.2.2,Win32,144.092219,5d96a61b5d0f1c00117201bd,65d2b6c8f2eece985d8e374c,65d2b9a3424f1685f09383fd,0.021,0.021,1,17,179,127,1,eightseven,,,,,,,,,,,,,,,,,,,,,,,,,,,,,,,,,,,,,,,,,,,,,,,,,,,,,,,,,,,,,,,,,,,,,,,,,,,,,,,,,,,,,,,,,,,,,,,,,,,,,,,,,,,,,,,,,,,,,,,,,,,,,,,,,,,,,,,,,
,,5d96a61b5d0f1c00117201bd,2024-02-19_03h19.00.087,kallum_motion_pilot,2023.2.2,Win32,144.092219,5d96a61b5d0f1c00117201bd,65d2b6c8f2eece985d8e374c,65d2b9a3424f1685f09383fd,0.022,0.022,1,18,180,119,1,eightseven,,,,,,,,,,,,,,,,,,,,,,,,,,,,,,,,,,,,,,,,,,,,,,,,,,,,,,,,,,,,,,,,,,,,,,,,,,,,,,,,,,,,,,,,,,,,,,,,,,,,,,,,,,,,,,,,,,,,,,,,,,,,,,,,,,,,,,,,,
,,5d96a61b5d0f1c00117201bd,2024-02-19_03h19.00.087,kallum_motion_pilot,2023.2.2,Win32,144.092219,5d96a61b5d0f1c00117201bd,65d2b6c8f2eece985d8e374c,65d2b9a3424f1685f09383fd,0.022,0.022,1,19,181,48,1,onetwo,,,,,,,,,,,,,,,,,,,,,,,,,,,,,,,,,,,,,,,,,,,,,,,,,,,,,,,,,,,,,,,,,,,,,,,,,,,,,,,,,,,,,,,,,,,,,,,,,,,,,,,,,,,,,,,,,,,,,,,,,,,,,,,,,,,,,,,,,
,,5d96a61b5d0f1c00117201bd,2024-02-19_03h19.00.087,kallum_motion_pilot,2023.2.2,Win32,144.092219,5d96a61b5d0f1c00117201bd,65d2b6c8f2eece985d8e374c,65d2b9a3424f1685f09383fd,0.022,0.022,1,20,182,75,1,twofour,,,,,,,,,,,,,,,,,,,,,,,,,,,,,,,,,,,,,,,,,,,,,,,,,,,,,,,,,,,,,,,,,,,,,,,,,,,,,,,,,,,,,,,,,,,,,,,,,,,,,,,,,,,,,,,,,,,,,,,,,,,,,,,,,,,,,,,,,
,,5d96a61b5d0f1c00117201bd,2024-02-19_03h19.00.087,kallum_motion_pilot,2023.2.2,Win32,144.092219,5d96a61b5d0f1c00117201bd,65d2b6c8f2eece985d8e374c,65d2b9a3424f1685f09383fd,0.022,0.022,1,21,183,149,1,seveneight,,,,,,,,,,,,,,,,,,,,,,,,,,,,,,,,,,,,,,,,,,,,,,,,,,,,,,,,,,,,,,,,,,,,,,,,,,,,,,,,,,,,,,,,,,,,,,,,,,,,,,,,,,,,,,,,,,,,,,,,,,,,,,,,,,,,,,,,,
,,5d96a61b5d0f1c00117201bd,2024-02-19_03h19.00.087,kallum_motion_pilot,2023.2.2,Win32,144.092219,5d96a61b5d0f1c00117201bd,65d2b6c8f2eece985d8e374c,65d2b9a3424f1685f09383fd,0.022,0.022,1,22,184,53,1,threefour,,,,,,,,,,,,,,,,,,,,,,,,,,,,,,,,,,,,,,,,,,,,,,,,,,,,,,,,,,,,,,,,,,,,,,,,,,,,,,,,,,,,,,,,,,,,,,,,,,,,,,,,,,,,,,,,,,,,,,,,,,,,,,,,,,,,,,,,,
,,5d96a61b5d0f1c00117201bd,2024-02-19_03h19.00.087,kallum_motion_pilot,2023.2.2,Win32,144.092219,5d96a61b5d0f1c00117201bd,65d2b6c8f2eece985d8e374c,65d2b9a3424f1685f09383fd,0.022,0.022,1,23,185,45,1,threefour,,,,,,,,,,,,,,,,,,,,,,,,,,,,,,,,,,,,,,,,,,,,,,,,,,,,,,,,,,,,,,,,,,,,,,,,,,,,,,,,,,,,,,,,,,,,,,,,,,,,,,,,,,,,,,,,,,,,,,,,,,,,,,,,,,,,,,,,,
,,5d96a61b5d0f1c00117201bd,2024-02-19_03h19.00.087,kallum_motion_pilot,2023.2.2,Win32,144.092219,5d96a61b5d0f1c00117201bd,65d2b6c8f2eece985d8e374c,65d2b9a3424f1685f09383fd,0.022,0.022,1,24,186,59,1,twofour,,,,,,,,,,,,,,,,,,,,,,,,,,,,,,,,,,,,,,,,,,,,,,,,,,,,,,,,,,,,,,,,,,,,,,,,,,,,,,,,,,,,,,,,,,,,,,,,,,,,,,,,,,,,,,,,,,,,,,,,,,,,,,,,,,,,,,,,,
,,5d96a61b5d0f1c00117201bd,2024-02-19_03h19.00.087,kallum_motion_pilot,2023.2.2,Win32,144.092219,5d96a61b5d0f1c00117201bd,65d2b6c8f2eece985d8e374c,65d2b9a3424f1685f09383fd,0.022,0.022,1,25,187,125,1,seveneight,,,,,,,,,,,,,,,,,,,,,,,,,,,,,,,,,,,,,,,,,,,,,,,,,,,,,,,,,,,,,,,,,,,,,,,,,,,,,,,,,,,,,,,,,,,,,,,,,,,,,,,,,,,,,,,,,,,,,,,,,,,,,,,,,,,,,,,,,
,,5d96a61b5d0f1c00117201bd,2024-02-19_03h19.00.087,kallum_motion_pilot,2023.2.2,Win32,144.092219,5d96a61b5d0f1c00117201bd,65d2b6c8f2eece985d8e374c,65d2b9a3424f1685f09383fd,0.022,0.022,1,26,188,145,1,fiveseven,,,,,,,,,,,,,,,,,,,,,,,,,,,,,,,,,,,,,,,,,,,,,,,,,,,,,,,,,,,,,,,,,,,,,,,,,,,,,,,,,,,,,,,,,,,,,,,,,,,,,,,,,,,,,,,,,,,,,,,,,,,,,,,,,,,,,,,,,
,,5d96a61b5d0f1c00117201bd,2024-02-19_03h19.00.087,kallum_motion_pilot,2023.2.2,Win32,144.092219,5d96a61b5d0f1c00117201bd,65d2b6c8f2eece985d8e374c,65d2b9a3424f1685f09383fd,0.022,0.022,1,27,189,121,1,fiveseven,,,,,,,,,,,,,,,,,,,,,,,,,,,,,,,,,,,,,,,,,,,,,,,,,,,,,,,,,,,,,,,,,,,,,,,,,,,,,,,,,,,,,,,,,,,,,,,,,,,,,,,,,,,,,,,,,,,,,,,,,,,,,,,,,,,,,,,,,
,,5d96a61b5d0f1c00117201bd,2024-02-19_03h19.00.087,kallum_motion_pilot,2023.2.2,Win32,144.092219,5d96a61b5d0f1c00117201bd,65d2b6c8f2eece985d8e374c,65d2b9a3424f1685f09383fd,0.022,0.022,1,28,190,60,1,threeone,,,,,,,,,,,,,,,,,,,,,,,,,,,,,,,,,,,,,,,,,,,,,,,,,,,,,,,,,,,,,,,,,,,,,,,,,,,,,,,,,,,,,,,,,,,,,,,,,,,,,,,,,,,,,,,,,,,,,,,,,,,,,,,,,,,,,,,,,
,,5d96a61b5d0f1c00117201bd,2024-02-19_03h19.00.087,kallum_motion_pilot,2023.2.2,Win32,144.092219,5d96a61b5d0f1c00117201bd,65d2b6c8f2eece985d8e374c,65d2b9a3424f1685f09383fd,0.022,0.022,1,29,191,15,1,fourthree,,,,,,,,,,,,,,,,,,,,,,,,,,,,,,,,,,,,,,,,,,,,,,,,,,,,,,,,,,,,,,,,,,,,,,,,,,,,,,,,,,,,,,,,,,,,,,,,,,,,,,,,,,,,,,,,,,,,,,,,,,,,,,,,,,,,,,,,,
,,5d96a61b5d0f1c00117201bd,2024-02-19_03h19.00.087,kallum_motion_pilot,2023.2.2,Win32,144.092219,5d96a61b5d0f1c00117201bd,65d2b6c8f2eece985d8e374c,65d2b9a3424f1685f09383fd,0.022,0.022,1,30,192,67,1,twofour,,,,,,,,,,,,,,,,,,,,,,,,,,,,,,,,,,,,,,,,,,,,,,,,,,,,,,,,,,,,,,,,,,,,,,,,,,,,,,,,,,,,,,,,,,,,,,,,,,,,,,,,,,,,,,,,,,,,,,,,,,,,,,,,,,,,,,,,,
,,5d96a61b5d0f1c00117201bd,2024-02-19_03h19.00.087,kallum_motion_pilot,2023.2.2,Win32,144.092219,5d96a61b5d0f1c00117201bd,65d2b6c8f2eece985d8e374c,65d2b9a3424f1685f09383fd,0.022,0.022,1,31,193,41,1,onethree,,,,,,,,,,,,,,,,,,,,,,,,,,,,,,,,,,,,,,,,,,,,,,,,,,,,,,,,,,,,,,,,,,,,,,,,,,,,,,,,,,,,,,,,,,,,,,,,,,,,,,,,,,,,,,,,,,,,,,,,,,,,,,,,,,,,,,,,,
,,5d96a61b5d0f1c00117201bd,2024-02-19_03h19.00.087,kallum_motion_pilot,2023.2.2,Win32,144.092219,5d96a61b5d0f1c00117201bd,65d2b6c8f2eece985d8e374c,65d2b9a3424f1685f09383fd,0.022,0.022,1,32,194,108,1,sevenfive,,,,,,,,,,,,,,,,,,,,,,,,,,,,,,,,,,,,,,,,,,,,,,,,,,,,,,,,,,,,,,,,,,,,,,,,,,,,,,,,,,,,,,,,,,,,,,,,,,,,,,,,,,,,,,,,,,,,,,,,,,,,,,,,,,,,,,,,,
,,5d96a61b5d0f1c00117201bd,2024-02-19_03h19.00.087,kallum_motion_pilot,2023.2.2,Win32,144.092219,5d96a61b5d0f1c00117201bd,65d2b6c8f2eece985d8e374c,65d2b9a3424f1685f09383fd,0.022,0.022,1,33,195,33,1,onethree,,,,,,,,,,,,,,,,,,,,,,,,,,,,,,,,,,,,,,,,,,,,,,,,,,,,,,,,,,,,,,,,,,,,,,,,,,,,,,,,,,,,,,,,,,,,,,,,,,,,,,,,,,,,,,,,,,,,,,,,,,,,,,,,,,,,,,,,,
,,5d96a61b5d0f1c00117201bd,2024-02-19_03h19.00.087,kallum_motion_pilot,2023.2.2,Win32,144.092219,5d96a61b5d0f1c00117201bd,65d2b6c8f2eece985d8e374c,65d2b9a3424f1685f09383fd,0.022,0.022,1,34,196,38,1,fourtwo,,,,,,,,,,,,,,,,,,,,,,,,,,,,,,,,,,,,,,,,,,,,,,,,,,,,,,,,,,,,,,,,,,,,,,,,,,,,,,,,,,,,,,,,,,,,,,,,,,,,,,,,,,,,,,,,,,,,,,,,,,,,,,,,,,,,,,,,,
,,5d96a61b5d0f1c00117201bd,2024-02-19_03h19.00.087,kallum_motion_pilot,2023.2.2,Win32,144.092219,5d96a61b5d0f1c00117201bd,65d2b6c8f2eece985d8e374c,65d2b9a3424f1685f09383fd,0.022,0.022,1,35,197,49,1,onethree,,,,,,,,,,,,,,,,,,,,,,,,,,,,,,,,,,,,,,,,,,,,,,,,,,,,,,,,,,,,,,,,,,,,,,,,,,,,,,,,,,,,,,,,,,,,,,,,,,,,,,,,,,,,,,,,,,,,,,,,,,,,,,,,,,,,,,,,,
,,5d96a61b5d0f1c00117201bd,2024-02-19_03h19.00.087,kallum_motion_pilot,2023.2.2,Win32,144.092219,5d96a61b5d0f1c00117201bd,65d2b6c8f2eece985d8e374c,65d2b9a3424f1685f09383fd,0.022,0.022,1,36,198,130,1,sixfive,,,,,,,,,,,,,,,,,,,,,,,,,,,,,,,,,,,,,,,,,,,,,,,,,,,,,,,,,,,,,,,,,,,,,,,,,,,,,,,,,,,,,,,,,,,,,,,,,,,,,,,,,,,,,,,,,,,,,,,,,,,,,,,,,,,,,,,,,
,,5d96a61b5d0f1c00117201bd,2024-02-19_03h19.00.087,kallum_motion_pilot,2023.2.2,Win32,144.092219,5d96a61b5d0f1c00117201bd,65d2b6c8f2eece985d8e374c,65d2b9a3424f1685f09383fd,0.022,0.022,1,37,199,9,1,onethree,,,,,,,,,,,,,,,,,,,,,,,,,,,,,,,,,,,,,,,,,,,,,,,,,,,,,,,,,,,,,,,,,,,,,,,,,,,,,,,,,,,,,,,,,,,,,,,,,,,,,,,,,,,,,,,,,,,,,,,,,,,,,,,,,,,,,,,,,
,,5d96a61b5d0f1c00117201bd,2024-02-19_03h19.00.087,kallum_motion_pilot,2023.2.2,Win32,144.092219,5d96a61b5d0f1c00117201bd,65d2b6c8f2eece985d8e374c,65d2b9a3424f1685f09383fd,0.022,0.022,1,38,200,90,1,sixfive,,,,,,,,,,,,,,,,,,,,,,,,,,,,,,,,,,,,,,,,,,,,,,,,,,,,,,,,,,,,,,,,,,,,,,,,,,,,,,,,,,,,,,,,,,,,,,,,,,,,,,,,,,,,,,,,,,,,,,,,,,,,,,,,,,,,,,,,,
,,5d96a61b5d0f1c00117201bd,2024-02-19_03h19.00.087,kallum_motion_pilot,2023.2.2,Win32,144.092219,5d96a61b5d0f1c00117201bd,65d2b6c8f2eece985d8e374c,65d2b9a3424f1685f09383fd,0.022,0.022,1,39,201,131,1,sixeight,,,,,,,,,,,,,,,,,,,,,,,,,,,,,,,,,,,,,,,,,,,,,,,,,,,,,,,,,,,,,,,,,,,,,,,,,,,,,,,,,,,,,,,,,,,,,,,,,,,,,,,,,,,,,,,,,,,,,,,,,,,,,,,,,,,,,,,,,
,,5d96a61b5d0f1c00117201bd,2024-02-19_03h19.00.087,kallum_motion_pilot,2023.2.2,Win32,144.092219,5d96a61b5d0f1c00117201bd,65d2b6c8f2eece985d8e374c,65d2b9a3424f1685f09383fd,0.022,0.022,1,40,202,17,1,onethree,,,,,,,,,,,,,,,,,,,,,,,,,,,,,,,,,,,,,,,,,,,,,,,,,,,,,,,,,,,,,,,,,,,,,,,,,,,,,,,,,,,,,,,,,,,,,,,,,,,,,,,,,,,,,,,,,,,,,,,,,,,,,,,,,,,,,,,,,
,,5d96a61b5d0f1c00117201bd,2024-02-19_03h19.00.087,kallum_motion_pilot,2023.2.2,Win32,144.092219,5d96a61b5d0f1c00117201bd,65d2b6c8f2eece985d8e374c,65d2b9a3424f1685f09383fd,0.022,0.022,1,41,203,74,1,twoone,,,,,,,,,,,,,,,,,,,,,,,,,,,,,,,,,,,,,,,,,,,,,,,,,,,,,,,,,,,,,,,,,,,,,,,,,,,,,,,,,,,,,,,,,,,,,,,,,,,,,,,,,,,,,,,,,,,,,,,,,,,,,,,,,,,,,,,,,
,,5d96a61b5d0f1c00117201bd,2024-02-19_03h19.00.087,kallum_motion_pilot,2023.2.2,Win32,144.092219,5d96a61b5d0f1c00117201bd,65d2b6c8f2eece985d8e374c,65d2b9a3424f1685f09383fd,0.022,0.023,1,42,204,135,1,eightseven,,,,,,,,,,,,,,,,,,,,,,,,,,,,,,,,,,,,,,,,,,,,,,,,,,,,,,,,,,,,,,,,,,,,,,,,,,,,,,,,,,,,,,,,,,,,,,,,,,,,,,,,,,,,,,,,,,,,,,,,,,,,,,,,,,,,,,,,,
,,5d96a61b5d0f1c00117201bd,2024-02-19_03h19.00.087,kallum_motion_pilot,2023.2.2,Win32,144.092219,5d96a61b5d0f1c00117201bd,65d2b6c8f2eece985d8e374c,65d2b9a3424f1685f09383fd,0.023,0.023,1,43,205,62,1,fourtwo,,,,,,,,,,,,,,,,,,,,,,,,,,,,,,,,,,,,,,,,,,,,,,,,,,,,,,,,,,,,,,,,,,,,,,,,,,,,,,,,,,,,,,,,,,,,,,,,,,,,,,,,,,,,,,,,,,,,,,,,,,,,,,,,,,,,,,,,,
,,5d96a61b5d0f1c00117201bd,2024-02-19_03h19.00.087,kallum_motion_pilot,2023.2.2,Win32,144.092219,5d96a61b5d0f1c00117201bd,65d2b6c8f2eece985d8e374c,65d2b9a3424f1685f09383fd,0.023,0.023,1,44,206,51,1,twofour,,,,,,,,,,,,,,,,,,,,,,,,,,,,,,,,,,,,,,,,,,,,,,,,,,,,,,,,,,,,,,,,,,,,,,,,,,,,,,,,,,,,,,,,,,,,,,,,,,,,,,,,,,,,,,,,,,,,,,,,,,,,,,,,,,,,,,,,,
,,5d96a61b5d0f1c00117201bd,2024-02-19_03h19.00.087,kallum_motion_pilot,2023.2.2,Win32,144.092219,5d96a61b5d0f1c00117201bd,65d2b6c8f2eece985d8e374c,65d2b9a3424f1685f09383fd,0.023,0.023,1,45,207,54,1,fourtwo,,,,,,,,,,,,,,,,,,,,,,,,,,,,,,,,,,,,,,,,,,,,,,,,,,,,,,,,,,,,,,,,,,,,,,,,,,,,,,,,,,,,,,,,,,,,,,,,,,,,,,,,,,,,,,,,,,,,,,,,,,,,,,,,,,,,,,,,,
,,5d96a61b5d0f1c00117201bd,2024-02-19_03h19.00.087,kallum_motion_pilot,2023.2.2,Win32,144.092219,5d96a61b5d0f1c00117201bd,65d2b6c8f2eece985d8e374c,65d2b9a3424f1685f09383fd,0.023,0.023,1,46,208,139,1,sixeight,,,,,,,,,,,,,,,,,,,,,,,,,,,,,,,,,,,,,,,,,,,,,,,,,,,,,,,,,,,,,,,,,,,,,,,,,,,,,,,,,,,,,,,,,,,,,,,,,,,,,,,,,,,,,,,,,,,,,,,,,,,,,,,,,,,,,,,,,
,,5d96a61b5d0f1c00117201bd,2024-02-19_03h19.00.087,kallum_motion_pilot,2023.2.2,Win32,144.092219,5d96a61b5d0f1c00117201bd,65d2b6c8f2eece985d8e374c,65d2b9a3424f1685f09383fd,0.023,0.023,1,47,209,161,1,fiveseven,,,,,,,,,,,,,,,,,,,,,,,,,,,,,,,,,,,,,,,,,,,,,,,,,,,,,,,,,,,,,,,,,,,,,,,,,,,,,,,,,,,,,,,,,,,,,,,,,,,,,,,,,,,,,,,,,,,,,,,,,,,,,,,,,,,,,,,,,
,,5d96a61b5d0f1c00117201bd,2024-02-19_03h19.00.087,kallum_motion_pilot,2023.2.2,Win32,144.092219,5d96a61b5d0f1c00117201bd,65d2b6c8f2eece985d8e374c,65d2b9a3424f1685f09383fd,0.023,0.023,1,48,210,115,1,sixeight,,,,,,,,,,,,,,,,,,,,,,,,,,,,,,,,,,,,,,,,,,,,,,,,,,,,,,,,,,,,,,,,,,,,,,,,,,,,,,,,,,,,,,,,,,,,,,,,,,,,,,,,,,,,,,,,,,,,,,,,,,,,,,,,,,,,,,,,,
,,5d96a61b5d0f1c00117201bd,2024-02-19_03h19.00.087,kallum_motion_pilot,2023.2.2,Win32,144.092219,5d96a61b5d0f1c00117201bd,65d2b6c8f2eece985d8e374c,65d2b9a3424f1685f09383fd,0.023,0.023,1,49,211,129,1,fiveseven,,,,,,,,,,,,,,,,,,,,,,,,,,,,,,,,,,,,,,,,,,,,,,,,,,,,,,,,,,,,,,,,,,,,,,,,,,,,,,,,,,,,,,,,,,,,,,,,,,,,,,,,,,,,,,,,,,,,,,,,,,,,,,,,,,,,,,,,,
,,5d96a61b5d0f1c00117201bd,2024-02-19_03h19.00.087,kallum_motion_pilot,2023.2.2,Win32,144.092219,5d96a61b5d0f1c00117201bd,65d2b6c8f2eece985d8e374c,65d2b9a3424f1685f09383fd,0.023,0.023,1,50,212,92,1,sevenfive,,,,,,,,,,,,,,,,,,,,,,,,,,,,,,,,,,,,,,,,,,,,,,,,,,,,,,,,,,,,,,,,,,,,,,,,,,,,,,,,,,,,,,,,,,,,,,,,,,,,,,,,,,,,,,,,,,,,,,,,,,,,,,,,,,,,,,,,,
,,5d96a61b5d0f1c00117201bd,2024-02-19_03h19.00.087,kallum_motion_pilot,2023.2.2,Win32,144.092219,5d96a61b5d0f1c00117201bd,65d2b6c8f2eece985d8e374c,65d2b9a3424f1685f09383fd,0.023,0.023,1,51,213,157,1,seveneight,,,,,,,,,,,,,,,,,,,,,,,,,,,,,,,,,,,,,,,,,,,,,,,,,,,,,,,,,,,,,,,,,,,,,,,,,,,,,,,,,,,,,,,,,,,,,,,,,,,,,,,,,,,,,,,,,,,,,,,,,,,,,,,,,,,,,,,,,
,,5d96a61b5d0f1c00117201bd,2024-02-19_03h19.00.087,kallum_motion_pilot,2023.2.2,Win32,144.092219,5d96a61b5d0f1c00117201bd,65d2b6c8f2eece985d8e374c,65d2b9a3424f1685f09383fd,0.023,0.023,1,52,214,13,1,threefour,,,,,,,,,,,,,,,,,,,,,,,,,,,,,,,,,,,,,,,,,,,,,,,,,,,,,,,,,,,,,,,,,,,,,,,,,,,,,,,,,,,,,,,,,,,,,,,,,,,,,,,,,,,,,,,,,,,,,,,,,,,,,,,,,,,,,,,,,
,,5d96a61b5d0f1c00117201bd,2024-02-19_03h19.00.087,kallum_motion_pilot,2023.2.2,Win32,144.092219,5d96a61b5d0f1c00117201bd,65d2b6c8f2eece985d8e374c,65d2b9a3424f1685f09383fd,0.023,0.023,1,53,215,141,1,seveneight,,,,,,,,,,,,,,,,,,,,,,,,,,,,,,,,,,,,,,,,,,,,,,,,,,,,,,,,,,,,,,,,,,,,,,,,,,,,,,,,,,,,,,,,,,,,,,,,,,,,,,,,,,,,,,,,,,,,,,,,,,,,,,,,,,,,,,,,,
,,5d96a61b5d0f1c00117201bd,2024-02-19_03h19.00.087,kallum_motion_pilot,2023.2.2,Win32,144.092219,5d96a61b5d0f1c00117201bd,65d2b6c8f2eece985d8e374c,65d2b9a3424f1685f09383fd,0.023,0.023,1,54,216,29,1,threefour,,,,,,,,,,,,,,,,,,,,,,,,,,,,,,,,,,,,,,,,,,,,,,,,,,,,,,,,,,,,,,,,,,,,,,,,,,,,,,,,,,,,,,,,,,,,,,,,,,,,,,,,,,,,,,,,,,,,,,,,,,,,,,,,,,,,,,,,,
,,5d96a61b5d0f1c00117201bd,2024-02-19_03h19.00.087,kallum_motion_pilot,2023.2.2,Win32,144.092219,5d96a61b5d0f1c00117201bd,65d2b6c8f2eece985d8e374c,65d2b9a3424f1685f09383fd,0.023,0.023,1,55,217,27,1,twofour,,,,,,,,,,,,,,,,,,,,,,,,,,,,,,,,,,,,,,,,,,,,,,,,,,,,,,,,,,,,,,,,,,,,,,,,,,,,,,,,,,,,,,,,,,,,,,,,,,,,,,,,,,,,,,,,,,,,,,,,,,,,,,,,,,,,,,,,,
,,5d96a61b5d0f1c00117201bd,2024-02-19_03h19.00.087,kallum_motion_pilot,2023.2.2,Win32,144.092219,5d96a61b5d0f1c00117201bd,65d2b6c8f2eece985d8e374c,65d2b9a3424f1685f09383fd,0.023,0.023,1,56,218,26,1,twoone,,,,,,,,,,,,,,,,,,,,,,,,,,,,,,,,,,,,,,,,,,,,,,,,,,,,,,,,,,,,,,,,,,,,,,,,,,,,,,,,,,,,,,,,,,,,,,,,,,,,,,,,,,,,,,,,,,,,,,,,,,,,,,,,,,,,,,,,,
,,5d96a61b5d0f1c00117201bd,2024-02-19_03h19.00.087,kallum_motion_pilot,2023.2.2,Win32,144.092219,5d96a61b5d0f1c00117201bd,65d2b6c8f2eece985d8e374c,65d2b9a3424f1685f09383fd,0.023,0.023,1,57,219,109,1,seveneight,,,,,,,,,,,,,,,,,,,,,,,,,,,,,,,,,,,,,,,,,,,,,,,,,,,,,,,,,,,,,,,,,,,,,,,,,,,,,,,,,,,,,,,,,,,,,,,,,,,,,,,,,,,,,,,,,,,,,,,,,,,,,,,,,,,,,,,,,
,,5d96a61b5d0f1c00117201bd,2024-02-19_03h19.00.087,kallum_motion_pilot,2023.2.2,Win32,144.092219,5d96a61b5d0f1c00117201bd,65d2b6c8f2eece985d8e374c,65d2b9a3424f1685f09383fd,0.024,0.024,1,58,220,106,1,sixfive,,,,,,,,,,,,,,,,,,,,,,,,,,,,,,,,,,,,,,,,,,,,,,,,,,,,,,,,,,,,,,,,,,,,,,,,,,,,,,,,,,,,,,,,,,,,,,,,,,,,,,,,,,,,,,,,,,,,,,,,,,,,,,,,,,,,,,,,,
,,5d96a61b5d0f1c00117201bd,2024-02-19_03h19.00.087,kallum_motion_pilot,2023.2.2,Win32,144.092219,5d96a61b5d0f1c00117201bd,65d2b6c8f2eece985d8e374c,65d2b9a3424f1685f09383fd,0.024,0.024,1,59,221,71,1,fourthree,,,,,,,,,,,,,,,,,,,,,,,,,,,,,,,,,,,,,,,,,,,,,,,,,,,,,,,,,,,,,,,,,,,,,,,,,,,,,,,,,,,,,,,,,,,,,,,,,,,,,,,,,,,,,,,,,,,,,,,,,,,,,,,,,,,,,,,,,
,,5d96a61b5d0f1c00117201bd,2024-02-19_03h19.00.087,kallum_motion_pilot,2023.2.2,Win32,144.092219,5d96a61b5d0f1c00117201bd,65d2b6c8f2eece985d8e374c,65d2b9a3424f1685f09383fd,0.024,0.024,1,60,222,126,1,eightsix,,,,,,,,,,,,,,,,,,,,,,,,,,,,,,,,,,,,,,,,,,,,,,,,,,,,,,,,,,,,,,,,,,,,,,,,,,,,,,,,,,,,,,,,,,,,,,,,,,,,,,,,,,,,,,,,,,,,,,,,,,,,,,,,,,,,,,,,,
,,5d96a61b5d0f1c00117201bd,2024-02-19_03h19.00.087,kallum_motion_pilot,2023.2.2,Win32,144.092219,5d96a61b5d0f1c00117201bd,65d2b6c8f2eece985d8e374c,65d2b9a3424f1685f09383fd,0.024,0.024,1,61,223,143,1,eightseven,,,,,,,,,,,,,,,,,,,,,,,,,,,,,,,,,,,,,,,,,,,,,,,,,,,,,,,,,,,,,,,,,,,,,,,,,,,,,,,,,,,,,,,,,,,,,,,,,,,,,,,,,,,,,,,,,,,,,,,,,,,,,,,,,,,,,,,,,
,,5d96a61b5d0f1c00117201bd,2024-02-19_03h19.00.087,kallum_motion_pilot,2023.2.2,Win32,144.092219,5d96a61b5d0f1c00117201bd,65d2b6c8f2eece985d8e374c,65d2b9a3424f1685f09383fd,0.024,0.024,1,62,224,42,1,twoone,,,,,,,,,,,,,,,,,,,,,,,,,,,,,,,,,,,,,,,,,,,,,,,,,,,,,,,,,,,,,,,,,,,,,,,,,,,,,,,,,,,,,,,,,,,,,,,,,,,,,,,,,,,,,,,,,,,,,,,,,,,,,,,,,,,,,,,,,
,,5d96a61b5d0f1c00117201bd,2024-02-19_03h19.00.087,kallum_motion_pilot,2023.2.2,Win32,144.092219,5d96a61b5d0f1c00117201bd,65d2b6c8f2eece985d8e374c,65d2b9a3424f1685f09383fd,0.024,0.024,1,63,225,124,1,sevenfive,,,,,,,,,,,,,,,,,,,,,,,,,,,,,,,,,,,,,,,,,,,,,,,,,,,,,,,,,,,,,,,,,,,,,,,,,,,,,,,,,,,,,,,,,,,,,,,,,,,,,,,,,,,,,,,,,,,,,,,,,,,,,,,,,,,,,,,,,
,,5d96a61b5d0f1c00117201bd,2024-02-19_03h19.00.087,kallum_motion_pilot,2023.2.2,Win32,144.092219,5d96a61b5d0f1c00117201bd,65d2b6c8f2eece985d8e374c,65d2b9a3424f1685f09383fd,0.024,0.024,1,64,226,28,1,threeone,,,,,,,,,,,,,,,,,,,,,,,,,,,,,,,,,,,,,,,,,,,,,,,,,,,,,,,,,,,,,,,,,,,,,,,,,,,,,,,,,,,,,,,,,,,,,,,,,,,,,,,,,,,,,,,,,,,,,,,,,,,,,,,,,,,,,,,,,
,,5d96a61b5d0f1c00117201bd,2024-02-19_03h19.00.087,kallum_motion_pilot,2023.2.2,Win32,144.092219,5d96a61b5d0f1c00117201bd,65d2b6c8f2eece985d8e374c,65d2b9a3424f1685f09383fd,0.024,0.024,1,65,227,87,1,eightseven,,,,,,,,,,,,,,,,,,,,,,,,,,,,,,,,,,,,,,,,,,,,,,,,,,,,,,,,,,,,,,,,,,,,,,,,,,,,,,,,,,,,,,,,,,,,,,,,,,,,,,,,,,,,,,,,,,,,,,,,,,,,,,,,,,,,,,,,,
,,5d96a61b5d0f1c00117201bd,2024-02-19_03h19.00.087,kallum_motion_pilot,2023.2.2,Win32,144.092219,5d96a61b5d0f1c00117201bd,65d2b6c8f2eece985d8e374c,65d2b9a3424f1685f09383fd,0.024,0.024,1,66,228,35,1,twofour,,,,,,,,,,,,,,,,,,,,,,,,,,,,,,,,,,,,,,,,,,,,,,,,,,,,,,,,,,,,,,,,,,,,,,,,,,,,,,,,,,,,,,,,,,,,,,,,,,,,,,,,,,,,,,,,,,,,,,,,,,,,,,,,,,,,,,,,,
,,5d96a61b5d0f1c00117201bd,2024-02-19_03h19.00.087,kallum_motion_pilot,2023.2.2,Win32,144.092219,5d96a61b5d0f1c00117201bd,65d2b6c8f2eece985d8e374c,65d2b9a3424f1685f09383fd,0.024,0.024,1,67,229,47,1,fourthree,,,,,,,,,,,,,,,,,,,,,,,,,,,,,,,,,,,,,,,,,,,,,,,,,,,,,,,,,,,,,,,,,,,,,,,,,,,,,,,,,,,,,,,,,,,,,,,,,,,,,,,,,,,,,,,,,,,,,,,,,,,,,,,,,,,,,,,,,
,,5d96a61b5d0f1c00117201bd,2024-02-19_03h19.00.087,kallum_motion_pilot,2023.2.2,Win32,144.092219,5d96a61b5d0f1c00117201bd,65d2b6c8f2eece985d8e374c,65d2b9a3424f1685f09383fd,0.024,0.024,1,68,230,5,1,threefour,,,,,,,,,,,,,,,,,,,,,,,,,,,,,,,,,,,,,,,,,,,,,,,,,,,,,,,,,,,,,,,,,,,,,,,,,,,,,,,,,,,,,,,,,,,,,,,,,,,,,,,,,,,,,,,,,,,,,,,,,,,,,,,,,,,,,,,,,
,,5d96a61b5d0f1c00117201bd,2024-02-19_03h19.00.087,kallum_motion_pilot,2023.2.2,Win32,144.092219,5d96a61b5d0f1c00117201bd,65d2b6c8f2eece985d8e374c,65d2b9a3424f1685f09383fd,0.024,0.024,1,69,231,10,1,twoone,,,,,,,,,,,,,,,,,,,,,,,,,,,,,,,,,,,,,,,,,,,,,,,,,,,,,,,,,,,,,,,,,,,,,,,,,,,,,,,,,,,,,,,,,,,,,,,,,,,,,,,,,,,,,,,,,,,,,,,,,,,,,,,,,,,,,,,,,
,,5d96a61b5d0f1c00117201bd,2024-02-19_03h19.00.087,kallum_motion_pilot,2023.2.2,Win32,144.092219,5d96a61b5d0f1c00117201bd,65d2b6c8f2eece985d8e374c,65d2b9a3424f1685f09383fd,0.024,0.024,1,70,232,152,1,fivesix,,,,,,,,,,,,,,,,,,,,,,,,,,,,,,,,,,,,,,,,,,,,,,,,,,,,,,,,,,,,,,,,,,,,,,,,,,,,,,,,,,,,,,,,,,,,,,,,,,,,,,,,,,,,,,,,,,,,,,,,,,,,,,,,,,,,,,,,,
,,5d96a61b5d0f1c00117201bd,2024-02-19_03h19.00.087,kallum_motion_pilot,2023.2.2,Win32,144.092219,5d96a61b5d0f1c00117201bd,65d2b6c8f2eece985d8e374c,65d2b9a3424f1685f09383fd,0.024,0.024,1,71,233,16,1,onetwo,,,,,,,,,,,,,,,,,,,,,,,,,,,,,,,,,,,,,,,,,,,,,,,,,,,,,,,,,,,,,,,,,,,,,,,,,,,,,,,,,,,,,,,,,,,,,,,,,,,,,,,,,,,,,,,,,,,,,,,,,,,,,,,,,,,,,,,,,
,,5d96a61b5d0f1c00117201bd,2024-02-19_03h19.00.087,kallum_motion_pilot,2023.2.2,Win32,144.092219,5d96a61b5d0f1c00117201bd,65d2b6c8f2eece985d8e374c,65d2b9a3424f1685f09383fd,0.024,0.024,1,72,234,138,1,sixfive,,,,,,,,,,,,,,,,,,,,,,,,,,,,,,,,,,,,,,,,,,,,,,,,,,,,,,,,,,,,,,,,,,,,,,,,,,,,,,,,,,,,,,,,,,,,,,,,,,,,,,,,,,,,,,,,,,,,,,,,,,,,,,,,,,,,,,,,,
,,5d96a61b5d0f1c00117201bd,2024-02-19_03h19.00.087,kallum_motion_pilot,2023.2.2,Win32,144.092219,5d96a61b5d0f1c00117201bd,65d2b6c8f2eece985d8e374c,65d2b9a3424f1685f09383fd,0.024,0.024,1,73,235,144,1,fivesix,,,,,,,,,,,,,,,,,,,,,,,,,,,,,,,,,,,,,,,,,,,,,,,,,,,,,,,,,,,,,,,,,,,,,,,,,,,,,,,,,,,,,,,,,,,,,,,,,,,,,,,,,,,,,,,,,,,,,,,,,,,,,,,,,,,,,,,,,
,,5d96a61b5d0f1c00117201bd,2024-02-19_03h19.00.087,kallum_motion_pilot,2023.2.2,Win32,144.092219,5d96a61b5d0f1c00117201bd,65d2b6c8f2eece985d8e374c,65d2b9a3424f1685f09383fd,0.024,0.024,1,74,236,37,1,threefour,,,,,,,,,,,,,,,,,,,,,,,,,,,,,,,,,,,,,,,,,,,,,,,,,,,,,,,,,,,,,,,,,,,,,,,,,,,,,,,,,,,,,,,,,,,,,,,,,,,,,,,,,,,,,,,,,,,,,,,,,,,,,,,,,,,,,,,,,
,,5d96a61b5d0f1c00117201bd,2024-02-19_03h19.00.087,kallum_motion_pilot,2023.2.2,Win32,144.092219,5d96a61b5d0f1c00117201bd,65d2b6c8f2eece985d8e374c,65d2b9a3424f1685f09383fd,0.024,0.024,1,75,237,58,1,twoone,,,,,,,,,,,,,,,,,,,,,,,,,,,,,,,,,,,,,,,,,,,,,,,,,,,,,,,,,,,,,,,,,,,,,,,,,,,,,,,,,,,,,,,,,,,,,,,,,,,,,,,,,,,,,,,,,,,,,,,,,,,,,,,,,,,,,,,,,
,,5d96a61b5d0f1c00117201bd,2024-02-19_03h19.00.087,kallum_motion_pilot,2023.2.2,Win32,144.092219,5d96a61b5d0f1c00117201bd,65d2b6c8f2eece985d8e374c,65d2b9a3424f1685f09383fd,0.024,0.024,1,76,238,103,1,eightseven,,,,,,,,,,,,,,,,,,,,,,,,,,,,,,,,,,,,,,,,,,,,,,,,,,,,,,,,,,,,,,,,,,,,,,,,,,,,,,,,,,,,,,,,,,,,,,,,,,,,,,,,,,,,,,,,,,,,,,,,,,,,,,,,,,,,,,,,,
,,5d96a61b5d0f1c00117201bd,2024-02-19_03h19.00.087,kallum_motion_pilot,2023.2.2,Win32,144.092219,5d96a61b5d0f1c00117201bd,65d2b6c8f2eece985d8e374c,65d2b9a3424f1685f09383fd,0.025,0.025,1,77,239,12,1,threeone,,,,,,,,,,,,,,,,,,,,,,,,,,,,,,,,,,,,,,,,,,,,,,,,,,,,,,,,,,,,,,,,,,,,,,,,,,,,,,,,,,,,,,,,,,,,,,,,,,,,,,,,,,,,,,,,,,,,,,,,,,,,,,,,,,,,,,,,,
,,5d96a61b5d0f1c00117201bd,2024-02-19_03h19.00.087,kallum_motion_pilot,2023.2.2,Win32,144.092219,5d96a61b5d0f1c00117201bd,65d2b6c8f2eece985d8e374c,65d2b9a3424f1685f09383fd,0.025,0.025,1,78,240,76,1,threeone,,,,,,,,,,,,,,,,,,,,,,,,,,,,,,,,,,,,,,,,,,,,,,,,,,,,,,,,,,,,,,,,,,,,,,,,,,,,,,,,,,,,,,,,,,,,,,,,,,,,,,,,,,,,,,,,,,,,,,,,,,,,,,,,,,,,,,,,,
,,5d96a61b5d0f1c00117201bd,2024-02-19_03h19.00.087,kallum_motion_pilot,2023.2.2,Win32,144.092219,5d96a61b5d0f1c00117201bd,65d2b6c8f2eece985d8e374c,65d2b9a3424f1685f09383fd,0.025,0.025,1,79,241,70,1,fourtwo,,,,,,,,,,,,,,,,,,,,,,,,,,,,,,,,,,,,,,,,,,,,,,,,,,,,,,,,,,,,,,,,,,,,,,,,,,,,,,,,,,,,,,,,,,,,,,,,,,,,,,,,,,,,,,,,,,,,,,,,,,,,,,,,,,,,,,,,,
,,5d96a61b5d0f1c00117201bd,2024-02-19_03h19.00.087,kallum_motion_pilot,2023.2.2,Win32,144.092219,5d96a61b5d0f1c00117201bd,65d2b6c8f2eece985d8e374c,65d2b9a3424f1685f09383fd,0.025,0.025,1,80,242,18,1,twoone,,,,,,,,,,,,,,,,,,,,,,,,,,,,,,,,,,,,,,,,,,,,,,,,,,,,,,,,,,,,,,,,,,,,,,,,,,,,,,,,,,,,,,,,,,,,,,,,,,,,,,,,,,,,,,,,,,,,,,,,,,,,,,,,,,,,,,,,,
,,5d96a61b5d0f1c00117201bd,2024-02-19_03h19.00.087,kallum_motion_pilot,2023.2.2,Win32,144.092219,5d96a61b5d0f1c00117201bd,65d2b6c8f2eece985d8e374c,65d2b9a3424f1685f09383fd,0.025,0.025,1,81,243,81,1,fiveseven,,,,,,,,,,,,,,,,,,,,,,,,,,,,,,,,,,,,,,,,,,,,,,,,,,,,,,,,,,,,,,,,,,,,,,,,,,,,,,,,,,,,,,,,,,,,,,,,,,,,,,,,,,,,,,,,,,,,,,,,,,,,,,,,,,,,,,,,,
,,5d96a61b5d0f1c00117201bd,2024-02-19_03h19.00.087,kallum_motion_pilot,2023.2.2,Win32,144.092219,5d96a61b5d0f1c00117201bd,65d2b6c8f2eece985d8e374c,65d2b9a3424f1685f09383fd,0.025,0.025,1,82,244,158,1,eightsix,,,,,,,,,,,,,,,,,,,,,,,,,,,,,,,,,,,,,,,,,,,,,,,,,,,,,,,,,,,,,,,,,,,,,,,,,,,,,,,,,,,,,,,,,,,,,,,,,,,,,,,,,,,,,,,,,,,,,,,,,,,,,,,,,,,,,,,,,
,,5d96a61b5d0f1c00117201bd,2024-02-19_03h19.00.087,kallum_motion_pilot,2023.2.2,Win32,144.092219,5d96a61b5d0f1c00117201bd,65d2b6c8f2eece985d8e374c,65d2b9a3424f1685f09383fd,0.025,0.025,1,83,245,136,1,fivesix,,,,,,,,,,,,,,,,,,,,,,,,,,,,,,,,,,,,,,,,,,,,,,,,,,,,,,,,,,,,,,,,,,,,,,,,,,,,,,,,,,,,,,,,,,,,,,,,,,,,,,,,,,,,,,,,,,,,,,,,,,,,,,,,,,,,,,,,,
,,5d96a61b5d0f1c00117201bd,2024-02-19_03h19.00.087,kallum_motion_pilot,2023.2.2,Win32,144.092219,5d96a61b5d0f1c00117201bd,65d2b6c8f2eece985d8e374c,65d2b9a3424f1685f09383fd,0.025,0.025,1,84,246,77,1,threefour,,,,,,,,,,,,,,,,,,,,,,,,,,,,,,,,,,,,,,,,,,,,,,,,,,,,,,,,,,,,,,,,,,,,,,,,,,,,,,,,,,,,,,,,,,,,,,,,,,,,,,,,,,,,,,,,,,,,,,,,,,,,,,,,,,,,,,,,,
,,5d96a61b5d0f1c00117201bd,2024-02-19_03h19.00.087,kallum_motion_pilot,2023.2.2,Win32,144.092219,5d96a61b5d0f1c00117201bd,65d2b6c8f2eece985d8e374c,65d2b9a3424f1685f09383fd,0.025,0.025,1,85,247,46,1,fourtwo,,,,,,,,,,,,,,,,,,,,,,,,,,,,,,,,,,,,,,,,,,,,,,,,,,,,,,,,,,,,,,,,,,,,,,,,,,,,,,,,,,,,,,,,,,,,,,,,,,,,,,,,,,,,,,,,,,,,,,,,,,,,,,,,,,,,,,,,,
,,5d96a61b5d0f1c00117201bd,2024-02-19_03h19.00.087,kallum_motion_pilot,2023.2.2,Win32,144.092219,5d96a61b5d0f1c00117201bd,65d2b6c8f2eece985d8e374c,65d2b9a3424f1685f09383fd,0.025,0.025,1,86,248,99,1,sixeight,,,,,,,,,,,,,,,,,,,,,,,,,,,,,,,,,,,,,,,,,,,,,,,,,,,,,,,,,,,,,,,,,,,,,,,,,,,,,,,,,,,,,,,,,,,,,,,,,,,,,,,,,,,,,,,,,,,,,,,,,,,,,,,,,,,,,,,,,
,,5d96a61b5d0f1c00117201bd,2024-02-19_03h19.00.087,kallum_motion_pilot,2023.2.2,Win32,144.092219,5d96a61b5d0f1c00117201bd,65d2b6c8f2eece985d8e374c,65d2b9a3424f1685f09383fd,0.025,0.025,1,87,249,105,1,fiveseven,,,,,,,,,,,,,,,,,,,,,,,,,,,,,,,,,,,,,,,,,,,,,,,,,,,,,,,,,,,,,,,,,,,,,,,,,,,,,,,,,,,,,,,,,,,,,,,,,,,,,,,,,,,,,,,,,,,,,,,,,,,,,,,,,,,,,,,,,
,,5d96a61b5d0f1c00117201bd,2024-02-19_03h19.00.087,kallum_motion_pilot,2023.2.2,Win32,144.092219,5d96a61b5d0f1c00117201bd,65d2b6c8f2eece985d8e374c,65d2b9a3424f1685f09383fd,0.025,0.025,1,88,250,65,1,onethree,,,,,,,,,,,,,,,,,,,,,,,,,,,,,,,,,,,,,,,,,,,,,,,,,,,,,,,,,,,,,,,,,,,,,,,,,,,,,,,,,,,,,,,,,,,,,,,,,,,,,,,,,,,,,,,,,,,,,,,,,,,,,,,,,,,,,,,,,
,,5d96a61b5d0f1c00117201bd,2024-02-19_03h19.00.087,kallum_motion_pilot,2023.2.2,Win32,144.092219,5d96a61b5d0f1c00117201bd,65d2b6c8f2eece985d8e374c,65d2b9a3424f1685f09383fd,0.025,0.025,1,89,251,34,1,twoone,,,,,,,,,,,,,,,,,,,,,,,,,,,,,,,,,,,,,,,,,,,,,,,,,,,,,,,,,,,,,,,,,,,,,,,,,,,,,,,,,,,,,,,,,,,,,,,,,,,,,,,,,,,,,,,,,,,,,,,,,,,,,,,,,,,,,,,,,
,,5d96a61b5d0f1c00117201bd,2024-02-19_03h19.00.087,kallum_motion_pilot,2023.2.2,Win32,144.092219,5d96a61b5d0f1c00117201bd,65d2b6c8f2eece985d8e374c,65d2b9a3424f1685f09383fd,0.025,0.025,1,90,252,23,1,fourthree,,,,,,,,,,,,,,,,,,,,,,,,,,,,,,,,,,,,,,,,,,,,,,,,,,,,,,,,,,,,,,,,,,,,,,,,,,,,,,,,,,,,,,,,,,,,,,,,,,,,,,,,,,,,,,,,,,,,,,,,,,,,,,,,,,,,,,,,,
,,5d96a61b5d0f1c00117201bd,2024-02-19_03h19.00.087,kallum_motion_pilot,2023.2.2,Win32,144.092219,5d96a61b5d0f1c00117201bd,65d2b6c8f2eece985d8e374c,65d2b9a3424f1685f09383fd,0.025,0.025,1,91,253,44,1,threeone,,,,,,,,,,,,,,,,,,,,,,,,,,,,,,,,,,,,,,,,,,,,,,,,,,,,,,,,,,,,,,,,,,,,,,,,,,,,,,,,,,,,,,,,,,,,,,,,,,,,,,,,,,,,,,,,,,,,,,,,,,,,,,,,,,,,,,,,,
,,5d96a61b5d0f1c00117201bd,2024-02-19_03h19.00.087,kallum_motion_pilot,2023.2.2,Win32,144.092219,5d96a61b5d0f1c00117201bd,65d2b6c8f2eece985d8e374c,65d2b9a3424f1685f09383fd,0.025,0.025,1,92,254,151,1,eightseven,,,,,,,,,,,,,,,,,,,,,,,,,,,,,,,,,,,,,,,,,,,,,,,,,,,,,,,,,,,,,,,,,,,,,,,,,,,,,,,,,,,,,,,,,,,,,,,,,,,,,,,,,,,,,,,,,,,,,,,,,,,,,,,,,,,,,,,,,
,,5d96a61b5d0f1c00117201bd,2024-02-19_03h19.00.087,kallum_motion_pilot,2023.2.2,Win32,144.092219,5d96a61b5d0f1c00117201bd,65d2b6c8f2eece985d8e374c,65d2b9a3424f1685f09383fd,0.025,0.025,1,93,255,98,1,sixfive,,,,,,,,,,,,,,,,,,,,,,,,,,,,,,,,,,,,,,,,,,,,,,,,,,,,,,,,,,,,,,,,,,,,,,,,,,,,,,,,,,,,,,,,,,,,,,,,,,,,,,,,,,,,,,,,,,,,,,,,,,,,,,,,,,,,,,,,,
,,5d96a61b5d0f1c00117201bd,2024-02-19_03h19.00.087,kallum_motion_pilot,2023.2.2,Win32,144.092219,5d96a61b5d0f1c00117201bd,65d2b6c8f2eece985d8e374c,65d2b9a3424f1685f09383fd,0.025,0.025,1,94,256,154,1,sixfive,,,,,,,,,,,,,,,,,,,,,,,,,,,,,,,,,,,,,,,,,,,,,,,,,,,,,,,,,,,,,,,,,,,,,,,,,,,,,,,,,,,,,,,,,,,,,,,,,,,,,,,,,,,,,,,,,,,,,,,,,,,,,,,,,,,,,,,,,
,,5d96a61b5d0f1c00117201bd,2024-02-19_03h19.00.087,kallum_motion_pilot,2023.2.2,Win32,144.092219,5d96a61b5d0f1c00117201bd,65d2b6c8f2eece985d8e374c,65d2b9a3424f1685f09383fd,0.025,0.025,1,95,257,101,1,seveneight,,,,,,,,,,,,,,,,,,,,,,,,,,,,,,,,,,,,,,,,,,,,,,,,,,,,,,,,,,,,,,,,,,,,,,,,,,,,,,,,,,,,,,,,,,,,,,,,,,,,,,,,,,,,,,,,,,,,,,,,,,,,,,,,,,,,,,,,,
,,5d96a61b5d0f1c00117201bd,2024-02-19_03h19.00.087,kallum_motion_pilot,2023.2.2,Win32,144.092219,5d96a61b5d0f1c00117201bd,65d2b6c8f2eece985d8e374c,65d2b9a3424f1685f09383fd,0.025,0.025,1,96,258,118,1,eightsix,,,,,,,,,,,,,,,,,,,,,,,,,,,,,,,,,,,,,,,,,,,,,,,,,,,,,,,,,,,,,,,,,,,,,,,,,,,,,,,,,,,,,,,,,,,,,,,,,,,,,,,,,,,,,,,,,,,,,,,,,,,,,,,,,,,,,,,,,
,,5d96a61b5d0f1c00117201bd,2024-02-19_03h19.00.087,kallum_motion_pilot,2023.2.2,Win32,144.092219,5d96a61b5d0f1c00117201bd,65d2b6c8f2eece985d8e374c,65d2b9a3424f1685f09383fd,0.026,0.026,1,97,259,72,1,onetwo,,,,,,,,,,,,,,,,,,,,,,,,,,,,,,,,,,,,,,,,,,,,,,,,,,,,,,,,,,,,,,,,,,,,,,,,,,,,,,,,,,,,,,,,,,,,,,,,,,,,,,,,,,,,,,,,,,,,,,,,,,,,,,,,,,,,,,,,,
,,5d96a61b5d0f1c00117201bd,2024-02-19_03h19.00.087,kallum_motion_pilot,2023.2.2,Win32,144.092219,5d96a61b5d0f1c00117201bd,65d2b6c8f2eece985d8e374c,65d2b9a3424f1685f09383fd,0.026,0.026,1,98,260,30,1,fourtwo,,,,,,,,,,,,,,,,,,,,,,,,,,,,,,,,,,,,,,,,,,,,,,,,,,,,,,,,,,,,,,,,,,,,,,,,,,,,,,,,,,,,,,,,,,,,,,,,,,,,,,,,,,,,,,,,,,,,,,,,,,,,,,,,,,,,,,,,,
,,5d96a61b5d0f1c00117201bd,2024-02-19_03h19.00.087,kallum_motion_pilot,2023.2.2,Win32,144.092219,5d96a61b5d0f1c00117201bd,65d2b6c8f2eece985d8e374c,65d2b9a3424f1685f09383fd,0.026,0.026,1,99,261,4,1,threeone,,,,,,,,,,,,,,,,,,,,,,,,,,,,,,,,,,,,,,,,,,,,,,,,,,,,,,,,,,,,,,,,,,,,,,,,,,,,,,,,,,,,,,,,,,,,,,,,,,,,,,,,,,,,,,,,,,,,,,,,,,,,,,,,,,,,,,,,,
,,5d96a61b5d0f1c00117201bd,2024-02-19_03h19.00.087,kallum_motion_pilot,2023.2.2,Win32,144.092219,5d96a61b5d0f1c00117201bd,65d2b6c8f2eece985d8e374c,65d2b9a3424f1685f09383fd,0.026,0.026,1,100,262,8,1,onetwo,,,,,,,,,,,,,,,,,,,,,,,,,,,,,,,,,,,,,,,,,,,,,,,,,,,,,,,,,,,,,,,,,,,,,,,,,,,,,,,,,,,,,,,,,,,,,,,,,,,,,,,,,,,,,,,,,,,,,,,,,,,,,,,,,,,,,,,,,
,,5d96a61b5d0f1c00117201bd,2024-02-19_03h19.00.087,kallum_motion_pilot,2023.2.2,Win32,144.092219,5d96a61b5d0f1c00117201bd,65d2b6c8f2eece985d8e374c,65d2b9a3424f1685f09383fd,0.026,0.026,1,101,263,20,1,threeone,,,,,,,,,,,,,,,,,,,,,,,,,,,,,,,,,,,,,,,,,,,,,,,,,,,,,,,,,,,,,,,,,,,,,,,,,,,,,,,,,,,,,,,,,,,,,,,,,,,,,,,,,,,,,,,,,,,,,,,,,,,,,,,,,,,,,,,,,
,,5d96a61b5d0f1c00117201bd,2024-02-19_03h19.00.087,kallum_motion_pilot,2023.2.2,Win32,144.092219,5d96a61b5d0f1c00117201bd,65d2b6c8f2eece985d8e374c,65d2b9a3424f1685f09383fd,0.026,0.026,1,102,264,85,1,seveneight,,,,,,,,,,,,,,,,,,,,,,,,,,,,,,,,,,,,,,,,,,,,,,,,,,,,,,,,,,,,,,,,,,,,,,,,,,,,,,,,,,,,,,,,,,,,,,,,,,,,,,,,,,,,,,,,,,,,,,,,,,,,,,,,,,,,,,,,,
,,5d96a61b5d0f1c00117201bd,2024-02-19_03h19.00.087,kallum_motion_pilot,2023.2.2,Win32,144.092219,5d96a61b5d0f1c00117201bd,65d2b6c8f2eece985d8e374c,65d2b9a3424f1685f09383fd,0.026,0.026,1,103,265,110,1,eightsix,,,,,,,,,,,,,,,,,,,,,,,,,,,,,,,,,,,,,,,,,,,,,,,,,,,,,,,,,,,,,,,,,,,,,,,,,,,,,,,,,,,,,,,,,,,,,,,,,,,,,,,,,,,,,,,,,,,,,,,,,,,,,,,,,,,,,,,,,
,,5d96a61b5d0f1c00117201bd,2024-02-19_03h19.00.087,kallum_motion_pilot,2023.2.2,Win32,144.092219,5d96a61b5d0f1c00117201bd,65d2b6c8f2eece985d8e374c,65d2b9a3424f1685f09383fd,0.026,0.026,1,104,266,84,1,sevenfive,,,,,,,,,,,,,,,,,,,,,,,,,,,,,,,,,,,,,,,,,,,,,,,,,,,,,,,,,,,,,,,,,,,,,,,,,,,,,,,,,,,,,,,,,,,,,,,,,,,,,,,,,,,,,,,,,,,,,,,,,,,,,,,,,,,,,,,,,
,,5d96a61b5d0f1c00117201bd,2024-02-19_03h19.00.087,kallum_motion_pilot,2023.2.2,Win32,144.092219,5d96a61b5d0f1c00117201bd,65d2b6c8f2eece985d8e374c,65d2b9a3424f1685f09383fd,0.026,0.026,1,105,267,96,1,fivesix,,,,,,,,,,,,,,,,,,,,,,,,,,,,,,,,,,,,,,,,,,,,,,,,,,,,,,,,,,,,,,,,,,,,,,,,,,,,,,,,,,,,,,,,,,,,,,,,,,,,,,,,,,,,,,,,,,,,,,,,,,,,,,,,,,,,,,,,,
,,5d96a61b5d0f1c00117201bd,2024-02-19_03h19.00.087,kallum_motion_pilot,2023.2.2,Win32,144.092219,5d96a61b5d0f1c00117201bd,65d2b6c8f2eece985d8e374c,65d2b9a3424f1685f09383fd,0.026,0.026,1,106,268,24,1,onetwo,,,,,,,,,,,,,,,,,,,,,,,,,,,,,,,,,,,,,,,,,,,,,,,,,,,,,,,,,,,,,,,,,,,,,,,,,,,,,,,,,,,,,,,,,,,,,,,,,,,,,,,,,,,,,,,,,,,,,,,,,,,,,,,,,,,,,,,,,
,,5d96a61b5d0f1c00117201bd,2024-02-19_03h19.00.087,kallum_motion_pilot,2023.2.2,Win32,144.092219,5d96a61b5d0f1c00117201bd,65d2b6c8f2eece985d8e374c,65d2b9a3424f1685f09383fd,0.029,0.029,1,107,269,128,1,fivesix,,,,,,,,,,,,,,,,,,,,,,,,,,,,,,,,,,,,,,,,,,,,,,,,,,,,,,,,,,,,,,,,,,,,,,,,,,,,,,,,,,,,,,,,,,,,,,,,,,,,,,,,,,,,,,,,,,,,,,,,,,,,,,,,,,,,,,,,,
,,5d96a61b5d0f1c00117201bd,2024-02-19_03h19.00.087,kallum_motion_pilot,2023.2.2,Win32,144.092219,5d96a61b5d0f1c00117201bd,65d2b6c8f2eece985d8e374c,65d2b9a3424f1685f09383fd,0.029,0.029,1,108,270,19,1,twofour,,,,,,,,,,,,,,,,,,,,,,,,,,,,,,,,,,,,,,,,,,,,,,,,,,,,,,,,,,,,,,,,,,,,,,,,,,,,,,,,,,,,,,,,,,,,,,,,,,,,,,,,,,,,,,,,,,,,,,,,,,,,,,,,,,,,,,,,,
,,5d96a61b5d0f1c00117201bd,2024-02-19_03h19.00.087,kallum_motion_pilot,2023.2.2,Win32,144.092219,5d96a61b5d0f1c00117201bd,65d2b6c8f2eece985d8e374c,65d2b9a3424f1685f09383fd,0.029,0.029,1,109,271,137,1,fiveseven,,,,,,,,,,,,,,,,,,,,,,,,,,,,,,,,,,,,,,,,,,,,,,,,,,,,,,,,,,,,,,,,,,,,,,,,,,,,,,,,,,,,,,,,,,,,,,,,,,,,,,,,,,,,,,,,,,,,,,,,,,,,,,,,,,,,,,,,,
,,5d96a61b5d0f1c00117201bd,2024-02-19_03h19.00.087,kallum_motion_pilot,2023.2.2,Win32,144.092219,5d96a61b5d0f1c00117201bd,65d2b6c8f2eece985d8e374c,65d2b9a3424f1685f09383fd,0.029,0.029,1,110,272,91,1,sixeight,,,,,,,,,,,,,,,,,,,,,,,,,,,,,,,,,,,,,,,,,,,,,,,,,,,,,,,,,,,,,,,,,,,,,,,,,,,,,,,,,,,,,,,,,,,,,,,,,,,,,,,,,,,,,,,,,,,,,,,,,,,,,,,,,,,,,,,,,
,,5d96a61b5d0f1c00117201bd,2024-02-19_03h19.00.087,kallum_motion_pilot,2023.2.2,Win32,144.092219,5d96a61b5d0f1c00117201bd,65d2b6c8f2eece985d8e374c,65d2b9a3424f1685f09383fd,0.029,0.029,1,111,273,66,1,twoone,,,,,,,,,,,,,,,,,,,,,,,,,,,,,,,,,,,,,,,,,,,,,,,,,,,,,,,,,,,,,,,,,,,,,,,,,,,,,,,,,,,,,,,,,,,,,,,,,,,,,,,,,,,,,,,,,,,,,,,,,,,,,,,,,,,,,,,,,
,,5d96a61b5d0f1c00117201bd,2024-02-19_03h19.00.087,kallum_motion_pilot,2023.2.2,Win32,144.092219,5d96a61b5d0f1c00117201bd,65d2b6c8f2eece985d8e374c,65d2b9a3424f1685f09383fd,0.029,0.029,1,112,274,132,1,sevenfive,,,,,,,,,,,,,,,,,,,,,,,,,,,,,,,,,,,,,,,,,,,,,,,,,,,,,,,,,,,,,,,,,,,,,,,,,,,,,,,,,,,,,,,,,,,,,,,,,,,,,,,,,,,,,,,,,,,,,,,,,,,,,,,,,,,,,,,,,
,,5d96a61b5d0f1c00117201bd,2024-02-19_03h19.00.087,kallum_motion_pilot,2023.2.2,Win32,144.092219,5d96a61b5d0f1c00117201bd,65d2b6c8f2eece985d8e374c,65d2b9a3424f1685f09383fd,0.029,0.029,1,113,275,114,1,sixfive,,,,,,,,,,,,,,,,,,,,,,,,,,,,,,,,,,,,,,,,,,,,,,,,,,,,,,,,,,,,,,,,,,,,,,,,,,,,,,,,,,,,,,,,,,,,,,,,,,,,,,,,,,,,,,,,,,,,,,,,,,,,,,,,,,,,,,,,,
,,5d96a61b5d0f1c00117201bd,2024-02-19_03h19.00.087,kallum_motion_pilot,2023.2.2,Win32,144.092219,5d96a61b5d0f1c00117201bd,65d2b6c8f2eece985d8e374c,65d2b9a3424f1685f09383fd,0.029,0.029,1,114,276,93,1,seveneight,,,,,,,,,,,,,,,,,,,,,,,,,,,,,,,,,,,,,,,,,,,,,,,,,,,,,,,,,,,,,,,,,,,,,,,,,,,,,,,,,,,,,,,,,,,,,,,,,,,,,,,,,,,,,,,,,,,,,,,,,,,,,,,,,,,,,,,,,
,,5d96a61b5d0f1c00117201bd,2024-02-19_03h19.00.087,kallum_motion_pilot,2023.2.2,Win32,144.092219,5d96a61b5d0f1c00117201bd,65d2b6c8f2eece985d8e374c,65d2b9a3424f1685f09383fd,0.029,0.029,1,115,277,100,1,sevenfive,,,,,,,,,,,,,,,,,,,,,,,,,,,,,,,,,,,,,,,,,,,,,,,,,,,,,,,,,,,,,,,,,,,,,,,,,,,,,,,,,,,,,,,,,,,,,,,,,,,,,,,,,,,,,,,,,,,,,,,,,,,,,,,,,,,,,,,,,
,,5d96a61b5d0f1c00117201bd,2024-02-19_03h19.00.087,kallum_motion_pilot,2023.2.2,Win32,144.092219,5d96a61b5d0f1c00117201bd,65d2b6c8f2eece985d8e374c,65d2b9a3424f1685f09383fd,0.029,0.029,1,116,278,22,1,fourtwo,,,,,,,,,,,,,,,,,,,,,,,,,,,,,,,,,,,,,,,,,,,,,,,,,,,,,,,,,,,,,,,,,,,,,,,,,,,,,,,,,,,,,,,,,,,,,,,,,,,,,,,,,,,,,,,,,,,,,,,,,,,,,,,,,,,,,,,,,
,,5d96a61b5d0f1c00117201bd,2024-02-19_03h19.00.087,kallum_motion_pilot,2023.2.2,Win32,144.092219,5d96a61b5d0f1c00117201bd,65d2b6c8f2eece985d8e374c,65d2b9a3424f1685f09383fd,0.029,0.029,1,117,279,89,1,fiveseven,,,,,,,,,,,,,,,,,,,,,,,,,,,,,,,,,,,,,,,,,,,,,,,,,,,,,,,,,,,,,,,,,,,,,,,,,,,,,,,,,,,,,,,,,,,,,,,,,,,,,,,,,,,,,,,,,,,,,,,,,,,,,,,,,,,,,,,,,
,,5d96a61b5d0f1c00117201bd,2024-02-19_03h19.00.087,kallum_motion_pilot,2023.2.2,Win32,144.092219,5d96a61b5d0f1c00117201bd,65d2b6c8f2eece985d8e374c,65d2b9a3424f1685f09383fd,0.029,0.029,1,118,280,112,1,fivesix,,,,,,,,,,,,,,,,,,,,,,,,,,,,,,,,,,,,,,,,,,,,,,,,,,,,,,,,,,,,,,,,,,,,,,,,,,,,,,,,,,,,,,,,,,,,,,,,,,,,,,,,,,,,,,,,,,,,,,,,,,,,,,,,,,,,,,,,,
