startup.started,startup.stopped,Prolific ID*,date,expName,psychopyVersion,OS,frameRate,participant,study_id,session,stimpositions.started,stimpositions.stopped,hardcoded_stimulus_positions.thisRepN,hardcoded_stimulus_positions.thisTrialN,hardcoded_stimulus_positions.thisN,hardcoded_stimulus_positions.thisIndex,hardcoded_stimulus_positions.ran,StimulusPos,stimorientation.started,stimorientation.stopped,prac_stimorientation_import_loop.thisRepN,prac_stimorientation_import_loop.thisTrialN,prac_stimorientation_import_loop.thisN,prac_stimorientation_import_loop.thisIndex,prac_stimorientation_import_loop.ran,Stimorientation,welcome_instr.started,welcome_instr.stopped,key_resp.keys,key_resp.rt,key_resp.duration,response_steppedout_1.started,response_steppedout_1.stopped,key_resp_20.keys,key_resp_20.rt,key_resp_20.duration,response_steppedout_2.started,response_steppedout_2.stopped,key_resp_19.keys,key_resp_19.rt,key_resp_19.duration,stim_response_instr.started,stim_response_instr.stopped,key_resp_15.keys,key_resp_15.rt,key_resp_15.duration,direction_instr_2.started,direction_instr_2.stopped,key_resp_9.keys,key_resp_9.rt,key_resp_9.duration,instr_prac.started,instr_prac.stopped,key_resp_10.keys,key_resp_10.rt,key_resp_10.duration,Stim1_display_prac.started,Stim1_display_prac.stopped,Ecc,Circle1_ori,Circle2_ori,response_prac.started,similarity,response_time,response_prac.stopped,mouse_5.x,mouse_5.y,mouse_5.leftButton,mouse_5.midButton,mouse_5.rightButton,mouse_5.clicked_name,responseprac_feedback.started,responseprac_feedback.stopped,summary2_prac.started,summary2_prac.stopped,mouse_6.x,mouse_6.y,mouse_6.leftButton,mouse_6.midButton,mouse_6.rightButton,mouse_6.clicked_name,duringprac.thisRepN,duringprac.thisTrialN,duringprac.thisN,duringprac.thisIndex,duringprac.ran,begin.started,begin.stopped,key_resp_22.keys,key_resp_22.rt,key_resp_22.duration,Stim1_display.started,Stim1_display.stopped,circle1_ori,circle2_ori,circle1_SF,circle2_SF,response.started,response.stopped,mouse.x,mouse.y,mouse.leftButton,mouse.midButton,mouse.rightButton,mouse.clicked_name,trialnumber,double_pass.thisRepN,double_pass.thisTrialN,double_pass.thisN,double_pass.thisIndex,double_pass.ran,double_pass.order,main_trial.thisRepN,main_trial.thisTrialN,main_trial.thisN,main_trial.thisIndex,main_trial.ran,main_trial.order,Trial_Counter,Catch,Frequencies,response_2.started,response_2.stopped,mouse_2.x,mouse_2.y,mouse_2.leftButton,mouse_2.midButton,mouse_2.rightButton,mouse_2.clicked_name,special_trial.started,special_trial.stopped,catch_1.started,catch_1.stopped,mouse_3.x,mouse_3.y,mouse_3.leftButton,mouse_3.midButton,mouse_3.rightButton,catchresponse,catchnumber,response_time_catch,response_sum.started,response_sum.stopped,mouse_11.x,mouse_11.y,mouse_11.leftButton,mouse_11.midButton,mouse_11.rightButton,flip_presentation_sequence_for_double_pass.started,flip_presentation_sequence_for_double_pass.stopped,goodbye.started,goodbye.stopped,key_resp_3.keys,key_resp_3.rt,key_resp_3.duration
0.002,0.002,5de18a6fc3a15e1e4432adb8,2024-02-22_03h24.47.902,kallum_motion_pilot,2023.2.2,Linux x86_64,62.5,5de18a6fc3a15e1e4432adb8,65d6bb0e977760de756971f7,65d6be71a834b53c8a8f287b,,,,,,,,,,,,,,,,,,,,,,,,,,,,,,,,,,,,,,,,,,,,,,,,,,,,,,,,,,,,,,,,,,,,,,,,,,,,,,,,,,,,,,,,,,,,,,,,,,,,,,,,,,,,,,,,,,,,,,,,,,,,,,,,,,,,,,,,,,,,,,,,,
,,5de18a6fc3a15e1e4432adb8,2024-02-22_03h24.47.902,kallum_motion_pilot,2023.2.2,Linux x86_64,62.5,5de18a6fc3a15e1e4432adb8,65d6bb0e977760de756971f7,65d6be71a834b53c8a8f287b,0.018,0.018,0,0,0,146,1,sixfive,,,,,,,,,,,,,,,,,,,,,,,,,,,,,,,,,,,,,,,,,,,,,,,,,,,,,,,,,,,,,,,,,,,,,,,,,,,,,,,,,,,,,,,,,,,,,,,,,,,,,,,,,,,,,,,,,,,,,,,,,,,,,,,,,,,,,,,,,
,,5de18a6fc3a15e1e4432adb8,2024-02-22_03h24.47.902,kallum_motion_pilot,2023.2.2,Linux x86_64,62.5,5de18a6fc3a15e1e4432adb8,65d6bb0e977760de756971f7,65d6be71a834b53c8a8f287b,0.018,0.018,0,1,1,23,1,fourthree,,,,,,,,,,,,,,,,,,,,,,,,,,,,,,,,,,,,,,,,,,,,,,,,,,,,,,,,,,,,,,,,,,,,,,,,,,,,,,,,,,,,,,,,,,,,,,,,,,,,,,,,,,,,,,,,,,,,,,,,,,,,,,,,,,,,,,,,,
,,5de18a6fc3a15e1e4432adb8,2024-02-22_03h24.47.902,kallum_motion_pilot,2023.2.2,Linux x86_64,62.5,5de18a6fc3a15e1e4432adb8,65d6bb0e977760de756971f7,65d6be71a834b53c8a8f287b,0.018,0.018,0,2,2,156,1,sevenfive,,,,,,,,,,,,,,,,,,,,,,,,,,,,,,,,,,,,,,,,,,,,,,,,,,,,,,,,,,,,,,,,,,,,,,,,,,,,,,,,,,,,,,,,,,,,,,,,,,,,,,,,,,,,,,,,,,,,,,,,,,,,,,,,,,,,,,,,,
,,5de18a6fc3a15e1e4432adb8,2024-02-22_03h24.47.902,kallum_motion_pilot,2023.2.2,Linux x86_64,62.5,5de18a6fc3a15e1e4432adb8,65d6bb0e977760de756971f7,65d6be71a834b53c8a8f287b,0.019,0.019,0,3,3,151,1,eightseven,,,,,,,,,,,,,,,,,,,,,,,,,,,,,,,,,,,,,,,,,,,,,,,,,,,,,,,,,,,,,,,,,,,,,,,,,,,,,,,,,,,,,,,,,,,,,,,,,,,,,,,,,,,,,,,,,,,,,,,,,,,,,,,,,,,,,,,,,
,,5de18a6fc3a15e1e4432adb8,2024-02-22_03h24.47.902,kallum_motion_pilot,2023.2.2,Linux x86_64,62.5,5de18a6fc3a15e1e4432adb8,65d6bb0e977760de756971f7,65d6be71a834b53c8a8f287b,0.019,0.019,0,4,4,58,1,twoone,,,,,,,,,,,,,,,,,,,,,,,,,,,,,,,,,,,,,,,,,,,,,,,,,,,,,,,,,,,,,,,,,,,,,,,,,,,,,,,,,,,,,,,,,,,,,,,,,,,,,,,,,,,,,,,,,,,,,,,,,,,,,,,,,,,,,,,,,
,,5de18a6fc3a15e1e4432adb8,2024-02-22_03h24.47.902,kallum_motion_pilot,2023.2.2,Linux x86_64,62.5,5de18a6fc3a15e1e4432adb8,65d6bb0e977760de756971f7,65d6be71a834b53c8a8f287b,0.019,0.019,0,5,5,144,1,fivesix,,,,,,,,,,,,,,,,,,,,,,,,,,,,,,,,,,,,,,,,,,,,,,,,,,,,,,,,,,,,,,,,,,,,,,,,,,,,,,,,,,,,,,,,,,,,,,,,,,,,,,,,,,,,,,,,,,,,,,,,,,,,,,,,,,,,,,,,,
,,5de18a6fc3a15e1e4432adb8,2024-02-22_03h24.47.902,kallum_motion_pilot,2023.2.2,Linux x86_64,62.5,5de18a6fc3a15e1e4432adb8,65d6bb0e977760de756971f7,65d6be71a834b53c8a8f287b,0.019,0.019,0,6,6,129,1,fiveseven,,,,,,,,,,,,,,,,,,,,,,,,,,,,,,,,,,,,,,,,,,,,,,,,,,,,,,,,,,,,,,,,,,,,,,,,,,,,,,,,,,,,,,,,,,,,,,,,,,,,,,,,,,,,,,,,,,,,,,,,,,,,,,,,,,,,,,,,,
,,5de18a6fc3a15e1e4432adb8,2024-02-22_03h24.47.902,kallum_motion_pilot,2023.2.2,Linux x86_64,62.5,5de18a6fc3a15e1e4432adb8,65d6bb0e977760de756971f7,65d6be71a834b53c8a8f287b,0.019,0.019,0,7,7,69,1,threefour,,,,,,,,,,,,,,,,,,,,,,,,,,,,,,,,,,,,,,,,,,,,,,,,,,,,,,,,,,,,,,,,,,,,,,,,,,,,,,,,,,,,,,,,,,,,,,,,,,,,,,,,,,,,,,,,,,,,,,,,,,,,,,,,,,,,,,,,,
,,5de18a6fc3a15e1e4432adb8,2024-02-22_03h24.47.902,kallum_motion_pilot,2023.2.2,Linux x86_64,62.5,5de18a6fc3a15e1e4432adb8,65d6bb0e977760de756971f7,65d6be71a834b53c8a8f287b,0.019,0.019,0,8,8,86,1,eightsix,,,,,,,,,,,,,,,,,,,,,,,,,,,,,,,,,,,,,,,,,,,,,,,,,,,,,,,,,,,,,,,,,,,,,,,,,,,,,,,,,,,,,,,,,,,,,,,,,,,,,,,,,,,,,,,,,,,,,,,,,,,,,,,,,,,,,,,,,
,,5de18a6fc3a15e1e4432adb8,2024-02-22_03h24.47.902,kallum_motion_pilot,2023.2.2,Linux x86_64,62.5,5de18a6fc3a15e1e4432adb8,65d6bb0e977760de756971f7,65d6be71a834b53c8a8f287b,0.019,0.019,0,9,9,47,1,fourthree,,,,,,,,,,,,,,,,,,,,,,,,,,,,,,,,,,,,,,,,,,,,,,,,,,,,,,,,,,,,,,,,,,,,,,,,,,,,,,,,,,,,,,,,,,,,,,,,,,,,,,,,,,,,,,,,,,,,,,,,,,,,,,,,,,,,,,,,,
,,5de18a6fc3a15e1e4432adb8,2024-02-22_03h24.47.902,kallum_motion_pilot,2023.2.2,Linux x86_64,62.5,5de18a6fc3a15e1e4432adb8,65d6bb0e977760de756971f7,65d6be71a834b53c8a8f287b,0.019,0.019,0,10,10,111,1,eightseven,,,,,,,,,,,,,,,,,,,,,,,,,,,,,,,,,,,,,,,,,,,,,,,,,,,,,,,,,,,,,,,,,,,,,,,,,,,,,,,,,,,,,,,,,,,,,,,,,,,,,,,,,,,,,,,,,,,,,,,,,,,,,,,,,,,,,,,,,
,,5de18a6fc3a15e1e4432adb8,2024-02-22_03h24.47.902,kallum_motion_pilot,2023.2.2,Linux x86_64,62.5,5de18a6fc3a15e1e4432adb8,65d6bb0e977760de756971f7,65d6be71a834b53c8a8f287b,0.019,0.019,0,11,11,101,1,seveneight,,,,,,,,,,,,,,,,,,,,,,,,,,,,,,,,,,,,,,,,,,,,,,,,,,,,,,,,,,,,,,,,,,,,,,,,,,,,,,,,,,,,,,,,,,,,,,,,,,,,,,,,,,,,,,,,,,,,,,,,,,,,,,,,,,,,,,,,,
,,5de18a6fc3a15e1e4432adb8,2024-02-22_03h24.47.902,kallum_motion_pilot,2023.2.2,Linux x86_64,62.5,5de18a6fc3a15e1e4432adb8,65d6bb0e977760de756971f7,65d6be71a834b53c8a8f287b,0.019,0.019,0,12,12,52,1,threeone,,,,,,,,,,,,,,,,,,,,,,,,,,,,,,,,,,,,,,,,,,,,,,,,,,,,,,,,,,,,,,,,,,,,,,,,,,,,,,,,,,,,,,,,,,,,,,,,,,,,,,,,,,,,,,,,,,,,,,,,,,,,,,,,,,,,,,,,,
,,5de18a6fc3a15e1e4432adb8,2024-02-22_03h24.47.902,kallum_motion_pilot,2023.2.2,Linux x86_64,62.5,5de18a6fc3a15e1e4432adb8,65d6bb0e977760de756971f7,65d6be71a834b53c8a8f287b,0.02,0.02,0,13,13,66,1,twoone,,,,,,,,,,,,,,,,,,,,,,,,,,,,,,,,,,,,,,,,,,,,,,,,,,,,,,,,,,,,,,,,,,,,,,,,,,,,,,,,,,,,,,,,,,,,,,,,,,,,,,,,,,,,,,,,,,,,,,,,,,,,,,,,,,,,,,,,,
,,5de18a6fc3a15e1e4432adb8,2024-02-22_03h24.47.902,kallum_motion_pilot,2023.2.2,Linux x86_64,62.5,5de18a6fc3a15e1e4432adb8,65d6bb0e977760de756971f7,65d6be71a834b53c8a8f287b,0.02,0.02,0,14,14,119,1,eightseven,,,,,,,,,,,,,,,,,,,,,,,,,,,,,,,,,,,,,,,,,,,,,,,,,,,,,,,,,,,,,,,,,,,,,,,,,,,,,,,,,,,,,,,,,,,,,,,,,,,,,,,,,,,,,,,,,,,,,,,,,,,,,,,,,,,,,,,,,
,,5de18a6fc3a15e1e4432adb8,2024-02-22_03h24.47.902,kallum_motion_pilot,2023.2.2,Linux x86_64,62.5,5de18a6fc3a15e1e4432adb8,65d6bb0e977760de756971f7,65d6be71a834b53c8a8f287b,0.02,0.02,0,15,15,20,1,threeone,,,,,,,,,,,,,,,,,,,,,,,,,,,,,,,,,,,,,,,,,,,,,,,,,,,,,,,,,,,,,,,,,,,,,,,,,,,,,,,,,,,,,,,,,,,,,,,,,,,,,,,,,,,,,,,,,,,,,,,,,,,,,,,,,,,,,,,,,
,,5de18a6fc3a15e1e4432adb8,2024-02-22_03h24.47.902,kallum_motion_pilot,2023.2.2,Linux x86_64,62.5,5de18a6fc3a15e1e4432adb8,65d6bb0e977760de756971f7,65d6be71a834b53c8a8f287b,0.02,0.02,0,16,16,36,1,threeone,,,,,,,,,,,,,,,,,,,,,,,,,,,,,,,,,,,,,,,,,,,,,,,,,,,,,,,,,,,,,,,,,,,,,,,,,,,,,,,,,,,,,,,,,,,,,,,,,,,,,,,,,,,,,,,,,,,,,,,,,,,,,,,,,,,,,,,,,
,,5de18a6fc3a15e1e4432adb8,2024-02-22_03h24.47.902,kallum_motion_pilot,2023.2.2,Linux x86_64,62.5,5de18a6fc3a15e1e4432adb8,65d6bb0e977760de756971f7,65d6be71a834b53c8a8f287b,0.02,0.02,0,17,17,105,1,fiveseven,,,,,,,,,,,,,,,,,,,,,,,,,,,,,,,,,,,,,,,,,,,,,,,,,,,,,,,,,,,,,,,,,,,,,,,,,,,,,,,,,,,,,,,,,,,,,,,,,,,,,,,,,,,,,,,,,,,,,,,,,,,,,,,,,,,,,,,,,
,,5de18a6fc3a15e1e4432adb8,2024-02-22_03h24.47.902,kallum_motion_pilot,2023.2.2,Linux x86_64,62.5,5de18a6fc3a15e1e4432adb8,65d6bb0e977760de756971f7,65d6be71a834b53c8a8f287b,0.02,0.02,0,18,18,159,1,eightseven,,,,,,,,,,,,,,,,,,,,,,,,,,,,,,,,,,,,,,,,,,,,,,,,,,,,,,,,,,,,,,,,,,,,,,,,,,,,,,,,,,,,,,,,,,,,,,,,,,,,,,,,,,,,,,,,,,,,,,,,,,,,,,,,,,,,,,,,,
,,5de18a6fc3a15e1e4432adb8,2024-02-22_03h24.47.902,kallum_motion_pilot,2023.2.2,Linux x86_64,62.5,5de18a6fc3a15e1e4432adb8,65d6bb0e977760de756971f7,65d6be71a834b53c8a8f287b,0.02,0.02,0,19,19,122,1,sixfive,,,,,,,,,,,,,,,,,,,,,,,,,,,,,,,,,,,,,,,,,,,,,,,,,,,,,,,,,,,,,,,,,,,,,,,,,,,,,,,,,,,,,,,,,,,,,,,,,,,,,,,,,,,,,,,,,,,,,,,,,,,,,,,,,,,,,,,,,
,,5de18a6fc3a15e1e4432adb8,2024-02-22_03h24.47.902,kallum_motion_pilot,2023.2.2,Linux x86_64,62.5,5de18a6fc3a15e1e4432adb8,65d6bb0e977760de756971f7,65d6be71a834b53c8a8f287b,0.02,0.02,0,20,20,49,1,onethree,,,,,,,,,,,,,,,,,,,,,,,,,,,,,,,,,,,,,,,,,,,,,,,,,,,,,,,,,,,,,,,,,,,,,,,,,,,,,,,,,,,,,,,,,,,,,,,,,,,,,,,,,,,,,,,,,,,,,,,,,,,,,,,,,,,,,,,,,
,,5de18a6fc3a15e1e4432adb8,2024-02-22_03h24.47.902,kallum_motion_pilot,2023.2.2,Linux x86_64,62.5,5de18a6fc3a15e1e4432adb8,65d6bb0e977760de756971f7,65d6be71a834b53c8a8f287b,0.02,0.02,0,21,21,125,1,seveneight,,,,,,,,,,,,,,,,,,,,,,,,,,,,,,,,,,,,,,,,,,,,,,,,,,,,,,,,,,,,,,,,,,,,,,,,,,,,,,,,,,,,,,,,,,,,,,,,,,,,,,,,,,,,,,,,,,,,,,,,,,,,,,,,,,,,,,,,,
,,5de18a6fc3a15e1e4432adb8,2024-02-22_03h24.47.902,kallum_motion_pilot,2023.2.2,Linux x86_64,62.5,5de18a6fc3a15e1e4432adb8,65d6bb0e977760de756971f7,65d6be71a834b53c8a8f287b,0.021,0.021,0,22,22,96,1,fivesix,,,,,,,,,,,,,,,,,,,,,,,,,,,,,,,,,,,,,,,,,,,,,,,,,,,,,,,,,,,,,,,,,,,,,,,,,,,,,,,,,,,,,,,,,,,,,,,,,,,,,,,,,,,,,,,,,,,,,,,,,,,,,,,,,,,,,,,,,
,,5de18a6fc3a15e1e4432adb8,2024-02-22_03h24.47.902,kallum_motion_pilot,2023.2.2,Linux x86_64,62.5,5de18a6fc3a15e1e4432adb8,65d6bb0e977760de756971f7,65d6be71a834b53c8a8f287b,0.021,0.021,0,23,23,77,1,threefour,,,,,,,,,,,,,,,,,,,,,,,,,,,,,,,,,,,,,,,,,,,,,,,,,,,,,,,,,,,,,,,,,,,,,,,,,,,,,,,,,,,,,,,,,,,,,,,,,,,,,,,,,,,,,,,,,,,,,,,,,,,,,,,,,,,,,,,,,
,,5de18a6fc3a15e1e4432adb8,2024-02-22_03h24.47.902,kallum_motion_pilot,2023.2.2,Linux x86_64,62.5,5de18a6fc3a15e1e4432adb8,65d6bb0e977760de756971f7,65d6be71a834b53c8a8f287b,0.021,0.021,0,24,24,114,1,sixfive,,,,,,,,,,,,,,,,,,,,,,,,,,,,,,,,,,,,,,,,,,,,,,,,,,,,,,,,,,,,,,,,,,,,,,,,,,,,,,,,,,,,,,,,,,,,,,,,,,,,,,,,,,,,,,,,,,,,,,,,,,,,,,,,,,,,,,,,,
,,5de18a6fc3a15e1e4432adb8,2024-02-22_03h24.47.902,kallum_motion_pilot,2023.2.2,Linux x86_64,62.5,5de18a6fc3a15e1e4432adb8,65d6bb0e977760de756971f7,65d6be71a834b53c8a8f287b,0.021,0.021,0,25,25,42,1,twoone,,,,,,,,,,,,,,,,,,,,,,,,,,,,,,,,,,,,,,,,,,,,,,,,,,,,,,,,,,,,,,,,,,,,,,,,,,,,,,,,,,,,,,,,,,,,,,,,,,,,,,,,,,,,,,,,,,,,,,,,,,,,,,,,,,,,,,,,,
,,5de18a6fc3a15e1e4432adb8,2024-02-22_03h24.47.902,kallum_motion_pilot,2023.2.2,Linux x86_64,62.5,5de18a6fc3a15e1e4432adb8,65d6bb0e977760de756971f7,65d6be71a834b53c8a8f287b,0.021,0.021,0,26,26,35,1,twofour,,,,,,,,,,,,,,,,,,,,,,,,,,,,,,,,,,,,,,,,,,,,,,,,,,,,,,,,,,,,,,,,,,,,,,,,,,,,,,,,,,,,,,,,,,,,,,,,,,,,,,,,,,,,,,,,,,,,,,,,,,,,,,,,,,,,,,,,,
,,5de18a6fc3a15e1e4432adb8,2024-02-22_03h24.47.902,kallum_motion_pilot,2023.2.2,Linux x86_64,62.5,5de18a6fc3a15e1e4432adb8,65d6bb0e977760de756971f7,65d6be71a834b53c8a8f287b,0.021,0.021,0,27,27,89,1,fiveseven,,,,,,,,,,,,,,,,,,,,,,,,,,,,,,,,,,,,,,,,,,,,,,,,,,,,,,,,,,,,,,,,,,,,,,,,,,,,,,,,,,,,,,,,,,,,,,,,,,,,,,,,,,,,,,,,,,,,,,,,,,,,,,,,,,,,,,,,,
,,5de18a6fc3a15e1e4432adb8,2024-02-22_03h24.47.902,kallum_motion_pilot,2023.2.2,Linux x86_64,62.5,5de18a6fc3a15e1e4432adb8,65d6bb0e977760de756971f7,65d6be71a834b53c8a8f287b,0.021,0.021,0,28,28,34,1,twoone,,,,,,,,,,,,,,,,,,,,,,,,,,,,,,,,,,,,,,,,,,,,,,,,,,,,,,,,,,,,,,,,,,,,,,,,,,,,,,,,,,,,,,,,,,,,,,,,,,,,,,,,,,,,,,,,,,,,,,,,,,,,,,,,,,,,,,,,,
,,5de18a6fc3a15e1e4432adb8,2024-02-22_03h24.47.902,kallum_motion_pilot,2023.2.2,Linux x86_64,62.5,5de18a6fc3a15e1e4432adb8,65d6bb0e977760de756971f7,65d6be71a834b53c8a8f287b,0.022,0.022,0,29,29,115,1,sixeight,,,,,,,,,,,,,,,,,,,,,,,,,,,,,,,,,,,,,,,,,,,,,,,,,,,,,,,,,,,,,,,,,,,,,,,,,,,,,,,,,,,,,,,,,,,,,,,,,,,,,,,,,,,,,,,,,,,,,,,,,,,,,,,,,,,,,,,,,
,,5de18a6fc3a15e1e4432adb8,2024-02-22_03h24.47.902,kallum_motion_pilot,2023.2.2,Linux x86_64,62.5,5de18a6fc3a15e1e4432adb8,65d6bb0e977760de756971f7,65d6be71a834b53c8a8f287b,0.022,0.022,0,30,30,124,1,sevenfive,,,,,,,,,,,,,,,,,,,,,,,,,,,,,,,,,,,,,,,,,,,,,,,,,,,,,,,,,,,,,,,,,,,,,,,,,,,,,,,,,,,,,,,,,,,,,,,,,,,,,,,,,,,,,,,,,,,,,,,,,,,,,,,,,,,,,,,,,
,,5de18a6fc3a15e1e4432adb8,2024-02-22_03h24.47.902,kallum_motion_pilot,2023.2.2,Linux x86_64,62.5,5de18a6fc3a15e1e4432adb8,65d6bb0e977760de756971f7,65d6be71a834b53c8a8f287b,0.022,0.022,0,31,31,134,1,eightsix,,,,,,,,,,,,,,,,,,,,,,,,,,,,,,,,,,,,,,,,,,,,,,,,,,,,,,,,,,,,,,,,,,,,,,,,,,,,,,,,,,,,,,,,,,,,,,,,,,,,,,,,,,,,,,,,,,,,,,,,,,,,,,,,,,,,,,,,,
,,5de18a6fc3a15e1e4432adb8,2024-02-22_03h24.47.902,kallum_motion_pilot,2023.2.2,Linux x86_64,62.5,5de18a6fc3a15e1e4432adb8,65d6bb0e977760de756971f7,65d6be71a834b53c8a8f287b,0.022,0.022,0,32,32,1,1,onethree,,,,,,,,,,,,,,,,,,,,,,,,,,,,,,,,,,,,,,,,,,,,,,,,,,,,,,,,,,,,,,,,,,,,,,,,,,,,,,,,,,,,,,,,,,,,,,,,,,,,,,,,,,,,,,,,,,,,,,,,,,,,,,,,,,,,,,,,,
,,5de18a6fc3a15e1e4432adb8,2024-02-22_03h24.47.902,kallum_motion_pilot,2023.2.2,Linux x86_64,62.5,5de18a6fc3a15e1e4432adb8,65d6bb0e977760de756971f7,65d6be71a834b53c8a8f287b,0.022,0.022,0,33,33,148,1,sevenfive,,,,,,,,,,,,,,,,,,,,,,,,,,,,,,,,,,,,,,,,,,,,,,,,,,,,,,,,,,,,,,,,,,,,,,,,,,,,,,,,,,,,,,,,,,,,,,,,,,,,,,,,,,,,,,,,,,,,,,,,,,,,,,,,,,,,,,,,,
,,5de18a6fc3a15e1e4432adb8,2024-02-22_03h24.47.902,kallum_motion_pilot,2023.2.2,Linux x86_64,62.5,5de18a6fc3a15e1e4432adb8,65d6bb0e977760de756971f7,65d6be71a834b53c8a8f287b,0.022,0.022,0,34,34,130,1,sixfive,,,,,,,,,,,,,,,,,,,,,,,,,,,,,,,,,,,,,,,,,,,,,,,,,,,,,,,,,,,,,,,,,,,,,,,,,,,,,,,,,,,,,,,,,,,,,,,,,,,,,,,,,,,,,,,,,,,,,,,,,,,,,,,,,,,,,,,,,
,,5de18a6fc3a15e1e4432adb8,2024-02-22_03h24.47.902,kallum_motion_pilot,2023.2.2,Linux x86_64,62.5,5de18a6fc3a15e1e4432adb8,65d6bb0e977760de756971f7,65d6be71a834b53c8a8f287b,0.022,0.022,0,35,35,155,1,sixeight,,,,,,,,,,,,,,,,,,,,,,,,,,,,,,,,,,,,,,,,,,,,,,,,,,,,,,,,,,,,,,,,,,,,,,,,,,,,,,,,,,,,,,,,,,,,,,,,,,,,,,,,,,,,,,,,,,,,,,,,,,,,,,,,,,,,,,,,,
,,5de18a6fc3a15e1e4432adb8,2024-02-22_03h24.47.902,kallum_motion_pilot,2023.2.2,Linux x86_64,62.5,5de18a6fc3a15e1e4432adb8,65d6bb0e977760de756971f7,65d6be71a834b53c8a8f287b,0.022,0.022,0,36,36,90,1,sixfive,,,,,,,,,,,,,,,,,,,,,,,,,,,,,,,,,,,,,,,,,,,,,,,,,,,,,,,,,,,,,,,,,,,,,,,,,,,,,,,,,,,,,,,,,,,,,,,,,,,,,,,,,,,,,,,,,,,,,,,,,,,,,,,,,,,,,,,,,
,,5de18a6fc3a15e1e4432adb8,2024-02-22_03h24.47.902,kallum_motion_pilot,2023.2.2,Linux x86_64,62.5,5de18a6fc3a15e1e4432adb8,65d6bb0e977760de756971f7,65d6be71a834b53c8a8f287b,0.022,0.023,0,37,37,100,1,sevenfive,,,,,,,,,,,,,,,,,,,,,,,,,,,,,,,,,,,,,,,,,,,,,,,,,,,,,,,,,,,,,,,,,,,,,,,,,,,,,,,,,,,,,,,,,,,,,,,,,,,,,,,,,,,,,,,,,,,,,,,,,,,,,,,,,,,,,,,,,
,,5de18a6fc3a15e1e4432adb8,2024-02-22_03h24.47.902,kallum_motion_pilot,2023.2.2,Linux x86_64,62.5,5de18a6fc3a15e1e4432adb8,65d6bb0e977760de756971f7,65d6be71a834b53c8a8f287b,0.023,0.023,0,38,38,11,1,twofour,,,,,,,,,,,,,,,,,,,,,,,,,,,,,,,,,,,,,,,,,,,,,,,,,,,,,,,,,,,,,,,,,,,,,,,,,,,,,,,,,,,,,,,,,,,,,,,,,,,,,,,,,,,,,,,,,,,,,,,,,,,,,,,,,,,,,,,,,
,,5de18a6fc3a15e1e4432adb8,2024-02-22_03h24.47.902,kallum_motion_pilot,2023.2.2,Linux x86_64,62.5,5de18a6fc3a15e1e4432adb8,65d6bb0e977760de756971f7,65d6be71a834b53c8a8f287b,0.023,0.023,0,39,39,123,1,sixeight,,,,,,,,,,,,,,,,,,,,,,,,,,,,,,,,,,,,,,,,,,,,,,,,,,,,,,,,,,,,,,,,,,,,,,,,,,,,,,,,,,,,,,,,,,,,,,,,,,,,,,,,,,,,,,,,,,,,,,,,,,,,,,,,,,,,,,,,,
,,5de18a6fc3a15e1e4432adb8,2024-02-22_03h24.47.902,kallum_motion_pilot,2023.2.2,Linux x86_64,62.5,5de18a6fc3a15e1e4432adb8,65d6bb0e977760de756971f7,65d6be71a834b53c8a8f287b,0.023,0.023,0,40,40,97,1,fiveseven,,,,,,,,,,,,,,,,,,,,,,,,,,,,,,,,,,,,,,,,,,,,,,,,,,,,,,,,,,,,,,,,,,,,,,,,,,,,,,,,,,,,,,,,,,,,,,,,,,,,,,,,,,,,,,,,,,,,,,,,,,,,,,,,,,,,,,,,,
,,5de18a6fc3a15e1e4432adb8,2024-02-22_03h24.47.902,kallum_motion_pilot,2023.2.2,Linux x86_64,62.5,5de18a6fc3a15e1e4432adb8,65d6bb0e977760de756971f7,65d6be71a834b53c8a8f287b,0.023,0.023,0,41,41,95,1,eightseven,,,,,,,,,,,,,,,,,,,,,,,,,,,,,,,,,,,,,,,,,,,,,,,,,,,,,,,,,,,,,,,,,,,,,,,,,,,,,,,,,,,,,,,,,,,,,,,,,,,,,,,,,,,,,,,,,,,,,,,,,,,,,,,,,,,,,,,,,
,,5de18a6fc3a15e1e4432adb8,2024-02-22_03h24.47.902,kallum_motion_pilot,2023.2.2,Linux x86_64,62.5,5de18a6fc3a15e1e4432adb8,65d6bb0e977760de756971f7,65d6be71a834b53c8a8f287b,0.023,0.023,0,42,42,72,1,onetwo,,,,,,,,,,,,,,,,,,,,,,,,,,,,,,,,,,,,,,,,,,,,,,,,,,,,,,,,,,,,,,,,,,,,,,,,,,,,,,,,,,,,,,,,,,,,,,,,,,,,,,,,,,,,,,,,,,,,,,,,,,,,,,,,,,,,,,,,,
,,5de18a6fc3a15e1e4432adb8,2024-02-22_03h24.47.902,kallum_motion_pilot,2023.2.2,Linux x86_64,62.5,5de18a6fc3a15e1e4432adb8,65d6bb0e977760de756971f7,65d6be71a834b53c8a8f287b,0.023,0.023,0,43,43,70,1,fourtwo,,,,,,,,,,,,,,,,,,,,,,,,,,,,,,,,,,,,,,,,,,,,,,,,,,,,,,,,,,,,,,,,,,,,,,,,,,,,,,,,,,,,,,,,,,,,,,,,,,,,,,,,,,,,,,,,,,,,,,,,,,,,,,,,,,,,,,,,,
,,5de18a6fc3a15e1e4432adb8,2024-02-22_03h24.47.902,kallum_motion_pilot,2023.2.2,Linux x86_64,62.5,5de18a6fc3a15e1e4432adb8,65d6bb0e977760de756971f7,65d6be71a834b53c8a8f287b,0.023,0.023,0,44,44,48,1,onetwo,,,,,,,,,,,,,,,,,,,,,,,,,,,,,,,,,,,,,,,,,,,,,,,,,,,,,,,,,,,,,,,,,,,,,,,,,,,,,,,,,,,,,,,,,,,,,,,,,,,,,,,,,,,,,,,,,,,,,,,,,,,,,,,,,,,,,,,,,
,,5de18a6fc3a15e1e4432adb8,2024-02-22_03h24.47.902,kallum_motion_pilot,2023.2.2,Linux x86_64,62.5,5de18a6fc3a15e1e4432adb8,65d6bb0e977760de756971f7,65d6be71a834b53c8a8f287b,0.023,0.023,0,45,45,131,1,sixeight,,,,,,,,,,,,,,,,,,,,,,,,,,,,,,,,,,,,,,,,,,,,,,,,,,,,,,,,,,,,,,,,,,,,,,,,,,,,,,,,,,,,,,,,,,,,,,,,,,,,,,,,,,,,,,,,,,,,,,,,,,,,,,,,,,,,,,,,,
,,5de18a6fc3a15e1e4432adb8,2024-02-22_03h24.47.902,kallum_motion_pilot,2023.2.2,Linux x86_64,62.5,5de18a6fc3a15e1e4432adb8,65d6bb0e977760de756971f7,65d6be71a834b53c8a8f287b,0.024,0.024,0,46,46,41,1,onethree,,,,,,,,,,,,,,,,,,,,,,,,,,,,,,,,,,,,,,,,,,,,,,,,,,,,,,,,,,,,,,,,,,,,,,,,,,,,,,,,,,,,,,,,,,,,,,,,,,,,,,,,,,,,,,,,,,,,,,,,,,,,,,,,,,,,,,,,,
,,5de18a6fc3a15e1e4432adb8,2024-02-22_03h24.47.902,kallum_motion_pilot,2023.2.2,Linux x86_64,62.5,5de18a6fc3a15e1e4432adb8,65d6bb0e977760de756971f7,65d6be71a834b53c8a8f287b,0.024,0.024,0,47,47,120,1,fivesix,,,,,,,,,,,,,,,,,,,,,,,,,,,,,,,,,,,,,,,,,,,,,,,,,,,,,,,,,,,,,,,,,,,,,,,,,,,,,,,,,,,,,,,,,,,,,,,,,,,,,,,,,,,,,,,,,,,,,,,,,,,,,,,,,,,,,,,,,
,,5de18a6fc3a15e1e4432adb8,2024-02-22_03h24.47.902,kallum_motion_pilot,2023.2.2,Linux x86_64,62.5,5de18a6fc3a15e1e4432adb8,65d6bb0e977760de756971f7,65d6be71a834b53c8a8f287b,0.024,0.024,0,48,48,64,1,onetwo,,,,,,,,,,,,,,,,,,,,,,,,,,,,,,,,,,,,,,,,,,,,,,,,,,,,,,,,,,,,,,,,,,,,,,,,,,,,,,,,,,,,,,,,,,,,,,,,,,,,,,,,,,,,,,,,,,,,,,,,,,,,,,,,,,,,,,,,,
,,5de18a6fc3a15e1e4432adb8,2024-02-22_03h24.47.902,kallum_motion_pilot,2023.2.2,Linux x86_64,62.5,5de18a6fc3a15e1e4432adb8,65d6bb0e977760de756971f7,65d6be71a834b53c8a8f287b,0.024,0.024,0,49,49,6,1,fourtwo,,,,,,,,,,,,,,,,,,,,,,,,,,,,,,,,,,,,,,,,,,,,,,,,,,,,,,,,,,,,,,,,,,,,,,,,,,,,,,,,,,,,,,,,,,,,,,,,,,,,,,,,,,,,,,,,,,,,,,,,,,,,,,,,,,,,,,,,,
,,5de18a6fc3a15e1e4432adb8,2024-02-22_03h24.47.902,kallum_motion_pilot,2023.2.2,Linux x86_64,62.5,5de18a6fc3a15e1e4432adb8,65d6bb0e977760de756971f7,65d6be71a834b53c8a8f287b,0.024,0.024,0,50,50,135,1,eightseven,,,,,,,,,,,,,,,,,,,,,,,,,,,,,,,,,,,,,,,,,,,,,,,,,,,,,,,,,,,,,,,,,,,,,,,,,,,,,,,,,,,,,,,,,,,,,,,,,,,,,,,,,,,,,,,,,,,,,,,,,,,,,,,,,,,,,,,,,
,,5de18a6fc3a15e1e4432adb8,2024-02-22_03h24.47.902,kallum_motion_pilot,2023.2.2,Linux x86_64,62.5,5de18a6fc3a15e1e4432adb8,65d6bb0e977760de756971f7,65d6be71a834b53c8a8f287b,0.024,0.024,0,51,51,109,1,seveneight,,,,,,,,,,,,,,,,,,,,,,,,,,,,,,,,,,,,,,,,,,,,,,,,,,,,,,,,,,,,,,,,,,,,,,,,,,,,,,,,,,,,,,,,,,,,,,,,,,,,,,,,,,,,,,,,,,,,,,,,,,,,,,,,,,,,,,,,,
,,5de18a6fc3a15e1e4432adb8,2024-02-22_03h24.47.902,kallum_motion_pilot,2023.2.2,Linux x86_64,62.5,5de18a6fc3a15e1e4432adb8,65d6bb0e977760de756971f7,65d6be71a834b53c8a8f287b,0.024,0.024,0,52,52,54,1,fourtwo,,,,,,,,,,,,,,,,,,,,,,,,,,,,,,,,,,,,,,,,,,,,,,,,,,,,,,,,,,,,,,,,,,,,,,,,,,,,,,,,,,,,,,,,,,,,,,,,,,,,,,,,,,,,,,,,,,,,,,,,,,,,,,,,,,,,,,,,,
,,5de18a6fc3a15e1e4432adb8,2024-02-22_03h24.47.902,kallum_motion_pilot,2023.2.2,Linux x86_64,62.5,5de18a6fc3a15e1e4432adb8,65d6bb0e977760de756971f7,65d6be71a834b53c8a8f287b,0.024,0.024,0,53,53,22,1,fourtwo,,,,,,,,,,,,,,,,,,,,,,,,,,,,,,,,,,,,,,,,,,,,,,,,,,,,,,,,,,,,,,,,,,,,,,,,,,,,,,,,,,,,,,,,,,,,,,,,,,,,,,,,,,,,,,,,,,,,,,,,,,,,,,,,,,,,,,,,,
,,5de18a6fc3a15e1e4432adb8,2024-02-22_03h24.47.902,kallum_motion_pilot,2023.2.2,Linux x86_64,62.5,5de18a6fc3a15e1e4432adb8,65d6bb0e977760de756971f7,65d6be71a834b53c8a8f287b,0.025,0.025,0,54,54,28,1,threeone,,,,,,,,,,,,,,,,,,,,,,,,,,,,,,,,,,,,,,,,,,,,,,,,,,,,,,,,,,,,,,,,,,,,,,,,,,,,,,,,,,,,,,,,,,,,,,,,,,,,,,,,,,,,,,,,,,,,,,,,,,,,,,,,,,,,,,,,,
,,5de18a6fc3a15e1e4432adb8,2024-02-22_03h24.47.902,kallum_motion_pilot,2023.2.2,Linux x86_64,62.5,5de18a6fc3a15e1e4432adb8,65d6bb0e977760de756971f7,65d6be71a834b53c8a8f287b,0.025,0.025,0,55,55,2,1,twoone,,,,,,,,,,,,,,,,,,,,,,,,,,,,,,,,,,,,,,,,,,,,,,,,,,,,,,,,,,,,,,,,,,,,,,,,,,,,,,,,,,,,,,,,,,,,,,,,,,,,,,,,,,,,,,,,,,,,,,,,,,,,,,,,,,,,,,,,,
,,5de18a6fc3a15e1e4432adb8,2024-02-22_03h24.47.902,kallum_motion_pilot,2023.2.2,Linux x86_64,62.5,5de18a6fc3a15e1e4432adb8,65d6bb0e977760de756971f7,65d6be71a834b53c8a8f287b,0.025,0.025,0,56,56,17,1,onethree,,,,,,,,,,,,,,,,,,,,,,,,,,,,,,,,,,,,,,,,,,,,,,,,,,,,,,,,,,,,,,,,,,,,,,,,,,,,,,,,,,,,,,,,,,,,,,,,,,,,,,,,,,,,,,,,,,,,,,,,,,,,,,,,,,,,,,,,,
,,5de18a6fc3a15e1e4432adb8,2024-02-22_03h24.47.902,kallum_motion_pilot,2023.2.2,Linux x86_64,62.5,5de18a6fc3a15e1e4432adb8,65d6bb0e977760de756971f7,65d6be71a834b53c8a8f287b,0.025,0.025,0,57,57,141,1,seveneight,,,,,,,,,,,,,,,,,,,,,,,,,,,,,,,,,,,,,,,,,,,,,,,,,,,,,,,,,,,,,,,,,,,,,,,,,,,,,,,,,,,,,,,,,,,,,,,,,,,,,,,,,,,,,,,,,,,,,,,,,,,,,,,,,,,,,,,,,
,,5de18a6fc3a15e1e4432adb8,2024-02-22_03h24.47.902,kallum_motion_pilot,2023.2.2,Linux x86_64,62.5,5de18a6fc3a15e1e4432adb8,65d6bb0e977760de756971f7,65d6be71a834b53c8a8f287b,0.025,0.025,0,58,58,40,1,onetwo,,,,,,,,,,,,,,,,,,,,,,,,,,,,,,,,,,,,,,,,,,,,,,,,,,,,,,,,,,,,,,,,,,,,,,,,,,,,,,,,,,,,,,,,,,,,,,,,,,,,,,,,,,,,,,,,,,,,,,,,,,,,,,,,,,,,,,,,,
,,5de18a6fc3a15e1e4432adb8,2024-02-22_03h24.47.902,kallum_motion_pilot,2023.2.2,Linux x86_64,62.5,5de18a6fc3a15e1e4432adb8,65d6bb0e977760de756971f7,65d6be71a834b53c8a8f287b,0.025,0.025,0,59,59,44,1,threeone,,,,,,,,,,,,,,,,,,,,,,,,,,,,,,,,,,,,,,,,,,,,,,,,,,,,,,,,,,,,,,,,,,,,,,,,,,,,,,,,,,,,,,,,,,,,,,,,,,,,,,,,,,,,,,,,,,,,,,,,,,,,,,,,,,,,,,,,,
,,5de18a6fc3a15e1e4432adb8,2024-02-22_03h24.47.902,kallum_motion_pilot,2023.2.2,Linux x86_64,62.5,5de18a6fc3a15e1e4432adb8,65d6bb0e977760de756971f7,65d6be71a834b53c8a8f287b,0.025,0.025,0,60,60,112,1,fivesix,,,,,,,,,,,,,,,,,,,,,,,,,,,,,,,,,,,,,,,,,,,,,,,,,,,,,,,,,,,,,,,,,,,,,,,,,,,,,,,,,,,,,,,,,,,,,,,,,,,,,,,,,,,,,,,,,,,,,,,,,,,,,,,,,,,,,,,,,
,,5de18a6fc3a15e1e4432adb8,2024-02-22_03h24.47.902,kallum_motion_pilot,2023.2.2,Linux x86_64,62.5,5de18a6fc3a15e1e4432adb8,65d6bb0e977760de756971f7,65d6be71a834b53c8a8f287b,0.025,0.025,0,61,61,26,1,twoone,,,,,,,,,,,,,,,,,,,,,,,,,,,,,,,,,,,,,,,,,,,,,,,,,,,,,,,,,,,,,,,,,,,,,,,,,,,,,,,,,,,,,,,,,,,,,,,,,,,,,,,,,,,,,,,,,,,,,,,,,,,,,,,,,,,,,,,,,
,,5de18a6fc3a15e1e4432adb8,2024-02-22_03h24.47.902,kallum_motion_pilot,2023.2.2,Linux x86_64,62.5,5de18a6fc3a15e1e4432adb8,65d6bb0e977760de756971f7,65d6be71a834b53c8a8f287b,0.025,0.025,0,62,62,110,1,eightsix,,,,,,,,,,,,,,,,,,,,,,,,,,,,,,,,,,,,,,,,,,,,,,,,,,,,,,,,,,,,,,,,,,,,,,,,,,,,,,,,,,,,,,,,,,,,,,,,,,,,,,,,,,,,,,,,,,,,,,,,,,,,,,,,,,,,,,,,,
,,5de18a6fc3a15e1e4432adb8,2024-02-22_03h24.47.902,kallum_motion_pilot,2023.2.2,Linux x86_64,62.5,5de18a6fc3a15e1e4432adb8,65d6bb0e977760de756971f7,65d6be71a834b53c8a8f287b,0.025,0.025,0,63,63,31,1,fourthree,,,,,,,,,,,,,,,,,,,,,,,,,,,,,,,,,,,,,,,,,,,,,,,,,,,,,,,,,,,,,,,,,,,,,,,,,,,,,,,,,,,,,,,,,,,,,,,,,,,,,,,,,,,,,,,,,,,,,,,,,,,,,,,,,,,,,,,,,
,,5de18a6fc3a15e1e4432adb8,2024-02-22_03h24.47.902,kallum_motion_pilot,2023.2.2,Linux x86_64,62.5,5de18a6fc3a15e1e4432adb8,65d6bb0e977760de756971f7,65d6be71a834b53c8a8f287b,0.025,0.025,0,64,64,74,1,twoone,,,,,,,,,,,,,,,,,,,,,,,,,,,,,,,,,,,,,,,,,,,,,,,,,,,,,,,,,,,,,,,,,,,,,,,,,,,,,,,,,,,,,,,,,,,,,,,,,,,,,,,,,,,,,,,,,,,,,,,,,,,,,,,,,,,,,,,,,
,,5de18a6fc3a15e1e4432adb8,2024-02-22_03h24.47.902,kallum_motion_pilot,2023.2.2,Linux x86_64,62.5,5de18a6fc3a15e1e4432adb8,65d6bb0e977760de756971f7,65d6be71a834b53c8a8f287b,0.026,0.026,0,65,65,142,1,eightsix,,,,,,,,,,,,,,,,,,,,,,,,,,,,,,,,,,,,,,,,,,,,,,,,,,,,,,,,,,,,,,,,,,,,,,,,,,,,,,,,,,,,,,,,,,,,,,,,,,,,,,,,,,,,,,,,,,,,,,,,,,,,,,,,,,,,,,,,,
,,5de18a6fc3a15e1e4432adb8,2024-02-22_03h24.47.902,kallum_motion_pilot,2023.2.2,Linux x86_64,62.5,5de18a6fc3a15e1e4432adb8,65d6bb0e977760de756971f7,65d6be71a834b53c8a8f287b,0.026,0.026,0,66,66,104,1,fivesix,,,,,,,,,,,,,,,,,,,,,,,,,,,,,,,,,,,,,,,,,,,,,,,,,,,,,,,,,,,,,,,,,,,,,,,,,,,,,,,,,,,,,,,,,,,,,,,,,,,,,,,,,,,,,,,,,,,,,,,,,,,,,,,,,,,,,,,,,
,,5de18a6fc3a15e1e4432adb8,2024-02-22_03h24.47.902,kallum_motion_pilot,2023.2.2,Linux x86_64,62.5,5de18a6fc3a15e1e4432adb8,65d6bb0e977760de756971f7,65d6be71a834b53c8a8f287b,0.026,0.026,0,67,67,14,1,fourtwo,,,,,,,,,,,,,,,,,,,,,,,,,,,,,,,,,,,,,,,,,,,,,,,,,,,,,,,,,,,,,,,,,,,,,,,,,,,,,,,,,,,,,,,,,,,,,,,,,,,,,,,,,,,,,,,,,,,,,,,,,,,,,,,,,,,,,,,,,
,,5de18a6fc3a15e1e4432adb8,2024-02-22_03h24.47.902,kallum_motion_pilot,2023.2.2,Linux x86_64,62.5,5de18a6fc3a15e1e4432adb8,65d6bb0e977760de756971f7,65d6be71a834b53c8a8f287b,0.026,0.026,0,68,68,57,1,onethree,,,,,,,,,,,,,,,,,,,,,,,,,,,,,,,,,,,,,,,,,,,,,,,,,,,,,,,,,,,,,,,,,,,,,,,,,,,,,,,,,,,,,,,,,,,,,,,,,,,,,,,,,,,,,,,,,,,,,,,,,,,,,,,,,,,,,,,,,
,,5de18a6fc3a15e1e4432adb8,2024-02-22_03h24.47.902,kallum_motion_pilot,2023.2.2,Linux x86_64,62.5,5de18a6fc3a15e1e4432adb8,65d6bb0e977760de756971f7,65d6be71a834b53c8a8f287b,0.026,0.026,0,69,69,50,1,twoone,,,,,,,,,,,,,,,,,,,,,,,,,,,,,,,,,,,,,,,,,,,,,,,,,,,,,,,,,,,,,,,,,,,,,,,,,,,,,,,,,,,,,,,,,,,,,,,,,,,,,,,,,,,,,,,,,,,,,,,,,,,,,,,,,,,,,,,,,
,,5de18a6fc3a15e1e4432adb8,2024-02-22_03h24.47.902,kallum_motion_pilot,2023.2.2,Linux x86_64,62.5,5de18a6fc3a15e1e4432adb8,65d6bb0e977760de756971f7,65d6be71a834b53c8a8f287b,0.026,0.026,0,70,70,53,1,threefour,,,,,,,,,,,,,,,,,,,,,,,,,,,,,,,,,,,,,,,,,,,,,,,,,,,,,,,,,,,,,,,,,,,,,,,,,,,,,,,,,,,,,,,,,,,,,,,,,,,,,,,,,,,,,,,,,,,,,,,,,,,,,,,,,,,,,,,,,
,,5de18a6fc3a15e1e4432adb8,2024-02-22_03h24.47.902,kallum_motion_pilot,2023.2.2,Linux x86_64,62.5,5de18a6fc3a15e1e4432adb8,65d6bb0e977760de756971f7,65d6be71a834b53c8a8f287b,0.026,0.026,0,71,71,46,1,fourtwo,,,,,,,,,,,,,,,,,,,,,,,,,,,,,,,,,,,,,,,,,,,,,,,,,,,,,,,,,,,,,,,,,,,,,,,,,,,,,,,,,,,,,,,,,,,,,,,,,,,,,,,,,,,,,,,,,,,,,,,,,,,,,,,,,,,,,,,,,
,,5de18a6fc3a15e1e4432adb8,2024-02-22_03h24.47.902,kallum_motion_pilot,2023.2.2,Linux x86_64,62.5,5de18a6fc3a15e1e4432adb8,65d6bb0e977760de756971f7,65d6be71a834b53c8a8f287b,0.026,0.026,0,72,72,158,1,eightsix,,,,,,,,,,,,,,,,,,,,,,,,,,,,,,,,,,,,,,,,,,,,,,,,,,,,,,,,,,,,,,,,,,,,,,,,,,,,,,,,,,,,,,,,,,,,,,,,,,,,,,,,,,,,,,,,,,,,,,,,,,,,,,,,,,,,,,,,,
,,5de18a6fc3a15e1e4432adb8,2024-02-22_03h24.47.902,kallum_motion_pilot,2023.2.2,Linux x86_64,62.5,5de18a6fc3a15e1e4432adb8,65d6bb0e977760de756971f7,65d6be71a834b53c8a8f287b,0.026,0.026,0,73,73,39,1,fourthree,,,,,,,,,,,,,,,,,,,,,,,,,,,,,,,,,,,,,,,,,,,,,,,,,,,,,,,,,,,,,,,,,,,,,,,,,,,,,,,,,,,,,,,,,,,,,,,,,,,,,,,,,,,,,,,,,,,,,,,,,,,,,,,,,,,,,,,,,
,,5de18a6fc3a15e1e4432adb8,2024-02-22_03h24.47.902,kallum_motion_pilot,2023.2.2,Linux x86_64,62.5,5de18a6fc3a15e1e4432adb8,65d6bb0e977760de756971f7,65d6be71a834b53c8a8f287b,0.027,0.027,0,74,74,13,1,threefour,,,,,,,,,,,,,,,,,,,,,,,,,,,,,,,,,,,,,,,,,,,,,,,,,,,,,,,,,,,,,,,,,,,,,,,,,,,,,,,,,,,,,,,,,,,,,,,,,,,,,,,,,,,,,,,,,,,,,,,,,,,,,,,,,,,,,,,,,
,,5de18a6fc3a15e1e4432adb8,2024-02-22_03h24.47.902,kallum_motion_pilot,2023.2.2,Linux x86_64,62.5,5de18a6fc3a15e1e4432adb8,65d6bb0e977760de756971f7,65d6be71a834b53c8a8f287b,0.027,0.027,0,75,75,63,1,fourthree,,,,,,,,,,,,,,,,,,,,,,,,,,,,,,,,,,,,,,,,,,,,,,,,,,,,,,,,,,,,,,,,,,,,,,,,,,,,,,,,,,,,,,,,,,,,,,,,,,,,,,,,,,,,,,,,,,,,,,,,,,,,,,,,,,,,,,,,,
,,5de18a6fc3a15e1e4432adb8,2024-02-22_03h24.47.902,kallum_motion_pilot,2023.2.2,Linux x86_64,62.5,5de18a6fc3a15e1e4432adb8,65d6bb0e977760de756971f7,65d6be71a834b53c8a8f287b,0.027,0.027,0,76,76,79,1,eightseven,,,,,,,,,,,,,,,,,,,,,,,,,,,,,,,,,,,,,,,,,,,,,,,,,,,,,,,,,,,,,,,,,,,,,,,,,,,,,,,,,,,,,,,,,,,,,,,,,,,,,,,,,,,,,,,,,,,,,,,,,,,,,,,,,,,,,,,,,
,,5de18a6fc3a15e1e4432adb8,2024-02-22_03h24.47.902,kallum_motion_pilot,2023.2.2,Linux x86_64,62.5,5de18a6fc3a15e1e4432adb8,65d6bb0e977760de756971f7,65d6be71a834b53c8a8f287b,0.027,0.027,0,77,77,62,1,fourtwo,,,,,,,,,,,,,,,,,,,,,,,,,,,,,,,,,,,,,,,,,,,,,,,,,,,,,,,,,,,,,,,,,,,,,,,,,,,,,,,,,,,,,,,,,,,,,,,,,,,,,,,,,,,,,,,,,,,,,,,,,,,,,,,,,,,,,,,,,
,,5de18a6fc3a15e1e4432adb8,2024-02-22_03h24.47.902,kallum_motion_pilot,2023.2.2,Linux x86_64,62.5,5de18a6fc3a15e1e4432adb8,65d6bb0e977760de756971f7,65d6be71a834b53c8a8f287b,0.027,0.027,0,78,78,137,1,fiveseven,,,,,,,,,,,,,,,,,,,,,,,,,,,,,,,,,,,,,,,,,,,,,,,,,,,,,,,,,,,,,,,,,,,,,,,,,,,,,,,,,,,,,,,,,,,,,,,,,,,,,,,,,,,,,,,,,,,,,,,,,,,,,,,,,,,,,,,,,
,,5de18a6fc3a15e1e4432adb8,2024-02-22_03h24.47.902,kallum_motion_pilot,2023.2.2,Linux x86_64,62.5,5de18a6fc3a15e1e4432adb8,65d6bb0e977760de756971f7,65d6be71a834b53c8a8f287b,0.027,0.027,0,79,79,157,1,seveneight,,,,,,,,,,,,,,,,,,,,,,,,,,,,,,,,,,,,,,,,,,,,,,,,,,,,,,,,,,,,,,,,,,,,,,,,,,,,,,,,,,,,,,,,,,,,,,,,,,,,,,,,,,,,,,,,,,,,,,,,,,,,,,,,,,,,,,,,,
,,5de18a6fc3a15e1e4432adb8,2024-02-22_03h24.47.902,kallum_motion_pilot,2023.2.2,Linux x86_64,62.5,5de18a6fc3a15e1e4432adb8,65d6bb0e977760de756971f7,65d6be71a834b53c8a8f287b,0.027,0.027,0,80,80,76,1,threeone,,,,,,,,,,,,,,,,,,,,,,,,,,,,,,,,,,,,,,,,,,,,,,,,,,,,,,,,,,,,,,,,,,,,,,,,,,,,,,,,,,,,,,,,,,,,,,,,,,,,,,,,,,,,,,,,,,,,,,,,,,,,,,,,,,,,,,,,,
,,5de18a6fc3a15e1e4432adb8,2024-02-22_03h24.47.902,kallum_motion_pilot,2023.2.2,Linux x86_64,62.5,5de18a6fc3a15e1e4432adb8,65d6bb0e977760de756971f7,65d6be71a834b53c8a8f287b,0.027,0.027,0,81,81,5,1,threefour,,,,,,,,,,,,,,,,,,,,,,,,,,,,,,,,,,,,,,,,,,,,,,,,,,,,,,,,,,,,,,,,,,,,,,,,,,,,,,,,,,,,,,,,,,,,,,,,,,,,,,,,,,,,,,,,,,,,,,,,,,,,,,,,,,,,,,,,,
,,5de18a6fc3a15e1e4432adb8,2024-02-22_03h24.47.902,kallum_motion_pilot,2023.2.2,Linux x86_64,62.5,5de18a6fc3a15e1e4432adb8,65d6bb0e977760de756971f7,65d6be71a834b53c8a8f287b,0.028,0.028,0,82,82,18,1,twoone,,,,,,,,,,,,,,,,,,,,,,,,,,,,,,,,,,,,,,,,,,,,,,,,,,,,,,,,,,,,,,,,,,,,,,,,,,,,,,,,,,,,,,,,,,,,,,,,,,,,,,,,,,,,,,,,,,,,,,,,,,,,,,,,,,,,,,,,,
,,5de18a6fc3a15e1e4432adb8,2024-02-22_03h24.47.902,kallum_motion_pilot,2023.2.2,Linux x86_64,62.5,5de18a6fc3a15e1e4432adb8,65d6bb0e977760de756971f7,65d6be71a834b53c8a8f287b,0.028,0.028,0,83,83,149,1,seveneight,,,,,,,,,,,,,,,,,,,,,,,,,,,,,,,,,,,,,,,,,,,,,,,,,,,,,,,,,,,,,,,,,,,,,,,,,,,,,,,,,,,,,,,,,,,,,,,,,,,,,,,,,,,,,,,,,,,,,,,,,,,,,,,,,,,,,,,,,
,,5de18a6fc3a15e1e4432adb8,2024-02-22_03h24.47.902,kallum_motion_pilot,2023.2.2,Linux x86_64,62.5,5de18a6fc3a15e1e4432adb8,65d6bb0e977760de756971f7,65d6be71a834b53c8a8f287b,0.028,0.028,0,84,84,65,1,onethree,,,,,,,,,,,,,,,,,,,,,,,,,,,,,,,,,,,,,,,,,,,,,,,,,,,,,,,,,,,,,,,,,,,,,,,,,,,,,,,,,,,,,,,,,,,,,,,,,,,,,,,,,,,,,,,,,,,,,,,,,,,,,,,,,,,,,,,,,
,,5de18a6fc3a15e1e4432adb8,2024-02-22_03h24.47.902,kallum_motion_pilot,2023.2.2,Linux x86_64,62.5,5de18a6fc3a15e1e4432adb8,65d6bb0e977760de756971f7,65d6be71a834b53c8a8f287b,0.028,0.028,0,85,85,55,1,fourthree,,,,,,,,,,,,,,,,,,,,,,,,,,,,,,,,,,,,,,,,,,,,,,,,,,,,,,,,,,,,,,,,,,,,,,,,,,,,,,,,,,,,,,,,,,,,,,,,,,,,,,,,,,,,,,,,,,,,,,,,,,,,,,,,,,,,,,,,,
,,5de18a6fc3a15e1e4432adb8,2024-02-22_03h24.47.902,kallum_motion_pilot,2023.2.2,Linux x86_64,62.5,5de18a6fc3a15e1e4432adb8,65d6bb0e977760de756971f7,65d6be71a834b53c8a8f287b,0.028,0.028,0,86,86,143,1,eightseven,,,,,,,,,,,,,,,,,,,,,,,,,,,,,,,,,,,,,,,,,,,,,,,,,,,,,,,,,,,,,,,,,,,,,,,,,,,,,,,,,,,,,,,,,,,,,,,,,,,,,,,,,,,,,,,,,,,,,,,,,,,,,,,,,,,,,,,,,
,,5de18a6fc3a15e1e4432adb8,2024-02-22_03h24.47.902,kallum_motion_pilot,2023.2.2,Linux x86_64,62.5,5de18a6fc3a15e1e4432adb8,65d6bb0e977760de756971f7,65d6be71a834b53c8a8f287b,0.028,0.028,0,87,87,24,1,onetwo,,,,,,,,,,,,,,,,,,,,,,,,,,,,,,,,,,,,,,,,,,,,,,,,,,,,,,,,,,,,,,,,,,,,,,,,,,,,,,,,,,,,,,,,,,,,,,,,,,,,,,,,,,,,,,,,,,,,,,,,,,,,,,,,,,,,,,,,,
,,5de18a6fc3a15e1e4432adb8,2024-02-22_03h24.47.902,kallum_motion_pilot,2023.2.2,Linux x86_64,62.5,5de18a6fc3a15e1e4432adb8,65d6bb0e977760de756971f7,65d6be71a834b53c8a8f287b,0.028,0.028,0,88,88,81,1,fiveseven,,,,,,,,,,,,,,,,,,,,,,,,,,,,,,,,,,,,,,,,,,,,,,,,,,,,,,,,,,,,,,,,,,,,,,,,,,,,,,,,,,,,,,,,,,,,,,,,,,,,,,,,,,,,,,,,,,,,,,,,,,,,,,,,,,,,,,,,,
,,5de18a6fc3a15e1e4432adb8,2024-02-22_03h24.47.902,kallum_motion_pilot,2023.2.2,Linux x86_64,62.5,5de18a6fc3a15e1e4432adb8,65d6bb0e977760de756971f7,65d6be71a834b53c8a8f287b,0.028,0.028,0,89,89,83,1,sixeight,,,,,,,,,,,,,,,,,,,,,,,,,,,,,,,,,,,,,,,,,,,,,,,,,,,,,,,,,,,,,,,,,,,,,,,,,,,,,,,,,,,,,,,,,,,,,,,,,,,,,,,,,,,,,,,,,,,,,,,,,,,,,,,,,,,,,,,,,
,,5de18a6fc3a15e1e4432adb8,2024-02-22_03h24.47.902,kallum_motion_pilot,2023.2.2,Linux x86_64,62.5,5de18a6fc3a15e1e4432adb8,65d6bb0e977760de756971f7,65d6be71a834b53c8a8f287b,0.028,0.028,0,90,90,154,1,sixfive,,,,,,,,,,,,,,,,,,,,,,,,,,,,,,,,,,,,,,,,,,,,,,,,,,,,,,,,,,,,,,,,,,,,,,,,,,,,,,,,,,,,,,,,,,,,,,,,,,,,,,,,,,,,,,,,,,,,,,,,,,,,,,,,,,,,,,,,,
,,5de18a6fc3a15e1e4432adb8,2024-02-22_03h24.47.902,kallum_motion_pilot,2023.2.2,Linux x86_64,62.5,5de18a6fc3a15e1e4432adb8,65d6bb0e977760de756971f7,65d6be71a834b53c8a8f287b,0.029,0.029,0,91,91,161,1,fiveseven,,,,,,,,,,,,,,,,,,,,,,,,,,,,,,,,,,,,,,,,,,,,,,,,,,,,,,,,,,,,,,,,,,,,,,,,,,,,,,,,,,,,,,,,,,,,,,,,,,,,,,,,,,,,,,,,,,,,,,,,,,,,,,,,,,,,,,,,,
,,5de18a6fc3a15e1e4432adb8,2024-02-22_03h24.47.902,kallum_motion_pilot,2023.2.2,Linux x86_64,62.5,5de18a6fc3a15e1e4432adb8,65d6bb0e977760de756971f7,65d6be71a834b53c8a8f287b,0.029,0.029,0,92,92,94,1,eightsix,,,,,,,,,,,,,,,,,,,,,,,,,,,,,,,,,,,,,,,,,,,,,,,,,,,,,,,,,,,,,,,,,,,,,,,,,,,,,,,,,,,,,,,,,,,,,,,,,,,,,,,,,,,,,,,,,,,,,,,,,,,,,,,,,,,,,,,,,
,,5de18a6fc3a15e1e4432adb8,2024-02-22_03h24.47.902,kallum_motion_pilot,2023.2.2,Linux x86_64,62.5,5de18a6fc3a15e1e4432adb8,65d6bb0e977760de756971f7,65d6be71a834b53c8a8f287b,0.029,0.029,0,93,93,60,1,threeone,,,,,,,,,,,,,,,,,,,,,,,,,,,,,,,,,,,,,,,,,,,,,,,,,,,,,,,,,,,,,,,,,,,,,,,,,,,,,,,,,,,,,,,,,,,,,,,,,,,,,,,,,,,,,,,,,,,,,,,,,,,,,,,,,,,,,,,,,
,,5de18a6fc3a15e1e4432adb8,2024-02-22_03h24.47.902,kallum_motion_pilot,2023.2.2,Linux x86_64,62.5,5de18a6fc3a15e1e4432adb8,65d6bb0e977760de756971f7,65d6be71a834b53c8a8f287b,0.029,0.029,0,94,94,121,1,fiveseven,,,,,,,,,,,,,,,,,,,,,,,,,,,,,,,,,,,,,,,,,,,,,,,,,,,,,,,,,,,,,,,,,,,,,,,,,,,,,,,,,,,,,,,,,,,,,,,,,,,,,,,,,,,,,,,,,,,,,,,,,,,,,,,,,,,,,,,,,
,,5de18a6fc3a15e1e4432adb8,2024-02-22_03h24.47.902,kallum_motion_pilot,2023.2.2,Linux x86_64,62.5,5de18a6fc3a15e1e4432adb8,65d6bb0e977760de756971f7,65d6be71a834b53c8a8f287b,0.029,0.029,0,95,95,75,1,twofour,,,,,,,,,,,,,,,,,,,,,,,,,,,,,,,,,,,,,,,,,,,,,,,,,,,,,,,,,,,,,,,,,,,,,,,,,,,,,,,,,,,,,,,,,,,,,,,,,,,,,,,,,,,,,,,,,,,,,,,,,,,,,,,,,,,,,,,,,
,,5de18a6fc3a15e1e4432adb8,2024-02-22_03h24.47.902,kallum_motion_pilot,2023.2.2,Linux x86_64,62.5,5de18a6fc3a15e1e4432adb8,65d6bb0e977760de756971f7,65d6be71a834b53c8a8f287b,0.029,0.029,0,96,96,16,1,onetwo,,,,,,,,,,,,,,,,,,,,,,,,,,,,,,,,,,,,,,,,,,,,,,,,,,,,,,,,,,,,,,,,,,,,,,,,,,,,,,,,,,,,,,,,,,,,,,,,,,,,,,,,,,,,,,,,,,,,,,,,,,,,,,,,,,,,,,,,,
,,5de18a6fc3a15e1e4432adb8,2024-02-22_03h24.47.902,kallum_motion_pilot,2023.2.2,Linux x86_64,62.5,5de18a6fc3a15e1e4432adb8,65d6bb0e977760de756971f7,65d6be71a834b53c8a8f287b,0.029,0.029,0,97,97,80,1,fivesix,,,,,,,,,,,,,,,,,,,,,,,,,,,,,,,,,,,,,,,,,,,,,,,,,,,,,,,,,,,,,,,,,,,,,,,,,,,,,,,,,,,,,,,,,,,,,,,,,,,,,,,,,,,,,,,,,,,,,,,,,,,,,,,,,,,,,,,,,
,,5de18a6fc3a15e1e4432adb8,2024-02-22_03h24.47.902,kallum_motion_pilot,2023.2.2,Linux x86_64,62.5,5de18a6fc3a15e1e4432adb8,65d6bb0e977760de756971f7,65d6be71a834b53c8a8f287b,0.029,0.029,0,98,98,160,1,fivesix,,,,,,,,,,,,,,,,,,,,,,,,,,,,,,,,,,,,,,,,,,,,,,,,,,,,,,,,,,,,,,,,,,,,,,,,,,,,,,,,,,,,,,,,,,,,,,,,,,,,,,,,,,,,,,,,,,,,,,,,,,,,,,,,,,,,,,,,,
,,5de18a6fc3a15e1e4432adb8,2024-02-22_03h24.47.902,kallum_motion_pilot,2023.2.2,Linux x86_64,62.5,5de18a6fc3a15e1e4432adb8,65d6bb0e977760de756971f7,65d6be71a834b53c8a8f287b,0.029,0.029,0,99,99,15,1,fourthree,,,,,,,,,,,,,,,,,,,,,,,,,,,,,,,,,,,,,,,,,,,,,,,,,,,,,,,,,,,,,,,,,,,,,,,,,,,,,,,,,,,,,,,,,,,,,,,,,,,,,,,,,,,,,,,,,,,,,,,,,,,,,,,,,,,,,,,,,
,,5de18a6fc3a15e1e4432adb8,2024-02-22_03h24.47.902,kallum_motion_pilot,2023.2.2,Linux x86_64,62.5,5de18a6fc3a15e1e4432adb8,65d6bb0e977760de756971f7,65d6be71a834b53c8a8f287b,0.03,0.03,0,100,100,91,1,sixeight,,,,,,,,,,,,,,,,,,,,,,,,,,,,,,,,,,,,,,,,,,,,,,,,,,,,,,,,,,,,,,,,,,,,,,,,,,,,,,,,,,,,,,,,,,,,,,,,,,,,,,,,,,,,,,,,,,,,,,,,,,,,,,,,,,,,,,,,,
,,5de18a6fc3a15e1e4432adb8,2024-02-22_03h24.47.902,kallum_motion_pilot,2023.2.2,Linux x86_64,62.5,5de18a6fc3a15e1e4432adb8,65d6bb0e977760de756971f7,65d6be71a834b53c8a8f287b,0.03,0.03,0,101,101,0,1,onetwo,,,,,,,,,,,,,,,,,,,,,,,,,,,,,,,,,,,,,,,,,,,,,,,,,,,,,,,,,,,,,,,,,,,,,,,,,,,,,,,,,,,,,,,,,,,,,,,,,,,,,,,,,,,,,,,,,,,,,,,,,,,,,,,,,,,,,,,,,
,,5de18a6fc3a15e1e4432adb8,2024-02-22_03h24.47.902,kallum_motion_pilot,2023.2.2,Linux x86_64,62.5,5de18a6fc3a15e1e4432adb8,65d6bb0e977760de756971f7,65d6be71a834b53c8a8f287b,0.03,0.03,0,102,102,43,1,twofour,,,,,,,,,,,,,,,,,,,,,,,,,,,,,,,,,,,,,,,,,,,,,,,,,,,,,,,,,,,,,,,,,,,,,,,,,,,,,,,,,,,,,,,,,,,,,,,,,,,,,,,,,,,,,,,,,,,,,,,,,,,,,,,,,,,,,,,,,
,,5de18a6fc3a15e1e4432adb8,2024-02-22_03h24.47.902,kallum_motion_pilot,2023.2.2,Linux x86_64,62.5,5de18a6fc3a15e1e4432adb8,65d6bb0e977760de756971f7,65d6be71a834b53c8a8f287b,0.03,0.03,0,103,103,139,1,sixeight,,,,,,,,,,,,,,,,,,,,,,,,,,,,,,,,,,,,,,,,,,,,,,,,,,,,,,,,,,,,,,,,,,,,,,,,,,,,,,,,,,,,,,,,,,,,,,,,,,,,,,,,,,,,,,,,,,,,,,,,,,,,,,,,,,,,,,,,,
,,5de18a6fc3a15e1e4432adb8,2024-02-22_03h24.47.902,kallum_motion_pilot,2023.2.2,Linux x86_64,62.5,5de18a6fc3a15e1e4432adb8,65d6bb0e977760de756971f7,65d6be71a834b53c8a8f287b,0.03,0.03,0,104,104,147,1,sixeight,,,,,,,,,,,,,,,,,,,,,,,,,,,,,,,,,,,,,,,,,,,,,,,,,,,,,,,,,,,,,,,,,,,,,,,,,,,,,,,,,,,,,,,,,,,,,,,,,,,,,,,,,,,,,,,,,,,,,,,,,,,,,,,,,,,,,,,,,
,,5de18a6fc3a15e1e4432adb8,2024-02-22_03h24.47.902,kallum_motion_pilot,2023.2.2,Linux x86_64,62.5,5de18a6fc3a15e1e4432adb8,65d6bb0e977760de756971f7,65d6be71a834b53c8a8f287b,0.03,0.03,0,105,105,51,1,twofour,,,,,,,,,,,,,,,,,,,,,,,,,,,,,,,,,,,,,,,,,,,,,,,,,,,,,,,,,,,,,,,,,,,,,,,,,,,,,,,,,,,,,,,,,,,,,,,,,,,,,,,,,,,,,,,,,,,,,,,,,,,,,,,,,,,,,,,,,
,,5de18a6fc3a15e1e4432adb8,2024-02-22_03h24.47.902,kallum_motion_pilot,2023.2.2,Linux x86_64,62.5,5de18a6fc3a15e1e4432adb8,65d6bb0e977760de756971f7,65d6be71a834b53c8a8f287b,0.03,0.03,0,106,106,98,1,sixfive,,,,,,,,,,,,,,,,,,,,,,,,,,,,,,,,,,,,,,,,,,,,,,,,,,,,,,,,,,,,,,,,,,,,,,,,,,,,,,,,,,,,,,,,,,,,,,,,,,,,,,,,,,,,,,,,,,,,,,,,,,,,,,,,,,,,,,,,,
,,5de18a6fc3a15e1e4432adb8,2024-02-22_03h24.47.902,kallum_motion_pilot,2023.2.2,Linux x86_64,62.5,5de18a6fc3a15e1e4432adb8,65d6bb0e977760de756971f7,65d6be71a834b53c8a8f287b,0.03,0.03,0,107,107,32,1,onetwo,,,,,,,,,,,,,,,,,,,,,,,,,,,,,,,,,,,,,,,,,,,,,,,,,,,,,,,,,,,,,,,,,,,,,,,,,,,,,,,,,,,,,,,,,,,,,,,,,,,,,,,,,,,,,,,,,,,,,,,,,,,,,,,,,,,,,,,,,
,,5de18a6fc3a15e1e4432adb8,2024-02-22_03h24.47.902,kallum_motion_pilot,2023.2.2,Linux x86_64,62.5,5de18a6fc3a15e1e4432adb8,65d6bb0e977760de756971f7,65d6be71a834b53c8a8f287b,0.03,0.03,0,108,108,126,1,eightsix,,,,,,,,,,,,,,,,,,,,,,,,,,,,,,,,,,,,,,,,,,,,,,,,,,,,,,,,,,,,,,,,,,,,,,,,,,,,,,,,,,,,,,,,,,,,,,,,,,,,,,,,,,,,,,,,,,,,,,,,,,,,,,,,,,,,,,,,,
,,5de18a6fc3a15e1e4432adb8,2024-02-22_03h24.47.902,kallum_motion_pilot,2023.2.2,Linux x86_64,62.5,5de18a6fc3a15e1e4432adb8,65d6bb0e977760de756971f7,65d6be71a834b53c8a8f287b,0.03,0.03,0,109,109,21,1,threefour,,,,,,,,,,,,,,,,,,,,,,,,,,,,,,,,,,,,,,,,,,,,,,,,,,,,,,,,,,,,,,,,,,,,,,,,,,,,,,,,,,,,,,,,,,,,,,,,,,,,,,,,,,,,,,,,,,,,,,,,,,,,,,,,,,,,,,,,,
,,5de18a6fc3a15e1e4432adb8,2024-02-22_03h24.47.902,kallum_motion_pilot,2023.2.2,Linux x86_64,62.5,5de18a6fc3a15e1e4432adb8,65d6bb0e977760de756971f7,65d6be71a834b53c8a8f287b,0.031,0.031,0,110,110,4,1,threeone,,,,,,,,,,,,,,,,,,,,,,,,,,,,,,,,,,,,,,,,,,,,,,,,,,,,,,,,,,,,,,,,,,,,,,,,,,,,,,,,,,,,,,,,,,,,,,,,,,,,,,,,,,,,,,,,,,,,,,,,,,,,,,,,,,,,,,,,,
,,5de18a6fc3a15e1e4432adb8,2024-02-22_03h24.47.902,kallum_motion_pilot,2023.2.2,Linux x86_64,62.5,5de18a6fc3a15e1e4432adb8,65d6bb0e977760de756971f7,65d6be71a834b53c8a8f287b,0.031,0.031,0,111,111,102,1,eightsix,,,,,,,,,,,,,,,,,,,,,,,,,,,,,,,,,,,,,,,,,,,,,,,,,,,,,,,,,,,,,,,,,,,,,,,,,,,,,,,,,,,,,,,,,,,,,,,,,,,,,,,,,,,,,,,,,,,,,,,,,,,,,,,,,,,,,,,,,
,,5de18a6fc3a15e1e4432adb8,2024-02-22_03h24.47.902,kallum_motion_pilot,2023.2.2,Linux x86_64,62.5,5de18a6fc3a15e1e4432adb8,65d6bb0e977760de756971f7,65d6be71a834b53c8a8f287b,0.031,0.031,0,112,112,78,1,fourtwo,,,,,,,,,,,,,,,,,,,,,,,,,,,,,,,,,,,,,,,,,,,,,,,,,,,,,,,,,,,,,,,,,,,,,,,,,,,,,,,,,,,,,,,,,,,,,,,,,,,,,,,,,,,,,,,,,,,,,,,,,,,,,,,,,,,,,,,,,
,,5de18a6fc3a15e1e4432adb8,2024-02-22_03h24.47.902,kallum_motion_pilot,2023.2.2,Linux x86_64,62.5,5de18a6fc3a15e1e4432adb8,65d6bb0e977760de756971f7,65d6be71a834b53c8a8f287b,0.031,0.031,0,113,113,132,1,sevenfive,,,,,,,,,,,,,,,,,,,,,,,,,,,,,,,,,,,,,,,,,,,,,,,,,,,,,,,,,,,,,,,,,,,,,,,,,,,,,,,,,,,,,,,,,,,,,,,,,,,,,,,,,,,,,,,,,,,,,,,,,,,,,,,,,,,,,,,,,
,,5de18a6fc3a15e1e4432adb8,2024-02-22_03h24.47.902,kallum_motion_pilot,2023.2.2,Linux x86_64,62.5,5de18a6fc3a15e1e4432adb8,65d6bb0e977760de756971f7,65d6be71a834b53c8a8f287b,0.031,0.031,0,114,114,68,1,threeone,,,,,,,,,,,,,,,,,,,,,,,,,,,,,,,,,,,,,,,,,,,,,,,,,,,,,,,,,,,,,,,,,,,,,,,,,,,,,,,,,,,,,,,,,,,,,,,,,,,,,,,,,,,,,,,,,,,,,,,,,,,,,,,,,,,,,,,,,
,,5de18a6fc3a15e1e4432adb8,2024-02-22_03h24.47.902,kallum_motion_pilot,2023.2.2,Linux x86_64,62.5,5de18a6fc3a15e1e4432adb8,65d6bb0e977760de756971f7,65d6be71a834b53c8a8f287b,0.031,0.031,0,115,115,29,1,threefour,,,,,,,,,,,,,,,,,,,,,,,,,,,,,,,,,,,,,,,,,,,,,,,,,,,,,,,,,,,,,,,,,,,,,,,,,,,,,,,,,,,,,,,,,,,,,,,,,,,,,,,,,,,,,,,,,,,,,,,,,,,,,,,,,,,,,,,,,
,,5de18a6fc3a15e1e4432adb8,2024-02-22_03h24.47.902,kallum_motion_pilot,2023.2.2,Linux x86_64,62.5,5de18a6fc3a15e1e4432adb8,65d6bb0e977760de756971f7,65d6be71a834b53c8a8f287b,0.031,0.031,0,116,116,25,1,onethree,,,,,,,,,,,,,,,,,,,,,,,,,,,,,,,,,,,,,,,,,,,,,,,,,,,,,,,,,,,,,,,,,,,,,,,,,,,,,,,,,,,,,,,,,,,,,,,,,,,,,,,,,,,,,,,,,,,,,,,,,,,,,,,,,,,,,,,,,
,,5de18a6fc3a15e1e4432adb8,2024-02-22_03h24.47.902,kallum_motion_pilot,2023.2.2,Linux x86_64,62.5,5de18a6fc3a15e1e4432adb8,65d6bb0e977760de756971f7,65d6be71a834b53c8a8f287b,0.031,0.031,0,117,117,19,1,twofour,,,,,,,,,,,,,,,,,,,,,,,,,,,,,,,,,,,,,,,,,,,,,,,,,,,,,,,,,,,,,,,,,,,,,,,,,,,,,,,,,,,,,,,,,,,,,,,,,,,,,,,,,,,,,,,,,,,,,,,,,,,,,,,,,,,,,,,,,
,,5de18a6fc3a15e1e4432adb8,2024-02-22_03h24.47.902,kallum_motion_pilot,2023.2.2,Linux x86_64,62.5,5de18a6fc3a15e1e4432adb8,65d6bb0e977760de756971f7,65d6be71a834b53c8a8f287b,0.031,0.032,0,118,118,118,1,eightsix,,,,,,,,,,,,,,,,,,,,,,,,,,,,,,,,,,,,,,,,,,,,,,,,,,,,,,,,,,,,,,,,,,,,,,,,,,,,,,,,,,,,,,,,,,,,,,,,,,,,,,,,,,,,,,,,,,,,,,,,,,,,,,,,,,,,,,,,,
,,5de18a6fc3a15e1e4432adb8,2024-02-22_03h24.47.902,kallum_motion_pilot,2023.2.2,Linux x86_64,62.5,5de18a6fc3a15e1e4432adb8,65d6bb0e977760de756971f7,65d6be71a834b53c8a8f287b,0.032,0.032,0,119,119,7,1,fourthree,,,,,,,,,,,,,,,,,,,,,,,,,,,,,,,,,,,,,,,,,,,,,,,,,,,,,,,,,,,,,,,,,,,,,,,,,,,,,,,,,,,,,,,,,,,,,,,,,,,,,,,,,,,,,,,,,,,,,,,,,,,,,,,,,,,,,,,,,
,,5de18a6fc3a15e1e4432adb8,2024-02-22_03h24.47.902,kallum_motion_pilot,2023.2.2,Linux x86_64,62.5,5de18a6fc3a15e1e4432adb8,65d6bb0e977760de756971f7,65d6be71a834b53c8a8f287b,0.032,0.032,0,120,120,87,1,eightseven,,,,,,,,,,,,,,,,,,,,,,,,,,,,,,,,,,,,,,,,,,,,,,,,,,,,,,,,,,,,,,,,,,,,,,,,,,,,,,,,,,,,,,,,,,,,,,,,,,,,,,,,,,,,,,,,,,,,,,,,,,,,,,,,,,,,,,,,,
,,5de18a6fc3a15e1e4432adb8,2024-02-22_03h24.47.902,kallum_motion_pilot,2023.2.2,Linux x86_64,62.5,5de18a6fc3a15e1e4432adb8,65d6bb0e977760de756971f7,65d6be71a834b53c8a8f287b,0.032,0.032,0,121,121,116,1,sevenfive,,,,,,,,,,,,,,,,,,,,,,,,,,,,,,,,,,,,,,,,,,,,,,,,,,,,,,,,,,,,,,,,,,,,,,,,,,,,,,,,,,,,,,,,,,,,,,,,,,,,,,,,,,,,,,,,,,,,,,,,,,,,,,,,,,,,,,,,,
,,5de18a6fc3a15e1e4432adb8,2024-02-22_03h24.47.902,kallum_motion_pilot,2023.2.2,Linux x86_64,62.5,5de18a6fc3a15e1e4432adb8,65d6bb0e977760de756971f7,65d6be71a834b53c8a8f287b,0.032,0.032,0,122,122,103,1,eightseven,,,,,,,,,,,,,,,,,,,,,,,,,,,,,,,,,,,,,,,,,,,,,,,,,,,,,,,,,,,,,,,,,,,,,,,,,,,,,,,,,,,,,,,,,,,,,,,,,,,,,,,,,,,,,,,,,,,,,,,,,,,,,,,,,,,,,,,,,
,,5de18a6fc3a15e1e4432adb8,2024-02-22_03h24.47.902,kallum_motion_pilot,2023.2.2,Linux x86_64,62.5,5de18a6fc3a15e1e4432adb8,65d6bb0e977760de756971f7,65d6be71a834b53c8a8f287b,0.032,0.032,0,123,123,136,1,fivesix,,,,,,,,,,,,,,,,,,,,,,,,,,,,,,,,,,,,,,,,,,,,,,,,,,,,,,,,,,,,,,,,,,,,,,,,,,,,,,,,,,,,,,,,,,,,,,,,,,,,,,,,,,,,,,,,,,,,,,,,,,,,,,,,,,,,,,,,,
,,5de18a6fc3a15e1e4432adb8,2024-02-22_03h24.47.902,kallum_motion_pilot,2023.2.2,Linux x86_64,62.5,5de18a6fc3a15e1e4432adb8,65d6bb0e977760de756971f7,65d6be71a834b53c8a8f287b,0.032,0.032,0,124,124,71,1,fourthree,,,,,,,,,,,,,,,,,,,,,,,,,,,,,,,,,,,,,,,,,,,,,,,,,,,,,,,,,,,,,,,,,,,,,,,,,,,,,,,,,,,,,,,,,,,,,,,,,,,,,,,,,,,,,,,,,,,,,,,,,,,,,,,,,,,,,,,,,
,,5de18a6fc3a15e1e4432adb8,2024-02-22_03h24.47.902,kallum_motion_pilot,2023.2.2,Linux x86_64,62.5,5de18a6fc3a15e1e4432adb8,65d6bb0e977760de756971f7,65d6be71a834b53c8a8f287b,0.032,0.032,0,125,125,99,1,sixeight,,,,,,,,,,,,,,,,,,,,,,,,,,,,,,,,,,,,,,,,,,,,,,,,,,,,,,,,,,,,,,,,,,,,,,,,,,,,,,,,,,,,,,,,,,,,,,,,,,,,,,,,,,,,,,,,,,,,,,,,,,,,,,,,,,,,,,,,,
,,5de18a6fc3a15e1e4432adb8,2024-02-22_03h24.47.902,kallum_motion_pilot,2023.2.2,Linux x86_64,62.5,5de18a6fc3a15e1e4432adb8,65d6bb0e977760de756971f7,65d6be71a834b53c8a8f287b,0.032,0.032,0,126,126,61,1,threefour,,,,,,,,,,,,,,,,,,,,,,,,,,,,,,,,,,,,,,,,,,,,,,,,,,,,,,,,,,,,,,,,,,,,,,,,,,,,,,,,,,,,,,,,,,,,,,,,,,,,,,,,,,,,,,,,,,,,,,,,,,,,,,,,,,,,,,,,,
,,5de18a6fc3a15e1e4432adb8,2024-02-22_03h24.47.902,kallum_motion_pilot,2023.2.2,Linux x86_64,62.5,5de18a6fc3a15e1e4432adb8,65d6bb0e977760de756971f7,65d6be71a834b53c8a8f287b,0.032,0.032,0,127,127,127,1,eightseven,,,,,,,,,,,,,,,,,,,,,,,,,,,,,,,,,,,,,,,,,,,,,,,,,,,,,,,,,,,,,,,,,,,,,,,,,,,,,,,,,,,,,,,,,,,,,,,,,,,,,,,,,,,,,,,,,,,,,,,,,,,,,,,,,,,,,,,,,
,,5de18a6fc3a15e1e4432adb8,2024-02-22_03h24.47.902,kallum_motion_pilot,2023.2.2,Linux x86_64,62.5,5de18a6fc3a15e1e4432adb8,65d6bb0e977760de756971f7,65d6be71a834b53c8a8f287b,0.033,0.033,0,128,128,93,1,seveneight,,,,,,,,,,,,,,,,,,,,,,,,,,,,,,,,,,,,,,,,,,,,,,,,,,,,,,,,,,,,,,,,,,,,,,,,,,,,,,,,,,,,,,,,,,,,,,,,,,,,,,,,,,,,,,,,,,,,,,,,,,,,,,,,,,,,,,,,,
,,5de18a6fc3a15e1e4432adb8,2024-02-22_03h24.47.902,kallum_motion_pilot,2023.2.2,Linux x86_64,62.5,5de18a6fc3a15e1e4432adb8,65d6bb0e977760de756971f7,65d6be71a834b53c8a8f287b,0.033,0.033,0,129,129,107,1,sixeight,,,,,,,,,,,,,,,,,,,,,,,,,,,,,,,,,,,,,,,,,,,,,,,,,,,,,,,,,,,,,,,,,,,,,,,,,,,,,,,,,,,,,,,,,,,,,,,,,,,,,,,,,,,,,,,,,,,,,,,,,,,,,,,,,,,,,,,,,
,,5de18a6fc3a15e1e4432adb8,2024-02-22_03h24.47.902,kallum_motion_pilot,2023.2.2,Linux x86_64,62.5,5de18a6fc3a15e1e4432adb8,65d6bb0e977760de756971f7,65d6be71a834b53c8a8f287b,0.033,0.033,0,130,130,128,1,fivesix,,,,,,,,,,,,,,,,,,,,,,,,,,,,,,,,,,,,,,,,,,,,,,,,,,,,,,,,,,,,,,,,,,,,,,,,,,,,,,,,,,,,,,,,,,,,,,,,,,,,,,,,,,,,,,,,,,,,,,,,,,,,,,,,,,,,,,,,,
,,5de18a6fc3a15e1e4432adb8,2024-02-22_03h24.47.902,kallum_motion_pilot,2023.2.2,Linux x86_64,62.5,5de18a6fc3a15e1e4432adb8,65d6bb0e977760de756971f7,65d6be71a834b53c8a8f287b,0.033,0.033,0,131,131,59,1,twofour,,,,,,,,,,,,,,,,,,,,,,,,,,,,,,,,,,,,,,,,,,,,,,,,,,,,,,,,,,,,,,,,,,,,,,,,,,,,,,,,,,,,,,,,,,,,,,,,,,,,,,,,,,,,,,,,,,,,,,,,,,,,,,,,,,,,,,,,,
,,5de18a6fc3a15e1e4432adb8,2024-02-22_03h24.47.902,kallum_motion_pilot,2023.2.2,Linux x86_64,62.5,5de18a6fc3a15e1e4432adb8,65d6bb0e977760de756971f7,65d6be71a834b53c8a8f287b,0.033,0.033,0,132,132,108,1,sevenfive,,,,,,,,,,,,,,,,,,,,,,,,,,,,,,,,,,,,,,,,,,,,,,,,,,,,,,,,,,,,,,,,,,,,,,,,,,,,,,,,,,,,,,,,,,,,,,,,,,,,,,,,,,,,,,,,,,,,,,,,,,,,,,,,,,,,,,,,,
,,5de18a6fc3a15e1e4432adb8,2024-02-22_03h24.47.902,kallum_motion_pilot,2023.2.2,Linux x86_64,62.5,5de18a6fc3a15e1e4432adb8,65d6bb0e977760de756971f7,65d6be71a834b53c8a8f287b,0.033,0.033,0,133,133,37,1,threefour,,,,,,,,,,,,,,,,,,,,,,,,,,,,,,,,,,,,,,,,,,,,,,,,,,,,,,,,,,,,,,,,,,,,,,,,,,,,,,,,,,,,,,,,,,,,,,,,,,,,,,,,,,,,,,,,,,,,,,,,,,,,,,,,,,,,,,,,,
,,5de18a6fc3a15e1e4432adb8,2024-02-22_03h24.47.902,kallum_motion_pilot,2023.2.2,Linux x86_64,62.5,5de18a6fc3a15e1e4432adb8,65d6bb0e977760de756971f7,65d6be71a834b53c8a8f287b,0.033,0.033,0,134,134,138,1,sixfive,,,,,,,,,,,,,,,,,,,,,,,,,,,,,,,,,,,,,,,,,,,,,,,,,,,,,,,,,,,,,,,,,,,,,,,,,,,,,,,,,,,,,,,,,,,,,,,,,,,,,,,,,,,,,,,,,,,,,,,,,,,,,,,,,,,,,,,,,
,,5de18a6fc3a15e1e4432adb8,2024-02-22_03h24.47.902,kallum_motion_pilot,2023.2.2,Linux x86_64,62.5,5de18a6fc3a15e1e4432adb8,65d6bb0e977760de756971f7,65d6be71a834b53c8a8f287b,0.033,0.033,0,135,135,27,1,twofour,,,,,,,,,,,,,,,,,,,,,,,,,,,,,,,,,,,,,,,,,,,,,,,,,,,,,,,,,,,,,,,,,,,,,,,,,,,,,,,,,,,,,,,,,,,,,,,,,,,,,,,,,,,,,,,,,,,,,,,,,,,,,,,,,,,,,,,,,
,,5de18a6fc3a15e1e4432adb8,2024-02-22_03h24.47.902,kallum_motion_pilot,2023.2.2,Linux x86_64,62.5,5de18a6fc3a15e1e4432adb8,65d6bb0e977760de756971f7,65d6be71a834b53c8a8f287b,0.033,0.033,0,136,136,106,1,sixfive,,,,,,,,,,,,,,,,,,,,,,,,,,,,,,,,,,,,,,,,,,,,,,,,,,,,,,,,,,,,,,,,,,,,,,,,,,,,,,,,,,,,,,,,,,,,,,,,,,,,,,,,,,,,,,,,,,,,,,,,,,,,,,,,,,,,,,,,,
,,5de18a6fc3a15e1e4432adb8,2024-02-22_03h24.47.902,kallum_motion_pilot,2023.2.2,Linux x86_64,62.5,5de18a6fc3a15e1e4432adb8,65d6bb0e977760de756971f7,65d6be71a834b53c8a8f287b,0.033,0.033,0,137,137,113,1,fiveseven,,,,,,,,,,,,,,,,,,,,,,,,,,,,,,,,,,,,,,,,,,,,,,,,,,,,,,,,,,,,,,,,,,,,,,,,,,,,,,,,,,,,,,,,,,,,,,,,,,,,,,,,,,,,,,,,,,,,,,,,,,,,,,,,,,,,,,,,,
,,5de18a6fc3a15e1e4432adb8,2024-02-22_03h24.47.902,kallum_motion_pilot,2023.2.2,Linux x86_64,62.5,5de18a6fc3a15e1e4432adb8,65d6bb0e977760de756971f7,65d6be71a834b53c8a8f287b,0.033,0.033,0,138,138,56,1,onetwo,,,,,,,,,,,,,,,,,,,,,,,,,,,,,,,,,,,,,,,,,,,,,,,,,,,,,,,,,,,,,,,,,,,,,,,,,,,,,,,,,,,,,,,,,,,,,,,,,,,,,,,,,,,,,,,,,,,,,,,,,,,,,,,,,,,,,,,,,
,,5de18a6fc3a15e1e4432adb8,2024-02-22_03h24.47.902,kallum_motion_pilot,2023.2.2,Linux x86_64,62.5,5de18a6fc3a15e1e4432adb8,65d6bb0e977760de756971f7,65d6be71a834b53c8a8f287b,0.034,0.034,0,139,139,33,1,onethree,,,,,,,,,,,,,,,,,,,,,,,,,,,,,,,,,,,,,,,,,,,,,,,,,,,,,,,,,,,,,,,,,,,,,,,,,,,,,,,,,,,,,,,,,,,,,,,,,,,,,,,,,,,,,,,,,,,,,,,,,,,,,,,,,,,,,,,,,
,,5de18a6fc3a15e1e4432adb8,2024-02-22_03h24.47.902,kallum_motion_pilot,2023.2.2,Linux x86_64,62.5,5de18a6fc3a15e1e4432adb8,65d6bb0e977760de756971f7,65d6be71a834b53c8a8f287b,0.034,0.034,0,140,140,85,1,seveneight,,,,,,,,,,,,,,,,,,,,,,,,,,,,,,,,,,,,,,,,,,,,,,,,,,,,,,,,,,,,,,,,,,,,,,,,,,,,,,,,,,,,,,,,,,,,,,,,,,,,,,,,,,,,,,,,,,,,,,,,,,,,,,,,,,,,,,,,,
,,5de18a6fc3a15e1e4432adb8,2024-02-22_03h24.47.902,kallum_motion_pilot,2023.2.2,Linux x86_64,62.5,5de18a6fc3a15e1e4432adb8,65d6bb0e977760de756971f7,65d6be71a834b53c8a8f287b,0.034,0.034,0,141,141,150,1,eightsix,,,,,,,,,,,,,,,,,,,,,,,,,,,,,,,,,,,,,,,,,,,,,,,,,,,,,,,,,,,,,,,,,,,,,,,,,,,,,,,,,,,,,,,,,,,,,,,,,,,,,,,,,,,,,,,,,,,,,,,,,,,,,,,,,,,,,,,,,
,,5de18a6fc3a15e1e4432adb8,2024-02-22_03h24.47.902,kallum_motion_pilot,2023.2.2,Linux x86_64,62.5,5de18a6fc3a15e1e4432adb8,65d6bb0e977760de756971f7,65d6be71a834b53c8a8f287b,0.034,0.034,0,142,142,145,1,fiveseven,,,,,,,,,,,,,,,,,,,,,,,,,,,,,,,,,,,,,,,,,,,,,,,,,,,,,,,,,,,,,,,,,,,,,,,,,,,,,,,,,,,,,,,,,,,,,,,,,,,,,,,,,,,,,,,,,,,,,,,,,,,,,,,,,,,,,,,,,
,,5de18a6fc3a15e1e4432adb8,2024-02-22_03h24.47.902,kallum_motion_pilot,2023.2.2,Linux x86_64,62.5,5de18a6fc3a15e1e4432adb8,65d6bb0e977760de756971f7,65d6be71a834b53c8a8f287b,0.034,0.034,0,143,143,88,1,fivesix,,,,,,,,,,,,,,,,,,,,,,,,,,,,,,,,,,,,,,,,,,,,,,,,,,,,,,,,,,,,,,,,,,,,,,,,,,,,,,,,,,,,,,,,,,,,,,,,,,,,,,,,,,,,,,,,,,,,,,,,,,,,,,,,,,,,,,,,,
,,5de18a6fc3a15e1e4432adb8,2024-02-22_03h24.47.902,kallum_motion_pilot,2023.2.2,Linux x86_64,62.5,5de18a6fc3a15e1e4432adb8,65d6bb0e977760de756971f7,65d6be71a834b53c8a8f287b,0.034,0.034,0,144,144,82,1,sixfive,,,,,,,,,,,,,,,,,,,,,,,,,,,,,,,,,,,,,,,,,,,,,,,,,,,,,,,,,,,,,,,,,,,,,,,,,,,,,,,,,,,,,,,,,,,,,,,,,,,,,,,,,,,,,,,,,,,,,,,,,,,,,,,,,,,,,,,,,
,,5de18a6fc3a15e1e4432adb8,2024-02-22_03h24.47.902,kallum_motion_pilot,2023.2.2,Linux x86_64,62.5,5de18a6fc3a15e1e4432adb8,65d6bb0e977760de756971f7,65d6be71a834b53c8a8f287b,0.034,0.034,0,145,145,152,1,fivesix,,,,,,,,,,,,,,,,,,,,,,,,,,,,,,,,,,,,,,,,,,,,,,,,,,,,,,,,,,,,,,,,,,,,,,,,,,,,,,,,,,,,,,,,,,,,,,,,,,,,,,,,,,,,,,,,,,,,,,,,,,,,,,,,,,,,,,,,,
,,5de18a6fc3a15e1e4432adb8,2024-02-22_03h24.47.902,kallum_motion_pilot,2023.2.2,Linux x86_64,62.5,5de18a6fc3a15e1e4432adb8,65d6bb0e977760de756971f7,65d6be71a834b53c8a8f287b,0.034,0.034,0,146,146,153,1,fiveseven,,,,,,,,,,,,,,,,,,,,,,,,,,,,,,,,,,,,,,,,,,,,,,,,,,,,,,,,,,,,,,,,,,,,,,,,,,,,,,,,,,,,,,,,,,,,,,,,,,,,,,,,,,,,,,,,,,,,,,,,,,,,,,,,,,,,,,,,,
,,5de18a6fc3a15e1e4432adb8,2024-02-22_03h24.47.902,kallum_motion_pilot,2023.2.2,Linux x86_64,62.5,5de18a6fc3a15e1e4432adb8,65d6bb0e977760de756971f7,65d6be71a834b53c8a8f287b,0.036,0.036,0,147,147,38,1,fourtwo,,,,,,,,,,,,,,,,,,,,,,,,,,,,,,,,,,,,,,,,,,,,,,,,,,,,,,,,,,,,,,,,,,,,,,,,,,,,,,,,,,,,,,,,,,,,,,,,,,,,,,,,,,,,,,,,,,,,,,,,,,,,,,,,,,,,,,,,,
,,5de18a6fc3a15e1e4432adb8,2024-02-22_03h24.47.902,kallum_motion_pilot,2023.2.2,Linux x86_64,62.5,5de18a6fc3a15e1e4432adb8,65d6bb0e977760de756971f7,65d6be71a834b53c8a8f287b,0.036,0.036,0,148,148,3,1,twofour,,,,,,,,,,,,,,,,,,,,,,,,,,,,,,,,,,,,,,,,,,,,,,,,,,,,,,,,,,,,,,,,,,,,,,,,,,,,,,,,,,,,,,,,,,,,,,,,,,,,,,,,,,,,,,,,,,,,,,,,,,,,,,,,,,,,,,,,,
,,5de18a6fc3a15e1e4432adb8,2024-02-22_03h24.47.902,kallum_motion_pilot,2023.2.2,Linux x86_64,62.5,5de18a6fc3a15e1e4432adb8,65d6bb0e977760de756971f7,65d6be71a834b53c8a8f287b,0.036,0.037,0,149,149,9,1,onethree,,,,,,,,,,,,,,,,,,,,,,,,,,,,,,,,,,,,,,,,,,,,,,,,,,,,,,,,,,,,,,,,,,,,,,,,,,,,,,,,,,,,,,,,,,,,,,,,,,,,,,,,,,,,,,,,,,,,,,,,,,,,,,,,,,,,,,,,,
,,5de18a6fc3a15e1e4432adb8,2024-02-22_03h24.47.902,kallum_motion_pilot,2023.2.2,Linux x86_64,62.5,5de18a6fc3a15e1e4432adb8,65d6bb0e977760de756971f7,65d6be71a834b53c8a8f287b,0.037,0.037,0,150,150,8,1,onetwo,,,,,,,,,,,,,,,,,,,,,,,,,,,,,,,,,,,,,,,,,,,,,,,,,,,,,,,,,,,,,,,,,,,,,,,,,,,,,,,,,,,,,,,,,,,,,,,,,,,,,,,,,,,,,,,,,,,,,,,,,,,,,,,,,,,,,,,,,
,,5de18a6fc3a15e1e4432adb8,2024-02-22_03h24.47.902,kallum_motion_pilot,2023.2.2,Linux x86_64,62.5,5de18a6fc3a15e1e4432adb8,65d6bb0e977760de756971f7,65d6be71a834b53c8a8f287b,0.037,0.037,0,151,151,12,1,threeone,,,,,,,,,,,,,,,,,,,,,,,,,,,,,,,,,,,,,,,,,,,,,,,,,,,,,,,,,,,,,,,,,,,,,,,,,,,,,,,,,,,,,,,,,,,,,,,,,,,,,,,,,,,,,,,,,,,,,,,,,,,,,,,,,,,,,,,,,
,,5de18a6fc3a15e1e4432adb8,2024-02-22_03h24.47.902,kallum_motion_pilot,2023.2.2,Linux x86_64,62.5,5de18a6fc3a15e1e4432adb8,65d6bb0e977760de756971f7,65d6be71a834b53c8a8f287b,0.037,0.037,0,152,152,45,1,threefour,,,,,,,,,,,,,,,,,,,,,,,,,,,,,,,,,,,,,,,,,,,,,,,,,,,,,,,,,,,,,,,,,,,,,,,,,,,,,,,,,,,,,,,,,,,,,,,,,,,,,,,,,,,,,,,,,,,,,,,,,,,,,,,,,,,,,,,,,
,,5de18a6fc3a15e1e4432adb8,2024-02-22_03h24.47.902,kallum_motion_pilot,2023.2.2,Linux x86_64,62.5,5de18a6fc3a15e1e4432adb8,65d6bb0e977760de756971f7,65d6be71a834b53c8a8f287b,0.037,0.037,0,153,153,73,1,onethree,,,,,,,,,,,,,,,,,,,,,,,,,,,,,,,,,,,,,,,,,,,,,,,,,,,,,,,,,,,,,,,,,,,,,,,,,,,,,,,,,,,,,,,,,,,,,,,,,,,,,,,,,,,,,,,,,,,,,,,,,,,,,,,,,,,,,,,,,
,,5de18a6fc3a15e1e4432adb8,2024-02-22_03h24.47.902,kallum_motion_pilot,2023.2.2,Linux x86_64,62.5,5de18a6fc3a15e1e4432adb8,65d6bb0e977760de756971f7,65d6be71a834b53c8a8f287b,0.037,0.037,0,154,154,30,1,fourtwo,,,,,,,,,,,,,,,,,,,,,,,,,,,,,,,,,,,,,,,,,,,,,,,,,,,,,,,,,,,,,,,,,,,,,,,,,,,,,,,,,,,,,,,,,,,,,,,,,,,,,,,,,,,,,,,,,,,,,,,,,,,,,,,,,,,,,,,,,
,,5de18a6fc3a15e1e4432adb8,2024-02-22_03h24.47.902,kallum_motion_pilot,2023.2.2,Linux x86_64,62.5,5de18a6fc3a15e1e4432adb8,65d6bb0e977760de756971f7,65d6be71a834b53c8a8f287b,0.037,0.037,0,155,155,117,1,seveneight,,,,,,,,,,,,,,,,,,,,,,,,,,,,,,,,,,,,,,,,,,,,,,,,,,,,,,,,,,,,,,,,,,,,,,,,,,,,,,,,,,,,,,,,,,,,,,,,,,,,,,,,,,,,,,,,,,,,,,,,,,,,,,,,,,,,,,,,,
,,5de18a6fc3a15e1e4432adb8,2024-02-22_03h24.47.902,kallum_motion_pilot,2023.2.2,Linux x86_64,62.5,5de18a6fc3a15e1e4432adb8,65d6bb0e977760de756971f7,65d6be71a834b53c8a8f287b,0.037,0.037,0,156,156,10,1,twoone,,,,,,,,,,,,,,,,,,,,,,,,,,,,,,,,,,,,,,,,,,,,,,,,,,,,,,,,,,,,,,,,,,,,,,,,,,,,,,,,,,,,,,,,,,,,,,,,,,,,,,,,,,,,,,,,,,,,,,,,,,,,,,,,,,,,,,,,,
,,5de18a6fc3a15e1e4432adb8,2024-02-22_03h24.47.902,kallum_motion_pilot,2023.2.2,Linux x86_64,62.5,5de18a6fc3a15e1e4432adb8,65d6bb0e977760de756971f7,65d6be71a834b53c8a8f287b,0.037,0.037,0,157,157,92,1,sevenfive,,,,,,,,,,,,,,,,,,,,,,,,,,,,,,,,,,,,,,,,,,,,,,,,,,,,,,,,,,,,,,,,,,,,,,,,,,,,,,,,,,,,,,,,,,,,,,,,,,,,,,,,,,,,,,,,,,,,,,,,,,,,,,,,,,,,,,,,,
,,5de18a6fc3a15e1e4432adb8,2024-02-22_03h24.47.902,kallum_motion_pilot,2023.2.2,Linux x86_64,62.5,5de18a6fc3a15e1e4432adb8,65d6bb0e977760de756971f7,65d6be71a834b53c8a8f287b,0.037,0.038,0,158,158,84,1,sevenfive,,,,,,,,,,,,,,,,,,,,,,,,,,,,,,,,,,,,,,,,,,,,,,,,,,,,,,,,,,,,,,,,,,,,,,,,,,,,,,,,,,,,,,,,,,,,,,,,,,,,,,,,,,,,,,,,,,,,,,,,,,,,,,,,,,,,,,,,,
,,5de18a6fc3a15e1e4432adb8,2024-02-22_03h24.47.902,kallum_motion_pilot,2023.2.2,Linux x86_64,62.5,5de18a6fc3a15e1e4432adb8,65d6bb0e977760de756971f7,65d6be71a834b53c8a8f287b,0.038,0.038,0,159,159,133,1,seveneight,,,,,,,,,,,,,,,,,,,,,,,,,,,,,,,,,,,,,,,,,,,,,,,,,,,,,,,,,,,,,,,,,,,,,,,,,,,,,,,,,,,,,,,,,,,,,,,,,,,,,,,,,,,,,,,,,,,,,,,,,,,,,,,,,,,,,,,,,
,,5de18a6fc3a15e1e4432adb8,2024-02-22_03h24.47.902,kallum_motion_pilot,2023.2.2,Linux x86_64,62.5,5de18a6fc3a15e1e4432adb8,65d6bb0e977760de756971f7,65d6be71a834b53c8a8f287b,0.038,0.038,0,160,160,140,1,sevenfive,,,,,,,,,,,,,,,,,,,,,,,,,,,,,,,,,,,,,,,,,,,,,,,,,,,,,,,,,,,,,,,,,,,,,,,,,,,,,,,,,,,,,,,,,,,,,,,,,,,,,,,,,,,,,,,,,,,,,,,,,,,,,,,,,,,,,,,,,
,,5de18a6fc3a15e1e4432adb8,2024-02-22_03h24.47.902,kallum_motion_pilot,2023.2.2,Linux x86_64,62.5,5de18a6fc3a15e1e4432adb8,65d6bb0e977760de756971f7,65d6be71a834b53c8a8f287b,0.038,0.038,0,161,161,67,1,twofour,,,,,,,,,,,,,,,,,,,,,,,,,,,,,,,,,,,,,,,,,,,,,,,,,,,,,,,,,,,,,,,,,,,,,,,,,,,,,,,,,,,,,,,,,,,,,,,,,,,,,,,,,,,,,,,,,,,,,,,,,,,,,,,,,,,,,,,,,
,,5de18a6fc3a15e1e4432adb8,2024-02-22_03h24.47.902,kallum_motion_pilot,2023.2.2,Linux x86_64,62.5,5de18a6fc3a15e1e4432adb8,65d6bb0e977760de756971f7,65d6be71a834b53c8a8f287b,0.038,0.038,1,0,162,100,1,sevenfive,,,,,,,,,,,,,,,,,,,,,,,,,,,,,,,,,,,,,,,,,,,,,,,,,,,,,,,,,,,,,,,,,,,,,,,,,,,,,,,,,,,,,,,,,,,,,,,,,,,,,,,,,,,,,,,,,,,,,,,,,,,,,,,,,,,,,,,,,
,,5de18a6fc3a15e1e4432adb8,2024-02-22_03h24.47.902,kallum_motion_pilot,2023.2.2,Linux x86_64,62.5,5de18a6fc3a15e1e4432adb8,65d6bb0e977760de756971f7,65d6be71a834b53c8a8f287b,0.038,0.038,1,1,163,114,1,sixfive,,,,,,,,,,,,,,,,,,,,,,,,,,,,,,,,,,,,,,,,,,,,,,,,,,,,,,,,,,,,,,,,,,,,,,,,,,,,,,,,,,,,,,,,,,,,,,,,,,,,,,,,,,,,,,,,,,,,,,,,,,,,,,,,,,,,,,,,,
,,5de18a6fc3a15e1e4432adb8,2024-02-22_03h24.47.902,kallum_motion_pilot,2023.2.2,Linux x86_64,62.5,5de18a6fc3a15e1e4432adb8,65d6bb0e977760de756971f7,65d6be71a834b53c8a8f287b,0.038,0.038,1,2,164,79,1,eightseven,,,,,,,,,,,,,,,,,,,,,,,,,,,,,,,,,,,,,,,,,,,,,,,,,,,,,,,,,,,,,,,,,,,,,,,,,,,,,,,,,,,,,,,,,,,,,,,,,,,,,,,,,,,,,,,,,,,,,,,,,,,,,,,,,,,,,,,,,
,,5de18a6fc3a15e1e4432adb8,2024-02-22_03h24.47.902,kallum_motion_pilot,2023.2.2,Linux x86_64,62.5,5de18a6fc3a15e1e4432adb8,65d6bb0e977760de756971f7,65d6be71a834b53c8a8f287b,0.038,0.038,1,3,165,75,1,twofour,,,,,,,,,,,,,,,,,,,,,,,,,,,,,,,,,,,,,,,,,,,,,,,,,,,,,,,,,,,,,,,,,,,,,,,,,,,,,,,,,,,,,,,,,,,,,,,,,,,,,,,,,,,,,,,,,,,,,,,,,,,,,,,,,,,,,,,,,
,,5de18a6fc3a15e1e4432adb8,2024-02-22_03h24.47.902,kallum_motion_pilot,2023.2.2,Linux x86_64,62.5,5de18a6fc3a15e1e4432adb8,65d6bb0e977760de756971f7,65d6be71a834b53c8a8f287b,0.038,0.038,1,4,166,105,1,fiveseven,,,,,,,,,,,,,,,,,,,,,,,,,,,,,,,,,,,,,,,,,,,,,,,,,,,,,,,,,,,,,,,,,,,,,,,,,,,,,,,,,,,,,,,,,,,,,,,,,,,,,,,,,,,,,,,,,,,,,,,,,,,,,,,,,,,,,,,,,
,,5de18a6fc3a15e1e4432adb8,2024-02-22_03h24.47.902,kallum_motion_pilot,2023.2.2,Linux x86_64,62.5,5de18a6fc3a15e1e4432adb8,65d6bb0e977760de756971f7,65d6be71a834b53c8a8f287b,0.038,0.038,1,5,167,126,1,eightsix,,,,,,,,,,,,,,,,,,,,,,,,,,,,,,,,,,,,,,,,,,,,,,,,,,,,,,,,,,,,,,,,,,,,,,,,,,,,,,,,,,,,,,,,,,,,,,,,,,,,,,,,,,,,,,,,,,,,,,,,,,,,,,,,,,,,,,,,,
,,5de18a6fc3a15e1e4432adb8,2024-02-22_03h24.47.902,kallum_motion_pilot,2023.2.2,Linux x86_64,62.5,5de18a6fc3a15e1e4432adb8,65d6bb0e977760de756971f7,65d6be71a834b53c8a8f287b,0.039,0.039,1,6,168,125,1,seveneight,,,,,,,,,,,,,,,,,,,,,,,,,,,,,,,,,,,,,,,,,,,,,,,,,,,,,,,,,,,,,,,,,,,,,,,,,,,,,,,,,,,,,,,,,,,,,,,,,,,,,,,,,,,,,,,,,,,,,,,,,,,,,,,,,,,,,,,,,
,,5de18a6fc3a15e1e4432adb8,2024-02-22_03h24.47.902,kallum_motion_pilot,2023.2.2,Linux x86_64,62.5,5de18a6fc3a15e1e4432adb8,65d6bb0e977760de756971f7,65d6be71a834b53c8a8f287b,0.039,0.039,1,7,169,66,1,twoone,,,,,,,,,,,,,,,,,,,,,,,,,,,,,,,,,,,,,,,,,,,,,,,,,,,,,,,,,,,,,,,,,,,,,,,,,,,,,,,,,,,,,,,,,,,,,,,,,,,,,,,,,,,,,,,,,,,,,,,,,,,,,,,,,,,,,,,,,
,,5de18a6fc3a15e1e4432adb8,2024-02-22_03h24.47.902,kallum_motion_pilot,2023.2.2,Linux x86_64,62.5,5de18a6fc3a15e1e4432adb8,65d6bb0e977760de756971f7,65d6be71a834b53c8a8f287b,0.039,0.039,1,8,170,138,1,sixfive,,,,,,,,,,,,,,,,,,,,,,,,,,,,,,,,,,,,,,,,,,,,,,,,,,,,,,,,,,,,,,,,,,,,,,,,,,,,,,,,,,,,,,,,,,,,,,,,,,,,,,,,,,,,,,,,,,,,,,,,,,,,,,,,,,,,,,,,,
,,5de18a6fc3a15e1e4432adb8,2024-02-22_03h24.47.902,kallum_motion_pilot,2023.2.2,Linux x86_64,62.5,5de18a6fc3a15e1e4432adb8,65d6bb0e977760de756971f7,65d6be71a834b53c8a8f287b,0.039,0.039,1,9,171,57,1,onethree,,,,,,,,,,,,,,,,,,,,,,,,,,,,,,,,,,,,,,,,,,,,,,,,,,,,,,,,,,,,,,,,,,,,,,,,,,,,,,,,,,,,,,,,,,,,,,,,,,,,,,,,,,,,,,,,,,,,,,,,,,,,,,,,,,,,,,,,,
,,5de18a6fc3a15e1e4432adb8,2024-02-22_03h24.47.902,kallum_motion_pilot,2023.2.2,Linux x86_64,62.5,5de18a6fc3a15e1e4432adb8,65d6bb0e977760de756971f7,65d6be71a834b53c8a8f287b,0.039,0.039,1,10,172,137,1,fiveseven,,,,,,,,,,,,,,,,,,,,,,,,,,,,,,,,,,,,,,,,,,,,,,,,,,,,,,,,,,,,,,,,,,,,,,,,,,,,,,,,,,,,,,,,,,,,,,,,,,,,,,,,,,,,,,,,,,,,,,,,,,,,,,,,,,,,,,,,,
,,5de18a6fc3a15e1e4432adb8,2024-02-22_03h24.47.902,kallum_motion_pilot,2023.2.2,Linux x86_64,62.5,5de18a6fc3a15e1e4432adb8,65d6bb0e977760de756971f7,65d6be71a834b53c8a8f287b,0.039,0.039,1,11,173,29,1,threefour,,,,,,,,,,,,,,,,,,,,,,,,,,,,,,,,,,,,,,,,,,,,,,,,,,,,,,,,,,,,,,,,,,,,,,,,,,,,,,,,,,,,,,,,,,,,,,,,,,,,,,,,,,,,,,,,,,,,,,,,,,,,,,,,,,,,,,,,,
,,5de18a6fc3a15e1e4432adb8,2024-02-22_03h24.47.902,kallum_motion_pilot,2023.2.2,Linux x86_64,62.5,5de18a6fc3a15e1e4432adb8,65d6bb0e977760de756971f7,65d6be71a834b53c8a8f287b,0.039,0.039,1,12,174,140,1,sevenfive,,,,,,,,,,,,,,,,,,,,,,,,,,,,,,,,,,,,,,,,,,,,,,,,,,,,,,,,,,,,,,,,,,,,,,,,,,,,,,,,,,,,,,,,,,,,,,,,,,,,,,,,,,,,,,,,,,,,,,,,,,,,,,,,,,,,,,,,,
,,5de18a6fc3a15e1e4432adb8,2024-02-22_03h24.47.902,kallum_motion_pilot,2023.2.2,Linux x86_64,62.5,5de18a6fc3a15e1e4432adb8,65d6bb0e977760de756971f7,65d6be71a834b53c8a8f287b,0.039,0.039,1,13,175,3,1,twofour,,,,,,,,,,,,,,,,,,,,,,,,,,,,,,,,,,,,,,,,,,,,,,,,,,,,,,,,,,,,,,,,,,,,,,,,,,,,,,,,,,,,,,,,,,,,,,,,,,,,,,,,,,,,,,,,,,,,,,,,,,,,,,,,,,,,,,,,,
,,5de18a6fc3a15e1e4432adb8,2024-02-22_03h24.47.902,kallum_motion_pilot,2023.2.2,Linux x86_64,62.5,5de18a6fc3a15e1e4432adb8,65d6bb0e977760de756971f7,65d6be71a834b53c8a8f287b,0.039,0.039,1,14,176,48,1,onetwo,,,,,,,,,,,,,,,,,,,,,,,,,,,,,,,,,,,,,,,,,,,,,,,,,,,,,,,,,,,,,,,,,,,,,,,,,,,,,,,,,,,,,,,,,,,,,,,,,,,,,,,,,,,,,,,,,,,,,,,,,,,,,,,,,,,,,,,,,
,,5de18a6fc3a15e1e4432adb8,2024-02-22_03h24.47.902,kallum_motion_pilot,2023.2.2,Linux x86_64,62.5,5de18a6fc3a15e1e4432adb8,65d6bb0e977760de756971f7,65d6be71a834b53c8a8f287b,0.04,0.04,1,15,177,2,1,twoone,,,,,,,,,,,,,,,,,,,,,,,,,,,,,,,,,,,,,,,,,,,,,,,,,,,,,,,,,,,,,,,,,,,,,,,,,,,,,,,,,,,,,,,,,,,,,,,,,,,,,,,,,,,,,,,,,,,,,,,,,,,,,,,,,,,,,,,,,
,,5de18a6fc3a15e1e4432adb8,2024-02-22_03h24.47.902,kallum_motion_pilot,2023.2.2,Linux x86_64,62.5,5de18a6fc3a15e1e4432adb8,65d6bb0e977760de756971f7,65d6be71a834b53c8a8f287b,0.04,0.04,1,16,178,62,1,fourtwo,,,,,,,,,,,,,,,,,,,,,,,,,,,,,,,,,,,,,,,,,,,,,,,,,,,,,,,,,,,,,,,,,,,,,,,,,,,,,,,,,,,,,,,,,,,,,,,,,,,,,,,,,,,,,,,,,,,,,,,,,,,,,,,,,,,,,,,,,
,,5de18a6fc3a15e1e4432adb8,2024-02-22_03h24.47.902,kallum_motion_pilot,2023.2.2,Linux x86_64,62.5,5de18a6fc3a15e1e4432adb8,65d6bb0e977760de756971f7,65d6be71a834b53c8a8f287b,0.04,0.04,1,17,179,80,1,fivesix,,,,,,,,,,,,,,,,,,,,,,,,,,,,,,,,,,,,,,,,,,,,,,,,,,,,,,,,,,,,,,,,,,,,,,,,,,,,,,,,,,,,,,,,,,,,,,,,,,,,,,,,,,,,,,,,,,,,,,,,,,,,,,,,,,,,,,,,,
,,5de18a6fc3a15e1e4432adb8,2024-02-22_03h24.47.902,kallum_motion_pilot,2023.2.2,Linux x86_64,62.5,5de18a6fc3a15e1e4432adb8,65d6bb0e977760de756971f7,65d6be71a834b53c8a8f287b,0.04,0.04,1,18,180,22,1,fourtwo,,,,,,,,,,,,,,,,,,,,,,,,,,,,,,,,,,,,,,,,,,,,,,,,,,,,,,,,,,,,,,,,,,,,,,,,,,,,,,,,,,,,,,,,,,,,,,,,,,,,,,,,,,,,,,,,,,,,,,,,,,,,,,,,,,,,,,,,,
,,5de18a6fc3a15e1e4432adb8,2024-02-22_03h24.47.902,kallum_motion_pilot,2023.2.2,Linux x86_64,62.5,5de18a6fc3a15e1e4432adb8,65d6bb0e977760de756971f7,65d6be71a834b53c8a8f287b,0.04,0.04,1,19,181,41,1,onethree,,,,,,,,,,,,,,,,,,,,,,,,,,,,,,,,,,,,,,,,,,,,,,,,,,,,,,,,,,,,,,,,,,,,,,,,,,,,,,,,,,,,,,,,,,,,,,,,,,,,,,,,,,,,,,,,,,,,,,,,,,,,,,,,,,,,,,,,,
,,5de18a6fc3a15e1e4432adb8,2024-02-22_03h24.47.902,kallum_motion_pilot,2023.2.2,Linux x86_64,62.5,5de18a6fc3a15e1e4432adb8,65d6bb0e977760de756971f7,65d6be71a834b53c8a8f287b,0.04,0.04,1,20,182,123,1,sixeight,,,,,,,,,,,,,,,,,,,,,,,,,,,,,,,,,,,,,,,,,,,,,,,,,,,,,,,,,,,,,,,,,,,,,,,,,,,,,,,,,,,,,,,,,,,,,,,,,,,,,,,,,,,,,,,,,,,,,,,,,,,,,,,,,,,,,,,,,
,,5de18a6fc3a15e1e4432adb8,2024-02-22_03h24.47.902,kallum_motion_pilot,2023.2.2,Linux x86_64,62.5,5de18a6fc3a15e1e4432adb8,65d6bb0e977760de756971f7,65d6be71a834b53c8a8f287b,0.04,0.04,1,21,183,38,1,fourtwo,,,,,,,,,,,,,,,,,,,,,,,,,,,,,,,,,,,,,,,,,,,,,,,,,,,,,,,,,,,,,,,,,,,,,,,,,,,,,,,,,,,,,,,,,,,,,,,,,,,,,,,,,,,,,,,,,,,,,,,,,,,,,,,,,,,,,,,,,
,,5de18a6fc3a15e1e4432adb8,2024-02-22_03h24.47.902,kallum_motion_pilot,2023.2.2,Linux x86_64,62.5,5de18a6fc3a15e1e4432adb8,65d6bb0e977760de756971f7,65d6be71a834b53c8a8f287b,0.04,0.04,1,22,184,82,1,sixfive,,,,,,,,,,,,,,,,,,,,,,,,,,,,,,,,,,,,,,,,,,,,,,,,,,,,,,,,,,,,,,,,,,,,,,,,,,,,,,,,,,,,,,,,,,,,,,,,,,,,,,,,,,,,,,,,,,,,,,,,,,,,,,,,,,,,,,,,,
,,5de18a6fc3a15e1e4432adb8,2024-02-22_03h24.47.902,kallum_motion_pilot,2023.2.2,Linux x86_64,62.5,5de18a6fc3a15e1e4432adb8,65d6bb0e977760de756971f7,65d6be71a834b53c8a8f287b,0.04,0.04,1,23,185,64,1,onetwo,,,,,,,,,,,,,,,,,,,,,,,,,,,,,,,,,,,,,,,,,,,,,,,,,,,,,,,,,,,,,,,,,,,,,,,,,,,,,,,,,,,,,,,,,,,,,,,,,,,,,,,,,,,,,,,,,,,,,,,,,,,,,,,,,,,,,,,,,
,,5de18a6fc3a15e1e4432adb8,2024-02-22_03h24.47.902,kallum_motion_pilot,2023.2.2,Linux x86_64,62.5,5de18a6fc3a15e1e4432adb8,65d6bb0e977760de756971f7,65d6be71a834b53c8a8f287b,0.04,0.04,1,24,186,121,1,fiveseven,,,,,,,,,,,,,,,,,,,,,,,,,,,,,,,,,,,,,,,,,,,,,,,,,,,,,,,,,,,,,,,,,,,,,,,,,,,,,,,,,,,,,,,,,,,,,,,,,,,,,,,,,,,,,,,,,,,,,,,,,,,,,,,,,,,,,,,,,
,,5de18a6fc3a15e1e4432adb8,2024-02-22_03h24.47.902,kallum_motion_pilot,2023.2.2,Linux x86_64,62.5,5de18a6fc3a15e1e4432adb8,65d6bb0e977760de756971f7,65d6be71a834b53c8a8f287b,0.04,0.04,1,25,187,93,1,seveneight,,,,,,,,,,,,,,,,,,,,,,,,,,,,,,,,,,,,,,,,,,,,,,,,,,,,,,,,,,,,,,,,,,,,,,,,,,,,,,,,,,,,,,,,,,,,,,,,,,,,,,,,,,,,,,,,,,,,,,,,,,,,,,,,,,,,,,,,,
,,5de18a6fc3a15e1e4432adb8,2024-02-22_03h24.47.902,kallum_motion_pilot,2023.2.2,Linux x86_64,62.5,5de18a6fc3a15e1e4432adb8,65d6bb0e977760de756971f7,65d6be71a834b53c8a8f287b,0.04,0.04,1,26,188,108,1,sevenfive,,,,,,,,,,,,,,,,,,,,,,,,,,,,,,,,,,,,,,,,,,,,,,,,,,,,,,,,,,,,,,,,,,,,,,,,,,,,,,,,,,,,,,,,,,,,,,,,,,,,,,,,,,,,,,,,,,,,,,,,,,,,,,,,,,,,,,,,,
,,5de18a6fc3a15e1e4432adb8,2024-02-22_03h24.47.902,kallum_motion_pilot,2023.2.2,Linux x86_64,62.5,5de18a6fc3a15e1e4432adb8,65d6bb0e977760de756971f7,65d6be71a834b53c8a8f287b,0.04,0.04,1,27,189,109,1,seveneight,,,,,,,,,,,,,,,,,,,,,,,,,,,,,,,,,,,,,,,,,,,,,,,,,,,,,,,,,,,,,,,,,,,,,,,,,,,,,,,,,,,,,,,,,,,,,,,,,,,,,,,,,,,,,,,,,,,,,,,,,,,,,,,,,,,,,,,,,
,,5de18a6fc3a15e1e4432adb8,2024-02-22_03h24.47.902,kallum_motion_pilot,2023.2.2,Linux x86_64,62.5,5de18a6fc3a15e1e4432adb8,65d6bb0e977760de756971f7,65d6be71a834b53c8a8f287b,0.04,0.04,1,28,190,130,1,sixfive,,,,,,,,,,,,,,,,,,,,,,,,,,,,,,,,,,,,,,,,,,,,,,,,,,,,,,,,,,,,,,,,,,,,,,,,,,,,,,,,,,,,,,,,,,,,,,,,,,,,,,,,,,,,,,,,,,,,,,,,,,,,,,,,,,,,,,,,,
,,5de18a6fc3a15e1e4432adb8,2024-02-22_03h24.47.902,kallum_motion_pilot,2023.2.2,Linux x86_64,62.5,5de18a6fc3a15e1e4432adb8,65d6bb0e977760de756971f7,65d6be71a834b53c8a8f287b,0.041,0.041,1,29,191,148,1,sevenfive,,,,,,,,,,,,,,,,,,,,,,,,,,,,,,,,,,,,,,,,,,,,,,,,,,,,,,,,,,,,,,,,,,,,,,,,,,,,,,,,,,,,,,,,,,,,,,,,,,,,,,,,,,,,,,,,,,,,,,,,,,,,,,,,,,,,,,,,,
,,5de18a6fc3a15e1e4432adb8,2024-02-22_03h24.47.902,kallum_motion_pilot,2023.2.2,Linux x86_64,62.5,5de18a6fc3a15e1e4432adb8,65d6bb0e977760de756971f7,65d6be71a834b53c8a8f287b,0.041,0.041,1,30,192,49,1,onethree,,,,,,,,,,,,,,,,,,,,,,,,,,,,,,,,,,,,,,,,,,,,,,,,,,,,,,,,,,,,,,,,,,,,,,,,,,,,,,,,,,,,,,,,,,,,,,,,,,,,,,,,,,,,,,,,,,,,,,,,,,,,,,,,,,,,,,,,,
,,5de18a6fc3a15e1e4432adb8,2024-02-22_03h24.47.902,kallum_motion_pilot,2023.2.2,Linux x86_64,62.5,5de18a6fc3a15e1e4432adb8,65d6bb0e977760de756971f7,65d6be71a834b53c8a8f287b,0.041,0.041,1,31,193,34,1,twoone,,,,,,,,,,,,,,,,,,,,,,,,,,,,,,,,,,,,,,,,,,,,,,,,,,,,,,,,,,,,,,,,,,,,,,,,,,,,,,,,,,,,,,,,,,,,,,,,,,,,,,,,,,,,,,,,,,,,,,,,,,,,,,,,,,,,,,,,,
,,5de18a6fc3a15e1e4432adb8,2024-02-22_03h24.47.902,kallum_motion_pilot,2023.2.2,Linux x86_64,62.5,5de18a6fc3a15e1e4432adb8,65d6bb0e977760de756971f7,65d6be71a834b53c8a8f287b,0.041,0.041,1,32,194,60,1,threeone,,,,,,,,,,,,,,,,,,,,,,,,,,,,,,,,,,,,,,,,,,,,,,,,,,,,,,,,,,,,,,,,,,,,,,,,,,,,,,,,,,,,,,,,,,,,,,,,,,,,,,,,,,,,,,,,,,,,,,,,,,,,,,,,,,,,,,,,,
,,5de18a6fc3a15e1e4432adb8,2024-02-22_03h24.47.902,kallum_motion_pilot,2023.2.2,Linux x86_64,62.5,5de18a6fc3a15e1e4432adb8,65d6bb0e977760de756971f7,65d6be71a834b53c8a8f287b,0.041,0.041,1,33,195,101,1,seveneight,,,,,,,,,,,,,,,,,,,,,,,,,,,,,,,,,,,,,,,,,,,,,,,,,,,,,,,,,,,,,,,,,,,,,,,,,,,,,,,,,,,,,,,,,,,,,,,,,,,,,,,,,,,,,,,,,,,,,,,,,,,,,,,,,,,,,,,,,
,,5de18a6fc3a15e1e4432adb8,2024-02-22_03h24.47.902,kallum_motion_pilot,2023.2.2,Linux x86_64,62.5,5de18a6fc3a15e1e4432adb8,65d6bb0e977760de756971f7,65d6be71a834b53c8a8f287b,0.041,0.041,1,34,196,154,1,sixfive,,,,,,,,,,,,,,,,,,,,,,,,,,,,,,,,,,,,,,,,,,,,,,,,,,,,,,,,,,,,,,,,,,,,,,,,,,,,,,,,,,,,,,,,,,,,,,,,,,,,,,,,,,,,,,,,,,,,,,,,,,,,,,,,,,,,,,,,,
,,5de18a6fc3a15e1e4432adb8,2024-02-22_03h24.47.902,kallum_motion_pilot,2023.2.2,Linux x86_64,62.5,5de18a6fc3a15e1e4432adb8,65d6bb0e977760de756971f7,65d6be71a834b53c8a8f287b,0.041,0.041,1,35,197,37,1,threefour,,,,,,,,,,,,,,,,,,,,,,,,,,,,,,,,,,,,,,,,,,,,,,,,,,,,,,,,,,,,,,,,,,,,,,,,,,,,,,,,,,,,,,,,,,,,,,,,,,,,,,,,,,,,,,,,,,,,,,,,,,,,,,,,,,,,,,,,,
,,5de18a6fc3a15e1e4432adb8,2024-02-22_03h24.47.902,kallum_motion_pilot,2023.2.2,Linux x86_64,62.5,5de18a6fc3a15e1e4432adb8,65d6bb0e977760de756971f7,65d6be71a834b53c8a8f287b,0.041,0.041,1,36,198,106,1,sixfive,,,,,,,,,,,,,,,,,,,,,,,,,,,,,,,,,,,,,,,,,,,,,,,,,,,,,,,,,,,,,,,,,,,,,,,,,,,,,,,,,,,,,,,,,,,,,,,,,,,,,,,,,,,,,,,,,,,,,,,,,,,,,,,,,,,,,,,,,
,,5de18a6fc3a15e1e4432adb8,2024-02-22_03h24.47.902,kallum_motion_pilot,2023.2.2,Linux x86_64,62.5,5de18a6fc3a15e1e4432adb8,65d6bb0e977760de756971f7,65d6be71a834b53c8a8f287b,0.041,0.041,1,37,199,134,1,eightsix,,,,,,,,,,,,,,,,,,,,,,,,,,,,,,,,,,,,,,,,,,,,,,,,,,,,,,,,,,,,,,,,,,,,,,,,,,,,,,,,,,,,,,,,,,,,,,,,,,,,,,,,,,,,,,,,,,,,,,,,,,,,,,,,,,,,,,,,,
,,5de18a6fc3a15e1e4432adb8,2024-02-22_03h24.47.902,kallum_motion_pilot,2023.2.2,Linux x86_64,62.5,5de18a6fc3a15e1e4432adb8,65d6bb0e977760de756971f7,65d6be71a834b53c8a8f287b,0.041,0.042,1,38,200,71,1,fourthree,,,,,,,,,,,,,,,,,,,,,,,,,,,,,,,,,,,,,,,,,,,,,,,,,,,,,,,,,,,,,,,,,,,,,,,,,,,,,,,,,,,,,,,,,,,,,,,,,,,,,,,,,,,,,,,,,,,,,,,,,,,,,,,,,,,,,,,,,
,,5de18a6fc3a15e1e4432adb8,2024-02-22_03h24.47.902,kallum_motion_pilot,2023.2.2,Linux x86_64,62.5,5de18a6fc3a15e1e4432adb8,65d6bb0e977760de756971f7,65d6be71a834b53c8a8f287b,0.042,0.042,1,39,201,35,1,twofour,,,,,,,,,,,,,,,,,,,,,,,,,,,,,,,,,,,,,,,,,,,,,,,,,,,,,,,,,,,,,,,,,,,,,,,,,,,,,,,,,,,,,,,,,,,,,,,,,,,,,,,,,,,,,,,,,,,,,,,,,,,,,,,,,,,,,,,,,
,,5de18a6fc3a15e1e4432adb8,2024-02-22_03h24.47.902,kallum_motion_pilot,2023.2.2,Linux x86_64,62.5,5de18a6fc3a15e1e4432adb8,65d6bb0e977760de756971f7,65d6be71a834b53c8a8f287b,0.042,0.042,1,40,202,25,1,onethree,,,,,,,,,,,,,,,,,,,,,,,,,,,,,,,,,,,,,,,,,,,,,,,,,,,,,,,,,,,,,,,,,,,,,,,,,,,,,,,,,,,,,,,,,,,,,,,,,,,,,,,,,,,,,,,,,,,,,,,,,,,,,,,,,,,,,,,,,
,,5de18a6fc3a15e1e4432adb8,2024-02-22_03h24.47.902,kallum_motion_pilot,2023.2.2,Linux x86_64,62.5,5de18a6fc3a15e1e4432adb8,65d6bb0e977760de756971f7,65d6be71a834b53c8a8f287b,0.042,0.042,1,41,203,11,1,twofour,,,,,,,,,,,,,,,,,,,,,,,,,,,,,,,,,,,,,,,,,,,,,,,,,,,,,,,,,,,,,,,,,,,,,,,,,,,,,,,,,,,,,,,,,,,,,,,,,,,,,,,,,,,,,,,,,,,,,,,,,,,,,,,,,,,,,,,,,
,,5de18a6fc3a15e1e4432adb8,2024-02-22_03h24.47.902,kallum_motion_pilot,2023.2.2,Linux x86_64,62.5,5de18a6fc3a15e1e4432adb8,65d6bb0e977760de756971f7,65d6be71a834b53c8a8f287b,0.042,0.042,1,42,204,132,1,sevenfive,,,,,,,,,,,,,,,,,,,,,,,,,,,,,,,,,,,,,,,,,,,,,,,,,,,,,,,,,,,,,,,,,,,,,,,,,,,,,,,,,,,,,,,,,,,,,,,,,,,,,,,,,,,,,,,,,,,,,,,,,,,,,,,,,,,,,,,,,
,,5de18a6fc3a15e1e4432adb8,2024-02-22_03h24.47.902,kallum_motion_pilot,2023.2.2,Linux x86_64,62.5,5de18a6fc3a15e1e4432adb8,65d6bb0e977760de756971f7,65d6be71a834b53c8a8f287b,0.042,0.042,1,43,205,96,1,fivesix,,,,,,,,,,,,,,,,,,,,,,,,,,,,,,,,,,,,,,,,,,,,,,,,,,,,,,,,,,,,,,,,,,,,,,,,,,,,,,,,,,,,,,,,,,,,,,,,,,,,,,,,,,,,,,,,,,,,,,,,,,,,,,,,,,,,,,,,,
,,5de18a6fc3a15e1e4432adb8,2024-02-22_03h24.47.902,kallum_motion_pilot,2023.2.2,Linux x86_64,62.5,5de18a6fc3a15e1e4432adb8,65d6bb0e977760de756971f7,65d6be71a834b53c8a8f287b,0.042,0.042,1,44,206,92,1,sevenfive,,,,,,,,,,,,,,,,,,,,,,,,,,,,,,,,,,,,,,,,,,,,,,,,,,,,,,,,,,,,,,,,,,,,,,,,,,,,,,,,,,,,,,,,,,,,,,,,,,,,,,,,,,,,,,,,,,,,,,,,,,,,,,,,,,,,,,,,,
,,5de18a6fc3a15e1e4432adb8,2024-02-22_03h24.47.902,kallum_motion_pilot,2023.2.2,Linux x86_64,62.5,5de18a6fc3a15e1e4432adb8,65d6bb0e977760de756971f7,65d6be71a834b53c8a8f287b,0.042,0.042,1,45,207,43,1,twofour,,,,,,,,,,,,,,,,,,,,,,,,,,,,,,,,,,,,,,,,,,,,,,,,,,,,,,,,,,,,,,,,,,,,,,,,,,,,,,,,,,,,,,,,,,,,,,,,,,,,,,,,,,,,,,,,,,,,,,,,,,,,,,,,,,,,,,,,,
,,5de18a6fc3a15e1e4432adb8,2024-02-22_03h24.47.902,kallum_motion_pilot,2023.2.2,Linux x86_64,62.5,5de18a6fc3a15e1e4432adb8,65d6bb0e977760de756971f7,65d6be71a834b53c8a8f287b,0.042,0.042,1,46,208,58,1,twoone,,,,,,,,,,,,,,,,,,,,,,,,,,,,,,,,,,,,,,,,,,,,,,,,,,,,,,,,,,,,,,,,,,,,,,,,,,,,,,,,,,,,,,,,,,,,,,,,,,,,,,,,,,,,,,,,,,,,,,,,,,,,,,,,,,,,,,,,,
,,5de18a6fc3a15e1e4432adb8,2024-02-22_03h24.47.902,kallum_motion_pilot,2023.2.2,Linux x86_64,62.5,5de18a6fc3a15e1e4432adb8,65d6bb0e977760de756971f7,65d6be71a834b53c8a8f287b,0.042,0.042,1,47,209,161,1,fiveseven,,,,,,,,,,,,,,,,,,,,,,,,,,,,,,,,,,,,,,,,,,,,,,,,,,,,,,,,,,,,,,,,,,,,,,,,,,,,,,,,,,,,,,,,,,,,,,,,,,,,,,,,,,,,,,,,,,,,,,,,,,,,,,,,,,,,,,,,,
,,5de18a6fc3a15e1e4432adb8,2024-02-22_03h24.47.902,kallum_motion_pilot,2023.2.2,Linux x86_64,62.5,5de18a6fc3a15e1e4432adb8,65d6bb0e977760de756971f7,65d6be71a834b53c8a8f287b,0.043,0.043,1,48,210,10,1,twoone,,,,,,,,,,,,,,,,,,,,,,,,,,,,,,,,,,,,,,,,,,,,,,,,,,,,,,,,,,,,,,,,,,,,,,,,,,,,,,,,,,,,,,,,,,,,,,,,,,,,,,,,,,,,,,,,,,,,,,,,,,,,,,,,,,,,,,,,,
,,5de18a6fc3a15e1e4432adb8,2024-02-22_03h24.47.902,kallum_motion_pilot,2023.2.2,Linux x86_64,62.5,5de18a6fc3a15e1e4432adb8,65d6bb0e977760de756971f7,65d6be71a834b53c8a8f287b,0.043,0.043,1,49,211,85,1,seveneight,,,,,,,,,,,,,,,,,,,,,,,,,,,,,,,,,,,,,,,,,,,,,,,,,,,,,,,,,,,,,,,,,,,,,,,,,,,,,,,,,,,,,,,,,,,,,,,,,,,,,,,,,,,,,,,,,,,,,,,,,,,,,,,,,,,,,,,,,
,,5de18a6fc3a15e1e4432adb8,2024-02-22_03h24.47.902,kallum_motion_pilot,2023.2.2,Linux x86_64,62.5,5de18a6fc3a15e1e4432adb8,65d6bb0e977760de756971f7,65d6be71a834b53c8a8f287b,0.043,0.043,1,50,212,8,1,onetwo,,,,,,,,,,,,,,,,,,,,,,,,,,,,,,,,,,,,,,,,,,,,,,,,,,,,,,,,,,,,,,,,,,,,,,,,,,,,,,,,,,,,,,,,,,,,,,,,,,,,,,,,,,,,,,,,,,,,,,,,,,,,,,,,,,,,,,,,,
,,5de18a6fc3a15e1e4432adb8,2024-02-22_03h24.47.902,kallum_motion_pilot,2023.2.2,Linux x86_64,62.5,5de18a6fc3a15e1e4432adb8,65d6bb0e977760de756971f7,65d6be71a834b53c8a8f287b,0.043,0.043,1,51,213,6,1,fourtwo,,,,,,,,,,,,,,,,,,,,,,,,,,,,,,,,,,,,,,,,,,,,,,,,,,,,,,,,,,,,,,,,,,,,,,,,,,,,,,,,,,,,,,,,,,,,,,,,,,,,,,,,,,,,,,,,,,,,,,,,,,,,,,,,,,,,,,,,,
,,5de18a6fc3a15e1e4432adb8,2024-02-22_03h24.47.902,kallum_motion_pilot,2023.2.2,Linux x86_64,62.5,5de18a6fc3a15e1e4432adb8,65d6bb0e977760de756971f7,65d6be71a834b53c8a8f287b,0.043,0.043,1,52,214,120,1,fivesix,,,,,,,,,,,,,,,,,,,,,,,,,,,,,,,,,,,,,,,,,,,,,,,,,,,,,,,,,,,,,,,,,,,,,,,,,,,,,,,,,,,,,,,,,,,,,,,,,,,,,,,,,,,,,,,,,,,,,,,,,,,,,,,,,,,,,,,,,
,,5de18a6fc3a15e1e4432adb8,2024-02-22_03h24.47.902,kallum_motion_pilot,2023.2.2,Linux x86_64,62.5,5de18a6fc3a15e1e4432adb8,65d6bb0e977760de756971f7,65d6be71a834b53c8a8f287b,0.043,0.043,1,53,215,117,1,seveneight,,,,,,,,,,,,,,,,,,,,,,,,,,,,,,,,,,,,,,,,,,,,,,,,,,,,,,,,,,,,,,,,,,,,,,,,,,,,,,,,,,,,,,,,,,,,,,,,,,,,,,,,,,,,,,,,,,,,,,,,,,,,,,,,,,,,,,,,,
,,5de18a6fc3a15e1e4432adb8,2024-02-22_03h24.47.902,kallum_motion_pilot,2023.2.2,Linux x86_64,62.5,5de18a6fc3a15e1e4432adb8,65d6bb0e977760de756971f7,65d6be71a834b53c8a8f287b,0.043,0.043,1,54,216,26,1,twoone,,,,,,,,,,,,,,,,,,,,,,,,,,,,,,,,,,,,,,,,,,,,,,,,,,,,,,,,,,,,,,,,,,,,,,,,,,,,,,,,,,,,,,,,,,,,,,,,,,,,,,,,,,,,,,,,,,,,,,,,,,,,,,,,,,,,,,,,,
,,5de18a6fc3a15e1e4432adb8,2024-02-22_03h24.47.902,kallum_motion_pilot,2023.2.2,Linux x86_64,62.5,5de18a6fc3a15e1e4432adb8,65d6bb0e977760de756971f7,65d6be71a834b53c8a8f287b,0.043,0.043,1,55,217,104,1,fivesix,,,,,,,,,,,,,,,,,,,,,,,,,,,,,,,,,,,,,,,,,,,,,,,,,,,,,,,,,,,,,,,,,,,,,,,,,,,,,,,,,,,,,,,,,,,,,,,,,,,,,,,,,,,,,,,,,,,,,,,,,,,,,,,,,,,,,,,,,
,,5de18a6fc3a15e1e4432adb8,2024-02-22_03h24.47.902,kallum_motion_pilot,2023.2.2,Linux x86_64,62.5,5de18a6fc3a15e1e4432adb8,65d6bb0e977760de756971f7,65d6be71a834b53c8a8f287b,0.043,0.043,1,56,218,31,1,fourthree,,,,,,,,,,,,,,,,,,,,,,,,,,,,,,,,,,,,,,,,,,,,,,,,,,,,,,,,,,,,,,,,,,,,,,,,,,,,,,,,,,,,,,,,,,,,,,,,,,,,,,,,,,,,,,,,,,,,,,,,,,,,,,,,,,,,,,,,,
,,5de18a6fc3a15e1e4432adb8,2024-02-22_03h24.47.902,kallum_motion_pilot,2023.2.2,Linux x86_64,62.5,5de18a6fc3a15e1e4432adb8,65d6bb0e977760de756971f7,65d6be71a834b53c8a8f287b,0.043,0.044,1,57,219,55,1,fourthree,,,,,,,,,,,,,,,,,,,,,,,,,,,,,,,,,,,,,,,,,,,,,,,,,,,,,,,,,,,,,,,,,,,,,,,,,,,,,,,,,,,,,,,,,,,,,,,,,,,,,,,,,,,,,,,,,,,,,,,,,,,,,,,,,,,,,,,,,
,,5de18a6fc3a15e1e4432adb8,2024-02-22_03h24.47.902,kallum_motion_pilot,2023.2.2,Linux x86_64,62.5,5de18a6fc3a15e1e4432adb8,65d6bb0e977760de756971f7,65d6be71a834b53c8a8f287b,0.044,0.044,1,58,220,143,1,eightseven,,,,,,,,,,,,,,,,,,,,,,,,,,,,,,,,,,,,,,,,,,,,,,,,,,,,,,,,,,,,,,,,,,,,,,,,,,,,,,,,,,,,,,,,,,,,,,,,,,,,,,,,,,,,,,,,,,,,,,,,,,,,,,,,,,,,,,,,,
,,5de18a6fc3a15e1e4432adb8,2024-02-22_03h24.47.902,kallum_motion_pilot,2023.2.2,Linux x86_64,62.5,5de18a6fc3a15e1e4432adb8,65d6bb0e977760de756971f7,65d6be71a834b53c8a8f287b,0.044,0.044,1,59,221,94,1,eightsix,,,,,,,,,,,,,,,,,,,,,,,,,,,,,,,,,,,,,,,,,,,,,,,,,,,,,,,,,,,,,,,,,,,,,,,,,,,,,,,,,,,,,,,,,,,,,,,,,,,,,,,,,,,,,,,,,,,,,,,,,,,,,,,,,,,,,,,,,
,,5de18a6fc3a15e1e4432adb8,2024-02-22_03h24.47.902,kallum_motion_pilot,2023.2.2,Linux x86_64,62.5,5de18a6fc3a15e1e4432adb8,65d6bb0e977760de756971f7,65d6be71a834b53c8a8f287b,0.044,0.044,1,60,222,107,1,sixeight,,,,,,,,,,,,,,,,,,,,,,,,,,,,,,,,,,,,,,,,,,,,,,,,,,,,,,,,,,,,,,,,,,,,,,,,,,,,,,,,,,,,,,,,,,,,,,,,,,,,,,,,,,,,,,,,,,,,,,,,,,,,,,,,,,,,,,,,,
,,5de18a6fc3a15e1e4432adb8,2024-02-22_03h24.47.902,kallum_motion_pilot,2023.2.2,Linux x86_64,62.5,5de18a6fc3a15e1e4432adb8,65d6bb0e977760de756971f7,65d6be71a834b53c8a8f287b,0.044,0.044,1,61,223,160,1,fivesix,,,,,,,,,,,,,,,,,,,,,,,,,,,,,,,,,,,,,,,,,,,,,,,,,,,,,,,,,,,,,,,,,,,,,,,,,,,,,,,,,,,,,,,,,,,,,,,,,,,,,,,,,,,,,,,,,,,,,,,,,,,,,,,,,,,,,,,,,
,,5de18a6fc3a15e1e4432adb8,2024-02-22_03h24.47.902,kallum_motion_pilot,2023.2.2,Linux x86_64,62.5,5de18a6fc3a15e1e4432adb8,65d6bb0e977760de756971f7,65d6be71a834b53c8a8f287b,0.044,0.044,1,62,224,110,1,eightsix,,,,,,,,,,,,,,,,,,,,,,,,,,,,,,,,,,,,,,,,,,,,,,,,,,,,,,,,,,,,,,,,,,,,,,,,,,,,,,,,,,,,,,,,,,,,,,,,,,,,,,,,,,,,,,,,,,,,,,,,,,,,,,,,,,,,,,,,,
,,5de18a6fc3a15e1e4432adb8,2024-02-22_03h24.47.902,kallum_motion_pilot,2023.2.2,Linux x86_64,62.5,5de18a6fc3a15e1e4432adb8,65d6bb0e977760de756971f7,65d6be71a834b53c8a8f287b,0.044,0.044,1,63,225,5,1,threefour,,,,,,,,,,,,,,,,,,,,,,,,,,,,,,,,,,,,,,,,,,,,,,,,,,,,,,,,,,,,,,,,,,,,,,,,,,,,,,,,,,,,,,,,,,,,,,,,,,,,,,,,,,,,,,,,,,,,,,,,,,,,,,,,,,,,,,,,,
,,5de18a6fc3a15e1e4432adb8,2024-02-22_03h24.47.902,kallum_motion_pilot,2023.2.2,Linux x86_64,62.5,5de18a6fc3a15e1e4432adb8,65d6bb0e977760de756971f7,65d6be71a834b53c8a8f287b,0.044,0.044,1,64,226,91,1,sixeight,,,,,,,,,,,,,,,,,,,,,,,,,,,,,,,,,,,,,,,,,,,,,,,,,,,,,,,,,,,,,,,,,,,,,,,,,,,,,,,,,,,,,,,,,,,,,,,,,,,,,,,,,,,,,,,,,,,,,,,,,,,,,,,,,,,,,,,,,
,,5de18a6fc3a15e1e4432adb8,2024-02-22_03h24.47.902,kallum_motion_pilot,2023.2.2,Linux x86_64,62.5,5de18a6fc3a15e1e4432adb8,65d6bb0e977760de756971f7,65d6be71a834b53c8a8f287b,0.044,0.044,1,65,227,28,1,threeone,,,,,,,,,,,,,,,,,,,,,,,,,,,,,,,,,,,,,,,,,,,,,,,,,,,,,,,,,,,,,,,,,,,,,,,,,,,,,,,,,,,,,,,,,,,,,,,,,,,,,,,,,,,,,,,,,,,,,,,,,,,,,,,,,,,,,,,,,
,,5de18a6fc3a15e1e4432adb8,2024-02-22_03h24.47.902,kallum_motion_pilot,2023.2.2,Linux x86_64,62.5,5de18a6fc3a15e1e4432adb8,65d6bb0e977760de756971f7,65d6be71a834b53c8a8f287b,0.045,0.045,1,66,228,0,1,onetwo,,,,,,,,,,,,,,,,,,,,,,,,,,,,,,,,,,,,,,,,,,,,,,,,,,,,,,,,,,,,,,,,,,,,,,,,,,,,,,,,,,,,,,,,,,,,,,,,,,,,,,,,,,,,,,,,,,,,,,,,,,,,,,,,,,,,,,,,,
,,5de18a6fc3a15e1e4432adb8,2024-02-22_03h24.47.902,kallum_motion_pilot,2023.2.2,Linux x86_64,62.5,5de18a6fc3a15e1e4432adb8,65d6bb0e977760de756971f7,65d6be71a834b53c8a8f287b,0.045,0.045,1,67,229,89,1,fiveseven,,,,,,,,,,,,,,,,,,,,,,,,,,,,,,,,,,,,,,,,,,,,,,,,,,,,,,,,,,,,,,,,,,,,,,,,,,,,,,,,,,,,,,,,,,,,,,,,,,,,,,,,,,,,,,,,,,,,,,,,,,,,,,,,,,,,,,,,,
,,5de18a6fc3a15e1e4432adb8,2024-02-22_03h24.47.902,kallum_motion_pilot,2023.2.2,Linux x86_64,62.5,5de18a6fc3a15e1e4432adb8,65d6bb0e977760de756971f7,65d6be71a834b53c8a8f287b,0.045,0.045,1,68,230,67,1,twofour,,,,,,,,,,,,,,,,,,,,,,,,,,,,,,,,,,,,,,,,,,,,,,,,,,,,,,,,,,,,,,,,,,,,,,,,,,,,,,,,,,,,,,,,,,,,,,,,,,,,,,,,,,,,,,,,,,,,,,,,,,,,,,,,,,,,,,,,,
,,5de18a6fc3a15e1e4432adb8,2024-02-22_03h24.47.902,kallum_motion_pilot,2023.2.2,Linux x86_64,62.5,5de18a6fc3a15e1e4432adb8,65d6bb0e977760de756971f7,65d6be71a834b53c8a8f287b,0.045,0.045,1,69,231,73,1,onethree,,,,,,,,,,,,,,,,,,,,,,,,,,,,,,,,,,,,,,,,,,,,,,,,,,,,,,,,,,,,,,,,,,,,,,,,,,,,,,,,,,,,,,,,,,,,,,,,,,,,,,,,,,,,,,,,,,,,,,,,,,,,,,,,,,,,,,,,,
,,5de18a6fc3a15e1e4432adb8,2024-02-22_03h24.47.902,kallum_motion_pilot,2023.2.2,Linux x86_64,62.5,5de18a6fc3a15e1e4432adb8,65d6bb0e977760de756971f7,65d6be71a834b53c8a8f287b,0.045,0.045,1,70,232,56,1,onetwo,,,,,,,,,,,,,,,,,,,,,,,,,,,,,,,,,,,,,,,,,,,,,,,,,,,,,,,,,,,,,,,,,,,,,,,,,,,,,,,,,,,,,,,,,,,,,,,,,,,,,,,,,,,,,,,,,,,,,,,,,,,,,,,,,,,,,,,,,
,,5de18a6fc3a15e1e4432adb8,2024-02-22_03h24.47.902,kallum_motion_pilot,2023.2.2,Linux x86_64,62.5,5de18a6fc3a15e1e4432adb8,65d6bb0e977760de756971f7,65d6be71a834b53c8a8f287b,0.045,0.045,1,71,233,152,1,fivesix,,,,,,,,,,,,,,,,,,,,,,,,,,,,,,,,,,,,,,,,,,,,,,,,,,,,,,,,,,,,,,,,,,,,,,,,,,,,,,,,,,,,,,,,,,,,,,,,,,,,,,,,,,,,,,,,,,,,,,,,,,,,,,,,,,,,,,,,,
,,5de18a6fc3a15e1e4432adb8,2024-02-22_03h24.47.902,kallum_motion_pilot,2023.2.2,Linux x86_64,62.5,5de18a6fc3a15e1e4432adb8,65d6bb0e977760de756971f7,65d6be71a834b53c8a8f287b,0.045,0.045,1,72,234,111,1,eightseven,,,,,,,,,,,,,,,,,,,,,,,,,,,,,,,,,,,,,,,,,,,,,,,,,,,,,,,,,,,,,,,,,,,,,,,,,,,,,,,,,,,,,,,,,,,,,,,,,,,,,,,,,,,,,,,,,,,,,,,,,,,,,,,,,,,,,,,,,
,,5de18a6fc3a15e1e4432adb8,2024-02-22_03h24.47.902,kallum_motion_pilot,2023.2.2,Linux x86_64,62.5,5de18a6fc3a15e1e4432adb8,65d6bb0e977760de756971f7,65d6be71a834b53c8a8f287b,0.045,0.045,1,73,235,127,1,eightseven,,,,,,,,,,,,,,,,,,,,,,,,,,,,,,,,,,,,,,,,,,,,,,,,,,,,,,,,,,,,,,,,,,,,,,,,,,,,,,,,,,,,,,,,,,,,,,,,,,,,,,,,,,,,,,,,,,,,,,,,,,,,,,,,,,,,,,,,,
,,5de18a6fc3a15e1e4432adb8,2024-02-22_03h24.47.902,kallum_motion_pilot,2023.2.2,Linux x86_64,62.5,5de18a6fc3a15e1e4432adb8,65d6bb0e977760de756971f7,65d6be71a834b53c8a8f287b,0.045,0.045,1,74,236,158,1,eightsix,,,,,,,,,,,,,,,,,,,,,,,,,,,,,,,,,,,,,,,,,,,,,,,,,,,,,,,,,,,,,,,,,,,,,,,,,,,,,,,,,,,,,,,,,,,,,,,,,,,,,,,,,,,,,,,,,,,,,,,,,,,,,,,,,,,,,,,,,
,,5de18a6fc3a15e1e4432adb8,2024-02-22_03h24.47.902,kallum_motion_pilot,2023.2.2,Linux x86_64,62.5,5de18a6fc3a15e1e4432adb8,65d6bb0e977760de756971f7,65d6be71a834b53c8a8f287b,0.045,0.046,1,75,237,23,1,fourthree,,,,,,,,,,,,,,,,,,,,,,,,,,,,,,,,,,,,,,,,,,,,,,,,,,,,,,,,,,,,,,,,,,,,,,,,,,,,,,,,,,,,,,,,,,,,,,,,,,,,,,,,,,,,,,,,,,,,,,,,,,,,,,,,,,,,,,,,,
,,5de18a6fc3a15e1e4432adb8,2024-02-22_03h24.47.902,kallum_motion_pilot,2023.2.2,Linux x86_64,62.5,5de18a6fc3a15e1e4432adb8,65d6bb0e977760de756971f7,65d6be71a834b53c8a8f287b,0.046,0.046,1,76,238,77,1,threefour,,,,,,,,,,,,,,,,,,,,,,,,,,,,,,,,,,,,,,,,,,,,,,,,,,,,,,,,,,,,,,,,,,,,,,,,,,,,,,,,,,,,,,,,,,,,,,,,,,,,,,,,,,,,,,,,,,,,,,,,,,,,,,,,,,,,,,,,,
,,5de18a6fc3a15e1e4432adb8,2024-02-22_03h24.47.902,kallum_motion_pilot,2023.2.2,Linux x86_64,62.5,5de18a6fc3a15e1e4432adb8,65d6bb0e977760de756971f7,65d6be71a834b53c8a8f287b,0.046,0.046,1,77,239,63,1,fourthree,,,,,,,,,,,,,,,,,,,,,,,,,,,,,,,,,,,,,,,,,,,,,,,,,,,,,,,,,,,,,,,,,,,,,,,,,,,,,,,,,,,,,,,,,,,,,,,,,,,,,,,,,,,,,,,,,,,,,,,,,,,,,,,,,,,,,,,,,
,,5de18a6fc3a15e1e4432adb8,2024-02-22_03h24.47.902,kallum_motion_pilot,2023.2.2,Linux x86_64,62.5,5de18a6fc3a15e1e4432adb8,65d6bb0e977760de756971f7,65d6be71a834b53c8a8f287b,0.046,0.046,1,78,240,159,1,eightseven,,,,,,,,,,,,,,,,,,,,,,,,,,,,,,,,,,,,,,,,,,,,,,,,,,,,,,,,,,,,,,,,,,,,,,,,,,,,,,,,,,,,,,,,,,,,,,,,,,,,,,,,,,,,,,,,,,,,,,,,,,,,,,,,,,,,,,,,,
,,5de18a6fc3a15e1e4432adb8,2024-02-22_03h24.47.902,kallum_motion_pilot,2023.2.2,Linux x86_64,62.5,5de18a6fc3a15e1e4432adb8,65d6bb0e977760de756971f7,65d6be71a834b53c8a8f287b,0.046,0.046,1,79,241,32,1,onetwo,,,,,,,,,,,,,,,,,,,,,,,,,,,,,,,,,,,,,,,,,,,,,,,,,,,,,,,,,,,,,,,,,,,,,,,,,,,,,,,,,,,,,,,,,,,,,,,,,,,,,,,,,,,,,,,,,,,,,,,,,,,,,,,,,,,,,,,,,
,,5de18a6fc3a15e1e4432adb8,2024-02-22_03h24.47.902,kallum_motion_pilot,2023.2.2,Linux x86_64,62.5,5de18a6fc3a15e1e4432adb8,65d6bb0e977760de756971f7,65d6be71a834b53c8a8f287b,0.047,0.047,1,80,242,45,1,threefour,,,,,,,,,,,,,,,,,,,,,,,,,,,,,,,,,,,,,,,,,,,,,,,,,,,,,,,,,,,,,,,,,,,,,,,,,,,,,,,,,,,,,,,,,,,,,,,,,,,,,,,,,,,,,,,,,,,,,,,,,,,,,,,,,,,,,,,,,
,,5de18a6fc3a15e1e4432adb8,2024-02-22_03h24.47.902,kallum_motion_pilot,2023.2.2,Linux x86_64,62.5,5de18a6fc3a15e1e4432adb8,65d6bb0e977760de756971f7,65d6be71a834b53c8a8f287b,0.047,0.047,1,81,243,113,1,fiveseven,,,,,,,,,,,,,,,,,,,,,,,,,,,,,,,,,,,,,,,,,,,,,,,,,,,,,,,,,,,,,,,,,,,,,,,,,,,,,,,,,,,,,,,,,,,,,,,,,,,,,,,,,,,,,,,,,,,,,,,,,,,,,,,,,,,,,,,,,
,,5de18a6fc3a15e1e4432adb8,2024-02-22_03h24.47.902,kallum_motion_pilot,2023.2.2,Linux x86_64,62.5,5de18a6fc3a15e1e4432adb8,65d6bb0e977760de756971f7,65d6be71a834b53c8a8f287b,0.047,0.047,1,82,244,19,1,twofour,,,,,,,,,,,,,,,,,,,,,,,,,,,,,,,,,,,,,,,,,,,,,,,,,,,,,,,,,,,,,,,,,,,,,,,,,,,,,,,,,,,,,,,,,,,,,,,,,,,,,,,,,,,,,,,,,,,,,,,,,,,,,,,,,,,,,,,,,
,,5de18a6fc3a15e1e4432adb8,2024-02-22_03h24.47.902,kallum_motion_pilot,2023.2.2,Linux x86_64,62.5,5de18a6fc3a15e1e4432adb8,65d6bb0e977760de756971f7,65d6be71a834b53c8a8f287b,0.047,0.047,1,83,245,81,1,fiveseven,,,,,,,,,,,,,,,,,,,,,,,,,,,,,,,,,,,,,,,,,,,,,,,,,,,,,,,,,,,,,,,,,,,,,,,,,,,,,,,,,,,,,,,,,,,,,,,,,,,,,,,,,,,,,,,,,,,,,,,,,,,,,,,,,,,,,,,,,
,,5de18a6fc3a15e1e4432adb8,2024-02-22_03h24.47.902,kallum_motion_pilot,2023.2.2,Linux x86_64,62.5,5de18a6fc3a15e1e4432adb8,65d6bb0e977760de756971f7,65d6be71a834b53c8a8f287b,0.047,0.047,1,84,246,18,1,twoone,,,,,,,,,,,,,,,,,,,,,,,,,,,,,,,,,,,,,,,,,,,,,,,,,,,,,,,,,,,,,,,,,,,,,,,,,,,,,,,,,,,,,,,,,,,,,,,,,,,,,,,,,,,,,,,,,,,,,,,,,,,,,,,,,,,,,,,,,
,,5de18a6fc3a15e1e4432adb8,2024-02-22_03h24.47.902,kallum_motion_pilot,2023.2.2,Linux x86_64,62.5,5de18a6fc3a15e1e4432adb8,65d6bb0e977760de756971f7,65d6be71a834b53c8a8f287b,0.047,0.047,1,85,247,44,1,threeone,,,,,,,,,,,,,,,,,,,,,,,,,,,,,,,,,,,,,,,,,,,,,,,,,,,,,,,,,,,,,,,,,,,,,,,,,,,,,,,,,,,,,,,,,,,,,,,,,,,,,,,,,,,,,,,,,,,,,,,,,,,,,,,,,,,,,,,,,
,,5de18a6fc3a15e1e4432adb8,2024-02-22_03h24.47.902,kallum_motion_pilot,2023.2.2,Linux x86_64,62.5,5de18a6fc3a15e1e4432adb8,65d6bb0e977760de756971f7,65d6be71a834b53c8a8f287b,0.047,0.047,1,86,248,17,1,onethree,,,,,,,,,,,,,,,,,,,,,,,,,,,,,,,,,,,,,,,,,,,,,,,,,,,,,,,,,,,,,,,,,,,,,,,,,,,,,,,,,,,,,,,,,,,,,,,,,,,,,,,,,,,,,,,,,,,,,,,,,,,,,,,,,,,,,,,,,
,,5de18a6fc3a15e1e4432adb8,2024-02-22_03h24.47.902,kallum_motion_pilot,2023.2.2,Linux x86_64,62.5,5de18a6fc3a15e1e4432adb8,65d6bb0e977760de756971f7,65d6be71a834b53c8a8f287b,0.047,0.047,1,87,249,20,1,threeone,,,,,,,,,,,,,,,,,,,,,,,,,,,,,,,,,,,,,,,,,,,,,,,,,,,,,,,,,,,,,,,,,,,,,,,,,,,,,,,,,,,,,,,,,,,,,,,,,,,,,,,,,,,,,,,,,,,,,,,,,,,,,,,,,,,,,,,,,
,,5de18a6fc3a15e1e4432adb8,2024-02-22_03h24.47.902,kallum_motion_pilot,2023.2.2,Linux x86_64,62.5,5de18a6fc3a15e1e4432adb8,65d6bb0e977760de756971f7,65d6be71a834b53c8a8f287b,0.047,0.047,1,88,250,59,1,twofour,,,,,,,,,,,,,,,,,,,,,,,,,,,,,,,,,,,,,,,,,,,,,,,,,,,,,,,,,,,,,,,,,,,,,,,,,,,,,,,,,,,,,,,,,,,,,,,,,,,,,,,,,,,,,,,,,,,,,,,,,,,,,,,,,,,,,,,,,
,,5de18a6fc3a15e1e4432adb8,2024-02-22_03h24.47.902,kallum_motion_pilot,2023.2.2,Linux x86_64,62.5,5de18a6fc3a15e1e4432adb8,65d6bb0e977760de756971f7,65d6be71a834b53c8a8f287b,0.047,0.047,1,89,251,86,1,eightsix,,,,,,,,,,,,,,,,,,,,,,,,,,,,,,,,,,,,,,,,,,,,,,,,,,,,,,,,,,,,,,,,,,,,,,,,,,,,,,,,,,,,,,,,,,,,,,,,,,,,,,,,,,,,,,,,,,,,,,,,,,,,,,,,,,,,,,,,,
,,5de18a6fc3a15e1e4432adb8,2024-02-22_03h24.47.902,kallum_motion_pilot,2023.2.2,Linux x86_64,62.5,5de18a6fc3a15e1e4432adb8,65d6bb0e977760de756971f7,65d6be71a834b53c8a8f287b,0.048,0.048,1,90,252,7,1,fourthree,,,,,,,,,,,,,,,,,,,,,,,,,,,,,,,,,,,,,,,,,,,,,,,,,,,,,,,,,,,,,,,,,,,,,,,,,,,,,,,,,,,,,,,,,,,,,,,,,,,,,,,,,,,,,,,,,,,,,,,,,,,,,,,,,,,,,,,,,
,,5de18a6fc3a15e1e4432adb8,2024-02-22_03h24.47.902,kallum_motion_pilot,2023.2.2,Linux x86_64,62.5,5de18a6fc3a15e1e4432adb8,65d6bb0e977760de756971f7,65d6be71a834b53c8a8f287b,0.048,0.048,1,91,253,144,1,fivesix,,,,,,,,,,,,,,,,,,,,,,,,,,,,,,,,,,,,,,,,,,,,,,,,,,,,,,,,,,,,,,,,,,,,,,,,,,,,,,,,,,,,,,,,,,,,,,,,,,,,,,,,,,,,,,,,,,,,,,,,,,,,,,,,,,,,,,,,,
,,5de18a6fc3a15e1e4432adb8,2024-02-22_03h24.47.902,kallum_motion_pilot,2023.2.2,Linux x86_64,62.5,5de18a6fc3a15e1e4432adb8,65d6bb0e977760de756971f7,65d6be71a834b53c8a8f287b,0.048,0.048,1,92,254,84,1,sevenfive,,,,,,,,,,,,,,,,,,,,,,,,,,,,,,,,,,,,,,,,,,,,,,,,,,,,,,,,,,,,,,,,,,,,,,,,,,,,,,,,,,,,,,,,,,,,,,,,,,,,,,,,,,,,,,,,,,,,,,,,,,,,,,,,,,,,,,,,,
,,5de18a6fc3a15e1e4432adb8,2024-02-22_03h24.47.902,kallum_motion_pilot,2023.2.2,Linux x86_64,62.5,5de18a6fc3a15e1e4432adb8,65d6bb0e977760de756971f7,65d6be71a834b53c8a8f287b,0.048,0.048,1,93,255,149,1,seveneight,,,,,,,,,,,,,,,,,,,,,,,,,,,,,,,,,,,,,,,,,,,,,,,,,,,,,,,,,,,,,,,,,,,,,,,,,,,,,,,,,,,,,,,,,,,,,,,,,,,,,,,,,,,,,,,,,,,,,,,,,,,,,,,,,,,,,,,,,
,,5de18a6fc3a15e1e4432adb8,2024-02-22_03h24.47.902,kallum_motion_pilot,2023.2.2,Linux x86_64,62.5,5de18a6fc3a15e1e4432adb8,65d6bb0e977760de756971f7,65d6be71a834b53c8a8f287b,0.048,0.048,1,94,256,99,1,sixeight,,,,,,,,,,,,,,,,,,,,,,,,,,,,,,,,,,,,,,,,,,,,,,,,,,,,,,,,,,,,,,,,,,,,,,,,,,,,,,,,,,,,,,,,,,,,,,,,,,,,,,,,,,,,,,,,,,,,,,,,,,,,,,,,,,,,,,,,,
,,5de18a6fc3a15e1e4432adb8,2024-02-22_03h24.47.902,kallum_motion_pilot,2023.2.2,Linux x86_64,62.5,5de18a6fc3a15e1e4432adb8,65d6bb0e977760de756971f7,65d6be71a834b53c8a8f287b,0.048,0.048,1,95,257,30,1,fourtwo,,,,,,,,,,,,,,,,,,,,,,,,,,,,,,,,,,,,,,,,,,,,,,,,,,,,,,,,,,,,,,,,,,,,,,,,,,,,,,,,,,,,,,,,,,,,,,,,,,,,,,,,,,,,,,,,,,,,,,,,,,,,,,,,,,,,,,,,,
,,5de18a6fc3a15e1e4432adb8,2024-02-22_03h24.47.902,kallum_motion_pilot,2023.2.2,Linux x86_64,62.5,5de18a6fc3a15e1e4432adb8,65d6bb0e977760de756971f7,65d6be71a834b53c8a8f287b,0.048,0.048,1,96,258,78,1,fourtwo,,,,,,,,,,,,,,,,,,,,,,,,,,,,,,,,,,,,,,,,,,,,,,,,,,,,,,,,,,,,,,,,,,,,,,,,,,,,,,,,,,,,,,,,,,,,,,,,,,,,,,,,,,,,,,,,,,,,,,,,,,,,,,,,,,,,,,,,,
,,5de18a6fc3a15e1e4432adb8,2024-02-22_03h24.47.902,kallum_motion_pilot,2023.2.2,Linux x86_64,62.5,5de18a6fc3a15e1e4432adb8,65d6bb0e977760de756971f7,65d6be71a834b53c8a8f287b,0.048,0.048,1,97,259,112,1,fivesix,,,,,,,,,,,,,,,,,,,,,,,,,,,,,,,,,,,,,,,,,,,,,,,,,,,,,,,,,,,,,,,,,,,,,,,,,,,,,,,,,,,,,,,,,,,,,,,,,,,,,,,,,,,,,,,,,,,,,,,,,,,,,,,,,,,,,,,,,
,,5de18a6fc3a15e1e4432adb8,2024-02-22_03h24.47.902,kallum_motion_pilot,2023.2.2,Linux x86_64,62.5,5de18a6fc3a15e1e4432adb8,65d6bb0e977760de756971f7,65d6be71a834b53c8a8f287b,0.048,0.048,1,98,260,61,1,threefour,,,,,,,,,,,,,,,,,,,,,,,,,,,,,,,,,,,,,,,,,,,,,,,,,,,,,,,,,,,,,,,,,,,,,,,,,,,,,,,,,,,,,,,,,,,,,,,,,,,,,,,,,,,,,,,,,,,,,,,,,,,,,,,,,,,,,,,,,
,,5de18a6fc3a15e1e4432adb8,2024-02-22_03h24.47.902,kallum_motion_pilot,2023.2.2,Linux x86_64,62.5,5de18a6fc3a15e1e4432adb8,65d6bb0e977760de756971f7,65d6be71a834b53c8a8f287b,0.049,0.049,1,99,261,52,1,threeone,,,,,,,,,,,,,,,,,,,,,,,,,,,,,,,,,,,,,,,,,,,,,,,,,,,,,,,,,,,,,,,,,,,,,,,,,,,,,,,,,,,,,,,,,,,,,,,,,,,,,,,,,,,,,,,,,,,,,,,,,,,,,,,,,,,,,,,,,
,,5de18a6fc3a15e1e4432adb8,2024-02-22_03h24.47.902,kallum_motion_pilot,2023.2.2,Linux x86_64,62.5,5de18a6fc3a15e1e4432adb8,65d6bb0e977760de756971f7,65d6be71a834b53c8a8f287b,0.049,0.049,1,100,262,36,1,threeone,,,,,,,,,,,,,,,,,,,,,,,,,,,,,,,,,,,,,,,,,,,,,,,,,,,,,,,,,,,,,,,,,,,,,,,,,,,,,,,,,,,,,,,,,,,,,,,,,,,,,,,,,,,,,,,,,,,,,,,,,,,,,,,,,,,,,,,,,
,,5de18a6fc3a15e1e4432adb8,2024-02-22_03h24.47.902,kallum_motion_pilot,2023.2.2,Linux x86_64,62.5,5de18a6fc3a15e1e4432adb8,65d6bb0e977760de756971f7,65d6be71a834b53c8a8f287b,0.049,0.049,1,101,263,115,1,sixeight,,,,,,,,,,,,,,,,,,,,,,,,,,,,,,,,,,,,,,,,,,,,,,,,,,,,,,,,,,,,,,,,,,,,,,,,,,,,,,,,,,,,,,,,,,,,,,,,,,,,,,,,,,,,,,,,,,,,,,,,,,,,,,,,,,,,,,,,,
,,5de18a6fc3a15e1e4432adb8,2024-02-22_03h24.47.902,kallum_motion_pilot,2023.2.2,Linux x86_64,62.5,5de18a6fc3a15e1e4432adb8,65d6bb0e977760de756971f7,65d6be71a834b53c8a8f287b,0.049,0.049,1,102,264,42,1,twoone,,,,,,,,,,,,,,,,,,,,,,,,,,,,,,,,,,,,,,,,,,,,,,,,,,,,,,,,,,,,,,,,,,,,,,,,,,,,,,,,,,,,,,,,,,,,,,,,,,,,,,,,,,,,,,,,,,,,,,,,,,,,,,,,,,,,,,,,,
,,5de18a6fc3a15e1e4432adb8,2024-02-22_03h24.47.902,kallum_motion_pilot,2023.2.2,Linux x86_64,62.5,5de18a6fc3a15e1e4432adb8,65d6bb0e977760de756971f7,65d6be71a834b53c8a8f287b,0.049,0.049,1,103,265,53,1,threefour,,,,,,,,,,,,,,,,,,,,,,,,,,,,,,,,,,,,,,,,,,,,,,,,,,,,,,,,,,,,,,,,,,,,,,,,,,,,,,,,,,,,,,,,,,,,,,,,,,,,,,,,,,,,,,,,,,,,,,,,,,,,,,,,,,,,,,,,,
,,5de18a6fc3a15e1e4432adb8,2024-02-22_03h24.47.902,kallum_motion_pilot,2023.2.2,Linux x86_64,62.5,5de18a6fc3a15e1e4432adb8,65d6bb0e977760de756971f7,65d6be71a834b53c8a8f287b,0.049,0.049,1,104,266,116,1,sevenfive,,,,,,,,,,,,,,,,,,,,,,,,,,,,,,,,,,,,,,,,,,,,,,,,,,,,,,,,,,,,,,,,,,,,,,,,,,,,,,,,,,,,,,,,,,,,,,,,,,,,,,,,,,,,,,,,,,,,,,,,,,,,,,,,,,,,,,,,,
,,5de18a6fc3a15e1e4432adb8,2024-02-22_03h24.47.902,kallum_motion_pilot,2023.2.2,Linux x86_64,62.5,5de18a6fc3a15e1e4432adb8,65d6bb0e977760de756971f7,65d6be71a834b53c8a8f287b,0.049,0.049,1,105,267,118,1,eightsix,,,,,,,,,,,,,,,,,,,,,,,,,,,,,,,,,,,,,,,,,,,,,,,,,,,,,,,,,,,,,,,,,,,,,,,,,,,,,,,,,,,,,,,,,,,,,,,,,,,,,,,,,,,,,,,,,,,,,,,,,,,,,,,,,,,,,,,,,
,,5de18a6fc3a15e1e4432adb8,2024-02-22_03h24.47.902,kallum_motion_pilot,2023.2.2,Linux x86_64,62.5,5de18a6fc3a15e1e4432adb8,65d6bb0e977760de756971f7,65d6be71a834b53c8a8f287b,0.049,0.049,1,106,268,102,1,eightsix,,,,,,,,,,,,,,,,,,,,,,,,,,,,,,,,,,,,,,,,,,,,,,,,,,,,,,,,,,,,,,,,,,,,,,,,,,,,,,,,,,,,,,,,,,,,,,,,,,,,,,,,,,,,,,,,,,,,,,,,,,,,,,,,,,,,,,,,,
,,5de18a6fc3a15e1e4432adb8,2024-02-22_03h24.47.902,kallum_motion_pilot,2023.2.2,Linux x86_64,62.5,5de18a6fc3a15e1e4432adb8,65d6bb0e977760de756971f7,65d6be71a834b53c8a8f287b,0.049,0.049,1,107,269,146,1,sixfive,,,,,,,,,,,,,,,,,,,,,,,,,,,,,,,,,,,,,,,,,,,,,,,,,,,,,,,,,,,,,,,,,,,,,,,,,,,,,,,,,,,,,,,,,,,,,,,,,,,,,,,,,,,,,,,,,,,,,,,,,,,,,,,,,,,,,,,,,
,,5de18a6fc3a15e1e4432adb8,2024-02-22_03h24.47.902,kallum_motion_pilot,2023.2.2,Linux x86_64,62.5,5de18a6fc3a15e1e4432adb8,65d6bb0e977760de756971f7,65d6be71a834b53c8a8f287b,0.049,0.05,1,108,270,153,1,fiveseven,,,,,,,,,,,,,,,,,,,,,,,,,,,,,,,,,,,,,,,,,,,,,,,,,,,,,,,,,,,,,,,,,,,,,,,,,,,,,,,,,,,,,,,,,,,,,,,,,,,,,,,,,,,,,,,,,,,,,,,,,,,,,,,,,,,,,,,,,
,,5de18a6fc3a15e1e4432adb8,2024-02-22_03h24.47.902,kallum_motion_pilot,2023.2.2,Linux x86_64,62.5,5de18a6fc3a15e1e4432adb8,65d6bb0e977760de756971f7,65d6be71a834b53c8a8f287b,0.05,0.05,1,109,271,1,1,onethree,,,,,,,,,,,,,,,,,,,,,,,,,,,,,,,,,,,,,,,,,,,,,,,,,,,,,,,,,,,,,,,,,,,,,,,,,,,,,,,,,,,,,,,,,,,,,,,,,,,,,,,,,,,,,,,,,,,,,,,,,,,,,,,,,,,,,,,,,
,,5de18a6fc3a15e1e4432adb8,2024-02-22_03h24.47.902,kallum_motion_pilot,2023.2.2,Linux x86_64,62.5,5de18a6fc3a15e1e4432adb8,65d6bb0e977760de756971f7,65d6be71a834b53c8a8f287b,0.05,0.05,1,110,272,139,1,sixeight,,,,,,,,,,,,,,,,,,,,,,,,,,,,,,,,,,,,,,,,,,,,,,,,,,,,,,,,,,,,,,,,,,,,,,,,,,,,,,,,,,,,,,,,,,,,,,,,,,,,,,,,,,,,,,,,,,,,,,,,,,,,,,,,,,,,,,,,,
,,5de18a6fc3a15e1e4432adb8,2024-02-22_03h24.47.902,kallum_motion_pilot,2023.2.2,Linux x86_64,62.5,5de18a6fc3a15e1e4432adb8,65d6bb0e977760de756971f7,65d6be71a834b53c8a8f287b,0.05,0.05,1,111,273,40,1,onetwo,,,,,,,,,,,,,,,,,,,,,,,,,,,,,,,,,,,,,,,,,,,,,,,,,,,,,,,,,,,,,,,,,,,,,,,,,,,,,,,,,,,,,,,,,,,,,,,,,,,,,,,,,,,,,,,,,,,,,,,,,,,,,,,,,,,,,,,,,
,,5de18a6fc3a15e1e4432adb8,2024-02-22_03h24.47.902,kallum_motion_pilot,2023.2.2,Linux x86_64,62.5,5de18a6fc3a15e1e4432adb8,65d6bb0e977760de756971f7,65d6be71a834b53c8a8f287b,0.05,0.05,1,112,274,98,1,sixfive,,,,,,,,,,,,,,,,,,,,,,,,,,,,,,,,,,,,,,,,,,,,,,,,,,,,,,,,,,,,,,,,,,,,,,,,,,,,,,,,,,,,,,,,,,,,,,,,,,,,,,,,,,,,,,,,,,,,,,,,,,,,,,,,,,,,,,,,,
,,5de18a6fc3a15e1e4432adb8,2024-02-22_03h24.47.902,kallum_motion_pilot,2023.2.2,Linux x86_64,62.5,5de18a6fc3a15e1e4432adb8,65d6bb0e977760de756971f7,65d6be71a834b53c8a8f287b,0.05,0.05,1,113,275,54,1,fourtwo,,,,,,,,,,,,,,,,,,,,,,,,,,,,,,,,,,,,,,,,,,,,,,,,,,,,,,,,,,,,,,,,,,,,,,,,,,,,,,,,,,,,,,,,,,,,,,,,,,,,,,,,,,,,,,,,,,,,,,,,,,,,,,,,,,,,,,,,,
,,5de18a6fc3a15e1e4432adb8,2024-02-22_03h24.47.902,kallum_motion_pilot,2023.2.2,Linux x86_64,62.5,5de18a6fc3a15e1e4432adb8,65d6bb0e977760de756971f7,65d6be71a834b53c8a8f287b,0.05,0.05,1,114,276,69,1,threefour,,,,,,,,,,,,,,,,,,,,,,,,,,,,,,,,,,,,,,,,,,,,,,,,,,,,,,,,,,,,,,,,,,,,,,,,,,,,,,,,,,,,,,,,,,,,,,,,,,,,,,,,,,,,,,,,,,,,,,,,,,,,,,,,,,,,,,,,,
,,5de18a6fc3a15e1e4432adb8,2024-02-22_03h24.47.902,kallum_motion_pilot,2023.2.2,Linux x86_64,62.5,5de18a6fc3a15e1e4432adb8,65d6bb0e977760de756971f7,65d6be71a834b53c8a8f287b,0.05,0.05,1,115,277,155,1,sixeight,,,,,,,,,,,,,,,,,,,,,,,,,,,,,,,,,,,,,,,,,,,,,,,,,,,,,,,,,,,,,,,,,,,,,,,,,,,,,,,,,,,,,,,,,,,,,,,,,,,,,,,,,,,,,,,,,,,,,,,,,,,,,,,,,,,,,,,,,
,,5de18a6fc3a15e1e4432adb8,2024-02-22_03h24.47.902,kallum_motion_pilot,2023.2.2,Linux x86_64,62.5,5de18a6fc3a15e1e4432adb8,65d6bb0e977760de756971f7,65d6be71a834b53c8a8f287b,0.05,0.05,1,116,278,83,1,sixeight,,,,,,,,,,,,,,,,,,,,,,,,,,,,,,,,,,,,,,,,,,,,,,,,,,,,,,,,,,,,,,,,,,,,,,,,,,,,,,,,,,,,,,,,,,,,,,,,,,,,,,,,,,,,,,,,,,,,,,,,,,,,,,,,,,,,,,,,,
,,5de18a6fc3a15e1e4432adb8,2024-02-22_03h24.47.902,kallum_motion_pilot,2023.2.2,Linux x86_64,62.5,5de18a6fc3a15e1e4432adb8,65d6bb0e977760de756971f7,65d6be71a834b53c8a8f287b,0.05,0.05,1,117,279,136,1,fivesix,,,,,,,,,,,,,,,,,,,,,,,,,,,,,,,,,,,,,,,,,,,,,,,,,,,,,,,,,,,,,,,,,,,,,,,,,,,,,,,,,,,,,,,,,,,,,,,,,,,,,,,,,,,,,,,,,,,,,,,,,,,,,,,,,,,,,,,,,
