startup.started,startup.stopped,Prolific ID*,date,expName,psychopyVersion,OS,frameRate,participant,study_id,session,stimpositions.started,stimpositions.stopped,hardcoded_stimulus_positions.thisRepN,hardcoded_stimulus_positions.thisTrialN,hardcoded_stimulus_positions.thisN,hardcoded_stimulus_positions.thisIndex,hardcoded_stimulus_positions.ran,StimulusPos,stimorientation.started,stimorientation.stopped,prac_stimorientation_import_loop.thisRepN,prac_stimorientation_import_loop.thisTrialN,prac_stimorientation_import_loop.thisN,prac_stimorientation_import_loop.thisIndex,prac_stimorientation_import_loop.ran,Stimorientation,welcome_instr.started,welcome_instr.stopped,key_resp.keys,key_resp.rt,key_resp.duration,response_steppedout_1.started,response_steppedout_1.stopped,key_resp_20.keys,key_resp_20.rt,key_resp_20.duration,response_steppedout_2.started,response_steppedout_2.stopped,key_resp_19.keys,key_resp_19.rt,key_resp_19.duration,stim_response_instr.started,stim_response_instr.stopped,key_resp_15.keys,key_resp_15.rt,key_resp_15.duration,direction_instr_2.started,direction_instr_2.stopped,key_resp_9.keys,key_resp_9.rt,key_resp_9.duration,instr_prac.started,instr_prac.stopped,key_resp_10.keys,key_resp_10.rt,key_resp_10.duration,Stim1_display_prac.started,Stim1_display_prac.stopped,Ecc,Circle1_ori,Circle2_ori,response_prac.started,similarity,response_time,response_prac.stopped,mouse_5.x,mouse_5.y,mouse_5.leftButton,mouse_5.midButton,mouse_5.rightButton,mouse_5.clicked_name,responseprac_feedback.started,responseprac_feedback.stopped,summary2_prac.started,summary2_prac.stopped,mouse_6.x,mouse_6.y,mouse_6.leftButton,mouse_6.midButton,mouse_6.rightButton,mouse_6.clicked_name,duringprac.thisRepN,duringprac.thisTrialN,duringprac.thisN,duringprac.thisIndex,duringprac.ran,begin.started,begin.stopped,key_resp_22.keys,key_resp_22.rt,key_resp_22.duration,Stim1_display.started,Stim1_display.stopped,circle1_ori,circle2_ori,circle1_SF,circle2_SF,response.started,response.stopped,mouse.x,mouse.y,mouse.leftButton,mouse.midButton,mouse.rightButton,mouse.clicked_name,trialnumber,double_pass.thisRepN,double_pass.thisTrialN,double_pass.thisN,double_pass.thisIndex,double_pass.ran,double_pass.order,main_trial.thisRepN,main_trial.thisTrialN,main_trial.thisN,main_trial.thisIndex,main_trial.ran,main_trial.order,Trial_Counter,Catch,Frequencies,response_2.started,response_2.stopped,mouse_2.x,mouse_2.y,mouse_2.leftButton,mouse_2.midButton,mouse_2.rightButton,mouse_2.clicked_name,special_trial.started,special_trial.stopped,catch_1.started,catch_1.stopped,mouse_3.x,mouse_3.y,mouse_3.leftButton,mouse_3.midButton,mouse_3.rightButton,catchresponse,catchnumber,response_time_catch,response_sum.started,response_sum.stopped,mouse_11.x,mouse_11.y,mouse_11.leftButton,mouse_11.midButton,mouse_11.rightButton,flip_presentation_sequence_for_double_pass.started,flip_presentation_sequence_for_double_pass.stopped,goodbye.started,goodbye.stopped,key_resp_3.keys,key_resp_3.rt,key_resp_3.duration
0.001,0.001,5e02d4f7acd5cee30c9d49fa,2024-02-18_20h15.49.365,kallum_motion_pilot,2023.2.2,Win32,144.092219,5e02d4f7acd5cee30c9d49fa,65d2b6c8f2eece985d8e374c,65d2b9c0cf2bb0e35ac16fff,,,,,,,,,,,,,,,,,,,,,,,,,,,,,,,,,,,,,,,,,,,,,,,,,,,,,,,,,,,,,,,,,,,,,,,,,,,,,,,,,,,,,,,,,,,,,,,,,,,,,,,,,,,,,,,,,,,,,,,,,,,,,,,,,,,,,,,,,,,,,,,,,
,,5e02d4f7acd5cee30c9d49fa,2024-02-18_20h15.49.365,kallum_motion_pilot,2023.2.2,Win32,144.092219,5e02d4f7acd5cee30c9d49fa,65d2b6c8f2eece985d8e374c,65d2b9c0cf2bb0e35ac16fff,0.01,0.01,0,0,0,34,1,twoone,,,,,,,,,,,,,,,,,,,,,,,,,,,,,,,,,,,,,,,,,,,,,,,,,,,,,,,,,,,,,,,,,,,,,,,,,,,,,,,,,,,,,,,,,,,,,,,,,,,,,,,,,,,,,,,,,,,,,,,,,,,,,,,,,,,,,,,,,
,,5e02d4f7acd5cee30c9d49fa,2024-02-18_20h15.49.365,kallum_motion_pilot,2023.2.2,Win32,144.092219,5e02d4f7acd5cee30c9d49fa,65d2b6c8f2eece985d8e374c,65d2b9c0cf2bb0e35ac16fff,0.01,0.01,0,1,1,145,1,fiveseven,,,,,,,,,,,,,,,,,,,,,,,,,,,,,,,,,,,,,,,,,,,,,,,,,,,,,,,,,,,,,,,,,,,,,,,,,,,,,,,,,,,,,,,,,,,,,,,,,,,,,,,,,,,,,,,,,,,,,,,,,,,,,,,,,,,,,,,,,
,,5e02d4f7acd5cee30c9d49fa,2024-02-18_20h15.49.365,kallum_motion_pilot,2023.2.2,Win32,144.092219,5e02d4f7acd5cee30c9d49fa,65d2b6c8f2eece985d8e374c,65d2b9c0cf2bb0e35ac16fff,0.01,0.01,0,2,2,136,1,fivesix,,,,,,,,,,,,,,,,,,,,,,,,,,,,,,,,,,,,,,,,,,,,,,,,,,,,,,,,,,,,,,,,,,,,,,,,,,,,,,,,,,,,,,,,,,,,,,,,,,,,,,,,,,,,,,,,,,,,,,,,,,,,,,,,,,,,,,,,,
,,5e02d4f7acd5cee30c9d49fa,2024-02-18_20h15.49.365,kallum_motion_pilot,2023.2.2,Win32,144.092219,5e02d4f7acd5cee30c9d49fa,65d2b6c8f2eece985d8e374c,65d2b9c0cf2bb0e35ac16fff,0.01,0.01,0,3,3,114,1,sixfive,,,,,,,,,,,,,,,,,,,,,,,,,,,,,,,,,,,,,,,,,,,,,,,,,,,,,,,,,,,,,,,,,,,,,,,,,,,,,,,,,,,,,,,,,,,,,,,,,,,,,,,,,,,,,,,,,,,,,,,,,,,,,,,,,,,,,,,,,
,,5e02d4f7acd5cee30c9d49fa,2024-02-18_20h15.49.365,kallum_motion_pilot,2023.2.2,Win32,144.092219,5e02d4f7acd5cee30c9d49fa,65d2b6c8f2eece985d8e374c,65d2b9c0cf2bb0e35ac16fff,0.01,0.01,0,4,4,110,1,eightsix,,,,,,,,,,,,,,,,,,,,,,,,,,,,,,,,,,,,,,,,,,,,,,,,,,,,,,,,,,,,,,,,,,,,,,,,,,,,,,,,,,,,,,,,,,,,,,,,,,,,,,,,,,,,,,,,,,,,,,,,,,,,,,,,,,,,,,,,,
,,5e02d4f7acd5cee30c9d49fa,2024-02-18_20h15.49.365,kallum_motion_pilot,2023.2.2,Win32,144.092219,5e02d4f7acd5cee30c9d49fa,65d2b6c8f2eece985d8e374c,65d2b9c0cf2bb0e35ac16fff,0.01,0.01,0,5,5,74,1,twoone,,,,,,,,,,,,,,,,,,,,,,,,,,,,,,,,,,,,,,,,,,,,,,,,,,,,,,,,,,,,,,,,,,,,,,,,,,,,,,,,,,,,,,,,,,,,,,,,,,,,,,,,,,,,,,,,,,,,,,,,,,,,,,,,,,,,,,,,,
,,5e02d4f7acd5cee30c9d49fa,2024-02-18_20h15.49.365,kallum_motion_pilot,2023.2.2,Win32,144.092219,5e02d4f7acd5cee30c9d49fa,65d2b6c8f2eece985d8e374c,65d2b9c0cf2bb0e35ac16fff,0.011,0.011,0,6,6,85,1,seveneight,,,,,,,,,,,,,,,,,,,,,,,,,,,,,,,,,,,,,,,,,,,,,,,,,,,,,,,,,,,,,,,,,,,,,,,,,,,,,,,,,,,,,,,,,,,,,,,,,,,,,,,,,,,,,,,,,,,,,,,,,,,,,,,,,,,,,,,,,
,,5e02d4f7acd5cee30c9d49fa,2024-02-18_20h15.49.365,kallum_motion_pilot,2023.2.2,Win32,144.092219,5e02d4f7acd5cee30c9d49fa,65d2b6c8f2eece985d8e374c,65d2b9c0cf2bb0e35ac16fff,0.011,0.011,0,7,7,113,1,fiveseven,,,,,,,,,,,,,,,,,,,,,,,,,,,,,,,,,,,,,,,,,,,,,,,,,,,,,,,,,,,,,,,,,,,,,,,,,,,,,,,,,,,,,,,,,,,,,,,,,,,,,,,,,,,,,,,,,,,,,,,,,,,,,,,,,,,,,,,,,
,,5e02d4f7acd5cee30c9d49fa,2024-02-18_20h15.49.365,kallum_motion_pilot,2023.2.2,Win32,144.092219,5e02d4f7acd5cee30c9d49fa,65d2b6c8f2eece985d8e374c,65d2b9c0cf2bb0e35ac16fff,0.011,0.011,0,8,8,72,1,onetwo,,,,,,,,,,,,,,,,,,,,,,,,,,,,,,,,,,,,,,,,,,,,,,,,,,,,,,,,,,,,,,,,,,,,,,,,,,,,,,,,,,,,,,,,,,,,,,,,,,,,,,,,,,,,,,,,,,,,,,,,,,,,,,,,,,,,,,,,,
,,5e02d4f7acd5cee30c9d49fa,2024-02-18_20h15.49.365,kallum_motion_pilot,2023.2.2,Win32,144.092219,5e02d4f7acd5cee30c9d49fa,65d2b6c8f2eece985d8e374c,65d2b9c0cf2bb0e35ac16fff,0.011,0.011,0,9,9,128,1,fivesix,,,,,,,,,,,,,,,,,,,,,,,,,,,,,,,,,,,,,,,,,,,,,,,,,,,,,,,,,,,,,,,,,,,,,,,,,,,,,,,,,,,,,,,,,,,,,,,,,,,,,,,,,,,,,,,,,,,,,,,,,,,,,,,,,,,,,,,,,
,,5e02d4f7acd5cee30c9d49fa,2024-02-18_20h15.49.365,kallum_motion_pilot,2023.2.2,Win32,144.092219,5e02d4f7acd5cee30c9d49fa,65d2b6c8f2eece985d8e374c,65d2b9c0cf2bb0e35ac16fff,0.011,0.011,0,10,10,108,1,sevenfive,,,,,,,,,,,,,,,,,,,,,,,,,,,,,,,,,,,,,,,,,,,,,,,,,,,,,,,,,,,,,,,,,,,,,,,,,,,,,,,,,,,,,,,,,,,,,,,,,,,,,,,,,,,,,,,,,,,,,,,,,,,,,,,,,,,,,,,,,
,,5e02d4f7acd5cee30c9d49fa,2024-02-18_20h15.49.365,kallum_motion_pilot,2023.2.2,Win32,144.092219,5e02d4f7acd5cee30c9d49fa,65d2b6c8f2eece985d8e374c,65d2b9c0cf2bb0e35ac16fff,0.011,0.011,0,11,11,81,1,fiveseven,,,,,,,,,,,,,,,,,,,,,,,,,,,,,,,,,,,,,,,,,,,,,,,,,,,,,,,,,,,,,,,,,,,,,,,,,,,,,,,,,,,,,,,,,,,,,,,,,,,,,,,,,,,,,,,,,,,,,,,,,,,,,,,,,,,,,,,,,
,,5e02d4f7acd5cee30c9d49fa,2024-02-18_20h15.49.365,kallum_motion_pilot,2023.2.2,Win32,144.092219,5e02d4f7acd5cee30c9d49fa,65d2b6c8f2eece985d8e374c,65d2b9c0cf2bb0e35ac16fff,0.011,0.011,0,12,12,82,1,sixfive,,,,,,,,,,,,,,,,,,,,,,,,,,,,,,,,,,,,,,,,,,,,,,,,,,,,,,,,,,,,,,,,,,,,,,,,,,,,,,,,,,,,,,,,,,,,,,,,,,,,,,,,,,,,,,,,,,,,,,,,,,,,,,,,,,,,,,,,,
,,5e02d4f7acd5cee30c9d49fa,2024-02-18_20h15.49.365,kallum_motion_pilot,2023.2.2,Win32,144.092219,5e02d4f7acd5cee30c9d49fa,65d2b6c8f2eece985d8e374c,65d2b9c0cf2bb0e35ac16fff,0.011,0.011,0,13,13,105,1,fiveseven,,,,,,,,,,,,,,,,,,,,,,,,,,,,,,,,,,,,,,,,,,,,,,,,,,,,,,,,,,,,,,,,,,,,,,,,,,,,,,,,,,,,,,,,,,,,,,,,,,,,,,,,,,,,,,,,,,,,,,,,,,,,,,,,,,,,,,,,,
,,5e02d4f7acd5cee30c9d49fa,2024-02-18_20h15.49.365,kallum_motion_pilot,2023.2.2,Win32,144.092219,5e02d4f7acd5cee30c9d49fa,65d2b6c8f2eece985d8e374c,65d2b9c0cf2bb0e35ac16fff,0.011,0.011,0,14,14,37,1,threefour,,,,,,,,,,,,,,,,,,,,,,,,,,,,,,,,,,,,,,,,,,,,,,,,,,,,,,,,,,,,,,,,,,,,,,,,,,,,,,,,,,,,,,,,,,,,,,,,,,,,,,,,,,,,,,,,,,,,,,,,,,,,,,,,,,,,,,,,,
,,5e02d4f7acd5cee30c9d49fa,2024-02-18_20h15.49.365,kallum_motion_pilot,2023.2.2,Win32,144.092219,5e02d4f7acd5cee30c9d49fa,65d2b6c8f2eece985d8e374c,65d2b9c0cf2bb0e35ac16fff,0.011,0.011,0,15,15,144,1,fivesix,,,,,,,,,,,,,,,,,,,,,,,,,,,,,,,,,,,,,,,,,,,,,,,,,,,,,,,,,,,,,,,,,,,,,,,,,,,,,,,,,,,,,,,,,,,,,,,,,,,,,,,,,,,,,,,,,,,,,,,,,,,,,,,,,,,,,,,,,
,,5e02d4f7acd5cee30c9d49fa,2024-02-18_20h15.49.365,kallum_motion_pilot,2023.2.2,Win32,144.092219,5e02d4f7acd5cee30c9d49fa,65d2b6c8f2eece985d8e374c,65d2b9c0cf2bb0e35ac16fff,0.011,0.011,0,16,16,109,1,seveneight,,,,,,,,,,,,,,,,,,,,,,,,,,,,,,,,,,,,,,,,,,,,,,,,,,,,,,,,,,,,,,,,,,,,,,,,,,,,,,,,,,,,,,,,,,,,,,,,,,,,,,,,,,,,,,,,,,,,,,,,,,,,,,,,,,,,,,,,,
,,5e02d4f7acd5cee30c9d49fa,2024-02-18_20h15.49.365,kallum_motion_pilot,2023.2.2,Win32,144.092219,5e02d4f7acd5cee30c9d49fa,65d2b6c8f2eece985d8e374c,65d2b9c0cf2bb0e35ac16fff,0.011,0.011,0,17,17,15,1,fourthree,,,,,,,,,,,,,,,,,,,,,,,,,,,,,,,,,,,,,,,,,,,,,,,,,,,,,,,,,,,,,,,,,,,,,,,,,,,,,,,,,,,,,,,,,,,,,,,,,,,,,,,,,,,,,,,,,,,,,,,,,,,,,,,,,,,,,,,,,
,,5e02d4f7acd5cee30c9d49fa,2024-02-18_20h15.49.365,kallum_motion_pilot,2023.2.2,Win32,144.092219,5e02d4f7acd5cee30c9d49fa,65d2b6c8f2eece985d8e374c,65d2b9c0cf2bb0e35ac16fff,0.011,0.011,0,18,18,20,1,threeone,,,,,,,,,,,,,,,,,,,,,,,,,,,,,,,,,,,,,,,,,,,,,,,,,,,,,,,,,,,,,,,,,,,,,,,,,,,,,,,,,,,,,,,,,,,,,,,,,,,,,,,,,,,,,,,,,,,,,,,,,,,,,,,,,,,,,,,,,
,,5e02d4f7acd5cee30c9d49fa,2024-02-18_20h15.49.365,kallum_motion_pilot,2023.2.2,Win32,144.092219,5e02d4f7acd5cee30c9d49fa,65d2b6c8f2eece985d8e374c,65d2b9c0cf2bb0e35ac16fff,0.011,0.011,0,19,19,68,1,threeone,,,,,,,,,,,,,,,,,,,,,,,,,,,,,,,,,,,,,,,,,,,,,,,,,,,,,,,,,,,,,,,,,,,,,,,,,,,,,,,,,,,,,,,,,,,,,,,,,,,,,,,,,,,,,,,,,,,,,,,,,,,,,,,,,,,,,,,,,
,,5e02d4f7acd5cee30c9d49fa,2024-02-18_20h15.49.365,kallum_motion_pilot,2023.2.2,Win32,144.092219,5e02d4f7acd5cee30c9d49fa,65d2b6c8f2eece985d8e374c,65d2b9c0cf2bb0e35ac16fff,0.011,0.011,0,20,20,106,1,sixfive,,,,,,,,,,,,,,,,,,,,,,,,,,,,,,,,,,,,,,,,,,,,,,,,,,,,,,,,,,,,,,,,,,,,,,,,,,,,,,,,,,,,,,,,,,,,,,,,,,,,,,,,,,,,,,,,,,,,,,,,,,,,,,,,,,,,,,,,,
,,5e02d4f7acd5cee30c9d49fa,2024-02-18_20h15.49.365,kallum_motion_pilot,2023.2.2,Win32,144.092219,5e02d4f7acd5cee30c9d49fa,65d2b6c8f2eece985d8e374c,65d2b9c0cf2bb0e35ac16fff,0.011,0.011,0,21,21,142,1,eightsix,,,,,,,,,,,,,,,,,,,,,,,,,,,,,,,,,,,,,,,,,,,,,,,,,,,,,,,,,,,,,,,,,,,,,,,,,,,,,,,,,,,,,,,,,,,,,,,,,,,,,,,,,,,,,,,,,,,,,,,,,,,,,,,,,,,,,,,,,
,,5e02d4f7acd5cee30c9d49fa,2024-02-18_20h15.49.365,kallum_motion_pilot,2023.2.2,Win32,144.092219,5e02d4f7acd5cee30c9d49fa,65d2b6c8f2eece985d8e374c,65d2b9c0cf2bb0e35ac16fff,0.011,0.011,0,22,22,18,1,twoone,,,,,,,,,,,,,,,,,,,,,,,,,,,,,,,,,,,,,,,,,,,,,,,,,,,,,,,,,,,,,,,,,,,,,,,,,,,,,,,,,,,,,,,,,,,,,,,,,,,,,,,,,,,,,,,,,,,,,,,,,,,,,,,,,,,,,,,,,
,,5e02d4f7acd5cee30c9d49fa,2024-02-18_20h15.49.365,kallum_motion_pilot,2023.2.2,Win32,144.092219,5e02d4f7acd5cee30c9d49fa,65d2b6c8f2eece985d8e374c,65d2b9c0cf2bb0e35ac16fff,0.011,0.011,0,23,23,147,1,sixeight,,,,,,,,,,,,,,,,,,,,,,,,,,,,,,,,,,,,,,,,,,,,,,,,,,,,,,,,,,,,,,,,,,,,,,,,,,,,,,,,,,,,,,,,,,,,,,,,,,,,,,,,,,,,,,,,,,,,,,,,,,,,,,,,,,,,,,,,,
,,5e02d4f7acd5cee30c9d49fa,2024-02-18_20h15.49.365,kallum_motion_pilot,2023.2.2,Win32,144.092219,5e02d4f7acd5cee30c9d49fa,65d2b6c8f2eece985d8e374c,65d2b9c0cf2bb0e35ac16fff,0.011,0.011,0,24,24,116,1,sevenfive,,,,,,,,,,,,,,,,,,,,,,,,,,,,,,,,,,,,,,,,,,,,,,,,,,,,,,,,,,,,,,,,,,,,,,,,,,,,,,,,,,,,,,,,,,,,,,,,,,,,,,,,,,,,,,,,,,,,,,,,,,,,,,,,,,,,,,,,,
,,5e02d4f7acd5cee30c9d49fa,2024-02-18_20h15.49.365,kallum_motion_pilot,2023.2.2,Win32,144.092219,5e02d4f7acd5cee30c9d49fa,65d2b6c8f2eece985d8e374c,65d2b9c0cf2bb0e35ac16fff,0.011,0.011,0,25,25,40,1,onetwo,,,,,,,,,,,,,,,,,,,,,,,,,,,,,,,,,,,,,,,,,,,,,,,,,,,,,,,,,,,,,,,,,,,,,,,,,,,,,,,,,,,,,,,,,,,,,,,,,,,,,,,,,,,,,,,,,,,,,,,,,,,,,,,,,,,,,,,,,
,,5e02d4f7acd5cee30c9d49fa,2024-02-18_20h15.49.365,kallum_motion_pilot,2023.2.2,Win32,144.092219,5e02d4f7acd5cee30c9d49fa,65d2b6c8f2eece985d8e374c,65d2b9c0cf2bb0e35ac16fff,0.011,0.011,0,26,26,7,1,fourthree,,,,,,,,,,,,,,,,,,,,,,,,,,,,,,,,,,,,,,,,,,,,,,,,,,,,,,,,,,,,,,,,,,,,,,,,,,,,,,,,,,,,,,,,,,,,,,,,,,,,,,,,,,,,,,,,,,,,,,,,,,,,,,,,,,,,,,,,,
,,5e02d4f7acd5cee30c9d49fa,2024-02-18_20h15.49.365,kallum_motion_pilot,2023.2.2,Win32,144.092219,5e02d4f7acd5cee30c9d49fa,65d2b6c8f2eece985d8e374c,65d2b9c0cf2bb0e35ac16fff,0.011,0.011,0,27,27,2,1,twoone,,,,,,,,,,,,,,,,,,,,,,,,,,,,,,,,,,,,,,,,,,,,,,,,,,,,,,,,,,,,,,,,,,,,,,,,,,,,,,,,,,,,,,,,,,,,,,,,,,,,,,,,,,,,,,,,,,,,,,,,,,,,,,,,,,,,,,,,,
,,5e02d4f7acd5cee30c9d49fa,2024-02-18_20h15.49.365,kallum_motion_pilot,2023.2.2,Win32,144.092219,5e02d4f7acd5cee30c9d49fa,65d2b6c8f2eece985d8e374c,65d2b9c0cf2bb0e35ac16fff,0.011,0.011,0,28,28,31,1,fourthree,,,,,,,,,,,,,,,,,,,,,,,,,,,,,,,,,,,,,,,,,,,,,,,,,,,,,,,,,,,,,,,,,,,,,,,,,,,,,,,,,,,,,,,,,,,,,,,,,,,,,,,,,,,,,,,,,,,,,,,,,,,,,,,,,,,,,,,,,
,,5e02d4f7acd5cee30c9d49fa,2024-02-18_20h15.49.365,kallum_motion_pilot,2023.2.2,Win32,144.092219,5e02d4f7acd5cee30c9d49fa,65d2b6c8f2eece985d8e374c,65d2b9c0cf2bb0e35ac16fff,0.011,0.011,0,29,29,60,1,threeone,,,,,,,,,,,,,,,,,,,,,,,,,,,,,,,,,,,,,,,,,,,,,,,,,,,,,,,,,,,,,,,,,,,,,,,,,,,,,,,,,,,,,,,,,,,,,,,,,,,,,,,,,,,,,,,,,,,,,,,,,,,,,,,,,,,,,,,,,
,,5e02d4f7acd5cee30c9d49fa,2024-02-18_20h15.49.365,kallum_motion_pilot,2023.2.2,Win32,144.092219,5e02d4f7acd5cee30c9d49fa,65d2b6c8f2eece985d8e374c,65d2b9c0cf2bb0e35ac16fff,0.011,0.011,0,30,30,139,1,sixeight,,,,,,,,,,,,,,,,,,,,,,,,,,,,,,,,,,,,,,,,,,,,,,,,,,,,,,,,,,,,,,,,,,,,,,,,,,,,,,,,,,,,,,,,,,,,,,,,,,,,,,,,,,,,,,,,,,,,,,,,,,,,,,,,,,,,,,,,,
,,5e02d4f7acd5cee30c9d49fa,2024-02-18_20h15.49.365,kallum_motion_pilot,2023.2.2,Win32,144.092219,5e02d4f7acd5cee30c9d49fa,65d2b6c8f2eece985d8e374c,65d2b9c0cf2bb0e35ac16fff,0.011,0.012,0,31,31,140,1,sevenfive,,,,,,,,,,,,,,,,,,,,,,,,,,,,,,,,,,,,,,,,,,,,,,,,,,,,,,,,,,,,,,,,,,,,,,,,,,,,,,,,,,,,,,,,,,,,,,,,,,,,,,,,,,,,,,,,,,,,,,,,,,,,,,,,,,,,,,,,,
,,5e02d4f7acd5cee30c9d49fa,2024-02-18_20h15.49.365,kallum_motion_pilot,2023.2.2,Win32,144.092219,5e02d4f7acd5cee30c9d49fa,65d2b6c8f2eece985d8e374c,65d2b9c0cf2bb0e35ac16fff,0.012,0.012,0,32,32,22,1,fourtwo,,,,,,,,,,,,,,,,,,,,,,,,,,,,,,,,,,,,,,,,,,,,,,,,,,,,,,,,,,,,,,,,,,,,,,,,,,,,,,,,,,,,,,,,,,,,,,,,,,,,,,,,,,,,,,,,,,,,,,,,,,,,,,,,,,,,,,,,,
,,5e02d4f7acd5cee30c9d49fa,2024-02-18_20h15.49.365,kallum_motion_pilot,2023.2.2,Win32,144.092219,5e02d4f7acd5cee30c9d49fa,65d2b6c8f2eece985d8e374c,65d2b9c0cf2bb0e35ac16fff,0.012,0.012,0,33,33,64,1,onetwo,,,,,,,,,,,,,,,,,,,,,,,,,,,,,,,,,,,,,,,,,,,,,,,,,,,,,,,,,,,,,,,,,,,,,,,,,,,,,,,,,,,,,,,,,,,,,,,,,,,,,,,,,,,,,,,,,,,,,,,,,,,,,,,,,,,,,,,,,
,,5e02d4f7acd5cee30c9d49fa,2024-02-18_20h15.49.365,kallum_motion_pilot,2023.2.2,Win32,144.092219,5e02d4f7acd5cee30c9d49fa,65d2b6c8f2eece985d8e374c,65d2b9c0cf2bb0e35ac16fff,0.012,0.012,0,34,34,156,1,sevenfive,,,,,,,,,,,,,,,,,,,,,,,,,,,,,,,,,,,,,,,,,,,,,,,,,,,,,,,,,,,,,,,,,,,,,,,,,,,,,,,,,,,,,,,,,,,,,,,,,,,,,,,,,,,,,,,,,,,,,,,,,,,,,,,,,,,,,,,,,
,,5e02d4f7acd5cee30c9d49fa,2024-02-18_20h15.49.365,kallum_motion_pilot,2023.2.2,Win32,144.092219,5e02d4f7acd5cee30c9d49fa,65d2b6c8f2eece985d8e374c,65d2b9c0cf2bb0e35ac16fff,0.012,0.012,0,35,35,45,1,threefour,,,,,,,,,,,,,,,,,,,,,,,,,,,,,,,,,,,,,,,,,,,,,,,,,,,,,,,,,,,,,,,,,,,,,,,,,,,,,,,,,,,,,,,,,,,,,,,,,,,,,,,,,,,,,,,,,,,,,,,,,,,,,,,,,,,,,,,,,
,,5e02d4f7acd5cee30c9d49fa,2024-02-18_20h15.49.365,kallum_motion_pilot,2023.2.2,Win32,144.092219,5e02d4f7acd5cee30c9d49fa,65d2b6c8f2eece985d8e374c,65d2b9c0cf2bb0e35ac16fff,0.012,0.012,0,36,36,43,1,twofour,,,,,,,,,,,,,,,,,,,,,,,,,,,,,,,,,,,,,,,,,,,,,,,,,,,,,,,,,,,,,,,,,,,,,,,,,,,,,,,,,,,,,,,,,,,,,,,,,,,,,,,,,,,,,,,,,,,,,,,,,,,,,,,,,,,,,,,,,
,,5e02d4f7acd5cee30c9d49fa,2024-02-18_20h15.49.365,kallum_motion_pilot,2023.2.2,Win32,144.092219,5e02d4f7acd5cee30c9d49fa,65d2b6c8f2eece985d8e374c,65d2b9c0cf2bb0e35ac16fff,0.012,0.012,0,37,37,1,1,onethree,,,,,,,,,,,,,,,,,,,,,,,,,,,,,,,,,,,,,,,,,,,,,,,,,,,,,,,,,,,,,,,,,,,,,,,,,,,,,,,,,,,,,,,,,,,,,,,,,,,,,,,,,,,,,,,,,,,,,,,,,,,,,,,,,,,,,,,,,
,,5e02d4f7acd5cee30c9d49fa,2024-02-18_20h15.49.365,kallum_motion_pilot,2023.2.2,Win32,144.092219,5e02d4f7acd5cee30c9d49fa,65d2b6c8f2eece985d8e374c,65d2b9c0cf2bb0e35ac16fff,0.012,0.012,0,38,38,50,1,twoone,,,,,,,,,,,,,,,,,,,,,,,,,,,,,,,,,,,,,,,,,,,,,,,,,,,,,,,,,,,,,,,,,,,,,,,,,,,,,,,,,,,,,,,,,,,,,,,,,,,,,,,,,,,,,,,,,,,,,,,,,,,,,,,,,,,,,,,,,
,,5e02d4f7acd5cee30c9d49fa,2024-02-18_20h15.49.365,kallum_motion_pilot,2023.2.2,Win32,144.092219,5e02d4f7acd5cee30c9d49fa,65d2b6c8f2eece985d8e374c,65d2b9c0cf2bb0e35ac16fff,0.012,0.012,0,39,39,16,1,onetwo,,,,,,,,,,,,,,,,,,,,,,,,,,,,,,,,,,,,,,,,,,,,,,,,,,,,,,,,,,,,,,,,,,,,,,,,,,,,,,,,,,,,,,,,,,,,,,,,,,,,,,,,,,,,,,,,,,,,,,,,,,,,,,,,,,,,,,,,,
,,5e02d4f7acd5cee30c9d49fa,2024-02-18_20h15.49.365,kallum_motion_pilot,2023.2.2,Win32,144.092219,5e02d4f7acd5cee30c9d49fa,65d2b6c8f2eece985d8e374c,65d2b9c0cf2bb0e35ac16fff,0.012,0.012,0,40,40,30,1,fourtwo,,,,,,,,,,,,,,,,,,,,,,,,,,,,,,,,,,,,,,,,,,,,,,,,,,,,,,,,,,,,,,,,,,,,,,,,,,,,,,,,,,,,,,,,,,,,,,,,,,,,,,,,,,,,,,,,,,,,,,,,,,,,,,,,,,,,,,,,,
,,5e02d4f7acd5cee30c9d49fa,2024-02-18_20h15.49.365,kallum_motion_pilot,2023.2.2,Win32,144.092219,5e02d4f7acd5cee30c9d49fa,65d2b6c8f2eece985d8e374c,65d2b9c0cf2bb0e35ac16fff,0.012,0.012,0,41,41,62,1,fourtwo,,,,,,,,,,,,,,,,,,,,,,,,,,,,,,,,,,,,,,,,,,,,,,,,,,,,,,,,,,,,,,,,,,,,,,,,,,,,,,,,,,,,,,,,,,,,,,,,,,,,,,,,,,,,,,,,,,,,,,,,,,,,,,,,,,,,,,,,,
,,5e02d4f7acd5cee30c9d49fa,2024-02-18_20h15.49.365,kallum_motion_pilot,2023.2.2,Win32,144.092219,5e02d4f7acd5cee30c9d49fa,65d2b6c8f2eece985d8e374c,65d2b9c0cf2bb0e35ac16fff,0.012,0.012,0,42,42,13,1,threefour,,,,,,,,,,,,,,,,,,,,,,,,,,,,,,,,,,,,,,,,,,,,,,,,,,,,,,,,,,,,,,,,,,,,,,,,,,,,,,,,,,,,,,,,,,,,,,,,,,,,,,,,,,,,,,,,,,,,,,,,,,,,,,,,,,,,,,,,,
,,5e02d4f7acd5cee30c9d49fa,2024-02-18_20h15.49.365,kallum_motion_pilot,2023.2.2,Win32,144.092219,5e02d4f7acd5cee30c9d49fa,65d2b6c8f2eece985d8e374c,65d2b9c0cf2bb0e35ac16fff,0.012,0.012,0,43,43,117,1,seveneight,,,,,,,,,,,,,,,,,,,,,,,,,,,,,,,,,,,,,,,,,,,,,,,,,,,,,,,,,,,,,,,,,,,,,,,,,,,,,,,,,,,,,,,,,,,,,,,,,,,,,,,,,,,,,,,,,,,,,,,,,,,,,,,,,,,,,,,,,
,,5e02d4f7acd5cee30c9d49fa,2024-02-18_20h15.49.365,kallum_motion_pilot,2023.2.2,Win32,144.092219,5e02d4f7acd5cee30c9d49fa,65d2b6c8f2eece985d8e374c,65d2b9c0cf2bb0e35ac16fff,0.012,0.012,0,44,44,95,1,eightseven,,,,,,,,,,,,,,,,,,,,,,,,,,,,,,,,,,,,,,,,,,,,,,,,,,,,,,,,,,,,,,,,,,,,,,,,,,,,,,,,,,,,,,,,,,,,,,,,,,,,,,,,,,,,,,,,,,,,,,,,,,,,,,,,,,,,,,,,,
,,5e02d4f7acd5cee30c9d49fa,2024-02-18_20h15.49.365,kallum_motion_pilot,2023.2.2,Win32,144.092219,5e02d4f7acd5cee30c9d49fa,65d2b6c8f2eece985d8e374c,65d2b9c0cf2bb0e35ac16fff,0.012,0.012,0,45,45,152,1,fivesix,,,,,,,,,,,,,,,,,,,,,,,,,,,,,,,,,,,,,,,,,,,,,,,,,,,,,,,,,,,,,,,,,,,,,,,,,,,,,,,,,,,,,,,,,,,,,,,,,,,,,,,,,,,,,,,,,,,,,,,,,,,,,,,,,,,,,,,,,
,,5e02d4f7acd5cee30c9d49fa,2024-02-18_20h15.49.365,kallum_motion_pilot,2023.2.2,Win32,144.092219,5e02d4f7acd5cee30c9d49fa,65d2b6c8f2eece985d8e374c,65d2b9c0cf2bb0e35ac16fff,0.012,0.012,0,46,46,89,1,fiveseven,,,,,,,,,,,,,,,,,,,,,,,,,,,,,,,,,,,,,,,,,,,,,,,,,,,,,,,,,,,,,,,,,,,,,,,,,,,,,,,,,,,,,,,,,,,,,,,,,,,,,,,,,,,,,,,,,,,,,,,,,,,,,,,,,,,,,,,,,
,,5e02d4f7acd5cee30c9d49fa,2024-02-18_20h15.49.365,kallum_motion_pilot,2023.2.2,Win32,144.092219,5e02d4f7acd5cee30c9d49fa,65d2b6c8f2eece985d8e374c,65d2b9c0cf2bb0e35ac16fff,0.012,0.012,0,47,47,83,1,sixeight,,,,,,,,,,,,,,,,,,,,,,,,,,,,,,,,,,,,,,,,,,,,,,,,,,,,,,,,,,,,,,,,,,,,,,,,,,,,,,,,,,,,,,,,,,,,,,,,,,,,,,,,,,,,,,,,,,,,,,,,,,,,,,,,,,,,,,,,,
,,5e02d4f7acd5cee30c9d49fa,2024-02-18_20h15.49.365,kallum_motion_pilot,2023.2.2,Win32,144.092219,5e02d4f7acd5cee30c9d49fa,65d2b6c8f2eece985d8e374c,65d2b9c0cf2bb0e35ac16fff,0.012,0.012,0,48,48,103,1,eightseven,,,,,,,,,,,,,,,,,,,,,,,,,,,,,,,,,,,,,,,,,,,,,,,,,,,,,,,,,,,,,,,,,,,,,,,,,,,,,,,,,,,,,,,,,,,,,,,,,,,,,,,,,,,,,,,,,,,,,,,,,,,,,,,,,,,,,,,,,
,,5e02d4f7acd5cee30c9d49fa,2024-02-18_20h15.49.365,kallum_motion_pilot,2023.2.2,Win32,144.092219,5e02d4f7acd5cee30c9d49fa,65d2b6c8f2eece985d8e374c,65d2b9c0cf2bb0e35ac16fff,0.012,0.012,0,49,49,112,1,fivesix,,,,,,,,,,,,,,,,,,,,,,,,,,,,,,,,,,,,,,,,,,,,,,,,,,,,,,,,,,,,,,,,,,,,,,,,,,,,,,,,,,,,,,,,,,,,,,,,,,,,,,,,,,,,,,,,,,,,,,,,,,,,,,,,,,,,,,,,,
,,5e02d4f7acd5cee30c9d49fa,2024-02-18_20h15.49.365,kallum_motion_pilot,2023.2.2,Win32,144.092219,5e02d4f7acd5cee30c9d49fa,65d2b6c8f2eece985d8e374c,65d2b9c0cf2bb0e35ac16fff,0.012,0.012,0,50,50,32,1,onetwo,,,,,,,,,,,,,,,,,,,,,,,,,,,,,,,,,,,,,,,,,,,,,,,,,,,,,,,,,,,,,,,,,,,,,,,,,,,,,,,,,,,,,,,,,,,,,,,,,,,,,,,,,,,,,,,,,,,,,,,,,,,,,,,,,,,,,,,,,
,,5e02d4f7acd5cee30c9d49fa,2024-02-18_20h15.49.365,kallum_motion_pilot,2023.2.2,Win32,144.092219,5e02d4f7acd5cee30c9d49fa,65d2b6c8f2eece985d8e374c,65d2b9c0cf2bb0e35ac16fff,0.012,0.012,0,51,51,58,1,twoone,,,,,,,,,,,,,,,,,,,,,,,,,,,,,,,,,,,,,,,,,,,,,,,,,,,,,,,,,,,,,,,,,,,,,,,,,,,,,,,,,,,,,,,,,,,,,,,,,,,,,,,,,,,,,,,,,,,,,,,,,,,,,,,,,,,,,,,,,
,,5e02d4f7acd5cee30c9d49fa,2024-02-18_20h15.49.365,kallum_motion_pilot,2023.2.2,Win32,144.092219,5e02d4f7acd5cee30c9d49fa,65d2b6c8f2eece985d8e374c,65d2b9c0cf2bb0e35ac16fff,0.012,0.012,0,52,52,48,1,onetwo,,,,,,,,,,,,,,,,,,,,,,,,,,,,,,,,,,,,,,,,,,,,,,,,,,,,,,,,,,,,,,,,,,,,,,,,,,,,,,,,,,,,,,,,,,,,,,,,,,,,,,,,,,,,,,,,,,,,,,,,,,,,,,,,,,,,,,,,,
,,5e02d4f7acd5cee30c9d49fa,2024-02-18_20h15.49.365,kallum_motion_pilot,2023.2.2,Win32,144.092219,5e02d4f7acd5cee30c9d49fa,65d2b6c8f2eece985d8e374c,65d2b9c0cf2bb0e35ac16fff,0.012,0.012,0,53,53,93,1,seveneight,,,,,,,,,,,,,,,,,,,,,,,,,,,,,,,,,,,,,,,,,,,,,,,,,,,,,,,,,,,,,,,,,,,,,,,,,,,,,,,,,,,,,,,,,,,,,,,,,,,,,,,,,,,,,,,,,,,,,,,,,,,,,,,,,,,,,,,,,
,,5e02d4f7acd5cee30c9d49fa,2024-02-18_20h15.49.365,kallum_motion_pilot,2023.2.2,Win32,144.092219,5e02d4f7acd5cee30c9d49fa,65d2b6c8f2eece985d8e374c,65d2b9c0cf2bb0e35ac16fff,0.012,0.012,0,54,54,92,1,sevenfive,,,,,,,,,,,,,,,,,,,,,,,,,,,,,,,,,,,,,,,,,,,,,,,,,,,,,,,,,,,,,,,,,,,,,,,,,,,,,,,,,,,,,,,,,,,,,,,,,,,,,,,,,,,,,,,,,,,,,,,,,,,,,,,,,,,,,,,,,
,,5e02d4f7acd5cee30c9d49fa,2024-02-18_20h15.49.365,kallum_motion_pilot,2023.2.2,Win32,144.092219,5e02d4f7acd5cee30c9d49fa,65d2b6c8f2eece985d8e374c,65d2b9c0cf2bb0e35ac16fff,0.012,0.012,0,55,55,49,1,onethree,,,,,,,,,,,,,,,,,,,,,,,,,,,,,,,,,,,,,,,,,,,,,,,,,,,,,,,,,,,,,,,,,,,,,,,,,,,,,,,,,,,,,,,,,,,,,,,,,,,,,,,,,,,,,,,,,,,,,,,,,,,,,,,,,,,,,,,,,
,,5e02d4f7acd5cee30c9d49fa,2024-02-18_20h15.49.365,kallum_motion_pilot,2023.2.2,Win32,144.092219,5e02d4f7acd5cee30c9d49fa,65d2b6c8f2eece985d8e374c,65d2b9c0cf2bb0e35ac16fff,0.012,0.012,0,56,56,36,1,threeone,,,,,,,,,,,,,,,,,,,,,,,,,,,,,,,,,,,,,,,,,,,,,,,,,,,,,,,,,,,,,,,,,,,,,,,,,,,,,,,,,,,,,,,,,,,,,,,,,,,,,,,,,,,,,,,,,,,,,,,,,,,,,,,,,,,,,,,,,
,,5e02d4f7acd5cee30c9d49fa,2024-02-18_20h15.49.365,kallum_motion_pilot,2023.2.2,Win32,144.092219,5e02d4f7acd5cee30c9d49fa,65d2b6c8f2eece985d8e374c,65d2b9c0cf2bb0e35ac16fff,0.012,0.012,0,57,57,87,1,eightseven,,,,,,,,,,,,,,,,,,,,,,,,,,,,,,,,,,,,,,,,,,,,,,,,,,,,,,,,,,,,,,,,,,,,,,,,,,,,,,,,,,,,,,,,,,,,,,,,,,,,,,,,,,,,,,,,,,,,,,,,,,,,,,,,,,,,,,,,,
,,5e02d4f7acd5cee30c9d49fa,2024-02-18_20h15.49.365,kallum_motion_pilot,2023.2.2,Win32,144.092219,5e02d4f7acd5cee30c9d49fa,65d2b6c8f2eece985d8e374c,65d2b9c0cf2bb0e35ac16fff,0.012,0.012,0,58,58,5,1,threefour,,,,,,,,,,,,,,,,,,,,,,,,,,,,,,,,,,,,,,,,,,,,,,,,,,,,,,,,,,,,,,,,,,,,,,,,,,,,,,,,,,,,,,,,,,,,,,,,,,,,,,,,,,,,,,,,,,,,,,,,,,,,,,,,,,,,,,,,,
,,5e02d4f7acd5cee30c9d49fa,2024-02-18_20h15.49.365,kallum_motion_pilot,2023.2.2,Win32,144.092219,5e02d4f7acd5cee30c9d49fa,65d2b6c8f2eece985d8e374c,65d2b9c0cf2bb0e35ac16fff,0.012,0.012,0,59,59,61,1,threefour,,,,,,,,,,,,,,,,,,,,,,,,,,,,,,,,,,,,,,,,,,,,,,,,,,,,,,,,,,,,,,,,,,,,,,,,,,,,,,,,,,,,,,,,,,,,,,,,,,,,,,,,,,,,,,,,,,,,,,,,,,,,,,,,,,,,,,,,,
,,5e02d4f7acd5cee30c9d49fa,2024-02-18_20h15.49.365,kallum_motion_pilot,2023.2.2,Win32,144.092219,5e02d4f7acd5cee30c9d49fa,65d2b6c8f2eece985d8e374c,65d2b9c0cf2bb0e35ac16fff,0.012,0.012,0,60,60,141,1,seveneight,,,,,,,,,,,,,,,,,,,,,,,,,,,,,,,,,,,,,,,,,,,,,,,,,,,,,,,,,,,,,,,,,,,,,,,,,,,,,,,,,,,,,,,,,,,,,,,,,,,,,,,,,,,,,,,,,,,,,,,,,,,,,,,,,,,,,,,,,
,,5e02d4f7acd5cee30c9d49fa,2024-02-18_20h15.49.365,kallum_motion_pilot,2023.2.2,Win32,144.092219,5e02d4f7acd5cee30c9d49fa,65d2b6c8f2eece985d8e374c,65d2b9c0cf2bb0e35ac16fff,0.012,0.012,0,61,61,138,1,sixfive,,,,,,,,,,,,,,,,,,,,,,,,,,,,,,,,,,,,,,,,,,,,,,,,,,,,,,,,,,,,,,,,,,,,,,,,,,,,,,,,,,,,,,,,,,,,,,,,,,,,,,,,,,,,,,,,,,,,,,,,,,,,,,,,,,,,,,,,,
,,5e02d4f7acd5cee30c9d49fa,2024-02-18_20h15.49.365,kallum_motion_pilot,2023.2.2,Win32,144.092219,5e02d4f7acd5cee30c9d49fa,65d2b6c8f2eece985d8e374c,65d2b9c0cf2bb0e35ac16fff,0.012,0.012,0,62,62,63,1,fourthree,,,,,,,,,,,,,,,,,,,,,,,,,,,,,,,,,,,,,,,,,,,,,,,,,,,,,,,,,,,,,,,,,,,,,,,,,,,,,,,,,,,,,,,,,,,,,,,,,,,,,,,,,,,,,,,,,,,,,,,,,,,,,,,,,,,,,,,,,
,,5e02d4f7acd5cee30c9d49fa,2024-02-18_20h15.49.365,kallum_motion_pilot,2023.2.2,Win32,144.092219,5e02d4f7acd5cee30c9d49fa,65d2b6c8f2eece985d8e374c,65d2b9c0cf2bb0e35ac16fff,0.012,0.012,0,63,63,41,1,onethree,,,,,,,,,,,,,,,,,,,,,,,,,,,,,,,,,,,,,,,,,,,,,,,,,,,,,,,,,,,,,,,,,,,,,,,,,,,,,,,,,,,,,,,,,,,,,,,,,,,,,,,,,,,,,,,,,,,,,,,,,,,,,,,,,,,,,,,,,
,,5e02d4f7acd5cee30c9d49fa,2024-02-18_20h15.49.365,kallum_motion_pilot,2023.2.2,Win32,144.092219,5e02d4f7acd5cee30c9d49fa,65d2b6c8f2eece985d8e374c,65d2b9c0cf2bb0e35ac16fff,0.012,0.012,0,64,64,150,1,eightsix,,,,,,,,,,,,,,,,,,,,,,,,,,,,,,,,,,,,,,,,,,,,,,,,,,,,,,,,,,,,,,,,,,,,,,,,,,,,,,,,,,,,,,,,,,,,,,,,,,,,,,,,,,,,,,,,,,,,,,,,,,,,,,,,,,,,,,,,,
,,5e02d4f7acd5cee30c9d49fa,2024-02-18_20h15.49.365,kallum_motion_pilot,2023.2.2,Win32,144.092219,5e02d4f7acd5cee30c9d49fa,65d2b6c8f2eece985d8e374c,65d2b9c0cf2bb0e35ac16fff,0.012,0.012,0,65,65,79,1,eightseven,,,,,,,,,,,,,,,,,,,,,,,,,,,,,,,,,,,,,,,,,,,,,,,,,,,,,,,,,,,,,,,,,,,,,,,,,,,,,,,,,,,,,,,,,,,,,,,,,,,,,,,,,,,,,,,,,,,,,,,,,,,,,,,,,,,,,,,,,
,,5e02d4f7acd5cee30c9d49fa,2024-02-18_20h15.49.365,kallum_motion_pilot,2023.2.2,Win32,144.092219,5e02d4f7acd5cee30c9d49fa,65d2b6c8f2eece985d8e374c,65d2b9c0cf2bb0e35ac16fff,0.012,0.012,0,66,66,107,1,sixeight,,,,,,,,,,,,,,,,,,,,,,,,,,,,,,,,,,,,,,,,,,,,,,,,,,,,,,,,,,,,,,,,,,,,,,,,,,,,,,,,,,,,,,,,,,,,,,,,,,,,,,,,,,,,,,,,,,,,,,,,,,,,,,,,,,,,,,,,,
,,5e02d4f7acd5cee30c9d49fa,2024-02-18_20h15.49.365,kallum_motion_pilot,2023.2.2,Win32,144.092219,5e02d4f7acd5cee30c9d49fa,65d2b6c8f2eece985d8e374c,65d2b9c0cf2bb0e35ac16fff,0.012,0.012,0,67,67,66,1,twoone,,,,,,,,,,,,,,,,,,,,,,,,,,,,,,,,,,,,,,,,,,,,,,,,,,,,,,,,,,,,,,,,,,,,,,,,,,,,,,,,,,,,,,,,,,,,,,,,,,,,,,,,,,,,,,,,,,,,,,,,,,,,,,,,,,,,,,,,,
,,5e02d4f7acd5cee30c9d49fa,2024-02-18_20h15.49.365,kallum_motion_pilot,2023.2.2,Win32,144.092219,5e02d4f7acd5cee30c9d49fa,65d2b6c8f2eece985d8e374c,65d2b9c0cf2bb0e35ac16fff,0.013,0.013,0,68,68,3,1,twofour,,,,,,,,,,,,,,,,,,,,,,,,,,,,,,,,,,,,,,,,,,,,,,,,,,,,,,,,,,,,,,,,,,,,,,,,,,,,,,,,,,,,,,,,,,,,,,,,,,,,,,,,,,,,,,,,,,,,,,,,,,,,,,,,,,,,,,,,,
,,5e02d4f7acd5cee30c9d49fa,2024-02-18_20h15.49.365,kallum_motion_pilot,2023.2.2,Win32,144.092219,5e02d4f7acd5cee30c9d49fa,65d2b6c8f2eece985d8e374c,65d2b9c0cf2bb0e35ac16fff,0.013,0.013,0,69,69,80,1,fivesix,,,,,,,,,,,,,,,,,,,,,,,,,,,,,,,,,,,,,,,,,,,,,,,,,,,,,,,,,,,,,,,,,,,,,,,,,,,,,,,,,,,,,,,,,,,,,,,,,,,,,,,,,,,,,,,,,,,,,,,,,,,,,,,,,,,,,,,,,
,,5e02d4f7acd5cee30c9d49fa,2024-02-18_20h15.49.365,kallum_motion_pilot,2023.2.2,Win32,144.092219,5e02d4f7acd5cee30c9d49fa,65d2b6c8f2eece985d8e374c,65d2b9c0cf2bb0e35ac16fff,0.013,0.013,0,70,70,98,1,sixfive,,,,,,,,,,,,,,,,,,,,,,,,,,,,,,,,,,,,,,,,,,,,,,,,,,,,,,,,,,,,,,,,,,,,,,,,,,,,,,,,,,,,,,,,,,,,,,,,,,,,,,,,,,,,,,,,,,,,,,,,,,,,,,,,,,,,,,,,,
,,5e02d4f7acd5cee30c9d49fa,2024-02-18_20h15.49.365,kallum_motion_pilot,2023.2.2,Win32,144.092219,5e02d4f7acd5cee30c9d49fa,65d2b6c8f2eece985d8e374c,65d2b9c0cf2bb0e35ac16fff,0.013,0.013,0,71,71,14,1,fourtwo,,,,,,,,,,,,,,,,,,,,,,,,,,,,,,,,,,,,,,,,,,,,,,,,,,,,,,,,,,,,,,,,,,,,,,,,,,,,,,,,,,,,,,,,,,,,,,,,,,,,,,,,,,,,,,,,,,,,,,,,,,,,,,,,,,,,,,,,,
,,5e02d4f7acd5cee30c9d49fa,2024-02-18_20h15.49.365,kallum_motion_pilot,2023.2.2,Win32,144.092219,5e02d4f7acd5cee30c9d49fa,65d2b6c8f2eece985d8e374c,65d2b9c0cf2bb0e35ac16fff,0.013,0.013,0,72,72,160,1,fivesix,,,,,,,,,,,,,,,,,,,,,,,,,,,,,,,,,,,,,,,,,,,,,,,,,,,,,,,,,,,,,,,,,,,,,,,,,,,,,,,,,,,,,,,,,,,,,,,,,,,,,,,,,,,,,,,,,,,,,,,,,,,,,,,,,,,,,,,,,
,,5e02d4f7acd5cee30c9d49fa,2024-02-18_20h15.49.365,kallum_motion_pilot,2023.2.2,Win32,144.092219,5e02d4f7acd5cee30c9d49fa,65d2b6c8f2eece985d8e374c,65d2b9c0cf2bb0e35ac16fff,0.013,0.013,0,73,73,57,1,onethree,,,,,,,,,,,,,,,,,,,,,,,,,,,,,,,,,,,,,,,,,,,,,,,,,,,,,,,,,,,,,,,,,,,,,,,,,,,,,,,,,,,,,,,,,,,,,,,,,,,,,,,,,,,,,,,,,,,,,,,,,,,,,,,,,,,,,,,,,
,,5e02d4f7acd5cee30c9d49fa,2024-02-18_20h15.49.365,kallum_motion_pilot,2023.2.2,Win32,144.092219,5e02d4f7acd5cee30c9d49fa,65d2b6c8f2eece985d8e374c,65d2b9c0cf2bb0e35ac16fff,0.013,0.013,0,74,74,120,1,fivesix,,,,,,,,,,,,,,,,,,,,,,,,,,,,,,,,,,,,,,,,,,,,,,,,,,,,,,,,,,,,,,,,,,,,,,,,,,,,,,,,,,,,,,,,,,,,,,,,,,,,,,,,,,,,,,,,,,,,,,,,,,,,,,,,,,,,,,,,,
,,5e02d4f7acd5cee30c9d49fa,2024-02-18_20h15.49.365,kallum_motion_pilot,2023.2.2,Win32,144.092219,5e02d4f7acd5cee30c9d49fa,65d2b6c8f2eece985d8e374c,65d2b9c0cf2bb0e35ac16fff,0.013,0.013,0,75,75,132,1,sevenfive,,,,,,,,,,,,,,,,,,,,,,,,,,,,,,,,,,,,,,,,,,,,,,,,,,,,,,,,,,,,,,,,,,,,,,,,,,,,,,,,,,,,,,,,,,,,,,,,,,,,,,,,,,,,,,,,,,,,,,,,,,,,,,,,,,,,,,,,,
,,5e02d4f7acd5cee30c9d49fa,2024-02-18_20h15.49.365,kallum_motion_pilot,2023.2.2,Win32,144.092219,5e02d4f7acd5cee30c9d49fa,65d2b6c8f2eece985d8e374c,65d2b9c0cf2bb0e35ac16fff,0.013,0.013,0,76,76,104,1,fivesix,,,,,,,,,,,,,,,,,,,,,,,,,,,,,,,,,,,,,,,,,,,,,,,,,,,,,,,,,,,,,,,,,,,,,,,,,,,,,,,,,,,,,,,,,,,,,,,,,,,,,,,,,,,,,,,,,,,,,,,,,,,,,,,,,,,,,,,,,
,,5e02d4f7acd5cee30c9d49fa,2024-02-18_20h15.49.365,kallum_motion_pilot,2023.2.2,Win32,144.092219,5e02d4f7acd5cee30c9d49fa,65d2b6c8f2eece985d8e374c,65d2b9c0cf2bb0e35ac16fff,0.013,0.013,0,77,77,11,1,twofour,,,,,,,,,,,,,,,,,,,,,,,,,,,,,,,,,,,,,,,,,,,,,,,,,,,,,,,,,,,,,,,,,,,,,,,,,,,,,,,,,,,,,,,,,,,,,,,,,,,,,,,,,,,,,,,,,,,,,,,,,,,,,,,,,,,,,,,,,
,,5e02d4f7acd5cee30c9d49fa,2024-02-18_20h15.49.365,kallum_motion_pilot,2023.2.2,Win32,144.092219,5e02d4f7acd5cee30c9d49fa,65d2b6c8f2eece985d8e374c,65d2b9c0cf2bb0e35ac16fff,0.013,0.013,0,78,78,130,1,sixfive,,,,,,,,,,,,,,,,,,,,,,,,,,,,,,,,,,,,,,,,,,,,,,,,,,,,,,,,,,,,,,,,,,,,,,,,,,,,,,,,,,,,,,,,,,,,,,,,,,,,,,,,,,,,,,,,,,,,,,,,,,,,,,,,,,,,,,,,,
,,5e02d4f7acd5cee30c9d49fa,2024-02-18_20h15.49.365,kallum_motion_pilot,2023.2.2,Win32,144.092219,5e02d4f7acd5cee30c9d49fa,65d2b6c8f2eece985d8e374c,65d2b9c0cf2bb0e35ac16fff,0.013,0.013,0,79,79,51,1,twofour,,,,,,,,,,,,,,,,,,,,,,,,,,,,,,,,,,,,,,,,,,,,,,,,,,,,,,,,,,,,,,,,,,,,,,,,,,,,,,,,,,,,,,,,,,,,,,,,,,,,,,,,,,,,,,,,,,,,,,,,,,,,,,,,,,,,,,,,,
,,5e02d4f7acd5cee30c9d49fa,2024-02-18_20h15.49.365,kallum_motion_pilot,2023.2.2,Win32,144.092219,5e02d4f7acd5cee30c9d49fa,65d2b6c8f2eece985d8e374c,65d2b9c0cf2bb0e35ac16fff,0.013,0.013,0,80,80,21,1,threefour,,,,,,,,,,,,,,,,,,,,,,,,,,,,,,,,,,,,,,,,,,,,,,,,,,,,,,,,,,,,,,,,,,,,,,,,,,,,,,,,,,,,,,,,,,,,,,,,,,,,,,,,,,,,,,,,,,,,,,,,,,,,,,,,,,,,,,,,,
,,5e02d4f7acd5cee30c9d49fa,2024-02-18_20h15.49.365,kallum_motion_pilot,2023.2.2,Win32,144.092219,5e02d4f7acd5cee30c9d49fa,65d2b6c8f2eece985d8e374c,65d2b9c0cf2bb0e35ac16fff,0.013,0.013,0,81,81,53,1,threefour,,,,,,,,,,,,,,,,,,,,,,,,,,,,,,,,,,,,,,,,,,,,,,,,,,,,,,,,,,,,,,,,,,,,,,,,,,,,,,,,,,,,,,,,,,,,,,,,,,,,,,,,,,,,,,,,,,,,,,,,,,,,,,,,,,,,,,,,,
,,5e02d4f7acd5cee30c9d49fa,2024-02-18_20h15.49.365,kallum_motion_pilot,2023.2.2,Win32,144.092219,5e02d4f7acd5cee30c9d49fa,65d2b6c8f2eece985d8e374c,65d2b9c0cf2bb0e35ac16fff,0.013,0.013,0,82,82,78,1,fourtwo,,,,,,,,,,,,,,,,,,,,,,,,,,,,,,,,,,,,,,,,,,,,,,,,,,,,,,,,,,,,,,,,,,,,,,,,,,,,,,,,,,,,,,,,,,,,,,,,,,,,,,,,,,,,,,,,,,,,,,,,,,,,,,,,,,,,,,,,,
,,5e02d4f7acd5cee30c9d49fa,2024-02-18_20h15.49.365,kallum_motion_pilot,2023.2.2,Win32,144.092219,5e02d4f7acd5cee30c9d49fa,65d2b6c8f2eece985d8e374c,65d2b9c0cf2bb0e35ac16fff,0.013,0.013,0,83,83,35,1,twofour,,,,,,,,,,,,,,,,,,,,,,,,,,,,,,,,,,,,,,,,,,,,,,,,,,,,,,,,,,,,,,,,,,,,,,,,,,,,,,,,,,,,,,,,,,,,,,,,,,,,,,,,,,,,,,,,,,,,,,,,,,,,,,,,,,,,,,,,,
,,5e02d4f7acd5cee30c9d49fa,2024-02-18_20h15.49.365,kallum_motion_pilot,2023.2.2,Win32,144.092219,5e02d4f7acd5cee30c9d49fa,65d2b6c8f2eece985d8e374c,65d2b9c0cf2bb0e35ac16fff,0.013,0.013,0,84,84,100,1,sevenfive,,,,,,,,,,,,,,,,,,,,,,,,,,,,,,,,,,,,,,,,,,,,,,,,,,,,,,,,,,,,,,,,,,,,,,,,,,,,,,,,,,,,,,,,,,,,,,,,,,,,,,,,,,,,,,,,,,,,,,,,,,,,,,,,,,,,,,,,,
,,5e02d4f7acd5cee30c9d49fa,2024-02-18_20h15.49.365,kallum_motion_pilot,2023.2.2,Win32,144.092219,5e02d4f7acd5cee30c9d49fa,65d2b6c8f2eece985d8e374c,65d2b9c0cf2bb0e35ac16fff,0.013,0.013,0,85,85,122,1,sixfive,,,,,,,,,,,,,,,,,,,,,,,,,,,,,,,,,,,,,,,,,,,,,,,,,,,,,,,,,,,,,,,,,,,,,,,,,,,,,,,,,,,,,,,,,,,,,,,,,,,,,,,,,,,,,,,,,,,,,,,,,,,,,,,,,,,,,,,,,
,,5e02d4f7acd5cee30c9d49fa,2024-02-18_20h15.49.365,kallum_motion_pilot,2023.2.2,Win32,144.092219,5e02d4f7acd5cee30c9d49fa,65d2b6c8f2eece985d8e374c,65d2b9c0cf2bb0e35ac16fff,0.013,0.013,0,86,86,97,1,fiveseven,,,,,,,,,,,,,,,,,,,,,,,,,,,,,,,,,,,,,,,,,,,,,,,,,,,,,,,,,,,,,,,,,,,,,,,,,,,,,,,,,,,,,,,,,,,,,,,,,,,,,,,,,,,,,,,,,,,,,,,,,,,,,,,,,,,,,,,,,
,,5e02d4f7acd5cee30c9d49fa,2024-02-18_20h15.49.365,kallum_motion_pilot,2023.2.2,Win32,144.092219,5e02d4f7acd5cee30c9d49fa,65d2b6c8f2eece985d8e374c,65d2b9c0cf2bb0e35ac16fff,0.013,0.013,0,87,87,8,1,onetwo,,,,,,,,,,,,,,,,,,,,,,,,,,,,,,,,,,,,,,,,,,,,,,,,,,,,,,,,,,,,,,,,,,,,,,,,,,,,,,,,,,,,,,,,,,,,,,,,,,,,,,,,,,,,,,,,,,,,,,,,,,,,,,,,,,,,,,,,,
,,5e02d4f7acd5cee30c9d49fa,2024-02-18_20h15.49.365,kallum_motion_pilot,2023.2.2,Win32,144.092219,5e02d4f7acd5cee30c9d49fa,65d2b6c8f2eece985d8e374c,65d2b9c0cf2bb0e35ac16fff,0.013,0.013,0,88,88,125,1,seveneight,,,,,,,,,,,,,,,,,,,,,,,,,,,,,,,,,,,,,,,,,,,,,,,,,,,,,,,,,,,,,,,,,,,,,,,,,,,,,,,,,,,,,,,,,,,,,,,,,,,,,,,,,,,,,,,,,,,,,,,,,,,,,,,,,,,,,,,,,
,,5e02d4f7acd5cee30c9d49fa,2024-02-18_20h15.49.365,kallum_motion_pilot,2023.2.2,Win32,144.092219,5e02d4f7acd5cee30c9d49fa,65d2b6c8f2eece985d8e374c,65d2b9c0cf2bb0e35ac16fff,0.014,0.014,0,89,89,153,1,fiveseven,,,,,,,,,,,,,,,,,,,,,,,,,,,,,,,,,,,,,,,,,,,,,,,,,,,,,,,,,,,,,,,,,,,,,,,,,,,,,,,,,,,,,,,,,,,,,,,,,,,,,,,,,,,,,,,,,,,,,,,,,,,,,,,,,,,,,,,,,
,,5e02d4f7acd5cee30c9d49fa,2024-02-18_20h15.49.365,kallum_motion_pilot,2023.2.2,Win32,144.092219,5e02d4f7acd5cee30c9d49fa,65d2b6c8f2eece985d8e374c,65d2b9c0cf2bb0e35ac16fff,0.014,0.014,0,90,90,96,1,fivesix,,,,,,,,,,,,,,,,,,,,,,,,,,,,,,,,,,,,,,,,,,,,,,,,,,,,,,,,,,,,,,,,,,,,,,,,,,,,,,,,,,,,,,,,,,,,,,,,,,,,,,,,,,,,,,,,,,,,,,,,,,,,,,,,,,,,,,,,,
,,5e02d4f7acd5cee30c9d49fa,2024-02-18_20h15.49.365,kallum_motion_pilot,2023.2.2,Win32,144.092219,5e02d4f7acd5cee30c9d49fa,65d2b6c8f2eece985d8e374c,65d2b9c0cf2bb0e35ac16fff,0.014,0.014,0,91,91,52,1,threeone,,,,,,,,,,,,,,,,,,,,,,,,,,,,,,,,,,,,,,,,,,,,,,,,,,,,,,,,,,,,,,,,,,,,,,,,,,,,,,,,,,,,,,,,,,,,,,,,,,,,,,,,,,,,,,,,,,,,,,,,,,,,,,,,,,,,,,,,,
,,5e02d4f7acd5cee30c9d49fa,2024-02-18_20h15.49.365,kallum_motion_pilot,2023.2.2,Win32,144.092219,5e02d4f7acd5cee30c9d49fa,65d2b6c8f2eece985d8e374c,65d2b9c0cf2bb0e35ac16fff,0.014,0.014,0,92,92,65,1,onethree,,,,,,,,,,,,,,,,,,,,,,,,,,,,,,,,,,,,,,,,,,,,,,,,,,,,,,,,,,,,,,,,,,,,,,,,,,,,,,,,,,,,,,,,,,,,,,,,,,,,,,,,,,,,,,,,,,,,,,,,,,,,,,,,,,,,,,,,,
,,5e02d4f7acd5cee30c9d49fa,2024-02-18_20h15.49.365,kallum_motion_pilot,2023.2.2,Win32,144.092219,5e02d4f7acd5cee30c9d49fa,65d2b6c8f2eece985d8e374c,65d2b9c0cf2bb0e35ac16fff,0.014,0.014,0,93,93,9,1,onethree,,,,,,,,,,,,,,,,,,,,,,,,,,,,,,,,,,,,,,,,,,,,,,,,,,,,,,,,,,,,,,,,,,,,,,,,,,,,,,,,,,,,,,,,,,,,,,,,,,,,,,,,,,,,,,,,,,,,,,,,,,,,,,,,,,,,,,,,,
,,5e02d4f7acd5cee30c9d49fa,2024-02-18_20h15.49.365,kallum_motion_pilot,2023.2.2,Win32,144.092219,5e02d4f7acd5cee30c9d49fa,65d2b6c8f2eece985d8e374c,65d2b9c0cf2bb0e35ac16fff,0.014,0.014,0,94,94,90,1,sixfive,,,,,,,,,,,,,,,,,,,,,,,,,,,,,,,,,,,,,,,,,,,,,,,,,,,,,,,,,,,,,,,,,,,,,,,,,,,,,,,,,,,,,,,,,,,,,,,,,,,,,,,,,,,,,,,,,,,,,,,,,,,,,,,,,,,,,,,,,
,,5e02d4f7acd5cee30c9d49fa,2024-02-18_20h15.49.365,kallum_motion_pilot,2023.2.2,Win32,144.092219,5e02d4f7acd5cee30c9d49fa,65d2b6c8f2eece985d8e374c,65d2b9c0cf2bb0e35ac16fff,0.014,0.014,0,95,95,137,1,fiveseven,,,,,,,,,,,,,,,,,,,,,,,,,,,,,,,,,,,,,,,,,,,,,,,,,,,,,,,,,,,,,,,,,,,,,,,,,,,,,,,,,,,,,,,,,,,,,,,,,,,,,,,,,,,,,,,,,,,,,,,,,,,,,,,,,,,,,,,,,
,,5e02d4f7acd5cee30c9d49fa,2024-02-18_20h15.49.365,kallum_motion_pilot,2023.2.2,Win32,144.092219,5e02d4f7acd5cee30c9d49fa,65d2b6c8f2eece985d8e374c,65d2b9c0cf2bb0e35ac16fff,0.014,0.014,0,96,96,157,1,seveneight,,,,,,,,,,,,,,,,,,,,,,,,,,,,,,,,,,,,,,,,,,,,,,,,,,,,,,,,,,,,,,,,,,,,,,,,,,,,,,,,,,,,,,,,,,,,,,,,,,,,,,,,,,,,,,,,,,,,,,,,,,,,,,,,,,,,,,,,,
,,5e02d4f7acd5cee30c9d49fa,2024-02-18_20h15.49.365,kallum_motion_pilot,2023.2.2,Win32,144.092219,5e02d4f7acd5cee30c9d49fa,65d2b6c8f2eece985d8e374c,65d2b9c0cf2bb0e35ac16fff,0.014,0.014,0,97,97,154,1,sixfive,,,,,,,,,,,,,,,,,,,,,,,,,,,,,,,,,,,,,,,,,,,,,,,,,,,,,,,,,,,,,,,,,,,,,,,,,,,,,,,,,,,,,,,,,,,,,,,,,,,,,,,,,,,,,,,,,,,,,,,,,,,,,,,,,,,,,,,,,
,,5e02d4f7acd5cee30c9d49fa,2024-02-18_20h15.49.365,kallum_motion_pilot,2023.2.2,Win32,144.092219,5e02d4f7acd5cee30c9d49fa,65d2b6c8f2eece985d8e374c,65d2b9c0cf2bb0e35ac16fff,0.014,0.014,0,98,98,29,1,threefour,,,,,,,,,,,,,,,,,,,,,,,,,,,,,,,,,,,,,,,,,,,,,,,,,,,,,,,,,,,,,,,,,,,,,,,,,,,,,,,,,,,,,,,,,,,,,,,,,,,,,,,,,,,,,,,,,,,,,,,,,,,,,,,,,,,,,,,,,
,,5e02d4f7acd5cee30c9d49fa,2024-02-18_20h15.49.365,kallum_motion_pilot,2023.2.2,Win32,144.092219,5e02d4f7acd5cee30c9d49fa,65d2b6c8f2eece985d8e374c,65d2b9c0cf2bb0e35ac16fff,0.014,0.014,0,99,99,19,1,twofour,,,,,,,,,,,,,,,,,,,,,,,,,,,,,,,,,,,,,,,,,,,,,,,,,,,,,,,,,,,,,,,,,,,,,,,,,,,,,,,,,,,,,,,,,,,,,,,,,,,,,,,,,,,,,,,,,,,,,,,,,,,,,,,,,,,,,,,,,
,,5e02d4f7acd5cee30c9d49fa,2024-02-18_20h15.49.365,kallum_motion_pilot,2023.2.2,Win32,144.092219,5e02d4f7acd5cee30c9d49fa,65d2b6c8f2eece985d8e374c,65d2b9c0cf2bb0e35ac16fff,0.014,0.014,0,100,100,39,1,fourthree,,,,,,,,,,,,,,,,,,,,,,,,,,,,,,,,,,,,,,,,,,,,,,,,,,,,,,,,,,,,,,,,,,,,,,,,,,,,,,,,,,,,,,,,,,,,,,,,,,,,,,,,,,,,,,,,,,,,,,,,,,,,,,,,,,,,,,,,,
,,5e02d4f7acd5cee30c9d49fa,2024-02-18_20h15.49.365,kallum_motion_pilot,2023.2.2,Win32,144.092219,5e02d4f7acd5cee30c9d49fa,65d2b6c8f2eece985d8e374c,65d2b9c0cf2bb0e35ac16fff,0.014,0.014,0,101,101,55,1,fourthree,,,,,,,,,,,,,,,,,,,,,,,,,,,,,,,,,,,,,,,,,,,,,,,,,,,,,,,,,,,,,,,,,,,,,,,,,,,,,,,,,,,,,,,,,,,,,,,,,,,,,,,,,,,,,,,,,,,,,,,,,,,,,,,,,,,,,,,,,
,,5e02d4f7acd5cee30c9d49fa,2024-02-18_20h15.49.365,kallum_motion_pilot,2023.2.2,Win32,144.092219,5e02d4f7acd5cee30c9d49fa,65d2b6c8f2eece985d8e374c,65d2b9c0cf2bb0e35ac16fff,0.014,0.014,0,102,102,148,1,sevenfive,,,,,,,,,,,,,,,,,,,,,,,,,,,,,,,,,,,,,,,,,,,,,,,,,,,,,,,,,,,,,,,,,,,,,,,,,,,,,,,,,,,,,,,,,,,,,,,,,,,,,,,,,,,,,,,,,,,,,,,,,,,,,,,,,,,,,,,,,
,,5e02d4f7acd5cee30c9d49fa,2024-02-18_20h15.49.365,kallum_motion_pilot,2023.2.2,Win32,144.092219,5e02d4f7acd5cee30c9d49fa,65d2b6c8f2eece985d8e374c,65d2b9c0cf2bb0e35ac16fff,0.014,0.014,0,103,103,54,1,fourtwo,,,,,,,,,,,,,,,,,,,,,,,,,,,,,,,,,,,,,,,,,,,,,,,,,,,,,,,,,,,,,,,,,,,,,,,,,,,,,,,,,,,,,,,,,,,,,,,,,,,,,,,,,,,,,,,,,,,,,,,,,,,,,,,,,,,,,,,,,
,,5e02d4f7acd5cee30c9d49fa,2024-02-18_20h15.49.365,kallum_motion_pilot,2023.2.2,Win32,144.092219,5e02d4f7acd5cee30c9d49fa,65d2b6c8f2eece985d8e374c,65d2b9c0cf2bb0e35ac16fff,0.014,0.014,0,104,104,42,1,twoone,,,,,,,,,,,,,,,,,,,,,,,,,,,,,,,,,,,,,,,,,,,,,,,,,,,,,,,,,,,,,,,,,,,,,,,,,,,,,,,,,,,,,,,,,,,,,,,,,,,,,,,,,,,,,,,,,,,,,,,,,,,,,,,,,,,,,,,,,
,,5e02d4f7acd5cee30c9d49fa,2024-02-18_20h15.49.365,kallum_motion_pilot,2023.2.2,Win32,144.092219,5e02d4f7acd5cee30c9d49fa,65d2b6c8f2eece985d8e374c,65d2b9c0cf2bb0e35ac16fff,0.014,0.014,0,105,105,121,1,fiveseven,,,,,,,,,,,,,,,,,,,,,,,,,,,,,,,,,,,,,,,,,,,,,,,,,,,,,,,,,,,,,,,,,,,,,,,,,,,,,,,,,,,,,,,,,,,,,,,,,,,,,,,,,,,,,,,,,,,,,,,,,,,,,,,,,,,,,,,,,
,,5e02d4f7acd5cee30c9d49fa,2024-02-18_20h15.49.365,kallum_motion_pilot,2023.2.2,Win32,144.092219,5e02d4f7acd5cee30c9d49fa,65d2b6c8f2eece985d8e374c,65d2b9c0cf2bb0e35ac16fff,0.014,0.014,0,106,106,4,1,threeone,,,,,,,,,,,,,,,,,,,,,,,,,,,,,,,,,,,,,,,,,,,,,,,,,,,,,,,,,,,,,,,,,,,,,,,,,,,,,,,,,,,,,,,,,,,,,,,,,,,,,,,,,,,,,,,,,,,,,,,,,,,,,,,,,,,,,,,,,
,,5e02d4f7acd5cee30c9d49fa,2024-02-18_20h15.49.365,kallum_motion_pilot,2023.2.2,Win32,144.092219,5e02d4f7acd5cee30c9d49fa,65d2b6c8f2eece985d8e374c,65d2b9c0cf2bb0e35ac16fff,0.014,0.014,0,107,107,56,1,onetwo,,,,,,,,,,,,,,,,,,,,,,,,,,,,,,,,,,,,,,,,,,,,,,,,,,,,,,,,,,,,,,,,,,,,,,,,,,,,,,,,,,,,,,,,,,,,,,,,,,,,,,,,,,,,,,,,,,,,,,,,,,,,,,,,,,,,,,,,,
,,5e02d4f7acd5cee30c9d49fa,2024-02-18_20h15.49.365,kallum_motion_pilot,2023.2.2,Win32,144.092219,5e02d4f7acd5cee30c9d49fa,65d2b6c8f2eece985d8e374c,65d2b9c0cf2bb0e35ac16fff,0.014,0.014,0,108,108,6,1,fourtwo,,,,,,,,,,,,,,,,,,,,,,,,,,,,,,,,,,,,,,,,,,,,,,,,,,,,,,,,,,,,,,,,,,,,,,,,,,,,,,,,,,,,,,,,,,,,,,,,,,,,,,,,,,,,,,,,,,,,,,,,,,,,,,,,,,,,,,,,,
,,5e02d4f7acd5cee30c9d49fa,2024-02-18_20h15.49.365,kallum_motion_pilot,2023.2.2,Win32,144.092219,5e02d4f7acd5cee30c9d49fa,65d2b6c8f2eece985d8e374c,65d2b9c0cf2bb0e35ac16fff,0.014,0.014,0,109,109,38,1,fourtwo,,,,,,,,,,,,,,,,,,,,,,,,,,,,,,,,,,,,,,,,,,,,,,,,,,,,,,,,,,,,,,,,,,,,,,,,,,,,,,,,,,,,,,,,,,,,,,,,,,,,,,,,,,,,,,,,,,,,,,,,,,,,,,,,,,,,,,,,,
,,5e02d4f7acd5cee30c9d49fa,2024-02-18_20h15.49.365,kallum_motion_pilot,2023.2.2,Win32,144.092219,5e02d4f7acd5cee30c9d49fa,65d2b6c8f2eece985d8e374c,65d2b9c0cf2bb0e35ac16fff,0.014,0.014,0,110,110,76,1,threeone,,,,,,,,,,,,,,,,,,,,,,,,,,,,,,,,,,,,,,,,,,,,,,,,,,,,,,,,,,,,,,,,,,,,,,,,,,,,,,,,,,,,,,,,,,,,,,,,,,,,,,,,,,,,,,,,,,,,,,,,,,,,,,,,,,,,,,,,,
,,5e02d4f7acd5cee30c9d49fa,2024-02-18_20h15.49.365,kallum_motion_pilot,2023.2.2,Win32,144.092219,5e02d4f7acd5cee30c9d49fa,65d2b6c8f2eece985d8e374c,65d2b9c0cf2bb0e35ac16fff,0.014,0.014,0,111,111,75,1,twofour,,,,,,,,,,,,,,,,,,,,,,,,,,,,,,,,,,,,,,,,,,,,,,,,,,,,,,,,,,,,,,,,,,,,,,,,,,,,,,,,,,,,,,,,,,,,,,,,,,,,,,,,,,,,,,,,,,,,,,,,,,,,,,,,,,,,,,,,,
,,5e02d4f7acd5cee30c9d49fa,2024-02-18_20h15.49.365,kallum_motion_pilot,2023.2.2,Win32,144.092219,5e02d4f7acd5cee30c9d49fa,65d2b6c8f2eece985d8e374c,65d2b9c0cf2bb0e35ac16fff,0.014,0.014,0,112,112,143,1,eightseven,,,,,,,,,,,,,,,,,,,,,,,,,,,,,,,,,,,,,,,,,,,,,,,,,,,,,,,,,,,,,,,,,,,,,,,,,,,,,,,,,,,,,,,,,,,,,,,,,,,,,,,,,,,,,,,,,,,,,,,,,,,,,,,,,,,,,,,,,
,,5e02d4f7acd5cee30c9d49fa,2024-02-18_20h15.49.365,kallum_motion_pilot,2023.2.2,Win32,144.092219,5e02d4f7acd5cee30c9d49fa,65d2b6c8f2eece985d8e374c,65d2b9c0cf2bb0e35ac16fff,0.014,0.014,0,113,113,24,1,onetwo,,,,,,,,,,,,,,,,,,,,,,,,,,,,,,,,,,,,,,,,,,,,,,,,,,,,,,,,,,,,,,,,,,,,,,,,,,,,,,,,,,,,,,,,,,,,,,,,,,,,,,,,,,,,,,,,,,,,,,,,,,,,,,,,,,,,,,,,,
,,5e02d4f7acd5cee30c9d49fa,2024-02-18_20h15.49.365,kallum_motion_pilot,2023.2.2,Win32,144.092219,5e02d4f7acd5cee30c9d49fa,65d2b6c8f2eece985d8e374c,65d2b9c0cf2bb0e35ac16fff,0.014,0.014,0,114,114,46,1,fourtwo,,,,,,,,,,,,,,,,,,,,,,,,,,,,,,,,,,,,,,,,,,,,,,,,,,,,,,,,,,,,,,,,,,,,,,,,,,,,,,,,,,,,,,,,,,,,,,,,,,,,,,,,,,,,,,,,,,,,,,,,,,,,,,,,,,,,,,,,,
,,5e02d4f7acd5cee30c9d49fa,2024-02-18_20h15.49.365,kallum_motion_pilot,2023.2.2,Win32,144.092219,5e02d4f7acd5cee30c9d49fa,65d2b6c8f2eece985d8e374c,65d2b9c0cf2bb0e35ac16fff,0.014,0.014,0,115,115,127,1,eightseven,,,,,,,,,,,,,,,,,,,,,,,,,,,,,,,,,,,,,,,,,,,,,,,,,,,,,,,,,,,,,,,,,,,,,,,,,,,,,,,,,,,,,,,,,,,,,,,,,,,,,,,,,,,,,,,,,,,,,,,,,,,,,,,,,,,,,,,,,
,,5e02d4f7acd5cee30c9d49fa,2024-02-18_20h15.49.365,kallum_motion_pilot,2023.2.2,Win32,144.092219,5e02d4f7acd5cee30c9d49fa,65d2b6c8f2eece985d8e374c,65d2b9c0cf2bb0e35ac16fff,0.014,0.014,0,116,116,86,1,eightsix,,,,,,,,,,,,,,,,,,,,,,,,,,,,,,,,,,,,,,,,,,,,,,,,,,,,,,,,,,,,,,,,,,,,,,,,,,,,,,,,,,,,,,,,,,,,,,,,,,,,,,,,,,,,,,,,,,,,,,,,,,,,,,,,,,,,,,,,,
,,5e02d4f7acd5cee30c9d49fa,2024-02-18_20h15.49.365,kallum_motion_pilot,2023.2.2,Win32,144.092219,5e02d4f7acd5cee30c9d49fa,65d2b6c8f2eece985d8e374c,65d2b9c0cf2bb0e35ac16fff,0.014,0.014,0,117,117,10,1,twoone,,,,,,,,,,,,,,,,,,,,,,,,,,,,,,,,,,,,,,,,,,,,,,,,,,,,,,,,,,,,,,,,,,,,,,,,,,,,,,,,,,,,,,,,,,,,,,,,,,,,,,,,,,,,,,,,,,,,,,,,,,,,,,,,,,,,,,,,,
,,5e02d4f7acd5cee30c9d49fa,2024-02-18_20h15.49.365,kallum_motion_pilot,2023.2.2,Win32,144.092219,5e02d4f7acd5cee30c9d49fa,65d2b6c8f2eece985d8e374c,65d2b9c0cf2bb0e35ac16fff,0.014,0.014,0,118,118,123,1,sixeight,,,,,,,,,,,,,,,,,,,,,,,,,,,,,,,,,,,,,,,,,,,,,,,,,,,,,,,,,,,,,,,,,,,,,,,,,,,,,,,,,,,,,,,,,,,,,,,,,,,,,,,,,,,,,,,,,,,,,,,,,,,,,,,,,,,,,,,,,
,,5e02d4f7acd5cee30c9d49fa,2024-02-18_20h15.49.365,kallum_motion_pilot,2023.2.2,Win32,144.092219,5e02d4f7acd5cee30c9d49fa,65d2b6c8f2eece985d8e374c,65d2b9c0cf2bb0e35ac16fff,0.014,0.014,0,119,119,118,1,eightsix,,,,,,,,,,,,,,,,,,,,,,,,,,,,,,,,,,,,,,,,,,,,,,,,,,,,,,,,,,,,,,,,,,,,,,,,,,,,,,,,,,,,,,,,,,,,,,,,,,,,,,,,,,,,,,,,,,,,,,,,,,,,,,,,,,,,,,,,,
,,5e02d4f7acd5cee30c9d49fa,2024-02-18_20h15.49.365,kallum_motion_pilot,2023.2.2,Win32,144.092219,5e02d4f7acd5cee30c9d49fa,65d2b6c8f2eece985d8e374c,65d2b9c0cf2bb0e35ac16fff,0.014,0.014,0,120,120,115,1,sixeight,,,,,,,,,,,,,,,,,,,,,,,,,,,,,,,,,,,,,,,,,,,,,,,,,,,,,,,,,,,,,,,,,,,,,,,,,,,,,,,,,,,,,,,,,,,,,,,,,,,,,,,,,,,,,,,,,,,,,,,,,,,,,,,,,,,,,,,,,
,,5e02d4f7acd5cee30c9d49fa,2024-02-18_20h15.49.365,kallum_motion_pilot,2023.2.2,Win32,144.092219,5e02d4f7acd5cee30c9d49fa,65d2b6c8f2eece985d8e374c,65d2b9c0cf2bb0e35ac16fff,0.014,0.014,0,121,121,91,1,sixeight,,,,,,,,,,,,,,,,,,,,,,,,,,,,,,,,,,,,,,,,,,,,,,,,,,,,,,,,,,,,,,,,,,,,,,,,,,,,,,,,,,,,,,,,,,,,,,,,,,,,,,,,,,,,,,,,,,,,,,,,,,,,,,,,,,,,,,,,,
,,5e02d4f7acd5cee30c9d49fa,2024-02-18_20h15.49.365,kallum_motion_pilot,2023.2.2,Win32,144.092219,5e02d4f7acd5cee30c9d49fa,65d2b6c8f2eece985d8e374c,65d2b9c0cf2bb0e35ac16fff,0.014,0.014,0,122,122,71,1,fourthree,,,,,,,,,,,,,,,,,,,,,,,,,,,,,,,,,,,,,,,,,,,,,,,,,,,,,,,,,,,,,,,,,,,,,,,,,,,,,,,,,,,,,,,,,,,,,,,,,,,,,,,,,,,,,,,,,,,,,,,,,,,,,,,,,,,,,,,,,
,,5e02d4f7acd5cee30c9d49fa,2024-02-18_20h15.49.365,kallum_motion_pilot,2023.2.2,Win32,144.092219,5e02d4f7acd5cee30c9d49fa,65d2b6c8f2eece985d8e374c,65d2b9c0cf2bb0e35ac16fff,0.014,0.014,0,123,123,124,1,sevenfive,,,,,,,,,,,,,,,,,,,,,,,,,,,,,,,,,,,,,,,,,,,,,,,,,,,,,,,,,,,,,,,,,,,,,,,,,,,,,,,,,,,,,,,,,,,,,,,,,,,,,,,,,,,,,,,,,,,,,,,,,,,,,,,,,,,,,,,,,
,,5e02d4f7acd5cee30c9d49fa,2024-02-18_20h15.49.365,kallum_motion_pilot,2023.2.2,Win32,144.092219,5e02d4f7acd5cee30c9d49fa,65d2b6c8f2eece985d8e374c,65d2b9c0cf2bb0e35ac16fff,0.014,0.014,0,124,124,119,1,eightseven,,,,,,,,,,,,,,,,,,,,,,,,,,,,,,,,,,,,,,,,,,,,,,,,,,,,,,,,,,,,,,,,,,,,,,,,,,,,,,,,,,,,,,,,,,,,,,,,,,,,,,,,,,,,,,,,,,,,,,,,,,,,,,,,,,,,,,,,,
,,5e02d4f7acd5cee30c9d49fa,2024-02-18_20h15.49.365,kallum_motion_pilot,2023.2.2,Win32,144.092219,5e02d4f7acd5cee30c9d49fa,65d2b6c8f2eece985d8e374c,65d2b9c0cf2bb0e35ac16fff,0.015,0.015,0,125,125,44,1,threeone,,,,,,,,,,,,,,,,,,,,,,,,,,,,,,,,,,,,,,,,,,,,,,,,,,,,,,,,,,,,,,,,,,,,,,,,,,,,,,,,,,,,,,,,,,,,,,,,,,,,,,,,,,,,,,,,,,,,,,,,,,,,,,,,,,,,,,,,,
,,5e02d4f7acd5cee30c9d49fa,2024-02-18_20h15.49.365,kallum_motion_pilot,2023.2.2,Win32,144.092219,5e02d4f7acd5cee30c9d49fa,65d2b6c8f2eece985d8e374c,65d2b9c0cf2bb0e35ac16fff,0.015,0.015,0,126,126,99,1,sixeight,,,,,,,,,,,,,,,,,,,,,,,,,,,,,,,,,,,,,,,,,,,,,,,,,,,,,,,,,,,,,,,,,,,,,,,,,,,,,,,,,,,,,,,,,,,,,,,,,,,,,,,,,,,,,,,,,,,,,,,,,,,,,,,,,,,,,,,,,
,,5e02d4f7acd5cee30c9d49fa,2024-02-18_20h15.49.365,kallum_motion_pilot,2023.2.2,Win32,144.092219,5e02d4f7acd5cee30c9d49fa,65d2b6c8f2eece985d8e374c,65d2b9c0cf2bb0e35ac16fff,0.015,0.015,0,127,127,158,1,eightsix,,,,,,,,,,,,,,,,,,,,,,,,,,,,,,,,,,,,,,,,,,,,,,,,,,,,,,,,,,,,,,,,,,,,,,,,,,,,,,,,,,,,,,,,,,,,,,,,,,,,,,,,,,,,,,,,,,,,,,,,,,,,,,,,,,,,,,,,,
,,5e02d4f7acd5cee30c9d49fa,2024-02-18_20h15.49.365,kallum_motion_pilot,2023.2.2,Win32,144.092219,5e02d4f7acd5cee30c9d49fa,65d2b6c8f2eece985d8e374c,65d2b9c0cf2bb0e35ac16fff,0.015,0.015,0,128,128,94,1,eightsix,,,,,,,,,,,,,,,,,,,,,,,,,,,,,,,,,,,,,,,,,,,,,,,,,,,,,,,,,,,,,,,,,,,,,,,,,,,,,,,,,,,,,,,,,,,,,,,,,,,,,,,,,,,,,,,,,,,,,,,,,,,,,,,,,,,,,,,,,
,,5e02d4f7acd5cee30c9d49fa,2024-02-18_20h15.49.365,kallum_motion_pilot,2023.2.2,Win32,144.092219,5e02d4f7acd5cee30c9d49fa,65d2b6c8f2eece985d8e374c,65d2b9c0cf2bb0e35ac16fff,0.015,0.015,0,129,129,28,1,threeone,,,,,,,,,,,,,,,,,,,,,,,,,,,,,,,,,,,,,,,,,,,,,,,,,,,,,,,,,,,,,,,,,,,,,,,,,,,,,,,,,,,,,,,,,,,,,,,,,,,,,,,,,,,,,,,,,,,,,,,,,,,,,,,,,,,,,,,,,
,,5e02d4f7acd5cee30c9d49fa,2024-02-18_20h15.49.365,kallum_motion_pilot,2023.2.2,Win32,144.092219,5e02d4f7acd5cee30c9d49fa,65d2b6c8f2eece985d8e374c,65d2b9c0cf2bb0e35ac16fff,0.015,0.015,0,130,130,27,1,twofour,,,,,,,,,,,,,,,,,,,,,,,,,,,,,,,,,,,,,,,,,,,,,,,,,,,,,,,,,,,,,,,,,,,,,,,,,,,,,,,,,,,,,,,,,,,,,,,,,,,,,,,,,,,,,,,,,,,,,,,,,,,,,,,,,,,,,,,,,
,,5e02d4f7acd5cee30c9d49fa,2024-02-18_20h15.49.365,kallum_motion_pilot,2023.2.2,Win32,144.092219,5e02d4f7acd5cee30c9d49fa,65d2b6c8f2eece985d8e374c,65d2b9c0cf2bb0e35ac16fff,0.015,0.015,0,131,131,73,1,onethree,,,,,,,,,,,,,,,,,,,,,,,,,,,,,,,,,,,,,,,,,,,,,,,,,,,,,,,,,,,,,,,,,,,,,,,,,,,,,,,,,,,,,,,,,,,,,,,,,,,,,,,,,,,,,,,,,,,,,,,,,,,,,,,,,,,,,,,,,
,,5e02d4f7acd5cee30c9d49fa,2024-02-18_20h15.49.365,kallum_motion_pilot,2023.2.2,Win32,144.092219,5e02d4f7acd5cee30c9d49fa,65d2b6c8f2eece985d8e374c,65d2b9c0cf2bb0e35ac16fff,0.015,0.015,0,132,132,0,1,onetwo,,,,,,,,,,,,,,,,,,,,,,,,,,,,,,,,,,,,,,,,,,,,,,,,,,,,,,,,,,,,,,,,,,,,,,,,,,,,,,,,,,,,,,,,,,,,,,,,,,,,,,,,,,,,,,,,,,,,,,,,,,,,,,,,,,,,,,,,,
,,5e02d4f7acd5cee30c9d49fa,2024-02-18_20h15.49.365,kallum_motion_pilot,2023.2.2,Win32,144.092219,5e02d4f7acd5cee30c9d49fa,65d2b6c8f2eece985d8e374c,65d2b9c0cf2bb0e35ac16fff,0.015,0.015,0,133,133,26,1,twoone,,,,,,,,,,,,,,,,,,,,,,,,,,,,,,,,,,,,,,,,,,,,,,,,,,,,,,,,,,,,,,,,,,,,,,,,,,,,,,,,,,,,,,,,,,,,,,,,,,,,,,,,,,,,,,,,,,,,,,,,,,,,,,,,,,,,,,,,,
,,5e02d4f7acd5cee30c9d49fa,2024-02-18_20h15.49.365,kallum_motion_pilot,2023.2.2,Win32,144.092219,5e02d4f7acd5cee30c9d49fa,65d2b6c8f2eece985d8e374c,65d2b9c0cf2bb0e35ac16fff,0.015,0.015,0,134,134,146,1,sixfive,,,,,,,,,,,,,,,,,,,,,,,,,,,,,,,,,,,,,,,,,,,,,,,,,,,,,,,,,,,,,,,,,,,,,,,,,,,,,,,,,,,,,,,,,,,,,,,,,,,,,,,,,,,,,,,,,,,,,,,,,,,,,,,,,,,,,,,,,
,,5e02d4f7acd5cee30c9d49fa,2024-02-18_20h15.49.365,kallum_motion_pilot,2023.2.2,Win32,144.092219,5e02d4f7acd5cee30c9d49fa,65d2b6c8f2eece985d8e374c,65d2b9c0cf2bb0e35ac16fff,0.015,0.015,0,135,135,33,1,onethree,,,,,,,,,,,,,,,,,,,,,,,,,,,,,,,,,,,,,,,,,,,,,,,,,,,,,,,,,,,,,,,,,,,,,,,,,,,,,,,,,,,,,,,,,,,,,,,,,,,,,,,,,,,,,,,,,,,,,,,,,,,,,,,,,,,,,,,,,
,,5e02d4f7acd5cee30c9d49fa,2024-02-18_20h15.49.365,kallum_motion_pilot,2023.2.2,Win32,144.092219,5e02d4f7acd5cee30c9d49fa,65d2b6c8f2eece985d8e374c,65d2b9c0cf2bb0e35ac16fff,0.015,0.015,0,136,136,149,1,seveneight,,,,,,,,,,,,,,,,,,,,,,,,,,,,,,,,,,,,,,,,,,,,,,,,,,,,,,,,,,,,,,,,,,,,,,,,,,,,,,,,,,,,,,,,,,,,,,,,,,,,,,,,,,,,,,,,,,,,,,,,,,,,,,,,,,,,,,,,,
,,5e02d4f7acd5cee30c9d49fa,2024-02-18_20h15.49.365,kallum_motion_pilot,2023.2.2,Win32,144.092219,5e02d4f7acd5cee30c9d49fa,65d2b6c8f2eece985d8e374c,65d2b9c0cf2bb0e35ac16fff,0.015,0.015,0,137,137,126,1,eightsix,,,,,,,,,,,,,,,,,,,,,,,,,,,,,,,,,,,,,,,,,,,,,,,,,,,,,,,,,,,,,,,,,,,,,,,,,,,,,,,,,,,,,,,,,,,,,,,,,,,,,,,,,,,,,,,,,,,,,,,,,,,,,,,,,,,,,,,,,
,,5e02d4f7acd5cee30c9d49fa,2024-02-18_20h15.49.365,kallum_motion_pilot,2023.2.2,Win32,144.092219,5e02d4f7acd5cee30c9d49fa,65d2b6c8f2eece985d8e374c,65d2b9c0cf2bb0e35ac16fff,0.015,0.015,0,138,138,84,1,sevenfive,,,,,,,,,,,,,,,,,,,,,,,,,,,,,,,,,,,,,,,,,,,,,,,,,,,,,,,,,,,,,,,,,,,,,,,,,,,,,,,,,,,,,,,,,,,,,,,,,,,,,,,,,,,,,,,,,,,,,,,,,,,,,,,,,,,,,,,,,
,,5e02d4f7acd5cee30c9d49fa,2024-02-18_20h15.49.365,kallum_motion_pilot,2023.2.2,Win32,144.092219,5e02d4f7acd5cee30c9d49fa,65d2b6c8f2eece985d8e374c,65d2b9c0cf2bb0e35ac16fff,0.015,0.015,0,139,139,25,1,onethree,,,,,,,,,,,,,,,,,,,,,,,,,,,,,,,,,,,,,,,,,,,,,,,,,,,,,,,,,,,,,,,,,,,,,,,,,,,,,,,,,,,,,,,,,,,,,,,,,,,,,,,,,,,,,,,,,,,,,,,,,,,,,,,,,,,,,,,,,
,,5e02d4f7acd5cee30c9d49fa,2024-02-18_20h15.49.365,kallum_motion_pilot,2023.2.2,Win32,144.092219,5e02d4f7acd5cee30c9d49fa,65d2b6c8f2eece985d8e374c,65d2b9c0cf2bb0e35ac16fff,0.015,0.015,0,140,140,133,1,seveneight,,,,,,,,,,,,,,,,,,,,,,,,,,,,,,,,,,,,,,,,,,,,,,,,,,,,,,,,,,,,,,,,,,,,,,,,,,,,,,,,,,,,,,,,,,,,,,,,,,,,,,,,,,,,,,,,,,,,,,,,,,,,,,,,,,,,,,,,,
,,5e02d4f7acd5cee30c9d49fa,2024-02-18_20h15.49.365,kallum_motion_pilot,2023.2.2,Win32,144.092219,5e02d4f7acd5cee30c9d49fa,65d2b6c8f2eece985d8e374c,65d2b9c0cf2bb0e35ac16fff,0.015,0.015,0,141,141,134,1,eightsix,,,,,,,,,,,,,,,,,,,,,,,,,,,,,,,,,,,,,,,,,,,,,,,,,,,,,,,,,,,,,,,,,,,,,,,,,,,,,,,,,,,,,,,,,,,,,,,,,,,,,,,,,,,,,,,,,,,,,,,,,,,,,,,,,,,,,,,,,
,,5e02d4f7acd5cee30c9d49fa,2024-02-18_20h15.49.365,kallum_motion_pilot,2023.2.2,Win32,144.092219,5e02d4f7acd5cee30c9d49fa,65d2b6c8f2eece985d8e374c,65d2b9c0cf2bb0e35ac16fff,0.015,0.015,0,142,142,155,1,sixeight,,,,,,,,,,,,,,,,,,,,,,,,,,,,,,,,,,,,,,,,,,,,,,,,,,,,,,,,,,,,,,,,,,,,,,,,,,,,,,,,,,,,,,,,,,,,,,,,,,,,,,,,,,,,,,,,,,,,,,,,,,,,,,,,,,,,,,,,,
,,5e02d4f7acd5cee30c9d49fa,2024-02-18_20h15.49.365,kallum_motion_pilot,2023.2.2,Win32,144.092219,5e02d4f7acd5cee30c9d49fa,65d2b6c8f2eece985d8e374c,65d2b9c0cf2bb0e35ac16fff,0.015,0.015,0,143,143,17,1,onethree,,,,,,,,,,,,,,,,,,,,,,,,,,,,,,,,,,,,,,,,,,,,,,,,,,,,,,,,,,,,,,,,,,,,,,,,,,,,,,,,,,,,,,,,,,,,,,,,,,,,,,,,,,,,,,,,,,,,,,,,,,,,,,,,,,,,,,,,,
,,5e02d4f7acd5cee30c9d49fa,2024-02-18_20h15.49.365,kallum_motion_pilot,2023.2.2,Win32,144.092219,5e02d4f7acd5cee30c9d49fa,65d2b6c8f2eece985d8e374c,65d2b9c0cf2bb0e35ac16fff,0.015,0.015,0,144,144,69,1,threefour,,,,,,,,,,,,,,,,,,,,,,,,,,,,,,,,,,,,,,,,,,,,,,,,,,,,,,,,,,,,,,,,,,,,,,,,,,,,,,,,,,,,,,,,,,,,,,,,,,,,,,,,,,,,,,,,,,,,,,,,,,,,,,,,,,,,,,,,,
,,5e02d4f7acd5cee30c9d49fa,2024-02-18_20h15.49.365,kallum_motion_pilot,2023.2.2,Win32,144.092219,5e02d4f7acd5cee30c9d49fa,65d2b6c8f2eece985d8e374c,65d2b9c0cf2bb0e35ac16fff,0.015,0.015,0,145,145,47,1,fourthree,,,,,,,,,,,,,,,,,,,,,,,,,,,,,,,,,,,,,,,,,,,,,,,,,,,,,,,,,,,,,,,,,,,,,,,,,,,,,,,,,,,,,,,,,,,,,,,,,,,,,,,,,,,,,,,,,,,,,,,,,,,,,,,,,,,,,,,,,
,,5e02d4f7acd5cee30c9d49fa,2024-02-18_20h15.49.365,kallum_motion_pilot,2023.2.2,Win32,144.092219,5e02d4f7acd5cee30c9d49fa,65d2b6c8f2eece985d8e374c,65d2b9c0cf2bb0e35ac16fff,0.015,0.015,0,146,146,12,1,threeone,,,,,,,,,,,,,,,,,,,,,,,,,,,,,,,,,,,,,,,,,,,,,,,,,,,,,,,,,,,,,,,,,,,,,,,,,,,,,,,,,,,,,,,,,,,,,,,,,,,,,,,,,,,,,,,,,,,,,,,,,,,,,,,,,,,,,,,,,
,,5e02d4f7acd5cee30c9d49fa,2024-02-18_20h15.49.365,kallum_motion_pilot,2023.2.2,Win32,144.092219,5e02d4f7acd5cee30c9d49fa,65d2b6c8f2eece985d8e374c,65d2b9c0cf2bb0e35ac16fff,0.015,0.015,0,147,147,102,1,eightsix,,,,,,,,,,,,,,,,,,,,,,,,,,,,,,,,,,,,,,,,,,,,,,,,,,,,,,,,,,,,,,,,,,,,,,,,,,,,,,,,,,,,,,,,,,,,,,,,,,,,,,,,,,,,,,,,,,,,,,,,,,,,,,,,,,,,,,,,,
,,5e02d4f7acd5cee30c9d49fa,2024-02-18_20h15.49.365,kallum_motion_pilot,2023.2.2,Win32,144.092219,5e02d4f7acd5cee30c9d49fa,65d2b6c8f2eece985d8e374c,65d2b9c0cf2bb0e35ac16fff,0.015,0.015,0,148,148,161,1,fiveseven,,,,,,,,,,,,,,,,,,,,,,,,,,,,,,,,,,,,,,,,,,,,,,,,,,,,,,,,,,,,,,,,,,,,,,,,,,,,,,,,,,,,,,,,,,,,,,,,,,,,,,,,,,,,,,,,,,,,,,,,,,,,,,,,,,,,,,,,,
,,5e02d4f7acd5cee30c9d49fa,2024-02-18_20h15.49.365,kallum_motion_pilot,2023.2.2,Win32,144.092219,5e02d4f7acd5cee30c9d49fa,65d2b6c8f2eece985d8e374c,65d2b9c0cf2bb0e35ac16fff,0.015,0.015,0,149,149,131,1,sixeight,,,,,,,,,,,,,,,,,,,,,,,,,,,,,,,,,,,,,,,,,,,,,,,,,,,,,,,,,,,,,,,,,,,,,,,,,,,,,,,,,,,,,,,,,,,,,,,,,,,,,,,,,,,,,,,,,,,,,,,,,,,,,,,,,,,,,,,,,
,,5e02d4f7acd5cee30c9d49fa,2024-02-18_20h15.49.365,kallum_motion_pilot,2023.2.2,Win32,144.092219,5e02d4f7acd5cee30c9d49fa,65d2b6c8f2eece985d8e374c,65d2b9c0cf2bb0e35ac16fff,0.015,0.015,0,150,150,88,1,fivesix,,,,,,,,,,,,,,,,,,,,,,,,,,,,,,,,,,,,,,,,,,,,,,,,,,,,,,,,,,,,,,,,,,,,,,,,,,,,,,,,,,,,,,,,,,,,,,,,,,,,,,,,,,,,,,,,,,,,,,,,,,,,,,,,,,,,,,,,,
,,5e02d4f7acd5cee30c9d49fa,2024-02-18_20h15.49.365,kallum_motion_pilot,2023.2.2,Win32,144.092219,5e02d4f7acd5cee30c9d49fa,65d2b6c8f2eece985d8e374c,65d2b9c0cf2bb0e35ac16fff,0.015,0.015,0,151,151,151,1,eightseven,,,,,,,,,,,,,,,,,,,,,,,,,,,,,,,,,,,,,,,,,,,,,,,,,,,,,,,,,,,,,,,,,,,,,,,,,,,,,,,,,,,,,,,,,,,,,,,,,,,,,,,,,,,,,,,,,,,,,,,,,,,,,,,,,,,,,,,,,
,,5e02d4f7acd5cee30c9d49fa,2024-02-18_20h15.49.365,kallum_motion_pilot,2023.2.2,Win32,144.092219,5e02d4f7acd5cee30c9d49fa,65d2b6c8f2eece985d8e374c,65d2b9c0cf2bb0e35ac16fff,0.015,0.015,0,152,152,67,1,twofour,,,,,,,,,,,,,,,,,,,,,,,,,,,,,,,,,,,,,,,,,,,,,,,,,,,,,,,,,,,,,,,,,,,,,,,,,,,,,,,,,,,,,,,,,,,,,,,,,,,,,,,,,,,,,,,,,,,,,,,,,,,,,,,,,,,,,,,,,
,,5e02d4f7acd5cee30c9d49fa,2024-02-18_20h15.49.365,kallum_motion_pilot,2023.2.2,Win32,144.092219,5e02d4f7acd5cee30c9d49fa,65d2b6c8f2eece985d8e374c,65d2b9c0cf2bb0e35ac16fff,0.015,0.015,0,153,153,70,1,fourtwo,,,,,,,,,,,,,,,,,,,,,,,,,,,,,,,,,,,,,,,,,,,,,,,,,,,,,,,,,,,,,,,,,,,,,,,,,,,,,,,,,,,,,,,,,,,,,,,,,,,,,,,,,,,,,,,,,,,,,,,,,,,,,,,,,,,,,,,,,
,,5e02d4f7acd5cee30c9d49fa,2024-02-18_20h15.49.365,kallum_motion_pilot,2023.2.2,Win32,144.092219,5e02d4f7acd5cee30c9d49fa,65d2b6c8f2eece985d8e374c,65d2b9c0cf2bb0e35ac16fff,0.015,0.015,0,154,154,59,1,twofour,,,,,,,,,,,,,,,,,,,,,,,,,,,,,,,,,,,,,,,,,,,,,,,,,,,,,,,,,,,,,,,,,,,,,,,,,,,,,,,,,,,,,,,,,,,,,,,,,,,,,,,,,,,,,,,,,,,,,,,,,,,,,,,,,,,,,,,,,
,,5e02d4f7acd5cee30c9d49fa,2024-02-18_20h15.49.365,kallum_motion_pilot,2023.2.2,Win32,144.092219,5e02d4f7acd5cee30c9d49fa,65d2b6c8f2eece985d8e374c,65d2b9c0cf2bb0e35ac16fff,0.015,0.015,0,155,155,77,1,threefour,,,,,,,,,,,,,,,,,,,,,,,,,,,,,,,,,,,,,,,,,,,,,,,,,,,,,,,,,,,,,,,,,,,,,,,,,,,,,,,,,,,,,,,,,,,,,,,,,,,,,,,,,,,,,,,,,,,,,,,,,,,,,,,,,,,,,,,,,
,,5e02d4f7acd5cee30c9d49fa,2024-02-18_20h15.49.365,kallum_motion_pilot,2023.2.2,Win32,144.092219,5e02d4f7acd5cee30c9d49fa,65d2b6c8f2eece985d8e374c,65d2b9c0cf2bb0e35ac16fff,0.015,0.015,0,156,156,111,1,eightseven,,,,,,,,,,,,,,,,,,,,,,,,,,,,,,,,,,,,,,,,,,,,,,,,,,,,,,,,,,,,,,,,,,,,,,,,,,,,,,,,,,,,,,,,,,,,,,,,,,,,,,,,,,,,,,,,,,,,,,,,,,,,,,,,,,,,,,,,,
,,5e02d4f7acd5cee30c9d49fa,2024-02-18_20h15.49.365,kallum_motion_pilot,2023.2.2,Win32,144.092219,5e02d4f7acd5cee30c9d49fa,65d2b6c8f2eece985d8e374c,65d2b9c0cf2bb0e35ac16fff,0.015,0.015,0,157,157,135,1,eightseven,,,,,,,,,,,,,,,,,,,,,,,,,,,,,,,,,,,,,,,,,,,,,,,,,,,,,,,,,,,,,,,,,,,,,,,,,,,,,,,,,,,,,,,,,,,,,,,,,,,,,,,,,,,,,,,,,,,,,,,,,,,,,,,,,,,,,,,,,
,,5e02d4f7acd5cee30c9d49fa,2024-02-18_20h15.49.365,kallum_motion_pilot,2023.2.2,Win32,144.092219,5e02d4f7acd5cee30c9d49fa,65d2b6c8f2eece985d8e374c,65d2b9c0cf2bb0e35ac16fff,0.015,0.015,0,158,158,101,1,seveneight,,,,,,,,,,,,,,,,,,,,,,,,,,,,,,,,,,,,,,,,,,,,,,,,,,,,,,,,,,,,,,,,,,,,,,,,,,,,,,,,,,,,,,,,,,,,,,,,,,,,,,,,,,,,,,,,,,,,,,,,,,,,,,,,,,,,,,,,,
,,5e02d4f7acd5cee30c9d49fa,2024-02-18_20h15.49.365,kallum_motion_pilot,2023.2.2,Win32,144.092219,5e02d4f7acd5cee30c9d49fa,65d2b6c8f2eece985d8e374c,65d2b9c0cf2bb0e35ac16fff,0.015,0.015,0,159,159,129,1,fiveseven,,,,,,,,,,,,,,,,,,,,,,,,,,,,,,,,,,,,,,,,,,,,,,,,,,,,,,,,,,,,,,,,,,,,,,,,,,,,,,,,,,,,,,,,,,,,,,,,,,,,,,,,,,,,,,,,,,,,,,,,,,,,,,,,,,,,,,,,,
,,5e02d4f7acd5cee30c9d49fa,2024-02-18_20h15.49.365,kallum_motion_pilot,2023.2.2,Win32,144.092219,5e02d4f7acd5cee30c9d49fa,65d2b6c8f2eece985d8e374c,65d2b9c0cf2bb0e35ac16fff,0.015,0.015,0,160,160,159,1,eightseven,,,,,,,,,,,,,,,,,,,,,,,,,,,,,,,,,,,,,,,,,,,,,,,,,,,,,,,,,,,,,,,,,,,,,,,,,,,,,,,,,,,,,,,,,,,,,,,,,,,,,,,,,,,,,,,,,,,,,,,,,,,,,,,,,,,,,,,,,
,,5e02d4f7acd5cee30c9d49fa,2024-02-18_20h15.49.365,kallum_motion_pilot,2023.2.2,Win32,144.092219,5e02d4f7acd5cee30c9d49fa,65d2b6c8f2eece985d8e374c,65d2b9c0cf2bb0e35ac16fff,0.015,0.015,0,161,161,23,1,fourthree,,,,,,,,,,,,,,,,,,,,,,,,,,,,,,,,,,,,,,,,,,,,,,,,,,,,,,,,,,,,,,,,,,,,,,,,,,,,,,,,,,,,,,,,,,,,,,,,,,,,,,,,,,,,,,,,,,,,,,,,,,,,,,,,,,,,,,,,,
,,5e02d4f7acd5cee30c9d49fa,2024-02-18_20h15.49.365,kallum_motion_pilot,2023.2.2,Win32,144.092219,5e02d4f7acd5cee30c9d49fa,65d2b6c8f2eece985d8e374c,65d2b9c0cf2bb0e35ac16fff,0.015,0.015,1,0,162,15,1,fourthree,,,,,,,,,,,,,,,,,,,,,,,,,,,,,,,,,,,,,,,,,,,,,,,,,,,,,,,,,,,,,,,,,,,,,,,,,,,,,,,,,,,,,,,,,,,,,,,,,,,,,,,,,,,,,,,,,,,,,,,,,,,,,,,,,,,,,,,,,
,,5e02d4f7acd5cee30c9d49fa,2024-02-18_20h15.49.365,kallum_motion_pilot,2023.2.2,Win32,144.092219,5e02d4f7acd5cee30c9d49fa,65d2b6c8f2eece985d8e374c,65d2b9c0cf2bb0e35ac16fff,0.015,0.015,1,1,163,54,1,fourtwo,,,,,,,,,,,,,,,,,,,,,,,,,,,,,,,,,,,,,,,,,,,,,,,,,,,,,,,,,,,,,,,,,,,,,,,,,,,,,,,,,,,,,,,,,,,,,,,,,,,,,,,,,,,,,,,,,,,,,,,,,,,,,,,,,,,,,,,,,
,,5e02d4f7acd5cee30c9d49fa,2024-02-18_20h15.49.365,kallum_motion_pilot,2023.2.2,Win32,144.092219,5e02d4f7acd5cee30c9d49fa,65d2b6c8f2eece985d8e374c,65d2b9c0cf2bb0e35ac16fff,0.015,0.015,1,2,164,136,1,fivesix,,,,,,,,,,,,,,,,,,,,,,,,,,,,,,,,,,,,,,,,,,,,,,,,,,,,,,,,,,,,,,,,,,,,,,,,,,,,,,,,,,,,,,,,,,,,,,,,,,,,,,,,,,,,,,,,,,,,,,,,,,,,,,,,,,,,,,,,,
,,5e02d4f7acd5cee30c9d49fa,2024-02-18_20h15.49.365,kallum_motion_pilot,2023.2.2,Win32,144.092219,5e02d4f7acd5cee30c9d49fa,65d2b6c8f2eece985d8e374c,65d2b9c0cf2bb0e35ac16fff,0.015,0.015,1,3,165,25,1,onethree,,,,,,,,,,,,,,,,,,,,,,,,,,,,,,,,,,,,,,,,,,,,,,,,,,,,,,,,,,,,,,,,,,,,,,,,,,,,,,,,,,,,,,,,,,,,,,,,,,,,,,,,,,,,,,,,,,,,,,,,,,,,,,,,,,,,,,,,,
,,5e02d4f7acd5cee30c9d49fa,2024-02-18_20h15.49.365,kallum_motion_pilot,2023.2.2,Win32,144.092219,5e02d4f7acd5cee30c9d49fa,65d2b6c8f2eece985d8e374c,65d2b9c0cf2bb0e35ac16fff,0.015,0.015,1,4,166,156,1,sevenfive,,,,,,,,,,,,,,,,,,,,,,,,,,,,,,,,,,,,,,,,,,,,,,,,,,,,,,,,,,,,,,,,,,,,,,,,,,,,,,,,,,,,,,,,,,,,,,,,,,,,,,,,,,,,,,,,,,,,,,,,,,,,,,,,,,,,,,,,,
,,5e02d4f7acd5cee30c9d49fa,2024-02-18_20h15.49.365,kallum_motion_pilot,2023.2.2,Win32,144.092219,5e02d4f7acd5cee30c9d49fa,65d2b6c8f2eece985d8e374c,65d2b9c0cf2bb0e35ac16fff,0.015,0.015,1,5,167,96,1,fivesix,,,,,,,,,,,,,,,,,,,,,,,,,,,,,,,,,,,,,,,,,,,,,,,,,,,,,,,,,,,,,,,,,,,,,,,,,,,,,,,,,,,,,,,,,,,,,,,,,,,,,,,,,,,,,,,,,,,,,,,,,,,,,,,,,,,,,,,,,
,,5e02d4f7acd5cee30c9d49fa,2024-02-18_20h15.49.365,kallum_motion_pilot,2023.2.2,Win32,144.092219,5e02d4f7acd5cee30c9d49fa,65d2b6c8f2eece985d8e374c,65d2b9c0cf2bb0e35ac16fff,0.016,0.016,1,6,168,157,1,seveneight,,,,,,,,,,,,,,,,,,,,,,,,,,,,,,,,,,,,,,,,,,,,,,,,,,,,,,,,,,,,,,,,,,,,,,,,,,,,,,,,,,,,,,,,,,,,,,,,,,,,,,,,,,,,,,,,,,,,,,,,,,,,,,,,,,,,,,,,,
,,5e02d4f7acd5cee30c9d49fa,2024-02-18_20h15.49.365,kallum_motion_pilot,2023.2.2,Win32,144.092219,5e02d4f7acd5cee30c9d49fa,65d2b6c8f2eece985d8e374c,65d2b9c0cf2bb0e35ac16fff,0.016,0.016,1,7,169,44,1,threeone,,,,,,,,,,,,,,,,,,,,,,,,,,,,,,,,,,,,,,,,,,,,,,,,,,,,,,,,,,,,,,,,,,,,,,,,,,,,,,,,,,,,,,,,,,,,,,,,,,,,,,,,,,,,,,,,,,,,,,,,,,,,,,,,,,,,,,,,,
,,5e02d4f7acd5cee30c9d49fa,2024-02-18_20h15.49.365,kallum_motion_pilot,2023.2.2,Win32,144.092219,5e02d4f7acd5cee30c9d49fa,65d2b6c8f2eece985d8e374c,65d2b9c0cf2bb0e35ac16fff,0.016,0.016,1,8,170,60,1,threeone,,,,,,,,,,,,,,,,,,,,,,,,,,,,,,,,,,,,,,,,,,,,,,,,,,,,,,,,,,,,,,,,,,,,,,,,,,,,,,,,,,,,,,,,,,,,,,,,,,,,,,,,,,,,,,,,,,,,,,,,,,,,,,,,,,,,,,,,,
,,5e02d4f7acd5cee30c9d49fa,2024-02-18_20h15.49.365,kallum_motion_pilot,2023.2.2,Win32,144.092219,5e02d4f7acd5cee30c9d49fa,65d2b6c8f2eece985d8e374c,65d2b9c0cf2bb0e35ac16fff,0.016,0.016,1,9,171,0,1,onetwo,,,,,,,,,,,,,,,,,,,,,,,,,,,,,,,,,,,,,,,,,,,,,,,,,,,,,,,,,,,,,,,,,,,,,,,,,,,,,,,,,,,,,,,,,,,,,,,,,,,,,,,,,,,,,,,,,,,,,,,,,,,,,,,,,,,,,,,,,
,,5e02d4f7acd5cee30c9d49fa,2024-02-18_20h15.49.365,kallum_motion_pilot,2023.2.2,Win32,144.092219,5e02d4f7acd5cee30c9d49fa,65d2b6c8f2eece985d8e374c,65d2b9c0cf2bb0e35ac16fff,0.016,0.016,1,10,172,27,1,twofour,,,,,,,,,,,,,,,,,,,,,,,,,,,,,,,,,,,,,,,,,,,,,,,,,,,,,,,,,,,,,,,,,,,,,,,,,,,,,,,,,,,,,,,,,,,,,,,,,,,,,,,,,,,,,,,,,,,,,,,,,,,,,,,,,,,,,,,,,
,,5e02d4f7acd5cee30c9d49fa,2024-02-18_20h15.49.365,kallum_motion_pilot,2023.2.2,Win32,144.092219,5e02d4f7acd5cee30c9d49fa,65d2b6c8f2eece985d8e374c,65d2b9c0cf2bb0e35ac16fff,0.016,0.016,1,11,173,81,1,fiveseven,,,,,,,,,,,,,,,,,,,,,,,,,,,,,,,,,,,,,,,,,,,,,,,,,,,,,,,,,,,,,,,,,,,,,,,,,,,,,,,,,,,,,,,,,,,,,,,,,,,,,,,,,,,,,,,,,,,,,,,,,,,,,,,,,,,,,,,,,
,,5e02d4f7acd5cee30c9d49fa,2024-02-18_20h15.49.365,kallum_motion_pilot,2023.2.2,Win32,144.092219,5e02d4f7acd5cee30c9d49fa,65d2b6c8f2eece985d8e374c,65d2b9c0cf2bb0e35ac16fff,0.016,0.016,1,12,174,146,1,sixfive,,,,,,,,,,,,,,,,,,,,,,,,,,,,,,,,,,,,,,,,,,,,,,,,,,,,,,,,,,,,,,,,,,,,,,,,,,,,,,,,,,,,,,,,,,,,,,,,,,,,,,,,,,,,,,,,,,,,,,,,,,,,,,,,,,,,,,,,,
,,5e02d4f7acd5cee30c9d49fa,2024-02-18_20h15.49.365,kallum_motion_pilot,2023.2.2,Win32,144.092219,5e02d4f7acd5cee30c9d49fa,65d2b6c8f2eece985d8e374c,65d2b9c0cf2bb0e35ac16fff,0.016,0.016,1,13,175,91,1,sixeight,,,,,,,,,,,,,,,,,,,,,,,,,,,,,,,,,,,,,,,,,,,,,,,,,,,,,,,,,,,,,,,,,,,,,,,,,,,,,,,,,,,,,,,,,,,,,,,,,,,,,,,,,,,,,,,,,,,,,,,,,,,,,,,,,,,,,,,,,
,,5e02d4f7acd5cee30c9d49fa,2024-02-18_20h15.49.365,kallum_motion_pilot,2023.2.2,Win32,144.092219,5e02d4f7acd5cee30c9d49fa,65d2b6c8f2eece985d8e374c,65d2b9c0cf2bb0e35ac16fff,0.016,0.016,1,14,176,58,1,twoone,,,,,,,,,,,,,,,,,,,,,,,,,,,,,,,,,,,,,,,,,,,,,,,,,,,,,,,,,,,,,,,,,,,,,,,,,,,,,,,,,,,,,,,,,,,,,,,,,,,,,,,,,,,,,,,,,,,,,,,,,,,,,,,,,,,,,,,,,
,,5e02d4f7acd5cee30c9d49fa,2024-02-18_20h15.49.365,kallum_motion_pilot,2023.2.2,Win32,144.092219,5e02d4f7acd5cee30c9d49fa,65d2b6c8f2eece985d8e374c,65d2b9c0cf2bb0e35ac16fff,0.016,0.016,1,15,177,130,1,sixfive,,,,,,,,,,,,,,,,,,,,,,,,,,,,,,,,,,,,,,,,,,,,,,,,,,,,,,,,,,,,,,,,,,,,,,,,,,,,,,,,,,,,,,,,,,,,,,,,,,,,,,,,,,,,,,,,,,,,,,,,,,,,,,,,,,,,,,,,,
,,5e02d4f7acd5cee30c9d49fa,2024-02-18_20h15.49.365,kallum_motion_pilot,2023.2.2,Win32,144.092219,5e02d4f7acd5cee30c9d49fa,65d2b6c8f2eece985d8e374c,65d2b9c0cf2bb0e35ac16fff,0.016,0.016,1,16,178,10,1,twoone,,,,,,,,,,,,,,,,,,,,,,,,,,,,,,,,,,,,,,,,,,,,,,,,,,,,,,,,,,,,,,,,,,,,,,,,,,,,,,,,,,,,,,,,,,,,,,,,,,,,,,,,,,,,,,,,,,,,,,,,,,,,,,,,,,,,,,,,,
,,5e02d4f7acd5cee30c9d49fa,2024-02-18_20h15.49.365,kallum_motion_pilot,2023.2.2,Win32,144.092219,5e02d4f7acd5cee30c9d49fa,65d2b6c8f2eece985d8e374c,65d2b9c0cf2bb0e35ac16fff,0.016,0.016,1,17,179,114,1,sixfive,,,,,,,,,,,,,,,,,,,,,,,,,,,,,,,,,,,,,,,,,,,,,,,,,,,,,,,,,,,,,,,,,,,,,,,,,,,,,,,,,,,,,,,,,,,,,,,,,,,,,,,,,,,,,,,,,,,,,,,,,,,,,,,,,,,,,,,,,
,,5e02d4f7acd5cee30c9d49fa,2024-02-18_20h15.49.365,kallum_motion_pilot,2023.2.2,Win32,144.092219,5e02d4f7acd5cee30c9d49fa,65d2b6c8f2eece985d8e374c,65d2b9c0cf2bb0e35ac16fff,0.016,0.016,1,18,180,48,1,onetwo,,,,,,,,,,,,,,,,,,,,,,,,,,,,,,,,,,,,,,,,,,,,,,,,,,,,,,,,,,,,,,,,,,,,,,,,,,,,,,,,,,,,,,,,,,,,,,,,,,,,,,,,,,,,,,,,,,,,,,,,,,,,,,,,,,,,,,,,,
,,5e02d4f7acd5cee30c9d49fa,2024-02-18_20h15.49.365,kallum_motion_pilot,2023.2.2,Win32,144.092219,5e02d4f7acd5cee30c9d49fa,65d2b6c8f2eece985d8e374c,65d2b9c0cf2bb0e35ac16fff,0.016,0.016,1,19,181,149,1,seveneight,,,,,,,,,,,,,,,,,,,,,,,,,,,,,,,,,,,,,,,,,,,,,,,,,,,,,,,,,,,,,,,,,,,,,,,,,,,,,,,,,,,,,,,,,,,,,,,,,,,,,,,,,,,,,,,,,,,,,,,,,,,,,,,,,,,,,,,,,
,,5e02d4f7acd5cee30c9d49fa,2024-02-18_20h15.49.365,kallum_motion_pilot,2023.2.2,Win32,144.092219,5e02d4f7acd5cee30c9d49fa,65d2b6c8f2eece985d8e374c,65d2b9c0cf2bb0e35ac16fff,0.016,0.016,1,20,182,47,1,fourthree,,,,,,,,,,,,,,,,,,,,,,,,,,,,,,,,,,,,,,,,,,,,,,,,,,,,,,,,,,,,,,,,,,,,,,,,,,,,,,,,,,,,,,,,,,,,,,,,,,,,,,,,,,,,,,,,,,,,,,,,,,,,,,,,,,,,,,,,,
,,5e02d4f7acd5cee30c9d49fa,2024-02-18_20h15.49.365,kallum_motion_pilot,2023.2.2,Win32,144.092219,5e02d4f7acd5cee30c9d49fa,65d2b6c8f2eece985d8e374c,65d2b9c0cf2bb0e35ac16fff,0.016,0.016,1,21,183,75,1,twofour,,,,,,,,,,,,,,,,,,,,,,,,,,,,,,,,,,,,,,,,,,,,,,,,,,,,,,,,,,,,,,,,,,,,,,,,,,,,,,,,,,,,,,,,,,,,,,,,,,,,,,,,,,,,,,,,,,,,,,,,,,,,,,,,,,,,,,,,,
,,5e02d4f7acd5cee30c9d49fa,2024-02-18_20h15.49.365,kallum_motion_pilot,2023.2.2,Win32,144.092219,5e02d4f7acd5cee30c9d49fa,65d2b6c8f2eece985d8e374c,65d2b9c0cf2bb0e35ac16fff,0.016,0.016,1,22,184,117,1,seveneight,,,,,,,,,,,,,,,,,,,,,,,,,,,,,,,,,,,,,,,,,,,,,,,,,,,,,,,,,,,,,,,,,,,,,,,,,,,,,,,,,,,,,,,,,,,,,,,,,,,,,,,,,,,,,,,,,,,,,,,,,,,,,,,,,,,,,,,,,
,,5e02d4f7acd5cee30c9d49fa,2024-02-18_20h15.49.365,kallum_motion_pilot,2023.2.2,Win32,144.092219,5e02d4f7acd5cee30c9d49fa,65d2b6c8f2eece985d8e374c,65d2b9c0cf2bb0e35ac16fff,0.016,0.016,1,23,185,106,1,sixfive,,,,,,,,,,,,,,,,,,,,,,,,,,,,,,,,,,,,,,,,,,,,,,,,,,,,,,,,,,,,,,,,,,,,,,,,,,,,,,,,,,,,,,,,,,,,,,,,,,,,,,,,,,,,,,,,,,,,,,,,,,,,,,,,,,,,,,,,,
,,5e02d4f7acd5cee30c9d49fa,2024-02-18_20h15.49.365,kallum_motion_pilot,2023.2.2,Win32,144.092219,5e02d4f7acd5cee30c9d49fa,65d2b6c8f2eece985d8e374c,65d2b9c0cf2bb0e35ac16fff,0.016,0.016,1,24,186,14,1,fourtwo,,,,,,,,,,,,,,,,,,,,,,,,,,,,,,,,,,,,,,,,,,,,,,,,,,,,,,,,,,,,,,,,,,,,,,,,,,,,,,,,,,,,,,,,,,,,,,,,,,,,,,,,,,,,,,,,,,,,,,,,,,,,,,,,,,,,,,,,,
,,5e02d4f7acd5cee30c9d49fa,2024-02-18_20h15.49.365,kallum_motion_pilot,2023.2.2,Win32,144.092219,5e02d4f7acd5cee30c9d49fa,65d2b6c8f2eece985d8e374c,65d2b9c0cf2bb0e35ac16fff,0.016,0.016,1,25,187,82,1,sixfive,,,,,,,,,,,,,,,,,,,,,,,,,,,,,,,,,,,,,,,,,,,,,,,,,,,,,,,,,,,,,,,,,,,,,,,,,,,,,,,,,,,,,,,,,,,,,,,,,,,,,,,,,,,,,,,,,,,,,,,,,,,,,,,,,,,,,,,,,
,,5e02d4f7acd5cee30c9d49fa,2024-02-18_20h15.49.365,kallum_motion_pilot,2023.2.2,Win32,144.092219,5e02d4f7acd5cee30c9d49fa,65d2b6c8f2eece985d8e374c,65d2b9c0cf2bb0e35ac16fff,0.016,0.016,1,26,188,46,1,fourtwo,,,,,,,,,,,,,,,,,,,,,,,,,,,,,,,,,,,,,,,,,,,,,,,,,,,,,,,,,,,,,,,,,,,,,,,,,,,,,,,,,,,,,,,,,,,,,,,,,,,,,,,,,,,,,,,,,,,,,,,,,,,,,,,,,,,,,,,,,
,,5e02d4f7acd5cee30c9d49fa,2024-02-18_20h15.49.365,kallum_motion_pilot,2023.2.2,Win32,144.092219,5e02d4f7acd5cee30c9d49fa,65d2b6c8f2eece985d8e374c,65d2b9c0cf2bb0e35ac16fff,0.016,0.016,1,27,189,84,1,sevenfive,,,,,,,,,,,,,,,,,,,,,,,,,,,,,,,,,,,,,,,,,,,,,,,,,,,,,,,,,,,,,,,,,,,,,,,,,,,,,,,,,,,,,,,,,,,,,,,,,,,,,,,,,,,,,,,,,,,,,,,,,,,,,,,,,,,,,,,,,
,,5e02d4f7acd5cee30c9d49fa,2024-02-18_20h15.49.365,kallum_motion_pilot,2023.2.2,Win32,144.092219,5e02d4f7acd5cee30c9d49fa,65d2b6c8f2eece985d8e374c,65d2b9c0cf2bb0e35ac16fff,0.016,0.016,1,28,190,1,1,onethree,,,,,,,,,,,,,,,,,,,,,,,,,,,,,,,,,,,,,,,,,,,,,,,,,,,,,,,,,,,,,,,,,,,,,,,,,,,,,,,,,,,,,,,,,,,,,,,,,,,,,,,,,,,,,,,,,,,,,,,,,,,,,,,,,,,,,,,,,
,,5e02d4f7acd5cee30c9d49fa,2024-02-18_20h15.49.365,kallum_motion_pilot,2023.2.2,Win32,144.092219,5e02d4f7acd5cee30c9d49fa,65d2b6c8f2eece985d8e374c,65d2b9c0cf2bb0e35ac16fff,0.016,0.016,1,29,191,21,1,threefour,,,,,,,,,,,,,,,,,,,,,,,,,,,,,,,,,,,,,,,,,,,,,,,,,,,,,,,,,,,,,,,,,,,,,,,,,,,,,,,,,,,,,,,,,,,,,,,,,,,,,,,,,,,,,,,,,,,,,,,,,,,,,,,,,,,,,,,,,
,,5e02d4f7acd5cee30c9d49fa,2024-02-18_20h15.49.365,kallum_motion_pilot,2023.2.2,Win32,144.092219,5e02d4f7acd5cee30c9d49fa,65d2b6c8f2eece985d8e374c,65d2b9c0cf2bb0e35ac16fff,0.016,0.016,1,30,192,87,1,eightseven,,,,,,,,,,,,,,,,,,,,,,,,,,,,,,,,,,,,,,,,,,,,,,,,,,,,,,,,,,,,,,,,,,,,,,,,,,,,,,,,,,,,,,,,,,,,,,,,,,,,,,,,,,,,,,,,,,,,,,,,,,,,,,,,,,,,,,,,,
,,5e02d4f7acd5cee30c9d49fa,2024-02-18_20h15.49.365,kallum_motion_pilot,2023.2.2,Win32,144.092219,5e02d4f7acd5cee30c9d49fa,65d2b6c8f2eece985d8e374c,65d2b9c0cf2bb0e35ac16fff,0.016,0.016,1,31,193,31,1,fourthree,,,,,,,,,,,,,,,,,,,,,,,,,,,,,,,,,,,,,,,,,,,,,,,,,,,,,,,,,,,,,,,,,,,,,,,,,,,,,,,,,,,,,,,,,,,,,,,,,,,,,,,,,,,,,,,,,,,,,,,,,,,,,,,,,,,,,,,,,
,,5e02d4f7acd5cee30c9d49fa,2024-02-18_20h15.49.365,kallum_motion_pilot,2023.2.2,Win32,144.092219,5e02d4f7acd5cee30c9d49fa,65d2b6c8f2eece985d8e374c,65d2b9c0cf2bb0e35ac16fff,0.016,0.016,1,32,194,134,1,eightsix,,,,,,,,,,,,,,,,,,,,,,,,,,,,,,,,,,,,,,,,,,,,,,,,,,,,,,,,,,,,,,,,,,,,,,,,,,,,,,,,,,,,,,,,,,,,,,,,,,,,,,,,,,,,,,,,,,,,,,,,,,,,,,,,,,,,,,,,,
,,5e02d4f7acd5cee30c9d49fa,2024-02-18_20h15.49.365,kallum_motion_pilot,2023.2.2,Win32,144.092219,5e02d4f7acd5cee30c9d49fa,65d2b6c8f2eece985d8e374c,65d2b9c0cf2bb0e35ac16fff,0.016,0.016,1,33,195,59,1,twofour,,,,,,,,,,,,,,,,,,,,,,,,,,,,,,,,,,,,,,,,,,,,,,,,,,,,,,,,,,,,,,,,,,,,,,,,,,,,,,,,,,,,,,,,,,,,,,,,,,,,,,,,,,,,,,,,,,,,,,,,,,,,,,,,,,,,,,,,,
,,5e02d4f7acd5cee30c9d49fa,2024-02-18_20h15.49.365,kallum_motion_pilot,2023.2.2,Win32,144.092219,5e02d4f7acd5cee30c9d49fa,65d2b6c8f2eece985d8e374c,65d2b9c0cf2bb0e35ac16fff,0.016,0.016,1,34,196,143,1,eightseven,,,,,,,,,,,,,,,,,,,,,,,,,,,,,,,,,,,,,,,,,,,,,,,,,,,,,,,,,,,,,,,,,,,,,,,,,,,,,,,,,,,,,,,,,,,,,,,,,,,,,,,,,,,,,,,,,,,,,,,,,,,,,,,,,,,,,,,,,
,,5e02d4f7acd5cee30c9d49fa,2024-02-18_20h15.49.365,kallum_motion_pilot,2023.2.2,Win32,144.092219,5e02d4f7acd5cee30c9d49fa,65d2b6c8f2eece985d8e374c,65d2b9c0cf2bb0e35ac16fff,0.016,0.016,1,35,197,94,1,eightsix,,,,,,,,,,,,,,,,,,,,,,,,,,,,,,,,,,,,,,,,,,,,,,,,,,,,,,,,,,,,,,,,,,,,,,,,,,,,,,,,,,,,,,,,,,,,,,,,,,,,,,,,,,,,,,,,,,,,,,,,,,,,,,,,,,,,,,,,,
,,5e02d4f7acd5cee30c9d49fa,2024-02-18_20h15.49.365,kallum_motion_pilot,2023.2.2,Win32,144.092219,5e02d4f7acd5cee30c9d49fa,65d2b6c8f2eece985d8e374c,65d2b9c0cf2bb0e35ac16fff,0.016,0.016,1,36,198,141,1,seveneight,,,,,,,,,,,,,,,,,,,,,,,,,,,,,,,,,,,,,,,,,,,,,,,,,,,,,,,,,,,,,,,,,,,,,,,,,,,,,,,,,,,,,,,,,,,,,,,,,,,,,,,,,,,,,,,,,,,,,,,,,,,,,,,,,,,,,,,,,
,,5e02d4f7acd5cee30c9d49fa,2024-02-18_20h15.49.365,kallum_motion_pilot,2023.2.2,Win32,144.092219,5e02d4f7acd5cee30c9d49fa,65d2b6c8f2eece985d8e374c,65d2b9c0cf2bb0e35ac16fff,0.016,0.016,1,37,199,108,1,sevenfive,,,,,,,,,,,,,,,,,,,,,,,,,,,,,,,,,,,,,,,,,,,,,,,,,,,,,,,,,,,,,,,,,,,,,,,,,,,,,,,,,,,,,,,,,,,,,,,,,,,,,,,,,,,,,,,,,,,,,,,,,,,,,,,,,,,,,,,,,
,,5e02d4f7acd5cee30c9d49fa,2024-02-18_20h15.49.365,kallum_motion_pilot,2023.2.2,Win32,144.092219,5e02d4f7acd5cee30c9d49fa,65d2b6c8f2eece985d8e374c,65d2b9c0cf2bb0e35ac16fff,0.016,0.016,1,38,200,89,1,fiveseven,,,,,,,,,,,,,,,,,,,,,,,,,,,,,,,,,,,,,,,,,,,,,,,,,,,,,,,,,,,,,,,,,,,,,,,,,,,,,,,,,,,,,,,,,,,,,,,,,,,,,,,,,,,,,,,,,,,,,,,,,,,,,,,,,,,,,,,,,
,,5e02d4f7acd5cee30c9d49fa,2024-02-18_20h15.49.365,kallum_motion_pilot,2023.2.2,Win32,144.092219,5e02d4f7acd5cee30c9d49fa,65d2b6c8f2eece985d8e374c,65d2b9c0cf2bb0e35ac16fff,0.016,0.016,1,39,201,132,1,sevenfive,,,,,,,,,,,,,,,,,,,,,,,,,,,,,,,,,,,,,,,,,,,,,,,,,,,,,,,,,,,,,,,,,,,,,,,,,,,,,,,,,,,,,,,,,,,,,,,,,,,,,,,,,,,,,,,,,,,,,,,,,,,,,,,,,,,,,,,,,
,,5e02d4f7acd5cee30c9d49fa,2024-02-18_20h15.49.365,kallum_motion_pilot,2023.2.2,Win32,144.092219,5e02d4f7acd5cee30c9d49fa,65d2b6c8f2eece985d8e374c,65d2b9c0cf2bb0e35ac16fff,0.016,0.016,1,40,202,88,1,fivesix,,,,,,,,,,,,,,,,,,,,,,,,,,,,,,,,,,,,,,,,,,,,,,,,,,,,,,,,,,,,,,,,,,,,,,,,,,,,,,,,,,,,,,,,,,,,,,,,,,,,,,,,,,,,,,,,,,,,,,,,,,,,,,,,,,,,,,,,,
,,5e02d4f7acd5cee30c9d49fa,2024-02-18_20h15.49.365,kallum_motion_pilot,2023.2.2,Win32,144.092219,5e02d4f7acd5cee30c9d49fa,65d2b6c8f2eece985d8e374c,65d2b9c0cf2bb0e35ac16fff,0.017,0.017,1,41,203,7,1,fourthree,,,,,,,,,,,,,,,,,,,,,,,,,,,,,,,,,,,,,,,,,,,,,,,,,,,,,,,,,,,,,,,,,,,,,,,,,,,,,,,,,,,,,,,,,,,,,,,,,,,,,,,,,,,,,,,,,,,,,,,,,,,,,,,,,,,,,,,,,
,,5e02d4f7acd5cee30c9d49fa,2024-02-18_20h15.49.365,kallum_motion_pilot,2023.2.2,Win32,144.092219,5e02d4f7acd5cee30c9d49fa,65d2b6c8f2eece985d8e374c,65d2b9c0cf2bb0e35ac16fff,0.017,0.017,1,42,204,40,1,onetwo,,,,,,,,,,,,,,,,,,,,,,,,,,,,,,,,,,,,,,,,,,,,,,,,,,,,,,,,,,,,,,,,,,,,,,,,,,,,,,,,,,,,,,,,,,,,,,,,,,,,,,,,,,,,,,,,,,,,,,,,,,,,,,,,,,,,,,,,,
,,5e02d4f7acd5cee30c9d49fa,2024-02-18_20h15.49.365,kallum_motion_pilot,2023.2.2,Win32,144.092219,5e02d4f7acd5cee30c9d49fa,65d2b6c8f2eece985d8e374c,65d2b9c0cf2bb0e35ac16fff,0.017,0.017,1,43,205,104,1,fivesix,,,,,,,,,,,,,,,,,,,,,,,,,,,,,,,,,,,,,,,,,,,,,,,,,,,,,,,,,,,,,,,,,,,,,,,,,,,,,,,,,,,,,,,,,,,,,,,,,,,,,,,,,,,,,,,,,,,,,,,,,,,,,,,,,,,,,,,,,
,,5e02d4f7acd5cee30c9d49fa,2024-02-18_20h15.49.365,kallum_motion_pilot,2023.2.2,Win32,144.092219,5e02d4f7acd5cee30c9d49fa,65d2b6c8f2eece985d8e374c,65d2b9c0cf2bb0e35ac16fff,0.017,0.017,1,44,206,151,1,eightseven,,,,,,,,,,,,,,,,,,,,,,,,,,,,,,,,,,,,,,,,,,,,,,,,,,,,,,,,,,,,,,,,,,,,,,,,,,,,,,,,,,,,,,,,,,,,,,,,,,,,,,,,,,,,,,,,,,,,,,,,,,,,,,,,,,,,,,,,,
,,5e02d4f7acd5cee30c9d49fa,2024-02-18_20h15.49.365,kallum_motion_pilot,2023.2.2,Win32,144.092219,5e02d4f7acd5cee30c9d49fa,65d2b6c8f2eece985d8e374c,65d2b9c0cf2bb0e35ac16fff,0.017,0.017,1,45,207,147,1,sixeight,,,,,,,,,,,,,,,,,,,,,,,,,,,,,,,,,,,,,,,,,,,,,,,,,,,,,,,,,,,,,,,,,,,,,,,,,,,,,,,,,,,,,,,,,,,,,,,,,,,,,,,,,,,,,,,,,,,,,,,,,,,,,,,,,,,,,,,,,
,,5e02d4f7acd5cee30c9d49fa,2024-02-18_20h15.49.365,kallum_motion_pilot,2023.2.2,Win32,144.092219,5e02d4f7acd5cee30c9d49fa,65d2b6c8f2eece985d8e374c,65d2b9c0cf2bb0e35ac16fff,0.017,0.017,1,46,208,69,1,threefour,,,,,,,,,,,,,,,,,,,,,,,,,,,,,,,,,,,,,,,,,,,,,,,,,,,,,,,,,,,,,,,,,,,,,,,,,,,,,,,,,,,,,,,,,,,,,,,,,,,,,,,,,,,,,,,,,,,,,,,,,,,,,,,,,,,,,,,,,
,,5e02d4f7acd5cee30c9d49fa,2024-02-18_20h15.49.365,kallum_motion_pilot,2023.2.2,Win32,144.092219,5e02d4f7acd5cee30c9d49fa,65d2b6c8f2eece985d8e374c,65d2b9c0cf2bb0e35ac16fff,0.017,0.017,1,47,209,86,1,eightsix,,,,,,,,,,,,,,,,,,,,,,,,,,,,,,,,,,,,,,,,,,,,,,,,,,,,,,,,,,,,,,,,,,,,,,,,,,,,,,,,,,,,,,,,,,,,,,,,,,,,,,,,,,,,,,,,,,,,,,,,,,,,,,,,,,,,,,,,,
,,5e02d4f7acd5cee30c9d49fa,2024-02-18_20h15.49.365,kallum_motion_pilot,2023.2.2,Win32,144.092219,5e02d4f7acd5cee30c9d49fa,65d2b6c8f2eece985d8e374c,65d2b9c0cf2bb0e35ac16fff,0.017,0.017,1,48,210,77,1,threefour,,,,,,,,,,,,,,,,,,,,,,,,,,,,,,,,,,,,,,,,,,,,,,,,,,,,,,,,,,,,,,,,,,,,,,,,,,,,,,,,,,,,,,,,,,,,,,,,,,,,,,,,,,,,,,,,,,,,,,,,,,,,,,,,,,,,,,,,,
,,5e02d4f7acd5cee30c9d49fa,2024-02-18_20h15.49.365,kallum_motion_pilot,2023.2.2,Win32,144.092219,5e02d4f7acd5cee30c9d49fa,65d2b6c8f2eece985d8e374c,65d2b9c0cf2bb0e35ac16fff,0.017,0.017,1,49,211,121,1,fiveseven,,,,,,,,,,,,,,,,,,,,,,,,,,,,,,,,,,,,,,,,,,,,,,,,,,,,,,,,,,,,,,,,,,,,,,,,,,,,,,,,,,,,,,,,,,,,,,,,,,,,,,,,,,,,,,,,,,,,,,,,,,,,,,,,,,,,,,,,,
,,5e02d4f7acd5cee30c9d49fa,2024-02-18_20h15.49.365,kallum_motion_pilot,2023.2.2,Win32,144.092219,5e02d4f7acd5cee30c9d49fa,65d2b6c8f2eece985d8e374c,65d2b9c0cf2bb0e35ac16fff,0.017,0.017,1,50,212,159,1,eightseven,,,,,,,,,,,,,,,,,,,,,,,,,,,,,,,,,,,,,,,,,,,,,,,,,,,,,,,,,,,,,,,,,,,,,,,,,,,,,,,,,,,,,,,,,,,,,,,,,,,,,,,,,,,,,,,,,,,,,,,,,,,,,,,,,,,,,,,,,
,,5e02d4f7acd5cee30c9d49fa,2024-02-18_20h15.49.365,kallum_motion_pilot,2023.2.2,Win32,144.092219,5e02d4f7acd5cee30c9d49fa,65d2b6c8f2eece985d8e374c,65d2b9c0cf2bb0e35ac16fff,0.017,0.017,1,51,213,66,1,twoone,,,,,,,,,,,,,,,,,,,,,,,,,,,,,,,,,,,,,,,,,,,,,,,,,,,,,,,,,,,,,,,,,,,,,,,,,,,,,,,,,,,,,,,,,,,,,,,,,,,,,,,,,,,,,,,,,,,,,,,,,,,,,,,,,,,,,,,,,
,,5e02d4f7acd5cee30c9d49fa,2024-02-18_20h15.49.365,kallum_motion_pilot,2023.2.2,Win32,144.092219,5e02d4f7acd5cee30c9d49fa,65d2b6c8f2eece985d8e374c,65d2b9c0cf2bb0e35ac16fff,0.017,0.017,1,52,214,28,1,threeone,,,,,,,,,,,,,,,,,,,,,,,,,,,,,,,,,,,,,,,,,,,,,,,,,,,,,,,,,,,,,,,,,,,,,,,,,,,,,,,,,,,,,,,,,,,,,,,,,,,,,,,,,,,,,,,,,,,,,,,,,,,,,,,,,,,,,,,,,
,,5e02d4f7acd5cee30c9d49fa,2024-02-18_20h15.49.365,kallum_motion_pilot,2023.2.2,Win32,144.092219,5e02d4f7acd5cee30c9d49fa,65d2b6c8f2eece985d8e374c,65d2b9c0cf2bb0e35ac16fff,0.017,0.017,1,53,215,137,1,fiveseven,,,,,,,,,,,,,,,,,,,,,,,,,,,,,,,,,,,,,,,,,,,,,,,,,,,,,,,,,,,,,,,,,,,,,,,,,,,,,,,,,,,,,,,,,,,,,,,,,,,,,,,,,,,,,,,,,,,,,,,,,,,,,,,,,,,,,,,,,
,,5e02d4f7acd5cee30c9d49fa,2024-02-18_20h15.49.365,kallum_motion_pilot,2023.2.2,Win32,144.092219,5e02d4f7acd5cee30c9d49fa,65d2b6c8f2eece985d8e374c,65d2b9c0cf2bb0e35ac16fff,0.017,0.017,1,54,216,119,1,eightseven,,,,,,,,,,,,,,,,,,,,,,,,,,,,,,,,,,,,,,,,,,,,,,,,,,,,,,,,,,,,,,,,,,,,,,,,,,,,,,,,,,,,,,,,,,,,,,,,,,,,,,,,,,,,,,,,,,,,,,,,,,,,,,,,,,,,,,,,,
,,5e02d4f7acd5cee30c9d49fa,2024-02-18_20h15.49.365,kallum_motion_pilot,2023.2.2,Win32,144.092219,5e02d4f7acd5cee30c9d49fa,65d2b6c8f2eece985d8e374c,65d2b9c0cf2bb0e35ac16fff,0.017,0.017,1,55,217,110,1,eightsix,,,,,,,,,,,,,,,,,,,,,,,,,,,,,,,,,,,,,,,,,,,,,,,,,,,,,,,,,,,,,,,,,,,,,,,,,,,,,,,,,,,,,,,,,,,,,,,,,,,,,,,,,,,,,,,,,,,,,,,,,,,,,,,,,,,,,,,,,
,,5e02d4f7acd5cee30c9d49fa,2024-02-18_20h15.49.365,kallum_motion_pilot,2023.2.2,Win32,144.092219,5e02d4f7acd5cee30c9d49fa,65d2b6c8f2eece985d8e374c,65d2b9c0cf2bb0e35ac16fff,0.017,0.017,1,56,218,111,1,eightseven,,,,,,,,,,,,,,,,,,,,,,,,,,,,,,,,,,,,,,,,,,,,,,,,,,,,,,,,,,,,,,,,,,,,,,,,,,,,,,,,,,,,,,,,,,,,,,,,,,,,,,,,,,,,,,,,,,,,,,,,,,,,,,,,,,,,,,,,,
,,5e02d4f7acd5cee30c9d49fa,2024-02-18_20h15.49.365,kallum_motion_pilot,2023.2.2,Win32,144.092219,5e02d4f7acd5cee30c9d49fa,65d2b6c8f2eece985d8e374c,65d2b9c0cf2bb0e35ac16fff,0.017,0.017,1,57,219,38,1,fourtwo,,,,,,,,,,,,,,,,,,,,,,,,,,,,,,,,,,,,,,,,,,,,,,,,,,,,,,,,,,,,,,,,,,,,,,,,,,,,,,,,,,,,,,,,,,,,,,,,,,,,,,,,,,,,,,,,,,,,,,,,,,,,,,,,,,,,,,,,,
,,5e02d4f7acd5cee30c9d49fa,2024-02-18_20h15.49.365,kallum_motion_pilot,2023.2.2,Win32,144.092219,5e02d4f7acd5cee30c9d49fa,65d2b6c8f2eece985d8e374c,65d2b9c0cf2bb0e35ac16fff,0.017,0.017,1,58,220,32,1,onetwo,,,,,,,,,,,,,,,,,,,,,,,,,,,,,,,,,,,,,,,,,,,,,,,,,,,,,,,,,,,,,,,,,,,,,,,,,,,,,,,,,,,,,,,,,,,,,,,,,,,,,,,,,,,,,,,,,,,,,,,,,,,,,,,,,,,,,,,,,
,,5e02d4f7acd5cee30c9d49fa,2024-02-18_20h15.49.365,kallum_motion_pilot,2023.2.2,Win32,144.092219,5e02d4f7acd5cee30c9d49fa,65d2b6c8f2eece985d8e374c,65d2b9c0cf2bb0e35ac16fff,0.017,0.017,1,59,221,124,1,sevenfive,,,,,,,,,,,,,,,,,,,,,,,,,,,,,,,,,,,,,,,,,,,,,,,,,,,,,,,,,,,,,,,,,,,,,,,,,,,,,,,,,,,,,,,,,,,,,,,,,,,,,,,,,,,,,,,,,,,,,,,,,,,,,,,,,,,,,,,,,
,,5e02d4f7acd5cee30c9d49fa,2024-02-18_20h15.49.365,kallum_motion_pilot,2023.2.2,Win32,144.092219,5e02d4f7acd5cee30c9d49fa,65d2b6c8f2eece985d8e374c,65d2b9c0cf2bb0e35ac16fff,0.017,0.017,1,60,222,85,1,seveneight,,,,,,,,,,,,,,,,,,,,,,,,,,,,,,,,,,,,,,,,,,,,,,,,,,,,,,,,,,,,,,,,,,,,,,,,,,,,,,,,,,,,,,,,,,,,,,,,,,,,,,,,,,,,,,,,,,,,,,,,,,,,,,,,,,,,,,,,,
,,5e02d4f7acd5cee30c9d49fa,2024-02-18_20h15.49.365,kallum_motion_pilot,2023.2.2,Win32,144.092219,5e02d4f7acd5cee30c9d49fa,65d2b6c8f2eece985d8e374c,65d2b9c0cf2bb0e35ac16fff,0.017,0.017,1,61,223,133,1,seveneight,,,,,,,,,,,,,,,,,,,,,,,,,,,,,,,,,,,,,,,,,,,,,,,,,,,,,,,,,,,,,,,,,,,,,,,,,,,,,,,,,,,,,,,,,,,,,,,,,,,,,,,,,,,,,,,,,,,,,,,,,,,,,,,,,,,,,,,,,
,,5e02d4f7acd5cee30c9d49fa,2024-02-18_20h15.49.365,kallum_motion_pilot,2023.2.2,Win32,144.092219,5e02d4f7acd5cee30c9d49fa,65d2b6c8f2eece985d8e374c,65d2b9c0cf2bb0e35ac16fff,0.017,0.017,1,62,224,61,1,threefour,,,,,,,,,,,,,,,,,,,,,,,,,,,,,,,,,,,,,,,,,,,,,,,,,,,,,,,,,,,,,,,,,,,,,,,,,,,,,,,,,,,,,,,,,,,,,,,,,,,,,,,,,,,,,,,,,,,,,,,,,,,,,,,,,,,,,,,,,
,,5e02d4f7acd5cee30c9d49fa,2024-02-18_20h15.49.365,kallum_motion_pilot,2023.2.2,Win32,144.092219,5e02d4f7acd5cee30c9d49fa,65d2b6c8f2eece985d8e374c,65d2b9c0cf2bb0e35ac16fff,0.017,0.017,1,63,225,148,1,sevenfive,,,,,,,,,,,,,,,,,,,,,,,,,,,,,,,,,,,,,,,,,,,,,,,,,,,,,,,,,,,,,,,,,,,,,,,,,,,,,,,,,,,,,,,,,,,,,,,,,,,,,,,,,,,,,,,,,,,,,,,,,,,,,,,,,,,,,,,,,
,,5e02d4f7acd5cee30c9d49fa,2024-02-18_20h15.49.365,kallum_motion_pilot,2023.2.2,Win32,144.092219,5e02d4f7acd5cee30c9d49fa,65d2b6c8f2eece985d8e374c,65d2b9c0cf2bb0e35ac16fff,0.017,0.017,1,64,226,18,1,twoone,,,,,,,,,,,,,,,,,,,,,,,,,,,,,,,,,,,,,,,,,,,,,,,,,,,,,,,,,,,,,,,,,,,,,,,,,,,,,,,,,,,,,,,,,,,,,,,,,,,,,,,,,,,,,,,,,,,,,,,,,,,,,,,,,,,,,,,,,
,,5e02d4f7acd5cee30c9d49fa,2024-02-18_20h15.49.365,kallum_motion_pilot,2023.2.2,Win32,144.092219,5e02d4f7acd5cee30c9d49fa,65d2b6c8f2eece985d8e374c,65d2b9c0cf2bb0e35ac16fff,0.017,0.017,1,65,227,78,1,fourtwo,,,,,,,,,,,,,,,,,,,,,,,,,,,,,,,,,,,,,,,,,,,,,,,,,,,,,,,,,,,,,,,,,,,,,,,,,,,,,,,,,,,,,,,,,,,,,,,,,,,,,,,,,,,,,,,,,,,,,,,,,,,,,,,,,,,,,,,,,
,,5e02d4f7acd5cee30c9d49fa,2024-02-18_20h15.49.365,kallum_motion_pilot,2023.2.2,Win32,144.092219,5e02d4f7acd5cee30c9d49fa,65d2b6c8f2eece985d8e374c,65d2b9c0cf2bb0e35ac16fff,0.017,0.017,1,66,228,76,1,threeone,,,,,,,,,,,,,,,,,,,,,,,,,,,,,,,,,,,,,,,,,,,,,,,,,,,,,,,,,,,,,,,,,,,,,,,,,,,,,,,,,,,,,,,,,,,,,,,,,,,,,,,,,,,,,,,,,,,,,,,,,,,,,,,,,,,,,,,,,
,,5e02d4f7acd5cee30c9d49fa,2024-02-18_20h15.49.365,kallum_motion_pilot,2023.2.2,Win32,144.092219,5e02d4f7acd5cee30c9d49fa,65d2b6c8f2eece985d8e374c,65d2b9c0cf2bb0e35ac16fff,0.017,0.017,1,67,229,120,1,fivesix,,,,,,,,,,,,,,,,,,,,,,,,,,,,,,,,,,,,,,,,,,,,,,,,,,,,,,,,,,,,,,,,,,,,,,,,,,,,,,,,,,,,,,,,,,,,,,,,,,,,,,,,,,,,,,,,,,,,,,,,,,,,,,,,,,,,,,,,,
,,5e02d4f7acd5cee30c9d49fa,2024-02-18_20h15.49.365,kallum_motion_pilot,2023.2.2,Win32,144.092219,5e02d4f7acd5cee30c9d49fa,65d2b6c8f2eece985d8e374c,65d2b9c0cf2bb0e35ac16fff,0.017,0.017,1,68,230,152,1,fivesix,,,,,,,,,,,,,,,,,,,,,,,,,,,,,,,,,,,,,,,,,,,,,,,,,,,,,,,,,,,,,,,,,,,,,,,,,,,,,,,,,,,,,,,,,,,,,,,,,,,,,,,,,,,,,,,,,,,,,,,,,,,,,,,,,,,,,,,,,
,,5e02d4f7acd5cee30c9d49fa,2024-02-18_20h15.49.365,kallum_motion_pilot,2023.2.2,Win32,144.092219,5e02d4f7acd5cee30c9d49fa,65d2b6c8f2eece985d8e374c,65d2b9c0cf2bb0e35ac16fff,0.017,0.017,1,69,231,34,1,twoone,,,,,,,,,,,,,,,,,,,,,,,,,,,,,,,,,,,,,,,,,,,,,,,,,,,,,,,,,,,,,,,,,,,,,,,,,,,,,,,,,,,,,,,,,,,,,,,,,,,,,,,,,,,,,,,,,,,,,,,,,,,,,,,,,,,,,,,,,
,,5e02d4f7acd5cee30c9d49fa,2024-02-18_20h15.49.365,kallum_motion_pilot,2023.2.2,Win32,144.092219,5e02d4f7acd5cee30c9d49fa,65d2b6c8f2eece985d8e374c,65d2b9c0cf2bb0e35ac16fff,0.017,0.017,1,70,232,53,1,threefour,,,,,,,,,,,,,,,,,,,,,,,,,,,,,,,,,,,,,,,,,,,,,,,,,,,,,,,,,,,,,,,,,,,,,,,,,,,,,,,,,,,,,,,,,,,,,,,,,,,,,,,,,,,,,,,,,,,,,,,,,,,,,,,,,,,,,,,,,
,,5e02d4f7acd5cee30c9d49fa,2024-02-18_20h15.49.365,kallum_motion_pilot,2023.2.2,Win32,144.092219,5e02d4f7acd5cee30c9d49fa,65d2b6c8f2eece985d8e374c,65d2b9c0cf2bb0e35ac16fff,0.017,0.017,1,71,233,155,1,sixeight,,,,,,,,,,,,,,,,,,,,,,,,,,,,,,,,,,,,,,,,,,,,,,,,,,,,,,,,,,,,,,,,,,,,,,,,,,,,,,,,,,,,,,,,,,,,,,,,,,,,,,,,,,,,,,,,,,,,,,,,,,,,,,,,,,,,,,,,,
,,5e02d4f7acd5cee30c9d49fa,2024-02-18_20h15.49.365,kallum_motion_pilot,2023.2.2,Win32,144.092219,5e02d4f7acd5cee30c9d49fa,65d2b6c8f2eece985d8e374c,65d2b9c0cf2bb0e35ac16fff,0.017,0.017,1,72,234,150,1,eightsix,,,,,,,,,,,,,,,,,,,,,,,,,,,,,,,,,,,,,,,,,,,,,,,,,,,,,,,,,,,,,,,,,,,,,,,,,,,,,,,,,,,,,,,,,,,,,,,,,,,,,,,,,,,,,,,,,,,,,,,,,,,,,,,,,,,,,,,,,
,,5e02d4f7acd5cee30c9d49fa,2024-02-18_20h15.49.365,kallum_motion_pilot,2023.2.2,Win32,144.092219,5e02d4f7acd5cee30c9d49fa,65d2b6c8f2eece985d8e374c,65d2b9c0cf2bb0e35ac16fff,0.017,0.017,1,73,235,135,1,eightseven,,,,,,,,,,,,,,,,,,,,,,,,,,,,,,,,,,,,,,,,,,,,,,,,,,,,,,,,,,,,,,,,,,,,,,,,,,,,,,,,,,,,,,,,,,,,,,,,,,,,,,,,,,,,,,,,,,,,,,,,,,,,,,,,,,,,,,,,,
,,5e02d4f7acd5cee30c9d49fa,2024-02-18_20h15.49.365,kallum_motion_pilot,2023.2.2,Win32,144.092219,5e02d4f7acd5cee30c9d49fa,65d2b6c8f2eece985d8e374c,65d2b9c0cf2bb0e35ac16fff,0.017,0.017,1,74,236,105,1,fiveseven,,,,,,,,,,,,,,,,,,,,,,,,,,,,,,,,,,,,,,,,,,,,,,,,,,,,,,,,,,,,,,,,,,,,,,,,,,,,,,,,,,,,,,,,,,,,,,,,,,,,,,,,,,,,,,,,,,,,,,,,,,,,,,,,,,,,,,,,,
,,5e02d4f7acd5cee30c9d49fa,2024-02-18_20h15.49.365,kallum_motion_pilot,2023.2.2,Win32,144.092219,5e02d4f7acd5cee30c9d49fa,65d2b6c8f2eece985d8e374c,65d2b9c0cf2bb0e35ac16fff,0.018,0.018,1,75,237,71,1,fourthree,,,,,,,,,,,,,,,,,,,,,,,,,,,,,,,,,,,,,,,,,,,,,,,,,,,,,,,,,,,,,,,,,,,,,,,,,,,,,,,,,,,,,,,,,,,,,,,,,,,,,,,,,,,,,,,,,,,,,,,,,,,,,,,,,,,,,,,,,
,,5e02d4f7acd5cee30c9d49fa,2024-02-18_20h15.49.365,kallum_motion_pilot,2023.2.2,Win32,144.092219,5e02d4f7acd5cee30c9d49fa,65d2b6c8f2eece985d8e374c,65d2b9c0cf2bb0e35ac16fff,0.018,0.018,1,76,238,39,1,fourthree,,,,,,,,,,,,,,,,,,,,,,,,,,,,,,,,,,,,,,,,,,,,,,,,,,,,,,,,,,,,,,,,,,,,,,,,,,,,,,,,,,,,,,,,,,,,,,,,,,,,,,,,,,,,,,,,,,,,,,,,,,,,,,,,,,,,,,,,,
,,5e02d4f7acd5cee30c9d49fa,2024-02-18_20h15.49.365,kallum_motion_pilot,2023.2.2,Win32,144.092219,5e02d4f7acd5cee30c9d49fa,65d2b6c8f2eece985d8e374c,65d2b9c0cf2bb0e35ac16fff,0.018,0.018,1,77,239,92,1,sevenfive,,,,,,,,,,,,,,,,,,,,,,,,,,,,,,,,,,,,,,,,,,,,,,,,,,,,,,,,,,,,,,,,,,,,,,,,,,,,,,,,,,,,,,,,,,,,,,,,,,,,,,,,,,,,,,,,,,,,,,,,,,,,,,,,,,,,,,,,,
,,5e02d4f7acd5cee30c9d49fa,2024-02-18_20h15.49.365,kallum_motion_pilot,2023.2.2,Win32,144.092219,5e02d4f7acd5cee30c9d49fa,65d2b6c8f2eece985d8e374c,65d2b9c0cf2bb0e35ac16fff,0.018,0.018,1,78,240,22,1,fourtwo,,,,,,,,,,,,,,,,,,,,,,,,,,,,,,,,,,,,,,,,,,,,,,,,,,,,,,,,,,,,,,,,,,,,,,,,,,,,,,,,,,,,,,,,,,,,,,,,,,,,,,,,,,,,,,,,,,,,,,,,,,,,,,,,,,,,,,,,,
,,5e02d4f7acd5cee30c9d49fa,2024-02-18_20h15.49.365,kallum_motion_pilot,2023.2.2,Win32,144.092219,5e02d4f7acd5cee30c9d49fa,65d2b6c8f2eece985d8e374c,65d2b9c0cf2bb0e35ac16fff,0.018,0.018,1,79,241,100,1,sevenfive,,,,,,,,,,,,,,,,,,,,,,,,,,,,,,,,,,,,,,,,,,,,,,,,,,,,,,,,,,,,,,,,,,,,,,,,,,,,,,,,,,,,,,,,,,,,,,,,,,,,,,,,,,,,,,,,,,,,,,,,,,,,,,,,,,,,,,,,,
,,5e02d4f7acd5cee30c9d49fa,2024-02-18_20h15.49.365,kallum_motion_pilot,2023.2.2,Win32,144.092219,5e02d4f7acd5cee30c9d49fa,65d2b6c8f2eece985d8e374c,65d2b9c0cf2bb0e35ac16fff,0.018,0.018,1,80,242,24,1,onetwo,,,,,,,,,,,,,,,,,,,,,,,,,,,,,,,,,,,,,,,,,,,,,,,,,,,,,,,,,,,,,,,,,,,,,,,,,,,,,,,,,,,,,,,,,,,,,,,,,,,,,,,,,,,,,,,,,,,,,,,,,,,,,,,,,,,,,,,,,
,,5e02d4f7acd5cee30c9d49fa,2024-02-18_20h15.49.365,kallum_motion_pilot,2023.2.2,Win32,144.092219,5e02d4f7acd5cee30c9d49fa,65d2b6c8f2eece985d8e374c,65d2b9c0cf2bb0e35ac16fff,0.018,0.018,1,81,243,67,1,twofour,,,,,,,,,,,,,,,,,,,,,,,,,,,,,,,,,,,,,,,,,,,,,,,,,,,,,,,,,,,,,,,,,,,,,,,,,,,,,,,,,,,,,,,,,,,,,,,,,,,,,,,,,,,,,,,,,,,,,,,,,,,,,,,,,,,,,,,,,
,,5e02d4f7acd5cee30c9d49fa,2024-02-18_20h15.49.365,kallum_motion_pilot,2023.2.2,Win32,144.092219,5e02d4f7acd5cee30c9d49fa,65d2b6c8f2eece985d8e374c,65d2b9c0cf2bb0e35ac16fff,0.018,0.018,1,82,244,99,1,sixeight,,,,,,,,,,,,,,,,,,,,,,,,,,,,,,,,,,,,,,,,,,,,,,,,,,,,,,,,,,,,,,,,,,,,,,,,,,,,,,,,,,,,,,,,,,,,,,,,,,,,,,,,,,,,,,,,,,,,,,,,,,,,,,,,,,,,,,,,,
,,5e02d4f7acd5cee30c9d49fa,2024-02-18_20h15.49.365,kallum_motion_pilot,2023.2.2,Win32,144.092219,5e02d4f7acd5cee30c9d49fa,65d2b6c8f2eece985d8e374c,65d2b9c0cf2bb0e35ac16fff,0.018,0.018,1,83,245,139,1,sixeight,,,,,,,,,,,,,,,,,,,,,,,,,,,,,,,,,,,,,,,,,,,,,,,,,,,,,,,,,,,,,,,,,,,,,,,,,,,,,,,,,,,,,,,,,,,,,,,,,,,,,,,,,,,,,,,,,,,,,,,,,,,,,,,,,,,,,,,,,
,,5e02d4f7acd5cee30c9d49fa,2024-02-18_20h15.49.365,kallum_motion_pilot,2023.2.2,Win32,144.092219,5e02d4f7acd5cee30c9d49fa,65d2b6c8f2eece985d8e374c,65d2b9c0cf2bb0e35ac16fff,0.018,0.018,1,84,246,131,1,sixeight,,,,,,,,,,,,,,,,,,,,,,,,,,,,,,,,,,,,,,,,,,,,,,,,,,,,,,,,,,,,,,,,,,,,,,,,,,,,,,,,,,,,,,,,,,,,,,,,,,,,,,,,,,,,,,,,,,,,,,,,,,,,,,,,,,,,,,,,,
,,5e02d4f7acd5cee30c9d49fa,2024-02-18_20h15.49.365,kallum_motion_pilot,2023.2.2,Win32,144.092219,5e02d4f7acd5cee30c9d49fa,65d2b6c8f2eece985d8e374c,65d2b9c0cf2bb0e35ac16fff,0.018,0.018,1,85,247,93,1,seveneight,,,,,,,,,,,,,,,,,,,,,,,,,,,,,,,,,,,,,,,,,,,,,,,,,,,,,,,,,,,,,,,,,,,,,,,,,,,,,,,,,,,,,,,,,,,,,,,,,,,,,,,,,,,,,,,,,,,,,,,,,,,,,,,,,,,,,,,,,
,,5e02d4f7acd5cee30c9d49fa,2024-02-18_20h15.49.365,kallum_motion_pilot,2023.2.2,Win32,144.092219,5e02d4f7acd5cee30c9d49fa,65d2b6c8f2eece985d8e374c,65d2b9c0cf2bb0e35ac16fff,0.018,0.018,1,86,248,23,1,fourthree,,,,,,,,,,,,,,,,,,,,,,,,,,,,,,,,,,,,,,,,,,,,,,,,,,,,,,,,,,,,,,,,,,,,,,,,,,,,,,,,,,,,,,,,,,,,,,,,,,,,,,,,,,,,,,,,,,,,,,,,,,,,,,,,,,,,,,,,,
,,5e02d4f7acd5cee30c9d49fa,2024-02-18_20h15.49.365,kallum_motion_pilot,2023.2.2,Win32,144.092219,5e02d4f7acd5cee30c9d49fa,65d2b6c8f2eece985d8e374c,65d2b9c0cf2bb0e35ac16fff,0.018,0.018,1,87,249,138,1,sixfive,,,,,,,,,,,,,,,,,,,,,,,,,,,,,,,,,,,,,,,,,,,,,,,,,,,,,,,,,,,,,,,,,,,,,,,,,,,,,,,,,,,,,,,,,,,,,,,,,,,,,,,,,,,,,,,,,,,,,,,,,,,,,,,,,,,,,,,,,
,,5e02d4f7acd5cee30c9d49fa,2024-02-18_20h15.49.365,kallum_motion_pilot,2023.2.2,Win32,144.092219,5e02d4f7acd5cee30c9d49fa,65d2b6c8f2eece985d8e374c,65d2b9c0cf2bb0e35ac16fff,0.018,0.018,1,88,250,45,1,threefour,,,,,,,,,,,,,,,,,,,,,,,,,,,,,,,,,,,,,,,,,,,,,,,,,,,,,,,,,,,,,,,,,,,,,,,,,,,,,,,,,,,,,,,,,,,,,,,,,,,,,,,,,,,,,,,,,,,,,,,,,,,,,,,,,,,,,,,,,
,,5e02d4f7acd5cee30c9d49fa,2024-02-18_20h15.49.365,kallum_motion_pilot,2023.2.2,Win32,144.092219,5e02d4f7acd5cee30c9d49fa,65d2b6c8f2eece985d8e374c,65d2b9c0cf2bb0e35ac16fff,0.018,0.018,1,89,251,140,1,sevenfive,,,,,,,,,,,,,,,,,,,,,,,,,,,,,,,,,,,,,,,,,,,,,,,,,,,,,,,,,,,,,,,,,,,,,,,,,,,,,,,,,,,,,,,,,,,,,,,,,,,,,,,,,,,,,,,,,,,,,,,,,,,,,,,,,,,,,,,,,
,,5e02d4f7acd5cee30c9d49fa,2024-02-18_20h15.49.365,kallum_motion_pilot,2023.2.2,Win32,144.092219,5e02d4f7acd5cee30c9d49fa,65d2b6c8f2eece985d8e374c,65d2b9c0cf2bb0e35ac16fff,0.018,0.018,1,90,252,16,1,onetwo,,,,,,,,,,,,,,,,,,,,,,,,,,,,,,,,,,,,,,,,,,,,,,,,,,,,,,,,,,,,,,,,,,,,,,,,,,,,,,,,,,,,,,,,,,,,,,,,,,,,,,,,,,,,,,,,,,,,,,,,,,,,,,,,,,,,,,,,,
,,5e02d4f7acd5cee30c9d49fa,2024-02-18_20h15.49.365,kallum_motion_pilot,2023.2.2,Win32,144.092219,5e02d4f7acd5cee30c9d49fa,65d2b6c8f2eece985d8e374c,65d2b9c0cf2bb0e35ac16fff,0.018,0.018,1,91,253,4,1,threeone,,,,,,,,,,,,,,,,,,,,,,,,,,,,,,,,,,,,,,,,,,,,,,,,,,,,,,,,,,,,,,,,,,,,,,,,,,,,,,,,,,,,,,,,,,,,,,,,,,,,,,,,,,,,,,,,,,,,,,,,,,,,,,,,,,,,,,,,,
,,5e02d4f7acd5cee30c9d49fa,2024-02-18_20h15.49.365,kallum_motion_pilot,2023.2.2,Win32,144.092219,5e02d4f7acd5cee30c9d49fa,65d2b6c8f2eece985d8e374c,65d2b9c0cf2bb0e35ac16fff,0.018,0.018,1,92,254,101,1,seveneight,,,,,,,,,,,,,,,,,,,,,,,,,,,,,,,,,,,,,,,,,,,,,,,,,,,,,,,,,,,,,,,,,,,,,,,,,,,,,,,,,,,,,,,,,,,,,,,,,,,,,,,,,,,,,,,,,,,,,,,,,,,,,,,,,,,,,,,,,
,,5e02d4f7acd5cee30c9d49fa,2024-02-18_20h15.49.365,kallum_motion_pilot,2023.2.2,Win32,144.092219,5e02d4f7acd5cee30c9d49fa,65d2b6c8f2eece985d8e374c,65d2b9c0cf2bb0e35ac16fff,0.018,0.018,1,93,255,122,1,sixfive,,,,,,,,,,,,,,,,,,,,,,,,,,,,,,,,,,,,,,,,,,,,,,,,,,,,,,,,,,,,,,,,,,,,,,,,,,,,,,,,,,,,,,,,,,,,,,,,,,,,,,,,,,,,,,,,,,,,,,,,,,,,,,,,,,,,,,,,,
,,5e02d4f7acd5cee30c9d49fa,2024-02-18_20h15.49.365,kallum_motion_pilot,2023.2.2,Win32,144.092219,5e02d4f7acd5cee30c9d49fa,65d2b6c8f2eece985d8e374c,65d2b9c0cf2bb0e35ac16fff,0.018,0.018,1,94,256,55,1,fourthree,,,,,,,,,,,,,,,,,,,,,,,,,,,,,,,,,,,,,,,,,,,,,,,,,,,,,,,,,,,,,,,,,,,,,,,,,,,,,,,,,,,,,,,,,,,,,,,,,,,,,,,,,,,,,,,,,,,,,,,,,,,,,,,,,,,,,,,,,
,,5e02d4f7acd5cee30c9d49fa,2024-02-18_20h15.49.365,kallum_motion_pilot,2023.2.2,Win32,144.092219,5e02d4f7acd5cee30c9d49fa,65d2b6c8f2eece985d8e374c,65d2b9c0cf2bb0e35ac16fff,0.018,0.018,1,95,257,95,1,eightseven,,,,,,,,,,,,,,,,,,,,,,,,,,,,,,,,,,,,,,,,,,,,,,,,,,,,,,,,,,,,,,,,,,,,,,,,,,,,,,,,,,,,,,,,,,,,,,,,,,,,,,,,,,,,,,,,,,,,,,,,,,,,,,,,,,,,,,,,,
,,5e02d4f7acd5cee30c9d49fa,2024-02-18_20h15.49.365,kallum_motion_pilot,2023.2.2,Win32,144.092219,5e02d4f7acd5cee30c9d49fa,65d2b6c8f2eece985d8e374c,65d2b9c0cf2bb0e35ac16fff,0.018,0.018,1,96,258,79,1,eightseven,,,,,,,,,,,,,,,,,,,,,,,,,,,,,,,,,,,,,,,,,,,,,,,,,,,,,,,,,,,,,,,,,,,,,,,,,,,,,,,,,,,,,,,,,,,,,,,,,,,,,,,,,,,,,,,,,,,,,,,,,,,,,,,,,,,,,,,,,
,,5e02d4f7acd5cee30c9d49fa,2024-02-18_20h15.49.365,kallum_motion_pilot,2023.2.2,Win32,144.092219,5e02d4f7acd5cee30c9d49fa,65d2b6c8f2eece985d8e374c,65d2b9c0cf2bb0e35ac16fff,0.018,0.018,1,97,259,8,1,onetwo,,,,,,,,,,,,,,,,,,,,,,,,,,,,,,,,,,,,,,,,,,,,,,,,,,,,,,,,,,,,,,,,,,,,,,,,,,,,,,,,,,,,,,,,,,,,,,,,,,,,,,,,,,,,,,,,,,,,,,,,,,,,,,,,,,,,,,,,,
,,5e02d4f7acd5cee30c9d49fa,2024-02-18_20h15.49.365,kallum_motion_pilot,2023.2.2,Win32,144.092219,5e02d4f7acd5cee30c9d49fa,65d2b6c8f2eece985d8e374c,65d2b9c0cf2bb0e35ac16fff,0.018,0.018,1,98,260,70,1,fourtwo,,,,,,,,,,,,,,,,,,,,,,,,,,,,,,,,,,,,,,,,,,,,,,,,,,,,,,,,,,,,,,,,,,,,,,,,,,,,,,,,,,,,,,,,,,,,,,,,,,,,,,,,,,,,,,,,,,,,,,,,,,,,,,,,,,,,,,,,,
,,5e02d4f7acd5cee30c9d49fa,2024-02-18_20h15.49.365,kallum_motion_pilot,2023.2.2,Win32,144.092219,5e02d4f7acd5cee30c9d49fa,65d2b6c8f2eece985d8e374c,65d2b9c0cf2bb0e35ac16fff,0.018,0.018,1,99,261,51,1,twofour,,,,,,,,,,,,,,,,,,,,,,,,,,,,,,,,,,,,,,,,,,,,,,,,,,,,,,,,,,,,,,,,,,,,,,,,,,,,,,,,,,,,,,,,,,,,,,,,,,,,,,,,,,,,,,,,,,,,,,,,,,,,,,,,,,,,,,,,,
,,5e02d4f7acd5cee30c9d49fa,2024-02-18_20h15.49.365,kallum_motion_pilot,2023.2.2,Win32,144.092219,5e02d4f7acd5cee30c9d49fa,65d2b6c8f2eece985d8e374c,65d2b9c0cf2bb0e35ac16fff,0.018,0.018,1,100,262,127,1,eightseven,,,,,,,,,,,,,,,,,,,,,,,,,,,,,,,,,,,,,,,,,,,,,,,,,,,,,,,,,,,,,,,,,,,,,,,,,,,,,,,,,,,,,,,,,,,,,,,,,,,,,,,,,,,,,,,,,,,,,,,,,,,,,,,,,,,,,,,,,
,,5e02d4f7acd5cee30c9d49fa,2024-02-18_20h15.49.365,kallum_motion_pilot,2023.2.2,Win32,144.092219,5e02d4f7acd5cee30c9d49fa,65d2b6c8f2eece985d8e374c,65d2b9c0cf2bb0e35ac16fff,0.018,0.018,1,101,263,80,1,fivesix,,,,,,,,,,,,,,,,,,,,,,,,,,,,,,,,,,,,,,,,,,,,,,,,,,,,,,,,,,,,,,,,,,,,,,,,,,,,,,,,,,,,,,,,,,,,,,,,,,,,,,,,,,,,,,,,,,,,,,,,,,,,,,,,,,,,,,,,,
,,5e02d4f7acd5cee30c9d49fa,2024-02-18_20h15.49.365,kallum_motion_pilot,2023.2.2,Win32,144.092219,5e02d4f7acd5cee30c9d49fa,65d2b6c8f2eece985d8e374c,65d2b9c0cf2bb0e35ac16fff,0.018,0.018,1,102,264,73,1,onethree,,,,,,,,,,,,,,,,,,,,,,,,,,,,,,,,,,,,,,,,,,,,,,,,,,,,,,,,,,,,,,,,,,,,,,,,,,,,,,,,,,,,,,,,,,,,,,,,,,,,,,,,,,,,,,,,,,,,,,,,,,,,,,,,,,,,,,,,,
,,5e02d4f7acd5cee30c9d49fa,2024-02-18_20h15.49.365,kallum_motion_pilot,2023.2.2,Win32,144.092219,5e02d4f7acd5cee30c9d49fa,65d2b6c8f2eece985d8e374c,65d2b9c0cf2bb0e35ac16fff,0.018,0.018,1,103,265,36,1,threeone,,,,,,,,,,,,,,,,,,,,,,,,,,,,,,,,,,,,,,,,,,,,,,,,,,,,,,,,,,,,,,,,,,,,,,,,,,,,,,,,,,,,,,,,,,,,,,,,,,,,,,,,,,,,,,,,,,,,,,,,,,,,,,,,,,,,,,,,,
,,5e02d4f7acd5cee30c9d49fa,2024-02-18_20h15.49.365,kallum_motion_pilot,2023.2.2,Win32,144.092219,5e02d4f7acd5cee30c9d49fa,65d2b6c8f2eece985d8e374c,65d2b9c0cf2bb0e35ac16fff,0.018,0.018,1,104,266,158,1,eightsix,,,,,,,,,,,,,,,,,,,,,,,,,,,,,,,,,,,,,,,,,,,,,,,,,,,,,,,,,,,,,,,,,,,,,,,,,,,,,,,,,,,,,,,,,,,,,,,,,,,,,,,,,,,,,,,,,,,,,,,,,,,,,,,,,,,,,,,,,
,,5e02d4f7acd5cee30c9d49fa,2024-02-18_20h15.49.365,kallum_motion_pilot,2023.2.2,Win32,144.092219,5e02d4f7acd5cee30c9d49fa,65d2b6c8f2eece985d8e374c,65d2b9c0cf2bb0e35ac16fff,0.018,0.018,1,105,267,13,1,threefour,,,,,,,,,,,,,,,,,,,,,,,,,,,,,,,,,,,,,,,,,,,,,,,,,,,,,,,,,,,,,,,,,,,,,,,,,,,,,,,,,,,,,,,,,,,,,,,,,,,,,,,,,,,,,,,,,,,,,,,,,,,,,,,,,,,,,,,,,
,,5e02d4f7acd5cee30c9d49fa,2024-02-18_20h15.49.365,kallum_motion_pilot,2023.2.2,Win32,144.092219,5e02d4f7acd5cee30c9d49fa,65d2b6c8f2eece985d8e374c,65d2b9c0cf2bb0e35ac16fff,0.018,0.018,1,106,268,112,1,fivesix,,,,,,,,,,,,,,,,,,,,,,,,,,,,,,,,,,,,,,,,,,,,,,,,,,,,,,,,,,,,,,,,,,,,,,,,,,,,,,,,,,,,,,,,,,,,,,,,,,,,,,,,,,,,,,,,,,,,,,,,,,,,,,,,,,,,,,,,,
,,5e02d4f7acd5cee30c9d49fa,2024-02-18_20h15.49.365,kallum_motion_pilot,2023.2.2,Win32,144.092219,5e02d4f7acd5cee30c9d49fa,65d2b6c8f2eece985d8e374c,65d2b9c0cf2bb0e35ac16fff,0.018,0.018,1,107,269,35,1,twofour,,,,,,,,,,,,,,,,,,,,,,,,,,,,,,,,,,,,,,,,,,,,,,,,,,,,,,,,,,,,,,,,,,,,,,,,,,,,,,,,,,,,,,,,,,,,,,,,,,,,,,,,,,,,,,,,,,,,,,,,,,,,,,,,,,,,,,,,,
,,5e02d4f7acd5cee30c9d49fa,2024-02-18_20h15.49.365,kallum_motion_pilot,2023.2.2,Win32,144.092219,5e02d4f7acd5cee30c9d49fa,65d2b6c8f2eece985d8e374c,65d2b9c0cf2bb0e35ac16fff,0.018,0.018,1,108,270,116,1,sevenfive,,,,,,,,,,,,,,,,,,,,,,,,,,,,,,,,,,,,,,,,,,,,,,,,,,,,,,,,,,,,,,,,,,,,,,,,,,,,,,,,,,,,,,,,,,,,,,,,,,,,,,,,,,,,,,,,,,,,,,,,,,,,,,,,,,,,,,,,,
,,5e02d4f7acd5cee30c9d49fa,2024-02-18_20h15.49.365,kallum_motion_pilot,2023.2.2,Win32,144.092219,5e02d4f7acd5cee30c9d49fa,65d2b6c8f2eece985d8e374c,65d2b9c0cf2bb0e35ac16fff,0.019,0.019,1,109,271,5,1,threefour,,,,,,,,,,,,,,,,,,,,,,,,,,,,,,,,,,,,,,,,,,,,,,,,,,,,,,,,,,,,,,,,,,,,,,,,,,,,,,,,,,,,,,,,,,,,,,,,,,,,,,,,,,,,,,,,,,,,,,,,,,,,,,,,,,,,,,,,,
,,5e02d4f7acd5cee30c9d49fa,2024-02-18_20h15.49.365,kallum_motion_pilot,2023.2.2,Win32,144.092219,5e02d4f7acd5cee30c9d49fa,65d2b6c8f2eece985d8e374c,65d2b9c0cf2bb0e35ac16fff,0.019,0.019,1,110,272,103,1,eightseven,,,,,,,,,,,,,,,,,,,,,,,,,,,,,,,,,,,,,,,,,,,,,,,,,,,,,,,,,,,,,,,,,,,,,,,,,,,,,,,,,,,,,,,,,,,,,,,,,,,,,,,,,,,,,,,,,,,,,,,,,,,,,,,,,,,,,,,,,
,,5e02d4f7acd5cee30c9d49fa,2024-02-18_20h15.49.365,kallum_motion_pilot,2023.2.2,Win32,144.092219,5e02d4f7acd5cee30c9d49fa,65d2b6c8f2eece985d8e374c,65d2b9c0cf2bb0e35ac16fff,0.019,0.019,1,111,273,123,1,sixeight,,,,,,,,,,,,,,,,,,,,,,,,,,,,,,,,,,,,,,,,,,,,,,,,,,,,,,,,,,,,,,,,,,,,,,,,,,,,,,,,,,,,,,,,,,,,,,,,,,,,,,,,,,,,,,,,,,,,,,,,,,,,,,,,,,,,,,,,,
,,5e02d4f7acd5cee30c9d49fa,2024-02-18_20h15.49.365,kallum_motion_pilot,2023.2.2,Win32,144.092219,5e02d4f7acd5cee30c9d49fa,65d2b6c8f2eece985d8e374c,65d2b9c0cf2bb0e35ac16fff,0.019,0.019,1,112,274,72,1,onetwo,,,,,,,,,,,,,,,,,,,,,,,,,,,,,,,,,,,,,,,,,,,,,,,,,,,,,,,,,,,,,,,,,,,,,,,,,,,,,,,,,,,,,,,,,,,,,,,,,,,,,,,,,,,,,,,,,,,,,,,,,,,,,,,,,,,,,,,,,
,,5e02d4f7acd5cee30c9d49fa,2024-02-18_20h15.49.365,kallum_motion_pilot,2023.2.2,Win32,144.092219,5e02d4f7acd5cee30c9d49fa,65d2b6c8f2eece985d8e374c,65d2b9c0cf2bb0e35ac16fff,0.019,0.019,1,113,275,98,1,sixfive,,,,,,,,,,,,,,,,,,,,,,,,,,,,,,,,,,,,,,,,,,,,,,,,,,,,,,,,,,,,,,,,,,,,,,,,,,,,,,,,,,,,,,,,,,,,,,,,,,,,,,,,,,,,,,,,,,,,,,,,,,,,,,,,,,,,,,,,,
,,5e02d4f7acd5cee30c9d49fa,2024-02-18_20h15.49.365,kallum_motion_pilot,2023.2.2,Win32,144.092219,5e02d4f7acd5cee30c9d49fa,65d2b6c8f2eece985d8e374c,65d2b9c0cf2bb0e35ac16fff,0.019,0.019,1,114,276,63,1,fourthree,,,,,,,,,,,,,,,,,,,,,,,,,,,,,,,,,,,,,,,,,,,,,,,,,,,,,,,,,,,,,,,,,,,,,,,,,,,,,,,,,,,,,,,,,,,,,,,,,,,,,,,,,,,,,,,,,,,,,,,,,,,,,,,,,,,,,,,,,
,,5e02d4f7acd5cee30c9d49fa,2024-02-18_20h15.49.365,kallum_motion_pilot,2023.2.2,Win32,144.092219,5e02d4f7acd5cee30c9d49fa,65d2b6c8f2eece985d8e374c,65d2b9c0cf2bb0e35ac16fff,0.019,0.019,1,115,277,12,1,threeone,,,,,,,,,,,,,,,,,,,,,,,,,,,,,,,,,,,,,,,,,,,,,,,,,,,,,,,,,,,,,,,,,,,,,,,,,,,,,,,,,,,,,,,,,,,,,,,,,,,,,,,,,,,,,,,,,,,,,,,,,,,,,,,,,,,,,,,,,
,,5e02d4f7acd5cee30c9d49fa,2024-02-18_20h15.49.365,kallum_motion_pilot,2023.2.2,Win32,144.092219,5e02d4f7acd5cee30c9d49fa,65d2b6c8f2eece985d8e374c,65d2b9c0cf2bb0e35ac16fff,0.019,0.019,1,116,278,90,1,sixfive,,,,,,,,,,,,,,,,,,,,,,,,,,,,,,,,,,,,,,,,,,,,,,,,,,,,,,,,,,,,,,,,,,,,,,,,,,,,,,,,,,,,,,,,,,,,,,,,,,,,,,,,,,,,,,,,,,,,,,,,,,,,,,,,,,,,,,,,,
,,5e02d4f7acd5cee30c9d49fa,2024-02-18_20h15.49.365,kallum_motion_pilot,2023.2.2,Win32,144.092219,5e02d4f7acd5cee30c9d49fa,65d2b6c8f2eece985d8e374c,65d2b9c0cf2bb0e35ac16fff,0.019,0.019,1,117,279,30,1,fourtwo,,,,,,,,,,,,,,,,,,,,,,,,,,,,,,,,,,,,,,,,,,,,,,,,,,,,,,,,,,,,,,,,,,,,,,,,,,,,,,,,,,,,,,,,,,,,,,,,,,,,,,,,,,,,,,,,,,,,,,,,,,,,,,,,,,,,,,,,,
