startup.started,startup.stopped,Prolific ID*,date,expName,psychopyVersion,OS,frameRate,participant,study_id,session,stimpositions.started,stimpositions.stopped,hardcoded_stimulus_positions.thisRepN,hardcoded_stimulus_positions.thisTrialN,hardcoded_stimulus_positions.thisN,hardcoded_stimulus_positions.thisIndex,hardcoded_stimulus_positions.ran,StimulusPos,stimorientation.started,stimorientation.stopped,prac_stimorientation_import_loop.thisRepN,prac_stimorientation_import_loop.thisTrialN,prac_stimorientation_import_loop.thisN,prac_stimorientation_import_loop.thisIndex,prac_stimorientation_import_loop.ran,Stimorientation,welcome_instr.started,welcome_instr.stopped,key_resp.keys,key_resp.rt,key_resp.duration,response_steppedout_1.started,response_steppedout_1.stopped,key_resp_20.keys,key_resp_20.rt,key_resp_20.duration,response_steppedout_2.started,response_steppedout_2.stopped,key_resp_19.keys,key_resp_19.rt,key_resp_19.duration,stim_response_instr.started,stim_response_instr.stopped,key_resp_15.keys,key_resp_15.rt,key_resp_15.duration,direction_instr_2.started,direction_instr_2.stopped,key_resp_9.keys,key_resp_9.rt,key_resp_9.duration,instr_prac.started,instr_prac.stopped,key_resp_10.keys,key_resp_10.rt,key_resp_10.duration,Stim1_display_prac.started,Stim1_display_prac.stopped,Ecc,Circle1_ori,Circle2_ori,response_prac.started,similarity,response_time,response_prac.stopped,mouse_5.x,mouse_5.y,mouse_5.leftButton,mouse_5.midButton,mouse_5.rightButton,mouse_5.clicked_name,responseprac_feedback.started,responseprac_feedback.stopped,summary2_prac.started,summary2_prac.stopped,mouse_6.x,mouse_6.y,mouse_6.leftButton,mouse_6.midButton,mouse_6.rightButton,mouse_6.clicked_name,duringprac.thisRepN,duringprac.thisTrialN,duringprac.thisN,duringprac.thisIndex,duringprac.ran,begin.started,begin.stopped,key_resp_22.keys,key_resp_22.rt,key_resp_22.duration,Stim1_display.started,Stim1_display.stopped,circle1_ori,circle2_ori,circle1_SF,circle2_SF,response.started,response.stopped,mouse.x,mouse.y,mouse.leftButton,mouse.midButton,mouse.rightButton,mouse.clicked_name,trialnumber,double_pass.thisRepN,double_pass.thisTrialN,double_pass.thisN,double_pass.thisIndex,double_pass.ran,double_pass.order,main_trial.thisRepN,main_trial.thisTrialN,main_trial.thisN,main_trial.thisIndex,main_trial.ran,main_trial.order,Trial_Counter,Catch,Frequencies,response_2.started,response_2.stopped,mouse_2.x,mouse_2.y,mouse_2.leftButton,mouse_2.midButton,mouse_2.rightButton,mouse_2.clicked_name,special_trial.started,special_trial.stopped,catch_1.started,catch_1.stopped,mouse_3.x,mouse_3.y,mouse_3.leftButton,mouse_3.midButton,mouse_3.rightButton,catchresponse,catchnumber,response_time_catch,response_sum.started,response_sum.stopped,mouse_11.x,mouse_11.y,mouse_11.leftButton,mouse_11.midButton,mouse_11.rightButton,flip_presentation_sequence_for_double_pass.started,flip_presentation_sequence_for_double_pass.stopped,goodbye.started,goodbye.stopped,key_resp_3.keys,key_resp_3.rt,key_resp_3.duration
0.001,0.0012,5e5f4c3f3d604727f7930fc1,2024-02-19_11h11.39.162,kallum_motion_pilot,2023.2.2,Win32,54.05405405,5e5f4c3f3d604727f7930fc1,65d2b6c8f2eece985d8e374c,65d2b899cb56009c7b584523,,,,,,,,,,,,,,,,,,,,,,,,,,,,,,,,,,,,,,,,,,,,,,,,,,,,,,,,,,,,,,,,,,,,,,,,,,,,,,,,,,,,,,,,,,,,,,,,,,,,,,,,,,,,,,,,,,,,,,,,,,,,,,,,,,,,,,,,,,,,,,,,,
,,5e5f4c3f3d604727f7930fc1,2024-02-19_11h11.39.162,kallum_motion_pilot,2023.2.2,Win32,54.05405405,5e5f4c3f3d604727f7930fc1,65d2b6c8f2eece985d8e374c,65d2b899cb56009c7b584523,0.0322,0.0326,0,0,0,136,1,fivesix,,,,,,,,,,,,,,,,,,,,,,,,,,,,,,,,,,,,,,,,,,,,,,,,,,,,,,,,,,,,,,,,,,,,,,,,,,,,,,,,,,,,,,,,,,,,,,,,,,,,,,,,,,,,,,,,,,,,,,,,,,,,,,,,,,,,,,,,,
,,5e5f4c3f3d604727f7930fc1,2024-02-19_11h11.39.162,kallum_motion_pilot,2023.2.2,Win32,54.05405405,5e5f4c3f3d604727f7930fc1,65d2b6c8f2eece985d8e374c,65d2b899cb56009c7b584523,0.0331,0.0333,0,1,1,137,1,fiveseven,,,,,,,,,,,,,,,,,,,,,,,,,,,,,,,,,,,,,,,,,,,,,,,,,,,,,,,,,,,,,,,,,,,,,,,,,,,,,,,,,,,,,,,,,,,,,,,,,,,,,,,,,,,,,,,,,,,,,,,,,,,,,,,,,,,,,,,,,
,,5e5f4c3f3d604727f7930fc1,2024-02-19_11h11.39.162,kallum_motion_pilot,2023.2.2,Win32,54.05405405,5e5f4c3f3d604727f7930fc1,65d2b6c8f2eece985d8e374c,65d2b899cb56009c7b584523,0.0334,0.0335,0,2,2,52,1,threeone,,,,,,,,,,,,,,,,,,,,,,,,,,,,,,,,,,,,,,,,,,,,,,,,,,,,,,,,,,,,,,,,,,,,,,,,,,,,,,,,,,,,,,,,,,,,,,,,,,,,,,,,,,,,,,,,,,,,,,,,,,,,,,,,,,,,,,,,,
,,5e5f4c3f3d604727f7930fc1,2024-02-19_11h11.39.162,kallum_motion_pilot,2023.2.2,Win32,54.05405405,5e5f4c3f3d604727f7930fc1,65d2b6c8f2eece985d8e374c,65d2b899cb56009c7b584523,0.0357,0.0358,0,3,3,104,1,fivesix,,,,,,,,,,,,,,,,,,,,,,,,,,,,,,,,,,,,,,,,,,,,,,,,,,,,,,,,,,,,,,,,,,,,,,,,,,,,,,,,,,,,,,,,,,,,,,,,,,,,,,,,,,,,,,,,,,,,,,,,,,,,,,,,,,,,,,,,,
,,5e5f4c3f3d604727f7930fc1,2024-02-19_11h11.39.162,kallum_motion_pilot,2023.2.2,Win32,54.05405405,5e5f4c3f3d604727f7930fc1,65d2b6c8f2eece985d8e374c,65d2b899cb56009c7b584523,0.0361,0.0361,0,4,4,127,1,eightseven,,,,,,,,,,,,,,,,,,,,,,,,,,,,,,,,,,,,,,,,,,,,,,,,,,,,,,,,,,,,,,,,,,,,,,,,,,,,,,,,,,,,,,,,,,,,,,,,,,,,,,,,,,,,,,,,,,,,,,,,,,,,,,,,,,,,,,,,,
,,5e5f4c3f3d604727f7930fc1,2024-02-19_11h11.39.162,kallum_motion_pilot,2023.2.2,Win32,54.05405405,5e5f4c3f3d604727f7930fc1,65d2b6c8f2eece985d8e374c,65d2b899cb56009c7b584523,0.0364,0.0364,0,5,5,96,1,fivesix,,,,,,,,,,,,,,,,,,,,,,,,,,,,,,,,,,,,,,,,,,,,,,,,,,,,,,,,,,,,,,,,,,,,,,,,,,,,,,,,,,,,,,,,,,,,,,,,,,,,,,,,,,,,,,,,,,,,,,,,,,,,,,,,,,,,,,,,,
,,5e5f4c3f3d604727f7930fc1,2024-02-19_11h11.39.162,kallum_motion_pilot,2023.2.2,Win32,54.05405405,5e5f4c3f3d604727f7930fc1,65d2b6c8f2eece985d8e374c,65d2b899cb56009c7b584523,0.0366,0.0366,0,6,6,47,1,fourthree,,,,,,,,,,,,,,,,,,,,,,,,,,,,,,,,,,,,,,,,,,,,,,,,,,,,,,,,,,,,,,,,,,,,,,,,,,,,,,,,,,,,,,,,,,,,,,,,,,,,,,,,,,,,,,,,,,,,,,,,,,,,,,,,,,,,,,,,,
,,5e5f4c3f3d604727f7930fc1,2024-02-19_11h11.39.162,kallum_motion_pilot,2023.2.2,Win32,54.05405405,5e5f4c3f3d604727f7930fc1,65d2b6c8f2eece985d8e374c,65d2b899cb56009c7b584523,0.0368,0.0369,0,7,7,58,1,twoone,,,,,,,,,,,,,,,,,,,,,,,,,,,,,,,,,,,,,,,,,,,,,,,,,,,,,,,,,,,,,,,,,,,,,,,,,,,,,,,,,,,,,,,,,,,,,,,,,,,,,,,,,,,,,,,,,,,,,,,,,,,,,,,,,,,,,,,,,
,,5e5f4c3f3d604727f7930fc1,2024-02-19_11h11.39.162,kallum_motion_pilot,2023.2.2,Win32,54.05405405,5e5f4c3f3d604727f7930fc1,65d2b6c8f2eece985d8e374c,65d2b899cb56009c7b584523,0.0372,0.0372,0,8,8,20,1,threeone,,,,,,,,,,,,,,,,,,,,,,,,,,,,,,,,,,,,,,,,,,,,,,,,,,,,,,,,,,,,,,,,,,,,,,,,,,,,,,,,,,,,,,,,,,,,,,,,,,,,,,,,,,,,,,,,,,,,,,,,,,,,,,,,,,,,,,,,,
,,5e5f4c3f3d604727f7930fc1,2024-02-19_11h11.39.162,kallum_motion_pilot,2023.2.2,Win32,54.05405405,5e5f4c3f3d604727f7930fc1,65d2b6c8f2eece985d8e374c,65d2b899cb56009c7b584523,0.0375,0.0375,0,9,9,82,1,sixfive,,,,,,,,,,,,,,,,,,,,,,,,,,,,,,,,,,,,,,,,,,,,,,,,,,,,,,,,,,,,,,,,,,,,,,,,,,,,,,,,,,,,,,,,,,,,,,,,,,,,,,,,,,,,,,,,,,,,,,,,,,,,,,,,,,,,,,,,,
,,5e5f4c3f3d604727f7930fc1,2024-02-19_11h11.39.162,kallum_motion_pilot,2023.2.2,Win32,54.05405405,5e5f4c3f3d604727f7930fc1,65d2b6c8f2eece985d8e374c,65d2b899cb56009c7b584523,0.0377,0.0378,0,10,10,111,1,eightseven,,,,,,,,,,,,,,,,,,,,,,,,,,,,,,,,,,,,,,,,,,,,,,,,,,,,,,,,,,,,,,,,,,,,,,,,,,,,,,,,,,,,,,,,,,,,,,,,,,,,,,,,,,,,,,,,,,,,,,,,,,,,,,,,,,,,,,,,,
,,5e5f4c3f3d604727f7930fc1,2024-02-19_11h11.39.162,kallum_motion_pilot,2023.2.2,Win32,54.05405405,5e5f4c3f3d604727f7930fc1,65d2b6c8f2eece985d8e374c,65d2b899cb56009c7b584523,0.0379,0.038,0,11,11,15,1,fourthree,,,,,,,,,,,,,,,,,,,,,,,,,,,,,,,,,,,,,,,,,,,,,,,,,,,,,,,,,,,,,,,,,,,,,,,,,,,,,,,,,,,,,,,,,,,,,,,,,,,,,,,,,,,,,,,,,,,,,,,,,,,,,,,,,,,,,,,,,
,,5e5f4c3f3d604727f7930fc1,2024-02-19_11h11.39.162,kallum_motion_pilot,2023.2.2,Win32,54.05405405,5e5f4c3f3d604727f7930fc1,65d2b6c8f2eece985d8e374c,65d2b899cb56009c7b584523,0.0383,0.0383,0,12,12,102,1,eightsix,,,,,,,,,,,,,,,,,,,,,,,,,,,,,,,,,,,,,,,,,,,,,,,,,,,,,,,,,,,,,,,,,,,,,,,,,,,,,,,,,,,,,,,,,,,,,,,,,,,,,,,,,,,,,,,,,,,,,,,,,,,,,,,,,,,,,,,,,
,,5e5f4c3f3d604727f7930fc1,2024-02-19_11h11.39.162,kallum_motion_pilot,2023.2.2,Win32,54.05405405,5e5f4c3f3d604727f7930fc1,65d2b6c8f2eece985d8e374c,65d2b899cb56009c7b584523,0.0384,0.0384,0,13,13,75,1,twofour,,,,,,,,,,,,,,,,,,,,,,,,,,,,,,,,,,,,,,,,,,,,,,,,,,,,,,,,,,,,,,,,,,,,,,,,,,,,,,,,,,,,,,,,,,,,,,,,,,,,,,,,,,,,,,,,,,,,,,,,,,,,,,,,,,,,,,,,,
,,5e5f4c3f3d604727f7930fc1,2024-02-19_11h11.39.162,kallum_motion_pilot,2023.2.2,Win32,54.05405405,5e5f4c3f3d604727f7930fc1,65d2b6c8f2eece985d8e374c,65d2b899cb56009c7b584523,0.0386,0.0386,0,14,14,64,1,onetwo,,,,,,,,,,,,,,,,,,,,,,,,,,,,,,,,,,,,,,,,,,,,,,,,,,,,,,,,,,,,,,,,,,,,,,,,,,,,,,,,,,,,,,,,,,,,,,,,,,,,,,,,,,,,,,,,,,,,,,,,,,,,,,,,,,,,,,,,,
,,5e5f4c3f3d604727f7930fc1,2024-02-19_11h11.39.162,kallum_motion_pilot,2023.2.2,Win32,54.05405405,5e5f4c3f3d604727f7930fc1,65d2b6c8f2eece985d8e374c,65d2b899cb56009c7b584523,0.0388,0.0389,0,15,15,44,1,threeone,,,,,,,,,,,,,,,,,,,,,,,,,,,,,,,,,,,,,,,,,,,,,,,,,,,,,,,,,,,,,,,,,,,,,,,,,,,,,,,,,,,,,,,,,,,,,,,,,,,,,,,,,,,,,,,,,,,,,,,,,,,,,,,,,,,,,,,,,
,,5e5f4c3f3d604727f7930fc1,2024-02-19_11h11.39.162,kallum_motion_pilot,2023.2.2,Win32,54.05405405,5e5f4c3f3d604727f7930fc1,65d2b6c8f2eece985d8e374c,65d2b899cb56009c7b584523,0.0391,0.0392,0,16,16,71,1,fourthree,,,,,,,,,,,,,,,,,,,,,,,,,,,,,,,,,,,,,,,,,,,,,,,,,,,,,,,,,,,,,,,,,,,,,,,,,,,,,,,,,,,,,,,,,,,,,,,,,,,,,,,,,,,,,,,,,,,,,,,,,,,,,,,,,,,,,,,,,
,,5e5f4c3f3d604727f7930fc1,2024-02-19_11h11.39.162,kallum_motion_pilot,2023.2.2,Win32,54.05405405,5e5f4c3f3d604727f7930fc1,65d2b6c8f2eece985d8e374c,65d2b899cb56009c7b584523,0.0393,0.0393,0,17,17,148,1,sevenfive,,,,,,,,,,,,,,,,,,,,,,,,,,,,,,,,,,,,,,,,,,,,,,,,,,,,,,,,,,,,,,,,,,,,,,,,,,,,,,,,,,,,,,,,,,,,,,,,,,,,,,,,,,,,,,,,,,,,,,,,,,,,,,,,,,,,,,,,,
,,5e5f4c3f3d604727f7930fc1,2024-02-19_11h11.39.162,kallum_motion_pilot,2023.2.2,Win32,54.05405405,5e5f4c3f3d604727f7930fc1,65d2b6c8f2eece985d8e374c,65d2b899cb56009c7b584523,0.0397,0.0398,0,18,18,94,1,eightsix,,,,,,,,,,,,,,,,,,,,,,,,,,,,,,,,,,,,,,,,,,,,,,,,,,,,,,,,,,,,,,,,,,,,,,,,,,,,,,,,,,,,,,,,,,,,,,,,,,,,,,,,,,,,,,,,,,,,,,,,,,,,,,,,,,,,,,,,,
,,5e5f4c3f3d604727f7930fc1,2024-02-19_11h11.39.162,kallum_motion_pilot,2023.2.2,Win32,54.05405405,5e5f4c3f3d604727f7930fc1,65d2b6c8f2eece985d8e374c,65d2b899cb56009c7b584523,0.0401,0.0404,0,19,19,121,1,fiveseven,,,,,,,,,,,,,,,,,,,,,,,,,,,,,,,,,,,,,,,,,,,,,,,,,,,,,,,,,,,,,,,,,,,,,,,,,,,,,,,,,,,,,,,,,,,,,,,,,,,,,,,,,,,,,,,,,,,,,,,,,,,,,,,,,,,,,,,,,
,,5e5f4c3f3d604727f7930fc1,2024-02-19_11h11.39.162,kallum_motion_pilot,2023.2.2,Win32,54.05405405,5e5f4c3f3d604727f7930fc1,65d2b6c8f2eece985d8e374c,65d2b899cb56009c7b584523,0.0407,0.0408,0,20,20,60,1,threeone,,,,,,,,,,,,,,,,,,,,,,,,,,,,,,,,,,,,,,,,,,,,,,,,,,,,,,,,,,,,,,,,,,,,,,,,,,,,,,,,,,,,,,,,,,,,,,,,,,,,,,,,,,,,,,,,,,,,,,,,,,,,,,,,,,,,,,,,,
,,5e5f4c3f3d604727f7930fc1,2024-02-19_11h11.39.162,kallum_motion_pilot,2023.2.2,Win32,54.05405405,5e5f4c3f3d604727f7930fc1,65d2b6c8f2eece985d8e374c,65d2b899cb56009c7b584523,0.0409,0.0411,0,21,21,91,1,sixeight,,,,,,,,,,,,,,,,,,,,,,,,,,,,,,,,,,,,,,,,,,,,,,,,,,,,,,,,,,,,,,,,,,,,,,,,,,,,,,,,,,,,,,,,,,,,,,,,,,,,,,,,,,,,,,,,,,,,,,,,,,,,,,,,,,,,,,,,,
,,5e5f4c3f3d604727f7930fc1,2024-02-19_11h11.39.162,kallum_motion_pilot,2023.2.2,Win32,54.05405405,5e5f4c3f3d604727f7930fc1,65d2b6c8f2eece985d8e374c,65d2b899cb56009c7b584523,0.0415,0.0415,0,22,22,72,1,onetwo,,,,,,,,,,,,,,,,,,,,,,,,,,,,,,,,,,,,,,,,,,,,,,,,,,,,,,,,,,,,,,,,,,,,,,,,,,,,,,,,,,,,,,,,,,,,,,,,,,,,,,,,,,,,,,,,,,,,,,,,,,,,,,,,,,,,,,,,,
,,5e5f4c3f3d604727f7930fc1,2024-02-19_11h11.39.162,kallum_motion_pilot,2023.2.2,Win32,54.05405405,5e5f4c3f3d604727f7930fc1,65d2b6c8f2eece985d8e374c,65d2b899cb56009c7b584523,0.0417,0.0417,0,23,23,112,1,fivesix,,,,,,,,,,,,,,,,,,,,,,,,,,,,,,,,,,,,,,,,,,,,,,,,,,,,,,,,,,,,,,,,,,,,,,,,,,,,,,,,,,,,,,,,,,,,,,,,,,,,,,,,,,,,,,,,,,,,,,,,,,,,,,,,,,,,,,,,,
,,5e5f4c3f3d604727f7930fc1,2024-02-19_11h11.39.162,kallum_motion_pilot,2023.2.2,Win32,54.05405405,5e5f4c3f3d604727f7930fc1,65d2b6c8f2eece985d8e374c,65d2b899cb56009c7b584523,0.042,0.0422,0,24,24,7,1,fourthree,,,,,,,,,,,,,,,,,,,,,,,,,,,,,,,,,,,,,,,,,,,,,,,,,,,,,,,,,,,,,,,,,,,,,,,,,,,,,,,,,,,,,,,,,,,,,,,,,,,,,,,,,,,,,,,,,,,,,,,,,,,,,,,,,,,,,,,,,
,,5e5f4c3f3d604727f7930fc1,2024-02-19_11h11.39.162,kallum_motion_pilot,2023.2.2,Win32,54.05405405,5e5f4c3f3d604727f7930fc1,65d2b6c8f2eece985d8e374c,65d2b899cb56009c7b584523,0.0424,0.0425,0,25,25,74,1,twoone,,,,,,,,,,,,,,,,,,,,,,,,,,,,,,,,,,,,,,,,,,,,,,,,,,,,,,,,,,,,,,,,,,,,,,,,,,,,,,,,,,,,,,,,,,,,,,,,,,,,,,,,,,,,,,,,,,,,,,,,,,,,,,,,,,,,,,,,,
,,5e5f4c3f3d604727f7930fc1,2024-02-19_11h11.39.162,kallum_motion_pilot,2023.2.2,Win32,54.05405405,5e5f4c3f3d604727f7930fc1,65d2b6c8f2eece985d8e374c,65d2b899cb56009c7b584523,0.0427,0.0428,0,26,26,57,1,onethree,,,,,,,,,,,,,,,,,,,,,,,,,,,,,,,,,,,,,,,,,,,,,,,,,,,,,,,,,,,,,,,,,,,,,,,,,,,,,,,,,,,,,,,,,,,,,,,,,,,,,,,,,,,,,,,,,,,,,,,,,,,,,,,,,,,,,,,,,
,,5e5f4c3f3d604727f7930fc1,2024-02-19_11h11.39.162,kallum_motion_pilot,2023.2.2,Win32,54.05405405,5e5f4c3f3d604727f7930fc1,65d2b6c8f2eece985d8e374c,65d2b899cb56009c7b584523,0.043,0.043,0,27,27,98,1,sixfive,,,,,,,,,,,,,,,,,,,,,,,,,,,,,,,,,,,,,,,,,,,,,,,,,,,,,,,,,,,,,,,,,,,,,,,,,,,,,,,,,,,,,,,,,,,,,,,,,,,,,,,,,,,,,,,,,,,,,,,,,,,,,,,,,,,,,,,,,
,,5e5f4c3f3d604727f7930fc1,2024-02-19_11h11.39.162,kallum_motion_pilot,2023.2.2,Win32,54.05405405,5e5f4c3f3d604727f7930fc1,65d2b6c8f2eece985d8e374c,65d2b899cb56009c7b584523,0.0432,0.0432,0,28,28,93,1,seveneight,,,,,,,,,,,,,,,,,,,,,,,,,,,,,,,,,,,,,,,,,,,,,,,,,,,,,,,,,,,,,,,,,,,,,,,,,,,,,,,,,,,,,,,,,,,,,,,,,,,,,,,,,,,,,,,,,,,,,,,,,,,,,,,,,,,,,,,,,
,,5e5f4c3f3d604727f7930fc1,2024-02-19_11h11.39.162,kallum_motion_pilot,2023.2.2,Win32,54.05405405,5e5f4c3f3d604727f7930fc1,65d2b6c8f2eece985d8e374c,65d2b899cb56009c7b584523,0.0434,0.0434,0,29,29,70,1,fourtwo,,,,,,,,,,,,,,,,,,,,,,,,,,,,,,,,,,,,,,,,,,,,,,,,,,,,,,,,,,,,,,,,,,,,,,,,,,,,,,,,,,,,,,,,,,,,,,,,,,,,,,,,,,,,,,,,,,,,,,,,,,,,,,,,,,,,,,,,,
,,5e5f4c3f3d604727f7930fc1,2024-02-19_11h11.39.162,kallum_motion_pilot,2023.2.2,Win32,54.05405405,5e5f4c3f3d604727f7930fc1,65d2b6c8f2eece985d8e374c,65d2b899cb56009c7b584523,0.0435,0.0437,0,30,30,48,1,onetwo,,,,,,,,,,,,,,,,,,,,,,,,,,,,,,,,,,,,,,,,,,,,,,,,,,,,,,,,,,,,,,,,,,,,,,,,,,,,,,,,,,,,,,,,,,,,,,,,,,,,,,,,,,,,,,,,,,,,,,,,,,,,,,,,,,,,,,,,,
,,5e5f4c3f3d604727f7930fc1,2024-02-19_11h11.39.162,kallum_motion_pilot,2023.2.2,Win32,54.05405405,5e5f4c3f3d604727f7930fc1,65d2b6c8f2eece985d8e374c,65d2b899cb56009c7b584523,0.0439,0.0439,0,31,31,161,1,fiveseven,,,,,,,,,,,,,,,,,,,,,,,,,,,,,,,,,,,,,,,,,,,,,,,,,,,,,,,,,,,,,,,,,,,,,,,,,,,,,,,,,,,,,,,,,,,,,,,,,,,,,,,,,,,,,,,,,,,,,,,,,,,,,,,,,,,,,,,,,
,,5e5f4c3f3d604727f7930fc1,2024-02-19_11h11.39.162,kallum_motion_pilot,2023.2.2,Win32,54.05405405,5e5f4c3f3d604727f7930fc1,65d2b6c8f2eece985d8e374c,65d2b899cb56009c7b584523,0.0441,0.0442,0,32,32,132,1,sevenfive,,,,,,,,,,,,,,,,,,,,,,,,,,,,,,,,,,,,,,,,,,,,,,,,,,,,,,,,,,,,,,,,,,,,,,,,,,,,,,,,,,,,,,,,,,,,,,,,,,,,,,,,,,,,,,,,,,,,,,,,,,,,,,,,,,,,,,,,,
,,5e5f4c3f3d604727f7930fc1,2024-02-19_11h11.39.162,kallum_motion_pilot,2023.2.2,Win32,54.05405405,5e5f4c3f3d604727f7930fc1,65d2b6c8f2eece985d8e374c,65d2b899cb56009c7b584523,0.0444,0.0444,0,33,33,85,1,seveneight,,,,,,,,,,,,,,,,,,,,,,,,,,,,,,,,,,,,,,,,,,,,,,,,,,,,,,,,,,,,,,,,,,,,,,,,,,,,,,,,,,,,,,,,,,,,,,,,,,,,,,,,,,,,,,,,,,,,,,,,,,,,,,,,,,,,,,,,,
,,5e5f4c3f3d604727f7930fc1,2024-02-19_11h11.39.162,kallum_motion_pilot,2023.2.2,Win32,54.05405405,5e5f4c3f3d604727f7930fc1,65d2b6c8f2eece985d8e374c,65d2b899cb56009c7b584523,0.0445,0.0446,0,34,34,2,1,twoone,,,,,,,,,,,,,,,,,,,,,,,,,,,,,,,,,,,,,,,,,,,,,,,,,,,,,,,,,,,,,,,,,,,,,,,,,,,,,,,,,,,,,,,,,,,,,,,,,,,,,,,,,,,,,,,,,,,,,,,,,,,,,,,,,,,,,,,,,
,,5e5f4c3f3d604727f7930fc1,2024-02-19_11h11.39.162,kallum_motion_pilot,2023.2.2,Win32,54.05405405,5e5f4c3f3d604727f7930fc1,65d2b6c8f2eece985d8e374c,65d2b899cb56009c7b584523,0.0448,0.0448,0,35,35,97,1,fiveseven,,,,,,,,,,,,,,,,,,,,,,,,,,,,,,,,,,,,,,,,,,,,,,,,,,,,,,,,,,,,,,,,,,,,,,,,,,,,,,,,,,,,,,,,,,,,,,,,,,,,,,,,,,,,,,,,,,,,,,,,,,,,,,,,,,,,,,,,,
,,5e5f4c3f3d604727f7930fc1,2024-02-19_11h11.39.162,kallum_motion_pilot,2023.2.2,Win32,54.05405405,5e5f4c3f3d604727f7930fc1,65d2b6c8f2eece985d8e374c,65d2b899cb56009c7b584523,0.045,0.0451,0,36,36,76,1,threeone,,,,,,,,,,,,,,,,,,,,,,,,,,,,,,,,,,,,,,,,,,,,,,,,,,,,,,,,,,,,,,,,,,,,,,,,,,,,,,,,,,,,,,,,,,,,,,,,,,,,,,,,,,,,,,,,,,,,,,,,,,,,,,,,,,,,,,,,,
,,5e5f4c3f3d604727f7930fc1,2024-02-19_11h11.39.162,kallum_motion_pilot,2023.2.2,Win32,54.05405405,5e5f4c3f3d604727f7930fc1,65d2b6c8f2eece985d8e374c,65d2b899cb56009c7b584523,0.0453,0.0453,0,37,37,151,1,eightseven,,,,,,,,,,,,,,,,,,,,,,,,,,,,,,,,,,,,,,,,,,,,,,,,,,,,,,,,,,,,,,,,,,,,,,,,,,,,,,,,,,,,,,,,,,,,,,,,,,,,,,,,,,,,,,,,,,,,,,,,,,,,,,,,,,,,,,,,,
,,5e5f4c3f3d604727f7930fc1,2024-02-19_11h11.39.162,kallum_motion_pilot,2023.2.2,Win32,54.05405405,5e5f4c3f3d604727f7930fc1,65d2b6c8f2eece985d8e374c,65d2b899cb56009c7b584523,0.0454,0.0455,0,38,38,131,1,sixeight,,,,,,,,,,,,,,,,,,,,,,,,,,,,,,,,,,,,,,,,,,,,,,,,,,,,,,,,,,,,,,,,,,,,,,,,,,,,,,,,,,,,,,,,,,,,,,,,,,,,,,,,,,,,,,,,,,,,,,,,,,,,,,,,,,,,,,,,,
,,5e5f4c3f3d604727f7930fc1,2024-02-19_11h11.39.162,kallum_motion_pilot,2023.2.2,Win32,54.05405405,5e5f4c3f3d604727f7930fc1,65d2b6c8f2eece985d8e374c,65d2b899cb56009c7b584523,0.0456,0.0458,0,39,39,156,1,sevenfive,,,,,,,,,,,,,,,,,,,,,,,,,,,,,,,,,,,,,,,,,,,,,,,,,,,,,,,,,,,,,,,,,,,,,,,,,,,,,,,,,,,,,,,,,,,,,,,,,,,,,,,,,,,,,,,,,,,,,,,,,,,,,,,,,,,,,,,,,
,,5e5f4c3f3d604727f7930fc1,2024-02-19_11h11.39.162,kallum_motion_pilot,2023.2.2,Win32,54.05405405,5e5f4c3f3d604727f7930fc1,65d2b6c8f2eece985d8e374c,65d2b899cb56009c7b584523,0.0459,0.046,0,40,40,126,1,eightsix,,,,,,,,,,,,,,,,,,,,,,,,,,,,,,,,,,,,,,,,,,,,,,,,,,,,,,,,,,,,,,,,,,,,,,,,,,,,,,,,,,,,,,,,,,,,,,,,,,,,,,,,,,,,,,,,,,,,,,,,,,,,,,,,,,,,,,,,,
,,5e5f4c3f3d604727f7930fc1,2024-02-19_11h11.39.162,kallum_motion_pilot,2023.2.2,Win32,54.05405405,5e5f4c3f3d604727f7930fc1,65d2b6c8f2eece985d8e374c,65d2b899cb56009c7b584523,0.0462,0.0462,0,41,41,145,1,fiveseven,,,,,,,,,,,,,,,,,,,,,,,,,,,,,,,,,,,,,,,,,,,,,,,,,,,,,,,,,,,,,,,,,,,,,,,,,,,,,,,,,,,,,,,,,,,,,,,,,,,,,,,,,,,,,,,,,,,,,,,,,,,,,,,,,,,,,,,,,
,,5e5f4c3f3d604727f7930fc1,2024-02-19_11h11.39.162,kallum_motion_pilot,2023.2.2,Win32,54.05405405,5e5f4c3f3d604727f7930fc1,65d2b6c8f2eece985d8e374c,65d2b899cb56009c7b584523,0.0463,0.0463,0,42,42,152,1,fivesix,,,,,,,,,,,,,,,,,,,,,,,,,,,,,,,,,,,,,,,,,,,,,,,,,,,,,,,,,,,,,,,,,,,,,,,,,,,,,,,,,,,,,,,,,,,,,,,,,,,,,,,,,,,,,,,,,,,,,,,,,,,,,,,,,,,,,,,,,
,,5e5f4c3f3d604727f7930fc1,2024-02-19_11h11.39.162,kallum_motion_pilot,2023.2.2,Win32,54.05405405,5e5f4c3f3d604727f7930fc1,65d2b6c8f2eece985d8e374c,65d2b899cb56009c7b584523,0.0466,0.0466,0,43,43,3,1,twofour,,,,,,,,,,,,,,,,,,,,,,,,,,,,,,,,,,,,,,,,,,,,,,,,,,,,,,,,,,,,,,,,,,,,,,,,,,,,,,,,,,,,,,,,,,,,,,,,,,,,,,,,,,,,,,,,,,,,,,,,,,,,,,,,,,,,,,,,,
,,5e5f4c3f3d604727f7930fc1,2024-02-19_11h11.39.162,kallum_motion_pilot,2023.2.2,Win32,54.05405405,5e5f4c3f3d604727f7930fc1,65d2b6c8f2eece985d8e374c,65d2b899cb56009c7b584523,0.0468,0.0468,0,44,44,12,1,threeone,,,,,,,,,,,,,,,,,,,,,,,,,,,,,,,,,,,,,,,,,,,,,,,,,,,,,,,,,,,,,,,,,,,,,,,,,,,,,,,,,,,,,,,,,,,,,,,,,,,,,,,,,,,,,,,,,,,,,,,,,,,,,,,,,,,,,,,,,
,,5e5f4c3f3d604727f7930fc1,2024-02-19_11h11.39.162,kallum_motion_pilot,2023.2.2,Win32,54.05405405,5e5f4c3f3d604727f7930fc1,65d2b6c8f2eece985d8e374c,65d2b899cb56009c7b584523,0.047,0.047,0,45,45,142,1,eightsix,,,,,,,,,,,,,,,,,,,,,,,,,,,,,,,,,,,,,,,,,,,,,,,,,,,,,,,,,,,,,,,,,,,,,,,,,,,,,,,,,,,,,,,,,,,,,,,,,,,,,,,,,,,,,,,,,,,,,,,,,,,,,,,,,,,,,,,,,
,,5e5f4c3f3d604727f7930fc1,2024-02-19_11h11.39.162,kallum_motion_pilot,2023.2.2,Win32,54.05405405,5e5f4c3f3d604727f7930fc1,65d2b6c8f2eece985d8e374c,65d2b899cb56009c7b584523,0.0471,0.0472,0,46,46,54,1,fourtwo,,,,,,,,,,,,,,,,,,,,,,,,,,,,,,,,,,,,,,,,,,,,,,,,,,,,,,,,,,,,,,,,,,,,,,,,,,,,,,,,,,,,,,,,,,,,,,,,,,,,,,,,,,,,,,,,,,,,,,,,,,,,,,,,,,,,,,,,,
,,5e5f4c3f3d604727f7930fc1,2024-02-19_11h11.39.162,kallum_motion_pilot,2023.2.2,Win32,54.05405405,5e5f4c3f3d604727f7930fc1,65d2b6c8f2eece985d8e374c,65d2b899cb56009c7b584523,0.0473,0.0474,0,47,47,115,1,sixeight,,,,,,,,,,,,,,,,,,,,,,,,,,,,,,,,,,,,,,,,,,,,,,,,,,,,,,,,,,,,,,,,,,,,,,,,,,,,,,,,,,,,,,,,,,,,,,,,,,,,,,,,,,,,,,,,,,,,,,,,,,,,,,,,,,,,,,,,,
,,5e5f4c3f3d604727f7930fc1,2024-02-19_11h11.39.162,kallum_motion_pilot,2023.2.2,Win32,54.05405405,5e5f4c3f3d604727f7930fc1,65d2b6c8f2eece985d8e374c,65d2b899cb56009c7b584523,0.0475,0.0476,0,48,48,160,1,fivesix,,,,,,,,,,,,,,,,,,,,,,,,,,,,,,,,,,,,,,,,,,,,,,,,,,,,,,,,,,,,,,,,,,,,,,,,,,,,,,,,,,,,,,,,,,,,,,,,,,,,,,,,,,,,,,,,,,,,,,,,,,,,,,,,,,,,,,,,,
,,5e5f4c3f3d604727f7930fc1,2024-02-19_11h11.39.162,kallum_motion_pilot,2023.2.2,Win32,54.05405405,5e5f4c3f3d604727f7930fc1,65d2b6c8f2eece985d8e374c,65d2b899cb56009c7b584523,0.0478,0.0478,0,49,49,49,1,onethree,,,,,,,,,,,,,,,,,,,,,,,,,,,,,,,,,,,,,,,,,,,,,,,,,,,,,,,,,,,,,,,,,,,,,,,,,,,,,,,,,,,,,,,,,,,,,,,,,,,,,,,,,,,,,,,,,,,,,,,,,,,,,,,,,,,,,,,,,
,,5e5f4c3f3d604727f7930fc1,2024-02-19_11h11.39.162,kallum_motion_pilot,2023.2.2,Win32,54.05405405,5e5f4c3f3d604727f7930fc1,65d2b6c8f2eece985d8e374c,65d2b899cb56009c7b584523,0.0479,0.0479,0,50,50,159,1,eightseven,,,,,,,,,,,,,,,,,,,,,,,,,,,,,,,,,,,,,,,,,,,,,,,,,,,,,,,,,,,,,,,,,,,,,,,,,,,,,,,,,,,,,,,,,,,,,,,,,,,,,,,,,,,,,,,,,,,,,,,,,,,,,,,,,,,,,,,,,
,,5e5f4c3f3d604727f7930fc1,2024-02-19_11h11.39.162,kallum_motion_pilot,2023.2.2,Win32,54.05405405,5e5f4c3f3d604727f7930fc1,65d2b6c8f2eece985d8e374c,65d2b899cb56009c7b584523,0.0482,0.0482,0,51,51,144,1,fivesix,,,,,,,,,,,,,,,,,,,,,,,,,,,,,,,,,,,,,,,,,,,,,,,,,,,,,,,,,,,,,,,,,,,,,,,,,,,,,,,,,,,,,,,,,,,,,,,,,,,,,,,,,,,,,,,,,,,,,,,,,,,,,,,,,,,,,,,,,
,,5e5f4c3f3d604727f7930fc1,2024-02-19_11h11.39.162,kallum_motion_pilot,2023.2.2,Win32,54.05405405,5e5f4c3f3d604727f7930fc1,65d2b6c8f2eece985d8e374c,65d2b899cb56009c7b584523,0.0483,0.0484,0,52,52,51,1,twofour,,,,,,,,,,,,,,,,,,,,,,,,,,,,,,,,,,,,,,,,,,,,,,,,,,,,,,,,,,,,,,,,,,,,,,,,,,,,,,,,,,,,,,,,,,,,,,,,,,,,,,,,,,,,,,,,,,,,,,,,,,,,,,,,,,,,,,,,,
,,5e5f4c3f3d604727f7930fc1,2024-02-19_11h11.39.162,kallum_motion_pilot,2023.2.2,Win32,54.05405405,5e5f4c3f3d604727f7930fc1,65d2b6c8f2eece985d8e374c,65d2b899cb56009c7b584523,0.0485,0.0486,0,53,53,129,1,fiveseven,,,,,,,,,,,,,,,,,,,,,,,,,,,,,,,,,,,,,,,,,,,,,,,,,,,,,,,,,,,,,,,,,,,,,,,,,,,,,,,,,,,,,,,,,,,,,,,,,,,,,,,,,,,,,,,,,,,,,,,,,,,,,,,,,,,,,,,,,
,,5e5f4c3f3d604727f7930fc1,2024-02-19_11h11.39.162,kallum_motion_pilot,2023.2.2,Win32,54.05405405,5e5f4c3f3d604727f7930fc1,65d2b6c8f2eece985d8e374c,65d2b899cb56009c7b584523,0.0487,0.0488,0,54,54,33,1,onethree,,,,,,,,,,,,,,,,,,,,,,,,,,,,,,,,,,,,,,,,,,,,,,,,,,,,,,,,,,,,,,,,,,,,,,,,,,,,,,,,,,,,,,,,,,,,,,,,,,,,,,,,,,,,,,,,,,,,,,,,,,,,,,,,,,,,,,,,,
,,5e5f4c3f3d604727f7930fc1,2024-02-19_11h11.39.162,kallum_motion_pilot,2023.2.2,Win32,54.05405405,5e5f4c3f3d604727f7930fc1,65d2b6c8f2eece985d8e374c,65d2b899cb56009c7b584523,0.049,0.0491,0,55,55,139,1,sixeight,,,,,,,,,,,,,,,,,,,,,,,,,,,,,,,,,,,,,,,,,,,,,,,,,,,,,,,,,,,,,,,,,,,,,,,,,,,,,,,,,,,,,,,,,,,,,,,,,,,,,,,,,,,,,,,,,,,,,,,,,,,,,,,,,,,,,,,,,
,,5e5f4c3f3d604727f7930fc1,2024-02-19_11h11.39.162,kallum_motion_pilot,2023.2.2,Win32,54.05405405,5e5f4c3f3d604727f7930fc1,65d2b6c8f2eece985d8e374c,65d2b899cb56009c7b584523,0.0493,0.0494,0,56,56,13,1,threefour,,,,,,,,,,,,,,,,,,,,,,,,,,,,,,,,,,,,,,,,,,,,,,,,,,,,,,,,,,,,,,,,,,,,,,,,,,,,,,,,,,,,,,,,,,,,,,,,,,,,,,,,,,,,,,,,,,,,,,,,,,,,,,,,,,,,,,,,,
,,5e5f4c3f3d604727f7930fc1,2024-02-19_11h11.39.162,kallum_motion_pilot,2023.2.2,Win32,54.05405405,5e5f4c3f3d604727f7930fc1,65d2b6c8f2eece985d8e374c,65d2b899cb56009c7b584523,0.0495,0.0496,0,57,57,117,1,seveneight,,,,,,,,,,,,,,,,,,,,,,,,,,,,,,,,,,,,,,,,,,,,,,,,,,,,,,,,,,,,,,,,,,,,,,,,,,,,,,,,,,,,,,,,,,,,,,,,,,,,,,,,,,,,,,,,,,,,,,,,,,,,,,,,,,,,,,,,,
,,5e5f4c3f3d604727f7930fc1,2024-02-19_11h11.39.162,kallum_motion_pilot,2023.2.2,Win32,54.05405405,5e5f4c3f3d604727f7930fc1,65d2b6c8f2eece985d8e374c,65d2b899cb56009c7b584523,0.0498,0.0499,0,58,58,84,1,sevenfive,,,,,,,,,,,,,,,,,,,,,,,,,,,,,,,,,,,,,,,,,,,,,,,,,,,,,,,,,,,,,,,,,,,,,,,,,,,,,,,,,,,,,,,,,,,,,,,,,,,,,,,,,,,,,,,,,,,,,,,,,,,,,,,,,,,,,,,,,
,,5e5f4c3f3d604727f7930fc1,2024-02-19_11h11.39.162,kallum_motion_pilot,2023.2.2,Win32,54.05405405,5e5f4c3f3d604727f7930fc1,65d2b6c8f2eece985d8e374c,65d2b899cb56009c7b584523,0.0501,0.0503,0,59,59,79,1,eightseven,,,,,,,,,,,,,,,,,,,,,,,,,,,,,,,,,,,,,,,,,,,,,,,,,,,,,,,,,,,,,,,,,,,,,,,,,,,,,,,,,,,,,,,,,,,,,,,,,,,,,,,,,,,,,,,,,,,,,,,,,,,,,,,,,,,,,,,,,
,,5e5f4c3f3d604727f7930fc1,2024-02-19_11h11.39.162,kallum_motion_pilot,2023.2.2,Win32,54.05405405,5e5f4c3f3d604727f7930fc1,65d2b6c8f2eece985d8e374c,65d2b899cb56009c7b584523,0.0504,0.0506,0,60,60,40,1,onetwo,,,,,,,,,,,,,,,,,,,,,,,,,,,,,,,,,,,,,,,,,,,,,,,,,,,,,,,,,,,,,,,,,,,,,,,,,,,,,,,,,,,,,,,,,,,,,,,,,,,,,,,,,,,,,,,,,,,,,,,,,,,,,,,,,,,,,,,,,
,,5e5f4c3f3d604727f7930fc1,2024-02-19_11h11.39.162,kallum_motion_pilot,2023.2.2,Win32,54.05405405,5e5f4c3f3d604727f7930fc1,65d2b6c8f2eece985d8e374c,65d2b899cb56009c7b584523,0.0507,0.0508,0,61,61,141,1,seveneight,,,,,,,,,,,,,,,,,,,,,,,,,,,,,,,,,,,,,,,,,,,,,,,,,,,,,,,,,,,,,,,,,,,,,,,,,,,,,,,,,,,,,,,,,,,,,,,,,,,,,,,,,,,,,,,,,,,,,,,,,,,,,,,,,,,,,,,,,
,,5e5f4c3f3d604727f7930fc1,2024-02-19_11h11.39.162,kallum_motion_pilot,2023.2.2,Win32,54.05405405,5e5f4c3f3d604727f7930fc1,65d2b6c8f2eece985d8e374c,65d2b899cb56009c7b584523,0.051,0.051,0,62,62,59,1,twofour,,,,,,,,,,,,,,,,,,,,,,,,,,,,,,,,,,,,,,,,,,,,,,,,,,,,,,,,,,,,,,,,,,,,,,,,,,,,,,,,,,,,,,,,,,,,,,,,,,,,,,,,,,,,,,,,,,,,,,,,,,,,,,,,,,,,,,,,,
,,5e5f4c3f3d604727f7930fc1,2024-02-19_11h11.39.162,kallum_motion_pilot,2023.2.2,Win32,54.05405405,5e5f4c3f3d604727f7930fc1,65d2b6c8f2eece985d8e374c,65d2b899cb56009c7b584523,0.0512,0.0513,0,63,63,114,1,sixfive,,,,,,,,,,,,,,,,,,,,,,,,,,,,,,,,,,,,,,,,,,,,,,,,,,,,,,,,,,,,,,,,,,,,,,,,,,,,,,,,,,,,,,,,,,,,,,,,,,,,,,,,,,,,,,,,,,,,,,,,,,,,,,,,,,,,,,,,,
,,5e5f4c3f3d604727f7930fc1,2024-02-19_11h11.39.162,kallum_motion_pilot,2023.2.2,Win32,54.05405405,5e5f4c3f3d604727f7930fc1,65d2b6c8f2eece985d8e374c,65d2b899cb56009c7b584523,0.0515,0.0516,0,64,64,153,1,fiveseven,,,,,,,,,,,,,,,,,,,,,,,,,,,,,,,,,,,,,,,,,,,,,,,,,,,,,,,,,,,,,,,,,,,,,,,,,,,,,,,,,,,,,,,,,,,,,,,,,,,,,,,,,,,,,,,,,,,,,,,,,,,,,,,,,,,,,,,,,
,,5e5f4c3f3d604727f7930fc1,2024-02-19_11h11.39.162,kallum_motion_pilot,2023.2.2,Win32,54.05405405,5e5f4c3f3d604727f7930fc1,65d2b6c8f2eece985d8e374c,65d2b899cb56009c7b584523,0.0518,0.0518,0,65,65,120,1,fivesix,,,,,,,,,,,,,,,,,,,,,,,,,,,,,,,,,,,,,,,,,,,,,,,,,,,,,,,,,,,,,,,,,,,,,,,,,,,,,,,,,,,,,,,,,,,,,,,,,,,,,,,,,,,,,,,,,,,,,,,,,,,,,,,,,,,,,,,,,
,,5e5f4c3f3d604727f7930fc1,2024-02-19_11h11.39.162,kallum_motion_pilot,2023.2.2,Win32,54.05405405,5e5f4c3f3d604727f7930fc1,65d2b6c8f2eece985d8e374c,65d2b899cb56009c7b584523,0.0519,0.052,0,66,66,25,1,onethree,,,,,,,,,,,,,,,,,,,,,,,,,,,,,,,,,,,,,,,,,,,,,,,,,,,,,,,,,,,,,,,,,,,,,,,,,,,,,,,,,,,,,,,,,,,,,,,,,,,,,,,,,,,,,,,,,,,,,,,,,,,,,,,,,,,,,,,,,
,,5e5f4c3f3d604727f7930fc1,2024-02-19_11h11.39.162,kallum_motion_pilot,2023.2.2,Win32,54.05405405,5e5f4c3f3d604727f7930fc1,65d2b6c8f2eece985d8e374c,65d2b899cb56009c7b584523,0.0522,0.0524,0,67,67,55,1,fourthree,,,,,,,,,,,,,,,,,,,,,,,,,,,,,,,,,,,,,,,,,,,,,,,,,,,,,,,,,,,,,,,,,,,,,,,,,,,,,,,,,,,,,,,,,,,,,,,,,,,,,,,,,,,,,,,,,,,,,,,,,,,,,,,,,,,,,,,,,
,,5e5f4c3f3d604727f7930fc1,2024-02-19_11h11.39.162,kallum_motion_pilot,2023.2.2,Win32,54.05405405,5e5f4c3f3d604727f7930fc1,65d2b6c8f2eece985d8e374c,65d2b899cb56009c7b584523,0.0526,0.0527,0,68,68,87,1,eightseven,,,,,,,,,,,,,,,,,,,,,,,,,,,,,,,,,,,,,,,,,,,,,,,,,,,,,,,,,,,,,,,,,,,,,,,,,,,,,,,,,,,,,,,,,,,,,,,,,,,,,,,,,,,,,,,,,,,,,,,,,,,,,,,,,,,,,,,,,
,,5e5f4c3f3d604727f7930fc1,2024-02-19_11h11.39.162,kallum_motion_pilot,2023.2.2,Win32,54.05405405,5e5f4c3f3d604727f7930fc1,65d2b6c8f2eece985d8e374c,65d2b899cb56009c7b584523,0.0529,0.0529,0,69,69,69,1,threefour,,,,,,,,,,,,,,,,,,,,,,,,,,,,,,,,,,,,,,,,,,,,,,,,,,,,,,,,,,,,,,,,,,,,,,,,,,,,,,,,,,,,,,,,,,,,,,,,,,,,,,,,,,,,,,,,,,,,,,,,,,,,,,,,,,,,,,,,,
,,5e5f4c3f3d604727f7930fc1,2024-02-19_11h11.39.162,kallum_motion_pilot,2023.2.2,Win32,54.05405405,5e5f4c3f3d604727f7930fc1,65d2b6c8f2eece985d8e374c,65d2b899cb56009c7b584523,0.0531,0.0532,0,70,70,135,1,eightseven,,,,,,,,,,,,,,,,,,,,,,,,,,,,,,,,,,,,,,,,,,,,,,,,,,,,,,,,,,,,,,,,,,,,,,,,,,,,,,,,,,,,,,,,,,,,,,,,,,,,,,,,,,,,,,,,,,,,,,,,,,,,,,,,,,,,,,,,,
,,5e5f4c3f3d604727f7930fc1,2024-02-19_11h11.39.162,kallum_motion_pilot,2023.2.2,Win32,54.05405405,5e5f4c3f3d604727f7930fc1,65d2b6c8f2eece985d8e374c,65d2b899cb56009c7b584523,0.0534,0.0534,0,71,71,147,1,sixeight,,,,,,,,,,,,,,,,,,,,,,,,,,,,,,,,,,,,,,,,,,,,,,,,,,,,,,,,,,,,,,,,,,,,,,,,,,,,,,,,,,,,,,,,,,,,,,,,,,,,,,,,,,,,,,,,,,,,,,,,,,,,,,,,,,,,,,,,,
,,5e5f4c3f3d604727f7930fc1,2024-02-19_11h11.39.162,kallum_motion_pilot,2023.2.2,Win32,54.05405405,5e5f4c3f3d604727f7930fc1,65d2b6c8f2eece985d8e374c,65d2b899cb56009c7b584523,0.0537,0.0537,0,72,72,109,1,seveneight,,,,,,,,,,,,,,,,,,,,,,,,,,,,,,,,,,,,,,,,,,,,,,,,,,,,,,,,,,,,,,,,,,,,,,,,,,,,,,,,,,,,,,,,,,,,,,,,,,,,,,,,,,,,,,,,,,,,,,,,,,,,,,,,,,,,,,,,,
,,5e5f4c3f3d604727f7930fc1,2024-02-19_11h11.39.162,kallum_motion_pilot,2023.2.2,Win32,54.05405405,5e5f4c3f3d604727f7930fc1,65d2b6c8f2eece985d8e374c,65d2b899cb56009c7b584523,0.0538,0.054,0,73,73,34,1,twoone,,,,,,,,,,,,,,,,,,,,,,,,,,,,,,,,,,,,,,,,,,,,,,,,,,,,,,,,,,,,,,,,,,,,,,,,,,,,,,,,,,,,,,,,,,,,,,,,,,,,,,,,,,,,,,,,,,,,,,,,,,,,,,,,,,,,,,,,,
,,5e5f4c3f3d604727f7930fc1,2024-02-19_11h11.39.162,kallum_motion_pilot,2023.2.2,Win32,54.05405405,5e5f4c3f3d604727f7930fc1,65d2b6c8f2eece985d8e374c,65d2b899cb56009c7b584523,0.0541,0.0542,0,74,74,45,1,threefour,,,,,,,,,,,,,,,,,,,,,,,,,,,,,,,,,,,,,,,,,,,,,,,,,,,,,,,,,,,,,,,,,,,,,,,,,,,,,,,,,,,,,,,,,,,,,,,,,,,,,,,,,,,,,,,,,,,,,,,,,,,,,,,,,,,,,,,,,
,,5e5f4c3f3d604727f7930fc1,2024-02-19_11h11.39.162,kallum_motion_pilot,2023.2.2,Win32,54.05405405,5e5f4c3f3d604727f7930fc1,65d2b6c8f2eece985d8e374c,65d2b899cb56009c7b584523,0.0544,0.0545,0,75,75,125,1,seveneight,,,,,,,,,,,,,,,,,,,,,,,,,,,,,,,,,,,,,,,,,,,,,,,,,,,,,,,,,,,,,,,,,,,,,,,,,,,,,,,,,,,,,,,,,,,,,,,,,,,,,,,,,,,,,,,,,,,,,,,,,,,,,,,,,,,,,,,,,
,,5e5f4c3f3d604727f7930fc1,2024-02-19_11h11.39.162,kallum_motion_pilot,2023.2.2,Win32,54.05405405,5e5f4c3f3d604727f7930fc1,65d2b6c8f2eece985d8e374c,65d2b899cb56009c7b584523,0.0546,0.0547,0,76,76,133,1,seveneight,,,,,,,,,,,,,,,,,,,,,,,,,,,,,,,,,,,,,,,,,,,,,,,,,,,,,,,,,,,,,,,,,,,,,,,,,,,,,,,,,,,,,,,,,,,,,,,,,,,,,,,,,,,,,,,,,,,,,,,,,,,,,,,,,,,,,,,,,
,,5e5f4c3f3d604727f7930fc1,2024-02-19_11h11.39.162,kallum_motion_pilot,2023.2.2,Win32,54.05405405,5e5f4c3f3d604727f7930fc1,65d2b6c8f2eece985d8e374c,65d2b899cb56009c7b584523,0.055,0.0551,0,77,77,119,1,eightseven,,,,,,,,,,,,,,,,,,,,,,,,,,,,,,,,,,,,,,,,,,,,,,,,,,,,,,,,,,,,,,,,,,,,,,,,,,,,,,,,,,,,,,,,,,,,,,,,,,,,,,,,,,,,,,,,,,,,,,,,,,,,,,,,,,,,,,,,,
,,5e5f4c3f3d604727f7930fc1,2024-02-19_11h11.39.162,kallum_motion_pilot,2023.2.2,Win32,54.05405405,5e5f4c3f3d604727f7930fc1,65d2b6c8f2eece985d8e374c,65d2b899cb56009c7b584523,0.0552,0.0552,0,78,78,155,1,sixeight,,,,,,,,,,,,,,,,,,,,,,,,,,,,,,,,,,,,,,,,,,,,,,,,,,,,,,,,,,,,,,,,,,,,,,,,,,,,,,,,,,,,,,,,,,,,,,,,,,,,,,,,,,,,,,,,,,,,,,,,,,,,,,,,,,,,,,,,,
,,5e5f4c3f3d604727f7930fc1,2024-02-19_11h11.39.162,kallum_motion_pilot,2023.2.2,Win32,54.05405405,5e5f4c3f3d604727f7930fc1,65d2b6c8f2eece985d8e374c,65d2b899cb56009c7b584523,0.0554,0.0555,0,79,79,56,1,onetwo,,,,,,,,,,,,,,,,,,,,,,,,,,,,,,,,,,,,,,,,,,,,,,,,,,,,,,,,,,,,,,,,,,,,,,,,,,,,,,,,,,,,,,,,,,,,,,,,,,,,,,,,,,,,,,,,,,,,,,,,,,,,,,,,,,,,,,,,,
,,5e5f4c3f3d604727f7930fc1,2024-02-19_11h11.39.162,kallum_motion_pilot,2023.2.2,Win32,54.05405405,5e5f4c3f3d604727f7930fc1,65d2b6c8f2eece985d8e374c,65d2b899cb56009c7b584523,0.0558,0.0558,0,80,80,17,1,onethree,,,,,,,,,,,,,,,,,,,,,,,,,,,,,,,,,,,,,,,,,,,,,,,,,,,,,,,,,,,,,,,,,,,,,,,,,,,,,,,,,,,,,,,,,,,,,,,,,,,,,,,,,,,,,,,,,,,,,,,,,,,,,,,,,,,,,,,,,
,,5e5f4c3f3d604727f7930fc1,2024-02-19_11h11.39.162,kallum_motion_pilot,2023.2.2,Win32,54.05405405,5e5f4c3f3d604727f7930fc1,65d2b6c8f2eece985d8e374c,65d2b899cb56009c7b584523,0.0559,0.056,0,81,81,128,1,fivesix,,,,,,,,,,,,,,,,,,,,,,,,,,,,,,,,,,,,,,,,,,,,,,,,,,,,,,,,,,,,,,,,,,,,,,,,,,,,,,,,,,,,,,,,,,,,,,,,,,,,,,,,,,,,,,,,,,,,,,,,,,,,,,,,,,,,,,,,,
,,5e5f4c3f3d604727f7930fc1,2024-02-19_11h11.39.162,kallum_motion_pilot,2023.2.2,Win32,54.05405405,5e5f4c3f3d604727f7930fc1,65d2b6c8f2eece985d8e374c,65d2b899cb56009c7b584523,0.0561,0.0561,0,82,82,68,1,threeone,,,,,,,,,,,,,,,,,,,,,,,,,,,,,,,,,,,,,,,,,,,,,,,,,,,,,,,,,,,,,,,,,,,,,,,,,,,,,,,,,,,,,,,,,,,,,,,,,,,,,,,,,,,,,,,,,,,,,,,,,,,,,,,,,,,,,,,,,
,,5e5f4c3f3d604727f7930fc1,2024-02-19_11h11.39.162,kallum_motion_pilot,2023.2.2,Win32,54.05405405,5e5f4c3f3d604727f7930fc1,65d2b6c8f2eece985d8e374c,65d2b899cb56009c7b584523,0.0563,0.0564,0,83,83,32,1,onetwo,,,,,,,,,,,,,,,,,,,,,,,,,,,,,,,,,,,,,,,,,,,,,,,,,,,,,,,,,,,,,,,,,,,,,,,,,,,,,,,,,,,,,,,,,,,,,,,,,,,,,,,,,,,,,,,,,,,,,,,,,,,,,,,,,,,,,,,,,
,,5e5f4c3f3d604727f7930fc1,2024-02-19_11h11.39.162,kallum_motion_pilot,2023.2.2,Win32,54.05405405,5e5f4c3f3d604727f7930fc1,65d2b6c8f2eece985d8e374c,65d2b899cb56009c7b584523,0.0564,0.0566,0,84,84,62,1,fourtwo,,,,,,,,,,,,,,,,,,,,,,,,,,,,,,,,,,,,,,,,,,,,,,,,,,,,,,,,,,,,,,,,,,,,,,,,,,,,,,,,,,,,,,,,,,,,,,,,,,,,,,,,,,,,,,,,,,,,,,,,,,,,,,,,,,,,,,,,,
,,5e5f4c3f3d604727f7930fc1,2024-02-19_11h11.39.162,kallum_motion_pilot,2023.2.2,Win32,54.05405405,5e5f4c3f3d604727f7930fc1,65d2b6c8f2eece985d8e374c,65d2b899cb56009c7b584523,0.0567,0.0567,0,85,85,67,1,twofour,,,,,,,,,,,,,,,,,,,,,,,,,,,,,,,,,,,,,,,,,,,,,,,,,,,,,,,,,,,,,,,,,,,,,,,,,,,,,,,,,,,,,,,,,,,,,,,,,,,,,,,,,,,,,,,,,,,,,,,,,,,,,,,,,,,,,,,,,
,,5e5f4c3f3d604727f7930fc1,2024-02-19_11h11.39.162,kallum_motion_pilot,2023.2.2,Win32,54.05405405,5e5f4c3f3d604727f7930fc1,65d2b6c8f2eece985d8e374c,65d2b899cb56009c7b584523,0.0569,0.057,0,86,86,149,1,seveneight,,,,,,,,,,,,,,,,,,,,,,,,,,,,,,,,,,,,,,,,,,,,,,,,,,,,,,,,,,,,,,,,,,,,,,,,,,,,,,,,,,,,,,,,,,,,,,,,,,,,,,,,,,,,,,,,,,,,,,,,,,,,,,,,,,,,,,,,,
,,5e5f4c3f3d604727f7930fc1,2024-02-19_11h11.39.162,kallum_motion_pilot,2023.2.2,Win32,54.05405405,5e5f4c3f3d604727f7930fc1,65d2b6c8f2eece985d8e374c,65d2b899cb56009c7b584523,0.0571,0.0572,0,87,87,83,1,sixeight,,,,,,,,,,,,,,,,,,,,,,,,,,,,,,,,,,,,,,,,,,,,,,,,,,,,,,,,,,,,,,,,,,,,,,,,,,,,,,,,,,,,,,,,,,,,,,,,,,,,,,,,,,,,,,,,,,,,,,,,,,,,,,,,,,,,,,,,,
,,5e5f4c3f3d604727f7930fc1,2024-02-19_11h11.39.162,kallum_motion_pilot,2023.2.2,Win32,54.05405405,5e5f4c3f3d604727f7930fc1,65d2b6c8f2eece985d8e374c,65d2b899cb56009c7b584523,0.0573,0.0575,0,88,88,1,1,onethree,,,,,,,,,,,,,,,,,,,,,,,,,,,,,,,,,,,,,,,,,,,,,,,,,,,,,,,,,,,,,,,,,,,,,,,,,,,,,,,,,,,,,,,,,,,,,,,,,,,,,,,,,,,,,,,,,,,,,,,,,,,,,,,,,,,,,,,,,
,,5e5f4c3f3d604727f7930fc1,2024-02-19_11h11.39.162,kallum_motion_pilot,2023.2.2,Win32,54.05405405,5e5f4c3f3d604727f7930fc1,65d2b6c8f2eece985d8e374c,65d2b899cb56009c7b584523,0.0576,0.0577,0,89,89,24,1,onetwo,,,,,,,,,,,,,,,,,,,,,,,,,,,,,,,,,,,,,,,,,,,,,,,,,,,,,,,,,,,,,,,,,,,,,,,,,,,,,,,,,,,,,,,,,,,,,,,,,,,,,,,,,,,,,,,,,,,,,,,,,,,,,,,,,,,,,,,,,
,,5e5f4c3f3d604727f7930fc1,2024-02-19_11h11.39.162,kallum_motion_pilot,2023.2.2,Win32,54.05405405,5e5f4c3f3d604727f7930fc1,65d2b6c8f2eece985d8e374c,65d2b899cb56009c7b584523,0.058,0.0582,0,90,90,116,1,sevenfive,,,,,,,,,,,,,,,,,,,,,,,,,,,,,,,,,,,,,,,,,,,,,,,,,,,,,,,,,,,,,,,,,,,,,,,,,,,,,,,,,,,,,,,,,,,,,,,,,,,,,,,,,,,,,,,,,,,,,,,,,,,,,,,,,,,,,,,,,
,,5e5f4c3f3d604727f7930fc1,2024-02-19_11h11.39.162,kallum_motion_pilot,2023.2.2,Win32,54.05405405,5e5f4c3f3d604727f7930fc1,65d2b6c8f2eece985d8e374c,65d2b899cb56009c7b584523,0.0585,0.0588,0,91,91,99,1,sixeight,,,,,,,,,,,,,,,,,,,,,,,,,,,,,,,,,,,,,,,,,,,,,,,,,,,,,,,,,,,,,,,,,,,,,,,,,,,,,,,,,,,,,,,,,,,,,,,,,,,,,,,,,,,,,,,,,,,,,,,,,,,,,,,,,,,,,,,,,
,,5e5f4c3f3d604727f7930fc1,2024-02-19_11h11.39.162,kallum_motion_pilot,2023.2.2,Win32,54.05405405,5e5f4c3f3d604727f7930fc1,65d2b6c8f2eece985d8e374c,65d2b899cb56009c7b584523,0.0594,0.0595,0,92,92,106,1,sixfive,,,,,,,,,,,,,,,,,,,,,,,,,,,,,,,,,,,,,,,,,,,,,,,,,,,,,,,,,,,,,,,,,,,,,,,,,,,,,,,,,,,,,,,,,,,,,,,,,,,,,,,,,,,,,,,,,,,,,,,,,,,,,,,,,,,,,,,,,
,,5e5f4c3f3d604727f7930fc1,2024-02-19_11h11.39.162,kallum_motion_pilot,2023.2.2,Win32,54.05405405,5e5f4c3f3d604727f7930fc1,65d2b6c8f2eece985d8e374c,65d2b899cb56009c7b584523,0.0597,0.0599,0,93,93,92,1,sevenfive,,,,,,,,,,,,,,,,,,,,,,,,,,,,,,,,,,,,,,,,,,,,,,,,,,,,,,,,,,,,,,,,,,,,,,,,,,,,,,,,,,,,,,,,,,,,,,,,,,,,,,,,,,,,,,,,,,,,,,,,,,,,,,,,,,,,,,,,,
,,5e5f4c3f3d604727f7930fc1,2024-02-19_11h11.39.162,kallum_motion_pilot,2023.2.2,Win32,54.05405405,5e5f4c3f3d604727f7930fc1,65d2b6c8f2eece985d8e374c,65d2b899cb56009c7b584523,0.06,0.0601,0,94,94,9,1,onethree,,,,,,,,,,,,,,,,,,,,,,,,,,,,,,,,,,,,,,,,,,,,,,,,,,,,,,,,,,,,,,,,,,,,,,,,,,,,,,,,,,,,,,,,,,,,,,,,,,,,,,,,,,,,,,,,,,,,,,,,,,,,,,,,,,,,,,,,,
,,5e5f4c3f3d604727f7930fc1,2024-02-19_11h11.39.162,kallum_motion_pilot,2023.2.2,Win32,54.05405405,5e5f4c3f3d604727f7930fc1,65d2b6c8f2eece985d8e374c,65d2b899cb56009c7b584523,0.0604,0.0604,0,95,95,130,1,sixfive,,,,,,,,,,,,,,,,,,,,,,,,,,,,,,,,,,,,,,,,,,,,,,,,,,,,,,,,,,,,,,,,,,,,,,,,,,,,,,,,,,,,,,,,,,,,,,,,,,,,,,,,,,,,,,,,,,,,,,,,,,,,,,,,,,,,,,,,,
,,5e5f4c3f3d604727f7930fc1,2024-02-19_11h11.39.162,kallum_motion_pilot,2023.2.2,Win32,54.05405405,5e5f4c3f3d604727f7930fc1,65d2b6c8f2eece985d8e374c,65d2b899cb56009c7b584523,0.0606,0.0607,0,96,96,11,1,twofour,,,,,,,,,,,,,,,,,,,,,,,,,,,,,,,,,,,,,,,,,,,,,,,,,,,,,,,,,,,,,,,,,,,,,,,,,,,,,,,,,,,,,,,,,,,,,,,,,,,,,,,,,,,,,,,,,,,,,,,,,,,,,,,,,,,,,,,,,
,,5e5f4c3f3d604727f7930fc1,2024-02-19_11h11.39.162,kallum_motion_pilot,2023.2.2,Win32,54.05405405,5e5f4c3f3d604727f7930fc1,65d2b6c8f2eece985d8e374c,65d2b899cb56009c7b584523,0.0609,0.0609,0,97,97,81,1,fiveseven,,,,,,,,,,,,,,,,,,,,,,,,,,,,,,,,,,,,,,,,,,,,,,,,,,,,,,,,,,,,,,,,,,,,,,,,,,,,,,,,,,,,,,,,,,,,,,,,,,,,,,,,,,,,,,,,,,,,,,,,,,,,,,,,,,,,,,,,,
,,5e5f4c3f3d604727f7930fc1,2024-02-19_11h11.39.162,kallum_motion_pilot,2023.2.2,Win32,54.05405405,5e5f4c3f3d604727f7930fc1,65d2b6c8f2eece985d8e374c,65d2b899cb56009c7b584523,0.0611,0.0612,0,98,98,37,1,threefour,,,,,,,,,,,,,,,,,,,,,,,,,,,,,,,,,,,,,,,,,,,,,,,,,,,,,,,,,,,,,,,,,,,,,,,,,,,,,,,,,,,,,,,,,,,,,,,,,,,,,,,,,,,,,,,,,,,,,,,,,,,,,,,,,,,,,,,,,
,,5e5f4c3f3d604727f7930fc1,2024-02-19_11h11.39.162,kallum_motion_pilot,2023.2.2,Win32,54.05405405,5e5f4c3f3d604727f7930fc1,65d2b6c8f2eece985d8e374c,65d2b899cb56009c7b584523,0.0614,0.0614,0,99,99,61,1,threefour,,,,,,,,,,,,,,,,,,,,,,,,,,,,,,,,,,,,,,,,,,,,,,,,,,,,,,,,,,,,,,,,,,,,,,,,,,,,,,,,,,,,,,,,,,,,,,,,,,,,,,,,,,,,,,,,,,,,,,,,,,,,,,,,,,,,,,,,,
,,5e5f4c3f3d604727f7930fc1,2024-02-19_11h11.39.162,kallum_motion_pilot,2023.2.2,Win32,54.05405405,5e5f4c3f3d604727f7930fc1,65d2b6c8f2eece985d8e374c,65d2b899cb56009c7b584523,0.0617,0.0618,0,100,100,5,1,threefour,,,,,,,,,,,,,,,,,,,,,,,,,,,,,,,,,,,,,,,,,,,,,,,,,,,,,,,,,,,,,,,,,,,,,,,,,,,,,,,,,,,,,,,,,,,,,,,,,,,,,,,,,,,,,,,,,,,,,,,,,,,,,,,,,,,,,,,,,
,,5e5f4c3f3d604727f7930fc1,2024-02-19_11h11.39.162,kallum_motion_pilot,2023.2.2,Win32,54.05405405,5e5f4c3f3d604727f7930fc1,65d2b6c8f2eece985d8e374c,65d2b899cb56009c7b584523,0.062,0.0621,0,101,101,103,1,eightseven,,,,,,,,,,,,,,,,,,,,,,,,,,,,,,,,,,,,,,,,,,,,,,,,,,,,,,,,,,,,,,,,,,,,,,,,,,,,,,,,,,,,,,,,,,,,,,,,,,,,,,,,,,,,,,,,,,,,,,,,,,,,,,,,,,,,,,,,,
,,5e5f4c3f3d604727f7930fc1,2024-02-19_11h11.39.162,kallum_motion_pilot,2023.2.2,Win32,54.05405405,5e5f4c3f3d604727f7930fc1,65d2b6c8f2eece985d8e374c,65d2b899cb56009c7b584523,0.0623,0.0624,0,102,102,118,1,eightsix,,,,,,,,,,,,,,,,,,,,,,,,,,,,,,,,,,,,,,,,,,,,,,,,,,,,,,,,,,,,,,,,,,,,,,,,,,,,,,,,,,,,,,,,,,,,,,,,,,,,,,,,,,,,,,,,,,,,,,,,,,,,,,,,,,,,,,,,,
,,5e5f4c3f3d604727f7930fc1,2024-02-19_11h11.39.162,kallum_motion_pilot,2023.2.2,Win32,54.05405405,5e5f4c3f3d604727f7930fc1,65d2b6c8f2eece985d8e374c,65d2b899cb56009c7b584523,0.0627,0.0628,0,103,103,36,1,threeone,,,,,,,,,,,,,,,,,,,,,,,,,,,,,,,,,,,,,,,,,,,,,,,,,,,,,,,,,,,,,,,,,,,,,,,,,,,,,,,,,,,,,,,,,,,,,,,,,,,,,,,,,,,,,,,,,,,,,,,,,,,,,,,,,,,,,,,,,
,,5e5f4c3f3d604727f7930fc1,2024-02-19_11h11.39.162,kallum_motion_pilot,2023.2.2,Win32,54.05405405,5e5f4c3f3d604727f7930fc1,65d2b6c8f2eece985d8e374c,65d2b899cb56009c7b584523,0.0629,0.063,0,104,104,27,1,twofour,,,,,,,,,,,,,,,,,,,,,,,,,,,,,,,,,,,,,,,,,,,,,,,,,,,,,,,,,,,,,,,,,,,,,,,,,,,,,,,,,,,,,,,,,,,,,,,,,,,,,,,,,,,,,,,,,,,,,,,,,,,,,,,,,,,,,,,,,
,,5e5f4c3f3d604727f7930fc1,2024-02-19_11h11.39.162,kallum_motion_pilot,2023.2.2,Win32,54.05405405,5e5f4c3f3d604727f7930fc1,65d2b6c8f2eece985d8e374c,65d2b899cb56009c7b584523,0.0632,0.0633,0,105,105,107,1,sixeight,,,,,,,,,,,,,,,,,,,,,,,,,,,,,,,,,,,,,,,,,,,,,,,,,,,,,,,,,,,,,,,,,,,,,,,,,,,,,,,,,,,,,,,,,,,,,,,,,,,,,,,,,,,,,,,,,,,,,,,,,,,,,,,,,,,,,,,,,
,,5e5f4c3f3d604727f7930fc1,2024-02-19_11h11.39.162,kallum_motion_pilot,2023.2.2,Win32,54.05405405,5e5f4c3f3d604727f7930fc1,65d2b6c8f2eece985d8e374c,65d2b899cb56009c7b584523,0.0635,0.0635,0,106,106,42,1,twoone,,,,,,,,,,,,,,,,,,,,,,,,,,,,,,,,,,,,,,,,,,,,,,,,,,,,,,,,,,,,,,,,,,,,,,,,,,,,,,,,,,,,,,,,,,,,,,,,,,,,,,,,,,,,,,,,,,,,,,,,,,,,,,,,,,,,,,,,,
,,5e5f4c3f3d604727f7930fc1,2024-02-19_11h11.39.162,kallum_motion_pilot,2023.2.2,Win32,54.05405405,5e5f4c3f3d604727f7930fc1,65d2b6c8f2eece985d8e374c,65d2b899cb56009c7b584523,0.0636,0.0637,0,107,107,122,1,sixfive,,,,,,,,,,,,,,,,,,,,,,,,,,,,,,,,,,,,,,,,,,,,,,,,,,,,,,,,,,,,,,,,,,,,,,,,,,,,,,,,,,,,,,,,,,,,,,,,,,,,,,,,,,,,,,,,,,,,,,,,,,,,,,,,,,,,,,,,,
,,5e5f4c3f3d604727f7930fc1,2024-02-19_11h11.39.162,kallum_motion_pilot,2023.2.2,Win32,54.05405405,5e5f4c3f3d604727f7930fc1,65d2b6c8f2eece985d8e374c,65d2b899cb56009c7b584523,0.0639,0.0639,0,108,108,65,1,onethree,,,,,,,,,,,,,,,,,,,,,,,,,,,,,,,,,,,,,,,,,,,,,,,,,,,,,,,,,,,,,,,,,,,,,,,,,,,,,,,,,,,,,,,,,,,,,,,,,,,,,,,,,,,,,,,,,,,,,,,,,,,,,,,,,,,,,,,,,
,,5e5f4c3f3d604727f7930fc1,2024-02-19_11h11.39.162,kallum_motion_pilot,2023.2.2,Win32,54.05405405,5e5f4c3f3d604727f7930fc1,65d2b6c8f2eece985d8e374c,65d2b899cb56009c7b584523,0.0641,0.0642,0,109,109,6,1,fourtwo,,,,,,,,,,,,,,,,,,,,,,,,,,,,,,,,,,,,,,,,,,,,,,,,,,,,,,,,,,,,,,,,,,,,,,,,,,,,,,,,,,,,,,,,,,,,,,,,,,,,,,,,,,,,,,,,,,,,,,,,,,,,,,,,,,,,,,,,,
,,5e5f4c3f3d604727f7930fc1,2024-02-19_11h11.39.162,kallum_motion_pilot,2023.2.2,Win32,54.05405405,5e5f4c3f3d604727f7930fc1,65d2b6c8f2eece985d8e374c,65d2b899cb56009c7b584523,0.0642,0.0643,0,110,110,35,1,twofour,,,,,,,,,,,,,,,,,,,,,,,,,,,,,,,,,,,,,,,,,,,,,,,,,,,,,,,,,,,,,,,,,,,,,,,,,,,,,,,,,,,,,,,,,,,,,,,,,,,,,,,,,,,,,,,,,,,,,,,,,,,,,,,,,,,,,,,,,
,,5e5f4c3f3d604727f7930fc1,2024-02-19_11h11.39.162,kallum_motion_pilot,2023.2.2,Win32,54.05405405,5e5f4c3f3d604727f7930fc1,65d2b6c8f2eece985d8e374c,65d2b899cb56009c7b584523,0.0644,0.0646,0,111,111,18,1,twoone,,,,,,,,,,,,,,,,,,,,,,,,,,,,,,,,,,,,,,,,,,,,,,,,,,,,,,,,,,,,,,,,,,,,,,,,,,,,,,,,,,,,,,,,,,,,,,,,,,,,,,,,,,,,,,,,,,,,,,,,,,,,,,,,,,,,,,,,,
,,5e5f4c3f3d604727f7930fc1,2024-02-19_11h11.39.162,kallum_motion_pilot,2023.2.2,Win32,54.05405405,5e5f4c3f3d604727f7930fc1,65d2b6c8f2eece985d8e374c,65d2b899cb56009c7b584523,0.0646,0.0647,0,112,112,73,1,onethree,,,,,,,,,,,,,,,,,,,,,,,,,,,,,,,,,,,,,,,,,,,,,,,,,,,,,,,,,,,,,,,,,,,,,,,,,,,,,,,,,,,,,,,,,,,,,,,,,,,,,,,,,,,,,,,,,,,,,,,,,,,,,,,,,,,,,,,,,
,,5e5f4c3f3d604727f7930fc1,2024-02-19_11h11.39.162,kallum_motion_pilot,2023.2.2,Win32,54.05405405,5e5f4c3f3d604727f7930fc1,65d2b6c8f2eece985d8e374c,65d2b899cb56009c7b584523,0.0648,0.0649,0,113,113,140,1,sevenfive,,,,,,,,,,,,,,,,,,,,,,,,,,,,,,,,,,,,,,,,,,,,,,,,,,,,,,,,,,,,,,,,,,,,,,,,,,,,,,,,,,,,,,,,,,,,,,,,,,,,,,,,,,,,,,,,,,,,,,,,,,,,,,,,,,,,,,,,,
,,5e5f4c3f3d604727f7930fc1,2024-02-19_11h11.39.162,kallum_motion_pilot,2023.2.2,Win32,54.05405405,5e5f4c3f3d604727f7930fc1,65d2b6c8f2eece985d8e374c,65d2b899cb56009c7b584523,0.0651,0.0652,0,114,114,134,1,eightsix,,,,,,,,,,,,,,,,,,,,,,,,,,,,,,,,,,,,,,,,,,,,,,,,,,,,,,,,,,,,,,,,,,,,,,,,,,,,,,,,,,,,,,,,,,,,,,,,,,,,,,,,,,,,,,,,,,,,,,,,,,,,,,,,,,,,,,,,,
,,5e5f4c3f3d604727f7930fc1,2024-02-19_11h11.39.162,kallum_motion_pilot,2023.2.2,Win32,54.05405405,5e5f4c3f3d604727f7930fc1,65d2b6c8f2eece985d8e374c,65d2b899cb56009c7b584523,0.0652,0.0653,0,115,115,101,1,seveneight,,,,,,,,,,,,,,,,,,,,,,,,,,,,,,,,,,,,,,,,,,,,,,,,,,,,,,,,,,,,,,,,,,,,,,,,,,,,,,,,,,,,,,,,,,,,,,,,,,,,,,,,,,,,,,,,,,,,,,,,,,,,,,,,,,,,,,,,,
,,5e5f4c3f3d604727f7930fc1,2024-02-19_11h11.39.162,kallum_motion_pilot,2023.2.2,Win32,54.05405405,5e5f4c3f3d604727f7930fc1,65d2b6c8f2eece985d8e374c,65d2b899cb56009c7b584523,0.0654,0.0656,0,116,116,50,1,twoone,,,,,,,,,,,,,,,,,,,,,,,,,,,,,,,,,,,,,,,,,,,,,,,,,,,,,,,,,,,,,,,,,,,,,,,,,,,,,,,,,,,,,,,,,,,,,,,,,,,,,,,,,,,,,,,,,,,,,,,,,,,,,,,,,,,,,,,,,
,,5e5f4c3f3d604727f7930fc1,2024-02-19_11h11.39.162,kallum_motion_pilot,2023.2.2,Win32,54.05405405,5e5f4c3f3d604727f7930fc1,65d2b6c8f2eece985d8e374c,65d2b899cb56009c7b584523,0.0656,0.0657,0,117,117,157,1,seveneight,,,,,,,,,,,,,,,,,,,,,,,,,,,,,,,,,,,,,,,,,,,,,,,,,,,,,,,,,,,,,,,,,,,,,,,,,,,,,,,,,,,,,,,,,,,,,,,,,,,,,,,,,,,,,,,,,,,,,,,,,,,,,,,,,,,,,,,,,
,,5e5f4c3f3d604727f7930fc1,2024-02-19_11h11.39.162,kallum_motion_pilot,2023.2.2,Win32,54.05405405,5e5f4c3f3d604727f7930fc1,65d2b6c8f2eece985d8e374c,65d2b899cb56009c7b584523,0.0659,0.0659,0,118,118,113,1,fiveseven,,,,,,,,,,,,,,,,,,,,,,,,,,,,,,,,,,,,,,,,,,,,,,,,,,,,,,,,,,,,,,,,,,,,,,,,,,,,,,,,,,,,,,,,,,,,,,,,,,,,,,,,,,,,,,,,,,,,,,,,,,,,,,,,,,,,,,,,,
,,5e5f4c3f3d604727f7930fc1,2024-02-19_11h11.39.162,kallum_motion_pilot,2023.2.2,Win32,54.05405405,5e5f4c3f3d604727f7930fc1,65d2b6c8f2eece985d8e374c,65d2b899cb56009c7b584523,0.066,0.0662,0,119,119,77,1,threefour,,,,,,,,,,,,,,,,,,,,,,,,,,,,,,,,,,,,,,,,,,,,,,,,,,,,,,,,,,,,,,,,,,,,,,,,,,,,,,,,,,,,,,,,,,,,,,,,,,,,,,,,,,,,,,,,,,,,,,,,,,,,,,,,,,,,,,,,,
,,5e5f4c3f3d604727f7930fc1,2024-02-19_11h11.39.162,kallum_motion_pilot,2023.2.2,Win32,54.05405405,5e5f4c3f3d604727f7930fc1,65d2b6c8f2eece985d8e374c,65d2b899cb56009c7b584523,0.0663,0.0664,0,120,120,143,1,eightseven,,,,,,,,,,,,,,,,,,,,,,,,,,,,,,,,,,,,,,,,,,,,,,,,,,,,,,,,,,,,,,,,,,,,,,,,,,,,,,,,,,,,,,,,,,,,,,,,,,,,,,,,,,,,,,,,,,,,,,,,,,,,,,,,,,,,,,,,,
,,5e5f4c3f3d604727f7930fc1,2024-02-19_11h11.39.162,kallum_motion_pilot,2023.2.2,Win32,54.05405405,5e5f4c3f3d604727f7930fc1,65d2b6c8f2eece985d8e374c,65d2b899cb56009c7b584523,0.0665,0.0666,0,121,121,23,1,fourthree,,,,,,,,,,,,,,,,,,,,,,,,,,,,,,,,,,,,,,,,,,,,,,,,,,,,,,,,,,,,,,,,,,,,,,,,,,,,,,,,,,,,,,,,,,,,,,,,,,,,,,,,,,,,,,,,,,,,,,,,,,,,,,,,,,,,,,,,,
,,5e5f4c3f3d604727f7930fc1,2024-02-19_11h11.39.162,kallum_motion_pilot,2023.2.2,Win32,54.05405405,5e5f4c3f3d604727f7930fc1,65d2b6c8f2eece985d8e374c,65d2b899cb56009c7b584523,0.0668,0.0668,0,122,122,66,1,twoone,,,,,,,,,,,,,,,,,,,,,,,,,,,,,,,,,,,,,,,,,,,,,,,,,,,,,,,,,,,,,,,,,,,,,,,,,,,,,,,,,,,,,,,,,,,,,,,,,,,,,,,,,,,,,,,,,,,,,,,,,,,,,,,,,,,,,,,,,
,,5e5f4c3f3d604727f7930fc1,2024-02-19_11h11.39.162,kallum_motion_pilot,2023.2.2,Win32,54.05405405,5e5f4c3f3d604727f7930fc1,65d2b6c8f2eece985d8e374c,65d2b899cb56009c7b584523,0.0671,0.0672,0,123,123,4,1,threeone,,,,,,,,,,,,,,,,,,,,,,,,,,,,,,,,,,,,,,,,,,,,,,,,,,,,,,,,,,,,,,,,,,,,,,,,,,,,,,,,,,,,,,,,,,,,,,,,,,,,,,,,,,,,,,,,,,,,,,,,,,,,,,,,,,,,,,,,,
,,5e5f4c3f3d604727f7930fc1,2024-02-19_11h11.39.162,kallum_motion_pilot,2023.2.2,Win32,54.05405405,5e5f4c3f3d604727f7930fc1,65d2b6c8f2eece985d8e374c,65d2b899cb56009c7b584523,0.0674,0.0675,0,124,124,0,1,onetwo,,,,,,,,,,,,,,,,,,,,,,,,,,,,,,,,,,,,,,,,,,,,,,,,,,,,,,,,,,,,,,,,,,,,,,,,,,,,,,,,,,,,,,,,,,,,,,,,,,,,,,,,,,,,,,,,,,,,,,,,,,,,,,,,,,,,,,,,,
,,5e5f4c3f3d604727f7930fc1,2024-02-19_11h11.39.162,kallum_motion_pilot,2023.2.2,Win32,54.05405405,5e5f4c3f3d604727f7930fc1,65d2b6c8f2eece985d8e374c,65d2b899cb56009c7b584523,0.0677,0.0679,0,125,125,14,1,fourtwo,,,,,,,,,,,,,,,,,,,,,,,,,,,,,,,,,,,,,,,,,,,,,,,,,,,,,,,,,,,,,,,,,,,,,,,,,,,,,,,,,,,,,,,,,,,,,,,,,,,,,,,,,,,,,,,,,,,,,,,,,,,,,,,,,,,,,,,,,
,,5e5f4c3f3d604727f7930fc1,2024-02-19_11h11.39.162,kallum_motion_pilot,2023.2.2,Win32,54.05405405,5e5f4c3f3d604727f7930fc1,65d2b6c8f2eece985d8e374c,65d2b899cb56009c7b584523,0.0681,0.0683,0,126,126,31,1,fourthree,,,,,,,,,,,,,,,,,,,,,,,,,,,,,,,,,,,,,,,,,,,,,,,,,,,,,,,,,,,,,,,,,,,,,,,,,,,,,,,,,,,,,,,,,,,,,,,,,,,,,,,,,,,,,,,,,,,,,,,,,,,,,,,,,,,,,,,,,
,,5e5f4c3f3d604727f7930fc1,2024-02-19_11h11.39.162,kallum_motion_pilot,2023.2.2,Win32,54.05405405,5e5f4c3f3d604727f7930fc1,65d2b6c8f2eece985d8e374c,65d2b899cb56009c7b584523,0.0684,0.0684,0,127,127,90,1,sixfive,,,,,,,,,,,,,,,,,,,,,,,,,,,,,,,,,,,,,,,,,,,,,,,,,,,,,,,,,,,,,,,,,,,,,,,,,,,,,,,,,,,,,,,,,,,,,,,,,,,,,,,,,,,,,,,,,,,,,,,,,,,,,,,,,,,,,,,,,
,,5e5f4c3f3d604727f7930fc1,2024-02-19_11h11.39.162,kallum_motion_pilot,2023.2.2,Win32,54.05405405,5e5f4c3f3d604727f7930fc1,65d2b6c8f2eece985d8e374c,65d2b899cb56009c7b584523,0.0686,0.0686,0,128,128,150,1,eightsix,,,,,,,,,,,,,,,,,,,,,,,,,,,,,,,,,,,,,,,,,,,,,,,,,,,,,,,,,,,,,,,,,,,,,,,,,,,,,,,,,,,,,,,,,,,,,,,,,,,,,,,,,,,,,,,,,,,,,,,,,,,,,,,,,,,,,,,,,
,,5e5f4c3f3d604727f7930fc1,2024-02-19_11h11.39.162,kallum_motion_pilot,2023.2.2,Win32,54.05405405,5e5f4c3f3d604727f7930fc1,65d2b6c8f2eece985d8e374c,65d2b899cb56009c7b584523,0.0687,0.0688,0,129,129,21,1,threefour,,,,,,,,,,,,,,,,,,,,,,,,,,,,,,,,,,,,,,,,,,,,,,,,,,,,,,,,,,,,,,,,,,,,,,,,,,,,,,,,,,,,,,,,,,,,,,,,,,,,,,,,,,,,,,,,,,,,,,,,,,,,,,,,,,,,,,,,,
,,5e5f4c3f3d604727f7930fc1,2024-02-19_11h11.39.162,kallum_motion_pilot,2023.2.2,Win32,54.05405405,5e5f4c3f3d604727f7930fc1,65d2b6c8f2eece985d8e374c,65d2b899cb56009c7b584523,0.0689,0.069,0,130,130,30,1,fourtwo,,,,,,,,,,,,,,,,,,,,,,,,,,,,,,,,,,,,,,,,,,,,,,,,,,,,,,,,,,,,,,,,,,,,,,,,,,,,,,,,,,,,,,,,,,,,,,,,,,,,,,,,,,,,,,,,,,,,,,,,,,,,,,,,,,,,,,,,,
,,5e5f4c3f3d604727f7930fc1,2024-02-19_11h11.39.162,kallum_motion_pilot,2023.2.2,Win32,54.05405405,5e5f4c3f3d604727f7930fc1,65d2b6c8f2eece985d8e374c,65d2b899cb56009c7b584523,0.0691,0.0692,0,131,131,100,1,sevenfive,,,,,,,,,,,,,,,,,,,,,,,,,,,,,,,,,,,,,,,,,,,,,,,,,,,,,,,,,,,,,,,,,,,,,,,,,,,,,,,,,,,,,,,,,,,,,,,,,,,,,,,,,,,,,,,,,,,,,,,,,,,,,,,,,,,,,,,,,
,,5e5f4c3f3d604727f7930fc1,2024-02-19_11h11.39.162,kallum_motion_pilot,2023.2.2,Win32,54.05405405,5e5f4c3f3d604727f7930fc1,65d2b6c8f2eece985d8e374c,65d2b899cb56009c7b584523,0.0693,0.0694,0,132,132,8,1,onetwo,,,,,,,,,,,,,,,,,,,,,,,,,,,,,,,,,,,,,,,,,,,,,,,,,,,,,,,,,,,,,,,,,,,,,,,,,,,,,,,,,,,,,,,,,,,,,,,,,,,,,,,,,,,,,,,,,,,,,,,,,,,,,,,,,,,,,,,,,
,,5e5f4c3f3d604727f7930fc1,2024-02-19_11h11.39.162,kallum_motion_pilot,2023.2.2,Win32,54.05405405,5e5f4c3f3d604727f7930fc1,65d2b6c8f2eece985d8e374c,65d2b899cb56009c7b584523,0.0695,0.0695,0,133,133,22,1,fourtwo,,,,,,,,,,,,,,,,,,,,,,,,,,,,,,,,,,,,,,,,,,,,,,,,,,,,,,,,,,,,,,,,,,,,,,,,,,,,,,,,,,,,,,,,,,,,,,,,,,,,,,,,,,,,,,,,,,,,,,,,,,,,,,,,,,,,,,,,,
,,5e5f4c3f3d604727f7930fc1,2024-02-19_11h11.39.162,kallum_motion_pilot,2023.2.2,Win32,54.05405405,5e5f4c3f3d604727f7930fc1,65d2b6c8f2eece985d8e374c,65d2b899cb56009c7b584523,0.0696,0.0698,0,134,134,80,1,fivesix,,,,,,,,,,,,,,,,,,,,,,,,,,,,,,,,,,,,,,,,,,,,,,,,,,,,,,,,,,,,,,,,,,,,,,,,,,,,,,,,,,,,,,,,,,,,,,,,,,,,,,,,,,,,,,,,,,,,,,,,,,,,,,,,,,,,,,,,,
,,5e5f4c3f3d604727f7930fc1,2024-02-19_11h11.39.162,kallum_motion_pilot,2023.2.2,Win32,54.05405405,5e5f4c3f3d604727f7930fc1,65d2b6c8f2eece985d8e374c,65d2b899cb56009c7b584523,0.0699,0.0701,0,135,135,29,1,threefour,,,,,,,,,,,,,,,,,,,,,,,,,,,,,,,,,,,,,,,,,,,,,,,,,,,,,,,,,,,,,,,,,,,,,,,,,,,,,,,,,,,,,,,,,,,,,,,,,,,,,,,,,,,,,,,,,,,,,,,,,,,,,,,,,,,,,,,,,
,,5e5f4c3f3d604727f7930fc1,2024-02-19_11h11.39.162,kallum_motion_pilot,2023.2.2,Win32,54.05405405,5e5f4c3f3d604727f7930fc1,65d2b6c8f2eece985d8e374c,65d2b899cb56009c7b584523,0.0702,0.0704,0,136,136,78,1,fourtwo,,,,,,,,,,,,,,,,,,,,,,,,,,,,,,,,,,,,,,,,,,,,,,,,,,,,,,,,,,,,,,,,,,,,,,,,,,,,,,,,,,,,,,,,,,,,,,,,,,,,,,,,,,,,,,,,,,,,,,,,,,,,,,,,,,,,,,,,,
,,5e5f4c3f3d604727f7930fc1,2024-02-19_11h11.39.162,kallum_motion_pilot,2023.2.2,Win32,54.05405405,5e5f4c3f3d604727f7930fc1,65d2b6c8f2eece985d8e374c,65d2b899cb56009c7b584523,0.0705,0.0706,0,137,137,86,1,eightsix,,,,,,,,,,,,,,,,,,,,,,,,,,,,,,,,,,,,,,,,,,,,,,,,,,,,,,,,,,,,,,,,,,,,,,,,,,,,,,,,,,,,,,,,,,,,,,,,,,,,,,,,,,,,,,,,,,,,,,,,,,,,,,,,,,,,,,,,,
,,5e5f4c3f3d604727f7930fc1,2024-02-19_11h11.39.162,kallum_motion_pilot,2023.2.2,Win32,54.05405405,5e5f4c3f3d604727f7930fc1,65d2b6c8f2eece985d8e374c,65d2b899cb56009c7b584523,0.0708,0.0709,0,138,138,110,1,eightsix,,,,,,,,,,,,,,,,,,,,,,,,,,,,,,,,,,,,,,,,,,,,,,,,,,,,,,,,,,,,,,,,,,,,,,,,,,,,,,,,,,,,,,,,,,,,,,,,,,,,,,,,,,,,,,,,,,,,,,,,,,,,,,,,,,,,,,,,,
,,5e5f4c3f3d604727f7930fc1,2024-02-19_11h11.39.162,kallum_motion_pilot,2023.2.2,Win32,54.05405405,5e5f4c3f3d604727f7930fc1,65d2b6c8f2eece985d8e374c,65d2b899cb56009c7b584523,0.071,0.0711,0,139,139,124,1,sevenfive,,,,,,,,,,,,,,,,,,,,,,,,,,,,,,,,,,,,,,,,,,,,,,,,,,,,,,,,,,,,,,,,,,,,,,,,,,,,,,,,,,,,,,,,,,,,,,,,,,,,,,,,,,,,,,,,,,,,,,,,,,,,,,,,,,,,,,,,,
,,5e5f4c3f3d604727f7930fc1,2024-02-19_11h11.39.162,kallum_motion_pilot,2023.2.2,Win32,54.05405405,5e5f4c3f3d604727f7930fc1,65d2b6c8f2eece985d8e374c,65d2b899cb56009c7b584523,0.0712,0.0713,0,140,140,43,1,twofour,,,,,,,,,,,,,,,,,,,,,,,,,,,,,,,,,,,,,,,,,,,,,,,,,,,,,,,,,,,,,,,,,,,,,,,,,,,,,,,,,,,,,,,,,,,,,,,,,,,,,,,,,,,,,,,,,,,,,,,,,,,,,,,,,,,,,,,,,
,,5e5f4c3f3d604727f7930fc1,2024-02-19_11h11.39.162,kallum_motion_pilot,2023.2.2,Win32,54.05405405,5e5f4c3f3d604727f7930fc1,65d2b6c8f2eece985d8e374c,65d2b899cb56009c7b584523,0.0714,0.0716,0,141,141,123,1,sixeight,,,,,,,,,,,,,,,,,,,,,,,,,,,,,,,,,,,,,,,,,,,,,,,,,,,,,,,,,,,,,,,,,,,,,,,,,,,,,,,,,,,,,,,,,,,,,,,,,,,,,,,,,,,,,,,,,,,,,,,,,,,,,,,,,,,,,,,,,
,,5e5f4c3f3d604727f7930fc1,2024-02-19_11h11.39.162,kallum_motion_pilot,2023.2.2,Win32,54.05405405,5e5f4c3f3d604727f7930fc1,65d2b6c8f2eece985d8e374c,65d2b899cb56009c7b584523,0.0717,0.0718,0,142,142,154,1,sixfive,,,,,,,,,,,,,,,,,,,,,,,,,,,,,,,,,,,,,,,,,,,,,,,,,,,,,,,,,,,,,,,,,,,,,,,,,,,,,,,,,,,,,,,,,,,,,,,,,,,,,,,,,,,,,,,,,,,,,,,,,,,,,,,,,,,,,,,,,
,,5e5f4c3f3d604727f7930fc1,2024-02-19_11h11.39.162,kallum_motion_pilot,2023.2.2,Win32,54.05405405,5e5f4c3f3d604727f7930fc1,65d2b6c8f2eece985d8e374c,65d2b899cb56009c7b584523,0.072,0.0721,0,143,143,63,1,fourthree,,,,,,,,,,,,,,,,,,,,,,,,,,,,,,,,,,,,,,,,,,,,,,,,,,,,,,,,,,,,,,,,,,,,,,,,,,,,,,,,,,,,,,,,,,,,,,,,,,,,,,,,,,,,,,,,,,,,,,,,,,,,,,,,,,,,,,,,,
,,5e5f4c3f3d604727f7930fc1,2024-02-19_11h11.39.162,kallum_motion_pilot,2023.2.2,Win32,54.05405405,5e5f4c3f3d604727f7930fc1,65d2b6c8f2eece985d8e374c,65d2b899cb56009c7b584523,0.0723,0.0723,0,144,144,41,1,onethree,,,,,,,,,,,,,,,,,,,,,,,,,,,,,,,,,,,,,,,,,,,,,,,,,,,,,,,,,,,,,,,,,,,,,,,,,,,,,,,,,,,,,,,,,,,,,,,,,,,,,,,,,,,,,,,,,,,,,,,,,,,,,,,,,,,,,,,,,
,,5e5f4c3f3d604727f7930fc1,2024-02-19_11h11.39.162,kallum_motion_pilot,2023.2.2,Win32,54.05405405,5e5f4c3f3d604727f7930fc1,65d2b6c8f2eece985d8e374c,65d2b899cb56009c7b584523,0.0724,0.0725,0,145,145,95,1,eightseven,,,,,,,,,,,,,,,,,,,,,,,,,,,,,,,,,,,,,,,,,,,,,,,,,,,,,,,,,,,,,,,,,,,,,,,,,,,,,,,,,,,,,,,,,,,,,,,,,,,,,,,,,,,,,,,,,,,,,,,,,,,,,,,,,,,,,,,,,
,,5e5f4c3f3d604727f7930fc1,2024-02-19_11h11.39.162,kallum_motion_pilot,2023.2.2,Win32,54.05405405,5e5f4c3f3d604727f7930fc1,65d2b6c8f2eece985d8e374c,65d2b899cb56009c7b584523,0.0726,0.0728,0,146,146,16,1,onetwo,,,,,,,,,,,,,,,,,,,,,,,,,,,,,,,,,,,,,,,,,,,,,,,,,,,,,,,,,,,,,,,,,,,,,,,,,,,,,,,,,,,,,,,,,,,,,,,,,,,,,,,,,,,,,,,,,,,,,,,,,,,,,,,,,,,,,,,,,
,,5e5f4c3f3d604727f7930fc1,2024-02-19_11h11.39.162,kallum_motion_pilot,2023.2.2,Win32,54.05405405,5e5f4c3f3d604727f7930fc1,65d2b6c8f2eece985d8e374c,65d2b899cb56009c7b584523,0.0728,0.0729,0,147,147,39,1,fourthree,,,,,,,,,,,,,,,,,,,,,,,,,,,,,,,,,,,,,,,,,,,,,,,,,,,,,,,,,,,,,,,,,,,,,,,,,,,,,,,,,,,,,,,,,,,,,,,,,,,,,,,,,,,,,,,,,,,,,,,,,,,,,,,,,,,,,,,,,
,,5e5f4c3f3d604727f7930fc1,2024-02-19_11h11.39.162,kallum_motion_pilot,2023.2.2,Win32,54.05405405,5e5f4c3f3d604727f7930fc1,65d2b6c8f2eece985d8e374c,65d2b899cb56009c7b584523,0.073,0.0731,0,148,148,88,1,fivesix,,,,,,,,,,,,,,,,,,,,,,,,,,,,,,,,,,,,,,,,,,,,,,,,,,,,,,,,,,,,,,,,,,,,,,,,,,,,,,,,,,,,,,,,,,,,,,,,,,,,,,,,,,,,,,,,,,,,,,,,,,,,,,,,,,,,,,,,,
,,5e5f4c3f3d604727f7930fc1,2024-02-19_11h11.39.162,kallum_motion_pilot,2023.2.2,Win32,54.05405405,5e5f4c3f3d604727f7930fc1,65d2b6c8f2eece985d8e374c,65d2b899cb56009c7b584523,0.0732,0.0732,0,149,149,138,1,sixfive,,,,,,,,,,,,,,,,,,,,,,,,,,,,,,,,,,,,,,,,,,,,,,,,,,,,,,,,,,,,,,,,,,,,,,,,,,,,,,,,,,,,,,,,,,,,,,,,,,,,,,,,,,,,,,,,,,,,,,,,,,,,,,,,,,,,,,,,,
,,5e5f4c3f3d604727f7930fc1,2024-02-19_11h11.39.162,kallum_motion_pilot,2023.2.2,Win32,54.05405405,5e5f4c3f3d604727f7930fc1,65d2b6c8f2eece985d8e374c,65d2b899cb56009c7b584523,0.0733,0.0734,0,150,150,105,1,fiveseven,,,,,,,,,,,,,,,,,,,,,,,,,,,,,,,,,,,,,,,,,,,,,,,,,,,,,,,,,,,,,,,,,,,,,,,,,,,,,,,,,,,,,,,,,,,,,,,,,,,,,,,,,,,,,,,,,,,,,,,,,,,,,,,,,,,,,,,,,
,,5e5f4c3f3d604727f7930fc1,2024-02-19_11h11.39.162,kallum_motion_pilot,2023.2.2,Win32,54.05405405,5e5f4c3f3d604727f7930fc1,65d2b6c8f2eece985d8e374c,65d2b899cb56009c7b584523,0.0735,0.0735,0,151,151,26,1,twoone,,,,,,,,,,,,,,,,,,,,,,,,,,,,,,,,,,,,,,,,,,,,,,,,,,,,,,,,,,,,,,,,,,,,,,,,,,,,,,,,,,,,,,,,,,,,,,,,,,,,,,,,,,,,,,,,,,,,,,,,,,,,,,,,,,,,,,,,,
,,5e5f4c3f3d604727f7930fc1,2024-02-19_11h11.39.162,kallum_motion_pilot,2023.2.2,Win32,54.05405405,5e5f4c3f3d604727f7930fc1,65d2b6c8f2eece985d8e374c,65d2b899cb56009c7b584523,0.0737,0.0738,0,152,152,89,1,fiveseven,,,,,,,,,,,,,,,,,,,,,,,,,,,,,,,,,,,,,,,,,,,,,,,,,,,,,,,,,,,,,,,,,,,,,,,,,,,,,,,,,,,,,,,,,,,,,,,,,,,,,,,,,,,,,,,,,,,,,,,,,,,,,,,,,,,,,,,,,
,,5e5f4c3f3d604727f7930fc1,2024-02-19_11h11.39.162,kallum_motion_pilot,2023.2.2,Win32,54.05405405,5e5f4c3f3d604727f7930fc1,65d2b6c8f2eece985d8e374c,65d2b899cb56009c7b584523,0.0739,0.0741,0,153,153,10,1,twoone,,,,,,,,,,,,,,,,,,,,,,,,,,,,,,,,,,,,,,,,,,,,,,,,,,,,,,,,,,,,,,,,,,,,,,,,,,,,,,,,,,,,,,,,,,,,,,,,,,,,,,,,,,,,,,,,,,,,,,,,,,,,,,,,,,,,,,,,,
,,5e5f4c3f3d604727f7930fc1,2024-02-19_11h11.39.162,kallum_motion_pilot,2023.2.2,Win32,54.05405405,5e5f4c3f3d604727f7930fc1,65d2b6c8f2eece985d8e374c,65d2b899cb56009c7b584523,0.0742,0.0742,0,154,154,19,1,twofour,,,,,,,,,,,,,,,,,,,,,,,,,,,,,,,,,,,,,,,,,,,,,,,,,,,,,,,,,,,,,,,,,,,,,,,,,,,,,,,,,,,,,,,,,,,,,,,,,,,,,,,,,,,,,,,,,,,,,,,,,,,,,,,,,,,,,,,,,
,,5e5f4c3f3d604727f7930fc1,2024-02-19_11h11.39.162,kallum_motion_pilot,2023.2.2,Win32,54.05405405,5e5f4c3f3d604727f7930fc1,65d2b6c8f2eece985d8e374c,65d2b899cb56009c7b584523,0.0743,0.0744,0,155,155,158,1,eightsix,,,,,,,,,,,,,,,,,,,,,,,,,,,,,,,,,,,,,,,,,,,,,,,,,,,,,,,,,,,,,,,,,,,,,,,,,,,,,,,,,,,,,,,,,,,,,,,,,,,,,,,,,,,,,,,,,,,,,,,,,,,,,,,,,,,,,,,,,
,,5e5f4c3f3d604727f7930fc1,2024-02-19_11h11.39.162,kallum_motion_pilot,2023.2.2,Win32,54.05405405,5e5f4c3f3d604727f7930fc1,65d2b6c8f2eece985d8e374c,65d2b899cb56009c7b584523,0.0745,0.0746,0,156,156,146,1,sixfive,,,,,,,,,,,,,,,,,,,,,,,,,,,,,,,,,,,,,,,,,,,,,,,,,,,,,,,,,,,,,,,,,,,,,,,,,,,,,,,,,,,,,,,,,,,,,,,,,,,,,,,,,,,,,,,,,,,,,,,,,,,,,,,,,,,,,,,,,
,,5e5f4c3f3d604727f7930fc1,2024-02-19_11h11.39.162,kallum_motion_pilot,2023.2.2,Win32,54.05405405,5e5f4c3f3d604727f7930fc1,65d2b6c8f2eece985d8e374c,65d2b899cb56009c7b584523,0.0757,0.0757,0,157,157,53,1,threefour,,,,,,,,,,,,,,,,,,,,,,,,,,,,,,,,,,,,,,,,,,,,,,,,,,,,,,,,,,,,,,,,,,,,,,,,,,,,,,,,,,,,,,,,,,,,,,,,,,,,,,,,,,,,,,,,,,,,,,,,,,,,,,,,,,,,,,,,,
,,5e5f4c3f3d604727f7930fc1,2024-02-19_11h11.39.162,kallum_motion_pilot,2023.2.2,Win32,54.05405405,5e5f4c3f3d604727f7930fc1,65d2b6c8f2eece985d8e374c,65d2b899cb56009c7b584523,0.0759,0.076,0,158,158,108,1,sevenfive,,,,,,,,,,,,,,,,,,,,,,,,,,,,,,,,,,,,,,,,,,,,,,,,,,,,,,,,,,,,,,,,,,,,,,,,,,,,,,,,,,,,,,,,,,,,,,,,,,,,,,,,,,,,,,,,,,,,,,,,,,,,,,,,,,,,,,,,,
,,5e5f4c3f3d604727f7930fc1,2024-02-19_11h11.39.162,kallum_motion_pilot,2023.2.2,Win32,54.05405405,5e5f4c3f3d604727f7930fc1,65d2b6c8f2eece985d8e374c,65d2b899cb56009c7b584523,0.076,0.0761,0,159,159,46,1,fourtwo,,,,,,,,,,,,,,,,,,,,,,,,,,,,,,,,,,,,,,,,,,,,,,,,,,,,,,,,,,,,,,,,,,,,,,,,,,,,,,,,,,,,,,,,,,,,,,,,,,,,,,,,,,,,,,,,,,,,,,,,,,,,,,,,,,,,,,,,,
,,5e5f4c3f3d604727f7930fc1,2024-02-19_11h11.39.162,kallum_motion_pilot,2023.2.2,Win32,54.05405405,5e5f4c3f3d604727f7930fc1,65d2b6c8f2eece985d8e374c,65d2b899cb56009c7b584523,0.0762,0.0764,0,160,160,38,1,fourtwo,,,,,,,,,,,,,,,,,,,,,,,,,,,,,,,,,,,,,,,,,,,,,,,,,,,,,,,,,,,,,,,,,,,,,,,,,,,,,,,,,,,,,,,,,,,,,,,,,,,,,,,,,,,,,,,,,,,,,,,,,,,,,,,,,,,,,,,,,
,,5e5f4c3f3d604727f7930fc1,2024-02-19_11h11.39.162,kallum_motion_pilot,2023.2.2,Win32,54.05405405,5e5f4c3f3d604727f7930fc1,65d2b6c8f2eece985d8e374c,65d2b899cb56009c7b584523,0.0765,0.0765,0,161,161,28,1,threeone,,,,,,,,,,,,,,,,,,,,,,,,,,,,,,,,,,,,,,,,,,,,,,,,,,,,,,,,,,,,,,,,,,,,,,,,,,,,,,,,,,,,,,,,,,,,,,,,,,,,,,,,,,,,,,,,,,,,,,,,,,,,,,,,,,,,,,,,,
,,5e5f4c3f3d604727f7930fc1,2024-02-19_11h11.39.162,kallum_motion_pilot,2023.2.2,Win32,54.05405405,5e5f4c3f3d604727f7930fc1,65d2b6c8f2eece985d8e374c,65d2b899cb56009c7b584523,0.0769,0.0772,1,0,162,118,1,eightsix,,,,,,,,,,,,,,,,,,,,,,,,,,,,,,,,,,,,,,,,,,,,,,,,,,,,,,,,,,,,,,,,,,,,,,,,,,,,,,,,,,,,,,,,,,,,,,,,,,,,,,,,,,,,,,,,,,,,,,,,,,,,,,,,,,,,,,,,,
,,5e5f4c3f3d604727f7930fc1,2024-02-19_11h11.39.162,kallum_motion_pilot,2023.2.2,Win32,54.05405405,5e5f4c3f3d604727f7930fc1,65d2b6c8f2eece985d8e374c,65d2b899cb56009c7b584523,0.0776,0.0777,1,1,163,64,1,onetwo,,,,,,,,,,,,,,,,,,,,,,,,,,,,,,,,,,,,,,,,,,,,,,,,,,,,,,,,,,,,,,,,,,,,,,,,,,,,,,,,,,,,,,,,,,,,,,,,,,,,,,,,,,,,,,,,,,,,,,,,,,,,,,,,,,,,,,,,,
,,5e5f4c3f3d604727f7930fc1,2024-02-19_11h11.39.162,kallum_motion_pilot,2023.2.2,Win32,54.05405405,5e5f4c3f3d604727f7930fc1,65d2b6c8f2eece985d8e374c,65d2b899cb56009c7b584523,0.078,0.0781,1,2,164,19,1,twofour,,,,,,,,,,,,,,,,,,,,,,,,,,,,,,,,,,,,,,,,,,,,,,,,,,,,,,,,,,,,,,,,,,,,,,,,,,,,,,,,,,,,,,,,,,,,,,,,,,,,,,,,,,,,,,,,,,,,,,,,,,,,,,,,,,,,,,,,,
,,5e5f4c3f3d604727f7930fc1,2024-02-19_11h11.39.162,kallum_motion_pilot,2023.2.2,Win32,54.05405405,5e5f4c3f3d604727f7930fc1,65d2b6c8f2eece985d8e374c,65d2b899cb56009c7b584523,0.0782,0.0785,1,3,165,11,1,twofour,,,,,,,,,,,,,,,,,,,,,,,,,,,,,,,,,,,,,,,,,,,,,,,,,,,,,,,,,,,,,,,,,,,,,,,,,,,,,,,,,,,,,,,,,,,,,,,,,,,,,,,,,,,,,,,,,,,,,,,,,,,,,,,,,,,,,,,,,
,,5e5f4c3f3d604727f7930fc1,2024-02-19_11h11.39.162,kallum_motion_pilot,2023.2.2,Win32,54.05405405,5e5f4c3f3d604727f7930fc1,65d2b6c8f2eece985d8e374c,65d2b899cb56009c7b584523,0.0786,0.0786,1,4,166,18,1,twoone,,,,,,,,,,,,,,,,,,,,,,,,,,,,,,,,,,,,,,,,,,,,,,,,,,,,,,,,,,,,,,,,,,,,,,,,,,,,,,,,,,,,,,,,,,,,,,,,,,,,,,,,,,,,,,,,,,,,,,,,,,,,,,,,,,,,,,,,,
,,5e5f4c3f3d604727f7930fc1,2024-02-19_11h11.39.162,kallum_motion_pilot,2023.2.2,Win32,54.05405405,5e5f4c3f3d604727f7930fc1,65d2b6c8f2eece985d8e374c,65d2b899cb56009c7b584523,0.0788,0.0789,1,5,167,108,1,sevenfive,,,,,,,,,,,,,,,,,,,,,,,,,,,,,,,,,,,,,,,,,,,,,,,,,,,,,,,,,,,,,,,,,,,,,,,,,,,,,,,,,,,,,,,,,,,,,,,,,,,,,,,,,,,,,,,,,,,,,,,,,,,,,,,,,,,,,,,,,
,,5e5f4c3f3d604727f7930fc1,2024-02-19_11h11.39.162,kallum_motion_pilot,2023.2.2,Win32,54.05405405,5e5f4c3f3d604727f7930fc1,65d2b6c8f2eece985d8e374c,65d2b899cb56009c7b584523,0.079,0.0791,1,6,168,145,1,fiveseven,,,,,,,,,,,,,,,,,,,,,,,,,,,,,,,,,,,,,,,,,,,,,,,,,,,,,,,,,,,,,,,,,,,,,,,,,,,,,,,,,,,,,,,,,,,,,,,,,,,,,,,,,,,,,,,,,,,,,,,,,,,,,,,,,,,,,,,,,
,,5e5f4c3f3d604727f7930fc1,2024-02-19_11h11.39.162,kallum_motion_pilot,2023.2.2,Win32,54.05405405,5e5f4c3f3d604727f7930fc1,65d2b6c8f2eece985d8e374c,65d2b899cb56009c7b584523,0.0792,0.0793,1,7,169,6,1,fourtwo,,,,,,,,,,,,,,,,,,,,,,,,,,,,,,,,,,,,,,,,,,,,,,,,,,,,,,,,,,,,,,,,,,,,,,,,,,,,,,,,,,,,,,,,,,,,,,,,,,,,,,,,,,,,,,,,,,,,,,,,,,,,,,,,,,,,,,,,,
,,5e5f4c3f3d604727f7930fc1,2024-02-19_11h11.39.162,kallum_motion_pilot,2023.2.2,Win32,54.05405405,5e5f4c3f3d604727f7930fc1,65d2b6c8f2eece985d8e374c,65d2b899cb56009c7b584523,0.0794,0.0795,1,8,170,0,1,onetwo,,,,,,,,,,,,,,,,,,,,,,,,,,,,,,,,,,,,,,,,,,,,,,,,,,,,,,,,,,,,,,,,,,,,,,,,,,,,,,,,,,,,,,,,,,,,,,,,,,,,,,,,,,,,,,,,,,,,,,,,,,,,,,,,,,,,,,,,,
,,5e5f4c3f3d604727f7930fc1,2024-02-19_11h11.39.162,kallum_motion_pilot,2023.2.2,Win32,54.05405405,5e5f4c3f3d604727f7930fc1,65d2b6c8f2eece985d8e374c,65d2b899cb56009c7b584523,0.0796,0.0796,1,9,171,77,1,threefour,,,,,,,,,,,,,,,,,,,,,,,,,,,,,,,,,,,,,,,,,,,,,,,,,,,,,,,,,,,,,,,,,,,,,,,,,,,,,,,,,,,,,,,,,,,,,,,,,,,,,,,,,,,,,,,,,,,,,,,,,,,,,,,,,,,,,,,,,
,,5e5f4c3f3d604727f7930fc1,2024-02-19_11h11.39.162,kallum_motion_pilot,2023.2.2,Win32,54.05405405,5e5f4c3f3d604727f7930fc1,65d2b6c8f2eece985d8e374c,65d2b899cb56009c7b584523,0.0798,0.0799,1,10,172,12,1,threeone,,,,,,,,,,,,,,,,,,,,,,,,,,,,,,,,,,,,,,,,,,,,,,,,,,,,,,,,,,,,,,,,,,,,,,,,,,,,,,,,,,,,,,,,,,,,,,,,,,,,,,,,,,,,,,,,,,,,,,,,,,,,,,,,,,,,,,,,,
,,5e5f4c3f3d604727f7930fc1,2024-02-19_11h11.39.162,kallum_motion_pilot,2023.2.2,Win32,54.05405405,5e5f4c3f3d604727f7930fc1,65d2b6c8f2eece985d8e374c,65d2b899cb56009c7b584523,0.08,0.0801,1,11,173,2,1,twoone,,,,,,,,,,,,,,,,,,,,,,,,,,,,,,,,,,,,,,,,,,,,,,,,,,,,,,,,,,,,,,,,,,,,,,,,,,,,,,,,,,,,,,,,,,,,,,,,,,,,,,,,,,,,,,,,,,,,,,,,,,,,,,,,,,,,,,,,,
,,5e5f4c3f3d604727f7930fc1,2024-02-19_11h11.39.162,kallum_motion_pilot,2023.2.2,Win32,54.05405405,5e5f4c3f3d604727f7930fc1,65d2b6c8f2eece985d8e374c,65d2b899cb56009c7b584523,0.0801,0.0803,1,12,174,49,1,onethree,,,,,,,,,,,,,,,,,,,,,,,,,,,,,,,,,,,,,,,,,,,,,,,,,,,,,,,,,,,,,,,,,,,,,,,,,,,,,,,,,,,,,,,,,,,,,,,,,,,,,,,,,,,,,,,,,,,,,,,,,,,,,,,,,,,,,,,,,
,,5e5f4c3f3d604727f7930fc1,2024-02-19_11h11.39.162,kallum_motion_pilot,2023.2.2,Win32,54.05405405,5e5f4c3f3d604727f7930fc1,65d2b6c8f2eece985d8e374c,65d2b899cb56009c7b584523,0.0803,0.0804,1,13,175,127,1,eightseven,,,,,,,,,,,,,,,,,,,,,,,,,,,,,,,,,,,,,,,,,,,,,,,,,,,,,,,,,,,,,,,,,,,,,,,,,,,,,,,,,,,,,,,,,,,,,,,,,,,,,,,,,,,,,,,,,,,,,,,,,,,,,,,,,,,,,,,,,
,,5e5f4c3f3d604727f7930fc1,2024-02-19_11h11.39.162,kallum_motion_pilot,2023.2.2,Win32,54.05405405,5e5f4c3f3d604727f7930fc1,65d2b6c8f2eece985d8e374c,65d2b899cb56009c7b584523,0.0806,0.0806,1,14,176,22,1,fourtwo,,,,,,,,,,,,,,,,,,,,,,,,,,,,,,,,,,,,,,,,,,,,,,,,,,,,,,,,,,,,,,,,,,,,,,,,,,,,,,,,,,,,,,,,,,,,,,,,,,,,,,,,,,,,,,,,,,,,,,,,,,,,,,,,,,,,,,,,,
,,5e5f4c3f3d604727f7930fc1,2024-02-19_11h11.39.162,kallum_motion_pilot,2023.2.2,Win32,54.05405405,5e5f4c3f3d604727f7930fc1,65d2b6c8f2eece985d8e374c,65d2b899cb56009c7b584523,0.0807,0.0807,1,15,177,43,1,twofour,,,,,,,,,,,,,,,,,,,,,,,,,,,,,,,,,,,,,,,,,,,,,,,,,,,,,,,,,,,,,,,,,,,,,,,,,,,,,,,,,,,,,,,,,,,,,,,,,,,,,,,,,,,,,,,,,,,,,,,,,,,,,,,,,,,,,,,,,
,,5e5f4c3f3d604727f7930fc1,2024-02-19_11h11.39.162,kallum_motion_pilot,2023.2.2,Win32,54.05405405,5e5f4c3f3d604727f7930fc1,65d2b6c8f2eece985d8e374c,65d2b899cb56009c7b584523,0.0811,0.0813,1,16,178,140,1,sevenfive,,,,,,,,,,,,,,,,,,,,,,,,,,,,,,,,,,,,,,,,,,,,,,,,,,,,,,,,,,,,,,,,,,,,,,,,,,,,,,,,,,,,,,,,,,,,,,,,,,,,,,,,,,,,,,,,,,,,,,,,,,,,,,,,,,,,,,,,,
,,5e5f4c3f3d604727f7930fc1,2024-02-19_11h11.39.162,kallum_motion_pilot,2023.2.2,Win32,54.05405405,5e5f4c3f3d604727f7930fc1,65d2b6c8f2eece985d8e374c,65d2b899cb56009c7b584523,0.0814,0.0815,1,17,179,20,1,threeone,,,,,,,,,,,,,,,,,,,,,,,,,,,,,,,,,,,,,,,,,,,,,,,,,,,,,,,,,,,,,,,,,,,,,,,,,,,,,,,,,,,,,,,,,,,,,,,,,,,,,,,,,,,,,,,,,,,,,,,,,,,,,,,,,,,,,,,,,
,,5e5f4c3f3d604727f7930fc1,2024-02-19_11h11.39.162,kallum_motion_pilot,2023.2.2,Win32,54.05405405,5e5f4c3f3d604727f7930fc1,65d2b6c8f2eece985d8e374c,65d2b899cb56009c7b584523,0.0816,0.082,1,18,180,136,1,fivesix,,,,,,,,,,,,,,,,,,,,,,,,,,,,,,,,,,,,,,,,,,,,,,,,,,,,,,,,,,,,,,,,,,,,,,,,,,,,,,,,,,,,,,,,,,,,,,,,,,,,,,,,,,,,,,,,,,,,,,,,,,,,,,,,,,,,,,,,,
,,5e5f4c3f3d604727f7930fc1,2024-02-19_11h11.39.162,kallum_motion_pilot,2023.2.2,Win32,54.05405405,5e5f4c3f3d604727f7930fc1,65d2b6c8f2eece985d8e374c,65d2b899cb56009c7b584523,0.0822,0.0823,1,19,181,141,1,seveneight,,,,,,,,,,,,,,,,,,,,,,,,,,,,,,,,,,,,,,,,,,,,,,,,,,,,,,,,,,,,,,,,,,,,,,,,,,,,,,,,,,,,,,,,,,,,,,,,,,,,,,,,,,,,,,,,,,,,,,,,,,,,,,,,,,,,,,,,,
,,5e5f4c3f3d604727f7930fc1,2024-02-19_11h11.39.162,kallum_motion_pilot,2023.2.2,Win32,54.05405405,5e5f4c3f3d604727f7930fc1,65d2b6c8f2eece985d8e374c,65d2b899cb56009c7b584523,0.0825,0.0825,1,20,182,132,1,sevenfive,,,,,,,,,,,,,,,,,,,,,,,,,,,,,,,,,,,,,,,,,,,,,,,,,,,,,,,,,,,,,,,,,,,,,,,,,,,,,,,,,,,,,,,,,,,,,,,,,,,,,,,,,,,,,,,,,,,,,,,,,,,,,,,,,,,,,,,,,
,,5e5f4c3f3d604727f7930fc1,2024-02-19_11h11.39.162,kallum_motion_pilot,2023.2.2,Win32,54.05405405,5e5f4c3f3d604727f7930fc1,65d2b6c8f2eece985d8e374c,65d2b899cb56009c7b584523,0.0827,0.0828,1,21,183,131,1,sixeight,,,,,,,,,,,,,,,,,,,,,,,,,,,,,,,,,,,,,,,,,,,,,,,,,,,,,,,,,,,,,,,,,,,,,,,,,,,,,,,,,,,,,,,,,,,,,,,,,,,,,,,,,,,,,,,,,,,,,,,,,,,,,,,,,,,,,,,,,
,,5e5f4c3f3d604727f7930fc1,2024-02-19_11h11.39.162,kallum_motion_pilot,2023.2.2,Win32,54.05405405,5e5f4c3f3d604727f7930fc1,65d2b6c8f2eece985d8e374c,65d2b899cb56009c7b584523,0.083,0.0831,1,22,184,26,1,twoone,,,,,,,,,,,,,,,,,,,,,,,,,,,,,,,,,,,,,,,,,,,,,,,,,,,,,,,,,,,,,,,,,,,,,,,,,,,,,,,,,,,,,,,,,,,,,,,,,,,,,,,,,,,,,,,,,,,,,,,,,,,,,,,,,,,,,,,,,
,,5e5f4c3f3d604727f7930fc1,2024-02-19_11h11.39.162,kallum_motion_pilot,2023.2.2,Win32,54.05405405,5e5f4c3f3d604727f7930fc1,65d2b6c8f2eece985d8e374c,65d2b899cb56009c7b584523,0.0832,0.0834,1,23,185,4,1,threeone,,,,,,,,,,,,,,,,,,,,,,,,,,,,,,,,,,,,,,,,,,,,,,,,,,,,,,,,,,,,,,,,,,,,,,,,,,,,,,,,,,,,,,,,,,,,,,,,,,,,,,,,,,,,,,,,,,,,,,,,,,,,,,,,,,,,,,,,,
,,5e5f4c3f3d604727f7930fc1,2024-02-19_11h11.39.162,kallum_motion_pilot,2023.2.2,Win32,54.05405405,5e5f4c3f3d604727f7930fc1,65d2b6c8f2eece985d8e374c,65d2b899cb56009c7b584523,0.0835,0.0836,1,24,186,24,1,onetwo,,,,,,,,,,,,,,,,,,,,,,,,,,,,,,,,,,,,,,,,,,,,,,,,,,,,,,,,,,,,,,,,,,,,,,,,,,,,,,,,,,,,,,,,,,,,,,,,,,,,,,,,,,,,,,,,,,,,,,,,,,,,,,,,,,,,,,,,,
,,5e5f4c3f3d604727f7930fc1,2024-02-19_11h11.39.162,kallum_motion_pilot,2023.2.2,Win32,54.05405405,5e5f4c3f3d604727f7930fc1,65d2b6c8f2eece985d8e374c,65d2b899cb56009c7b584523,0.0838,0.0839,1,25,187,123,1,sixeight,,,,,,,,,,,,,,,,,,,,,,,,,,,,,,,,,,,,,,,,,,,,,,,,,,,,,,,,,,,,,,,,,,,,,,,,,,,,,,,,,,,,,,,,,,,,,,,,,,,,,,,,,,,,,,,,,,,,,,,,,,,,,,,,,,,,,,,,,
,,5e5f4c3f3d604727f7930fc1,2024-02-19_11h11.39.162,kallum_motion_pilot,2023.2.2,Win32,54.05405405,5e5f4c3f3d604727f7930fc1,65d2b6c8f2eece985d8e374c,65d2b899cb56009c7b584523,0.084,0.084,1,26,188,126,1,eightsix,,,,,,,,,,,,,,,,,,,,,,,,,,,,,,,,,,,,,,,,,,,,,,,,,,,,,,,,,,,,,,,,,,,,,,,,,,,,,,,,,,,,,,,,,,,,,,,,,,,,,,,,,,,,,,,,,,,,,,,,,,,,,,,,,,,,,,,,,
,,5e5f4c3f3d604727f7930fc1,2024-02-19_11h11.39.162,kallum_motion_pilot,2023.2.2,Win32,54.05405405,5e5f4c3f3d604727f7930fc1,65d2b6c8f2eece985d8e374c,65d2b899cb56009c7b584523,0.0841,0.0843,1,27,189,106,1,sixfive,,,,,,,,,,,,,,,,,,,,,,,,,,,,,,,,,,,,,,,,,,,,,,,,,,,,,,,,,,,,,,,,,,,,,,,,,,,,,,,,,,,,,,,,,,,,,,,,,,,,,,,,,,,,,,,,,,,,,,,,,,,,,,,,,,,,,,,,,
,,5e5f4c3f3d604727f7930fc1,2024-02-19_11h11.39.162,kallum_motion_pilot,2023.2.2,Win32,54.05405405,5e5f4c3f3d604727f7930fc1,65d2b6c8f2eece985d8e374c,65d2b899cb56009c7b584523,0.0844,0.0845,1,28,190,158,1,eightsix,,,,,,,,,,,,,,,,,,,,,,,,,,,,,,,,,,,,,,,,,,,,,,,,,,,,,,,,,,,,,,,,,,,,,,,,,,,,,,,,,,,,,,,,,,,,,,,,,,,,,,,,,,,,,,,,,,,,,,,,,,,,,,,,,,,,,,,,,
,,5e5f4c3f3d604727f7930fc1,2024-02-19_11h11.39.162,kallum_motion_pilot,2023.2.2,Win32,54.05405405,5e5f4c3f3d604727f7930fc1,65d2b6c8f2eece985d8e374c,65d2b899cb56009c7b584523,0.0846,0.0847,1,29,191,161,1,fiveseven,,,,,,,,,,,,,,,,,,,,,,,,,,,,,,,,,,,,,,,,,,,,,,,,,,,,,,,,,,,,,,,,,,,,,,,,,,,,,,,,,,,,,,,,,,,,,,,,,,,,,,,,,,,,,,,,,,,,,,,,,,,,,,,,,,,,,,,,,
,,5e5f4c3f3d604727f7930fc1,2024-02-19_11h11.39.162,kallum_motion_pilot,2023.2.2,Win32,54.05405405,5e5f4c3f3d604727f7930fc1,65d2b6c8f2eece985d8e374c,65d2b899cb56009c7b584523,0.0848,0.0848,1,30,192,68,1,threeone,,,,,,,,,,,,,,,,,,,,,,,,,,,,,,,,,,,,,,,,,,,,,,,,,,,,,,,,,,,,,,,,,,,,,,,,,,,,,,,,,,,,,,,,,,,,,,,,,,,,,,,,,,,,,,,,,,,,,,,,,,,,,,,,,,,,,,,,,
,,5e5f4c3f3d604727f7930fc1,2024-02-19_11h11.39.162,kallum_motion_pilot,2023.2.2,Win32,54.05405405,5e5f4c3f3d604727f7930fc1,65d2b6c8f2eece985d8e374c,65d2b899cb56009c7b584523,0.085,0.0851,1,31,193,13,1,threefour,,,,,,,,,,,,,,,,,,,,,,,,,,,,,,,,,,,,,,,,,,,,,,,,,,,,,,,,,,,,,,,,,,,,,,,,,,,,,,,,,,,,,,,,,,,,,,,,,,,,,,,,,,,,,,,,,,,,,,,,,,,,,,,,,,,,,,,,,
,,5e5f4c3f3d604727f7930fc1,2024-02-19_11h11.39.162,kallum_motion_pilot,2023.2.2,Win32,54.05405405,5e5f4c3f3d604727f7930fc1,65d2b6c8f2eece985d8e374c,65d2b899cb56009c7b584523,0.0852,0.0854,1,32,194,101,1,seveneight,,,,,,,,,,,,,,,,,,,,,,,,,,,,,,,,,,,,,,,,,,,,,,,,,,,,,,,,,,,,,,,,,,,,,,,,,,,,,,,,,,,,,,,,,,,,,,,,,,,,,,,,,,,,,,,,,,,,,,,,,,,,,,,,,,,,,,,,,
,,5e5f4c3f3d604727f7930fc1,2024-02-19_11h11.39.162,kallum_motion_pilot,2023.2.2,Win32,54.05405405,5e5f4c3f3d604727f7930fc1,65d2b6c8f2eece985d8e374c,65d2b899cb56009c7b584523,0.0855,0.0856,1,33,195,76,1,threeone,,,,,,,,,,,,,,,,,,,,,,,,,,,,,,,,,,,,,,,,,,,,,,,,,,,,,,,,,,,,,,,,,,,,,,,,,,,,,,,,,,,,,,,,,,,,,,,,,,,,,,,,,,,,,,,,,,,,,,,,,,,,,,,,,,,,,,,,,
,,5e5f4c3f3d604727f7930fc1,2024-02-19_11h11.39.162,kallum_motion_pilot,2023.2.2,Win32,54.05405405,5e5f4c3f3d604727f7930fc1,65d2b6c8f2eece985d8e374c,65d2b899cb56009c7b584523,0.0858,0.086,1,34,196,59,1,twofour,,,,,,,,,,,,,,,,,,,,,,,,,,,,,,,,,,,,,,,,,,,,,,,,,,,,,,,,,,,,,,,,,,,,,,,,,,,,,,,,,,,,,,,,,,,,,,,,,,,,,,,,,,,,,,,,,,,,,,,,,,,,,,,,,,,,,,,,,
,,5e5f4c3f3d604727f7930fc1,2024-02-19_11h11.39.162,kallum_motion_pilot,2023.2.2,Win32,54.05405405,5e5f4c3f3d604727f7930fc1,65d2b6c8f2eece985d8e374c,65d2b899cb56009c7b584523,0.086,0.0862,1,35,197,93,1,seveneight,,,,,,,,,,,,,,,,,,,,,,,,,,,,,,,,,,,,,,,,,,,,,,,,,,,,,,,,,,,,,,,,,,,,,,,,,,,,,,,,,,,,,,,,,,,,,,,,,,,,,,,,,,,,,,,,,,,,,,,,,,,,,,,,,,,,,,,,,
,,5e5f4c3f3d604727f7930fc1,2024-02-19_11h11.39.162,kallum_motion_pilot,2023.2.2,Win32,54.05405405,5e5f4c3f3d604727f7930fc1,65d2b6c8f2eece985d8e374c,65d2b899cb56009c7b584523,0.0863,0.0863,1,36,198,99,1,sixeight,,,,,,,,,,,,,,,,,,,,,,,,,,,,,,,,,,,,,,,,,,,,,,,,,,,,,,,,,,,,,,,,,,,,,,,,,,,,,,,,,,,,,,,,,,,,,,,,,,,,,,,,,,,,,,,,,,,,,,,,,,,,,,,,,,,,,,,,,
,,5e5f4c3f3d604727f7930fc1,2024-02-19_11h11.39.162,kallum_motion_pilot,2023.2.2,Win32,54.05405405,5e5f4c3f3d604727f7930fc1,65d2b6c8f2eece985d8e374c,65d2b899cb56009c7b584523,0.0865,0.0865,1,37,199,128,1,fivesix,,,,,,,,,,,,,,,,,,,,,,,,,,,,,,,,,,,,,,,,,,,,,,,,,,,,,,,,,,,,,,,,,,,,,,,,,,,,,,,,,,,,,,,,,,,,,,,,,,,,,,,,,,,,,,,,,,,,,,,,,,,,,,,,,,,,,,,,,
,,5e5f4c3f3d604727f7930fc1,2024-02-19_11h11.39.162,kallum_motion_pilot,2023.2.2,Win32,54.05405405,5e5f4c3f3d604727f7930fc1,65d2b6c8f2eece985d8e374c,65d2b899cb56009c7b584523,0.0866,0.0867,1,38,200,25,1,onethree,,,,,,,,,,,,,,,,,,,,,,,,,,,,,,,,,,,,,,,,,,,,,,,,,,,,,,,,,,,,,,,,,,,,,,,,,,,,,,,,,,,,,,,,,,,,,,,,,,,,,,,,,,,,,,,,,,,,,,,,,,,,,,,,,,,,,,,,,
,,5e5f4c3f3d604727f7930fc1,2024-02-19_11h11.39.162,kallum_motion_pilot,2023.2.2,Win32,54.05405405,5e5f4c3f3d604727f7930fc1,65d2b6c8f2eece985d8e374c,65d2b899cb56009c7b584523,0.0868,0.0869,1,39,201,72,1,onetwo,,,,,,,,,,,,,,,,,,,,,,,,,,,,,,,,,,,,,,,,,,,,,,,,,,,,,,,,,,,,,,,,,,,,,,,,,,,,,,,,,,,,,,,,,,,,,,,,,,,,,,,,,,,,,,,,,,,,,,,,,,,,,,,,,,,,,,,,,
,,5e5f4c3f3d604727f7930fc1,2024-02-19_11h11.39.162,kallum_motion_pilot,2023.2.2,Win32,54.05405405,5e5f4c3f3d604727f7930fc1,65d2b6c8f2eece985d8e374c,65d2b899cb56009c7b584523,0.087,0.0871,1,40,202,102,1,eightsix,,,,,,,,,,,,,,,,,,,,,,,,,,,,,,,,,,,,,,,,,,,,,,,,,,,,,,,,,,,,,,,,,,,,,,,,,,,,,,,,,,,,,,,,,,,,,,,,,,,,,,,,,,,,,,,,,,,,,,,,,,,,,,,,,,,,,,,,,
,,5e5f4c3f3d604727f7930fc1,2024-02-19_11h11.39.162,kallum_motion_pilot,2023.2.2,Win32,54.05405405,5e5f4c3f3d604727f7930fc1,65d2b6c8f2eece985d8e374c,65d2b899cb56009c7b584523,0.0872,0.0873,1,41,203,34,1,twoone,,,,,,,,,,,,,,,,,,,,,,,,,,,,,,,,,,,,,,,,,,,,,,,,,,,,,,,,,,,,,,,,,,,,,,,,,,,,,,,,,,,,,,,,,,,,,,,,,,,,,,,,,,,,,,,,,,,,,,,,,,,,,,,,,,,,,,,,,
,,5e5f4c3f3d604727f7930fc1,2024-02-19_11h11.39.162,kallum_motion_pilot,2023.2.2,Win32,54.05405405,5e5f4c3f3d604727f7930fc1,65d2b6c8f2eece985d8e374c,65d2b899cb56009c7b584523,0.0874,0.0874,1,42,204,23,1,fourthree,,,,,,,,,,,,,,,,,,,,,,,,,,,,,,,,,,,,,,,,,,,,,,,,,,,,,,,,,,,,,,,,,,,,,,,,,,,,,,,,,,,,,,,,,,,,,,,,,,,,,,,,,,,,,,,,,,,,,,,,,,,,,,,,,,,,,,,,,
,,5e5f4c3f3d604727f7930fc1,2024-02-19_11h11.39.162,kallum_motion_pilot,2023.2.2,Win32,54.05405405,5e5f4c3f3d604727f7930fc1,65d2b6c8f2eece985d8e374c,65d2b899cb56009c7b584523,0.0876,0.0877,1,43,205,82,1,sixfive,,,,,,,,,,,,,,,,,,,,,,,,,,,,,,,,,,,,,,,,,,,,,,,,,,,,,,,,,,,,,,,,,,,,,,,,,,,,,,,,,,,,,,,,,,,,,,,,,,,,,,,,,,,,,,,,,,,,,,,,,,,,,,,,,,,,,,,,,
,,5e5f4c3f3d604727f7930fc1,2024-02-19_11h11.39.162,kallum_motion_pilot,2023.2.2,Win32,54.05405405,5e5f4c3f3d604727f7930fc1,65d2b6c8f2eece985d8e374c,65d2b899cb56009c7b584523,0.0878,0.0879,1,44,206,47,1,fourthree,,,,,,,,,,,,,,,,,,,,,,,,,,,,,,,,,,,,,,,,,,,,,,,,,,,,,,,,,,,,,,,,,,,,,,,,,,,,,,,,,,,,,,,,,,,,,,,,,,,,,,,,,,,,,,,,,,,,,,,,,,,,,,,,,,,,,,,,,
,,5e5f4c3f3d604727f7930fc1,2024-02-19_11h11.39.162,kallum_motion_pilot,2023.2.2,Win32,54.05405405,5e5f4c3f3d604727f7930fc1,65d2b6c8f2eece985d8e374c,65d2b899cb56009c7b584523,0.0879,0.0881,1,45,207,65,1,onethree,,,,,,,,,,,,,,,,,,,,,,,,,,,,,,,,,,,,,,,,,,,,,,,,,,,,,,,,,,,,,,,,,,,,,,,,,,,,,,,,,,,,,,,,,,,,,,,,,,,,,,,,,,,,,,,,,,,,,,,,,,,,,,,,,,,,,,,,,
,,5e5f4c3f3d604727f7930fc1,2024-02-19_11h11.39.162,kallum_motion_pilot,2023.2.2,Win32,54.05405405,5e5f4c3f3d604727f7930fc1,65d2b6c8f2eece985d8e374c,65d2b899cb56009c7b584523,0.0882,0.0882,1,46,208,8,1,onetwo,,,,,,,,,,,,,,,,,,,,,,,,,,,,,,,,,,,,,,,,,,,,,,,,,,,,,,,,,,,,,,,,,,,,,,,,,,,,,,,,,,,,,,,,,,,,,,,,,,,,,,,,,,,,,,,,,,,,,,,,,,,,,,,,,,,,,,,,,
,,5e5f4c3f3d604727f7930fc1,2024-02-19_11h11.39.162,kallum_motion_pilot,2023.2.2,Win32,54.05405405,5e5f4c3f3d604727f7930fc1,65d2b6c8f2eece985d8e374c,65d2b899cb56009c7b584523,0.0883,0.0885,1,47,209,27,1,twofour,,,,,,,,,,,,,,,,,,,,,,,,,,,,,,,,,,,,,,,,,,,,,,,,,,,,,,,,,,,,,,,,,,,,,,,,,,,,,,,,,,,,,,,,,,,,,,,,,,,,,,,,,,,,,,,,,,,,,,,,,,,,,,,,,,,,,,,,,
,,5e5f4c3f3d604727f7930fc1,2024-02-19_11h11.39.162,kallum_motion_pilot,2023.2.2,Win32,54.05405405,5e5f4c3f3d604727f7930fc1,65d2b6c8f2eece985d8e374c,65d2b899cb56009c7b584523,0.0886,0.0886,1,48,210,135,1,eightseven,,,,,,,,,,,,,,,,,,,,,,,,,,,,,,,,,,,,,,,,,,,,,,,,,,,,,,,,,,,,,,,,,,,,,,,,,,,,,,,,,,,,,,,,,,,,,,,,,,,,,,,,,,,,,,,,,,,,,,,,,,,,,,,,,,,,,,,,,
,,5e5f4c3f3d604727f7930fc1,2024-02-19_11h11.39.162,kallum_motion_pilot,2023.2.2,Win32,54.05405405,5e5f4c3f3d604727f7930fc1,65d2b6c8f2eece985d8e374c,65d2b899cb56009c7b584523,0.0887,0.0888,1,49,211,70,1,fourtwo,,,,,,,,,,,,,,,,,,,,,,,,,,,,,,,,,,,,,,,,,,,,,,,,,,,,,,,,,,,,,,,,,,,,,,,,,,,,,,,,,,,,,,,,,,,,,,,,,,,,,,,,,,,,,,,,,,,,,,,,,,,,,,,,,,,,,,,,,
,,5e5f4c3f3d604727f7930fc1,2024-02-19_11h11.39.162,kallum_motion_pilot,2023.2.2,Win32,54.05405405,5e5f4c3f3d604727f7930fc1,65d2b6c8f2eece985d8e374c,65d2b899cb56009c7b584523,0.0889,0.0889,1,50,212,9,1,onethree,,,,,,,,,,,,,,,,,,,,,,,,,,,,,,,,,,,,,,,,,,,,,,,,,,,,,,,,,,,,,,,,,,,,,,,,,,,,,,,,,,,,,,,,,,,,,,,,,,,,,,,,,,,,,,,,,,,,,,,,,,,,,,,,,,,,,,,,,
,,5e5f4c3f3d604727f7930fc1,2024-02-19_11h11.39.162,kallum_motion_pilot,2023.2.2,Win32,54.05405405,5e5f4c3f3d604727f7930fc1,65d2b6c8f2eece985d8e374c,65d2b899cb56009c7b584523,0.0891,0.0892,1,51,213,153,1,fiveseven,,,,,,,,,,,,,,,,,,,,,,,,,,,,,,,,,,,,,,,,,,,,,,,,,,,,,,,,,,,,,,,,,,,,,,,,,,,,,,,,,,,,,,,,,,,,,,,,,,,,,,,,,,,,,,,,,,,,,,,,,,,,,,,,,,,,,,,,,
,,5e5f4c3f3d604727f7930fc1,2024-02-19_11h11.39.162,kallum_motion_pilot,2023.2.2,Win32,54.05405405,5e5f4c3f3d604727f7930fc1,65d2b6c8f2eece985d8e374c,65d2b899cb56009c7b584523,0.0893,0.0894,1,52,214,40,1,onetwo,,,,,,,,,,,,,,,,,,,,,,,,,,,,,,,,,,,,,,,,,,,,,,,,,,,,,,,,,,,,,,,,,,,,,,,,,,,,,,,,,,,,,,,,,,,,,,,,,,,,,,,,,,,,,,,,,,,,,,,,,,,,,,,,,,,,,,,,,
,,5e5f4c3f3d604727f7930fc1,2024-02-19_11h11.39.162,kallum_motion_pilot,2023.2.2,Win32,54.05405405,5e5f4c3f3d604727f7930fc1,65d2b6c8f2eece985d8e374c,65d2b899cb56009c7b584523,0.0895,0.0896,1,53,215,110,1,eightsix,,,,,,,,,,,,,,,,,,,,,,,,,,,,,,,,,,,,,,,,,,,,,,,,,,,,,,,,,,,,,,,,,,,,,,,,,,,,,,,,,,,,,,,,,,,,,,,,,,,,,,,,,,,,,,,,,,,,,,,,,,,,,,,,,,,,,,,,,
,,5e5f4c3f3d604727f7930fc1,2024-02-19_11h11.39.162,kallum_motion_pilot,2023.2.2,Win32,54.05405405,5e5f4c3f3d604727f7930fc1,65d2b6c8f2eece985d8e374c,65d2b899cb56009c7b584523,0.0897,0.0898,1,54,216,130,1,sixfive,,,,,,,,,,,,,,,,,,,,,,,,,,,,,,,,,,,,,,,,,,,,,,,,,,,,,,,,,,,,,,,,,,,,,,,,,,,,,,,,,,,,,,,,,,,,,,,,,,,,,,,,,,,,,,,,,,,,,,,,,,,,,,,,,,,,,,,,,
,,5e5f4c3f3d604727f7930fc1,2024-02-19_11h11.39.162,kallum_motion_pilot,2023.2.2,Win32,54.05405405,5e5f4c3f3d604727f7930fc1,65d2b6c8f2eece985d8e374c,65d2b899cb56009c7b584523,0.0899,0.0899,1,55,217,69,1,threefour,,,,,,,,,,,,,,,,,,,,,,,,,,,,,,,,,,,,,,,,,,,,,,,,,,,,,,,,,,,,,,,,,,,,,,,,,,,,,,,,,,,,,,,,,,,,,,,,,,,,,,,,,,,,,,,,,,,,,,,,,,,,,,,,,,,,,,,,,
,,5e5f4c3f3d604727f7930fc1,2024-02-19_11h11.39.162,kallum_motion_pilot,2023.2.2,Win32,54.05405405,5e5f4c3f3d604727f7930fc1,65d2b6c8f2eece985d8e374c,65d2b899cb56009c7b584523,0.0901,0.0902,1,56,218,39,1,fourthree,,,,,,,,,,,,,,,,,,,,,,,,,,,,,,,,,,,,,,,,,,,,,,,,,,,,,,,,,,,,,,,,,,,,,,,,,,,,,,,,,,,,,,,,,,,,,,,,,,,,,,,,,,,,,,,,,,,,,,,,,,,,,,,,,,,,,,,,,
,,5e5f4c3f3d604727f7930fc1,2024-02-19_11h11.39.162,kallum_motion_pilot,2023.2.2,Win32,54.05405405,5e5f4c3f3d604727f7930fc1,65d2b6c8f2eece985d8e374c,65d2b899cb56009c7b584523,0.0903,0.0904,1,57,219,86,1,eightsix,,,,,,,,,,,,,,,,,,,,,,,,,,,,,,,,,,,,,,,,,,,,,,,,,,,,,,,,,,,,,,,,,,,,,,,,,,,,,,,,,,,,,,,,,,,,,,,,,,,,,,,,,,,,,,,,,,,,,,,,,,,,,,,,,,,,,,,,,
,,5e5f4c3f3d604727f7930fc1,2024-02-19_11h11.39.162,kallum_motion_pilot,2023.2.2,Win32,54.05405405,5e5f4c3f3d604727f7930fc1,65d2b6c8f2eece985d8e374c,65d2b899cb56009c7b584523,0.0904,0.0906,1,58,220,152,1,fivesix,,,,,,,,,,,,,,,,,,,,,,,,,,,,,,,,,,,,,,,,,,,,,,,,,,,,,,,,,,,,,,,,,,,,,,,,,,,,,,,,,,,,,,,,,,,,,,,,,,,,,,,,,,,,,,,,,,,,,,,,,,,,,,,,,,,,,,,,,
,,5e5f4c3f3d604727f7930fc1,2024-02-19_11h11.39.162,kallum_motion_pilot,2023.2.2,Win32,54.05405405,5e5f4c3f3d604727f7930fc1,65d2b6c8f2eece985d8e374c,65d2b899cb56009c7b584523,0.0906,0.0908,1,59,221,41,1,onethree,,,,,,,,,,,,,,,,,,,,,,,,,,,,,,,,,,,,,,,,,,,,,,,,,,,,,,,,,,,,,,,,,,,,,,,,,,,,,,,,,,,,,,,,,,,,,,,,,,,,,,,,,,,,,,,,,,,,,,,,,,,,,,,,,,,,,,,,,
,,5e5f4c3f3d604727f7930fc1,2024-02-19_11h11.39.162,kallum_motion_pilot,2023.2.2,Win32,54.05405405,5e5f4c3f3d604727f7930fc1,65d2b6c8f2eece985d8e374c,65d2b899cb56009c7b584523,0.0909,0.0909,1,60,222,81,1,fiveseven,,,,,,,,,,,,,,,,,,,,,,,,,,,,,,,,,,,,,,,,,,,,,,,,,,,,,,,,,,,,,,,,,,,,,,,,,,,,,,,,,,,,,,,,,,,,,,,,,,,,,,,,,,,,,,,,,,,,,,,,,,,,,,,,,,,,,,,,,
,,5e5f4c3f3d604727f7930fc1,2024-02-19_11h11.39.162,kallum_motion_pilot,2023.2.2,Win32,54.05405405,5e5f4c3f3d604727f7930fc1,65d2b6c8f2eece985d8e374c,65d2b899cb56009c7b584523,0.091,0.0912,1,61,223,36,1,threeone,,,,,,,,,,,,,,,,,,,,,,,,,,,,,,,,,,,,,,,,,,,,,,,,,,,,,,,,,,,,,,,,,,,,,,,,,,,,,,,,,,,,,,,,,,,,,,,,,,,,,,,,,,,,,,,,,,,,,,,,,,,,,,,,,,,,,,,,,
,,5e5f4c3f3d604727f7930fc1,2024-02-19_11h11.39.162,kallum_motion_pilot,2023.2.2,Win32,54.05405405,5e5f4c3f3d604727f7930fc1,65d2b6c8f2eece985d8e374c,65d2b899cb56009c7b584523,0.0912,0.0913,1,62,224,32,1,onetwo,,,,,,,,,,,,,,,,,,,,,,,,,,,,,,,,,,,,,,,,,,,,,,,,,,,,,,,,,,,,,,,,,,,,,,,,,,,,,,,,,,,,,,,,,,,,,,,,,,,,,,,,,,,,,,,,,,,,,,,,,,,,,,,,,,,,,,,,,
,,5e5f4c3f3d604727f7930fc1,2024-02-19_11h11.39.162,kallum_motion_pilot,2023.2.2,Win32,54.05405405,5e5f4c3f3d604727f7930fc1,65d2b6c8f2eece985d8e374c,65d2b899cb56009c7b584523,0.0915,0.0917,1,63,225,134,1,eightsix,,,,,,,,,,,,,,,,,,,,,,,,,,,,,,,,,,,,,,,,,,,,,,,,,,,,,,,,,,,,,,,,,,,,,,,,,,,,,,,,,,,,,,,,,,,,,,,,,,,,,,,,,,,,,,,,,,,,,,,,,,,,,,,,,,,,,,,,,
,,5e5f4c3f3d604727f7930fc1,2024-02-19_11h11.39.162,kallum_motion_pilot,2023.2.2,Win32,54.05405405,5e5f4c3f3d604727f7930fc1,65d2b6c8f2eece985d8e374c,65d2b899cb56009c7b584523,0.0919,0.092,1,64,226,129,1,fiveseven,,,,,,,,,,,,,,,,,,,,,,,,,,,,,,,,,,,,,,,,,,,,,,,,,,,,,,,,,,,,,,,,,,,,,,,,,,,,,,,,,,,,,,,,,,,,,,,,,,,,,,,,,,,,,,,,,,,,,,,,,,,,,,,,,,,,,,,,,
,,5e5f4c3f3d604727f7930fc1,2024-02-19_11h11.39.162,kallum_motion_pilot,2023.2.2,Win32,54.05405405,5e5f4c3f3d604727f7930fc1,65d2b6c8f2eece985d8e374c,65d2b899cb56009c7b584523,0.0921,0.0922,1,65,227,60,1,threeone,,,,,,,,,,,,,,,,,,,,,,,,,,,,,,,,,,,,,,,,,,,,,,,,,,,,,,,,,,,,,,,,,,,,,,,,,,,,,,,,,,,,,,,,,,,,,,,,,,,,,,,,,,,,,,,,,,,,,,,,,,,,,,,,,,,,,,,,,
,,5e5f4c3f3d604727f7930fc1,2024-02-19_11h11.39.162,kallum_motion_pilot,2023.2.2,Win32,54.05405405,5e5f4c3f3d604727f7930fc1,65d2b6c8f2eece985d8e374c,65d2b899cb56009c7b584523,0.0924,0.0925,1,66,228,84,1,sevenfive,,,,,,,,,,,,,,,,,,,,,,,,,,,,,,,,,,,,,,,,,,,,,,,,,,,,,,,,,,,,,,,,,,,,,,,,,,,,,,,,,,,,,,,,,,,,,,,,,,,,,,,,,,,,,,,,,,,,,,,,,,,,,,,,,,,,,,,,,
,,5e5f4c3f3d604727f7930fc1,2024-02-19_11h11.39.162,kallum_motion_pilot,2023.2.2,Win32,54.05405405,5e5f4c3f3d604727f7930fc1,65d2b6c8f2eece985d8e374c,65d2b899cb56009c7b584523,0.0926,0.0928,1,67,229,103,1,eightseven,,,,,,,,,,,,,,,,,,,,,,,,,,,,,,,,,,,,,,,,,,,,,,,,,,,,,,,,,,,,,,,,,,,,,,,,,,,,,,,,,,,,,,,,,,,,,,,,,,,,,,,,,,,,,,,,,,,,,,,,,,,,,,,,,,,,,,,,,
,,5e5f4c3f3d604727f7930fc1,2024-02-19_11h11.39.162,kallum_motion_pilot,2023.2.2,Win32,54.05405405,5e5f4c3f3d604727f7930fc1,65d2b6c8f2eece985d8e374c,65d2b899cb56009c7b584523,0.0929,0.0931,1,68,230,53,1,threefour,,,,,,,,,,,,,,,,,,,,,,,,,,,,,,,,,,,,,,,,,,,,,,,,,,,,,,,,,,,,,,,,,,,,,,,,,,,,,,,,,,,,,,,,,,,,,,,,,,,,,,,,,,,,,,,,,,,,,,,,,,,,,,,,,,,,,,,,,
,,5e5f4c3f3d604727f7930fc1,2024-02-19_11h11.39.162,kallum_motion_pilot,2023.2.2,Win32,54.05405405,5e5f4c3f3d604727f7930fc1,65d2b6c8f2eece985d8e374c,65d2b899cb56009c7b584523,0.0931,0.0932,1,69,231,17,1,onethree,,,,,,,,,,,,,,,,,,,,,,,,,,,,,,,,,,,,,,,,,,,,,,,,,,,,,,,,,,,,,,,,,,,,,,,,,,,,,,,,,,,,,,,,,,,,,,,,,,,,,,,,,,,,,,,,,,,,,,,,,,,,,,,,,,,,,,,,,
,,5e5f4c3f3d604727f7930fc1,2024-02-19_11h11.39.162,kallum_motion_pilot,2023.2.2,Win32,54.05405405,5e5f4c3f3d604727f7930fc1,65d2b6c8f2eece985d8e374c,65d2b899cb56009c7b584523,0.0933,0.0934,1,70,232,38,1,fourtwo,,,,,,,,,,,,,,,,,,,,,,,,,,,,,,,,,,,,,,,,,,,,,,,,,,,,,,,,,,,,,,,,,,,,,,,,,,,,,,,,,,,,,,,,,,,,,,,,,,,,,,,,,,,,,,,,,,,,,,,,,,,,,,,,,,,,,,,,,
,,5e5f4c3f3d604727f7930fc1,2024-02-19_11h11.39.162,kallum_motion_pilot,2023.2.2,Win32,54.05405405,5e5f4c3f3d604727f7930fc1,65d2b6c8f2eece985d8e374c,65d2b899cb56009c7b584523,0.0935,0.0936,1,71,233,154,1,sixfive,,,,,,,,,,,,,,,,,,,,,,,,,,,,,,,,,,,,,,,,,,,,,,,,,,,,,,,,,,,,,,,,,,,,,,,,,,,,,,,,,,,,,,,,,,,,,,,,,,,,,,,,,,,,,,,,,,,,,,,,,,,,,,,,,,,,,,,,,
,,5e5f4c3f3d604727f7930fc1,2024-02-19_11h11.39.162,kallum_motion_pilot,2023.2.2,Win32,54.05405405,5e5f4c3f3d604727f7930fc1,65d2b6c8f2eece985d8e374c,65d2b899cb56009c7b584523,0.0937,0.0938,1,72,234,149,1,seveneight,,,,,,,,,,,,,,,,,,,,,,,,,,,,,,,,,,,,,,,,,,,,,,,,,,,,,,,,,,,,,,,,,,,,,,,,,,,,,,,,,,,,,,,,,,,,,,,,,,,,,,,,,,,,,,,,,,,,,,,,,,,,,,,,,,,,,,,,,
,,5e5f4c3f3d604727f7930fc1,2024-02-19_11h11.39.162,kallum_motion_pilot,2023.2.2,Win32,54.05405405,5e5f4c3f3d604727f7930fc1,65d2b6c8f2eece985d8e374c,65d2b899cb56009c7b584523,0.094,0.0941,1,73,235,57,1,onethree,,,,,,,,,,,,,,,,,,,,,,,,,,,,,,,,,,,,,,,,,,,,,,,,,,,,,,,,,,,,,,,,,,,,,,,,,,,,,,,,,,,,,,,,,,,,,,,,,,,,,,,,,,,,,,,,,,,,,,,,,,,,,,,,,,,,,,,,,
,,5e5f4c3f3d604727f7930fc1,2024-02-19_11h11.39.162,kallum_motion_pilot,2023.2.2,Win32,54.05405405,5e5f4c3f3d604727f7930fc1,65d2b6c8f2eece985d8e374c,65d2b899cb56009c7b584523,0.0941,0.0943,1,74,236,159,1,eightseven,,,,,,,,,,,,,,,,,,,,,,,,,,,,,,,,,,,,,,,,,,,,,,,,,,,,,,,,,,,,,,,,,,,,,,,,,,,,,,,,,,,,,,,,,,,,,,,,,,,,,,,,,,,,,,,,,,,,,,,,,,,,,,,,,,,,,,,,,
,,5e5f4c3f3d604727f7930fc1,2024-02-19_11h11.39.162,kallum_motion_pilot,2023.2.2,Win32,54.05405405,5e5f4c3f3d604727f7930fc1,65d2b6c8f2eece985d8e374c,65d2b899cb56009c7b584523,0.0943,0.0945,1,75,237,79,1,eightseven,,,,,,,,,,,,,,,,,,,,,,,,,,,,,,,,,,,,,,,,,,,,,,,,,,,,,,,,,,,,,,,,,,,,,,,,,,,,,,,,,,,,,,,,,,,,,,,,,,,,,,,,,,,,,,,,,,,,,,,,,,,,,,,,,,,,,,,,,
,,5e5f4c3f3d604727f7930fc1,2024-02-19_11h11.39.162,kallum_motion_pilot,2023.2.2,Win32,54.05405405,5e5f4c3f3d604727f7930fc1,65d2b6c8f2eece985d8e374c,65d2b899cb56009c7b584523,0.0946,0.0948,1,76,238,160,1,fivesix,,,,,,,,,,,,,,,,,,,,,,,,,,,,,,,,,,,,,,,,,,,,,,,,,,,,,,,,,,,,,,,,,,,,,,,,,,,,,,,,,,,,,,,,,,,,,,,,,,,,,,,,,,,,,,,,,,,,,,,,,,,,,,,,,,,,,,,,,
,,5e5f4c3f3d604727f7930fc1,2024-02-19_11h11.39.162,kallum_motion_pilot,2023.2.2,Win32,54.05405405,5e5f4c3f3d604727f7930fc1,65d2b6c8f2eece985d8e374c,65d2b899cb56009c7b584523,0.0948,0.095,1,77,239,10,1,twoone,,,,,,,,,,,,,,,,,,,,,,,,,,,,,,,,,,,,,,,,,,,,,,,,,,,,,,,,,,,,,,,,,,,,,,,,,,,,,,,,,,,,,,,,,,,,,,,,,,,,,,,,,,,,,,,,,,,,,,,,,,,,,,,,,,,,,,,,,
,,5e5f4c3f3d604727f7930fc1,2024-02-19_11h11.39.162,kallum_motion_pilot,2023.2.2,Win32,54.05405405,5e5f4c3f3d604727f7930fc1,65d2b6c8f2eece985d8e374c,65d2b899cb56009c7b584523,0.0951,0.0951,1,78,240,50,1,twoone,,,,,,,,,,,,,,,,,,,,,,,,,,,,,,,,,,,,,,,,,,,,,,,,,,,,,,,,,,,,,,,,,,,,,,,,,,,,,,,,,,,,,,,,,,,,,,,,,,,,,,,,,,,,,,,,,,,,,,,,,,,,,,,,,,,,,,,,,
,,5e5f4c3f3d604727f7930fc1,2024-02-19_11h11.39.162,kallum_motion_pilot,2023.2.2,Win32,54.05405405,5e5f4c3f3d604727f7930fc1,65d2b6c8f2eece985d8e374c,65d2b899cb56009c7b584523,0.0954,0.0957,1,79,241,137,1,fiveseven,,,,,,,,,,,,,,,,,,,,,,,,,,,,,,,,,,,,,,,,,,,,,,,,,,,,,,,,,,,,,,,,,,,,,,,,,,,,,,,,,,,,,,,,,,,,,,,,,,,,,,,,,,,,,,,,,,,,,,,,,,,,,,,,,,,,,,,,,
,,5e5f4c3f3d604727f7930fc1,2024-02-19_11h11.39.162,kallum_motion_pilot,2023.2.2,Win32,54.05405405,5e5f4c3f3d604727f7930fc1,65d2b6c8f2eece985d8e374c,65d2b899cb56009c7b584523,0.096,0.0963,1,80,242,94,1,eightsix,,,,,,,,,,,,,,,,,,,,,,,,,,,,,,,,,,,,,,,,,,,,,,,,,,,,,,,,,,,,,,,,,,,,,,,,,,,,,,,,,,,,,,,,,,,,,,,,,,,,,,,,,,,,,,,,,,,,,,,,,,,,,,,,,,,,,,,,,
,,5e5f4c3f3d604727f7930fc1,2024-02-19_11h11.39.162,kallum_motion_pilot,2023.2.2,Win32,54.05405405,5e5f4c3f3d604727f7930fc1,65d2b6c8f2eece985d8e374c,65d2b899cb56009c7b584523,0.0965,0.0967,1,81,243,54,1,fourtwo,,,,,,,,,,,,,,,,,,,,,,,,,,,,,,,,,,,,,,,,,,,,,,,,,,,,,,,,,,,,,,,,,,,,,,,,,,,,,,,,,,,,,,,,,,,,,,,,,,,,,,,,,,,,,,,,,,,,,,,,,,,,,,,,,,,,,,,,,
,,5e5f4c3f3d604727f7930fc1,2024-02-19_11h11.39.162,kallum_motion_pilot,2023.2.2,Win32,54.05405405,5e5f4c3f3d604727f7930fc1,65d2b6c8f2eece985d8e374c,65d2b899cb56009c7b584523,0.097,0.0971,1,82,244,119,1,eightseven,,,,,,,,,,,,,,,,,,,,,,,,,,,,,,,,,,,,,,,,,,,,,,,,,,,,,,,,,,,,,,,,,,,,,,,,,,,,,,,,,,,,,,,,,,,,,,,,,,,,,,,,,,,,,,,,,,,,,,,,,,,,,,,,,,,,,,,,,
,,5e5f4c3f3d604727f7930fc1,2024-02-19_11h11.39.162,kallum_motion_pilot,2023.2.2,Win32,54.05405405,5e5f4c3f3d604727f7930fc1,65d2b6c8f2eece985d8e374c,65d2b899cb56009c7b584523,0.0973,0.0973,1,83,245,14,1,fourtwo,,,,,,,,,,,,,,,,,,,,,,,,,,,,,,,,,,,,,,,,,,,,,,,,,,,,,,,,,,,,,,,,,,,,,,,,,,,,,,,,,,,,,,,,,,,,,,,,,,,,,,,,,,,,,,,,,,,,,,,,,,,,,,,,,,,,,,,,,
,,5e5f4c3f3d604727f7930fc1,2024-02-19_11h11.39.162,kallum_motion_pilot,2023.2.2,Win32,54.05405405,5e5f4c3f3d604727f7930fc1,65d2b6c8f2eece985d8e374c,65d2b899cb56009c7b584523,0.0975,0.0976,1,84,246,121,1,fiveseven,,,,,,,,,,,,,,,,,,,,,,,,,,,,,,,,,,,,,,,,,,,,,,,,,,,,,,,,,,,,,,,,,,,,,,,,,,,,,,,,,,,,,,,,,,,,,,,,,,,,,,,,,,,,,,,,,,,,,,,,,,,,,,,,,,,,,,,,,
,,5e5f4c3f3d604727f7930fc1,2024-02-19_11h11.39.162,kallum_motion_pilot,2023.2.2,Win32,54.05405405,5e5f4c3f3d604727f7930fc1,65d2b6c8f2eece985d8e374c,65d2b899cb56009c7b584523,0.0977,0.0978,1,85,247,80,1,fivesix,,,,,,,,,,,,,,,,,,,,,,,,,,,,,,,,,,,,,,,,,,,,,,,,,,,,,,,,,,,,,,,,,,,,,,,,,,,,,,,,,,,,,,,,,,,,,,,,,,,,,,,,,,,,,,,,,,,,,,,,,,,,,,,,,,,,,,,,,
,,5e5f4c3f3d604727f7930fc1,2024-02-19_11h11.39.162,kallum_motion_pilot,2023.2.2,Win32,54.05405405,5e5f4c3f3d604727f7930fc1,65d2b6c8f2eece985d8e374c,65d2b899cb56009c7b584523,0.0979,0.098,1,86,248,74,1,twoone,,,,,,,,,,,,,,,,,,,,,,,,,,,,,,,,,,,,,,,,,,,,,,,,,,,,,,,,,,,,,,,,,,,,,,,,,,,,,,,,,,,,,,,,,,,,,,,,,,,,,,,,,,,,,,,,,,,,,,,,,,,,,,,,,,,,,,,,,
,,5e5f4c3f3d604727f7930fc1,2024-02-19_11h11.39.162,kallum_motion_pilot,2023.2.2,Win32,54.05405405,5e5f4c3f3d604727f7930fc1,65d2b6c8f2eece985d8e374c,65d2b899cb56009c7b584523,0.0981,0.0982,1,87,249,148,1,sevenfive,,,,,,,,,,,,,,,,,,,,,,,,,,,,,,,,,,,,,,,,,,,,,,,,,,,,,,,,,,,,,,,,,,,,,,,,,,,,,,,,,,,,,,,,,,,,,,,,,,,,,,,,,,,,,,,,,,,,,,,,,,,,,,,,,,,,,,,,,
,,5e5f4c3f3d604727f7930fc1,2024-02-19_11h11.39.162,kallum_motion_pilot,2023.2.2,Win32,54.05405405,5e5f4c3f3d604727f7930fc1,65d2b6c8f2eece985d8e374c,65d2b899cb56009c7b584523,0.0984,0.0984,1,88,250,104,1,fivesix,,,,,,,,,,,,,,,,,,,,,,,,,,,,,,,,,,,,,,,,,,,,,,,,,,,,,,,,,,,,,,,,,,,,,,,,,,,,,,,,,,,,,,,,,,,,,,,,,,,,,,,,,,,,,,,,,,,,,,,,,,,,,,,,,,,,,,,,,
,,5e5f4c3f3d604727f7930fc1,2024-02-19_11h11.39.162,kallum_motion_pilot,2023.2.2,Win32,54.05405405,5e5f4c3f3d604727f7930fc1,65d2b6c8f2eece985d8e374c,65d2b899cb56009c7b584523,0.0986,0.0986,1,89,251,75,1,twofour,,,,,,,,,,,,,,,,,,,,,,,,,,,,,,,,,,,,,,,,,,,,,,,,,,,,,,,,,,,,,,,,,,,,,,,,,,,,,,,,,,,,,,,,,,,,,,,,,,,,,,,,,,,,,,,,,,,,,,,,,,,,,,,,,,,,,,,,,
,,5e5f4c3f3d604727f7930fc1,2024-02-19_11h11.39.162,kallum_motion_pilot,2023.2.2,Win32,54.05405405,5e5f4c3f3d604727f7930fc1,65d2b6c8f2eece985d8e374c,65d2b899cb56009c7b584523,0.0987,0.0988,1,90,252,52,1,threeone,,,,,,,,,,,,,,,,,,,,,,,,,,,,,,,,,,,,,,,,,,,,,,,,,,,,,,,,,,,,,,,,,,,,,,,,,,,,,,,,,,,,,,,,,,,,,,,,,,,,,,,,,,,,,,,,,,,,,,,,,,,,,,,,,,,,,,,,,
,,5e5f4c3f3d604727f7930fc1,2024-02-19_11h11.39.162,kallum_motion_pilot,2023.2.2,Win32,54.05405405,5e5f4c3f3d604727f7930fc1,65d2b6c8f2eece985d8e374c,65d2b899cb56009c7b584523,0.0989,0.099,1,91,253,83,1,sixeight,,,,,,,,,,,,,,,,,,,,,,,,,,,,,,,,,,,,,,,,,,,,,,,,,,,,,,,,,,,,,,,,,,,,,,,,,,,,,,,,,,,,,,,,,,,,,,,,,,,,,,,,,,,,,,,,,,,,,,,,,,,,,,,,,,,,,,,,,
,,5e5f4c3f3d604727f7930fc1,2024-02-19_11h11.39.162,kallum_motion_pilot,2023.2.2,Win32,54.05405405,5e5f4c3f3d604727f7930fc1,65d2b6c8f2eece985d8e374c,65d2b899cb56009c7b584523,0.0991,0.0992,1,92,254,120,1,fivesix,,,,,,,,,,,,,,,,,,,,,,,,,,,,,,,,,,,,,,,,,,,,,,,,,,,,,,,,,,,,,,,,,,,,,,,,,,,,,,,,,,,,,,,,,,,,,,,,,,,,,,,,,,,,,,,,,,,,,,,,,,,,,,,,,,,,,,,,,
,,5e5f4c3f3d604727f7930fc1,2024-02-19_11h11.39.162,kallum_motion_pilot,2023.2.2,Win32,54.05405405,5e5f4c3f3d604727f7930fc1,65d2b6c8f2eece985d8e374c,65d2b899cb56009c7b584523,0.0994,0.0995,1,93,255,117,1,seveneight,,,,,,,,,,,,,,,,,,,,,,,,,,,,,,,,,,,,,,,,,,,,,,,,,,,,,,,,,,,,,,,,,,,,,,,,,,,,,,,,,,,,,,,,,,,,,,,,,,,,,,,,,,,,,,,,,,,,,,,,,,,,,,,,,,,,,,,,,
,,5e5f4c3f3d604727f7930fc1,2024-02-19_11h11.39.162,kallum_motion_pilot,2023.2.2,Win32,54.05405405,5e5f4c3f3d604727f7930fc1,65d2b6c8f2eece985d8e374c,65d2b899cb56009c7b584523,0.0997,0.0998,1,94,256,51,1,twofour,,,,,,,,,,,,,,,,,,,,,,,,,,,,,,,,,,,,,,,,,,,,,,,,,,,,,,,,,,,,,,,,,,,,,,,,,,,,,,,,,,,,,,,,,,,,,,,,,,,,,,,,,,,,,,,,,,,,,,,,,,,,,,,,,,,,,,,,,
,,5e5f4c3f3d604727f7930fc1,2024-02-19_11h11.39.162,kallum_motion_pilot,2023.2.2,Win32,54.05405405,5e5f4c3f3d604727f7930fc1,65d2b6c8f2eece985d8e374c,65d2b899cb56009c7b584523,0.0999,0.1,1,95,257,113,1,fiveseven,,,,,,,,,,,,,,,,,,,,,,,,,,,,,,,,,,,,,,,,,,,,,,,,,,,,,,,,,,,,,,,,,,,,,,,,,,,,,,,,,,,,,,,,,,,,,,,,,,,,,,,,,,,,,,,,,,,,,,,,,,,,,,,,,,,,,,,,,
,,5e5f4c3f3d604727f7930fc1,2024-02-19_11h11.39.162,kallum_motion_pilot,2023.2.2,Win32,54.05405405,5e5f4c3f3d604727f7930fc1,65d2b6c8f2eece985d8e374c,65d2b899cb56009c7b584523,0.1001,0.1002,1,96,258,146,1,sixfive,,,,,,,,,,,,,,,,,,,,,,,,,,,,,,,,,,,,,,,,,,,,,,,,,,,,,,,,,,,,,,,,,,,,,,,,,,,,,,,,,,,,,,,,,,,,,,,,,,,,,,,,,,,,,,,,,,,,,,,,,,,,,,,,,,,,,,,,,
,,5e5f4c3f3d604727f7930fc1,2024-02-19_11h11.39.162,kallum_motion_pilot,2023.2.2,Win32,54.05405405,5e5f4c3f3d604727f7930fc1,65d2b6c8f2eece985d8e374c,65d2b899cb56009c7b584523,0.1003,0.1004,1,97,259,56,1,onetwo,,,,,,,,,,,,,,,,,,,,,,,,,,,,,,,,,,,,,,,,,,,,,,,,,,,,,,,,,,,,,,,,,,,,,,,,,,,,,,,,,,,,,,,,,,,,,,,,,,,,,,,,,,,,,,,,,,,,,,,,,,,,,,,,,,,,,,,,,
,,5e5f4c3f3d604727f7930fc1,2024-02-19_11h11.39.162,kallum_motion_pilot,2023.2.2,Win32,54.05405405,5e5f4c3f3d604727f7930fc1,65d2b6c8f2eece985d8e374c,65d2b899cb56009c7b584523,0.1005,0.1006,1,98,260,97,1,fiveseven,,,,,,,,,,,,,,,,,,,,,,,,,,,,,,,,,,,,,,,,,,,,,,,,,,,,,,,,,,,,,,,,,,,,,,,,,,,,,,,,,,,,,,,,,,,,,,,,,,,,,,,,,,,,,,,,,,,,,,,,,,,,,,,,,,,,,,,,,
,,5e5f4c3f3d604727f7930fc1,2024-02-19_11h11.39.162,kallum_motion_pilot,2023.2.2,Win32,54.05405405,5e5f4c3f3d604727f7930fc1,65d2b6c8f2eece985d8e374c,65d2b899cb56009c7b584523,0.1008,0.1009,1,99,261,31,1,fourthree,,,,,,,,,,,,,,,,,,,,,,,,,,,,,,,,,,,,,,,,,,,,,,,,,,,,,,,,,,,,,,,,,,,,,,,,,,,,,,,,,,,,,,,,,,,,,,,,,,,,,,,,,,,,,,,,,,,,,,,,,,,,,,,,,,,,,,,,,
,,5e5f4c3f3d604727f7930fc1,2024-02-19_11h11.39.162,kallum_motion_pilot,2023.2.2,Win32,54.05405405,5e5f4c3f3d604727f7930fc1,65d2b6c8f2eece985d8e374c,65d2b899cb56009c7b584523,0.1009,0.101,1,100,262,88,1,fivesix,,,,,,,,,,,,,,,,,,,,,,,,,,,,,,,,,,,,,,,,,,,,,,,,,,,,,,,,,,,,,,,,,,,,,,,,,,,,,,,,,,,,,,,,,,,,,,,,,,,,,,,,,,,,,,,,,,,,,,,,,,,,,,,,,,,,,,,,,
,,5e5f4c3f3d604727f7930fc1,2024-02-19_11h11.39.162,kallum_motion_pilot,2023.2.2,Win32,54.05405405,5e5f4c3f3d604727f7930fc1,65d2b6c8f2eece985d8e374c,65d2b899cb56009c7b584523,0.1012,0.1014,1,101,263,85,1,seveneight,,,,,,,,,,,,,,,,,,,,,,,,,,,,,,,,,,,,,,,,,,,,,,,,,,,,,,,,,,,,,,,,,,,,,,,,,,,,,,,,,,,,,,,,,,,,,,,,,,,,,,,,,,,,,,,,,,,,,,,,,,,,,,,,,,,,,,,,,
,,5e5f4c3f3d604727f7930fc1,2024-02-19_11h11.39.162,kallum_motion_pilot,2023.2.2,Win32,54.05405405,5e5f4c3f3d604727f7930fc1,65d2b6c8f2eece985d8e374c,65d2b899cb56009c7b584523,0.1017,0.102,1,102,264,151,1,eightseven,,,,,,,,,,,,,,,,,,,,,,,,,,,,,,,,,,,,,,,,,,,,,,,,,,,,,,,,,,,,,,,,,,,,,,,,,,,,,,,,,,,,,,,,,,,,,,,,,,,,,,,,,,,,,,,,,,,,,,,,,,,,,,,,,,,,,,,,,
,,5e5f4c3f3d604727f7930fc1,2024-02-19_11h11.39.162,kallum_motion_pilot,2023.2.2,Win32,54.05405405,5e5f4c3f3d604727f7930fc1,65d2b6c8f2eece985d8e374c,65d2b899cb56009c7b584523,0.1022,0.1023,1,103,265,55,1,fourthree,,,,,,,,,,,,,,,,,,,,,,,,,,,,,,,,,,,,,,,,,,,,,,,,,,,,,,,,,,,,,,,,,,,,,,,,,,,,,,,,,,,,,,,,,,,,,,,,,,,,,,,,,,,,,,,,,,,,,,,,,,,,,,,,,,,,,,,,,
,,5e5f4c3f3d604727f7930fc1,2024-02-19_11h11.39.162,kallum_motion_pilot,2023.2.2,Win32,54.05405405,5e5f4c3f3d604727f7930fc1,65d2b6c8f2eece985d8e374c,65d2b899cb56009c7b584523,0.1024,0.1026,1,104,266,71,1,fourthree,,,,,,,,,,,,,,,,,,,,,,,,,,,,,,,,,,,,,,,,,,,,,,,,,,,,,,,,,,,,,,,,,,,,,,,,,,,,,,,,,,,,,,,,,,,,,,,,,,,,,,,,,,,,,,,,,,,,,,,,,,,,,,,,,,,,,,,,,
,,5e5f4c3f3d604727f7930fc1,2024-02-19_11h11.39.162,kallum_motion_pilot,2023.2.2,Win32,54.05405405,5e5f4c3f3d604727f7930fc1,65d2b6c8f2eece985d8e374c,65d2b899cb56009c7b584523,0.1027,0.1027,1,105,267,125,1,seveneight,,,,,,,,,,,,,,,,,,,,,,,,,,,,,,,,,,,,,,,,,,,,,,,,,,,,,,,,,,,,,,,,,,,,,,,,,,,,,,,,,,,,,,,,,,,,,,,,,,,,,,,,,,,,,,,,,,,,,,,,,,,,,,,,,,,,,,,,,
,,5e5f4c3f3d604727f7930fc1,2024-02-19_11h11.39.162,kallum_motion_pilot,2023.2.2,Win32,54.05405405,5e5f4c3f3d604727f7930fc1,65d2b6c8f2eece985d8e374c,65d2b899cb56009c7b584523,0.1028,0.103,1,106,268,112,1,fivesix,,,,,,,,,,,,,,,,,,,,,,,,,,,,,,,,,,,,,,,,,,,,,,,,,,,,,,,,,,,,,,,,,,,,,,,,,,,,,,,,,,,,,,,,,,,,,,,,,,,,,,,,,,,,,,,,,,,,,,,,,,,,,,,,,,,,,,,,,
,,5e5f4c3f3d604727f7930fc1,2024-02-19_11h11.39.162,kallum_motion_pilot,2023.2.2,Win32,54.05405405,5e5f4c3f3d604727f7930fc1,65d2b6c8f2eece985d8e374c,65d2b899cb56009c7b584523,0.1031,0.1033,1,107,269,157,1,seveneight,,,,,,,,,,,,,,,,,,,,,,,,,,,,,,,,,,,,,,,,,,,,,,,,,,,,,,,,,,,,,,,,,,,,,,,,,,,,,,,,,,,,,,,,,,,,,,,,,,,,,,,,,,,,,,,,,,,,,,,,,,,,,,,,,,,,,,,,,
,,5e5f4c3f3d604727f7930fc1,2024-02-19_11h11.39.162,kallum_motion_pilot,2023.2.2,Win32,54.05405405,5e5f4c3f3d604727f7930fc1,65d2b6c8f2eece985d8e374c,65d2b899cb56009c7b584523,0.1033,0.1034,1,108,270,30,1,fourtwo,,,,,,,,,,,,,,,,,,,,,,,,,,,,,,,,,,,,,,,,,,,,,,,,,,,,,,,,,,,,,,,,,,,,,,,,,,,,,,,,,,,,,,,,,,,,,,,,,,,,,,,,,,,,,,,,,,,,,,,,,,,,,,,,,,,,,,,,,
,,5e5f4c3f3d604727f7930fc1,2024-02-19_11h11.39.162,kallum_motion_pilot,2023.2.2,Win32,54.05405405,5e5f4c3f3d604727f7930fc1,65d2b6c8f2eece985d8e374c,65d2b899cb56009c7b584523,0.1035,0.1036,1,109,271,28,1,threeone,,,,,,,,,,,,,,,,,,,,,,,,,,,,,,,,,,,,,,,,,,,,,,,,,,,,,,,,,,,,,,,,,,,,,,,,,,,,,,,,,,,,,,,,,,,,,,,,,,,,,,,,,,,,,,,,,,,,,,,,,,,,,,,,,,,,,,,,,
,,5e5f4c3f3d604727f7930fc1,2024-02-19_11h11.39.162,kallum_motion_pilot,2023.2.2,Win32,54.05405405,5e5f4c3f3d604727f7930fc1,65d2b6c8f2eece985d8e374c,65d2b899cb56009c7b584523,0.1037,0.1038,1,110,272,78,1,fourtwo,,,,,,,,,,,,,,,,,,,,,,,,,,,,,,,,,,,,,,,,,,,,,,,,,,,,,,,,,,,,,,,,,,,,,,,,,,,,,,,,,,,,,,,,,,,,,,,,,,,,,,,,,,,,,,,,,,,,,,,,,,,,,,,,,,,,,,,,,
,,5e5f4c3f3d604727f7930fc1,2024-02-19_11h11.39.162,kallum_motion_pilot,2023.2.2,Win32,54.05405405,5e5f4c3f3d604727f7930fc1,65d2b6c8f2eece985d8e374c,65d2b899cb56009c7b584523,0.104,0.104,1,111,273,133,1,seveneight,,,,,,,,,,,,,,,,,,,,,,,,,,,,,,,,,,,,,,,,,,,,,,,,,,,,,,,,,,,,,,,,,,,,,,,,,,,,,,,,,,,,,,,,,,,,,,,,,,,,,,,,,,,,,,,,,,,,,,,,,,,,,,,,,,,,,,,,,
,,5e5f4c3f3d604727f7930fc1,2024-02-19_11h11.39.162,kallum_motion_pilot,2023.2.2,Win32,54.05405405,5e5f4c3f3d604727f7930fc1,65d2b6c8f2eece985d8e374c,65d2b899cb56009c7b584523,0.1042,0.1043,1,112,274,37,1,threefour,,,,,,,,,,,,,,,,,,,,,,,,,,,,,,,,,,,,,,,,,,,,,,,,,,,,,,,,,,,,,,,,,,,,,,,,,,,,,,,,,,,,,,,,,,,,,,,,,,,,,,,,,,,,,,,,,,,,,,,,,,,,,,,,,,,,,,,,,
,,5e5f4c3f3d604727f7930fc1,2024-02-19_11h11.39.162,kallum_motion_pilot,2023.2.2,Win32,54.05405405,5e5f4c3f3d604727f7930fc1,65d2b6c8f2eece985d8e374c,65d2b899cb56009c7b584523,0.1044,0.1045,1,113,275,45,1,threefour,,,,,,,,,,,,,,,,,,,,,,,,,,,,,,,,,,,,,,,,,,,,,,,,,,,,,,,,,,,,,,,,,,,,,,,,,,,,,,,,,,,,,,,,,,,,,,,,,,,,,,,,,,,,,,,,,,,,,,,,,,,,,,,,,,,,,,,,,
,,5e5f4c3f3d604727f7930fc1,2024-02-19_11h11.39.162,kallum_motion_pilot,2023.2.2,Win32,54.05405405,5e5f4c3f3d604727f7930fc1,65d2b6c8f2eece985d8e374c,65d2b899cb56009c7b584523,0.1046,0.1047,1,114,276,144,1,fivesix,,,,,,,,,,,,,,,,,,,,,,,,,,,,,,,,,,,,,,,,,,,,,,,,,,,,,,,,,,,,,,,,,,,,,,,,,,,,,,,,,,,,,,,,,,,,,,,,,,,,,,,,,,,,,,,,,,,,,,,,,,,,,,,,,,,,,,,,,
,,5e5f4c3f3d604727f7930fc1,2024-02-19_11h11.39.162,kallum_motion_pilot,2023.2.2,Win32,54.05405405,5e5f4c3f3d604727f7930fc1,65d2b6c8f2eece985d8e374c,65d2b899cb56009c7b584523,0.1048,0.105,1,115,277,35,1,twofour,,,,,,,,,,,,,,,,,,,,,,,,,,,,,,,,,,,,,,,,,,,,,,,,,,,,,,,,,,,,,,,,,,,,,,,,,,,,,,,,,,,,,,,,,,,,,,,,,,,,,,,,,,,,,,,,,,,,,,,,,,,,,,,,,,,,,,,,,
