startup.started,startup.stopped,Prolific ID*,date,expName,psychopyVersion,OS,frameRate,participant,study_id,session,stimpositions.started,stimpositions.stopped,hardcoded_stimulus_positions.thisRepN,hardcoded_stimulus_positions.thisTrialN,hardcoded_stimulus_positions.thisN,hardcoded_stimulus_positions.thisIndex,hardcoded_stimulus_positions.ran,StimulusPos,stimorientation.started,stimorientation.stopped,prac_stimorientation_import_loop.thisRepN,prac_stimorientation_import_loop.thisTrialN,prac_stimorientation_import_loop.thisN,prac_stimorientation_import_loop.thisIndex,prac_stimorientation_import_loop.ran,Stimorientation,welcome_instr.started,welcome_instr.stopped,key_resp.keys,key_resp.rt,key_resp.duration,response_steppedout_1.started,response_steppedout_1.stopped,key_resp_20.keys,key_resp_20.rt,key_resp_20.duration,response_steppedout_2.started,response_steppedout_2.stopped,key_resp_19.keys,key_resp_19.rt,key_resp_19.duration,stim_response_instr.started,stim_response_instr.stopped,key_resp_15.keys,key_resp_15.rt,key_resp_15.duration,direction_instr_2.started,direction_instr_2.stopped,key_resp_9.keys,key_resp_9.rt,key_resp_9.duration,instr_prac.started,instr_prac.stopped,key_resp_10.keys,key_resp_10.rt,key_resp_10.duration,Stim1_display_prac.started,Stim1_display_prac.stopped,Ecc,Circle1_ori,Circle2_ori,response_prac.started,similarity,response_time,response_prac.stopped,mouse_5.x,mouse_5.y,mouse_5.leftButton,mouse_5.midButton,mouse_5.rightButton,mouse_5.clicked_name,responseprac_feedback.started,responseprac_feedback.stopped,summary2_prac.started,summary2_prac.stopped,mouse_6.x,mouse_6.y,mouse_6.leftButton,mouse_6.midButton,mouse_6.rightButton,mouse_6.clicked_name,duringprac.thisRepN,duringprac.thisTrialN,duringprac.thisN,duringprac.thisIndex,duringprac.ran,begin.started,begin.stopped,key_resp_22.keys,key_resp_22.rt,key_resp_22.duration,Stim1_display.started,Stim1_display.stopped,circle1_ori,circle2_ori,circle1_SF,circle2_SF,response.started,response.stopped,mouse.x,mouse.y,mouse.leftButton,mouse.midButton,mouse.rightButton,mouse.clicked_name,trialnumber,double_pass.thisRepN,double_pass.thisTrialN,double_pass.thisN,double_pass.thisIndex,double_pass.ran,double_pass.order,main_trial.thisRepN,main_trial.thisTrialN,main_trial.thisN,main_trial.thisIndex,main_trial.ran,main_trial.order,Trial_Counter,Catch,Frequencies,response_2.started,response_2.stopped,mouse_2.x,mouse_2.y,mouse_2.leftButton,mouse_2.midButton,mouse_2.rightButton,mouse_2.clicked_name,special_trial.started,special_trial.stopped,catch_1.started,catch_1.stopped,mouse_3.x,mouse_3.y,mouse_3.leftButton,mouse_3.midButton,mouse_3.rightButton,catchresponse,catchnumber,response_time_catch,response_sum.started,response_sum.stopped,mouse_11.x,mouse_11.y,mouse_11.leftButton,mouse_11.midButton,mouse_11.rightButton,flip_presentation_sequence_for_double_pass.started,flip_presentation_sequence_for_double_pass.stopped,goodbye.started,goodbye.stopped,key_resp_3.keys,key_resp_3.rt,key_resp_3.duration
0.0004,0.0005,5e86972528aacd2d57010c07,2024-02-22_04h24.46.761,kallum_motion_pilot,2023.2.2,Win32,13.33333333,5e86972528aacd2d57010c07,65d6bb0e977760de756971f7,65d6bdec994906782921cdac,,,,,,,,,,,,,,,,,,,,,,,,,,,,,,,,,,,,,,,,,,,,,,,,,,,,,,,,,,,,,,,,,,,,,,,,,,,,,,,,,,,,,,,,,,,,,,,,,,,,,,,,,,,,,,,,,,,,,,,,,,,,,,,,,,,,,,,,,,,,,,,,,
,,5e86972528aacd2d57010c07,2024-02-22_04h24.46.761,kallum_motion_pilot,2023.2.2,Win32,13.33333333,5e86972528aacd2d57010c07,65d6bb0e977760de756971f7,65d6bdec994906782921cdac,0.019,0.0192,0,0,0,88,1,fivesix,,,,,,,,,,,,,,,,,,,,,,,,,,,,,,,,,,,,,,,,,,,,,,,,,,,,,,,,,,,,,,,,,,,,,,,,,,,,,,,,,,,,,,,,,,,,,,,,,,,,,,,,,,,,,,,,,,,,,,,,,,,,,,,,,,,,,,,,,
,,5e86972528aacd2d57010c07,2024-02-22_04h24.46.761,kallum_motion_pilot,2023.2.2,Win32,13.33333333,5e86972528aacd2d57010c07,65d6bb0e977760de756971f7,65d6bdec994906782921cdac,0.0194,0.0194,0,1,1,145,1,fiveseven,,,,,,,,,,,,,,,,,,,,,,,,,,,,,,,,,,,,,,,,,,,,,,,,,,,,,,,,,,,,,,,,,,,,,,,,,,,,,,,,,,,,,,,,,,,,,,,,,,,,,,,,,,,,,,,,,,,,,,,,,,,,,,,,,,,,,,,,,
,,5e86972528aacd2d57010c07,2024-02-22_04h24.46.761,kallum_motion_pilot,2023.2.2,Win32,13.33333333,5e86972528aacd2d57010c07,65d6bb0e977760de756971f7,65d6bdec994906782921cdac,0.0195,0.0195,0,2,2,120,1,fivesix,,,,,,,,,,,,,,,,,,,,,,,,,,,,,,,,,,,,,,,,,,,,,,,,,,,,,,,,,,,,,,,,,,,,,,,,,,,,,,,,,,,,,,,,,,,,,,,,,,,,,,,,,,,,,,,,,,,,,,,,,,,,,,,,,,,,,,,,,
,,5e86972528aacd2d57010c07,2024-02-22_04h24.46.761,kallum_motion_pilot,2023.2.2,Win32,13.33333333,5e86972528aacd2d57010c07,65d6bb0e977760de756971f7,65d6bdec994906782921cdac,0.0196,0.0196,0,3,3,96,1,fivesix,,,,,,,,,,,,,,,,,,,,,,,,,,,,,,,,,,,,,,,,,,,,,,,,,,,,,,,,,,,,,,,,,,,,,,,,,,,,,,,,,,,,,,,,,,,,,,,,,,,,,,,,,,,,,,,,,,,,,,,,,,,,,,,,,,,,,,,,,
,,5e86972528aacd2d57010c07,2024-02-22_04h24.46.761,kallum_motion_pilot,2023.2.2,Win32,13.33333333,5e86972528aacd2d57010c07,65d6bb0e977760de756971f7,65d6bdec994906782921cdac,0.0196,0.0196,0,4,4,97,1,fiveseven,,,,,,,,,,,,,,,,,,,,,,,,,,,,,,,,,,,,,,,,,,,,,,,,,,,,,,,,,,,,,,,,,,,,,,,,,,,,,,,,,,,,,,,,,,,,,,,,,,,,,,,,,,,,,,,,,,,,,,,,,,,,,,,,,,,,,,,,,
,,5e86972528aacd2d57010c07,2024-02-22_04h24.46.761,kallum_motion_pilot,2023.2.2,Win32,13.33333333,5e86972528aacd2d57010c07,65d6bb0e977760de756971f7,65d6bdec994906782921cdac,0.0197,0.0197,0,5,5,56,1,onetwo,,,,,,,,,,,,,,,,,,,,,,,,,,,,,,,,,,,,,,,,,,,,,,,,,,,,,,,,,,,,,,,,,,,,,,,,,,,,,,,,,,,,,,,,,,,,,,,,,,,,,,,,,,,,,,,,,,,,,,,,,,,,,,,,,,,,,,,,,
,,5e86972528aacd2d57010c07,2024-02-22_04h24.46.761,kallum_motion_pilot,2023.2.2,Win32,13.33333333,5e86972528aacd2d57010c07,65d6bb0e977760de756971f7,65d6bdec994906782921cdac,0.0206,0.0206,0,6,6,38,1,fourtwo,,,,,,,,,,,,,,,,,,,,,,,,,,,,,,,,,,,,,,,,,,,,,,,,,,,,,,,,,,,,,,,,,,,,,,,,,,,,,,,,,,,,,,,,,,,,,,,,,,,,,,,,,,,,,,,,,,,,,,,,,,,,,,,,,,,,,,,,,
,,5e86972528aacd2d57010c07,2024-02-22_04h24.46.761,kallum_motion_pilot,2023.2.2,Win32,13.33333333,5e86972528aacd2d57010c07,65d6bb0e977760de756971f7,65d6bdec994906782921cdac,0.0207,0.0207,0,7,7,87,1,eightseven,,,,,,,,,,,,,,,,,,,,,,,,,,,,,,,,,,,,,,,,,,,,,,,,,,,,,,,,,,,,,,,,,,,,,,,,,,,,,,,,,,,,,,,,,,,,,,,,,,,,,,,,,,,,,,,,,,,,,,,,,,,,,,,,,,,,,,,,,
,,5e86972528aacd2d57010c07,2024-02-22_04h24.46.761,kallum_motion_pilot,2023.2.2,Win32,13.33333333,5e86972528aacd2d57010c07,65d6bb0e977760de756971f7,65d6bdec994906782921cdac,0.0208,0.0208,0,8,8,119,1,eightseven,,,,,,,,,,,,,,,,,,,,,,,,,,,,,,,,,,,,,,,,,,,,,,,,,,,,,,,,,,,,,,,,,,,,,,,,,,,,,,,,,,,,,,,,,,,,,,,,,,,,,,,,,,,,,,,,,,,,,,,,,,,,,,,,,,,,,,,,,
,,5e86972528aacd2d57010c07,2024-02-22_04h24.46.761,kallum_motion_pilot,2023.2.2,Win32,13.33333333,5e86972528aacd2d57010c07,65d6bb0e977760de756971f7,65d6bdec994906782921cdac,0.0209,0.0209,0,9,9,21,1,threefour,,,,,,,,,,,,,,,,,,,,,,,,,,,,,,,,,,,,,,,,,,,,,,,,,,,,,,,,,,,,,,,,,,,,,,,,,,,,,,,,,,,,,,,,,,,,,,,,,,,,,,,,,,,,,,,,,,,,,,,,,,,,,,,,,,,,,,,,,
,,5e86972528aacd2d57010c07,2024-02-22_04h24.46.761,kallum_motion_pilot,2023.2.2,Win32,13.33333333,5e86972528aacd2d57010c07,65d6bb0e977760de756971f7,65d6bdec994906782921cdac,0.021,0.021,0,10,10,31,1,fourthree,,,,,,,,,,,,,,,,,,,,,,,,,,,,,,,,,,,,,,,,,,,,,,,,,,,,,,,,,,,,,,,,,,,,,,,,,,,,,,,,,,,,,,,,,,,,,,,,,,,,,,,,,,,,,,,,,,,,,,,,,,,,,,,,,,,,,,,,,
,,5e86972528aacd2d57010c07,2024-02-22_04h24.46.761,kallum_motion_pilot,2023.2.2,Win32,13.33333333,5e86972528aacd2d57010c07,65d6bb0e977760de756971f7,65d6bdec994906782921cdac,0.021,0.0211,0,11,11,41,1,onethree,,,,,,,,,,,,,,,,,,,,,,,,,,,,,,,,,,,,,,,,,,,,,,,,,,,,,,,,,,,,,,,,,,,,,,,,,,,,,,,,,,,,,,,,,,,,,,,,,,,,,,,,,,,,,,,,,,,,,,,,,,,,,,,,,,,,,,,,,
,,5e86972528aacd2d57010c07,2024-02-22_04h24.46.761,kallum_motion_pilot,2023.2.2,Win32,13.33333333,5e86972528aacd2d57010c07,65d6bb0e977760de756971f7,65d6bdec994906782921cdac,0.0212,0.0212,0,12,12,93,1,seveneight,,,,,,,,,,,,,,,,,,,,,,,,,,,,,,,,,,,,,,,,,,,,,,,,,,,,,,,,,,,,,,,,,,,,,,,,,,,,,,,,,,,,,,,,,,,,,,,,,,,,,,,,,,,,,,,,,,,,,,,,,,,,,,,,,,,,,,,,,
,,5e86972528aacd2d57010c07,2024-02-22_04h24.46.761,kallum_motion_pilot,2023.2.2,Win32,13.33333333,5e86972528aacd2d57010c07,65d6bb0e977760de756971f7,65d6bdec994906782921cdac,0.0212,0.0213,0,13,13,123,1,sixeight,,,,,,,,,,,,,,,,,,,,,,,,,,,,,,,,,,,,,,,,,,,,,,,,,,,,,,,,,,,,,,,,,,,,,,,,,,,,,,,,,,,,,,,,,,,,,,,,,,,,,,,,,,,,,,,,,,,,,,,,,,,,,,,,,,,,,,,,,
,,5e86972528aacd2d57010c07,2024-02-22_04h24.46.761,kallum_motion_pilot,2023.2.2,Win32,13.33333333,5e86972528aacd2d57010c07,65d6bb0e977760de756971f7,65d6bdec994906782921cdac,0.0213,0.0213,0,14,14,13,1,threefour,,,,,,,,,,,,,,,,,,,,,,,,,,,,,,,,,,,,,,,,,,,,,,,,,,,,,,,,,,,,,,,,,,,,,,,,,,,,,,,,,,,,,,,,,,,,,,,,,,,,,,,,,,,,,,,,,,,,,,,,,,,,,,,,,,,,,,,,,
,,5e86972528aacd2d57010c07,2024-02-22_04h24.46.761,kallum_motion_pilot,2023.2.2,Win32,13.33333333,5e86972528aacd2d57010c07,65d6bb0e977760de756971f7,65d6bdec994906782921cdac,0.0214,0.0214,0,15,15,14,1,fourtwo,,,,,,,,,,,,,,,,,,,,,,,,,,,,,,,,,,,,,,,,,,,,,,,,,,,,,,,,,,,,,,,,,,,,,,,,,,,,,,,,,,,,,,,,,,,,,,,,,,,,,,,,,,,,,,,,,,,,,,,,,,,,,,,,,,,,,,,,,
,,5e86972528aacd2d57010c07,2024-02-22_04h24.46.761,kallum_motion_pilot,2023.2.2,Win32,13.33333333,5e86972528aacd2d57010c07,65d6bb0e977760de756971f7,65d6bdec994906782921cdac,0.0215,0.0215,0,16,16,55,1,fourthree,,,,,,,,,,,,,,,,,,,,,,,,,,,,,,,,,,,,,,,,,,,,,,,,,,,,,,,,,,,,,,,,,,,,,,,,,,,,,,,,,,,,,,,,,,,,,,,,,,,,,,,,,,,,,,,,,,,,,,,,,,,,,,,,,,,,,,,,,
,,5e86972528aacd2d57010c07,2024-02-22_04h24.46.761,kallum_motion_pilot,2023.2.2,Win32,13.33333333,5e86972528aacd2d57010c07,65d6bb0e977760de756971f7,65d6bdec994906782921cdac,0.0215,0.0215,0,17,17,7,1,fourthree,,,,,,,,,,,,,,,,,,,,,,,,,,,,,,,,,,,,,,,,,,,,,,,,,,,,,,,,,,,,,,,,,,,,,,,,,,,,,,,,,,,,,,,,,,,,,,,,,,,,,,,,,,,,,,,,,,,,,,,,,,,,,,,,,,,,,,,,,
,,5e86972528aacd2d57010c07,2024-02-22_04h24.46.761,kallum_motion_pilot,2023.2.2,Win32,13.33333333,5e86972528aacd2d57010c07,65d6bb0e977760de756971f7,65d6bdec994906782921cdac,0.0216,0.0216,0,18,18,86,1,eightsix,,,,,,,,,,,,,,,,,,,,,,,,,,,,,,,,,,,,,,,,,,,,,,,,,,,,,,,,,,,,,,,,,,,,,,,,,,,,,,,,,,,,,,,,,,,,,,,,,,,,,,,,,,,,,,,,,,,,,,,,,,,,,,,,,,,,,,,,,
,,5e86972528aacd2d57010c07,2024-02-22_04h24.46.761,kallum_motion_pilot,2023.2.2,Win32,13.33333333,5e86972528aacd2d57010c07,65d6bb0e977760de756971f7,65d6bdec994906782921cdac,0.0217,0.0217,0,19,19,72,1,onetwo,,,,,,,,,,,,,,,,,,,,,,,,,,,,,,,,,,,,,,,,,,,,,,,,,,,,,,,,,,,,,,,,,,,,,,,,,,,,,,,,,,,,,,,,,,,,,,,,,,,,,,,,,,,,,,,,,,,,,,,,,,,,,,,,,,,,,,,,,
,,5e86972528aacd2d57010c07,2024-02-22_04h24.46.761,kallum_motion_pilot,2023.2.2,Win32,13.33333333,5e86972528aacd2d57010c07,65d6bb0e977760de756971f7,65d6bdec994906782921cdac,0.0218,0.0218,0,20,20,53,1,threefour,,,,,,,,,,,,,,,,,,,,,,,,,,,,,,,,,,,,,,,,,,,,,,,,,,,,,,,,,,,,,,,,,,,,,,,,,,,,,,,,,,,,,,,,,,,,,,,,,,,,,,,,,,,,,,,,,,,,,,,,,,,,,,,,,,,,,,,,,
,,5e86972528aacd2d57010c07,2024-02-22_04h24.46.761,kallum_motion_pilot,2023.2.2,Win32,13.33333333,5e86972528aacd2d57010c07,65d6bb0e977760de756971f7,65d6bdec994906782921cdac,0.0218,0.0218,0,21,21,28,1,threeone,,,,,,,,,,,,,,,,,,,,,,,,,,,,,,,,,,,,,,,,,,,,,,,,,,,,,,,,,,,,,,,,,,,,,,,,,,,,,,,,,,,,,,,,,,,,,,,,,,,,,,,,,,,,,,,,,,,,,,,,,,,,,,,,,,,,,,,,,
,,5e86972528aacd2d57010c07,2024-02-22_04h24.46.761,kallum_motion_pilot,2023.2.2,Win32,13.33333333,5e86972528aacd2d57010c07,65d6bb0e977760de756971f7,65d6bdec994906782921cdac,0.0219,0.022,0,22,22,48,1,onetwo,,,,,,,,,,,,,,,,,,,,,,,,,,,,,,,,,,,,,,,,,,,,,,,,,,,,,,,,,,,,,,,,,,,,,,,,,,,,,,,,,,,,,,,,,,,,,,,,,,,,,,,,,,,,,,,,,,,,,,,,,,,,,,,,,,,,,,,,,
,,5e86972528aacd2d57010c07,2024-02-22_04h24.46.761,kallum_motion_pilot,2023.2.2,Win32,13.33333333,5e86972528aacd2d57010c07,65d6bb0e977760de756971f7,65d6bdec994906782921cdac,0.022,0.0221,0,23,23,71,1,fourthree,,,,,,,,,,,,,,,,,,,,,,,,,,,,,,,,,,,,,,,,,,,,,,,,,,,,,,,,,,,,,,,,,,,,,,,,,,,,,,,,,,,,,,,,,,,,,,,,,,,,,,,,,,,,,,,,,,,,,,,,,,,,,,,,,,,,,,,,,
,,5e86972528aacd2d57010c07,2024-02-22_04h24.46.761,kallum_motion_pilot,2023.2.2,Win32,13.33333333,5e86972528aacd2d57010c07,65d6bb0e977760de756971f7,65d6bdec994906782921cdac,0.0222,0.0222,0,24,24,59,1,twofour,,,,,,,,,,,,,,,,,,,,,,,,,,,,,,,,,,,,,,,,,,,,,,,,,,,,,,,,,,,,,,,,,,,,,,,,,,,,,,,,,,,,,,,,,,,,,,,,,,,,,,,,,,,,,,,,,,,,,,,,,,,,,,,,,,,,,,,,,
,,5e86972528aacd2d57010c07,2024-02-22_04h24.46.761,kallum_motion_pilot,2023.2.2,Win32,13.33333333,5e86972528aacd2d57010c07,65d6bb0e977760de756971f7,65d6bdec994906782921cdac,0.0223,0.0224,0,25,25,16,1,onetwo,,,,,,,,,,,,,,,,,,,,,,,,,,,,,,,,,,,,,,,,,,,,,,,,,,,,,,,,,,,,,,,,,,,,,,,,,,,,,,,,,,,,,,,,,,,,,,,,,,,,,,,,,,,,,,,,,,,,,,,,,,,,,,,,,,,,,,,,,
,,5e86972528aacd2d57010c07,2024-02-22_04h24.46.761,kallum_motion_pilot,2023.2.2,Win32,13.33333333,5e86972528aacd2d57010c07,65d6bb0e977760de756971f7,65d6bdec994906782921cdac,0.0224,0.0225,0,26,26,117,1,seveneight,,,,,,,,,,,,,,,,,,,,,,,,,,,,,,,,,,,,,,,,,,,,,,,,,,,,,,,,,,,,,,,,,,,,,,,,,,,,,,,,,,,,,,,,,,,,,,,,,,,,,,,,,,,,,,,,,,,,,,,,,,,,,,,,,,,,,,,,,
,,5e86972528aacd2d57010c07,2024-02-22_04h24.46.761,kallum_motion_pilot,2023.2.2,Win32,13.33333333,5e86972528aacd2d57010c07,65d6bb0e977760de756971f7,65d6bdec994906782921cdac,0.0225,0.0226,0,27,27,156,1,sevenfive,,,,,,,,,,,,,,,,,,,,,,,,,,,,,,,,,,,,,,,,,,,,,,,,,,,,,,,,,,,,,,,,,,,,,,,,,,,,,,,,,,,,,,,,,,,,,,,,,,,,,,,,,,,,,,,,,,,,,,,,,,,,,,,,,,,,,,,,,
,,5e86972528aacd2d57010c07,2024-02-22_04h24.46.761,kallum_motion_pilot,2023.2.2,Win32,13.33333333,5e86972528aacd2d57010c07,65d6bb0e977760de756971f7,65d6bdec994906782921cdac,0.0228,0.0228,0,28,28,60,1,threeone,,,,,,,,,,,,,,,,,,,,,,,,,,,,,,,,,,,,,,,,,,,,,,,,,,,,,,,,,,,,,,,,,,,,,,,,,,,,,,,,,,,,,,,,,,,,,,,,,,,,,,,,,,,,,,,,,,,,,,,,,,,,,,,,,,,,,,,,,
,,5e86972528aacd2d57010c07,2024-02-22_04h24.46.761,kallum_motion_pilot,2023.2.2,Win32,13.33333333,5e86972528aacd2d57010c07,65d6bb0e977760de756971f7,65d6bdec994906782921cdac,0.023,0.023,0,29,29,64,1,onetwo,,,,,,,,,,,,,,,,,,,,,,,,,,,,,,,,,,,,,,,,,,,,,,,,,,,,,,,,,,,,,,,,,,,,,,,,,,,,,,,,,,,,,,,,,,,,,,,,,,,,,,,,,,,,,,,,,,,,,,,,,,,,,,,,,,,,,,,,,
,,5e86972528aacd2d57010c07,2024-02-22_04h24.46.761,kallum_motion_pilot,2023.2.2,Win32,13.33333333,5e86972528aacd2d57010c07,65d6bb0e977760de756971f7,65d6bdec994906782921cdac,0.0231,0.0231,0,30,30,107,1,sixeight,,,,,,,,,,,,,,,,,,,,,,,,,,,,,,,,,,,,,,,,,,,,,,,,,,,,,,,,,,,,,,,,,,,,,,,,,,,,,,,,,,,,,,,,,,,,,,,,,,,,,,,,,,,,,,,,,,,,,,,,,,,,,,,,,,,,,,,,,
,,5e86972528aacd2d57010c07,2024-02-22_04h24.46.761,kallum_motion_pilot,2023.2.2,Win32,13.33333333,5e86972528aacd2d57010c07,65d6bb0e977760de756971f7,65d6bdec994906782921cdac,0.0233,0.0233,0,31,31,95,1,eightseven,,,,,,,,,,,,,,,,,,,,,,,,,,,,,,,,,,,,,,,,,,,,,,,,,,,,,,,,,,,,,,,,,,,,,,,,,,,,,,,,,,,,,,,,,,,,,,,,,,,,,,,,,,,,,,,,,,,,,,,,,,,,,,,,,,,,,,,,,
,,5e86972528aacd2d57010c07,2024-02-22_04h24.46.761,kallum_motion_pilot,2023.2.2,Win32,13.33333333,5e86972528aacd2d57010c07,65d6bb0e977760de756971f7,65d6bdec994906782921cdac,0.0234,0.0234,0,32,32,46,1,fourtwo,,,,,,,,,,,,,,,,,,,,,,,,,,,,,,,,,,,,,,,,,,,,,,,,,,,,,,,,,,,,,,,,,,,,,,,,,,,,,,,,,,,,,,,,,,,,,,,,,,,,,,,,,,,,,,,,,,,,,,,,,,,,,,,,,,,,,,,,,
,,5e86972528aacd2d57010c07,2024-02-22_04h24.46.761,kallum_motion_pilot,2023.2.2,Win32,13.33333333,5e86972528aacd2d57010c07,65d6bb0e977760de756971f7,65d6bdec994906782921cdac,0.0235,0.0235,0,33,33,39,1,fourthree,,,,,,,,,,,,,,,,,,,,,,,,,,,,,,,,,,,,,,,,,,,,,,,,,,,,,,,,,,,,,,,,,,,,,,,,,,,,,,,,,,,,,,,,,,,,,,,,,,,,,,,,,,,,,,,,,,,,,,,,,,,,,,,,,,,,,,,,,
,,5e86972528aacd2d57010c07,2024-02-22_04h24.46.761,kallum_motion_pilot,2023.2.2,Win32,13.33333333,5e86972528aacd2d57010c07,65d6bb0e977760de756971f7,65d6bdec994906782921cdac,0.0236,0.0237,0,34,34,121,1,fiveseven,,,,,,,,,,,,,,,,,,,,,,,,,,,,,,,,,,,,,,,,,,,,,,,,,,,,,,,,,,,,,,,,,,,,,,,,,,,,,,,,,,,,,,,,,,,,,,,,,,,,,,,,,,,,,,,,,,,,,,,,,,,,,,,,,,,,,,,,,
,,5e86972528aacd2d57010c07,2024-02-22_04h24.46.761,kallum_motion_pilot,2023.2.2,Win32,13.33333333,5e86972528aacd2d57010c07,65d6bb0e977760de756971f7,65d6bdec994906782921cdac,0.0237,0.0237,0,35,35,49,1,onethree,,,,,,,,,,,,,,,,,,,,,,,,,,,,,,,,,,,,,,,,,,,,,,,,,,,,,,,,,,,,,,,,,,,,,,,,,,,,,,,,,,,,,,,,,,,,,,,,,,,,,,,,,,,,,,,,,,,,,,,,,,,,,,,,,,,,,,,,,
,,5e86972528aacd2d57010c07,2024-02-22_04h24.46.761,kallum_motion_pilot,2023.2.2,Win32,13.33333333,5e86972528aacd2d57010c07,65d6bb0e977760de756971f7,65d6bdec994906782921cdac,0.0239,0.0239,0,36,36,142,1,eightsix,,,,,,,,,,,,,,,,,,,,,,,,,,,,,,,,,,,,,,,,,,,,,,,,,,,,,,,,,,,,,,,,,,,,,,,,,,,,,,,,,,,,,,,,,,,,,,,,,,,,,,,,,,,,,,,,,,,,,,,,,,,,,,,,,,,,,,,,,
,,5e86972528aacd2d57010c07,2024-02-22_04h24.46.761,kallum_motion_pilot,2023.2.2,Win32,13.33333333,5e86972528aacd2d57010c07,65d6bb0e977760de756971f7,65d6bdec994906782921cdac,0.024,0.024,0,37,37,136,1,fivesix,,,,,,,,,,,,,,,,,,,,,,,,,,,,,,,,,,,,,,,,,,,,,,,,,,,,,,,,,,,,,,,,,,,,,,,,,,,,,,,,,,,,,,,,,,,,,,,,,,,,,,,,,,,,,,,,,,,,,,,,,,,,,,,,,,,,,,,,,
,,5e86972528aacd2d57010c07,2024-02-22_04h24.46.761,kallum_motion_pilot,2023.2.2,Win32,13.33333333,5e86972528aacd2d57010c07,65d6bb0e977760de756971f7,65d6bdec994906782921cdac,0.024,0.024,0,38,38,159,1,eightseven,,,,,,,,,,,,,,,,,,,,,,,,,,,,,,,,,,,,,,,,,,,,,,,,,,,,,,,,,,,,,,,,,,,,,,,,,,,,,,,,,,,,,,,,,,,,,,,,,,,,,,,,,,,,,,,,,,,,,,,,,,,,,,,,,,,,,,,,,
,,5e86972528aacd2d57010c07,2024-02-22_04h24.46.761,kallum_motion_pilot,2023.2.2,Win32,13.33333333,5e86972528aacd2d57010c07,65d6bb0e977760de756971f7,65d6bdec994906782921cdac,0.0241,0.0241,0,39,39,15,1,fourthree,,,,,,,,,,,,,,,,,,,,,,,,,,,,,,,,,,,,,,,,,,,,,,,,,,,,,,,,,,,,,,,,,,,,,,,,,,,,,,,,,,,,,,,,,,,,,,,,,,,,,,,,,,,,,,,,,,,,,,,,,,,,,,,,,,,,,,,,,
,,5e86972528aacd2d57010c07,2024-02-22_04h24.46.761,kallum_motion_pilot,2023.2.2,Win32,13.33333333,5e86972528aacd2d57010c07,65d6bb0e977760de756971f7,65d6bdec994906782921cdac,0.0242,0.0243,0,40,40,18,1,twoone,,,,,,,,,,,,,,,,,,,,,,,,,,,,,,,,,,,,,,,,,,,,,,,,,,,,,,,,,,,,,,,,,,,,,,,,,,,,,,,,,,,,,,,,,,,,,,,,,,,,,,,,,,,,,,,,,,,,,,,,,,,,,,,,,,,,,,,,,
,,5e86972528aacd2d57010c07,2024-02-22_04h24.46.761,kallum_motion_pilot,2023.2.2,Win32,13.33333333,5e86972528aacd2d57010c07,65d6bb0e977760de756971f7,65d6bdec994906782921cdac,0.0243,0.0243,0,41,41,33,1,onethree,,,,,,,,,,,,,,,,,,,,,,,,,,,,,,,,,,,,,,,,,,,,,,,,,,,,,,,,,,,,,,,,,,,,,,,,,,,,,,,,,,,,,,,,,,,,,,,,,,,,,,,,,,,,,,,,,,,,,,,,,,,,,,,,,,,,,,,,,
,,5e86972528aacd2d57010c07,2024-02-22_04h24.46.761,kallum_motion_pilot,2023.2.2,Win32,13.33333333,5e86972528aacd2d57010c07,65d6bb0e977760de756971f7,65d6bdec994906782921cdac,0.0244,0.0244,0,42,42,68,1,threeone,,,,,,,,,,,,,,,,,,,,,,,,,,,,,,,,,,,,,,,,,,,,,,,,,,,,,,,,,,,,,,,,,,,,,,,,,,,,,,,,,,,,,,,,,,,,,,,,,,,,,,,,,,,,,,,,,,,,,,,,,,,,,,,,,,,,,,,,,
,,5e86972528aacd2d57010c07,2024-02-22_04h24.46.761,kallum_motion_pilot,2023.2.2,Win32,13.33333333,5e86972528aacd2d57010c07,65d6bb0e977760de756971f7,65d6bdec994906782921cdac,0.0245,0.0246,0,43,43,35,1,twofour,,,,,,,,,,,,,,,,,,,,,,,,,,,,,,,,,,,,,,,,,,,,,,,,,,,,,,,,,,,,,,,,,,,,,,,,,,,,,,,,,,,,,,,,,,,,,,,,,,,,,,,,,,,,,,,,,,,,,,,,,,,,,,,,,,,,,,,,,
,,5e86972528aacd2d57010c07,2024-02-22_04h24.46.761,kallum_motion_pilot,2023.2.2,Win32,13.33333333,5e86972528aacd2d57010c07,65d6bb0e977760de756971f7,65d6bdec994906782921cdac,0.0247,0.0247,0,44,44,137,1,fiveseven,,,,,,,,,,,,,,,,,,,,,,,,,,,,,,,,,,,,,,,,,,,,,,,,,,,,,,,,,,,,,,,,,,,,,,,,,,,,,,,,,,,,,,,,,,,,,,,,,,,,,,,,,,,,,,,,,,,,,,,,,,,,,,,,,,,,,,,,,
,,5e86972528aacd2d57010c07,2024-02-22_04h24.46.761,kallum_motion_pilot,2023.2.2,Win32,13.33333333,5e86972528aacd2d57010c07,65d6bb0e977760de756971f7,65d6bdec994906782921cdac,0.0247,0.0247,0,45,45,24,1,onetwo,,,,,,,,,,,,,,,,,,,,,,,,,,,,,,,,,,,,,,,,,,,,,,,,,,,,,,,,,,,,,,,,,,,,,,,,,,,,,,,,,,,,,,,,,,,,,,,,,,,,,,,,,,,,,,,,,,,,,,,,,,,,,,,,,,,,,,,,,
,,5e86972528aacd2d57010c07,2024-02-22_04h24.46.761,kallum_motion_pilot,2023.2.2,Win32,13.33333333,5e86972528aacd2d57010c07,65d6bb0e977760de756971f7,65d6bdec994906782921cdac,0.0248,0.0248,0,46,46,26,1,twoone,,,,,,,,,,,,,,,,,,,,,,,,,,,,,,,,,,,,,,,,,,,,,,,,,,,,,,,,,,,,,,,,,,,,,,,,,,,,,,,,,,,,,,,,,,,,,,,,,,,,,,,,,,,,,,,,,,,,,,,,,,,,,,,,,,,,,,,,,
,,5e86972528aacd2d57010c07,2024-02-22_04h24.46.761,kallum_motion_pilot,2023.2.2,Win32,13.33333333,5e86972528aacd2d57010c07,65d6bb0e977760de756971f7,65d6bdec994906782921cdac,0.0249,0.0249,0,47,47,82,1,sixfive,,,,,,,,,,,,,,,,,,,,,,,,,,,,,,,,,,,,,,,,,,,,,,,,,,,,,,,,,,,,,,,,,,,,,,,,,,,,,,,,,,,,,,,,,,,,,,,,,,,,,,,,,,,,,,,,,,,,,,,,,,,,,,,,,,,,,,,,,
,,5e86972528aacd2d57010c07,2024-02-22_04h24.46.761,kallum_motion_pilot,2023.2.2,Win32,13.33333333,5e86972528aacd2d57010c07,65d6bb0e977760de756971f7,65d6bdec994906782921cdac,0.025,0.025,0,48,48,158,1,eightsix,,,,,,,,,,,,,,,,,,,,,,,,,,,,,,,,,,,,,,,,,,,,,,,,,,,,,,,,,,,,,,,,,,,,,,,,,,,,,,,,,,,,,,,,,,,,,,,,,,,,,,,,,,,,,,,,,,,,,,,,,,,,,,,,,,,,,,,,,
,,5e86972528aacd2d57010c07,2024-02-22_04h24.46.761,kallum_motion_pilot,2023.2.2,Win32,13.33333333,5e86972528aacd2d57010c07,65d6bb0e977760de756971f7,65d6bdec994906782921cdac,0.0251,0.0251,0,49,49,115,1,sixeight,,,,,,,,,,,,,,,,,,,,,,,,,,,,,,,,,,,,,,,,,,,,,,,,,,,,,,,,,,,,,,,,,,,,,,,,,,,,,,,,,,,,,,,,,,,,,,,,,,,,,,,,,,,,,,,,,,,,,,,,,,,,,,,,,,,,,,,,,
,,5e86972528aacd2d57010c07,2024-02-22_04h24.46.761,kallum_motion_pilot,2023.2.2,Win32,13.33333333,5e86972528aacd2d57010c07,65d6bb0e977760de756971f7,65d6bdec994906782921cdac,0.0252,0.0253,0,50,50,0,1,onetwo,,,,,,,,,,,,,,,,,,,,,,,,,,,,,,,,,,,,,,,,,,,,,,,,,,,,,,,,,,,,,,,,,,,,,,,,,,,,,,,,,,,,,,,,,,,,,,,,,,,,,,,,,,,,,,,,,,,,,,,,,,,,,,,,,,,,,,,,,
,,5e86972528aacd2d57010c07,2024-02-22_04h24.46.761,kallum_motion_pilot,2023.2.2,Win32,13.33333333,5e86972528aacd2d57010c07,65d6bb0e977760de756971f7,65d6bdec994906782921cdac,0.0254,0.0254,0,51,51,152,1,fivesix,,,,,,,,,,,,,,,,,,,,,,,,,,,,,,,,,,,,,,,,,,,,,,,,,,,,,,,,,,,,,,,,,,,,,,,,,,,,,,,,,,,,,,,,,,,,,,,,,,,,,,,,,,,,,,,,,,,,,,,,,,,,,,,,,,,,,,,,,
,,5e86972528aacd2d57010c07,2024-02-22_04h24.46.761,kallum_motion_pilot,2023.2.2,Win32,13.33333333,5e86972528aacd2d57010c07,65d6bb0e977760de756971f7,65d6bdec994906782921cdac,0.0255,0.0255,0,52,52,116,1,sevenfive,,,,,,,,,,,,,,,,,,,,,,,,,,,,,,,,,,,,,,,,,,,,,,,,,,,,,,,,,,,,,,,,,,,,,,,,,,,,,,,,,,,,,,,,,,,,,,,,,,,,,,,,,,,,,,,,,,,,,,,,,,,,,,,,,,,,,,,,,
,,5e86972528aacd2d57010c07,2024-02-22_04h24.46.761,kallum_motion_pilot,2023.2.2,Win32,13.33333333,5e86972528aacd2d57010c07,65d6bb0e977760de756971f7,65d6bdec994906782921cdac,0.0256,0.0257,0,53,53,12,1,threeone,,,,,,,,,,,,,,,,,,,,,,,,,,,,,,,,,,,,,,,,,,,,,,,,,,,,,,,,,,,,,,,,,,,,,,,,,,,,,,,,,,,,,,,,,,,,,,,,,,,,,,,,,,,,,,,,,,,,,,,,,,,,,,,,,,,,,,,,,
,,5e86972528aacd2d57010c07,2024-02-22_04h24.46.761,kallum_motion_pilot,2023.2.2,Win32,13.33333333,5e86972528aacd2d57010c07,65d6bb0e977760de756971f7,65d6bdec994906782921cdac,0.0257,0.0257,0,54,54,148,1,sevenfive,,,,,,,,,,,,,,,,,,,,,,,,,,,,,,,,,,,,,,,,,,,,,,,,,,,,,,,,,,,,,,,,,,,,,,,,,,,,,,,,,,,,,,,,,,,,,,,,,,,,,,,,,,,,,,,,,,,,,,,,,,,,,,,,,,,,,,,,,
,,5e86972528aacd2d57010c07,2024-02-22_04h24.46.761,kallum_motion_pilot,2023.2.2,Win32,13.33333333,5e86972528aacd2d57010c07,65d6bb0e977760de756971f7,65d6bdec994906782921cdac,0.0258,0.0258,0,55,55,106,1,sixfive,,,,,,,,,,,,,,,,,,,,,,,,,,,,,,,,,,,,,,,,,,,,,,,,,,,,,,,,,,,,,,,,,,,,,,,,,,,,,,,,,,,,,,,,,,,,,,,,,,,,,,,,,,,,,,,,,,,,,,,,,,,,,,,,,,,,,,,,,
,,5e86972528aacd2d57010c07,2024-02-22_04h24.46.761,kallum_motion_pilot,2023.2.2,Win32,13.33333333,5e86972528aacd2d57010c07,65d6bb0e977760de756971f7,65d6bdec994906782921cdac,0.0259,0.0259,0,56,56,102,1,eightsix,,,,,,,,,,,,,,,,,,,,,,,,,,,,,,,,,,,,,,,,,,,,,,,,,,,,,,,,,,,,,,,,,,,,,,,,,,,,,,,,,,,,,,,,,,,,,,,,,,,,,,,,,,,,,,,,,,,,,,,,,,,,,,,,,,,,,,,,,
,,5e86972528aacd2d57010c07,2024-02-22_04h24.46.761,kallum_motion_pilot,2023.2.2,Win32,13.33333333,5e86972528aacd2d57010c07,65d6bb0e977760de756971f7,65d6bdec994906782921cdac,0.026,0.026,0,57,57,61,1,threefour,,,,,,,,,,,,,,,,,,,,,,,,,,,,,,,,,,,,,,,,,,,,,,,,,,,,,,,,,,,,,,,,,,,,,,,,,,,,,,,,,,,,,,,,,,,,,,,,,,,,,,,,,,,,,,,,,,,,,,,,,,,,,,,,,,,,,,,,,
,,5e86972528aacd2d57010c07,2024-02-22_04h24.46.761,kallum_motion_pilot,2023.2.2,Win32,13.33333333,5e86972528aacd2d57010c07,65d6bb0e977760de756971f7,65d6bdec994906782921cdac,0.0261,0.0261,0,58,58,98,1,sixfive,,,,,,,,,,,,,,,,,,,,,,,,,,,,,,,,,,,,,,,,,,,,,,,,,,,,,,,,,,,,,,,,,,,,,,,,,,,,,,,,,,,,,,,,,,,,,,,,,,,,,,,,,,,,,,,,,,,,,,,,,,,,,,,,,,,,,,,,,
,,5e86972528aacd2d57010c07,2024-02-22_04h24.46.761,kallum_motion_pilot,2023.2.2,Win32,13.33333333,5e86972528aacd2d57010c07,65d6bb0e977760de756971f7,65d6bdec994906782921cdac,0.0262,0.0263,0,59,59,85,1,seveneight,,,,,,,,,,,,,,,,,,,,,,,,,,,,,,,,,,,,,,,,,,,,,,,,,,,,,,,,,,,,,,,,,,,,,,,,,,,,,,,,,,,,,,,,,,,,,,,,,,,,,,,,,,,,,,,,,,,,,,,,,,,,,,,,,,,,,,,,,
,,5e86972528aacd2d57010c07,2024-02-22_04h24.46.761,kallum_motion_pilot,2023.2.2,Win32,13.33333333,5e86972528aacd2d57010c07,65d6bb0e977760de756971f7,65d6bdec994906782921cdac,0.0263,0.0264,0,60,60,94,1,eightsix,,,,,,,,,,,,,,,,,,,,,,,,,,,,,,,,,,,,,,,,,,,,,,,,,,,,,,,,,,,,,,,,,,,,,,,,,,,,,,,,,,,,,,,,,,,,,,,,,,,,,,,,,,,,,,,,,,,,,,,,,,,,,,,,,,,,,,,,,
,,5e86972528aacd2d57010c07,2024-02-22_04h24.46.761,kallum_motion_pilot,2023.2.2,Win32,13.33333333,5e86972528aacd2d57010c07,65d6bb0e977760de756971f7,65d6bdec994906782921cdac,0.0264,0.0265,0,61,61,139,1,sixeight,,,,,,,,,,,,,,,,,,,,,,,,,,,,,,,,,,,,,,,,,,,,,,,,,,,,,,,,,,,,,,,,,,,,,,,,,,,,,,,,,,,,,,,,,,,,,,,,,,,,,,,,,,,,,,,,,,,,,,,,,,,,,,,,,,,,,,,,,
,,5e86972528aacd2d57010c07,2024-02-22_04h24.46.761,kallum_motion_pilot,2023.2.2,Win32,13.33333333,5e86972528aacd2d57010c07,65d6bb0e977760de756971f7,65d6bdec994906782921cdac,0.0265,0.0266,0,62,62,144,1,fivesix,,,,,,,,,,,,,,,,,,,,,,,,,,,,,,,,,,,,,,,,,,,,,,,,,,,,,,,,,,,,,,,,,,,,,,,,,,,,,,,,,,,,,,,,,,,,,,,,,,,,,,,,,,,,,,,,,,,,,,,,,,,,,,,,,,,,,,,,,
,,5e86972528aacd2d57010c07,2024-02-22_04h24.46.761,kallum_motion_pilot,2023.2.2,Win32,13.33333333,5e86972528aacd2d57010c07,65d6bb0e977760de756971f7,65d6bdec994906782921cdac,0.0267,0.0267,0,63,63,80,1,fivesix,,,,,,,,,,,,,,,,,,,,,,,,,,,,,,,,,,,,,,,,,,,,,,,,,,,,,,,,,,,,,,,,,,,,,,,,,,,,,,,,,,,,,,,,,,,,,,,,,,,,,,,,,,,,,,,,,,,,,,,,,,,,,,,,,,,,,,,,,
,,5e86972528aacd2d57010c07,2024-02-22_04h24.46.761,kallum_motion_pilot,2023.2.2,Win32,13.33333333,5e86972528aacd2d57010c07,65d6bb0e977760de756971f7,65d6bdec994906782921cdac,0.0268,0.0268,0,64,64,147,1,sixeight,,,,,,,,,,,,,,,,,,,,,,,,,,,,,,,,,,,,,,,,,,,,,,,,,,,,,,,,,,,,,,,,,,,,,,,,,,,,,,,,,,,,,,,,,,,,,,,,,,,,,,,,,,,,,,,,,,,,,,,,,,,,,,,,,,,,,,,,,
,,5e86972528aacd2d57010c07,2024-02-22_04h24.46.761,kallum_motion_pilot,2023.2.2,Win32,13.33333333,5e86972528aacd2d57010c07,65d6bb0e977760de756971f7,65d6bdec994906782921cdac,0.0269,0.0269,0,65,65,66,1,twoone,,,,,,,,,,,,,,,,,,,,,,,,,,,,,,,,,,,,,,,,,,,,,,,,,,,,,,,,,,,,,,,,,,,,,,,,,,,,,,,,,,,,,,,,,,,,,,,,,,,,,,,,,,,,,,,,,,,,,,,,,,,,,,,,,,,,,,,,,
,,5e86972528aacd2d57010c07,2024-02-22_04h24.46.761,kallum_motion_pilot,2023.2.2,Win32,13.33333333,5e86972528aacd2d57010c07,65d6bb0e977760de756971f7,65d6bdec994906782921cdac,0.0269,0.027,0,66,66,99,1,sixeight,,,,,,,,,,,,,,,,,,,,,,,,,,,,,,,,,,,,,,,,,,,,,,,,,,,,,,,,,,,,,,,,,,,,,,,,,,,,,,,,,,,,,,,,,,,,,,,,,,,,,,,,,,,,,,,,,,,,,,,,,,,,,,,,,,,,,,,,,
,,5e86972528aacd2d57010c07,2024-02-22_04h24.46.761,kallum_motion_pilot,2023.2.2,Win32,13.33333333,5e86972528aacd2d57010c07,65d6bb0e977760de756971f7,65d6bdec994906782921cdac,0.0271,0.0271,0,67,67,149,1,seveneight,,,,,,,,,,,,,,,,,,,,,,,,,,,,,,,,,,,,,,,,,,,,,,,,,,,,,,,,,,,,,,,,,,,,,,,,,,,,,,,,,,,,,,,,,,,,,,,,,,,,,,,,,,,,,,,,,,,,,,,,,,,,,,,,,,,,,,,,,
,,5e86972528aacd2d57010c07,2024-02-22_04h24.46.761,kallum_motion_pilot,2023.2.2,Win32,13.33333333,5e86972528aacd2d57010c07,65d6bb0e977760de756971f7,65d6bdec994906782921cdac,0.0273,0.0273,0,68,68,17,1,onethree,,,,,,,,,,,,,,,,,,,,,,,,,,,,,,,,,,,,,,,,,,,,,,,,,,,,,,,,,,,,,,,,,,,,,,,,,,,,,,,,,,,,,,,,,,,,,,,,,,,,,,,,,,,,,,,,,,,,,,,,,,,,,,,,,,,,,,,,,
,,5e86972528aacd2d57010c07,2024-02-22_04h24.46.761,kallum_motion_pilot,2023.2.2,Win32,13.33333333,5e86972528aacd2d57010c07,65d6bb0e977760de756971f7,65d6bdec994906782921cdac,0.0273,0.0273,0,69,69,77,1,threefour,,,,,,,,,,,,,,,,,,,,,,,,,,,,,,,,,,,,,,,,,,,,,,,,,,,,,,,,,,,,,,,,,,,,,,,,,,,,,,,,,,,,,,,,,,,,,,,,,,,,,,,,,,,,,,,,,,,,,,,,,,,,,,,,,,,,,,,,,
,,5e86972528aacd2d57010c07,2024-02-22_04h24.46.761,kallum_motion_pilot,2023.2.2,Win32,13.33333333,5e86972528aacd2d57010c07,65d6bb0e977760de756971f7,65d6bdec994906782921cdac,0.0274,0.0274,0,70,70,78,1,fourtwo,,,,,,,,,,,,,,,,,,,,,,,,,,,,,,,,,,,,,,,,,,,,,,,,,,,,,,,,,,,,,,,,,,,,,,,,,,,,,,,,,,,,,,,,,,,,,,,,,,,,,,,,,,,,,,,,,,,,,,,,,,,,,,,,,,,,,,,,,
,,5e86972528aacd2d57010c07,2024-02-22_04h24.46.761,kallum_motion_pilot,2023.2.2,Win32,13.33333333,5e86972528aacd2d57010c07,65d6bb0e977760de756971f7,65d6bdec994906782921cdac,0.0275,0.0275,0,71,71,108,1,sevenfive,,,,,,,,,,,,,,,,,,,,,,,,,,,,,,,,,,,,,,,,,,,,,,,,,,,,,,,,,,,,,,,,,,,,,,,,,,,,,,,,,,,,,,,,,,,,,,,,,,,,,,,,,,,,,,,,,,,,,,,,,,,,,,,,,,,,,,,,,
,,5e86972528aacd2d57010c07,2024-02-22_04h24.46.761,kallum_motion_pilot,2023.2.2,Win32,13.33333333,5e86972528aacd2d57010c07,65d6bb0e977760de756971f7,65d6bdec994906782921cdac,0.0276,0.0276,0,72,72,109,1,seveneight,,,,,,,,,,,,,,,,,,,,,,,,,,,,,,,,,,,,,,,,,,,,,,,,,,,,,,,,,,,,,,,,,,,,,,,,,,,,,,,,,,,,,,,,,,,,,,,,,,,,,,,,,,,,,,,,,,,,,,,,,,,,,,,,,,,,,,,,,
,,5e86972528aacd2d57010c07,2024-02-22_04h24.46.761,kallum_motion_pilot,2023.2.2,Win32,13.33333333,5e86972528aacd2d57010c07,65d6bb0e977760de756971f7,65d6bdec994906782921cdac,0.0277,0.0277,0,73,73,3,1,twofour,,,,,,,,,,,,,,,,,,,,,,,,,,,,,,,,,,,,,,,,,,,,,,,,,,,,,,,,,,,,,,,,,,,,,,,,,,,,,,,,,,,,,,,,,,,,,,,,,,,,,,,,,,,,,,,,,,,,,,,,,,,,,,,,,,,,,,,,,
,,5e86972528aacd2d57010c07,2024-02-22_04h24.46.761,kallum_motion_pilot,2023.2.2,Win32,13.33333333,5e86972528aacd2d57010c07,65d6bb0e977760de756971f7,65d6bdec994906782921cdac,0.0278,0.0278,0,74,74,57,1,onethree,,,,,,,,,,,,,,,,,,,,,,,,,,,,,,,,,,,,,,,,,,,,,,,,,,,,,,,,,,,,,,,,,,,,,,,,,,,,,,,,,,,,,,,,,,,,,,,,,,,,,,,,,,,,,,,,,,,,,,,,,,,,,,,,,,,,,,,,,
,,5e86972528aacd2d57010c07,2024-02-22_04h24.46.761,kallum_motion_pilot,2023.2.2,Win32,13.33333333,5e86972528aacd2d57010c07,65d6bb0e977760de756971f7,65d6bdec994906782921cdac,0.0279,0.0279,0,75,75,50,1,twoone,,,,,,,,,,,,,,,,,,,,,,,,,,,,,,,,,,,,,,,,,,,,,,,,,,,,,,,,,,,,,,,,,,,,,,,,,,,,,,,,,,,,,,,,,,,,,,,,,,,,,,,,,,,,,,,,,,,,,,,,,,,,,,,,,,,,,,,,,
,,5e86972528aacd2d57010c07,2024-02-22_04h24.46.761,kallum_motion_pilot,2023.2.2,Win32,13.33333333,5e86972528aacd2d57010c07,65d6bb0e977760de756971f7,65d6bdec994906782921cdac,0.0285,0.0286,0,76,76,81,1,fiveseven,,,,,,,,,,,,,,,,,,,,,,,,,,,,,,,,,,,,,,,,,,,,,,,,,,,,,,,,,,,,,,,,,,,,,,,,,,,,,,,,,,,,,,,,,,,,,,,,,,,,,,,,,,,,,,,,,,,,,,,,,,,,,,,,,,,,,,,,,
,,5e86972528aacd2d57010c07,2024-02-22_04h24.46.761,kallum_motion_pilot,2023.2.2,Win32,13.33333333,5e86972528aacd2d57010c07,65d6bb0e977760de756971f7,65d6bdec994906782921cdac,0.0286,0.0287,0,77,77,11,1,twofour,,,,,,,,,,,,,,,,,,,,,,,,,,,,,,,,,,,,,,,,,,,,,,,,,,,,,,,,,,,,,,,,,,,,,,,,,,,,,,,,,,,,,,,,,,,,,,,,,,,,,,,,,,,,,,,,,,,,,,,,,,,,,,,,,,,,,,,,,
,,5e86972528aacd2d57010c07,2024-02-22_04h24.46.761,kallum_motion_pilot,2023.2.2,Win32,13.33333333,5e86972528aacd2d57010c07,65d6bb0e977760de756971f7,65d6bdec994906782921cdac,0.0288,0.0288,0,78,78,161,1,fiveseven,,,,,,,,,,,,,,,,,,,,,,,,,,,,,,,,,,,,,,,,,,,,,,,,,,,,,,,,,,,,,,,,,,,,,,,,,,,,,,,,,,,,,,,,,,,,,,,,,,,,,,,,,,,,,,,,,,,,,,,,,,,,,,,,,,,,,,,,,
,,5e86972528aacd2d57010c07,2024-02-22_04h24.46.761,kallum_motion_pilot,2023.2.2,Win32,13.33333333,5e86972528aacd2d57010c07,65d6bb0e977760de756971f7,65d6bdec994906782921cdac,0.0289,0.0289,0,79,79,79,1,eightseven,,,,,,,,,,,,,,,,,,,,,,,,,,,,,,,,,,,,,,,,,,,,,,,,,,,,,,,,,,,,,,,,,,,,,,,,,,,,,,,,,,,,,,,,,,,,,,,,,,,,,,,,,,,,,,,,,,,,,,,,,,,,,,,,,,,,,,,,,
,,5e86972528aacd2d57010c07,2024-02-22_04h24.46.761,kallum_motion_pilot,2023.2.2,Win32,13.33333333,5e86972528aacd2d57010c07,65d6bb0e977760de756971f7,65d6bdec994906782921cdac,0.029,0.029,0,80,80,110,1,eightsix,,,,,,,,,,,,,,,,,,,,,,,,,,,,,,,,,,,,,,,,,,,,,,,,,,,,,,,,,,,,,,,,,,,,,,,,,,,,,,,,,,,,,,,,,,,,,,,,,,,,,,,,,,,,,,,,,,,,,,,,,,,,,,,,,,,,,,,,,
,,5e86972528aacd2d57010c07,2024-02-22_04h24.46.761,kallum_motion_pilot,2023.2.2,Win32,13.33333333,5e86972528aacd2d57010c07,65d6bb0e977760de756971f7,65d6bdec994906782921cdac,0.029,0.029,0,81,81,5,1,threefour,,,,,,,,,,,,,,,,,,,,,,,,,,,,,,,,,,,,,,,,,,,,,,,,,,,,,,,,,,,,,,,,,,,,,,,,,,,,,,,,,,,,,,,,,,,,,,,,,,,,,,,,,,,,,,,,,,,,,,,,,,,,,,,,,,,,,,,,,
,,5e86972528aacd2d57010c07,2024-02-22_04h24.46.761,kallum_motion_pilot,2023.2.2,Win32,13.33333333,5e86972528aacd2d57010c07,65d6bb0e977760de756971f7,65d6bdec994906782921cdac,0.0291,0.0292,0,82,82,58,1,twoone,,,,,,,,,,,,,,,,,,,,,,,,,,,,,,,,,,,,,,,,,,,,,,,,,,,,,,,,,,,,,,,,,,,,,,,,,,,,,,,,,,,,,,,,,,,,,,,,,,,,,,,,,,,,,,,,,,,,,,,,,,,,,,,,,,,,,,,,,
,,5e86972528aacd2d57010c07,2024-02-22_04h24.46.761,kallum_motion_pilot,2023.2.2,Win32,13.33333333,5e86972528aacd2d57010c07,65d6bb0e977760de756971f7,65d6bdec994906782921cdac,0.0292,0.0293,0,83,83,10,1,twoone,,,,,,,,,,,,,,,,,,,,,,,,,,,,,,,,,,,,,,,,,,,,,,,,,,,,,,,,,,,,,,,,,,,,,,,,,,,,,,,,,,,,,,,,,,,,,,,,,,,,,,,,,,,,,,,,,,,,,,,,,,,,,,,,,,,,,,,,,
,,5e86972528aacd2d57010c07,2024-02-22_04h24.46.761,kallum_motion_pilot,2023.2.2,Win32,13.33333333,5e86972528aacd2d57010c07,65d6bb0e977760de756971f7,65d6bdec994906782921cdac,0.0293,0.0293,0,84,84,62,1,fourtwo,,,,,,,,,,,,,,,,,,,,,,,,,,,,,,,,,,,,,,,,,,,,,,,,,,,,,,,,,,,,,,,,,,,,,,,,,,,,,,,,,,,,,,,,,,,,,,,,,,,,,,,,,,,,,,,,,,,,,,,,,,,,,,,,,,,,,,,,,
,,5e86972528aacd2d57010c07,2024-02-22_04h24.46.761,kallum_motion_pilot,2023.2.2,Win32,13.33333333,5e86972528aacd2d57010c07,65d6bb0e977760de756971f7,65d6bdec994906782921cdac,0.0294,0.0294,0,85,85,75,1,twofour,,,,,,,,,,,,,,,,,,,,,,,,,,,,,,,,,,,,,,,,,,,,,,,,,,,,,,,,,,,,,,,,,,,,,,,,,,,,,,,,,,,,,,,,,,,,,,,,,,,,,,,,,,,,,,,,,,,,,,,,,,,,,,,,,,,,,,,,,
,,5e86972528aacd2d57010c07,2024-02-22_04h24.46.761,kallum_motion_pilot,2023.2.2,Win32,13.33333333,5e86972528aacd2d57010c07,65d6bb0e977760de756971f7,65d6bdec994906782921cdac,0.0295,0.0295,0,86,86,100,1,sevenfive,,,,,,,,,,,,,,,,,,,,,,,,,,,,,,,,,,,,,,,,,,,,,,,,,,,,,,,,,,,,,,,,,,,,,,,,,,,,,,,,,,,,,,,,,,,,,,,,,,,,,,,,,,,,,,,,,,,,,,,,,,,,,,,,,,,,,,,,,
,,5e86972528aacd2d57010c07,2024-02-22_04h24.46.761,kallum_motion_pilot,2023.2.2,Win32,13.33333333,5e86972528aacd2d57010c07,65d6bb0e977760de756971f7,65d6bdec994906782921cdac,0.0295,0.0296,0,87,87,8,1,onetwo,,,,,,,,,,,,,,,,,,,,,,,,,,,,,,,,,,,,,,,,,,,,,,,,,,,,,,,,,,,,,,,,,,,,,,,,,,,,,,,,,,,,,,,,,,,,,,,,,,,,,,,,,,,,,,,,,,,,,,,,,,,,,,,,,,,,,,,,,
,,5e86972528aacd2d57010c07,2024-02-22_04h24.46.761,kallum_motion_pilot,2023.2.2,Win32,13.33333333,5e86972528aacd2d57010c07,65d6bb0e977760de756971f7,65d6bdec994906782921cdac,0.0297,0.0297,0,88,88,1,1,onethree,,,,,,,,,,,,,,,,,,,,,,,,,,,,,,,,,,,,,,,,,,,,,,,,,,,,,,,,,,,,,,,,,,,,,,,,,,,,,,,,,,,,,,,,,,,,,,,,,,,,,,,,,,,,,,,,,,,,,,,,,,,,,,,,,,,,,,,,,
,,5e86972528aacd2d57010c07,2024-02-22_04h24.46.761,kallum_motion_pilot,2023.2.2,Win32,13.33333333,5e86972528aacd2d57010c07,65d6bb0e977760de756971f7,65d6bdec994906782921cdac,0.0297,0.0298,0,89,89,122,1,sixfive,,,,,,,,,,,,,,,,,,,,,,,,,,,,,,,,,,,,,,,,,,,,,,,,,,,,,,,,,,,,,,,,,,,,,,,,,,,,,,,,,,,,,,,,,,,,,,,,,,,,,,,,,,,,,,,,,,,,,,,,,,,,,,,,,,,,,,,,,
,,5e86972528aacd2d57010c07,2024-02-22_04h24.46.761,kallum_motion_pilot,2023.2.2,Win32,13.33333333,5e86972528aacd2d57010c07,65d6bb0e977760de756971f7,65d6bdec994906782921cdac,0.0298,0.0299,0,90,90,36,1,threeone,,,,,,,,,,,,,,,,,,,,,,,,,,,,,,,,,,,,,,,,,,,,,,,,,,,,,,,,,,,,,,,,,,,,,,,,,,,,,,,,,,,,,,,,,,,,,,,,,,,,,,,,,,,,,,,,,,,,,,,,,,,,,,,,,,,,,,,,,
,,5e86972528aacd2d57010c07,2024-02-22_04h24.46.761,kallum_motion_pilot,2023.2.2,Win32,13.33333333,5e86972528aacd2d57010c07,65d6bb0e977760de756971f7,65d6bdec994906782921cdac,0.03,0.0301,0,91,91,131,1,sixeight,,,,,,,,,,,,,,,,,,,,,,,,,,,,,,,,,,,,,,,,,,,,,,,,,,,,,,,,,,,,,,,,,,,,,,,,,,,,,,,,,,,,,,,,,,,,,,,,,,,,,,,,,,,,,,,,,,,,,,,,,,,,,,,,,,,,,,,,,
,,5e86972528aacd2d57010c07,2024-02-22_04h24.46.761,kallum_motion_pilot,2023.2.2,Win32,13.33333333,5e86972528aacd2d57010c07,65d6bb0e977760de756971f7,65d6bdec994906782921cdac,0.0302,0.0302,0,92,92,90,1,sixfive,,,,,,,,,,,,,,,,,,,,,,,,,,,,,,,,,,,,,,,,,,,,,,,,,,,,,,,,,,,,,,,,,,,,,,,,,,,,,,,,,,,,,,,,,,,,,,,,,,,,,,,,,,,,,,,,,,,,,,,,,,,,,,,,,,,,,,,,,
,,5e86972528aacd2d57010c07,2024-02-22_04h24.46.761,kallum_motion_pilot,2023.2.2,Win32,13.33333333,5e86972528aacd2d57010c07,65d6bb0e977760de756971f7,65d6bdec994906782921cdac,0.0302,0.0303,0,93,93,9,1,onethree,,,,,,,,,,,,,,,,,,,,,,,,,,,,,,,,,,,,,,,,,,,,,,,,,,,,,,,,,,,,,,,,,,,,,,,,,,,,,,,,,,,,,,,,,,,,,,,,,,,,,,,,,,,,,,,,,,,,,,,,,,,,,,,,,,,,,,,,,
,,5e86972528aacd2d57010c07,2024-02-22_04h24.46.761,kallum_motion_pilot,2023.2.2,Win32,13.33333333,5e86972528aacd2d57010c07,65d6bb0e977760de756971f7,65d6bdec994906782921cdac,0.0304,0.0304,0,94,94,150,1,eightsix,,,,,,,,,,,,,,,,,,,,,,,,,,,,,,,,,,,,,,,,,,,,,,,,,,,,,,,,,,,,,,,,,,,,,,,,,,,,,,,,,,,,,,,,,,,,,,,,,,,,,,,,,,,,,,,,,,,,,,,,,,,,,,,,,,,,,,,,,
,,5e86972528aacd2d57010c07,2024-02-22_04h24.46.761,kallum_motion_pilot,2023.2.2,Win32,13.33333333,5e86972528aacd2d57010c07,65d6bb0e977760de756971f7,65d6bdec994906782921cdac,0.0305,0.0305,0,95,95,40,1,onetwo,,,,,,,,,,,,,,,,,,,,,,,,,,,,,,,,,,,,,,,,,,,,,,,,,,,,,,,,,,,,,,,,,,,,,,,,,,,,,,,,,,,,,,,,,,,,,,,,,,,,,,,,,,,,,,,,,,,,,,,,,,,,,,,,,,,,,,,,,
,,5e86972528aacd2d57010c07,2024-02-22_04h24.46.761,kallum_motion_pilot,2023.2.2,Win32,13.33333333,5e86972528aacd2d57010c07,65d6bb0e977760de756971f7,65d6bdec994906782921cdac,0.0307,0.0307,0,96,96,112,1,fivesix,,,,,,,,,,,,,,,,,,,,,,,,,,,,,,,,,,,,,,,,,,,,,,,,,,,,,,,,,,,,,,,,,,,,,,,,,,,,,,,,,,,,,,,,,,,,,,,,,,,,,,,,,,,,,,,,,,,,,,,,,,,,,,,,,,,,,,,,,
,,5e86972528aacd2d57010c07,2024-02-22_04h24.46.761,kallum_motion_pilot,2023.2.2,Win32,13.33333333,5e86972528aacd2d57010c07,65d6bb0e977760de756971f7,65d6bdec994906782921cdac,0.0307,0.0307,0,97,97,153,1,fiveseven,,,,,,,,,,,,,,,,,,,,,,,,,,,,,,,,,,,,,,,,,,,,,,,,,,,,,,,,,,,,,,,,,,,,,,,,,,,,,,,,,,,,,,,,,,,,,,,,,,,,,,,,,,,,,,,,,,,,,,,,,,,,,,,,,,,,,,,,,
,,5e86972528aacd2d57010c07,2024-02-22_04h24.46.761,kallum_motion_pilot,2023.2.2,Win32,13.33333333,5e86972528aacd2d57010c07,65d6bb0e977760de756971f7,65d6bdec994906782921cdac,0.0308,0.0309,0,98,98,42,1,twoone,,,,,,,,,,,,,,,,,,,,,,,,,,,,,,,,,,,,,,,,,,,,,,,,,,,,,,,,,,,,,,,,,,,,,,,,,,,,,,,,,,,,,,,,,,,,,,,,,,,,,,,,,,,,,,,,,,,,,,,,,,,,,,,,,,,,,,,,,
,,5e86972528aacd2d57010c07,2024-02-22_04h24.46.761,kallum_motion_pilot,2023.2.2,Win32,13.33333333,5e86972528aacd2d57010c07,65d6bb0e977760de756971f7,65d6bdec994906782921cdac,0.0309,0.031,0,99,99,104,1,fivesix,,,,,,,,,,,,,,,,,,,,,,,,,,,,,,,,,,,,,,,,,,,,,,,,,,,,,,,,,,,,,,,,,,,,,,,,,,,,,,,,,,,,,,,,,,,,,,,,,,,,,,,,,,,,,,,,,,,,,,,,,,,,,,,,,,,,,,,,,
,,5e86972528aacd2d57010c07,2024-02-22_04h24.46.761,kallum_motion_pilot,2023.2.2,Win32,13.33333333,5e86972528aacd2d57010c07,65d6bb0e977760de756971f7,65d6bdec994906782921cdac,0.031,0.0311,0,100,100,129,1,fiveseven,,,,,,,,,,,,,,,,,,,,,,,,,,,,,,,,,,,,,,,,,,,,,,,,,,,,,,,,,,,,,,,,,,,,,,,,,,,,,,,,,,,,,,,,,,,,,,,,,,,,,,,,,,,,,,,,,,,,,,,,,,,,,,,,,,,,,,,,,
,,5e86972528aacd2d57010c07,2024-02-22_04h24.46.761,kallum_motion_pilot,2023.2.2,Win32,13.33333333,5e86972528aacd2d57010c07,65d6bb0e977760de756971f7,65d6bdec994906782921cdac,0.0312,0.0312,0,101,101,2,1,twoone,,,,,,,,,,,,,,,,,,,,,,,,,,,,,,,,,,,,,,,,,,,,,,,,,,,,,,,,,,,,,,,,,,,,,,,,,,,,,,,,,,,,,,,,,,,,,,,,,,,,,,,,,,,,,,,,,,,,,,,,,,,,,,,,,,,,,,,,,
,,5e86972528aacd2d57010c07,2024-02-22_04h24.46.761,kallum_motion_pilot,2023.2.2,Win32,13.33333333,5e86972528aacd2d57010c07,65d6bb0e977760de756971f7,65d6bdec994906782921cdac,0.0313,0.0313,0,102,102,29,1,threefour,,,,,,,,,,,,,,,,,,,,,,,,,,,,,,,,,,,,,,,,,,,,,,,,,,,,,,,,,,,,,,,,,,,,,,,,,,,,,,,,,,,,,,,,,,,,,,,,,,,,,,,,,,,,,,,,,,,,,,,,,,,,,,,,,,,,,,,,,
,,5e86972528aacd2d57010c07,2024-02-22_04h24.46.761,kallum_motion_pilot,2023.2.2,Win32,13.33333333,5e86972528aacd2d57010c07,65d6bb0e977760de756971f7,65d6bdec994906782921cdac,0.0314,0.0314,0,103,103,22,1,fourtwo,,,,,,,,,,,,,,,,,,,,,,,,,,,,,,,,,,,,,,,,,,,,,,,,,,,,,,,,,,,,,,,,,,,,,,,,,,,,,,,,,,,,,,,,,,,,,,,,,,,,,,,,,,,,,,,,,,,,,,,,,,,,,,,,,,,,,,,,,
,,5e86972528aacd2d57010c07,2024-02-22_04h24.46.761,kallum_motion_pilot,2023.2.2,Win32,13.33333333,5e86972528aacd2d57010c07,65d6bb0e977760de756971f7,65d6bdec994906782921cdac,0.0315,0.0315,0,104,104,25,1,onethree,,,,,,,,,,,,,,,,,,,,,,,,,,,,,,,,,,,,,,,,,,,,,,,,,,,,,,,,,,,,,,,,,,,,,,,,,,,,,,,,,,,,,,,,,,,,,,,,,,,,,,,,,,,,,,,,,,,,,,,,,,,,,,,,,,,,,,,,,
,,5e86972528aacd2d57010c07,2024-02-22_04h24.46.761,kallum_motion_pilot,2023.2.2,Win32,13.33333333,5e86972528aacd2d57010c07,65d6bb0e977760de756971f7,65d6bdec994906782921cdac,0.0316,0.0317,0,105,105,143,1,eightseven,,,,,,,,,,,,,,,,,,,,,,,,,,,,,,,,,,,,,,,,,,,,,,,,,,,,,,,,,,,,,,,,,,,,,,,,,,,,,,,,,,,,,,,,,,,,,,,,,,,,,,,,,,,,,,,,,,,,,,,,,,,,,,,,,,,,,,,,,
,,5e86972528aacd2d57010c07,2024-02-22_04h24.46.761,kallum_motion_pilot,2023.2.2,Win32,13.33333333,5e86972528aacd2d57010c07,65d6bb0e977760de756971f7,65d6bdec994906782921cdac,0.0317,0.0318,0,106,106,67,1,twofour,,,,,,,,,,,,,,,,,,,,,,,,,,,,,,,,,,,,,,,,,,,,,,,,,,,,,,,,,,,,,,,,,,,,,,,,,,,,,,,,,,,,,,,,,,,,,,,,,,,,,,,,,,,,,,,,,,,,,,,,,,,,,,,,,,,,,,,,,
,,5e86972528aacd2d57010c07,2024-02-22_04h24.46.761,kallum_motion_pilot,2023.2.2,Win32,13.33333333,5e86972528aacd2d57010c07,65d6bb0e977760de756971f7,65d6bdec994906782921cdac,0.0318,0.0318,0,107,107,140,1,sevenfive,,,,,,,,,,,,,,,,,,,,,,,,,,,,,,,,,,,,,,,,,,,,,,,,,,,,,,,,,,,,,,,,,,,,,,,,,,,,,,,,,,,,,,,,,,,,,,,,,,,,,,,,,,,,,,,,,,,,,,,,,,,,,,,,,,,,,,,,,
,,5e86972528aacd2d57010c07,2024-02-22_04h24.46.761,kallum_motion_pilot,2023.2.2,Win32,13.33333333,5e86972528aacd2d57010c07,65d6bb0e977760de756971f7,65d6bdec994906782921cdac,0.0319,0.0319,0,108,108,154,1,sixfive,,,,,,,,,,,,,,,,,,,,,,,,,,,,,,,,,,,,,,,,,,,,,,,,,,,,,,,,,,,,,,,,,,,,,,,,,,,,,,,,,,,,,,,,,,,,,,,,,,,,,,,,,,,,,,,,,,,,,,,,,,,,,,,,,,,,,,,,,
,,5e86972528aacd2d57010c07,2024-02-22_04h24.46.761,kallum_motion_pilot,2023.2.2,Win32,13.33333333,5e86972528aacd2d57010c07,65d6bb0e977760de756971f7,65d6bdec994906782921cdac,0.032,0.0321,0,109,109,23,1,fourthree,,,,,,,,,,,,,,,,,,,,,,,,,,,,,,,,,,,,,,,,,,,,,,,,,,,,,,,,,,,,,,,,,,,,,,,,,,,,,,,,,,,,,,,,,,,,,,,,,,,,,,,,,,,,,,,,,,,,,,,,,,,,,,,,,,,,,,,,,
,,5e86972528aacd2d57010c07,2024-02-22_04h24.46.761,kallum_motion_pilot,2023.2.2,Win32,13.33333333,5e86972528aacd2d57010c07,65d6bb0e977760de756971f7,65d6bdec994906782921cdac,0.0321,0.0321,0,110,110,20,1,threeone,,,,,,,,,,,,,,,,,,,,,,,,,,,,,,,,,,,,,,,,,,,,,,,,,,,,,,,,,,,,,,,,,,,,,,,,,,,,,,,,,,,,,,,,,,,,,,,,,,,,,,,,,,,,,,,,,,,,,,,,,,,,,,,,,,,,,,,,,
,,5e86972528aacd2d57010c07,2024-02-22_04h24.46.761,kallum_motion_pilot,2023.2.2,Win32,13.33333333,5e86972528aacd2d57010c07,65d6bb0e977760de756971f7,65d6bdec994906782921cdac,0.0322,0.0322,0,111,111,4,1,threeone,,,,,,,,,,,,,,,,,,,,,,,,,,,,,,,,,,,,,,,,,,,,,,,,,,,,,,,,,,,,,,,,,,,,,,,,,,,,,,,,,,,,,,,,,,,,,,,,,,,,,,,,,,,,,,,,,,,,,,,,,,,,,,,,,,,,,,,,,
,,5e86972528aacd2d57010c07,2024-02-22_04h24.46.761,kallum_motion_pilot,2023.2.2,Win32,13.33333333,5e86972528aacd2d57010c07,65d6bb0e977760de756971f7,65d6bdec994906782921cdac,0.0323,0.0324,0,112,112,30,1,fourtwo,,,,,,,,,,,,,,,,,,,,,,,,,,,,,,,,,,,,,,,,,,,,,,,,,,,,,,,,,,,,,,,,,,,,,,,,,,,,,,,,,,,,,,,,,,,,,,,,,,,,,,,,,,,,,,,,,,,,,,,,,,,,,,,,,,,,,,,,,
,,5e86972528aacd2d57010c07,2024-02-22_04h24.46.761,kallum_motion_pilot,2023.2.2,Win32,13.33333333,5e86972528aacd2d57010c07,65d6bb0e977760de756971f7,65d6bdec994906782921cdac,0.0324,0.0324,0,113,113,128,1,fivesix,,,,,,,,,,,,,,,,,,,,,,,,,,,,,,,,,,,,,,,,,,,,,,,,,,,,,,,,,,,,,,,,,,,,,,,,,,,,,,,,,,,,,,,,,,,,,,,,,,,,,,,,,,,,,,,,,,,,,,,,,,,,,,,,,,,,,,,,,
,,5e86972528aacd2d57010c07,2024-02-22_04h24.46.761,kallum_motion_pilot,2023.2.2,Win32,13.33333333,5e86972528aacd2d57010c07,65d6bb0e977760de756971f7,65d6bdec994906782921cdac,0.0326,0.0326,0,114,114,19,1,twofour,,,,,,,,,,,,,,,,,,,,,,,,,,,,,,,,,,,,,,,,,,,,,,,,,,,,,,,,,,,,,,,,,,,,,,,,,,,,,,,,,,,,,,,,,,,,,,,,,,,,,,,,,,,,,,,,,,,,,,,,,,,,,,,,,,,,,,,,,
,,5e86972528aacd2d57010c07,2024-02-22_04h24.46.761,kallum_motion_pilot,2023.2.2,Win32,13.33333333,5e86972528aacd2d57010c07,65d6bb0e977760de756971f7,65d6bdec994906782921cdac,0.0326,0.0326,0,115,115,114,1,sixfive,,,,,,,,,,,,,,,,,,,,,,,,,,,,,,,,,,,,,,,,,,,,,,,,,,,,,,,,,,,,,,,,,,,,,,,,,,,,,,,,,,,,,,,,,,,,,,,,,,,,,,,,,,,,,,,,,,,,,,,,,,,,,,,,,,,,,,,,,
,,5e86972528aacd2d57010c07,2024-02-22_04h24.46.761,kallum_motion_pilot,2023.2.2,Win32,13.33333333,5e86972528aacd2d57010c07,65d6bb0e977760de756971f7,65d6bdec994906782921cdac,0.0327,0.0328,0,116,116,130,1,sixfive,,,,,,,,,,,,,,,,,,,,,,,,,,,,,,,,,,,,,,,,,,,,,,,,,,,,,,,,,,,,,,,,,,,,,,,,,,,,,,,,,,,,,,,,,,,,,,,,,,,,,,,,,,,,,,,,,,,,,,,,,,,,,,,,,,,,,,,,,
,,5e86972528aacd2d57010c07,2024-02-22_04h24.46.761,kallum_motion_pilot,2023.2.2,Win32,13.33333333,5e86972528aacd2d57010c07,65d6bb0e977760de756971f7,65d6bdec994906782921cdac,0.0329,0.0329,0,117,117,101,1,seveneight,,,,,,,,,,,,,,,,,,,,,,,,,,,,,,,,,,,,,,,,,,,,,,,,,,,,,,,,,,,,,,,,,,,,,,,,,,,,,,,,,,,,,,,,,,,,,,,,,,,,,,,,,,,,,,,,,,,,,,,,,,,,,,,,,,,,,,,,,
,,5e86972528aacd2d57010c07,2024-02-22_04h24.46.761,kallum_motion_pilot,2023.2.2,Win32,13.33333333,5e86972528aacd2d57010c07,65d6bb0e977760de756971f7,65d6bdec994906782921cdac,0.0329,0.0329,0,118,118,133,1,seveneight,,,,,,,,,,,,,,,,,,,,,,,,,,,,,,,,,,,,,,,,,,,,,,,,,,,,,,,,,,,,,,,,,,,,,,,,,,,,,,,,,,,,,,,,,,,,,,,,,,,,,,,,,,,,,,,,,,,,,,,,,,,,,,,,,,,,,,,,,
,,5e86972528aacd2d57010c07,2024-02-22_04h24.46.761,kallum_motion_pilot,2023.2.2,Win32,13.33333333,5e86972528aacd2d57010c07,65d6bb0e977760de756971f7,65d6bdec994906782921cdac,0.0331,0.0332,0,119,119,51,1,twofour,,,,,,,,,,,,,,,,,,,,,,,,,,,,,,,,,,,,,,,,,,,,,,,,,,,,,,,,,,,,,,,,,,,,,,,,,,,,,,,,,,,,,,,,,,,,,,,,,,,,,,,,,,,,,,,,,,,,,,,,,,,,,,,,,,,,,,,,,
,,5e86972528aacd2d57010c07,2024-02-22_04h24.46.761,kallum_motion_pilot,2023.2.2,Win32,13.33333333,5e86972528aacd2d57010c07,65d6bb0e977760de756971f7,65d6bdec994906782921cdac,0.0332,0.0333,0,120,120,155,1,sixeight,,,,,,,,,,,,,,,,,,,,,,,,,,,,,,,,,,,,,,,,,,,,,,,,,,,,,,,,,,,,,,,,,,,,,,,,,,,,,,,,,,,,,,,,,,,,,,,,,,,,,,,,,,,,,,,,,,,,,,,,,,,,,,,,,,,,,,,,,
,,5e86972528aacd2d57010c07,2024-02-22_04h24.46.761,kallum_motion_pilot,2023.2.2,Win32,13.33333333,5e86972528aacd2d57010c07,65d6bb0e977760de756971f7,65d6bdec994906782921cdac,0.0334,0.0335,0,121,121,89,1,fiveseven,,,,,,,,,,,,,,,,,,,,,,,,,,,,,,,,,,,,,,,,,,,,,,,,,,,,,,,,,,,,,,,,,,,,,,,,,,,,,,,,,,,,,,,,,,,,,,,,,,,,,,,,,,,,,,,,,,,,,,,,,,,,,,,,,,,,,,,,,
,,5e86972528aacd2d57010c07,2024-02-22_04h24.46.761,kallum_motion_pilot,2023.2.2,Win32,13.33333333,5e86972528aacd2d57010c07,65d6bb0e977760de756971f7,65d6bdec994906782921cdac,0.0337,0.0337,0,122,122,127,1,eightseven,,,,,,,,,,,,,,,,,,,,,,,,,,,,,,,,,,,,,,,,,,,,,,,,,,,,,,,,,,,,,,,,,,,,,,,,,,,,,,,,,,,,,,,,,,,,,,,,,,,,,,,,,,,,,,,,,,,,,,,,,,,,,,,,,,,,,,,,,
,,5e86972528aacd2d57010c07,2024-02-22_04h24.46.761,kallum_motion_pilot,2023.2.2,Win32,13.33333333,5e86972528aacd2d57010c07,65d6bb0e977760de756971f7,65d6bdec994906782921cdac,0.0337,0.0339,0,123,123,69,1,threefour,,,,,,,,,,,,,,,,,,,,,,,,,,,,,,,,,,,,,,,,,,,,,,,,,,,,,,,,,,,,,,,,,,,,,,,,,,,,,,,,,,,,,,,,,,,,,,,,,,,,,,,,,,,,,,,,,,,,,,,,,,,,,,,,,,,,,,,,,
,,5e86972528aacd2d57010c07,2024-02-22_04h24.46.761,kallum_motion_pilot,2023.2.2,Win32,13.33333333,5e86972528aacd2d57010c07,65d6bb0e977760de756971f7,65d6bdec994906782921cdac,0.0339,0.034,0,124,124,135,1,eightseven,,,,,,,,,,,,,,,,,,,,,,,,,,,,,,,,,,,,,,,,,,,,,,,,,,,,,,,,,,,,,,,,,,,,,,,,,,,,,,,,,,,,,,,,,,,,,,,,,,,,,,,,,,,,,,,,,,,,,,,,,,,,,,,,,,,,,,,,,
,,5e86972528aacd2d57010c07,2024-02-22_04h24.46.761,kallum_motion_pilot,2023.2.2,Win32,13.33333333,5e86972528aacd2d57010c07,65d6bb0e977760de756971f7,65d6bdec994906782921cdac,0.0341,0.0342,0,125,125,84,1,sevenfive,,,,,,,,,,,,,,,,,,,,,,,,,,,,,,,,,,,,,,,,,,,,,,,,,,,,,,,,,,,,,,,,,,,,,,,,,,,,,,,,,,,,,,,,,,,,,,,,,,,,,,,,,,,,,,,,,,,,,,,,,,,,,,,,,,,,,,,,,
,,5e86972528aacd2d57010c07,2024-02-22_04h24.46.761,kallum_motion_pilot,2023.2.2,Win32,13.33333333,5e86972528aacd2d57010c07,65d6bb0e977760de756971f7,65d6bdec994906782921cdac,0.0342,0.0343,0,126,126,125,1,seveneight,,,,,,,,,,,,,,,,,,,,,,,,,,,,,,,,,,,,,,,,,,,,,,,,,,,,,,,,,,,,,,,,,,,,,,,,,,,,,,,,,,,,,,,,,,,,,,,,,,,,,,,,,,,,,,,,,,,,,,,,,,,,,,,,,,,,,,,,,
,,5e86972528aacd2d57010c07,2024-02-22_04h24.46.761,kallum_motion_pilot,2023.2.2,Win32,13.33333333,5e86972528aacd2d57010c07,65d6bb0e977760de756971f7,65d6bdec994906782921cdac,0.0343,0.0345,0,127,127,113,1,fiveseven,,,,,,,,,,,,,,,,,,,,,,,,,,,,,,,,,,,,,,,,,,,,,,,,,,,,,,,,,,,,,,,,,,,,,,,,,,,,,,,,,,,,,,,,,,,,,,,,,,,,,,,,,,,,,,,,,,,,,,,,,,,,,,,,,,,,,,,,,
,,5e86972528aacd2d57010c07,2024-02-22_04h24.46.761,kallum_motion_pilot,2023.2.2,Win32,13.33333333,5e86972528aacd2d57010c07,65d6bb0e977760de756971f7,65d6bdec994906782921cdac,0.0345,0.0346,0,128,128,32,1,onetwo,,,,,,,,,,,,,,,,,,,,,,,,,,,,,,,,,,,,,,,,,,,,,,,,,,,,,,,,,,,,,,,,,,,,,,,,,,,,,,,,,,,,,,,,,,,,,,,,,,,,,,,,,,,,,,,,,,,,,,,,,,,,,,,,,,,,,,,,,
,,5e86972528aacd2d57010c07,2024-02-22_04h24.46.761,kallum_motion_pilot,2023.2.2,Win32,13.33333333,5e86972528aacd2d57010c07,65d6bb0e977760de756971f7,65d6bdec994906782921cdac,0.0347,0.0347,0,129,129,63,1,fourthree,,,,,,,,,,,,,,,,,,,,,,,,,,,,,,,,,,,,,,,,,,,,,,,,,,,,,,,,,,,,,,,,,,,,,,,,,,,,,,,,,,,,,,,,,,,,,,,,,,,,,,,,,,,,,,,,,,,,,,,,,,,,,,,,,,,,,,,,,
,,5e86972528aacd2d57010c07,2024-02-22_04h24.46.761,kallum_motion_pilot,2023.2.2,Win32,13.33333333,5e86972528aacd2d57010c07,65d6bb0e977760de756971f7,65d6bdec994906782921cdac,0.0348,0.0349,0,130,130,105,1,fiveseven,,,,,,,,,,,,,,,,,,,,,,,,,,,,,,,,,,,,,,,,,,,,,,,,,,,,,,,,,,,,,,,,,,,,,,,,,,,,,,,,,,,,,,,,,,,,,,,,,,,,,,,,,,,,,,,,,,,,,,,,,,,,,,,,,,,,,,,,,
,,5e86972528aacd2d57010c07,2024-02-22_04h24.46.761,kallum_motion_pilot,2023.2.2,Win32,13.33333333,5e86972528aacd2d57010c07,65d6bb0e977760de756971f7,65d6bdec994906782921cdac,0.0349,0.0349,0,131,131,65,1,onethree,,,,,,,,,,,,,,,,,,,,,,,,,,,,,,,,,,,,,,,,,,,,,,,,,,,,,,,,,,,,,,,,,,,,,,,,,,,,,,,,,,,,,,,,,,,,,,,,,,,,,,,,,,,,,,,,,,,,,,,,,,,,,,,,,,,,,,,,,
,,5e86972528aacd2d57010c07,2024-02-22_04h24.46.761,kallum_motion_pilot,2023.2.2,Win32,13.33333333,5e86972528aacd2d57010c07,65d6bb0e977760de756971f7,65d6bdec994906782921cdac,0.035,0.035,0,132,132,44,1,threeone,,,,,,,,,,,,,,,,,,,,,,,,,,,,,,,,,,,,,,,,,,,,,,,,,,,,,,,,,,,,,,,,,,,,,,,,,,,,,,,,,,,,,,,,,,,,,,,,,,,,,,,,,,,,,,,,,,,,,,,,,,,,,,,,,,,,,,,,,
,,5e86972528aacd2d57010c07,2024-02-22_04h24.46.761,kallum_motion_pilot,2023.2.2,Win32,13.33333333,5e86972528aacd2d57010c07,65d6bb0e977760de756971f7,65d6bdec994906782921cdac,0.0351,0.0352,0,133,133,45,1,threefour,,,,,,,,,,,,,,,,,,,,,,,,,,,,,,,,,,,,,,,,,,,,,,,,,,,,,,,,,,,,,,,,,,,,,,,,,,,,,,,,,,,,,,,,,,,,,,,,,,,,,,,,,,,,,,,,,,,,,,,,,,,,,,,,,,,,,,,,,
,,5e86972528aacd2d57010c07,2024-02-22_04h24.46.761,kallum_motion_pilot,2023.2.2,Win32,13.33333333,5e86972528aacd2d57010c07,65d6bb0e977760de756971f7,65d6bdec994906782921cdac,0.0353,0.0353,0,134,134,157,1,seveneight,,,,,,,,,,,,,,,,,,,,,,,,,,,,,,,,,,,,,,,,,,,,,,,,,,,,,,,,,,,,,,,,,,,,,,,,,,,,,,,,,,,,,,,,,,,,,,,,,,,,,,,,,,,,,,,,,,,,,,,,,,,,,,,,,,,,,,,,,
,,5e86972528aacd2d57010c07,2024-02-22_04h24.46.761,kallum_motion_pilot,2023.2.2,Win32,13.33333333,5e86972528aacd2d57010c07,65d6bb0e977760de756971f7,65d6bdec994906782921cdac,0.0353,0.0354,0,135,135,138,1,sixfive,,,,,,,,,,,,,,,,,,,,,,,,,,,,,,,,,,,,,,,,,,,,,,,,,,,,,,,,,,,,,,,,,,,,,,,,,,,,,,,,,,,,,,,,,,,,,,,,,,,,,,,,,,,,,,,,,,,,,,,,,,,,,,,,,,,,,,,,,
,,5e86972528aacd2d57010c07,2024-02-22_04h24.46.761,kallum_motion_pilot,2023.2.2,Win32,13.33333333,5e86972528aacd2d57010c07,65d6bb0e977760de756971f7,65d6bdec994906782921cdac,0.0356,0.0356,0,136,136,74,1,twoone,,,,,,,,,,,,,,,,,,,,,,,,,,,,,,,,,,,,,,,,,,,,,,,,,,,,,,,,,,,,,,,,,,,,,,,,,,,,,,,,,,,,,,,,,,,,,,,,,,,,,,,,,,,,,,,,,,,,,,,,,,,,,,,,,,,,,,,,,
,,5e86972528aacd2d57010c07,2024-02-22_04h24.46.761,kallum_motion_pilot,2023.2.2,Win32,13.33333333,5e86972528aacd2d57010c07,65d6bb0e977760de756971f7,65d6bdec994906782921cdac,0.0357,0.0358,0,137,137,37,1,threefour,,,,,,,,,,,,,,,,,,,,,,,,,,,,,,,,,,,,,,,,,,,,,,,,,,,,,,,,,,,,,,,,,,,,,,,,,,,,,,,,,,,,,,,,,,,,,,,,,,,,,,,,,,,,,,,,,,,,,,,,,,,,,,,,,,,,,,,,,
,,5e86972528aacd2d57010c07,2024-02-22_04h24.46.761,kallum_motion_pilot,2023.2.2,Win32,13.33333333,5e86972528aacd2d57010c07,65d6bb0e977760de756971f7,65d6bdec994906782921cdac,0.0358,0.0358,0,138,138,76,1,threeone,,,,,,,,,,,,,,,,,,,,,,,,,,,,,,,,,,,,,,,,,,,,,,,,,,,,,,,,,,,,,,,,,,,,,,,,,,,,,,,,,,,,,,,,,,,,,,,,,,,,,,,,,,,,,,,,,,,,,,,,,,,,,,,,,,,,,,,,,
,,5e86972528aacd2d57010c07,2024-02-22_04h24.46.761,kallum_motion_pilot,2023.2.2,Win32,13.33333333,5e86972528aacd2d57010c07,65d6bb0e977760de756971f7,65d6bdec994906782921cdac,0.036,0.036,0,139,139,92,1,sevenfive,,,,,,,,,,,,,,,,,,,,,,,,,,,,,,,,,,,,,,,,,,,,,,,,,,,,,,,,,,,,,,,,,,,,,,,,,,,,,,,,,,,,,,,,,,,,,,,,,,,,,,,,,,,,,,,,,,,,,,,,,,,,,,,,,,,,,,,,,
,,5e86972528aacd2d57010c07,2024-02-22_04h24.46.761,kallum_motion_pilot,2023.2.2,Win32,13.33333333,5e86972528aacd2d57010c07,65d6bb0e977760de756971f7,65d6bdec994906782921cdac,0.0361,0.0361,0,140,140,124,1,sevenfive,,,,,,,,,,,,,,,,,,,,,,,,,,,,,,,,,,,,,,,,,,,,,,,,,,,,,,,,,,,,,,,,,,,,,,,,,,,,,,,,,,,,,,,,,,,,,,,,,,,,,,,,,,,,,,,,,,,,,,,,,,,,,,,,,,,,,,,,,
,,5e86972528aacd2d57010c07,2024-02-22_04h24.46.761,kallum_motion_pilot,2023.2.2,Win32,13.33333333,5e86972528aacd2d57010c07,65d6bb0e977760de756971f7,65d6bdec994906782921cdac,0.0362,0.0363,0,141,141,134,1,eightsix,,,,,,,,,,,,,,,,,,,,,,,,,,,,,,,,,,,,,,,,,,,,,,,,,,,,,,,,,,,,,,,,,,,,,,,,,,,,,,,,,,,,,,,,,,,,,,,,,,,,,,,,,,,,,,,,,,,,,,,,,,,,,,,,,,,,,,,,,
,,5e86972528aacd2d57010c07,2024-02-22_04h24.46.761,kallum_motion_pilot,2023.2.2,Win32,13.33333333,5e86972528aacd2d57010c07,65d6bb0e977760de756971f7,65d6bdec994906782921cdac,0.0363,0.0364,0,142,142,27,1,twofour,,,,,,,,,,,,,,,,,,,,,,,,,,,,,,,,,,,,,,,,,,,,,,,,,,,,,,,,,,,,,,,,,,,,,,,,,,,,,,,,,,,,,,,,,,,,,,,,,,,,,,,,,,,,,,,,,,,,,,,,,,,,,,,,,,,,,,,,,
,,5e86972528aacd2d57010c07,2024-02-22_04h24.46.761,kallum_motion_pilot,2023.2.2,Win32,13.33333333,5e86972528aacd2d57010c07,65d6bb0e977760de756971f7,65d6bdec994906782921cdac,0.0365,0.0365,0,143,143,70,1,fourtwo,,,,,,,,,,,,,,,,,,,,,,,,,,,,,,,,,,,,,,,,,,,,,,,,,,,,,,,,,,,,,,,,,,,,,,,,,,,,,,,,,,,,,,,,,,,,,,,,,,,,,,,,,,,,,,,,,,,,,,,,,,,,,,,,,,,,,,,,,
,,5e86972528aacd2d57010c07,2024-02-22_04h24.46.761,kallum_motion_pilot,2023.2.2,Win32,13.33333333,5e86972528aacd2d57010c07,65d6bb0e977760de756971f7,65d6bdec994906782921cdac,0.0366,0.0366,0,144,144,146,1,sixfive,,,,,,,,,,,,,,,,,,,,,,,,,,,,,,,,,,,,,,,,,,,,,,,,,,,,,,,,,,,,,,,,,,,,,,,,,,,,,,,,,,,,,,,,,,,,,,,,,,,,,,,,,,,,,,,,,,,,,,,,,,,,,,,,,,,,,,,,,
,,5e86972528aacd2d57010c07,2024-02-22_04h24.46.761,kallum_motion_pilot,2023.2.2,Win32,13.33333333,5e86972528aacd2d57010c07,65d6bb0e977760de756971f7,65d6bdec994906782921cdac,0.0367,0.0367,0,145,145,91,1,sixeight,,,,,,,,,,,,,,,,,,,,,,,,,,,,,,,,,,,,,,,,,,,,,,,,,,,,,,,,,,,,,,,,,,,,,,,,,,,,,,,,,,,,,,,,,,,,,,,,,,,,,,,,,,,,,,,,,,,,,,,,,,,,,,,,,,,,,,,,,
,,5e86972528aacd2d57010c07,2024-02-22_04h24.46.761,kallum_motion_pilot,2023.2.2,Win32,13.33333333,5e86972528aacd2d57010c07,65d6bb0e977760de756971f7,65d6bdec994906782921cdac,0.0367,0.0368,0,146,146,111,1,eightseven,,,,,,,,,,,,,,,,,,,,,,,,,,,,,,,,,,,,,,,,,,,,,,,,,,,,,,,,,,,,,,,,,,,,,,,,,,,,,,,,,,,,,,,,,,,,,,,,,,,,,,,,,,,,,,,,,,,,,,,,,,,,,,,,,,,,,,,,,
,,5e86972528aacd2d57010c07,2024-02-22_04h24.46.761,kallum_motion_pilot,2023.2.2,Win32,13.33333333,5e86972528aacd2d57010c07,65d6bb0e977760de756971f7,65d6bdec994906782921cdac,0.0369,0.0369,0,147,147,160,1,fivesix,,,,,,,,,,,,,,,,,,,,,,,,,,,,,,,,,,,,,,,,,,,,,,,,,,,,,,,,,,,,,,,,,,,,,,,,,,,,,,,,,,,,,,,,,,,,,,,,,,,,,,,,,,,,,,,,,,,,,,,,,,,,,,,,,,,,,,,,,
,,5e86972528aacd2d57010c07,2024-02-22_04h24.46.761,kallum_motion_pilot,2023.2.2,Win32,13.33333333,5e86972528aacd2d57010c07,65d6bb0e977760de756971f7,65d6bdec994906782921cdac,0.0369,0.037,0,148,148,118,1,eightsix,,,,,,,,,,,,,,,,,,,,,,,,,,,,,,,,,,,,,,,,,,,,,,,,,,,,,,,,,,,,,,,,,,,,,,,,,,,,,,,,,,,,,,,,,,,,,,,,,,,,,,,,,,,,,,,,,,,,,,,,,,,,,,,,,,,,,,,,,
,,5e86972528aacd2d57010c07,2024-02-22_04h24.46.761,kallum_motion_pilot,2023.2.2,Win32,13.33333333,5e86972528aacd2d57010c07,65d6bb0e977760de756971f7,65d6bdec994906782921cdac,0.037,0.0371,0,149,149,151,1,eightseven,,,,,,,,,,,,,,,,,,,,,,,,,,,,,,,,,,,,,,,,,,,,,,,,,,,,,,,,,,,,,,,,,,,,,,,,,,,,,,,,,,,,,,,,,,,,,,,,,,,,,,,,,,,,,,,,,,,,,,,,,,,,,,,,,,,,,,,,,
,,5e86972528aacd2d57010c07,2024-02-22_04h24.46.761,kallum_motion_pilot,2023.2.2,Win32,13.33333333,5e86972528aacd2d57010c07,65d6bb0e977760de756971f7,65d6bdec994906782921cdac,0.0372,0.0372,0,150,150,34,1,twoone,,,,,,,,,,,,,,,,,,,,,,,,,,,,,,,,,,,,,,,,,,,,,,,,,,,,,,,,,,,,,,,,,,,,,,,,,,,,,,,,,,,,,,,,,,,,,,,,,,,,,,,,,,,,,,,,,,,,,,,,,,,,,,,,,,,,,,,,,
,,5e86972528aacd2d57010c07,2024-02-22_04h24.46.761,kallum_motion_pilot,2023.2.2,Win32,13.33333333,5e86972528aacd2d57010c07,65d6bb0e977760de756971f7,65d6bdec994906782921cdac,0.0372,0.0374,0,151,151,47,1,fourthree,,,,,,,,,,,,,,,,,,,,,,,,,,,,,,,,,,,,,,,,,,,,,,,,,,,,,,,,,,,,,,,,,,,,,,,,,,,,,,,,,,,,,,,,,,,,,,,,,,,,,,,,,,,,,,,,,,,,,,,,,,,,,,,,,,,,,,,,,
,,5e86972528aacd2d57010c07,2024-02-22_04h24.46.761,kallum_motion_pilot,2023.2.2,Win32,13.33333333,5e86972528aacd2d57010c07,65d6bb0e977760de756971f7,65d6bdec994906782921cdac,0.0374,0.0375,0,152,152,126,1,eightsix,,,,,,,,,,,,,,,,,,,,,,,,,,,,,,,,,,,,,,,,,,,,,,,,,,,,,,,,,,,,,,,,,,,,,,,,,,,,,,,,,,,,,,,,,,,,,,,,,,,,,,,,,,,,,,,,,,,,,,,,,,,,,,,,,,,,,,,,,
,,5e86972528aacd2d57010c07,2024-02-22_04h24.46.761,kallum_motion_pilot,2023.2.2,Win32,13.33333333,5e86972528aacd2d57010c07,65d6bb0e977760de756971f7,65d6bdec994906782921cdac,0.0375,0.0375,0,153,153,132,1,sevenfive,,,,,,,,,,,,,,,,,,,,,,,,,,,,,,,,,,,,,,,,,,,,,,,,,,,,,,,,,,,,,,,,,,,,,,,,,,,,,,,,,,,,,,,,,,,,,,,,,,,,,,,,,,,,,,,,,,,,,,,,,,,,,,,,,,,,,,,,,
,,5e86972528aacd2d57010c07,2024-02-22_04h24.46.761,kallum_motion_pilot,2023.2.2,Win32,13.33333333,5e86972528aacd2d57010c07,65d6bb0e977760de756971f7,65d6bdec994906782921cdac,0.0376,0.0376,0,154,154,6,1,fourtwo,,,,,,,,,,,,,,,,,,,,,,,,,,,,,,,,,,,,,,,,,,,,,,,,,,,,,,,,,,,,,,,,,,,,,,,,,,,,,,,,,,,,,,,,,,,,,,,,,,,,,,,,,,,,,,,,,,,,,,,,,,,,,,,,,,,,,,,,,
,,5e86972528aacd2d57010c07,2024-02-22_04h24.46.761,kallum_motion_pilot,2023.2.2,Win32,13.33333333,5e86972528aacd2d57010c07,65d6bb0e977760de756971f7,65d6bdec994906782921cdac,0.0377,0.0377,0,155,155,43,1,twofour,,,,,,,,,,,,,,,,,,,,,,,,,,,,,,,,,,,,,,,,,,,,,,,,,,,,,,,,,,,,,,,,,,,,,,,,,,,,,,,,,,,,,,,,,,,,,,,,,,,,,,,,,,,,,,,,,,,,,,,,,,,,,,,,,,,,,,,,,
,,5e86972528aacd2d57010c07,2024-02-22_04h24.46.761,kallum_motion_pilot,2023.2.2,Win32,13.33333333,5e86972528aacd2d57010c07,65d6bb0e977760de756971f7,65d6bdec994906782921cdac,0.0378,0.0379,0,156,156,141,1,seveneight,,,,,,,,,,,,,,,,,,,,,,,,,,,,,,,,,,,,,,,,,,,,,,,,,,,,,,,,,,,,,,,,,,,,,,,,,,,,,,,,,,,,,,,,,,,,,,,,,,,,,,,,,,,,,,,,,,,,,,,,,,,,,,,,,,,,,,,,,
,,5e86972528aacd2d57010c07,2024-02-22_04h24.46.761,kallum_motion_pilot,2023.2.2,Win32,13.33333333,5e86972528aacd2d57010c07,65d6bb0e977760de756971f7,65d6bdec994906782921cdac,0.0379,0.0379,0,157,157,54,1,fourtwo,,,,,,,,,,,,,,,,,,,,,,,,,,,,,,,,,,,,,,,,,,,,,,,,,,,,,,,,,,,,,,,,,,,,,,,,,,,,,,,,,,,,,,,,,,,,,,,,,,,,,,,,,,,,,,,,,,,,,,,,,,,,,,,,,,,,,,,,,
,,5e86972528aacd2d57010c07,2024-02-22_04h24.46.761,kallum_motion_pilot,2023.2.2,Win32,13.33333333,5e86972528aacd2d57010c07,65d6bb0e977760de756971f7,65d6bdec994906782921cdac,0.038,0.0381,0,158,158,103,1,eightseven,,,,,,,,,,,,,,,,,,,,,,,,,,,,,,,,,,,,,,,,,,,,,,,,,,,,,,,,,,,,,,,,,,,,,,,,,,,,,,,,,,,,,,,,,,,,,,,,,,,,,,,,,,,,,,,,,,,,,,,,,,,,,,,,,,,,,,,,,
,,5e86972528aacd2d57010c07,2024-02-22_04h24.46.761,kallum_motion_pilot,2023.2.2,Win32,13.33333333,5e86972528aacd2d57010c07,65d6bb0e977760de756971f7,65d6bdec994906782921cdac,0.0382,0.0384,0,159,159,52,1,threeone,,,,,,,,,,,,,,,,,,,,,,,,,,,,,,,,,,,,,,,,,,,,,,,,,,,,,,,,,,,,,,,,,,,,,,,,,,,,,,,,,,,,,,,,,,,,,,,,,,,,,,,,,,,,,,,,,,,,,,,,,,,,,,,,,,,,,,,,,
,,5e86972528aacd2d57010c07,2024-02-22_04h24.46.761,kallum_motion_pilot,2023.2.2,Win32,13.33333333,5e86972528aacd2d57010c07,65d6bb0e977760de756971f7,65d6bdec994906782921cdac,0.0385,0.0386,0,160,160,73,1,onethree,,,,,,,,,,,,,,,,,,,,,,,,,,,,,,,,,,,,,,,,,,,,,,,,,,,,,,,,,,,,,,,,,,,,,,,,,,,,,,,,,,,,,,,,,,,,,,,,,,,,,,,,,,,,,,,,,,,,,,,,,,,,,,,,,,,,,,,,,
,,5e86972528aacd2d57010c07,2024-02-22_04h24.46.761,kallum_motion_pilot,2023.2.2,Win32,13.33333333,5e86972528aacd2d57010c07,65d6bb0e977760de756971f7,65d6bdec994906782921cdac,0.0389,0.039,0,161,161,83,1,sixeight,,,,,,,,,,,,,,,,,,,,,,,,,,,,,,,,,,,,,,,,,,,,,,,,,,,,,,,,,,,,,,,,,,,,,,,,,,,,,,,,,,,,,,,,,,,,,,,,,,,,,,,,,,,,,,,,,,,,,,,,,,,,,,,,,,,,,,,,,
,,5e86972528aacd2d57010c07,2024-02-22_04h24.46.761,kallum_motion_pilot,2023.2.2,Win32,13.33333333,5e86972528aacd2d57010c07,65d6bb0e977760de756971f7,65d6bdec994906782921cdac,0.0392,0.0393,1,0,162,98,1,sixfive,,,,,,,,,,,,,,,,,,,,,,,,,,,,,,,,,,,,,,,,,,,,,,,,,,,,,,,,,,,,,,,,,,,,,,,,,,,,,,,,,,,,,,,,,,,,,,,,,,,,,,,,,,,,,,,,,,,,,,,,,,,,,,,,,,,,,,,,,
,,5e86972528aacd2d57010c07,2024-02-22_04h24.46.761,kallum_motion_pilot,2023.2.2,Win32,13.33333333,5e86972528aacd2d57010c07,65d6bb0e977760de756971f7,65d6bdec994906782921cdac,0.0394,0.0395,1,1,163,118,1,eightsix,,,,,,,,,,,,,,,,,,,,,,,,,,,,,,,,,,,,,,,,,,,,,,,,,,,,,,,,,,,,,,,,,,,,,,,,,,,,,,,,,,,,,,,,,,,,,,,,,,,,,,,,,,,,,,,,,,,,,,,,,,,,,,,,,,,,,,,,,
,,5e86972528aacd2d57010c07,2024-02-22_04h24.46.761,kallum_motion_pilot,2023.2.2,Win32,13.33333333,5e86972528aacd2d57010c07,65d6bb0e977760de756971f7,65d6bdec994906782921cdac,0.0395,0.0395,1,2,164,130,1,sixfive,,,,,,,,,,,,,,,,,,,,,,,,,,,,,,,,,,,,,,,,,,,,,,,,,,,,,,,,,,,,,,,,,,,,,,,,,,,,,,,,,,,,,,,,,,,,,,,,,,,,,,,,,,,,,,,,,,,,,,,,,,,,,,,,,,,,,,,,,
,,5e86972528aacd2d57010c07,2024-02-22_04h24.46.761,kallum_motion_pilot,2023.2.2,Win32,13.33333333,5e86972528aacd2d57010c07,65d6bb0e977760de756971f7,65d6bdec994906782921cdac,0.0397,0.0397,1,3,165,81,1,fiveseven,,,,,,,,,,,,,,,,,,,,,,,,,,,,,,,,,,,,,,,,,,,,,,,,,,,,,,,,,,,,,,,,,,,,,,,,,,,,,,,,,,,,,,,,,,,,,,,,,,,,,,,,,,,,,,,,,,,,,,,,,,,,,,,,,,,,,,,,,
,,5e86972528aacd2d57010c07,2024-02-22_04h24.46.761,kallum_motion_pilot,2023.2.2,Win32,13.33333333,5e86972528aacd2d57010c07,65d6bb0e977760de756971f7,65d6bdec994906782921cdac,0.0398,0.0399,1,4,166,128,1,fivesix,,,,,,,,,,,,,,,,,,,,,,,,,,,,,,,,,,,,,,,,,,,,,,,,,,,,,,,,,,,,,,,,,,,,,,,,,,,,,,,,,,,,,,,,,,,,,,,,,,,,,,,,,,,,,,,,,,,,,,,,,,,,,,,,,,,,,,,,,
,,5e86972528aacd2d57010c07,2024-02-22_04h24.46.761,kallum_motion_pilot,2023.2.2,Win32,13.33333333,5e86972528aacd2d57010c07,65d6bb0e977760de756971f7,65d6bdec994906782921cdac,0.0399,0.0399,1,5,167,148,1,sevenfive,,,,,,,,,,,,,,,,,,,,,,,,,,,,,,,,,,,,,,,,,,,,,,,,,,,,,,,,,,,,,,,,,,,,,,,,,,,,,,,,,,,,,,,,,,,,,,,,,,,,,,,,,,,,,,,,,,,,,,,,,,,,,,,,,,,,,,,,,
,,5e86972528aacd2d57010c07,2024-02-22_04h24.46.761,kallum_motion_pilot,2023.2.2,Win32,13.33333333,5e86972528aacd2d57010c07,65d6bb0e977760de756971f7,65d6bdec994906782921cdac,0.0401,0.0401,1,6,168,146,1,sixfive,,,,,,,,,,,,,,,,,,,,,,,,,,,,,,,,,,,,,,,,,,,,,,,,,,,,,,,,,,,,,,,,,,,,,,,,,,,,,,,,,,,,,,,,,,,,,,,,,,,,,,,,,,,,,,,,,,,,,,,,,,,,,,,,,,,,,,,,,
,,5e86972528aacd2d57010c07,2024-02-22_04h24.46.761,kallum_motion_pilot,2023.2.2,Win32,13.33333333,5e86972528aacd2d57010c07,65d6bb0e977760de756971f7,65d6bdec994906782921cdac,0.0402,0.0402,1,7,169,111,1,eightseven,,,,,,,,,,,,,,,,,,,,,,,,,,,,,,,,,,,,,,,,,,,,,,,,,,,,,,,,,,,,,,,,,,,,,,,,,,,,,,,,,,,,,,,,,,,,,,,,,,,,,,,,,,,,,,,,,,,,,,,,,,,,,,,,,,,,,,,,,
,,5e86972528aacd2d57010c07,2024-02-22_04h24.46.761,kallum_motion_pilot,2023.2.2,Win32,13.33333333,5e86972528aacd2d57010c07,65d6bb0e977760de756971f7,65d6bdec994906782921cdac,0.0402,0.0403,1,8,170,116,1,sevenfive,,,,,,,,,,,,,,,,,,,,,,,,,,,,,,,,,,,,,,,,,,,,,,,,,,,,,,,,,,,,,,,,,,,,,,,,,,,,,,,,,,,,,,,,,,,,,,,,,,,,,,,,,,,,,,,,,,,,,,,,,,,,,,,,,,,,,,,,,
,,5e86972528aacd2d57010c07,2024-02-22_04h24.46.761,kallum_motion_pilot,2023.2.2,Win32,13.33333333,5e86972528aacd2d57010c07,65d6bb0e977760de756971f7,65d6bdec994906782921cdac,0.0403,0.0404,1,9,171,70,1,fourtwo,,,,,,,,,,,,,,,,,,,,,,,,,,,,,,,,,,,,,,,,,,,,,,,,,,,,,,,,,,,,,,,,,,,,,,,,,,,,,,,,,,,,,,,,,,,,,,,,,,,,,,,,,,,,,,,,,,,,,,,,,,,,,,,,,,,,,,,,,
,,5e86972528aacd2d57010c07,2024-02-22_04h24.46.761,kallum_motion_pilot,2023.2.2,Win32,13.33333333,5e86972528aacd2d57010c07,65d6bb0e977760de756971f7,65d6bdec994906782921cdac,0.0404,0.0406,1,10,172,26,1,twoone,,,,,,,,,,,,,,,,,,,,,,,,,,,,,,,,,,,,,,,,,,,,,,,,,,,,,,,,,,,,,,,,,,,,,,,,,,,,,,,,,,,,,,,,,,,,,,,,,,,,,,,,,,,,,,,,,,,,,,,,,,,,,,,,,,,,,,,,,
,,5e86972528aacd2d57010c07,2024-02-22_04h24.46.761,kallum_motion_pilot,2023.2.2,Win32,13.33333333,5e86972528aacd2d57010c07,65d6bb0e977760de756971f7,65d6bdec994906782921cdac,0.0406,0.0407,1,11,173,101,1,seveneight,,,,,,,,,,,,,,,,,,,,,,,,,,,,,,,,,,,,,,,,,,,,,,,,,,,,,,,,,,,,,,,,,,,,,,,,,,,,,,,,,,,,,,,,,,,,,,,,,,,,,,,,,,,,,,,,,,,,,,,,,,,,,,,,,,,,,,,,,
,,5e86972528aacd2d57010c07,2024-02-22_04h24.46.761,kallum_motion_pilot,2023.2.2,Win32,13.33333333,5e86972528aacd2d57010c07,65d6bb0e977760de756971f7,65d6bdec994906782921cdac,0.0407,0.0407,1,12,174,110,1,eightsix,,,,,,,,,,,,,,,,,,,,,,,,,,,,,,,,,,,,,,,,,,,,,,,,,,,,,,,,,,,,,,,,,,,,,,,,,,,,,,,,,,,,,,,,,,,,,,,,,,,,,,,,,,,,,,,,,,,,,,,,,,,,,,,,,,,,,,,,,
,,5e86972528aacd2d57010c07,2024-02-22_04h24.46.761,kallum_motion_pilot,2023.2.2,Win32,13.33333333,5e86972528aacd2d57010c07,65d6bb0e977760de756971f7,65d6bdec994906782921cdac,0.0408,0.0408,1,13,175,160,1,fivesix,,,,,,,,,,,,,,,,,,,,,,,,,,,,,,,,,,,,,,,,,,,,,,,,,,,,,,,,,,,,,,,,,,,,,,,,,,,,,,,,,,,,,,,,,,,,,,,,,,,,,,,,,,,,,,,,,,,,,,,,,,,,,,,,,,,,,,,,,
,,5e86972528aacd2d57010c07,2024-02-22_04h24.46.761,kallum_motion_pilot,2023.2.2,Win32,13.33333333,5e86972528aacd2d57010c07,65d6bb0e977760de756971f7,65d6bdec994906782921cdac,0.0409,0.041,1,14,176,127,1,eightseven,,,,,,,,,,,,,,,,,,,,,,,,,,,,,,,,,,,,,,,,,,,,,,,,,,,,,,,,,,,,,,,,,,,,,,,,,,,,,,,,,,,,,,,,,,,,,,,,,,,,,,,,,,,,,,,,,,,,,,,,,,,,,,,,,,,,,,,,,
,,5e86972528aacd2d57010c07,2024-02-22_04h24.46.761,kallum_motion_pilot,2023.2.2,Win32,13.33333333,5e86972528aacd2d57010c07,65d6bb0e977760de756971f7,65d6bdec994906782921cdac,0.041,0.0411,1,15,177,60,1,threeone,,,,,,,,,,,,,,,,,,,,,,,,,,,,,,,,,,,,,,,,,,,,,,,,,,,,,,,,,,,,,,,,,,,,,,,,,,,,,,,,,,,,,,,,,,,,,,,,,,,,,,,,,,,,,,,,,,,,,,,,,,,,,,,,,,,,,,,,,
,,5e86972528aacd2d57010c07,2024-02-22_04h24.46.761,kallum_motion_pilot,2023.2.2,Win32,13.33333333,5e86972528aacd2d57010c07,65d6bb0e977760de756971f7,65d6bdec994906782921cdac,0.0412,0.0413,1,16,178,93,1,seveneight,,,,,,,,,,,,,,,,,,,,,,,,,,,,,,,,,,,,,,,,,,,,,,,,,,,,,,,,,,,,,,,,,,,,,,,,,,,,,,,,,,,,,,,,,,,,,,,,,,,,,,,,,,,,,,,,,,,,,,,,,,,,,,,,,,,,,,,,,
,,5e86972528aacd2d57010c07,2024-02-22_04h24.46.761,kallum_motion_pilot,2023.2.2,Win32,13.33333333,5e86972528aacd2d57010c07,65d6bb0e977760de756971f7,65d6bdec994906782921cdac,0.0416,0.0417,1,17,179,9,1,onethree,,,,,,,,,,,,,,,,,,,,,,,,,,,,,,,,,,,,,,,,,,,,,,,,,,,,,,,,,,,,,,,,,,,,,,,,,,,,,,,,,,,,,,,,,,,,,,,,,,,,,,,,,,,,,,,,,,,,,,,,,,,,,,,,,,,,,,,,,
,,5e86972528aacd2d57010c07,2024-02-22_04h24.46.761,kallum_motion_pilot,2023.2.2,Win32,13.33333333,5e86972528aacd2d57010c07,65d6bb0e977760de756971f7,65d6bdec994906782921cdac,0.0417,0.0418,1,18,180,44,1,threeone,,,,,,,,,,,,,,,,,,,,,,,,,,,,,,,,,,,,,,,,,,,,,,,,,,,,,,,,,,,,,,,,,,,,,,,,,,,,,,,,,,,,,,,,,,,,,,,,,,,,,,,,,,,,,,,,,,,,,,,,,,,,,,,,,,,,,,,,,
,,5e86972528aacd2d57010c07,2024-02-22_04h24.46.761,kallum_motion_pilot,2023.2.2,Win32,13.33333333,5e86972528aacd2d57010c07,65d6bb0e977760de756971f7,65d6bdec994906782921cdac,0.0419,0.042,1,19,181,50,1,twoone,,,,,,,,,,,,,,,,,,,,,,,,,,,,,,,,,,,,,,,,,,,,,,,,,,,,,,,,,,,,,,,,,,,,,,,,,,,,,,,,,,,,,,,,,,,,,,,,,,,,,,,,,,,,,,,,,,,,,,,,,,,,,,,,,,,,,,,,,
,,5e86972528aacd2d57010c07,2024-02-22_04h24.46.761,kallum_motion_pilot,2023.2.2,Win32,13.33333333,5e86972528aacd2d57010c07,65d6bb0e977760de756971f7,65d6bdec994906782921cdac,0.0421,0.0422,1,20,182,137,1,fiveseven,,,,,,,,,,,,,,,,,,,,,,,,,,,,,,,,,,,,,,,,,,,,,,,,,,,,,,,,,,,,,,,,,,,,,,,,,,,,,,,,,,,,,,,,,,,,,,,,,,,,,,,,,,,,,,,,,,,,,,,,,,,,,,,,,,,,,,,,,
,,5e86972528aacd2d57010c07,2024-02-22_04h24.46.761,kallum_motion_pilot,2023.2.2,Win32,13.33333333,5e86972528aacd2d57010c07,65d6bb0e977760de756971f7,65d6bdec994906782921cdac,0.0422,0.0423,1,21,183,144,1,fivesix,,,,,,,,,,,,,,,,,,,,,,,,,,,,,,,,,,,,,,,,,,,,,,,,,,,,,,,,,,,,,,,,,,,,,,,,,,,,,,,,,,,,,,,,,,,,,,,,,,,,,,,,,,,,,,,,,,,,,,,,,,,,,,,,,,,,,,,,,
,,5e86972528aacd2d57010c07,2024-02-22_04h24.46.761,kallum_motion_pilot,2023.2.2,Win32,13.33333333,5e86972528aacd2d57010c07,65d6bb0e977760de756971f7,65d6bdec994906782921cdac,0.0423,0.0424,1,22,184,27,1,twofour,,,,,,,,,,,,,,,,,,,,,,,,,,,,,,,,,,,,,,,,,,,,,,,,,,,,,,,,,,,,,,,,,,,,,,,,,,,,,,,,,,,,,,,,,,,,,,,,,,,,,,,,,,,,,,,,,,,,,,,,,,,,,,,,,,,,,,,,,
,,5e86972528aacd2d57010c07,2024-02-22_04h24.46.761,kallum_motion_pilot,2023.2.2,Win32,13.33333333,5e86972528aacd2d57010c07,65d6bb0e977760de756971f7,65d6bdec994906782921cdac,0.0425,0.0425,1,23,185,48,1,onetwo,,,,,,,,,,,,,,,,,,,,,,,,,,,,,,,,,,,,,,,,,,,,,,,,,,,,,,,,,,,,,,,,,,,,,,,,,,,,,,,,,,,,,,,,,,,,,,,,,,,,,,,,,,,,,,,,,,,,,,,,,,,,,,,,,,,,,,,,,
,,5e86972528aacd2d57010c07,2024-02-22_04h24.46.761,kallum_motion_pilot,2023.2.2,Win32,13.33333333,5e86972528aacd2d57010c07,65d6bb0e977760de756971f7,65d6bdec994906782921cdac,0.0426,0.0426,1,24,186,117,1,seveneight,,,,,,,,,,,,,,,,,,,,,,,,,,,,,,,,,,,,,,,,,,,,,,,,,,,,,,,,,,,,,,,,,,,,,,,,,,,,,,,,,,,,,,,,,,,,,,,,,,,,,,,,,,,,,,,,,,,,,,,,,,,,,,,,,,,,,,,,,
,,5e86972528aacd2d57010c07,2024-02-22_04h24.46.761,kallum_motion_pilot,2023.2.2,Win32,13.33333333,5e86972528aacd2d57010c07,65d6bb0e977760de756971f7,65d6bdec994906782921cdac,0.0427,0.0428,1,25,187,18,1,twoone,,,,,,,,,,,,,,,,,,,,,,,,,,,,,,,,,,,,,,,,,,,,,,,,,,,,,,,,,,,,,,,,,,,,,,,,,,,,,,,,,,,,,,,,,,,,,,,,,,,,,,,,,,,,,,,,,,,,,,,,,,,,,,,,,,,,,,,,,
,,5e86972528aacd2d57010c07,2024-02-22_04h24.46.761,kallum_motion_pilot,2023.2.2,Win32,13.33333333,5e86972528aacd2d57010c07,65d6bb0e977760de756971f7,65d6bdec994906782921cdac,0.0428,0.0429,1,26,188,17,1,onethree,,,,,,,,,,,,,,,,,,,,,,,,,,,,,,,,,,,,,,,,,,,,,,,,,,,,,,,,,,,,,,,,,,,,,,,,,,,,,,,,,,,,,,,,,,,,,,,,,,,,,,,,,,,,,,,,,,,,,,,,,,,,,,,,,,,,,,,,,
,,5e86972528aacd2d57010c07,2024-02-22_04h24.46.761,kallum_motion_pilot,2023.2.2,Win32,13.33333333,5e86972528aacd2d57010c07,65d6bb0e977760de756971f7,65d6bdec994906782921cdac,0.0429,0.0429,1,27,189,154,1,sixfive,,,,,,,,,,,,,,,,,,,,,,,,,,,,,,,,,,,,,,,,,,,,,,,,,,,,,,,,,,,,,,,,,,,,,,,,,,,,,,,,,,,,,,,,,,,,,,,,,,,,,,,,,,,,,,,,,,,,,,,,,,,,,,,,,,,,,,,,,
,,5e86972528aacd2d57010c07,2024-02-22_04h24.46.761,kallum_motion_pilot,2023.2.2,Win32,13.33333333,5e86972528aacd2d57010c07,65d6bb0e977760de756971f7,65d6bdec994906782921cdac,0.043,0.0431,1,28,190,51,1,twofour,,,,,,,,,,,,,,,,,,,,,,,,,,,,,,,,,,,,,,,,,,,,,,,,,,,,,,,,,,,,,,,,,,,,,,,,,,,,,,,,,,,,,,,,,,,,,,,,,,,,,,,,,,,,,,,,,,,,,,,,,,,,,,,,,,,,,,,,,
,,5e86972528aacd2d57010c07,2024-02-22_04h24.46.761,kallum_motion_pilot,2023.2.2,Win32,13.33333333,5e86972528aacd2d57010c07,65d6bb0e977760de756971f7,65d6bdec994906782921cdac,0.0431,0.0432,1,29,191,11,1,twofour,,,,,,,,,,,,,,,,,,,,,,,,,,,,,,,,,,,,,,,,,,,,,,,,,,,,,,,,,,,,,,,,,,,,,,,,,,,,,,,,,,,,,,,,,,,,,,,,,,,,,,,,,,,,,,,,,,,,,,,,,,,,,,,,,,,,,,,,,
,,5e86972528aacd2d57010c07,2024-02-22_04h24.46.761,kallum_motion_pilot,2023.2.2,Win32,13.33333333,5e86972528aacd2d57010c07,65d6bb0e977760de756971f7,65d6bdec994906782921cdac,0.0433,0.0433,1,30,192,135,1,eightseven,,,,,,,,,,,,,,,,,,,,,,,,,,,,,,,,,,,,,,,,,,,,,,,,,,,,,,,,,,,,,,,,,,,,,,,,,,,,,,,,,,,,,,,,,,,,,,,,,,,,,,,,,,,,,,,,,,,,,,,,,,,,,,,,,,,,,,,,,
,,5e86972528aacd2d57010c07,2024-02-22_04h24.46.761,kallum_motion_pilot,2023.2.2,Win32,13.33333333,5e86972528aacd2d57010c07,65d6bb0e977760de756971f7,65d6bdec994906782921cdac,0.0434,0.0434,1,31,193,86,1,eightsix,,,,,,,,,,,,,,,,,,,,,,,,,,,,,,,,,,,,,,,,,,,,,,,,,,,,,,,,,,,,,,,,,,,,,,,,,,,,,,,,,,,,,,,,,,,,,,,,,,,,,,,,,,,,,,,,,,,,,,,,,,,,,,,,,,,,,,,,,
,,5e86972528aacd2d57010c07,2024-02-22_04h24.46.761,kallum_motion_pilot,2023.2.2,Win32,13.33333333,5e86972528aacd2d57010c07,65d6bb0e977760de756971f7,65d6bdec994906782921cdac,0.0434,0.0435,1,32,194,65,1,onethree,,,,,,,,,,,,,,,,,,,,,,,,,,,,,,,,,,,,,,,,,,,,,,,,,,,,,,,,,,,,,,,,,,,,,,,,,,,,,,,,,,,,,,,,,,,,,,,,,,,,,,,,,,,,,,,,,,,,,,,,,,,,,,,,,,,,,,,,,
,,5e86972528aacd2d57010c07,2024-02-22_04h24.46.761,kallum_motion_pilot,2023.2.2,Win32,13.33333333,5e86972528aacd2d57010c07,65d6bb0e977760de756971f7,65d6bdec994906782921cdac,0.0435,0.0436,1,33,195,53,1,threefour,,,,,,,,,,,,,,,,,,,,,,,,,,,,,,,,,,,,,,,,,,,,,,,,,,,,,,,,,,,,,,,,,,,,,,,,,,,,,,,,,,,,,,,,,,,,,,,,,,,,,,,,,,,,,,,,,,,,,,,,,,,,,,,,,,,,,,,,,
,,5e86972528aacd2d57010c07,2024-02-22_04h24.46.761,kallum_motion_pilot,2023.2.2,Win32,13.33333333,5e86972528aacd2d57010c07,65d6bb0e977760de756971f7,65d6bdec994906782921cdac,0.0437,0.0437,1,34,196,120,1,fivesix,,,,,,,,,,,,,,,,,,,,,,,,,,,,,,,,,,,,,,,,,,,,,,,,,,,,,,,,,,,,,,,,,,,,,,,,,,,,,,,,,,,,,,,,,,,,,,,,,,,,,,,,,,,,,,,,,,,,,,,,,,,,,,,,,,,,,,,,,
,,5e86972528aacd2d57010c07,2024-02-22_04h24.46.761,kallum_motion_pilot,2023.2.2,Win32,13.33333333,5e86972528aacd2d57010c07,65d6bb0e977760de756971f7,65d6bdec994906782921cdac,0.0437,0.0439,1,35,197,145,1,fiveseven,,,,,,,,,,,,,,,,,,,,,,,,,,,,,,,,,,,,,,,,,,,,,,,,,,,,,,,,,,,,,,,,,,,,,,,,,,,,,,,,,,,,,,,,,,,,,,,,,,,,,,,,,,,,,,,,,,,,,,,,,,,,,,,,,,,,,,,,,
,,5e86972528aacd2d57010c07,2024-02-22_04h24.46.761,kallum_motion_pilot,2023.2.2,Win32,13.33333333,5e86972528aacd2d57010c07,65d6bb0e977760de756971f7,65d6bdec994906782921cdac,0.0439,0.0439,1,36,198,114,1,sixfive,,,,,,,,,,,,,,,,,,,,,,,,,,,,,,,,,,,,,,,,,,,,,,,,,,,,,,,,,,,,,,,,,,,,,,,,,,,,,,,,,,,,,,,,,,,,,,,,,,,,,,,,,,,,,,,,,,,,,,,,,,,,,,,,,,,,,,,,,
,,5e86972528aacd2d57010c07,2024-02-22_04h24.46.761,kallum_motion_pilot,2023.2.2,Win32,13.33333333,5e86972528aacd2d57010c07,65d6bb0e977760de756971f7,65d6bdec994906782921cdac,0.044,0.0441,1,37,199,58,1,twoone,,,,,,,,,,,,,,,,,,,,,,,,,,,,,,,,,,,,,,,,,,,,,,,,,,,,,,,,,,,,,,,,,,,,,,,,,,,,,,,,,,,,,,,,,,,,,,,,,,,,,,,,,,,,,,,,,,,,,,,,,,,,,,,,,,,,,,,,,
,,5e86972528aacd2d57010c07,2024-02-22_04h24.46.761,kallum_motion_pilot,2023.2.2,Win32,13.33333333,5e86972528aacd2d57010c07,65d6bb0e977760de756971f7,65d6bdec994906782921cdac,0.0441,0.0442,1,38,200,23,1,fourthree,,,,,,,,,,,,,,,,,,,,,,,,,,,,,,,,,,,,,,,,,,,,,,,,,,,,,,,,,,,,,,,,,,,,,,,,,,,,,,,,,,,,,,,,,,,,,,,,,,,,,,,,,,,,,,,,,,,,,,,,,,,,,,,,,,,,,,,,,
,,5e86972528aacd2d57010c07,2024-02-22_04h24.46.761,kallum_motion_pilot,2023.2.2,Win32,13.33333333,5e86972528aacd2d57010c07,65d6bb0e977760de756971f7,65d6bdec994906782921cdac,0.0442,0.0443,1,39,201,94,1,eightsix,,,,,,,,,,,,,,,,,,,,,,,,,,,,,,,,,,,,,,,,,,,,,,,,,,,,,,,,,,,,,,,,,,,,,,,,,,,,,,,,,,,,,,,,,,,,,,,,,,,,,,,,,,,,,,,,,,,,,,,,,,,,,,,,,,,,,,,,,
,,5e86972528aacd2d57010c07,2024-02-22_04h24.46.761,kallum_motion_pilot,2023.2.2,Win32,13.33333333,5e86972528aacd2d57010c07,65d6bb0e977760de756971f7,65d6bdec994906782921cdac,0.0443,0.0444,1,40,202,134,1,eightsix,,,,,,,,,,,,,,,,,,,,,,,,,,,,,,,,,,,,,,,,,,,,,,,,,,,,,,,,,,,,,,,,,,,,,,,,,,,,,,,,,,,,,,,,,,,,,,,,,,,,,,,,,,,,,,,,,,,,,,,,,,,,,,,,,,,,,,,,,
,,5e86972528aacd2d57010c07,2024-02-22_04h24.46.761,kallum_motion_pilot,2023.2.2,Win32,13.33333333,5e86972528aacd2d57010c07,65d6bb0e977760de756971f7,65d6bdec994906782921cdac,0.0445,0.0445,1,41,203,84,1,sevenfive,,,,,,,,,,,,,,,,,,,,,,,,,,,,,,,,,,,,,,,,,,,,,,,,,,,,,,,,,,,,,,,,,,,,,,,,,,,,,,,,,,,,,,,,,,,,,,,,,,,,,,,,,,,,,,,,,,,,,,,,,,,,,,,,,,,,,,,,,
,,5e86972528aacd2d57010c07,2024-02-22_04h24.46.761,kallum_motion_pilot,2023.2.2,Win32,13.33333333,5e86972528aacd2d57010c07,65d6bb0e977760de756971f7,65d6bdec994906782921cdac,0.0446,0.0447,1,42,204,112,1,fivesix,,,,,,,,,,,,,,,,,,,,,,,,,,,,,,,,,,,,,,,,,,,,,,,,,,,,,,,,,,,,,,,,,,,,,,,,,,,,,,,,,,,,,,,,,,,,,,,,,,,,,,,,,,,,,,,,,,,,,,,,,,,,,,,,,,,,,,,,,
,,5e86972528aacd2d57010c07,2024-02-22_04h24.46.761,kallum_motion_pilot,2023.2.2,Win32,13.33333333,5e86972528aacd2d57010c07,65d6bb0e977760de756971f7,65d6bdec994906782921cdac,0.0448,0.0448,1,43,205,78,1,fourtwo,,,,,,,,,,,,,,,,,,,,,,,,,,,,,,,,,,,,,,,,,,,,,,,,,,,,,,,,,,,,,,,,,,,,,,,,,,,,,,,,,,,,,,,,,,,,,,,,,,,,,,,,,,,,,,,,,,,,,,,,,,,,,,,,,,,,,,,,,
,,5e86972528aacd2d57010c07,2024-02-22_04h24.46.761,kallum_motion_pilot,2023.2.2,Win32,13.33333333,5e86972528aacd2d57010c07,65d6bb0e977760de756971f7,65d6bdec994906782921cdac,0.0449,0.045,1,44,206,125,1,seveneight,,,,,,,,,,,,,,,,,,,,,,,,,,,,,,,,,,,,,,,,,,,,,,,,,,,,,,,,,,,,,,,,,,,,,,,,,,,,,,,,,,,,,,,,,,,,,,,,,,,,,,,,,,,,,,,,,,,,,,,,,,,,,,,,,,,,,,,,,
,,5e86972528aacd2d57010c07,2024-02-22_04h24.46.761,kallum_motion_pilot,2023.2.2,Win32,13.33333333,5e86972528aacd2d57010c07,65d6bb0e977760de756971f7,65d6bdec994906782921cdac,0.045,0.045,1,45,207,15,1,fourthree,,,,,,,,,,,,,,,,,,,,,,,,,,,,,,,,,,,,,,,,,,,,,,,,,,,,,,,,,,,,,,,,,,,,,,,,,,,,,,,,,,,,,,,,,,,,,,,,,,,,,,,,,,,,,,,,,,,,,,,,,,,,,,,,,,,,,,,,,
,,5e86972528aacd2d57010c07,2024-02-22_04h24.46.761,kallum_motion_pilot,2023.2.2,Win32,13.33333333,5e86972528aacd2d57010c07,65d6bb0e977760de756971f7,65d6bdec994906782921cdac,0.0452,0.0452,1,46,208,141,1,seveneight,,,,,,,,,,,,,,,,,,,,,,,,,,,,,,,,,,,,,,,,,,,,,,,,,,,,,,,,,,,,,,,,,,,,,,,,,,,,,,,,,,,,,,,,,,,,,,,,,,,,,,,,,,,,,,,,,,,,,,,,,,,,,,,,,,,,,,,,,
,,5e86972528aacd2d57010c07,2024-02-22_04h24.46.761,kallum_motion_pilot,2023.2.2,Win32,13.33333333,5e86972528aacd2d57010c07,65d6bb0e977760de756971f7,65d6bdec994906782921cdac,0.0453,0.0453,1,47,209,74,1,twoone,,,,,,,,,,,,,,,,,,,,,,,,,,,,,,,,,,,,,,,,,,,,,,,,,,,,,,,,,,,,,,,,,,,,,,,,,,,,,,,,,,,,,,,,,,,,,,,,,,,,,,,,,,,,,,,,,,,,,,,,,,,,,,,,,,,,,,,,,
,,5e86972528aacd2d57010c07,2024-02-22_04h24.46.761,kallum_motion_pilot,2023.2.2,Win32,13.33333333,5e86972528aacd2d57010c07,65d6bb0e977760de756971f7,65d6bdec994906782921cdac,0.0454,0.0454,1,48,210,106,1,sixfive,,,,,,,,,,,,,,,,,,,,,,,,,,,,,,,,,,,,,,,,,,,,,,,,,,,,,,,,,,,,,,,,,,,,,,,,,,,,,,,,,,,,,,,,,,,,,,,,,,,,,,,,,,,,,,,,,,,,,,,,,,,,,,,,,,,,,,,,,
,,5e86972528aacd2d57010c07,2024-02-22_04h24.46.761,kallum_motion_pilot,2023.2.2,Win32,13.33333333,5e86972528aacd2d57010c07,65d6bb0e977760de756971f7,65d6bdec994906782921cdac,0.0454,0.0455,1,49,211,38,1,fourtwo,,,,,,,,,,,,,,,,,,,,,,,,,,,,,,,,,,,,,,,,,,,,,,,,,,,,,,,,,,,,,,,,,,,,,,,,,,,,,,,,,,,,,,,,,,,,,,,,,,,,,,,,,,,,,,,,,,,,,,,,,,,,,,,,,,,,,,,,,
,,5e86972528aacd2d57010c07,2024-02-22_04h24.46.761,kallum_motion_pilot,2023.2.2,Win32,13.33333333,5e86972528aacd2d57010c07,65d6bb0e977760de756971f7,65d6bdec994906782921cdac,0.0456,0.0457,1,50,212,87,1,eightseven,,,,,,,,,,,,,,,,,,,,,,,,,,,,,,,,,,,,,,,,,,,,,,,,,,,,,,,,,,,,,,,,,,,,,,,,,,,,,,,,,,,,,,,,,,,,,,,,,,,,,,,,,,,,,,,,,,,,,,,,,,,,,,,,,,,,,,,,,
,,5e86972528aacd2d57010c07,2024-02-22_04h24.46.761,kallum_motion_pilot,2023.2.2,Win32,13.33333333,5e86972528aacd2d57010c07,65d6bb0e977760de756971f7,65d6bdec994906782921cdac,0.0458,0.0458,1,51,213,142,1,eightsix,,,,,,,,,,,,,,,,,,,,,,,,,,,,,,,,,,,,,,,,,,,,,,,,,,,,,,,,,,,,,,,,,,,,,,,,,,,,,,,,,,,,,,,,,,,,,,,,,,,,,,,,,,,,,,,,,,,,,,,,,,,,,,,,,,,,,,,,,
,,5e86972528aacd2d57010c07,2024-02-22_04h24.46.761,kallum_motion_pilot,2023.2.2,Win32,13.33333333,5e86972528aacd2d57010c07,65d6bb0e977760de756971f7,65d6bdec994906782921cdac,0.0459,0.0459,1,52,214,77,1,threefour,,,,,,,,,,,,,,,,,,,,,,,,,,,,,,,,,,,,,,,,,,,,,,,,,,,,,,,,,,,,,,,,,,,,,,,,,,,,,,,,,,,,,,,,,,,,,,,,,,,,,,,,,,,,,,,,,,,,,,,,,,,,,,,,,,,,,,,,,
,,5e86972528aacd2d57010c07,2024-02-22_04h24.46.761,kallum_motion_pilot,2023.2.2,Win32,13.33333333,5e86972528aacd2d57010c07,65d6bb0e977760de756971f7,65d6bdec994906782921cdac,0.0459,0.046,1,53,215,151,1,eightseven,,,,,,,,,,,,,,,,,,,,,,,,,,,,,,,,,,,,,,,,,,,,,,,,,,,,,,,,,,,,,,,,,,,,,,,,,,,,,,,,,,,,,,,,,,,,,,,,,,,,,,,,,,,,,,,,,,,,,,,,,,,,,,,,,,,,,,,,,
,,5e86972528aacd2d57010c07,2024-02-22_04h24.46.761,kallum_motion_pilot,2023.2.2,Win32,13.33333333,5e86972528aacd2d57010c07,65d6bb0e977760de756971f7,65d6bdec994906782921cdac,0.0461,0.0461,1,54,216,83,1,sixeight,,,,,,,,,,,,,,,,,,,,,,,,,,,,,,,,,,,,,,,,,,,,,,,,,,,,,,,,,,,,,,,,,,,,,,,,,,,,,,,,,,,,,,,,,,,,,,,,,,,,,,,,,,,,,,,,,,,,,,,,,,,,,,,,,,,,,,,,,
,,5e86972528aacd2d57010c07,2024-02-22_04h24.46.761,kallum_motion_pilot,2023.2.2,Win32,13.33333333,5e86972528aacd2d57010c07,65d6bb0e977760de756971f7,65d6bdec994906782921cdac,0.0462,0.0463,1,55,217,88,1,fivesix,,,,,,,,,,,,,,,,,,,,,,,,,,,,,,,,,,,,,,,,,,,,,,,,,,,,,,,,,,,,,,,,,,,,,,,,,,,,,,,,,,,,,,,,,,,,,,,,,,,,,,,,,,,,,,,,,,,,,,,,,,,,,,,,,,,,,,,,,
,,5e86972528aacd2d57010c07,2024-02-22_04h24.46.761,kallum_motion_pilot,2023.2.2,Win32,13.33333333,5e86972528aacd2d57010c07,65d6bb0e977760de756971f7,65d6bdec994906782921cdac,0.0464,0.0465,1,56,218,109,1,seveneight,,,,,,,,,,,,,,,,,,,,,,,,,,,,,,,,,,,,,,,,,,,,,,,,,,,,,,,,,,,,,,,,,,,,,,,,,,,,,,,,,,,,,,,,,,,,,,,,,,,,,,,,,,,,,,,,,,,,,,,,,,,,,,,,,,,,,,,,,
,,5e86972528aacd2d57010c07,2024-02-22_04h24.46.761,kallum_motion_pilot,2023.2.2,Win32,13.33333333,5e86972528aacd2d57010c07,65d6bb0e977760de756971f7,65d6bdec994906782921cdac,0.0466,0.0468,1,57,219,75,1,twofour,,,,,,,,,,,,,,,,,,,,,,,,,,,,,,,,,,,,,,,,,,,,,,,,,,,,,,,,,,,,,,,,,,,,,,,,,,,,,,,,,,,,,,,,,,,,,,,,,,,,,,,,,,,,,,,,,,,,,,,,,,,,,,,,,,,,,,,,,
,,5e86972528aacd2d57010c07,2024-02-22_04h24.46.761,kallum_motion_pilot,2023.2.2,Win32,13.33333333,5e86972528aacd2d57010c07,65d6bb0e977760de756971f7,65d6bdec994906782921cdac,0.047,0.0471,1,58,220,39,1,fourthree,,,,,,,,,,,,,,,,,,,,,,,,,,,,,,,,,,,,,,,,,,,,,,,,,,,,,,,,,,,,,,,,,,,,,,,,,,,,,,,,,,,,,,,,,,,,,,,,,,,,,,,,,,,,,,,,,,,,,,,,,,,,,,,,,,,,,,,,,
,,5e86972528aacd2d57010c07,2024-02-22_04h24.46.761,kallum_motion_pilot,2023.2.2,Win32,13.33333333,5e86972528aacd2d57010c07,65d6bb0e977760de756971f7,65d6bdec994906782921cdac,0.0472,0.0472,1,59,221,129,1,fiveseven,,,,,,,,,,,,,,,,,,,,,,,,,,,,,,,,,,,,,,,,,,,,,,,,,,,,,,,,,,,,,,,,,,,,,,,,,,,,,,,,,,,,,,,,,,,,,,,,,,,,,,,,,,,,,,,,,,,,,,,,,,,,,,,,,,,,,,,,,
,,5e86972528aacd2d57010c07,2024-02-22_04h24.46.761,kallum_motion_pilot,2023.2.2,Win32,13.33333333,5e86972528aacd2d57010c07,65d6bb0e977760de756971f7,65d6bdec994906782921cdac,0.0472,0.0473,1,60,222,35,1,twofour,,,,,,,,,,,,,,,,,,,,,,,,,,,,,,,,,,,,,,,,,,,,,,,,,,,,,,,,,,,,,,,,,,,,,,,,,,,,,,,,,,,,,,,,,,,,,,,,,,,,,,,,,,,,,,,,,,,,,,,,,,,,,,,,,,,,,,,,,
,,5e86972528aacd2d57010c07,2024-02-22_04h24.46.761,kallum_motion_pilot,2023.2.2,Win32,13.33333333,5e86972528aacd2d57010c07,65d6bb0e977760de756971f7,65d6bdec994906782921cdac,0.0473,0.0474,1,61,223,103,1,eightseven,,,,,,,,,,,,,,,,,,,,,,,,,,,,,,,,,,,,,,,,,,,,,,,,,,,,,,,,,,,,,,,,,,,,,,,,,,,,,,,,,,,,,,,,,,,,,,,,,,,,,,,,,,,,,,,,,,,,,,,,,,,,,,,,,,,,,,,,,
,,5e86972528aacd2d57010c07,2024-02-22_04h24.46.761,kallum_motion_pilot,2023.2.2,Win32,13.33333333,5e86972528aacd2d57010c07,65d6bb0e977760de756971f7,65d6bdec994906782921cdac,0.0475,0.0475,1,62,224,131,1,sixeight,,,,,,,,,,,,,,,,,,,,,,,,,,,,,,,,,,,,,,,,,,,,,,,,,,,,,,,,,,,,,,,,,,,,,,,,,,,,,,,,,,,,,,,,,,,,,,,,,,,,,,,,,,,,,,,,,,,,,,,,,,,,,,,,,,,,,,,,,
,,5e86972528aacd2d57010c07,2024-02-22_04h24.46.761,kallum_motion_pilot,2023.2.2,Win32,13.33333333,5e86972528aacd2d57010c07,65d6bb0e977760de756971f7,65d6bdec994906782921cdac,0.0476,0.0476,1,63,225,0,1,onetwo,,,,,,,,,,,,,,,,,,,,,,,,,,,,,,,,,,,,,,,,,,,,,,,,,,,,,,,,,,,,,,,,,,,,,,,,,,,,,,,,,,,,,,,,,,,,,,,,,,,,,,,,,,,,,,,,,,,,,,,,,,,,,,,,,,,,,,,,,
,,5e86972528aacd2d57010c07,2024-02-22_04h24.46.761,kallum_motion_pilot,2023.2.2,Win32,13.33333333,5e86972528aacd2d57010c07,65d6bb0e977760de756971f7,65d6bdec994906782921cdac,0.0477,0.0478,1,64,226,92,1,sevenfive,,,,,,,,,,,,,,,,,,,,,,,,,,,,,,,,,,,,,,,,,,,,,,,,,,,,,,,,,,,,,,,,,,,,,,,,,,,,,,,,,,,,,,,,,,,,,,,,,,,,,,,,,,,,,,,,,,,,,,,,,,,,,,,,,,,,,,,,,
,,5e86972528aacd2d57010c07,2024-02-22_04h24.46.761,kallum_motion_pilot,2023.2.2,Win32,13.33333333,5e86972528aacd2d57010c07,65d6bb0e977760de756971f7,65d6bdec994906782921cdac,0.0478,0.0479,1,65,227,56,1,onetwo,,,,,,,,,,,,,,,,,,,,,,,,,,,,,,,,,,,,,,,,,,,,,,,,,,,,,,,,,,,,,,,,,,,,,,,,,,,,,,,,,,,,,,,,,,,,,,,,,,,,,,,,,,,,,,,,,,,,,,,,,,,,,,,,,,,,,,,,,
,,5e86972528aacd2d57010c07,2024-02-22_04h24.46.761,kallum_motion_pilot,2023.2.2,Win32,13.33333333,5e86972528aacd2d57010c07,65d6bb0e977760de756971f7,65d6bdec994906782921cdac,0.0479,0.048,1,66,228,2,1,twoone,,,,,,,,,,,,,,,,,,,,,,,,,,,,,,,,,,,,,,,,,,,,,,,,,,,,,,,,,,,,,,,,,,,,,,,,,,,,,,,,,,,,,,,,,,,,,,,,,,,,,,,,,,,,,,,,,,,,,,,,,,,,,,,,,,,,,,,,,
,,5e86972528aacd2d57010c07,2024-02-22_04h24.46.761,kallum_motion_pilot,2023.2.2,Win32,13.33333333,5e86972528aacd2d57010c07,65d6bb0e977760de756971f7,65d6bdec994906782921cdac,0.048,0.0481,1,67,229,72,1,onetwo,,,,,,,,,,,,,,,,,,,,,,,,,,,,,,,,,,,,,,,,,,,,,,,,,,,,,,,,,,,,,,,,,,,,,,,,,,,,,,,,,,,,,,,,,,,,,,,,,,,,,,,,,,,,,,,,,,,,,,,,,,,,,,,,,,,,,,,,,
,,5e86972528aacd2d57010c07,2024-02-22_04h24.46.761,kallum_motion_pilot,2023.2.2,Win32,13.33333333,5e86972528aacd2d57010c07,65d6bb0e977760de756971f7,65d6bdec994906782921cdac,0.0482,0.0483,1,68,230,24,1,onetwo,,,,,,,,,,,,,,,,,,,,,,,,,,,,,,,,,,,,,,,,,,,,,,,,,,,,,,,,,,,,,,,,,,,,,,,,,,,,,,,,,,,,,,,,,,,,,,,,,,,,,,,,,,,,,,,,,,,,,,,,,,,,,,,,,,,,,,,,,
,,5e86972528aacd2d57010c07,2024-02-22_04h24.46.761,kallum_motion_pilot,2023.2.2,Win32,13.33333333,5e86972528aacd2d57010c07,65d6bb0e977760de756971f7,65d6bdec994906782921cdac,0.0483,0.0483,1,69,231,29,1,threefour,,,,,,,,,,,,,,,,,,,,,,,,,,,,,,,,,,,,,,,,,,,,,,,,,,,,,,,,,,,,,,,,,,,,,,,,,,,,,,,,,,,,,,,,,,,,,,,,,,,,,,,,,,,,,,,,,,,,,,,,,,,,,,,,,,,,,,,,,
,,5e86972528aacd2d57010c07,2024-02-22_04h24.46.761,kallum_motion_pilot,2023.2.2,Win32,13.33333333,5e86972528aacd2d57010c07,65d6bb0e977760de756971f7,65d6bdec994906782921cdac,0.0485,0.0485,1,70,232,95,1,eightseven,,,,,,,,,,,,,,,,,,,,,,,,,,,,,,,,,,,,,,,,,,,,,,,,,,,,,,,,,,,,,,,,,,,,,,,,,,,,,,,,,,,,,,,,,,,,,,,,,,,,,,,,,,,,,,,,,,,,,,,,,,,,,,,,,,,,,,,,,
,,5e86972528aacd2d57010c07,2024-02-22_04h24.46.761,kallum_motion_pilot,2023.2.2,Win32,13.33333333,5e86972528aacd2d57010c07,65d6bb0e977760de756971f7,65d6bdec994906782921cdac,0.0486,0.0486,1,71,233,34,1,twoone,,,,,,,,,,,,,,,,,,,,,,,,,,,,,,,,,,,,,,,,,,,,,,,,,,,,,,,,,,,,,,,,,,,,,,,,,,,,,,,,,,,,,,,,,,,,,,,,,,,,,,,,,,,,,,,,,,,,,,,,,,,,,,,,,,,,,,,,,
,,5e86972528aacd2d57010c07,2024-02-22_04h24.46.761,kallum_motion_pilot,2023.2.2,Win32,13.33333333,5e86972528aacd2d57010c07,65d6bb0e977760de756971f7,65d6bdec994906782921cdac,0.0487,0.0487,1,72,234,107,1,sixeight,,,,,,,,,,,,,,,,,,,,,,,,,,,,,,,,,,,,,,,,,,,,,,,,,,,,,,,,,,,,,,,,,,,,,,,,,,,,,,,,,,,,,,,,,,,,,,,,,,,,,,,,,,,,,,,,,,,,,,,,,,,,,,,,,,,,,,,,,
,,5e86972528aacd2d57010c07,2024-02-22_04h24.46.761,kallum_motion_pilot,2023.2.2,Win32,13.33333333,5e86972528aacd2d57010c07,65d6bb0e977760de756971f7,65d6bdec994906782921cdac,0.0488,0.0489,1,73,235,156,1,sevenfive,,,,,,,,,,,,,,,,,,,,,,,,,,,,,,,,,,,,,,,,,,,,,,,,,,,,,,,,,,,,,,,,,,,,,,,,,,,,,,,,,,,,,,,,,,,,,,,,,,,,,,,,,,,,,,,,,,,,,,,,,,,,,,,,,,,,,,,,,
,,5e86972528aacd2d57010c07,2024-02-22_04h24.46.761,kallum_motion_pilot,2023.2.2,Win32,13.33333333,5e86972528aacd2d57010c07,65d6bb0e977760de756971f7,65d6bdec994906782921cdac,0.0489,0.049,1,74,236,124,1,sevenfive,,,,,,,,,,,,,,,,,,,,,,,,,,,,,,,,,,,,,,,,,,,,,,,,,,,,,,,,,,,,,,,,,,,,,,,,,,,,,,,,,,,,,,,,,,,,,,,,,,,,,,,,,,,,,,,,,,,,,,,,,,,,,,,,,,,,,,,,,
,,5e86972528aacd2d57010c07,2024-02-22_04h24.46.761,kallum_motion_pilot,2023.2.2,Win32,13.33333333,5e86972528aacd2d57010c07,65d6bb0e977760de756971f7,65d6bdec994906782921cdac,0.049,0.0491,1,75,237,25,1,onethree,,,,,,,,,,,,,,,,,,,,,,,,,,,,,,,,,,,,,,,,,,,,,,,,,,,,,,,,,,,,,,,,,,,,,,,,,,,,,,,,,,,,,,,,,,,,,,,,,,,,,,,,,,,,,,,,,,,,,,,,,,,,,,,,,,,,,,,,,
,,5e86972528aacd2d57010c07,2024-02-22_04h24.46.761,kallum_motion_pilot,2023.2.2,Win32,13.33333333,5e86972528aacd2d57010c07,65d6bb0e977760de756971f7,65d6bdec994906782921cdac,0.0492,0.0493,1,76,238,21,1,threefour,,,,,,,,,,,,,,,,,,,,,,,,,,,,,,,,,,,,,,,,,,,,,,,,,,,,,,,,,,,,,,,,,,,,,,,,,,,,,,,,,,,,,,,,,,,,,,,,,,,,,,,,,,,,,,,,,,,,,,,,,,,,,,,,,,,,,,,,,
,,5e86972528aacd2d57010c07,2024-02-22_04h24.46.761,kallum_motion_pilot,2023.2.2,Win32,13.33333333,5e86972528aacd2d57010c07,65d6bb0e977760de756971f7,65d6bdec994906782921cdac,0.0493,0.0494,1,77,239,37,1,threefour,,,,,,,,,,,,,,,,,,,,,,,,,,,,,,,,,,,,,,,,,,,,,,,,,,,,,,,,,,,,,,,,,,,,,,,,,,,,,,,,,,,,,,,,,,,,,,,,,,,,,,,,,,,,,,,,,,,,,,,,,,,,,,,,,,,,,,,,,
,,5e86972528aacd2d57010c07,2024-02-22_04h24.46.761,kallum_motion_pilot,2023.2.2,Win32,13.33333333,5e86972528aacd2d57010c07,65d6bb0e977760de756971f7,65d6bdec994906782921cdac,0.0495,0.0495,1,78,240,6,1,fourtwo,,,,,,,,,,,,,,,,,,,,,,,,,,,,,,,,,,,,,,,,,,,,,,,,,,,,,,,,,,,,,,,,,,,,,,,,,,,,,,,,,,,,,,,,,,,,,,,,,,,,,,,,,,,,,,,,,,,,,,,,,,,,,,,,,,,,,,,,,
,,5e86972528aacd2d57010c07,2024-02-22_04h24.46.761,kallum_motion_pilot,2023.2.2,Win32,13.33333333,5e86972528aacd2d57010c07,65d6bb0e977760de756971f7,65d6bdec994906782921cdac,0.0495,0.0496,1,79,241,115,1,sixeight,,,,,,,,,,,,,,,,,,,,,,,,,,,,,,,,,,,,,,,,,,,,,,,,,,,,,,,,,,,,,,,,,,,,,,,,,,,,,,,,,,,,,,,,,,,,,,,,,,,,,,,,,,,,,,,,,,,,,,,,,,,,,,,,,,,,,,,,,
,,5e86972528aacd2d57010c07,2024-02-22_04h24.46.761,kallum_motion_pilot,2023.2.2,Win32,13.33333333,5e86972528aacd2d57010c07,65d6bb0e977760de756971f7,65d6bdec994906782921cdac,0.0496,0.0497,1,80,242,136,1,fivesix,,,,,,,,,,,,,,,,,,,,,,,,,,,,,,,,,,,,,,,,,,,,,,,,,,,,,,,,,,,,,,,,,,,,,,,,,,,,,,,,,,,,,,,,,,,,,,,,,,,,,,,,,,,,,,,,,,,,,,,,,,,,,,,,,,,,,,,,,
,,5e86972528aacd2d57010c07,2024-02-22_04h24.46.761,kallum_motion_pilot,2023.2.2,Win32,13.33333333,5e86972528aacd2d57010c07,65d6bb0e977760de756971f7,65d6bdec994906782921cdac,0.0498,0.0498,1,81,243,161,1,fiveseven,,,,,,,,,,,,,,,,,,,,,,,,,,,,,,,,,,,,,,,,,,,,,,,,,,,,,,,,,,,,,,,,,,,,,,,,,,,,,,,,,,,,,,,,,,,,,,,,,,,,,,,,,,,,,,,,,,,,,,,,,,,,,,,,,,,,,,,,,
,,5e86972528aacd2d57010c07,2024-02-22_04h24.46.761,kallum_motion_pilot,2023.2.2,Win32,13.33333333,5e86972528aacd2d57010c07,65d6bb0e977760de756971f7,65d6bdec994906782921cdac,0.0499,0.05,1,82,244,99,1,sixeight,,,,,,,,,,,,,,,,,,,,,,,,,,,,,,,,,,,,,,,,,,,,,,,,,,,,,,,,,,,,,,,,,,,,,,,,,,,,,,,,,,,,,,,,,,,,,,,,,,,,,,,,,,,,,,,,,,,,,,,,,,,,,,,,,,,,,,,,,
,,5e86972528aacd2d57010c07,2024-02-22_04h24.46.761,kallum_motion_pilot,2023.2.2,Win32,13.33333333,5e86972528aacd2d57010c07,65d6bb0e977760de756971f7,65d6bdec994906782921cdac,0.05,0.0501,1,83,245,40,1,onetwo,,,,,,,,,,,,,,,,,,,,,,,,,,,,,,,,,,,,,,,,,,,,,,,,,,,,,,,,,,,,,,,,,,,,,,,,,,,,,,,,,,,,,,,,,,,,,,,,,,,,,,,,,,,,,,,,,,,,,,,,,,,,,,,,,,,,,,,,,
,,5e86972528aacd2d57010c07,2024-02-22_04h24.46.761,kallum_motion_pilot,2023.2.2,Win32,13.33333333,5e86972528aacd2d57010c07,65d6bb0e977760de756971f7,65d6bdec994906782921cdac,0.0501,0.0502,1,84,246,49,1,onethree,,,,,,,,,,,,,,,,,,,,,,,,,,,,,,,,,,,,,,,,,,,,,,,,,,,,,,,,,,,,,,,,,,,,,,,,,,,,,,,,,,,,,,,,,,,,,,,,,,,,,,,,,,,,,,,,,,,,,,,,,,,,,,,,,,,,,,,,,
,,5e86972528aacd2d57010c07,2024-02-22_04h24.46.761,kallum_motion_pilot,2023.2.2,Win32,13.33333333,5e86972528aacd2d57010c07,65d6bb0e977760de756971f7,65d6bdec994906782921cdac,0.0503,0.0503,1,85,247,66,1,twoone,,,,,,,,,,,,,,,,,,,,,,,,,,,,,,,,,,,,,,,,,,,,,,,,,,,,,,,,,,,,,,,,,,,,,,,,,,,,,,,,,,,,,,,,,,,,,,,,,,,,,,,,,,,,,,,,,,,,,,,,,,,,,,,,,,,,,,,,,
,,5e86972528aacd2d57010c07,2024-02-22_04h24.46.761,kallum_motion_pilot,2023.2.2,Win32,13.33333333,5e86972528aacd2d57010c07,65d6bb0e977760de756971f7,65d6bdec994906782921cdac,0.0504,0.0504,1,86,248,85,1,seveneight,,,,,,,,,,,,,,,,,,,,,,,,,,,,,,,,,,,,,,,,,,,,,,,,,,,,,,,,,,,,,,,,,,,,,,,,,,,,,,,,,,,,,,,,,,,,,,,,,,,,,,,,,,,,,,,,,,,,,,,,,,,,,,,,,,,,,,,,,
,,5e86972528aacd2d57010c07,2024-02-22_04h24.46.761,kallum_motion_pilot,2023.2.2,Win32,13.33333333,5e86972528aacd2d57010c07,65d6bb0e977760de756971f7,65d6bdec994906782921cdac,0.0505,0.0506,1,87,249,155,1,sixeight,,,,,,,,,,,,,,,,,,,,,,,,,,,,,,,,,,,,,,,,,,,,,,,,,,,,,,,,,,,,,,,,,,,,,,,,,,,,,,,,,,,,,,,,,,,,,,,,,,,,,,,,,,,,,,,,,,,,,,,,,,,,,,,,,,,,,,,,,
,,5e86972528aacd2d57010c07,2024-02-22_04h24.46.761,kallum_motion_pilot,2023.2.2,Win32,13.33333333,5e86972528aacd2d57010c07,65d6bb0e977760de756971f7,65d6bdec994906782921cdac,0.0507,0.0507,1,88,250,19,1,twofour,,,,,,,,,,,,,,,,,,,,,,,,,,,,,,,,,,,,,,,,,,,,,,,,,,,,,,,,,,,,,,,,,,,,,,,,,,,,,,,,,,,,,,,,,,,,,,,,,,,,,,,,,,,,,,,,,,,,,,,,,,,,,,,,,,,,,,,,,
,,5e86972528aacd2d57010c07,2024-02-22_04h24.46.761,kallum_motion_pilot,2023.2.2,Win32,13.33333333,5e86972528aacd2d57010c07,65d6bb0e977760de756971f7,65d6bdec994906782921cdac,0.0508,0.0508,1,89,251,43,1,twofour,,,,,,,,,,,,,,,,,,,,,,,,,,,,,,,,,,,,,,,,,,,,,,,,,,,,,,,,,,,,,,,,,,,,,,,,,,,,,,,,,,,,,,,,,,,,,,,,,,,,,,,,,,,,,,,,,,,,,,,,,,,,,,,,,,,,,,,,,
,,5e86972528aacd2d57010c07,2024-02-22_04h24.46.761,kallum_motion_pilot,2023.2.2,Win32,13.33333333,5e86972528aacd2d57010c07,65d6bb0e977760de756971f7,65d6bdec994906782921cdac,0.0508,0.0509,1,90,252,45,1,threefour,,,,,,,,,,,,,,,,,,,,,,,,,,,,,,,,,,,,,,,,,,,,,,,,,,,,,,,,,,,,,,,,,,,,,,,,,,,,,,,,,,,,,,,,,,,,,,,,,,,,,,,,,,,,,,,,,,,,,,,,,,,,,,,,,,,,,,,,,
,,5e86972528aacd2d57010c07,2024-02-22_04h24.46.761,kallum_motion_pilot,2023.2.2,Win32,13.33333333,5e86972528aacd2d57010c07,65d6bb0e977760de756971f7,65d6bdec994906782921cdac,0.051,0.051,1,91,253,80,1,fivesix,,,,,,,,,,,,,,,,,,,,,,,,,,,,,,,,,,,,,,,,,,,,,,,,,,,,,,,,,,,,,,,,,,,,,,,,,,,,,,,,,,,,,,,,,,,,,,,,,,,,,,,,,,,,,,,,,,,,,,,,,,,,,,,,,,,,,,,,,
,,5e86972528aacd2d57010c07,2024-02-22_04h24.46.761,kallum_motion_pilot,2023.2.2,Win32,13.33333333,5e86972528aacd2d57010c07,65d6bb0e977760de756971f7,65d6bdec994906782921cdac,0.0511,0.0511,1,92,254,79,1,eightseven,,,,,,,,,,,,,,,,,,,,,,,,,,,,,,,,,,,,,,,,,,,,,,,,,,,,,,,,,,,,,,,,,,,,,,,,,,,,,,,,,,,,,,,,,,,,,,,,,,,,,,,,,,,,,,,,,,,,,,,,,,,,,,,,,,,,,,,,,
,,5e86972528aacd2d57010c07,2024-02-22_04h24.46.761,kallum_motion_pilot,2023.2.2,Win32,13.33333333,5e86972528aacd2d57010c07,65d6bb0e977760de756971f7,65d6bdec994906782921cdac,0.0513,0.0513,1,93,255,100,1,sevenfive,,,,,,,,,,,,,,,,,,,,,,,,,,,,,,,,,,,,,,,,,,,,,,,,,,,,,,,,,,,,,,,,,,,,,,,,,,,,,,,,,,,,,,,,,,,,,,,,,,,,,,,,,,,,,,,,,,,,,,,,,,,,,,,,,,,,,,,,,
,,5e86972528aacd2d57010c07,2024-02-22_04h24.46.761,kallum_motion_pilot,2023.2.2,Win32,13.33333333,5e86972528aacd2d57010c07,65d6bb0e977760de756971f7,65d6bdec994906782921cdac,0.0514,0.0514,1,94,256,104,1,fivesix,,,,,,,,,,,,,,,,,,,,,,,,,,,,,,,,,,,,,,,,,,,,,,,,,,,,,,,,,,,,,,,,,,,,,,,,,,,,,,,,,,,,,,,,,,,,,,,,,,,,,,,,,,,,,,,,,,,,,,,,,,,,,,,,,,,,,,,,,
,,5e86972528aacd2d57010c07,2024-02-22_04h24.46.761,kallum_motion_pilot,2023.2.2,Win32,13.33333333,5e86972528aacd2d57010c07,65d6bb0e977760de756971f7,65d6bdec994906782921cdac,0.0515,0.0516,1,95,257,42,1,twoone,,,,,,,,,,,,,,,,,,,,,,,,,,,,,,,,,,,,,,,,,,,,,,,,,,,,,,,,,,,,,,,,,,,,,,,,,,,,,,,,,,,,,,,,,,,,,,,,,,,,,,,,,,,,,,,,,,,,,,,,,,,,,,,,,,,,,,,,,
,,5e86972528aacd2d57010c07,2024-02-22_04h24.46.761,kallum_motion_pilot,2023.2.2,Win32,13.33333333,5e86972528aacd2d57010c07,65d6bb0e977760de756971f7,65d6bdec994906782921cdac,0.0516,0.0517,1,96,258,96,1,fivesix,,,,,,,,,,,,,,,,,,,,,,,,,,,,,,,,,,,,,,,,,,,,,,,,,,,,,,,,,,,,,,,,,,,,,,,,,,,,,,,,,,,,,,,,,,,,,,,,,,,,,,,,,,,,,,,,,,,,,,,,,,,,,,,,,,,,,,,,,
,,5e86972528aacd2d57010c07,2024-02-22_04h24.46.761,kallum_motion_pilot,2023.2.2,Win32,13.33333333,5e86972528aacd2d57010c07,65d6bb0e977760de756971f7,65d6bdec994906782921cdac,0.0517,0.0518,1,97,259,41,1,onethree,,,,,,,,,,,,,,,,,,,,,,,,,,,,,,,,,,,,,,,,,,,,,,,,,,,,,,,,,,,,,,,,,,,,,,,,,,,,,,,,,,,,,,,,,,,,,,,,,,,,,,,,,,,,,,,,,,,,,,,,,,,,,,,,,,,,,,,,,
,,5e86972528aacd2d57010c07,2024-02-22_04h24.46.761,kallum_motion_pilot,2023.2.2,Win32,13.33333333,5e86972528aacd2d57010c07,65d6bb0e977760de756971f7,65d6bdec994906782921cdac,0.0519,0.0519,1,98,260,30,1,fourtwo,,,,,,,,,,,,,,,,,,,,,,,,,,,,,,,,,,,,,,,,,,,,,,,,,,,,,,,,,,,,,,,,,,,,,,,,,,,,,,,,,,,,,,,,,,,,,,,,,,,,,,,,,,,,,,,,,,,,,,,,,,,,,,,,,,,,,,,,,
,,5e86972528aacd2d57010c07,2024-02-22_04h24.46.761,kallum_motion_pilot,2023.2.2,Win32,13.33333333,5e86972528aacd2d57010c07,65d6bb0e977760de756971f7,65d6bdec994906782921cdac,0.0519,0.052,1,99,261,67,1,twofour,,,,,,,,,,,,,,,,,,,,,,,,,,,,,,,,,,,,,,,,,,,,,,,,,,,,,,,,,,,,,,,,,,,,,,,,,,,,,,,,,,,,,,,,,,,,,,,,,,,,,,,,,,,,,,,,,,,,,,,,,,,,,,,,,,,,,,,,,
,,5e86972528aacd2d57010c07,2024-02-22_04h24.46.761,kallum_motion_pilot,2023.2.2,Win32,13.33333333,5e86972528aacd2d57010c07,65d6bb0e977760de756971f7,65d6bdec994906782921cdac,0.0521,0.0522,1,100,262,159,1,eightseven,,,,,,,,,,,,,,,,,,,,,,,,,,,,,,,,,,,,,,,,,,,,,,,,,,,,,,,,,,,,,,,,,,,,,,,,,,,,,,,,,,,,,,,,,,,,,,,,,,,,,,,,,,,,,,,,,,,,,,,,,,,,,,,,,,,,,,,,,
,,5e86972528aacd2d57010c07,2024-02-22_04h24.46.761,kallum_motion_pilot,2023.2.2,Win32,13.33333333,5e86972528aacd2d57010c07,65d6bb0e977760de756971f7,65d6bdec994906782921cdac,0.0522,0.0523,1,101,263,158,1,eightsix,,,,,,,,,,,,,,,,,,,,,,,,,,,,,,,,,,,,,,,,,,,,,,,,,,,,,,,,,,,,,,,,,,,,,,,,,,,,,,,,,,,,,,,,,,,,,,,,,,,,,,,,,,,,,,,,,,,,,,,,,,,,,,,,,,,,,,,,,
,,5e86972528aacd2d57010c07,2024-02-22_04h24.46.761,kallum_motion_pilot,2023.2.2,Win32,13.33333333,5e86972528aacd2d57010c07,65d6bb0e977760de756971f7,65d6bdec994906782921cdac,0.0523,0.0524,1,102,264,63,1,fourthree,,,,,,,,,,,,,,,,,,,,,,,,,,,,,,,,,,,,,,,,,,,,,,,,,,,,,,,,,,,,,,,,,,,,,,,,,,,,,,,,,,,,,,,,,,,,,,,,,,,,,,,,,,,,,,,,,,,,,,,,,,,,,,,,,,,,,,,,,
,,5e86972528aacd2d57010c07,2024-02-22_04h24.46.761,kallum_motion_pilot,2023.2.2,Win32,13.33333333,5e86972528aacd2d57010c07,65d6bb0e977760de756971f7,65d6bdec994906782921cdac,0.0524,0.0526,1,103,265,62,1,fourtwo,,,,,,,,,,,,,,,,,,,,,,,,,,,,,,,,,,,,,,,,,,,,,,,,,,,,,,,,,,,,,,,,,,,,,,,,,,,,,,,,,,,,,,,,,,,,,,,,,,,,,,,,,,,,,,,,,,,,,,,,,,,,,,,,,,,,,,,,,
,,5e86972528aacd2d57010c07,2024-02-22_04h24.46.761,kallum_motion_pilot,2023.2.2,Win32,13.33333333,5e86972528aacd2d57010c07,65d6bb0e977760de756971f7,65d6bdec994906782921cdac,0.0527,0.0527,1,104,266,143,1,eightseven,,,,,,,,,,,,,,,,,,,,,,,,,,,,,,,,,,,,,,,,,,,,,,,,,,,,,,,,,,,,,,,,,,,,,,,,,,,,,,,,,,,,,,,,,,,,,,,,,,,,,,,,,,,,,,,,,,,,,,,,,,,,,,,,,,,,,,,,,
,,5e86972528aacd2d57010c07,2024-02-22_04h24.46.761,kallum_motion_pilot,2023.2.2,Win32,13.33333333,5e86972528aacd2d57010c07,65d6bb0e977760de756971f7,65d6bdec994906782921cdac,0.0528,0.0528,1,105,267,47,1,fourthree,,,,,,,,,,,,,,,,,,,,,,,,,,,,,,,,,,,,,,,,,,,,,,,,,,,,,,,,,,,,,,,,,,,,,,,,,,,,,,,,,,,,,,,,,,,,,,,,,,,,,,,,,,,,,,,,,,,,,,,,,,,,,,,,,,,,,,,,,
,,5e86972528aacd2d57010c07,2024-02-22_04h24.46.761,kallum_motion_pilot,2023.2.2,Win32,13.33333333,5e86972528aacd2d57010c07,65d6bb0e977760de756971f7,65d6bdec994906782921cdac,0.0528,0.0529,1,106,268,102,1,eightsix,,,,,,,,,,,,,,,,,,,,,,,,,,,,,,,,,,,,,,,,,,,,,,,,,,,,,,,,,,,,,,,,,,,,,,,,,,,,,,,,,,,,,,,,,,,,,,,,,,,,,,,,,,,,,,,,,,,,,,,,,,,,,,,,,,,,,,,,,
,,5e86972528aacd2d57010c07,2024-02-22_04h24.46.761,kallum_motion_pilot,2023.2.2,Win32,13.33333333,5e86972528aacd2d57010c07,65d6bb0e977760de756971f7,65d6bdec994906782921cdac,0.053,0.053,1,107,269,122,1,sixfive,,,,,,,,,,,,,,,,,,,,,,,,,,,,,,,,,,,,,,,,,,,,,,,,,,,,,,,,,,,,,,,,,,,,,,,,,,,,,,,,,,,,,,,,,,,,,,,,,,,,,,,,,,,,,,,,,,,,,,,,,,,,,,,,,,,,,,,,,
,,5e86972528aacd2d57010c07,2024-02-22_04h24.46.761,kallum_motion_pilot,2023.2.2,Win32,13.33333333,5e86972528aacd2d57010c07,65d6bb0e977760de756971f7,65d6bdec994906782921cdac,0.0531,0.0532,1,108,270,121,1,fiveseven,,,,,,,,,,,,,,,,,,,,,,,,,,,,,,,,,,,,,,,,,,,,,,,,,,,,,,,,,,,,,,,,,,,,,,,,,,,,,,,,,,,,,,,,,,,,,,,,,,,,,,,,,,,,,,,,,,,,,,,,,,,,,,,,,,,,,,,,,
,,5e86972528aacd2d57010c07,2024-02-22_04h24.46.761,kallum_motion_pilot,2023.2.2,Win32,13.33333333,5e86972528aacd2d57010c07,65d6bb0e977760de756971f7,65d6bdec994906782921cdac,0.0532,0.0533,1,109,271,31,1,fourthree,,,,,,,,,,,,,,,,,,,,,,,,,,,,,,,,,,,,,,,,,,,,,,,,,,,,,,,,,,,,,,,,,,,,,,,,,,,,,,,,,,,,,,,,,,,,,,,,,,,,,,,,,,,,,,,,,,,,,,,,,,,,,,,,,,,,,,,,,
,,5e86972528aacd2d57010c07,2024-02-22_04h24.46.761,kallum_motion_pilot,2023.2.2,Win32,13.33333333,5e86972528aacd2d57010c07,65d6bb0e977760de756971f7,65d6bdec994906782921cdac,0.0533,0.0534,1,110,272,22,1,fourtwo,,,,,,,,,,,,,,,,,,,,,,,,,,,,,,,,,,,,,,,,,,,,,,,,,,,,,,,,,,,,,,,,,,,,,,,,,,,,,,,,,,,,,,,,,,,,,,,,,,,,,,,,,,,,,,,,,,,,,,,,,,,,,,,,,,,,,,,,,
,,5e86972528aacd2d57010c07,2024-02-22_04h24.46.761,kallum_motion_pilot,2023.2.2,Win32,13.33333333,5e86972528aacd2d57010c07,65d6bb0e977760de756971f7,65d6bdec994906782921cdac,0.0535,0.0535,1,111,273,68,1,threeone,,,,,,,,,,,,,,,,,,,,,,,,,,,,,,,,,,,,,,,,,,,,,,,,,,,,,,,,,,,,,,,,,,,,,,,,,,,,,,,,,,,,,,,,,,,,,,,,,,,,,,,,,,,,,,,,,,,,,,,,,,,,,,,,,,,,,,,,,
,,5e86972528aacd2d57010c07,2024-02-22_04h24.46.761,kallum_motion_pilot,2023.2.2,Win32,13.33333333,5e86972528aacd2d57010c07,65d6bb0e977760de756971f7,65d6bdec994906782921cdac,0.0536,0.0537,1,112,274,73,1,onethree,,,,,,,,,,,,,,,,,,,,,,,,,,,,,,,,,,,,,,,,,,,,,,,,,,,,,,,,,,,,,,,,,,,,,,,,,,,,,,,,,,,,,,,,,,,,,,,,,,,,,,,,,,,,,,,,,,,,,,,,,,,,,,,,,,,,,,,,,
,,5e86972528aacd2d57010c07,2024-02-22_04h24.46.761,kallum_motion_pilot,2023.2.2,Win32,13.33333333,5e86972528aacd2d57010c07,65d6bb0e977760de756971f7,65d6bdec994906782921cdac,0.0537,0.0538,1,113,275,57,1,onethree,,,,,,,,,,,,,,,,,,,,,,,,,,,,,,,,,,,,,,,,,,,,,,,,,,,,,,,,,,,,,,,,,,,,,,,,,,,,,,,,,,,,,,,,,,,,,,,,,,,,,,,,,,,,,,,,,,,,,,,,,,,,,,,,,,,,,,,,,
,,5e86972528aacd2d57010c07,2024-02-22_04h24.46.761,kallum_motion_pilot,2023.2.2,Win32,13.33333333,5e86972528aacd2d57010c07,65d6bb0e977760de756971f7,65d6bdec994906782921cdac,0.0538,0.0539,1,114,276,133,1,seveneight,,,,,,,,,,,,,,,,,,,,,,,,,,,,,,,,,,,,,,,,,,,,,,,,,,,,,,,,,,,,,,,,,,,,,,,,,,,,,,,,,,,,,,,,,,,,,,,,,,,,,,,,,,,,,,,,,,,,,,,,,,,,,,,,,,,,,,,,,
,,5e86972528aacd2d57010c07,2024-02-22_04h24.46.761,kallum_motion_pilot,2023.2.2,Win32,13.33333333,5e86972528aacd2d57010c07,65d6bb0e977760de756971f7,65d6bdec994906782921cdac,0.0539,0.054,1,115,277,4,1,threeone,,,,,,,,,,,,,,,,,,,,,,,,,,,,,,,,,,,,,,,,,,,,,,,,,,,,,,,,,,,,,,,,,,,,,,,,,,,,,,,,,,,,,,,,,,,,,,,,,,,,,,,,,,,,,,,,,,,,,,,,,,,,,,,,,,,,,,,,,
