startup.started,startup.stopped,Prolific ID*,date,expName,psychopyVersion,OS,frameRate,participant,study_id,session,stimpositions.started,stimpositions.stopped,hardcoded_stimulus_positions.thisRepN,hardcoded_stimulus_positions.thisTrialN,hardcoded_stimulus_positions.thisN,hardcoded_stimulus_positions.thisIndex,hardcoded_stimulus_positions.ran,StimulusPos,stimorientation.started,stimorientation.stopped,prac_stimorientation_import_loop.thisRepN,prac_stimorientation_import_loop.thisTrialN,prac_stimorientation_import_loop.thisN,prac_stimorientation_import_loop.thisIndex,prac_stimorientation_import_loop.ran,Stimorientation,welcome_instr.started,welcome_instr.stopped,key_resp.keys,key_resp.rt,key_resp.duration,response_steppedout_1.started,response_steppedout_1.stopped,key_resp_20.keys,key_resp_20.rt,key_resp_20.duration,response_steppedout_2.started,response_steppedout_2.stopped,key_resp_19.keys,key_resp_19.rt,key_resp_19.duration,stim_response_instr.started,stim_response_instr.stopped,key_resp_15.keys,key_resp_15.rt,key_resp_15.duration,direction_instr_2.started,direction_instr_2.stopped,key_resp_9.keys,key_resp_9.rt,key_resp_9.duration,instr_prac.started,instr_prac.stopped,key_resp_10.keys,key_resp_10.rt,key_resp_10.duration,Stim1_display_prac.started,Stim1_display_prac.stopped,Ecc,Circle1_ori,Circle2_ori,response_prac.started,similarity,response_time,response_prac.stopped,mouse_5.x,mouse_5.y,mouse_5.leftButton,mouse_5.midButton,mouse_5.rightButton,mouse_5.clicked_name,responseprac_feedback.started,responseprac_feedback.stopped,summary2_prac.started,summary2_prac.stopped,mouse_6.x,mouse_6.y,mouse_6.leftButton,mouse_6.midButton,mouse_6.rightButton,mouse_6.clicked_name,duringprac.thisRepN,duringprac.thisTrialN,duringprac.thisN,duringprac.thisIndex,duringprac.ran,begin.started,begin.stopped,key_resp_22.keys,key_resp_22.rt,key_resp_22.duration,Stim1_display.started,Stim1_display.stopped,circle1_ori,circle2_ori,circle1_SF,circle2_SF,response.started,response.stopped,mouse.x,mouse.y,mouse.leftButton,mouse.midButton,mouse.rightButton,mouse.clicked_name,trialnumber,double_pass.thisRepN,double_pass.thisTrialN,double_pass.thisN,double_pass.thisIndex,double_pass.ran,double_pass.order,main_trial.thisRepN,main_trial.thisTrialN,main_trial.thisN,main_trial.thisIndex,main_trial.ran,main_trial.order,Trial_Counter,Catch,Frequencies,response_2.started,response_2.stopped,mouse_2.x,mouse_2.y,mouse_2.leftButton,mouse_2.midButton,mouse_2.rightButton,mouse_2.clicked_name,special_trial.started,special_trial.stopped,catch_1.started,catch_1.stopped,mouse_3.x,mouse_3.y,mouse_3.leftButton,mouse_3.midButton,mouse_3.rightButton,catchresponse,catchnumber,response_time_catch,response_sum.started,response_sum.stopped,mouse_11.x,mouse_11.y,mouse_11.leftButton,mouse_11.midButton,mouse_11.rightButton,flip_presentation_sequence_for_double_pass.started,flip_presentation_sequence_for_double_pass.stopped,goodbye.started,goodbye.stopped,key_resp_3.keys,key_resp_3.rt,key_resp_3.duration
0.0002,0.0002,5e8a66381afb2c714058b57b,2024-02-19_03h13.34.191,kallum_motion_pilot,2023.2.2,Win32,59.88023952,5e8a66381afb2c714058b57b,65d2b6c8f2eece985d8e374c,65d2b93a2a90e977bb6cd305,,,,,,,,,,,,,,,,,,,,,,,,,,,,,,,,,,,,,,,,,,,,,,,,,,,,,,,,,,,,,,,,,,,,,,,,,,,,,,,,,,,,,,,,,,,,,,,,,,,,,,,,,,,,,,,,,,,,,,,,,,,,,,,,,,,,,,,,,,,,,,,,,
,,5e8a66381afb2c714058b57b,2024-02-19_03h13.34.191,kallum_motion_pilot,2023.2.2,Win32,59.88023952,5e8a66381afb2c714058b57b,65d2b6c8f2eece985d8e374c,65d2b93a2a90e977bb6cd305,0.0168,0.0169,0,0,0,83,1,sixeight,,,,,,,,,,,,,,,,,,,,,,,,,,,,,,,,,,,,,,,,,,,,,,,,,,,,,,,,,,,,,,,,,,,,,,,,,,,,,,,,,,,,,,,,,,,,,,,,,,,,,,,,,,,,,,,,,,,,,,,,,,,,,,,,,,,,,,,,,
,,5e8a66381afb2c714058b57b,2024-02-19_03h13.34.191,kallum_motion_pilot,2023.2.2,Win32,59.88023952,5e8a66381afb2c714058b57b,65d2b6c8f2eece985d8e374c,65d2b93a2a90e977bb6cd305,0.017,0.0171,0,1,1,138,1,sixfive,,,,,,,,,,,,,,,,,,,,,,,,,,,,,,,,,,,,,,,,,,,,,,,,,,,,,,,,,,,,,,,,,,,,,,,,,,,,,,,,,,,,,,,,,,,,,,,,,,,,,,,,,,,,,,,,,,,,,,,,,,,,,,,,,,,,,,,,,
,,5e8a66381afb2c714058b57b,2024-02-19_03h13.34.191,kallum_motion_pilot,2023.2.2,Win32,59.88023952,5e8a66381afb2c714058b57b,65d2b6c8f2eece985d8e374c,65d2b93a2a90e977bb6cd305,0.0172,0.0172,0,2,2,8,1,onetwo,,,,,,,,,,,,,,,,,,,,,,,,,,,,,,,,,,,,,,,,,,,,,,,,,,,,,,,,,,,,,,,,,,,,,,,,,,,,,,,,,,,,,,,,,,,,,,,,,,,,,,,,,,,,,,,,,,,,,,,,,,,,,,,,,,,,,,,,,
,,5e8a66381afb2c714058b57b,2024-02-19_03h13.34.191,kallum_motion_pilot,2023.2.2,Win32,59.88023952,5e8a66381afb2c714058b57b,65d2b6c8f2eece985d8e374c,65d2b93a2a90e977bb6cd305,0.0174,0.0174,0,3,3,57,1,onethree,,,,,,,,,,,,,,,,,,,,,,,,,,,,,,,,,,,,,,,,,,,,,,,,,,,,,,,,,,,,,,,,,,,,,,,,,,,,,,,,,,,,,,,,,,,,,,,,,,,,,,,,,,,,,,,,,,,,,,,,,,,,,,,,,,,,,,,,,
,,5e8a66381afb2c714058b57b,2024-02-19_03h13.34.191,kallum_motion_pilot,2023.2.2,Win32,59.88023952,5e8a66381afb2c714058b57b,65d2b6c8f2eece985d8e374c,65d2b93a2a90e977bb6cd305,0.0175,0.0175,0,4,4,30,1,fourtwo,,,,,,,,,,,,,,,,,,,,,,,,,,,,,,,,,,,,,,,,,,,,,,,,,,,,,,,,,,,,,,,,,,,,,,,,,,,,,,,,,,,,,,,,,,,,,,,,,,,,,,,,,,,,,,,,,,,,,,,,,,,,,,,,,,,,,,,,,
,,5e8a66381afb2c714058b57b,2024-02-19_03h13.34.191,kallum_motion_pilot,2023.2.2,Win32,59.88023952,5e8a66381afb2c714058b57b,65d2b6c8f2eece985d8e374c,65d2b93a2a90e977bb6cd305,0.0175,0.0176,0,5,5,52,1,threeone,,,,,,,,,,,,,,,,,,,,,,,,,,,,,,,,,,,,,,,,,,,,,,,,,,,,,,,,,,,,,,,,,,,,,,,,,,,,,,,,,,,,,,,,,,,,,,,,,,,,,,,,,,,,,,,,,,,,,,,,,,,,,,,,,,,,,,,,,
,,5e8a66381afb2c714058b57b,2024-02-19_03h13.34.191,kallum_motion_pilot,2023.2.2,Win32,59.88023952,5e8a66381afb2c714058b57b,65d2b6c8f2eece985d8e374c,65d2b93a2a90e977bb6cd305,0.0177,0.0177,0,6,6,51,1,twofour,,,,,,,,,,,,,,,,,,,,,,,,,,,,,,,,,,,,,,,,,,,,,,,,,,,,,,,,,,,,,,,,,,,,,,,,,,,,,,,,,,,,,,,,,,,,,,,,,,,,,,,,,,,,,,,,,,,,,,,,,,,,,,,,,,,,,,,,,
,,5e8a66381afb2c714058b57b,2024-02-19_03h13.34.191,kallum_motion_pilot,2023.2.2,Win32,59.88023952,5e8a66381afb2c714058b57b,65d2b6c8f2eece985d8e374c,65d2b93a2a90e977bb6cd305,0.0178,0.0182,0,7,7,121,1,fiveseven,,,,,,,,,,,,,,,,,,,,,,,,,,,,,,,,,,,,,,,,,,,,,,,,,,,,,,,,,,,,,,,,,,,,,,,,,,,,,,,,,,,,,,,,,,,,,,,,,,,,,,,,,,,,,,,,,,,,,,,,,,,,,,,,,,,,,,,,,
,,5e8a66381afb2c714058b57b,2024-02-19_03h13.34.191,kallum_motion_pilot,2023.2.2,Win32,59.88023952,5e8a66381afb2c714058b57b,65d2b6c8f2eece985d8e374c,65d2b93a2a90e977bb6cd305,0.0183,0.0183,0,8,8,66,1,twoone,,,,,,,,,,,,,,,,,,,,,,,,,,,,,,,,,,,,,,,,,,,,,,,,,,,,,,,,,,,,,,,,,,,,,,,,,,,,,,,,,,,,,,,,,,,,,,,,,,,,,,,,,,,,,,,,,,,,,,,,,,,,,,,,,,,,,,,,,
,,5e8a66381afb2c714058b57b,2024-02-19_03h13.34.191,kallum_motion_pilot,2023.2.2,Win32,59.88023952,5e8a66381afb2c714058b57b,65d2b6c8f2eece985d8e374c,65d2b93a2a90e977bb6cd305,0.0185,0.0185,0,9,9,91,1,sixeight,,,,,,,,,,,,,,,,,,,,,,,,,,,,,,,,,,,,,,,,,,,,,,,,,,,,,,,,,,,,,,,,,,,,,,,,,,,,,,,,,,,,,,,,,,,,,,,,,,,,,,,,,,,,,,,,,,,,,,,,,,,,,,,,,,,,,,,,,
,,5e8a66381afb2c714058b57b,2024-02-19_03h13.34.191,kallum_motion_pilot,2023.2.2,Win32,59.88023952,5e8a66381afb2c714058b57b,65d2b6c8f2eece985d8e374c,65d2b93a2a90e977bb6cd305,0.0186,0.0186,0,10,10,143,1,eightseven,,,,,,,,,,,,,,,,,,,,,,,,,,,,,,,,,,,,,,,,,,,,,,,,,,,,,,,,,,,,,,,,,,,,,,,,,,,,,,,,,,,,,,,,,,,,,,,,,,,,,,,,,,,,,,,,,,,,,,,,,,,,,,,,,,,,,,,,,
,,5e8a66381afb2c714058b57b,2024-02-19_03h13.34.191,kallum_motion_pilot,2023.2.2,Win32,59.88023952,5e8a66381afb2c714058b57b,65d2b6c8f2eece985d8e374c,65d2b93a2a90e977bb6cd305,0.0186,0.0186,0,11,11,124,1,sevenfive,,,,,,,,,,,,,,,,,,,,,,,,,,,,,,,,,,,,,,,,,,,,,,,,,,,,,,,,,,,,,,,,,,,,,,,,,,,,,,,,,,,,,,,,,,,,,,,,,,,,,,,,,,,,,,,,,,,,,,,,,,,,,,,,,,,,,,,,,
,,5e8a66381afb2c714058b57b,2024-02-19_03h13.34.191,kallum_motion_pilot,2023.2.2,Win32,59.88023952,5e8a66381afb2c714058b57b,65d2b6c8f2eece985d8e374c,65d2b93a2a90e977bb6cd305,0.0187,0.0187,0,12,12,84,1,sevenfive,,,,,,,,,,,,,,,,,,,,,,,,,,,,,,,,,,,,,,,,,,,,,,,,,,,,,,,,,,,,,,,,,,,,,,,,,,,,,,,,,,,,,,,,,,,,,,,,,,,,,,,,,,,,,,,,,,,,,,,,,,,,,,,,,,,,,,,,,
,,5e8a66381afb2c714058b57b,2024-02-19_03h13.34.191,kallum_motion_pilot,2023.2.2,Win32,59.88023952,5e8a66381afb2c714058b57b,65d2b6c8f2eece985d8e374c,65d2b93a2a90e977bb6cd305,0.0188,0.0188,0,13,13,42,1,twoone,,,,,,,,,,,,,,,,,,,,,,,,,,,,,,,,,,,,,,,,,,,,,,,,,,,,,,,,,,,,,,,,,,,,,,,,,,,,,,,,,,,,,,,,,,,,,,,,,,,,,,,,,,,,,,,,,,,,,,,,,,,,,,,,,,,,,,,,,
,,5e8a66381afb2c714058b57b,2024-02-19_03h13.34.191,kallum_motion_pilot,2023.2.2,Win32,59.88023952,5e8a66381afb2c714058b57b,65d2b6c8f2eece985d8e374c,65d2b93a2a90e977bb6cd305,0.0189,0.0189,0,14,14,65,1,onethree,,,,,,,,,,,,,,,,,,,,,,,,,,,,,,,,,,,,,,,,,,,,,,,,,,,,,,,,,,,,,,,,,,,,,,,,,,,,,,,,,,,,,,,,,,,,,,,,,,,,,,,,,,,,,,,,,,,,,,,,,,,,,,,,,,,,,,,,,
,,5e8a66381afb2c714058b57b,2024-02-19_03h13.34.191,kallum_motion_pilot,2023.2.2,Win32,59.88023952,5e8a66381afb2c714058b57b,65d2b6c8f2eece985d8e374c,65d2b93a2a90e977bb6cd305,0.019,0.019,0,15,15,137,1,fiveseven,,,,,,,,,,,,,,,,,,,,,,,,,,,,,,,,,,,,,,,,,,,,,,,,,,,,,,,,,,,,,,,,,,,,,,,,,,,,,,,,,,,,,,,,,,,,,,,,,,,,,,,,,,,,,,,,,,,,,,,,,,,,,,,,,,,,,,,,,
,,5e8a66381afb2c714058b57b,2024-02-19_03h13.34.191,kallum_motion_pilot,2023.2.2,Win32,59.88023952,5e8a66381afb2c714058b57b,65d2b6c8f2eece985d8e374c,65d2b93a2a90e977bb6cd305,0.0191,0.0191,0,16,16,149,1,seveneight,,,,,,,,,,,,,,,,,,,,,,,,,,,,,,,,,,,,,,,,,,,,,,,,,,,,,,,,,,,,,,,,,,,,,,,,,,,,,,,,,,,,,,,,,,,,,,,,,,,,,,,,,,,,,,,,,,,,,,,,,,,,,,,,,,,,,,,,,
,,5e8a66381afb2c714058b57b,2024-02-19_03h13.34.191,kallum_motion_pilot,2023.2.2,Win32,59.88023952,5e8a66381afb2c714058b57b,65d2b6c8f2eece985d8e374c,65d2b93a2a90e977bb6cd305,0.0192,0.0192,0,17,17,103,1,eightseven,,,,,,,,,,,,,,,,,,,,,,,,,,,,,,,,,,,,,,,,,,,,,,,,,,,,,,,,,,,,,,,,,,,,,,,,,,,,,,,,,,,,,,,,,,,,,,,,,,,,,,,,,,,,,,,,,,,,,,,,,,,,,,,,,,,,,,,,,
,,5e8a66381afb2c714058b57b,2024-02-19_03h13.34.191,kallum_motion_pilot,2023.2.2,Win32,59.88023952,5e8a66381afb2c714058b57b,65d2b6c8f2eece985d8e374c,65d2b93a2a90e977bb6cd305,0.0192,0.0192,0,18,18,22,1,fourtwo,,,,,,,,,,,,,,,,,,,,,,,,,,,,,,,,,,,,,,,,,,,,,,,,,,,,,,,,,,,,,,,,,,,,,,,,,,,,,,,,,,,,,,,,,,,,,,,,,,,,,,,,,,,,,,,,,,,,,,,,,,,,,,,,,,,,,,,,,
,,5e8a66381afb2c714058b57b,2024-02-19_03h13.34.191,kallum_motion_pilot,2023.2.2,Win32,59.88023952,5e8a66381afb2c714058b57b,65d2b6c8f2eece985d8e374c,65d2b93a2a90e977bb6cd305,0.0193,0.0194,0,19,19,107,1,sixeight,,,,,,,,,,,,,,,,,,,,,,,,,,,,,,,,,,,,,,,,,,,,,,,,,,,,,,,,,,,,,,,,,,,,,,,,,,,,,,,,,,,,,,,,,,,,,,,,,,,,,,,,,,,,,,,,,,,,,,,,,,,,,,,,,,,,,,,,,
,,5e8a66381afb2c714058b57b,2024-02-19_03h13.34.191,kallum_motion_pilot,2023.2.2,Win32,59.88023952,5e8a66381afb2c714058b57b,65d2b6c8f2eece985d8e374c,65d2b93a2a90e977bb6cd305,0.0194,0.0194,0,20,20,117,1,seveneight,,,,,,,,,,,,,,,,,,,,,,,,,,,,,,,,,,,,,,,,,,,,,,,,,,,,,,,,,,,,,,,,,,,,,,,,,,,,,,,,,,,,,,,,,,,,,,,,,,,,,,,,,,,,,,,,,,,,,,,,,,,,,,,,,,,,,,,,,
,,5e8a66381afb2c714058b57b,2024-02-19_03h13.34.191,kallum_motion_pilot,2023.2.2,Win32,59.88023952,5e8a66381afb2c714058b57b,65d2b6c8f2eece985d8e374c,65d2b93a2a90e977bb6cd305,0.0195,0.0196,0,21,21,7,1,fourthree,,,,,,,,,,,,,,,,,,,,,,,,,,,,,,,,,,,,,,,,,,,,,,,,,,,,,,,,,,,,,,,,,,,,,,,,,,,,,,,,,,,,,,,,,,,,,,,,,,,,,,,,,,,,,,,,,,,,,,,,,,,,,,,,,,,,,,,,,
,,5e8a66381afb2c714058b57b,2024-02-19_03h13.34.191,kallum_motion_pilot,2023.2.2,Win32,59.88023952,5e8a66381afb2c714058b57b,65d2b6c8f2eece985d8e374c,65d2b93a2a90e977bb6cd305,0.0196,0.0196,0,22,22,125,1,seveneight,,,,,,,,,,,,,,,,,,,,,,,,,,,,,,,,,,,,,,,,,,,,,,,,,,,,,,,,,,,,,,,,,,,,,,,,,,,,,,,,,,,,,,,,,,,,,,,,,,,,,,,,,,,,,,,,,,,,,,,,,,,,,,,,,,,,,,,,,
,,5e8a66381afb2c714058b57b,2024-02-19_03h13.34.191,kallum_motion_pilot,2023.2.2,Win32,59.88023952,5e8a66381afb2c714058b57b,65d2b6c8f2eece985d8e374c,65d2b93a2a90e977bb6cd305,0.0197,0.0198,0,23,23,157,1,seveneight,,,,,,,,,,,,,,,,,,,,,,,,,,,,,,,,,,,,,,,,,,,,,,,,,,,,,,,,,,,,,,,,,,,,,,,,,,,,,,,,,,,,,,,,,,,,,,,,,,,,,,,,,,,,,,,,,,,,,,,,,,,,,,,,,,,,,,,,,
,,5e8a66381afb2c714058b57b,2024-02-19_03h13.34.191,kallum_motion_pilot,2023.2.2,Win32,59.88023952,5e8a66381afb2c714058b57b,65d2b6c8f2eece985d8e374c,65d2b93a2a90e977bb6cd305,0.0198,0.0198,0,24,24,55,1,fourthree,,,,,,,,,,,,,,,,,,,,,,,,,,,,,,,,,,,,,,,,,,,,,,,,,,,,,,,,,,,,,,,,,,,,,,,,,,,,,,,,,,,,,,,,,,,,,,,,,,,,,,,,,,,,,,,,,,,,,,,,,,,,,,,,,,,,,,,,,
,,5e8a66381afb2c714058b57b,2024-02-19_03h13.34.191,kallum_motion_pilot,2023.2.2,Win32,59.88023952,5e8a66381afb2c714058b57b,65d2b6c8f2eece985d8e374c,65d2b93a2a90e977bb6cd305,0.0199,0.0199,0,25,25,5,1,threefour,,,,,,,,,,,,,,,,,,,,,,,,,,,,,,,,,,,,,,,,,,,,,,,,,,,,,,,,,,,,,,,,,,,,,,,,,,,,,,,,,,,,,,,,,,,,,,,,,,,,,,,,,,,,,,,,,,,,,,,,,,,,,,,,,,,,,,,,,
,,5e8a66381afb2c714058b57b,2024-02-19_03h13.34.191,kallum_motion_pilot,2023.2.2,Win32,59.88023952,5e8a66381afb2c714058b57b,65d2b6c8f2eece985d8e374c,65d2b93a2a90e977bb6cd305,0.02,0.02,0,26,26,45,1,threefour,,,,,,,,,,,,,,,,,,,,,,,,,,,,,,,,,,,,,,,,,,,,,,,,,,,,,,,,,,,,,,,,,,,,,,,,,,,,,,,,,,,,,,,,,,,,,,,,,,,,,,,,,,,,,,,,,,,,,,,,,,,,,,,,,,,,,,,,,
,,5e8a66381afb2c714058b57b,2024-02-19_03h13.34.191,kallum_motion_pilot,2023.2.2,Win32,59.88023952,5e8a66381afb2c714058b57b,65d2b6c8f2eece985d8e374c,65d2b93a2a90e977bb6cd305,0.0201,0.0201,0,27,27,32,1,onetwo,,,,,,,,,,,,,,,,,,,,,,,,,,,,,,,,,,,,,,,,,,,,,,,,,,,,,,,,,,,,,,,,,,,,,,,,,,,,,,,,,,,,,,,,,,,,,,,,,,,,,,,,,,,,,,,,,,,,,,,,,,,,,,,,,,,,,,,,,
,,5e8a66381afb2c714058b57b,2024-02-19_03h13.34.191,kallum_motion_pilot,2023.2.2,Win32,59.88023952,5e8a66381afb2c714058b57b,65d2b6c8f2eece985d8e374c,65d2b93a2a90e977bb6cd305,0.0201,0.0202,0,28,28,18,1,twoone,,,,,,,,,,,,,,,,,,,,,,,,,,,,,,,,,,,,,,,,,,,,,,,,,,,,,,,,,,,,,,,,,,,,,,,,,,,,,,,,,,,,,,,,,,,,,,,,,,,,,,,,,,,,,,,,,,,,,,,,,,,,,,,,,,,,,,,,,
,,5e8a66381afb2c714058b57b,2024-02-19_03h13.34.191,kallum_motion_pilot,2023.2.2,Win32,59.88023952,5e8a66381afb2c714058b57b,65d2b6c8f2eece985d8e374c,65d2b93a2a90e977bb6cd305,0.0202,0.0203,0,29,29,13,1,threefour,,,,,,,,,,,,,,,,,,,,,,,,,,,,,,,,,,,,,,,,,,,,,,,,,,,,,,,,,,,,,,,,,,,,,,,,,,,,,,,,,,,,,,,,,,,,,,,,,,,,,,,,,,,,,,,,,,,,,,,,,,,,,,,,,,,,,,,,,
,,5e8a66381afb2c714058b57b,2024-02-19_03h13.34.191,kallum_motion_pilot,2023.2.2,Win32,59.88023952,5e8a66381afb2c714058b57b,65d2b6c8f2eece985d8e374c,65d2b93a2a90e977bb6cd305,0.0203,0.0203,0,30,30,113,1,fiveseven,,,,,,,,,,,,,,,,,,,,,,,,,,,,,,,,,,,,,,,,,,,,,,,,,,,,,,,,,,,,,,,,,,,,,,,,,,,,,,,,,,,,,,,,,,,,,,,,,,,,,,,,,,,,,,,,,,,,,,,,,,,,,,,,,,,,,,,,,
,,5e8a66381afb2c714058b57b,2024-02-19_03h13.34.191,kallum_motion_pilot,2023.2.2,Win32,59.88023952,5e8a66381afb2c714058b57b,65d2b6c8f2eece985d8e374c,65d2b93a2a90e977bb6cd305,0.0205,0.0205,0,31,31,92,1,sevenfive,,,,,,,,,,,,,,,,,,,,,,,,,,,,,,,,,,,,,,,,,,,,,,,,,,,,,,,,,,,,,,,,,,,,,,,,,,,,,,,,,,,,,,,,,,,,,,,,,,,,,,,,,,,,,,,,,,,,,,,,,,,,,,,,,,,,,,,,,
,,5e8a66381afb2c714058b57b,2024-02-19_03h13.34.191,kallum_motion_pilot,2023.2.2,Win32,59.88023952,5e8a66381afb2c714058b57b,65d2b6c8f2eece985d8e374c,65d2b93a2a90e977bb6cd305,0.0205,0.0206,0,32,32,27,1,twofour,,,,,,,,,,,,,,,,,,,,,,,,,,,,,,,,,,,,,,,,,,,,,,,,,,,,,,,,,,,,,,,,,,,,,,,,,,,,,,,,,,,,,,,,,,,,,,,,,,,,,,,,,,,,,,,,,,,,,,,,,,,,,,,,,,,,,,,,,
,,5e8a66381afb2c714058b57b,2024-02-19_03h13.34.191,kallum_motion_pilot,2023.2.2,Win32,59.88023952,5e8a66381afb2c714058b57b,65d2b6c8f2eece985d8e374c,65d2b93a2a90e977bb6cd305,0.0206,0.0206,0,33,33,160,1,fivesix,,,,,,,,,,,,,,,,,,,,,,,,,,,,,,,,,,,,,,,,,,,,,,,,,,,,,,,,,,,,,,,,,,,,,,,,,,,,,,,,,,,,,,,,,,,,,,,,,,,,,,,,,,,,,,,,,,,,,,,,,,,,,,,,,,,,,,,,,
,,5e8a66381afb2c714058b57b,2024-02-19_03h13.34.191,kallum_motion_pilot,2023.2.2,Win32,59.88023952,5e8a66381afb2c714058b57b,65d2b6c8f2eece985d8e374c,65d2b93a2a90e977bb6cd305,0.0207,0.0207,0,34,34,15,1,fourthree,,,,,,,,,,,,,,,,,,,,,,,,,,,,,,,,,,,,,,,,,,,,,,,,,,,,,,,,,,,,,,,,,,,,,,,,,,,,,,,,,,,,,,,,,,,,,,,,,,,,,,,,,,,,,,,,,,,,,,,,,,,,,,,,,,,,,,,,,
,,5e8a66381afb2c714058b57b,2024-02-19_03h13.34.191,kallum_motion_pilot,2023.2.2,Win32,59.88023952,5e8a66381afb2c714058b57b,65d2b6c8f2eece985d8e374c,65d2b93a2a90e977bb6cd305,0.0208,0.0209,0,35,35,10,1,twoone,,,,,,,,,,,,,,,,,,,,,,,,,,,,,,,,,,,,,,,,,,,,,,,,,,,,,,,,,,,,,,,,,,,,,,,,,,,,,,,,,,,,,,,,,,,,,,,,,,,,,,,,,,,,,,,,,,,,,,,,,,,,,,,,,,,,,,,,,
,,5e8a66381afb2c714058b57b,2024-02-19_03h13.34.191,kallum_motion_pilot,2023.2.2,Win32,59.88023952,5e8a66381afb2c714058b57b,65d2b6c8f2eece985d8e374c,65d2b93a2a90e977bb6cd305,0.0209,0.021,0,36,36,127,1,eightseven,,,,,,,,,,,,,,,,,,,,,,,,,,,,,,,,,,,,,,,,,,,,,,,,,,,,,,,,,,,,,,,,,,,,,,,,,,,,,,,,,,,,,,,,,,,,,,,,,,,,,,,,,,,,,,,,,,,,,,,,,,,,,,,,,,,,,,,,,
,,5e8a66381afb2c714058b57b,2024-02-19_03h13.34.191,kallum_motion_pilot,2023.2.2,Win32,59.88023952,5e8a66381afb2c714058b57b,65d2b6c8f2eece985d8e374c,65d2b93a2a90e977bb6cd305,0.021,0.021,0,37,37,41,1,onethree,,,,,,,,,,,,,,,,,,,,,,,,,,,,,,,,,,,,,,,,,,,,,,,,,,,,,,,,,,,,,,,,,,,,,,,,,,,,,,,,,,,,,,,,,,,,,,,,,,,,,,,,,,,,,,,,,,,,,,,,,,,,,,,,,,,,,,,,,
,,5e8a66381afb2c714058b57b,2024-02-19_03h13.34.191,kallum_motion_pilot,2023.2.2,Win32,59.88023952,5e8a66381afb2c714058b57b,65d2b6c8f2eece985d8e374c,65d2b93a2a90e977bb6cd305,0.0211,0.0211,0,38,38,142,1,eightsix,,,,,,,,,,,,,,,,,,,,,,,,,,,,,,,,,,,,,,,,,,,,,,,,,,,,,,,,,,,,,,,,,,,,,,,,,,,,,,,,,,,,,,,,,,,,,,,,,,,,,,,,,,,,,,,,,,,,,,,,,,,,,,,,,,,,,,,,,
,,5e8a66381afb2c714058b57b,2024-02-19_03h13.34.191,kallum_motion_pilot,2023.2.2,Win32,59.88023952,5e8a66381afb2c714058b57b,65d2b6c8f2eece985d8e374c,65d2b93a2a90e977bb6cd305,0.0211,0.0212,0,39,39,115,1,sixeight,,,,,,,,,,,,,,,,,,,,,,,,,,,,,,,,,,,,,,,,,,,,,,,,,,,,,,,,,,,,,,,,,,,,,,,,,,,,,,,,,,,,,,,,,,,,,,,,,,,,,,,,,,,,,,,,,,,,,,,,,,,,,,,,,,,,,,,,,
,,5e8a66381afb2c714058b57b,2024-02-19_03h13.34.191,kallum_motion_pilot,2023.2.2,Win32,59.88023952,5e8a66381afb2c714058b57b,65d2b6c8f2eece985d8e374c,65d2b93a2a90e977bb6cd305,0.0213,0.0213,0,40,40,128,1,fivesix,,,,,,,,,,,,,,,,,,,,,,,,,,,,,,,,,,,,,,,,,,,,,,,,,,,,,,,,,,,,,,,,,,,,,,,,,,,,,,,,,,,,,,,,,,,,,,,,,,,,,,,,,,,,,,,,,,,,,,,,,,,,,,,,,,,,,,,,,
,,5e8a66381afb2c714058b57b,2024-02-19_03h13.34.191,kallum_motion_pilot,2023.2.2,Win32,59.88023952,5e8a66381afb2c714058b57b,65d2b6c8f2eece985d8e374c,65d2b93a2a90e977bb6cd305,0.0214,0.0214,0,41,41,130,1,sixfive,,,,,,,,,,,,,,,,,,,,,,,,,,,,,,,,,,,,,,,,,,,,,,,,,,,,,,,,,,,,,,,,,,,,,,,,,,,,,,,,,,,,,,,,,,,,,,,,,,,,,,,,,,,,,,,,,,,,,,,,,,,,,,,,,,,,,,,,,
,,5e8a66381afb2c714058b57b,2024-02-19_03h13.34.191,kallum_motion_pilot,2023.2.2,Win32,59.88023952,5e8a66381afb2c714058b57b,65d2b6c8f2eece985d8e374c,65d2b93a2a90e977bb6cd305,0.0214,0.0214,0,42,42,60,1,threeone,,,,,,,,,,,,,,,,,,,,,,,,,,,,,,,,,,,,,,,,,,,,,,,,,,,,,,,,,,,,,,,,,,,,,,,,,,,,,,,,,,,,,,,,,,,,,,,,,,,,,,,,,,,,,,,,,,,,,,,,,,,,,,,,,,,,,,,,,
,,5e8a66381afb2c714058b57b,2024-02-19_03h13.34.191,kallum_motion_pilot,2023.2.2,Win32,59.88023952,5e8a66381afb2c714058b57b,65d2b6c8f2eece985d8e374c,65d2b93a2a90e977bb6cd305,0.0216,0.0216,0,43,43,47,1,fourthree,,,,,,,,,,,,,,,,,,,,,,,,,,,,,,,,,,,,,,,,,,,,,,,,,,,,,,,,,,,,,,,,,,,,,,,,,,,,,,,,,,,,,,,,,,,,,,,,,,,,,,,,,,,,,,,,,,,,,,,,,,,,,,,,,,,,,,,,,
,,5e8a66381afb2c714058b57b,2024-02-19_03h13.34.191,kallum_motion_pilot,2023.2.2,Win32,59.88023952,5e8a66381afb2c714058b57b,65d2b6c8f2eece985d8e374c,65d2b93a2a90e977bb6cd305,0.0216,0.0216,0,44,44,64,1,onetwo,,,,,,,,,,,,,,,,,,,,,,,,,,,,,,,,,,,,,,,,,,,,,,,,,,,,,,,,,,,,,,,,,,,,,,,,,,,,,,,,,,,,,,,,,,,,,,,,,,,,,,,,,,,,,,,,,,,,,,,,,,,,,,,,,,,,,,,,,
,,5e8a66381afb2c714058b57b,2024-02-19_03h13.34.191,kallum_motion_pilot,2023.2.2,Win32,59.88023952,5e8a66381afb2c714058b57b,65d2b6c8f2eece985d8e374c,65d2b93a2a90e977bb6cd305,0.0217,0.0218,0,45,45,37,1,threefour,,,,,,,,,,,,,,,,,,,,,,,,,,,,,,,,,,,,,,,,,,,,,,,,,,,,,,,,,,,,,,,,,,,,,,,,,,,,,,,,,,,,,,,,,,,,,,,,,,,,,,,,,,,,,,,,,,,,,,,,,,,,,,,,,,,,,,,,,
,,5e8a66381afb2c714058b57b,2024-02-19_03h13.34.191,kallum_motion_pilot,2023.2.2,Win32,59.88023952,5e8a66381afb2c714058b57b,65d2b6c8f2eece985d8e374c,65d2b93a2a90e977bb6cd305,0.0218,0.0218,0,46,46,120,1,fivesix,,,,,,,,,,,,,,,,,,,,,,,,,,,,,,,,,,,,,,,,,,,,,,,,,,,,,,,,,,,,,,,,,,,,,,,,,,,,,,,,,,,,,,,,,,,,,,,,,,,,,,,,,,,,,,,,,,,,,,,,,,,,,,,,,,,,,,,,,
,,5e8a66381afb2c714058b57b,2024-02-19_03h13.34.191,kallum_motion_pilot,2023.2.2,Win32,59.88023952,5e8a66381afb2c714058b57b,65d2b6c8f2eece985d8e374c,65d2b93a2a90e977bb6cd305,0.0219,0.022,0,47,47,140,1,sevenfive,,,,,,,,,,,,,,,,,,,,,,,,,,,,,,,,,,,,,,,,,,,,,,,,,,,,,,,,,,,,,,,,,,,,,,,,,,,,,,,,,,,,,,,,,,,,,,,,,,,,,,,,,,,,,,,,,,,,,,,,,,,,,,,,,,,,,,,,,
,,5e8a66381afb2c714058b57b,2024-02-19_03h13.34.191,kallum_motion_pilot,2023.2.2,Win32,59.88023952,5e8a66381afb2c714058b57b,65d2b6c8f2eece985d8e374c,65d2b93a2a90e977bb6cd305,0.022,0.022,0,48,48,0,1,onetwo,,,,,,,,,,,,,,,,,,,,,,,,,,,,,,,,,,,,,,,,,,,,,,,,,,,,,,,,,,,,,,,,,,,,,,,,,,,,,,,,,,,,,,,,,,,,,,,,,,,,,,,,,,,,,,,,,,,,,,,,,,,,,,,,,,,,,,,,,
,,5e8a66381afb2c714058b57b,2024-02-19_03h13.34.191,kallum_motion_pilot,2023.2.2,Win32,59.88023952,5e8a66381afb2c714058b57b,65d2b6c8f2eece985d8e374c,65d2b93a2a90e977bb6cd305,0.0221,0.0221,0,49,49,148,1,sevenfive,,,,,,,,,,,,,,,,,,,,,,,,,,,,,,,,,,,,,,,,,,,,,,,,,,,,,,,,,,,,,,,,,,,,,,,,,,,,,,,,,,,,,,,,,,,,,,,,,,,,,,,,,,,,,,,,,,,,,,,,,,,,,,,,,,,,,,,,,
,,5e8a66381afb2c714058b57b,2024-02-19_03h13.34.191,kallum_motion_pilot,2023.2.2,Win32,59.88023952,5e8a66381afb2c714058b57b,65d2b6c8f2eece985d8e374c,65d2b93a2a90e977bb6cd305,0.0221,0.0221,0,50,50,39,1,fourthree,,,,,,,,,,,,,,,,,,,,,,,,,,,,,,,,,,,,,,,,,,,,,,,,,,,,,,,,,,,,,,,,,,,,,,,,,,,,,,,,,,,,,,,,,,,,,,,,,,,,,,,,,,,,,,,,,,,,,,,,,,,,,,,,,,,,,,,,,
,,5e8a66381afb2c714058b57b,2024-02-19_03h13.34.191,kallum_motion_pilot,2023.2.2,Win32,59.88023952,5e8a66381afb2c714058b57b,65d2b6c8f2eece985d8e374c,65d2b93a2a90e977bb6cd305,0.0222,0.0222,0,51,51,96,1,fivesix,,,,,,,,,,,,,,,,,,,,,,,,,,,,,,,,,,,,,,,,,,,,,,,,,,,,,,,,,,,,,,,,,,,,,,,,,,,,,,,,,,,,,,,,,,,,,,,,,,,,,,,,,,,,,,,,,,,,,,,,,,,,,,,,,,,,,,,,,
,,5e8a66381afb2c714058b57b,2024-02-19_03h13.34.191,kallum_motion_pilot,2023.2.2,Win32,59.88023952,5e8a66381afb2c714058b57b,65d2b6c8f2eece985d8e374c,65d2b93a2a90e977bb6cd305,0.0224,0.0224,0,52,52,94,1,eightsix,,,,,,,,,,,,,,,,,,,,,,,,,,,,,,,,,,,,,,,,,,,,,,,,,,,,,,,,,,,,,,,,,,,,,,,,,,,,,,,,,,,,,,,,,,,,,,,,,,,,,,,,,,,,,,,,,,,,,,,,,,,,,,,,,,,,,,,,,
,,5e8a66381afb2c714058b57b,2024-02-19_03h13.34.191,kallum_motion_pilot,2023.2.2,Win32,59.88023952,5e8a66381afb2c714058b57b,65d2b6c8f2eece985d8e374c,65d2b93a2a90e977bb6cd305,0.0224,0.0224,0,53,53,75,1,twofour,,,,,,,,,,,,,,,,,,,,,,,,,,,,,,,,,,,,,,,,,,,,,,,,,,,,,,,,,,,,,,,,,,,,,,,,,,,,,,,,,,,,,,,,,,,,,,,,,,,,,,,,,,,,,,,,,,,,,,,,,,,,,,,,,,,,,,,,,
,,5e8a66381afb2c714058b57b,2024-02-19_03h13.34.191,kallum_motion_pilot,2023.2.2,Win32,59.88023952,5e8a66381afb2c714058b57b,65d2b6c8f2eece985d8e374c,65d2b93a2a90e977bb6cd305,0.0225,0.0226,0,54,54,153,1,fiveseven,,,,,,,,,,,,,,,,,,,,,,,,,,,,,,,,,,,,,,,,,,,,,,,,,,,,,,,,,,,,,,,,,,,,,,,,,,,,,,,,,,,,,,,,,,,,,,,,,,,,,,,,,,,,,,,,,,,,,,,,,,,,,,,,,,,,,,,,,
,,5e8a66381afb2c714058b57b,2024-02-19_03h13.34.191,kallum_motion_pilot,2023.2.2,Win32,59.88023952,5e8a66381afb2c714058b57b,65d2b6c8f2eece985d8e374c,65d2b93a2a90e977bb6cd305,0.0226,0.0226,0,55,55,76,1,threeone,,,,,,,,,,,,,,,,,,,,,,,,,,,,,,,,,,,,,,,,,,,,,,,,,,,,,,,,,,,,,,,,,,,,,,,,,,,,,,,,,,,,,,,,,,,,,,,,,,,,,,,,,,,,,,,,,,,,,,,,,,,,,,,,,,,,,,,,,
,,5e8a66381afb2c714058b57b,2024-02-19_03h13.34.191,kallum_motion_pilot,2023.2.2,Win32,59.88023952,5e8a66381afb2c714058b57b,65d2b6c8f2eece985d8e374c,65d2b93a2a90e977bb6cd305,0.0227,0.0228,0,56,56,133,1,seveneight,,,,,,,,,,,,,,,,,,,,,,,,,,,,,,,,,,,,,,,,,,,,,,,,,,,,,,,,,,,,,,,,,,,,,,,,,,,,,,,,,,,,,,,,,,,,,,,,,,,,,,,,,,,,,,,,,,,,,,,,,,,,,,,,,,,,,,,,,
,,5e8a66381afb2c714058b57b,2024-02-19_03h13.34.191,kallum_motion_pilot,2023.2.2,Win32,59.88023952,5e8a66381afb2c714058b57b,65d2b6c8f2eece985d8e374c,65d2b93a2a90e977bb6cd305,0.0228,0.0229,0,57,57,78,1,fourtwo,,,,,,,,,,,,,,,,,,,,,,,,,,,,,,,,,,,,,,,,,,,,,,,,,,,,,,,,,,,,,,,,,,,,,,,,,,,,,,,,,,,,,,,,,,,,,,,,,,,,,,,,,,,,,,,,,,,,,,,,,,,,,,,,,,,,,,,,,
,,5e8a66381afb2c714058b57b,2024-02-19_03h13.34.191,kallum_motion_pilot,2023.2.2,Win32,59.88023952,5e8a66381afb2c714058b57b,65d2b6c8f2eece985d8e374c,65d2b93a2a90e977bb6cd305,0.0229,0.0229,0,58,58,158,1,eightsix,,,,,,,,,,,,,,,,,,,,,,,,,,,,,,,,,,,,,,,,,,,,,,,,,,,,,,,,,,,,,,,,,,,,,,,,,,,,,,,,,,,,,,,,,,,,,,,,,,,,,,,,,,,,,,,,,,,,,,,,,,,,,,,,,,,,,,,,,
,,5e8a66381afb2c714058b57b,2024-02-19_03h13.34.191,kallum_motion_pilot,2023.2.2,Win32,59.88023952,5e8a66381afb2c714058b57b,65d2b6c8f2eece985d8e374c,65d2b93a2a90e977bb6cd305,0.023,0.023,0,59,59,154,1,sixfive,,,,,,,,,,,,,,,,,,,,,,,,,,,,,,,,,,,,,,,,,,,,,,,,,,,,,,,,,,,,,,,,,,,,,,,,,,,,,,,,,,,,,,,,,,,,,,,,,,,,,,,,,,,,,,,,,,,,,,,,,,,,,,,,,,,,,,,,,
,,5e8a66381afb2c714058b57b,2024-02-19_03h13.34.191,kallum_motion_pilot,2023.2.2,Win32,59.88023952,5e8a66381afb2c714058b57b,65d2b6c8f2eece985d8e374c,65d2b93a2a90e977bb6cd305,0.0231,0.0231,0,60,60,36,1,threeone,,,,,,,,,,,,,,,,,,,,,,,,,,,,,,,,,,,,,,,,,,,,,,,,,,,,,,,,,,,,,,,,,,,,,,,,,,,,,,,,,,,,,,,,,,,,,,,,,,,,,,,,,,,,,,,,,,,,,,,,,,,,,,,,,,,,,,,,,
,,5e8a66381afb2c714058b57b,2024-02-19_03h13.34.191,kallum_motion_pilot,2023.2.2,Win32,59.88023952,5e8a66381afb2c714058b57b,65d2b6c8f2eece985d8e374c,65d2b93a2a90e977bb6cd305,0.0232,0.0232,0,61,61,19,1,twofour,,,,,,,,,,,,,,,,,,,,,,,,,,,,,,,,,,,,,,,,,,,,,,,,,,,,,,,,,,,,,,,,,,,,,,,,,,,,,,,,,,,,,,,,,,,,,,,,,,,,,,,,,,,,,,,,,,,,,,,,,,,,,,,,,,,,,,,,,
,,5e8a66381afb2c714058b57b,2024-02-19_03h13.34.191,kallum_motion_pilot,2023.2.2,Win32,59.88023952,5e8a66381afb2c714058b57b,65d2b6c8f2eece985d8e374c,65d2b93a2a90e977bb6cd305,0.0233,0.0233,0,62,62,152,1,fivesix,,,,,,,,,,,,,,,,,,,,,,,,,,,,,,,,,,,,,,,,,,,,,,,,,,,,,,,,,,,,,,,,,,,,,,,,,,,,,,,,,,,,,,,,,,,,,,,,,,,,,,,,,,,,,,,,,,,,,,,,,,,,,,,,,,,,,,,,,
,,5e8a66381afb2c714058b57b,2024-02-19_03h13.34.191,kallum_motion_pilot,2023.2.2,Win32,59.88023952,5e8a66381afb2c714058b57b,65d2b6c8f2eece985d8e374c,65d2b93a2a90e977bb6cd305,0.0234,0.0234,0,63,63,61,1,threefour,,,,,,,,,,,,,,,,,,,,,,,,,,,,,,,,,,,,,,,,,,,,,,,,,,,,,,,,,,,,,,,,,,,,,,,,,,,,,,,,,,,,,,,,,,,,,,,,,,,,,,,,,,,,,,,,,,,,,,,,,,,,,,,,,,,,,,,,,
,,5e8a66381afb2c714058b57b,2024-02-19_03h13.34.191,kallum_motion_pilot,2023.2.2,Win32,59.88023952,5e8a66381afb2c714058b57b,65d2b6c8f2eece985d8e374c,65d2b93a2a90e977bb6cd305,0.0235,0.0235,0,64,64,43,1,twofour,,,,,,,,,,,,,,,,,,,,,,,,,,,,,,,,,,,,,,,,,,,,,,,,,,,,,,,,,,,,,,,,,,,,,,,,,,,,,,,,,,,,,,,,,,,,,,,,,,,,,,,,,,,,,,,,,,,,,,,,,,,,,,,,,,,,,,,,,
,,5e8a66381afb2c714058b57b,2024-02-19_03h13.34.191,kallum_motion_pilot,2023.2.2,Win32,59.88023952,5e8a66381afb2c714058b57b,65d2b6c8f2eece985d8e374c,65d2b93a2a90e977bb6cd305,0.0235,0.0235,0,65,65,106,1,sixfive,,,,,,,,,,,,,,,,,,,,,,,,,,,,,,,,,,,,,,,,,,,,,,,,,,,,,,,,,,,,,,,,,,,,,,,,,,,,,,,,,,,,,,,,,,,,,,,,,,,,,,,,,,,,,,,,,,,,,,,,,,,,,,,,,,,,,,,,,
,,5e8a66381afb2c714058b57b,2024-02-19_03h13.34.191,kallum_motion_pilot,2023.2.2,Win32,59.88023952,5e8a66381afb2c714058b57b,65d2b6c8f2eece985d8e374c,65d2b93a2a90e977bb6cd305,0.0237,0.0237,0,66,66,53,1,threefour,,,,,,,,,,,,,,,,,,,,,,,,,,,,,,,,,,,,,,,,,,,,,,,,,,,,,,,,,,,,,,,,,,,,,,,,,,,,,,,,,,,,,,,,,,,,,,,,,,,,,,,,,,,,,,,,,,,,,,,,,,,,,,,,,,,,,,,,,
,,5e8a66381afb2c714058b57b,2024-02-19_03h13.34.191,kallum_motion_pilot,2023.2.2,Win32,59.88023952,5e8a66381afb2c714058b57b,65d2b6c8f2eece985d8e374c,65d2b93a2a90e977bb6cd305,0.0238,0.0238,0,67,67,23,1,fourthree,,,,,,,,,,,,,,,,,,,,,,,,,,,,,,,,,,,,,,,,,,,,,,,,,,,,,,,,,,,,,,,,,,,,,,,,,,,,,,,,,,,,,,,,,,,,,,,,,,,,,,,,,,,,,,,,,,,,,,,,,,,,,,,,,,,,,,,,,
,,5e8a66381afb2c714058b57b,2024-02-19_03h13.34.191,kallum_motion_pilot,2023.2.2,Win32,59.88023952,5e8a66381afb2c714058b57b,65d2b6c8f2eece985d8e374c,65d2b93a2a90e977bb6cd305,0.0238,0.0239,0,68,68,145,1,fiveseven,,,,,,,,,,,,,,,,,,,,,,,,,,,,,,,,,,,,,,,,,,,,,,,,,,,,,,,,,,,,,,,,,,,,,,,,,,,,,,,,,,,,,,,,,,,,,,,,,,,,,,,,,,,,,,,,,,,,,,,,,,,,,,,,,,,,,,,,,
,,5e8a66381afb2c714058b57b,2024-02-19_03h13.34.191,kallum_motion_pilot,2023.2.2,Win32,59.88023952,5e8a66381afb2c714058b57b,65d2b6c8f2eece985d8e374c,65d2b93a2a90e977bb6cd305,0.024,0.024,0,69,69,9,1,onethree,,,,,,,,,,,,,,,,,,,,,,,,,,,,,,,,,,,,,,,,,,,,,,,,,,,,,,,,,,,,,,,,,,,,,,,,,,,,,,,,,,,,,,,,,,,,,,,,,,,,,,,,,,,,,,,,,,,,,,,,,,,,,,,,,,,,,,,,,
,,5e8a66381afb2c714058b57b,2024-02-19_03h13.34.191,kallum_motion_pilot,2023.2.2,Win32,59.88023952,5e8a66381afb2c714058b57b,65d2b6c8f2eece985d8e374c,65d2b93a2a90e977bb6cd305,0.024,0.024,0,70,70,4,1,threeone,,,,,,,,,,,,,,,,,,,,,,,,,,,,,,,,,,,,,,,,,,,,,,,,,,,,,,,,,,,,,,,,,,,,,,,,,,,,,,,,,,,,,,,,,,,,,,,,,,,,,,,,,,,,,,,,,,,,,,,,,,,,,,,,,,,,,,,,,
,,5e8a66381afb2c714058b57b,2024-02-19_03h13.34.191,kallum_motion_pilot,2023.2.2,Win32,59.88023952,5e8a66381afb2c714058b57b,65d2b6c8f2eece985d8e374c,65d2b93a2a90e977bb6cd305,0.0242,0.0242,0,71,71,147,1,sixeight,,,,,,,,,,,,,,,,,,,,,,,,,,,,,,,,,,,,,,,,,,,,,,,,,,,,,,,,,,,,,,,,,,,,,,,,,,,,,,,,,,,,,,,,,,,,,,,,,,,,,,,,,,,,,,,,,,,,,,,,,,,,,,,,,,,,,,,,,
,,5e8a66381afb2c714058b57b,2024-02-19_03h13.34.191,kallum_motion_pilot,2023.2.2,Win32,59.88023952,5e8a66381afb2c714058b57b,65d2b6c8f2eece985d8e374c,65d2b93a2a90e977bb6cd305,0.0242,0.0242,0,72,72,54,1,fourtwo,,,,,,,,,,,,,,,,,,,,,,,,,,,,,,,,,,,,,,,,,,,,,,,,,,,,,,,,,,,,,,,,,,,,,,,,,,,,,,,,,,,,,,,,,,,,,,,,,,,,,,,,,,,,,,,,,,,,,,,,,,,,,,,,,,,,,,,,,
,,5e8a66381afb2c714058b57b,2024-02-19_03h13.34.191,kallum_motion_pilot,2023.2.2,Win32,59.88023952,5e8a66381afb2c714058b57b,65d2b6c8f2eece985d8e374c,65d2b93a2a90e977bb6cd305,0.0243,0.0244,0,73,73,123,1,sixeight,,,,,,,,,,,,,,,,,,,,,,,,,,,,,,,,,,,,,,,,,,,,,,,,,,,,,,,,,,,,,,,,,,,,,,,,,,,,,,,,,,,,,,,,,,,,,,,,,,,,,,,,,,,,,,,,,,,,,,,,,,,,,,,,,,,,,,,,,
,,5e8a66381afb2c714058b57b,2024-02-19_03h13.34.191,kallum_motion_pilot,2023.2.2,Win32,59.88023952,5e8a66381afb2c714058b57b,65d2b6c8f2eece985d8e374c,65d2b93a2a90e977bb6cd305,0.0244,0.0244,0,74,74,81,1,fiveseven,,,,,,,,,,,,,,,,,,,,,,,,,,,,,,,,,,,,,,,,,,,,,,,,,,,,,,,,,,,,,,,,,,,,,,,,,,,,,,,,,,,,,,,,,,,,,,,,,,,,,,,,,,,,,,,,,,,,,,,,,,,,,,,,,,,,,,,,,
,,5e8a66381afb2c714058b57b,2024-02-19_03h13.34.191,kallum_motion_pilot,2023.2.2,Win32,59.88023952,5e8a66381afb2c714058b57b,65d2b6c8f2eece985d8e374c,65d2b93a2a90e977bb6cd305,0.0245,0.0246,0,75,75,17,1,onethree,,,,,,,,,,,,,,,,,,,,,,,,,,,,,,,,,,,,,,,,,,,,,,,,,,,,,,,,,,,,,,,,,,,,,,,,,,,,,,,,,,,,,,,,,,,,,,,,,,,,,,,,,,,,,,,,,,,,,,,,,,,,,,,,,,,,,,,,,
,,5e8a66381afb2c714058b57b,2024-02-19_03h13.34.191,kallum_motion_pilot,2023.2.2,Win32,59.88023952,5e8a66381afb2c714058b57b,65d2b6c8f2eece985d8e374c,65d2b93a2a90e977bb6cd305,0.0246,0.0246,0,76,76,25,1,onethree,,,,,,,,,,,,,,,,,,,,,,,,,,,,,,,,,,,,,,,,,,,,,,,,,,,,,,,,,,,,,,,,,,,,,,,,,,,,,,,,,,,,,,,,,,,,,,,,,,,,,,,,,,,,,,,,,,,,,,,,,,,,,,,,,,,,,,,,,
,,5e8a66381afb2c714058b57b,2024-02-19_03h13.34.191,kallum_motion_pilot,2023.2.2,Win32,59.88023952,5e8a66381afb2c714058b57b,65d2b6c8f2eece985d8e374c,65d2b93a2a90e977bb6cd305,0.0247,0.0247,0,77,77,11,1,twofour,,,,,,,,,,,,,,,,,,,,,,,,,,,,,,,,,,,,,,,,,,,,,,,,,,,,,,,,,,,,,,,,,,,,,,,,,,,,,,,,,,,,,,,,,,,,,,,,,,,,,,,,,,,,,,,,,,,,,,,,,,,,,,,,,,,,,,,,,
,,5e8a66381afb2c714058b57b,2024-02-19_03h13.34.191,kallum_motion_pilot,2023.2.2,Win32,59.88023952,5e8a66381afb2c714058b57b,65d2b6c8f2eece985d8e374c,65d2b93a2a90e977bb6cd305,0.0248,0.0249,0,78,78,150,1,eightsix,,,,,,,,,,,,,,,,,,,,,,,,,,,,,,,,,,,,,,,,,,,,,,,,,,,,,,,,,,,,,,,,,,,,,,,,,,,,,,,,,,,,,,,,,,,,,,,,,,,,,,,,,,,,,,,,,,,,,,,,,,,,,,,,,,,,,,,,,
,,5e8a66381afb2c714058b57b,2024-02-19_03h13.34.191,kallum_motion_pilot,2023.2.2,Win32,59.88023952,5e8a66381afb2c714058b57b,65d2b6c8f2eece985d8e374c,65d2b93a2a90e977bb6cd305,0.0249,0.0249,0,79,79,31,1,fourthree,,,,,,,,,,,,,,,,,,,,,,,,,,,,,,,,,,,,,,,,,,,,,,,,,,,,,,,,,,,,,,,,,,,,,,,,,,,,,,,,,,,,,,,,,,,,,,,,,,,,,,,,,,,,,,,,,,,,,,,,,,,,,,,,,,,,,,,,,
,,5e8a66381afb2c714058b57b,2024-02-19_03h13.34.191,kallum_motion_pilot,2023.2.2,Win32,59.88023952,5e8a66381afb2c714058b57b,65d2b6c8f2eece985d8e374c,65d2b93a2a90e977bb6cd305,0.025,0.0251,0,80,80,68,1,threeone,,,,,,,,,,,,,,,,,,,,,,,,,,,,,,,,,,,,,,,,,,,,,,,,,,,,,,,,,,,,,,,,,,,,,,,,,,,,,,,,,,,,,,,,,,,,,,,,,,,,,,,,,,,,,,,,,,,,,,,,,,,,,,,,,,,,,,,,,
,,5e8a66381afb2c714058b57b,2024-02-19_03h13.34.191,kallum_motion_pilot,2023.2.2,Win32,59.88023952,5e8a66381afb2c714058b57b,65d2b6c8f2eece985d8e374c,65d2b93a2a90e977bb6cd305,0.0252,0.0252,0,81,81,50,1,twoone,,,,,,,,,,,,,,,,,,,,,,,,,,,,,,,,,,,,,,,,,,,,,,,,,,,,,,,,,,,,,,,,,,,,,,,,,,,,,,,,,,,,,,,,,,,,,,,,,,,,,,,,,,,,,,,,,,,,,,,,,,,,,,,,,,,,,,,,,
,,5e8a66381afb2c714058b57b,2024-02-19_03h13.34.191,kallum_motion_pilot,2023.2.2,Win32,59.88023952,5e8a66381afb2c714058b57b,65d2b6c8f2eece985d8e374c,65d2b93a2a90e977bb6cd305,0.0252,0.0252,0,82,82,71,1,fourthree,,,,,,,,,,,,,,,,,,,,,,,,,,,,,,,,,,,,,,,,,,,,,,,,,,,,,,,,,,,,,,,,,,,,,,,,,,,,,,,,,,,,,,,,,,,,,,,,,,,,,,,,,,,,,,,,,,,,,,,,,,,,,,,,,,,,,,,,,
,,5e8a66381afb2c714058b57b,2024-02-19_03h13.34.191,kallum_motion_pilot,2023.2.2,Win32,59.88023952,5e8a66381afb2c714058b57b,65d2b6c8f2eece985d8e374c,65d2b93a2a90e977bb6cd305,0.0253,0.0254,0,83,83,77,1,threefour,,,,,,,,,,,,,,,,,,,,,,,,,,,,,,,,,,,,,,,,,,,,,,,,,,,,,,,,,,,,,,,,,,,,,,,,,,,,,,,,,,,,,,,,,,,,,,,,,,,,,,,,,,,,,,,,,,,,,,,,,,,,,,,,,,,,,,,,,
,,5e8a66381afb2c714058b57b,2024-02-19_03h13.34.191,kallum_motion_pilot,2023.2.2,Win32,59.88023952,5e8a66381afb2c714058b57b,65d2b6c8f2eece985d8e374c,65d2b93a2a90e977bb6cd305,0.0254,0.0254,0,84,84,49,1,onethree,,,,,,,,,,,,,,,,,,,,,,,,,,,,,,,,,,,,,,,,,,,,,,,,,,,,,,,,,,,,,,,,,,,,,,,,,,,,,,,,,,,,,,,,,,,,,,,,,,,,,,,,,,,,,,,,,,,,,,,,,,,,,,,,,,,,,,,,,
,,5e8a66381afb2c714058b57b,2024-02-19_03h13.34.191,kallum_motion_pilot,2023.2.2,Win32,59.88023952,5e8a66381afb2c714058b57b,65d2b6c8f2eece985d8e374c,65d2b93a2a90e977bb6cd305,0.0255,0.0255,0,85,85,101,1,seveneight,,,,,,,,,,,,,,,,,,,,,,,,,,,,,,,,,,,,,,,,,,,,,,,,,,,,,,,,,,,,,,,,,,,,,,,,,,,,,,,,,,,,,,,,,,,,,,,,,,,,,,,,,,,,,,,,,,,,,,,,,,,,,,,,,,,,,,,,,
,,5e8a66381afb2c714058b57b,2024-02-19_03h13.34.191,kallum_motion_pilot,2023.2.2,Win32,59.88023952,5e8a66381afb2c714058b57b,65d2b6c8f2eece985d8e374c,65d2b93a2a90e977bb6cd305,0.0256,0.0257,0,86,86,102,1,eightsix,,,,,,,,,,,,,,,,,,,,,,,,,,,,,,,,,,,,,,,,,,,,,,,,,,,,,,,,,,,,,,,,,,,,,,,,,,,,,,,,,,,,,,,,,,,,,,,,,,,,,,,,,,,,,,,,,,,,,,,,,,,,,,,,,,,,,,,,,
,,5e8a66381afb2c714058b57b,2024-02-19_03h13.34.191,kallum_motion_pilot,2023.2.2,Win32,59.88023952,5e8a66381afb2c714058b57b,65d2b6c8f2eece985d8e374c,65d2b93a2a90e977bb6cd305,0.0257,0.0258,0,87,87,141,1,seveneight,,,,,,,,,,,,,,,,,,,,,,,,,,,,,,,,,,,,,,,,,,,,,,,,,,,,,,,,,,,,,,,,,,,,,,,,,,,,,,,,,,,,,,,,,,,,,,,,,,,,,,,,,,,,,,,,,,,,,,,,,,,,,,,,,,,,,,,,,
,,5e8a66381afb2c714058b57b,2024-02-19_03h13.34.191,kallum_motion_pilot,2023.2.2,Win32,59.88023952,5e8a66381afb2c714058b57b,65d2b6c8f2eece985d8e374c,65d2b93a2a90e977bb6cd305,0.0258,0.0258,0,88,88,98,1,sixfive,,,,,,,,,,,,,,,,,,,,,,,,,,,,,,,,,,,,,,,,,,,,,,,,,,,,,,,,,,,,,,,,,,,,,,,,,,,,,,,,,,,,,,,,,,,,,,,,,,,,,,,,,,,,,,,,,,,,,,,,,,,,,,,,,,,,,,,,,
,,5e8a66381afb2c714058b57b,2024-02-19_03h13.34.191,kallum_motion_pilot,2023.2.2,Win32,59.88023952,5e8a66381afb2c714058b57b,65d2b6c8f2eece985d8e374c,65d2b93a2a90e977bb6cd305,0.026,0.026,0,89,89,112,1,fivesix,,,,,,,,,,,,,,,,,,,,,,,,,,,,,,,,,,,,,,,,,,,,,,,,,,,,,,,,,,,,,,,,,,,,,,,,,,,,,,,,,,,,,,,,,,,,,,,,,,,,,,,,,,,,,,,,,,,,,,,,,,,,,,,,,,,,,,,,,
,,5e8a66381afb2c714058b57b,2024-02-19_03h13.34.191,kallum_motion_pilot,2023.2.2,Win32,59.88023952,5e8a66381afb2c714058b57b,65d2b6c8f2eece985d8e374c,65d2b93a2a90e977bb6cd305,0.026,0.0261,0,90,90,129,1,fiveseven,,,,,,,,,,,,,,,,,,,,,,,,,,,,,,,,,,,,,,,,,,,,,,,,,,,,,,,,,,,,,,,,,,,,,,,,,,,,,,,,,,,,,,,,,,,,,,,,,,,,,,,,,,,,,,,,,,,,,,,,,,,,,,,,,,,,,,,,,
,,5e8a66381afb2c714058b57b,2024-02-19_03h13.34.191,kallum_motion_pilot,2023.2.2,Win32,59.88023952,5e8a66381afb2c714058b57b,65d2b6c8f2eece985d8e374c,65d2b93a2a90e977bb6cd305,0.0261,0.0262,0,91,91,90,1,sixfive,,,,,,,,,,,,,,,,,,,,,,,,,,,,,,,,,,,,,,,,,,,,,,,,,,,,,,,,,,,,,,,,,,,,,,,,,,,,,,,,,,,,,,,,,,,,,,,,,,,,,,,,,,,,,,,,,,,,,,,,,,,,,,,,,,,,,,,,,
,,5e8a66381afb2c714058b57b,2024-02-19_03h13.34.191,kallum_motion_pilot,2023.2.2,Win32,59.88023952,5e8a66381afb2c714058b57b,65d2b6c8f2eece985d8e374c,65d2b93a2a90e977bb6cd305,0.0263,0.0263,0,92,92,70,1,fourtwo,,,,,,,,,,,,,,,,,,,,,,,,,,,,,,,,,,,,,,,,,,,,,,,,,,,,,,,,,,,,,,,,,,,,,,,,,,,,,,,,,,,,,,,,,,,,,,,,,,,,,,,,,,,,,,,,,,,,,,,,,,,,,,,,,,,,,,,,,
,,5e8a66381afb2c714058b57b,2024-02-19_03h13.34.191,kallum_motion_pilot,2023.2.2,Win32,59.88023952,5e8a66381afb2c714058b57b,65d2b6c8f2eece985d8e374c,65d2b93a2a90e977bb6cd305,0.0264,0.0264,0,93,93,100,1,sevenfive,,,,,,,,,,,,,,,,,,,,,,,,,,,,,,,,,,,,,,,,,,,,,,,,,,,,,,,,,,,,,,,,,,,,,,,,,,,,,,,,,,,,,,,,,,,,,,,,,,,,,,,,,,,,,,,,,,,,,,,,,,,,,,,,,,,,,,,,,
,,5e8a66381afb2c714058b57b,2024-02-19_03h13.34.191,kallum_motion_pilot,2023.2.2,Win32,59.88023952,5e8a66381afb2c714058b57b,65d2b6c8f2eece985d8e374c,65d2b93a2a90e977bb6cd305,0.0264,0.0265,0,94,94,63,1,fourthree,,,,,,,,,,,,,,,,,,,,,,,,,,,,,,,,,,,,,,,,,,,,,,,,,,,,,,,,,,,,,,,,,,,,,,,,,,,,,,,,,,,,,,,,,,,,,,,,,,,,,,,,,,,,,,,,,,,,,,,,,,,,,,,,,,,,,,,,,
,,5e8a66381afb2c714058b57b,2024-02-19_03h13.34.191,kallum_motion_pilot,2023.2.2,Win32,59.88023952,5e8a66381afb2c714058b57b,65d2b6c8f2eece985d8e374c,65d2b93a2a90e977bb6cd305,0.0265,0.0265,0,95,95,156,1,sevenfive,,,,,,,,,,,,,,,,,,,,,,,,,,,,,,,,,,,,,,,,,,,,,,,,,,,,,,,,,,,,,,,,,,,,,,,,,,,,,,,,,,,,,,,,,,,,,,,,,,,,,,,,,,,,,,,,,,,,,,,,,,,,,,,,,,,,,,,,,
,,5e8a66381afb2c714058b57b,2024-02-19_03h13.34.191,kallum_motion_pilot,2023.2.2,Win32,59.88023952,5e8a66381afb2c714058b57b,65d2b6c8f2eece985d8e374c,65d2b93a2a90e977bb6cd305,0.0267,0.0267,0,96,96,89,1,fiveseven,,,,,,,,,,,,,,,,,,,,,,,,,,,,,,,,,,,,,,,,,,,,,,,,,,,,,,,,,,,,,,,,,,,,,,,,,,,,,,,,,,,,,,,,,,,,,,,,,,,,,,,,,,,,,,,,,,,,,,,,,,,,,,,,,,,,,,,,,
,,5e8a66381afb2c714058b57b,2024-02-19_03h13.34.191,kallum_motion_pilot,2023.2.2,Win32,59.88023952,5e8a66381afb2c714058b57b,65d2b6c8f2eece985d8e374c,65d2b93a2a90e977bb6cd305,0.0267,0.0268,0,97,97,35,1,twofour,,,,,,,,,,,,,,,,,,,,,,,,,,,,,,,,,,,,,,,,,,,,,,,,,,,,,,,,,,,,,,,,,,,,,,,,,,,,,,,,,,,,,,,,,,,,,,,,,,,,,,,,,,,,,,,,,,,,,,,,,,,,,,,,,,,,,,,,,
,,5e8a66381afb2c714058b57b,2024-02-19_03h13.34.191,kallum_motion_pilot,2023.2.2,Win32,59.88023952,5e8a66381afb2c714058b57b,65d2b6c8f2eece985d8e374c,65d2b93a2a90e977bb6cd305,0.0268,0.0268,0,98,98,126,1,eightsix,,,,,,,,,,,,,,,,,,,,,,,,,,,,,,,,,,,,,,,,,,,,,,,,,,,,,,,,,,,,,,,,,,,,,,,,,,,,,,,,,,,,,,,,,,,,,,,,,,,,,,,,,,,,,,,,,,,,,,,,,,,,,,,,,,,,,,,,,
,,5e8a66381afb2c714058b57b,2024-02-19_03h13.34.191,kallum_motion_pilot,2023.2.2,Win32,59.88023952,5e8a66381afb2c714058b57b,65d2b6c8f2eece985d8e374c,65d2b93a2a90e977bb6cd305,0.027,0.027,0,99,99,105,1,fiveseven,,,,,,,,,,,,,,,,,,,,,,,,,,,,,,,,,,,,,,,,,,,,,,,,,,,,,,,,,,,,,,,,,,,,,,,,,,,,,,,,,,,,,,,,,,,,,,,,,,,,,,,,,,,,,,,,,,,,,,,,,,,,,,,,,,,,,,,,,
,,5e8a66381afb2c714058b57b,2024-02-19_03h13.34.191,kallum_motion_pilot,2023.2.2,Win32,59.88023952,5e8a66381afb2c714058b57b,65d2b6c8f2eece985d8e374c,65d2b93a2a90e977bb6cd305,0.0271,0.0271,0,100,100,20,1,threeone,,,,,,,,,,,,,,,,,,,,,,,,,,,,,,,,,,,,,,,,,,,,,,,,,,,,,,,,,,,,,,,,,,,,,,,,,,,,,,,,,,,,,,,,,,,,,,,,,,,,,,,,,,,,,,,,,,,,,,,,,,,,,,,,,,,,,,,,,
,,5e8a66381afb2c714058b57b,2024-02-19_03h13.34.191,kallum_motion_pilot,2023.2.2,Win32,59.88023952,5e8a66381afb2c714058b57b,65d2b6c8f2eece985d8e374c,65d2b93a2a90e977bb6cd305,0.0271,0.0271,0,101,101,28,1,threeone,,,,,,,,,,,,,,,,,,,,,,,,,,,,,,,,,,,,,,,,,,,,,,,,,,,,,,,,,,,,,,,,,,,,,,,,,,,,,,,,,,,,,,,,,,,,,,,,,,,,,,,,,,,,,,,,,,,,,,,,,,,,,,,,,,,,,,,,,
,,5e8a66381afb2c714058b57b,2024-02-19_03h13.34.191,kallum_motion_pilot,2023.2.2,Win32,59.88023952,5e8a66381afb2c714058b57b,65d2b6c8f2eece985d8e374c,65d2b93a2a90e977bb6cd305,0.0273,0.0273,0,102,102,95,1,eightseven,,,,,,,,,,,,,,,,,,,,,,,,,,,,,,,,,,,,,,,,,,,,,,,,,,,,,,,,,,,,,,,,,,,,,,,,,,,,,,,,,,,,,,,,,,,,,,,,,,,,,,,,,,,,,,,,,,,,,,,,,,,,,,,,,,,,,,,,,
,,5e8a66381afb2c714058b57b,2024-02-19_03h13.34.191,kallum_motion_pilot,2023.2.2,Win32,59.88023952,5e8a66381afb2c714058b57b,65d2b6c8f2eece985d8e374c,65d2b93a2a90e977bb6cd305,0.0274,0.0274,0,103,103,46,1,fourtwo,,,,,,,,,,,,,,,,,,,,,,,,,,,,,,,,,,,,,,,,,,,,,,,,,,,,,,,,,,,,,,,,,,,,,,,,,,,,,,,,,,,,,,,,,,,,,,,,,,,,,,,,,,,,,,,,,,,,,,,,,,,,,,,,,,,,,,,,,
,,5e8a66381afb2c714058b57b,2024-02-19_03h13.34.191,kallum_motion_pilot,2023.2.2,Win32,59.88023952,5e8a66381afb2c714058b57b,65d2b6c8f2eece985d8e374c,65d2b93a2a90e977bb6cd305,0.0274,0.0274,0,104,104,87,1,eightseven,,,,,,,,,,,,,,,,,,,,,,,,,,,,,,,,,,,,,,,,,,,,,,,,,,,,,,,,,,,,,,,,,,,,,,,,,,,,,,,,,,,,,,,,,,,,,,,,,,,,,,,,,,,,,,,,,,,,,,,,,,,,,,,,,,,,,,,,,
,,5e8a66381afb2c714058b57b,2024-02-19_03h13.34.191,kallum_motion_pilot,2023.2.2,Win32,59.88023952,5e8a66381afb2c714058b57b,65d2b6c8f2eece985d8e374c,65d2b93a2a90e977bb6cd305,0.0275,0.0276,0,105,105,6,1,fourtwo,,,,,,,,,,,,,,,,,,,,,,,,,,,,,,,,,,,,,,,,,,,,,,,,,,,,,,,,,,,,,,,,,,,,,,,,,,,,,,,,,,,,,,,,,,,,,,,,,,,,,,,,,,,,,,,,,,,,,,,,,,,,,,,,,,,,,,,,,
,,5e8a66381afb2c714058b57b,2024-02-19_03h13.34.191,kallum_motion_pilot,2023.2.2,Win32,59.88023952,5e8a66381afb2c714058b57b,65d2b6c8f2eece985d8e374c,65d2b93a2a90e977bb6cd305,0.0276,0.0277,0,106,106,21,1,threefour,,,,,,,,,,,,,,,,,,,,,,,,,,,,,,,,,,,,,,,,,,,,,,,,,,,,,,,,,,,,,,,,,,,,,,,,,,,,,,,,,,,,,,,,,,,,,,,,,,,,,,,,,,,,,,,,,,,,,,,,,,,,,,,,,,,,,,,,,
,,5e8a66381afb2c714058b57b,2024-02-19_03h13.34.191,kallum_motion_pilot,2023.2.2,Win32,59.88023952,5e8a66381afb2c714058b57b,65d2b6c8f2eece985d8e374c,65d2b93a2a90e977bb6cd305,0.0277,0.0278,0,107,107,56,1,onetwo,,,,,,,,,,,,,,,,,,,,,,,,,,,,,,,,,,,,,,,,,,,,,,,,,,,,,,,,,,,,,,,,,,,,,,,,,,,,,,,,,,,,,,,,,,,,,,,,,,,,,,,,,,,,,,,,,,,,,,,,,,,,,,,,,,,,,,,,,
,,5e8a66381afb2c714058b57b,2024-02-19_03h13.34.191,kallum_motion_pilot,2023.2.2,Win32,59.88023952,5e8a66381afb2c714058b57b,65d2b6c8f2eece985d8e374c,65d2b93a2a90e977bb6cd305,0.0279,0.0279,0,108,108,16,1,onetwo,,,,,,,,,,,,,,,,,,,,,,,,,,,,,,,,,,,,,,,,,,,,,,,,,,,,,,,,,,,,,,,,,,,,,,,,,,,,,,,,,,,,,,,,,,,,,,,,,,,,,,,,,,,,,,,,,,,,,,,,,,,,,,,,,,,,,,,,,
,,5e8a66381afb2c714058b57b,2024-02-19_03h13.34.191,kallum_motion_pilot,2023.2.2,Win32,59.88023952,5e8a66381afb2c714058b57b,65d2b6c8f2eece985d8e374c,65d2b93a2a90e977bb6cd305,0.028,0.028,0,109,109,79,1,eightseven,,,,,,,,,,,,,,,,,,,,,,,,,,,,,,,,,,,,,,,,,,,,,,,,,,,,,,,,,,,,,,,,,,,,,,,,,,,,,,,,,,,,,,,,,,,,,,,,,,,,,,,,,,,,,,,,,,,,,,,,,,,,,,,,,,,,,,,,,
,,5e8a66381afb2c714058b57b,2024-02-19_03h13.34.191,kallum_motion_pilot,2023.2.2,Win32,59.88023952,5e8a66381afb2c714058b57b,65d2b6c8f2eece985d8e374c,65d2b93a2a90e977bb6cd305,0.028,0.028,0,110,110,116,1,sevenfive,,,,,,,,,,,,,,,,,,,,,,,,,,,,,,,,,,,,,,,,,,,,,,,,,,,,,,,,,,,,,,,,,,,,,,,,,,,,,,,,,,,,,,,,,,,,,,,,,,,,,,,,,,,,,,,,,,,,,,,,,,,,,,,,,,,,,,,,,
,,5e8a66381afb2c714058b57b,2024-02-19_03h13.34.191,kallum_motion_pilot,2023.2.2,Win32,59.88023952,5e8a66381afb2c714058b57b,65d2b6c8f2eece985d8e374c,65d2b93a2a90e977bb6cd305,0.0281,0.0282,0,111,111,144,1,fivesix,,,,,,,,,,,,,,,,,,,,,,,,,,,,,,,,,,,,,,,,,,,,,,,,,,,,,,,,,,,,,,,,,,,,,,,,,,,,,,,,,,,,,,,,,,,,,,,,,,,,,,,,,,,,,,,,,,,,,,,,,,,,,,,,,,,,,,,,,
,,5e8a66381afb2c714058b57b,2024-02-19_03h13.34.191,kallum_motion_pilot,2023.2.2,Win32,59.88023952,5e8a66381afb2c714058b57b,65d2b6c8f2eece985d8e374c,65d2b93a2a90e977bb6cd305,0.0282,0.0282,0,112,112,1,1,onethree,,,,,,,,,,,,,,,,,,,,,,,,,,,,,,,,,,,,,,,,,,,,,,,,,,,,,,,,,,,,,,,,,,,,,,,,,,,,,,,,,,,,,,,,,,,,,,,,,,,,,,,,,,,,,,,,,,,,,,,,,,,,,,,,,,,,,,,,,
,,5e8a66381afb2c714058b57b,2024-02-19_03h13.34.191,kallum_motion_pilot,2023.2.2,Win32,59.88023952,5e8a66381afb2c714058b57b,65d2b6c8f2eece985d8e374c,65d2b93a2a90e977bb6cd305,0.0284,0.0284,0,113,113,3,1,twofour,,,,,,,,,,,,,,,,,,,,,,,,,,,,,,,,,,,,,,,,,,,,,,,,,,,,,,,,,,,,,,,,,,,,,,,,,,,,,,,,,,,,,,,,,,,,,,,,,,,,,,,,,,,,,,,,,,,,,,,,,,,,,,,,,,,,,,,,,
,,5e8a66381afb2c714058b57b,2024-02-19_03h13.34.191,kallum_motion_pilot,2023.2.2,Win32,59.88023952,5e8a66381afb2c714058b57b,65d2b6c8f2eece985d8e374c,65d2b93a2a90e977bb6cd305,0.0284,0.0284,0,114,114,69,1,threefour,,,,,,,,,,,,,,,,,,,,,,,,,,,,,,,,,,,,,,,,,,,,,,,,,,,,,,,,,,,,,,,,,,,,,,,,,,,,,,,,,,,,,,,,,,,,,,,,,,,,,,,,,,,,,,,,,,,,,,,,,,,,,,,,,,,,,,,,,
,,5e8a66381afb2c714058b57b,2024-02-19_03h13.34.191,kallum_motion_pilot,2023.2.2,Win32,59.88023952,5e8a66381afb2c714058b57b,65d2b6c8f2eece985d8e374c,65d2b93a2a90e977bb6cd305,0.0286,0.0286,0,115,115,2,1,twoone,,,,,,,,,,,,,,,,,,,,,,,,,,,,,,,,,,,,,,,,,,,,,,,,,,,,,,,,,,,,,,,,,,,,,,,,,,,,,,,,,,,,,,,,,,,,,,,,,,,,,,,,,,,,,,,,,,,,,,,,,,,,,,,,,,,,,,,,,
,,5e8a66381afb2c714058b57b,2024-02-19_03h13.34.191,kallum_motion_pilot,2023.2.2,Win32,59.88023952,5e8a66381afb2c714058b57b,65d2b6c8f2eece985d8e374c,65d2b93a2a90e977bb6cd305,0.0286,0.0286,0,116,116,12,1,threeone,,,,,,,,,,,,,,,,,,,,,,,,,,,,,,,,,,,,,,,,,,,,,,,,,,,,,,,,,,,,,,,,,,,,,,,,,,,,,,,,,,,,,,,,,,,,,,,,,,,,,,,,,,,,,,,,,,,,,,,,,,,,,,,,,,,,,,,,,
,,5e8a66381afb2c714058b57b,2024-02-19_03h13.34.191,kallum_motion_pilot,2023.2.2,Win32,59.88023952,5e8a66381afb2c714058b57b,65d2b6c8f2eece985d8e374c,65d2b93a2a90e977bb6cd305,0.0287,0.0287,0,117,117,38,1,fourtwo,,,,,,,,,,,,,,,,,,,,,,,,,,,,,,,,,,,,,,,,,,,,,,,,,,,,,,,,,,,,,,,,,,,,,,,,,,,,,,,,,,,,,,,,,,,,,,,,,,,,,,,,,,,,,,,,,,,,,,,,,,,,,,,,,,,,,,,,,
,,5e8a66381afb2c714058b57b,2024-02-19_03h13.34.191,kallum_motion_pilot,2023.2.2,Win32,59.88023952,5e8a66381afb2c714058b57b,65d2b6c8f2eece985d8e374c,65d2b93a2a90e977bb6cd305,0.0288,0.0289,0,118,118,82,1,sixfive,,,,,,,,,,,,,,,,,,,,,,,,,,,,,,,,,,,,,,,,,,,,,,,,,,,,,,,,,,,,,,,,,,,,,,,,,,,,,,,,,,,,,,,,,,,,,,,,,,,,,,,,,,,,,,,,,,,,,,,,,,,,,,,,,,,,,,,,,
,,5e8a66381afb2c714058b57b,2024-02-19_03h13.34.191,kallum_motion_pilot,2023.2.2,Win32,59.88023952,5e8a66381afb2c714058b57b,65d2b6c8f2eece985d8e374c,65d2b93a2a90e977bb6cd305,0.0289,0.0289,0,119,119,111,1,eightseven,,,,,,,,,,,,,,,,,,,,,,,,,,,,,,,,,,,,,,,,,,,,,,,,,,,,,,,,,,,,,,,,,,,,,,,,,,,,,,,,,,,,,,,,,,,,,,,,,,,,,,,,,,,,,,,,,,,,,,,,,,,,,,,,,,,,,,,,,
,,5e8a66381afb2c714058b57b,2024-02-19_03h13.34.191,kallum_motion_pilot,2023.2.2,Win32,59.88023952,5e8a66381afb2c714058b57b,65d2b6c8f2eece985d8e374c,65d2b93a2a90e977bb6cd305,0.029,0.0291,0,120,120,33,1,onethree,,,,,,,,,,,,,,,,,,,,,,,,,,,,,,,,,,,,,,,,,,,,,,,,,,,,,,,,,,,,,,,,,,,,,,,,,,,,,,,,,,,,,,,,,,,,,,,,,,,,,,,,,,,,,,,,,,,,,,,,,,,,,,,,,,,,,,,,,
,,5e8a66381afb2c714058b57b,2024-02-19_03h13.34.191,kallum_motion_pilot,2023.2.2,Win32,59.88023952,5e8a66381afb2c714058b57b,65d2b6c8f2eece985d8e374c,65d2b93a2a90e977bb6cd305,0.0291,0.0291,0,121,121,34,1,twoone,,,,,,,,,,,,,,,,,,,,,,,,,,,,,,,,,,,,,,,,,,,,,,,,,,,,,,,,,,,,,,,,,,,,,,,,,,,,,,,,,,,,,,,,,,,,,,,,,,,,,,,,,,,,,,,,,,,,,,,,,,,,,,,,,,,,,,,,,
,,5e8a66381afb2c714058b57b,2024-02-19_03h13.34.191,kallum_motion_pilot,2023.2.2,Win32,59.88023952,5e8a66381afb2c714058b57b,65d2b6c8f2eece985d8e374c,65d2b93a2a90e977bb6cd305,0.0292,0.0292,0,122,122,155,1,sixeight,,,,,,,,,,,,,,,,,,,,,,,,,,,,,,,,,,,,,,,,,,,,,,,,,,,,,,,,,,,,,,,,,,,,,,,,,,,,,,,,,,,,,,,,,,,,,,,,,,,,,,,,,,,,,,,,,,,,,,,,,,,,,,,,,,,,,,,,,
,,5e8a66381afb2c714058b57b,2024-02-19_03h13.34.191,kallum_motion_pilot,2023.2.2,Win32,59.88023952,5e8a66381afb2c714058b57b,65d2b6c8f2eece985d8e374c,65d2b93a2a90e977bb6cd305,0.0293,0.0293,0,123,123,139,1,sixeight,,,,,,,,,,,,,,,,,,,,,,,,,,,,,,,,,,,,,,,,,,,,,,,,,,,,,,,,,,,,,,,,,,,,,,,,,,,,,,,,,,,,,,,,,,,,,,,,,,,,,,,,,,,,,,,,,,,,,,,,,,,,,,,,,,,,,,,,,
,,5e8a66381afb2c714058b57b,2024-02-19_03h13.34.191,kallum_motion_pilot,2023.2.2,Win32,59.88023952,5e8a66381afb2c714058b57b,65d2b6c8f2eece985d8e374c,65d2b93a2a90e977bb6cd305,0.0294,0.0295,0,124,124,62,1,fourtwo,,,,,,,,,,,,,,,,,,,,,,,,,,,,,,,,,,,,,,,,,,,,,,,,,,,,,,,,,,,,,,,,,,,,,,,,,,,,,,,,,,,,,,,,,,,,,,,,,,,,,,,,,,,,,,,,,,,,,,,,,,,,,,,,,,,,,,,,,
,,5e8a66381afb2c714058b57b,2024-02-19_03h13.34.191,kallum_motion_pilot,2023.2.2,Win32,59.88023952,5e8a66381afb2c714058b57b,65d2b6c8f2eece985d8e374c,65d2b93a2a90e977bb6cd305,0.0295,0.0296,0,125,125,26,1,twoone,,,,,,,,,,,,,,,,,,,,,,,,,,,,,,,,,,,,,,,,,,,,,,,,,,,,,,,,,,,,,,,,,,,,,,,,,,,,,,,,,,,,,,,,,,,,,,,,,,,,,,,,,,,,,,,,,,,,,,,,,,,,,,,,,,,,,,,,,
,,5e8a66381afb2c714058b57b,2024-02-19_03h13.34.191,kallum_motion_pilot,2023.2.2,Win32,59.88023952,5e8a66381afb2c714058b57b,65d2b6c8f2eece985d8e374c,65d2b93a2a90e977bb6cd305,0.0314,0.0314,0,126,126,58,1,twoone,,,,,,,,,,,,,,,,,,,,,,,,,,,,,,,,,,,,,,,,,,,,,,,,,,,,,,,,,,,,,,,,,,,,,,,,,,,,,,,,,,,,,,,,,,,,,,,,,,,,,,,,,,,,,,,,,,,,,,,,,,,,,,,,,,,,,,,,,
,,5e8a66381afb2c714058b57b,2024-02-19_03h13.34.191,kallum_motion_pilot,2023.2.2,Win32,59.88023952,5e8a66381afb2c714058b57b,65d2b6c8f2eece985d8e374c,65d2b93a2a90e977bb6cd305,0.0315,0.0316,0,127,127,86,1,eightsix,,,,,,,,,,,,,,,,,,,,,,,,,,,,,,,,,,,,,,,,,,,,,,,,,,,,,,,,,,,,,,,,,,,,,,,,,,,,,,,,,,,,,,,,,,,,,,,,,,,,,,,,,,,,,,,,,,,,,,,,,,,,,,,,,,,,,,,,,
,,5e8a66381afb2c714058b57b,2024-02-19_03h13.34.191,kallum_motion_pilot,2023.2.2,Win32,59.88023952,5e8a66381afb2c714058b57b,65d2b6c8f2eece985d8e374c,65d2b93a2a90e977bb6cd305,0.0316,0.0316,0,128,128,122,1,sixfive,,,,,,,,,,,,,,,,,,,,,,,,,,,,,,,,,,,,,,,,,,,,,,,,,,,,,,,,,,,,,,,,,,,,,,,,,,,,,,,,,,,,,,,,,,,,,,,,,,,,,,,,,,,,,,,,,,,,,,,,,,,,,,,,,,,,,,,,,
,,5e8a66381afb2c714058b57b,2024-02-19_03h13.34.191,kallum_motion_pilot,2023.2.2,Win32,59.88023952,5e8a66381afb2c714058b57b,65d2b6c8f2eece985d8e374c,65d2b93a2a90e977bb6cd305,0.0316,0.0316,0,129,129,114,1,sixfive,,,,,,,,,,,,,,,,,,,,,,,,,,,,,,,,,,,,,,,,,,,,,,,,,,,,,,,,,,,,,,,,,,,,,,,,,,,,,,,,,,,,,,,,,,,,,,,,,,,,,,,,,,,,,,,,,,,,,,,,,,,,,,,,,,,,,,,,,
,,5e8a66381afb2c714058b57b,2024-02-19_03h13.34.191,kallum_motion_pilot,2023.2.2,Win32,59.88023952,5e8a66381afb2c714058b57b,65d2b6c8f2eece985d8e374c,65d2b93a2a90e977bb6cd305,0.0317,0.0317,0,130,130,80,1,fivesix,,,,,,,,,,,,,,,,,,,,,,,,,,,,,,,,,,,,,,,,,,,,,,,,,,,,,,,,,,,,,,,,,,,,,,,,,,,,,,,,,,,,,,,,,,,,,,,,,,,,,,,,,,,,,,,,,,,,,,,,,,,,,,,,,,,,,,,,,
,,5e8a66381afb2c714058b57b,2024-02-19_03h13.34.191,kallum_motion_pilot,2023.2.2,Win32,59.88023952,5e8a66381afb2c714058b57b,65d2b6c8f2eece985d8e374c,65d2b93a2a90e977bb6cd305,0.0317,0.0318,0,131,131,24,1,onetwo,,,,,,,,,,,,,,,,,,,,,,,,,,,,,,,,,,,,,,,,,,,,,,,,,,,,,,,,,,,,,,,,,,,,,,,,,,,,,,,,,,,,,,,,,,,,,,,,,,,,,,,,,,,,,,,,,,,,,,,,,,,,,,,,,,,,,,,,,
,,5e8a66381afb2c714058b57b,2024-02-19_03h13.34.191,kallum_motion_pilot,2023.2.2,Win32,59.88023952,5e8a66381afb2c714058b57b,65d2b6c8f2eece985d8e374c,65d2b93a2a90e977bb6cd305,0.0318,0.0318,0,132,132,97,1,fiveseven,,,,,,,,,,,,,,,,,,,,,,,,,,,,,,,,,,,,,,,,,,,,,,,,,,,,,,,,,,,,,,,,,,,,,,,,,,,,,,,,,,,,,,,,,,,,,,,,,,,,,,,,,,,,,,,,,,,,,,,,,,,,,,,,,,,,,,,,,
,,5e8a66381afb2c714058b57b,2024-02-19_03h13.34.191,kallum_motion_pilot,2023.2.2,Win32,59.88023952,5e8a66381afb2c714058b57b,65d2b6c8f2eece985d8e374c,65d2b93a2a90e977bb6cd305,0.0318,0.032,0,133,133,135,1,eightseven,,,,,,,,,,,,,,,,,,,,,,,,,,,,,,,,,,,,,,,,,,,,,,,,,,,,,,,,,,,,,,,,,,,,,,,,,,,,,,,,,,,,,,,,,,,,,,,,,,,,,,,,,,,,,,,,,,,,,,,,,,,,,,,,,,,,,,,,,
,,5e8a66381afb2c714058b57b,2024-02-19_03h13.34.191,kallum_motion_pilot,2023.2.2,Win32,59.88023952,5e8a66381afb2c714058b57b,65d2b6c8f2eece985d8e374c,65d2b93a2a90e977bb6cd305,0.032,0.032,0,134,134,93,1,seveneight,,,,,,,,,,,,,,,,,,,,,,,,,,,,,,,,,,,,,,,,,,,,,,,,,,,,,,,,,,,,,,,,,,,,,,,,,,,,,,,,,,,,,,,,,,,,,,,,,,,,,,,,,,,,,,,,,,,,,,,,,,,,,,,,,,,,,,,,,
,,5e8a66381afb2c714058b57b,2024-02-19_03h13.34.191,kallum_motion_pilot,2023.2.2,Win32,59.88023952,5e8a66381afb2c714058b57b,65d2b6c8f2eece985d8e374c,65d2b93a2a90e977bb6cd305,0.032,0.0321,0,135,135,131,1,sixeight,,,,,,,,,,,,,,,,,,,,,,,,,,,,,,,,,,,,,,,,,,,,,,,,,,,,,,,,,,,,,,,,,,,,,,,,,,,,,,,,,,,,,,,,,,,,,,,,,,,,,,,,,,,,,,,,,,,,,,,,,,,,,,,,,,,,,,,,,
,,5e8a66381afb2c714058b57b,2024-02-19_03h13.34.191,kallum_motion_pilot,2023.2.2,Win32,59.88023952,5e8a66381afb2c714058b57b,65d2b6c8f2eece985d8e374c,65d2b93a2a90e977bb6cd305,0.0321,0.0321,0,136,136,118,1,eightsix,,,,,,,,,,,,,,,,,,,,,,,,,,,,,,,,,,,,,,,,,,,,,,,,,,,,,,,,,,,,,,,,,,,,,,,,,,,,,,,,,,,,,,,,,,,,,,,,,,,,,,,,,,,,,,,,,,,,,,,,,,,,,,,,,,,,,,,,,
,,5e8a66381afb2c714058b57b,2024-02-19_03h13.34.191,kallum_motion_pilot,2023.2.2,Win32,59.88023952,5e8a66381afb2c714058b57b,65d2b6c8f2eece985d8e374c,65d2b93a2a90e977bb6cd305,0.0321,0.0322,0,137,137,146,1,sixfive,,,,,,,,,,,,,,,,,,,,,,,,,,,,,,,,,,,,,,,,,,,,,,,,,,,,,,,,,,,,,,,,,,,,,,,,,,,,,,,,,,,,,,,,,,,,,,,,,,,,,,,,,,,,,,,,,,,,,,,,,,,,,,,,,,,,,,,,,
,,5e8a66381afb2c714058b57b,2024-02-19_03h13.34.191,kallum_motion_pilot,2023.2.2,Win32,59.88023952,5e8a66381afb2c714058b57b,65d2b6c8f2eece985d8e374c,65d2b93a2a90e977bb6cd305,0.0322,0.0322,0,138,138,159,1,eightseven,,,,,,,,,,,,,,,,,,,,,,,,,,,,,,,,,,,,,,,,,,,,,,,,,,,,,,,,,,,,,,,,,,,,,,,,,,,,,,,,,,,,,,,,,,,,,,,,,,,,,,,,,,,,,,,,,,,,,,,,,,,,,,,,,,,,,,,,,
,,5e8a66381afb2c714058b57b,2024-02-19_03h13.34.191,kallum_motion_pilot,2023.2.2,Win32,59.88023952,5e8a66381afb2c714058b57b,65d2b6c8f2eece985d8e374c,65d2b93a2a90e977bb6cd305,0.0323,0.0323,0,139,139,59,1,twofour,,,,,,,,,,,,,,,,,,,,,,,,,,,,,,,,,,,,,,,,,,,,,,,,,,,,,,,,,,,,,,,,,,,,,,,,,,,,,,,,,,,,,,,,,,,,,,,,,,,,,,,,,,,,,,,,,,,,,,,,,,,,,,,,,,,,,,,,,
,,5e8a66381afb2c714058b57b,2024-02-19_03h13.34.191,kallum_motion_pilot,2023.2.2,Win32,59.88023952,5e8a66381afb2c714058b57b,65d2b6c8f2eece985d8e374c,65d2b93a2a90e977bb6cd305,0.0323,0.0324,0,140,140,48,1,onetwo,,,,,,,,,,,,,,,,,,,,,,,,,,,,,,,,,,,,,,,,,,,,,,,,,,,,,,,,,,,,,,,,,,,,,,,,,,,,,,,,,,,,,,,,,,,,,,,,,,,,,,,,,,,,,,,,,,,,,,,,,,,,,,,,,,,,,,,,,
,,5e8a66381afb2c714058b57b,2024-02-19_03h13.34.191,kallum_motion_pilot,2023.2.2,Win32,59.88023952,5e8a66381afb2c714058b57b,65d2b6c8f2eece985d8e374c,65d2b93a2a90e977bb6cd305,0.0324,0.0324,0,141,141,85,1,seveneight,,,,,,,,,,,,,,,,,,,,,,,,,,,,,,,,,,,,,,,,,,,,,,,,,,,,,,,,,,,,,,,,,,,,,,,,,,,,,,,,,,,,,,,,,,,,,,,,,,,,,,,,,,,,,,,,,,,,,,,,,,,,,,,,,,,,,,,,,
,,5e8a66381afb2c714058b57b,2024-02-19_03h13.34.191,kallum_motion_pilot,2023.2.2,Win32,59.88023952,5e8a66381afb2c714058b57b,65d2b6c8f2eece985d8e374c,65d2b93a2a90e977bb6cd305,0.0325,0.0325,0,142,142,73,1,onethree,,,,,,,,,,,,,,,,,,,,,,,,,,,,,,,,,,,,,,,,,,,,,,,,,,,,,,,,,,,,,,,,,,,,,,,,,,,,,,,,,,,,,,,,,,,,,,,,,,,,,,,,,,,,,,,,,,,,,,,,,,,,,,,,,,,,,,,,,
,,5e8a66381afb2c714058b57b,2024-02-19_03h13.34.191,kallum_motion_pilot,2023.2.2,Win32,59.88023952,5e8a66381afb2c714058b57b,65d2b6c8f2eece985d8e374c,65d2b93a2a90e977bb6cd305,0.0325,0.0325,0,143,143,74,1,twoone,,,,,,,,,,,,,,,,,,,,,,,,,,,,,,,,,,,,,,,,,,,,,,,,,,,,,,,,,,,,,,,,,,,,,,,,,,,,,,,,,,,,,,,,,,,,,,,,,,,,,,,,,,,,,,,,,,,,,,,,,,,,,,,,,,,,,,,,,
,,5e8a66381afb2c714058b57b,2024-02-19_03h13.34.191,kallum_motion_pilot,2023.2.2,Win32,59.88023952,5e8a66381afb2c714058b57b,65d2b6c8f2eece985d8e374c,65d2b93a2a90e977bb6cd305,0.0326,0.0326,0,144,144,151,1,eightseven,,,,,,,,,,,,,,,,,,,,,,,,,,,,,,,,,,,,,,,,,,,,,,,,,,,,,,,,,,,,,,,,,,,,,,,,,,,,,,,,,,,,,,,,,,,,,,,,,,,,,,,,,,,,,,,,,,,,,,,,,,,,,,,,,,,,,,,,,
,,5e8a66381afb2c714058b57b,2024-02-19_03h13.34.191,kallum_motion_pilot,2023.2.2,Win32,59.88023952,5e8a66381afb2c714058b57b,65d2b6c8f2eece985d8e374c,65d2b93a2a90e977bb6cd305,0.0326,0.0327,0,145,145,109,1,seveneight,,,,,,,,,,,,,,,,,,,,,,,,,,,,,,,,,,,,,,,,,,,,,,,,,,,,,,,,,,,,,,,,,,,,,,,,,,,,,,,,,,,,,,,,,,,,,,,,,,,,,,,,,,,,,,,,,,,,,,,,,,,,,,,,,,,,,,,,,
,,5e8a66381afb2c714058b57b,2024-02-19_03h13.34.191,kallum_motion_pilot,2023.2.2,Win32,59.88023952,5e8a66381afb2c714058b57b,65d2b6c8f2eece985d8e374c,65d2b93a2a90e977bb6cd305,0.0327,0.0327,0,146,146,14,1,fourtwo,,,,,,,,,,,,,,,,,,,,,,,,,,,,,,,,,,,,,,,,,,,,,,,,,,,,,,,,,,,,,,,,,,,,,,,,,,,,,,,,,,,,,,,,,,,,,,,,,,,,,,,,,,,,,,,,,,,,,,,,,,,,,,,,,,,,,,,,,
,,5e8a66381afb2c714058b57b,2024-02-19_03h13.34.191,kallum_motion_pilot,2023.2.2,Win32,59.88023952,5e8a66381afb2c714058b57b,65d2b6c8f2eece985d8e374c,65d2b93a2a90e977bb6cd305,0.0328,0.0328,0,147,147,88,1,fivesix,,,,,,,,,,,,,,,,,,,,,,,,,,,,,,,,,,,,,,,,,,,,,,,,,,,,,,,,,,,,,,,,,,,,,,,,,,,,,,,,,,,,,,,,,,,,,,,,,,,,,,,,,,,,,,,,,,,,,,,,,,,,,,,,,,,,,,,,,
,,5e8a66381afb2c714058b57b,2024-02-19_03h13.34.191,kallum_motion_pilot,2023.2.2,Win32,59.88023952,5e8a66381afb2c714058b57b,65d2b6c8f2eece985d8e374c,65d2b93a2a90e977bb6cd305,0.0329,0.0329,0,148,148,67,1,twofour,,,,,,,,,,,,,,,,,,,,,,,,,,,,,,,,,,,,,,,,,,,,,,,,,,,,,,,,,,,,,,,,,,,,,,,,,,,,,,,,,,,,,,,,,,,,,,,,,,,,,,,,,,,,,,,,,,,,,,,,,,,,,,,,,,,,,,,,,
,,5e8a66381afb2c714058b57b,2024-02-19_03h13.34.191,kallum_motion_pilot,2023.2.2,Win32,59.88023952,5e8a66381afb2c714058b57b,65d2b6c8f2eece985d8e374c,65d2b93a2a90e977bb6cd305,0.0329,0.0329,0,149,149,110,1,eightsix,,,,,,,,,,,,,,,,,,,,,,,,,,,,,,,,,,,,,,,,,,,,,,,,,,,,,,,,,,,,,,,,,,,,,,,,,,,,,,,,,,,,,,,,,,,,,,,,,,,,,,,,,,,,,,,,,,,,,,,,,,,,,,,,,,,,,,,,,
,,5e8a66381afb2c714058b57b,2024-02-19_03h13.34.191,kallum_motion_pilot,2023.2.2,Win32,59.88023952,5e8a66381afb2c714058b57b,65d2b6c8f2eece985d8e374c,65d2b93a2a90e977bb6cd305,0.033,0.033,0,150,150,119,1,eightseven,,,,,,,,,,,,,,,,,,,,,,,,,,,,,,,,,,,,,,,,,,,,,,,,,,,,,,,,,,,,,,,,,,,,,,,,,,,,,,,,,,,,,,,,,,,,,,,,,,,,,,,,,,,,,,,,,,,,,,,,,,,,,,,,,,,,,,,,,
,,5e8a66381afb2c714058b57b,2024-02-19_03h13.34.191,kallum_motion_pilot,2023.2.2,Win32,59.88023952,5e8a66381afb2c714058b57b,65d2b6c8f2eece985d8e374c,65d2b93a2a90e977bb6cd305,0.033,0.0331,0,151,151,132,1,sevenfive,,,,,,,,,,,,,,,,,,,,,,,,,,,,,,,,,,,,,,,,,,,,,,,,,,,,,,,,,,,,,,,,,,,,,,,,,,,,,,,,,,,,,,,,,,,,,,,,,,,,,,,,,,,,,,,,,,,,,,,,,,,,,,,,,,,,,,,,,
,,5e8a66381afb2c714058b57b,2024-02-19_03h13.34.191,kallum_motion_pilot,2023.2.2,Win32,59.88023952,5e8a66381afb2c714058b57b,65d2b6c8f2eece985d8e374c,65d2b93a2a90e977bb6cd305,0.0331,0.0331,0,152,152,44,1,threeone,,,,,,,,,,,,,,,,,,,,,,,,,,,,,,,,,,,,,,,,,,,,,,,,,,,,,,,,,,,,,,,,,,,,,,,,,,,,,,,,,,,,,,,,,,,,,,,,,,,,,,,,,,,,,,,,,,,,,,,,,,,,,,,,,,,,,,,,,
,,5e8a66381afb2c714058b57b,2024-02-19_03h13.34.191,kallum_motion_pilot,2023.2.2,Win32,59.88023952,5e8a66381afb2c714058b57b,65d2b6c8f2eece985d8e374c,65d2b93a2a90e977bb6cd305,0.0332,0.0332,0,153,153,104,1,fivesix,,,,,,,,,,,,,,,,,,,,,,,,,,,,,,,,,,,,,,,,,,,,,,,,,,,,,,,,,,,,,,,,,,,,,,,,,,,,,,,,,,,,,,,,,,,,,,,,,,,,,,,,,,,,,,,,,,,,,,,,,,,,,,,,,,,,,,,,,
,,5e8a66381afb2c714058b57b,2024-02-19_03h13.34.191,kallum_motion_pilot,2023.2.2,Win32,59.88023952,5e8a66381afb2c714058b57b,65d2b6c8f2eece985d8e374c,65d2b93a2a90e977bb6cd305,0.0332,0.0332,0,154,154,29,1,threefour,,,,,,,,,,,,,,,,,,,,,,,,,,,,,,,,,,,,,,,,,,,,,,,,,,,,,,,,,,,,,,,,,,,,,,,,,,,,,,,,,,,,,,,,,,,,,,,,,,,,,,,,,,,,,,,,,,,,,,,,,,,,,,,,,,,,,,,,,
,,5e8a66381afb2c714058b57b,2024-02-19_03h13.34.191,kallum_motion_pilot,2023.2.2,Win32,59.88023952,5e8a66381afb2c714058b57b,65d2b6c8f2eece985d8e374c,65d2b93a2a90e977bb6cd305,0.0333,0.0333,0,155,155,134,1,eightsix,,,,,,,,,,,,,,,,,,,,,,,,,,,,,,,,,,,,,,,,,,,,,,,,,,,,,,,,,,,,,,,,,,,,,,,,,,,,,,,,,,,,,,,,,,,,,,,,,,,,,,,,,,,,,,,,,,,,,,,,,,,,,,,,,,,,,,,,,
,,5e8a66381afb2c714058b57b,2024-02-19_03h13.34.191,kallum_motion_pilot,2023.2.2,Win32,59.88023952,5e8a66381afb2c714058b57b,65d2b6c8f2eece985d8e374c,65d2b93a2a90e977bb6cd305,0.0333,0.0333,0,156,156,108,1,sevenfive,,,,,,,,,,,,,,,,,,,,,,,,,,,,,,,,,,,,,,,,,,,,,,,,,,,,,,,,,,,,,,,,,,,,,,,,,,,,,,,,,,,,,,,,,,,,,,,,,,,,,,,,,,,,,,,,,,,,,,,,,,,,,,,,,,,,,,,,,
,,5e8a66381afb2c714058b57b,2024-02-19_03h13.34.191,kallum_motion_pilot,2023.2.2,Win32,59.88023952,5e8a66381afb2c714058b57b,65d2b6c8f2eece985d8e374c,65d2b93a2a90e977bb6cd305,0.0334,0.0335,0,157,157,161,1,fiveseven,,,,,,,,,,,,,,,,,,,,,,,,,,,,,,,,,,,,,,,,,,,,,,,,,,,,,,,,,,,,,,,,,,,,,,,,,,,,,,,,,,,,,,,,,,,,,,,,,,,,,,,,,,,,,,,,,,,,,,,,,,,,,,,,,,,,,,,,,
,,5e8a66381afb2c714058b57b,2024-02-19_03h13.34.191,kallum_motion_pilot,2023.2.2,Win32,59.88023952,5e8a66381afb2c714058b57b,65d2b6c8f2eece985d8e374c,65d2b93a2a90e977bb6cd305,0.0335,0.0335,0,158,158,136,1,fivesix,,,,,,,,,,,,,,,,,,,,,,,,,,,,,,,,,,,,,,,,,,,,,,,,,,,,,,,,,,,,,,,,,,,,,,,,,,,,,,,,,,,,,,,,,,,,,,,,,,,,,,,,,,,,,,,,,,,,,,,,,,,,,,,,,,,,,,,,,
,,5e8a66381afb2c714058b57b,2024-02-19_03h13.34.191,kallum_motion_pilot,2023.2.2,Win32,59.88023952,5e8a66381afb2c714058b57b,65d2b6c8f2eece985d8e374c,65d2b93a2a90e977bb6cd305,0.0335,0.0336,0,159,159,40,1,onetwo,,,,,,,,,,,,,,,,,,,,,,,,,,,,,,,,,,,,,,,,,,,,,,,,,,,,,,,,,,,,,,,,,,,,,,,,,,,,,,,,,,,,,,,,,,,,,,,,,,,,,,,,,,,,,,,,,,,,,,,,,,,,,,,,,,,,,,,,,
,,5e8a66381afb2c714058b57b,2024-02-19_03h13.34.191,kallum_motion_pilot,2023.2.2,Win32,59.88023952,5e8a66381afb2c714058b57b,65d2b6c8f2eece985d8e374c,65d2b93a2a90e977bb6cd305,0.0336,0.0337,0,160,160,99,1,sixeight,,,,,,,,,,,,,,,,,,,,,,,,,,,,,,,,,,,,,,,,,,,,,,,,,,,,,,,,,,,,,,,,,,,,,,,,,,,,,,,,,,,,,,,,,,,,,,,,,,,,,,,,,,,,,,,,,,,,,,,,,,,,,,,,,,,,,,,,,
,,5e8a66381afb2c714058b57b,2024-02-19_03h13.34.191,kallum_motion_pilot,2023.2.2,Win32,59.88023952,5e8a66381afb2c714058b57b,65d2b6c8f2eece985d8e374c,65d2b93a2a90e977bb6cd305,0.0337,0.0337,0,161,161,72,1,onetwo,,,,,,,,,,,,,,,,,,,,,,,,,,,,,,,,,,,,,,,,,,,,,,,,,,,,,,,,,,,,,,,,,,,,,,,,,,,,,,,,,,,,,,,,,,,,,,,,,,,,,,,,,,,,,,,,,,,,,,,,,,,,,,,,,,,,,,,,,
,,5e8a66381afb2c714058b57b,2024-02-19_03h13.34.191,kallum_motion_pilot,2023.2.2,Win32,59.88023952,5e8a66381afb2c714058b57b,65d2b6c8f2eece985d8e374c,65d2b93a2a90e977bb6cd305,0.0337,0.0338,1,0,162,136,1,fivesix,,,,,,,,,,,,,,,,,,,,,,,,,,,,,,,,,,,,,,,,,,,,,,,,,,,,,,,,,,,,,,,,,,,,,,,,,,,,,,,,,,,,,,,,,,,,,,,,,,,,,,,,,,,,,,,,,,,,,,,,,,,,,,,,,,,,,,,,,
,,5e8a66381afb2c714058b57b,2024-02-19_03h13.34.191,kallum_motion_pilot,2023.2.2,Win32,59.88023952,5e8a66381afb2c714058b57b,65d2b6c8f2eece985d8e374c,65d2b93a2a90e977bb6cd305,0.0338,0.0338,1,1,163,51,1,twofour,,,,,,,,,,,,,,,,,,,,,,,,,,,,,,,,,,,,,,,,,,,,,,,,,,,,,,,,,,,,,,,,,,,,,,,,,,,,,,,,,,,,,,,,,,,,,,,,,,,,,,,,,,,,,,,,,,,,,,,,,,,,,,,,,,,,,,,,,
,,5e8a66381afb2c714058b57b,2024-02-19_03h13.34.191,kallum_motion_pilot,2023.2.2,Win32,59.88023952,5e8a66381afb2c714058b57b,65d2b6c8f2eece985d8e374c,65d2b93a2a90e977bb6cd305,0.0339,0.0339,1,2,164,99,1,sixeight,,,,,,,,,,,,,,,,,,,,,,,,,,,,,,,,,,,,,,,,,,,,,,,,,,,,,,,,,,,,,,,,,,,,,,,,,,,,,,,,,,,,,,,,,,,,,,,,,,,,,,,,,,,,,,,,,,,,,,,,,,,,,,,,,,,,,,,,,
,,5e8a66381afb2c714058b57b,2024-02-19_03h13.34.191,kallum_motion_pilot,2023.2.2,Win32,59.88023952,5e8a66381afb2c714058b57b,65d2b6c8f2eece985d8e374c,65d2b93a2a90e977bb6cd305,0.0339,0.034,1,3,165,155,1,sixeight,,,,,,,,,,,,,,,,,,,,,,,,,,,,,,,,,,,,,,,,,,,,,,,,,,,,,,,,,,,,,,,,,,,,,,,,,,,,,,,,,,,,,,,,,,,,,,,,,,,,,,,,,,,,,,,,,,,,,,,,,,,,,,,,,,,,,,,,,
,,5e8a66381afb2c714058b57b,2024-02-19_03h13.34.191,kallum_motion_pilot,2023.2.2,Win32,59.88023952,5e8a66381afb2c714058b57b,65d2b6c8f2eece985d8e374c,65d2b93a2a90e977bb6cd305,0.034,0.034,1,4,166,118,1,eightsix,,,,,,,,,,,,,,,,,,,,,,,,,,,,,,,,,,,,,,,,,,,,,,,,,,,,,,,,,,,,,,,,,,,,,,,,,,,,,,,,,,,,,,,,,,,,,,,,,,,,,,,,,,,,,,,,,,,,,,,,,,,,,,,,,,,,,,,,,
,,5e8a66381afb2c714058b57b,2024-02-19_03h13.34.191,kallum_motion_pilot,2023.2.2,Win32,59.88023952,5e8a66381afb2c714058b57b,65d2b6c8f2eece985d8e374c,65d2b93a2a90e977bb6cd305,0.0341,0.0341,1,5,167,65,1,onethree,,,,,,,,,,,,,,,,,,,,,,,,,,,,,,,,,,,,,,,,,,,,,,,,,,,,,,,,,,,,,,,,,,,,,,,,,,,,,,,,,,,,,,,,,,,,,,,,,,,,,,,,,,,,,,,,,,,,,,,,,,,,,,,,,,,,,,,,,
,,5e8a66381afb2c714058b57b,2024-02-19_03h13.34.191,kallum_motion_pilot,2023.2.2,Win32,59.88023952,5e8a66381afb2c714058b57b,65d2b6c8f2eece985d8e374c,65d2b93a2a90e977bb6cd305,0.0342,0.0342,1,6,168,147,1,sixeight,,,,,,,,,,,,,,,,,,,,,,,,,,,,,,,,,,,,,,,,,,,,,,,,,,,,,,,,,,,,,,,,,,,,,,,,,,,,,,,,,,,,,,,,,,,,,,,,,,,,,,,,,,,,,,,,,,,,,,,,,,,,,,,,,,,,,,,,,
,,5e8a66381afb2c714058b57b,2024-02-19_03h13.34.191,kallum_motion_pilot,2023.2.2,Win32,59.88023952,5e8a66381afb2c714058b57b,65d2b6c8f2eece985d8e374c,65d2b93a2a90e977bb6cd305,0.0343,0.0343,1,7,169,72,1,onetwo,,,,,,,,,,,,,,,,,,,,,,,,,,,,,,,,,,,,,,,,,,,,,,,,,,,,,,,,,,,,,,,,,,,,,,,,,,,,,,,,,,,,,,,,,,,,,,,,,,,,,,,,,,,,,,,,,,,,,,,,,,,,,,,,,,,,,,,,,
,,5e8a66381afb2c714058b57b,2024-02-19_03h13.34.191,kallum_motion_pilot,2023.2.2,Win32,59.88023952,5e8a66381afb2c714058b57b,65d2b6c8f2eece985d8e374c,65d2b93a2a90e977bb6cd305,0.0343,0.0343,1,8,170,22,1,fourtwo,,,,,,,,,,,,,,,,,,,,,,,,,,,,,,,,,,,,,,,,,,,,,,,,,,,,,,,,,,,,,,,,,,,,,,,,,,,,,,,,,,,,,,,,,,,,,,,,,,,,,,,,,,,,,,,,,,,,,,,,,,,,,,,,,,,,,,,,,
,,5e8a66381afb2c714058b57b,2024-02-19_03h13.34.191,kallum_motion_pilot,2023.2.2,Win32,59.88023952,5e8a66381afb2c714058b57b,65d2b6c8f2eece985d8e374c,65d2b93a2a90e977bb6cd305,0.0343,0.0343,1,9,171,119,1,eightseven,,,,,,,,,,,,,,,,,,,,,,,,,,,,,,,,,,,,,,,,,,,,,,,,,,,,,,,,,,,,,,,,,,,,,,,,,,,,,,,,,,,,,,,,,,,,,,,,,,,,,,,,,,,,,,,,,,,,,,,,,,,,,,,,,,,,,,,,,
,,5e8a66381afb2c714058b57b,2024-02-19_03h13.34.191,kallum_motion_pilot,2023.2.2,Win32,59.88023952,5e8a66381afb2c714058b57b,65d2b6c8f2eece985d8e374c,65d2b93a2a90e977bb6cd305,0.0344,0.0345,1,10,172,60,1,threeone,,,,,,,,,,,,,,,,,,,,,,,,,,,,,,,,,,,,,,,,,,,,,,,,,,,,,,,,,,,,,,,,,,,,,,,,,,,,,,,,,,,,,,,,,,,,,,,,,,,,,,,,,,,,,,,,,,,,,,,,,,,,,,,,,,,,,,,,,
,,5e8a66381afb2c714058b57b,2024-02-19_03h13.34.191,kallum_motion_pilot,2023.2.2,Win32,59.88023952,5e8a66381afb2c714058b57b,65d2b6c8f2eece985d8e374c,65d2b93a2a90e977bb6cd305,0.0345,0.0345,1,11,173,91,1,sixeight,,,,,,,,,,,,,,,,,,,,,,,,,,,,,,,,,,,,,,,,,,,,,,,,,,,,,,,,,,,,,,,,,,,,,,,,,,,,,,,,,,,,,,,,,,,,,,,,,,,,,,,,,,,,,,,,,,,,,,,,,,,,,,,,,,,,,,,,,
,,5e8a66381afb2c714058b57b,2024-02-19_03h13.34.191,kallum_motion_pilot,2023.2.2,Win32,59.88023952,5e8a66381afb2c714058b57b,65d2b6c8f2eece985d8e374c,65d2b93a2a90e977bb6cd305,0.0345,0.0345,1,12,174,71,1,fourthree,,,,,,,,,,,,,,,,,,,,,,,,,,,,,,,,,,,,,,,,,,,,,,,,,,,,,,,,,,,,,,,,,,,,,,,,,,,,,,,,,,,,,,,,,,,,,,,,,,,,,,,,,,,,,,,,,,,,,,,,,,,,,,,,,,,,,,,,,
,,5e8a66381afb2c714058b57b,2024-02-19_03h13.34.191,kallum_motion_pilot,2023.2.2,Win32,59.88023952,5e8a66381afb2c714058b57b,65d2b6c8f2eece985d8e374c,65d2b93a2a90e977bb6cd305,0.0346,0.0346,1,13,175,48,1,onetwo,,,,,,,,,,,,,,,,,,,,,,,,,,,,,,,,,,,,,,,,,,,,,,,,,,,,,,,,,,,,,,,,,,,,,,,,,,,,,,,,,,,,,,,,,,,,,,,,,,,,,,,,,,,,,,,,,,,,,,,,,,,,,,,,,,,,,,,,,
,,5e8a66381afb2c714058b57b,2024-02-19_03h13.34.191,kallum_motion_pilot,2023.2.2,Win32,59.88023952,5e8a66381afb2c714058b57b,65d2b6c8f2eece985d8e374c,65d2b93a2a90e977bb6cd305,0.0347,0.0347,1,14,176,75,1,twofour,,,,,,,,,,,,,,,,,,,,,,,,,,,,,,,,,,,,,,,,,,,,,,,,,,,,,,,,,,,,,,,,,,,,,,,,,,,,,,,,,,,,,,,,,,,,,,,,,,,,,,,,,,,,,,,,,,,,,,,,,,,,,,,,,,,,,,,,,
,,5e8a66381afb2c714058b57b,2024-02-19_03h13.34.191,kallum_motion_pilot,2023.2.2,Win32,59.88023952,5e8a66381afb2c714058b57b,65d2b6c8f2eece985d8e374c,65d2b93a2a90e977bb6cd305,0.0348,0.0348,1,15,177,69,1,threefour,,,,,,,,,,,,,,,,,,,,,,,,,,,,,,,,,,,,,,,,,,,,,,,,,,,,,,,,,,,,,,,,,,,,,,,,,,,,,,,,,,,,,,,,,,,,,,,,,,,,,,,,,,,,,,,,,,,,,,,,,,,,,,,,,,,,,,,,,
,,5e8a66381afb2c714058b57b,2024-02-19_03h13.34.191,kallum_motion_pilot,2023.2.2,Win32,59.88023952,5e8a66381afb2c714058b57b,65d2b6c8f2eece985d8e374c,65d2b93a2a90e977bb6cd305,0.0348,0.0349,1,16,178,41,1,onethree,,,,,,,,,,,,,,,,,,,,,,,,,,,,,,,,,,,,,,,,,,,,,,,,,,,,,,,,,,,,,,,,,,,,,,,,,,,,,,,,,,,,,,,,,,,,,,,,,,,,,,,,,,,,,,,,,,,,,,,,,,,,,,,,,,,,,,,,,
,,5e8a66381afb2c714058b57b,2024-02-19_03h13.34.191,kallum_motion_pilot,2023.2.2,Win32,59.88023952,5e8a66381afb2c714058b57b,65d2b6c8f2eece985d8e374c,65d2b93a2a90e977bb6cd305,0.0349,0.0349,1,17,179,161,1,fiveseven,,,,,,,,,,,,,,,,,,,,,,,,,,,,,,,,,,,,,,,,,,,,,,,,,,,,,,,,,,,,,,,,,,,,,,,,,,,,,,,,,,,,,,,,,,,,,,,,,,,,,,,,,,,,,,,,,,,,,,,,,,,,,,,,,,,,,,,,,
,,5e8a66381afb2c714058b57b,2024-02-19_03h13.34.191,kallum_motion_pilot,2023.2.2,Win32,59.88023952,5e8a66381afb2c714058b57b,65d2b6c8f2eece985d8e374c,65d2b93a2a90e977bb6cd305,0.0349,0.035,1,18,180,37,1,threefour,,,,,,,,,,,,,,,,,,,,,,,,,,,,,,,,,,,,,,,,,,,,,,,,,,,,,,,,,,,,,,,,,,,,,,,,,,,,,,,,,,,,,,,,,,,,,,,,,,,,,,,,,,,,,,,,,,,,,,,,,,,,,,,,,,,,,,,,,
,,5e8a66381afb2c714058b57b,2024-02-19_03h13.34.191,kallum_motion_pilot,2023.2.2,Win32,59.88023952,5e8a66381afb2c714058b57b,65d2b6c8f2eece985d8e374c,65d2b93a2a90e977bb6cd305,0.035,0.035,1,19,181,15,1,fourthree,,,,,,,,,,,,,,,,,,,,,,,,,,,,,,,,,,,,,,,,,,,,,,,,,,,,,,,,,,,,,,,,,,,,,,,,,,,,,,,,,,,,,,,,,,,,,,,,,,,,,,,,,,,,,,,,,,,,,,,,,,,,,,,,,,,,,,,,,
,,5e8a66381afb2c714058b57b,2024-02-19_03h13.34.191,kallum_motion_pilot,2023.2.2,Win32,59.88023952,5e8a66381afb2c714058b57b,65d2b6c8f2eece985d8e374c,65d2b93a2a90e977bb6cd305,0.0351,0.0352,1,20,182,132,1,sevenfive,,,,,,,,,,,,,,,,,,,,,,,,,,,,,,,,,,,,,,,,,,,,,,,,,,,,,,,,,,,,,,,,,,,,,,,,,,,,,,,,,,,,,,,,,,,,,,,,,,,,,,,,,,,,,,,,,,,,,,,,,,,,,,,,,,,,,,,,,
,,5e8a66381afb2c714058b57b,2024-02-19_03h13.34.191,kallum_motion_pilot,2023.2.2,Win32,59.88023952,5e8a66381afb2c714058b57b,65d2b6c8f2eece985d8e374c,65d2b93a2a90e977bb6cd305,0.0352,0.0352,1,21,183,144,1,fivesix,,,,,,,,,,,,,,,,,,,,,,,,,,,,,,,,,,,,,,,,,,,,,,,,,,,,,,,,,,,,,,,,,,,,,,,,,,,,,,,,,,,,,,,,,,,,,,,,,,,,,,,,,,,,,,,,,,,,,,,,,,,,,,,,,,,,,,,,,
,,5e8a66381afb2c714058b57b,2024-02-19_03h13.34.191,kallum_motion_pilot,2023.2.2,Win32,59.88023952,5e8a66381afb2c714058b57b,65d2b6c8f2eece985d8e374c,65d2b93a2a90e977bb6cd305,0.0353,0.0353,1,22,184,115,1,sixeight,,,,,,,,,,,,,,,,,,,,,,,,,,,,,,,,,,,,,,,,,,,,,,,,,,,,,,,,,,,,,,,,,,,,,,,,,,,,,,,,,,,,,,,,,,,,,,,,,,,,,,,,,,,,,,,,,,,,,,,,,,,,,,,,,,,,,,,,,
,,5e8a66381afb2c714058b57b,2024-02-19_03h13.34.191,kallum_motion_pilot,2023.2.2,Win32,59.88023952,5e8a66381afb2c714058b57b,65d2b6c8f2eece985d8e374c,65d2b93a2a90e977bb6cd305,0.0353,0.0354,1,23,185,57,1,onethree,,,,,,,,,,,,,,,,,,,,,,,,,,,,,,,,,,,,,,,,,,,,,,,,,,,,,,,,,,,,,,,,,,,,,,,,,,,,,,,,,,,,,,,,,,,,,,,,,,,,,,,,,,,,,,,,,,,,,,,,,,,,,,,,,,,,,,,,,
,,5e8a66381afb2c714058b57b,2024-02-19_03h13.34.191,kallum_motion_pilot,2023.2.2,Win32,59.88023952,5e8a66381afb2c714058b57b,65d2b6c8f2eece985d8e374c,65d2b93a2a90e977bb6cd305,0.0354,0.0354,1,24,186,106,1,sixfive,,,,,,,,,,,,,,,,,,,,,,,,,,,,,,,,,,,,,,,,,,,,,,,,,,,,,,,,,,,,,,,,,,,,,,,,,,,,,,,,,,,,,,,,,,,,,,,,,,,,,,,,,,,,,,,,,,,,,,,,,,,,,,,,,,,,,,,,,
,,5e8a66381afb2c714058b57b,2024-02-19_03h13.34.191,kallum_motion_pilot,2023.2.2,Win32,59.88023952,5e8a66381afb2c714058b57b,65d2b6c8f2eece985d8e374c,65d2b93a2a90e977bb6cd305,0.0354,0.0355,1,25,187,87,1,eightseven,,,,,,,,,,,,,,,,,,,,,,,,,,,,,,,,,,,,,,,,,,,,,,,,,,,,,,,,,,,,,,,,,,,,,,,,,,,,,,,,,,,,,,,,,,,,,,,,,,,,,,,,,,,,,,,,,,,,,,,,,,,,,,,,,,,,,,,,,
,,5e8a66381afb2c714058b57b,2024-02-19_03h13.34.191,kallum_motion_pilot,2023.2.2,Win32,59.88023952,5e8a66381afb2c714058b57b,65d2b6c8f2eece985d8e374c,65d2b93a2a90e977bb6cd305,0.0355,0.0355,1,26,188,1,1,onethree,,,,,,,,,,,,,,,,,,,,,,,,,,,,,,,,,,,,,,,,,,,,,,,,,,,,,,,,,,,,,,,,,,,,,,,,,,,,,,,,,,,,,,,,,,,,,,,,,,,,,,,,,,,,,,,,,,,,,,,,,,,,,,,,,,,,,,,,,
,,5e8a66381afb2c714058b57b,2024-02-19_03h13.34.191,kallum_motion_pilot,2023.2.2,Win32,59.88023952,5e8a66381afb2c714058b57b,65d2b6c8f2eece985d8e374c,65d2b93a2a90e977bb6cd305,0.0356,0.0356,1,27,189,138,1,sixfive,,,,,,,,,,,,,,,,,,,,,,,,,,,,,,,,,,,,,,,,,,,,,,,,,,,,,,,,,,,,,,,,,,,,,,,,,,,,,,,,,,,,,,,,,,,,,,,,,,,,,,,,,,,,,,,,,,,,,,,,,,,,,,,,,,,,,,,,,
,,5e8a66381afb2c714058b57b,2024-02-19_03h13.34.191,kallum_motion_pilot,2023.2.2,Win32,59.88023952,5e8a66381afb2c714058b57b,65d2b6c8f2eece985d8e374c,65d2b93a2a90e977bb6cd305,0.0356,0.0357,1,28,190,5,1,threefour,,,,,,,,,,,,,,,,,,,,,,,,,,,,,,,,,,,,,,,,,,,,,,,,,,,,,,,,,,,,,,,,,,,,,,,,,,,,,,,,,,,,,,,,,,,,,,,,,,,,,,,,,,,,,,,,,,,,,,,,,,,,,,,,,,,,,,,,,
,,5e8a66381afb2c714058b57b,2024-02-19_03h13.34.191,kallum_motion_pilot,2023.2.2,Win32,59.88023952,5e8a66381afb2c714058b57b,65d2b6c8f2eece985d8e374c,65d2b93a2a90e977bb6cd305,0.0358,0.0358,1,29,191,154,1,sixfive,,,,,,,,,,,,,,,,,,,,,,,,,,,,,,,,,,,,,,,,,,,,,,,,,,,,,,,,,,,,,,,,,,,,,,,,,,,,,,,,,,,,,,,,,,,,,,,,,,,,,,,,,,,,,,,,,,,,,,,,,,,,,,,,,,,,,,,,,
,,5e8a66381afb2c714058b57b,2024-02-19_03h13.34.191,kallum_motion_pilot,2023.2.2,Win32,59.88023952,5e8a66381afb2c714058b57b,65d2b6c8f2eece985d8e374c,65d2b93a2a90e977bb6cd305,0.0358,0.0358,1,30,192,70,1,fourtwo,,,,,,,,,,,,,,,,,,,,,,,,,,,,,,,,,,,,,,,,,,,,,,,,,,,,,,,,,,,,,,,,,,,,,,,,,,,,,,,,,,,,,,,,,,,,,,,,,,,,,,,,,,,,,,,,,,,,,,,,,,,,,,,,,,,,,,,,,
,,5e8a66381afb2c714058b57b,2024-02-19_03h13.34.191,kallum_motion_pilot,2023.2.2,Win32,59.88023952,5e8a66381afb2c714058b57b,65d2b6c8f2eece985d8e374c,65d2b93a2a90e977bb6cd305,0.0359,0.0359,1,31,193,101,1,seveneight,,,,,,,,,,,,,,,,,,,,,,,,,,,,,,,,,,,,,,,,,,,,,,,,,,,,,,,,,,,,,,,,,,,,,,,,,,,,,,,,,,,,,,,,,,,,,,,,,,,,,,,,,,,,,,,,,,,,,,,,,,,,,,,,,,,,,,,,,
,,5e8a66381afb2c714058b57b,2024-02-19_03h13.34.191,kallum_motion_pilot,2023.2.2,Win32,59.88023952,5e8a66381afb2c714058b57b,65d2b6c8f2eece985d8e374c,65d2b93a2a90e977bb6cd305,0.0359,0.036,1,32,194,104,1,fivesix,,,,,,,,,,,,,,,,,,,,,,,,,,,,,,,,,,,,,,,,,,,,,,,,,,,,,,,,,,,,,,,,,,,,,,,,,,,,,,,,,,,,,,,,,,,,,,,,,,,,,,,,,,,,,,,,,,,,,,,,,,,,,,,,,,,,,,,,,
,,5e8a66381afb2c714058b57b,2024-02-19_03h13.34.191,kallum_motion_pilot,2023.2.2,Win32,59.88023952,5e8a66381afb2c714058b57b,65d2b6c8f2eece985d8e374c,65d2b93a2a90e977bb6cd305,0.0361,0.0361,1,33,195,59,1,twofour,,,,,,,,,,,,,,,,,,,,,,,,,,,,,,,,,,,,,,,,,,,,,,,,,,,,,,,,,,,,,,,,,,,,,,,,,,,,,,,,,,,,,,,,,,,,,,,,,,,,,,,,,,,,,,,,,,,,,,,,,,,,,,,,,,,,,,,,,
,,5e8a66381afb2c714058b57b,2024-02-19_03h13.34.191,kallum_motion_pilot,2023.2.2,Win32,59.88023952,5e8a66381afb2c714058b57b,65d2b6c8f2eece985d8e374c,65d2b93a2a90e977bb6cd305,0.0361,0.0362,1,34,196,94,1,eightsix,,,,,,,,,,,,,,,,,,,,,,,,,,,,,,,,,,,,,,,,,,,,,,,,,,,,,,,,,,,,,,,,,,,,,,,,,,,,,,,,,,,,,,,,,,,,,,,,,,,,,,,,,,,,,,,,,,,,,,,,,,,,,,,,,,,,,,,,,
,,5e8a66381afb2c714058b57b,2024-02-19_03h13.34.191,kallum_motion_pilot,2023.2.2,Win32,59.88023952,5e8a66381afb2c714058b57b,65d2b6c8f2eece985d8e374c,65d2b93a2a90e977bb6cd305,0.0362,0.0362,1,35,197,141,1,seveneight,,,,,,,,,,,,,,,,,,,,,,,,,,,,,,,,,,,,,,,,,,,,,,,,,,,,,,,,,,,,,,,,,,,,,,,,,,,,,,,,,,,,,,,,,,,,,,,,,,,,,,,,,,,,,,,,,,,,,,,,,,,,,,,,,,,,,,,,,
,,5e8a66381afb2c714058b57b,2024-02-19_03h13.34.191,kallum_motion_pilot,2023.2.2,Win32,59.88023952,5e8a66381afb2c714058b57b,65d2b6c8f2eece985d8e374c,65d2b93a2a90e977bb6cd305,0.0363,0.0363,1,36,198,29,1,threefour,,,,,,,,,,,,,,,,,,,,,,,,,,,,,,,,,,,,,,,,,,,,,,,,,,,,,,,,,,,,,,,,,,,,,,,,,,,,,,,,,,,,,,,,,,,,,,,,,,,,,,,,,,,,,,,,,,,,,,,,,,,,,,,,,,,,,,,,,
,,5e8a66381afb2c714058b57b,2024-02-19_03h13.34.191,kallum_motion_pilot,2023.2.2,Win32,59.88023952,5e8a66381afb2c714058b57b,65d2b6c8f2eece985d8e374c,65d2b93a2a90e977bb6cd305,0.0363,0.0363,1,37,199,139,1,sixeight,,,,,,,,,,,,,,,,,,,,,,,,,,,,,,,,,,,,,,,,,,,,,,,,,,,,,,,,,,,,,,,,,,,,,,,,,,,,,,,,,,,,,,,,,,,,,,,,,,,,,,,,,,,,,,,,,,,,,,,,,,,,,,,,,,,,,,,,,
,,5e8a66381afb2c714058b57b,2024-02-19_03h13.34.191,kallum_motion_pilot,2023.2.2,Win32,59.88023952,5e8a66381afb2c714058b57b,65d2b6c8f2eece985d8e374c,65d2b93a2a90e977bb6cd305,0.0364,0.0364,1,38,200,156,1,sevenfive,,,,,,,,,,,,,,,,,,,,,,,,,,,,,,,,,,,,,,,,,,,,,,,,,,,,,,,,,,,,,,,,,,,,,,,,,,,,,,,,,,,,,,,,,,,,,,,,,,,,,,,,,,,,,,,,,,,,,,,,,,,,,,,,,,,,,,,,,
,,5e8a66381afb2c714058b57b,2024-02-19_03h13.34.191,kallum_motion_pilot,2023.2.2,Win32,59.88023952,5e8a66381afb2c714058b57b,65d2b6c8f2eece985d8e374c,65d2b93a2a90e977bb6cd305,0.0365,0.0365,1,39,201,90,1,sixfive,,,,,,,,,,,,,,,,,,,,,,,,,,,,,,,,,,,,,,,,,,,,,,,,,,,,,,,,,,,,,,,,,,,,,,,,,,,,,,,,,,,,,,,,,,,,,,,,,,,,,,,,,,,,,,,,,,,,,,,,,,,,,,,,,,,,,,,,,
,,5e8a66381afb2c714058b57b,2024-02-19_03h13.34.191,kallum_motion_pilot,2023.2.2,Win32,59.88023952,5e8a66381afb2c714058b57b,65d2b6c8f2eece985d8e374c,65d2b93a2a90e977bb6cd305,0.0365,0.0366,1,40,202,52,1,threeone,,,,,,,,,,,,,,,,,,,,,,,,,,,,,,,,,,,,,,,,,,,,,,,,,,,,,,,,,,,,,,,,,,,,,,,,,,,,,,,,,,,,,,,,,,,,,,,,,,,,,,,,,,,,,,,,,,,,,,,,,,,,,,,,,,,,,,,,,
,,5e8a66381afb2c714058b57b,2024-02-19_03h13.34.191,kallum_motion_pilot,2023.2.2,Win32,59.88023952,5e8a66381afb2c714058b57b,65d2b6c8f2eece985d8e374c,65d2b93a2a90e977bb6cd305,0.0366,0.0366,1,41,203,20,1,threeone,,,,,,,,,,,,,,,,,,,,,,,,,,,,,,,,,,,,,,,,,,,,,,,,,,,,,,,,,,,,,,,,,,,,,,,,,,,,,,,,,,,,,,,,,,,,,,,,,,,,,,,,,,,,,,,,,,,,,,,,,,,,,,,,,,,,,,,,,
,,5e8a66381afb2c714058b57b,2024-02-19_03h13.34.191,kallum_motion_pilot,2023.2.2,Win32,59.88023952,5e8a66381afb2c714058b57b,65d2b6c8f2eece985d8e374c,65d2b93a2a90e977bb6cd305,0.0367,0.0367,1,42,204,42,1,twoone,,,,,,,,,,,,,,,,,,,,,,,,,,,,,,,,,,,,,,,,,,,,,,,,,,,,,,,,,,,,,,,,,,,,,,,,,,,,,,,,,,,,,,,,,,,,,,,,,,,,,,,,,,,,,,,,,,,,,,,,,,,,,,,,,,,,,,,,,
,,5e8a66381afb2c714058b57b,2024-02-19_03h13.34.191,kallum_motion_pilot,2023.2.2,Win32,59.88023952,5e8a66381afb2c714058b57b,65d2b6c8f2eece985d8e374c,65d2b93a2a90e977bb6cd305,0.0367,0.0368,1,43,205,129,1,fiveseven,,,,,,,,,,,,,,,,,,,,,,,,,,,,,,,,,,,,,,,,,,,,,,,,,,,,,,,,,,,,,,,,,,,,,,,,,,,,,,,,,,,,,,,,,,,,,,,,,,,,,,,,,,,,,,,,,,,,,,,,,,,,,,,,,,,,,,,,,
,,5e8a66381afb2c714058b57b,2024-02-19_03h13.34.191,kallum_motion_pilot,2023.2.2,Win32,59.88023952,5e8a66381afb2c714058b57b,65d2b6c8f2eece985d8e374c,65d2b93a2a90e977bb6cd305,0.0368,0.0368,1,44,206,21,1,threefour,,,,,,,,,,,,,,,,,,,,,,,,,,,,,,,,,,,,,,,,,,,,,,,,,,,,,,,,,,,,,,,,,,,,,,,,,,,,,,,,,,,,,,,,,,,,,,,,,,,,,,,,,,,,,,,,,,,,,,,,,,,,,,,,,,,,,,,,,
,,5e8a66381afb2c714058b57b,2024-02-19_03h13.34.191,kallum_motion_pilot,2023.2.2,Win32,59.88023952,5e8a66381afb2c714058b57b,65d2b6c8f2eece985d8e374c,65d2b93a2a90e977bb6cd305,0.0369,0.0369,1,45,207,131,1,sixeight,,,,,,,,,,,,,,,,,,,,,,,,,,,,,,,,,,,,,,,,,,,,,,,,,,,,,,,,,,,,,,,,,,,,,,,,,,,,,,,,,,,,,,,,,,,,,,,,,,,,,,,,,,,,,,,,,,,,,,,,,,,,,,,,,,,,,,,,,
,,5e8a66381afb2c714058b57b,2024-02-19_03h13.34.191,kallum_motion_pilot,2023.2.2,Win32,59.88023952,5e8a66381afb2c714058b57b,65d2b6c8f2eece985d8e374c,65d2b93a2a90e977bb6cd305,0.037,0.037,1,46,208,62,1,fourtwo,,,,,,,,,,,,,,,,,,,,,,,,,,,,,,,,,,,,,,,,,,,,,,,,,,,,,,,,,,,,,,,,,,,,,,,,,,,,,,,,,,,,,,,,,,,,,,,,,,,,,,,,,,,,,,,,,,,,,,,,,,,,,,,,,,,,,,,,,
,,5e8a66381afb2c714058b57b,2024-02-19_03h13.34.191,kallum_motion_pilot,2023.2.2,Win32,59.88023952,5e8a66381afb2c714058b57b,65d2b6c8f2eece985d8e374c,65d2b93a2a90e977bb6cd305,0.0371,0.0371,1,47,209,125,1,seveneight,,,,,,,,,,,,,,,,,,,,,,,,,,,,,,,,,,,,,,,,,,,,,,,,,,,,,,,,,,,,,,,,,,,,,,,,,,,,,,,,,,,,,,,,,,,,,,,,,,,,,,,,,,,,,,,,,,,,,,,,,,,,,,,,,,,,,,,,,
,,5e8a66381afb2c714058b57b,2024-02-19_03h13.34.191,kallum_motion_pilot,2023.2.2,Win32,59.88023952,5e8a66381afb2c714058b57b,65d2b6c8f2eece985d8e374c,65d2b93a2a90e977bb6cd305,0.0371,0.0371,1,48,210,8,1,onetwo,,,,,,,,,,,,,,,,,,,,,,,,,,,,,,,,,,,,,,,,,,,,,,,,,,,,,,,,,,,,,,,,,,,,,,,,,,,,,,,,,,,,,,,,,,,,,,,,,,,,,,,,,,,,,,,,,,,,,,,,,,,,,,,,,,,,,,,,,
,,5e8a66381afb2c714058b57b,2024-02-19_03h13.34.191,kallum_motion_pilot,2023.2.2,Win32,59.88023952,5e8a66381afb2c714058b57b,65d2b6c8f2eece985d8e374c,65d2b93a2a90e977bb6cd305,0.0372,0.0372,1,49,211,58,1,twoone,,,,,,,,,,,,,,,,,,,,,,,,,,,,,,,,,,,,,,,,,,,,,,,,,,,,,,,,,,,,,,,,,,,,,,,,,,,,,,,,,,,,,,,,,,,,,,,,,,,,,,,,,,,,,,,,,,,,,,,,,,,,,,,,,,,,,,,,,
,,5e8a66381afb2c714058b57b,2024-02-19_03h13.34.191,kallum_motion_pilot,2023.2.2,Win32,59.88023952,5e8a66381afb2c714058b57b,65d2b6c8f2eece985d8e374c,65d2b93a2a90e977bb6cd305,0.0373,0.0373,1,50,212,35,1,twofour,,,,,,,,,,,,,,,,,,,,,,,,,,,,,,,,,,,,,,,,,,,,,,,,,,,,,,,,,,,,,,,,,,,,,,,,,,,,,,,,,,,,,,,,,,,,,,,,,,,,,,,,,,,,,,,,,,,,,,,,,,,,,,,,,,,,,,,,,
,,5e8a66381afb2c714058b57b,2024-02-19_03h13.34.191,kallum_motion_pilot,2023.2.2,Win32,59.88023952,5e8a66381afb2c714058b57b,65d2b6c8f2eece985d8e374c,65d2b93a2a90e977bb6cd305,0.0373,0.0373,1,51,213,83,1,sixeight,,,,,,,,,,,,,,,,,,,,,,,,,,,,,,,,,,,,,,,,,,,,,,,,,,,,,,,,,,,,,,,,,,,,,,,,,,,,,,,,,,,,,,,,,,,,,,,,,,,,,,,,,,,,,,,,,,,,,,,,,,,,,,,,,,,,,,,,,
,,5e8a66381afb2c714058b57b,2024-02-19_03h13.34.191,kallum_motion_pilot,2023.2.2,Win32,59.88023952,5e8a66381afb2c714058b57b,65d2b6c8f2eece985d8e374c,65d2b93a2a90e977bb6cd305,0.0374,0.0374,1,52,214,114,1,sixfive,,,,,,,,,,,,,,,,,,,,,,,,,,,,,,,,,,,,,,,,,,,,,,,,,,,,,,,,,,,,,,,,,,,,,,,,,,,,,,,,,,,,,,,,,,,,,,,,,,,,,,,,,,,,,,,,,,,,,,,,,,,,,,,,,,,,,,,,,
,,5e8a66381afb2c714058b57b,2024-02-19_03h13.34.191,kallum_motion_pilot,2023.2.2,Win32,59.88023952,5e8a66381afb2c714058b57b,65d2b6c8f2eece985d8e374c,65d2b93a2a90e977bb6cd305,0.0375,0.0375,1,53,215,148,1,sevenfive,,,,,,,,,,,,,,,,,,,,,,,,,,,,,,,,,,,,,,,,,,,,,,,,,,,,,,,,,,,,,,,,,,,,,,,,,,,,,,,,,,,,,,,,,,,,,,,,,,,,,,,,,,,,,,,,,,,,,,,,,,,,,,,,,,,,,,,,,
,,5e8a66381afb2c714058b57b,2024-02-19_03h13.34.191,kallum_motion_pilot,2023.2.2,Win32,59.88023952,5e8a66381afb2c714058b57b,65d2b6c8f2eece985d8e374c,65d2b93a2a90e977bb6cd305,0.0376,0.0376,1,54,216,84,1,sevenfive,,,,,,,,,,,,,,,,,,,,,,,,,,,,,,,,,,,,,,,,,,,,,,,,,,,,,,,,,,,,,,,,,,,,,,,,,,,,,,,,,,,,,,,,,,,,,,,,,,,,,,,,,,,,,,,,,,,,,,,,,,,,,,,,,,,,,,,,,
,,5e8a66381afb2c714058b57b,2024-02-19_03h13.34.191,kallum_motion_pilot,2023.2.2,Win32,59.88023952,5e8a66381afb2c714058b57b,65d2b6c8f2eece985d8e374c,65d2b93a2a90e977bb6cd305,0.0376,0.0376,1,55,217,145,1,fiveseven,,,,,,,,,,,,,,,,,,,,,,,,,,,,,,,,,,,,,,,,,,,,,,,,,,,,,,,,,,,,,,,,,,,,,,,,,,,,,,,,,,,,,,,,,,,,,,,,,,,,,,,,,,,,,,,,,,,,,,,,,,,,,,,,,,,,,,,,,
,,5e8a66381afb2c714058b57b,2024-02-19_03h13.34.191,kallum_motion_pilot,2023.2.2,Win32,59.88023952,5e8a66381afb2c714058b57b,65d2b6c8f2eece985d8e374c,65d2b93a2a90e977bb6cd305,0.0377,0.0377,1,56,218,89,1,fiveseven,,,,,,,,,,,,,,,,,,,,,,,,,,,,,,,,,,,,,,,,,,,,,,,,,,,,,,,,,,,,,,,,,,,,,,,,,,,,,,,,,,,,,,,,,,,,,,,,,,,,,,,,,,,,,,,,,,,,,,,,,,,,,,,,,,,,,,,,,
,,5e8a66381afb2c714058b57b,2024-02-19_03h13.34.191,kallum_motion_pilot,2023.2.2,Win32,59.88023952,5e8a66381afb2c714058b57b,65d2b6c8f2eece985d8e374c,65d2b93a2a90e977bb6cd305,0.0377,0.0378,1,57,219,45,1,threefour,,,,,,,,,,,,,,,,,,,,,,,,,,,,,,,,,,,,,,,,,,,,,,,,,,,,,,,,,,,,,,,,,,,,,,,,,,,,,,,,,,,,,,,,,,,,,,,,,,,,,,,,,,,,,,,,,,,,,,,,,,,,,,,,,,,,,,,,,
,,5e8a66381afb2c714058b57b,2024-02-19_03h13.34.191,kallum_motion_pilot,2023.2.2,Win32,59.88023952,5e8a66381afb2c714058b57b,65d2b6c8f2eece985d8e374c,65d2b93a2a90e977bb6cd305,0.0378,0.0378,1,58,220,142,1,eightsix,,,,,,,,,,,,,,,,,,,,,,,,,,,,,,,,,,,,,,,,,,,,,,,,,,,,,,,,,,,,,,,,,,,,,,,,,,,,,,,,,,,,,,,,,,,,,,,,,,,,,,,,,,,,,,,,,,,,,,,,,,,,,,,,,,,,,,,,,
,,5e8a66381afb2c714058b57b,2024-02-19_03h13.34.191,kallum_motion_pilot,2023.2.2,Win32,59.88023952,5e8a66381afb2c714058b57b,65d2b6c8f2eece985d8e374c,65d2b93a2a90e977bb6cd305,0.0379,0.0379,1,59,221,96,1,fivesix,,,,,,,,,,,,,,,,,,,,,,,,,,,,,,,,,,,,,,,,,,,,,,,,,,,,,,,,,,,,,,,,,,,,,,,,,,,,,,,,,,,,,,,,,,,,,,,,,,,,,,,,,,,,,,,,,,,,,,,,,,,,,,,,,,,,,,,,,
,,5e8a66381afb2c714058b57b,2024-02-19_03h13.34.191,kallum_motion_pilot,2023.2.2,Win32,59.88023952,5e8a66381afb2c714058b57b,65d2b6c8f2eece985d8e374c,65d2b93a2a90e977bb6cd305,0.0379,0.0379,1,60,222,56,1,onetwo,,,,,,,,,,,,,,,,,,,,,,,,,,,,,,,,,,,,,,,,,,,,,,,,,,,,,,,,,,,,,,,,,,,,,,,,,,,,,,,,,,,,,,,,,,,,,,,,,,,,,,,,,,,,,,,,,,,,,,,,,,,,,,,,,,,,,,,,,
,,5e8a66381afb2c714058b57b,2024-02-19_03h13.34.191,kallum_motion_pilot,2023.2.2,Win32,59.88023952,5e8a66381afb2c714058b57b,65d2b6c8f2eece985d8e374c,65d2b93a2a90e977bb6cd305,0.038,0.038,1,61,223,19,1,twofour,,,,,,,,,,,,,,,,,,,,,,,,,,,,,,,,,,,,,,,,,,,,,,,,,,,,,,,,,,,,,,,,,,,,,,,,,,,,,,,,,,,,,,,,,,,,,,,,,,,,,,,,,,,,,,,,,,,,,,,,,,,,,,,,,,,,,,,,,
,,5e8a66381afb2c714058b57b,2024-02-19_03h13.34.191,kallum_motion_pilot,2023.2.2,Win32,59.88023952,5e8a66381afb2c714058b57b,65d2b6c8f2eece985d8e374c,65d2b93a2a90e977bb6cd305,0.038,0.0381,1,62,224,160,1,fivesix,,,,,,,,,,,,,,,,,,,,,,,,,,,,,,,,,,,,,,,,,,,,,,,,,,,,,,,,,,,,,,,,,,,,,,,,,,,,,,,,,,,,,,,,,,,,,,,,,,,,,,,,,,,,,,,,,,,,,,,,,,,,,,,,,,,,,,,,,
,,5e8a66381afb2c714058b57b,2024-02-19_03h13.34.191,kallum_motion_pilot,2023.2.2,Win32,59.88023952,5e8a66381afb2c714058b57b,65d2b6c8f2eece985d8e374c,65d2b93a2a90e977bb6cd305,0.0381,0.0382,1,63,225,146,1,sixfive,,,,,,,,,,,,,,,,,,,,,,,,,,,,,,,,,,,,,,,,,,,,,,,,,,,,,,,,,,,,,,,,,,,,,,,,,,,,,,,,,,,,,,,,,,,,,,,,,,,,,,,,,,,,,,,,,,,,,,,,,,,,,,,,,,,,,,,,,
,,5e8a66381afb2c714058b57b,2024-02-19_03h13.34.191,kallum_motion_pilot,2023.2.2,Win32,59.88023952,5e8a66381afb2c714058b57b,65d2b6c8f2eece985d8e374c,65d2b93a2a90e977bb6cd305,0.0382,0.0383,1,64,226,23,1,fourthree,,,,,,,,,,,,,,,,,,,,,,,,,,,,,,,,,,,,,,,,,,,,,,,,,,,,,,,,,,,,,,,,,,,,,,,,,,,,,,,,,,,,,,,,,,,,,,,,,,,,,,,,,,,,,,,,,,,,,,,,,,,,,,,,,,,,,,,,,
,,5e8a66381afb2c714058b57b,2024-02-19_03h13.34.191,kallum_motion_pilot,2023.2.2,Win32,59.88023952,5e8a66381afb2c714058b57b,65d2b6c8f2eece985d8e374c,65d2b93a2a90e977bb6cd305,0.0383,0.0383,1,65,227,25,1,onethree,,,,,,,,,,,,,,,,,,,,,,,,,,,,,,,,,,,,,,,,,,,,,,,,,,,,,,,,,,,,,,,,,,,,,,,,,,,,,,,,,,,,,,,,,,,,,,,,,,,,,,,,,,,,,,,,,,,,,,,,,,,,,,,,,,,,,,,,,
,,5e8a66381afb2c714058b57b,2024-02-19_03h13.34.191,kallum_motion_pilot,2023.2.2,Win32,59.88023952,5e8a66381afb2c714058b57b,65d2b6c8f2eece985d8e374c,65d2b93a2a90e977bb6cd305,0.0384,0.0384,1,66,228,120,1,fivesix,,,,,,,,,,,,,,,,,,,,,,,,,,,,,,,,,,,,,,,,,,,,,,,,,,,,,,,,,,,,,,,,,,,,,,,,,,,,,,,,,,,,,,,,,,,,,,,,,,,,,,,,,,,,,,,,,,,,,,,,,,,,,,,,,,,,,,,,,
,,5e8a66381afb2c714058b57b,2024-02-19_03h13.34.191,kallum_motion_pilot,2023.2.2,Win32,59.88023952,5e8a66381afb2c714058b57b,65d2b6c8f2eece985d8e374c,65d2b93a2a90e977bb6cd305,0.0384,0.0384,1,67,229,93,1,seveneight,,,,,,,,,,,,,,,,,,,,,,,,,,,,,,,,,,,,,,,,,,,,,,,,,,,,,,,,,,,,,,,,,,,,,,,,,,,,,,,,,,,,,,,,,,,,,,,,,,,,,,,,,,,,,,,,,,,,,,,,,,,,,,,,,,,,,,,,,
,,5e8a66381afb2c714058b57b,2024-02-19_03h13.34.191,kallum_motion_pilot,2023.2.2,Win32,59.88023952,5e8a66381afb2c714058b57b,65d2b6c8f2eece985d8e374c,65d2b93a2a90e977bb6cd305,0.0385,0.0385,1,68,230,88,1,fivesix,,,,,,,,,,,,,,,,,,,,,,,,,,,,,,,,,,,,,,,,,,,,,,,,,,,,,,,,,,,,,,,,,,,,,,,,,,,,,,,,,,,,,,,,,,,,,,,,,,,,,,,,,,,,,,,,,,,,,,,,,,,,,,,,,,,,,,,,,
,,5e8a66381afb2c714058b57b,2024-02-19_03h13.34.191,kallum_motion_pilot,2023.2.2,Win32,59.88023952,5e8a66381afb2c714058b57b,65d2b6c8f2eece985d8e374c,65d2b93a2a90e977bb6cd305,0.0386,0.0386,1,69,231,158,1,eightsix,,,,,,,,,,,,,,,,,,,,,,,,,,,,,,,,,,,,,,,,,,,,,,,,,,,,,,,,,,,,,,,,,,,,,,,,,,,,,,,,,,,,,,,,,,,,,,,,,,,,,,,,,,,,,,,,,,,,,,,,,,,,,,,,,,,,,,,,,
,,5e8a66381afb2c714058b57b,2024-02-19_03h13.34.191,kallum_motion_pilot,2023.2.2,Win32,59.88023952,5e8a66381afb2c714058b57b,65d2b6c8f2eece985d8e374c,65d2b93a2a90e977bb6cd305,0.0387,0.0387,1,70,232,38,1,fourtwo,,,,,,,,,,,,,,,,,,,,,,,,,,,,,,,,,,,,,,,,,,,,,,,,,,,,,,,,,,,,,,,,,,,,,,,,,,,,,,,,,,,,,,,,,,,,,,,,,,,,,,,,,,,,,,,,,,,,,,,,,,,,,,,,,,,,,,,,,
,,5e8a66381afb2c714058b57b,2024-02-19_03h13.34.191,kallum_motion_pilot,2023.2.2,Win32,59.88023952,5e8a66381afb2c714058b57b,65d2b6c8f2eece985d8e374c,65d2b93a2a90e977bb6cd305,0.0387,0.0388,1,71,233,124,1,sevenfive,,,,,,,,,,,,,,,,,,,,,,,,,,,,,,,,,,,,,,,,,,,,,,,,,,,,,,,,,,,,,,,,,,,,,,,,,,,,,,,,,,,,,,,,,,,,,,,,,,,,,,,,,,,,,,,,,,,,,,,,,,,,,,,,,,,,,,,,,
,,5e8a66381afb2c714058b57b,2024-02-19_03h13.34.191,kallum_motion_pilot,2023.2.2,Win32,59.88023952,5e8a66381afb2c714058b57b,65d2b6c8f2eece985d8e374c,65d2b93a2a90e977bb6cd305,0.0388,0.0389,1,72,234,36,1,threeone,,,,,,,,,,,,,,,,,,,,,,,,,,,,,,,,,,,,,,,,,,,,,,,,,,,,,,,,,,,,,,,,,,,,,,,,,,,,,,,,,,,,,,,,,,,,,,,,,,,,,,,,,,,,,,,,,,,,,,,,,,,,,,,,,,,,,,,,,
,,5e8a66381afb2c714058b57b,2024-02-19_03h13.34.191,kallum_motion_pilot,2023.2.2,Win32,59.88023952,5e8a66381afb2c714058b57b,65d2b6c8f2eece985d8e374c,65d2b93a2a90e977bb6cd305,0.0389,0.039,1,73,235,95,1,eightseven,,,,,,,,,,,,,,,,,,,,,,,,,,,,,,,,,,,,,,,,,,,,,,,,,,,,,,,,,,,,,,,,,,,,,,,,,,,,,,,,,,,,,,,,,,,,,,,,,,,,,,,,,,,,,,,,,,,,,,,,,,,,,,,,,,,,,,,,,
,,5e8a66381afb2c714058b57b,2024-02-19_03h13.34.191,kallum_motion_pilot,2023.2.2,Win32,59.88023952,5e8a66381afb2c714058b57b,65d2b6c8f2eece985d8e374c,65d2b93a2a90e977bb6cd305,0.039,0.039,1,74,236,152,1,fivesix,,,,,,,,,,,,,,,,,,,,,,,,,,,,,,,,,,,,,,,,,,,,,,,,,,,,,,,,,,,,,,,,,,,,,,,,,,,,,,,,,,,,,,,,,,,,,,,,,,,,,,,,,,,,,,,,,,,,,,,,,,,,,,,,,,,,,,,,,
,,5e8a66381afb2c714058b57b,2024-02-19_03h13.34.191,kallum_motion_pilot,2023.2.2,Win32,59.88023952,5e8a66381afb2c714058b57b,65d2b6c8f2eece985d8e374c,65d2b93a2a90e977bb6cd305,0.0391,0.0391,1,75,237,28,1,threeone,,,,,,,,,,,,,,,,,,,,,,,,,,,,,,,,,,,,,,,,,,,,,,,,,,,,,,,,,,,,,,,,,,,,,,,,,,,,,,,,,,,,,,,,,,,,,,,,,,,,,,,,,,,,,,,,,,,,,,,,,,,,,,,,,,,,,,,,,
,,5e8a66381afb2c714058b57b,2024-02-19_03h13.34.191,kallum_motion_pilot,2023.2.2,Win32,59.88023952,5e8a66381afb2c714058b57b,65d2b6c8f2eece985d8e374c,65d2b93a2a90e977bb6cd305,0.0391,0.0392,1,76,238,18,1,twoone,,,,,,,,,,,,,,,,,,,,,,,,,,,,,,,,,,,,,,,,,,,,,,,,,,,,,,,,,,,,,,,,,,,,,,,,,,,,,,,,,,,,,,,,,,,,,,,,,,,,,,,,,,,,,,,,,,,,,,,,,,,,,,,,,,,,,,,,,
,,5e8a66381afb2c714058b57b,2024-02-19_03h13.34.191,kallum_motion_pilot,2023.2.2,Win32,59.88023952,5e8a66381afb2c714058b57b,65d2b6c8f2eece985d8e374c,65d2b93a2a90e977bb6cd305,0.0392,0.0393,1,77,239,98,1,sixfive,,,,,,,,,,,,,,,,,,,,,,,,,,,,,,,,,,,,,,,,,,,,,,,,,,,,,,,,,,,,,,,,,,,,,,,,,,,,,,,,,,,,,,,,,,,,,,,,,,,,,,,,,,,,,,,,,,,,,,,,,,,,,,,,,,,,,,,,,
,,5e8a66381afb2c714058b57b,2024-02-19_03h13.34.191,kallum_motion_pilot,2023.2.2,Win32,59.88023952,5e8a66381afb2c714058b57b,65d2b6c8f2eece985d8e374c,65d2b93a2a90e977bb6cd305,0.0394,0.0394,1,78,240,108,1,sevenfive,,,,,,,,,,,,,,,,,,,,,,,,,,,,,,,,,,,,,,,,,,,,,,,,,,,,,,,,,,,,,,,,,,,,,,,,,,,,,,,,,,,,,,,,,,,,,,,,,,,,,,,,,,,,,,,,,,,,,,,,,,,,,,,,,,,,,,,,,
,,5e8a66381afb2c714058b57b,2024-02-19_03h13.34.191,kallum_motion_pilot,2023.2.2,Win32,59.88023952,5e8a66381afb2c714058b57b,65d2b6c8f2eece985d8e374c,65d2b93a2a90e977bb6cd305,0.0394,0.0395,1,79,241,117,1,seveneight,,,,,,,,,,,,,,,,,,,,,,,,,,,,,,,,,,,,,,,,,,,,,,,,,,,,,,,,,,,,,,,,,,,,,,,,,,,,,,,,,,,,,,,,,,,,,,,,,,,,,,,,,,,,,,,,,,,,,,,,,,,,,,,,,,,,,,,,,
,,5e8a66381afb2c714058b57b,2024-02-19_03h13.34.191,kallum_motion_pilot,2023.2.2,Win32,59.88023952,5e8a66381afb2c714058b57b,65d2b6c8f2eece985d8e374c,65d2b93a2a90e977bb6cd305,0.0395,0.0395,1,80,242,7,1,fourthree,,,,,,,,,,,,,,,,,,,,,,,,,,,,,,,,,,,,,,,,,,,,,,,,,,,,,,,,,,,,,,,,,,,,,,,,,,,,,,,,,,,,,,,,,,,,,,,,,,,,,,,,,,,,,,,,,,,,,,,,,,,,,,,,,,,,,,,,,
,,5e8a66381afb2c714058b57b,2024-02-19_03h13.34.191,kallum_motion_pilot,2023.2.2,Win32,59.88023952,5e8a66381afb2c714058b57b,65d2b6c8f2eece985d8e374c,65d2b93a2a90e977bb6cd305,0.0395,0.0396,1,81,243,74,1,twoone,,,,,,,,,,,,,,,,,,,,,,,,,,,,,,,,,,,,,,,,,,,,,,,,,,,,,,,,,,,,,,,,,,,,,,,,,,,,,,,,,,,,,,,,,,,,,,,,,,,,,,,,,,,,,,,,,,,,,,,,,,,,,,,,,,,,,,,,,
,,5e8a66381afb2c714058b57b,2024-02-19_03h13.34.191,kallum_motion_pilot,2023.2.2,Win32,59.88023952,5e8a66381afb2c714058b57b,65d2b6c8f2eece985d8e374c,65d2b93a2a90e977bb6cd305,0.0397,0.0397,1,82,244,40,1,onetwo,,,,,,,,,,,,,,,,,,,,,,,,,,,,,,,,,,,,,,,,,,,,,,,,,,,,,,,,,,,,,,,,,,,,,,,,,,,,,,,,,,,,,,,,,,,,,,,,,,,,,,,,,,,,,,,,,,,,,,,,,,,,,,,,,,,,,,,,,
,,5e8a66381afb2c714058b57b,2024-02-19_03h13.34.191,kallum_motion_pilot,2023.2.2,Win32,59.88023952,5e8a66381afb2c714058b57b,65d2b6c8f2eece985d8e374c,65d2b93a2a90e977bb6cd305,0.0397,0.0397,1,83,245,4,1,threeone,,,,,,,,,,,,,,,,,,,,,,,,,,,,,,,,,,,,,,,,,,,,,,,,,,,,,,,,,,,,,,,,,,,,,,,,,,,,,,,,,,,,,,,,,,,,,,,,,,,,,,,,,,,,,,,,,,,,,,,,,,,,,,,,,,,,,,,,,
,,5e8a66381afb2c714058b57b,2024-02-19_03h13.34.191,kallum_motion_pilot,2023.2.2,Win32,59.88023952,5e8a66381afb2c714058b57b,65d2b6c8f2eece985d8e374c,65d2b93a2a90e977bb6cd305,0.0398,0.0398,1,84,246,126,1,eightsix,,,,,,,,,,,,,,,,,,,,,,,,,,,,,,,,,,,,,,,,,,,,,,,,,,,,,,,,,,,,,,,,,,,,,,,,,,,,,,,,,,,,,,,,,,,,,,,,,,,,,,,,,,,,,,,,,,,,,,,,,,,,,,,,,,,,,,,,,
,,5e8a66381afb2c714058b57b,2024-02-19_03h13.34.191,kallum_motion_pilot,2023.2.2,Win32,59.88023952,5e8a66381afb2c714058b57b,65d2b6c8f2eece985d8e374c,65d2b93a2a90e977bb6cd305,0.0399,0.04,1,85,247,103,1,eightseven,,,,,,,,,,,,,,,,,,,,,,,,,,,,,,,,,,,,,,,,,,,,,,,,,,,,,,,,,,,,,,,,,,,,,,,,,,,,,,,,,,,,,,,,,,,,,,,,,,,,,,,,,,,,,,,,,,,,,,,,,,,,,,,,,,,,,,,,,
,,5e8a66381afb2c714058b57b,2024-02-19_03h13.34.191,kallum_motion_pilot,2023.2.2,Win32,59.88023952,5e8a66381afb2c714058b57b,65d2b6c8f2eece985d8e374c,65d2b93a2a90e977bb6cd305,0.04,0.04,1,86,248,116,1,sevenfive,,,,,,,,,,,,,,,,,,,,,,,,,,,,,,,,,,,,,,,,,,,,,,,,,,,,,,,,,,,,,,,,,,,,,,,,,,,,,,,,,,,,,,,,,,,,,,,,,,,,,,,,,,,,,,,,,,,,,,,,,,,,,,,,,,,,,,,,,
,,5e8a66381afb2c714058b57b,2024-02-19_03h13.34.191,kallum_motion_pilot,2023.2.2,Win32,59.88023952,5e8a66381afb2c714058b57b,65d2b6c8f2eece985d8e374c,65d2b93a2a90e977bb6cd305,0.0401,0.0401,1,87,249,64,1,onetwo,,,,,,,,,,,,,,,,,,,,,,,,,,,,,,,,,,,,,,,,,,,,,,,,,,,,,,,,,,,,,,,,,,,,,,,,,,,,,,,,,,,,,,,,,,,,,,,,,,,,,,,,,,,,,,,,,,,,,,,,,,,,,,,,,,,,,,,,,
,,5e8a66381afb2c714058b57b,2024-02-19_03h13.34.191,kallum_motion_pilot,2023.2.2,Win32,59.88023952,5e8a66381afb2c714058b57b,65d2b6c8f2eece985d8e374c,65d2b93a2a90e977bb6cd305,0.0401,0.0401,1,88,250,6,1,fourtwo,,,,,,,,,,,,,,,,,,,,,,,,,,,,,,,,,,,,,,,,,,,,,,,,,,,,,,,,,,,,,,,,,,,,,,,,,,,,,,,,,,,,,,,,,,,,,,,,,,,,,,,,,,,,,,,,,,,,,,,,,,,,,,,,,,,,,,,,,
,,5e8a66381afb2c714058b57b,2024-02-19_03h13.34.191,kallum_motion_pilot,2023.2.2,Win32,59.88023952,5e8a66381afb2c714058b57b,65d2b6c8f2eece985d8e374c,65d2b93a2a90e977bb6cd305,0.0402,0.0403,1,89,251,73,1,onethree,,,,,,,,,,,,,,,,,,,,,,,,,,,,,,,,,,,,,,,,,,,,,,,,,,,,,,,,,,,,,,,,,,,,,,,,,,,,,,,,,,,,,,,,,,,,,,,,,,,,,,,,,,,,,,,,,,,,,,,,,,,,,,,,,,,,,,,,,
,,5e8a66381afb2c714058b57b,2024-02-19_03h13.34.191,kallum_motion_pilot,2023.2.2,Win32,59.88023952,5e8a66381afb2c714058b57b,65d2b6c8f2eece985d8e374c,65d2b93a2a90e977bb6cd305,0.0403,0.0403,1,90,252,128,1,fivesix,,,,,,,,,,,,,,,,,,,,,,,,,,,,,,,,,,,,,,,,,,,,,,,,,,,,,,,,,,,,,,,,,,,,,,,,,,,,,,,,,,,,,,,,,,,,,,,,,,,,,,,,,,,,,,,,,,,,,,,,,,,,,,,,,,,,,,,,,
,,5e8a66381afb2c714058b57b,2024-02-19_03h13.34.191,kallum_motion_pilot,2023.2.2,Win32,59.88023952,5e8a66381afb2c714058b57b,65d2b6c8f2eece985d8e374c,65d2b93a2a90e977bb6cd305,0.0404,0.0404,1,91,253,26,1,twoone,,,,,,,,,,,,,,,,,,,,,,,,,,,,,,,,,,,,,,,,,,,,,,,,,,,,,,,,,,,,,,,,,,,,,,,,,,,,,,,,,,,,,,,,,,,,,,,,,,,,,,,,,,,,,,,,,,,,,,,,,,,,,,,,,,,,,,,,,
,,5e8a66381afb2c714058b57b,2024-02-19_03h13.34.191,kallum_motion_pilot,2023.2.2,Win32,59.88023952,5e8a66381afb2c714058b57b,65d2b6c8f2eece985d8e374c,65d2b93a2a90e977bb6cd305,0.0404,0.0405,1,92,254,44,1,threeone,,,,,,,,,,,,,,,,,,,,,,,,,,,,,,,,,,,,,,,,,,,,,,,,,,,,,,,,,,,,,,,,,,,,,,,,,,,,,,,,,,,,,,,,,,,,,,,,,,,,,,,,,,,,,,,,,,,,,,,,,,,,,,,,,,,,,,,,,
,,5e8a66381afb2c714058b57b,2024-02-19_03h13.34.191,kallum_motion_pilot,2023.2.2,Win32,59.88023952,5e8a66381afb2c714058b57b,65d2b6c8f2eece985d8e374c,65d2b93a2a90e977bb6cd305,0.0406,0.0406,1,93,255,79,1,eightseven,,,,,,,,,,,,,,,,,,,,,,,,,,,,,,,,,,,,,,,,,,,,,,,,,,,,,,,,,,,,,,,,,,,,,,,,,,,,,,,,,,,,,,,,,,,,,,,,,,,,,,,,,,,,,,,,,,,,,,,,,,,,,,,,,,,,,,,,,
,,5e8a66381afb2c714058b57b,2024-02-19_03h13.34.191,kallum_motion_pilot,2023.2.2,Win32,59.88023952,5e8a66381afb2c714058b57b,65d2b6c8f2eece985d8e374c,65d2b93a2a90e977bb6cd305,0.0406,0.0407,1,94,256,46,1,fourtwo,,,,,,,,,,,,,,,,,,,,,,,,,,,,,,,,,,,,,,,,,,,,,,,,,,,,,,,,,,,,,,,,,,,,,,,,,,,,,,,,,,,,,,,,,,,,,,,,,,,,,,,,,,,,,,,,,,,,,,,,,,,,,,,,,,,,,,,,,
,,5e8a66381afb2c714058b57b,2024-02-19_03h13.34.191,kallum_motion_pilot,2023.2.2,Win32,59.88023952,5e8a66381afb2c714058b57b,65d2b6c8f2eece985d8e374c,65d2b93a2a90e977bb6cd305,0.0407,0.0408,1,95,257,123,1,sixeight,,,,,,,,,,,,,,,,,,,,,,,,,,,,,,,,,,,,,,,,,,,,,,,,,,,,,,,,,,,,,,,,,,,,,,,,,,,,,,,,,,,,,,,,,,,,,,,,,,,,,,,,,,,,,,,,,,,,,,,,,,,,,,,,,,,,,,,,,
,,5e8a66381afb2c714058b57b,2024-02-19_03h13.34.191,kallum_motion_pilot,2023.2.2,Win32,59.88023952,5e8a66381afb2c714058b57b,65d2b6c8f2eece985d8e374c,65d2b93a2a90e977bb6cd305,0.0408,0.0409,1,96,258,151,1,eightseven,,,,,,,,,,,,,,,,,,,,,,,,,,,,,,,,,,,,,,,,,,,,,,,,,,,,,,,,,,,,,,,,,,,,,,,,,,,,,,,,,,,,,,,,,,,,,,,,,,,,,,,,,,,,,,,,,,,,,,,,,,,,,,,,,,,,,,,,,
,,5e8a66381afb2c714058b57b,2024-02-19_03h13.34.191,kallum_motion_pilot,2023.2.2,Win32,59.88023952,5e8a66381afb2c714058b57b,65d2b6c8f2eece985d8e374c,65d2b93a2a90e977bb6cd305,0.0409,0.0409,1,97,259,149,1,seveneight,,,,,,,,,,,,,,,,,,,,,,,,,,,,,,,,,,,,,,,,,,,,,,,,,,,,,,,,,,,,,,,,,,,,,,,,,,,,,,,,,,,,,,,,,,,,,,,,,,,,,,,,,,,,,,,,,,,,,,,,,,,,,,,,,,,,,,,,,
,,5e8a66381afb2c714058b57b,2024-02-19_03h13.34.191,kallum_motion_pilot,2023.2.2,Win32,59.88023952,5e8a66381afb2c714058b57b,65d2b6c8f2eece985d8e374c,65d2b93a2a90e977bb6cd305,0.0409,0.0411,1,98,260,140,1,sevenfive,,,,,,,,,,,,,,,,,,,,,,,,,,,,,,,,,,,,,,,,,,,,,,,,,,,,,,,,,,,,,,,,,,,,,,,,,,,,,,,,,,,,,,,,,,,,,,,,,,,,,,,,,,,,,,,,,,,,,,,,,,,,,,,,,,,,,,,,,
,,5e8a66381afb2c714058b57b,2024-02-19_03h13.34.191,kallum_motion_pilot,2023.2.2,Win32,59.88023952,5e8a66381afb2c714058b57b,65d2b6c8f2eece985d8e374c,65d2b93a2a90e977bb6cd305,0.0411,0.0411,1,99,261,110,1,eightsix,,,,,,,,,,,,,,,,,,,,,,,,,,,,,,,,,,,,,,,,,,,,,,,,,,,,,,,,,,,,,,,,,,,,,,,,,,,,,,,,,,,,,,,,,,,,,,,,,,,,,,,,,,,,,,,,,,,,,,,,,,,,,,,,,,,,,,,,,
,,5e8a66381afb2c714058b57b,2024-02-19_03h13.34.191,kallum_motion_pilot,2023.2.2,Win32,59.88023952,5e8a66381afb2c714058b57b,65d2b6c8f2eece985d8e374c,65d2b93a2a90e977bb6cd305,0.0411,0.0412,1,100,262,137,1,fiveseven,,,,,,,,,,,,,,,,,,,,,,,,,,,,,,,,,,,,,,,,,,,,,,,,,,,,,,,,,,,,,,,,,,,,,,,,,,,,,,,,,,,,,,,,,,,,,,,,,,,,,,,,,,,,,,,,,,,,,,,,,,,,,,,,,,,,,,,,,
,,5e8a66381afb2c714058b57b,2024-02-19_03h13.34.191,kallum_motion_pilot,2023.2.2,Win32,59.88023952,5e8a66381afb2c714058b57b,65d2b6c8f2eece985d8e374c,65d2b93a2a90e977bb6cd305,0.0412,0.0413,1,101,263,27,1,twofour,,,,,,,,,,,,,,,,,,,,,,,,,,,,,,,,,,,,,,,,,,,,,,,,,,,,,,,,,,,,,,,,,,,,,,,,,,,,,,,,,,,,,,,,,,,,,,,,,,,,,,,,,,,,,,,,,,,,,,,,,,,,,,,,,,,,,,,,,
,,5e8a66381afb2c714058b57b,2024-02-19_03h13.34.191,kallum_motion_pilot,2023.2.2,Win32,59.88023952,5e8a66381afb2c714058b57b,65d2b6c8f2eece985d8e374c,65d2b93a2a90e977bb6cd305,0.0413,0.0414,1,102,264,39,1,fourthree,,,,,,,,,,,,,,,,,,,,,,,,,,,,,,,,,,,,,,,,,,,,,,,,,,,,,,,,,,,,,,,,,,,,,,,,,,,,,,,,,,,,,,,,,,,,,,,,,,,,,,,,,,,,,,,,,,,,,,,,,,,,,,,,,,,,,,,,,
,,5e8a66381afb2c714058b57b,2024-02-19_03h13.34.191,kallum_motion_pilot,2023.2.2,Win32,59.88023952,5e8a66381afb2c714058b57b,65d2b6c8f2eece985d8e374c,65d2b93a2a90e977bb6cd305,0.0414,0.0415,1,103,265,81,1,fiveseven,,,,,,,,,,,,,,,,,,,,,,,,,,,,,,,,,,,,,,,,,,,,,,,,,,,,,,,,,,,,,,,,,,,,,,,,,,,,,,,,,,,,,,,,,,,,,,,,,,,,,,,,,,,,,,,,,,,,,,,,,,,,,,,,,,,,,,,,,
,,5e8a66381afb2c714058b57b,2024-02-19_03h13.34.191,kallum_motion_pilot,2023.2.2,Win32,59.88023952,5e8a66381afb2c714058b57b,65d2b6c8f2eece985d8e374c,65d2b93a2a90e977bb6cd305,0.0415,0.0416,1,104,266,14,1,fourtwo,,,,,,,,,,,,,,,,,,,,,,,,,,,,,,,,,,,,,,,,,,,,,,,,,,,,,,,,,,,,,,,,,,,,,,,,,,,,,,,,,,,,,,,,,,,,,,,,,,,,,,,,,,,,,,,,,,,,,,,,,,,,,,,,,,,,,,,,,
,,5e8a66381afb2c714058b57b,2024-02-19_03h13.34.191,kallum_motion_pilot,2023.2.2,Win32,59.88023952,5e8a66381afb2c714058b57b,65d2b6c8f2eece985d8e374c,65d2b93a2a90e977bb6cd305,0.0417,0.0417,1,105,267,32,1,onetwo,,,,,,,,,,,,,,,,,,,,,,,,,,,,,,,,,,,,,,,,,,,,,,,,,,,,,,,,,,,,,,,,,,,,,,,,,,,,,,,,,,,,,,,,,,,,,,,,,,,,,,,,,,,,,,,,,,,,,,,,,,,,,,,,,,,,,,,,,
,,5e8a66381afb2c714058b57b,2024-02-19_03h13.34.191,kallum_motion_pilot,2023.2.2,Win32,59.88023952,5e8a66381afb2c714058b57b,65d2b6c8f2eece985d8e374c,65d2b93a2a90e977bb6cd305,0.0417,0.0418,1,106,268,17,1,onethree,,,,,,,,,,,,,,,,,,,,,,,,,,,,,,,,,,,,,,,,,,,,,,,,,,,,,,,,,,,,,,,,,,,,,,,,,,,,,,,,,,,,,,,,,,,,,,,,,,,,,,,,,,,,,,,,,,,,,,,,,,,,,,,,,,,,,,,,,
,,5e8a66381afb2c714058b57b,2024-02-19_03h13.34.191,kallum_motion_pilot,2023.2.2,Win32,59.88023952,5e8a66381afb2c714058b57b,65d2b6c8f2eece985d8e374c,65d2b93a2a90e977bb6cd305,0.0418,0.0419,1,107,269,159,1,eightseven,,,,,,,,,,,,,,,,,,,,,,,,,,,,,,,,,,,,,,,,,,,,,,,,,,,,,,,,,,,,,,,,,,,,,,,,,,,,,,,,,,,,,,,,,,,,,,,,,,,,,,,,,,,,,,,,,,,,,,,,,,,,,,,,,,,,,,,,,
,,5e8a66381afb2c714058b57b,2024-02-19_03h13.34.191,kallum_motion_pilot,2023.2.2,Win32,59.88023952,5e8a66381afb2c714058b57b,65d2b6c8f2eece985d8e374c,65d2b93a2a90e977bb6cd305,0.0419,0.0419,1,108,270,13,1,threefour,,,,,,,,,,,,,,,,,,,,,,,,,,,,,,,,,,,,,,,,,,,,,,,,,,,,,,,,,,,,,,,,,,,,,,,,,,,,,,,,,,,,,,,,,,,,,,,,,,,,,,,,,,,,,,,,,,,,,,,,,,,,,,,,,,,,,,,,,
,,5e8a66381afb2c714058b57b,2024-02-19_03h13.34.191,kallum_motion_pilot,2023.2.2,Win32,59.88023952,5e8a66381afb2c714058b57b,65d2b6c8f2eece985d8e374c,65d2b93a2a90e977bb6cd305,0.042,0.042,1,109,271,127,1,eightseven,,,,,,,,,,,,,,,,,,,,,,,,,,,,,,,,,,,,,,,,,,,,,,,,,,,,,,,,,,,,,,,,,,,,,,,,,,,,,,,,,,,,,,,,,,,,,,,,,,,,,,,,,,,,,,,,,,,,,,,,,,,,,,,,,,,,,,,,,
,,5e8a66381afb2c714058b57b,2024-02-19_03h13.34.191,kallum_motion_pilot,2023.2.2,Win32,59.88023952,5e8a66381afb2c714058b57b,65d2b6c8f2eece985d8e374c,65d2b93a2a90e977bb6cd305,0.042,0.0421,1,110,272,105,1,fiveseven,,,,,,,,,,,,,,,,,,,,,,,,,,,,,,,,,,,,,,,,,,,,,,,,,,,,,,,,,,,,,,,,,,,,,,,,,,,,,,,,,,,,,,,,,,,,,,,,,,,,,,,,,,,,,,,,,,,,,,,,,,,,,,,,,,,,,,,,,
,,5e8a66381afb2c714058b57b,2024-02-19_03h13.34.191,kallum_motion_pilot,2023.2.2,Win32,59.88023952,5e8a66381afb2c714058b57b,65d2b6c8f2eece985d8e374c,65d2b93a2a90e977bb6cd305,0.0421,0.0422,1,111,273,50,1,twoone,,,,,,,,,,,,,,,,,,,,,,,,,,,,,,,,,,,,,,,,,,,,,,,,,,,,,,,,,,,,,,,,,,,,,,,,,,,,,,,,,,,,,,,,,,,,,,,,,,,,,,,,,,,,,,,,,,,,,,,,,,,,,,,,,,,,,,,,,
,,5e8a66381afb2c714058b57b,2024-02-19_03h13.34.191,kallum_motion_pilot,2023.2.2,Win32,59.88023952,5e8a66381afb2c714058b57b,65d2b6c8f2eece985d8e374c,65d2b93a2a90e977bb6cd305,0.0422,0.0422,1,112,274,109,1,seveneight,,,,,,,,,,,,,,,,,,,,,,,,,,,,,,,,,,,,,,,,,,,,,,,,,,,,,,,,,,,,,,,,,,,,,,,,,,,,,,,,,,,,,,,,,,,,,,,,,,,,,,,,,,,,,,,,,,,,,,,,,,,,,,,,,,,,,,,,,
,,5e8a66381afb2c714058b57b,2024-02-19_03h13.34.191,kallum_motion_pilot,2023.2.2,Win32,59.88023952,5e8a66381afb2c714058b57b,65d2b6c8f2eece985d8e374c,65d2b93a2a90e977bb6cd305,0.0423,0.0424,1,113,275,63,1,fourthree,,,,,,,,,,,,,,,,,,,,,,,,,,,,,,,,,,,,,,,,,,,,,,,,,,,,,,,,,,,,,,,,,,,,,,,,,,,,,,,,,,,,,,,,,,,,,,,,,,,,,,,,,,,,,,,,,,,,,,,,,,,,,,,,,,,,,,,,,
,,5e8a66381afb2c714058b57b,2024-02-19_03h13.34.191,kallum_motion_pilot,2023.2.2,Win32,59.88023952,5e8a66381afb2c714058b57b,65d2b6c8f2eece985d8e374c,65d2b93a2a90e977bb6cd305,0.0424,0.0424,1,114,276,122,1,sixfive,,,,,,,,,,,,,,,,,,,,,,,,,,,,,,,,,,,,,,,,,,,,,,,,,,,,,,,,,,,,,,,,,,,,,,,,,,,,,,,,,,,,,,,,,,,,,,,,,,,,,,,,,,,,,,,,,,,,,,,,,,,,,,,,,,,,,,,,,
,,5e8a66381afb2c714058b57b,2024-02-19_03h13.34.191,kallum_motion_pilot,2023.2.2,Win32,59.88023952,5e8a66381afb2c714058b57b,65d2b6c8f2eece985d8e374c,65d2b93a2a90e977bb6cd305,0.0425,0.0425,1,115,277,121,1,fiveseven,,,,,,,,,,,,,,,,,,,,,,,,,,,,,,,,,,,,,,,,,,,,,,,,,,,,,,,,,,,,,,,,,,,,,,,,,,,,,,,,,,,,,,,,,,,,,,,,,,,,,,,,,,,,,,,,,,,,,,,,,,,,,,,,,,,,,,,,,
