startup.started,startup.stopped,Prolific ID*,date,expName,psychopyVersion,OS,frameRate,participant,study_id,session,stimpositions.started,stimpositions.stopped,hardcoded_stimulus_positions.thisRepN,hardcoded_stimulus_positions.thisTrialN,hardcoded_stimulus_positions.thisN,hardcoded_stimulus_positions.thisIndex,hardcoded_stimulus_positions.ran,StimulusPos,stimorientation.started,stimorientation.stopped,prac_stimorientation_import_loop.thisRepN,prac_stimorientation_import_loop.thisTrialN,prac_stimorientation_import_loop.thisN,prac_stimorientation_import_loop.thisIndex,prac_stimorientation_import_loop.ran,Stimorientation,welcome_instr.started,welcome_instr.stopped,key_resp.keys,key_resp.rt,key_resp.duration,response_steppedout_1.started,response_steppedout_1.stopped,key_resp_20.keys,key_resp_20.rt,key_resp_20.duration,response_steppedout_2.started,response_steppedout_2.stopped,key_resp_19.keys,key_resp_19.rt,key_resp_19.duration,stim_response_instr.started,stim_response_instr.stopped,key_resp_15.keys,key_resp_15.rt,key_resp_15.duration,direction_instr_2.started,direction_instr_2.stopped,key_resp_9.keys,key_resp_9.rt,key_resp_9.duration,instr_prac.started,instr_prac.stopped,key_resp_10.keys,key_resp_10.rt,key_resp_10.duration,Stim1_display_prac.started,Stim1_display_prac.stopped,Ecc,Circle1_ori,Circle2_ori,response_prac.started,similarity,response_time,response_prac.stopped,mouse_5.x,mouse_5.y,mouse_5.leftButton,mouse_5.midButton,mouse_5.rightButton,mouse_5.clicked_name,responseprac_feedback.started,responseprac_feedback.stopped,summary2_prac.started,summary2_prac.stopped,mouse_6.x,mouse_6.y,mouse_6.leftButton,mouse_6.midButton,mouse_6.rightButton,mouse_6.clicked_name,duringprac.thisRepN,duringprac.thisTrialN,duringprac.thisN,duringprac.thisIndex,duringprac.ran,begin.started,begin.stopped,key_resp_22.keys,key_resp_22.rt,key_resp_22.duration,Stim1_display.started,Stim1_display.stopped,circle1_ori,circle2_ori,circle1_SF,circle2_SF,response.started,response.stopped,mouse.x,mouse.y,mouse.leftButton,mouse.midButton,mouse.rightButton,mouse.clicked_name,trialnumber,double_pass.thisRepN,double_pass.thisTrialN,double_pass.thisN,double_pass.thisIndex,double_pass.ran,double_pass.order,main_trial.thisRepN,main_trial.thisTrialN,main_trial.thisN,main_trial.thisIndex,main_trial.ran,main_trial.order,Trial_Counter,Catch,Frequencies,response_2.started,response_2.stopped,mouse_2.x,mouse_2.y,mouse_2.leftButton,mouse_2.midButton,mouse_2.rightButton,mouse_2.clicked_name,special_trial.started,special_trial.stopped,catch_1.started,catch_1.stopped,mouse_3.x,mouse_3.y,mouse_3.leftButton,mouse_3.midButton,mouse_3.rightButton,catchresponse,catchnumber,response_time_catch,response_sum.started,response_sum.stopped,mouse_11.x,mouse_11.y,mouse_11.leftButton,mouse_11.midButton,mouse_11.rightButton,flip_presentation_sequence_for_double_pass.started,flip_presentation_sequence_for_double_pass.stopped,goodbye.started,goodbye.stopped,key_resp_3.keys,key_resp_3.rt,key_resp_3.duration
0.0005,0.0005,5e923d7e4be006078940e252,2024-02-19_02h12.15.592,kallum_motion_pilot,2023.2.2,Win32,142.8571429,5e923d7e4be006078940e252,65d2b6c8f2eece985d8e374c,65d2b8bc4ce0964f7ee6f6d5,,,,,,,,,,,,,,,,,,,,,,,,,,,,,,,,,,,,,,,,,,,,,,,,,,,,,,,,,,,,,,,,,,,,,,,,,,,,,,,,,,,,,,,,,,,,,,,,,,,,,,,,,,,,,,,,,,,,,,,,,,,,,,,,,,,,,,,,,,,,,,,,,
,,5e923d7e4be006078940e252,2024-02-19_02h12.15.592,kallum_motion_pilot,2023.2.2,Win32,142.8571429,5e923d7e4be006078940e252,65d2b6c8f2eece985d8e374c,65d2b8bc4ce0964f7ee6f6d5,0.0114,0.0115,0,0,0,34,1,twoone,,,,,,,,,,,,,,,,,,,,,,,,,,,,,,,,,,,,,,,,,,,,,,,,,,,,,,,,,,,,,,,,,,,,,,,,,,,,,,,,,,,,,,,,,,,,,,,,,,,,,,,,,,,,,,,,,,,,,,,,,,,,,,,,,,,,,,,,,
,,5e923d7e4be006078940e252,2024-02-19_02h12.15.592,kallum_motion_pilot,2023.2.2,Win32,142.8571429,5e923d7e4be006078940e252,65d2b6c8f2eece985d8e374c,65d2b8bc4ce0964f7ee6f6d5,0.0115,0.0116,0,1,1,107,1,sixeight,,,,,,,,,,,,,,,,,,,,,,,,,,,,,,,,,,,,,,,,,,,,,,,,,,,,,,,,,,,,,,,,,,,,,,,,,,,,,,,,,,,,,,,,,,,,,,,,,,,,,,,,,,,,,,,,,,,,,,,,,,,,,,,,,,,,,,,,,
,,5e923d7e4be006078940e252,2024-02-19_02h12.15.592,kallum_motion_pilot,2023.2.2,Win32,142.8571429,5e923d7e4be006078940e252,65d2b6c8f2eece985d8e374c,65d2b8bc4ce0964f7ee6f6d5,0.0116,0.0116,0,2,2,11,1,twofour,,,,,,,,,,,,,,,,,,,,,,,,,,,,,,,,,,,,,,,,,,,,,,,,,,,,,,,,,,,,,,,,,,,,,,,,,,,,,,,,,,,,,,,,,,,,,,,,,,,,,,,,,,,,,,,,,,,,,,,,,,,,,,,,,,,,,,,,,
,,5e923d7e4be006078940e252,2024-02-19_02h12.15.592,kallum_motion_pilot,2023.2.2,Win32,142.8571429,5e923d7e4be006078940e252,65d2b6c8f2eece985d8e374c,65d2b8bc4ce0964f7ee6f6d5,0.0118,0.0118,0,3,3,91,1,sixeight,,,,,,,,,,,,,,,,,,,,,,,,,,,,,,,,,,,,,,,,,,,,,,,,,,,,,,,,,,,,,,,,,,,,,,,,,,,,,,,,,,,,,,,,,,,,,,,,,,,,,,,,,,,,,,,,,,,,,,,,,,,,,,,,,,,,,,,,,
,,5e923d7e4be006078940e252,2024-02-19_02h12.15.592,kallum_motion_pilot,2023.2.2,Win32,142.8571429,5e923d7e4be006078940e252,65d2b6c8f2eece985d8e374c,65d2b8bc4ce0964f7ee6f6d5,0.0118,0.0118,0,4,4,87,1,eightseven,,,,,,,,,,,,,,,,,,,,,,,,,,,,,,,,,,,,,,,,,,,,,,,,,,,,,,,,,,,,,,,,,,,,,,,,,,,,,,,,,,,,,,,,,,,,,,,,,,,,,,,,,,,,,,,,,,,,,,,,,,,,,,,,,,,,,,,,,
,,5e923d7e4be006078940e252,2024-02-19_02h12.15.592,kallum_motion_pilot,2023.2.2,Win32,142.8571429,5e923d7e4be006078940e252,65d2b6c8f2eece985d8e374c,65d2b8bc4ce0964f7ee6f6d5,0.0118,0.0119,0,5,5,139,1,sixeight,,,,,,,,,,,,,,,,,,,,,,,,,,,,,,,,,,,,,,,,,,,,,,,,,,,,,,,,,,,,,,,,,,,,,,,,,,,,,,,,,,,,,,,,,,,,,,,,,,,,,,,,,,,,,,,,,,,,,,,,,,,,,,,,,,,,,,,,,
,,5e923d7e4be006078940e252,2024-02-19_02h12.15.592,kallum_motion_pilot,2023.2.2,Win32,142.8571429,5e923d7e4be006078940e252,65d2b6c8f2eece985d8e374c,65d2b8bc4ce0964f7ee6f6d5,0.0119,0.012,0,6,6,124,1,sevenfive,,,,,,,,,,,,,,,,,,,,,,,,,,,,,,,,,,,,,,,,,,,,,,,,,,,,,,,,,,,,,,,,,,,,,,,,,,,,,,,,,,,,,,,,,,,,,,,,,,,,,,,,,,,,,,,,,,,,,,,,,,,,,,,,,,,,,,,,,
,,5e923d7e4be006078940e252,2024-02-19_02h12.15.592,kallum_motion_pilot,2023.2.2,Win32,142.8571429,5e923d7e4be006078940e252,65d2b6c8f2eece985d8e374c,65d2b8bc4ce0964f7ee6f6d5,0.012,0.012,0,7,7,146,1,sixfive,,,,,,,,,,,,,,,,,,,,,,,,,,,,,,,,,,,,,,,,,,,,,,,,,,,,,,,,,,,,,,,,,,,,,,,,,,,,,,,,,,,,,,,,,,,,,,,,,,,,,,,,,,,,,,,,,,,,,,,,,,,,,,,,,,,,,,,,,
,,5e923d7e4be006078940e252,2024-02-19_02h12.15.592,kallum_motion_pilot,2023.2.2,Win32,142.8571429,5e923d7e4be006078940e252,65d2b6c8f2eece985d8e374c,65d2b8bc4ce0964f7ee6f6d5,0.0121,0.0121,0,8,8,28,1,threeone,,,,,,,,,,,,,,,,,,,,,,,,,,,,,,,,,,,,,,,,,,,,,,,,,,,,,,,,,,,,,,,,,,,,,,,,,,,,,,,,,,,,,,,,,,,,,,,,,,,,,,,,,,,,,,,,,,,,,,,,,,,,,,,,,,,,,,,,,
,,5e923d7e4be006078940e252,2024-02-19_02h12.15.592,kallum_motion_pilot,2023.2.2,Win32,142.8571429,5e923d7e4be006078940e252,65d2b6c8f2eece985d8e374c,65d2b8bc4ce0964f7ee6f6d5,0.0121,0.0122,0,9,9,82,1,sixfive,,,,,,,,,,,,,,,,,,,,,,,,,,,,,,,,,,,,,,,,,,,,,,,,,,,,,,,,,,,,,,,,,,,,,,,,,,,,,,,,,,,,,,,,,,,,,,,,,,,,,,,,,,,,,,,,,,,,,,,,,,,,,,,,,,,,,,,,,
,,5e923d7e4be006078940e252,2024-02-19_02h12.15.592,kallum_motion_pilot,2023.2.2,Win32,142.8571429,5e923d7e4be006078940e252,65d2b6c8f2eece985d8e374c,65d2b8bc4ce0964f7ee6f6d5,0.0122,0.0123,0,10,10,157,1,seveneight,,,,,,,,,,,,,,,,,,,,,,,,,,,,,,,,,,,,,,,,,,,,,,,,,,,,,,,,,,,,,,,,,,,,,,,,,,,,,,,,,,,,,,,,,,,,,,,,,,,,,,,,,,,,,,,,,,,,,,,,,,,,,,,,,,,,,,,,,
,,5e923d7e4be006078940e252,2024-02-19_02h12.15.592,kallum_motion_pilot,2023.2.2,Win32,142.8571429,5e923d7e4be006078940e252,65d2b6c8f2eece985d8e374c,65d2b8bc4ce0964f7ee6f6d5,0.0123,0.0123,0,11,11,123,1,sixeight,,,,,,,,,,,,,,,,,,,,,,,,,,,,,,,,,,,,,,,,,,,,,,,,,,,,,,,,,,,,,,,,,,,,,,,,,,,,,,,,,,,,,,,,,,,,,,,,,,,,,,,,,,,,,,,,,,,,,,,,,,,,,,,,,,,,,,,,,
,,5e923d7e4be006078940e252,2024-02-19_02h12.15.592,kallum_motion_pilot,2023.2.2,Win32,142.8571429,5e923d7e4be006078940e252,65d2b6c8f2eece985d8e374c,65d2b8bc4ce0964f7ee6f6d5,0.0123,0.0123,0,12,12,95,1,eightseven,,,,,,,,,,,,,,,,,,,,,,,,,,,,,,,,,,,,,,,,,,,,,,,,,,,,,,,,,,,,,,,,,,,,,,,,,,,,,,,,,,,,,,,,,,,,,,,,,,,,,,,,,,,,,,,,,,,,,,,,,,,,,,,,,,,,,,,,,
,,5e923d7e4be006078940e252,2024-02-19_02h12.15.592,kallum_motion_pilot,2023.2.2,Win32,142.8571429,5e923d7e4be006078940e252,65d2b6c8f2eece985d8e374c,65d2b8bc4ce0964f7ee6f6d5,0.0124,0.0124,0,13,13,16,1,onetwo,,,,,,,,,,,,,,,,,,,,,,,,,,,,,,,,,,,,,,,,,,,,,,,,,,,,,,,,,,,,,,,,,,,,,,,,,,,,,,,,,,,,,,,,,,,,,,,,,,,,,,,,,,,,,,,,,,,,,,,,,,,,,,,,,,,,,,,,,
,,5e923d7e4be006078940e252,2024-02-19_02h12.15.592,kallum_motion_pilot,2023.2.2,Win32,142.8571429,5e923d7e4be006078940e252,65d2b6c8f2eece985d8e374c,65d2b8bc4ce0964f7ee6f6d5,0.0124,0.0124,0,14,14,89,1,fiveseven,,,,,,,,,,,,,,,,,,,,,,,,,,,,,,,,,,,,,,,,,,,,,,,,,,,,,,,,,,,,,,,,,,,,,,,,,,,,,,,,,,,,,,,,,,,,,,,,,,,,,,,,,,,,,,,,,,,,,,,,,,,,,,,,,,,,,,,,,
,,5e923d7e4be006078940e252,2024-02-19_02h12.15.592,kallum_motion_pilot,2023.2.2,Win32,142.8571429,5e923d7e4be006078940e252,65d2b6c8f2eece985d8e374c,65d2b8bc4ce0964f7ee6f6d5,0.0125,0.0125,0,15,15,147,1,sixeight,,,,,,,,,,,,,,,,,,,,,,,,,,,,,,,,,,,,,,,,,,,,,,,,,,,,,,,,,,,,,,,,,,,,,,,,,,,,,,,,,,,,,,,,,,,,,,,,,,,,,,,,,,,,,,,,,,,,,,,,,,,,,,,,,,,,,,,,,
,,5e923d7e4be006078940e252,2024-02-19_02h12.15.592,kallum_motion_pilot,2023.2.2,Win32,142.8571429,5e923d7e4be006078940e252,65d2b6c8f2eece985d8e374c,65d2b8bc4ce0964f7ee6f6d5,0.0125,0.0125,0,16,16,43,1,twofour,,,,,,,,,,,,,,,,,,,,,,,,,,,,,,,,,,,,,,,,,,,,,,,,,,,,,,,,,,,,,,,,,,,,,,,,,,,,,,,,,,,,,,,,,,,,,,,,,,,,,,,,,,,,,,,,,,,,,,,,,,,,,,,,,,,,,,,,,
,,5e923d7e4be006078940e252,2024-02-19_02h12.15.592,kallum_motion_pilot,2023.2.2,Win32,142.8571429,5e923d7e4be006078940e252,65d2b6c8f2eece985d8e374c,65d2b8bc4ce0964f7ee6f6d5,0.0125,0.0125,0,17,17,21,1,threefour,,,,,,,,,,,,,,,,,,,,,,,,,,,,,,,,,,,,,,,,,,,,,,,,,,,,,,,,,,,,,,,,,,,,,,,,,,,,,,,,,,,,,,,,,,,,,,,,,,,,,,,,,,,,,,,,,,,,,,,,,,,,,,,,,,,,,,,,,
,,5e923d7e4be006078940e252,2024-02-19_02h12.15.592,kallum_motion_pilot,2023.2.2,Win32,142.8571429,5e923d7e4be006078940e252,65d2b6c8f2eece985d8e374c,65d2b8bc4ce0964f7ee6f6d5,0.0125,0.0125,0,18,18,109,1,seveneight,,,,,,,,,,,,,,,,,,,,,,,,,,,,,,,,,,,,,,,,,,,,,,,,,,,,,,,,,,,,,,,,,,,,,,,,,,,,,,,,,,,,,,,,,,,,,,,,,,,,,,,,,,,,,,,,,,,,,,,,,,,,,,,,,,,,,,,,,
,,5e923d7e4be006078940e252,2024-02-19_02h12.15.592,kallum_motion_pilot,2023.2.2,Win32,142.8571429,5e923d7e4be006078940e252,65d2b6c8f2eece985d8e374c,65d2b8bc4ce0964f7ee6f6d5,0.0126,0.0126,0,19,19,81,1,fiveseven,,,,,,,,,,,,,,,,,,,,,,,,,,,,,,,,,,,,,,,,,,,,,,,,,,,,,,,,,,,,,,,,,,,,,,,,,,,,,,,,,,,,,,,,,,,,,,,,,,,,,,,,,,,,,,,,,,,,,,,,,,,,,,,,,,,,,,,,,
,,5e923d7e4be006078940e252,2024-02-19_02h12.15.592,kallum_motion_pilot,2023.2.2,Win32,142.8571429,5e923d7e4be006078940e252,65d2b6c8f2eece985d8e374c,65d2b8bc4ce0964f7ee6f6d5,0.0126,0.0127,0,20,20,13,1,threefour,,,,,,,,,,,,,,,,,,,,,,,,,,,,,,,,,,,,,,,,,,,,,,,,,,,,,,,,,,,,,,,,,,,,,,,,,,,,,,,,,,,,,,,,,,,,,,,,,,,,,,,,,,,,,,,,,,,,,,,,,,,,,,,,,,,,,,,,,
,,5e923d7e4be006078940e252,2024-02-19_02h12.15.592,kallum_motion_pilot,2023.2.2,Win32,142.8571429,5e923d7e4be006078940e252,65d2b6c8f2eece985d8e374c,65d2b8bc4ce0964f7ee6f6d5,0.0128,0.0128,0,21,21,118,1,eightsix,,,,,,,,,,,,,,,,,,,,,,,,,,,,,,,,,,,,,,,,,,,,,,,,,,,,,,,,,,,,,,,,,,,,,,,,,,,,,,,,,,,,,,,,,,,,,,,,,,,,,,,,,,,,,,,,,,,,,,,,,,,,,,,,,,,,,,,,,
,,5e923d7e4be006078940e252,2024-02-19_02h12.15.592,kallum_motion_pilot,2023.2.2,Win32,142.8571429,5e923d7e4be006078940e252,65d2b6c8f2eece985d8e374c,65d2b8bc4ce0964f7ee6f6d5,0.0128,0.0128,0,22,22,121,1,fiveseven,,,,,,,,,,,,,,,,,,,,,,,,,,,,,,,,,,,,,,,,,,,,,,,,,,,,,,,,,,,,,,,,,,,,,,,,,,,,,,,,,,,,,,,,,,,,,,,,,,,,,,,,,,,,,,,,,,,,,,,,,,,,,,,,,,,,,,,,,
,,5e923d7e4be006078940e252,2024-02-19_02h12.15.592,kallum_motion_pilot,2023.2.2,Win32,142.8571429,5e923d7e4be006078940e252,65d2b6c8f2eece985d8e374c,65d2b8bc4ce0964f7ee6f6d5,0.0128,0.0128,0,23,23,92,1,sevenfive,,,,,,,,,,,,,,,,,,,,,,,,,,,,,,,,,,,,,,,,,,,,,,,,,,,,,,,,,,,,,,,,,,,,,,,,,,,,,,,,,,,,,,,,,,,,,,,,,,,,,,,,,,,,,,,,,,,,,,,,,,,,,,,,,,,,,,,,,
,,5e923d7e4be006078940e252,2024-02-19_02h12.15.592,kallum_motion_pilot,2023.2.2,Win32,142.8571429,5e923d7e4be006078940e252,65d2b6c8f2eece985d8e374c,65d2b8bc4ce0964f7ee6f6d5,0.0129,0.0129,0,24,24,137,1,fiveseven,,,,,,,,,,,,,,,,,,,,,,,,,,,,,,,,,,,,,,,,,,,,,,,,,,,,,,,,,,,,,,,,,,,,,,,,,,,,,,,,,,,,,,,,,,,,,,,,,,,,,,,,,,,,,,,,,,,,,,,,,,,,,,,,,,,,,,,,,
,,5e923d7e4be006078940e252,2024-02-19_02h12.15.592,kallum_motion_pilot,2023.2.2,Win32,142.8571429,5e923d7e4be006078940e252,65d2b6c8f2eece985d8e374c,65d2b8bc4ce0964f7ee6f6d5,0.013,0.013,0,25,25,54,1,fourtwo,,,,,,,,,,,,,,,,,,,,,,,,,,,,,,,,,,,,,,,,,,,,,,,,,,,,,,,,,,,,,,,,,,,,,,,,,,,,,,,,,,,,,,,,,,,,,,,,,,,,,,,,,,,,,,,,,,,,,,,,,,,,,,,,,,,,,,,,,
,,5e923d7e4be006078940e252,2024-02-19_02h12.15.592,kallum_motion_pilot,2023.2.2,Win32,142.8571429,5e923d7e4be006078940e252,65d2b6c8f2eece985d8e374c,65d2b8bc4ce0964f7ee6f6d5,0.013,0.013,0,26,26,15,1,fourthree,,,,,,,,,,,,,,,,,,,,,,,,,,,,,,,,,,,,,,,,,,,,,,,,,,,,,,,,,,,,,,,,,,,,,,,,,,,,,,,,,,,,,,,,,,,,,,,,,,,,,,,,,,,,,,,,,,,,,,,,,,,,,,,,,,,,,,,,,
,,5e923d7e4be006078940e252,2024-02-19_02h12.15.592,kallum_motion_pilot,2023.2.2,Win32,142.8571429,5e923d7e4be006078940e252,65d2b6c8f2eece985d8e374c,65d2b8bc4ce0964f7ee6f6d5,0.013,0.0131,0,27,27,7,1,fourthree,,,,,,,,,,,,,,,,,,,,,,,,,,,,,,,,,,,,,,,,,,,,,,,,,,,,,,,,,,,,,,,,,,,,,,,,,,,,,,,,,,,,,,,,,,,,,,,,,,,,,,,,,,,,,,,,,,,,,,,,,,,,,,,,,,,,,,,,,
,,5e923d7e4be006078940e252,2024-02-19_02h12.15.592,kallum_motion_pilot,2023.2.2,Win32,142.8571429,5e923d7e4be006078940e252,65d2b6c8f2eece985d8e374c,65d2b8bc4ce0964f7ee6f6d5,0.0131,0.0131,0,28,28,48,1,onetwo,,,,,,,,,,,,,,,,,,,,,,,,,,,,,,,,,,,,,,,,,,,,,,,,,,,,,,,,,,,,,,,,,,,,,,,,,,,,,,,,,,,,,,,,,,,,,,,,,,,,,,,,,,,,,,,,,,,,,,,,,,,,,,,,,,,,,,,,,
,,5e923d7e4be006078940e252,2024-02-19_02h12.15.592,kallum_motion_pilot,2023.2.2,Win32,142.8571429,5e923d7e4be006078940e252,65d2b6c8f2eece985d8e374c,65d2b8bc4ce0964f7ee6f6d5,0.0131,0.0131,0,29,29,84,1,sevenfive,,,,,,,,,,,,,,,,,,,,,,,,,,,,,,,,,,,,,,,,,,,,,,,,,,,,,,,,,,,,,,,,,,,,,,,,,,,,,,,,,,,,,,,,,,,,,,,,,,,,,,,,,,,,,,,,,,,,,,,,,,,,,,,,,,,,,,,,,
,,5e923d7e4be006078940e252,2024-02-19_02h12.15.592,kallum_motion_pilot,2023.2.2,Win32,142.8571429,5e923d7e4be006078940e252,65d2b6c8f2eece985d8e374c,65d2b8bc4ce0964f7ee6f6d5,0.0132,0.0132,0,30,30,134,1,eightsix,,,,,,,,,,,,,,,,,,,,,,,,,,,,,,,,,,,,,,,,,,,,,,,,,,,,,,,,,,,,,,,,,,,,,,,,,,,,,,,,,,,,,,,,,,,,,,,,,,,,,,,,,,,,,,,,,,,,,,,,,,,,,,,,,,,,,,,,,
,,5e923d7e4be006078940e252,2024-02-19_02h12.15.592,kallum_motion_pilot,2023.2.2,Win32,142.8571429,5e923d7e4be006078940e252,65d2b6c8f2eece985d8e374c,65d2b8bc4ce0964f7ee6f6d5,0.0132,0.0132,0,31,31,19,1,twofour,,,,,,,,,,,,,,,,,,,,,,,,,,,,,,,,,,,,,,,,,,,,,,,,,,,,,,,,,,,,,,,,,,,,,,,,,,,,,,,,,,,,,,,,,,,,,,,,,,,,,,,,,,,,,,,,,,,,,,,,,,,,,,,,,,,,,,,,,
,,5e923d7e4be006078940e252,2024-02-19_02h12.15.592,kallum_motion_pilot,2023.2.2,Win32,142.8571429,5e923d7e4be006078940e252,65d2b6c8f2eece985d8e374c,65d2b8bc4ce0964f7ee6f6d5,0.0133,0.0133,0,32,32,128,1,fivesix,,,,,,,,,,,,,,,,,,,,,,,,,,,,,,,,,,,,,,,,,,,,,,,,,,,,,,,,,,,,,,,,,,,,,,,,,,,,,,,,,,,,,,,,,,,,,,,,,,,,,,,,,,,,,,,,,,,,,,,,,,,,,,,,,,,,,,,,,
,,5e923d7e4be006078940e252,2024-02-19_02h12.15.592,kallum_motion_pilot,2023.2.2,Win32,142.8571429,5e923d7e4be006078940e252,65d2b6c8f2eece985d8e374c,65d2b8bc4ce0964f7ee6f6d5,0.0133,0.0133,0,33,33,29,1,threefour,,,,,,,,,,,,,,,,,,,,,,,,,,,,,,,,,,,,,,,,,,,,,,,,,,,,,,,,,,,,,,,,,,,,,,,,,,,,,,,,,,,,,,,,,,,,,,,,,,,,,,,,,,,,,,,,,,,,,,,,,,,,,,,,,,,,,,,,,
,,5e923d7e4be006078940e252,2024-02-19_02h12.15.592,kallum_motion_pilot,2023.2.2,Win32,142.8571429,5e923d7e4be006078940e252,65d2b6c8f2eece985d8e374c,65d2b8bc4ce0964f7ee6f6d5,0.0134,0.0134,0,34,34,78,1,fourtwo,,,,,,,,,,,,,,,,,,,,,,,,,,,,,,,,,,,,,,,,,,,,,,,,,,,,,,,,,,,,,,,,,,,,,,,,,,,,,,,,,,,,,,,,,,,,,,,,,,,,,,,,,,,,,,,,,,,,,,,,,,,,,,,,,,,,,,,,,
,,5e923d7e4be006078940e252,2024-02-19_02h12.15.592,kallum_motion_pilot,2023.2.2,Win32,142.8571429,5e923d7e4be006078940e252,65d2b6c8f2eece985d8e374c,65d2b8bc4ce0964f7ee6f6d5,0.0134,0.0135,0,35,35,83,1,sixeight,,,,,,,,,,,,,,,,,,,,,,,,,,,,,,,,,,,,,,,,,,,,,,,,,,,,,,,,,,,,,,,,,,,,,,,,,,,,,,,,,,,,,,,,,,,,,,,,,,,,,,,,,,,,,,,,,,,,,,,,,,,,,,,,,,,,,,,,,
,,5e923d7e4be006078940e252,2024-02-19_02h12.15.592,kallum_motion_pilot,2023.2.2,Win32,142.8571429,5e923d7e4be006078940e252,65d2b6c8f2eece985d8e374c,65d2b8bc4ce0964f7ee6f6d5,0.0135,0.0135,0,36,36,31,1,fourthree,,,,,,,,,,,,,,,,,,,,,,,,,,,,,,,,,,,,,,,,,,,,,,,,,,,,,,,,,,,,,,,,,,,,,,,,,,,,,,,,,,,,,,,,,,,,,,,,,,,,,,,,,,,,,,,,,,,,,,,,,,,,,,,,,,,,,,,,,
,,5e923d7e4be006078940e252,2024-02-19_02h12.15.592,kallum_motion_pilot,2023.2.2,Win32,142.8571429,5e923d7e4be006078940e252,65d2b6c8f2eece985d8e374c,65d2b8bc4ce0964f7ee6f6d5,0.0135,0.0135,0,37,37,156,1,sevenfive,,,,,,,,,,,,,,,,,,,,,,,,,,,,,,,,,,,,,,,,,,,,,,,,,,,,,,,,,,,,,,,,,,,,,,,,,,,,,,,,,,,,,,,,,,,,,,,,,,,,,,,,,,,,,,,,,,,,,,,,,,,,,,,,,,,,,,,,,
,,5e923d7e4be006078940e252,2024-02-19_02h12.15.592,kallum_motion_pilot,2023.2.2,Win32,142.8571429,5e923d7e4be006078940e252,65d2b6c8f2eece985d8e374c,65d2b8bc4ce0964f7ee6f6d5,0.0136,0.0136,0,38,38,25,1,onethree,,,,,,,,,,,,,,,,,,,,,,,,,,,,,,,,,,,,,,,,,,,,,,,,,,,,,,,,,,,,,,,,,,,,,,,,,,,,,,,,,,,,,,,,,,,,,,,,,,,,,,,,,,,,,,,,,,,,,,,,,,,,,,,,,,,,,,,,,
,,5e923d7e4be006078940e252,2024-02-19_02h12.15.592,kallum_motion_pilot,2023.2.2,Win32,142.8571429,5e923d7e4be006078940e252,65d2b6c8f2eece985d8e374c,65d2b8bc4ce0964f7ee6f6d5,0.0136,0.0136,0,39,39,22,1,fourtwo,,,,,,,,,,,,,,,,,,,,,,,,,,,,,,,,,,,,,,,,,,,,,,,,,,,,,,,,,,,,,,,,,,,,,,,,,,,,,,,,,,,,,,,,,,,,,,,,,,,,,,,,,,,,,,,,,,,,,,,,,,,,,,,,,,,,,,,,,
,,5e923d7e4be006078940e252,2024-02-19_02h12.15.592,kallum_motion_pilot,2023.2.2,Win32,142.8571429,5e923d7e4be006078940e252,65d2b6c8f2eece985d8e374c,65d2b8bc4ce0964f7ee6f6d5,0.0136,0.0136,0,40,40,138,1,sixfive,,,,,,,,,,,,,,,,,,,,,,,,,,,,,,,,,,,,,,,,,,,,,,,,,,,,,,,,,,,,,,,,,,,,,,,,,,,,,,,,,,,,,,,,,,,,,,,,,,,,,,,,,,,,,,,,,,,,,,,,,,,,,,,,,,,,,,,,,
,,5e923d7e4be006078940e252,2024-02-19_02h12.15.592,kallum_motion_pilot,2023.2.2,Win32,142.8571429,5e923d7e4be006078940e252,65d2b6c8f2eece985d8e374c,65d2b8bc4ce0964f7ee6f6d5,0.0137,0.0137,0,41,41,117,1,seveneight,,,,,,,,,,,,,,,,,,,,,,,,,,,,,,,,,,,,,,,,,,,,,,,,,,,,,,,,,,,,,,,,,,,,,,,,,,,,,,,,,,,,,,,,,,,,,,,,,,,,,,,,,,,,,,,,,,,,,,,,,,,,,,,,,,,,,,,,,
,,5e923d7e4be006078940e252,2024-02-19_02h12.15.592,kallum_motion_pilot,2023.2.2,Win32,142.8571429,5e923d7e4be006078940e252,65d2b6c8f2eece985d8e374c,65d2b8bc4ce0964f7ee6f6d5,0.0137,0.0138,0,42,42,35,1,twofour,,,,,,,,,,,,,,,,,,,,,,,,,,,,,,,,,,,,,,,,,,,,,,,,,,,,,,,,,,,,,,,,,,,,,,,,,,,,,,,,,,,,,,,,,,,,,,,,,,,,,,,,,,,,,,,,,,,,,,,,,,,,,,,,,,,,,,,,,
,,5e923d7e4be006078940e252,2024-02-19_02h12.15.592,kallum_motion_pilot,2023.2.2,Win32,142.8571429,5e923d7e4be006078940e252,65d2b6c8f2eece985d8e374c,65d2b8bc4ce0964f7ee6f6d5,0.0138,0.0138,0,43,43,38,1,fourtwo,,,,,,,,,,,,,,,,,,,,,,,,,,,,,,,,,,,,,,,,,,,,,,,,,,,,,,,,,,,,,,,,,,,,,,,,,,,,,,,,,,,,,,,,,,,,,,,,,,,,,,,,,,,,,,,,,,,,,,,,,,,,,,,,,,,,,,,,,
,,5e923d7e4be006078940e252,2024-02-19_02h12.15.592,kallum_motion_pilot,2023.2.2,Win32,142.8571429,5e923d7e4be006078940e252,65d2b6c8f2eece985d8e374c,65d2b8bc4ce0964f7ee6f6d5,0.0138,0.0138,0,44,44,131,1,sixeight,,,,,,,,,,,,,,,,,,,,,,,,,,,,,,,,,,,,,,,,,,,,,,,,,,,,,,,,,,,,,,,,,,,,,,,,,,,,,,,,,,,,,,,,,,,,,,,,,,,,,,,,,,,,,,,,,,,,,,,,,,,,,,,,,,,,,,,,,
,,5e923d7e4be006078940e252,2024-02-19_02h12.15.592,kallum_motion_pilot,2023.2.2,Win32,142.8571429,5e923d7e4be006078940e252,65d2b6c8f2eece985d8e374c,65d2b8bc4ce0964f7ee6f6d5,0.0139,0.0139,0,45,45,9,1,onethree,,,,,,,,,,,,,,,,,,,,,,,,,,,,,,,,,,,,,,,,,,,,,,,,,,,,,,,,,,,,,,,,,,,,,,,,,,,,,,,,,,,,,,,,,,,,,,,,,,,,,,,,,,,,,,,,,,,,,,,,,,,,,,,,,,,,,,,,,
,,5e923d7e4be006078940e252,2024-02-19_02h12.15.592,kallum_motion_pilot,2023.2.2,Win32,142.8571429,5e923d7e4be006078940e252,65d2b6c8f2eece985d8e374c,65d2b8bc4ce0964f7ee6f6d5,0.0139,0.0139,0,46,46,98,1,sixfive,,,,,,,,,,,,,,,,,,,,,,,,,,,,,,,,,,,,,,,,,,,,,,,,,,,,,,,,,,,,,,,,,,,,,,,,,,,,,,,,,,,,,,,,,,,,,,,,,,,,,,,,,,,,,,,,,,,,,,,,,,,,,,,,,,,,,,,,,
,,5e923d7e4be006078940e252,2024-02-19_02h12.15.592,kallum_motion_pilot,2023.2.2,Win32,142.8571429,5e923d7e4be006078940e252,65d2b6c8f2eece985d8e374c,65d2b8bc4ce0964f7ee6f6d5,0.0139,0.0139,0,47,47,33,1,onethree,,,,,,,,,,,,,,,,,,,,,,,,,,,,,,,,,,,,,,,,,,,,,,,,,,,,,,,,,,,,,,,,,,,,,,,,,,,,,,,,,,,,,,,,,,,,,,,,,,,,,,,,,,,,,,,,,,,,,,,,,,,,,,,,,,,,,,,,,
,,5e923d7e4be006078940e252,2024-02-19_02h12.15.592,kallum_motion_pilot,2023.2.2,Win32,142.8571429,5e923d7e4be006078940e252,65d2b6c8f2eece985d8e374c,65d2b8bc4ce0964f7ee6f6d5,0.0139,0.0139,0,48,48,104,1,fivesix,,,,,,,,,,,,,,,,,,,,,,,,,,,,,,,,,,,,,,,,,,,,,,,,,,,,,,,,,,,,,,,,,,,,,,,,,,,,,,,,,,,,,,,,,,,,,,,,,,,,,,,,,,,,,,,,,,,,,,,,,,,,,,,,,,,,,,,,,
,,5e923d7e4be006078940e252,2024-02-19_02h12.15.592,kallum_motion_pilot,2023.2.2,Win32,142.8571429,5e923d7e4be006078940e252,65d2b6c8f2eece985d8e374c,65d2b8bc4ce0964f7ee6f6d5,0.014,0.014,0,49,49,80,1,fivesix,,,,,,,,,,,,,,,,,,,,,,,,,,,,,,,,,,,,,,,,,,,,,,,,,,,,,,,,,,,,,,,,,,,,,,,,,,,,,,,,,,,,,,,,,,,,,,,,,,,,,,,,,,,,,,,,,,,,,,,,,,,,,,,,,,,,,,,,,
,,5e923d7e4be006078940e252,2024-02-19_02h12.15.592,kallum_motion_pilot,2023.2.2,Win32,142.8571429,5e923d7e4be006078940e252,65d2b6c8f2eece985d8e374c,65d2b8bc4ce0964f7ee6f6d5,0.0141,0.0141,0,50,50,155,1,sixeight,,,,,,,,,,,,,,,,,,,,,,,,,,,,,,,,,,,,,,,,,,,,,,,,,,,,,,,,,,,,,,,,,,,,,,,,,,,,,,,,,,,,,,,,,,,,,,,,,,,,,,,,,,,,,,,,,,,,,,,,,,,,,,,,,,,,,,,,,
,,5e923d7e4be006078940e252,2024-02-19_02h12.15.592,kallum_motion_pilot,2023.2.2,Win32,142.8571429,5e923d7e4be006078940e252,65d2b6c8f2eece985d8e374c,65d2b8bc4ce0964f7ee6f6d5,0.0141,0.0142,0,51,51,141,1,seveneight,,,,,,,,,,,,,,,,,,,,,,,,,,,,,,,,,,,,,,,,,,,,,,,,,,,,,,,,,,,,,,,,,,,,,,,,,,,,,,,,,,,,,,,,,,,,,,,,,,,,,,,,,,,,,,,,,,,,,,,,,,,,,,,,,,,,,,,,,
,,5e923d7e4be006078940e252,2024-02-19_02h12.15.592,kallum_motion_pilot,2023.2.2,Win32,142.8571429,5e923d7e4be006078940e252,65d2b6c8f2eece985d8e374c,65d2b8bc4ce0964f7ee6f6d5,0.0142,0.0142,0,52,52,62,1,fourtwo,,,,,,,,,,,,,,,,,,,,,,,,,,,,,,,,,,,,,,,,,,,,,,,,,,,,,,,,,,,,,,,,,,,,,,,,,,,,,,,,,,,,,,,,,,,,,,,,,,,,,,,,,,,,,,,,,,,,,,,,,,,,,,,,,,,,,,,,,
,,5e923d7e4be006078940e252,2024-02-19_02h12.15.592,kallum_motion_pilot,2023.2.2,Win32,142.8571429,5e923d7e4be006078940e252,65d2b6c8f2eece985d8e374c,65d2b8bc4ce0964f7ee6f6d5,0.0142,0.0142,0,53,53,17,1,onethree,,,,,,,,,,,,,,,,,,,,,,,,,,,,,,,,,,,,,,,,,,,,,,,,,,,,,,,,,,,,,,,,,,,,,,,,,,,,,,,,,,,,,,,,,,,,,,,,,,,,,,,,,,,,,,,,,,,,,,,,,,,,,,,,,,,,,,,,,
,,5e923d7e4be006078940e252,2024-02-19_02h12.15.592,kallum_motion_pilot,2023.2.2,Win32,142.8571429,5e923d7e4be006078940e252,65d2b6c8f2eece985d8e374c,65d2b8bc4ce0964f7ee6f6d5,0.0143,0.0143,0,54,54,116,1,sevenfive,,,,,,,,,,,,,,,,,,,,,,,,,,,,,,,,,,,,,,,,,,,,,,,,,,,,,,,,,,,,,,,,,,,,,,,,,,,,,,,,,,,,,,,,,,,,,,,,,,,,,,,,,,,,,,,,,,,,,,,,,,,,,,,,,,,,,,,,,
,,5e923d7e4be006078940e252,2024-02-19_02h12.15.592,kallum_motion_pilot,2023.2.2,Win32,142.8571429,5e923d7e4be006078940e252,65d2b6c8f2eece985d8e374c,65d2b8bc4ce0964f7ee6f6d5,0.0143,0.0144,0,55,55,149,1,seveneight,,,,,,,,,,,,,,,,,,,,,,,,,,,,,,,,,,,,,,,,,,,,,,,,,,,,,,,,,,,,,,,,,,,,,,,,,,,,,,,,,,,,,,,,,,,,,,,,,,,,,,,,,,,,,,,,,,,,,,,,,,,,,,,,,,,,,,,,,
,,5e923d7e4be006078940e252,2024-02-19_02h12.15.592,kallum_motion_pilot,2023.2.2,Win32,142.8571429,5e923d7e4be006078940e252,65d2b6c8f2eece985d8e374c,65d2b8bc4ce0964f7ee6f6d5,0.0145,0.0145,0,56,56,125,1,seveneight,,,,,,,,,,,,,,,,,,,,,,,,,,,,,,,,,,,,,,,,,,,,,,,,,,,,,,,,,,,,,,,,,,,,,,,,,,,,,,,,,,,,,,,,,,,,,,,,,,,,,,,,,,,,,,,,,,,,,,,,,,,,,,,,,,,,,,,,,
,,5e923d7e4be006078940e252,2024-02-19_02h12.15.592,kallum_motion_pilot,2023.2.2,Win32,142.8571429,5e923d7e4be006078940e252,65d2b6c8f2eece985d8e374c,65d2b8bc4ce0964f7ee6f6d5,0.0146,0.0146,0,57,57,44,1,threeone,,,,,,,,,,,,,,,,,,,,,,,,,,,,,,,,,,,,,,,,,,,,,,,,,,,,,,,,,,,,,,,,,,,,,,,,,,,,,,,,,,,,,,,,,,,,,,,,,,,,,,,,,,,,,,,,,,,,,,,,,,,,,,,,,,,,,,,,,
,,5e923d7e4be006078940e252,2024-02-19_02h12.15.592,kallum_motion_pilot,2023.2.2,Win32,142.8571429,5e923d7e4be006078940e252,65d2b6c8f2eece985d8e374c,65d2b8bc4ce0964f7ee6f6d5,0.0146,0.0146,0,58,58,37,1,threefour,,,,,,,,,,,,,,,,,,,,,,,,,,,,,,,,,,,,,,,,,,,,,,,,,,,,,,,,,,,,,,,,,,,,,,,,,,,,,,,,,,,,,,,,,,,,,,,,,,,,,,,,,,,,,,,,,,,,,,,,,,,,,,,,,,,,,,,,,
,,5e923d7e4be006078940e252,2024-02-19_02h12.15.592,kallum_motion_pilot,2023.2.2,Win32,142.8571429,5e923d7e4be006078940e252,65d2b6c8f2eece985d8e374c,65d2b8bc4ce0964f7ee6f6d5,0.0146,0.0147,0,59,59,96,1,fivesix,,,,,,,,,,,,,,,,,,,,,,,,,,,,,,,,,,,,,,,,,,,,,,,,,,,,,,,,,,,,,,,,,,,,,,,,,,,,,,,,,,,,,,,,,,,,,,,,,,,,,,,,,,,,,,,,,,,,,,,,,,,,,,,,,,,,,,,,,
,,5e923d7e4be006078940e252,2024-02-19_02h12.15.592,kallum_motion_pilot,2023.2.2,Win32,142.8571429,5e923d7e4be006078940e252,65d2b6c8f2eece985d8e374c,65d2b8bc4ce0964f7ee6f6d5,0.0147,0.0147,0,60,60,101,1,seveneight,,,,,,,,,,,,,,,,,,,,,,,,,,,,,,,,,,,,,,,,,,,,,,,,,,,,,,,,,,,,,,,,,,,,,,,,,,,,,,,,,,,,,,,,,,,,,,,,,,,,,,,,,,,,,,,,,,,,,,,,,,,,,,,,,,,,,,,,,
,,5e923d7e4be006078940e252,2024-02-19_02h12.15.592,kallum_motion_pilot,2023.2.2,Win32,142.8571429,5e923d7e4be006078940e252,65d2b6c8f2eece985d8e374c,65d2b8bc4ce0964f7ee6f6d5,0.0148,0.0148,0,61,61,73,1,onethree,,,,,,,,,,,,,,,,,,,,,,,,,,,,,,,,,,,,,,,,,,,,,,,,,,,,,,,,,,,,,,,,,,,,,,,,,,,,,,,,,,,,,,,,,,,,,,,,,,,,,,,,,,,,,,,,,,,,,,,,,,,,,,,,,,,,,,,,,
,,5e923d7e4be006078940e252,2024-02-19_02h12.15.592,kallum_motion_pilot,2023.2.2,Win32,142.8571429,5e923d7e4be006078940e252,65d2b6c8f2eece985d8e374c,65d2b8bc4ce0964f7ee6f6d5,0.0149,0.0149,0,62,62,100,1,sevenfive,,,,,,,,,,,,,,,,,,,,,,,,,,,,,,,,,,,,,,,,,,,,,,,,,,,,,,,,,,,,,,,,,,,,,,,,,,,,,,,,,,,,,,,,,,,,,,,,,,,,,,,,,,,,,,,,,,,,,,,,,,,,,,,,,,,,,,,,,
,,5e923d7e4be006078940e252,2024-02-19_02h12.15.592,kallum_motion_pilot,2023.2.2,Win32,142.8571429,5e923d7e4be006078940e252,65d2b6c8f2eece985d8e374c,65d2b8bc4ce0964f7ee6f6d5,0.0149,0.015,0,63,63,86,1,eightsix,,,,,,,,,,,,,,,,,,,,,,,,,,,,,,,,,,,,,,,,,,,,,,,,,,,,,,,,,,,,,,,,,,,,,,,,,,,,,,,,,,,,,,,,,,,,,,,,,,,,,,,,,,,,,,,,,,,,,,,,,,,,,,,,,,,,,,,,,
,,5e923d7e4be006078940e252,2024-02-19_02h12.15.592,kallum_motion_pilot,2023.2.2,Win32,142.8571429,5e923d7e4be006078940e252,65d2b6c8f2eece985d8e374c,65d2b8bc4ce0964f7ee6f6d5,0.015,0.015,0,64,64,115,1,sixeight,,,,,,,,,,,,,,,,,,,,,,,,,,,,,,,,,,,,,,,,,,,,,,,,,,,,,,,,,,,,,,,,,,,,,,,,,,,,,,,,,,,,,,,,,,,,,,,,,,,,,,,,,,,,,,,,,,,,,,,,,,,,,,,,,,,,,,,,,
,,5e923d7e4be006078940e252,2024-02-19_02h12.15.592,kallum_motion_pilot,2023.2.2,Win32,142.8571429,5e923d7e4be006078940e252,65d2b6c8f2eece985d8e374c,65d2b8bc4ce0964f7ee6f6d5,0.0151,0.0151,0,65,65,68,1,threeone,,,,,,,,,,,,,,,,,,,,,,,,,,,,,,,,,,,,,,,,,,,,,,,,,,,,,,,,,,,,,,,,,,,,,,,,,,,,,,,,,,,,,,,,,,,,,,,,,,,,,,,,,,,,,,,,,,,,,,,,,,,,,,,,,,,,,,,,,
,,5e923d7e4be006078940e252,2024-02-19_02h12.15.592,kallum_motion_pilot,2023.2.2,Win32,142.8571429,5e923d7e4be006078940e252,65d2b6c8f2eece985d8e374c,65d2b8bc4ce0964f7ee6f6d5,0.0158,0.0159,0,66,66,126,1,eightsix,,,,,,,,,,,,,,,,,,,,,,,,,,,,,,,,,,,,,,,,,,,,,,,,,,,,,,,,,,,,,,,,,,,,,,,,,,,,,,,,,,,,,,,,,,,,,,,,,,,,,,,,,,,,,,,,,,,,,,,,,,,,,,,,,,,,,,,,,
,,5e923d7e4be006078940e252,2024-02-19_02h12.15.592,kallum_motion_pilot,2023.2.2,Win32,142.8571429,5e923d7e4be006078940e252,65d2b6c8f2eece985d8e374c,65d2b8bc4ce0964f7ee6f6d5,0.0159,0.0159,0,67,67,114,1,sixfive,,,,,,,,,,,,,,,,,,,,,,,,,,,,,,,,,,,,,,,,,,,,,,,,,,,,,,,,,,,,,,,,,,,,,,,,,,,,,,,,,,,,,,,,,,,,,,,,,,,,,,,,,,,,,,,,,,,,,,,,,,,,,,,,,,,,,,,,,
,,5e923d7e4be006078940e252,2024-02-19_02h12.15.592,kallum_motion_pilot,2023.2.2,Win32,142.8571429,5e923d7e4be006078940e252,65d2b6c8f2eece985d8e374c,65d2b8bc4ce0964f7ee6f6d5,0.0159,0.0159,0,68,68,94,1,eightsix,,,,,,,,,,,,,,,,,,,,,,,,,,,,,,,,,,,,,,,,,,,,,,,,,,,,,,,,,,,,,,,,,,,,,,,,,,,,,,,,,,,,,,,,,,,,,,,,,,,,,,,,,,,,,,,,,,,,,,,,,,,,,,,,,,,,,,,,,
,,5e923d7e4be006078940e252,2024-02-19_02h12.15.592,kallum_motion_pilot,2023.2.2,Win32,142.8571429,5e923d7e4be006078940e252,65d2b6c8f2eece985d8e374c,65d2b8bc4ce0964f7ee6f6d5,0.016,0.016,0,69,69,12,1,threeone,,,,,,,,,,,,,,,,,,,,,,,,,,,,,,,,,,,,,,,,,,,,,,,,,,,,,,,,,,,,,,,,,,,,,,,,,,,,,,,,,,,,,,,,,,,,,,,,,,,,,,,,,,,,,,,,,,,,,,,,,,,,,,,,,,,,,,,,,
,,5e923d7e4be006078940e252,2024-02-19_02h12.15.592,kallum_motion_pilot,2023.2.2,Win32,142.8571429,5e923d7e4be006078940e252,65d2b6c8f2eece985d8e374c,65d2b8bc4ce0964f7ee6f6d5,0.0161,0.0161,0,70,70,61,1,threefour,,,,,,,,,,,,,,,,,,,,,,,,,,,,,,,,,,,,,,,,,,,,,,,,,,,,,,,,,,,,,,,,,,,,,,,,,,,,,,,,,,,,,,,,,,,,,,,,,,,,,,,,,,,,,,,,,,,,,,,,,,,,,,,,,,,,,,,,,
,,5e923d7e4be006078940e252,2024-02-19_02h12.15.592,kallum_motion_pilot,2023.2.2,Win32,142.8571429,5e923d7e4be006078940e252,65d2b6c8f2eece985d8e374c,65d2b8bc4ce0964f7ee6f6d5,0.0161,0.0161,0,71,71,130,1,sixfive,,,,,,,,,,,,,,,,,,,,,,,,,,,,,,,,,,,,,,,,,,,,,,,,,,,,,,,,,,,,,,,,,,,,,,,,,,,,,,,,,,,,,,,,,,,,,,,,,,,,,,,,,,,,,,,,,,,,,,,,,,,,,,,,,,,,,,,,,
,,5e923d7e4be006078940e252,2024-02-19_02h12.15.592,kallum_motion_pilot,2023.2.2,Win32,142.8571429,5e923d7e4be006078940e252,65d2b6c8f2eece985d8e374c,65d2b8bc4ce0964f7ee6f6d5,0.0162,0.0162,0,72,72,151,1,eightseven,,,,,,,,,,,,,,,,,,,,,,,,,,,,,,,,,,,,,,,,,,,,,,,,,,,,,,,,,,,,,,,,,,,,,,,,,,,,,,,,,,,,,,,,,,,,,,,,,,,,,,,,,,,,,,,,,,,,,,,,,,,,,,,,,,,,,,,,,
,,5e923d7e4be006078940e252,2024-02-19_02h12.15.592,kallum_motion_pilot,2023.2.2,Win32,142.8571429,5e923d7e4be006078940e252,65d2b6c8f2eece985d8e374c,65d2b8bc4ce0964f7ee6f6d5,0.0162,0.0162,0,73,73,46,1,fourtwo,,,,,,,,,,,,,,,,,,,,,,,,,,,,,,,,,,,,,,,,,,,,,,,,,,,,,,,,,,,,,,,,,,,,,,,,,,,,,,,,,,,,,,,,,,,,,,,,,,,,,,,,,,,,,,,,,,,,,,,,,,,,,,,,,,,,,,,,,
,,5e923d7e4be006078940e252,2024-02-19_02h12.15.592,kallum_motion_pilot,2023.2.2,Win32,142.8571429,5e923d7e4be006078940e252,65d2b6c8f2eece985d8e374c,65d2b8bc4ce0964f7ee6f6d5,0.0163,0.0163,0,74,74,14,1,fourtwo,,,,,,,,,,,,,,,,,,,,,,,,,,,,,,,,,,,,,,,,,,,,,,,,,,,,,,,,,,,,,,,,,,,,,,,,,,,,,,,,,,,,,,,,,,,,,,,,,,,,,,,,,,,,,,,,,,,,,,,,,,,,,,,,,,,,,,,,,
,,5e923d7e4be006078940e252,2024-02-19_02h12.15.592,kallum_motion_pilot,2023.2.2,Win32,142.8571429,5e923d7e4be006078940e252,65d2b6c8f2eece985d8e374c,65d2b8bc4ce0964f7ee6f6d5,0.0163,0.0164,0,75,75,140,1,sevenfive,,,,,,,,,,,,,,,,,,,,,,,,,,,,,,,,,,,,,,,,,,,,,,,,,,,,,,,,,,,,,,,,,,,,,,,,,,,,,,,,,,,,,,,,,,,,,,,,,,,,,,,,,,,,,,,,,,,,,,,,,,,,,,,,,,,,,,,,,
,,5e923d7e4be006078940e252,2024-02-19_02h12.15.592,kallum_motion_pilot,2023.2.2,Win32,142.8571429,5e923d7e4be006078940e252,65d2b6c8f2eece985d8e374c,65d2b8bc4ce0964f7ee6f6d5,0.0164,0.0164,0,76,76,71,1,fourthree,,,,,,,,,,,,,,,,,,,,,,,,,,,,,,,,,,,,,,,,,,,,,,,,,,,,,,,,,,,,,,,,,,,,,,,,,,,,,,,,,,,,,,,,,,,,,,,,,,,,,,,,,,,,,,,,,,,,,,,,,,,,,,,,,,,,,,,,,
,,5e923d7e4be006078940e252,2024-02-19_02h12.15.592,kallum_motion_pilot,2023.2.2,Win32,142.8571429,5e923d7e4be006078940e252,65d2b6c8f2eece985d8e374c,65d2b8bc4ce0964f7ee6f6d5,0.0164,0.0165,0,77,77,64,1,onetwo,,,,,,,,,,,,,,,,,,,,,,,,,,,,,,,,,,,,,,,,,,,,,,,,,,,,,,,,,,,,,,,,,,,,,,,,,,,,,,,,,,,,,,,,,,,,,,,,,,,,,,,,,,,,,,,,,,,,,,,,,,,,,,,,,,,,,,,,,
,,5e923d7e4be006078940e252,2024-02-19_02h12.15.592,kallum_motion_pilot,2023.2.2,Win32,142.8571429,5e923d7e4be006078940e252,65d2b6c8f2eece985d8e374c,65d2b8bc4ce0964f7ee6f6d5,0.0165,0.0165,0,78,78,27,1,twofour,,,,,,,,,,,,,,,,,,,,,,,,,,,,,,,,,,,,,,,,,,,,,,,,,,,,,,,,,,,,,,,,,,,,,,,,,,,,,,,,,,,,,,,,,,,,,,,,,,,,,,,,,,,,,,,,,,,,,,,,,,,,,,,,,,,,,,,,,
,,5e923d7e4be006078940e252,2024-02-19_02h12.15.592,kallum_motion_pilot,2023.2.2,Win32,142.8571429,5e923d7e4be006078940e252,65d2b6c8f2eece985d8e374c,65d2b8bc4ce0964f7ee6f6d5,0.0166,0.0166,0,79,79,47,1,fourthree,,,,,,,,,,,,,,,,,,,,,,,,,,,,,,,,,,,,,,,,,,,,,,,,,,,,,,,,,,,,,,,,,,,,,,,,,,,,,,,,,,,,,,,,,,,,,,,,,,,,,,,,,,,,,,,,,,,,,,,,,,,,,,,,,,,,,,,,,
,,5e923d7e4be006078940e252,2024-02-19_02h12.15.592,kallum_motion_pilot,2023.2.2,Win32,142.8571429,5e923d7e4be006078940e252,65d2b6c8f2eece985d8e374c,65d2b8bc4ce0964f7ee6f6d5,0.0166,0.0166,0,80,80,77,1,threefour,,,,,,,,,,,,,,,,,,,,,,,,,,,,,,,,,,,,,,,,,,,,,,,,,,,,,,,,,,,,,,,,,,,,,,,,,,,,,,,,,,,,,,,,,,,,,,,,,,,,,,,,,,,,,,,,,,,,,,,,,,,,,,,,,,,,,,,,,
,,5e923d7e4be006078940e252,2024-02-19_02h12.15.592,kallum_motion_pilot,2023.2.2,Win32,142.8571429,5e923d7e4be006078940e252,65d2b6c8f2eece985d8e374c,65d2b8bc4ce0964f7ee6f6d5,0.0166,0.0167,0,81,81,75,1,twofour,,,,,,,,,,,,,,,,,,,,,,,,,,,,,,,,,,,,,,,,,,,,,,,,,,,,,,,,,,,,,,,,,,,,,,,,,,,,,,,,,,,,,,,,,,,,,,,,,,,,,,,,,,,,,,,,,,,,,,,,,,,,,,,,,,,,,,,,,
,,5e923d7e4be006078940e252,2024-02-19_02h12.15.592,kallum_motion_pilot,2023.2.2,Win32,142.8571429,5e923d7e4be006078940e252,65d2b6c8f2eece985d8e374c,65d2b8bc4ce0964f7ee6f6d5,0.0167,0.0167,0,82,82,112,1,fivesix,,,,,,,,,,,,,,,,,,,,,,,,,,,,,,,,,,,,,,,,,,,,,,,,,,,,,,,,,,,,,,,,,,,,,,,,,,,,,,,,,,,,,,,,,,,,,,,,,,,,,,,,,,,,,,,,,,,,,,,,,,,,,,,,,,,,,,,,,
,,5e923d7e4be006078940e252,2024-02-19_02h12.15.592,kallum_motion_pilot,2023.2.2,Win32,142.8571429,5e923d7e4be006078940e252,65d2b6c8f2eece985d8e374c,65d2b8bc4ce0964f7ee6f6d5,0.0167,0.0167,0,83,83,57,1,onethree,,,,,,,,,,,,,,,,,,,,,,,,,,,,,,,,,,,,,,,,,,,,,,,,,,,,,,,,,,,,,,,,,,,,,,,,,,,,,,,,,,,,,,,,,,,,,,,,,,,,,,,,,,,,,,,,,,,,,,,,,,,,,,,,,,,,,,,,,
,,5e923d7e4be006078940e252,2024-02-19_02h12.15.592,kallum_motion_pilot,2023.2.2,Win32,142.8571429,5e923d7e4be006078940e252,65d2b6c8f2eece985d8e374c,65d2b8bc4ce0964f7ee6f6d5,0.0168,0.0169,0,84,84,4,1,threeone,,,,,,,,,,,,,,,,,,,,,,,,,,,,,,,,,,,,,,,,,,,,,,,,,,,,,,,,,,,,,,,,,,,,,,,,,,,,,,,,,,,,,,,,,,,,,,,,,,,,,,,,,,,,,,,,,,,,,,,,,,,,,,,,,,,,,,,,,
,,5e923d7e4be006078940e252,2024-02-19_02h12.15.592,kallum_motion_pilot,2023.2.2,Win32,142.8571429,5e923d7e4be006078940e252,65d2b6c8f2eece985d8e374c,65d2b8bc4ce0964f7ee6f6d5,0.0169,0.0169,0,85,85,79,1,eightseven,,,,,,,,,,,,,,,,,,,,,,,,,,,,,,,,,,,,,,,,,,,,,,,,,,,,,,,,,,,,,,,,,,,,,,,,,,,,,,,,,,,,,,,,,,,,,,,,,,,,,,,,,,,,,,,,,,,,,,,,,,,,,,,,,,,,,,,,,
,,5e923d7e4be006078940e252,2024-02-19_02h12.15.592,kallum_motion_pilot,2023.2.2,Win32,142.8571429,5e923d7e4be006078940e252,65d2b6c8f2eece985d8e374c,65d2b8bc4ce0964f7ee6f6d5,0.0169,0.017,0,86,86,59,1,twofour,,,,,,,,,,,,,,,,,,,,,,,,,,,,,,,,,,,,,,,,,,,,,,,,,,,,,,,,,,,,,,,,,,,,,,,,,,,,,,,,,,,,,,,,,,,,,,,,,,,,,,,,,,,,,,,,,,,,,,,,,,,,,,,,,,,,,,,,,
,,5e923d7e4be006078940e252,2024-02-19_02h12.15.592,kallum_motion_pilot,2023.2.2,Win32,142.8571429,5e923d7e4be006078940e252,65d2b6c8f2eece985d8e374c,65d2b8bc4ce0964f7ee6f6d5,0.017,0.017,0,87,87,50,1,twoone,,,,,,,,,,,,,,,,,,,,,,,,,,,,,,,,,,,,,,,,,,,,,,,,,,,,,,,,,,,,,,,,,,,,,,,,,,,,,,,,,,,,,,,,,,,,,,,,,,,,,,,,,,,,,,,,,,,,,,,,,,,,,,,,,,,,,,,,,
,,5e923d7e4be006078940e252,2024-02-19_02h12.15.592,kallum_motion_pilot,2023.2.2,Win32,142.8571429,5e923d7e4be006078940e252,65d2b6c8f2eece985d8e374c,65d2b8bc4ce0964f7ee6f6d5,0.017,0.017,0,88,88,154,1,sixfive,,,,,,,,,,,,,,,,,,,,,,,,,,,,,,,,,,,,,,,,,,,,,,,,,,,,,,,,,,,,,,,,,,,,,,,,,,,,,,,,,,,,,,,,,,,,,,,,,,,,,,,,,,,,,,,,,,,,,,,,,,,,,,,,,,,,,,,,,
,,5e923d7e4be006078940e252,2024-02-19_02h12.15.592,kallum_motion_pilot,2023.2.2,Win32,142.8571429,5e923d7e4be006078940e252,65d2b6c8f2eece985d8e374c,65d2b8bc4ce0964f7ee6f6d5,0.017,0.017,0,89,89,93,1,seveneight,,,,,,,,,,,,,,,,,,,,,,,,,,,,,,,,,,,,,,,,,,,,,,,,,,,,,,,,,,,,,,,,,,,,,,,,,,,,,,,,,,,,,,,,,,,,,,,,,,,,,,,,,,,,,,,,,,,,,,,,,,,,,,,,,,,,,,,,,
,,5e923d7e4be006078940e252,2024-02-19_02h12.15.592,kallum_motion_pilot,2023.2.2,Win32,142.8571429,5e923d7e4be006078940e252,65d2b6c8f2eece985d8e374c,65d2b8bc4ce0964f7ee6f6d5,0.017,0.0171,0,90,90,135,1,eightseven,,,,,,,,,,,,,,,,,,,,,,,,,,,,,,,,,,,,,,,,,,,,,,,,,,,,,,,,,,,,,,,,,,,,,,,,,,,,,,,,,,,,,,,,,,,,,,,,,,,,,,,,,,,,,,,,,,,,,,,,,,,,,,,,,,,,,,,,,
,,5e923d7e4be006078940e252,2024-02-19_02h12.15.592,kallum_motion_pilot,2023.2.2,Win32,142.8571429,5e923d7e4be006078940e252,65d2b6c8f2eece985d8e374c,65d2b8bc4ce0964f7ee6f6d5,0.0172,0.0172,0,91,91,85,1,seveneight,,,,,,,,,,,,,,,,,,,,,,,,,,,,,,,,,,,,,,,,,,,,,,,,,,,,,,,,,,,,,,,,,,,,,,,,,,,,,,,,,,,,,,,,,,,,,,,,,,,,,,,,,,,,,,,,,,,,,,,,,,,,,,,,,,,,,,,,,
,,5e923d7e4be006078940e252,2024-02-19_02h12.15.592,kallum_motion_pilot,2023.2.2,Win32,142.8571429,5e923d7e4be006078940e252,65d2b6c8f2eece985d8e374c,65d2b8bc4ce0964f7ee6f6d5,0.0172,0.0172,0,92,92,144,1,fivesix,,,,,,,,,,,,,,,,,,,,,,,,,,,,,,,,,,,,,,,,,,,,,,,,,,,,,,,,,,,,,,,,,,,,,,,,,,,,,,,,,,,,,,,,,,,,,,,,,,,,,,,,,,,,,,,,,,,,,,,,,,,,,,,,,,,,,,,,,
,,5e923d7e4be006078940e252,2024-02-19_02h12.15.592,kallum_motion_pilot,2023.2.2,Win32,142.8571429,5e923d7e4be006078940e252,65d2b6c8f2eece985d8e374c,65d2b8bc4ce0964f7ee6f6d5,0.0173,0.0173,0,93,93,161,1,fiveseven,,,,,,,,,,,,,,,,,,,,,,,,,,,,,,,,,,,,,,,,,,,,,,,,,,,,,,,,,,,,,,,,,,,,,,,,,,,,,,,,,,,,,,,,,,,,,,,,,,,,,,,,,,,,,,,,,,,,,,,,,,,,,,,,,,,,,,,,,
,,5e923d7e4be006078940e252,2024-02-19_02h12.15.592,kallum_motion_pilot,2023.2.2,Win32,142.8571429,5e923d7e4be006078940e252,65d2b6c8f2eece985d8e374c,65d2b8bc4ce0964f7ee6f6d5,0.0173,0.0173,0,94,94,113,1,fiveseven,,,,,,,,,,,,,,,,,,,,,,,,,,,,,,,,,,,,,,,,,,,,,,,,,,,,,,,,,,,,,,,,,,,,,,,,,,,,,,,,,,,,,,,,,,,,,,,,,,,,,,,,,,,,,,,,,,,,,,,,,,,,,,,,,,,,,,,,,
,,5e923d7e4be006078940e252,2024-02-19_02h12.15.592,kallum_motion_pilot,2023.2.2,Win32,142.8571429,5e923d7e4be006078940e252,65d2b6c8f2eece985d8e374c,65d2b8bc4ce0964f7ee6f6d5,0.0173,0.0174,0,95,95,160,1,fivesix,,,,,,,,,,,,,,,,,,,,,,,,,,,,,,,,,,,,,,,,,,,,,,,,,,,,,,,,,,,,,,,,,,,,,,,,,,,,,,,,,,,,,,,,,,,,,,,,,,,,,,,,,,,,,,,,,,,,,,,,,,,,,,,,,,,,,,,,,
,,5e923d7e4be006078940e252,2024-02-19_02h12.15.592,kallum_motion_pilot,2023.2.2,Win32,142.8571429,5e923d7e4be006078940e252,65d2b6c8f2eece985d8e374c,65d2b8bc4ce0964f7ee6f6d5,0.0175,0.0175,0,96,96,66,1,twoone,,,,,,,,,,,,,,,,,,,,,,,,,,,,,,,,,,,,,,,,,,,,,,,,,,,,,,,,,,,,,,,,,,,,,,,,,,,,,,,,,,,,,,,,,,,,,,,,,,,,,,,,,,,,,,,,,,,,,,,,,,,,,,,,,,,,,,,,,
,,5e923d7e4be006078940e252,2024-02-19_02h12.15.592,kallum_motion_pilot,2023.2.2,Win32,142.8571429,5e923d7e4be006078940e252,65d2b6c8f2eece985d8e374c,65d2b8bc4ce0964f7ee6f6d5,0.0175,0.0175,0,97,97,103,1,eightseven,,,,,,,,,,,,,,,,,,,,,,,,,,,,,,,,,,,,,,,,,,,,,,,,,,,,,,,,,,,,,,,,,,,,,,,,,,,,,,,,,,,,,,,,,,,,,,,,,,,,,,,,,,,,,,,,,,,,,,,,,,,,,,,,,,,,,,,,,
,,5e923d7e4be006078940e252,2024-02-19_02h12.15.592,kallum_motion_pilot,2023.2.2,Win32,142.8571429,5e923d7e4be006078940e252,65d2b6c8f2eece985d8e374c,65d2b8bc4ce0964f7ee6f6d5,0.0175,0.0176,0,98,98,30,1,fourtwo,,,,,,,,,,,,,,,,,,,,,,,,,,,,,,,,,,,,,,,,,,,,,,,,,,,,,,,,,,,,,,,,,,,,,,,,,,,,,,,,,,,,,,,,,,,,,,,,,,,,,,,,,,,,,,,,,,,,,,,,,,,,,,,,,,,,,,,,,
,,5e923d7e4be006078940e252,2024-02-19_02h12.15.592,kallum_motion_pilot,2023.2.2,Win32,142.8571429,5e923d7e4be006078940e252,65d2b6c8f2eece985d8e374c,65d2b8bc4ce0964f7ee6f6d5,0.0176,0.0176,0,99,99,53,1,threefour,,,,,,,,,,,,,,,,,,,,,,,,,,,,,,,,,,,,,,,,,,,,,,,,,,,,,,,,,,,,,,,,,,,,,,,,,,,,,,,,,,,,,,,,,,,,,,,,,,,,,,,,,,,,,,,,,,,,,,,,,,,,,,,,,,,,,,,,,
,,5e923d7e4be006078940e252,2024-02-19_02h12.15.592,kallum_motion_pilot,2023.2.2,Win32,142.8571429,5e923d7e4be006078940e252,65d2b6c8f2eece985d8e374c,65d2b8bc4ce0964f7ee6f6d5,0.0177,0.0177,0,100,100,145,1,fiveseven,,,,,,,,,,,,,,,,,,,,,,,,,,,,,,,,,,,,,,,,,,,,,,,,,,,,,,,,,,,,,,,,,,,,,,,,,,,,,,,,,,,,,,,,,,,,,,,,,,,,,,,,,,,,,,,,,,,,,,,,,,,,,,,,,,,,,,,,,
,,5e923d7e4be006078940e252,2024-02-19_02h12.15.592,kallum_motion_pilot,2023.2.2,Win32,142.8571429,5e923d7e4be006078940e252,65d2b6c8f2eece985d8e374c,65d2b8bc4ce0964f7ee6f6d5,0.0177,0.0178,0,101,101,23,1,fourthree,,,,,,,,,,,,,,,,,,,,,,,,,,,,,,,,,,,,,,,,,,,,,,,,,,,,,,,,,,,,,,,,,,,,,,,,,,,,,,,,,,,,,,,,,,,,,,,,,,,,,,,,,,,,,,,,,,,,,,,,,,,,,,,,,,,,,,,,,
,,5e923d7e4be006078940e252,2024-02-19_02h12.15.592,kallum_motion_pilot,2023.2.2,Win32,142.8571429,5e923d7e4be006078940e252,65d2b6c8f2eece985d8e374c,65d2b8bc4ce0964f7ee6f6d5,0.0178,0.0179,0,102,102,40,1,onetwo,,,,,,,,,,,,,,,,,,,,,,,,,,,,,,,,,,,,,,,,,,,,,,,,,,,,,,,,,,,,,,,,,,,,,,,,,,,,,,,,,,,,,,,,,,,,,,,,,,,,,,,,,,,,,,,,,,,,,,,,,,,,,,,,,,,,,,,,,
,,5e923d7e4be006078940e252,2024-02-19_02h12.15.592,kallum_motion_pilot,2023.2.2,Win32,142.8571429,5e923d7e4be006078940e252,65d2b6c8f2eece985d8e374c,65d2b8bc4ce0964f7ee6f6d5,0.0179,0.0179,0,103,103,102,1,eightsix,,,,,,,,,,,,,,,,,,,,,,,,,,,,,,,,,,,,,,,,,,,,,,,,,,,,,,,,,,,,,,,,,,,,,,,,,,,,,,,,,,,,,,,,,,,,,,,,,,,,,,,,,,,,,,,,,,,,,,,,,,,,,,,,,,,,,,,,,
,,5e923d7e4be006078940e252,2024-02-19_02h12.15.592,kallum_motion_pilot,2023.2.2,Win32,142.8571429,5e923d7e4be006078940e252,65d2b6c8f2eece985d8e374c,65d2b8bc4ce0964f7ee6f6d5,0.0179,0.0179,0,104,104,26,1,twoone,,,,,,,,,,,,,,,,,,,,,,,,,,,,,,,,,,,,,,,,,,,,,,,,,,,,,,,,,,,,,,,,,,,,,,,,,,,,,,,,,,,,,,,,,,,,,,,,,,,,,,,,,,,,,,,,,,,,,,,,,,,,,,,,,,,,,,,,,
,,5e923d7e4be006078940e252,2024-02-19_02h12.15.592,kallum_motion_pilot,2023.2.2,Win32,142.8571429,5e923d7e4be006078940e252,65d2b6c8f2eece985d8e374c,65d2b8bc4ce0964f7ee6f6d5,0.018,0.018,0,105,105,106,1,sixfive,,,,,,,,,,,,,,,,,,,,,,,,,,,,,,,,,,,,,,,,,,,,,,,,,,,,,,,,,,,,,,,,,,,,,,,,,,,,,,,,,,,,,,,,,,,,,,,,,,,,,,,,,,,,,,,,,,,,,,,,,,,,,,,,,,,,,,,,,
,,5e923d7e4be006078940e252,2024-02-19_02h12.15.592,kallum_motion_pilot,2023.2.2,Win32,142.8571429,5e923d7e4be006078940e252,65d2b6c8f2eece985d8e374c,65d2b8bc4ce0964f7ee6f6d5,0.018,0.0181,0,106,106,70,1,fourtwo,,,,,,,,,,,,,,,,,,,,,,,,,,,,,,,,,,,,,,,,,,,,,,,,,,,,,,,,,,,,,,,,,,,,,,,,,,,,,,,,,,,,,,,,,,,,,,,,,,,,,,,,,,,,,,,,,,,,,,,,,,,,,,,,,,,,,,,,,
,,5e923d7e4be006078940e252,2024-02-19_02h12.15.592,kallum_motion_pilot,2023.2.2,Win32,142.8571429,5e923d7e4be006078940e252,65d2b6c8f2eece985d8e374c,65d2b8bc4ce0964f7ee6f6d5,0.0181,0.0181,0,107,107,55,1,fourthree,,,,,,,,,,,,,,,,,,,,,,,,,,,,,,,,,,,,,,,,,,,,,,,,,,,,,,,,,,,,,,,,,,,,,,,,,,,,,,,,,,,,,,,,,,,,,,,,,,,,,,,,,,,,,,,,,,,,,,,,,,,,,,,,,,,,,,,,,
,,5e923d7e4be006078940e252,2024-02-19_02h12.15.592,kallum_motion_pilot,2023.2.2,Win32,142.8571429,5e923d7e4be006078940e252,65d2b6c8f2eece985d8e374c,65d2b8bc4ce0964f7ee6f6d5,0.0182,0.0182,0,108,108,2,1,twoone,,,,,,,,,,,,,,,,,,,,,,,,,,,,,,,,,,,,,,,,,,,,,,,,,,,,,,,,,,,,,,,,,,,,,,,,,,,,,,,,,,,,,,,,,,,,,,,,,,,,,,,,,,,,,,,,,,,,,,,,,,,,,,,,,,,,,,,,,
,,5e923d7e4be006078940e252,2024-02-19_02h12.15.592,kallum_motion_pilot,2023.2.2,Win32,142.8571429,5e923d7e4be006078940e252,65d2b6c8f2eece985d8e374c,65d2b8bc4ce0964f7ee6f6d5,0.0182,0.0182,0,109,109,63,1,fourthree,,,,,,,,,,,,,,,,,,,,,,,,,,,,,,,,,,,,,,,,,,,,,,,,,,,,,,,,,,,,,,,,,,,,,,,,,,,,,,,,,,,,,,,,,,,,,,,,,,,,,,,,,,,,,,,,,,,,,,,,,,,,,,,,,,,,,,,,,
,,5e923d7e4be006078940e252,2024-02-19_02h12.15.592,kallum_motion_pilot,2023.2.2,Win32,142.8571429,5e923d7e4be006078940e252,65d2b6c8f2eece985d8e374c,65d2b8bc4ce0964f7ee6f6d5,0.0183,0.0184,0,110,110,110,1,eightsix,,,,,,,,,,,,,,,,,,,,,,,,,,,,,,,,,,,,,,,,,,,,,,,,,,,,,,,,,,,,,,,,,,,,,,,,,,,,,,,,,,,,,,,,,,,,,,,,,,,,,,,,,,,,,,,,,,,,,,,,,,,,,,,,,,,,,,,,,
,,5e923d7e4be006078940e252,2024-02-19_02h12.15.592,kallum_motion_pilot,2023.2.2,Win32,142.8571429,5e923d7e4be006078940e252,65d2b6c8f2eece985d8e374c,65d2b8bc4ce0964f7ee6f6d5,0.0184,0.0184,0,111,111,133,1,seveneight,,,,,,,,,,,,,,,,,,,,,,,,,,,,,,,,,,,,,,,,,,,,,,,,,,,,,,,,,,,,,,,,,,,,,,,,,,,,,,,,,,,,,,,,,,,,,,,,,,,,,,,,,,,,,,,,,,,,,,,,,,,,,,,,,,,,,,,,,
,,5e923d7e4be006078940e252,2024-02-19_02h12.15.592,kallum_motion_pilot,2023.2.2,Win32,142.8571429,5e923d7e4be006078940e252,65d2b6c8f2eece985d8e374c,65d2b8bc4ce0964f7ee6f6d5,0.0184,0.0184,0,112,112,119,1,eightseven,,,,,,,,,,,,,,,,,,,,,,,,,,,,,,,,,,,,,,,,,,,,,,,,,,,,,,,,,,,,,,,,,,,,,,,,,,,,,,,,,,,,,,,,,,,,,,,,,,,,,,,,,,,,,,,,,,,,,,,,,,,,,,,,,,,,,,,,,
,,5e923d7e4be006078940e252,2024-02-19_02h12.15.592,kallum_motion_pilot,2023.2.2,Win32,142.8571429,5e923d7e4be006078940e252,65d2b6c8f2eece985d8e374c,65d2b8bc4ce0964f7ee6f6d5,0.0184,0.0185,0,113,113,99,1,sixeight,,,,,,,,,,,,,,,,,,,,,,,,,,,,,,,,,,,,,,,,,,,,,,,,,,,,,,,,,,,,,,,,,,,,,,,,,,,,,,,,,,,,,,,,,,,,,,,,,,,,,,,,,,,,,,,,,,,,,,,,,,,,,,,,,,,,,,,,,
,,5e923d7e4be006078940e252,2024-02-19_02h12.15.592,kallum_motion_pilot,2023.2.2,Win32,142.8571429,5e923d7e4be006078940e252,65d2b6c8f2eece985d8e374c,65d2b8bc4ce0964f7ee6f6d5,0.0185,0.0185,0,114,114,8,1,onetwo,,,,,,,,,,,,,,,,,,,,,,,,,,,,,,,,,,,,,,,,,,,,,,,,,,,,,,,,,,,,,,,,,,,,,,,,,,,,,,,,,,,,,,,,,,,,,,,,,,,,,,,,,,,,,,,,,,,,,,,,,,,,,,,,,,,,,,,,,
,,5e923d7e4be006078940e252,2024-02-19_02h12.15.592,kallum_motion_pilot,2023.2.2,Win32,142.8571429,5e923d7e4be006078940e252,65d2b6c8f2eece985d8e374c,65d2b8bc4ce0964f7ee6f6d5,0.0186,0.0187,0,115,115,1,1,onethree,,,,,,,,,,,,,,,,,,,,,,,,,,,,,,,,,,,,,,,,,,,,,,,,,,,,,,,,,,,,,,,,,,,,,,,,,,,,,,,,,,,,,,,,,,,,,,,,,,,,,,,,,,,,,,,,,,,,,,,,,,,,,,,,,,,,,,,,,
,,5e923d7e4be006078940e252,2024-02-19_02h12.15.592,kallum_motion_pilot,2023.2.2,Win32,142.8571429,5e923d7e4be006078940e252,65d2b6c8f2eece985d8e374c,65d2b8bc4ce0964f7ee6f6d5,0.0187,0.0187,0,116,116,65,1,onethree,,,,,,,,,,,,,,,,,,,,,,,,,,,,,,,,,,,,,,,,,,,,,,,,,,,,,,,,,,,,,,,,,,,,,,,,,,,,,,,,,,,,,,,,,,,,,,,,,,,,,,,,,,,,,,,,,,,,,,,,,,,,,,,,,,,,,,,,,
,,5e923d7e4be006078940e252,2024-02-19_02h12.15.592,kallum_motion_pilot,2023.2.2,Win32,142.8571429,5e923d7e4be006078940e252,65d2b6c8f2eece985d8e374c,65d2b8bc4ce0964f7ee6f6d5,0.0188,0.0188,0,117,117,32,1,onetwo,,,,,,,,,,,,,,,,,,,,,,,,,,,,,,,,,,,,,,,,,,,,,,,,,,,,,,,,,,,,,,,,,,,,,,,,,,,,,,,,,,,,,,,,,,,,,,,,,,,,,,,,,,,,,,,,,,,,,,,,,,,,,,,,,,,,,,,,,
,,5e923d7e4be006078940e252,2024-02-19_02h12.15.592,kallum_motion_pilot,2023.2.2,Win32,142.8571429,5e923d7e4be006078940e252,65d2b6c8f2eece985d8e374c,65d2b8bc4ce0964f7ee6f6d5,0.0188,0.0188,0,118,118,90,1,sixfive,,,,,,,,,,,,,,,,,,,,,,,,,,,,,,,,,,,,,,,,,,,,,,,,,,,,,,,,,,,,,,,,,,,,,,,,,,,,,,,,,,,,,,,,,,,,,,,,,,,,,,,,,,,,,,,,,,,,,,,,,,,,,,,,,,,,,,,,,
,,5e923d7e4be006078940e252,2024-02-19_02h12.15.592,kallum_motion_pilot,2023.2.2,Win32,142.8571429,5e923d7e4be006078940e252,65d2b6c8f2eece985d8e374c,65d2b8bc4ce0964f7ee6f6d5,0.0188,0.0189,0,119,119,6,1,fourtwo,,,,,,,,,,,,,,,,,,,,,,,,,,,,,,,,,,,,,,,,,,,,,,,,,,,,,,,,,,,,,,,,,,,,,,,,,,,,,,,,,,,,,,,,,,,,,,,,,,,,,,,,,,,,,,,,,,,,,,,,,,,,,,,,,,,,,,,,,
,,5e923d7e4be006078940e252,2024-02-19_02h12.15.592,kallum_motion_pilot,2023.2.2,Win32,142.8571429,5e923d7e4be006078940e252,65d2b6c8f2eece985d8e374c,65d2b8bc4ce0964f7ee6f6d5,0.0189,0.019,0,120,120,0,1,onetwo,,,,,,,,,,,,,,,,,,,,,,,,,,,,,,,,,,,,,,,,,,,,,,,,,,,,,,,,,,,,,,,,,,,,,,,,,,,,,,,,,,,,,,,,,,,,,,,,,,,,,,,,,,,,,,,,,,,,,,,,,,,,,,,,,,,,,,,,,
,,5e923d7e4be006078940e252,2024-02-19_02h12.15.592,kallum_motion_pilot,2023.2.2,Win32,142.8571429,5e923d7e4be006078940e252,65d2b6c8f2eece985d8e374c,65d2b8bc4ce0964f7ee6f6d5,0.019,0.019,0,121,121,3,1,twofour,,,,,,,,,,,,,,,,,,,,,,,,,,,,,,,,,,,,,,,,,,,,,,,,,,,,,,,,,,,,,,,,,,,,,,,,,,,,,,,,,,,,,,,,,,,,,,,,,,,,,,,,,,,,,,,,,,,,,,,,,,,,,,,,,,,,,,,,,
,,5e923d7e4be006078940e252,2024-02-19_02h12.15.592,kallum_motion_pilot,2023.2.2,Win32,142.8571429,5e923d7e4be006078940e252,65d2b6c8f2eece985d8e374c,65d2b8bc4ce0964f7ee6f6d5,0.0191,0.0191,0,122,122,105,1,fiveseven,,,,,,,,,,,,,,,,,,,,,,,,,,,,,,,,,,,,,,,,,,,,,,,,,,,,,,,,,,,,,,,,,,,,,,,,,,,,,,,,,,,,,,,,,,,,,,,,,,,,,,,,,,,,,,,,,,,,,,,,,,,,,,,,,,,,,,,,,
,,5e923d7e4be006078940e252,2024-02-19_02h12.15.592,kallum_motion_pilot,2023.2.2,Win32,142.8571429,5e923d7e4be006078940e252,65d2b6c8f2eece985d8e374c,65d2b8bc4ce0964f7ee6f6d5,0.0192,0.0192,0,123,123,148,1,sevenfive,,,,,,,,,,,,,,,,,,,,,,,,,,,,,,,,,,,,,,,,,,,,,,,,,,,,,,,,,,,,,,,,,,,,,,,,,,,,,,,,,,,,,,,,,,,,,,,,,,,,,,,,,,,,,,,,,,,,,,,,,,,,,,,,,,,,,,,,,
,,5e923d7e4be006078940e252,2024-02-19_02h12.15.592,kallum_motion_pilot,2023.2.2,Win32,142.8571429,5e923d7e4be006078940e252,65d2b6c8f2eece985d8e374c,65d2b8bc4ce0964f7ee6f6d5,0.0193,0.0193,0,124,124,136,1,fivesix,,,,,,,,,,,,,,,,,,,,,,,,,,,,,,,,,,,,,,,,,,,,,,,,,,,,,,,,,,,,,,,,,,,,,,,,,,,,,,,,,,,,,,,,,,,,,,,,,,,,,,,,,,,,,,,,,,,,,,,,,,,,,,,,,,,,,,,,,
,,5e923d7e4be006078940e252,2024-02-19_02h12.15.592,kallum_motion_pilot,2023.2.2,Win32,142.8571429,5e923d7e4be006078940e252,65d2b6c8f2eece985d8e374c,65d2b8bc4ce0964f7ee6f6d5,0.0193,0.0193,0,125,125,18,1,twoone,,,,,,,,,,,,,,,,,,,,,,,,,,,,,,,,,,,,,,,,,,,,,,,,,,,,,,,,,,,,,,,,,,,,,,,,,,,,,,,,,,,,,,,,,,,,,,,,,,,,,,,,,,,,,,,,,,,,,,,,,,,,,,,,,,,,,,,,,
,,5e923d7e4be006078940e252,2024-02-19_02h12.15.592,kallum_motion_pilot,2023.2.2,Win32,142.8571429,5e923d7e4be006078940e252,65d2b6c8f2eece985d8e374c,65d2b8bc4ce0964f7ee6f6d5,0.0193,0.0193,0,126,126,159,1,eightseven,,,,,,,,,,,,,,,,,,,,,,,,,,,,,,,,,,,,,,,,,,,,,,,,,,,,,,,,,,,,,,,,,,,,,,,,,,,,,,,,,,,,,,,,,,,,,,,,,,,,,,,,,,,,,,,,,,,,,,,,,,,,,,,,,,,,,,,,,
,,5e923d7e4be006078940e252,2024-02-19_02h12.15.592,kallum_motion_pilot,2023.2.2,Win32,142.8571429,5e923d7e4be006078940e252,65d2b6c8f2eece985d8e374c,65d2b8bc4ce0964f7ee6f6d5,0.0195,0.0195,0,127,127,58,1,twoone,,,,,,,,,,,,,,,,,,,,,,,,,,,,,,,,,,,,,,,,,,,,,,,,,,,,,,,,,,,,,,,,,,,,,,,,,,,,,,,,,,,,,,,,,,,,,,,,,,,,,,,,,,,,,,,,,,,,,,,,,,,,,,,,,,,,,,,,,
,,5e923d7e4be006078940e252,2024-02-19_02h12.15.592,kallum_motion_pilot,2023.2.2,Win32,142.8571429,5e923d7e4be006078940e252,65d2b6c8f2eece985d8e374c,65d2b8bc4ce0964f7ee6f6d5,0.0196,0.0196,0,128,128,76,1,threeone,,,,,,,,,,,,,,,,,,,,,,,,,,,,,,,,,,,,,,,,,,,,,,,,,,,,,,,,,,,,,,,,,,,,,,,,,,,,,,,,,,,,,,,,,,,,,,,,,,,,,,,,,,,,,,,,,,,,,,,,,,,,,,,,,,,,,,,,,
,,5e923d7e4be006078940e252,2024-02-19_02h12.15.592,kallum_motion_pilot,2023.2.2,Win32,142.8571429,5e923d7e4be006078940e252,65d2b6c8f2eece985d8e374c,65d2b8bc4ce0964f7ee6f6d5,0.0196,0.0196,0,129,129,36,1,threeone,,,,,,,,,,,,,,,,,,,,,,,,,,,,,,,,,,,,,,,,,,,,,,,,,,,,,,,,,,,,,,,,,,,,,,,,,,,,,,,,,,,,,,,,,,,,,,,,,,,,,,,,,,,,,,,,,,,,,,,,,,,,,,,,,,,,,,,,,
,,5e923d7e4be006078940e252,2024-02-19_02h12.15.592,kallum_motion_pilot,2023.2.2,Win32,142.8571429,5e923d7e4be006078940e252,65d2b6c8f2eece985d8e374c,65d2b8bc4ce0964f7ee6f6d5,0.0196,0.0197,0,130,130,5,1,threefour,,,,,,,,,,,,,,,,,,,,,,,,,,,,,,,,,,,,,,,,,,,,,,,,,,,,,,,,,,,,,,,,,,,,,,,,,,,,,,,,,,,,,,,,,,,,,,,,,,,,,,,,,,,,,,,,,,,,,,,,,,,,,,,,,,,,,,,,,
,,5e923d7e4be006078940e252,2024-02-19_02h12.15.592,kallum_motion_pilot,2023.2.2,Win32,142.8571429,5e923d7e4be006078940e252,65d2b6c8f2eece985d8e374c,65d2b8bc4ce0964f7ee6f6d5,0.0197,0.0198,0,131,131,41,1,onethree,,,,,,,,,,,,,,,,,,,,,,,,,,,,,,,,,,,,,,,,,,,,,,,,,,,,,,,,,,,,,,,,,,,,,,,,,,,,,,,,,,,,,,,,,,,,,,,,,,,,,,,,,,,,,,,,,,,,,,,,,,,,,,,,,,,,,,,,,
,,5e923d7e4be006078940e252,2024-02-19_02h12.15.592,kallum_motion_pilot,2023.2.2,Win32,142.8571429,5e923d7e4be006078940e252,65d2b6c8f2eece985d8e374c,65d2b8bc4ce0964f7ee6f6d5,0.0198,0.0198,0,132,132,60,1,threeone,,,,,,,,,,,,,,,,,,,,,,,,,,,,,,,,,,,,,,,,,,,,,,,,,,,,,,,,,,,,,,,,,,,,,,,,,,,,,,,,,,,,,,,,,,,,,,,,,,,,,,,,,,,,,,,,,,,,,,,,,,,,,,,,,,,,,,,,,
,,5e923d7e4be006078940e252,2024-02-19_02h12.15.592,kallum_motion_pilot,2023.2.2,Win32,142.8571429,5e923d7e4be006078940e252,65d2b6c8f2eece985d8e374c,65d2b8bc4ce0964f7ee6f6d5,0.0198,0.0198,0,133,133,24,1,onetwo,,,,,,,,,,,,,,,,,,,,,,,,,,,,,,,,,,,,,,,,,,,,,,,,,,,,,,,,,,,,,,,,,,,,,,,,,,,,,,,,,,,,,,,,,,,,,,,,,,,,,,,,,,,,,,,,,,,,,,,,,,,,,,,,,,,,,,,,,
,,5e923d7e4be006078940e252,2024-02-19_02h12.15.592,kallum_motion_pilot,2023.2.2,Win32,142.8571429,5e923d7e4be006078940e252,65d2b6c8f2eece985d8e374c,65d2b8bc4ce0964f7ee6f6d5,0.0199,0.0199,0,134,134,88,1,fivesix,,,,,,,,,,,,,,,,,,,,,,,,,,,,,,,,,,,,,,,,,,,,,,,,,,,,,,,,,,,,,,,,,,,,,,,,,,,,,,,,,,,,,,,,,,,,,,,,,,,,,,,,,,,,,,,,,,,,,,,,,,,,,,,,,,,,,,,,,
,,5e923d7e4be006078940e252,2024-02-19_02h12.15.592,kallum_motion_pilot,2023.2.2,Win32,142.8571429,5e923d7e4be006078940e252,65d2b6c8f2eece985d8e374c,65d2b8bc4ce0964f7ee6f6d5,0.02,0.0201,0,135,135,67,1,twofour,,,,,,,,,,,,,,,,,,,,,,,,,,,,,,,,,,,,,,,,,,,,,,,,,,,,,,,,,,,,,,,,,,,,,,,,,,,,,,,,,,,,,,,,,,,,,,,,,,,,,,,,,,,,,,,,,,,,,,,,,,,,,,,,,,,,,,,,,
,,5e923d7e4be006078940e252,2024-02-19_02h12.15.592,kallum_motion_pilot,2023.2.2,Win32,142.8571429,5e923d7e4be006078940e252,65d2b6c8f2eece985d8e374c,65d2b8bc4ce0964f7ee6f6d5,0.0201,0.0201,0,136,136,49,1,onethree,,,,,,,,,,,,,,,,,,,,,,,,,,,,,,,,,,,,,,,,,,,,,,,,,,,,,,,,,,,,,,,,,,,,,,,,,,,,,,,,,,,,,,,,,,,,,,,,,,,,,,,,,,,,,,,,,,,,,,,,,,,,,,,,,,,,,,,,,
,,5e923d7e4be006078940e252,2024-02-19_02h12.15.592,kallum_motion_pilot,2023.2.2,Win32,142.8571429,5e923d7e4be006078940e252,65d2b6c8f2eece985d8e374c,65d2b8bc4ce0964f7ee6f6d5,0.0202,0.0202,0,137,137,74,1,twoone,,,,,,,,,,,,,,,,,,,,,,,,,,,,,,,,,,,,,,,,,,,,,,,,,,,,,,,,,,,,,,,,,,,,,,,,,,,,,,,,,,,,,,,,,,,,,,,,,,,,,,,,,,,,,,,,,,,,,,,,,,,,,,,,,,,,,,,,,
,,5e923d7e4be006078940e252,2024-02-19_02h12.15.592,kallum_motion_pilot,2023.2.2,Win32,142.8571429,5e923d7e4be006078940e252,65d2b6c8f2eece985d8e374c,65d2b8bc4ce0964f7ee6f6d5,0.0202,0.0203,0,138,138,51,1,twofour,,,,,,,,,,,,,,,,,,,,,,,,,,,,,,,,,,,,,,,,,,,,,,,,,,,,,,,,,,,,,,,,,,,,,,,,,,,,,,,,,,,,,,,,,,,,,,,,,,,,,,,,,,,,,,,,,,,,,,,,,,,,,,,,,,,,,,,,,
,,5e923d7e4be006078940e252,2024-02-19_02h12.15.592,kallum_motion_pilot,2023.2.2,Win32,142.8571429,5e923d7e4be006078940e252,65d2b6c8f2eece985d8e374c,65d2b8bc4ce0964f7ee6f6d5,0.0203,0.0203,0,139,139,97,1,fiveseven,,,,,,,,,,,,,,,,,,,,,,,,,,,,,,,,,,,,,,,,,,,,,,,,,,,,,,,,,,,,,,,,,,,,,,,,,,,,,,,,,,,,,,,,,,,,,,,,,,,,,,,,,,,,,,,,,,,,,,,,,,,,,,,,,,,,,,,,,
,,5e923d7e4be006078940e252,2024-02-19_02h12.15.592,kallum_motion_pilot,2023.2.2,Win32,142.8571429,5e923d7e4be006078940e252,65d2b6c8f2eece985d8e374c,65d2b8bc4ce0964f7ee6f6d5,0.0204,0.0204,0,140,140,142,1,eightsix,,,,,,,,,,,,,,,,,,,,,,,,,,,,,,,,,,,,,,,,,,,,,,,,,,,,,,,,,,,,,,,,,,,,,,,,,,,,,,,,,,,,,,,,,,,,,,,,,,,,,,,,,,,,,,,,,,,,,,,,,,,,,,,,,,,,,,,,,
,,5e923d7e4be006078940e252,2024-02-19_02h12.15.592,kallum_motion_pilot,2023.2.2,Win32,142.8571429,5e923d7e4be006078940e252,65d2b6c8f2eece985d8e374c,65d2b8bc4ce0964f7ee6f6d5,0.0205,0.0205,0,141,141,20,1,threeone,,,,,,,,,,,,,,,,,,,,,,,,,,,,,,,,,,,,,,,,,,,,,,,,,,,,,,,,,,,,,,,,,,,,,,,,,,,,,,,,,,,,,,,,,,,,,,,,,,,,,,,,,,,,,,,,,,,,,,,,,,,,,,,,,,,,,,,,,
,,5e923d7e4be006078940e252,2024-02-19_02h12.15.592,kallum_motion_pilot,2023.2.2,Win32,142.8571429,5e923d7e4be006078940e252,65d2b6c8f2eece985d8e374c,65d2b8bc4ce0964f7ee6f6d5,0.0205,0.0205,0,142,142,158,1,eightsix,,,,,,,,,,,,,,,,,,,,,,,,,,,,,,,,,,,,,,,,,,,,,,,,,,,,,,,,,,,,,,,,,,,,,,,,,,,,,,,,,,,,,,,,,,,,,,,,,,,,,,,,,,,,,,,,,,,,,,,,,,,,,,,,,,,,,,,,,
,,5e923d7e4be006078940e252,2024-02-19_02h12.15.592,kallum_motion_pilot,2023.2.2,Win32,142.8571429,5e923d7e4be006078940e252,65d2b6c8f2eece985d8e374c,65d2b8bc4ce0964f7ee6f6d5,0.0206,0.0206,0,143,143,108,1,sevenfive,,,,,,,,,,,,,,,,,,,,,,,,,,,,,,,,,,,,,,,,,,,,,,,,,,,,,,,,,,,,,,,,,,,,,,,,,,,,,,,,,,,,,,,,,,,,,,,,,,,,,,,,,,,,,,,,,,,,,,,,,,,,,,,,,,,,,,,,,
,,5e923d7e4be006078940e252,2024-02-19_02h12.15.592,kallum_motion_pilot,2023.2.2,Win32,142.8571429,5e923d7e4be006078940e252,65d2b6c8f2eece985d8e374c,65d2b8bc4ce0964f7ee6f6d5,0.0206,0.0206,0,144,144,150,1,eightsix,,,,,,,,,,,,,,,,,,,,,,,,,,,,,,,,,,,,,,,,,,,,,,,,,,,,,,,,,,,,,,,,,,,,,,,,,,,,,,,,,,,,,,,,,,,,,,,,,,,,,,,,,,,,,,,,,,,,,,,,,,,,,,,,,,,,,,,,,
,,5e923d7e4be006078940e252,2024-02-19_02h12.15.592,kallum_motion_pilot,2023.2.2,Win32,142.8571429,5e923d7e4be006078940e252,65d2b6c8f2eece985d8e374c,65d2b8bc4ce0964f7ee6f6d5,0.0208,0.0208,0,145,145,122,1,sixfive,,,,,,,,,,,,,,,,,,,,,,,,,,,,,,,,,,,,,,,,,,,,,,,,,,,,,,,,,,,,,,,,,,,,,,,,,,,,,,,,,,,,,,,,,,,,,,,,,,,,,,,,,,,,,,,,,,,,,,,,,,,,,,,,,,,,,,,,,
,,5e923d7e4be006078940e252,2024-02-19_02h12.15.592,kallum_motion_pilot,2023.2.2,Win32,142.8571429,5e923d7e4be006078940e252,65d2b6c8f2eece985d8e374c,65d2b8bc4ce0964f7ee6f6d5,0.0209,0.0209,0,146,146,52,1,threeone,,,,,,,,,,,,,,,,,,,,,,,,,,,,,,,,,,,,,,,,,,,,,,,,,,,,,,,,,,,,,,,,,,,,,,,,,,,,,,,,,,,,,,,,,,,,,,,,,,,,,,,,,,,,,,,,,,,,,,,,,,,,,,,,,,,,,,,,,
,,5e923d7e4be006078940e252,2024-02-19_02h12.15.592,kallum_motion_pilot,2023.2.2,Win32,142.8571429,5e923d7e4be006078940e252,65d2b6c8f2eece985d8e374c,65d2b8bc4ce0964f7ee6f6d5,0.0209,0.021,0,147,147,132,1,sevenfive,,,,,,,,,,,,,,,,,,,,,,,,,,,,,,,,,,,,,,,,,,,,,,,,,,,,,,,,,,,,,,,,,,,,,,,,,,,,,,,,,,,,,,,,,,,,,,,,,,,,,,,,,,,,,,,,,,,,,,,,,,,,,,,,,,,,,,,,,
,,5e923d7e4be006078940e252,2024-02-19_02h12.15.592,kallum_motion_pilot,2023.2.2,Win32,142.8571429,5e923d7e4be006078940e252,65d2b6c8f2eece985d8e374c,65d2b8bc4ce0964f7ee6f6d5,0.021,0.021,0,148,148,39,1,fourthree,,,,,,,,,,,,,,,,,,,,,,,,,,,,,,,,,,,,,,,,,,,,,,,,,,,,,,,,,,,,,,,,,,,,,,,,,,,,,,,,,,,,,,,,,,,,,,,,,,,,,,,,,,,,,,,,,,,,,,,,,,,,,,,,,,,,,,,,,
,,5e923d7e4be006078940e252,2024-02-19_02h12.15.592,kallum_motion_pilot,2023.2.2,Win32,142.8571429,5e923d7e4be006078940e252,65d2b6c8f2eece985d8e374c,65d2b8bc4ce0964f7ee6f6d5,0.0211,0.0211,0,149,149,129,1,fiveseven,,,,,,,,,,,,,,,,,,,,,,,,,,,,,,,,,,,,,,,,,,,,,,,,,,,,,,,,,,,,,,,,,,,,,,,,,,,,,,,,,,,,,,,,,,,,,,,,,,,,,,,,,,,,,,,,,,,,,,,,,,,,,,,,,,,,,,,,,
,,5e923d7e4be006078940e252,2024-02-19_02h12.15.592,kallum_motion_pilot,2023.2.2,Win32,142.8571429,5e923d7e4be006078940e252,65d2b6c8f2eece985d8e374c,65d2b8bc4ce0964f7ee6f6d5,0.0211,0.0211,0,150,150,111,1,eightseven,,,,,,,,,,,,,,,,,,,,,,,,,,,,,,,,,,,,,,,,,,,,,,,,,,,,,,,,,,,,,,,,,,,,,,,,,,,,,,,,,,,,,,,,,,,,,,,,,,,,,,,,,,,,,,,,,,,,,,,,,,,,,,,,,,,,,,,,,
,,5e923d7e4be006078940e252,2024-02-19_02h12.15.592,kallum_motion_pilot,2023.2.2,Win32,142.8571429,5e923d7e4be006078940e252,65d2b6c8f2eece985d8e374c,65d2b8bc4ce0964f7ee6f6d5,0.0212,0.0212,0,151,151,143,1,eightseven,,,,,,,,,,,,,,,,,,,,,,,,,,,,,,,,,,,,,,,,,,,,,,,,,,,,,,,,,,,,,,,,,,,,,,,,,,,,,,,,,,,,,,,,,,,,,,,,,,,,,,,,,,,,,,,,,,,,,,,,,,,,,,,,,,,,,,,,,
,,5e923d7e4be006078940e252,2024-02-19_02h12.15.592,kallum_motion_pilot,2023.2.2,Win32,142.8571429,5e923d7e4be006078940e252,65d2b6c8f2eece985d8e374c,65d2b8bc4ce0964f7ee6f6d5,0.0213,0.0214,0,152,152,42,1,twoone,,,,,,,,,,,,,,,,,,,,,,,,,,,,,,,,,,,,,,,,,,,,,,,,,,,,,,,,,,,,,,,,,,,,,,,,,,,,,,,,,,,,,,,,,,,,,,,,,,,,,,,,,,,,,,,,,,,,,,,,,,,,,,,,,,,,,,,,,
,,5e923d7e4be006078940e252,2024-02-19_02h12.15.592,kallum_motion_pilot,2023.2.2,Win32,142.8571429,5e923d7e4be006078940e252,65d2b6c8f2eece985d8e374c,65d2b8bc4ce0964f7ee6f6d5,0.0214,0.0214,0,153,153,152,1,fivesix,,,,,,,,,,,,,,,,,,,,,,,,,,,,,,,,,,,,,,,,,,,,,,,,,,,,,,,,,,,,,,,,,,,,,,,,,,,,,,,,,,,,,,,,,,,,,,,,,,,,,,,,,,,,,,,,,,,,,,,,,,,,,,,,,,,,,,,,,
,,5e923d7e4be006078940e252,2024-02-19_02h12.15.592,kallum_motion_pilot,2023.2.2,Win32,142.8571429,5e923d7e4be006078940e252,65d2b6c8f2eece985d8e374c,65d2b8bc4ce0964f7ee6f6d5,0.0214,0.0214,0,154,154,120,1,fivesix,,,,,,,,,,,,,,,,,,,,,,,,,,,,,,,,,,,,,,,,,,,,,,,,,,,,,,,,,,,,,,,,,,,,,,,,,,,,,,,,,,,,,,,,,,,,,,,,,,,,,,,,,,,,,,,,,,,,,,,,,,,,,,,,,,,,,,,,,
,,5e923d7e4be006078940e252,2024-02-19_02h12.15.592,kallum_motion_pilot,2023.2.2,Win32,142.8571429,5e923d7e4be006078940e252,65d2b6c8f2eece985d8e374c,65d2b8bc4ce0964f7ee6f6d5,0.0215,0.0216,0,155,155,127,1,eightseven,,,,,,,,,,,,,,,,,,,,,,,,,,,,,,,,,,,,,,,,,,,,,,,,,,,,,,,,,,,,,,,,,,,,,,,,,,,,,,,,,,,,,,,,,,,,,,,,,,,,,,,,,,,,,,,,,,,,,,,,,,,,,,,,,,,,,,,,,
,,5e923d7e4be006078940e252,2024-02-19_02h12.15.592,kallum_motion_pilot,2023.2.2,Win32,142.8571429,5e923d7e4be006078940e252,65d2b6c8f2eece985d8e374c,65d2b8bc4ce0964f7ee6f6d5,0.0216,0.0216,0,156,156,153,1,fiveseven,,,,,,,,,,,,,,,,,,,,,,,,,,,,,,,,,,,,,,,,,,,,,,,,,,,,,,,,,,,,,,,,,,,,,,,,,,,,,,,,,,,,,,,,,,,,,,,,,,,,,,,,,,,,,,,,,,,,,,,,,,,,,,,,,,,,,,,,,
,,5e923d7e4be006078940e252,2024-02-19_02h12.15.592,kallum_motion_pilot,2023.2.2,Win32,142.8571429,5e923d7e4be006078940e252,65d2b6c8f2eece985d8e374c,65d2b8bc4ce0964f7ee6f6d5,0.0217,0.0217,0,157,157,69,1,threefour,,,,,,,,,,,,,,,,,,,,,,,,,,,,,,,,,,,,,,,,,,,,,,,,,,,,,,,,,,,,,,,,,,,,,,,,,,,,,,,,,,,,,,,,,,,,,,,,,,,,,,,,,,,,,,,,,,,,,,,,,,,,,,,,,,,,,,,,,
,,5e923d7e4be006078940e252,2024-02-19_02h12.15.592,kallum_motion_pilot,2023.2.2,Win32,142.8571429,5e923d7e4be006078940e252,65d2b6c8f2eece985d8e374c,65d2b8bc4ce0964f7ee6f6d5,0.0218,0.0218,0,158,158,56,1,onetwo,,,,,,,,,,,,,,,,,,,,,,,,,,,,,,,,,,,,,,,,,,,,,,,,,,,,,,,,,,,,,,,,,,,,,,,,,,,,,,,,,,,,,,,,,,,,,,,,,,,,,,,,,,,,,,,,,,,,,,,,,,,,,,,,,,,,,,,,,
,,5e923d7e4be006078940e252,2024-02-19_02h12.15.592,kallum_motion_pilot,2023.2.2,Win32,142.8571429,5e923d7e4be006078940e252,65d2b6c8f2eece985d8e374c,65d2b8bc4ce0964f7ee6f6d5,0.0218,0.0219,0,159,159,45,1,threefour,,,,,,,,,,,,,,,,,,,,,,,,,,,,,,,,,,,,,,,,,,,,,,,,,,,,,,,,,,,,,,,,,,,,,,,,,,,,,,,,,,,,,,,,,,,,,,,,,,,,,,,,,,,,,,,,,,,,,,,,,,,,,,,,,,,,,,,,,
,,5e923d7e4be006078940e252,2024-02-19_02h12.15.592,kallum_motion_pilot,2023.2.2,Win32,142.8571429,5e923d7e4be006078940e252,65d2b6c8f2eece985d8e374c,65d2b8bc4ce0964f7ee6f6d5,0.0219,0.022,0,160,160,10,1,twoone,,,,,,,,,,,,,,,,,,,,,,,,,,,,,,,,,,,,,,,,,,,,,,,,,,,,,,,,,,,,,,,,,,,,,,,,,,,,,,,,,,,,,,,,,,,,,,,,,,,,,,,,,,,,,,,,,,,,,,,,,,,,,,,,,,,,,,,,,
,,5e923d7e4be006078940e252,2024-02-19_02h12.15.592,kallum_motion_pilot,2023.2.2,Win32,142.8571429,5e923d7e4be006078940e252,65d2b6c8f2eece985d8e374c,65d2b8bc4ce0964f7ee6f6d5,0.022,0.022,0,161,161,72,1,onetwo,,,,,,,,,,,,,,,,,,,,,,,,,,,,,,,,,,,,,,,,,,,,,,,,,,,,,,,,,,,,,,,,,,,,,,,,,,,,,,,,,,,,,,,,,,,,,,,,,,,,,,,,,,,,,,,,,,,,,,,,,,,,,,,,,,,,,,,,,
,,5e923d7e4be006078940e252,2024-02-19_02h12.15.592,kallum_motion_pilot,2023.2.2,Win32,142.8571429,5e923d7e4be006078940e252,65d2b6c8f2eece985d8e374c,65d2b8bc4ce0964f7ee6f6d5,0.022,0.0221,1,0,162,133,1,seveneight,,,,,,,,,,,,,,,,,,,,,,,,,,,,,,,,,,,,,,,,,,,,,,,,,,,,,,,,,,,,,,,,,,,,,,,,,,,,,,,,,,,,,,,,,,,,,,,,,,,,,,,,,,,,,,,,,,,,,,,,,,,,,,,,,,,,,,,,,
,,5e923d7e4be006078940e252,2024-02-19_02h12.15.592,kallum_motion_pilot,2023.2.2,Win32,142.8571429,5e923d7e4be006078940e252,65d2b6c8f2eece985d8e374c,65d2b8bc4ce0964f7ee6f6d5,0.0222,0.0222,1,1,163,17,1,onethree,,,,,,,,,,,,,,,,,,,,,,,,,,,,,,,,,,,,,,,,,,,,,,,,,,,,,,,,,,,,,,,,,,,,,,,,,,,,,,,,,,,,,,,,,,,,,,,,,,,,,,,,,,,,,,,,,,,,,,,,,,,,,,,,,,,,,,,,,
,,5e923d7e4be006078940e252,2024-02-19_02h12.15.592,kallum_motion_pilot,2023.2.2,Win32,142.8571429,5e923d7e4be006078940e252,65d2b6c8f2eece985d8e374c,65d2b8bc4ce0964f7ee6f6d5,0.0222,0.0223,1,2,164,147,1,sixeight,,,,,,,,,,,,,,,,,,,,,,,,,,,,,,,,,,,,,,,,,,,,,,,,,,,,,,,,,,,,,,,,,,,,,,,,,,,,,,,,,,,,,,,,,,,,,,,,,,,,,,,,,,,,,,,,,,,,,,,,,,,,,,,,,,,,,,,,,
,,5e923d7e4be006078940e252,2024-02-19_02h12.15.592,kallum_motion_pilot,2023.2.2,Win32,142.8571429,5e923d7e4be006078940e252,65d2b6c8f2eece985d8e374c,65d2b8bc4ce0964f7ee6f6d5,0.0223,0.0224,1,3,165,135,1,eightseven,,,,,,,,,,,,,,,,,,,,,,,,,,,,,,,,,,,,,,,,,,,,,,,,,,,,,,,,,,,,,,,,,,,,,,,,,,,,,,,,,,,,,,,,,,,,,,,,,,,,,,,,,,,,,,,,,,,,,,,,,,,,,,,,,,,,,,,,,
,,5e923d7e4be006078940e252,2024-02-19_02h12.15.592,kallum_motion_pilot,2023.2.2,Win32,142.8571429,5e923d7e4be006078940e252,65d2b6c8f2eece985d8e374c,65d2b8bc4ce0964f7ee6f6d5,0.0224,0.0224,1,4,166,129,1,fiveseven,,,,,,,,,,,,,,,,,,,,,,,,,,,,,,,,,,,,,,,,,,,,,,,,,,,,,,,,,,,,,,,,,,,,,,,,,,,,,,,,,,,,,,,,,,,,,,,,,,,,,,,,,,,,,,,,,,,,,,,,,,,,,,,,,,,,,,,,,
,,5e923d7e4be006078940e252,2024-02-19_02h12.15.592,kallum_motion_pilot,2023.2.2,Win32,142.8571429,5e923d7e4be006078940e252,65d2b6c8f2eece985d8e374c,65d2b8bc4ce0964f7ee6f6d5,0.0224,0.0225,1,5,167,151,1,eightseven,,,,,,,,,,,,,,,,,,,,,,,,,,,,,,,,,,,,,,,,,,,,,,,,,,,,,,,,,,,,,,,,,,,,,,,,,,,,,,,,,,,,,,,,,,,,,,,,,,,,,,,,,,,,,,,,,,,,,,,,,,,,,,,,,,,,,,,,,
,,5e923d7e4be006078940e252,2024-02-19_02h12.15.592,kallum_motion_pilot,2023.2.2,Win32,142.8571429,5e923d7e4be006078940e252,65d2b6c8f2eece985d8e374c,65d2b8bc4ce0964f7ee6f6d5,0.0225,0.0226,1,6,168,89,1,fiveseven,,,,,,,,,,,,,,,,,,,,,,,,,,,,,,,,,,,,,,,,,,,,,,,,,,,,,,,,,,,,,,,,,,,,,,,,,,,,,,,,,,,,,,,,,,,,,,,,,,,,,,,,,,,,,,,,,,,,,,,,,,,,,,,,,,,,,,,,,
,,5e923d7e4be006078940e252,2024-02-19_02h12.15.592,kallum_motion_pilot,2023.2.2,Win32,142.8571429,5e923d7e4be006078940e252,65d2b6c8f2eece985d8e374c,65d2b8bc4ce0964f7ee6f6d5,0.0226,0.0226,1,7,169,38,1,fourtwo,,,,,,,,,,,,,,,,,,,,,,,,,,,,,,,,,,,,,,,,,,,,,,,,,,,,,,,,,,,,,,,,,,,,,,,,,,,,,,,,,,,,,,,,,,,,,,,,,,,,,,,,,,,,,,,,,,,,,,,,,,,,,,,,,,,,,,,,,
,,5e923d7e4be006078940e252,2024-02-19_02h12.15.592,kallum_motion_pilot,2023.2.2,Win32,142.8571429,5e923d7e4be006078940e252,65d2b6c8f2eece985d8e374c,65d2b8bc4ce0964f7ee6f6d5,0.0227,0.0227,1,8,170,55,1,fourthree,,,,,,,,,,,,,,,,,,,,,,,,,,,,,,,,,,,,,,,,,,,,,,,,,,,,,,,,,,,,,,,,,,,,,,,,,,,,,,,,,,,,,,,,,,,,,,,,,,,,,,,,,,,,,,,,,,,,,,,,,,,,,,,,,,,,,,,,,
,,5e923d7e4be006078940e252,2024-02-19_02h12.15.592,kallum_motion_pilot,2023.2.2,Win32,142.8571429,5e923d7e4be006078940e252,65d2b6c8f2eece985d8e374c,65d2b8bc4ce0964f7ee6f6d5,0.0228,0.0228,1,9,171,8,1,onetwo,,,,,,,,,,,,,,,,,,,,,,,,,,,,,,,,,,,,,,,,,,,,,,,,,,,,,,,,,,,,,,,,,,,,,,,,,,,,,,,,,,,,,,,,,,,,,,,,,,,,,,,,,,,,,,,,,,,,,,,,,,,,,,,,,,,,,,,,,
,,5e923d7e4be006078940e252,2024-02-19_02h12.15.592,kallum_motion_pilot,2023.2.2,Win32,142.8571429,5e923d7e4be006078940e252,65d2b6c8f2eece985d8e374c,65d2b8bc4ce0964f7ee6f6d5,0.0228,0.0229,1,10,172,44,1,threeone,,,,,,,,,,,,,,,,,,,,,,,,,,,,,,,,,,,,,,,,,,,,,,,,,,,,,,,,,,,,,,,,,,,,,,,,,,,,,,,,,,,,,,,,,,,,,,,,,,,,,,,,,,,,,,,,,,,,,,,,,,,,,,,,,,,,,,,,,
,,5e923d7e4be006078940e252,2024-02-19_02h12.15.592,kallum_motion_pilot,2023.2.2,Win32,142.8571429,5e923d7e4be006078940e252,65d2b6c8f2eece985d8e374c,65d2b8bc4ce0964f7ee6f6d5,0.0229,0.0229,1,11,173,154,1,sixfive,,,,,,,,,,,,,,,,,,,,,,,,,,,,,,,,,,,,,,,,,,,,,,,,,,,,,,,,,,,,,,,,,,,,,,,,,,,,,,,,,,,,,,,,,,,,,,,,,,,,,,,,,,,,,,,,,,,,,,,,,,,,,,,,,,,,,,,,,
,,5e923d7e4be006078940e252,2024-02-19_02h12.15.592,kallum_motion_pilot,2023.2.2,Win32,142.8571429,5e923d7e4be006078940e252,65d2b6c8f2eece985d8e374c,65d2b8bc4ce0964f7ee6f6d5,0.0229,0.023,1,12,174,90,1,sixfive,,,,,,,,,,,,,,,,,,,,,,,,,,,,,,,,,,,,,,,,,,,,,,,,,,,,,,,,,,,,,,,,,,,,,,,,,,,,,,,,,,,,,,,,,,,,,,,,,,,,,,,,,,,,,,,,,,,,,,,,,,,,,,,,,,,,,,,,,
,,5e923d7e4be006078940e252,2024-02-19_02h12.15.592,kallum_motion_pilot,2023.2.2,Win32,142.8571429,5e923d7e4be006078940e252,65d2b6c8f2eece985d8e374c,65d2b8bc4ce0964f7ee6f6d5,0.023,0.0231,1,13,175,78,1,fourtwo,,,,,,,,,,,,,,,,,,,,,,,,,,,,,,,,,,,,,,,,,,,,,,,,,,,,,,,,,,,,,,,,,,,,,,,,,,,,,,,,,,,,,,,,,,,,,,,,,,,,,,,,,,,,,,,,,,,,,,,,,,,,,,,,,,,,,,,,,
,,5e923d7e4be006078940e252,2024-02-19_02h12.15.592,kallum_motion_pilot,2023.2.2,Win32,142.8571429,5e923d7e4be006078940e252,65d2b6c8f2eece985d8e374c,65d2b8bc4ce0964f7ee6f6d5,0.0231,0.0232,1,14,176,100,1,sevenfive,,,,,,,,,,,,,,,,,,,,,,,,,,,,,,,,,,,,,,,,,,,,,,,,,,,,,,,,,,,,,,,,,,,,,,,,,,,,,,,,,,,,,,,,,,,,,,,,,,,,,,,,,,,,,,,,,,,,,,,,,,,,,,,,,,,,,,,,,
,,5e923d7e4be006078940e252,2024-02-19_02h12.15.592,kallum_motion_pilot,2023.2.2,Win32,142.8571429,5e923d7e4be006078940e252,65d2b6c8f2eece985d8e374c,65d2b8bc4ce0964f7ee6f6d5,0.0232,0.0232,1,15,177,136,1,fivesix,,,,,,,,,,,,,,,,,,,,,,,,,,,,,,,,,,,,,,,,,,,,,,,,,,,,,,,,,,,,,,,,,,,,,,,,,,,,,,,,,,,,,,,,,,,,,,,,,,,,,,,,,,,,,,,,,,,,,,,,,,,,,,,,,,,,,,,,,
,,5e923d7e4be006078940e252,2024-02-19_02h12.15.592,kallum_motion_pilot,2023.2.2,Win32,142.8571429,5e923d7e4be006078940e252,65d2b6c8f2eece985d8e374c,65d2b8bc4ce0964f7ee6f6d5,0.0232,0.0233,1,16,178,41,1,onethree,,,,,,,,,,,,,,,,,,,,,,,,,,,,,,,,,,,,,,,,,,,,,,,,,,,,,,,,,,,,,,,,,,,,,,,,,,,,,,,,,,,,,,,,,,,,,,,,,,,,,,,,,,,,,,,,,,,,,,,,,,,,,,,,,,,,,,,,,
,,5e923d7e4be006078940e252,2024-02-19_02h12.15.592,kallum_motion_pilot,2023.2.2,Win32,142.8571429,5e923d7e4be006078940e252,65d2b6c8f2eece985d8e374c,65d2b8bc4ce0964f7ee6f6d5,0.0233,0.0234,1,17,179,33,1,onethree,,,,,,,,,,,,,,,,,,,,,,,,,,,,,,,,,,,,,,,,,,,,,,,,,,,,,,,,,,,,,,,,,,,,,,,,,,,,,,,,,,,,,,,,,,,,,,,,,,,,,,,,,,,,,,,,,,,,,,,,,,,,,,,,,,,,,,,,,
,,5e923d7e4be006078940e252,2024-02-19_02h12.15.592,kallum_motion_pilot,2023.2.2,Win32,142.8571429,5e923d7e4be006078940e252,65d2b6c8f2eece985d8e374c,65d2b8bc4ce0964f7ee6f6d5,0.0234,0.0235,1,18,180,102,1,eightsix,,,,,,,,,,,,,,,,,,,,,,,,,,,,,,,,,,,,,,,,,,,,,,,,,,,,,,,,,,,,,,,,,,,,,,,,,,,,,,,,,,,,,,,,,,,,,,,,,,,,,,,,,,,,,,,,,,,,,,,,,,,,,,,,,,,,,,,,,
,,5e923d7e4be006078940e252,2024-02-19_02h12.15.592,kallum_motion_pilot,2023.2.2,Win32,142.8571429,5e923d7e4be006078940e252,65d2b6c8f2eece985d8e374c,65d2b8bc4ce0964f7ee6f6d5,0.0236,0.0236,1,19,181,53,1,threefour,,,,,,,,,,,,,,,,,,,,,,,,,,,,,,,,,,,,,,,,,,,,,,,,,,,,,,,,,,,,,,,,,,,,,,,,,,,,,,,,,,,,,,,,,,,,,,,,,,,,,,,,,,,,,,,,,,,,,,,,,,,,,,,,,,,,,,,,,
,,5e923d7e4be006078940e252,2024-02-19_02h12.15.592,kallum_motion_pilot,2023.2.2,Win32,142.8571429,5e923d7e4be006078940e252,65d2b6c8f2eece985d8e374c,65d2b8bc4ce0964f7ee6f6d5,0.0236,0.0236,1,20,182,50,1,twoone,,,,,,,,,,,,,,,,,,,,,,,,,,,,,,,,,,,,,,,,,,,,,,,,,,,,,,,,,,,,,,,,,,,,,,,,,,,,,,,,,,,,,,,,,,,,,,,,,,,,,,,,,,,,,,,,,,,,,,,,,,,,,,,,,,,,,,,,,
,,5e923d7e4be006078940e252,2024-02-19_02h12.15.592,kallum_motion_pilot,2023.2.2,Win32,142.8571429,5e923d7e4be006078940e252,65d2b6c8f2eece985d8e374c,65d2b8bc4ce0964f7ee6f6d5,0.0237,0.0238,1,21,183,22,1,fourtwo,,,,,,,,,,,,,,,,,,,,,,,,,,,,,,,,,,,,,,,,,,,,,,,,,,,,,,,,,,,,,,,,,,,,,,,,,,,,,,,,,,,,,,,,,,,,,,,,,,,,,,,,,,,,,,,,,,,,,,,,,,,,,,,,,,,,,,,,,
,,5e923d7e4be006078940e252,2024-02-19_02h12.15.592,kallum_motion_pilot,2023.2.2,Win32,142.8571429,5e923d7e4be006078940e252,65d2b6c8f2eece985d8e374c,65d2b8bc4ce0964f7ee6f6d5,0.0238,0.0238,1,22,184,79,1,eightseven,,,,,,,,,,,,,,,,,,,,,,,,,,,,,,,,,,,,,,,,,,,,,,,,,,,,,,,,,,,,,,,,,,,,,,,,,,,,,,,,,,,,,,,,,,,,,,,,,,,,,,,,,,,,,,,,,,,,,,,,,,,,,,,,,,,,,,,,,
,,5e923d7e4be006078940e252,2024-02-19_02h12.15.592,kallum_motion_pilot,2023.2.2,Win32,142.8571429,5e923d7e4be006078940e252,65d2b6c8f2eece985d8e374c,65d2b8bc4ce0964f7ee6f6d5,0.0239,0.0239,1,23,185,16,1,onetwo,,,,,,,,,,,,,,,,,,,,,,,,,,,,,,,,,,,,,,,,,,,,,,,,,,,,,,,,,,,,,,,,,,,,,,,,,,,,,,,,,,,,,,,,,,,,,,,,,,,,,,,,,,,,,,,,,,,,,,,,,,,,,,,,,,,,,,,,,
,,5e923d7e4be006078940e252,2024-02-19_02h12.15.592,kallum_motion_pilot,2023.2.2,Win32,142.8571429,5e923d7e4be006078940e252,65d2b6c8f2eece985d8e374c,65d2b8bc4ce0964f7ee6f6d5,0.0239,0.024,1,24,186,25,1,onethree,,,,,,,,,,,,,,,,,,,,,,,,,,,,,,,,,,,,,,,,,,,,,,,,,,,,,,,,,,,,,,,,,,,,,,,,,,,,,,,,,,,,,,,,,,,,,,,,,,,,,,,,,,,,,,,,,,,,,,,,,,,,,,,,,,,,,,,,,
,,5e923d7e4be006078940e252,2024-02-19_02h12.15.592,kallum_motion_pilot,2023.2.2,Win32,142.8571429,5e923d7e4be006078940e252,65d2b6c8f2eece985d8e374c,65d2b8bc4ce0964f7ee6f6d5,0.0241,0.0241,1,25,187,40,1,onetwo,,,,,,,,,,,,,,,,,,,,,,,,,,,,,,,,,,,,,,,,,,,,,,,,,,,,,,,,,,,,,,,,,,,,,,,,,,,,,,,,,,,,,,,,,,,,,,,,,,,,,,,,,,,,,,,,,,,,,,,,,,,,,,,,,,,,,,,,,
,,5e923d7e4be006078940e252,2024-02-19_02h12.15.592,kallum_motion_pilot,2023.2.2,Win32,142.8571429,5e923d7e4be006078940e252,65d2b6c8f2eece985d8e374c,65d2b8bc4ce0964f7ee6f6d5,0.0241,0.0241,1,26,188,103,1,eightseven,,,,,,,,,,,,,,,,,,,,,,,,,,,,,,,,,,,,,,,,,,,,,,,,,,,,,,,,,,,,,,,,,,,,,,,,,,,,,,,,,,,,,,,,,,,,,,,,,,,,,,,,,,,,,,,,,,,,,,,,,,,,,,,,,,,,,,,,,
,,5e923d7e4be006078940e252,2024-02-19_02h12.15.592,kallum_motion_pilot,2023.2.2,Win32,142.8571429,5e923d7e4be006078940e252,65d2b6c8f2eece985d8e374c,65d2b8bc4ce0964f7ee6f6d5,0.0242,0.0242,1,27,189,95,1,eightseven,,,,,,,,,,,,,,,,,,,,,,,,,,,,,,,,,,,,,,,,,,,,,,,,,,,,,,,,,,,,,,,,,,,,,,,,,,,,,,,,,,,,,,,,,,,,,,,,,,,,,,,,,,,,,,,,,,,,,,,,,,,,,,,,,,,,,,,,,
,,5e923d7e4be006078940e252,2024-02-19_02h12.15.592,kallum_motion_pilot,2023.2.2,Win32,142.8571429,5e923d7e4be006078940e252,65d2b6c8f2eece985d8e374c,65d2b8bc4ce0964f7ee6f6d5,0.0242,0.0242,1,28,190,65,1,onethree,,,,,,,,,,,,,,,,,,,,,,,,,,,,,,,,,,,,,,,,,,,,,,,,,,,,,,,,,,,,,,,,,,,,,,,,,,,,,,,,,,,,,,,,,,,,,,,,,,,,,,,,,,,,,,,,,,,,,,,,,,,,,,,,,,,,,,,,,
,,5e923d7e4be006078940e252,2024-02-19_02h12.15.592,kallum_motion_pilot,2023.2.2,Win32,142.8571429,5e923d7e4be006078940e252,65d2b6c8f2eece985d8e374c,65d2b8bc4ce0964f7ee6f6d5,0.0242,0.0243,1,29,191,72,1,onetwo,,,,,,,,,,,,,,,,,,,,,,,,,,,,,,,,,,,,,,,,,,,,,,,,,,,,,,,,,,,,,,,,,,,,,,,,,,,,,,,,,,,,,,,,,,,,,,,,,,,,,,,,,,,,,,,,,,,,,,,,,,,,,,,,,,,,,,,,,
,,5e923d7e4be006078940e252,2024-02-19_02h12.15.592,kallum_motion_pilot,2023.2.2,Win32,142.8571429,5e923d7e4be006078940e252,65d2b6c8f2eece985d8e374c,65d2b8bc4ce0964f7ee6f6d5,0.0243,0.0243,1,30,192,0,1,onetwo,,,,,,,,,,,,,,,,,,,,,,,,,,,,,,,,,,,,,,,,,,,,,,,,,,,,,,,,,,,,,,,,,,,,,,,,,,,,,,,,,,,,,,,,,,,,,,,,,,,,,,,,,,,,,,,,,,,,,,,,,,,,,,,,,,,,,,,,,
,,5e923d7e4be006078940e252,2024-02-19_02h12.15.592,kallum_motion_pilot,2023.2.2,Win32,142.8571429,5e923d7e4be006078940e252,65d2b6c8f2eece985d8e374c,65d2b8bc4ce0964f7ee6f6d5,0.0243,0.0244,1,31,193,39,1,fourthree,,,,,,,,,,,,,,,,,,,,,,,,,,,,,,,,,,,,,,,,,,,,,,,,,,,,,,,,,,,,,,,,,,,,,,,,,,,,,,,,,,,,,,,,,,,,,,,,,,,,,,,,,,,,,,,,,,,,,,,,,,,,,,,,,,,,,,,,,
,,5e923d7e4be006078940e252,2024-02-19_02h12.15.592,kallum_motion_pilot,2023.2.2,Win32,142.8571429,5e923d7e4be006078940e252,65d2b6c8f2eece985d8e374c,65d2b8bc4ce0964f7ee6f6d5,0.0245,0.0245,1,32,194,146,1,sixfive,,,,,,,,,,,,,,,,,,,,,,,,,,,,,,,,,,,,,,,,,,,,,,,,,,,,,,,,,,,,,,,,,,,,,,,,,,,,,,,,,,,,,,,,,,,,,,,,,,,,,,,,,,,,,,,,,,,,,,,,,,,,,,,,,,,,,,,,,
,,5e923d7e4be006078940e252,2024-02-19_02h12.15.592,kallum_motion_pilot,2023.2.2,Win32,142.8571429,5e923d7e4be006078940e252,65d2b6c8f2eece985d8e374c,65d2b8bc4ce0964f7ee6f6d5,0.0245,0.0246,1,33,195,64,1,onetwo,,,,,,,,,,,,,,,,,,,,,,,,,,,,,,,,,,,,,,,,,,,,,,,,,,,,,,,,,,,,,,,,,,,,,,,,,,,,,,,,,,,,,,,,,,,,,,,,,,,,,,,,,,,,,,,,,,,,,,,,,,,,,,,,,,,,,,,,,
,,5e923d7e4be006078940e252,2024-02-19_02h12.15.592,kallum_motion_pilot,2023.2.2,Win32,142.8571429,5e923d7e4be006078940e252,65d2b6c8f2eece985d8e374c,65d2b8bc4ce0964f7ee6f6d5,0.0246,0.0247,1,34,196,114,1,sixfive,,,,,,,,,,,,,,,,,,,,,,,,,,,,,,,,,,,,,,,,,,,,,,,,,,,,,,,,,,,,,,,,,,,,,,,,,,,,,,,,,,,,,,,,,,,,,,,,,,,,,,,,,,,,,,,,,,,,,,,,,,,,,,,,,,,,,,,,,
,,5e923d7e4be006078940e252,2024-02-19_02h12.15.592,kallum_motion_pilot,2023.2.2,Win32,142.8571429,5e923d7e4be006078940e252,65d2b6c8f2eece985d8e374c,65d2b8bc4ce0964f7ee6f6d5,0.0247,0.0248,1,35,197,108,1,sevenfive,,,,,,,,,,,,,,,,,,,,,,,,,,,,,,,,,,,,,,,,,,,,,,,,,,,,,,,,,,,,,,,,,,,,,,,,,,,,,,,,,,,,,,,,,,,,,,,,,,,,,,,,,,,,,,,,,,,,,,,,,,,,,,,,,,,,,,,,,
,,5e923d7e4be006078940e252,2024-02-19_02h12.15.592,kallum_motion_pilot,2023.2.2,Win32,142.8571429,5e923d7e4be006078940e252,65d2b6c8f2eece985d8e374c,65d2b8bc4ce0964f7ee6f6d5,0.0248,0.0248,1,36,198,84,1,sevenfive,,,,,,,,,,,,,,,,,,,,,,,,,,,,,,,,,,,,,,,,,,,,,,,,,,,,,,,,,,,,,,,,,,,,,,,,,,,,,,,,,,,,,,,,,,,,,,,,,,,,,,,,,,,,,,,,,,,,,,,,,,,,,,,,,,,,,,,,,
,,5e923d7e4be006078940e252,2024-02-19_02h12.15.592,kallum_motion_pilot,2023.2.2,Win32,142.8571429,5e923d7e4be006078940e252,65d2b6c8f2eece985d8e374c,65d2b8bc4ce0964f7ee6f6d5,0.0249,0.0249,1,37,199,122,1,sixfive,,,,,,,,,,,,,,,,,,,,,,,,,,,,,,,,,,,,,,,,,,,,,,,,,,,,,,,,,,,,,,,,,,,,,,,,,,,,,,,,,,,,,,,,,,,,,,,,,,,,,,,,,,,,,,,,,,,,,,,,,,,,,,,,,,,,,,,,,
,,5e923d7e4be006078940e252,2024-02-19_02h12.15.592,kallum_motion_pilot,2023.2.2,Win32,142.8571429,5e923d7e4be006078940e252,65d2b6c8f2eece985d8e374c,65d2b8bc4ce0964f7ee6f6d5,0.025,0.025,1,38,200,68,1,threeone,,,,,,,,,,,,,,,,,,,,,,,,,,,,,,,,,,,,,,,,,,,,,,,,,,,,,,,,,,,,,,,,,,,,,,,,,,,,,,,,,,,,,,,,,,,,,,,,,,,,,,,,,,,,,,,,,,,,,,,,,,,,,,,,,,,,,,,,,
,,5e923d7e4be006078940e252,2024-02-19_02h12.15.592,kallum_motion_pilot,2023.2.2,Win32,142.8571429,5e923d7e4be006078940e252,65d2b6c8f2eece985d8e374c,65d2b8bc4ce0964f7ee6f6d5,0.025,0.025,1,39,201,145,1,fiveseven,,,,,,,,,,,,,,,,,,,,,,,,,,,,,,,,,,,,,,,,,,,,,,,,,,,,,,,,,,,,,,,,,,,,,,,,,,,,,,,,,,,,,,,,,,,,,,,,,,,,,,,,,,,,,,,,,,,,,,,,,,,,,,,,,,,,,,,,,
,,5e923d7e4be006078940e252,2024-02-19_02h12.15.592,kallum_motion_pilot,2023.2.2,Win32,142.8571429,5e923d7e4be006078940e252,65d2b6c8f2eece985d8e374c,65d2b8bc4ce0964f7ee6f6d5,0.025,0.0251,1,40,202,52,1,threeone,,,,,,,,,,,,,,,,,,,,,,,,,,,,,,,,,,,,,,,,,,,,,,,,,,,,,,,,,,,,,,,,,,,,,,,,,,,,,,,,,,,,,,,,,,,,,,,,,,,,,,,,,,,,,,,,,,,,,,,,,,,,,,,,,,,,,,,,,
,,5e923d7e4be006078940e252,2024-02-19_02h12.15.592,kallum_motion_pilot,2023.2.2,Win32,142.8571429,5e923d7e4be006078940e252,65d2b6c8f2eece985d8e374c,65d2b8bc4ce0964f7ee6f6d5,0.0251,0.0251,1,41,203,138,1,sixfive,,,,,,,,,,,,,,,,,,,,,,,,,,,,,,,,,,,,,,,,,,,,,,,,,,,,,,,,,,,,,,,,,,,,,,,,,,,,,,,,,,,,,,,,,,,,,,,,,,,,,,,,,,,,,,,,,,,,,,,,,,,,,,,,,,,,,,,,,
,,5e923d7e4be006078940e252,2024-02-19_02h12.15.592,kallum_motion_pilot,2023.2.2,Win32,142.8571429,5e923d7e4be006078940e252,65d2b6c8f2eece985d8e374c,65d2b8bc4ce0964f7ee6f6d5,0.0251,0.0252,1,42,204,137,1,fiveseven,,,,,,,,,,,,,,,,,,,,,,,,,,,,,,,,,,,,,,,,,,,,,,,,,,,,,,,,,,,,,,,,,,,,,,,,,,,,,,,,,,,,,,,,,,,,,,,,,,,,,,,,,,,,,,,,,,,,,,,,,,,,,,,,,,,,,,,,,
,,5e923d7e4be006078940e252,2024-02-19_02h12.15.592,kallum_motion_pilot,2023.2.2,Win32,142.8571429,5e923d7e4be006078940e252,65d2b6c8f2eece985d8e374c,65d2b8bc4ce0964f7ee6f6d5,0.0252,0.0252,1,43,205,143,1,eightseven,,,,,,,,,,,,,,,,,,,,,,,,,,,,,,,,,,,,,,,,,,,,,,,,,,,,,,,,,,,,,,,,,,,,,,,,,,,,,,,,,,,,,,,,,,,,,,,,,,,,,,,,,,,,,,,,,,,,,,,,,,,,,,,,,,,,,,,,,
,,5e923d7e4be006078940e252,2024-02-19_02h12.15.592,kallum_motion_pilot,2023.2.2,Win32,142.8571429,5e923d7e4be006078940e252,65d2b6c8f2eece985d8e374c,65d2b8bc4ce0964f7ee6f6d5,0.0253,0.0253,1,44,206,27,1,twofour,,,,,,,,,,,,,,,,,,,,,,,,,,,,,,,,,,,,,,,,,,,,,,,,,,,,,,,,,,,,,,,,,,,,,,,,,,,,,,,,,,,,,,,,,,,,,,,,,,,,,,,,,,,,,,,,,,,,,,,,,,,,,,,,,,,,,,,,,
,,5e923d7e4be006078940e252,2024-02-19_02h12.15.592,kallum_motion_pilot,2023.2.2,Win32,142.8571429,5e923d7e4be006078940e252,65d2b6c8f2eece985d8e374c,65d2b8bc4ce0964f7ee6f6d5,0.0254,0.0254,1,45,207,34,1,twoone,,,,,,,,,,,,,,,,,,,,,,,,,,,,,,,,,,,,,,,,,,,,,,,,,,,,,,,,,,,,,,,,,,,,,,,,,,,,,,,,,,,,,,,,,,,,,,,,,,,,,,,,,,,,,,,,,,,,,,,,,,,,,,,,,,,,,,,,,
,,5e923d7e4be006078940e252,2024-02-19_02h12.15.592,kallum_motion_pilot,2023.2.2,Win32,142.8571429,5e923d7e4be006078940e252,65d2b6c8f2eece985d8e374c,65d2b8bc4ce0964f7ee6f6d5,0.0254,0.0254,1,46,208,152,1,fivesix,,,,,,,,,,,,,,,,,,,,,,,,,,,,,,,,,,,,,,,,,,,,,,,,,,,,,,,,,,,,,,,,,,,,,,,,,,,,,,,,,,,,,,,,,,,,,,,,,,,,,,,,,,,,,,,,,,,,,,,,,,,,,,,,,,,,,,,,,
,,5e923d7e4be006078940e252,2024-02-19_02h12.15.592,kallum_motion_pilot,2023.2.2,Win32,142.8571429,5e923d7e4be006078940e252,65d2b6c8f2eece985d8e374c,65d2b8bc4ce0964f7ee6f6d5,0.0255,0.0256,1,47,209,37,1,threefour,,,,,,,,,,,,,,,,,,,,,,,,,,,,,,,,,,,,,,,,,,,,,,,,,,,,,,,,,,,,,,,,,,,,,,,,,,,,,,,,,,,,,,,,,,,,,,,,,,,,,,,,,,,,,,,,,,,,,,,,,,,,,,,,,,,,,,,,,
,,5e923d7e4be006078940e252,2024-02-19_02h12.15.592,kallum_motion_pilot,2023.2.2,Win32,142.8571429,5e923d7e4be006078940e252,65d2b6c8f2eece985d8e374c,65d2b8bc4ce0964f7ee6f6d5,0.0256,0.0256,1,48,210,120,1,fivesix,,,,,,,,,,,,,,,,,,,,,,,,,,,,,,,,,,,,,,,,,,,,,,,,,,,,,,,,,,,,,,,,,,,,,,,,,,,,,,,,,,,,,,,,,,,,,,,,,,,,,,,,,,,,,,,,,,,,,,,,,,,,,,,,,,,,,,,,,
,,5e923d7e4be006078940e252,2024-02-19_02h12.15.592,kallum_motion_pilot,2023.2.2,Win32,142.8571429,5e923d7e4be006078940e252,65d2b6c8f2eece985d8e374c,65d2b8bc4ce0964f7ee6f6d5,0.0256,0.0257,1,49,211,128,1,fivesix,,,,,,,,,,,,,,,,,,,,,,,,,,,,,,,,,,,,,,,,,,,,,,,,,,,,,,,,,,,,,,,,,,,,,,,,,,,,,,,,,,,,,,,,,,,,,,,,,,,,,,,,,,,,,,,,,,,,,,,,,,,,,,,,,,,,,,,,,
,,5e923d7e4be006078940e252,2024-02-19_02h12.15.592,kallum_motion_pilot,2023.2.2,Win32,142.8571429,5e923d7e4be006078940e252,65d2b6c8f2eece985d8e374c,65d2b8bc4ce0964f7ee6f6d5,0.0257,0.0258,1,50,212,109,1,seveneight,,,,,,,,,,,,,,,,,,,,,,,,,,,,,,,,,,,,,,,,,,,,,,,,,,,,,,,,,,,,,,,,,,,,,,,,,,,,,,,,,,,,,,,,,,,,,,,,,,,,,,,,,,,,,,,,,,,,,,,,,,,,,,,,,,,,,,,,,
,,5e923d7e4be006078940e252,2024-02-19_02h12.15.592,kallum_motion_pilot,2023.2.2,Win32,142.8571429,5e923d7e4be006078940e252,65d2b6c8f2eece985d8e374c,65d2b8bc4ce0964f7ee6f6d5,0.0258,0.0258,1,51,213,18,1,twoone,,,,,,,,,,,,,,,,,,,,,,,,,,,,,,,,,,,,,,,,,,,,,,,,,,,,,,,,,,,,,,,,,,,,,,,,,,,,,,,,,,,,,,,,,,,,,,,,,,,,,,,,,,,,,,,,,,,,,,,,,,,,,,,,,,,,,,,,,
,,5e923d7e4be006078940e252,2024-02-19_02h12.15.592,kallum_motion_pilot,2023.2.2,Win32,142.8571429,5e923d7e4be006078940e252,65d2b6c8f2eece985d8e374c,65d2b8bc4ce0964f7ee6f6d5,0.0258,0.0259,1,52,214,98,1,sixfive,,,,,,,,,,,,,,,,,,,,,,,,,,,,,,,,,,,,,,,,,,,,,,,,,,,,,,,,,,,,,,,,,,,,,,,,,,,,,,,,,,,,,,,,,,,,,,,,,,,,,,,,,,,,,,,,,,,,,,,,,,,,,,,,,,,,,,,,,
,,5e923d7e4be006078940e252,2024-02-19_02h12.15.592,kallum_motion_pilot,2023.2.2,Win32,142.8571429,5e923d7e4be006078940e252,65d2b6c8f2eece985d8e374c,65d2b8bc4ce0964f7ee6f6d5,0.0259,0.0259,1,53,215,149,1,seveneight,,,,,,,,,,,,,,,,,,,,,,,,,,,,,,,,,,,,,,,,,,,,,,,,,,,,,,,,,,,,,,,,,,,,,,,,,,,,,,,,,,,,,,,,,,,,,,,,,,,,,,,,,,,,,,,,,,,,,,,,,,,,,,,,,,,,,,,,,
,,5e923d7e4be006078940e252,2024-02-19_02h12.15.592,kallum_motion_pilot,2023.2.2,Win32,142.8571429,5e923d7e4be006078940e252,65d2b6c8f2eece985d8e374c,65d2b8bc4ce0964f7ee6f6d5,0.026,0.026,1,54,216,139,1,sixeight,,,,,,,,,,,,,,,,,,,,,,,,,,,,,,,,,,,,,,,,,,,,,,,,,,,,,,,,,,,,,,,,,,,,,,,,,,,,,,,,,,,,,,,,,,,,,,,,,,,,,,,,,,,,,,,,,,,,,,,,,,,,,,,,,,,,,,,,,
,,5e923d7e4be006078940e252,2024-02-19_02h12.15.592,kallum_motion_pilot,2023.2.2,Win32,142.8571429,5e923d7e4be006078940e252,65d2b6c8f2eece985d8e374c,65d2b8bc4ce0964f7ee6f6d5,0.0261,0.0261,1,55,217,80,1,fivesix,,,,,,,,,,,,,,,,,,,,,,,,,,,,,,,,,,,,,,,,,,,,,,,,,,,,,,,,,,,,,,,,,,,,,,,,,,,,,,,,,,,,,,,,,,,,,,,,,,,,,,,,,,,,,,,,,,,,,,,,,,,,,,,,,,,,,,,,,
,,5e923d7e4be006078940e252,2024-02-19_02h12.15.592,kallum_motion_pilot,2023.2.2,Win32,142.8571429,5e923d7e4be006078940e252,65d2b6c8f2eece985d8e374c,65d2b8bc4ce0964f7ee6f6d5,0.0261,0.0261,1,56,218,59,1,twofour,,,,,,,,,,,,,,,,,,,,,,,,,,,,,,,,,,,,,,,,,,,,,,,,,,,,,,,,,,,,,,,,,,,,,,,,,,,,,,,,,,,,,,,,,,,,,,,,,,,,,,,,,,,,,,,,,,,,,,,,,,,,,,,,,,,,,,,,,
,,5e923d7e4be006078940e252,2024-02-19_02h12.15.592,kallum_motion_pilot,2023.2.2,Win32,142.8571429,5e923d7e4be006078940e252,65d2b6c8f2eece985d8e374c,65d2b8bc4ce0964f7ee6f6d5,0.0262,0.0262,1,57,219,110,1,eightsix,,,,,,,,,,,,,,,,,,,,,,,,,,,,,,,,,,,,,,,,,,,,,,,,,,,,,,,,,,,,,,,,,,,,,,,,,,,,,,,,,,,,,,,,,,,,,,,,,,,,,,,,,,,,,,,,,,,,,,,,,,,,,,,,,,,,,,,,,
,,5e923d7e4be006078940e252,2024-02-19_02h12.15.592,kallum_motion_pilot,2023.2.2,Win32,142.8571429,5e923d7e4be006078940e252,65d2b6c8f2eece985d8e374c,65d2b8bc4ce0964f7ee6f6d5,0.0262,0.0263,1,58,220,83,1,sixeight,,,,,,,,,,,,,,,,,,,,,,,,,,,,,,,,,,,,,,,,,,,,,,,,,,,,,,,,,,,,,,,,,,,,,,,,,,,,,,,,,,,,,,,,,,,,,,,,,,,,,,,,,,,,,,,,,,,,,,,,,,,,,,,,,,,,,,,,,
,,5e923d7e4be006078940e252,2024-02-19_02h12.15.592,kallum_motion_pilot,2023.2.2,Win32,142.8571429,5e923d7e4be006078940e252,65d2b6c8f2eece985d8e374c,65d2b8bc4ce0964f7ee6f6d5,0.0263,0.0263,1,59,221,124,1,sevenfive,,,,,,,,,,,,,,,,,,,,,,,,,,,,,,,,,,,,,,,,,,,,,,,,,,,,,,,,,,,,,,,,,,,,,,,,,,,,,,,,,,,,,,,,,,,,,,,,,,,,,,,,,,,,,,,,,,,,,,,,,,,,,,,,,,,,,,,,,
,,5e923d7e4be006078940e252,2024-02-19_02h12.15.592,kallum_motion_pilot,2023.2.2,Win32,142.8571429,5e923d7e4be006078940e252,65d2b6c8f2eece985d8e374c,65d2b8bc4ce0964f7ee6f6d5,0.0263,0.0264,1,60,222,26,1,twoone,,,,,,,,,,,,,,,,,,,,,,,,,,,,,,,,,,,,,,,,,,,,,,,,,,,,,,,,,,,,,,,,,,,,,,,,,,,,,,,,,,,,,,,,,,,,,,,,,,,,,,,,,,,,,,,,,,,,,,,,,,,,,,,,,,,,,,,,,
,,5e923d7e4be006078940e252,2024-02-19_02h12.15.592,kallum_motion_pilot,2023.2.2,Win32,142.8571429,5e923d7e4be006078940e252,65d2b6c8f2eece985d8e374c,65d2b8bc4ce0964f7ee6f6d5,0.0265,0.0265,1,61,223,12,1,threeone,,,,,,,,,,,,,,,,,,,,,,,,,,,,,,,,,,,,,,,,,,,,,,,,,,,,,,,,,,,,,,,,,,,,,,,,,,,,,,,,,,,,,,,,,,,,,,,,,,,,,,,,,,,,,,,,,,,,,,,,,,,,,,,,,,,,,,,,,
,,5e923d7e4be006078940e252,2024-02-19_02h12.15.592,kallum_motion_pilot,2023.2.2,Win32,142.8571429,5e923d7e4be006078940e252,65d2b6c8f2eece985d8e374c,65d2b8bc4ce0964f7ee6f6d5,0.0265,0.0265,1,62,224,58,1,twoone,,,,,,,,,,,,,,,,,,,,,,,,,,,,,,,,,,,,,,,,,,,,,,,,,,,,,,,,,,,,,,,,,,,,,,,,,,,,,,,,,,,,,,,,,,,,,,,,,,,,,,,,,,,,,,,,,,,,,,,,,,,,,,,,,,,,,,,,,
,,5e923d7e4be006078940e252,2024-02-19_02h12.15.592,kallum_motion_pilot,2023.2.2,Win32,142.8571429,5e923d7e4be006078940e252,65d2b6c8f2eece985d8e374c,65d2b8bc4ce0964f7ee6f6d5,0.0265,0.0267,1,63,225,69,1,threefour,,,,,,,,,,,,,,,,,,,,,,,,,,,,,,,,,,,,,,,,,,,,,,,,,,,,,,,,,,,,,,,,,,,,,,,,,,,,,,,,,,,,,,,,,,,,,,,,,,,,,,,,,,,,,,,,,,,,,,,,,,,,,,,,,,,,,,,,,
,,5e923d7e4be006078940e252,2024-02-19_02h12.15.592,kallum_motion_pilot,2023.2.2,Win32,142.8571429,5e923d7e4be006078940e252,65d2b6c8f2eece985d8e374c,65d2b8bc4ce0964f7ee6f6d5,0.0267,0.0267,1,64,226,157,1,seveneight,,,,,,,,,,,,,,,,,,,,,,,,,,,,,,,,,,,,,,,,,,,,,,,,,,,,,,,,,,,,,,,,,,,,,,,,,,,,,,,,,,,,,,,,,,,,,,,,,,,,,,,,,,,,,,,,,,,,,,,,,,,,,,,,,,,,,,,,,
,,5e923d7e4be006078940e252,2024-02-19_02h12.15.592,kallum_motion_pilot,2023.2.2,Win32,142.8571429,5e923d7e4be006078940e252,65d2b6c8f2eece985d8e374c,65d2b8bc4ce0964f7ee6f6d5,0.0267,0.0267,1,65,227,61,1,threefour,,,,,,,,,,,,,,,,,,,,,,,,,,,,,,,,,,,,,,,,,,,,,,,,,,,,,,,,,,,,,,,,,,,,,,,,,,,,,,,,,,,,,,,,,,,,,,,,,,,,,,,,,,,,,,,,,,,,,,,,,,,,,,,,,,,,,,,,,
,,5e923d7e4be006078940e252,2024-02-19_02h12.15.592,kallum_motion_pilot,2023.2.2,Win32,142.8571429,5e923d7e4be006078940e252,65d2b6c8f2eece985d8e374c,65d2b8bc4ce0964f7ee6f6d5,0.0267,0.0268,1,66,228,7,1,fourthree,,,,,,,,,,,,,,,,,,,,,,,,,,,,,,,,,,,,,,,,,,,,,,,,,,,,,,,,,,,,,,,,,,,,,,,,,,,,,,,,,,,,,,,,,,,,,,,,,,,,,,,,,,,,,,,,,,,,,,,,,,,,,,,,,,,,,,,,,
,,5e923d7e4be006078940e252,2024-02-19_02h12.15.592,kallum_motion_pilot,2023.2.2,Win32,142.8571429,5e923d7e4be006078940e252,65d2b6c8f2eece985d8e374c,65d2b8bc4ce0964f7ee6f6d5,0.0268,0.0269,1,67,229,71,1,fourthree,,,,,,,,,,,,,,,,,,,,,,,,,,,,,,,,,,,,,,,,,,,,,,,,,,,,,,,,,,,,,,,,,,,,,,,,,,,,,,,,,,,,,,,,,,,,,,,,,,,,,,,,,,,,,,,,,,,,,,,,,,,,,,,,,,,,,,,,,
,,5e923d7e4be006078940e252,2024-02-19_02h12.15.592,kallum_motion_pilot,2023.2.2,Win32,142.8571429,5e923d7e4be006078940e252,65d2b6c8f2eece985d8e374c,65d2b8bc4ce0964f7ee6f6d5,0.0269,0.0269,1,68,230,5,1,threefour,,,,,,,,,,,,,,,,,,,,,,,,,,,,,,,,,,,,,,,,,,,,,,,,,,,,,,,,,,,,,,,,,,,,,,,,,,,,,,,,,,,,,,,,,,,,,,,,,,,,,,,,,,,,,,,,,,,,,,,,,,,,,,,,,,,,,,,,,
,,5e923d7e4be006078940e252,2024-02-19_02h12.15.592,kallum_motion_pilot,2023.2.2,Win32,142.8571429,5e923d7e4be006078940e252,65d2b6c8f2eece985d8e374c,65d2b8bc4ce0964f7ee6f6d5,0.027,0.027,1,69,231,57,1,onethree,,,,,,,,,,,,,,,,,,,,,,,,,,,,,,,,,,,,,,,,,,,,,,,,,,,,,,,,,,,,,,,,,,,,,,,,,,,,,,,,,,,,,,,,,,,,,,,,,,,,,,,,,,,,,,,,,,,,,,,,,,,,,,,,,,,,,,,,,
,,5e923d7e4be006078940e252,2024-02-19_02h12.15.592,kallum_motion_pilot,2023.2.2,Win32,142.8571429,5e923d7e4be006078940e252,65d2b6c8f2eece985d8e374c,65d2b8bc4ce0964f7ee6f6d5,0.027,0.027,1,70,232,101,1,seveneight,,,,,,,,,,,,,,,,,,,,,,,,,,,,,,,,,,,,,,,,,,,,,,,,,,,,,,,,,,,,,,,,,,,,,,,,,,,,,,,,,,,,,,,,,,,,,,,,,,,,,,,,,,,,,,,,,,,,,,,,,,,,,,,,,,,,,,,,,
,,5e923d7e4be006078940e252,2024-02-19_02h12.15.592,kallum_motion_pilot,2023.2.2,Win32,142.8571429,5e923d7e4be006078940e252,65d2b6c8f2eece985d8e374c,65d2b8bc4ce0964f7ee6f6d5,0.027,0.0274,1,71,233,35,1,twofour,,,,,,,,,,,,,,,,,,,,,,,,,,,,,,,,,,,,,,,,,,,,,,,,,,,,,,,,,,,,,,,,,,,,,,,,,,,,,,,,,,,,,,,,,,,,,,,,,,,,,,,,,,,,,,,,,,,,,,,,,,,,,,,,,,,,,,,,,
,,5e923d7e4be006078940e252,2024-02-19_02h12.15.592,kallum_motion_pilot,2023.2.2,Win32,142.8571429,5e923d7e4be006078940e252,65d2b6c8f2eece985d8e374c,65d2b8bc4ce0964f7ee6f6d5,0.0275,0.0276,1,72,234,54,1,fourtwo,,,,,,,,,,,,,,,,,,,,,,,,,,,,,,,,,,,,,,,,,,,,,,,,,,,,,,,,,,,,,,,,,,,,,,,,,,,,,,,,,,,,,,,,,,,,,,,,,,,,,,,,,,,,,,,,,,,,,,,,,,,,,,,,,,,,,,,,,
,,5e923d7e4be006078940e252,2024-02-19_02h12.15.592,kallum_motion_pilot,2023.2.2,Win32,142.8571429,5e923d7e4be006078940e252,65d2b6c8f2eece985d8e374c,65d2b8bc4ce0964f7ee6f6d5,0.0276,0.0276,1,73,235,9,1,onethree,,,,,,,,,,,,,,,,,,,,,,,,,,,,,,,,,,,,,,,,,,,,,,,,,,,,,,,,,,,,,,,,,,,,,,,,,,,,,,,,,,,,,,,,,,,,,,,,,,,,,,,,,,,,,,,,,,,,,,,,,,,,,,,,,,,,,,,,,
,,5e923d7e4be006078940e252,2024-02-19_02h12.15.592,kallum_motion_pilot,2023.2.2,Win32,142.8571429,5e923d7e4be006078940e252,65d2b6c8f2eece985d8e374c,65d2b8bc4ce0964f7ee6f6d5,0.0277,0.0277,1,74,236,19,1,twofour,,,,,,,,,,,,,,,,,,,,,,,,,,,,,,,,,,,,,,,,,,,,,,,,,,,,,,,,,,,,,,,,,,,,,,,,,,,,,,,,,,,,,,,,,,,,,,,,,,,,,,,,,,,,,,,,,,,,,,,,,,,,,,,,,,,,,,,,,
,,5e923d7e4be006078940e252,2024-02-19_02h12.15.592,kallum_motion_pilot,2023.2.2,Win32,142.8571429,5e923d7e4be006078940e252,65d2b6c8f2eece985d8e374c,65d2b8bc4ce0964f7ee6f6d5,0.0278,0.0279,1,75,237,6,1,fourtwo,,,,,,,,,,,,,,,,,,,,,,,,,,,,,,,,,,,,,,,,,,,,,,,,,,,,,,,,,,,,,,,,,,,,,,,,,,,,,,,,,,,,,,,,,,,,,,,,,,,,,,,,,,,,,,,,,,,,,,,,,,,,,,,,,,,,,,,,,
,,5e923d7e4be006078940e252,2024-02-19_02h12.15.592,kallum_motion_pilot,2023.2.2,Win32,142.8571429,5e923d7e4be006078940e252,65d2b6c8f2eece985d8e374c,65d2b8bc4ce0964f7ee6f6d5,0.0279,0.0279,1,76,238,142,1,eightsix,,,,,,,,,,,,,,,,,,,,,,,,,,,,,,,,,,,,,,,,,,,,,,,,,,,,,,,,,,,,,,,,,,,,,,,,,,,,,,,,,,,,,,,,,,,,,,,,,,,,,,,,,,,,,,,,,,,,,,,,,,,,,,,,,,,,,,,,,
,,5e923d7e4be006078940e252,2024-02-19_02h12.15.592,kallum_motion_pilot,2023.2.2,Win32,142.8571429,5e923d7e4be006078940e252,65d2b6c8f2eece985d8e374c,65d2b8bc4ce0964f7ee6f6d5,0.028,0.028,1,77,239,125,1,seveneight,,,,,,,,,,,,,,,,,,,,,,,,,,,,,,,,,,,,,,,,,,,,,,,,,,,,,,,,,,,,,,,,,,,,,,,,,,,,,,,,,,,,,,,,,,,,,,,,,,,,,,,,,,,,,,,,,,,,,,,,,,,,,,,,,,,,,,,,,
,,5e923d7e4be006078940e252,2024-02-19_02h12.15.592,kallum_motion_pilot,2023.2.2,Win32,142.8571429,5e923d7e4be006078940e252,65d2b6c8f2eece985d8e374c,65d2b8bc4ce0964f7ee6f6d5,0.0281,0.0281,1,78,240,119,1,eightseven,,,,,,,,,,,,,,,,,,,,,,,,,,,,,,,,,,,,,,,,,,,,,,,,,,,,,,,,,,,,,,,,,,,,,,,,,,,,,,,,,,,,,,,,,,,,,,,,,,,,,,,,,,,,,,,,,,,,,,,,,,,,,,,,,,,,,,,,,
,,5e923d7e4be006078940e252,2024-02-19_02h12.15.592,kallum_motion_pilot,2023.2.2,Win32,142.8571429,5e923d7e4be006078940e252,65d2b6c8f2eece985d8e374c,65d2b8bc4ce0964f7ee6f6d5,0.0282,0.0282,1,79,241,66,1,twoone,,,,,,,,,,,,,,,,,,,,,,,,,,,,,,,,,,,,,,,,,,,,,,,,,,,,,,,,,,,,,,,,,,,,,,,,,,,,,,,,,,,,,,,,,,,,,,,,,,,,,,,,,,,,,,,,,,,,,,,,,,,,,,,,,,,,,,,,,
,,5e923d7e4be006078940e252,2024-02-19_02h12.15.592,kallum_motion_pilot,2023.2.2,Win32,142.8571429,5e923d7e4be006078940e252,65d2b6c8f2eece985d8e374c,65d2b8bc4ce0964f7ee6f6d5,0.0282,0.0283,1,80,242,106,1,sixfive,,,,,,,,,,,,,,,,,,,,,,,,,,,,,,,,,,,,,,,,,,,,,,,,,,,,,,,,,,,,,,,,,,,,,,,,,,,,,,,,,,,,,,,,,,,,,,,,,,,,,,,,,,,,,,,,,,,,,,,,,,,,,,,,,,,,,,,,,
,,5e923d7e4be006078940e252,2024-02-19_02h12.15.592,kallum_motion_pilot,2023.2.2,Win32,142.8571429,5e923d7e4be006078940e252,65d2b6c8f2eece985d8e374c,65d2b8bc4ce0964f7ee6f6d5,0.0283,0.0284,1,81,243,91,1,sixeight,,,,,,,,,,,,,,,,,,,,,,,,,,,,,,,,,,,,,,,,,,,,,,,,,,,,,,,,,,,,,,,,,,,,,,,,,,,,,,,,,,,,,,,,,,,,,,,,,,,,,,,,,,,,,,,,,,,,,,,,,,,,,,,,,,,,,,,,,
,,5e923d7e4be006078940e252,2024-02-19_02h12.15.592,kallum_motion_pilot,2023.2.2,Win32,142.8571429,5e923d7e4be006078940e252,65d2b6c8f2eece985d8e374c,65d2b8bc4ce0964f7ee6f6d5,0.0284,0.0285,1,82,244,121,1,fiveseven,,,,,,,,,,,,,,,,,,,,,,,,,,,,,,,,,,,,,,,,,,,,,,,,,,,,,,,,,,,,,,,,,,,,,,,,,,,,,,,,,,,,,,,,,,,,,,,,,,,,,,,,,,,,,,,,,,,,,,,,,,,,,,,,,,,,,,,,,
,,5e923d7e4be006078940e252,2024-02-19_02h12.15.592,kallum_motion_pilot,2023.2.2,Win32,142.8571429,5e923d7e4be006078940e252,65d2b6c8f2eece985d8e374c,65d2b8bc4ce0964f7ee6f6d5,0.0285,0.0285,1,83,245,75,1,twofour,,,,,,,,,,,,,,,,,,,,,,,,,,,,,,,,,,,,,,,,,,,,,,,,,,,,,,,,,,,,,,,,,,,,,,,,,,,,,,,,,,,,,,,,,,,,,,,,,,,,,,,,,,,,,,,,,,,,,,,,,,,,,,,,,,,,,,,,,
,,5e923d7e4be006078940e252,2024-02-19_02h12.15.592,kallum_motion_pilot,2023.2.2,Win32,142.8571429,5e923d7e4be006078940e252,65d2b6c8f2eece985d8e374c,65d2b8bc4ce0964f7ee6f6d5,0.0285,0.0286,1,84,246,116,1,sevenfive,,,,,,,,,,,,,,,,,,,,,,,,,,,,,,,,,,,,,,,,,,,,,,,,,,,,,,,,,,,,,,,,,,,,,,,,,,,,,,,,,,,,,,,,,,,,,,,,,,,,,,,,,,,,,,,,,,,,,,,,,,,,,,,,,,,,,,,,,
,,5e923d7e4be006078940e252,2024-02-19_02h12.15.592,kallum_motion_pilot,2023.2.2,Win32,142.8571429,5e923d7e4be006078940e252,65d2b6c8f2eece985d8e374c,65d2b8bc4ce0964f7ee6f6d5,0.0287,0.0287,1,85,247,30,1,fourtwo,,,,,,,,,,,,,,,,,,,,,,,,,,,,,,,,,,,,,,,,,,,,,,,,,,,,,,,,,,,,,,,,,,,,,,,,,,,,,,,,,,,,,,,,,,,,,,,,,,,,,,,,,,,,,,,,,,,,,,,,,,,,,,,,,,,,,,,,,
,,5e923d7e4be006078940e252,2024-02-19_02h12.15.592,kallum_motion_pilot,2023.2.2,Win32,142.8571429,5e923d7e4be006078940e252,65d2b6c8f2eece985d8e374c,65d2b8bc4ce0964f7ee6f6d5,0.0288,0.0288,1,86,248,156,1,sevenfive,,,,,,,,,,,,,,,,,,,,,,,,,,,,,,,,,,,,,,,,,,,,,,,,,,,,,,,,,,,,,,,,,,,,,,,,,,,,,,,,,,,,,,,,,,,,,,,,,,,,,,,,,,,,,,,,,,,,,,,,,,,,,,,,,,,,,,,,,
,,5e923d7e4be006078940e252,2024-02-19_02h12.15.592,kallum_motion_pilot,2023.2.2,Win32,142.8571429,5e923d7e4be006078940e252,65d2b6c8f2eece985d8e374c,65d2b8bc4ce0964f7ee6f6d5,0.0289,0.0289,1,87,249,60,1,threeone,,,,,,,,,,,,,,,,,,,,,,,,,,,,,,,,,,,,,,,,,,,,,,,,,,,,,,,,,,,,,,,,,,,,,,,,,,,,,,,,,,,,,,,,,,,,,,,,,,,,,,,,,,,,,,,,,,,,,,,,,,,,,,,,,,,,,,,,,
,,5e923d7e4be006078940e252,2024-02-19_02h12.15.592,kallum_motion_pilot,2023.2.2,Win32,142.8571429,5e923d7e4be006078940e252,65d2b6c8f2eece985d8e374c,65d2b8bc4ce0964f7ee6f6d5,0.0289,0.029,1,88,250,132,1,sevenfive,,,,,,,,,,,,,,,,,,,,,,,,,,,,,,,,,,,,,,,,,,,,,,,,,,,,,,,,,,,,,,,,,,,,,,,,,,,,,,,,,,,,,,,,,,,,,,,,,,,,,,,,,,,,,,,,,,,,,,,,,,,,,,,,,,,,,,,,,
,,5e923d7e4be006078940e252,2024-02-19_02h12.15.592,kallum_motion_pilot,2023.2.2,Win32,142.8571429,5e923d7e4be006078940e252,65d2b6c8f2eece985d8e374c,65d2b8bc4ce0964f7ee6f6d5,0.029,0.029,1,89,251,126,1,eightsix,,,,,,,,,,,,,,,,,,,,,,,,,,,,,,,,,,,,,,,,,,,,,,,,,,,,,,,,,,,,,,,,,,,,,,,,,,,,,,,,,,,,,,,,,,,,,,,,,,,,,,,,,,,,,,,,,,,,,,,,,,,,,,,,,,,,,,,,,
,,5e923d7e4be006078940e252,2024-02-19_02h12.15.592,kallum_motion_pilot,2023.2.2,Win32,142.8571429,5e923d7e4be006078940e252,65d2b6c8f2eece985d8e374c,65d2b8bc4ce0964f7ee6f6d5,0.0291,0.0291,1,90,252,111,1,eightseven,,,,,,,,,,,,,,,,,,,,,,,,,,,,,,,,,,,,,,,,,,,,,,,,,,,,,,,,,,,,,,,,,,,,,,,,,,,,,,,,,,,,,,,,,,,,,,,,,,,,,,,,,,,,,,,,,,,,,,,,,,,,,,,,,,,,,,,,,
,,5e923d7e4be006078940e252,2024-02-19_02h12.15.592,kallum_motion_pilot,2023.2.2,Win32,142.8571429,5e923d7e4be006078940e252,65d2b6c8f2eece985d8e374c,65d2b8bc4ce0964f7ee6f6d5,0.0291,0.0292,1,91,253,153,1,fiveseven,,,,,,,,,,,,,,,,,,,,,,,,,,,,,,,,,,,,,,,,,,,,,,,,,,,,,,,,,,,,,,,,,,,,,,,,,,,,,,,,,,,,,,,,,,,,,,,,,,,,,,,,,,,,,,,,,,,,,,,,,,,,,,,,,,,,,,,,,
,,5e923d7e4be006078940e252,2024-02-19_02h12.15.592,kallum_motion_pilot,2023.2.2,Win32,142.8571429,5e923d7e4be006078940e252,65d2b6c8f2eece985d8e374c,65d2b8bc4ce0964f7ee6f6d5,0.0292,0.0293,1,92,254,150,1,eightsix,,,,,,,,,,,,,,,,,,,,,,,,,,,,,,,,,,,,,,,,,,,,,,,,,,,,,,,,,,,,,,,,,,,,,,,,,,,,,,,,,,,,,,,,,,,,,,,,,,,,,,,,,,,,,,,,,,,,,,,,,,,,,,,,,,,,,,,,,
,,5e923d7e4be006078940e252,2024-02-19_02h12.15.592,kallum_motion_pilot,2023.2.2,Win32,142.8571429,5e923d7e4be006078940e252,65d2b6c8f2eece985d8e374c,65d2b8bc4ce0964f7ee6f6d5,0.0293,0.0293,1,93,255,63,1,fourthree,,,,,,,,,,,,,,,,,,,,,,,,,,,,,,,,,,,,,,,,,,,,,,,,,,,,,,,,,,,,,,,,,,,,,,,,,,,,,,,,,,,,,,,,,,,,,,,,,,,,,,,,,,,,,,,,,,,,,,,,,,,,,,,,,,,,,,,,,
,,5e923d7e4be006078940e252,2024-02-19_02h12.15.592,kallum_motion_pilot,2023.2.2,Win32,142.8571429,5e923d7e4be006078940e252,65d2b6c8f2eece985d8e374c,65d2b8bc4ce0964f7ee6f6d5,0.0294,0.0295,1,94,256,3,1,twofour,,,,,,,,,,,,,,,,,,,,,,,,,,,,,,,,,,,,,,,,,,,,,,,,,,,,,,,,,,,,,,,,,,,,,,,,,,,,,,,,,,,,,,,,,,,,,,,,,,,,,,,,,,,,,,,,,,,,,,,,,,,,,,,,,,,,,,,,,
,,5e923d7e4be006078940e252,2024-02-19_02h12.15.592,kallum_motion_pilot,2023.2.2,Win32,142.8571429,5e923d7e4be006078940e252,65d2b6c8f2eece985d8e374c,65d2b8bc4ce0964f7ee6f6d5,0.0295,0.0295,1,95,257,51,1,twofour,,,,,,,,,,,,,,,,,,,,,,,,,,,,,,,,,,,,,,,,,,,,,,,,,,,,,,,,,,,,,,,,,,,,,,,,,,,,,,,,,,,,,,,,,,,,,,,,,,,,,,,,,,,,,,,,,,,,,,,,,,,,,,,,,,,,,,,,,
,,5e923d7e4be006078940e252,2024-02-19_02h12.15.592,kallum_motion_pilot,2023.2.2,Win32,142.8571429,5e923d7e4be006078940e252,65d2b6c8f2eece985d8e374c,65d2b8bc4ce0964f7ee6f6d5,0.0295,0.0296,1,96,258,144,1,fivesix,,,,,,,,,,,,,,,,,,,,,,,,,,,,,,,,,,,,,,,,,,,,,,,,,,,,,,,,,,,,,,,,,,,,,,,,,,,,,,,,,,,,,,,,,,,,,,,,,,,,,,,,,,,,,,,,,,,,,,,,,,,,,,,,,,,,,,,,,
,,5e923d7e4be006078940e252,2024-02-19_02h12.15.592,kallum_motion_pilot,2023.2.2,Win32,142.8571429,5e923d7e4be006078940e252,65d2b6c8f2eece985d8e374c,65d2b8bc4ce0964f7ee6f6d5,0.0296,0.0297,1,97,259,43,1,twofour,,,,,,,,,,,,,,,,,,,,,,,,,,,,,,,,,,,,,,,,,,,,,,,,,,,,,,,,,,,,,,,,,,,,,,,,,,,,,,,,,,,,,,,,,,,,,,,,,,,,,,,,,,,,,,,,,,,,,,,,,,,,,,,,,,,,,,,,,
,,5e923d7e4be006078940e252,2024-02-19_02h12.15.592,kallum_motion_pilot,2023.2.2,Win32,142.8571429,5e923d7e4be006078940e252,65d2b6c8f2eece985d8e374c,65d2b8bc4ce0964f7ee6f6d5,0.0298,0.0298,1,98,260,21,1,threefour,,,,,,,,,,,,,,,,,,,,,,,,,,,,,,,,,,,,,,,,,,,,,,,,,,,,,,,,,,,,,,,,,,,,,,,,,,,,,,,,,,,,,,,,,,,,,,,,,,,,,,,,,,,,,,,,,,,,,,,,,,,,,,,,,,,,,,,,,
,,5e923d7e4be006078940e252,2024-02-19_02h12.15.592,kallum_motion_pilot,2023.2.2,Win32,142.8571429,5e923d7e4be006078940e252,65d2b6c8f2eece985d8e374c,65d2b8bc4ce0964f7ee6f6d5,0.0298,0.0298,1,99,261,4,1,threeone,,,,,,,,,,,,,,,,,,,,,,,,,,,,,,,,,,,,,,,,,,,,,,,,,,,,,,,,,,,,,,,,,,,,,,,,,,,,,,,,,,,,,,,,,,,,,,,,,,,,,,,,,,,,,,,,,,,,,,,,,,,,,,,,,,,,,,,,,
,,5e923d7e4be006078940e252,2024-02-19_02h12.15.592,kallum_motion_pilot,2023.2.2,Win32,142.8571429,5e923d7e4be006078940e252,65d2b6c8f2eece985d8e374c,65d2b8bc4ce0964f7ee6f6d5,0.0299,0.0299,1,100,262,87,1,eightseven,,,,,,,,,,,,,,,,,,,,,,,,,,,,,,,,,,,,,,,,,,,,,,,,,,,,,,,,,,,,,,,,,,,,,,,,,,,,,,,,,,,,,,,,,,,,,,,,,,,,,,,,,,,,,,,,,,,,,,,,,,,,,,,,,,,,,,,,,
,,5e923d7e4be006078940e252,2024-02-19_02h12.15.592,kallum_motion_pilot,2023.2.2,Win32,142.8571429,5e923d7e4be006078940e252,65d2b6c8f2eece985d8e374c,65d2b8bc4ce0964f7ee6f6d5,0.0299,0.03,1,101,263,118,1,eightsix,,,,,,,,,,,,,,,,,,,,,,,,,,,,,,,,,,,,,,,,,,,,,,,,,,,,,,,,,,,,,,,,,,,,,,,,,,,,,,,,,,,,,,,,,,,,,,,,,,,,,,,,,,,,,,,,,,,,,,,,,,,,,,,,,,,,,,,,,
,,5e923d7e4be006078940e252,2024-02-19_02h12.15.592,kallum_motion_pilot,2023.2.2,Win32,142.8571429,5e923d7e4be006078940e252,65d2b6c8f2eece985d8e374c,65d2b8bc4ce0964f7ee6f6d5,0.03,0.0301,1,102,264,49,1,onethree,,,,,,,,,,,,,,,,,,,,,,,,,,,,,,,,,,,,,,,,,,,,,,,,,,,,,,,,,,,,,,,,,,,,,,,,,,,,,,,,,,,,,,,,,,,,,,,,,,,,,,,,,,,,,,,,,,,,,,,,,,,,,,,,,,,,,,,,,
,,5e923d7e4be006078940e252,2024-02-19_02h12.15.592,kallum_motion_pilot,2023.2.2,Win32,142.8571429,5e923d7e4be006078940e252,65d2b6c8f2eece985d8e374c,65d2b8bc4ce0964f7ee6f6d5,0.0301,0.0302,1,103,265,99,1,sixeight,,,,,,,,,,,,,,,,,,,,,,,,,,,,,,,,,,,,,,,,,,,,,,,,,,,,,,,,,,,,,,,,,,,,,,,,,,,,,,,,,,,,,,,,,,,,,,,,,,,,,,,,,,,,,,,,,,,,,,,,,,,,,,,,,,,,,,,,,
,,5e923d7e4be006078940e252,2024-02-19_02h12.15.592,kallum_motion_pilot,2023.2.2,Win32,142.8571429,5e923d7e4be006078940e252,65d2b6c8f2eece985d8e374c,65d2b8bc4ce0964f7ee6f6d5,0.0302,0.0303,1,104,266,148,1,sevenfive,,,,,,,,,,,,,,,,,,,,,,,,,,,,,,,,,,,,,,,,,,,,,,,,,,,,,,,,,,,,,,,,,,,,,,,,,,,,,,,,,,,,,,,,,,,,,,,,,,,,,,,,,,,,,,,,,,,,,,,,,,,,,,,,,,,,,,,,,
,,5e923d7e4be006078940e252,2024-02-19_02h12.15.592,kallum_motion_pilot,2023.2.2,Win32,142.8571429,5e923d7e4be006078940e252,65d2b6c8f2eece985d8e374c,65d2b8bc4ce0964f7ee6f6d5,0.0303,0.0303,1,105,267,67,1,twofour,,,,,,,,,,,,,,,,,,,,,,,,,,,,,,,,,,,,,,,,,,,,,,,,,,,,,,,,,,,,,,,,,,,,,,,,,,,,,,,,,,,,,,,,,,,,,,,,,,,,,,,,,,,,,,,,,,,,,,,,,,,,,,,,,,,,,,,,,
,,5e923d7e4be006078940e252,2024-02-19_02h12.15.592,kallum_motion_pilot,2023.2.2,Win32,142.8571429,5e923d7e4be006078940e252,65d2b6c8f2eece985d8e374c,65d2b8bc4ce0964f7ee6f6d5,0.0303,0.0303,1,106,268,88,1,fivesix,,,,,,,,,,,,,,,,,,,,,,,,,,,,,,,,,,,,,,,,,,,,,,,,,,,,,,,,,,,,,,,,,,,,,,,,,,,,,,,,,,,,,,,,,,,,,,,,,,,,,,,,,,,,,,,,,,,,,,,,,,,,,,,,,,,,,,,,,
,,5e923d7e4be006078940e252,2024-02-19_02h12.15.592,kallum_motion_pilot,2023.2.2,Win32,142.8571429,5e923d7e4be006078940e252,65d2b6c8f2eece985d8e374c,65d2b8bc4ce0964f7ee6f6d5,0.0304,0.0305,1,107,269,131,1,sixeight,,,,,,,,,,,,,,,,,,,,,,,,,,,,,,,,,,,,,,,,,,,,,,,,,,,,,,,,,,,,,,,,,,,,,,,,,,,,,,,,,,,,,,,,,,,,,,,,,,,,,,,,,,,,,,,,,,,,,,,,,,,,,,,,,,,,,,,,,
,,5e923d7e4be006078940e252,2024-02-19_02h12.15.592,kallum_motion_pilot,2023.2.2,Win32,142.8571429,5e923d7e4be006078940e252,65d2b6c8f2eece985d8e374c,65d2b8bc4ce0964f7ee6f6d5,0.0305,0.0305,1,108,270,56,1,onetwo,,,,,,,,,,,,,,,,,,,,,,,,,,,,,,,,,,,,,,,,,,,,,,,,,,,,,,,,,,,,,,,,,,,,,,,,,,,,,,,,,,,,,,,,,,,,,,,,,,,,,,,,,,,,,,,,,,,,,,,,,,,,,,,,,,,,,,,,,
,,5e923d7e4be006078940e252,2024-02-19_02h12.15.592,kallum_motion_pilot,2023.2.2,Win32,142.8571429,5e923d7e4be006078940e252,65d2b6c8f2eece985d8e374c,65d2b8bc4ce0964f7ee6f6d5,0.0305,0.0305,1,109,271,104,1,fivesix,,,,,,,,,,,,,,,,,,,,,,,,,,,,,,,,,,,,,,,,,,,,,,,,,,,,,,,,,,,,,,,,,,,,,,,,,,,,,,,,,,,,,,,,,,,,,,,,,,,,,,,,,,,,,,,,,,,,,,,,,,,,,,,,,,,,,,,,,
,,5e923d7e4be006078940e252,2024-02-19_02h12.15.592,kallum_motion_pilot,2023.2.2,Win32,142.8571429,5e923d7e4be006078940e252,65d2b6c8f2eece985d8e374c,65d2b8bc4ce0964f7ee6f6d5,0.0306,0.0307,1,110,272,1,1,onethree,,,,,,,,,,,,,,,,,,,,,,,,,,,,,,,,,,,,,,,,,,,,,,,,,,,,,,,,,,,,,,,,,,,,,,,,,,,,,,,,,,,,,,,,,,,,,,,,,,,,,,,,,,,,,,,,,,,,,,,,,,,,,,,,,,,,,,,,,
,,5e923d7e4be006078940e252,2024-02-19_02h12.15.592,kallum_motion_pilot,2023.2.2,Win32,142.8571429,5e923d7e4be006078940e252,65d2b6c8f2eece985d8e374c,65d2b8bc4ce0964f7ee6f6d5,0.0307,0.0308,1,111,273,92,1,sevenfive,,,,,,,,,,,,,,,,,,,,,,,,,,,,,,,,,,,,,,,,,,,,,,,,,,,,,,,,,,,,,,,,,,,,,,,,,,,,,,,,,,,,,,,,,,,,,,,,,,,,,,,,,,,,,,,,,,,,,,,,,,,,,,,,,,,,,,,,,
,,5e923d7e4be006078940e252,2024-02-19_02h12.15.592,kallum_motion_pilot,2023.2.2,Win32,142.8571429,5e923d7e4be006078940e252,65d2b6c8f2eece985d8e374c,65d2b8bc4ce0964f7ee6f6d5,0.0308,0.0309,1,112,274,123,1,sixeight,,,,,,,,,,,,,,,,,,,,,,,,,,,,,,,,,,,,,,,,,,,,,,,,,,,,,,,,,,,,,,,,,,,,,,,,,,,,,,,,,,,,,,,,,,,,,,,,,,,,,,,,,,,,,,,,,,,,,,,,,,,,,,,,,,,,,,,,,
,,5e923d7e4be006078940e252,2024-02-19_02h12.15.592,kallum_motion_pilot,2023.2.2,Win32,142.8571429,5e923d7e4be006078940e252,65d2b6c8f2eece985d8e374c,65d2b8bc4ce0964f7ee6f6d5,0.0309,0.0309,1,113,275,94,1,eightsix,,,,,,,,,,,,,,,,,,,,,,,,,,,,,,,,,,,,,,,,,,,,,,,,,,,,,,,,,,,,,,,,,,,,,,,,,,,,,,,,,,,,,,,,,,,,,,,,,,,,,,,,,,,,,,,,,,,,,,,,,,,,,,,,,,,,,,,,,
,,5e923d7e4be006078940e252,2024-02-19_02h12.15.592,kallum_motion_pilot,2023.2.2,Win32,142.8571429,5e923d7e4be006078940e252,65d2b6c8f2eece985d8e374c,65d2b8bc4ce0964f7ee6f6d5,0.0309,0.0309,1,114,276,161,1,fiveseven,,,,,,,,,,,,,,,,,,,,,,,,,,,,,,,,,,,,,,,,,,,,,,,,,,,,,,,,,,,,,,,,,,,,,,,,,,,,,,,,,,,,,,,,,,,,,,,,,,,,,,,,,,,,,,,,,,,,,,,,,,,,,,,,,,,,,,,,,
,,5e923d7e4be006078940e252,2024-02-19_02h12.15.592,kallum_motion_pilot,2023.2.2,Win32,142.8571429,5e923d7e4be006078940e252,65d2b6c8f2eece985d8e374c,65d2b8bc4ce0964f7ee6f6d5,0.031,0.0311,1,115,277,159,1,eightseven,,,,,,,,,,,,,,,,,,,,,,,,,,,,,,,,,,,,,,,,,,,,,,,,,,,,,,,,,,,,,,,,,,,,,,,,,,,,,,,,,,,,,,,,,,,,,,,,,,,,,,,,,,,,,,,,,,,,,,,,,,,,,,,,,,,,,,,,,
