startup.started,startup.stopped,Prolific ID*,date,expName,psychopyVersion,OS,frameRate,participant,study_id,session,stimpositions.started,stimpositions.stopped,hardcoded_stimulus_positions.thisRepN,hardcoded_stimulus_positions.thisTrialN,hardcoded_stimulus_positions.thisN,hardcoded_stimulus_positions.thisIndex,hardcoded_stimulus_positions.ran,StimulusPos,stimorientation.started,stimorientation.stopped,prac_stimorientation_import_loop.thisRepN,prac_stimorientation_import_loop.thisTrialN,prac_stimorientation_import_loop.thisN,prac_stimorientation_import_loop.thisIndex,prac_stimorientation_import_loop.ran,Stimorientation,welcome_instr.started,welcome_instr.stopped,key_resp.keys,key_resp.rt,key_resp.duration,response_steppedout_1.started,response_steppedout_1.stopped,key_resp_20.keys,key_resp_20.rt,key_resp_20.duration,response_steppedout_2.started,response_steppedout_2.stopped,key_resp_19.keys,key_resp_19.rt,key_resp_19.duration,stim_response_instr.started,stim_response_instr.stopped,key_resp_15.keys,key_resp_15.rt,key_resp_15.duration,direction_instr_2.started,direction_instr_2.stopped,key_resp_9.keys,key_resp_9.rt,key_resp_9.duration,instr_prac.started,instr_prac.stopped,key_resp_10.keys,key_resp_10.rt,key_resp_10.duration,Stim1_display_prac.started,Stim1_display_prac.stopped,Ecc,Circle1_ori,Circle2_ori,response_prac.started,similarity,response_time,response_prac.stopped,mouse_5.x,mouse_5.y,mouse_5.leftButton,mouse_5.midButton,mouse_5.rightButton,mouse_5.clicked_name,responseprac_feedback.started,responseprac_feedback.stopped,summary2_prac.started,summary2_prac.stopped,mouse_6.x,mouse_6.y,mouse_6.leftButton,mouse_6.midButton,mouse_6.rightButton,mouse_6.clicked_name,duringprac.thisRepN,duringprac.thisTrialN,duringprac.thisN,duringprac.thisIndex,duringprac.ran,begin.started,begin.stopped,key_resp_22.keys,key_resp_22.rt,key_resp_22.duration,Stim1_display.started,Stim1_display.stopped,circle1_ori,circle2_ori,circle1_SF,circle2_SF,response.started,response.stopped,mouse.x,mouse.y,mouse.leftButton,mouse.midButton,mouse.rightButton,mouse.clicked_name,trialnumber,double_pass.thisRepN,double_pass.thisTrialN,double_pass.thisN,double_pass.thisIndex,double_pass.ran,double_pass.order,main_trial.thisRepN,main_trial.thisTrialN,main_trial.thisN,main_trial.thisIndex,main_trial.ran,main_trial.order,Trial_Counter,Catch,Frequencies,response_2.started,response_2.stopped,mouse_2.x,mouse_2.y,mouse_2.leftButton,mouse_2.midButton,mouse_2.rightButton,mouse_2.clicked_name,special_trial.started,special_trial.stopped,catch_1.started,catch_1.stopped,mouse_3.x,mouse_3.y,mouse_3.leftButton,mouse_3.midButton,mouse_3.rightButton,catchresponse,catchnumber,response_time_catch,response_sum.started,response_sum.stopped,mouse_11.x,mouse_11.y,mouse_11.leftButton,mouse_11.midButton,mouse_11.rightButton,flip_presentation_sequence_for_double_pass.started,flip_presentation_sequence_for_double_pass.stopped,goodbye.started,goodbye.stopped,key_resp_3.keys,key_resp_3.rt,key_resp_3.duration
0.0004,0.0005,5e938e072a4ce9077f8157b9,2024-02-21_21h20.49.995,kallum_motion_pilot,2023.2.2,Win32,59.17159763,5e938e072a4ce9077f8157b9,65d6bb0e977760de756971f7,65d6bd46994906782921cd9b,,,,,,,,,,,,,,,,,,,,,,,,,,,,,,,,,,,,,,,,,,,,,,,,,,,,,,,,,,,,,,,,,,,,,,,,,,,,,,,,,,,,,,,,,,,,,,,,,,,,,,,,,,,,,,,,,,,,,,,,,,,,,,,,,,,,,,,,,,,,,,,,,
,,5e938e072a4ce9077f8157b9,2024-02-21_21h20.49.995,kallum_motion_pilot,2023.2.2,Win32,59.17159763,5e938e072a4ce9077f8157b9,65d6bb0e977760de756971f7,65d6bd46994906782921cd9b,0.0422,0.0432,0,0,0,159,1,eightseven,,,,,,,,,,,,,,,,,,,,,,,,,,,,,,,,,,,,,,,,,,,,,,,,,,,,,,,,,,,,,,,,,,,,,,,,,,,,,,,,,,,,,,,,,,,,,,,,,,,,,,,,,,,,,,,,,,,,,,,,,,,,,,,,,,,,,,,,,
,,5e938e072a4ce9077f8157b9,2024-02-21_21h20.49.995,kallum_motion_pilot,2023.2.2,Win32,59.17159763,5e938e072a4ce9077f8157b9,65d6bb0e977760de756971f7,65d6bd46994906782921cd9b,0.0438,0.0438,0,1,1,54,1,fourtwo,,,,,,,,,,,,,,,,,,,,,,,,,,,,,,,,,,,,,,,,,,,,,,,,,,,,,,,,,,,,,,,,,,,,,,,,,,,,,,,,,,,,,,,,,,,,,,,,,,,,,,,,,,,,,,,,,,,,,,,,,,,,,,,,,,,,,,,,,
,,5e938e072a4ce9077f8157b9,2024-02-21_21h20.49.995,kallum_motion_pilot,2023.2.2,Win32,59.17159763,5e938e072a4ce9077f8157b9,65d6bb0e977760de756971f7,65d6bd46994906782921cd9b,0.0441,0.0441,0,2,2,9,1,onethree,,,,,,,,,,,,,,,,,,,,,,,,,,,,,,,,,,,,,,,,,,,,,,,,,,,,,,,,,,,,,,,,,,,,,,,,,,,,,,,,,,,,,,,,,,,,,,,,,,,,,,,,,,,,,,,,,,,,,,,,,,,,,,,,,,,,,,,,,
,,5e938e072a4ce9077f8157b9,2024-02-21_21h20.49.995,kallum_motion_pilot,2023.2.2,Win32,59.17159763,5e938e072a4ce9077f8157b9,65d6bb0e977760de756971f7,65d6bd46994906782921cd9b,0.0444,0.0444,0,3,3,32,1,onetwo,,,,,,,,,,,,,,,,,,,,,,,,,,,,,,,,,,,,,,,,,,,,,,,,,,,,,,,,,,,,,,,,,,,,,,,,,,,,,,,,,,,,,,,,,,,,,,,,,,,,,,,,,,,,,,,,,,,,,,,,,,,,,,,,,,,,,,,,,
,,5e938e072a4ce9077f8157b9,2024-02-21_21h20.49.995,kallum_motion_pilot,2023.2.2,Win32,59.17159763,5e938e072a4ce9077f8157b9,65d6bb0e977760de756971f7,65d6bd46994906782921cd9b,0.0447,0.0447,0,4,4,59,1,twofour,,,,,,,,,,,,,,,,,,,,,,,,,,,,,,,,,,,,,,,,,,,,,,,,,,,,,,,,,,,,,,,,,,,,,,,,,,,,,,,,,,,,,,,,,,,,,,,,,,,,,,,,,,,,,,,,,,,,,,,,,,,,,,,,,,,,,,,,,
,,5e938e072a4ce9077f8157b9,2024-02-21_21h20.49.995,kallum_motion_pilot,2023.2.2,Win32,59.17159763,5e938e072a4ce9077f8157b9,65d6bb0e977760de756971f7,65d6bd46994906782921cd9b,0.045,0.045,0,5,5,141,1,seveneight,,,,,,,,,,,,,,,,,,,,,,,,,,,,,,,,,,,,,,,,,,,,,,,,,,,,,,,,,,,,,,,,,,,,,,,,,,,,,,,,,,,,,,,,,,,,,,,,,,,,,,,,,,,,,,,,,,,,,,,,,,,,,,,,,,,,,,,,,
,,5e938e072a4ce9077f8157b9,2024-02-21_21h20.49.995,kallum_motion_pilot,2023.2.2,Win32,59.17159763,5e938e072a4ce9077f8157b9,65d6bb0e977760de756971f7,65d6bd46994906782921cd9b,0.0452,0.0453,0,6,6,117,1,seveneight,,,,,,,,,,,,,,,,,,,,,,,,,,,,,,,,,,,,,,,,,,,,,,,,,,,,,,,,,,,,,,,,,,,,,,,,,,,,,,,,,,,,,,,,,,,,,,,,,,,,,,,,,,,,,,,,,,,,,,,,,,,,,,,,,,,,,,,,,
,,5e938e072a4ce9077f8157b9,2024-02-21_21h20.49.995,kallum_motion_pilot,2023.2.2,Win32,59.17159763,5e938e072a4ce9077f8157b9,65d6bb0e977760de756971f7,65d6bd46994906782921cd9b,0.0455,0.0455,0,7,7,24,1,onetwo,,,,,,,,,,,,,,,,,,,,,,,,,,,,,,,,,,,,,,,,,,,,,,,,,,,,,,,,,,,,,,,,,,,,,,,,,,,,,,,,,,,,,,,,,,,,,,,,,,,,,,,,,,,,,,,,,,,,,,,,,,,,,,,,,,,,,,,,,
,,5e938e072a4ce9077f8157b9,2024-02-21_21h20.49.995,kallum_motion_pilot,2023.2.2,Win32,59.17159763,5e938e072a4ce9077f8157b9,65d6bb0e977760de756971f7,65d6bd46994906782921cd9b,0.0459,0.0459,0,8,8,138,1,sixfive,,,,,,,,,,,,,,,,,,,,,,,,,,,,,,,,,,,,,,,,,,,,,,,,,,,,,,,,,,,,,,,,,,,,,,,,,,,,,,,,,,,,,,,,,,,,,,,,,,,,,,,,,,,,,,,,,,,,,,,,,,,,,,,,,,,,,,,,,
,,5e938e072a4ce9077f8157b9,2024-02-21_21h20.49.995,kallum_motion_pilot,2023.2.2,Win32,59.17159763,5e938e072a4ce9077f8157b9,65d6bb0e977760de756971f7,65d6bd46994906782921cd9b,0.0462,0.0463,0,9,9,1,1,onethree,,,,,,,,,,,,,,,,,,,,,,,,,,,,,,,,,,,,,,,,,,,,,,,,,,,,,,,,,,,,,,,,,,,,,,,,,,,,,,,,,,,,,,,,,,,,,,,,,,,,,,,,,,,,,,,,,,,,,,,,,,,,,,,,,,,,,,,,,
,,5e938e072a4ce9077f8157b9,2024-02-21_21h20.49.995,kallum_motion_pilot,2023.2.2,Win32,59.17159763,5e938e072a4ce9077f8157b9,65d6bb0e977760de756971f7,65d6bd46994906782921cd9b,0.0464,0.0466,0,10,10,107,1,sixeight,,,,,,,,,,,,,,,,,,,,,,,,,,,,,,,,,,,,,,,,,,,,,,,,,,,,,,,,,,,,,,,,,,,,,,,,,,,,,,,,,,,,,,,,,,,,,,,,,,,,,,,,,,,,,,,,,,,,,,,,,,,,,,,,,,,,,,,,,
,,5e938e072a4ce9077f8157b9,2024-02-21_21h20.49.995,kallum_motion_pilot,2023.2.2,Win32,59.17159763,5e938e072a4ce9077f8157b9,65d6bb0e977760de756971f7,65d6bd46994906782921cd9b,0.0468,0.0468,0,11,11,58,1,twoone,,,,,,,,,,,,,,,,,,,,,,,,,,,,,,,,,,,,,,,,,,,,,,,,,,,,,,,,,,,,,,,,,,,,,,,,,,,,,,,,,,,,,,,,,,,,,,,,,,,,,,,,,,,,,,,,,,,,,,,,,,,,,,,,,,,,,,,,,
,,5e938e072a4ce9077f8157b9,2024-02-21_21h20.49.995,kallum_motion_pilot,2023.2.2,Win32,59.17159763,5e938e072a4ce9077f8157b9,65d6bb0e977760de756971f7,65d6bd46994906782921cd9b,0.047,0.047,0,12,12,86,1,eightsix,,,,,,,,,,,,,,,,,,,,,,,,,,,,,,,,,,,,,,,,,,,,,,,,,,,,,,,,,,,,,,,,,,,,,,,,,,,,,,,,,,,,,,,,,,,,,,,,,,,,,,,,,,,,,,,,,,,,,,,,,,,,,,,,,,,,,,,,,
,,5e938e072a4ce9077f8157b9,2024-02-21_21h20.49.995,kallum_motion_pilot,2023.2.2,Win32,59.17159763,5e938e072a4ce9077f8157b9,65d6bb0e977760de756971f7,65d6bd46994906782921cd9b,0.0473,0.0473,0,13,13,130,1,sixfive,,,,,,,,,,,,,,,,,,,,,,,,,,,,,,,,,,,,,,,,,,,,,,,,,,,,,,,,,,,,,,,,,,,,,,,,,,,,,,,,,,,,,,,,,,,,,,,,,,,,,,,,,,,,,,,,,,,,,,,,,,,,,,,,,,,,,,,,,
,,5e938e072a4ce9077f8157b9,2024-02-21_21h20.49.995,kallum_motion_pilot,2023.2.2,Win32,59.17159763,5e938e072a4ce9077f8157b9,65d6bb0e977760de756971f7,65d6bd46994906782921cd9b,0.0476,0.0477,0,14,14,156,1,sevenfive,,,,,,,,,,,,,,,,,,,,,,,,,,,,,,,,,,,,,,,,,,,,,,,,,,,,,,,,,,,,,,,,,,,,,,,,,,,,,,,,,,,,,,,,,,,,,,,,,,,,,,,,,,,,,,,,,,,,,,,,,,,,,,,,,,,,,,,,,
,,5e938e072a4ce9077f8157b9,2024-02-21_21h20.49.995,kallum_motion_pilot,2023.2.2,Win32,59.17159763,5e938e072a4ce9077f8157b9,65d6bb0e977760de756971f7,65d6bd46994906782921cd9b,0.0479,0.048,0,15,15,126,1,eightsix,,,,,,,,,,,,,,,,,,,,,,,,,,,,,,,,,,,,,,,,,,,,,,,,,,,,,,,,,,,,,,,,,,,,,,,,,,,,,,,,,,,,,,,,,,,,,,,,,,,,,,,,,,,,,,,,,,,,,,,,,,,,,,,,,,,,,,,,,
,,5e938e072a4ce9077f8157b9,2024-02-21_21h20.49.995,kallum_motion_pilot,2023.2.2,Win32,59.17159763,5e938e072a4ce9077f8157b9,65d6bb0e977760de756971f7,65d6bd46994906782921cd9b,0.0483,0.0484,0,16,16,124,1,sevenfive,,,,,,,,,,,,,,,,,,,,,,,,,,,,,,,,,,,,,,,,,,,,,,,,,,,,,,,,,,,,,,,,,,,,,,,,,,,,,,,,,,,,,,,,,,,,,,,,,,,,,,,,,,,,,,,,,,,,,,,,,,,,,,,,,,,,,,,,,
,,5e938e072a4ce9077f8157b9,2024-02-21_21h20.49.995,kallum_motion_pilot,2023.2.2,Win32,59.17159763,5e938e072a4ce9077f8157b9,65d6bb0e977760de756971f7,65d6bd46994906782921cd9b,0.0486,0.0486,0,17,17,23,1,fourthree,,,,,,,,,,,,,,,,,,,,,,,,,,,,,,,,,,,,,,,,,,,,,,,,,,,,,,,,,,,,,,,,,,,,,,,,,,,,,,,,,,,,,,,,,,,,,,,,,,,,,,,,,,,,,,,,,,,,,,,,,,,,,,,,,,,,,,,,,
,,5e938e072a4ce9077f8157b9,2024-02-21_21h20.49.995,kallum_motion_pilot,2023.2.2,Win32,59.17159763,5e938e072a4ce9077f8157b9,65d6bb0e977760de756971f7,65d6bd46994906782921cd9b,0.0488,0.0489,0,18,18,2,1,twoone,,,,,,,,,,,,,,,,,,,,,,,,,,,,,,,,,,,,,,,,,,,,,,,,,,,,,,,,,,,,,,,,,,,,,,,,,,,,,,,,,,,,,,,,,,,,,,,,,,,,,,,,,,,,,,,,,,,,,,,,,,,,,,,,,,,,,,,,,
,,5e938e072a4ce9077f8157b9,2024-02-21_21h20.49.995,kallum_motion_pilot,2023.2.2,Win32,59.17159763,5e938e072a4ce9077f8157b9,65d6bb0e977760de756971f7,65d6bd46994906782921cd9b,0.049,0.0491,0,19,19,153,1,fiveseven,,,,,,,,,,,,,,,,,,,,,,,,,,,,,,,,,,,,,,,,,,,,,,,,,,,,,,,,,,,,,,,,,,,,,,,,,,,,,,,,,,,,,,,,,,,,,,,,,,,,,,,,,,,,,,,,,,,,,,,,,,,,,,,,,,,,,,,,,
,,5e938e072a4ce9077f8157b9,2024-02-21_21h20.49.995,kallum_motion_pilot,2023.2.2,Win32,59.17159763,5e938e072a4ce9077f8157b9,65d6bb0e977760de756971f7,65d6bd46994906782921cd9b,0.0493,0.0495,0,20,20,108,1,sevenfive,,,,,,,,,,,,,,,,,,,,,,,,,,,,,,,,,,,,,,,,,,,,,,,,,,,,,,,,,,,,,,,,,,,,,,,,,,,,,,,,,,,,,,,,,,,,,,,,,,,,,,,,,,,,,,,,,,,,,,,,,,,,,,,,,,,,,,,,,
,,5e938e072a4ce9077f8157b9,2024-02-21_21h20.49.995,kallum_motion_pilot,2023.2.2,Win32,59.17159763,5e938e072a4ce9077f8157b9,65d6bb0e977760de756971f7,65d6bd46994906782921cd9b,0.0497,0.0498,0,21,21,61,1,threefour,,,,,,,,,,,,,,,,,,,,,,,,,,,,,,,,,,,,,,,,,,,,,,,,,,,,,,,,,,,,,,,,,,,,,,,,,,,,,,,,,,,,,,,,,,,,,,,,,,,,,,,,,,,,,,,,,,,,,,,,,,,,,,,,,,,,,,,,,
,,5e938e072a4ce9077f8157b9,2024-02-21_21h20.49.995,kallum_motion_pilot,2023.2.2,Win32,59.17159763,5e938e072a4ce9077f8157b9,65d6bb0e977760de756971f7,65d6bd46994906782921cd9b,0.05,0.0501,0,22,22,8,1,onetwo,,,,,,,,,,,,,,,,,,,,,,,,,,,,,,,,,,,,,,,,,,,,,,,,,,,,,,,,,,,,,,,,,,,,,,,,,,,,,,,,,,,,,,,,,,,,,,,,,,,,,,,,,,,,,,,,,,,,,,,,,,,,,,,,,,,,,,,,,
,,5e938e072a4ce9077f8157b9,2024-02-21_21h20.49.995,kallum_motion_pilot,2023.2.2,Win32,59.17159763,5e938e072a4ce9077f8157b9,65d6bb0e977760de756971f7,65d6bd46994906782921cd9b,0.0502,0.0502,0,23,23,69,1,threefour,,,,,,,,,,,,,,,,,,,,,,,,,,,,,,,,,,,,,,,,,,,,,,,,,,,,,,,,,,,,,,,,,,,,,,,,,,,,,,,,,,,,,,,,,,,,,,,,,,,,,,,,,,,,,,,,,,,,,,,,,,,,,,,,,,,,,,,,,
,,5e938e072a4ce9077f8157b9,2024-02-21_21h20.49.995,kallum_motion_pilot,2023.2.2,Win32,59.17159763,5e938e072a4ce9077f8157b9,65d6bb0e977760de756971f7,65d6bd46994906782921cd9b,0.0504,0.0504,0,24,24,116,1,sevenfive,,,,,,,,,,,,,,,,,,,,,,,,,,,,,,,,,,,,,,,,,,,,,,,,,,,,,,,,,,,,,,,,,,,,,,,,,,,,,,,,,,,,,,,,,,,,,,,,,,,,,,,,,,,,,,,,,,,,,,,,,,,,,,,,,,,,,,,,,
,,5e938e072a4ce9077f8157b9,2024-02-21_21h20.49.995,kallum_motion_pilot,2023.2.2,Win32,59.17159763,5e938e072a4ce9077f8157b9,65d6bb0e977760de756971f7,65d6bd46994906782921cd9b,0.0506,0.0507,0,25,25,48,1,onetwo,,,,,,,,,,,,,,,,,,,,,,,,,,,,,,,,,,,,,,,,,,,,,,,,,,,,,,,,,,,,,,,,,,,,,,,,,,,,,,,,,,,,,,,,,,,,,,,,,,,,,,,,,,,,,,,,,,,,,,,,,,,,,,,,,,,,,,,,,
,,5e938e072a4ce9077f8157b9,2024-02-21_21h20.49.995,kallum_motion_pilot,2023.2.2,Win32,59.17159763,5e938e072a4ce9077f8157b9,65d6bb0e977760de756971f7,65d6bd46994906782921cd9b,0.051,0.051,0,26,26,55,1,fourthree,,,,,,,,,,,,,,,,,,,,,,,,,,,,,,,,,,,,,,,,,,,,,,,,,,,,,,,,,,,,,,,,,,,,,,,,,,,,,,,,,,,,,,,,,,,,,,,,,,,,,,,,,,,,,,,,,,,,,,,,,,,,,,,,,,,,,,,,,
,,5e938e072a4ce9077f8157b9,2024-02-21_21h20.49.995,kallum_motion_pilot,2023.2.2,Win32,59.17159763,5e938e072a4ce9077f8157b9,65d6bb0e977760de756971f7,65d6bd46994906782921cd9b,0.0512,0.0513,0,27,27,97,1,fiveseven,,,,,,,,,,,,,,,,,,,,,,,,,,,,,,,,,,,,,,,,,,,,,,,,,,,,,,,,,,,,,,,,,,,,,,,,,,,,,,,,,,,,,,,,,,,,,,,,,,,,,,,,,,,,,,,,,,,,,,,,,,,,,,,,,,,,,,,,,
,,5e938e072a4ce9077f8157b9,2024-02-21_21h20.49.995,kallum_motion_pilot,2023.2.2,Win32,59.17159763,5e938e072a4ce9077f8157b9,65d6bb0e977760de756971f7,65d6bd46994906782921cd9b,0.0515,0.0517,0,28,28,79,1,eightseven,,,,,,,,,,,,,,,,,,,,,,,,,,,,,,,,,,,,,,,,,,,,,,,,,,,,,,,,,,,,,,,,,,,,,,,,,,,,,,,,,,,,,,,,,,,,,,,,,,,,,,,,,,,,,,,,,,,,,,,,,,,,,,,,,,,,,,,,,
,,5e938e072a4ce9077f8157b9,2024-02-21_21h20.49.995,kallum_motion_pilot,2023.2.2,Win32,59.17159763,5e938e072a4ce9077f8157b9,65d6bb0e977760de756971f7,65d6bd46994906782921cd9b,0.052,0.0521,0,29,29,139,1,sixeight,,,,,,,,,,,,,,,,,,,,,,,,,,,,,,,,,,,,,,,,,,,,,,,,,,,,,,,,,,,,,,,,,,,,,,,,,,,,,,,,,,,,,,,,,,,,,,,,,,,,,,,,,,,,,,,,,,,,,,,,,,,,,,,,,,,,,,,,,
,,5e938e072a4ce9077f8157b9,2024-02-21_21h20.49.995,kallum_motion_pilot,2023.2.2,Win32,59.17159763,5e938e072a4ce9077f8157b9,65d6bb0e977760de756971f7,65d6bd46994906782921cd9b,0.0525,0.0527,0,30,30,142,1,eightsix,,,,,,,,,,,,,,,,,,,,,,,,,,,,,,,,,,,,,,,,,,,,,,,,,,,,,,,,,,,,,,,,,,,,,,,,,,,,,,,,,,,,,,,,,,,,,,,,,,,,,,,,,,,,,,,,,,,,,,,,,,,,,,,,,,,,,,,,,
,,5e938e072a4ce9077f8157b9,2024-02-21_21h20.49.995,kallum_motion_pilot,2023.2.2,Win32,59.17159763,5e938e072a4ce9077f8157b9,65d6bb0e977760de756971f7,65d6bd46994906782921cd9b,0.0536,0.054,0,31,31,34,1,twoone,,,,,,,,,,,,,,,,,,,,,,,,,,,,,,,,,,,,,,,,,,,,,,,,,,,,,,,,,,,,,,,,,,,,,,,,,,,,,,,,,,,,,,,,,,,,,,,,,,,,,,,,,,,,,,,,,,,,,,,,,,,,,,,,,,,,,,,,,
,,5e938e072a4ce9077f8157b9,2024-02-21_21h20.49.995,kallum_motion_pilot,2023.2.2,Win32,59.17159763,5e938e072a4ce9077f8157b9,65d6bb0e977760de756971f7,65d6bd46994906782921cd9b,0.0556,0.0561,0,32,32,133,1,seveneight,,,,,,,,,,,,,,,,,,,,,,,,,,,,,,,,,,,,,,,,,,,,,,,,,,,,,,,,,,,,,,,,,,,,,,,,,,,,,,,,,,,,,,,,,,,,,,,,,,,,,,,,,,,,,,,,,,,,,,,,,,,,,,,,,,,,,,,,,
,,5e938e072a4ce9077f8157b9,2024-02-21_21h20.49.995,kallum_motion_pilot,2023.2.2,Win32,59.17159763,5e938e072a4ce9077f8157b9,65d6bb0e977760de756971f7,65d6bd46994906782921cd9b,0.0577,0.0581,0,33,33,45,1,threefour,,,,,,,,,,,,,,,,,,,,,,,,,,,,,,,,,,,,,,,,,,,,,,,,,,,,,,,,,,,,,,,,,,,,,,,,,,,,,,,,,,,,,,,,,,,,,,,,,,,,,,,,,,,,,,,,,,,,,,,,,,,,,,,,,,,,,,,,,
,,5e938e072a4ce9077f8157b9,2024-02-21_21h20.49.995,kallum_motion_pilot,2023.2.2,Win32,59.17159763,5e938e072a4ce9077f8157b9,65d6bb0e977760de756971f7,65d6bd46994906782921cd9b,0.0595,0.06,0,34,34,101,1,seveneight,,,,,,,,,,,,,,,,,,,,,,,,,,,,,,,,,,,,,,,,,,,,,,,,,,,,,,,,,,,,,,,,,,,,,,,,,,,,,,,,,,,,,,,,,,,,,,,,,,,,,,,,,,,,,,,,,,,,,,,,,,,,,,,,,,,,,,,,,
,,5e938e072a4ce9077f8157b9,2024-02-21_21h20.49.995,kallum_motion_pilot,2023.2.2,Win32,59.17159763,5e938e072a4ce9077f8157b9,65d6bb0e977760de756971f7,65d6bd46994906782921cd9b,0.0613,0.0614,0,35,35,67,1,twofour,,,,,,,,,,,,,,,,,,,,,,,,,,,,,,,,,,,,,,,,,,,,,,,,,,,,,,,,,,,,,,,,,,,,,,,,,,,,,,,,,,,,,,,,,,,,,,,,,,,,,,,,,,,,,,,,,,,,,,,,,,,,,,,,,,,,,,,,,
,,5e938e072a4ce9077f8157b9,2024-02-21_21h20.49.995,kallum_motion_pilot,2023.2.2,Win32,59.17159763,5e938e072a4ce9077f8157b9,65d6bb0e977760de756971f7,65d6bd46994906782921cd9b,0.0615,0.0616,0,36,36,131,1,sixeight,,,,,,,,,,,,,,,,,,,,,,,,,,,,,,,,,,,,,,,,,,,,,,,,,,,,,,,,,,,,,,,,,,,,,,,,,,,,,,,,,,,,,,,,,,,,,,,,,,,,,,,,,,,,,,,,,,,,,,,,,,,,,,,,,,,,,,,,,
,,5e938e072a4ce9077f8157b9,2024-02-21_21h20.49.995,kallum_motion_pilot,2023.2.2,Win32,59.17159763,5e938e072a4ce9077f8157b9,65d6bb0e977760de756971f7,65d6bd46994906782921cd9b,0.0617,0.0617,0,37,37,72,1,onetwo,,,,,,,,,,,,,,,,,,,,,,,,,,,,,,,,,,,,,,,,,,,,,,,,,,,,,,,,,,,,,,,,,,,,,,,,,,,,,,,,,,,,,,,,,,,,,,,,,,,,,,,,,,,,,,,,,,,,,,,,,,,,,,,,,,,,,,,,,
,,5e938e072a4ce9077f8157b9,2024-02-21_21h20.49.995,kallum_motion_pilot,2023.2.2,Win32,59.17159763,5e938e072a4ce9077f8157b9,65d6bb0e977760de756971f7,65d6bd46994906782921cd9b,0.0618,0.0619,0,38,38,120,1,fivesix,,,,,,,,,,,,,,,,,,,,,,,,,,,,,,,,,,,,,,,,,,,,,,,,,,,,,,,,,,,,,,,,,,,,,,,,,,,,,,,,,,,,,,,,,,,,,,,,,,,,,,,,,,,,,,,,,,,,,,,,,,,,,,,,,,,,,,,,,
,,5e938e072a4ce9077f8157b9,2024-02-21_21h20.49.995,kallum_motion_pilot,2023.2.2,Win32,59.17159763,5e938e072a4ce9077f8157b9,65d6bb0e977760de756971f7,65d6bd46994906782921cd9b,0.0619,0.062,0,39,39,128,1,fivesix,,,,,,,,,,,,,,,,,,,,,,,,,,,,,,,,,,,,,,,,,,,,,,,,,,,,,,,,,,,,,,,,,,,,,,,,,,,,,,,,,,,,,,,,,,,,,,,,,,,,,,,,,,,,,,,,,,,,,,,,,,,,,,,,,,,,,,,,,
,,5e938e072a4ce9077f8157b9,2024-02-21_21h20.49.995,kallum_motion_pilot,2023.2.2,Win32,59.17159763,5e938e072a4ce9077f8157b9,65d6bb0e977760de756971f7,65d6bd46994906782921cd9b,0.0622,0.0622,0,40,40,65,1,onethree,,,,,,,,,,,,,,,,,,,,,,,,,,,,,,,,,,,,,,,,,,,,,,,,,,,,,,,,,,,,,,,,,,,,,,,,,,,,,,,,,,,,,,,,,,,,,,,,,,,,,,,,,,,,,,,,,,,,,,,,,,,,,,,,,,,,,,,,,
,,5e938e072a4ce9077f8157b9,2024-02-21_21h20.49.995,kallum_motion_pilot,2023.2.2,Win32,59.17159763,5e938e072a4ce9077f8157b9,65d6bb0e977760de756971f7,65d6bd46994906782921cd9b,0.0622,0.0623,0,41,41,41,1,onethree,,,,,,,,,,,,,,,,,,,,,,,,,,,,,,,,,,,,,,,,,,,,,,,,,,,,,,,,,,,,,,,,,,,,,,,,,,,,,,,,,,,,,,,,,,,,,,,,,,,,,,,,,,,,,,,,,,,,,,,,,,,,,,,,,,,,,,,,,
,,5e938e072a4ce9077f8157b9,2024-02-21_21h20.49.995,kallum_motion_pilot,2023.2.2,Win32,59.17159763,5e938e072a4ce9077f8157b9,65d6bb0e977760de756971f7,65d6bd46994906782921cd9b,0.0624,0.0625,0,42,42,63,1,fourthree,,,,,,,,,,,,,,,,,,,,,,,,,,,,,,,,,,,,,,,,,,,,,,,,,,,,,,,,,,,,,,,,,,,,,,,,,,,,,,,,,,,,,,,,,,,,,,,,,,,,,,,,,,,,,,,,,,,,,,,,,,,,,,,,,,,,,,,,,
,,5e938e072a4ce9077f8157b9,2024-02-21_21h20.49.995,kallum_motion_pilot,2023.2.2,Win32,59.17159763,5e938e072a4ce9077f8157b9,65d6bb0e977760de756971f7,65d6bd46994906782921cd9b,0.0627,0.0627,0,43,43,11,1,twofour,,,,,,,,,,,,,,,,,,,,,,,,,,,,,,,,,,,,,,,,,,,,,,,,,,,,,,,,,,,,,,,,,,,,,,,,,,,,,,,,,,,,,,,,,,,,,,,,,,,,,,,,,,,,,,,,,,,,,,,,,,,,,,,,,,,,,,,,,
,,5e938e072a4ce9077f8157b9,2024-02-21_21h20.49.995,kallum_motion_pilot,2023.2.2,Win32,59.17159763,5e938e072a4ce9077f8157b9,65d6bb0e977760de756971f7,65d6bd46994906782921cd9b,0.0629,0.063,0,44,44,7,1,fourthree,,,,,,,,,,,,,,,,,,,,,,,,,,,,,,,,,,,,,,,,,,,,,,,,,,,,,,,,,,,,,,,,,,,,,,,,,,,,,,,,,,,,,,,,,,,,,,,,,,,,,,,,,,,,,,,,,,,,,,,,,,,,,,,,,,,,,,,,,
,,5e938e072a4ce9077f8157b9,2024-02-21_21h20.49.995,kallum_motion_pilot,2023.2.2,Win32,59.17159763,5e938e072a4ce9077f8157b9,65d6bb0e977760de756971f7,65d6bd46994906782921cd9b,0.0631,0.0631,0,45,45,30,1,fourtwo,,,,,,,,,,,,,,,,,,,,,,,,,,,,,,,,,,,,,,,,,,,,,,,,,,,,,,,,,,,,,,,,,,,,,,,,,,,,,,,,,,,,,,,,,,,,,,,,,,,,,,,,,,,,,,,,,,,,,,,,,,,,,,,,,,,,,,,,,
,,5e938e072a4ce9077f8157b9,2024-02-21_21h20.49.995,kallum_motion_pilot,2023.2.2,Win32,59.17159763,5e938e072a4ce9077f8157b9,65d6bb0e977760de756971f7,65d6bd46994906782921cd9b,0.0632,0.0634,0,46,46,161,1,fiveseven,,,,,,,,,,,,,,,,,,,,,,,,,,,,,,,,,,,,,,,,,,,,,,,,,,,,,,,,,,,,,,,,,,,,,,,,,,,,,,,,,,,,,,,,,,,,,,,,,,,,,,,,,,,,,,,,,,,,,,,,,,,,,,,,,,,,,,,,,
,,5e938e072a4ce9077f8157b9,2024-02-21_21h20.49.995,kallum_motion_pilot,2023.2.2,Win32,59.17159763,5e938e072a4ce9077f8157b9,65d6bb0e977760de756971f7,65d6bd46994906782921cd9b,0.0635,0.0636,0,47,47,53,1,threefour,,,,,,,,,,,,,,,,,,,,,,,,,,,,,,,,,,,,,,,,,,,,,,,,,,,,,,,,,,,,,,,,,,,,,,,,,,,,,,,,,,,,,,,,,,,,,,,,,,,,,,,,,,,,,,,,,,,,,,,,,,,,,,,,,,,,,,,,,
,,5e938e072a4ce9077f8157b9,2024-02-21_21h20.49.995,kallum_motion_pilot,2023.2.2,Win32,59.17159763,5e938e072a4ce9077f8157b9,65d6bb0e977760de756971f7,65d6bd46994906782921cd9b,0.0637,0.0638,0,48,48,143,1,eightseven,,,,,,,,,,,,,,,,,,,,,,,,,,,,,,,,,,,,,,,,,,,,,,,,,,,,,,,,,,,,,,,,,,,,,,,,,,,,,,,,,,,,,,,,,,,,,,,,,,,,,,,,,,,,,,,,,,,,,,,,,,,,,,,,,,,,,,,,,
,,5e938e072a4ce9077f8157b9,2024-02-21_21h20.49.995,kallum_motion_pilot,2023.2.2,Win32,59.17159763,5e938e072a4ce9077f8157b9,65d6bb0e977760de756971f7,65d6bd46994906782921cd9b,0.064,0.0641,0,49,49,144,1,fivesix,,,,,,,,,,,,,,,,,,,,,,,,,,,,,,,,,,,,,,,,,,,,,,,,,,,,,,,,,,,,,,,,,,,,,,,,,,,,,,,,,,,,,,,,,,,,,,,,,,,,,,,,,,,,,,,,,,,,,,,,,,,,,,,,,,,,,,,,,
,,5e938e072a4ce9077f8157b9,2024-02-21_21h20.49.995,kallum_motion_pilot,2023.2.2,Win32,59.17159763,5e938e072a4ce9077f8157b9,65d6bb0e977760de756971f7,65d6bd46994906782921cd9b,0.0643,0.0644,0,50,50,75,1,twofour,,,,,,,,,,,,,,,,,,,,,,,,,,,,,,,,,,,,,,,,,,,,,,,,,,,,,,,,,,,,,,,,,,,,,,,,,,,,,,,,,,,,,,,,,,,,,,,,,,,,,,,,,,,,,,,,,,,,,,,,,,,,,,,,,,,,,,,,,
,,5e938e072a4ce9077f8157b9,2024-02-21_21h20.49.995,kallum_motion_pilot,2023.2.2,Win32,59.17159763,5e938e072a4ce9077f8157b9,65d6bb0e977760de756971f7,65d6bd46994906782921cd9b,0.0645,0.0646,0,51,51,81,1,fiveseven,,,,,,,,,,,,,,,,,,,,,,,,,,,,,,,,,,,,,,,,,,,,,,,,,,,,,,,,,,,,,,,,,,,,,,,,,,,,,,,,,,,,,,,,,,,,,,,,,,,,,,,,,,,,,,,,,,,,,,,,,,,,,,,,,,,,,,,,,
,,5e938e072a4ce9077f8157b9,2024-02-21_21h20.49.995,kallum_motion_pilot,2023.2.2,Win32,59.17159763,5e938e072a4ce9077f8157b9,65d6bb0e977760de756971f7,65d6bd46994906782921cd9b,0.0647,0.0647,0,52,52,26,1,twoone,,,,,,,,,,,,,,,,,,,,,,,,,,,,,,,,,,,,,,,,,,,,,,,,,,,,,,,,,,,,,,,,,,,,,,,,,,,,,,,,,,,,,,,,,,,,,,,,,,,,,,,,,,,,,,,,,,,,,,,,,,,,,,,,,,,,,,,,,
,,5e938e072a4ce9077f8157b9,2024-02-21_21h20.49.995,kallum_motion_pilot,2023.2.2,Win32,59.17159763,5e938e072a4ce9077f8157b9,65d6bb0e977760de756971f7,65d6bd46994906782921cd9b,0.0649,0.065,0,53,53,68,1,threeone,,,,,,,,,,,,,,,,,,,,,,,,,,,,,,,,,,,,,,,,,,,,,,,,,,,,,,,,,,,,,,,,,,,,,,,,,,,,,,,,,,,,,,,,,,,,,,,,,,,,,,,,,,,,,,,,,,,,,,,,,,,,,,,,,,,,,,,,,
,,5e938e072a4ce9077f8157b9,2024-02-21_21h20.49.995,kallum_motion_pilot,2023.2.2,Win32,59.17159763,5e938e072a4ce9077f8157b9,65d6bb0e977760de756971f7,65d6bd46994906782921cd9b,0.065,0.0651,0,54,54,60,1,threeone,,,,,,,,,,,,,,,,,,,,,,,,,,,,,,,,,,,,,,,,,,,,,,,,,,,,,,,,,,,,,,,,,,,,,,,,,,,,,,,,,,,,,,,,,,,,,,,,,,,,,,,,,,,,,,,,,,,,,,,,,,,,,,,,,,,,,,,,,
,,5e938e072a4ce9077f8157b9,2024-02-21_21h20.49.995,kallum_motion_pilot,2023.2.2,Win32,59.17159763,5e938e072a4ce9077f8157b9,65d6bb0e977760de756971f7,65d6bd46994906782921cd9b,0.0652,0.0654,0,55,55,95,1,eightseven,,,,,,,,,,,,,,,,,,,,,,,,,,,,,,,,,,,,,,,,,,,,,,,,,,,,,,,,,,,,,,,,,,,,,,,,,,,,,,,,,,,,,,,,,,,,,,,,,,,,,,,,,,,,,,,,,,,,,,,,,,,,,,,,,,,,,,,,,
,,5e938e072a4ce9077f8157b9,2024-02-21_21h20.49.995,kallum_motion_pilot,2023.2.2,Win32,59.17159763,5e938e072a4ce9077f8157b9,65d6bb0e977760de756971f7,65d6bd46994906782921cd9b,0.0655,0.0656,0,56,56,140,1,sevenfive,,,,,,,,,,,,,,,,,,,,,,,,,,,,,,,,,,,,,,,,,,,,,,,,,,,,,,,,,,,,,,,,,,,,,,,,,,,,,,,,,,,,,,,,,,,,,,,,,,,,,,,,,,,,,,,,,,,,,,,,,,,,,,,,,,,,,,,,,
,,5e938e072a4ce9077f8157b9,2024-02-21_21h20.49.995,kallum_motion_pilot,2023.2.2,Win32,59.17159763,5e938e072a4ce9077f8157b9,65d6bb0e977760de756971f7,65d6bd46994906782921cd9b,0.0658,0.0658,0,57,57,113,1,fiveseven,,,,,,,,,,,,,,,,,,,,,,,,,,,,,,,,,,,,,,,,,,,,,,,,,,,,,,,,,,,,,,,,,,,,,,,,,,,,,,,,,,,,,,,,,,,,,,,,,,,,,,,,,,,,,,,,,,,,,,,,,,,,,,,,,,,,,,,,,
,,5e938e072a4ce9077f8157b9,2024-02-21_21h20.49.995,kallum_motion_pilot,2023.2.2,Win32,59.17159763,5e938e072a4ce9077f8157b9,65d6bb0e977760de756971f7,65d6bd46994906782921cd9b,0.066,0.0661,0,58,58,66,1,twoone,,,,,,,,,,,,,,,,,,,,,,,,,,,,,,,,,,,,,,,,,,,,,,,,,,,,,,,,,,,,,,,,,,,,,,,,,,,,,,,,,,,,,,,,,,,,,,,,,,,,,,,,,,,,,,,,,,,,,,,,,,,,,,,,,,,,,,,,,
,,5e938e072a4ce9077f8157b9,2024-02-21_21h20.49.995,kallum_motion_pilot,2023.2.2,Win32,59.17159763,5e938e072a4ce9077f8157b9,65d6bb0e977760de756971f7,65d6bd46994906782921cd9b,0.0664,0.0664,0,59,59,90,1,sixfive,,,,,,,,,,,,,,,,,,,,,,,,,,,,,,,,,,,,,,,,,,,,,,,,,,,,,,,,,,,,,,,,,,,,,,,,,,,,,,,,,,,,,,,,,,,,,,,,,,,,,,,,,,,,,,,,,,,,,,,,,,,,,,,,,,,,,,,,,
,,5e938e072a4ce9077f8157b9,2024-02-21_21h20.49.995,kallum_motion_pilot,2023.2.2,Win32,59.17159763,5e938e072a4ce9077f8157b9,65d6bb0e977760de756971f7,65d6bd46994906782921cd9b,0.0667,0.0667,0,60,60,22,1,fourtwo,,,,,,,,,,,,,,,,,,,,,,,,,,,,,,,,,,,,,,,,,,,,,,,,,,,,,,,,,,,,,,,,,,,,,,,,,,,,,,,,,,,,,,,,,,,,,,,,,,,,,,,,,,,,,,,,,,,,,,,,,,,,,,,,,,,,,,,,,
,,5e938e072a4ce9077f8157b9,2024-02-21_21h20.49.995,kallum_motion_pilot,2023.2.2,Win32,59.17159763,5e938e072a4ce9077f8157b9,65d6bb0e977760de756971f7,65d6bd46994906782921cd9b,0.067,0.067,0,61,61,64,1,onetwo,,,,,,,,,,,,,,,,,,,,,,,,,,,,,,,,,,,,,,,,,,,,,,,,,,,,,,,,,,,,,,,,,,,,,,,,,,,,,,,,,,,,,,,,,,,,,,,,,,,,,,,,,,,,,,,,,,,,,,,,,,,,,,,,,,,,,,,,,
,,5e938e072a4ce9077f8157b9,2024-02-21_21h20.49.995,kallum_motion_pilot,2023.2.2,Win32,59.17159763,5e938e072a4ce9077f8157b9,65d6bb0e977760de756971f7,65d6bd46994906782921cd9b,0.0672,0.0673,0,62,62,123,1,sixeight,,,,,,,,,,,,,,,,,,,,,,,,,,,,,,,,,,,,,,,,,,,,,,,,,,,,,,,,,,,,,,,,,,,,,,,,,,,,,,,,,,,,,,,,,,,,,,,,,,,,,,,,,,,,,,,,,,,,,,,,,,,,,,,,,,,,,,,,,
,,5e938e072a4ce9077f8157b9,2024-02-21_21h20.49.995,kallum_motion_pilot,2023.2.2,Win32,59.17159763,5e938e072a4ce9077f8157b9,65d6bb0e977760de756971f7,65d6bd46994906782921cd9b,0.0676,0.0682,0,63,63,44,1,threeone,,,,,,,,,,,,,,,,,,,,,,,,,,,,,,,,,,,,,,,,,,,,,,,,,,,,,,,,,,,,,,,,,,,,,,,,,,,,,,,,,,,,,,,,,,,,,,,,,,,,,,,,,,,,,,,,,,,,,,,,,,,,,,,,,,,,,,,,,
,,5e938e072a4ce9077f8157b9,2024-02-21_21h20.49.995,kallum_motion_pilot,2023.2.2,Win32,59.17159763,5e938e072a4ce9077f8157b9,65d6bb0e977760de756971f7,65d6bd46994906782921cd9b,0.0697,0.0701,0,64,64,46,1,fourtwo,,,,,,,,,,,,,,,,,,,,,,,,,,,,,,,,,,,,,,,,,,,,,,,,,,,,,,,,,,,,,,,,,,,,,,,,,,,,,,,,,,,,,,,,,,,,,,,,,,,,,,,,,,,,,,,,,,,,,,,,,,,,,,,,,,,,,,,,,
,,5e938e072a4ce9077f8157b9,2024-02-21_21h20.49.995,kallum_motion_pilot,2023.2.2,Win32,59.17159763,5e938e072a4ce9077f8157b9,65d6bb0e977760de756971f7,65d6bd46994906782921cd9b,0.0714,0.0718,0,65,65,50,1,twoone,,,,,,,,,,,,,,,,,,,,,,,,,,,,,,,,,,,,,,,,,,,,,,,,,,,,,,,,,,,,,,,,,,,,,,,,,,,,,,,,,,,,,,,,,,,,,,,,,,,,,,,,,,,,,,,,,,,,,,,,,,,,,,,,,,,,,,,,,
,,5e938e072a4ce9077f8157b9,2024-02-21_21h20.49.995,kallum_motion_pilot,2023.2.2,Win32,59.17159763,5e938e072a4ce9077f8157b9,65d6bb0e977760de756971f7,65d6bd46994906782921cd9b,0.0731,0.0734,0,66,66,137,1,fiveseven,,,,,,,,,,,,,,,,,,,,,,,,,,,,,,,,,,,,,,,,,,,,,,,,,,,,,,,,,,,,,,,,,,,,,,,,,,,,,,,,,,,,,,,,,,,,,,,,,,,,,,,,,,,,,,,,,,,,,,,,,,,,,,,,,,,,,,,,,
,,5e938e072a4ce9077f8157b9,2024-02-21_21h20.49.995,kallum_motion_pilot,2023.2.2,Win32,59.17159763,5e938e072a4ce9077f8157b9,65d6bb0e977760de756971f7,65d6bd46994906782921cd9b,0.0754,0.0761,0,67,67,73,1,onethree,,,,,,,,,,,,,,,,,,,,,,,,,,,,,,,,,,,,,,,,,,,,,,,,,,,,,,,,,,,,,,,,,,,,,,,,,,,,,,,,,,,,,,,,,,,,,,,,,,,,,,,,,,,,,,,,,,,,,,,,,,,,,,,,,,,,,,,,,
,,5e938e072a4ce9077f8157b9,2024-02-21_21h20.49.995,kallum_motion_pilot,2023.2.2,Win32,59.17159763,5e938e072a4ce9077f8157b9,65d6bb0e977760de756971f7,65d6bd46994906782921cd9b,0.0778,0.0783,0,68,68,157,1,seveneight,,,,,,,,,,,,,,,,,,,,,,,,,,,,,,,,,,,,,,,,,,,,,,,,,,,,,,,,,,,,,,,,,,,,,,,,,,,,,,,,,,,,,,,,,,,,,,,,,,,,,,,,,,,,,,,,,,,,,,,,,,,,,,,,,,,,,,,,,
,,5e938e072a4ce9077f8157b9,2024-02-21_21h20.49.995,kallum_motion_pilot,2023.2.2,Win32,59.17159763,5e938e072a4ce9077f8157b9,65d6bb0e977760de756971f7,65d6bd46994906782921cd9b,0.08,0.0806,0,69,69,10,1,twoone,,,,,,,,,,,,,,,,,,,,,,,,,,,,,,,,,,,,,,,,,,,,,,,,,,,,,,,,,,,,,,,,,,,,,,,,,,,,,,,,,,,,,,,,,,,,,,,,,,,,,,,,,,,,,,,,,,,,,,,,,,,,,,,,,,,,,,,,,
,,5e938e072a4ce9077f8157b9,2024-02-21_21h20.49.995,kallum_motion_pilot,2023.2.2,Win32,59.17159763,5e938e072a4ce9077f8157b9,65d6bb0e977760de756971f7,65d6bd46994906782921cd9b,0.0821,0.0826,0,70,70,150,1,eightsix,,,,,,,,,,,,,,,,,,,,,,,,,,,,,,,,,,,,,,,,,,,,,,,,,,,,,,,,,,,,,,,,,,,,,,,,,,,,,,,,,,,,,,,,,,,,,,,,,,,,,,,,,,,,,,,,,,,,,,,,,,,,,,,,,,,,,,,,,
,,5e938e072a4ce9077f8157b9,2024-02-21_21h20.49.995,kallum_motion_pilot,2023.2.2,Win32,59.17159763,5e938e072a4ce9077f8157b9,65d6bb0e977760de756971f7,65d6bd46994906782921cd9b,0.0849,0.0853,0,71,71,14,1,fourtwo,,,,,,,,,,,,,,,,,,,,,,,,,,,,,,,,,,,,,,,,,,,,,,,,,,,,,,,,,,,,,,,,,,,,,,,,,,,,,,,,,,,,,,,,,,,,,,,,,,,,,,,,,,,,,,,,,,,,,,,,,,,,,,,,,,,,,,,,,
,,5e938e072a4ce9077f8157b9,2024-02-21_21h20.49.995,kallum_motion_pilot,2023.2.2,Win32,59.17159763,5e938e072a4ce9077f8157b9,65d6bb0e977760de756971f7,65d6bd46994906782921cd9b,0.0881,0.0888,0,72,72,160,1,fivesix,,,,,,,,,,,,,,,,,,,,,,,,,,,,,,,,,,,,,,,,,,,,,,,,,,,,,,,,,,,,,,,,,,,,,,,,,,,,,,,,,,,,,,,,,,,,,,,,,,,,,,,,,,,,,,,,,,,,,,,,,,,,,,,,,,,,,,,,,
,,5e938e072a4ce9077f8157b9,2024-02-21_21h20.49.995,kallum_motion_pilot,2023.2.2,Win32,59.17159763,5e938e072a4ce9077f8157b9,65d6bb0e977760de756971f7,65d6bd46994906782921cd9b,0.0907,0.0916,0,73,73,29,1,threefour,,,,,,,,,,,,,,,,,,,,,,,,,,,,,,,,,,,,,,,,,,,,,,,,,,,,,,,,,,,,,,,,,,,,,,,,,,,,,,,,,,,,,,,,,,,,,,,,,,,,,,,,,,,,,,,,,,,,,,,,,,,,,,,,,,,,,,,,,
,,5e938e072a4ce9077f8157b9,2024-02-21_21h20.49.995,kallum_motion_pilot,2023.2.2,Win32,59.17159763,5e938e072a4ce9077f8157b9,65d6bb0e977760de756971f7,65d6bd46994906782921cd9b,0.0944,0.0955,0,74,74,93,1,seveneight,,,,,,,,,,,,,,,,,,,,,,,,,,,,,,,,,,,,,,,,,,,,,,,,,,,,,,,,,,,,,,,,,,,,,,,,,,,,,,,,,,,,,,,,,,,,,,,,,,,,,,,,,,,,,,,,,,,,,,,,,,,,,,,,,,,,,,,,,
,,5e938e072a4ce9077f8157b9,2024-02-21_21h20.49.995,kallum_motion_pilot,2023.2.2,Win32,59.17159763,5e938e072a4ce9077f8157b9,65d6bb0e977760de756971f7,65d6bd46994906782921cd9b,0.0985,0.0993,0,75,75,51,1,twofour,,,,,,,,,,,,,,,,,,,,,,,,,,,,,,,,,,,,,,,,,,,,,,,,,,,,,,,,,,,,,,,,,,,,,,,,,,,,,,,,,,,,,,,,,,,,,,,,,,,,,,,,,,,,,,,,,,,,,,,,,,,,,,,,,,,,,,,,,
,,5e938e072a4ce9077f8157b9,2024-02-21_21h20.49.995,kallum_motion_pilot,2023.2.2,Win32,59.17159763,5e938e072a4ce9077f8157b9,65d6bb0e977760de756971f7,65d6bd46994906782921cd9b,0.1013,0.1018,0,76,76,102,1,eightsix,,,,,,,,,,,,,,,,,,,,,,,,,,,,,,,,,,,,,,,,,,,,,,,,,,,,,,,,,,,,,,,,,,,,,,,,,,,,,,,,,,,,,,,,,,,,,,,,,,,,,,,,,,,,,,,,,,,,,,,,,,,,,,,,,,,,,,,,,
,,5e938e072a4ce9077f8157b9,2024-02-21_21h20.49.995,kallum_motion_pilot,2023.2.2,Win32,59.17159763,5e938e072a4ce9077f8157b9,65d6bb0e977760de756971f7,65d6bd46994906782921cd9b,0.103,0.1032,0,77,77,38,1,fourtwo,,,,,,,,,,,,,,,,,,,,,,,,,,,,,,,,,,,,,,,,,,,,,,,,,,,,,,,,,,,,,,,,,,,,,,,,,,,,,,,,,,,,,,,,,,,,,,,,,,,,,,,,,,,,,,,,,,,,,,,,,,,,,,,,,,,,,,,,,
,,5e938e072a4ce9077f8157b9,2024-02-21_21h20.49.995,kallum_motion_pilot,2023.2.2,Win32,59.17159763,5e938e072a4ce9077f8157b9,65d6bb0e977760de756971f7,65d6bd46994906782921cd9b,0.1053,0.1064,0,78,78,114,1,sixfive,,,,,,,,,,,,,,,,,,,,,,,,,,,,,,,,,,,,,,,,,,,,,,,,,,,,,,,,,,,,,,,,,,,,,,,,,,,,,,,,,,,,,,,,,,,,,,,,,,,,,,,,,,,,,,,,,,,,,,,,,,,,,,,,,,,,,,,,,
,,5e938e072a4ce9077f8157b9,2024-02-21_21h20.49.995,kallum_motion_pilot,2023.2.2,Win32,59.17159763,5e938e072a4ce9077f8157b9,65d6bb0e977760de756971f7,65d6bd46994906782921cd9b,0.1094,0.1098,0,79,79,56,1,onetwo,,,,,,,,,,,,,,,,,,,,,,,,,,,,,,,,,,,,,,,,,,,,,,,,,,,,,,,,,,,,,,,,,,,,,,,,,,,,,,,,,,,,,,,,,,,,,,,,,,,,,,,,,,,,,,,,,,,,,,,,,,,,,,,,,,,,,,,,,
,,5e938e072a4ce9077f8157b9,2024-02-21_21h20.49.995,kallum_motion_pilot,2023.2.2,Win32,59.17159763,5e938e072a4ce9077f8157b9,65d6bb0e977760de756971f7,65d6bd46994906782921cd9b,0.1107,0.1108,0,80,80,83,1,sixeight,,,,,,,,,,,,,,,,,,,,,,,,,,,,,,,,,,,,,,,,,,,,,,,,,,,,,,,,,,,,,,,,,,,,,,,,,,,,,,,,,,,,,,,,,,,,,,,,,,,,,,,,,,,,,,,,,,,,,,,,,,,,,,,,,,,,,,,,,
,,5e938e072a4ce9077f8157b9,2024-02-21_21h20.49.995,kallum_motion_pilot,2023.2.2,Win32,59.17159763,5e938e072a4ce9077f8157b9,65d6bb0e977760de756971f7,65d6bd46994906782921cd9b,0.1113,0.1114,0,81,81,87,1,eightseven,,,,,,,,,,,,,,,,,,,,,,,,,,,,,,,,,,,,,,,,,,,,,,,,,,,,,,,,,,,,,,,,,,,,,,,,,,,,,,,,,,,,,,,,,,,,,,,,,,,,,,,,,,,,,,,,,,,,,,,,,,,,,,,,,,,,,,,,,
,,5e938e072a4ce9077f8157b9,2024-02-21_21h20.49.995,kallum_motion_pilot,2023.2.2,Win32,59.17159763,5e938e072a4ce9077f8157b9,65d6bb0e977760de756971f7,65d6bd46994906782921cd9b,0.1117,0.1119,0,82,82,82,1,sixfive,,,,,,,,,,,,,,,,,,,,,,,,,,,,,,,,,,,,,,,,,,,,,,,,,,,,,,,,,,,,,,,,,,,,,,,,,,,,,,,,,,,,,,,,,,,,,,,,,,,,,,,,,,,,,,,,,,,,,,,,,,,,,,,,,,,,,,,,,
,,5e938e072a4ce9077f8157b9,2024-02-21_21h20.49.995,kallum_motion_pilot,2023.2.2,Win32,59.17159763,5e938e072a4ce9077f8157b9,65d6bb0e977760de756971f7,65d6bd46994906782921cd9b,0.1123,0.1124,0,83,83,112,1,fivesix,,,,,,,,,,,,,,,,,,,,,,,,,,,,,,,,,,,,,,,,,,,,,,,,,,,,,,,,,,,,,,,,,,,,,,,,,,,,,,,,,,,,,,,,,,,,,,,,,,,,,,,,,,,,,,,,,,,,,,,,,,,,,,,,,,,,,,,,,
,,5e938e072a4ce9077f8157b9,2024-02-21_21h20.49.995,kallum_motion_pilot,2023.2.2,Win32,59.17159763,5e938e072a4ce9077f8157b9,65d6bb0e977760de756971f7,65d6bd46994906782921cd9b,0.1127,0.1128,0,84,84,146,1,sixfive,,,,,,,,,,,,,,,,,,,,,,,,,,,,,,,,,,,,,,,,,,,,,,,,,,,,,,,,,,,,,,,,,,,,,,,,,,,,,,,,,,,,,,,,,,,,,,,,,,,,,,,,,,,,,,,,,,,,,,,,,,,,,,,,,,,,,,,,,
,,5e938e072a4ce9077f8157b9,2024-02-21_21h20.49.995,kallum_motion_pilot,2023.2.2,Win32,59.17159763,5e938e072a4ce9077f8157b9,65d6bb0e977760de756971f7,65d6bd46994906782921cd9b,0.1132,0.1133,0,85,85,37,1,threefour,,,,,,,,,,,,,,,,,,,,,,,,,,,,,,,,,,,,,,,,,,,,,,,,,,,,,,,,,,,,,,,,,,,,,,,,,,,,,,,,,,,,,,,,,,,,,,,,,,,,,,,,,,,,,,,,,,,,,,,,,,,,,,,,,,,,,,,,,
,,5e938e072a4ce9077f8157b9,2024-02-21_21h20.49.995,kallum_motion_pilot,2023.2.2,Win32,59.17159763,5e938e072a4ce9077f8157b9,65d6bb0e977760de756971f7,65d6bd46994906782921cd9b,0.1135,0.1138,0,86,86,115,1,sixeight,,,,,,,,,,,,,,,,,,,,,,,,,,,,,,,,,,,,,,,,,,,,,,,,,,,,,,,,,,,,,,,,,,,,,,,,,,,,,,,,,,,,,,,,,,,,,,,,,,,,,,,,,,,,,,,,,,,,,,,,,,,,,,,,,,,,,,,,,
,,5e938e072a4ce9077f8157b9,2024-02-21_21h20.49.995,kallum_motion_pilot,2023.2.2,Win32,59.17159763,5e938e072a4ce9077f8157b9,65d6bb0e977760de756971f7,65d6bd46994906782921cd9b,0.114,0.1142,0,87,87,91,1,sixeight,,,,,,,,,,,,,,,,,,,,,,,,,,,,,,,,,,,,,,,,,,,,,,,,,,,,,,,,,,,,,,,,,,,,,,,,,,,,,,,,,,,,,,,,,,,,,,,,,,,,,,,,,,,,,,,,,,,,,,,,,,,,,,,,,,,,,,,,,
,,5e938e072a4ce9077f8157b9,2024-02-21_21h20.49.995,kallum_motion_pilot,2023.2.2,Win32,59.17159763,5e938e072a4ce9077f8157b9,65d6bb0e977760de756971f7,65d6bd46994906782921cd9b,0.1144,0.1147,0,88,88,88,1,fivesix,,,,,,,,,,,,,,,,,,,,,,,,,,,,,,,,,,,,,,,,,,,,,,,,,,,,,,,,,,,,,,,,,,,,,,,,,,,,,,,,,,,,,,,,,,,,,,,,,,,,,,,,,,,,,,,,,,,,,,,,,,,,,,,,,,,,,,,,,
,,5e938e072a4ce9077f8157b9,2024-02-21_21h20.49.995,kallum_motion_pilot,2023.2.2,Win32,59.17159763,5e938e072a4ce9077f8157b9,65d6bb0e977760de756971f7,65d6bd46994906782921cd9b,0.115,0.1152,0,89,89,25,1,onethree,,,,,,,,,,,,,,,,,,,,,,,,,,,,,,,,,,,,,,,,,,,,,,,,,,,,,,,,,,,,,,,,,,,,,,,,,,,,,,,,,,,,,,,,,,,,,,,,,,,,,,,,,,,,,,,,,,,,,,,,,,,,,,,,,,,,,,,,,
,,5e938e072a4ce9077f8157b9,2024-02-21_21h20.49.995,kallum_motion_pilot,2023.2.2,Win32,59.17159763,5e938e072a4ce9077f8157b9,65d6bb0e977760de756971f7,65d6bd46994906782921cd9b,0.1156,0.116,0,90,90,127,1,eightseven,,,,,,,,,,,,,,,,,,,,,,,,,,,,,,,,,,,,,,,,,,,,,,,,,,,,,,,,,,,,,,,,,,,,,,,,,,,,,,,,,,,,,,,,,,,,,,,,,,,,,,,,,,,,,,,,,,,,,,,,,,,,,,,,,,,,,,,,,
,,5e938e072a4ce9077f8157b9,2024-02-21_21h20.49.995,kallum_motion_pilot,2023.2.2,Win32,59.17159763,5e938e072a4ce9077f8157b9,65d6bb0e977760de756971f7,65d6bd46994906782921cd9b,0.1162,0.1163,0,91,91,16,1,onetwo,,,,,,,,,,,,,,,,,,,,,,,,,,,,,,,,,,,,,,,,,,,,,,,,,,,,,,,,,,,,,,,,,,,,,,,,,,,,,,,,,,,,,,,,,,,,,,,,,,,,,,,,,,,,,,,,,,,,,,,,,,,,,,,,,,,,,,,,,
,,5e938e072a4ce9077f8157b9,2024-02-21_21h20.49.995,kallum_motion_pilot,2023.2.2,Win32,59.17159763,5e938e072a4ce9077f8157b9,65d6bb0e977760de756971f7,65d6bd46994906782921cd9b,0.1166,0.1169,0,92,92,149,1,seveneight,,,,,,,,,,,,,,,,,,,,,,,,,,,,,,,,,,,,,,,,,,,,,,,,,,,,,,,,,,,,,,,,,,,,,,,,,,,,,,,,,,,,,,,,,,,,,,,,,,,,,,,,,,,,,,,,,,,,,,,,,,,,,,,,,,,,,,,,,
,,5e938e072a4ce9077f8157b9,2024-02-21_21h20.49.995,kallum_motion_pilot,2023.2.2,Win32,59.17159763,5e938e072a4ce9077f8157b9,65d6bb0e977760de756971f7,65d6bd46994906782921cd9b,0.1175,0.1177,0,93,93,132,1,sevenfive,,,,,,,,,,,,,,,,,,,,,,,,,,,,,,,,,,,,,,,,,,,,,,,,,,,,,,,,,,,,,,,,,,,,,,,,,,,,,,,,,,,,,,,,,,,,,,,,,,,,,,,,,,,,,,,,,,,,,,,,,,,,,,,,,,,,,,,,,
,,5e938e072a4ce9077f8157b9,2024-02-21_21h20.49.995,kallum_motion_pilot,2023.2.2,Win32,59.17159763,5e938e072a4ce9077f8157b9,65d6bb0e977760de756971f7,65d6bd46994906782921cd9b,0.118,0.1181,0,94,94,85,1,seveneight,,,,,,,,,,,,,,,,,,,,,,,,,,,,,,,,,,,,,,,,,,,,,,,,,,,,,,,,,,,,,,,,,,,,,,,,,,,,,,,,,,,,,,,,,,,,,,,,,,,,,,,,,,,,,,,,,,,,,,,,,,,,,,,,,,,,,,,,,
,,5e938e072a4ce9077f8157b9,2024-02-21_21h20.49.995,kallum_motion_pilot,2023.2.2,Win32,59.17159763,5e938e072a4ce9077f8157b9,65d6bb0e977760de756971f7,65d6bd46994906782921cd9b,0.1184,0.1185,0,95,95,12,1,threeone,,,,,,,,,,,,,,,,,,,,,,,,,,,,,,,,,,,,,,,,,,,,,,,,,,,,,,,,,,,,,,,,,,,,,,,,,,,,,,,,,,,,,,,,,,,,,,,,,,,,,,,,,,,,,,,,,,,,,,,,,,,,,,,,,,,,,,,,,
,,5e938e072a4ce9077f8157b9,2024-02-21_21h20.49.995,kallum_motion_pilot,2023.2.2,Win32,59.17159763,5e938e072a4ce9077f8157b9,65d6bb0e977760de756971f7,65d6bd46994906782921cd9b,0.1188,0.1189,0,96,96,89,1,fiveseven,,,,,,,,,,,,,,,,,,,,,,,,,,,,,,,,,,,,,,,,,,,,,,,,,,,,,,,,,,,,,,,,,,,,,,,,,,,,,,,,,,,,,,,,,,,,,,,,,,,,,,,,,,,,,,,,,,,,,,,,,,,,,,,,,,,,,,,,,
,,5e938e072a4ce9077f8157b9,2024-02-21_21h20.49.995,kallum_motion_pilot,2023.2.2,Win32,59.17159763,5e938e072a4ce9077f8157b9,65d6bb0e977760de756971f7,65d6bd46994906782921cd9b,0.1194,0.1195,0,97,97,20,1,threeone,,,,,,,,,,,,,,,,,,,,,,,,,,,,,,,,,,,,,,,,,,,,,,,,,,,,,,,,,,,,,,,,,,,,,,,,,,,,,,,,,,,,,,,,,,,,,,,,,,,,,,,,,,,,,,,,,,,,,,,,,,,,,,,,,,,,,,,,,
,,5e938e072a4ce9077f8157b9,2024-02-21_21h20.49.995,kallum_motion_pilot,2023.2.2,Win32,59.17159763,5e938e072a4ce9077f8157b9,65d6bb0e977760de756971f7,65d6bd46994906782921cd9b,0.1198,0.12,0,98,98,152,1,fivesix,,,,,,,,,,,,,,,,,,,,,,,,,,,,,,,,,,,,,,,,,,,,,,,,,,,,,,,,,,,,,,,,,,,,,,,,,,,,,,,,,,,,,,,,,,,,,,,,,,,,,,,,,,,,,,,,,,,,,,,,,,,,,,,,,,,,,,,,,
,,5e938e072a4ce9077f8157b9,2024-02-21_21h20.49.995,kallum_motion_pilot,2023.2.2,Win32,59.17159763,5e938e072a4ce9077f8157b9,65d6bb0e977760de756971f7,65d6bd46994906782921cd9b,0.1203,0.1205,0,99,99,36,1,threeone,,,,,,,,,,,,,,,,,,,,,,,,,,,,,,,,,,,,,,,,,,,,,,,,,,,,,,,,,,,,,,,,,,,,,,,,,,,,,,,,,,,,,,,,,,,,,,,,,,,,,,,,,,,,,,,,,,,,,,,,,,,,,,,,,,,,,,,,,
,,5e938e072a4ce9077f8157b9,2024-02-21_21h20.49.995,kallum_motion_pilot,2023.2.2,Win32,59.17159763,5e938e072a4ce9077f8157b9,65d6bb0e977760de756971f7,65d6bd46994906782921cd9b,0.1208,0.1209,0,100,100,31,1,fourthree,,,,,,,,,,,,,,,,,,,,,,,,,,,,,,,,,,,,,,,,,,,,,,,,,,,,,,,,,,,,,,,,,,,,,,,,,,,,,,,,,,,,,,,,,,,,,,,,,,,,,,,,,,,,,,,,,,,,,,,,,,,,,,,,,,,,,,,,,
,,5e938e072a4ce9077f8157b9,2024-02-21_21h20.49.995,kallum_motion_pilot,2023.2.2,Win32,59.17159763,5e938e072a4ce9077f8157b9,65d6bb0e977760de756971f7,65d6bd46994906782921cd9b,0.1212,0.1214,0,101,101,100,1,sevenfive,,,,,,,,,,,,,,,,,,,,,,,,,,,,,,,,,,,,,,,,,,,,,,,,,,,,,,,,,,,,,,,,,,,,,,,,,,,,,,,,,,,,,,,,,,,,,,,,,,,,,,,,,,,,,,,,,,,,,,,,,,,,,,,,,,,,,,,,,
,,5e938e072a4ce9077f8157b9,2024-02-21_21h20.49.995,kallum_motion_pilot,2023.2.2,Win32,59.17159763,5e938e072a4ce9077f8157b9,65d6bb0e977760de756971f7,65d6bd46994906782921cd9b,0.1217,0.1219,0,102,102,92,1,sevenfive,,,,,,,,,,,,,,,,,,,,,,,,,,,,,,,,,,,,,,,,,,,,,,,,,,,,,,,,,,,,,,,,,,,,,,,,,,,,,,,,,,,,,,,,,,,,,,,,,,,,,,,,,,,,,,,,,,,,,,,,,,,,,,,,,,,,,,,,,
,,5e938e072a4ce9077f8157b9,2024-02-21_21h20.49.995,kallum_motion_pilot,2023.2.2,Win32,59.17159763,5e938e072a4ce9077f8157b9,65d6bb0e977760de756971f7,65d6bd46994906782921cd9b,0.122,0.1222,0,103,103,110,1,eightsix,,,,,,,,,,,,,,,,,,,,,,,,,,,,,,,,,,,,,,,,,,,,,,,,,,,,,,,,,,,,,,,,,,,,,,,,,,,,,,,,,,,,,,,,,,,,,,,,,,,,,,,,,,,,,,,,,,,,,,,,,,,,,,,,,,,,,,,,,
,,5e938e072a4ce9077f8157b9,2024-02-21_21h20.49.995,kallum_motion_pilot,2023.2.2,Win32,59.17159763,5e938e072a4ce9077f8157b9,65d6bb0e977760de756971f7,65d6bd46994906782921cd9b,0.1225,0.1226,0,104,104,15,1,fourthree,,,,,,,,,,,,,,,,,,,,,,,,,,,,,,,,,,,,,,,,,,,,,,,,,,,,,,,,,,,,,,,,,,,,,,,,,,,,,,,,,,,,,,,,,,,,,,,,,,,,,,,,,,,,,,,,,,,,,,,,,,,,,,,,,,,,,,,,,
,,5e938e072a4ce9077f8157b9,2024-02-21_21h20.49.995,kallum_motion_pilot,2023.2.2,Win32,59.17159763,5e938e072a4ce9077f8157b9,65d6bb0e977760de756971f7,65d6bd46994906782921cd9b,0.1229,0.1231,0,105,105,52,1,threeone,,,,,,,,,,,,,,,,,,,,,,,,,,,,,,,,,,,,,,,,,,,,,,,,,,,,,,,,,,,,,,,,,,,,,,,,,,,,,,,,,,,,,,,,,,,,,,,,,,,,,,,,,,,,,,,,,,,,,,,,,,,,,,,,,,,,,,,,,
,,5e938e072a4ce9077f8157b9,2024-02-21_21h20.49.995,kallum_motion_pilot,2023.2.2,Win32,59.17159763,5e938e072a4ce9077f8157b9,65d6bb0e977760de756971f7,65d6bd46994906782921cd9b,0.1234,0.1234,0,106,106,129,1,fiveseven,,,,,,,,,,,,,,,,,,,,,,,,,,,,,,,,,,,,,,,,,,,,,,,,,,,,,,,,,,,,,,,,,,,,,,,,,,,,,,,,,,,,,,,,,,,,,,,,,,,,,,,,,,,,,,,,,,,,,,,,,,,,,,,,,,,,,,,,,
,,5e938e072a4ce9077f8157b9,2024-02-21_21h20.49.995,kallum_motion_pilot,2023.2.2,Win32,59.17159763,5e938e072a4ce9077f8157b9,65d6bb0e977760de756971f7,65d6bd46994906782921cd9b,0.1237,0.1239,0,107,107,3,1,twofour,,,,,,,,,,,,,,,,,,,,,,,,,,,,,,,,,,,,,,,,,,,,,,,,,,,,,,,,,,,,,,,,,,,,,,,,,,,,,,,,,,,,,,,,,,,,,,,,,,,,,,,,,,,,,,,,,,,,,,,,,,,,,,,,,,,,,,,,,
,,5e938e072a4ce9077f8157b9,2024-02-21_21h20.49.995,kallum_motion_pilot,2023.2.2,Win32,59.17159763,5e938e072a4ce9077f8157b9,65d6bb0e977760de756971f7,65d6bd46994906782921cd9b,0.1241,0.1242,0,108,108,106,1,sixfive,,,,,,,,,,,,,,,,,,,,,,,,,,,,,,,,,,,,,,,,,,,,,,,,,,,,,,,,,,,,,,,,,,,,,,,,,,,,,,,,,,,,,,,,,,,,,,,,,,,,,,,,,,,,,,,,,,,,,,,,,,,,,,,,,,,,,,,,,
,,5e938e072a4ce9077f8157b9,2024-02-21_21h20.49.995,kallum_motion_pilot,2023.2.2,Win32,59.17159763,5e938e072a4ce9077f8157b9,65d6bb0e977760de756971f7,65d6bd46994906782921cd9b,0.1244,0.1246,0,109,109,125,1,seveneight,,,,,,,,,,,,,,,,,,,,,,,,,,,,,,,,,,,,,,,,,,,,,,,,,,,,,,,,,,,,,,,,,,,,,,,,,,,,,,,,,,,,,,,,,,,,,,,,,,,,,,,,,,,,,,,,,,,,,,,,,,,,,,,,,,,,,,,,,
,,5e938e072a4ce9077f8157b9,2024-02-21_21h20.49.995,kallum_motion_pilot,2023.2.2,Win32,59.17159763,5e938e072a4ce9077f8157b9,65d6bb0e977760de756971f7,65d6bd46994906782921cd9b,0.1247,0.1248,0,110,110,74,1,twoone,,,,,,,,,,,,,,,,,,,,,,,,,,,,,,,,,,,,,,,,,,,,,,,,,,,,,,,,,,,,,,,,,,,,,,,,,,,,,,,,,,,,,,,,,,,,,,,,,,,,,,,,,,,,,,,,,,,,,,,,,,,,,,,,,,,,,,,,,
,,5e938e072a4ce9077f8157b9,2024-02-21_21h20.49.995,kallum_motion_pilot,2023.2.2,Win32,59.17159763,5e938e072a4ce9077f8157b9,65d6bb0e977760de756971f7,65d6bd46994906782921cd9b,0.1251,0.1253,0,111,111,98,1,sixfive,,,,,,,,,,,,,,,,,,,,,,,,,,,,,,,,,,,,,,,,,,,,,,,,,,,,,,,,,,,,,,,,,,,,,,,,,,,,,,,,,,,,,,,,,,,,,,,,,,,,,,,,,,,,,,,,,,,,,,,,,,,,,,,,,,,,,,,,,
,,5e938e072a4ce9077f8157b9,2024-02-21_21h20.49.995,kallum_motion_pilot,2023.2.2,Win32,59.17159763,5e938e072a4ce9077f8157b9,65d6bb0e977760de756971f7,65d6bd46994906782921cd9b,0.1255,0.1257,0,112,112,70,1,fourtwo,,,,,,,,,,,,,,,,,,,,,,,,,,,,,,,,,,,,,,,,,,,,,,,,,,,,,,,,,,,,,,,,,,,,,,,,,,,,,,,,,,,,,,,,,,,,,,,,,,,,,,,,,,,,,,,,,,,,,,,,,,,,,,,,,,,,,,,,,
,,5e938e072a4ce9077f8157b9,2024-02-21_21h20.49.995,kallum_motion_pilot,2023.2.2,Win32,59.17159763,5e938e072a4ce9077f8157b9,65d6bb0e977760de756971f7,65d6bd46994906782921cd9b,0.1259,0.126,0,113,113,121,1,fiveseven,,,,,,,,,,,,,,,,,,,,,,,,,,,,,,,,,,,,,,,,,,,,,,,,,,,,,,,,,,,,,,,,,,,,,,,,,,,,,,,,,,,,,,,,,,,,,,,,,,,,,,,,,,,,,,,,,,,,,,,,,,,,,,,,,,,,,,,,,
,,5e938e072a4ce9077f8157b9,2024-02-21_21h20.49.995,kallum_motion_pilot,2023.2.2,Win32,59.17159763,5e938e072a4ce9077f8157b9,65d6bb0e977760de756971f7,65d6bd46994906782921cd9b,0.1262,0.1264,0,114,114,43,1,twofour,,,,,,,,,,,,,,,,,,,,,,,,,,,,,,,,,,,,,,,,,,,,,,,,,,,,,,,,,,,,,,,,,,,,,,,,,,,,,,,,,,,,,,,,,,,,,,,,,,,,,,,,,,,,,,,,,,,,,,,,,,,,,,,,,,,,,,,,,
,,5e938e072a4ce9077f8157b9,2024-02-21_21h20.49.995,kallum_motion_pilot,2023.2.2,Win32,59.17159763,5e938e072a4ce9077f8157b9,65d6bb0e977760de756971f7,65d6bd46994906782921cd9b,0.1266,0.1267,0,115,115,49,1,onethree,,,,,,,,,,,,,,,,,,,,,,,,,,,,,,,,,,,,,,,,,,,,,,,,,,,,,,,,,,,,,,,,,,,,,,,,,,,,,,,,,,,,,,,,,,,,,,,,,,,,,,,,,,,,,,,,,,,,,,,,,,,,,,,,,,,,,,,,,
,,5e938e072a4ce9077f8157b9,2024-02-21_21h20.49.995,kallum_motion_pilot,2023.2.2,Win32,59.17159763,5e938e072a4ce9077f8157b9,65d6bb0e977760de756971f7,65d6bd46994906782921cd9b,0.1271,0.1273,0,116,116,80,1,fivesix,,,,,,,,,,,,,,,,,,,,,,,,,,,,,,,,,,,,,,,,,,,,,,,,,,,,,,,,,,,,,,,,,,,,,,,,,,,,,,,,,,,,,,,,,,,,,,,,,,,,,,,,,,,,,,,,,,,,,,,,,,,,,,,,,,,,,,,,,
,,5e938e072a4ce9077f8157b9,2024-02-21_21h20.49.995,kallum_motion_pilot,2023.2.2,Win32,59.17159763,5e938e072a4ce9077f8157b9,65d6bb0e977760de756971f7,65d6bd46994906782921cd9b,0.1277,0.1278,0,117,117,57,1,onethree,,,,,,,,,,,,,,,,,,,,,,,,,,,,,,,,,,,,,,,,,,,,,,,,,,,,,,,,,,,,,,,,,,,,,,,,,,,,,,,,,,,,,,,,,,,,,,,,,,,,,,,,,,,,,,,,,,,,,,,,,,,,,,,,,,,,,,,,,
,,5e938e072a4ce9077f8157b9,2024-02-21_21h20.49.995,kallum_motion_pilot,2023.2.2,Win32,59.17159763,5e938e072a4ce9077f8157b9,65d6bb0e977760de756971f7,65d6bd46994906782921cd9b,0.1281,0.1283,0,118,118,62,1,fourtwo,,,,,,,,,,,,,,,,,,,,,,,,,,,,,,,,,,,,,,,,,,,,,,,,,,,,,,,,,,,,,,,,,,,,,,,,,,,,,,,,,,,,,,,,,,,,,,,,,,,,,,,,,,,,,,,,,,,,,,,,,,,,,,,,,,,,,,,,,
,,5e938e072a4ce9077f8157b9,2024-02-21_21h20.49.995,kallum_motion_pilot,2023.2.2,Win32,59.17159763,5e938e072a4ce9077f8157b9,65d6bb0e977760de756971f7,65d6bd46994906782921cd9b,0.1286,0.1288,0,119,119,77,1,threefour,,,,,,,,,,,,,,,,,,,,,,,,,,,,,,,,,,,,,,,,,,,,,,,,,,,,,,,,,,,,,,,,,,,,,,,,,,,,,,,,,,,,,,,,,,,,,,,,,,,,,,,,,,,,,,,,,,,,,,,,,,,,,,,,,,,,,,,,,
,,5e938e072a4ce9077f8157b9,2024-02-21_21h20.49.995,kallum_motion_pilot,2023.2.2,Win32,59.17159763,5e938e072a4ce9077f8157b9,65d6bb0e977760de756971f7,65d6bd46994906782921cd9b,0.129,0.1292,0,120,120,27,1,twofour,,,,,,,,,,,,,,,,,,,,,,,,,,,,,,,,,,,,,,,,,,,,,,,,,,,,,,,,,,,,,,,,,,,,,,,,,,,,,,,,,,,,,,,,,,,,,,,,,,,,,,,,,,,,,,,,,,,,,,,,,,,,,,,,,,,,,,,,,
,,5e938e072a4ce9077f8157b9,2024-02-21_21h20.49.995,kallum_motion_pilot,2023.2.2,Win32,59.17159763,5e938e072a4ce9077f8157b9,65d6bb0e977760de756971f7,65d6bd46994906782921cd9b,0.1294,0.1296,0,121,121,84,1,sevenfive,,,,,,,,,,,,,,,,,,,,,,,,,,,,,,,,,,,,,,,,,,,,,,,,,,,,,,,,,,,,,,,,,,,,,,,,,,,,,,,,,,,,,,,,,,,,,,,,,,,,,,,,,,,,,,,,,,,,,,,,,,,,,,,,,,,,,,,,,
,,5e938e072a4ce9077f8157b9,2024-02-21_21h20.49.995,kallum_motion_pilot,2023.2.2,Win32,59.17159763,5e938e072a4ce9077f8157b9,65d6bb0e977760de756971f7,65d6bd46994906782921cd9b,0.1298,0.1299,0,122,122,6,1,fourtwo,,,,,,,,,,,,,,,,,,,,,,,,,,,,,,,,,,,,,,,,,,,,,,,,,,,,,,,,,,,,,,,,,,,,,,,,,,,,,,,,,,,,,,,,,,,,,,,,,,,,,,,,,,,,,,,,,,,,,,,,,,,,,,,,,,,,,,,,,
,,5e938e072a4ce9077f8157b9,2024-02-21_21h20.49.995,kallum_motion_pilot,2023.2.2,Win32,59.17159763,5e938e072a4ce9077f8157b9,65d6bb0e977760de756971f7,65d6bd46994906782921cd9b,0.1303,0.1304,0,123,123,33,1,onethree,,,,,,,,,,,,,,,,,,,,,,,,,,,,,,,,,,,,,,,,,,,,,,,,,,,,,,,,,,,,,,,,,,,,,,,,,,,,,,,,,,,,,,,,,,,,,,,,,,,,,,,,,,,,,,,,,,,,,,,,,,,,,,,,,,,,,,,,,
,,5e938e072a4ce9077f8157b9,2024-02-21_21h20.49.995,kallum_motion_pilot,2023.2.2,Win32,59.17159763,5e938e072a4ce9077f8157b9,65d6bb0e977760de756971f7,65d6bd46994906782921cd9b,0.1307,0.1309,0,124,124,40,1,onetwo,,,,,,,,,,,,,,,,,,,,,,,,,,,,,,,,,,,,,,,,,,,,,,,,,,,,,,,,,,,,,,,,,,,,,,,,,,,,,,,,,,,,,,,,,,,,,,,,,,,,,,,,,,,,,,,,,,,,,,,,,,,,,,,,,,,,,,,,,
,,5e938e072a4ce9077f8157b9,2024-02-21_21h20.49.995,kallum_motion_pilot,2023.2.2,Win32,59.17159763,5e938e072a4ce9077f8157b9,65d6bb0e977760de756971f7,65d6bd46994906782921cd9b,0.1312,0.1314,0,125,125,148,1,sevenfive,,,,,,,,,,,,,,,,,,,,,,,,,,,,,,,,,,,,,,,,,,,,,,,,,,,,,,,,,,,,,,,,,,,,,,,,,,,,,,,,,,,,,,,,,,,,,,,,,,,,,,,,,,,,,,,,,,,,,,,,,,,,,,,,,,,,,,,,,
,,5e938e072a4ce9077f8157b9,2024-02-21_21h20.49.995,kallum_motion_pilot,2023.2.2,Win32,59.17159763,5e938e072a4ce9077f8157b9,65d6bb0e977760de756971f7,65d6bd46994906782921cd9b,0.1316,0.1317,0,126,126,71,1,fourthree,,,,,,,,,,,,,,,,,,,,,,,,,,,,,,,,,,,,,,,,,,,,,,,,,,,,,,,,,,,,,,,,,,,,,,,,,,,,,,,,,,,,,,,,,,,,,,,,,,,,,,,,,,,,,,,,,,,,,,,,,,,,,,,,,,,,,,,,,
,,5e938e072a4ce9077f8157b9,2024-02-21_21h20.49.995,kallum_motion_pilot,2023.2.2,Win32,59.17159763,5e938e072a4ce9077f8157b9,65d6bb0e977760de756971f7,65d6bd46994906782921cd9b,0.132,0.1322,0,127,127,109,1,seveneight,,,,,,,,,,,,,,,,,,,,,,,,,,,,,,,,,,,,,,,,,,,,,,,,,,,,,,,,,,,,,,,,,,,,,,,,,,,,,,,,,,,,,,,,,,,,,,,,,,,,,,,,,,,,,,,,,,,,,,,,,,,,,,,,,,,,,,,,,
,,5e938e072a4ce9077f8157b9,2024-02-21_21h20.49.995,kallum_motion_pilot,2023.2.2,Win32,59.17159763,5e938e072a4ce9077f8157b9,65d6bb0e977760de756971f7,65d6bd46994906782921cd9b,0.1325,0.1327,0,128,128,99,1,sixeight,,,,,,,,,,,,,,,,,,,,,,,,,,,,,,,,,,,,,,,,,,,,,,,,,,,,,,,,,,,,,,,,,,,,,,,,,,,,,,,,,,,,,,,,,,,,,,,,,,,,,,,,,,,,,,,,,,,,,,,,,,,,,,,,,,,,,,,,,
,,5e938e072a4ce9077f8157b9,2024-02-21_21h20.49.995,kallum_motion_pilot,2023.2.2,Win32,59.17159763,5e938e072a4ce9077f8157b9,65d6bb0e977760de756971f7,65d6bd46994906782921cd9b,0.133,0.1331,0,129,129,4,1,threeone,,,,,,,,,,,,,,,,,,,,,,,,,,,,,,,,,,,,,,,,,,,,,,,,,,,,,,,,,,,,,,,,,,,,,,,,,,,,,,,,,,,,,,,,,,,,,,,,,,,,,,,,,,,,,,,,,,,,,,,,,,,,,,,,,,,,,,,,,
,,5e938e072a4ce9077f8157b9,2024-02-21_21h20.49.995,kallum_motion_pilot,2023.2.2,Win32,59.17159763,5e938e072a4ce9077f8157b9,65d6bb0e977760de756971f7,65d6bd46994906782921cd9b,0.1334,0.1336,0,130,130,78,1,fourtwo,,,,,,,,,,,,,,,,,,,,,,,,,,,,,,,,,,,,,,,,,,,,,,,,,,,,,,,,,,,,,,,,,,,,,,,,,,,,,,,,,,,,,,,,,,,,,,,,,,,,,,,,,,,,,,,,,,,,,,,,,,,,,,,,,,,,,,,,,
,,5e938e072a4ce9077f8157b9,2024-02-21_21h20.49.995,kallum_motion_pilot,2023.2.2,Win32,59.17159763,5e938e072a4ce9077f8157b9,65d6bb0e977760de756971f7,65d6bd46994906782921cd9b,0.1339,0.134,0,131,131,0,1,onetwo,,,,,,,,,,,,,,,,,,,,,,,,,,,,,,,,,,,,,,,,,,,,,,,,,,,,,,,,,,,,,,,,,,,,,,,,,,,,,,,,,,,,,,,,,,,,,,,,,,,,,,,,,,,,,,,,,,,,,,,,,,,,,,,,,,,,,,,,,
,,5e938e072a4ce9077f8157b9,2024-02-21_21h20.49.995,kallum_motion_pilot,2023.2.2,Win32,59.17159763,5e938e072a4ce9077f8157b9,65d6bb0e977760de756971f7,65d6bd46994906782921cd9b,0.1342,0.1345,0,132,132,145,1,fiveseven,,,,,,,,,,,,,,,,,,,,,,,,,,,,,,,,,,,,,,,,,,,,,,,,,,,,,,,,,,,,,,,,,,,,,,,,,,,,,,,,,,,,,,,,,,,,,,,,,,,,,,,,,,,,,,,,,,,,,,,,,,,,,,,,,,,,,,,,,
,,5e938e072a4ce9077f8157b9,2024-02-21_21h20.49.995,kallum_motion_pilot,2023.2.2,Win32,59.17159763,5e938e072a4ce9077f8157b9,65d6bb0e977760de756971f7,65d6bd46994906782921cd9b,0.1348,0.1349,0,133,133,94,1,eightsix,,,,,,,,,,,,,,,,,,,,,,,,,,,,,,,,,,,,,,,,,,,,,,,,,,,,,,,,,,,,,,,,,,,,,,,,,,,,,,,,,,,,,,,,,,,,,,,,,,,,,,,,,,,,,,,,,,,,,,,,,,,,,,,,,,,,,,,,,
,,5e938e072a4ce9077f8157b9,2024-02-21_21h20.49.995,kallum_motion_pilot,2023.2.2,Win32,59.17159763,5e938e072a4ce9077f8157b9,65d6bb0e977760de756971f7,65d6bd46994906782921cd9b,0.1353,0.1355,0,134,134,5,1,threefour,,,,,,,,,,,,,,,,,,,,,,,,,,,,,,,,,,,,,,,,,,,,,,,,,,,,,,,,,,,,,,,,,,,,,,,,,,,,,,,,,,,,,,,,,,,,,,,,,,,,,,,,,,,,,,,,,,,,,,,,,,,,,,,,,,,,,,,,,
,,5e938e072a4ce9077f8157b9,2024-02-21_21h20.49.995,kallum_motion_pilot,2023.2.2,Win32,59.17159763,5e938e072a4ce9077f8157b9,65d6bb0e977760de756971f7,65d6bd46994906782921cd9b,0.1359,0.136,0,135,135,39,1,fourthree,,,,,,,,,,,,,,,,,,,,,,,,,,,,,,,,,,,,,,,,,,,,,,,,,,,,,,,,,,,,,,,,,,,,,,,,,,,,,,,,,,,,,,,,,,,,,,,,,,,,,,,,,,,,,,,,,,,,,,,,,,,,,,,,,,,,,,,,,
,,5e938e072a4ce9077f8157b9,2024-02-21_21h20.49.995,kallum_motion_pilot,2023.2.2,Win32,59.17159763,5e938e072a4ce9077f8157b9,65d6bb0e977760de756971f7,65d6bd46994906782921cd9b,0.1363,0.1365,0,136,136,158,1,eightsix,,,,,,,,,,,,,,,,,,,,,,,,,,,,,,,,,,,,,,,,,,,,,,,,,,,,,,,,,,,,,,,,,,,,,,,,,,,,,,,,,,,,,,,,,,,,,,,,,,,,,,,,,,,,,,,,,,,,,,,,,,,,,,,,,,,,,,,,,
,,5e938e072a4ce9077f8157b9,2024-02-21_21h20.49.995,kallum_motion_pilot,2023.2.2,Win32,59.17159763,5e938e072a4ce9077f8157b9,65d6bb0e977760de756971f7,65d6bd46994906782921cd9b,0.1367,0.1368,0,137,137,135,1,eightseven,,,,,,,,,,,,,,,,,,,,,,,,,,,,,,,,,,,,,,,,,,,,,,,,,,,,,,,,,,,,,,,,,,,,,,,,,,,,,,,,,,,,,,,,,,,,,,,,,,,,,,,,,,,,,,,,,,,,,,,,,,,,,,,,,,,,,,,,,
,,5e938e072a4ce9077f8157b9,2024-02-21_21h20.49.995,kallum_motion_pilot,2023.2.2,Win32,59.17159763,5e938e072a4ce9077f8157b9,65d6bb0e977760de756971f7,65d6bd46994906782921cd9b,0.1372,0.1373,0,138,138,19,1,twofour,,,,,,,,,,,,,,,,,,,,,,,,,,,,,,,,,,,,,,,,,,,,,,,,,,,,,,,,,,,,,,,,,,,,,,,,,,,,,,,,,,,,,,,,,,,,,,,,,,,,,,,,,,,,,,,,,,,,,,,,,,,,,,,,,,,,,,,,,
,,5e938e072a4ce9077f8157b9,2024-02-21_21h20.49.995,kallum_motion_pilot,2023.2.2,Win32,59.17159763,5e938e072a4ce9077f8157b9,65d6bb0e977760de756971f7,65d6bd46994906782921cd9b,0.1377,0.1378,0,139,139,96,1,fivesix,,,,,,,,,,,,,,,,,,,,,,,,,,,,,,,,,,,,,,,,,,,,,,,,,,,,,,,,,,,,,,,,,,,,,,,,,,,,,,,,,,,,,,,,,,,,,,,,,,,,,,,,,,,,,,,,,,,,,,,,,,,,,,,,,,,,,,,,,
,,5e938e072a4ce9077f8157b9,2024-02-21_21h20.49.995,kallum_motion_pilot,2023.2.2,Win32,59.17159763,5e938e072a4ce9077f8157b9,65d6bb0e977760de756971f7,65d6bd46994906782921cd9b,0.1381,0.1383,0,140,140,42,1,twoone,,,,,,,,,,,,,,,,,,,,,,,,,,,,,,,,,,,,,,,,,,,,,,,,,,,,,,,,,,,,,,,,,,,,,,,,,,,,,,,,,,,,,,,,,,,,,,,,,,,,,,,,,,,,,,,,,,,,,,,,,,,,,,,,,,,,,,,,,
,,5e938e072a4ce9077f8157b9,2024-02-21_21h20.49.995,kallum_motion_pilot,2023.2.2,Win32,59.17159763,5e938e072a4ce9077f8157b9,65d6bb0e977760de756971f7,65d6bd46994906782921cd9b,0.1385,0.1387,0,141,141,103,1,eightseven,,,,,,,,,,,,,,,,,,,,,,,,,,,,,,,,,,,,,,,,,,,,,,,,,,,,,,,,,,,,,,,,,,,,,,,,,,,,,,,,,,,,,,,,,,,,,,,,,,,,,,,,,,,,,,,,,,,,,,,,,,,,,,,,,,,,,,,,,
,,5e938e072a4ce9077f8157b9,2024-02-21_21h20.49.995,kallum_motion_pilot,2023.2.2,Win32,59.17159763,5e938e072a4ce9077f8157b9,65d6bb0e977760de756971f7,65d6bd46994906782921cd9b,0.1389,0.1391,0,142,142,17,1,onethree,,,,,,,,,,,,,,,,,,,,,,,,,,,,,,,,,,,,,,,,,,,,,,,,,,,,,,,,,,,,,,,,,,,,,,,,,,,,,,,,,,,,,,,,,,,,,,,,,,,,,,,,,,,,,,,,,,,,,,,,,,,,,,,,,,,,,,,,,
,,5e938e072a4ce9077f8157b9,2024-02-21_21h20.49.995,kallum_motion_pilot,2023.2.2,Win32,59.17159763,5e938e072a4ce9077f8157b9,65d6bb0e977760de756971f7,65d6bd46994906782921cd9b,0.1393,0.1394,0,143,143,134,1,eightsix,,,,,,,,,,,,,,,,,,,,,,,,,,,,,,,,,,,,,,,,,,,,,,,,,,,,,,,,,,,,,,,,,,,,,,,,,,,,,,,,,,,,,,,,,,,,,,,,,,,,,,,,,,,,,,,,,,,,,,,,,,,,,,,,,,,,,,,,,
,,5e938e072a4ce9077f8157b9,2024-02-21_21h20.49.995,kallum_motion_pilot,2023.2.2,Win32,59.17159763,5e938e072a4ce9077f8157b9,65d6bb0e977760de756971f7,65d6bd46994906782921cd9b,0.1396,0.1397,0,144,144,147,1,sixeight,,,,,,,,,,,,,,,,,,,,,,,,,,,,,,,,,,,,,,,,,,,,,,,,,,,,,,,,,,,,,,,,,,,,,,,,,,,,,,,,,,,,,,,,,,,,,,,,,,,,,,,,,,,,,,,,,,,,,,,,,,,,,,,,,,,,,,,,,
,,5e938e072a4ce9077f8157b9,2024-02-21_21h20.49.995,kallum_motion_pilot,2023.2.2,Win32,59.17159763,5e938e072a4ce9077f8157b9,65d6bb0e977760de756971f7,65d6bd46994906782921cd9b,0.1398,0.1399,0,145,145,122,1,sixfive,,,,,,,,,,,,,,,,,,,,,,,,,,,,,,,,,,,,,,,,,,,,,,,,,,,,,,,,,,,,,,,,,,,,,,,,,,,,,,,,,,,,,,,,,,,,,,,,,,,,,,,,,,,,,,,,,,,,,,,,,,,,,,,,,,,,,,,,,
,,5e938e072a4ce9077f8157b9,2024-02-21_21h20.49.995,kallum_motion_pilot,2023.2.2,Win32,59.17159763,5e938e072a4ce9077f8157b9,65d6bb0e977760de756971f7,65d6bd46994906782921cd9b,0.1401,0.1403,0,146,146,155,1,sixeight,,,,,,,,,,,,,,,,,,,,,,,,,,,,,,,,,,,,,,,,,,,,,,,,,,,,,,,,,,,,,,,,,,,,,,,,,,,,,,,,,,,,,,,,,,,,,,,,,,,,,,,,,,,,,,,,,,,,,,,,,,,,,,,,,,,,,,,,,
,,5e938e072a4ce9077f8157b9,2024-02-21_21h20.49.995,kallum_motion_pilot,2023.2.2,Win32,59.17159763,5e938e072a4ce9077f8157b9,65d6bb0e977760de756971f7,65d6bd46994906782921cd9b,0.1404,0.1405,0,147,147,111,1,eightseven,,,,,,,,,,,,,,,,,,,,,,,,,,,,,,,,,,,,,,,,,,,,,,,,,,,,,,,,,,,,,,,,,,,,,,,,,,,,,,,,,,,,,,,,,,,,,,,,,,,,,,,,,,,,,,,,,,,,,,,,,,,,,,,,,,,,,,,,,
,,5e938e072a4ce9077f8157b9,2024-02-21_21h20.49.995,kallum_motion_pilot,2023.2.2,Win32,59.17159763,5e938e072a4ce9077f8157b9,65d6bb0e977760de756971f7,65d6bd46994906782921cd9b,0.1406,0.1408,0,148,148,136,1,fivesix,,,,,,,,,,,,,,,,,,,,,,,,,,,,,,,,,,,,,,,,,,,,,,,,,,,,,,,,,,,,,,,,,,,,,,,,,,,,,,,,,,,,,,,,,,,,,,,,,,,,,,,,,,,,,,,,,,,,,,,,,,,,,,,,,,,,,,,,,
,,5e938e072a4ce9077f8157b9,2024-02-21_21h20.49.995,kallum_motion_pilot,2023.2.2,Win32,59.17159763,5e938e072a4ce9077f8157b9,65d6bb0e977760de756971f7,65d6bd46994906782921cd9b,0.141,0.1411,0,149,149,18,1,twoone,,,,,,,,,,,,,,,,,,,,,,,,,,,,,,,,,,,,,,,,,,,,,,,,,,,,,,,,,,,,,,,,,,,,,,,,,,,,,,,,,,,,,,,,,,,,,,,,,,,,,,,,,,,,,,,,,,,,,,,,,,,,,,,,,,,,,,,,,
,,5e938e072a4ce9077f8157b9,2024-02-21_21h20.49.995,kallum_motion_pilot,2023.2.2,Win32,59.17159763,5e938e072a4ce9077f8157b9,65d6bb0e977760de756971f7,65d6bd46994906782921cd9b,0.1411,0.1412,0,150,150,104,1,fivesix,,,,,,,,,,,,,,,,,,,,,,,,,,,,,,,,,,,,,,,,,,,,,,,,,,,,,,,,,,,,,,,,,,,,,,,,,,,,,,,,,,,,,,,,,,,,,,,,,,,,,,,,,,,,,,,,,,,,,,,,,,,,,,,,,,,,,,,,,
,,5e938e072a4ce9077f8157b9,2024-02-21_21h20.49.995,kallum_motion_pilot,2023.2.2,Win32,59.17159763,5e938e072a4ce9077f8157b9,65d6bb0e977760de756971f7,65d6bd46994906782921cd9b,0.1414,0.1415,0,151,151,35,1,twofour,,,,,,,,,,,,,,,,,,,,,,,,,,,,,,,,,,,,,,,,,,,,,,,,,,,,,,,,,,,,,,,,,,,,,,,,,,,,,,,,,,,,,,,,,,,,,,,,,,,,,,,,,,,,,,,,,,,,,,,,,,,,,,,,,,,,,,,,,
,,5e938e072a4ce9077f8157b9,2024-02-21_21h20.49.995,kallum_motion_pilot,2023.2.2,Win32,59.17159763,5e938e072a4ce9077f8157b9,65d6bb0e977760de756971f7,65d6bd46994906782921cd9b,0.1416,0.1417,0,152,152,118,1,eightsix,,,,,,,,,,,,,,,,,,,,,,,,,,,,,,,,,,,,,,,,,,,,,,,,,,,,,,,,,,,,,,,,,,,,,,,,,,,,,,,,,,,,,,,,,,,,,,,,,,,,,,,,,,,,,,,,,,,,,,,,,,,,,,,,,,,,,,,,,
,,5e938e072a4ce9077f8157b9,2024-02-21_21h20.49.995,kallum_motion_pilot,2023.2.2,Win32,59.17159763,5e938e072a4ce9077f8157b9,65d6bb0e977760de756971f7,65d6bd46994906782921cd9b,0.1418,0.1419,0,153,153,151,1,eightseven,,,,,,,,,,,,,,,,,,,,,,,,,,,,,,,,,,,,,,,,,,,,,,,,,,,,,,,,,,,,,,,,,,,,,,,,,,,,,,,,,,,,,,,,,,,,,,,,,,,,,,,,,,,,,,,,,,,,,,,,,,,,,,,,,,,,,,,,,
,,5e938e072a4ce9077f8157b9,2024-02-21_21h20.49.995,kallum_motion_pilot,2023.2.2,Win32,59.17159763,5e938e072a4ce9077f8157b9,65d6bb0e977760de756971f7,65d6bd46994906782921cd9b,0.1428,0.1429,0,154,154,105,1,fiveseven,,,,,,,,,,,,,,,,,,,,,,,,,,,,,,,,,,,,,,,,,,,,,,,,,,,,,,,,,,,,,,,,,,,,,,,,,,,,,,,,,,,,,,,,,,,,,,,,,,,,,,,,,,,,,,,,,,,,,,,,,,,,,,,,,,,,,,,,,
,,5e938e072a4ce9077f8157b9,2024-02-21_21h20.49.995,kallum_motion_pilot,2023.2.2,Win32,59.17159763,5e938e072a4ce9077f8157b9,65d6bb0e977760de756971f7,65d6bd46994906782921cd9b,0.1432,0.1433,0,155,155,47,1,fourthree,,,,,,,,,,,,,,,,,,,,,,,,,,,,,,,,,,,,,,,,,,,,,,,,,,,,,,,,,,,,,,,,,,,,,,,,,,,,,,,,,,,,,,,,,,,,,,,,,,,,,,,,,,,,,,,,,,,,,,,,,,,,,,,,,,,,,,,,,
,,5e938e072a4ce9077f8157b9,2024-02-21_21h20.49.995,kallum_motion_pilot,2023.2.2,Win32,59.17159763,5e938e072a4ce9077f8157b9,65d6bb0e977760de756971f7,65d6bd46994906782921cd9b,0.1435,0.1437,0,156,156,76,1,threeone,,,,,,,,,,,,,,,,,,,,,,,,,,,,,,,,,,,,,,,,,,,,,,,,,,,,,,,,,,,,,,,,,,,,,,,,,,,,,,,,,,,,,,,,,,,,,,,,,,,,,,,,,,,,,,,,,,,,,,,,,,,,,,,,,,,,,,,,,
,,5e938e072a4ce9077f8157b9,2024-02-21_21h20.49.995,kallum_motion_pilot,2023.2.2,Win32,59.17159763,5e938e072a4ce9077f8157b9,65d6bb0e977760de756971f7,65d6bd46994906782921cd9b,0.1438,0.1439,0,157,157,13,1,threefour,,,,,,,,,,,,,,,,,,,,,,,,,,,,,,,,,,,,,,,,,,,,,,,,,,,,,,,,,,,,,,,,,,,,,,,,,,,,,,,,,,,,,,,,,,,,,,,,,,,,,,,,,,,,,,,,,,,,,,,,,,,,,,,,,,,,,,,,,
,,5e938e072a4ce9077f8157b9,2024-02-21_21h20.49.995,kallum_motion_pilot,2023.2.2,Win32,59.17159763,5e938e072a4ce9077f8157b9,65d6bb0e977760de756971f7,65d6bd46994906782921cd9b,0.1441,0.1442,0,158,158,154,1,sixfive,,,,,,,,,,,,,,,,,,,,,,,,,,,,,,,,,,,,,,,,,,,,,,,,,,,,,,,,,,,,,,,,,,,,,,,,,,,,,,,,,,,,,,,,,,,,,,,,,,,,,,,,,,,,,,,,,,,,,,,,,,,,,,,,,,,,,,,,,
,,5e938e072a4ce9077f8157b9,2024-02-21_21h20.49.995,kallum_motion_pilot,2023.2.2,Win32,59.17159763,5e938e072a4ce9077f8157b9,65d6bb0e977760de756971f7,65d6bd46994906782921cd9b,0.1443,0.1445,0,159,159,21,1,threefour,,,,,,,,,,,,,,,,,,,,,,,,,,,,,,,,,,,,,,,,,,,,,,,,,,,,,,,,,,,,,,,,,,,,,,,,,,,,,,,,,,,,,,,,,,,,,,,,,,,,,,,,,,,,,,,,,,,,,,,,,,,,,,,,,,,,,,,,,
,,5e938e072a4ce9077f8157b9,2024-02-21_21h20.49.995,kallum_motion_pilot,2023.2.2,Win32,59.17159763,5e938e072a4ce9077f8157b9,65d6bb0e977760de756971f7,65d6bd46994906782921cd9b,0.1446,0.1447,0,160,160,28,1,threeone,,,,,,,,,,,,,,,,,,,,,,,,,,,,,,,,,,,,,,,,,,,,,,,,,,,,,,,,,,,,,,,,,,,,,,,,,,,,,,,,,,,,,,,,,,,,,,,,,,,,,,,,,,,,,,,,,,,,,,,,,,,,,,,,,,,,,,,,,
,,5e938e072a4ce9077f8157b9,2024-02-21_21h20.49.995,kallum_motion_pilot,2023.2.2,Win32,59.17159763,5e938e072a4ce9077f8157b9,65d6bb0e977760de756971f7,65d6bd46994906782921cd9b,0.1448,0.1449,0,161,161,119,1,eightseven,,,,,,,,,,,,,,,,,,,,,,,,,,,,,,,,,,,,,,,,,,,,,,,,,,,,,,,,,,,,,,,,,,,,,,,,,,,,,,,,,,,,,,,,,,,,,,,,,,,,,,,,,,,,,,,,,,,,,,,,,,,,,,,,,,,,,,,,,
,,5e938e072a4ce9077f8157b9,2024-02-21_21h20.49.995,kallum_motion_pilot,2023.2.2,Win32,59.17159763,5e938e072a4ce9077f8157b9,65d6bb0e977760de756971f7,65d6bd46994906782921cd9b,0.145,0.1452,1,0,162,101,1,seveneight,,,,,,,,,,,,,,,,,,,,,,,,,,,,,,,,,,,,,,,,,,,,,,,,,,,,,,,,,,,,,,,,,,,,,,,,,,,,,,,,,,,,,,,,,,,,,,,,,,,,,,,,,,,,,,,,,,,,,,,,,,,,,,,,,,,,,,,,,
,,5e938e072a4ce9077f8157b9,2024-02-21_21h20.49.995,kallum_motion_pilot,2023.2.2,Win32,59.17159763,5e938e072a4ce9077f8157b9,65d6bb0e977760de756971f7,65d6bd46994906782921cd9b,0.1454,0.1455,1,1,163,146,1,sixfive,,,,,,,,,,,,,,,,,,,,,,,,,,,,,,,,,,,,,,,,,,,,,,,,,,,,,,,,,,,,,,,,,,,,,,,,,,,,,,,,,,,,,,,,,,,,,,,,,,,,,,,,,,,,,,,,,,,,,,,,,,,,,,,,,,,,,,,,,
,,5e938e072a4ce9077f8157b9,2024-02-21_21h20.49.995,kallum_motion_pilot,2023.2.2,Win32,59.17159763,5e938e072a4ce9077f8157b9,65d6bb0e977760de756971f7,65d6bd46994906782921cd9b,0.1457,0.1458,1,2,164,129,1,fiveseven,,,,,,,,,,,,,,,,,,,,,,,,,,,,,,,,,,,,,,,,,,,,,,,,,,,,,,,,,,,,,,,,,,,,,,,,,,,,,,,,,,,,,,,,,,,,,,,,,,,,,,,,,,,,,,,,,,,,,,,,,,,,,,,,,,,,,,,,,
,,5e938e072a4ce9077f8157b9,2024-02-21_21h20.49.995,kallum_motion_pilot,2023.2.2,Win32,59.17159763,5e938e072a4ce9077f8157b9,65d6bb0e977760de756971f7,65d6bd46994906782921cd9b,0.146,0.1462,1,3,165,115,1,sixeight,,,,,,,,,,,,,,,,,,,,,,,,,,,,,,,,,,,,,,,,,,,,,,,,,,,,,,,,,,,,,,,,,,,,,,,,,,,,,,,,,,,,,,,,,,,,,,,,,,,,,,,,,,,,,,,,,,,,,,,,,,,,,,,,,,,,,,,,,
,,5e938e072a4ce9077f8157b9,2024-02-21_21h20.49.995,kallum_motion_pilot,2023.2.2,Win32,59.17159763,5e938e072a4ce9077f8157b9,65d6bb0e977760de756971f7,65d6bd46994906782921cd9b,0.1464,0.1465,1,4,166,151,1,eightseven,,,,,,,,,,,,,,,,,,,,,,,,,,,,,,,,,,,,,,,,,,,,,,,,,,,,,,,,,,,,,,,,,,,,,,,,,,,,,,,,,,,,,,,,,,,,,,,,,,,,,,,,,,,,,,,,,,,,,,,,,,,,,,,,,,,,,,,,,
,,5e938e072a4ce9077f8157b9,2024-02-21_21h20.49.995,kallum_motion_pilot,2023.2.2,Win32,59.17159763,5e938e072a4ce9077f8157b9,65d6bb0e977760de756971f7,65d6bd46994906782921cd9b,0.1466,0.1468,1,5,167,78,1,fourtwo,,,,,,,,,,,,,,,,,,,,,,,,,,,,,,,,,,,,,,,,,,,,,,,,,,,,,,,,,,,,,,,,,,,,,,,,,,,,,,,,,,,,,,,,,,,,,,,,,,,,,,,,,,,,,,,,,,,,,,,,,,,,,,,,,,,,,,,,,
,,5e938e072a4ce9077f8157b9,2024-02-21_21h20.49.995,kallum_motion_pilot,2023.2.2,Win32,59.17159763,5e938e072a4ce9077f8157b9,65d6bb0e977760de756971f7,65d6bd46994906782921cd9b,0.1469,0.1472,1,6,168,154,1,sixfive,,,,,,,,,,,,,,,,,,,,,,,,,,,,,,,,,,,,,,,,,,,,,,,,,,,,,,,,,,,,,,,,,,,,,,,,,,,,,,,,,,,,,,,,,,,,,,,,,,,,,,,,,,,,,,,,,,,,,,,,,,,,,,,,,,,,,,,,,
,,5e938e072a4ce9077f8157b9,2024-02-21_21h20.49.995,kallum_motion_pilot,2023.2.2,Win32,59.17159763,5e938e072a4ce9077f8157b9,65d6bb0e977760de756971f7,65d6bd46994906782921cd9b,0.1473,0.1474,1,7,169,157,1,seveneight,,,,,,,,,,,,,,,,,,,,,,,,,,,,,,,,,,,,,,,,,,,,,,,,,,,,,,,,,,,,,,,,,,,,,,,,,,,,,,,,,,,,,,,,,,,,,,,,,,,,,,,,,,,,,,,,,,,,,,,,,,,,,,,,,,,,,,,,,
,,5e938e072a4ce9077f8157b9,2024-02-21_21h20.49.995,kallum_motion_pilot,2023.2.2,Win32,59.17159763,5e938e072a4ce9077f8157b9,65d6bb0e977760de756971f7,65d6bd46994906782921cd9b,0.1476,0.1478,1,8,170,104,1,fivesix,,,,,,,,,,,,,,,,,,,,,,,,,,,,,,,,,,,,,,,,,,,,,,,,,,,,,,,,,,,,,,,,,,,,,,,,,,,,,,,,,,,,,,,,,,,,,,,,,,,,,,,,,,,,,,,,,,,,,,,,,,,,,,,,,,,,,,,,,
,,5e938e072a4ce9077f8157b9,2024-02-21_21h20.49.995,kallum_motion_pilot,2023.2.2,Win32,59.17159763,5e938e072a4ce9077f8157b9,65d6bb0e977760de756971f7,65d6bd46994906782921cd9b,0.148,0.1482,1,9,171,123,1,sixeight,,,,,,,,,,,,,,,,,,,,,,,,,,,,,,,,,,,,,,,,,,,,,,,,,,,,,,,,,,,,,,,,,,,,,,,,,,,,,,,,,,,,,,,,,,,,,,,,,,,,,,,,,,,,,,,,,,,,,,,,,,,,,,,,,,,,,,,,,
,,5e938e072a4ce9077f8157b9,2024-02-21_21h20.49.995,kallum_motion_pilot,2023.2.2,Win32,59.17159763,5e938e072a4ce9077f8157b9,65d6bb0e977760de756971f7,65d6bd46994906782921cd9b,0.1483,0.1486,1,10,172,88,1,fivesix,,,,,,,,,,,,,,,,,,,,,,,,,,,,,,,,,,,,,,,,,,,,,,,,,,,,,,,,,,,,,,,,,,,,,,,,,,,,,,,,,,,,,,,,,,,,,,,,,,,,,,,,,,,,,,,,,,,,,,,,,,,,,,,,,,,,,,,,,
,,5e938e072a4ce9077f8157b9,2024-02-21_21h20.49.995,kallum_motion_pilot,2023.2.2,Win32,59.17159763,5e938e072a4ce9077f8157b9,65d6bb0e977760de756971f7,65d6bd46994906782921cd9b,0.1488,0.1489,1,11,173,57,1,onethree,,,,,,,,,,,,,,,,,,,,,,,,,,,,,,,,,,,,,,,,,,,,,,,,,,,,,,,,,,,,,,,,,,,,,,,,,,,,,,,,,,,,,,,,,,,,,,,,,,,,,,,,,,,,,,,,,,,,,,,,,,,,,,,,,,,,,,,,,
,,5e938e072a4ce9077f8157b9,2024-02-21_21h20.49.995,kallum_motion_pilot,2023.2.2,Win32,59.17159763,5e938e072a4ce9077f8157b9,65d6bb0e977760de756971f7,65d6bd46994906782921cd9b,0.149,0.1493,1,12,174,34,1,twoone,,,,,,,,,,,,,,,,,,,,,,,,,,,,,,,,,,,,,,,,,,,,,,,,,,,,,,,,,,,,,,,,,,,,,,,,,,,,,,,,,,,,,,,,,,,,,,,,,,,,,,,,,,,,,,,,,,,,,,,,,,,,,,,,,,,,,,,,,
,,5e938e072a4ce9077f8157b9,2024-02-21_21h20.49.995,kallum_motion_pilot,2023.2.2,Win32,59.17159763,5e938e072a4ce9077f8157b9,65d6bb0e977760de756971f7,65d6bd46994906782921cd9b,0.1495,0.1495,1,13,175,76,1,threeone,,,,,,,,,,,,,,,,,,,,,,,,,,,,,,,,,,,,,,,,,,,,,,,,,,,,,,,,,,,,,,,,,,,,,,,,,,,,,,,,,,,,,,,,,,,,,,,,,,,,,,,,,,,,,,,,,,,,,,,,,,,,,,,,,,,,,,,,,
,,5e938e072a4ce9077f8157b9,2024-02-21_21h20.49.995,kallum_motion_pilot,2023.2.2,Win32,59.17159763,5e938e072a4ce9077f8157b9,65d6bb0e977760de756971f7,65d6bd46994906782921cd9b,0.1497,0.1498,1,14,176,108,1,sevenfive,,,,,,,,,,,,,,,,,,,,,,,,,,,,,,,,,,,,,,,,,,,,,,,,,,,,,,,,,,,,,,,,,,,,,,,,,,,,,,,,,,,,,,,,,,,,,,,,,,,,,,,,,,,,,,,,,,,,,,,,,,,,,,,,,,,,,,,,,
,,5e938e072a4ce9077f8157b9,2024-02-21_21h20.49.995,kallum_motion_pilot,2023.2.2,Win32,59.17159763,5e938e072a4ce9077f8157b9,65d6bb0e977760de756971f7,65d6bd46994906782921cd9b,0.15,0.1501,1,15,177,50,1,twoone,,,,,,,,,,,,,,,,,,,,,,,,,,,,,,,,,,,,,,,,,,,,,,,,,,,,,,,,,,,,,,,,,,,,,,,,,,,,,,,,,,,,,,,,,,,,,,,,,,,,,,,,,,,,,,,,,,,,,,,,,,,,,,,,,,,,,,,,,
,,5e938e072a4ce9077f8157b9,2024-02-21_21h20.49.995,kallum_motion_pilot,2023.2.2,Win32,59.17159763,5e938e072a4ce9077f8157b9,65d6bb0e977760de756971f7,65d6bd46994906782921cd9b,0.1502,0.1505,1,16,178,23,1,fourthree,,,,,,,,,,,,,,,,,,,,,,,,,,,,,,,,,,,,,,,,,,,,,,,,,,,,,,,,,,,,,,,,,,,,,,,,,,,,,,,,,,,,,,,,,,,,,,,,,,,,,,,,,,,,,,,,,,,,,,,,,,,,,,,,,,,,,,,,,
,,5e938e072a4ce9077f8157b9,2024-02-21_21h20.49.995,kallum_motion_pilot,2023.2.2,Win32,59.17159763,5e938e072a4ce9077f8157b9,65d6bb0e977760de756971f7,65d6bd46994906782921cd9b,0.1506,0.1507,1,17,179,46,1,fourtwo,,,,,,,,,,,,,,,,,,,,,,,,,,,,,,,,,,,,,,,,,,,,,,,,,,,,,,,,,,,,,,,,,,,,,,,,,,,,,,,,,,,,,,,,,,,,,,,,,,,,,,,,,,,,,,,,,,,,,,,,,,,,,,,,,,,,,,,,,
,,5e938e072a4ce9077f8157b9,2024-02-21_21h20.49.995,kallum_motion_pilot,2023.2.2,Win32,59.17159763,5e938e072a4ce9077f8157b9,65d6bb0e977760de756971f7,65d6bd46994906782921cd9b,0.1508,0.151,1,18,180,130,1,sixfive,,,,,,,,,,,,,,,,,,,,,,,,,,,,,,,,,,,,,,,,,,,,,,,,,,,,,,,,,,,,,,,,,,,,,,,,,,,,,,,,,,,,,,,,,,,,,,,,,,,,,,,,,,,,,,,,,,,,,,,,,,,,,,,,,,,,,,,,,
,,5e938e072a4ce9077f8157b9,2024-02-21_21h20.49.995,kallum_motion_pilot,2023.2.2,Win32,59.17159763,5e938e072a4ce9077f8157b9,65d6bb0e977760de756971f7,65d6bd46994906782921cd9b,0.1512,0.1514,1,19,181,160,1,fivesix,,,,,,,,,,,,,,,,,,,,,,,,,,,,,,,,,,,,,,,,,,,,,,,,,,,,,,,,,,,,,,,,,,,,,,,,,,,,,,,,,,,,,,,,,,,,,,,,,,,,,,,,,,,,,,,,,,,,,,,,,,,,,,,,,,,,,,,,,
,,5e938e072a4ce9077f8157b9,2024-02-21_21h20.49.995,kallum_motion_pilot,2023.2.2,Win32,59.17159763,5e938e072a4ce9077f8157b9,65d6bb0e977760de756971f7,65d6bd46994906782921cd9b,0.1518,0.1521,1,20,182,40,1,onetwo,,,,,,,,,,,,,,,,,,,,,,,,,,,,,,,,,,,,,,,,,,,,,,,,,,,,,,,,,,,,,,,,,,,,,,,,,,,,,,,,,,,,,,,,,,,,,,,,,,,,,,,,,,,,,,,,,,,,,,,,,,,,,,,,,,,,,,,,,
,,5e938e072a4ce9077f8157b9,2024-02-21_21h20.49.995,kallum_motion_pilot,2023.2.2,Win32,59.17159763,5e938e072a4ce9077f8157b9,65d6bb0e977760de756971f7,65d6bd46994906782921cd9b,0.1529,0.1536,1,21,183,140,1,sevenfive,,,,,,,,,,,,,,,,,,,,,,,,,,,,,,,,,,,,,,,,,,,,,,,,,,,,,,,,,,,,,,,,,,,,,,,,,,,,,,,,,,,,,,,,,,,,,,,,,,,,,,,,,,,,,,,,,,,,,,,,,,,,,,,,,,,,,,,,,
,,5e938e072a4ce9077f8157b9,2024-02-21_21h20.49.995,kallum_motion_pilot,2023.2.2,Win32,59.17159763,5e938e072a4ce9077f8157b9,65d6bb0e977760de756971f7,65d6bd46994906782921cd9b,0.1555,0.1562,1,22,184,152,1,fivesix,,,,,,,,,,,,,,,,,,,,,,,,,,,,,,,,,,,,,,,,,,,,,,,,,,,,,,,,,,,,,,,,,,,,,,,,,,,,,,,,,,,,,,,,,,,,,,,,,,,,,,,,,,,,,,,,,,,,,,,,,,,,,,,,,,,,,,,,,
,,5e938e072a4ce9077f8157b9,2024-02-21_21h20.49.995,kallum_motion_pilot,2023.2.2,Win32,59.17159763,5e938e072a4ce9077f8157b9,65d6bb0e977760de756971f7,65d6bd46994906782921cd9b,0.1579,0.1583,1,23,185,22,1,fourtwo,,,,,,,,,,,,,,,,,,,,,,,,,,,,,,,,,,,,,,,,,,,,,,,,,,,,,,,,,,,,,,,,,,,,,,,,,,,,,,,,,,,,,,,,,,,,,,,,,,,,,,,,,,,,,,,,,,,,,,,,,,,,,,,,,,,,,,,,,
,,5e938e072a4ce9077f8157b9,2024-02-21_21h20.49.995,kallum_motion_pilot,2023.2.2,Win32,59.17159763,5e938e072a4ce9077f8157b9,65d6bb0e977760de756971f7,65d6bd46994906782921cd9b,0.159,0.1593,1,24,186,29,1,threefour,,,,,,,,,,,,,,,,,,,,,,,,,,,,,,,,,,,,,,,,,,,,,,,,,,,,,,,,,,,,,,,,,,,,,,,,,,,,,,,,,,,,,,,,,,,,,,,,,,,,,,,,,,,,,,,,,,,,,,,,,,,,,,,,,,,,,,,,,
,,5e938e072a4ce9077f8157b9,2024-02-21_21h20.49.995,kallum_motion_pilot,2023.2.2,Win32,59.17159763,5e938e072a4ce9077f8157b9,65d6bb0e977760de756971f7,65d6bd46994906782921cd9b,0.1598,0.16,1,25,187,81,1,fiveseven,,,,,,,,,,,,,,,,,,,,,,,,,,,,,,,,,,,,,,,,,,,,,,,,,,,,,,,,,,,,,,,,,,,,,,,,,,,,,,,,,,,,,,,,,,,,,,,,,,,,,,,,,,,,,,,,,,,,,,,,,,,,,,,,,,,,,,,,,
,,5e938e072a4ce9077f8157b9,2024-02-21_21h20.49.995,kallum_motion_pilot,2023.2.2,Win32,59.17159763,5e938e072a4ce9077f8157b9,65d6bb0e977760de756971f7,65d6bd46994906782921cd9b,0.1603,0.1604,1,26,188,66,1,twoone,,,,,,,,,,,,,,,,,,,,,,,,,,,,,,,,,,,,,,,,,,,,,,,,,,,,,,,,,,,,,,,,,,,,,,,,,,,,,,,,,,,,,,,,,,,,,,,,,,,,,,,,,,,,,,,,,,,,,,,,,,,,,,,,,,,,,,,,,
,,5e938e072a4ce9077f8157b9,2024-02-21_21h20.49.995,kallum_motion_pilot,2023.2.2,Win32,59.17159763,5e938e072a4ce9077f8157b9,65d6bb0e977760de756971f7,65d6bd46994906782921cd9b,0.1606,0.161,1,27,189,94,1,eightsix,,,,,,,,,,,,,,,,,,,,,,,,,,,,,,,,,,,,,,,,,,,,,,,,,,,,,,,,,,,,,,,,,,,,,,,,,,,,,,,,,,,,,,,,,,,,,,,,,,,,,,,,,,,,,,,,,,,,,,,,,,,,,,,,,,,,,,,,,
,,5e938e072a4ce9077f8157b9,2024-02-21_21h20.49.995,kallum_motion_pilot,2023.2.2,Win32,59.17159763,5e938e072a4ce9077f8157b9,65d6bb0e977760de756971f7,65d6bd46994906782921cd9b,0.162,0.1624,1,28,190,137,1,fiveseven,,,,,,,,,,,,,,,,,,,,,,,,,,,,,,,,,,,,,,,,,,,,,,,,,,,,,,,,,,,,,,,,,,,,,,,,,,,,,,,,,,,,,,,,,,,,,,,,,,,,,,,,,,,,,,,,,,,,,,,,,,,,,,,,,,,,,,,,,
,,5e938e072a4ce9077f8157b9,2024-02-21_21h20.49.995,kallum_motion_pilot,2023.2.2,Win32,59.17159763,5e938e072a4ce9077f8157b9,65d6bb0e977760de756971f7,65d6bd46994906782921cd9b,0.1634,0.1637,1,29,191,118,1,eightsix,,,,,,,,,,,,,,,,,,,,,,,,,,,,,,,,,,,,,,,,,,,,,,,,,,,,,,,,,,,,,,,,,,,,,,,,,,,,,,,,,,,,,,,,,,,,,,,,,,,,,,,,,,,,,,,,,,,,,,,,,,,,,,,,,,,,,,,,,
,,5e938e072a4ce9077f8157b9,2024-02-21_21h20.49.995,kallum_motion_pilot,2023.2.2,Win32,59.17159763,5e938e072a4ce9077f8157b9,65d6bb0e977760de756971f7,65d6bd46994906782921cd9b,0.1645,0.1646,1,30,192,77,1,threefour,,,,,,,,,,,,,,,,,,,,,,,,,,,,,,,,,,,,,,,,,,,,,,,,,,,,,,,,,,,,,,,,,,,,,,,,,,,,,,,,,,,,,,,,,,,,,,,,,,,,,,,,,,,,,,,,,,,,,,,,,,,,,,,,,,,,,,,,,
,,5e938e072a4ce9077f8157b9,2024-02-21_21h20.49.995,kallum_motion_pilot,2023.2.2,Win32,59.17159763,5e938e072a4ce9077f8157b9,65d6bb0e977760de756971f7,65d6bd46994906782921cd9b,0.1652,0.1655,1,31,193,56,1,onetwo,,,,,,,,,,,,,,,,,,,,,,,,,,,,,,,,,,,,,,,,,,,,,,,,,,,,,,,,,,,,,,,,,,,,,,,,,,,,,,,,,,,,,,,,,,,,,,,,,,,,,,,,,,,,,,,,,,,,,,,,,,,,,,,,,,,,,,,,,
,,5e938e072a4ce9077f8157b9,2024-02-21_21h20.49.995,kallum_motion_pilot,2023.2.2,Win32,59.17159763,5e938e072a4ce9077f8157b9,65d6bb0e977760de756971f7,65d6bd46994906782921cd9b,0.1673,0.1678,1,32,194,139,1,sixeight,,,,,,,,,,,,,,,,,,,,,,,,,,,,,,,,,,,,,,,,,,,,,,,,,,,,,,,,,,,,,,,,,,,,,,,,,,,,,,,,,,,,,,,,,,,,,,,,,,,,,,,,,,,,,,,,,,,,,,,,,,,,,,,,,,,,,,,,,
,,5e938e072a4ce9077f8157b9,2024-02-21_21h20.49.995,kallum_motion_pilot,2023.2.2,Win32,59.17159763,5e938e072a4ce9077f8157b9,65d6bb0e977760de756971f7,65d6bd46994906782921cd9b,0.1684,0.1686,1,33,195,70,1,fourtwo,,,,,,,,,,,,,,,,,,,,,,,,,,,,,,,,,,,,,,,,,,,,,,,,,,,,,,,,,,,,,,,,,,,,,,,,,,,,,,,,,,,,,,,,,,,,,,,,,,,,,,,,,,,,,,,,,,,,,,,,,,,,,,,,,,,,,,,,,
,,5e938e072a4ce9077f8157b9,2024-02-21_21h20.49.995,kallum_motion_pilot,2023.2.2,Win32,59.17159763,5e938e072a4ce9077f8157b9,65d6bb0e977760de756971f7,65d6bd46994906782921cd9b,0.169,0.1691,1,34,196,35,1,twofour,,,,,,,,,,,,,,,,,,,,,,,,,,,,,,,,,,,,,,,,,,,,,,,,,,,,,,,,,,,,,,,,,,,,,,,,,,,,,,,,,,,,,,,,,,,,,,,,,,,,,,,,,,,,,,,,,,,,,,,,,,,,,,,,,,,,,,,,,
,,5e938e072a4ce9077f8157b9,2024-02-21_21h20.49.995,kallum_motion_pilot,2023.2.2,Win32,59.17159763,5e938e072a4ce9077f8157b9,65d6bb0e977760de756971f7,65d6bd46994906782921cd9b,0.1696,0.1698,1,35,197,59,1,twofour,,,,,,,,,,,,,,,,,,,,,,,,,,,,,,,,,,,,,,,,,,,,,,,,,,,,,,,,,,,,,,,,,,,,,,,,,,,,,,,,,,,,,,,,,,,,,,,,,,,,,,,,,,,,,,,,,,,,,,,,,,,,,,,,,,,,,,,,,
,,5e938e072a4ce9077f8157b9,2024-02-21_21h20.49.995,kallum_motion_pilot,2023.2.2,Win32,59.17159763,5e938e072a4ce9077f8157b9,65d6bb0e977760de756971f7,65d6bd46994906782921cd9b,0.1702,0.1704,1,36,198,99,1,sixeight,,,,,,,,,,,,,,,,,,,,,,,,,,,,,,,,,,,,,,,,,,,,,,,,,,,,,,,,,,,,,,,,,,,,,,,,,,,,,,,,,,,,,,,,,,,,,,,,,,,,,,,,,,,,,,,,,,,,,,,,,,,,,,,,,,,,,,,,,
,,5e938e072a4ce9077f8157b9,2024-02-21_21h20.49.995,kallum_motion_pilot,2023.2.2,Win32,59.17159763,5e938e072a4ce9077f8157b9,65d6bb0e977760de756971f7,65d6bd46994906782921cd9b,0.1705,0.1708,1,37,199,73,1,onethree,,,,,,,,,,,,,,,,,,,,,,,,,,,,,,,,,,,,,,,,,,,,,,,,,,,,,,,,,,,,,,,,,,,,,,,,,,,,,,,,,,,,,,,,,,,,,,,,,,,,,,,,,,,,,,,,,,,,,,,,,,,,,,,,,,,,,,,,,
,,5e938e072a4ce9077f8157b9,2024-02-21_21h20.49.995,kallum_motion_pilot,2023.2.2,Win32,59.17159763,5e938e072a4ce9077f8157b9,65d6bb0e977760de756971f7,65d6bd46994906782921cd9b,0.1711,0.1713,1,38,200,141,1,seveneight,,,,,,,,,,,,,,,,,,,,,,,,,,,,,,,,,,,,,,,,,,,,,,,,,,,,,,,,,,,,,,,,,,,,,,,,,,,,,,,,,,,,,,,,,,,,,,,,,,,,,,,,,,,,,,,,,,,,,,,,,,,,,,,,,,,,,,,,,
,,5e938e072a4ce9077f8157b9,2024-02-21_21h20.49.995,kallum_motion_pilot,2023.2.2,Win32,59.17159763,5e938e072a4ce9077f8157b9,65d6bb0e977760de756971f7,65d6bd46994906782921cd9b,0.1716,0.1718,1,39,201,1,1,onethree,,,,,,,,,,,,,,,,,,,,,,,,,,,,,,,,,,,,,,,,,,,,,,,,,,,,,,,,,,,,,,,,,,,,,,,,,,,,,,,,,,,,,,,,,,,,,,,,,,,,,,,,,,,,,,,,,,,,,,,,,,,,,,,,,,,,,,,,,
,,5e938e072a4ce9077f8157b9,2024-02-21_21h20.49.995,kallum_motion_pilot,2023.2.2,Win32,59.17159763,5e938e072a4ce9077f8157b9,65d6bb0e977760de756971f7,65d6bd46994906782921cd9b,0.1721,0.1722,1,40,202,87,1,eightseven,,,,,,,,,,,,,,,,,,,,,,,,,,,,,,,,,,,,,,,,,,,,,,,,,,,,,,,,,,,,,,,,,,,,,,,,,,,,,,,,,,,,,,,,,,,,,,,,,,,,,,,,,,,,,,,,,,,,,,,,,,,,,,,,,,,,,,,,,
,,5e938e072a4ce9077f8157b9,2024-02-21_21h20.49.995,kallum_motion_pilot,2023.2.2,Win32,59.17159763,5e938e072a4ce9077f8157b9,65d6bb0e977760de756971f7,65d6bd46994906782921cd9b,0.1725,0.1726,1,41,203,125,1,seveneight,,,,,,,,,,,,,,,,,,,,,,,,,,,,,,,,,,,,,,,,,,,,,,,,,,,,,,,,,,,,,,,,,,,,,,,,,,,,,,,,,,,,,,,,,,,,,,,,,,,,,,,,,,,,,,,,,,,,,,,,,,,,,,,,,,,,,,,,,
,,5e938e072a4ce9077f8157b9,2024-02-21_21h20.49.995,kallum_motion_pilot,2023.2.2,Win32,59.17159763,5e938e072a4ce9077f8157b9,65d6bb0e977760de756971f7,65d6bd46994906782921cd9b,0.1728,0.1731,1,42,204,145,1,fiveseven,,,,,,,,,,,,,,,,,,,,,,,,,,,,,,,,,,,,,,,,,,,,,,,,,,,,,,,,,,,,,,,,,,,,,,,,,,,,,,,,,,,,,,,,,,,,,,,,,,,,,,,,,,,,,,,,,,,,,,,,,,,,,,,,,,,,,,,,,
,,5e938e072a4ce9077f8157b9,2024-02-21_21h20.49.995,kallum_motion_pilot,2023.2.2,Win32,59.17159763,5e938e072a4ce9077f8157b9,65d6bb0e977760de756971f7,65d6bd46994906782921cd9b,0.1734,0.1737,1,43,205,20,1,threeone,,,,,,,,,,,,,,,,,,,,,,,,,,,,,,,,,,,,,,,,,,,,,,,,,,,,,,,,,,,,,,,,,,,,,,,,,,,,,,,,,,,,,,,,,,,,,,,,,,,,,,,,,,,,,,,,,,,,,,,,,,,,,,,,,,,,,,,,,
,,5e938e072a4ce9077f8157b9,2024-02-21_21h20.49.995,kallum_motion_pilot,2023.2.2,Win32,59.17159763,5e938e072a4ce9077f8157b9,65d6bb0e977760de756971f7,65d6bd46994906782921cd9b,0.174,0.1742,1,44,206,6,1,fourtwo,,,,,,,,,,,,,,,,,,,,,,,,,,,,,,,,,,,,,,,,,,,,,,,,,,,,,,,,,,,,,,,,,,,,,,,,,,,,,,,,,,,,,,,,,,,,,,,,,,,,,,,,,,,,,,,,,,,,,,,,,,,,,,,,,,,,,,,,,
,,5e938e072a4ce9077f8157b9,2024-02-21_21h20.49.995,kallum_motion_pilot,2023.2.2,Win32,59.17159763,5e938e072a4ce9077f8157b9,65d6bb0e977760de756971f7,65d6bd46994906782921cd9b,0.1743,0.1744,1,45,207,26,1,twoone,,,,,,,,,,,,,,,,,,,,,,,,,,,,,,,,,,,,,,,,,,,,,,,,,,,,,,,,,,,,,,,,,,,,,,,,,,,,,,,,,,,,,,,,,,,,,,,,,,,,,,,,,,,,,,,,,,,,,,,,,,,,,,,,,,,,,,,,,
,,5e938e072a4ce9077f8157b9,2024-02-21_21h20.49.995,kallum_motion_pilot,2023.2.2,Win32,59.17159763,5e938e072a4ce9077f8157b9,65d6bb0e977760de756971f7,65d6bd46994906782921cd9b,0.1747,0.1749,1,46,208,109,1,seveneight,,,,,,,,,,,,,,,,,,,,,,,,,,,,,,,,,,,,,,,,,,,,,,,,,,,,,,,,,,,,,,,,,,,,,,,,,,,,,,,,,,,,,,,,,,,,,,,,,,,,,,,,,,,,,,,,,,,,,,,,,,,,,,,,,,,,,,,,,
,,5e938e072a4ce9077f8157b9,2024-02-21_21h20.49.995,kallum_motion_pilot,2023.2.2,Win32,59.17159763,5e938e072a4ce9077f8157b9,65d6bb0e977760de756971f7,65d6bd46994906782921cd9b,0.1751,0.1753,1,47,209,112,1,fivesix,,,,,,,,,,,,,,,,,,,,,,,,,,,,,,,,,,,,,,,,,,,,,,,,,,,,,,,,,,,,,,,,,,,,,,,,,,,,,,,,,,,,,,,,,,,,,,,,,,,,,,,,,,,,,,,,,,,,,,,,,,,,,,,,,,,,,,,,,
,,5e938e072a4ce9077f8157b9,2024-02-21_21h20.49.995,kallum_motion_pilot,2023.2.2,Win32,59.17159763,5e938e072a4ce9077f8157b9,65d6bb0e977760de756971f7,65d6bd46994906782921cd9b,0.1755,0.1756,1,48,210,126,1,eightsix,,,,,,,,,,,,,,,,,,,,,,,,,,,,,,,,,,,,,,,,,,,,,,,,,,,,,,,,,,,,,,,,,,,,,,,,,,,,,,,,,,,,,,,,,,,,,,,,,,,,,,,,,,,,,,,,,,,,,,,,,,,,,,,,,,,,,,,,,
,,5e938e072a4ce9077f8157b9,2024-02-21_21h20.49.995,kallum_motion_pilot,2023.2.2,Win32,59.17159763,5e938e072a4ce9077f8157b9,65d6bb0e977760de756971f7,65d6bd46994906782921cd9b,0.176,0.1761,1,49,211,52,1,threeone,,,,,,,,,,,,,,,,,,,,,,,,,,,,,,,,,,,,,,,,,,,,,,,,,,,,,,,,,,,,,,,,,,,,,,,,,,,,,,,,,,,,,,,,,,,,,,,,,,,,,,,,,,,,,,,,,,,,,,,,,,,,,,,,,,,,,,,,,
,,5e938e072a4ce9077f8157b9,2024-02-21_21h20.49.995,kallum_motion_pilot,2023.2.2,Win32,59.17159763,5e938e072a4ce9077f8157b9,65d6bb0e977760de756971f7,65d6bd46994906782921cd9b,0.1764,0.1764,1,50,212,106,1,sixfive,,,,,,,,,,,,,,,,,,,,,,,,,,,,,,,,,,,,,,,,,,,,,,,,,,,,,,,,,,,,,,,,,,,,,,,,,,,,,,,,,,,,,,,,,,,,,,,,,,,,,,,,,,,,,,,,,,,,,,,,,,,,,,,,,,,,,,,,,
,,5e938e072a4ce9077f8157b9,2024-02-21_21h20.49.995,kallum_motion_pilot,2023.2.2,Win32,59.17159763,5e938e072a4ce9077f8157b9,65d6bb0e977760de756971f7,65d6bd46994906782921cd9b,0.177,0.1771,1,51,213,10,1,twoone,,,,,,,,,,,,,,,,,,,,,,,,,,,,,,,,,,,,,,,,,,,,,,,,,,,,,,,,,,,,,,,,,,,,,,,,,,,,,,,,,,,,,,,,,,,,,,,,,,,,,,,,,,,,,,,,,,,,,,,,,,,,,,,,,,,,,,,,,
,,5e938e072a4ce9077f8157b9,2024-02-21_21h20.49.995,kallum_motion_pilot,2023.2.2,Win32,59.17159763,5e938e072a4ce9077f8157b9,65d6bb0e977760de756971f7,65d6bd46994906782921cd9b,0.1774,0.1776,1,52,214,153,1,fiveseven,,,,,,,,,,,,,,,,,,,,,,,,,,,,,,,,,,,,,,,,,,,,,,,,,,,,,,,,,,,,,,,,,,,,,,,,,,,,,,,,,,,,,,,,,,,,,,,,,,,,,,,,,,,,,,,,,,,,,,,,,,,,,,,,,,,,,,,,,
,,5e938e072a4ce9077f8157b9,2024-02-21_21h20.49.995,kallum_motion_pilot,2023.2.2,Win32,59.17159763,5e938e072a4ce9077f8157b9,65d6bb0e977760de756971f7,65d6bd46994906782921cd9b,0.1779,0.1781,1,53,215,143,1,eightseven,,,,,,,,,,,,,,,,,,,,,,,,,,,,,,,,,,,,,,,,,,,,,,,,,,,,,,,,,,,,,,,,,,,,,,,,,,,,,,,,,,,,,,,,,,,,,,,,,,,,,,,,,,,,,,,,,,,,,,,,,,,,,,,,,,,,,,,,,
,,5e938e072a4ce9077f8157b9,2024-02-21_21h20.49.995,kallum_motion_pilot,2023.2.2,Win32,59.17159763,5e938e072a4ce9077f8157b9,65d6bb0e977760de756971f7,65d6bd46994906782921cd9b,0.1785,0.1786,1,54,216,43,1,twofour,,,,,,,,,,,,,,,,,,,,,,,,,,,,,,,,,,,,,,,,,,,,,,,,,,,,,,,,,,,,,,,,,,,,,,,,,,,,,,,,,,,,,,,,,,,,,,,,,,,,,,,,,,,,,,,,,,,,,,,,,,,,,,,,,,,,,,,,,
,,5e938e072a4ce9077f8157b9,2024-02-21_21h20.49.995,kallum_motion_pilot,2023.2.2,Win32,59.17159763,5e938e072a4ce9077f8157b9,65d6bb0e977760de756971f7,65d6bd46994906782921cd9b,0.1789,0.1791,1,55,217,83,1,sixeight,,,,,,,,,,,,,,,,,,,,,,,,,,,,,,,,,,,,,,,,,,,,,,,,,,,,,,,,,,,,,,,,,,,,,,,,,,,,,,,,,,,,,,,,,,,,,,,,,,,,,,,,,,,,,,,,,,,,,,,,,,,,,,,,,,,,,,,,,
,,5e938e072a4ce9077f8157b9,2024-02-21_21h20.49.995,kallum_motion_pilot,2023.2.2,Win32,59.17159763,5e938e072a4ce9077f8157b9,65d6bb0e977760de756971f7,65d6bd46994906782921cd9b,0.1791,0.1793,1,56,218,47,1,fourthree,,,,,,,,,,,,,,,,,,,,,,,,,,,,,,,,,,,,,,,,,,,,,,,,,,,,,,,,,,,,,,,,,,,,,,,,,,,,,,,,,,,,,,,,,,,,,,,,,,,,,,,,,,,,,,,,,,,,,,,,,,,,,,,,,,,,,,,,,
,,5e938e072a4ce9077f8157b9,2024-02-21_21h20.49.995,kallum_motion_pilot,2023.2.2,Win32,59.17159763,5e938e072a4ce9077f8157b9,65d6bb0e977760de756971f7,65d6bd46994906782921cd9b,0.1796,0.1797,1,57,219,16,1,onetwo,,,,,,,,,,,,,,,,,,,,,,,,,,,,,,,,,,,,,,,,,,,,,,,,,,,,,,,,,,,,,,,,,,,,,,,,,,,,,,,,,,,,,,,,,,,,,,,,,,,,,,,,,,,,,,,,,,,,,,,,,,,,,,,,,,,,,,,,,
,,5e938e072a4ce9077f8157b9,2024-02-21_21h20.49.995,kallum_motion_pilot,2023.2.2,Win32,59.17159763,5e938e072a4ce9077f8157b9,65d6bb0e977760de756971f7,65d6bd46994906782921cd9b,0.1799,0.18,1,58,220,91,1,sixeight,,,,,,,,,,,,,,,,,,,,,,,,,,,,,,,,,,,,,,,,,,,,,,,,,,,,,,,,,,,,,,,,,,,,,,,,,,,,,,,,,,,,,,,,,,,,,,,,,,,,,,,,,,,,,,,,,,,,,,,,,,,,,,,,,,,,,,,,,
,,5e938e072a4ce9077f8157b9,2024-02-21_21h20.49.995,kallum_motion_pilot,2023.2.2,Win32,59.17159763,5e938e072a4ce9077f8157b9,65d6bb0e977760de756971f7,65d6bd46994906782921cd9b,0.1803,0.1804,1,59,221,36,1,threeone,,,,,,,,,,,,,,,,,,,,,,,,,,,,,,,,,,,,,,,,,,,,,,,,,,,,,,,,,,,,,,,,,,,,,,,,,,,,,,,,,,,,,,,,,,,,,,,,,,,,,,,,,,,,,,,,,,,,,,,,,,,,,,,,,,,,,,,,,
,,5e938e072a4ce9077f8157b9,2024-02-21_21h20.49.995,kallum_motion_pilot,2023.2.2,Win32,59.17159763,5e938e072a4ce9077f8157b9,65d6bb0e977760de756971f7,65d6bd46994906782921cd9b,0.1804,0.1806,1,60,222,7,1,fourthree,,,,,,,,,,,,,,,,,,,,,,,,,,,,,,,,,,,,,,,,,,,,,,,,,,,,,,,,,,,,,,,,,,,,,,,,,,,,,,,,,,,,,,,,,,,,,,,,,,,,,,,,,,,,,,,,,,,,,,,,,,,,,,,,,,,,,,,,,
,,5e938e072a4ce9077f8157b9,2024-02-21_21h20.49.995,kallum_motion_pilot,2023.2.2,Win32,59.17159763,5e938e072a4ce9077f8157b9,65d6bb0e977760de756971f7,65d6bd46994906782921cd9b,0.1807,0.1807,1,61,223,65,1,onethree,,,,,,,,,,,,,,,,,,,,,,,,,,,,,,,,,,,,,,,,,,,,,,,,,,,,,,,,,,,,,,,,,,,,,,,,,,,,,,,,,,,,,,,,,,,,,,,,,,,,,,,,,,,,,,,,,,,,,,,,,,,,,,,,,,,,,,,,,
,,5e938e072a4ce9077f8157b9,2024-02-21_21h20.49.995,kallum_motion_pilot,2023.2.2,Win32,59.17159763,5e938e072a4ce9077f8157b9,65d6bb0e977760de756971f7,65d6bd46994906782921cd9b,0.1809,0.181,1,62,224,96,1,fivesix,,,,,,,,,,,,,,,,,,,,,,,,,,,,,,,,,,,,,,,,,,,,,,,,,,,,,,,,,,,,,,,,,,,,,,,,,,,,,,,,,,,,,,,,,,,,,,,,,,,,,,,,,,,,,,,,,,,,,,,,,,,,,,,,,,,,,,,,,
,,5e938e072a4ce9077f8157b9,2024-02-21_21h20.49.995,kallum_motion_pilot,2023.2.2,Win32,59.17159763,5e938e072a4ce9077f8157b9,65d6bb0e977760de756971f7,65d6bd46994906782921cd9b,0.1811,0.1812,1,63,225,119,1,eightseven,,,,,,,,,,,,,,,,,,,,,,,,,,,,,,,,,,,,,,,,,,,,,,,,,,,,,,,,,,,,,,,,,,,,,,,,,,,,,,,,,,,,,,,,,,,,,,,,,,,,,,,,,,,,,,,,,,,,,,,,,,,,,,,,,,,,,,,,,
,,5e938e072a4ce9077f8157b9,2024-02-21_21h20.49.995,kallum_motion_pilot,2023.2.2,Win32,59.17159763,5e938e072a4ce9077f8157b9,65d6bb0e977760de756971f7,65d6bd46994906782921cd9b,0.1814,0.1816,1,64,226,67,1,twofour,,,,,,,,,,,,,,,,,,,,,,,,,,,,,,,,,,,,,,,,,,,,,,,,,,,,,,,,,,,,,,,,,,,,,,,,,,,,,,,,,,,,,,,,,,,,,,,,,,,,,,,,,,,,,,,,,,,,,,,,,,,,,,,,,,,,,,,,,
,,5e938e072a4ce9077f8157b9,2024-02-21_21h20.49.995,kallum_motion_pilot,2023.2.2,Win32,59.17159763,5e938e072a4ce9077f8157b9,65d6bb0e977760de756971f7,65d6bd46994906782921cd9b,0.1817,0.1818,1,65,227,122,1,sixfive,,,,,,,,,,,,,,,,,,,,,,,,,,,,,,,,,,,,,,,,,,,,,,,,,,,,,,,,,,,,,,,,,,,,,,,,,,,,,,,,,,,,,,,,,,,,,,,,,,,,,,,,,,,,,,,,,,,,,,,,,,,,,,,,,,,,,,,,,
,,5e938e072a4ce9077f8157b9,2024-02-21_21h20.49.995,kallum_motion_pilot,2023.2.2,Win32,59.17159763,5e938e072a4ce9077f8157b9,65d6bb0e977760de756971f7,65d6bd46994906782921cd9b,0.1819,0.182,1,66,228,111,1,eightseven,,,,,,,,,,,,,,,,,,,,,,,,,,,,,,,,,,,,,,,,,,,,,,,,,,,,,,,,,,,,,,,,,,,,,,,,,,,,,,,,,,,,,,,,,,,,,,,,,,,,,,,,,,,,,,,,,,,,,,,,,,,,,,,,,,,,,,,,,
,,5e938e072a4ce9077f8157b9,2024-02-21_21h20.49.995,kallum_motion_pilot,2023.2.2,Win32,59.17159763,5e938e072a4ce9077f8157b9,65d6bb0e977760de756971f7,65d6bd46994906782921cd9b,0.1821,0.1821,1,67,229,54,1,fourtwo,,,,,,,,,,,,,,,,,,,,,,,,,,,,,,,,,,,,,,,,,,,,,,,,,,,,,,,,,,,,,,,,,,,,,,,,,,,,,,,,,,,,,,,,,,,,,,,,,,,,,,,,,,,,,,,,,,,,,,,,,,,,,,,,,,,,,,,,,
,,5e938e072a4ce9077f8157b9,2024-02-21_21h20.49.995,kallum_motion_pilot,2023.2.2,Win32,59.17159763,5e938e072a4ce9077f8157b9,65d6bb0e977760de756971f7,65d6bd46994906782921cd9b,0.1823,0.1827,1,68,230,144,1,fivesix,,,,,,,,,,,,,,,,,,,,,,,,,,,,,,,,,,,,,,,,,,,,,,,,,,,,,,,,,,,,,,,,,,,,,,,,,,,,,,,,,,,,,,,,,,,,,,,,,,,,,,,,,,,,,,,,,,,,,,,,,,,,,,,,,,,,,,,,,
,,5e938e072a4ce9077f8157b9,2024-02-21_21h20.49.995,kallum_motion_pilot,2023.2.2,Win32,59.17159763,5e938e072a4ce9077f8157b9,65d6bb0e977760de756971f7,65d6bd46994906782921cd9b,0.1829,0.183,1,69,231,161,1,fiveseven,,,,,,,,,,,,,,,,,,,,,,,,,,,,,,,,,,,,,,,,,,,,,,,,,,,,,,,,,,,,,,,,,,,,,,,,,,,,,,,,,,,,,,,,,,,,,,,,,,,,,,,,,,,,,,,,,,,,,,,,,,,,,,,,,,,,,,,,,
,,5e938e072a4ce9077f8157b9,2024-02-21_21h20.49.995,kallum_motion_pilot,2023.2.2,Win32,59.17159763,5e938e072a4ce9077f8157b9,65d6bb0e977760de756971f7,65d6bd46994906782921cd9b,0.1832,0.1834,1,70,232,98,1,sixfive,,,,,,,,,,,,,,,,,,,,,,,,,,,,,,,,,,,,,,,,,,,,,,,,,,,,,,,,,,,,,,,,,,,,,,,,,,,,,,,,,,,,,,,,,,,,,,,,,,,,,,,,,,,,,,,,,,,,,,,,,,,,,,,,,,,,,,,,,
,,5e938e072a4ce9077f8157b9,2024-02-21_21h20.49.995,kallum_motion_pilot,2023.2.2,Win32,59.17159763,5e938e072a4ce9077f8157b9,65d6bb0e977760de756971f7,65d6bd46994906782921cd9b,0.1836,0.1839,1,71,233,120,1,fivesix,,,,,,,,,,,,,,,,,,,,,,,,,,,,,,,,,,,,,,,,,,,,,,,,,,,,,,,,,,,,,,,,,,,,,,,,,,,,,,,,,,,,,,,,,,,,,,,,,,,,,,,,,,,,,,,,,,,,,,,,,,,,,,,,,,,,,,,,,
,,5e938e072a4ce9077f8157b9,2024-02-21_21h20.49.995,kallum_motion_pilot,2023.2.2,Win32,59.17159763,5e938e072a4ce9077f8157b9,65d6bb0e977760de756971f7,65d6bd46994906782921cd9b,0.184,0.1843,1,72,234,102,1,eightsix,,,,,,,,,,,,,,,,,,,,,,,,,,,,,,,,,,,,,,,,,,,,,,,,,,,,,,,,,,,,,,,,,,,,,,,,,,,,,,,,,,,,,,,,,,,,,,,,,,,,,,,,,,,,,,,,,,,,,,,,,,,,,,,,,,,,,,,,,
,,5e938e072a4ce9077f8157b9,2024-02-21_21h20.49.995,kallum_motion_pilot,2023.2.2,Win32,59.17159763,5e938e072a4ce9077f8157b9,65d6bb0e977760de756971f7,65d6bd46994906782921cd9b,0.1847,0.185,1,73,235,63,1,fourthree,,,,,,,,,,,,,,,,,,,,,,,,,,,,,,,,,,,,,,,,,,,,,,,,,,,,,,,,,,,,,,,,,,,,,,,,,,,,,,,,,,,,,,,,,,,,,,,,,,,,,,,,,,,,,,,,,,,,,,,,,,,,,,,,,,,,,,,,,
,,5e938e072a4ce9077f8157b9,2024-02-21_21h20.49.995,kallum_motion_pilot,2023.2.2,Win32,59.17159763,5e938e072a4ce9077f8157b9,65d6bb0e977760de756971f7,65d6bd46994906782921cd9b,0.1852,0.1858,1,74,236,48,1,onetwo,,,,,,,,,,,,,,,,,,,,,,,,,,,,,,,,,,,,,,,,,,,,,,,,,,,,,,,,,,,,,,,,,,,,,,,,,,,,,,,,,,,,,,,,,,,,,,,,,,,,,,,,,,,,,,,,,,,,,,,,,,,,,,,,,,,,,,,,,
,,5e938e072a4ce9077f8157b9,2024-02-21_21h20.49.995,kallum_motion_pilot,2023.2.2,Win32,59.17159763,5e938e072a4ce9077f8157b9,65d6bb0e977760de756971f7,65d6bd46994906782921cd9b,0.1863,0.1866,1,75,237,38,1,fourtwo,,,,,,,,,,,,,,,,,,,,,,,,,,,,,,,,,,,,,,,,,,,,,,,,,,,,,,,,,,,,,,,,,,,,,,,,,,,,,,,,,,,,,,,,,,,,,,,,,,,,,,,,,,,,,,,,,,,,,,,,,,,,,,,,,,,,,,,,,
,,5e938e072a4ce9077f8157b9,2024-02-21_21h20.49.995,kallum_motion_pilot,2023.2.2,Win32,59.17159763,5e938e072a4ce9077f8157b9,65d6bb0e977760de756971f7,65d6bd46994906782921cd9b,0.1868,0.1871,1,76,238,21,1,threefour,,,,,,,,,,,,,,,,,,,,,,,,,,,,,,,,,,,,,,,,,,,,,,,,,,,,,,,,,,,,,,,,,,,,,,,,,,,,,,,,,,,,,,,,,,,,,,,,,,,,,,,,,,,,,,,,,,,,,,,,,,,,,,,,,,,,,,,,,
,,5e938e072a4ce9077f8157b9,2024-02-21_21h20.49.995,kallum_motion_pilot,2023.2.2,Win32,59.17159763,5e938e072a4ce9077f8157b9,65d6bb0e977760de756971f7,65d6bd46994906782921cd9b,0.1874,0.1876,1,77,239,69,1,threefour,,,,,,,,,,,,,,,,,,,,,,,,,,,,,,,,,,,,,,,,,,,,,,,,,,,,,,,,,,,,,,,,,,,,,,,,,,,,,,,,,,,,,,,,,,,,,,,,,,,,,,,,,,,,,,,,,,,,,,,,,,,,,,,,,,,,,,,,,
,,5e938e072a4ce9077f8157b9,2024-02-21_21h20.49.995,kallum_motion_pilot,2023.2.2,Win32,59.17159763,5e938e072a4ce9077f8157b9,65d6bb0e977760de756971f7,65d6bd46994906782921cd9b,0.1878,0.188,1,78,240,103,1,eightseven,,,,,,,,,,,,,,,,,,,,,,,,,,,,,,,,,,,,,,,,,,,,,,,,,,,,,,,,,,,,,,,,,,,,,,,,,,,,,,,,,,,,,,,,,,,,,,,,,,,,,,,,,,,,,,,,,,,,,,,,,,,,,,,,,,,,,,,,,
,,5e938e072a4ce9077f8157b9,2024-02-21_21h20.49.995,kallum_motion_pilot,2023.2.2,Win32,59.17159763,5e938e072a4ce9077f8157b9,65d6bb0e977760de756971f7,65d6bd46994906782921cd9b,0.1881,0.1883,1,79,241,107,1,sixeight,,,,,,,,,,,,,,,,,,,,,,,,,,,,,,,,,,,,,,,,,,,,,,,,,,,,,,,,,,,,,,,,,,,,,,,,,,,,,,,,,,,,,,,,,,,,,,,,,,,,,,,,,,,,,,,,,,,,,,,,,,,,,,,,,,,,,,,,,
,,5e938e072a4ce9077f8157b9,2024-02-21_21h20.49.995,kallum_motion_pilot,2023.2.2,Win32,59.17159763,5e938e072a4ce9077f8157b9,65d6bb0e977760de756971f7,65d6bd46994906782921cd9b,0.1885,0.1887,1,80,242,60,1,threeone,,,,,,,,,,,,,,,,,,,,,,,,,,,,,,,,,,,,,,,,,,,,,,,,,,,,,,,,,,,,,,,,,,,,,,,,,,,,,,,,,,,,,,,,,,,,,,,,,,,,,,,,,,,,,,,,,,,,,,,,,,,,,,,,,,,,,,,,,
,,5e938e072a4ce9077f8157b9,2024-02-21_21h20.49.995,kallum_motion_pilot,2023.2.2,Win32,59.17159763,5e938e072a4ce9077f8157b9,65d6bb0e977760de756971f7,65d6bd46994906782921cd9b,0.189,0.1891,1,81,243,42,1,twoone,,,,,,,,,,,,,,,,,,,,,,,,,,,,,,,,,,,,,,,,,,,,,,,,,,,,,,,,,,,,,,,,,,,,,,,,,,,,,,,,,,,,,,,,,,,,,,,,,,,,,,,,,,,,,,,,,,,,,,,,,,,,,,,,,,,,,,,,,
,,5e938e072a4ce9077f8157b9,2024-02-21_21h20.49.995,kallum_motion_pilot,2023.2.2,Win32,59.17159763,5e938e072a4ce9077f8157b9,65d6bb0e977760de756971f7,65d6bd46994906782921cd9b,0.1893,0.1896,1,82,244,117,1,seveneight,,,,,,,,,,,,,,,,,,,,,,,,,,,,,,,,,,,,,,,,,,,,,,,,,,,,,,,,,,,,,,,,,,,,,,,,,,,,,,,,,,,,,,,,,,,,,,,,,,,,,,,,,,,,,,,,,,,,,,,,,,,,,,,,,,,,,,,,,
,,5e938e072a4ce9077f8157b9,2024-02-21_21h20.49.995,kallum_motion_pilot,2023.2.2,Win32,59.17159763,5e938e072a4ce9077f8157b9,65d6bb0e977760de756971f7,65d6bd46994906782921cd9b,0.1898,0.19,1,83,245,82,1,sixfive,,,,,,,,,,,,,,,,,,,,,,,,,,,,,,,,,,,,,,,,,,,,,,,,,,,,,,,,,,,,,,,,,,,,,,,,,,,,,,,,,,,,,,,,,,,,,,,,,,,,,,,,,,,,,,,,,,,,,,,,,,,,,,,,,,,,,,,,,
,,5e938e072a4ce9077f8157b9,2024-02-21_21h20.49.995,kallum_motion_pilot,2023.2.2,Win32,59.17159763,5e938e072a4ce9077f8157b9,65d6bb0e977760de756971f7,65d6bd46994906782921cd9b,0.1901,0.1903,1,84,246,121,1,fiveseven,,,,,,,,,,,,,,,,,,,,,,,,,,,,,,,,,,,,,,,,,,,,,,,,,,,,,,,,,,,,,,,,,,,,,,,,,,,,,,,,,,,,,,,,,,,,,,,,,,,,,,,,,,,,,,,,,,,,,,,,,,,,,,,,,,,,,,,,,
,,5e938e072a4ce9077f8157b9,2024-02-21_21h20.49.995,kallum_motion_pilot,2023.2.2,Win32,59.17159763,5e938e072a4ce9077f8157b9,65d6bb0e977760de756971f7,65d6bd46994906782921cd9b,0.1906,0.1908,1,85,247,114,1,sixfive,,,,,,,,,,,,,,,,,,,,,,,,,,,,,,,,,,,,,,,,,,,,,,,,,,,,,,,,,,,,,,,,,,,,,,,,,,,,,,,,,,,,,,,,,,,,,,,,,,,,,,,,,,,,,,,,,,,,,,,,,,,,,,,,,,,,,,,,,
,,5e938e072a4ce9077f8157b9,2024-02-21_21h20.49.995,kallum_motion_pilot,2023.2.2,Win32,59.17159763,5e938e072a4ce9077f8157b9,65d6bb0e977760de756971f7,65d6bd46994906782921cd9b,0.191,0.191,1,86,248,74,1,twoone,,,,,,,,,,,,,,,,,,,,,,,,,,,,,,,,,,,,,,,,,,,,,,,,,,,,,,,,,,,,,,,,,,,,,,,,,,,,,,,,,,,,,,,,,,,,,,,,,,,,,,,,,,,,,,,,,,,,,,,,,,,,,,,,,,,,,,,,,
,,5e938e072a4ce9077f8157b9,2024-02-21_21h20.49.995,kallum_motion_pilot,2023.2.2,Win32,59.17159763,5e938e072a4ce9077f8157b9,65d6bb0e977760de756971f7,65d6bd46994906782921cd9b,0.1912,0.1914,1,87,249,110,1,eightsix,,,,,,,,,,,,,,,,,,,,,,,,,,,,,,,,,,,,,,,,,,,,,,,,,,,,,,,,,,,,,,,,,,,,,,,,,,,,,,,,,,,,,,,,,,,,,,,,,,,,,,,,,,,,,,,,,,,,,,,,,,,,,,,,,,,,,,,,,
,,5e938e072a4ce9077f8157b9,2024-02-21_21h20.49.995,kallum_motion_pilot,2023.2.2,Win32,59.17159763,5e938e072a4ce9077f8157b9,65d6bb0e977760de756971f7,65d6bd46994906782921cd9b,0.1914,0.1916,1,88,250,84,1,sevenfive,,,,,,,,,,,,,,,,,,,,,,,,,,,,,,,,,,,,,,,,,,,,,,,,,,,,,,,,,,,,,,,,,,,,,,,,,,,,,,,,,,,,,,,,,,,,,,,,,,,,,,,,,,,,,,,,,,,,,,,,,,,,,,,,,,,,,,,,,
,,5e938e072a4ce9077f8157b9,2024-02-21_21h20.49.995,kallum_motion_pilot,2023.2.2,Win32,59.17159763,5e938e072a4ce9077f8157b9,65d6bb0e977760de756971f7,65d6bd46994906782921cd9b,0.1917,0.1919,1,89,251,0,1,onetwo,,,,,,,,,,,,,,,,,,,,,,,,,,,,,,,,,,,,,,,,,,,,,,,,,,,,,,,,,,,,,,,,,,,,,,,,,,,,,,,,,,,,,,,,,,,,,,,,,,,,,,,,,,,,,,,,,,,,,,,,,,,,,,,,,,,,,,,,,
,,5e938e072a4ce9077f8157b9,2024-02-21_21h20.49.995,kallum_motion_pilot,2023.2.2,Win32,59.17159763,5e938e072a4ce9077f8157b9,65d6bb0e977760de756971f7,65d6bd46994906782921cd9b,0.192,0.1922,1,90,252,89,1,fiveseven,,,,,,,,,,,,,,,,,,,,,,,,,,,,,,,,,,,,,,,,,,,,,,,,,,,,,,,,,,,,,,,,,,,,,,,,,,,,,,,,,,,,,,,,,,,,,,,,,,,,,,,,,,,,,,,,,,,,,,,,,,,,,,,,,,,,,,,,,
,,5e938e072a4ce9077f8157b9,2024-02-21_21h20.49.995,kallum_motion_pilot,2023.2.2,Win32,59.17159763,5e938e072a4ce9077f8157b9,65d6bb0e977760de756971f7,65d6bd46994906782921cd9b,0.1922,0.1924,1,91,253,155,1,sixeight,,,,,,,,,,,,,,,,,,,,,,,,,,,,,,,,,,,,,,,,,,,,,,,,,,,,,,,,,,,,,,,,,,,,,,,,,,,,,,,,,,,,,,,,,,,,,,,,,,,,,,,,,,,,,,,,,,,,,,,,,,,,,,,,,,,,,,,,,
,,5e938e072a4ce9077f8157b9,2024-02-21_21h20.49.995,kallum_motion_pilot,2023.2.2,Win32,59.17159763,5e938e072a4ce9077f8157b9,65d6bb0e977760de756971f7,65d6bd46994906782921cd9b,0.1927,0.1929,1,92,254,33,1,onethree,,,,,,,,,,,,,,,,,,,,,,,,,,,,,,,,,,,,,,,,,,,,,,,,,,,,,,,,,,,,,,,,,,,,,,,,,,,,,,,,,,,,,,,,,,,,,,,,,,,,,,,,,,,,,,,,,,,,,,,,,,,,,,,,,,,,,,,,,
,,5e938e072a4ce9077f8157b9,2024-02-21_21h20.49.995,kallum_motion_pilot,2023.2.2,Win32,59.17159763,5e938e072a4ce9077f8157b9,65d6bb0e977760de756971f7,65d6bd46994906782921cd9b,0.1931,0.1933,1,93,255,92,1,sevenfive,,,,,,,,,,,,,,,,,,,,,,,,,,,,,,,,,,,,,,,,,,,,,,,,,,,,,,,,,,,,,,,,,,,,,,,,,,,,,,,,,,,,,,,,,,,,,,,,,,,,,,,,,,,,,,,,,,,,,,,,,,,,,,,,,,,,,,,,,
,,5e938e072a4ce9077f8157b9,2024-02-21_21h20.49.995,kallum_motion_pilot,2023.2.2,Win32,59.17159763,5e938e072a4ce9077f8157b9,65d6bb0e977760de756971f7,65d6bd46994906782921cd9b,0.1935,0.1936,1,94,256,37,1,threefour,,,,,,,,,,,,,,,,,,,,,,,,,,,,,,,,,,,,,,,,,,,,,,,,,,,,,,,,,,,,,,,,,,,,,,,,,,,,,,,,,,,,,,,,,,,,,,,,,,,,,,,,,,,,,,,,,,,,,,,,,,,,,,,,,,,,,,,,,
,,5e938e072a4ce9077f8157b9,2024-02-21_21h20.49.995,kallum_motion_pilot,2023.2.2,Win32,59.17159763,5e938e072a4ce9077f8157b9,65d6bb0e977760de756971f7,65d6bd46994906782921cd9b,0.1938,0.1939,1,95,257,131,1,sixeight,,,,,,,,,,,,,,,,,,,,,,,,,,,,,,,,,,,,,,,,,,,,,,,,,,,,,,,,,,,,,,,,,,,,,,,,,,,,,,,,,,,,,,,,,,,,,,,,,,,,,,,,,,,,,,,,,,,,,,,,,,,,,,,,,,,,,,,,,
,,5e938e072a4ce9077f8157b9,2024-02-21_21h20.49.995,kallum_motion_pilot,2023.2.2,Win32,59.17159763,5e938e072a4ce9077f8157b9,65d6bb0e977760de756971f7,65d6bd46994906782921cd9b,0.194,0.1941,1,96,258,13,1,threefour,,,,,,,,,,,,,,,,,,,,,,,,,,,,,,,,,,,,,,,,,,,,,,,,,,,,,,,,,,,,,,,,,,,,,,,,,,,,,,,,,,,,,,,,,,,,,,,,,,,,,,,,,,,,,,,,,,,,,,,,,,,,,,,,,,,,,,,,,
,,5e938e072a4ce9077f8157b9,2024-02-21_21h20.49.995,kallum_motion_pilot,2023.2.2,Win32,59.17159763,5e938e072a4ce9077f8157b9,65d6bb0e977760de756971f7,65d6bd46994906782921cd9b,0.1942,0.1943,1,97,259,72,1,onetwo,,,,,,,,,,,,,,,,,,,,,,,,,,,,,,,,,,,,,,,,,,,,,,,,,,,,,,,,,,,,,,,,,,,,,,,,,,,,,,,,,,,,,,,,,,,,,,,,,,,,,,,,,,,,,,,,,,,,,,,,,,,,,,,,,,,,,,,,,
,,5e938e072a4ce9077f8157b9,2024-02-21_21h20.49.995,kallum_motion_pilot,2023.2.2,Win32,59.17159763,5e938e072a4ce9077f8157b9,65d6bb0e977760de756971f7,65d6bd46994906782921cd9b,0.1944,0.1945,1,98,260,124,1,sevenfive,,,,,,,,,,,,,,,,,,,,,,,,,,,,,,,,,,,,,,,,,,,,,,,,,,,,,,,,,,,,,,,,,,,,,,,,,,,,,,,,,,,,,,,,,,,,,,,,,,,,,,,,,,,,,,,,,,,,,,,,,,,,,,,,,,,,,,,,,
,,5e938e072a4ce9077f8157b9,2024-02-21_21h20.49.995,kallum_motion_pilot,2023.2.2,Win32,59.17159763,5e938e072a4ce9077f8157b9,65d6bb0e977760de756971f7,65d6bd46994906782921cd9b,0.1947,0.1948,1,99,261,132,1,sevenfive,,,,,,,,,,,,,,,,,,,,,,,,,,,,,,,,,,,,,,,,,,,,,,,,,,,,,,,,,,,,,,,,,,,,,,,,,,,,,,,,,,,,,,,,,,,,,,,,,,,,,,,,,,,,,,,,,,,,,,,,,,,,,,,,,,,,,,,,,
,,5e938e072a4ce9077f8157b9,2024-02-21_21h20.49.995,kallum_motion_pilot,2023.2.2,Win32,59.17159763,5e938e072a4ce9077f8157b9,65d6bb0e977760de756971f7,65d6bd46994906782921cd9b,0.1949,0.195,1,100,262,17,1,onethree,,,,,,,,,,,,,,,,,,,,,,,,,,,,,,,,,,,,,,,,,,,,,,,,,,,,,,,,,,,,,,,,,,,,,,,,,,,,,,,,,,,,,,,,,,,,,,,,,,,,,,,,,,,,,,,,,,,,,,,,,,,,,,,,,,,,,,,,,
,,5e938e072a4ce9077f8157b9,2024-02-21_21h20.49.995,kallum_motion_pilot,2023.2.2,Win32,59.17159763,5e938e072a4ce9077f8157b9,65d6bb0e977760de756971f7,65d6bd46994906782921cd9b,0.1951,0.1951,1,101,263,97,1,fiveseven,,,,,,,,,,,,,,,,,,,,,,,,,,,,,,,,,,,,,,,,,,,,,,,,,,,,,,,,,,,,,,,,,,,,,,,,,,,,,,,,,,,,,,,,,,,,,,,,,,,,,,,,,,,,,,,,,,,,,,,,,,,,,,,,,,,,,,,,,
,,5e938e072a4ce9077f8157b9,2024-02-21_21h20.49.995,kallum_motion_pilot,2023.2.2,Win32,59.17159763,5e938e072a4ce9077f8157b9,65d6bb0e977760de756971f7,65d6bd46994906782921cd9b,0.1953,0.1954,1,102,264,86,1,eightsix,,,,,,,,,,,,,,,,,,,,,,,,,,,,,,,,,,,,,,,,,,,,,,,,,,,,,,,,,,,,,,,,,,,,,,,,,,,,,,,,,,,,,,,,,,,,,,,,,,,,,,,,,,,,,,,,,,,,,,,,,,,,,,,,,,,,,,,,,
,,5e938e072a4ce9077f8157b9,2024-02-21_21h20.49.995,kallum_motion_pilot,2023.2.2,Win32,59.17159763,5e938e072a4ce9077f8157b9,65d6bb0e977760de756971f7,65d6bd46994906782921cd9b,0.1956,0.1957,1,103,265,31,1,fourthree,,,,,,,,,,,,,,,,,,,,,,,,,,,,,,,,,,,,,,,,,,,,,,,,,,,,,,,,,,,,,,,,,,,,,,,,,,,,,,,,,,,,,,,,,,,,,,,,,,,,,,,,,,,,,,,,,,,,,,,,,,,,,,,,,,,,,,,,,
,,5e938e072a4ce9077f8157b9,2024-02-21_21h20.49.995,kallum_motion_pilot,2023.2.2,Win32,59.17159763,5e938e072a4ce9077f8157b9,65d6bb0e977760de756971f7,65d6bd46994906782921cd9b,0.1958,0.1959,1,104,266,19,1,twofour,,,,,,,,,,,,,,,,,,,,,,,,,,,,,,,,,,,,,,,,,,,,,,,,,,,,,,,,,,,,,,,,,,,,,,,,,,,,,,,,,,,,,,,,,,,,,,,,,,,,,,,,,,,,,,,,,,,,,,,,,,,,,,,,,,,,,,,,,
,,5e938e072a4ce9077f8157b9,2024-02-21_21h20.49.995,kallum_motion_pilot,2023.2.2,Win32,59.17159763,5e938e072a4ce9077f8157b9,65d6bb0e977760de756971f7,65d6bd46994906782921cd9b,0.1961,0.1962,1,105,267,11,1,twofour,,,,,,,,,,,,,,,,,,,,,,,,,,,,,,,,,,,,,,,,,,,,,,,,,,,,,,,,,,,,,,,,,,,,,,,,,,,,,,,,,,,,,,,,,,,,,,,,,,,,,,,,,,,,,,,,,,,,,,,,,,,,,,,,,,,,,,,,,
,,5e938e072a4ce9077f8157b9,2024-02-21_21h20.49.995,kallum_motion_pilot,2023.2.2,Win32,59.17159763,5e938e072a4ce9077f8157b9,65d6bb0e977760de756971f7,65d6bd46994906782921cd9b,0.1963,0.1964,1,106,268,79,1,eightseven,,,,,,,,,,,,,,,,,,,,,,,,,,,,,,,,,,,,,,,,,,,,,,,,,,,,,,,,,,,,,,,,,,,,,,,,,,,,,,,,,,,,,,,,,,,,,,,,,,,,,,,,,,,,,,,,,,,,,,,,,,,,,,,,,,,,,,,,,
,,5e938e072a4ce9077f8157b9,2024-02-21_21h20.49.995,kallum_motion_pilot,2023.2.2,Win32,59.17159763,5e938e072a4ce9077f8157b9,65d6bb0e977760de756971f7,65d6bd46994906782921cd9b,0.1964,0.1966,1,107,269,62,1,fourtwo,,,,,,,,,,,,,,,,,,,,,,,,,,,,,,,,,,,,,,,,,,,,,,,,,,,,,,,,,,,,,,,,,,,,,,,,,,,,,,,,,,,,,,,,,,,,,,,,,,,,,,,,,,,,,,,,,,,,,,,,,,,,,,,,,,,,,,,,,
,,5e938e072a4ce9077f8157b9,2024-02-21_21h20.49.995,kallum_motion_pilot,2023.2.2,Win32,59.17159763,5e938e072a4ce9077f8157b9,65d6bb0e977760de756971f7,65d6bd46994906782921cd9b,0.1966,0.1967,1,108,270,158,1,eightsix,,,,,,,,,,,,,,,,,,,,,,,,,,,,,,,,,,,,,,,,,,,,,,,,,,,,,,,,,,,,,,,,,,,,,,,,,,,,,,,,,,,,,,,,,,,,,,,,,,,,,,,,,,,,,,,,,,,,,,,,,,,,,,,,,,,,,,,,,
,,5e938e072a4ce9077f8157b9,2024-02-21_21h20.49.995,kallum_motion_pilot,2023.2.2,Win32,59.17159763,5e938e072a4ce9077f8157b9,65d6bb0e977760de756971f7,65d6bd46994906782921cd9b,0.1969,0.1969,1,109,271,135,1,eightseven,,,,,,,,,,,,,,,,,,,,,,,,,,,,,,,,,,,,,,,,,,,,,,,,,,,,,,,,,,,,,,,,,,,,,,,,,,,,,,,,,,,,,,,,,,,,,,,,,,,,,,,,,,,,,,,,,,,,,,,,,,,,,,,,,,,,,,,,,
,,5e938e072a4ce9077f8157b9,2024-02-21_21h20.49.995,kallum_motion_pilot,2023.2.2,Win32,59.17159763,5e938e072a4ce9077f8157b9,65d6bb0e977760de756971f7,65d6bd46994906782921cd9b,0.197,0.1971,1,110,272,39,1,fourthree,,,,,,,,,,,,,,,,,,,,,,,,,,,,,,,,,,,,,,,,,,,,,,,,,,,,,,,,,,,,,,,,,,,,,,,,,,,,,,,,,,,,,,,,,,,,,,,,,,,,,,,,,,,,,,,,,,,,,,,,,,,,,,,,,,,,,,,,,
,,5e938e072a4ce9077f8157b9,2024-02-21_21h20.49.995,kallum_motion_pilot,2023.2.2,Win32,59.17159763,5e938e072a4ce9077f8157b9,65d6bb0e977760de756971f7,65d6bd46994906782921cd9b,0.1972,0.1973,1,111,273,32,1,onetwo,,,,,,,,,,,,,,,,,,,,,,,,,,,,,,,,,,,,,,,,,,,,,,,,,,,,,,,,,,,,,,,,,,,,,,,,,,,,,,,,,,,,,,,,,,,,,,,,,,,,,,,,,,,,,,,,,,,,,,,,,,,,,,,,,,,,,,,,,
,,5e938e072a4ce9077f8157b9,2024-02-21_21h20.49.995,kallum_motion_pilot,2023.2.2,Win32,59.17159763,5e938e072a4ce9077f8157b9,65d6bb0e977760de756971f7,65d6bd46994906782921cd9b,0.1974,0.1975,1,112,274,113,1,fiveseven,,,,,,,,,,,,,,,,,,,,,,,,,,,,,,,,,,,,,,,,,,,,,,,,,,,,,,,,,,,,,,,,,,,,,,,,,,,,,,,,,,,,,,,,,,,,,,,,,,,,,,,,,,,,,,,,,,,,,,,,,,,,,,,,,,,,,,,,,
,,5e938e072a4ce9077f8157b9,2024-02-21_21h20.49.995,kallum_motion_pilot,2023.2.2,Win32,59.17159763,5e938e072a4ce9077f8157b9,65d6bb0e977760de756971f7,65d6bd46994906782921cd9b,0.1976,0.1977,1,113,275,30,1,fourtwo,,,,,,,,,,,,,,,,,,,,,,,,,,,,,,,,,,,,,,,,,,,,,,,,,,,,,,,,,,,,,,,,,,,,,,,,,,,,,,,,,,,,,,,,,,,,,,,,,,,,,,,,,,,,,,,,,,,,,,,,,,,,,,,,,,,,,,,,,
,,5e938e072a4ce9077f8157b9,2024-02-21_21h20.49.995,kallum_motion_pilot,2023.2.2,Win32,59.17159763,5e938e072a4ce9077f8157b9,65d6bb0e977760de756971f7,65d6bd46994906782921cd9b,0.1978,0.1978,1,114,276,55,1,fourthree,,,,,,,,,,,,,,,,,,,,,,,,,,,,,,,,,,,,,,,,,,,,,,,,,,,,,,,,,,,,,,,,,,,,,,,,,,,,,,,,,,,,,,,,,,,,,,,,,,,,,,,,,,,,,,,,,,,,,,,,,,,,,,,,,,,,,,,,,
,,5e938e072a4ce9077f8157b9,2024-02-21_21h20.49.995,kallum_motion_pilot,2023.2.2,Win32,59.17159763,5e938e072a4ce9077f8157b9,65d6bb0e977760de756971f7,65d6bd46994906782921cd9b,0.198,0.1981,1,115,277,142,1,eightsix,,,,,,,,,,,,,,,,,,,,,,,,,,,,,,,,,,,,,,,,,,,,,,,,,,,,,,,,,,,,,,,,,,,,,,,,,,,,,,,,,,,,,,,,,,,,,,,,,,,,,,,,,,,,,,,,,,,,,,,,,,,,,,,,,,,,,,,,,
