startup.started,startup.stopped,Prolific ID*,date,expName,psychopyVersion,OS,frameRate,participant,study_id,session,stimpositions.started,stimpositions.stopped,hardcoded_stimulus_positions.thisRepN,hardcoded_stimulus_positions.thisTrialN,hardcoded_stimulus_positions.thisN,hardcoded_stimulus_positions.thisIndex,hardcoded_stimulus_positions.ran,StimulusPos,stimorientation.started,stimorientation.stopped,prac_stimorientation_import_loop.thisRepN,prac_stimorientation_import_loop.thisTrialN,prac_stimorientation_import_loop.thisN,prac_stimorientation_import_loop.thisIndex,prac_stimorientation_import_loop.ran,Stimorientation,welcome_instr.started,welcome_instr.stopped,key_resp.keys,key_resp.rt,key_resp.duration,response_steppedout_1.started,response_steppedout_1.stopped,key_resp_20.keys,key_resp_20.rt,key_resp_20.duration,response_steppedout_2.started,response_steppedout_2.stopped,key_resp_19.keys,key_resp_19.rt,key_resp_19.duration,stim_response_instr.started,stim_response_instr.stopped,key_resp_15.keys,key_resp_15.rt,key_resp_15.duration,direction_instr_2.started,direction_instr_2.stopped,key_resp_9.keys,key_resp_9.rt,key_resp_9.duration,instr_prac.started,instr_prac.stopped,key_resp_10.keys,key_resp_10.rt,key_resp_10.duration,Stim1_display_prac.started,Stim1_display_prac.stopped,Ecc,Circle1_ori,Circle2_ori,response_prac.started,similarity,response_time,response_prac.stopped,mouse_5.x,mouse_5.y,mouse_5.leftButton,mouse_5.midButton,mouse_5.rightButton,mouse_5.clicked_name,responseprac_feedback.started,responseprac_feedback.stopped,summary2_prac.started,summary2_prac.stopped,mouse_6.x,mouse_6.y,mouse_6.leftButton,mouse_6.midButton,mouse_6.rightButton,mouse_6.clicked_name,duringprac.thisRepN,duringprac.thisTrialN,duringprac.thisN,duringprac.thisIndex,duringprac.ran,begin.started,begin.stopped,key_resp_22.keys,key_resp_22.rt,key_resp_22.duration,Stim1_display.started,Stim1_display.stopped,circle1_ori,circle2_ori,circle1_SF,circle2_SF,response.started,response.stopped,mouse.x,mouse.y,mouse.leftButton,mouse.midButton,mouse.rightButton,mouse.clicked_name,trialnumber,double_pass.thisRepN,double_pass.thisTrialN,double_pass.thisN,double_pass.thisIndex,double_pass.ran,double_pass.order,main_trial.thisRepN,main_trial.thisTrialN,main_trial.thisN,main_trial.thisIndex,main_trial.ran,main_trial.order,Trial_Counter,Catch,Frequencies,response_2.started,response_2.stopped,mouse_2.x,mouse_2.y,mouse_2.leftButton,mouse_2.midButton,mouse_2.rightButton,mouse_2.clicked_name,special_trial.started,special_trial.stopped,catch_1.started,catch_1.stopped,mouse_3.x,mouse_3.y,mouse_3.leftButton,mouse_3.midButton,mouse_3.rightButton,catchresponse,catchnumber,response_time_catch,response_sum.started,response_sum.stopped,mouse_11.x,mouse_11.y,mouse_11.leftButton,mouse_11.midButton,mouse_11.rightButton,flip_presentation_sequence_for_double_pass.started,flip_presentation_sequence_for_double_pass.stopped,goodbye.started,goodbye.stopped,key_resp_3.keys,key_resp_3.rt,key_resp_3.duration
0.0004,0.0005,5e9cc0fabfffb50009c9fd15,2024-02-22_03h24.15.836,kallum_motion_pilot,2023.2.2,Win32,140.8450704,5e9cc0fabfffb50009c9fd15,65d6bb0e977760de756971f7,65d6be41dab6027eb01ed59d,,,,,,,,,,,,,,,,,,,,,,,,,,,,,,,,,,,,,,,,,,,,,,,,,,,,,,,,,,,,,,,,,,,,,,,,,,,,,,,,,,,,,,,,,,,,,,,,,,,,,,,,,,,,,,,,,,,,,,,,,,,,,,,,,,,,,,,,,,,,,,,,,
,,5e9cc0fabfffb50009c9fd15,2024-02-22_03h24.15.836,kallum_motion_pilot,2023.2.2,Win32,140.8450704,5e9cc0fabfffb50009c9fd15,65d6bb0e977760de756971f7,65d6be41dab6027eb01ed59d,0.0181,0.0183,0,0,0,100,1,sevenfive,,,,,,,,,,,,,,,,,,,,,,,,,,,,,,,,,,,,,,,,,,,,,,,,,,,,,,,,,,,,,,,,,,,,,,,,,,,,,,,,,,,,,,,,,,,,,,,,,,,,,,,,,,,,,,,,,,,,,,,,,,,,,,,,,,,,,,,,,
,,5e9cc0fabfffb50009c9fd15,2024-02-22_03h24.15.836,kallum_motion_pilot,2023.2.2,Win32,140.8450704,5e9cc0fabfffb50009c9fd15,65d6bb0e977760de756971f7,65d6be41dab6027eb01ed59d,0.0184,0.0185,0,1,1,87,1,eightseven,,,,,,,,,,,,,,,,,,,,,,,,,,,,,,,,,,,,,,,,,,,,,,,,,,,,,,,,,,,,,,,,,,,,,,,,,,,,,,,,,,,,,,,,,,,,,,,,,,,,,,,,,,,,,,,,,,,,,,,,,,,,,,,,,,,,,,,,,
,,5e9cc0fabfffb50009c9fd15,2024-02-22_03h24.15.836,kallum_motion_pilot,2023.2.2,Win32,140.8450704,5e9cc0fabfffb50009c9fd15,65d6bb0e977760de756971f7,65d6be41dab6027eb01ed59d,0.0186,0.0186,0,2,2,59,1,twofour,,,,,,,,,,,,,,,,,,,,,,,,,,,,,,,,,,,,,,,,,,,,,,,,,,,,,,,,,,,,,,,,,,,,,,,,,,,,,,,,,,,,,,,,,,,,,,,,,,,,,,,,,,,,,,,,,,,,,,,,,,,,,,,,,,,,,,,,,
,,5e9cc0fabfffb50009c9fd15,2024-02-22_03h24.15.836,kallum_motion_pilot,2023.2.2,Win32,140.8450704,5e9cc0fabfffb50009c9fd15,65d6bb0e977760de756971f7,65d6be41dab6027eb01ed59d,0.0187,0.0187,0,3,3,10,1,twoone,,,,,,,,,,,,,,,,,,,,,,,,,,,,,,,,,,,,,,,,,,,,,,,,,,,,,,,,,,,,,,,,,,,,,,,,,,,,,,,,,,,,,,,,,,,,,,,,,,,,,,,,,,,,,,,,,,,,,,,,,,,,,,,,,,,,,,,,,
,,5e9cc0fabfffb50009c9fd15,2024-02-22_03h24.15.836,kallum_motion_pilot,2023.2.2,Win32,140.8450704,5e9cc0fabfffb50009c9fd15,65d6bb0e977760de756971f7,65d6be41dab6027eb01ed59d,0.0188,0.0188,0,4,4,141,1,seveneight,,,,,,,,,,,,,,,,,,,,,,,,,,,,,,,,,,,,,,,,,,,,,,,,,,,,,,,,,,,,,,,,,,,,,,,,,,,,,,,,,,,,,,,,,,,,,,,,,,,,,,,,,,,,,,,,,,,,,,,,,,,,,,,,,,,,,,,,,
,,5e9cc0fabfffb50009c9fd15,2024-02-22_03h24.15.836,kallum_motion_pilot,2023.2.2,Win32,140.8450704,5e9cc0fabfffb50009c9fd15,65d6bb0e977760de756971f7,65d6be41dab6027eb01ed59d,0.0189,0.0189,0,5,5,99,1,sixeight,,,,,,,,,,,,,,,,,,,,,,,,,,,,,,,,,,,,,,,,,,,,,,,,,,,,,,,,,,,,,,,,,,,,,,,,,,,,,,,,,,,,,,,,,,,,,,,,,,,,,,,,,,,,,,,,,,,,,,,,,,,,,,,,,,,,,,,,,
,,5e9cc0fabfffb50009c9fd15,2024-02-22_03h24.15.836,kallum_motion_pilot,2023.2.2,Win32,140.8450704,5e9cc0fabfffb50009c9fd15,65d6bb0e977760de756971f7,65d6be41dab6027eb01ed59d,0.019,0.019,0,6,6,125,1,seveneight,,,,,,,,,,,,,,,,,,,,,,,,,,,,,,,,,,,,,,,,,,,,,,,,,,,,,,,,,,,,,,,,,,,,,,,,,,,,,,,,,,,,,,,,,,,,,,,,,,,,,,,,,,,,,,,,,,,,,,,,,,,,,,,,,,,,,,,,,
,,5e9cc0fabfffb50009c9fd15,2024-02-22_03h24.15.836,kallum_motion_pilot,2023.2.2,Win32,140.8450704,5e9cc0fabfffb50009c9fd15,65d6bb0e977760de756971f7,65d6be41dab6027eb01ed59d,0.0191,0.0192,0,7,7,58,1,twoone,,,,,,,,,,,,,,,,,,,,,,,,,,,,,,,,,,,,,,,,,,,,,,,,,,,,,,,,,,,,,,,,,,,,,,,,,,,,,,,,,,,,,,,,,,,,,,,,,,,,,,,,,,,,,,,,,,,,,,,,,,,,,,,,,,,,,,,,,
,,5e9cc0fabfffb50009c9fd15,2024-02-22_03h24.15.836,kallum_motion_pilot,2023.2.2,Win32,140.8450704,5e9cc0fabfffb50009c9fd15,65d6bb0e977760de756971f7,65d6be41dab6027eb01ed59d,0.0192,0.0192,0,8,8,39,1,fourthree,,,,,,,,,,,,,,,,,,,,,,,,,,,,,,,,,,,,,,,,,,,,,,,,,,,,,,,,,,,,,,,,,,,,,,,,,,,,,,,,,,,,,,,,,,,,,,,,,,,,,,,,,,,,,,,,,,,,,,,,,,,,,,,,,,,,,,,,,
,,5e9cc0fabfffb50009c9fd15,2024-02-22_03h24.15.836,kallum_motion_pilot,2023.2.2,Win32,140.8450704,5e9cc0fabfffb50009c9fd15,65d6bb0e977760de756971f7,65d6be41dab6027eb01ed59d,0.0194,0.0194,0,9,9,142,1,eightsix,,,,,,,,,,,,,,,,,,,,,,,,,,,,,,,,,,,,,,,,,,,,,,,,,,,,,,,,,,,,,,,,,,,,,,,,,,,,,,,,,,,,,,,,,,,,,,,,,,,,,,,,,,,,,,,,,,,,,,,,,,,,,,,,,,,,,,,,,
,,5e9cc0fabfffb50009c9fd15,2024-02-22_03h24.15.836,kallum_motion_pilot,2023.2.2,Win32,140.8450704,5e9cc0fabfffb50009c9fd15,65d6bb0e977760de756971f7,65d6be41dab6027eb01ed59d,0.0195,0.0195,0,10,10,12,1,threeone,,,,,,,,,,,,,,,,,,,,,,,,,,,,,,,,,,,,,,,,,,,,,,,,,,,,,,,,,,,,,,,,,,,,,,,,,,,,,,,,,,,,,,,,,,,,,,,,,,,,,,,,,,,,,,,,,,,,,,,,,,,,,,,,,,,,,,,,,
,,5e9cc0fabfffb50009c9fd15,2024-02-22_03h24.15.836,kallum_motion_pilot,2023.2.2,Win32,140.8450704,5e9cc0fabfffb50009c9fd15,65d6bb0e977760de756971f7,65d6be41dab6027eb01ed59d,0.0195,0.0195,0,11,11,118,1,eightsix,,,,,,,,,,,,,,,,,,,,,,,,,,,,,,,,,,,,,,,,,,,,,,,,,,,,,,,,,,,,,,,,,,,,,,,,,,,,,,,,,,,,,,,,,,,,,,,,,,,,,,,,,,,,,,,,,,,,,,,,,,,,,,,,,,,,,,,,,
,,5e9cc0fabfffb50009c9fd15,2024-02-22_03h24.15.836,kallum_motion_pilot,2023.2.2,Win32,140.8450704,5e9cc0fabfffb50009c9fd15,65d6bb0e977760de756971f7,65d6be41dab6027eb01ed59d,0.0196,0.0196,0,12,12,126,1,eightsix,,,,,,,,,,,,,,,,,,,,,,,,,,,,,,,,,,,,,,,,,,,,,,,,,,,,,,,,,,,,,,,,,,,,,,,,,,,,,,,,,,,,,,,,,,,,,,,,,,,,,,,,,,,,,,,,,,,,,,,,,,,,,,,,,,,,,,,,,
,,5e9cc0fabfffb50009c9fd15,2024-02-22_03h24.15.836,kallum_motion_pilot,2023.2.2,Win32,140.8450704,5e9cc0fabfffb50009c9fd15,65d6bb0e977760de756971f7,65d6be41dab6027eb01ed59d,0.0197,0.0197,0,13,13,4,1,threeone,,,,,,,,,,,,,,,,,,,,,,,,,,,,,,,,,,,,,,,,,,,,,,,,,,,,,,,,,,,,,,,,,,,,,,,,,,,,,,,,,,,,,,,,,,,,,,,,,,,,,,,,,,,,,,,,,,,,,,,,,,,,,,,,,,,,,,,,,
,,5e9cc0fabfffb50009c9fd15,2024-02-22_03h24.15.836,kallum_motion_pilot,2023.2.2,Win32,140.8450704,5e9cc0fabfffb50009c9fd15,65d6bb0e977760de756971f7,65d6be41dab6027eb01ed59d,0.0198,0.0198,0,14,14,86,1,eightsix,,,,,,,,,,,,,,,,,,,,,,,,,,,,,,,,,,,,,,,,,,,,,,,,,,,,,,,,,,,,,,,,,,,,,,,,,,,,,,,,,,,,,,,,,,,,,,,,,,,,,,,,,,,,,,,,,,,,,,,,,,,,,,,,,,,,,,,,,
,,5e9cc0fabfffb50009c9fd15,2024-02-22_03h24.15.836,kallum_motion_pilot,2023.2.2,Win32,140.8450704,5e9cc0fabfffb50009c9fd15,65d6bb0e977760de756971f7,65d6be41dab6027eb01ed59d,0.0199,0.0199,0,15,15,83,1,sixeight,,,,,,,,,,,,,,,,,,,,,,,,,,,,,,,,,,,,,,,,,,,,,,,,,,,,,,,,,,,,,,,,,,,,,,,,,,,,,,,,,,,,,,,,,,,,,,,,,,,,,,,,,,,,,,,,,,,,,,,,,,,,,,,,,,,,,,,,,
,,5e9cc0fabfffb50009c9fd15,2024-02-22_03h24.15.836,kallum_motion_pilot,2023.2.2,Win32,140.8450704,5e9cc0fabfffb50009c9fd15,65d6bb0e977760de756971f7,65d6be41dab6027eb01ed59d,0.0209,0.021,0,16,16,66,1,twoone,,,,,,,,,,,,,,,,,,,,,,,,,,,,,,,,,,,,,,,,,,,,,,,,,,,,,,,,,,,,,,,,,,,,,,,,,,,,,,,,,,,,,,,,,,,,,,,,,,,,,,,,,,,,,,,,,,,,,,,,,,,,,,,,,,,,,,,,,
,,5e9cc0fabfffb50009c9fd15,2024-02-22_03h24.15.836,kallum_motion_pilot,2023.2.2,Win32,140.8450704,5e9cc0fabfffb50009c9fd15,65d6bb0e977760de756971f7,65d6be41dab6027eb01ed59d,0.021,0.021,0,17,17,11,1,twofour,,,,,,,,,,,,,,,,,,,,,,,,,,,,,,,,,,,,,,,,,,,,,,,,,,,,,,,,,,,,,,,,,,,,,,,,,,,,,,,,,,,,,,,,,,,,,,,,,,,,,,,,,,,,,,,,,,,,,,,,,,,,,,,,,,,,,,,,,
,,5e9cc0fabfffb50009c9fd15,2024-02-22_03h24.15.836,kallum_motion_pilot,2023.2.2,Win32,140.8450704,5e9cc0fabfffb50009c9fd15,65d6bb0e977760de756971f7,65d6be41dab6027eb01ed59d,0.0212,0.0212,0,18,18,26,1,twoone,,,,,,,,,,,,,,,,,,,,,,,,,,,,,,,,,,,,,,,,,,,,,,,,,,,,,,,,,,,,,,,,,,,,,,,,,,,,,,,,,,,,,,,,,,,,,,,,,,,,,,,,,,,,,,,,,,,,,,,,,,,,,,,,,,,,,,,,,
,,5e9cc0fabfffb50009c9fd15,2024-02-22_03h24.15.836,kallum_motion_pilot,2023.2.2,Win32,140.8450704,5e9cc0fabfffb50009c9fd15,65d6bb0e977760de756971f7,65d6be41dab6027eb01ed59d,0.0213,0.0213,0,19,19,91,1,sixeight,,,,,,,,,,,,,,,,,,,,,,,,,,,,,,,,,,,,,,,,,,,,,,,,,,,,,,,,,,,,,,,,,,,,,,,,,,,,,,,,,,,,,,,,,,,,,,,,,,,,,,,,,,,,,,,,,,,,,,,,,,,,,,,,,,,,,,,,,
,,5e9cc0fabfffb50009c9fd15,2024-02-22_03h24.15.836,kallum_motion_pilot,2023.2.2,Win32,140.8450704,5e9cc0fabfffb50009c9fd15,65d6bb0e977760de756971f7,65d6be41dab6027eb01ed59d,0.0213,0.0213,0,20,20,72,1,onetwo,,,,,,,,,,,,,,,,,,,,,,,,,,,,,,,,,,,,,,,,,,,,,,,,,,,,,,,,,,,,,,,,,,,,,,,,,,,,,,,,,,,,,,,,,,,,,,,,,,,,,,,,,,,,,,,,,,,,,,,,,,,,,,,,,,,,,,,,,
,,5e9cc0fabfffb50009c9fd15,2024-02-22_03h24.15.836,kallum_motion_pilot,2023.2.2,Win32,140.8450704,5e9cc0fabfffb50009c9fd15,65d6bb0e977760de756971f7,65d6be41dab6027eb01ed59d,0.0214,0.0214,0,21,21,76,1,threeone,,,,,,,,,,,,,,,,,,,,,,,,,,,,,,,,,,,,,,,,,,,,,,,,,,,,,,,,,,,,,,,,,,,,,,,,,,,,,,,,,,,,,,,,,,,,,,,,,,,,,,,,,,,,,,,,,,,,,,,,,,,,,,,,,,,,,,,,,
,,5e9cc0fabfffb50009c9fd15,2024-02-22_03h24.15.836,kallum_motion_pilot,2023.2.2,Win32,140.8450704,5e9cc0fabfffb50009c9fd15,65d6bb0e977760de756971f7,65d6be41dab6027eb01ed59d,0.0215,0.0215,0,22,22,77,1,threefour,,,,,,,,,,,,,,,,,,,,,,,,,,,,,,,,,,,,,,,,,,,,,,,,,,,,,,,,,,,,,,,,,,,,,,,,,,,,,,,,,,,,,,,,,,,,,,,,,,,,,,,,,,,,,,,,,,,,,,,,,,,,,,,,,,,,,,,,,
,,5e9cc0fabfffb50009c9fd15,2024-02-22_03h24.15.836,kallum_motion_pilot,2023.2.2,Win32,140.8450704,5e9cc0fabfffb50009c9fd15,65d6bb0e977760de756971f7,65d6be41dab6027eb01ed59d,0.0216,0.0216,0,23,23,148,1,sevenfive,,,,,,,,,,,,,,,,,,,,,,,,,,,,,,,,,,,,,,,,,,,,,,,,,,,,,,,,,,,,,,,,,,,,,,,,,,,,,,,,,,,,,,,,,,,,,,,,,,,,,,,,,,,,,,,,,,,,,,,,,,,,,,,,,,,,,,,,,
,,5e9cc0fabfffb50009c9fd15,2024-02-22_03h24.15.836,kallum_motion_pilot,2023.2.2,Win32,140.8450704,5e9cc0fabfffb50009c9fd15,65d6bb0e977760de756971f7,65d6be41dab6027eb01ed59d,0.0217,0.0217,0,24,24,146,1,sixfive,,,,,,,,,,,,,,,,,,,,,,,,,,,,,,,,,,,,,,,,,,,,,,,,,,,,,,,,,,,,,,,,,,,,,,,,,,,,,,,,,,,,,,,,,,,,,,,,,,,,,,,,,,,,,,,,,,,,,,,,,,,,,,,,,,,,,,,,,
,,5e9cc0fabfffb50009c9fd15,2024-02-22_03h24.15.836,kallum_motion_pilot,2023.2.2,Win32,140.8450704,5e9cc0fabfffb50009c9fd15,65d6bb0e977760de756971f7,65d6be41dab6027eb01ed59d,0.0217,0.0217,0,25,25,64,1,onetwo,,,,,,,,,,,,,,,,,,,,,,,,,,,,,,,,,,,,,,,,,,,,,,,,,,,,,,,,,,,,,,,,,,,,,,,,,,,,,,,,,,,,,,,,,,,,,,,,,,,,,,,,,,,,,,,,,,,,,,,,,,,,,,,,,,,,,,,,,
,,5e9cc0fabfffb50009c9fd15,2024-02-22_03h24.15.836,kallum_motion_pilot,2023.2.2,Win32,140.8450704,5e9cc0fabfffb50009c9fd15,65d6bb0e977760de756971f7,65d6be41dab6027eb01ed59d,0.0218,0.0218,0,26,26,3,1,twofour,,,,,,,,,,,,,,,,,,,,,,,,,,,,,,,,,,,,,,,,,,,,,,,,,,,,,,,,,,,,,,,,,,,,,,,,,,,,,,,,,,,,,,,,,,,,,,,,,,,,,,,,,,,,,,,,,,,,,,,,,,,,,,,,,,,,,,,,,
,,5e9cc0fabfffb50009c9fd15,2024-02-22_03h24.15.836,kallum_motion_pilot,2023.2.2,Win32,140.8450704,5e9cc0fabfffb50009c9fd15,65d6bb0e977760de756971f7,65d6be41dab6027eb01ed59d,0.0218,0.0218,0,27,27,104,1,fivesix,,,,,,,,,,,,,,,,,,,,,,,,,,,,,,,,,,,,,,,,,,,,,,,,,,,,,,,,,,,,,,,,,,,,,,,,,,,,,,,,,,,,,,,,,,,,,,,,,,,,,,,,,,,,,,,,,,,,,,,,,,,,,,,,,,,,,,,,,
,,5e9cc0fabfffb50009c9fd15,2024-02-22_03h24.15.836,kallum_motion_pilot,2023.2.2,Win32,140.8450704,5e9cc0fabfffb50009c9fd15,65d6bb0e977760de756971f7,65d6be41dab6027eb01ed59d,0.022,0.022,0,28,28,51,1,twofour,,,,,,,,,,,,,,,,,,,,,,,,,,,,,,,,,,,,,,,,,,,,,,,,,,,,,,,,,,,,,,,,,,,,,,,,,,,,,,,,,,,,,,,,,,,,,,,,,,,,,,,,,,,,,,,,,,,,,,,,,,,,,,,,,,,,,,,,,
,,5e9cc0fabfffb50009c9fd15,2024-02-22_03h24.15.836,kallum_motion_pilot,2023.2.2,Win32,140.8450704,5e9cc0fabfffb50009c9fd15,65d6bb0e977760de756971f7,65d6be41dab6027eb01ed59d,0.022,0.022,0,29,29,65,1,onethree,,,,,,,,,,,,,,,,,,,,,,,,,,,,,,,,,,,,,,,,,,,,,,,,,,,,,,,,,,,,,,,,,,,,,,,,,,,,,,,,,,,,,,,,,,,,,,,,,,,,,,,,,,,,,,,,,,,,,,,,,,,,,,,,,,,,,,,,,
,,5e9cc0fabfffb50009c9fd15,2024-02-22_03h24.15.836,kallum_motion_pilot,2023.2.2,Win32,140.8450704,5e9cc0fabfffb50009c9fd15,65d6bb0e977760de756971f7,65d6be41dab6027eb01ed59d,0.0221,0.0221,0,30,30,61,1,threefour,,,,,,,,,,,,,,,,,,,,,,,,,,,,,,,,,,,,,,,,,,,,,,,,,,,,,,,,,,,,,,,,,,,,,,,,,,,,,,,,,,,,,,,,,,,,,,,,,,,,,,,,,,,,,,,,,,,,,,,,,,,,,,,,,,,,,,,,,
,,5e9cc0fabfffb50009c9fd15,2024-02-22_03h24.15.836,kallum_motion_pilot,2023.2.2,Win32,140.8450704,5e9cc0fabfffb50009c9fd15,65d6bb0e977760de756971f7,65d6be41dab6027eb01ed59d,0.0222,0.0222,0,31,31,40,1,onetwo,,,,,,,,,,,,,,,,,,,,,,,,,,,,,,,,,,,,,,,,,,,,,,,,,,,,,,,,,,,,,,,,,,,,,,,,,,,,,,,,,,,,,,,,,,,,,,,,,,,,,,,,,,,,,,,,,,,,,,,,,,,,,,,,,,,,,,,,,
,,5e9cc0fabfffb50009c9fd15,2024-02-22_03h24.15.836,kallum_motion_pilot,2023.2.2,Win32,140.8450704,5e9cc0fabfffb50009c9fd15,65d6bb0e977760de756971f7,65d6be41dab6027eb01ed59d,0.0222,0.0223,0,32,32,106,1,sixfive,,,,,,,,,,,,,,,,,,,,,,,,,,,,,,,,,,,,,,,,,,,,,,,,,,,,,,,,,,,,,,,,,,,,,,,,,,,,,,,,,,,,,,,,,,,,,,,,,,,,,,,,,,,,,,,,,,,,,,,,,,,,,,,,,,,,,,,,,
,,5e9cc0fabfffb50009c9fd15,2024-02-22_03h24.15.836,kallum_motion_pilot,2023.2.2,Win32,140.8450704,5e9cc0fabfffb50009c9fd15,65d6bb0e977760de756971f7,65d6be41dab6027eb01ed59d,0.0223,0.0223,0,33,33,149,1,seveneight,,,,,,,,,,,,,,,,,,,,,,,,,,,,,,,,,,,,,,,,,,,,,,,,,,,,,,,,,,,,,,,,,,,,,,,,,,,,,,,,,,,,,,,,,,,,,,,,,,,,,,,,,,,,,,,,,,,,,,,,,,,,,,,,,,,,,,,,,
,,5e9cc0fabfffb50009c9fd15,2024-02-22_03h24.15.836,kallum_motion_pilot,2023.2.2,Win32,140.8450704,5e9cc0fabfffb50009c9fd15,65d6bb0e977760de756971f7,65d6be41dab6027eb01ed59d,0.0224,0.0225,0,34,34,47,1,fourthree,,,,,,,,,,,,,,,,,,,,,,,,,,,,,,,,,,,,,,,,,,,,,,,,,,,,,,,,,,,,,,,,,,,,,,,,,,,,,,,,,,,,,,,,,,,,,,,,,,,,,,,,,,,,,,,,,,,,,,,,,,,,,,,,,,,,,,,,,
,,5e9cc0fabfffb50009c9fd15,2024-02-22_03h24.15.836,kallum_motion_pilot,2023.2.2,Win32,140.8450704,5e9cc0fabfffb50009c9fd15,65d6bb0e977760de756971f7,65d6be41dab6027eb01ed59d,0.0225,0.0225,0,35,35,132,1,sevenfive,,,,,,,,,,,,,,,,,,,,,,,,,,,,,,,,,,,,,,,,,,,,,,,,,,,,,,,,,,,,,,,,,,,,,,,,,,,,,,,,,,,,,,,,,,,,,,,,,,,,,,,,,,,,,,,,,,,,,,,,,,,,,,,,,,,,,,,,,
,,5e9cc0fabfffb50009c9fd15,2024-02-22_03h24.15.836,kallum_motion_pilot,2023.2.2,Win32,140.8450704,5e9cc0fabfffb50009c9fd15,65d6bb0e977760de756971f7,65d6be41dab6027eb01ed59d,0.0225,0.0226,0,36,36,29,1,threefour,,,,,,,,,,,,,,,,,,,,,,,,,,,,,,,,,,,,,,,,,,,,,,,,,,,,,,,,,,,,,,,,,,,,,,,,,,,,,,,,,,,,,,,,,,,,,,,,,,,,,,,,,,,,,,,,,,,,,,,,,,,,,,,,,,,,,,,,,
,,5e9cc0fabfffb50009c9fd15,2024-02-22_03h24.15.836,kallum_motion_pilot,2023.2.2,Win32,140.8450704,5e9cc0fabfffb50009c9fd15,65d6bb0e977760de756971f7,65d6be41dab6027eb01ed59d,0.0226,0.0226,0,37,37,8,1,onetwo,,,,,,,,,,,,,,,,,,,,,,,,,,,,,,,,,,,,,,,,,,,,,,,,,,,,,,,,,,,,,,,,,,,,,,,,,,,,,,,,,,,,,,,,,,,,,,,,,,,,,,,,,,,,,,,,,,,,,,,,,,,,,,,,,,,,,,,,,
,,5e9cc0fabfffb50009c9fd15,2024-02-22_03h24.15.836,kallum_motion_pilot,2023.2.2,Win32,140.8450704,5e9cc0fabfffb50009c9fd15,65d6bb0e977760de756971f7,65d6be41dab6027eb01ed59d,0.0227,0.0227,0,38,38,2,1,twoone,,,,,,,,,,,,,,,,,,,,,,,,,,,,,,,,,,,,,,,,,,,,,,,,,,,,,,,,,,,,,,,,,,,,,,,,,,,,,,,,,,,,,,,,,,,,,,,,,,,,,,,,,,,,,,,,,,,,,,,,,,,,,,,,,,,,,,,,,
,,5e9cc0fabfffb50009c9fd15,2024-02-22_03h24.15.836,kallum_motion_pilot,2023.2.2,Win32,140.8450704,5e9cc0fabfffb50009c9fd15,65d6bb0e977760de756971f7,65d6be41dab6027eb01ed59d,0.0228,0.0228,0,39,39,27,1,twofour,,,,,,,,,,,,,,,,,,,,,,,,,,,,,,,,,,,,,,,,,,,,,,,,,,,,,,,,,,,,,,,,,,,,,,,,,,,,,,,,,,,,,,,,,,,,,,,,,,,,,,,,,,,,,,,,,,,,,,,,,,,,,,,,,,,,,,,,,
,,5e9cc0fabfffb50009c9fd15,2024-02-22_03h24.15.836,kallum_motion_pilot,2023.2.2,Win32,140.8450704,5e9cc0fabfffb50009c9fd15,65d6bb0e977760de756971f7,65d6be41dab6027eb01ed59d,0.0228,0.0229,0,40,40,44,1,threeone,,,,,,,,,,,,,,,,,,,,,,,,,,,,,,,,,,,,,,,,,,,,,,,,,,,,,,,,,,,,,,,,,,,,,,,,,,,,,,,,,,,,,,,,,,,,,,,,,,,,,,,,,,,,,,,,,,,,,,,,,,,,,,,,,,,,,,,,,
,,5e9cc0fabfffb50009c9fd15,2024-02-22_03h24.15.836,kallum_motion_pilot,2023.2.2,Win32,140.8450704,5e9cc0fabfffb50009c9fd15,65d6bb0e977760de756971f7,65d6be41dab6027eb01ed59d,0.0229,0.0229,0,41,41,89,1,fiveseven,,,,,,,,,,,,,,,,,,,,,,,,,,,,,,,,,,,,,,,,,,,,,,,,,,,,,,,,,,,,,,,,,,,,,,,,,,,,,,,,,,,,,,,,,,,,,,,,,,,,,,,,,,,,,,,,,,,,,,,,,,,,,,,,,,,,,,,,,
,,5e9cc0fabfffb50009c9fd15,2024-02-22_03h24.15.836,kallum_motion_pilot,2023.2.2,Win32,140.8450704,5e9cc0fabfffb50009c9fd15,65d6bb0e977760de756971f7,65d6be41dab6027eb01ed59d,0.023,0.023,0,42,42,111,1,eightseven,,,,,,,,,,,,,,,,,,,,,,,,,,,,,,,,,,,,,,,,,,,,,,,,,,,,,,,,,,,,,,,,,,,,,,,,,,,,,,,,,,,,,,,,,,,,,,,,,,,,,,,,,,,,,,,,,,,,,,,,,,,,,,,,,,,,,,,,,
,,5e9cc0fabfffb50009c9fd15,2024-02-22_03h24.15.836,kallum_motion_pilot,2023.2.2,Win32,140.8450704,5e9cc0fabfffb50009c9fd15,65d6bb0e977760de756971f7,65d6be41dab6027eb01ed59d,0.0232,0.0232,0,43,43,98,1,sixfive,,,,,,,,,,,,,,,,,,,,,,,,,,,,,,,,,,,,,,,,,,,,,,,,,,,,,,,,,,,,,,,,,,,,,,,,,,,,,,,,,,,,,,,,,,,,,,,,,,,,,,,,,,,,,,,,,,,,,,,,,,,,,,,,,,,,,,,,,
,,5e9cc0fabfffb50009c9fd15,2024-02-22_03h24.15.836,kallum_motion_pilot,2023.2.2,Win32,140.8450704,5e9cc0fabfffb50009c9fd15,65d6bb0e977760de756971f7,65d6be41dab6027eb01ed59d,0.0232,0.0232,0,44,44,68,1,threeone,,,,,,,,,,,,,,,,,,,,,,,,,,,,,,,,,,,,,,,,,,,,,,,,,,,,,,,,,,,,,,,,,,,,,,,,,,,,,,,,,,,,,,,,,,,,,,,,,,,,,,,,,,,,,,,,,,,,,,,,,,,,,,,,,,,,,,,,,
,,5e9cc0fabfffb50009c9fd15,2024-02-22_03h24.15.836,kallum_motion_pilot,2023.2.2,Win32,140.8450704,5e9cc0fabfffb50009c9fd15,65d6bb0e977760de756971f7,65d6be41dab6027eb01ed59d,0.0233,0.0233,0,45,45,115,1,sixeight,,,,,,,,,,,,,,,,,,,,,,,,,,,,,,,,,,,,,,,,,,,,,,,,,,,,,,,,,,,,,,,,,,,,,,,,,,,,,,,,,,,,,,,,,,,,,,,,,,,,,,,,,,,,,,,,,,,,,,,,,,,,,,,,,,,,,,,,,
,,5e9cc0fabfffb50009c9fd15,2024-02-22_03h24.15.836,kallum_motion_pilot,2023.2.2,Win32,140.8450704,5e9cc0fabfffb50009c9fd15,65d6bb0e977760de756971f7,65d6be41dab6027eb01ed59d,0.0234,0.0234,0,46,46,138,1,sixfive,,,,,,,,,,,,,,,,,,,,,,,,,,,,,,,,,,,,,,,,,,,,,,,,,,,,,,,,,,,,,,,,,,,,,,,,,,,,,,,,,,,,,,,,,,,,,,,,,,,,,,,,,,,,,,,,,,,,,,,,,,,,,,,,,,,,,,,,,
,,5e9cc0fabfffb50009c9fd15,2024-02-22_03h24.15.836,kallum_motion_pilot,2023.2.2,Win32,140.8450704,5e9cc0fabfffb50009c9fd15,65d6bb0e977760de756971f7,65d6be41dab6027eb01ed59d,0.0234,0.0235,0,47,47,161,1,fiveseven,,,,,,,,,,,,,,,,,,,,,,,,,,,,,,,,,,,,,,,,,,,,,,,,,,,,,,,,,,,,,,,,,,,,,,,,,,,,,,,,,,,,,,,,,,,,,,,,,,,,,,,,,,,,,,,,,,,,,,,,,,,,,,,,,,,,,,,,,
,,5e9cc0fabfffb50009c9fd15,2024-02-22_03h24.15.836,kallum_motion_pilot,2023.2.2,Win32,140.8450704,5e9cc0fabfffb50009c9fd15,65d6bb0e977760de756971f7,65d6be41dab6027eb01ed59d,0.0235,0.0235,0,48,48,30,1,fourtwo,,,,,,,,,,,,,,,,,,,,,,,,,,,,,,,,,,,,,,,,,,,,,,,,,,,,,,,,,,,,,,,,,,,,,,,,,,,,,,,,,,,,,,,,,,,,,,,,,,,,,,,,,,,,,,,,,,,,,,,,,,,,,,,,,,,,,,,,,
,,5e9cc0fabfffb50009c9fd15,2024-02-22_03h24.15.836,kallum_motion_pilot,2023.2.2,Win32,140.8450704,5e9cc0fabfffb50009c9fd15,65d6bb0e977760de756971f7,65d6be41dab6027eb01ed59d,0.0236,0.0237,0,49,49,73,1,onethree,,,,,,,,,,,,,,,,,,,,,,,,,,,,,,,,,,,,,,,,,,,,,,,,,,,,,,,,,,,,,,,,,,,,,,,,,,,,,,,,,,,,,,,,,,,,,,,,,,,,,,,,,,,,,,,,,,,,,,,,,,,,,,,,,,,,,,,,,
,,5e9cc0fabfffb50009c9fd15,2024-02-22_03h24.15.836,kallum_motion_pilot,2023.2.2,Win32,140.8450704,5e9cc0fabfffb50009c9fd15,65d6bb0e977760de756971f7,65d6be41dab6027eb01ed59d,0.0237,0.0238,0,50,50,75,1,twofour,,,,,,,,,,,,,,,,,,,,,,,,,,,,,,,,,,,,,,,,,,,,,,,,,,,,,,,,,,,,,,,,,,,,,,,,,,,,,,,,,,,,,,,,,,,,,,,,,,,,,,,,,,,,,,,,,,,,,,,,,,,,,,,,,,,,,,,,,
,,5e9cc0fabfffb50009c9fd15,2024-02-22_03h24.15.836,kallum_motion_pilot,2023.2.2,Win32,140.8450704,5e9cc0fabfffb50009c9fd15,65d6bb0e977760de756971f7,65d6be41dab6027eb01ed59d,0.0238,0.0238,0,51,51,110,1,eightsix,,,,,,,,,,,,,,,,,,,,,,,,,,,,,,,,,,,,,,,,,,,,,,,,,,,,,,,,,,,,,,,,,,,,,,,,,,,,,,,,,,,,,,,,,,,,,,,,,,,,,,,,,,,,,,,,,,,,,,,,,,,,,,,,,,,,,,,,,
,,5e9cc0fabfffb50009c9fd15,2024-02-22_03h24.15.836,kallum_motion_pilot,2023.2.2,Win32,140.8450704,5e9cc0fabfffb50009c9fd15,65d6bb0e977760de756971f7,65d6be41dab6027eb01ed59d,0.0239,0.0239,0,52,52,96,1,fivesix,,,,,,,,,,,,,,,,,,,,,,,,,,,,,,,,,,,,,,,,,,,,,,,,,,,,,,,,,,,,,,,,,,,,,,,,,,,,,,,,,,,,,,,,,,,,,,,,,,,,,,,,,,,,,,,,,,,,,,,,,,,,,,,,,,,,,,,,,
,,5e9cc0fabfffb50009c9fd15,2024-02-22_03h24.15.836,kallum_motion_pilot,2023.2.2,Win32,140.8450704,5e9cc0fabfffb50009c9fd15,65d6bb0e977760de756971f7,65d6be41dab6027eb01ed59d,0.024,0.024,0,53,53,23,1,fourthree,,,,,,,,,,,,,,,,,,,,,,,,,,,,,,,,,,,,,,,,,,,,,,,,,,,,,,,,,,,,,,,,,,,,,,,,,,,,,,,,,,,,,,,,,,,,,,,,,,,,,,,,,,,,,,,,,,,,,,,,,,,,,,,,,,,,,,,,,
,,5e9cc0fabfffb50009c9fd15,2024-02-22_03h24.15.836,kallum_motion_pilot,2023.2.2,Win32,140.8450704,5e9cc0fabfffb50009c9fd15,65d6bb0e977760de756971f7,65d6be41dab6027eb01ed59d,0.024,0.024,0,54,54,114,1,sixfive,,,,,,,,,,,,,,,,,,,,,,,,,,,,,,,,,,,,,,,,,,,,,,,,,,,,,,,,,,,,,,,,,,,,,,,,,,,,,,,,,,,,,,,,,,,,,,,,,,,,,,,,,,,,,,,,,,,,,,,,,,,,,,,,,,,,,,,,,
,,5e9cc0fabfffb50009c9fd15,2024-02-22_03h24.15.836,kallum_motion_pilot,2023.2.2,Win32,140.8450704,5e9cc0fabfffb50009c9fd15,65d6bb0e977760de756971f7,65d6be41dab6027eb01ed59d,0.0241,0.0242,0,55,55,57,1,onethree,,,,,,,,,,,,,,,,,,,,,,,,,,,,,,,,,,,,,,,,,,,,,,,,,,,,,,,,,,,,,,,,,,,,,,,,,,,,,,,,,,,,,,,,,,,,,,,,,,,,,,,,,,,,,,,,,,,,,,,,,,,,,,,,,,,,,,,,,
,,5e9cc0fabfffb50009c9fd15,2024-02-22_03h24.15.836,kallum_motion_pilot,2023.2.2,Win32,140.8450704,5e9cc0fabfffb50009c9fd15,65d6bb0e977760de756971f7,65d6be41dab6027eb01ed59d,0.0242,0.0242,0,56,56,85,1,seveneight,,,,,,,,,,,,,,,,,,,,,,,,,,,,,,,,,,,,,,,,,,,,,,,,,,,,,,,,,,,,,,,,,,,,,,,,,,,,,,,,,,,,,,,,,,,,,,,,,,,,,,,,,,,,,,,,,,,,,,,,,,,,,,,,,,,,,,,,,
,,5e9cc0fabfffb50009c9fd15,2024-02-22_03h24.15.836,kallum_motion_pilot,2023.2.2,Win32,140.8450704,5e9cc0fabfffb50009c9fd15,65d6bb0e977760de756971f7,65d6be41dab6027eb01ed59d,0.0243,0.0243,0,57,57,79,1,eightseven,,,,,,,,,,,,,,,,,,,,,,,,,,,,,,,,,,,,,,,,,,,,,,,,,,,,,,,,,,,,,,,,,,,,,,,,,,,,,,,,,,,,,,,,,,,,,,,,,,,,,,,,,,,,,,,,,,,,,,,,,,,,,,,,,,,,,,,,,
,,5e9cc0fabfffb50009c9fd15,2024-02-22_03h24.15.836,kallum_motion_pilot,2023.2.2,Win32,140.8450704,5e9cc0fabfffb50009c9fd15,65d6bb0e977760de756971f7,65d6be41dab6027eb01ed59d,0.0243,0.0243,0,58,58,136,1,fivesix,,,,,,,,,,,,,,,,,,,,,,,,,,,,,,,,,,,,,,,,,,,,,,,,,,,,,,,,,,,,,,,,,,,,,,,,,,,,,,,,,,,,,,,,,,,,,,,,,,,,,,,,,,,,,,,,,,,,,,,,,,,,,,,,,,,,,,,,,
,,5e9cc0fabfffb50009c9fd15,2024-02-22_03h24.15.836,kallum_motion_pilot,2023.2.2,Win32,140.8450704,5e9cc0fabfffb50009c9fd15,65d6bb0e977760de756971f7,65d6be41dab6027eb01ed59d,0.0244,0.0245,0,59,59,134,1,eightsix,,,,,,,,,,,,,,,,,,,,,,,,,,,,,,,,,,,,,,,,,,,,,,,,,,,,,,,,,,,,,,,,,,,,,,,,,,,,,,,,,,,,,,,,,,,,,,,,,,,,,,,,,,,,,,,,,,,,,,,,,,,,,,,,,,,,,,,,,
,,5e9cc0fabfffb50009c9fd15,2024-02-22_03h24.15.836,kallum_motion_pilot,2023.2.2,Win32,140.8450704,5e9cc0fabfffb50009c9fd15,65d6bb0e977760de756971f7,65d6be41dab6027eb01ed59d,0.0245,0.0245,0,60,60,22,1,fourtwo,,,,,,,,,,,,,,,,,,,,,,,,,,,,,,,,,,,,,,,,,,,,,,,,,,,,,,,,,,,,,,,,,,,,,,,,,,,,,,,,,,,,,,,,,,,,,,,,,,,,,,,,,,,,,,,,,,,,,,,,,,,,,,,,,,,,,,,,,
,,5e9cc0fabfffb50009c9fd15,2024-02-22_03h24.15.836,kallum_motion_pilot,2023.2.2,Win32,140.8450704,5e9cc0fabfffb50009c9fd15,65d6bb0e977760de756971f7,65d6be41dab6027eb01ed59d,0.0246,0.0246,0,61,61,151,1,eightseven,,,,,,,,,,,,,,,,,,,,,,,,,,,,,,,,,,,,,,,,,,,,,,,,,,,,,,,,,,,,,,,,,,,,,,,,,,,,,,,,,,,,,,,,,,,,,,,,,,,,,,,,,,,,,,,,,,,,,,,,,,,,,,,,,,,,,,,,,
,,5e9cc0fabfffb50009c9fd15,2024-02-22_03h24.15.836,kallum_motion_pilot,2023.2.2,Win32,140.8450704,5e9cc0fabfffb50009c9fd15,65d6bb0e977760de756971f7,65d6be41dab6027eb01ed59d,0.0246,0.0247,0,62,62,69,1,threefour,,,,,,,,,,,,,,,,,,,,,,,,,,,,,,,,,,,,,,,,,,,,,,,,,,,,,,,,,,,,,,,,,,,,,,,,,,,,,,,,,,,,,,,,,,,,,,,,,,,,,,,,,,,,,,,,,,,,,,,,,,,,,,,,,,,,,,,,,
,,5e9cc0fabfffb50009c9fd15,2024-02-22_03h24.15.836,kallum_motion_pilot,2023.2.2,Win32,140.8450704,5e9cc0fabfffb50009c9fd15,65d6bb0e977760de756971f7,65d6be41dab6027eb01ed59d,0.0248,0.0248,0,63,63,50,1,twoone,,,,,,,,,,,,,,,,,,,,,,,,,,,,,,,,,,,,,,,,,,,,,,,,,,,,,,,,,,,,,,,,,,,,,,,,,,,,,,,,,,,,,,,,,,,,,,,,,,,,,,,,,,,,,,,,,,,,,,,,,,,,,,,,,,,,,,,,,
,,5e9cc0fabfffb50009c9fd15,2024-02-22_03h24.15.836,kallum_motion_pilot,2023.2.2,Win32,140.8450704,5e9cc0fabfffb50009c9fd15,65d6bb0e977760de756971f7,65d6be41dab6027eb01ed59d,0.0249,0.0249,0,64,64,97,1,fiveseven,,,,,,,,,,,,,,,,,,,,,,,,,,,,,,,,,,,,,,,,,,,,,,,,,,,,,,,,,,,,,,,,,,,,,,,,,,,,,,,,,,,,,,,,,,,,,,,,,,,,,,,,,,,,,,,,,,,,,,,,,,,,,,,,,,,,,,,,,
,,5e9cc0fabfffb50009c9fd15,2024-02-22_03h24.15.836,kallum_motion_pilot,2023.2.2,Win32,140.8450704,5e9cc0fabfffb50009c9fd15,65d6bb0e977760de756971f7,65d6be41dab6027eb01ed59d,0.025,0.025,0,65,65,5,1,threefour,,,,,,,,,,,,,,,,,,,,,,,,,,,,,,,,,,,,,,,,,,,,,,,,,,,,,,,,,,,,,,,,,,,,,,,,,,,,,,,,,,,,,,,,,,,,,,,,,,,,,,,,,,,,,,,,,,,,,,,,,,,,,,,,,,,,,,,,,
,,5e9cc0fabfffb50009c9fd15,2024-02-22_03h24.15.836,kallum_motion_pilot,2023.2.2,Win32,140.8450704,5e9cc0fabfffb50009c9fd15,65d6bb0e977760de756971f7,65d6be41dab6027eb01ed59d,0.0251,0.0251,0,66,66,53,1,threefour,,,,,,,,,,,,,,,,,,,,,,,,,,,,,,,,,,,,,,,,,,,,,,,,,,,,,,,,,,,,,,,,,,,,,,,,,,,,,,,,,,,,,,,,,,,,,,,,,,,,,,,,,,,,,,,,,,,,,,,,,,,,,,,,,,,,,,,,,
,,5e9cc0fabfffb50009c9fd15,2024-02-22_03h24.15.836,kallum_motion_pilot,2023.2.2,Win32,140.8450704,5e9cc0fabfffb50009c9fd15,65d6bb0e977760de756971f7,65d6be41dab6027eb01ed59d,0.0252,0.0252,0,67,67,32,1,onetwo,,,,,,,,,,,,,,,,,,,,,,,,,,,,,,,,,,,,,,,,,,,,,,,,,,,,,,,,,,,,,,,,,,,,,,,,,,,,,,,,,,,,,,,,,,,,,,,,,,,,,,,,,,,,,,,,,,,,,,,,,,,,,,,,,,,,,,,,,
,,5e9cc0fabfffb50009c9fd15,2024-02-22_03h24.15.836,kallum_motion_pilot,2023.2.2,Win32,140.8450704,5e9cc0fabfffb50009c9fd15,65d6bb0e977760de756971f7,65d6be41dab6027eb01ed59d,0.0253,0.0253,0,68,68,127,1,eightseven,,,,,,,,,,,,,,,,,,,,,,,,,,,,,,,,,,,,,,,,,,,,,,,,,,,,,,,,,,,,,,,,,,,,,,,,,,,,,,,,,,,,,,,,,,,,,,,,,,,,,,,,,,,,,,,,,,,,,,,,,,,,,,,,,,,,,,,,,
,,5e9cc0fabfffb50009c9fd15,2024-02-22_03h24.15.836,kallum_motion_pilot,2023.2.2,Win32,140.8450704,5e9cc0fabfffb50009c9fd15,65d6bb0e977760de756971f7,65d6be41dab6027eb01ed59d,0.0254,0.0254,0,69,69,90,1,sixfive,,,,,,,,,,,,,,,,,,,,,,,,,,,,,,,,,,,,,,,,,,,,,,,,,,,,,,,,,,,,,,,,,,,,,,,,,,,,,,,,,,,,,,,,,,,,,,,,,,,,,,,,,,,,,,,,,,,,,,,,,,,,,,,,,,,,,,,,,
,,5e9cc0fabfffb50009c9fd15,2024-02-22_03h24.15.836,kallum_motion_pilot,2023.2.2,Win32,140.8450704,5e9cc0fabfffb50009c9fd15,65d6bb0e977760de756971f7,65d6be41dab6027eb01ed59d,0.0255,0.0255,0,70,70,133,1,seveneight,,,,,,,,,,,,,,,,,,,,,,,,,,,,,,,,,,,,,,,,,,,,,,,,,,,,,,,,,,,,,,,,,,,,,,,,,,,,,,,,,,,,,,,,,,,,,,,,,,,,,,,,,,,,,,,,,,,,,,,,,,,,,,,,,,,,,,,,,
,,5e9cc0fabfffb50009c9fd15,2024-02-22_03h24.15.836,kallum_motion_pilot,2023.2.2,Win32,140.8450704,5e9cc0fabfffb50009c9fd15,65d6bb0e977760de756971f7,65d6be41dab6027eb01ed59d,0.0255,0.0255,0,71,71,156,1,sevenfive,,,,,,,,,,,,,,,,,,,,,,,,,,,,,,,,,,,,,,,,,,,,,,,,,,,,,,,,,,,,,,,,,,,,,,,,,,,,,,,,,,,,,,,,,,,,,,,,,,,,,,,,,,,,,,,,,,,,,,,,,,,,,,,,,,,,,,,,,
,,5e9cc0fabfffb50009c9fd15,2024-02-22_03h24.15.836,kallum_motion_pilot,2023.2.2,Win32,140.8450704,5e9cc0fabfffb50009c9fd15,65d6bb0e977760de756971f7,65d6be41dab6027eb01ed59d,0.0256,0.0256,0,72,72,112,1,fivesix,,,,,,,,,,,,,,,,,,,,,,,,,,,,,,,,,,,,,,,,,,,,,,,,,,,,,,,,,,,,,,,,,,,,,,,,,,,,,,,,,,,,,,,,,,,,,,,,,,,,,,,,,,,,,,,,,,,,,,,,,,,,,,,,,,,,,,,,,
,,5e9cc0fabfffb50009c9fd15,2024-02-22_03h24.15.836,kallum_motion_pilot,2023.2.2,Win32,140.8450704,5e9cc0fabfffb50009c9fd15,65d6bb0e977760de756971f7,65d6be41dab6027eb01ed59d,0.0258,0.0258,0,73,73,15,1,fourthree,,,,,,,,,,,,,,,,,,,,,,,,,,,,,,,,,,,,,,,,,,,,,,,,,,,,,,,,,,,,,,,,,,,,,,,,,,,,,,,,,,,,,,,,,,,,,,,,,,,,,,,,,,,,,,,,,,,,,,,,,,,,,,,,,,,,,,,,,
,,5e9cc0fabfffb50009c9fd15,2024-02-22_03h24.15.836,kallum_motion_pilot,2023.2.2,Win32,140.8450704,5e9cc0fabfffb50009c9fd15,65d6bb0e977760de756971f7,65d6be41dab6027eb01ed59d,0.0259,0.0259,0,74,74,147,1,sixeight,,,,,,,,,,,,,,,,,,,,,,,,,,,,,,,,,,,,,,,,,,,,,,,,,,,,,,,,,,,,,,,,,,,,,,,,,,,,,,,,,,,,,,,,,,,,,,,,,,,,,,,,,,,,,,,,,,,,,,,,,,,,,,,,,,,,,,,,,
,,5e9cc0fabfffb50009c9fd15,2024-02-22_03h24.15.836,kallum_motion_pilot,2023.2.2,Win32,140.8450704,5e9cc0fabfffb50009c9fd15,65d6bb0e977760de756971f7,65d6be41dab6027eb01ed59d,0.026,0.0261,0,75,75,94,1,eightsix,,,,,,,,,,,,,,,,,,,,,,,,,,,,,,,,,,,,,,,,,,,,,,,,,,,,,,,,,,,,,,,,,,,,,,,,,,,,,,,,,,,,,,,,,,,,,,,,,,,,,,,,,,,,,,,,,,,,,,,,,,,,,,,,,,,,,,,,,
,,5e9cc0fabfffb50009c9fd15,2024-02-22_03h24.15.836,kallum_motion_pilot,2023.2.2,Win32,140.8450704,5e9cc0fabfffb50009c9fd15,65d6bb0e977760de756971f7,65d6be41dab6027eb01ed59d,0.0261,0.0261,0,76,76,155,1,sixeight,,,,,,,,,,,,,,,,,,,,,,,,,,,,,,,,,,,,,,,,,,,,,,,,,,,,,,,,,,,,,,,,,,,,,,,,,,,,,,,,,,,,,,,,,,,,,,,,,,,,,,,,,,,,,,,,,,,,,,,,,,,,,,,,,,,,,,,,,
,,5e9cc0fabfffb50009c9fd15,2024-02-22_03h24.15.836,kallum_motion_pilot,2023.2.2,Win32,140.8450704,5e9cc0fabfffb50009c9fd15,65d6bb0e977760de756971f7,65d6be41dab6027eb01ed59d,0.0262,0.0262,0,77,77,78,1,fourtwo,,,,,,,,,,,,,,,,,,,,,,,,,,,,,,,,,,,,,,,,,,,,,,,,,,,,,,,,,,,,,,,,,,,,,,,,,,,,,,,,,,,,,,,,,,,,,,,,,,,,,,,,,,,,,,,,,,,,,,,,,,,,,,,,,,,,,,,,,
,,5e9cc0fabfffb50009c9fd15,2024-02-22_03h24.15.836,kallum_motion_pilot,2023.2.2,Win32,140.8450704,5e9cc0fabfffb50009c9fd15,65d6bb0e977760de756971f7,65d6be41dab6027eb01ed59d,0.0262,0.0263,0,78,78,55,1,fourthree,,,,,,,,,,,,,,,,,,,,,,,,,,,,,,,,,,,,,,,,,,,,,,,,,,,,,,,,,,,,,,,,,,,,,,,,,,,,,,,,,,,,,,,,,,,,,,,,,,,,,,,,,,,,,,,,,,,,,,,,,,,,,,,,,,,,,,,,,
,,5e9cc0fabfffb50009c9fd15,2024-02-22_03h24.15.836,kallum_motion_pilot,2023.2.2,Win32,140.8450704,5e9cc0fabfffb50009c9fd15,65d6bb0e977760de756971f7,65d6be41dab6027eb01ed59d,0.0263,0.0263,0,79,79,159,1,eightseven,,,,,,,,,,,,,,,,,,,,,,,,,,,,,,,,,,,,,,,,,,,,,,,,,,,,,,,,,,,,,,,,,,,,,,,,,,,,,,,,,,,,,,,,,,,,,,,,,,,,,,,,,,,,,,,,,,,,,,,,,,,,,,,,,,,,,,,,,
,,5e9cc0fabfffb50009c9fd15,2024-02-22_03h24.15.836,kallum_motion_pilot,2023.2.2,Win32,140.8450704,5e9cc0fabfffb50009c9fd15,65d6bb0e977760de756971f7,65d6be41dab6027eb01ed59d,0.0265,0.0265,0,80,80,31,1,fourthree,,,,,,,,,,,,,,,,,,,,,,,,,,,,,,,,,,,,,,,,,,,,,,,,,,,,,,,,,,,,,,,,,,,,,,,,,,,,,,,,,,,,,,,,,,,,,,,,,,,,,,,,,,,,,,,,,,,,,,,,,,,,,,,,,,,,,,,,,
,,5e9cc0fabfffb50009c9fd15,2024-02-22_03h24.15.836,kallum_motion_pilot,2023.2.2,Win32,140.8450704,5e9cc0fabfffb50009c9fd15,65d6bb0e977760de756971f7,65d6be41dab6027eb01ed59d,0.0265,0.0266,0,81,81,33,1,onethree,,,,,,,,,,,,,,,,,,,,,,,,,,,,,,,,,,,,,,,,,,,,,,,,,,,,,,,,,,,,,,,,,,,,,,,,,,,,,,,,,,,,,,,,,,,,,,,,,,,,,,,,,,,,,,,,,,,,,,,,,,,,,,,,,,,,,,,,,
,,5e9cc0fabfffb50009c9fd15,2024-02-22_03h24.15.836,kallum_motion_pilot,2023.2.2,Win32,140.8450704,5e9cc0fabfffb50009c9fd15,65d6bb0e977760de756971f7,65d6be41dab6027eb01ed59d,0.0266,0.0267,0,82,82,46,1,fourtwo,,,,,,,,,,,,,,,,,,,,,,,,,,,,,,,,,,,,,,,,,,,,,,,,,,,,,,,,,,,,,,,,,,,,,,,,,,,,,,,,,,,,,,,,,,,,,,,,,,,,,,,,,,,,,,,,,,,,,,,,,,,,,,,,,,,,,,,,,
,,5e9cc0fabfffb50009c9fd15,2024-02-22_03h24.15.836,kallum_motion_pilot,2023.2.2,Win32,140.8450704,5e9cc0fabfffb50009c9fd15,65d6bb0e977760de756971f7,65d6be41dab6027eb01ed59d,0.0267,0.0268,0,83,83,95,1,eightseven,,,,,,,,,,,,,,,,,,,,,,,,,,,,,,,,,,,,,,,,,,,,,,,,,,,,,,,,,,,,,,,,,,,,,,,,,,,,,,,,,,,,,,,,,,,,,,,,,,,,,,,,,,,,,,,,,,,,,,,,,,,,,,,,,,,,,,,,,
,,5e9cc0fabfffb50009c9fd15,2024-02-22_03h24.15.836,kallum_motion_pilot,2023.2.2,Win32,140.8450704,5e9cc0fabfffb50009c9fd15,65d6bb0e977760de756971f7,65d6be41dab6027eb01ed59d,0.0268,0.0268,0,84,84,129,1,fiveseven,,,,,,,,,,,,,,,,,,,,,,,,,,,,,,,,,,,,,,,,,,,,,,,,,,,,,,,,,,,,,,,,,,,,,,,,,,,,,,,,,,,,,,,,,,,,,,,,,,,,,,,,,,,,,,,,,,,,,,,,,,,,,,,,,,,,,,,,,
,,5e9cc0fabfffb50009c9fd15,2024-02-22_03h24.15.836,kallum_motion_pilot,2023.2.2,Win32,140.8450704,5e9cc0fabfffb50009c9fd15,65d6bb0e977760de756971f7,65d6be41dab6027eb01ed59d,0.027,0.027,0,85,85,124,1,sevenfive,,,,,,,,,,,,,,,,,,,,,,,,,,,,,,,,,,,,,,,,,,,,,,,,,,,,,,,,,,,,,,,,,,,,,,,,,,,,,,,,,,,,,,,,,,,,,,,,,,,,,,,,,,,,,,,,,,,,,,,,,,,,,,,,,,,,,,,,,
,,5e9cc0fabfffb50009c9fd15,2024-02-22_03h24.15.836,kallum_motion_pilot,2023.2.2,Win32,140.8450704,5e9cc0fabfffb50009c9fd15,65d6bb0e977760de756971f7,65d6be41dab6027eb01ed59d,0.027,0.027,0,86,86,120,1,fivesix,,,,,,,,,,,,,,,,,,,,,,,,,,,,,,,,,,,,,,,,,,,,,,,,,,,,,,,,,,,,,,,,,,,,,,,,,,,,,,,,,,,,,,,,,,,,,,,,,,,,,,,,,,,,,,,,,,,,,,,,,,,,,,,,,,,,,,,,,
,,5e9cc0fabfffb50009c9fd15,2024-02-22_03h24.15.836,kallum_motion_pilot,2023.2.2,Win32,140.8450704,5e9cc0fabfffb50009c9fd15,65d6bb0e977760de756971f7,65d6be41dab6027eb01ed59d,0.0277,0.0277,0,87,87,25,1,onethree,,,,,,,,,,,,,,,,,,,,,,,,,,,,,,,,,,,,,,,,,,,,,,,,,,,,,,,,,,,,,,,,,,,,,,,,,,,,,,,,,,,,,,,,,,,,,,,,,,,,,,,,,,,,,,,,,,,,,,,,,,,,,,,,,,,,,,,,,
,,5e9cc0fabfffb50009c9fd15,2024-02-22_03h24.15.836,kallum_motion_pilot,2023.2.2,Win32,140.8450704,5e9cc0fabfffb50009c9fd15,65d6bb0e977760de756971f7,65d6be41dab6027eb01ed59d,0.0278,0.0278,0,88,88,92,1,sevenfive,,,,,,,,,,,,,,,,,,,,,,,,,,,,,,,,,,,,,,,,,,,,,,,,,,,,,,,,,,,,,,,,,,,,,,,,,,,,,,,,,,,,,,,,,,,,,,,,,,,,,,,,,,,,,,,,,,,,,,,,,,,,,,,,,,,,,,,,,
,,5e9cc0fabfffb50009c9fd15,2024-02-22_03h24.15.836,kallum_motion_pilot,2023.2.2,Win32,140.8450704,5e9cc0fabfffb50009c9fd15,65d6bb0e977760de756971f7,65d6be41dab6027eb01ed59d,0.0279,0.028,0,89,89,34,1,twoone,,,,,,,,,,,,,,,,,,,,,,,,,,,,,,,,,,,,,,,,,,,,,,,,,,,,,,,,,,,,,,,,,,,,,,,,,,,,,,,,,,,,,,,,,,,,,,,,,,,,,,,,,,,,,,,,,,,,,,,,,,,,,,,,,,,,,,,,,
,,5e9cc0fabfffb50009c9fd15,2024-02-22_03h24.15.836,kallum_motion_pilot,2023.2.2,Win32,140.8450704,5e9cc0fabfffb50009c9fd15,65d6bb0e977760de756971f7,65d6be41dab6027eb01ed59d,0.0281,0.0281,0,90,90,43,1,twofour,,,,,,,,,,,,,,,,,,,,,,,,,,,,,,,,,,,,,,,,,,,,,,,,,,,,,,,,,,,,,,,,,,,,,,,,,,,,,,,,,,,,,,,,,,,,,,,,,,,,,,,,,,,,,,,,,,,,,,,,,,,,,,,,,,,,,,,,,
,,5e9cc0fabfffb50009c9fd15,2024-02-22_03h24.15.836,kallum_motion_pilot,2023.2.2,Win32,140.8450704,5e9cc0fabfffb50009c9fd15,65d6bb0e977760de756971f7,65d6be41dab6027eb01ed59d,0.0282,0.0283,0,91,91,113,1,fiveseven,,,,,,,,,,,,,,,,,,,,,,,,,,,,,,,,,,,,,,,,,,,,,,,,,,,,,,,,,,,,,,,,,,,,,,,,,,,,,,,,,,,,,,,,,,,,,,,,,,,,,,,,,,,,,,,,,,,,,,,,,,,,,,,,,,,,,,,,,
,,5e9cc0fabfffb50009c9fd15,2024-02-22_03h24.15.836,kallum_motion_pilot,2023.2.2,Win32,140.8450704,5e9cc0fabfffb50009c9fd15,65d6bb0e977760de756971f7,65d6be41dab6027eb01ed59d,0.0283,0.0284,0,92,92,16,1,onetwo,,,,,,,,,,,,,,,,,,,,,,,,,,,,,,,,,,,,,,,,,,,,,,,,,,,,,,,,,,,,,,,,,,,,,,,,,,,,,,,,,,,,,,,,,,,,,,,,,,,,,,,,,,,,,,,,,,,,,,,,,,,,,,,,,,,,,,,,,
,,5e9cc0fabfffb50009c9fd15,2024-02-22_03h24.15.836,kallum_motion_pilot,2023.2.2,Win32,140.8450704,5e9cc0fabfffb50009c9fd15,65d6bb0e977760de756971f7,65d6be41dab6027eb01ed59d,0.0285,0.0285,0,93,93,117,1,seveneight,,,,,,,,,,,,,,,,,,,,,,,,,,,,,,,,,,,,,,,,,,,,,,,,,,,,,,,,,,,,,,,,,,,,,,,,,,,,,,,,,,,,,,,,,,,,,,,,,,,,,,,,,,,,,,,,,,,,,,,,,,,,,,,,,,,,,,,,,
,,5e9cc0fabfffb50009c9fd15,2024-02-22_03h24.15.836,kallum_motion_pilot,2023.2.2,Win32,140.8450704,5e9cc0fabfffb50009c9fd15,65d6bb0e977760de756971f7,65d6be41dab6027eb01ed59d,0.0285,0.0286,0,94,94,7,1,fourthree,,,,,,,,,,,,,,,,,,,,,,,,,,,,,,,,,,,,,,,,,,,,,,,,,,,,,,,,,,,,,,,,,,,,,,,,,,,,,,,,,,,,,,,,,,,,,,,,,,,,,,,,,,,,,,,,,,,,,,,,,,,,,,,,,,,,,,,,,
,,5e9cc0fabfffb50009c9fd15,2024-02-22_03h24.15.836,kallum_motion_pilot,2023.2.2,Win32,140.8450704,5e9cc0fabfffb50009c9fd15,65d6bb0e977760de756971f7,65d6be41dab6027eb01ed59d,0.0287,0.0287,0,95,95,93,1,seveneight,,,,,,,,,,,,,,,,,,,,,,,,,,,,,,,,,,,,,,,,,,,,,,,,,,,,,,,,,,,,,,,,,,,,,,,,,,,,,,,,,,,,,,,,,,,,,,,,,,,,,,,,,,,,,,,,,,,,,,,,,,,,,,,,,,,,,,,,,
,,5e9cc0fabfffb50009c9fd15,2024-02-22_03h24.15.836,kallum_motion_pilot,2023.2.2,Win32,140.8450704,5e9cc0fabfffb50009c9fd15,65d6bb0e977760de756971f7,65d6be41dab6027eb01ed59d,0.0287,0.0287,0,96,96,21,1,threefour,,,,,,,,,,,,,,,,,,,,,,,,,,,,,,,,,,,,,,,,,,,,,,,,,,,,,,,,,,,,,,,,,,,,,,,,,,,,,,,,,,,,,,,,,,,,,,,,,,,,,,,,,,,,,,,,,,,,,,,,,,,,,,,,,,,,,,,,,
,,5e9cc0fabfffb50009c9fd15,2024-02-22_03h24.15.836,kallum_motion_pilot,2023.2.2,Win32,140.8450704,5e9cc0fabfffb50009c9fd15,65d6bb0e977760de756971f7,65d6be41dab6027eb01ed59d,0.0288,0.0288,0,97,97,154,1,sixfive,,,,,,,,,,,,,,,,,,,,,,,,,,,,,,,,,,,,,,,,,,,,,,,,,,,,,,,,,,,,,,,,,,,,,,,,,,,,,,,,,,,,,,,,,,,,,,,,,,,,,,,,,,,,,,,,,,,,,,,,,,,,,,,,,,,,,,,,,
,,5e9cc0fabfffb50009c9fd15,2024-02-22_03h24.15.836,kallum_motion_pilot,2023.2.2,Win32,140.8450704,5e9cc0fabfffb50009c9fd15,65d6bb0e977760de756971f7,65d6be41dab6027eb01ed59d,0.0289,0.0289,0,98,98,38,1,fourtwo,,,,,,,,,,,,,,,,,,,,,,,,,,,,,,,,,,,,,,,,,,,,,,,,,,,,,,,,,,,,,,,,,,,,,,,,,,,,,,,,,,,,,,,,,,,,,,,,,,,,,,,,,,,,,,,,,,,,,,,,,,,,,,,,,,,,,,,,,
,,5e9cc0fabfffb50009c9fd15,2024-02-22_03h24.15.836,kallum_motion_pilot,2023.2.2,Win32,140.8450704,5e9cc0fabfffb50009c9fd15,65d6bb0e977760de756971f7,65d6be41dab6027eb01ed59d,0.029,0.029,0,99,99,1,1,onethree,,,,,,,,,,,,,,,,,,,,,,,,,,,,,,,,,,,,,,,,,,,,,,,,,,,,,,,,,,,,,,,,,,,,,,,,,,,,,,,,,,,,,,,,,,,,,,,,,,,,,,,,,,,,,,,,,,,,,,,,,,,,,,,,,,,,,,,,,
,,5e9cc0fabfffb50009c9fd15,2024-02-22_03h24.15.836,kallum_motion_pilot,2023.2.2,Win32,140.8450704,5e9cc0fabfffb50009c9fd15,65d6bb0e977760de756971f7,65d6be41dab6027eb01ed59d,0.0291,0.0291,0,100,100,49,1,onethree,,,,,,,,,,,,,,,,,,,,,,,,,,,,,,,,,,,,,,,,,,,,,,,,,,,,,,,,,,,,,,,,,,,,,,,,,,,,,,,,,,,,,,,,,,,,,,,,,,,,,,,,,,,,,,,,,,,,,,,,,,,,,,,,,,,,,,,,,
,,5e9cc0fabfffb50009c9fd15,2024-02-22_03h24.15.836,kallum_motion_pilot,2023.2.2,Win32,140.8450704,5e9cc0fabfffb50009c9fd15,65d6bb0e977760de756971f7,65d6be41dab6027eb01ed59d,0.0292,0.0292,0,101,101,158,1,eightsix,,,,,,,,,,,,,,,,,,,,,,,,,,,,,,,,,,,,,,,,,,,,,,,,,,,,,,,,,,,,,,,,,,,,,,,,,,,,,,,,,,,,,,,,,,,,,,,,,,,,,,,,,,,,,,,,,,,,,,,,,,,,,,,,,,,,,,,,,
,,5e9cc0fabfffb50009c9fd15,2024-02-22_03h24.15.836,kallum_motion_pilot,2023.2.2,Win32,140.8450704,5e9cc0fabfffb50009c9fd15,65d6bb0e977760de756971f7,65d6be41dab6027eb01ed59d,0.0293,0.0294,0,102,102,152,1,fivesix,,,,,,,,,,,,,,,,,,,,,,,,,,,,,,,,,,,,,,,,,,,,,,,,,,,,,,,,,,,,,,,,,,,,,,,,,,,,,,,,,,,,,,,,,,,,,,,,,,,,,,,,,,,,,,,,,,,,,,,,,,,,,,,,,,,,,,,,,
,,5e9cc0fabfffb50009c9fd15,2024-02-22_03h24.15.836,kallum_motion_pilot,2023.2.2,Win32,140.8450704,5e9cc0fabfffb50009c9fd15,65d6bb0e977760de756971f7,65d6be41dab6027eb01ed59d,0.0294,0.0295,0,103,103,56,1,onetwo,,,,,,,,,,,,,,,,,,,,,,,,,,,,,,,,,,,,,,,,,,,,,,,,,,,,,,,,,,,,,,,,,,,,,,,,,,,,,,,,,,,,,,,,,,,,,,,,,,,,,,,,,,,,,,,,,,,,,,,,,,,,,,,,,,,,,,,,,
,,5e9cc0fabfffb50009c9fd15,2024-02-22_03h24.15.836,kallum_motion_pilot,2023.2.2,Win32,140.8450704,5e9cc0fabfffb50009c9fd15,65d6bb0e977760de756971f7,65d6be41dab6027eb01ed59d,0.0296,0.0296,0,104,104,160,1,fivesix,,,,,,,,,,,,,,,,,,,,,,,,,,,,,,,,,,,,,,,,,,,,,,,,,,,,,,,,,,,,,,,,,,,,,,,,,,,,,,,,,,,,,,,,,,,,,,,,,,,,,,,,,,,,,,,,,,,,,,,,,,,,,,,,,,,,,,,,,
,,5e9cc0fabfffb50009c9fd15,2024-02-22_03h24.15.836,kallum_motion_pilot,2023.2.2,Win32,140.8450704,5e9cc0fabfffb50009c9fd15,65d6bb0e977760de756971f7,65d6be41dab6027eb01ed59d,0.0297,0.0297,0,105,105,52,1,threeone,,,,,,,,,,,,,,,,,,,,,,,,,,,,,,,,,,,,,,,,,,,,,,,,,,,,,,,,,,,,,,,,,,,,,,,,,,,,,,,,,,,,,,,,,,,,,,,,,,,,,,,,,,,,,,,,,,,,,,,,,,,,,,,,,,,,,,,,,
,,5e9cc0fabfffb50009c9fd15,2024-02-22_03h24.15.836,kallum_motion_pilot,2023.2.2,Win32,140.8450704,5e9cc0fabfffb50009c9fd15,65d6bb0e977760de756971f7,65d6be41dab6027eb01ed59d,0.0298,0.0298,0,106,106,67,1,twofour,,,,,,,,,,,,,,,,,,,,,,,,,,,,,,,,,,,,,,,,,,,,,,,,,,,,,,,,,,,,,,,,,,,,,,,,,,,,,,,,,,,,,,,,,,,,,,,,,,,,,,,,,,,,,,,,,,,,,,,,,,,,,,,,,,,,,,,,,
,,5e9cc0fabfffb50009c9fd15,2024-02-22_03h24.15.836,kallum_motion_pilot,2023.2.2,Win32,140.8450704,5e9cc0fabfffb50009c9fd15,65d6bb0e977760de756971f7,65d6be41dab6027eb01ed59d,0.0299,0.03,0,107,107,88,1,fivesix,,,,,,,,,,,,,,,,,,,,,,,,,,,,,,,,,,,,,,,,,,,,,,,,,,,,,,,,,,,,,,,,,,,,,,,,,,,,,,,,,,,,,,,,,,,,,,,,,,,,,,,,,,,,,,,,,,,,,,,,,,,,,,,,,,,,,,,,,
,,5e9cc0fabfffb50009c9fd15,2024-02-22_03h24.15.836,kallum_motion_pilot,2023.2.2,Win32,140.8450704,5e9cc0fabfffb50009c9fd15,65d6bb0e977760de756971f7,65d6be41dab6027eb01ed59d,0.03,0.03,0,108,108,140,1,sevenfive,,,,,,,,,,,,,,,,,,,,,,,,,,,,,,,,,,,,,,,,,,,,,,,,,,,,,,,,,,,,,,,,,,,,,,,,,,,,,,,,,,,,,,,,,,,,,,,,,,,,,,,,,,,,,,,,,,,,,,,,,,,,,,,,,,,,,,,,,
,,5e9cc0fabfffb50009c9fd15,2024-02-22_03h24.15.836,kallum_motion_pilot,2023.2.2,Win32,140.8450704,5e9cc0fabfffb50009c9fd15,65d6bb0e977760de756971f7,65d6be41dab6027eb01ed59d,0.0301,0.0302,0,109,109,116,1,sevenfive,,,,,,,,,,,,,,,,,,,,,,,,,,,,,,,,,,,,,,,,,,,,,,,,,,,,,,,,,,,,,,,,,,,,,,,,,,,,,,,,,,,,,,,,,,,,,,,,,,,,,,,,,,,,,,,,,,,,,,,,,,,,,,,,,,,,,,,,,
,,5e9cc0fabfffb50009c9fd15,2024-02-22_03h24.15.836,kallum_motion_pilot,2023.2.2,Win32,140.8450704,5e9cc0fabfffb50009c9fd15,65d6bb0e977760de756971f7,65d6be41dab6027eb01ed59d,0.0302,0.0303,0,110,110,128,1,fivesix,,,,,,,,,,,,,,,,,,,,,,,,,,,,,,,,,,,,,,,,,,,,,,,,,,,,,,,,,,,,,,,,,,,,,,,,,,,,,,,,,,,,,,,,,,,,,,,,,,,,,,,,,,,,,,,,,,,,,,,,,,,,,,,,,,,,,,,,,
,,5e9cc0fabfffb50009c9fd15,2024-02-22_03h24.15.836,kallum_motion_pilot,2023.2.2,Win32,140.8450704,5e9cc0fabfffb50009c9fd15,65d6bb0e977760de756971f7,65d6be41dab6027eb01ed59d,0.0303,0.0303,0,111,111,102,1,eightsix,,,,,,,,,,,,,,,,,,,,,,,,,,,,,,,,,,,,,,,,,,,,,,,,,,,,,,,,,,,,,,,,,,,,,,,,,,,,,,,,,,,,,,,,,,,,,,,,,,,,,,,,,,,,,,,,,,,,,,,,,,,,,,,,,,,,,,,,,
,,5e9cc0fabfffb50009c9fd15,2024-02-22_03h24.15.836,kallum_motion_pilot,2023.2.2,Win32,140.8450704,5e9cc0fabfffb50009c9fd15,65d6bb0e977760de756971f7,65d6be41dab6027eb01ed59d,0.0304,0.0304,0,112,112,62,1,fourtwo,,,,,,,,,,,,,,,,,,,,,,,,,,,,,,,,,,,,,,,,,,,,,,,,,,,,,,,,,,,,,,,,,,,,,,,,,,,,,,,,,,,,,,,,,,,,,,,,,,,,,,,,,,,,,,,,,,,,,,,,,,,,,,,,,,,,,,,,,
,,5e9cc0fabfffb50009c9fd15,2024-02-22_03h24.15.836,kallum_motion_pilot,2023.2.2,Win32,140.8450704,5e9cc0fabfffb50009c9fd15,65d6bb0e977760de756971f7,65d6be41dab6027eb01ed59d,0.0305,0.0306,0,113,113,107,1,sixeight,,,,,,,,,,,,,,,,,,,,,,,,,,,,,,,,,,,,,,,,,,,,,,,,,,,,,,,,,,,,,,,,,,,,,,,,,,,,,,,,,,,,,,,,,,,,,,,,,,,,,,,,,,,,,,,,,,,,,,,,,,,,,,,,,,,,,,,,,
,,5e9cc0fabfffb50009c9fd15,2024-02-22_03h24.15.836,kallum_motion_pilot,2023.2.2,Win32,140.8450704,5e9cc0fabfffb50009c9fd15,65d6bb0e977760de756971f7,65d6be41dab6027eb01ed59d,0.0306,0.0306,0,114,114,60,1,threeone,,,,,,,,,,,,,,,,,,,,,,,,,,,,,,,,,,,,,,,,,,,,,,,,,,,,,,,,,,,,,,,,,,,,,,,,,,,,,,,,,,,,,,,,,,,,,,,,,,,,,,,,,,,,,,,,,,,,,,,,,,,,,,,,,,,,,,,,,
,,5e9cc0fabfffb50009c9fd15,2024-02-22_03h24.15.836,kallum_motion_pilot,2023.2.2,Win32,140.8450704,5e9cc0fabfffb50009c9fd15,65d6bb0e977760de756971f7,65d6be41dab6027eb01ed59d,0.0307,0.0308,0,115,115,13,1,threefour,,,,,,,,,,,,,,,,,,,,,,,,,,,,,,,,,,,,,,,,,,,,,,,,,,,,,,,,,,,,,,,,,,,,,,,,,,,,,,,,,,,,,,,,,,,,,,,,,,,,,,,,,,,,,,,,,,,,,,,,,,,,,,,,,,,,,,,,,
,,5e9cc0fabfffb50009c9fd15,2024-02-22_03h24.15.836,kallum_motion_pilot,2023.2.2,Win32,140.8450704,5e9cc0fabfffb50009c9fd15,65d6bb0e977760de756971f7,65d6be41dab6027eb01ed59d,0.0308,0.0308,0,116,116,80,1,fivesix,,,,,,,,,,,,,,,,,,,,,,,,,,,,,,,,,,,,,,,,,,,,,,,,,,,,,,,,,,,,,,,,,,,,,,,,,,,,,,,,,,,,,,,,,,,,,,,,,,,,,,,,,,,,,,,,,,,,,,,,,,,,,,,,,,,,,,,,,
,,5e9cc0fabfffb50009c9fd15,2024-02-22_03h24.15.836,kallum_motion_pilot,2023.2.2,Win32,140.8450704,5e9cc0fabfffb50009c9fd15,65d6bb0e977760de756971f7,65d6be41dab6027eb01ed59d,0.0309,0.0309,0,117,117,137,1,fiveseven,,,,,,,,,,,,,,,,,,,,,,,,,,,,,,,,,,,,,,,,,,,,,,,,,,,,,,,,,,,,,,,,,,,,,,,,,,,,,,,,,,,,,,,,,,,,,,,,,,,,,,,,,,,,,,,,,,,,,,,,,,,,,,,,,,,,,,,,,
,,5e9cc0fabfffb50009c9fd15,2024-02-22_03h24.15.836,kallum_motion_pilot,2023.2.2,Win32,140.8450704,5e9cc0fabfffb50009c9fd15,65d6bb0e977760de756971f7,65d6be41dab6027eb01ed59d,0.0309,0.031,0,118,118,14,1,fourtwo,,,,,,,,,,,,,,,,,,,,,,,,,,,,,,,,,,,,,,,,,,,,,,,,,,,,,,,,,,,,,,,,,,,,,,,,,,,,,,,,,,,,,,,,,,,,,,,,,,,,,,,,,,,,,,,,,,,,,,,,,,,,,,,,,,,,,,,,,
,,5e9cc0fabfffb50009c9fd15,2024-02-22_03h24.15.836,kallum_motion_pilot,2023.2.2,Win32,140.8450704,5e9cc0fabfffb50009c9fd15,65d6bb0e977760de756971f7,65d6be41dab6027eb01ed59d,0.0311,0.0311,0,119,119,54,1,fourtwo,,,,,,,,,,,,,,,,,,,,,,,,,,,,,,,,,,,,,,,,,,,,,,,,,,,,,,,,,,,,,,,,,,,,,,,,,,,,,,,,,,,,,,,,,,,,,,,,,,,,,,,,,,,,,,,,,,,,,,,,,,,,,,,,,,,,,,,,,
,,5e9cc0fabfffb50009c9fd15,2024-02-22_03h24.15.836,kallum_motion_pilot,2023.2.2,Win32,140.8450704,5e9cc0fabfffb50009c9fd15,65d6bb0e977760de756971f7,65d6be41dab6027eb01ed59d,0.0311,0.0312,0,120,120,153,1,fiveseven,,,,,,,,,,,,,,,,,,,,,,,,,,,,,,,,,,,,,,,,,,,,,,,,,,,,,,,,,,,,,,,,,,,,,,,,,,,,,,,,,,,,,,,,,,,,,,,,,,,,,,,,,,,,,,,,,,,,,,,,,,,,,,,,,,,,,,,,,
,,5e9cc0fabfffb50009c9fd15,2024-02-22_03h24.15.836,kallum_motion_pilot,2023.2.2,Win32,140.8450704,5e9cc0fabfffb50009c9fd15,65d6bb0e977760de756971f7,65d6be41dab6027eb01ed59d,0.0312,0.0313,0,121,121,20,1,threeone,,,,,,,,,,,,,,,,,,,,,,,,,,,,,,,,,,,,,,,,,,,,,,,,,,,,,,,,,,,,,,,,,,,,,,,,,,,,,,,,,,,,,,,,,,,,,,,,,,,,,,,,,,,,,,,,,,,,,,,,,,,,,,,,,,,,,,,,,
,,5e9cc0fabfffb50009c9fd15,2024-02-22_03h24.15.836,kallum_motion_pilot,2023.2.2,Win32,140.8450704,5e9cc0fabfffb50009c9fd15,65d6bb0e977760de756971f7,65d6be41dab6027eb01ed59d,0.0313,0.0314,0,122,122,143,1,eightseven,,,,,,,,,,,,,,,,,,,,,,,,,,,,,,,,,,,,,,,,,,,,,,,,,,,,,,,,,,,,,,,,,,,,,,,,,,,,,,,,,,,,,,,,,,,,,,,,,,,,,,,,,,,,,,,,,,,,,,,,,,,,,,,,,,,,,,,,,
,,5e9cc0fabfffb50009c9fd15,2024-02-22_03h24.15.836,kallum_motion_pilot,2023.2.2,Win32,140.8450704,5e9cc0fabfffb50009c9fd15,65d6bb0e977760de756971f7,65d6be41dab6027eb01ed59d,0.0314,0.0315,0,123,123,71,1,fourthree,,,,,,,,,,,,,,,,,,,,,,,,,,,,,,,,,,,,,,,,,,,,,,,,,,,,,,,,,,,,,,,,,,,,,,,,,,,,,,,,,,,,,,,,,,,,,,,,,,,,,,,,,,,,,,,,,,,,,,,,,,,,,,,,,,,,,,,,,
,,5e9cc0fabfffb50009c9fd15,2024-02-22_03h24.15.836,kallum_motion_pilot,2023.2.2,Win32,140.8450704,5e9cc0fabfffb50009c9fd15,65d6bb0e977760de756971f7,65d6be41dab6027eb01ed59d,0.0315,0.0316,0,124,124,109,1,seveneight,,,,,,,,,,,,,,,,,,,,,,,,,,,,,,,,,,,,,,,,,,,,,,,,,,,,,,,,,,,,,,,,,,,,,,,,,,,,,,,,,,,,,,,,,,,,,,,,,,,,,,,,,,,,,,,,,,,,,,,,,,,,,,,,,,,,,,,,,
,,5e9cc0fabfffb50009c9fd15,2024-02-22_03h24.15.836,kallum_motion_pilot,2023.2.2,Win32,140.8450704,5e9cc0fabfffb50009c9fd15,65d6bb0e977760de756971f7,65d6be41dab6027eb01ed59d,0.0317,0.0318,0,125,125,119,1,eightseven,,,,,,,,,,,,,,,,,,,,,,,,,,,,,,,,,,,,,,,,,,,,,,,,,,,,,,,,,,,,,,,,,,,,,,,,,,,,,,,,,,,,,,,,,,,,,,,,,,,,,,,,,,,,,,,,,,,,,,,,,,,,,,,,,,,,,,,,,
,,5e9cc0fabfffb50009c9fd15,2024-02-22_03h24.15.836,kallum_motion_pilot,2023.2.2,Win32,140.8450704,5e9cc0fabfffb50009c9fd15,65d6bb0e977760de756971f7,65d6be41dab6027eb01ed59d,0.0318,0.0318,0,126,126,145,1,fiveseven,,,,,,,,,,,,,,,,,,,,,,,,,,,,,,,,,,,,,,,,,,,,,,,,,,,,,,,,,,,,,,,,,,,,,,,,,,,,,,,,,,,,,,,,,,,,,,,,,,,,,,,,,,,,,,,,,,,,,,,,,,,,,,,,,,,,,,,,,
,,5e9cc0fabfffb50009c9fd15,2024-02-22_03h24.15.836,kallum_motion_pilot,2023.2.2,Win32,140.8450704,5e9cc0fabfffb50009c9fd15,65d6bb0e977760de756971f7,65d6be41dab6027eb01ed59d,0.0319,0.032,0,127,127,17,1,onethree,,,,,,,,,,,,,,,,,,,,,,,,,,,,,,,,,,,,,,,,,,,,,,,,,,,,,,,,,,,,,,,,,,,,,,,,,,,,,,,,,,,,,,,,,,,,,,,,,,,,,,,,,,,,,,,,,,,,,,,,,,,,,,,,,,,,,,,,,
,,5e9cc0fabfffb50009c9fd15,2024-02-22_03h24.15.836,kallum_motion_pilot,2023.2.2,Win32,140.8450704,5e9cc0fabfffb50009c9fd15,65d6bb0e977760de756971f7,65d6be41dab6027eb01ed59d,0.032,0.0321,0,128,128,35,1,twofour,,,,,,,,,,,,,,,,,,,,,,,,,,,,,,,,,,,,,,,,,,,,,,,,,,,,,,,,,,,,,,,,,,,,,,,,,,,,,,,,,,,,,,,,,,,,,,,,,,,,,,,,,,,,,,,,,,,,,,,,,,,,,,,,,,,,,,,,,
,,5e9cc0fabfffb50009c9fd15,2024-02-22_03h24.15.836,kallum_motion_pilot,2023.2.2,Win32,140.8450704,5e9cc0fabfffb50009c9fd15,65d6bb0e977760de756971f7,65d6be41dab6027eb01ed59d,0.0321,0.0321,0,129,129,150,1,eightsix,,,,,,,,,,,,,,,,,,,,,,,,,,,,,,,,,,,,,,,,,,,,,,,,,,,,,,,,,,,,,,,,,,,,,,,,,,,,,,,,,,,,,,,,,,,,,,,,,,,,,,,,,,,,,,,,,,,,,,,,,,,,,,,,,,,,,,,,,
,,5e9cc0fabfffb50009c9fd15,2024-02-22_03h24.15.836,kallum_motion_pilot,2023.2.2,Win32,140.8450704,5e9cc0fabfffb50009c9fd15,65d6bb0e977760de756971f7,65d6be41dab6027eb01ed59d,0.0322,0.0322,0,130,130,144,1,fivesix,,,,,,,,,,,,,,,,,,,,,,,,,,,,,,,,,,,,,,,,,,,,,,,,,,,,,,,,,,,,,,,,,,,,,,,,,,,,,,,,,,,,,,,,,,,,,,,,,,,,,,,,,,,,,,,,,,,,,,,,,,,,,,,,,,,,,,,,,
,,5e9cc0fabfffb50009c9fd15,2024-02-22_03h24.15.836,kallum_motion_pilot,2023.2.2,Win32,140.8450704,5e9cc0fabfffb50009c9fd15,65d6bb0e977760de756971f7,65d6be41dab6027eb01ed59d,0.0323,0.0324,0,131,131,9,1,onethree,,,,,,,,,,,,,,,,,,,,,,,,,,,,,,,,,,,,,,,,,,,,,,,,,,,,,,,,,,,,,,,,,,,,,,,,,,,,,,,,,,,,,,,,,,,,,,,,,,,,,,,,,,,,,,,,,,,,,,,,,,,,,,,,,,,,,,,,,
,,5e9cc0fabfffb50009c9fd15,2024-02-22_03h24.15.836,kallum_motion_pilot,2023.2.2,Win32,140.8450704,5e9cc0fabfffb50009c9fd15,65d6bb0e977760de756971f7,65d6be41dab6027eb01ed59d,0.0324,0.0324,0,132,132,81,1,fiveseven,,,,,,,,,,,,,,,,,,,,,,,,,,,,,,,,,,,,,,,,,,,,,,,,,,,,,,,,,,,,,,,,,,,,,,,,,,,,,,,,,,,,,,,,,,,,,,,,,,,,,,,,,,,,,,,,,,,,,,,,,,,,,,,,,,,,,,,,,
,,5e9cc0fabfffb50009c9fd15,2024-02-22_03h24.15.836,kallum_motion_pilot,2023.2.2,Win32,140.8450704,5e9cc0fabfffb50009c9fd15,65d6bb0e977760de756971f7,65d6be41dab6027eb01ed59d,0.0325,0.0325,0,133,133,130,1,sixfive,,,,,,,,,,,,,,,,,,,,,,,,,,,,,,,,,,,,,,,,,,,,,,,,,,,,,,,,,,,,,,,,,,,,,,,,,,,,,,,,,,,,,,,,,,,,,,,,,,,,,,,,,,,,,,,,,,,,,,,,,,,,,,,,,,,,,,,,,
,,5e9cc0fabfffb50009c9fd15,2024-02-22_03h24.15.836,kallum_motion_pilot,2023.2.2,Win32,140.8450704,5e9cc0fabfffb50009c9fd15,65d6bb0e977760de756971f7,65d6be41dab6027eb01ed59d,0.0326,0.0327,0,134,134,135,1,eightseven,,,,,,,,,,,,,,,,,,,,,,,,,,,,,,,,,,,,,,,,,,,,,,,,,,,,,,,,,,,,,,,,,,,,,,,,,,,,,,,,,,,,,,,,,,,,,,,,,,,,,,,,,,,,,,,,,,,,,,,,,,,,,,,,,,,,,,,,,
,,5e9cc0fabfffb50009c9fd15,2024-02-22_03h24.15.836,kallum_motion_pilot,2023.2.2,Win32,140.8450704,5e9cc0fabfffb50009c9fd15,65d6bb0e977760de756971f7,65d6be41dab6027eb01ed59d,0.0328,0.0328,0,135,135,157,1,seveneight,,,,,,,,,,,,,,,,,,,,,,,,,,,,,,,,,,,,,,,,,,,,,,,,,,,,,,,,,,,,,,,,,,,,,,,,,,,,,,,,,,,,,,,,,,,,,,,,,,,,,,,,,,,,,,,,,,,,,,,,,,,,,,,,,,,,,,,,,
,,5e9cc0fabfffb50009c9fd15,2024-02-22_03h24.15.836,kallum_motion_pilot,2023.2.2,Win32,140.8450704,5e9cc0fabfffb50009c9fd15,65d6bb0e977760de756971f7,65d6be41dab6027eb01ed59d,0.0328,0.0329,0,136,136,123,1,sixeight,,,,,,,,,,,,,,,,,,,,,,,,,,,,,,,,,,,,,,,,,,,,,,,,,,,,,,,,,,,,,,,,,,,,,,,,,,,,,,,,,,,,,,,,,,,,,,,,,,,,,,,,,,,,,,,,,,,,,,,,,,,,,,,,,,,,,,,,,
,,5e9cc0fabfffb50009c9fd15,2024-02-22_03h24.15.836,kallum_motion_pilot,2023.2.2,Win32,140.8450704,5e9cc0fabfffb50009c9fd15,65d6bb0e977760de756971f7,65d6be41dab6027eb01ed59d,0.033,0.033,0,137,137,45,1,threefour,,,,,,,,,,,,,,,,,,,,,,,,,,,,,,,,,,,,,,,,,,,,,,,,,,,,,,,,,,,,,,,,,,,,,,,,,,,,,,,,,,,,,,,,,,,,,,,,,,,,,,,,,,,,,,,,,,,,,,,,,,,,,,,,,,,,,,,,,
,,5e9cc0fabfffb50009c9fd15,2024-02-22_03h24.15.836,kallum_motion_pilot,2023.2.2,Win32,140.8450704,5e9cc0fabfffb50009c9fd15,65d6bb0e977760de756971f7,65d6be41dab6027eb01ed59d,0.033,0.0331,0,138,138,6,1,fourtwo,,,,,,,,,,,,,,,,,,,,,,,,,,,,,,,,,,,,,,,,,,,,,,,,,,,,,,,,,,,,,,,,,,,,,,,,,,,,,,,,,,,,,,,,,,,,,,,,,,,,,,,,,,,,,,,,,,,,,,,,,,,,,,,,,,,,,,,,,
,,5e9cc0fabfffb50009c9fd15,2024-02-22_03h24.15.836,kallum_motion_pilot,2023.2.2,Win32,140.8450704,5e9cc0fabfffb50009c9fd15,65d6bb0e977760de756971f7,65d6be41dab6027eb01ed59d,0.0331,0.0332,0,139,139,139,1,sixeight,,,,,,,,,,,,,,,,,,,,,,,,,,,,,,,,,,,,,,,,,,,,,,,,,,,,,,,,,,,,,,,,,,,,,,,,,,,,,,,,,,,,,,,,,,,,,,,,,,,,,,,,,,,,,,,,,,,,,,,,,,,,,,,,,,,,,,,,,
,,5e9cc0fabfffb50009c9fd15,2024-02-22_03h24.15.836,kallum_motion_pilot,2023.2.2,Win32,140.8450704,5e9cc0fabfffb50009c9fd15,65d6bb0e977760de756971f7,65d6be41dab6027eb01ed59d,0.0332,0.0333,0,140,140,42,1,twoone,,,,,,,,,,,,,,,,,,,,,,,,,,,,,,,,,,,,,,,,,,,,,,,,,,,,,,,,,,,,,,,,,,,,,,,,,,,,,,,,,,,,,,,,,,,,,,,,,,,,,,,,,,,,,,,,,,,,,,,,,,,,,,,,,,,,,,,,,
,,5e9cc0fabfffb50009c9fd15,2024-02-22_03h24.15.836,kallum_motion_pilot,2023.2.2,Win32,140.8450704,5e9cc0fabfffb50009c9fd15,65d6bb0e977760de756971f7,65d6be41dab6027eb01ed59d,0.0334,0.0335,0,141,141,105,1,fiveseven,,,,,,,,,,,,,,,,,,,,,,,,,,,,,,,,,,,,,,,,,,,,,,,,,,,,,,,,,,,,,,,,,,,,,,,,,,,,,,,,,,,,,,,,,,,,,,,,,,,,,,,,,,,,,,,,,,,,,,,,,,,,,,,,,,,,,,,,,
,,5e9cc0fabfffb50009c9fd15,2024-02-22_03h24.15.836,kallum_motion_pilot,2023.2.2,Win32,140.8450704,5e9cc0fabfffb50009c9fd15,65d6bb0e977760de756971f7,65d6be41dab6027eb01ed59d,0.0336,0.0336,0,142,142,28,1,threeone,,,,,,,,,,,,,,,,,,,,,,,,,,,,,,,,,,,,,,,,,,,,,,,,,,,,,,,,,,,,,,,,,,,,,,,,,,,,,,,,,,,,,,,,,,,,,,,,,,,,,,,,,,,,,,,,,,,,,,,,,,,,,,,,,,,,,,,,,
,,5e9cc0fabfffb50009c9fd15,2024-02-22_03h24.15.836,kallum_motion_pilot,2023.2.2,Win32,140.8450704,5e9cc0fabfffb50009c9fd15,65d6bb0e977760de756971f7,65d6be41dab6027eb01ed59d,0.0337,0.0337,0,143,143,63,1,fourthree,,,,,,,,,,,,,,,,,,,,,,,,,,,,,,,,,,,,,,,,,,,,,,,,,,,,,,,,,,,,,,,,,,,,,,,,,,,,,,,,,,,,,,,,,,,,,,,,,,,,,,,,,,,,,,,,,,,,,,,,,,,,,,,,,,,,,,,,,
,,5e9cc0fabfffb50009c9fd15,2024-02-22_03h24.15.836,kallum_motion_pilot,2023.2.2,Win32,140.8450704,5e9cc0fabfffb50009c9fd15,65d6bb0e977760de756971f7,65d6be41dab6027eb01ed59d,0.0338,0.0338,0,144,144,101,1,seveneight,,,,,,,,,,,,,,,,,,,,,,,,,,,,,,,,,,,,,,,,,,,,,,,,,,,,,,,,,,,,,,,,,,,,,,,,,,,,,,,,,,,,,,,,,,,,,,,,,,,,,,,,,,,,,,,,,,,,,,,,,,,,,,,,,,,,,,,,,
,,5e9cc0fabfffb50009c9fd15,2024-02-22_03h24.15.836,kallum_motion_pilot,2023.2.2,Win32,140.8450704,5e9cc0fabfffb50009c9fd15,65d6bb0e977760de756971f7,65d6be41dab6027eb01ed59d,0.0339,0.034,0,145,145,0,1,onetwo,,,,,,,,,,,,,,,,,,,,,,,,,,,,,,,,,,,,,,,,,,,,,,,,,,,,,,,,,,,,,,,,,,,,,,,,,,,,,,,,,,,,,,,,,,,,,,,,,,,,,,,,,,,,,,,,,,,,,,,,,,,,,,,,,,,,,,,,,
,,5e9cc0fabfffb50009c9fd15,2024-02-22_03h24.15.836,kallum_motion_pilot,2023.2.2,Win32,140.8450704,5e9cc0fabfffb50009c9fd15,65d6bb0e977760de756971f7,65d6be41dab6027eb01ed59d,0.0341,0.0341,0,146,146,70,1,fourtwo,,,,,,,,,,,,,,,,,,,,,,,,,,,,,,,,,,,,,,,,,,,,,,,,,,,,,,,,,,,,,,,,,,,,,,,,,,,,,,,,,,,,,,,,,,,,,,,,,,,,,,,,,,,,,,,,,,,,,,,,,,,,,,,,,,,,,,,,,
,,5e9cc0fabfffb50009c9fd15,2024-02-22_03h24.15.836,kallum_motion_pilot,2023.2.2,Win32,140.8450704,5e9cc0fabfffb50009c9fd15,65d6bb0e977760de756971f7,65d6be41dab6027eb01ed59d,0.0342,0.0342,0,147,147,103,1,eightseven,,,,,,,,,,,,,,,,,,,,,,,,,,,,,,,,,,,,,,,,,,,,,,,,,,,,,,,,,,,,,,,,,,,,,,,,,,,,,,,,,,,,,,,,,,,,,,,,,,,,,,,,,,,,,,,,,,,,,,,,,,,,,,,,,,,,,,,,,
,,5e9cc0fabfffb50009c9fd15,2024-02-22_03h24.15.836,kallum_motion_pilot,2023.2.2,Win32,140.8450704,5e9cc0fabfffb50009c9fd15,65d6bb0e977760de756971f7,65d6be41dab6027eb01ed59d,0.0344,0.0344,0,148,148,19,1,twofour,,,,,,,,,,,,,,,,,,,,,,,,,,,,,,,,,,,,,,,,,,,,,,,,,,,,,,,,,,,,,,,,,,,,,,,,,,,,,,,,,,,,,,,,,,,,,,,,,,,,,,,,,,,,,,,,,,,,,,,,,,,,,,,,,,,,,,,,,
,,5e9cc0fabfffb50009c9fd15,2024-02-22_03h24.15.836,kallum_motion_pilot,2023.2.2,Win32,140.8450704,5e9cc0fabfffb50009c9fd15,65d6bb0e977760de756971f7,65d6be41dab6027eb01ed59d,0.0344,0.0344,0,149,149,121,1,fiveseven,,,,,,,,,,,,,,,,,,,,,,,,,,,,,,,,,,,,,,,,,,,,,,,,,,,,,,,,,,,,,,,,,,,,,,,,,,,,,,,,,,,,,,,,,,,,,,,,,,,,,,,,,,,,,,,,,,,,,,,,,,,,,,,,,,,,,,,,,
,,5e9cc0fabfffb50009c9fd15,2024-02-22_03h24.15.836,kallum_motion_pilot,2023.2.2,Win32,140.8450704,5e9cc0fabfffb50009c9fd15,65d6bb0e977760de756971f7,65d6be41dab6027eb01ed59d,0.0346,0.0346,0,150,150,122,1,sixfive,,,,,,,,,,,,,,,,,,,,,,,,,,,,,,,,,,,,,,,,,,,,,,,,,,,,,,,,,,,,,,,,,,,,,,,,,,,,,,,,,,,,,,,,,,,,,,,,,,,,,,,,,,,,,,,,,,,,,,,,,,,,,,,,,,,,,,,,,
,,5e9cc0fabfffb50009c9fd15,2024-02-22_03h24.15.836,kallum_motion_pilot,2023.2.2,Win32,140.8450704,5e9cc0fabfffb50009c9fd15,65d6bb0e977760de756971f7,65d6be41dab6027eb01ed59d,0.0347,0.0347,0,151,151,37,1,threefour,,,,,,,,,,,,,,,,,,,,,,,,,,,,,,,,,,,,,,,,,,,,,,,,,,,,,,,,,,,,,,,,,,,,,,,,,,,,,,,,,,,,,,,,,,,,,,,,,,,,,,,,,,,,,,,,,,,,,,,,,,,,,,,,,,,,,,,,,
,,5e9cc0fabfffb50009c9fd15,2024-02-22_03h24.15.836,kallum_motion_pilot,2023.2.2,Win32,140.8450704,5e9cc0fabfffb50009c9fd15,65d6bb0e977760de756971f7,65d6be41dab6027eb01ed59d,0.0348,0.0348,0,152,152,36,1,threeone,,,,,,,,,,,,,,,,,,,,,,,,,,,,,,,,,,,,,,,,,,,,,,,,,,,,,,,,,,,,,,,,,,,,,,,,,,,,,,,,,,,,,,,,,,,,,,,,,,,,,,,,,,,,,,,,,,,,,,,,,,,,,,,,,,,,,,,,,
,,5e9cc0fabfffb50009c9fd15,2024-02-22_03h24.15.836,kallum_motion_pilot,2023.2.2,Win32,140.8450704,5e9cc0fabfffb50009c9fd15,65d6bb0e977760de756971f7,65d6be41dab6027eb01ed59d,0.0348,0.035,0,153,153,41,1,onethree,,,,,,,,,,,,,,,,,,,,,,,,,,,,,,,,,,,,,,,,,,,,,,,,,,,,,,,,,,,,,,,,,,,,,,,,,,,,,,,,,,,,,,,,,,,,,,,,,,,,,,,,,,,,,,,,,,,,,,,,,,,,,,,,,,,,,,,,,
,,5e9cc0fabfffb50009c9fd15,2024-02-22_03h24.15.836,kallum_motion_pilot,2023.2.2,Win32,140.8450704,5e9cc0fabfffb50009c9fd15,65d6bb0e977760de756971f7,65d6be41dab6027eb01ed59d,0.035,0.035,0,154,154,74,1,twoone,,,,,,,,,,,,,,,,,,,,,,,,,,,,,,,,,,,,,,,,,,,,,,,,,,,,,,,,,,,,,,,,,,,,,,,,,,,,,,,,,,,,,,,,,,,,,,,,,,,,,,,,,,,,,,,,,,,,,,,,,,,,,,,,,,,,,,,,,
,,5e9cc0fabfffb50009c9fd15,2024-02-22_03h24.15.836,kallum_motion_pilot,2023.2.2,Win32,140.8450704,5e9cc0fabfffb50009c9fd15,65d6bb0e977760de756971f7,65d6be41dab6027eb01ed59d,0.0351,0.0352,0,155,155,84,1,sevenfive,,,,,,,,,,,,,,,,,,,,,,,,,,,,,,,,,,,,,,,,,,,,,,,,,,,,,,,,,,,,,,,,,,,,,,,,,,,,,,,,,,,,,,,,,,,,,,,,,,,,,,,,,,,,,,,,,,,,,,,,,,,,,,,,,,,,,,,,,
,,5e9cc0fabfffb50009c9fd15,2024-02-22_03h24.15.836,kallum_motion_pilot,2023.2.2,Win32,140.8450704,5e9cc0fabfffb50009c9fd15,65d6bb0e977760de756971f7,65d6be41dab6027eb01ed59d,0.0352,0.0352,0,156,156,48,1,onetwo,,,,,,,,,,,,,,,,,,,,,,,,,,,,,,,,,,,,,,,,,,,,,,,,,,,,,,,,,,,,,,,,,,,,,,,,,,,,,,,,,,,,,,,,,,,,,,,,,,,,,,,,,,,,,,,,,,,,,,,,,,,,,,,,,,,,,,,,,
,,5e9cc0fabfffb50009c9fd15,2024-02-22_03h24.15.836,kallum_motion_pilot,2023.2.2,Win32,140.8450704,5e9cc0fabfffb50009c9fd15,65d6bb0e977760de756971f7,65d6be41dab6027eb01ed59d,0.0353,0.0353,0,157,157,24,1,onetwo,,,,,,,,,,,,,,,,,,,,,,,,,,,,,,,,,,,,,,,,,,,,,,,,,,,,,,,,,,,,,,,,,,,,,,,,,,,,,,,,,,,,,,,,,,,,,,,,,,,,,,,,,,,,,,,,,,,,,,,,,,,,,,,,,,,,,,,,,
,,5e9cc0fabfffb50009c9fd15,2024-02-22_03h24.15.836,kallum_motion_pilot,2023.2.2,Win32,140.8450704,5e9cc0fabfffb50009c9fd15,65d6bb0e977760de756971f7,65d6be41dab6027eb01ed59d,0.0354,0.0355,0,158,158,82,1,sixfive,,,,,,,,,,,,,,,,,,,,,,,,,,,,,,,,,,,,,,,,,,,,,,,,,,,,,,,,,,,,,,,,,,,,,,,,,,,,,,,,,,,,,,,,,,,,,,,,,,,,,,,,,,,,,,,,,,,,,,,,,,,,,,,,,,,,,,,,,
,,5e9cc0fabfffb50009c9fd15,2024-02-22_03h24.15.836,kallum_motion_pilot,2023.2.2,Win32,140.8450704,5e9cc0fabfffb50009c9fd15,65d6bb0e977760de756971f7,65d6be41dab6027eb01ed59d,0.0355,0.0355,0,159,159,18,1,twoone,,,,,,,,,,,,,,,,,,,,,,,,,,,,,,,,,,,,,,,,,,,,,,,,,,,,,,,,,,,,,,,,,,,,,,,,,,,,,,,,,,,,,,,,,,,,,,,,,,,,,,,,,,,,,,,,,,,,,,,,,,,,,,,,,,,,,,,,,
,,5e9cc0fabfffb50009c9fd15,2024-02-22_03h24.15.836,kallum_motion_pilot,2023.2.2,Win32,140.8450704,5e9cc0fabfffb50009c9fd15,65d6bb0e977760de756971f7,65d6be41dab6027eb01ed59d,0.0355,0.0357,0,160,160,108,1,sevenfive,,,,,,,,,,,,,,,,,,,,,,,,,,,,,,,,,,,,,,,,,,,,,,,,,,,,,,,,,,,,,,,,,,,,,,,,,,,,,,,,,,,,,,,,,,,,,,,,,,,,,,,,,,,,,,,,,,,,,,,,,,,,,,,,,,,,,,,,,
,,5e9cc0fabfffb50009c9fd15,2024-02-22_03h24.15.836,kallum_motion_pilot,2023.2.2,Win32,140.8450704,5e9cc0fabfffb50009c9fd15,65d6bb0e977760de756971f7,65d6be41dab6027eb01ed59d,0.0357,0.0357,0,161,161,131,1,sixeight,,,,,,,,,,,,,,,,,,,,,,,,,,,,,,,,,,,,,,,,,,,,,,,,,,,,,,,,,,,,,,,,,,,,,,,,,,,,,,,,,,,,,,,,,,,,,,,,,,,,,,,,,,,,,,,,,,,,,,,,,,,,,,,,,,,,,,,,,
,,5e9cc0fabfffb50009c9fd15,2024-02-22_03h24.15.836,kallum_motion_pilot,2023.2.2,Win32,140.8450704,5e9cc0fabfffb50009c9fd15,65d6bb0e977760de756971f7,65d6be41dab6027eb01ed59d,0.0358,0.0358,1,0,162,152,1,fivesix,,,,,,,,,,,,,,,,,,,,,,,,,,,,,,,,,,,,,,,,,,,,,,,,,,,,,,,,,,,,,,,,,,,,,,,,,,,,,,,,,,,,,,,,,,,,,,,,,,,,,,,,,,,,,,,,,,,,,,,,,,,,,,,,,,,,,,,,,
,,5e9cc0fabfffb50009c9fd15,2024-02-22_03h24.15.836,kallum_motion_pilot,2023.2.2,Win32,140.8450704,5e9cc0fabfffb50009c9fd15,65d6bb0e977760de756971f7,65d6be41dab6027eb01ed59d,0.0359,0.036,1,1,163,153,1,fiveseven,,,,,,,,,,,,,,,,,,,,,,,,,,,,,,,,,,,,,,,,,,,,,,,,,,,,,,,,,,,,,,,,,,,,,,,,,,,,,,,,,,,,,,,,,,,,,,,,,,,,,,,,,,,,,,,,,,,,,,,,,,,,,,,,,,,,,,,,,
,,5e9cc0fabfffb50009c9fd15,2024-02-22_03h24.15.836,kallum_motion_pilot,2023.2.2,Win32,140.8450704,5e9cc0fabfffb50009c9fd15,65d6bb0e977760de756971f7,65d6be41dab6027eb01ed59d,0.036,0.0361,1,2,164,103,1,eightseven,,,,,,,,,,,,,,,,,,,,,,,,,,,,,,,,,,,,,,,,,,,,,,,,,,,,,,,,,,,,,,,,,,,,,,,,,,,,,,,,,,,,,,,,,,,,,,,,,,,,,,,,,,,,,,,,,,,,,,,,,,,,,,,,,,,,,,,,,
,,5e9cc0fabfffb50009c9fd15,2024-02-22_03h24.15.836,kallum_motion_pilot,2023.2.2,Win32,140.8450704,5e9cc0fabfffb50009c9fd15,65d6bb0e977760de756971f7,65d6be41dab6027eb01ed59d,0.0362,0.0363,1,3,165,5,1,threefour,,,,,,,,,,,,,,,,,,,,,,,,,,,,,,,,,,,,,,,,,,,,,,,,,,,,,,,,,,,,,,,,,,,,,,,,,,,,,,,,,,,,,,,,,,,,,,,,,,,,,,,,,,,,,,,,,,,,,,,,,,,,,,,,,,,,,,,,,
,,5e9cc0fabfffb50009c9fd15,2024-02-22_03h24.15.836,kallum_motion_pilot,2023.2.2,Win32,140.8450704,5e9cc0fabfffb50009c9fd15,65d6bb0e977760de756971f7,65d6be41dab6027eb01ed59d,0.0363,0.0364,1,4,166,12,1,threeone,,,,,,,,,,,,,,,,,,,,,,,,,,,,,,,,,,,,,,,,,,,,,,,,,,,,,,,,,,,,,,,,,,,,,,,,,,,,,,,,,,,,,,,,,,,,,,,,,,,,,,,,,,,,,,,,,,,,,,,,,,,,,,,,,,,,,,,,,
,,5e9cc0fabfffb50009c9fd15,2024-02-22_03h24.15.836,kallum_motion_pilot,2023.2.2,Win32,140.8450704,5e9cc0fabfffb50009c9fd15,65d6bb0e977760de756971f7,65d6be41dab6027eb01ed59d,0.0364,0.0364,1,5,167,109,1,seveneight,,,,,,,,,,,,,,,,,,,,,,,,,,,,,,,,,,,,,,,,,,,,,,,,,,,,,,,,,,,,,,,,,,,,,,,,,,,,,,,,,,,,,,,,,,,,,,,,,,,,,,,,,,,,,,,,,,,,,,,,,,,,,,,,,,,,,,,,,
,,5e9cc0fabfffb50009c9fd15,2024-02-22_03h24.15.836,kallum_motion_pilot,2023.2.2,Win32,140.8450704,5e9cc0fabfffb50009c9fd15,65d6bb0e977760de756971f7,65d6be41dab6027eb01ed59d,0.0365,0.0366,1,6,168,44,1,threeone,,,,,,,,,,,,,,,,,,,,,,,,,,,,,,,,,,,,,,,,,,,,,,,,,,,,,,,,,,,,,,,,,,,,,,,,,,,,,,,,,,,,,,,,,,,,,,,,,,,,,,,,,,,,,,,,,,,,,,,,,,,,,,,,,,,,,,,,,
,,5e9cc0fabfffb50009c9fd15,2024-02-22_03h24.15.836,kallum_motion_pilot,2023.2.2,Win32,140.8450704,5e9cc0fabfffb50009c9fd15,65d6bb0e977760de756971f7,65d6be41dab6027eb01ed59d,0.0366,0.0367,1,7,169,120,1,fivesix,,,,,,,,,,,,,,,,,,,,,,,,,,,,,,,,,,,,,,,,,,,,,,,,,,,,,,,,,,,,,,,,,,,,,,,,,,,,,,,,,,,,,,,,,,,,,,,,,,,,,,,,,,,,,,,,,,,,,,,,,,,,,,,,,,,,,,,,,
,,5e9cc0fabfffb50009c9fd15,2024-02-22_03h24.15.836,kallum_motion_pilot,2023.2.2,Win32,140.8450704,5e9cc0fabfffb50009c9fd15,65d6bb0e977760de756971f7,65d6be41dab6027eb01ed59d,0.0367,0.0367,1,8,170,105,1,fiveseven,,,,,,,,,,,,,,,,,,,,,,,,,,,,,,,,,,,,,,,,,,,,,,,,,,,,,,,,,,,,,,,,,,,,,,,,,,,,,,,,,,,,,,,,,,,,,,,,,,,,,,,,,,,,,,,,,,,,,,,,,,,,,,,,,,,,,,,,,
,,5e9cc0fabfffb50009c9fd15,2024-02-22_03h24.15.836,kallum_motion_pilot,2023.2.2,Win32,140.8450704,5e9cc0fabfffb50009c9fd15,65d6bb0e977760de756971f7,65d6be41dab6027eb01ed59d,0.0369,0.0369,1,9,171,56,1,onetwo,,,,,,,,,,,,,,,,,,,,,,,,,,,,,,,,,,,,,,,,,,,,,,,,,,,,,,,,,,,,,,,,,,,,,,,,,,,,,,,,,,,,,,,,,,,,,,,,,,,,,,,,,,,,,,,,,,,,,,,,,,,,,,,,,,,,,,,,,
,,5e9cc0fabfffb50009c9fd15,2024-02-22_03h24.15.836,kallum_motion_pilot,2023.2.2,Win32,140.8450704,5e9cc0fabfffb50009c9fd15,65d6bb0e977760de756971f7,65d6be41dab6027eb01ed59d,0.037,0.037,1,10,172,88,1,fivesix,,,,,,,,,,,,,,,,,,,,,,,,,,,,,,,,,,,,,,,,,,,,,,,,,,,,,,,,,,,,,,,,,,,,,,,,,,,,,,,,,,,,,,,,,,,,,,,,,,,,,,,,,,,,,,,,,,,,,,,,,,,,,,,,,,,,,,,,,
,,5e9cc0fabfffb50009c9fd15,2024-02-22_03h24.15.836,kallum_motion_pilot,2023.2.2,Win32,140.8450704,5e9cc0fabfffb50009c9fd15,65d6bb0e977760de756971f7,65d6be41dab6027eb01ed59d,0.0371,0.0371,1,11,173,158,1,eightsix,,,,,,,,,,,,,,,,,,,,,,,,,,,,,,,,,,,,,,,,,,,,,,,,,,,,,,,,,,,,,,,,,,,,,,,,,,,,,,,,,,,,,,,,,,,,,,,,,,,,,,,,,,,,,,,,,,,,,,,,,,,,,,,,,,,,,,,,,
,,5e9cc0fabfffb50009c9fd15,2024-02-22_03h24.15.836,kallum_motion_pilot,2023.2.2,Win32,140.8450704,5e9cc0fabfffb50009c9fd15,65d6bb0e977760de756971f7,65d6be41dab6027eb01ed59d,0.0371,0.0372,1,12,174,130,1,sixfive,,,,,,,,,,,,,,,,,,,,,,,,,,,,,,,,,,,,,,,,,,,,,,,,,,,,,,,,,,,,,,,,,,,,,,,,,,,,,,,,,,,,,,,,,,,,,,,,,,,,,,,,,,,,,,,,,,,,,,,,,,,,,,,,,,,,,,,,,
,,5e9cc0fabfffb50009c9fd15,2024-02-22_03h24.15.836,kallum_motion_pilot,2023.2.2,Win32,140.8450704,5e9cc0fabfffb50009c9fd15,65d6bb0e977760de756971f7,65d6be41dab6027eb01ed59d,0.0373,0.0373,1,13,175,65,1,onethree,,,,,,,,,,,,,,,,,,,,,,,,,,,,,,,,,,,,,,,,,,,,,,,,,,,,,,,,,,,,,,,,,,,,,,,,,,,,,,,,,,,,,,,,,,,,,,,,,,,,,,,,,,,,,,,,,,,,,,,,,,,,,,,,,,,,,,,,,
,,5e9cc0fabfffb50009c9fd15,2024-02-22_03h24.15.836,kallum_motion_pilot,2023.2.2,Win32,140.8450704,5e9cc0fabfffb50009c9fd15,65d6bb0e977760de756971f7,65d6be41dab6027eb01ed59d,0.0373,0.0374,1,14,176,140,1,sevenfive,,,,,,,,,,,,,,,,,,,,,,,,,,,,,,,,,,,,,,,,,,,,,,,,,,,,,,,,,,,,,,,,,,,,,,,,,,,,,,,,,,,,,,,,,,,,,,,,,,,,,,,,,,,,,,,,,,,,,,,,,,,,,,,,,,,,,,,,,
,,5e9cc0fabfffb50009c9fd15,2024-02-22_03h24.15.836,kallum_motion_pilot,2023.2.2,Win32,140.8450704,5e9cc0fabfffb50009c9fd15,65d6bb0e977760de756971f7,65d6be41dab6027eb01ed59d,0.0374,0.0375,1,15,177,0,1,onetwo,,,,,,,,,,,,,,,,,,,,,,,,,,,,,,,,,,,,,,,,,,,,,,,,,,,,,,,,,,,,,,,,,,,,,,,,,,,,,,,,,,,,,,,,,,,,,,,,,,,,,,,,,,,,,,,,,,,,,,,,,,,,,,,,,,,,,,,,,
,,5e9cc0fabfffb50009c9fd15,2024-02-22_03h24.15.836,kallum_motion_pilot,2023.2.2,Win32,140.8450704,5e9cc0fabfffb50009c9fd15,65d6bb0e977760de756971f7,65d6be41dab6027eb01ed59d,0.0375,0.0376,1,16,178,28,1,threeone,,,,,,,,,,,,,,,,,,,,,,,,,,,,,,,,,,,,,,,,,,,,,,,,,,,,,,,,,,,,,,,,,,,,,,,,,,,,,,,,,,,,,,,,,,,,,,,,,,,,,,,,,,,,,,,,,,,,,,,,,,,,,,,,,,,,,,,,,
,,5e9cc0fabfffb50009c9fd15,2024-02-22_03h24.15.836,kallum_motion_pilot,2023.2.2,Win32,140.8450704,5e9cc0fabfffb50009c9fd15,65d6bb0e977760de756971f7,65d6be41dab6027eb01ed59d,0.0377,0.0377,1,17,179,49,1,onethree,,,,,,,,,,,,,,,,,,,,,,,,,,,,,,,,,,,,,,,,,,,,,,,,,,,,,,,,,,,,,,,,,,,,,,,,,,,,,,,,,,,,,,,,,,,,,,,,,,,,,,,,,,,,,,,,,,,,,,,,,,,,,,,,,,,,,,,,,
,,5e9cc0fabfffb50009c9fd15,2024-02-22_03h24.15.836,kallum_motion_pilot,2023.2.2,Win32,140.8450704,5e9cc0fabfffb50009c9fd15,65d6bb0e977760de756971f7,65d6be41dab6027eb01ed59d,0.0378,0.0379,1,18,180,21,1,threefour,,,,,,,,,,,,,,,,,,,,,,,,,,,,,,,,,,,,,,,,,,,,,,,,,,,,,,,,,,,,,,,,,,,,,,,,,,,,,,,,,,,,,,,,,,,,,,,,,,,,,,,,,,,,,,,,,,,,,,,,,,,,,,,,,,,,,,,,,
,,5e9cc0fabfffb50009c9fd15,2024-02-22_03h24.15.836,kallum_motion_pilot,2023.2.2,Win32,140.8450704,5e9cc0fabfffb50009c9fd15,65d6bb0e977760de756971f7,65d6be41dab6027eb01ed59d,0.0379,0.0379,1,19,181,94,1,eightsix,,,,,,,,,,,,,,,,,,,,,,,,,,,,,,,,,,,,,,,,,,,,,,,,,,,,,,,,,,,,,,,,,,,,,,,,,,,,,,,,,,,,,,,,,,,,,,,,,,,,,,,,,,,,,,,,,,,,,,,,,,,,,,,,,,,,,,,,,
,,5e9cc0fabfffb50009c9fd15,2024-02-22_03h24.15.836,kallum_motion_pilot,2023.2.2,Win32,140.8450704,5e9cc0fabfffb50009c9fd15,65d6bb0e977760de756971f7,65d6be41dab6027eb01ed59d,0.038,0.038,1,20,182,62,1,fourtwo,,,,,,,,,,,,,,,,,,,,,,,,,,,,,,,,,,,,,,,,,,,,,,,,,,,,,,,,,,,,,,,,,,,,,,,,,,,,,,,,,,,,,,,,,,,,,,,,,,,,,,,,,,,,,,,,,,,,,,,,,,,,,,,,,,,,,,,,,
,,5e9cc0fabfffb50009c9fd15,2024-02-22_03h24.15.836,kallum_motion_pilot,2023.2.2,Win32,140.8450704,5e9cc0fabfffb50009c9fd15,65d6bb0e977760de756971f7,65d6be41dab6027eb01ed59d,0.0381,0.0382,1,21,183,114,1,sixfive,,,,,,,,,,,,,,,,,,,,,,,,,,,,,,,,,,,,,,,,,,,,,,,,,,,,,,,,,,,,,,,,,,,,,,,,,,,,,,,,,,,,,,,,,,,,,,,,,,,,,,,,,,,,,,,,,,,,,,,,,,,,,,,,,,,,,,,,,
,,5e9cc0fabfffb50009c9fd15,2024-02-22_03h24.15.836,kallum_motion_pilot,2023.2.2,Win32,140.8450704,5e9cc0fabfffb50009c9fd15,65d6bb0e977760de756971f7,65d6be41dab6027eb01ed59d,0.0382,0.0383,1,22,184,87,1,eightseven,,,,,,,,,,,,,,,,,,,,,,,,,,,,,,,,,,,,,,,,,,,,,,,,,,,,,,,,,,,,,,,,,,,,,,,,,,,,,,,,,,,,,,,,,,,,,,,,,,,,,,,,,,,,,,,,,,,,,,,,,,,,,,,,,,,,,,,,,
,,5e9cc0fabfffb50009c9fd15,2024-02-22_03h24.15.836,kallum_motion_pilot,2023.2.2,Win32,140.8450704,5e9cc0fabfffb50009c9fd15,65d6bb0e977760de756971f7,65d6be41dab6027eb01ed59d,0.0383,0.0384,1,23,185,155,1,sixeight,,,,,,,,,,,,,,,,,,,,,,,,,,,,,,,,,,,,,,,,,,,,,,,,,,,,,,,,,,,,,,,,,,,,,,,,,,,,,,,,,,,,,,,,,,,,,,,,,,,,,,,,,,,,,,,,,,,,,,,,,,,,,,,,,,,,,,,,,
,,5e9cc0fabfffb50009c9fd15,2024-02-22_03h24.15.836,kallum_motion_pilot,2023.2.2,Win32,140.8450704,5e9cc0fabfffb50009c9fd15,65d6bb0e977760de756971f7,65d6be41dab6027eb01ed59d,0.0384,0.0385,1,24,186,61,1,threefour,,,,,,,,,,,,,,,,,,,,,,,,,,,,,,,,,,,,,,,,,,,,,,,,,,,,,,,,,,,,,,,,,,,,,,,,,,,,,,,,,,,,,,,,,,,,,,,,,,,,,,,,,,,,,,,,,,,,,,,,,,,,,,,,,,,,,,,,,
,,5e9cc0fabfffb50009c9fd15,2024-02-22_03h24.15.836,kallum_motion_pilot,2023.2.2,Win32,140.8450704,5e9cc0fabfffb50009c9fd15,65d6bb0e977760de756971f7,65d6be41dab6027eb01ed59d,0.0386,0.0386,1,25,187,73,1,onethree,,,,,,,,,,,,,,,,,,,,,,,,,,,,,,,,,,,,,,,,,,,,,,,,,,,,,,,,,,,,,,,,,,,,,,,,,,,,,,,,,,,,,,,,,,,,,,,,,,,,,,,,,,,,,,,,,,,,,,,,,,,,,,,,,,,,,,,,,
,,5e9cc0fabfffb50009c9fd15,2024-02-22_03h24.15.836,kallum_motion_pilot,2023.2.2,Win32,140.8450704,5e9cc0fabfffb50009c9fd15,65d6bb0e977760de756971f7,65d6be41dab6027eb01ed59d,0.0387,0.0387,1,26,188,17,1,onethree,,,,,,,,,,,,,,,,,,,,,,,,,,,,,,,,,,,,,,,,,,,,,,,,,,,,,,,,,,,,,,,,,,,,,,,,,,,,,,,,,,,,,,,,,,,,,,,,,,,,,,,,,,,,,,,,,,,,,,,,,,,,,,,,,,,,,,,,,
,,5e9cc0fabfffb50009c9fd15,2024-02-22_03h24.15.836,kallum_motion_pilot,2023.2.2,Win32,140.8450704,5e9cc0fabfffb50009c9fd15,65d6bb0e977760de756971f7,65d6be41dab6027eb01ed59d,0.0388,0.0388,1,27,189,128,1,fivesix,,,,,,,,,,,,,,,,,,,,,,,,,,,,,,,,,,,,,,,,,,,,,,,,,,,,,,,,,,,,,,,,,,,,,,,,,,,,,,,,,,,,,,,,,,,,,,,,,,,,,,,,,,,,,,,,,,,,,,,,,,,,,,,,,,,,,,,,,
,,5e9cc0fabfffb50009c9fd15,2024-02-22_03h24.15.836,kallum_motion_pilot,2023.2.2,Win32,140.8450704,5e9cc0fabfffb50009c9fd15,65d6bb0e977760de756971f7,65d6be41dab6027eb01ed59d,0.0391,0.0392,1,28,190,32,1,onetwo,,,,,,,,,,,,,,,,,,,,,,,,,,,,,,,,,,,,,,,,,,,,,,,,,,,,,,,,,,,,,,,,,,,,,,,,,,,,,,,,,,,,,,,,,,,,,,,,,,,,,,,,,,,,,,,,,,,,,,,,,,,,,,,,,,,,,,,,,
,,5e9cc0fabfffb50009c9fd15,2024-02-22_03h24.15.836,kallum_motion_pilot,2023.2.2,Win32,140.8450704,5e9cc0fabfffb50009c9fd15,65d6bb0e977760de756971f7,65d6be41dab6027eb01ed59d,0.0393,0.0393,1,29,191,108,1,sevenfive,,,,,,,,,,,,,,,,,,,,,,,,,,,,,,,,,,,,,,,,,,,,,,,,,,,,,,,,,,,,,,,,,,,,,,,,,,,,,,,,,,,,,,,,,,,,,,,,,,,,,,,,,,,,,,,,,,,,,,,,,,,,,,,,,,,,,,,,,
,,5e9cc0fabfffb50009c9fd15,2024-02-22_03h24.15.836,kallum_motion_pilot,2023.2.2,Win32,140.8450704,5e9cc0fabfffb50009c9fd15,65d6bb0e977760de756971f7,65d6be41dab6027eb01ed59d,0.0394,0.0394,1,30,192,77,1,threefour,,,,,,,,,,,,,,,,,,,,,,,,,,,,,,,,,,,,,,,,,,,,,,,,,,,,,,,,,,,,,,,,,,,,,,,,,,,,,,,,,,,,,,,,,,,,,,,,,,,,,,,,,,,,,,,,,,,,,,,,,,,,,,,,,,,,,,,,,
,,5e9cc0fabfffb50009c9fd15,2024-02-22_03h24.15.836,kallum_motion_pilot,2023.2.2,Win32,140.8450704,5e9cc0fabfffb50009c9fd15,65d6bb0e977760de756971f7,65d6be41dab6027eb01ed59d,0.0395,0.0395,1,31,193,76,1,threeone,,,,,,,,,,,,,,,,,,,,,,,,,,,,,,,,,,,,,,,,,,,,,,,,,,,,,,,,,,,,,,,,,,,,,,,,,,,,,,,,,,,,,,,,,,,,,,,,,,,,,,,,,,,,,,,,,,,,,,,,,,,,,,,,,,,,,,,,,
,,5e9cc0fabfffb50009c9fd15,2024-02-22_03h24.15.836,kallum_motion_pilot,2023.2.2,Win32,140.8450704,5e9cc0fabfffb50009c9fd15,65d6bb0e977760de756971f7,65d6be41dab6027eb01ed59d,0.0395,0.0396,1,32,194,133,1,seveneight,,,,,,,,,,,,,,,,,,,,,,,,,,,,,,,,,,,,,,,,,,,,,,,,,,,,,,,,,,,,,,,,,,,,,,,,,,,,,,,,,,,,,,,,,,,,,,,,,,,,,,,,,,,,,,,,,,,,,,,,,,,,,,,,,,,,,,,,,
,,5e9cc0fabfffb50009c9fd15,2024-02-22_03h24.15.836,kallum_motion_pilot,2023.2.2,Win32,140.8450704,5e9cc0fabfffb50009c9fd15,65d6bb0e977760de756971f7,65d6be41dab6027eb01ed59d,0.0397,0.0397,1,33,195,131,1,sixeight,,,,,,,,,,,,,,,,,,,,,,,,,,,,,,,,,,,,,,,,,,,,,,,,,,,,,,,,,,,,,,,,,,,,,,,,,,,,,,,,,,,,,,,,,,,,,,,,,,,,,,,,,,,,,,,,,,,,,,,,,,,,,,,,,,,,,,,,,
,,5e9cc0fabfffb50009c9fd15,2024-02-22_03h24.15.836,kallum_motion_pilot,2023.2.2,Win32,140.8450704,5e9cc0fabfffb50009c9fd15,65d6bb0e977760de756971f7,65d6be41dab6027eb01ed59d,0.0398,0.0398,1,34,196,151,1,eightseven,,,,,,,,,,,,,,,,,,,,,,,,,,,,,,,,,,,,,,,,,,,,,,,,,,,,,,,,,,,,,,,,,,,,,,,,,,,,,,,,,,,,,,,,,,,,,,,,,,,,,,,,,,,,,,,,,,,,,,,,,,,,,,,,,,,,,,,,,
,,5e9cc0fabfffb50009c9fd15,2024-02-22_03h24.15.836,kallum_motion_pilot,2023.2.2,Win32,140.8450704,5e9cc0fabfffb50009c9fd15,65d6bb0e977760de756971f7,65d6be41dab6027eb01ed59d,0.0399,0.0399,1,35,197,121,1,fiveseven,,,,,,,,,,,,,,,,,,,,,,,,,,,,,,,,,,,,,,,,,,,,,,,,,,,,,,,,,,,,,,,,,,,,,,,,,,,,,,,,,,,,,,,,,,,,,,,,,,,,,,,,,,,,,,,,,,,,,,,,,,,,,,,,,,,,,,,,,
,,5e9cc0fabfffb50009c9fd15,2024-02-22_03h24.15.836,kallum_motion_pilot,2023.2.2,Win32,140.8450704,5e9cc0fabfffb50009c9fd15,65d6bb0e977760de756971f7,65d6be41dab6027eb01ed59d,0.0401,0.0401,1,36,198,57,1,onethree,,,,,,,,,,,,,,,,,,,,,,,,,,,,,,,,,,,,,,,,,,,,,,,,,,,,,,,,,,,,,,,,,,,,,,,,,,,,,,,,,,,,,,,,,,,,,,,,,,,,,,,,,,,,,,,,,,,,,,,,,,,,,,,,,,,,,,,,,
,,5e9cc0fabfffb50009c9fd15,2024-02-22_03h24.15.836,kallum_motion_pilot,2023.2.2,Win32,140.8450704,5e9cc0fabfffb50009c9fd15,65d6bb0e977760de756971f7,65d6be41dab6027eb01ed59d,0.0402,0.0403,1,37,199,95,1,eightseven,,,,,,,,,,,,,,,,,,,,,,,,,,,,,,,,,,,,,,,,,,,,,,,,,,,,,,,,,,,,,,,,,,,,,,,,,,,,,,,,,,,,,,,,,,,,,,,,,,,,,,,,,,,,,,,,,,,,,,,,,,,,,,,,,,,,,,,,,
,,5e9cc0fabfffb50009c9fd15,2024-02-22_03h24.15.836,kallum_motion_pilot,2023.2.2,Win32,140.8450704,5e9cc0fabfffb50009c9fd15,65d6bb0e977760de756971f7,65d6be41dab6027eb01ed59d,0.0403,0.0403,1,38,200,135,1,eightseven,,,,,,,,,,,,,,,,,,,,,,,,,,,,,,,,,,,,,,,,,,,,,,,,,,,,,,,,,,,,,,,,,,,,,,,,,,,,,,,,,,,,,,,,,,,,,,,,,,,,,,,,,,,,,,,,,,,,,,,,,,,,,,,,,,,,,,,,,
,,5e9cc0fabfffb50009c9fd15,2024-02-22_03h24.15.836,kallum_motion_pilot,2023.2.2,Win32,140.8450704,5e9cc0fabfffb50009c9fd15,65d6bb0e977760de756971f7,65d6be41dab6027eb01ed59d,0.0404,0.0405,1,39,201,126,1,eightsix,,,,,,,,,,,,,,,,,,,,,,,,,,,,,,,,,,,,,,,,,,,,,,,,,,,,,,,,,,,,,,,,,,,,,,,,,,,,,,,,,,,,,,,,,,,,,,,,,,,,,,,,,,,,,,,,,,,,,,,,,,,,,,,,,,,,,,,,,
,,5e9cc0fabfffb50009c9fd15,2024-02-22_03h24.15.836,kallum_motion_pilot,2023.2.2,Win32,140.8450704,5e9cc0fabfffb50009c9fd15,65d6bb0e977760de756971f7,65d6be41dab6027eb01ed59d,0.0405,0.0406,1,40,202,110,1,eightsix,,,,,,,,,,,,,,,,,,,,,,,,,,,,,,,,,,,,,,,,,,,,,,,,,,,,,,,,,,,,,,,,,,,,,,,,,,,,,,,,,,,,,,,,,,,,,,,,,,,,,,,,,,,,,,,,,,,,,,,,,,,,,,,,,,,,,,,,,
,,5e9cc0fabfffb50009c9fd15,2024-02-22_03h24.15.836,kallum_motion_pilot,2023.2.2,Win32,140.8450704,5e9cc0fabfffb50009c9fd15,65d6bb0e977760de756971f7,65d6be41dab6027eb01ed59d,0.0407,0.0407,1,41,203,38,1,fourtwo,,,,,,,,,,,,,,,,,,,,,,,,,,,,,,,,,,,,,,,,,,,,,,,,,,,,,,,,,,,,,,,,,,,,,,,,,,,,,,,,,,,,,,,,,,,,,,,,,,,,,,,,,,,,,,,,,,,,,,,,,,,,,,,,,,,,,,,,,
,,5e9cc0fabfffb50009c9fd15,2024-02-22_03h24.15.836,kallum_motion_pilot,2023.2.2,Win32,140.8450704,5e9cc0fabfffb50009c9fd15,65d6bb0e977760de756971f7,65d6be41dab6027eb01ed59d,0.0408,0.0408,1,42,204,19,1,twofour,,,,,,,,,,,,,,,,,,,,,,,,,,,,,,,,,,,,,,,,,,,,,,,,,,,,,,,,,,,,,,,,,,,,,,,,,,,,,,,,,,,,,,,,,,,,,,,,,,,,,,,,,,,,,,,,,,,,,,,,,,,,,,,,,,,,,,,,,
,,5e9cc0fabfffb50009c9fd15,2024-02-22_03h24.15.836,kallum_motion_pilot,2023.2.2,Win32,140.8450704,5e9cc0fabfffb50009c9fd15,65d6bb0e977760de756971f7,65d6be41dab6027eb01ed59d,0.0409,0.0409,1,43,205,43,1,twofour,,,,,,,,,,,,,,,,,,,,,,,,,,,,,,,,,,,,,,,,,,,,,,,,,,,,,,,,,,,,,,,,,,,,,,,,,,,,,,,,,,,,,,,,,,,,,,,,,,,,,,,,,,,,,,,,,,,,,,,,,,,,,,,,,,,,,,,,,
,,5e9cc0fabfffb50009c9fd15,2024-02-22_03h24.15.836,kallum_motion_pilot,2023.2.2,Win32,140.8450704,5e9cc0fabfffb50009c9fd15,65d6bb0e977760de756971f7,65d6be41dab6027eb01ed59d,0.041,0.0411,1,44,206,59,1,twofour,,,,,,,,,,,,,,,,,,,,,,,,,,,,,,,,,,,,,,,,,,,,,,,,,,,,,,,,,,,,,,,,,,,,,,,,,,,,,,,,,,,,,,,,,,,,,,,,,,,,,,,,,,,,,,,,,,,,,,,,,,,,,,,,,,,,,,,,,
,,5e9cc0fabfffb50009c9fd15,2024-02-22_03h24.15.836,kallum_motion_pilot,2023.2.2,Win32,140.8450704,5e9cc0fabfffb50009c9fd15,65d6bb0e977760de756971f7,65d6be41dab6027eb01ed59d,0.0411,0.0411,1,45,207,99,1,sixeight,,,,,,,,,,,,,,,,,,,,,,,,,,,,,,,,,,,,,,,,,,,,,,,,,,,,,,,,,,,,,,,,,,,,,,,,,,,,,,,,,,,,,,,,,,,,,,,,,,,,,,,,,,,,,,,,,,,,,,,,,,,,,,,,,,,,,,,,,
,,5e9cc0fabfffb50009c9fd15,2024-02-22_03h24.15.836,kallum_motion_pilot,2023.2.2,Win32,140.8450704,5e9cc0fabfffb50009c9fd15,65d6bb0e977760de756971f7,65d6be41dab6027eb01ed59d,0.0412,0.0412,1,46,208,97,1,fiveseven,,,,,,,,,,,,,,,,,,,,,,,,,,,,,,,,,,,,,,,,,,,,,,,,,,,,,,,,,,,,,,,,,,,,,,,,,,,,,,,,,,,,,,,,,,,,,,,,,,,,,,,,,,,,,,,,,,,,,,,,,,,,,,,,,,,,,,,,,
,,5e9cc0fabfffb50009c9fd15,2024-02-22_03h24.15.836,kallum_motion_pilot,2023.2.2,Win32,140.8450704,5e9cc0fabfffb50009c9fd15,65d6bb0e977760de756971f7,65d6be41dab6027eb01ed59d,0.0414,0.0414,1,47,209,51,1,twofour,,,,,,,,,,,,,,,,,,,,,,,,,,,,,,,,,,,,,,,,,,,,,,,,,,,,,,,,,,,,,,,,,,,,,,,,,,,,,,,,,,,,,,,,,,,,,,,,,,,,,,,,,,,,,,,,,,,,,,,,,,,,,,,,,,,,,,,,,
,,5e9cc0fabfffb50009c9fd15,2024-02-22_03h24.15.836,kallum_motion_pilot,2023.2.2,Win32,140.8450704,5e9cc0fabfffb50009c9fd15,65d6bb0e977760de756971f7,65d6be41dab6027eb01ed59d,0.0414,0.0415,1,48,210,101,1,seveneight,,,,,,,,,,,,,,,,,,,,,,,,,,,,,,,,,,,,,,,,,,,,,,,,,,,,,,,,,,,,,,,,,,,,,,,,,,,,,,,,,,,,,,,,,,,,,,,,,,,,,,,,,,,,,,,,,,,,,,,,,,,,,,,,,,,,,,,,,
,,5e9cc0fabfffb50009c9fd15,2024-02-22_03h24.15.836,kallum_motion_pilot,2023.2.2,Win32,140.8450704,5e9cc0fabfffb50009c9fd15,65d6bb0e977760de756971f7,65d6be41dab6027eb01ed59d,0.0416,0.0417,1,49,211,81,1,fiveseven,,,,,,,,,,,,,,,,,,,,,,,,,,,,,,,,,,,,,,,,,,,,,,,,,,,,,,,,,,,,,,,,,,,,,,,,,,,,,,,,,,,,,,,,,,,,,,,,,,,,,,,,,,,,,,,,,,,,,,,,,,,,,,,,,,,,,,,,,
,,5e9cc0fabfffb50009c9fd15,2024-02-22_03h24.15.836,kallum_motion_pilot,2023.2.2,Win32,140.8450704,5e9cc0fabfffb50009c9fd15,65d6bb0e977760de756971f7,65d6be41dab6027eb01ed59d,0.0417,0.0418,1,50,212,55,1,fourthree,,,,,,,,,,,,,,,,,,,,,,,,,,,,,,,,,,,,,,,,,,,,,,,,,,,,,,,,,,,,,,,,,,,,,,,,,,,,,,,,,,,,,,,,,,,,,,,,,,,,,,,,,,,,,,,,,,,,,,,,,,,,,,,,,,,,,,,,,
,,5e9cc0fabfffb50009c9fd15,2024-02-22_03h24.15.836,kallum_motion_pilot,2023.2.2,Win32,140.8450704,5e9cc0fabfffb50009c9fd15,65d6bb0e977760de756971f7,65d6be41dab6027eb01ed59d,0.0418,0.0419,1,51,213,74,1,twoone,,,,,,,,,,,,,,,,,,,,,,,,,,,,,,,,,,,,,,,,,,,,,,,,,,,,,,,,,,,,,,,,,,,,,,,,,,,,,,,,,,,,,,,,,,,,,,,,,,,,,,,,,,,,,,,,,,,,,,,,,,,,,,,,,,,,,,,,,
,,5e9cc0fabfffb50009c9fd15,2024-02-22_03h24.15.836,kallum_motion_pilot,2023.2.2,Win32,140.8450704,5e9cc0fabfffb50009c9fd15,65d6bb0e977760de756971f7,65d6be41dab6027eb01ed59d,0.042,0.042,1,52,214,29,1,threefour,,,,,,,,,,,,,,,,,,,,,,,,,,,,,,,,,,,,,,,,,,,,,,,,,,,,,,,,,,,,,,,,,,,,,,,,,,,,,,,,,,,,,,,,,,,,,,,,,,,,,,,,,,,,,,,,,,,,,,,,,,,,,,,,,,,,,,,,,
,,5e9cc0fabfffb50009c9fd15,2024-02-22_03h24.15.836,kallum_motion_pilot,2023.2.2,Win32,140.8450704,5e9cc0fabfffb50009c9fd15,65d6bb0e977760de756971f7,65d6be41dab6027eb01ed59d,0.0421,0.0421,1,53,215,34,1,twoone,,,,,,,,,,,,,,,,,,,,,,,,,,,,,,,,,,,,,,,,,,,,,,,,,,,,,,,,,,,,,,,,,,,,,,,,,,,,,,,,,,,,,,,,,,,,,,,,,,,,,,,,,,,,,,,,,,,,,,,,,,,,,,,,,,,,,,,,,
,,5e9cc0fabfffb50009c9fd15,2024-02-22_03h24.15.836,kallum_motion_pilot,2023.2.2,Win32,140.8450704,5e9cc0fabfffb50009c9fd15,65d6bb0e977760de756971f7,65d6be41dab6027eb01ed59d,0.0422,0.0422,1,54,216,20,1,threeone,,,,,,,,,,,,,,,,,,,,,,,,,,,,,,,,,,,,,,,,,,,,,,,,,,,,,,,,,,,,,,,,,,,,,,,,,,,,,,,,,,,,,,,,,,,,,,,,,,,,,,,,,,,,,,,,,,,,,,,,,,,,,,,,,,,,,,,,,
,,5e9cc0fabfffb50009c9fd15,2024-02-22_03h24.15.836,kallum_motion_pilot,2023.2.2,Win32,140.8450704,5e9cc0fabfffb50009c9fd15,65d6bb0e977760de756971f7,65d6be41dab6027eb01ed59d,0.0423,0.0423,1,55,217,157,1,seveneight,,,,,,,,,,,,,,,,,,,,,,,,,,,,,,,,,,,,,,,,,,,,,,,,,,,,,,,,,,,,,,,,,,,,,,,,,,,,,,,,,,,,,,,,,,,,,,,,,,,,,,,,,,,,,,,,,,,,,,,,,,,,,,,,,,,,,,,,,
,,5e9cc0fabfffb50009c9fd15,2024-02-22_03h24.15.836,kallum_motion_pilot,2023.2.2,Win32,140.8450704,5e9cc0fabfffb50009c9fd15,65d6bb0e977760de756971f7,65d6be41dab6027eb01ed59d,0.0425,0.0425,1,56,218,141,1,seveneight,,,,,,,,,,,,,,,,,,,,,,,,,,,,,,,,,,,,,,,,,,,,,,,,,,,,,,,,,,,,,,,,,,,,,,,,,,,,,,,,,,,,,,,,,,,,,,,,,,,,,,,,,,,,,,,,,,,,,,,,,,,,,,,,,,,,,,,,,
,,5e9cc0fabfffb50009c9fd15,2024-02-22_03h24.15.836,kallum_motion_pilot,2023.2.2,Win32,140.8450704,5e9cc0fabfffb50009c9fd15,65d6bb0e977760de756971f7,65d6be41dab6027eb01ed59d,0.0425,0.0426,1,57,219,13,1,threefour,,,,,,,,,,,,,,,,,,,,,,,,,,,,,,,,,,,,,,,,,,,,,,,,,,,,,,,,,,,,,,,,,,,,,,,,,,,,,,,,,,,,,,,,,,,,,,,,,,,,,,,,,,,,,,,,,,,,,,,,,,,,,,,,,,,,,,,,,
,,5e9cc0fabfffb50009c9fd15,2024-02-22_03h24.15.836,kallum_motion_pilot,2023.2.2,Win32,140.8450704,5e9cc0fabfffb50009c9fd15,65d6bb0e977760de756971f7,65d6be41dab6027eb01ed59d,0.0426,0.0426,1,58,220,132,1,sevenfive,,,,,,,,,,,,,,,,,,,,,,,,,,,,,,,,,,,,,,,,,,,,,,,,,,,,,,,,,,,,,,,,,,,,,,,,,,,,,,,,,,,,,,,,,,,,,,,,,,,,,,,,,,,,,,,,,,,,,,,,,,,,,,,,,,,,,,,,,
,,5e9cc0fabfffb50009c9fd15,2024-02-22_03h24.15.836,kallum_motion_pilot,2023.2.2,Win32,140.8450704,5e9cc0fabfffb50009c9fd15,65d6bb0e977760de756971f7,65d6be41dab6027eb01ed59d,0.0428,0.0428,1,59,221,22,1,fourtwo,,,,,,,,,,,,,,,,,,,,,,,,,,,,,,,,,,,,,,,,,,,,,,,,,,,,,,,,,,,,,,,,,,,,,,,,,,,,,,,,,,,,,,,,,,,,,,,,,,,,,,,,,,,,,,,,,,,,,,,,,,,,,,,,,,,,,,,,,
,,5e9cc0fabfffb50009c9fd15,2024-02-22_03h24.15.836,kallum_motion_pilot,2023.2.2,Win32,140.8450704,5e9cc0fabfffb50009c9fd15,65d6bb0e977760de756971f7,65d6be41dab6027eb01ed59d,0.0428,0.0429,1,60,222,149,1,seveneight,,,,,,,,,,,,,,,,,,,,,,,,,,,,,,,,,,,,,,,,,,,,,,,,,,,,,,,,,,,,,,,,,,,,,,,,,,,,,,,,,,,,,,,,,,,,,,,,,,,,,,,,,,,,,,,,,,,,,,,,,,,,,,,,,,,,,,,,,
,,5e9cc0fabfffb50009c9fd15,2024-02-22_03h24.15.836,kallum_motion_pilot,2023.2.2,Win32,140.8450704,5e9cc0fabfffb50009c9fd15,65d6bb0e977760de756971f7,65d6be41dab6027eb01ed59d,0.0429,0.043,1,61,223,139,1,sixeight,,,,,,,,,,,,,,,,,,,,,,,,,,,,,,,,,,,,,,,,,,,,,,,,,,,,,,,,,,,,,,,,,,,,,,,,,,,,,,,,,,,,,,,,,,,,,,,,,,,,,,,,,,,,,,,,,,,,,,,,,,,,,,,,,,,,,,,,,
,,5e9cc0fabfffb50009c9fd15,2024-02-22_03h24.15.836,kallum_motion_pilot,2023.2.2,Win32,140.8450704,5e9cc0fabfffb50009c9fd15,65d6bb0e977760de756971f7,65d6be41dab6027eb01ed59d,0.0431,0.0431,1,62,224,111,1,eightseven,,,,,,,,,,,,,,,,,,,,,,,,,,,,,,,,,,,,,,,,,,,,,,,,,,,,,,,,,,,,,,,,,,,,,,,,,,,,,,,,,,,,,,,,,,,,,,,,,,,,,,,,,,,,,,,,,,,,,,,,,,,,,,,,,,,,,,,,,
,,5e9cc0fabfffb50009c9fd15,2024-02-22_03h24.15.836,kallum_motion_pilot,2023.2.2,Win32,140.8450704,5e9cc0fabfffb50009c9fd15,65d6bb0e977760de756971f7,65d6be41dab6027eb01ed59d,0.0432,0.0432,1,63,225,46,1,fourtwo,,,,,,,,,,,,,,,,,,,,,,,,,,,,,,,,,,,,,,,,,,,,,,,,,,,,,,,,,,,,,,,,,,,,,,,,,,,,,,,,,,,,,,,,,,,,,,,,,,,,,,,,,,,,,,,,,,,,,,,,,,,,,,,,,,,,,,,,,
,,5e9cc0fabfffb50009c9fd15,2024-02-22_03h24.15.836,kallum_motion_pilot,2023.2.2,Win32,140.8450704,5e9cc0fabfffb50009c9fd15,65d6bb0e977760de756971f7,65d6be41dab6027eb01ed59d,0.0434,0.0434,1,64,226,91,1,sixeight,,,,,,,,,,,,,,,,,,,,,,,,,,,,,,,,,,,,,,,,,,,,,,,,,,,,,,,,,,,,,,,,,,,,,,,,,,,,,,,,,,,,,,,,,,,,,,,,,,,,,,,,,,,,,,,,,,,,,,,,,,,,,,,,,,,,,,,,,
,,5e9cc0fabfffb50009c9fd15,2024-02-22_03h24.15.836,kallum_motion_pilot,2023.2.2,Win32,140.8450704,5e9cc0fabfffb50009c9fd15,65d6bb0e977760de756971f7,65d6be41dab6027eb01ed59d,0.0434,0.0434,1,65,227,79,1,eightseven,,,,,,,,,,,,,,,,,,,,,,,,,,,,,,,,,,,,,,,,,,,,,,,,,,,,,,,,,,,,,,,,,,,,,,,,,,,,,,,,,,,,,,,,,,,,,,,,,,,,,,,,,,,,,,,,,,,,,,,,,,,,,,,,,,,,,,,,,
,,5e9cc0fabfffb50009c9fd15,2024-02-22_03h24.15.836,kallum_motion_pilot,2023.2.2,Win32,140.8450704,5e9cc0fabfffb50009c9fd15,65d6bb0e977760de756971f7,65d6be41dab6027eb01ed59d,0.0435,0.0436,1,66,228,116,1,sevenfive,,,,,,,,,,,,,,,,,,,,,,,,,,,,,,,,,,,,,,,,,,,,,,,,,,,,,,,,,,,,,,,,,,,,,,,,,,,,,,,,,,,,,,,,,,,,,,,,,,,,,,,,,,,,,,,,,,,,,,,,,,,,,,,,,,,,,,,,,
,,5e9cc0fabfffb50009c9fd15,2024-02-22_03h24.15.836,kallum_motion_pilot,2023.2.2,Win32,140.8450704,5e9cc0fabfffb50009c9fd15,65d6bb0e977760de756971f7,65d6be41dab6027eb01ed59d,0.0436,0.0437,1,67,229,136,1,fivesix,,,,,,,,,,,,,,,,,,,,,,,,,,,,,,,,,,,,,,,,,,,,,,,,,,,,,,,,,,,,,,,,,,,,,,,,,,,,,,,,,,,,,,,,,,,,,,,,,,,,,,,,,,,,,,,,,,,,,,,,,,,,,,,,,,,,,,,,,
,,5e9cc0fabfffb50009c9fd15,2024-02-22_03h24.15.836,kallum_motion_pilot,2023.2.2,Win32,140.8450704,5e9cc0fabfffb50009c9fd15,65d6bb0e977760de756971f7,65d6be41dab6027eb01ed59d,0.0438,0.0438,1,68,230,18,1,twoone,,,,,,,,,,,,,,,,,,,,,,,,,,,,,,,,,,,,,,,,,,,,,,,,,,,,,,,,,,,,,,,,,,,,,,,,,,,,,,,,,,,,,,,,,,,,,,,,,,,,,,,,,,,,,,,,,,,,,,,,,,,,,,,,,,,,,,,,,
,,5e9cc0fabfffb50009c9fd15,2024-02-22_03h24.15.836,kallum_motion_pilot,2023.2.2,Win32,140.8450704,5e9cc0fabfffb50009c9fd15,65d6bb0e977760de756971f7,65d6be41dab6027eb01ed59d,0.0438,0.0439,1,69,231,146,1,sixfive,,,,,,,,,,,,,,,,,,,,,,,,,,,,,,,,,,,,,,,,,,,,,,,,,,,,,,,,,,,,,,,,,,,,,,,,,,,,,,,,,,,,,,,,,,,,,,,,,,,,,,,,,,,,,,,,,,,,,,,,,,,,,,,,,,,,,,,,,
,,5e9cc0fabfffb50009c9fd15,2024-02-22_03h24.15.836,kallum_motion_pilot,2023.2.2,Win32,140.8450704,5e9cc0fabfffb50009c9fd15,65d6bb0e977760de756971f7,65d6be41dab6027eb01ed59d,0.0439,0.0441,1,70,232,123,1,sixeight,,,,,,,,,,,,,,,,,,,,,,,,,,,,,,,,,,,,,,,,,,,,,,,,,,,,,,,,,,,,,,,,,,,,,,,,,,,,,,,,,,,,,,,,,,,,,,,,,,,,,,,,,,,,,,,,,,,,,,,,,,,,,,,,,,,,,,,,,
,,5e9cc0fabfffb50009c9fd15,2024-02-22_03h24.15.836,kallum_motion_pilot,2023.2.2,Win32,140.8450704,5e9cc0fabfffb50009c9fd15,65d6bb0e977760de756971f7,65d6be41dab6027eb01ed59d,0.0441,0.0442,1,71,233,69,1,threefour,,,,,,,,,,,,,,,,,,,,,,,,,,,,,,,,,,,,,,,,,,,,,,,,,,,,,,,,,,,,,,,,,,,,,,,,,,,,,,,,,,,,,,,,,,,,,,,,,,,,,,,,,,,,,,,,,,,,,,,,,,,,,,,,,,,,,,,,,
,,5e9cc0fabfffb50009c9fd15,2024-02-22_03h24.15.836,kallum_motion_pilot,2023.2.2,Win32,140.8450704,5e9cc0fabfffb50009c9fd15,65d6bb0e977760de756971f7,65d6be41dab6027eb01ed59d,0.0443,0.0443,1,72,234,148,1,sevenfive,,,,,,,,,,,,,,,,,,,,,,,,,,,,,,,,,,,,,,,,,,,,,,,,,,,,,,,,,,,,,,,,,,,,,,,,,,,,,,,,,,,,,,,,,,,,,,,,,,,,,,,,,,,,,,,,,,,,,,,,,,,,,,,,,,,,,,,,,
,,5e9cc0fabfffb50009c9fd15,2024-02-22_03h24.15.836,kallum_motion_pilot,2023.2.2,Win32,140.8450704,5e9cc0fabfffb50009c9fd15,65d6bb0e977760de756971f7,65d6be41dab6027eb01ed59d,0.0443,0.0444,1,73,235,67,1,twofour,,,,,,,,,,,,,,,,,,,,,,,,,,,,,,,,,,,,,,,,,,,,,,,,,,,,,,,,,,,,,,,,,,,,,,,,,,,,,,,,,,,,,,,,,,,,,,,,,,,,,,,,,,,,,,,,,,,,,,,,,,,,,,,,,,,,,,,,,
,,5e9cc0fabfffb50009c9fd15,2024-02-22_03h24.15.836,kallum_motion_pilot,2023.2.2,Win32,140.8450704,5e9cc0fabfffb50009c9fd15,65d6bb0e977760de756971f7,65d6be41dab6027eb01ed59d,0.0445,0.0445,1,74,236,8,1,onetwo,,,,,,,,,,,,,,,,,,,,,,,,,,,,,,,,,,,,,,,,,,,,,,,,,,,,,,,,,,,,,,,,,,,,,,,,,,,,,,,,,,,,,,,,,,,,,,,,,,,,,,,,,,,,,,,,,,,,,,,,,,,,,,,,,,,,,,,,,
,,5e9cc0fabfffb50009c9fd15,2024-02-22_03h24.15.836,kallum_motion_pilot,2023.2.2,Win32,140.8450704,5e9cc0fabfffb50009c9fd15,65d6bb0e977760de756971f7,65d6be41dab6027eb01ed59d,0.0445,0.0447,1,75,237,66,1,twoone,,,,,,,,,,,,,,,,,,,,,,,,,,,,,,,,,,,,,,,,,,,,,,,,,,,,,,,,,,,,,,,,,,,,,,,,,,,,,,,,,,,,,,,,,,,,,,,,,,,,,,,,,,,,,,,,,,,,,,,,,,,,,,,,,,,,,,,,,
,,5e9cc0fabfffb50009c9fd15,2024-02-22_03h24.15.836,kallum_motion_pilot,2023.2.2,Win32,140.8450704,5e9cc0fabfffb50009c9fd15,65d6bb0e977760de756971f7,65d6be41dab6027eb01ed59d,0.0447,0.0447,1,76,238,25,1,onethree,,,,,,,,,,,,,,,,,,,,,,,,,,,,,,,,,,,,,,,,,,,,,,,,,,,,,,,,,,,,,,,,,,,,,,,,,,,,,,,,,,,,,,,,,,,,,,,,,,,,,,,,,,,,,,,,,,,,,,,,,,,,,,,,,,,,,,,,,
,,5e9cc0fabfffb50009c9fd15,2024-02-22_03h24.15.836,kallum_motion_pilot,2023.2.2,Win32,140.8450704,5e9cc0fabfffb50009c9fd15,65d6bb0e977760de756971f7,65d6be41dab6027eb01ed59d,0.0448,0.0449,1,77,239,26,1,twoone,,,,,,,,,,,,,,,,,,,,,,,,,,,,,,,,,,,,,,,,,,,,,,,,,,,,,,,,,,,,,,,,,,,,,,,,,,,,,,,,,,,,,,,,,,,,,,,,,,,,,,,,,,,,,,,,,,,,,,,,,,,,,,,,,,,,,,,,,
,,5e9cc0fabfffb50009c9fd15,2024-02-22_03h24.15.836,kallum_motion_pilot,2023.2.2,Win32,140.8450704,5e9cc0fabfffb50009c9fd15,65d6bb0e977760de756971f7,65d6be41dab6027eb01ed59d,0.0449,0.0449,1,78,240,3,1,twofour,,,,,,,,,,,,,,,,,,,,,,,,,,,,,,,,,,,,,,,,,,,,,,,,,,,,,,,,,,,,,,,,,,,,,,,,,,,,,,,,,,,,,,,,,,,,,,,,,,,,,,,,,,,,,,,,,,,,,,,,,,,,,,,,,,,,,,,,,
,,5e9cc0fabfffb50009c9fd15,2024-02-22_03h24.15.836,kallum_motion_pilot,2023.2.2,Win32,140.8450704,5e9cc0fabfffb50009c9fd15,65d6bb0e977760de756971f7,65d6be41dab6027eb01ed59d,0.045,0.0451,1,79,241,39,1,fourthree,,,,,,,,,,,,,,,,,,,,,,,,,,,,,,,,,,,,,,,,,,,,,,,,,,,,,,,,,,,,,,,,,,,,,,,,,,,,,,,,,,,,,,,,,,,,,,,,,,,,,,,,,,,,,,,,,,,,,,,,,,,,,,,,,,,,,,,,,
,,5e9cc0fabfffb50009c9fd15,2024-02-22_03h24.15.836,kallum_motion_pilot,2023.2.2,Win32,140.8450704,5e9cc0fabfffb50009c9fd15,65d6bb0e977760de756971f7,65d6be41dab6027eb01ed59d,0.0451,0.0452,1,80,242,54,1,fourtwo,,,,,,,,,,,,,,,,,,,,,,,,,,,,,,,,,,,,,,,,,,,,,,,,,,,,,,,,,,,,,,,,,,,,,,,,,,,,,,,,,,,,,,,,,,,,,,,,,,,,,,,,,,,,,,,,,,,,,,,,,,,,,,,,,,,,,,,,,
,,5e9cc0fabfffb50009c9fd15,2024-02-22_03h24.15.836,kallum_motion_pilot,2023.2.2,Win32,140.8450704,5e9cc0fabfffb50009c9fd15,65d6bb0e977760de756971f7,65d6be41dab6027eb01ed59d,0.0452,0.0454,1,81,243,75,1,twofour,,,,,,,,,,,,,,,,,,,,,,,,,,,,,,,,,,,,,,,,,,,,,,,,,,,,,,,,,,,,,,,,,,,,,,,,,,,,,,,,,,,,,,,,,,,,,,,,,,,,,,,,,,,,,,,,,,,,,,,,,,,,,,,,,,,,,,,,,
,,5e9cc0fabfffb50009c9fd15,2024-02-22_03h24.15.836,kallum_motion_pilot,2023.2.2,Win32,140.8450704,5e9cc0fabfffb50009c9fd15,65d6bb0e977760de756971f7,65d6be41dab6027eb01ed59d,0.0454,0.0454,1,82,244,64,1,onetwo,,,,,,,,,,,,,,,,,,,,,,,,,,,,,,,,,,,,,,,,,,,,,,,,,,,,,,,,,,,,,,,,,,,,,,,,,,,,,,,,,,,,,,,,,,,,,,,,,,,,,,,,,,,,,,,,,,,,,,,,,,,,,,,,,,,,,,,,,
,,5e9cc0fabfffb50009c9fd15,2024-02-22_03h24.15.836,kallum_motion_pilot,2023.2.2,Win32,140.8450704,5e9cc0fabfffb50009c9fd15,65d6bb0e977760de756971f7,65d6be41dab6027eb01ed59d,0.0455,0.0455,1,83,245,124,1,sevenfive,,,,,,,,,,,,,,,,,,,,,,,,,,,,,,,,,,,,,,,,,,,,,,,,,,,,,,,,,,,,,,,,,,,,,,,,,,,,,,,,,,,,,,,,,,,,,,,,,,,,,,,,,,,,,,,,,,,,,,,,,,,,,,,,,,,,,,,,,
,,5e9cc0fabfffb50009c9fd15,2024-02-22_03h24.15.836,kallum_motion_pilot,2023.2.2,Win32,140.8450704,5e9cc0fabfffb50009c9fd15,65d6bb0e977760de756971f7,65d6be41dab6027eb01ed59d,0.0456,0.0456,1,84,246,86,1,eightsix,,,,,,,,,,,,,,,,,,,,,,,,,,,,,,,,,,,,,,,,,,,,,,,,,,,,,,,,,,,,,,,,,,,,,,,,,,,,,,,,,,,,,,,,,,,,,,,,,,,,,,,,,,,,,,,,,,,,,,,,,,,,,,,,,,,,,,,,,
,,5e9cc0fabfffb50009c9fd15,2024-02-22_03h24.15.836,kallum_motion_pilot,2023.2.2,Win32,140.8450704,5e9cc0fabfffb50009c9fd15,65d6bb0e977760de756971f7,65d6be41dab6027eb01ed59d,0.0457,0.0458,1,85,247,42,1,twoone,,,,,,,,,,,,,,,,,,,,,,,,,,,,,,,,,,,,,,,,,,,,,,,,,,,,,,,,,,,,,,,,,,,,,,,,,,,,,,,,,,,,,,,,,,,,,,,,,,,,,,,,,,,,,,,,,,,,,,,,,,,,,,,,,,,,,,,,,
,,5e9cc0fabfffb50009c9fd15,2024-02-22_03h24.15.836,kallum_motion_pilot,2023.2.2,Win32,140.8450704,5e9cc0fabfffb50009c9fd15,65d6bb0e977760de756971f7,65d6be41dab6027eb01ed59d,0.0458,0.0458,1,86,248,112,1,fivesix,,,,,,,,,,,,,,,,,,,,,,,,,,,,,,,,,,,,,,,,,,,,,,,,,,,,,,,,,,,,,,,,,,,,,,,,,,,,,,,,,,,,,,,,,,,,,,,,,,,,,,,,,,,,,,,,,,,,,,,,,,,,,,,,,,,,,,,,,
,,5e9cc0fabfffb50009c9fd15,2024-02-22_03h24.15.836,kallum_motion_pilot,2023.2.2,Win32,140.8450704,5e9cc0fabfffb50009c9fd15,65d6bb0e977760de756971f7,65d6be41dab6027eb01ed59d,0.0459,0.046,1,87,249,60,1,threeone,,,,,,,,,,,,,,,,,,,,,,,,,,,,,,,,,,,,,,,,,,,,,,,,,,,,,,,,,,,,,,,,,,,,,,,,,,,,,,,,,,,,,,,,,,,,,,,,,,,,,,,,,,,,,,,,,,,,,,,,,,,,,,,,,,,,,,,,,
,,5e9cc0fabfffb50009c9fd15,2024-02-22_03h24.15.836,kallum_motion_pilot,2023.2.2,Win32,140.8450704,5e9cc0fabfffb50009c9fd15,65d6bb0e977760de756971f7,65d6be41dab6027eb01ed59d,0.046,0.0461,1,88,250,117,1,seveneight,,,,,,,,,,,,,,,,,,,,,,,,,,,,,,,,,,,,,,,,,,,,,,,,,,,,,,,,,,,,,,,,,,,,,,,,,,,,,,,,,,,,,,,,,,,,,,,,,,,,,,,,,,,,,,,,,,,,,,,,,,,,,,,,,,,,,,,,,
,,5e9cc0fabfffb50009c9fd15,2024-02-22_03h24.15.836,kallum_motion_pilot,2023.2.2,Win32,140.8450704,5e9cc0fabfffb50009c9fd15,65d6bb0e977760de756971f7,65d6be41dab6027eb01ed59d,0.0461,0.0462,1,89,251,7,1,fourthree,,,,,,,,,,,,,,,,,,,,,,,,,,,,,,,,,,,,,,,,,,,,,,,,,,,,,,,,,,,,,,,,,,,,,,,,,,,,,,,,,,,,,,,,,,,,,,,,,,,,,,,,,,,,,,,,,,,,,,,,,,,,,,,,,,,,,,,,,
,,5e9cc0fabfffb50009c9fd15,2024-02-22_03h24.15.836,kallum_motion_pilot,2023.2.2,Win32,140.8450704,5e9cc0fabfffb50009c9fd15,65d6bb0e977760de756971f7,65d6be41dab6027eb01ed59d,0.0463,0.0464,1,90,252,48,1,onetwo,,,,,,,,,,,,,,,,,,,,,,,,,,,,,,,,,,,,,,,,,,,,,,,,,,,,,,,,,,,,,,,,,,,,,,,,,,,,,,,,,,,,,,,,,,,,,,,,,,,,,,,,,,,,,,,,,,,,,,,,,,,,,,,,,,,,,,,,,
,,5e9cc0fabfffb50009c9fd15,2024-02-22_03h24.15.836,kallum_motion_pilot,2023.2.2,Win32,140.8450704,5e9cc0fabfffb50009c9fd15,65d6bb0e977760de756971f7,65d6be41dab6027eb01ed59d,0.0464,0.0464,1,91,253,84,1,sevenfive,,,,,,,,,,,,,,,,,,,,,,,,,,,,,,,,,,,,,,,,,,,,,,,,,,,,,,,,,,,,,,,,,,,,,,,,,,,,,,,,,,,,,,,,,,,,,,,,,,,,,,,,,,,,,,,,,,,,,,,,,,,,,,,,,,,,,,,,,
,,5e9cc0fabfffb50009c9fd15,2024-02-22_03h24.15.836,kallum_motion_pilot,2023.2.2,Win32,140.8450704,5e9cc0fabfffb50009c9fd15,65d6bb0e977760de756971f7,65d6be41dab6027eb01ed59d,0.0465,0.0465,1,92,254,53,1,threefour,,,,,,,,,,,,,,,,,,,,,,,,,,,,,,,,,,,,,,,,,,,,,,,,,,,,,,,,,,,,,,,,,,,,,,,,,,,,,,,,,,,,,,,,,,,,,,,,,,,,,,,,,,,,,,,,,,,,,,,,,,,,,,,,,,,,,,,,,
,,5e9cc0fabfffb50009c9fd15,2024-02-22_03h24.15.836,kallum_motion_pilot,2023.2.2,Win32,140.8450704,5e9cc0fabfffb50009c9fd15,65d6bb0e977760de756971f7,65d6be41dab6027eb01ed59d,0.0467,0.0468,1,93,255,122,1,sixfive,,,,,,,,,,,,,,,,,,,,,,,,,,,,,,,,,,,,,,,,,,,,,,,,,,,,,,,,,,,,,,,,,,,,,,,,,,,,,,,,,,,,,,,,,,,,,,,,,,,,,,,,,,,,,,,,,,,,,,,,,,,,,,,,,,,,,,,,,
,,5e9cc0fabfffb50009c9fd15,2024-02-22_03h24.15.836,kallum_motion_pilot,2023.2.2,Win32,140.8450704,5e9cc0fabfffb50009c9fd15,65d6bb0e977760de756971f7,65d6be41dab6027eb01ed59d,0.0469,0.047,1,94,256,118,1,eightsix,,,,,,,,,,,,,,,,,,,,,,,,,,,,,,,,,,,,,,,,,,,,,,,,,,,,,,,,,,,,,,,,,,,,,,,,,,,,,,,,,,,,,,,,,,,,,,,,,,,,,,,,,,,,,,,,,,,,,,,,,,,,,,,,,,,,,,,,,
,,5e9cc0fabfffb50009c9fd15,2024-02-22_03h24.15.836,kallum_motion_pilot,2023.2.2,Win32,140.8450704,5e9cc0fabfffb50009c9fd15,65d6bb0e977760de756971f7,65d6be41dab6027eb01ed59d,0.047,0.047,1,95,257,119,1,eightseven,,,,,,,,,,,,,,,,,,,,,,,,,,,,,,,,,,,,,,,,,,,,,,,,,,,,,,,,,,,,,,,,,,,,,,,,,,,,,,,,,,,,,,,,,,,,,,,,,,,,,,,,,,,,,,,,,,,,,,,,,,,,,,,,,,,,,,,,,
,,5e9cc0fabfffb50009c9fd15,2024-02-22_03h24.15.836,kallum_motion_pilot,2023.2.2,Win32,140.8450704,5e9cc0fabfffb50009c9fd15,65d6bb0e977760de756971f7,65d6be41dab6027eb01ed59d,0.0471,0.0472,1,96,258,143,1,eightseven,,,,,,,,,,,,,,,,,,,,,,,,,,,,,,,,,,,,,,,,,,,,,,,,,,,,,,,,,,,,,,,,,,,,,,,,,,,,,,,,,,,,,,,,,,,,,,,,,,,,,,,,,,,,,,,,,,,,,,,,,,,,,,,,,,,,,,,,,
,,5e9cc0fabfffb50009c9fd15,2024-02-22_03h24.15.836,kallum_motion_pilot,2023.2.2,Win32,140.8450704,5e9cc0fabfffb50009c9fd15,65d6bb0e977760de756971f7,65d6be41dab6027eb01ed59d,0.0473,0.0473,1,97,259,107,1,sixeight,,,,,,,,,,,,,,,,,,,,,,,,,,,,,,,,,,,,,,,,,,,,,,,,,,,,,,,,,,,,,,,,,,,,,,,,,,,,,,,,,,,,,,,,,,,,,,,,,,,,,,,,,,,,,,,,,,,,,,,,,,,,,,,,,,,,,,,,,
,,5e9cc0fabfffb50009c9fd15,2024-02-22_03h24.15.836,kallum_motion_pilot,2023.2.2,Win32,140.8450704,5e9cc0fabfffb50009c9fd15,65d6bb0e977760de756971f7,65d6be41dab6027eb01ed59d,0.0473,0.0475,1,98,260,40,1,onetwo,,,,,,,,,,,,,,,,,,,,,,,,,,,,,,,,,,,,,,,,,,,,,,,,,,,,,,,,,,,,,,,,,,,,,,,,,,,,,,,,,,,,,,,,,,,,,,,,,,,,,,,,,,,,,,,,,,,,,,,,,,,,,,,,,,,,,,,,,
,,5e9cc0fabfffb50009c9fd15,2024-02-22_03h24.15.836,kallum_motion_pilot,2023.2.2,Win32,140.8450704,5e9cc0fabfffb50009c9fd15,65d6bb0e977760de756971f7,65d6be41dab6027eb01ed59d,0.0475,0.0476,1,99,261,47,1,fourthree,,,,,,,,,,,,,,,,,,,,,,,,,,,,,,,,,,,,,,,,,,,,,,,,,,,,,,,,,,,,,,,,,,,,,,,,,,,,,,,,,,,,,,,,,,,,,,,,,,,,,,,,,,,,,,,,,,,,,,,,,,,,,,,,,,,,,,,,,
,,5e9cc0fabfffb50009c9fd15,2024-02-22_03h24.15.836,kallum_motion_pilot,2023.2.2,Win32,140.8450704,5e9cc0fabfffb50009c9fd15,65d6bb0e977760de756971f7,65d6be41dab6027eb01ed59d,0.0476,0.0477,1,100,262,115,1,sixeight,,,,,,,,,,,,,,,,,,,,,,,,,,,,,,,,,,,,,,,,,,,,,,,,,,,,,,,,,,,,,,,,,,,,,,,,,,,,,,,,,,,,,,,,,,,,,,,,,,,,,,,,,,,,,,,,,,,,,,,,,,,,,,,,,,,,,,,,,
,,5e9cc0fabfffb50009c9fd15,2024-02-22_03h24.15.836,kallum_motion_pilot,2023.2.2,Win32,140.8450704,5e9cc0fabfffb50009c9fd15,65d6bb0e977760de756971f7,65d6be41dab6027eb01ed59d,0.0477,0.0478,1,101,263,2,1,twoone,,,,,,,,,,,,,,,,,,,,,,,,,,,,,,,,,,,,,,,,,,,,,,,,,,,,,,,,,,,,,,,,,,,,,,,,,,,,,,,,,,,,,,,,,,,,,,,,,,,,,,,,,,,,,,,,,,,,,,,,,,,,,,,,,,,,,,,,,
,,5e9cc0fabfffb50009c9fd15,2024-02-22_03h24.15.836,kallum_motion_pilot,2023.2.2,Win32,140.8450704,5e9cc0fabfffb50009c9fd15,65d6bb0e977760de756971f7,65d6be41dab6027eb01ed59d,0.048,0.048,1,102,264,98,1,sixfive,,,,,,,,,,,,,,,,,,,,,,,,,,,,,,,,,,,,,,,,,,,,,,,,,,,,,,,,,,,,,,,,,,,,,,,,,,,,,,,,,,,,,,,,,,,,,,,,,,,,,,,,,,,,,,,,,,,,,,,,,,,,,,,,,,,,,,,,,
,,5e9cc0fabfffb50009c9fd15,2024-02-22_03h24.15.836,kallum_motion_pilot,2023.2.2,Win32,140.8450704,5e9cc0fabfffb50009c9fd15,65d6bb0e977760de756971f7,65d6be41dab6027eb01ed59d,0.048,0.0481,1,103,265,37,1,threefour,,,,,,,,,,,,,,,,,,,,,,,,,,,,,,,,,,,,,,,,,,,,,,,,,,,,,,,,,,,,,,,,,,,,,,,,,,,,,,,,,,,,,,,,,,,,,,,,,,,,,,,,,,,,,,,,,,,,,,,,,,,,,,,,,,,,,,,,,
,,5e9cc0fabfffb50009c9fd15,2024-02-22_03h24.15.836,kallum_motion_pilot,2023.2.2,Win32,140.8450704,5e9cc0fabfffb50009c9fd15,65d6bb0e977760de756971f7,65d6be41dab6027eb01ed59d,0.0483,0.0483,1,104,266,159,1,eightseven,,,,,,,,,,,,,,,,,,,,,,,,,,,,,,,,,,,,,,,,,,,,,,,,,,,,,,,,,,,,,,,,,,,,,,,,,,,,,,,,,,,,,,,,,,,,,,,,,,,,,,,,,,,,,,,,,,,,,,,,,,,,,,,,,,,,,,,,,
,,5e9cc0fabfffb50009c9fd15,2024-02-22_03h24.15.836,kallum_motion_pilot,2023.2.2,Win32,140.8450704,5e9cc0fabfffb50009c9fd15,65d6bb0e977760de756971f7,65d6be41dab6027eb01ed59d,0.0484,0.0484,1,105,267,15,1,fourthree,,,,,,,,,,,,,,,,,,,,,,,,,,,,,,,,,,,,,,,,,,,,,,,,,,,,,,,,,,,,,,,,,,,,,,,,,,,,,,,,,,,,,,,,,,,,,,,,,,,,,,,,,,,,,,,,,,,,,,,,,,,,,,,,,,,,,,,,,
,,5e9cc0fabfffb50009c9fd15,2024-02-22_03h24.15.836,kallum_motion_pilot,2023.2.2,Win32,140.8450704,5e9cc0fabfffb50009c9fd15,65d6bb0e977760de756971f7,65d6be41dab6027eb01ed59d,0.0485,0.0486,1,106,268,156,1,sevenfive,,,,,,,,,,,,,,,,,,,,,,,,,,,,,,,,,,,,,,,,,,,,,,,,,,,,,,,,,,,,,,,,,,,,,,,,,,,,,,,,,,,,,,,,,,,,,,,,,,,,,,,,,,,,,,,,,,,,,,,,,,,,,,,,,,,,,,,,,
,,5e9cc0fabfffb50009c9fd15,2024-02-22_03h24.15.836,kallum_motion_pilot,2023.2.2,Win32,140.8450704,5e9cc0fabfffb50009c9fd15,65d6bb0e977760de756971f7,65d6be41dab6027eb01ed59d,0.0486,0.0488,1,107,269,45,1,threefour,,,,,,,,,,,,,,,,,,,,,,,,,,,,,,,,,,,,,,,,,,,,,,,,,,,,,,,,,,,,,,,,,,,,,,,,,,,,,,,,,,,,,,,,,,,,,,,,,,,,,,,,,,,,,,,,,,,,,,,,,,,,,,,,,,,,,,,,,
,,5e9cc0fabfffb50009c9fd15,2024-02-22_03h24.15.836,kallum_motion_pilot,2023.2.2,Win32,140.8450704,5e9cc0fabfffb50009c9fd15,65d6bb0e977760de756971f7,65d6be41dab6027eb01ed59d,0.0489,0.0491,1,108,270,63,1,fourthree,,,,,,,,,,,,,,,,,,,,,,,,,,,,,,,,,,,,,,,,,,,,,,,,,,,,,,,,,,,,,,,,,,,,,,,,,,,,,,,,,,,,,,,,,,,,,,,,,,,,,,,,,,,,,,,,,,,,,,,,,,,,,,,,,,,,,,,,,
,,5e9cc0fabfffb50009c9fd15,2024-02-22_03h24.15.836,kallum_motion_pilot,2023.2.2,Win32,140.8450704,5e9cc0fabfffb50009c9fd15,65d6bb0e977760de756971f7,65d6be41dab6027eb01ed59d,0.0492,0.0493,1,109,271,85,1,seveneight,,,,,,,,,,,,,,,,,,,,,,,,,,,,,,,,,,,,,,,,,,,,,,,,,,,,,,,,,,,,,,,,,,,,,,,,,,,,,,,,,,,,,,,,,,,,,,,,,,,,,,,,,,,,,,,,,,,,,,,,,,,,,,,,,,,,,,,,,
,,5e9cc0fabfffb50009c9fd15,2024-02-22_03h24.15.836,kallum_motion_pilot,2023.2.2,Win32,140.8450704,5e9cc0fabfffb50009c9fd15,65d6bb0e977760de756971f7,65d6be41dab6027eb01ed59d,0.0493,0.0494,1,110,272,24,1,onetwo,,,,,,,,,,,,,,,,,,,,,,,,,,,,,,,,,,,,,,,,,,,,,,,,,,,,,,,,,,,,,,,,,,,,,,,,,,,,,,,,,,,,,,,,,,,,,,,,,,,,,,,,,,,,,,,,,,,,,,,,,,,,,,,,,,,,,,,,,
,,5e9cc0fabfffb50009c9fd15,2024-02-22_03h24.15.836,kallum_motion_pilot,2023.2.2,Win32,140.8450704,5e9cc0fabfffb50009c9fd15,65d6bb0e977760de756971f7,65d6be41dab6027eb01ed59d,0.0494,0.0496,1,111,273,33,1,onethree,,,,,,,,,,,,,,,,,,,,,,,,,,,,,,,,,,,,,,,,,,,,,,,,,,,,,,,,,,,,,,,,,,,,,,,,,,,,,,,,,,,,,,,,,,,,,,,,,,,,,,,,,,,,,,,,,,,,,,,,,,,,,,,,,,,,,,,,,
,,5e9cc0fabfffb50009c9fd15,2024-02-22_03h24.15.836,kallum_motion_pilot,2023.2.2,Win32,140.8450704,5e9cc0fabfffb50009c9fd15,65d6bb0e977760de756971f7,65d6be41dab6027eb01ed59d,0.0496,0.0497,1,112,274,161,1,fiveseven,,,,,,,,,,,,,,,,,,,,,,,,,,,,,,,,,,,,,,,,,,,,,,,,,,,,,,,,,,,,,,,,,,,,,,,,,,,,,,,,,,,,,,,,,,,,,,,,,,,,,,,,,,,,,,,,,,,,,,,,,,,,,,,,,,,,,,,,,
,,5e9cc0fabfffb50009c9fd15,2024-02-22_03h24.15.836,kallum_motion_pilot,2023.2.2,Win32,140.8450704,5e9cc0fabfffb50009c9fd15,65d6bb0e977760de756971f7,65d6be41dab6027eb01ed59d,0.0498,0.0498,1,113,275,134,1,eightsix,,,,,,,,,,,,,,,,,,,,,,,,,,,,,,,,,,,,,,,,,,,,,,,,,,,,,,,,,,,,,,,,,,,,,,,,,,,,,,,,,,,,,,,,,,,,,,,,,,,,,,,,,,,,,,,,,,,,,,,,,,,,,,,,,,,,,,,,,
,,5e9cc0fabfffb50009c9fd15,2024-02-22_03h24.15.836,kallum_motion_pilot,2023.2.2,Win32,140.8450704,5e9cc0fabfffb50009c9fd15,65d6bb0e977760de756971f7,65d6be41dab6027eb01ed59d,0.0499,0.0499,1,114,276,129,1,fiveseven,,,,,,,,,,,,,,,,,,,,,,,,,,,,,,,,,,,,,,,,,,,,,,,,,,,,,,,,,,,,,,,,,,,,,,,,,,,,,,,,,,,,,,,,,,,,,,,,,,,,,,,,,,,,,,,,,,,,,,,,,,,,,,,,,,,,,,,,,
,,5e9cc0fabfffb50009c9fd15,2024-02-22_03h24.15.836,kallum_motion_pilot,2023.2.2,Win32,140.8450704,5e9cc0fabfffb50009c9fd15,65d6bb0e977760de756971f7,65d6be41dab6027eb01ed59d,0.05,0.05,1,115,277,154,1,sixfive,,,,,,,,,,,,,,,,,,,,,,,,,,,,,,,,,,,,,,,,,,,,,,,,,,,,,,,,,,,,,,,,,,,,,,,,,,,,,,,,,,,,,,,,,,,,,,,,,,,,,,,,,,,,,,,,,,,,,,,,,,,,,,,,,,,,,,,,,
