startup.started,startup.stopped,Prolific ID*,date,expName,psychopyVersion,OS,frameRate,participant,study_id,session,stimpositions.started,stimpositions.stopped,hardcoded_stimulus_positions.thisRepN,hardcoded_stimulus_positions.thisTrialN,hardcoded_stimulus_positions.thisN,hardcoded_stimulus_positions.thisIndex,hardcoded_stimulus_positions.ran,StimulusPos,stimorientation.started,stimorientation.stopped,prac_stimorientation_import_loop.thisRepN,prac_stimorientation_import_loop.thisTrialN,prac_stimorientation_import_loop.thisN,prac_stimorientation_import_loop.thisIndex,prac_stimorientation_import_loop.ran,Stimorientation,welcome_instr.started,welcome_instr.stopped,key_resp.keys,key_resp.rt,key_resp.duration,response_steppedout_1.started,response_steppedout_1.stopped,key_resp_20.keys,key_resp_20.rt,key_resp_20.duration,response_steppedout_2.started,response_steppedout_2.stopped,key_resp_19.keys,key_resp_19.rt,key_resp_19.duration,stim_response_instr.started,stim_response_instr.stopped,key_resp_15.keys,key_resp_15.rt,key_resp_15.duration,direction_instr_2.started,direction_instr_2.stopped,key_resp_9.keys,key_resp_9.rt,key_resp_9.duration,instr_prac.started,instr_prac.stopped,key_resp_10.keys,key_resp_10.rt,key_resp_10.duration,Stim1_display_prac.started,Stim1_display_prac.stopped,Ecc,Circle1_ori,Circle2_ori,response_prac.started,similarity,response_time,response_prac.stopped,mouse_5.x,mouse_5.y,mouse_5.leftButton,mouse_5.midButton,mouse_5.rightButton,mouse_5.clicked_name,responseprac_feedback.started,responseprac_feedback.stopped,summary2_prac.started,summary2_prac.stopped,mouse_6.x,mouse_6.y,mouse_6.leftButton,mouse_6.midButton,mouse_6.rightButton,mouse_6.clicked_name,duringprac.thisRepN,duringprac.thisTrialN,duringprac.thisN,duringprac.thisIndex,duringprac.ran,begin.started,begin.stopped,key_resp_22.keys,key_resp_22.rt,key_resp_22.duration,Stim1_display.started,Stim1_display.stopped,circle1_ori,circle2_ori,circle1_SF,circle2_SF,response.started,response.stopped,mouse.x,mouse.y,mouse.leftButton,mouse.midButton,mouse.rightButton,mouse.clicked_name,trialnumber,double_pass.thisRepN,double_pass.thisTrialN,double_pass.thisN,double_pass.thisIndex,double_pass.ran,double_pass.order,main_trial.thisRepN,main_trial.thisTrialN,main_trial.thisN,main_trial.thisIndex,main_trial.ran,main_trial.order,Trial_Counter,Catch,Frequencies,response_2.started,response_2.stopped,mouse_2.x,mouse_2.y,mouse_2.leftButton,mouse_2.midButton,mouse_2.rightButton,mouse_2.clicked_name,special_trial.started,special_trial.stopped,catch_1.started,catch_1.stopped,mouse_3.x,mouse_3.y,mouse_3.leftButton,mouse_3.midButton,mouse_3.rightButton,catchresponse,catchnumber,response_time_catch,response_sum.started,response_sum.stopped,mouse_11.x,mouse_11.y,mouse_11.leftButton,mouse_11.midButton,mouse_11.rightButton,flip_presentation_sequence_for_double_pass.started,flip_presentation_sequence_for_double_pass.stopped,goodbye.started,goodbye.stopped,key_resp_3.keys,key_resp_3.rt,key_resp_3.duration
0.001,0.0012,5ea6da5ad773ee03ba8cefc5,2024-02-18_23h22.31.419,kallum_motion_pilot,2023.2.2,MacIntel,60.14675809,5ea6da5ad773ee03ba8cefc5,65d2b6c8f2eece985d8e374c,65d2b9b100976ea58a307501,,,,,,,,,,,,,,,,,,,,,,,,,,,,,,,,,,,,,,,,,,,,,,,,,,,,,,,,,,,,,,,,,,,,,,,,,,,,,,,,,,,,,,,,,,,,,,,,,,,,,,,,,,,,,,,,,,,,,,,,,,,,,,,,,,,,,,,,,,,,,,,,,
,,5ea6da5ad773ee03ba8cefc5,2024-02-18_23h22.31.419,kallum_motion_pilot,2023.2.2,MacIntel,60.14675809,5ea6da5ad773ee03ba8cefc5,65d2b6c8f2eece985d8e374c,65d2b9b100976ea58a307501,0.0363,0.0366,0,0,0,45,1,threefour,,,,,,,,,,,,,,,,,,,,,,,,,,,,,,,,,,,,,,,,,,,,,,,,,,,,,,,,,,,,,,,,,,,,,,,,,,,,,,,,,,,,,,,,,,,,,,,,,,,,,,,,,,,,,,,,,,,,,,,,,,,,,,,,,,,,,,,,,
,,5ea6da5ad773ee03ba8cefc5,2024-02-18_23h22.31.419,kallum_motion_pilot,2023.2.2,MacIntel,60.14675809,5ea6da5ad773ee03ba8cefc5,65d2b6c8f2eece985d8e374c,65d2b9b100976ea58a307501,0.037,0.0371,0,1,1,7,1,fourthree,,,,,,,,,,,,,,,,,,,,,,,,,,,,,,,,,,,,,,,,,,,,,,,,,,,,,,,,,,,,,,,,,,,,,,,,,,,,,,,,,,,,,,,,,,,,,,,,,,,,,,,,,,,,,,,,,,,,,,,,,,,,,,,,,,,,,,,,,
,,5ea6da5ad773ee03ba8cefc5,2024-02-18_23h22.31.419,kallum_motion_pilot,2023.2.2,MacIntel,60.14675809,5ea6da5ad773ee03ba8cefc5,65d2b6c8f2eece985d8e374c,65d2b9b100976ea58a307501,0.0374,0.0374,0,2,2,157,1,seveneight,,,,,,,,,,,,,,,,,,,,,,,,,,,,,,,,,,,,,,,,,,,,,,,,,,,,,,,,,,,,,,,,,,,,,,,,,,,,,,,,,,,,,,,,,,,,,,,,,,,,,,,,,,,,,,,,,,,,,,,,,,,,,,,,,,,,,,,,,
,,5ea6da5ad773ee03ba8cefc5,2024-02-18_23h22.31.419,kallum_motion_pilot,2023.2.2,MacIntel,60.14675809,5ea6da5ad773ee03ba8cefc5,65d2b6c8f2eece985d8e374c,65d2b9b100976ea58a307501,0.0378,0.0378,0,3,3,93,1,seveneight,,,,,,,,,,,,,,,,,,,,,,,,,,,,,,,,,,,,,,,,,,,,,,,,,,,,,,,,,,,,,,,,,,,,,,,,,,,,,,,,,,,,,,,,,,,,,,,,,,,,,,,,,,,,,,,,,,,,,,,,,,,,,,,,,,,,,,,,,
,,5ea6da5ad773ee03ba8cefc5,2024-02-18_23h22.31.419,kallum_motion_pilot,2023.2.2,MacIntel,60.14675809,5ea6da5ad773ee03ba8cefc5,65d2b6c8f2eece985d8e374c,65d2b9b100976ea58a307501,0.0381,0.0383,0,4,4,55,1,fourthree,,,,,,,,,,,,,,,,,,,,,,,,,,,,,,,,,,,,,,,,,,,,,,,,,,,,,,,,,,,,,,,,,,,,,,,,,,,,,,,,,,,,,,,,,,,,,,,,,,,,,,,,,,,,,,,,,,,,,,,,,,,,,,,,,,,,,,,,,
,,5ea6da5ad773ee03ba8cefc5,2024-02-18_23h22.31.419,kallum_motion_pilot,2023.2.2,MacIntel,60.14675809,5ea6da5ad773ee03ba8cefc5,65d2b6c8f2eece985d8e374c,65d2b9b100976ea58a307501,0.0384,0.0385,0,5,5,117,1,seveneight,,,,,,,,,,,,,,,,,,,,,,,,,,,,,,,,,,,,,,,,,,,,,,,,,,,,,,,,,,,,,,,,,,,,,,,,,,,,,,,,,,,,,,,,,,,,,,,,,,,,,,,,,,,,,,,,,,,,,,,,,,,,,,,,,,,,,,,,,
,,5ea6da5ad773ee03ba8cefc5,2024-02-18_23h22.31.419,kallum_motion_pilot,2023.2.2,MacIntel,60.14675809,5ea6da5ad773ee03ba8cefc5,65d2b6c8f2eece985d8e374c,65d2b9b100976ea58a307501,0.0388,0.0388,0,6,6,81,1,fiveseven,,,,,,,,,,,,,,,,,,,,,,,,,,,,,,,,,,,,,,,,,,,,,,,,,,,,,,,,,,,,,,,,,,,,,,,,,,,,,,,,,,,,,,,,,,,,,,,,,,,,,,,,,,,,,,,,,,,,,,,,,,,,,,,,,,,,,,,,,
,,5ea6da5ad773ee03ba8cefc5,2024-02-18_23h22.31.419,kallum_motion_pilot,2023.2.2,MacIntel,60.14675809,5ea6da5ad773ee03ba8cefc5,65d2b6c8f2eece985d8e374c,65d2b9b100976ea58a307501,0.039,0.0391,0,7,7,50,1,twoone,,,,,,,,,,,,,,,,,,,,,,,,,,,,,,,,,,,,,,,,,,,,,,,,,,,,,,,,,,,,,,,,,,,,,,,,,,,,,,,,,,,,,,,,,,,,,,,,,,,,,,,,,,,,,,,,,,,,,,,,,,,,,,,,,,,,,,,,,
,,5ea6da5ad773ee03ba8cefc5,2024-02-18_23h22.31.419,kallum_motion_pilot,2023.2.2,MacIntel,60.14675809,5ea6da5ad773ee03ba8cefc5,65d2b6c8f2eece985d8e374c,65d2b9b100976ea58a307501,0.0393,0.0394,0,8,8,38,1,fourtwo,,,,,,,,,,,,,,,,,,,,,,,,,,,,,,,,,,,,,,,,,,,,,,,,,,,,,,,,,,,,,,,,,,,,,,,,,,,,,,,,,,,,,,,,,,,,,,,,,,,,,,,,,,,,,,,,,,,,,,,,,,,,,,,,,,,,,,,,,
,,5ea6da5ad773ee03ba8cefc5,2024-02-18_23h22.31.419,kallum_motion_pilot,2023.2.2,MacIntel,60.14675809,5ea6da5ad773ee03ba8cefc5,65d2b6c8f2eece985d8e374c,65d2b9b100976ea58a307501,0.0397,0.0398,0,9,9,142,1,eightsix,,,,,,,,,,,,,,,,,,,,,,,,,,,,,,,,,,,,,,,,,,,,,,,,,,,,,,,,,,,,,,,,,,,,,,,,,,,,,,,,,,,,,,,,,,,,,,,,,,,,,,,,,,,,,,,,,,,,,,,,,,,,,,,,,,,,,,,,,
,,5ea6da5ad773ee03ba8cefc5,2024-02-18_23h22.31.419,kallum_motion_pilot,2023.2.2,MacIntel,60.14675809,5ea6da5ad773ee03ba8cefc5,65d2b6c8f2eece985d8e374c,65d2b9b100976ea58a307501,0.04,0.04,0,10,10,26,1,twoone,,,,,,,,,,,,,,,,,,,,,,,,,,,,,,,,,,,,,,,,,,,,,,,,,,,,,,,,,,,,,,,,,,,,,,,,,,,,,,,,,,,,,,,,,,,,,,,,,,,,,,,,,,,,,,,,,,,,,,,,,,,,,,,,,,,,,,,,,
,,5ea6da5ad773ee03ba8cefc5,2024-02-18_23h22.31.419,kallum_motion_pilot,2023.2.2,MacIntel,60.14675809,5ea6da5ad773ee03ba8cefc5,65d2b6c8f2eece985d8e374c,65d2b9b100976ea58a307501,0.0402,0.0403,0,11,11,101,1,seveneight,,,,,,,,,,,,,,,,,,,,,,,,,,,,,,,,,,,,,,,,,,,,,,,,,,,,,,,,,,,,,,,,,,,,,,,,,,,,,,,,,,,,,,,,,,,,,,,,,,,,,,,,,,,,,,,,,,,,,,,,,,,,,,,,,,,,,,,,,
,,5ea6da5ad773ee03ba8cefc5,2024-02-18_23h22.31.419,kallum_motion_pilot,2023.2.2,MacIntel,60.14675809,5ea6da5ad773ee03ba8cefc5,65d2b6c8f2eece985d8e374c,65d2b9b100976ea58a307501,0.0421,0.0422,0,12,12,1,1,onethree,,,,,,,,,,,,,,,,,,,,,,,,,,,,,,,,,,,,,,,,,,,,,,,,,,,,,,,,,,,,,,,,,,,,,,,,,,,,,,,,,,,,,,,,,,,,,,,,,,,,,,,,,,,,,,,,,,,,,,,,,,,,,,,,,,,,,,,,,
,,5ea6da5ad773ee03ba8cefc5,2024-02-18_23h22.31.419,kallum_motion_pilot,2023.2.2,MacIntel,60.14675809,5ea6da5ad773ee03ba8cefc5,65d2b6c8f2eece985d8e374c,65d2b9b100976ea58a307501,0.0424,0.0425,0,13,13,110,1,eightsix,,,,,,,,,,,,,,,,,,,,,,,,,,,,,,,,,,,,,,,,,,,,,,,,,,,,,,,,,,,,,,,,,,,,,,,,,,,,,,,,,,,,,,,,,,,,,,,,,,,,,,,,,,,,,,,,,,,,,,,,,,,,,,,,,,,,,,,,,
,,5ea6da5ad773ee03ba8cefc5,2024-02-18_23h22.31.419,kallum_motion_pilot,2023.2.2,MacIntel,60.14675809,5ea6da5ad773ee03ba8cefc5,65d2b6c8f2eece985d8e374c,65d2b9b100976ea58a307501,0.0427,0.0428,0,14,14,91,1,sixeight,,,,,,,,,,,,,,,,,,,,,,,,,,,,,,,,,,,,,,,,,,,,,,,,,,,,,,,,,,,,,,,,,,,,,,,,,,,,,,,,,,,,,,,,,,,,,,,,,,,,,,,,,,,,,,,,,,,,,,,,,,,,,,,,,,,,,,,,,
,,5ea6da5ad773ee03ba8cefc5,2024-02-18_23h22.31.419,kallum_motion_pilot,2023.2.2,MacIntel,60.14675809,5ea6da5ad773ee03ba8cefc5,65d2b6c8f2eece985d8e374c,65d2b9b100976ea58a307501,0.0429,0.0431,0,15,15,130,1,sixfive,,,,,,,,,,,,,,,,,,,,,,,,,,,,,,,,,,,,,,,,,,,,,,,,,,,,,,,,,,,,,,,,,,,,,,,,,,,,,,,,,,,,,,,,,,,,,,,,,,,,,,,,,,,,,,,,,,,,,,,,,,,,,,,,,,,,,,,,,
,,5ea6da5ad773ee03ba8cefc5,2024-02-18_23h22.31.419,kallum_motion_pilot,2023.2.2,MacIntel,60.14675809,5ea6da5ad773ee03ba8cefc5,65d2b6c8f2eece985d8e374c,65d2b9b100976ea58a307501,0.0432,0.0433,0,16,16,18,1,twoone,,,,,,,,,,,,,,,,,,,,,,,,,,,,,,,,,,,,,,,,,,,,,,,,,,,,,,,,,,,,,,,,,,,,,,,,,,,,,,,,,,,,,,,,,,,,,,,,,,,,,,,,,,,,,,,,,,,,,,,,,,,,,,,,,,,,,,,,,
,,5ea6da5ad773ee03ba8cefc5,2024-02-18_23h22.31.419,kallum_motion_pilot,2023.2.2,MacIntel,60.14675809,5ea6da5ad773ee03ba8cefc5,65d2b6c8f2eece985d8e374c,65d2b9b100976ea58a307501,0.0435,0.0437,0,17,17,105,1,fiveseven,,,,,,,,,,,,,,,,,,,,,,,,,,,,,,,,,,,,,,,,,,,,,,,,,,,,,,,,,,,,,,,,,,,,,,,,,,,,,,,,,,,,,,,,,,,,,,,,,,,,,,,,,,,,,,,,,,,,,,,,,,,,,,,,,,,,,,,,,
,,5ea6da5ad773ee03ba8cefc5,2024-02-18_23h22.31.419,kallum_motion_pilot,2023.2.2,MacIntel,60.14675809,5ea6da5ad773ee03ba8cefc5,65d2b6c8f2eece985d8e374c,65d2b9b100976ea58a307501,0.0438,0.0439,0,18,18,118,1,eightsix,,,,,,,,,,,,,,,,,,,,,,,,,,,,,,,,,,,,,,,,,,,,,,,,,,,,,,,,,,,,,,,,,,,,,,,,,,,,,,,,,,,,,,,,,,,,,,,,,,,,,,,,,,,,,,,,,,,,,,,,,,,,,,,,,,,,,,,,,
,,5ea6da5ad773ee03ba8cefc5,2024-02-18_23h22.31.419,kallum_motion_pilot,2023.2.2,MacIntel,60.14675809,5ea6da5ad773ee03ba8cefc5,65d2b6c8f2eece985d8e374c,65d2b9b100976ea58a307501,0.0441,0.0441,0,19,19,87,1,eightseven,,,,,,,,,,,,,,,,,,,,,,,,,,,,,,,,,,,,,,,,,,,,,,,,,,,,,,,,,,,,,,,,,,,,,,,,,,,,,,,,,,,,,,,,,,,,,,,,,,,,,,,,,,,,,,,,,,,,,,,,,,,,,,,,,,,,,,,,,
,,5ea6da5ad773ee03ba8cefc5,2024-02-18_23h22.31.419,kallum_motion_pilot,2023.2.2,MacIntel,60.14675809,5ea6da5ad773ee03ba8cefc5,65d2b6c8f2eece985d8e374c,65d2b9b100976ea58a307501,0.0443,0.0443,0,20,20,61,1,threefour,,,,,,,,,,,,,,,,,,,,,,,,,,,,,,,,,,,,,,,,,,,,,,,,,,,,,,,,,,,,,,,,,,,,,,,,,,,,,,,,,,,,,,,,,,,,,,,,,,,,,,,,,,,,,,,,,,,,,,,,,,,,,,,,,,,,,,,,,
,,5ea6da5ad773ee03ba8cefc5,2024-02-18_23h22.31.419,kallum_motion_pilot,2023.2.2,MacIntel,60.14675809,5ea6da5ad773ee03ba8cefc5,65d2b6c8f2eece985d8e374c,65d2b9b100976ea58a307501,0.0445,0.0446,0,21,21,20,1,threeone,,,,,,,,,,,,,,,,,,,,,,,,,,,,,,,,,,,,,,,,,,,,,,,,,,,,,,,,,,,,,,,,,,,,,,,,,,,,,,,,,,,,,,,,,,,,,,,,,,,,,,,,,,,,,,,,,,,,,,,,,,,,,,,,,,,,,,,,,
,,5ea6da5ad773ee03ba8cefc5,2024-02-18_23h22.31.419,kallum_motion_pilot,2023.2.2,MacIntel,60.14675809,5ea6da5ad773ee03ba8cefc5,65d2b6c8f2eece985d8e374c,65d2b9b100976ea58a307501,0.0448,0.0448,0,22,22,136,1,fivesix,,,,,,,,,,,,,,,,,,,,,,,,,,,,,,,,,,,,,,,,,,,,,,,,,,,,,,,,,,,,,,,,,,,,,,,,,,,,,,,,,,,,,,,,,,,,,,,,,,,,,,,,,,,,,,,,,,,,,,,,,,,,,,,,,,,,,,,,,
,,5ea6da5ad773ee03ba8cefc5,2024-02-18_23h22.31.419,kallum_motion_pilot,2023.2.2,MacIntel,60.14675809,5ea6da5ad773ee03ba8cefc5,65d2b6c8f2eece985d8e374c,65d2b9b100976ea58a307501,0.045,0.0451,0,23,23,5,1,threefour,,,,,,,,,,,,,,,,,,,,,,,,,,,,,,,,,,,,,,,,,,,,,,,,,,,,,,,,,,,,,,,,,,,,,,,,,,,,,,,,,,,,,,,,,,,,,,,,,,,,,,,,,,,,,,,,,,,,,,,,,,,,,,,,,,,,,,,,,
,,5ea6da5ad773ee03ba8cefc5,2024-02-18_23h22.31.419,kallum_motion_pilot,2023.2.2,MacIntel,60.14675809,5ea6da5ad773ee03ba8cefc5,65d2b6c8f2eece985d8e374c,65d2b9b100976ea58a307501,0.0453,0.0453,0,24,24,100,1,sevenfive,,,,,,,,,,,,,,,,,,,,,,,,,,,,,,,,,,,,,,,,,,,,,,,,,,,,,,,,,,,,,,,,,,,,,,,,,,,,,,,,,,,,,,,,,,,,,,,,,,,,,,,,,,,,,,,,,,,,,,,,,,,,,,,,,,,,,,,,,
,,5ea6da5ad773ee03ba8cefc5,2024-02-18_23h22.31.419,kallum_motion_pilot,2023.2.2,MacIntel,60.14675809,5ea6da5ad773ee03ba8cefc5,65d2b6c8f2eece985d8e374c,65d2b9b100976ea58a307501,0.0455,0.0456,0,25,25,108,1,sevenfive,,,,,,,,,,,,,,,,,,,,,,,,,,,,,,,,,,,,,,,,,,,,,,,,,,,,,,,,,,,,,,,,,,,,,,,,,,,,,,,,,,,,,,,,,,,,,,,,,,,,,,,,,,,,,,,,,,,,,,,,,,,,,,,,,,,,,,,,,
,,5ea6da5ad773ee03ba8cefc5,2024-02-18_23h22.31.419,kallum_motion_pilot,2023.2.2,MacIntel,60.14675809,5ea6da5ad773ee03ba8cefc5,65d2b6c8f2eece985d8e374c,65d2b9b100976ea58a307501,0.0459,0.0459,0,26,26,149,1,seveneight,,,,,,,,,,,,,,,,,,,,,,,,,,,,,,,,,,,,,,,,,,,,,,,,,,,,,,,,,,,,,,,,,,,,,,,,,,,,,,,,,,,,,,,,,,,,,,,,,,,,,,,,,,,,,,,,,,,,,,,,,,,,,,,,,,,,,,,,,
,,5ea6da5ad773ee03ba8cefc5,2024-02-18_23h22.31.419,kallum_motion_pilot,2023.2.2,MacIntel,60.14675809,5ea6da5ad773ee03ba8cefc5,65d2b6c8f2eece985d8e374c,65d2b9b100976ea58a307501,0.0461,0.0462,0,27,27,41,1,onethree,,,,,,,,,,,,,,,,,,,,,,,,,,,,,,,,,,,,,,,,,,,,,,,,,,,,,,,,,,,,,,,,,,,,,,,,,,,,,,,,,,,,,,,,,,,,,,,,,,,,,,,,,,,,,,,,,,,,,,,,,,,,,,,,,,,,,,,,,
,,5ea6da5ad773ee03ba8cefc5,2024-02-18_23h22.31.419,kallum_motion_pilot,2023.2.2,MacIntel,60.14675809,5ea6da5ad773ee03ba8cefc5,65d2b6c8f2eece985d8e374c,65d2b9b100976ea58a307501,0.0463,0.0464,0,28,28,89,1,fiveseven,,,,,,,,,,,,,,,,,,,,,,,,,,,,,,,,,,,,,,,,,,,,,,,,,,,,,,,,,,,,,,,,,,,,,,,,,,,,,,,,,,,,,,,,,,,,,,,,,,,,,,,,,,,,,,,,,,,,,,,,,,,,,,,,,,,,,,,,,
,,5ea6da5ad773ee03ba8cefc5,2024-02-18_23h22.31.419,kallum_motion_pilot,2023.2.2,MacIntel,60.14675809,5ea6da5ad773ee03ba8cefc5,65d2b6c8f2eece985d8e374c,65d2b9b100976ea58a307501,0.0466,0.0467,0,29,29,65,1,onethree,,,,,,,,,,,,,,,,,,,,,,,,,,,,,,,,,,,,,,,,,,,,,,,,,,,,,,,,,,,,,,,,,,,,,,,,,,,,,,,,,,,,,,,,,,,,,,,,,,,,,,,,,,,,,,,,,,,,,,,,,,,,,,,,,,,,,,,,,
,,5ea6da5ad773ee03ba8cefc5,2024-02-18_23h22.31.419,kallum_motion_pilot,2023.2.2,MacIntel,60.14675809,5ea6da5ad773ee03ba8cefc5,65d2b6c8f2eece985d8e374c,65d2b9b100976ea58a307501,0.0469,0.047,0,30,30,114,1,sixfive,,,,,,,,,,,,,,,,,,,,,,,,,,,,,,,,,,,,,,,,,,,,,,,,,,,,,,,,,,,,,,,,,,,,,,,,,,,,,,,,,,,,,,,,,,,,,,,,,,,,,,,,,,,,,,,,,,,,,,,,,,,,,,,,,,,,,,,,,
,,5ea6da5ad773ee03ba8cefc5,2024-02-18_23h22.31.419,kallum_motion_pilot,2023.2.2,MacIntel,60.14675809,5ea6da5ad773ee03ba8cefc5,65d2b6c8f2eece985d8e374c,65d2b9b100976ea58a307501,0.0472,0.0474,0,31,31,160,1,fivesix,,,,,,,,,,,,,,,,,,,,,,,,,,,,,,,,,,,,,,,,,,,,,,,,,,,,,,,,,,,,,,,,,,,,,,,,,,,,,,,,,,,,,,,,,,,,,,,,,,,,,,,,,,,,,,,,,,,,,,,,,,,,,,,,,,,,,,,,,
,,5ea6da5ad773ee03ba8cefc5,2024-02-18_23h22.31.419,kallum_motion_pilot,2023.2.2,MacIntel,60.14675809,5ea6da5ad773ee03ba8cefc5,65d2b6c8f2eece985d8e374c,65d2b9b100976ea58a307501,0.0475,0.0476,0,32,32,134,1,eightsix,,,,,,,,,,,,,,,,,,,,,,,,,,,,,,,,,,,,,,,,,,,,,,,,,,,,,,,,,,,,,,,,,,,,,,,,,,,,,,,,,,,,,,,,,,,,,,,,,,,,,,,,,,,,,,,,,,,,,,,,,,,,,,,,,,,,,,,,,
,,5ea6da5ad773ee03ba8cefc5,2024-02-18_23h22.31.419,kallum_motion_pilot,2023.2.2,MacIntel,60.14675809,5ea6da5ad773ee03ba8cefc5,65d2b6c8f2eece985d8e374c,65d2b9b100976ea58a307501,0.0478,0.048,0,33,33,77,1,threefour,,,,,,,,,,,,,,,,,,,,,,,,,,,,,,,,,,,,,,,,,,,,,,,,,,,,,,,,,,,,,,,,,,,,,,,,,,,,,,,,,,,,,,,,,,,,,,,,,,,,,,,,,,,,,,,,,,,,,,,,,,,,,,,,,,,,,,,,,
,,5ea6da5ad773ee03ba8cefc5,2024-02-18_23h22.31.419,kallum_motion_pilot,2023.2.2,MacIntel,60.14675809,5ea6da5ad773ee03ba8cefc5,65d2b6c8f2eece985d8e374c,65d2b9b100976ea58a307501,0.0482,0.0483,0,34,34,79,1,eightseven,,,,,,,,,,,,,,,,,,,,,,,,,,,,,,,,,,,,,,,,,,,,,,,,,,,,,,,,,,,,,,,,,,,,,,,,,,,,,,,,,,,,,,,,,,,,,,,,,,,,,,,,,,,,,,,,,,,,,,,,,,,,,,,,,,,,,,,,,
,,5ea6da5ad773ee03ba8cefc5,2024-02-18_23h22.31.419,kallum_motion_pilot,2023.2.2,MacIntel,60.14675809,5ea6da5ad773ee03ba8cefc5,65d2b6c8f2eece985d8e374c,65d2b9b100976ea58a307501,0.0485,0.0486,0,35,35,103,1,eightseven,,,,,,,,,,,,,,,,,,,,,,,,,,,,,,,,,,,,,,,,,,,,,,,,,,,,,,,,,,,,,,,,,,,,,,,,,,,,,,,,,,,,,,,,,,,,,,,,,,,,,,,,,,,,,,,,,,,,,,,,,,,,,,,,,,,,,,,,,
,,5ea6da5ad773ee03ba8cefc5,2024-02-18_23h22.31.419,kallum_motion_pilot,2023.2.2,MacIntel,60.14675809,5ea6da5ad773ee03ba8cefc5,65d2b6c8f2eece985d8e374c,65d2b9b100976ea58a307501,0.0489,0.049,0,36,36,155,1,sixeight,,,,,,,,,,,,,,,,,,,,,,,,,,,,,,,,,,,,,,,,,,,,,,,,,,,,,,,,,,,,,,,,,,,,,,,,,,,,,,,,,,,,,,,,,,,,,,,,,,,,,,,,,,,,,,,,,,,,,,,,,,,,,,,,,,,,,,,,,
,,5ea6da5ad773ee03ba8cefc5,2024-02-18_23h22.31.419,kallum_motion_pilot,2023.2.2,MacIntel,60.14675809,5ea6da5ad773ee03ba8cefc5,65d2b6c8f2eece985d8e374c,65d2b9b100976ea58a307501,0.0492,0.0492,0,37,37,80,1,fivesix,,,,,,,,,,,,,,,,,,,,,,,,,,,,,,,,,,,,,,,,,,,,,,,,,,,,,,,,,,,,,,,,,,,,,,,,,,,,,,,,,,,,,,,,,,,,,,,,,,,,,,,,,,,,,,,,,,,,,,,,,,,,,,,,,,,,,,,,,
,,5ea6da5ad773ee03ba8cefc5,2024-02-18_23h22.31.419,kallum_motion_pilot,2023.2.2,MacIntel,60.14675809,5ea6da5ad773ee03ba8cefc5,65d2b6c8f2eece985d8e374c,65d2b9b100976ea58a307501,0.0494,0.0495,0,38,38,123,1,sixeight,,,,,,,,,,,,,,,,,,,,,,,,,,,,,,,,,,,,,,,,,,,,,,,,,,,,,,,,,,,,,,,,,,,,,,,,,,,,,,,,,,,,,,,,,,,,,,,,,,,,,,,,,,,,,,,,,,,,,,,,,,,,,,,,,,,,,,,,,
,,5ea6da5ad773ee03ba8cefc5,2024-02-18_23h22.31.419,kallum_motion_pilot,2023.2.2,MacIntel,60.14675809,5ea6da5ad773ee03ba8cefc5,65d2b6c8f2eece985d8e374c,65d2b9b100976ea58a307501,0.0497,0.0498,0,39,39,113,1,fiveseven,,,,,,,,,,,,,,,,,,,,,,,,,,,,,,,,,,,,,,,,,,,,,,,,,,,,,,,,,,,,,,,,,,,,,,,,,,,,,,,,,,,,,,,,,,,,,,,,,,,,,,,,,,,,,,,,,,,,,,,,,,,,,,,,,,,,,,,,,
,,5ea6da5ad773ee03ba8cefc5,2024-02-18_23h22.31.419,kallum_motion_pilot,2023.2.2,MacIntel,60.14675809,5ea6da5ad773ee03ba8cefc5,65d2b6c8f2eece985d8e374c,65d2b9b100976ea58a307501,0.0502,0.0503,0,40,40,98,1,sixfive,,,,,,,,,,,,,,,,,,,,,,,,,,,,,,,,,,,,,,,,,,,,,,,,,,,,,,,,,,,,,,,,,,,,,,,,,,,,,,,,,,,,,,,,,,,,,,,,,,,,,,,,,,,,,,,,,,,,,,,,,,,,,,,,,,,,,,,,,
,,5ea6da5ad773ee03ba8cefc5,2024-02-18_23h22.31.419,kallum_motion_pilot,2023.2.2,MacIntel,60.14675809,5ea6da5ad773ee03ba8cefc5,65d2b6c8f2eece985d8e374c,65d2b9b100976ea58a307501,0.0504,0.0505,0,41,41,73,1,onethree,,,,,,,,,,,,,,,,,,,,,,,,,,,,,,,,,,,,,,,,,,,,,,,,,,,,,,,,,,,,,,,,,,,,,,,,,,,,,,,,,,,,,,,,,,,,,,,,,,,,,,,,,,,,,,,,,,,,,,,,,,,,,,,,,,,,,,,,,
,,5ea6da5ad773ee03ba8cefc5,2024-02-18_23h22.31.419,kallum_motion_pilot,2023.2.2,MacIntel,60.14675809,5ea6da5ad773ee03ba8cefc5,65d2b6c8f2eece985d8e374c,65d2b9b100976ea58a307501,0.0508,0.0508,0,42,42,132,1,sevenfive,,,,,,,,,,,,,,,,,,,,,,,,,,,,,,,,,,,,,,,,,,,,,,,,,,,,,,,,,,,,,,,,,,,,,,,,,,,,,,,,,,,,,,,,,,,,,,,,,,,,,,,,,,,,,,,,,,,,,,,,,,,,,,,,,,,,,,,,,
,,5ea6da5ad773ee03ba8cefc5,2024-02-18_23h22.31.419,kallum_motion_pilot,2023.2.2,MacIntel,60.14675809,5ea6da5ad773ee03ba8cefc5,65d2b6c8f2eece985d8e374c,65d2b9b100976ea58a307501,0.051,0.0512,0,43,43,139,1,sixeight,,,,,,,,,,,,,,,,,,,,,,,,,,,,,,,,,,,,,,,,,,,,,,,,,,,,,,,,,,,,,,,,,,,,,,,,,,,,,,,,,,,,,,,,,,,,,,,,,,,,,,,,,,,,,,,,,,,,,,,,,,,,,,,,,,,,,,,,,
,,5ea6da5ad773ee03ba8cefc5,2024-02-18_23h22.31.419,kallum_motion_pilot,2023.2.2,MacIntel,60.14675809,5ea6da5ad773ee03ba8cefc5,65d2b6c8f2eece985d8e374c,65d2b9b100976ea58a307501,0.0515,0.0517,0,44,44,109,1,seveneight,,,,,,,,,,,,,,,,,,,,,,,,,,,,,,,,,,,,,,,,,,,,,,,,,,,,,,,,,,,,,,,,,,,,,,,,,,,,,,,,,,,,,,,,,,,,,,,,,,,,,,,,,,,,,,,,,,,,,,,,,,,,,,,,,,,,,,,,,
,,5ea6da5ad773ee03ba8cefc5,2024-02-18_23h22.31.419,kallum_motion_pilot,2023.2.2,MacIntel,60.14675809,5ea6da5ad773ee03ba8cefc5,65d2b6c8f2eece985d8e374c,65d2b9b100976ea58a307501,0.0521,0.0522,0,45,45,52,1,threeone,,,,,,,,,,,,,,,,,,,,,,,,,,,,,,,,,,,,,,,,,,,,,,,,,,,,,,,,,,,,,,,,,,,,,,,,,,,,,,,,,,,,,,,,,,,,,,,,,,,,,,,,,,,,,,,,,,,,,,,,,,,,,,,,,,,,,,,,,
,,5ea6da5ad773ee03ba8cefc5,2024-02-18_23h22.31.419,kallum_motion_pilot,2023.2.2,MacIntel,60.14675809,5ea6da5ad773ee03ba8cefc5,65d2b6c8f2eece985d8e374c,65d2b9b100976ea58a307501,0.0524,0.0525,0,46,46,44,1,threeone,,,,,,,,,,,,,,,,,,,,,,,,,,,,,,,,,,,,,,,,,,,,,,,,,,,,,,,,,,,,,,,,,,,,,,,,,,,,,,,,,,,,,,,,,,,,,,,,,,,,,,,,,,,,,,,,,,,,,,,,,,,,,,,,,,,,,,,,,
,,5ea6da5ad773ee03ba8cefc5,2024-02-18_23h22.31.419,kallum_motion_pilot,2023.2.2,MacIntel,60.14675809,5ea6da5ad773ee03ba8cefc5,65d2b6c8f2eece985d8e374c,65d2b9b100976ea58a307501,0.0527,0.0528,0,47,47,83,1,sixeight,,,,,,,,,,,,,,,,,,,,,,,,,,,,,,,,,,,,,,,,,,,,,,,,,,,,,,,,,,,,,,,,,,,,,,,,,,,,,,,,,,,,,,,,,,,,,,,,,,,,,,,,,,,,,,,,,,,,,,,,,,,,,,,,,,,,,,,,,
,,5ea6da5ad773ee03ba8cefc5,2024-02-18_23h22.31.419,kallum_motion_pilot,2023.2.2,MacIntel,60.14675809,5ea6da5ad773ee03ba8cefc5,65d2b6c8f2eece985d8e374c,65d2b9b100976ea58a307501,0.053,0.0532,0,48,48,145,1,fiveseven,,,,,,,,,,,,,,,,,,,,,,,,,,,,,,,,,,,,,,,,,,,,,,,,,,,,,,,,,,,,,,,,,,,,,,,,,,,,,,,,,,,,,,,,,,,,,,,,,,,,,,,,,,,,,,,,,,,,,,,,,,,,,,,,,,,,,,,,,
,,5ea6da5ad773ee03ba8cefc5,2024-02-18_23h22.31.419,kallum_motion_pilot,2023.2.2,MacIntel,60.14675809,5ea6da5ad773ee03ba8cefc5,65d2b6c8f2eece985d8e374c,65d2b9b100976ea58a307501,0.0533,0.0534,0,49,49,74,1,twoone,,,,,,,,,,,,,,,,,,,,,,,,,,,,,,,,,,,,,,,,,,,,,,,,,,,,,,,,,,,,,,,,,,,,,,,,,,,,,,,,,,,,,,,,,,,,,,,,,,,,,,,,,,,,,,,,,,,,,,,,,,,,,,,,,,,,,,,,,
,,5ea6da5ad773ee03ba8cefc5,2024-02-18_23h22.31.419,kallum_motion_pilot,2023.2.2,MacIntel,60.14675809,5ea6da5ad773ee03ba8cefc5,65d2b6c8f2eece985d8e374c,65d2b9b100976ea58a307501,0.0535,0.0537,0,50,50,159,1,eightseven,,,,,,,,,,,,,,,,,,,,,,,,,,,,,,,,,,,,,,,,,,,,,,,,,,,,,,,,,,,,,,,,,,,,,,,,,,,,,,,,,,,,,,,,,,,,,,,,,,,,,,,,,,,,,,,,,,,,,,,,,,,,,,,,,,,,,,,,,
,,5ea6da5ad773ee03ba8cefc5,2024-02-18_23h22.31.419,kallum_motion_pilot,2023.2.2,MacIntel,60.14675809,5ea6da5ad773ee03ba8cefc5,65d2b6c8f2eece985d8e374c,65d2b9b100976ea58a307501,0.0538,0.0539,0,51,51,95,1,eightseven,,,,,,,,,,,,,,,,,,,,,,,,,,,,,,,,,,,,,,,,,,,,,,,,,,,,,,,,,,,,,,,,,,,,,,,,,,,,,,,,,,,,,,,,,,,,,,,,,,,,,,,,,,,,,,,,,,,,,,,,,,,,,,,,,,,,,,,,,
,,5ea6da5ad773ee03ba8cefc5,2024-02-18_23h22.31.419,kallum_motion_pilot,2023.2.2,MacIntel,60.14675809,5ea6da5ad773ee03ba8cefc5,65d2b6c8f2eece985d8e374c,65d2b9b100976ea58a307501,0.054,0.0542,0,52,52,69,1,threefour,,,,,,,,,,,,,,,,,,,,,,,,,,,,,,,,,,,,,,,,,,,,,,,,,,,,,,,,,,,,,,,,,,,,,,,,,,,,,,,,,,,,,,,,,,,,,,,,,,,,,,,,,,,,,,,,,,,,,,,,,,,,,,,,,,,,,,,,,
,,5ea6da5ad773ee03ba8cefc5,2024-02-18_23h22.31.419,kallum_motion_pilot,2023.2.2,MacIntel,60.14675809,5ea6da5ad773ee03ba8cefc5,65d2b6c8f2eece985d8e374c,65d2b9b100976ea58a307501,0.0544,0.0545,0,53,53,64,1,onetwo,,,,,,,,,,,,,,,,,,,,,,,,,,,,,,,,,,,,,,,,,,,,,,,,,,,,,,,,,,,,,,,,,,,,,,,,,,,,,,,,,,,,,,,,,,,,,,,,,,,,,,,,,,,,,,,,,,,,,,,,,,,,,,,,,,,,,,,,,
,,5ea6da5ad773ee03ba8cefc5,2024-02-18_23h22.31.419,kallum_motion_pilot,2023.2.2,MacIntel,60.14675809,5ea6da5ad773ee03ba8cefc5,65d2b6c8f2eece985d8e374c,65d2b9b100976ea58a307501,0.0547,0.0548,0,54,54,32,1,onetwo,,,,,,,,,,,,,,,,,,,,,,,,,,,,,,,,,,,,,,,,,,,,,,,,,,,,,,,,,,,,,,,,,,,,,,,,,,,,,,,,,,,,,,,,,,,,,,,,,,,,,,,,,,,,,,,,,,,,,,,,,,,,,,,,,,,,,,,,,
,,5ea6da5ad773ee03ba8cefc5,2024-02-18_23h22.31.419,kallum_motion_pilot,2023.2.2,MacIntel,60.14675809,5ea6da5ad773ee03ba8cefc5,65d2b6c8f2eece985d8e374c,65d2b9b100976ea58a307501,0.0549,0.0551,0,55,55,31,1,fourthree,,,,,,,,,,,,,,,,,,,,,,,,,,,,,,,,,,,,,,,,,,,,,,,,,,,,,,,,,,,,,,,,,,,,,,,,,,,,,,,,,,,,,,,,,,,,,,,,,,,,,,,,,,,,,,,,,,,,,,,,,,,,,,,,,,,,,,,,,
,,5ea6da5ad773ee03ba8cefc5,2024-02-18_23h22.31.419,kallum_motion_pilot,2023.2.2,MacIntel,60.14675809,5ea6da5ad773ee03ba8cefc5,65d2b6c8f2eece985d8e374c,65d2b9b100976ea58a307501,0.0552,0.0553,0,56,56,43,1,twofour,,,,,,,,,,,,,,,,,,,,,,,,,,,,,,,,,,,,,,,,,,,,,,,,,,,,,,,,,,,,,,,,,,,,,,,,,,,,,,,,,,,,,,,,,,,,,,,,,,,,,,,,,,,,,,,,,,,,,,,,,,,,,,,,,,,,,,,,,
,,5ea6da5ad773ee03ba8cefc5,2024-02-18_23h22.31.419,kallum_motion_pilot,2023.2.2,MacIntel,60.14675809,5ea6da5ad773ee03ba8cefc5,65d2b6c8f2eece985d8e374c,65d2b9b100976ea58a307501,0.0555,0.0556,0,57,57,107,1,sixeight,,,,,,,,,,,,,,,,,,,,,,,,,,,,,,,,,,,,,,,,,,,,,,,,,,,,,,,,,,,,,,,,,,,,,,,,,,,,,,,,,,,,,,,,,,,,,,,,,,,,,,,,,,,,,,,,,,,,,,,,,,,,,,,,,,,,,,,,,
,,5ea6da5ad773ee03ba8cefc5,2024-02-18_23h22.31.419,kallum_motion_pilot,2023.2.2,MacIntel,60.14675809,5ea6da5ad773ee03ba8cefc5,65d2b6c8f2eece985d8e374c,65d2b9b100976ea58a307501,0.0558,0.0559,0,58,58,24,1,onetwo,,,,,,,,,,,,,,,,,,,,,,,,,,,,,,,,,,,,,,,,,,,,,,,,,,,,,,,,,,,,,,,,,,,,,,,,,,,,,,,,,,,,,,,,,,,,,,,,,,,,,,,,,,,,,,,,,,,,,,,,,,,,,,,,,,,,,,,,,
,,5ea6da5ad773ee03ba8cefc5,2024-02-18_23h22.31.419,kallum_motion_pilot,2023.2.2,MacIntel,60.14675809,5ea6da5ad773ee03ba8cefc5,65d2b6c8f2eece985d8e374c,65d2b9b100976ea58a307501,0.056,0.0562,0,59,59,35,1,twofour,,,,,,,,,,,,,,,,,,,,,,,,,,,,,,,,,,,,,,,,,,,,,,,,,,,,,,,,,,,,,,,,,,,,,,,,,,,,,,,,,,,,,,,,,,,,,,,,,,,,,,,,,,,,,,,,,,,,,,,,,,,,,,,,,,,,,,,,,
,,5ea6da5ad773ee03ba8cefc5,2024-02-18_23h22.31.419,kallum_motion_pilot,2023.2.2,MacIntel,60.14675809,5ea6da5ad773ee03ba8cefc5,65d2b6c8f2eece985d8e374c,65d2b9b100976ea58a307501,0.0564,0.0564,0,60,60,59,1,twofour,,,,,,,,,,,,,,,,,,,,,,,,,,,,,,,,,,,,,,,,,,,,,,,,,,,,,,,,,,,,,,,,,,,,,,,,,,,,,,,,,,,,,,,,,,,,,,,,,,,,,,,,,,,,,,,,,,,,,,,,,,,,,,,,,,,,,,,,,
,,5ea6da5ad773ee03ba8cefc5,2024-02-18_23h22.31.419,kallum_motion_pilot,2023.2.2,MacIntel,60.14675809,5ea6da5ad773ee03ba8cefc5,65d2b6c8f2eece985d8e374c,65d2b9b100976ea58a307501,0.0565,0.0567,0,61,61,150,1,eightsix,,,,,,,,,,,,,,,,,,,,,,,,,,,,,,,,,,,,,,,,,,,,,,,,,,,,,,,,,,,,,,,,,,,,,,,,,,,,,,,,,,,,,,,,,,,,,,,,,,,,,,,,,,,,,,,,,,,,,,,,,,,,,,,,,,,,,,,,,
,,5ea6da5ad773ee03ba8cefc5,2024-02-18_23h22.31.419,kallum_motion_pilot,2023.2.2,MacIntel,60.14675809,5ea6da5ad773ee03ba8cefc5,65d2b6c8f2eece985d8e374c,65d2b9b100976ea58a307501,0.0568,0.0569,0,62,62,86,1,eightsix,,,,,,,,,,,,,,,,,,,,,,,,,,,,,,,,,,,,,,,,,,,,,,,,,,,,,,,,,,,,,,,,,,,,,,,,,,,,,,,,,,,,,,,,,,,,,,,,,,,,,,,,,,,,,,,,,,,,,,,,,,,,,,,,,,,,,,,,,
,,5ea6da5ad773ee03ba8cefc5,2024-02-18_23h22.31.419,kallum_motion_pilot,2023.2.2,MacIntel,60.14675809,5ea6da5ad773ee03ba8cefc5,65d2b6c8f2eece985d8e374c,65d2b9b100976ea58a307501,0.0571,0.0572,0,63,63,104,1,fivesix,,,,,,,,,,,,,,,,,,,,,,,,,,,,,,,,,,,,,,,,,,,,,,,,,,,,,,,,,,,,,,,,,,,,,,,,,,,,,,,,,,,,,,,,,,,,,,,,,,,,,,,,,,,,,,,,,,,,,,,,,,,,,,,,,,,,,,,,,
,,5ea6da5ad773ee03ba8cefc5,2024-02-18_23h22.31.419,kallum_motion_pilot,2023.2.2,MacIntel,60.14675809,5ea6da5ad773ee03ba8cefc5,65d2b6c8f2eece985d8e374c,65d2b9b100976ea58a307501,0.0574,0.0575,0,64,64,82,1,sixfive,,,,,,,,,,,,,,,,,,,,,,,,,,,,,,,,,,,,,,,,,,,,,,,,,,,,,,,,,,,,,,,,,,,,,,,,,,,,,,,,,,,,,,,,,,,,,,,,,,,,,,,,,,,,,,,,,,,,,,,,,,,,,,,,,,,,,,,,,
,,5ea6da5ad773ee03ba8cefc5,2024-02-18_23h22.31.419,kallum_motion_pilot,2023.2.2,MacIntel,60.14675809,5ea6da5ad773ee03ba8cefc5,65d2b6c8f2eece985d8e374c,65d2b9b100976ea58a307501,0.0576,0.0578,0,65,65,2,1,twoone,,,,,,,,,,,,,,,,,,,,,,,,,,,,,,,,,,,,,,,,,,,,,,,,,,,,,,,,,,,,,,,,,,,,,,,,,,,,,,,,,,,,,,,,,,,,,,,,,,,,,,,,,,,,,,,,,,,,,,,,,,,,,,,,,,,,,,,,,
,,5ea6da5ad773ee03ba8cefc5,2024-02-18_23h22.31.419,kallum_motion_pilot,2023.2.2,MacIntel,60.14675809,5ea6da5ad773ee03ba8cefc5,65d2b6c8f2eece985d8e374c,65d2b9b100976ea58a307501,0.0579,0.058,0,66,66,10,1,twoone,,,,,,,,,,,,,,,,,,,,,,,,,,,,,,,,,,,,,,,,,,,,,,,,,,,,,,,,,,,,,,,,,,,,,,,,,,,,,,,,,,,,,,,,,,,,,,,,,,,,,,,,,,,,,,,,,,,,,,,,,,,,,,,,,,,,,,,,,
,,5ea6da5ad773ee03ba8cefc5,2024-02-18_23h22.31.419,kallum_motion_pilot,2023.2.2,MacIntel,60.14675809,5ea6da5ad773ee03ba8cefc5,65d2b6c8f2eece985d8e374c,65d2b9b100976ea58a307501,0.0582,0.0583,0,67,67,78,1,fourtwo,,,,,,,,,,,,,,,,,,,,,,,,,,,,,,,,,,,,,,,,,,,,,,,,,,,,,,,,,,,,,,,,,,,,,,,,,,,,,,,,,,,,,,,,,,,,,,,,,,,,,,,,,,,,,,,,,,,,,,,,,,,,,,,,,,,,,,,,,
,,5ea6da5ad773ee03ba8cefc5,2024-02-18_23h22.31.419,kallum_motion_pilot,2023.2.2,MacIntel,60.14675809,5ea6da5ad773ee03ba8cefc5,65d2b6c8f2eece985d8e374c,65d2b9b100976ea58a307501,0.0585,0.0587,0,68,68,58,1,twoone,,,,,,,,,,,,,,,,,,,,,,,,,,,,,,,,,,,,,,,,,,,,,,,,,,,,,,,,,,,,,,,,,,,,,,,,,,,,,,,,,,,,,,,,,,,,,,,,,,,,,,,,,,,,,,,,,,,,,,,,,,,,,,,,,,,,,,,,,
,,5ea6da5ad773ee03ba8cefc5,2024-02-18_23h22.31.419,kallum_motion_pilot,2023.2.2,MacIntel,60.14675809,5ea6da5ad773ee03ba8cefc5,65d2b6c8f2eece985d8e374c,65d2b9b100976ea58a307501,0.0588,0.0589,0,69,69,48,1,onetwo,,,,,,,,,,,,,,,,,,,,,,,,,,,,,,,,,,,,,,,,,,,,,,,,,,,,,,,,,,,,,,,,,,,,,,,,,,,,,,,,,,,,,,,,,,,,,,,,,,,,,,,,,,,,,,,,,,,,,,,,,,,,,,,,,,,,,,,,,
,,5ea6da5ad773ee03ba8cefc5,2024-02-18_23h22.31.419,kallum_motion_pilot,2023.2.2,MacIntel,60.14675809,5ea6da5ad773ee03ba8cefc5,65d2b6c8f2eece985d8e374c,65d2b9b100976ea58a307501,0.0591,0.0591,0,70,70,144,1,fivesix,,,,,,,,,,,,,,,,,,,,,,,,,,,,,,,,,,,,,,,,,,,,,,,,,,,,,,,,,,,,,,,,,,,,,,,,,,,,,,,,,,,,,,,,,,,,,,,,,,,,,,,,,,,,,,,,,,,,,,,,,,,,,,,,,,,,,,,,,
,,5ea6da5ad773ee03ba8cefc5,2024-02-18_23h22.31.419,kallum_motion_pilot,2023.2.2,MacIntel,60.14675809,5ea6da5ad773ee03ba8cefc5,65d2b6c8f2eece985d8e374c,65d2b9b100976ea58a307501,0.0594,0.0594,0,71,71,116,1,sevenfive,,,,,,,,,,,,,,,,,,,,,,,,,,,,,,,,,,,,,,,,,,,,,,,,,,,,,,,,,,,,,,,,,,,,,,,,,,,,,,,,,,,,,,,,,,,,,,,,,,,,,,,,,,,,,,,,,,,,,,,,,,,,,,,,,,,,,,,,,
,,5ea6da5ad773ee03ba8cefc5,2024-02-18_23h22.31.419,kallum_motion_pilot,2023.2.2,MacIntel,60.14675809,5ea6da5ad773ee03ba8cefc5,65d2b6c8f2eece985d8e374c,65d2b9b100976ea58a307501,0.0596,0.0597,0,72,72,62,1,fourtwo,,,,,,,,,,,,,,,,,,,,,,,,,,,,,,,,,,,,,,,,,,,,,,,,,,,,,,,,,,,,,,,,,,,,,,,,,,,,,,,,,,,,,,,,,,,,,,,,,,,,,,,,,,,,,,,,,,,,,,,,,,,,,,,,,,,,,,,,,
,,5ea6da5ad773ee03ba8cefc5,2024-02-18_23h22.31.419,kallum_motion_pilot,2023.2.2,MacIntel,60.14675809,5ea6da5ad773ee03ba8cefc5,65d2b6c8f2eece985d8e374c,65d2b9b100976ea58a307501,0.0599,0.0601,0,73,73,15,1,fourthree,,,,,,,,,,,,,,,,,,,,,,,,,,,,,,,,,,,,,,,,,,,,,,,,,,,,,,,,,,,,,,,,,,,,,,,,,,,,,,,,,,,,,,,,,,,,,,,,,,,,,,,,,,,,,,,,,,,,,,,,,,,,,,,,,,,,,,,,,
,,5ea6da5ad773ee03ba8cefc5,2024-02-18_23h22.31.419,kallum_motion_pilot,2023.2.2,MacIntel,60.14675809,5ea6da5ad773ee03ba8cefc5,65d2b6c8f2eece985d8e374c,65d2b9b100976ea58a307501,0.0602,0.0603,0,74,74,27,1,twofour,,,,,,,,,,,,,,,,,,,,,,,,,,,,,,,,,,,,,,,,,,,,,,,,,,,,,,,,,,,,,,,,,,,,,,,,,,,,,,,,,,,,,,,,,,,,,,,,,,,,,,,,,,,,,,,,,,,,,,,,,,,,,,,,,,,,,,,,,
,,5ea6da5ad773ee03ba8cefc5,2024-02-18_23h22.31.419,kallum_motion_pilot,2023.2.2,MacIntel,60.14675809,5ea6da5ad773ee03ba8cefc5,65d2b6c8f2eece985d8e374c,65d2b9b100976ea58a307501,0.0605,0.0606,0,75,75,151,1,eightseven,,,,,,,,,,,,,,,,,,,,,,,,,,,,,,,,,,,,,,,,,,,,,,,,,,,,,,,,,,,,,,,,,,,,,,,,,,,,,,,,,,,,,,,,,,,,,,,,,,,,,,,,,,,,,,,,,,,,,,,,,,,,,,,,,,,,,,,,,
,,5ea6da5ad773ee03ba8cefc5,2024-02-18_23h22.31.419,kallum_motion_pilot,2023.2.2,MacIntel,60.14675809,5ea6da5ad773ee03ba8cefc5,65d2b6c8f2eece985d8e374c,65d2b9b100976ea58a307501,0.0608,0.0609,0,76,76,125,1,seveneight,,,,,,,,,,,,,,,,,,,,,,,,,,,,,,,,,,,,,,,,,,,,,,,,,,,,,,,,,,,,,,,,,,,,,,,,,,,,,,,,,,,,,,,,,,,,,,,,,,,,,,,,,,,,,,,,,,,,,,,,,,,,,,,,,,,,,,,,,
,,5ea6da5ad773ee03ba8cefc5,2024-02-18_23h22.31.419,kallum_motion_pilot,2023.2.2,MacIntel,60.14675809,5ea6da5ad773ee03ba8cefc5,65d2b6c8f2eece985d8e374c,65d2b9b100976ea58a307501,0.0611,0.0612,0,77,77,63,1,fourthree,,,,,,,,,,,,,,,,,,,,,,,,,,,,,,,,,,,,,,,,,,,,,,,,,,,,,,,,,,,,,,,,,,,,,,,,,,,,,,,,,,,,,,,,,,,,,,,,,,,,,,,,,,,,,,,,,,,,,,,,,,,,,,,,,,,,,,,,,
,,5ea6da5ad773ee03ba8cefc5,2024-02-18_23h22.31.419,kallum_motion_pilot,2023.2.2,MacIntel,60.14675809,5ea6da5ad773ee03ba8cefc5,65d2b6c8f2eece985d8e374c,65d2b9b100976ea58a307501,0.0613,0.0615,0,78,78,71,1,fourthree,,,,,,,,,,,,,,,,,,,,,,,,,,,,,,,,,,,,,,,,,,,,,,,,,,,,,,,,,,,,,,,,,,,,,,,,,,,,,,,,,,,,,,,,,,,,,,,,,,,,,,,,,,,,,,,,,,,,,,,,,,,,,,,,,,,,,,,,,
,,5ea6da5ad773ee03ba8cefc5,2024-02-18_23h22.31.419,kallum_motion_pilot,2023.2.2,MacIntel,60.14675809,5ea6da5ad773ee03ba8cefc5,65d2b6c8f2eece985d8e374c,65d2b9b100976ea58a307501,0.0617,0.0618,0,79,79,54,1,fourtwo,,,,,,,,,,,,,,,,,,,,,,,,,,,,,,,,,,,,,,,,,,,,,,,,,,,,,,,,,,,,,,,,,,,,,,,,,,,,,,,,,,,,,,,,,,,,,,,,,,,,,,,,,,,,,,,,,,,,,,,,,,,,,,,,,,,,,,,,,
,,5ea6da5ad773ee03ba8cefc5,2024-02-18_23h22.31.419,kallum_motion_pilot,2023.2.2,MacIntel,60.14675809,5ea6da5ad773ee03ba8cefc5,65d2b6c8f2eece985d8e374c,65d2b9b100976ea58a307501,0.0619,0.062,0,80,80,28,1,threeone,,,,,,,,,,,,,,,,,,,,,,,,,,,,,,,,,,,,,,,,,,,,,,,,,,,,,,,,,,,,,,,,,,,,,,,,,,,,,,,,,,,,,,,,,,,,,,,,,,,,,,,,,,,,,,,,,,,,,,,,,,,,,,,,,,,,,,,,,
,,5ea6da5ad773ee03ba8cefc5,2024-02-18_23h22.31.419,kallum_motion_pilot,2023.2.2,MacIntel,60.14675809,5ea6da5ad773ee03ba8cefc5,65d2b6c8f2eece985d8e374c,65d2b9b100976ea58a307501,0.0622,0.0623,0,81,81,147,1,sixeight,,,,,,,,,,,,,,,,,,,,,,,,,,,,,,,,,,,,,,,,,,,,,,,,,,,,,,,,,,,,,,,,,,,,,,,,,,,,,,,,,,,,,,,,,,,,,,,,,,,,,,,,,,,,,,,,,,,,,,,,,,,,,,,,,,,,,,,,,
,,5ea6da5ad773ee03ba8cefc5,2024-02-18_23h22.31.419,kallum_motion_pilot,2023.2.2,MacIntel,60.14675809,5ea6da5ad773ee03ba8cefc5,65d2b6c8f2eece985d8e374c,65d2b9b100976ea58a307501,0.0625,0.0626,0,82,82,19,1,twofour,,,,,,,,,,,,,,,,,,,,,,,,,,,,,,,,,,,,,,,,,,,,,,,,,,,,,,,,,,,,,,,,,,,,,,,,,,,,,,,,,,,,,,,,,,,,,,,,,,,,,,,,,,,,,,,,,,,,,,,,,,,,,,,,,,,,,,,,,
,,5ea6da5ad773ee03ba8cefc5,2024-02-18_23h22.31.419,kallum_motion_pilot,2023.2.2,MacIntel,60.14675809,5ea6da5ad773ee03ba8cefc5,65d2b6c8f2eece985d8e374c,65d2b9b100976ea58a307501,0.0628,0.063,0,83,83,42,1,twoone,,,,,,,,,,,,,,,,,,,,,,,,,,,,,,,,,,,,,,,,,,,,,,,,,,,,,,,,,,,,,,,,,,,,,,,,,,,,,,,,,,,,,,,,,,,,,,,,,,,,,,,,,,,,,,,,,,,,,,,,,,,,,,,,,,,,,,,,,
,,5ea6da5ad773ee03ba8cefc5,2024-02-18_23h22.31.419,kallum_motion_pilot,2023.2.2,MacIntel,60.14675809,5ea6da5ad773ee03ba8cefc5,65d2b6c8f2eece985d8e374c,65d2b9b100976ea58a307501,0.0632,0.0633,0,84,84,84,1,sevenfive,,,,,,,,,,,,,,,,,,,,,,,,,,,,,,,,,,,,,,,,,,,,,,,,,,,,,,,,,,,,,,,,,,,,,,,,,,,,,,,,,,,,,,,,,,,,,,,,,,,,,,,,,,,,,,,,,,,,,,,,,,,,,,,,,,,,,,,,,
,,5ea6da5ad773ee03ba8cefc5,2024-02-18_23h22.31.419,kallum_motion_pilot,2023.2.2,MacIntel,60.14675809,5ea6da5ad773ee03ba8cefc5,65d2b6c8f2eece985d8e374c,65d2b9b100976ea58a307501,0.0635,0.0636,0,85,85,68,1,threeone,,,,,,,,,,,,,,,,,,,,,,,,,,,,,,,,,,,,,,,,,,,,,,,,,,,,,,,,,,,,,,,,,,,,,,,,,,,,,,,,,,,,,,,,,,,,,,,,,,,,,,,,,,,,,,,,,,,,,,,,,,,,,,,,,,,,,,,,,
,,5ea6da5ad773ee03ba8cefc5,2024-02-18_23h22.31.419,kallum_motion_pilot,2023.2.2,MacIntel,60.14675809,5ea6da5ad773ee03ba8cefc5,65d2b6c8f2eece985d8e374c,65d2b9b100976ea58a307501,0.0639,0.0641,0,86,86,37,1,threefour,,,,,,,,,,,,,,,,,,,,,,,,,,,,,,,,,,,,,,,,,,,,,,,,,,,,,,,,,,,,,,,,,,,,,,,,,,,,,,,,,,,,,,,,,,,,,,,,,,,,,,,,,,,,,,,,,,,,,,,,,,,,,,,,,,,,,,,,,
,,5ea6da5ad773ee03ba8cefc5,2024-02-18_23h22.31.419,kallum_motion_pilot,2023.2.2,MacIntel,60.14675809,5ea6da5ad773ee03ba8cefc5,65d2b6c8f2eece985d8e374c,65d2b9b100976ea58a307501,0.0643,0.0644,0,87,87,154,1,sixfive,,,,,,,,,,,,,,,,,,,,,,,,,,,,,,,,,,,,,,,,,,,,,,,,,,,,,,,,,,,,,,,,,,,,,,,,,,,,,,,,,,,,,,,,,,,,,,,,,,,,,,,,,,,,,,,,,,,,,,,,,,,,,,,,,,,,,,,,,
,,5ea6da5ad773ee03ba8cefc5,2024-02-18_23h22.31.419,kallum_motion_pilot,2023.2.2,MacIntel,60.14675809,5ea6da5ad773ee03ba8cefc5,65d2b6c8f2eece985d8e374c,65d2b9b100976ea58a307501,0.0646,0.0647,0,88,88,11,1,twofour,,,,,,,,,,,,,,,,,,,,,,,,,,,,,,,,,,,,,,,,,,,,,,,,,,,,,,,,,,,,,,,,,,,,,,,,,,,,,,,,,,,,,,,,,,,,,,,,,,,,,,,,,,,,,,,,,,,,,,,,,,,,,,,,,,,,,,,,,
,,5ea6da5ad773ee03ba8cefc5,2024-02-18_23h22.31.419,kallum_motion_pilot,2023.2.2,MacIntel,60.14675809,5ea6da5ad773ee03ba8cefc5,65d2b6c8f2eece985d8e374c,65d2b9b100976ea58a307501,0.0649,0.065,0,89,89,153,1,fiveseven,,,,,,,,,,,,,,,,,,,,,,,,,,,,,,,,,,,,,,,,,,,,,,,,,,,,,,,,,,,,,,,,,,,,,,,,,,,,,,,,,,,,,,,,,,,,,,,,,,,,,,,,,,,,,,,,,,,,,,,,,,,,,,,,,,,,,,,,,
,,5ea6da5ad773ee03ba8cefc5,2024-02-18_23h22.31.419,kallum_motion_pilot,2023.2.2,MacIntel,60.14675809,5ea6da5ad773ee03ba8cefc5,65d2b6c8f2eece985d8e374c,65d2b9b100976ea58a307501,0.0652,0.0653,0,90,90,29,1,threefour,,,,,,,,,,,,,,,,,,,,,,,,,,,,,,,,,,,,,,,,,,,,,,,,,,,,,,,,,,,,,,,,,,,,,,,,,,,,,,,,,,,,,,,,,,,,,,,,,,,,,,,,,,,,,,,,,,,,,,,,,,,,,,,,,,,,,,,,,
,,5ea6da5ad773ee03ba8cefc5,2024-02-18_23h22.31.419,kallum_motion_pilot,2023.2.2,MacIntel,60.14675809,5ea6da5ad773ee03ba8cefc5,65d2b6c8f2eece985d8e374c,65d2b9b100976ea58a307501,0.0655,0.0657,0,91,91,135,1,eightseven,,,,,,,,,,,,,,,,,,,,,,,,,,,,,,,,,,,,,,,,,,,,,,,,,,,,,,,,,,,,,,,,,,,,,,,,,,,,,,,,,,,,,,,,,,,,,,,,,,,,,,,,,,,,,,,,,,,,,,,,,,,,,,,,,,,,,,,,,
,,5ea6da5ad773ee03ba8cefc5,2024-02-18_23h22.31.419,kallum_motion_pilot,2023.2.2,MacIntel,60.14675809,5ea6da5ad773ee03ba8cefc5,65d2b6c8f2eece985d8e374c,65d2b9b100976ea58a307501,0.0658,0.0661,0,92,92,46,1,fourtwo,,,,,,,,,,,,,,,,,,,,,,,,,,,,,,,,,,,,,,,,,,,,,,,,,,,,,,,,,,,,,,,,,,,,,,,,,,,,,,,,,,,,,,,,,,,,,,,,,,,,,,,,,,,,,,,,,,,,,,,,,,,,,,,,,,,,,,,,,
,,5ea6da5ad773ee03ba8cefc5,2024-02-18_23h22.31.419,kallum_motion_pilot,2023.2.2,MacIntel,60.14675809,5ea6da5ad773ee03ba8cefc5,65d2b6c8f2eece985d8e374c,65d2b9b100976ea58a307501,0.0663,0.0664,0,93,93,39,1,fourthree,,,,,,,,,,,,,,,,,,,,,,,,,,,,,,,,,,,,,,,,,,,,,,,,,,,,,,,,,,,,,,,,,,,,,,,,,,,,,,,,,,,,,,,,,,,,,,,,,,,,,,,,,,,,,,,,,,,,,,,,,,,,,,,,,,,,,,,,,
,,5ea6da5ad773ee03ba8cefc5,2024-02-18_23h22.31.419,kallum_motion_pilot,2023.2.2,MacIntel,60.14675809,5ea6da5ad773ee03ba8cefc5,65d2b6c8f2eece985d8e374c,65d2b9b100976ea58a307501,0.0667,0.0668,0,94,94,148,1,sevenfive,,,,,,,,,,,,,,,,,,,,,,,,,,,,,,,,,,,,,,,,,,,,,,,,,,,,,,,,,,,,,,,,,,,,,,,,,,,,,,,,,,,,,,,,,,,,,,,,,,,,,,,,,,,,,,,,,,,,,,,,,,,,,,,,,,,,,,,,,
,,5ea6da5ad773ee03ba8cefc5,2024-02-18_23h22.31.419,kallum_motion_pilot,2023.2.2,MacIntel,60.14675809,5ea6da5ad773ee03ba8cefc5,65d2b6c8f2eece985d8e374c,65d2b9b100976ea58a307501,0.0669,0.067,0,95,95,120,1,fivesix,,,,,,,,,,,,,,,,,,,,,,,,,,,,,,,,,,,,,,,,,,,,,,,,,,,,,,,,,,,,,,,,,,,,,,,,,,,,,,,,,,,,,,,,,,,,,,,,,,,,,,,,,,,,,,,,,,,,,,,,,,,,,,,,,,,,,,,,,
,,5ea6da5ad773ee03ba8cefc5,2024-02-18_23h22.31.419,kallum_motion_pilot,2023.2.2,MacIntel,60.14675809,5ea6da5ad773ee03ba8cefc5,65d2b6c8f2eece985d8e374c,65d2b9b100976ea58a307501,0.0673,0.0674,0,96,96,76,1,threeone,,,,,,,,,,,,,,,,,,,,,,,,,,,,,,,,,,,,,,,,,,,,,,,,,,,,,,,,,,,,,,,,,,,,,,,,,,,,,,,,,,,,,,,,,,,,,,,,,,,,,,,,,,,,,,,,,,,,,,,,,,,,,,,,,,,,,,,,,
,,5ea6da5ad773ee03ba8cefc5,2024-02-18_23h22.31.419,kallum_motion_pilot,2023.2.2,MacIntel,60.14675809,5ea6da5ad773ee03ba8cefc5,65d2b6c8f2eece985d8e374c,65d2b9b100976ea58a307501,0.0677,0.0677,0,97,97,9,1,onethree,,,,,,,,,,,,,,,,,,,,,,,,,,,,,,,,,,,,,,,,,,,,,,,,,,,,,,,,,,,,,,,,,,,,,,,,,,,,,,,,,,,,,,,,,,,,,,,,,,,,,,,,,,,,,,,,,,,,,,,,,,,,,,,,,,,,,,,,,
,,5ea6da5ad773ee03ba8cefc5,2024-02-18_23h22.31.419,kallum_motion_pilot,2023.2.2,MacIntel,60.14675809,5ea6da5ad773ee03ba8cefc5,65d2b6c8f2eece985d8e374c,65d2b9b100976ea58a307501,0.068,0.068,0,98,98,88,1,fivesix,,,,,,,,,,,,,,,,,,,,,,,,,,,,,,,,,,,,,,,,,,,,,,,,,,,,,,,,,,,,,,,,,,,,,,,,,,,,,,,,,,,,,,,,,,,,,,,,,,,,,,,,,,,,,,,,,,,,,,,,,,,,,,,,,,,,,,,,,
,,5ea6da5ad773ee03ba8cefc5,2024-02-18_23h22.31.419,kallum_motion_pilot,2023.2.2,MacIntel,60.14675809,5ea6da5ad773ee03ba8cefc5,65d2b6c8f2eece985d8e374c,65d2b9b100976ea58a307501,0.0682,0.0684,0,99,99,146,1,sixfive,,,,,,,,,,,,,,,,,,,,,,,,,,,,,,,,,,,,,,,,,,,,,,,,,,,,,,,,,,,,,,,,,,,,,,,,,,,,,,,,,,,,,,,,,,,,,,,,,,,,,,,,,,,,,,,,,,,,,,,,,,,,,,,,,,,,,,,,,
,,5ea6da5ad773ee03ba8cefc5,2024-02-18_23h22.31.419,kallum_motion_pilot,2023.2.2,MacIntel,60.14675809,5ea6da5ad773ee03ba8cefc5,65d2b6c8f2eece985d8e374c,65d2b9b100976ea58a307501,0.0685,0.0688,0,100,100,0,1,onetwo,,,,,,,,,,,,,,,,,,,,,,,,,,,,,,,,,,,,,,,,,,,,,,,,,,,,,,,,,,,,,,,,,,,,,,,,,,,,,,,,,,,,,,,,,,,,,,,,,,,,,,,,,,,,,,,,,,,,,,,,,,,,,,,,,,,,,,,,,
,,5ea6da5ad773ee03ba8cefc5,2024-02-18_23h22.31.419,kallum_motion_pilot,2023.2.2,MacIntel,60.14675809,5ea6da5ad773ee03ba8cefc5,65d2b6c8f2eece985d8e374c,65d2b9b100976ea58a307501,0.0691,0.0692,0,101,101,140,1,sevenfive,,,,,,,,,,,,,,,,,,,,,,,,,,,,,,,,,,,,,,,,,,,,,,,,,,,,,,,,,,,,,,,,,,,,,,,,,,,,,,,,,,,,,,,,,,,,,,,,,,,,,,,,,,,,,,,,,,,,,,,,,,,,,,,,,,,,,,,,,
,,5ea6da5ad773ee03ba8cefc5,2024-02-18_23h22.31.419,kallum_motion_pilot,2023.2.2,MacIntel,60.14675809,5ea6da5ad773ee03ba8cefc5,65d2b6c8f2eece985d8e374c,65d2b9b100976ea58a307501,0.0693,0.0695,0,102,102,121,1,fiveseven,,,,,,,,,,,,,,,,,,,,,,,,,,,,,,,,,,,,,,,,,,,,,,,,,,,,,,,,,,,,,,,,,,,,,,,,,,,,,,,,,,,,,,,,,,,,,,,,,,,,,,,,,,,,,,,,,,,,,,,,,,,,,,,,,,,,,,,,,
,,5ea6da5ad773ee03ba8cefc5,2024-02-18_23h22.31.419,kallum_motion_pilot,2023.2.2,MacIntel,60.14675809,5ea6da5ad773ee03ba8cefc5,65d2b6c8f2eece985d8e374c,65d2b9b100976ea58a307501,0.0697,0.0698,0,103,103,128,1,fivesix,,,,,,,,,,,,,,,,,,,,,,,,,,,,,,,,,,,,,,,,,,,,,,,,,,,,,,,,,,,,,,,,,,,,,,,,,,,,,,,,,,,,,,,,,,,,,,,,,,,,,,,,,,,,,,,,,,,,,,,,,,,,,,,,,,,,,,,,,
,,5ea6da5ad773ee03ba8cefc5,2024-02-18_23h22.31.419,kallum_motion_pilot,2023.2.2,MacIntel,60.14675809,5ea6da5ad773ee03ba8cefc5,65d2b6c8f2eece985d8e374c,65d2b9b100976ea58a307501,0.0701,0.0702,0,104,104,6,1,fourtwo,,,,,,,,,,,,,,,,,,,,,,,,,,,,,,,,,,,,,,,,,,,,,,,,,,,,,,,,,,,,,,,,,,,,,,,,,,,,,,,,,,,,,,,,,,,,,,,,,,,,,,,,,,,,,,,,,,,,,,,,,,,,,,,,,,,,,,,,,
,,5ea6da5ad773ee03ba8cefc5,2024-02-18_23h22.31.419,kallum_motion_pilot,2023.2.2,MacIntel,60.14675809,5ea6da5ad773ee03ba8cefc5,65d2b6c8f2eece985d8e374c,65d2b9b100976ea58a307501,0.0704,0.0706,0,105,105,94,1,eightsix,,,,,,,,,,,,,,,,,,,,,,,,,,,,,,,,,,,,,,,,,,,,,,,,,,,,,,,,,,,,,,,,,,,,,,,,,,,,,,,,,,,,,,,,,,,,,,,,,,,,,,,,,,,,,,,,,,,,,,,,,,,,,,,,,,,,,,,,,
,,5ea6da5ad773ee03ba8cefc5,2024-02-18_23h22.31.419,kallum_motion_pilot,2023.2.2,MacIntel,60.14675809,5ea6da5ad773ee03ba8cefc5,65d2b6c8f2eece985d8e374c,65d2b9b100976ea58a307501,0.0711,0.0713,0,106,106,21,1,threefour,,,,,,,,,,,,,,,,,,,,,,,,,,,,,,,,,,,,,,,,,,,,,,,,,,,,,,,,,,,,,,,,,,,,,,,,,,,,,,,,,,,,,,,,,,,,,,,,,,,,,,,,,,,,,,,,,,,,,,,,,,,,,,,,,,,,,,,,,
,,5ea6da5ad773ee03ba8cefc5,2024-02-18_23h22.31.419,kallum_motion_pilot,2023.2.2,MacIntel,60.14675809,5ea6da5ad773ee03ba8cefc5,65d2b6c8f2eece985d8e374c,65d2b9b100976ea58a307501,0.0717,0.0719,0,107,107,158,1,eightsix,,,,,,,,,,,,,,,,,,,,,,,,,,,,,,,,,,,,,,,,,,,,,,,,,,,,,,,,,,,,,,,,,,,,,,,,,,,,,,,,,,,,,,,,,,,,,,,,,,,,,,,,,,,,,,,,,,,,,,,,,,,,,,,,,,,,,,,,,
,,5ea6da5ad773ee03ba8cefc5,2024-02-18_23h22.31.419,kallum_motion_pilot,2023.2.2,MacIntel,60.14675809,5ea6da5ad773ee03ba8cefc5,65d2b6c8f2eece985d8e374c,65d2b9b100976ea58a307501,0.0724,0.0727,0,108,108,3,1,twofour,,,,,,,,,,,,,,,,,,,,,,,,,,,,,,,,,,,,,,,,,,,,,,,,,,,,,,,,,,,,,,,,,,,,,,,,,,,,,,,,,,,,,,,,,,,,,,,,,,,,,,,,,,,,,,,,,,,,,,,,,,,,,,,,,,,,,,,,,
,,5ea6da5ad773ee03ba8cefc5,2024-02-18_23h22.31.419,kallum_motion_pilot,2023.2.2,MacIntel,60.14675809,5ea6da5ad773ee03ba8cefc5,65d2b6c8f2eece985d8e374c,65d2b9b100976ea58a307501,0.0734,0.0737,0,109,109,75,1,twofour,,,,,,,,,,,,,,,,,,,,,,,,,,,,,,,,,,,,,,,,,,,,,,,,,,,,,,,,,,,,,,,,,,,,,,,,,,,,,,,,,,,,,,,,,,,,,,,,,,,,,,,,,,,,,,,,,,,,,,,,,,,,,,,,,,,,,,,,,
,,5ea6da5ad773ee03ba8cefc5,2024-02-18_23h22.31.419,kallum_motion_pilot,2023.2.2,MacIntel,60.14675809,5ea6da5ad773ee03ba8cefc5,65d2b6c8f2eece985d8e374c,65d2b9b100976ea58a307501,0.0739,0.0741,0,110,110,30,1,fourtwo,,,,,,,,,,,,,,,,,,,,,,,,,,,,,,,,,,,,,,,,,,,,,,,,,,,,,,,,,,,,,,,,,,,,,,,,,,,,,,,,,,,,,,,,,,,,,,,,,,,,,,,,,,,,,,,,,,,,,,,,,,,,,,,,,,,,,,,,,
,,5ea6da5ad773ee03ba8cefc5,2024-02-18_23h22.31.419,kallum_motion_pilot,2023.2.2,MacIntel,60.14675809,5ea6da5ad773ee03ba8cefc5,65d2b6c8f2eece985d8e374c,65d2b9b100976ea58a307501,0.0744,0.0745,0,111,111,85,1,seveneight,,,,,,,,,,,,,,,,,,,,,,,,,,,,,,,,,,,,,,,,,,,,,,,,,,,,,,,,,,,,,,,,,,,,,,,,,,,,,,,,,,,,,,,,,,,,,,,,,,,,,,,,,,,,,,,,,,,,,,,,,,,,,,,,,,,,,,,,,
,,5ea6da5ad773ee03ba8cefc5,2024-02-18_23h22.31.419,kallum_motion_pilot,2023.2.2,MacIntel,60.14675809,5ea6da5ad773ee03ba8cefc5,65d2b6c8f2eece985d8e374c,65d2b9b100976ea58a307501,0.0748,0.075,0,112,112,49,1,onethree,,,,,,,,,,,,,,,,,,,,,,,,,,,,,,,,,,,,,,,,,,,,,,,,,,,,,,,,,,,,,,,,,,,,,,,,,,,,,,,,,,,,,,,,,,,,,,,,,,,,,,,,,,,,,,,,,,,,,,,,,,,,,,,,,,,,,,,,,
,,5ea6da5ad773ee03ba8cefc5,2024-02-18_23h22.31.419,kallum_motion_pilot,2023.2.2,MacIntel,60.14675809,5ea6da5ad773ee03ba8cefc5,65d2b6c8f2eece985d8e374c,65d2b9b100976ea58a307501,0.0752,0.0754,0,113,113,119,1,eightseven,,,,,,,,,,,,,,,,,,,,,,,,,,,,,,,,,,,,,,,,,,,,,,,,,,,,,,,,,,,,,,,,,,,,,,,,,,,,,,,,,,,,,,,,,,,,,,,,,,,,,,,,,,,,,,,,,,,,,,,,,,,,,,,,,,,,,,,,,
,,5ea6da5ad773ee03ba8cefc5,2024-02-18_23h22.31.419,kallum_motion_pilot,2023.2.2,MacIntel,60.14675809,5ea6da5ad773ee03ba8cefc5,65d2b6c8f2eece985d8e374c,65d2b9b100976ea58a307501,0.0756,0.0758,0,114,114,8,1,onetwo,,,,,,,,,,,,,,,,,,,,,,,,,,,,,,,,,,,,,,,,,,,,,,,,,,,,,,,,,,,,,,,,,,,,,,,,,,,,,,,,,,,,,,,,,,,,,,,,,,,,,,,,,,,,,,,,,,,,,,,,,,,,,,,,,,,,,,,,,
,,5ea6da5ad773ee03ba8cefc5,2024-02-18_23h22.31.419,kallum_motion_pilot,2023.2.2,MacIntel,60.14675809,5ea6da5ad773ee03ba8cefc5,65d2b6c8f2eece985d8e374c,65d2b9b100976ea58a307501,0.0762,0.0763,0,115,115,13,1,threefour,,,,,,,,,,,,,,,,,,,,,,,,,,,,,,,,,,,,,,,,,,,,,,,,,,,,,,,,,,,,,,,,,,,,,,,,,,,,,,,,,,,,,,,,,,,,,,,,,,,,,,,,,,,,,,,,,,,,,,,,,,,,,,,,,,,,,,,,,
,,5ea6da5ad773ee03ba8cefc5,2024-02-18_23h22.31.419,kallum_motion_pilot,2023.2.2,MacIntel,60.14675809,5ea6da5ad773ee03ba8cefc5,65d2b6c8f2eece985d8e374c,65d2b9b100976ea58a307501,0.0766,0.0767,0,116,116,16,1,onetwo,,,,,,,,,,,,,,,,,,,,,,,,,,,,,,,,,,,,,,,,,,,,,,,,,,,,,,,,,,,,,,,,,,,,,,,,,,,,,,,,,,,,,,,,,,,,,,,,,,,,,,,,,,,,,,,,,,,,,,,,,,,,,,,,,,,,,,,,,
,,5ea6da5ad773ee03ba8cefc5,2024-02-18_23h22.31.419,kallum_motion_pilot,2023.2.2,MacIntel,60.14675809,5ea6da5ad773ee03ba8cefc5,65d2b6c8f2eece985d8e374c,65d2b9b100976ea58a307501,0.0769,0.0769,0,117,117,34,1,twoone,,,,,,,,,,,,,,,,,,,,,,,,,,,,,,,,,,,,,,,,,,,,,,,,,,,,,,,,,,,,,,,,,,,,,,,,,,,,,,,,,,,,,,,,,,,,,,,,,,,,,,,,,,,,,,,,,,,,,,,,,,,,,,,,,,,,,,,,,
,,5ea6da5ad773ee03ba8cefc5,2024-02-18_23h22.31.419,kallum_motion_pilot,2023.2.2,MacIntel,60.14675809,5ea6da5ad773ee03ba8cefc5,65d2b6c8f2eece985d8e374c,65d2b9b100976ea58a307501,0.0771,0.0773,0,118,118,70,1,fourtwo,,,,,,,,,,,,,,,,,,,,,,,,,,,,,,,,,,,,,,,,,,,,,,,,,,,,,,,,,,,,,,,,,,,,,,,,,,,,,,,,,,,,,,,,,,,,,,,,,,,,,,,,,,,,,,,,,,,,,,,,,,,,,,,,,,,,,,,,,
,,5ea6da5ad773ee03ba8cefc5,2024-02-18_23h22.31.419,kallum_motion_pilot,2023.2.2,MacIntel,60.14675809,5ea6da5ad773ee03ba8cefc5,65d2b6c8f2eece985d8e374c,65d2b9b100976ea58a307501,0.0774,0.0775,0,119,119,14,1,fourtwo,,,,,,,,,,,,,,,,,,,,,,,,,,,,,,,,,,,,,,,,,,,,,,,,,,,,,,,,,,,,,,,,,,,,,,,,,,,,,,,,,,,,,,,,,,,,,,,,,,,,,,,,,,,,,,,,,,,,,,,,,,,,,,,,,,,,,,,,,
,,5ea6da5ad773ee03ba8cefc5,2024-02-18_23h22.31.419,kallum_motion_pilot,2023.2.2,MacIntel,60.14675809,5ea6da5ad773ee03ba8cefc5,65d2b6c8f2eece985d8e374c,65d2b9b100976ea58a307501,0.0777,0.0778,0,120,120,124,1,sevenfive,,,,,,,,,,,,,,,,,,,,,,,,,,,,,,,,,,,,,,,,,,,,,,,,,,,,,,,,,,,,,,,,,,,,,,,,,,,,,,,,,,,,,,,,,,,,,,,,,,,,,,,,,,,,,,,,,,,,,,,,,,,,,,,,,,,,,,,,,
,,5ea6da5ad773ee03ba8cefc5,2024-02-18_23h22.31.419,kallum_motion_pilot,2023.2.2,MacIntel,60.14675809,5ea6da5ad773ee03ba8cefc5,65d2b6c8f2eece985d8e374c,65d2b9b100976ea58a307501,0.078,0.0781,0,121,121,111,1,eightseven,,,,,,,,,,,,,,,,,,,,,,,,,,,,,,,,,,,,,,,,,,,,,,,,,,,,,,,,,,,,,,,,,,,,,,,,,,,,,,,,,,,,,,,,,,,,,,,,,,,,,,,,,,,,,,,,,,,,,,,,,,,,,,,,,,,,,,,,,
,,5ea6da5ad773ee03ba8cefc5,2024-02-18_23h22.31.419,kallum_motion_pilot,2023.2.2,MacIntel,60.14675809,5ea6da5ad773ee03ba8cefc5,65d2b6c8f2eece985d8e374c,65d2b9b100976ea58a307501,0.0783,0.0785,0,122,122,138,1,sixfive,,,,,,,,,,,,,,,,,,,,,,,,,,,,,,,,,,,,,,,,,,,,,,,,,,,,,,,,,,,,,,,,,,,,,,,,,,,,,,,,,,,,,,,,,,,,,,,,,,,,,,,,,,,,,,,,,,,,,,,,,,,,,,,,,,,,,,,,,
,,5ea6da5ad773ee03ba8cefc5,2024-02-18_23h22.31.419,kallum_motion_pilot,2023.2.2,MacIntel,60.14675809,5ea6da5ad773ee03ba8cefc5,65d2b6c8f2eece985d8e374c,65d2b9b100976ea58a307501,0.0787,0.0788,0,123,123,112,1,fivesix,,,,,,,,,,,,,,,,,,,,,,,,,,,,,,,,,,,,,,,,,,,,,,,,,,,,,,,,,,,,,,,,,,,,,,,,,,,,,,,,,,,,,,,,,,,,,,,,,,,,,,,,,,,,,,,,,,,,,,,,,,,,,,,,,,,,,,,,,
,,5ea6da5ad773ee03ba8cefc5,2024-02-18_23h22.31.419,kallum_motion_pilot,2023.2.2,MacIntel,60.14675809,5ea6da5ad773ee03ba8cefc5,65d2b6c8f2eece985d8e374c,65d2b9b100976ea58a307501,0.079,0.0791,0,124,124,126,1,eightsix,,,,,,,,,,,,,,,,,,,,,,,,,,,,,,,,,,,,,,,,,,,,,,,,,,,,,,,,,,,,,,,,,,,,,,,,,,,,,,,,,,,,,,,,,,,,,,,,,,,,,,,,,,,,,,,,,,,,,,,,,,,,,,,,,,,,,,,,,
,,5ea6da5ad773ee03ba8cefc5,2024-02-18_23h22.31.419,kallum_motion_pilot,2023.2.2,MacIntel,60.14675809,5ea6da5ad773ee03ba8cefc5,65d2b6c8f2eece985d8e374c,65d2b9b100976ea58a307501,0.0792,0.0795,0,125,125,47,1,fourthree,,,,,,,,,,,,,,,,,,,,,,,,,,,,,,,,,,,,,,,,,,,,,,,,,,,,,,,,,,,,,,,,,,,,,,,,,,,,,,,,,,,,,,,,,,,,,,,,,,,,,,,,,,,,,,,,,,,,,,,,,,,,,,,,,,,,,,,,,
,,5ea6da5ad773ee03ba8cefc5,2024-02-18_23h22.31.419,kallum_motion_pilot,2023.2.2,MacIntel,60.14675809,5ea6da5ad773ee03ba8cefc5,65d2b6c8f2eece985d8e374c,65d2b9b100976ea58a307501,0.0796,0.0797,0,126,126,115,1,sixeight,,,,,,,,,,,,,,,,,,,,,,,,,,,,,,,,,,,,,,,,,,,,,,,,,,,,,,,,,,,,,,,,,,,,,,,,,,,,,,,,,,,,,,,,,,,,,,,,,,,,,,,,,,,,,,,,,,,,,,,,,,,,,,,,,,,,,,,,,
,,5ea6da5ad773ee03ba8cefc5,2024-02-18_23h22.31.419,kallum_motion_pilot,2023.2.2,MacIntel,60.14675809,5ea6da5ad773ee03ba8cefc5,65d2b6c8f2eece985d8e374c,65d2b9b100976ea58a307501,0.0799,0.08,0,127,127,129,1,fiveseven,,,,,,,,,,,,,,,,,,,,,,,,,,,,,,,,,,,,,,,,,,,,,,,,,,,,,,,,,,,,,,,,,,,,,,,,,,,,,,,,,,,,,,,,,,,,,,,,,,,,,,,,,,,,,,,,,,,,,,,,,,,,,,,,,,,,,,,,,
,,5ea6da5ad773ee03ba8cefc5,2024-02-18_23h22.31.419,kallum_motion_pilot,2023.2.2,MacIntel,60.14675809,5ea6da5ad773ee03ba8cefc5,65d2b6c8f2eece985d8e374c,65d2b9b100976ea58a307501,0.0802,0.0803,0,128,128,152,1,fivesix,,,,,,,,,,,,,,,,,,,,,,,,,,,,,,,,,,,,,,,,,,,,,,,,,,,,,,,,,,,,,,,,,,,,,,,,,,,,,,,,,,,,,,,,,,,,,,,,,,,,,,,,,,,,,,,,,,,,,,,,,,,,,,,,,,,,,,,,,
,,5ea6da5ad773ee03ba8cefc5,2024-02-18_23h22.31.419,kallum_motion_pilot,2023.2.2,MacIntel,60.14675809,5ea6da5ad773ee03ba8cefc5,65d2b6c8f2eece985d8e374c,65d2b9b100976ea58a307501,0.0806,0.0807,0,129,129,127,1,eightseven,,,,,,,,,,,,,,,,,,,,,,,,,,,,,,,,,,,,,,,,,,,,,,,,,,,,,,,,,,,,,,,,,,,,,,,,,,,,,,,,,,,,,,,,,,,,,,,,,,,,,,,,,,,,,,,,,,,,,,,,,,,,,,,,,,,,,,,,,
,,5ea6da5ad773ee03ba8cefc5,2024-02-18_23h22.31.419,kallum_motion_pilot,2023.2.2,MacIntel,60.14675809,5ea6da5ad773ee03ba8cefc5,65d2b6c8f2eece985d8e374c,65d2b9b100976ea58a307501,0.0808,0.081,0,130,130,60,1,threeone,,,,,,,,,,,,,,,,,,,,,,,,,,,,,,,,,,,,,,,,,,,,,,,,,,,,,,,,,,,,,,,,,,,,,,,,,,,,,,,,,,,,,,,,,,,,,,,,,,,,,,,,,,,,,,,,,,,,,,,,,,,,,,,,,,,,,,,,,
,,5ea6da5ad773ee03ba8cefc5,2024-02-18_23h22.31.419,kallum_motion_pilot,2023.2.2,MacIntel,60.14675809,5ea6da5ad773ee03ba8cefc5,65d2b6c8f2eece985d8e374c,65d2b9b100976ea58a307501,0.0812,0.0813,0,131,131,12,1,threeone,,,,,,,,,,,,,,,,,,,,,,,,,,,,,,,,,,,,,,,,,,,,,,,,,,,,,,,,,,,,,,,,,,,,,,,,,,,,,,,,,,,,,,,,,,,,,,,,,,,,,,,,,,,,,,,,,,,,,,,,,,,,,,,,,,,,,,,,,
,,5ea6da5ad773ee03ba8cefc5,2024-02-18_23h22.31.419,kallum_motion_pilot,2023.2.2,MacIntel,60.14675809,5ea6da5ad773ee03ba8cefc5,65d2b6c8f2eece985d8e374c,65d2b9b100976ea58a307501,0.0815,0.0816,0,132,132,143,1,eightseven,,,,,,,,,,,,,,,,,,,,,,,,,,,,,,,,,,,,,,,,,,,,,,,,,,,,,,,,,,,,,,,,,,,,,,,,,,,,,,,,,,,,,,,,,,,,,,,,,,,,,,,,,,,,,,,,,,,,,,,,,,,,,,,,,,,,,,,,,
,,5ea6da5ad773ee03ba8cefc5,2024-02-18_23h22.31.419,kallum_motion_pilot,2023.2.2,MacIntel,60.14675809,5ea6da5ad773ee03ba8cefc5,65d2b6c8f2eece985d8e374c,65d2b9b100976ea58a307501,0.0817,0.0819,0,133,133,66,1,twoone,,,,,,,,,,,,,,,,,,,,,,,,,,,,,,,,,,,,,,,,,,,,,,,,,,,,,,,,,,,,,,,,,,,,,,,,,,,,,,,,,,,,,,,,,,,,,,,,,,,,,,,,,,,,,,,,,,,,,,,,,,,,,,,,,,,,,,,,,
,,5ea6da5ad773ee03ba8cefc5,2024-02-18_23h22.31.419,kallum_motion_pilot,2023.2.2,MacIntel,60.14675809,5ea6da5ad773ee03ba8cefc5,65d2b6c8f2eece985d8e374c,65d2b9b100976ea58a307501,0.0821,0.0823,0,134,134,161,1,fiveseven,,,,,,,,,,,,,,,,,,,,,,,,,,,,,,,,,,,,,,,,,,,,,,,,,,,,,,,,,,,,,,,,,,,,,,,,,,,,,,,,,,,,,,,,,,,,,,,,,,,,,,,,,,,,,,,,,,,,,,,,,,,,,,,,,,,,,,,,,
,,5ea6da5ad773ee03ba8cefc5,2024-02-18_23h22.31.419,kallum_motion_pilot,2023.2.2,MacIntel,60.14675809,5ea6da5ad773ee03ba8cefc5,65d2b6c8f2eece985d8e374c,65d2b9b100976ea58a307501,0.0825,0.0826,0,135,135,102,1,eightsix,,,,,,,,,,,,,,,,,,,,,,,,,,,,,,,,,,,,,,,,,,,,,,,,,,,,,,,,,,,,,,,,,,,,,,,,,,,,,,,,,,,,,,,,,,,,,,,,,,,,,,,,,,,,,,,,,,,,,,,,,,,,,,,,,,,,,,,,,
,,5ea6da5ad773ee03ba8cefc5,2024-02-18_23h22.31.419,kallum_motion_pilot,2023.2.2,MacIntel,60.14675809,5ea6da5ad773ee03ba8cefc5,65d2b6c8f2eece985d8e374c,65d2b9b100976ea58a307501,0.083,0.0832,0,136,136,106,1,sixfive,,,,,,,,,,,,,,,,,,,,,,,,,,,,,,,,,,,,,,,,,,,,,,,,,,,,,,,,,,,,,,,,,,,,,,,,,,,,,,,,,,,,,,,,,,,,,,,,,,,,,,,,,,,,,,,,,,,,,,,,,,,,,,,,,,,,,,,,,
,,5ea6da5ad773ee03ba8cefc5,2024-02-18_23h22.31.419,kallum_motion_pilot,2023.2.2,MacIntel,60.14675809,5ea6da5ad773ee03ba8cefc5,65d2b6c8f2eece985d8e374c,65d2b9b100976ea58a307501,0.0836,0.0838,0,137,137,33,1,onethree,,,,,,,,,,,,,,,,,,,,,,,,,,,,,,,,,,,,,,,,,,,,,,,,,,,,,,,,,,,,,,,,,,,,,,,,,,,,,,,,,,,,,,,,,,,,,,,,,,,,,,,,,,,,,,,,,,,,,,,,,,,,,,,,,,,,,,,,,
,,5ea6da5ad773ee03ba8cefc5,2024-02-18_23h22.31.419,kallum_motion_pilot,2023.2.2,MacIntel,60.14675809,5ea6da5ad773ee03ba8cefc5,65d2b6c8f2eece985d8e374c,65d2b9b100976ea58a307501,0.0839,0.0841,0,138,138,40,1,onetwo,,,,,,,,,,,,,,,,,,,,,,,,,,,,,,,,,,,,,,,,,,,,,,,,,,,,,,,,,,,,,,,,,,,,,,,,,,,,,,,,,,,,,,,,,,,,,,,,,,,,,,,,,,,,,,,,,,,,,,,,,,,,,,,,,,,,,,,,,
,,5ea6da5ad773ee03ba8cefc5,2024-02-18_23h22.31.419,kallum_motion_pilot,2023.2.2,MacIntel,60.14675809,5ea6da5ad773ee03ba8cefc5,65d2b6c8f2eece985d8e374c,65d2b9b100976ea58a307501,0.0848,0.0852,0,139,139,22,1,fourtwo,,,,,,,,,,,,,,,,,,,,,,,,,,,,,,,,,,,,,,,,,,,,,,,,,,,,,,,,,,,,,,,,,,,,,,,,,,,,,,,,,,,,,,,,,,,,,,,,,,,,,,,,,,,,,,,,,,,,,,,,,,,,,,,,,,,,,,,,,
,,5ea6da5ad773ee03ba8cefc5,2024-02-18_23h22.31.419,kallum_motion_pilot,2023.2.2,MacIntel,60.14675809,5ea6da5ad773ee03ba8cefc5,65d2b6c8f2eece985d8e374c,65d2b9b100976ea58a307501,0.0855,0.0858,0,140,140,133,1,seveneight,,,,,,,,,,,,,,,,,,,,,,,,,,,,,,,,,,,,,,,,,,,,,,,,,,,,,,,,,,,,,,,,,,,,,,,,,,,,,,,,,,,,,,,,,,,,,,,,,,,,,,,,,,,,,,,,,,,,,,,,,,,,,,,,,,,,,,,,,
,,5ea6da5ad773ee03ba8cefc5,2024-02-18_23h22.31.419,kallum_motion_pilot,2023.2.2,MacIntel,60.14675809,5ea6da5ad773ee03ba8cefc5,65d2b6c8f2eece985d8e374c,65d2b9b100976ea58a307501,0.0859,0.0861,0,141,141,141,1,seveneight,,,,,,,,,,,,,,,,,,,,,,,,,,,,,,,,,,,,,,,,,,,,,,,,,,,,,,,,,,,,,,,,,,,,,,,,,,,,,,,,,,,,,,,,,,,,,,,,,,,,,,,,,,,,,,,,,,,,,,,,,,,,,,,,,,,,,,,,,
,,5ea6da5ad773ee03ba8cefc5,2024-02-18_23h22.31.419,kallum_motion_pilot,2023.2.2,MacIntel,60.14675809,5ea6da5ad773ee03ba8cefc5,65d2b6c8f2eece985d8e374c,65d2b9b100976ea58a307501,0.0864,0.0866,0,142,142,90,1,sixfive,,,,,,,,,,,,,,,,,,,,,,,,,,,,,,,,,,,,,,,,,,,,,,,,,,,,,,,,,,,,,,,,,,,,,,,,,,,,,,,,,,,,,,,,,,,,,,,,,,,,,,,,,,,,,,,,,,,,,,,,,,,,,,,,,,,,,,,,,
,,5ea6da5ad773ee03ba8cefc5,2024-02-18_23h22.31.419,kallum_motion_pilot,2023.2.2,MacIntel,60.14675809,5ea6da5ad773ee03ba8cefc5,65d2b6c8f2eece985d8e374c,65d2b9b100976ea58a307501,0.0869,0.0871,0,143,143,53,1,threefour,,,,,,,,,,,,,,,,,,,,,,,,,,,,,,,,,,,,,,,,,,,,,,,,,,,,,,,,,,,,,,,,,,,,,,,,,,,,,,,,,,,,,,,,,,,,,,,,,,,,,,,,,,,,,,,,,,,,,,,,,,,,,,,,,,,,,,,,,
,,5ea6da5ad773ee03ba8cefc5,2024-02-18_23h22.31.419,kallum_motion_pilot,2023.2.2,MacIntel,60.14675809,5ea6da5ad773ee03ba8cefc5,65d2b6c8f2eece985d8e374c,65d2b9b100976ea58a307501,0.0873,0.0875,0,144,144,131,1,sixeight,,,,,,,,,,,,,,,,,,,,,,,,,,,,,,,,,,,,,,,,,,,,,,,,,,,,,,,,,,,,,,,,,,,,,,,,,,,,,,,,,,,,,,,,,,,,,,,,,,,,,,,,,,,,,,,,,,,,,,,,,,,,,,,,,,,,,,,,,
,,5ea6da5ad773ee03ba8cefc5,2024-02-18_23h22.31.419,kallum_motion_pilot,2023.2.2,MacIntel,60.14675809,5ea6da5ad773ee03ba8cefc5,65d2b6c8f2eece985d8e374c,65d2b9b100976ea58a307501,0.0879,0.088,0,145,145,156,1,sevenfive,,,,,,,,,,,,,,,,,,,,,,,,,,,,,,,,,,,,,,,,,,,,,,,,,,,,,,,,,,,,,,,,,,,,,,,,,,,,,,,,,,,,,,,,,,,,,,,,,,,,,,,,,,,,,,,,,,,,,,,,,,,,,,,,,,,,,,,,,
,,5ea6da5ad773ee03ba8cefc5,2024-02-18_23h22.31.419,kallum_motion_pilot,2023.2.2,MacIntel,60.14675809,5ea6da5ad773ee03ba8cefc5,65d2b6c8f2eece985d8e374c,65d2b9b100976ea58a307501,0.0883,0.0885,0,146,146,99,1,sixeight,,,,,,,,,,,,,,,,,,,,,,,,,,,,,,,,,,,,,,,,,,,,,,,,,,,,,,,,,,,,,,,,,,,,,,,,,,,,,,,,,,,,,,,,,,,,,,,,,,,,,,,,,,,,,,,,,,,,,,,,,,,,,,,,,,,,,,,,,
,,5ea6da5ad773ee03ba8cefc5,2024-02-18_23h22.31.419,kallum_motion_pilot,2023.2.2,MacIntel,60.14675809,5ea6da5ad773ee03ba8cefc5,65d2b6c8f2eece985d8e374c,65d2b9b100976ea58a307501,0.0887,0.089,0,147,147,56,1,onetwo,,,,,,,,,,,,,,,,,,,,,,,,,,,,,,,,,,,,,,,,,,,,,,,,,,,,,,,,,,,,,,,,,,,,,,,,,,,,,,,,,,,,,,,,,,,,,,,,,,,,,,,,,,,,,,,,,,,,,,,,,,,,,,,,,,,,,,,,,
,,5ea6da5ad773ee03ba8cefc5,2024-02-18_23h22.31.419,kallum_motion_pilot,2023.2.2,MacIntel,60.14675809,5ea6da5ad773ee03ba8cefc5,65d2b6c8f2eece985d8e374c,65d2b9b100976ea58a307501,0.0893,0.0895,0,148,148,4,1,threeone,,,,,,,,,,,,,,,,,,,,,,,,,,,,,,,,,,,,,,,,,,,,,,,,,,,,,,,,,,,,,,,,,,,,,,,,,,,,,,,,,,,,,,,,,,,,,,,,,,,,,,,,,,,,,,,,,,,,,,,,,,,,,,,,,,,,,,,,,
,,5ea6da5ad773ee03ba8cefc5,2024-02-18_23h22.31.419,kallum_motion_pilot,2023.2.2,MacIntel,60.14675809,5ea6da5ad773ee03ba8cefc5,65d2b6c8f2eece985d8e374c,65d2b9b100976ea58a307501,0.0897,0.0899,0,149,149,72,1,onetwo,,,,,,,,,,,,,,,,,,,,,,,,,,,,,,,,,,,,,,,,,,,,,,,,,,,,,,,,,,,,,,,,,,,,,,,,,,,,,,,,,,,,,,,,,,,,,,,,,,,,,,,,,,,,,,,,,,,,,,,,,,,,,,,,,,,,,,,,,
,,5ea6da5ad773ee03ba8cefc5,2024-02-18_23h22.31.419,kallum_motion_pilot,2023.2.2,MacIntel,60.14675809,5ea6da5ad773ee03ba8cefc5,65d2b6c8f2eece985d8e374c,65d2b9b100976ea58a307501,0.09,0.0902,0,150,150,57,1,onethree,,,,,,,,,,,,,,,,,,,,,,,,,,,,,,,,,,,,,,,,,,,,,,,,,,,,,,,,,,,,,,,,,,,,,,,,,,,,,,,,,,,,,,,,,,,,,,,,,,,,,,,,,,,,,,,,,,,,,,,,,,,,,,,,,,,,,,,,,
,,5ea6da5ad773ee03ba8cefc5,2024-02-18_23h22.31.419,kallum_motion_pilot,2023.2.2,MacIntel,60.14675809,5ea6da5ad773ee03ba8cefc5,65d2b6c8f2eece985d8e374c,65d2b9b100976ea58a307501,0.0905,0.0906,0,151,151,122,1,sixfive,,,,,,,,,,,,,,,,,,,,,,,,,,,,,,,,,,,,,,,,,,,,,,,,,,,,,,,,,,,,,,,,,,,,,,,,,,,,,,,,,,,,,,,,,,,,,,,,,,,,,,,,,,,,,,,,,,,,,,,,,,,,,,,,,,,,,,,,,
,,5ea6da5ad773ee03ba8cefc5,2024-02-18_23h22.31.419,kallum_motion_pilot,2023.2.2,MacIntel,60.14675809,5ea6da5ad773ee03ba8cefc5,65d2b6c8f2eece985d8e374c,65d2b9b100976ea58a307501,0.092,0.0921,0,152,152,17,1,onethree,,,,,,,,,,,,,,,,,,,,,,,,,,,,,,,,,,,,,,,,,,,,,,,,,,,,,,,,,,,,,,,,,,,,,,,,,,,,,,,,,,,,,,,,,,,,,,,,,,,,,,,,,,,,,,,,,,,,,,,,,,,,,,,,,,,,,,,,,
,,5ea6da5ad773ee03ba8cefc5,2024-02-18_23h22.31.419,kallum_motion_pilot,2023.2.2,MacIntel,60.14675809,5ea6da5ad773ee03ba8cefc5,65d2b6c8f2eece985d8e374c,65d2b9b100976ea58a307501,0.0923,0.0925,0,153,153,67,1,twofour,,,,,,,,,,,,,,,,,,,,,,,,,,,,,,,,,,,,,,,,,,,,,,,,,,,,,,,,,,,,,,,,,,,,,,,,,,,,,,,,,,,,,,,,,,,,,,,,,,,,,,,,,,,,,,,,,,,,,,,,,,,,,,,,,,,,,,,,,
,,5ea6da5ad773ee03ba8cefc5,2024-02-18_23h22.31.419,kallum_motion_pilot,2023.2.2,MacIntel,60.14675809,5ea6da5ad773ee03ba8cefc5,65d2b6c8f2eece985d8e374c,65d2b9b100976ea58a307501,0.0927,0.0928,0,154,154,51,1,twofour,,,,,,,,,,,,,,,,,,,,,,,,,,,,,,,,,,,,,,,,,,,,,,,,,,,,,,,,,,,,,,,,,,,,,,,,,,,,,,,,,,,,,,,,,,,,,,,,,,,,,,,,,,,,,,,,,,,,,,,,,,,,,,,,,,,,,,,,,
,,5ea6da5ad773ee03ba8cefc5,2024-02-18_23h22.31.419,kallum_motion_pilot,2023.2.2,MacIntel,60.14675809,5ea6da5ad773ee03ba8cefc5,65d2b6c8f2eece985d8e374c,65d2b9b100976ea58a307501,0.0929,0.0931,0,155,155,97,1,fiveseven,,,,,,,,,,,,,,,,,,,,,,,,,,,,,,,,,,,,,,,,,,,,,,,,,,,,,,,,,,,,,,,,,,,,,,,,,,,,,,,,,,,,,,,,,,,,,,,,,,,,,,,,,,,,,,,,,,,,,,,,,,,,,,,,,,,,,,,,,
,,5ea6da5ad773ee03ba8cefc5,2024-02-18_23h22.31.419,kallum_motion_pilot,2023.2.2,MacIntel,60.14675809,5ea6da5ad773ee03ba8cefc5,65d2b6c8f2eece985d8e374c,65d2b9b100976ea58a307501,0.0933,0.0933,0,156,156,23,1,fourthree,,,,,,,,,,,,,,,,,,,,,,,,,,,,,,,,,,,,,,,,,,,,,,,,,,,,,,,,,,,,,,,,,,,,,,,,,,,,,,,,,,,,,,,,,,,,,,,,,,,,,,,,,,,,,,,,,,,,,,,,,,,,,,,,,,,,,,,,,
,,5ea6da5ad773ee03ba8cefc5,2024-02-18_23h22.31.419,kallum_motion_pilot,2023.2.2,MacIntel,60.14675809,5ea6da5ad773ee03ba8cefc5,65d2b6c8f2eece985d8e374c,65d2b9b100976ea58a307501,0.0936,0.0937,0,157,157,92,1,sevenfive,,,,,,,,,,,,,,,,,,,,,,,,,,,,,,,,,,,,,,,,,,,,,,,,,,,,,,,,,,,,,,,,,,,,,,,,,,,,,,,,,,,,,,,,,,,,,,,,,,,,,,,,,,,,,,,,,,,,,,,,,,,,,,,,,,,,,,,,,
,,5ea6da5ad773ee03ba8cefc5,2024-02-18_23h22.31.419,kallum_motion_pilot,2023.2.2,MacIntel,60.14675809,5ea6da5ad773ee03ba8cefc5,65d2b6c8f2eece985d8e374c,65d2b9b100976ea58a307501,0.0938,0.094,0,158,158,137,1,fiveseven,,,,,,,,,,,,,,,,,,,,,,,,,,,,,,,,,,,,,,,,,,,,,,,,,,,,,,,,,,,,,,,,,,,,,,,,,,,,,,,,,,,,,,,,,,,,,,,,,,,,,,,,,,,,,,,,,,,,,,,,,,,,,,,,,,,,,,,,,
,,5ea6da5ad773ee03ba8cefc5,2024-02-18_23h22.31.419,kallum_motion_pilot,2023.2.2,MacIntel,60.14675809,5ea6da5ad773ee03ba8cefc5,65d2b6c8f2eece985d8e374c,65d2b9b100976ea58a307501,0.0942,0.0943,0,159,159,36,1,threeone,,,,,,,,,,,,,,,,,,,,,,,,,,,,,,,,,,,,,,,,,,,,,,,,,,,,,,,,,,,,,,,,,,,,,,,,,,,,,,,,,,,,,,,,,,,,,,,,,,,,,,,,,,,,,,,,,,,,,,,,,,,,,,,,,,,,,,,,,
,,5ea6da5ad773ee03ba8cefc5,2024-02-18_23h22.31.419,kallum_motion_pilot,2023.2.2,MacIntel,60.14675809,5ea6da5ad773ee03ba8cefc5,65d2b6c8f2eece985d8e374c,65d2b9b100976ea58a307501,0.0945,0.0946,0,160,160,25,1,onethree,,,,,,,,,,,,,,,,,,,,,,,,,,,,,,,,,,,,,,,,,,,,,,,,,,,,,,,,,,,,,,,,,,,,,,,,,,,,,,,,,,,,,,,,,,,,,,,,,,,,,,,,,,,,,,,,,,,,,,,,,,,,,,,,,,,,,,,,,
,,5ea6da5ad773ee03ba8cefc5,2024-02-18_23h22.31.419,kallum_motion_pilot,2023.2.2,MacIntel,60.14675809,5ea6da5ad773ee03ba8cefc5,65d2b6c8f2eece985d8e374c,65d2b9b100976ea58a307501,0.0948,0.0949,0,161,161,96,1,fivesix,,,,,,,,,,,,,,,,,,,,,,,,,,,,,,,,,,,,,,,,,,,,,,,,,,,,,,,,,,,,,,,,,,,,,,,,,,,,,,,,,,,,,,,,,,,,,,,,,,,,,,,,,,,,,,,,,,,,,,,,,,,,,,,,,,,,,,,,,
,,5ea6da5ad773ee03ba8cefc5,2024-02-18_23h22.31.419,kallum_motion_pilot,2023.2.2,MacIntel,60.14675809,5ea6da5ad773ee03ba8cefc5,65d2b6c8f2eece985d8e374c,65d2b9b100976ea58a307501,0.095,0.0952,1,0,162,77,1,threefour,,,,,,,,,,,,,,,,,,,,,,,,,,,,,,,,,,,,,,,,,,,,,,,,,,,,,,,,,,,,,,,,,,,,,,,,,,,,,,,,,,,,,,,,,,,,,,,,,,,,,,,,,,,,,,,,,,,,,,,,,,,,,,,,,,,,,,,,,
,,5ea6da5ad773ee03ba8cefc5,2024-02-18_23h22.31.419,kallum_motion_pilot,2023.2.2,MacIntel,60.14675809,5ea6da5ad773ee03ba8cefc5,65d2b6c8f2eece985d8e374c,65d2b9b100976ea58a307501,0.0953,0.0955,1,1,163,2,1,twoone,,,,,,,,,,,,,,,,,,,,,,,,,,,,,,,,,,,,,,,,,,,,,,,,,,,,,,,,,,,,,,,,,,,,,,,,,,,,,,,,,,,,,,,,,,,,,,,,,,,,,,,,,,,,,,,,,,,,,,,,,,,,,,,,,,,,,,,,,
,,5ea6da5ad773ee03ba8cefc5,2024-02-18_23h22.31.419,kallum_motion_pilot,2023.2.2,MacIntel,60.14675809,5ea6da5ad773ee03ba8cefc5,65d2b6c8f2eece985d8e374c,65d2b9b100976ea58a307501,0.0957,0.0957,1,2,164,18,1,twoone,,,,,,,,,,,,,,,,,,,,,,,,,,,,,,,,,,,,,,,,,,,,,,,,,,,,,,,,,,,,,,,,,,,,,,,,,,,,,,,,,,,,,,,,,,,,,,,,,,,,,,,,,,,,,,,,,,,,,,,,,,,,,,,,,,,,,,,,,
,,5ea6da5ad773ee03ba8cefc5,2024-02-18_23h22.31.419,kallum_motion_pilot,2023.2.2,MacIntel,60.14675809,5ea6da5ad773ee03ba8cefc5,65d2b6c8f2eece985d8e374c,65d2b9b100976ea58a307501,0.0961,0.0962,1,3,165,145,1,fiveseven,,,,,,,,,,,,,,,,,,,,,,,,,,,,,,,,,,,,,,,,,,,,,,,,,,,,,,,,,,,,,,,,,,,,,,,,,,,,,,,,,,,,,,,,,,,,,,,,,,,,,,,,,,,,,,,,,,,,,,,,,,,,,,,,,,,,,,,,,
,,5ea6da5ad773ee03ba8cefc5,2024-02-18_23h22.31.419,kallum_motion_pilot,2023.2.2,MacIntel,60.14675809,5ea6da5ad773ee03ba8cefc5,65d2b6c8f2eece985d8e374c,65d2b9b100976ea58a307501,0.0964,0.0965,1,4,166,39,1,fourthree,,,,,,,,,,,,,,,,,,,,,,,,,,,,,,,,,,,,,,,,,,,,,,,,,,,,,,,,,,,,,,,,,,,,,,,,,,,,,,,,,,,,,,,,,,,,,,,,,,,,,,,,,,,,,,,,,,,,,,,,,,,,,,,,,,,,,,,,,
,,5ea6da5ad773ee03ba8cefc5,2024-02-18_23h22.31.419,kallum_motion_pilot,2023.2.2,MacIntel,60.14675809,5ea6da5ad773ee03ba8cefc5,65d2b6c8f2eece985d8e374c,65d2b9b100976ea58a307501,0.0966,0.0968,1,5,167,73,1,onethree,,,,,,,,,,,,,,,,,,,,,,,,,,,,,,,,,,,,,,,,,,,,,,,,,,,,,,,,,,,,,,,,,,,,,,,,,,,,,,,,,,,,,,,,,,,,,,,,,,,,,,,,,,,,,,,,,,,,,,,,,,,,,,,,,,,,,,,,,
,,5ea6da5ad773ee03ba8cefc5,2024-02-18_23h22.31.419,kallum_motion_pilot,2023.2.2,MacIntel,60.14675809,5ea6da5ad773ee03ba8cefc5,65d2b6c8f2eece985d8e374c,65d2b9b100976ea58a307501,0.0969,0.097,1,6,168,102,1,eightsix,,,,,,,,,,,,,,,,,,,,,,,,,,,,,,,,,,,,,,,,,,,,,,,,,,,,,,,,,,,,,,,,,,,,,,,,,,,,,,,,,,,,,,,,,,,,,,,,,,,,,,,,,,,,,,,,,,,,,,,,,,,,,,,,,,,,,,,,,
,,5ea6da5ad773ee03ba8cefc5,2024-02-18_23h22.31.419,kallum_motion_pilot,2023.2.2,MacIntel,60.14675809,5ea6da5ad773ee03ba8cefc5,65d2b6c8f2eece985d8e374c,65d2b9b100976ea58a307501,0.0972,0.0974,1,7,169,58,1,twoone,,,,,,,,,,,,,,,,,,,,,,,,,,,,,,,,,,,,,,,,,,,,,,,,,,,,,,,,,,,,,,,,,,,,,,,,,,,,,,,,,,,,,,,,,,,,,,,,,,,,,,,,,,,,,,,,,,,,,,,,,,,,,,,,,,,,,,,,,
,,5ea6da5ad773ee03ba8cefc5,2024-02-18_23h22.31.419,kallum_motion_pilot,2023.2.2,MacIntel,60.14675809,5ea6da5ad773ee03ba8cefc5,65d2b6c8f2eece985d8e374c,65d2b9b100976ea58a307501,0.0975,0.0977,1,8,170,130,1,sixfive,,,,,,,,,,,,,,,,,,,,,,,,,,,,,,,,,,,,,,,,,,,,,,,,,,,,,,,,,,,,,,,,,,,,,,,,,,,,,,,,,,,,,,,,,,,,,,,,,,,,,,,,,,,,,,,,,,,,,,,,,,,,,,,,,,,,,,,,,
,,5ea6da5ad773ee03ba8cefc5,2024-02-18_23h22.31.419,kallum_motion_pilot,2023.2.2,MacIntel,60.14675809,5ea6da5ad773ee03ba8cefc5,65d2b6c8f2eece985d8e374c,65d2b9b100976ea58a307501,0.0978,0.0979,1,9,171,112,1,fivesix,,,,,,,,,,,,,,,,,,,,,,,,,,,,,,,,,,,,,,,,,,,,,,,,,,,,,,,,,,,,,,,,,,,,,,,,,,,,,,,,,,,,,,,,,,,,,,,,,,,,,,,,,,,,,,,,,,,,,,,,,,,,,,,,,,,,,,,,,
,,5ea6da5ad773ee03ba8cefc5,2024-02-18_23h22.31.419,kallum_motion_pilot,2023.2.2,MacIntel,60.14675809,5ea6da5ad773ee03ba8cefc5,65d2b6c8f2eece985d8e374c,65d2b9b100976ea58a307501,0.0981,0.0983,1,10,172,4,1,threeone,,,,,,,,,,,,,,,,,,,,,,,,,,,,,,,,,,,,,,,,,,,,,,,,,,,,,,,,,,,,,,,,,,,,,,,,,,,,,,,,,,,,,,,,,,,,,,,,,,,,,,,,,,,,,,,,,,,,,,,,,,,,,,,,,,,,,,,,,
,,5ea6da5ad773ee03ba8cefc5,2024-02-18_23h22.31.419,kallum_motion_pilot,2023.2.2,MacIntel,60.14675809,5ea6da5ad773ee03ba8cefc5,65d2b6c8f2eece985d8e374c,65d2b9b100976ea58a307501,0.0984,0.0985,1,11,173,151,1,eightseven,,,,,,,,,,,,,,,,,,,,,,,,,,,,,,,,,,,,,,,,,,,,,,,,,,,,,,,,,,,,,,,,,,,,,,,,,,,,,,,,,,,,,,,,,,,,,,,,,,,,,,,,,,,,,,,,,,,,,,,,,,,,,,,,,,,,,,,,,
,,5ea6da5ad773ee03ba8cefc5,2024-02-18_23h22.31.419,kallum_motion_pilot,2023.2.2,MacIntel,60.14675809,5ea6da5ad773ee03ba8cefc5,65d2b6c8f2eece985d8e374c,65d2b9b100976ea58a307501,0.0987,0.0988,1,12,174,74,1,twoone,,,,,,,,,,,,,,,,,,,,,,,,,,,,,,,,,,,,,,,,,,,,,,,,,,,,,,,,,,,,,,,,,,,,,,,,,,,,,,,,,,,,,,,,,,,,,,,,,,,,,,,,,,,,,,,,,,,,,,,,,,,,,,,,,,,,,,,,,
,,5ea6da5ad773ee03ba8cefc5,2024-02-18_23h22.31.419,kallum_motion_pilot,2023.2.2,MacIntel,60.14675809,5ea6da5ad773ee03ba8cefc5,65d2b6c8f2eece985d8e374c,65d2b9b100976ea58a307501,0.099,0.0992,1,13,175,98,1,sixfive,,,,,,,,,,,,,,,,,,,,,,,,,,,,,,,,,,,,,,,,,,,,,,,,,,,,,,,,,,,,,,,,,,,,,,,,,,,,,,,,,,,,,,,,,,,,,,,,,,,,,,,,,,,,,,,,,,,,,,,,,,,,,,,,,,,,,,,,,
,,5ea6da5ad773ee03ba8cefc5,2024-02-18_23h22.31.419,kallum_motion_pilot,2023.2.2,MacIntel,60.14675809,5ea6da5ad773ee03ba8cefc5,65d2b6c8f2eece985d8e374c,65d2b9b100976ea58a307501,0.0993,0.0994,1,14,176,108,1,sevenfive,,,,,,,,,,,,,,,,,,,,,,,,,,,,,,,,,,,,,,,,,,,,,,,,,,,,,,,,,,,,,,,,,,,,,,,,,,,,,,,,,,,,,,,,,,,,,,,,,,,,,,,,,,,,,,,,,,,,,,,,,,,,,,,,,,,,,,,,,
,,5ea6da5ad773ee03ba8cefc5,2024-02-18_23h22.31.419,kallum_motion_pilot,2023.2.2,MacIntel,60.14675809,5ea6da5ad773ee03ba8cefc5,65d2b6c8f2eece985d8e374c,65d2b9b100976ea58a307501,0.0997,0.0998,1,15,177,60,1,threeone,,,,,,,,,,,,,,,,,,,,,,,,,,,,,,,,,,,,,,,,,,,,,,,,,,,,,,,,,,,,,,,,,,,,,,,,,,,,,,,,,,,,,,,,,,,,,,,,,,,,,,,,,,,,,,,,,,,,,,,,,,,,,,,,,,,,,,,,,
,,5ea6da5ad773ee03ba8cefc5,2024-02-18_23h22.31.419,kallum_motion_pilot,2023.2.2,MacIntel,60.14675809,5ea6da5ad773ee03ba8cefc5,65d2b6c8f2eece985d8e374c,65d2b9b100976ea58a307501,0.1,0.1001,1,16,178,29,1,threefour,,,,,,,,,,,,,,,,,,,,,,,,,,,,,,,,,,,,,,,,,,,,,,,,,,,,,,,,,,,,,,,,,,,,,,,,,,,,,,,,,,,,,,,,,,,,,,,,,,,,,,,,,,,,,,,,,,,,,,,,,,,,,,,,,,,,,,,,,
,,5ea6da5ad773ee03ba8cefc5,2024-02-18_23h22.31.419,kallum_motion_pilot,2023.2.2,MacIntel,60.14675809,5ea6da5ad773ee03ba8cefc5,65d2b6c8f2eece985d8e374c,65d2b9b100976ea58a307501,0.1002,0.1004,1,17,179,105,1,fiveseven,,,,,,,,,,,,,,,,,,,,,,,,,,,,,,,,,,,,,,,,,,,,,,,,,,,,,,,,,,,,,,,,,,,,,,,,,,,,,,,,,,,,,,,,,,,,,,,,,,,,,,,,,,,,,,,,,,,,,,,,,,,,,,,,,,,,,,,,,
,,5ea6da5ad773ee03ba8cefc5,2024-02-18_23h22.31.419,kallum_motion_pilot,2023.2.2,MacIntel,60.14675809,5ea6da5ad773ee03ba8cefc5,65d2b6c8f2eece985d8e374c,65d2b9b100976ea58a307501,0.1005,0.1008,1,18,180,152,1,fivesix,,,,,,,,,,,,,,,,,,,,,,,,,,,,,,,,,,,,,,,,,,,,,,,,,,,,,,,,,,,,,,,,,,,,,,,,,,,,,,,,,,,,,,,,,,,,,,,,,,,,,,,,,,,,,,,,,,,,,,,,,,,,,,,,,,,,,,,,,
,,5ea6da5ad773ee03ba8cefc5,2024-02-18_23h22.31.419,kallum_motion_pilot,2023.2.2,MacIntel,60.14675809,5ea6da5ad773ee03ba8cefc5,65d2b6c8f2eece985d8e374c,65d2b9b100976ea58a307501,0.1011,0.1012,1,19,181,104,1,fivesix,,,,,,,,,,,,,,,,,,,,,,,,,,,,,,,,,,,,,,,,,,,,,,,,,,,,,,,,,,,,,,,,,,,,,,,,,,,,,,,,,,,,,,,,,,,,,,,,,,,,,,,,,,,,,,,,,,,,,,,,,,,,,,,,,,,,,,,,,
,,5ea6da5ad773ee03ba8cefc5,2024-02-18_23h22.31.419,kallum_motion_pilot,2023.2.2,MacIntel,60.14675809,5ea6da5ad773ee03ba8cefc5,65d2b6c8f2eece985d8e374c,65d2b9b100976ea58a307501,0.1015,0.1016,1,20,182,96,1,fivesix,,,,,,,,,,,,,,,,,,,,,,,,,,,,,,,,,,,,,,,,,,,,,,,,,,,,,,,,,,,,,,,,,,,,,,,,,,,,,,,,,,,,,,,,,,,,,,,,,,,,,,,,,,,,,,,,,,,,,,,,,,,,,,,,,,,,,,,,,
,,5ea6da5ad773ee03ba8cefc5,2024-02-18_23h22.31.419,kallum_motion_pilot,2023.2.2,MacIntel,60.14675809,5ea6da5ad773ee03ba8cefc5,65d2b6c8f2eece985d8e374c,65d2b9b100976ea58a307501,0.102,0.1021,1,21,183,107,1,sixeight,,,,,,,,,,,,,,,,,,,,,,,,,,,,,,,,,,,,,,,,,,,,,,,,,,,,,,,,,,,,,,,,,,,,,,,,,,,,,,,,,,,,,,,,,,,,,,,,,,,,,,,,,,,,,,,,,,,,,,,,,,,,,,,,,,,,,,,,,
,,5ea6da5ad773ee03ba8cefc5,2024-02-18_23h22.31.419,kallum_motion_pilot,2023.2.2,MacIntel,60.14675809,5ea6da5ad773ee03ba8cefc5,65d2b6c8f2eece985d8e374c,65d2b9b100976ea58a307501,0.1023,0.1025,1,22,184,27,1,twofour,,,,,,,,,,,,,,,,,,,,,,,,,,,,,,,,,,,,,,,,,,,,,,,,,,,,,,,,,,,,,,,,,,,,,,,,,,,,,,,,,,,,,,,,,,,,,,,,,,,,,,,,,,,,,,,,,,,,,,,,,,,,,,,,,,,,,,,,,
,,5ea6da5ad773ee03ba8cefc5,2024-02-18_23h22.31.419,kallum_motion_pilot,2023.2.2,MacIntel,60.14675809,5ea6da5ad773ee03ba8cefc5,65d2b6c8f2eece985d8e374c,65d2b9b100976ea58a307501,0.1026,0.1027,1,23,185,160,1,fivesix,,,,,,,,,,,,,,,,,,,,,,,,,,,,,,,,,,,,,,,,,,,,,,,,,,,,,,,,,,,,,,,,,,,,,,,,,,,,,,,,,,,,,,,,,,,,,,,,,,,,,,,,,,,,,,,,,,,,,,,,,,,,,,,,,,,,,,,,,
,,5ea6da5ad773ee03ba8cefc5,2024-02-18_23h22.31.419,kallum_motion_pilot,2023.2.2,MacIntel,60.14675809,5ea6da5ad773ee03ba8cefc5,65d2b6c8f2eece985d8e374c,65d2b9b100976ea58a307501,0.103,0.1031,1,24,186,134,1,eightsix,,,,,,,,,,,,,,,,,,,,,,,,,,,,,,,,,,,,,,,,,,,,,,,,,,,,,,,,,,,,,,,,,,,,,,,,,,,,,,,,,,,,,,,,,,,,,,,,,,,,,,,,,,,,,,,,,,,,,,,,,,,,,,,,,,,,,,,,,
,,5ea6da5ad773ee03ba8cefc5,2024-02-18_23h22.31.419,kallum_motion_pilot,2023.2.2,MacIntel,60.14675809,5ea6da5ad773ee03ba8cefc5,65d2b6c8f2eece985d8e374c,65d2b9b100976ea58a307501,0.1032,0.1034,1,25,187,52,1,threeone,,,,,,,,,,,,,,,,,,,,,,,,,,,,,,,,,,,,,,,,,,,,,,,,,,,,,,,,,,,,,,,,,,,,,,,,,,,,,,,,,,,,,,,,,,,,,,,,,,,,,,,,,,,,,,,,,,,,,,,,,,,,,,,,,,,,,,,,,
,,5ea6da5ad773ee03ba8cefc5,2024-02-18_23h22.31.419,kallum_motion_pilot,2023.2.2,MacIntel,60.14675809,5ea6da5ad773ee03ba8cefc5,65d2b6c8f2eece985d8e374c,65d2b9b100976ea58a307501,0.1035,0.1036,1,26,188,61,1,threefour,,,,,,,,,,,,,,,,,,,,,,,,,,,,,,,,,,,,,,,,,,,,,,,,,,,,,,,,,,,,,,,,,,,,,,,,,,,,,,,,,,,,,,,,,,,,,,,,,,,,,,,,,,,,,,,,,,,,,,,,,,,,,,,,,,,,,,,,,
,,5ea6da5ad773ee03ba8cefc5,2024-02-18_23h22.31.419,kallum_motion_pilot,2023.2.2,MacIntel,60.14675809,5ea6da5ad773ee03ba8cefc5,65d2b6c8f2eece985d8e374c,65d2b9b100976ea58a307501,0.1038,0.104,1,27,189,71,1,fourthree,,,,,,,,,,,,,,,,,,,,,,,,,,,,,,,,,,,,,,,,,,,,,,,,,,,,,,,,,,,,,,,,,,,,,,,,,,,,,,,,,,,,,,,,,,,,,,,,,,,,,,,,,,,,,,,,,,,,,,,,,,,,,,,,,,,,,,,,,
,,5ea6da5ad773ee03ba8cefc5,2024-02-18_23h22.31.419,kallum_motion_pilot,2023.2.2,MacIntel,60.14675809,5ea6da5ad773ee03ba8cefc5,65d2b6c8f2eece985d8e374c,65d2b9b100976ea58a307501,0.1041,0.1044,1,28,190,35,1,twofour,,,,,,,,,,,,,,,,,,,,,,,,,,,,,,,,,,,,,,,,,,,,,,,,,,,,,,,,,,,,,,,,,,,,,,,,,,,,,,,,,,,,,,,,,,,,,,,,,,,,,,,,,,,,,,,,,,,,,,,,,,,,,,,,,,,,,,,,,
,,5ea6da5ad773ee03ba8cefc5,2024-02-18_23h22.31.419,kallum_motion_pilot,2023.2.2,MacIntel,60.14675809,5ea6da5ad773ee03ba8cefc5,65d2b6c8f2eece985d8e374c,65d2b9b100976ea58a307501,0.1045,0.1047,1,29,191,93,1,seveneight,,,,,,,,,,,,,,,,,,,,,,,,,,,,,,,,,,,,,,,,,,,,,,,,,,,,,,,,,,,,,,,,,,,,,,,,,,,,,,,,,,,,,,,,,,,,,,,,,,,,,,,,,,,,,,,,,,,,,,,,,,,,,,,,,,,,,,,,,
,,5ea6da5ad773ee03ba8cefc5,2024-02-18_23h22.31.419,kallum_motion_pilot,2023.2.2,MacIntel,60.14675809,5ea6da5ad773ee03ba8cefc5,65d2b6c8f2eece985d8e374c,65d2b9b100976ea58a307501,0.1049,0.105,1,30,192,110,1,eightsix,,,,,,,,,,,,,,,,,,,,,,,,,,,,,,,,,,,,,,,,,,,,,,,,,,,,,,,,,,,,,,,,,,,,,,,,,,,,,,,,,,,,,,,,,,,,,,,,,,,,,,,,,,,,,,,,,,,,,,,,,,,,,,,,,,,,,,,,,
,,5ea6da5ad773ee03ba8cefc5,2024-02-18_23h22.31.419,kallum_motion_pilot,2023.2.2,MacIntel,60.14675809,5ea6da5ad773ee03ba8cefc5,65d2b6c8f2eece985d8e374c,65d2b9b100976ea58a307501,0.1051,0.1053,1,31,193,124,1,sevenfive,,,,,,,,,,,,,,,,,,,,,,,,,,,,,,,,,,,,,,,,,,,,,,,,,,,,,,,,,,,,,,,,,,,,,,,,,,,,,,,,,,,,,,,,,,,,,,,,,,,,,,,,,,,,,,,,,,,,,,,,,,,,,,,,,,,,,,,,,
,,5ea6da5ad773ee03ba8cefc5,2024-02-18_23h22.31.419,kallum_motion_pilot,2023.2.2,MacIntel,60.14675809,5ea6da5ad773ee03ba8cefc5,65d2b6c8f2eece985d8e374c,65d2b9b100976ea58a307501,0.1054,0.1056,1,32,194,76,1,threeone,,,,,,,,,,,,,,,,,,,,,,,,,,,,,,,,,,,,,,,,,,,,,,,,,,,,,,,,,,,,,,,,,,,,,,,,,,,,,,,,,,,,,,,,,,,,,,,,,,,,,,,,,,,,,,,,,,,,,,,,,,,,,,,,,,,,,,,,,
,,5ea6da5ad773ee03ba8cefc5,2024-02-18_23h22.31.419,kallum_motion_pilot,2023.2.2,MacIntel,60.14675809,5ea6da5ad773ee03ba8cefc5,65d2b6c8f2eece985d8e374c,65d2b9b100976ea58a307501,0.1057,0.1058,1,33,195,1,1,onethree,,,,,,,,,,,,,,,,,,,,,,,,,,,,,,,,,,,,,,,,,,,,,,,,,,,,,,,,,,,,,,,,,,,,,,,,,,,,,,,,,,,,,,,,,,,,,,,,,,,,,,,,,,,,,,,,,,,,,,,,,,,,,,,,,,,,,,,,,
,,5ea6da5ad773ee03ba8cefc5,2024-02-18_23h22.31.419,kallum_motion_pilot,2023.2.2,MacIntel,60.14675809,5ea6da5ad773ee03ba8cefc5,65d2b6c8f2eece985d8e374c,65d2b9b100976ea58a307501,0.106,0.1062,1,34,196,161,1,fiveseven,,,,,,,,,,,,,,,,,,,,,,,,,,,,,,,,,,,,,,,,,,,,,,,,,,,,,,,,,,,,,,,,,,,,,,,,,,,,,,,,,,,,,,,,,,,,,,,,,,,,,,,,,,,,,,,,,,,,,,,,,,,,,,,,,,,,,,,,,
,,5ea6da5ad773ee03ba8cefc5,2024-02-18_23h22.31.419,kallum_motion_pilot,2023.2.2,MacIntel,60.14675809,5ea6da5ad773ee03ba8cefc5,65d2b6c8f2eece985d8e374c,65d2b9b100976ea58a307501,0.1063,0.1065,1,35,197,109,1,seveneight,,,,,,,,,,,,,,,,,,,,,,,,,,,,,,,,,,,,,,,,,,,,,,,,,,,,,,,,,,,,,,,,,,,,,,,,,,,,,,,,,,,,,,,,,,,,,,,,,,,,,,,,,,,,,,,,,,,,,,,,,,,,,,,,,,,,,,,,,
,,5ea6da5ad773ee03ba8cefc5,2024-02-18_23h22.31.419,kallum_motion_pilot,2023.2.2,MacIntel,60.14675809,5ea6da5ad773ee03ba8cefc5,65d2b6c8f2eece985d8e374c,65d2b9b100976ea58a307501,0.1067,0.1068,1,36,198,66,1,twoone,,,,,,,,,,,,,,,,,,,,,,,,,,,,,,,,,,,,,,,,,,,,,,,,,,,,,,,,,,,,,,,,,,,,,,,,,,,,,,,,,,,,,,,,,,,,,,,,,,,,,,,,,,,,,,,,,,,,,,,,,,,,,,,,,,,,,,,,,
,,5ea6da5ad773ee03ba8cefc5,2024-02-18_23h22.31.419,kallum_motion_pilot,2023.2.2,MacIntel,60.14675809,5ea6da5ad773ee03ba8cefc5,65d2b6c8f2eece985d8e374c,65d2b9b100976ea58a307501,0.1069,0.1071,1,37,199,88,1,fivesix,,,,,,,,,,,,,,,,,,,,,,,,,,,,,,,,,,,,,,,,,,,,,,,,,,,,,,,,,,,,,,,,,,,,,,,,,,,,,,,,,,,,,,,,,,,,,,,,,,,,,,,,,,,,,,,,,,,,,,,,,,,,,,,,,,,,,,,,,
,,5ea6da5ad773ee03ba8cefc5,2024-02-18_23h22.31.419,kallum_motion_pilot,2023.2.2,MacIntel,60.14675809,5ea6da5ad773ee03ba8cefc5,65d2b6c8f2eece985d8e374c,65d2b9b100976ea58a307501,0.1072,0.1074,1,38,200,70,1,fourtwo,,,,,,,,,,,,,,,,,,,,,,,,,,,,,,,,,,,,,,,,,,,,,,,,,,,,,,,,,,,,,,,,,,,,,,,,,,,,,,,,,,,,,,,,,,,,,,,,,,,,,,,,,,,,,,,,,,,,,,,,,,,,,,,,,,,,,,,,,
,,5ea6da5ad773ee03ba8cefc5,2024-02-18_23h22.31.419,kallum_motion_pilot,2023.2.2,MacIntel,60.14675809,5ea6da5ad773ee03ba8cefc5,65d2b6c8f2eece985d8e374c,65d2b9b100976ea58a307501,0.1076,0.1078,1,39,201,5,1,threefour,,,,,,,,,,,,,,,,,,,,,,,,,,,,,,,,,,,,,,,,,,,,,,,,,,,,,,,,,,,,,,,,,,,,,,,,,,,,,,,,,,,,,,,,,,,,,,,,,,,,,,,,,,,,,,,,,,,,,,,,,,,,,,,,,,,,,,,,,
,,5ea6da5ad773ee03ba8cefc5,2024-02-18_23h22.31.419,kallum_motion_pilot,2023.2.2,MacIntel,60.14675809,5ea6da5ad773ee03ba8cefc5,65d2b6c8f2eece985d8e374c,65d2b9b100976ea58a307501,0.1079,0.1081,1,40,202,14,1,fourtwo,,,,,,,,,,,,,,,,,,,,,,,,,,,,,,,,,,,,,,,,,,,,,,,,,,,,,,,,,,,,,,,,,,,,,,,,,,,,,,,,,,,,,,,,,,,,,,,,,,,,,,,,,,,,,,,,,,,,,,,,,,,,,,,,,,,,,,,,,
,,5ea6da5ad773ee03ba8cefc5,2024-02-18_23h22.31.419,kallum_motion_pilot,2023.2.2,MacIntel,60.14675809,5ea6da5ad773ee03ba8cefc5,65d2b6c8f2eece985d8e374c,65d2b9b100976ea58a307501,0.1082,0.1083,1,41,203,115,1,sixeight,,,,,,,,,,,,,,,,,,,,,,,,,,,,,,,,,,,,,,,,,,,,,,,,,,,,,,,,,,,,,,,,,,,,,,,,,,,,,,,,,,,,,,,,,,,,,,,,,,,,,,,,,,,,,,,,,,,,,,,,,,,,,,,,,,,,,,,,,
,,5ea6da5ad773ee03ba8cefc5,2024-02-18_23h22.31.419,kallum_motion_pilot,2023.2.2,MacIntel,60.14675809,5ea6da5ad773ee03ba8cefc5,65d2b6c8f2eece985d8e374c,65d2b9b100976ea58a307501,0.1085,0.1087,1,42,204,86,1,eightsix,,,,,,,,,,,,,,,,,,,,,,,,,,,,,,,,,,,,,,,,,,,,,,,,,,,,,,,,,,,,,,,,,,,,,,,,,,,,,,,,,,,,,,,,,,,,,,,,,,,,,,,,,,,,,,,,,,,,,,,,,,,,,,,,,,,,,,,,,
,,5ea6da5ad773ee03ba8cefc5,2024-02-18_23h22.31.419,kallum_motion_pilot,2023.2.2,MacIntel,60.14675809,5ea6da5ad773ee03ba8cefc5,65d2b6c8f2eece985d8e374c,65d2b9b100976ea58a307501,0.1089,0.1091,1,43,205,67,1,twofour,,,,,,,,,,,,,,,,,,,,,,,,,,,,,,,,,,,,,,,,,,,,,,,,,,,,,,,,,,,,,,,,,,,,,,,,,,,,,,,,,,,,,,,,,,,,,,,,,,,,,,,,,,,,,,,,,,,,,,,,,,,,,,,,,,,,,,,,,
,,5ea6da5ad773ee03ba8cefc5,2024-02-18_23h22.31.419,kallum_motion_pilot,2023.2.2,MacIntel,60.14675809,5ea6da5ad773ee03ba8cefc5,65d2b6c8f2eece985d8e374c,65d2b9b100976ea58a307501,0.1092,0.1093,1,44,206,90,1,sixfive,,,,,,,,,,,,,,,,,,,,,,,,,,,,,,,,,,,,,,,,,,,,,,,,,,,,,,,,,,,,,,,,,,,,,,,,,,,,,,,,,,,,,,,,,,,,,,,,,,,,,,,,,,,,,,,,,,,,,,,,,,,,,,,,,,,,,,,,,
,,5ea6da5ad773ee03ba8cefc5,2024-02-18_23h22.31.419,kallum_motion_pilot,2023.2.2,MacIntel,60.14675809,5ea6da5ad773ee03ba8cefc5,65d2b6c8f2eece985d8e374c,65d2b9b100976ea58a307501,0.1095,0.1097,1,45,207,125,1,seveneight,,,,,,,,,,,,,,,,,,,,,,,,,,,,,,,,,,,,,,,,,,,,,,,,,,,,,,,,,,,,,,,,,,,,,,,,,,,,,,,,,,,,,,,,,,,,,,,,,,,,,,,,,,,,,,,,,,,,,,,,,,,,,,,,,,,,,,,,,
,,5ea6da5ad773ee03ba8cefc5,2024-02-18_23h22.31.419,kallum_motion_pilot,2023.2.2,MacIntel,60.14675809,5ea6da5ad773ee03ba8cefc5,65d2b6c8f2eece985d8e374c,65d2b9b100976ea58a307501,0.1097,0.1099,1,46,208,94,1,eightsix,,,,,,,,,,,,,,,,,,,,,,,,,,,,,,,,,,,,,,,,,,,,,,,,,,,,,,,,,,,,,,,,,,,,,,,,,,,,,,,,,,,,,,,,,,,,,,,,,,,,,,,,,,,,,,,,,,,,,,,,,,,,,,,,,,,,,,,,,
,,5ea6da5ad773ee03ba8cefc5,2024-02-18_23h22.31.419,kallum_motion_pilot,2023.2.2,MacIntel,60.14675809,5ea6da5ad773ee03ba8cefc5,65d2b6c8f2eece985d8e374c,65d2b9b100976ea58a307501,0.1101,0.1102,1,47,209,41,1,onethree,,,,,,,,,,,,,,,,,,,,,,,,,,,,,,,,,,,,,,,,,,,,,,,,,,,,,,,,,,,,,,,,,,,,,,,,,,,,,,,,,,,,,,,,,,,,,,,,,,,,,,,,,,,,,,,,,,,,,,,,,,,,,,,,,,,,,,,,,
,,5ea6da5ad773ee03ba8cefc5,2024-02-18_23h22.31.419,kallum_motion_pilot,2023.2.2,MacIntel,60.14675809,5ea6da5ad773ee03ba8cefc5,65d2b6c8f2eece985d8e374c,65d2b9b100976ea58a307501,0.1103,0.1105,1,48,210,103,1,eightseven,,,,,,,,,,,,,,,,,,,,,,,,,,,,,,,,,,,,,,,,,,,,,,,,,,,,,,,,,,,,,,,,,,,,,,,,,,,,,,,,,,,,,,,,,,,,,,,,,,,,,,,,,,,,,,,,,,,,,,,,,,,,,,,,,,,,,,,,,
,,5ea6da5ad773ee03ba8cefc5,2024-02-18_23h22.31.419,kallum_motion_pilot,2023.2.2,MacIntel,60.14675809,5ea6da5ad773ee03ba8cefc5,65d2b6c8f2eece985d8e374c,65d2b9b100976ea58a307501,0.1107,0.1109,1,49,211,120,1,fivesix,,,,,,,,,,,,,,,,,,,,,,,,,,,,,,,,,,,,,,,,,,,,,,,,,,,,,,,,,,,,,,,,,,,,,,,,,,,,,,,,,,,,,,,,,,,,,,,,,,,,,,,,,,,,,,,,,,,,,,,,,,,,,,,,,,,,,,,,,
,,5ea6da5ad773ee03ba8cefc5,2024-02-18_23h22.31.419,kallum_motion_pilot,2023.2.2,MacIntel,60.14675809,5ea6da5ad773ee03ba8cefc5,65d2b6c8f2eece985d8e374c,65d2b9b100976ea58a307501,0.1112,0.1113,1,50,212,153,1,fiveseven,,,,,,,,,,,,,,,,,,,,,,,,,,,,,,,,,,,,,,,,,,,,,,,,,,,,,,,,,,,,,,,,,,,,,,,,,,,,,,,,,,,,,,,,,,,,,,,,,,,,,,,,,,,,,,,,,,,,,,,,,,,,,,,,,,,,,,,,,
,,5ea6da5ad773ee03ba8cefc5,2024-02-18_23h22.31.419,kallum_motion_pilot,2023.2.2,MacIntel,60.14675809,5ea6da5ad773ee03ba8cefc5,65d2b6c8f2eece985d8e374c,65d2b9b100976ea58a307501,0.1115,0.1116,1,51,213,42,1,twoone,,,,,,,,,,,,,,,,,,,,,,,,,,,,,,,,,,,,,,,,,,,,,,,,,,,,,,,,,,,,,,,,,,,,,,,,,,,,,,,,,,,,,,,,,,,,,,,,,,,,,,,,,,,,,,,,,,,,,,,,,,,,,,,,,,,,,,,,,
,,5ea6da5ad773ee03ba8cefc5,2024-02-18_23h22.31.419,kallum_motion_pilot,2023.2.2,MacIntel,60.14675809,5ea6da5ad773ee03ba8cefc5,65d2b6c8f2eece985d8e374c,65d2b9b100976ea58a307501,0.1118,0.1119,1,52,214,68,1,threeone,,,,,,,,,,,,,,,,,,,,,,,,,,,,,,,,,,,,,,,,,,,,,,,,,,,,,,,,,,,,,,,,,,,,,,,,,,,,,,,,,,,,,,,,,,,,,,,,,,,,,,,,,,,,,,,,,,,,,,,,,,,,,,,,,,,,,,,,,
,,5ea6da5ad773ee03ba8cefc5,2024-02-18_23h22.31.419,kallum_motion_pilot,2023.2.2,MacIntel,60.14675809,5ea6da5ad773ee03ba8cefc5,65d2b6c8f2eece985d8e374c,65d2b9b100976ea58a307501,0.1121,0.1122,1,53,215,150,1,eightsix,,,,,,,,,,,,,,,,,,,,,,,,,,,,,,,,,,,,,,,,,,,,,,,,,,,,,,,,,,,,,,,,,,,,,,,,,,,,,,,,,,,,,,,,,,,,,,,,,,,,,,,,,,,,,,,,,,,,,,,,,,,,,,,,,,,,,,,,,
,,5ea6da5ad773ee03ba8cefc5,2024-02-18_23h22.31.419,kallum_motion_pilot,2023.2.2,MacIntel,60.14675809,5ea6da5ad773ee03ba8cefc5,65d2b6c8f2eece985d8e374c,65d2b9b100976ea58a307501,0.1125,0.1126,1,54,216,149,1,seveneight,,,,,,,,,,,,,,,,,,,,,,,,,,,,,,,,,,,,,,,,,,,,,,,,,,,,,,,,,,,,,,,,,,,,,,,,,,,,,,,,,,,,,,,,,,,,,,,,,,,,,,,,,,,,,,,,,,,,,,,,,,,,,,,,,,,,,,,,,
,,5ea6da5ad773ee03ba8cefc5,2024-02-18_23h22.31.419,kallum_motion_pilot,2023.2.2,MacIntel,60.14675809,5ea6da5ad773ee03ba8cefc5,65d2b6c8f2eece985d8e374c,65d2b9b100976ea58a307501,0.1128,0.1129,1,55,217,43,1,twofour,,,,,,,,,,,,,,,,,,,,,,,,,,,,,,,,,,,,,,,,,,,,,,,,,,,,,,,,,,,,,,,,,,,,,,,,,,,,,,,,,,,,,,,,,,,,,,,,,,,,,,,,,,,,,,,,,,,,,,,,,,,,,,,,,,,,,,,,,
,,5ea6da5ad773ee03ba8cefc5,2024-02-18_23h22.31.419,kallum_motion_pilot,2023.2.2,MacIntel,60.14675809,5ea6da5ad773ee03ba8cefc5,65d2b6c8f2eece985d8e374c,65d2b9b100976ea58a307501,0.1131,0.1132,1,56,218,121,1,fiveseven,,,,,,,,,,,,,,,,,,,,,,,,,,,,,,,,,,,,,,,,,,,,,,,,,,,,,,,,,,,,,,,,,,,,,,,,,,,,,,,,,,,,,,,,,,,,,,,,,,,,,,,,,,,,,,,,,,,,,,,,,,,,,,,,,,,,,,,,,
,,5ea6da5ad773ee03ba8cefc5,2024-02-18_23h22.31.419,kallum_motion_pilot,2023.2.2,MacIntel,60.14675809,5ea6da5ad773ee03ba8cefc5,65d2b6c8f2eece985d8e374c,65d2b9b100976ea58a307501,0.1135,0.1136,1,57,219,7,1,fourthree,,,,,,,,,,,,,,,,,,,,,,,,,,,,,,,,,,,,,,,,,,,,,,,,,,,,,,,,,,,,,,,,,,,,,,,,,,,,,,,,,,,,,,,,,,,,,,,,,,,,,,,,,,,,,,,,,,,,,,,,,,,,,,,,,,,,,,,,,
,,5ea6da5ad773ee03ba8cefc5,2024-02-18_23h22.31.419,kallum_motion_pilot,2023.2.2,MacIntel,60.14675809,5ea6da5ad773ee03ba8cefc5,65d2b6c8f2eece985d8e374c,65d2b9b100976ea58a307501,0.1138,0.114,1,58,220,75,1,twofour,,,,,,,,,,,,,,,,,,,,,,,,,,,,,,,,,,,,,,,,,,,,,,,,,,,,,,,,,,,,,,,,,,,,,,,,,,,,,,,,,,,,,,,,,,,,,,,,,,,,,,,,,,,,,,,,,,,,,,,,,,,,,,,,,,,,,,,,,
,,5ea6da5ad773ee03ba8cefc5,2024-02-18_23h22.31.419,kallum_motion_pilot,2023.2.2,MacIntel,60.14675809,5ea6da5ad773ee03ba8cefc5,65d2b6c8f2eece985d8e374c,65d2b9b100976ea58a307501,0.1141,0.1143,1,59,221,136,1,fivesix,,,,,,,,,,,,,,,,,,,,,,,,,,,,,,,,,,,,,,,,,,,,,,,,,,,,,,,,,,,,,,,,,,,,,,,,,,,,,,,,,,,,,,,,,,,,,,,,,,,,,,,,,,,,,,,,,,,,,,,,,,,,,,,,,,,,,,,,,
,,5ea6da5ad773ee03ba8cefc5,2024-02-18_23h22.31.419,kallum_motion_pilot,2023.2.2,MacIntel,60.14675809,5ea6da5ad773ee03ba8cefc5,65d2b6c8f2eece985d8e374c,65d2b9b100976ea58a307501,0.1144,0.1145,1,60,222,117,1,seveneight,,,,,,,,,,,,,,,,,,,,,,,,,,,,,,,,,,,,,,,,,,,,,,,,,,,,,,,,,,,,,,,,,,,,,,,,,,,,,,,,,,,,,,,,,,,,,,,,,,,,,,,,,,,,,,,,,,,,,,,,,,,,,,,,,,,,,,,,,
,,5ea6da5ad773ee03ba8cefc5,2024-02-18_23h22.31.419,kallum_motion_pilot,2023.2.2,MacIntel,60.14675809,5ea6da5ad773ee03ba8cefc5,65d2b6c8f2eece985d8e374c,65d2b9b100976ea58a307501,0.1148,0.1149,1,61,223,37,1,threefour,,,,,,,,,,,,,,,,,,,,,,,,,,,,,,,,,,,,,,,,,,,,,,,,,,,,,,,,,,,,,,,,,,,,,,,,,,,,,,,,,,,,,,,,,,,,,,,,,,,,,,,,,,,,,,,,,,,,,,,,,,,,,,,,,,,,,,,,,
,,5ea6da5ad773ee03ba8cefc5,2024-02-18_23h22.31.419,kallum_motion_pilot,2023.2.2,MacIntel,60.14675809,5ea6da5ad773ee03ba8cefc5,65d2b6c8f2eece985d8e374c,65d2b9b100976ea58a307501,0.1151,0.1153,1,62,224,131,1,sixeight,,,,,,,,,,,,,,,,,,,,,,,,,,,,,,,,,,,,,,,,,,,,,,,,,,,,,,,,,,,,,,,,,,,,,,,,,,,,,,,,,,,,,,,,,,,,,,,,,,,,,,,,,,,,,,,,,,,,,,,,,,,,,,,,,,,,,,,,,
,,5ea6da5ad773ee03ba8cefc5,2024-02-18_23h22.31.419,kallum_motion_pilot,2023.2.2,MacIntel,60.14675809,5ea6da5ad773ee03ba8cefc5,65d2b6c8f2eece985d8e374c,65d2b9b100976ea58a307501,0.1155,0.1155,1,63,225,79,1,eightseven,,,,,,,,,,,,,,,,,,,,,,,,,,,,,,,,,,,,,,,,,,,,,,,,,,,,,,,,,,,,,,,,,,,,,,,,,,,,,,,,,,,,,,,,,,,,,,,,,,,,,,,,,,,,,,,,,,,,,,,,,,,,,,,,,,,,,,,,,
,,5ea6da5ad773ee03ba8cefc5,2024-02-18_23h22.31.419,kallum_motion_pilot,2023.2.2,MacIntel,60.14675809,5ea6da5ad773ee03ba8cefc5,65d2b6c8f2eece985d8e374c,65d2b9b100976ea58a307501,0.1157,0.1159,1,64,226,26,1,twoone,,,,,,,,,,,,,,,,,,,,,,,,,,,,,,,,,,,,,,,,,,,,,,,,,,,,,,,,,,,,,,,,,,,,,,,,,,,,,,,,,,,,,,,,,,,,,,,,,,,,,,,,,,,,,,,,,,,,,,,,,,,,,,,,,,,,,,,,,
,,5ea6da5ad773ee03ba8cefc5,2024-02-18_23h22.31.419,kallum_motion_pilot,2023.2.2,MacIntel,60.14675809,5ea6da5ad773ee03ba8cefc5,65d2b6c8f2eece985d8e374c,65d2b9b100976ea58a307501,0.1161,0.1163,1,65,227,0,1,onetwo,,,,,,,,,,,,,,,,,,,,,,,,,,,,,,,,,,,,,,,,,,,,,,,,,,,,,,,,,,,,,,,,,,,,,,,,,,,,,,,,,,,,,,,,,,,,,,,,,,,,,,,,,,,,,,,,,,,,,,,,,,,,,,,,,,,,,,,,,
,,5ea6da5ad773ee03ba8cefc5,2024-02-18_23h22.31.419,kallum_motion_pilot,2023.2.2,MacIntel,60.14675809,5ea6da5ad773ee03ba8cefc5,65d2b6c8f2eece985d8e374c,65d2b9b100976ea58a307501,0.1164,0.1166,1,66,228,56,1,onetwo,,,,,,,,,,,,,,,,,,,,,,,,,,,,,,,,,,,,,,,,,,,,,,,,,,,,,,,,,,,,,,,,,,,,,,,,,,,,,,,,,,,,,,,,,,,,,,,,,,,,,,,,,,,,,,,,,,,,,,,,,,,,,,,,,,,,,,,,,
,,5ea6da5ad773ee03ba8cefc5,2024-02-18_23h22.31.419,kallum_motion_pilot,2023.2.2,MacIntel,60.14675809,5ea6da5ad773ee03ba8cefc5,65d2b6c8f2eece985d8e374c,65d2b9b100976ea58a307501,0.1168,0.1169,1,67,229,118,1,eightsix,,,,,,,,,,,,,,,,,,,,,,,,,,,,,,,,,,,,,,,,,,,,,,,,,,,,,,,,,,,,,,,,,,,,,,,,,,,,,,,,,,,,,,,,,,,,,,,,,,,,,,,,,,,,,,,,,,,,,,,,,,,,,,,,,,,,,,,,,
,,5ea6da5ad773ee03ba8cefc5,2024-02-18_23h22.31.419,kallum_motion_pilot,2023.2.2,MacIntel,60.14675809,5ea6da5ad773ee03ba8cefc5,65d2b6c8f2eece985d8e374c,65d2b9b100976ea58a307501,0.1171,0.1173,1,68,230,16,1,onetwo,,,,,,,,,,,,,,,,,,,,,,,,,,,,,,,,,,,,,,,,,,,,,,,,,,,,,,,,,,,,,,,,,,,,,,,,,,,,,,,,,,,,,,,,,,,,,,,,,,,,,,,,,,,,,,,,,,,,,,,,,,,,,,,,,,,,,,,,,
,,5ea6da5ad773ee03ba8cefc5,2024-02-18_23h22.31.419,kallum_motion_pilot,2023.2.2,MacIntel,60.14675809,5ea6da5ad773ee03ba8cefc5,65d2b6c8f2eece985d8e374c,65d2b9b100976ea58a307501,0.1176,0.1178,1,69,231,113,1,fiveseven,,,,,,,,,,,,,,,,,,,,,,,,,,,,,,,,,,,,,,,,,,,,,,,,,,,,,,,,,,,,,,,,,,,,,,,,,,,,,,,,,,,,,,,,,,,,,,,,,,,,,,,,,,,,,,,,,,,,,,,,,,,,,,,,,,,,,,,,,
,,5ea6da5ad773ee03ba8cefc5,2024-02-18_23h22.31.419,kallum_motion_pilot,2023.2.2,MacIntel,60.14675809,5ea6da5ad773ee03ba8cefc5,65d2b6c8f2eece985d8e374c,65d2b9b100976ea58a307501,0.118,0.1182,1,70,232,141,1,seveneight,,,,,,,,,,,,,,,,,,,,,,,,,,,,,,,,,,,,,,,,,,,,,,,,,,,,,,,,,,,,,,,,,,,,,,,,,,,,,,,,,,,,,,,,,,,,,,,,,,,,,,,,,,,,,,,,,,,,,,,,,,,,,,,,,,,,,,,,,
,,5ea6da5ad773ee03ba8cefc5,2024-02-18_23h22.31.419,kallum_motion_pilot,2023.2.2,MacIntel,60.14675809,5ea6da5ad773ee03ba8cefc5,65d2b6c8f2eece985d8e374c,65d2b9b100976ea58a307501,0.1184,0.1186,1,71,233,38,1,fourtwo,,,,,,,,,,,,,,,,,,,,,,,,,,,,,,,,,,,,,,,,,,,,,,,,,,,,,,,,,,,,,,,,,,,,,,,,,,,,,,,,,,,,,,,,,,,,,,,,,,,,,,,,,,,,,,,,,,,,,,,,,,,,,,,,,,,,,,,,,
,,5ea6da5ad773ee03ba8cefc5,2024-02-18_23h22.31.419,kallum_motion_pilot,2023.2.2,MacIntel,60.14675809,5ea6da5ad773ee03ba8cefc5,65d2b6c8f2eece985d8e374c,65d2b9b100976ea58a307501,0.1188,0.1189,1,72,234,45,1,threefour,,,,,,,,,,,,,,,,,,,,,,,,,,,,,,,,,,,,,,,,,,,,,,,,,,,,,,,,,,,,,,,,,,,,,,,,,,,,,,,,,,,,,,,,,,,,,,,,,,,,,,,,,,,,,,,,,,,,,,,,,,,,,,,,,,,,,,,,,
,,5ea6da5ad773ee03ba8cefc5,2024-02-18_23h22.31.419,kallum_motion_pilot,2023.2.2,MacIntel,60.14675809,5ea6da5ad773ee03ba8cefc5,65d2b6c8f2eece985d8e374c,65d2b9b100976ea58a307501,0.1192,0.1194,1,73,235,17,1,onethree,,,,,,,,,,,,,,,,,,,,,,,,,,,,,,,,,,,,,,,,,,,,,,,,,,,,,,,,,,,,,,,,,,,,,,,,,,,,,,,,,,,,,,,,,,,,,,,,,,,,,,,,,,,,,,,,,,,,,,,,,,,,,,,,,,,,,,,,,
,,5ea6da5ad773ee03ba8cefc5,2024-02-18_23h22.31.419,kallum_motion_pilot,2023.2.2,MacIntel,60.14675809,5ea6da5ad773ee03ba8cefc5,65d2b6c8f2eece985d8e374c,65d2b9b100976ea58a307501,0.1196,0.1198,1,74,236,100,1,sevenfive,,,,,,,,,,,,,,,,,,,,,,,,,,,,,,,,,,,,,,,,,,,,,,,,,,,,,,,,,,,,,,,,,,,,,,,,,,,,,,,,,,,,,,,,,,,,,,,,,,,,,,,,,,,,,,,,,,,,,,,,,,,,,,,,,,,,,,,,,
,,5ea6da5ad773ee03ba8cefc5,2024-02-18_23h22.31.419,kallum_motion_pilot,2023.2.2,MacIntel,60.14675809,5ea6da5ad773ee03ba8cefc5,65d2b6c8f2eece985d8e374c,65d2b9b100976ea58a307501,0.1199,0.1201,1,75,237,65,1,onethree,,,,,,,,,,,,,,,,,,,,,,,,,,,,,,,,,,,,,,,,,,,,,,,,,,,,,,,,,,,,,,,,,,,,,,,,,,,,,,,,,,,,,,,,,,,,,,,,,,,,,,,,,,,,,,,,,,,,,,,,,,,,,,,,,,,,,,,,,
,,5ea6da5ad773ee03ba8cefc5,2024-02-18_23h22.31.419,kallum_motion_pilot,2023.2.2,MacIntel,60.14675809,5ea6da5ad773ee03ba8cefc5,65d2b6c8f2eece985d8e374c,65d2b9b100976ea58a307501,0.1202,0.1204,1,76,238,140,1,sevenfive,,,,,,,,,,,,,,,,,,,,,,,,,,,,,,,,,,,,,,,,,,,,,,,,,,,,,,,,,,,,,,,,,,,,,,,,,,,,,,,,,,,,,,,,,,,,,,,,,,,,,,,,,,,,,,,,,,,,,,,,,,,,,,,,,,,,,,,,,
,,5ea6da5ad773ee03ba8cefc5,2024-02-18_23h22.31.419,kallum_motion_pilot,2023.2.2,MacIntel,60.14675809,5ea6da5ad773ee03ba8cefc5,65d2b6c8f2eece985d8e374c,65d2b9b100976ea58a307501,0.1206,0.1208,1,77,239,82,1,sixfive,,,,,,,,,,,,,,,,,,,,,,,,,,,,,,,,,,,,,,,,,,,,,,,,,,,,,,,,,,,,,,,,,,,,,,,,,,,,,,,,,,,,,,,,,,,,,,,,,,,,,,,,,,,,,,,,,,,,,,,,,,,,,,,,,,,,,,,,,
,,5ea6da5ad773ee03ba8cefc5,2024-02-18_23h22.31.419,kallum_motion_pilot,2023.2.2,MacIntel,60.14675809,5ea6da5ad773ee03ba8cefc5,65d2b6c8f2eece985d8e374c,65d2b9b100976ea58a307501,0.121,0.1211,1,78,240,10,1,twoone,,,,,,,,,,,,,,,,,,,,,,,,,,,,,,,,,,,,,,,,,,,,,,,,,,,,,,,,,,,,,,,,,,,,,,,,,,,,,,,,,,,,,,,,,,,,,,,,,,,,,,,,,,,,,,,,,,,,,,,,,,,,,,,,,,,,,,,,,
,,5ea6da5ad773ee03ba8cefc5,2024-02-18_23h22.31.419,kallum_motion_pilot,2023.2.2,MacIntel,60.14675809,5ea6da5ad773ee03ba8cefc5,65d2b6c8f2eece985d8e374c,65d2b9b100976ea58a307501,0.1213,0.1214,1,79,241,133,1,seveneight,,,,,,,,,,,,,,,,,,,,,,,,,,,,,,,,,,,,,,,,,,,,,,,,,,,,,,,,,,,,,,,,,,,,,,,,,,,,,,,,,,,,,,,,,,,,,,,,,,,,,,,,,,,,,,,,,,,,,,,,,,,,,,,,,,,,,,,,,
,,5ea6da5ad773ee03ba8cefc5,2024-02-18_23h22.31.419,kallum_motion_pilot,2023.2.2,MacIntel,60.14675809,5ea6da5ad773ee03ba8cefc5,65d2b6c8f2eece985d8e374c,65d2b9b100976ea58a307501,0.1216,0.1218,1,80,242,32,1,onetwo,,,,,,,,,,,,,,,,,,,,,,,,,,,,,,,,,,,,,,,,,,,,,,,,,,,,,,,,,,,,,,,,,,,,,,,,,,,,,,,,,,,,,,,,,,,,,,,,,,,,,,,,,,,,,,,,,,,,,,,,,,,,,,,,,,,,,,,,,
,,5ea6da5ad773ee03ba8cefc5,2024-02-18_23h22.31.419,kallum_motion_pilot,2023.2.2,MacIntel,60.14675809,5ea6da5ad773ee03ba8cefc5,65d2b6c8f2eece985d8e374c,65d2b9b100976ea58a307501,0.122,0.1221,1,81,243,49,1,onethree,,,,,,,,,,,,,,,,,,,,,,,,,,,,,,,,,,,,,,,,,,,,,,,,,,,,,,,,,,,,,,,,,,,,,,,,,,,,,,,,,,,,,,,,,,,,,,,,,,,,,,,,,,,,,,,,,,,,,,,,,,,,,,,,,,,,,,,,,
,,5ea6da5ad773ee03ba8cefc5,2024-02-18_23h22.31.419,kallum_motion_pilot,2023.2.2,MacIntel,60.14675809,5ea6da5ad773ee03ba8cefc5,65d2b6c8f2eece985d8e374c,65d2b9b100976ea58a307501,0.1223,0.1225,1,82,244,55,1,fourthree,,,,,,,,,,,,,,,,,,,,,,,,,,,,,,,,,,,,,,,,,,,,,,,,,,,,,,,,,,,,,,,,,,,,,,,,,,,,,,,,,,,,,,,,,,,,,,,,,,,,,,,,,,,,,,,,,,,,,,,,,,,,,,,,,,,,,,,,,
,,5ea6da5ad773ee03ba8cefc5,2024-02-18_23h22.31.419,kallum_motion_pilot,2023.2.2,MacIntel,60.14675809,5ea6da5ad773ee03ba8cefc5,65d2b6c8f2eece985d8e374c,65d2b9b100976ea58a307501,0.1226,0.1228,1,83,245,119,1,eightseven,,,,,,,,,,,,,,,,,,,,,,,,,,,,,,,,,,,,,,,,,,,,,,,,,,,,,,,,,,,,,,,,,,,,,,,,,,,,,,,,,,,,,,,,,,,,,,,,,,,,,,,,,,,,,,,,,,,,,,,,,,,,,,,,,,,,,,,,,
,,5ea6da5ad773ee03ba8cefc5,2024-02-18_23h22.31.419,kallum_motion_pilot,2023.2.2,MacIntel,60.14675809,5ea6da5ad773ee03ba8cefc5,65d2b6c8f2eece985d8e374c,65d2b9b100976ea58a307501,0.1229,0.123,1,84,246,84,1,sevenfive,,,,,,,,,,,,,,,,,,,,,,,,,,,,,,,,,,,,,,,,,,,,,,,,,,,,,,,,,,,,,,,,,,,,,,,,,,,,,,,,,,,,,,,,,,,,,,,,,,,,,,,,,,,,,,,,,,,,,,,,,,,,,,,,,,,,,,,,,
,,5ea6da5ad773ee03ba8cefc5,2024-02-18_23h22.31.419,kallum_motion_pilot,2023.2.2,MacIntel,60.14675809,5ea6da5ad773ee03ba8cefc5,65d2b6c8f2eece985d8e374c,65d2b9b100976ea58a307501,0.1232,0.1234,1,85,247,158,1,eightsix,,,,,,,,,,,,,,,,,,,,,,,,,,,,,,,,,,,,,,,,,,,,,,,,,,,,,,,,,,,,,,,,,,,,,,,,,,,,,,,,,,,,,,,,,,,,,,,,,,,,,,,,,,,,,,,,,,,,,,,,,,,,,,,,,,,,,,,,,
,,5ea6da5ad773ee03ba8cefc5,2024-02-18_23h22.31.419,kallum_motion_pilot,2023.2.2,MacIntel,60.14675809,5ea6da5ad773ee03ba8cefc5,65d2b6c8f2eece985d8e374c,65d2b9b100976ea58a307501,0.1236,0.1237,1,86,248,81,1,fiveseven,,,,,,,,,,,,,,,,,,,,,,,,,,,,,,,,,,,,,,,,,,,,,,,,,,,,,,,,,,,,,,,,,,,,,,,,,,,,,,,,,,,,,,,,,,,,,,,,,,,,,,,,,,,,,,,,,,,,,,,,,,,,,,,,,,,,,,,,,
,,5ea6da5ad773ee03ba8cefc5,2024-02-18_23h22.31.419,kallum_motion_pilot,2023.2.2,MacIntel,60.14675809,5ea6da5ad773ee03ba8cefc5,65d2b6c8f2eece985d8e374c,65d2b9b100976ea58a307501,0.1239,0.124,1,87,249,139,1,sixeight,,,,,,,,,,,,,,,,,,,,,,,,,,,,,,,,,,,,,,,,,,,,,,,,,,,,,,,,,,,,,,,,,,,,,,,,,,,,,,,,,,,,,,,,,,,,,,,,,,,,,,,,,,,,,,,,,,,,,,,,,,,,,,,,,,,,,,,,,
,,5ea6da5ad773ee03ba8cefc5,2024-02-18_23h22.31.419,kallum_motion_pilot,2023.2.2,MacIntel,60.14675809,5ea6da5ad773ee03ba8cefc5,65d2b6c8f2eece985d8e374c,65d2b9b100976ea58a307501,0.1242,0.1244,1,88,250,30,1,fourtwo,,,,,,,,,,,,,,,,,,,,,,,,,,,,,,,,,,,,,,,,,,,,,,,,,,,,,,,,,,,,,,,,,,,,,,,,,,,,,,,,,,,,,,,,,,,,,,,,,,,,,,,,,,,,,,,,,,,,,,,,,,,,,,,,,,,,,,,,,
,,5ea6da5ad773ee03ba8cefc5,2024-02-18_23h22.31.419,kallum_motion_pilot,2023.2.2,MacIntel,60.14675809,5ea6da5ad773ee03ba8cefc5,65d2b6c8f2eece985d8e374c,65d2b9b100976ea58a307501,0.1245,0.1247,1,89,251,95,1,eightseven,,,,,,,,,,,,,,,,,,,,,,,,,,,,,,,,,,,,,,,,,,,,,,,,,,,,,,,,,,,,,,,,,,,,,,,,,,,,,,,,,,,,,,,,,,,,,,,,,,,,,,,,,,,,,,,,,,,,,,,,,,,,,,,,,,,,,,,,,
,,5ea6da5ad773ee03ba8cefc5,2024-02-18_23h22.31.419,kallum_motion_pilot,2023.2.2,MacIntel,60.14675809,5ea6da5ad773ee03ba8cefc5,65d2b6c8f2eece985d8e374c,65d2b9b100976ea58a307501,0.1249,0.1252,1,90,252,128,1,fivesix,,,,,,,,,,,,,,,,,,,,,,,,,,,,,,,,,,,,,,,,,,,,,,,,,,,,,,,,,,,,,,,,,,,,,,,,,,,,,,,,,,,,,,,,,,,,,,,,,,,,,,,,,,,,,,,,,,,,,,,,,,,,,,,,,,,,,,,,,
,,5ea6da5ad773ee03ba8cefc5,2024-02-18_23h22.31.419,kallum_motion_pilot,2023.2.2,MacIntel,60.14675809,5ea6da5ad773ee03ba8cefc5,65d2b6c8f2eece985d8e374c,65d2b9b100976ea58a307501,0.1253,0.1254,1,91,253,111,1,eightseven,,,,,,,,,,,,,,,,,,,,,,,,,,,,,,,,,,,,,,,,,,,,,,,,,,,,,,,,,,,,,,,,,,,,,,,,,,,,,,,,,,,,,,,,,,,,,,,,,,,,,,,,,,,,,,,,,,,,,,,,,,,,,,,,,,,,,,,,,
,,5ea6da5ad773ee03ba8cefc5,2024-02-18_23h22.31.419,kallum_motion_pilot,2023.2.2,MacIntel,60.14675809,5ea6da5ad773ee03ba8cefc5,65d2b6c8f2eece985d8e374c,65d2b9b100976ea58a307501,0.1256,0.1258,1,92,254,148,1,sevenfive,,,,,,,,,,,,,,,,,,,,,,,,,,,,,,,,,,,,,,,,,,,,,,,,,,,,,,,,,,,,,,,,,,,,,,,,,,,,,,,,,,,,,,,,,,,,,,,,,,,,,,,,,,,,,,,,,,,,,,,,,,,,,,,,,,,,,,,,,
,,5ea6da5ad773ee03ba8cefc5,2024-02-18_23h22.31.419,kallum_motion_pilot,2023.2.2,MacIntel,60.14675809,5ea6da5ad773ee03ba8cefc5,65d2b6c8f2eece985d8e374c,65d2b9b100976ea58a307501,0.126,0.1261,1,93,255,89,1,fiveseven,,,,,,,,,,,,,,,,,,,,,,,,,,,,,,,,,,,,,,,,,,,,,,,,,,,,,,,,,,,,,,,,,,,,,,,,,,,,,,,,,,,,,,,,,,,,,,,,,,,,,,,,,,,,,,,,,,,,,,,,,,,,,,,,,,,,,,,,,
,,5ea6da5ad773ee03ba8cefc5,2024-02-18_23h22.31.419,kallum_motion_pilot,2023.2.2,MacIntel,60.14675809,5ea6da5ad773ee03ba8cefc5,65d2b6c8f2eece985d8e374c,65d2b9b100976ea58a307501,0.1263,0.1264,1,94,256,154,1,sixfive,,,,,,,,,,,,,,,,,,,,,,,,,,,,,,,,,,,,,,,,,,,,,,,,,,,,,,,,,,,,,,,,,,,,,,,,,,,,,,,,,,,,,,,,,,,,,,,,,,,,,,,,,,,,,,,,,,,,,,,,,,,,,,,,,,,,,,,,,
,,5ea6da5ad773ee03ba8cefc5,2024-02-18_23h22.31.419,kallum_motion_pilot,2023.2.2,MacIntel,60.14675809,5ea6da5ad773ee03ba8cefc5,65d2b6c8f2eece985d8e374c,65d2b9b100976ea58a307501,0.1266,0.1267,1,95,257,11,1,twofour,,,,,,,,,,,,,,,,,,,,,,,,,,,,,,,,,,,,,,,,,,,,,,,,,,,,,,,,,,,,,,,,,,,,,,,,,,,,,,,,,,,,,,,,,,,,,,,,,,,,,,,,,,,,,,,,,,,,,,,,,,,,,,,,,,,,,,,,,
,,5ea6da5ad773ee03ba8cefc5,2024-02-18_23h22.31.419,kallum_motion_pilot,2023.2.2,MacIntel,60.14675809,5ea6da5ad773ee03ba8cefc5,65d2b6c8f2eece985d8e374c,65d2b9b100976ea58a307501,0.1269,0.127,1,96,258,99,1,sixeight,,,,,,,,,,,,,,,,,,,,,,,,,,,,,,,,,,,,,,,,,,,,,,,,,,,,,,,,,,,,,,,,,,,,,,,,,,,,,,,,,,,,,,,,,,,,,,,,,,,,,,,,,,,,,,,,,,,,,,,,,,,,,,,,,,,,,,,,,
,,5ea6da5ad773ee03ba8cefc5,2024-02-18_23h22.31.419,kallum_motion_pilot,2023.2.2,MacIntel,60.14675809,5ea6da5ad773ee03ba8cefc5,65d2b6c8f2eece985d8e374c,65d2b9b100976ea58a307501,0.1272,0.1274,1,97,259,106,1,sixfive,,,,,,,,,,,,,,,,,,,,,,,,,,,,,,,,,,,,,,,,,,,,,,,,,,,,,,,,,,,,,,,,,,,,,,,,,,,,,,,,,,,,,,,,,,,,,,,,,,,,,,,,,,,,,,,,,,,,,,,,,,,,,,,,,,,,,,,,,
,,5ea6da5ad773ee03ba8cefc5,2024-02-18_23h22.31.419,kallum_motion_pilot,2023.2.2,MacIntel,60.14675809,5ea6da5ad773ee03ba8cefc5,65d2b6c8f2eece985d8e374c,65d2b9b100976ea58a307501,0.1275,0.1276,1,98,260,51,1,twofour,,,,,,,,,,,,,,,,,,,,,,,,,,,,,,,,,,,,,,,,,,,,,,,,,,,,,,,,,,,,,,,,,,,,,,,,,,,,,,,,,,,,,,,,,,,,,,,,,,,,,,,,,,,,,,,,,,,,,,,,,,,,,,,,,,,,,,,,,
,,5ea6da5ad773ee03ba8cefc5,2024-02-18_23h22.31.419,kallum_motion_pilot,2023.2.2,MacIntel,60.14675809,5ea6da5ad773ee03ba8cefc5,65d2b6c8f2eece985d8e374c,65d2b9b100976ea58a307501,0.1278,0.128,1,99,261,31,1,fourthree,,,,,,,,,,,,,,,,,,,,,,,,,,,,,,,,,,,,,,,,,,,,,,,,,,,,,,,,,,,,,,,,,,,,,,,,,,,,,,,,,,,,,,,,,,,,,,,,,,,,,,,,,,,,,,,,,,,,,,,,,,,,,,,,,,,,,,,,,
,,5ea6da5ad773ee03ba8cefc5,2024-02-18_23h22.31.419,kallum_motion_pilot,2023.2.2,MacIntel,60.14675809,5ea6da5ad773ee03ba8cefc5,65d2b6c8f2eece985d8e374c,65d2b9b100976ea58a307501,0.1281,0.1283,1,100,262,46,1,fourtwo,,,,,,,,,,,,,,,,,,,,,,,,,,,,,,,,,,,,,,,,,,,,,,,,,,,,,,,,,,,,,,,,,,,,,,,,,,,,,,,,,,,,,,,,,,,,,,,,,,,,,,,,,,,,,,,,,,,,,,,,,,,,,,,,,,,,,,,,,
,,5ea6da5ad773ee03ba8cefc5,2024-02-18_23h22.31.419,kallum_motion_pilot,2023.2.2,MacIntel,60.14675809,5ea6da5ad773ee03ba8cefc5,65d2b6c8f2eece985d8e374c,65d2b9b100976ea58a307501,0.1284,0.1286,1,101,263,143,1,eightseven,,,,,,,,,,,,,,,,,,,,,,,,,,,,,,,,,,,,,,,,,,,,,,,,,,,,,,,,,,,,,,,,,,,,,,,,,,,,,,,,,,,,,,,,,,,,,,,,,,,,,,,,,,,,,,,,,,,,,,,,,,,,,,,,,,,,,,,,,
,,5ea6da5ad773ee03ba8cefc5,2024-02-18_23h22.31.419,kallum_motion_pilot,2023.2.2,MacIntel,60.14675809,5ea6da5ad773ee03ba8cefc5,65d2b6c8f2eece985d8e374c,65d2b9b100976ea58a307501,0.1288,0.129,1,102,264,63,1,fourthree,,,,,,,,,,,,,,,,,,,,,,,,,,,,,,,,,,,,,,,,,,,,,,,,,,,,,,,,,,,,,,,,,,,,,,,,,,,,,,,,,,,,,,,,,,,,,,,,,,,,,,,,,,,,,,,,,,,,,,,,,,,,,,,,,,,,,,,,,
,,5ea6da5ad773ee03ba8cefc5,2024-02-18_23h22.31.419,kallum_motion_pilot,2023.2.2,MacIntel,60.14675809,5ea6da5ad773ee03ba8cefc5,65d2b6c8f2eece985d8e374c,65d2b9b100976ea58a307501,0.1291,0.1293,1,103,265,20,1,threeone,,,,,,,,,,,,,,,,,,,,,,,,,,,,,,,,,,,,,,,,,,,,,,,,,,,,,,,,,,,,,,,,,,,,,,,,,,,,,,,,,,,,,,,,,,,,,,,,,,,,,,,,,,,,,,,,,,,,,,,,,,,,,,,,,,,,,,,,,
,,5ea6da5ad773ee03ba8cefc5,2024-02-18_23h22.31.419,kallum_motion_pilot,2023.2.2,MacIntel,60.14675809,5ea6da5ad773ee03ba8cefc5,65d2b6c8f2eece985d8e374c,65d2b9b100976ea58a307501,0.1294,0.1296,1,104,266,122,1,sixfive,,,,,,,,,,,,,,,,,,,,,,,,,,,,,,,,,,,,,,,,,,,,,,,,,,,,,,,,,,,,,,,,,,,,,,,,,,,,,,,,,,,,,,,,,,,,,,,,,,,,,,,,,,,,,,,,,,,,,,,,,,,,,,,,,,,,,,,,,
,,5ea6da5ad773ee03ba8cefc5,2024-02-18_23h22.31.419,kallum_motion_pilot,2023.2.2,MacIntel,60.14675809,5ea6da5ad773ee03ba8cefc5,65d2b6c8f2eece985d8e374c,65d2b9b100976ea58a307501,0.1298,0.1299,1,105,267,54,1,fourtwo,,,,,,,,,,,,,,,,,,,,,,,,,,,,,,,,,,,,,,,,,,,,,,,,,,,,,,,,,,,,,,,,,,,,,,,,,,,,,,,,,,,,,,,,,,,,,,,,,,,,,,,,,,,,,,,,,,,,,,,,,,,,,,,,,,,,,,,,,
,,5ea6da5ad773ee03ba8cefc5,2024-02-18_23h22.31.419,kallum_motion_pilot,2023.2.2,MacIntel,60.14675809,5ea6da5ad773ee03ba8cefc5,65d2b6c8f2eece985d8e374c,65d2b9b100976ea58a307501,0.1301,0.1303,1,106,268,147,1,sixeight,,,,,,,,,,,,,,,,,,,,,,,,,,,,,,,,,,,,,,,,,,,,,,,,,,,,,,,,,,,,,,,,,,,,,,,,,,,,,,,,,,,,,,,,,,,,,,,,,,,,,,,,,,,,,,,,,,,,,,,,,,,,,,,,,,,,,,,,,
,,5ea6da5ad773ee03ba8cefc5,2024-02-18_23h22.31.419,kallum_motion_pilot,2023.2.2,MacIntel,60.14675809,5ea6da5ad773ee03ba8cefc5,65d2b6c8f2eece985d8e374c,65d2b9b100976ea58a307501,0.1304,0.1306,1,107,269,19,1,twofour,,,,,,,,,,,,,,,,,,,,,,,,,,,,,,,,,,,,,,,,,,,,,,,,,,,,,,,,,,,,,,,,,,,,,,,,,,,,,,,,,,,,,,,,,,,,,,,,,,,,,,,,,,,,,,,,,,,,,,,,,,,,,,,,,,,,,,,,,
,,5ea6da5ad773ee03ba8cefc5,2024-02-18_23h22.31.419,kallum_motion_pilot,2023.2.2,MacIntel,60.14675809,5ea6da5ad773ee03ba8cefc5,65d2b6c8f2eece985d8e374c,65d2b9b100976ea58a307501,0.1309,0.131,1,108,270,155,1,sixeight,,,,,,,,,,,,,,,,,,,,,,,,,,,,,,,,,,,,,,,,,,,,,,,,,,,,,,,,,,,,,,,,,,,,,,,,,,,,,,,,,,,,,,,,,,,,,,,,,,,,,,,,,,,,,,,,,,,,,,,,,,,,,,,,,,,,,,,,,
,,5ea6da5ad773ee03ba8cefc5,2024-02-18_23h22.31.419,kallum_motion_pilot,2023.2.2,MacIntel,60.14675809,5ea6da5ad773ee03ba8cefc5,65d2b6c8f2eece985d8e374c,65d2b9b100976ea58a307501,0.1312,0.1314,1,109,271,47,1,fourthree,,,,,,,,,,,,,,,,,,,,,,,,,,,,,,,,,,,,,,,,,,,,,,,,,,,,,,,,,,,,,,,,,,,,,,,,,,,,,,,,,,,,,,,,,,,,,,,,,,,,,,,,,,,,,,,,,,,,,,,,,,,,,,,,,,,,,,,,,
,,5ea6da5ad773ee03ba8cefc5,2024-02-18_23h22.31.419,kallum_motion_pilot,2023.2.2,MacIntel,60.14675809,5ea6da5ad773ee03ba8cefc5,65d2b6c8f2eece985d8e374c,65d2b9b100976ea58a307501,0.1316,0.1317,1,110,272,132,1,sevenfive,,,,,,,,,,,,,,,,,,,,,,,,,,,,,,,,,,,,,,,,,,,,,,,,,,,,,,,,,,,,,,,,,,,,,,,,,,,,,,,,,,,,,,,,,,,,,,,,,,,,,,,,,,,,,,,,,,,,,,,,,,,,,,,,,,,,,,,,,
,,5ea6da5ad773ee03ba8cefc5,2024-02-18_23h22.31.419,kallum_motion_pilot,2023.2.2,MacIntel,60.14675809,5ea6da5ad773ee03ba8cefc5,65d2b6c8f2eece985d8e374c,65d2b9b100976ea58a307501,0.1319,0.132,1,111,273,129,1,fiveseven,,,,,,,,,,,,,,,,,,,,,,,,,,,,,,,,,,,,,,,,,,,,,,,,,,,,,,,,,,,,,,,,,,,,,,,,,,,,,,,,,,,,,,,,,,,,,,,,,,,,,,,,,,,,,,,,,,,,,,,,,,,,,,,,,,,,,,,,,
,,5ea6da5ad773ee03ba8cefc5,2024-02-18_23h22.31.419,kallum_motion_pilot,2023.2.2,MacIntel,60.14675809,5ea6da5ad773ee03ba8cefc5,65d2b6c8f2eece985d8e374c,65d2b9b100976ea58a307501,0.1322,0.1323,1,112,274,64,1,onetwo,,,,,,,,,,,,,,,,,,,,,,,,,,,,,,,,,,,,,,,,,,,,,,,,,,,,,,,,,,,,,,,,,,,,,,,,,,,,,,,,,,,,,,,,,,,,,,,,,,,,,,,,,,,,,,,,,,,,,,,,,,,,,,,,,,,,,,,,,
,,5ea6da5ad773ee03ba8cefc5,2024-02-18_23h22.31.419,kallum_motion_pilot,2023.2.2,MacIntel,60.14675809,5ea6da5ad773ee03ba8cefc5,65d2b6c8f2eece985d8e374c,65d2b9b100976ea58a307501,0.1325,0.1327,1,113,275,24,1,onetwo,,,,,,,,,,,,,,,,,,,,,,,,,,,,,,,,,,,,,,,,,,,,,,,,,,,,,,,,,,,,,,,,,,,,,,,,,,,,,,,,,,,,,,,,,,,,,,,,,,,,,,,,,,,,,,,,,,,,,,,,,,,,,,,,,,,,,,,,,
