startup.started,startup.stopped,Prolific ID*,date,expName,psychopyVersion,OS,frameRate,participant,study_id,session,stimpositions.started,stimpositions.stopped,hardcoded_stimulus_positions.thisRepN,hardcoded_stimulus_positions.thisTrialN,hardcoded_stimulus_positions.thisN,hardcoded_stimulus_positions.thisIndex,hardcoded_stimulus_positions.ran,StimulusPos,stimorientation.started,stimorientation.stopped,prac_stimorientation_import_loop.thisRepN,prac_stimorientation_import_loop.thisTrialN,prac_stimorientation_import_loop.thisN,prac_stimorientation_import_loop.thisIndex,prac_stimorientation_import_loop.ran,Stimorientation,welcome_instr.started,welcome_instr.stopped,key_resp.keys,key_resp.rt,key_resp.duration,response_steppedout_1.started,response_steppedout_1.stopped,key_resp_20.keys,key_resp_20.rt,key_resp_20.duration,response_steppedout_2.started,response_steppedout_2.stopped,key_resp_19.keys,key_resp_19.rt,key_resp_19.duration,stim_response_instr.started,stim_response_instr.stopped,key_resp_15.keys,key_resp_15.rt,key_resp_15.duration,direction_instr_2.started,direction_instr_2.stopped,key_resp_9.keys,key_resp_9.rt,key_resp_9.duration,instr_prac.started,instr_prac.stopped,key_resp_10.keys,key_resp_10.rt,key_resp_10.duration,Stim1_display_prac.started,Stim1_display_prac.stopped,Ecc,Circle1_ori,Circle2_ori,response_prac.started,similarity,response_time,response_prac.stopped,mouse_5.x,mouse_5.y,mouse_5.leftButton,mouse_5.midButton,mouse_5.rightButton,mouse_5.clicked_name,responseprac_feedback.started,responseprac_feedback.stopped,summary2_prac.started,summary2_prac.stopped,mouse_6.x,mouse_6.y,mouse_6.leftButton,mouse_6.midButton,mouse_6.rightButton,mouse_6.clicked_name,duringprac.thisRepN,duringprac.thisTrialN,duringprac.thisN,duringprac.thisIndex,duringprac.ran,begin.started,begin.stopped,key_resp_22.keys,key_resp_22.rt,key_resp_22.duration,Stim1_display.started,Stim1_display.stopped,circle1_ori,circle2_ori,circle1_SF,circle2_SF,response.started,response.stopped,mouse.x,mouse.y,mouse.leftButton,mouse.midButton,mouse.rightButton,mouse.clicked_name,trialnumber,double_pass.thisRepN,double_pass.thisTrialN,double_pass.thisN,double_pass.thisIndex,double_pass.ran,double_pass.order,main_trial.thisRepN,main_trial.thisTrialN,main_trial.thisN,main_trial.thisIndex,main_trial.ran,main_trial.order,Trial_Counter,Catch,Frequencies,response_2.started,response_2.stopped,mouse_2.x,mouse_2.y,mouse_2.leftButton,mouse_2.midButton,mouse_2.rightButton,mouse_2.clicked_name,special_trial.started,special_trial.stopped,catch_1.started,catch_1.stopped,mouse_3.x,mouse_3.y,mouse_3.leftButton,mouse_3.midButton,mouse_3.rightButton,catchresponse,catchnumber,response_time_catch,response_sum.started,response_sum.stopped,mouse_11.x,mouse_11.y,mouse_11.leftButton,mouse_11.midButton,mouse_11.rightButton,flip_presentation_sequence_for_double_pass.started,flip_presentation_sequence_for_double_pass.stopped,goodbye.started,goodbye.stopped,key_resp_3.keys,key_resp_3.rt,key_resp_3.duration
0.0005,0.0006,5ea8e847aa2fbb34d8331747,2024-02-19_02h08.15.878,kallum_motion_pilot,2023.2.2,Win32,60.60606061,5ea8e847aa2fbb34d8331747,65d2b6c8f2eece985d8e374c,65d2b802e3f907e4ffc059eb,,,,,,,,,,,,,,,,,,,,,,,,,,,,,,,,,,,,,,,,,,,,,,,,,,,,,,,,,,,,,,,,,,,,,,,,,,,,,,,,,,,,,,,,,,,,,,,,,,,,,,,,,,,,,,,,,,,,,,,,,,,,,,,,,,,,,,,,,,,,,,,,,
,,5ea8e847aa2fbb34d8331747,2024-02-19_02h08.15.878,kallum_motion_pilot,2023.2.2,Win32,60.60606061,5ea8e847aa2fbb34d8331747,65d2b6c8f2eece985d8e374c,65d2b802e3f907e4ffc059eb,0.0246,0.0248,0,0,0,144,1,fivesix,,,,,,,,,,,,,,,,,,,,,,,,,,,,,,,,,,,,,,,,,,,,,,,,,,,,,,,,,,,,,,,,,,,,,,,,,,,,,,,,,,,,,,,,,,,,,,,,,,,,,,,,,,,,,,,,,,,,,,,,,,,,,,,,,,,,,,,,,
,,5ea8e847aa2fbb34d8331747,2024-02-19_02h08.15.878,kallum_motion_pilot,2023.2.2,Win32,60.60606061,5ea8e847aa2fbb34d8331747,65d2b6c8f2eece985d8e374c,65d2b802e3f907e4ffc059eb,0.0251,0.0251,0,1,1,81,1,fiveseven,,,,,,,,,,,,,,,,,,,,,,,,,,,,,,,,,,,,,,,,,,,,,,,,,,,,,,,,,,,,,,,,,,,,,,,,,,,,,,,,,,,,,,,,,,,,,,,,,,,,,,,,,,,,,,,,,,,,,,,,,,,,,,,,,,,,,,,,,
,,5ea8e847aa2fbb34d8331747,2024-02-19_02h08.15.878,kallum_motion_pilot,2023.2.2,Win32,60.60606061,5ea8e847aa2fbb34d8331747,65d2b6c8f2eece985d8e374c,65d2b802e3f907e4ffc059eb,0.0253,0.0254,0,2,2,128,1,fivesix,,,,,,,,,,,,,,,,,,,,,,,,,,,,,,,,,,,,,,,,,,,,,,,,,,,,,,,,,,,,,,,,,,,,,,,,,,,,,,,,,,,,,,,,,,,,,,,,,,,,,,,,,,,,,,,,,,,,,,,,,,,,,,,,,,,,,,,,,
,,5ea8e847aa2fbb34d8331747,2024-02-19_02h08.15.878,kallum_motion_pilot,2023.2.2,Win32,60.60606061,5ea8e847aa2fbb34d8331747,65d2b6c8f2eece985d8e374c,65d2b802e3f907e4ffc059eb,0.0255,0.0255,0,3,3,137,1,fiveseven,,,,,,,,,,,,,,,,,,,,,,,,,,,,,,,,,,,,,,,,,,,,,,,,,,,,,,,,,,,,,,,,,,,,,,,,,,,,,,,,,,,,,,,,,,,,,,,,,,,,,,,,,,,,,,,,,,,,,,,,,,,,,,,,,,,,,,,,,
,,5ea8e847aa2fbb34d8331747,2024-02-19_02h08.15.878,kallum_motion_pilot,2023.2.2,Win32,60.60606061,5ea8e847aa2fbb34d8331747,65d2b6c8f2eece985d8e374c,65d2b802e3f907e4ffc059eb,0.0257,0.0258,0,4,4,115,1,sixeight,,,,,,,,,,,,,,,,,,,,,,,,,,,,,,,,,,,,,,,,,,,,,,,,,,,,,,,,,,,,,,,,,,,,,,,,,,,,,,,,,,,,,,,,,,,,,,,,,,,,,,,,,,,,,,,,,,,,,,,,,,,,,,,,,,,,,,,,,
,,5ea8e847aa2fbb34d8331747,2024-02-19_02h08.15.878,kallum_motion_pilot,2023.2.2,Win32,60.60606061,5ea8e847aa2fbb34d8331747,65d2b6c8f2eece985d8e374c,65d2b802e3f907e4ffc059eb,0.0259,0.0259,0,5,5,36,1,threeone,,,,,,,,,,,,,,,,,,,,,,,,,,,,,,,,,,,,,,,,,,,,,,,,,,,,,,,,,,,,,,,,,,,,,,,,,,,,,,,,,,,,,,,,,,,,,,,,,,,,,,,,,,,,,,,,,,,,,,,,,,,,,,,,,,,,,,,,,
,,5ea8e847aa2fbb34d8331747,2024-02-19_02h08.15.878,kallum_motion_pilot,2023.2.2,Win32,60.60606061,5ea8e847aa2fbb34d8331747,65d2b6c8f2eece985d8e374c,65d2b802e3f907e4ffc059eb,0.026,0.0261,0,6,6,47,1,fourthree,,,,,,,,,,,,,,,,,,,,,,,,,,,,,,,,,,,,,,,,,,,,,,,,,,,,,,,,,,,,,,,,,,,,,,,,,,,,,,,,,,,,,,,,,,,,,,,,,,,,,,,,,,,,,,,,,,,,,,,,,,,,,,,,,,,,,,,,,
,,5ea8e847aa2fbb34d8331747,2024-02-19_02h08.15.878,kallum_motion_pilot,2023.2.2,Win32,60.60606061,5ea8e847aa2fbb34d8331747,65d2b6c8f2eece985d8e374c,65d2b802e3f907e4ffc059eb,0.0262,0.0262,0,7,7,32,1,onetwo,,,,,,,,,,,,,,,,,,,,,,,,,,,,,,,,,,,,,,,,,,,,,,,,,,,,,,,,,,,,,,,,,,,,,,,,,,,,,,,,,,,,,,,,,,,,,,,,,,,,,,,,,,,,,,,,,,,,,,,,,,,,,,,,,,,,,,,,,
,,5ea8e847aa2fbb34d8331747,2024-02-19_02h08.15.878,kallum_motion_pilot,2023.2.2,Win32,60.60606061,5ea8e847aa2fbb34d8331747,65d2b6c8f2eece985d8e374c,65d2b802e3f907e4ffc059eb,0.0266,0.0267,0,8,8,149,1,seveneight,,,,,,,,,,,,,,,,,,,,,,,,,,,,,,,,,,,,,,,,,,,,,,,,,,,,,,,,,,,,,,,,,,,,,,,,,,,,,,,,,,,,,,,,,,,,,,,,,,,,,,,,,,,,,,,,,,,,,,,,,,,,,,,,,,,,,,,,,
,,5ea8e847aa2fbb34d8331747,2024-02-19_02h08.15.878,kallum_motion_pilot,2023.2.2,Win32,60.60606061,5ea8e847aa2fbb34d8331747,65d2b6c8f2eece985d8e374c,65d2b802e3f907e4ffc059eb,0.0268,0.0269,0,9,9,60,1,threeone,,,,,,,,,,,,,,,,,,,,,,,,,,,,,,,,,,,,,,,,,,,,,,,,,,,,,,,,,,,,,,,,,,,,,,,,,,,,,,,,,,,,,,,,,,,,,,,,,,,,,,,,,,,,,,,,,,,,,,,,,,,,,,,,,,,,,,,,,
,,5ea8e847aa2fbb34d8331747,2024-02-19_02h08.15.878,kallum_motion_pilot,2023.2.2,Win32,60.60606061,5ea8e847aa2fbb34d8331747,65d2b6c8f2eece985d8e374c,65d2b802e3f907e4ffc059eb,0.027,0.027,0,10,10,76,1,threeone,,,,,,,,,,,,,,,,,,,,,,,,,,,,,,,,,,,,,,,,,,,,,,,,,,,,,,,,,,,,,,,,,,,,,,,,,,,,,,,,,,,,,,,,,,,,,,,,,,,,,,,,,,,,,,,,,,,,,,,,,,,,,,,,,,,,,,,,,
,,5ea8e847aa2fbb34d8331747,2024-02-19_02h08.15.878,kallum_motion_pilot,2023.2.2,Win32,60.60606061,5ea8e847aa2fbb34d8331747,65d2b6c8f2eece985d8e374c,65d2b802e3f907e4ffc059eb,0.0272,0.0272,0,11,11,129,1,fiveseven,,,,,,,,,,,,,,,,,,,,,,,,,,,,,,,,,,,,,,,,,,,,,,,,,,,,,,,,,,,,,,,,,,,,,,,,,,,,,,,,,,,,,,,,,,,,,,,,,,,,,,,,,,,,,,,,,,,,,,,,,,,,,,,,,,,,,,,,,
,,5ea8e847aa2fbb34d8331747,2024-02-19_02h08.15.878,kallum_motion_pilot,2023.2.2,Win32,60.60606061,5ea8e847aa2fbb34d8331747,65d2b6c8f2eece985d8e374c,65d2b802e3f907e4ffc059eb,0.0273,0.0273,0,12,12,66,1,twoone,,,,,,,,,,,,,,,,,,,,,,,,,,,,,,,,,,,,,,,,,,,,,,,,,,,,,,,,,,,,,,,,,,,,,,,,,,,,,,,,,,,,,,,,,,,,,,,,,,,,,,,,,,,,,,,,,,,,,,,,,,,,,,,,,,,,,,,,,
,,5ea8e847aa2fbb34d8331747,2024-02-19_02h08.15.878,kallum_motion_pilot,2023.2.2,Win32,60.60606061,5ea8e847aa2fbb34d8331747,65d2b6c8f2eece985d8e374c,65d2b802e3f907e4ffc059eb,0.0274,0.0275,0,13,13,37,1,threefour,,,,,,,,,,,,,,,,,,,,,,,,,,,,,,,,,,,,,,,,,,,,,,,,,,,,,,,,,,,,,,,,,,,,,,,,,,,,,,,,,,,,,,,,,,,,,,,,,,,,,,,,,,,,,,,,,,,,,,,,,,,,,,,,,,,,,,,,,
,,5ea8e847aa2fbb34d8331747,2024-02-19_02h08.15.878,kallum_motion_pilot,2023.2.2,Win32,60.60606061,5ea8e847aa2fbb34d8331747,65d2b6c8f2eece985d8e374c,65d2b802e3f907e4ffc059eb,0.0277,0.0277,0,14,14,148,1,sevenfive,,,,,,,,,,,,,,,,,,,,,,,,,,,,,,,,,,,,,,,,,,,,,,,,,,,,,,,,,,,,,,,,,,,,,,,,,,,,,,,,,,,,,,,,,,,,,,,,,,,,,,,,,,,,,,,,,,,,,,,,,,,,,,,,,,,,,,,,,
,,5ea8e847aa2fbb34d8331747,2024-02-19_02h08.15.878,kallum_motion_pilot,2023.2.2,Win32,60.60606061,5ea8e847aa2fbb34d8331747,65d2b6c8f2eece985d8e374c,65d2b802e3f907e4ffc059eb,0.0278,0.0278,0,15,15,123,1,sixeight,,,,,,,,,,,,,,,,,,,,,,,,,,,,,,,,,,,,,,,,,,,,,,,,,,,,,,,,,,,,,,,,,,,,,,,,,,,,,,,,,,,,,,,,,,,,,,,,,,,,,,,,,,,,,,,,,,,,,,,,,,,,,,,,,,,,,,,,,
,,5ea8e847aa2fbb34d8331747,2024-02-19_02h08.15.878,kallum_motion_pilot,2023.2.2,Win32,60.60606061,5ea8e847aa2fbb34d8331747,65d2b6c8f2eece985d8e374c,65d2b802e3f907e4ffc059eb,0.0279,0.028,0,16,16,57,1,onethree,,,,,,,,,,,,,,,,,,,,,,,,,,,,,,,,,,,,,,,,,,,,,,,,,,,,,,,,,,,,,,,,,,,,,,,,,,,,,,,,,,,,,,,,,,,,,,,,,,,,,,,,,,,,,,,,,,,,,,,,,,,,,,,,,,,,,,,,,
,,5ea8e847aa2fbb34d8331747,2024-02-19_02h08.15.878,kallum_motion_pilot,2023.2.2,Win32,60.60606061,5ea8e847aa2fbb34d8331747,65d2b6c8f2eece985d8e374c,65d2b802e3f907e4ffc059eb,0.0281,0.0282,0,17,17,42,1,twoone,,,,,,,,,,,,,,,,,,,,,,,,,,,,,,,,,,,,,,,,,,,,,,,,,,,,,,,,,,,,,,,,,,,,,,,,,,,,,,,,,,,,,,,,,,,,,,,,,,,,,,,,,,,,,,,,,,,,,,,,,,,,,,,,,,,,,,,,,
,,5ea8e847aa2fbb34d8331747,2024-02-19_02h08.15.878,kallum_motion_pilot,2023.2.2,Win32,60.60606061,5ea8e847aa2fbb34d8331747,65d2b6c8f2eece985d8e374c,65d2b802e3f907e4ffc059eb,0.0282,0.0283,0,18,18,23,1,fourthree,,,,,,,,,,,,,,,,,,,,,,,,,,,,,,,,,,,,,,,,,,,,,,,,,,,,,,,,,,,,,,,,,,,,,,,,,,,,,,,,,,,,,,,,,,,,,,,,,,,,,,,,,,,,,,,,,,,,,,,,,,,,,,,,,,,,,,,,,
,,5ea8e847aa2fbb34d8331747,2024-02-19_02h08.15.878,kallum_motion_pilot,2023.2.2,Win32,60.60606061,5ea8e847aa2fbb34d8331747,65d2b6c8f2eece985d8e374c,65d2b802e3f907e4ffc059eb,0.0284,0.0284,0,19,19,118,1,eightsix,,,,,,,,,,,,,,,,,,,,,,,,,,,,,,,,,,,,,,,,,,,,,,,,,,,,,,,,,,,,,,,,,,,,,,,,,,,,,,,,,,,,,,,,,,,,,,,,,,,,,,,,,,,,,,,,,,,,,,,,,,,,,,,,,,,,,,,,,
,,5ea8e847aa2fbb34d8331747,2024-02-19_02h08.15.878,kallum_motion_pilot,2023.2.2,Win32,60.60606061,5ea8e847aa2fbb34d8331747,65d2b6c8f2eece985d8e374c,65d2b802e3f907e4ffc059eb,0.0285,0.0285,0,20,20,106,1,sixfive,,,,,,,,,,,,,,,,,,,,,,,,,,,,,,,,,,,,,,,,,,,,,,,,,,,,,,,,,,,,,,,,,,,,,,,,,,,,,,,,,,,,,,,,,,,,,,,,,,,,,,,,,,,,,,,,,,,,,,,,,,,,,,,,,,,,,,,,,
,,5ea8e847aa2fbb34d8331747,2024-02-19_02h08.15.878,kallum_motion_pilot,2023.2.2,Win32,60.60606061,5ea8e847aa2fbb34d8331747,65d2b6c8f2eece985d8e374c,65d2b802e3f907e4ffc059eb,0.0287,0.0287,0,21,21,26,1,twoone,,,,,,,,,,,,,,,,,,,,,,,,,,,,,,,,,,,,,,,,,,,,,,,,,,,,,,,,,,,,,,,,,,,,,,,,,,,,,,,,,,,,,,,,,,,,,,,,,,,,,,,,,,,,,,,,,,,,,,,,,,,,,,,,,,,,,,,,,
,,5ea8e847aa2fbb34d8331747,2024-02-19_02h08.15.878,kallum_motion_pilot,2023.2.2,Win32,60.60606061,5ea8e847aa2fbb34d8331747,65d2b6c8f2eece985d8e374c,65d2b802e3f907e4ffc059eb,0.0288,0.0288,0,22,22,29,1,threefour,,,,,,,,,,,,,,,,,,,,,,,,,,,,,,,,,,,,,,,,,,,,,,,,,,,,,,,,,,,,,,,,,,,,,,,,,,,,,,,,,,,,,,,,,,,,,,,,,,,,,,,,,,,,,,,,,,,,,,,,,,,,,,,,,,,,,,,,,
,,5ea8e847aa2fbb34d8331747,2024-02-19_02h08.15.878,kallum_motion_pilot,2023.2.2,Win32,60.60606061,5ea8e847aa2fbb34d8331747,65d2b6c8f2eece985d8e374c,65d2b802e3f907e4ffc059eb,0.0289,0.029,0,23,23,152,1,fivesix,,,,,,,,,,,,,,,,,,,,,,,,,,,,,,,,,,,,,,,,,,,,,,,,,,,,,,,,,,,,,,,,,,,,,,,,,,,,,,,,,,,,,,,,,,,,,,,,,,,,,,,,,,,,,,,,,,,,,,,,,,,,,,,,,,,,,,,,,
,,5ea8e847aa2fbb34d8331747,2024-02-19_02h08.15.878,kallum_motion_pilot,2023.2.2,Win32,60.60606061,5ea8e847aa2fbb34d8331747,65d2b6c8f2eece985d8e374c,65d2b802e3f907e4ffc059eb,0.0291,0.0291,0,24,24,87,1,eightseven,,,,,,,,,,,,,,,,,,,,,,,,,,,,,,,,,,,,,,,,,,,,,,,,,,,,,,,,,,,,,,,,,,,,,,,,,,,,,,,,,,,,,,,,,,,,,,,,,,,,,,,,,,,,,,,,,,,,,,,,,,,,,,,,,,,,,,,,,
,,5ea8e847aa2fbb34d8331747,2024-02-19_02h08.15.878,kallum_motion_pilot,2023.2.2,Win32,60.60606061,5ea8e847aa2fbb34d8331747,65d2b6c8f2eece985d8e374c,65d2b802e3f907e4ffc059eb,0.0294,0.0294,0,25,25,50,1,twoone,,,,,,,,,,,,,,,,,,,,,,,,,,,,,,,,,,,,,,,,,,,,,,,,,,,,,,,,,,,,,,,,,,,,,,,,,,,,,,,,,,,,,,,,,,,,,,,,,,,,,,,,,,,,,,,,,,,,,,,,,,,,,,,,,,,,,,,,,
,,5ea8e847aa2fbb34d8331747,2024-02-19_02h08.15.878,kallum_motion_pilot,2023.2.2,Win32,60.60606061,5ea8e847aa2fbb34d8331747,65d2b6c8f2eece985d8e374c,65d2b802e3f907e4ffc059eb,0.0295,0.0295,0,26,26,28,1,threeone,,,,,,,,,,,,,,,,,,,,,,,,,,,,,,,,,,,,,,,,,,,,,,,,,,,,,,,,,,,,,,,,,,,,,,,,,,,,,,,,,,,,,,,,,,,,,,,,,,,,,,,,,,,,,,,,,,,,,,,,,,,,,,,,,,,,,,,,,
,,5ea8e847aa2fbb34d8331747,2024-02-19_02h08.15.878,kallum_motion_pilot,2023.2.2,Win32,60.60606061,5ea8e847aa2fbb34d8331747,65d2b6c8f2eece985d8e374c,65d2b802e3f907e4ffc059eb,0.0296,0.0296,0,27,27,40,1,onetwo,,,,,,,,,,,,,,,,,,,,,,,,,,,,,,,,,,,,,,,,,,,,,,,,,,,,,,,,,,,,,,,,,,,,,,,,,,,,,,,,,,,,,,,,,,,,,,,,,,,,,,,,,,,,,,,,,,,,,,,,,,,,,,,,,,,,,,,,,
,,5ea8e847aa2fbb34d8331747,2024-02-19_02h08.15.878,kallum_motion_pilot,2023.2.2,Win32,60.60606061,5ea8e847aa2fbb34d8331747,65d2b6c8f2eece985d8e374c,65d2b802e3f907e4ffc059eb,0.0297,0.0297,0,28,28,124,1,sevenfive,,,,,,,,,,,,,,,,,,,,,,,,,,,,,,,,,,,,,,,,,,,,,,,,,,,,,,,,,,,,,,,,,,,,,,,,,,,,,,,,,,,,,,,,,,,,,,,,,,,,,,,,,,,,,,,,,,,,,,,,,,,,,,,,,,,,,,,,,
,,5ea8e847aa2fbb34d8331747,2024-02-19_02h08.15.878,kallum_motion_pilot,2023.2.2,Win32,60.60606061,5ea8e847aa2fbb34d8331747,65d2b6c8f2eece985d8e374c,65d2b802e3f907e4ffc059eb,0.0298,0.0298,0,29,29,84,1,sevenfive,,,,,,,,,,,,,,,,,,,,,,,,,,,,,,,,,,,,,,,,,,,,,,,,,,,,,,,,,,,,,,,,,,,,,,,,,,,,,,,,,,,,,,,,,,,,,,,,,,,,,,,,,,,,,,,,,,,,,,,,,,,,,,,,,,,,,,,,,
,,5ea8e847aa2fbb34d8331747,2024-02-19_02h08.15.878,kallum_motion_pilot,2023.2.2,Win32,60.60606061,5ea8e847aa2fbb34d8331747,65d2b6c8f2eece985d8e374c,65d2b802e3f907e4ffc059eb,0.03,0.03,0,30,30,15,1,fourthree,,,,,,,,,,,,,,,,,,,,,,,,,,,,,,,,,,,,,,,,,,,,,,,,,,,,,,,,,,,,,,,,,,,,,,,,,,,,,,,,,,,,,,,,,,,,,,,,,,,,,,,,,,,,,,,,,,,,,,,,,,,,,,,,,,,,,,,,,
,,5ea8e847aa2fbb34d8331747,2024-02-19_02h08.15.878,kallum_motion_pilot,2023.2.2,Win32,60.60606061,5ea8e847aa2fbb34d8331747,65d2b6c8f2eece985d8e374c,65d2b802e3f907e4ffc059eb,0.0302,0.0302,0,31,31,25,1,onethree,,,,,,,,,,,,,,,,,,,,,,,,,,,,,,,,,,,,,,,,,,,,,,,,,,,,,,,,,,,,,,,,,,,,,,,,,,,,,,,,,,,,,,,,,,,,,,,,,,,,,,,,,,,,,,,,,,,,,,,,,,,,,,,,,,,,,,,,,
,,5ea8e847aa2fbb34d8331747,2024-02-19_02h08.15.878,kallum_motion_pilot,2023.2.2,Win32,60.60606061,5ea8e847aa2fbb34d8331747,65d2b6c8f2eece985d8e374c,65d2b802e3f907e4ffc059eb,0.0304,0.0304,0,32,32,117,1,seveneight,,,,,,,,,,,,,,,,,,,,,,,,,,,,,,,,,,,,,,,,,,,,,,,,,,,,,,,,,,,,,,,,,,,,,,,,,,,,,,,,,,,,,,,,,,,,,,,,,,,,,,,,,,,,,,,,,,,,,,,,,,,,,,,,,,,,,,,,,
,,5ea8e847aa2fbb34d8331747,2024-02-19_02h08.15.878,kallum_motion_pilot,2023.2.2,Win32,60.60606061,5ea8e847aa2fbb34d8331747,65d2b6c8f2eece985d8e374c,65d2b802e3f907e4ffc059eb,0.0305,0.0305,0,33,33,126,1,eightsix,,,,,,,,,,,,,,,,,,,,,,,,,,,,,,,,,,,,,,,,,,,,,,,,,,,,,,,,,,,,,,,,,,,,,,,,,,,,,,,,,,,,,,,,,,,,,,,,,,,,,,,,,,,,,,,,,,,,,,,,,,,,,,,,,,,,,,,,,
,,5ea8e847aa2fbb34d8331747,2024-02-19_02h08.15.878,kallum_motion_pilot,2023.2.2,Win32,60.60606061,5ea8e847aa2fbb34d8331747,65d2b6c8f2eece985d8e374c,65d2b802e3f907e4ffc059eb,0.0306,0.0306,0,34,34,127,1,eightseven,,,,,,,,,,,,,,,,,,,,,,,,,,,,,,,,,,,,,,,,,,,,,,,,,,,,,,,,,,,,,,,,,,,,,,,,,,,,,,,,,,,,,,,,,,,,,,,,,,,,,,,,,,,,,,,,,,,,,,,,,,,,,,,,,,,,,,,,,
,,5ea8e847aa2fbb34d8331747,2024-02-19_02h08.15.878,kallum_motion_pilot,2023.2.2,Win32,60.60606061,5ea8e847aa2fbb34d8331747,65d2b6c8f2eece985d8e374c,65d2b802e3f907e4ffc059eb,0.0307,0.0308,0,35,35,88,1,fivesix,,,,,,,,,,,,,,,,,,,,,,,,,,,,,,,,,,,,,,,,,,,,,,,,,,,,,,,,,,,,,,,,,,,,,,,,,,,,,,,,,,,,,,,,,,,,,,,,,,,,,,,,,,,,,,,,,,,,,,,,,,,,,,,,,,,,,,,,,
,,5ea8e847aa2fbb34d8331747,2024-02-19_02h08.15.878,kallum_motion_pilot,2023.2.2,Win32,60.60606061,5ea8e847aa2fbb34d8331747,65d2b6c8f2eece985d8e374c,65d2b802e3f907e4ffc059eb,0.0308,0.0308,0,36,36,89,1,fiveseven,,,,,,,,,,,,,,,,,,,,,,,,,,,,,,,,,,,,,,,,,,,,,,,,,,,,,,,,,,,,,,,,,,,,,,,,,,,,,,,,,,,,,,,,,,,,,,,,,,,,,,,,,,,,,,,,,,,,,,,,,,,,,,,,,,,,,,,,,
,,5ea8e847aa2fbb34d8331747,2024-02-19_02h08.15.878,kallum_motion_pilot,2023.2.2,Win32,60.60606061,5ea8e847aa2fbb34d8331747,65d2b6c8f2eece985d8e374c,65d2b802e3f907e4ffc059eb,0.031,0.031,0,37,37,80,1,fivesix,,,,,,,,,,,,,,,,,,,,,,,,,,,,,,,,,,,,,,,,,,,,,,,,,,,,,,,,,,,,,,,,,,,,,,,,,,,,,,,,,,,,,,,,,,,,,,,,,,,,,,,,,,,,,,,,,,,,,,,,,,,,,,,,,,,,,,,,,
,,5ea8e847aa2fbb34d8331747,2024-02-19_02h08.15.878,kallum_motion_pilot,2023.2.2,Win32,60.60606061,5ea8e847aa2fbb34d8331747,65d2b6c8f2eece985d8e374c,65d2b802e3f907e4ffc059eb,0.0311,0.0312,0,38,38,8,1,onetwo,,,,,,,,,,,,,,,,,,,,,,,,,,,,,,,,,,,,,,,,,,,,,,,,,,,,,,,,,,,,,,,,,,,,,,,,,,,,,,,,,,,,,,,,,,,,,,,,,,,,,,,,,,,,,,,,,,,,,,,,,,,,,,,,,,,,,,,,,
,,5ea8e847aa2fbb34d8331747,2024-02-19_02h08.15.878,kallum_motion_pilot,2023.2.2,Win32,60.60606061,5ea8e847aa2fbb34d8331747,65d2b6c8f2eece985d8e374c,65d2b802e3f907e4ffc059eb,0.0313,0.0313,0,39,39,67,1,twofour,,,,,,,,,,,,,,,,,,,,,,,,,,,,,,,,,,,,,,,,,,,,,,,,,,,,,,,,,,,,,,,,,,,,,,,,,,,,,,,,,,,,,,,,,,,,,,,,,,,,,,,,,,,,,,,,,,,,,,,,,,,,,,,,,,,,,,,,,
,,5ea8e847aa2fbb34d8331747,2024-02-19_02h08.15.878,kallum_motion_pilot,2023.2.2,Win32,60.60606061,5ea8e847aa2fbb34d8331747,65d2b6c8f2eece985d8e374c,65d2b802e3f907e4ffc059eb,0.0314,0.0314,0,40,40,86,1,eightsix,,,,,,,,,,,,,,,,,,,,,,,,,,,,,,,,,,,,,,,,,,,,,,,,,,,,,,,,,,,,,,,,,,,,,,,,,,,,,,,,,,,,,,,,,,,,,,,,,,,,,,,,,,,,,,,,,,,,,,,,,,,,,,,,,,,,,,,,,
,,5ea8e847aa2fbb34d8331747,2024-02-19_02h08.15.878,kallum_motion_pilot,2023.2.2,Win32,60.60606061,5ea8e847aa2fbb34d8331747,65d2b6c8f2eece985d8e374c,65d2b802e3f907e4ffc059eb,0.0315,0.0316,0,41,41,19,1,twofour,,,,,,,,,,,,,,,,,,,,,,,,,,,,,,,,,,,,,,,,,,,,,,,,,,,,,,,,,,,,,,,,,,,,,,,,,,,,,,,,,,,,,,,,,,,,,,,,,,,,,,,,,,,,,,,,,,,,,,,,,,,,,,,,,,,,,,,,,
,,5ea8e847aa2fbb34d8331747,2024-02-19_02h08.15.878,kallum_motion_pilot,2023.2.2,Win32,60.60606061,5ea8e847aa2fbb34d8331747,65d2b6c8f2eece985d8e374c,65d2b802e3f907e4ffc059eb,0.0317,0.0317,0,42,42,150,1,eightsix,,,,,,,,,,,,,,,,,,,,,,,,,,,,,,,,,,,,,,,,,,,,,,,,,,,,,,,,,,,,,,,,,,,,,,,,,,,,,,,,,,,,,,,,,,,,,,,,,,,,,,,,,,,,,,,,,,,,,,,,,,,,,,,,,,,,,,,,,
,,5ea8e847aa2fbb34d8331747,2024-02-19_02h08.15.878,kallum_motion_pilot,2023.2.2,Win32,60.60606061,5ea8e847aa2fbb34d8331747,65d2b6c8f2eece985d8e374c,65d2b802e3f907e4ffc059eb,0.0317,0.0317,0,43,43,107,1,sixeight,,,,,,,,,,,,,,,,,,,,,,,,,,,,,,,,,,,,,,,,,,,,,,,,,,,,,,,,,,,,,,,,,,,,,,,,,,,,,,,,,,,,,,,,,,,,,,,,,,,,,,,,,,,,,,,,,,,,,,,,,,,,,,,,,,,,,,,,,
,,5ea8e847aa2fbb34d8331747,2024-02-19_02h08.15.878,kallum_motion_pilot,2023.2.2,Win32,60.60606061,5ea8e847aa2fbb34d8331747,65d2b6c8f2eece985d8e374c,65d2b802e3f907e4ffc059eb,0.0319,0.0319,0,44,44,72,1,onetwo,,,,,,,,,,,,,,,,,,,,,,,,,,,,,,,,,,,,,,,,,,,,,,,,,,,,,,,,,,,,,,,,,,,,,,,,,,,,,,,,,,,,,,,,,,,,,,,,,,,,,,,,,,,,,,,,,,,,,,,,,,,,,,,,,,,,,,,,,
,,5ea8e847aa2fbb34d8331747,2024-02-19_02h08.15.878,kallum_motion_pilot,2023.2.2,Win32,60.60606061,5ea8e847aa2fbb34d8331747,65d2b6c8f2eece985d8e374c,65d2b802e3f907e4ffc059eb,0.032,0.032,0,45,45,48,1,onetwo,,,,,,,,,,,,,,,,,,,,,,,,,,,,,,,,,,,,,,,,,,,,,,,,,,,,,,,,,,,,,,,,,,,,,,,,,,,,,,,,,,,,,,,,,,,,,,,,,,,,,,,,,,,,,,,,,,,,,,,,,,,,,,,,,,,,,,,,,
,,5ea8e847aa2fbb34d8331747,2024-02-19_02h08.15.878,kallum_motion_pilot,2023.2.2,Win32,60.60606061,5ea8e847aa2fbb34d8331747,65d2b6c8f2eece985d8e374c,65d2b802e3f907e4ffc059eb,0.032,0.032,0,46,46,51,1,twofour,,,,,,,,,,,,,,,,,,,,,,,,,,,,,,,,,,,,,,,,,,,,,,,,,,,,,,,,,,,,,,,,,,,,,,,,,,,,,,,,,,,,,,,,,,,,,,,,,,,,,,,,,,,,,,,,,,,,,,,,,,,,,,,,,,,,,,,,,
,,5ea8e847aa2fbb34d8331747,2024-02-19_02h08.15.878,kallum_motion_pilot,2023.2.2,Win32,60.60606061,5ea8e847aa2fbb34d8331747,65d2b6c8f2eece985d8e374c,65d2b802e3f907e4ffc059eb,0.0322,0.0322,0,47,47,58,1,twoone,,,,,,,,,,,,,,,,,,,,,,,,,,,,,,,,,,,,,,,,,,,,,,,,,,,,,,,,,,,,,,,,,,,,,,,,,,,,,,,,,,,,,,,,,,,,,,,,,,,,,,,,,,,,,,,,,,,,,,,,,,,,,,,,,,,,,,,,,
,,5ea8e847aa2fbb34d8331747,2024-02-19_02h08.15.878,kallum_motion_pilot,2023.2.2,Win32,60.60606061,5ea8e847aa2fbb34d8331747,65d2b6c8f2eece985d8e374c,65d2b802e3f907e4ffc059eb,0.0323,0.0323,0,48,48,140,1,sevenfive,,,,,,,,,,,,,,,,,,,,,,,,,,,,,,,,,,,,,,,,,,,,,,,,,,,,,,,,,,,,,,,,,,,,,,,,,,,,,,,,,,,,,,,,,,,,,,,,,,,,,,,,,,,,,,,,,,,,,,,,,,,,,,,,,,,,,,,,,
,,5ea8e847aa2fbb34d8331747,2024-02-19_02h08.15.878,kallum_motion_pilot,2023.2.2,Win32,60.60606061,5ea8e847aa2fbb34d8331747,65d2b6c8f2eece985d8e374c,65d2b802e3f907e4ffc059eb,0.0323,0.0325,0,49,49,70,1,fourtwo,,,,,,,,,,,,,,,,,,,,,,,,,,,,,,,,,,,,,,,,,,,,,,,,,,,,,,,,,,,,,,,,,,,,,,,,,,,,,,,,,,,,,,,,,,,,,,,,,,,,,,,,,,,,,,,,,,,,,,,,,,,,,,,,,,,,,,,,,
,,5ea8e847aa2fbb34d8331747,2024-02-19_02h08.15.878,kallum_motion_pilot,2023.2.2,Win32,60.60606061,5ea8e847aa2fbb34d8331747,65d2b6c8f2eece985d8e374c,65d2b802e3f907e4ffc059eb,0.0325,0.0325,0,50,50,5,1,threefour,,,,,,,,,,,,,,,,,,,,,,,,,,,,,,,,,,,,,,,,,,,,,,,,,,,,,,,,,,,,,,,,,,,,,,,,,,,,,,,,,,,,,,,,,,,,,,,,,,,,,,,,,,,,,,,,,,,,,,,,,,,,,,,,,,,,,,,,,
,,5ea8e847aa2fbb34d8331747,2024-02-19_02h08.15.878,kallum_motion_pilot,2023.2.2,Win32,60.60606061,5ea8e847aa2fbb34d8331747,65d2b6c8f2eece985d8e374c,65d2b802e3f907e4ffc059eb,0.0337,0.0337,0,51,51,27,1,twofour,,,,,,,,,,,,,,,,,,,,,,,,,,,,,,,,,,,,,,,,,,,,,,,,,,,,,,,,,,,,,,,,,,,,,,,,,,,,,,,,,,,,,,,,,,,,,,,,,,,,,,,,,,,,,,,,,,,,,,,,,,,,,,,,,,,,,,,,,
,,5ea8e847aa2fbb34d8331747,2024-02-19_02h08.15.878,kallum_motion_pilot,2023.2.2,Win32,60.60606061,5ea8e847aa2fbb34d8331747,65d2b6c8f2eece985d8e374c,65d2b802e3f907e4ffc059eb,0.0337,0.0337,0,52,52,138,1,sixfive,,,,,,,,,,,,,,,,,,,,,,,,,,,,,,,,,,,,,,,,,,,,,,,,,,,,,,,,,,,,,,,,,,,,,,,,,,,,,,,,,,,,,,,,,,,,,,,,,,,,,,,,,,,,,,,,,,,,,,,,,,,,,,,,,,,,,,,,,
,,5ea8e847aa2fbb34d8331747,2024-02-19_02h08.15.878,kallum_motion_pilot,2023.2.2,Win32,60.60606061,5ea8e847aa2fbb34d8331747,65d2b6c8f2eece985d8e374c,65d2b802e3f907e4ffc059eb,0.0339,0.0339,0,53,53,22,1,fourtwo,,,,,,,,,,,,,,,,,,,,,,,,,,,,,,,,,,,,,,,,,,,,,,,,,,,,,,,,,,,,,,,,,,,,,,,,,,,,,,,,,,,,,,,,,,,,,,,,,,,,,,,,,,,,,,,,,,,,,,,,,,,,,,,,,,,,,,,,,
,,5ea8e847aa2fbb34d8331747,2024-02-19_02h08.15.878,kallum_motion_pilot,2023.2.2,Win32,60.60606061,5ea8e847aa2fbb34d8331747,65d2b6c8f2eece985d8e374c,65d2b802e3f907e4ffc059eb,0.0339,0.034,0,54,54,45,1,threefour,,,,,,,,,,,,,,,,,,,,,,,,,,,,,,,,,,,,,,,,,,,,,,,,,,,,,,,,,,,,,,,,,,,,,,,,,,,,,,,,,,,,,,,,,,,,,,,,,,,,,,,,,,,,,,,,,,,,,,,,,,,,,,,,,,,,,,,,,
,,5ea8e847aa2fbb34d8331747,2024-02-19_02h08.15.878,kallum_motion_pilot,2023.2.2,Win32,60.60606061,5ea8e847aa2fbb34d8331747,65d2b6c8f2eece985d8e374c,65d2b802e3f907e4ffc059eb,0.0341,0.0341,0,55,55,21,1,threefour,,,,,,,,,,,,,,,,,,,,,,,,,,,,,,,,,,,,,,,,,,,,,,,,,,,,,,,,,,,,,,,,,,,,,,,,,,,,,,,,,,,,,,,,,,,,,,,,,,,,,,,,,,,,,,,,,,,,,,,,,,,,,,,,,,,,,,,,,
,,5ea8e847aa2fbb34d8331747,2024-02-19_02h08.15.878,kallum_motion_pilot,2023.2.2,Win32,60.60606061,5ea8e847aa2fbb34d8331747,65d2b6c8f2eece985d8e374c,65d2b802e3f907e4ffc059eb,0.0342,0.0342,0,56,56,11,1,twofour,,,,,,,,,,,,,,,,,,,,,,,,,,,,,,,,,,,,,,,,,,,,,,,,,,,,,,,,,,,,,,,,,,,,,,,,,,,,,,,,,,,,,,,,,,,,,,,,,,,,,,,,,,,,,,,,,,,,,,,,,,,,,,,,,,,,,,,,,
,,5ea8e847aa2fbb34d8331747,2024-02-19_02h08.15.878,kallum_motion_pilot,2023.2.2,Win32,60.60606061,5ea8e847aa2fbb34d8331747,65d2b6c8f2eece985d8e374c,65d2b802e3f907e4ffc059eb,0.0343,0.0343,0,57,57,12,1,threeone,,,,,,,,,,,,,,,,,,,,,,,,,,,,,,,,,,,,,,,,,,,,,,,,,,,,,,,,,,,,,,,,,,,,,,,,,,,,,,,,,,,,,,,,,,,,,,,,,,,,,,,,,,,,,,,,,,,,,,,,,,,,,,,,,,,,,,,,,
,,5ea8e847aa2fbb34d8331747,2024-02-19_02h08.15.878,kallum_motion_pilot,2023.2.2,Win32,60.60606061,5ea8e847aa2fbb34d8331747,65d2b6c8f2eece985d8e374c,65d2b802e3f907e4ffc059eb,0.0345,0.0345,0,58,58,125,1,seveneight,,,,,,,,,,,,,,,,,,,,,,,,,,,,,,,,,,,,,,,,,,,,,,,,,,,,,,,,,,,,,,,,,,,,,,,,,,,,,,,,,,,,,,,,,,,,,,,,,,,,,,,,,,,,,,,,,,,,,,,,,,,,,,,,,,,,,,,,,
,,5ea8e847aa2fbb34d8331747,2024-02-19_02h08.15.878,kallum_motion_pilot,2023.2.2,Win32,60.60606061,5ea8e847aa2fbb34d8331747,65d2b6c8f2eece985d8e374c,65d2b802e3f907e4ffc059eb,0.0346,0.0346,0,59,59,63,1,fourthree,,,,,,,,,,,,,,,,,,,,,,,,,,,,,,,,,,,,,,,,,,,,,,,,,,,,,,,,,,,,,,,,,,,,,,,,,,,,,,,,,,,,,,,,,,,,,,,,,,,,,,,,,,,,,,,,,,,,,,,,,,,,,,,,,,,,,,,,,
,,5ea8e847aa2fbb34d8331747,2024-02-19_02h08.15.878,kallum_motion_pilot,2023.2.2,Win32,60.60606061,5ea8e847aa2fbb34d8331747,65d2b6c8f2eece985d8e374c,65d2b802e3f907e4ffc059eb,0.0347,0.0347,0,60,60,53,1,threefour,,,,,,,,,,,,,,,,,,,,,,,,,,,,,,,,,,,,,,,,,,,,,,,,,,,,,,,,,,,,,,,,,,,,,,,,,,,,,,,,,,,,,,,,,,,,,,,,,,,,,,,,,,,,,,,,,,,,,,,,,,,,,,,,,,,,,,,,,
,,5ea8e847aa2fbb34d8331747,2024-02-19_02h08.15.878,kallum_motion_pilot,2023.2.2,Win32,60.60606061,5ea8e847aa2fbb34d8331747,65d2b6c8f2eece985d8e374c,65d2b802e3f907e4ffc059eb,0.0348,0.0348,0,61,61,1,1,onethree,,,,,,,,,,,,,,,,,,,,,,,,,,,,,,,,,,,,,,,,,,,,,,,,,,,,,,,,,,,,,,,,,,,,,,,,,,,,,,,,,,,,,,,,,,,,,,,,,,,,,,,,,,,,,,,,,,,,,,,,,,,,,,,,,,,,,,,,,
,,5ea8e847aa2fbb34d8331747,2024-02-19_02h08.15.878,kallum_motion_pilot,2023.2.2,Win32,60.60606061,5ea8e847aa2fbb34d8331747,65d2b6c8f2eece985d8e374c,65d2b802e3f907e4ffc059eb,0.035,0.035,0,62,62,103,1,eightseven,,,,,,,,,,,,,,,,,,,,,,,,,,,,,,,,,,,,,,,,,,,,,,,,,,,,,,,,,,,,,,,,,,,,,,,,,,,,,,,,,,,,,,,,,,,,,,,,,,,,,,,,,,,,,,,,,,,,,,,,,,,,,,,,,,,,,,,,,
,,5ea8e847aa2fbb34d8331747,2024-02-19_02h08.15.878,kallum_motion_pilot,2023.2.2,Win32,60.60606061,5ea8e847aa2fbb34d8331747,65d2b6c8f2eece985d8e374c,65d2b802e3f907e4ffc059eb,0.0351,0.0351,0,63,63,143,1,eightseven,,,,,,,,,,,,,,,,,,,,,,,,,,,,,,,,,,,,,,,,,,,,,,,,,,,,,,,,,,,,,,,,,,,,,,,,,,,,,,,,,,,,,,,,,,,,,,,,,,,,,,,,,,,,,,,,,,,,,,,,,,,,,,,,,,,,,,,,,
,,5ea8e847aa2fbb34d8331747,2024-02-19_02h08.15.878,kallum_motion_pilot,2023.2.2,Win32,60.60606061,5ea8e847aa2fbb34d8331747,65d2b6c8f2eece985d8e374c,65d2b802e3f907e4ffc059eb,0.0351,0.0352,0,64,64,160,1,fivesix,,,,,,,,,,,,,,,,,,,,,,,,,,,,,,,,,,,,,,,,,,,,,,,,,,,,,,,,,,,,,,,,,,,,,,,,,,,,,,,,,,,,,,,,,,,,,,,,,,,,,,,,,,,,,,,,,,,,,,,,,,,,,,,,,,,,,,,,,
,,5ea8e847aa2fbb34d8331747,2024-02-19_02h08.15.878,kallum_motion_pilot,2023.2.2,Win32,60.60606061,5ea8e847aa2fbb34d8331747,65d2b6c8f2eece985d8e374c,65d2b802e3f907e4ffc059eb,0.0352,0.0354,0,65,65,105,1,fiveseven,,,,,,,,,,,,,,,,,,,,,,,,,,,,,,,,,,,,,,,,,,,,,,,,,,,,,,,,,,,,,,,,,,,,,,,,,,,,,,,,,,,,,,,,,,,,,,,,,,,,,,,,,,,,,,,,,,,,,,,,,,,,,,,,,,,,,,,,,
,,5ea8e847aa2fbb34d8331747,2024-02-19_02h08.15.878,kallum_motion_pilot,2023.2.2,Win32,60.60606061,5ea8e847aa2fbb34d8331747,65d2b6c8f2eece985d8e374c,65d2b802e3f907e4ffc059eb,0.0354,0.0355,0,66,66,41,1,onethree,,,,,,,,,,,,,,,,,,,,,,,,,,,,,,,,,,,,,,,,,,,,,,,,,,,,,,,,,,,,,,,,,,,,,,,,,,,,,,,,,,,,,,,,,,,,,,,,,,,,,,,,,,,,,,,,,,,,,,,,,,,,,,,,,,,,,,,,,
,,5ea8e847aa2fbb34d8331747,2024-02-19_02h08.15.878,kallum_motion_pilot,2023.2.2,Win32,60.60606061,5ea8e847aa2fbb34d8331747,65d2b6c8f2eece985d8e374c,65d2b802e3f907e4ffc059eb,0.0356,0.0356,0,67,67,18,1,twoone,,,,,,,,,,,,,,,,,,,,,,,,,,,,,,,,,,,,,,,,,,,,,,,,,,,,,,,,,,,,,,,,,,,,,,,,,,,,,,,,,,,,,,,,,,,,,,,,,,,,,,,,,,,,,,,,,,,,,,,,,,,,,,,,,,,,,,,,,
,,5ea8e847aa2fbb34d8331747,2024-02-19_02h08.15.878,kallum_motion_pilot,2023.2.2,Win32,60.60606061,5ea8e847aa2fbb34d8331747,65d2b6c8f2eece985d8e374c,65d2b802e3f907e4ffc059eb,0.0356,0.0357,0,68,68,24,1,onetwo,,,,,,,,,,,,,,,,,,,,,,,,,,,,,,,,,,,,,,,,,,,,,,,,,,,,,,,,,,,,,,,,,,,,,,,,,,,,,,,,,,,,,,,,,,,,,,,,,,,,,,,,,,,,,,,,,,,,,,,,,,,,,,,,,,,,,,,,,
,,5ea8e847aa2fbb34d8331747,2024-02-19_02h08.15.878,kallum_motion_pilot,2023.2.2,Win32,60.60606061,5ea8e847aa2fbb34d8331747,65d2b6c8f2eece985d8e374c,65d2b802e3f907e4ffc059eb,0.0358,0.0358,0,69,69,78,1,fourtwo,,,,,,,,,,,,,,,,,,,,,,,,,,,,,,,,,,,,,,,,,,,,,,,,,,,,,,,,,,,,,,,,,,,,,,,,,,,,,,,,,,,,,,,,,,,,,,,,,,,,,,,,,,,,,,,,,,,,,,,,,,,,,,,,,,,,,,,,,
,,5ea8e847aa2fbb34d8331747,2024-02-19_02h08.15.878,kallum_motion_pilot,2023.2.2,Win32,60.60606061,5ea8e847aa2fbb34d8331747,65d2b6c8f2eece985d8e374c,65d2b802e3f907e4ffc059eb,0.0358,0.0358,0,70,70,130,1,sixfive,,,,,,,,,,,,,,,,,,,,,,,,,,,,,,,,,,,,,,,,,,,,,,,,,,,,,,,,,,,,,,,,,,,,,,,,,,,,,,,,,,,,,,,,,,,,,,,,,,,,,,,,,,,,,,,,,,,,,,,,,,,,,,,,,,,,,,,,,
,,5ea8e847aa2fbb34d8331747,2024-02-19_02h08.15.878,kallum_motion_pilot,2023.2.2,Win32,60.60606061,5ea8e847aa2fbb34d8331747,65d2b6c8f2eece985d8e374c,65d2b802e3f907e4ffc059eb,0.036,0.036,0,71,71,31,1,fourthree,,,,,,,,,,,,,,,,,,,,,,,,,,,,,,,,,,,,,,,,,,,,,,,,,,,,,,,,,,,,,,,,,,,,,,,,,,,,,,,,,,,,,,,,,,,,,,,,,,,,,,,,,,,,,,,,,,,,,,,,,,,,,,,,,,,,,,,,,
,,5ea8e847aa2fbb34d8331747,2024-02-19_02h08.15.878,kallum_motion_pilot,2023.2.2,Win32,60.60606061,5ea8e847aa2fbb34d8331747,65d2b6c8f2eece985d8e374c,65d2b802e3f907e4ffc059eb,0.0361,0.0361,0,72,72,141,1,seveneight,,,,,,,,,,,,,,,,,,,,,,,,,,,,,,,,,,,,,,,,,,,,,,,,,,,,,,,,,,,,,,,,,,,,,,,,,,,,,,,,,,,,,,,,,,,,,,,,,,,,,,,,,,,,,,,,,,,,,,,,,,,,,,,,,,,,,,,,,
,,5ea8e847aa2fbb34d8331747,2024-02-19_02h08.15.878,kallum_motion_pilot,2023.2.2,Win32,60.60606061,5ea8e847aa2fbb34d8331747,65d2b6c8f2eece985d8e374c,65d2b802e3f907e4ffc059eb,0.0363,0.0363,0,73,73,92,1,sevenfive,,,,,,,,,,,,,,,,,,,,,,,,,,,,,,,,,,,,,,,,,,,,,,,,,,,,,,,,,,,,,,,,,,,,,,,,,,,,,,,,,,,,,,,,,,,,,,,,,,,,,,,,,,,,,,,,,,,,,,,,,,,,,,,,,,,,,,,,,
,,5ea8e847aa2fbb34d8331747,2024-02-19_02h08.15.878,kallum_motion_pilot,2023.2.2,Win32,60.60606061,5ea8e847aa2fbb34d8331747,65d2b6c8f2eece985d8e374c,65d2b802e3f907e4ffc059eb,0.0364,0.0364,0,74,74,55,1,fourthree,,,,,,,,,,,,,,,,,,,,,,,,,,,,,,,,,,,,,,,,,,,,,,,,,,,,,,,,,,,,,,,,,,,,,,,,,,,,,,,,,,,,,,,,,,,,,,,,,,,,,,,,,,,,,,,,,,,,,,,,,,,,,,,,,,,,,,,,,
,,5ea8e847aa2fbb34d8331747,2024-02-19_02h08.15.878,kallum_motion_pilot,2023.2.2,Win32,60.60606061,5ea8e847aa2fbb34d8331747,65d2b6c8f2eece985d8e374c,65d2b802e3f907e4ffc059eb,0.0364,0.0365,0,75,75,34,1,twoone,,,,,,,,,,,,,,,,,,,,,,,,,,,,,,,,,,,,,,,,,,,,,,,,,,,,,,,,,,,,,,,,,,,,,,,,,,,,,,,,,,,,,,,,,,,,,,,,,,,,,,,,,,,,,,,,,,,,,,,,,,,,,,,,,,,,,,,,,
,,5ea8e847aa2fbb34d8331747,2024-02-19_02h08.15.878,kallum_motion_pilot,2023.2.2,Win32,60.60606061,5ea8e847aa2fbb34d8331747,65d2b6c8f2eece985d8e374c,65d2b802e3f907e4ffc059eb,0.0366,0.0366,0,76,76,30,1,fourtwo,,,,,,,,,,,,,,,,,,,,,,,,,,,,,,,,,,,,,,,,,,,,,,,,,,,,,,,,,,,,,,,,,,,,,,,,,,,,,,,,,,,,,,,,,,,,,,,,,,,,,,,,,,,,,,,,,,,,,,,,,,,,,,,,,,,,,,,,,
,,5ea8e847aa2fbb34d8331747,2024-02-19_02h08.15.878,kallum_motion_pilot,2023.2.2,Win32,60.60606061,5ea8e847aa2fbb34d8331747,65d2b6c8f2eece985d8e374c,65d2b802e3f907e4ffc059eb,0.0367,0.0367,0,77,77,104,1,fivesix,,,,,,,,,,,,,,,,,,,,,,,,,,,,,,,,,,,,,,,,,,,,,,,,,,,,,,,,,,,,,,,,,,,,,,,,,,,,,,,,,,,,,,,,,,,,,,,,,,,,,,,,,,,,,,,,,,,,,,,,,,,,,,,,,,,,,,,,,
,,5ea8e847aa2fbb34d8331747,2024-02-19_02h08.15.878,kallum_motion_pilot,2023.2.2,Win32,60.60606061,5ea8e847aa2fbb34d8331747,65d2b6c8f2eece985d8e374c,65d2b802e3f907e4ffc059eb,0.0368,0.0369,0,78,78,91,1,sixeight,,,,,,,,,,,,,,,,,,,,,,,,,,,,,,,,,,,,,,,,,,,,,,,,,,,,,,,,,,,,,,,,,,,,,,,,,,,,,,,,,,,,,,,,,,,,,,,,,,,,,,,,,,,,,,,,,,,,,,,,,,,,,,,,,,,,,,,,,
,,5ea8e847aa2fbb34d8331747,2024-02-19_02h08.15.878,kallum_motion_pilot,2023.2.2,Win32,60.60606061,5ea8e847aa2fbb34d8331747,65d2b6c8f2eece985d8e374c,65d2b802e3f907e4ffc059eb,0.037,0.0371,0,79,79,122,1,sixfive,,,,,,,,,,,,,,,,,,,,,,,,,,,,,,,,,,,,,,,,,,,,,,,,,,,,,,,,,,,,,,,,,,,,,,,,,,,,,,,,,,,,,,,,,,,,,,,,,,,,,,,,,,,,,,,,,,,,,,,,,,,,,,,,,,,,,,,,,
,,5ea8e847aa2fbb34d8331747,2024-02-19_02h08.15.878,kallum_motion_pilot,2023.2.2,Win32,60.60606061,5ea8e847aa2fbb34d8331747,65d2b6c8f2eece985d8e374c,65d2b802e3f907e4ffc059eb,0.0372,0.0372,0,80,80,102,1,eightsix,,,,,,,,,,,,,,,,,,,,,,,,,,,,,,,,,,,,,,,,,,,,,,,,,,,,,,,,,,,,,,,,,,,,,,,,,,,,,,,,,,,,,,,,,,,,,,,,,,,,,,,,,,,,,,,,,,,,,,,,,,,,,,,,,,,,,,,,,
,,5ea8e847aa2fbb34d8331747,2024-02-19_02h08.15.878,kallum_motion_pilot,2023.2.2,Win32,60.60606061,5ea8e847aa2fbb34d8331747,65d2b6c8f2eece985d8e374c,65d2b802e3f907e4ffc059eb,0.0374,0.0374,0,81,81,10,1,twoone,,,,,,,,,,,,,,,,,,,,,,,,,,,,,,,,,,,,,,,,,,,,,,,,,,,,,,,,,,,,,,,,,,,,,,,,,,,,,,,,,,,,,,,,,,,,,,,,,,,,,,,,,,,,,,,,,,,,,,,,,,,,,,,,,,,,,,,,,
,,5ea8e847aa2fbb34d8331747,2024-02-19_02h08.15.878,kallum_motion_pilot,2023.2.2,Win32,60.60606061,5ea8e847aa2fbb34d8331747,65d2b6c8f2eece985d8e374c,65d2b802e3f907e4ffc059eb,0.0375,0.0377,0,82,82,65,1,onethree,,,,,,,,,,,,,,,,,,,,,,,,,,,,,,,,,,,,,,,,,,,,,,,,,,,,,,,,,,,,,,,,,,,,,,,,,,,,,,,,,,,,,,,,,,,,,,,,,,,,,,,,,,,,,,,,,,,,,,,,,,,,,,,,,,,,,,,,,
,,5ea8e847aa2fbb34d8331747,2024-02-19_02h08.15.878,kallum_motion_pilot,2023.2.2,Win32,60.60606061,5ea8e847aa2fbb34d8331747,65d2b6c8f2eece985d8e374c,65d2b802e3f907e4ffc059eb,0.0378,0.0379,0,83,83,61,1,threefour,,,,,,,,,,,,,,,,,,,,,,,,,,,,,,,,,,,,,,,,,,,,,,,,,,,,,,,,,,,,,,,,,,,,,,,,,,,,,,,,,,,,,,,,,,,,,,,,,,,,,,,,,,,,,,,,,,,,,,,,,,,,,,,,,,,,,,,,,
,,5ea8e847aa2fbb34d8331747,2024-02-19_02h08.15.878,kallum_motion_pilot,2023.2.2,Win32,60.60606061,5ea8e847aa2fbb34d8331747,65d2b6c8f2eece985d8e374c,65d2b802e3f907e4ffc059eb,0.038,0.038,0,84,84,133,1,seveneight,,,,,,,,,,,,,,,,,,,,,,,,,,,,,,,,,,,,,,,,,,,,,,,,,,,,,,,,,,,,,,,,,,,,,,,,,,,,,,,,,,,,,,,,,,,,,,,,,,,,,,,,,,,,,,,,,,,,,,,,,,,,,,,,,,,,,,,,,
,,5ea8e847aa2fbb34d8331747,2024-02-19_02h08.15.878,kallum_motion_pilot,2023.2.2,Win32,60.60606061,5ea8e847aa2fbb34d8331747,65d2b6c8f2eece985d8e374c,65d2b802e3f907e4ffc059eb,0.0382,0.0382,0,85,85,13,1,threefour,,,,,,,,,,,,,,,,,,,,,,,,,,,,,,,,,,,,,,,,,,,,,,,,,,,,,,,,,,,,,,,,,,,,,,,,,,,,,,,,,,,,,,,,,,,,,,,,,,,,,,,,,,,,,,,,,,,,,,,,,,,,,,,,,,,,,,,,,
,,5ea8e847aa2fbb34d8331747,2024-02-19_02h08.15.878,kallum_motion_pilot,2023.2.2,Win32,60.60606061,5ea8e847aa2fbb34d8331747,65d2b6c8f2eece985d8e374c,65d2b802e3f907e4ffc059eb,0.0383,0.0383,0,86,86,68,1,threeone,,,,,,,,,,,,,,,,,,,,,,,,,,,,,,,,,,,,,,,,,,,,,,,,,,,,,,,,,,,,,,,,,,,,,,,,,,,,,,,,,,,,,,,,,,,,,,,,,,,,,,,,,,,,,,,,,,,,,,,,,,,,,,,,,,,,,,,,,
,,5ea8e847aa2fbb34d8331747,2024-02-19_02h08.15.878,kallum_motion_pilot,2023.2.2,Win32,60.60606061,5ea8e847aa2fbb34d8331747,65d2b6c8f2eece985d8e374c,65d2b802e3f907e4ffc059eb,0.0384,0.0385,0,87,87,108,1,sevenfive,,,,,,,,,,,,,,,,,,,,,,,,,,,,,,,,,,,,,,,,,,,,,,,,,,,,,,,,,,,,,,,,,,,,,,,,,,,,,,,,,,,,,,,,,,,,,,,,,,,,,,,,,,,,,,,,,,,,,,,,,,,,,,,,,,,,,,,,,
,,5ea8e847aa2fbb34d8331747,2024-02-19_02h08.15.878,kallum_motion_pilot,2023.2.2,Win32,60.60606061,5ea8e847aa2fbb34d8331747,65d2b6c8f2eece985d8e374c,65d2b802e3f907e4ffc059eb,0.0386,0.0386,0,88,88,154,1,sixfive,,,,,,,,,,,,,,,,,,,,,,,,,,,,,,,,,,,,,,,,,,,,,,,,,,,,,,,,,,,,,,,,,,,,,,,,,,,,,,,,,,,,,,,,,,,,,,,,,,,,,,,,,,,,,,,,,,,,,,,,,,,,,,,,,,,,,,,,,
,,5ea8e847aa2fbb34d8331747,2024-02-19_02h08.15.878,kallum_motion_pilot,2023.2.2,Win32,60.60606061,5ea8e847aa2fbb34d8331747,65d2b6c8f2eece985d8e374c,65d2b802e3f907e4ffc059eb,0.0387,0.0387,0,89,89,56,1,onetwo,,,,,,,,,,,,,,,,,,,,,,,,,,,,,,,,,,,,,,,,,,,,,,,,,,,,,,,,,,,,,,,,,,,,,,,,,,,,,,,,,,,,,,,,,,,,,,,,,,,,,,,,,,,,,,,,,,,,,,,,,,,,,,,,,,,,,,,,,
,,5ea8e847aa2fbb34d8331747,2024-02-19_02h08.15.878,kallum_motion_pilot,2023.2.2,Win32,60.60606061,5ea8e847aa2fbb34d8331747,65d2b6c8f2eece985d8e374c,65d2b802e3f907e4ffc059eb,0.0388,0.0389,0,90,90,6,1,fourtwo,,,,,,,,,,,,,,,,,,,,,,,,,,,,,,,,,,,,,,,,,,,,,,,,,,,,,,,,,,,,,,,,,,,,,,,,,,,,,,,,,,,,,,,,,,,,,,,,,,,,,,,,,,,,,,,,,,,,,,,,,,,,,,,,,,,,,,,,,
,,5ea8e847aa2fbb34d8331747,2024-02-19_02h08.15.878,kallum_motion_pilot,2023.2.2,Win32,60.60606061,5ea8e847aa2fbb34d8331747,65d2b6c8f2eece985d8e374c,65d2b802e3f907e4ffc059eb,0.0389,0.0389,0,91,91,90,1,sixfive,,,,,,,,,,,,,,,,,,,,,,,,,,,,,,,,,,,,,,,,,,,,,,,,,,,,,,,,,,,,,,,,,,,,,,,,,,,,,,,,,,,,,,,,,,,,,,,,,,,,,,,,,,,,,,,,,,,,,,,,,,,,,,,,,,,,,,,,,
,,5ea8e847aa2fbb34d8331747,2024-02-19_02h08.15.878,kallum_motion_pilot,2023.2.2,Win32,60.60606061,5ea8e847aa2fbb34d8331747,65d2b6c8f2eece985d8e374c,65d2b802e3f907e4ffc059eb,0.039,0.0391,0,92,92,120,1,fivesix,,,,,,,,,,,,,,,,,,,,,,,,,,,,,,,,,,,,,,,,,,,,,,,,,,,,,,,,,,,,,,,,,,,,,,,,,,,,,,,,,,,,,,,,,,,,,,,,,,,,,,,,,,,,,,,,,,,,,,,,,,,,,,,,,,,,,,,,,
,,5ea8e847aa2fbb34d8331747,2024-02-19_02h08.15.878,kallum_motion_pilot,2023.2.2,Win32,60.60606061,5ea8e847aa2fbb34d8331747,65d2b6c8f2eece985d8e374c,65d2b802e3f907e4ffc059eb,0.0391,0.0392,0,93,93,113,1,fiveseven,,,,,,,,,,,,,,,,,,,,,,,,,,,,,,,,,,,,,,,,,,,,,,,,,,,,,,,,,,,,,,,,,,,,,,,,,,,,,,,,,,,,,,,,,,,,,,,,,,,,,,,,,,,,,,,,,,,,,,,,,,,,,,,,,,,,,,,,,
,,5ea8e847aa2fbb34d8331747,2024-02-19_02h08.15.878,kallum_motion_pilot,2023.2.2,Win32,60.60606061,5ea8e847aa2fbb34d8331747,65d2b6c8f2eece985d8e374c,65d2b802e3f907e4ffc059eb,0.0392,0.0393,0,94,94,110,1,eightsix,,,,,,,,,,,,,,,,,,,,,,,,,,,,,,,,,,,,,,,,,,,,,,,,,,,,,,,,,,,,,,,,,,,,,,,,,,,,,,,,,,,,,,,,,,,,,,,,,,,,,,,,,,,,,,,,,,,,,,,,,,,,,,,,,,,,,,,,,
,,5ea8e847aa2fbb34d8331747,2024-02-19_02h08.15.878,kallum_motion_pilot,2023.2.2,Win32,60.60606061,5ea8e847aa2fbb34d8331747,65d2b6c8f2eece985d8e374c,65d2b802e3f907e4ffc059eb,0.0394,0.0394,0,95,95,17,1,onethree,,,,,,,,,,,,,,,,,,,,,,,,,,,,,,,,,,,,,,,,,,,,,,,,,,,,,,,,,,,,,,,,,,,,,,,,,,,,,,,,,,,,,,,,,,,,,,,,,,,,,,,,,,,,,,,,,,,,,,,,,,,,,,,,,,,,,,,,,
,,5ea8e847aa2fbb34d8331747,2024-02-19_02h08.15.878,kallum_motion_pilot,2023.2.2,Win32,60.60606061,5ea8e847aa2fbb34d8331747,65d2b6c8f2eece985d8e374c,65d2b802e3f907e4ffc059eb,0.0395,0.0396,0,96,96,119,1,eightseven,,,,,,,,,,,,,,,,,,,,,,,,,,,,,,,,,,,,,,,,,,,,,,,,,,,,,,,,,,,,,,,,,,,,,,,,,,,,,,,,,,,,,,,,,,,,,,,,,,,,,,,,,,,,,,,,,,,,,,,,,,,,,,,,,,,,,,,,,
,,5ea8e847aa2fbb34d8331747,2024-02-19_02h08.15.878,kallum_motion_pilot,2023.2.2,Win32,60.60606061,5ea8e847aa2fbb34d8331747,65d2b6c8f2eece985d8e374c,65d2b802e3f907e4ffc059eb,0.0396,0.0396,0,97,97,94,1,eightsix,,,,,,,,,,,,,,,,,,,,,,,,,,,,,,,,,,,,,,,,,,,,,,,,,,,,,,,,,,,,,,,,,,,,,,,,,,,,,,,,,,,,,,,,,,,,,,,,,,,,,,,,,,,,,,,,,,,,,,,,,,,,,,,,,,,,,,,,,
,,5ea8e847aa2fbb34d8331747,2024-02-19_02h08.15.878,kallum_motion_pilot,2023.2.2,Win32,60.60606061,5ea8e847aa2fbb34d8331747,65d2b6c8f2eece985d8e374c,65d2b802e3f907e4ffc059eb,0.0397,0.0397,0,98,98,142,1,eightsix,,,,,,,,,,,,,,,,,,,,,,,,,,,,,,,,,,,,,,,,,,,,,,,,,,,,,,,,,,,,,,,,,,,,,,,,,,,,,,,,,,,,,,,,,,,,,,,,,,,,,,,,,,,,,,,,,,,,,,,,,,,,,,,,,,,,,,,,,
,,5ea8e847aa2fbb34d8331747,2024-02-19_02h08.15.878,kallum_motion_pilot,2023.2.2,Win32,60.60606061,5ea8e847aa2fbb34d8331747,65d2b6c8f2eece985d8e374c,65d2b802e3f907e4ffc059eb,0.0398,0.0398,0,99,99,73,1,onethree,,,,,,,,,,,,,,,,,,,,,,,,,,,,,,,,,,,,,,,,,,,,,,,,,,,,,,,,,,,,,,,,,,,,,,,,,,,,,,,,,,,,,,,,,,,,,,,,,,,,,,,,,,,,,,,,,,,,,,,,,,,,,,,,,,,,,,,,,
,,5ea8e847aa2fbb34d8331747,2024-02-19_02h08.15.878,kallum_motion_pilot,2023.2.2,Win32,60.60606061,5ea8e847aa2fbb34d8331747,65d2b6c8f2eece985d8e374c,65d2b802e3f907e4ffc059eb,0.0399,0.04,0,100,100,7,1,fourthree,,,,,,,,,,,,,,,,,,,,,,,,,,,,,,,,,,,,,,,,,,,,,,,,,,,,,,,,,,,,,,,,,,,,,,,,,,,,,,,,,,,,,,,,,,,,,,,,,,,,,,,,,,,,,,,,,,,,,,,,,,,,,,,,,,,,,,,,,
,,5ea8e847aa2fbb34d8331747,2024-02-19_02h08.15.878,kallum_motion_pilot,2023.2.2,Win32,60.60606061,5ea8e847aa2fbb34d8331747,65d2b6c8f2eece985d8e374c,65d2b802e3f907e4ffc059eb,0.0401,0.0401,0,101,101,9,1,onethree,,,,,,,,,,,,,,,,,,,,,,,,,,,,,,,,,,,,,,,,,,,,,,,,,,,,,,,,,,,,,,,,,,,,,,,,,,,,,,,,,,,,,,,,,,,,,,,,,,,,,,,,,,,,,,,,,,,,,,,,,,,,,,,,,,,,,,,,,
,,5ea8e847aa2fbb34d8331747,2024-02-19_02h08.15.878,kallum_motion_pilot,2023.2.2,Win32,60.60606061,5ea8e847aa2fbb34d8331747,65d2b6c8f2eece985d8e374c,65d2b802e3f907e4ffc059eb,0.0403,0.0404,0,102,102,159,1,eightseven,,,,,,,,,,,,,,,,,,,,,,,,,,,,,,,,,,,,,,,,,,,,,,,,,,,,,,,,,,,,,,,,,,,,,,,,,,,,,,,,,,,,,,,,,,,,,,,,,,,,,,,,,,,,,,,,,,,,,,,,,,,,,,,,,,,,,,,,,
,,5ea8e847aa2fbb34d8331747,2024-02-19_02h08.15.878,kallum_motion_pilot,2023.2.2,Win32,60.60606061,5ea8e847aa2fbb34d8331747,65d2b6c8f2eece985d8e374c,65d2b802e3f907e4ffc059eb,0.0406,0.0406,0,103,103,145,1,fiveseven,,,,,,,,,,,,,,,,,,,,,,,,,,,,,,,,,,,,,,,,,,,,,,,,,,,,,,,,,,,,,,,,,,,,,,,,,,,,,,,,,,,,,,,,,,,,,,,,,,,,,,,,,,,,,,,,,,,,,,,,,,,,,,,,,,,,,,,,,
,,5ea8e847aa2fbb34d8331747,2024-02-19_02h08.15.878,kallum_motion_pilot,2023.2.2,Win32,60.60606061,5ea8e847aa2fbb34d8331747,65d2b6c8f2eece985d8e374c,65d2b802e3f907e4ffc059eb,0.0406,0.0407,0,104,104,121,1,fiveseven,,,,,,,,,,,,,,,,,,,,,,,,,,,,,,,,,,,,,,,,,,,,,,,,,,,,,,,,,,,,,,,,,,,,,,,,,,,,,,,,,,,,,,,,,,,,,,,,,,,,,,,,,,,,,,,,,,,,,,,,,,,,,,,,,,,,,,,,,
,,5ea8e847aa2fbb34d8331747,2024-02-19_02h08.15.878,kallum_motion_pilot,2023.2.2,Win32,60.60606061,5ea8e847aa2fbb34d8331747,65d2b6c8f2eece985d8e374c,65d2b802e3f907e4ffc059eb,0.0408,0.0408,0,105,105,132,1,sevenfive,,,,,,,,,,,,,,,,,,,,,,,,,,,,,,,,,,,,,,,,,,,,,,,,,,,,,,,,,,,,,,,,,,,,,,,,,,,,,,,,,,,,,,,,,,,,,,,,,,,,,,,,,,,,,,,,,,,,,,,,,,,,,,,,,,,,,,,,,
,,5ea8e847aa2fbb34d8331747,2024-02-19_02h08.15.878,kallum_motion_pilot,2023.2.2,Win32,60.60606061,5ea8e847aa2fbb34d8331747,65d2b6c8f2eece985d8e374c,65d2b802e3f907e4ffc059eb,0.041,0.041,0,106,106,62,1,fourtwo,,,,,,,,,,,,,,,,,,,,,,,,,,,,,,,,,,,,,,,,,,,,,,,,,,,,,,,,,,,,,,,,,,,,,,,,,,,,,,,,,,,,,,,,,,,,,,,,,,,,,,,,,,,,,,,,,,,,,,,,,,,,,,,,,,,,,,,,,
,,5ea8e847aa2fbb34d8331747,2024-02-19_02h08.15.878,kallum_motion_pilot,2023.2.2,Win32,60.60606061,5ea8e847aa2fbb34d8331747,65d2b6c8f2eece985d8e374c,65d2b802e3f907e4ffc059eb,0.0411,0.0411,0,107,107,135,1,eightseven,,,,,,,,,,,,,,,,,,,,,,,,,,,,,,,,,,,,,,,,,,,,,,,,,,,,,,,,,,,,,,,,,,,,,,,,,,,,,,,,,,,,,,,,,,,,,,,,,,,,,,,,,,,,,,,,,,,,,,,,,,,,,,,,,,,,,,,,,
,,5ea8e847aa2fbb34d8331747,2024-02-19_02h08.15.878,kallum_motion_pilot,2023.2.2,Win32,60.60606061,5ea8e847aa2fbb34d8331747,65d2b6c8f2eece985d8e374c,65d2b802e3f907e4ffc059eb,0.0412,0.0412,0,108,108,83,1,sixeight,,,,,,,,,,,,,,,,,,,,,,,,,,,,,,,,,,,,,,,,,,,,,,,,,,,,,,,,,,,,,,,,,,,,,,,,,,,,,,,,,,,,,,,,,,,,,,,,,,,,,,,,,,,,,,,,,,,,,,,,,,,,,,,,,,,,,,,,,
,,5ea8e847aa2fbb34d8331747,2024-02-19_02h08.15.878,kallum_motion_pilot,2023.2.2,Win32,60.60606061,5ea8e847aa2fbb34d8331747,65d2b6c8f2eece985d8e374c,65d2b802e3f907e4ffc059eb,0.0414,0.0414,0,109,109,95,1,eightseven,,,,,,,,,,,,,,,,,,,,,,,,,,,,,,,,,,,,,,,,,,,,,,,,,,,,,,,,,,,,,,,,,,,,,,,,,,,,,,,,,,,,,,,,,,,,,,,,,,,,,,,,,,,,,,,,,,,,,,,,,,,,,,,,,,,,,,,,,
,,5ea8e847aa2fbb34d8331747,2024-02-19_02h08.15.878,kallum_motion_pilot,2023.2.2,Win32,60.60606061,5ea8e847aa2fbb34d8331747,65d2b6c8f2eece985d8e374c,65d2b802e3f907e4ffc059eb,0.0415,0.0415,0,110,110,49,1,onethree,,,,,,,,,,,,,,,,,,,,,,,,,,,,,,,,,,,,,,,,,,,,,,,,,,,,,,,,,,,,,,,,,,,,,,,,,,,,,,,,,,,,,,,,,,,,,,,,,,,,,,,,,,,,,,,,,,,,,,,,,,,,,,,,,,,,,,,,,
,,5ea8e847aa2fbb34d8331747,2024-02-19_02h08.15.878,kallum_motion_pilot,2023.2.2,Win32,60.60606061,5ea8e847aa2fbb34d8331747,65d2b6c8f2eece985d8e374c,65d2b802e3f907e4ffc059eb,0.0417,0.0417,0,111,111,2,1,twoone,,,,,,,,,,,,,,,,,,,,,,,,,,,,,,,,,,,,,,,,,,,,,,,,,,,,,,,,,,,,,,,,,,,,,,,,,,,,,,,,,,,,,,,,,,,,,,,,,,,,,,,,,,,,,,,,,,,,,,,,,,,,,,,,,,,,,,,,,
,,5ea8e847aa2fbb34d8331747,2024-02-19_02h08.15.878,kallum_motion_pilot,2023.2.2,Win32,60.60606061,5ea8e847aa2fbb34d8331747,65d2b6c8f2eece985d8e374c,65d2b802e3f907e4ffc059eb,0.0418,0.0419,0,112,112,157,1,seveneight,,,,,,,,,,,,,,,,,,,,,,,,,,,,,,,,,,,,,,,,,,,,,,,,,,,,,,,,,,,,,,,,,,,,,,,,,,,,,,,,,,,,,,,,,,,,,,,,,,,,,,,,,,,,,,,,,,,,,,,,,,,,,,,,,,,,,,,,,
,,5ea8e847aa2fbb34d8331747,2024-02-19_02h08.15.878,kallum_motion_pilot,2023.2.2,Win32,60.60606061,5ea8e847aa2fbb34d8331747,65d2b6c8f2eece985d8e374c,65d2b802e3f907e4ffc059eb,0.042,0.0422,0,113,113,43,1,twofour,,,,,,,,,,,,,,,,,,,,,,,,,,,,,,,,,,,,,,,,,,,,,,,,,,,,,,,,,,,,,,,,,,,,,,,,,,,,,,,,,,,,,,,,,,,,,,,,,,,,,,,,,,,,,,,,,,,,,,,,,,,,,,,,,,,,,,,,,
,,5ea8e847aa2fbb34d8331747,2024-02-19_02h08.15.878,kallum_motion_pilot,2023.2.2,Win32,60.60606061,5ea8e847aa2fbb34d8331747,65d2b6c8f2eece985d8e374c,65d2b802e3f907e4ffc059eb,0.0423,0.0423,0,114,114,16,1,onetwo,,,,,,,,,,,,,,,,,,,,,,,,,,,,,,,,,,,,,,,,,,,,,,,,,,,,,,,,,,,,,,,,,,,,,,,,,,,,,,,,,,,,,,,,,,,,,,,,,,,,,,,,,,,,,,,,,,,,,,,,,,,,,,,,,,,,,,,,,
,,5ea8e847aa2fbb34d8331747,2024-02-19_02h08.15.878,kallum_motion_pilot,2023.2.2,Win32,60.60606061,5ea8e847aa2fbb34d8331747,65d2b6c8f2eece985d8e374c,65d2b802e3f907e4ffc059eb,0.0425,0.0425,0,115,115,98,1,sixfive,,,,,,,,,,,,,,,,,,,,,,,,,,,,,,,,,,,,,,,,,,,,,,,,,,,,,,,,,,,,,,,,,,,,,,,,,,,,,,,,,,,,,,,,,,,,,,,,,,,,,,,,,,,,,,,,,,,,,,,,,,,,,,,,,,,,,,,,,
,,5ea8e847aa2fbb34d8331747,2024-02-19_02h08.15.878,kallum_motion_pilot,2023.2.2,Win32,60.60606061,5ea8e847aa2fbb34d8331747,65d2b6c8f2eece985d8e374c,65d2b802e3f907e4ffc059eb,0.0426,0.0426,0,116,116,114,1,sixfive,,,,,,,,,,,,,,,,,,,,,,,,,,,,,,,,,,,,,,,,,,,,,,,,,,,,,,,,,,,,,,,,,,,,,,,,,,,,,,,,,,,,,,,,,,,,,,,,,,,,,,,,,,,,,,,,,,,,,,,,,,,,,,,,,,,,,,,,,
,,5ea8e847aa2fbb34d8331747,2024-02-19_02h08.15.878,kallum_motion_pilot,2023.2.2,Win32,60.60606061,5ea8e847aa2fbb34d8331747,65d2b6c8f2eece985d8e374c,65d2b802e3f907e4ffc059eb,0.0427,0.0428,0,117,117,46,1,fourtwo,,,,,,,,,,,,,,,,,,,,,,,,,,,,,,,,,,,,,,,,,,,,,,,,,,,,,,,,,,,,,,,,,,,,,,,,,,,,,,,,,,,,,,,,,,,,,,,,,,,,,,,,,,,,,,,,,,,,,,,,,,,,,,,,,,,,,,,,,
,,5ea8e847aa2fbb34d8331747,2024-02-19_02h08.15.878,kallum_motion_pilot,2023.2.2,Win32,60.60606061,5ea8e847aa2fbb34d8331747,65d2b6c8f2eece985d8e374c,65d2b802e3f907e4ffc059eb,0.0429,0.0429,0,118,118,44,1,threeone,,,,,,,,,,,,,,,,,,,,,,,,,,,,,,,,,,,,,,,,,,,,,,,,,,,,,,,,,,,,,,,,,,,,,,,,,,,,,,,,,,,,,,,,,,,,,,,,,,,,,,,,,,,,,,,,,,,,,,,,,,,,,,,,,,,,,,,,,
,,5ea8e847aa2fbb34d8331747,2024-02-19_02h08.15.878,kallum_motion_pilot,2023.2.2,Win32,60.60606061,5ea8e847aa2fbb34d8331747,65d2b6c8f2eece985d8e374c,65d2b802e3f907e4ffc059eb,0.043,0.0431,0,119,119,155,1,sixeight,,,,,,,,,,,,,,,,,,,,,,,,,,,,,,,,,,,,,,,,,,,,,,,,,,,,,,,,,,,,,,,,,,,,,,,,,,,,,,,,,,,,,,,,,,,,,,,,,,,,,,,,,,,,,,,,,,,,,,,,,,,,,,,,,,,,,,,,,
,,5ea8e847aa2fbb34d8331747,2024-02-19_02h08.15.878,kallum_motion_pilot,2023.2.2,Win32,60.60606061,5ea8e847aa2fbb34d8331747,65d2b6c8f2eece985d8e374c,65d2b802e3f907e4ffc059eb,0.0432,0.0433,0,120,120,116,1,sevenfive,,,,,,,,,,,,,,,,,,,,,,,,,,,,,,,,,,,,,,,,,,,,,,,,,,,,,,,,,,,,,,,,,,,,,,,,,,,,,,,,,,,,,,,,,,,,,,,,,,,,,,,,,,,,,,,,,,,,,,,,,,,,,,,,,,,,,,,,,
,,5ea8e847aa2fbb34d8331747,2024-02-19_02h08.15.878,kallum_motion_pilot,2023.2.2,Win32,60.60606061,5ea8e847aa2fbb34d8331747,65d2b6c8f2eece985d8e374c,65d2b802e3f907e4ffc059eb,0.0433,0.0434,0,121,121,59,1,twofour,,,,,,,,,,,,,,,,,,,,,,,,,,,,,,,,,,,,,,,,,,,,,,,,,,,,,,,,,,,,,,,,,,,,,,,,,,,,,,,,,,,,,,,,,,,,,,,,,,,,,,,,,,,,,,,,,,,,,,,,,,,,,,,,,,,,,,,,,
,,5ea8e847aa2fbb34d8331747,2024-02-19_02h08.15.878,kallum_motion_pilot,2023.2.2,Win32,60.60606061,5ea8e847aa2fbb34d8331747,65d2b6c8f2eece985d8e374c,65d2b802e3f907e4ffc059eb,0.0434,0.0435,0,122,122,0,1,onetwo,,,,,,,,,,,,,,,,,,,,,,,,,,,,,,,,,,,,,,,,,,,,,,,,,,,,,,,,,,,,,,,,,,,,,,,,,,,,,,,,,,,,,,,,,,,,,,,,,,,,,,,,,,,,,,,,,,,,,,,,,,,,,,,,,,,,,,,,,
,,5ea8e847aa2fbb34d8331747,2024-02-19_02h08.15.878,kallum_motion_pilot,2023.2.2,Win32,60.60606061,5ea8e847aa2fbb34d8331747,65d2b6c8f2eece985d8e374c,65d2b802e3f907e4ffc059eb,0.0436,0.0437,0,123,123,146,1,sixfive,,,,,,,,,,,,,,,,,,,,,,,,,,,,,,,,,,,,,,,,,,,,,,,,,,,,,,,,,,,,,,,,,,,,,,,,,,,,,,,,,,,,,,,,,,,,,,,,,,,,,,,,,,,,,,,,,,,,,,,,,,,,,,,,,,,,,,,,,
,,5ea8e847aa2fbb34d8331747,2024-02-19_02h08.15.878,kallum_motion_pilot,2023.2.2,Win32,60.60606061,5ea8e847aa2fbb34d8331747,65d2b6c8f2eece985d8e374c,65d2b802e3f907e4ffc059eb,0.0438,0.0438,0,124,124,161,1,fiveseven,,,,,,,,,,,,,,,,,,,,,,,,,,,,,,,,,,,,,,,,,,,,,,,,,,,,,,,,,,,,,,,,,,,,,,,,,,,,,,,,,,,,,,,,,,,,,,,,,,,,,,,,,,,,,,,,,,,,,,,,,,,,,,,,,,,,,,,,,
,,5ea8e847aa2fbb34d8331747,2024-02-19_02h08.15.878,kallum_motion_pilot,2023.2.2,Win32,60.60606061,5ea8e847aa2fbb34d8331747,65d2b6c8f2eece985d8e374c,65d2b802e3f907e4ffc059eb,0.0439,0.0439,0,125,125,35,1,twofour,,,,,,,,,,,,,,,,,,,,,,,,,,,,,,,,,,,,,,,,,,,,,,,,,,,,,,,,,,,,,,,,,,,,,,,,,,,,,,,,,,,,,,,,,,,,,,,,,,,,,,,,,,,,,,,,,,,,,,,,,,,,,,,,,,,,,,,,,
,,5ea8e847aa2fbb34d8331747,2024-02-19_02h08.15.878,kallum_motion_pilot,2023.2.2,Win32,60.60606061,5ea8e847aa2fbb34d8331747,65d2b6c8f2eece985d8e374c,65d2b802e3f907e4ffc059eb,0.0441,0.0441,0,126,126,79,1,eightseven,,,,,,,,,,,,,,,,,,,,,,,,,,,,,,,,,,,,,,,,,,,,,,,,,,,,,,,,,,,,,,,,,,,,,,,,,,,,,,,,,,,,,,,,,,,,,,,,,,,,,,,,,,,,,,,,,,,,,,,,,,,,,,,,,,,,,,,,,
,,5ea8e847aa2fbb34d8331747,2024-02-19_02h08.15.878,kallum_motion_pilot,2023.2.2,Win32,60.60606061,5ea8e847aa2fbb34d8331747,65d2b6c8f2eece985d8e374c,65d2b802e3f907e4ffc059eb,0.0442,0.0442,0,127,127,109,1,seveneight,,,,,,,,,,,,,,,,,,,,,,,,,,,,,,,,,,,,,,,,,,,,,,,,,,,,,,,,,,,,,,,,,,,,,,,,,,,,,,,,,,,,,,,,,,,,,,,,,,,,,,,,,,,,,,,,,,,,,,,,,,,,,,,,,,,,,,,,,
,,5ea8e847aa2fbb34d8331747,2024-02-19_02h08.15.878,kallum_motion_pilot,2023.2.2,Win32,60.60606061,5ea8e847aa2fbb34d8331747,65d2b6c8f2eece985d8e374c,65d2b802e3f907e4ffc059eb,0.0443,0.0444,0,128,128,96,1,fivesix,,,,,,,,,,,,,,,,,,,,,,,,,,,,,,,,,,,,,,,,,,,,,,,,,,,,,,,,,,,,,,,,,,,,,,,,,,,,,,,,,,,,,,,,,,,,,,,,,,,,,,,,,,,,,,,,,,,,,,,,,,,,,,,,,,,,,,,,,
,,5ea8e847aa2fbb34d8331747,2024-02-19_02h08.15.878,kallum_motion_pilot,2023.2.2,Win32,60.60606061,5ea8e847aa2fbb34d8331747,65d2b6c8f2eece985d8e374c,65d2b802e3f907e4ffc059eb,0.0445,0.0446,0,129,129,139,1,sixeight,,,,,,,,,,,,,,,,,,,,,,,,,,,,,,,,,,,,,,,,,,,,,,,,,,,,,,,,,,,,,,,,,,,,,,,,,,,,,,,,,,,,,,,,,,,,,,,,,,,,,,,,,,,,,,,,,,,,,,,,,,,,,,,,,,,,,,,,,
,,5ea8e847aa2fbb34d8331747,2024-02-19_02h08.15.878,kallum_motion_pilot,2023.2.2,Win32,60.60606061,5ea8e847aa2fbb34d8331747,65d2b6c8f2eece985d8e374c,65d2b802e3f907e4ffc059eb,0.0447,0.0447,0,130,130,38,1,fourtwo,,,,,,,,,,,,,,,,,,,,,,,,,,,,,,,,,,,,,,,,,,,,,,,,,,,,,,,,,,,,,,,,,,,,,,,,,,,,,,,,,,,,,,,,,,,,,,,,,,,,,,,,,,,,,,,,,,,,,,,,,,,,,,,,,,,,,,,,,
,,5ea8e847aa2fbb34d8331747,2024-02-19_02h08.15.878,kallum_motion_pilot,2023.2.2,Win32,60.60606061,5ea8e847aa2fbb34d8331747,65d2b6c8f2eece985d8e374c,65d2b802e3f907e4ffc059eb,0.0448,0.0449,0,131,131,33,1,onethree,,,,,,,,,,,,,,,,,,,,,,,,,,,,,,,,,,,,,,,,,,,,,,,,,,,,,,,,,,,,,,,,,,,,,,,,,,,,,,,,,,,,,,,,,,,,,,,,,,,,,,,,,,,,,,,,,,,,,,,,,,,,,,,,,,,,,,,,,
,,5ea8e847aa2fbb34d8331747,2024-02-19_02h08.15.878,kallum_motion_pilot,2023.2.2,Win32,60.60606061,5ea8e847aa2fbb34d8331747,65d2b6c8f2eece985d8e374c,65d2b802e3f907e4ffc059eb,0.045,0.0451,0,132,132,52,1,threeone,,,,,,,,,,,,,,,,,,,,,,,,,,,,,,,,,,,,,,,,,,,,,,,,,,,,,,,,,,,,,,,,,,,,,,,,,,,,,,,,,,,,,,,,,,,,,,,,,,,,,,,,,,,,,,,,,,,,,,,,,,,,,,,,,,,,,,,,,
,,5ea8e847aa2fbb34d8331747,2024-02-19_02h08.15.878,kallum_motion_pilot,2023.2.2,Win32,60.60606061,5ea8e847aa2fbb34d8331747,65d2b6c8f2eece985d8e374c,65d2b802e3f907e4ffc059eb,0.0452,0.0452,0,133,133,153,1,fiveseven,,,,,,,,,,,,,,,,,,,,,,,,,,,,,,,,,,,,,,,,,,,,,,,,,,,,,,,,,,,,,,,,,,,,,,,,,,,,,,,,,,,,,,,,,,,,,,,,,,,,,,,,,,,,,,,,,,,,,,,,,,,,,,,,,,,,,,,,,
,,5ea8e847aa2fbb34d8331747,2024-02-19_02h08.15.878,kallum_motion_pilot,2023.2.2,Win32,60.60606061,5ea8e847aa2fbb34d8331747,65d2b6c8f2eece985d8e374c,65d2b802e3f907e4ffc059eb,0.0453,0.0453,0,134,134,69,1,threefour,,,,,,,,,,,,,,,,,,,,,,,,,,,,,,,,,,,,,,,,,,,,,,,,,,,,,,,,,,,,,,,,,,,,,,,,,,,,,,,,,,,,,,,,,,,,,,,,,,,,,,,,,,,,,,,,,,,,,,,,,,,,,,,,,,,,,,,,,
,,5ea8e847aa2fbb34d8331747,2024-02-19_02h08.15.878,kallum_motion_pilot,2023.2.2,Win32,60.60606061,5ea8e847aa2fbb34d8331747,65d2b6c8f2eece985d8e374c,65d2b802e3f907e4ffc059eb,0.0455,0.0455,0,135,135,111,1,eightseven,,,,,,,,,,,,,,,,,,,,,,,,,,,,,,,,,,,,,,,,,,,,,,,,,,,,,,,,,,,,,,,,,,,,,,,,,,,,,,,,,,,,,,,,,,,,,,,,,,,,,,,,,,,,,,,,,,,,,,,,,,,,,,,,,,,,,,,,,
,,5ea8e847aa2fbb34d8331747,2024-02-19_02h08.15.878,kallum_motion_pilot,2023.2.2,Win32,60.60606061,5ea8e847aa2fbb34d8331747,65d2b6c8f2eece985d8e374c,65d2b802e3f907e4ffc059eb,0.0456,0.0457,0,136,136,14,1,fourtwo,,,,,,,,,,,,,,,,,,,,,,,,,,,,,,,,,,,,,,,,,,,,,,,,,,,,,,,,,,,,,,,,,,,,,,,,,,,,,,,,,,,,,,,,,,,,,,,,,,,,,,,,,,,,,,,,,,,,,,,,,,,,,,,,,,,,,,,,,
,,5ea8e847aa2fbb34d8331747,2024-02-19_02h08.15.878,kallum_motion_pilot,2023.2.2,Win32,60.60606061,5ea8e847aa2fbb34d8331747,65d2b6c8f2eece985d8e374c,65d2b802e3f907e4ffc059eb,0.0457,0.0458,0,137,137,151,1,eightseven,,,,,,,,,,,,,,,,,,,,,,,,,,,,,,,,,,,,,,,,,,,,,,,,,,,,,,,,,,,,,,,,,,,,,,,,,,,,,,,,,,,,,,,,,,,,,,,,,,,,,,,,,,,,,,,,,,,,,,,,,,,,,,,,,,,,,,,,,
,,5ea8e847aa2fbb34d8331747,2024-02-19_02h08.15.878,kallum_motion_pilot,2023.2.2,Win32,60.60606061,5ea8e847aa2fbb34d8331747,65d2b6c8f2eece985d8e374c,65d2b802e3f907e4ffc059eb,0.0459,0.046,0,138,138,93,1,seveneight,,,,,,,,,,,,,,,,,,,,,,,,,,,,,,,,,,,,,,,,,,,,,,,,,,,,,,,,,,,,,,,,,,,,,,,,,,,,,,,,,,,,,,,,,,,,,,,,,,,,,,,,,,,,,,,,,,,,,,,,,,,,,,,,,,,,,,,,,
,,5ea8e847aa2fbb34d8331747,2024-02-19_02h08.15.878,kallum_motion_pilot,2023.2.2,Win32,60.60606061,5ea8e847aa2fbb34d8331747,65d2b6c8f2eece985d8e374c,65d2b802e3f907e4ffc059eb,0.046,0.0461,0,139,139,3,1,twofour,,,,,,,,,,,,,,,,,,,,,,,,,,,,,,,,,,,,,,,,,,,,,,,,,,,,,,,,,,,,,,,,,,,,,,,,,,,,,,,,,,,,,,,,,,,,,,,,,,,,,,,,,,,,,,,,,,,,,,,,,,,,,,,,,,,,,,,,,
,,5ea8e847aa2fbb34d8331747,2024-02-19_02h08.15.878,kallum_motion_pilot,2023.2.2,Win32,60.60606061,5ea8e847aa2fbb34d8331747,65d2b6c8f2eece985d8e374c,65d2b802e3f907e4ffc059eb,0.0462,0.0463,0,140,140,64,1,onetwo,,,,,,,,,,,,,,,,,,,,,,,,,,,,,,,,,,,,,,,,,,,,,,,,,,,,,,,,,,,,,,,,,,,,,,,,,,,,,,,,,,,,,,,,,,,,,,,,,,,,,,,,,,,,,,,,,,,,,,,,,,,,,,,,,,,,,,,,,
,,5ea8e847aa2fbb34d8331747,2024-02-19_02h08.15.878,kallum_motion_pilot,2023.2.2,Win32,60.60606061,5ea8e847aa2fbb34d8331747,65d2b6c8f2eece985d8e374c,65d2b802e3f907e4ffc059eb,0.0464,0.0464,0,141,141,54,1,fourtwo,,,,,,,,,,,,,,,,,,,,,,,,,,,,,,,,,,,,,,,,,,,,,,,,,,,,,,,,,,,,,,,,,,,,,,,,,,,,,,,,,,,,,,,,,,,,,,,,,,,,,,,,,,,,,,,,,,,,,,,,,,,,,,,,,,,,,,,,,
,,5ea8e847aa2fbb34d8331747,2024-02-19_02h08.15.878,kallum_motion_pilot,2023.2.2,Win32,60.60606061,5ea8e847aa2fbb34d8331747,65d2b6c8f2eece985d8e374c,65d2b802e3f907e4ffc059eb,0.0464,0.0466,0,142,142,158,1,eightsix,,,,,,,,,,,,,,,,,,,,,,,,,,,,,,,,,,,,,,,,,,,,,,,,,,,,,,,,,,,,,,,,,,,,,,,,,,,,,,,,,,,,,,,,,,,,,,,,,,,,,,,,,,,,,,,,,,,,,,,,,,,,,,,,,,,,,,,,,
,,5ea8e847aa2fbb34d8331747,2024-02-19_02h08.15.878,kallum_motion_pilot,2023.2.2,Win32,60.60606061,5ea8e847aa2fbb34d8331747,65d2b6c8f2eece985d8e374c,65d2b802e3f907e4ffc059eb,0.0466,0.0466,0,143,143,20,1,threeone,,,,,,,,,,,,,,,,,,,,,,,,,,,,,,,,,,,,,,,,,,,,,,,,,,,,,,,,,,,,,,,,,,,,,,,,,,,,,,,,,,,,,,,,,,,,,,,,,,,,,,,,,,,,,,,,,,,,,,,,,,,,,,,,,,,,,,,,,
,,5ea8e847aa2fbb34d8331747,2024-02-19_02h08.15.878,kallum_motion_pilot,2023.2.2,Win32,60.60606061,5ea8e847aa2fbb34d8331747,65d2b6c8f2eece985d8e374c,65d2b802e3f907e4ffc059eb,0.0468,0.0468,0,144,144,4,1,threeone,,,,,,,,,,,,,,,,,,,,,,,,,,,,,,,,,,,,,,,,,,,,,,,,,,,,,,,,,,,,,,,,,,,,,,,,,,,,,,,,,,,,,,,,,,,,,,,,,,,,,,,,,,,,,,,,,,,,,,,,,,,,,,,,,,,,,,,,,
,,5ea8e847aa2fbb34d8331747,2024-02-19_02h08.15.878,kallum_motion_pilot,2023.2.2,Win32,60.60606061,5ea8e847aa2fbb34d8331747,65d2b6c8f2eece985d8e374c,65d2b802e3f907e4ffc059eb,0.0468,0.0469,0,145,145,39,1,fourthree,,,,,,,,,,,,,,,,,,,,,,,,,,,,,,,,,,,,,,,,,,,,,,,,,,,,,,,,,,,,,,,,,,,,,,,,,,,,,,,,,,,,,,,,,,,,,,,,,,,,,,,,,,,,,,,,,,,,,,,,,,,,,,,,,,,,,,,,,
,,5ea8e847aa2fbb34d8331747,2024-02-19_02h08.15.878,kallum_motion_pilot,2023.2.2,Win32,60.60606061,5ea8e847aa2fbb34d8331747,65d2b6c8f2eece985d8e374c,65d2b802e3f907e4ffc059eb,0.047,0.0471,0,146,146,71,1,fourthree,,,,,,,,,,,,,,,,,,,,,,,,,,,,,,,,,,,,,,,,,,,,,,,,,,,,,,,,,,,,,,,,,,,,,,,,,,,,,,,,,,,,,,,,,,,,,,,,,,,,,,,,,,,,,,,,,,,,,,,,,,,,,,,,,,,,,,,,,
,,5ea8e847aa2fbb34d8331747,2024-02-19_02h08.15.878,kallum_motion_pilot,2023.2.2,Win32,60.60606061,5ea8e847aa2fbb34d8331747,65d2b6c8f2eece985d8e374c,65d2b802e3f907e4ffc059eb,0.0472,0.0473,0,147,147,85,1,seveneight,,,,,,,,,,,,,,,,,,,,,,,,,,,,,,,,,,,,,,,,,,,,,,,,,,,,,,,,,,,,,,,,,,,,,,,,,,,,,,,,,,,,,,,,,,,,,,,,,,,,,,,,,,,,,,,,,,,,,,,,,,,,,,,,,,,,,,,,,
,,5ea8e847aa2fbb34d8331747,2024-02-19_02h08.15.878,kallum_motion_pilot,2023.2.2,Win32,60.60606061,5ea8e847aa2fbb34d8331747,65d2b6c8f2eece985d8e374c,65d2b802e3f907e4ffc059eb,0.0473,0.0474,0,148,148,99,1,sixeight,,,,,,,,,,,,,,,,,,,,,,,,,,,,,,,,,,,,,,,,,,,,,,,,,,,,,,,,,,,,,,,,,,,,,,,,,,,,,,,,,,,,,,,,,,,,,,,,,,,,,,,,,,,,,,,,,,,,,,,,,,,,,,,,,,,,,,,,,
,,5ea8e847aa2fbb34d8331747,2024-02-19_02h08.15.878,kallum_motion_pilot,2023.2.2,Win32,60.60606061,5ea8e847aa2fbb34d8331747,65d2b6c8f2eece985d8e374c,65d2b802e3f907e4ffc059eb,0.0475,0.0475,0,149,149,131,1,sixeight,,,,,,,,,,,,,,,,,,,,,,,,,,,,,,,,,,,,,,,,,,,,,,,,,,,,,,,,,,,,,,,,,,,,,,,,,,,,,,,,,,,,,,,,,,,,,,,,,,,,,,,,,,,,,,,,,,,,,,,,,,,,,,,,,,,,,,,,,
,,5ea8e847aa2fbb34d8331747,2024-02-19_02h08.15.878,kallum_motion_pilot,2023.2.2,Win32,60.60606061,5ea8e847aa2fbb34d8331747,65d2b6c8f2eece985d8e374c,65d2b802e3f907e4ffc059eb,0.0477,0.0477,0,150,150,75,1,twofour,,,,,,,,,,,,,,,,,,,,,,,,,,,,,,,,,,,,,,,,,,,,,,,,,,,,,,,,,,,,,,,,,,,,,,,,,,,,,,,,,,,,,,,,,,,,,,,,,,,,,,,,,,,,,,,,,,,,,,,,,,,,,,,,,,,,,,,,,
,,5ea8e847aa2fbb34d8331747,2024-02-19_02h08.15.878,kallum_motion_pilot,2023.2.2,Win32,60.60606061,5ea8e847aa2fbb34d8331747,65d2b6c8f2eece985d8e374c,65d2b802e3f907e4ffc059eb,0.0478,0.0479,0,151,151,100,1,sevenfive,,,,,,,,,,,,,,,,,,,,,,,,,,,,,,,,,,,,,,,,,,,,,,,,,,,,,,,,,,,,,,,,,,,,,,,,,,,,,,,,,,,,,,,,,,,,,,,,,,,,,,,,,,,,,,,,,,,,,,,,,,,,,,,,,,,,,,,,,
,,5ea8e847aa2fbb34d8331747,2024-02-19_02h08.15.878,kallum_motion_pilot,2023.2.2,Win32,60.60606061,5ea8e847aa2fbb34d8331747,65d2b6c8f2eece985d8e374c,65d2b802e3f907e4ffc059eb,0.048,0.048,0,152,152,112,1,fivesix,,,,,,,,,,,,,,,,,,,,,,,,,,,,,,,,,,,,,,,,,,,,,,,,,,,,,,,,,,,,,,,,,,,,,,,,,,,,,,,,,,,,,,,,,,,,,,,,,,,,,,,,,,,,,,,,,,,,,,,,,,,,,,,,,,,,,,,,,
,,5ea8e847aa2fbb34d8331747,2024-02-19_02h08.15.878,kallum_motion_pilot,2023.2.2,Win32,60.60606061,5ea8e847aa2fbb34d8331747,65d2b6c8f2eece985d8e374c,65d2b802e3f907e4ffc059eb,0.0481,0.0482,0,153,153,74,1,twoone,,,,,,,,,,,,,,,,,,,,,,,,,,,,,,,,,,,,,,,,,,,,,,,,,,,,,,,,,,,,,,,,,,,,,,,,,,,,,,,,,,,,,,,,,,,,,,,,,,,,,,,,,,,,,,,,,,,,,,,,,,,,,,,,,,,,,,,,,
,,5ea8e847aa2fbb34d8331747,2024-02-19_02h08.15.878,kallum_motion_pilot,2023.2.2,Win32,60.60606061,5ea8e847aa2fbb34d8331747,65d2b6c8f2eece985d8e374c,65d2b802e3f907e4ffc059eb,0.0483,0.0484,0,154,154,77,1,threefour,,,,,,,,,,,,,,,,,,,,,,,,,,,,,,,,,,,,,,,,,,,,,,,,,,,,,,,,,,,,,,,,,,,,,,,,,,,,,,,,,,,,,,,,,,,,,,,,,,,,,,,,,,,,,,,,,,,,,,,,,,,,,,,,,,,,,,,,,
,,5ea8e847aa2fbb34d8331747,2024-02-19_02h08.15.878,kallum_motion_pilot,2023.2.2,Win32,60.60606061,5ea8e847aa2fbb34d8331747,65d2b6c8f2eece985d8e374c,65d2b802e3f907e4ffc059eb,0.0484,0.0484,0,155,155,147,1,sixeight,,,,,,,,,,,,,,,,,,,,,,,,,,,,,,,,,,,,,,,,,,,,,,,,,,,,,,,,,,,,,,,,,,,,,,,,,,,,,,,,,,,,,,,,,,,,,,,,,,,,,,,,,,,,,,,,,,,,,,,,,,,,,,,,,,,,,,,,,
,,5ea8e847aa2fbb34d8331747,2024-02-19_02h08.15.878,kallum_motion_pilot,2023.2.2,Win32,60.60606061,5ea8e847aa2fbb34d8331747,65d2b6c8f2eece985d8e374c,65d2b802e3f907e4ffc059eb,0.0486,0.0487,0,156,156,156,1,sevenfive,,,,,,,,,,,,,,,,,,,,,,,,,,,,,,,,,,,,,,,,,,,,,,,,,,,,,,,,,,,,,,,,,,,,,,,,,,,,,,,,,,,,,,,,,,,,,,,,,,,,,,,,,,,,,,,,,,,,,,,,,,,,,,,,,,,,,,,,,
,,5ea8e847aa2fbb34d8331747,2024-02-19_02h08.15.878,kallum_motion_pilot,2023.2.2,Win32,60.60606061,5ea8e847aa2fbb34d8331747,65d2b6c8f2eece985d8e374c,65d2b802e3f907e4ffc059eb,0.0488,0.0488,0,157,157,82,1,sixfive,,,,,,,,,,,,,,,,,,,,,,,,,,,,,,,,,,,,,,,,,,,,,,,,,,,,,,,,,,,,,,,,,,,,,,,,,,,,,,,,,,,,,,,,,,,,,,,,,,,,,,,,,,,,,,,,,,,,,,,,,,,,,,,,,,,,,,,,,
,,5ea8e847aa2fbb34d8331747,2024-02-19_02h08.15.878,kallum_motion_pilot,2023.2.2,Win32,60.60606061,5ea8e847aa2fbb34d8331747,65d2b6c8f2eece985d8e374c,65d2b802e3f907e4ffc059eb,0.0489,0.0489,0,158,158,101,1,seveneight,,,,,,,,,,,,,,,,,,,,,,,,,,,,,,,,,,,,,,,,,,,,,,,,,,,,,,,,,,,,,,,,,,,,,,,,,,,,,,,,,,,,,,,,,,,,,,,,,,,,,,,,,,,,,,,,,,,,,,,,,,,,,,,,,,,,,,,,,
,,5ea8e847aa2fbb34d8331747,2024-02-19_02h08.15.878,kallum_motion_pilot,2023.2.2,Win32,60.60606061,5ea8e847aa2fbb34d8331747,65d2b6c8f2eece985d8e374c,65d2b802e3f907e4ffc059eb,0.049,0.0491,0,159,159,97,1,fiveseven,,,,,,,,,,,,,,,,,,,,,,,,,,,,,,,,,,,,,,,,,,,,,,,,,,,,,,,,,,,,,,,,,,,,,,,,,,,,,,,,,,,,,,,,,,,,,,,,,,,,,,,,,,,,,,,,,,,,,,,,,,,,,,,,,,,,,,,,,
,,5ea8e847aa2fbb34d8331747,2024-02-19_02h08.15.878,kallum_motion_pilot,2023.2.2,Win32,60.60606061,5ea8e847aa2fbb34d8331747,65d2b6c8f2eece985d8e374c,65d2b802e3f907e4ffc059eb,0.0492,0.0492,0,160,160,134,1,eightsix,,,,,,,,,,,,,,,,,,,,,,,,,,,,,,,,,,,,,,,,,,,,,,,,,,,,,,,,,,,,,,,,,,,,,,,,,,,,,,,,,,,,,,,,,,,,,,,,,,,,,,,,,,,,,,,,,,,,,,,,,,,,,,,,,,,,,,,,,
,,5ea8e847aa2fbb34d8331747,2024-02-19_02h08.15.878,kallum_motion_pilot,2023.2.2,Win32,60.60606061,5ea8e847aa2fbb34d8331747,65d2b6c8f2eece985d8e374c,65d2b802e3f907e4ffc059eb,0.0494,0.0494,0,161,161,136,1,fivesix,,,,,,,,,,,,,,,,,,,,,,,,,,,,,,,,,,,,,,,,,,,,,,,,,,,,,,,,,,,,,,,,,,,,,,,,,,,,,,,,,,,,,,,,,,,,,,,,,,,,,,,,,,,,,,,,,,,,,,,,,,,,,,,,,,,,,,,,,
,,5ea8e847aa2fbb34d8331747,2024-02-19_02h08.15.878,kallum_motion_pilot,2023.2.2,Win32,60.60606061,5ea8e847aa2fbb34d8331747,65d2b6c8f2eece985d8e374c,65d2b802e3f907e4ffc059eb,0.0495,0.0496,1,0,162,99,1,sixeight,,,,,,,,,,,,,,,,,,,,,,,,,,,,,,,,,,,,,,,,,,,,,,,,,,,,,,,,,,,,,,,,,,,,,,,,,,,,,,,,,,,,,,,,,,,,,,,,,,,,,,,,,,,,,,,,,,,,,,,,,,,,,,,,,,,,,,,,,
,,5ea8e847aa2fbb34d8331747,2024-02-19_02h08.15.878,kallum_motion_pilot,2023.2.2,Win32,60.60606061,5ea8e847aa2fbb34d8331747,65d2b6c8f2eece985d8e374c,65d2b802e3f907e4ffc059eb,0.0496,0.0497,1,1,163,107,1,sixeight,,,,,,,,,,,,,,,,,,,,,,,,,,,,,,,,,,,,,,,,,,,,,,,,,,,,,,,,,,,,,,,,,,,,,,,,,,,,,,,,,,,,,,,,,,,,,,,,,,,,,,,,,,,,,,,,,,,,,,,,,,,,,,,,,,,,,,,,,
,,5ea8e847aa2fbb34d8331747,2024-02-19_02h08.15.878,kallum_motion_pilot,2023.2.2,Win32,60.60606061,5ea8e847aa2fbb34d8331747,65d2b6c8f2eece985d8e374c,65d2b802e3f907e4ffc059eb,0.0498,0.0498,1,2,164,14,1,fourtwo,,,,,,,,,,,,,,,,,,,,,,,,,,,,,,,,,,,,,,,,,,,,,,,,,,,,,,,,,,,,,,,,,,,,,,,,,,,,,,,,,,,,,,,,,,,,,,,,,,,,,,,,,,,,,,,,,,,,,,,,,,,,,,,,,,,,,,,,,
,,5ea8e847aa2fbb34d8331747,2024-02-19_02h08.15.878,kallum_motion_pilot,2023.2.2,Win32,60.60606061,5ea8e847aa2fbb34d8331747,65d2b6c8f2eece985d8e374c,65d2b802e3f907e4ffc059eb,0.0499,0.05,1,3,165,125,1,seveneight,,,,,,,,,,,,,,,,,,,,,,,,,,,,,,,,,,,,,,,,,,,,,,,,,,,,,,,,,,,,,,,,,,,,,,,,,,,,,,,,,,,,,,,,,,,,,,,,,,,,,,,,,,,,,,,,,,,,,,,,,,,,,,,,,,,,,,,,,
,,5ea8e847aa2fbb34d8331747,2024-02-19_02h08.15.878,kallum_motion_pilot,2023.2.2,Win32,60.60606061,5ea8e847aa2fbb34d8331747,65d2b6c8f2eece985d8e374c,65d2b802e3f907e4ffc059eb,0.0501,0.0502,1,4,166,39,1,fourthree,,,,,,,,,,,,,,,,,,,,,,,,,,,,,,,,,,,,,,,,,,,,,,,,,,,,,,,,,,,,,,,,,,,,,,,,,,,,,,,,,,,,,,,,,,,,,,,,,,,,,,,,,,,,,,,,,,,,,,,,,,,,,,,,,,,,,,,,,
,,5ea8e847aa2fbb34d8331747,2024-02-19_02h08.15.878,kallum_motion_pilot,2023.2.2,Win32,60.60606061,5ea8e847aa2fbb34d8331747,65d2b6c8f2eece985d8e374c,65d2b802e3f907e4ffc059eb,0.0502,0.0503,1,5,167,92,1,sevenfive,,,,,,,,,,,,,,,,,,,,,,,,,,,,,,,,,,,,,,,,,,,,,,,,,,,,,,,,,,,,,,,,,,,,,,,,,,,,,,,,,,,,,,,,,,,,,,,,,,,,,,,,,,,,,,,,,,,,,,,,,,,,,,,,,,,,,,,,,
,,5ea8e847aa2fbb34d8331747,2024-02-19_02h08.15.878,kallum_motion_pilot,2023.2.2,Win32,60.60606061,5ea8e847aa2fbb34d8331747,65d2b6c8f2eece985d8e374c,65d2b802e3f907e4ffc059eb,0.0504,0.0504,1,6,168,73,1,onethree,,,,,,,,,,,,,,,,,,,,,,,,,,,,,,,,,,,,,,,,,,,,,,,,,,,,,,,,,,,,,,,,,,,,,,,,,,,,,,,,,,,,,,,,,,,,,,,,,,,,,,,,,,,,,,,,,,,,,,,,,,,,,,,,,,,,,,,,,
,,5ea8e847aa2fbb34d8331747,2024-02-19_02h08.15.878,kallum_motion_pilot,2023.2.2,Win32,60.60606061,5ea8e847aa2fbb34d8331747,65d2b6c8f2eece985d8e374c,65d2b802e3f907e4ffc059eb,0.0506,0.0507,1,7,169,32,1,onetwo,,,,,,,,,,,,,,,,,,,,,,,,,,,,,,,,,,,,,,,,,,,,,,,,,,,,,,,,,,,,,,,,,,,,,,,,,,,,,,,,,,,,,,,,,,,,,,,,,,,,,,,,,,,,,,,,,,,,,,,,,,,,,,,,,,,,,,,,,
,,5ea8e847aa2fbb34d8331747,2024-02-19_02h08.15.878,kallum_motion_pilot,2023.2.2,Win32,60.60606061,5ea8e847aa2fbb34d8331747,65d2b6c8f2eece985d8e374c,65d2b802e3f907e4ffc059eb,0.0508,0.0509,1,8,170,137,1,fiveseven,,,,,,,,,,,,,,,,,,,,,,,,,,,,,,,,,,,,,,,,,,,,,,,,,,,,,,,,,,,,,,,,,,,,,,,,,,,,,,,,,,,,,,,,,,,,,,,,,,,,,,,,,,,,,,,,,,,,,,,,,,,,,,,,,,,,,,,,,
,,5ea8e847aa2fbb34d8331747,2024-02-19_02h08.15.878,kallum_motion_pilot,2023.2.2,Win32,60.60606061,5ea8e847aa2fbb34d8331747,65d2b6c8f2eece985d8e374c,65d2b802e3f907e4ffc059eb,0.0509,0.051,1,9,171,106,1,sixfive,,,,,,,,,,,,,,,,,,,,,,,,,,,,,,,,,,,,,,,,,,,,,,,,,,,,,,,,,,,,,,,,,,,,,,,,,,,,,,,,,,,,,,,,,,,,,,,,,,,,,,,,,,,,,,,,,,,,,,,,,,,,,,,,,,,,,,,,,
,,5ea8e847aa2fbb34d8331747,2024-02-19_02h08.15.878,kallum_motion_pilot,2023.2.2,Win32,60.60606061,5ea8e847aa2fbb34d8331747,65d2b6c8f2eece985d8e374c,65d2b802e3f907e4ffc059eb,0.0511,0.0512,1,10,172,131,1,sixeight,,,,,,,,,,,,,,,,,,,,,,,,,,,,,,,,,,,,,,,,,,,,,,,,,,,,,,,,,,,,,,,,,,,,,,,,,,,,,,,,,,,,,,,,,,,,,,,,,,,,,,,,,,,,,,,,,,,,,,,,,,,,,,,,,,,,,,,,,
,,5ea8e847aa2fbb34d8331747,2024-02-19_02h08.15.878,kallum_motion_pilot,2023.2.2,Win32,60.60606061,5ea8e847aa2fbb34d8331747,65d2b6c8f2eece985d8e374c,65d2b802e3f907e4ffc059eb,0.0512,0.0513,1,11,173,113,1,fiveseven,,,,,,,,,,,,,,,,,,,,,,,,,,,,,,,,,,,,,,,,,,,,,,,,,,,,,,,,,,,,,,,,,,,,,,,,,,,,,,,,,,,,,,,,,,,,,,,,,,,,,,,,,,,,,,,,,,,,,,,,,,,,,,,,,,,,,,,,,
,,5ea8e847aa2fbb34d8331747,2024-02-19_02h08.15.878,kallum_motion_pilot,2023.2.2,Win32,60.60606061,5ea8e847aa2fbb34d8331747,65d2b6c8f2eece985d8e374c,65d2b802e3f907e4ffc059eb,0.0515,0.0516,1,12,174,65,1,onethree,,,,,,,,,,,,,,,,,,,,,,,,,,,,,,,,,,,,,,,,,,,,,,,,,,,,,,,,,,,,,,,,,,,,,,,,,,,,,,,,,,,,,,,,,,,,,,,,,,,,,,,,,,,,,,,,,,,,,,,,,,,,,,,,,,,,,,,,,
,,5ea8e847aa2fbb34d8331747,2024-02-19_02h08.15.878,kallum_motion_pilot,2023.2.2,Win32,60.60606061,5ea8e847aa2fbb34d8331747,65d2b6c8f2eece985d8e374c,65d2b802e3f907e4ffc059eb,0.0516,0.0516,1,13,175,51,1,twofour,,,,,,,,,,,,,,,,,,,,,,,,,,,,,,,,,,,,,,,,,,,,,,,,,,,,,,,,,,,,,,,,,,,,,,,,,,,,,,,,,,,,,,,,,,,,,,,,,,,,,,,,,,,,,,,,,,,,,,,,,,,,,,,,,,,,,,,,,
,,5ea8e847aa2fbb34d8331747,2024-02-19_02h08.15.878,kallum_motion_pilot,2023.2.2,Win32,60.60606061,5ea8e847aa2fbb34d8331747,65d2b6c8f2eece985d8e374c,65d2b802e3f907e4ffc059eb,0.0518,0.0519,1,14,176,30,1,fourtwo,,,,,,,,,,,,,,,,,,,,,,,,,,,,,,,,,,,,,,,,,,,,,,,,,,,,,,,,,,,,,,,,,,,,,,,,,,,,,,,,,,,,,,,,,,,,,,,,,,,,,,,,,,,,,,,,,,,,,,,,,,,,,,,,,,,,,,,,,
,,5ea8e847aa2fbb34d8331747,2024-02-19_02h08.15.878,kallum_motion_pilot,2023.2.2,Win32,60.60606061,5ea8e847aa2fbb34d8331747,65d2b6c8f2eece985d8e374c,65d2b802e3f907e4ffc059eb,0.0519,0.052,1,15,177,154,1,sixfive,,,,,,,,,,,,,,,,,,,,,,,,,,,,,,,,,,,,,,,,,,,,,,,,,,,,,,,,,,,,,,,,,,,,,,,,,,,,,,,,,,,,,,,,,,,,,,,,,,,,,,,,,,,,,,,,,,,,,,,,,,,,,,,,,,,,,,,,,
,,5ea8e847aa2fbb34d8331747,2024-02-19_02h08.15.878,kallum_motion_pilot,2023.2.2,Win32,60.60606061,5ea8e847aa2fbb34d8331747,65d2b6c8f2eece985d8e374c,65d2b802e3f907e4ffc059eb,0.052,0.0521,1,16,178,121,1,fiveseven,,,,,,,,,,,,,,,,,,,,,,,,,,,,,,,,,,,,,,,,,,,,,,,,,,,,,,,,,,,,,,,,,,,,,,,,,,,,,,,,,,,,,,,,,,,,,,,,,,,,,,,,,,,,,,,,,,,,,,,,,,,,,,,,,,,,,,,,,
,,5ea8e847aa2fbb34d8331747,2024-02-19_02h08.15.878,kallum_motion_pilot,2023.2.2,Win32,60.60606061,5ea8e847aa2fbb34d8331747,65d2b6c8f2eece985d8e374c,65d2b802e3f907e4ffc059eb,0.0522,0.0523,1,17,179,23,1,fourthree,,,,,,,,,,,,,,,,,,,,,,,,,,,,,,,,,,,,,,,,,,,,,,,,,,,,,,,,,,,,,,,,,,,,,,,,,,,,,,,,,,,,,,,,,,,,,,,,,,,,,,,,,,,,,,,,,,,,,,,,,,,,,,,,,,,,,,,,,
,,5ea8e847aa2fbb34d8331747,2024-02-19_02h08.15.878,kallum_motion_pilot,2023.2.2,Win32,60.60606061,5ea8e847aa2fbb34d8331747,65d2b6c8f2eece985d8e374c,65d2b802e3f907e4ffc059eb,0.0523,0.0525,1,18,180,143,1,eightseven,,,,,,,,,,,,,,,,,,,,,,,,,,,,,,,,,,,,,,,,,,,,,,,,,,,,,,,,,,,,,,,,,,,,,,,,,,,,,,,,,,,,,,,,,,,,,,,,,,,,,,,,,,,,,,,,,,,,,,,,,,,,,,,,,,,,,,,,,
,,5ea8e847aa2fbb34d8331747,2024-02-19_02h08.15.878,kallum_motion_pilot,2023.2.2,Win32,60.60606061,5ea8e847aa2fbb34d8331747,65d2b6c8f2eece985d8e374c,65d2b802e3f907e4ffc059eb,0.0525,0.0526,1,19,181,79,1,eightseven,,,,,,,,,,,,,,,,,,,,,,,,,,,,,,,,,,,,,,,,,,,,,,,,,,,,,,,,,,,,,,,,,,,,,,,,,,,,,,,,,,,,,,,,,,,,,,,,,,,,,,,,,,,,,,,,,,,,,,,,,,,,,,,,,,,,,,,,,
,,5ea8e847aa2fbb34d8331747,2024-02-19_02h08.15.878,kallum_motion_pilot,2023.2.2,Win32,60.60606061,5ea8e847aa2fbb34d8331747,65d2b6c8f2eece985d8e374c,65d2b802e3f907e4ffc059eb,0.0526,0.0527,1,20,182,72,1,onetwo,,,,,,,,,,,,,,,,,,,,,,,,,,,,,,,,,,,,,,,,,,,,,,,,,,,,,,,,,,,,,,,,,,,,,,,,,,,,,,,,,,,,,,,,,,,,,,,,,,,,,,,,,,,,,,,,,,,,,,,,,,,,,,,,,,,,,,,,,
,,5ea8e847aa2fbb34d8331747,2024-02-19_02h08.15.878,kallum_motion_pilot,2023.2.2,Win32,60.60606061,5ea8e847aa2fbb34d8331747,65d2b6c8f2eece985d8e374c,65d2b802e3f907e4ffc059eb,0.0528,0.0528,1,21,183,63,1,fourthree,,,,,,,,,,,,,,,,,,,,,,,,,,,,,,,,,,,,,,,,,,,,,,,,,,,,,,,,,,,,,,,,,,,,,,,,,,,,,,,,,,,,,,,,,,,,,,,,,,,,,,,,,,,,,,,,,,,,,,,,,,,,,,,,,,,,,,,,,
,,5ea8e847aa2fbb34d8331747,2024-02-19_02h08.15.878,kallum_motion_pilot,2023.2.2,Win32,60.60606061,5ea8e847aa2fbb34d8331747,65d2b6c8f2eece985d8e374c,65d2b802e3f907e4ffc059eb,0.053,0.0531,1,22,184,18,1,twoone,,,,,,,,,,,,,,,,,,,,,,,,,,,,,,,,,,,,,,,,,,,,,,,,,,,,,,,,,,,,,,,,,,,,,,,,,,,,,,,,,,,,,,,,,,,,,,,,,,,,,,,,,,,,,,,,,,,,,,,,,,,,,,,,,,,,,,,,,
,,5ea8e847aa2fbb34d8331747,2024-02-19_02h08.15.878,kallum_motion_pilot,2023.2.2,Win32,60.60606061,5ea8e847aa2fbb34d8331747,65d2b6c8f2eece985d8e374c,65d2b802e3f907e4ffc059eb,0.0533,0.0534,1,23,185,71,1,fourthree,,,,,,,,,,,,,,,,,,,,,,,,,,,,,,,,,,,,,,,,,,,,,,,,,,,,,,,,,,,,,,,,,,,,,,,,,,,,,,,,,,,,,,,,,,,,,,,,,,,,,,,,,,,,,,,,,,,,,,,,,,,,,,,,,,,,,,,,,
,,5ea8e847aa2fbb34d8331747,2024-02-19_02h08.15.878,kallum_motion_pilot,2023.2.2,Win32,60.60606061,5ea8e847aa2fbb34d8331747,65d2b6c8f2eece985d8e374c,65d2b802e3f907e4ffc059eb,0.0537,0.0538,1,24,186,145,1,fiveseven,,,,,,,,,,,,,,,,,,,,,,,,,,,,,,,,,,,,,,,,,,,,,,,,,,,,,,,,,,,,,,,,,,,,,,,,,,,,,,,,,,,,,,,,,,,,,,,,,,,,,,,,,,,,,,,,,,,,,,,,,,,,,,,,,,,,,,,,,
,,5ea8e847aa2fbb34d8331747,2024-02-19_02h08.15.878,kallum_motion_pilot,2023.2.2,Win32,60.60606061,5ea8e847aa2fbb34d8331747,65d2b6c8f2eece985d8e374c,65d2b802e3f907e4ffc059eb,0.054,0.0541,1,25,187,77,1,threefour,,,,,,,,,,,,,,,,,,,,,,,,,,,,,,,,,,,,,,,,,,,,,,,,,,,,,,,,,,,,,,,,,,,,,,,,,,,,,,,,,,,,,,,,,,,,,,,,,,,,,,,,,,,,,,,,,,,,,,,,,,,,,,,,,,,,,,,,,
,,5ea8e847aa2fbb34d8331747,2024-02-19_02h08.15.878,kallum_motion_pilot,2023.2.2,Win32,60.60606061,5ea8e847aa2fbb34d8331747,65d2b6c8f2eece985d8e374c,65d2b802e3f907e4ffc059eb,0.0542,0.0544,1,26,188,6,1,fourtwo,,,,,,,,,,,,,,,,,,,,,,,,,,,,,,,,,,,,,,,,,,,,,,,,,,,,,,,,,,,,,,,,,,,,,,,,,,,,,,,,,,,,,,,,,,,,,,,,,,,,,,,,,,,,,,,,,,,,,,,,,,,,,,,,,,,,,,,,,
,,5ea8e847aa2fbb34d8331747,2024-02-19_02h08.15.878,kallum_motion_pilot,2023.2.2,Win32,60.60606061,5ea8e847aa2fbb34d8331747,65d2b6c8f2eece985d8e374c,65d2b802e3f907e4ffc059eb,0.0544,0.0546,1,27,189,136,1,fivesix,,,,,,,,,,,,,,,,,,,,,,,,,,,,,,,,,,,,,,,,,,,,,,,,,,,,,,,,,,,,,,,,,,,,,,,,,,,,,,,,,,,,,,,,,,,,,,,,,,,,,,,,,,,,,,,,,,,,,,,,,,,,,,,,,,,,,,,,,
,,5ea8e847aa2fbb34d8331747,2024-02-19_02h08.15.878,kallum_motion_pilot,2023.2.2,Win32,60.60606061,5ea8e847aa2fbb34d8331747,65d2b6c8f2eece985d8e374c,65d2b802e3f907e4ffc059eb,0.0547,0.0548,1,28,190,84,1,sevenfive,,,,,,,,,,,,,,,,,,,,,,,,,,,,,,,,,,,,,,,,,,,,,,,,,,,,,,,,,,,,,,,,,,,,,,,,,,,,,,,,,,,,,,,,,,,,,,,,,,,,,,,,,,,,,,,,,,,,,,,,,,,,,,,,,,,,,,,,,
,,5ea8e847aa2fbb34d8331747,2024-02-19_02h08.15.878,kallum_motion_pilot,2023.2.2,Win32,60.60606061,5ea8e847aa2fbb34d8331747,65d2b6c8f2eece985d8e374c,65d2b802e3f907e4ffc059eb,0.0549,0.055,1,29,191,46,1,fourtwo,,,,,,,,,,,,,,,,,,,,,,,,,,,,,,,,,,,,,,,,,,,,,,,,,,,,,,,,,,,,,,,,,,,,,,,,,,,,,,,,,,,,,,,,,,,,,,,,,,,,,,,,,,,,,,,,,,,,,,,,,,,,,,,,,,,,,,,,,
,,5ea8e847aa2fbb34d8331747,2024-02-19_02h08.15.878,kallum_motion_pilot,2023.2.2,Win32,60.60606061,5ea8e847aa2fbb34d8331747,65d2b6c8f2eece985d8e374c,65d2b802e3f907e4ffc059eb,0.0551,0.0551,1,30,192,114,1,sixfive,,,,,,,,,,,,,,,,,,,,,,,,,,,,,,,,,,,,,,,,,,,,,,,,,,,,,,,,,,,,,,,,,,,,,,,,,,,,,,,,,,,,,,,,,,,,,,,,,,,,,,,,,,,,,,,,,,,,,,,,,,,,,,,,,,,,,,,,,
,,5ea8e847aa2fbb34d8331747,2024-02-19_02h08.15.878,kallum_motion_pilot,2023.2.2,Win32,60.60606061,5ea8e847aa2fbb34d8331747,65d2b6c8f2eece985d8e374c,65d2b802e3f907e4ffc059eb,0.0552,0.0553,1,31,193,118,1,eightsix,,,,,,,,,,,,,,,,,,,,,,,,,,,,,,,,,,,,,,,,,,,,,,,,,,,,,,,,,,,,,,,,,,,,,,,,,,,,,,,,,,,,,,,,,,,,,,,,,,,,,,,,,,,,,,,,,,,,,,,,,,,,,,,,,,,,,,,,,
,,5ea8e847aa2fbb34d8331747,2024-02-19_02h08.15.878,kallum_motion_pilot,2023.2.2,Win32,60.60606061,5ea8e847aa2fbb34d8331747,65d2b6c8f2eece985d8e374c,65d2b802e3f907e4ffc059eb,0.0554,0.0554,1,32,194,68,1,threeone,,,,,,,,,,,,,,,,,,,,,,,,,,,,,,,,,,,,,,,,,,,,,,,,,,,,,,,,,,,,,,,,,,,,,,,,,,,,,,,,,,,,,,,,,,,,,,,,,,,,,,,,,,,,,,,,,,,,,,,,,,,,,,,,,,,,,,,,,
,,5ea8e847aa2fbb34d8331747,2024-02-19_02h08.15.878,kallum_motion_pilot,2023.2.2,Win32,60.60606061,5ea8e847aa2fbb34d8331747,65d2b6c8f2eece985d8e374c,65d2b802e3f907e4ffc059eb,0.0556,0.0556,1,33,195,104,1,fivesix,,,,,,,,,,,,,,,,,,,,,,,,,,,,,,,,,,,,,,,,,,,,,,,,,,,,,,,,,,,,,,,,,,,,,,,,,,,,,,,,,,,,,,,,,,,,,,,,,,,,,,,,,,,,,,,,,,,,,,,,,,,,,,,,,,,,,,,,,
,,5ea8e847aa2fbb34d8331747,2024-02-19_02h08.15.878,kallum_motion_pilot,2023.2.2,Win32,60.60606061,5ea8e847aa2fbb34d8331747,65d2b6c8f2eece985d8e374c,65d2b802e3f907e4ffc059eb,0.0557,0.0558,1,34,196,45,1,threefour,,,,,,,,,,,,,,,,,,,,,,,,,,,,,,,,,,,,,,,,,,,,,,,,,,,,,,,,,,,,,,,,,,,,,,,,,,,,,,,,,,,,,,,,,,,,,,,,,,,,,,,,,,,,,,,,,,,,,,,,,,,,,,,,,,,,,,,,,
,,5ea8e847aa2fbb34d8331747,2024-02-19_02h08.15.878,kallum_motion_pilot,2023.2.2,Win32,60.60606061,5ea8e847aa2fbb34d8331747,65d2b6c8f2eece985d8e374c,65d2b802e3f907e4ffc059eb,0.0558,0.0559,1,35,197,129,1,fiveseven,,,,,,,,,,,,,,,,,,,,,,,,,,,,,,,,,,,,,,,,,,,,,,,,,,,,,,,,,,,,,,,,,,,,,,,,,,,,,,,,,,,,,,,,,,,,,,,,,,,,,,,,,,,,,,,,,,,,,,,,,,,,,,,,,,,,,,,,,
,,5ea8e847aa2fbb34d8331747,2024-02-19_02h08.15.878,kallum_motion_pilot,2023.2.2,Win32,60.60606061,5ea8e847aa2fbb34d8331747,65d2b6c8f2eece985d8e374c,65d2b802e3f907e4ffc059eb,0.0561,0.0561,1,36,198,120,1,fivesix,,,,,,,,,,,,,,,,,,,,,,,,,,,,,,,,,,,,,,,,,,,,,,,,,,,,,,,,,,,,,,,,,,,,,,,,,,,,,,,,,,,,,,,,,,,,,,,,,,,,,,,,,,,,,,,,,,,,,,,,,,,,,,,,,,,,,,,,,
,,5ea8e847aa2fbb34d8331747,2024-02-19_02h08.15.878,kallum_motion_pilot,2023.2.2,Win32,60.60606061,5ea8e847aa2fbb34d8331747,65d2b6c8f2eece985d8e374c,65d2b802e3f907e4ffc059eb,0.0563,0.0564,1,37,199,116,1,sevenfive,,,,,,,,,,,,,,,,,,,,,,,,,,,,,,,,,,,,,,,,,,,,,,,,,,,,,,,,,,,,,,,,,,,,,,,,,,,,,,,,,,,,,,,,,,,,,,,,,,,,,,,,,,,,,,,,,,,,,,,,,,,,,,,,,,,,,,,,,
,,5ea8e847aa2fbb34d8331747,2024-02-19_02h08.15.878,kallum_motion_pilot,2023.2.2,Win32,60.60606061,5ea8e847aa2fbb34d8331747,65d2b6c8f2eece985d8e374c,65d2b802e3f907e4ffc059eb,0.0564,0.0565,1,38,200,69,1,threefour,,,,,,,,,,,,,,,,,,,,,,,,,,,,,,,,,,,,,,,,,,,,,,,,,,,,,,,,,,,,,,,,,,,,,,,,,,,,,,,,,,,,,,,,,,,,,,,,,,,,,,,,,,,,,,,,,,,,,,,,,,,,,,,,,,,,,,,,,
,,5ea8e847aa2fbb34d8331747,2024-02-19_02h08.15.878,kallum_motion_pilot,2023.2.2,Win32,60.60606061,5ea8e847aa2fbb34d8331747,65d2b6c8f2eece985d8e374c,65d2b802e3f907e4ffc059eb,0.0566,0.0567,1,39,201,22,1,fourtwo,,,,,,,,,,,,,,,,,,,,,,,,,,,,,,,,,,,,,,,,,,,,,,,,,,,,,,,,,,,,,,,,,,,,,,,,,,,,,,,,,,,,,,,,,,,,,,,,,,,,,,,,,,,,,,,,,,,,,,,,,,,,,,,,,,,,,,,,,
,,5ea8e847aa2fbb34d8331747,2024-02-19_02h08.15.878,kallum_motion_pilot,2023.2.2,Win32,60.60606061,5ea8e847aa2fbb34d8331747,65d2b6c8f2eece985d8e374c,65d2b802e3f907e4ffc059eb,0.0567,0.0568,1,40,202,127,1,eightseven,,,,,,,,,,,,,,,,,,,,,,,,,,,,,,,,,,,,,,,,,,,,,,,,,,,,,,,,,,,,,,,,,,,,,,,,,,,,,,,,,,,,,,,,,,,,,,,,,,,,,,,,,,,,,,,,,,,,,,,,,,,,,,,,,,,,,,,,,
,,5ea8e847aa2fbb34d8331747,2024-02-19_02h08.15.878,kallum_motion_pilot,2023.2.2,Win32,60.60606061,5ea8e847aa2fbb34d8331747,65d2b6c8f2eece985d8e374c,65d2b802e3f907e4ffc059eb,0.057,0.057,1,41,203,19,1,twofour,,,,,,,,,,,,,,,,,,,,,,,,,,,,,,,,,,,,,,,,,,,,,,,,,,,,,,,,,,,,,,,,,,,,,,,,,,,,,,,,,,,,,,,,,,,,,,,,,,,,,,,,,,,,,,,,,,,,,,,,,,,,,,,,,,,,,,,,,
,,5ea8e847aa2fbb34d8331747,2024-02-19_02h08.15.878,kallum_motion_pilot,2023.2.2,Win32,60.60606061,5ea8e847aa2fbb34d8331747,65d2b6c8f2eece985d8e374c,65d2b802e3f907e4ffc059eb,0.0571,0.0572,1,42,204,67,1,twofour,,,,,,,,,,,,,,,,,,,,,,,,,,,,,,,,,,,,,,,,,,,,,,,,,,,,,,,,,,,,,,,,,,,,,,,,,,,,,,,,,,,,,,,,,,,,,,,,,,,,,,,,,,,,,,,,,,,,,,,,,,,,,,,,,,,,,,,,,
,,5ea8e847aa2fbb34d8331747,2024-02-19_02h08.15.878,kallum_motion_pilot,2023.2.2,Win32,60.60606061,5ea8e847aa2fbb34d8331747,65d2b6c8f2eece985d8e374c,65d2b802e3f907e4ffc059eb,0.0573,0.0573,1,43,205,115,1,sixeight,,,,,,,,,,,,,,,,,,,,,,,,,,,,,,,,,,,,,,,,,,,,,,,,,,,,,,,,,,,,,,,,,,,,,,,,,,,,,,,,,,,,,,,,,,,,,,,,,,,,,,,,,,,,,,,,,,,,,,,,,,,,,,,,,,,,,,,,,
,,5ea8e847aa2fbb34d8331747,2024-02-19_02h08.15.878,kallum_motion_pilot,2023.2.2,Win32,60.60606061,5ea8e847aa2fbb34d8331747,65d2b6c8f2eece985d8e374c,65d2b802e3f907e4ffc059eb,0.0575,0.0576,1,44,206,126,1,eightsix,,,,,,,,,,,,,,,,,,,,,,,,,,,,,,,,,,,,,,,,,,,,,,,,,,,,,,,,,,,,,,,,,,,,,,,,,,,,,,,,,,,,,,,,,,,,,,,,,,,,,,,,,,,,,,,,,,,,,,,,,,,,,,,,,,,,,,,,,
,,5ea8e847aa2fbb34d8331747,2024-02-19_02h08.15.878,kallum_motion_pilot,2023.2.2,Win32,60.60606061,5ea8e847aa2fbb34d8331747,65d2b6c8f2eece985d8e374c,65d2b802e3f907e4ffc059eb,0.0576,0.0577,1,45,207,66,1,twoone,,,,,,,,,,,,,,,,,,,,,,,,,,,,,,,,,,,,,,,,,,,,,,,,,,,,,,,,,,,,,,,,,,,,,,,,,,,,,,,,,,,,,,,,,,,,,,,,,,,,,,,,,,,,,,,,,,,,,,,,,,,,,,,,,,,,,,,,,
,,5ea8e847aa2fbb34d8331747,2024-02-19_02h08.15.878,kallum_motion_pilot,2023.2.2,Win32,60.60606061,5ea8e847aa2fbb34d8331747,65d2b6c8f2eece985d8e374c,65d2b802e3f907e4ffc059eb,0.0577,0.0578,1,46,208,155,1,sixeight,,,,,,,,,,,,,,,,,,,,,,,,,,,,,,,,,,,,,,,,,,,,,,,,,,,,,,,,,,,,,,,,,,,,,,,,,,,,,,,,,,,,,,,,,,,,,,,,,,,,,,,,,,,,,,,,,,,,,,,,,,,,,,,,,,,,,,,,,
,,5ea8e847aa2fbb34d8331747,2024-02-19_02h08.15.878,kallum_motion_pilot,2023.2.2,Win32,60.60606061,5ea8e847aa2fbb34d8331747,65d2b6c8f2eece985d8e374c,65d2b802e3f907e4ffc059eb,0.0579,0.058,1,47,209,151,1,eightseven,,,,,,,,,,,,,,,,,,,,,,,,,,,,,,,,,,,,,,,,,,,,,,,,,,,,,,,,,,,,,,,,,,,,,,,,,,,,,,,,,,,,,,,,,,,,,,,,,,,,,,,,,,,,,,,,,,,,,,,,,,,,,,,,,,,,,,,,,
,,5ea8e847aa2fbb34d8331747,2024-02-19_02h08.15.878,kallum_motion_pilot,2023.2.2,Win32,60.60606061,5ea8e847aa2fbb34d8331747,65d2b6c8f2eece985d8e374c,65d2b802e3f907e4ffc059eb,0.0582,0.0582,1,48,210,102,1,eightsix,,,,,,,,,,,,,,,,,,,,,,,,,,,,,,,,,,,,,,,,,,,,,,,,,,,,,,,,,,,,,,,,,,,,,,,,,,,,,,,,,,,,,,,,,,,,,,,,,,,,,,,,,,,,,,,,,,,,,,,,,,,,,,,,,,,,,,,,,
,,5ea8e847aa2fbb34d8331747,2024-02-19_02h08.15.878,kallum_motion_pilot,2023.2.2,Win32,60.60606061,5ea8e847aa2fbb34d8331747,65d2b6c8f2eece985d8e374c,65d2b802e3f907e4ffc059eb,0.0583,0.0584,1,49,211,117,1,seveneight,,,,,,,,,,,,,,,,,,,,,,,,,,,,,,,,,,,,,,,,,,,,,,,,,,,,,,,,,,,,,,,,,,,,,,,,,,,,,,,,,,,,,,,,,,,,,,,,,,,,,,,,,,,,,,,,,,,,,,,,,,,,,,,,,,,,,,,,,
,,5ea8e847aa2fbb34d8331747,2024-02-19_02h08.15.878,kallum_motion_pilot,2023.2.2,Win32,60.60606061,5ea8e847aa2fbb34d8331747,65d2b6c8f2eece985d8e374c,65d2b802e3f907e4ffc059eb,0.0585,0.0585,1,50,212,57,1,onethree,,,,,,,,,,,,,,,,,,,,,,,,,,,,,,,,,,,,,,,,,,,,,,,,,,,,,,,,,,,,,,,,,,,,,,,,,,,,,,,,,,,,,,,,,,,,,,,,,,,,,,,,,,,,,,,,,,,,,,,,,,,,,,,,,,,,,,,,,
,,5ea8e847aa2fbb34d8331747,2024-02-19_02h08.15.878,kallum_motion_pilot,2023.2.2,Win32,60.60606061,5ea8e847aa2fbb34d8331747,65d2b6c8f2eece985d8e374c,65d2b802e3f907e4ffc059eb,0.0586,0.0587,1,51,213,13,1,threefour,,,,,,,,,,,,,,,,,,,,,,,,,,,,,,,,,,,,,,,,,,,,,,,,,,,,,,,,,,,,,,,,,,,,,,,,,,,,,,,,,,,,,,,,,,,,,,,,,,,,,,,,,,,,,,,,,,,,,,,,,,,,,,,,,,,,,,,,,
,,5ea8e847aa2fbb34d8331747,2024-02-19_02h08.15.878,kallum_motion_pilot,2023.2.2,Win32,60.60606061,5ea8e847aa2fbb34d8331747,65d2b6c8f2eece985d8e374c,65d2b802e3f907e4ffc059eb,0.0588,0.0588,1,52,214,36,1,threeone,,,,,,,,,,,,,,,,,,,,,,,,,,,,,,,,,,,,,,,,,,,,,,,,,,,,,,,,,,,,,,,,,,,,,,,,,,,,,,,,,,,,,,,,,,,,,,,,,,,,,,,,,,,,,,,,,,,,,,,,,,,,,,,,,,,,,,,,,
,,5ea8e847aa2fbb34d8331747,2024-02-19_02h08.15.878,kallum_motion_pilot,2023.2.2,Win32,60.60606061,5ea8e847aa2fbb34d8331747,65d2b6c8f2eece985d8e374c,65d2b802e3f907e4ffc059eb,0.0589,0.0591,1,53,215,139,1,sixeight,,,,,,,,,,,,,,,,,,,,,,,,,,,,,,,,,,,,,,,,,,,,,,,,,,,,,,,,,,,,,,,,,,,,,,,,,,,,,,,,,,,,,,,,,,,,,,,,,,,,,,,,,,,,,,,,,,,,,,,,,,,,,,,,,,,,,,,,,
,,5ea8e847aa2fbb34d8331747,2024-02-19_02h08.15.878,kallum_motion_pilot,2023.2.2,Win32,60.60606061,5ea8e847aa2fbb34d8331747,65d2b6c8f2eece985d8e374c,65d2b802e3f907e4ffc059eb,0.0591,0.0592,1,54,216,156,1,sevenfive,,,,,,,,,,,,,,,,,,,,,,,,,,,,,,,,,,,,,,,,,,,,,,,,,,,,,,,,,,,,,,,,,,,,,,,,,,,,,,,,,,,,,,,,,,,,,,,,,,,,,,,,,,,,,,,,,,,,,,,,,,,,,,,,,,,,,,,,,
,,5ea8e847aa2fbb34d8331747,2024-02-19_02h08.15.878,kallum_motion_pilot,2023.2.2,Win32,60.60606061,5ea8e847aa2fbb34d8331747,65d2b6c8f2eece985d8e374c,65d2b802e3f907e4ffc059eb,0.0592,0.0593,1,55,217,59,1,twofour,,,,,,,,,,,,,,,,,,,,,,,,,,,,,,,,,,,,,,,,,,,,,,,,,,,,,,,,,,,,,,,,,,,,,,,,,,,,,,,,,,,,,,,,,,,,,,,,,,,,,,,,,,,,,,,,,,,,,,,,,,,,,,,,,,,,,,,,,
,,5ea8e847aa2fbb34d8331747,2024-02-19_02h08.15.878,kallum_motion_pilot,2023.2.2,Win32,60.60606061,5ea8e847aa2fbb34d8331747,65d2b6c8f2eece985d8e374c,65d2b802e3f907e4ffc059eb,0.0595,0.0595,1,56,218,3,1,twofour,,,,,,,,,,,,,,,,,,,,,,,,,,,,,,,,,,,,,,,,,,,,,,,,,,,,,,,,,,,,,,,,,,,,,,,,,,,,,,,,,,,,,,,,,,,,,,,,,,,,,,,,,,,,,,,,,,,,,,,,,,,,,,,,,,,,,,,,,
,,5ea8e847aa2fbb34d8331747,2024-02-19_02h08.15.878,kallum_motion_pilot,2023.2.2,Win32,60.60606061,5ea8e847aa2fbb34d8331747,65d2b6c8f2eece985d8e374c,65d2b802e3f907e4ffc059eb,0.0603,0.0604,1,57,219,148,1,sevenfive,,,,,,,,,,,,,,,,,,,,,,,,,,,,,,,,,,,,,,,,,,,,,,,,,,,,,,,,,,,,,,,,,,,,,,,,,,,,,,,,,,,,,,,,,,,,,,,,,,,,,,,,,,,,,,,,,,,,,,,,,,,,,,,,,,,,,,,,,
,,5ea8e847aa2fbb34d8331747,2024-02-19_02h08.15.878,kallum_motion_pilot,2023.2.2,Win32,60.60606061,5ea8e847aa2fbb34d8331747,65d2b6c8f2eece985d8e374c,65d2b802e3f907e4ffc059eb,0.0605,0.0606,1,58,220,85,1,seveneight,,,,,,,,,,,,,,,,,,,,,,,,,,,,,,,,,,,,,,,,,,,,,,,,,,,,,,,,,,,,,,,,,,,,,,,,,,,,,,,,,,,,,,,,,,,,,,,,,,,,,,,,,,,,,,,,,,,,,,,,,,,,,,,,,,,,,,,,,
,,5ea8e847aa2fbb34d8331747,2024-02-19_02h08.15.878,kallum_motion_pilot,2023.2.2,Win32,60.60606061,5ea8e847aa2fbb34d8331747,65d2b6c8f2eece985d8e374c,65d2b802e3f907e4ffc059eb,0.0607,0.0608,1,59,221,86,1,eightsix,,,,,,,,,,,,,,,,,,,,,,,,,,,,,,,,,,,,,,,,,,,,,,,,,,,,,,,,,,,,,,,,,,,,,,,,,,,,,,,,,,,,,,,,,,,,,,,,,,,,,,,,,,,,,,,,,,,,,,,,,,,,,,,,,,,,,,,,,
,,5ea8e847aa2fbb34d8331747,2024-02-19_02h08.15.878,kallum_motion_pilot,2023.2.2,Win32,60.60606061,5ea8e847aa2fbb34d8331747,65d2b6c8f2eece985d8e374c,65d2b802e3f907e4ffc059eb,0.0609,0.061,1,60,222,81,1,fiveseven,,,,,,,,,,,,,,,,,,,,,,,,,,,,,,,,,,,,,,,,,,,,,,,,,,,,,,,,,,,,,,,,,,,,,,,,,,,,,,,,,,,,,,,,,,,,,,,,,,,,,,,,,,,,,,,,,,,,,,,,,,,,,,,,,,,,,,,,,
,,5ea8e847aa2fbb34d8331747,2024-02-19_02h08.15.878,kallum_motion_pilot,2023.2.2,Win32,60.60606061,5ea8e847aa2fbb34d8331747,65d2b6c8f2eece985d8e374c,65d2b802e3f907e4ffc059eb,0.0611,0.0612,1,61,223,80,1,fivesix,,,,,,,,,,,,,,,,,,,,,,,,,,,,,,,,,,,,,,,,,,,,,,,,,,,,,,,,,,,,,,,,,,,,,,,,,,,,,,,,,,,,,,,,,,,,,,,,,,,,,,,,,,,,,,,,,,,,,,,,,,,,,,,,,,,,,,,,,
,,5ea8e847aa2fbb34d8331747,2024-02-19_02h08.15.878,kallum_motion_pilot,2023.2.2,Win32,60.60606061,5ea8e847aa2fbb34d8331747,65d2b6c8f2eece985d8e374c,65d2b802e3f907e4ffc059eb,0.0613,0.0613,1,62,224,97,1,fiveseven,,,,,,,,,,,,,,,,,,,,,,,,,,,,,,,,,,,,,,,,,,,,,,,,,,,,,,,,,,,,,,,,,,,,,,,,,,,,,,,,,,,,,,,,,,,,,,,,,,,,,,,,,,,,,,,,,,,,,,,,,,,,,,,,,,,,,,,,,
,,5ea8e847aa2fbb34d8331747,2024-02-19_02h08.15.878,kallum_motion_pilot,2023.2.2,Win32,60.60606061,5ea8e847aa2fbb34d8331747,65d2b6c8f2eece985d8e374c,65d2b802e3f907e4ffc059eb,0.0614,0.0615,1,63,225,0,1,onetwo,,,,,,,,,,,,,,,,,,,,,,,,,,,,,,,,,,,,,,,,,,,,,,,,,,,,,,,,,,,,,,,,,,,,,,,,,,,,,,,,,,,,,,,,,,,,,,,,,,,,,,,,,,,,,,,,,,,,,,,,,,,,,,,,,,,,,,,,,
,,5ea8e847aa2fbb34d8331747,2024-02-19_02h08.15.878,kallum_motion_pilot,2023.2.2,Win32,60.60606061,5ea8e847aa2fbb34d8331747,65d2b6c8f2eece985d8e374c,65d2b802e3f907e4ffc059eb,0.0616,0.0617,1,64,226,82,1,sixfive,,,,,,,,,,,,,,,,,,,,,,,,,,,,,,,,,,,,,,,,,,,,,,,,,,,,,,,,,,,,,,,,,,,,,,,,,,,,,,,,,,,,,,,,,,,,,,,,,,,,,,,,,,,,,,,,,,,,,,,,,,,,,,,,,,,,,,,,,
,,5ea8e847aa2fbb34d8331747,2024-02-19_02h08.15.878,kallum_motion_pilot,2023.2.2,Win32,60.60606061,5ea8e847aa2fbb34d8331747,65d2b6c8f2eece985d8e374c,65d2b802e3f907e4ffc059eb,0.0617,0.0618,1,65,227,88,1,fivesix,,,,,,,,,,,,,,,,,,,,,,,,,,,,,,,,,,,,,,,,,,,,,,,,,,,,,,,,,,,,,,,,,,,,,,,,,,,,,,,,,,,,,,,,,,,,,,,,,,,,,,,,,,,,,,,,,,,,,,,,,,,,,,,,,,,,,,,,,
,,5ea8e847aa2fbb34d8331747,2024-02-19_02h08.15.878,kallum_motion_pilot,2023.2.2,Win32,60.60606061,5ea8e847aa2fbb34d8331747,65d2b6c8f2eece985d8e374c,65d2b802e3f907e4ffc059eb,0.0619,0.062,1,66,228,146,1,sixfive,,,,,,,,,,,,,,,,,,,,,,,,,,,,,,,,,,,,,,,,,,,,,,,,,,,,,,,,,,,,,,,,,,,,,,,,,,,,,,,,,,,,,,,,,,,,,,,,,,,,,,,,,,,,,,,,,,,,,,,,,,,,,,,,,,,,,,,,,
,,5ea8e847aa2fbb34d8331747,2024-02-19_02h08.15.878,kallum_motion_pilot,2023.2.2,Win32,60.60606061,5ea8e847aa2fbb34d8331747,65d2b6c8f2eece985d8e374c,65d2b802e3f907e4ffc059eb,0.0621,0.0622,1,67,229,43,1,twofour,,,,,,,,,,,,,,,,,,,,,,,,,,,,,,,,,,,,,,,,,,,,,,,,,,,,,,,,,,,,,,,,,,,,,,,,,,,,,,,,,,,,,,,,,,,,,,,,,,,,,,,,,,,,,,,,,,,,,,,,,,,,,,,,,,,,,,,,,
,,5ea8e847aa2fbb34d8331747,2024-02-19_02h08.15.878,kallum_motion_pilot,2023.2.2,Win32,60.60606061,5ea8e847aa2fbb34d8331747,65d2b6c8f2eece985d8e374c,65d2b802e3f907e4ffc059eb,0.0623,0.0624,1,68,230,64,1,onetwo,,,,,,,,,,,,,,,,,,,,,,,,,,,,,,,,,,,,,,,,,,,,,,,,,,,,,,,,,,,,,,,,,,,,,,,,,,,,,,,,,,,,,,,,,,,,,,,,,,,,,,,,,,,,,,,,,,,,,,,,,,,,,,,,,,,,,,,,,
,,5ea8e847aa2fbb34d8331747,2024-02-19_02h08.15.878,kallum_motion_pilot,2023.2.2,Win32,60.60606061,5ea8e847aa2fbb34d8331747,65d2b6c8f2eece985d8e374c,65d2b802e3f907e4ffc059eb,0.0625,0.0626,1,69,231,35,1,twofour,,,,,,,,,,,,,,,,,,,,,,,,,,,,,,,,,,,,,,,,,,,,,,,,,,,,,,,,,,,,,,,,,,,,,,,,,,,,,,,,,,,,,,,,,,,,,,,,,,,,,,,,,,,,,,,,,,,,,,,,,,,,,,,,,,,,,,,,,
,,5ea8e847aa2fbb34d8331747,2024-02-19_02h08.15.878,kallum_motion_pilot,2023.2.2,Win32,60.60606061,5ea8e847aa2fbb34d8331747,65d2b6c8f2eece985d8e374c,65d2b802e3f907e4ffc059eb,0.0627,0.0628,1,70,232,159,1,eightseven,,,,,,,,,,,,,,,,,,,,,,,,,,,,,,,,,,,,,,,,,,,,,,,,,,,,,,,,,,,,,,,,,,,,,,,,,,,,,,,,,,,,,,,,,,,,,,,,,,,,,,,,,,,,,,,,,,,,,,,,,,,,,,,,,,,,,,,,,
,,5ea8e847aa2fbb34d8331747,2024-02-19_02h08.15.878,kallum_motion_pilot,2023.2.2,Win32,60.60606061,5ea8e847aa2fbb34d8331747,65d2b6c8f2eece985d8e374c,65d2b802e3f907e4ffc059eb,0.0628,0.0629,1,71,233,110,1,eightsix,,,,,,,,,,,,,,,,,,,,,,,,,,,,,,,,,,,,,,,,,,,,,,,,,,,,,,,,,,,,,,,,,,,,,,,,,,,,,,,,,,,,,,,,,,,,,,,,,,,,,,,,,,,,,,,,,,,,,,,,,,,,,,,,,,,,,,,,,
,,5ea8e847aa2fbb34d8331747,2024-02-19_02h08.15.878,kallum_motion_pilot,2023.2.2,Win32,60.60606061,5ea8e847aa2fbb34d8331747,65d2b6c8f2eece985d8e374c,65d2b802e3f907e4ffc059eb,0.063,0.063,1,72,234,90,1,sixfive,,,,,,,,,,,,,,,,,,,,,,,,,,,,,,,,,,,,,,,,,,,,,,,,,,,,,,,,,,,,,,,,,,,,,,,,,,,,,,,,,,,,,,,,,,,,,,,,,,,,,,,,,,,,,,,,,,,,,,,,,,,,,,,,,,,,,,,,,
,,5ea8e847aa2fbb34d8331747,2024-02-19_02h08.15.878,kallum_motion_pilot,2023.2.2,Win32,60.60606061,5ea8e847aa2fbb34d8331747,65d2b6c8f2eece985d8e374c,65d2b802e3f907e4ffc059eb,0.0632,0.0632,1,73,235,21,1,threefour,,,,,,,,,,,,,,,,,,,,,,,,,,,,,,,,,,,,,,,,,,,,,,,,,,,,,,,,,,,,,,,,,,,,,,,,,,,,,,,,,,,,,,,,,,,,,,,,,,,,,,,,,,,,,,,,,,,,,,,,,,,,,,,,,,,,,,,,,
,,5ea8e847aa2fbb34d8331747,2024-02-19_02h08.15.878,kallum_motion_pilot,2023.2.2,Win32,60.60606061,5ea8e847aa2fbb34d8331747,65d2b6c8f2eece985d8e374c,65d2b802e3f907e4ffc059eb,0.0633,0.0634,1,74,236,111,1,eightseven,,,,,,,,,,,,,,,,,,,,,,,,,,,,,,,,,,,,,,,,,,,,,,,,,,,,,,,,,,,,,,,,,,,,,,,,,,,,,,,,,,,,,,,,,,,,,,,,,,,,,,,,,,,,,,,,,,,,,,,,,,,,,,,,,,,,,,,,,
,,5ea8e847aa2fbb34d8331747,2024-02-19_02h08.15.878,kallum_motion_pilot,2023.2.2,Win32,60.60606061,5ea8e847aa2fbb34d8331747,65d2b6c8f2eece985d8e374c,65d2b802e3f907e4ffc059eb,0.0634,0.0635,1,75,237,53,1,threefour,,,,,,,,,,,,,,,,,,,,,,,,,,,,,,,,,,,,,,,,,,,,,,,,,,,,,,,,,,,,,,,,,,,,,,,,,,,,,,,,,,,,,,,,,,,,,,,,,,,,,,,,,,,,,,,,,,,,,,,,,,,,,,,,,,,,,,,,,
,,5ea8e847aa2fbb34d8331747,2024-02-19_02h08.15.878,kallum_motion_pilot,2023.2.2,Win32,60.60606061,5ea8e847aa2fbb34d8331747,65d2b6c8f2eece985d8e374c,65d2b802e3f907e4ffc059eb,0.0637,0.0638,1,76,238,109,1,seveneight,,,,,,,,,,,,,,,,,,,,,,,,,,,,,,,,,,,,,,,,,,,,,,,,,,,,,,,,,,,,,,,,,,,,,,,,,,,,,,,,,,,,,,,,,,,,,,,,,,,,,,,,,,,,,,,,,,,,,,,,,,,,,,,,,,,,,,,,,
,,5ea8e847aa2fbb34d8331747,2024-02-19_02h08.15.878,kallum_motion_pilot,2023.2.2,Win32,60.60606061,5ea8e847aa2fbb34d8331747,65d2b6c8f2eece985d8e374c,65d2b802e3f907e4ffc059eb,0.0638,0.0639,1,77,239,130,1,sixfive,,,,,,,,,,,,,,,,,,,,,,,,,,,,,,,,,,,,,,,,,,,,,,,,,,,,,,,,,,,,,,,,,,,,,,,,,,,,,,,,,,,,,,,,,,,,,,,,,,,,,,,,,,,,,,,,,,,,,,,,,,,,,,,,,,,,,,,,,
,,5ea8e847aa2fbb34d8331747,2024-02-19_02h08.15.878,kallum_motion_pilot,2023.2.2,Win32,60.60606061,5ea8e847aa2fbb34d8331747,65d2b6c8f2eece985d8e374c,65d2b802e3f907e4ffc059eb,0.064,0.0641,1,78,240,26,1,twoone,,,,,,,,,,,,,,,,,,,,,,,,,,,,,,,,,,,,,,,,,,,,,,,,,,,,,,,,,,,,,,,,,,,,,,,,,,,,,,,,,,,,,,,,,,,,,,,,,,,,,,,,,,,,,,,,,,,,,,,,,,,,,,,,,,,,,,,,,
,,5ea8e847aa2fbb34d8331747,2024-02-19_02h08.15.878,kallum_motion_pilot,2023.2.2,Win32,60.60606061,5ea8e847aa2fbb34d8331747,65d2b6c8f2eece985d8e374c,65d2b802e3f907e4ffc059eb,0.0641,0.0643,1,79,241,12,1,threeone,,,,,,,,,,,,,,,,,,,,,,,,,,,,,,,,,,,,,,,,,,,,,,,,,,,,,,,,,,,,,,,,,,,,,,,,,,,,,,,,,,,,,,,,,,,,,,,,,,,,,,,,,,,,,,,,,,,,,,,,,,,,,,,,,,,,,,,,,
,,5ea8e847aa2fbb34d8331747,2024-02-19_02h08.15.878,kallum_motion_pilot,2023.2.2,Win32,60.60606061,5ea8e847aa2fbb34d8331747,65d2b6c8f2eece985d8e374c,65d2b802e3f907e4ffc059eb,0.0644,0.0644,1,80,242,25,1,onethree,,,,,,,,,,,,,,,,,,,,,,,,,,,,,,,,,,,,,,,,,,,,,,,,,,,,,,,,,,,,,,,,,,,,,,,,,,,,,,,,,,,,,,,,,,,,,,,,,,,,,,,,,,,,,,,,,,,,,,,,,,,,,,,,,,,,,,,,,
,,5ea8e847aa2fbb34d8331747,2024-02-19_02h08.15.878,kallum_motion_pilot,2023.2.2,Win32,60.60606061,5ea8e847aa2fbb34d8331747,65d2b6c8f2eece985d8e374c,65d2b802e3f907e4ffc059eb,0.0645,0.0647,1,81,243,138,1,sixfive,,,,,,,,,,,,,,,,,,,,,,,,,,,,,,,,,,,,,,,,,,,,,,,,,,,,,,,,,,,,,,,,,,,,,,,,,,,,,,,,,,,,,,,,,,,,,,,,,,,,,,,,,,,,,,,,,,,,,,,,,,,,,,,,,,,,,,,,,
,,5ea8e847aa2fbb34d8331747,2024-02-19_02h08.15.878,kallum_motion_pilot,2023.2.2,Win32,60.60606061,5ea8e847aa2fbb34d8331747,65d2b6c8f2eece985d8e374c,65d2b802e3f907e4ffc059eb,0.0647,0.0648,1,82,244,24,1,onetwo,,,,,,,,,,,,,,,,,,,,,,,,,,,,,,,,,,,,,,,,,,,,,,,,,,,,,,,,,,,,,,,,,,,,,,,,,,,,,,,,,,,,,,,,,,,,,,,,,,,,,,,,,,,,,,,,,,,,,,,,,,,,,,,,,,,,,,,,,
,,5ea8e847aa2fbb34d8331747,2024-02-19_02h08.15.878,kallum_motion_pilot,2023.2.2,Win32,60.60606061,5ea8e847aa2fbb34d8331747,65d2b6c8f2eece985d8e374c,65d2b802e3f907e4ffc059eb,0.0649,0.065,1,83,245,132,1,sevenfive,,,,,,,,,,,,,,,,,,,,,,,,,,,,,,,,,,,,,,,,,,,,,,,,,,,,,,,,,,,,,,,,,,,,,,,,,,,,,,,,,,,,,,,,,,,,,,,,,,,,,,,,,,,,,,,,,,,,,,,,,,,,,,,,,,,,,,,,,
,,5ea8e847aa2fbb34d8331747,2024-02-19_02h08.15.878,kallum_motion_pilot,2023.2.2,Win32,60.60606061,5ea8e847aa2fbb34d8331747,65d2b6c8f2eece985d8e374c,65d2b802e3f907e4ffc059eb,0.065,0.0652,1,84,246,141,1,seveneight,,,,,,,,,,,,,,,,,,,,,,,,,,,,,,,,,,,,,,,,,,,,,,,,,,,,,,,,,,,,,,,,,,,,,,,,,,,,,,,,,,,,,,,,,,,,,,,,,,,,,,,,,,,,,,,,,,,,,,,,,,,,,,,,,,,,,,,,,
,,5ea8e847aa2fbb34d8331747,2024-02-19_02h08.15.878,kallum_motion_pilot,2023.2.2,Win32,60.60606061,5ea8e847aa2fbb34d8331747,65d2b6c8f2eece985d8e374c,65d2b802e3f907e4ffc059eb,0.0653,0.0653,1,85,247,74,1,twoone,,,,,,,,,,,,,,,,,,,,,,,,,,,,,,,,,,,,,,,,,,,,,,,,,,,,,,,,,,,,,,,,,,,,,,,,,,,,,,,,,,,,,,,,,,,,,,,,,,,,,,,,,,,,,,,,,,,,,,,,,,,,,,,,,,,,,,,,,
,,5ea8e847aa2fbb34d8331747,2024-02-19_02h08.15.878,kallum_motion_pilot,2023.2.2,Win32,60.60606061,5ea8e847aa2fbb34d8331747,65d2b6c8f2eece985d8e374c,65d2b802e3f907e4ffc059eb,0.0655,0.0656,1,86,248,161,1,fiveseven,,,,,,,,,,,,,,,,,,,,,,,,,,,,,,,,,,,,,,,,,,,,,,,,,,,,,,,,,,,,,,,,,,,,,,,,,,,,,,,,,,,,,,,,,,,,,,,,,,,,,,,,,,,,,,,,,,,,,,,,,,,,,,,,,,,,,,,,,
,,5ea8e847aa2fbb34d8331747,2024-02-19_02h08.15.878,kallum_motion_pilot,2023.2.2,Win32,60.60606061,5ea8e847aa2fbb34d8331747,65d2b6c8f2eece985d8e374c,65d2b802e3f907e4ffc059eb,0.0656,0.0656,1,87,249,58,1,twoone,,,,,,,,,,,,,,,,,,,,,,,,,,,,,,,,,,,,,,,,,,,,,,,,,,,,,,,,,,,,,,,,,,,,,,,,,,,,,,,,,,,,,,,,,,,,,,,,,,,,,,,,,,,,,,,,,,,,,,,,,,,,,,,,,,,,,,,,,
,,5ea8e847aa2fbb34d8331747,2024-02-19_02h08.15.878,kallum_motion_pilot,2023.2.2,Win32,60.60606061,5ea8e847aa2fbb34d8331747,65d2b6c8f2eece985d8e374c,65d2b802e3f907e4ffc059eb,0.0657,0.0658,1,88,250,31,1,fourthree,,,,,,,,,,,,,,,,,,,,,,,,,,,,,,,,,,,,,,,,,,,,,,,,,,,,,,,,,,,,,,,,,,,,,,,,,,,,,,,,,,,,,,,,,,,,,,,,,,,,,,,,,,,,,,,,,,,,,,,,,,,,,,,,,,,,,,,,,
,,5ea8e847aa2fbb34d8331747,2024-02-19_02h08.15.878,kallum_motion_pilot,2023.2.2,Win32,60.60606061,5ea8e847aa2fbb34d8331747,65d2b6c8f2eece985d8e374c,65d2b802e3f907e4ffc059eb,0.066,0.066,1,89,251,78,1,fourtwo,,,,,,,,,,,,,,,,,,,,,,,,,,,,,,,,,,,,,,,,,,,,,,,,,,,,,,,,,,,,,,,,,,,,,,,,,,,,,,,,,,,,,,,,,,,,,,,,,,,,,,,,,,,,,,,,,,,,,,,,,,,,,,,,,,,,,,,,,
,,5ea8e847aa2fbb34d8331747,2024-02-19_02h08.15.878,kallum_motion_pilot,2023.2.2,Win32,60.60606061,5ea8e847aa2fbb34d8331747,65d2b6c8f2eece985d8e374c,65d2b802e3f907e4ffc059eb,0.0662,0.0663,1,90,252,50,1,twoone,,,,,,,,,,,,,,,,,,,,,,,,,,,,,,,,,,,,,,,,,,,,,,,,,,,,,,,,,,,,,,,,,,,,,,,,,,,,,,,,,,,,,,,,,,,,,,,,,,,,,,,,,,,,,,,,,,,,,,,,,,,,,,,,,,,,,,,,,
,,5ea8e847aa2fbb34d8331747,2024-02-19_02h08.15.878,kallum_motion_pilot,2023.2.2,Win32,60.60606061,5ea8e847aa2fbb34d8331747,65d2b6c8f2eece985d8e374c,65d2b802e3f907e4ffc059eb,0.0663,0.0664,1,91,253,15,1,fourthree,,,,,,,,,,,,,,,,,,,,,,,,,,,,,,,,,,,,,,,,,,,,,,,,,,,,,,,,,,,,,,,,,,,,,,,,,,,,,,,,,,,,,,,,,,,,,,,,,,,,,,,,,,,,,,,,,,,,,,,,,,,,,,,,,,,,,,,,,
,,5ea8e847aa2fbb34d8331747,2024-02-19_02h08.15.878,kallum_motion_pilot,2023.2.2,Win32,60.60606061,5ea8e847aa2fbb34d8331747,65d2b6c8f2eece985d8e374c,65d2b802e3f907e4ffc059eb,0.0665,0.0666,1,92,254,44,1,threeone,,,,,,,,,,,,,,,,,,,,,,,,,,,,,,,,,,,,,,,,,,,,,,,,,,,,,,,,,,,,,,,,,,,,,,,,,,,,,,,,,,,,,,,,,,,,,,,,,,,,,,,,,,,,,,,,,,,,,,,,,,,,,,,,,,,,,,,,,
,,5ea8e847aa2fbb34d8331747,2024-02-19_02h08.15.878,kallum_motion_pilot,2023.2.2,Win32,60.60606061,5ea8e847aa2fbb34d8331747,65d2b6c8f2eece985d8e374c,65d2b802e3f907e4ffc059eb,0.0667,0.0668,1,93,255,55,1,fourthree,,,,,,,,,,,,,,,,,,,,,,,,,,,,,,,,,,,,,,,,,,,,,,,,,,,,,,,,,,,,,,,,,,,,,,,,,,,,,,,,,,,,,,,,,,,,,,,,,,,,,,,,,,,,,,,,,,,,,,,,,,,,,,,,,,,,,,,,,
,,5ea8e847aa2fbb34d8331747,2024-02-19_02h08.15.878,kallum_motion_pilot,2023.2.2,Win32,60.60606061,5ea8e847aa2fbb34d8331747,65d2b6c8f2eece985d8e374c,65d2b802e3f907e4ffc059eb,0.0669,0.067,1,94,256,87,1,eightseven,,,,,,,,,,,,,,,,,,,,,,,,,,,,,,,,,,,,,,,,,,,,,,,,,,,,,,,,,,,,,,,,,,,,,,,,,,,,,,,,,,,,,,,,,,,,,,,,,,,,,,,,,,,,,,,,,,,,,,,,,,,,,,,,,,,,,,,,,
,,5ea8e847aa2fbb34d8331747,2024-02-19_02h08.15.878,kallum_motion_pilot,2023.2.2,Win32,60.60606061,5ea8e847aa2fbb34d8331747,65d2b6c8f2eece985d8e374c,65d2b802e3f907e4ffc059eb,0.0671,0.0672,1,95,257,62,1,fourtwo,,,,,,,,,,,,,,,,,,,,,,,,,,,,,,,,,,,,,,,,,,,,,,,,,,,,,,,,,,,,,,,,,,,,,,,,,,,,,,,,,,,,,,,,,,,,,,,,,,,,,,,,,,,,,,,,,,,,,,,,,,,,,,,,,,,,,,,,,
,,5ea8e847aa2fbb34d8331747,2024-02-19_02h08.15.878,kallum_motion_pilot,2023.2.2,Win32,60.60606061,5ea8e847aa2fbb34d8331747,65d2b6c8f2eece985d8e374c,65d2b802e3f907e4ffc059eb,0.0674,0.0675,1,96,258,11,1,twofour,,,,,,,,,,,,,,,,,,,,,,,,,,,,,,,,,,,,,,,,,,,,,,,,,,,,,,,,,,,,,,,,,,,,,,,,,,,,,,,,,,,,,,,,,,,,,,,,,,,,,,,,,,,,,,,,,,,,,,,,,,,,,,,,,,,,,,,,,
,,5ea8e847aa2fbb34d8331747,2024-02-19_02h08.15.878,kallum_motion_pilot,2023.2.2,Win32,60.60606061,5ea8e847aa2fbb34d8331747,65d2b6c8f2eece985d8e374c,65d2b802e3f907e4ffc059eb,0.0675,0.0676,1,97,259,153,1,fiveseven,,,,,,,,,,,,,,,,,,,,,,,,,,,,,,,,,,,,,,,,,,,,,,,,,,,,,,,,,,,,,,,,,,,,,,,,,,,,,,,,,,,,,,,,,,,,,,,,,,,,,,,,,,,,,,,,,,,,,,,,,,,,,,,,,,,,,,,,,
,,5ea8e847aa2fbb34d8331747,2024-02-19_02h08.15.878,kallum_motion_pilot,2023.2.2,Win32,60.60606061,5ea8e847aa2fbb34d8331747,65d2b6c8f2eece985d8e374c,65d2b802e3f907e4ffc059eb,0.0677,0.0677,1,98,260,34,1,twoone,,,,,,,,,,,,,,,,,,,,,,,,,,,,,,,,,,,,,,,,,,,,,,,,,,,,,,,,,,,,,,,,,,,,,,,,,,,,,,,,,,,,,,,,,,,,,,,,,,,,,,,,,,,,,,,,,,,,,,,,,,,,,,,,,,,,,,,,,
,,5ea8e847aa2fbb34d8331747,2024-02-19_02h08.15.878,kallum_motion_pilot,2023.2.2,Win32,60.60606061,5ea8e847aa2fbb34d8331747,65d2b6c8f2eece985d8e374c,65d2b802e3f907e4ffc059eb,0.0678,0.0679,1,99,261,140,1,sevenfive,,,,,,,,,,,,,,,,,,,,,,,,,,,,,,,,,,,,,,,,,,,,,,,,,,,,,,,,,,,,,,,,,,,,,,,,,,,,,,,,,,,,,,,,,,,,,,,,,,,,,,,,,,,,,,,,,,,,,,,,,,,,,,,,,,,,,,,,,
,,5ea8e847aa2fbb34d8331747,2024-02-19_02h08.15.878,kallum_motion_pilot,2023.2.2,Win32,60.60606061,5ea8e847aa2fbb34d8331747,65d2b6c8f2eece985d8e374c,65d2b802e3f907e4ffc059eb,0.068,0.0681,1,100,262,37,1,threefour,,,,,,,,,,,,,,,,,,,,,,,,,,,,,,,,,,,,,,,,,,,,,,,,,,,,,,,,,,,,,,,,,,,,,,,,,,,,,,,,,,,,,,,,,,,,,,,,,,,,,,,,,,,,,,,,,,,,,,,,,,,,,,,,,,,,,,,,,
,,5ea8e847aa2fbb34d8331747,2024-02-19_02h08.15.878,kallum_motion_pilot,2023.2.2,Win32,60.60606061,5ea8e847aa2fbb34d8331747,65d2b6c8f2eece985d8e374c,65d2b802e3f907e4ffc059eb,0.0682,0.0682,1,101,263,96,1,fivesix,,,,,,,,,,,,,,,,,,,,,,,,,,,,,,,,,,,,,,,,,,,,,,,,,,,,,,,,,,,,,,,,,,,,,,,,,,,,,,,,,,,,,,,,,,,,,,,,,,,,,,,,,,,,,,,,,,,,,,,,,,,,,,,,,,,,,,,,,
,,5ea8e847aa2fbb34d8331747,2024-02-19_02h08.15.878,kallum_motion_pilot,2023.2.2,Win32,60.60606061,5ea8e847aa2fbb34d8331747,65d2b6c8f2eece985d8e374c,65d2b802e3f907e4ffc059eb,0.0683,0.0684,1,102,264,9,1,onethree,,,,,,,,,,,,,,,,,,,,,,,,,,,,,,,,,,,,,,,,,,,,,,,,,,,,,,,,,,,,,,,,,,,,,,,,,,,,,,,,,,,,,,,,,,,,,,,,,,,,,,,,,,,,,,,,,,,,,,,,,,,,,,,,,,,,,,,,,
,,5ea8e847aa2fbb34d8331747,2024-02-19_02h08.15.878,kallum_motion_pilot,2023.2.2,Win32,60.60606061,5ea8e847aa2fbb34d8331747,65d2b6c8f2eece985d8e374c,65d2b802e3f907e4ffc059eb,0.0685,0.0687,1,103,265,40,1,onetwo,,,,,,,,,,,,,,,,,,,,,,,,,,,,,,,,,,,,,,,,,,,,,,,,,,,,,,,,,,,,,,,,,,,,,,,,,,,,,,,,,,,,,,,,,,,,,,,,,,,,,,,,,,,,,,,,,,,,,,,,,,,,,,,,,,,,,,,,,
,,5ea8e847aa2fbb34d8331747,2024-02-19_02h08.15.878,kallum_motion_pilot,2023.2.2,Win32,60.60606061,5ea8e847aa2fbb34d8331747,65d2b6c8f2eece985d8e374c,65d2b802e3f907e4ffc059eb,0.0687,0.0688,1,104,266,70,1,fourtwo,,,,,,,,,,,,,,,,,,,,,,,,,,,,,,,,,,,,,,,,,,,,,,,,,,,,,,,,,,,,,,,,,,,,,,,,,,,,,,,,,,,,,,,,,,,,,,,,,,,,,,,,,,,,,,,,,,,,,,,,,,,,,,,,,,,,,,,,,
,,5ea8e847aa2fbb34d8331747,2024-02-19_02h08.15.878,kallum_motion_pilot,2023.2.2,Win32,60.60606061,5ea8e847aa2fbb34d8331747,65d2b6c8f2eece985d8e374c,65d2b802e3f907e4ffc059eb,0.0689,0.069,1,105,267,5,1,threefour,,,,,,,,,,,,,,,,,,,,,,,,,,,,,,,,,,,,,,,,,,,,,,,,,,,,,,,,,,,,,,,,,,,,,,,,,,,,,,,,,,,,,,,,,,,,,,,,,,,,,,,,,,,,,,,,,,,,,,,,,,,,,,,,,,,,,,,,,
,,5ea8e847aa2fbb34d8331747,2024-02-19_02h08.15.878,kallum_motion_pilot,2023.2.2,Win32,60.60606061,5ea8e847aa2fbb34d8331747,65d2b6c8f2eece985d8e374c,65d2b802e3f907e4ffc059eb,0.0691,0.0692,1,106,268,128,1,fivesix,,,,,,,,,,,,,,,,,,,,,,,,,,,,,,,,,,,,,,,,,,,,,,,,,,,,,,,,,,,,,,,,,,,,,,,,,,,,,,,,,,,,,,,,,,,,,,,,,,,,,,,,,,,,,,,,,,,,,,,,,,,,,,,,,,,,,,,,,
,,5ea8e847aa2fbb34d8331747,2024-02-19_02h08.15.878,kallum_motion_pilot,2023.2.2,Win32,60.60606061,5ea8e847aa2fbb34d8331747,65d2b6c8f2eece985d8e374c,65d2b802e3f907e4ffc059eb,0.0694,0.0695,1,107,269,8,1,onetwo,,,,,,,,,,,,,,,,,,,,,,,,,,,,,,,,,,,,,,,,,,,,,,,,,,,,,,,,,,,,,,,,,,,,,,,,,,,,,,,,,,,,,,,,,,,,,,,,,,,,,,,,,,,,,,,,,,,,,,,,,,,,,,,,,,,,,,,,,
,,5ea8e847aa2fbb34d8331747,2024-02-19_02h08.15.878,kallum_motion_pilot,2023.2.2,Win32,60.60606061,5ea8e847aa2fbb34d8331747,65d2b6c8f2eece985d8e374c,65d2b802e3f907e4ffc059eb,0.0695,0.0696,1,108,270,134,1,eightsix,,,,,,,,,,,,,,,,,,,,,,,,,,,,,,,,,,,,,,,,,,,,,,,,,,,,,,,,,,,,,,,,,,,,,,,,,,,,,,,,,,,,,,,,,,,,,,,,,,,,,,,,,,,,,,,,,,,,,,,,,,,,,,,,,,,,,,,,,
,,5ea8e847aa2fbb34d8331747,2024-02-19_02h08.15.878,kallum_motion_pilot,2023.2.2,Win32,60.60606061,5ea8e847aa2fbb34d8331747,65d2b6c8f2eece985d8e374c,65d2b802e3f907e4ffc059eb,0.0697,0.0698,1,109,271,33,1,onethree,,,,,,,,,,,,,,,,,,,,,,,,,,,,,,,,,,,,,,,,,,,,,,,,,,,,,,,,,,,,,,,,,,,,,,,,,,,,,,,,,,,,,,,,,,,,,,,,,,,,,,,,,,,,,,,,,,,,,,,,,,,,,,,,,,,,,,,,,
,,5ea8e847aa2fbb34d8331747,2024-02-19_02h08.15.878,kallum_motion_pilot,2023.2.2,Win32,60.60606061,5ea8e847aa2fbb34d8331747,65d2b6c8f2eece985d8e374c,65d2b802e3f907e4ffc059eb,0.0699,0.0699,1,110,272,147,1,sixeight,,,,,,,,,,,,,,,,,,,,,,,,,,,,,,,,,,,,,,,,,,,,,,,,,,,,,,,,,,,,,,,,,,,,,,,,,,,,,,,,,,,,,,,,,,,,,,,,,,,,,,,,,,,,,,,,,,,,,,,,,,,,,,,,,,,,,,,,,
,,5ea8e847aa2fbb34d8331747,2024-02-19_02h08.15.878,kallum_motion_pilot,2023.2.2,Win32,60.60606061,5ea8e847aa2fbb34d8331747,65d2b6c8f2eece985d8e374c,65d2b802e3f907e4ffc059eb,0.0701,0.0702,1,111,273,98,1,sixfive,,,,,,,,,,,,,,,,,,,,,,,,,,,,,,,,,,,,,,,,,,,,,,,,,,,,,,,,,,,,,,,,,,,,,,,,,,,,,,,,,,,,,,,,,,,,,,,,,,,,,,,,,,,,,,,,,,,,,,,,,,,,,,,,,,,,,,,,,
,,5ea8e847aa2fbb34d8331747,2024-02-19_02h08.15.878,kallum_motion_pilot,2023.2.2,Win32,60.60606061,5ea8e847aa2fbb34d8331747,65d2b6c8f2eece985d8e374c,65d2b802e3f907e4ffc059eb,0.0704,0.0706,1,112,274,75,1,twofour,,,,,,,,,,,,,,,,,,,,,,,,,,,,,,,,,,,,,,,,,,,,,,,,,,,,,,,,,,,,,,,,,,,,,,,,,,,,,,,,,,,,,,,,,,,,,,,,,,,,,,,,,,,,,,,,,,,,,,,,,,,,,,,,,,,,,,,,,
,,5ea8e847aa2fbb34d8331747,2024-02-19_02h08.15.878,kallum_motion_pilot,2023.2.2,Win32,60.60606061,5ea8e847aa2fbb34d8331747,65d2b6c8f2eece985d8e374c,65d2b802e3f907e4ffc059eb,0.0706,0.0708,1,113,275,149,1,seveneight,,,,,,,,,,,,,,,,,,,,,,,,,,,,,,,,,,,,,,,,,,,,,,,,,,,,,,,,,,,,,,,,,,,,,,,,,,,,,,,,,,,,,,,,,,,,,,,,,,,,,,,,,,,,,,,,,,,,,,,,,,,,,,,,,,,,,,,,,
,,5ea8e847aa2fbb34d8331747,2024-02-19_02h08.15.878,kallum_motion_pilot,2023.2.2,Win32,60.60606061,5ea8e847aa2fbb34d8331747,65d2b6c8f2eece985d8e374c,65d2b802e3f907e4ffc059eb,0.0709,0.0712,1,114,276,7,1,fourthree,,,,,,,,,,,,,,,,,,,,,,,,,,,,,,,,,,,,,,,,,,,,,,,,,,,,,,,,,,,,,,,,,,,,,,,,,,,,,,,,,,,,,,,,,,,,,,,,,,,,,,,,,,,,,,,,,,,,,,,,,,,,,,,,,,,,,,,,,
,,5ea8e847aa2fbb34d8331747,2024-02-19_02h08.15.878,kallum_motion_pilot,2023.2.2,Win32,60.60606061,5ea8e847aa2fbb34d8331747,65d2b6c8f2eece985d8e374c,65d2b802e3f907e4ffc059eb,0.0713,0.0714,1,115,277,142,1,eightsix,,,,,,,,,,,,,,,,,,,,,,,,,,,,,,,,,,,,,,,,,,,,,,,,,,,,,,,,,,,,,,,,,,,,,,,,,,,,,,,,,,,,,,,,,,,,,,,,,,,,,,,,,,,,,,,,,,,,,,,,,,,,,,,,,,,,,,,,,
