startup.started,startup.stopped,Prolific ID*,date,expName,psychopyVersion,OS,frameRate,participant,study_id,session,stimpositions.started,stimpositions.stopped,hardcoded_stimulus_positions.thisRepN,hardcoded_stimulus_positions.thisTrialN,hardcoded_stimulus_positions.thisN,hardcoded_stimulus_positions.thisIndex,hardcoded_stimulus_positions.ran,StimulusPos,stimorientation.started,stimorientation.stopped,prac_stimorientation_import_loop.thisRepN,prac_stimorientation_import_loop.thisTrialN,prac_stimorientation_import_loop.thisN,prac_stimorientation_import_loop.thisIndex,prac_stimorientation_import_loop.ran,Stimorientation,welcome_instr.started,welcome_instr.stopped,key_resp.keys,key_resp.rt,key_resp.duration,response_steppedout_1.started,response_steppedout_1.stopped,key_resp_20.keys,key_resp_20.rt,key_resp_20.duration,response_steppedout_2.started,response_steppedout_2.stopped,key_resp_19.keys,key_resp_19.rt,key_resp_19.duration,stim_response_instr.started,stim_response_instr.stopped,key_resp_15.keys,key_resp_15.rt,key_resp_15.duration,direction_instr_2.started,direction_instr_2.stopped,key_resp_9.keys,key_resp_9.rt,key_resp_9.duration,instr_prac.started,instr_prac.stopped,key_resp_10.keys,key_resp_10.rt,key_resp_10.duration,Stim1_display_prac.started,Stim1_display_prac.stopped,Ecc,Circle1_ori,Circle2_ori,response_prac.started,similarity,response_time,response_prac.stopped,mouse_5.x,mouse_5.y,mouse_5.leftButton,mouse_5.midButton,mouse_5.rightButton,mouse_5.clicked_name,responseprac_feedback.started,responseprac_feedback.stopped,summary2_prac.started,summary2_prac.stopped,mouse_6.x,mouse_6.y,mouse_6.leftButton,mouse_6.midButton,mouse_6.rightButton,mouse_6.clicked_name,duringprac.thisRepN,duringprac.thisTrialN,duringprac.thisN,duringprac.thisIndex,duringprac.ran,begin.started,begin.stopped,key_resp_22.keys,key_resp_22.rt,key_resp_22.duration,Stim1_display.started,Stim1_display.stopped,circle1_ori,circle2_ori,circle1_SF,circle2_SF,response.started,response.stopped,mouse.x,mouse.y,mouse.leftButton,mouse.midButton,mouse.rightButton,mouse.clicked_name,trialnumber,double_pass.thisRepN,double_pass.thisTrialN,double_pass.thisN,double_pass.thisIndex,double_pass.ran,double_pass.order,main_trial.thisRepN,main_trial.thisTrialN,main_trial.thisN,main_trial.thisIndex,main_trial.ran,main_trial.order,Trial_Counter,Catch,Frequencies,response_2.started,response_2.stopped,mouse_2.x,mouse_2.y,mouse_2.leftButton,mouse_2.midButton,mouse_2.rightButton,mouse_2.clicked_name,special_trial.started,special_trial.stopped,catch_1.started,catch_1.stopped,mouse_3.x,mouse_3.y,mouse_3.leftButton,mouse_3.midButton,mouse_3.rightButton,catchresponse,catchnumber,response_time_catch,response_sum.started,response_sum.stopped,mouse_11.x,mouse_11.y,mouse_11.leftButton,mouse_11.midButton,mouse_11.rightButton,flip_presentation_sequence_for_double_pass.started,flip_presentation_sequence_for_double_pass.stopped,goodbye.started,goodbye.stopped,key_resp_3.keys,key_resp_3.rt,key_resp_3.duration
0,0,5eac4b0a1f8db726fc6060c8,2024-02-22_03h27.18.290,kallum_motion_pilot,2023.2.2,Win32,75.07507508,5eac4b0a1f8db726fc6060c8,65d6bb0e977760de756971f7,65d6bdb5cb0a17198e65b8d2,,,,,,,,,,,,,,,,,,,,,,,,,,,,,,,,,,,,,,,,,,,,,,,,,,,,,,,,,,,,,,,,,,,,,,,,,,,,,,,,,,,,,,,,,,,,,,,,,,,,,,,,,,,,,,,,,,,,,,,,,,,,,,,,,,,,,,,,,,,,,,,,,
,,5eac4b0a1f8db726fc6060c8,2024-02-22_03h27.18.290,kallum_motion_pilot,2023.2.2,Win32,75.07507508,5eac4b0a1f8db726fc6060c8,65d6bb0e977760de756971f7,65d6bdb5cb0a17198e65b8d2,0.01,0.01,0,0,0,96,1,fivesix,,,,,,,,,,,,,,,,,,,,,,,,,,,,,,,,,,,,,,,,,,,,,,,,,,,,,,,,,,,,,,,,,,,,,,,,,,,,,,,,,,,,,,,,,,,,,,,,,,,,,,,,,,,,,,,,,,,,,,,,,,,,,,,,,,,,,,,,,
,,5eac4b0a1f8db726fc6060c8,2024-02-22_03h27.18.290,kallum_motion_pilot,2023.2.2,Win32,75.07507508,5eac4b0a1f8db726fc6060c8,65d6bb0e977760de756971f7,65d6bdb5cb0a17198e65b8d2,0.01,0.01,0,1,1,9,1,onethree,,,,,,,,,,,,,,,,,,,,,,,,,,,,,,,,,,,,,,,,,,,,,,,,,,,,,,,,,,,,,,,,,,,,,,,,,,,,,,,,,,,,,,,,,,,,,,,,,,,,,,,,,,,,,,,,,,,,,,,,,,,,,,,,,,,,,,,,,
,,5eac4b0a1f8db726fc6060c8,2024-02-22_03h27.18.290,kallum_motion_pilot,2023.2.2,Win32,75.07507508,5eac4b0a1f8db726fc6060c8,65d6bb0e977760de756971f7,65d6bdb5cb0a17198e65b8d2,0.01,0.01,0,2,2,98,1,sixfive,,,,,,,,,,,,,,,,,,,,,,,,,,,,,,,,,,,,,,,,,,,,,,,,,,,,,,,,,,,,,,,,,,,,,,,,,,,,,,,,,,,,,,,,,,,,,,,,,,,,,,,,,,,,,,,,,,,,,,,,,,,,,,,,,,,,,,,,,
,,5eac4b0a1f8db726fc6060c8,2024-02-22_03h27.18.290,kallum_motion_pilot,2023.2.2,Win32,75.07507508,5eac4b0a1f8db726fc6060c8,65d6bb0e977760de756971f7,65d6bdb5cb0a17198e65b8d2,0.01,0.01,0,3,3,82,1,sixfive,,,,,,,,,,,,,,,,,,,,,,,,,,,,,,,,,,,,,,,,,,,,,,,,,,,,,,,,,,,,,,,,,,,,,,,,,,,,,,,,,,,,,,,,,,,,,,,,,,,,,,,,,,,,,,,,,,,,,,,,,,,,,,,,,,,,,,,,,
,,5eac4b0a1f8db726fc6060c8,2024-02-22_03h27.18.290,kallum_motion_pilot,2023.2.2,Win32,75.07507508,5eac4b0a1f8db726fc6060c8,65d6bb0e977760de756971f7,65d6bdb5cb0a17198e65b8d2,0.01,0.01,0,4,4,2,1,twoone,,,,,,,,,,,,,,,,,,,,,,,,,,,,,,,,,,,,,,,,,,,,,,,,,,,,,,,,,,,,,,,,,,,,,,,,,,,,,,,,,,,,,,,,,,,,,,,,,,,,,,,,,,,,,,,,,,,,,,,,,,,,,,,,,,,,,,,,,
,,5eac4b0a1f8db726fc6060c8,2024-02-22_03h27.18.290,kallum_motion_pilot,2023.2.2,Win32,75.07507508,5eac4b0a1f8db726fc6060c8,65d6bb0e977760de756971f7,65d6bdb5cb0a17198e65b8d2,0.01,0.01,0,5,5,44,1,threeone,,,,,,,,,,,,,,,,,,,,,,,,,,,,,,,,,,,,,,,,,,,,,,,,,,,,,,,,,,,,,,,,,,,,,,,,,,,,,,,,,,,,,,,,,,,,,,,,,,,,,,,,,,,,,,,,,,,,,,,,,,,,,,,,,,,,,,,,,
,,5eac4b0a1f8db726fc6060c8,2024-02-22_03h27.18.290,kallum_motion_pilot,2023.2.2,Win32,75.07507508,5eac4b0a1f8db726fc6060c8,65d6bb0e977760de756971f7,65d6bdb5cb0a17198e65b8d2,0.01,0.01,0,6,6,31,1,fourthree,,,,,,,,,,,,,,,,,,,,,,,,,,,,,,,,,,,,,,,,,,,,,,,,,,,,,,,,,,,,,,,,,,,,,,,,,,,,,,,,,,,,,,,,,,,,,,,,,,,,,,,,,,,,,,,,,,,,,,,,,,,,,,,,,,,,,,,,,
,,5eac4b0a1f8db726fc6060c8,2024-02-22_03h27.18.290,kallum_motion_pilot,2023.2.2,Win32,75.07507508,5eac4b0a1f8db726fc6060c8,65d6bb0e977760de756971f7,65d6bdb5cb0a17198e65b8d2,0.01,0.01,0,7,7,59,1,twofour,,,,,,,,,,,,,,,,,,,,,,,,,,,,,,,,,,,,,,,,,,,,,,,,,,,,,,,,,,,,,,,,,,,,,,,,,,,,,,,,,,,,,,,,,,,,,,,,,,,,,,,,,,,,,,,,,,,,,,,,,,,,,,,,,,,,,,,,,
,,5eac4b0a1f8db726fc6060c8,2024-02-22_03h27.18.290,kallum_motion_pilot,2023.2.2,Win32,75.07507508,5eac4b0a1f8db726fc6060c8,65d6bb0e977760de756971f7,65d6bdb5cb0a17198e65b8d2,0.01,0.01,0,8,8,146,1,sixfive,,,,,,,,,,,,,,,,,,,,,,,,,,,,,,,,,,,,,,,,,,,,,,,,,,,,,,,,,,,,,,,,,,,,,,,,,,,,,,,,,,,,,,,,,,,,,,,,,,,,,,,,,,,,,,,,,,,,,,,,,,,,,,,,,,,,,,,,,
,,5eac4b0a1f8db726fc6060c8,2024-02-22_03h27.18.290,kallum_motion_pilot,2023.2.2,Win32,75.07507508,5eac4b0a1f8db726fc6060c8,65d6bb0e977760de756971f7,65d6bdb5cb0a17198e65b8d2,0.01,0.01,0,9,9,43,1,twofour,,,,,,,,,,,,,,,,,,,,,,,,,,,,,,,,,,,,,,,,,,,,,,,,,,,,,,,,,,,,,,,,,,,,,,,,,,,,,,,,,,,,,,,,,,,,,,,,,,,,,,,,,,,,,,,,,,,,,,,,,,,,,,,,,,,,,,,,,
,,5eac4b0a1f8db726fc6060c8,2024-02-22_03h27.18.290,kallum_motion_pilot,2023.2.2,Win32,75.07507508,5eac4b0a1f8db726fc6060c8,65d6bb0e977760de756971f7,65d6bdb5cb0a17198e65b8d2,0.011,0.011,0,10,10,66,1,twoone,,,,,,,,,,,,,,,,,,,,,,,,,,,,,,,,,,,,,,,,,,,,,,,,,,,,,,,,,,,,,,,,,,,,,,,,,,,,,,,,,,,,,,,,,,,,,,,,,,,,,,,,,,,,,,,,,,,,,,,,,,,,,,,,,,,,,,,,,
,,5eac4b0a1f8db726fc6060c8,2024-02-22_03h27.18.290,kallum_motion_pilot,2023.2.2,Win32,75.07507508,5eac4b0a1f8db726fc6060c8,65d6bb0e977760de756971f7,65d6bdb5cb0a17198e65b8d2,0.011,0.011,0,11,11,72,1,onetwo,,,,,,,,,,,,,,,,,,,,,,,,,,,,,,,,,,,,,,,,,,,,,,,,,,,,,,,,,,,,,,,,,,,,,,,,,,,,,,,,,,,,,,,,,,,,,,,,,,,,,,,,,,,,,,,,,,,,,,,,,,,,,,,,,,,,,,,,,
,,5eac4b0a1f8db726fc6060c8,2024-02-22_03h27.18.290,kallum_motion_pilot,2023.2.2,Win32,75.07507508,5eac4b0a1f8db726fc6060c8,65d6bb0e977760de756971f7,65d6bdb5cb0a17198e65b8d2,0.011,0.011,0,12,12,100,1,sevenfive,,,,,,,,,,,,,,,,,,,,,,,,,,,,,,,,,,,,,,,,,,,,,,,,,,,,,,,,,,,,,,,,,,,,,,,,,,,,,,,,,,,,,,,,,,,,,,,,,,,,,,,,,,,,,,,,,,,,,,,,,,,,,,,,,,,,,,,,,
,,5eac4b0a1f8db726fc6060c8,2024-02-22_03h27.18.290,kallum_motion_pilot,2023.2.2,Win32,75.07507508,5eac4b0a1f8db726fc6060c8,65d6bb0e977760de756971f7,65d6bdb5cb0a17198e65b8d2,0.011,0.011,0,13,13,83,1,sixeight,,,,,,,,,,,,,,,,,,,,,,,,,,,,,,,,,,,,,,,,,,,,,,,,,,,,,,,,,,,,,,,,,,,,,,,,,,,,,,,,,,,,,,,,,,,,,,,,,,,,,,,,,,,,,,,,,,,,,,,,,,,,,,,,,,,,,,,,,
,,5eac4b0a1f8db726fc6060c8,2024-02-22_03h27.18.290,kallum_motion_pilot,2023.2.2,Win32,75.07507508,5eac4b0a1f8db726fc6060c8,65d6bb0e977760de756971f7,65d6bdb5cb0a17198e65b8d2,0.011,0.011,0,14,14,161,1,fiveseven,,,,,,,,,,,,,,,,,,,,,,,,,,,,,,,,,,,,,,,,,,,,,,,,,,,,,,,,,,,,,,,,,,,,,,,,,,,,,,,,,,,,,,,,,,,,,,,,,,,,,,,,,,,,,,,,,,,,,,,,,,,,,,,,,,,,,,,,,
,,5eac4b0a1f8db726fc6060c8,2024-02-22_03h27.18.290,kallum_motion_pilot,2023.2.2,Win32,75.07507508,5eac4b0a1f8db726fc6060c8,65d6bb0e977760de756971f7,65d6bdb5cb0a17198e65b8d2,0.011,0.011,0,15,15,45,1,threefour,,,,,,,,,,,,,,,,,,,,,,,,,,,,,,,,,,,,,,,,,,,,,,,,,,,,,,,,,,,,,,,,,,,,,,,,,,,,,,,,,,,,,,,,,,,,,,,,,,,,,,,,,,,,,,,,,,,,,,,,,,,,,,,,,,,,,,,,,
,,5eac4b0a1f8db726fc6060c8,2024-02-22_03h27.18.290,kallum_motion_pilot,2023.2.2,Win32,75.07507508,5eac4b0a1f8db726fc6060c8,65d6bb0e977760de756971f7,65d6bdb5cb0a17198e65b8d2,0.011,0.011,0,16,16,20,1,threeone,,,,,,,,,,,,,,,,,,,,,,,,,,,,,,,,,,,,,,,,,,,,,,,,,,,,,,,,,,,,,,,,,,,,,,,,,,,,,,,,,,,,,,,,,,,,,,,,,,,,,,,,,,,,,,,,,,,,,,,,,,,,,,,,,,,,,,,,,
,,5eac4b0a1f8db726fc6060c8,2024-02-22_03h27.18.290,kallum_motion_pilot,2023.2.2,Win32,75.07507508,5eac4b0a1f8db726fc6060c8,65d6bb0e977760de756971f7,65d6bdb5cb0a17198e65b8d2,0.011,0.011,0,17,17,113,1,fiveseven,,,,,,,,,,,,,,,,,,,,,,,,,,,,,,,,,,,,,,,,,,,,,,,,,,,,,,,,,,,,,,,,,,,,,,,,,,,,,,,,,,,,,,,,,,,,,,,,,,,,,,,,,,,,,,,,,,,,,,,,,,,,,,,,,,,,,,,,,
,,5eac4b0a1f8db726fc6060c8,2024-02-22_03h27.18.290,kallum_motion_pilot,2023.2.2,Win32,75.07507508,5eac4b0a1f8db726fc6060c8,65d6bb0e977760de756971f7,65d6bdb5cb0a17198e65b8d2,0.011,0.011,0,18,18,47,1,fourthree,,,,,,,,,,,,,,,,,,,,,,,,,,,,,,,,,,,,,,,,,,,,,,,,,,,,,,,,,,,,,,,,,,,,,,,,,,,,,,,,,,,,,,,,,,,,,,,,,,,,,,,,,,,,,,,,,,,,,,,,,,,,,,,,,,,,,,,,,
,,5eac4b0a1f8db726fc6060c8,2024-02-22_03h27.18.290,kallum_motion_pilot,2023.2.2,Win32,75.07507508,5eac4b0a1f8db726fc6060c8,65d6bb0e977760de756971f7,65d6bdb5cb0a17198e65b8d2,0.011,0.011,0,19,19,160,1,fivesix,,,,,,,,,,,,,,,,,,,,,,,,,,,,,,,,,,,,,,,,,,,,,,,,,,,,,,,,,,,,,,,,,,,,,,,,,,,,,,,,,,,,,,,,,,,,,,,,,,,,,,,,,,,,,,,,,,,,,,,,,,,,,,,,,,,,,,,,,
,,5eac4b0a1f8db726fc6060c8,2024-02-22_03h27.18.290,kallum_motion_pilot,2023.2.2,Win32,75.07507508,5eac4b0a1f8db726fc6060c8,65d6bb0e977760de756971f7,65d6bdb5cb0a17198e65b8d2,0.011,0.011,0,20,20,134,1,eightsix,,,,,,,,,,,,,,,,,,,,,,,,,,,,,,,,,,,,,,,,,,,,,,,,,,,,,,,,,,,,,,,,,,,,,,,,,,,,,,,,,,,,,,,,,,,,,,,,,,,,,,,,,,,,,,,,,,,,,,,,,,,,,,,,,,,,,,,,,
,,5eac4b0a1f8db726fc6060c8,2024-02-22_03h27.18.290,kallum_motion_pilot,2023.2.2,Win32,75.07507508,5eac4b0a1f8db726fc6060c8,65d6bb0e977760de756971f7,65d6bdb5cb0a17198e65b8d2,0.011,0.011,0,21,21,135,1,eightseven,,,,,,,,,,,,,,,,,,,,,,,,,,,,,,,,,,,,,,,,,,,,,,,,,,,,,,,,,,,,,,,,,,,,,,,,,,,,,,,,,,,,,,,,,,,,,,,,,,,,,,,,,,,,,,,,,,,,,,,,,,,,,,,,,,,,,,,,,
,,5eac4b0a1f8db726fc6060c8,2024-02-22_03h27.18.290,kallum_motion_pilot,2023.2.2,Win32,75.07507508,5eac4b0a1f8db726fc6060c8,65d6bb0e977760de756971f7,65d6bdb5cb0a17198e65b8d2,0.011,0.011,0,22,22,139,1,sixeight,,,,,,,,,,,,,,,,,,,,,,,,,,,,,,,,,,,,,,,,,,,,,,,,,,,,,,,,,,,,,,,,,,,,,,,,,,,,,,,,,,,,,,,,,,,,,,,,,,,,,,,,,,,,,,,,,,,,,,,,,,,,,,,,,,,,,,,,,
,,5eac4b0a1f8db726fc6060c8,2024-02-22_03h27.18.290,kallum_motion_pilot,2023.2.2,Win32,75.07507508,5eac4b0a1f8db726fc6060c8,65d6bb0e977760de756971f7,65d6bdb5cb0a17198e65b8d2,0.011,0.011,0,23,23,1,1,onethree,,,,,,,,,,,,,,,,,,,,,,,,,,,,,,,,,,,,,,,,,,,,,,,,,,,,,,,,,,,,,,,,,,,,,,,,,,,,,,,,,,,,,,,,,,,,,,,,,,,,,,,,,,,,,,,,,,,,,,,,,,,,,,,,,,,,,,,,,
,,5eac4b0a1f8db726fc6060c8,2024-02-22_03h27.18.290,kallum_motion_pilot,2023.2.2,Win32,75.07507508,5eac4b0a1f8db726fc6060c8,65d6bb0e977760de756971f7,65d6bdb5cb0a17198e65b8d2,0.011,0.011,0,24,24,93,1,seveneight,,,,,,,,,,,,,,,,,,,,,,,,,,,,,,,,,,,,,,,,,,,,,,,,,,,,,,,,,,,,,,,,,,,,,,,,,,,,,,,,,,,,,,,,,,,,,,,,,,,,,,,,,,,,,,,,,,,,,,,,,,,,,,,,,,,,,,,,,
,,5eac4b0a1f8db726fc6060c8,2024-02-22_03h27.18.290,kallum_motion_pilot,2023.2.2,Win32,75.07507508,5eac4b0a1f8db726fc6060c8,65d6bb0e977760de756971f7,65d6bdb5cb0a17198e65b8d2,0.011,0.011,0,25,25,69,1,threefour,,,,,,,,,,,,,,,,,,,,,,,,,,,,,,,,,,,,,,,,,,,,,,,,,,,,,,,,,,,,,,,,,,,,,,,,,,,,,,,,,,,,,,,,,,,,,,,,,,,,,,,,,,,,,,,,,,,,,,,,,,,,,,,,,,,,,,,,,
,,5eac4b0a1f8db726fc6060c8,2024-02-22_03h27.18.290,kallum_motion_pilot,2023.2.2,Win32,75.07507508,5eac4b0a1f8db726fc6060c8,65d6bb0e977760de756971f7,65d6bdb5cb0a17198e65b8d2,0.011,0.012,0,26,26,159,1,eightseven,,,,,,,,,,,,,,,,,,,,,,,,,,,,,,,,,,,,,,,,,,,,,,,,,,,,,,,,,,,,,,,,,,,,,,,,,,,,,,,,,,,,,,,,,,,,,,,,,,,,,,,,,,,,,,,,,,,,,,,,,,,,,,,,,,,,,,,,,
,,5eac4b0a1f8db726fc6060c8,2024-02-22_03h27.18.290,kallum_motion_pilot,2023.2.2,Win32,75.07507508,5eac4b0a1f8db726fc6060c8,65d6bb0e977760de756971f7,65d6bdb5cb0a17198e65b8d2,0.012,0.012,0,27,27,153,1,fiveseven,,,,,,,,,,,,,,,,,,,,,,,,,,,,,,,,,,,,,,,,,,,,,,,,,,,,,,,,,,,,,,,,,,,,,,,,,,,,,,,,,,,,,,,,,,,,,,,,,,,,,,,,,,,,,,,,,,,,,,,,,,,,,,,,,,,,,,,,,
,,5eac4b0a1f8db726fc6060c8,2024-02-22_03h27.18.290,kallum_motion_pilot,2023.2.2,Win32,75.07507508,5eac4b0a1f8db726fc6060c8,65d6bb0e977760de756971f7,65d6bdb5cb0a17198e65b8d2,0.012,0.012,0,28,28,5,1,threefour,,,,,,,,,,,,,,,,,,,,,,,,,,,,,,,,,,,,,,,,,,,,,,,,,,,,,,,,,,,,,,,,,,,,,,,,,,,,,,,,,,,,,,,,,,,,,,,,,,,,,,,,,,,,,,,,,,,,,,,,,,,,,,,,,,,,,,,,,
,,5eac4b0a1f8db726fc6060c8,2024-02-22_03h27.18.290,kallum_motion_pilot,2023.2.2,Win32,75.07507508,5eac4b0a1f8db726fc6060c8,65d6bb0e977760de756971f7,65d6bdb5cb0a17198e65b8d2,0.012,0.012,0,29,29,101,1,seveneight,,,,,,,,,,,,,,,,,,,,,,,,,,,,,,,,,,,,,,,,,,,,,,,,,,,,,,,,,,,,,,,,,,,,,,,,,,,,,,,,,,,,,,,,,,,,,,,,,,,,,,,,,,,,,,,,,,,,,,,,,,,,,,,,,,,,,,,,,
,,5eac4b0a1f8db726fc6060c8,2024-02-22_03h27.18.290,kallum_motion_pilot,2023.2.2,Win32,75.07507508,5eac4b0a1f8db726fc6060c8,65d6bb0e977760de756971f7,65d6bdb5cb0a17198e65b8d2,0.012,0.012,0,30,30,38,1,fourtwo,,,,,,,,,,,,,,,,,,,,,,,,,,,,,,,,,,,,,,,,,,,,,,,,,,,,,,,,,,,,,,,,,,,,,,,,,,,,,,,,,,,,,,,,,,,,,,,,,,,,,,,,,,,,,,,,,,,,,,,,,,,,,,,,,,,,,,,,,
,,5eac4b0a1f8db726fc6060c8,2024-02-22_03h27.18.290,kallum_motion_pilot,2023.2.2,Win32,75.07507508,5eac4b0a1f8db726fc6060c8,65d6bb0e977760de756971f7,65d6bdb5cb0a17198e65b8d2,0.012,0.012,0,31,31,86,1,eightsix,,,,,,,,,,,,,,,,,,,,,,,,,,,,,,,,,,,,,,,,,,,,,,,,,,,,,,,,,,,,,,,,,,,,,,,,,,,,,,,,,,,,,,,,,,,,,,,,,,,,,,,,,,,,,,,,,,,,,,,,,,,,,,,,,,,,,,,,,
,,5eac4b0a1f8db726fc6060c8,2024-02-22_03h27.18.290,kallum_motion_pilot,2023.2.2,Win32,75.07507508,5eac4b0a1f8db726fc6060c8,65d6bb0e977760de756971f7,65d6bdb5cb0a17198e65b8d2,0.012,0.012,0,32,32,122,1,sixfive,,,,,,,,,,,,,,,,,,,,,,,,,,,,,,,,,,,,,,,,,,,,,,,,,,,,,,,,,,,,,,,,,,,,,,,,,,,,,,,,,,,,,,,,,,,,,,,,,,,,,,,,,,,,,,,,,,,,,,,,,,,,,,,,,,,,,,,,,
,,5eac4b0a1f8db726fc6060c8,2024-02-22_03h27.18.290,kallum_motion_pilot,2023.2.2,Win32,75.07507508,5eac4b0a1f8db726fc6060c8,65d6bb0e977760de756971f7,65d6bdb5cb0a17198e65b8d2,0.012,0.012,0,33,33,85,1,seveneight,,,,,,,,,,,,,,,,,,,,,,,,,,,,,,,,,,,,,,,,,,,,,,,,,,,,,,,,,,,,,,,,,,,,,,,,,,,,,,,,,,,,,,,,,,,,,,,,,,,,,,,,,,,,,,,,,,,,,,,,,,,,,,,,,,,,,,,,,
,,5eac4b0a1f8db726fc6060c8,2024-02-22_03h27.18.290,kallum_motion_pilot,2023.2.2,Win32,75.07507508,5eac4b0a1f8db726fc6060c8,65d6bb0e977760de756971f7,65d6bdb5cb0a17198e65b8d2,0.012,0.012,0,34,34,124,1,sevenfive,,,,,,,,,,,,,,,,,,,,,,,,,,,,,,,,,,,,,,,,,,,,,,,,,,,,,,,,,,,,,,,,,,,,,,,,,,,,,,,,,,,,,,,,,,,,,,,,,,,,,,,,,,,,,,,,,,,,,,,,,,,,,,,,,,,,,,,,,
,,5eac4b0a1f8db726fc6060c8,2024-02-22_03h27.18.290,kallum_motion_pilot,2023.2.2,Win32,75.07507508,5eac4b0a1f8db726fc6060c8,65d6bb0e977760de756971f7,65d6bdb5cb0a17198e65b8d2,0.012,0.012,0,35,35,26,1,twoone,,,,,,,,,,,,,,,,,,,,,,,,,,,,,,,,,,,,,,,,,,,,,,,,,,,,,,,,,,,,,,,,,,,,,,,,,,,,,,,,,,,,,,,,,,,,,,,,,,,,,,,,,,,,,,,,,,,,,,,,,,,,,,,,,,,,,,,,,
,,5eac4b0a1f8db726fc6060c8,2024-02-22_03h27.18.290,kallum_motion_pilot,2023.2.2,Win32,75.07507508,5eac4b0a1f8db726fc6060c8,65d6bb0e977760de756971f7,65d6bdb5cb0a17198e65b8d2,0.012,0.012,0,36,36,112,1,fivesix,,,,,,,,,,,,,,,,,,,,,,,,,,,,,,,,,,,,,,,,,,,,,,,,,,,,,,,,,,,,,,,,,,,,,,,,,,,,,,,,,,,,,,,,,,,,,,,,,,,,,,,,,,,,,,,,,,,,,,,,,,,,,,,,,,,,,,,,,
,,5eac4b0a1f8db726fc6060c8,2024-02-22_03h27.18.290,kallum_motion_pilot,2023.2.2,Win32,75.07507508,5eac4b0a1f8db726fc6060c8,65d6bb0e977760de756971f7,65d6bdb5cb0a17198e65b8d2,0.012,0.012,0,37,37,107,1,sixeight,,,,,,,,,,,,,,,,,,,,,,,,,,,,,,,,,,,,,,,,,,,,,,,,,,,,,,,,,,,,,,,,,,,,,,,,,,,,,,,,,,,,,,,,,,,,,,,,,,,,,,,,,,,,,,,,,,,,,,,,,,,,,,,,,,,,,,,,,
,,5eac4b0a1f8db726fc6060c8,2024-02-22_03h27.18.290,kallum_motion_pilot,2023.2.2,Win32,75.07507508,5eac4b0a1f8db726fc6060c8,65d6bb0e977760de756971f7,65d6bdb5cb0a17198e65b8d2,0.012,0.012,0,38,38,90,1,sixfive,,,,,,,,,,,,,,,,,,,,,,,,,,,,,,,,,,,,,,,,,,,,,,,,,,,,,,,,,,,,,,,,,,,,,,,,,,,,,,,,,,,,,,,,,,,,,,,,,,,,,,,,,,,,,,,,,,,,,,,,,,,,,,,,,,,,,,,,,
,,5eac4b0a1f8db726fc6060c8,2024-02-22_03h27.18.290,kallum_motion_pilot,2023.2.2,Win32,75.07507508,5eac4b0a1f8db726fc6060c8,65d6bb0e977760de756971f7,65d6bdb5cb0a17198e65b8d2,0.012,0.012,0,39,39,123,1,sixeight,,,,,,,,,,,,,,,,,,,,,,,,,,,,,,,,,,,,,,,,,,,,,,,,,,,,,,,,,,,,,,,,,,,,,,,,,,,,,,,,,,,,,,,,,,,,,,,,,,,,,,,,,,,,,,,,,,,,,,,,,,,,,,,,,,,,,,,,,
,,5eac4b0a1f8db726fc6060c8,2024-02-22_03h27.18.290,kallum_motion_pilot,2023.2.2,Win32,75.07507508,5eac4b0a1f8db726fc6060c8,65d6bb0e977760de756971f7,65d6bdb5cb0a17198e65b8d2,0.012,0.012,0,40,40,130,1,sixfive,,,,,,,,,,,,,,,,,,,,,,,,,,,,,,,,,,,,,,,,,,,,,,,,,,,,,,,,,,,,,,,,,,,,,,,,,,,,,,,,,,,,,,,,,,,,,,,,,,,,,,,,,,,,,,,,,,,,,,,,,,,,,,,,,,,,,,,,,
,,5eac4b0a1f8db726fc6060c8,2024-02-22_03h27.18.290,kallum_motion_pilot,2023.2.2,Win32,75.07507508,5eac4b0a1f8db726fc6060c8,65d6bb0e977760de756971f7,65d6bdb5cb0a17198e65b8d2,0.012,0.012,0,41,41,14,1,fourtwo,,,,,,,,,,,,,,,,,,,,,,,,,,,,,,,,,,,,,,,,,,,,,,,,,,,,,,,,,,,,,,,,,,,,,,,,,,,,,,,,,,,,,,,,,,,,,,,,,,,,,,,,,,,,,,,,,,,,,,,,,,,,,,,,,,,,,,,,,
,,5eac4b0a1f8db726fc6060c8,2024-02-22_03h27.18.290,kallum_motion_pilot,2023.2.2,Win32,75.07507508,5eac4b0a1f8db726fc6060c8,65d6bb0e977760de756971f7,65d6bdb5cb0a17198e65b8d2,0.012,0.012,0,42,42,8,1,onetwo,,,,,,,,,,,,,,,,,,,,,,,,,,,,,,,,,,,,,,,,,,,,,,,,,,,,,,,,,,,,,,,,,,,,,,,,,,,,,,,,,,,,,,,,,,,,,,,,,,,,,,,,,,,,,,,,,,,,,,,,,,,,,,,,,,,,,,,,,
,,5eac4b0a1f8db726fc6060c8,2024-02-22_03h27.18.290,kallum_motion_pilot,2023.2.2,Win32,75.07507508,5eac4b0a1f8db726fc6060c8,65d6bb0e977760de756971f7,65d6bdb5cb0a17198e65b8d2,0.012,0.012,0,43,43,52,1,threeone,,,,,,,,,,,,,,,,,,,,,,,,,,,,,,,,,,,,,,,,,,,,,,,,,,,,,,,,,,,,,,,,,,,,,,,,,,,,,,,,,,,,,,,,,,,,,,,,,,,,,,,,,,,,,,,,,,,,,,,,,,,,,,,,,,,,,,,,,
,,5eac4b0a1f8db726fc6060c8,2024-02-22_03h27.18.290,kallum_motion_pilot,2023.2.2,Win32,75.07507508,5eac4b0a1f8db726fc6060c8,65d6bb0e977760de756971f7,65d6bdb5cb0a17198e65b8d2,0.012,0.013,0,44,44,16,1,onetwo,,,,,,,,,,,,,,,,,,,,,,,,,,,,,,,,,,,,,,,,,,,,,,,,,,,,,,,,,,,,,,,,,,,,,,,,,,,,,,,,,,,,,,,,,,,,,,,,,,,,,,,,,,,,,,,,,,,,,,,,,,,,,,,,,,,,,,,,,
,,5eac4b0a1f8db726fc6060c8,2024-02-22_03h27.18.290,kallum_motion_pilot,2023.2.2,Win32,75.07507508,5eac4b0a1f8db726fc6060c8,65d6bb0e977760de756971f7,65d6bdb5cb0a17198e65b8d2,0.013,0.013,0,45,45,22,1,fourtwo,,,,,,,,,,,,,,,,,,,,,,,,,,,,,,,,,,,,,,,,,,,,,,,,,,,,,,,,,,,,,,,,,,,,,,,,,,,,,,,,,,,,,,,,,,,,,,,,,,,,,,,,,,,,,,,,,,,,,,,,,,,,,,,,,,,,,,,,,
,,5eac4b0a1f8db726fc6060c8,2024-02-22_03h27.18.290,kallum_motion_pilot,2023.2.2,Win32,75.07507508,5eac4b0a1f8db726fc6060c8,65d6bb0e977760de756971f7,65d6bdb5cb0a17198e65b8d2,0.013,0.013,0,46,46,42,1,twoone,,,,,,,,,,,,,,,,,,,,,,,,,,,,,,,,,,,,,,,,,,,,,,,,,,,,,,,,,,,,,,,,,,,,,,,,,,,,,,,,,,,,,,,,,,,,,,,,,,,,,,,,,,,,,,,,,,,,,,,,,,,,,,,,,,,,,,,,,
,,5eac4b0a1f8db726fc6060c8,2024-02-22_03h27.18.290,kallum_motion_pilot,2023.2.2,Win32,75.07507508,5eac4b0a1f8db726fc6060c8,65d6bb0e977760de756971f7,65d6bdb5cb0a17198e65b8d2,0.013,0.013,0,47,47,120,1,fivesix,,,,,,,,,,,,,,,,,,,,,,,,,,,,,,,,,,,,,,,,,,,,,,,,,,,,,,,,,,,,,,,,,,,,,,,,,,,,,,,,,,,,,,,,,,,,,,,,,,,,,,,,,,,,,,,,,,,,,,,,,,,,,,,,,,,,,,,,,
,,5eac4b0a1f8db726fc6060c8,2024-02-22_03h27.18.290,kallum_motion_pilot,2023.2.2,Win32,75.07507508,5eac4b0a1f8db726fc6060c8,65d6bb0e977760de756971f7,65d6bdb5cb0a17198e65b8d2,0.013,0.013,0,48,48,33,1,onethree,,,,,,,,,,,,,,,,,,,,,,,,,,,,,,,,,,,,,,,,,,,,,,,,,,,,,,,,,,,,,,,,,,,,,,,,,,,,,,,,,,,,,,,,,,,,,,,,,,,,,,,,,,,,,,,,,,,,,,,,,,,,,,,,,,,,,,,,,
,,5eac4b0a1f8db726fc6060c8,2024-02-22_03h27.18.290,kallum_motion_pilot,2023.2.2,Win32,75.07507508,5eac4b0a1f8db726fc6060c8,65d6bb0e977760de756971f7,65d6bdb5cb0a17198e65b8d2,0.013,0.013,0,49,49,144,1,fivesix,,,,,,,,,,,,,,,,,,,,,,,,,,,,,,,,,,,,,,,,,,,,,,,,,,,,,,,,,,,,,,,,,,,,,,,,,,,,,,,,,,,,,,,,,,,,,,,,,,,,,,,,,,,,,,,,,,,,,,,,,,,,,,,,,,,,,,,,,
,,5eac4b0a1f8db726fc6060c8,2024-02-22_03h27.18.290,kallum_motion_pilot,2023.2.2,Win32,75.07507508,5eac4b0a1f8db726fc6060c8,65d6bb0e977760de756971f7,65d6bdb5cb0a17198e65b8d2,0.013,0.013,0,50,50,106,1,sixfive,,,,,,,,,,,,,,,,,,,,,,,,,,,,,,,,,,,,,,,,,,,,,,,,,,,,,,,,,,,,,,,,,,,,,,,,,,,,,,,,,,,,,,,,,,,,,,,,,,,,,,,,,,,,,,,,,,,,,,,,,,,,,,,,,,,,,,,,,
,,5eac4b0a1f8db726fc6060c8,2024-02-22_03h27.18.290,kallum_motion_pilot,2023.2.2,Win32,75.07507508,5eac4b0a1f8db726fc6060c8,65d6bb0e977760de756971f7,65d6bdb5cb0a17198e65b8d2,0.013,0.013,0,51,51,17,1,onethree,,,,,,,,,,,,,,,,,,,,,,,,,,,,,,,,,,,,,,,,,,,,,,,,,,,,,,,,,,,,,,,,,,,,,,,,,,,,,,,,,,,,,,,,,,,,,,,,,,,,,,,,,,,,,,,,,,,,,,,,,,,,,,,,,,,,,,,,,
,,5eac4b0a1f8db726fc6060c8,2024-02-22_03h27.18.290,kallum_motion_pilot,2023.2.2,Win32,75.07507508,5eac4b0a1f8db726fc6060c8,65d6bb0e977760de756971f7,65d6bdb5cb0a17198e65b8d2,0.013,0.013,0,52,52,48,1,onetwo,,,,,,,,,,,,,,,,,,,,,,,,,,,,,,,,,,,,,,,,,,,,,,,,,,,,,,,,,,,,,,,,,,,,,,,,,,,,,,,,,,,,,,,,,,,,,,,,,,,,,,,,,,,,,,,,,,,,,,,,,,,,,,,,,,,,,,,,,
,,5eac4b0a1f8db726fc6060c8,2024-02-22_03h27.18.290,kallum_motion_pilot,2023.2.2,Win32,75.07507508,5eac4b0a1f8db726fc6060c8,65d6bb0e977760de756971f7,65d6bdb5cb0a17198e65b8d2,0.013,0.013,0,53,53,12,1,threeone,,,,,,,,,,,,,,,,,,,,,,,,,,,,,,,,,,,,,,,,,,,,,,,,,,,,,,,,,,,,,,,,,,,,,,,,,,,,,,,,,,,,,,,,,,,,,,,,,,,,,,,,,,,,,,,,,,,,,,,,,,,,,,,,,,,,,,,,,
,,5eac4b0a1f8db726fc6060c8,2024-02-22_03h27.18.290,kallum_motion_pilot,2023.2.2,Win32,75.07507508,5eac4b0a1f8db726fc6060c8,65d6bb0e977760de756971f7,65d6bdb5cb0a17198e65b8d2,0.013,0.013,0,54,54,70,1,fourtwo,,,,,,,,,,,,,,,,,,,,,,,,,,,,,,,,,,,,,,,,,,,,,,,,,,,,,,,,,,,,,,,,,,,,,,,,,,,,,,,,,,,,,,,,,,,,,,,,,,,,,,,,,,,,,,,,,,,,,,,,,,,,,,,,,,,,,,,,,
,,5eac4b0a1f8db726fc6060c8,2024-02-22_03h27.18.290,kallum_motion_pilot,2023.2.2,Win32,75.07507508,5eac4b0a1f8db726fc6060c8,65d6bb0e977760de756971f7,65d6bdb5cb0a17198e65b8d2,0.013,0.013,0,55,55,133,1,seveneight,,,,,,,,,,,,,,,,,,,,,,,,,,,,,,,,,,,,,,,,,,,,,,,,,,,,,,,,,,,,,,,,,,,,,,,,,,,,,,,,,,,,,,,,,,,,,,,,,,,,,,,,,,,,,,,,,,,,,,,,,,,,,,,,,,,,,,,,,
,,5eac4b0a1f8db726fc6060c8,2024-02-22_03h27.18.290,kallum_motion_pilot,2023.2.2,Win32,75.07507508,5eac4b0a1f8db726fc6060c8,65d6bb0e977760de756971f7,65d6bdb5cb0a17198e65b8d2,0.013,0.013,0,56,56,155,1,sixeight,,,,,,,,,,,,,,,,,,,,,,,,,,,,,,,,,,,,,,,,,,,,,,,,,,,,,,,,,,,,,,,,,,,,,,,,,,,,,,,,,,,,,,,,,,,,,,,,,,,,,,,,,,,,,,,,,,,,,,,,,,,,,,,,,,,,,,,,,
,,5eac4b0a1f8db726fc6060c8,2024-02-22_03h27.18.290,kallum_motion_pilot,2023.2.2,Win32,75.07507508,5eac4b0a1f8db726fc6060c8,65d6bb0e977760de756971f7,65d6bdb5cb0a17198e65b8d2,0.013,0.013,0,57,57,110,1,eightsix,,,,,,,,,,,,,,,,,,,,,,,,,,,,,,,,,,,,,,,,,,,,,,,,,,,,,,,,,,,,,,,,,,,,,,,,,,,,,,,,,,,,,,,,,,,,,,,,,,,,,,,,,,,,,,,,,,,,,,,,,,,,,,,,,,,,,,,,,
,,5eac4b0a1f8db726fc6060c8,2024-02-22_03h27.18.290,kallum_motion_pilot,2023.2.2,Win32,75.07507508,5eac4b0a1f8db726fc6060c8,65d6bb0e977760de756971f7,65d6bdb5cb0a17198e65b8d2,0.013,0.013,0,58,58,132,1,sevenfive,,,,,,,,,,,,,,,,,,,,,,,,,,,,,,,,,,,,,,,,,,,,,,,,,,,,,,,,,,,,,,,,,,,,,,,,,,,,,,,,,,,,,,,,,,,,,,,,,,,,,,,,,,,,,,,,,,,,,,,,,,,,,,,,,,,,,,,,,
,,5eac4b0a1f8db726fc6060c8,2024-02-22_03h27.18.290,kallum_motion_pilot,2023.2.2,Win32,75.07507508,5eac4b0a1f8db726fc6060c8,65d6bb0e977760de756971f7,65d6bdb5cb0a17198e65b8d2,0.013,0.013,0,59,59,28,1,threeone,,,,,,,,,,,,,,,,,,,,,,,,,,,,,,,,,,,,,,,,,,,,,,,,,,,,,,,,,,,,,,,,,,,,,,,,,,,,,,,,,,,,,,,,,,,,,,,,,,,,,,,,,,,,,,,,,,,,,,,,,,,,,,,,,,,,,,,,,
,,5eac4b0a1f8db726fc6060c8,2024-02-22_03h27.18.290,kallum_motion_pilot,2023.2.2,Win32,75.07507508,5eac4b0a1f8db726fc6060c8,65d6bb0e977760de756971f7,65d6bdb5cb0a17198e65b8d2,0.013,0.013,0,60,60,81,1,fiveseven,,,,,,,,,,,,,,,,,,,,,,,,,,,,,,,,,,,,,,,,,,,,,,,,,,,,,,,,,,,,,,,,,,,,,,,,,,,,,,,,,,,,,,,,,,,,,,,,,,,,,,,,,,,,,,,,,,,,,,,,,,,,,,,,,,,,,,,,,
,,5eac4b0a1f8db726fc6060c8,2024-02-22_03h27.18.290,kallum_motion_pilot,2023.2.2,Win32,75.07507508,5eac4b0a1f8db726fc6060c8,65d6bb0e977760de756971f7,65d6bdb5cb0a17198e65b8d2,0.013,0.013,0,61,61,75,1,twofour,,,,,,,,,,,,,,,,,,,,,,,,,,,,,,,,,,,,,,,,,,,,,,,,,,,,,,,,,,,,,,,,,,,,,,,,,,,,,,,,,,,,,,,,,,,,,,,,,,,,,,,,,,,,,,,,,,,,,,,,,,,,,,,,,,,,,,,,,
,,5eac4b0a1f8db726fc6060c8,2024-02-22_03h27.18.290,kallum_motion_pilot,2023.2.2,Win32,75.07507508,5eac4b0a1f8db726fc6060c8,65d6bb0e977760de756971f7,65d6bdb5cb0a17198e65b8d2,0.013,0.013,0,62,62,56,1,onetwo,,,,,,,,,,,,,,,,,,,,,,,,,,,,,,,,,,,,,,,,,,,,,,,,,,,,,,,,,,,,,,,,,,,,,,,,,,,,,,,,,,,,,,,,,,,,,,,,,,,,,,,,,,,,,,,,,,,,,,,,,,,,,,,,,,,,,,,,,
,,5eac4b0a1f8db726fc6060c8,2024-02-22_03h27.18.290,kallum_motion_pilot,2023.2.2,Win32,75.07507508,5eac4b0a1f8db726fc6060c8,65d6bb0e977760de756971f7,65d6bdb5cb0a17198e65b8d2,0.014,0.014,0,63,63,141,1,seveneight,,,,,,,,,,,,,,,,,,,,,,,,,,,,,,,,,,,,,,,,,,,,,,,,,,,,,,,,,,,,,,,,,,,,,,,,,,,,,,,,,,,,,,,,,,,,,,,,,,,,,,,,,,,,,,,,,,,,,,,,,,,,,,,,,,,,,,,,,
,,5eac4b0a1f8db726fc6060c8,2024-02-22_03h27.18.290,kallum_motion_pilot,2023.2.2,Win32,75.07507508,5eac4b0a1f8db726fc6060c8,65d6bb0e977760de756971f7,65d6bdb5cb0a17198e65b8d2,0.014,0.014,0,64,64,114,1,sixfive,,,,,,,,,,,,,,,,,,,,,,,,,,,,,,,,,,,,,,,,,,,,,,,,,,,,,,,,,,,,,,,,,,,,,,,,,,,,,,,,,,,,,,,,,,,,,,,,,,,,,,,,,,,,,,,,,,,,,,,,,,,,,,,,,,,,,,,,,
,,5eac4b0a1f8db726fc6060c8,2024-02-22_03h27.18.290,kallum_motion_pilot,2023.2.2,Win32,75.07507508,5eac4b0a1f8db726fc6060c8,65d6bb0e977760de756971f7,65d6bdb5cb0a17198e65b8d2,0.014,0.014,0,65,65,89,1,fiveseven,,,,,,,,,,,,,,,,,,,,,,,,,,,,,,,,,,,,,,,,,,,,,,,,,,,,,,,,,,,,,,,,,,,,,,,,,,,,,,,,,,,,,,,,,,,,,,,,,,,,,,,,,,,,,,,,,,,,,,,,,,,,,,,,,,,,,,,,,
,,5eac4b0a1f8db726fc6060c8,2024-02-22_03h27.18.290,kallum_motion_pilot,2023.2.2,Win32,75.07507508,5eac4b0a1f8db726fc6060c8,65d6bb0e977760de756971f7,65d6bdb5cb0a17198e65b8d2,0.014,0.014,0,66,66,40,1,onetwo,,,,,,,,,,,,,,,,,,,,,,,,,,,,,,,,,,,,,,,,,,,,,,,,,,,,,,,,,,,,,,,,,,,,,,,,,,,,,,,,,,,,,,,,,,,,,,,,,,,,,,,,,,,,,,,,,,,,,,,,,,,,,,,,,,,,,,,,,
,,5eac4b0a1f8db726fc6060c8,2024-02-22_03h27.18.290,kallum_motion_pilot,2023.2.2,Win32,75.07507508,5eac4b0a1f8db726fc6060c8,65d6bb0e977760de756971f7,65d6bdb5cb0a17198e65b8d2,0.014,0.014,0,67,67,137,1,fiveseven,,,,,,,,,,,,,,,,,,,,,,,,,,,,,,,,,,,,,,,,,,,,,,,,,,,,,,,,,,,,,,,,,,,,,,,,,,,,,,,,,,,,,,,,,,,,,,,,,,,,,,,,,,,,,,,,,,,,,,,,,,,,,,,,,,,,,,,,,
,,5eac4b0a1f8db726fc6060c8,2024-02-22_03h27.18.290,kallum_motion_pilot,2023.2.2,Win32,75.07507508,5eac4b0a1f8db726fc6060c8,65d6bb0e977760de756971f7,65d6bdb5cb0a17198e65b8d2,0.014,0.014,0,68,68,53,1,threefour,,,,,,,,,,,,,,,,,,,,,,,,,,,,,,,,,,,,,,,,,,,,,,,,,,,,,,,,,,,,,,,,,,,,,,,,,,,,,,,,,,,,,,,,,,,,,,,,,,,,,,,,,,,,,,,,,,,,,,,,,,,,,,,,,,,,,,,,,
,,5eac4b0a1f8db726fc6060c8,2024-02-22_03h27.18.290,kallum_motion_pilot,2023.2.2,Win32,75.07507508,5eac4b0a1f8db726fc6060c8,65d6bb0e977760de756971f7,65d6bdb5cb0a17198e65b8d2,0.014,0.014,0,69,69,34,1,twoone,,,,,,,,,,,,,,,,,,,,,,,,,,,,,,,,,,,,,,,,,,,,,,,,,,,,,,,,,,,,,,,,,,,,,,,,,,,,,,,,,,,,,,,,,,,,,,,,,,,,,,,,,,,,,,,,,,,,,,,,,,,,,,,,,,,,,,,,,
,,5eac4b0a1f8db726fc6060c8,2024-02-22_03h27.18.290,kallum_motion_pilot,2023.2.2,Win32,75.07507508,5eac4b0a1f8db726fc6060c8,65d6bb0e977760de756971f7,65d6bdb5cb0a17198e65b8d2,0.014,0.014,0,70,70,63,1,fourthree,,,,,,,,,,,,,,,,,,,,,,,,,,,,,,,,,,,,,,,,,,,,,,,,,,,,,,,,,,,,,,,,,,,,,,,,,,,,,,,,,,,,,,,,,,,,,,,,,,,,,,,,,,,,,,,,,,,,,,,,,,,,,,,,,,,,,,,,,
,,5eac4b0a1f8db726fc6060c8,2024-02-22_03h27.18.290,kallum_motion_pilot,2023.2.2,Win32,75.07507508,5eac4b0a1f8db726fc6060c8,65d6bb0e977760de756971f7,65d6bdb5cb0a17198e65b8d2,0.014,0.015,0,71,71,104,1,fivesix,,,,,,,,,,,,,,,,,,,,,,,,,,,,,,,,,,,,,,,,,,,,,,,,,,,,,,,,,,,,,,,,,,,,,,,,,,,,,,,,,,,,,,,,,,,,,,,,,,,,,,,,,,,,,,,,,,,,,,,,,,,,,,,,,,,,,,,,,
,,5eac4b0a1f8db726fc6060c8,2024-02-22_03h27.18.290,kallum_motion_pilot,2023.2.2,Win32,75.07507508,5eac4b0a1f8db726fc6060c8,65d6bb0e977760de756971f7,65d6bdb5cb0a17198e65b8d2,0.015,0.015,0,72,72,50,1,twoone,,,,,,,,,,,,,,,,,,,,,,,,,,,,,,,,,,,,,,,,,,,,,,,,,,,,,,,,,,,,,,,,,,,,,,,,,,,,,,,,,,,,,,,,,,,,,,,,,,,,,,,,,,,,,,,,,,,,,,,,,,,,,,,,,,,,,,,,,
,,5eac4b0a1f8db726fc6060c8,2024-02-22_03h27.18.290,kallum_motion_pilot,2023.2.2,Win32,75.07507508,5eac4b0a1f8db726fc6060c8,65d6bb0e977760de756971f7,65d6bdb5cb0a17198e65b8d2,0.015,0.015,0,73,73,102,1,eightsix,,,,,,,,,,,,,,,,,,,,,,,,,,,,,,,,,,,,,,,,,,,,,,,,,,,,,,,,,,,,,,,,,,,,,,,,,,,,,,,,,,,,,,,,,,,,,,,,,,,,,,,,,,,,,,,,,,,,,,,,,,,,,,,,,,,,,,,,,
,,5eac4b0a1f8db726fc6060c8,2024-02-22_03h27.18.290,kallum_motion_pilot,2023.2.2,Win32,75.07507508,5eac4b0a1f8db726fc6060c8,65d6bb0e977760de756971f7,65d6bdb5cb0a17198e65b8d2,0.015,0.015,0,74,74,91,1,sixeight,,,,,,,,,,,,,,,,,,,,,,,,,,,,,,,,,,,,,,,,,,,,,,,,,,,,,,,,,,,,,,,,,,,,,,,,,,,,,,,,,,,,,,,,,,,,,,,,,,,,,,,,,,,,,,,,,,,,,,,,,,,,,,,,,,,,,,,,,
,,5eac4b0a1f8db726fc6060c8,2024-02-22_03h27.18.290,kallum_motion_pilot,2023.2.2,Win32,75.07507508,5eac4b0a1f8db726fc6060c8,65d6bb0e977760de756971f7,65d6bdb5cb0a17198e65b8d2,0.015,0.015,0,75,75,138,1,sixfive,,,,,,,,,,,,,,,,,,,,,,,,,,,,,,,,,,,,,,,,,,,,,,,,,,,,,,,,,,,,,,,,,,,,,,,,,,,,,,,,,,,,,,,,,,,,,,,,,,,,,,,,,,,,,,,,,,,,,,,,,,,,,,,,,,,,,,,,,
,,5eac4b0a1f8db726fc6060c8,2024-02-22_03h27.18.290,kallum_motion_pilot,2023.2.2,Win32,75.07507508,5eac4b0a1f8db726fc6060c8,65d6bb0e977760de756971f7,65d6bdb5cb0a17198e65b8d2,0.015,0.015,0,76,76,99,1,sixeight,,,,,,,,,,,,,,,,,,,,,,,,,,,,,,,,,,,,,,,,,,,,,,,,,,,,,,,,,,,,,,,,,,,,,,,,,,,,,,,,,,,,,,,,,,,,,,,,,,,,,,,,,,,,,,,,,,,,,,,,,,,,,,,,,,,,,,,,,
,,5eac4b0a1f8db726fc6060c8,2024-02-22_03h27.18.290,kallum_motion_pilot,2023.2.2,Win32,75.07507508,5eac4b0a1f8db726fc6060c8,65d6bb0e977760de756971f7,65d6bdb5cb0a17198e65b8d2,0.015,0.015,0,77,77,117,1,seveneight,,,,,,,,,,,,,,,,,,,,,,,,,,,,,,,,,,,,,,,,,,,,,,,,,,,,,,,,,,,,,,,,,,,,,,,,,,,,,,,,,,,,,,,,,,,,,,,,,,,,,,,,,,,,,,,,,,,,,,,,,,,,,,,,,,,,,,,,,
,,5eac4b0a1f8db726fc6060c8,2024-02-22_03h27.18.290,kallum_motion_pilot,2023.2.2,Win32,75.07507508,5eac4b0a1f8db726fc6060c8,65d6bb0e977760de756971f7,65d6bdb5cb0a17198e65b8d2,0.015,0.015,0,78,78,151,1,eightseven,,,,,,,,,,,,,,,,,,,,,,,,,,,,,,,,,,,,,,,,,,,,,,,,,,,,,,,,,,,,,,,,,,,,,,,,,,,,,,,,,,,,,,,,,,,,,,,,,,,,,,,,,,,,,,,,,,,,,,,,,,,,,,,,,,,,,,,,,
,,5eac4b0a1f8db726fc6060c8,2024-02-22_03h27.18.290,kallum_motion_pilot,2023.2.2,Win32,75.07507508,5eac4b0a1f8db726fc6060c8,65d6bb0e977760de756971f7,65d6bdb5cb0a17198e65b8d2,0.016,0.016,0,79,79,58,1,twoone,,,,,,,,,,,,,,,,,,,,,,,,,,,,,,,,,,,,,,,,,,,,,,,,,,,,,,,,,,,,,,,,,,,,,,,,,,,,,,,,,,,,,,,,,,,,,,,,,,,,,,,,,,,,,,,,,,,,,,,,,,,,,,,,,,,,,,,,,
,,5eac4b0a1f8db726fc6060c8,2024-02-22_03h27.18.290,kallum_motion_pilot,2023.2.2,Win32,75.07507508,5eac4b0a1f8db726fc6060c8,65d6bb0e977760de756971f7,65d6bdb5cb0a17198e65b8d2,0.016,0.016,0,80,80,145,1,fiveseven,,,,,,,,,,,,,,,,,,,,,,,,,,,,,,,,,,,,,,,,,,,,,,,,,,,,,,,,,,,,,,,,,,,,,,,,,,,,,,,,,,,,,,,,,,,,,,,,,,,,,,,,,,,,,,,,,,,,,,,,,,,,,,,,,,,,,,,,,
,,5eac4b0a1f8db726fc6060c8,2024-02-22_03h27.18.290,kallum_motion_pilot,2023.2.2,Win32,75.07507508,5eac4b0a1f8db726fc6060c8,65d6bb0e977760de756971f7,65d6bdb5cb0a17198e65b8d2,0.016,0.016,0,81,81,111,1,eightseven,,,,,,,,,,,,,,,,,,,,,,,,,,,,,,,,,,,,,,,,,,,,,,,,,,,,,,,,,,,,,,,,,,,,,,,,,,,,,,,,,,,,,,,,,,,,,,,,,,,,,,,,,,,,,,,,,,,,,,,,,,,,,,,,,,,,,,,,,
,,5eac4b0a1f8db726fc6060c8,2024-02-22_03h27.18.290,kallum_motion_pilot,2023.2.2,Win32,75.07507508,5eac4b0a1f8db726fc6060c8,65d6bb0e977760de756971f7,65d6bdb5cb0a17198e65b8d2,0.016,0.016,0,82,82,39,1,fourthree,,,,,,,,,,,,,,,,,,,,,,,,,,,,,,,,,,,,,,,,,,,,,,,,,,,,,,,,,,,,,,,,,,,,,,,,,,,,,,,,,,,,,,,,,,,,,,,,,,,,,,,,,,,,,,,,,,,,,,,,,,,,,,,,,,,,,,,,,
,,5eac4b0a1f8db726fc6060c8,2024-02-22_03h27.18.290,kallum_motion_pilot,2023.2.2,Win32,75.07507508,5eac4b0a1f8db726fc6060c8,65d6bb0e977760de756971f7,65d6bdb5cb0a17198e65b8d2,0.016,0.016,0,83,83,84,1,sevenfive,,,,,,,,,,,,,,,,,,,,,,,,,,,,,,,,,,,,,,,,,,,,,,,,,,,,,,,,,,,,,,,,,,,,,,,,,,,,,,,,,,,,,,,,,,,,,,,,,,,,,,,,,,,,,,,,,,,,,,,,,,,,,,,,,,,,,,,,,
,,5eac4b0a1f8db726fc6060c8,2024-02-22_03h27.18.290,kallum_motion_pilot,2023.2.2,Win32,75.07507508,5eac4b0a1f8db726fc6060c8,65d6bb0e977760de756971f7,65d6bdb5cb0a17198e65b8d2,0.016,0.016,0,84,84,158,1,eightsix,,,,,,,,,,,,,,,,,,,,,,,,,,,,,,,,,,,,,,,,,,,,,,,,,,,,,,,,,,,,,,,,,,,,,,,,,,,,,,,,,,,,,,,,,,,,,,,,,,,,,,,,,,,,,,,,,,,,,,,,,,,,,,,,,,,,,,,,,
,,5eac4b0a1f8db726fc6060c8,2024-02-22_03h27.18.290,kallum_motion_pilot,2023.2.2,Win32,75.07507508,5eac4b0a1f8db726fc6060c8,65d6bb0e977760de756971f7,65d6bdb5cb0a17198e65b8d2,0.016,0.016,0,85,85,3,1,twofour,,,,,,,,,,,,,,,,,,,,,,,,,,,,,,,,,,,,,,,,,,,,,,,,,,,,,,,,,,,,,,,,,,,,,,,,,,,,,,,,,,,,,,,,,,,,,,,,,,,,,,,,,,,,,,,,,,,,,,,,,,,,,,,,,,,,,,,,,
,,5eac4b0a1f8db726fc6060c8,2024-02-22_03h27.18.290,kallum_motion_pilot,2023.2.2,Win32,75.07507508,5eac4b0a1f8db726fc6060c8,65d6bb0e977760de756971f7,65d6bdb5cb0a17198e65b8d2,0.016,0.016,0,86,86,30,1,fourtwo,,,,,,,,,,,,,,,,,,,,,,,,,,,,,,,,,,,,,,,,,,,,,,,,,,,,,,,,,,,,,,,,,,,,,,,,,,,,,,,,,,,,,,,,,,,,,,,,,,,,,,,,,,,,,,,,,,,,,,,,,,,,,,,,,,,,,,,,,
,,5eac4b0a1f8db726fc6060c8,2024-02-22_03h27.18.290,kallum_motion_pilot,2023.2.2,Win32,75.07507508,5eac4b0a1f8db726fc6060c8,65d6bb0e977760de756971f7,65d6bdb5cb0a17198e65b8d2,0.016,0.016,0,87,87,74,1,twoone,,,,,,,,,,,,,,,,,,,,,,,,,,,,,,,,,,,,,,,,,,,,,,,,,,,,,,,,,,,,,,,,,,,,,,,,,,,,,,,,,,,,,,,,,,,,,,,,,,,,,,,,,,,,,,,,,,,,,,,,,,,,,,,,,,,,,,,,,
,,5eac4b0a1f8db726fc6060c8,2024-02-22_03h27.18.290,kallum_motion_pilot,2023.2.2,Win32,75.07507508,5eac4b0a1f8db726fc6060c8,65d6bb0e977760de756971f7,65d6bdb5cb0a17198e65b8d2,0.016,0.016,0,88,88,80,1,fivesix,,,,,,,,,,,,,,,,,,,,,,,,,,,,,,,,,,,,,,,,,,,,,,,,,,,,,,,,,,,,,,,,,,,,,,,,,,,,,,,,,,,,,,,,,,,,,,,,,,,,,,,,,,,,,,,,,,,,,,,,,,,,,,,,,,,,,,,,,
,,5eac4b0a1f8db726fc6060c8,2024-02-22_03h27.18.290,kallum_motion_pilot,2023.2.2,Win32,75.07507508,5eac4b0a1f8db726fc6060c8,65d6bb0e977760de756971f7,65d6bdb5cb0a17198e65b8d2,0.016,0.016,0,89,89,148,1,sevenfive,,,,,,,,,,,,,,,,,,,,,,,,,,,,,,,,,,,,,,,,,,,,,,,,,,,,,,,,,,,,,,,,,,,,,,,,,,,,,,,,,,,,,,,,,,,,,,,,,,,,,,,,,,,,,,,,,,,,,,,,,,,,,,,,,,,,,,,,,
,,5eac4b0a1f8db726fc6060c8,2024-02-22_03h27.18.290,kallum_motion_pilot,2023.2.2,Win32,75.07507508,5eac4b0a1f8db726fc6060c8,65d6bb0e977760de756971f7,65d6bdb5cb0a17198e65b8d2,0.016,0.016,0,90,90,27,1,twofour,,,,,,,,,,,,,,,,,,,,,,,,,,,,,,,,,,,,,,,,,,,,,,,,,,,,,,,,,,,,,,,,,,,,,,,,,,,,,,,,,,,,,,,,,,,,,,,,,,,,,,,,,,,,,,,,,,,,,,,,,,,,,,,,,,,,,,,,,
,,5eac4b0a1f8db726fc6060c8,2024-02-22_03h27.18.290,kallum_motion_pilot,2023.2.2,Win32,75.07507508,5eac4b0a1f8db726fc6060c8,65d6bb0e977760de756971f7,65d6bdb5cb0a17198e65b8d2,0.016,0.016,0,91,91,95,1,eightseven,,,,,,,,,,,,,,,,,,,,,,,,,,,,,,,,,,,,,,,,,,,,,,,,,,,,,,,,,,,,,,,,,,,,,,,,,,,,,,,,,,,,,,,,,,,,,,,,,,,,,,,,,,,,,,,,,,,,,,,,,,,,,,,,,,,,,,,,,
,,5eac4b0a1f8db726fc6060c8,2024-02-22_03h27.18.290,kallum_motion_pilot,2023.2.2,Win32,75.07507508,5eac4b0a1f8db726fc6060c8,65d6bb0e977760de756971f7,65d6bdb5cb0a17198e65b8d2,0.016,0.016,0,92,92,109,1,seveneight,,,,,,,,,,,,,,,,,,,,,,,,,,,,,,,,,,,,,,,,,,,,,,,,,,,,,,,,,,,,,,,,,,,,,,,,,,,,,,,,,,,,,,,,,,,,,,,,,,,,,,,,,,,,,,,,,,,,,,,,,,,,,,,,,,,,,,,,,
,,5eac4b0a1f8db726fc6060c8,2024-02-22_03h27.18.290,kallum_motion_pilot,2023.2.2,Win32,75.07507508,5eac4b0a1f8db726fc6060c8,65d6bb0e977760de756971f7,65d6bdb5cb0a17198e65b8d2,0.016,0.016,0,93,93,61,1,threefour,,,,,,,,,,,,,,,,,,,,,,,,,,,,,,,,,,,,,,,,,,,,,,,,,,,,,,,,,,,,,,,,,,,,,,,,,,,,,,,,,,,,,,,,,,,,,,,,,,,,,,,,,,,,,,,,,,,,,,,,,,,,,,,,,,,,,,,,,
,,5eac4b0a1f8db726fc6060c8,2024-02-22_03h27.18.290,kallum_motion_pilot,2023.2.2,Win32,75.07507508,5eac4b0a1f8db726fc6060c8,65d6bb0e977760de756971f7,65d6bdb5cb0a17198e65b8d2,0.016,0.016,0,94,94,6,1,fourtwo,,,,,,,,,,,,,,,,,,,,,,,,,,,,,,,,,,,,,,,,,,,,,,,,,,,,,,,,,,,,,,,,,,,,,,,,,,,,,,,,,,,,,,,,,,,,,,,,,,,,,,,,,,,,,,,,,,,,,,,,,,,,,,,,,,,,,,,,,
,,5eac4b0a1f8db726fc6060c8,2024-02-22_03h27.18.290,kallum_motion_pilot,2023.2.2,Win32,75.07507508,5eac4b0a1f8db726fc6060c8,65d6bb0e977760de756971f7,65d6bdb5cb0a17198e65b8d2,0.016,0.016,0,95,95,10,1,twoone,,,,,,,,,,,,,,,,,,,,,,,,,,,,,,,,,,,,,,,,,,,,,,,,,,,,,,,,,,,,,,,,,,,,,,,,,,,,,,,,,,,,,,,,,,,,,,,,,,,,,,,,,,,,,,,,,,,,,,,,,,,,,,,,,,,,,,,,,
,,5eac4b0a1f8db726fc6060c8,2024-02-22_03h27.18.290,kallum_motion_pilot,2023.2.2,Win32,75.07507508,5eac4b0a1f8db726fc6060c8,65d6bb0e977760de756971f7,65d6bdb5cb0a17198e65b8d2,0.016,0.016,0,96,96,23,1,fourthree,,,,,,,,,,,,,,,,,,,,,,,,,,,,,,,,,,,,,,,,,,,,,,,,,,,,,,,,,,,,,,,,,,,,,,,,,,,,,,,,,,,,,,,,,,,,,,,,,,,,,,,,,,,,,,,,,,,,,,,,,,,,,,,,,,,,,,,,,
,,5eac4b0a1f8db726fc6060c8,2024-02-22_03h27.18.290,kallum_motion_pilot,2023.2.2,Win32,75.07507508,5eac4b0a1f8db726fc6060c8,65d6bb0e977760de756971f7,65d6bdb5cb0a17198e65b8d2,0.016,0.016,0,97,97,49,1,onethree,,,,,,,,,,,,,,,,,,,,,,,,,,,,,,,,,,,,,,,,,,,,,,,,,,,,,,,,,,,,,,,,,,,,,,,,,,,,,,,,,,,,,,,,,,,,,,,,,,,,,,,,,,,,,,,,,,,,,,,,,,,,,,,,,,,,,,,,,
,,5eac4b0a1f8db726fc6060c8,2024-02-22_03h27.18.290,kallum_motion_pilot,2023.2.2,Win32,75.07507508,5eac4b0a1f8db726fc6060c8,65d6bb0e977760de756971f7,65d6bdb5cb0a17198e65b8d2,0.016,0.016,0,98,98,116,1,sevenfive,,,,,,,,,,,,,,,,,,,,,,,,,,,,,,,,,,,,,,,,,,,,,,,,,,,,,,,,,,,,,,,,,,,,,,,,,,,,,,,,,,,,,,,,,,,,,,,,,,,,,,,,,,,,,,,,,,,,,,,,,,,,,,,,,,,,,,,,,
,,5eac4b0a1f8db726fc6060c8,2024-02-22_03h27.18.290,kallum_motion_pilot,2023.2.2,Win32,75.07507508,5eac4b0a1f8db726fc6060c8,65d6bb0e977760de756971f7,65d6bdb5cb0a17198e65b8d2,0.016,0.016,0,99,99,127,1,eightseven,,,,,,,,,,,,,,,,,,,,,,,,,,,,,,,,,,,,,,,,,,,,,,,,,,,,,,,,,,,,,,,,,,,,,,,,,,,,,,,,,,,,,,,,,,,,,,,,,,,,,,,,,,,,,,,,,,,,,,,,,,,,,,,,,,,,,,,,,
,,5eac4b0a1f8db726fc6060c8,2024-02-22_03h27.18.290,kallum_motion_pilot,2023.2.2,Win32,75.07507508,5eac4b0a1f8db726fc6060c8,65d6bb0e977760de756971f7,65d6bdb5cb0a17198e65b8d2,0.016,0.016,0,100,100,71,1,fourthree,,,,,,,,,,,,,,,,,,,,,,,,,,,,,,,,,,,,,,,,,,,,,,,,,,,,,,,,,,,,,,,,,,,,,,,,,,,,,,,,,,,,,,,,,,,,,,,,,,,,,,,,,,,,,,,,,,,,,,,,,,,,,,,,,,,,,,,,,
,,5eac4b0a1f8db726fc6060c8,2024-02-22_03h27.18.290,kallum_motion_pilot,2023.2.2,Win32,75.07507508,5eac4b0a1f8db726fc6060c8,65d6bb0e977760de756971f7,65d6bdb5cb0a17198e65b8d2,0.016,0.016,0,101,101,7,1,fourthree,,,,,,,,,,,,,,,,,,,,,,,,,,,,,,,,,,,,,,,,,,,,,,,,,,,,,,,,,,,,,,,,,,,,,,,,,,,,,,,,,,,,,,,,,,,,,,,,,,,,,,,,,,,,,,,,,,,,,,,,,,,,,,,,,,,,,,,,,
,,5eac4b0a1f8db726fc6060c8,2024-02-22_03h27.18.290,kallum_motion_pilot,2023.2.2,Win32,75.07507508,5eac4b0a1f8db726fc6060c8,65d6bb0e977760de756971f7,65d6bdb5cb0a17198e65b8d2,0.016,0.016,0,102,102,150,1,eightsix,,,,,,,,,,,,,,,,,,,,,,,,,,,,,,,,,,,,,,,,,,,,,,,,,,,,,,,,,,,,,,,,,,,,,,,,,,,,,,,,,,,,,,,,,,,,,,,,,,,,,,,,,,,,,,,,,,,,,,,,,,,,,,,,,,,,,,,,,
,,5eac4b0a1f8db726fc6060c8,2024-02-22_03h27.18.290,kallum_motion_pilot,2023.2.2,Win32,75.07507508,5eac4b0a1f8db726fc6060c8,65d6bb0e977760de756971f7,65d6bdb5cb0a17198e65b8d2,0.016,0.016,0,103,103,51,1,twofour,,,,,,,,,,,,,,,,,,,,,,,,,,,,,,,,,,,,,,,,,,,,,,,,,,,,,,,,,,,,,,,,,,,,,,,,,,,,,,,,,,,,,,,,,,,,,,,,,,,,,,,,,,,,,,,,,,,,,,,,,,,,,,,,,,,,,,,,,
,,5eac4b0a1f8db726fc6060c8,2024-02-22_03h27.18.290,kallum_motion_pilot,2023.2.2,Win32,75.07507508,5eac4b0a1f8db726fc6060c8,65d6bb0e977760de756971f7,65d6bdb5cb0a17198e65b8d2,0.016,0.016,0,104,104,41,1,onethree,,,,,,,,,,,,,,,,,,,,,,,,,,,,,,,,,,,,,,,,,,,,,,,,,,,,,,,,,,,,,,,,,,,,,,,,,,,,,,,,,,,,,,,,,,,,,,,,,,,,,,,,,,,,,,,,,,,,,,,,,,,,,,,,,,,,,,,,,
,,5eac4b0a1f8db726fc6060c8,2024-02-22_03h27.18.290,kallum_motion_pilot,2023.2.2,Win32,75.07507508,5eac4b0a1f8db726fc6060c8,65d6bb0e977760de756971f7,65d6bdb5cb0a17198e65b8d2,0.016,0.016,0,105,105,0,1,onetwo,,,,,,,,,,,,,,,,,,,,,,,,,,,,,,,,,,,,,,,,,,,,,,,,,,,,,,,,,,,,,,,,,,,,,,,,,,,,,,,,,,,,,,,,,,,,,,,,,,,,,,,,,,,,,,,,,,,,,,,,,,,,,,,,,,,,,,,,,
,,5eac4b0a1f8db726fc6060c8,2024-02-22_03h27.18.290,kallum_motion_pilot,2023.2.2,Win32,75.07507508,5eac4b0a1f8db726fc6060c8,65d6bb0e977760de756971f7,65d6bdb5cb0a17198e65b8d2,0.017,0.017,0,106,106,157,1,seveneight,,,,,,,,,,,,,,,,,,,,,,,,,,,,,,,,,,,,,,,,,,,,,,,,,,,,,,,,,,,,,,,,,,,,,,,,,,,,,,,,,,,,,,,,,,,,,,,,,,,,,,,,,,,,,,,,,,,,,,,,,,,,,,,,,,,,,,,,,
,,5eac4b0a1f8db726fc6060c8,2024-02-22_03h27.18.290,kallum_motion_pilot,2023.2.2,Win32,75.07507508,5eac4b0a1f8db726fc6060c8,65d6bb0e977760de756971f7,65d6bdb5cb0a17198e65b8d2,0.017,0.017,0,107,107,126,1,eightsix,,,,,,,,,,,,,,,,,,,,,,,,,,,,,,,,,,,,,,,,,,,,,,,,,,,,,,,,,,,,,,,,,,,,,,,,,,,,,,,,,,,,,,,,,,,,,,,,,,,,,,,,,,,,,,,,,,,,,,,,,,,,,,,,,,,,,,,,,
,,5eac4b0a1f8db726fc6060c8,2024-02-22_03h27.18.290,kallum_motion_pilot,2023.2.2,Win32,75.07507508,5eac4b0a1f8db726fc6060c8,65d6bb0e977760de756971f7,65d6bdb5cb0a17198e65b8d2,0.017,0.017,0,108,108,136,1,fivesix,,,,,,,,,,,,,,,,,,,,,,,,,,,,,,,,,,,,,,,,,,,,,,,,,,,,,,,,,,,,,,,,,,,,,,,,,,,,,,,,,,,,,,,,,,,,,,,,,,,,,,,,,,,,,,,,,,,,,,,,,,,,,,,,,,,,,,,,,
,,5eac4b0a1f8db726fc6060c8,2024-02-22_03h27.18.290,kallum_motion_pilot,2023.2.2,Win32,75.07507508,5eac4b0a1f8db726fc6060c8,65d6bb0e977760de756971f7,65d6bdb5cb0a17198e65b8d2,0.017,0.017,0,109,109,15,1,fourthree,,,,,,,,,,,,,,,,,,,,,,,,,,,,,,,,,,,,,,,,,,,,,,,,,,,,,,,,,,,,,,,,,,,,,,,,,,,,,,,,,,,,,,,,,,,,,,,,,,,,,,,,,,,,,,,,,,,,,,,,,,,,,,,,,,,,,,,,,
,,5eac4b0a1f8db726fc6060c8,2024-02-22_03h27.18.290,kallum_motion_pilot,2023.2.2,Win32,75.07507508,5eac4b0a1f8db726fc6060c8,65d6bb0e977760de756971f7,65d6bdb5cb0a17198e65b8d2,0.017,0.017,0,110,110,128,1,fivesix,,,,,,,,,,,,,,,,,,,,,,,,,,,,,,,,,,,,,,,,,,,,,,,,,,,,,,,,,,,,,,,,,,,,,,,,,,,,,,,,,,,,,,,,,,,,,,,,,,,,,,,,,,,,,,,,,,,,,,,,,,,,,,,,,,,,,,,,,
,,5eac4b0a1f8db726fc6060c8,2024-02-22_03h27.18.290,kallum_motion_pilot,2023.2.2,Win32,75.07507508,5eac4b0a1f8db726fc6060c8,65d6bb0e977760de756971f7,65d6bdb5cb0a17198e65b8d2,0.017,0.017,0,111,111,46,1,fourtwo,,,,,,,,,,,,,,,,,,,,,,,,,,,,,,,,,,,,,,,,,,,,,,,,,,,,,,,,,,,,,,,,,,,,,,,,,,,,,,,,,,,,,,,,,,,,,,,,,,,,,,,,,,,,,,,,,,,,,,,,,,,,,,,,,,,,,,,,,
,,5eac4b0a1f8db726fc6060c8,2024-02-22_03h27.18.290,kallum_motion_pilot,2023.2.2,Win32,75.07507508,5eac4b0a1f8db726fc6060c8,65d6bb0e977760de756971f7,65d6bdb5cb0a17198e65b8d2,0.017,0.017,0,112,112,143,1,eightseven,,,,,,,,,,,,,,,,,,,,,,,,,,,,,,,,,,,,,,,,,,,,,,,,,,,,,,,,,,,,,,,,,,,,,,,,,,,,,,,,,,,,,,,,,,,,,,,,,,,,,,,,,,,,,,,,,,,,,,,,,,,,,,,,,,,,,,,,,
,,5eac4b0a1f8db726fc6060c8,2024-02-22_03h27.18.290,kallum_motion_pilot,2023.2.2,Win32,75.07507508,5eac4b0a1f8db726fc6060c8,65d6bb0e977760de756971f7,65d6bdb5cb0a17198e65b8d2,0.017,0.017,0,113,113,77,1,threefour,,,,,,,,,,,,,,,,,,,,,,,,,,,,,,,,,,,,,,,,,,,,,,,,,,,,,,,,,,,,,,,,,,,,,,,,,,,,,,,,,,,,,,,,,,,,,,,,,,,,,,,,,,,,,,,,,,,,,,,,,,,,,,,,,,,,,,,,,
,,5eac4b0a1f8db726fc6060c8,2024-02-22_03h27.18.290,kallum_motion_pilot,2023.2.2,Win32,75.07507508,5eac4b0a1f8db726fc6060c8,65d6bb0e977760de756971f7,65d6bdb5cb0a17198e65b8d2,0.017,0.017,0,114,114,57,1,onethree,,,,,,,,,,,,,,,,,,,,,,,,,,,,,,,,,,,,,,,,,,,,,,,,,,,,,,,,,,,,,,,,,,,,,,,,,,,,,,,,,,,,,,,,,,,,,,,,,,,,,,,,,,,,,,,,,,,,,,,,,,,,,,,,,,,,,,,,,
,,5eac4b0a1f8db726fc6060c8,2024-02-22_03h27.18.290,kallum_motion_pilot,2023.2.2,Win32,75.07507508,5eac4b0a1f8db726fc6060c8,65d6bb0e977760de756971f7,65d6bdb5cb0a17198e65b8d2,0.017,0.017,0,115,115,140,1,sevenfive,,,,,,,,,,,,,,,,,,,,,,,,,,,,,,,,,,,,,,,,,,,,,,,,,,,,,,,,,,,,,,,,,,,,,,,,,,,,,,,,,,,,,,,,,,,,,,,,,,,,,,,,,,,,,,,,,,,,,,,,,,,,,,,,,,,,,,,,,
,,5eac4b0a1f8db726fc6060c8,2024-02-22_03h27.18.290,kallum_motion_pilot,2023.2.2,Win32,75.07507508,5eac4b0a1f8db726fc6060c8,65d6bb0e977760de756971f7,65d6bdb5cb0a17198e65b8d2,0.017,0.017,0,116,116,152,1,fivesix,,,,,,,,,,,,,,,,,,,,,,,,,,,,,,,,,,,,,,,,,,,,,,,,,,,,,,,,,,,,,,,,,,,,,,,,,,,,,,,,,,,,,,,,,,,,,,,,,,,,,,,,,,,,,,,,,,,,,,,,,,,,,,,,,,,,,,,,,
,,5eac4b0a1f8db726fc6060c8,2024-02-22_03h27.18.290,kallum_motion_pilot,2023.2.2,Win32,75.07507508,5eac4b0a1f8db726fc6060c8,65d6bb0e977760de756971f7,65d6bdb5cb0a17198e65b8d2,0.017,0.017,0,117,117,65,1,onethree,,,,,,,,,,,,,,,,,,,,,,,,,,,,,,,,,,,,,,,,,,,,,,,,,,,,,,,,,,,,,,,,,,,,,,,,,,,,,,,,,,,,,,,,,,,,,,,,,,,,,,,,,,,,,,,,,,,,,,,,,,,,,,,,,,,,,,,,,
,,5eac4b0a1f8db726fc6060c8,2024-02-22_03h27.18.290,kallum_motion_pilot,2023.2.2,Win32,75.07507508,5eac4b0a1f8db726fc6060c8,65d6bb0e977760de756971f7,65d6bdb5cb0a17198e65b8d2,0.017,0.017,0,118,118,131,1,sixeight,,,,,,,,,,,,,,,,,,,,,,,,,,,,,,,,,,,,,,,,,,,,,,,,,,,,,,,,,,,,,,,,,,,,,,,,,,,,,,,,,,,,,,,,,,,,,,,,,,,,,,,,,,,,,,,,,,,,,,,,,,,,,,,,,,,,,,,,,
,,5eac4b0a1f8db726fc6060c8,2024-02-22_03h27.18.290,kallum_motion_pilot,2023.2.2,Win32,75.07507508,5eac4b0a1f8db726fc6060c8,65d6bb0e977760de756971f7,65d6bdb5cb0a17198e65b8d2,0.017,0.017,0,119,119,11,1,twofour,,,,,,,,,,,,,,,,,,,,,,,,,,,,,,,,,,,,,,,,,,,,,,,,,,,,,,,,,,,,,,,,,,,,,,,,,,,,,,,,,,,,,,,,,,,,,,,,,,,,,,,,,,,,,,,,,,,,,,,,,,,,,,,,,,,,,,,,,
,,5eac4b0a1f8db726fc6060c8,2024-02-22_03h27.18.290,kallum_motion_pilot,2023.2.2,Win32,75.07507508,5eac4b0a1f8db726fc6060c8,65d6bb0e977760de756971f7,65d6bdb5cb0a17198e65b8d2,0.017,0.017,0,120,120,119,1,eightseven,,,,,,,,,,,,,,,,,,,,,,,,,,,,,,,,,,,,,,,,,,,,,,,,,,,,,,,,,,,,,,,,,,,,,,,,,,,,,,,,,,,,,,,,,,,,,,,,,,,,,,,,,,,,,,,,,,,,,,,,,,,,,,,,,,,,,,,,,
,,5eac4b0a1f8db726fc6060c8,2024-02-22_03h27.18.290,kallum_motion_pilot,2023.2.2,Win32,75.07507508,5eac4b0a1f8db726fc6060c8,65d6bb0e977760de756971f7,65d6bdb5cb0a17198e65b8d2,0.017,0.017,0,121,121,24,1,onetwo,,,,,,,,,,,,,,,,,,,,,,,,,,,,,,,,,,,,,,,,,,,,,,,,,,,,,,,,,,,,,,,,,,,,,,,,,,,,,,,,,,,,,,,,,,,,,,,,,,,,,,,,,,,,,,,,,,,,,,,,,,,,,,,,,,,,,,,,,
,,5eac4b0a1f8db726fc6060c8,2024-02-22_03h27.18.290,kallum_motion_pilot,2023.2.2,Win32,75.07507508,5eac4b0a1f8db726fc6060c8,65d6bb0e977760de756971f7,65d6bdb5cb0a17198e65b8d2,0.017,0.017,0,122,122,62,1,fourtwo,,,,,,,,,,,,,,,,,,,,,,,,,,,,,,,,,,,,,,,,,,,,,,,,,,,,,,,,,,,,,,,,,,,,,,,,,,,,,,,,,,,,,,,,,,,,,,,,,,,,,,,,,,,,,,,,,,,,,,,,,,,,,,,,,,,,,,,,,
,,5eac4b0a1f8db726fc6060c8,2024-02-22_03h27.18.290,kallum_motion_pilot,2023.2.2,Win32,75.07507508,5eac4b0a1f8db726fc6060c8,65d6bb0e977760de756971f7,65d6bdb5cb0a17198e65b8d2,0.017,0.017,0,123,123,55,1,fourthree,,,,,,,,,,,,,,,,,,,,,,,,,,,,,,,,,,,,,,,,,,,,,,,,,,,,,,,,,,,,,,,,,,,,,,,,,,,,,,,,,,,,,,,,,,,,,,,,,,,,,,,,,,,,,,,,,,,,,,,,,,,,,,,,,,,,,,,,,
,,5eac4b0a1f8db726fc6060c8,2024-02-22_03h27.18.290,kallum_motion_pilot,2023.2.2,Win32,75.07507508,5eac4b0a1f8db726fc6060c8,65d6bb0e977760de756971f7,65d6bdb5cb0a17198e65b8d2,0.017,0.017,0,124,124,97,1,fiveseven,,,,,,,,,,,,,,,,,,,,,,,,,,,,,,,,,,,,,,,,,,,,,,,,,,,,,,,,,,,,,,,,,,,,,,,,,,,,,,,,,,,,,,,,,,,,,,,,,,,,,,,,,,,,,,,,,,,,,,,,,,,,,,,,,,,,,,,,,
,,5eac4b0a1f8db726fc6060c8,2024-02-22_03h27.18.290,kallum_motion_pilot,2023.2.2,Win32,75.07507508,5eac4b0a1f8db726fc6060c8,65d6bb0e977760de756971f7,65d6bdb5cb0a17198e65b8d2,0.017,0.017,0,125,125,37,1,threefour,,,,,,,,,,,,,,,,,,,,,,,,,,,,,,,,,,,,,,,,,,,,,,,,,,,,,,,,,,,,,,,,,,,,,,,,,,,,,,,,,,,,,,,,,,,,,,,,,,,,,,,,,,,,,,,,,,,,,,,,,,,,,,,,,,,,,,,,,
,,5eac4b0a1f8db726fc6060c8,2024-02-22_03h27.18.290,kallum_motion_pilot,2023.2.2,Win32,75.07507508,5eac4b0a1f8db726fc6060c8,65d6bb0e977760de756971f7,65d6bdb5cb0a17198e65b8d2,0.017,0.017,0,126,126,103,1,eightseven,,,,,,,,,,,,,,,,,,,,,,,,,,,,,,,,,,,,,,,,,,,,,,,,,,,,,,,,,,,,,,,,,,,,,,,,,,,,,,,,,,,,,,,,,,,,,,,,,,,,,,,,,,,,,,,,,,,,,,,,,,,,,,,,,,,,,,,,,
,,5eac4b0a1f8db726fc6060c8,2024-02-22_03h27.18.290,kallum_motion_pilot,2023.2.2,Win32,75.07507508,5eac4b0a1f8db726fc6060c8,65d6bb0e977760de756971f7,65d6bdb5cb0a17198e65b8d2,0.017,0.017,0,127,127,36,1,threeone,,,,,,,,,,,,,,,,,,,,,,,,,,,,,,,,,,,,,,,,,,,,,,,,,,,,,,,,,,,,,,,,,,,,,,,,,,,,,,,,,,,,,,,,,,,,,,,,,,,,,,,,,,,,,,,,,,,,,,,,,,,,,,,,,,,,,,,,,
,,5eac4b0a1f8db726fc6060c8,2024-02-22_03h27.18.290,kallum_motion_pilot,2023.2.2,Win32,75.07507508,5eac4b0a1f8db726fc6060c8,65d6bb0e977760de756971f7,65d6bdb5cb0a17198e65b8d2,0.017,0.017,0,128,128,68,1,threeone,,,,,,,,,,,,,,,,,,,,,,,,,,,,,,,,,,,,,,,,,,,,,,,,,,,,,,,,,,,,,,,,,,,,,,,,,,,,,,,,,,,,,,,,,,,,,,,,,,,,,,,,,,,,,,,,,,,,,,,,,,,,,,,,,,,,,,,,,
,,5eac4b0a1f8db726fc6060c8,2024-02-22_03h27.18.290,kallum_motion_pilot,2023.2.2,Win32,75.07507508,5eac4b0a1f8db726fc6060c8,65d6bb0e977760de756971f7,65d6bdb5cb0a17198e65b8d2,0.018,0.018,0,129,129,88,1,fivesix,,,,,,,,,,,,,,,,,,,,,,,,,,,,,,,,,,,,,,,,,,,,,,,,,,,,,,,,,,,,,,,,,,,,,,,,,,,,,,,,,,,,,,,,,,,,,,,,,,,,,,,,,,,,,,,,,,,,,,,,,,,,,,,,,,,,,,,,,
,,5eac4b0a1f8db726fc6060c8,2024-02-22_03h27.18.290,kallum_motion_pilot,2023.2.2,Win32,75.07507508,5eac4b0a1f8db726fc6060c8,65d6bb0e977760de756971f7,65d6bdb5cb0a17198e65b8d2,0.018,0.018,0,130,130,29,1,threefour,,,,,,,,,,,,,,,,,,,,,,,,,,,,,,,,,,,,,,,,,,,,,,,,,,,,,,,,,,,,,,,,,,,,,,,,,,,,,,,,,,,,,,,,,,,,,,,,,,,,,,,,,,,,,,,,,,,,,,,,,,,,,,,,,,,,,,,,,
,,5eac4b0a1f8db726fc6060c8,2024-02-22_03h27.18.290,kallum_motion_pilot,2023.2.2,Win32,75.07507508,5eac4b0a1f8db726fc6060c8,65d6bb0e977760de756971f7,65d6bdb5cb0a17198e65b8d2,0.018,0.018,0,131,131,94,1,eightsix,,,,,,,,,,,,,,,,,,,,,,,,,,,,,,,,,,,,,,,,,,,,,,,,,,,,,,,,,,,,,,,,,,,,,,,,,,,,,,,,,,,,,,,,,,,,,,,,,,,,,,,,,,,,,,,,,,,,,,,,,,,,,,,,,,,,,,,,,
,,5eac4b0a1f8db726fc6060c8,2024-02-22_03h27.18.290,kallum_motion_pilot,2023.2.2,Win32,75.07507508,5eac4b0a1f8db726fc6060c8,65d6bb0e977760de756971f7,65d6bdb5cb0a17198e65b8d2,0.018,0.018,0,132,132,67,1,twofour,,,,,,,,,,,,,,,,,,,,,,,,,,,,,,,,,,,,,,,,,,,,,,,,,,,,,,,,,,,,,,,,,,,,,,,,,,,,,,,,,,,,,,,,,,,,,,,,,,,,,,,,,,,,,,,,,,,,,,,,,,,,,,,,,,,,,,,,,
,,5eac4b0a1f8db726fc6060c8,2024-02-22_03h27.18.290,kallum_motion_pilot,2023.2.2,Win32,75.07507508,5eac4b0a1f8db726fc6060c8,65d6bb0e977760de756971f7,65d6bdb5cb0a17198e65b8d2,0.018,0.018,0,133,133,4,1,threeone,,,,,,,,,,,,,,,,,,,,,,,,,,,,,,,,,,,,,,,,,,,,,,,,,,,,,,,,,,,,,,,,,,,,,,,,,,,,,,,,,,,,,,,,,,,,,,,,,,,,,,,,,,,,,,,,,,,,,,,,,,,,,,,,,,,,,,,,,
,,5eac4b0a1f8db726fc6060c8,2024-02-22_03h27.18.290,kallum_motion_pilot,2023.2.2,Win32,75.07507508,5eac4b0a1f8db726fc6060c8,65d6bb0e977760de756971f7,65d6bdb5cb0a17198e65b8d2,0.018,0.018,0,134,134,21,1,threefour,,,,,,,,,,,,,,,,,,,,,,,,,,,,,,,,,,,,,,,,,,,,,,,,,,,,,,,,,,,,,,,,,,,,,,,,,,,,,,,,,,,,,,,,,,,,,,,,,,,,,,,,,,,,,,,,,,,,,,,,,,,,,,,,,,,,,,,,,
,,5eac4b0a1f8db726fc6060c8,2024-02-22_03h27.18.290,kallum_motion_pilot,2023.2.2,Win32,75.07507508,5eac4b0a1f8db726fc6060c8,65d6bb0e977760de756971f7,65d6bdb5cb0a17198e65b8d2,0.018,0.018,0,135,135,79,1,eightseven,,,,,,,,,,,,,,,,,,,,,,,,,,,,,,,,,,,,,,,,,,,,,,,,,,,,,,,,,,,,,,,,,,,,,,,,,,,,,,,,,,,,,,,,,,,,,,,,,,,,,,,,,,,,,,,,,,,,,,,,,,,,,,,,,,,,,,,,,
,,5eac4b0a1f8db726fc6060c8,2024-02-22_03h27.18.290,kallum_motion_pilot,2023.2.2,Win32,75.07507508,5eac4b0a1f8db726fc6060c8,65d6bb0e977760de756971f7,65d6bdb5cb0a17198e65b8d2,0.018,0.018,0,136,136,92,1,sevenfive,,,,,,,,,,,,,,,,,,,,,,,,,,,,,,,,,,,,,,,,,,,,,,,,,,,,,,,,,,,,,,,,,,,,,,,,,,,,,,,,,,,,,,,,,,,,,,,,,,,,,,,,,,,,,,,,,,,,,,,,,,,,,,,,,,,,,,,,,
,,5eac4b0a1f8db726fc6060c8,2024-02-22_03h27.18.290,kallum_motion_pilot,2023.2.2,Win32,75.07507508,5eac4b0a1f8db726fc6060c8,65d6bb0e977760de756971f7,65d6bdb5cb0a17198e65b8d2,0.018,0.018,0,137,137,78,1,fourtwo,,,,,,,,,,,,,,,,,,,,,,,,,,,,,,,,,,,,,,,,,,,,,,,,,,,,,,,,,,,,,,,,,,,,,,,,,,,,,,,,,,,,,,,,,,,,,,,,,,,,,,,,,,,,,,,,,,,,,,,,,,,,,,,,,,,,,,,,,
,,5eac4b0a1f8db726fc6060c8,2024-02-22_03h27.18.290,kallum_motion_pilot,2023.2.2,Win32,75.07507508,5eac4b0a1f8db726fc6060c8,65d6bb0e977760de756971f7,65d6bdb5cb0a17198e65b8d2,0.018,0.018,0,138,138,73,1,onethree,,,,,,,,,,,,,,,,,,,,,,,,,,,,,,,,,,,,,,,,,,,,,,,,,,,,,,,,,,,,,,,,,,,,,,,,,,,,,,,,,,,,,,,,,,,,,,,,,,,,,,,,,,,,,,,,,,,,,,,,,,,,,,,,,,,,,,,,,
,,5eac4b0a1f8db726fc6060c8,2024-02-22_03h27.18.290,kallum_motion_pilot,2023.2.2,Win32,75.07507508,5eac4b0a1f8db726fc6060c8,65d6bb0e977760de756971f7,65d6bdb5cb0a17198e65b8d2,0.018,0.018,0,139,139,118,1,eightsix,,,,,,,,,,,,,,,,,,,,,,,,,,,,,,,,,,,,,,,,,,,,,,,,,,,,,,,,,,,,,,,,,,,,,,,,,,,,,,,,,,,,,,,,,,,,,,,,,,,,,,,,,,,,,,,,,,,,,,,,,,,,,,,,,,,,,,,,,
,,5eac4b0a1f8db726fc6060c8,2024-02-22_03h27.18.290,kallum_motion_pilot,2023.2.2,Win32,75.07507508,5eac4b0a1f8db726fc6060c8,65d6bb0e977760de756971f7,65d6bdb5cb0a17198e65b8d2,0.018,0.018,0,140,140,115,1,sixeight,,,,,,,,,,,,,,,,,,,,,,,,,,,,,,,,,,,,,,,,,,,,,,,,,,,,,,,,,,,,,,,,,,,,,,,,,,,,,,,,,,,,,,,,,,,,,,,,,,,,,,,,,,,,,,,,,,,,,,,,,,,,,,,,,,,,,,,,,
,,5eac4b0a1f8db726fc6060c8,2024-02-22_03h27.18.290,kallum_motion_pilot,2023.2.2,Win32,75.07507508,5eac4b0a1f8db726fc6060c8,65d6bb0e977760de756971f7,65d6bdb5cb0a17198e65b8d2,0.018,0.018,0,141,141,32,1,onetwo,,,,,,,,,,,,,,,,,,,,,,,,,,,,,,,,,,,,,,,,,,,,,,,,,,,,,,,,,,,,,,,,,,,,,,,,,,,,,,,,,,,,,,,,,,,,,,,,,,,,,,,,,,,,,,,,,,,,,,,,,,,,,,,,,,,,,,,,,
,,5eac4b0a1f8db726fc6060c8,2024-02-22_03h27.18.290,kallum_motion_pilot,2023.2.2,Win32,75.07507508,5eac4b0a1f8db726fc6060c8,65d6bb0e977760de756971f7,65d6bdb5cb0a17198e65b8d2,0.018,0.018,0,142,142,60,1,threeone,,,,,,,,,,,,,,,,,,,,,,,,,,,,,,,,,,,,,,,,,,,,,,,,,,,,,,,,,,,,,,,,,,,,,,,,,,,,,,,,,,,,,,,,,,,,,,,,,,,,,,,,,,,,,,,,,,,,,,,,,,,,,,,,,,,,,,,,,
,,5eac4b0a1f8db726fc6060c8,2024-02-22_03h27.18.290,kallum_motion_pilot,2023.2.2,Win32,75.07507508,5eac4b0a1f8db726fc6060c8,65d6bb0e977760de756971f7,65d6bdb5cb0a17198e65b8d2,0.018,0.018,0,143,143,18,1,twoone,,,,,,,,,,,,,,,,,,,,,,,,,,,,,,,,,,,,,,,,,,,,,,,,,,,,,,,,,,,,,,,,,,,,,,,,,,,,,,,,,,,,,,,,,,,,,,,,,,,,,,,,,,,,,,,,,,,,,,,,,,,,,,,,,,,,,,,,,
,,5eac4b0a1f8db726fc6060c8,2024-02-22_03h27.18.290,kallum_motion_pilot,2023.2.2,Win32,75.07507508,5eac4b0a1f8db726fc6060c8,65d6bb0e977760de756971f7,65d6bdb5cb0a17198e65b8d2,0.018,0.018,0,144,144,129,1,fiveseven,,,,,,,,,,,,,,,,,,,,,,,,,,,,,,,,,,,,,,,,,,,,,,,,,,,,,,,,,,,,,,,,,,,,,,,,,,,,,,,,,,,,,,,,,,,,,,,,,,,,,,,,,,,,,,,,,,,,,,,,,,,,,,,,,,,,,,,,,
,,5eac4b0a1f8db726fc6060c8,2024-02-22_03h27.18.290,kallum_motion_pilot,2023.2.2,Win32,75.07507508,5eac4b0a1f8db726fc6060c8,65d6bb0e977760de756971f7,65d6bdb5cb0a17198e65b8d2,0.018,0.018,0,145,145,64,1,onetwo,,,,,,,,,,,,,,,,,,,,,,,,,,,,,,,,,,,,,,,,,,,,,,,,,,,,,,,,,,,,,,,,,,,,,,,,,,,,,,,,,,,,,,,,,,,,,,,,,,,,,,,,,,,,,,,,,,,,,,,,,,,,,,,,,,,,,,,,,
,,5eac4b0a1f8db726fc6060c8,2024-02-22_03h27.18.290,kallum_motion_pilot,2023.2.2,Win32,75.07507508,5eac4b0a1f8db726fc6060c8,65d6bb0e977760de756971f7,65d6bdb5cb0a17198e65b8d2,0.018,0.018,0,146,146,108,1,sevenfive,,,,,,,,,,,,,,,,,,,,,,,,,,,,,,,,,,,,,,,,,,,,,,,,,,,,,,,,,,,,,,,,,,,,,,,,,,,,,,,,,,,,,,,,,,,,,,,,,,,,,,,,,,,,,,,,,,,,,,,,,,,,,,,,,,,,,,,,,
,,5eac4b0a1f8db726fc6060c8,2024-02-22_03h27.18.290,kallum_motion_pilot,2023.2.2,Win32,75.07507508,5eac4b0a1f8db726fc6060c8,65d6bb0e977760de756971f7,65d6bdb5cb0a17198e65b8d2,0.018,0.018,0,147,147,87,1,eightseven,,,,,,,,,,,,,,,,,,,,,,,,,,,,,,,,,,,,,,,,,,,,,,,,,,,,,,,,,,,,,,,,,,,,,,,,,,,,,,,,,,,,,,,,,,,,,,,,,,,,,,,,,,,,,,,,,,,,,,,,,,,,,,,,,,,,,,,,,
,,5eac4b0a1f8db726fc6060c8,2024-02-22_03h27.18.290,kallum_motion_pilot,2023.2.2,Win32,75.07507508,5eac4b0a1f8db726fc6060c8,65d6bb0e977760de756971f7,65d6bdb5cb0a17198e65b8d2,0.018,0.018,0,148,148,105,1,fiveseven,,,,,,,,,,,,,,,,,,,,,,,,,,,,,,,,,,,,,,,,,,,,,,,,,,,,,,,,,,,,,,,,,,,,,,,,,,,,,,,,,,,,,,,,,,,,,,,,,,,,,,,,,,,,,,,,,,,,,,,,,,,,,,,,,,,,,,,,,
,,5eac4b0a1f8db726fc6060c8,2024-02-22_03h27.18.290,kallum_motion_pilot,2023.2.2,Win32,75.07507508,5eac4b0a1f8db726fc6060c8,65d6bb0e977760de756971f7,65d6bdb5cb0a17198e65b8d2,0.018,0.018,0,149,149,19,1,twofour,,,,,,,,,,,,,,,,,,,,,,,,,,,,,,,,,,,,,,,,,,,,,,,,,,,,,,,,,,,,,,,,,,,,,,,,,,,,,,,,,,,,,,,,,,,,,,,,,,,,,,,,,,,,,,,,,,,,,,,,,,,,,,,,,,,,,,,,,
,,5eac4b0a1f8db726fc6060c8,2024-02-22_03h27.18.290,kallum_motion_pilot,2023.2.2,Win32,75.07507508,5eac4b0a1f8db726fc6060c8,65d6bb0e977760de756971f7,65d6bdb5cb0a17198e65b8d2,0.018,0.018,0,150,150,35,1,twofour,,,,,,,,,,,,,,,,,,,,,,,,,,,,,,,,,,,,,,,,,,,,,,,,,,,,,,,,,,,,,,,,,,,,,,,,,,,,,,,,,,,,,,,,,,,,,,,,,,,,,,,,,,,,,,,,,,,,,,,,,,,,,,,,,,,,,,,,,
,,5eac4b0a1f8db726fc6060c8,2024-02-22_03h27.18.290,kallum_motion_pilot,2023.2.2,Win32,75.07507508,5eac4b0a1f8db726fc6060c8,65d6bb0e977760de756971f7,65d6bdb5cb0a17198e65b8d2,0.019,0.019,0,151,151,154,1,sixfive,,,,,,,,,,,,,,,,,,,,,,,,,,,,,,,,,,,,,,,,,,,,,,,,,,,,,,,,,,,,,,,,,,,,,,,,,,,,,,,,,,,,,,,,,,,,,,,,,,,,,,,,,,,,,,,,,,,,,,,,,,,,,,,,,,,,,,,,,
,,5eac4b0a1f8db726fc6060c8,2024-02-22_03h27.18.290,kallum_motion_pilot,2023.2.2,Win32,75.07507508,5eac4b0a1f8db726fc6060c8,65d6bb0e977760de756971f7,65d6bdb5cb0a17198e65b8d2,0.019,0.019,0,152,152,142,1,eightsix,,,,,,,,,,,,,,,,,,,,,,,,,,,,,,,,,,,,,,,,,,,,,,,,,,,,,,,,,,,,,,,,,,,,,,,,,,,,,,,,,,,,,,,,,,,,,,,,,,,,,,,,,,,,,,,,,,,,,,,,,,,,,,,,,,,,,,,,,
,,5eac4b0a1f8db726fc6060c8,2024-02-22_03h27.18.290,kallum_motion_pilot,2023.2.2,Win32,75.07507508,5eac4b0a1f8db726fc6060c8,65d6bb0e977760de756971f7,65d6bdb5cb0a17198e65b8d2,0.019,0.019,0,153,153,13,1,threefour,,,,,,,,,,,,,,,,,,,,,,,,,,,,,,,,,,,,,,,,,,,,,,,,,,,,,,,,,,,,,,,,,,,,,,,,,,,,,,,,,,,,,,,,,,,,,,,,,,,,,,,,,,,,,,,,,,,,,,,,,,,,,,,,,,,,,,,,,
,,5eac4b0a1f8db726fc6060c8,2024-02-22_03h27.18.290,kallum_motion_pilot,2023.2.2,Win32,75.07507508,5eac4b0a1f8db726fc6060c8,65d6bb0e977760de756971f7,65d6bdb5cb0a17198e65b8d2,0.019,0.019,0,154,154,25,1,onethree,,,,,,,,,,,,,,,,,,,,,,,,,,,,,,,,,,,,,,,,,,,,,,,,,,,,,,,,,,,,,,,,,,,,,,,,,,,,,,,,,,,,,,,,,,,,,,,,,,,,,,,,,,,,,,,,,,,,,,,,,,,,,,,,,,,,,,,,,
,,5eac4b0a1f8db726fc6060c8,2024-02-22_03h27.18.290,kallum_motion_pilot,2023.2.2,Win32,75.07507508,5eac4b0a1f8db726fc6060c8,65d6bb0e977760de756971f7,65d6bdb5cb0a17198e65b8d2,0.019,0.019,0,155,155,54,1,fourtwo,,,,,,,,,,,,,,,,,,,,,,,,,,,,,,,,,,,,,,,,,,,,,,,,,,,,,,,,,,,,,,,,,,,,,,,,,,,,,,,,,,,,,,,,,,,,,,,,,,,,,,,,,,,,,,,,,,,,,,,,,,,,,,,,,,,,,,,,,
,,5eac4b0a1f8db726fc6060c8,2024-02-22_03h27.18.290,kallum_motion_pilot,2023.2.2,Win32,75.07507508,5eac4b0a1f8db726fc6060c8,65d6bb0e977760de756971f7,65d6bdb5cb0a17198e65b8d2,0.019,0.019,0,156,156,121,1,fiveseven,,,,,,,,,,,,,,,,,,,,,,,,,,,,,,,,,,,,,,,,,,,,,,,,,,,,,,,,,,,,,,,,,,,,,,,,,,,,,,,,,,,,,,,,,,,,,,,,,,,,,,,,,,,,,,,,,,,,,,,,,,,,,,,,,,,,,,,,,
,,5eac4b0a1f8db726fc6060c8,2024-02-22_03h27.18.290,kallum_motion_pilot,2023.2.2,Win32,75.07507508,5eac4b0a1f8db726fc6060c8,65d6bb0e977760de756971f7,65d6bdb5cb0a17198e65b8d2,0.019,0.019,0,157,157,156,1,sevenfive,,,,,,,,,,,,,,,,,,,,,,,,,,,,,,,,,,,,,,,,,,,,,,,,,,,,,,,,,,,,,,,,,,,,,,,,,,,,,,,,,,,,,,,,,,,,,,,,,,,,,,,,,,,,,,,,,,,,,,,,,,,,,,,,,,,,,,,,,
,,5eac4b0a1f8db726fc6060c8,2024-02-22_03h27.18.290,kallum_motion_pilot,2023.2.2,Win32,75.07507508,5eac4b0a1f8db726fc6060c8,65d6bb0e977760de756971f7,65d6bdb5cb0a17198e65b8d2,0.019,0.019,0,158,158,125,1,seveneight,,,,,,,,,,,,,,,,,,,,,,,,,,,,,,,,,,,,,,,,,,,,,,,,,,,,,,,,,,,,,,,,,,,,,,,,,,,,,,,,,,,,,,,,,,,,,,,,,,,,,,,,,,,,,,,,,,,,,,,,,,,,,,,,,,,,,,,,,
,,5eac4b0a1f8db726fc6060c8,2024-02-22_03h27.18.290,kallum_motion_pilot,2023.2.2,Win32,75.07507508,5eac4b0a1f8db726fc6060c8,65d6bb0e977760de756971f7,65d6bdb5cb0a17198e65b8d2,0.019,0.019,0,159,159,76,1,threeone,,,,,,,,,,,,,,,,,,,,,,,,,,,,,,,,,,,,,,,,,,,,,,,,,,,,,,,,,,,,,,,,,,,,,,,,,,,,,,,,,,,,,,,,,,,,,,,,,,,,,,,,,,,,,,,,,,,,,,,,,,,,,,,,,,,,,,,,,
,,5eac4b0a1f8db726fc6060c8,2024-02-22_03h27.18.290,kallum_motion_pilot,2023.2.2,Win32,75.07507508,5eac4b0a1f8db726fc6060c8,65d6bb0e977760de756971f7,65d6bdb5cb0a17198e65b8d2,0.019,0.019,0,160,160,149,1,seveneight,,,,,,,,,,,,,,,,,,,,,,,,,,,,,,,,,,,,,,,,,,,,,,,,,,,,,,,,,,,,,,,,,,,,,,,,,,,,,,,,,,,,,,,,,,,,,,,,,,,,,,,,,,,,,,,,,,,,,,,,,,,,,,,,,,,,,,,,,
,,5eac4b0a1f8db726fc6060c8,2024-02-22_03h27.18.290,kallum_motion_pilot,2023.2.2,Win32,75.07507508,5eac4b0a1f8db726fc6060c8,65d6bb0e977760de756971f7,65d6bdb5cb0a17198e65b8d2,0.019,0.019,0,161,161,147,1,sixeight,,,,,,,,,,,,,,,,,,,,,,,,,,,,,,,,,,,,,,,,,,,,,,,,,,,,,,,,,,,,,,,,,,,,,,,,,,,,,,,,,,,,,,,,,,,,,,,,,,,,,,,,,,,,,,,,,,,,,,,,,,,,,,,,,,,,,,,,,
,,5eac4b0a1f8db726fc6060c8,2024-02-22_03h27.18.290,kallum_motion_pilot,2023.2.2,Win32,75.07507508,5eac4b0a1f8db726fc6060c8,65d6bb0e977760de756971f7,65d6bdb5cb0a17198e65b8d2,0.019,0.019,1,0,162,5,1,threefour,,,,,,,,,,,,,,,,,,,,,,,,,,,,,,,,,,,,,,,,,,,,,,,,,,,,,,,,,,,,,,,,,,,,,,,,,,,,,,,,,,,,,,,,,,,,,,,,,,,,,,,,,,,,,,,,,,,,,,,,,,,,,,,,,,,,,,,,,
,,5eac4b0a1f8db726fc6060c8,2024-02-22_03h27.18.290,kallum_motion_pilot,2023.2.2,Win32,75.07507508,5eac4b0a1f8db726fc6060c8,65d6bb0e977760de756971f7,65d6bdb5cb0a17198e65b8d2,0.019,0.019,1,1,163,156,1,sevenfive,,,,,,,,,,,,,,,,,,,,,,,,,,,,,,,,,,,,,,,,,,,,,,,,,,,,,,,,,,,,,,,,,,,,,,,,,,,,,,,,,,,,,,,,,,,,,,,,,,,,,,,,,,,,,,,,,,,,,,,,,,,,,,,,,,,,,,,,,
,,5eac4b0a1f8db726fc6060c8,2024-02-22_03h27.18.290,kallum_motion_pilot,2023.2.2,Win32,75.07507508,5eac4b0a1f8db726fc6060c8,65d6bb0e977760de756971f7,65d6bdb5cb0a17198e65b8d2,0.019,0.019,1,2,164,98,1,sixfive,,,,,,,,,,,,,,,,,,,,,,,,,,,,,,,,,,,,,,,,,,,,,,,,,,,,,,,,,,,,,,,,,,,,,,,,,,,,,,,,,,,,,,,,,,,,,,,,,,,,,,,,,,,,,,,,,,,,,,,,,,,,,,,,,,,,,,,,,
,,5eac4b0a1f8db726fc6060c8,2024-02-22_03h27.18.290,kallum_motion_pilot,2023.2.2,Win32,75.07507508,5eac4b0a1f8db726fc6060c8,65d6bb0e977760de756971f7,65d6bdb5cb0a17198e65b8d2,0.019,0.019,1,3,165,23,1,fourthree,,,,,,,,,,,,,,,,,,,,,,,,,,,,,,,,,,,,,,,,,,,,,,,,,,,,,,,,,,,,,,,,,,,,,,,,,,,,,,,,,,,,,,,,,,,,,,,,,,,,,,,,,,,,,,,,,,,,,,,,,,,,,,,,,,,,,,,,,
,,5eac4b0a1f8db726fc6060c8,2024-02-22_03h27.18.290,kallum_motion_pilot,2023.2.2,Win32,75.07507508,5eac4b0a1f8db726fc6060c8,65d6bb0e977760de756971f7,65d6bdb5cb0a17198e65b8d2,0.019,0.019,1,4,166,46,1,fourtwo,,,,,,,,,,,,,,,,,,,,,,,,,,,,,,,,,,,,,,,,,,,,,,,,,,,,,,,,,,,,,,,,,,,,,,,,,,,,,,,,,,,,,,,,,,,,,,,,,,,,,,,,,,,,,,,,,,,,,,,,,,,,,,,,,,,,,,,,,
,,5eac4b0a1f8db726fc6060c8,2024-02-22_03h27.18.290,kallum_motion_pilot,2023.2.2,Win32,75.07507508,5eac4b0a1f8db726fc6060c8,65d6bb0e977760de756971f7,65d6bdb5cb0a17198e65b8d2,0.019,0.019,1,5,167,96,1,fivesix,,,,,,,,,,,,,,,,,,,,,,,,,,,,,,,,,,,,,,,,,,,,,,,,,,,,,,,,,,,,,,,,,,,,,,,,,,,,,,,,,,,,,,,,,,,,,,,,,,,,,,,,,,,,,,,,,,,,,,,,,,,,,,,,,,,,,,,,,
,,5eac4b0a1f8db726fc6060c8,2024-02-22_03h27.18.290,kallum_motion_pilot,2023.2.2,Win32,75.07507508,5eac4b0a1f8db726fc6060c8,65d6bb0e977760de756971f7,65d6bdb5cb0a17198e65b8d2,0.019,0.019,1,6,168,142,1,eightsix,,,,,,,,,,,,,,,,,,,,,,,,,,,,,,,,,,,,,,,,,,,,,,,,,,,,,,,,,,,,,,,,,,,,,,,,,,,,,,,,,,,,,,,,,,,,,,,,,,,,,,,,,,,,,,,,,,,,,,,,,,,,,,,,,,,,,,,,,
,,5eac4b0a1f8db726fc6060c8,2024-02-22_03h27.18.290,kallum_motion_pilot,2023.2.2,Win32,75.07507508,5eac4b0a1f8db726fc6060c8,65d6bb0e977760de756971f7,65d6bdb5cb0a17198e65b8d2,0.019,0.019,1,7,169,154,1,sixfive,,,,,,,,,,,,,,,,,,,,,,,,,,,,,,,,,,,,,,,,,,,,,,,,,,,,,,,,,,,,,,,,,,,,,,,,,,,,,,,,,,,,,,,,,,,,,,,,,,,,,,,,,,,,,,,,,,,,,,,,,,,,,,,,,,,,,,,,,
,,5eac4b0a1f8db726fc6060c8,2024-02-22_03h27.18.290,kallum_motion_pilot,2023.2.2,Win32,75.07507508,5eac4b0a1f8db726fc6060c8,65d6bb0e977760de756971f7,65d6bdb5cb0a17198e65b8d2,0.019,0.019,1,8,170,116,1,sevenfive,,,,,,,,,,,,,,,,,,,,,,,,,,,,,,,,,,,,,,,,,,,,,,,,,,,,,,,,,,,,,,,,,,,,,,,,,,,,,,,,,,,,,,,,,,,,,,,,,,,,,,,,,,,,,,,,,,,,,,,,,,,,,,,,,,,,,,,,,
,,5eac4b0a1f8db726fc6060c8,2024-02-22_03h27.18.290,kallum_motion_pilot,2023.2.2,Win32,75.07507508,5eac4b0a1f8db726fc6060c8,65d6bb0e977760de756971f7,65d6bdb5cb0a17198e65b8d2,0.019,0.019,1,9,171,13,1,threefour,,,,,,,,,,,,,,,,,,,,,,,,,,,,,,,,,,,,,,,,,,,,,,,,,,,,,,,,,,,,,,,,,,,,,,,,,,,,,,,,,,,,,,,,,,,,,,,,,,,,,,,,,,,,,,,,,,,,,,,,,,,,,,,,,,,,,,,,,
,,5eac4b0a1f8db726fc6060c8,2024-02-22_03h27.18.290,kallum_motion_pilot,2023.2.2,Win32,75.07507508,5eac4b0a1f8db726fc6060c8,65d6bb0e977760de756971f7,65d6bdb5cb0a17198e65b8d2,0.019,0.019,1,10,172,147,1,sixeight,,,,,,,,,,,,,,,,,,,,,,,,,,,,,,,,,,,,,,,,,,,,,,,,,,,,,,,,,,,,,,,,,,,,,,,,,,,,,,,,,,,,,,,,,,,,,,,,,,,,,,,,,,,,,,,,,,,,,,,,,,,,,,,,,,,,,,,,,
,,5eac4b0a1f8db726fc6060c8,2024-02-22_03h27.18.290,kallum_motion_pilot,2023.2.2,Win32,75.07507508,5eac4b0a1f8db726fc6060c8,65d6bb0e977760de756971f7,65d6bdb5cb0a17198e65b8d2,0.019,0.019,1,11,173,14,1,fourtwo,,,,,,,,,,,,,,,,,,,,,,,,,,,,,,,,,,,,,,,,,,,,,,,,,,,,,,,,,,,,,,,,,,,,,,,,,,,,,,,,,,,,,,,,,,,,,,,,,,,,,,,,,,,,,,,,,,,,,,,,,,,,,,,,,,,,,,,,,
,,5eac4b0a1f8db726fc6060c8,2024-02-22_03h27.18.290,kallum_motion_pilot,2023.2.2,Win32,75.07507508,5eac4b0a1f8db726fc6060c8,65d6bb0e977760de756971f7,65d6bdb5cb0a17198e65b8d2,0.019,0.019,1,12,174,102,1,eightsix,,,,,,,,,,,,,,,,,,,,,,,,,,,,,,,,,,,,,,,,,,,,,,,,,,,,,,,,,,,,,,,,,,,,,,,,,,,,,,,,,,,,,,,,,,,,,,,,,,,,,,,,,,,,,,,,,,,,,,,,,,,,,,,,,,,,,,,,,
,,5eac4b0a1f8db726fc6060c8,2024-02-22_03h27.18.290,kallum_motion_pilot,2023.2.2,Win32,75.07507508,5eac4b0a1f8db726fc6060c8,65d6bb0e977760de756971f7,65d6bdb5cb0a17198e65b8d2,0.02,0.02,1,13,175,31,1,fourthree,,,,,,,,,,,,,,,,,,,,,,,,,,,,,,,,,,,,,,,,,,,,,,,,,,,,,,,,,,,,,,,,,,,,,,,,,,,,,,,,,,,,,,,,,,,,,,,,,,,,,,,,,,,,,,,,,,,,,,,,,,,,,,,,,,,,,,,,,
,,5eac4b0a1f8db726fc6060c8,2024-02-22_03h27.18.290,kallum_motion_pilot,2023.2.2,Win32,75.07507508,5eac4b0a1f8db726fc6060c8,65d6bb0e977760de756971f7,65d6bdb5cb0a17198e65b8d2,0.02,0.02,1,14,176,128,1,fivesix,,,,,,,,,,,,,,,,,,,,,,,,,,,,,,,,,,,,,,,,,,,,,,,,,,,,,,,,,,,,,,,,,,,,,,,,,,,,,,,,,,,,,,,,,,,,,,,,,,,,,,,,,,,,,,,,,,,,,,,,,,,,,,,,,,,,,,,,,
,,5eac4b0a1f8db726fc6060c8,2024-02-22_03h27.18.290,kallum_motion_pilot,2023.2.2,Win32,75.07507508,5eac4b0a1f8db726fc6060c8,65d6bb0e977760de756971f7,65d6bdb5cb0a17198e65b8d2,0.02,0.02,1,15,177,129,1,fiveseven,,,,,,,,,,,,,,,,,,,,,,,,,,,,,,,,,,,,,,,,,,,,,,,,,,,,,,,,,,,,,,,,,,,,,,,,,,,,,,,,,,,,,,,,,,,,,,,,,,,,,,,,,,,,,,,,,,,,,,,,,,,,,,,,,,,,,,,,,
,,5eac4b0a1f8db726fc6060c8,2024-02-22_03h27.18.290,kallum_motion_pilot,2023.2.2,Win32,75.07507508,5eac4b0a1f8db726fc6060c8,65d6bb0e977760de756971f7,65d6bdb5cb0a17198e65b8d2,0.02,0.02,1,16,178,155,1,sixeight,,,,,,,,,,,,,,,,,,,,,,,,,,,,,,,,,,,,,,,,,,,,,,,,,,,,,,,,,,,,,,,,,,,,,,,,,,,,,,,,,,,,,,,,,,,,,,,,,,,,,,,,,,,,,,,,,,,,,,,,,,,,,,,,,,,,,,,,,
,,5eac4b0a1f8db726fc6060c8,2024-02-22_03h27.18.290,kallum_motion_pilot,2023.2.2,Win32,75.07507508,5eac4b0a1f8db726fc6060c8,65d6bb0e977760de756971f7,65d6bdb5cb0a17198e65b8d2,0.02,0.02,1,17,179,117,1,seveneight,,,,,,,,,,,,,,,,,,,,,,,,,,,,,,,,,,,,,,,,,,,,,,,,,,,,,,,,,,,,,,,,,,,,,,,,,,,,,,,,,,,,,,,,,,,,,,,,,,,,,,,,,,,,,,,,,,,,,,,,,,,,,,,,,,,,,,,,,
,,5eac4b0a1f8db726fc6060c8,2024-02-22_03h27.18.290,kallum_motion_pilot,2023.2.2,Win32,75.07507508,5eac4b0a1f8db726fc6060c8,65d6bb0e977760de756971f7,65d6bdb5cb0a17198e65b8d2,0.02,0.02,1,18,180,38,1,fourtwo,,,,,,,,,,,,,,,,,,,,,,,,,,,,,,,,,,,,,,,,,,,,,,,,,,,,,,,,,,,,,,,,,,,,,,,,,,,,,,,,,,,,,,,,,,,,,,,,,,,,,,,,,,,,,,,,,,,,,,,,,,,,,,,,,,,,,,,,,
,,5eac4b0a1f8db726fc6060c8,2024-02-22_03h27.18.290,kallum_motion_pilot,2023.2.2,Win32,75.07507508,5eac4b0a1f8db726fc6060c8,65d6bb0e977760de756971f7,65d6bdb5cb0a17198e65b8d2,0.02,0.02,1,19,181,2,1,twoone,,,,,,,,,,,,,,,,,,,,,,,,,,,,,,,,,,,,,,,,,,,,,,,,,,,,,,,,,,,,,,,,,,,,,,,,,,,,,,,,,,,,,,,,,,,,,,,,,,,,,,,,,,,,,,,,,,,,,,,,,,,,,,,,,,,,,,,,,
,,5eac4b0a1f8db726fc6060c8,2024-02-22_03h27.18.290,kallum_motion_pilot,2023.2.2,Win32,75.07507508,5eac4b0a1f8db726fc6060c8,65d6bb0e977760de756971f7,65d6bdb5cb0a17198e65b8d2,0.02,0.02,1,20,182,0,1,onetwo,,,,,,,,,,,,,,,,,,,,,,,,,,,,,,,,,,,,,,,,,,,,,,,,,,,,,,,,,,,,,,,,,,,,,,,,,,,,,,,,,,,,,,,,,,,,,,,,,,,,,,,,,,,,,,,,,,,,,,,,,,,,,,,,,,,,,,,,,
,,5eac4b0a1f8db726fc6060c8,2024-02-22_03h27.18.290,kallum_motion_pilot,2023.2.2,Win32,75.07507508,5eac4b0a1f8db726fc6060c8,65d6bb0e977760de756971f7,65d6bdb5cb0a17198e65b8d2,0.02,0.02,1,21,183,75,1,twofour,,,,,,,,,,,,,,,,,,,,,,,,,,,,,,,,,,,,,,,,,,,,,,,,,,,,,,,,,,,,,,,,,,,,,,,,,,,,,,,,,,,,,,,,,,,,,,,,,,,,,,,,,,,,,,,,,,,,,,,,,,,,,,,,,,,,,,,,,
,,5eac4b0a1f8db726fc6060c8,2024-02-22_03h27.18.290,kallum_motion_pilot,2023.2.2,Win32,75.07507508,5eac4b0a1f8db726fc6060c8,65d6bb0e977760de756971f7,65d6bdb5cb0a17198e65b8d2,0.02,0.02,1,22,184,79,1,eightseven,,,,,,,,,,,,,,,,,,,,,,,,,,,,,,,,,,,,,,,,,,,,,,,,,,,,,,,,,,,,,,,,,,,,,,,,,,,,,,,,,,,,,,,,,,,,,,,,,,,,,,,,,,,,,,,,,,,,,,,,,,,,,,,,,,,,,,,,,
,,5eac4b0a1f8db726fc6060c8,2024-02-22_03h27.18.290,kallum_motion_pilot,2023.2.2,Win32,75.07507508,5eac4b0a1f8db726fc6060c8,65d6bb0e977760de756971f7,65d6bdb5cb0a17198e65b8d2,0.02,0.02,1,23,185,80,1,fivesix,,,,,,,,,,,,,,,,,,,,,,,,,,,,,,,,,,,,,,,,,,,,,,,,,,,,,,,,,,,,,,,,,,,,,,,,,,,,,,,,,,,,,,,,,,,,,,,,,,,,,,,,,,,,,,,,,,,,,,,,,,,,,,,,,,,,,,,,,
,,5eac4b0a1f8db726fc6060c8,2024-02-22_03h27.18.290,kallum_motion_pilot,2023.2.2,Win32,75.07507508,5eac4b0a1f8db726fc6060c8,65d6bb0e977760de756971f7,65d6bdb5cb0a17198e65b8d2,0.02,0.02,1,24,186,97,1,fiveseven,,,,,,,,,,,,,,,,,,,,,,,,,,,,,,,,,,,,,,,,,,,,,,,,,,,,,,,,,,,,,,,,,,,,,,,,,,,,,,,,,,,,,,,,,,,,,,,,,,,,,,,,,,,,,,,,,,,,,,,,,,,,,,,,,,,,,,,,,
,,5eac4b0a1f8db726fc6060c8,2024-02-22_03h27.18.290,kallum_motion_pilot,2023.2.2,Win32,75.07507508,5eac4b0a1f8db726fc6060c8,65d6bb0e977760de756971f7,65d6bdb5cb0a17198e65b8d2,0.02,0.02,1,25,187,103,1,eightseven,,,,,,,,,,,,,,,,,,,,,,,,,,,,,,,,,,,,,,,,,,,,,,,,,,,,,,,,,,,,,,,,,,,,,,,,,,,,,,,,,,,,,,,,,,,,,,,,,,,,,,,,,,,,,,,,,,,,,,,,,,,,,,,,,,,,,,,,,
,,5eac4b0a1f8db726fc6060c8,2024-02-22_03h27.18.290,kallum_motion_pilot,2023.2.2,Win32,75.07507508,5eac4b0a1f8db726fc6060c8,65d6bb0e977760de756971f7,65d6bdb5cb0a17198e65b8d2,0.02,0.02,1,26,188,149,1,seveneight,,,,,,,,,,,,,,,,,,,,,,,,,,,,,,,,,,,,,,,,,,,,,,,,,,,,,,,,,,,,,,,,,,,,,,,,,,,,,,,,,,,,,,,,,,,,,,,,,,,,,,,,,,,,,,,,,,,,,,,,,,,,,,,,,,,,,,,,,
,,5eac4b0a1f8db726fc6060c8,2024-02-22_03h27.18.290,kallum_motion_pilot,2023.2.2,Win32,75.07507508,5eac4b0a1f8db726fc6060c8,65d6bb0e977760de756971f7,65d6bdb5cb0a17198e65b8d2,0.02,0.02,1,27,189,34,1,twoone,,,,,,,,,,,,,,,,,,,,,,,,,,,,,,,,,,,,,,,,,,,,,,,,,,,,,,,,,,,,,,,,,,,,,,,,,,,,,,,,,,,,,,,,,,,,,,,,,,,,,,,,,,,,,,,,,,,,,,,,,,,,,,,,,,,,,,,,,
,,5eac4b0a1f8db726fc6060c8,2024-02-22_03h27.18.290,kallum_motion_pilot,2023.2.2,Win32,75.07507508,5eac4b0a1f8db726fc6060c8,65d6bb0e977760de756971f7,65d6bdb5cb0a17198e65b8d2,0.02,0.02,1,28,190,52,1,threeone,,,,,,,,,,,,,,,,,,,,,,,,,,,,,,,,,,,,,,,,,,,,,,,,,,,,,,,,,,,,,,,,,,,,,,,,,,,,,,,,,,,,,,,,,,,,,,,,,,,,,,,,,,,,,,,,,,,,,,,,,,,,,,,,,,,,,,,,,
,,5eac4b0a1f8db726fc6060c8,2024-02-22_03h27.18.290,kallum_motion_pilot,2023.2.2,Win32,75.07507508,5eac4b0a1f8db726fc6060c8,65d6bb0e977760de756971f7,65d6bdb5cb0a17198e65b8d2,0.02,0.02,1,29,191,32,1,onetwo,,,,,,,,,,,,,,,,,,,,,,,,,,,,,,,,,,,,,,,,,,,,,,,,,,,,,,,,,,,,,,,,,,,,,,,,,,,,,,,,,,,,,,,,,,,,,,,,,,,,,,,,,,,,,,,,,,,,,,,,,,,,,,,,,,,,,,,,,
,,5eac4b0a1f8db726fc6060c8,2024-02-22_03h27.18.290,kallum_motion_pilot,2023.2.2,Win32,75.07507508,5eac4b0a1f8db726fc6060c8,65d6bb0e977760de756971f7,65d6bdb5cb0a17198e65b8d2,0.02,0.02,1,30,192,40,1,onetwo,,,,,,,,,,,,,,,,,,,,,,,,,,,,,,,,,,,,,,,,,,,,,,,,,,,,,,,,,,,,,,,,,,,,,,,,,,,,,,,,,,,,,,,,,,,,,,,,,,,,,,,,,,,,,,,,,,,,,,,,,,,,,,,,,,,,,,,,,
,,5eac4b0a1f8db726fc6060c8,2024-02-22_03h27.18.290,kallum_motion_pilot,2023.2.2,Win32,75.07507508,5eac4b0a1f8db726fc6060c8,65d6bb0e977760de756971f7,65d6bdb5cb0a17198e65b8d2,0.02,0.02,1,31,193,159,1,eightseven,,,,,,,,,,,,,,,,,,,,,,,,,,,,,,,,,,,,,,,,,,,,,,,,,,,,,,,,,,,,,,,,,,,,,,,,,,,,,,,,,,,,,,,,,,,,,,,,,,,,,,,,,,,,,,,,,,,,,,,,,,,,,,,,,,,,,,,,,
,,5eac4b0a1f8db726fc6060c8,2024-02-22_03h27.18.290,kallum_motion_pilot,2023.2.2,Win32,75.07507508,5eac4b0a1f8db726fc6060c8,65d6bb0e977760de756971f7,65d6bdb5cb0a17198e65b8d2,0.02,0.02,1,32,194,136,1,fivesix,,,,,,,,,,,,,,,,,,,,,,,,,,,,,,,,,,,,,,,,,,,,,,,,,,,,,,,,,,,,,,,,,,,,,,,,,,,,,,,,,,,,,,,,,,,,,,,,,,,,,,,,,,,,,,,,,,,,,,,,,,,,,,,,,,,,,,,,,
,,5eac4b0a1f8db726fc6060c8,2024-02-22_03h27.18.290,kallum_motion_pilot,2023.2.2,Win32,75.07507508,5eac4b0a1f8db726fc6060c8,65d6bb0e977760de756971f7,65d6bdb5cb0a17198e65b8d2,0.02,0.02,1,33,195,83,1,sixeight,,,,,,,,,,,,,,,,,,,,,,,,,,,,,,,,,,,,,,,,,,,,,,,,,,,,,,,,,,,,,,,,,,,,,,,,,,,,,,,,,,,,,,,,,,,,,,,,,,,,,,,,,,,,,,,,,,,,,,,,,,,,,,,,,,,,,,,,,
,,5eac4b0a1f8db726fc6060c8,2024-02-22_03h27.18.290,kallum_motion_pilot,2023.2.2,Win32,75.07507508,5eac4b0a1f8db726fc6060c8,65d6bb0e977760de756971f7,65d6bdb5cb0a17198e65b8d2,0.02,0.02,1,34,196,132,1,sevenfive,,,,,,,,,,,,,,,,,,,,,,,,,,,,,,,,,,,,,,,,,,,,,,,,,,,,,,,,,,,,,,,,,,,,,,,,,,,,,,,,,,,,,,,,,,,,,,,,,,,,,,,,,,,,,,,,,,,,,,,,,,,,,,,,,,,,,,,,,
,,5eac4b0a1f8db726fc6060c8,2024-02-22_03h27.18.290,kallum_motion_pilot,2023.2.2,Win32,75.07507508,5eac4b0a1f8db726fc6060c8,65d6bb0e977760de756971f7,65d6bdb5cb0a17198e65b8d2,0.02,0.02,1,35,197,57,1,onethree,,,,,,,,,,,,,,,,,,,,,,,,,,,,,,,,,,,,,,,,,,,,,,,,,,,,,,,,,,,,,,,,,,,,,,,,,,,,,,,,,,,,,,,,,,,,,,,,,,,,,,,,,,,,,,,,,,,,,,,,,,,,,,,,,,,,,,,,,
,,5eac4b0a1f8db726fc6060c8,2024-02-22_03h27.18.290,kallum_motion_pilot,2023.2.2,Win32,75.07507508,5eac4b0a1f8db726fc6060c8,65d6bb0e977760de756971f7,65d6bdb5cb0a17198e65b8d2,0.02,0.02,1,36,198,138,1,sixfive,,,,,,,,,,,,,,,,,,,,,,,,,,,,,,,,,,,,,,,,,,,,,,,,,,,,,,,,,,,,,,,,,,,,,,,,,,,,,,,,,,,,,,,,,,,,,,,,,,,,,,,,,,,,,,,,,,,,,,,,,,,,,,,,,,,,,,,,,
,,5eac4b0a1f8db726fc6060c8,2024-02-22_03h27.18.290,kallum_motion_pilot,2023.2.2,Win32,75.07507508,5eac4b0a1f8db726fc6060c8,65d6bb0e977760de756971f7,65d6bdb5cb0a17198e65b8d2,0.02,0.02,1,37,199,19,1,twofour,,,,,,,,,,,,,,,,,,,,,,,,,,,,,,,,,,,,,,,,,,,,,,,,,,,,,,,,,,,,,,,,,,,,,,,,,,,,,,,,,,,,,,,,,,,,,,,,,,,,,,,,,,,,,,,,,,,,,,,,,,,,,,,,,,,,,,,,,
,,5eac4b0a1f8db726fc6060c8,2024-02-22_03h27.18.290,kallum_motion_pilot,2023.2.2,Win32,75.07507508,5eac4b0a1f8db726fc6060c8,65d6bb0e977760de756971f7,65d6bdb5cb0a17198e65b8d2,0.02,0.02,1,38,200,21,1,threefour,,,,,,,,,,,,,,,,,,,,,,,,,,,,,,,,,,,,,,,,,,,,,,,,,,,,,,,,,,,,,,,,,,,,,,,,,,,,,,,,,,,,,,,,,,,,,,,,,,,,,,,,,,,,,,,,,,,,,,,,,,,,,,,,,,,,,,,,,
,,5eac4b0a1f8db726fc6060c8,2024-02-22_03h27.18.290,kallum_motion_pilot,2023.2.2,Win32,75.07507508,5eac4b0a1f8db726fc6060c8,65d6bb0e977760de756971f7,65d6bdb5cb0a17198e65b8d2,0.02,0.02,1,39,201,122,1,sixfive,,,,,,,,,,,,,,,,,,,,,,,,,,,,,,,,,,,,,,,,,,,,,,,,,,,,,,,,,,,,,,,,,,,,,,,,,,,,,,,,,,,,,,,,,,,,,,,,,,,,,,,,,,,,,,,,,,,,,,,,,,,,,,,,,,,,,,,,,
,,5eac4b0a1f8db726fc6060c8,2024-02-22_03h27.18.290,kallum_motion_pilot,2023.2.2,Win32,75.07507508,5eac4b0a1f8db726fc6060c8,65d6bb0e977760de756971f7,65d6bdb5cb0a17198e65b8d2,0.02,0.02,1,40,202,104,1,fivesix,,,,,,,,,,,,,,,,,,,,,,,,,,,,,,,,,,,,,,,,,,,,,,,,,,,,,,,,,,,,,,,,,,,,,,,,,,,,,,,,,,,,,,,,,,,,,,,,,,,,,,,,,,,,,,,,,,,,,,,,,,,,,,,,,,,,,,,,,
,,5eac4b0a1f8db726fc6060c8,2024-02-22_03h27.18.290,kallum_motion_pilot,2023.2.2,Win32,75.07507508,5eac4b0a1f8db726fc6060c8,65d6bb0e977760de756971f7,65d6bdb5cb0a17198e65b8d2,0.02,0.02,1,41,203,15,1,fourthree,,,,,,,,,,,,,,,,,,,,,,,,,,,,,,,,,,,,,,,,,,,,,,,,,,,,,,,,,,,,,,,,,,,,,,,,,,,,,,,,,,,,,,,,,,,,,,,,,,,,,,,,,,,,,,,,,,,,,,,,,,,,,,,,,,,,,,,,,
,,5eac4b0a1f8db726fc6060c8,2024-02-22_03h27.18.290,kallum_motion_pilot,2023.2.2,Win32,75.07507508,5eac4b0a1f8db726fc6060c8,65d6bb0e977760de756971f7,65d6bdb5cb0a17198e65b8d2,0.021,0.021,1,42,204,3,1,twofour,,,,,,,,,,,,,,,,,,,,,,,,,,,,,,,,,,,,,,,,,,,,,,,,,,,,,,,,,,,,,,,,,,,,,,,,,,,,,,,,,,,,,,,,,,,,,,,,,,,,,,,,,,,,,,,,,,,,,,,,,,,,,,,,,,,,,,,,,
,,5eac4b0a1f8db726fc6060c8,2024-02-22_03h27.18.290,kallum_motion_pilot,2023.2.2,Win32,75.07507508,5eac4b0a1f8db726fc6060c8,65d6bb0e977760de756971f7,65d6bdb5cb0a17198e65b8d2,0.021,0.021,1,43,205,121,1,fiveseven,,,,,,,,,,,,,,,,,,,,,,,,,,,,,,,,,,,,,,,,,,,,,,,,,,,,,,,,,,,,,,,,,,,,,,,,,,,,,,,,,,,,,,,,,,,,,,,,,,,,,,,,,,,,,,,,,,,,,,,,,,,,,,,,,,,,,,,,,
,,5eac4b0a1f8db726fc6060c8,2024-02-22_03h27.18.290,kallum_motion_pilot,2023.2.2,Win32,75.07507508,5eac4b0a1f8db726fc6060c8,65d6bb0e977760de756971f7,65d6bdb5cb0a17198e65b8d2,0.021,0.021,1,44,206,144,1,fivesix,,,,,,,,,,,,,,,,,,,,,,,,,,,,,,,,,,,,,,,,,,,,,,,,,,,,,,,,,,,,,,,,,,,,,,,,,,,,,,,,,,,,,,,,,,,,,,,,,,,,,,,,,,,,,,,,,,,,,,,,,,,,,,,,,,,,,,,,,
,,5eac4b0a1f8db726fc6060c8,2024-02-22_03h27.18.290,kallum_motion_pilot,2023.2.2,Win32,75.07507508,5eac4b0a1f8db726fc6060c8,65d6bb0e977760de756971f7,65d6bdb5cb0a17198e65b8d2,0.021,0.021,1,45,207,86,1,eightsix,,,,,,,,,,,,,,,,,,,,,,,,,,,,,,,,,,,,,,,,,,,,,,,,,,,,,,,,,,,,,,,,,,,,,,,,,,,,,,,,,,,,,,,,,,,,,,,,,,,,,,,,,,,,,,,,,,,,,,,,,,,,,,,,,,,,,,,,,
,,5eac4b0a1f8db726fc6060c8,2024-02-22_03h27.18.290,kallum_motion_pilot,2023.2.2,Win32,75.07507508,5eac4b0a1f8db726fc6060c8,65d6bb0e977760de756971f7,65d6bdb5cb0a17198e65b8d2,0.021,0.021,1,46,208,16,1,onetwo,,,,,,,,,,,,,,,,,,,,,,,,,,,,,,,,,,,,,,,,,,,,,,,,,,,,,,,,,,,,,,,,,,,,,,,,,,,,,,,,,,,,,,,,,,,,,,,,,,,,,,,,,,,,,,,,,,,,,,,,,,,,,,,,,,,,,,,,,
,,5eac4b0a1f8db726fc6060c8,2024-02-22_03h27.18.290,kallum_motion_pilot,2023.2.2,Win32,75.07507508,5eac4b0a1f8db726fc6060c8,65d6bb0e977760de756971f7,65d6bdb5cb0a17198e65b8d2,0.021,0.021,1,47,209,112,1,fivesix,,,,,,,,,,,,,,,,,,,,,,,,,,,,,,,,,,,,,,,,,,,,,,,,,,,,,,,,,,,,,,,,,,,,,,,,,,,,,,,,,,,,,,,,,,,,,,,,,,,,,,,,,,,,,,,,,,,,,,,,,,,,,,,,,,,,,,,,,
,,5eac4b0a1f8db726fc6060c8,2024-02-22_03h27.18.290,kallum_motion_pilot,2023.2.2,Win32,75.07507508,5eac4b0a1f8db726fc6060c8,65d6bb0e977760de756971f7,65d6bdb5cb0a17198e65b8d2,0.021,0.021,1,48,210,120,1,fivesix,,,,,,,,,,,,,,,,,,,,,,,,,,,,,,,,,,,,,,,,,,,,,,,,,,,,,,,,,,,,,,,,,,,,,,,,,,,,,,,,,,,,,,,,,,,,,,,,,,,,,,,,,,,,,,,,,,,,,,,,,,,,,,,,,,,,,,,,,
,,5eac4b0a1f8db726fc6060c8,2024-02-22_03h27.18.290,kallum_motion_pilot,2023.2.2,Win32,75.07507508,5eac4b0a1f8db726fc6060c8,65d6bb0e977760de756971f7,65d6bdb5cb0a17198e65b8d2,0.021,0.021,1,49,211,37,1,threefour,,,,,,,,,,,,,,,,,,,,,,,,,,,,,,,,,,,,,,,,,,,,,,,,,,,,,,,,,,,,,,,,,,,,,,,,,,,,,,,,,,,,,,,,,,,,,,,,,,,,,,,,,,,,,,,,,,,,,,,,,,,,,,,,,,,,,,,,,
,,5eac4b0a1f8db726fc6060c8,2024-02-22_03h27.18.290,kallum_motion_pilot,2023.2.2,Win32,75.07507508,5eac4b0a1f8db726fc6060c8,65d6bb0e977760de756971f7,65d6bdb5cb0a17198e65b8d2,0.021,0.021,1,50,212,152,1,fivesix,,,,,,,,,,,,,,,,,,,,,,,,,,,,,,,,,,,,,,,,,,,,,,,,,,,,,,,,,,,,,,,,,,,,,,,,,,,,,,,,,,,,,,,,,,,,,,,,,,,,,,,,,,,,,,,,,,,,,,,,,,,,,,,,,,,,,,,,,
,,5eac4b0a1f8db726fc6060c8,2024-02-22_03h27.18.290,kallum_motion_pilot,2023.2.2,Win32,75.07507508,5eac4b0a1f8db726fc6060c8,65d6bb0e977760de756971f7,65d6bdb5cb0a17198e65b8d2,0.021,0.021,1,51,213,63,1,fourthree,,,,,,,,,,,,,,,,,,,,,,,,,,,,,,,,,,,,,,,,,,,,,,,,,,,,,,,,,,,,,,,,,,,,,,,,,,,,,,,,,,,,,,,,,,,,,,,,,,,,,,,,,,,,,,,,,,,,,,,,,,,,,,,,,,,,,,,,,
,,5eac4b0a1f8db726fc6060c8,2024-02-22_03h27.18.290,kallum_motion_pilot,2023.2.2,Win32,75.07507508,5eac4b0a1f8db726fc6060c8,65d6bb0e977760de756971f7,65d6bdb5cb0a17198e65b8d2,0.021,0.021,1,52,214,130,1,sixfive,,,,,,,,,,,,,,,,,,,,,,,,,,,,,,,,,,,,,,,,,,,,,,,,,,,,,,,,,,,,,,,,,,,,,,,,,,,,,,,,,,,,,,,,,,,,,,,,,,,,,,,,,,,,,,,,,,,,,,,,,,,,,,,,,,,,,,,,,
,,5eac4b0a1f8db726fc6060c8,2024-02-22_03h27.18.290,kallum_motion_pilot,2023.2.2,Win32,75.07507508,5eac4b0a1f8db726fc6060c8,65d6bb0e977760de756971f7,65d6bdb5cb0a17198e65b8d2,0.021,0.021,1,53,215,42,1,twoone,,,,,,,,,,,,,,,,,,,,,,,,,,,,,,,,,,,,,,,,,,,,,,,,,,,,,,,,,,,,,,,,,,,,,,,,,,,,,,,,,,,,,,,,,,,,,,,,,,,,,,,,,,,,,,,,,,,,,,,,,,,,,,,,,,,,,,,,,
,,5eac4b0a1f8db726fc6060c8,2024-02-22_03h27.18.290,kallum_motion_pilot,2023.2.2,Win32,75.07507508,5eac4b0a1f8db726fc6060c8,65d6bb0e977760de756971f7,65d6bdb5cb0a17198e65b8d2,0.021,0.021,1,54,216,6,1,fourtwo,,,,,,,,,,,,,,,,,,,,,,,,,,,,,,,,,,,,,,,,,,,,,,,,,,,,,,,,,,,,,,,,,,,,,,,,,,,,,,,,,,,,,,,,,,,,,,,,,,,,,,,,,,,,,,,,,,,,,,,,,,,,,,,,,,,,,,,,,
,,5eac4b0a1f8db726fc6060c8,2024-02-22_03h27.18.290,kallum_motion_pilot,2023.2.2,Win32,75.07507508,5eac4b0a1f8db726fc6060c8,65d6bb0e977760de756971f7,65d6bdb5cb0a17198e65b8d2,0.021,0.021,1,55,217,11,1,twofour,,,,,,,,,,,,,,,,,,,,,,,,,,,,,,,,,,,,,,,,,,,,,,,,,,,,,,,,,,,,,,,,,,,,,,,,,,,,,,,,,,,,,,,,,,,,,,,,,,,,,,,,,,,,,,,,,,,,,,,,,,,,,,,,,,,,,,,,,
,,5eac4b0a1f8db726fc6060c8,2024-02-22_03h27.18.290,kallum_motion_pilot,2023.2.2,Win32,75.07507508,5eac4b0a1f8db726fc6060c8,65d6bb0e977760de756971f7,65d6bdb5cb0a17198e65b8d2,0.021,0.021,1,56,218,127,1,eightseven,,,,,,,,,,,,,,,,,,,,,,,,,,,,,,,,,,,,,,,,,,,,,,,,,,,,,,,,,,,,,,,,,,,,,,,,,,,,,,,,,,,,,,,,,,,,,,,,,,,,,,,,,,,,,,,,,,,,,,,,,,,,,,,,,,,,,,,,,
,,5eac4b0a1f8db726fc6060c8,2024-02-22_03h27.18.290,kallum_motion_pilot,2023.2.2,Win32,75.07507508,5eac4b0a1f8db726fc6060c8,65d6bb0e977760de756971f7,65d6bdb5cb0a17198e65b8d2,0.021,0.021,1,57,219,133,1,seveneight,,,,,,,,,,,,,,,,,,,,,,,,,,,,,,,,,,,,,,,,,,,,,,,,,,,,,,,,,,,,,,,,,,,,,,,,,,,,,,,,,,,,,,,,,,,,,,,,,,,,,,,,,,,,,,,,,,,,,,,,,,,,,,,,,,,,,,,,,
,,5eac4b0a1f8db726fc6060c8,2024-02-22_03h27.18.290,kallum_motion_pilot,2023.2.2,Win32,75.07507508,5eac4b0a1f8db726fc6060c8,65d6bb0e977760de756971f7,65d6bdb5cb0a17198e65b8d2,0.021,0.021,1,58,220,53,1,threefour,,,,,,,,,,,,,,,,,,,,,,,,,,,,,,,,,,,,,,,,,,,,,,,,,,,,,,,,,,,,,,,,,,,,,,,,,,,,,,,,,,,,,,,,,,,,,,,,,,,,,,,,,,,,,,,,,,,,,,,,,,,,,,,,,,,,,,,,,
,,5eac4b0a1f8db726fc6060c8,2024-02-22_03h27.18.290,kallum_motion_pilot,2023.2.2,Win32,75.07507508,5eac4b0a1f8db726fc6060c8,65d6bb0e977760de756971f7,65d6bdb5cb0a17198e65b8d2,0.021,0.021,1,59,221,134,1,eightsix,,,,,,,,,,,,,,,,,,,,,,,,,,,,,,,,,,,,,,,,,,,,,,,,,,,,,,,,,,,,,,,,,,,,,,,,,,,,,,,,,,,,,,,,,,,,,,,,,,,,,,,,,,,,,,,,,,,,,,,,,,,,,,,,,,,,,,,,,
,,5eac4b0a1f8db726fc6060c8,2024-02-22_03h27.18.290,kallum_motion_pilot,2023.2.2,Win32,75.07507508,5eac4b0a1f8db726fc6060c8,65d6bb0e977760de756971f7,65d6bdb5cb0a17198e65b8d2,0.021,0.021,1,60,222,84,1,sevenfive,,,,,,,,,,,,,,,,,,,,,,,,,,,,,,,,,,,,,,,,,,,,,,,,,,,,,,,,,,,,,,,,,,,,,,,,,,,,,,,,,,,,,,,,,,,,,,,,,,,,,,,,,,,,,,,,,,,,,,,,,,,,,,,,,,,,,,,,,
,,5eac4b0a1f8db726fc6060c8,2024-02-22_03h27.18.290,kallum_motion_pilot,2023.2.2,Win32,75.07507508,5eac4b0a1f8db726fc6060c8,65d6bb0e977760de756971f7,65d6bdb5cb0a17198e65b8d2,0.021,0.021,1,61,223,60,1,threeone,,,,,,,,,,,,,,,,,,,,,,,,,,,,,,,,,,,,,,,,,,,,,,,,,,,,,,,,,,,,,,,,,,,,,,,,,,,,,,,,,,,,,,,,,,,,,,,,,,,,,,,,,,,,,,,,,,,,,,,,,,,,,,,,,,,,,,,,,
,,5eac4b0a1f8db726fc6060c8,2024-02-22_03h27.18.290,kallum_motion_pilot,2023.2.2,Win32,75.07507508,5eac4b0a1f8db726fc6060c8,65d6bb0e977760de756971f7,65d6bdb5cb0a17198e65b8d2,0.021,0.021,1,62,224,41,1,onethree,,,,,,,,,,,,,,,,,,,,,,,,,,,,,,,,,,,,,,,,,,,,,,,,,,,,,,,,,,,,,,,,,,,,,,,,,,,,,,,,,,,,,,,,,,,,,,,,,,,,,,,,,,,,,,,,,,,,,,,,,,,,,,,,,,,,,,,,,
,,5eac4b0a1f8db726fc6060c8,2024-02-22_03h27.18.290,kallum_motion_pilot,2023.2.2,Win32,75.07507508,5eac4b0a1f8db726fc6060c8,65d6bb0e977760de756971f7,65d6bdb5cb0a17198e65b8d2,0.021,0.021,1,63,225,99,1,sixeight,,,,,,,,,,,,,,,,,,,,,,,,,,,,,,,,,,,,,,,,,,,,,,,,,,,,,,,,,,,,,,,,,,,,,,,,,,,,,,,,,,,,,,,,,,,,,,,,,,,,,,,,,,,,,,,,,,,,,,,,,,,,,,,,,,,,,,,,,
,,5eac4b0a1f8db726fc6060c8,2024-02-22_03h27.18.290,kallum_motion_pilot,2023.2.2,Win32,75.07507508,5eac4b0a1f8db726fc6060c8,65d6bb0e977760de756971f7,65d6bdb5cb0a17198e65b8d2,0.021,0.021,1,64,226,118,1,eightsix,,,,,,,,,,,,,,,,,,,,,,,,,,,,,,,,,,,,,,,,,,,,,,,,,,,,,,,,,,,,,,,,,,,,,,,,,,,,,,,,,,,,,,,,,,,,,,,,,,,,,,,,,,,,,,,,,,,,,,,,,,,,,,,,,,,,,,,,,
,,5eac4b0a1f8db726fc6060c8,2024-02-22_03h27.18.290,kallum_motion_pilot,2023.2.2,Win32,75.07507508,5eac4b0a1f8db726fc6060c8,65d6bb0e977760de756971f7,65d6bdb5cb0a17198e65b8d2,0.021,0.021,1,65,227,1,1,onethree,,,,,,,,,,,,,,,,,,,,,,,,,,,,,,,,,,,,,,,,,,,,,,,,,,,,,,,,,,,,,,,,,,,,,,,,,,,,,,,,,,,,,,,,,,,,,,,,,,,,,,,,,,,,,,,,,,,,,,,,,,,,,,,,,,,,,,,,,
,,5eac4b0a1f8db726fc6060c8,2024-02-22_03h27.18.290,kallum_motion_pilot,2023.2.2,Win32,75.07507508,5eac4b0a1f8db726fc6060c8,65d6bb0e977760de756971f7,65d6bdb5cb0a17198e65b8d2,0.021,0.021,1,66,228,148,1,sevenfive,,,,,,,,,,,,,,,,,,,,,,,,,,,,,,,,,,,,,,,,,,,,,,,,,,,,,,,,,,,,,,,,,,,,,,,,,,,,,,,,,,,,,,,,,,,,,,,,,,,,,,,,,,,,,,,,,,,,,,,,,,,,,,,,,,,,,,,,,
,,5eac4b0a1f8db726fc6060c8,2024-02-22_03h27.18.290,kallum_motion_pilot,2023.2.2,Win32,75.07507508,5eac4b0a1f8db726fc6060c8,65d6bb0e977760de756971f7,65d6bdb5cb0a17198e65b8d2,0.021,0.022,1,67,229,71,1,fourthree,,,,,,,,,,,,,,,,,,,,,,,,,,,,,,,,,,,,,,,,,,,,,,,,,,,,,,,,,,,,,,,,,,,,,,,,,,,,,,,,,,,,,,,,,,,,,,,,,,,,,,,,,,,,,,,,,,,,,,,,,,,,,,,,,,,,,,,,,
,,5eac4b0a1f8db726fc6060c8,2024-02-22_03h27.18.290,kallum_motion_pilot,2023.2.2,Win32,75.07507508,5eac4b0a1f8db726fc6060c8,65d6bb0e977760de756971f7,65d6bdb5cb0a17198e65b8d2,0.022,0.022,1,68,230,22,1,fourtwo,,,,,,,,,,,,,,,,,,,,,,,,,,,,,,,,,,,,,,,,,,,,,,,,,,,,,,,,,,,,,,,,,,,,,,,,,,,,,,,,,,,,,,,,,,,,,,,,,,,,,,,,,,,,,,,,,,,,,,,,,,,,,,,,,,,,,,,,,
,,5eac4b0a1f8db726fc6060c8,2024-02-22_03h27.18.290,kallum_motion_pilot,2023.2.2,Win32,75.07507508,5eac4b0a1f8db726fc6060c8,65d6bb0e977760de756971f7,65d6bdb5cb0a17198e65b8d2,0.022,0.022,1,69,231,94,1,eightsix,,,,,,,,,,,,,,,,,,,,,,,,,,,,,,,,,,,,,,,,,,,,,,,,,,,,,,,,,,,,,,,,,,,,,,,,,,,,,,,,,,,,,,,,,,,,,,,,,,,,,,,,,,,,,,,,,,,,,,,,,,,,,,,,,,,,,,,,,
,,5eac4b0a1f8db726fc6060c8,2024-02-22_03h27.18.290,kallum_motion_pilot,2023.2.2,Win32,75.07507508,5eac4b0a1f8db726fc6060c8,65d6bb0e977760de756971f7,65d6bdb5cb0a17198e65b8d2,0.022,0.022,1,70,232,73,1,onethree,,,,,,,,,,,,,,,,,,,,,,,,,,,,,,,,,,,,,,,,,,,,,,,,,,,,,,,,,,,,,,,,,,,,,,,,,,,,,,,,,,,,,,,,,,,,,,,,,,,,,,,,,,,,,,,,,,,,,,,,,,,,,,,,,,,,,,,,,
,,5eac4b0a1f8db726fc6060c8,2024-02-22_03h27.18.290,kallum_motion_pilot,2023.2.2,Win32,75.07507508,5eac4b0a1f8db726fc6060c8,65d6bb0e977760de756971f7,65d6bdb5cb0a17198e65b8d2,0.022,0.022,1,71,233,158,1,eightsix,,,,,,,,,,,,,,,,,,,,,,,,,,,,,,,,,,,,,,,,,,,,,,,,,,,,,,,,,,,,,,,,,,,,,,,,,,,,,,,,,,,,,,,,,,,,,,,,,,,,,,,,,,,,,,,,,,,,,,,,,,,,,,,,,,,,,,,,,
,,5eac4b0a1f8db726fc6060c8,2024-02-22_03h27.18.290,kallum_motion_pilot,2023.2.2,Win32,75.07507508,5eac4b0a1f8db726fc6060c8,65d6bb0e977760de756971f7,65d6bdb5cb0a17198e65b8d2,0.022,0.022,1,72,234,8,1,onetwo,,,,,,,,,,,,,,,,,,,,,,,,,,,,,,,,,,,,,,,,,,,,,,,,,,,,,,,,,,,,,,,,,,,,,,,,,,,,,,,,,,,,,,,,,,,,,,,,,,,,,,,,,,,,,,,,,,,,,,,,,,,,,,,,,,,,,,,,,
,,5eac4b0a1f8db726fc6060c8,2024-02-22_03h27.18.290,kallum_motion_pilot,2023.2.2,Win32,75.07507508,5eac4b0a1f8db726fc6060c8,65d6bb0e977760de756971f7,65d6bdb5cb0a17198e65b8d2,0.022,0.022,1,73,235,108,1,sevenfive,,,,,,,,,,,,,,,,,,,,,,,,,,,,,,,,,,,,,,,,,,,,,,,,,,,,,,,,,,,,,,,,,,,,,,,,,,,,,,,,,,,,,,,,,,,,,,,,,,,,,,,,,,,,,,,,,,,,,,,,,,,,,,,,,,,,,,,,,
,,5eac4b0a1f8db726fc6060c8,2024-02-22_03h27.18.290,kallum_motion_pilot,2023.2.2,Win32,75.07507508,5eac4b0a1f8db726fc6060c8,65d6bb0e977760de756971f7,65d6bdb5cb0a17198e65b8d2,0.022,0.022,1,74,236,161,1,fiveseven,,,,,,,,,,,,,,,,,,,,,,,,,,,,,,,,,,,,,,,,,,,,,,,,,,,,,,,,,,,,,,,,,,,,,,,,,,,,,,,,,,,,,,,,,,,,,,,,,,,,,,,,,,,,,,,,,,,,,,,,,,,,,,,,,,,,,,,,,
,,5eac4b0a1f8db726fc6060c8,2024-02-22_03h27.18.290,kallum_motion_pilot,2023.2.2,Win32,75.07507508,5eac4b0a1f8db726fc6060c8,65d6bb0e977760de756971f7,65d6bdb5cb0a17198e65b8d2,0.022,0.022,1,75,237,26,1,twoone,,,,,,,,,,,,,,,,,,,,,,,,,,,,,,,,,,,,,,,,,,,,,,,,,,,,,,,,,,,,,,,,,,,,,,,,,,,,,,,,,,,,,,,,,,,,,,,,,,,,,,,,,,,,,,,,,,,,,,,,,,,,,,,,,,,,,,,,,
,,5eac4b0a1f8db726fc6060c8,2024-02-22_03h27.18.290,kallum_motion_pilot,2023.2.2,Win32,75.07507508,5eac4b0a1f8db726fc6060c8,65d6bb0e977760de756971f7,65d6bdb5cb0a17198e65b8d2,0.022,0.022,1,76,238,59,1,twofour,,,,,,,,,,,,,,,,,,,,,,,,,,,,,,,,,,,,,,,,,,,,,,,,,,,,,,,,,,,,,,,,,,,,,,,,,,,,,,,,,,,,,,,,,,,,,,,,,,,,,,,,,,,,,,,,,,,,,,,,,,,,,,,,,,,,,,,,,
,,5eac4b0a1f8db726fc6060c8,2024-02-22_03h27.18.290,kallum_motion_pilot,2023.2.2,Win32,75.07507508,5eac4b0a1f8db726fc6060c8,65d6bb0e977760de756971f7,65d6bdb5cb0a17198e65b8d2,0.022,0.022,1,77,239,69,1,threefour,,,,,,,,,,,,,,,,,,,,,,,,,,,,,,,,,,,,,,,,,,,,,,,,,,,,,,,,,,,,,,,,,,,,,,,,,,,,,,,,,,,,,,,,,,,,,,,,,,,,,,,,,,,,,,,,,,,,,,,,,,,,,,,,,,,,,,,,,
,,5eac4b0a1f8db726fc6060c8,2024-02-22_03h27.18.290,kallum_motion_pilot,2023.2.2,Win32,75.07507508,5eac4b0a1f8db726fc6060c8,65d6bb0e977760de756971f7,65d6bdb5cb0a17198e65b8d2,0.022,0.022,1,78,240,27,1,twofour,,,,,,,,,,,,,,,,,,,,,,,,,,,,,,,,,,,,,,,,,,,,,,,,,,,,,,,,,,,,,,,,,,,,,,,,,,,,,,,,,,,,,,,,,,,,,,,,,,,,,,,,,,,,,,,,,,,,,,,,,,,,,,,,,,,,,,,,,
,,5eac4b0a1f8db726fc6060c8,2024-02-22_03h27.18.290,kallum_motion_pilot,2023.2.2,Win32,75.07507508,5eac4b0a1f8db726fc6060c8,65d6bb0e977760de756971f7,65d6bdb5cb0a17198e65b8d2,0.022,0.022,1,79,241,143,1,eightseven,,,,,,,,,,,,,,,,,,,,,,,,,,,,,,,,,,,,,,,,,,,,,,,,,,,,,,,,,,,,,,,,,,,,,,,,,,,,,,,,,,,,,,,,,,,,,,,,,,,,,,,,,,,,,,,,,,,,,,,,,,,,,,,,,,,,,,,,,
,,5eac4b0a1f8db726fc6060c8,2024-02-22_03h27.18.290,kallum_motion_pilot,2023.2.2,Win32,75.07507508,5eac4b0a1f8db726fc6060c8,65d6bb0e977760de756971f7,65d6bdb5cb0a17198e65b8d2,0.022,0.022,1,80,242,55,1,fourthree,,,,,,,,,,,,,,,,,,,,,,,,,,,,,,,,,,,,,,,,,,,,,,,,,,,,,,,,,,,,,,,,,,,,,,,,,,,,,,,,,,,,,,,,,,,,,,,,,,,,,,,,,,,,,,,,,,,,,,,,,,,,,,,,,,,,,,,,,
,,5eac4b0a1f8db726fc6060c8,2024-02-22_03h27.18.290,kallum_motion_pilot,2023.2.2,Win32,75.07507508,5eac4b0a1f8db726fc6060c8,65d6bb0e977760de756971f7,65d6bdb5cb0a17198e65b8d2,0.022,0.022,1,81,243,101,1,seveneight,,,,,,,,,,,,,,,,,,,,,,,,,,,,,,,,,,,,,,,,,,,,,,,,,,,,,,,,,,,,,,,,,,,,,,,,,,,,,,,,,,,,,,,,,,,,,,,,,,,,,,,,,,,,,,,,,,,,,,,,,,,,,,,,,,,,,,,,,
,,5eac4b0a1f8db726fc6060c8,2024-02-22_03h27.18.290,kallum_motion_pilot,2023.2.2,Win32,75.07507508,5eac4b0a1f8db726fc6060c8,65d6bb0e977760de756971f7,65d6bdb5cb0a17198e65b8d2,0.022,0.022,1,82,244,17,1,onethree,,,,,,,,,,,,,,,,,,,,,,,,,,,,,,,,,,,,,,,,,,,,,,,,,,,,,,,,,,,,,,,,,,,,,,,,,,,,,,,,,,,,,,,,,,,,,,,,,,,,,,,,,,,,,,,,,,,,,,,,,,,,,,,,,,,,,,,,,
,,5eac4b0a1f8db726fc6060c8,2024-02-22_03h27.18.290,kallum_motion_pilot,2023.2.2,Win32,75.07507508,5eac4b0a1f8db726fc6060c8,65d6bb0e977760de756971f7,65d6bdb5cb0a17198e65b8d2,0.022,0.022,1,83,245,56,1,onetwo,,,,,,,,,,,,,,,,,,,,,,,,,,,,,,,,,,,,,,,,,,,,,,,,,,,,,,,,,,,,,,,,,,,,,,,,,,,,,,,,,,,,,,,,,,,,,,,,,,,,,,,,,,,,,,,,,,,,,,,,,,,,,,,,,,,,,,,,,
,,5eac4b0a1f8db726fc6060c8,2024-02-22_03h27.18.290,kallum_motion_pilot,2023.2.2,Win32,75.07507508,5eac4b0a1f8db726fc6060c8,65d6bb0e977760de756971f7,65d6bdb5cb0a17198e65b8d2,0.022,0.022,1,84,246,87,1,eightseven,,,,,,,,,,,,,,,,,,,,,,,,,,,,,,,,,,,,,,,,,,,,,,,,,,,,,,,,,,,,,,,,,,,,,,,,,,,,,,,,,,,,,,,,,,,,,,,,,,,,,,,,,,,,,,,,,,,,,,,,,,,,,,,,,,,,,,,,,
,,5eac4b0a1f8db726fc6060c8,2024-02-22_03h27.18.290,kallum_motion_pilot,2023.2.2,Win32,75.07507508,5eac4b0a1f8db726fc6060c8,65d6bb0e977760de756971f7,65d6bdb5cb0a17198e65b8d2,0.022,0.022,1,85,247,25,1,onethree,,,,,,,,,,,,,,,,,,,,,,,,,,,,,,,,,,,,,,,,,,,,,,,,,,,,,,,,,,,,,,,,,,,,,,,,,,,,,,,,,,,,,,,,,,,,,,,,,,,,,,,,,,,,,,,,,,,,,,,,,,,,,,,,,,,,,,,,,
,,5eac4b0a1f8db726fc6060c8,2024-02-22_03h27.18.290,kallum_motion_pilot,2023.2.2,Win32,75.07507508,5eac4b0a1f8db726fc6060c8,65d6bb0e977760de756971f7,65d6bdb5cb0a17198e65b8d2,0.022,0.022,1,86,248,81,1,fiveseven,,,,,,,,,,,,,,,,,,,,,,,,,,,,,,,,,,,,,,,,,,,,,,,,,,,,,,,,,,,,,,,,,,,,,,,,,,,,,,,,,,,,,,,,,,,,,,,,,,,,,,,,,,,,,,,,,,,,,,,,,,,,,,,,,,,,,,,,,
,,5eac4b0a1f8db726fc6060c8,2024-02-22_03h27.18.290,kallum_motion_pilot,2023.2.2,Win32,75.07507508,5eac4b0a1f8db726fc6060c8,65d6bb0e977760de756971f7,65d6bdb5cb0a17198e65b8d2,0.022,0.022,1,87,249,145,1,fiveseven,,,,,,,,,,,,,,,,,,,,,,,,,,,,,,,,,,,,,,,,,,,,,,,,,,,,,,,,,,,,,,,,,,,,,,,,,,,,,,,,,,,,,,,,,,,,,,,,,,,,,,,,,,,,,,,,,,,,,,,,,,,,,,,,,,,,,,,,,
,,5eac4b0a1f8db726fc6060c8,2024-02-22_03h27.18.290,kallum_motion_pilot,2023.2.2,Win32,75.07507508,5eac4b0a1f8db726fc6060c8,65d6bb0e977760de756971f7,65d6bdb5cb0a17198e65b8d2,0.022,0.022,1,88,250,43,1,twofour,,,,,,,,,,,,,,,,,,,,,,,,,,,,,,,,,,,,,,,,,,,,,,,,,,,,,,,,,,,,,,,,,,,,,,,,,,,,,,,,,,,,,,,,,,,,,,,,,,,,,,,,,,,,,,,,,,,,,,,,,,,,,,,,,,,,,,,,,
,,5eac4b0a1f8db726fc6060c8,2024-02-22_03h27.18.290,kallum_motion_pilot,2023.2.2,Win32,75.07507508,5eac4b0a1f8db726fc6060c8,65d6bb0e977760de756971f7,65d6bdb5cb0a17198e65b8d2,0.022,0.022,1,89,251,54,1,fourtwo,,,,,,,,,,,,,,,,,,,,,,,,,,,,,,,,,,,,,,,,,,,,,,,,,,,,,,,,,,,,,,,,,,,,,,,,,,,,,,,,,,,,,,,,,,,,,,,,,,,,,,,,,,,,,,,,,,,,,,,,,,,,,,,,,,,,,,,,,
,,5eac4b0a1f8db726fc6060c8,2024-02-22_03h27.18.290,kallum_motion_pilot,2023.2.2,Win32,75.07507508,5eac4b0a1f8db726fc6060c8,65d6bb0e977760de756971f7,65d6bdb5cb0a17198e65b8d2,0.022,0.022,1,90,252,9,1,onethree,,,,,,,,,,,,,,,,,,,,,,,,,,,,,,,,,,,,,,,,,,,,,,,,,,,,,,,,,,,,,,,,,,,,,,,,,,,,,,,,,,,,,,,,,,,,,,,,,,,,,,,,,,,,,,,,,,,,,,,,,,,,,,,,,,,,,,,,,
,,5eac4b0a1f8db726fc6060c8,2024-02-22_03h27.18.290,kallum_motion_pilot,2023.2.2,Win32,75.07507508,5eac4b0a1f8db726fc6060c8,65d6bb0e977760de756971f7,65d6bdb5cb0a17198e65b8d2,0.023,0.023,1,91,253,85,1,seveneight,,,,,,,,,,,,,,,,,,,,,,,,,,,,,,,,,,,,,,,,,,,,,,,,,,,,,,,,,,,,,,,,,,,,,,,,,,,,,,,,,,,,,,,,,,,,,,,,,,,,,,,,,,,,,,,,,,,,,,,,,,,,,,,,,,,,,,,,,
,,5eac4b0a1f8db726fc6060c8,2024-02-22_03h27.18.290,kallum_motion_pilot,2023.2.2,Win32,75.07507508,5eac4b0a1f8db726fc6060c8,65d6bb0e977760de756971f7,65d6bdb5cb0a17198e65b8d2,0.023,0.023,1,92,254,119,1,eightseven,,,,,,,,,,,,,,,,,,,,,,,,,,,,,,,,,,,,,,,,,,,,,,,,,,,,,,,,,,,,,,,,,,,,,,,,,,,,,,,,,,,,,,,,,,,,,,,,,,,,,,,,,,,,,,,,,,,,,,,,,,,,,,,,,,,,,,,,,
,,5eac4b0a1f8db726fc6060c8,2024-02-22_03h27.18.290,kallum_motion_pilot,2023.2.2,Win32,75.07507508,5eac4b0a1f8db726fc6060c8,65d6bb0e977760de756971f7,65d6bdb5cb0a17198e65b8d2,0.023,0.023,1,93,255,61,1,threefour,,,,,,,,,,,,,,,,,,,,,,,,,,,,,,,,,,,,,,,,,,,,,,,,,,,,,,,,,,,,,,,,,,,,,,,,,,,,,,,,,,,,,,,,,,,,,,,,,,,,,,,,,,,,,,,,,,,,,,,,,,,,,,,,,,,,,,,,,
,,5eac4b0a1f8db726fc6060c8,2024-02-22_03h27.18.290,kallum_motion_pilot,2023.2.2,Win32,75.07507508,5eac4b0a1f8db726fc6060c8,65d6bb0e977760de756971f7,65d6bdb5cb0a17198e65b8d2,0.023,0.023,1,94,256,124,1,sevenfive,,,,,,,,,,,,,,,,,,,,,,,,,,,,,,,,,,,,,,,,,,,,,,,,,,,,,,,,,,,,,,,,,,,,,,,,,,,,,,,,,,,,,,,,,,,,,,,,,,,,,,,,,,,,,,,,,,,,,,,,,,,,,,,,,,,,,,,,,
,,5eac4b0a1f8db726fc6060c8,2024-02-22_03h27.18.290,kallum_motion_pilot,2023.2.2,Win32,75.07507508,5eac4b0a1f8db726fc6060c8,65d6bb0e977760de756971f7,65d6bdb5cb0a17198e65b8d2,0.023,0.023,1,95,257,77,1,threefour,,,,,,,,,,,,,,,,,,,,,,,,,,,,,,,,,,,,,,,,,,,,,,,,,,,,,,,,,,,,,,,,,,,,,,,,,,,,,,,,,,,,,,,,,,,,,,,,,,,,,,,,,,,,,,,,,,,,,,,,,,,,,,,,,,,,,,,,,
,,5eac4b0a1f8db726fc6060c8,2024-02-22_03h27.18.290,kallum_motion_pilot,2023.2.2,Win32,75.07507508,5eac4b0a1f8db726fc6060c8,65d6bb0e977760de756971f7,65d6bdb5cb0a17198e65b8d2,0.023,0.023,1,96,258,47,1,fourthree,,,,,,,,,,,,,,,,,,,,,,,,,,,,,,,,,,,,,,,,,,,,,,,,,,,,,,,,,,,,,,,,,,,,,,,,,,,,,,,,,,,,,,,,,,,,,,,,,,,,,,,,,,,,,,,,,,,,,,,,,,,,,,,,,,,,,,,,,
,,5eac4b0a1f8db726fc6060c8,2024-02-22_03h27.18.290,kallum_motion_pilot,2023.2.2,Win32,75.07507508,5eac4b0a1f8db726fc6060c8,65d6bb0e977760de756971f7,65d6bdb5cb0a17198e65b8d2,0.023,0.023,1,97,259,44,1,threeone,,,,,,,,,,,,,,,,,,,,,,,,,,,,,,,,,,,,,,,,,,,,,,,,,,,,,,,,,,,,,,,,,,,,,,,,,,,,,,,,,,,,,,,,,,,,,,,,,,,,,,,,,,,,,,,,,,,,,,,,,,,,,,,,,,,,,,,,,
,,5eac4b0a1f8db726fc6060c8,2024-02-22_03h27.18.290,kallum_motion_pilot,2023.2.2,Win32,75.07507508,5eac4b0a1f8db726fc6060c8,65d6bb0e977760de756971f7,65d6bdb5cb0a17198e65b8d2,0.023,0.023,1,98,260,66,1,twoone,,,,,,,,,,,,,,,,,,,,,,,,,,,,,,,,,,,,,,,,,,,,,,,,,,,,,,,,,,,,,,,,,,,,,,,,,,,,,,,,,,,,,,,,,,,,,,,,,,,,,,,,,,,,,,,,,,,,,,,,,,,,,,,,,,,,,,,,,
,,5eac4b0a1f8db726fc6060c8,2024-02-22_03h27.18.290,kallum_motion_pilot,2023.2.2,Win32,75.07507508,5eac4b0a1f8db726fc6060c8,65d6bb0e977760de756971f7,65d6bdb5cb0a17198e65b8d2,0.023,0.023,1,99,261,7,1,fourthree,,,,,,,,,,,,,,,,,,,,,,,,,,,,,,,,,,,,,,,,,,,,,,,,,,,,,,,,,,,,,,,,,,,,,,,,,,,,,,,,,,,,,,,,,,,,,,,,,,,,,,,,,,,,,,,,,,,,,,,,,,,,,,,,,,,,,,,,,
,,5eac4b0a1f8db726fc6060c8,2024-02-22_03h27.18.290,kallum_motion_pilot,2023.2.2,Win32,75.07507508,5eac4b0a1f8db726fc6060c8,65d6bb0e977760de756971f7,65d6bdb5cb0a17198e65b8d2,0.023,0.023,1,100,262,89,1,fiveseven,,,,,,,,,,,,,,,,,,,,,,,,,,,,,,,,,,,,,,,,,,,,,,,,,,,,,,,,,,,,,,,,,,,,,,,,,,,,,,,,,,,,,,,,,,,,,,,,,,,,,,,,,,,,,,,,,,,,,,,,,,,,,,,,,,,,,,,,,
,,5eac4b0a1f8db726fc6060c8,2024-02-22_03h27.18.290,kallum_motion_pilot,2023.2.2,Win32,75.07507508,5eac4b0a1f8db726fc6060c8,65d6bb0e977760de756971f7,65d6bdb5cb0a17198e65b8d2,0.023,0.023,1,101,263,45,1,threefour,,,,,,,,,,,,,,,,,,,,,,,,,,,,,,,,,,,,,,,,,,,,,,,,,,,,,,,,,,,,,,,,,,,,,,,,,,,,,,,,,,,,,,,,,,,,,,,,,,,,,,,,,,,,,,,,,,,,,,,,,,,,,,,,,,,,,,,,,
,,5eac4b0a1f8db726fc6060c8,2024-02-22_03h27.18.290,kallum_motion_pilot,2023.2.2,Win32,75.07507508,5eac4b0a1f8db726fc6060c8,65d6bb0e977760de756971f7,65d6bdb5cb0a17198e65b8d2,0.023,0.023,1,102,264,20,1,threeone,,,,,,,,,,,,,,,,,,,,,,,,,,,,,,,,,,,,,,,,,,,,,,,,,,,,,,,,,,,,,,,,,,,,,,,,,,,,,,,,,,,,,,,,,,,,,,,,,,,,,,,,,,,,,,,,,,,,,,,,,,,,,,,,,,,,,,,,,
,,5eac4b0a1f8db726fc6060c8,2024-02-22_03h27.18.290,kallum_motion_pilot,2023.2.2,Win32,75.07507508,5eac4b0a1f8db726fc6060c8,65d6bb0e977760de756971f7,65d6bdb5cb0a17198e65b8d2,0.023,0.023,1,103,265,70,1,fourtwo,,,,,,,,,,,,,,,,,,,,,,,,,,,,,,,,,,,,,,,,,,,,,,,,,,,,,,,,,,,,,,,,,,,,,,,,,,,,,,,,,,,,,,,,,,,,,,,,,,,,,,,,,,,,,,,,,,,,,,,,,,,,,,,,,,,,,,,,,
,,5eac4b0a1f8db726fc6060c8,2024-02-22_03h27.18.290,kallum_motion_pilot,2023.2.2,Win32,75.07507508,5eac4b0a1f8db726fc6060c8,65d6bb0e977760de756971f7,65d6bdb5cb0a17198e65b8d2,0.023,0.023,1,104,266,35,1,twofour,,,,,,,,,,,,,,,,,,,,,,,,,,,,,,,,,,,,,,,,,,,,,,,,,,,,,,,,,,,,,,,,,,,,,,,,,,,,,,,,,,,,,,,,,,,,,,,,,,,,,,,,,,,,,,,,,,,,,,,,,,,,,,,,,,,,,,,,,
,,5eac4b0a1f8db726fc6060c8,2024-02-22_03h27.18.290,kallum_motion_pilot,2023.2.2,Win32,75.07507508,5eac4b0a1f8db726fc6060c8,65d6bb0e977760de756971f7,65d6bdb5cb0a17198e65b8d2,0.023,0.023,1,105,267,123,1,sixeight,,,,,,,,,,,,,,,,,,,,,,,,,,,,,,,,,,,,,,,,,,,,,,,,,,,,,,,,,,,,,,,,,,,,,,,,,,,,,,,,,,,,,,,,,,,,,,,,,,,,,,,,,,,,,,,,,,,,,,,,,,,,,,,,,,,,,,,,,
,,5eac4b0a1f8db726fc6060c8,2024-02-22_03h27.18.290,kallum_motion_pilot,2023.2.2,Win32,75.07507508,5eac4b0a1f8db726fc6060c8,65d6bb0e977760de756971f7,65d6bdb5cb0a17198e65b8d2,0.023,0.023,1,106,268,18,1,twoone,,,,,,,,,,,,,,,,,,,,,,,,,,,,,,,,,,,,,,,,,,,,,,,,,,,,,,,,,,,,,,,,,,,,,,,,,,,,,,,,,,,,,,,,,,,,,,,,,,,,,,,,,,,,,,,,,,,,,,,,,,,,,,,,,,,,,,,,,
,,5eac4b0a1f8db726fc6060c8,2024-02-22_03h27.18.290,kallum_motion_pilot,2023.2.2,Win32,75.07507508,5eac4b0a1f8db726fc6060c8,65d6bb0e977760de756971f7,65d6bdb5cb0a17198e65b8d2,0.023,0.023,1,107,269,4,1,threeone,,,,,,,,,,,,,,,,,,,,,,,,,,,,,,,,,,,,,,,,,,,,,,,,,,,,,,,,,,,,,,,,,,,,,,,,,,,,,,,,,,,,,,,,,,,,,,,,,,,,,,,,,,,,,,,,,,,,,,,,,,,,,,,,,,,,,,,,,
,,5eac4b0a1f8db726fc6060c8,2024-02-22_03h27.18.290,kallum_motion_pilot,2023.2.2,Win32,75.07507508,5eac4b0a1f8db726fc6060c8,65d6bb0e977760de756971f7,65d6bdb5cb0a17198e65b8d2,0.023,0.023,1,108,270,109,1,seveneight,,,,,,,,,,,,,,,,,,,,,,,,,,,,,,,,,,,,,,,,,,,,,,,,,,,,,,,,,,,,,,,,,,,,,,,,,,,,,,,,,,,,,,,,,,,,,,,,,,,,,,,,,,,,,,,,,,,,,,,,,,,,,,,,,,,,,,,,,
,,5eac4b0a1f8db726fc6060c8,2024-02-22_03h27.18.290,kallum_motion_pilot,2023.2.2,Win32,75.07507508,5eac4b0a1f8db726fc6060c8,65d6bb0e977760de756971f7,65d6bdb5cb0a17198e65b8d2,0.023,0.023,1,109,271,140,1,sevenfive,,,,,,,,,,,,,,,,,,,,,,,,,,,,,,,,,,,,,,,,,,,,,,,,,,,,,,,,,,,,,,,,,,,,,,,,,,,,,,,,,,,,,,,,,,,,,,,,,,,,,,,,,,,,,,,,,,,,,,,,,,,,,,,,,,,,,,,,,
,,5eac4b0a1f8db726fc6060c8,2024-02-22_03h27.18.290,kallum_motion_pilot,2023.2.2,Win32,75.07507508,5eac4b0a1f8db726fc6060c8,65d6bb0e977760de756971f7,65d6bdb5cb0a17198e65b8d2,0.023,0.023,1,110,272,141,1,seveneight,,,,,,,,,,,,,,,,,,,,,,,,,,,,,,,,,,,,,,,,,,,,,,,,,,,,,,,,,,,,,,,,,,,,,,,,,,,,,,,,,,,,,,,,,,,,,,,,,,,,,,,,,,,,,,,,,,,,,,,,,,,,,,,,,,,,,,,,,
,,5eac4b0a1f8db726fc6060c8,2024-02-22_03h27.18.290,kallum_motion_pilot,2023.2.2,Win32,75.07507508,5eac4b0a1f8db726fc6060c8,65d6bb0e977760de756971f7,65d6bdb5cb0a17198e65b8d2,0.023,0.023,1,111,273,160,1,fivesix,,,,,,,,,,,,,,,,,,,,,,,,,,,,,,,,,,,,,,,,,,,,,,,,,,,,,,,,,,,,,,,,,,,,,,,,,,,,,,,,,,,,,,,,,,,,,,,,,,,,,,,,,,,,,,,,,,,,,,,,,,,,,,,,,,,,,,,,,
,,5eac4b0a1f8db726fc6060c8,2024-02-22_03h27.18.290,kallum_motion_pilot,2023.2.2,Win32,75.07507508,5eac4b0a1f8db726fc6060c8,65d6bb0e977760de756971f7,65d6bdb5cb0a17198e65b8d2,0.023,0.023,1,112,274,95,1,eightseven,,,,,,,,,,,,,,,,,,,,,,,,,,,,,,,,,,,,,,,,,,,,,,,,,,,,,,,,,,,,,,,,,,,,,,,,,,,,,,,,,,,,,,,,,,,,,,,,,,,,,,,,,,,,,,,,,,,,,,,,,,,,,,,,,,,,,,,,,
,,5eac4b0a1f8db726fc6060c8,2024-02-22_03h27.18.290,kallum_motion_pilot,2023.2.2,Win32,75.07507508,5eac4b0a1f8db726fc6060c8,65d6bb0e977760de756971f7,65d6bdb5cb0a17198e65b8d2,0.023,0.023,1,113,275,151,1,eightseven,,,,,,,,,,,,,,,,,,,,,,,,,,,,,,,,,,,,,,,,,,,,,,,,,,,,,,,,,,,,,,,,,,,,,,,,,,,,,,,,,,,,,,,,,,,,,,,,,,,,,,,,,,,,,,,,,,,,,,,,,,,,,,,,,,,,,,,,,
,,5eac4b0a1f8db726fc6060c8,2024-02-22_03h27.18.290,kallum_motion_pilot,2023.2.2,Win32,75.07507508,5eac4b0a1f8db726fc6060c8,65d6bb0e977760de756971f7,65d6bdb5cb0a17198e65b8d2,0.023,0.023,1,114,276,68,1,threeone,,,,,,,,,,,,,,,,,,,,,,,,,,,,,,,,,,,,,,,,,,,,,,,,,,,,,,,,,,,,,,,,,,,,,,,,,,,,,,,,,,,,,,,,,,,,,,,,,,,,,,,,,,,,,,,,,,,,,,,,,,,,,,,,,,,,,,,,,
,,5eac4b0a1f8db726fc6060c8,2024-02-22_03h27.18.290,kallum_motion_pilot,2023.2.2,Win32,75.07507508,5eac4b0a1f8db726fc6060c8,65d6bb0e977760de756971f7,65d6bdb5cb0a17198e65b8d2,0.024,0.024,1,115,277,100,1,sevenfive,,,,,,,,,,,,,,,,,,,,,,,,,,,,,,,,,,,,,,,,,,,,,,,,,,,,,,,,,,,,,,,,,,,,,,,,,,,,,,,,,,,,,,,,,,,,,,,,,,,,,,,,,,,,,,,,,,,,,,,,,,,,,,,,,,,,,,,,,
,,5eac4b0a1f8db726fc6060c8,2024-02-22_03h27.18.290,kallum_motion_pilot,2023.2.2,Win32,75.07507508,5eac4b0a1f8db726fc6060c8,65d6bb0e977760de756971f7,65d6bdb5cb0a17198e65b8d2,0.024,0.024,1,116,278,30,1,fourtwo,,,,,,,,,,,,,,,,,,,,,,,,,,,,,,,,,,,,,,,,,,,,,,,,,,,,,,,,,,,,,,,,,,,,,,,,,,,,,,,,,,,,,,,,,,,,,,,,,,,,,,,,,,,,,,,,,,,,,,,,,,,,,,,,,,,,,,,,,
,,5eac4b0a1f8db726fc6060c8,2024-02-22_03h27.18.290,kallum_motion_pilot,2023.2.2,Win32,75.07507508,5eac4b0a1f8db726fc6060c8,65d6bb0e977760de756971f7,65d6bdb5cb0a17198e65b8d2,0.024,0.024,1,117,279,111,1,eightseven,,,,,,,,,,,,,,,,,,,,,,,,,,,,,,,,,,,,,,,,,,,,,,,,,,,,,,,,,,,,,,,,,,,,,,,,,,,,,,,,,,,,,,,,,,,,,,,,,,,,,,,,,,,,,,,,,,,,,,,,,,,,,,,,,,,,,,,,,
