startup.started,startup.stopped,Prolific ID*,date,expName,psychopyVersion,OS,frameRate,participant,study_id,session,stimpositions.started,stimpositions.stopped,hardcoded_stimulus_positions.thisRepN,hardcoded_stimulus_positions.thisTrialN,hardcoded_stimulus_positions.thisN,hardcoded_stimulus_positions.thisIndex,hardcoded_stimulus_positions.ran,StimulusPos,stimorientation.started,stimorientation.stopped,prac_stimorientation_import_loop.thisRepN,prac_stimorientation_import_loop.thisTrialN,prac_stimorientation_import_loop.thisN,prac_stimorientation_import_loop.thisIndex,prac_stimorientation_import_loop.ran,Stimorientation,welcome_instr.started,welcome_instr.stopped,key_resp.keys,key_resp.rt,key_resp.duration,response_steppedout_1.started,response_steppedout_1.stopped,key_resp_20.keys,key_resp_20.rt,key_resp_20.duration,response_steppedout_2.started,response_steppedout_2.stopped,key_resp_19.keys,key_resp_19.rt,key_resp_19.duration,stim_response_instr.started,stim_response_instr.stopped,key_resp_15.keys,key_resp_15.rt,key_resp_15.duration,direction_instr_2.started,direction_instr_2.stopped,key_resp_9.keys,key_resp_9.rt,key_resp_9.duration,instr_prac.started,instr_prac.stopped,key_resp_10.keys,key_resp_10.rt,key_resp_10.duration,Stim1_display_prac.started,Stim1_display_prac.stopped,Ecc,Circle1_ori,Circle2_ori,response_prac.started,similarity,response_time,response_prac.stopped,mouse_5.x,mouse_5.y,mouse_5.leftButton,mouse_5.midButton,mouse_5.rightButton,mouse_5.clicked_name,responseprac_feedback.started,responseprac_feedback.stopped,summary2_prac.started,summary2_prac.stopped,mouse_6.x,mouse_6.y,mouse_6.leftButton,mouse_6.midButton,mouse_6.rightButton,mouse_6.clicked_name,duringprac.thisRepN,duringprac.thisTrialN,duringprac.thisN,duringprac.thisIndex,duringprac.ran,begin.started,begin.stopped,key_resp_22.keys,key_resp_22.rt,key_resp_22.duration,Stim1_display.started,Stim1_display.stopped,circle1_ori,circle2_ori,circle1_SF,circle2_SF,response.started,response.stopped,mouse.x,mouse.y,mouse.leftButton,mouse.midButton,mouse.rightButton,mouse.clicked_name,trialnumber,double_pass.thisRepN,double_pass.thisTrialN,double_pass.thisN,double_pass.thisIndex,double_pass.ran,double_pass.order,main_trial.thisRepN,main_trial.thisTrialN,main_trial.thisN,main_trial.thisIndex,main_trial.ran,main_trial.order,Trial_Counter,Catch,Frequencies,response_2.started,response_2.stopped,mouse_2.x,mouse_2.y,mouse_2.leftButton,mouse_2.midButton,mouse_2.rightButton,mouse_2.clicked_name,special_trial.started,special_trial.stopped,catch_1.started,catch_1.stopped,mouse_3.x,mouse_3.y,mouse_3.leftButton,mouse_3.midButton,mouse_3.rightButton,catchresponse,catchnumber,response_time_catch,response_sum.started,response_sum.stopped,mouse_11.x,mouse_11.y,mouse_11.leftButton,mouse_11.midButton,mouse_11.rightButton,flip_presentation_sequence_for_double_pass.started,flip_presentation_sequence_for_double_pass.stopped,goodbye.started,goodbye.stopped,key_resp_3.keys,key_resp_3.rt,key_resp_3.duration
0.0011,0.0013,5eacad39ef271f3206810eeb,2024-02-21_21h51.42.821,kallum_motion_pilot,2023.2.2,Win32,59.88023952,5eacad39ef271f3206810eeb,65d6bb0e977760de756971f7,65d6bd73f35ede804f6f2d1c,,,,,,,,,,,,,,,,,,,,,,,,,,,,,,,,,,,,,,,,,,,,,,,,,,,,,,,,,,,,,,,,,,,,,,,,,,,,,,,,,,,,,,,,,,,,,,,,,,,,,,,,,,,,,,,,,,,,,,,,,,,,,,,,,,,,,,,,,,,,,,,,,
,,5eacad39ef271f3206810eeb,2024-02-21_21h51.42.821,kallum_motion_pilot,2023.2.2,Win32,59.88023952,5eacad39ef271f3206810eeb,65d6bb0e977760de756971f7,65d6bd73f35ede804f6f2d1c,0.0631,0.0635,0,0,0,44,1,threeone,,,,,,,,,,,,,,,,,,,,,,,,,,,,,,,,,,,,,,,,,,,,,,,,,,,,,,,,,,,,,,,,,,,,,,,,,,,,,,,,,,,,,,,,,,,,,,,,,,,,,,,,,,,,,,,,,,,,,,,,,,,,,,,,,,,,,,,,,
,,5eacad39ef271f3206810eeb,2024-02-21_21h51.42.821,kallum_motion_pilot,2023.2.2,Win32,59.88023952,5eacad39ef271f3206810eeb,65d6bb0e977760de756971f7,65d6bd73f35ede804f6f2d1c,0.0648,0.065,0,1,1,100,1,sevenfive,,,,,,,,,,,,,,,,,,,,,,,,,,,,,,,,,,,,,,,,,,,,,,,,,,,,,,,,,,,,,,,,,,,,,,,,,,,,,,,,,,,,,,,,,,,,,,,,,,,,,,,,,,,,,,,,,,,,,,,,,,,,,,,,,,,,,,,,,
,,5eacad39ef271f3206810eeb,2024-02-21_21h51.42.821,kallum_motion_pilot,2023.2.2,Win32,59.88023952,5eacad39ef271f3206810eeb,65d6bb0e977760de756971f7,65d6bd73f35ede804f6f2d1c,0.0653,0.0654,0,2,2,67,1,twofour,,,,,,,,,,,,,,,,,,,,,,,,,,,,,,,,,,,,,,,,,,,,,,,,,,,,,,,,,,,,,,,,,,,,,,,,,,,,,,,,,,,,,,,,,,,,,,,,,,,,,,,,,,,,,,,,,,,,,,,,,,,,,,,,,,,,,,,,,
,,5eacad39ef271f3206810eeb,2024-02-21_21h51.42.821,kallum_motion_pilot,2023.2.2,Win32,59.88023952,5eacad39ef271f3206810eeb,65d6bb0e977760de756971f7,65d6bd73f35ede804f6f2d1c,0.0657,0.0658,0,3,3,25,1,onethree,,,,,,,,,,,,,,,,,,,,,,,,,,,,,,,,,,,,,,,,,,,,,,,,,,,,,,,,,,,,,,,,,,,,,,,,,,,,,,,,,,,,,,,,,,,,,,,,,,,,,,,,,,,,,,,,,,,,,,,,,,,,,,,,,,,,,,,,,
,,5eacad39ef271f3206810eeb,2024-02-21_21h51.42.821,kallum_motion_pilot,2023.2.2,Win32,59.88023952,5eacad39ef271f3206810eeb,65d6bb0e977760de756971f7,65d6bd73f35ede804f6f2d1c,0.0661,0.0662,0,4,4,97,1,fiveseven,,,,,,,,,,,,,,,,,,,,,,,,,,,,,,,,,,,,,,,,,,,,,,,,,,,,,,,,,,,,,,,,,,,,,,,,,,,,,,,,,,,,,,,,,,,,,,,,,,,,,,,,,,,,,,,,,,,,,,,,,,,,,,,,,,,,,,,,,
,,5eacad39ef271f3206810eeb,2024-02-21_21h51.42.821,kallum_motion_pilot,2023.2.2,Win32,59.88023952,5eacad39ef271f3206810eeb,65d6bb0e977760de756971f7,65d6bd73f35ede804f6f2d1c,0.0664,0.0665,0,5,5,117,1,seveneight,,,,,,,,,,,,,,,,,,,,,,,,,,,,,,,,,,,,,,,,,,,,,,,,,,,,,,,,,,,,,,,,,,,,,,,,,,,,,,,,,,,,,,,,,,,,,,,,,,,,,,,,,,,,,,,,,,,,,,,,,,,,,,,,,,,,,,,,,
,,5eacad39ef271f3206810eeb,2024-02-21_21h51.42.821,kallum_motion_pilot,2023.2.2,Win32,59.88023952,5eacad39ef271f3206810eeb,65d6bb0e977760de756971f7,65d6bd73f35ede804f6f2d1c,0.0667,0.0669,0,6,6,87,1,eightseven,,,,,,,,,,,,,,,,,,,,,,,,,,,,,,,,,,,,,,,,,,,,,,,,,,,,,,,,,,,,,,,,,,,,,,,,,,,,,,,,,,,,,,,,,,,,,,,,,,,,,,,,,,,,,,,,,,,,,,,,,,,,,,,,,,,,,,,,,
,,5eacad39ef271f3206810eeb,2024-02-21_21h51.42.821,kallum_motion_pilot,2023.2.2,Win32,59.88023952,5eacad39ef271f3206810eeb,65d6bb0e977760de756971f7,65d6bd73f35ede804f6f2d1c,0.0673,0.0673,0,7,7,132,1,sevenfive,,,,,,,,,,,,,,,,,,,,,,,,,,,,,,,,,,,,,,,,,,,,,,,,,,,,,,,,,,,,,,,,,,,,,,,,,,,,,,,,,,,,,,,,,,,,,,,,,,,,,,,,,,,,,,,,,,,,,,,,,,,,,,,,,,,,,,,,,
,,5eacad39ef271f3206810eeb,2024-02-21_21h51.42.821,kallum_motion_pilot,2023.2.2,Win32,59.88023952,5eacad39ef271f3206810eeb,65d6bb0e977760de756971f7,65d6bd73f35ede804f6f2d1c,0.0677,0.0678,0,8,8,33,1,onethree,,,,,,,,,,,,,,,,,,,,,,,,,,,,,,,,,,,,,,,,,,,,,,,,,,,,,,,,,,,,,,,,,,,,,,,,,,,,,,,,,,,,,,,,,,,,,,,,,,,,,,,,,,,,,,,,,,,,,,,,,,,,,,,,,,,,,,,,,
,,5eacad39ef271f3206810eeb,2024-02-21_21h51.42.821,kallum_motion_pilot,2023.2.2,Win32,59.88023952,5eacad39ef271f3206810eeb,65d6bb0e977760de756971f7,65d6bd73f35ede804f6f2d1c,0.0681,0.0681,0,9,9,52,1,threeone,,,,,,,,,,,,,,,,,,,,,,,,,,,,,,,,,,,,,,,,,,,,,,,,,,,,,,,,,,,,,,,,,,,,,,,,,,,,,,,,,,,,,,,,,,,,,,,,,,,,,,,,,,,,,,,,,,,,,,,,,,,,,,,,,,,,,,,,,
,,5eacad39ef271f3206810eeb,2024-02-21_21h51.42.821,kallum_motion_pilot,2023.2.2,Win32,59.88023952,5eacad39ef271f3206810eeb,65d6bb0e977760de756971f7,65d6bd73f35ede804f6f2d1c,0.0685,0.0686,0,10,10,141,1,seveneight,,,,,,,,,,,,,,,,,,,,,,,,,,,,,,,,,,,,,,,,,,,,,,,,,,,,,,,,,,,,,,,,,,,,,,,,,,,,,,,,,,,,,,,,,,,,,,,,,,,,,,,,,,,,,,,,,,,,,,,,,,,,,,,,,,,,,,,,,
,,5eacad39ef271f3206810eeb,2024-02-21_21h51.42.821,kallum_motion_pilot,2023.2.2,Win32,59.88023952,5eacad39ef271f3206810eeb,65d6bb0e977760de756971f7,65d6bd73f35ede804f6f2d1c,0.0689,0.069,0,11,11,93,1,seveneight,,,,,,,,,,,,,,,,,,,,,,,,,,,,,,,,,,,,,,,,,,,,,,,,,,,,,,,,,,,,,,,,,,,,,,,,,,,,,,,,,,,,,,,,,,,,,,,,,,,,,,,,,,,,,,,,,,,,,,,,,,,,,,,,,,,,,,,,,
,,5eacad39ef271f3206810eeb,2024-02-21_21h51.42.821,kallum_motion_pilot,2023.2.2,Win32,59.88023952,5eacad39ef271f3206810eeb,65d6bb0e977760de756971f7,65d6bd73f35ede804f6f2d1c,0.0691,0.0693,0,12,12,120,1,fivesix,,,,,,,,,,,,,,,,,,,,,,,,,,,,,,,,,,,,,,,,,,,,,,,,,,,,,,,,,,,,,,,,,,,,,,,,,,,,,,,,,,,,,,,,,,,,,,,,,,,,,,,,,,,,,,,,,,,,,,,,,,,,,,,,,,,,,,,,,
,,5eacad39ef271f3206810eeb,2024-02-21_21h51.42.821,kallum_motion_pilot,2023.2.2,Win32,59.88023952,5eacad39ef271f3206810eeb,65d6bb0e977760de756971f7,65d6bd73f35ede804f6f2d1c,0.0694,0.0696,0,13,13,54,1,fourtwo,,,,,,,,,,,,,,,,,,,,,,,,,,,,,,,,,,,,,,,,,,,,,,,,,,,,,,,,,,,,,,,,,,,,,,,,,,,,,,,,,,,,,,,,,,,,,,,,,,,,,,,,,,,,,,,,,,,,,,,,,,,,,,,,,,,,,,,,,
,,5eacad39ef271f3206810eeb,2024-02-21_21h51.42.821,kallum_motion_pilot,2023.2.2,Win32,59.88023952,5eacad39ef271f3206810eeb,65d6bb0e977760de756971f7,65d6bd73f35ede804f6f2d1c,0.0697,0.0698,0,14,14,103,1,eightseven,,,,,,,,,,,,,,,,,,,,,,,,,,,,,,,,,,,,,,,,,,,,,,,,,,,,,,,,,,,,,,,,,,,,,,,,,,,,,,,,,,,,,,,,,,,,,,,,,,,,,,,,,,,,,,,,,,,,,,,,,,,,,,,,,,,,,,,,,
,,5eacad39ef271f3206810eeb,2024-02-21_21h51.42.821,kallum_motion_pilot,2023.2.2,Win32,59.88023952,5eacad39ef271f3206810eeb,65d6bb0e977760de756971f7,65d6bd73f35ede804f6f2d1c,0.07,0.0701,0,15,15,89,1,fiveseven,,,,,,,,,,,,,,,,,,,,,,,,,,,,,,,,,,,,,,,,,,,,,,,,,,,,,,,,,,,,,,,,,,,,,,,,,,,,,,,,,,,,,,,,,,,,,,,,,,,,,,,,,,,,,,,,,,,,,,,,,,,,,,,,,,,,,,,,,
,,5eacad39ef271f3206810eeb,2024-02-21_21h51.42.821,kallum_motion_pilot,2023.2.2,Win32,59.88023952,5eacad39ef271f3206810eeb,65d6bb0e977760de756971f7,65d6bd73f35ede804f6f2d1c,0.0704,0.0704,0,16,16,50,1,twoone,,,,,,,,,,,,,,,,,,,,,,,,,,,,,,,,,,,,,,,,,,,,,,,,,,,,,,,,,,,,,,,,,,,,,,,,,,,,,,,,,,,,,,,,,,,,,,,,,,,,,,,,,,,,,,,,,,,,,,,,,,,,,,,,,,,,,,,,,
,,5eacad39ef271f3206810eeb,2024-02-21_21h51.42.821,kallum_motion_pilot,2023.2.2,Win32,59.88023952,5eacad39ef271f3206810eeb,65d6bb0e977760de756971f7,65d6bd73f35ede804f6f2d1c,0.0706,0.0707,0,17,17,20,1,threeone,,,,,,,,,,,,,,,,,,,,,,,,,,,,,,,,,,,,,,,,,,,,,,,,,,,,,,,,,,,,,,,,,,,,,,,,,,,,,,,,,,,,,,,,,,,,,,,,,,,,,,,,,,,,,,,,,,,,,,,,,,,,,,,,,,,,,,,,,
,,5eacad39ef271f3206810eeb,2024-02-21_21h51.42.821,kallum_motion_pilot,2023.2.2,Win32,59.88023952,5eacad39ef271f3206810eeb,65d6bb0e977760de756971f7,65d6bd73f35ede804f6f2d1c,0.0709,0.071,0,18,18,5,1,threefour,,,,,,,,,,,,,,,,,,,,,,,,,,,,,,,,,,,,,,,,,,,,,,,,,,,,,,,,,,,,,,,,,,,,,,,,,,,,,,,,,,,,,,,,,,,,,,,,,,,,,,,,,,,,,,,,,,,,,,,,,,,,,,,,,,,,,,,,,
,,5eacad39ef271f3206810eeb,2024-02-21_21h51.42.821,kallum_motion_pilot,2023.2.2,Win32,59.88023952,5eacad39ef271f3206810eeb,65d6bb0e977760de756971f7,65d6bd73f35ede804f6f2d1c,0.0711,0.0712,0,19,19,77,1,threefour,,,,,,,,,,,,,,,,,,,,,,,,,,,,,,,,,,,,,,,,,,,,,,,,,,,,,,,,,,,,,,,,,,,,,,,,,,,,,,,,,,,,,,,,,,,,,,,,,,,,,,,,,,,,,,,,,,,,,,,,,,,,,,,,,,,,,,,,,
,,5eacad39ef271f3206810eeb,2024-02-21_21h51.42.821,kallum_motion_pilot,2023.2.2,Win32,59.88023952,5eacad39ef271f3206810eeb,65d6bb0e977760de756971f7,65d6bd73f35ede804f6f2d1c,0.0714,0.0715,0,20,20,146,1,sixfive,,,,,,,,,,,,,,,,,,,,,,,,,,,,,,,,,,,,,,,,,,,,,,,,,,,,,,,,,,,,,,,,,,,,,,,,,,,,,,,,,,,,,,,,,,,,,,,,,,,,,,,,,,,,,,,,,,,,,,,,,,,,,,,,,,,,,,,,,
,,5eacad39ef271f3206810eeb,2024-02-21_21h51.42.821,kallum_motion_pilot,2023.2.2,Win32,59.88023952,5eacad39ef271f3206810eeb,65d6bb0e977760de756971f7,65d6bd73f35ede804f6f2d1c,0.0717,0.0717,0,21,21,111,1,eightseven,,,,,,,,,,,,,,,,,,,,,,,,,,,,,,,,,,,,,,,,,,,,,,,,,,,,,,,,,,,,,,,,,,,,,,,,,,,,,,,,,,,,,,,,,,,,,,,,,,,,,,,,,,,,,,,,,,,,,,,,,,,,,,,,,,,,,,,,,
,,5eacad39ef271f3206810eeb,2024-02-21_21h51.42.821,kallum_motion_pilot,2023.2.2,Win32,59.88023952,5eacad39ef271f3206810eeb,65d6bb0e977760de756971f7,65d6bd73f35ede804f6f2d1c,0.0719,0.072,0,22,22,144,1,fivesix,,,,,,,,,,,,,,,,,,,,,,,,,,,,,,,,,,,,,,,,,,,,,,,,,,,,,,,,,,,,,,,,,,,,,,,,,,,,,,,,,,,,,,,,,,,,,,,,,,,,,,,,,,,,,,,,,,,,,,,,,,,,,,,,,,,,,,,,,
,,5eacad39ef271f3206810eeb,2024-02-21_21h51.42.821,kallum_motion_pilot,2023.2.2,Win32,59.88023952,5eacad39ef271f3206810eeb,65d6bb0e977760de756971f7,65d6bd73f35ede804f6f2d1c,0.0722,0.0722,0,23,23,118,1,eightsix,,,,,,,,,,,,,,,,,,,,,,,,,,,,,,,,,,,,,,,,,,,,,,,,,,,,,,,,,,,,,,,,,,,,,,,,,,,,,,,,,,,,,,,,,,,,,,,,,,,,,,,,,,,,,,,,,,,,,,,,,,,,,,,,,,,,,,,,,
,,5eacad39ef271f3206810eeb,2024-02-21_21h51.42.821,kallum_motion_pilot,2023.2.2,Win32,59.88023952,5eacad39ef271f3206810eeb,65d6bb0e977760de756971f7,65d6bd73f35ede804f6f2d1c,0.0725,0.0725,0,24,24,150,1,eightsix,,,,,,,,,,,,,,,,,,,,,,,,,,,,,,,,,,,,,,,,,,,,,,,,,,,,,,,,,,,,,,,,,,,,,,,,,,,,,,,,,,,,,,,,,,,,,,,,,,,,,,,,,,,,,,,,,,,,,,,,,,,,,,,,,,,,,,,,,
,,5eacad39ef271f3206810eeb,2024-02-21_21h51.42.821,kallum_motion_pilot,2023.2.2,Win32,59.88023952,5eacad39ef271f3206810eeb,65d6bb0e977760de756971f7,65d6bd73f35ede804f6f2d1c,0.0728,0.0728,0,25,25,158,1,eightsix,,,,,,,,,,,,,,,,,,,,,,,,,,,,,,,,,,,,,,,,,,,,,,,,,,,,,,,,,,,,,,,,,,,,,,,,,,,,,,,,,,,,,,,,,,,,,,,,,,,,,,,,,,,,,,,,,,,,,,,,,,,,,,,,,,,,,,,,,
,,5eacad39ef271f3206810eeb,2024-02-21_21h51.42.821,kallum_motion_pilot,2023.2.2,Win32,59.88023952,5eacad39ef271f3206810eeb,65d6bb0e977760de756971f7,65d6bd73f35ede804f6f2d1c,0.073,0.0731,0,26,26,48,1,onetwo,,,,,,,,,,,,,,,,,,,,,,,,,,,,,,,,,,,,,,,,,,,,,,,,,,,,,,,,,,,,,,,,,,,,,,,,,,,,,,,,,,,,,,,,,,,,,,,,,,,,,,,,,,,,,,,,,,,,,,,,,,,,,,,,,,,,,,,,,
,,5eacad39ef271f3206810eeb,2024-02-21_21h51.42.821,kallum_motion_pilot,2023.2.2,Win32,59.88023952,5eacad39ef271f3206810eeb,65d6bb0e977760de756971f7,65d6bd73f35ede804f6f2d1c,0.0733,0.0734,0,27,27,109,1,seveneight,,,,,,,,,,,,,,,,,,,,,,,,,,,,,,,,,,,,,,,,,,,,,,,,,,,,,,,,,,,,,,,,,,,,,,,,,,,,,,,,,,,,,,,,,,,,,,,,,,,,,,,,,,,,,,,,,,,,,,,,,,,,,,,,,,,,,,,,,
,,5eacad39ef271f3206810eeb,2024-02-21_21h51.42.821,kallum_motion_pilot,2023.2.2,Win32,59.88023952,5eacad39ef271f3206810eeb,65d6bb0e977760de756971f7,65d6bd73f35ede804f6f2d1c,0.0736,0.0736,0,28,28,139,1,sixeight,,,,,,,,,,,,,,,,,,,,,,,,,,,,,,,,,,,,,,,,,,,,,,,,,,,,,,,,,,,,,,,,,,,,,,,,,,,,,,,,,,,,,,,,,,,,,,,,,,,,,,,,,,,,,,,,,,,,,,,,,,,,,,,,,,,,,,,,,
,,5eacad39ef271f3206810eeb,2024-02-21_21h51.42.821,kallum_motion_pilot,2023.2.2,Win32,59.88023952,5eacad39ef271f3206810eeb,65d6bb0e977760de756971f7,65d6bd73f35ede804f6f2d1c,0.0738,0.074,0,29,29,115,1,sixeight,,,,,,,,,,,,,,,,,,,,,,,,,,,,,,,,,,,,,,,,,,,,,,,,,,,,,,,,,,,,,,,,,,,,,,,,,,,,,,,,,,,,,,,,,,,,,,,,,,,,,,,,,,,,,,,,,,,,,,,,,,,,,,,,,,,,,,,,,
,,5eacad39ef271f3206810eeb,2024-02-21_21h51.42.821,kallum_motion_pilot,2023.2.2,Win32,59.88023952,5eacad39ef271f3206810eeb,65d6bb0e977760de756971f7,65d6bd73f35ede804f6f2d1c,0.0741,0.0742,0,30,30,2,1,twoone,,,,,,,,,,,,,,,,,,,,,,,,,,,,,,,,,,,,,,,,,,,,,,,,,,,,,,,,,,,,,,,,,,,,,,,,,,,,,,,,,,,,,,,,,,,,,,,,,,,,,,,,,,,,,,,,,,,,,,,,,,,,,,,,,,,,,,,,,
,,5eacad39ef271f3206810eeb,2024-02-21_21h51.42.821,kallum_motion_pilot,2023.2.2,Win32,59.88023952,5eacad39ef271f3206810eeb,65d6bb0e977760de756971f7,65d6bd73f35ede804f6f2d1c,0.0743,0.0745,0,31,31,8,1,onetwo,,,,,,,,,,,,,,,,,,,,,,,,,,,,,,,,,,,,,,,,,,,,,,,,,,,,,,,,,,,,,,,,,,,,,,,,,,,,,,,,,,,,,,,,,,,,,,,,,,,,,,,,,,,,,,,,,,,,,,,,,,,,,,,,,,,,,,,,,
,,5eacad39ef271f3206810eeb,2024-02-21_21h51.42.821,kallum_motion_pilot,2023.2.2,Win32,59.88023952,5eacad39ef271f3206810eeb,65d6bb0e977760de756971f7,65d6bd73f35ede804f6f2d1c,0.0746,0.0747,0,32,32,125,1,seveneight,,,,,,,,,,,,,,,,,,,,,,,,,,,,,,,,,,,,,,,,,,,,,,,,,,,,,,,,,,,,,,,,,,,,,,,,,,,,,,,,,,,,,,,,,,,,,,,,,,,,,,,,,,,,,,,,,,,,,,,,,,,,,,,,,,,,,,,,,
,,5eacad39ef271f3206810eeb,2024-02-21_21h51.42.821,kallum_motion_pilot,2023.2.2,Win32,59.88023952,5eacad39ef271f3206810eeb,65d6bb0e977760de756971f7,65d6bd73f35ede804f6f2d1c,0.0749,0.0749,0,33,33,30,1,fourtwo,,,,,,,,,,,,,,,,,,,,,,,,,,,,,,,,,,,,,,,,,,,,,,,,,,,,,,,,,,,,,,,,,,,,,,,,,,,,,,,,,,,,,,,,,,,,,,,,,,,,,,,,,,,,,,,,,,,,,,,,,,,,,,,,,,,,,,,,,
,,5eacad39ef271f3206810eeb,2024-02-21_21h51.42.821,kallum_motion_pilot,2023.2.2,Win32,59.88023952,5eacad39ef271f3206810eeb,65d6bb0e977760de756971f7,65d6bd73f35ede804f6f2d1c,0.0751,0.0752,0,34,34,134,1,eightsix,,,,,,,,,,,,,,,,,,,,,,,,,,,,,,,,,,,,,,,,,,,,,,,,,,,,,,,,,,,,,,,,,,,,,,,,,,,,,,,,,,,,,,,,,,,,,,,,,,,,,,,,,,,,,,,,,,,,,,,,,,,,,,,,,,,,,,,,,
,,5eacad39ef271f3206810eeb,2024-02-21_21h51.42.821,kallum_motion_pilot,2023.2.2,Win32,59.88023952,5eacad39ef271f3206810eeb,65d6bb0e977760de756971f7,65d6bd73f35ede804f6f2d1c,0.0753,0.0755,0,35,35,84,1,sevenfive,,,,,,,,,,,,,,,,,,,,,,,,,,,,,,,,,,,,,,,,,,,,,,,,,,,,,,,,,,,,,,,,,,,,,,,,,,,,,,,,,,,,,,,,,,,,,,,,,,,,,,,,,,,,,,,,,,,,,,,,,,,,,,,,,,,,,,,,,
,,5eacad39ef271f3206810eeb,2024-02-21_21h51.42.821,kallum_motion_pilot,2023.2.2,Win32,59.88023952,5eacad39ef271f3206810eeb,65d6bb0e977760de756971f7,65d6bd73f35ede804f6f2d1c,0.0757,0.0757,0,36,36,40,1,onetwo,,,,,,,,,,,,,,,,,,,,,,,,,,,,,,,,,,,,,,,,,,,,,,,,,,,,,,,,,,,,,,,,,,,,,,,,,,,,,,,,,,,,,,,,,,,,,,,,,,,,,,,,,,,,,,,,,,,,,,,,,,,,,,,,,,,,,,,,,
,,5eacad39ef271f3206810eeb,2024-02-21_21h51.42.821,kallum_motion_pilot,2023.2.2,Win32,59.88023952,5eacad39ef271f3206810eeb,65d6bb0e977760de756971f7,65d6bd73f35ede804f6f2d1c,0.0759,0.0759,0,37,37,26,1,twoone,,,,,,,,,,,,,,,,,,,,,,,,,,,,,,,,,,,,,,,,,,,,,,,,,,,,,,,,,,,,,,,,,,,,,,,,,,,,,,,,,,,,,,,,,,,,,,,,,,,,,,,,,,,,,,,,,,,,,,,,,,,,,,,,,,,,,,,,,
,,5eacad39ef271f3206810eeb,2024-02-21_21h51.42.821,kallum_motion_pilot,2023.2.2,Win32,59.88023952,5eacad39ef271f3206810eeb,65d6bb0e977760de756971f7,65d6bd73f35ede804f6f2d1c,0.0762,0.0762,0,38,38,32,1,onetwo,,,,,,,,,,,,,,,,,,,,,,,,,,,,,,,,,,,,,,,,,,,,,,,,,,,,,,,,,,,,,,,,,,,,,,,,,,,,,,,,,,,,,,,,,,,,,,,,,,,,,,,,,,,,,,,,,,,,,,,,,,,,,,,,,,,,,,,,,
,,5eacad39ef271f3206810eeb,2024-02-21_21h51.42.821,kallum_motion_pilot,2023.2.2,Win32,59.88023952,5eacad39ef271f3206810eeb,65d6bb0e977760de756971f7,65d6bd73f35ede804f6f2d1c,0.0764,0.0765,0,39,39,133,1,seveneight,,,,,,,,,,,,,,,,,,,,,,,,,,,,,,,,,,,,,,,,,,,,,,,,,,,,,,,,,,,,,,,,,,,,,,,,,,,,,,,,,,,,,,,,,,,,,,,,,,,,,,,,,,,,,,,,,,,,,,,,,,,,,,,,,,,,,,,,,
,,5eacad39ef271f3206810eeb,2024-02-21_21h51.42.821,kallum_motion_pilot,2023.2.2,Win32,59.88023952,5eacad39ef271f3206810eeb,65d6bb0e977760de756971f7,65d6bd73f35ede804f6f2d1c,0.0767,0.0768,0,40,40,153,1,fiveseven,,,,,,,,,,,,,,,,,,,,,,,,,,,,,,,,,,,,,,,,,,,,,,,,,,,,,,,,,,,,,,,,,,,,,,,,,,,,,,,,,,,,,,,,,,,,,,,,,,,,,,,,,,,,,,,,,,,,,,,,,,,,,,,,,,,,,,,,,
,,5eacad39ef271f3206810eeb,2024-02-21_21h51.42.821,kallum_motion_pilot,2023.2.2,Win32,59.88023952,5eacad39ef271f3206810eeb,65d6bb0e977760de756971f7,65d6bd73f35ede804f6f2d1c,0.077,0.0771,0,41,41,51,1,twofour,,,,,,,,,,,,,,,,,,,,,,,,,,,,,,,,,,,,,,,,,,,,,,,,,,,,,,,,,,,,,,,,,,,,,,,,,,,,,,,,,,,,,,,,,,,,,,,,,,,,,,,,,,,,,,,,,,,,,,,,,,,,,,,,,,,,,,,,,
,,5eacad39ef271f3206810eeb,2024-02-21_21h51.42.821,kallum_motion_pilot,2023.2.2,Win32,59.88023952,5eacad39ef271f3206810eeb,65d6bb0e977760de756971f7,65d6bd73f35ede804f6f2d1c,0.0772,0.0773,0,42,42,99,1,sixeight,,,,,,,,,,,,,,,,,,,,,,,,,,,,,,,,,,,,,,,,,,,,,,,,,,,,,,,,,,,,,,,,,,,,,,,,,,,,,,,,,,,,,,,,,,,,,,,,,,,,,,,,,,,,,,,,,,,,,,,,,,,,,,,,,,,,,,,,,
,,5eacad39ef271f3206810eeb,2024-02-21_21h51.42.821,kallum_motion_pilot,2023.2.2,Win32,59.88023952,5eacad39ef271f3206810eeb,65d6bb0e977760de756971f7,65d6bd73f35ede804f6f2d1c,0.0776,0.0776,0,43,43,21,1,threefour,,,,,,,,,,,,,,,,,,,,,,,,,,,,,,,,,,,,,,,,,,,,,,,,,,,,,,,,,,,,,,,,,,,,,,,,,,,,,,,,,,,,,,,,,,,,,,,,,,,,,,,,,,,,,,,,,,,,,,,,,,,,,,,,,,,,,,,,,
,,5eacad39ef271f3206810eeb,2024-02-21_21h51.42.821,kallum_motion_pilot,2023.2.2,Win32,59.88023952,5eacad39ef271f3206810eeb,65d6bb0e977760de756971f7,65d6bd73f35ede804f6f2d1c,0.0778,0.0779,0,44,44,23,1,fourthree,,,,,,,,,,,,,,,,,,,,,,,,,,,,,,,,,,,,,,,,,,,,,,,,,,,,,,,,,,,,,,,,,,,,,,,,,,,,,,,,,,,,,,,,,,,,,,,,,,,,,,,,,,,,,,,,,,,,,,,,,,,,,,,,,,,,,,,,,
,,5eacad39ef271f3206810eeb,2024-02-21_21h51.42.821,kallum_motion_pilot,2023.2.2,Win32,59.88023952,5eacad39ef271f3206810eeb,65d6bb0e977760de756971f7,65d6bd73f35ede804f6f2d1c,0.078,0.0781,0,45,45,155,1,sixeight,,,,,,,,,,,,,,,,,,,,,,,,,,,,,,,,,,,,,,,,,,,,,,,,,,,,,,,,,,,,,,,,,,,,,,,,,,,,,,,,,,,,,,,,,,,,,,,,,,,,,,,,,,,,,,,,,,,,,,,,,,,,,,,,,,,,,,,,,
,,5eacad39ef271f3206810eeb,2024-02-21_21h51.42.821,kallum_motion_pilot,2023.2.2,Win32,59.88023952,5eacad39ef271f3206810eeb,65d6bb0e977760de756971f7,65d6bd73f35ede804f6f2d1c,0.0783,0.0784,0,46,46,156,1,sevenfive,,,,,,,,,,,,,,,,,,,,,,,,,,,,,,,,,,,,,,,,,,,,,,,,,,,,,,,,,,,,,,,,,,,,,,,,,,,,,,,,,,,,,,,,,,,,,,,,,,,,,,,,,,,,,,,,,,,,,,,,,,,,,,,,,,,,,,,,,
,,5eacad39ef271f3206810eeb,2024-02-21_21h51.42.821,kallum_motion_pilot,2023.2.2,Win32,59.88023952,5eacad39ef271f3206810eeb,65d6bb0e977760de756971f7,65d6bd73f35ede804f6f2d1c,0.0787,0.0788,0,47,47,1,1,onethree,,,,,,,,,,,,,,,,,,,,,,,,,,,,,,,,,,,,,,,,,,,,,,,,,,,,,,,,,,,,,,,,,,,,,,,,,,,,,,,,,,,,,,,,,,,,,,,,,,,,,,,,,,,,,,,,,,,,,,,,,,,,,,,,,,,,,,,,,
,,5eacad39ef271f3206810eeb,2024-02-21_21h51.42.821,kallum_motion_pilot,2023.2.2,Win32,59.88023952,5eacad39ef271f3206810eeb,65d6bb0e977760de756971f7,65d6bd73f35ede804f6f2d1c,0.0789,0.079,0,48,48,72,1,onetwo,,,,,,,,,,,,,,,,,,,,,,,,,,,,,,,,,,,,,,,,,,,,,,,,,,,,,,,,,,,,,,,,,,,,,,,,,,,,,,,,,,,,,,,,,,,,,,,,,,,,,,,,,,,,,,,,,,,,,,,,,,,,,,,,,,,,,,,,,
,,5eacad39ef271f3206810eeb,2024-02-21_21h51.42.821,kallum_motion_pilot,2023.2.2,Win32,59.88023952,5eacad39ef271f3206810eeb,65d6bb0e977760de756971f7,65d6bd73f35ede804f6f2d1c,0.0792,0.0793,0,49,49,137,1,fiveseven,,,,,,,,,,,,,,,,,,,,,,,,,,,,,,,,,,,,,,,,,,,,,,,,,,,,,,,,,,,,,,,,,,,,,,,,,,,,,,,,,,,,,,,,,,,,,,,,,,,,,,,,,,,,,,,,,,,,,,,,,,,,,,,,,,,,,,,,,
,,5eacad39ef271f3206810eeb,2024-02-21_21h51.42.821,kallum_motion_pilot,2023.2.2,Win32,59.88023952,5eacad39ef271f3206810eeb,65d6bb0e977760de756971f7,65d6bd73f35ede804f6f2d1c,0.0795,0.0796,0,50,50,28,1,threeone,,,,,,,,,,,,,,,,,,,,,,,,,,,,,,,,,,,,,,,,,,,,,,,,,,,,,,,,,,,,,,,,,,,,,,,,,,,,,,,,,,,,,,,,,,,,,,,,,,,,,,,,,,,,,,,,,,,,,,,,,,,,,,,,,,,,,,,,,
,,5eacad39ef271f3206810eeb,2024-02-21_21h51.42.821,kallum_motion_pilot,2023.2.2,Win32,59.88023952,5eacad39ef271f3206810eeb,65d6bb0e977760de756971f7,65d6bd73f35ede804f6f2d1c,0.0797,0.0797,0,51,51,119,1,eightseven,,,,,,,,,,,,,,,,,,,,,,,,,,,,,,,,,,,,,,,,,,,,,,,,,,,,,,,,,,,,,,,,,,,,,,,,,,,,,,,,,,,,,,,,,,,,,,,,,,,,,,,,,,,,,,,,,,,,,,,,,,,,,,,,,,,,,,,,,
,,5eacad39ef271f3206810eeb,2024-02-21_21h51.42.821,kallum_motion_pilot,2023.2.2,Win32,59.88023952,5eacad39ef271f3206810eeb,65d6bb0e977760de756971f7,65d6bd73f35ede804f6f2d1c,0.08,0.0801,0,52,52,130,1,sixfive,,,,,,,,,,,,,,,,,,,,,,,,,,,,,,,,,,,,,,,,,,,,,,,,,,,,,,,,,,,,,,,,,,,,,,,,,,,,,,,,,,,,,,,,,,,,,,,,,,,,,,,,,,,,,,,,,,,,,,,,,,,,,,,,,,,,,,,,,
,,5eacad39ef271f3206810eeb,2024-02-21_21h51.42.821,kallum_motion_pilot,2023.2.2,Win32,59.88023952,5eacad39ef271f3206810eeb,65d6bb0e977760de756971f7,65d6bd73f35ede804f6f2d1c,0.0802,0.0803,0,53,53,95,1,eightseven,,,,,,,,,,,,,,,,,,,,,,,,,,,,,,,,,,,,,,,,,,,,,,,,,,,,,,,,,,,,,,,,,,,,,,,,,,,,,,,,,,,,,,,,,,,,,,,,,,,,,,,,,,,,,,,,,,,,,,,,,,,,,,,,,,,,,,,,,
,,5eacad39ef271f3206810eeb,2024-02-21_21h51.42.821,kallum_motion_pilot,2023.2.2,Win32,59.88023952,5eacad39ef271f3206810eeb,65d6bb0e977760de756971f7,65d6bd73f35ede804f6f2d1c,0.0805,0.0806,0,54,54,61,1,threefour,,,,,,,,,,,,,,,,,,,,,,,,,,,,,,,,,,,,,,,,,,,,,,,,,,,,,,,,,,,,,,,,,,,,,,,,,,,,,,,,,,,,,,,,,,,,,,,,,,,,,,,,,,,,,,,,,,,,,,,,,,,,,,,,,,,,,,,,,
,,5eacad39ef271f3206810eeb,2024-02-21_21h51.42.821,kallum_motion_pilot,2023.2.2,Win32,59.88023952,5eacad39ef271f3206810eeb,65d6bb0e977760de756971f7,65d6bd73f35ede804f6f2d1c,0.0808,0.0808,0,55,55,79,1,eightseven,,,,,,,,,,,,,,,,,,,,,,,,,,,,,,,,,,,,,,,,,,,,,,,,,,,,,,,,,,,,,,,,,,,,,,,,,,,,,,,,,,,,,,,,,,,,,,,,,,,,,,,,,,,,,,,,,,,,,,,,,,,,,,,,,,,,,,,,,
,,5eacad39ef271f3206810eeb,2024-02-21_21h51.42.821,kallum_motion_pilot,2023.2.2,Win32,59.88023952,5eacad39ef271f3206810eeb,65d6bb0e977760de756971f7,65d6bd73f35ede804f6f2d1c,0.0813,0.0816,0,56,56,65,1,onethree,,,,,,,,,,,,,,,,,,,,,,,,,,,,,,,,,,,,,,,,,,,,,,,,,,,,,,,,,,,,,,,,,,,,,,,,,,,,,,,,,,,,,,,,,,,,,,,,,,,,,,,,,,,,,,,,,,,,,,,,,,,,,,,,,,,,,,,,,
,,5eacad39ef271f3206810eeb,2024-02-21_21h51.42.821,kallum_motion_pilot,2023.2.2,Win32,59.88023952,5eacad39ef271f3206810eeb,65d6bb0e977760de756971f7,65d6bd73f35ede804f6f2d1c,0.0819,0.082,0,57,57,102,1,eightsix,,,,,,,,,,,,,,,,,,,,,,,,,,,,,,,,,,,,,,,,,,,,,,,,,,,,,,,,,,,,,,,,,,,,,,,,,,,,,,,,,,,,,,,,,,,,,,,,,,,,,,,,,,,,,,,,,,,,,,,,,,,,,,,,,,,,,,,,,
,,5eacad39ef271f3206810eeb,2024-02-21_21h51.42.821,kallum_motion_pilot,2023.2.2,Win32,59.88023952,5eacad39ef271f3206810eeb,65d6bb0e977760de756971f7,65d6bd73f35ede804f6f2d1c,0.0822,0.0823,0,58,58,124,1,sevenfive,,,,,,,,,,,,,,,,,,,,,,,,,,,,,,,,,,,,,,,,,,,,,,,,,,,,,,,,,,,,,,,,,,,,,,,,,,,,,,,,,,,,,,,,,,,,,,,,,,,,,,,,,,,,,,,,,,,,,,,,,,,,,,,,,,,,,,,,,
,,5eacad39ef271f3206810eeb,2024-02-21_21h51.42.821,kallum_motion_pilot,2023.2.2,Win32,59.88023952,5eacad39ef271f3206810eeb,65d6bb0e977760de756971f7,65d6bd73f35ede804f6f2d1c,0.0826,0.0826,0,59,59,60,1,threeone,,,,,,,,,,,,,,,,,,,,,,,,,,,,,,,,,,,,,,,,,,,,,,,,,,,,,,,,,,,,,,,,,,,,,,,,,,,,,,,,,,,,,,,,,,,,,,,,,,,,,,,,,,,,,,,,,,,,,,,,,,,,,,,,,,,,,,,,,
,,5eacad39ef271f3206810eeb,2024-02-21_21h51.42.821,kallum_motion_pilot,2023.2.2,Win32,59.88023952,5eacad39ef271f3206810eeb,65d6bb0e977760de756971f7,65d6bd73f35ede804f6f2d1c,0.0828,0.0829,0,60,60,121,1,fiveseven,,,,,,,,,,,,,,,,,,,,,,,,,,,,,,,,,,,,,,,,,,,,,,,,,,,,,,,,,,,,,,,,,,,,,,,,,,,,,,,,,,,,,,,,,,,,,,,,,,,,,,,,,,,,,,,,,,,,,,,,,,,,,,,,,,,,,,,,,
,,5eacad39ef271f3206810eeb,2024-02-21_21h51.42.821,kallum_motion_pilot,2023.2.2,Win32,59.88023952,5eacad39ef271f3206810eeb,65d6bb0e977760de756971f7,65d6bd73f35ede804f6f2d1c,0.0832,0.0832,0,61,61,62,1,fourtwo,,,,,,,,,,,,,,,,,,,,,,,,,,,,,,,,,,,,,,,,,,,,,,,,,,,,,,,,,,,,,,,,,,,,,,,,,,,,,,,,,,,,,,,,,,,,,,,,,,,,,,,,,,,,,,,,,,,,,,,,,,,,,,,,,,,,,,,,,
,,5eacad39ef271f3206810eeb,2024-02-21_21h51.42.821,kallum_motion_pilot,2023.2.2,Win32,59.88023952,5eacad39ef271f3206810eeb,65d6bb0e977760de756971f7,65d6bd73f35ede804f6f2d1c,0.0835,0.0835,0,62,62,66,1,twoone,,,,,,,,,,,,,,,,,,,,,,,,,,,,,,,,,,,,,,,,,,,,,,,,,,,,,,,,,,,,,,,,,,,,,,,,,,,,,,,,,,,,,,,,,,,,,,,,,,,,,,,,,,,,,,,,,,,,,,,,,,,,,,,,,,,,,,,,,
,,5eacad39ef271f3206810eeb,2024-02-21_21h51.42.821,kallum_motion_pilot,2023.2.2,Win32,59.88023952,5eacad39ef271f3206810eeb,65d6bb0e977760de756971f7,65d6bd73f35ede804f6f2d1c,0.0838,0.0839,0,63,63,42,1,twoone,,,,,,,,,,,,,,,,,,,,,,,,,,,,,,,,,,,,,,,,,,,,,,,,,,,,,,,,,,,,,,,,,,,,,,,,,,,,,,,,,,,,,,,,,,,,,,,,,,,,,,,,,,,,,,,,,,,,,,,,,,,,,,,,,,,,,,,,,
,,5eacad39ef271f3206810eeb,2024-02-21_21h51.42.821,kallum_motion_pilot,2023.2.2,Win32,59.88023952,5eacad39ef271f3206810eeb,65d6bb0e977760de756971f7,65d6bd73f35ede804f6f2d1c,0.084,0.0842,0,64,64,69,1,threefour,,,,,,,,,,,,,,,,,,,,,,,,,,,,,,,,,,,,,,,,,,,,,,,,,,,,,,,,,,,,,,,,,,,,,,,,,,,,,,,,,,,,,,,,,,,,,,,,,,,,,,,,,,,,,,,,,,,,,,,,,,,,,,,,,,,,,,,,,
,,5eacad39ef271f3206810eeb,2024-02-21_21h51.42.821,kallum_motion_pilot,2023.2.2,Win32,59.88023952,5eacad39ef271f3206810eeb,65d6bb0e977760de756971f7,65d6bd73f35ede804f6f2d1c,0.0844,0.0863,0,65,65,92,1,sevenfive,,,,,,,,,,,,,,,,,,,,,,,,,,,,,,,,,,,,,,,,,,,,,,,,,,,,,,,,,,,,,,,,,,,,,,,,,,,,,,,,,,,,,,,,,,,,,,,,,,,,,,,,,,,,,,,,,,,,,,,,,,,,,,,,,,,,,,,,,
,,5eacad39ef271f3206810eeb,2024-02-21_21h51.42.821,kallum_motion_pilot,2023.2.2,Win32,59.88023952,5eacad39ef271f3206810eeb,65d6bb0e977760de756971f7,65d6bd73f35ede804f6f2d1c,0.0868,0.0869,0,66,66,116,1,sevenfive,,,,,,,,,,,,,,,,,,,,,,,,,,,,,,,,,,,,,,,,,,,,,,,,,,,,,,,,,,,,,,,,,,,,,,,,,,,,,,,,,,,,,,,,,,,,,,,,,,,,,,,,,,,,,,,,,,,,,,,,,,,,,,,,,,,,,,,,,
,,5eacad39ef271f3206810eeb,2024-02-21_21h51.42.821,kallum_motion_pilot,2023.2.2,Win32,59.88023952,5eacad39ef271f3206810eeb,65d6bb0e977760de756971f7,65d6bd73f35ede804f6f2d1c,0.0873,0.0874,0,67,67,75,1,twofour,,,,,,,,,,,,,,,,,,,,,,,,,,,,,,,,,,,,,,,,,,,,,,,,,,,,,,,,,,,,,,,,,,,,,,,,,,,,,,,,,,,,,,,,,,,,,,,,,,,,,,,,,,,,,,,,,,,,,,,,,,,,,,,,,,,,,,,,,
,,5eacad39ef271f3206810eeb,2024-02-21_21h51.42.821,kallum_motion_pilot,2023.2.2,Win32,59.88023952,5eacad39ef271f3206810eeb,65d6bb0e977760de756971f7,65d6bd73f35ede804f6f2d1c,0.0876,0.0877,0,68,68,74,1,twoone,,,,,,,,,,,,,,,,,,,,,,,,,,,,,,,,,,,,,,,,,,,,,,,,,,,,,,,,,,,,,,,,,,,,,,,,,,,,,,,,,,,,,,,,,,,,,,,,,,,,,,,,,,,,,,,,,,,,,,,,,,,,,,,,,,,,,,,,,
,,5eacad39ef271f3206810eeb,2024-02-21_21h51.42.821,kallum_motion_pilot,2023.2.2,Win32,59.88023952,5eacad39ef271f3206810eeb,65d6bb0e977760de756971f7,65d6bd73f35ede804f6f2d1c,0.0878,0.088,0,69,69,16,1,onetwo,,,,,,,,,,,,,,,,,,,,,,,,,,,,,,,,,,,,,,,,,,,,,,,,,,,,,,,,,,,,,,,,,,,,,,,,,,,,,,,,,,,,,,,,,,,,,,,,,,,,,,,,,,,,,,,,,,,,,,,,,,,,,,,,,,,,,,,,,
,,5eacad39ef271f3206810eeb,2024-02-21_21h51.42.821,kallum_motion_pilot,2023.2.2,Win32,59.88023952,5eacad39ef271f3206810eeb,65d6bb0e977760de756971f7,65d6bd73f35ede804f6f2d1c,0.0882,0.0883,0,70,70,18,1,twoone,,,,,,,,,,,,,,,,,,,,,,,,,,,,,,,,,,,,,,,,,,,,,,,,,,,,,,,,,,,,,,,,,,,,,,,,,,,,,,,,,,,,,,,,,,,,,,,,,,,,,,,,,,,,,,,,,,,,,,,,,,,,,,,,,,,,,,,,,
,,5eacad39ef271f3206810eeb,2024-02-21_21h51.42.821,kallum_motion_pilot,2023.2.2,Win32,59.88023952,5eacad39ef271f3206810eeb,65d6bb0e977760de756971f7,65d6bd73f35ede804f6f2d1c,0.0885,0.0886,0,71,71,107,1,sixeight,,,,,,,,,,,,,,,,,,,,,,,,,,,,,,,,,,,,,,,,,,,,,,,,,,,,,,,,,,,,,,,,,,,,,,,,,,,,,,,,,,,,,,,,,,,,,,,,,,,,,,,,,,,,,,,,,,,,,,,,,,,,,,,,,,,,,,,,,
,,5eacad39ef271f3206810eeb,2024-02-21_21h51.42.821,kallum_motion_pilot,2023.2.2,Win32,59.88023952,5eacad39ef271f3206810eeb,65d6bb0e977760de756971f7,65d6bd73f35ede804f6f2d1c,0.0889,0.0889,0,72,72,68,1,threeone,,,,,,,,,,,,,,,,,,,,,,,,,,,,,,,,,,,,,,,,,,,,,,,,,,,,,,,,,,,,,,,,,,,,,,,,,,,,,,,,,,,,,,,,,,,,,,,,,,,,,,,,,,,,,,,,,,,,,,,,,,,,,,,,,,,,,,,,,
,,5eacad39ef271f3206810eeb,2024-02-21_21h51.42.821,kallum_motion_pilot,2023.2.2,Win32,59.88023952,5eacad39ef271f3206810eeb,65d6bb0e977760de756971f7,65d6bd73f35ede804f6f2d1c,0.0893,0.0894,0,73,73,47,1,fourthree,,,,,,,,,,,,,,,,,,,,,,,,,,,,,,,,,,,,,,,,,,,,,,,,,,,,,,,,,,,,,,,,,,,,,,,,,,,,,,,,,,,,,,,,,,,,,,,,,,,,,,,,,,,,,,,,,,,,,,,,,,,,,,,,,,,,,,,,,
,,5eacad39ef271f3206810eeb,2024-02-21_21h51.42.821,kallum_motion_pilot,2023.2.2,Win32,59.88023952,5eacad39ef271f3206810eeb,65d6bb0e977760de756971f7,65d6bd73f35ede804f6f2d1c,0.0897,0.0898,0,74,74,154,1,sixfive,,,,,,,,,,,,,,,,,,,,,,,,,,,,,,,,,,,,,,,,,,,,,,,,,,,,,,,,,,,,,,,,,,,,,,,,,,,,,,,,,,,,,,,,,,,,,,,,,,,,,,,,,,,,,,,,,,,,,,,,,,,,,,,,,,,,,,,,,
,,5eacad39ef271f3206810eeb,2024-02-21_21h51.42.821,kallum_motion_pilot,2023.2.2,Win32,59.88023952,5eacad39ef271f3206810eeb,65d6bb0e977760de756971f7,65d6bd73f35ede804f6f2d1c,0.0899,0.09,0,75,75,35,1,twofour,,,,,,,,,,,,,,,,,,,,,,,,,,,,,,,,,,,,,,,,,,,,,,,,,,,,,,,,,,,,,,,,,,,,,,,,,,,,,,,,,,,,,,,,,,,,,,,,,,,,,,,,,,,,,,,,,,,,,,,,,,,,,,,,,,,,,,,,,
,,5eacad39ef271f3206810eeb,2024-02-21_21h51.42.821,kallum_motion_pilot,2023.2.2,Win32,59.88023952,5eacad39ef271f3206810eeb,65d6bb0e977760de756971f7,65d6bd73f35ede804f6f2d1c,0.0902,0.0904,0,76,76,129,1,fiveseven,,,,,,,,,,,,,,,,,,,,,,,,,,,,,,,,,,,,,,,,,,,,,,,,,,,,,,,,,,,,,,,,,,,,,,,,,,,,,,,,,,,,,,,,,,,,,,,,,,,,,,,,,,,,,,,,,,,,,,,,,,,,,,,,,,,,,,,,,
,,5eacad39ef271f3206810eeb,2024-02-21_21h51.42.821,kallum_motion_pilot,2023.2.2,Win32,59.88023952,5eacad39ef271f3206810eeb,65d6bb0e977760de756971f7,65d6bd73f35ede804f6f2d1c,0.0907,0.0907,0,77,77,29,1,threefour,,,,,,,,,,,,,,,,,,,,,,,,,,,,,,,,,,,,,,,,,,,,,,,,,,,,,,,,,,,,,,,,,,,,,,,,,,,,,,,,,,,,,,,,,,,,,,,,,,,,,,,,,,,,,,,,,,,,,,,,,,,,,,,,,,,,,,,,,
,,5eacad39ef271f3206810eeb,2024-02-21_21h51.42.821,kallum_motion_pilot,2023.2.2,Win32,59.88023952,5eacad39ef271f3206810eeb,65d6bb0e977760de756971f7,65d6bd73f35ede804f6f2d1c,0.0909,0.0911,0,78,78,7,1,fourthree,,,,,,,,,,,,,,,,,,,,,,,,,,,,,,,,,,,,,,,,,,,,,,,,,,,,,,,,,,,,,,,,,,,,,,,,,,,,,,,,,,,,,,,,,,,,,,,,,,,,,,,,,,,,,,,,,,,,,,,,,,,,,,,,,,,,,,,,,
,,5eacad39ef271f3206810eeb,2024-02-21_21h51.42.821,kallum_motion_pilot,2023.2.2,Win32,59.88023952,5eacad39ef271f3206810eeb,65d6bb0e977760de756971f7,65d6bd73f35ede804f6f2d1c,0.0913,0.0914,0,79,79,110,1,eightsix,,,,,,,,,,,,,,,,,,,,,,,,,,,,,,,,,,,,,,,,,,,,,,,,,,,,,,,,,,,,,,,,,,,,,,,,,,,,,,,,,,,,,,,,,,,,,,,,,,,,,,,,,,,,,,,,,,,,,,,,,,,,,,,,,,,,,,,,,
,,5eacad39ef271f3206810eeb,2024-02-21_21h51.42.821,kallum_motion_pilot,2023.2.2,Win32,59.88023952,5eacad39ef271f3206810eeb,65d6bb0e977760de756971f7,65d6bd73f35ede804f6f2d1c,0.0916,0.0917,0,80,80,43,1,twofour,,,,,,,,,,,,,,,,,,,,,,,,,,,,,,,,,,,,,,,,,,,,,,,,,,,,,,,,,,,,,,,,,,,,,,,,,,,,,,,,,,,,,,,,,,,,,,,,,,,,,,,,,,,,,,,,,,,,,,,,,,,,,,,,,,,,,,,,,
,,5eacad39ef271f3206810eeb,2024-02-21_21h51.42.821,kallum_motion_pilot,2023.2.2,Win32,59.88023952,5eacad39ef271f3206810eeb,65d6bb0e977760de756971f7,65d6bd73f35ede804f6f2d1c,0.0919,0.0921,0,81,81,161,1,fiveseven,,,,,,,,,,,,,,,,,,,,,,,,,,,,,,,,,,,,,,,,,,,,,,,,,,,,,,,,,,,,,,,,,,,,,,,,,,,,,,,,,,,,,,,,,,,,,,,,,,,,,,,,,,,,,,,,,,,,,,,,,,,,,,,,,,,,,,,,,
,,5eacad39ef271f3206810eeb,2024-02-21_21h51.42.821,kallum_motion_pilot,2023.2.2,Win32,59.88023952,5eacad39ef271f3206810eeb,65d6bb0e977760de756971f7,65d6bd73f35ede804f6f2d1c,0.0923,0.0924,0,82,82,17,1,onethree,,,,,,,,,,,,,,,,,,,,,,,,,,,,,,,,,,,,,,,,,,,,,,,,,,,,,,,,,,,,,,,,,,,,,,,,,,,,,,,,,,,,,,,,,,,,,,,,,,,,,,,,,,,,,,,,,,,,,,,,,,,,,,,,,,,,,,,,,
,,5eacad39ef271f3206810eeb,2024-02-21_21h51.42.821,kallum_motion_pilot,2023.2.2,Win32,59.88023952,5eacad39ef271f3206810eeb,65d6bb0e977760de756971f7,65d6bd73f35ede804f6f2d1c,0.0928,0.0929,0,83,83,80,1,fivesix,,,,,,,,,,,,,,,,,,,,,,,,,,,,,,,,,,,,,,,,,,,,,,,,,,,,,,,,,,,,,,,,,,,,,,,,,,,,,,,,,,,,,,,,,,,,,,,,,,,,,,,,,,,,,,,,,,,,,,,,,,,,,,,,,,,,,,,,,
,,5eacad39ef271f3206810eeb,2024-02-21_21h51.42.821,kallum_motion_pilot,2023.2.2,Win32,59.88023952,5eacad39ef271f3206810eeb,65d6bb0e977760de756971f7,65d6bd73f35ede804f6f2d1c,0.0932,0.0933,0,84,84,160,1,fivesix,,,,,,,,,,,,,,,,,,,,,,,,,,,,,,,,,,,,,,,,,,,,,,,,,,,,,,,,,,,,,,,,,,,,,,,,,,,,,,,,,,,,,,,,,,,,,,,,,,,,,,,,,,,,,,,,,,,,,,,,,,,,,,,,,,,,,,,,,
,,5eacad39ef271f3206810eeb,2024-02-21_21h51.42.821,kallum_motion_pilot,2023.2.2,Win32,59.88023952,5eacad39ef271f3206810eeb,65d6bb0e977760de756971f7,65d6bd73f35ede804f6f2d1c,0.0936,0.0937,0,85,85,122,1,sixfive,,,,,,,,,,,,,,,,,,,,,,,,,,,,,,,,,,,,,,,,,,,,,,,,,,,,,,,,,,,,,,,,,,,,,,,,,,,,,,,,,,,,,,,,,,,,,,,,,,,,,,,,,,,,,,,,,,,,,,,,,,,,,,,,,,,,,,,,,
,,5eacad39ef271f3206810eeb,2024-02-21_21h51.42.821,kallum_motion_pilot,2023.2.2,Win32,59.88023952,5eacad39ef271f3206810eeb,65d6bb0e977760de756971f7,65d6bd73f35ede804f6f2d1c,0.0939,0.0942,0,86,86,85,1,seveneight,,,,,,,,,,,,,,,,,,,,,,,,,,,,,,,,,,,,,,,,,,,,,,,,,,,,,,,,,,,,,,,,,,,,,,,,,,,,,,,,,,,,,,,,,,,,,,,,,,,,,,,,,,,,,,,,,,,,,,,,,,,,,,,,,,,,,,,,,
,,5eacad39ef271f3206810eeb,2024-02-21_21h51.42.821,kallum_motion_pilot,2023.2.2,Win32,59.88023952,5eacad39ef271f3206810eeb,65d6bb0e977760de756971f7,65d6bd73f35ede804f6f2d1c,0.0944,0.0945,0,87,87,142,1,eightsix,,,,,,,,,,,,,,,,,,,,,,,,,,,,,,,,,,,,,,,,,,,,,,,,,,,,,,,,,,,,,,,,,,,,,,,,,,,,,,,,,,,,,,,,,,,,,,,,,,,,,,,,,,,,,,,,,,,,,,,,,,,,,,,,,,,,,,,,,
,,5eacad39ef271f3206810eeb,2024-02-21_21h51.42.821,kallum_motion_pilot,2023.2.2,Win32,59.88023952,5eacad39ef271f3206810eeb,65d6bb0e977760de756971f7,65d6bd73f35ede804f6f2d1c,0.0949,0.0949,0,88,88,70,1,fourtwo,,,,,,,,,,,,,,,,,,,,,,,,,,,,,,,,,,,,,,,,,,,,,,,,,,,,,,,,,,,,,,,,,,,,,,,,,,,,,,,,,,,,,,,,,,,,,,,,,,,,,,,,,,,,,,,,,,,,,,,,,,,,,,,,,,,,,,,,,
,,5eacad39ef271f3206810eeb,2024-02-21_21h51.42.821,kallum_motion_pilot,2023.2.2,Win32,59.88023952,5eacad39ef271f3206810eeb,65d6bb0e977760de756971f7,65d6bd73f35ede804f6f2d1c,0.0953,0.0954,0,89,89,96,1,fivesix,,,,,,,,,,,,,,,,,,,,,,,,,,,,,,,,,,,,,,,,,,,,,,,,,,,,,,,,,,,,,,,,,,,,,,,,,,,,,,,,,,,,,,,,,,,,,,,,,,,,,,,,,,,,,,,,,,,,,,,,,,,,,,,,,,,,,,,,,
,,5eacad39ef271f3206810eeb,2024-02-21_21h51.42.821,kallum_motion_pilot,2023.2.2,Win32,59.88023952,5eacad39ef271f3206810eeb,65d6bb0e977760de756971f7,65d6bd73f35ede804f6f2d1c,0.0956,0.0958,0,90,90,19,1,twofour,,,,,,,,,,,,,,,,,,,,,,,,,,,,,,,,,,,,,,,,,,,,,,,,,,,,,,,,,,,,,,,,,,,,,,,,,,,,,,,,,,,,,,,,,,,,,,,,,,,,,,,,,,,,,,,,,,,,,,,,,,,,,,,,,,,,,,,,,
,,5eacad39ef271f3206810eeb,2024-02-21_21h51.42.821,kallum_motion_pilot,2023.2.2,Win32,59.88023952,5eacad39ef271f3206810eeb,65d6bb0e977760de756971f7,65d6bd73f35ede804f6f2d1c,0.096,0.0962,0,91,91,157,1,seveneight,,,,,,,,,,,,,,,,,,,,,,,,,,,,,,,,,,,,,,,,,,,,,,,,,,,,,,,,,,,,,,,,,,,,,,,,,,,,,,,,,,,,,,,,,,,,,,,,,,,,,,,,,,,,,,,,,,,,,,,,,,,,,,,,,,,,,,,,,
,,5eacad39ef271f3206810eeb,2024-02-21_21h51.42.821,kallum_motion_pilot,2023.2.2,Win32,59.88023952,5eacad39ef271f3206810eeb,65d6bb0e977760de756971f7,65d6bd73f35ede804f6f2d1c,0.0964,0.0965,0,92,92,147,1,sixeight,,,,,,,,,,,,,,,,,,,,,,,,,,,,,,,,,,,,,,,,,,,,,,,,,,,,,,,,,,,,,,,,,,,,,,,,,,,,,,,,,,,,,,,,,,,,,,,,,,,,,,,,,,,,,,,,,,,,,,,,,,,,,,,,,,,,,,,,,
,,5eacad39ef271f3206810eeb,2024-02-21_21h51.42.821,kallum_motion_pilot,2023.2.2,Win32,59.88023952,5eacad39ef271f3206810eeb,65d6bb0e977760de756971f7,65d6bd73f35ede804f6f2d1c,0.0969,0.097,0,93,93,55,1,fourthree,,,,,,,,,,,,,,,,,,,,,,,,,,,,,,,,,,,,,,,,,,,,,,,,,,,,,,,,,,,,,,,,,,,,,,,,,,,,,,,,,,,,,,,,,,,,,,,,,,,,,,,,,,,,,,,,,,,,,,,,,,,,,,,,,,,,,,,,,
,,5eacad39ef271f3206810eeb,2024-02-21_21h51.42.821,kallum_motion_pilot,2023.2.2,Win32,59.88023952,5eacad39ef271f3206810eeb,65d6bb0e977760de756971f7,65d6bd73f35ede804f6f2d1c,0.0973,0.0975,0,94,94,22,1,fourtwo,,,,,,,,,,,,,,,,,,,,,,,,,,,,,,,,,,,,,,,,,,,,,,,,,,,,,,,,,,,,,,,,,,,,,,,,,,,,,,,,,,,,,,,,,,,,,,,,,,,,,,,,,,,,,,,,,,,,,,,,,,,,,,,,,,,,,,,,,
,,5eacad39ef271f3206810eeb,2024-02-21_21h51.42.821,kallum_motion_pilot,2023.2.2,Win32,59.88023952,5eacad39ef271f3206810eeb,65d6bb0e977760de756971f7,65d6bd73f35ede804f6f2d1c,0.0979,0.098,0,95,95,127,1,eightseven,,,,,,,,,,,,,,,,,,,,,,,,,,,,,,,,,,,,,,,,,,,,,,,,,,,,,,,,,,,,,,,,,,,,,,,,,,,,,,,,,,,,,,,,,,,,,,,,,,,,,,,,,,,,,,,,,,,,,,,,,,,,,,,,,,,,,,,,,
,,5eacad39ef271f3206810eeb,2024-02-21_21h51.42.821,kallum_motion_pilot,2023.2.2,Win32,59.88023952,5eacad39ef271f3206810eeb,65d6bb0e977760de756971f7,65d6bd73f35ede804f6f2d1c,0.0983,0.0984,0,96,96,6,1,fourtwo,,,,,,,,,,,,,,,,,,,,,,,,,,,,,,,,,,,,,,,,,,,,,,,,,,,,,,,,,,,,,,,,,,,,,,,,,,,,,,,,,,,,,,,,,,,,,,,,,,,,,,,,,,,,,,,,,,,,,,,,,,,,,,,,,,,,,,,,,
,,5eacad39ef271f3206810eeb,2024-02-21_21h51.42.821,kallum_motion_pilot,2023.2.2,Win32,59.88023952,5eacad39ef271f3206810eeb,65d6bb0e977760de756971f7,65d6bd73f35ede804f6f2d1c,0.0987,0.0988,0,97,97,86,1,eightsix,,,,,,,,,,,,,,,,,,,,,,,,,,,,,,,,,,,,,,,,,,,,,,,,,,,,,,,,,,,,,,,,,,,,,,,,,,,,,,,,,,,,,,,,,,,,,,,,,,,,,,,,,,,,,,,,,,,,,,,,,,,,,,,,,,,,,,,,,
,,5eacad39ef271f3206810eeb,2024-02-21_21h51.42.821,kallum_motion_pilot,2023.2.2,Win32,59.88023952,5eacad39ef271f3206810eeb,65d6bb0e977760de756971f7,65d6bd73f35ede804f6f2d1c,0.0991,0.0991,0,98,98,59,1,twofour,,,,,,,,,,,,,,,,,,,,,,,,,,,,,,,,,,,,,,,,,,,,,,,,,,,,,,,,,,,,,,,,,,,,,,,,,,,,,,,,,,,,,,,,,,,,,,,,,,,,,,,,,,,,,,,,,,,,,,,,,,,,,,,,,,,,,,,,,
,,5eacad39ef271f3206810eeb,2024-02-21_21h51.42.821,kallum_motion_pilot,2023.2.2,Win32,59.88023952,5eacad39ef271f3206810eeb,65d6bb0e977760de756971f7,65d6bd73f35ede804f6f2d1c,0.0994,0.0995,0,99,99,159,1,eightseven,,,,,,,,,,,,,,,,,,,,,,,,,,,,,,,,,,,,,,,,,,,,,,,,,,,,,,,,,,,,,,,,,,,,,,,,,,,,,,,,,,,,,,,,,,,,,,,,,,,,,,,,,,,,,,,,,,,,,,,,,,,,,,,,,,,,,,,,,
,,5eacad39ef271f3206810eeb,2024-02-21_21h51.42.821,kallum_motion_pilot,2023.2.2,Win32,59.88023952,5eacad39ef271f3206810eeb,65d6bb0e977760de756971f7,65d6bd73f35ede804f6f2d1c,0.0997,0.0998,0,100,100,135,1,eightseven,,,,,,,,,,,,,,,,,,,,,,,,,,,,,,,,,,,,,,,,,,,,,,,,,,,,,,,,,,,,,,,,,,,,,,,,,,,,,,,,,,,,,,,,,,,,,,,,,,,,,,,,,,,,,,,,,,,,,,,,,,,,,,,,,,,,,,,,,
,,5eacad39ef271f3206810eeb,2024-02-21_21h51.42.821,kallum_motion_pilot,2023.2.2,Win32,59.88023952,5eacad39ef271f3206810eeb,65d6bb0e977760de756971f7,65d6bd73f35ede804f6f2d1c,0.1001,0.1002,0,101,101,9,1,onethree,,,,,,,,,,,,,,,,,,,,,,,,,,,,,,,,,,,,,,,,,,,,,,,,,,,,,,,,,,,,,,,,,,,,,,,,,,,,,,,,,,,,,,,,,,,,,,,,,,,,,,,,,,,,,,,,,,,,,,,,,,,,,,,,,,,,,,,,,
,,5eacad39ef271f3206810eeb,2024-02-21_21h51.42.821,kallum_motion_pilot,2023.2.2,Win32,59.88023952,5eacad39ef271f3206810eeb,65d6bb0e977760de756971f7,65d6bd73f35ede804f6f2d1c,0.1004,0.1006,0,102,102,128,1,fivesix,,,,,,,,,,,,,,,,,,,,,,,,,,,,,,,,,,,,,,,,,,,,,,,,,,,,,,,,,,,,,,,,,,,,,,,,,,,,,,,,,,,,,,,,,,,,,,,,,,,,,,,,,,,,,,,,,,,,,,,,,,,,,,,,,,,,,,,,,
,,5eacad39ef271f3206810eeb,2024-02-21_21h51.42.821,kallum_motion_pilot,2023.2.2,Win32,59.88023952,5eacad39ef271f3206810eeb,65d6bb0e977760de756971f7,65d6bd73f35ede804f6f2d1c,0.1008,0.101,0,103,103,108,1,sevenfive,,,,,,,,,,,,,,,,,,,,,,,,,,,,,,,,,,,,,,,,,,,,,,,,,,,,,,,,,,,,,,,,,,,,,,,,,,,,,,,,,,,,,,,,,,,,,,,,,,,,,,,,,,,,,,,,,,,,,,,,,,,,,,,,,,,,,,,,,
,,5eacad39ef271f3206810eeb,2024-02-21_21h51.42.821,kallum_motion_pilot,2023.2.2,Win32,59.88023952,5eacad39ef271f3206810eeb,65d6bb0e977760de756971f7,65d6bd73f35ede804f6f2d1c,0.1011,0.1013,0,104,104,73,1,onethree,,,,,,,,,,,,,,,,,,,,,,,,,,,,,,,,,,,,,,,,,,,,,,,,,,,,,,,,,,,,,,,,,,,,,,,,,,,,,,,,,,,,,,,,,,,,,,,,,,,,,,,,,,,,,,,,,,,,,,,,,,,,,,,,,,,,,,,,,
,,5eacad39ef271f3206810eeb,2024-02-21_21h51.42.821,kallum_motion_pilot,2023.2.2,Win32,59.88023952,5eacad39ef271f3206810eeb,65d6bb0e977760de756971f7,65d6bd73f35ede804f6f2d1c,0.1015,0.1017,0,105,105,56,1,onetwo,,,,,,,,,,,,,,,,,,,,,,,,,,,,,,,,,,,,,,,,,,,,,,,,,,,,,,,,,,,,,,,,,,,,,,,,,,,,,,,,,,,,,,,,,,,,,,,,,,,,,,,,,,,,,,,,,,,,,,,,,,,,,,,,,,,,,,,,,
,,5eacad39ef271f3206810eeb,2024-02-21_21h51.42.821,kallum_motion_pilot,2023.2.2,Win32,59.88023952,5eacad39ef271f3206810eeb,65d6bb0e977760de756971f7,65d6bd73f35ede804f6f2d1c,0.1019,0.102,0,106,106,64,1,onetwo,,,,,,,,,,,,,,,,,,,,,,,,,,,,,,,,,,,,,,,,,,,,,,,,,,,,,,,,,,,,,,,,,,,,,,,,,,,,,,,,,,,,,,,,,,,,,,,,,,,,,,,,,,,,,,,,,,,,,,,,,,,,,,,,,,,,,,,,,
,,5eacad39ef271f3206810eeb,2024-02-21_21h51.42.821,kallum_motion_pilot,2023.2.2,Win32,59.88023952,5eacad39ef271f3206810eeb,65d6bb0e977760de756971f7,65d6bd73f35ede804f6f2d1c,0.1022,0.1024,0,107,107,104,1,fivesix,,,,,,,,,,,,,,,,,,,,,,,,,,,,,,,,,,,,,,,,,,,,,,,,,,,,,,,,,,,,,,,,,,,,,,,,,,,,,,,,,,,,,,,,,,,,,,,,,,,,,,,,,,,,,,,,,,,,,,,,,,,,,,,,,,,,,,,,,
,,5eacad39ef271f3206810eeb,2024-02-21_21h51.42.821,kallum_motion_pilot,2023.2.2,Win32,59.88023952,5eacad39ef271f3206810eeb,65d6bb0e977760de756971f7,65d6bd73f35ede804f6f2d1c,0.1026,0.1043,0,108,108,106,1,sixfive,,,,,,,,,,,,,,,,,,,,,,,,,,,,,,,,,,,,,,,,,,,,,,,,,,,,,,,,,,,,,,,,,,,,,,,,,,,,,,,,,,,,,,,,,,,,,,,,,,,,,,,,,,,,,,,,,,,,,,,,,,,,,,,,,,,,,,,,,
,,5eacad39ef271f3206810eeb,2024-02-21_21h51.42.821,kallum_motion_pilot,2023.2.2,Win32,59.88023952,5eacad39ef271f3206810eeb,65d6bb0e977760de756971f7,65d6bd73f35ede804f6f2d1c,0.1048,0.1049,0,109,109,49,1,onethree,,,,,,,,,,,,,,,,,,,,,,,,,,,,,,,,,,,,,,,,,,,,,,,,,,,,,,,,,,,,,,,,,,,,,,,,,,,,,,,,,,,,,,,,,,,,,,,,,,,,,,,,,,,,,,,,,,,,,,,,,,,,,,,,,,,,,,,,,
,,5eacad39ef271f3206810eeb,2024-02-21_21h51.42.821,kallum_motion_pilot,2023.2.2,Win32,59.88023952,5eacad39ef271f3206810eeb,65d6bb0e977760de756971f7,65d6bd73f35ede804f6f2d1c,0.1052,0.1053,0,110,110,58,1,twoone,,,,,,,,,,,,,,,,,,,,,,,,,,,,,,,,,,,,,,,,,,,,,,,,,,,,,,,,,,,,,,,,,,,,,,,,,,,,,,,,,,,,,,,,,,,,,,,,,,,,,,,,,,,,,,,,,,,,,,,,,,,,,,,,,,,,,,,,,
,,5eacad39ef271f3206810eeb,2024-02-21_21h51.42.821,kallum_motion_pilot,2023.2.2,Win32,59.88023952,5eacad39ef271f3206810eeb,65d6bb0e977760de756971f7,65d6bd73f35ede804f6f2d1c,0.1056,0.1057,0,111,111,126,1,eightsix,,,,,,,,,,,,,,,,,,,,,,,,,,,,,,,,,,,,,,,,,,,,,,,,,,,,,,,,,,,,,,,,,,,,,,,,,,,,,,,,,,,,,,,,,,,,,,,,,,,,,,,,,,,,,,,,,,,,,,,,,,,,,,,,,,,,,,,,,
,,5eacad39ef271f3206810eeb,2024-02-21_21h51.42.821,kallum_motion_pilot,2023.2.2,Win32,59.88023952,5eacad39ef271f3206810eeb,65d6bb0e977760de756971f7,65d6bd73f35ede804f6f2d1c,0.1059,0.1061,0,112,112,24,1,onetwo,,,,,,,,,,,,,,,,,,,,,,,,,,,,,,,,,,,,,,,,,,,,,,,,,,,,,,,,,,,,,,,,,,,,,,,,,,,,,,,,,,,,,,,,,,,,,,,,,,,,,,,,,,,,,,,,,,,,,,,,,,,,,,,,,,,,,,,,,
,,5eacad39ef271f3206810eeb,2024-02-21_21h51.42.821,kallum_motion_pilot,2023.2.2,Win32,59.88023952,5eacad39ef271f3206810eeb,65d6bb0e977760de756971f7,65d6bd73f35ede804f6f2d1c,0.1063,0.1064,0,113,113,57,1,onethree,,,,,,,,,,,,,,,,,,,,,,,,,,,,,,,,,,,,,,,,,,,,,,,,,,,,,,,,,,,,,,,,,,,,,,,,,,,,,,,,,,,,,,,,,,,,,,,,,,,,,,,,,,,,,,,,,,,,,,,,,,,,,,,,,,,,,,,,,
,,5eacad39ef271f3206810eeb,2024-02-21_21h51.42.821,kallum_motion_pilot,2023.2.2,Win32,59.88023952,5eacad39ef271f3206810eeb,65d6bb0e977760de756971f7,65d6bd73f35ede804f6f2d1c,0.1066,0.1068,0,114,114,81,1,fiveseven,,,,,,,,,,,,,,,,,,,,,,,,,,,,,,,,,,,,,,,,,,,,,,,,,,,,,,,,,,,,,,,,,,,,,,,,,,,,,,,,,,,,,,,,,,,,,,,,,,,,,,,,,,,,,,,,,,,,,,,,,,,,,,,,,,,,,,,,,
,,5eacad39ef271f3206810eeb,2024-02-21_21h51.42.821,kallum_motion_pilot,2023.2.2,Win32,59.88023952,5eacad39ef271f3206810eeb,65d6bb0e977760de756971f7,65d6bd73f35ede804f6f2d1c,0.107,0.1072,0,115,115,90,1,sixfive,,,,,,,,,,,,,,,,,,,,,,,,,,,,,,,,,,,,,,,,,,,,,,,,,,,,,,,,,,,,,,,,,,,,,,,,,,,,,,,,,,,,,,,,,,,,,,,,,,,,,,,,,,,,,,,,,,,,,,,,,,,,,,,,,,,,,,,,,
,,5eacad39ef271f3206810eeb,2024-02-21_21h51.42.821,kallum_motion_pilot,2023.2.2,Win32,59.88023952,5eacad39ef271f3206810eeb,65d6bb0e977760de756971f7,65d6bd73f35ede804f6f2d1c,0.1073,0.1075,0,116,116,140,1,sevenfive,,,,,,,,,,,,,,,,,,,,,,,,,,,,,,,,,,,,,,,,,,,,,,,,,,,,,,,,,,,,,,,,,,,,,,,,,,,,,,,,,,,,,,,,,,,,,,,,,,,,,,,,,,,,,,,,,,,,,,,,,,,,,,,,,,,,,,,,,
,,5eacad39ef271f3206810eeb,2024-02-21_21h51.42.821,kallum_motion_pilot,2023.2.2,Win32,59.88023952,5eacad39ef271f3206810eeb,65d6bb0e977760de756971f7,65d6bd73f35ede804f6f2d1c,0.1077,0.1079,0,117,117,13,1,threefour,,,,,,,,,,,,,,,,,,,,,,,,,,,,,,,,,,,,,,,,,,,,,,,,,,,,,,,,,,,,,,,,,,,,,,,,,,,,,,,,,,,,,,,,,,,,,,,,,,,,,,,,,,,,,,,,,,,,,,,,,,,,,,,,,,,,,,,,,
,,5eacad39ef271f3206810eeb,2024-02-21_21h51.42.821,kallum_motion_pilot,2023.2.2,Win32,59.88023952,5eacad39ef271f3206810eeb,65d6bb0e977760de756971f7,65d6bd73f35ede804f6f2d1c,0.1081,0.1082,0,118,118,138,1,sixfive,,,,,,,,,,,,,,,,,,,,,,,,,,,,,,,,,,,,,,,,,,,,,,,,,,,,,,,,,,,,,,,,,,,,,,,,,,,,,,,,,,,,,,,,,,,,,,,,,,,,,,,,,,,,,,,,,,,,,,,,,,,,,,,,,,,,,,,,,
,,5eacad39ef271f3206810eeb,2024-02-21_21h51.42.821,kallum_motion_pilot,2023.2.2,Win32,59.88023952,5eacad39ef271f3206810eeb,65d6bb0e977760de756971f7,65d6bd73f35ede804f6f2d1c,0.1085,0.1086,0,119,119,15,1,fourthree,,,,,,,,,,,,,,,,,,,,,,,,,,,,,,,,,,,,,,,,,,,,,,,,,,,,,,,,,,,,,,,,,,,,,,,,,,,,,,,,,,,,,,,,,,,,,,,,,,,,,,,,,,,,,,,,,,,,,,,,,,,,,,,,,,,,,,,,,
,,5eacad39ef271f3206810eeb,2024-02-21_21h51.42.821,kallum_motion_pilot,2023.2.2,Win32,59.88023952,5eacad39ef271f3206810eeb,65d6bb0e977760de756971f7,65d6bd73f35ede804f6f2d1c,0.1088,0.109,0,120,120,88,1,fivesix,,,,,,,,,,,,,,,,,,,,,,,,,,,,,,,,,,,,,,,,,,,,,,,,,,,,,,,,,,,,,,,,,,,,,,,,,,,,,,,,,,,,,,,,,,,,,,,,,,,,,,,,,,,,,,,,,,,,,,,,,,,,,,,,,,,,,,,,,
,,5eacad39ef271f3206810eeb,2024-02-21_21h51.42.821,kallum_motion_pilot,2023.2.2,Win32,59.88023952,5eacad39ef271f3206810eeb,65d6bb0e977760de756971f7,65d6bd73f35ede804f6f2d1c,0.1093,0.1094,0,121,121,113,1,fiveseven,,,,,,,,,,,,,,,,,,,,,,,,,,,,,,,,,,,,,,,,,,,,,,,,,,,,,,,,,,,,,,,,,,,,,,,,,,,,,,,,,,,,,,,,,,,,,,,,,,,,,,,,,,,,,,,,,,,,,,,,,,,,,,,,,,,,,,,,,
,,5eacad39ef271f3206810eeb,2024-02-21_21h51.42.821,kallum_motion_pilot,2023.2.2,Win32,59.88023952,5eacad39ef271f3206810eeb,65d6bb0e977760de756971f7,65d6bd73f35ede804f6f2d1c,0.1096,0.1097,0,122,122,71,1,fourthree,,,,,,,,,,,,,,,,,,,,,,,,,,,,,,,,,,,,,,,,,,,,,,,,,,,,,,,,,,,,,,,,,,,,,,,,,,,,,,,,,,,,,,,,,,,,,,,,,,,,,,,,,,,,,,,,,,,,,,,,,,,,,,,,,,,,,,,,,
,,5eacad39ef271f3206810eeb,2024-02-21_21h51.42.821,kallum_motion_pilot,2023.2.2,Win32,59.88023952,5eacad39ef271f3206810eeb,65d6bb0e977760de756971f7,65d6bd73f35ede804f6f2d1c,0.11,0.1101,0,123,123,10,1,twoone,,,,,,,,,,,,,,,,,,,,,,,,,,,,,,,,,,,,,,,,,,,,,,,,,,,,,,,,,,,,,,,,,,,,,,,,,,,,,,,,,,,,,,,,,,,,,,,,,,,,,,,,,,,,,,,,,,,,,,,,,,,,,,,,,,,,,,,,,
,,5eacad39ef271f3206810eeb,2024-02-21_21h51.42.821,kallum_motion_pilot,2023.2.2,Win32,59.88023952,5eacad39ef271f3206810eeb,65d6bb0e977760de756971f7,65d6bd73f35ede804f6f2d1c,0.1104,0.1106,0,124,124,12,1,threeone,,,,,,,,,,,,,,,,,,,,,,,,,,,,,,,,,,,,,,,,,,,,,,,,,,,,,,,,,,,,,,,,,,,,,,,,,,,,,,,,,,,,,,,,,,,,,,,,,,,,,,,,,,,,,,,,,,,,,,,,,,,,,,,,,,,,,,,,,
,,5eacad39ef271f3206810eeb,2024-02-21_21h51.42.821,kallum_motion_pilot,2023.2.2,Win32,59.88023952,5eacad39ef271f3206810eeb,65d6bb0e977760de756971f7,65d6bd73f35ede804f6f2d1c,0.1108,0.111,0,125,125,143,1,eightseven,,,,,,,,,,,,,,,,,,,,,,,,,,,,,,,,,,,,,,,,,,,,,,,,,,,,,,,,,,,,,,,,,,,,,,,,,,,,,,,,,,,,,,,,,,,,,,,,,,,,,,,,,,,,,,,,,,,,,,,,,,,,,,,,,,,,,,,,,
,,5eacad39ef271f3206810eeb,2024-02-21_21h51.42.821,kallum_motion_pilot,2023.2.2,Win32,59.88023952,5eacad39ef271f3206810eeb,65d6bb0e977760de756971f7,65d6bd73f35ede804f6f2d1c,0.1113,0.1114,0,126,126,78,1,fourtwo,,,,,,,,,,,,,,,,,,,,,,,,,,,,,,,,,,,,,,,,,,,,,,,,,,,,,,,,,,,,,,,,,,,,,,,,,,,,,,,,,,,,,,,,,,,,,,,,,,,,,,,,,,,,,,,,,,,,,,,,,,,,,,,,,,,,,,,,,
,,5eacad39ef271f3206810eeb,2024-02-21_21h51.42.821,kallum_motion_pilot,2023.2.2,Win32,59.88023952,5eacad39ef271f3206810eeb,65d6bb0e977760de756971f7,65d6bd73f35ede804f6f2d1c,0.1117,0.1118,0,127,127,151,1,eightseven,,,,,,,,,,,,,,,,,,,,,,,,,,,,,,,,,,,,,,,,,,,,,,,,,,,,,,,,,,,,,,,,,,,,,,,,,,,,,,,,,,,,,,,,,,,,,,,,,,,,,,,,,,,,,,,,,,,,,,,,,,,,,,,,,,,,,,,,,
,,5eacad39ef271f3206810eeb,2024-02-21_21h51.42.821,kallum_motion_pilot,2023.2.2,Win32,59.88023952,5eacad39ef271f3206810eeb,65d6bb0e977760de756971f7,65d6bd73f35ede804f6f2d1c,0.112,0.1122,0,128,128,3,1,twofour,,,,,,,,,,,,,,,,,,,,,,,,,,,,,,,,,,,,,,,,,,,,,,,,,,,,,,,,,,,,,,,,,,,,,,,,,,,,,,,,,,,,,,,,,,,,,,,,,,,,,,,,,,,,,,,,,,,,,,,,,,,,,,,,,,,,,,,,,
,,5eacad39ef271f3206810eeb,2024-02-21_21h51.42.821,kallum_motion_pilot,2023.2.2,Win32,59.88023952,5eacad39ef271f3206810eeb,65d6bb0e977760de756971f7,65d6bd73f35ede804f6f2d1c,0.1123,0.1125,0,129,129,63,1,fourthree,,,,,,,,,,,,,,,,,,,,,,,,,,,,,,,,,,,,,,,,,,,,,,,,,,,,,,,,,,,,,,,,,,,,,,,,,,,,,,,,,,,,,,,,,,,,,,,,,,,,,,,,,,,,,,,,,,,,,,,,,,,,,,,,,,,,,,,,,
,,5eacad39ef271f3206810eeb,2024-02-21_21h51.42.821,kallum_motion_pilot,2023.2.2,Win32,59.88023952,5eacad39ef271f3206810eeb,65d6bb0e977760de756971f7,65d6bd73f35ede804f6f2d1c,0.1127,0.1129,0,130,130,148,1,sevenfive,,,,,,,,,,,,,,,,,,,,,,,,,,,,,,,,,,,,,,,,,,,,,,,,,,,,,,,,,,,,,,,,,,,,,,,,,,,,,,,,,,,,,,,,,,,,,,,,,,,,,,,,,,,,,,,,,,,,,,,,,,,,,,,,,,,,,,,,,
,,5eacad39ef271f3206810eeb,2024-02-21_21h51.42.821,kallum_motion_pilot,2023.2.2,Win32,59.88023952,5eacad39ef271f3206810eeb,65d6bb0e977760de756971f7,65d6bd73f35ede804f6f2d1c,0.1131,0.1132,0,131,131,76,1,threeone,,,,,,,,,,,,,,,,,,,,,,,,,,,,,,,,,,,,,,,,,,,,,,,,,,,,,,,,,,,,,,,,,,,,,,,,,,,,,,,,,,,,,,,,,,,,,,,,,,,,,,,,,,,,,,,,,,,,,,,,,,,,,,,,,,,,,,,,,
,,5eacad39ef271f3206810eeb,2024-02-21_21h51.42.821,kallum_motion_pilot,2023.2.2,Win32,59.88023952,5eacad39ef271f3206810eeb,65d6bb0e977760de756971f7,65d6bd73f35ede804f6f2d1c,0.1134,0.1136,0,132,132,39,1,fourthree,,,,,,,,,,,,,,,,,,,,,,,,,,,,,,,,,,,,,,,,,,,,,,,,,,,,,,,,,,,,,,,,,,,,,,,,,,,,,,,,,,,,,,,,,,,,,,,,,,,,,,,,,,,,,,,,,,,,,,,,,,,,,,,,,,,,,,,,,
,,5eacad39ef271f3206810eeb,2024-02-21_21h51.42.821,kallum_motion_pilot,2023.2.2,Win32,59.88023952,5eacad39ef271f3206810eeb,65d6bb0e977760de756971f7,65d6bd73f35ede804f6f2d1c,0.1138,0.114,0,133,133,91,1,sixeight,,,,,,,,,,,,,,,,,,,,,,,,,,,,,,,,,,,,,,,,,,,,,,,,,,,,,,,,,,,,,,,,,,,,,,,,,,,,,,,,,,,,,,,,,,,,,,,,,,,,,,,,,,,,,,,,,,,,,,,,,,,,,,,,,,,,,,,,,
,,5eacad39ef271f3206810eeb,2024-02-21_21h51.42.821,kallum_motion_pilot,2023.2.2,Win32,59.88023952,5eacad39ef271f3206810eeb,65d6bb0e977760de756971f7,65d6bd73f35ede804f6f2d1c,0.1142,0.1146,0,134,134,131,1,sixeight,,,,,,,,,,,,,,,,,,,,,,,,,,,,,,,,,,,,,,,,,,,,,,,,,,,,,,,,,,,,,,,,,,,,,,,,,,,,,,,,,,,,,,,,,,,,,,,,,,,,,,,,,,,,,,,,,,,,,,,,,,,,,,,,,,,,,,,,,
,,5eacad39ef271f3206810eeb,2024-02-21_21h51.42.821,kallum_motion_pilot,2023.2.2,Win32,59.88023952,5eacad39ef271f3206810eeb,65d6bb0e977760de756971f7,65d6bd73f35ede804f6f2d1c,0.1149,0.115,0,135,135,149,1,seveneight,,,,,,,,,,,,,,,,,,,,,,,,,,,,,,,,,,,,,,,,,,,,,,,,,,,,,,,,,,,,,,,,,,,,,,,,,,,,,,,,,,,,,,,,,,,,,,,,,,,,,,,,,,,,,,,,,,,,,,,,,,,,,,,,,,,,,,,,,
,,5eacad39ef271f3206810eeb,2024-02-21_21h51.42.821,kallum_motion_pilot,2023.2.2,Win32,59.88023952,5eacad39ef271f3206810eeb,65d6bb0e977760de756971f7,65d6bd73f35ede804f6f2d1c,0.1153,0.1154,0,136,136,27,1,twofour,,,,,,,,,,,,,,,,,,,,,,,,,,,,,,,,,,,,,,,,,,,,,,,,,,,,,,,,,,,,,,,,,,,,,,,,,,,,,,,,,,,,,,,,,,,,,,,,,,,,,,,,,,,,,,,,,,,,,,,,,,,,,,,,,,,,,,,,,
,,5eacad39ef271f3206810eeb,2024-02-21_21h51.42.821,kallum_motion_pilot,2023.2.2,Win32,59.88023952,5eacad39ef271f3206810eeb,65d6bb0e977760de756971f7,65d6bd73f35ede804f6f2d1c,0.1156,0.1157,0,137,137,38,1,fourtwo,,,,,,,,,,,,,,,,,,,,,,,,,,,,,,,,,,,,,,,,,,,,,,,,,,,,,,,,,,,,,,,,,,,,,,,,,,,,,,,,,,,,,,,,,,,,,,,,,,,,,,,,,,,,,,,,,,,,,,,,,,,,,,,,,,,,,,,,,
,,5eacad39ef271f3206810eeb,2024-02-21_21h51.42.821,kallum_motion_pilot,2023.2.2,Win32,59.88023952,5eacad39ef271f3206810eeb,65d6bb0e977760de756971f7,65d6bd73f35ede804f6f2d1c,0.1159,0.1161,0,138,138,11,1,twofour,,,,,,,,,,,,,,,,,,,,,,,,,,,,,,,,,,,,,,,,,,,,,,,,,,,,,,,,,,,,,,,,,,,,,,,,,,,,,,,,,,,,,,,,,,,,,,,,,,,,,,,,,,,,,,,,,,,,,,,,,,,,,,,,,,,,,,,,,
,,5eacad39ef271f3206810eeb,2024-02-21_21h51.42.821,kallum_motion_pilot,2023.2.2,Win32,59.88023952,5eacad39ef271f3206810eeb,65d6bb0e977760de756971f7,65d6bd73f35ede804f6f2d1c,0.1163,0.1165,0,139,139,0,1,onetwo,,,,,,,,,,,,,,,,,,,,,,,,,,,,,,,,,,,,,,,,,,,,,,,,,,,,,,,,,,,,,,,,,,,,,,,,,,,,,,,,,,,,,,,,,,,,,,,,,,,,,,,,,,,,,,,,,,,,,,,,,,,,,,,,,,,,,,,,,
,,5eacad39ef271f3206810eeb,2024-02-21_21h51.42.821,kallum_motion_pilot,2023.2.2,Win32,59.88023952,5eacad39ef271f3206810eeb,65d6bb0e977760de756971f7,65d6bd73f35ede804f6f2d1c,0.1167,0.1168,0,140,140,152,1,fivesix,,,,,,,,,,,,,,,,,,,,,,,,,,,,,,,,,,,,,,,,,,,,,,,,,,,,,,,,,,,,,,,,,,,,,,,,,,,,,,,,,,,,,,,,,,,,,,,,,,,,,,,,,,,,,,,,,,,,,,,,,,,,,,,,,,,,,,,,,
,,5eacad39ef271f3206810eeb,2024-02-21_21h51.42.821,kallum_motion_pilot,2023.2.2,Win32,59.88023952,5eacad39ef271f3206810eeb,65d6bb0e977760de756971f7,65d6bd73f35ede804f6f2d1c,0.1171,0.1172,0,141,141,45,1,threefour,,,,,,,,,,,,,,,,,,,,,,,,,,,,,,,,,,,,,,,,,,,,,,,,,,,,,,,,,,,,,,,,,,,,,,,,,,,,,,,,,,,,,,,,,,,,,,,,,,,,,,,,,,,,,,,,,,,,,,,,,,,,,,,,,,,,,,,,,
,,5eacad39ef271f3206810eeb,2024-02-21_21h51.42.821,kallum_motion_pilot,2023.2.2,Win32,59.88023952,5eacad39ef271f3206810eeb,65d6bb0e977760de756971f7,65d6bd73f35ede804f6f2d1c,0.1174,0.1176,0,142,142,82,1,sixfive,,,,,,,,,,,,,,,,,,,,,,,,,,,,,,,,,,,,,,,,,,,,,,,,,,,,,,,,,,,,,,,,,,,,,,,,,,,,,,,,,,,,,,,,,,,,,,,,,,,,,,,,,,,,,,,,,,,,,,,,,,,,,,,,,,,,,,,,,
,,5eacad39ef271f3206810eeb,2024-02-21_21h51.42.821,kallum_motion_pilot,2023.2.2,Win32,59.88023952,5eacad39ef271f3206810eeb,65d6bb0e977760de756971f7,65d6bd73f35ede804f6f2d1c,0.1178,0.118,0,143,143,34,1,twoone,,,,,,,,,,,,,,,,,,,,,,,,,,,,,,,,,,,,,,,,,,,,,,,,,,,,,,,,,,,,,,,,,,,,,,,,,,,,,,,,,,,,,,,,,,,,,,,,,,,,,,,,,,,,,,,,,,,,,,,,,,,,,,,,,,,,,,,,,
,,5eacad39ef271f3206810eeb,2024-02-21_21h51.42.821,kallum_motion_pilot,2023.2.2,Win32,59.88023952,5eacad39ef271f3206810eeb,65d6bb0e977760de756971f7,65d6bd73f35ede804f6f2d1c,0.1182,0.1183,0,144,144,37,1,threefour,,,,,,,,,,,,,,,,,,,,,,,,,,,,,,,,,,,,,,,,,,,,,,,,,,,,,,,,,,,,,,,,,,,,,,,,,,,,,,,,,,,,,,,,,,,,,,,,,,,,,,,,,,,,,,,,,,,,,,,,,,,,,,,,,,,,,,,,,
,,5eacad39ef271f3206810eeb,2024-02-21_21h51.42.821,kallum_motion_pilot,2023.2.2,Win32,59.88023952,5eacad39ef271f3206810eeb,65d6bb0e977760de756971f7,65d6bd73f35ede804f6f2d1c,0.1186,0.1187,0,145,145,145,1,fiveseven,,,,,,,,,,,,,,,,,,,,,,,,,,,,,,,,,,,,,,,,,,,,,,,,,,,,,,,,,,,,,,,,,,,,,,,,,,,,,,,,,,,,,,,,,,,,,,,,,,,,,,,,,,,,,,,,,,,,,,,,,,,,,,,,,,,,,,,,,
,,5eacad39ef271f3206810eeb,2024-02-21_21h51.42.821,kallum_motion_pilot,2023.2.2,Win32,59.88023952,5eacad39ef271f3206810eeb,65d6bb0e977760de756971f7,65d6bd73f35ede804f6f2d1c,0.119,0.1191,0,146,146,83,1,sixeight,,,,,,,,,,,,,,,,,,,,,,,,,,,,,,,,,,,,,,,,,,,,,,,,,,,,,,,,,,,,,,,,,,,,,,,,,,,,,,,,,,,,,,,,,,,,,,,,,,,,,,,,,,,,,,,,,,,,,,,,,,,,,,,,,,,,,,,,,
,,5eacad39ef271f3206810eeb,2024-02-21_21h51.42.821,kallum_motion_pilot,2023.2.2,Win32,59.88023952,5eacad39ef271f3206810eeb,65d6bb0e977760de756971f7,65d6bd73f35ede804f6f2d1c,0.1194,0.1195,0,147,147,123,1,sixeight,,,,,,,,,,,,,,,,,,,,,,,,,,,,,,,,,,,,,,,,,,,,,,,,,,,,,,,,,,,,,,,,,,,,,,,,,,,,,,,,,,,,,,,,,,,,,,,,,,,,,,,,,,,,,,,,,,,,,,,,,,,,,,,,,,,,,,,,,
,,5eacad39ef271f3206810eeb,2024-02-21_21h51.42.821,kallum_motion_pilot,2023.2.2,Win32,59.88023952,5eacad39ef271f3206810eeb,65d6bb0e977760de756971f7,65d6bd73f35ede804f6f2d1c,0.12,0.1202,0,148,148,14,1,fourtwo,,,,,,,,,,,,,,,,,,,,,,,,,,,,,,,,,,,,,,,,,,,,,,,,,,,,,,,,,,,,,,,,,,,,,,,,,,,,,,,,,,,,,,,,,,,,,,,,,,,,,,,,,,,,,,,,,,,,,,,,,,,,,,,,,,,,,,,,,
,,5eacad39ef271f3206810eeb,2024-02-21_21h51.42.821,kallum_motion_pilot,2023.2.2,Win32,59.88023952,5eacad39ef271f3206810eeb,65d6bb0e977760de756971f7,65d6bd73f35ede804f6f2d1c,0.1204,0.1205,0,149,149,53,1,threefour,,,,,,,,,,,,,,,,,,,,,,,,,,,,,,,,,,,,,,,,,,,,,,,,,,,,,,,,,,,,,,,,,,,,,,,,,,,,,,,,,,,,,,,,,,,,,,,,,,,,,,,,,,,,,,,,,,,,,,,,,,,,,,,,,,,,,,,,,
,,5eacad39ef271f3206810eeb,2024-02-21_21h51.42.821,kallum_motion_pilot,2023.2.2,Win32,59.88023952,5eacad39ef271f3206810eeb,65d6bb0e977760de756971f7,65d6bd73f35ede804f6f2d1c,0.1207,0.121,0,150,150,112,1,fivesix,,,,,,,,,,,,,,,,,,,,,,,,,,,,,,,,,,,,,,,,,,,,,,,,,,,,,,,,,,,,,,,,,,,,,,,,,,,,,,,,,,,,,,,,,,,,,,,,,,,,,,,,,,,,,,,,,,,,,,,,,,,,,,,,,,,,,,,,,
,,5eacad39ef271f3206810eeb,2024-02-21_21h51.42.821,kallum_motion_pilot,2023.2.2,Win32,59.88023952,5eacad39ef271f3206810eeb,65d6bb0e977760de756971f7,65d6bd73f35ede804f6f2d1c,0.1213,0.1215,0,151,151,114,1,sixfive,,,,,,,,,,,,,,,,,,,,,,,,,,,,,,,,,,,,,,,,,,,,,,,,,,,,,,,,,,,,,,,,,,,,,,,,,,,,,,,,,,,,,,,,,,,,,,,,,,,,,,,,,,,,,,,,,,,,,,,,,,,,,,,,,,,,,,,,,
,,5eacad39ef271f3206810eeb,2024-02-21_21h51.42.821,kallum_motion_pilot,2023.2.2,Win32,59.88023952,5eacad39ef271f3206810eeb,65d6bb0e977760de756971f7,65d6bd73f35ede804f6f2d1c,0.1218,0.122,0,152,152,41,1,onethree,,,,,,,,,,,,,,,,,,,,,,,,,,,,,,,,,,,,,,,,,,,,,,,,,,,,,,,,,,,,,,,,,,,,,,,,,,,,,,,,,,,,,,,,,,,,,,,,,,,,,,,,,,,,,,,,,,,,,,,,,,,,,,,,,,,,,,,,,
,,5eacad39ef271f3206810eeb,2024-02-21_21h51.42.821,kallum_motion_pilot,2023.2.2,Win32,59.88023952,5eacad39ef271f3206810eeb,65d6bb0e977760de756971f7,65d6bd73f35ede804f6f2d1c,0.1223,0.1225,0,153,153,36,1,threeone,,,,,,,,,,,,,,,,,,,,,,,,,,,,,,,,,,,,,,,,,,,,,,,,,,,,,,,,,,,,,,,,,,,,,,,,,,,,,,,,,,,,,,,,,,,,,,,,,,,,,,,,,,,,,,,,,,,,,,,,,,,,,,,,,,,,,,,,,
,,5eacad39ef271f3206810eeb,2024-02-21_21h51.42.821,kallum_motion_pilot,2023.2.2,Win32,59.88023952,5eacad39ef271f3206810eeb,65d6bb0e977760de756971f7,65d6bd73f35ede804f6f2d1c,0.1227,0.1229,0,154,154,101,1,seveneight,,,,,,,,,,,,,,,,,,,,,,,,,,,,,,,,,,,,,,,,,,,,,,,,,,,,,,,,,,,,,,,,,,,,,,,,,,,,,,,,,,,,,,,,,,,,,,,,,,,,,,,,,,,,,,,,,,,,,,,,,,,,,,,,,,,,,,,,,
,,5eacad39ef271f3206810eeb,2024-02-21_21h51.42.821,kallum_motion_pilot,2023.2.2,Win32,59.88023952,5eacad39ef271f3206810eeb,65d6bb0e977760de756971f7,65d6bd73f35ede804f6f2d1c,0.1231,0.1232,0,155,155,94,1,eightsix,,,,,,,,,,,,,,,,,,,,,,,,,,,,,,,,,,,,,,,,,,,,,,,,,,,,,,,,,,,,,,,,,,,,,,,,,,,,,,,,,,,,,,,,,,,,,,,,,,,,,,,,,,,,,,,,,,,,,,,,,,,,,,,,,,,,,,,,,
,,5eacad39ef271f3206810eeb,2024-02-21_21h51.42.821,kallum_motion_pilot,2023.2.2,Win32,59.88023952,5eacad39ef271f3206810eeb,65d6bb0e977760de756971f7,65d6bd73f35ede804f6f2d1c,0.1235,0.1237,0,156,156,136,1,fivesix,,,,,,,,,,,,,,,,,,,,,,,,,,,,,,,,,,,,,,,,,,,,,,,,,,,,,,,,,,,,,,,,,,,,,,,,,,,,,,,,,,,,,,,,,,,,,,,,,,,,,,,,,,,,,,,,,,,,,,,,,,,,,,,,,,,,,,,,,
,,5eacad39ef271f3206810eeb,2024-02-21_21h51.42.821,kallum_motion_pilot,2023.2.2,Win32,59.88023952,5eacad39ef271f3206810eeb,65d6bb0e977760de756971f7,65d6bd73f35ede804f6f2d1c,0.1239,0.1241,0,157,157,46,1,fourtwo,,,,,,,,,,,,,,,,,,,,,,,,,,,,,,,,,,,,,,,,,,,,,,,,,,,,,,,,,,,,,,,,,,,,,,,,,,,,,,,,,,,,,,,,,,,,,,,,,,,,,,,,,,,,,,,,,,,,,,,,,,,,,,,,,,,,,,,,,
,,5eacad39ef271f3206810eeb,2024-02-21_21h51.42.821,kallum_motion_pilot,2023.2.2,Win32,59.88023952,5eacad39ef271f3206810eeb,65d6bb0e977760de756971f7,65d6bd73f35ede804f6f2d1c,0.1244,0.1244,0,158,158,4,1,threeone,,,,,,,,,,,,,,,,,,,,,,,,,,,,,,,,,,,,,,,,,,,,,,,,,,,,,,,,,,,,,,,,,,,,,,,,,,,,,,,,,,,,,,,,,,,,,,,,,,,,,,,,,,,,,,,,,,,,,,,,,,,,,,,,,,,,,,,,,
,,5eacad39ef271f3206810eeb,2024-02-21_21h51.42.821,kallum_motion_pilot,2023.2.2,Win32,59.88023952,5eacad39ef271f3206810eeb,65d6bb0e977760de756971f7,65d6bd73f35ede804f6f2d1c,0.1247,0.1249,0,159,159,105,1,fiveseven,,,,,,,,,,,,,,,,,,,,,,,,,,,,,,,,,,,,,,,,,,,,,,,,,,,,,,,,,,,,,,,,,,,,,,,,,,,,,,,,,,,,,,,,,,,,,,,,,,,,,,,,,,,,,,,,,,,,,,,,,,,,,,,,,,,,,,,,,
,,5eacad39ef271f3206810eeb,2024-02-21_21h51.42.821,kallum_motion_pilot,2023.2.2,Win32,59.88023952,5eacad39ef271f3206810eeb,65d6bb0e977760de756971f7,65d6bd73f35ede804f6f2d1c,0.1262,0.1265,0,160,160,31,1,fourthree,,,,,,,,,,,,,,,,,,,,,,,,,,,,,,,,,,,,,,,,,,,,,,,,,,,,,,,,,,,,,,,,,,,,,,,,,,,,,,,,,,,,,,,,,,,,,,,,,,,,,,,,,,,,,,,,,,,,,,,,,,,,,,,,,,,,,,,,,
,,5eacad39ef271f3206810eeb,2024-02-21_21h51.42.821,kallum_motion_pilot,2023.2.2,Win32,59.88023952,5eacad39ef271f3206810eeb,65d6bb0e977760de756971f7,65d6bd73f35ede804f6f2d1c,0.1269,0.1271,0,161,161,98,1,sixfive,,,,,,,,,,,,,,,,,,,,,,,,,,,,,,,,,,,,,,,,,,,,,,,,,,,,,,,,,,,,,,,,,,,,,,,,,,,,,,,,,,,,,,,,,,,,,,,,,,,,,,,,,,,,,,,,,,,,,,,,,,,,,,,,,,,,,,,,,
,,5eacad39ef271f3206810eeb,2024-02-21_21h51.42.821,kallum_motion_pilot,2023.2.2,Win32,59.88023952,5eacad39ef271f3206810eeb,65d6bb0e977760de756971f7,65d6bd73f35ede804f6f2d1c,0.1273,0.1275,1,0,162,124,1,sevenfive,,,,,,,,,,,,,,,,,,,,,,,,,,,,,,,,,,,,,,,,,,,,,,,,,,,,,,,,,,,,,,,,,,,,,,,,,,,,,,,,,,,,,,,,,,,,,,,,,,,,,,,,,,,,,,,,,,,,,,,,,,,,,,,,,,,,,,,,,
,,5eacad39ef271f3206810eeb,2024-02-21_21h51.42.821,kallum_motion_pilot,2023.2.2,Win32,59.88023952,5eacad39ef271f3206810eeb,65d6bb0e977760de756971f7,65d6bd73f35ede804f6f2d1c,0.1278,0.1279,1,1,163,136,1,fivesix,,,,,,,,,,,,,,,,,,,,,,,,,,,,,,,,,,,,,,,,,,,,,,,,,,,,,,,,,,,,,,,,,,,,,,,,,,,,,,,,,,,,,,,,,,,,,,,,,,,,,,,,,,,,,,,,,,,,,,,,,,,,,,,,,,,,,,,,,
,,5eacad39ef271f3206810eeb,2024-02-21_21h51.42.821,kallum_motion_pilot,2023.2.2,Win32,59.88023952,5eacad39ef271f3206810eeb,65d6bb0e977760de756971f7,65d6bd73f35ede804f6f2d1c,0.1281,0.1283,1,2,164,114,1,sixfive,,,,,,,,,,,,,,,,,,,,,,,,,,,,,,,,,,,,,,,,,,,,,,,,,,,,,,,,,,,,,,,,,,,,,,,,,,,,,,,,,,,,,,,,,,,,,,,,,,,,,,,,,,,,,,,,,,,,,,,,,,,,,,,,,,,,,,,,,
,,5eacad39ef271f3206810eeb,2024-02-21_21h51.42.821,kallum_motion_pilot,2023.2.2,Win32,59.88023952,5eacad39ef271f3206810eeb,65d6bb0e977760de756971f7,65d6bd73f35ede804f6f2d1c,0.1285,0.1287,1,3,165,141,1,seveneight,,,,,,,,,,,,,,,,,,,,,,,,,,,,,,,,,,,,,,,,,,,,,,,,,,,,,,,,,,,,,,,,,,,,,,,,,,,,,,,,,,,,,,,,,,,,,,,,,,,,,,,,,,,,,,,,,,,,,,,,,,,,,,,,,,,,,,,,,
,,5eacad39ef271f3206810eeb,2024-02-21_21h51.42.821,kallum_motion_pilot,2023.2.2,Win32,59.88023952,5eacad39ef271f3206810eeb,65d6bb0e977760de756971f7,65d6bd73f35ede804f6f2d1c,0.1289,0.1291,1,4,166,121,1,fiveseven,,,,,,,,,,,,,,,,,,,,,,,,,,,,,,,,,,,,,,,,,,,,,,,,,,,,,,,,,,,,,,,,,,,,,,,,,,,,,,,,,,,,,,,,,,,,,,,,,,,,,,,,,,,,,,,,,,,,,,,,,,,,,,,,,,,,,,,,,
,,5eacad39ef271f3206810eeb,2024-02-21_21h51.42.821,kallum_motion_pilot,2023.2.2,Win32,59.88023952,5eacad39ef271f3206810eeb,65d6bb0e977760de756971f7,65d6bd73f35ede804f6f2d1c,0.1293,0.1294,1,5,167,81,1,fiveseven,,,,,,,,,,,,,,,,,,,,,,,,,,,,,,,,,,,,,,,,,,,,,,,,,,,,,,,,,,,,,,,,,,,,,,,,,,,,,,,,,,,,,,,,,,,,,,,,,,,,,,,,,,,,,,,,,,,,,,,,,,,,,,,,,,,,,,,,,
,,5eacad39ef271f3206810eeb,2024-02-21_21h51.42.821,kallum_motion_pilot,2023.2.2,Win32,59.88023952,5eacad39ef271f3206810eeb,65d6bb0e977760de756971f7,65d6bd73f35ede804f6f2d1c,0.1296,0.1298,1,6,168,25,1,onethree,,,,,,,,,,,,,,,,,,,,,,,,,,,,,,,,,,,,,,,,,,,,,,,,,,,,,,,,,,,,,,,,,,,,,,,,,,,,,,,,,,,,,,,,,,,,,,,,,,,,,,,,,,,,,,,,,,,,,,,,,,,,,,,,,,,,,,,,,
,,5eacad39ef271f3206810eeb,2024-02-21_21h51.42.821,kallum_motion_pilot,2023.2.2,Win32,59.88023952,5eacad39ef271f3206810eeb,65d6bb0e977760de756971f7,65d6bd73f35ede804f6f2d1c,0.1299,0.1301,1,7,169,154,1,sixfive,,,,,,,,,,,,,,,,,,,,,,,,,,,,,,,,,,,,,,,,,,,,,,,,,,,,,,,,,,,,,,,,,,,,,,,,,,,,,,,,,,,,,,,,,,,,,,,,,,,,,,,,,,,,,,,,,,,,,,,,,,,,,,,,,,,,,,,,,
,,5eacad39ef271f3206810eeb,2024-02-21_21h51.42.821,kallum_motion_pilot,2023.2.2,Win32,59.88023952,5eacad39ef271f3206810eeb,65d6bb0e977760de756971f7,65d6bd73f35ede804f6f2d1c,0.1303,0.1306,1,8,170,96,1,fivesix,,,,,,,,,,,,,,,,,,,,,,,,,,,,,,,,,,,,,,,,,,,,,,,,,,,,,,,,,,,,,,,,,,,,,,,,,,,,,,,,,,,,,,,,,,,,,,,,,,,,,,,,,,,,,,,,,,,,,,,,,,,,,,,,,,,,,,,,,
,,5eacad39ef271f3206810eeb,2024-02-21_21h51.42.821,kallum_motion_pilot,2023.2.2,Win32,59.88023952,5eacad39ef271f3206810eeb,65d6bb0e977760de756971f7,65d6bd73f35ede804f6f2d1c,0.131,0.1312,1,9,171,54,1,fourtwo,,,,,,,,,,,,,,,,,,,,,,,,,,,,,,,,,,,,,,,,,,,,,,,,,,,,,,,,,,,,,,,,,,,,,,,,,,,,,,,,,,,,,,,,,,,,,,,,,,,,,,,,,,,,,,,,,,,,,,,,,,,,,,,,,,,,,,,,,
,,5eacad39ef271f3206810eeb,2024-02-21_21h51.42.821,kallum_motion_pilot,2023.2.2,Win32,59.88023952,5eacad39ef271f3206810eeb,65d6bb0e977760de756971f7,65d6bd73f35ede804f6f2d1c,0.1315,0.1317,1,10,172,47,1,fourthree,,,,,,,,,,,,,,,,,,,,,,,,,,,,,,,,,,,,,,,,,,,,,,,,,,,,,,,,,,,,,,,,,,,,,,,,,,,,,,,,,,,,,,,,,,,,,,,,,,,,,,,,,,,,,,,,,,,,,,,,,,,,,,,,,,,,,,,,,
,,5eacad39ef271f3206810eeb,2024-02-21_21h51.42.821,kallum_motion_pilot,2023.2.2,Win32,59.88023952,5eacad39ef271f3206810eeb,65d6bb0e977760de756971f7,65d6bd73f35ede804f6f2d1c,0.1319,0.1321,1,11,173,14,1,fourtwo,,,,,,,,,,,,,,,,,,,,,,,,,,,,,,,,,,,,,,,,,,,,,,,,,,,,,,,,,,,,,,,,,,,,,,,,,,,,,,,,,,,,,,,,,,,,,,,,,,,,,,,,,,,,,,,,,,,,,,,,,,,,,,,,,,,,,,,,,
,,5eacad39ef271f3206810eeb,2024-02-21_21h51.42.821,kallum_motion_pilot,2023.2.2,Win32,59.88023952,5eacad39ef271f3206810eeb,65d6bb0e977760de756971f7,65d6bd73f35ede804f6f2d1c,0.1322,0.1325,1,12,174,16,1,onetwo,,,,,,,,,,,,,,,,,,,,,,,,,,,,,,,,,,,,,,,,,,,,,,,,,,,,,,,,,,,,,,,,,,,,,,,,,,,,,,,,,,,,,,,,,,,,,,,,,,,,,,,,,,,,,,,,,,,,,,,,,,,,,,,,,,,,,,,,,
,,5eacad39ef271f3206810eeb,2024-02-21_21h51.42.821,kallum_motion_pilot,2023.2.2,Win32,59.88023952,5eacad39ef271f3206810eeb,65d6bb0e977760de756971f7,65d6bd73f35ede804f6f2d1c,0.1327,0.1328,1,13,175,33,1,onethree,,,,,,,,,,,,,,,,,,,,,,,,,,,,,,,,,,,,,,,,,,,,,,,,,,,,,,,,,,,,,,,,,,,,,,,,,,,,,,,,,,,,,,,,,,,,,,,,,,,,,,,,,,,,,,,,,,,,,,,,,,,,,,,,,,,,,,,,,
,,5eacad39ef271f3206810eeb,2024-02-21_21h51.42.821,kallum_motion_pilot,2023.2.2,Win32,59.88023952,5eacad39ef271f3206810eeb,65d6bb0e977760de756971f7,65d6bd73f35ede804f6f2d1c,0.1331,0.1333,1,14,176,55,1,fourthree,,,,,,,,,,,,,,,,,,,,,,,,,,,,,,,,,,,,,,,,,,,,,,,,,,,,,,,,,,,,,,,,,,,,,,,,,,,,,,,,,,,,,,,,,,,,,,,,,,,,,,,,,,,,,,,,,,,,,,,,,,,,,,,,,,,,,,,,,
,,5eacad39ef271f3206810eeb,2024-02-21_21h51.42.821,kallum_motion_pilot,2023.2.2,Win32,59.88023952,5eacad39ef271f3206810eeb,65d6bb0e977760de756971f7,65d6bd73f35ede804f6f2d1c,0.1334,0.1337,1,15,177,112,1,fivesix,,,,,,,,,,,,,,,,,,,,,,,,,,,,,,,,,,,,,,,,,,,,,,,,,,,,,,,,,,,,,,,,,,,,,,,,,,,,,,,,,,,,,,,,,,,,,,,,,,,,,,,,,,,,,,,,,,,,,,,,,,,,,,,,,,,,,,,,,
,,5eacad39ef271f3206810eeb,2024-02-21_21h51.42.821,kallum_motion_pilot,2023.2.2,Win32,59.88023952,5eacad39ef271f3206810eeb,65d6bb0e977760de756971f7,65d6bd73f35ede804f6f2d1c,0.1339,0.1341,1,16,178,129,1,fiveseven,,,,,,,,,,,,,,,,,,,,,,,,,,,,,,,,,,,,,,,,,,,,,,,,,,,,,,,,,,,,,,,,,,,,,,,,,,,,,,,,,,,,,,,,,,,,,,,,,,,,,,,,,,,,,,,,,,,,,,,,,,,,,,,,,,,,,,,,,
,,5eacad39ef271f3206810eeb,2024-02-21_21h51.42.821,kallum_motion_pilot,2023.2.2,Win32,59.88023952,5eacad39ef271f3206810eeb,65d6bb0e977760de756971f7,65d6bd73f35ede804f6f2d1c,0.1343,0.1345,1,17,179,71,1,fourthree,,,,,,,,,,,,,,,,,,,,,,,,,,,,,,,,,,,,,,,,,,,,,,,,,,,,,,,,,,,,,,,,,,,,,,,,,,,,,,,,,,,,,,,,,,,,,,,,,,,,,,,,,,,,,,,,,,,,,,,,,,,,,,,,,,,,,,,,,
,,5eacad39ef271f3206810eeb,2024-02-21_21h51.42.821,kallum_motion_pilot,2023.2.2,Win32,59.88023952,5eacad39ef271f3206810eeb,65d6bb0e977760de756971f7,65d6bd73f35ede804f6f2d1c,0.1346,0.1349,1,18,180,147,1,sixeight,,,,,,,,,,,,,,,,,,,,,,,,,,,,,,,,,,,,,,,,,,,,,,,,,,,,,,,,,,,,,,,,,,,,,,,,,,,,,,,,,,,,,,,,,,,,,,,,,,,,,,,,,,,,,,,,,,,,,,,,,,,,,,,,,,,,,,,,,
,,5eacad39ef271f3206810eeb,2024-02-21_21h51.42.821,kallum_motion_pilot,2023.2.2,Win32,59.88023952,5eacad39ef271f3206810eeb,65d6bb0e977760de756971f7,65d6bd73f35ede804f6f2d1c,0.1352,0.1353,1,19,181,92,1,sevenfive,,,,,,,,,,,,,,,,,,,,,,,,,,,,,,,,,,,,,,,,,,,,,,,,,,,,,,,,,,,,,,,,,,,,,,,,,,,,,,,,,,,,,,,,,,,,,,,,,,,,,,,,,,,,,,,,,,,,,,,,,,,,,,,,,,,,,,,,,
,,5eacad39ef271f3206810eeb,2024-02-21_21h51.42.821,kallum_motion_pilot,2023.2.2,Win32,59.88023952,5eacad39ef271f3206810eeb,65d6bb0e977760de756971f7,65d6bd73f35ede804f6f2d1c,0.1356,0.1357,1,20,182,98,1,sixfive,,,,,,,,,,,,,,,,,,,,,,,,,,,,,,,,,,,,,,,,,,,,,,,,,,,,,,,,,,,,,,,,,,,,,,,,,,,,,,,,,,,,,,,,,,,,,,,,,,,,,,,,,,,,,,,,,,,,,,,,,,,,,,,,,,,,,,,,,
,,5eacad39ef271f3206810eeb,2024-02-21_21h51.42.821,kallum_motion_pilot,2023.2.2,Win32,59.88023952,5eacad39ef271f3206810eeb,65d6bb0e977760de756971f7,65d6bd73f35ede804f6f2d1c,0.1361,0.1364,1,21,183,10,1,twoone,,,,,,,,,,,,,,,,,,,,,,,,,,,,,,,,,,,,,,,,,,,,,,,,,,,,,,,,,,,,,,,,,,,,,,,,,,,,,,,,,,,,,,,,,,,,,,,,,,,,,,,,,,,,,,,,,,,,,,,,,,,,,,,,,,,,,,,,,
,,5eacad39ef271f3206810eeb,2024-02-21_21h51.42.821,kallum_motion_pilot,2023.2.2,Win32,59.88023952,5eacad39ef271f3206810eeb,65d6bb0e977760de756971f7,65d6bd73f35ede804f6f2d1c,0.1367,0.1369,1,22,184,8,1,onetwo,,,,,,,,,,,,,,,,,,,,,,,,,,,,,,,,,,,,,,,,,,,,,,,,,,,,,,,,,,,,,,,,,,,,,,,,,,,,,,,,,,,,,,,,,,,,,,,,,,,,,,,,,,,,,,,,,,,,,,,,,,,,,,,,,,,,,,,,,
,,5eacad39ef271f3206810eeb,2024-02-21_21h51.42.821,kallum_motion_pilot,2023.2.2,Win32,59.88023952,5eacad39ef271f3206810eeb,65d6bb0e977760de756971f7,65d6bd73f35ede804f6f2d1c,0.1372,0.1373,1,23,185,62,1,fourtwo,,,,,,,,,,,,,,,,,,,,,,,,,,,,,,,,,,,,,,,,,,,,,,,,,,,,,,,,,,,,,,,,,,,,,,,,,,,,,,,,,,,,,,,,,,,,,,,,,,,,,,,,,,,,,,,,,,,,,,,,,,,,,,,,,,,,,,,,,
,,5eacad39ef271f3206810eeb,2024-02-21_21h51.42.821,kallum_motion_pilot,2023.2.2,Win32,59.88023952,5eacad39ef271f3206810eeb,65d6bb0e977760de756971f7,65d6bd73f35ede804f6f2d1c,0.1376,0.1378,1,24,186,108,1,sevenfive,,,,,,,,,,,,,,,,,,,,,,,,,,,,,,,,,,,,,,,,,,,,,,,,,,,,,,,,,,,,,,,,,,,,,,,,,,,,,,,,,,,,,,,,,,,,,,,,,,,,,,,,,,,,,,,,,,,,,,,,,,,,,,,,,,,,,,,,,
,,5eacad39ef271f3206810eeb,2024-02-21_21h51.42.821,kallum_motion_pilot,2023.2.2,Win32,59.88023952,5eacad39ef271f3206810eeb,65d6bb0e977760de756971f7,65d6bd73f35ede804f6f2d1c,0.1381,0.1382,1,25,187,95,1,eightseven,,,,,,,,,,,,,,,,,,,,,,,,,,,,,,,,,,,,,,,,,,,,,,,,,,,,,,,,,,,,,,,,,,,,,,,,,,,,,,,,,,,,,,,,,,,,,,,,,,,,,,,,,,,,,,,,,,,,,,,,,,,,,,,,,,,,,,,,,
,,5eacad39ef271f3206810eeb,2024-02-21_21h51.42.821,kallum_motion_pilot,2023.2.2,Win32,59.88023952,5eacad39ef271f3206810eeb,65d6bb0e977760de756971f7,65d6bd73f35ede804f6f2d1c,0.1384,0.1386,1,26,188,133,1,seveneight,,,,,,,,,,,,,,,,,,,,,,,,,,,,,,,,,,,,,,,,,,,,,,,,,,,,,,,,,,,,,,,,,,,,,,,,,,,,,,,,,,,,,,,,,,,,,,,,,,,,,,,,,,,,,,,,,,,,,,,,,,,,,,,,,,,,,,,,,
,,5eacad39ef271f3206810eeb,2024-02-21_21h51.42.821,kallum_motion_pilot,2023.2.2,Win32,59.88023952,5eacad39ef271f3206810eeb,65d6bb0e977760de756971f7,65d6bd73f35ede804f6f2d1c,0.1389,0.1391,1,27,189,82,1,sixfive,,,,,,,,,,,,,,,,,,,,,,,,,,,,,,,,,,,,,,,,,,,,,,,,,,,,,,,,,,,,,,,,,,,,,,,,,,,,,,,,,,,,,,,,,,,,,,,,,,,,,,,,,,,,,,,,,,,,,,,,,,,,,,,,,,,,,,,,,
,,5eacad39ef271f3206810eeb,2024-02-21_21h51.42.821,kallum_motion_pilot,2023.2.2,Win32,59.88023952,5eacad39ef271f3206810eeb,65d6bb0e977760de756971f7,65d6bd73f35ede804f6f2d1c,0.1393,0.1395,1,28,190,4,1,threeone,,,,,,,,,,,,,,,,,,,,,,,,,,,,,,,,,,,,,,,,,,,,,,,,,,,,,,,,,,,,,,,,,,,,,,,,,,,,,,,,,,,,,,,,,,,,,,,,,,,,,,,,,,,,,,,,,,,,,,,,,,,,,,,,,,,,,,,,,
,,5eacad39ef271f3206810eeb,2024-02-21_21h51.42.821,kallum_motion_pilot,2023.2.2,Win32,59.88023952,5eacad39ef271f3206810eeb,65d6bb0e977760de756971f7,65d6bd73f35ede804f6f2d1c,0.1398,0.14,1,29,191,59,1,twofour,,,,,,,,,,,,,,,,,,,,,,,,,,,,,,,,,,,,,,,,,,,,,,,,,,,,,,,,,,,,,,,,,,,,,,,,,,,,,,,,,,,,,,,,,,,,,,,,,,,,,,,,,,,,,,,,,,,,,,,,,,,,,,,,,,,,,,,,,
,,5eacad39ef271f3206810eeb,2024-02-21_21h51.42.821,kallum_motion_pilot,2023.2.2,Win32,59.88023952,5eacad39ef271f3206810eeb,65d6bb0e977760de756971f7,65d6bd73f35ede804f6f2d1c,0.1401,0.1403,1,30,192,105,1,fiveseven,,,,,,,,,,,,,,,,,,,,,,,,,,,,,,,,,,,,,,,,,,,,,,,,,,,,,,,,,,,,,,,,,,,,,,,,,,,,,,,,,,,,,,,,,,,,,,,,,,,,,,,,,,,,,,,,,,,,,,,,,,,,,,,,,,,,,,,,,
,,5eacad39ef271f3206810eeb,2024-02-21_21h51.42.821,kallum_motion_pilot,2023.2.2,Win32,59.88023952,5eacad39ef271f3206810eeb,65d6bb0e977760de756971f7,65d6bd73f35ede804f6f2d1c,0.1405,0.1407,1,31,193,66,1,twoone,,,,,,,,,,,,,,,,,,,,,,,,,,,,,,,,,,,,,,,,,,,,,,,,,,,,,,,,,,,,,,,,,,,,,,,,,,,,,,,,,,,,,,,,,,,,,,,,,,,,,,,,,,,,,,,,,,,,,,,,,,,,,,,,,,,,,,,,,
,,5eacad39ef271f3206810eeb,2024-02-21_21h51.42.821,kallum_motion_pilot,2023.2.2,Win32,59.88023952,5eacad39ef271f3206810eeb,65d6bb0e977760de756971f7,65d6bd73f35ede804f6f2d1c,0.1411,0.1412,1,32,194,116,1,sevenfive,,,,,,,,,,,,,,,,,,,,,,,,,,,,,,,,,,,,,,,,,,,,,,,,,,,,,,,,,,,,,,,,,,,,,,,,,,,,,,,,,,,,,,,,,,,,,,,,,,,,,,,,,,,,,,,,,,,,,,,,,,,,,,,,,,,,,,,,,
,,5eacad39ef271f3206810eeb,2024-02-21_21h51.42.821,kallum_motion_pilot,2023.2.2,Win32,59.88023952,5eacad39ef271f3206810eeb,65d6bb0e977760de756971f7,65d6bd73f35ede804f6f2d1c,0.1414,0.1417,1,33,195,50,1,twoone,,,,,,,,,,,,,,,,,,,,,,,,,,,,,,,,,,,,,,,,,,,,,,,,,,,,,,,,,,,,,,,,,,,,,,,,,,,,,,,,,,,,,,,,,,,,,,,,,,,,,,,,,,,,,,,,,,,,,,,,,,,,,,,,,,,,,,,,,
,,5eacad39ef271f3206810eeb,2024-02-21_21h51.42.821,kallum_motion_pilot,2023.2.2,Win32,59.88023952,5eacad39ef271f3206810eeb,65d6bb0e977760de756971f7,65d6bd73f35ede804f6f2d1c,0.142,0.1421,1,34,196,78,1,fourtwo,,,,,,,,,,,,,,,,,,,,,,,,,,,,,,,,,,,,,,,,,,,,,,,,,,,,,,,,,,,,,,,,,,,,,,,,,,,,,,,,,,,,,,,,,,,,,,,,,,,,,,,,,,,,,,,,,,,,,,,,,,,,,,,,,,,,,,,,,
,,5eacad39ef271f3206810eeb,2024-02-21_21h51.42.821,kallum_motion_pilot,2023.2.2,Win32,59.88023952,5eacad39ef271f3206810eeb,65d6bb0e977760de756971f7,65d6bd73f35ede804f6f2d1c,0.1424,0.1426,1,35,197,30,1,fourtwo,,,,,,,,,,,,,,,,,,,,,,,,,,,,,,,,,,,,,,,,,,,,,,,,,,,,,,,,,,,,,,,,,,,,,,,,,,,,,,,,,,,,,,,,,,,,,,,,,,,,,,,,,,,,,,,,,,,,,,,,,,,,,,,,,,,,,,,,,
,,5eacad39ef271f3206810eeb,2024-02-21_21h51.42.821,kallum_motion_pilot,2023.2.2,Win32,59.88023952,5eacad39ef271f3206810eeb,65d6bb0e977760de756971f7,65d6bd73f35ede804f6f2d1c,0.1428,0.1429,1,36,198,7,1,fourthree,,,,,,,,,,,,,,,,,,,,,,,,,,,,,,,,,,,,,,,,,,,,,,,,,,,,,,,,,,,,,,,,,,,,,,,,,,,,,,,,,,,,,,,,,,,,,,,,,,,,,,,,,,,,,,,,,,,,,,,,,,,,,,,,,,,,,,,,,
,,5eacad39ef271f3206810eeb,2024-02-21_21h51.42.821,kallum_motion_pilot,2023.2.2,Win32,59.88023952,5eacad39ef271f3206810eeb,65d6bb0e977760de756971f7,65d6bd73f35ede804f6f2d1c,0.1431,0.1434,1,37,199,67,1,twofour,,,,,,,,,,,,,,,,,,,,,,,,,,,,,,,,,,,,,,,,,,,,,,,,,,,,,,,,,,,,,,,,,,,,,,,,,,,,,,,,,,,,,,,,,,,,,,,,,,,,,,,,,,,,,,,,,,,,,,,,,,,,,,,,,,,,,,,,,
,,5eacad39ef271f3206810eeb,2024-02-21_21h51.42.821,kallum_motion_pilot,2023.2.2,Win32,59.88023952,5eacad39ef271f3206810eeb,65d6bb0e977760de756971f7,65d6bd73f35ede804f6f2d1c,0.1436,0.1437,1,38,200,153,1,fiveseven,,,,,,,,,,,,,,,,,,,,,,,,,,,,,,,,,,,,,,,,,,,,,,,,,,,,,,,,,,,,,,,,,,,,,,,,,,,,,,,,,,,,,,,,,,,,,,,,,,,,,,,,,,,,,,,,,,,,,,,,,,,,,,,,,,,,,,,,,
,,5eacad39ef271f3206810eeb,2024-02-21_21h51.42.821,kallum_motion_pilot,2023.2.2,Win32,59.88023952,5eacad39ef271f3206810eeb,65d6bb0e977760de756971f7,65d6bd73f35ede804f6f2d1c,0.144,0.1441,1,39,201,146,1,sixfive,,,,,,,,,,,,,,,,,,,,,,,,,,,,,,,,,,,,,,,,,,,,,,,,,,,,,,,,,,,,,,,,,,,,,,,,,,,,,,,,,,,,,,,,,,,,,,,,,,,,,,,,,,,,,,,,,,,,,,,,,,,,,,,,,,,,,,,,,
,,5eacad39ef271f3206810eeb,2024-02-21_21h51.42.821,kallum_motion_pilot,2023.2.2,Win32,59.88023952,5eacad39ef271f3206810eeb,65d6bb0e977760de756971f7,65d6bd73f35ede804f6f2d1c,0.1445,0.1446,1,40,202,90,1,sixfive,,,,,,,,,,,,,,,,,,,,,,,,,,,,,,,,,,,,,,,,,,,,,,,,,,,,,,,,,,,,,,,,,,,,,,,,,,,,,,,,,,,,,,,,,,,,,,,,,,,,,,,,,,,,,,,,,,,,,,,,,,,,,,,,,,,,,,,,,
,,5eacad39ef271f3206810eeb,2024-02-21_21h51.42.821,kallum_motion_pilot,2023.2.2,Win32,59.88023952,5eacad39ef271f3206810eeb,65d6bb0e977760de756971f7,65d6bd73f35ede804f6f2d1c,0.145,0.1451,1,41,203,45,1,threefour,,,,,,,,,,,,,,,,,,,,,,,,,,,,,,,,,,,,,,,,,,,,,,,,,,,,,,,,,,,,,,,,,,,,,,,,,,,,,,,,,,,,,,,,,,,,,,,,,,,,,,,,,,,,,,,,,,,,,,,,,,,,,,,,,,,,,,,,,
,,5eacad39ef271f3206810eeb,2024-02-21_21h51.42.821,kallum_motion_pilot,2023.2.2,Win32,59.88023952,5eacad39ef271f3206810eeb,65d6bb0e977760de756971f7,65d6bd73f35ede804f6f2d1c,0.1454,0.1456,1,42,204,125,1,seveneight,,,,,,,,,,,,,,,,,,,,,,,,,,,,,,,,,,,,,,,,,,,,,,,,,,,,,,,,,,,,,,,,,,,,,,,,,,,,,,,,,,,,,,,,,,,,,,,,,,,,,,,,,,,,,,,,,,,,,,,,,,,,,,,,,,,,,,,,,
,,5eacad39ef271f3206810eeb,2024-02-21_21h51.42.821,kallum_motion_pilot,2023.2.2,Win32,59.88023952,5eacad39ef271f3206810eeb,65d6bb0e977760de756971f7,65d6bd73f35ede804f6f2d1c,0.1458,0.146,1,43,205,77,1,threefour,,,,,,,,,,,,,,,,,,,,,,,,,,,,,,,,,,,,,,,,,,,,,,,,,,,,,,,,,,,,,,,,,,,,,,,,,,,,,,,,,,,,,,,,,,,,,,,,,,,,,,,,,,,,,,,,,,,,,,,,,,,,,,,,,,,,,,,,,
,,5eacad39ef271f3206810eeb,2024-02-21_21h51.42.821,kallum_motion_pilot,2023.2.2,Win32,59.88023952,5eacad39ef271f3206810eeb,65d6bb0e977760de756971f7,65d6bd73f35ede804f6f2d1c,0.1463,0.1466,1,44,206,99,1,sixeight,,,,,,,,,,,,,,,,,,,,,,,,,,,,,,,,,,,,,,,,,,,,,,,,,,,,,,,,,,,,,,,,,,,,,,,,,,,,,,,,,,,,,,,,,,,,,,,,,,,,,,,,,,,,,,,,,,,,,,,,,,,,,,,,,,,,,,,,,
,,5eacad39ef271f3206810eeb,2024-02-21_21h51.42.821,kallum_motion_pilot,2023.2.2,Win32,59.88023952,5eacad39ef271f3206810eeb,65d6bb0e977760de756971f7,65d6bd73f35ede804f6f2d1c,0.1468,0.147,1,45,207,101,1,seveneight,,,,,,,,,,,,,,,,,,,,,,,,,,,,,,,,,,,,,,,,,,,,,,,,,,,,,,,,,,,,,,,,,,,,,,,,,,,,,,,,,,,,,,,,,,,,,,,,,,,,,,,,,,,,,,,,,,,,,,,,,,,,,,,,,,,,,,,,,
,,5eacad39ef271f3206810eeb,2024-02-21_21h51.42.821,kallum_motion_pilot,2023.2.2,Win32,59.88023952,5eacad39ef271f3206810eeb,65d6bb0e977760de756971f7,65d6bd73f35ede804f6f2d1c,0.1473,0.1476,1,46,208,73,1,onethree,,,,,,,,,,,,,,,,,,,,,,,,,,,,,,,,,,,,,,,,,,,,,,,,,,,,,,,,,,,,,,,,,,,,,,,,,,,,,,,,,,,,,,,,,,,,,,,,,,,,,,,,,,,,,,,,,,,,,,,,,,,,,,,,,,,,,,,,,
,,5eacad39ef271f3206810eeb,2024-02-21_21h51.42.821,kallum_motion_pilot,2023.2.2,Win32,59.88023952,5eacad39ef271f3206810eeb,65d6bb0e977760de756971f7,65d6bd73f35ede804f6f2d1c,0.148,0.1482,1,47,209,148,1,sevenfive,,,,,,,,,,,,,,,,,,,,,,,,,,,,,,,,,,,,,,,,,,,,,,,,,,,,,,,,,,,,,,,,,,,,,,,,,,,,,,,,,,,,,,,,,,,,,,,,,,,,,,,,,,,,,,,,,,,,,,,,,,,,,,,,,,,,,,,,,
,,5eacad39ef271f3206810eeb,2024-02-21_21h51.42.821,kallum_motion_pilot,2023.2.2,Win32,59.88023952,5eacad39ef271f3206810eeb,65d6bb0e977760de756971f7,65d6bd73f35ede804f6f2d1c,0.1484,0.1486,1,48,210,51,1,twofour,,,,,,,,,,,,,,,,,,,,,,,,,,,,,,,,,,,,,,,,,,,,,,,,,,,,,,,,,,,,,,,,,,,,,,,,,,,,,,,,,,,,,,,,,,,,,,,,,,,,,,,,,,,,,,,,,,,,,,,,,,,,,,,,,,,,,,,,,
,,5eacad39ef271f3206810eeb,2024-02-21_21h51.42.821,kallum_motion_pilot,2023.2.2,Win32,59.88023952,5eacad39ef271f3206810eeb,65d6bb0e977760de756971f7,65d6bd73f35ede804f6f2d1c,0.1489,0.1491,1,49,211,60,1,threeone,,,,,,,,,,,,,,,,,,,,,,,,,,,,,,,,,,,,,,,,,,,,,,,,,,,,,,,,,,,,,,,,,,,,,,,,,,,,,,,,,,,,,,,,,,,,,,,,,,,,,,,,,,,,,,,,,,,,,,,,,,,,,,,,,,,,,,,,,
,,5eacad39ef271f3206810eeb,2024-02-21_21h51.42.821,kallum_motion_pilot,2023.2.2,Win32,59.88023952,5eacad39ef271f3206810eeb,65d6bb0e977760de756971f7,65d6bd73f35ede804f6f2d1c,0.1493,0.1495,1,50,212,130,1,sixfive,,,,,,,,,,,,,,,,,,,,,,,,,,,,,,,,,,,,,,,,,,,,,,,,,,,,,,,,,,,,,,,,,,,,,,,,,,,,,,,,,,,,,,,,,,,,,,,,,,,,,,,,,,,,,,,,,,,,,,,,,,,,,,,,,,,,,,,,,
,,5eacad39ef271f3206810eeb,2024-02-21_21h51.42.821,kallum_motion_pilot,2023.2.2,Win32,59.88023952,5eacad39ef271f3206810eeb,65d6bb0e977760de756971f7,65d6bd73f35ede804f6f2d1c,0.1498,0.1499,1,51,213,138,1,sixfive,,,,,,,,,,,,,,,,,,,,,,,,,,,,,,,,,,,,,,,,,,,,,,,,,,,,,,,,,,,,,,,,,,,,,,,,,,,,,,,,,,,,,,,,,,,,,,,,,,,,,,,,,,,,,,,,,,,,,,,,,,,,,,,,,,,,,,,,,
,,5eacad39ef271f3206810eeb,2024-02-21_21h51.42.821,kallum_motion_pilot,2023.2.2,Win32,59.88023952,5eacad39ef271f3206810eeb,65d6bb0e977760de756971f7,65d6bd73f35ede804f6f2d1c,0.1502,0.1504,1,52,214,42,1,twoone,,,,,,,,,,,,,,,,,,,,,,,,,,,,,,,,,,,,,,,,,,,,,,,,,,,,,,,,,,,,,,,,,,,,,,,,,,,,,,,,,,,,,,,,,,,,,,,,,,,,,,,,,,,,,,,,,,,,,,,,,,,,,,,,,,,,,,,,,
,,5eacad39ef271f3206810eeb,2024-02-21_21h51.42.821,kallum_motion_pilot,2023.2.2,Win32,59.88023952,5eacad39ef271f3206810eeb,65d6bb0e977760de756971f7,65d6bd73f35ede804f6f2d1c,0.1507,0.1511,1,53,215,44,1,threeone,,,,,,,,,,,,,,,,,,,,,,,,,,,,,,,,,,,,,,,,,,,,,,,,,,,,,,,,,,,,,,,,,,,,,,,,,,,,,,,,,,,,,,,,,,,,,,,,,,,,,,,,,,,,,,,,,,,,,,,,,,,,,,,,,,,,,,,,,
,,5eacad39ef271f3206810eeb,2024-02-21_21h51.42.821,kallum_motion_pilot,2023.2.2,Win32,59.88023952,5eacad39ef271f3206810eeb,65d6bb0e977760de756971f7,65d6bd73f35ede804f6f2d1c,0.1514,0.1517,1,54,216,94,1,eightsix,,,,,,,,,,,,,,,,,,,,,,,,,,,,,,,,,,,,,,,,,,,,,,,,,,,,,,,,,,,,,,,,,,,,,,,,,,,,,,,,,,,,,,,,,,,,,,,,,,,,,,,,,,,,,,,,,,,,,,,,,,,,,,,,,,,,,,,,,
,,5eacad39ef271f3206810eeb,2024-02-21_21h51.42.821,kallum_motion_pilot,2023.2.2,Win32,59.88023952,5eacad39ef271f3206810eeb,65d6bb0e977760de756971f7,65d6bd73f35ede804f6f2d1c,0.152,0.1522,1,55,217,21,1,threefour,,,,,,,,,,,,,,,,,,,,,,,,,,,,,,,,,,,,,,,,,,,,,,,,,,,,,,,,,,,,,,,,,,,,,,,,,,,,,,,,,,,,,,,,,,,,,,,,,,,,,,,,,,,,,,,,,,,,,,,,,,,,,,,,,,,,,,,,,
,,5eacad39ef271f3206810eeb,2024-02-21_21h51.42.821,kallum_motion_pilot,2023.2.2,Win32,59.88023952,5eacad39ef271f3206810eeb,65d6bb0e977760de756971f7,65d6bd73f35ede804f6f2d1c,0.1524,0.1526,1,56,218,86,1,eightsix,,,,,,,,,,,,,,,,,,,,,,,,,,,,,,,,,,,,,,,,,,,,,,,,,,,,,,,,,,,,,,,,,,,,,,,,,,,,,,,,,,,,,,,,,,,,,,,,,,,,,,,,,,,,,,,,,,,,,,,,,,,,,,,,,,,,,,,,,
,,5eacad39ef271f3206810eeb,2024-02-21_21h51.42.821,kallum_motion_pilot,2023.2.2,Win32,59.88023952,5eacad39ef271f3206810eeb,65d6bb0e977760de756971f7,65d6bd73f35ede804f6f2d1c,0.1529,0.1532,1,57,219,139,1,sixeight,,,,,,,,,,,,,,,,,,,,,,,,,,,,,,,,,,,,,,,,,,,,,,,,,,,,,,,,,,,,,,,,,,,,,,,,,,,,,,,,,,,,,,,,,,,,,,,,,,,,,,,,,,,,,,,,,,,,,,,,,,,,,,,,,,,,,,,,,
,,5eacad39ef271f3206810eeb,2024-02-21_21h51.42.821,kallum_motion_pilot,2023.2.2,Win32,59.88023952,5eacad39ef271f3206810eeb,65d6bb0e977760de756971f7,65d6bd73f35ede804f6f2d1c,0.1535,0.1537,1,58,220,58,1,twoone,,,,,,,,,,,,,,,,,,,,,,,,,,,,,,,,,,,,,,,,,,,,,,,,,,,,,,,,,,,,,,,,,,,,,,,,,,,,,,,,,,,,,,,,,,,,,,,,,,,,,,,,,,,,,,,,,,,,,,,,,,,,,,,,,,,,,,,,,
,,5eacad39ef271f3206810eeb,2024-02-21_21h51.42.821,kallum_motion_pilot,2023.2.2,Win32,59.88023952,5eacad39ef271f3206810eeb,65d6bb0e977760de756971f7,65d6bd73f35ede804f6f2d1c,0.154,0.1542,1,59,221,85,1,seveneight,,,,,,,,,,,,,,,,,,,,,,,,,,,,,,,,,,,,,,,,,,,,,,,,,,,,,,,,,,,,,,,,,,,,,,,,,,,,,,,,,,,,,,,,,,,,,,,,,,,,,,,,,,,,,,,,,,,,,,,,,,,,,,,,,,,,,,,,,
,,5eacad39ef271f3206810eeb,2024-02-21_21h51.42.821,kallum_motion_pilot,2023.2.2,Win32,59.88023952,5eacad39ef271f3206810eeb,65d6bb0e977760de756971f7,65d6bd73f35ede804f6f2d1c,0.1544,0.1546,1,60,222,150,1,eightsix,,,,,,,,,,,,,,,,,,,,,,,,,,,,,,,,,,,,,,,,,,,,,,,,,,,,,,,,,,,,,,,,,,,,,,,,,,,,,,,,,,,,,,,,,,,,,,,,,,,,,,,,,,,,,,,,,,,,,,,,,,,,,,,,,,,,,,,,,
,,5eacad39ef271f3206810eeb,2024-02-21_21h51.42.821,kallum_motion_pilot,2023.2.2,Win32,59.88023952,5eacad39ef271f3206810eeb,65d6bb0e977760de756971f7,65d6bd73f35ede804f6f2d1c,0.1549,0.155,1,61,223,93,1,seveneight,,,,,,,,,,,,,,,,,,,,,,,,,,,,,,,,,,,,,,,,,,,,,,,,,,,,,,,,,,,,,,,,,,,,,,,,,,,,,,,,,,,,,,,,,,,,,,,,,,,,,,,,,,,,,,,,,,,,,,,,,,,,,,,,,,,,,,,,,
,,5eacad39ef271f3206810eeb,2024-02-21_21h51.42.821,kallum_motion_pilot,2023.2.2,Win32,59.88023952,5eacad39ef271f3206810eeb,65d6bb0e977760de756971f7,65d6bd73f35ede804f6f2d1c,0.1553,0.1556,1,62,224,131,1,sixeight,,,,,,,,,,,,,,,,,,,,,,,,,,,,,,,,,,,,,,,,,,,,,,,,,,,,,,,,,,,,,,,,,,,,,,,,,,,,,,,,,,,,,,,,,,,,,,,,,,,,,,,,,,,,,,,,,,,,,,,,,,,,,,,,,,,,,,,,,
,,5eacad39ef271f3206810eeb,2024-02-21_21h51.42.821,kallum_motion_pilot,2023.2.2,Win32,59.88023952,5eacad39ef271f3206810eeb,65d6bb0e977760de756971f7,65d6bd73f35ede804f6f2d1c,0.1558,0.156,1,63,225,12,1,threeone,,,,,,,,,,,,,,,,,,,,,,,,,,,,,,,,,,,,,,,,,,,,,,,,,,,,,,,,,,,,,,,,,,,,,,,,,,,,,,,,,,,,,,,,,,,,,,,,,,,,,,,,,,,,,,,,,,,,,,,,,,,,,,,,,,,,,,,,,
,,5eacad39ef271f3206810eeb,2024-02-21_21h51.42.821,kallum_motion_pilot,2023.2.2,Win32,59.88023952,5eacad39ef271f3206810eeb,65d6bb0e977760de756971f7,65d6bd73f35ede804f6f2d1c,0.1562,0.1565,1,64,226,128,1,fivesix,,,,,,,,,,,,,,,,,,,,,,,,,,,,,,,,,,,,,,,,,,,,,,,,,,,,,,,,,,,,,,,,,,,,,,,,,,,,,,,,,,,,,,,,,,,,,,,,,,,,,,,,,,,,,,,,,,,,,,,,,,,,,,,,,,,,,,,,,
,,5eacad39ef271f3206810eeb,2024-02-21_21h51.42.821,kallum_motion_pilot,2023.2.2,Win32,59.88023952,5eacad39ef271f3206810eeb,65d6bb0e977760de756971f7,65d6bd73f35ede804f6f2d1c,0.1567,0.1569,1,65,227,35,1,twofour,,,,,,,,,,,,,,,,,,,,,,,,,,,,,,,,,,,,,,,,,,,,,,,,,,,,,,,,,,,,,,,,,,,,,,,,,,,,,,,,,,,,,,,,,,,,,,,,,,,,,,,,,,,,,,,,,,,,,,,,,,,,,,,,,,,,,,,,,
,,5eacad39ef271f3206810eeb,2024-02-21_21h51.42.821,kallum_motion_pilot,2023.2.2,Win32,59.88023952,5eacad39ef271f3206810eeb,65d6bb0e977760de756971f7,65d6bd73f35ede804f6f2d1c,0.1572,0.1574,1,66,228,61,1,threefour,,,,,,,,,,,,,,,,,,,,,,,,,,,,,,,,,,,,,,,,,,,,,,,,,,,,,,,,,,,,,,,,,,,,,,,,,,,,,,,,,,,,,,,,,,,,,,,,,,,,,,,,,,,,,,,,,,,,,,,,,,,,,,,,,,,,,,,,,
,,5eacad39ef271f3206810eeb,2024-02-21_21h51.42.821,kallum_motion_pilot,2023.2.2,Win32,59.88023952,5eacad39ef271f3206810eeb,65d6bb0e977760de756971f7,65d6bd73f35ede804f6f2d1c,0.1576,0.1578,1,67,229,32,1,onetwo,,,,,,,,,,,,,,,,,,,,,,,,,,,,,,,,,,,,,,,,,,,,,,,,,,,,,,,,,,,,,,,,,,,,,,,,,,,,,,,,,,,,,,,,,,,,,,,,,,,,,,,,,,,,,,,,,,,,,,,,,,,,,,,,,,,,,,,,,
,,5eacad39ef271f3206810eeb,2024-02-21_21h51.42.821,kallum_motion_pilot,2023.2.2,Win32,59.88023952,5eacad39ef271f3206810eeb,65d6bb0e977760de756971f7,65d6bd73f35ede804f6f2d1c,0.1581,0.1583,1,68,230,27,1,twofour,,,,,,,,,,,,,,,,,,,,,,,,,,,,,,,,,,,,,,,,,,,,,,,,,,,,,,,,,,,,,,,,,,,,,,,,,,,,,,,,,,,,,,,,,,,,,,,,,,,,,,,,,,,,,,,,,,,,,,,,,,,,,,,,,,,,,,,,,
,,5eacad39ef271f3206810eeb,2024-02-21_21h51.42.821,kallum_motion_pilot,2023.2.2,Win32,59.88023952,5eacad39ef271f3206810eeb,65d6bb0e977760de756971f7,65d6bd73f35ede804f6f2d1c,0.1586,0.1588,1,69,231,122,1,sixfive,,,,,,,,,,,,,,,,,,,,,,,,,,,,,,,,,,,,,,,,,,,,,,,,,,,,,,,,,,,,,,,,,,,,,,,,,,,,,,,,,,,,,,,,,,,,,,,,,,,,,,,,,,,,,,,,,,,,,,,,,,,,,,,,,,,,,,,,,
,,5eacad39ef271f3206810eeb,2024-02-21_21h51.42.821,kallum_motion_pilot,2023.2.2,Win32,59.88023952,5eacad39ef271f3206810eeb,65d6bb0e977760de756971f7,65d6bd73f35ede804f6f2d1c,0.1591,0.1592,1,70,232,6,1,fourtwo,,,,,,,,,,,,,,,,,,,,,,,,,,,,,,,,,,,,,,,,,,,,,,,,,,,,,,,,,,,,,,,,,,,,,,,,,,,,,,,,,,,,,,,,,,,,,,,,,,,,,,,,,,,,,,,,,,,,,,,,,,,,,,,,,,,,,,,,,
,,5eacad39ef271f3206810eeb,2024-02-21_21h51.42.821,kallum_motion_pilot,2023.2.2,Win32,59.88023952,5eacad39ef271f3206810eeb,65d6bb0e977760de756971f7,65d6bd73f35ede804f6f2d1c,0.1594,0.1597,1,71,233,111,1,eightseven,,,,,,,,,,,,,,,,,,,,,,,,,,,,,,,,,,,,,,,,,,,,,,,,,,,,,,,,,,,,,,,,,,,,,,,,,,,,,,,,,,,,,,,,,,,,,,,,,,,,,,,,,,,,,,,,,,,,,,,,,,,,,,,,,,,,,,,,,
,,5eacad39ef271f3206810eeb,2024-02-21_21h51.42.821,kallum_motion_pilot,2023.2.2,Win32,59.88023952,5eacad39ef271f3206810eeb,65d6bb0e977760de756971f7,65d6bd73f35ede804f6f2d1c,0.1599,0.1602,1,72,234,56,1,onetwo,,,,,,,,,,,,,,,,,,,,,,,,,,,,,,,,,,,,,,,,,,,,,,,,,,,,,,,,,,,,,,,,,,,,,,,,,,,,,,,,,,,,,,,,,,,,,,,,,,,,,,,,,,,,,,,,,,,,,,,,,,,,,,,,,,,,,,,,,
,,5eacad39ef271f3206810eeb,2024-02-21_21h51.42.821,kallum_motion_pilot,2023.2.2,Win32,59.88023952,5eacad39ef271f3206810eeb,65d6bb0e977760de756971f7,65d6bd73f35ede804f6f2d1c,0.1604,0.1606,1,73,235,126,1,eightsix,,,,,,,,,,,,,,,,,,,,,,,,,,,,,,,,,,,,,,,,,,,,,,,,,,,,,,,,,,,,,,,,,,,,,,,,,,,,,,,,,,,,,,,,,,,,,,,,,,,,,,,,,,,,,,,,,,,,,,,,,,,,,,,,,,,,,,,,,
,,5eacad39ef271f3206810eeb,2024-02-21_21h51.42.821,kallum_motion_pilot,2023.2.2,Win32,59.88023952,5eacad39ef271f3206810eeb,65d6bb0e977760de756971f7,65d6bd73f35ede804f6f2d1c,0.1607,0.161,1,74,236,88,1,fivesix,,,,,,,,,,,,,,,,,,,,,,,,,,,,,,,,,,,,,,,,,,,,,,,,,,,,,,,,,,,,,,,,,,,,,,,,,,,,,,,,,,,,,,,,,,,,,,,,,,,,,,,,,,,,,,,,,,,,,,,,,,,,,,,,,,,,,,,,,
,,5eacad39ef271f3206810eeb,2024-02-21_21h51.42.821,kallum_motion_pilot,2023.2.2,Win32,59.88023952,5eacad39ef271f3206810eeb,65d6bb0e977760de756971f7,65d6bd73f35ede804f6f2d1c,0.1612,0.1615,1,75,237,39,1,fourthree,,,,,,,,,,,,,,,,,,,,,,,,,,,,,,,,,,,,,,,,,,,,,,,,,,,,,,,,,,,,,,,,,,,,,,,,,,,,,,,,,,,,,,,,,,,,,,,,,,,,,,,,,,,,,,,,,,,,,,,,,,,,,,,,,,,,,,,,,
,,5eacad39ef271f3206810eeb,2024-02-21_21h51.42.821,kallum_motion_pilot,2023.2.2,Win32,59.88023952,5eacad39ef271f3206810eeb,65d6bb0e977760de756971f7,65d6bd73f35ede804f6f2d1c,0.1618,0.1623,1,76,238,158,1,eightsix,,,,,,,,,,,,,,,,,,,,,,,,,,,,,,,,,,,,,,,,,,,,,,,,,,,,,,,,,,,,,,,,,,,,,,,,,,,,,,,,,,,,,,,,,,,,,,,,,,,,,,,,,,,,,,,,,,,,,,,,,,,,,,,,,,,,,,,,,
,,5eacad39ef271f3206810eeb,2024-02-21_21h51.42.821,kallum_motion_pilot,2023.2.2,Win32,59.88023952,5eacad39ef271f3206810eeb,65d6bb0e977760de756971f7,65d6bd73f35ede804f6f2d1c,0.1627,0.1629,1,77,239,89,1,fiveseven,,,,,,,,,,,,,,,,,,,,,,,,,,,,,,,,,,,,,,,,,,,,,,,,,,,,,,,,,,,,,,,,,,,,,,,,,,,,,,,,,,,,,,,,,,,,,,,,,,,,,,,,,,,,,,,,,,,,,,,,,,,,,,,,,,,,,,,,,
,,5eacad39ef271f3206810eeb,2024-02-21_21h51.42.821,kallum_motion_pilot,2023.2.2,Win32,59.88023952,5eacad39ef271f3206810eeb,65d6bb0e977760de756971f7,65d6bd73f35ede804f6f2d1c,0.1633,0.1636,1,78,240,87,1,eightseven,,,,,,,,,,,,,,,,,,,,,,,,,,,,,,,,,,,,,,,,,,,,,,,,,,,,,,,,,,,,,,,,,,,,,,,,,,,,,,,,,,,,,,,,,,,,,,,,,,,,,,,,,,,,,,,,,,,,,,,,,,,,,,,,,,,,,,,,,
,,5eacad39ef271f3206810eeb,2024-02-21_21h51.42.821,kallum_motion_pilot,2023.2.2,Win32,59.88023952,5eacad39ef271f3206810eeb,65d6bb0e977760de756971f7,65d6bd73f35ede804f6f2d1c,0.1639,0.1643,1,79,241,20,1,threeone,,,,,,,,,,,,,,,,,,,,,,,,,,,,,,,,,,,,,,,,,,,,,,,,,,,,,,,,,,,,,,,,,,,,,,,,,,,,,,,,,,,,,,,,,,,,,,,,,,,,,,,,,,,,,,,,,,,,,,,,,,,,,,,,,,,,,,,,,
,,5eacad39ef271f3206810eeb,2024-02-21_21h51.42.821,kallum_motion_pilot,2023.2.2,Win32,59.88023952,5eacad39ef271f3206810eeb,65d6bb0e977760de756971f7,65d6bd73f35ede804f6f2d1c,0.1651,0.1654,1,80,242,118,1,eightsix,,,,,,,,,,,,,,,,,,,,,,,,,,,,,,,,,,,,,,,,,,,,,,,,,,,,,,,,,,,,,,,,,,,,,,,,,,,,,,,,,,,,,,,,,,,,,,,,,,,,,,,,,,,,,,,,,,,,,,,,,,,,,,,,,,,,,,,,,
,,5eacad39ef271f3206810eeb,2024-02-21_21h51.42.821,kallum_motion_pilot,2023.2.2,Win32,59.88023952,5eacad39ef271f3206810eeb,65d6bb0e977760de756971f7,65d6bd73f35ede804f6f2d1c,0.1658,0.166,1,81,243,36,1,threeone,,,,,,,,,,,,,,,,,,,,,,,,,,,,,,,,,,,,,,,,,,,,,,,,,,,,,,,,,,,,,,,,,,,,,,,,,,,,,,,,,,,,,,,,,,,,,,,,,,,,,,,,,,,,,,,,,,,,,,,,,,,,,,,,,,,,,,,,,
,,5eacad39ef271f3206810eeb,2024-02-21_21h51.42.821,kallum_motion_pilot,2023.2.2,Win32,59.88023952,5eacad39ef271f3206810eeb,65d6bb0e977760de756971f7,65d6bd73f35ede804f6f2d1c,0.1663,0.1665,1,82,244,100,1,sevenfive,,,,,,,,,,,,,,,,,,,,,,,,,,,,,,,,,,,,,,,,,,,,,,,,,,,,,,,,,,,,,,,,,,,,,,,,,,,,,,,,,,,,,,,,,,,,,,,,,,,,,,,,,,,,,,,,,,,,,,,,,,,,,,,,,,,,,,,,,
,,5eacad39ef271f3206810eeb,2024-02-21_21h51.42.821,kallum_motion_pilot,2023.2.2,Win32,59.88023952,5eacad39ef271f3206810eeb,65d6bb0e977760de756971f7,65d6bd73f35ede804f6f2d1c,0.1669,0.1671,1,83,245,144,1,fivesix,,,,,,,,,,,,,,,,,,,,,,,,,,,,,,,,,,,,,,,,,,,,,,,,,,,,,,,,,,,,,,,,,,,,,,,,,,,,,,,,,,,,,,,,,,,,,,,,,,,,,,,,,,,,,,,,,,,,,,,,,,,,,,,,,,,,,,,,,
,,5eacad39ef271f3206810eeb,2024-02-21_21h51.42.821,kallum_motion_pilot,2023.2.2,Win32,59.88023952,5eacad39ef271f3206810eeb,65d6bb0e977760de756971f7,65d6bd73f35ede804f6f2d1c,0.1674,0.1677,1,84,246,17,1,onethree,,,,,,,,,,,,,,,,,,,,,,,,,,,,,,,,,,,,,,,,,,,,,,,,,,,,,,,,,,,,,,,,,,,,,,,,,,,,,,,,,,,,,,,,,,,,,,,,,,,,,,,,,,,,,,,,,,,,,,,,,,,,,,,,,,,,,,,,,
,,5eacad39ef271f3206810eeb,2024-02-21_21h51.42.821,kallum_motion_pilot,2023.2.2,Win32,59.88023952,5eacad39ef271f3206810eeb,65d6bb0e977760de756971f7,65d6bd73f35ede804f6f2d1c,0.168,0.1683,1,85,247,29,1,threefour,,,,,,,,,,,,,,,,,,,,,,,,,,,,,,,,,,,,,,,,,,,,,,,,,,,,,,,,,,,,,,,,,,,,,,,,,,,,,,,,,,,,,,,,,,,,,,,,,,,,,,,,,,,,,,,,,,,,,,,,,,,,,,,,,,,,,,,,,
,,5eacad39ef271f3206810eeb,2024-02-21_21h51.42.821,kallum_motion_pilot,2023.2.2,Win32,59.88023952,5eacad39ef271f3206810eeb,65d6bb0e977760de756971f7,65d6bd73f35ede804f6f2d1c,0.1686,0.1689,1,86,248,2,1,twoone,,,,,,,,,,,,,,,,,,,,,,,,,,,,,,,,,,,,,,,,,,,,,,,,,,,,,,,,,,,,,,,,,,,,,,,,,,,,,,,,,,,,,,,,,,,,,,,,,,,,,,,,,,,,,,,,,,,,,,,,,,,,,,,,,,,,,,,,,
,,5eacad39ef271f3206810eeb,2024-02-21_21h51.42.821,kallum_motion_pilot,2023.2.2,Win32,59.88023952,5eacad39ef271f3206810eeb,65d6bb0e977760de756971f7,65d6bd73f35ede804f6f2d1c,0.1692,0.1695,1,87,249,119,1,eightseven,,,,,,,,,,,,,,,,,,,,,,,,,,,,,,,,,,,,,,,,,,,,,,,,,,,,,,,,,,,,,,,,,,,,,,,,,,,,,,,,,,,,,,,,,,,,,,,,,,,,,,,,,,,,,,,,,,,,,,,,,,,,,,,,,,,,,,,,,
,,5eacad39ef271f3206810eeb,2024-02-21_21h51.42.821,kallum_motion_pilot,2023.2.2,Win32,59.88023952,5eacad39ef271f3206810eeb,65d6bb0e977760de756971f7,65d6bd73f35ede804f6f2d1c,0.1699,0.1701,1,88,250,40,1,onetwo,,,,,,,,,,,,,,,,,,,,,,,,,,,,,,,,,,,,,,,,,,,,,,,,,,,,,,,,,,,,,,,,,,,,,,,,,,,,,,,,,,,,,,,,,,,,,,,,,,,,,,,,,,,,,,,,,,,,,,,,,,,,,,,,,,,,,,,,,
,,5eacad39ef271f3206810eeb,2024-02-21_21h51.42.821,kallum_motion_pilot,2023.2.2,Win32,59.88023952,5eacad39ef271f3206810eeb,65d6bb0e977760de756971f7,65d6bd73f35ede804f6f2d1c,0.1703,0.1706,1,89,251,84,1,sevenfive,,,,,,,,,,,,,,,,,,,,,,,,,,,,,,,,,,,,,,,,,,,,,,,,,,,,,,,,,,,,,,,,,,,,,,,,,,,,,,,,,,,,,,,,,,,,,,,,,,,,,,,,,,,,,,,,,,,,,,,,,,,,,,,,,,,,,,,,,
,,5eacad39ef271f3206810eeb,2024-02-21_21h51.42.821,kallum_motion_pilot,2023.2.2,Win32,59.88023952,5eacad39ef271f3206810eeb,65d6bb0e977760de756971f7,65d6bd73f35ede804f6f2d1c,0.1709,0.1711,1,90,252,157,1,seveneight,,,,,,,,,,,,,,,,,,,,,,,,,,,,,,,,,,,,,,,,,,,,,,,,,,,,,,,,,,,,,,,,,,,,,,,,,,,,,,,,,,,,,,,,,,,,,,,,,,,,,,,,,,,,,,,,,,,,,,,,,,,,,,,,,,,,,,,,,
,,5eacad39ef271f3206810eeb,2024-02-21_21h51.42.821,kallum_motion_pilot,2023.2.2,Win32,59.88023952,5eacad39ef271f3206810eeb,65d6bb0e977760de756971f7,65d6bd73f35ede804f6f2d1c,0.1714,0.1715,1,91,253,152,1,fivesix,,,,,,,,,,,,,,,,,,,,,,,,,,,,,,,,,,,,,,,,,,,,,,,,,,,,,,,,,,,,,,,,,,,,,,,,,,,,,,,,,,,,,,,,,,,,,,,,,,,,,,,,,,,,,,,,,,,,,,,,,,,,,,,,,,,,,,,,,
,,5eacad39ef271f3206810eeb,2024-02-21_21h51.42.821,kallum_motion_pilot,2023.2.2,Win32,59.88023952,5eacad39ef271f3206810eeb,65d6bb0e977760de756971f7,65d6bd73f35ede804f6f2d1c,0.1718,0.1721,1,92,254,22,1,fourtwo,,,,,,,,,,,,,,,,,,,,,,,,,,,,,,,,,,,,,,,,,,,,,,,,,,,,,,,,,,,,,,,,,,,,,,,,,,,,,,,,,,,,,,,,,,,,,,,,,,,,,,,,,,,,,,,,,,,,,,,,,,,,,,,,,,,,,,,,,
,,5eacad39ef271f3206810eeb,2024-02-21_21h51.42.821,kallum_motion_pilot,2023.2.2,Win32,59.88023952,5eacad39ef271f3206810eeb,65d6bb0e977760de756971f7,65d6bd73f35ede804f6f2d1c,0.1726,0.1728,1,93,255,113,1,fiveseven,,,,,,,,,,,,,,,,,,,,,,,,,,,,,,,,,,,,,,,,,,,,,,,,,,,,,,,,,,,,,,,,,,,,,,,,,,,,,,,,,,,,,,,,,,,,,,,,,,,,,,,,,,,,,,,,,,,,,,,,,,,,,,,,,,,,,,,,,
,,5eacad39ef271f3206810eeb,2024-02-21_21h51.42.821,kallum_motion_pilot,2023.2.2,Win32,59.88023952,5eacad39ef271f3206810eeb,65d6bb0e977760de756971f7,65d6bd73f35ede804f6f2d1c,0.1732,0.1734,1,94,256,161,1,fiveseven,,,,,,,,,,,,,,,,,,,,,,,,,,,,,,,,,,,,,,,,,,,,,,,,,,,,,,,,,,,,,,,,,,,,,,,,,,,,,,,,,,,,,,,,,,,,,,,,,,,,,,,,,,,,,,,,,,,,,,,,,,,,,,,,,,,,,,,,,
,,5eacad39ef271f3206810eeb,2024-02-21_21h51.42.821,kallum_motion_pilot,2023.2.2,Win32,59.88023952,5eacad39ef271f3206810eeb,65d6bb0e977760de756971f7,65d6bd73f35ede804f6f2d1c,0.1737,0.1741,1,95,257,31,1,fourthree,,,,,,,,,,,,,,,,,,,,,,,,,,,,,,,,,,,,,,,,,,,,,,,,,,,,,,,,,,,,,,,,,,,,,,,,,,,,,,,,,,,,,,,,,,,,,,,,,,,,,,,,,,,,,,,,,,,,,,,,,,,,,,,,,,,,,,,,,
,,5eacad39ef271f3206810eeb,2024-02-21_21h51.42.821,kallum_motion_pilot,2023.2.2,Win32,59.88023952,5eacad39ef271f3206810eeb,65d6bb0e977760de756971f7,65d6bd73f35ede804f6f2d1c,0.1745,0.1747,1,96,258,117,1,seveneight,,,,,,,,,,,,,,,,,,,,,,,,,,,,,,,,,,,,,,,,,,,,,,,,,,,,,,,,,,,,,,,,,,,,,,,,,,,,,,,,,,,,,,,,,,,,,,,,,,,,,,,,,,,,,,,,,,,,,,,,,,,,,,,,,,,,,,,,,
,,5eacad39ef271f3206810eeb,2024-02-21_21h51.42.821,kallum_motion_pilot,2023.2.2,Win32,59.88023952,5eacad39ef271f3206810eeb,65d6bb0e977760de756971f7,65d6bd73f35ede804f6f2d1c,0.1751,0.1753,1,97,259,104,1,fivesix,,,,,,,,,,,,,,,,,,,,,,,,,,,,,,,,,,,,,,,,,,,,,,,,,,,,,,,,,,,,,,,,,,,,,,,,,,,,,,,,,,,,,,,,,,,,,,,,,,,,,,,,,,,,,,,,,,,,,,,,,,,,,,,,,,,,,,,,,
,,5eacad39ef271f3206810eeb,2024-02-21_21h51.42.821,kallum_motion_pilot,2023.2.2,Win32,59.88023952,5eacad39ef271f3206810eeb,65d6bb0e977760de756971f7,65d6bd73f35ede804f6f2d1c,0.1757,0.1759,1,98,260,123,1,sixeight,,,,,,,,,,,,,,,,,,,,,,,,,,,,,,,,,,,,,,,,,,,,,,,,,,,,,,,,,,,,,,,,,,,,,,,,,,,,,,,,,,,,,,,,,,,,,,,,,,,,,,,,,,,,,,,,,,,,,,,,,,,,,,,,,,,,,,,,,
,,5eacad39ef271f3206810eeb,2024-02-21_21h51.42.821,kallum_motion_pilot,2023.2.2,Win32,59.88023952,5eacad39ef271f3206810eeb,65d6bb0e977760de756971f7,65d6bd73f35ede804f6f2d1c,0.1762,0.1764,1,99,261,134,1,eightsix,,,,,,,,,,,,,,,,,,,,,,,,,,,,,,,,,,,,,,,,,,,,,,,,,,,,,,,,,,,,,,,,,,,,,,,,,,,,,,,,,,,,,,,,,,,,,,,,,,,,,,,,,,,,,,,,,,,,,,,,,,,,,,,,,,,,,,,,,
,,5eacad39ef271f3206810eeb,2024-02-21_21h51.42.821,kallum_motion_pilot,2023.2.2,Win32,59.88023952,5eacad39ef271f3206810eeb,65d6bb0e977760de756971f7,65d6bd73f35ede804f6f2d1c,0.1767,0.177,1,100,262,107,1,sixeight,,,,,,,,,,,,,,,,,,,,,,,,,,,,,,,,,,,,,,,,,,,,,,,,,,,,,,,,,,,,,,,,,,,,,,,,,,,,,,,,,,,,,,,,,,,,,,,,,,,,,,,,,,,,,,,,,,,,,,,,,,,,,,,,,,,,,,,,,
,,5eacad39ef271f3206810eeb,2024-02-21_21h51.42.821,kallum_motion_pilot,2023.2.2,Win32,59.88023952,5eacad39ef271f3206810eeb,65d6bb0e977760de756971f7,65d6bd73f35ede804f6f2d1c,0.1773,0.1777,1,101,263,120,1,fivesix,,,,,,,,,,,,,,,,,,,,,,,,,,,,,,,,,,,,,,,,,,,,,,,,,,,,,,,,,,,,,,,,,,,,,,,,,,,,,,,,,,,,,,,,,,,,,,,,,,,,,,,,,,,,,,,,,,,,,,,,,,,,,,,,,,,,,,,,,
,,5eacad39ef271f3206810eeb,2024-02-21_21h51.42.821,kallum_motion_pilot,2023.2.2,Win32,59.88023952,5eacad39ef271f3206810eeb,65d6bb0e977760de756971f7,65d6bd73f35ede804f6f2d1c,0.1783,0.1787,1,102,264,103,1,eightseven,,,,,,,,,,,,,,,,,,,,,,,,,,,,,,,,,,,,,,,,,,,,,,,,,,,,,,,,,,,,,,,,,,,,,,,,,,,,,,,,,,,,,,,,,,,,,,,,,,,,,,,,,,,,,,,,,,,,,,,,,,,,,,,,,,,,,,,,,
,,5eacad39ef271f3206810eeb,2024-02-21_21h51.42.821,kallum_motion_pilot,2023.2.2,Win32,59.88023952,5eacad39ef271f3206810eeb,65d6bb0e977760de756971f7,65d6bd73f35ede804f6f2d1c,0.179,0.1793,1,103,265,48,1,onetwo,,,,,,,,,,,,,,,,,,,,,,,,,,,,,,,,,,,,,,,,,,,,,,,,,,,,,,,,,,,,,,,,,,,,,,,,,,,,,,,,,,,,,,,,,,,,,,,,,,,,,,,,,,,,,,,,,,,,,,,,,,,,,,,,,,,,,,,,,
,,5eacad39ef271f3206810eeb,2024-02-21_21h51.42.821,kallum_motion_pilot,2023.2.2,Win32,59.88023952,5eacad39ef271f3206810eeb,65d6bb0e977760de756971f7,65d6bd73f35ede804f6f2d1c,0.1796,0.1799,1,104,266,72,1,onetwo,,,,,,,,,,,,,,,,,,,,,,,,,,,,,,,,,,,,,,,,,,,,,,,,,,,,,,,,,,,,,,,,,,,,,,,,,,,,,,,,,,,,,,,,,,,,,,,,,,,,,,,,,,,,,,,,,,,,,,,,,,,,,,,,,,,,,,,,,
,,5eacad39ef271f3206810eeb,2024-02-21_21h51.42.821,kallum_motion_pilot,2023.2.2,Win32,59.88023952,5eacad39ef271f3206810eeb,65d6bb0e977760de756971f7,65d6bd73f35ede804f6f2d1c,0.1802,0.1804,1,105,267,135,1,eightseven,,,,,,,,,,,,,,,,,,,,,,,,,,,,,,,,,,,,,,,,,,,,,,,,,,,,,,,,,,,,,,,,,,,,,,,,,,,,,,,,,,,,,,,,,,,,,,,,,,,,,,,,,,,,,,,,,,,,,,,,,,,,,,,,,,,,,,,,,
,,5eacad39ef271f3206810eeb,2024-02-21_21h51.42.821,kallum_motion_pilot,2023.2.2,Win32,59.88023952,5eacad39ef271f3206810eeb,65d6bb0e977760de756971f7,65d6bd73f35ede804f6f2d1c,0.1806,0.181,1,106,268,80,1,fivesix,,,,,,,,,,,,,,,,,,,,,,,,,,,,,,,,,,,,,,,,,,,,,,,,,,,,,,,,,,,,,,,,,,,,,,,,,,,,,,,,,,,,,,,,,,,,,,,,,,,,,,,,,,,,,,,,,,,,,,,,,,,,,,,,,,,,,,,,,
,,5eacad39ef271f3206810eeb,2024-02-21_21h51.42.821,kallum_motion_pilot,2023.2.2,Win32,59.88023952,5eacad39ef271f3206810eeb,65d6bb0e977760de756971f7,65d6bd73f35ede804f6f2d1c,0.1814,0.1817,1,107,269,68,1,threeone,,,,,,,,,,,,,,,,,,,,,,,,,,,,,,,,,,,,,,,,,,,,,,,,,,,,,,,,,,,,,,,,,,,,,,,,,,,,,,,,,,,,,,,,,,,,,,,,,,,,,,,,,,,,,,,,,,,,,,,,,,,,,,,,,,,,,,,,,
,,5eacad39ef271f3206810eeb,2024-02-21_21h51.42.821,kallum_motion_pilot,2023.2.2,Win32,59.88023952,5eacad39ef271f3206810eeb,65d6bb0e977760de756971f7,65d6bd73f35ede804f6f2d1c,0.1821,0.1828,1,108,270,143,1,eightseven,,,,,,,,,,,,,,,,,,,,,,,,,,,,,,,,,,,,,,,,,,,,,,,,,,,,,,,,,,,,,,,,,,,,,,,,,,,,,,,,,,,,,,,,,,,,,,,,,,,,,,,,,,,,,,,,,,,,,,,,,,,,,,,,,,,,,,,,,
,,5eacad39ef271f3206810eeb,2024-02-21_21h51.42.821,kallum_motion_pilot,2023.2.2,Win32,59.88023952,5eacad39ef271f3206810eeb,65d6bb0e977760de756971f7,65d6bd73f35ede804f6f2d1c,0.1831,0.1834,1,109,271,110,1,eightsix,,,,,,,,,,,,,,,,,,,,,,,,,,,,,,,,,,,,,,,,,,,,,,,,,,,,,,,,,,,,,,,,,,,,,,,,,,,,,,,,,,,,,,,,,,,,,,,,,,,,,,,,,,,,,,,,,,,,,,,,,,,,,,,,,,,,,,,,,
,,5eacad39ef271f3206810eeb,2024-02-21_21h51.42.821,kallum_motion_pilot,2023.2.2,Win32,59.88023952,5eacad39ef271f3206810eeb,65d6bb0e977760de756971f7,65d6bd73f35ede804f6f2d1c,0.1836,0.1839,1,110,272,49,1,onethree,,,,,,,,,,,,,,,,,,,,,,,,,,,,,,,,,,,,,,,,,,,,,,,,,,,,,,,,,,,,,,,,,,,,,,,,,,,,,,,,,,,,,,,,,,,,,,,,,,,,,,,,,,,,,,,,,,,,,,,,,,,,,,,,,,,,,,,,,
,,5eacad39ef271f3206810eeb,2024-02-21_21h51.42.821,kallum_motion_pilot,2023.2.2,Win32,59.88023952,5eacad39ef271f3206810eeb,65d6bb0e977760de756971f7,65d6bd73f35ede804f6f2d1c,0.1842,0.1844,1,111,273,24,1,onetwo,,,,,,,,,,,,,,,,,,,,,,,,,,,,,,,,,,,,,,,,,,,,,,,,,,,,,,,,,,,,,,,,,,,,,,,,,,,,,,,,,,,,,,,,,,,,,,,,,,,,,,,,,,,,,,,,,,,,,,,,,,,,,,,,,,,,,,,,,
,,5eacad39ef271f3206810eeb,2024-02-21_21h51.42.821,kallum_motion_pilot,2023.2.2,Win32,59.88023952,5eacad39ef271f3206810eeb,65d6bb0e977760de756971f7,65d6bd73f35ede804f6f2d1c,0.1847,0.185,1,112,274,13,1,threefour,,,,,,,,,,,,,,,,,,,,,,,,,,,,,,,,,,,,,,,,,,,,,,,,,,,,,,,,,,,,,,,,,,,,,,,,,,,,,,,,,,,,,,,,,,,,,,,,,,,,,,,,,,,,,,,,,,,,,,,,,,,,,,,,,,,,,,,,,
,,5eacad39ef271f3206810eeb,2024-02-21_21h51.42.821,kallum_motion_pilot,2023.2.2,Win32,59.88023952,5eacad39ef271f3206810eeb,65d6bb0e977760de756971f7,65d6bd73f35ede804f6f2d1c,0.1852,0.1855,1,113,275,43,1,twofour,,,,,,,,,,,,,,,,,,,,,,,,,,,,,,,,,,,,,,,,,,,,,,,,,,,,,,,,,,,,,,,,,,,,,,,,,,,,,,,,,,,,,,,,,,,,,,,,,,,,,,,,,,,,,,,,,,,,,,,,,,,,,,,,,,,,,,,,,
,,5eacad39ef271f3206810eeb,2024-02-21_21h51.42.821,kallum_motion_pilot,2023.2.2,Win32,59.88023952,5eacad39ef271f3206810eeb,65d6bb0e977760de756971f7,65d6bd73f35ede804f6f2d1c,0.1857,0.186,1,114,276,41,1,onethree,,,,,,,,,,,,,,,,,,,,,,,,,,,,,,,,,,,,,,,,,,,,,,,,,,,,,,,,,,,,,,,,,,,,,,,,,,,,,,,,,,,,,,,,,,,,,,,,,,,,,,,,,,,,,,,,,,,,,,,,,,,,,,,,,,,,,,,,,
,,5eacad39ef271f3206810eeb,2024-02-21_21h51.42.821,kallum_motion_pilot,2023.2.2,Win32,59.88023952,5eacad39ef271f3206810eeb,65d6bb0e977760de756971f7,65d6bd73f35ede804f6f2d1c,0.1863,0.1866,1,115,277,91,1,sixeight,,,,,,,,,,,,,,,,,,,,,,,,,,,,,,,,,,,,,,,,,,,,,,,,,,,,,,,,,,,,,,,,,,,,,,,,,,,,,,,,,,,,,,,,,,,,,,,,,,,,,,,,,,,,,,,,,,,,,,,,,,,,,,,,,,,,,,,,,
