startup.started,startup.stopped,Prolific ID*,date,expName,psychopyVersion,OS,frameRate,participant,study_id,session,stimpositions.started,stimpositions.stopped,hardcoded_stimulus_positions.thisRepN,hardcoded_stimulus_positions.thisTrialN,hardcoded_stimulus_positions.thisN,hardcoded_stimulus_positions.thisIndex,hardcoded_stimulus_positions.ran,StimulusPos,stimorientation.started,stimorientation.stopped,prac_stimorientation_import_loop.thisRepN,prac_stimorientation_import_loop.thisTrialN,prac_stimorientation_import_loop.thisN,prac_stimorientation_import_loop.thisIndex,prac_stimorientation_import_loop.ran,Stimorientation,welcome_instr.started,welcome_instr.stopped,key_resp.keys,key_resp.rt,key_resp.duration,response_steppedout_1.started,response_steppedout_1.stopped,key_resp_20.keys,key_resp_20.rt,key_resp_20.duration,response_steppedout_2.started,response_steppedout_2.stopped,key_resp_19.keys,key_resp_19.rt,key_resp_19.duration,stim_response_instr.started,stim_response_instr.stopped,key_resp_15.keys,key_resp_15.rt,key_resp_15.duration,direction_instr_2.started,direction_instr_2.stopped,key_resp_9.keys,key_resp_9.rt,key_resp_9.duration,instr_prac.started,instr_prac.stopped,key_resp_10.keys,key_resp_10.rt,key_resp_10.duration,Stim1_display_prac.started,Stim1_display_prac.stopped,Ecc,Circle1_ori,Circle2_ori,response_prac.started,similarity,response_time,response_prac.stopped,mouse_5.x,mouse_5.y,mouse_5.leftButton,mouse_5.midButton,mouse_5.rightButton,mouse_5.clicked_name,responseprac_feedback.started,responseprac_feedback.stopped,summary2_prac.started,summary2_prac.stopped,mouse_6.x,mouse_6.y,mouse_6.leftButton,mouse_6.midButton,mouse_6.rightButton,mouse_6.clicked_name,duringprac.thisRepN,duringprac.thisTrialN,duringprac.thisN,duringprac.thisIndex,duringprac.ran,begin.started,begin.stopped,key_resp_22.keys,key_resp_22.rt,key_resp_22.duration,Stim1_display.started,Stim1_display.stopped,circle1_ori,circle2_ori,circle1_SF,circle2_SF,response.started,response.stopped,mouse.x,mouse.y,mouse.leftButton,mouse.midButton,mouse.rightButton,mouse.clicked_name,trialnumber,double_pass.thisRepN,double_pass.thisTrialN,double_pass.thisN,double_pass.thisIndex,double_pass.ran,double_pass.order,main_trial.thisRepN,main_trial.thisTrialN,main_trial.thisN,main_trial.thisIndex,main_trial.ran,main_trial.order,Trial_Counter,Catch,Frequencies,response_2.started,response_2.stopped,mouse_2.x,mouse_2.y,mouse_2.leftButton,mouse_2.midButton,mouse_2.rightButton,mouse_2.clicked_name,special_trial.started,special_trial.stopped,catch_1.started,catch_1.stopped,mouse_3.x,mouse_3.y,mouse_3.leftButton,mouse_3.midButton,mouse_3.rightButton,catchresponse,catchnumber,response_time_catch,response_sum.started,response_sum.stopped,mouse_11.x,mouse_11.y,mouse_11.leftButton,mouse_11.midButton,mouse_11.rightButton,flip_presentation_sequence_for_double_pass.started,flip_presentation_sequence_for_double_pass.stopped,goodbye.started,goodbye.stopped,key_resp_3.keys,key_resp_3.rt,key_resp_3.duration
0.001,0.001,5eb202e64441603692ca7d2c,2024-02-21_21h21.20.089,kallum_motion_pilot,2023.2.2,Win32,166.6666667,5eb202e64441603692ca7d2c,65d6bb0e977760de756971f7,65d6bd9221814f9ceb730300,,,,,,,,,,,,,,,,,,,,,,,,,,,,,,,,,,,,,,,,,,,,,,,,,,,,,,,,,,,,,,,,,,,,,,,,,,,,,,,,,,,,,,,,,,,,,,,,,,,,,,,,,,,,,,,,,,,,,,,,,,,,,,,,,,,,,,,,,,,,,,,,,
,,5eb202e64441603692ca7d2c,2024-02-21_21h21.20.089,kallum_motion_pilot,2023.2.2,Win32,166.6666667,5eb202e64441603692ca7d2c,65d6bb0e977760de756971f7,65d6bd9221814f9ceb730300,0.029,0.029,0,0,0,5,1,threefour,,,,,,,,,,,,,,,,,,,,,,,,,,,,,,,,,,,,,,,,,,,,,,,,,,,,,,,,,,,,,,,,,,,,,,,,,,,,,,,,,,,,,,,,,,,,,,,,,,,,,,,,,,,,,,,,,,,,,,,,,,,,,,,,,,,,,,,,,
,,5eb202e64441603692ca7d2c,2024-02-21_21h21.20.089,kallum_motion_pilot,2023.2.2,Win32,166.6666667,5eb202e64441603692ca7d2c,65d6bb0e977760de756971f7,65d6bd9221814f9ceb730300,0.029,0.029,0,1,1,34,1,twoone,,,,,,,,,,,,,,,,,,,,,,,,,,,,,,,,,,,,,,,,,,,,,,,,,,,,,,,,,,,,,,,,,,,,,,,,,,,,,,,,,,,,,,,,,,,,,,,,,,,,,,,,,,,,,,,,,,,,,,,,,,,,,,,,,,,,,,,,,
,,5eb202e64441603692ca7d2c,2024-02-21_21h21.20.089,kallum_motion_pilot,2023.2.2,Win32,166.6666667,5eb202e64441603692ca7d2c,65d6bb0e977760de756971f7,65d6bd9221814f9ceb730300,0.029,0.029,0,2,2,95,1,eightseven,,,,,,,,,,,,,,,,,,,,,,,,,,,,,,,,,,,,,,,,,,,,,,,,,,,,,,,,,,,,,,,,,,,,,,,,,,,,,,,,,,,,,,,,,,,,,,,,,,,,,,,,,,,,,,,,,,,,,,,,,,,,,,,,,,,,,,,,,
,,5eb202e64441603692ca7d2c,2024-02-21_21h21.20.089,kallum_motion_pilot,2023.2.2,Win32,166.6666667,5eb202e64441603692ca7d2c,65d6bb0e977760de756971f7,65d6bd9221814f9ceb730300,0.03,0.03,0,3,3,32,1,onetwo,,,,,,,,,,,,,,,,,,,,,,,,,,,,,,,,,,,,,,,,,,,,,,,,,,,,,,,,,,,,,,,,,,,,,,,,,,,,,,,,,,,,,,,,,,,,,,,,,,,,,,,,,,,,,,,,,,,,,,,,,,,,,,,,,,,,,,,,,
,,5eb202e64441603692ca7d2c,2024-02-21_21h21.20.089,kallum_motion_pilot,2023.2.2,Win32,166.6666667,5eb202e64441603692ca7d2c,65d6bb0e977760de756971f7,65d6bd9221814f9ceb730300,0.03,0.03,0,4,4,24,1,onetwo,,,,,,,,,,,,,,,,,,,,,,,,,,,,,,,,,,,,,,,,,,,,,,,,,,,,,,,,,,,,,,,,,,,,,,,,,,,,,,,,,,,,,,,,,,,,,,,,,,,,,,,,,,,,,,,,,,,,,,,,,,,,,,,,,,,,,,,,,
,,5eb202e64441603692ca7d2c,2024-02-21_21h21.20.089,kallum_motion_pilot,2023.2.2,Win32,166.6666667,5eb202e64441603692ca7d2c,65d6bb0e977760de756971f7,65d6bd9221814f9ceb730300,0.03,0.03,0,5,5,96,1,fivesix,,,,,,,,,,,,,,,,,,,,,,,,,,,,,,,,,,,,,,,,,,,,,,,,,,,,,,,,,,,,,,,,,,,,,,,,,,,,,,,,,,,,,,,,,,,,,,,,,,,,,,,,,,,,,,,,,,,,,,,,,,,,,,,,,,,,,,,,,
,,5eb202e64441603692ca7d2c,2024-02-21_21h21.20.089,kallum_motion_pilot,2023.2.2,Win32,166.6666667,5eb202e64441603692ca7d2c,65d6bb0e977760de756971f7,65d6bd9221814f9ceb730300,0.03,0.03,0,6,6,117,1,seveneight,,,,,,,,,,,,,,,,,,,,,,,,,,,,,,,,,,,,,,,,,,,,,,,,,,,,,,,,,,,,,,,,,,,,,,,,,,,,,,,,,,,,,,,,,,,,,,,,,,,,,,,,,,,,,,,,,,,,,,,,,,,,,,,,,,,,,,,,,
,,5eb202e64441603692ca7d2c,2024-02-21_21h21.20.089,kallum_motion_pilot,2023.2.2,Win32,166.6666667,5eb202e64441603692ca7d2c,65d6bb0e977760de756971f7,65d6bd9221814f9ceb730300,0.03,0.03,0,7,7,144,1,fivesix,,,,,,,,,,,,,,,,,,,,,,,,,,,,,,,,,,,,,,,,,,,,,,,,,,,,,,,,,,,,,,,,,,,,,,,,,,,,,,,,,,,,,,,,,,,,,,,,,,,,,,,,,,,,,,,,,,,,,,,,,,,,,,,,,,,,,,,,,
,,5eb202e64441603692ca7d2c,2024-02-21_21h21.20.089,kallum_motion_pilot,2023.2.2,Win32,166.6666667,5eb202e64441603692ca7d2c,65d6bb0e977760de756971f7,65d6bd9221814f9ceb730300,0.031,0.031,0,8,8,19,1,twofour,,,,,,,,,,,,,,,,,,,,,,,,,,,,,,,,,,,,,,,,,,,,,,,,,,,,,,,,,,,,,,,,,,,,,,,,,,,,,,,,,,,,,,,,,,,,,,,,,,,,,,,,,,,,,,,,,,,,,,,,,,,,,,,,,,,,,,,,,
,,5eb202e64441603692ca7d2c,2024-02-21_21h21.20.089,kallum_motion_pilot,2023.2.2,Win32,166.6666667,5eb202e64441603692ca7d2c,65d6bb0e977760de756971f7,65d6bd9221814f9ceb730300,0.031,0.031,0,9,9,111,1,eightseven,,,,,,,,,,,,,,,,,,,,,,,,,,,,,,,,,,,,,,,,,,,,,,,,,,,,,,,,,,,,,,,,,,,,,,,,,,,,,,,,,,,,,,,,,,,,,,,,,,,,,,,,,,,,,,,,,,,,,,,,,,,,,,,,,,,,,,,,,
,,5eb202e64441603692ca7d2c,2024-02-21_21h21.20.089,kallum_motion_pilot,2023.2.2,Win32,166.6666667,5eb202e64441603692ca7d2c,65d6bb0e977760de756971f7,65d6bd9221814f9ceb730300,0.031,0.031,0,10,10,10,1,twoone,,,,,,,,,,,,,,,,,,,,,,,,,,,,,,,,,,,,,,,,,,,,,,,,,,,,,,,,,,,,,,,,,,,,,,,,,,,,,,,,,,,,,,,,,,,,,,,,,,,,,,,,,,,,,,,,,,,,,,,,,,,,,,,,,,,,,,,,,
,,5eb202e64441603692ca7d2c,2024-02-21_21h21.20.089,kallum_motion_pilot,2023.2.2,Win32,166.6666667,5eb202e64441603692ca7d2c,65d6bb0e977760de756971f7,65d6bd9221814f9ceb730300,0.031,0.031,0,11,11,51,1,twofour,,,,,,,,,,,,,,,,,,,,,,,,,,,,,,,,,,,,,,,,,,,,,,,,,,,,,,,,,,,,,,,,,,,,,,,,,,,,,,,,,,,,,,,,,,,,,,,,,,,,,,,,,,,,,,,,,,,,,,,,,,,,,,,,,,,,,,,,,
,,5eb202e64441603692ca7d2c,2024-02-21_21h21.20.089,kallum_motion_pilot,2023.2.2,Win32,166.6666667,5eb202e64441603692ca7d2c,65d6bb0e977760de756971f7,65d6bd9221814f9ceb730300,0.031,0.031,0,12,12,60,1,threeone,,,,,,,,,,,,,,,,,,,,,,,,,,,,,,,,,,,,,,,,,,,,,,,,,,,,,,,,,,,,,,,,,,,,,,,,,,,,,,,,,,,,,,,,,,,,,,,,,,,,,,,,,,,,,,,,,,,,,,,,,,,,,,,,,,,,,,,,,
,,5eb202e64441603692ca7d2c,2024-02-21_21h21.20.089,kallum_motion_pilot,2023.2.2,Win32,166.6666667,5eb202e64441603692ca7d2c,65d6bb0e977760de756971f7,65d6bd9221814f9ceb730300,0.032,0.032,0,13,13,46,1,fourtwo,,,,,,,,,,,,,,,,,,,,,,,,,,,,,,,,,,,,,,,,,,,,,,,,,,,,,,,,,,,,,,,,,,,,,,,,,,,,,,,,,,,,,,,,,,,,,,,,,,,,,,,,,,,,,,,,,,,,,,,,,,,,,,,,,,,,,,,,,
,,5eb202e64441603692ca7d2c,2024-02-21_21h21.20.089,kallum_motion_pilot,2023.2.2,Win32,166.6666667,5eb202e64441603692ca7d2c,65d6bb0e977760de756971f7,65d6bd9221814f9ceb730300,0.032,0.032,0,14,14,42,1,twoone,,,,,,,,,,,,,,,,,,,,,,,,,,,,,,,,,,,,,,,,,,,,,,,,,,,,,,,,,,,,,,,,,,,,,,,,,,,,,,,,,,,,,,,,,,,,,,,,,,,,,,,,,,,,,,,,,,,,,,,,,,,,,,,,,,,,,,,,,
,,5eb202e64441603692ca7d2c,2024-02-21_21h21.20.089,kallum_motion_pilot,2023.2.2,Win32,166.6666667,5eb202e64441603692ca7d2c,65d6bb0e977760de756971f7,65d6bd9221814f9ceb730300,0.032,0.032,0,15,15,159,1,eightseven,,,,,,,,,,,,,,,,,,,,,,,,,,,,,,,,,,,,,,,,,,,,,,,,,,,,,,,,,,,,,,,,,,,,,,,,,,,,,,,,,,,,,,,,,,,,,,,,,,,,,,,,,,,,,,,,,,,,,,,,,,,,,,,,,,,,,,,,,
,,5eb202e64441603692ca7d2c,2024-02-21_21h21.20.089,kallum_motion_pilot,2023.2.2,Win32,166.6666667,5eb202e64441603692ca7d2c,65d6bb0e977760de756971f7,65d6bd9221814f9ceb730300,0.032,0.032,0,16,16,70,1,fourtwo,,,,,,,,,,,,,,,,,,,,,,,,,,,,,,,,,,,,,,,,,,,,,,,,,,,,,,,,,,,,,,,,,,,,,,,,,,,,,,,,,,,,,,,,,,,,,,,,,,,,,,,,,,,,,,,,,,,,,,,,,,,,,,,,,,,,,,,,,
,,5eb202e64441603692ca7d2c,2024-02-21_21h21.20.089,kallum_motion_pilot,2023.2.2,Win32,166.6666667,5eb202e64441603692ca7d2c,65d6bb0e977760de756971f7,65d6bd9221814f9ceb730300,0.032,0.032,0,17,17,41,1,onethree,,,,,,,,,,,,,,,,,,,,,,,,,,,,,,,,,,,,,,,,,,,,,,,,,,,,,,,,,,,,,,,,,,,,,,,,,,,,,,,,,,,,,,,,,,,,,,,,,,,,,,,,,,,,,,,,,,,,,,,,,,,,,,,,,,,,,,,,,
,,5eb202e64441603692ca7d2c,2024-02-21_21h21.20.089,kallum_motion_pilot,2023.2.2,Win32,166.6666667,5eb202e64441603692ca7d2c,65d6bb0e977760de756971f7,65d6bd9221814f9ceb730300,0.032,0.032,0,18,18,3,1,twofour,,,,,,,,,,,,,,,,,,,,,,,,,,,,,,,,,,,,,,,,,,,,,,,,,,,,,,,,,,,,,,,,,,,,,,,,,,,,,,,,,,,,,,,,,,,,,,,,,,,,,,,,,,,,,,,,,,,,,,,,,,,,,,,,,,,,,,,,,
,,5eb202e64441603692ca7d2c,2024-02-21_21h21.20.089,kallum_motion_pilot,2023.2.2,Win32,166.6666667,5eb202e64441603692ca7d2c,65d6bb0e977760de756971f7,65d6bd9221814f9ceb730300,0.032,0.032,0,19,19,28,1,threeone,,,,,,,,,,,,,,,,,,,,,,,,,,,,,,,,,,,,,,,,,,,,,,,,,,,,,,,,,,,,,,,,,,,,,,,,,,,,,,,,,,,,,,,,,,,,,,,,,,,,,,,,,,,,,,,,,,,,,,,,,,,,,,,,,,,,,,,,,
,,5eb202e64441603692ca7d2c,2024-02-21_21h21.20.089,kallum_motion_pilot,2023.2.2,Win32,166.6666667,5eb202e64441603692ca7d2c,65d6bb0e977760de756971f7,65d6bd9221814f9ceb730300,0.032,0.032,0,20,20,121,1,fiveseven,,,,,,,,,,,,,,,,,,,,,,,,,,,,,,,,,,,,,,,,,,,,,,,,,,,,,,,,,,,,,,,,,,,,,,,,,,,,,,,,,,,,,,,,,,,,,,,,,,,,,,,,,,,,,,,,,,,,,,,,,,,,,,,,,,,,,,,,,
,,5eb202e64441603692ca7d2c,2024-02-21_21h21.20.089,kallum_motion_pilot,2023.2.2,Win32,166.6666667,5eb202e64441603692ca7d2c,65d6bb0e977760de756971f7,65d6bd9221814f9ceb730300,0.032,0.032,0,21,21,133,1,seveneight,,,,,,,,,,,,,,,,,,,,,,,,,,,,,,,,,,,,,,,,,,,,,,,,,,,,,,,,,,,,,,,,,,,,,,,,,,,,,,,,,,,,,,,,,,,,,,,,,,,,,,,,,,,,,,,,,,,,,,,,,,,,,,,,,,,,,,,,,
,,5eb202e64441603692ca7d2c,2024-02-21_21h21.20.089,kallum_motion_pilot,2023.2.2,Win32,166.6666667,5eb202e64441603692ca7d2c,65d6bb0e977760de756971f7,65d6bd9221814f9ceb730300,0.032,0.032,0,22,22,105,1,fiveseven,,,,,,,,,,,,,,,,,,,,,,,,,,,,,,,,,,,,,,,,,,,,,,,,,,,,,,,,,,,,,,,,,,,,,,,,,,,,,,,,,,,,,,,,,,,,,,,,,,,,,,,,,,,,,,,,,,,,,,,,,,,,,,,,,,,,,,,,,
,,5eb202e64441603692ca7d2c,2024-02-21_21h21.20.089,kallum_motion_pilot,2023.2.2,Win32,166.6666667,5eb202e64441603692ca7d2c,65d6bb0e977760de756971f7,65d6bd9221814f9ceb730300,0.032,0.032,0,23,23,98,1,sixfive,,,,,,,,,,,,,,,,,,,,,,,,,,,,,,,,,,,,,,,,,,,,,,,,,,,,,,,,,,,,,,,,,,,,,,,,,,,,,,,,,,,,,,,,,,,,,,,,,,,,,,,,,,,,,,,,,,,,,,,,,,,,,,,,,,,,,,,,,
,,5eb202e64441603692ca7d2c,2024-02-21_21h21.20.089,kallum_motion_pilot,2023.2.2,Win32,166.6666667,5eb202e64441603692ca7d2c,65d6bb0e977760de756971f7,65d6bd9221814f9ceb730300,0.033,0.033,0,24,24,76,1,threeone,,,,,,,,,,,,,,,,,,,,,,,,,,,,,,,,,,,,,,,,,,,,,,,,,,,,,,,,,,,,,,,,,,,,,,,,,,,,,,,,,,,,,,,,,,,,,,,,,,,,,,,,,,,,,,,,,,,,,,,,,,,,,,,,,,,,,,,,,
,,5eb202e64441603692ca7d2c,2024-02-21_21h21.20.089,kallum_motion_pilot,2023.2.2,Win32,166.6666667,5eb202e64441603692ca7d2c,65d6bb0e977760de756971f7,65d6bd9221814f9ceb730300,0.033,0.033,0,25,25,91,1,sixeight,,,,,,,,,,,,,,,,,,,,,,,,,,,,,,,,,,,,,,,,,,,,,,,,,,,,,,,,,,,,,,,,,,,,,,,,,,,,,,,,,,,,,,,,,,,,,,,,,,,,,,,,,,,,,,,,,,,,,,,,,,,,,,,,,,,,,,,,,
,,5eb202e64441603692ca7d2c,2024-02-21_21h21.20.089,kallum_motion_pilot,2023.2.2,Win32,166.6666667,5eb202e64441603692ca7d2c,65d6bb0e977760de756971f7,65d6bd9221814f9ceb730300,0.033,0.033,0,26,26,18,1,twoone,,,,,,,,,,,,,,,,,,,,,,,,,,,,,,,,,,,,,,,,,,,,,,,,,,,,,,,,,,,,,,,,,,,,,,,,,,,,,,,,,,,,,,,,,,,,,,,,,,,,,,,,,,,,,,,,,,,,,,,,,,,,,,,,,,,,,,,,,
,,5eb202e64441603692ca7d2c,2024-02-21_21h21.20.089,kallum_motion_pilot,2023.2.2,Win32,166.6666667,5eb202e64441603692ca7d2c,65d6bb0e977760de756971f7,65d6bd9221814f9ceb730300,0.033,0.033,0,27,27,119,1,eightseven,,,,,,,,,,,,,,,,,,,,,,,,,,,,,,,,,,,,,,,,,,,,,,,,,,,,,,,,,,,,,,,,,,,,,,,,,,,,,,,,,,,,,,,,,,,,,,,,,,,,,,,,,,,,,,,,,,,,,,,,,,,,,,,,,,,,,,,,,
,,5eb202e64441603692ca7d2c,2024-02-21_21h21.20.089,kallum_motion_pilot,2023.2.2,Win32,166.6666667,5eb202e64441603692ca7d2c,65d6bb0e977760de756971f7,65d6bd9221814f9ceb730300,0.033,0.033,0,28,28,52,1,threeone,,,,,,,,,,,,,,,,,,,,,,,,,,,,,,,,,,,,,,,,,,,,,,,,,,,,,,,,,,,,,,,,,,,,,,,,,,,,,,,,,,,,,,,,,,,,,,,,,,,,,,,,,,,,,,,,,,,,,,,,,,,,,,,,,,,,,,,,,
,,5eb202e64441603692ca7d2c,2024-02-21_21h21.20.089,kallum_motion_pilot,2023.2.2,Win32,166.6666667,5eb202e64441603692ca7d2c,65d6bb0e977760de756971f7,65d6bd9221814f9ceb730300,0.033,0.033,0,29,29,13,1,threefour,,,,,,,,,,,,,,,,,,,,,,,,,,,,,,,,,,,,,,,,,,,,,,,,,,,,,,,,,,,,,,,,,,,,,,,,,,,,,,,,,,,,,,,,,,,,,,,,,,,,,,,,,,,,,,,,,,,,,,,,,,,,,,,,,,,,,,,,,
,,5eb202e64441603692ca7d2c,2024-02-21_21h21.20.089,kallum_motion_pilot,2023.2.2,Win32,166.6666667,5eb202e64441603692ca7d2c,65d6bb0e977760de756971f7,65d6bd9221814f9ceb730300,0.033,0.033,0,30,30,29,1,threefour,,,,,,,,,,,,,,,,,,,,,,,,,,,,,,,,,,,,,,,,,,,,,,,,,,,,,,,,,,,,,,,,,,,,,,,,,,,,,,,,,,,,,,,,,,,,,,,,,,,,,,,,,,,,,,,,,,,,,,,,,,,,,,,,,,,,,,,,,
,,5eb202e64441603692ca7d2c,2024-02-21_21h21.20.089,kallum_motion_pilot,2023.2.2,Win32,166.6666667,5eb202e64441603692ca7d2c,65d6bb0e977760de756971f7,65d6bd9221814f9ceb730300,0.033,0.033,0,31,31,130,1,sixfive,,,,,,,,,,,,,,,,,,,,,,,,,,,,,,,,,,,,,,,,,,,,,,,,,,,,,,,,,,,,,,,,,,,,,,,,,,,,,,,,,,,,,,,,,,,,,,,,,,,,,,,,,,,,,,,,,,,,,,,,,,,,,,,,,,,,,,,,,
,,5eb202e64441603692ca7d2c,2024-02-21_21h21.20.089,kallum_motion_pilot,2023.2.2,Win32,166.6666667,5eb202e64441603692ca7d2c,65d6bb0e977760de756971f7,65d6bd9221814f9ceb730300,0.033,0.034,0,32,32,27,1,twofour,,,,,,,,,,,,,,,,,,,,,,,,,,,,,,,,,,,,,,,,,,,,,,,,,,,,,,,,,,,,,,,,,,,,,,,,,,,,,,,,,,,,,,,,,,,,,,,,,,,,,,,,,,,,,,,,,,,,,,,,,,,,,,,,,,,,,,,,,
,,5eb202e64441603692ca7d2c,2024-02-21_21h21.20.089,kallum_motion_pilot,2023.2.2,Win32,166.6666667,5eb202e64441603692ca7d2c,65d6bb0e977760de756971f7,65d6bd9221814f9ceb730300,0.034,0.034,0,33,33,90,1,sixfive,,,,,,,,,,,,,,,,,,,,,,,,,,,,,,,,,,,,,,,,,,,,,,,,,,,,,,,,,,,,,,,,,,,,,,,,,,,,,,,,,,,,,,,,,,,,,,,,,,,,,,,,,,,,,,,,,,,,,,,,,,,,,,,,,,,,,,,,,
,,5eb202e64441603692ca7d2c,2024-02-21_21h21.20.089,kallum_motion_pilot,2023.2.2,Win32,166.6666667,5eb202e64441603692ca7d2c,65d6bb0e977760de756971f7,65d6bd9221814f9ceb730300,0.034,0.034,0,34,34,158,1,eightsix,,,,,,,,,,,,,,,,,,,,,,,,,,,,,,,,,,,,,,,,,,,,,,,,,,,,,,,,,,,,,,,,,,,,,,,,,,,,,,,,,,,,,,,,,,,,,,,,,,,,,,,,,,,,,,,,,,,,,,,,,,,,,,,,,,,,,,,,,
,,5eb202e64441603692ca7d2c,2024-02-21_21h21.20.089,kallum_motion_pilot,2023.2.2,Win32,166.6666667,5eb202e64441603692ca7d2c,65d6bb0e977760de756971f7,65d6bd9221814f9ceb730300,0.034,0.034,0,35,35,37,1,threefour,,,,,,,,,,,,,,,,,,,,,,,,,,,,,,,,,,,,,,,,,,,,,,,,,,,,,,,,,,,,,,,,,,,,,,,,,,,,,,,,,,,,,,,,,,,,,,,,,,,,,,,,,,,,,,,,,,,,,,,,,,,,,,,,,,,,,,,,,
,,5eb202e64441603692ca7d2c,2024-02-21_21h21.20.089,kallum_motion_pilot,2023.2.2,Win32,166.6666667,5eb202e64441603692ca7d2c,65d6bb0e977760de756971f7,65d6bd9221814f9ceb730300,0.034,0.034,0,36,36,136,1,fivesix,,,,,,,,,,,,,,,,,,,,,,,,,,,,,,,,,,,,,,,,,,,,,,,,,,,,,,,,,,,,,,,,,,,,,,,,,,,,,,,,,,,,,,,,,,,,,,,,,,,,,,,,,,,,,,,,,,,,,,,,,,,,,,,,,,,,,,,,,
,,5eb202e64441603692ca7d2c,2024-02-21_21h21.20.089,kallum_motion_pilot,2023.2.2,Win32,166.6666667,5eb202e64441603692ca7d2c,65d6bb0e977760de756971f7,65d6bd9221814f9ceb730300,0.034,0.034,0,37,37,99,1,sixeight,,,,,,,,,,,,,,,,,,,,,,,,,,,,,,,,,,,,,,,,,,,,,,,,,,,,,,,,,,,,,,,,,,,,,,,,,,,,,,,,,,,,,,,,,,,,,,,,,,,,,,,,,,,,,,,,,,,,,,,,,,,,,,,,,,,,,,,,,
,,5eb202e64441603692ca7d2c,2024-02-21_21h21.20.089,kallum_motion_pilot,2023.2.2,Win32,166.6666667,5eb202e64441603692ca7d2c,65d6bb0e977760de756971f7,65d6bd9221814f9ceb730300,0.034,0.034,0,38,38,88,1,fivesix,,,,,,,,,,,,,,,,,,,,,,,,,,,,,,,,,,,,,,,,,,,,,,,,,,,,,,,,,,,,,,,,,,,,,,,,,,,,,,,,,,,,,,,,,,,,,,,,,,,,,,,,,,,,,,,,,,,,,,,,,,,,,,,,,,,,,,,,,
,,5eb202e64441603692ca7d2c,2024-02-21_21h21.20.089,kallum_motion_pilot,2023.2.2,Win32,166.6666667,5eb202e64441603692ca7d2c,65d6bb0e977760de756971f7,65d6bd9221814f9ceb730300,0.034,0.034,0,39,39,84,1,sevenfive,,,,,,,,,,,,,,,,,,,,,,,,,,,,,,,,,,,,,,,,,,,,,,,,,,,,,,,,,,,,,,,,,,,,,,,,,,,,,,,,,,,,,,,,,,,,,,,,,,,,,,,,,,,,,,,,,,,,,,,,,,,,,,,,,,,,,,,,,
,,5eb202e64441603692ca7d2c,2024-02-21_21h21.20.089,kallum_motion_pilot,2023.2.2,Win32,166.6666667,5eb202e64441603692ca7d2c,65d6bb0e977760de756971f7,65d6bd9221814f9ceb730300,0.035,0.035,0,40,40,89,1,fiveseven,,,,,,,,,,,,,,,,,,,,,,,,,,,,,,,,,,,,,,,,,,,,,,,,,,,,,,,,,,,,,,,,,,,,,,,,,,,,,,,,,,,,,,,,,,,,,,,,,,,,,,,,,,,,,,,,,,,,,,,,,,,,,,,,,,,,,,,,,
,,5eb202e64441603692ca7d2c,2024-02-21_21h21.20.089,kallum_motion_pilot,2023.2.2,Win32,166.6666667,5eb202e64441603692ca7d2c,65d6bb0e977760de756971f7,65d6bd9221814f9ceb730300,0.035,0.035,0,41,41,77,1,threefour,,,,,,,,,,,,,,,,,,,,,,,,,,,,,,,,,,,,,,,,,,,,,,,,,,,,,,,,,,,,,,,,,,,,,,,,,,,,,,,,,,,,,,,,,,,,,,,,,,,,,,,,,,,,,,,,,,,,,,,,,,,,,,,,,,,,,,,,,
,,5eb202e64441603692ca7d2c,2024-02-21_21h21.20.089,kallum_motion_pilot,2023.2.2,Win32,166.6666667,5eb202e64441603692ca7d2c,65d6bb0e977760de756971f7,65d6bd9221814f9ceb730300,0.035,0.035,0,42,42,64,1,onetwo,,,,,,,,,,,,,,,,,,,,,,,,,,,,,,,,,,,,,,,,,,,,,,,,,,,,,,,,,,,,,,,,,,,,,,,,,,,,,,,,,,,,,,,,,,,,,,,,,,,,,,,,,,,,,,,,,,,,,,,,,,,,,,,,,,,,,,,,,
,,5eb202e64441603692ca7d2c,2024-02-21_21h21.20.089,kallum_motion_pilot,2023.2.2,Win32,166.6666667,5eb202e64441603692ca7d2c,65d6bb0e977760de756971f7,65d6bd9221814f9ceb730300,0.035,0.035,0,43,43,125,1,seveneight,,,,,,,,,,,,,,,,,,,,,,,,,,,,,,,,,,,,,,,,,,,,,,,,,,,,,,,,,,,,,,,,,,,,,,,,,,,,,,,,,,,,,,,,,,,,,,,,,,,,,,,,,,,,,,,,,,,,,,,,,,,,,,,,,,,,,,,,,
,,5eb202e64441603692ca7d2c,2024-02-21_21h21.20.089,kallum_motion_pilot,2023.2.2,Win32,166.6666667,5eb202e64441603692ca7d2c,65d6bb0e977760de756971f7,65d6bd9221814f9ceb730300,0.035,0.035,0,44,44,100,1,sevenfive,,,,,,,,,,,,,,,,,,,,,,,,,,,,,,,,,,,,,,,,,,,,,,,,,,,,,,,,,,,,,,,,,,,,,,,,,,,,,,,,,,,,,,,,,,,,,,,,,,,,,,,,,,,,,,,,,,,,,,,,,,,,,,,,,,,,,,,,,
,,5eb202e64441603692ca7d2c,2024-02-21_21h21.20.089,kallum_motion_pilot,2023.2.2,Win32,166.6666667,5eb202e64441603692ca7d2c,65d6bb0e977760de756971f7,65d6bd9221814f9ceb730300,0.035,0.035,0,45,45,39,1,fourthree,,,,,,,,,,,,,,,,,,,,,,,,,,,,,,,,,,,,,,,,,,,,,,,,,,,,,,,,,,,,,,,,,,,,,,,,,,,,,,,,,,,,,,,,,,,,,,,,,,,,,,,,,,,,,,,,,,,,,,,,,,,,,,,,,,,,,,,,,
,,5eb202e64441603692ca7d2c,2024-02-21_21h21.20.089,kallum_motion_pilot,2023.2.2,Win32,166.6666667,5eb202e64441603692ca7d2c,65d6bb0e977760de756971f7,65d6bd9221814f9ceb730300,0.035,0.035,0,46,46,47,1,fourthree,,,,,,,,,,,,,,,,,,,,,,,,,,,,,,,,,,,,,,,,,,,,,,,,,,,,,,,,,,,,,,,,,,,,,,,,,,,,,,,,,,,,,,,,,,,,,,,,,,,,,,,,,,,,,,,,,,,,,,,,,,,,,,,,,,,,,,,,,
,,5eb202e64441603692ca7d2c,2024-02-21_21h21.20.089,kallum_motion_pilot,2023.2.2,Win32,166.6666667,5eb202e64441603692ca7d2c,65d6bb0e977760de756971f7,65d6bd9221814f9ceb730300,0.035,0.035,0,47,47,66,1,twoone,,,,,,,,,,,,,,,,,,,,,,,,,,,,,,,,,,,,,,,,,,,,,,,,,,,,,,,,,,,,,,,,,,,,,,,,,,,,,,,,,,,,,,,,,,,,,,,,,,,,,,,,,,,,,,,,,,,,,,,,,,,,,,,,,,,,,,,,,
,,5eb202e64441603692ca7d2c,2024-02-21_21h21.20.089,kallum_motion_pilot,2023.2.2,Win32,166.6666667,5eb202e64441603692ca7d2c,65d6bb0e977760de756971f7,65d6bd9221814f9ceb730300,0.035,0.035,0,48,48,149,1,seveneight,,,,,,,,,,,,,,,,,,,,,,,,,,,,,,,,,,,,,,,,,,,,,,,,,,,,,,,,,,,,,,,,,,,,,,,,,,,,,,,,,,,,,,,,,,,,,,,,,,,,,,,,,,,,,,,,,,,,,,,,,,,,,,,,,,,,,,,,,
,,5eb202e64441603692ca7d2c,2024-02-21_21h21.20.089,kallum_motion_pilot,2023.2.2,Win32,166.6666667,5eb202e64441603692ca7d2c,65d6bb0e977760de756971f7,65d6bd9221814f9ceb730300,0.035,0.035,0,49,49,63,1,fourthree,,,,,,,,,,,,,,,,,,,,,,,,,,,,,,,,,,,,,,,,,,,,,,,,,,,,,,,,,,,,,,,,,,,,,,,,,,,,,,,,,,,,,,,,,,,,,,,,,,,,,,,,,,,,,,,,,,,,,,,,,,,,,,,,,,,,,,,,,
,,5eb202e64441603692ca7d2c,2024-02-21_21h21.20.089,kallum_motion_pilot,2023.2.2,Win32,166.6666667,5eb202e64441603692ca7d2c,65d6bb0e977760de756971f7,65d6bd9221814f9ceb730300,0.035,0.035,0,50,50,110,1,eightsix,,,,,,,,,,,,,,,,,,,,,,,,,,,,,,,,,,,,,,,,,,,,,,,,,,,,,,,,,,,,,,,,,,,,,,,,,,,,,,,,,,,,,,,,,,,,,,,,,,,,,,,,,,,,,,,,,,,,,,,,,,,,,,,,,,,,,,,,,
,,5eb202e64441603692ca7d2c,2024-02-21_21h21.20.089,kallum_motion_pilot,2023.2.2,Win32,166.6666667,5eb202e64441603692ca7d2c,65d6bb0e977760de756971f7,65d6bd9221814f9ceb730300,0.036,0.036,0,51,51,12,1,threeone,,,,,,,,,,,,,,,,,,,,,,,,,,,,,,,,,,,,,,,,,,,,,,,,,,,,,,,,,,,,,,,,,,,,,,,,,,,,,,,,,,,,,,,,,,,,,,,,,,,,,,,,,,,,,,,,,,,,,,,,,,,,,,,,,,,,,,,,,
,,5eb202e64441603692ca7d2c,2024-02-21_21h21.20.089,kallum_motion_pilot,2023.2.2,Win32,166.6666667,5eb202e64441603692ca7d2c,65d6bb0e977760de756971f7,65d6bd9221814f9ceb730300,0.036,0.036,0,52,52,78,1,fourtwo,,,,,,,,,,,,,,,,,,,,,,,,,,,,,,,,,,,,,,,,,,,,,,,,,,,,,,,,,,,,,,,,,,,,,,,,,,,,,,,,,,,,,,,,,,,,,,,,,,,,,,,,,,,,,,,,,,,,,,,,,,,,,,,,,,,,,,,,,
,,5eb202e64441603692ca7d2c,2024-02-21_21h21.20.089,kallum_motion_pilot,2023.2.2,Win32,166.6666667,5eb202e64441603692ca7d2c,65d6bb0e977760de756971f7,65d6bd9221814f9ceb730300,0.036,0.036,0,53,53,15,1,fourthree,,,,,,,,,,,,,,,,,,,,,,,,,,,,,,,,,,,,,,,,,,,,,,,,,,,,,,,,,,,,,,,,,,,,,,,,,,,,,,,,,,,,,,,,,,,,,,,,,,,,,,,,,,,,,,,,,,,,,,,,,,,,,,,,,,,,,,,,,
,,5eb202e64441603692ca7d2c,2024-02-21_21h21.20.089,kallum_motion_pilot,2023.2.2,Win32,166.6666667,5eb202e64441603692ca7d2c,65d6bb0e977760de756971f7,65d6bd9221814f9ceb730300,0.036,0.036,0,54,54,35,1,twofour,,,,,,,,,,,,,,,,,,,,,,,,,,,,,,,,,,,,,,,,,,,,,,,,,,,,,,,,,,,,,,,,,,,,,,,,,,,,,,,,,,,,,,,,,,,,,,,,,,,,,,,,,,,,,,,,,,,,,,,,,,,,,,,,,,,,,,,,,
,,5eb202e64441603692ca7d2c,2024-02-21_21h21.20.089,kallum_motion_pilot,2023.2.2,Win32,166.6666667,5eb202e64441603692ca7d2c,65d6bb0e977760de756971f7,65d6bd9221814f9ceb730300,0.036,0.036,0,55,55,123,1,sixeight,,,,,,,,,,,,,,,,,,,,,,,,,,,,,,,,,,,,,,,,,,,,,,,,,,,,,,,,,,,,,,,,,,,,,,,,,,,,,,,,,,,,,,,,,,,,,,,,,,,,,,,,,,,,,,,,,,,,,,,,,,,,,,,,,,,,,,,,,
,,5eb202e64441603692ca7d2c,2024-02-21_21h21.20.089,kallum_motion_pilot,2023.2.2,Win32,166.6666667,5eb202e64441603692ca7d2c,65d6bb0e977760de756971f7,65d6bd9221814f9ceb730300,0.036,0.036,0,56,56,45,1,threefour,,,,,,,,,,,,,,,,,,,,,,,,,,,,,,,,,,,,,,,,,,,,,,,,,,,,,,,,,,,,,,,,,,,,,,,,,,,,,,,,,,,,,,,,,,,,,,,,,,,,,,,,,,,,,,,,,,,,,,,,,,,,,,,,,,,,,,,,,
,,5eb202e64441603692ca7d2c,2024-02-21_21h21.20.089,kallum_motion_pilot,2023.2.2,Win32,166.6666667,5eb202e64441603692ca7d2c,65d6bb0e977760de756971f7,65d6bd9221814f9ceb730300,0.036,0.036,0,57,57,81,1,fiveseven,,,,,,,,,,,,,,,,,,,,,,,,,,,,,,,,,,,,,,,,,,,,,,,,,,,,,,,,,,,,,,,,,,,,,,,,,,,,,,,,,,,,,,,,,,,,,,,,,,,,,,,,,,,,,,,,,,,,,,,,,,,,,,,,,,,,,,,,,
,,5eb202e64441603692ca7d2c,2024-02-21_21h21.20.089,kallum_motion_pilot,2023.2.2,Win32,166.6666667,5eb202e64441603692ca7d2c,65d6bb0e977760de756971f7,65d6bd9221814f9ceb730300,0.036,0.036,0,58,58,103,1,eightseven,,,,,,,,,,,,,,,,,,,,,,,,,,,,,,,,,,,,,,,,,,,,,,,,,,,,,,,,,,,,,,,,,,,,,,,,,,,,,,,,,,,,,,,,,,,,,,,,,,,,,,,,,,,,,,,,,,,,,,,,,,,,,,,,,,,,,,,,,
,,5eb202e64441603692ca7d2c,2024-02-21_21h21.20.089,kallum_motion_pilot,2023.2.2,Win32,166.6666667,5eb202e64441603692ca7d2c,65d6bb0e977760de756971f7,65d6bd9221814f9ceb730300,0.036,0.036,0,59,59,102,1,eightsix,,,,,,,,,,,,,,,,,,,,,,,,,,,,,,,,,,,,,,,,,,,,,,,,,,,,,,,,,,,,,,,,,,,,,,,,,,,,,,,,,,,,,,,,,,,,,,,,,,,,,,,,,,,,,,,,,,,,,,,,,,,,,,,,,,,,,,,,,
,,5eb202e64441603692ca7d2c,2024-02-21_21h21.20.089,kallum_motion_pilot,2023.2.2,Win32,166.6666667,5eb202e64441603692ca7d2c,65d6bb0e977760de756971f7,65d6bd9221814f9ceb730300,0.036,0.036,0,60,60,151,1,eightseven,,,,,,,,,,,,,,,,,,,,,,,,,,,,,,,,,,,,,,,,,,,,,,,,,,,,,,,,,,,,,,,,,,,,,,,,,,,,,,,,,,,,,,,,,,,,,,,,,,,,,,,,,,,,,,,,,,,,,,,,,,,,,,,,,,,,,,,,,
,,5eb202e64441603692ca7d2c,2024-02-21_21h21.20.089,kallum_motion_pilot,2023.2.2,Win32,166.6666667,5eb202e64441603692ca7d2c,65d6bb0e977760de756971f7,65d6bd9221814f9ceb730300,0.036,0.036,0,61,61,143,1,eightseven,,,,,,,,,,,,,,,,,,,,,,,,,,,,,,,,,,,,,,,,,,,,,,,,,,,,,,,,,,,,,,,,,,,,,,,,,,,,,,,,,,,,,,,,,,,,,,,,,,,,,,,,,,,,,,,,,,,,,,,,,,,,,,,,,,,,,,,,,
,,5eb202e64441603692ca7d2c,2024-02-21_21h21.20.089,kallum_motion_pilot,2023.2.2,Win32,166.6666667,5eb202e64441603692ca7d2c,65d6bb0e977760de756971f7,65d6bd9221814f9ceb730300,0.037,0.037,0,62,62,93,1,seveneight,,,,,,,,,,,,,,,,,,,,,,,,,,,,,,,,,,,,,,,,,,,,,,,,,,,,,,,,,,,,,,,,,,,,,,,,,,,,,,,,,,,,,,,,,,,,,,,,,,,,,,,,,,,,,,,,,,,,,,,,,,,,,,,,,,,,,,,,,
,,5eb202e64441603692ca7d2c,2024-02-21_21h21.20.089,kallum_motion_pilot,2023.2.2,Win32,166.6666667,5eb202e64441603692ca7d2c,65d6bb0e977760de756971f7,65d6bd9221814f9ceb730300,0.037,0.037,0,63,63,69,1,threefour,,,,,,,,,,,,,,,,,,,,,,,,,,,,,,,,,,,,,,,,,,,,,,,,,,,,,,,,,,,,,,,,,,,,,,,,,,,,,,,,,,,,,,,,,,,,,,,,,,,,,,,,,,,,,,,,,,,,,,,,,,,,,,,,,,,,,,,,,
,,5eb202e64441603692ca7d2c,2024-02-21_21h21.20.089,kallum_motion_pilot,2023.2.2,Win32,166.6666667,5eb202e64441603692ca7d2c,65d6bb0e977760de756971f7,65d6bd9221814f9ceb730300,0.037,0.037,0,64,64,101,1,seveneight,,,,,,,,,,,,,,,,,,,,,,,,,,,,,,,,,,,,,,,,,,,,,,,,,,,,,,,,,,,,,,,,,,,,,,,,,,,,,,,,,,,,,,,,,,,,,,,,,,,,,,,,,,,,,,,,,,,,,,,,,,,,,,,,,,,,,,,,,
,,5eb202e64441603692ca7d2c,2024-02-21_21h21.20.089,kallum_motion_pilot,2023.2.2,Win32,166.6666667,5eb202e64441603692ca7d2c,65d6bb0e977760de756971f7,65d6bd9221814f9ceb730300,0.038,0.038,0,65,65,38,1,fourtwo,,,,,,,,,,,,,,,,,,,,,,,,,,,,,,,,,,,,,,,,,,,,,,,,,,,,,,,,,,,,,,,,,,,,,,,,,,,,,,,,,,,,,,,,,,,,,,,,,,,,,,,,,,,,,,,,,,,,,,,,,,,,,,,,,,,,,,,,,
,,5eb202e64441603692ca7d2c,2024-02-21_21h21.20.089,kallum_motion_pilot,2023.2.2,Win32,166.6666667,5eb202e64441603692ca7d2c,65d6bb0e977760de756971f7,65d6bd9221814f9ceb730300,0.038,0.038,0,66,66,40,1,onetwo,,,,,,,,,,,,,,,,,,,,,,,,,,,,,,,,,,,,,,,,,,,,,,,,,,,,,,,,,,,,,,,,,,,,,,,,,,,,,,,,,,,,,,,,,,,,,,,,,,,,,,,,,,,,,,,,,,,,,,,,,,,,,,,,,,,,,,,,,
,,5eb202e64441603692ca7d2c,2024-02-21_21h21.20.089,kallum_motion_pilot,2023.2.2,Win32,166.6666667,5eb202e64441603692ca7d2c,65d6bb0e977760de756971f7,65d6bd9221814f9ceb730300,0.038,0.038,0,67,67,161,1,fiveseven,,,,,,,,,,,,,,,,,,,,,,,,,,,,,,,,,,,,,,,,,,,,,,,,,,,,,,,,,,,,,,,,,,,,,,,,,,,,,,,,,,,,,,,,,,,,,,,,,,,,,,,,,,,,,,,,,,,,,,,,,,,,,,,,,,,,,,,,,
,,5eb202e64441603692ca7d2c,2024-02-21_21h21.20.089,kallum_motion_pilot,2023.2.2,Win32,166.6666667,5eb202e64441603692ca7d2c,65d6bb0e977760de756971f7,65d6bd9221814f9ceb730300,0.038,0.038,0,68,68,31,1,fourthree,,,,,,,,,,,,,,,,,,,,,,,,,,,,,,,,,,,,,,,,,,,,,,,,,,,,,,,,,,,,,,,,,,,,,,,,,,,,,,,,,,,,,,,,,,,,,,,,,,,,,,,,,,,,,,,,,,,,,,,,,,,,,,,,,,,,,,,,,
,,5eb202e64441603692ca7d2c,2024-02-21_21h21.20.089,kallum_motion_pilot,2023.2.2,Win32,166.6666667,5eb202e64441603692ca7d2c,65d6bb0e977760de756971f7,65d6bd9221814f9ceb730300,0.038,0.038,0,69,69,126,1,eightsix,,,,,,,,,,,,,,,,,,,,,,,,,,,,,,,,,,,,,,,,,,,,,,,,,,,,,,,,,,,,,,,,,,,,,,,,,,,,,,,,,,,,,,,,,,,,,,,,,,,,,,,,,,,,,,,,,,,,,,,,,,,,,,,,,,,,,,,,,
,,5eb202e64441603692ca7d2c,2024-02-21_21h21.20.089,kallum_motion_pilot,2023.2.2,Win32,166.6666667,5eb202e64441603692ca7d2c,65d6bb0e977760de756971f7,65d6bd9221814f9ceb730300,0.038,0.038,0,70,70,11,1,twofour,,,,,,,,,,,,,,,,,,,,,,,,,,,,,,,,,,,,,,,,,,,,,,,,,,,,,,,,,,,,,,,,,,,,,,,,,,,,,,,,,,,,,,,,,,,,,,,,,,,,,,,,,,,,,,,,,,,,,,,,,,,,,,,,,,,,,,,,,
,,5eb202e64441603692ca7d2c,2024-02-21_21h21.20.089,kallum_motion_pilot,2023.2.2,Win32,166.6666667,5eb202e64441603692ca7d2c,65d6bb0e977760de756971f7,65d6bd9221814f9ceb730300,0.038,0.039,0,71,71,116,1,sevenfive,,,,,,,,,,,,,,,,,,,,,,,,,,,,,,,,,,,,,,,,,,,,,,,,,,,,,,,,,,,,,,,,,,,,,,,,,,,,,,,,,,,,,,,,,,,,,,,,,,,,,,,,,,,,,,,,,,,,,,,,,,,,,,,,,,,,,,,,,
,,5eb202e64441603692ca7d2c,2024-02-21_21h21.20.089,kallum_motion_pilot,2023.2.2,Win32,166.6666667,5eb202e64441603692ca7d2c,65d6bb0e977760de756971f7,65d6bd9221814f9ceb730300,0.039,0.039,0,72,72,9,1,onethree,,,,,,,,,,,,,,,,,,,,,,,,,,,,,,,,,,,,,,,,,,,,,,,,,,,,,,,,,,,,,,,,,,,,,,,,,,,,,,,,,,,,,,,,,,,,,,,,,,,,,,,,,,,,,,,,,,,,,,,,,,,,,,,,,,,,,,,,,
,,5eb202e64441603692ca7d2c,2024-02-21_21h21.20.089,kallum_motion_pilot,2023.2.2,Win32,166.6666667,5eb202e64441603692ca7d2c,65d6bb0e977760de756971f7,65d6bd9221814f9ceb730300,0.039,0.039,0,73,73,14,1,fourtwo,,,,,,,,,,,,,,,,,,,,,,,,,,,,,,,,,,,,,,,,,,,,,,,,,,,,,,,,,,,,,,,,,,,,,,,,,,,,,,,,,,,,,,,,,,,,,,,,,,,,,,,,,,,,,,,,,,,,,,,,,,,,,,,,,,,,,,,,,
,,5eb202e64441603692ca7d2c,2024-02-21_21h21.20.089,kallum_motion_pilot,2023.2.2,Win32,166.6666667,5eb202e64441603692ca7d2c,65d6bb0e977760de756971f7,65d6bd9221814f9ceb730300,0.039,0.039,0,74,74,160,1,fivesix,,,,,,,,,,,,,,,,,,,,,,,,,,,,,,,,,,,,,,,,,,,,,,,,,,,,,,,,,,,,,,,,,,,,,,,,,,,,,,,,,,,,,,,,,,,,,,,,,,,,,,,,,,,,,,,,,,,,,,,,,,,,,,,,,,,,,,,,,
,,5eb202e64441603692ca7d2c,2024-02-21_21h21.20.089,kallum_motion_pilot,2023.2.2,Win32,166.6666667,5eb202e64441603692ca7d2c,65d6bb0e977760de756971f7,65d6bd9221814f9ceb730300,0.039,0.039,0,75,75,97,1,fiveseven,,,,,,,,,,,,,,,,,,,,,,,,,,,,,,,,,,,,,,,,,,,,,,,,,,,,,,,,,,,,,,,,,,,,,,,,,,,,,,,,,,,,,,,,,,,,,,,,,,,,,,,,,,,,,,,,,,,,,,,,,,,,,,,,,,,,,,,,,
,,5eb202e64441603692ca7d2c,2024-02-21_21h21.20.089,kallum_motion_pilot,2023.2.2,Win32,166.6666667,5eb202e64441603692ca7d2c,65d6bb0e977760de756971f7,65d6bd9221814f9ceb730300,0.039,0.039,0,76,76,147,1,sixeight,,,,,,,,,,,,,,,,,,,,,,,,,,,,,,,,,,,,,,,,,,,,,,,,,,,,,,,,,,,,,,,,,,,,,,,,,,,,,,,,,,,,,,,,,,,,,,,,,,,,,,,,,,,,,,,,,,,,,,,,,,,,,,,,,,,,,,,,,
,,5eb202e64441603692ca7d2c,2024-02-21_21h21.20.089,kallum_motion_pilot,2023.2.2,Win32,166.6666667,5eb202e64441603692ca7d2c,65d6bb0e977760de756971f7,65d6bd9221814f9ceb730300,0.039,0.039,0,77,77,114,1,sixfive,,,,,,,,,,,,,,,,,,,,,,,,,,,,,,,,,,,,,,,,,,,,,,,,,,,,,,,,,,,,,,,,,,,,,,,,,,,,,,,,,,,,,,,,,,,,,,,,,,,,,,,,,,,,,,,,,,,,,,,,,,,,,,,,,,,,,,,,,
,,5eb202e64441603692ca7d2c,2024-02-21_21h21.20.089,kallum_motion_pilot,2023.2.2,Win32,166.6666667,5eb202e64441603692ca7d2c,65d6bb0e977760de756971f7,65d6bd9221814f9ceb730300,0.039,0.039,0,78,78,57,1,onethree,,,,,,,,,,,,,,,,,,,,,,,,,,,,,,,,,,,,,,,,,,,,,,,,,,,,,,,,,,,,,,,,,,,,,,,,,,,,,,,,,,,,,,,,,,,,,,,,,,,,,,,,,,,,,,,,,,,,,,,,,,,,,,,,,,,,,,,,,
,,5eb202e64441603692ca7d2c,2024-02-21_21h21.20.089,kallum_motion_pilot,2023.2.2,Win32,166.6666667,5eb202e64441603692ca7d2c,65d6bb0e977760de756971f7,65d6bd9221814f9ceb730300,0.039,0.039,0,79,79,115,1,sixeight,,,,,,,,,,,,,,,,,,,,,,,,,,,,,,,,,,,,,,,,,,,,,,,,,,,,,,,,,,,,,,,,,,,,,,,,,,,,,,,,,,,,,,,,,,,,,,,,,,,,,,,,,,,,,,,,,,,,,,,,,,,,,,,,,,,,,,,,,
,,5eb202e64441603692ca7d2c,2024-02-21_21h21.20.089,kallum_motion_pilot,2023.2.2,Win32,166.6666667,5eb202e64441603692ca7d2c,65d6bb0e977760de756971f7,65d6bd9221814f9ceb730300,0.04,0.04,0,80,80,155,1,sixeight,,,,,,,,,,,,,,,,,,,,,,,,,,,,,,,,,,,,,,,,,,,,,,,,,,,,,,,,,,,,,,,,,,,,,,,,,,,,,,,,,,,,,,,,,,,,,,,,,,,,,,,,,,,,,,,,,,,,,,,,,,,,,,,,,,,,,,,,,
,,5eb202e64441603692ca7d2c,2024-02-21_21h21.20.089,kallum_motion_pilot,2023.2.2,Win32,166.6666667,5eb202e64441603692ca7d2c,65d6bb0e977760de756971f7,65d6bd9221814f9ceb730300,0.04,0.04,0,81,81,135,1,eightseven,,,,,,,,,,,,,,,,,,,,,,,,,,,,,,,,,,,,,,,,,,,,,,,,,,,,,,,,,,,,,,,,,,,,,,,,,,,,,,,,,,,,,,,,,,,,,,,,,,,,,,,,,,,,,,,,,,,,,,,,,,,,,,,,,,,,,,,,,
,,5eb202e64441603692ca7d2c,2024-02-21_21h21.20.089,kallum_motion_pilot,2023.2.2,Win32,166.6666667,5eb202e64441603692ca7d2c,65d6bb0e977760de756971f7,65d6bd9221814f9ceb730300,0.04,0.04,0,82,82,139,1,sixeight,,,,,,,,,,,,,,,,,,,,,,,,,,,,,,,,,,,,,,,,,,,,,,,,,,,,,,,,,,,,,,,,,,,,,,,,,,,,,,,,,,,,,,,,,,,,,,,,,,,,,,,,,,,,,,,,,,,,,,,,,,,,,,,,,,,,,,,,,
,,5eb202e64441603692ca7d2c,2024-02-21_21h21.20.089,kallum_motion_pilot,2023.2.2,Win32,166.6666667,5eb202e64441603692ca7d2c,65d6bb0e977760de756971f7,65d6bd9221814f9ceb730300,0.04,0.04,0,83,83,33,1,onethree,,,,,,,,,,,,,,,,,,,,,,,,,,,,,,,,,,,,,,,,,,,,,,,,,,,,,,,,,,,,,,,,,,,,,,,,,,,,,,,,,,,,,,,,,,,,,,,,,,,,,,,,,,,,,,,,,,,,,,,,,,,,,,,,,,,,,,,,,
,,5eb202e64441603692ca7d2c,2024-02-21_21h21.20.089,kallum_motion_pilot,2023.2.2,Win32,166.6666667,5eb202e64441603692ca7d2c,65d6bb0e977760de756971f7,65d6bd9221814f9ceb730300,0.04,0.04,0,84,84,131,1,sixeight,,,,,,,,,,,,,,,,,,,,,,,,,,,,,,,,,,,,,,,,,,,,,,,,,,,,,,,,,,,,,,,,,,,,,,,,,,,,,,,,,,,,,,,,,,,,,,,,,,,,,,,,,,,,,,,,,,,,,,,,,,,,,,,,,,,,,,,,,
,,5eb202e64441603692ca7d2c,2024-02-21_21h21.20.089,kallum_motion_pilot,2023.2.2,Win32,166.6666667,5eb202e64441603692ca7d2c,65d6bb0e977760de756971f7,65d6bd9221814f9ceb730300,0.04,0.04,0,85,85,25,1,onethree,,,,,,,,,,,,,,,,,,,,,,,,,,,,,,,,,,,,,,,,,,,,,,,,,,,,,,,,,,,,,,,,,,,,,,,,,,,,,,,,,,,,,,,,,,,,,,,,,,,,,,,,,,,,,,,,,,,,,,,,,,,,,,,,,,,,,,,,,
,,5eb202e64441603692ca7d2c,2024-02-21_21h21.20.089,kallum_motion_pilot,2023.2.2,Win32,166.6666667,5eb202e64441603692ca7d2c,65d6bb0e977760de756971f7,65d6bd9221814f9ceb730300,0.04,0.04,0,86,86,58,1,twoone,,,,,,,,,,,,,,,,,,,,,,,,,,,,,,,,,,,,,,,,,,,,,,,,,,,,,,,,,,,,,,,,,,,,,,,,,,,,,,,,,,,,,,,,,,,,,,,,,,,,,,,,,,,,,,,,,,,,,,,,,,,,,,,,,,,,,,,,,
,,5eb202e64441603692ca7d2c,2024-02-21_21h21.20.089,kallum_motion_pilot,2023.2.2,Win32,166.6666667,5eb202e64441603692ca7d2c,65d6bb0e977760de756971f7,65d6bd9221814f9ceb730300,0.04,0.04,0,87,87,21,1,threefour,,,,,,,,,,,,,,,,,,,,,,,,,,,,,,,,,,,,,,,,,,,,,,,,,,,,,,,,,,,,,,,,,,,,,,,,,,,,,,,,,,,,,,,,,,,,,,,,,,,,,,,,,,,,,,,,,,,,,,,,,,,,,,,,,,,,,,,,,
,,5eb202e64441603692ca7d2c,2024-02-21_21h21.20.089,kallum_motion_pilot,2023.2.2,Win32,166.6666667,5eb202e64441603692ca7d2c,65d6bb0e977760de756971f7,65d6bd9221814f9ceb730300,0.04,0.04,0,88,88,79,1,eightseven,,,,,,,,,,,,,,,,,,,,,,,,,,,,,,,,,,,,,,,,,,,,,,,,,,,,,,,,,,,,,,,,,,,,,,,,,,,,,,,,,,,,,,,,,,,,,,,,,,,,,,,,,,,,,,,,,,,,,,,,,,,,,,,,,,,,,,,,,
,,5eb202e64441603692ca7d2c,2024-02-21_21h21.20.089,kallum_motion_pilot,2023.2.2,Win32,166.6666667,5eb202e64441603692ca7d2c,65d6bb0e977760de756971f7,65d6bd9221814f9ceb730300,0.04,0.04,0,89,89,1,1,onethree,,,,,,,,,,,,,,,,,,,,,,,,,,,,,,,,,,,,,,,,,,,,,,,,,,,,,,,,,,,,,,,,,,,,,,,,,,,,,,,,,,,,,,,,,,,,,,,,,,,,,,,,,,,,,,,,,,,,,,,,,,,,,,,,,,,,,,,,,
,,5eb202e64441603692ca7d2c,2024-02-21_21h21.20.089,kallum_motion_pilot,2023.2.2,Win32,166.6666667,5eb202e64441603692ca7d2c,65d6bb0e977760de756971f7,65d6bd9221814f9ceb730300,0.041,0.041,0,90,90,8,1,onetwo,,,,,,,,,,,,,,,,,,,,,,,,,,,,,,,,,,,,,,,,,,,,,,,,,,,,,,,,,,,,,,,,,,,,,,,,,,,,,,,,,,,,,,,,,,,,,,,,,,,,,,,,,,,,,,,,,,,,,,,,,,,,,,,,,,,,,,,,,
,,5eb202e64441603692ca7d2c,2024-02-21_21h21.20.089,kallum_motion_pilot,2023.2.2,Win32,166.6666667,5eb202e64441603692ca7d2c,65d6bb0e977760de756971f7,65d6bd9221814f9ceb730300,0.041,0.041,0,91,91,80,1,fivesix,,,,,,,,,,,,,,,,,,,,,,,,,,,,,,,,,,,,,,,,,,,,,,,,,,,,,,,,,,,,,,,,,,,,,,,,,,,,,,,,,,,,,,,,,,,,,,,,,,,,,,,,,,,,,,,,,,,,,,,,,,,,,,,,,,,,,,,,,
,,5eb202e64441603692ca7d2c,2024-02-21_21h21.20.089,kallum_motion_pilot,2023.2.2,Win32,166.6666667,5eb202e64441603692ca7d2c,65d6bb0e977760de756971f7,65d6bd9221814f9ceb730300,0.041,0.041,0,92,92,43,1,twofour,,,,,,,,,,,,,,,,,,,,,,,,,,,,,,,,,,,,,,,,,,,,,,,,,,,,,,,,,,,,,,,,,,,,,,,,,,,,,,,,,,,,,,,,,,,,,,,,,,,,,,,,,,,,,,,,,,,,,,,,,,,,,,,,,,,,,,,,,
,,5eb202e64441603692ca7d2c,2024-02-21_21h21.20.089,kallum_motion_pilot,2023.2.2,Win32,166.6666667,5eb202e64441603692ca7d2c,65d6bb0e977760de756971f7,65d6bd9221814f9ceb730300,0.041,0.041,0,93,93,157,1,seveneight,,,,,,,,,,,,,,,,,,,,,,,,,,,,,,,,,,,,,,,,,,,,,,,,,,,,,,,,,,,,,,,,,,,,,,,,,,,,,,,,,,,,,,,,,,,,,,,,,,,,,,,,,,,,,,,,,,,,,,,,,,,,,,,,,,,,,,,,,
,,5eb202e64441603692ca7d2c,2024-02-21_21h21.20.089,kallum_motion_pilot,2023.2.2,Win32,166.6666667,5eb202e64441603692ca7d2c,65d6bb0e977760de756971f7,65d6bd9221814f9ceb730300,0.041,0.041,0,94,94,112,1,fivesix,,,,,,,,,,,,,,,,,,,,,,,,,,,,,,,,,,,,,,,,,,,,,,,,,,,,,,,,,,,,,,,,,,,,,,,,,,,,,,,,,,,,,,,,,,,,,,,,,,,,,,,,,,,,,,,,,,,,,,,,,,,,,,,,,,,,,,,,,
,,5eb202e64441603692ca7d2c,2024-02-21_21h21.20.089,kallum_motion_pilot,2023.2.2,Win32,166.6666667,5eb202e64441603692ca7d2c,65d6bb0e977760de756971f7,65d6bd9221814f9ceb730300,0.041,0.041,0,95,95,73,1,onethree,,,,,,,,,,,,,,,,,,,,,,,,,,,,,,,,,,,,,,,,,,,,,,,,,,,,,,,,,,,,,,,,,,,,,,,,,,,,,,,,,,,,,,,,,,,,,,,,,,,,,,,,,,,,,,,,,,,,,,,,,,,,,,,,,,,,,,,,,
,,5eb202e64441603692ca7d2c,2024-02-21_21h21.20.089,kallum_motion_pilot,2023.2.2,Win32,166.6666667,5eb202e64441603692ca7d2c,65d6bb0e977760de756971f7,65d6bd9221814f9ceb730300,0.041,0.041,0,96,96,122,1,sixfive,,,,,,,,,,,,,,,,,,,,,,,,,,,,,,,,,,,,,,,,,,,,,,,,,,,,,,,,,,,,,,,,,,,,,,,,,,,,,,,,,,,,,,,,,,,,,,,,,,,,,,,,,,,,,,,,,,,,,,,,,,,,,,,,,,,,,,,,,
,,5eb202e64441603692ca7d2c,2024-02-21_21h21.20.089,kallum_motion_pilot,2023.2.2,Win32,166.6666667,5eb202e64441603692ca7d2c,65d6bb0e977760de756971f7,65d6bd9221814f9ceb730300,0.041,0.041,0,97,97,113,1,fiveseven,,,,,,,,,,,,,,,,,,,,,,,,,,,,,,,,,,,,,,,,,,,,,,,,,,,,,,,,,,,,,,,,,,,,,,,,,,,,,,,,,,,,,,,,,,,,,,,,,,,,,,,,,,,,,,,,,,,,,,,,,,,,,,,,,,,,,,,,,
,,5eb202e64441603692ca7d2c,2024-02-21_21h21.20.089,kallum_motion_pilot,2023.2.2,Win32,166.6666667,5eb202e64441603692ca7d2c,65d6bb0e977760de756971f7,65d6bd9221814f9ceb730300,0.041,0.041,0,98,98,20,1,threeone,,,,,,,,,,,,,,,,,,,,,,,,,,,,,,,,,,,,,,,,,,,,,,,,,,,,,,,,,,,,,,,,,,,,,,,,,,,,,,,,,,,,,,,,,,,,,,,,,,,,,,,,,,,,,,,,,,,,,,,,,,,,,,,,,,,,,,,,,
,,5eb202e64441603692ca7d2c,2024-02-21_21h21.20.089,kallum_motion_pilot,2023.2.2,Win32,166.6666667,5eb202e64441603692ca7d2c,65d6bb0e977760de756971f7,65d6bd9221814f9ceb730300,0.041,0.041,0,99,99,127,1,eightseven,,,,,,,,,,,,,,,,,,,,,,,,,,,,,,,,,,,,,,,,,,,,,,,,,,,,,,,,,,,,,,,,,,,,,,,,,,,,,,,,,,,,,,,,,,,,,,,,,,,,,,,,,,,,,,,,,,,,,,,,,,,,,,,,,,,,,,,,,
,,5eb202e64441603692ca7d2c,2024-02-21_21h21.20.089,kallum_motion_pilot,2023.2.2,Win32,166.6666667,5eb202e64441603692ca7d2c,65d6bb0e977760de756971f7,65d6bd9221814f9ceb730300,0.041,0.041,0,100,100,87,1,eightseven,,,,,,,,,,,,,,,,,,,,,,,,,,,,,,,,,,,,,,,,,,,,,,,,,,,,,,,,,,,,,,,,,,,,,,,,,,,,,,,,,,,,,,,,,,,,,,,,,,,,,,,,,,,,,,,,,,,,,,,,,,,,,,,,,,,,,,,,,
,,5eb202e64441603692ca7d2c,2024-02-21_21h21.20.089,kallum_motion_pilot,2023.2.2,Win32,166.6666667,5eb202e64441603692ca7d2c,65d6bb0e977760de756971f7,65d6bd9221814f9ceb730300,0.041,0.042,0,101,101,55,1,fourthree,,,,,,,,,,,,,,,,,,,,,,,,,,,,,,,,,,,,,,,,,,,,,,,,,,,,,,,,,,,,,,,,,,,,,,,,,,,,,,,,,,,,,,,,,,,,,,,,,,,,,,,,,,,,,,,,,,,,,,,,,,,,,,,,,,,,,,,,,
,,5eb202e64441603692ca7d2c,2024-02-21_21h21.20.089,kallum_motion_pilot,2023.2.2,Win32,166.6666667,5eb202e64441603692ca7d2c,65d6bb0e977760de756971f7,65d6bd9221814f9ceb730300,0.042,0.042,0,102,102,72,1,onetwo,,,,,,,,,,,,,,,,,,,,,,,,,,,,,,,,,,,,,,,,,,,,,,,,,,,,,,,,,,,,,,,,,,,,,,,,,,,,,,,,,,,,,,,,,,,,,,,,,,,,,,,,,,,,,,,,,,,,,,,,,,,,,,,,,,,,,,,,,
,,5eb202e64441603692ca7d2c,2024-02-21_21h21.20.089,kallum_motion_pilot,2023.2.2,Win32,166.6666667,5eb202e64441603692ca7d2c,65d6bb0e977760de756971f7,65d6bd9221814f9ceb730300,0.042,0.042,0,103,103,140,1,sevenfive,,,,,,,,,,,,,,,,,,,,,,,,,,,,,,,,,,,,,,,,,,,,,,,,,,,,,,,,,,,,,,,,,,,,,,,,,,,,,,,,,,,,,,,,,,,,,,,,,,,,,,,,,,,,,,,,,,,,,,,,,,,,,,,,,,,,,,,,,
,,5eb202e64441603692ca7d2c,2024-02-21_21h21.20.089,kallum_motion_pilot,2023.2.2,Win32,166.6666667,5eb202e64441603692ca7d2c,65d6bb0e977760de756971f7,65d6bd9221814f9ceb730300,0.042,0.042,0,104,104,154,1,sixfive,,,,,,,,,,,,,,,,,,,,,,,,,,,,,,,,,,,,,,,,,,,,,,,,,,,,,,,,,,,,,,,,,,,,,,,,,,,,,,,,,,,,,,,,,,,,,,,,,,,,,,,,,,,,,,,,,,,,,,,,,,,,,,,,,,,,,,,,,
,,5eb202e64441603692ca7d2c,2024-02-21_21h21.20.089,kallum_motion_pilot,2023.2.2,Win32,166.6666667,5eb202e64441603692ca7d2c,65d6bb0e977760de756971f7,65d6bd9221814f9ceb730300,0.042,0.042,0,105,105,26,1,twoone,,,,,,,,,,,,,,,,,,,,,,,,,,,,,,,,,,,,,,,,,,,,,,,,,,,,,,,,,,,,,,,,,,,,,,,,,,,,,,,,,,,,,,,,,,,,,,,,,,,,,,,,,,,,,,,,,,,,,,,,,,,,,,,,,,,,,,,,,
,,5eb202e64441603692ca7d2c,2024-02-21_21h21.20.089,kallum_motion_pilot,2023.2.2,Win32,166.6666667,5eb202e64441603692ca7d2c,65d6bb0e977760de756971f7,65d6bd9221814f9ceb730300,0.042,0.042,0,106,106,83,1,sixeight,,,,,,,,,,,,,,,,,,,,,,,,,,,,,,,,,,,,,,,,,,,,,,,,,,,,,,,,,,,,,,,,,,,,,,,,,,,,,,,,,,,,,,,,,,,,,,,,,,,,,,,,,,,,,,,,,,,,,,,,,,,,,,,,,,,,,,,,,
,,5eb202e64441603692ca7d2c,2024-02-21_21h21.20.089,kallum_motion_pilot,2023.2.2,Win32,166.6666667,5eb202e64441603692ca7d2c,65d6bb0e977760de756971f7,65d6bd9221814f9ceb730300,0.042,0.042,0,107,107,148,1,sevenfive,,,,,,,,,,,,,,,,,,,,,,,,,,,,,,,,,,,,,,,,,,,,,,,,,,,,,,,,,,,,,,,,,,,,,,,,,,,,,,,,,,,,,,,,,,,,,,,,,,,,,,,,,,,,,,,,,,,,,,,,,,,,,,,,,,,,,,,,,
,,5eb202e64441603692ca7d2c,2024-02-21_21h21.20.089,kallum_motion_pilot,2023.2.2,Win32,166.6666667,5eb202e64441603692ca7d2c,65d6bb0e977760de756971f7,65d6bd9221814f9ceb730300,0.043,0.043,0,108,108,49,1,onethree,,,,,,,,,,,,,,,,,,,,,,,,,,,,,,,,,,,,,,,,,,,,,,,,,,,,,,,,,,,,,,,,,,,,,,,,,,,,,,,,,,,,,,,,,,,,,,,,,,,,,,,,,,,,,,,,,,,,,,,,,,,,,,,,,,,,,,,,,
,,5eb202e64441603692ca7d2c,2024-02-21_21h21.20.089,kallum_motion_pilot,2023.2.2,Win32,166.6666667,5eb202e64441603692ca7d2c,65d6bb0e977760de756971f7,65d6bd9221814f9ceb730300,0.045,0.045,0,109,109,137,1,fiveseven,,,,,,,,,,,,,,,,,,,,,,,,,,,,,,,,,,,,,,,,,,,,,,,,,,,,,,,,,,,,,,,,,,,,,,,,,,,,,,,,,,,,,,,,,,,,,,,,,,,,,,,,,,,,,,,,,,,,,,,,,,,,,,,,,,,,,,,,,
,,5eb202e64441603692ca7d2c,2024-02-21_21h21.20.089,kallum_motion_pilot,2023.2.2,Win32,166.6666667,5eb202e64441603692ca7d2c,65d6bb0e977760de756971f7,65d6bd9221814f9ceb730300,0.045,0.045,0,110,110,120,1,fivesix,,,,,,,,,,,,,,,,,,,,,,,,,,,,,,,,,,,,,,,,,,,,,,,,,,,,,,,,,,,,,,,,,,,,,,,,,,,,,,,,,,,,,,,,,,,,,,,,,,,,,,,,,,,,,,,,,,,,,,,,,,,,,,,,,,,,,,,,,
,,5eb202e64441603692ca7d2c,2024-02-21_21h21.20.089,kallum_motion_pilot,2023.2.2,Win32,166.6666667,5eb202e64441603692ca7d2c,65d6bb0e977760de756971f7,65d6bd9221814f9ceb730300,0.045,0.045,0,111,111,86,1,eightsix,,,,,,,,,,,,,,,,,,,,,,,,,,,,,,,,,,,,,,,,,,,,,,,,,,,,,,,,,,,,,,,,,,,,,,,,,,,,,,,,,,,,,,,,,,,,,,,,,,,,,,,,,,,,,,,,,,,,,,,,,,,,,,,,,,,,,,,,,
,,5eb202e64441603692ca7d2c,2024-02-21_21h21.20.089,kallum_motion_pilot,2023.2.2,Win32,166.6666667,5eb202e64441603692ca7d2c,65d6bb0e977760de756971f7,65d6bd9221814f9ceb730300,0.045,0.045,0,112,112,65,1,onethree,,,,,,,,,,,,,,,,,,,,,,,,,,,,,,,,,,,,,,,,,,,,,,,,,,,,,,,,,,,,,,,,,,,,,,,,,,,,,,,,,,,,,,,,,,,,,,,,,,,,,,,,,,,,,,,,,,,,,,,,,,,,,,,,,,,,,,,,,
,,5eb202e64441603692ca7d2c,2024-02-21_21h21.20.089,kallum_motion_pilot,2023.2.2,Win32,166.6666667,5eb202e64441603692ca7d2c,65d6bb0e977760de756971f7,65d6bd9221814f9ceb730300,0.045,0.045,0,113,113,6,1,fourtwo,,,,,,,,,,,,,,,,,,,,,,,,,,,,,,,,,,,,,,,,,,,,,,,,,,,,,,,,,,,,,,,,,,,,,,,,,,,,,,,,,,,,,,,,,,,,,,,,,,,,,,,,,,,,,,,,,,,,,,,,,,,,,,,,,,,,,,,,,
,,5eb202e64441603692ca7d2c,2024-02-21_21h21.20.089,kallum_motion_pilot,2023.2.2,Win32,166.6666667,5eb202e64441603692ca7d2c,65d6bb0e977760de756971f7,65d6bd9221814f9ceb730300,0.046,0.046,0,114,114,62,1,fourtwo,,,,,,,,,,,,,,,,,,,,,,,,,,,,,,,,,,,,,,,,,,,,,,,,,,,,,,,,,,,,,,,,,,,,,,,,,,,,,,,,,,,,,,,,,,,,,,,,,,,,,,,,,,,,,,,,,,,,,,,,,,,,,,,,,,,,,,,,,
,,5eb202e64441603692ca7d2c,2024-02-21_21h21.20.089,kallum_motion_pilot,2023.2.2,Win32,166.6666667,5eb202e64441603692ca7d2c,65d6bb0e977760de756971f7,65d6bd9221814f9ceb730300,0.046,0.046,0,115,115,138,1,sixfive,,,,,,,,,,,,,,,,,,,,,,,,,,,,,,,,,,,,,,,,,,,,,,,,,,,,,,,,,,,,,,,,,,,,,,,,,,,,,,,,,,,,,,,,,,,,,,,,,,,,,,,,,,,,,,,,,,,,,,,,,,,,,,,,,,,,,,,,,
,,5eb202e64441603692ca7d2c,2024-02-21_21h21.20.089,kallum_motion_pilot,2023.2.2,Win32,166.6666667,5eb202e64441603692ca7d2c,65d6bb0e977760de756971f7,65d6bd9221814f9ceb730300,0.046,0.046,0,116,116,53,1,threefour,,,,,,,,,,,,,,,,,,,,,,,,,,,,,,,,,,,,,,,,,,,,,,,,,,,,,,,,,,,,,,,,,,,,,,,,,,,,,,,,,,,,,,,,,,,,,,,,,,,,,,,,,,,,,,,,,,,,,,,,,,,,,,,,,,,,,,,,,
,,5eb202e64441603692ca7d2c,2024-02-21_21h21.20.089,kallum_motion_pilot,2023.2.2,Win32,166.6666667,5eb202e64441603692ca7d2c,65d6bb0e977760de756971f7,65d6bd9221814f9ceb730300,0.046,0.046,0,117,117,141,1,seveneight,,,,,,,,,,,,,,,,,,,,,,,,,,,,,,,,,,,,,,,,,,,,,,,,,,,,,,,,,,,,,,,,,,,,,,,,,,,,,,,,,,,,,,,,,,,,,,,,,,,,,,,,,,,,,,,,,,,,,,,,,,,,,,,,,,,,,,,,,
,,5eb202e64441603692ca7d2c,2024-02-21_21h21.20.089,kallum_motion_pilot,2023.2.2,Win32,166.6666667,5eb202e64441603692ca7d2c,65d6bb0e977760de756971f7,65d6bd9221814f9ceb730300,0.046,0.046,0,118,118,152,1,fivesix,,,,,,,,,,,,,,,,,,,,,,,,,,,,,,,,,,,,,,,,,,,,,,,,,,,,,,,,,,,,,,,,,,,,,,,,,,,,,,,,,,,,,,,,,,,,,,,,,,,,,,,,,,,,,,,,,,,,,,,,,,,,,,,,,,,,,,,,,
,,5eb202e64441603692ca7d2c,2024-02-21_21h21.20.089,kallum_motion_pilot,2023.2.2,Win32,166.6666667,5eb202e64441603692ca7d2c,65d6bb0e977760de756971f7,65d6bd9221814f9ceb730300,0.046,0.046,0,119,119,129,1,fiveseven,,,,,,,,,,,,,,,,,,,,,,,,,,,,,,,,,,,,,,,,,,,,,,,,,,,,,,,,,,,,,,,,,,,,,,,,,,,,,,,,,,,,,,,,,,,,,,,,,,,,,,,,,,,,,,,,,,,,,,,,,,,,,,,,,,,,,,,,,
,,5eb202e64441603692ca7d2c,2024-02-21_21h21.20.089,kallum_motion_pilot,2023.2.2,Win32,166.6666667,5eb202e64441603692ca7d2c,65d6bb0e977760de756971f7,65d6bd9221814f9ceb730300,0.046,0.046,0,120,120,54,1,fourtwo,,,,,,,,,,,,,,,,,,,,,,,,,,,,,,,,,,,,,,,,,,,,,,,,,,,,,,,,,,,,,,,,,,,,,,,,,,,,,,,,,,,,,,,,,,,,,,,,,,,,,,,,,,,,,,,,,,,,,,,,,,,,,,,,,,,,,,,,,
,,5eb202e64441603692ca7d2c,2024-02-21_21h21.20.089,kallum_motion_pilot,2023.2.2,Win32,166.6666667,5eb202e64441603692ca7d2c,65d6bb0e977760de756971f7,65d6bd9221814f9ceb730300,0.046,0.046,0,121,121,145,1,fiveseven,,,,,,,,,,,,,,,,,,,,,,,,,,,,,,,,,,,,,,,,,,,,,,,,,,,,,,,,,,,,,,,,,,,,,,,,,,,,,,,,,,,,,,,,,,,,,,,,,,,,,,,,,,,,,,,,,,,,,,,,,,,,,,,,,,,,,,,,,
,,5eb202e64441603692ca7d2c,2024-02-21_21h21.20.089,kallum_motion_pilot,2023.2.2,Win32,166.6666667,5eb202e64441603692ca7d2c,65d6bb0e977760de756971f7,65d6bd9221814f9ceb730300,0.046,0.046,0,122,122,71,1,fourthree,,,,,,,,,,,,,,,,,,,,,,,,,,,,,,,,,,,,,,,,,,,,,,,,,,,,,,,,,,,,,,,,,,,,,,,,,,,,,,,,,,,,,,,,,,,,,,,,,,,,,,,,,,,,,,,,,,,,,,,,,,,,,,,,,,,,,,,,,
,,5eb202e64441603692ca7d2c,2024-02-21_21h21.20.089,kallum_motion_pilot,2023.2.2,Win32,166.6666667,5eb202e64441603692ca7d2c,65d6bb0e977760de756971f7,65d6bd9221814f9ceb730300,0.046,0.047,0,123,123,85,1,seveneight,,,,,,,,,,,,,,,,,,,,,,,,,,,,,,,,,,,,,,,,,,,,,,,,,,,,,,,,,,,,,,,,,,,,,,,,,,,,,,,,,,,,,,,,,,,,,,,,,,,,,,,,,,,,,,,,,,,,,,,,,,,,,,,,,,,,,,,,,
,,5eb202e64441603692ca7d2c,2024-02-21_21h21.20.089,kallum_motion_pilot,2023.2.2,Win32,166.6666667,5eb202e64441603692ca7d2c,65d6bb0e977760de756971f7,65d6bd9221814f9ceb730300,0.047,0.047,0,124,124,75,1,twofour,,,,,,,,,,,,,,,,,,,,,,,,,,,,,,,,,,,,,,,,,,,,,,,,,,,,,,,,,,,,,,,,,,,,,,,,,,,,,,,,,,,,,,,,,,,,,,,,,,,,,,,,,,,,,,,,,,,,,,,,,,,,,,,,,,,,,,,,,
,,5eb202e64441603692ca7d2c,2024-02-21_21h21.20.089,kallum_motion_pilot,2023.2.2,Win32,166.6666667,5eb202e64441603692ca7d2c,65d6bb0e977760de756971f7,65d6bd9221814f9ceb730300,0.048,0.048,0,125,125,36,1,threeone,,,,,,,,,,,,,,,,,,,,,,,,,,,,,,,,,,,,,,,,,,,,,,,,,,,,,,,,,,,,,,,,,,,,,,,,,,,,,,,,,,,,,,,,,,,,,,,,,,,,,,,,,,,,,,,,,,,,,,,,,,,,,,,,,,,,,,,,,
,,5eb202e64441603692ca7d2c,2024-02-21_21h21.20.089,kallum_motion_pilot,2023.2.2,Win32,166.6666667,5eb202e64441603692ca7d2c,65d6bb0e977760de756971f7,65d6bd9221814f9ceb730300,0.048,0.048,0,126,126,132,1,sevenfive,,,,,,,,,,,,,,,,,,,,,,,,,,,,,,,,,,,,,,,,,,,,,,,,,,,,,,,,,,,,,,,,,,,,,,,,,,,,,,,,,,,,,,,,,,,,,,,,,,,,,,,,,,,,,,,,,,,,,,,,,,,,,,,,,,,,,,,,,
,,5eb202e64441603692ca7d2c,2024-02-21_21h21.20.089,kallum_motion_pilot,2023.2.2,Win32,166.6666667,5eb202e64441603692ca7d2c,65d6bb0e977760de756971f7,65d6bd9221814f9ceb730300,0.048,0.048,0,127,127,48,1,onetwo,,,,,,,,,,,,,,,,,,,,,,,,,,,,,,,,,,,,,,,,,,,,,,,,,,,,,,,,,,,,,,,,,,,,,,,,,,,,,,,,,,,,,,,,,,,,,,,,,,,,,,,,,,,,,,,,,,,,,,,,,,,,,,,,,,,,,,,,,
,,5eb202e64441603692ca7d2c,2024-02-21_21h21.20.089,kallum_motion_pilot,2023.2.2,Win32,166.6666667,5eb202e64441603692ca7d2c,65d6bb0e977760de756971f7,65d6bd9221814f9ceb730300,0.048,0.048,0,128,128,0,1,onetwo,,,,,,,,,,,,,,,,,,,,,,,,,,,,,,,,,,,,,,,,,,,,,,,,,,,,,,,,,,,,,,,,,,,,,,,,,,,,,,,,,,,,,,,,,,,,,,,,,,,,,,,,,,,,,,,,,,,,,,,,,,,,,,,,,,,,,,,,,
,,5eb202e64441603692ca7d2c,2024-02-21_21h21.20.089,kallum_motion_pilot,2023.2.2,Win32,166.6666667,5eb202e64441603692ca7d2c,65d6bb0e977760de756971f7,65d6bd9221814f9ceb730300,0.048,0.048,0,129,129,61,1,threefour,,,,,,,,,,,,,,,,,,,,,,,,,,,,,,,,,,,,,,,,,,,,,,,,,,,,,,,,,,,,,,,,,,,,,,,,,,,,,,,,,,,,,,,,,,,,,,,,,,,,,,,,,,,,,,,,,,,,,,,,,,,,,,,,,,,,,,,,,
,,5eb202e64441603692ca7d2c,2024-02-21_21h21.20.089,kallum_motion_pilot,2023.2.2,Win32,166.6666667,5eb202e64441603692ca7d2c,65d6bb0e977760de756971f7,65d6bd9221814f9ceb730300,0.048,0.048,0,130,130,4,1,threeone,,,,,,,,,,,,,,,,,,,,,,,,,,,,,,,,,,,,,,,,,,,,,,,,,,,,,,,,,,,,,,,,,,,,,,,,,,,,,,,,,,,,,,,,,,,,,,,,,,,,,,,,,,,,,,,,,,,,,,,,,,,,,,,,,,,,,,,,,
,,5eb202e64441603692ca7d2c,2024-02-21_21h21.20.089,kallum_motion_pilot,2023.2.2,Win32,166.6666667,5eb202e64441603692ca7d2c,65d6bb0e977760de756971f7,65d6bd9221814f9ceb730300,0.048,0.048,0,131,131,23,1,fourthree,,,,,,,,,,,,,,,,,,,,,,,,,,,,,,,,,,,,,,,,,,,,,,,,,,,,,,,,,,,,,,,,,,,,,,,,,,,,,,,,,,,,,,,,,,,,,,,,,,,,,,,,,,,,,,,,,,,,,,,,,,,,,,,,,,,,,,,,,
,,5eb202e64441603692ca7d2c,2024-02-21_21h21.20.089,kallum_motion_pilot,2023.2.2,Win32,166.6666667,5eb202e64441603692ca7d2c,65d6bb0e977760de756971f7,65d6bd9221814f9ceb730300,0.048,0.048,0,132,132,128,1,fivesix,,,,,,,,,,,,,,,,,,,,,,,,,,,,,,,,,,,,,,,,,,,,,,,,,,,,,,,,,,,,,,,,,,,,,,,,,,,,,,,,,,,,,,,,,,,,,,,,,,,,,,,,,,,,,,,,,,,,,,,,,,,,,,,,,,,,,,,,,
,,5eb202e64441603692ca7d2c,2024-02-21_21h21.20.089,kallum_motion_pilot,2023.2.2,Win32,166.6666667,5eb202e64441603692ca7d2c,65d6bb0e977760de756971f7,65d6bd9221814f9ceb730300,0.048,0.048,0,133,133,118,1,eightsix,,,,,,,,,,,,,,,,,,,,,,,,,,,,,,,,,,,,,,,,,,,,,,,,,,,,,,,,,,,,,,,,,,,,,,,,,,,,,,,,,,,,,,,,,,,,,,,,,,,,,,,,,,,,,,,,,,,,,,,,,,,,,,,,,,,,,,,,,
,,5eb202e64441603692ca7d2c,2024-02-21_21h21.20.089,kallum_motion_pilot,2023.2.2,Win32,166.6666667,5eb202e64441603692ca7d2c,65d6bb0e977760de756971f7,65d6bd9221814f9ceb730300,0.048,0.048,0,134,134,2,1,twoone,,,,,,,,,,,,,,,,,,,,,,,,,,,,,,,,,,,,,,,,,,,,,,,,,,,,,,,,,,,,,,,,,,,,,,,,,,,,,,,,,,,,,,,,,,,,,,,,,,,,,,,,,,,,,,,,,,,,,,,,,,,,,,,,,,,,,,,,,
,,5eb202e64441603692ca7d2c,2024-02-21_21h21.20.089,kallum_motion_pilot,2023.2.2,Win32,166.6666667,5eb202e64441603692ca7d2c,65d6bb0e977760de756971f7,65d6bd9221814f9ceb730300,0.048,0.048,0,135,135,59,1,twofour,,,,,,,,,,,,,,,,,,,,,,,,,,,,,,,,,,,,,,,,,,,,,,,,,,,,,,,,,,,,,,,,,,,,,,,,,,,,,,,,,,,,,,,,,,,,,,,,,,,,,,,,,,,,,,,,,,,,,,,,,,,,,,,,,,,,,,,,,
,,5eb202e64441603692ca7d2c,2024-02-21_21h21.20.089,kallum_motion_pilot,2023.2.2,Win32,166.6666667,5eb202e64441603692ca7d2c,65d6bb0e977760de756971f7,65d6bd9221814f9ceb730300,0.048,0.048,0,136,136,74,1,twoone,,,,,,,,,,,,,,,,,,,,,,,,,,,,,,,,,,,,,,,,,,,,,,,,,,,,,,,,,,,,,,,,,,,,,,,,,,,,,,,,,,,,,,,,,,,,,,,,,,,,,,,,,,,,,,,,,,,,,,,,,,,,,,,,,,,,,,,,,
,,5eb202e64441603692ca7d2c,2024-02-21_21h21.20.089,kallum_motion_pilot,2023.2.2,Win32,166.6666667,5eb202e64441603692ca7d2c,65d6bb0e977760de756971f7,65d6bd9221814f9ceb730300,0.048,0.048,0,137,137,16,1,onetwo,,,,,,,,,,,,,,,,,,,,,,,,,,,,,,,,,,,,,,,,,,,,,,,,,,,,,,,,,,,,,,,,,,,,,,,,,,,,,,,,,,,,,,,,,,,,,,,,,,,,,,,,,,,,,,,,,,,,,,,,,,,,,,,,,,,,,,,,,
,,5eb202e64441603692ca7d2c,2024-02-21_21h21.20.089,kallum_motion_pilot,2023.2.2,Win32,166.6666667,5eb202e64441603692ca7d2c,65d6bb0e977760de756971f7,65d6bd9221814f9ceb730300,0.049,0.05,0,138,138,109,1,seveneight,,,,,,,,,,,,,,,,,,,,,,,,,,,,,,,,,,,,,,,,,,,,,,,,,,,,,,,,,,,,,,,,,,,,,,,,,,,,,,,,,,,,,,,,,,,,,,,,,,,,,,,,,,,,,,,,,,,,,,,,,,,,,,,,,,,,,,,,,
,,5eb202e64441603692ca7d2c,2024-02-21_21h21.20.089,kallum_motion_pilot,2023.2.2,Win32,166.6666667,5eb202e64441603692ca7d2c,65d6bb0e977760de756971f7,65d6bd9221814f9ceb730300,0.05,0.05,0,139,139,104,1,fivesix,,,,,,,,,,,,,,,,,,,,,,,,,,,,,,,,,,,,,,,,,,,,,,,,,,,,,,,,,,,,,,,,,,,,,,,,,,,,,,,,,,,,,,,,,,,,,,,,,,,,,,,,,,,,,,,,,,,,,,,,,,,,,,,,,,,,,,,,,
,,5eb202e64441603692ca7d2c,2024-02-21_21h21.20.089,kallum_motion_pilot,2023.2.2,Win32,166.6666667,5eb202e64441603692ca7d2c,65d6bb0e977760de756971f7,65d6bd9221814f9ceb730300,0.05,0.05,0,140,140,150,1,eightsix,,,,,,,,,,,,,,,,,,,,,,,,,,,,,,,,,,,,,,,,,,,,,,,,,,,,,,,,,,,,,,,,,,,,,,,,,,,,,,,,,,,,,,,,,,,,,,,,,,,,,,,,,,,,,,,,,,,,,,,,,,,,,,,,,,,,,,,,,
,,5eb202e64441603692ca7d2c,2024-02-21_21h21.20.089,kallum_motion_pilot,2023.2.2,Win32,166.6666667,5eb202e64441603692ca7d2c,65d6bb0e977760de756971f7,65d6bd9221814f9ceb730300,0.05,0.05,0,141,141,30,1,fourtwo,,,,,,,,,,,,,,,,,,,,,,,,,,,,,,,,,,,,,,,,,,,,,,,,,,,,,,,,,,,,,,,,,,,,,,,,,,,,,,,,,,,,,,,,,,,,,,,,,,,,,,,,,,,,,,,,,,,,,,,,,,,,,,,,,,,,,,,,,
,,5eb202e64441603692ca7d2c,2024-02-21_21h21.20.089,kallum_motion_pilot,2023.2.2,Win32,166.6666667,5eb202e64441603692ca7d2c,65d6bb0e977760de756971f7,65d6bd9221814f9ceb730300,0.05,0.05,0,142,142,156,1,sevenfive,,,,,,,,,,,,,,,,,,,,,,,,,,,,,,,,,,,,,,,,,,,,,,,,,,,,,,,,,,,,,,,,,,,,,,,,,,,,,,,,,,,,,,,,,,,,,,,,,,,,,,,,,,,,,,,,,,,,,,,,,,,,,,,,,,,,,,,,,
,,5eb202e64441603692ca7d2c,2024-02-21_21h21.20.089,kallum_motion_pilot,2023.2.2,Win32,166.6666667,5eb202e64441603692ca7d2c,65d6bb0e977760de756971f7,65d6bd9221814f9ceb730300,0.05,0.05,0,143,143,124,1,sevenfive,,,,,,,,,,,,,,,,,,,,,,,,,,,,,,,,,,,,,,,,,,,,,,,,,,,,,,,,,,,,,,,,,,,,,,,,,,,,,,,,,,,,,,,,,,,,,,,,,,,,,,,,,,,,,,,,,,,,,,,,,,,,,,,,,,,,,,,,,
,,5eb202e64441603692ca7d2c,2024-02-21_21h21.20.089,kallum_motion_pilot,2023.2.2,Win32,166.6666667,5eb202e64441603692ca7d2c,65d6bb0e977760de756971f7,65d6bd9221814f9ceb730300,0.05,0.05,0,144,144,50,1,twoone,,,,,,,,,,,,,,,,,,,,,,,,,,,,,,,,,,,,,,,,,,,,,,,,,,,,,,,,,,,,,,,,,,,,,,,,,,,,,,,,,,,,,,,,,,,,,,,,,,,,,,,,,,,,,,,,,,,,,,,,,,,,,,,,,,,,,,,,,
,,5eb202e64441603692ca7d2c,2024-02-21_21h21.20.089,kallum_motion_pilot,2023.2.2,Win32,166.6666667,5eb202e64441603692ca7d2c,65d6bb0e977760de756971f7,65d6bd9221814f9ceb730300,0.05,0.05,0,145,145,82,1,sixfive,,,,,,,,,,,,,,,,,,,,,,,,,,,,,,,,,,,,,,,,,,,,,,,,,,,,,,,,,,,,,,,,,,,,,,,,,,,,,,,,,,,,,,,,,,,,,,,,,,,,,,,,,,,,,,,,,,,,,,,,,,,,,,,,,,,,,,,,,
,,5eb202e64441603692ca7d2c,2024-02-21_21h21.20.089,kallum_motion_pilot,2023.2.2,Win32,166.6666667,5eb202e64441603692ca7d2c,65d6bb0e977760de756971f7,65d6bd9221814f9ceb730300,0.05,0.05,0,146,146,44,1,threeone,,,,,,,,,,,,,,,,,,,,,,,,,,,,,,,,,,,,,,,,,,,,,,,,,,,,,,,,,,,,,,,,,,,,,,,,,,,,,,,,,,,,,,,,,,,,,,,,,,,,,,,,,,,,,,,,,,,,,,,,,,,,,,,,,,,,,,,,,
,,5eb202e64441603692ca7d2c,2024-02-21_21h21.20.089,kallum_motion_pilot,2023.2.2,Win32,166.6666667,5eb202e64441603692ca7d2c,65d6bb0e977760de756971f7,65d6bd9221814f9ceb730300,0.05,0.05,0,147,147,92,1,sevenfive,,,,,,,,,,,,,,,,,,,,,,,,,,,,,,,,,,,,,,,,,,,,,,,,,,,,,,,,,,,,,,,,,,,,,,,,,,,,,,,,,,,,,,,,,,,,,,,,,,,,,,,,,,,,,,,,,,,,,,,,,,,,,,,,,,,,,,,,,
,,5eb202e64441603692ca7d2c,2024-02-21_21h21.20.089,kallum_motion_pilot,2023.2.2,Win32,166.6666667,5eb202e64441603692ca7d2c,65d6bb0e977760de756971f7,65d6bd9221814f9ceb730300,0.05,0.05,0,148,148,17,1,onethree,,,,,,,,,,,,,,,,,,,,,,,,,,,,,,,,,,,,,,,,,,,,,,,,,,,,,,,,,,,,,,,,,,,,,,,,,,,,,,,,,,,,,,,,,,,,,,,,,,,,,,,,,,,,,,,,,,,,,,,,,,,,,,,,,,,,,,,,,
,,5eb202e64441603692ca7d2c,2024-02-21_21h21.20.089,kallum_motion_pilot,2023.2.2,Win32,166.6666667,5eb202e64441603692ca7d2c,65d6bb0e977760de756971f7,65d6bd9221814f9ceb730300,0.05,0.05,0,149,149,153,1,fiveseven,,,,,,,,,,,,,,,,,,,,,,,,,,,,,,,,,,,,,,,,,,,,,,,,,,,,,,,,,,,,,,,,,,,,,,,,,,,,,,,,,,,,,,,,,,,,,,,,,,,,,,,,,,,,,,,,,,,,,,,,,,,,,,,,,,,,,,,,,
,,5eb202e64441603692ca7d2c,2024-02-21_21h21.20.089,kallum_motion_pilot,2023.2.2,Win32,166.6666667,5eb202e64441603692ca7d2c,65d6bb0e977760de756971f7,65d6bd9221814f9ceb730300,0.051,0.051,0,150,150,22,1,fourtwo,,,,,,,,,,,,,,,,,,,,,,,,,,,,,,,,,,,,,,,,,,,,,,,,,,,,,,,,,,,,,,,,,,,,,,,,,,,,,,,,,,,,,,,,,,,,,,,,,,,,,,,,,,,,,,,,,,,,,,,,,,,,,,,,,,,,,,,,,
,,5eb202e64441603692ca7d2c,2024-02-21_21h21.20.089,kallum_motion_pilot,2023.2.2,Win32,166.6666667,5eb202e64441603692ca7d2c,65d6bb0e977760de756971f7,65d6bd9221814f9ceb730300,0.051,0.051,0,151,151,142,1,eightsix,,,,,,,,,,,,,,,,,,,,,,,,,,,,,,,,,,,,,,,,,,,,,,,,,,,,,,,,,,,,,,,,,,,,,,,,,,,,,,,,,,,,,,,,,,,,,,,,,,,,,,,,,,,,,,,,,,,,,,,,,,,,,,,,,,,,,,,,,
,,5eb202e64441603692ca7d2c,2024-02-21_21h21.20.089,kallum_motion_pilot,2023.2.2,Win32,166.6666667,5eb202e64441603692ca7d2c,65d6bb0e977760de756971f7,65d6bd9221814f9ceb730300,0.051,0.051,0,152,152,108,1,sevenfive,,,,,,,,,,,,,,,,,,,,,,,,,,,,,,,,,,,,,,,,,,,,,,,,,,,,,,,,,,,,,,,,,,,,,,,,,,,,,,,,,,,,,,,,,,,,,,,,,,,,,,,,,,,,,,,,,,,,,,,,,,,,,,,,,,,,,,,,,
,,5eb202e64441603692ca7d2c,2024-02-21_21h21.20.089,kallum_motion_pilot,2023.2.2,Win32,166.6666667,5eb202e64441603692ca7d2c,65d6bb0e977760de756971f7,65d6bd9221814f9ceb730300,0.051,0.051,0,153,153,56,1,onetwo,,,,,,,,,,,,,,,,,,,,,,,,,,,,,,,,,,,,,,,,,,,,,,,,,,,,,,,,,,,,,,,,,,,,,,,,,,,,,,,,,,,,,,,,,,,,,,,,,,,,,,,,,,,,,,,,,,,,,,,,,,,,,,,,,,,,,,,,,
,,5eb202e64441603692ca7d2c,2024-02-21_21h21.20.089,kallum_motion_pilot,2023.2.2,Win32,166.6666667,5eb202e64441603692ca7d2c,65d6bb0e977760de756971f7,65d6bd9221814f9ceb730300,0.051,0.051,0,154,154,7,1,fourthree,,,,,,,,,,,,,,,,,,,,,,,,,,,,,,,,,,,,,,,,,,,,,,,,,,,,,,,,,,,,,,,,,,,,,,,,,,,,,,,,,,,,,,,,,,,,,,,,,,,,,,,,,,,,,,,,,,,,,,,,,,,,,,,,,,,,,,,,,
,,5eb202e64441603692ca7d2c,2024-02-21_21h21.20.089,kallum_motion_pilot,2023.2.2,Win32,166.6666667,5eb202e64441603692ca7d2c,65d6bb0e977760de756971f7,65d6bd9221814f9ceb730300,0.051,0.051,0,155,155,134,1,eightsix,,,,,,,,,,,,,,,,,,,,,,,,,,,,,,,,,,,,,,,,,,,,,,,,,,,,,,,,,,,,,,,,,,,,,,,,,,,,,,,,,,,,,,,,,,,,,,,,,,,,,,,,,,,,,,,,,,,,,,,,,,,,,,,,,,,,,,,,,
,,5eb202e64441603692ca7d2c,2024-02-21_21h21.20.089,kallum_motion_pilot,2023.2.2,Win32,166.6666667,5eb202e64441603692ca7d2c,65d6bb0e977760de756971f7,65d6bd9221814f9ceb730300,0.051,0.051,0,156,156,67,1,twofour,,,,,,,,,,,,,,,,,,,,,,,,,,,,,,,,,,,,,,,,,,,,,,,,,,,,,,,,,,,,,,,,,,,,,,,,,,,,,,,,,,,,,,,,,,,,,,,,,,,,,,,,,,,,,,,,,,,,,,,,,,,,,,,,,,,,,,,,,
,,5eb202e64441603692ca7d2c,2024-02-21_21h21.20.089,kallum_motion_pilot,2023.2.2,Win32,166.6666667,5eb202e64441603692ca7d2c,65d6bb0e977760de756971f7,65d6bd9221814f9ceb730300,0.052,0.052,0,157,157,94,1,eightsix,,,,,,,,,,,,,,,,,,,,,,,,,,,,,,,,,,,,,,,,,,,,,,,,,,,,,,,,,,,,,,,,,,,,,,,,,,,,,,,,,,,,,,,,,,,,,,,,,,,,,,,,,,,,,,,,,,,,,,,,,,,,,,,,,,,,,,,,,
,,5eb202e64441603692ca7d2c,2024-02-21_21h21.20.089,kallum_motion_pilot,2023.2.2,Win32,166.6666667,5eb202e64441603692ca7d2c,65d6bb0e977760de756971f7,65d6bd9221814f9ceb730300,0.052,0.052,0,158,158,68,1,threeone,,,,,,,,,,,,,,,,,,,,,,,,,,,,,,,,,,,,,,,,,,,,,,,,,,,,,,,,,,,,,,,,,,,,,,,,,,,,,,,,,,,,,,,,,,,,,,,,,,,,,,,,,,,,,,,,,,,,,,,,,,,,,,,,,,,,,,,,,
,,5eb202e64441603692ca7d2c,2024-02-21_21h21.20.089,kallum_motion_pilot,2023.2.2,Win32,166.6666667,5eb202e64441603692ca7d2c,65d6bb0e977760de756971f7,65d6bd9221814f9ceb730300,0.052,0.052,0,159,159,106,1,sixfive,,,,,,,,,,,,,,,,,,,,,,,,,,,,,,,,,,,,,,,,,,,,,,,,,,,,,,,,,,,,,,,,,,,,,,,,,,,,,,,,,,,,,,,,,,,,,,,,,,,,,,,,,,,,,,,,,,,,,,,,,,,,,,,,,,,,,,,,,
,,5eb202e64441603692ca7d2c,2024-02-21_21h21.20.089,kallum_motion_pilot,2023.2.2,Win32,166.6666667,5eb202e64441603692ca7d2c,65d6bb0e977760de756971f7,65d6bd9221814f9ceb730300,0.053,0.053,0,160,160,146,1,sixfive,,,,,,,,,,,,,,,,,,,,,,,,,,,,,,,,,,,,,,,,,,,,,,,,,,,,,,,,,,,,,,,,,,,,,,,,,,,,,,,,,,,,,,,,,,,,,,,,,,,,,,,,,,,,,,,,,,,,,,,,,,,,,,,,,,,,,,,,,
,,5eb202e64441603692ca7d2c,2024-02-21_21h21.20.089,kallum_motion_pilot,2023.2.2,Win32,166.6666667,5eb202e64441603692ca7d2c,65d6bb0e977760de756971f7,65d6bd9221814f9ceb730300,0.053,0.053,0,161,161,107,1,sixeight,,,,,,,,,,,,,,,,,,,,,,,,,,,,,,,,,,,,,,,,,,,,,,,,,,,,,,,,,,,,,,,,,,,,,,,,,,,,,,,,,,,,,,,,,,,,,,,,,,,,,,,,,,,,,,,,,,,,,,,,,,,,,,,,,,,,,,,,,
,,5eb202e64441603692ca7d2c,2024-02-21_21h21.20.089,kallum_motion_pilot,2023.2.2,Win32,166.6666667,5eb202e64441603692ca7d2c,65d6bb0e977760de756971f7,65d6bd9221814f9ceb730300,0.053,0.053,1,0,162,9,1,onethree,,,,,,,,,,,,,,,,,,,,,,,,,,,,,,,,,,,,,,,,,,,,,,,,,,,,,,,,,,,,,,,,,,,,,,,,,,,,,,,,,,,,,,,,,,,,,,,,,,,,,,,,,,,,,,,,,,,,,,,,,,,,,,,,,,,,,,,,,
,,5eb202e64441603692ca7d2c,2024-02-21_21h21.20.089,kallum_motion_pilot,2023.2.2,Win32,166.6666667,5eb202e64441603692ca7d2c,65d6bb0e977760de756971f7,65d6bd9221814f9ceb730300,0.053,0.053,1,1,163,155,1,sixeight,,,,,,,,,,,,,,,,,,,,,,,,,,,,,,,,,,,,,,,,,,,,,,,,,,,,,,,,,,,,,,,,,,,,,,,,,,,,,,,,,,,,,,,,,,,,,,,,,,,,,,,,,,,,,,,,,,,,,,,,,,,,,,,,,,,,,,,,,
,,5eb202e64441603692ca7d2c,2024-02-21_21h21.20.089,kallum_motion_pilot,2023.2.2,Win32,166.6666667,5eb202e64441603692ca7d2c,65d6bb0e977760de756971f7,65d6bd9221814f9ceb730300,0.053,0.053,1,2,164,6,1,fourtwo,,,,,,,,,,,,,,,,,,,,,,,,,,,,,,,,,,,,,,,,,,,,,,,,,,,,,,,,,,,,,,,,,,,,,,,,,,,,,,,,,,,,,,,,,,,,,,,,,,,,,,,,,,,,,,,,,,,,,,,,,,,,,,,,,,,,,,,,,
,,5eb202e64441603692ca7d2c,2024-02-21_21h21.20.089,kallum_motion_pilot,2023.2.2,Win32,166.6666667,5eb202e64441603692ca7d2c,65d6bb0e977760de756971f7,65d6bd9221814f9ceb730300,0.053,0.053,1,3,165,129,1,fiveseven,,,,,,,,,,,,,,,,,,,,,,,,,,,,,,,,,,,,,,,,,,,,,,,,,,,,,,,,,,,,,,,,,,,,,,,,,,,,,,,,,,,,,,,,,,,,,,,,,,,,,,,,,,,,,,,,,,,,,,,,,,,,,,,,,,,,,,,,,
,,5eb202e64441603692ca7d2c,2024-02-21_21h21.20.089,kallum_motion_pilot,2023.2.2,Win32,166.6666667,5eb202e64441603692ca7d2c,65d6bb0e977760de756971f7,65d6bd9221814f9ceb730300,0.053,0.053,1,4,166,63,1,fourthree,,,,,,,,,,,,,,,,,,,,,,,,,,,,,,,,,,,,,,,,,,,,,,,,,,,,,,,,,,,,,,,,,,,,,,,,,,,,,,,,,,,,,,,,,,,,,,,,,,,,,,,,,,,,,,,,,,,,,,,,,,,,,,,,,,,,,,,,,
,,5eb202e64441603692ca7d2c,2024-02-21_21h21.20.089,kallum_motion_pilot,2023.2.2,Win32,166.6666667,5eb202e64441603692ca7d2c,65d6bb0e977760de756971f7,65d6bd9221814f9ceb730300,0.054,0.054,1,5,167,108,1,sevenfive,,,,,,,,,,,,,,,,,,,,,,,,,,,,,,,,,,,,,,,,,,,,,,,,,,,,,,,,,,,,,,,,,,,,,,,,,,,,,,,,,,,,,,,,,,,,,,,,,,,,,,,,,,,,,,,,,,,,,,,,,,,,,,,,,,,,,,,,,
,,5eb202e64441603692ca7d2c,2024-02-21_21h21.20.089,kallum_motion_pilot,2023.2.2,Win32,166.6666667,5eb202e64441603692ca7d2c,65d6bb0e977760de756971f7,65d6bd9221814f9ceb730300,0.054,0.054,1,6,168,71,1,fourthree,,,,,,,,,,,,,,,,,,,,,,,,,,,,,,,,,,,,,,,,,,,,,,,,,,,,,,,,,,,,,,,,,,,,,,,,,,,,,,,,,,,,,,,,,,,,,,,,,,,,,,,,,,,,,,,,,,,,,,,,,,,,,,,,,,,,,,,,,
,,5eb202e64441603692ca7d2c,2024-02-21_21h21.20.089,kallum_motion_pilot,2023.2.2,Win32,166.6666667,5eb202e64441603692ca7d2c,65d6bb0e977760de756971f7,65d6bd9221814f9ceb730300,0.054,0.054,1,7,169,50,1,twoone,,,,,,,,,,,,,,,,,,,,,,,,,,,,,,,,,,,,,,,,,,,,,,,,,,,,,,,,,,,,,,,,,,,,,,,,,,,,,,,,,,,,,,,,,,,,,,,,,,,,,,,,,,,,,,,,,,,,,,,,,,,,,,,,,,,,,,,,,
,,5eb202e64441603692ca7d2c,2024-02-21_21h21.20.089,kallum_motion_pilot,2023.2.2,Win32,166.6666667,5eb202e64441603692ca7d2c,65d6bb0e977760de756971f7,65d6bd9221814f9ceb730300,0.054,0.054,1,8,170,145,1,fiveseven,,,,,,,,,,,,,,,,,,,,,,,,,,,,,,,,,,,,,,,,,,,,,,,,,,,,,,,,,,,,,,,,,,,,,,,,,,,,,,,,,,,,,,,,,,,,,,,,,,,,,,,,,,,,,,,,,,,,,,,,,,,,,,,,,,,,,,,,,
,,5eb202e64441603692ca7d2c,2024-02-21_21h21.20.089,kallum_motion_pilot,2023.2.2,Win32,166.6666667,5eb202e64441603692ca7d2c,65d6bb0e977760de756971f7,65d6bd9221814f9ceb730300,0.054,0.054,1,9,171,18,1,twoone,,,,,,,,,,,,,,,,,,,,,,,,,,,,,,,,,,,,,,,,,,,,,,,,,,,,,,,,,,,,,,,,,,,,,,,,,,,,,,,,,,,,,,,,,,,,,,,,,,,,,,,,,,,,,,,,,,,,,,,,,,,,,,,,,,,,,,,,,
,,5eb202e64441603692ca7d2c,2024-02-21_21h21.20.089,kallum_motion_pilot,2023.2.2,Win32,166.6666667,5eb202e64441603692ca7d2c,65d6bb0e977760de756971f7,65d6bd9221814f9ceb730300,0.054,0.054,1,10,172,8,1,onetwo,,,,,,,,,,,,,,,,,,,,,,,,,,,,,,,,,,,,,,,,,,,,,,,,,,,,,,,,,,,,,,,,,,,,,,,,,,,,,,,,,,,,,,,,,,,,,,,,,,,,,,,,,,,,,,,,,,,,,,,,,,,,,,,,,,,,,,,,,
,,5eb202e64441603692ca7d2c,2024-02-21_21h21.20.089,kallum_motion_pilot,2023.2.2,Win32,166.6666667,5eb202e64441603692ca7d2c,65d6bb0e977760de756971f7,65d6bd9221814f9ceb730300,0.054,0.054,1,11,173,147,1,sixeight,,,,,,,,,,,,,,,,,,,,,,,,,,,,,,,,,,,,,,,,,,,,,,,,,,,,,,,,,,,,,,,,,,,,,,,,,,,,,,,,,,,,,,,,,,,,,,,,,,,,,,,,,,,,,,,,,,,,,,,,,,,,,,,,,,,,,,,,,
,,5eb202e64441603692ca7d2c,2024-02-21_21h21.20.089,kallum_motion_pilot,2023.2.2,Win32,166.6666667,5eb202e64441603692ca7d2c,65d6bb0e977760de756971f7,65d6bd9221814f9ceb730300,0.054,0.054,1,12,174,106,1,sixfive,,,,,,,,,,,,,,,,,,,,,,,,,,,,,,,,,,,,,,,,,,,,,,,,,,,,,,,,,,,,,,,,,,,,,,,,,,,,,,,,,,,,,,,,,,,,,,,,,,,,,,,,,,,,,,,,,,,,,,,,,,,,,,,,,,,,,,,,,
,,5eb202e64441603692ca7d2c,2024-02-21_21h21.20.089,kallum_motion_pilot,2023.2.2,Win32,166.6666667,5eb202e64441603692ca7d2c,65d6bb0e977760de756971f7,65d6bd9221814f9ceb730300,0.055,0.055,1,13,175,53,1,threefour,,,,,,,,,,,,,,,,,,,,,,,,,,,,,,,,,,,,,,,,,,,,,,,,,,,,,,,,,,,,,,,,,,,,,,,,,,,,,,,,,,,,,,,,,,,,,,,,,,,,,,,,,,,,,,,,,,,,,,,,,,,,,,,,,,,,,,,,,
,,5eb202e64441603692ca7d2c,2024-02-21_21h21.20.089,kallum_motion_pilot,2023.2.2,Win32,166.6666667,5eb202e64441603692ca7d2c,65d6bb0e977760de756971f7,65d6bd9221814f9ceb730300,0.055,0.055,1,14,176,134,1,eightsix,,,,,,,,,,,,,,,,,,,,,,,,,,,,,,,,,,,,,,,,,,,,,,,,,,,,,,,,,,,,,,,,,,,,,,,,,,,,,,,,,,,,,,,,,,,,,,,,,,,,,,,,,,,,,,,,,,,,,,,,,,,,,,,,,,,,,,,,,
,,5eb202e64441603692ca7d2c,2024-02-21_21h21.20.089,kallum_motion_pilot,2023.2.2,Win32,166.6666667,5eb202e64441603692ca7d2c,65d6bb0e977760de756971f7,65d6bd9221814f9ceb730300,0.055,0.055,1,15,177,133,1,seveneight,,,,,,,,,,,,,,,,,,,,,,,,,,,,,,,,,,,,,,,,,,,,,,,,,,,,,,,,,,,,,,,,,,,,,,,,,,,,,,,,,,,,,,,,,,,,,,,,,,,,,,,,,,,,,,,,,,,,,,,,,,,,,,,,,,,,,,,,,
,,5eb202e64441603692ca7d2c,2024-02-21_21h21.20.089,kallum_motion_pilot,2023.2.2,Win32,166.6666667,5eb202e64441603692ca7d2c,65d6bb0e977760de756971f7,65d6bd9221814f9ceb730300,0.055,0.055,1,16,178,161,1,fiveseven,,,,,,,,,,,,,,,,,,,,,,,,,,,,,,,,,,,,,,,,,,,,,,,,,,,,,,,,,,,,,,,,,,,,,,,,,,,,,,,,,,,,,,,,,,,,,,,,,,,,,,,,,,,,,,,,,,,,,,,,,,,,,,,,,,,,,,,,,
,,5eb202e64441603692ca7d2c,2024-02-21_21h21.20.089,kallum_motion_pilot,2023.2.2,Win32,166.6666667,5eb202e64441603692ca7d2c,65d6bb0e977760de756971f7,65d6bd9221814f9ceb730300,0.055,0.055,1,17,179,1,1,onethree,,,,,,,,,,,,,,,,,,,,,,,,,,,,,,,,,,,,,,,,,,,,,,,,,,,,,,,,,,,,,,,,,,,,,,,,,,,,,,,,,,,,,,,,,,,,,,,,,,,,,,,,,,,,,,,,,,,,,,,,,,,,,,,,,,,,,,,,,
,,5eb202e64441603692ca7d2c,2024-02-21_21h21.20.089,kallum_motion_pilot,2023.2.2,Win32,166.6666667,5eb202e64441603692ca7d2c,65d6bb0e977760de756971f7,65d6bd9221814f9ceb730300,0.055,0.055,1,18,180,112,1,fivesix,,,,,,,,,,,,,,,,,,,,,,,,,,,,,,,,,,,,,,,,,,,,,,,,,,,,,,,,,,,,,,,,,,,,,,,,,,,,,,,,,,,,,,,,,,,,,,,,,,,,,,,,,,,,,,,,,,,,,,,,,,,,,,,,,,,,,,,,,
,,5eb202e64441603692ca7d2c,2024-02-21_21h21.20.089,kallum_motion_pilot,2023.2.2,Win32,166.6666667,5eb202e64441603692ca7d2c,65d6bb0e977760de756971f7,65d6bd9221814f9ceb730300,0.055,0.055,1,19,181,32,1,onetwo,,,,,,,,,,,,,,,,,,,,,,,,,,,,,,,,,,,,,,,,,,,,,,,,,,,,,,,,,,,,,,,,,,,,,,,,,,,,,,,,,,,,,,,,,,,,,,,,,,,,,,,,,,,,,,,,,,,,,,,,,,,,,,,,,,,,,,,,,
,,5eb202e64441603692ca7d2c,2024-02-21_21h21.20.089,kallum_motion_pilot,2023.2.2,Win32,166.6666667,5eb202e64441603692ca7d2c,65d6bb0e977760de756971f7,65d6bd9221814f9ceb730300,0.056,0.056,1,20,182,68,1,threeone,,,,,,,,,,,,,,,,,,,,,,,,,,,,,,,,,,,,,,,,,,,,,,,,,,,,,,,,,,,,,,,,,,,,,,,,,,,,,,,,,,,,,,,,,,,,,,,,,,,,,,,,,,,,,,,,,,,,,,,,,,,,,,,,,,,,,,,,,
,,5eb202e64441603692ca7d2c,2024-02-21_21h21.20.089,kallum_motion_pilot,2023.2.2,Win32,166.6666667,5eb202e64441603692ca7d2c,65d6bb0e977760de756971f7,65d6bd9221814f9ceb730300,0.056,0.056,1,21,183,42,1,twoone,,,,,,,,,,,,,,,,,,,,,,,,,,,,,,,,,,,,,,,,,,,,,,,,,,,,,,,,,,,,,,,,,,,,,,,,,,,,,,,,,,,,,,,,,,,,,,,,,,,,,,,,,,,,,,,,,,,,,,,,,,,,,,,,,,,,,,,,,
,,5eb202e64441603692ca7d2c,2024-02-21_21h21.20.089,kallum_motion_pilot,2023.2.2,Win32,166.6666667,5eb202e64441603692ca7d2c,65d6bb0e977760de756971f7,65d6bd9221814f9ceb730300,0.056,0.056,1,22,184,35,1,twofour,,,,,,,,,,,,,,,,,,,,,,,,,,,,,,,,,,,,,,,,,,,,,,,,,,,,,,,,,,,,,,,,,,,,,,,,,,,,,,,,,,,,,,,,,,,,,,,,,,,,,,,,,,,,,,,,,,,,,,,,,,,,,,,,,,,,,,,,,
,,5eb202e64441603692ca7d2c,2024-02-21_21h21.20.089,kallum_motion_pilot,2023.2.2,Win32,166.6666667,5eb202e64441603692ca7d2c,65d6bb0e977760de756971f7,65d6bd9221814f9ceb730300,0.056,0.056,1,23,185,97,1,fiveseven,,,,,,,,,,,,,,,,,,,,,,,,,,,,,,,,,,,,,,,,,,,,,,,,,,,,,,,,,,,,,,,,,,,,,,,,,,,,,,,,,,,,,,,,,,,,,,,,,,,,,,,,,,,,,,,,,,,,,,,,,,,,,,,,,,,,,,,,,
,,5eb202e64441603692ca7d2c,2024-02-21_21h21.20.089,kallum_motion_pilot,2023.2.2,Win32,166.6666667,5eb202e64441603692ca7d2c,65d6bb0e977760de756971f7,65d6bd9221814f9ceb730300,0.056,0.057,1,24,186,132,1,sevenfive,,,,,,,,,,,,,,,,,,,,,,,,,,,,,,,,,,,,,,,,,,,,,,,,,,,,,,,,,,,,,,,,,,,,,,,,,,,,,,,,,,,,,,,,,,,,,,,,,,,,,,,,,,,,,,,,,,,,,,,,,,,,,,,,,,,,,,,,,
,,5eb202e64441603692ca7d2c,2024-02-21_21h21.20.089,kallum_motion_pilot,2023.2.2,Win32,166.6666667,5eb202e64441603692ca7d2c,65d6bb0e977760de756971f7,65d6bd9221814f9ceb730300,0.057,0.057,1,25,187,79,1,eightseven,,,,,,,,,,,,,,,,,,,,,,,,,,,,,,,,,,,,,,,,,,,,,,,,,,,,,,,,,,,,,,,,,,,,,,,,,,,,,,,,,,,,,,,,,,,,,,,,,,,,,,,,,,,,,,,,,,,,,,,,,,,,,,,,,,,,,,,,,
,,5eb202e64441603692ca7d2c,2024-02-21_21h21.20.089,kallum_motion_pilot,2023.2.2,Win32,166.6666667,5eb202e64441603692ca7d2c,65d6bb0e977760de756971f7,65d6bd9221814f9ceb730300,0.057,0.057,1,26,188,51,1,twofour,,,,,,,,,,,,,,,,,,,,,,,,,,,,,,,,,,,,,,,,,,,,,,,,,,,,,,,,,,,,,,,,,,,,,,,,,,,,,,,,,,,,,,,,,,,,,,,,,,,,,,,,,,,,,,,,,,,,,,,,,,,,,,,,,,,,,,,,,
,,5eb202e64441603692ca7d2c,2024-02-21_21h21.20.089,kallum_motion_pilot,2023.2.2,Win32,166.6666667,5eb202e64441603692ca7d2c,65d6bb0e977760de756971f7,65d6bd9221814f9ceb730300,0.057,0.057,1,27,189,149,1,seveneight,,,,,,,,,,,,,,,,,,,,,,,,,,,,,,,,,,,,,,,,,,,,,,,,,,,,,,,,,,,,,,,,,,,,,,,,,,,,,,,,,,,,,,,,,,,,,,,,,,,,,,,,,,,,,,,,,,,,,,,,,,,,,,,,,,,,,,,,,
,,5eb202e64441603692ca7d2c,2024-02-21_21h21.20.089,kallum_motion_pilot,2023.2.2,Win32,166.6666667,5eb202e64441603692ca7d2c,65d6bb0e977760de756971f7,65d6bd9221814f9ceb730300,0.057,0.057,1,28,190,103,1,eightseven,,,,,,,,,,,,,,,,,,,,,,,,,,,,,,,,,,,,,,,,,,,,,,,,,,,,,,,,,,,,,,,,,,,,,,,,,,,,,,,,,,,,,,,,,,,,,,,,,,,,,,,,,,,,,,,,,,,,,,,,,,,,,,,,,,,,,,,,,
,,5eb202e64441603692ca7d2c,2024-02-21_21h21.20.089,kallum_motion_pilot,2023.2.2,Win32,166.6666667,5eb202e64441603692ca7d2c,65d6bb0e977760de756971f7,65d6bd9221814f9ceb730300,0.057,0.057,1,29,191,27,1,twofour,,,,,,,,,,,,,,,,,,,,,,,,,,,,,,,,,,,,,,,,,,,,,,,,,,,,,,,,,,,,,,,,,,,,,,,,,,,,,,,,,,,,,,,,,,,,,,,,,,,,,,,,,,,,,,,,,,,,,,,,,,,,,,,,,,,,,,,,,
,,5eb202e64441603692ca7d2c,2024-02-21_21h21.20.089,kallum_motion_pilot,2023.2.2,Win32,166.6666667,5eb202e64441603692ca7d2c,65d6bb0e977760de756971f7,65d6bd9221814f9ceb730300,0.057,0.057,1,30,192,65,1,onethree,,,,,,,,,,,,,,,,,,,,,,,,,,,,,,,,,,,,,,,,,,,,,,,,,,,,,,,,,,,,,,,,,,,,,,,,,,,,,,,,,,,,,,,,,,,,,,,,,,,,,,,,,,,,,,,,,,,,,,,,,,,,,,,,,,,,,,,,,
,,5eb202e64441603692ca7d2c,2024-02-21_21h21.20.089,kallum_motion_pilot,2023.2.2,Win32,166.6666667,5eb202e64441603692ca7d2c,65d6bb0e977760de756971f7,65d6bd9221814f9ceb730300,0.057,0.057,1,31,193,57,1,onethree,,,,,,,,,,,,,,,,,,,,,,,,,,,,,,,,,,,,,,,,,,,,,,,,,,,,,,,,,,,,,,,,,,,,,,,,,,,,,,,,,,,,,,,,,,,,,,,,,,,,,,,,,,,,,,,,,,,,,,,,,,,,,,,,,,,,,,,,,
,,5eb202e64441603692ca7d2c,2024-02-21_21h21.20.089,kallum_motion_pilot,2023.2.2,Win32,166.6666667,5eb202e64441603692ca7d2c,65d6bb0e977760de756971f7,65d6bd9221814f9ceb730300,0.057,0.057,1,32,194,60,1,threeone,,,,,,,,,,,,,,,,,,,,,,,,,,,,,,,,,,,,,,,,,,,,,,,,,,,,,,,,,,,,,,,,,,,,,,,,,,,,,,,,,,,,,,,,,,,,,,,,,,,,,,,,,,,,,,,,,,,,,,,,,,,,,,,,,,,,,,,,,
,,5eb202e64441603692ca7d2c,2024-02-21_21h21.20.089,kallum_motion_pilot,2023.2.2,Win32,166.6666667,5eb202e64441603692ca7d2c,65d6bb0e977760de756971f7,65d6bd9221814f9ceb730300,0.057,0.057,1,33,195,123,1,sixeight,,,,,,,,,,,,,,,,,,,,,,,,,,,,,,,,,,,,,,,,,,,,,,,,,,,,,,,,,,,,,,,,,,,,,,,,,,,,,,,,,,,,,,,,,,,,,,,,,,,,,,,,,,,,,,,,,,,,,,,,,,,,,,,,,,,,,,,,,
,,5eb202e64441603692ca7d2c,2024-02-21_21h21.20.089,kallum_motion_pilot,2023.2.2,Win32,166.6666667,5eb202e64441603692ca7d2c,65d6bb0e977760de756971f7,65d6bd9221814f9ceb730300,0.058,0.058,1,34,196,150,1,eightsix,,,,,,,,,,,,,,,,,,,,,,,,,,,,,,,,,,,,,,,,,,,,,,,,,,,,,,,,,,,,,,,,,,,,,,,,,,,,,,,,,,,,,,,,,,,,,,,,,,,,,,,,,,,,,,,,,,,,,,,,,,,,,,,,,,,,,,,,,
,,5eb202e64441603692ca7d2c,2024-02-21_21h21.20.089,kallum_motion_pilot,2023.2.2,Win32,166.6666667,5eb202e64441603692ca7d2c,65d6bb0e977760de756971f7,65d6bd9221814f9ceb730300,0.058,0.058,1,35,197,140,1,sevenfive,,,,,,,,,,,,,,,,,,,,,,,,,,,,,,,,,,,,,,,,,,,,,,,,,,,,,,,,,,,,,,,,,,,,,,,,,,,,,,,,,,,,,,,,,,,,,,,,,,,,,,,,,,,,,,,,,,,,,,,,,,,,,,,,,,,,,,,,,
,,5eb202e64441603692ca7d2c,2024-02-21_21h21.20.089,kallum_motion_pilot,2023.2.2,Win32,166.6666667,5eb202e64441603692ca7d2c,65d6bb0e977760de756971f7,65d6bd9221814f9ceb730300,0.058,0.058,1,36,198,67,1,twofour,,,,,,,,,,,,,,,,,,,,,,,,,,,,,,,,,,,,,,,,,,,,,,,,,,,,,,,,,,,,,,,,,,,,,,,,,,,,,,,,,,,,,,,,,,,,,,,,,,,,,,,,,,,,,,,,,,,,,,,,,,,,,,,,,,,,,,,,,
,,5eb202e64441603692ca7d2c,2024-02-21_21h21.20.089,kallum_motion_pilot,2023.2.2,Win32,166.6666667,5eb202e64441603692ca7d2c,65d6bb0e977760de756971f7,65d6bd9221814f9ceb730300,0.058,0.058,1,37,199,82,1,sixfive,,,,,,,,,,,,,,,,,,,,,,,,,,,,,,,,,,,,,,,,,,,,,,,,,,,,,,,,,,,,,,,,,,,,,,,,,,,,,,,,,,,,,,,,,,,,,,,,,,,,,,,,,,,,,,,,,,,,,,,,,,,,,,,,,,,,,,,,,
,,5eb202e64441603692ca7d2c,2024-02-21_21h21.20.089,kallum_motion_pilot,2023.2.2,Win32,166.6666667,5eb202e64441603692ca7d2c,65d6bb0e977760de756971f7,65d6bd9221814f9ceb730300,0.058,0.058,1,38,200,144,1,fivesix,,,,,,,,,,,,,,,,,,,,,,,,,,,,,,,,,,,,,,,,,,,,,,,,,,,,,,,,,,,,,,,,,,,,,,,,,,,,,,,,,,,,,,,,,,,,,,,,,,,,,,,,,,,,,,,,,,,,,,,,,,,,,,,,,,,,,,,,,
,,5eb202e64441603692ca7d2c,2024-02-21_21h21.20.089,kallum_motion_pilot,2023.2.2,Win32,166.6666667,5eb202e64441603692ca7d2c,65d6bb0e977760de756971f7,65d6bd9221814f9ceb730300,0.058,0.058,1,39,201,74,1,twoone,,,,,,,,,,,,,,,,,,,,,,,,,,,,,,,,,,,,,,,,,,,,,,,,,,,,,,,,,,,,,,,,,,,,,,,,,,,,,,,,,,,,,,,,,,,,,,,,,,,,,,,,,,,,,,,,,,,,,,,,,,,,,,,,,,,,,,,,,
,,5eb202e64441603692ca7d2c,2024-02-21_21h21.20.089,kallum_motion_pilot,2023.2.2,Win32,166.6666667,5eb202e64441603692ca7d2c,65d6bb0e977760de756971f7,65d6bd9221814f9ceb730300,0.058,0.058,1,40,202,22,1,fourtwo,,,,,,,,,,,,,,,,,,,,,,,,,,,,,,,,,,,,,,,,,,,,,,,,,,,,,,,,,,,,,,,,,,,,,,,,,,,,,,,,,,,,,,,,,,,,,,,,,,,,,,,,,,,,,,,,,,,,,,,,,,,,,,,,,,,,,,,,,
,,5eb202e64441603692ca7d2c,2024-02-21_21h21.20.089,kallum_motion_pilot,2023.2.2,Win32,166.6666667,5eb202e64441603692ca7d2c,65d6bb0e977760de756971f7,65d6bd9221814f9ceb730300,0.059,0.059,1,41,203,34,1,twoone,,,,,,,,,,,,,,,,,,,,,,,,,,,,,,,,,,,,,,,,,,,,,,,,,,,,,,,,,,,,,,,,,,,,,,,,,,,,,,,,,,,,,,,,,,,,,,,,,,,,,,,,,,,,,,,,,,,,,,,,,,,,,,,,,,,,,,,,,
,,5eb202e64441603692ca7d2c,2024-02-21_21h21.20.089,kallum_motion_pilot,2023.2.2,Win32,166.6666667,5eb202e64441603692ca7d2c,65d6bb0e977760de756971f7,65d6bd9221814f9ceb730300,0.059,0.059,1,42,204,17,1,onethree,,,,,,,,,,,,,,,,,,,,,,,,,,,,,,,,,,,,,,,,,,,,,,,,,,,,,,,,,,,,,,,,,,,,,,,,,,,,,,,,,,,,,,,,,,,,,,,,,,,,,,,,,,,,,,,,,,,,,,,,,,,,,,,,,,,,,,,,,
,,5eb202e64441603692ca7d2c,2024-02-21_21h21.20.089,kallum_motion_pilot,2023.2.2,Win32,166.6666667,5eb202e64441603692ca7d2c,65d6bb0e977760de756971f7,65d6bd9221814f9ceb730300,0.059,0.059,1,43,205,160,1,fivesix,,,,,,,,,,,,,,,,,,,,,,,,,,,,,,,,,,,,,,,,,,,,,,,,,,,,,,,,,,,,,,,,,,,,,,,,,,,,,,,,,,,,,,,,,,,,,,,,,,,,,,,,,,,,,,,,,,,,,,,,,,,,,,,,,,,,,,,,,
,,5eb202e64441603692ca7d2c,2024-02-21_21h21.20.089,kallum_motion_pilot,2023.2.2,Win32,166.6666667,5eb202e64441603692ca7d2c,65d6bb0e977760de756971f7,65d6bd9221814f9ceb730300,0.059,0.059,1,44,206,19,1,twofour,,,,,,,,,,,,,,,,,,,,,,,,,,,,,,,,,,,,,,,,,,,,,,,,,,,,,,,,,,,,,,,,,,,,,,,,,,,,,,,,,,,,,,,,,,,,,,,,,,,,,,,,,,,,,,,,,,,,,,,,,,,,,,,,,,,,,,,,,
,,5eb202e64441603692ca7d2c,2024-02-21_21h21.20.089,kallum_motion_pilot,2023.2.2,Win32,166.6666667,5eb202e64441603692ca7d2c,65d6bb0e977760de756971f7,65d6bd9221814f9ceb730300,0.06,0.06,1,45,207,113,1,fiveseven,,,,,,,,,,,,,,,,,,,,,,,,,,,,,,,,,,,,,,,,,,,,,,,,,,,,,,,,,,,,,,,,,,,,,,,,,,,,,,,,,,,,,,,,,,,,,,,,,,,,,,,,,,,,,,,,,,,,,,,,,,,,,,,,,,,,,,,,,
,,5eb202e64441603692ca7d2c,2024-02-21_21h21.20.089,kallum_motion_pilot,2023.2.2,Win32,166.6666667,5eb202e64441603692ca7d2c,65d6bb0e977760de756971f7,65d6bd9221814f9ceb730300,0.06,0.06,1,46,208,122,1,sixfive,,,,,,,,,,,,,,,,,,,,,,,,,,,,,,,,,,,,,,,,,,,,,,,,,,,,,,,,,,,,,,,,,,,,,,,,,,,,,,,,,,,,,,,,,,,,,,,,,,,,,,,,,,,,,,,,,,,,,,,,,,,,,,,,,,,,,,,,,
,,5eb202e64441603692ca7d2c,2024-02-21_21h21.20.089,kallum_motion_pilot,2023.2.2,Win32,166.6666667,5eb202e64441603692ca7d2c,65d6bb0e977760de756971f7,65d6bd9221814f9ceb730300,0.06,0.06,1,47,209,138,1,sixfive,,,,,,,,,,,,,,,,,,,,,,,,,,,,,,,,,,,,,,,,,,,,,,,,,,,,,,,,,,,,,,,,,,,,,,,,,,,,,,,,,,,,,,,,,,,,,,,,,,,,,,,,,,,,,,,,,,,,,,,,,,,,,,,,,,,,,,,,,
,,5eb202e64441603692ca7d2c,2024-02-21_21h21.20.089,kallum_motion_pilot,2023.2.2,Win32,166.6666667,5eb202e64441603692ca7d2c,65d6bb0e977760de756971f7,65d6bd9221814f9ceb730300,0.06,0.06,1,48,210,94,1,eightsix,,,,,,,,,,,,,,,,,,,,,,,,,,,,,,,,,,,,,,,,,,,,,,,,,,,,,,,,,,,,,,,,,,,,,,,,,,,,,,,,,,,,,,,,,,,,,,,,,,,,,,,,,,,,,,,,,,,,,,,,,,,,,,,,,,,,,,,,,
,,5eb202e64441603692ca7d2c,2024-02-21_21h21.20.089,kallum_motion_pilot,2023.2.2,Win32,166.6666667,5eb202e64441603692ca7d2c,65d6bb0e977760de756971f7,65d6bd9221814f9ceb730300,0.06,0.06,1,49,211,58,1,twoone,,,,,,,,,,,,,,,,,,,,,,,,,,,,,,,,,,,,,,,,,,,,,,,,,,,,,,,,,,,,,,,,,,,,,,,,,,,,,,,,,,,,,,,,,,,,,,,,,,,,,,,,,,,,,,,,,,,,,,,,,,,,,,,,,,,,,,,,,
,,5eb202e64441603692ca7d2c,2024-02-21_21h21.20.089,kallum_motion_pilot,2023.2.2,Win32,166.6666667,5eb202e64441603692ca7d2c,65d6bb0e977760de756971f7,65d6bd9221814f9ceb730300,0.06,0.06,1,50,212,43,1,twofour,,,,,,,,,,,,,,,,,,,,,,,,,,,,,,,,,,,,,,,,,,,,,,,,,,,,,,,,,,,,,,,,,,,,,,,,,,,,,,,,,,,,,,,,,,,,,,,,,,,,,,,,,,,,,,,,,,,,,,,,,,,,,,,,,,,,,,,,,
,,5eb202e64441603692ca7d2c,2024-02-21_21h21.20.089,kallum_motion_pilot,2023.2.2,Win32,166.6666667,5eb202e64441603692ca7d2c,65d6bb0e977760de756971f7,65d6bd9221814f9ceb730300,0.06,0.06,1,51,213,137,1,fiveseven,,,,,,,,,,,,,,,,,,,,,,,,,,,,,,,,,,,,,,,,,,,,,,,,,,,,,,,,,,,,,,,,,,,,,,,,,,,,,,,,,,,,,,,,,,,,,,,,,,,,,,,,,,,,,,,,,,,,,,,,,,,,,,,,,,,,,,,,,
,,5eb202e64441603692ca7d2c,2024-02-21_21h21.20.089,kallum_motion_pilot,2023.2.2,Win32,166.6666667,5eb202e64441603692ca7d2c,65d6bb0e977760de756971f7,65d6bd9221814f9ceb730300,0.06,0.06,1,52,214,158,1,eightsix,,,,,,,,,,,,,,,,,,,,,,,,,,,,,,,,,,,,,,,,,,,,,,,,,,,,,,,,,,,,,,,,,,,,,,,,,,,,,,,,,,,,,,,,,,,,,,,,,,,,,,,,,,,,,,,,,,,,,,,,,,,,,,,,,,,,,,,,,
,,5eb202e64441603692ca7d2c,2024-02-21_21h21.20.089,kallum_motion_pilot,2023.2.2,Win32,166.6666667,5eb202e64441603692ca7d2c,65d6bb0e977760de756971f7,65d6bd9221814f9ceb730300,0.06,0.061,1,53,215,136,1,fivesix,,,,,,,,,,,,,,,,,,,,,,,,,,,,,,,,,,,,,,,,,,,,,,,,,,,,,,,,,,,,,,,,,,,,,,,,,,,,,,,,,,,,,,,,,,,,,,,,,,,,,,,,,,,,,,,,,,,,,,,,,,,,,,,,,,,,,,,,,
,,5eb202e64441603692ca7d2c,2024-02-21_21h21.20.089,kallum_motion_pilot,2023.2.2,Win32,166.6666667,5eb202e64441603692ca7d2c,65d6bb0e977760de756971f7,65d6bd9221814f9ceb730300,0.061,0.061,1,54,216,21,1,threefour,,,,,,,,,,,,,,,,,,,,,,,,,,,,,,,,,,,,,,,,,,,,,,,,,,,,,,,,,,,,,,,,,,,,,,,,,,,,,,,,,,,,,,,,,,,,,,,,,,,,,,,,,,,,,,,,,,,,,,,,,,,,,,,,,,,,,,,,,
,,5eb202e64441603692ca7d2c,2024-02-21_21h21.20.089,kallum_motion_pilot,2023.2.2,Win32,166.6666667,5eb202e64441603692ca7d2c,65d6bb0e977760de756971f7,65d6bd9221814f9ceb730300,0.061,0.061,1,55,217,142,1,eightsix,,,,,,,,,,,,,,,,,,,,,,,,,,,,,,,,,,,,,,,,,,,,,,,,,,,,,,,,,,,,,,,,,,,,,,,,,,,,,,,,,,,,,,,,,,,,,,,,,,,,,,,,,,,,,,,,,,,,,,,,,,,,,,,,,,,,,,,,,
,,5eb202e64441603692ca7d2c,2024-02-21_21h21.20.089,kallum_motion_pilot,2023.2.2,Win32,166.6666667,5eb202e64441603692ca7d2c,65d6bb0e977760de756971f7,65d6bd9221814f9ceb730300,0.061,0.061,1,56,218,126,1,eightsix,,,,,,,,,,,,,,,,,,,,,,,,,,,,,,,,,,,,,,,,,,,,,,,,,,,,,,,,,,,,,,,,,,,,,,,,,,,,,,,,,,,,,,,,,,,,,,,,,,,,,,,,,,,,,,,,,,,,,,,,,,,,,,,,,,,,,,,,,
,,5eb202e64441603692ca7d2c,2024-02-21_21h21.20.089,kallum_motion_pilot,2023.2.2,Win32,166.6666667,5eb202e64441603692ca7d2c,65d6bb0e977760de756971f7,65d6bd9221814f9ceb730300,0.061,0.062,1,57,219,84,1,sevenfive,,,,,,,,,,,,,,,,,,,,,,,,,,,,,,,,,,,,,,,,,,,,,,,,,,,,,,,,,,,,,,,,,,,,,,,,,,,,,,,,,,,,,,,,,,,,,,,,,,,,,,,,,,,,,,,,,,,,,,,,,,,,,,,,,,,,,,,,,
,,5eb202e64441603692ca7d2c,2024-02-21_21h21.20.089,kallum_motion_pilot,2023.2.2,Win32,166.6666667,5eb202e64441603692ca7d2c,65d6bb0e977760de756971f7,65d6bd9221814f9ceb730300,0.062,0.062,1,58,220,88,1,fivesix,,,,,,,,,,,,,,,,,,,,,,,,,,,,,,,,,,,,,,,,,,,,,,,,,,,,,,,,,,,,,,,,,,,,,,,,,,,,,,,,,,,,,,,,,,,,,,,,,,,,,,,,,,,,,,,,,,,,,,,,,,,,,,,,,,,,,,,,,
,,5eb202e64441603692ca7d2c,2024-02-21_21h21.20.089,kallum_motion_pilot,2023.2.2,Win32,166.6666667,5eb202e64441603692ca7d2c,65d6bb0e977760de756971f7,65d6bd9221814f9ceb730300,0.062,0.062,1,59,221,143,1,eightseven,,,,,,,,,,,,,,,,,,,,,,,,,,,,,,,,,,,,,,,,,,,,,,,,,,,,,,,,,,,,,,,,,,,,,,,,,,,,,,,,,,,,,,,,,,,,,,,,,,,,,,,,,,,,,,,,,,,,,,,,,,,,,,,,,,,,,,,,,
,,5eb202e64441603692ca7d2c,2024-02-21_21h21.20.089,kallum_motion_pilot,2023.2.2,Win32,166.6666667,5eb202e64441603692ca7d2c,65d6bb0e977760de756971f7,65d6bd9221814f9ceb730300,0.062,0.062,1,60,222,130,1,sixfive,,,,,,,,,,,,,,,,,,,,,,,,,,,,,,,,,,,,,,,,,,,,,,,,,,,,,,,,,,,,,,,,,,,,,,,,,,,,,,,,,,,,,,,,,,,,,,,,,,,,,,,,,,,,,,,,,,,,,,,,,,,,,,,,,,,,,,,,,
,,5eb202e64441603692ca7d2c,2024-02-21_21h21.20.089,kallum_motion_pilot,2023.2.2,Win32,166.6666667,5eb202e64441603692ca7d2c,65d6bb0e977760de756971f7,65d6bd9221814f9ceb730300,0.062,0.062,1,61,223,61,1,threefour,,,,,,,,,,,,,,,,,,,,,,,,,,,,,,,,,,,,,,,,,,,,,,,,,,,,,,,,,,,,,,,,,,,,,,,,,,,,,,,,,,,,,,,,,,,,,,,,,,,,,,,,,,,,,,,,,,,,,,,,,,,,,,,,,,,,,,,,,
,,5eb202e64441603692ca7d2c,2024-02-21_21h21.20.089,kallum_motion_pilot,2023.2.2,Win32,166.6666667,5eb202e64441603692ca7d2c,65d6bb0e977760de756971f7,65d6bd9221814f9ceb730300,0.062,0.062,1,62,224,31,1,fourthree,,,,,,,,,,,,,,,,,,,,,,,,,,,,,,,,,,,,,,,,,,,,,,,,,,,,,,,,,,,,,,,,,,,,,,,,,,,,,,,,,,,,,,,,,,,,,,,,,,,,,,,,,,,,,,,,,,,,,,,,,,,,,,,,,,,,,,,,,
,,5eb202e64441603692ca7d2c,2024-02-21_21h21.20.089,kallum_motion_pilot,2023.2.2,Win32,166.6666667,5eb202e64441603692ca7d2c,65d6bb0e977760de756971f7,65d6bd9221814f9ceb730300,0.063,0.063,1,63,225,78,1,fourtwo,,,,,,,,,,,,,,,,,,,,,,,,,,,,,,,,,,,,,,,,,,,,,,,,,,,,,,,,,,,,,,,,,,,,,,,,,,,,,,,,,,,,,,,,,,,,,,,,,,,,,,,,,,,,,,,,,,,,,,,,,,,,,,,,,,,,,,,,,
,,5eb202e64441603692ca7d2c,2024-02-21_21h21.20.089,kallum_motion_pilot,2023.2.2,Win32,166.6666667,5eb202e64441603692ca7d2c,65d6bb0e977760de756971f7,65d6bd9221814f9ceb730300,0.063,0.063,1,64,226,117,1,seveneight,,,,,,,,,,,,,,,,,,,,,,,,,,,,,,,,,,,,,,,,,,,,,,,,,,,,,,,,,,,,,,,,,,,,,,,,,,,,,,,,,,,,,,,,,,,,,,,,,,,,,,,,,,,,,,,,,,,,,,,,,,,,,,,,,,,,,,,,,
,,5eb202e64441603692ca7d2c,2024-02-21_21h21.20.089,kallum_motion_pilot,2023.2.2,Win32,166.6666667,5eb202e64441603692ca7d2c,65d6bb0e977760de756971f7,65d6bd9221814f9ceb730300,0.063,0.063,1,65,227,28,1,threeone,,,,,,,,,,,,,,,,,,,,,,,,,,,,,,,,,,,,,,,,,,,,,,,,,,,,,,,,,,,,,,,,,,,,,,,,,,,,,,,,,,,,,,,,,,,,,,,,,,,,,,,,,,,,,,,,,,,,,,,,,,,,,,,,,,,,,,,,,
,,5eb202e64441603692ca7d2c,2024-02-21_21h21.20.089,kallum_motion_pilot,2023.2.2,Win32,166.6666667,5eb202e64441603692ca7d2c,65d6bb0e977760de756971f7,65d6bd9221814f9ceb730300,0.063,0.063,1,66,228,119,1,eightseven,,,,,,,,,,,,,,,,,,,,,,,,,,,,,,,,,,,,,,,,,,,,,,,,,,,,,,,,,,,,,,,,,,,,,,,,,,,,,,,,,,,,,,,,,,,,,,,,,,,,,,,,,,,,,,,,,,,,,,,,,,,,,,,,,,,,,,,,,
,,5eb202e64441603692ca7d2c,2024-02-21_21h21.20.089,kallum_motion_pilot,2023.2.2,Win32,166.6666667,5eb202e64441603692ca7d2c,65d6bb0e977760de756971f7,65d6bd9221814f9ceb730300,0.063,0.063,1,67,229,59,1,twofour,,,,,,,,,,,,,,,,,,,,,,,,,,,,,,,,,,,,,,,,,,,,,,,,,,,,,,,,,,,,,,,,,,,,,,,,,,,,,,,,,,,,,,,,,,,,,,,,,,,,,,,,,,,,,,,,,,,,,,,,,,,,,,,,,,,,,,,,,
,,5eb202e64441603692ca7d2c,2024-02-21_21h21.20.089,kallum_motion_pilot,2023.2.2,Win32,166.6666667,5eb202e64441603692ca7d2c,65d6bb0e977760de756971f7,65d6bd9221814f9ceb730300,0.063,0.063,1,68,230,69,1,threefour,,,,,,,,,,,,,,,,,,,,,,,,,,,,,,,,,,,,,,,,,,,,,,,,,,,,,,,,,,,,,,,,,,,,,,,,,,,,,,,,,,,,,,,,,,,,,,,,,,,,,,,,,,,,,,,,,,,,,,,,,,,,,,,,,,,,,,,,,
,,5eb202e64441603692ca7d2c,2024-02-21_21h21.20.089,kallum_motion_pilot,2023.2.2,Win32,166.6666667,5eb202e64441603692ca7d2c,65d6bb0e977760de756971f7,65d6bd9221814f9ceb730300,0.063,0.063,1,69,231,56,1,onetwo,,,,,,,,,,,,,,,,,,,,,,,,,,,,,,,,,,,,,,,,,,,,,,,,,,,,,,,,,,,,,,,,,,,,,,,,,,,,,,,,,,,,,,,,,,,,,,,,,,,,,,,,,,,,,,,,,,,,,,,,,,,,,,,,,,,,,,,,,
,,5eb202e64441603692ca7d2c,2024-02-21_21h21.20.089,kallum_motion_pilot,2023.2.2,Win32,166.6666667,5eb202e64441603692ca7d2c,65d6bb0e977760de756971f7,65d6bd9221814f9ceb730300,0.063,0.063,1,70,232,156,1,sevenfive,,,,,,,,,,,,,,,,,,,,,,,,,,,,,,,,,,,,,,,,,,,,,,,,,,,,,,,,,,,,,,,,,,,,,,,,,,,,,,,,,,,,,,,,,,,,,,,,,,,,,,,,,,,,,,,,,,,,,,,,,,,,,,,,,,,,,,,,,
,,5eb202e64441603692ca7d2c,2024-02-21_21h21.20.089,kallum_motion_pilot,2023.2.2,Win32,166.6666667,5eb202e64441603692ca7d2c,65d6bb0e977760de756971f7,65d6bd9221814f9ceb730300,0.063,0.064,1,71,233,11,1,twofour,,,,,,,,,,,,,,,,,,,,,,,,,,,,,,,,,,,,,,,,,,,,,,,,,,,,,,,,,,,,,,,,,,,,,,,,,,,,,,,,,,,,,,,,,,,,,,,,,,,,,,,,,,,,,,,,,,,,,,,,,,,,,,,,,,,,,,,,,
,,5eb202e64441603692ca7d2c,2024-02-21_21h21.20.089,kallum_motion_pilot,2023.2.2,Win32,166.6666667,5eb202e64441603692ca7d2c,65d6bb0e977760de756971f7,65d6bd9221814f9ceb730300,0.064,0.064,1,72,234,124,1,sevenfive,,,,,,,,,,,,,,,,,,,,,,,,,,,,,,,,,,,,,,,,,,,,,,,,,,,,,,,,,,,,,,,,,,,,,,,,,,,,,,,,,,,,,,,,,,,,,,,,,,,,,,,,,,,,,,,,,,,,,,,,,,,,,,,,,,,,,,,,,
,,5eb202e64441603692ca7d2c,2024-02-21_21h21.20.089,kallum_motion_pilot,2023.2.2,Win32,166.6666667,5eb202e64441603692ca7d2c,65d6bb0e977760de756971f7,65d6bd9221814f9ceb730300,0.064,0.064,1,73,235,91,1,sixeight,,,,,,,,,,,,,,,,,,,,,,,,,,,,,,,,,,,,,,,,,,,,,,,,,,,,,,,,,,,,,,,,,,,,,,,,,,,,,,,,,,,,,,,,,,,,,,,,,,,,,,,,,,,,,,,,,,,,,,,,,,,,,,,,,,,,,,,,,
,,5eb202e64441603692ca7d2c,2024-02-21_21h21.20.089,kallum_motion_pilot,2023.2.2,Win32,166.6666667,5eb202e64441603692ca7d2c,65d6bb0e977760de756971f7,65d6bd9221814f9ceb730300,0.064,0.064,1,74,236,128,1,fivesix,,,,,,,,,,,,,,,,,,,,,,,,,,,,,,,,,,,,,,,,,,,,,,,,,,,,,,,,,,,,,,,,,,,,,,,,,,,,,,,,,,,,,,,,,,,,,,,,,,,,,,,,,,,,,,,,,,,,,,,,,,,,,,,,,,,,,,,,,
,,5eb202e64441603692ca7d2c,2024-02-21_21h21.20.089,kallum_motion_pilot,2023.2.2,Win32,166.6666667,5eb202e64441603692ca7d2c,65d6bb0e977760de756971f7,65d6bd9221814f9ceb730300,0.064,0.064,1,75,237,2,1,twoone,,,,,,,,,,,,,,,,,,,,,,,,,,,,,,,,,,,,,,,,,,,,,,,,,,,,,,,,,,,,,,,,,,,,,,,,,,,,,,,,,,,,,,,,,,,,,,,,,,,,,,,,,,,,,,,,,,,,,,,,,,,,,,,,,,,,,,,,,
,,5eb202e64441603692ca7d2c,2024-02-21_21h21.20.089,kallum_motion_pilot,2023.2.2,Win32,166.6666667,5eb202e64441603692ca7d2c,65d6bb0e977760de756971f7,65d6bd9221814f9ceb730300,0.064,0.064,1,76,238,152,1,fivesix,,,,,,,,,,,,,,,,,,,,,,,,,,,,,,,,,,,,,,,,,,,,,,,,,,,,,,,,,,,,,,,,,,,,,,,,,,,,,,,,,,,,,,,,,,,,,,,,,,,,,,,,,,,,,,,,,,,,,,,,,,,,,,,,,,,,,,,,,
,,5eb202e64441603692ca7d2c,2024-02-21_21h21.20.089,kallum_motion_pilot,2023.2.2,Win32,166.6666667,5eb202e64441603692ca7d2c,65d6bb0e977760de756971f7,65d6bd9221814f9ceb730300,0.065,0.065,1,77,239,159,1,eightseven,,,,,,,,,,,,,,,,,,,,,,,,,,,,,,,,,,,,,,,,,,,,,,,,,,,,,,,,,,,,,,,,,,,,,,,,,,,,,,,,,,,,,,,,,,,,,,,,,,,,,,,,,,,,,,,,,,,,,,,,,,,,,,,,,,,,,,,,,
,,5eb202e64441603692ca7d2c,2024-02-21_21h21.20.089,kallum_motion_pilot,2023.2.2,Win32,166.6666667,5eb202e64441603692ca7d2c,65d6bb0e977760de756971f7,65d6bd9221814f9ceb730300,0.065,0.065,1,78,240,77,1,threefour,,,,,,,,,,,,,,,,,,,,,,,,,,,,,,,,,,,,,,,,,,,,,,,,,,,,,,,,,,,,,,,,,,,,,,,,,,,,,,,,,,,,,,,,,,,,,,,,,,,,,,,,,,,,,,,,,,,,,,,,,,,,,,,,,,,,,,,,,
,,5eb202e64441603692ca7d2c,2024-02-21_21h21.20.089,kallum_motion_pilot,2023.2.2,Win32,166.6666667,5eb202e64441603692ca7d2c,65d6bb0e977760de756971f7,65d6bd9221814f9ceb730300,0.065,0.065,1,79,241,86,1,eightsix,,,,,,,,,,,,,,,,,,,,,,,,,,,,,,,,,,,,,,,,,,,,,,,,,,,,,,,,,,,,,,,,,,,,,,,,,,,,,,,,,,,,,,,,,,,,,,,,,,,,,,,,,,,,,,,,,,,,,,,,,,,,,,,,,,,,,,,,,
,,5eb202e64441603692ca7d2c,2024-02-21_21h21.20.089,kallum_motion_pilot,2023.2.2,Win32,166.6666667,5eb202e64441603692ca7d2c,65d6bb0e977760de756971f7,65d6bd9221814f9ceb730300,0.065,0.066,1,80,242,107,1,sixeight,,,,,,,,,,,,,,,,,,,,,,,,,,,,,,,,,,,,,,,,,,,,,,,,,,,,,,,,,,,,,,,,,,,,,,,,,,,,,,,,,,,,,,,,,,,,,,,,,,,,,,,,,,,,,,,,,,,,,,,,,,,,,,,,,,,,,,,,,
,,5eb202e64441603692ca7d2c,2024-02-21_21h21.20.089,kallum_motion_pilot,2023.2.2,Win32,166.6666667,5eb202e64441603692ca7d2c,65d6bb0e977760de756971f7,65d6bd9221814f9ceb730300,0.066,0.066,1,81,243,157,1,seveneight,,,,,,,,,,,,,,,,,,,,,,,,,,,,,,,,,,,,,,,,,,,,,,,,,,,,,,,,,,,,,,,,,,,,,,,,,,,,,,,,,,,,,,,,,,,,,,,,,,,,,,,,,,,,,,,,,,,,,,,,,,,,,,,,,,,,,,,,,
,,5eb202e64441603692ca7d2c,2024-02-21_21h21.20.089,kallum_motion_pilot,2023.2.2,Win32,166.6666667,5eb202e64441603692ca7d2c,65d6bb0e977760de756971f7,65d6bd9221814f9ceb730300,0.066,0.066,1,82,244,49,1,onethree,,,,,,,,,,,,,,,,,,,,,,,,,,,,,,,,,,,,,,,,,,,,,,,,,,,,,,,,,,,,,,,,,,,,,,,,,,,,,,,,,,,,,,,,,,,,,,,,,,,,,,,,,,,,,,,,,,,,,,,,,,,,,,,,,,,,,,,,,
,,5eb202e64441603692ca7d2c,2024-02-21_21h21.20.089,kallum_motion_pilot,2023.2.2,Win32,166.6666667,5eb202e64441603692ca7d2c,65d6bb0e977760de756971f7,65d6bd9221814f9ceb730300,0.066,0.066,1,83,245,105,1,fiveseven,,,,,,,,,,,,,,,,,,,,,,,,,,,,,,,,,,,,,,,,,,,,,,,,,,,,,,,,,,,,,,,,,,,,,,,,,,,,,,,,,,,,,,,,,,,,,,,,,,,,,,,,,,,,,,,,,,,,,,,,,,,,,,,,,,,,,,,,,
,,5eb202e64441603692ca7d2c,2024-02-21_21h21.20.089,kallum_motion_pilot,2023.2.2,Win32,166.6666667,5eb202e64441603692ca7d2c,65d6bb0e977760de756971f7,65d6bd9221814f9ceb730300,0.066,0.066,1,84,246,46,1,fourtwo,,,,,,,,,,,,,,,,,,,,,,,,,,,,,,,,,,,,,,,,,,,,,,,,,,,,,,,,,,,,,,,,,,,,,,,,,,,,,,,,,,,,,,,,,,,,,,,,,,,,,,,,,,,,,,,,,,,,,,,,,,,,,,,,,,,,,,,,,
,,5eb202e64441603692ca7d2c,2024-02-21_21h21.20.089,kallum_motion_pilot,2023.2.2,Win32,166.6666667,5eb202e64441603692ca7d2c,65d6bb0e977760de756971f7,65d6bd9221814f9ceb730300,0.066,0.066,1,85,247,26,1,twoone,,,,,,,,,,,,,,,,,,,,,,,,,,,,,,,,,,,,,,,,,,,,,,,,,,,,,,,,,,,,,,,,,,,,,,,,,,,,,,,,,,,,,,,,,,,,,,,,,,,,,,,,,,,,,,,,,,,,,,,,,,,,,,,,,,,,,,,,,
,,5eb202e64441603692ca7d2c,2024-02-21_21h21.20.089,kallum_motion_pilot,2023.2.2,Win32,166.6666667,5eb202e64441603692ca7d2c,65d6bb0e977760de756971f7,65d6bd9221814f9ceb730300,0.066,0.066,1,86,248,5,1,threefour,,,,,,,,,,,,,,,,,,,,,,,,,,,,,,,,,,,,,,,,,,,,,,,,,,,,,,,,,,,,,,,,,,,,,,,,,,,,,,,,,,,,,,,,,,,,,,,,,,,,,,,,,,,,,,,,,,,,,,,,,,,,,,,,,,,,,,,,,
,,5eb202e64441603692ca7d2c,2024-02-21_21h21.20.089,kallum_motion_pilot,2023.2.2,Win32,166.6666667,5eb202e64441603692ca7d2c,65d6bb0e977760de756971f7,65d6bd9221814f9ceb730300,0.066,0.066,1,87,249,0,1,onetwo,,,,,,,,,,,,,,,,,,,,,,,,,,,,,,,,,,,,,,,,,,,,,,,,,,,,,,,,,,,,,,,,,,,,,,,,,,,,,,,,,,,,,,,,,,,,,,,,,,,,,,,,,,,,,,,,,,,,,,,,,,,,,,,,,,,,,,,,,
,,5eb202e64441603692ca7d2c,2024-02-21_21h21.20.089,kallum_motion_pilot,2023.2.2,Win32,166.6666667,5eb202e64441603692ca7d2c,65d6bb0e977760de756971f7,65d6bd9221814f9ceb730300,0.066,0.066,1,88,250,98,1,sixfive,,,,,,,,,,,,,,,,,,,,,,,,,,,,,,,,,,,,,,,,,,,,,,,,,,,,,,,,,,,,,,,,,,,,,,,,,,,,,,,,,,,,,,,,,,,,,,,,,,,,,,,,,,,,,,,,,,,,,,,,,,,,,,,,,,,,,,,,,
,,5eb202e64441603692ca7d2c,2024-02-21_21h21.20.089,kallum_motion_pilot,2023.2.2,Win32,166.6666667,5eb202e64441603692ca7d2c,65d6bb0e977760de756971f7,65d6bd9221814f9ceb730300,0.066,0.066,1,89,251,127,1,eightseven,,,,,,,,,,,,,,,,,,,,,,,,,,,,,,,,,,,,,,,,,,,,,,,,,,,,,,,,,,,,,,,,,,,,,,,,,,,,,,,,,,,,,,,,,,,,,,,,,,,,,,,,,,,,,,,,,,,,,,,,,,,,,,,,,,,,,,,,,
,,5eb202e64441603692ca7d2c,2024-02-21_21h21.20.089,kallum_motion_pilot,2023.2.2,Win32,166.6666667,5eb202e64441603692ca7d2c,65d6bb0e977760de756971f7,65d6bd9221814f9ceb730300,0.067,0.067,1,90,252,93,1,seveneight,,,,,,,,,,,,,,,,,,,,,,,,,,,,,,,,,,,,,,,,,,,,,,,,,,,,,,,,,,,,,,,,,,,,,,,,,,,,,,,,,,,,,,,,,,,,,,,,,,,,,,,,,,,,,,,,,,,,,,,,,,,,,,,,,,,,,,,,,
,,5eb202e64441603692ca7d2c,2024-02-21_21h21.20.089,kallum_motion_pilot,2023.2.2,Win32,166.6666667,5eb202e64441603692ca7d2c,65d6bb0e977760de756971f7,65d6bd9221814f9ceb730300,0.067,0.067,1,91,253,10,1,twoone,,,,,,,,,,,,,,,,,,,,,,,,,,,,,,,,,,,,,,,,,,,,,,,,,,,,,,,,,,,,,,,,,,,,,,,,,,,,,,,,,,,,,,,,,,,,,,,,,,,,,,,,,,,,,,,,,,,,,,,,,,,,,,,,,,,,,,,,,
,,5eb202e64441603692ca7d2c,2024-02-21_21h21.20.089,kallum_motion_pilot,2023.2.2,Win32,166.6666667,5eb202e64441603692ca7d2c,65d6bb0e977760de756971f7,65d6bd9221814f9ceb730300,0.067,0.068,1,92,254,14,1,fourtwo,,,,,,,,,,,,,,,,,,,,,,,,,,,,,,,,,,,,,,,,,,,,,,,,,,,,,,,,,,,,,,,,,,,,,,,,,,,,,,,,,,,,,,,,,,,,,,,,,,,,,,,,,,,,,,,,,,,,,,,,,,,,,,,,,,,,,,,,,
,,5eb202e64441603692ca7d2c,2024-02-21_21h21.20.089,kallum_motion_pilot,2023.2.2,Win32,166.6666667,5eb202e64441603692ca7d2c,65d6bb0e977760de756971f7,65d6bd9221814f9ceb730300,0.068,0.068,1,93,255,12,1,threeone,,,,,,,,,,,,,,,,,,,,,,,,,,,,,,,,,,,,,,,,,,,,,,,,,,,,,,,,,,,,,,,,,,,,,,,,,,,,,,,,,,,,,,,,,,,,,,,,,,,,,,,,,,,,,,,,,,,,,,,,,,,,,,,,,,,,,,,,,
,,5eb202e64441603692ca7d2c,2024-02-21_21h21.20.089,kallum_motion_pilot,2023.2.2,Win32,166.6666667,5eb202e64441603692ca7d2c,65d6bb0e977760de756971f7,65d6bd9221814f9ceb730300,0.068,0.068,1,94,256,154,1,sixfive,,,,,,,,,,,,,,,,,,,,,,,,,,,,,,,,,,,,,,,,,,,,,,,,,,,,,,,,,,,,,,,,,,,,,,,,,,,,,,,,,,,,,,,,,,,,,,,,,,,,,,,,,,,,,,,,,,,,,,,,,,,,,,,,,,,,,,,,,
,,5eb202e64441603692ca7d2c,2024-02-21_21h21.20.089,kallum_motion_pilot,2023.2.2,Win32,166.6666667,5eb202e64441603692ca7d2c,65d6bb0e977760de756971f7,65d6bd9221814f9ceb730300,0.068,0.068,1,95,257,24,1,onetwo,,,,,,,,,,,,,,,,,,,,,,,,,,,,,,,,,,,,,,,,,,,,,,,,,,,,,,,,,,,,,,,,,,,,,,,,,,,,,,,,,,,,,,,,,,,,,,,,,,,,,,,,,,,,,,,,,,,,,,,,,,,,,,,,,,,,,,,,,
,,5eb202e64441603692ca7d2c,2024-02-21_21h21.20.089,kallum_motion_pilot,2023.2.2,Win32,166.6666667,5eb202e64441603692ca7d2c,65d6bb0e977760de756971f7,65d6bd9221814f9ceb730300,0.068,0.068,1,96,258,16,1,onetwo,,,,,,,,,,,,,,,,,,,,,,,,,,,,,,,,,,,,,,,,,,,,,,,,,,,,,,,,,,,,,,,,,,,,,,,,,,,,,,,,,,,,,,,,,,,,,,,,,,,,,,,,,,,,,,,,,,,,,,,,,,,,,,,,,,,,,,,,,
,,5eb202e64441603692ca7d2c,2024-02-21_21h21.20.089,kallum_motion_pilot,2023.2.2,Win32,166.6666667,5eb202e64441603692ca7d2c,65d6bb0e977760de756971f7,65d6bd9221814f9ceb730300,0.068,0.068,1,97,259,23,1,fourthree,,,,,,,,,,,,,,,,,,,,,,,,,,,,,,,,,,,,,,,,,,,,,,,,,,,,,,,,,,,,,,,,,,,,,,,,,,,,,,,,,,,,,,,,,,,,,,,,,,,,,,,,,,,,,,,,,,,,,,,,,,,,,,,,,,,,,,,,,
,,5eb202e64441603692ca7d2c,2024-02-21_21h21.20.089,kallum_motion_pilot,2023.2.2,Win32,166.6666667,5eb202e64441603692ca7d2c,65d6bb0e977760de756971f7,65d6bd9221814f9ceb730300,0.068,0.068,1,98,260,64,1,onetwo,,,,,,,,,,,,,,,,,,,,,,,,,,,,,,,,,,,,,,,,,,,,,,,,,,,,,,,,,,,,,,,,,,,,,,,,,,,,,,,,,,,,,,,,,,,,,,,,,,,,,,,,,,,,,,,,,,,,,,,,,,,,,,,,,,,,,,,,,
,,5eb202e64441603692ca7d2c,2024-02-21_21h21.20.089,kallum_motion_pilot,2023.2.2,Win32,166.6666667,5eb202e64441603692ca7d2c,65d6bb0e977760de756971f7,65d6bd9221814f9ceb730300,0.068,0.068,1,99,261,45,1,threefour,,,,,,,,,,,,,,,,,,,,,,,,,,,,,,,,,,,,,,,,,,,,,,,,,,,,,,,,,,,,,,,,,,,,,,,,,,,,,,,,,,,,,,,,,,,,,,,,,,,,,,,,,,,,,,,,,,,,,,,,,,,,,,,,,,,,,,,,,
,,5eb202e64441603692ca7d2c,2024-02-21_21h21.20.089,kallum_motion_pilot,2023.2.2,Win32,166.6666667,5eb202e64441603692ca7d2c,65d6bb0e977760de756971f7,65d6bd9221814f9ceb730300,0.069,0.069,1,100,262,25,1,onethree,,,,,,,,,,,,,,,,,,,,,,,,,,,,,,,,,,,,,,,,,,,,,,,,,,,,,,,,,,,,,,,,,,,,,,,,,,,,,,,,,,,,,,,,,,,,,,,,,,,,,,,,,,,,,,,,,,,,,,,,,,,,,,,,,,,,,,,,,
,,5eb202e64441603692ca7d2c,2024-02-21_21h21.20.089,kallum_motion_pilot,2023.2.2,Win32,166.6666667,5eb202e64441603692ca7d2c,65d6bb0e977760de756971f7,65d6bd9221814f9ceb730300,0.069,0.069,1,101,263,100,1,sevenfive,,,,,,,,,,,,,,,,,,,,,,,,,,,,,,,,,,,,,,,,,,,,,,,,,,,,,,,,,,,,,,,,,,,,,,,,,,,,,,,,,,,,,,,,,,,,,,,,,,,,,,,,,,,,,,,,,,,,,,,,,,,,,,,,,,,,,,,,,
,,5eb202e64441603692ca7d2c,2024-02-21_21h21.20.089,kallum_motion_pilot,2023.2.2,Win32,166.6666667,5eb202e64441603692ca7d2c,65d6bb0e977760de756971f7,65d6bd9221814f9ceb730300,0.069,0.069,1,102,264,135,1,eightseven,,,,,,,,,,,,,,,,,,,,,,,,,,,,,,,,,,,,,,,,,,,,,,,,,,,,,,,,,,,,,,,,,,,,,,,,,,,,,,,,,,,,,,,,,,,,,,,,,,,,,,,,,,,,,,,,,,,,,,,,,,,,,,,,,,,,,,,,,
,,5eb202e64441603692ca7d2c,2024-02-21_21h21.20.089,kallum_motion_pilot,2023.2.2,Win32,166.6666667,5eb202e64441603692ca7d2c,65d6bb0e977760de756971f7,65d6bd9221814f9ceb730300,0.069,0.069,1,103,265,73,1,onethree,,,,,,,,,,,,,,,,,,,,,,,,,,,,,,,,,,,,,,,,,,,,,,,,,,,,,,,,,,,,,,,,,,,,,,,,,,,,,,,,,,,,,,,,,,,,,,,,,,,,,,,,,,,,,,,,,,,,,,,,,,,,,,,,,,,,,,,,,
,,5eb202e64441603692ca7d2c,2024-02-21_21h21.20.089,kallum_motion_pilot,2023.2.2,Win32,166.6666667,5eb202e64441603692ca7d2c,65d6bb0e977760de756971f7,65d6bd9221814f9ceb730300,0.07,0.07,1,104,266,33,1,onethree,,,,,,,,,,,,,,,,,,,,,,,,,,,,,,,,,,,,,,,,,,,,,,,,,,,,,,,,,,,,,,,,,,,,,,,,,,,,,,,,,,,,,,,,,,,,,,,,,,,,,,,,,,,,,,,,,,,,,,,,,,,,,,,,,,,,,,,,,
,,5eb202e64441603692ca7d2c,2024-02-21_21h21.20.089,kallum_motion_pilot,2023.2.2,Win32,166.6666667,5eb202e64441603692ca7d2c,65d6bb0e977760de756971f7,65d6bd9221814f9ceb730300,0.07,0.07,1,105,267,47,1,fourthree,,,,,,,,,,,,,,,,,,,,,,,,,,,,,,,,,,,,,,,,,,,,,,,,,,,,,,,,,,,,,,,,,,,,,,,,,,,,,,,,,,,,,,,,,,,,,,,,,,,,,,,,,,,,,,,,,,,,,,,,,,,,,,,,,,,,,,,,,
,,5eb202e64441603692ca7d2c,2024-02-21_21h21.20.089,kallum_motion_pilot,2023.2.2,Win32,166.6666667,5eb202e64441603692ca7d2c,65d6bb0e977760de756971f7,65d6bd9221814f9ceb730300,0.07,0.07,1,106,268,72,1,onetwo,,,,,,,,,,,,,,,,,,,,,,,,,,,,,,,,,,,,,,,,,,,,,,,,,,,,,,,,,,,,,,,,,,,,,,,,,,,,,,,,,,,,,,,,,,,,,,,,,,,,,,,,,,,,,,,,,,,,,,,,,,,,,,,,,,,,,,,,,
,,5eb202e64441603692ca7d2c,2024-02-21_21h21.20.089,kallum_motion_pilot,2023.2.2,Win32,166.6666667,5eb202e64441603692ca7d2c,65d6bb0e977760de756971f7,65d6bd9221814f9ceb730300,0.07,0.07,1,107,269,116,1,sevenfive,,,,,,,,,,,,,,,,,,,,,,,,,,,,,,,,,,,,,,,,,,,,,,,,,,,,,,,,,,,,,,,,,,,,,,,,,,,,,,,,,,,,,,,,,,,,,,,,,,,,,,,,,,,,,,,,,,,,,,,,,,,,,,,,,,,,,,,,,
,,5eb202e64441603692ca7d2c,2024-02-21_21h21.20.089,kallum_motion_pilot,2023.2.2,Win32,166.6666667,5eb202e64441603692ca7d2c,65d6bb0e977760de756971f7,65d6bd9221814f9ceb730300,0.07,0.07,1,108,270,131,1,sixeight,,,,,,,,,,,,,,,,,,,,,,,,,,,,,,,,,,,,,,,,,,,,,,,,,,,,,,,,,,,,,,,,,,,,,,,,,,,,,,,,,,,,,,,,,,,,,,,,,,,,,,,,,,,,,,,,,,,,,,,,,,,,,,,,,,,,,,,,,
,,5eb202e64441603692ca7d2c,2024-02-21_21h21.20.089,kallum_motion_pilot,2023.2.2,Win32,166.6666667,5eb202e64441603692ca7d2c,65d6bb0e977760de756971f7,65d6bd9221814f9ceb730300,0.07,0.07,1,109,271,96,1,fivesix,,,,,,,,,,,,,,,,,,,,,,,,,,,,,,,,,,,,,,,,,,,,,,,,,,,,,,,,,,,,,,,,,,,,,,,,,,,,,,,,,,,,,,,,,,,,,,,,,,,,,,,,,,,,,,,,,,,,,,,,,,,,,,,,,,,,,,,,,
,,5eb202e64441603692ca7d2c,2024-02-21_21h21.20.089,kallum_motion_pilot,2023.2.2,Win32,166.6666667,5eb202e64441603692ca7d2c,65d6bb0e977760de756971f7,65d6bd9221814f9ceb730300,0.07,0.07,1,110,272,70,1,fourtwo,,,,,,,,,,,,,,,,,,,,,,,,,,,,,,,,,,,,,,,,,,,,,,,,,,,,,,,,,,,,,,,,,,,,,,,,,,,,,,,,,,,,,,,,,,,,,,,,,,,,,,,,,,,,,,,,,,,,,,,,,,,,,,,,,,,,,,,,,
,,5eb202e64441603692ca7d2c,2024-02-21_21h21.20.089,kallum_motion_pilot,2023.2.2,Win32,166.6666667,5eb202e64441603692ca7d2c,65d6bb0e977760de756971f7,65d6bd9221814f9ceb730300,0.07,0.07,1,111,273,87,1,eightseven,,,,,,,,,,,,,,,,,,,,,,,,,,,,,,,,,,,,,,,,,,,,,,,,,,,,,,,,,,,,,,,,,,,,,,,,,,,,,,,,,,,,,,,,,,,,,,,,,,,,,,,,,,,,,,,,,,,,,,,,,,,,,,,,,,,,,,,,,
,,5eb202e64441603692ca7d2c,2024-02-21_21h21.20.089,kallum_motion_pilot,2023.2.2,Win32,166.6666667,5eb202e64441603692ca7d2c,65d6bb0e977760de756971f7,65d6bd9221814f9ceb730300,0.07,0.071,1,112,274,121,1,fiveseven,,,,,,,,,,,,,,,,,,,,,,,,,,,,,,,,,,,,,,,,,,,,,,,,,,,,,,,,,,,,,,,,,,,,,,,,,,,,,,,,,,,,,,,,,,,,,,,,,,,,,,,,,,,,,,,,,,,,,,,,,,,,,,,,,,,,,,,,,
,,5eb202e64441603692ca7d2c,2024-02-21_21h21.20.089,kallum_motion_pilot,2023.2.2,Win32,166.6666667,5eb202e64441603692ca7d2c,65d6bb0e977760de756971f7,65d6bd9221814f9ceb730300,0.071,0.071,1,113,275,99,1,sixeight,,,,,,,,,,,,,,,,,,,,,,,,,,,,,,,,,,,,,,,,,,,,,,,,,,,,,,,,,,,,,,,,,,,,,,,,,,,,,,,,,,,,,,,,,,,,,,,,,,,,,,,,,,,,,,,,,,,,,,,,,,,,,,,,,,,,,,,,,
,,5eb202e64441603692ca7d2c,2024-02-21_21h21.20.089,kallum_motion_pilot,2023.2.2,Win32,166.6666667,5eb202e64441603692ca7d2c,65d6bb0e977760de756971f7,65d6bd9221814f9ceb730300,0.072,0.072,1,114,276,48,1,onetwo,,,,,,,,,,,,,,,,,,,,,,,,,,,,,,,,,,,,,,,,,,,,,,,,,,,,,,,,,,,,,,,,,,,,,,,,,,,,,,,,,,,,,,,,,,,,,,,,,,,,,,,,,,,,,,,,,,,,,,,,,,,,,,,,,,,,,,,,,
,,5eb202e64441603692ca7d2c,2024-02-21_21h21.20.089,kallum_motion_pilot,2023.2.2,Win32,166.6666667,5eb202e64441603692ca7d2c,65d6bb0e977760de756971f7,65d6bd9221814f9ceb730300,0.072,0.072,1,115,277,104,1,fivesix,,,,,,,,,,,,,,,,,,,,,,,,,,,,,,,,,,,,,,,,,,,,,,,,,,,,,,,,,,,,,,,,,,,,,,,,,,,,,,,,,,,,,,,,,,,,,,,,,,,,,,,,,,,,,,,,,,,,,,,,,,,,,,,,,,,,,,,,,
,,5eb202e64441603692ca7d2c,2024-02-21_21h21.20.089,kallum_motion_pilot,2023.2.2,Win32,166.6666667,5eb202e64441603692ca7d2c,65d6bb0e977760de756971f7,65d6bd9221814f9ceb730300,0.072,0.072,1,116,278,3,1,twofour,,,,,,,,,,,,,,,,,,,,,,,,,,,,,,,,,,,,,,,,,,,,,,,,,,,,,,,,,,,,,,,,,,,,,,,,,,,,,,,,,,,,,,,,,,,,,,,,,,,,,,,,,,,,,,,,,,,,,,,,,,,,,,,,,,,,,,,,,
,,5eb202e64441603692ca7d2c,2024-02-21_21h21.20.089,kallum_motion_pilot,2023.2.2,Win32,166.6666667,5eb202e64441603692ca7d2c,65d6bb0e977760de756971f7,65d6bd9221814f9ceb730300,0.072,0.072,1,117,279,114,1,sixfive,,,,,,,,,,,,,,,,,,,,,,,,,,,,,,,,,,,,,,,,,,,,,,,,,,,,,,,,,,,,,,,,,,,,,,,,,,,,,,,,,,,,,,,,,,,,,,,,,,,,,,,,,,,,,,,,,,,,,,,,,,,,,,,,,,,,,,,,,
