startup.started,startup.stopped,Prolific ID*,date,expName,psychopyVersion,OS,frameRate,participant,study_id,session,stimpositions.started,stimpositions.stopped,hardcoded_stimulus_positions.thisRepN,hardcoded_stimulus_positions.thisTrialN,hardcoded_stimulus_positions.thisN,hardcoded_stimulus_positions.thisIndex,hardcoded_stimulus_positions.ran,StimulusPos,stimorientation.started,stimorientation.stopped,prac_stimorientation_import_loop.thisRepN,prac_stimorientation_import_loop.thisTrialN,prac_stimorientation_import_loop.thisN,prac_stimorientation_import_loop.thisIndex,prac_stimorientation_import_loop.ran,Stimorientation,welcome_instr.started,welcome_instr.stopped,key_resp.keys,key_resp.rt,key_resp.duration,response_steppedout_1.started,response_steppedout_1.stopped,key_resp_20.keys,key_resp_20.rt,key_resp_20.duration,response_steppedout_2.started,response_steppedout_2.stopped,key_resp_19.keys,key_resp_19.rt,key_resp_19.duration,stim_response_instr.started,stim_response_instr.stopped,key_resp_15.keys,key_resp_15.rt,key_resp_15.duration,direction_instr_2.started,direction_instr_2.stopped,key_resp_9.keys,key_resp_9.rt,key_resp_9.duration,instr_prac.started,instr_prac.stopped,key_resp_10.keys,key_resp_10.rt,key_resp_10.duration,Stim1_display_prac.started,Stim1_display_prac.stopped,Ecc,Circle1_ori,Circle2_ori,response_prac.started,similarity,response_time,response_prac.stopped,mouse_5.x,mouse_5.y,mouse_5.leftButton,mouse_5.midButton,mouse_5.rightButton,mouse_5.clicked_name,responseprac_feedback.started,responseprac_feedback.stopped,summary2_prac.started,summary2_prac.stopped,mouse_6.x,mouse_6.y,mouse_6.leftButton,mouse_6.midButton,mouse_6.rightButton,mouse_6.clicked_name,duringprac.thisRepN,duringprac.thisTrialN,duringprac.thisN,duringprac.thisIndex,duringprac.ran,begin.started,begin.stopped,key_resp_22.keys,key_resp_22.rt,key_resp_22.duration,Stim1_display.started,Stim1_display.stopped,circle1_ori,circle2_ori,circle1_SF,circle2_SF,response.started,response.stopped,mouse.x,mouse.y,mouse.leftButton,mouse.midButton,mouse.rightButton,mouse.clicked_name,trialnumber,double_pass.thisRepN,double_pass.thisTrialN,double_pass.thisN,double_pass.thisIndex,double_pass.ran,double_pass.order,main_trial.thisRepN,main_trial.thisTrialN,main_trial.thisN,main_trial.thisIndex,main_trial.ran,main_trial.order,Trial_Counter,Catch,Frequencies,response_2.started,response_2.stopped,mouse_2.x,mouse_2.y,mouse_2.leftButton,mouse_2.midButton,mouse_2.rightButton,mouse_2.clicked_name,special_trial.started,special_trial.stopped,catch_1.started,catch_1.stopped,mouse_3.x,mouse_3.y,mouse_3.leftButton,mouse_3.midButton,mouse_3.rightButton,catchresponse,catchnumber,response_time_catch,response_sum.started,response_sum.stopped,mouse_11.x,mouse_11.y,mouse_11.leftButton,mouse_11.midButton,mouse_11.rightButton,flip_presentation_sequence_for_double_pass.started,flip_presentation_sequence_for_double_pass.stopped,goodbye.started,goodbye.stopped,key_resp_3.keys,key_resp_3.rt,key_resp_3.duration
0.0006,0.0008,5eb3a51f58efe718f5cffdb4,2024-02-22_24h17.35.737,kallum_motion_pilot,2023.2.2,Linux x86_64,78.74015748,5eb3a51f58efe718f5cffdb4,65d6bb0e977760de756971f7,65d6bcaa6941bacdccd5417c,,,,,,,,,,,,,,,,,,,,,,,,,,,,,,,,,,,,,,,,,,,,,,,,,,,,,,,,,,,,,,,,,,,,,,,,,,,,,,,,,,,,,,,,,,,,,,,,,,,,,,,,,,,,,,,,,,,,,,,,,,,,,,,,,,,,,,,,,,,,,,,,,
,,5eb3a51f58efe718f5cffdb4,2024-02-22_24h17.35.737,kallum_motion_pilot,2023.2.2,Linux x86_64,78.74015748,5eb3a51f58efe718f5cffdb4,65d6bb0e977760de756971f7,65d6bcaa6941bacdccd5417c,0.031,0.0313,0,0,0,98,1,sixfive,,,,,,,,,,,,,,,,,,,,,,,,,,,,,,,,,,,,,,,,,,,,,,,,,,,,,,,,,,,,,,,,,,,,,,,,,,,,,,,,,,,,,,,,,,,,,,,,,,,,,,,,,,,,,,,,,,,,,,,,,,,,,,,,,,,,,,,,,
,,5eb3a51f58efe718f5cffdb4,2024-02-22_24h17.35.737,kallum_motion_pilot,2023.2.2,Linux x86_64,78.74015748,5eb3a51f58efe718f5cffdb4,65d6bb0e977760de756971f7,65d6bcaa6941bacdccd5417c,0.0316,0.0317,0,1,1,105,1,fiveseven,,,,,,,,,,,,,,,,,,,,,,,,,,,,,,,,,,,,,,,,,,,,,,,,,,,,,,,,,,,,,,,,,,,,,,,,,,,,,,,,,,,,,,,,,,,,,,,,,,,,,,,,,,,,,,,,,,,,,,,,,,,,,,,,,,,,,,,,,
,,5eb3a51f58efe718f5cffdb4,2024-02-22_24h17.35.737,kallum_motion_pilot,2023.2.2,Linux x86_64,78.74015748,5eb3a51f58efe718f5cffdb4,65d6bb0e977760de756971f7,65d6bcaa6941bacdccd5417c,0.0318,0.0319,0,2,2,76,1,threeone,,,,,,,,,,,,,,,,,,,,,,,,,,,,,,,,,,,,,,,,,,,,,,,,,,,,,,,,,,,,,,,,,,,,,,,,,,,,,,,,,,,,,,,,,,,,,,,,,,,,,,,,,,,,,,,,,,,,,,,,,,,,,,,,,,,,,,,,,
,,5eb3a51f58efe718f5cffdb4,2024-02-22_24h17.35.737,kallum_motion_pilot,2023.2.2,Linux x86_64,78.74015748,5eb3a51f58efe718f5cffdb4,65d6bb0e977760de756971f7,65d6bcaa6941bacdccd5417c,0.032,0.0321,0,3,3,97,1,fiveseven,,,,,,,,,,,,,,,,,,,,,,,,,,,,,,,,,,,,,,,,,,,,,,,,,,,,,,,,,,,,,,,,,,,,,,,,,,,,,,,,,,,,,,,,,,,,,,,,,,,,,,,,,,,,,,,,,,,,,,,,,,,,,,,,,,,,,,,,,
,,5eb3a51f58efe718f5cffdb4,2024-02-22_24h17.35.737,kallum_motion_pilot,2023.2.2,Linux x86_64,78.74015748,5eb3a51f58efe718f5cffdb4,65d6bb0e977760de756971f7,65d6bcaa6941bacdccd5417c,0.0322,0.0323,0,4,4,109,1,seveneight,,,,,,,,,,,,,,,,,,,,,,,,,,,,,,,,,,,,,,,,,,,,,,,,,,,,,,,,,,,,,,,,,,,,,,,,,,,,,,,,,,,,,,,,,,,,,,,,,,,,,,,,,,,,,,,,,,,,,,,,,,,,,,,,,,,,,,,,,
,,5eb3a51f58efe718f5cffdb4,2024-02-22_24h17.35.737,kallum_motion_pilot,2023.2.2,Linux x86_64,78.74015748,5eb3a51f58efe718f5cffdb4,65d6bb0e977760de756971f7,65d6bcaa6941bacdccd5417c,0.0324,0.0325,0,5,5,123,1,sixeight,,,,,,,,,,,,,,,,,,,,,,,,,,,,,,,,,,,,,,,,,,,,,,,,,,,,,,,,,,,,,,,,,,,,,,,,,,,,,,,,,,,,,,,,,,,,,,,,,,,,,,,,,,,,,,,,,,,,,,,,,,,,,,,,,,,,,,,,,
,,5eb3a51f58efe718f5cffdb4,2024-02-22_24h17.35.737,kallum_motion_pilot,2023.2.2,Linux x86_64,78.74015748,5eb3a51f58efe718f5cffdb4,65d6bb0e977760de756971f7,65d6bcaa6941bacdccd5417c,0.0326,0.0327,0,6,6,144,1,fivesix,,,,,,,,,,,,,,,,,,,,,,,,,,,,,,,,,,,,,,,,,,,,,,,,,,,,,,,,,,,,,,,,,,,,,,,,,,,,,,,,,,,,,,,,,,,,,,,,,,,,,,,,,,,,,,,,,,,,,,,,,,,,,,,,,,,,,,,,,
,,5eb3a51f58efe718f5cffdb4,2024-02-22_24h17.35.737,kallum_motion_pilot,2023.2.2,Linux x86_64,78.74015748,5eb3a51f58efe718f5cffdb4,65d6bb0e977760de756971f7,65d6bcaa6941bacdccd5417c,0.0328,0.0328,0,7,7,51,1,twofour,,,,,,,,,,,,,,,,,,,,,,,,,,,,,,,,,,,,,,,,,,,,,,,,,,,,,,,,,,,,,,,,,,,,,,,,,,,,,,,,,,,,,,,,,,,,,,,,,,,,,,,,,,,,,,,,,,,,,,,,,,,,,,,,,,,,,,,,,
,,5eb3a51f58efe718f5cffdb4,2024-02-22_24h17.35.737,kallum_motion_pilot,2023.2.2,Linux x86_64,78.74015748,5eb3a51f58efe718f5cffdb4,65d6bb0e977760de756971f7,65d6bcaa6941bacdccd5417c,0.033,0.033,0,8,8,56,1,onetwo,,,,,,,,,,,,,,,,,,,,,,,,,,,,,,,,,,,,,,,,,,,,,,,,,,,,,,,,,,,,,,,,,,,,,,,,,,,,,,,,,,,,,,,,,,,,,,,,,,,,,,,,,,,,,,,,,,,,,,,,,,,,,,,,,,,,,,,,,
,,5eb3a51f58efe718f5cffdb4,2024-02-22_24h17.35.737,kallum_motion_pilot,2023.2.2,Linux x86_64,78.74015748,5eb3a51f58efe718f5cffdb4,65d6bb0e977760de756971f7,65d6bcaa6941bacdccd5417c,0.0332,0.0332,0,9,9,102,1,eightsix,,,,,,,,,,,,,,,,,,,,,,,,,,,,,,,,,,,,,,,,,,,,,,,,,,,,,,,,,,,,,,,,,,,,,,,,,,,,,,,,,,,,,,,,,,,,,,,,,,,,,,,,,,,,,,,,,,,,,,,,,,,,,,,,,,,,,,,,,
,,5eb3a51f58efe718f5cffdb4,2024-02-22_24h17.35.737,kallum_motion_pilot,2023.2.2,Linux x86_64,78.74015748,5eb3a51f58efe718f5cffdb4,65d6bb0e977760de756971f7,65d6bcaa6941bacdccd5417c,0.0333,0.0334,0,10,10,141,1,seveneight,,,,,,,,,,,,,,,,,,,,,,,,,,,,,,,,,,,,,,,,,,,,,,,,,,,,,,,,,,,,,,,,,,,,,,,,,,,,,,,,,,,,,,,,,,,,,,,,,,,,,,,,,,,,,,,,,,,,,,,,,,,,,,,,,,,,,,,,,
,,5eb3a51f58efe718f5cffdb4,2024-02-22_24h17.35.737,kallum_motion_pilot,2023.2.2,Linux x86_64,78.74015748,5eb3a51f58efe718f5cffdb4,65d6bb0e977760de756971f7,65d6bcaa6941bacdccd5417c,0.0335,0.0336,0,11,11,52,1,threeone,,,,,,,,,,,,,,,,,,,,,,,,,,,,,,,,,,,,,,,,,,,,,,,,,,,,,,,,,,,,,,,,,,,,,,,,,,,,,,,,,,,,,,,,,,,,,,,,,,,,,,,,,,,,,,,,,,,,,,,,,,,,,,,,,,,,,,,,,
,,5eb3a51f58efe718f5cffdb4,2024-02-22_24h17.35.737,kallum_motion_pilot,2023.2.2,Linux x86_64,78.74015748,5eb3a51f58efe718f5cffdb4,65d6bb0e977760de756971f7,65d6bcaa6941bacdccd5417c,0.0336,0.0337,0,12,12,53,1,threefour,,,,,,,,,,,,,,,,,,,,,,,,,,,,,,,,,,,,,,,,,,,,,,,,,,,,,,,,,,,,,,,,,,,,,,,,,,,,,,,,,,,,,,,,,,,,,,,,,,,,,,,,,,,,,,,,,,,,,,,,,,,,,,,,,,,,,,,,,
,,5eb3a51f58efe718f5cffdb4,2024-02-22_24h17.35.737,kallum_motion_pilot,2023.2.2,Linux x86_64,78.74015748,5eb3a51f58efe718f5cffdb4,65d6bb0e977760de756971f7,65d6bcaa6941bacdccd5417c,0.0338,0.0339,0,13,13,129,1,fiveseven,,,,,,,,,,,,,,,,,,,,,,,,,,,,,,,,,,,,,,,,,,,,,,,,,,,,,,,,,,,,,,,,,,,,,,,,,,,,,,,,,,,,,,,,,,,,,,,,,,,,,,,,,,,,,,,,,,,,,,,,,,,,,,,,,,,,,,,,,
,,5eb3a51f58efe718f5cffdb4,2024-02-22_24h17.35.737,kallum_motion_pilot,2023.2.2,Linux x86_64,78.74015748,5eb3a51f58efe718f5cffdb4,65d6bb0e977760de756971f7,65d6bcaa6941bacdccd5417c,0.034,0.034,0,14,14,0,1,onetwo,,,,,,,,,,,,,,,,,,,,,,,,,,,,,,,,,,,,,,,,,,,,,,,,,,,,,,,,,,,,,,,,,,,,,,,,,,,,,,,,,,,,,,,,,,,,,,,,,,,,,,,,,,,,,,,,,,,,,,,,,,,,,,,,,,,,,,,,,
,,5eb3a51f58efe718f5cffdb4,2024-02-22_24h17.35.737,kallum_motion_pilot,2023.2.2,Linux x86_64,78.74015748,5eb3a51f58efe718f5cffdb4,65d6bb0e977760de756971f7,65d6bcaa6941bacdccd5417c,0.0341,0.0342,0,15,15,61,1,threefour,,,,,,,,,,,,,,,,,,,,,,,,,,,,,,,,,,,,,,,,,,,,,,,,,,,,,,,,,,,,,,,,,,,,,,,,,,,,,,,,,,,,,,,,,,,,,,,,,,,,,,,,,,,,,,,,,,,,,,,,,,,,,,,,,,,,,,,,,
,,5eb3a51f58efe718f5cffdb4,2024-02-22_24h17.35.737,kallum_motion_pilot,2023.2.2,Linux x86_64,78.74015748,5eb3a51f58efe718f5cffdb4,65d6bb0e977760de756971f7,65d6bcaa6941bacdccd5417c,0.0343,0.0343,0,16,16,155,1,sixeight,,,,,,,,,,,,,,,,,,,,,,,,,,,,,,,,,,,,,,,,,,,,,,,,,,,,,,,,,,,,,,,,,,,,,,,,,,,,,,,,,,,,,,,,,,,,,,,,,,,,,,,,,,,,,,,,,,,,,,,,,,,,,,,,,,,,,,,,,
,,5eb3a51f58efe718f5cffdb4,2024-02-22_24h17.35.737,kallum_motion_pilot,2023.2.2,Linux x86_64,78.74015748,5eb3a51f58efe718f5cffdb4,65d6bb0e977760de756971f7,65d6bcaa6941bacdccd5417c,0.0344,0.0344,0,17,17,21,1,threefour,,,,,,,,,,,,,,,,,,,,,,,,,,,,,,,,,,,,,,,,,,,,,,,,,,,,,,,,,,,,,,,,,,,,,,,,,,,,,,,,,,,,,,,,,,,,,,,,,,,,,,,,,,,,,,,,,,,,,,,,,,,,,,,,,,,,,,,,,
,,5eb3a51f58efe718f5cffdb4,2024-02-22_24h17.35.737,kallum_motion_pilot,2023.2.2,Linux x86_64,78.74015748,5eb3a51f58efe718f5cffdb4,65d6bb0e977760de756971f7,65d6bcaa6941bacdccd5417c,0.0346,0.0346,0,18,18,14,1,fourtwo,,,,,,,,,,,,,,,,,,,,,,,,,,,,,,,,,,,,,,,,,,,,,,,,,,,,,,,,,,,,,,,,,,,,,,,,,,,,,,,,,,,,,,,,,,,,,,,,,,,,,,,,,,,,,,,,,,,,,,,,,,,,,,,,,,,,,,,,,
,,5eb3a51f58efe718f5cffdb4,2024-02-22_24h17.35.737,kallum_motion_pilot,2023.2.2,Linux x86_64,78.74015748,5eb3a51f58efe718f5cffdb4,65d6bb0e977760de756971f7,65d6bcaa6941bacdccd5417c,0.0346,0.0347,0,19,19,96,1,fivesix,,,,,,,,,,,,,,,,,,,,,,,,,,,,,,,,,,,,,,,,,,,,,,,,,,,,,,,,,,,,,,,,,,,,,,,,,,,,,,,,,,,,,,,,,,,,,,,,,,,,,,,,,,,,,,,,,,,,,,,,,,,,,,,,,,,,,,,,,
,,5eb3a51f58efe718f5cffdb4,2024-02-22_24h17.35.737,kallum_motion_pilot,2023.2.2,Linux x86_64,78.74015748,5eb3a51f58efe718f5cffdb4,65d6bb0e977760de756971f7,65d6bcaa6941bacdccd5417c,0.0348,0.0349,0,20,20,64,1,onetwo,,,,,,,,,,,,,,,,,,,,,,,,,,,,,,,,,,,,,,,,,,,,,,,,,,,,,,,,,,,,,,,,,,,,,,,,,,,,,,,,,,,,,,,,,,,,,,,,,,,,,,,,,,,,,,,,,,,,,,,,,,,,,,,,,,,,,,,,,
,,5eb3a51f58efe718f5cffdb4,2024-02-22_24h17.35.737,kallum_motion_pilot,2023.2.2,Linux x86_64,78.74015748,5eb3a51f58efe718f5cffdb4,65d6bb0e977760de756971f7,65d6bcaa6941bacdccd5417c,0.0351,0.0351,0,21,21,126,1,eightsix,,,,,,,,,,,,,,,,,,,,,,,,,,,,,,,,,,,,,,,,,,,,,,,,,,,,,,,,,,,,,,,,,,,,,,,,,,,,,,,,,,,,,,,,,,,,,,,,,,,,,,,,,,,,,,,,,,,,,,,,,,,,,,,,,,,,,,,,,
,,5eb3a51f58efe718f5cffdb4,2024-02-22_24h17.35.737,kallum_motion_pilot,2023.2.2,Linux x86_64,78.74015748,5eb3a51f58efe718f5cffdb4,65d6bb0e977760de756971f7,65d6bcaa6941bacdccd5417c,0.0352,0.0352,0,22,22,15,1,fourthree,,,,,,,,,,,,,,,,,,,,,,,,,,,,,,,,,,,,,,,,,,,,,,,,,,,,,,,,,,,,,,,,,,,,,,,,,,,,,,,,,,,,,,,,,,,,,,,,,,,,,,,,,,,,,,,,,,,,,,,,,,,,,,,,,,,,,,,,,
,,5eb3a51f58efe718f5cffdb4,2024-02-22_24h17.35.737,kallum_motion_pilot,2023.2.2,Linux x86_64,78.74015748,5eb3a51f58efe718f5cffdb4,65d6bb0e977760de756971f7,65d6bcaa6941bacdccd5417c,0.0353,0.0353,0,23,23,41,1,onethree,,,,,,,,,,,,,,,,,,,,,,,,,,,,,,,,,,,,,,,,,,,,,,,,,,,,,,,,,,,,,,,,,,,,,,,,,,,,,,,,,,,,,,,,,,,,,,,,,,,,,,,,,,,,,,,,,,,,,,,,,,,,,,,,,,,,,,,,,
,,5eb3a51f58efe718f5cffdb4,2024-02-22_24h17.35.737,kallum_motion_pilot,2023.2.2,Linux x86_64,78.74015748,5eb3a51f58efe718f5cffdb4,65d6bb0e977760de756971f7,65d6bcaa6941bacdccd5417c,0.0354,0.0355,0,24,24,17,1,onethree,,,,,,,,,,,,,,,,,,,,,,,,,,,,,,,,,,,,,,,,,,,,,,,,,,,,,,,,,,,,,,,,,,,,,,,,,,,,,,,,,,,,,,,,,,,,,,,,,,,,,,,,,,,,,,,,,,,,,,,,,,,,,,,,,,,,,,,,,
,,5eb3a51f58efe718f5cffdb4,2024-02-22_24h17.35.737,kallum_motion_pilot,2023.2.2,Linux x86_64,78.74015748,5eb3a51f58efe718f5cffdb4,65d6bb0e977760de756971f7,65d6bcaa6941bacdccd5417c,0.0356,0.0357,0,25,25,114,1,sixfive,,,,,,,,,,,,,,,,,,,,,,,,,,,,,,,,,,,,,,,,,,,,,,,,,,,,,,,,,,,,,,,,,,,,,,,,,,,,,,,,,,,,,,,,,,,,,,,,,,,,,,,,,,,,,,,,,,,,,,,,,,,,,,,,,,,,,,,,,
,,5eb3a51f58efe718f5cffdb4,2024-02-22_24h17.35.737,kallum_motion_pilot,2023.2.2,Linux x86_64,78.74015748,5eb3a51f58efe718f5cffdb4,65d6bb0e977760de756971f7,65d6bcaa6941bacdccd5417c,0.0358,0.0358,0,26,26,4,1,threeone,,,,,,,,,,,,,,,,,,,,,,,,,,,,,,,,,,,,,,,,,,,,,,,,,,,,,,,,,,,,,,,,,,,,,,,,,,,,,,,,,,,,,,,,,,,,,,,,,,,,,,,,,,,,,,,,,,,,,,,,,,,,,,,,,,,,,,,,,
,,5eb3a51f58efe718f5cffdb4,2024-02-22_24h17.35.737,kallum_motion_pilot,2023.2.2,Linux x86_64,78.74015748,5eb3a51f58efe718f5cffdb4,65d6bb0e977760de756971f7,65d6bcaa6941bacdccd5417c,0.0359,0.0359,0,27,27,94,1,eightsix,,,,,,,,,,,,,,,,,,,,,,,,,,,,,,,,,,,,,,,,,,,,,,,,,,,,,,,,,,,,,,,,,,,,,,,,,,,,,,,,,,,,,,,,,,,,,,,,,,,,,,,,,,,,,,,,,,,,,,,,,,,,,,,,,,,,,,,,,
,,5eb3a51f58efe718f5cffdb4,2024-02-22_24h17.35.737,kallum_motion_pilot,2023.2.2,Linux x86_64,78.74015748,5eb3a51f58efe718f5cffdb4,65d6bb0e977760de756971f7,65d6bcaa6941bacdccd5417c,0.036,0.0361,0,28,28,88,1,fivesix,,,,,,,,,,,,,,,,,,,,,,,,,,,,,,,,,,,,,,,,,,,,,,,,,,,,,,,,,,,,,,,,,,,,,,,,,,,,,,,,,,,,,,,,,,,,,,,,,,,,,,,,,,,,,,,,,,,,,,,,,,,,,,,,,,,,,,,,,
,,5eb3a51f58efe718f5cffdb4,2024-02-22_24h17.35.737,kallum_motion_pilot,2023.2.2,Linux x86_64,78.74015748,5eb3a51f58efe718f5cffdb4,65d6bb0e977760de756971f7,65d6bcaa6941bacdccd5417c,0.0362,0.0362,0,29,29,135,1,eightseven,,,,,,,,,,,,,,,,,,,,,,,,,,,,,,,,,,,,,,,,,,,,,,,,,,,,,,,,,,,,,,,,,,,,,,,,,,,,,,,,,,,,,,,,,,,,,,,,,,,,,,,,,,,,,,,,,,,,,,,,,,,,,,,,,,,,,,,,,
,,5eb3a51f58efe718f5cffdb4,2024-02-22_24h17.35.737,kallum_motion_pilot,2023.2.2,Linux x86_64,78.74015748,5eb3a51f58efe718f5cffdb4,65d6bb0e977760de756971f7,65d6bcaa6941bacdccd5417c,0.0363,0.0363,0,30,30,81,1,fiveseven,,,,,,,,,,,,,,,,,,,,,,,,,,,,,,,,,,,,,,,,,,,,,,,,,,,,,,,,,,,,,,,,,,,,,,,,,,,,,,,,,,,,,,,,,,,,,,,,,,,,,,,,,,,,,,,,,,,,,,,,,,,,,,,,,,,,,,,,,
,,5eb3a51f58efe718f5cffdb4,2024-02-22_24h17.35.737,kallum_motion_pilot,2023.2.2,Linux x86_64,78.74015748,5eb3a51f58efe718f5cffdb4,65d6bb0e977760de756971f7,65d6bcaa6941bacdccd5417c,0.0364,0.0365,0,31,31,111,1,eightseven,,,,,,,,,,,,,,,,,,,,,,,,,,,,,,,,,,,,,,,,,,,,,,,,,,,,,,,,,,,,,,,,,,,,,,,,,,,,,,,,,,,,,,,,,,,,,,,,,,,,,,,,,,,,,,,,,,,,,,,,,,,,,,,,,,,,,,,,,
,,5eb3a51f58efe718f5cffdb4,2024-02-22_24h17.35.737,kallum_motion_pilot,2023.2.2,Linux x86_64,78.74015748,5eb3a51f58efe718f5cffdb4,65d6bb0e977760de756971f7,65d6bcaa6941bacdccd5417c,0.0366,0.0366,0,32,32,103,1,eightseven,,,,,,,,,,,,,,,,,,,,,,,,,,,,,,,,,,,,,,,,,,,,,,,,,,,,,,,,,,,,,,,,,,,,,,,,,,,,,,,,,,,,,,,,,,,,,,,,,,,,,,,,,,,,,,,,,,,,,,,,,,,,,,,,,,,,,,,,,
,,5eb3a51f58efe718f5cffdb4,2024-02-22_24h17.35.737,kallum_motion_pilot,2023.2.2,Linux x86_64,78.74015748,5eb3a51f58efe718f5cffdb4,65d6bb0e977760de756971f7,65d6bcaa6941bacdccd5417c,0.0367,0.0368,0,33,33,34,1,twoone,,,,,,,,,,,,,,,,,,,,,,,,,,,,,,,,,,,,,,,,,,,,,,,,,,,,,,,,,,,,,,,,,,,,,,,,,,,,,,,,,,,,,,,,,,,,,,,,,,,,,,,,,,,,,,,,,,,,,,,,,,,,,,,,,,,,,,,,,
,,5eb3a51f58efe718f5cffdb4,2024-02-22_24h17.35.737,kallum_motion_pilot,2023.2.2,Linux x86_64,78.74015748,5eb3a51f58efe718f5cffdb4,65d6bb0e977760de756971f7,65d6bcaa6941bacdccd5417c,0.0369,0.0369,0,34,34,26,1,twoone,,,,,,,,,,,,,,,,,,,,,,,,,,,,,,,,,,,,,,,,,,,,,,,,,,,,,,,,,,,,,,,,,,,,,,,,,,,,,,,,,,,,,,,,,,,,,,,,,,,,,,,,,,,,,,,,,,,,,,,,,,,,,,,,,,,,,,,,,
,,5eb3a51f58efe718f5cffdb4,2024-02-22_24h17.35.737,kallum_motion_pilot,2023.2.2,Linux x86_64,78.74015748,5eb3a51f58efe718f5cffdb4,65d6bb0e977760de756971f7,65d6bcaa6941bacdccd5417c,0.0371,0.0371,0,35,35,131,1,sixeight,,,,,,,,,,,,,,,,,,,,,,,,,,,,,,,,,,,,,,,,,,,,,,,,,,,,,,,,,,,,,,,,,,,,,,,,,,,,,,,,,,,,,,,,,,,,,,,,,,,,,,,,,,,,,,,,,,,,,,,,,,,,,,,,,,,,,,,,,
,,5eb3a51f58efe718f5cffdb4,2024-02-22_24h17.35.737,kallum_motion_pilot,2023.2.2,Linux x86_64,78.74015748,5eb3a51f58efe718f5cffdb4,65d6bb0e977760de756971f7,65d6bcaa6941bacdccd5417c,0.0372,0.0372,0,36,36,107,1,sixeight,,,,,,,,,,,,,,,,,,,,,,,,,,,,,,,,,,,,,,,,,,,,,,,,,,,,,,,,,,,,,,,,,,,,,,,,,,,,,,,,,,,,,,,,,,,,,,,,,,,,,,,,,,,,,,,,,,,,,,,,,,,,,,,,,,,,,,,,,
,,5eb3a51f58efe718f5cffdb4,2024-02-22_24h17.35.737,kallum_motion_pilot,2023.2.2,Linux x86_64,78.74015748,5eb3a51f58efe718f5cffdb4,65d6bb0e977760de756971f7,65d6bcaa6941bacdccd5417c,0.0373,0.0374,0,37,37,86,1,eightsix,,,,,,,,,,,,,,,,,,,,,,,,,,,,,,,,,,,,,,,,,,,,,,,,,,,,,,,,,,,,,,,,,,,,,,,,,,,,,,,,,,,,,,,,,,,,,,,,,,,,,,,,,,,,,,,,,,,,,,,,,,,,,,,,,,,,,,,,,
,,5eb3a51f58efe718f5cffdb4,2024-02-22_24h17.35.737,kallum_motion_pilot,2023.2.2,Linux x86_64,78.74015748,5eb3a51f58efe718f5cffdb4,65d6bb0e977760de756971f7,65d6bcaa6941bacdccd5417c,0.0375,0.0376,0,38,38,45,1,threefour,,,,,,,,,,,,,,,,,,,,,,,,,,,,,,,,,,,,,,,,,,,,,,,,,,,,,,,,,,,,,,,,,,,,,,,,,,,,,,,,,,,,,,,,,,,,,,,,,,,,,,,,,,,,,,,,,,,,,,,,,,,,,,,,,,,,,,,,,
,,5eb3a51f58efe718f5cffdb4,2024-02-22_24h17.35.737,kallum_motion_pilot,2023.2.2,Linux x86_64,78.74015748,5eb3a51f58efe718f5cffdb4,65d6bb0e977760de756971f7,65d6bcaa6941bacdccd5417c,0.0376,0.0376,0,39,39,57,1,onethree,,,,,,,,,,,,,,,,,,,,,,,,,,,,,,,,,,,,,,,,,,,,,,,,,,,,,,,,,,,,,,,,,,,,,,,,,,,,,,,,,,,,,,,,,,,,,,,,,,,,,,,,,,,,,,,,,,,,,,,,,,,,,,,,,,,,,,,,,
,,5eb3a51f58efe718f5cffdb4,2024-02-22_24h17.35.737,kallum_motion_pilot,2023.2.2,Linux x86_64,78.74015748,5eb3a51f58efe718f5cffdb4,65d6bb0e977760de756971f7,65d6bcaa6941bacdccd5417c,0.0378,0.0379,0,40,40,152,1,fivesix,,,,,,,,,,,,,,,,,,,,,,,,,,,,,,,,,,,,,,,,,,,,,,,,,,,,,,,,,,,,,,,,,,,,,,,,,,,,,,,,,,,,,,,,,,,,,,,,,,,,,,,,,,,,,,,,,,,,,,,,,,,,,,,,,,,,,,,,,
,,5eb3a51f58efe718f5cffdb4,2024-02-22_24h17.35.737,kallum_motion_pilot,2023.2.2,Linux x86_64,78.74015748,5eb3a51f58efe718f5cffdb4,65d6bb0e977760de756971f7,65d6bcaa6941bacdccd5417c,0.0379,0.038,0,41,41,106,1,sixfive,,,,,,,,,,,,,,,,,,,,,,,,,,,,,,,,,,,,,,,,,,,,,,,,,,,,,,,,,,,,,,,,,,,,,,,,,,,,,,,,,,,,,,,,,,,,,,,,,,,,,,,,,,,,,,,,,,,,,,,,,,,,,,,,,,,,,,,,,
,,5eb3a51f58efe718f5cffdb4,2024-02-22_24h17.35.737,kallum_motion_pilot,2023.2.2,Linux x86_64,78.74015748,5eb3a51f58efe718f5cffdb4,65d6bb0e977760de756971f7,65d6bcaa6941bacdccd5417c,0.0381,0.0381,0,42,42,136,1,fivesix,,,,,,,,,,,,,,,,,,,,,,,,,,,,,,,,,,,,,,,,,,,,,,,,,,,,,,,,,,,,,,,,,,,,,,,,,,,,,,,,,,,,,,,,,,,,,,,,,,,,,,,,,,,,,,,,,,,,,,,,,,,,,,,,,,,,,,,,,
,,5eb3a51f58efe718f5cffdb4,2024-02-22_24h17.35.737,kallum_motion_pilot,2023.2.2,Linux x86_64,78.74015748,5eb3a51f58efe718f5cffdb4,65d6bb0e977760de756971f7,65d6bcaa6941bacdccd5417c,0.0383,0.0383,0,43,43,149,1,seveneight,,,,,,,,,,,,,,,,,,,,,,,,,,,,,,,,,,,,,,,,,,,,,,,,,,,,,,,,,,,,,,,,,,,,,,,,,,,,,,,,,,,,,,,,,,,,,,,,,,,,,,,,,,,,,,,,,,,,,,,,,,,,,,,,,,,,,,,,,
,,5eb3a51f58efe718f5cffdb4,2024-02-22_24h17.35.737,kallum_motion_pilot,2023.2.2,Linux x86_64,78.74015748,5eb3a51f58efe718f5cffdb4,65d6bb0e977760de756971f7,65d6bcaa6941bacdccd5417c,0.0384,0.0384,0,44,44,99,1,sixeight,,,,,,,,,,,,,,,,,,,,,,,,,,,,,,,,,,,,,,,,,,,,,,,,,,,,,,,,,,,,,,,,,,,,,,,,,,,,,,,,,,,,,,,,,,,,,,,,,,,,,,,,,,,,,,,,,,,,,,,,,,,,,,,,,,,,,,,,,
,,5eb3a51f58efe718f5cffdb4,2024-02-22_24h17.35.737,kallum_motion_pilot,2023.2.2,Linux x86_64,78.74015748,5eb3a51f58efe718f5cffdb4,65d6bb0e977760de756971f7,65d6bcaa6941bacdccd5417c,0.0386,0.0386,0,45,45,84,1,sevenfive,,,,,,,,,,,,,,,,,,,,,,,,,,,,,,,,,,,,,,,,,,,,,,,,,,,,,,,,,,,,,,,,,,,,,,,,,,,,,,,,,,,,,,,,,,,,,,,,,,,,,,,,,,,,,,,,,,,,,,,,,,,,,,,,,,,,,,,,,
,,5eb3a51f58efe718f5cffdb4,2024-02-22_24h17.35.737,kallum_motion_pilot,2023.2.2,Linux x86_64,78.74015748,5eb3a51f58efe718f5cffdb4,65d6bb0e977760de756971f7,65d6bcaa6941bacdccd5417c,0.0387,0.0387,0,46,46,142,1,eightsix,,,,,,,,,,,,,,,,,,,,,,,,,,,,,,,,,,,,,,,,,,,,,,,,,,,,,,,,,,,,,,,,,,,,,,,,,,,,,,,,,,,,,,,,,,,,,,,,,,,,,,,,,,,,,,,,,,,,,,,,,,,,,,,,,,,,,,,,,
,,5eb3a51f58efe718f5cffdb4,2024-02-22_24h17.35.737,kallum_motion_pilot,2023.2.2,Linux x86_64,78.74015748,5eb3a51f58efe718f5cffdb4,65d6bb0e977760de756971f7,65d6bcaa6941bacdccd5417c,0.0388,0.0389,0,47,47,157,1,seveneight,,,,,,,,,,,,,,,,,,,,,,,,,,,,,,,,,,,,,,,,,,,,,,,,,,,,,,,,,,,,,,,,,,,,,,,,,,,,,,,,,,,,,,,,,,,,,,,,,,,,,,,,,,,,,,,,,,,,,,,,,,,,,,,,,,,,,,,,,
,,5eb3a51f58efe718f5cffdb4,2024-02-22_24h17.35.737,kallum_motion_pilot,2023.2.2,Linux x86_64,78.74015748,5eb3a51f58efe718f5cffdb4,65d6bb0e977760de756971f7,65d6bcaa6941bacdccd5417c,0.039,0.0391,0,48,48,1,1,onethree,,,,,,,,,,,,,,,,,,,,,,,,,,,,,,,,,,,,,,,,,,,,,,,,,,,,,,,,,,,,,,,,,,,,,,,,,,,,,,,,,,,,,,,,,,,,,,,,,,,,,,,,,,,,,,,,,,,,,,,,,,,,,,,,,,,,,,,,,
,,5eb3a51f58efe718f5cffdb4,2024-02-22_24h17.35.737,kallum_motion_pilot,2023.2.2,Linux x86_64,78.74015748,5eb3a51f58efe718f5cffdb4,65d6bb0e977760de756971f7,65d6bcaa6941bacdccd5417c,0.0391,0.0391,0,49,49,2,1,twoone,,,,,,,,,,,,,,,,,,,,,,,,,,,,,,,,,,,,,,,,,,,,,,,,,,,,,,,,,,,,,,,,,,,,,,,,,,,,,,,,,,,,,,,,,,,,,,,,,,,,,,,,,,,,,,,,,,,,,,,,,,,,,,,,,,,,,,,,,
,,5eb3a51f58efe718f5cffdb4,2024-02-22_24h17.35.737,kallum_motion_pilot,2023.2.2,Linux x86_64,78.74015748,5eb3a51f58efe718f5cffdb4,65d6bb0e977760de756971f7,65d6bcaa6941bacdccd5417c,0.0393,0.0393,0,50,50,159,1,eightseven,,,,,,,,,,,,,,,,,,,,,,,,,,,,,,,,,,,,,,,,,,,,,,,,,,,,,,,,,,,,,,,,,,,,,,,,,,,,,,,,,,,,,,,,,,,,,,,,,,,,,,,,,,,,,,,,,,,,,,,,,,,,,,,,,,,,,,,,,
,,5eb3a51f58efe718f5cffdb4,2024-02-22_24h17.35.737,kallum_motion_pilot,2023.2.2,Linux x86_64,78.74015748,5eb3a51f58efe718f5cffdb4,65d6bb0e977760de756971f7,65d6bcaa6941bacdccd5417c,0.0395,0.0395,0,51,51,132,1,sevenfive,,,,,,,,,,,,,,,,,,,,,,,,,,,,,,,,,,,,,,,,,,,,,,,,,,,,,,,,,,,,,,,,,,,,,,,,,,,,,,,,,,,,,,,,,,,,,,,,,,,,,,,,,,,,,,,,,,,,,,,,,,,,,,,,,,,,,,,,,
,,5eb3a51f58efe718f5cffdb4,2024-02-22_24h17.35.737,kallum_motion_pilot,2023.2.2,Linux x86_64,78.74015748,5eb3a51f58efe718f5cffdb4,65d6bb0e977760de756971f7,65d6bcaa6941bacdccd5417c,0.0396,0.0397,0,52,52,83,1,sixeight,,,,,,,,,,,,,,,,,,,,,,,,,,,,,,,,,,,,,,,,,,,,,,,,,,,,,,,,,,,,,,,,,,,,,,,,,,,,,,,,,,,,,,,,,,,,,,,,,,,,,,,,,,,,,,,,,,,,,,,,,,,,,,,,,,,,,,,,,
,,5eb3a51f58efe718f5cffdb4,2024-02-22_24h17.35.737,kallum_motion_pilot,2023.2.2,Linux x86_64,78.74015748,5eb3a51f58efe718f5cffdb4,65d6bb0e977760de756971f7,65d6bcaa6941bacdccd5417c,0.0398,0.0398,0,53,53,147,1,sixeight,,,,,,,,,,,,,,,,,,,,,,,,,,,,,,,,,,,,,,,,,,,,,,,,,,,,,,,,,,,,,,,,,,,,,,,,,,,,,,,,,,,,,,,,,,,,,,,,,,,,,,,,,,,,,,,,,,,,,,,,,,,,,,,,,,,,,,,,,
,,5eb3a51f58efe718f5cffdb4,2024-02-22_24h17.35.737,kallum_motion_pilot,2023.2.2,Linux x86_64,78.74015748,5eb3a51f58efe718f5cffdb4,65d6bb0e977760de756971f7,65d6bcaa6941bacdccd5417c,0.0399,0.04,0,54,54,80,1,fivesix,,,,,,,,,,,,,,,,,,,,,,,,,,,,,,,,,,,,,,,,,,,,,,,,,,,,,,,,,,,,,,,,,,,,,,,,,,,,,,,,,,,,,,,,,,,,,,,,,,,,,,,,,,,,,,,,,,,,,,,,,,,,,,,,,,,,,,,,,
,,5eb3a51f58efe718f5cffdb4,2024-02-22_24h17.35.737,kallum_motion_pilot,2023.2.2,Linux x86_64,78.74015748,5eb3a51f58efe718f5cffdb4,65d6bb0e977760de756971f7,65d6bcaa6941bacdccd5417c,0.0401,0.0401,0,55,55,116,1,sevenfive,,,,,,,,,,,,,,,,,,,,,,,,,,,,,,,,,,,,,,,,,,,,,,,,,,,,,,,,,,,,,,,,,,,,,,,,,,,,,,,,,,,,,,,,,,,,,,,,,,,,,,,,,,,,,,,,,,,,,,,,,,,,,,,,,,,,,,,,,
,,5eb3a51f58efe718f5cffdb4,2024-02-22_24h17.35.737,kallum_motion_pilot,2023.2.2,Linux x86_64,78.74015748,5eb3a51f58efe718f5cffdb4,65d6bb0e977760de756971f7,65d6bcaa6941bacdccd5417c,0.0403,0.0403,0,56,56,48,1,onetwo,,,,,,,,,,,,,,,,,,,,,,,,,,,,,,,,,,,,,,,,,,,,,,,,,,,,,,,,,,,,,,,,,,,,,,,,,,,,,,,,,,,,,,,,,,,,,,,,,,,,,,,,,,,,,,,,,,,,,,,,,,,,,,,,,,,,,,,,,
,,5eb3a51f58efe718f5cffdb4,2024-02-22_24h17.35.737,kallum_motion_pilot,2023.2.2,Linux x86_64,78.74015748,5eb3a51f58efe718f5cffdb4,65d6bb0e977760de756971f7,65d6bcaa6941bacdccd5417c,0.0404,0.0405,0,57,57,95,1,eightseven,,,,,,,,,,,,,,,,,,,,,,,,,,,,,,,,,,,,,,,,,,,,,,,,,,,,,,,,,,,,,,,,,,,,,,,,,,,,,,,,,,,,,,,,,,,,,,,,,,,,,,,,,,,,,,,,,,,,,,,,,,,,,,,,,,,,,,,,,
,,5eb3a51f58efe718f5cffdb4,2024-02-22_24h17.35.737,kallum_motion_pilot,2023.2.2,Linux x86_64,78.74015748,5eb3a51f58efe718f5cffdb4,65d6bb0e977760de756971f7,65d6bcaa6941bacdccd5417c,0.0406,0.0407,0,58,58,69,1,threefour,,,,,,,,,,,,,,,,,,,,,,,,,,,,,,,,,,,,,,,,,,,,,,,,,,,,,,,,,,,,,,,,,,,,,,,,,,,,,,,,,,,,,,,,,,,,,,,,,,,,,,,,,,,,,,,,,,,,,,,,,,,,,,,,,,,,,,,,,
,,5eb3a51f58efe718f5cffdb4,2024-02-22_24h17.35.737,kallum_motion_pilot,2023.2.2,Linux x86_64,78.74015748,5eb3a51f58efe718f5cffdb4,65d6bb0e977760de756971f7,65d6bcaa6941bacdccd5417c,0.0407,0.0408,0,59,59,63,1,fourthree,,,,,,,,,,,,,,,,,,,,,,,,,,,,,,,,,,,,,,,,,,,,,,,,,,,,,,,,,,,,,,,,,,,,,,,,,,,,,,,,,,,,,,,,,,,,,,,,,,,,,,,,,,,,,,,,,,,,,,,,,,,,,,,,,,,,,,,,,
,,5eb3a51f58efe718f5cffdb4,2024-02-22_24h17.35.737,kallum_motion_pilot,2023.2.2,Linux x86_64,78.74015748,5eb3a51f58efe718f5cffdb4,65d6bb0e977760de756971f7,65d6bcaa6941bacdccd5417c,0.0409,0.041,0,60,60,91,1,sixeight,,,,,,,,,,,,,,,,,,,,,,,,,,,,,,,,,,,,,,,,,,,,,,,,,,,,,,,,,,,,,,,,,,,,,,,,,,,,,,,,,,,,,,,,,,,,,,,,,,,,,,,,,,,,,,,,,,,,,,,,,,,,,,,,,,,,,,,,,
,,5eb3a51f58efe718f5cffdb4,2024-02-22_24h17.35.737,kallum_motion_pilot,2023.2.2,Linux x86_64,78.74015748,5eb3a51f58efe718f5cffdb4,65d6bb0e977760de756971f7,65d6bcaa6941bacdccd5417c,0.041,0.041,0,61,61,9,1,onethree,,,,,,,,,,,,,,,,,,,,,,,,,,,,,,,,,,,,,,,,,,,,,,,,,,,,,,,,,,,,,,,,,,,,,,,,,,,,,,,,,,,,,,,,,,,,,,,,,,,,,,,,,,,,,,,,,,,,,,,,,,,,,,,,,,,,,,,,,
,,5eb3a51f58efe718f5cffdb4,2024-02-22_24h17.35.737,kallum_motion_pilot,2023.2.2,Linux x86_64,78.74015748,5eb3a51f58efe718f5cffdb4,65d6bb0e977760de756971f7,65d6bcaa6941bacdccd5417c,0.0412,0.0412,0,62,62,156,1,sevenfive,,,,,,,,,,,,,,,,,,,,,,,,,,,,,,,,,,,,,,,,,,,,,,,,,,,,,,,,,,,,,,,,,,,,,,,,,,,,,,,,,,,,,,,,,,,,,,,,,,,,,,,,,,,,,,,,,,,,,,,,,,,,,,,,,,,,,,,,,
,,5eb3a51f58efe718f5cffdb4,2024-02-22_24h17.35.737,kallum_motion_pilot,2023.2.2,Linux x86_64,78.74015748,5eb3a51f58efe718f5cffdb4,65d6bb0e977760de756971f7,65d6bcaa6941bacdccd5417c,0.0413,0.0414,0,63,63,31,1,fourthree,,,,,,,,,,,,,,,,,,,,,,,,,,,,,,,,,,,,,,,,,,,,,,,,,,,,,,,,,,,,,,,,,,,,,,,,,,,,,,,,,,,,,,,,,,,,,,,,,,,,,,,,,,,,,,,,,,,,,,,,,,,,,,,,,,,,,,,,,
,,5eb3a51f58efe718f5cffdb4,2024-02-22_24h17.35.737,kallum_motion_pilot,2023.2.2,Linux x86_64,78.74015748,5eb3a51f58efe718f5cffdb4,65d6bb0e977760de756971f7,65d6bcaa6941bacdccd5417c,0.0415,0.0415,0,64,64,46,1,fourtwo,,,,,,,,,,,,,,,,,,,,,,,,,,,,,,,,,,,,,,,,,,,,,,,,,,,,,,,,,,,,,,,,,,,,,,,,,,,,,,,,,,,,,,,,,,,,,,,,,,,,,,,,,,,,,,,,,,,,,,,,,,,,,,,,,,,,,,,,,
,,5eb3a51f58efe718f5cffdb4,2024-02-22_24h17.35.737,kallum_motion_pilot,2023.2.2,Linux x86_64,78.74015748,5eb3a51f58efe718f5cffdb4,65d6bb0e977760de756971f7,65d6bcaa6941bacdccd5417c,0.0417,0.0418,0,65,65,58,1,twoone,,,,,,,,,,,,,,,,,,,,,,,,,,,,,,,,,,,,,,,,,,,,,,,,,,,,,,,,,,,,,,,,,,,,,,,,,,,,,,,,,,,,,,,,,,,,,,,,,,,,,,,,,,,,,,,,,,,,,,,,,,,,,,,,,,,,,,,,,
,,5eb3a51f58efe718f5cffdb4,2024-02-22_24h17.35.737,kallum_motion_pilot,2023.2.2,Linux x86_64,78.74015748,5eb3a51f58efe718f5cffdb4,65d6bb0e977760de756971f7,65d6bcaa6941bacdccd5417c,0.0418,0.0419,0,66,66,158,1,eightsix,,,,,,,,,,,,,,,,,,,,,,,,,,,,,,,,,,,,,,,,,,,,,,,,,,,,,,,,,,,,,,,,,,,,,,,,,,,,,,,,,,,,,,,,,,,,,,,,,,,,,,,,,,,,,,,,,,,,,,,,,,,,,,,,,,,,,,,,,
,,5eb3a51f58efe718f5cffdb4,2024-02-22_24h17.35.737,kallum_motion_pilot,2023.2.2,Linux x86_64,78.74015748,5eb3a51f58efe718f5cffdb4,65d6bb0e977760de756971f7,65d6bcaa6941bacdccd5417c,0.042,0.0421,0,67,67,133,1,seveneight,,,,,,,,,,,,,,,,,,,,,,,,,,,,,,,,,,,,,,,,,,,,,,,,,,,,,,,,,,,,,,,,,,,,,,,,,,,,,,,,,,,,,,,,,,,,,,,,,,,,,,,,,,,,,,,,,,,,,,,,,,,,,,,,,,,,,,,,,
,,5eb3a51f58efe718f5cffdb4,2024-02-22_24h17.35.737,kallum_motion_pilot,2023.2.2,Linux x86_64,78.74015748,5eb3a51f58efe718f5cffdb4,65d6bb0e977760de756971f7,65d6bcaa6941bacdccd5417c,0.0422,0.0423,0,68,68,47,1,fourthree,,,,,,,,,,,,,,,,,,,,,,,,,,,,,,,,,,,,,,,,,,,,,,,,,,,,,,,,,,,,,,,,,,,,,,,,,,,,,,,,,,,,,,,,,,,,,,,,,,,,,,,,,,,,,,,,,,,,,,,,,,,,,,,,,,,,,,,,,
,,5eb3a51f58efe718f5cffdb4,2024-02-22_24h17.35.737,kallum_motion_pilot,2023.2.2,Linux x86_64,78.74015748,5eb3a51f58efe718f5cffdb4,65d6bb0e977760de756971f7,65d6bcaa6941bacdccd5417c,0.0423,0.0424,0,69,69,71,1,fourthree,,,,,,,,,,,,,,,,,,,,,,,,,,,,,,,,,,,,,,,,,,,,,,,,,,,,,,,,,,,,,,,,,,,,,,,,,,,,,,,,,,,,,,,,,,,,,,,,,,,,,,,,,,,,,,,,,,,,,,,,,,,,,,,,,,,,,,,,,
,,5eb3a51f58efe718f5cffdb4,2024-02-22_24h17.35.737,kallum_motion_pilot,2023.2.2,Linux x86_64,78.74015748,5eb3a51f58efe718f5cffdb4,65d6bb0e977760de756971f7,65d6bcaa6941bacdccd5417c,0.0425,0.0426,0,70,70,92,1,sevenfive,,,,,,,,,,,,,,,,,,,,,,,,,,,,,,,,,,,,,,,,,,,,,,,,,,,,,,,,,,,,,,,,,,,,,,,,,,,,,,,,,,,,,,,,,,,,,,,,,,,,,,,,,,,,,,,,,,,,,,,,,,,,,,,,,,,,,,,,,
,,5eb3a51f58efe718f5cffdb4,2024-02-22_24h17.35.737,kallum_motion_pilot,2023.2.2,Linux x86_64,78.74015748,5eb3a51f58efe718f5cffdb4,65d6bb0e977760de756971f7,65d6bcaa6941bacdccd5417c,0.0427,0.0428,0,71,71,11,1,twofour,,,,,,,,,,,,,,,,,,,,,,,,,,,,,,,,,,,,,,,,,,,,,,,,,,,,,,,,,,,,,,,,,,,,,,,,,,,,,,,,,,,,,,,,,,,,,,,,,,,,,,,,,,,,,,,,,,,,,,,,,,,,,,,,,,,,,,,,,
,,5eb3a51f58efe718f5cffdb4,2024-02-22_24h17.35.737,kallum_motion_pilot,2023.2.2,Linux x86_64,78.74015748,5eb3a51f58efe718f5cffdb4,65d6bb0e977760de756971f7,65d6bcaa6941bacdccd5417c,0.0429,0.043,0,72,72,62,1,fourtwo,,,,,,,,,,,,,,,,,,,,,,,,,,,,,,,,,,,,,,,,,,,,,,,,,,,,,,,,,,,,,,,,,,,,,,,,,,,,,,,,,,,,,,,,,,,,,,,,,,,,,,,,,,,,,,,,,,,,,,,,,,,,,,,,,,,,,,,,,
,,5eb3a51f58efe718f5cffdb4,2024-02-22_24h17.35.737,kallum_motion_pilot,2023.2.2,Linux x86_64,78.74015748,5eb3a51f58efe718f5cffdb4,65d6bb0e977760de756971f7,65d6bcaa6941bacdccd5417c,0.0431,0.0431,0,73,73,101,1,seveneight,,,,,,,,,,,,,,,,,,,,,,,,,,,,,,,,,,,,,,,,,,,,,,,,,,,,,,,,,,,,,,,,,,,,,,,,,,,,,,,,,,,,,,,,,,,,,,,,,,,,,,,,,,,,,,,,,,,,,,,,,,,,,,,,,,,,,,,,,
,,5eb3a51f58efe718f5cffdb4,2024-02-22_24h17.35.737,kallum_motion_pilot,2023.2.2,Linux x86_64,78.74015748,5eb3a51f58efe718f5cffdb4,65d6bb0e977760de756971f7,65d6bcaa6941bacdccd5417c,0.0432,0.0433,0,74,74,104,1,fivesix,,,,,,,,,,,,,,,,,,,,,,,,,,,,,,,,,,,,,,,,,,,,,,,,,,,,,,,,,,,,,,,,,,,,,,,,,,,,,,,,,,,,,,,,,,,,,,,,,,,,,,,,,,,,,,,,,,,,,,,,,,,,,,,,,,,,,,,,,
,,5eb3a51f58efe718f5cffdb4,2024-02-22_24h17.35.737,kallum_motion_pilot,2023.2.2,Linux x86_64,78.74015748,5eb3a51f58efe718f5cffdb4,65d6bb0e977760de756971f7,65d6bcaa6941bacdccd5417c,0.0434,0.0434,0,75,75,72,1,onetwo,,,,,,,,,,,,,,,,,,,,,,,,,,,,,,,,,,,,,,,,,,,,,,,,,,,,,,,,,,,,,,,,,,,,,,,,,,,,,,,,,,,,,,,,,,,,,,,,,,,,,,,,,,,,,,,,,,,,,,,,,,,,,,,,,,,,,,,,,
,,5eb3a51f58efe718f5cffdb4,2024-02-22_24h17.35.737,kallum_motion_pilot,2023.2.2,Linux x86_64,78.74015748,5eb3a51f58efe718f5cffdb4,65d6bb0e977760de756971f7,65d6bcaa6941bacdccd5417c,0.0435,0.0436,0,76,76,160,1,fivesix,,,,,,,,,,,,,,,,,,,,,,,,,,,,,,,,,,,,,,,,,,,,,,,,,,,,,,,,,,,,,,,,,,,,,,,,,,,,,,,,,,,,,,,,,,,,,,,,,,,,,,,,,,,,,,,,,,,,,,,,,,,,,,,,,,,,,,,,,
,,5eb3a51f58efe718f5cffdb4,2024-02-22_24h17.35.737,kallum_motion_pilot,2023.2.2,Linux x86_64,78.74015748,5eb3a51f58efe718f5cffdb4,65d6bb0e977760de756971f7,65d6bcaa6941bacdccd5417c,0.0437,0.0438,0,77,77,33,1,onethree,,,,,,,,,,,,,,,,,,,,,,,,,,,,,,,,,,,,,,,,,,,,,,,,,,,,,,,,,,,,,,,,,,,,,,,,,,,,,,,,,,,,,,,,,,,,,,,,,,,,,,,,,,,,,,,,,,,,,,,,,,,,,,,,,,,,,,,,,
,,5eb3a51f58efe718f5cffdb4,2024-02-22_24h17.35.737,kallum_motion_pilot,2023.2.2,Linux x86_64,78.74015748,5eb3a51f58efe718f5cffdb4,65d6bb0e977760de756971f7,65d6bcaa6941bacdccd5417c,0.0439,0.0439,0,78,78,60,1,threeone,,,,,,,,,,,,,,,,,,,,,,,,,,,,,,,,,,,,,,,,,,,,,,,,,,,,,,,,,,,,,,,,,,,,,,,,,,,,,,,,,,,,,,,,,,,,,,,,,,,,,,,,,,,,,,,,,,,,,,,,,,,,,,,,,,,,,,,,,
,,5eb3a51f58efe718f5cffdb4,2024-02-22_24h17.35.737,kallum_motion_pilot,2023.2.2,Linux x86_64,78.74015748,5eb3a51f58efe718f5cffdb4,65d6bb0e977760de756971f7,65d6bcaa6941bacdccd5417c,0.044,0.044,0,79,79,65,1,onethree,,,,,,,,,,,,,,,,,,,,,,,,,,,,,,,,,,,,,,,,,,,,,,,,,,,,,,,,,,,,,,,,,,,,,,,,,,,,,,,,,,,,,,,,,,,,,,,,,,,,,,,,,,,,,,,,,,,,,,,,,,,,,,,,,,,,,,,,,
,,5eb3a51f58efe718f5cffdb4,2024-02-22_24h17.35.737,kallum_motion_pilot,2023.2.2,Linux x86_64,78.74015748,5eb3a51f58efe718f5cffdb4,65d6bb0e977760de756971f7,65d6bcaa6941bacdccd5417c,0.0442,0.0442,0,80,80,27,1,twofour,,,,,,,,,,,,,,,,,,,,,,,,,,,,,,,,,,,,,,,,,,,,,,,,,,,,,,,,,,,,,,,,,,,,,,,,,,,,,,,,,,,,,,,,,,,,,,,,,,,,,,,,,,,,,,,,,,,,,,,,,,,,,,,,,,,,,,,,,
,,5eb3a51f58efe718f5cffdb4,2024-02-22_24h17.35.737,kallum_motion_pilot,2023.2.2,Linux x86_64,78.74015748,5eb3a51f58efe718f5cffdb4,65d6bb0e977760de756971f7,65d6bcaa6941bacdccd5417c,0.0443,0.0444,0,81,81,59,1,twofour,,,,,,,,,,,,,,,,,,,,,,,,,,,,,,,,,,,,,,,,,,,,,,,,,,,,,,,,,,,,,,,,,,,,,,,,,,,,,,,,,,,,,,,,,,,,,,,,,,,,,,,,,,,,,,,,,,,,,,,,,,,,,,,,,,,,,,,,,
,,5eb3a51f58efe718f5cffdb4,2024-02-22_24h17.35.737,kallum_motion_pilot,2023.2.2,Linux x86_64,78.74015748,5eb3a51f58efe718f5cffdb4,65d6bb0e977760de756971f7,65d6bcaa6941bacdccd5417c,0.0446,0.0446,0,82,82,6,1,fourtwo,,,,,,,,,,,,,,,,,,,,,,,,,,,,,,,,,,,,,,,,,,,,,,,,,,,,,,,,,,,,,,,,,,,,,,,,,,,,,,,,,,,,,,,,,,,,,,,,,,,,,,,,,,,,,,,,,,,,,,,,,,,,,,,,,,,,,,,,,
,,5eb3a51f58efe718f5cffdb4,2024-02-22_24h17.35.737,kallum_motion_pilot,2023.2.2,Linux x86_64,78.74015748,5eb3a51f58efe718f5cffdb4,65d6bb0e977760de756971f7,65d6bcaa6941bacdccd5417c,0.0447,0.0447,0,83,83,20,1,threeone,,,,,,,,,,,,,,,,,,,,,,,,,,,,,,,,,,,,,,,,,,,,,,,,,,,,,,,,,,,,,,,,,,,,,,,,,,,,,,,,,,,,,,,,,,,,,,,,,,,,,,,,,,,,,,,,,,,,,,,,,,,,,,,,,,,,,,,,,
,,5eb3a51f58efe718f5cffdb4,2024-02-22_24h17.35.737,kallum_motion_pilot,2023.2.2,Linux x86_64,78.74015748,5eb3a51f58efe718f5cffdb4,65d6bb0e977760de756971f7,65d6bcaa6941bacdccd5417c,0.0448,0.0449,0,84,84,82,1,sixfive,,,,,,,,,,,,,,,,,,,,,,,,,,,,,,,,,,,,,,,,,,,,,,,,,,,,,,,,,,,,,,,,,,,,,,,,,,,,,,,,,,,,,,,,,,,,,,,,,,,,,,,,,,,,,,,,,,,,,,,,,,,,,,,,,,,,,,,,,
,,5eb3a51f58efe718f5cffdb4,2024-02-22_24h17.35.737,kallum_motion_pilot,2023.2.2,Linux x86_64,78.74015748,5eb3a51f58efe718f5cffdb4,65d6bb0e977760de756971f7,65d6bcaa6941bacdccd5417c,0.045,0.045,0,85,85,66,1,twoone,,,,,,,,,,,,,,,,,,,,,,,,,,,,,,,,,,,,,,,,,,,,,,,,,,,,,,,,,,,,,,,,,,,,,,,,,,,,,,,,,,,,,,,,,,,,,,,,,,,,,,,,,,,,,,,,,,,,,,,,,,,,,,,,,,,,,,,,,
,,5eb3a51f58efe718f5cffdb4,2024-02-22_24h17.35.737,kallum_motion_pilot,2023.2.2,Linux x86_64,78.74015748,5eb3a51f58efe718f5cffdb4,65d6bb0e977760de756971f7,65d6bcaa6941bacdccd5417c,0.0452,0.0464,0,86,86,54,1,fourtwo,,,,,,,,,,,,,,,,,,,,,,,,,,,,,,,,,,,,,,,,,,,,,,,,,,,,,,,,,,,,,,,,,,,,,,,,,,,,,,,,,,,,,,,,,,,,,,,,,,,,,,,,,,,,,,,,,,,,,,,,,,,,,,,,,,,,,,,,,
,,5eb3a51f58efe718f5cffdb4,2024-02-22_24h17.35.737,kallum_motion_pilot,2023.2.2,Linux x86_64,78.74015748,5eb3a51f58efe718f5cffdb4,65d6bb0e977760de756971f7,65d6bcaa6941bacdccd5417c,0.0466,0.0467,0,87,87,118,1,eightsix,,,,,,,,,,,,,,,,,,,,,,,,,,,,,,,,,,,,,,,,,,,,,,,,,,,,,,,,,,,,,,,,,,,,,,,,,,,,,,,,,,,,,,,,,,,,,,,,,,,,,,,,,,,,,,,,,,,,,,,,,,,,,,,,,,,,,,,,,
,,5eb3a51f58efe718f5cffdb4,2024-02-22_24h17.35.737,kallum_motion_pilot,2023.2.2,Linux x86_64,78.74015748,5eb3a51f58efe718f5cffdb4,65d6bb0e977760de756971f7,65d6bcaa6941bacdccd5417c,0.0468,0.0468,0,88,88,145,1,fiveseven,,,,,,,,,,,,,,,,,,,,,,,,,,,,,,,,,,,,,,,,,,,,,,,,,,,,,,,,,,,,,,,,,,,,,,,,,,,,,,,,,,,,,,,,,,,,,,,,,,,,,,,,,,,,,,,,,,,,,,,,,,,,,,,,,,,,,,,,,
,,5eb3a51f58efe718f5cffdb4,2024-02-22_24h17.35.737,kallum_motion_pilot,2023.2.2,Linux x86_64,78.74015748,5eb3a51f58efe718f5cffdb4,65d6bb0e977760de756971f7,65d6bcaa6941bacdccd5417c,0.0469,0.0469,0,89,89,161,1,fiveseven,,,,,,,,,,,,,,,,,,,,,,,,,,,,,,,,,,,,,,,,,,,,,,,,,,,,,,,,,,,,,,,,,,,,,,,,,,,,,,,,,,,,,,,,,,,,,,,,,,,,,,,,,,,,,,,,,,,,,,,,,,,,,,,,,,,,,,,,,
,,5eb3a51f58efe718f5cffdb4,2024-02-22_24h17.35.737,kallum_motion_pilot,2023.2.2,Linux x86_64,78.74015748,5eb3a51f58efe718f5cffdb4,65d6bb0e977760de756971f7,65d6bcaa6941bacdccd5417c,0.047,0.0471,0,90,90,90,1,sixfive,,,,,,,,,,,,,,,,,,,,,,,,,,,,,,,,,,,,,,,,,,,,,,,,,,,,,,,,,,,,,,,,,,,,,,,,,,,,,,,,,,,,,,,,,,,,,,,,,,,,,,,,,,,,,,,,,,,,,,,,,,,,,,,,,,,,,,,,,
,,5eb3a51f58efe718f5cffdb4,2024-02-22_24h17.35.737,kallum_motion_pilot,2023.2.2,Linux x86_64,78.74015748,5eb3a51f58efe718f5cffdb4,65d6bb0e977760de756971f7,65d6bcaa6941bacdccd5417c,0.0472,0.0473,0,91,91,3,1,twofour,,,,,,,,,,,,,,,,,,,,,,,,,,,,,,,,,,,,,,,,,,,,,,,,,,,,,,,,,,,,,,,,,,,,,,,,,,,,,,,,,,,,,,,,,,,,,,,,,,,,,,,,,,,,,,,,,,,,,,,,,,,,,,,,,,,,,,,,,
,,5eb3a51f58efe718f5cffdb4,2024-02-22_24h17.35.737,kallum_motion_pilot,2023.2.2,Linux x86_64,78.74015748,5eb3a51f58efe718f5cffdb4,65d6bb0e977760de756971f7,65d6bcaa6941bacdccd5417c,0.0474,0.0474,0,92,92,110,1,eightsix,,,,,,,,,,,,,,,,,,,,,,,,,,,,,,,,,,,,,,,,,,,,,,,,,,,,,,,,,,,,,,,,,,,,,,,,,,,,,,,,,,,,,,,,,,,,,,,,,,,,,,,,,,,,,,,,,,,,,,,,,,,,,,,,,,,,,,,,,
,,5eb3a51f58efe718f5cffdb4,2024-02-22_24h17.35.737,kallum_motion_pilot,2023.2.2,Linux x86_64,78.74015748,5eb3a51f58efe718f5cffdb4,65d6bb0e977760de756971f7,65d6bcaa6941bacdccd5417c,0.0475,0.0476,0,93,93,74,1,twoone,,,,,,,,,,,,,,,,,,,,,,,,,,,,,,,,,,,,,,,,,,,,,,,,,,,,,,,,,,,,,,,,,,,,,,,,,,,,,,,,,,,,,,,,,,,,,,,,,,,,,,,,,,,,,,,,,,,,,,,,,,,,,,,,,,,,,,,,,
,,5eb3a51f58efe718f5cffdb4,2024-02-22_24h17.35.737,kallum_motion_pilot,2023.2.2,Linux x86_64,78.74015748,5eb3a51f58efe718f5cffdb4,65d6bb0e977760de756971f7,65d6bcaa6941bacdccd5417c,0.0477,0.0477,0,94,94,42,1,twoone,,,,,,,,,,,,,,,,,,,,,,,,,,,,,,,,,,,,,,,,,,,,,,,,,,,,,,,,,,,,,,,,,,,,,,,,,,,,,,,,,,,,,,,,,,,,,,,,,,,,,,,,,,,,,,,,,,,,,,,,,,,,,,,,,,,,,,,,,
,,5eb3a51f58efe718f5cffdb4,2024-02-22_24h17.35.737,kallum_motion_pilot,2023.2.2,Linux x86_64,78.74015748,5eb3a51f58efe718f5cffdb4,65d6bb0e977760de756971f7,65d6bcaa6941bacdccd5417c,0.0478,0.0479,0,95,95,43,1,twofour,,,,,,,,,,,,,,,,,,,,,,,,,,,,,,,,,,,,,,,,,,,,,,,,,,,,,,,,,,,,,,,,,,,,,,,,,,,,,,,,,,,,,,,,,,,,,,,,,,,,,,,,,,,,,,,,,,,,,,,,,,,,,,,,,,,,,,,,,
,,5eb3a51f58efe718f5cffdb4,2024-02-22_24h17.35.737,kallum_motion_pilot,2023.2.2,Linux x86_64,78.74015748,5eb3a51f58efe718f5cffdb4,65d6bb0e977760de756971f7,65d6bcaa6941bacdccd5417c,0.0481,0.0481,0,96,96,28,1,threeone,,,,,,,,,,,,,,,,,,,,,,,,,,,,,,,,,,,,,,,,,,,,,,,,,,,,,,,,,,,,,,,,,,,,,,,,,,,,,,,,,,,,,,,,,,,,,,,,,,,,,,,,,,,,,,,,,,,,,,,,,,,,,,,,,,,,,,,,,
,,5eb3a51f58efe718f5cffdb4,2024-02-22_24h17.35.737,kallum_motion_pilot,2023.2.2,Linux x86_64,78.74015748,5eb3a51f58efe718f5cffdb4,65d6bb0e977760de756971f7,65d6bcaa6941bacdccd5417c,0.0481,0.0482,0,97,97,100,1,sevenfive,,,,,,,,,,,,,,,,,,,,,,,,,,,,,,,,,,,,,,,,,,,,,,,,,,,,,,,,,,,,,,,,,,,,,,,,,,,,,,,,,,,,,,,,,,,,,,,,,,,,,,,,,,,,,,,,,,,,,,,,,,,,,,,,,,,,,,,,,
,,5eb3a51f58efe718f5cffdb4,2024-02-22_24h17.35.737,kallum_motion_pilot,2023.2.2,Linux x86_64,78.74015748,5eb3a51f58efe718f5cffdb4,65d6bb0e977760de756971f7,65d6bcaa6941bacdccd5417c,0.0484,0.0484,0,98,98,39,1,fourthree,,,,,,,,,,,,,,,,,,,,,,,,,,,,,,,,,,,,,,,,,,,,,,,,,,,,,,,,,,,,,,,,,,,,,,,,,,,,,,,,,,,,,,,,,,,,,,,,,,,,,,,,,,,,,,,,,,,,,,,,,,,,,,,,,,,,,,,,,
,,5eb3a51f58efe718f5cffdb4,2024-02-22_24h17.35.737,kallum_motion_pilot,2023.2.2,Linux x86_64,78.74015748,5eb3a51f58efe718f5cffdb4,65d6bb0e977760de756971f7,65d6bcaa6941bacdccd5417c,0.0485,0.0486,0,99,99,7,1,fourthree,,,,,,,,,,,,,,,,,,,,,,,,,,,,,,,,,,,,,,,,,,,,,,,,,,,,,,,,,,,,,,,,,,,,,,,,,,,,,,,,,,,,,,,,,,,,,,,,,,,,,,,,,,,,,,,,,,,,,,,,,,,,,,,,,,,,,,,,,
,,5eb3a51f58efe718f5cffdb4,2024-02-22_24h17.35.737,kallum_motion_pilot,2023.2.2,Linux x86_64,78.74015748,5eb3a51f58efe718f5cffdb4,65d6bb0e977760de756971f7,65d6bcaa6941bacdccd5417c,0.0487,0.0487,0,100,100,75,1,twofour,,,,,,,,,,,,,,,,,,,,,,,,,,,,,,,,,,,,,,,,,,,,,,,,,,,,,,,,,,,,,,,,,,,,,,,,,,,,,,,,,,,,,,,,,,,,,,,,,,,,,,,,,,,,,,,,,,,,,,,,,,,,,,,,,,,,,,,,,
,,5eb3a51f58efe718f5cffdb4,2024-02-22_24h17.35.737,kallum_motion_pilot,2023.2.2,Linux x86_64,78.74015748,5eb3a51f58efe718f5cffdb4,65d6bb0e977760de756971f7,65d6bcaa6941bacdccd5417c,0.0489,0.0489,0,101,101,154,1,sixfive,,,,,,,,,,,,,,,,,,,,,,,,,,,,,,,,,,,,,,,,,,,,,,,,,,,,,,,,,,,,,,,,,,,,,,,,,,,,,,,,,,,,,,,,,,,,,,,,,,,,,,,,,,,,,,,,,,,,,,,,,,,,,,,,,,,,,,,,,
,,5eb3a51f58efe718f5cffdb4,2024-02-22_24h17.35.737,kallum_motion_pilot,2023.2.2,Linux x86_64,78.74015748,5eb3a51f58efe718f5cffdb4,65d6bb0e977760de756971f7,65d6bcaa6941bacdccd5417c,0.0491,0.0491,0,102,102,125,1,seveneight,,,,,,,,,,,,,,,,,,,,,,,,,,,,,,,,,,,,,,,,,,,,,,,,,,,,,,,,,,,,,,,,,,,,,,,,,,,,,,,,,,,,,,,,,,,,,,,,,,,,,,,,,,,,,,,,,,,,,,,,,,,,,,,,,,,,,,,,,
,,5eb3a51f58efe718f5cffdb4,2024-02-22_24h17.35.737,kallum_motion_pilot,2023.2.2,Linux x86_64,78.74015748,5eb3a51f58efe718f5cffdb4,65d6bb0e977760de756971f7,65d6bcaa6941bacdccd5417c,0.0492,0.0492,0,103,103,79,1,eightseven,,,,,,,,,,,,,,,,,,,,,,,,,,,,,,,,,,,,,,,,,,,,,,,,,,,,,,,,,,,,,,,,,,,,,,,,,,,,,,,,,,,,,,,,,,,,,,,,,,,,,,,,,,,,,,,,,,,,,,,,,,,,,,,,,,,,,,,,,
,,5eb3a51f58efe718f5cffdb4,2024-02-22_24h17.35.737,kallum_motion_pilot,2023.2.2,Linux x86_64,78.74015748,5eb3a51f58efe718f5cffdb4,65d6bb0e977760de756971f7,65d6bcaa6941bacdccd5417c,0.0494,0.0494,0,104,104,117,1,seveneight,,,,,,,,,,,,,,,,,,,,,,,,,,,,,,,,,,,,,,,,,,,,,,,,,,,,,,,,,,,,,,,,,,,,,,,,,,,,,,,,,,,,,,,,,,,,,,,,,,,,,,,,,,,,,,,,,,,,,,,,,,,,,,,,,,,,,,,,,
,,5eb3a51f58efe718f5cffdb4,2024-02-22_24h17.35.737,kallum_motion_pilot,2023.2.2,Linux x86_64,78.74015748,5eb3a51f58efe718f5cffdb4,65d6bb0e977760de756971f7,65d6bcaa6941bacdccd5417c,0.0495,0.0495,0,105,105,44,1,threeone,,,,,,,,,,,,,,,,,,,,,,,,,,,,,,,,,,,,,,,,,,,,,,,,,,,,,,,,,,,,,,,,,,,,,,,,,,,,,,,,,,,,,,,,,,,,,,,,,,,,,,,,,,,,,,,,,,,,,,,,,,,,,,,,,,,,,,,,,
,,5eb3a51f58efe718f5cffdb4,2024-02-22_24h17.35.737,kallum_motion_pilot,2023.2.2,Linux x86_64,78.74015748,5eb3a51f58efe718f5cffdb4,65d6bb0e977760de756971f7,65d6bcaa6941bacdccd5417c,0.0496,0.0498,0,106,106,128,1,fivesix,,,,,,,,,,,,,,,,,,,,,,,,,,,,,,,,,,,,,,,,,,,,,,,,,,,,,,,,,,,,,,,,,,,,,,,,,,,,,,,,,,,,,,,,,,,,,,,,,,,,,,,,,,,,,,,,,,,,,,,,,,,,,,,,,,,,,,,,,
,,5eb3a51f58efe718f5cffdb4,2024-02-22_24h17.35.737,kallum_motion_pilot,2023.2.2,Linux x86_64,78.74015748,5eb3a51f58efe718f5cffdb4,65d6bb0e977760de756971f7,65d6bcaa6941bacdccd5417c,0.0498,0.0499,0,107,107,130,1,sixfive,,,,,,,,,,,,,,,,,,,,,,,,,,,,,,,,,,,,,,,,,,,,,,,,,,,,,,,,,,,,,,,,,,,,,,,,,,,,,,,,,,,,,,,,,,,,,,,,,,,,,,,,,,,,,,,,,,,,,,,,,,,,,,,,,,,,,,,,,
,,5eb3a51f58efe718f5cffdb4,2024-02-22_24h17.35.737,kallum_motion_pilot,2023.2.2,Linux x86_64,78.74015748,5eb3a51f58efe718f5cffdb4,65d6bb0e977760de756971f7,65d6bcaa6941bacdccd5417c,0.05,0.0501,0,108,108,10,1,twoone,,,,,,,,,,,,,,,,,,,,,,,,,,,,,,,,,,,,,,,,,,,,,,,,,,,,,,,,,,,,,,,,,,,,,,,,,,,,,,,,,,,,,,,,,,,,,,,,,,,,,,,,,,,,,,,,,,,,,,,,,,,,,,,,,,,,,,,,,
,,5eb3a51f58efe718f5cffdb4,2024-02-22_24h17.35.737,kallum_motion_pilot,2023.2.2,Linux x86_64,78.74015748,5eb3a51f58efe718f5cffdb4,65d6bb0e977760de756971f7,65d6bcaa6941bacdccd5417c,0.0502,0.0502,0,109,109,124,1,sevenfive,,,,,,,,,,,,,,,,,,,,,,,,,,,,,,,,,,,,,,,,,,,,,,,,,,,,,,,,,,,,,,,,,,,,,,,,,,,,,,,,,,,,,,,,,,,,,,,,,,,,,,,,,,,,,,,,,,,,,,,,,,,,,,,,,,,,,,,,,
,,5eb3a51f58efe718f5cffdb4,2024-02-22_24h17.35.737,kallum_motion_pilot,2023.2.2,Linux x86_64,78.74015748,5eb3a51f58efe718f5cffdb4,65d6bb0e977760de756971f7,65d6bcaa6941bacdccd5417c,0.0503,0.0504,0,110,110,25,1,onethree,,,,,,,,,,,,,,,,,,,,,,,,,,,,,,,,,,,,,,,,,,,,,,,,,,,,,,,,,,,,,,,,,,,,,,,,,,,,,,,,,,,,,,,,,,,,,,,,,,,,,,,,,,,,,,,,,,,,,,,,,,,,,,,,,,,,,,,,,
,,5eb3a51f58efe718f5cffdb4,2024-02-22_24h17.35.737,kallum_motion_pilot,2023.2.2,Linux x86_64,78.74015748,5eb3a51f58efe718f5cffdb4,65d6bb0e977760de756971f7,65d6bcaa6941bacdccd5417c,0.0504,0.0506,0,111,111,24,1,onetwo,,,,,,,,,,,,,,,,,,,,,,,,,,,,,,,,,,,,,,,,,,,,,,,,,,,,,,,,,,,,,,,,,,,,,,,,,,,,,,,,,,,,,,,,,,,,,,,,,,,,,,,,,,,,,,,,,,,,,,,,,,,,,,,,,,,,,,,,,
,,5eb3a51f58efe718f5cffdb4,2024-02-22_24h17.35.737,kallum_motion_pilot,2023.2.2,Linux x86_64,78.74015748,5eb3a51f58efe718f5cffdb4,65d6bb0e977760de756971f7,65d6bcaa6941bacdccd5417c,0.0506,0.0506,0,112,112,30,1,fourtwo,,,,,,,,,,,,,,,,,,,,,,,,,,,,,,,,,,,,,,,,,,,,,,,,,,,,,,,,,,,,,,,,,,,,,,,,,,,,,,,,,,,,,,,,,,,,,,,,,,,,,,,,,,,,,,,,,,,,,,,,,,,,,,,,,,,,,,,,,
,,5eb3a51f58efe718f5cffdb4,2024-02-22_24h17.35.737,kallum_motion_pilot,2023.2.2,Linux x86_64,78.74015748,5eb3a51f58efe718f5cffdb4,65d6bb0e977760de756971f7,65d6bcaa6941bacdccd5417c,0.0507,0.0509,0,113,113,146,1,sixfive,,,,,,,,,,,,,,,,,,,,,,,,,,,,,,,,,,,,,,,,,,,,,,,,,,,,,,,,,,,,,,,,,,,,,,,,,,,,,,,,,,,,,,,,,,,,,,,,,,,,,,,,,,,,,,,,,,,,,,,,,,,,,,,,,,,,,,,,,
,,5eb3a51f58efe718f5cffdb4,2024-02-22_24h17.35.737,kallum_motion_pilot,2023.2.2,Linux x86_64,78.74015748,5eb3a51f58efe718f5cffdb4,65d6bb0e977760de756971f7,65d6bcaa6941bacdccd5417c,0.051,0.051,0,114,114,70,1,fourtwo,,,,,,,,,,,,,,,,,,,,,,,,,,,,,,,,,,,,,,,,,,,,,,,,,,,,,,,,,,,,,,,,,,,,,,,,,,,,,,,,,,,,,,,,,,,,,,,,,,,,,,,,,,,,,,,,,,,,,,,,,,,,,,,,,,,,,,,,,
,,5eb3a51f58efe718f5cffdb4,2024-02-22_24h17.35.737,kallum_motion_pilot,2023.2.2,Linux x86_64,78.74015748,5eb3a51f58efe718f5cffdb4,65d6bb0e977760de756971f7,65d6bcaa6941bacdccd5417c,0.0511,0.0512,0,115,115,89,1,fiveseven,,,,,,,,,,,,,,,,,,,,,,,,,,,,,,,,,,,,,,,,,,,,,,,,,,,,,,,,,,,,,,,,,,,,,,,,,,,,,,,,,,,,,,,,,,,,,,,,,,,,,,,,,,,,,,,,,,,,,,,,,,,,,,,,,,,,,,,,,
,,5eb3a51f58efe718f5cffdb4,2024-02-22_24h17.35.737,kallum_motion_pilot,2023.2.2,Linux x86_64,78.74015748,5eb3a51f58efe718f5cffdb4,65d6bb0e977760de756971f7,65d6bcaa6941bacdccd5417c,0.0512,0.0513,0,116,116,36,1,threeone,,,,,,,,,,,,,,,,,,,,,,,,,,,,,,,,,,,,,,,,,,,,,,,,,,,,,,,,,,,,,,,,,,,,,,,,,,,,,,,,,,,,,,,,,,,,,,,,,,,,,,,,,,,,,,,,,,,,,,,,,,,,,,,,,,,,,,,,,
,,5eb3a51f58efe718f5cffdb4,2024-02-22_24h17.35.737,kallum_motion_pilot,2023.2.2,Linux x86_64,78.74015748,5eb3a51f58efe718f5cffdb4,65d6bb0e977760de756971f7,65d6bcaa6941bacdccd5417c,0.0514,0.0515,0,117,117,137,1,fiveseven,,,,,,,,,,,,,,,,,,,,,,,,,,,,,,,,,,,,,,,,,,,,,,,,,,,,,,,,,,,,,,,,,,,,,,,,,,,,,,,,,,,,,,,,,,,,,,,,,,,,,,,,,,,,,,,,,,,,,,,,,,,,,,,,,,,,,,,,,
,,5eb3a51f58efe718f5cffdb4,2024-02-22_24h17.35.737,kallum_motion_pilot,2023.2.2,Linux x86_64,78.74015748,5eb3a51f58efe718f5cffdb4,65d6bb0e977760de756971f7,65d6bcaa6941bacdccd5417c,0.0516,0.0516,0,118,118,5,1,threefour,,,,,,,,,,,,,,,,,,,,,,,,,,,,,,,,,,,,,,,,,,,,,,,,,,,,,,,,,,,,,,,,,,,,,,,,,,,,,,,,,,,,,,,,,,,,,,,,,,,,,,,,,,,,,,,,,,,,,,,,,,,,,,,,,,,,,,,,,
,,5eb3a51f58efe718f5cffdb4,2024-02-22_24h17.35.737,kallum_motion_pilot,2023.2.2,Linux x86_64,78.74015748,5eb3a51f58efe718f5cffdb4,65d6bb0e977760de756971f7,65d6bcaa6941bacdccd5417c,0.0517,0.0518,0,119,119,55,1,fourthree,,,,,,,,,,,,,,,,,,,,,,,,,,,,,,,,,,,,,,,,,,,,,,,,,,,,,,,,,,,,,,,,,,,,,,,,,,,,,,,,,,,,,,,,,,,,,,,,,,,,,,,,,,,,,,,,,,,,,,,,,,,,,,,,,,,,,,,,,
,,5eb3a51f58efe718f5cffdb4,2024-02-22_24h17.35.737,kallum_motion_pilot,2023.2.2,Linux x86_64,78.74015748,5eb3a51f58efe718f5cffdb4,65d6bb0e977760de756971f7,65d6bcaa6941bacdccd5417c,0.0518,0.052,0,120,120,119,1,eightseven,,,,,,,,,,,,,,,,,,,,,,,,,,,,,,,,,,,,,,,,,,,,,,,,,,,,,,,,,,,,,,,,,,,,,,,,,,,,,,,,,,,,,,,,,,,,,,,,,,,,,,,,,,,,,,,,,,,,,,,,,,,,,,,,,,,,,,,,,
,,5eb3a51f58efe718f5cffdb4,2024-02-22_24h17.35.737,kallum_motion_pilot,2023.2.2,Linux x86_64,78.74015748,5eb3a51f58efe718f5cffdb4,65d6bb0e977760de756971f7,65d6bcaa6941bacdccd5417c,0.052,0.0521,0,121,121,23,1,fourthree,,,,,,,,,,,,,,,,,,,,,,,,,,,,,,,,,,,,,,,,,,,,,,,,,,,,,,,,,,,,,,,,,,,,,,,,,,,,,,,,,,,,,,,,,,,,,,,,,,,,,,,,,,,,,,,,,,,,,,,,,,,,,,,,,,,,,,,,,
,,5eb3a51f58efe718f5cffdb4,2024-02-22_24h17.35.737,kallum_motion_pilot,2023.2.2,Linux x86_64,78.74015748,5eb3a51f58efe718f5cffdb4,65d6bb0e977760de756971f7,65d6bcaa6941bacdccd5417c,0.0523,0.0523,0,122,122,127,1,eightseven,,,,,,,,,,,,,,,,,,,,,,,,,,,,,,,,,,,,,,,,,,,,,,,,,,,,,,,,,,,,,,,,,,,,,,,,,,,,,,,,,,,,,,,,,,,,,,,,,,,,,,,,,,,,,,,,,,,,,,,,,,,,,,,,,,,,,,,,,
,,5eb3a51f58efe718f5cffdb4,2024-02-22_24h17.35.737,kallum_motion_pilot,2023.2.2,Linux x86_64,78.74015748,5eb3a51f58efe718f5cffdb4,65d6bb0e977760de756971f7,65d6bcaa6941bacdccd5417c,0.0524,0.0524,0,123,123,78,1,fourtwo,,,,,,,,,,,,,,,,,,,,,,,,,,,,,,,,,,,,,,,,,,,,,,,,,,,,,,,,,,,,,,,,,,,,,,,,,,,,,,,,,,,,,,,,,,,,,,,,,,,,,,,,,,,,,,,,,,,,,,,,,,,,,,,,,,,,,,,,,
,,5eb3a51f58efe718f5cffdb4,2024-02-22_24h17.35.737,kallum_motion_pilot,2023.2.2,Linux x86_64,78.74015748,5eb3a51f58efe718f5cffdb4,65d6bb0e977760de756971f7,65d6bcaa6941bacdccd5417c,0.0526,0.0527,0,124,124,140,1,sevenfive,,,,,,,,,,,,,,,,,,,,,,,,,,,,,,,,,,,,,,,,,,,,,,,,,,,,,,,,,,,,,,,,,,,,,,,,,,,,,,,,,,,,,,,,,,,,,,,,,,,,,,,,,,,,,,,,,,,,,,,,,,,,,,,,,,,,,,,,,
,,5eb3a51f58efe718f5cffdb4,2024-02-22_24h17.35.737,kallum_motion_pilot,2023.2.2,Linux x86_64,78.74015748,5eb3a51f58efe718f5cffdb4,65d6bb0e977760de756971f7,65d6bcaa6941bacdccd5417c,0.0529,0.053,0,125,125,121,1,fiveseven,,,,,,,,,,,,,,,,,,,,,,,,,,,,,,,,,,,,,,,,,,,,,,,,,,,,,,,,,,,,,,,,,,,,,,,,,,,,,,,,,,,,,,,,,,,,,,,,,,,,,,,,,,,,,,,,,,,,,,,,,,,,,,,,,,,,,,,,,
,,5eb3a51f58efe718f5cffdb4,2024-02-22_24h17.35.737,kallum_motion_pilot,2023.2.2,Linux x86_64,78.74015748,5eb3a51f58efe718f5cffdb4,65d6bb0e977760de756971f7,65d6bcaa6941bacdccd5417c,0.0531,0.0532,0,126,126,93,1,seveneight,,,,,,,,,,,,,,,,,,,,,,,,,,,,,,,,,,,,,,,,,,,,,,,,,,,,,,,,,,,,,,,,,,,,,,,,,,,,,,,,,,,,,,,,,,,,,,,,,,,,,,,,,,,,,,,,,,,,,,,,,,,,,,,,,,,,,,,,,
,,5eb3a51f58efe718f5cffdb4,2024-02-22_24h17.35.737,kallum_motion_pilot,2023.2.2,Linux x86_64,78.74015748,5eb3a51f58efe718f5cffdb4,65d6bb0e977760de756971f7,65d6bcaa6941bacdccd5417c,0.0533,0.0534,0,127,127,73,1,onethree,,,,,,,,,,,,,,,,,,,,,,,,,,,,,,,,,,,,,,,,,,,,,,,,,,,,,,,,,,,,,,,,,,,,,,,,,,,,,,,,,,,,,,,,,,,,,,,,,,,,,,,,,,,,,,,,,,,,,,,,,,,,,,,,,,,,,,,,,
,,5eb3a51f58efe718f5cffdb4,2024-02-22_24h17.35.737,kallum_motion_pilot,2023.2.2,Linux x86_64,78.74015748,5eb3a51f58efe718f5cffdb4,65d6bb0e977760de756971f7,65d6bcaa6941bacdccd5417c,0.0535,0.0536,0,128,128,108,1,sevenfive,,,,,,,,,,,,,,,,,,,,,,,,,,,,,,,,,,,,,,,,,,,,,,,,,,,,,,,,,,,,,,,,,,,,,,,,,,,,,,,,,,,,,,,,,,,,,,,,,,,,,,,,,,,,,,,,,,,,,,,,,,,,,,,,,,,,,,,,,
,,5eb3a51f58efe718f5cffdb4,2024-02-22_24h17.35.737,kallum_motion_pilot,2023.2.2,Linux x86_64,78.74015748,5eb3a51f58efe718f5cffdb4,65d6bb0e977760de756971f7,65d6bcaa6941bacdccd5417c,0.0537,0.0537,0,129,129,37,1,threefour,,,,,,,,,,,,,,,,,,,,,,,,,,,,,,,,,,,,,,,,,,,,,,,,,,,,,,,,,,,,,,,,,,,,,,,,,,,,,,,,,,,,,,,,,,,,,,,,,,,,,,,,,,,,,,,,,,,,,,,,,,,,,,,,,,,,,,,,,
,,5eb3a51f58efe718f5cffdb4,2024-02-22_24h17.35.737,kallum_motion_pilot,2023.2.2,Linux x86_64,78.74015748,5eb3a51f58efe718f5cffdb4,65d6bb0e977760de756971f7,65d6bcaa6941bacdccd5417c,0.0539,0.0541,0,130,130,112,1,fivesix,,,,,,,,,,,,,,,,,,,,,,,,,,,,,,,,,,,,,,,,,,,,,,,,,,,,,,,,,,,,,,,,,,,,,,,,,,,,,,,,,,,,,,,,,,,,,,,,,,,,,,,,,,,,,,,,,,,,,,,,,,,,,,,,,,,,,,,,,
,,5eb3a51f58efe718f5cffdb4,2024-02-22_24h17.35.737,kallum_motion_pilot,2023.2.2,Linux x86_64,78.74015748,5eb3a51f58efe718f5cffdb4,65d6bb0e977760de756971f7,65d6bcaa6941bacdccd5417c,0.0542,0.0542,0,131,131,50,1,twoone,,,,,,,,,,,,,,,,,,,,,,,,,,,,,,,,,,,,,,,,,,,,,,,,,,,,,,,,,,,,,,,,,,,,,,,,,,,,,,,,,,,,,,,,,,,,,,,,,,,,,,,,,,,,,,,,,,,,,,,,,,,,,,,,,,,,,,,,,
,,5eb3a51f58efe718f5cffdb4,2024-02-22_24h17.35.737,kallum_motion_pilot,2023.2.2,Linux x86_64,78.74015748,5eb3a51f58efe718f5cffdb4,65d6bb0e977760de756971f7,65d6bcaa6941bacdccd5417c,0.0544,0.0544,0,132,132,19,1,twofour,,,,,,,,,,,,,,,,,,,,,,,,,,,,,,,,,,,,,,,,,,,,,,,,,,,,,,,,,,,,,,,,,,,,,,,,,,,,,,,,,,,,,,,,,,,,,,,,,,,,,,,,,,,,,,,,,,,,,,,,,,,,,,,,,,,,,,,,,
,,5eb3a51f58efe718f5cffdb4,2024-02-22_24h17.35.737,kallum_motion_pilot,2023.2.2,Linux x86_64,78.74015748,5eb3a51f58efe718f5cffdb4,65d6bb0e977760de756971f7,65d6bcaa6941bacdccd5417c,0.0545,0.0546,0,133,133,85,1,seveneight,,,,,,,,,,,,,,,,,,,,,,,,,,,,,,,,,,,,,,,,,,,,,,,,,,,,,,,,,,,,,,,,,,,,,,,,,,,,,,,,,,,,,,,,,,,,,,,,,,,,,,,,,,,,,,,,,,,,,,,,,,,,,,,,,,,,,,,,,
,,5eb3a51f58efe718f5cffdb4,2024-02-22_24h17.35.737,kallum_motion_pilot,2023.2.2,Linux x86_64,78.74015748,5eb3a51f58efe718f5cffdb4,65d6bb0e977760de756971f7,65d6bcaa6941bacdccd5417c,0.0546,0.0547,0,134,134,77,1,threefour,,,,,,,,,,,,,,,,,,,,,,,,,,,,,,,,,,,,,,,,,,,,,,,,,,,,,,,,,,,,,,,,,,,,,,,,,,,,,,,,,,,,,,,,,,,,,,,,,,,,,,,,,,,,,,,,,,,,,,,,,,,,,,,,,,,,,,,,,
,,5eb3a51f58efe718f5cffdb4,2024-02-22_24h17.35.737,kallum_motion_pilot,2023.2.2,Linux x86_64,78.74015748,5eb3a51f58efe718f5cffdb4,65d6bb0e977760de756971f7,65d6bcaa6941bacdccd5417c,0.0548,0.0549,0,135,135,151,1,eightseven,,,,,,,,,,,,,,,,,,,,,,,,,,,,,,,,,,,,,,,,,,,,,,,,,,,,,,,,,,,,,,,,,,,,,,,,,,,,,,,,,,,,,,,,,,,,,,,,,,,,,,,,,,,,,,,,,,,,,,,,,,,,,,,,,,,,,,,,,
,,5eb3a51f58efe718f5cffdb4,2024-02-22_24h17.35.737,kallum_motion_pilot,2023.2.2,Linux x86_64,78.74015748,5eb3a51f58efe718f5cffdb4,65d6bb0e977760de756971f7,65d6bcaa6941bacdccd5417c,0.055,0.0551,0,136,136,134,1,eightsix,,,,,,,,,,,,,,,,,,,,,,,,,,,,,,,,,,,,,,,,,,,,,,,,,,,,,,,,,,,,,,,,,,,,,,,,,,,,,,,,,,,,,,,,,,,,,,,,,,,,,,,,,,,,,,,,,,,,,,,,,,,,,,,,,,,,,,,,,
,,5eb3a51f58efe718f5cffdb4,2024-02-22_24h17.35.737,kallum_motion_pilot,2023.2.2,Linux x86_64,78.74015748,5eb3a51f58efe718f5cffdb4,65d6bb0e977760de756971f7,65d6bcaa6941bacdccd5417c,0.0552,0.0553,0,137,137,13,1,threefour,,,,,,,,,,,,,,,,,,,,,,,,,,,,,,,,,,,,,,,,,,,,,,,,,,,,,,,,,,,,,,,,,,,,,,,,,,,,,,,,,,,,,,,,,,,,,,,,,,,,,,,,,,,,,,,,,,,,,,,,,,,,,,,,,,,,,,,,,
,,5eb3a51f58efe718f5cffdb4,2024-02-22_24h17.35.737,kallum_motion_pilot,2023.2.2,Linux x86_64,78.74015748,5eb3a51f58efe718f5cffdb4,65d6bb0e977760de756971f7,65d6bcaa6941bacdccd5417c,0.0553,0.0555,0,138,138,16,1,onetwo,,,,,,,,,,,,,,,,,,,,,,,,,,,,,,,,,,,,,,,,,,,,,,,,,,,,,,,,,,,,,,,,,,,,,,,,,,,,,,,,,,,,,,,,,,,,,,,,,,,,,,,,,,,,,,,,,,,,,,,,,,,,,,,,,,,,,,,,,
,,5eb3a51f58efe718f5cffdb4,2024-02-22_24h17.35.737,kallum_motion_pilot,2023.2.2,Linux x86_64,78.74015748,5eb3a51f58efe718f5cffdb4,65d6bb0e977760de756971f7,65d6bcaa6941bacdccd5417c,0.0555,0.0556,0,139,139,67,1,twofour,,,,,,,,,,,,,,,,,,,,,,,,,,,,,,,,,,,,,,,,,,,,,,,,,,,,,,,,,,,,,,,,,,,,,,,,,,,,,,,,,,,,,,,,,,,,,,,,,,,,,,,,,,,,,,,,,,,,,,,,,,,,,,,,,,,,,,,,,
,,5eb3a51f58efe718f5cffdb4,2024-02-22_24h17.35.737,kallum_motion_pilot,2023.2.2,Linux x86_64,78.74015748,5eb3a51f58efe718f5cffdb4,65d6bb0e977760de756971f7,65d6bcaa6941bacdccd5417c,0.0557,0.0558,0,140,140,120,1,fivesix,,,,,,,,,,,,,,,,,,,,,,,,,,,,,,,,,,,,,,,,,,,,,,,,,,,,,,,,,,,,,,,,,,,,,,,,,,,,,,,,,,,,,,,,,,,,,,,,,,,,,,,,,,,,,,,,,,,,,,,,,,,,,,,,,,,,,,,,,
,,5eb3a51f58efe718f5cffdb4,2024-02-22_24h17.35.737,kallum_motion_pilot,2023.2.2,Linux x86_64,78.74015748,5eb3a51f58efe718f5cffdb4,65d6bb0e977760de756971f7,65d6bcaa6941bacdccd5417c,0.0559,0.0559,0,141,141,49,1,onethree,,,,,,,,,,,,,,,,,,,,,,,,,,,,,,,,,,,,,,,,,,,,,,,,,,,,,,,,,,,,,,,,,,,,,,,,,,,,,,,,,,,,,,,,,,,,,,,,,,,,,,,,,,,,,,,,,,,,,,,,,,,,,,,,,,,,,,,,,
,,5eb3a51f58efe718f5cffdb4,2024-02-22_24h17.35.737,kallum_motion_pilot,2023.2.2,Linux x86_64,78.74015748,5eb3a51f58efe718f5cffdb4,65d6bb0e977760de756971f7,65d6bcaa6941bacdccd5417c,0.0561,0.0561,0,142,142,122,1,sixfive,,,,,,,,,,,,,,,,,,,,,,,,,,,,,,,,,,,,,,,,,,,,,,,,,,,,,,,,,,,,,,,,,,,,,,,,,,,,,,,,,,,,,,,,,,,,,,,,,,,,,,,,,,,,,,,,,,,,,,,,,,,,,,,,,,,,,,,,,
,,5eb3a51f58efe718f5cffdb4,2024-02-22_24h17.35.737,kallum_motion_pilot,2023.2.2,Linux x86_64,78.74015748,5eb3a51f58efe718f5cffdb4,65d6bb0e977760de756971f7,65d6bcaa6941bacdccd5417c,0.0562,0.0564,0,143,143,29,1,threefour,,,,,,,,,,,,,,,,,,,,,,,,,,,,,,,,,,,,,,,,,,,,,,,,,,,,,,,,,,,,,,,,,,,,,,,,,,,,,,,,,,,,,,,,,,,,,,,,,,,,,,,,,,,,,,,,,,,,,,,,,,,,,,,,,,,,,,,,,
,,5eb3a51f58efe718f5cffdb4,2024-02-22_24h17.35.737,kallum_motion_pilot,2023.2.2,Linux x86_64,78.74015748,5eb3a51f58efe718f5cffdb4,65d6bb0e977760de756971f7,65d6bcaa6941bacdccd5417c,0.0564,0.0566,0,144,144,87,1,eightseven,,,,,,,,,,,,,,,,,,,,,,,,,,,,,,,,,,,,,,,,,,,,,,,,,,,,,,,,,,,,,,,,,,,,,,,,,,,,,,,,,,,,,,,,,,,,,,,,,,,,,,,,,,,,,,,,,,,,,,,,,,,,,,,,,,,,,,,,,
,,5eb3a51f58efe718f5cffdb4,2024-02-22_24h17.35.737,kallum_motion_pilot,2023.2.2,Linux x86_64,78.74015748,5eb3a51f58efe718f5cffdb4,65d6bb0e977760de756971f7,65d6bcaa6941bacdccd5417c,0.0567,0.0568,0,145,145,40,1,onetwo,,,,,,,,,,,,,,,,,,,,,,,,,,,,,,,,,,,,,,,,,,,,,,,,,,,,,,,,,,,,,,,,,,,,,,,,,,,,,,,,,,,,,,,,,,,,,,,,,,,,,,,,,,,,,,,,,,,,,,,,,,,,,,,,,,,,,,,,,
,,5eb3a51f58efe718f5cffdb4,2024-02-22_24h17.35.737,kallum_motion_pilot,2023.2.2,Linux x86_64,78.74015748,5eb3a51f58efe718f5cffdb4,65d6bb0e977760de756971f7,65d6bcaa6941bacdccd5417c,0.0569,0.0569,0,146,146,32,1,onetwo,,,,,,,,,,,,,,,,,,,,,,,,,,,,,,,,,,,,,,,,,,,,,,,,,,,,,,,,,,,,,,,,,,,,,,,,,,,,,,,,,,,,,,,,,,,,,,,,,,,,,,,,,,,,,,,,,,,,,,,,,,,,,,,,,,,,,,,,,
,,5eb3a51f58efe718f5cffdb4,2024-02-22_24h17.35.737,kallum_motion_pilot,2023.2.2,Linux x86_64,78.74015748,5eb3a51f58efe718f5cffdb4,65d6bb0e977760de756971f7,65d6bcaa6941bacdccd5417c,0.0571,0.0572,0,147,147,35,1,twofour,,,,,,,,,,,,,,,,,,,,,,,,,,,,,,,,,,,,,,,,,,,,,,,,,,,,,,,,,,,,,,,,,,,,,,,,,,,,,,,,,,,,,,,,,,,,,,,,,,,,,,,,,,,,,,,,,,,,,,,,,,,,,,,,,,,,,,,,,
,,5eb3a51f58efe718f5cffdb4,2024-02-22_24h17.35.737,kallum_motion_pilot,2023.2.2,Linux x86_64,78.74015748,5eb3a51f58efe718f5cffdb4,65d6bb0e977760de756971f7,65d6bcaa6941bacdccd5417c,0.0573,0.0574,0,148,148,12,1,threeone,,,,,,,,,,,,,,,,,,,,,,,,,,,,,,,,,,,,,,,,,,,,,,,,,,,,,,,,,,,,,,,,,,,,,,,,,,,,,,,,,,,,,,,,,,,,,,,,,,,,,,,,,,,,,,,,,,,,,,,,,,,,,,,,,,,,,,,,,
,,5eb3a51f58efe718f5cffdb4,2024-02-22_24h17.35.737,kallum_motion_pilot,2023.2.2,Linux x86_64,78.74015748,5eb3a51f58efe718f5cffdb4,65d6bb0e977760de756971f7,65d6bcaa6941bacdccd5417c,0.0575,0.0576,0,149,149,8,1,onetwo,,,,,,,,,,,,,,,,,,,,,,,,,,,,,,,,,,,,,,,,,,,,,,,,,,,,,,,,,,,,,,,,,,,,,,,,,,,,,,,,,,,,,,,,,,,,,,,,,,,,,,,,,,,,,,,,,,,,,,,,,,,,,,,,,,,,,,,,,
,,5eb3a51f58efe718f5cffdb4,2024-02-22_24h17.35.737,kallum_motion_pilot,2023.2.2,Linux x86_64,78.74015748,5eb3a51f58efe718f5cffdb4,65d6bb0e977760de756971f7,65d6bcaa6941bacdccd5417c,0.0577,0.0577,0,150,150,150,1,eightsix,,,,,,,,,,,,,,,,,,,,,,,,,,,,,,,,,,,,,,,,,,,,,,,,,,,,,,,,,,,,,,,,,,,,,,,,,,,,,,,,,,,,,,,,,,,,,,,,,,,,,,,,,,,,,,,,,,,,,,,,,,,,,,,,,,,,,,,,,
,,5eb3a51f58efe718f5cffdb4,2024-02-22_24h17.35.737,kallum_motion_pilot,2023.2.2,Linux x86_64,78.74015748,5eb3a51f58efe718f5cffdb4,65d6bb0e977760de756971f7,65d6bcaa6941bacdccd5417c,0.0579,0.058,0,151,151,68,1,threeone,,,,,,,,,,,,,,,,,,,,,,,,,,,,,,,,,,,,,,,,,,,,,,,,,,,,,,,,,,,,,,,,,,,,,,,,,,,,,,,,,,,,,,,,,,,,,,,,,,,,,,,,,,,,,,,,,,,,,,,,,,,,,,,,,,,,,,,,,
,,5eb3a51f58efe718f5cffdb4,2024-02-22_24h17.35.737,kallum_motion_pilot,2023.2.2,Linux x86_64,78.74015748,5eb3a51f58efe718f5cffdb4,65d6bb0e977760de756971f7,65d6bcaa6941bacdccd5417c,0.058,0.0581,0,152,152,139,1,sixeight,,,,,,,,,,,,,,,,,,,,,,,,,,,,,,,,,,,,,,,,,,,,,,,,,,,,,,,,,,,,,,,,,,,,,,,,,,,,,,,,,,,,,,,,,,,,,,,,,,,,,,,,,,,,,,,,,,,,,,,,,,,,,,,,,,,,,,,,,
,,5eb3a51f58efe718f5cffdb4,2024-02-22_24h17.35.737,kallum_motion_pilot,2023.2.2,Linux x86_64,78.74015748,5eb3a51f58efe718f5cffdb4,65d6bb0e977760de756971f7,65d6bcaa6941bacdccd5417c,0.0582,0.0583,0,153,153,113,1,fiveseven,,,,,,,,,,,,,,,,,,,,,,,,,,,,,,,,,,,,,,,,,,,,,,,,,,,,,,,,,,,,,,,,,,,,,,,,,,,,,,,,,,,,,,,,,,,,,,,,,,,,,,,,,,,,,,,,,,,,,,,,,,,,,,,,,,,,,,,,,
,,5eb3a51f58efe718f5cffdb4,2024-02-22_24h17.35.737,kallum_motion_pilot,2023.2.2,Linux x86_64,78.74015748,5eb3a51f58efe718f5cffdb4,65d6bb0e977760de756971f7,65d6bcaa6941bacdccd5417c,0.0584,0.0585,0,154,154,153,1,fiveseven,,,,,,,,,,,,,,,,,,,,,,,,,,,,,,,,,,,,,,,,,,,,,,,,,,,,,,,,,,,,,,,,,,,,,,,,,,,,,,,,,,,,,,,,,,,,,,,,,,,,,,,,,,,,,,,,,,,,,,,,,,,,,,,,,,,,,,,,,
,,5eb3a51f58efe718f5cffdb4,2024-02-22_24h17.35.737,kallum_motion_pilot,2023.2.2,Linux x86_64,78.74015748,5eb3a51f58efe718f5cffdb4,65d6bb0e977760de756971f7,65d6bcaa6941bacdccd5417c,0.0586,0.0586,0,155,155,38,1,fourtwo,,,,,,,,,,,,,,,,,,,,,,,,,,,,,,,,,,,,,,,,,,,,,,,,,,,,,,,,,,,,,,,,,,,,,,,,,,,,,,,,,,,,,,,,,,,,,,,,,,,,,,,,,,,,,,,,,,,,,,,,,,,,,,,,,,,,,,,,,
,,5eb3a51f58efe718f5cffdb4,2024-02-22_24h17.35.737,kallum_motion_pilot,2023.2.2,Linux x86_64,78.74015748,5eb3a51f58efe718f5cffdb4,65d6bb0e977760de756971f7,65d6bcaa6941bacdccd5417c,0.0588,0.0588,0,156,156,18,1,twoone,,,,,,,,,,,,,,,,,,,,,,,,,,,,,,,,,,,,,,,,,,,,,,,,,,,,,,,,,,,,,,,,,,,,,,,,,,,,,,,,,,,,,,,,,,,,,,,,,,,,,,,,,,,,,,,,,,,,,,,,,,,,,,,,,,,,,,,,,
,,5eb3a51f58efe718f5cffdb4,2024-02-22_24h17.35.737,kallum_motion_pilot,2023.2.2,Linux x86_64,78.74015748,5eb3a51f58efe718f5cffdb4,65d6bb0e977760de756971f7,65d6bcaa6941bacdccd5417c,0.0589,0.059,0,157,157,138,1,sixfive,,,,,,,,,,,,,,,,,,,,,,,,,,,,,,,,,,,,,,,,,,,,,,,,,,,,,,,,,,,,,,,,,,,,,,,,,,,,,,,,,,,,,,,,,,,,,,,,,,,,,,,,,,,,,,,,,,,,,,,,,,,,,,,,,,,,,,,,,
,,5eb3a51f58efe718f5cffdb4,2024-02-22_24h17.35.737,kallum_motion_pilot,2023.2.2,Linux x86_64,78.74015748,5eb3a51f58efe718f5cffdb4,65d6bb0e977760de756971f7,65d6bcaa6941bacdccd5417c,0.0591,0.0592,0,158,158,115,1,sixeight,,,,,,,,,,,,,,,,,,,,,,,,,,,,,,,,,,,,,,,,,,,,,,,,,,,,,,,,,,,,,,,,,,,,,,,,,,,,,,,,,,,,,,,,,,,,,,,,,,,,,,,,,,,,,,,,,,,,,,,,,,,,,,,,,,,,,,,,,
,,5eb3a51f58efe718f5cffdb4,2024-02-22_24h17.35.737,kallum_motion_pilot,2023.2.2,Linux x86_64,78.74015748,5eb3a51f58efe718f5cffdb4,65d6bb0e977760de756971f7,65d6bcaa6941bacdccd5417c,0.0593,0.0594,0,159,159,22,1,fourtwo,,,,,,,,,,,,,,,,,,,,,,,,,,,,,,,,,,,,,,,,,,,,,,,,,,,,,,,,,,,,,,,,,,,,,,,,,,,,,,,,,,,,,,,,,,,,,,,,,,,,,,,,,,,,,,,,,,,,,,,,,,,,,,,,,,,,,,,,,
,,5eb3a51f58efe718f5cffdb4,2024-02-22_24h17.35.737,kallum_motion_pilot,2023.2.2,Linux x86_64,78.74015748,5eb3a51f58efe718f5cffdb4,65d6bb0e977760de756971f7,65d6bcaa6941bacdccd5417c,0.0595,0.0595,0,160,160,143,1,eightseven,,,,,,,,,,,,,,,,,,,,,,,,,,,,,,,,,,,,,,,,,,,,,,,,,,,,,,,,,,,,,,,,,,,,,,,,,,,,,,,,,,,,,,,,,,,,,,,,,,,,,,,,,,,,,,,,,,,,,,,,,,,,,,,,,,,,,,,,,
,,5eb3a51f58efe718f5cffdb4,2024-02-22_24h17.35.737,kallum_motion_pilot,2023.2.2,Linux x86_64,78.74015748,5eb3a51f58efe718f5cffdb4,65d6bb0e977760de756971f7,65d6bcaa6941bacdccd5417c,0.0596,0.0597,0,161,161,148,1,sevenfive,,,,,,,,,,,,,,,,,,,,,,,,,,,,,,,,,,,,,,,,,,,,,,,,,,,,,,,,,,,,,,,,,,,,,,,,,,,,,,,,,,,,,,,,,,,,,,,,,,,,,,,,,,,,,,,,,,,,,,,,,,,,,,,,,,,,,,,,,
,,5eb3a51f58efe718f5cffdb4,2024-02-22_24h17.35.737,kallum_motion_pilot,2023.2.2,Linux x86_64,78.74015748,5eb3a51f58efe718f5cffdb4,65d6bb0e977760de756971f7,65d6bcaa6941bacdccd5417c,0.0598,0.0599,1,0,162,90,1,sixfive,,,,,,,,,,,,,,,,,,,,,,,,,,,,,,,,,,,,,,,,,,,,,,,,,,,,,,,,,,,,,,,,,,,,,,,,,,,,,,,,,,,,,,,,,,,,,,,,,,,,,,,,,,,,,,,,,,,,,,,,,,,,,,,,,,,,,,,,,
,,5eb3a51f58efe718f5cffdb4,2024-02-22_24h17.35.737,kallum_motion_pilot,2023.2.2,Linux x86_64,78.74015748,5eb3a51f58efe718f5cffdb4,65d6bb0e977760de756971f7,65d6bcaa6941bacdccd5417c,0.0601,0.0601,1,1,163,51,1,twofour,,,,,,,,,,,,,,,,,,,,,,,,,,,,,,,,,,,,,,,,,,,,,,,,,,,,,,,,,,,,,,,,,,,,,,,,,,,,,,,,,,,,,,,,,,,,,,,,,,,,,,,,,,,,,,,,,,,,,,,,,,,,,,,,,,,,,,,,,
,,5eb3a51f58efe718f5cffdb4,2024-02-22_24h17.35.737,kallum_motion_pilot,2023.2.2,Linux x86_64,78.74015748,5eb3a51f58efe718f5cffdb4,65d6bb0e977760de756971f7,65d6bcaa6941bacdccd5417c,0.0602,0.0603,1,2,164,57,1,onethree,,,,,,,,,,,,,,,,,,,,,,,,,,,,,,,,,,,,,,,,,,,,,,,,,,,,,,,,,,,,,,,,,,,,,,,,,,,,,,,,,,,,,,,,,,,,,,,,,,,,,,,,,,,,,,,,,,,,,,,,,,,,,,,,,,,,,,,,,
,,5eb3a51f58efe718f5cffdb4,2024-02-22_24h17.35.737,kallum_motion_pilot,2023.2.2,Linux x86_64,78.74015748,5eb3a51f58efe718f5cffdb4,65d6bb0e977760de756971f7,65d6bcaa6941bacdccd5417c,0.0604,0.0604,1,3,165,80,1,fivesix,,,,,,,,,,,,,,,,,,,,,,,,,,,,,,,,,,,,,,,,,,,,,,,,,,,,,,,,,,,,,,,,,,,,,,,,,,,,,,,,,,,,,,,,,,,,,,,,,,,,,,,,,,,,,,,,,,,,,,,,,,,,,,,,,,,,,,,,,
,,5eb3a51f58efe718f5cffdb4,2024-02-22_24h17.35.737,kallum_motion_pilot,2023.2.2,Linux x86_64,78.74015748,5eb3a51f58efe718f5cffdb4,65d6bb0e977760de756971f7,65d6bcaa6941bacdccd5417c,0.0605,0.0607,1,4,166,21,1,threefour,,,,,,,,,,,,,,,,,,,,,,,,,,,,,,,,,,,,,,,,,,,,,,,,,,,,,,,,,,,,,,,,,,,,,,,,,,,,,,,,,,,,,,,,,,,,,,,,,,,,,,,,,,,,,,,,,,,,,,,,,,,,,,,,,,,,,,,,,
,,5eb3a51f58efe718f5cffdb4,2024-02-22_24h17.35.737,kallum_motion_pilot,2023.2.2,Linux x86_64,78.74015748,5eb3a51f58efe718f5cffdb4,65d6bb0e977760de756971f7,65d6bcaa6941bacdccd5417c,0.0607,0.0608,1,5,167,25,1,onethree,,,,,,,,,,,,,,,,,,,,,,,,,,,,,,,,,,,,,,,,,,,,,,,,,,,,,,,,,,,,,,,,,,,,,,,,,,,,,,,,,,,,,,,,,,,,,,,,,,,,,,,,,,,,,,,,,,,,,,,,,,,,,,,,,,,,,,,,,
,,5eb3a51f58efe718f5cffdb4,2024-02-22_24h17.35.737,kallum_motion_pilot,2023.2.2,Linux x86_64,78.74015748,5eb3a51f58efe718f5cffdb4,65d6bb0e977760de756971f7,65d6bcaa6941bacdccd5417c,0.0609,0.061,1,6,168,142,1,eightsix,,,,,,,,,,,,,,,,,,,,,,,,,,,,,,,,,,,,,,,,,,,,,,,,,,,,,,,,,,,,,,,,,,,,,,,,,,,,,,,,,,,,,,,,,,,,,,,,,,,,,,,,,,,,,,,,,,,,,,,,,,,,,,,,,,,,,,,,,
,,5eb3a51f58efe718f5cffdb4,2024-02-22_24h17.35.737,kallum_motion_pilot,2023.2.2,Linux x86_64,78.74015748,5eb3a51f58efe718f5cffdb4,65d6bb0e977760de756971f7,65d6bcaa6941bacdccd5417c,0.0611,0.0612,1,7,169,13,1,threefour,,,,,,,,,,,,,,,,,,,,,,,,,,,,,,,,,,,,,,,,,,,,,,,,,,,,,,,,,,,,,,,,,,,,,,,,,,,,,,,,,,,,,,,,,,,,,,,,,,,,,,,,,,,,,,,,,,,,,,,,,,,,,,,,,,,,,,,,,
,,5eb3a51f58efe718f5cffdb4,2024-02-22_24h17.35.737,kallum_motion_pilot,2023.2.2,Linux x86_64,78.74015748,5eb3a51f58efe718f5cffdb4,65d6bb0e977760de756971f7,65d6bcaa6941bacdccd5417c,0.0613,0.0614,1,8,170,8,1,onetwo,,,,,,,,,,,,,,,,,,,,,,,,,,,,,,,,,,,,,,,,,,,,,,,,,,,,,,,,,,,,,,,,,,,,,,,,,,,,,,,,,,,,,,,,,,,,,,,,,,,,,,,,,,,,,,,,,,,,,,,,,,,,,,,,,,,,,,,,,
,,5eb3a51f58efe718f5cffdb4,2024-02-22_24h17.35.737,kallum_motion_pilot,2023.2.2,Linux x86_64,78.74015748,5eb3a51f58efe718f5cffdb4,65d6bb0e977760de756971f7,65d6bcaa6941bacdccd5417c,0.0615,0.0615,1,9,171,31,1,fourthree,,,,,,,,,,,,,,,,,,,,,,,,,,,,,,,,,,,,,,,,,,,,,,,,,,,,,,,,,,,,,,,,,,,,,,,,,,,,,,,,,,,,,,,,,,,,,,,,,,,,,,,,,,,,,,,,,,,,,,,,,,,,,,,,,,,,,,,,,
,,5eb3a51f58efe718f5cffdb4,2024-02-22_24h17.35.737,kallum_motion_pilot,2023.2.2,Linux x86_64,78.74015748,5eb3a51f58efe718f5cffdb4,65d6bb0e977760de756971f7,65d6bcaa6941bacdccd5417c,0.0617,0.0618,1,10,172,120,1,fivesix,,,,,,,,,,,,,,,,,,,,,,,,,,,,,,,,,,,,,,,,,,,,,,,,,,,,,,,,,,,,,,,,,,,,,,,,,,,,,,,,,,,,,,,,,,,,,,,,,,,,,,,,,,,,,,,,,,,,,,,,,,,,,,,,,,,,,,,,,
,,5eb3a51f58efe718f5cffdb4,2024-02-22_24h17.35.737,kallum_motion_pilot,2023.2.2,Linux x86_64,78.74015748,5eb3a51f58efe718f5cffdb4,65d6bb0e977760de756971f7,65d6bcaa6941bacdccd5417c,0.0618,0.062,1,11,173,147,1,sixeight,,,,,,,,,,,,,,,,,,,,,,,,,,,,,,,,,,,,,,,,,,,,,,,,,,,,,,,,,,,,,,,,,,,,,,,,,,,,,,,,,,,,,,,,,,,,,,,,,,,,,,,,,,,,,,,,,,,,,,,,,,,,,,,,,,,,,,,,,
,,5eb3a51f58efe718f5cffdb4,2024-02-22_24h17.35.737,kallum_motion_pilot,2023.2.2,Linux x86_64,78.74015748,5eb3a51f58efe718f5cffdb4,65d6bb0e977760de756971f7,65d6bcaa6941bacdccd5417c,0.0621,0.0622,1,12,174,16,1,onetwo,,,,,,,,,,,,,,,,,,,,,,,,,,,,,,,,,,,,,,,,,,,,,,,,,,,,,,,,,,,,,,,,,,,,,,,,,,,,,,,,,,,,,,,,,,,,,,,,,,,,,,,,,,,,,,,,,,,,,,,,,,,,,,,,,,,,,,,,,
,,5eb3a51f58efe718f5cffdb4,2024-02-22_24h17.35.737,kallum_motion_pilot,2023.2.2,Linux x86_64,78.74015748,5eb3a51f58efe718f5cffdb4,65d6bb0e977760de756971f7,65d6bcaa6941bacdccd5417c,0.0623,0.0624,1,13,175,63,1,fourthree,,,,,,,,,,,,,,,,,,,,,,,,,,,,,,,,,,,,,,,,,,,,,,,,,,,,,,,,,,,,,,,,,,,,,,,,,,,,,,,,,,,,,,,,,,,,,,,,,,,,,,,,,,,,,,,,,,,,,,,,,,,,,,,,,,,,,,,,,
,,5eb3a51f58efe718f5cffdb4,2024-02-22_24h17.35.737,kallum_motion_pilot,2023.2.2,Linux x86_64,78.74015748,5eb3a51f58efe718f5cffdb4,65d6bb0e977760de756971f7,65d6bcaa6941bacdccd5417c,0.0625,0.0626,1,14,176,121,1,fiveseven,,,,,,,,,,,,,,,,,,,,,,,,,,,,,,,,,,,,,,,,,,,,,,,,,,,,,,,,,,,,,,,,,,,,,,,,,,,,,,,,,,,,,,,,,,,,,,,,,,,,,,,,,,,,,,,,,,,,,,,,,,,,,,,,,,,,,,,,,
,,5eb3a51f58efe718f5cffdb4,2024-02-22_24h17.35.737,kallum_motion_pilot,2023.2.2,Linux x86_64,78.74015748,5eb3a51f58efe718f5cffdb4,65d6bb0e977760de756971f7,65d6bcaa6941bacdccd5417c,0.0626,0.0628,1,15,177,86,1,eightsix,,,,,,,,,,,,,,,,,,,,,,,,,,,,,,,,,,,,,,,,,,,,,,,,,,,,,,,,,,,,,,,,,,,,,,,,,,,,,,,,,,,,,,,,,,,,,,,,,,,,,,,,,,,,,,,,,,,,,,,,,,,,,,,,,,,,,,,,,
,,5eb3a51f58efe718f5cffdb4,2024-02-22_24h17.35.737,kallum_motion_pilot,2023.2.2,Linux x86_64,78.74015748,5eb3a51f58efe718f5cffdb4,65d6bb0e977760de756971f7,65d6bcaa6941bacdccd5417c,0.0629,0.0629,1,16,178,96,1,fivesix,,,,,,,,,,,,,,,,,,,,,,,,,,,,,,,,,,,,,,,,,,,,,,,,,,,,,,,,,,,,,,,,,,,,,,,,,,,,,,,,,,,,,,,,,,,,,,,,,,,,,,,,,,,,,,,,,,,,,,,,,,,,,,,,,,,,,,,,,
,,5eb3a51f58efe718f5cffdb4,2024-02-22_24h17.35.737,kallum_motion_pilot,2023.2.2,Linux x86_64,78.74015748,5eb3a51f58efe718f5cffdb4,65d6bb0e977760de756971f7,65d6bcaa6941bacdccd5417c,0.063,0.0631,1,17,179,100,1,sevenfive,,,,,,,,,,,,,,,,,,,,,,,,,,,,,,,,,,,,,,,,,,,,,,,,,,,,,,,,,,,,,,,,,,,,,,,,,,,,,,,,,,,,,,,,,,,,,,,,,,,,,,,,,,,,,,,,,,,,,,,,,,,,,,,,,,,,,,,,,
,,5eb3a51f58efe718f5cffdb4,2024-02-22_24h17.35.737,kallum_motion_pilot,2023.2.2,Linux x86_64,78.74015748,5eb3a51f58efe718f5cffdb4,65d6bb0e977760de756971f7,65d6bcaa6941bacdccd5417c,0.0632,0.0633,1,18,180,104,1,fivesix,,,,,,,,,,,,,,,,,,,,,,,,,,,,,,,,,,,,,,,,,,,,,,,,,,,,,,,,,,,,,,,,,,,,,,,,,,,,,,,,,,,,,,,,,,,,,,,,,,,,,,,,,,,,,,,,,,,,,,,,,,,,,,,,,,,,,,,,,
,,5eb3a51f58efe718f5cffdb4,2024-02-22_24h17.35.737,kallum_motion_pilot,2023.2.2,Linux x86_64,78.74015748,5eb3a51f58efe718f5cffdb4,65d6bb0e977760de756971f7,65d6bcaa6941bacdccd5417c,0.0634,0.0635,1,19,181,101,1,seveneight,,,,,,,,,,,,,,,,,,,,,,,,,,,,,,,,,,,,,,,,,,,,,,,,,,,,,,,,,,,,,,,,,,,,,,,,,,,,,,,,,,,,,,,,,,,,,,,,,,,,,,,,,,,,,,,,,,,,,,,,,,,,,,,,,,,,,,,,,
,,5eb3a51f58efe718f5cffdb4,2024-02-22_24h17.35.737,kallum_motion_pilot,2023.2.2,Linux x86_64,78.74015748,5eb3a51f58efe718f5cffdb4,65d6bb0e977760de756971f7,65d6bcaa6941bacdccd5417c,0.0636,0.0637,1,20,182,67,1,twofour,,,,,,,,,,,,,,,,,,,,,,,,,,,,,,,,,,,,,,,,,,,,,,,,,,,,,,,,,,,,,,,,,,,,,,,,,,,,,,,,,,,,,,,,,,,,,,,,,,,,,,,,,,,,,,,,,,,,,,,,,,,,,,,,,,,,,,,,,
,,5eb3a51f58efe718f5cffdb4,2024-02-22_24h17.35.737,kallum_motion_pilot,2023.2.2,Linux x86_64,78.74015748,5eb3a51f58efe718f5cffdb4,65d6bb0e977760de756971f7,65d6bcaa6941bacdccd5417c,0.0638,0.0639,1,21,183,151,1,eightseven,,,,,,,,,,,,,,,,,,,,,,,,,,,,,,,,,,,,,,,,,,,,,,,,,,,,,,,,,,,,,,,,,,,,,,,,,,,,,,,,,,,,,,,,,,,,,,,,,,,,,,,,,,,,,,,,,,,,,,,,,,,,,,,,,,,,,,,,,
,,5eb3a51f58efe718f5cffdb4,2024-02-22_24h17.35.737,kallum_motion_pilot,2023.2.2,Linux x86_64,78.74015748,5eb3a51f58efe718f5cffdb4,65d6bb0e977760de756971f7,65d6bcaa6941bacdccd5417c,0.064,0.0641,1,22,184,156,1,sevenfive,,,,,,,,,,,,,,,,,,,,,,,,,,,,,,,,,,,,,,,,,,,,,,,,,,,,,,,,,,,,,,,,,,,,,,,,,,,,,,,,,,,,,,,,,,,,,,,,,,,,,,,,,,,,,,,,,,,,,,,,,,,,,,,,,,,,,,,,,
,,5eb3a51f58efe718f5cffdb4,2024-02-22_24h17.35.737,kallum_motion_pilot,2023.2.2,Linux x86_64,78.74015748,5eb3a51f58efe718f5cffdb4,65d6bb0e977760de756971f7,65d6bcaa6941bacdccd5417c,0.0642,0.0643,1,23,185,71,1,fourthree,,,,,,,,,,,,,,,,,,,,,,,,,,,,,,,,,,,,,,,,,,,,,,,,,,,,,,,,,,,,,,,,,,,,,,,,,,,,,,,,,,,,,,,,,,,,,,,,,,,,,,,,,,,,,,,,,,,,,,,,,,,,,,,,,,,,,,,,,
,,5eb3a51f58efe718f5cffdb4,2024-02-22_24h17.35.737,kallum_motion_pilot,2023.2.2,Linux x86_64,78.74015748,5eb3a51f58efe718f5cffdb4,65d6bb0e977760de756971f7,65d6bcaa6941bacdccd5417c,0.0643,0.0645,1,24,186,152,1,fivesix,,,,,,,,,,,,,,,,,,,,,,,,,,,,,,,,,,,,,,,,,,,,,,,,,,,,,,,,,,,,,,,,,,,,,,,,,,,,,,,,,,,,,,,,,,,,,,,,,,,,,,,,,,,,,,,,,,,,,,,,,,,,,,,,,,,,,,,,,
,,5eb3a51f58efe718f5cffdb4,2024-02-22_24h17.35.737,kallum_motion_pilot,2023.2.2,Linux x86_64,78.74015748,5eb3a51f58efe718f5cffdb4,65d6bb0e977760de756971f7,65d6bcaa6941bacdccd5417c,0.0646,0.0647,1,25,187,33,1,onethree,,,,,,,,,,,,,,,,,,,,,,,,,,,,,,,,,,,,,,,,,,,,,,,,,,,,,,,,,,,,,,,,,,,,,,,,,,,,,,,,,,,,,,,,,,,,,,,,,,,,,,,,,,,,,,,,,,,,,,,,,,,,,,,,,,,,,,,,,
,,5eb3a51f58efe718f5cffdb4,2024-02-22_24h17.35.737,kallum_motion_pilot,2023.2.2,Linux x86_64,78.74015748,5eb3a51f58efe718f5cffdb4,65d6bb0e977760de756971f7,65d6bcaa6941bacdccd5417c,0.0647,0.0648,1,26,188,161,1,fiveseven,,,,,,,,,,,,,,,,,,,,,,,,,,,,,,,,,,,,,,,,,,,,,,,,,,,,,,,,,,,,,,,,,,,,,,,,,,,,,,,,,,,,,,,,,,,,,,,,,,,,,,,,,,,,,,,,,,,,,,,,,,,,,,,,,,,,,,,,,
,,5eb3a51f58efe718f5cffdb4,2024-02-22_24h17.35.737,kallum_motion_pilot,2023.2.2,Linux x86_64,78.74015748,5eb3a51f58efe718f5cffdb4,65d6bb0e977760de756971f7,65d6bcaa6941bacdccd5417c,0.065,0.0651,1,27,189,160,1,fivesix,,,,,,,,,,,,,,,,,,,,,,,,,,,,,,,,,,,,,,,,,,,,,,,,,,,,,,,,,,,,,,,,,,,,,,,,,,,,,,,,,,,,,,,,,,,,,,,,,,,,,,,,,,,,,,,,,,,,,,,,,,,,,,,,,,,,,,,,,
,,5eb3a51f58efe718f5cffdb4,2024-02-22_24h17.35.737,kallum_motion_pilot,2023.2.2,Linux x86_64,78.74015748,5eb3a51f58efe718f5cffdb4,65d6bb0e977760de756971f7,65d6bcaa6941bacdccd5417c,0.0652,0.0652,1,28,190,143,1,eightseven,,,,,,,,,,,,,,,,,,,,,,,,,,,,,,,,,,,,,,,,,,,,,,,,,,,,,,,,,,,,,,,,,,,,,,,,,,,,,,,,,,,,,,,,,,,,,,,,,,,,,,,,,,,,,,,,,,,,,,,,,,,,,,,,,,,,,,,,,
,,5eb3a51f58efe718f5cffdb4,2024-02-22_24h17.35.737,kallum_motion_pilot,2023.2.2,Linux x86_64,78.74015748,5eb3a51f58efe718f5cffdb4,65d6bb0e977760de756971f7,65d6bcaa6941bacdccd5417c,0.0654,0.0655,1,29,191,126,1,eightsix,,,,,,,,,,,,,,,,,,,,,,,,,,,,,,,,,,,,,,,,,,,,,,,,,,,,,,,,,,,,,,,,,,,,,,,,,,,,,,,,,,,,,,,,,,,,,,,,,,,,,,,,,,,,,,,,,,,,,,,,,,,,,,,,,,,,,,,,,
,,5eb3a51f58efe718f5cffdb4,2024-02-22_24h17.35.737,kallum_motion_pilot,2023.2.2,Linux x86_64,78.74015748,5eb3a51f58efe718f5cffdb4,65d6bb0e977760de756971f7,65d6bcaa6941bacdccd5417c,0.0656,0.0657,1,30,192,157,1,seveneight,,,,,,,,,,,,,,,,,,,,,,,,,,,,,,,,,,,,,,,,,,,,,,,,,,,,,,,,,,,,,,,,,,,,,,,,,,,,,,,,,,,,,,,,,,,,,,,,,,,,,,,,,,,,,,,,,,,,,,,,,,,,,,,,,,,,,,,,,
,,5eb3a51f58efe718f5cffdb4,2024-02-22_24h17.35.737,kallum_motion_pilot,2023.2.2,Linux x86_64,78.74015748,5eb3a51f58efe718f5cffdb4,65d6bb0e977760de756971f7,65d6bcaa6941bacdccd5417c,0.0658,0.0659,1,31,193,136,1,fivesix,,,,,,,,,,,,,,,,,,,,,,,,,,,,,,,,,,,,,,,,,,,,,,,,,,,,,,,,,,,,,,,,,,,,,,,,,,,,,,,,,,,,,,,,,,,,,,,,,,,,,,,,,,,,,,,,,,,,,,,,,,,,,,,,,,,,,,,,,
,,5eb3a51f58efe718f5cffdb4,2024-02-22_24h17.35.737,kallum_motion_pilot,2023.2.2,Linux x86_64,78.74015748,5eb3a51f58efe718f5cffdb4,65d6bb0e977760de756971f7,65d6bcaa6941bacdccd5417c,0.066,0.066,1,32,194,22,1,fourtwo,,,,,,,,,,,,,,,,,,,,,,,,,,,,,,,,,,,,,,,,,,,,,,,,,,,,,,,,,,,,,,,,,,,,,,,,,,,,,,,,,,,,,,,,,,,,,,,,,,,,,,,,,,,,,,,,,,,,,,,,,,,,,,,,,,,,,,,,,
,,5eb3a51f58efe718f5cffdb4,2024-02-22_24h17.35.737,kallum_motion_pilot,2023.2.2,Linux x86_64,78.74015748,5eb3a51f58efe718f5cffdb4,65d6bb0e977760de756971f7,65d6bcaa6941bacdccd5417c,0.0661,0.0662,1,33,195,29,1,threefour,,,,,,,,,,,,,,,,,,,,,,,,,,,,,,,,,,,,,,,,,,,,,,,,,,,,,,,,,,,,,,,,,,,,,,,,,,,,,,,,,,,,,,,,,,,,,,,,,,,,,,,,,,,,,,,,,,,,,,,,,,,,,,,,,,,,,,,,,
,,5eb3a51f58efe718f5cffdb4,2024-02-22_24h17.35.737,kallum_motion_pilot,2023.2.2,Linux x86_64,78.74015748,5eb3a51f58efe718f5cffdb4,65d6bb0e977760de756971f7,65d6bcaa6941bacdccd5417c,0.0663,0.0664,1,34,196,66,1,twoone,,,,,,,,,,,,,,,,,,,,,,,,,,,,,,,,,,,,,,,,,,,,,,,,,,,,,,,,,,,,,,,,,,,,,,,,,,,,,,,,,,,,,,,,,,,,,,,,,,,,,,,,,,,,,,,,,,,,,,,,,,,,,,,,,,,,,,,,,
,,5eb3a51f58efe718f5cffdb4,2024-02-22_24h17.35.737,kallum_motion_pilot,2023.2.2,Linux x86_64,78.74015748,5eb3a51f58efe718f5cffdb4,65d6bb0e977760de756971f7,65d6bcaa6941bacdccd5417c,0.0666,0.0666,1,35,197,115,1,sixeight,,,,,,,,,,,,,,,,,,,,,,,,,,,,,,,,,,,,,,,,,,,,,,,,,,,,,,,,,,,,,,,,,,,,,,,,,,,,,,,,,,,,,,,,,,,,,,,,,,,,,,,,,,,,,,,,,,,,,,,,,,,,,,,,,,,,,,,,,
,,5eb3a51f58efe718f5cffdb4,2024-02-22_24h17.35.737,kallum_motion_pilot,2023.2.2,Linux x86_64,78.74015748,5eb3a51f58efe718f5cffdb4,65d6bb0e977760de756971f7,65d6bcaa6941bacdccd5417c,0.0668,0.0668,1,36,198,141,1,seveneight,,,,,,,,,,,,,,,,,,,,,,,,,,,,,,,,,,,,,,,,,,,,,,,,,,,,,,,,,,,,,,,,,,,,,,,,,,,,,,,,,,,,,,,,,,,,,,,,,,,,,,,,,,,,,,,,,,,,,,,,,,,,,,,,,,,,,,,,,
,,5eb3a51f58efe718f5cffdb4,2024-02-22_24h17.35.737,kallum_motion_pilot,2023.2.2,Linux x86_64,78.74015748,5eb3a51f58efe718f5cffdb4,65d6bb0e977760de756971f7,65d6bcaa6941bacdccd5417c,0.067,0.0671,1,37,199,35,1,twofour,,,,,,,,,,,,,,,,,,,,,,,,,,,,,,,,,,,,,,,,,,,,,,,,,,,,,,,,,,,,,,,,,,,,,,,,,,,,,,,,,,,,,,,,,,,,,,,,,,,,,,,,,,,,,,,,,,,,,,,,,,,,,,,,,,,,,,,,,
,,5eb3a51f58efe718f5cffdb4,2024-02-22_24h17.35.737,kallum_motion_pilot,2023.2.2,Linux x86_64,78.74015748,5eb3a51f58efe718f5cffdb4,65d6bb0e977760de756971f7,65d6bcaa6941bacdccd5417c,0.0672,0.0672,1,38,200,12,1,threeone,,,,,,,,,,,,,,,,,,,,,,,,,,,,,,,,,,,,,,,,,,,,,,,,,,,,,,,,,,,,,,,,,,,,,,,,,,,,,,,,,,,,,,,,,,,,,,,,,,,,,,,,,,,,,,,,,,,,,,,,,,,,,,,,,,,,,,,,,
,,5eb3a51f58efe718f5cffdb4,2024-02-22_24h17.35.737,kallum_motion_pilot,2023.2.2,Linux x86_64,78.74015748,5eb3a51f58efe718f5cffdb4,65d6bb0e977760de756971f7,65d6bcaa6941bacdccd5417c,0.0673,0.0674,1,39,201,114,1,sixfive,,,,,,,,,,,,,,,,,,,,,,,,,,,,,,,,,,,,,,,,,,,,,,,,,,,,,,,,,,,,,,,,,,,,,,,,,,,,,,,,,,,,,,,,,,,,,,,,,,,,,,,,,,,,,,,,,,,,,,,,,,,,,,,,,,,,,,,,,
,,5eb3a51f58efe718f5cffdb4,2024-02-22_24h17.35.737,kallum_motion_pilot,2023.2.2,Linux x86_64,78.74015748,5eb3a51f58efe718f5cffdb4,65d6bb0e977760de756971f7,65d6bcaa6941bacdccd5417c,0.0675,0.0676,1,40,202,4,1,threeone,,,,,,,,,,,,,,,,,,,,,,,,,,,,,,,,,,,,,,,,,,,,,,,,,,,,,,,,,,,,,,,,,,,,,,,,,,,,,,,,,,,,,,,,,,,,,,,,,,,,,,,,,,,,,,,,,,,,,,,,,,,,,,,,,,,,,,,,,
,,5eb3a51f58efe718f5cffdb4,2024-02-22_24h17.35.737,kallum_motion_pilot,2023.2.2,Linux x86_64,78.74015748,5eb3a51f58efe718f5cffdb4,65d6bb0e977760de756971f7,65d6bcaa6941bacdccd5417c,0.0677,0.0677,1,41,203,144,1,fivesix,,,,,,,,,,,,,,,,,,,,,,,,,,,,,,,,,,,,,,,,,,,,,,,,,,,,,,,,,,,,,,,,,,,,,,,,,,,,,,,,,,,,,,,,,,,,,,,,,,,,,,,,,,,,,,,,,,,,,,,,,,,,,,,,,,,,,,,,,
,,5eb3a51f58efe718f5cffdb4,2024-02-22_24h17.35.737,kallum_motion_pilot,2023.2.2,Linux x86_64,78.74015748,5eb3a51f58efe718f5cffdb4,65d6bb0e977760de756971f7,65d6bcaa6941bacdccd5417c,0.0679,0.0679,1,42,204,54,1,fourtwo,,,,,,,,,,,,,,,,,,,,,,,,,,,,,,,,,,,,,,,,,,,,,,,,,,,,,,,,,,,,,,,,,,,,,,,,,,,,,,,,,,,,,,,,,,,,,,,,,,,,,,,,,,,,,,,,,,,,,,,,,,,,,,,,,,,,,,,,,
,,5eb3a51f58efe718f5cffdb4,2024-02-22_24h17.35.737,kallum_motion_pilot,2023.2.2,Linux x86_64,78.74015748,5eb3a51f58efe718f5cffdb4,65d6bb0e977760de756971f7,65d6bcaa6941bacdccd5417c,0.0681,0.0682,1,43,205,130,1,sixfive,,,,,,,,,,,,,,,,,,,,,,,,,,,,,,,,,,,,,,,,,,,,,,,,,,,,,,,,,,,,,,,,,,,,,,,,,,,,,,,,,,,,,,,,,,,,,,,,,,,,,,,,,,,,,,,,,,,,,,,,,,,,,,,,,,,,,,,,,
,,5eb3a51f58efe718f5cffdb4,2024-02-22_24h17.35.737,kallum_motion_pilot,2023.2.2,Linux x86_64,78.74015748,5eb3a51f58efe718f5cffdb4,65d6bb0e977760de756971f7,65d6bcaa6941bacdccd5417c,0.0683,0.0683,1,44,206,149,1,seveneight,,,,,,,,,,,,,,,,,,,,,,,,,,,,,,,,,,,,,,,,,,,,,,,,,,,,,,,,,,,,,,,,,,,,,,,,,,,,,,,,,,,,,,,,,,,,,,,,,,,,,,,,,,,,,,,,,,,,,,,,,,,,,,,,,,,,,,,,,
,,5eb3a51f58efe718f5cffdb4,2024-02-22_24h17.35.737,kallum_motion_pilot,2023.2.2,Linux x86_64,78.74015748,5eb3a51f58efe718f5cffdb4,65d6bb0e977760de756971f7,65d6bcaa6941bacdccd5417c,0.0685,0.0686,1,45,207,146,1,sixfive,,,,,,,,,,,,,,,,,,,,,,,,,,,,,,,,,,,,,,,,,,,,,,,,,,,,,,,,,,,,,,,,,,,,,,,,,,,,,,,,,,,,,,,,,,,,,,,,,,,,,,,,,,,,,,,,,,,,,,,,,,,,,,,,,,,,,,,,,
,,5eb3a51f58efe718f5cffdb4,2024-02-22_24h17.35.737,kallum_motion_pilot,2023.2.2,Linux x86_64,78.74015748,5eb3a51f58efe718f5cffdb4,65d6bb0e977760de756971f7,65d6bcaa6941bacdccd5417c,0.0687,0.0688,1,46,208,18,1,twoone,,,,,,,,,,,,,,,,,,,,,,,,,,,,,,,,,,,,,,,,,,,,,,,,,,,,,,,,,,,,,,,,,,,,,,,,,,,,,,,,,,,,,,,,,,,,,,,,,,,,,,,,,,,,,,,,,,,,,,,,,,,,,,,,,,,,,,,,,
,,5eb3a51f58efe718f5cffdb4,2024-02-22_24h17.35.737,kallum_motion_pilot,2023.2.2,Linux x86_64,78.74015748,5eb3a51f58efe718f5cffdb4,65d6bb0e977760de756971f7,65d6bcaa6941bacdccd5417c,0.0689,0.0691,1,47,209,112,1,fivesix,,,,,,,,,,,,,,,,,,,,,,,,,,,,,,,,,,,,,,,,,,,,,,,,,,,,,,,,,,,,,,,,,,,,,,,,,,,,,,,,,,,,,,,,,,,,,,,,,,,,,,,,,,,,,,,,,,,,,,,,,,,,,,,,,,,,,,,,,
,,5eb3a51f58efe718f5cffdb4,2024-02-22_24h17.35.737,kallum_motion_pilot,2023.2.2,Linux x86_64,78.74015748,5eb3a51f58efe718f5cffdb4,65d6bb0e977760de756971f7,65d6bcaa6941bacdccd5417c,0.0692,0.0693,1,48,210,105,1,fiveseven,,,,,,,,,,,,,,,,,,,,,,,,,,,,,,,,,,,,,,,,,,,,,,,,,,,,,,,,,,,,,,,,,,,,,,,,,,,,,,,,,,,,,,,,,,,,,,,,,,,,,,,,,,,,,,,,,,,,,,,,,,,,,,,,,,,,,,,,,
,,5eb3a51f58efe718f5cffdb4,2024-02-22_24h17.35.737,kallum_motion_pilot,2023.2.2,Linux x86_64,78.74015748,5eb3a51f58efe718f5cffdb4,65d6bb0e977760de756971f7,65d6bcaa6941bacdccd5417c,0.0694,0.0695,1,49,211,15,1,fourthree,,,,,,,,,,,,,,,,,,,,,,,,,,,,,,,,,,,,,,,,,,,,,,,,,,,,,,,,,,,,,,,,,,,,,,,,,,,,,,,,,,,,,,,,,,,,,,,,,,,,,,,,,,,,,,,,,,,,,,,,,,,,,,,,,,,,,,,,,
,,5eb3a51f58efe718f5cffdb4,2024-02-22_24h17.35.737,kallum_motion_pilot,2023.2.2,Linux x86_64,78.74015748,5eb3a51f58efe718f5cffdb4,65d6bb0e977760de756971f7,65d6bcaa6941bacdccd5417c,0.0696,0.0697,1,50,212,117,1,seveneight,,,,,,,,,,,,,,,,,,,,,,,,,,,,,,,,,,,,,,,,,,,,,,,,,,,,,,,,,,,,,,,,,,,,,,,,,,,,,,,,,,,,,,,,,,,,,,,,,,,,,,,,,,,,,,,,,,,,,,,,,,,,,,,,,,,,,,,,,
,,5eb3a51f58efe718f5cffdb4,2024-02-22_24h17.35.737,kallum_motion_pilot,2023.2.2,Linux x86_64,78.74015748,5eb3a51f58efe718f5cffdb4,65d6bb0e977760de756971f7,65d6bcaa6941bacdccd5417c,0.0698,0.0699,1,51,213,108,1,sevenfive,,,,,,,,,,,,,,,,,,,,,,,,,,,,,,,,,,,,,,,,,,,,,,,,,,,,,,,,,,,,,,,,,,,,,,,,,,,,,,,,,,,,,,,,,,,,,,,,,,,,,,,,,,,,,,,,,,,,,,,,,,,,,,,,,,,,,,,,,
,,5eb3a51f58efe718f5cffdb4,2024-02-22_24h17.35.737,kallum_motion_pilot,2023.2.2,Linux x86_64,78.74015748,5eb3a51f58efe718f5cffdb4,65d6bb0e977760de756971f7,65d6bcaa6941bacdccd5417c,0.07,0.0701,1,52,214,119,1,eightseven,,,,,,,,,,,,,,,,,,,,,,,,,,,,,,,,,,,,,,,,,,,,,,,,,,,,,,,,,,,,,,,,,,,,,,,,,,,,,,,,,,,,,,,,,,,,,,,,,,,,,,,,,,,,,,,,,,,,,,,,,,,,,,,,,,,,,,,,,
,,5eb3a51f58efe718f5cffdb4,2024-02-22_24h17.35.737,kallum_motion_pilot,2023.2.2,Linux x86_64,78.74015748,5eb3a51f58efe718f5cffdb4,65d6bb0e977760de756971f7,65d6bcaa6941bacdccd5417c,0.0702,0.0703,1,53,215,97,1,fiveseven,,,,,,,,,,,,,,,,,,,,,,,,,,,,,,,,,,,,,,,,,,,,,,,,,,,,,,,,,,,,,,,,,,,,,,,,,,,,,,,,,,,,,,,,,,,,,,,,,,,,,,,,,,,,,,,,,,,,,,,,,,,,,,,,,,,,,,,,,
,,5eb3a51f58efe718f5cffdb4,2024-02-22_24h17.35.737,kallum_motion_pilot,2023.2.2,Linux x86_64,78.74015748,5eb3a51f58efe718f5cffdb4,65d6bb0e977760de756971f7,65d6bcaa6941bacdccd5417c,0.0704,0.0705,1,54,216,41,1,onethree,,,,,,,,,,,,,,,,,,,,,,,,,,,,,,,,,,,,,,,,,,,,,,,,,,,,,,,,,,,,,,,,,,,,,,,,,,,,,,,,,,,,,,,,,,,,,,,,,,,,,,,,,,,,,,,,,,,,,,,,,,,,,,,,,,,,,,,,,
,,5eb3a51f58efe718f5cffdb4,2024-02-22_24h17.35.737,kallum_motion_pilot,2023.2.2,Linux x86_64,78.74015748,5eb3a51f58efe718f5cffdb4,65d6bb0e977760de756971f7,65d6bcaa6941bacdccd5417c,0.0706,0.0707,1,55,217,158,1,eightsix,,,,,,,,,,,,,,,,,,,,,,,,,,,,,,,,,,,,,,,,,,,,,,,,,,,,,,,,,,,,,,,,,,,,,,,,,,,,,,,,,,,,,,,,,,,,,,,,,,,,,,,,,,,,,,,,,,,,,,,,,,,,,,,,,,,,,,,,,
,,5eb3a51f58efe718f5cffdb4,2024-02-22_24h17.35.737,kallum_motion_pilot,2023.2.2,Linux x86_64,78.74015748,5eb3a51f58efe718f5cffdb4,65d6bb0e977760de756971f7,65d6bcaa6941bacdccd5417c,0.0708,0.0709,1,56,218,68,1,threeone,,,,,,,,,,,,,,,,,,,,,,,,,,,,,,,,,,,,,,,,,,,,,,,,,,,,,,,,,,,,,,,,,,,,,,,,,,,,,,,,,,,,,,,,,,,,,,,,,,,,,,,,,,,,,,,,,,,,,,,,,,,,,,,,,,,,,,,,,
,,5eb3a51f58efe718f5cffdb4,2024-02-22_24h17.35.737,kallum_motion_pilot,2023.2.2,Linux x86_64,78.74015748,5eb3a51f58efe718f5cffdb4,65d6bb0e977760de756971f7,65d6bcaa6941bacdccd5417c,0.071,0.0711,1,57,219,159,1,eightseven,,,,,,,,,,,,,,,,,,,,,,,,,,,,,,,,,,,,,,,,,,,,,,,,,,,,,,,,,,,,,,,,,,,,,,,,,,,,,,,,,,,,,,,,,,,,,,,,,,,,,,,,,,,,,,,,,,,,,,,,,,,,,,,,,,,,,,,,,
,,5eb3a51f58efe718f5cffdb4,2024-02-22_24h17.35.737,kallum_motion_pilot,2023.2.2,Linux x86_64,78.74015748,5eb3a51f58efe718f5cffdb4,65d6bb0e977760de756971f7,65d6bcaa6941bacdccd5417c,0.0711,0.0712,1,58,220,28,1,threeone,,,,,,,,,,,,,,,,,,,,,,,,,,,,,,,,,,,,,,,,,,,,,,,,,,,,,,,,,,,,,,,,,,,,,,,,,,,,,,,,,,,,,,,,,,,,,,,,,,,,,,,,,,,,,,,,,,,,,,,,,,,,,,,,,,,,,,,,,
,,5eb3a51f58efe718f5cffdb4,2024-02-22_24h17.35.737,kallum_motion_pilot,2023.2.2,Linux x86_64,78.74015748,5eb3a51f58efe718f5cffdb4,65d6bb0e977760de756971f7,65d6bcaa6941bacdccd5417c,0.0714,0.0714,1,59,221,9,1,onethree,,,,,,,,,,,,,,,,,,,,,,,,,,,,,,,,,,,,,,,,,,,,,,,,,,,,,,,,,,,,,,,,,,,,,,,,,,,,,,,,,,,,,,,,,,,,,,,,,,,,,,,,,,,,,,,,,,,,,,,,,,,,,,,,,,,,,,,,,
,,5eb3a51f58efe718f5cffdb4,2024-02-22_24h17.35.737,kallum_motion_pilot,2023.2.2,Linux x86_64,78.74015748,5eb3a51f58efe718f5cffdb4,65d6bb0e977760de756971f7,65d6bcaa6941bacdccd5417c,0.0716,0.0717,1,60,222,88,1,fivesix,,,,,,,,,,,,,,,,,,,,,,,,,,,,,,,,,,,,,,,,,,,,,,,,,,,,,,,,,,,,,,,,,,,,,,,,,,,,,,,,,,,,,,,,,,,,,,,,,,,,,,,,,,,,,,,,,,,,,,,,,,,,,,,,,,,,,,,,,
,,5eb3a51f58efe718f5cffdb4,2024-02-22_24h17.35.737,kallum_motion_pilot,2023.2.2,Linux x86_64,78.74015748,5eb3a51f58efe718f5cffdb4,65d6bb0e977760de756971f7,65d6bcaa6941bacdccd5417c,0.0718,0.0719,1,61,223,154,1,sixfive,,,,,,,,,,,,,,,,,,,,,,,,,,,,,,,,,,,,,,,,,,,,,,,,,,,,,,,,,,,,,,,,,,,,,,,,,,,,,,,,,,,,,,,,,,,,,,,,,,,,,,,,,,,,,,,,,,,,,,,,,,,,,,,,,,,,,,,,,
,,5eb3a51f58efe718f5cffdb4,2024-02-22_24h17.35.737,kallum_motion_pilot,2023.2.2,Linux x86_64,78.74015748,5eb3a51f58efe718f5cffdb4,65d6bb0e977760de756971f7,65d6bcaa6941bacdccd5417c,0.072,0.072,1,62,224,87,1,eightseven,,,,,,,,,,,,,,,,,,,,,,,,,,,,,,,,,,,,,,,,,,,,,,,,,,,,,,,,,,,,,,,,,,,,,,,,,,,,,,,,,,,,,,,,,,,,,,,,,,,,,,,,,,,,,,,,,,,,,,,,,,,,,,,,,,,,,,,,,
,,5eb3a51f58efe718f5cffdb4,2024-02-22_24h17.35.737,kallum_motion_pilot,2023.2.2,Linux x86_64,78.74015748,5eb3a51f58efe718f5cffdb4,65d6bb0e977760de756971f7,65d6bcaa6941bacdccd5417c,0.0722,0.0723,1,63,225,53,1,threefour,,,,,,,,,,,,,,,,,,,,,,,,,,,,,,,,,,,,,,,,,,,,,,,,,,,,,,,,,,,,,,,,,,,,,,,,,,,,,,,,,,,,,,,,,,,,,,,,,,,,,,,,,,,,,,,,,,,,,,,,,,,,,,,,,,,,,,,,,
,,5eb3a51f58efe718f5cffdb4,2024-02-22_24h17.35.737,kallum_motion_pilot,2023.2.2,Linux x86_64,78.74015748,5eb3a51f58efe718f5cffdb4,65d6bb0e977760de756971f7,65d6bcaa6941bacdccd5417c,0.0723,0.0725,1,64,226,62,1,fourtwo,,,,,,,,,,,,,,,,,,,,,,,,,,,,,,,,,,,,,,,,,,,,,,,,,,,,,,,,,,,,,,,,,,,,,,,,,,,,,,,,,,,,,,,,,,,,,,,,,,,,,,,,,,,,,,,,,,,,,,,,,,,,,,,,,,,,,,,,,
,,5eb3a51f58efe718f5cffdb4,2024-02-22_24h17.35.737,kallum_motion_pilot,2023.2.2,Linux x86_64,78.74015748,5eb3a51f58efe718f5cffdb4,65d6bb0e977760de756971f7,65d6bcaa6941bacdccd5417c,0.0726,0.0726,1,65,227,109,1,seveneight,,,,,,,,,,,,,,,,,,,,,,,,,,,,,,,,,,,,,,,,,,,,,,,,,,,,,,,,,,,,,,,,,,,,,,,,,,,,,,,,,,,,,,,,,,,,,,,,,,,,,,,,,,,,,,,,,,,,,,,,,,,,,,,,,,,,,,,,,
,,5eb3a51f58efe718f5cffdb4,2024-02-22_24h17.35.737,kallum_motion_pilot,2023.2.2,Linux x86_64,78.74015748,5eb3a51f58efe718f5cffdb4,65d6bb0e977760de756971f7,65d6bcaa6941bacdccd5417c,0.0727,0.0729,1,66,228,140,1,sevenfive,,,,,,,,,,,,,,,,,,,,,,,,,,,,,,,,,,,,,,,,,,,,,,,,,,,,,,,,,,,,,,,,,,,,,,,,,,,,,,,,,,,,,,,,,,,,,,,,,,,,,,,,,,,,,,,,,,,,,,,,,,,,,,,,,,,,,,,,,
,,5eb3a51f58efe718f5cffdb4,2024-02-22_24h17.35.737,kallum_motion_pilot,2023.2.2,Linux x86_64,78.74015748,5eb3a51f58efe718f5cffdb4,65d6bb0e977760de756971f7,65d6bcaa6941bacdccd5417c,0.073,0.0731,1,67,229,103,1,eightseven,,,,,,,,,,,,,,,,,,,,,,,,,,,,,,,,,,,,,,,,,,,,,,,,,,,,,,,,,,,,,,,,,,,,,,,,,,,,,,,,,,,,,,,,,,,,,,,,,,,,,,,,,,,,,,,,,,,,,,,,,,,,,,,,,,,,,,,,,
,,5eb3a51f58efe718f5cffdb4,2024-02-22_24h17.35.737,kallum_motion_pilot,2023.2.2,Linux x86_64,78.74015748,5eb3a51f58efe718f5cffdb4,65d6bb0e977760de756971f7,65d6bcaa6941bacdccd5417c,0.0732,0.0733,1,68,230,58,1,twoone,,,,,,,,,,,,,,,,,,,,,,,,,,,,,,,,,,,,,,,,,,,,,,,,,,,,,,,,,,,,,,,,,,,,,,,,,,,,,,,,,,,,,,,,,,,,,,,,,,,,,,,,,,,,,,,,,,,,,,,,,,,,,,,,,,,,,,,,,
,,5eb3a51f58efe718f5cffdb4,2024-02-22_24h17.35.737,kallum_motion_pilot,2023.2.2,Linux x86_64,78.74015748,5eb3a51f58efe718f5cffdb4,65d6bb0e977760de756971f7,65d6bcaa6941bacdccd5417c,0.0734,0.0735,1,69,231,37,1,threefour,,,,,,,,,,,,,,,,,,,,,,,,,,,,,,,,,,,,,,,,,,,,,,,,,,,,,,,,,,,,,,,,,,,,,,,,,,,,,,,,,,,,,,,,,,,,,,,,,,,,,,,,,,,,,,,,,,,,,,,,,,,,,,,,,,,,,,,,,
,,5eb3a51f58efe718f5cffdb4,2024-02-22_24h17.35.737,kallum_motion_pilot,2023.2.2,Linux x86_64,78.74015748,5eb3a51f58efe718f5cffdb4,65d6bb0e977760de756971f7,65d6bcaa6941bacdccd5417c,0.0736,0.0737,1,70,232,131,1,sixeight,,,,,,,,,,,,,,,,,,,,,,,,,,,,,,,,,,,,,,,,,,,,,,,,,,,,,,,,,,,,,,,,,,,,,,,,,,,,,,,,,,,,,,,,,,,,,,,,,,,,,,,,,,,,,,,,,,,,,,,,,,,,,,,,,,,,,,,,,
,,5eb3a51f58efe718f5cffdb4,2024-02-22_24h17.35.737,kallum_motion_pilot,2023.2.2,Linux x86_64,78.74015748,5eb3a51f58efe718f5cffdb4,65d6bb0e977760de756971f7,65d6bcaa6941bacdccd5417c,0.0738,0.0739,1,71,233,77,1,threefour,,,,,,,,,,,,,,,,,,,,,,,,,,,,,,,,,,,,,,,,,,,,,,,,,,,,,,,,,,,,,,,,,,,,,,,,,,,,,,,,,,,,,,,,,,,,,,,,,,,,,,,,,,,,,,,,,,,,,,,,,,,,,,,,,,,,,,,,,
,,5eb3a51f58efe718f5cffdb4,2024-02-22_24h17.35.737,kallum_motion_pilot,2023.2.2,Linux x86_64,78.74015748,5eb3a51f58efe718f5cffdb4,65d6bb0e977760de756971f7,65d6bcaa6941bacdccd5417c,0.074,0.0741,1,72,234,98,1,sixfive,,,,,,,,,,,,,,,,,,,,,,,,,,,,,,,,,,,,,,,,,,,,,,,,,,,,,,,,,,,,,,,,,,,,,,,,,,,,,,,,,,,,,,,,,,,,,,,,,,,,,,,,,,,,,,,,,,,,,,,,,,,,,,,,,,,,,,,,,
,,5eb3a51f58efe718f5cffdb4,2024-02-22_24h17.35.737,kallum_motion_pilot,2023.2.2,Linux x86_64,78.74015748,5eb3a51f58efe718f5cffdb4,65d6bb0e977760de756971f7,65d6bcaa6941bacdccd5417c,0.0742,0.0743,1,73,235,137,1,fiveseven,,,,,,,,,,,,,,,,,,,,,,,,,,,,,,,,,,,,,,,,,,,,,,,,,,,,,,,,,,,,,,,,,,,,,,,,,,,,,,,,,,,,,,,,,,,,,,,,,,,,,,,,,,,,,,,,,,,,,,,,,,,,,,,,,,,,,,,,,
,,5eb3a51f58efe718f5cffdb4,2024-02-22_24h17.35.737,kallum_motion_pilot,2023.2.2,Linux x86_64,78.74015748,5eb3a51f58efe718f5cffdb4,65d6bb0e977760de756971f7,65d6bcaa6941bacdccd5417c,0.0744,0.0745,1,74,236,94,1,eightsix,,,,,,,,,,,,,,,,,,,,,,,,,,,,,,,,,,,,,,,,,,,,,,,,,,,,,,,,,,,,,,,,,,,,,,,,,,,,,,,,,,,,,,,,,,,,,,,,,,,,,,,,,,,,,,,,,,,,,,,,,,,,,,,,,,,,,,,,,
,,5eb3a51f58efe718f5cffdb4,2024-02-22_24h17.35.737,kallum_motion_pilot,2023.2.2,Linux x86_64,78.74015748,5eb3a51f58efe718f5cffdb4,65d6bb0e977760de756971f7,65d6bcaa6941bacdccd5417c,0.0746,0.0748,1,75,237,118,1,eightsix,,,,,,,,,,,,,,,,,,,,,,,,,,,,,,,,,,,,,,,,,,,,,,,,,,,,,,,,,,,,,,,,,,,,,,,,,,,,,,,,,,,,,,,,,,,,,,,,,,,,,,,,,,,,,,,,,,,,,,,,,,,,,,,,,,,,,,,,,
,,5eb3a51f58efe718f5cffdb4,2024-02-22_24h17.35.737,kallum_motion_pilot,2023.2.2,Linux x86_64,78.74015748,5eb3a51f58efe718f5cffdb4,65d6bb0e977760de756971f7,65d6bcaa6941bacdccd5417c,0.0748,0.075,1,76,238,24,1,onetwo,,,,,,,,,,,,,,,,,,,,,,,,,,,,,,,,,,,,,,,,,,,,,,,,,,,,,,,,,,,,,,,,,,,,,,,,,,,,,,,,,,,,,,,,,,,,,,,,,,,,,,,,,,,,,,,,,,,,,,,,,,,,,,,,,,,,,,,,,
,,5eb3a51f58efe718f5cffdb4,2024-02-22_24h17.35.737,kallum_motion_pilot,2023.2.2,Linux x86_64,78.74015748,5eb3a51f58efe718f5cffdb4,65d6bb0e977760de756971f7,65d6bcaa6941bacdccd5417c,0.0751,0.0751,1,77,239,40,1,onetwo,,,,,,,,,,,,,,,,,,,,,,,,,,,,,,,,,,,,,,,,,,,,,,,,,,,,,,,,,,,,,,,,,,,,,,,,,,,,,,,,,,,,,,,,,,,,,,,,,,,,,,,,,,,,,,,,,,,,,,,,,,,,,,,,,,,,,,,,,
,,5eb3a51f58efe718f5cffdb4,2024-02-22_24h17.35.737,kallum_motion_pilot,2023.2.2,Linux x86_64,78.74015748,5eb3a51f58efe718f5cffdb4,65d6bb0e977760de756971f7,65d6bcaa6941bacdccd5417c,0.0752,0.0754,1,78,240,44,1,threeone,,,,,,,,,,,,,,,,,,,,,,,,,,,,,,,,,,,,,,,,,,,,,,,,,,,,,,,,,,,,,,,,,,,,,,,,,,,,,,,,,,,,,,,,,,,,,,,,,,,,,,,,,,,,,,,,,,,,,,,,,,,,,,,,,,,,,,,,,
,,5eb3a51f58efe718f5cffdb4,2024-02-22_24h17.35.737,kallum_motion_pilot,2023.2.2,Linux x86_64,78.74015748,5eb3a51f58efe718f5cffdb4,65d6bb0e977760de756971f7,65d6bcaa6941bacdccd5417c,0.0755,0.0756,1,79,241,85,1,seveneight,,,,,,,,,,,,,,,,,,,,,,,,,,,,,,,,,,,,,,,,,,,,,,,,,,,,,,,,,,,,,,,,,,,,,,,,,,,,,,,,,,,,,,,,,,,,,,,,,,,,,,,,,,,,,,,,,,,,,,,,,,,,,,,,,,,,,,,,,
,,5eb3a51f58efe718f5cffdb4,2024-02-22_24h17.35.737,kallum_motion_pilot,2023.2.2,Linux x86_64,78.74015748,5eb3a51f58efe718f5cffdb4,65d6bb0e977760de756971f7,65d6bcaa6941bacdccd5417c,0.0756,0.0757,1,80,242,26,1,twoone,,,,,,,,,,,,,,,,,,,,,,,,,,,,,,,,,,,,,,,,,,,,,,,,,,,,,,,,,,,,,,,,,,,,,,,,,,,,,,,,,,,,,,,,,,,,,,,,,,,,,,,,,,,,,,,,,,,,,,,,,,,,,,,,,,,,,,,,,
,,5eb3a51f58efe718f5cffdb4,2024-02-22_24h17.35.737,kallum_motion_pilot,2023.2.2,Linux x86_64,78.74015748,5eb3a51f58efe718f5cffdb4,65d6bb0e977760de756971f7,65d6bcaa6941bacdccd5417c,0.0758,0.076,1,81,243,148,1,sevenfive,,,,,,,,,,,,,,,,,,,,,,,,,,,,,,,,,,,,,,,,,,,,,,,,,,,,,,,,,,,,,,,,,,,,,,,,,,,,,,,,,,,,,,,,,,,,,,,,,,,,,,,,,,,,,,,,,,,,,,,,,,,,,,,,,,,,,,,,,
,,5eb3a51f58efe718f5cffdb4,2024-02-22_24h17.35.737,kallum_motion_pilot,2023.2.2,Linux x86_64,78.74015748,5eb3a51f58efe718f5cffdb4,65d6bb0e977760de756971f7,65d6bcaa6941bacdccd5417c,0.0761,0.0762,1,82,244,70,1,fourtwo,,,,,,,,,,,,,,,,,,,,,,,,,,,,,,,,,,,,,,,,,,,,,,,,,,,,,,,,,,,,,,,,,,,,,,,,,,,,,,,,,,,,,,,,,,,,,,,,,,,,,,,,,,,,,,,,,,,,,,,,,,,,,,,,,,,,,,,,,
,,5eb3a51f58efe718f5cffdb4,2024-02-22_24h17.35.737,kallum_motion_pilot,2023.2.2,Linux x86_64,78.74015748,5eb3a51f58efe718f5cffdb4,65d6bb0e977760de756971f7,65d6bcaa6941bacdccd5417c,0.0762,0.0763,1,83,245,72,1,onetwo,,,,,,,,,,,,,,,,,,,,,,,,,,,,,,,,,,,,,,,,,,,,,,,,,,,,,,,,,,,,,,,,,,,,,,,,,,,,,,,,,,,,,,,,,,,,,,,,,,,,,,,,,,,,,,,,,,,,,,,,,,,,,,,,,,,,,,,,,
,,5eb3a51f58efe718f5cffdb4,2024-02-22_24h17.35.737,kallum_motion_pilot,2023.2.2,Linux x86_64,78.74015748,5eb3a51f58efe718f5cffdb4,65d6bb0e977760de756971f7,65d6bcaa6941bacdccd5417c,0.0764,0.0766,1,84,246,113,1,fiveseven,,,,,,,,,,,,,,,,,,,,,,,,,,,,,,,,,,,,,,,,,,,,,,,,,,,,,,,,,,,,,,,,,,,,,,,,,,,,,,,,,,,,,,,,,,,,,,,,,,,,,,,,,,,,,,,,,,,,,,,,,,,,,,,,,,,,,,,,,
,,5eb3a51f58efe718f5cffdb4,2024-02-22_24h17.35.737,kallum_motion_pilot,2023.2.2,Linux x86_64,78.74015748,5eb3a51f58efe718f5cffdb4,65d6bb0e977760de756971f7,65d6bcaa6941bacdccd5417c,0.0767,0.0767,1,85,247,69,1,threefour,,,,,,,,,,,,,,,,,,,,,,,,,,,,,,,,,,,,,,,,,,,,,,,,,,,,,,,,,,,,,,,,,,,,,,,,,,,,,,,,,,,,,,,,,,,,,,,,,,,,,,,,,,,,,,,,,,,,,,,,,,,,,,,,,,,,,,,,,
,,5eb3a51f58efe718f5cffdb4,2024-02-22_24h17.35.737,kallum_motion_pilot,2023.2.2,Linux x86_64,78.74015748,5eb3a51f58efe718f5cffdb4,65d6bb0e977760de756971f7,65d6bcaa6941bacdccd5417c,0.0769,0.0771,1,86,248,129,1,fiveseven,,,,,,,,,,,,,,,,,,,,,,,,,,,,,,,,,,,,,,,,,,,,,,,,,,,,,,,,,,,,,,,,,,,,,,,,,,,,,,,,,,,,,,,,,,,,,,,,,,,,,,,,,,,,,,,,,,,,,,,,,,,,,,,,,,,,,,,,,
,,5eb3a51f58efe718f5cffdb4,2024-02-22_24h17.35.737,kallum_motion_pilot,2023.2.2,Linux x86_64,78.74015748,5eb3a51f58efe718f5cffdb4,65d6bb0e977760de756971f7,65d6bcaa6941bacdccd5417c,0.0771,0.0772,1,87,249,107,1,sixeight,,,,,,,,,,,,,,,,,,,,,,,,,,,,,,,,,,,,,,,,,,,,,,,,,,,,,,,,,,,,,,,,,,,,,,,,,,,,,,,,,,,,,,,,,,,,,,,,,,,,,,,,,,,,,,,,,,,,,,,,,,,,,,,,,,,,,,,,,
,,5eb3a51f58efe718f5cffdb4,2024-02-22_24h17.35.737,kallum_motion_pilot,2023.2.2,Linux x86_64,78.74015748,5eb3a51f58efe718f5cffdb4,65d6bb0e977760de756971f7,65d6bcaa6941bacdccd5417c,0.0773,0.0774,1,88,250,32,1,onetwo,,,,,,,,,,,,,,,,,,,,,,,,,,,,,,,,,,,,,,,,,,,,,,,,,,,,,,,,,,,,,,,,,,,,,,,,,,,,,,,,,,,,,,,,,,,,,,,,,,,,,,,,,,,,,,,,,,,,,,,,,,,,,,,,,,,,,,,,,
,,5eb3a51f58efe718f5cffdb4,2024-02-22_24h17.35.737,kallum_motion_pilot,2023.2.2,Linux x86_64,78.74015748,5eb3a51f58efe718f5cffdb4,65d6bb0e977760de756971f7,65d6bcaa6941bacdccd5417c,0.0775,0.0776,1,89,251,0,1,onetwo,,,,,,,,,,,,,,,,,,,,,,,,,,,,,,,,,,,,,,,,,,,,,,,,,,,,,,,,,,,,,,,,,,,,,,,,,,,,,,,,,,,,,,,,,,,,,,,,,,,,,,,,,,,,,,,,,,,,,,,,,,,,,,,,,,,,,,,,,
,,5eb3a51f58efe718f5cffdb4,2024-02-22_24h17.35.737,kallum_motion_pilot,2023.2.2,Linux x86_64,78.74015748,5eb3a51f58efe718f5cffdb4,65d6bb0e977760de756971f7,65d6bcaa6941bacdccd5417c,0.0777,0.0778,1,90,252,150,1,eightsix,,,,,,,,,,,,,,,,,,,,,,,,,,,,,,,,,,,,,,,,,,,,,,,,,,,,,,,,,,,,,,,,,,,,,,,,,,,,,,,,,,,,,,,,,,,,,,,,,,,,,,,,,,,,,,,,,,,,,,,,,,,,,,,,,,,,,,,,,
,,5eb3a51f58efe718f5cffdb4,2024-02-22_24h17.35.737,kallum_motion_pilot,2023.2.2,Linux x86_64,78.74015748,5eb3a51f58efe718f5cffdb4,65d6bb0e977760de756971f7,65d6bcaa6941bacdccd5417c,0.0779,0.078,1,91,253,48,1,onetwo,,,,,,,,,,,,,,,,,,,,,,,,,,,,,,,,,,,,,,,,,,,,,,,,,,,,,,,,,,,,,,,,,,,,,,,,,,,,,,,,,,,,,,,,,,,,,,,,,,,,,,,,,,,,,,,,,,,,,,,,,,,,,,,,,,,,,,,,,
,,5eb3a51f58efe718f5cffdb4,2024-02-22_24h17.35.737,kallum_motion_pilot,2023.2.2,Linux x86_64,78.74015748,5eb3a51f58efe718f5cffdb4,65d6bb0e977760de756971f7,65d6bcaa6941bacdccd5417c,0.0781,0.0782,1,92,254,65,1,onethree,,,,,,,,,,,,,,,,,,,,,,,,,,,,,,,,,,,,,,,,,,,,,,,,,,,,,,,,,,,,,,,,,,,,,,,,,,,,,,,,,,,,,,,,,,,,,,,,,,,,,,,,,,,,,,,,,,,,,,,,,,,,,,,,,,,,,,,,,
,,5eb3a51f58efe718f5cffdb4,2024-02-22_24h17.35.737,kallum_motion_pilot,2023.2.2,Linux x86_64,78.74015748,5eb3a51f58efe718f5cffdb4,65d6bb0e977760de756971f7,65d6bcaa6941bacdccd5417c,0.0784,0.0785,1,93,255,5,1,threefour,,,,,,,,,,,,,,,,,,,,,,,,,,,,,,,,,,,,,,,,,,,,,,,,,,,,,,,,,,,,,,,,,,,,,,,,,,,,,,,,,,,,,,,,,,,,,,,,,,,,,,,,,,,,,,,,,,,,,,,,,,,,,,,,,,,,,,,,,
,,5eb3a51f58efe718f5cffdb4,2024-02-22_24h17.35.737,kallum_motion_pilot,2023.2.2,Linux x86_64,78.74015748,5eb3a51f58efe718f5cffdb4,65d6bb0e977760de756971f7,65d6bcaa6941bacdccd5417c,0.0786,0.0788,1,94,256,138,1,sixfive,,,,,,,,,,,,,,,,,,,,,,,,,,,,,,,,,,,,,,,,,,,,,,,,,,,,,,,,,,,,,,,,,,,,,,,,,,,,,,,,,,,,,,,,,,,,,,,,,,,,,,,,,,,,,,,,,,,,,,,,,,,,,,,,,,,,,,,,,
,,5eb3a51f58efe718f5cffdb4,2024-02-22_24h17.35.737,kallum_motion_pilot,2023.2.2,Linux x86_64,78.74015748,5eb3a51f58efe718f5cffdb4,65d6bb0e977760de756971f7,65d6bcaa6941bacdccd5417c,0.0788,0.0789,1,95,257,2,1,twoone,,,,,,,,,,,,,,,,,,,,,,,,,,,,,,,,,,,,,,,,,,,,,,,,,,,,,,,,,,,,,,,,,,,,,,,,,,,,,,,,,,,,,,,,,,,,,,,,,,,,,,,,,,,,,,,,,,,,,,,,,,,,,,,,,,,,,,,,,
,,5eb3a51f58efe718f5cffdb4,2024-02-22_24h17.35.737,kallum_motion_pilot,2023.2.2,Linux x86_64,78.74015748,5eb3a51f58efe718f5cffdb4,65d6bb0e977760de756971f7,65d6bcaa6941bacdccd5417c,0.0798,0.0798,1,96,258,81,1,fiveseven,,,,,,,,,,,,,,,,,,,,,,,,,,,,,,,,,,,,,,,,,,,,,,,,,,,,,,,,,,,,,,,,,,,,,,,,,,,,,,,,,,,,,,,,,,,,,,,,,,,,,,,,,,,,,,,,,,,,,,,,,,,,,,,,,,,,,,,,,
,,5eb3a51f58efe718f5cffdb4,2024-02-22_24h17.35.737,kallum_motion_pilot,2023.2.2,Linux x86_64,78.74015748,5eb3a51f58efe718f5cffdb4,65d6bb0e977760de756971f7,65d6bcaa6941bacdccd5417c,0.0799,0.08,1,97,259,111,1,eightseven,,,,,,,,,,,,,,,,,,,,,,,,,,,,,,,,,,,,,,,,,,,,,,,,,,,,,,,,,,,,,,,,,,,,,,,,,,,,,,,,,,,,,,,,,,,,,,,,,,,,,,,,,,,,,,,,,,,,,,,,,,,,,,,,,,,,,,,,,
,,5eb3a51f58efe718f5cffdb4,2024-02-22_24h17.35.737,kallum_motion_pilot,2023.2.2,Linux x86_64,78.74015748,5eb3a51f58efe718f5cffdb4,65d6bb0e977760de756971f7,65d6bcaa6941bacdccd5417c,0.0802,0.0802,1,98,260,14,1,fourtwo,,,,,,,,,,,,,,,,,,,,,,,,,,,,,,,,,,,,,,,,,,,,,,,,,,,,,,,,,,,,,,,,,,,,,,,,,,,,,,,,,,,,,,,,,,,,,,,,,,,,,,,,,,,,,,,,,,,,,,,,,,,,,,,,,,,,,,,,,
,,5eb3a51f58efe718f5cffdb4,2024-02-22_24h17.35.737,kallum_motion_pilot,2023.2.2,Linux x86_64,78.74015748,5eb3a51f58efe718f5cffdb4,65d6bb0e977760de756971f7,65d6bcaa6941bacdccd5417c,0.0803,0.0805,1,99,261,125,1,seveneight,,,,,,,,,,,,,,,,,,,,,,,,,,,,,,,,,,,,,,,,,,,,,,,,,,,,,,,,,,,,,,,,,,,,,,,,,,,,,,,,,,,,,,,,,,,,,,,,,,,,,,,,,,,,,,,,,,,,,,,,,,,,,,,,,,,,,,,,,
,,5eb3a51f58efe718f5cffdb4,2024-02-22_24h17.35.737,kallum_motion_pilot,2023.2.2,Linux x86_64,78.74015748,5eb3a51f58efe718f5cffdb4,65d6bb0e977760de756971f7,65d6bcaa6941bacdccd5417c,0.0805,0.0807,1,100,262,17,1,onethree,,,,,,,,,,,,,,,,,,,,,,,,,,,,,,,,,,,,,,,,,,,,,,,,,,,,,,,,,,,,,,,,,,,,,,,,,,,,,,,,,,,,,,,,,,,,,,,,,,,,,,,,,,,,,,,,,,,,,,,,,,,,,,,,,,,,,,,,,
,,5eb3a51f58efe718f5cffdb4,2024-02-22_24h17.35.737,kallum_motion_pilot,2023.2.2,Linux x86_64,78.74015748,5eb3a51f58efe718f5cffdb4,65d6bb0e977760de756971f7,65d6bcaa6941bacdccd5417c,0.0808,0.0809,1,101,263,139,1,sixeight,,,,,,,,,,,,,,,,,,,,,,,,,,,,,,,,,,,,,,,,,,,,,,,,,,,,,,,,,,,,,,,,,,,,,,,,,,,,,,,,,,,,,,,,,,,,,,,,,,,,,,,,,,,,,,,,,,,,,,,,,,,,,,,,,,,,,,,,,
,,5eb3a51f58efe718f5cffdb4,2024-02-22_24h17.35.737,kallum_motion_pilot,2023.2.2,Linux x86_64,78.74015748,5eb3a51f58efe718f5cffdb4,65d6bb0e977760de756971f7,65d6bcaa6941bacdccd5417c,0.081,0.0812,1,102,264,36,1,threeone,,,,,,,,,,,,,,,,,,,,,,,,,,,,,,,,,,,,,,,,,,,,,,,,,,,,,,,,,,,,,,,,,,,,,,,,,,,,,,,,,,,,,,,,,,,,,,,,,,,,,,,,,,,,,,,,,,,,,,,,,,,,,,,,,,,,,,,,,
,,5eb3a51f58efe718f5cffdb4,2024-02-22_24h17.35.737,kallum_motion_pilot,2023.2.2,Linux x86_64,78.74015748,5eb3a51f58efe718f5cffdb4,65d6bb0e977760de756971f7,65d6bcaa6941bacdccd5417c,0.0812,0.0813,1,103,265,45,1,threefour,,,,,,,,,,,,,,,,,,,,,,,,,,,,,,,,,,,,,,,,,,,,,,,,,,,,,,,,,,,,,,,,,,,,,,,,,,,,,,,,,,,,,,,,,,,,,,,,,,,,,,,,,,,,,,,,,,,,,,,,,,,,,,,,,,,,,,,,,
,,5eb3a51f58efe718f5cffdb4,2024-02-22_24h17.35.737,kallum_motion_pilot,2023.2.2,Linux x86_64,78.74015748,5eb3a51f58efe718f5cffdb4,65d6bb0e977760de756971f7,65d6bcaa6941bacdccd5417c,0.0815,0.0816,1,104,266,19,1,twofour,,,,,,,,,,,,,,,,,,,,,,,,,,,,,,,,,,,,,,,,,,,,,,,,,,,,,,,,,,,,,,,,,,,,,,,,,,,,,,,,,,,,,,,,,,,,,,,,,,,,,,,,,,,,,,,,,,,,,,,,,,,,,,,,,,,,,,,,,
,,5eb3a51f58efe718f5cffdb4,2024-02-22_24h17.35.737,kallum_motion_pilot,2023.2.2,Linux x86_64,78.74015748,5eb3a51f58efe718f5cffdb4,65d6bb0e977760de756971f7,65d6bcaa6941bacdccd5417c,0.0817,0.0818,1,105,267,38,1,fourtwo,,,,,,,,,,,,,,,,,,,,,,,,,,,,,,,,,,,,,,,,,,,,,,,,,,,,,,,,,,,,,,,,,,,,,,,,,,,,,,,,,,,,,,,,,,,,,,,,,,,,,,,,,,,,,,,,,,,,,,,,,,,,,,,,,,,,,,,,,
,,5eb3a51f58efe718f5cffdb4,2024-02-22_24h17.35.737,kallum_motion_pilot,2023.2.2,Linux x86_64,78.74015748,5eb3a51f58efe718f5cffdb4,65d6bb0e977760de756971f7,65d6bcaa6941bacdccd5417c,0.0819,0.082,1,106,268,102,1,eightsix,,,,,,,,,,,,,,,,,,,,,,,,,,,,,,,,,,,,,,,,,,,,,,,,,,,,,,,,,,,,,,,,,,,,,,,,,,,,,,,,,,,,,,,,,,,,,,,,,,,,,,,,,,,,,,,,,,,,,,,,,,,,,,,,,,,,,,,,,
,,5eb3a51f58efe718f5cffdb4,2024-02-22_24h17.35.737,kallum_motion_pilot,2023.2.2,Linux x86_64,78.74015748,5eb3a51f58efe718f5cffdb4,65d6bb0e977760de756971f7,65d6bcaa6941bacdccd5417c,0.0821,0.0823,1,107,269,78,1,fourtwo,,,,,,,,,,,,,,,,,,,,,,,,,,,,,,,,,,,,,,,,,,,,,,,,,,,,,,,,,,,,,,,,,,,,,,,,,,,,,,,,,,,,,,,,,,,,,,,,,,,,,,,,,,,,,,,,,,,,,,,,,,,,,,,,,,,,,,,,,
,,5eb3a51f58efe718f5cffdb4,2024-02-22_24h17.35.737,kallum_motion_pilot,2023.2.2,Linux x86_64,78.74015748,5eb3a51f58efe718f5cffdb4,65d6bb0e977760de756971f7,65d6bcaa6941bacdccd5417c,0.0823,0.0824,1,108,270,46,1,fourtwo,,,,,,,,,,,,,,,,,,,,,,,,,,,,,,,,,,,,,,,,,,,,,,,,,,,,,,,,,,,,,,,,,,,,,,,,,,,,,,,,,,,,,,,,,,,,,,,,,,,,,,,,,,,,,,,,,,,,,,,,,,,,,,,,,,,,,,,,,
,,5eb3a51f58efe718f5cffdb4,2024-02-22_24h17.35.737,kallum_motion_pilot,2023.2.2,Linux x86_64,78.74015748,5eb3a51f58efe718f5cffdb4,65d6bb0e977760de756971f7,65d6bcaa6941bacdccd5417c,0.0825,0.0826,1,109,271,11,1,twofour,,,,,,,,,,,,,,,,,,,,,,,,,,,,,,,,,,,,,,,,,,,,,,,,,,,,,,,,,,,,,,,,,,,,,,,,,,,,,,,,,,,,,,,,,,,,,,,,,,,,,,,,,,,,,,,,,,,,,,,,,,,,,,,,,,,,,,,,,
,,5eb3a51f58efe718f5cffdb4,2024-02-22_24h17.35.737,kallum_motion_pilot,2023.2.2,Linux x86_64,78.74015748,5eb3a51f58efe718f5cffdb4,65d6bb0e977760de756971f7,65d6bcaa6941bacdccd5417c,0.0827,0.0828,1,110,272,76,1,threeone,,,,,,,,,,,,,,,,,,,,,,,,,,,,,,,,,,,,,,,,,,,,,,,,,,,,,,,,,,,,,,,,,,,,,,,,,,,,,,,,,,,,,,,,,,,,,,,,,,,,,,,,,,,,,,,,,,,,,,,,,,,,,,,,,,,,,,,,,
