startup.started,startup.stopped,Prolific ID*,date,expName,psychopyVersion,OS,frameRate,participant,study_id,session,stimpositions.started,stimpositions.stopped,hardcoded_stimulus_positions.thisRepN,hardcoded_stimulus_positions.thisTrialN,hardcoded_stimulus_positions.thisN,hardcoded_stimulus_positions.thisIndex,hardcoded_stimulus_positions.ran,StimulusPos,stimorientation.started,stimorientation.stopped,prac_stimorientation_import_loop.thisRepN,prac_stimorientation_import_loop.thisTrialN,prac_stimorientation_import_loop.thisN,prac_stimorientation_import_loop.thisIndex,prac_stimorientation_import_loop.ran,Stimorientation,welcome_instr.started,welcome_instr.stopped,key_resp.keys,key_resp.rt,key_resp.duration,response_steppedout_1.started,response_steppedout_1.stopped,key_resp_20.keys,key_resp_20.rt,key_resp_20.duration,response_steppedout_2.started,response_steppedout_2.stopped,key_resp_19.keys,key_resp_19.rt,key_resp_19.duration,stim_response_instr.started,stim_response_instr.stopped,key_resp_15.keys,key_resp_15.rt,key_resp_15.duration,direction_instr_2.started,direction_instr_2.stopped,key_resp_9.keys,key_resp_9.rt,key_resp_9.duration,instr_prac.started,instr_prac.stopped,key_resp_10.keys,key_resp_10.rt,key_resp_10.duration,Stim1_display_prac.started,Stim1_display_prac.stopped,Ecc,Circle1_ori,Circle2_ori,response_prac.started,similarity,response_time,response_prac.stopped,mouse_5.x,mouse_5.y,mouse_5.leftButton,mouse_5.midButton,mouse_5.rightButton,mouse_5.clicked_name,responseprac_feedback.started,responseprac_feedback.stopped,summary2_prac.started,summary2_prac.stopped,mouse_6.x,mouse_6.y,mouse_6.leftButton,mouse_6.midButton,mouse_6.rightButton,mouse_6.clicked_name,duringprac.thisRepN,duringprac.thisTrialN,duringprac.thisN,duringprac.thisIndex,duringprac.ran,begin.started,begin.stopped,key_resp_22.keys,key_resp_22.rt,key_resp_22.duration,Stim1_display.started,Stim1_display.stopped,circle1_ori,circle2_ori,circle1_SF,circle2_SF,response.started,response.stopped,mouse.x,mouse.y,mouse.leftButton,mouse.midButton,mouse.rightButton,mouse.clicked_name,trialnumber,double_pass.thisRepN,double_pass.thisTrialN,double_pass.thisN,double_pass.thisIndex,double_pass.ran,double_pass.order,main_trial.thisRepN,main_trial.thisTrialN,main_trial.thisN,main_trial.thisIndex,main_trial.ran,main_trial.order,Trial_Counter,Catch,Frequencies,response_2.started,response_2.stopped,mouse_2.x,mouse_2.y,mouse_2.leftButton,mouse_2.midButton,mouse_2.rightButton,mouse_2.clicked_name,special_trial.started,special_trial.stopped,catch_1.started,catch_1.stopped,mouse_3.x,mouse_3.y,mouse_3.leftButton,mouse_3.midButton,mouse_3.rightButton,catchresponse,catchnumber,response_time_catch,response_sum.started,response_sum.stopped,mouse_11.x,mouse_11.y,mouse_11.leftButton,mouse_11.midButton,mouse_11.rightButton,flip_presentation_sequence_for_double_pass.started,flip_presentation_sequence_for_double_pass.stopped,goodbye.started,goodbye.stopped,key_resp_3.keys,key_resp_3.rt,key_resp_3.duration
0.0005,0.0005,5ebabd40d9ef2902351e4445,2024-02-19_03h06.28.142,kallum_motion_pilot,2023.2.2,Win32,20,5ebabd40d9ef2902351e4445,65d2b6c8f2eece985d8e374c,65d2b799b376ecff2523cbe4,,,,,,,,,,,,,,,,,,,,,,,,,,,,,,,,,,,,,,,,,,,,,,,,,,,,,,,,,,,,,,,,,,,,,,,,,,,,,,,,,,,,,,,,,,,,,,,,,,,,,,,,,,,,,,,,,,,,,,,,,,,,,,,,,,,,,,,,,,,,,,,,,
,,5ebabd40d9ef2902351e4445,2024-02-19_03h06.28.142,kallum_motion_pilot,2023.2.2,Win32,20,5ebabd40d9ef2902351e4445,65d2b6c8f2eece985d8e374c,65d2b799b376ecff2523cbe4,0.0133,0.0133,0,0,0,31,1,fourthree,,,,,,,,,,,,,,,,,,,,,,,,,,,,,,,,,,,,,,,,,,,,,,,,,,,,,,,,,,,,,,,,,,,,,,,,,,,,,,,,,,,,,,,,,,,,,,,,,,,,,,,,,,,,,,,,,,,,,,,,,,,,,,,,,,,,,,,,,
,,5ebabd40d9ef2902351e4445,2024-02-19_03h06.28.142,kallum_motion_pilot,2023.2.2,Win32,20,5ebabd40d9ef2902351e4445,65d2b6c8f2eece985d8e374c,65d2b799b376ecff2523cbe4,0.0135,0.0135,0,1,1,85,1,seveneight,,,,,,,,,,,,,,,,,,,,,,,,,,,,,,,,,,,,,,,,,,,,,,,,,,,,,,,,,,,,,,,,,,,,,,,,,,,,,,,,,,,,,,,,,,,,,,,,,,,,,,,,,,,,,,,,,,,,,,,,,,,,,,,,,,,,,,,,,
,,5ebabd40d9ef2902351e4445,2024-02-19_03h06.28.142,kallum_motion_pilot,2023.2.2,Win32,20,5ebabd40d9ef2902351e4445,65d2b6c8f2eece985d8e374c,65d2b799b376ecff2523cbe4,0.0135,0.0135,0,2,2,90,1,sixfive,,,,,,,,,,,,,,,,,,,,,,,,,,,,,,,,,,,,,,,,,,,,,,,,,,,,,,,,,,,,,,,,,,,,,,,,,,,,,,,,,,,,,,,,,,,,,,,,,,,,,,,,,,,,,,,,,,,,,,,,,,,,,,,,,,,,,,,,,
,,5ebabd40d9ef2902351e4445,2024-02-19_03h06.28.142,kallum_motion_pilot,2023.2.2,Win32,20,5ebabd40d9ef2902351e4445,65d2b6c8f2eece985d8e374c,65d2b799b376ecff2523cbe4,0.0136,0.0136,0,3,3,25,1,onethree,,,,,,,,,,,,,,,,,,,,,,,,,,,,,,,,,,,,,,,,,,,,,,,,,,,,,,,,,,,,,,,,,,,,,,,,,,,,,,,,,,,,,,,,,,,,,,,,,,,,,,,,,,,,,,,,,,,,,,,,,,,,,,,,,,,,,,,,,
,,5ebabd40d9ef2902351e4445,2024-02-19_03h06.28.142,kallum_motion_pilot,2023.2.2,Win32,20,5ebabd40d9ef2902351e4445,65d2b6c8f2eece985d8e374c,65d2b799b376ecff2523cbe4,0.0137,0.0137,0,4,4,126,1,eightsix,,,,,,,,,,,,,,,,,,,,,,,,,,,,,,,,,,,,,,,,,,,,,,,,,,,,,,,,,,,,,,,,,,,,,,,,,,,,,,,,,,,,,,,,,,,,,,,,,,,,,,,,,,,,,,,,,,,,,,,,,,,,,,,,,,,,,,,,,
,,5ebabd40d9ef2902351e4445,2024-02-19_03h06.28.142,kallum_motion_pilot,2023.2.2,Win32,20,5ebabd40d9ef2902351e4445,65d2b6c8f2eece985d8e374c,65d2b799b376ecff2523cbe4,0.0138,0.0138,0,5,5,122,1,sixfive,,,,,,,,,,,,,,,,,,,,,,,,,,,,,,,,,,,,,,,,,,,,,,,,,,,,,,,,,,,,,,,,,,,,,,,,,,,,,,,,,,,,,,,,,,,,,,,,,,,,,,,,,,,,,,,,,,,,,,,,,,,,,,,,,,,,,,,,,
,,5ebabd40d9ef2902351e4445,2024-02-19_03h06.28.142,kallum_motion_pilot,2023.2.2,Win32,20,5ebabd40d9ef2902351e4445,65d2b6c8f2eece985d8e374c,65d2b799b376ecff2523cbe4,0.0139,0.0139,0,6,6,46,1,fourtwo,,,,,,,,,,,,,,,,,,,,,,,,,,,,,,,,,,,,,,,,,,,,,,,,,,,,,,,,,,,,,,,,,,,,,,,,,,,,,,,,,,,,,,,,,,,,,,,,,,,,,,,,,,,,,,,,,,,,,,,,,,,,,,,,,,,,,,,,,
,,5ebabd40d9ef2902351e4445,2024-02-19_03h06.28.142,kallum_motion_pilot,2023.2.2,Win32,20,5ebabd40d9ef2902351e4445,65d2b6c8f2eece985d8e374c,65d2b799b376ecff2523cbe4,0.0139,0.0139,0,7,7,150,1,eightsix,,,,,,,,,,,,,,,,,,,,,,,,,,,,,,,,,,,,,,,,,,,,,,,,,,,,,,,,,,,,,,,,,,,,,,,,,,,,,,,,,,,,,,,,,,,,,,,,,,,,,,,,,,,,,,,,,,,,,,,,,,,,,,,,,,,,,,,,,
,,5ebabd40d9ef2902351e4445,2024-02-19_03h06.28.142,kallum_motion_pilot,2023.2.2,Win32,20,5ebabd40d9ef2902351e4445,65d2b6c8f2eece985d8e374c,65d2b799b376ecff2523cbe4,0.014,0.014,0,8,8,69,1,threefour,,,,,,,,,,,,,,,,,,,,,,,,,,,,,,,,,,,,,,,,,,,,,,,,,,,,,,,,,,,,,,,,,,,,,,,,,,,,,,,,,,,,,,,,,,,,,,,,,,,,,,,,,,,,,,,,,,,,,,,,,,,,,,,,,,,,,,,,,
,,5ebabd40d9ef2902351e4445,2024-02-19_03h06.28.142,kallum_motion_pilot,2023.2.2,Win32,20,5ebabd40d9ef2902351e4445,65d2b6c8f2eece985d8e374c,65d2b799b376ecff2523cbe4,0.0141,0.0141,0,9,9,49,1,onethree,,,,,,,,,,,,,,,,,,,,,,,,,,,,,,,,,,,,,,,,,,,,,,,,,,,,,,,,,,,,,,,,,,,,,,,,,,,,,,,,,,,,,,,,,,,,,,,,,,,,,,,,,,,,,,,,,,,,,,,,,,,,,,,,,,,,,,,,,
,,5ebabd40d9ef2902351e4445,2024-02-19_03h06.28.142,kallum_motion_pilot,2023.2.2,Win32,20,5ebabd40d9ef2902351e4445,65d2b6c8f2eece985d8e374c,65d2b799b376ecff2523cbe4,0.0142,0.0142,0,10,10,109,1,seveneight,,,,,,,,,,,,,,,,,,,,,,,,,,,,,,,,,,,,,,,,,,,,,,,,,,,,,,,,,,,,,,,,,,,,,,,,,,,,,,,,,,,,,,,,,,,,,,,,,,,,,,,,,,,,,,,,,,,,,,,,,,,,,,,,,,,,,,,,,
,,5ebabd40d9ef2902351e4445,2024-02-19_03h06.28.142,kallum_motion_pilot,2023.2.2,Win32,20,5ebabd40d9ef2902351e4445,65d2b6c8f2eece985d8e374c,65d2b799b376ecff2523cbe4,0.0143,0.0143,0,11,11,53,1,threefour,,,,,,,,,,,,,,,,,,,,,,,,,,,,,,,,,,,,,,,,,,,,,,,,,,,,,,,,,,,,,,,,,,,,,,,,,,,,,,,,,,,,,,,,,,,,,,,,,,,,,,,,,,,,,,,,,,,,,,,,,,,,,,,,,,,,,,,,,
,,5ebabd40d9ef2902351e4445,2024-02-19_03h06.28.142,kallum_motion_pilot,2023.2.2,Win32,20,5ebabd40d9ef2902351e4445,65d2b6c8f2eece985d8e374c,65d2b799b376ecff2523cbe4,0.0143,0.0143,0,12,12,5,1,threefour,,,,,,,,,,,,,,,,,,,,,,,,,,,,,,,,,,,,,,,,,,,,,,,,,,,,,,,,,,,,,,,,,,,,,,,,,,,,,,,,,,,,,,,,,,,,,,,,,,,,,,,,,,,,,,,,,,,,,,,,,,,,,,,,,,,,,,,,,
,,5ebabd40d9ef2902351e4445,2024-02-19_03h06.28.142,kallum_motion_pilot,2023.2.2,Win32,20,5ebabd40d9ef2902351e4445,65d2b6c8f2eece985d8e374c,65d2b799b376ecff2523cbe4,0.0144,0.0144,0,13,13,137,1,fiveseven,,,,,,,,,,,,,,,,,,,,,,,,,,,,,,,,,,,,,,,,,,,,,,,,,,,,,,,,,,,,,,,,,,,,,,,,,,,,,,,,,,,,,,,,,,,,,,,,,,,,,,,,,,,,,,,,,,,,,,,,,,,,,,,,,,,,,,,,,
,,5ebabd40d9ef2902351e4445,2024-02-19_03h06.28.142,kallum_motion_pilot,2023.2.2,Win32,20,5ebabd40d9ef2902351e4445,65d2b6c8f2eece985d8e374c,65d2b799b376ecff2523cbe4,0.0144,0.0144,0,14,14,34,1,twoone,,,,,,,,,,,,,,,,,,,,,,,,,,,,,,,,,,,,,,,,,,,,,,,,,,,,,,,,,,,,,,,,,,,,,,,,,,,,,,,,,,,,,,,,,,,,,,,,,,,,,,,,,,,,,,,,,,,,,,,,,,,,,,,,,,,,,,,,,
,,5ebabd40d9ef2902351e4445,2024-02-19_03h06.28.142,kallum_motion_pilot,2023.2.2,Win32,20,5ebabd40d9ef2902351e4445,65d2b6c8f2eece985d8e374c,65d2b799b376ecff2523cbe4,0.0144,0.0144,0,15,15,67,1,twofour,,,,,,,,,,,,,,,,,,,,,,,,,,,,,,,,,,,,,,,,,,,,,,,,,,,,,,,,,,,,,,,,,,,,,,,,,,,,,,,,,,,,,,,,,,,,,,,,,,,,,,,,,,,,,,,,,,,,,,,,,,,,,,,,,,,,,,,,,
,,5ebabd40d9ef2902351e4445,2024-02-19_03h06.28.142,kallum_motion_pilot,2023.2.2,Win32,20,5ebabd40d9ef2902351e4445,65d2b6c8f2eece985d8e374c,65d2b799b376ecff2523cbe4,0.0145,0.0145,0,16,16,87,1,eightseven,,,,,,,,,,,,,,,,,,,,,,,,,,,,,,,,,,,,,,,,,,,,,,,,,,,,,,,,,,,,,,,,,,,,,,,,,,,,,,,,,,,,,,,,,,,,,,,,,,,,,,,,,,,,,,,,,,,,,,,,,,,,,,,,,,,,,,,,,
,,5ebabd40d9ef2902351e4445,2024-02-19_03h06.28.142,kallum_motion_pilot,2023.2.2,Win32,20,5ebabd40d9ef2902351e4445,65d2b6c8f2eece985d8e374c,65d2b799b376ecff2523cbe4,0.0145,0.0146,0,17,17,130,1,sixfive,,,,,,,,,,,,,,,,,,,,,,,,,,,,,,,,,,,,,,,,,,,,,,,,,,,,,,,,,,,,,,,,,,,,,,,,,,,,,,,,,,,,,,,,,,,,,,,,,,,,,,,,,,,,,,,,,,,,,,,,,,,,,,,,,,,,,,,,,
,,5ebabd40d9ef2902351e4445,2024-02-19_03h06.28.142,kallum_motion_pilot,2023.2.2,Win32,20,5ebabd40d9ef2902351e4445,65d2b6c8f2eece985d8e374c,65d2b799b376ecff2523cbe4,0.0147,0.0147,0,18,18,68,1,threeone,,,,,,,,,,,,,,,,,,,,,,,,,,,,,,,,,,,,,,,,,,,,,,,,,,,,,,,,,,,,,,,,,,,,,,,,,,,,,,,,,,,,,,,,,,,,,,,,,,,,,,,,,,,,,,,,,,,,,,,,,,,,,,,,,,,,,,,,,
,,5ebabd40d9ef2902351e4445,2024-02-19_03h06.28.142,kallum_motion_pilot,2023.2.2,Win32,20,5ebabd40d9ef2902351e4445,65d2b6c8f2eece985d8e374c,65d2b799b376ecff2523cbe4,0.0147,0.0147,0,19,19,76,1,threeone,,,,,,,,,,,,,,,,,,,,,,,,,,,,,,,,,,,,,,,,,,,,,,,,,,,,,,,,,,,,,,,,,,,,,,,,,,,,,,,,,,,,,,,,,,,,,,,,,,,,,,,,,,,,,,,,,,,,,,,,,,,,,,,,,,,,,,,,,
,,5ebabd40d9ef2902351e4445,2024-02-19_03h06.28.142,kallum_motion_pilot,2023.2.2,Win32,20,5ebabd40d9ef2902351e4445,65d2b6c8f2eece985d8e374c,65d2b799b376ecff2523cbe4,0.0148,0.0148,0,20,20,78,1,fourtwo,,,,,,,,,,,,,,,,,,,,,,,,,,,,,,,,,,,,,,,,,,,,,,,,,,,,,,,,,,,,,,,,,,,,,,,,,,,,,,,,,,,,,,,,,,,,,,,,,,,,,,,,,,,,,,,,,,,,,,,,,,,,,,,,,,,,,,,,,
,,5ebabd40d9ef2902351e4445,2024-02-19_03h06.28.142,kallum_motion_pilot,2023.2.2,Win32,20,5ebabd40d9ef2902351e4445,65d2b6c8f2eece985d8e374c,65d2b799b376ecff2523cbe4,0.0148,0.0148,0,21,21,15,1,fourthree,,,,,,,,,,,,,,,,,,,,,,,,,,,,,,,,,,,,,,,,,,,,,,,,,,,,,,,,,,,,,,,,,,,,,,,,,,,,,,,,,,,,,,,,,,,,,,,,,,,,,,,,,,,,,,,,,,,,,,,,,,,,,,,,,,,,,,,,,
,,5ebabd40d9ef2902351e4445,2024-02-19_03h06.28.142,kallum_motion_pilot,2023.2.2,Win32,20,5ebabd40d9ef2902351e4445,65d2b6c8f2eece985d8e374c,65d2b799b376ecff2523cbe4,0.0148,0.0149,0,22,22,37,1,threefour,,,,,,,,,,,,,,,,,,,,,,,,,,,,,,,,,,,,,,,,,,,,,,,,,,,,,,,,,,,,,,,,,,,,,,,,,,,,,,,,,,,,,,,,,,,,,,,,,,,,,,,,,,,,,,,,,,,,,,,,,,,,,,,,,,,,,,,,,
,,5ebabd40d9ef2902351e4445,2024-02-19_03h06.28.142,kallum_motion_pilot,2023.2.2,Win32,20,5ebabd40d9ef2902351e4445,65d2b6c8f2eece985d8e374c,65d2b799b376ecff2523cbe4,0.0149,0.0149,0,23,23,32,1,onetwo,,,,,,,,,,,,,,,,,,,,,,,,,,,,,,,,,,,,,,,,,,,,,,,,,,,,,,,,,,,,,,,,,,,,,,,,,,,,,,,,,,,,,,,,,,,,,,,,,,,,,,,,,,,,,,,,,,,,,,,,,,,,,,,,,,,,,,,,,
,,5ebabd40d9ef2902351e4445,2024-02-19_03h06.28.142,kallum_motion_pilot,2023.2.2,Win32,20,5ebabd40d9ef2902351e4445,65d2b6c8f2eece985d8e374c,65d2b799b376ecff2523cbe4,0.015,0.015,0,24,24,135,1,eightseven,,,,,,,,,,,,,,,,,,,,,,,,,,,,,,,,,,,,,,,,,,,,,,,,,,,,,,,,,,,,,,,,,,,,,,,,,,,,,,,,,,,,,,,,,,,,,,,,,,,,,,,,,,,,,,,,,,,,,,,,,,,,,,,,,,,,,,,,,
,,5ebabd40d9ef2902351e4445,2024-02-19_03h06.28.142,kallum_motion_pilot,2023.2.2,Win32,20,5ebabd40d9ef2902351e4445,65d2b6c8f2eece985d8e374c,65d2b799b376ecff2523cbe4,0.015,0.015,0,25,25,133,1,seveneight,,,,,,,,,,,,,,,,,,,,,,,,,,,,,,,,,,,,,,,,,,,,,,,,,,,,,,,,,,,,,,,,,,,,,,,,,,,,,,,,,,,,,,,,,,,,,,,,,,,,,,,,,,,,,,,,,,,,,,,,,,,,,,,,,,,,,,,,,
,,5ebabd40d9ef2902351e4445,2024-02-19_03h06.28.142,kallum_motion_pilot,2023.2.2,Win32,20,5ebabd40d9ef2902351e4445,65d2b6c8f2eece985d8e374c,65d2b799b376ecff2523cbe4,0.0151,0.0151,0,26,26,61,1,threefour,,,,,,,,,,,,,,,,,,,,,,,,,,,,,,,,,,,,,,,,,,,,,,,,,,,,,,,,,,,,,,,,,,,,,,,,,,,,,,,,,,,,,,,,,,,,,,,,,,,,,,,,,,,,,,,,,,,,,,,,,,,,,,,,,,,,,,,,,
,,5ebabd40d9ef2902351e4445,2024-02-19_03h06.28.142,kallum_motion_pilot,2023.2.2,Win32,20,5ebabd40d9ef2902351e4445,65d2b6c8f2eece985d8e374c,65d2b799b376ecff2523cbe4,0.0151,0.0152,0,27,27,123,1,sixeight,,,,,,,,,,,,,,,,,,,,,,,,,,,,,,,,,,,,,,,,,,,,,,,,,,,,,,,,,,,,,,,,,,,,,,,,,,,,,,,,,,,,,,,,,,,,,,,,,,,,,,,,,,,,,,,,,,,,,,,,,,,,,,,,,,,,,,,,,
,,5ebabd40d9ef2902351e4445,2024-02-19_03h06.28.142,kallum_motion_pilot,2023.2.2,Win32,20,5ebabd40d9ef2902351e4445,65d2b6c8f2eece985d8e374c,65d2b799b376ecff2523cbe4,0.0152,0.0153,0,28,28,39,1,fourthree,,,,,,,,,,,,,,,,,,,,,,,,,,,,,,,,,,,,,,,,,,,,,,,,,,,,,,,,,,,,,,,,,,,,,,,,,,,,,,,,,,,,,,,,,,,,,,,,,,,,,,,,,,,,,,,,,,,,,,,,,,,,,,,,,,,,,,,,,
,,5ebabd40d9ef2902351e4445,2024-02-19_03h06.28.142,kallum_motion_pilot,2023.2.2,Win32,20,5ebabd40d9ef2902351e4445,65d2b6c8f2eece985d8e374c,65d2b799b376ecff2523cbe4,0.0153,0.0153,0,29,29,88,1,fivesix,,,,,,,,,,,,,,,,,,,,,,,,,,,,,,,,,,,,,,,,,,,,,,,,,,,,,,,,,,,,,,,,,,,,,,,,,,,,,,,,,,,,,,,,,,,,,,,,,,,,,,,,,,,,,,,,,,,,,,,,,,,,,,,,,,,,,,,,,
,,5ebabd40d9ef2902351e4445,2024-02-19_03h06.28.142,kallum_motion_pilot,2023.2.2,Win32,20,5ebabd40d9ef2902351e4445,65d2b6c8f2eece985d8e374c,65d2b799b376ecff2523cbe4,0.0154,0.0154,0,30,30,47,1,fourthree,,,,,,,,,,,,,,,,,,,,,,,,,,,,,,,,,,,,,,,,,,,,,,,,,,,,,,,,,,,,,,,,,,,,,,,,,,,,,,,,,,,,,,,,,,,,,,,,,,,,,,,,,,,,,,,,,,,,,,,,,,,,,,,,,,,,,,,,,
,,5ebabd40d9ef2902351e4445,2024-02-19_03h06.28.142,kallum_motion_pilot,2023.2.2,Win32,20,5ebabd40d9ef2902351e4445,65d2b6c8f2eece985d8e374c,65d2b799b376ecff2523cbe4,0.0154,0.0154,0,31,31,45,1,threefour,,,,,,,,,,,,,,,,,,,,,,,,,,,,,,,,,,,,,,,,,,,,,,,,,,,,,,,,,,,,,,,,,,,,,,,,,,,,,,,,,,,,,,,,,,,,,,,,,,,,,,,,,,,,,,,,,,,,,,,,,,,,,,,,,,,,,,,,,
,,5ebabd40d9ef2902351e4445,2024-02-19_03h06.28.142,kallum_motion_pilot,2023.2.2,Win32,20,5ebabd40d9ef2902351e4445,65d2b6c8f2eece985d8e374c,65d2b799b376ecff2523cbe4,0.0155,0.0155,0,32,32,128,1,fivesix,,,,,,,,,,,,,,,,,,,,,,,,,,,,,,,,,,,,,,,,,,,,,,,,,,,,,,,,,,,,,,,,,,,,,,,,,,,,,,,,,,,,,,,,,,,,,,,,,,,,,,,,,,,,,,,,,,,,,,,,,,,,,,,,,,,,,,,,,
,,5ebabd40d9ef2902351e4445,2024-02-19_03h06.28.142,kallum_motion_pilot,2023.2.2,Win32,20,5ebabd40d9ef2902351e4445,65d2b6c8f2eece985d8e374c,65d2b799b376ecff2523cbe4,0.0155,0.0155,0,33,33,6,1,fourtwo,,,,,,,,,,,,,,,,,,,,,,,,,,,,,,,,,,,,,,,,,,,,,,,,,,,,,,,,,,,,,,,,,,,,,,,,,,,,,,,,,,,,,,,,,,,,,,,,,,,,,,,,,,,,,,,,,,,,,,,,,,,,,,,,,,,,,,,,,
,,5ebabd40d9ef2902351e4445,2024-02-19_03h06.28.142,kallum_motion_pilot,2023.2.2,Win32,20,5ebabd40d9ef2902351e4445,65d2b6c8f2eece985d8e374c,65d2b799b376ecff2523cbe4,0.0155,0.0155,0,34,34,38,1,fourtwo,,,,,,,,,,,,,,,,,,,,,,,,,,,,,,,,,,,,,,,,,,,,,,,,,,,,,,,,,,,,,,,,,,,,,,,,,,,,,,,,,,,,,,,,,,,,,,,,,,,,,,,,,,,,,,,,,,,,,,,,,,,,,,,,,,,,,,,,,
,,5ebabd40d9ef2902351e4445,2024-02-19_03h06.28.142,kallum_motion_pilot,2023.2.2,Win32,20,5ebabd40d9ef2902351e4445,65d2b6c8f2eece985d8e374c,65d2b799b376ecff2523cbe4,0.0156,0.0156,0,35,35,16,1,onetwo,,,,,,,,,,,,,,,,,,,,,,,,,,,,,,,,,,,,,,,,,,,,,,,,,,,,,,,,,,,,,,,,,,,,,,,,,,,,,,,,,,,,,,,,,,,,,,,,,,,,,,,,,,,,,,,,,,,,,,,,,,,,,,,,,,,,,,,,,
,,5ebabd40d9ef2902351e4445,2024-02-19_03h06.28.142,kallum_motion_pilot,2023.2.2,Win32,20,5ebabd40d9ef2902351e4445,65d2b6c8f2eece985d8e374c,65d2b799b376ecff2523cbe4,0.0156,0.0157,0,36,36,160,1,fivesix,,,,,,,,,,,,,,,,,,,,,,,,,,,,,,,,,,,,,,,,,,,,,,,,,,,,,,,,,,,,,,,,,,,,,,,,,,,,,,,,,,,,,,,,,,,,,,,,,,,,,,,,,,,,,,,,,,,,,,,,,,,,,,,,,,,,,,,,,
,,5ebabd40d9ef2902351e4445,2024-02-19_03h06.28.142,kallum_motion_pilot,2023.2.2,Win32,20,5ebabd40d9ef2902351e4445,65d2b6c8f2eece985d8e374c,65d2b799b376ecff2523cbe4,0.0158,0.0158,0,37,37,8,1,onetwo,,,,,,,,,,,,,,,,,,,,,,,,,,,,,,,,,,,,,,,,,,,,,,,,,,,,,,,,,,,,,,,,,,,,,,,,,,,,,,,,,,,,,,,,,,,,,,,,,,,,,,,,,,,,,,,,,,,,,,,,,,,,,,,,,,,,,,,,,
,,5ebabd40d9ef2902351e4445,2024-02-19_03h06.28.142,kallum_motion_pilot,2023.2.2,Win32,20,5ebabd40d9ef2902351e4445,65d2b6c8f2eece985d8e374c,65d2b799b376ecff2523cbe4,0.0158,0.0158,0,38,38,116,1,sevenfive,,,,,,,,,,,,,,,,,,,,,,,,,,,,,,,,,,,,,,,,,,,,,,,,,,,,,,,,,,,,,,,,,,,,,,,,,,,,,,,,,,,,,,,,,,,,,,,,,,,,,,,,,,,,,,,,,,,,,,,,,,,,,,,,,,,,,,,,,
,,5ebabd40d9ef2902351e4445,2024-02-19_03h06.28.142,kallum_motion_pilot,2023.2.2,Win32,20,5ebabd40d9ef2902351e4445,65d2b6c8f2eece985d8e374c,65d2b799b376ecff2523cbe4,0.0158,0.0159,0,39,39,142,1,eightsix,,,,,,,,,,,,,,,,,,,,,,,,,,,,,,,,,,,,,,,,,,,,,,,,,,,,,,,,,,,,,,,,,,,,,,,,,,,,,,,,,,,,,,,,,,,,,,,,,,,,,,,,,,,,,,,,,,,,,,,,,,,,,,,,,,,,,,,,,
,,5ebabd40d9ef2902351e4445,2024-02-19_03h06.28.142,kallum_motion_pilot,2023.2.2,Win32,20,5ebabd40d9ef2902351e4445,65d2b6c8f2eece985d8e374c,65d2b799b376ecff2523cbe4,0.0159,0.0159,0,40,40,70,1,fourtwo,,,,,,,,,,,,,,,,,,,,,,,,,,,,,,,,,,,,,,,,,,,,,,,,,,,,,,,,,,,,,,,,,,,,,,,,,,,,,,,,,,,,,,,,,,,,,,,,,,,,,,,,,,,,,,,,,,,,,,,,,,,,,,,,,,,,,,,,,
,,5ebabd40d9ef2902351e4445,2024-02-19_03h06.28.142,kallum_motion_pilot,2023.2.2,Win32,20,5ebabd40d9ef2902351e4445,65d2b6c8f2eece985d8e374c,65d2b799b376ecff2523cbe4,0.016,0.016,0,41,41,119,1,eightseven,,,,,,,,,,,,,,,,,,,,,,,,,,,,,,,,,,,,,,,,,,,,,,,,,,,,,,,,,,,,,,,,,,,,,,,,,,,,,,,,,,,,,,,,,,,,,,,,,,,,,,,,,,,,,,,,,,,,,,,,,,,,,,,,,,,,,,,,,
,,5ebabd40d9ef2902351e4445,2024-02-19_03h06.28.142,kallum_motion_pilot,2023.2.2,Win32,20,5ebabd40d9ef2902351e4445,65d2b6c8f2eece985d8e374c,65d2b799b376ecff2523cbe4,0.016,0.016,0,42,42,27,1,twofour,,,,,,,,,,,,,,,,,,,,,,,,,,,,,,,,,,,,,,,,,,,,,,,,,,,,,,,,,,,,,,,,,,,,,,,,,,,,,,,,,,,,,,,,,,,,,,,,,,,,,,,,,,,,,,,,,,,,,,,,,,,,,,,,,,,,,,,,,
,,5ebabd40d9ef2902351e4445,2024-02-19_03h06.28.142,kallum_motion_pilot,2023.2.2,Win32,20,5ebabd40d9ef2902351e4445,65d2b6c8f2eece985d8e374c,65d2b799b376ecff2523cbe4,0.0161,0.0161,0,43,43,18,1,twoone,,,,,,,,,,,,,,,,,,,,,,,,,,,,,,,,,,,,,,,,,,,,,,,,,,,,,,,,,,,,,,,,,,,,,,,,,,,,,,,,,,,,,,,,,,,,,,,,,,,,,,,,,,,,,,,,,,,,,,,,,,,,,,,,,,,,,,,,,
,,5ebabd40d9ef2902351e4445,2024-02-19_03h06.28.142,kallum_motion_pilot,2023.2.2,Win32,20,5ebabd40d9ef2902351e4445,65d2b6c8f2eece985d8e374c,65d2b799b376ecff2523cbe4,0.0161,0.0161,0,44,44,11,1,twofour,,,,,,,,,,,,,,,,,,,,,,,,,,,,,,,,,,,,,,,,,,,,,,,,,,,,,,,,,,,,,,,,,,,,,,,,,,,,,,,,,,,,,,,,,,,,,,,,,,,,,,,,,,,,,,,,,,,,,,,,,,,,,,,,,,,,,,,,,
,,5ebabd40d9ef2902351e4445,2024-02-19_03h06.28.142,kallum_motion_pilot,2023.2.2,Win32,20,5ebabd40d9ef2902351e4445,65d2b6c8f2eece985d8e374c,65d2b799b376ecff2523cbe4,0.0163,0.0163,0,45,45,141,1,seveneight,,,,,,,,,,,,,,,,,,,,,,,,,,,,,,,,,,,,,,,,,,,,,,,,,,,,,,,,,,,,,,,,,,,,,,,,,,,,,,,,,,,,,,,,,,,,,,,,,,,,,,,,,,,,,,,,,,,,,,,,,,,,,,,,,,,,,,,,,
,,5ebabd40d9ef2902351e4445,2024-02-19_03h06.28.142,kallum_motion_pilot,2023.2.2,Win32,20,5ebabd40d9ef2902351e4445,65d2b6c8f2eece985d8e374c,65d2b799b376ecff2523cbe4,0.0163,0.0165,0,46,46,146,1,sixfive,,,,,,,,,,,,,,,,,,,,,,,,,,,,,,,,,,,,,,,,,,,,,,,,,,,,,,,,,,,,,,,,,,,,,,,,,,,,,,,,,,,,,,,,,,,,,,,,,,,,,,,,,,,,,,,,,,,,,,,,,,,,,,,,,,,,,,,,,
,,5ebabd40d9ef2902351e4445,2024-02-19_03h06.28.142,kallum_motion_pilot,2023.2.2,Win32,20,5ebabd40d9ef2902351e4445,65d2b6c8f2eece985d8e374c,65d2b799b376ecff2523cbe4,0.0165,0.0165,0,47,47,134,1,eightsix,,,,,,,,,,,,,,,,,,,,,,,,,,,,,,,,,,,,,,,,,,,,,,,,,,,,,,,,,,,,,,,,,,,,,,,,,,,,,,,,,,,,,,,,,,,,,,,,,,,,,,,,,,,,,,,,,,,,,,,,,,,,,,,,,,,,,,,,,
,,5ebabd40d9ef2902351e4445,2024-02-19_03h06.28.142,kallum_motion_pilot,2023.2.2,Win32,20,5ebabd40d9ef2902351e4445,65d2b6c8f2eece985d8e374c,65d2b799b376ecff2523cbe4,0.0166,0.0166,0,48,48,60,1,threeone,,,,,,,,,,,,,,,,,,,,,,,,,,,,,,,,,,,,,,,,,,,,,,,,,,,,,,,,,,,,,,,,,,,,,,,,,,,,,,,,,,,,,,,,,,,,,,,,,,,,,,,,,,,,,,,,,,,,,,,,,,,,,,,,,,,,,,,,,
,,5ebabd40d9ef2902351e4445,2024-02-19_03h06.28.142,kallum_motion_pilot,2023.2.2,Win32,20,5ebabd40d9ef2902351e4445,65d2b6c8f2eece985d8e374c,65d2b799b376ecff2523cbe4,0.0167,0.0167,0,49,49,14,1,fourtwo,,,,,,,,,,,,,,,,,,,,,,,,,,,,,,,,,,,,,,,,,,,,,,,,,,,,,,,,,,,,,,,,,,,,,,,,,,,,,,,,,,,,,,,,,,,,,,,,,,,,,,,,,,,,,,,,,,,,,,,,,,,,,,,,,,,,,,,,,
,,5ebabd40d9ef2902351e4445,2024-02-19_03h06.28.142,kallum_motion_pilot,2023.2.2,Win32,20,5ebabd40d9ef2902351e4445,65d2b6c8f2eece985d8e374c,65d2b799b376ecff2523cbe4,0.0168,0.0168,0,50,50,28,1,threeone,,,,,,,,,,,,,,,,,,,,,,,,,,,,,,,,,,,,,,,,,,,,,,,,,,,,,,,,,,,,,,,,,,,,,,,,,,,,,,,,,,,,,,,,,,,,,,,,,,,,,,,,,,,,,,,,,,,,,,,,,,,,,,,,,,,,,,,,,
,,5ebabd40d9ef2902351e4445,2024-02-19_03h06.28.142,kallum_motion_pilot,2023.2.2,Win32,20,5ebabd40d9ef2902351e4445,65d2b6c8f2eece985d8e374c,65d2b799b376ecff2523cbe4,0.0169,0.0169,0,51,51,159,1,eightseven,,,,,,,,,,,,,,,,,,,,,,,,,,,,,,,,,,,,,,,,,,,,,,,,,,,,,,,,,,,,,,,,,,,,,,,,,,,,,,,,,,,,,,,,,,,,,,,,,,,,,,,,,,,,,,,,,,,,,,,,,,,,,,,,,,,,,,,,,
,,5ebabd40d9ef2902351e4445,2024-02-19_03h06.28.142,kallum_motion_pilot,2023.2.2,Win32,20,5ebabd40d9ef2902351e4445,65d2b6c8f2eece985d8e374c,65d2b799b376ecff2523cbe4,0.0171,0.0171,0,52,52,58,1,twoone,,,,,,,,,,,,,,,,,,,,,,,,,,,,,,,,,,,,,,,,,,,,,,,,,,,,,,,,,,,,,,,,,,,,,,,,,,,,,,,,,,,,,,,,,,,,,,,,,,,,,,,,,,,,,,,,,,,,,,,,,,,,,,,,,,,,,,,,,
,,5ebabd40d9ef2902351e4445,2024-02-19_03h06.28.142,kallum_motion_pilot,2023.2.2,Win32,20,5ebabd40d9ef2902351e4445,65d2b6c8f2eece985d8e374c,65d2b799b376ecff2523cbe4,0.0171,0.0172,0,53,53,62,1,fourtwo,,,,,,,,,,,,,,,,,,,,,,,,,,,,,,,,,,,,,,,,,,,,,,,,,,,,,,,,,,,,,,,,,,,,,,,,,,,,,,,,,,,,,,,,,,,,,,,,,,,,,,,,,,,,,,,,,,,,,,,,,,,,,,,,,,,,,,,,,
,,5ebabd40d9ef2902351e4445,2024-02-19_03h06.28.142,kallum_motion_pilot,2023.2.2,Win32,20,5ebabd40d9ef2902351e4445,65d2b6c8f2eece985d8e374c,65d2b799b376ecff2523cbe4,0.0173,0.0173,0,54,54,147,1,sixeight,,,,,,,,,,,,,,,,,,,,,,,,,,,,,,,,,,,,,,,,,,,,,,,,,,,,,,,,,,,,,,,,,,,,,,,,,,,,,,,,,,,,,,,,,,,,,,,,,,,,,,,,,,,,,,,,,,,,,,,,,,,,,,,,,,,,,,,,,
,,5ebabd40d9ef2902351e4445,2024-02-19_03h06.28.142,kallum_motion_pilot,2023.2.2,Win32,20,5ebabd40d9ef2902351e4445,65d2b6c8f2eece985d8e374c,65d2b799b376ecff2523cbe4,0.0174,0.0174,0,55,55,83,1,sixeight,,,,,,,,,,,,,,,,,,,,,,,,,,,,,,,,,,,,,,,,,,,,,,,,,,,,,,,,,,,,,,,,,,,,,,,,,,,,,,,,,,,,,,,,,,,,,,,,,,,,,,,,,,,,,,,,,,,,,,,,,,,,,,,,,,,,,,,,,
,,5ebabd40d9ef2902351e4445,2024-02-19_03h06.28.142,kallum_motion_pilot,2023.2.2,Win32,20,5ebabd40d9ef2902351e4445,65d2b6c8f2eece985d8e374c,65d2b799b376ecff2523cbe4,0.0174,0.0174,0,56,56,101,1,seveneight,,,,,,,,,,,,,,,,,,,,,,,,,,,,,,,,,,,,,,,,,,,,,,,,,,,,,,,,,,,,,,,,,,,,,,,,,,,,,,,,,,,,,,,,,,,,,,,,,,,,,,,,,,,,,,,,,,,,,,,,,,,,,,,,,,,,,,,,,
,,5ebabd40d9ef2902351e4445,2024-02-19_03h06.28.142,kallum_motion_pilot,2023.2.2,Win32,20,5ebabd40d9ef2902351e4445,65d2b6c8f2eece985d8e374c,65d2b799b376ecff2523cbe4,0.0175,0.0176,0,57,57,80,1,fivesix,,,,,,,,,,,,,,,,,,,,,,,,,,,,,,,,,,,,,,,,,,,,,,,,,,,,,,,,,,,,,,,,,,,,,,,,,,,,,,,,,,,,,,,,,,,,,,,,,,,,,,,,,,,,,,,,,,,,,,,,,,,,,,,,,,,,,,,,,
,,5ebabd40d9ef2902351e4445,2024-02-19_03h06.28.142,kallum_motion_pilot,2023.2.2,Win32,20,5ebabd40d9ef2902351e4445,65d2b6c8f2eece985d8e374c,65d2b799b376ecff2523cbe4,0.0176,0.0176,0,58,58,23,1,fourthree,,,,,,,,,,,,,,,,,,,,,,,,,,,,,,,,,,,,,,,,,,,,,,,,,,,,,,,,,,,,,,,,,,,,,,,,,,,,,,,,,,,,,,,,,,,,,,,,,,,,,,,,,,,,,,,,,,,,,,,,,,,,,,,,,,,,,,,,,
,,5ebabd40d9ef2902351e4445,2024-02-19_03h06.28.142,kallum_motion_pilot,2023.2.2,Win32,20,5ebabd40d9ef2902351e4445,65d2b6c8f2eece985d8e374c,65d2b799b376ecff2523cbe4,0.0176,0.0176,0,59,59,57,1,onethree,,,,,,,,,,,,,,,,,,,,,,,,,,,,,,,,,,,,,,,,,,,,,,,,,,,,,,,,,,,,,,,,,,,,,,,,,,,,,,,,,,,,,,,,,,,,,,,,,,,,,,,,,,,,,,,,,,,,,,,,,,,,,,,,,,,,,,,,,
,,5ebabd40d9ef2902351e4445,2024-02-19_03h06.28.142,kallum_motion_pilot,2023.2.2,Win32,20,5ebabd40d9ef2902351e4445,65d2b6c8f2eece985d8e374c,65d2b799b376ecff2523cbe4,0.0177,0.0177,0,60,60,112,1,fivesix,,,,,,,,,,,,,,,,,,,,,,,,,,,,,,,,,,,,,,,,,,,,,,,,,,,,,,,,,,,,,,,,,,,,,,,,,,,,,,,,,,,,,,,,,,,,,,,,,,,,,,,,,,,,,,,,,,,,,,,,,,,,,,,,,,,,,,,,,
,,5ebabd40d9ef2902351e4445,2024-02-19_03h06.28.142,kallum_motion_pilot,2023.2.2,Win32,20,5ebabd40d9ef2902351e4445,65d2b6c8f2eece985d8e374c,65d2b799b376ecff2523cbe4,0.0178,0.0178,0,61,61,48,1,onetwo,,,,,,,,,,,,,,,,,,,,,,,,,,,,,,,,,,,,,,,,,,,,,,,,,,,,,,,,,,,,,,,,,,,,,,,,,,,,,,,,,,,,,,,,,,,,,,,,,,,,,,,,,,,,,,,,,,,,,,,,,,,,,,,,,,,,,,,,,
,,5ebabd40d9ef2902351e4445,2024-02-19_03h06.28.142,kallum_motion_pilot,2023.2.2,Win32,20,5ebabd40d9ef2902351e4445,65d2b6c8f2eece985d8e374c,65d2b799b376ecff2523cbe4,0.0178,0.0178,0,62,62,105,1,fiveseven,,,,,,,,,,,,,,,,,,,,,,,,,,,,,,,,,,,,,,,,,,,,,,,,,,,,,,,,,,,,,,,,,,,,,,,,,,,,,,,,,,,,,,,,,,,,,,,,,,,,,,,,,,,,,,,,,,,,,,,,,,,,,,,,,,,,,,,,,
,,5ebabd40d9ef2902351e4445,2024-02-19_03h06.28.142,kallum_motion_pilot,2023.2.2,Win32,20,5ebabd40d9ef2902351e4445,65d2b6c8f2eece985d8e374c,65d2b799b376ecff2523cbe4,0.0179,0.0179,0,63,63,151,1,eightseven,,,,,,,,,,,,,,,,,,,,,,,,,,,,,,,,,,,,,,,,,,,,,,,,,,,,,,,,,,,,,,,,,,,,,,,,,,,,,,,,,,,,,,,,,,,,,,,,,,,,,,,,,,,,,,,,,,,,,,,,,,,,,,,,,,,,,,,,,
,,5ebabd40d9ef2902351e4445,2024-02-19_03h06.28.142,kallum_motion_pilot,2023.2.2,Win32,20,5ebabd40d9ef2902351e4445,65d2b6c8f2eece985d8e374c,65d2b799b376ecff2523cbe4,0.018,0.018,0,64,64,84,1,sevenfive,,,,,,,,,,,,,,,,,,,,,,,,,,,,,,,,,,,,,,,,,,,,,,,,,,,,,,,,,,,,,,,,,,,,,,,,,,,,,,,,,,,,,,,,,,,,,,,,,,,,,,,,,,,,,,,,,,,,,,,,,,,,,,,,,,,,,,,,,
,,5ebabd40d9ef2902351e4445,2024-02-19_03h06.28.142,kallum_motion_pilot,2023.2.2,Win32,20,5ebabd40d9ef2902351e4445,65d2b6c8f2eece985d8e374c,65d2b799b376ecff2523cbe4,0.018,0.018,0,65,65,21,1,threefour,,,,,,,,,,,,,,,,,,,,,,,,,,,,,,,,,,,,,,,,,,,,,,,,,,,,,,,,,,,,,,,,,,,,,,,,,,,,,,,,,,,,,,,,,,,,,,,,,,,,,,,,,,,,,,,,,,,,,,,,,,,,,,,,,,,,,,,,,
,,5ebabd40d9ef2902351e4445,2024-02-19_03h06.28.142,kallum_motion_pilot,2023.2.2,Win32,20,5ebabd40d9ef2902351e4445,65d2b6c8f2eece985d8e374c,65d2b799b376ecff2523cbe4,0.0181,0.0182,0,66,66,91,1,sixeight,,,,,,,,,,,,,,,,,,,,,,,,,,,,,,,,,,,,,,,,,,,,,,,,,,,,,,,,,,,,,,,,,,,,,,,,,,,,,,,,,,,,,,,,,,,,,,,,,,,,,,,,,,,,,,,,,,,,,,,,,,,,,,,,,,,,,,,,,
,,5ebabd40d9ef2902351e4445,2024-02-19_03h06.28.142,kallum_motion_pilot,2023.2.2,Win32,20,5ebabd40d9ef2902351e4445,65d2b6c8f2eece985d8e374c,65d2b799b376ecff2523cbe4,0.0182,0.0182,0,67,67,43,1,twofour,,,,,,,,,,,,,,,,,,,,,,,,,,,,,,,,,,,,,,,,,,,,,,,,,,,,,,,,,,,,,,,,,,,,,,,,,,,,,,,,,,,,,,,,,,,,,,,,,,,,,,,,,,,,,,,,,,,,,,,,,,,,,,,,,,,,,,,,,
,,5ebabd40d9ef2902351e4445,2024-02-19_03h06.28.142,kallum_motion_pilot,2023.2.2,Win32,20,5ebabd40d9ef2902351e4445,65d2b6c8f2eece985d8e374c,65d2b799b376ecff2523cbe4,0.0182,0.0183,0,68,68,10,1,twoone,,,,,,,,,,,,,,,,,,,,,,,,,,,,,,,,,,,,,,,,,,,,,,,,,,,,,,,,,,,,,,,,,,,,,,,,,,,,,,,,,,,,,,,,,,,,,,,,,,,,,,,,,,,,,,,,,,,,,,,,,,,,,,,,,,,,,,,,,
,,5ebabd40d9ef2902351e4445,2024-02-19_03h06.28.142,kallum_motion_pilot,2023.2.2,Win32,20,5ebabd40d9ef2902351e4445,65d2b6c8f2eece985d8e374c,65d2b799b376ecff2523cbe4,0.0184,0.0184,0,69,69,59,1,twofour,,,,,,,,,,,,,,,,,,,,,,,,,,,,,,,,,,,,,,,,,,,,,,,,,,,,,,,,,,,,,,,,,,,,,,,,,,,,,,,,,,,,,,,,,,,,,,,,,,,,,,,,,,,,,,,,,,,,,,,,,,,,,,,,,,,,,,,,,
,,5ebabd40d9ef2902351e4445,2024-02-19_03h06.28.142,kallum_motion_pilot,2023.2.2,Win32,20,5ebabd40d9ef2902351e4445,65d2b6c8f2eece985d8e374c,65d2b799b376ecff2523cbe4,0.0184,0.0184,0,70,70,154,1,sixfive,,,,,,,,,,,,,,,,,,,,,,,,,,,,,,,,,,,,,,,,,,,,,,,,,,,,,,,,,,,,,,,,,,,,,,,,,,,,,,,,,,,,,,,,,,,,,,,,,,,,,,,,,,,,,,,,,,,,,,,,,,,,,,,,,,,,,,,,,
,,5ebabd40d9ef2902351e4445,2024-02-19_03h06.28.142,kallum_motion_pilot,2023.2.2,Win32,20,5ebabd40d9ef2902351e4445,65d2b6c8f2eece985d8e374c,65d2b799b376ecff2523cbe4,0.0185,0.0185,0,71,71,2,1,twoone,,,,,,,,,,,,,,,,,,,,,,,,,,,,,,,,,,,,,,,,,,,,,,,,,,,,,,,,,,,,,,,,,,,,,,,,,,,,,,,,,,,,,,,,,,,,,,,,,,,,,,,,,,,,,,,,,,,,,,,,,,,,,,,,,,,,,,,,,
,,5ebabd40d9ef2902351e4445,2024-02-19_03h06.28.142,kallum_motion_pilot,2023.2.2,Win32,20,5ebabd40d9ef2902351e4445,65d2b6c8f2eece985d8e374c,65d2b799b376ecff2523cbe4,0.0186,0.0186,0,72,72,44,1,threeone,,,,,,,,,,,,,,,,,,,,,,,,,,,,,,,,,,,,,,,,,,,,,,,,,,,,,,,,,,,,,,,,,,,,,,,,,,,,,,,,,,,,,,,,,,,,,,,,,,,,,,,,,,,,,,,,,,,,,,,,,,,,,,,,,,,,,,,,,
,,5ebabd40d9ef2902351e4445,2024-02-19_03h06.28.142,kallum_motion_pilot,2023.2.2,Win32,20,5ebabd40d9ef2902351e4445,65d2b6c8f2eece985d8e374c,65d2b799b376ecff2523cbe4,0.0186,0.0186,0,73,73,79,1,eightseven,,,,,,,,,,,,,,,,,,,,,,,,,,,,,,,,,,,,,,,,,,,,,,,,,,,,,,,,,,,,,,,,,,,,,,,,,,,,,,,,,,,,,,,,,,,,,,,,,,,,,,,,,,,,,,,,,,,,,,,,,,,,,,,,,,,,,,,,,
,,5ebabd40d9ef2902351e4445,2024-02-19_03h06.28.142,kallum_motion_pilot,2023.2.2,Win32,20,5ebabd40d9ef2902351e4445,65d2b6c8f2eece985d8e374c,65d2b799b376ecff2523cbe4,0.0187,0.0187,0,74,74,65,1,onethree,,,,,,,,,,,,,,,,,,,,,,,,,,,,,,,,,,,,,,,,,,,,,,,,,,,,,,,,,,,,,,,,,,,,,,,,,,,,,,,,,,,,,,,,,,,,,,,,,,,,,,,,,,,,,,,,,,,,,,,,,,,,,,,,,,,,,,,,,
,,5ebabd40d9ef2902351e4445,2024-02-19_03h06.28.142,kallum_motion_pilot,2023.2.2,Win32,20,5ebabd40d9ef2902351e4445,65d2b6c8f2eece985d8e374c,65d2b799b376ecff2523cbe4,0.0187,0.0188,0,75,75,82,1,sixfive,,,,,,,,,,,,,,,,,,,,,,,,,,,,,,,,,,,,,,,,,,,,,,,,,,,,,,,,,,,,,,,,,,,,,,,,,,,,,,,,,,,,,,,,,,,,,,,,,,,,,,,,,,,,,,,,,,,,,,,,,,,,,,,,,,,,,,,,,
,,5ebabd40d9ef2902351e4445,2024-02-19_03h06.28.142,kallum_motion_pilot,2023.2.2,Win32,20,5ebabd40d9ef2902351e4445,65d2b6c8f2eece985d8e374c,65d2b799b376ecff2523cbe4,0.0188,0.0188,0,76,76,9,1,onethree,,,,,,,,,,,,,,,,,,,,,,,,,,,,,,,,,,,,,,,,,,,,,,,,,,,,,,,,,,,,,,,,,,,,,,,,,,,,,,,,,,,,,,,,,,,,,,,,,,,,,,,,,,,,,,,,,,,,,,,,,,,,,,,,,,,,,,,,,
,,5ebabd40d9ef2902351e4445,2024-02-19_03h06.28.142,kallum_motion_pilot,2023.2.2,Win32,20,5ebabd40d9ef2902351e4445,65d2b6c8f2eece985d8e374c,65d2b799b376ecff2523cbe4,0.0189,0.019,0,77,77,121,1,fiveseven,,,,,,,,,,,,,,,,,,,,,,,,,,,,,,,,,,,,,,,,,,,,,,,,,,,,,,,,,,,,,,,,,,,,,,,,,,,,,,,,,,,,,,,,,,,,,,,,,,,,,,,,,,,,,,,,,,,,,,,,,,,,,,,,,,,,,,,,,
,,5ebabd40d9ef2902351e4445,2024-02-19_03h06.28.142,kallum_motion_pilot,2023.2.2,Win32,20,5ebabd40d9ef2902351e4445,65d2b6c8f2eece985d8e374c,65d2b799b376ecff2523cbe4,0.019,0.019,0,78,78,97,1,fiveseven,,,,,,,,,,,,,,,,,,,,,,,,,,,,,,,,,,,,,,,,,,,,,,,,,,,,,,,,,,,,,,,,,,,,,,,,,,,,,,,,,,,,,,,,,,,,,,,,,,,,,,,,,,,,,,,,,,,,,,,,,,,,,,,,,,,,,,,,,
,,5ebabd40d9ef2902351e4445,2024-02-19_03h06.28.142,kallum_motion_pilot,2023.2.2,Win32,20,5ebabd40d9ef2902351e4445,65d2b6c8f2eece985d8e374c,65d2b799b376ecff2523cbe4,0.0191,0.0191,0,79,79,131,1,sixeight,,,,,,,,,,,,,,,,,,,,,,,,,,,,,,,,,,,,,,,,,,,,,,,,,,,,,,,,,,,,,,,,,,,,,,,,,,,,,,,,,,,,,,,,,,,,,,,,,,,,,,,,,,,,,,,,,,,,,,,,,,,,,,,,,,,,,,,,,
,,5ebabd40d9ef2902351e4445,2024-02-19_03h06.28.142,kallum_motion_pilot,2023.2.2,Win32,20,5ebabd40d9ef2902351e4445,65d2b6c8f2eece985d8e374c,65d2b799b376ecff2523cbe4,0.0191,0.0192,0,80,80,149,1,seveneight,,,,,,,,,,,,,,,,,,,,,,,,,,,,,,,,,,,,,,,,,,,,,,,,,,,,,,,,,,,,,,,,,,,,,,,,,,,,,,,,,,,,,,,,,,,,,,,,,,,,,,,,,,,,,,,,,,,,,,,,,,,,,,,,,,,,,,,,,
,,5ebabd40d9ef2902351e4445,2024-02-19_03h06.28.142,kallum_motion_pilot,2023.2.2,Win32,20,5ebabd40d9ef2902351e4445,65d2b6c8f2eece985d8e374c,65d2b799b376ecff2523cbe4,0.0192,0.0192,0,81,81,144,1,fivesix,,,,,,,,,,,,,,,,,,,,,,,,,,,,,,,,,,,,,,,,,,,,,,,,,,,,,,,,,,,,,,,,,,,,,,,,,,,,,,,,,,,,,,,,,,,,,,,,,,,,,,,,,,,,,,,,,,,,,,,,,,,,,,,,,,,,,,,,,
,,5ebabd40d9ef2902351e4445,2024-02-19_03h06.28.142,kallum_motion_pilot,2023.2.2,Win32,20,5ebabd40d9ef2902351e4445,65d2b6c8f2eece985d8e374c,65d2b799b376ecff2523cbe4,0.0193,0.0193,0,82,82,35,1,twofour,,,,,,,,,,,,,,,,,,,,,,,,,,,,,,,,,,,,,,,,,,,,,,,,,,,,,,,,,,,,,,,,,,,,,,,,,,,,,,,,,,,,,,,,,,,,,,,,,,,,,,,,,,,,,,,,,,,,,,,,,,,,,,,,,,,,,,,,,
,,5ebabd40d9ef2902351e4445,2024-02-19_03h06.28.142,kallum_motion_pilot,2023.2.2,Win32,20,5ebabd40d9ef2902351e4445,65d2b6c8f2eece985d8e374c,65d2b799b376ecff2523cbe4,0.0193,0.0194,0,83,83,26,1,twoone,,,,,,,,,,,,,,,,,,,,,,,,,,,,,,,,,,,,,,,,,,,,,,,,,,,,,,,,,,,,,,,,,,,,,,,,,,,,,,,,,,,,,,,,,,,,,,,,,,,,,,,,,,,,,,,,,,,,,,,,,,,,,,,,,,,,,,,,,
,,5ebabd40d9ef2902351e4445,2024-02-19_03h06.28.142,kallum_motion_pilot,2023.2.2,Win32,20,5ebabd40d9ef2902351e4445,65d2b6c8f2eece985d8e374c,65d2b799b376ecff2523cbe4,0.0194,0.0194,0,84,84,20,1,threeone,,,,,,,,,,,,,,,,,,,,,,,,,,,,,,,,,,,,,,,,,,,,,,,,,,,,,,,,,,,,,,,,,,,,,,,,,,,,,,,,,,,,,,,,,,,,,,,,,,,,,,,,,,,,,,,,,,,,,,,,,,,,,,,,,,,,,,,,,
,,5ebabd40d9ef2902351e4445,2024-02-19_03h06.28.142,kallum_motion_pilot,2023.2.2,Win32,20,5ebabd40d9ef2902351e4445,65d2b6c8f2eece985d8e374c,65d2b799b376ecff2523cbe4,0.0195,0.0196,0,85,85,124,1,sevenfive,,,,,,,,,,,,,,,,,,,,,,,,,,,,,,,,,,,,,,,,,,,,,,,,,,,,,,,,,,,,,,,,,,,,,,,,,,,,,,,,,,,,,,,,,,,,,,,,,,,,,,,,,,,,,,,,,,,,,,,,,,,,,,,,,,,,,,,,,
,,5ebabd40d9ef2902351e4445,2024-02-19_03h06.28.142,kallum_motion_pilot,2023.2.2,Win32,20,5ebabd40d9ef2902351e4445,65d2b6c8f2eece985d8e374c,65d2b799b376ecff2523cbe4,0.0196,0.0196,0,86,86,125,1,seveneight,,,,,,,,,,,,,,,,,,,,,,,,,,,,,,,,,,,,,,,,,,,,,,,,,,,,,,,,,,,,,,,,,,,,,,,,,,,,,,,,,,,,,,,,,,,,,,,,,,,,,,,,,,,,,,,,,,,,,,,,,,,,,,,,,,,,,,,,,
,,5ebabd40d9ef2902351e4445,2024-02-19_03h06.28.142,kallum_motion_pilot,2023.2.2,Win32,20,5ebabd40d9ef2902351e4445,65d2b6c8f2eece985d8e374c,65d2b799b376ecff2523cbe4,0.0197,0.0197,0,87,87,86,1,eightsix,,,,,,,,,,,,,,,,,,,,,,,,,,,,,,,,,,,,,,,,,,,,,,,,,,,,,,,,,,,,,,,,,,,,,,,,,,,,,,,,,,,,,,,,,,,,,,,,,,,,,,,,,,,,,,,,,,,,,,,,,,,,,,,,,,,,,,,,,
,,5ebabd40d9ef2902351e4445,2024-02-19_03h06.28.142,kallum_motion_pilot,2023.2.2,Win32,20,5ebabd40d9ef2902351e4445,65d2b6c8f2eece985d8e374c,65d2b799b376ecff2523cbe4,0.0197,0.0197,0,88,88,156,1,sevenfive,,,,,,,,,,,,,,,,,,,,,,,,,,,,,,,,,,,,,,,,,,,,,,,,,,,,,,,,,,,,,,,,,,,,,,,,,,,,,,,,,,,,,,,,,,,,,,,,,,,,,,,,,,,,,,,,,,,,,,,,,,,,,,,,,,,,,,,,,
,,5ebabd40d9ef2902351e4445,2024-02-19_03h06.28.142,kallum_motion_pilot,2023.2.2,Win32,20,5ebabd40d9ef2902351e4445,65d2b6c8f2eece985d8e374c,65d2b799b376ecff2523cbe4,0.0198,0.0198,0,89,89,72,1,onetwo,,,,,,,,,,,,,,,,,,,,,,,,,,,,,,,,,,,,,,,,,,,,,,,,,,,,,,,,,,,,,,,,,,,,,,,,,,,,,,,,,,,,,,,,,,,,,,,,,,,,,,,,,,,,,,,,,,,,,,,,,,,,,,,,,,,,,,,,,
,,5ebabd40d9ef2902351e4445,2024-02-19_03h06.28.142,kallum_motion_pilot,2023.2.2,Win32,20,5ebabd40d9ef2902351e4445,65d2b6c8f2eece985d8e374c,65d2b799b376ecff2523cbe4,0.0199,0.0199,0,90,90,50,1,twoone,,,,,,,,,,,,,,,,,,,,,,,,,,,,,,,,,,,,,,,,,,,,,,,,,,,,,,,,,,,,,,,,,,,,,,,,,,,,,,,,,,,,,,,,,,,,,,,,,,,,,,,,,,,,,,,,,,,,,,,,,,,,,,,,,,,,,,,,,
,,5ebabd40d9ef2902351e4445,2024-02-19_03h06.28.142,kallum_motion_pilot,2023.2.2,Win32,20,5ebabd40d9ef2902351e4445,65d2b6c8f2eece985d8e374c,65d2b799b376ecff2523cbe4,0.02,0.02,0,91,91,114,1,sixfive,,,,,,,,,,,,,,,,,,,,,,,,,,,,,,,,,,,,,,,,,,,,,,,,,,,,,,,,,,,,,,,,,,,,,,,,,,,,,,,,,,,,,,,,,,,,,,,,,,,,,,,,,,,,,,,,,,,,,,,,,,,,,,,,,,,,,,,,,
,,5ebabd40d9ef2902351e4445,2024-02-19_03h06.28.142,kallum_motion_pilot,2023.2.2,Win32,20,5ebabd40d9ef2902351e4445,65d2b6c8f2eece985d8e374c,65d2b799b376ecff2523cbe4,0.02,0.02,0,92,92,127,1,eightseven,,,,,,,,,,,,,,,,,,,,,,,,,,,,,,,,,,,,,,,,,,,,,,,,,,,,,,,,,,,,,,,,,,,,,,,,,,,,,,,,,,,,,,,,,,,,,,,,,,,,,,,,,,,,,,,,,,,,,,,,,,,,,,,,,,,,,,,,,
,,5ebabd40d9ef2902351e4445,2024-02-19_03h06.28.142,kallum_motion_pilot,2023.2.2,Win32,20,5ebabd40d9ef2902351e4445,65d2b6c8f2eece985d8e374c,65d2b799b376ecff2523cbe4,0.0201,0.0201,0,93,93,13,1,threefour,,,,,,,,,,,,,,,,,,,,,,,,,,,,,,,,,,,,,,,,,,,,,,,,,,,,,,,,,,,,,,,,,,,,,,,,,,,,,,,,,,,,,,,,,,,,,,,,,,,,,,,,,,,,,,,,,,,,,,,,,,,,,,,,,,,,,,,,,
,,5ebabd40d9ef2902351e4445,2024-02-19_03h06.28.142,kallum_motion_pilot,2023.2.2,Win32,20,5ebabd40d9ef2902351e4445,65d2b6c8f2eece985d8e374c,65d2b799b376ecff2523cbe4,0.0202,0.0202,0,94,94,94,1,eightsix,,,,,,,,,,,,,,,,,,,,,,,,,,,,,,,,,,,,,,,,,,,,,,,,,,,,,,,,,,,,,,,,,,,,,,,,,,,,,,,,,,,,,,,,,,,,,,,,,,,,,,,,,,,,,,,,,,,,,,,,,,,,,,,,,,,,,,,,,
,,5ebabd40d9ef2902351e4445,2024-02-19_03h06.28.142,kallum_motion_pilot,2023.2.2,Win32,20,5ebabd40d9ef2902351e4445,65d2b6c8f2eece985d8e374c,65d2b799b376ecff2523cbe4,0.0202,0.0203,0,95,95,64,1,onetwo,,,,,,,,,,,,,,,,,,,,,,,,,,,,,,,,,,,,,,,,,,,,,,,,,,,,,,,,,,,,,,,,,,,,,,,,,,,,,,,,,,,,,,,,,,,,,,,,,,,,,,,,,,,,,,,,,,,,,,,,,,,,,,,,,,,,,,,,,
,,5ebabd40d9ef2902351e4445,2024-02-19_03h06.28.142,kallum_motion_pilot,2023.2.2,Win32,20,5ebabd40d9ef2902351e4445,65d2b6c8f2eece985d8e374c,65d2b799b376ecff2523cbe4,0.0203,0.0203,0,96,96,161,1,fiveseven,,,,,,,,,,,,,,,,,,,,,,,,,,,,,,,,,,,,,,,,,,,,,,,,,,,,,,,,,,,,,,,,,,,,,,,,,,,,,,,,,,,,,,,,,,,,,,,,,,,,,,,,,,,,,,,,,,,,,,,,,,,,,,,,,,,,,,,,,
,,5ebabd40d9ef2902351e4445,2024-02-19_03h06.28.142,kallum_motion_pilot,2023.2.2,Win32,20,5ebabd40d9ef2902351e4445,65d2b6c8f2eece985d8e374c,65d2b799b376ecff2523cbe4,0.0204,0.0204,0,97,97,103,1,eightseven,,,,,,,,,,,,,,,,,,,,,,,,,,,,,,,,,,,,,,,,,,,,,,,,,,,,,,,,,,,,,,,,,,,,,,,,,,,,,,,,,,,,,,,,,,,,,,,,,,,,,,,,,,,,,,,,,,,,,,,,,,,,,,,,,,,,,,,,,
,,5ebabd40d9ef2902351e4445,2024-02-19_03h06.28.142,kallum_motion_pilot,2023.2.2,Win32,20,5ebabd40d9ef2902351e4445,65d2b6c8f2eece985d8e374c,65d2b799b376ecff2523cbe4,0.0205,0.0205,0,98,98,51,1,twofour,,,,,,,,,,,,,,,,,,,,,,,,,,,,,,,,,,,,,,,,,,,,,,,,,,,,,,,,,,,,,,,,,,,,,,,,,,,,,,,,,,,,,,,,,,,,,,,,,,,,,,,,,,,,,,,,,,,,,,,,,,,,,,,,,,,,,,,,,
,,5ebabd40d9ef2902351e4445,2024-02-19_03h06.28.142,kallum_motion_pilot,2023.2.2,Win32,20,5ebabd40d9ef2902351e4445,65d2b6c8f2eece985d8e374c,65d2b799b376ecff2523cbe4,0.0206,0.0206,0,99,99,108,1,sevenfive,,,,,,,,,,,,,,,,,,,,,,,,,,,,,,,,,,,,,,,,,,,,,,,,,,,,,,,,,,,,,,,,,,,,,,,,,,,,,,,,,,,,,,,,,,,,,,,,,,,,,,,,,,,,,,,,,,,,,,,,,,,,,,,,,,,,,,,,,
,,5ebabd40d9ef2902351e4445,2024-02-19_03h06.28.142,kallum_motion_pilot,2023.2.2,Win32,20,5ebabd40d9ef2902351e4445,65d2b6c8f2eece985d8e374c,65d2b799b376ecff2523cbe4,0.0206,0.0206,0,100,100,55,1,fourthree,,,,,,,,,,,,,,,,,,,,,,,,,,,,,,,,,,,,,,,,,,,,,,,,,,,,,,,,,,,,,,,,,,,,,,,,,,,,,,,,,,,,,,,,,,,,,,,,,,,,,,,,,,,,,,,,,,,,,,,,,,,,,,,,,,,,,,,,,
,,5ebabd40d9ef2902351e4445,2024-02-19_03h06.28.142,kallum_motion_pilot,2023.2.2,Win32,20,5ebabd40d9ef2902351e4445,65d2b6c8f2eece985d8e374c,65d2b799b376ecff2523cbe4,0.0206,0.0206,0,101,101,104,1,fivesix,,,,,,,,,,,,,,,,,,,,,,,,,,,,,,,,,,,,,,,,,,,,,,,,,,,,,,,,,,,,,,,,,,,,,,,,,,,,,,,,,,,,,,,,,,,,,,,,,,,,,,,,,,,,,,,,,,,,,,,,,,,,,,,,,,,,,,,,,
,,5ebabd40d9ef2902351e4445,2024-02-19_03h06.28.142,kallum_motion_pilot,2023.2.2,Win32,20,5ebabd40d9ef2902351e4445,65d2b6c8f2eece985d8e374c,65d2b799b376ecff2523cbe4,0.0207,0.0207,0,102,102,33,1,onethree,,,,,,,,,,,,,,,,,,,,,,,,,,,,,,,,,,,,,,,,,,,,,,,,,,,,,,,,,,,,,,,,,,,,,,,,,,,,,,,,,,,,,,,,,,,,,,,,,,,,,,,,,,,,,,,,,,,,,,,,,,,,,,,,,,,,,,,,,
,,5ebabd40d9ef2902351e4445,2024-02-19_03h06.28.142,kallum_motion_pilot,2023.2.2,Win32,20,5ebabd40d9ef2902351e4445,65d2b6c8f2eece985d8e374c,65d2b799b376ecff2523cbe4,0.0208,0.0209,0,103,103,93,1,seveneight,,,,,,,,,,,,,,,,,,,,,,,,,,,,,,,,,,,,,,,,,,,,,,,,,,,,,,,,,,,,,,,,,,,,,,,,,,,,,,,,,,,,,,,,,,,,,,,,,,,,,,,,,,,,,,,,,,,,,,,,,,,,,,,,,,,,,,,,,
,,5ebabd40d9ef2902351e4445,2024-02-19_03h06.28.142,kallum_motion_pilot,2023.2.2,Win32,20,5ebabd40d9ef2902351e4445,65d2b6c8f2eece985d8e374c,65d2b799b376ecff2523cbe4,0.0209,0.0209,0,104,104,3,1,twofour,,,,,,,,,,,,,,,,,,,,,,,,,,,,,,,,,,,,,,,,,,,,,,,,,,,,,,,,,,,,,,,,,,,,,,,,,,,,,,,,,,,,,,,,,,,,,,,,,,,,,,,,,,,,,,,,,,,,,,,,,,,,,,,,,,,,,,,,,
,,5ebabd40d9ef2902351e4445,2024-02-19_03h06.28.142,kallum_motion_pilot,2023.2.2,Win32,20,5ebabd40d9ef2902351e4445,65d2b6c8f2eece985d8e374c,65d2b799b376ecff2523cbe4,0.0209,0.021,0,105,105,152,1,fivesix,,,,,,,,,,,,,,,,,,,,,,,,,,,,,,,,,,,,,,,,,,,,,,,,,,,,,,,,,,,,,,,,,,,,,,,,,,,,,,,,,,,,,,,,,,,,,,,,,,,,,,,,,,,,,,,,,,,,,,,,,,,,,,,,,,,,,,,,,
,,5ebabd40d9ef2902351e4445,2024-02-19_03h06.28.142,kallum_motion_pilot,2023.2.2,Win32,20,5ebabd40d9ef2902351e4445,65d2b6c8f2eece985d8e374c,65d2b799b376ecff2523cbe4,0.0215,0.0216,0,106,106,107,1,sixeight,,,,,,,,,,,,,,,,,,,,,,,,,,,,,,,,,,,,,,,,,,,,,,,,,,,,,,,,,,,,,,,,,,,,,,,,,,,,,,,,,,,,,,,,,,,,,,,,,,,,,,,,,,,,,,,,,,,,,,,,,,,,,,,,,,,,,,,,,
,,5ebabd40d9ef2902351e4445,2024-02-19_03h06.28.142,kallum_motion_pilot,2023.2.2,Win32,20,5ebabd40d9ef2902351e4445,65d2b6c8f2eece985d8e374c,65d2b799b376ecff2523cbe4,0.0216,0.0217,0,107,107,117,1,seveneight,,,,,,,,,,,,,,,,,,,,,,,,,,,,,,,,,,,,,,,,,,,,,,,,,,,,,,,,,,,,,,,,,,,,,,,,,,,,,,,,,,,,,,,,,,,,,,,,,,,,,,,,,,,,,,,,,,,,,,,,,,,,,,,,,,,,,,,,,
,,5ebabd40d9ef2902351e4445,2024-02-19_03h06.28.142,kallum_motion_pilot,2023.2.2,Win32,20,5ebabd40d9ef2902351e4445,65d2b6c8f2eece985d8e374c,65d2b799b376ecff2523cbe4,0.0217,0.0217,0,108,108,36,1,threeone,,,,,,,,,,,,,,,,,,,,,,,,,,,,,,,,,,,,,,,,,,,,,,,,,,,,,,,,,,,,,,,,,,,,,,,,,,,,,,,,,,,,,,,,,,,,,,,,,,,,,,,,,,,,,,,,,,,,,,,,,,,,,,,,,,,,,,,,,
,,5ebabd40d9ef2902351e4445,2024-02-19_03h06.28.142,kallum_motion_pilot,2023.2.2,Win32,20,5ebabd40d9ef2902351e4445,65d2b6c8f2eece985d8e374c,65d2b799b376ecff2523cbe4,0.0218,0.0218,0,109,109,29,1,threefour,,,,,,,,,,,,,,,,,,,,,,,,,,,,,,,,,,,,,,,,,,,,,,,,,,,,,,,,,,,,,,,,,,,,,,,,,,,,,,,,,,,,,,,,,,,,,,,,,,,,,,,,,,,,,,,,,,,,,,,,,,,,,,,,,,,,,,,,,
,,5ebabd40d9ef2902351e4445,2024-02-19_03h06.28.142,kallum_motion_pilot,2023.2.2,Win32,20,5ebabd40d9ef2902351e4445,65d2b6c8f2eece985d8e374c,65d2b799b376ecff2523cbe4,0.0218,0.0218,0,110,110,0,1,onetwo,,,,,,,,,,,,,,,,,,,,,,,,,,,,,,,,,,,,,,,,,,,,,,,,,,,,,,,,,,,,,,,,,,,,,,,,,,,,,,,,,,,,,,,,,,,,,,,,,,,,,,,,,,,,,,,,,,,,,,,,,,,,,,,,,,,,,,,,,
,,5ebabd40d9ef2902351e4445,2024-02-19_03h06.28.142,kallum_motion_pilot,2023.2.2,Win32,20,5ebabd40d9ef2902351e4445,65d2b6c8f2eece985d8e374c,65d2b799b376ecff2523cbe4,0.0218,0.0219,0,111,111,138,1,sixfive,,,,,,,,,,,,,,,,,,,,,,,,,,,,,,,,,,,,,,,,,,,,,,,,,,,,,,,,,,,,,,,,,,,,,,,,,,,,,,,,,,,,,,,,,,,,,,,,,,,,,,,,,,,,,,,,,,,,,,,,,,,,,,,,,,,,,,,,,
,,5ebabd40d9ef2902351e4445,2024-02-19_03h06.28.142,kallum_motion_pilot,2023.2.2,Win32,20,5ebabd40d9ef2902351e4445,65d2b6c8f2eece985d8e374c,65d2b799b376ecff2523cbe4,0.0219,0.022,0,112,112,145,1,fiveseven,,,,,,,,,,,,,,,,,,,,,,,,,,,,,,,,,,,,,,,,,,,,,,,,,,,,,,,,,,,,,,,,,,,,,,,,,,,,,,,,,,,,,,,,,,,,,,,,,,,,,,,,,,,,,,,,,,,,,,,,,,,,,,,,,,,,,,,,,
,,5ebabd40d9ef2902351e4445,2024-02-19_03h06.28.142,kallum_motion_pilot,2023.2.2,Win32,20,5ebabd40d9ef2902351e4445,65d2b6c8f2eece985d8e374c,65d2b799b376ecff2523cbe4,0.022,0.022,0,113,113,41,1,onethree,,,,,,,,,,,,,,,,,,,,,,,,,,,,,,,,,,,,,,,,,,,,,,,,,,,,,,,,,,,,,,,,,,,,,,,,,,,,,,,,,,,,,,,,,,,,,,,,,,,,,,,,,,,,,,,,,,,,,,,,,,,,,,,,,,,,,,,,,
,,5ebabd40d9ef2902351e4445,2024-02-19_03h06.28.142,kallum_motion_pilot,2023.2.2,Win32,20,5ebabd40d9ef2902351e4445,65d2b6c8f2eece985d8e374c,65d2b799b376ecff2523cbe4,0.022,0.022,0,114,114,1,1,onethree,,,,,,,,,,,,,,,,,,,,,,,,,,,,,,,,,,,,,,,,,,,,,,,,,,,,,,,,,,,,,,,,,,,,,,,,,,,,,,,,,,,,,,,,,,,,,,,,,,,,,,,,,,,,,,,,,,,,,,,,,,,,,,,,,,,,,,,,,
,,5ebabd40d9ef2902351e4445,2024-02-19_03h06.28.142,kallum_motion_pilot,2023.2.2,Win32,20,5ebabd40d9ef2902351e4445,65d2b6c8f2eece985d8e374c,65d2b799b376ecff2523cbe4,0.022,0.0221,0,115,115,40,1,onetwo,,,,,,,,,,,,,,,,,,,,,,,,,,,,,,,,,,,,,,,,,,,,,,,,,,,,,,,,,,,,,,,,,,,,,,,,,,,,,,,,,,,,,,,,,,,,,,,,,,,,,,,,,,,,,,,,,,,,,,,,,,,,,,,,,,,,,,,,,
,,5ebabd40d9ef2902351e4445,2024-02-19_03h06.28.142,kallum_motion_pilot,2023.2.2,Win32,20,5ebabd40d9ef2902351e4445,65d2b6c8f2eece985d8e374c,65d2b799b376ecff2523cbe4,0.0221,0.0221,0,116,116,148,1,sevenfive,,,,,,,,,,,,,,,,,,,,,,,,,,,,,,,,,,,,,,,,,,,,,,,,,,,,,,,,,,,,,,,,,,,,,,,,,,,,,,,,,,,,,,,,,,,,,,,,,,,,,,,,,,,,,,,,,,,,,,,,,,,,,,,,,,,,,,,,,
,,5ebabd40d9ef2902351e4445,2024-02-19_03h06.28.142,kallum_motion_pilot,2023.2.2,Win32,20,5ebabd40d9ef2902351e4445,65d2b6c8f2eece985d8e374c,65d2b799b376ecff2523cbe4,0.0222,0.0222,0,117,117,95,1,eightseven,,,,,,,,,,,,,,,,,,,,,,,,,,,,,,,,,,,,,,,,,,,,,,,,,,,,,,,,,,,,,,,,,,,,,,,,,,,,,,,,,,,,,,,,,,,,,,,,,,,,,,,,,,,,,,,,,,,,,,,,,,,,,,,,,,,,,,,,,
,,5ebabd40d9ef2902351e4445,2024-02-19_03h06.28.142,kallum_motion_pilot,2023.2.2,Win32,20,5ebabd40d9ef2902351e4445,65d2b6c8f2eece985d8e374c,65d2b799b376ecff2523cbe4,0.0223,0.0223,0,118,118,19,1,twofour,,,,,,,,,,,,,,,,,,,,,,,,,,,,,,,,,,,,,,,,,,,,,,,,,,,,,,,,,,,,,,,,,,,,,,,,,,,,,,,,,,,,,,,,,,,,,,,,,,,,,,,,,,,,,,,,,,,,,,,,,,,,,,,,,,,,,,,,,
,,5ebabd40d9ef2902351e4445,2024-02-19_03h06.28.142,kallum_motion_pilot,2023.2.2,Win32,20,5ebabd40d9ef2902351e4445,65d2b6c8f2eece985d8e374c,65d2b799b376ecff2523cbe4,0.0223,0.0223,0,119,119,129,1,fiveseven,,,,,,,,,,,,,,,,,,,,,,,,,,,,,,,,,,,,,,,,,,,,,,,,,,,,,,,,,,,,,,,,,,,,,,,,,,,,,,,,,,,,,,,,,,,,,,,,,,,,,,,,,,,,,,,,,,,,,,,,,,,,,,,,,,,,,,,,,
,,5ebabd40d9ef2902351e4445,2024-02-19_03h06.28.142,kallum_motion_pilot,2023.2.2,Win32,20,5ebabd40d9ef2902351e4445,65d2b6c8f2eece985d8e374c,65d2b799b376ecff2523cbe4,0.0224,0.0224,0,120,120,73,1,onethree,,,,,,,,,,,,,,,,,,,,,,,,,,,,,,,,,,,,,,,,,,,,,,,,,,,,,,,,,,,,,,,,,,,,,,,,,,,,,,,,,,,,,,,,,,,,,,,,,,,,,,,,,,,,,,,,,,,,,,,,,,,,,,,,,,,,,,,,,
,,5ebabd40d9ef2902351e4445,2024-02-19_03h06.28.142,kallum_motion_pilot,2023.2.2,Win32,20,5ebabd40d9ef2902351e4445,65d2b6c8f2eece985d8e374c,65d2b799b376ecff2523cbe4,0.0224,0.0225,0,121,121,42,1,twoone,,,,,,,,,,,,,,,,,,,,,,,,,,,,,,,,,,,,,,,,,,,,,,,,,,,,,,,,,,,,,,,,,,,,,,,,,,,,,,,,,,,,,,,,,,,,,,,,,,,,,,,,,,,,,,,,,,,,,,,,,,,,,,,,,,,,,,,,,
,,5ebabd40d9ef2902351e4445,2024-02-19_03h06.28.142,kallum_motion_pilot,2023.2.2,Win32,20,5ebabd40d9ef2902351e4445,65d2b6c8f2eece985d8e374c,65d2b799b376ecff2523cbe4,0.0226,0.0226,0,122,122,136,1,fivesix,,,,,,,,,,,,,,,,,,,,,,,,,,,,,,,,,,,,,,,,,,,,,,,,,,,,,,,,,,,,,,,,,,,,,,,,,,,,,,,,,,,,,,,,,,,,,,,,,,,,,,,,,,,,,,,,,,,,,,,,,,,,,,,,,,,,,,,,,
,,5ebabd40d9ef2902351e4445,2024-02-19_03h06.28.142,kallum_motion_pilot,2023.2.2,Win32,20,5ebabd40d9ef2902351e4445,65d2b6c8f2eece985d8e374c,65d2b799b376ecff2523cbe4,0.0226,0.0227,0,123,123,111,1,eightseven,,,,,,,,,,,,,,,,,,,,,,,,,,,,,,,,,,,,,,,,,,,,,,,,,,,,,,,,,,,,,,,,,,,,,,,,,,,,,,,,,,,,,,,,,,,,,,,,,,,,,,,,,,,,,,,,,,,,,,,,,,,,,,,,,,,,,,,,,
,,5ebabd40d9ef2902351e4445,2024-02-19_03h06.28.142,kallum_motion_pilot,2023.2.2,Win32,20,5ebabd40d9ef2902351e4445,65d2b6c8f2eece985d8e374c,65d2b799b376ecff2523cbe4,0.0227,0.0228,0,124,124,22,1,fourtwo,,,,,,,,,,,,,,,,,,,,,,,,,,,,,,,,,,,,,,,,,,,,,,,,,,,,,,,,,,,,,,,,,,,,,,,,,,,,,,,,,,,,,,,,,,,,,,,,,,,,,,,,,,,,,,,,,,,,,,,,,,,,,,,,,,,,,,,,,
,,5ebabd40d9ef2902351e4445,2024-02-19_03h06.28.142,kallum_motion_pilot,2023.2.2,Win32,20,5ebabd40d9ef2902351e4445,65d2b6c8f2eece985d8e374c,65d2b799b376ecff2523cbe4,0.0228,0.0228,0,125,125,7,1,fourthree,,,,,,,,,,,,,,,,,,,,,,,,,,,,,,,,,,,,,,,,,,,,,,,,,,,,,,,,,,,,,,,,,,,,,,,,,,,,,,,,,,,,,,,,,,,,,,,,,,,,,,,,,,,,,,,,,,,,,,,,,,,,,,,,,,,,,,,,,
,,5ebabd40d9ef2902351e4445,2024-02-19_03h06.28.142,kallum_motion_pilot,2023.2.2,Win32,20,5ebabd40d9ef2902351e4445,65d2b6c8f2eece985d8e374c,65d2b799b376ecff2523cbe4,0.0228,0.0228,0,126,126,81,1,fiveseven,,,,,,,,,,,,,,,,,,,,,,,,,,,,,,,,,,,,,,,,,,,,,,,,,,,,,,,,,,,,,,,,,,,,,,,,,,,,,,,,,,,,,,,,,,,,,,,,,,,,,,,,,,,,,,,,,,,,,,,,,,,,,,,,,,,,,,,,,
,,5ebabd40d9ef2902351e4445,2024-02-19_03h06.28.142,kallum_motion_pilot,2023.2.2,Win32,20,5ebabd40d9ef2902351e4445,65d2b6c8f2eece985d8e374c,65d2b799b376ecff2523cbe4,0.0229,0.023,0,127,127,92,1,sevenfive,,,,,,,,,,,,,,,,,,,,,,,,,,,,,,,,,,,,,,,,,,,,,,,,,,,,,,,,,,,,,,,,,,,,,,,,,,,,,,,,,,,,,,,,,,,,,,,,,,,,,,,,,,,,,,,,,,,,,,,,,,,,,,,,,,,,,,,,,
,,5ebabd40d9ef2902351e4445,2024-02-19_03h06.28.142,kallum_motion_pilot,2023.2.2,Win32,20,5ebabd40d9ef2902351e4445,65d2b6c8f2eece985d8e374c,65d2b799b376ecff2523cbe4,0.023,0.023,0,128,128,75,1,twofour,,,,,,,,,,,,,,,,,,,,,,,,,,,,,,,,,,,,,,,,,,,,,,,,,,,,,,,,,,,,,,,,,,,,,,,,,,,,,,,,,,,,,,,,,,,,,,,,,,,,,,,,,,,,,,,,,,,,,,,,,,,,,,,,,,,,,,,,,
,,5ebabd40d9ef2902351e4445,2024-02-19_03h06.28.142,kallum_motion_pilot,2023.2.2,Win32,20,5ebabd40d9ef2902351e4445,65d2b6c8f2eece985d8e374c,65d2b799b376ecff2523cbe4,0.0231,0.0231,0,129,129,110,1,eightsix,,,,,,,,,,,,,,,,,,,,,,,,,,,,,,,,,,,,,,,,,,,,,,,,,,,,,,,,,,,,,,,,,,,,,,,,,,,,,,,,,,,,,,,,,,,,,,,,,,,,,,,,,,,,,,,,,,,,,,,,,,,,,,,,,,,,,,,,,
,,5ebabd40d9ef2902351e4445,2024-02-19_03h06.28.142,kallum_motion_pilot,2023.2.2,Win32,20,5ebabd40d9ef2902351e4445,65d2b6c8f2eece985d8e374c,65d2b799b376ecff2523cbe4,0.0232,0.0232,0,130,130,4,1,threeone,,,,,,,,,,,,,,,,,,,,,,,,,,,,,,,,,,,,,,,,,,,,,,,,,,,,,,,,,,,,,,,,,,,,,,,,,,,,,,,,,,,,,,,,,,,,,,,,,,,,,,,,,,,,,,,,,,,,,,,,,,,,,,,,,,,,,,,,,
,,5ebabd40d9ef2902351e4445,2024-02-19_03h06.28.142,kallum_motion_pilot,2023.2.2,Win32,20,5ebabd40d9ef2902351e4445,65d2b6c8f2eece985d8e374c,65d2b799b376ecff2523cbe4,0.0232,0.0232,0,131,131,132,1,sevenfive,,,,,,,,,,,,,,,,,,,,,,,,,,,,,,,,,,,,,,,,,,,,,,,,,,,,,,,,,,,,,,,,,,,,,,,,,,,,,,,,,,,,,,,,,,,,,,,,,,,,,,,,,,,,,,,,,,,,,,,,,,,,,,,,,,,,,,,,,
,,5ebabd40d9ef2902351e4445,2024-02-19_03h06.28.142,kallum_motion_pilot,2023.2.2,Win32,20,5ebabd40d9ef2902351e4445,65d2b6c8f2eece985d8e374c,65d2b799b376ecff2523cbe4,0.0232,0.0233,0,132,132,24,1,onetwo,,,,,,,,,,,,,,,,,,,,,,,,,,,,,,,,,,,,,,,,,,,,,,,,,,,,,,,,,,,,,,,,,,,,,,,,,,,,,,,,,,,,,,,,,,,,,,,,,,,,,,,,,,,,,,,,,,,,,,,,,,,,,,,,,,,,,,,,,
,,5ebabd40d9ef2902351e4445,2024-02-19_03h06.28.142,kallum_motion_pilot,2023.2.2,Win32,20,5ebabd40d9ef2902351e4445,65d2b6c8f2eece985d8e374c,65d2b799b376ecff2523cbe4,0.0233,0.0234,0,133,133,113,1,fiveseven,,,,,,,,,,,,,,,,,,,,,,,,,,,,,,,,,,,,,,,,,,,,,,,,,,,,,,,,,,,,,,,,,,,,,,,,,,,,,,,,,,,,,,,,,,,,,,,,,,,,,,,,,,,,,,,,,,,,,,,,,,,,,,,,,,,,,,,,,
,,5ebabd40d9ef2902351e4445,2024-02-19_03h06.28.142,kallum_motion_pilot,2023.2.2,Win32,20,5ebabd40d9ef2902351e4445,65d2b6c8f2eece985d8e374c,65d2b799b376ecff2523cbe4,0.0234,0.0234,0,134,134,71,1,fourthree,,,,,,,,,,,,,,,,,,,,,,,,,,,,,,,,,,,,,,,,,,,,,,,,,,,,,,,,,,,,,,,,,,,,,,,,,,,,,,,,,,,,,,,,,,,,,,,,,,,,,,,,,,,,,,,,,,,,,,,,,,,,,,,,,,,,,,,,,
,,5ebabd40d9ef2902351e4445,2024-02-19_03h06.28.142,kallum_motion_pilot,2023.2.2,Win32,20,5ebabd40d9ef2902351e4445,65d2b6c8f2eece985d8e374c,65d2b799b376ecff2523cbe4,0.0235,0.0235,0,135,135,100,1,sevenfive,,,,,,,,,,,,,,,,,,,,,,,,,,,,,,,,,,,,,,,,,,,,,,,,,,,,,,,,,,,,,,,,,,,,,,,,,,,,,,,,,,,,,,,,,,,,,,,,,,,,,,,,,,,,,,,,,,,,,,,,,,,,,,,,,,,,,,,,,
,,5ebabd40d9ef2902351e4445,2024-02-19_03h06.28.142,kallum_motion_pilot,2023.2.2,Win32,20,5ebabd40d9ef2902351e4445,65d2b6c8f2eece985d8e374c,65d2b799b376ecff2523cbe4,0.0236,0.0236,0,136,136,54,1,fourtwo,,,,,,,,,,,,,,,,,,,,,,,,,,,,,,,,,,,,,,,,,,,,,,,,,,,,,,,,,,,,,,,,,,,,,,,,,,,,,,,,,,,,,,,,,,,,,,,,,,,,,,,,,,,,,,,,,,,,,,,,,,,,,,,,,,,,,,,,,
,,5ebabd40d9ef2902351e4445,2024-02-19_03h06.28.142,kallum_motion_pilot,2023.2.2,Win32,20,5ebabd40d9ef2902351e4445,65d2b6c8f2eece985d8e374c,65d2b799b376ecff2523cbe4,0.0236,0.0237,0,137,137,12,1,threeone,,,,,,,,,,,,,,,,,,,,,,,,,,,,,,,,,,,,,,,,,,,,,,,,,,,,,,,,,,,,,,,,,,,,,,,,,,,,,,,,,,,,,,,,,,,,,,,,,,,,,,,,,,,,,,,,,,,,,,,,,,,,,,,,,,,,,,,,,
,,5ebabd40d9ef2902351e4445,2024-02-19_03h06.28.142,kallum_motion_pilot,2023.2.2,Win32,20,5ebabd40d9ef2902351e4445,65d2b6c8f2eece985d8e374c,65d2b799b376ecff2523cbe4,0.0237,0.0237,0,138,138,118,1,eightsix,,,,,,,,,,,,,,,,,,,,,,,,,,,,,,,,,,,,,,,,,,,,,,,,,,,,,,,,,,,,,,,,,,,,,,,,,,,,,,,,,,,,,,,,,,,,,,,,,,,,,,,,,,,,,,,,,,,,,,,,,,,,,,,,,,,,,,,,,
,,5ebabd40d9ef2902351e4445,2024-02-19_03h06.28.142,kallum_motion_pilot,2023.2.2,Win32,20,5ebabd40d9ef2902351e4445,65d2b6c8f2eece985d8e374c,65d2b799b376ecff2523cbe4,0.0237,0.0237,0,139,139,139,1,sixeight,,,,,,,,,,,,,,,,,,,,,,,,,,,,,,,,,,,,,,,,,,,,,,,,,,,,,,,,,,,,,,,,,,,,,,,,,,,,,,,,,,,,,,,,,,,,,,,,,,,,,,,,,,,,,,,,,,,,,,,,,,,,,,,,,,,,,,,,,
,,5ebabd40d9ef2902351e4445,2024-02-19_03h06.28.142,kallum_motion_pilot,2023.2.2,Win32,20,5ebabd40d9ef2902351e4445,65d2b6c8f2eece985d8e374c,65d2b799b376ecff2523cbe4,0.0238,0.0238,0,140,140,89,1,fiveseven,,,,,,,,,,,,,,,,,,,,,,,,,,,,,,,,,,,,,,,,,,,,,,,,,,,,,,,,,,,,,,,,,,,,,,,,,,,,,,,,,,,,,,,,,,,,,,,,,,,,,,,,,,,,,,,,,,,,,,,,,,,,,,,,,,,,,,,,,
,,5ebabd40d9ef2902351e4445,2024-02-19_03h06.28.142,kallum_motion_pilot,2023.2.2,Win32,20,5ebabd40d9ef2902351e4445,65d2b6c8f2eece985d8e374c,65d2b799b376ecff2523cbe4,0.0239,0.0239,0,141,141,143,1,eightseven,,,,,,,,,,,,,,,,,,,,,,,,,,,,,,,,,,,,,,,,,,,,,,,,,,,,,,,,,,,,,,,,,,,,,,,,,,,,,,,,,,,,,,,,,,,,,,,,,,,,,,,,,,,,,,,,,,,,,,,,,,,,,,,,,,,,,,,,,
,,5ebabd40d9ef2902351e4445,2024-02-19_03h06.28.142,kallum_motion_pilot,2023.2.2,Win32,20,5ebabd40d9ef2902351e4445,65d2b6c8f2eece985d8e374c,65d2b799b376ecff2523cbe4,0.0239,0.024,0,142,142,157,1,seveneight,,,,,,,,,,,,,,,,,,,,,,,,,,,,,,,,,,,,,,,,,,,,,,,,,,,,,,,,,,,,,,,,,,,,,,,,,,,,,,,,,,,,,,,,,,,,,,,,,,,,,,,,,,,,,,,,,,,,,,,,,,,,,,,,,,,,,,,,,
,,5ebabd40d9ef2902351e4445,2024-02-19_03h06.28.142,kallum_motion_pilot,2023.2.2,Win32,20,5ebabd40d9ef2902351e4445,65d2b6c8f2eece985d8e374c,65d2b799b376ecff2523cbe4,0.024,0.024,0,143,143,30,1,fourtwo,,,,,,,,,,,,,,,,,,,,,,,,,,,,,,,,,,,,,,,,,,,,,,,,,,,,,,,,,,,,,,,,,,,,,,,,,,,,,,,,,,,,,,,,,,,,,,,,,,,,,,,,,,,,,,,,,,,,,,,,,,,,,,,,,,,,,,,,,
,,5ebabd40d9ef2902351e4445,2024-02-19_03h06.28.142,kallum_motion_pilot,2023.2.2,Win32,20,5ebabd40d9ef2902351e4445,65d2b6c8f2eece985d8e374c,65d2b799b376ecff2523cbe4,0.0241,0.0241,0,144,144,158,1,eightsix,,,,,,,,,,,,,,,,,,,,,,,,,,,,,,,,,,,,,,,,,,,,,,,,,,,,,,,,,,,,,,,,,,,,,,,,,,,,,,,,,,,,,,,,,,,,,,,,,,,,,,,,,,,,,,,,,,,,,,,,,,,,,,,,,,,,,,,,,
,,5ebabd40d9ef2902351e4445,2024-02-19_03h06.28.142,kallum_motion_pilot,2023.2.2,Win32,20,5ebabd40d9ef2902351e4445,65d2b6c8f2eece985d8e374c,65d2b799b376ecff2523cbe4,0.0242,0.0242,0,145,145,52,1,threeone,,,,,,,,,,,,,,,,,,,,,,,,,,,,,,,,,,,,,,,,,,,,,,,,,,,,,,,,,,,,,,,,,,,,,,,,,,,,,,,,,,,,,,,,,,,,,,,,,,,,,,,,,,,,,,,,,,,,,,,,,,,,,,,,,,,,,,,,,
,,5ebabd40d9ef2902351e4445,2024-02-19_03h06.28.142,kallum_motion_pilot,2023.2.2,Win32,20,5ebabd40d9ef2902351e4445,65d2b6c8f2eece985d8e374c,65d2b799b376ecff2523cbe4,0.0242,0.0244,0,146,146,56,1,onetwo,,,,,,,,,,,,,,,,,,,,,,,,,,,,,,,,,,,,,,,,,,,,,,,,,,,,,,,,,,,,,,,,,,,,,,,,,,,,,,,,,,,,,,,,,,,,,,,,,,,,,,,,,,,,,,,,,,,,,,,,,,,,,,,,,,,,,,,,,
,,5ebabd40d9ef2902351e4445,2024-02-19_03h06.28.142,kallum_motion_pilot,2023.2.2,Win32,20,5ebabd40d9ef2902351e4445,65d2b6c8f2eece985d8e374c,65d2b799b376ecff2523cbe4,0.0244,0.0244,0,147,147,17,1,onethree,,,,,,,,,,,,,,,,,,,,,,,,,,,,,,,,,,,,,,,,,,,,,,,,,,,,,,,,,,,,,,,,,,,,,,,,,,,,,,,,,,,,,,,,,,,,,,,,,,,,,,,,,,,,,,,,,,,,,,,,,,,,,,,,,,,,,,,,,
,,5ebabd40d9ef2902351e4445,2024-02-19_03h06.28.142,kallum_motion_pilot,2023.2.2,Win32,20,5ebabd40d9ef2902351e4445,65d2b6c8f2eece985d8e374c,65d2b799b376ecff2523cbe4,0.0244,0.0246,0,148,148,140,1,sevenfive,,,,,,,,,,,,,,,,,,,,,,,,,,,,,,,,,,,,,,,,,,,,,,,,,,,,,,,,,,,,,,,,,,,,,,,,,,,,,,,,,,,,,,,,,,,,,,,,,,,,,,,,,,,,,,,,,,,,,,,,,,,,,,,,,,,,,,,,,
,,5ebabd40d9ef2902351e4445,2024-02-19_03h06.28.142,kallum_motion_pilot,2023.2.2,Win32,20,5ebabd40d9ef2902351e4445,65d2b6c8f2eece985d8e374c,65d2b799b376ecff2523cbe4,0.0246,0.0246,0,149,149,74,1,twoone,,,,,,,,,,,,,,,,,,,,,,,,,,,,,,,,,,,,,,,,,,,,,,,,,,,,,,,,,,,,,,,,,,,,,,,,,,,,,,,,,,,,,,,,,,,,,,,,,,,,,,,,,,,,,,,,,,,,,,,,,,,,,,,,,,,,,,,,,
,,5ebabd40d9ef2902351e4445,2024-02-19_03h06.28.142,kallum_motion_pilot,2023.2.2,Win32,20,5ebabd40d9ef2902351e4445,65d2b6c8f2eece985d8e374c,65d2b799b376ecff2523cbe4,0.0247,0.0247,0,150,150,77,1,threefour,,,,,,,,,,,,,,,,,,,,,,,,,,,,,,,,,,,,,,,,,,,,,,,,,,,,,,,,,,,,,,,,,,,,,,,,,,,,,,,,,,,,,,,,,,,,,,,,,,,,,,,,,,,,,,,,,,,,,,,,,,,,,,,,,,,,,,,,,
,,5ebabd40d9ef2902351e4445,2024-02-19_03h06.28.142,kallum_motion_pilot,2023.2.2,Win32,20,5ebabd40d9ef2902351e4445,65d2b6c8f2eece985d8e374c,65d2b799b376ecff2523cbe4,0.0248,0.0248,0,151,151,99,1,sixeight,,,,,,,,,,,,,,,,,,,,,,,,,,,,,,,,,,,,,,,,,,,,,,,,,,,,,,,,,,,,,,,,,,,,,,,,,,,,,,,,,,,,,,,,,,,,,,,,,,,,,,,,,,,,,,,,,,,,,,,,,,,,,,,,,,,,,,,,,
,,5ebabd40d9ef2902351e4445,2024-02-19_03h06.28.142,kallum_motion_pilot,2023.2.2,Win32,20,5ebabd40d9ef2902351e4445,65d2b6c8f2eece985d8e374c,65d2b799b376ecff2523cbe4,0.0249,0.0249,0,152,152,63,1,fourthree,,,,,,,,,,,,,,,,,,,,,,,,,,,,,,,,,,,,,,,,,,,,,,,,,,,,,,,,,,,,,,,,,,,,,,,,,,,,,,,,,,,,,,,,,,,,,,,,,,,,,,,,,,,,,,,,,,,,,,,,,,,,,,,,,,,,,,,,,
,,5ebabd40d9ef2902351e4445,2024-02-19_03h06.28.142,kallum_motion_pilot,2023.2.2,Win32,20,5ebabd40d9ef2902351e4445,65d2b6c8f2eece985d8e374c,65d2b799b376ecff2523cbe4,0.0249,0.025,0,153,153,120,1,fivesix,,,,,,,,,,,,,,,,,,,,,,,,,,,,,,,,,,,,,,,,,,,,,,,,,,,,,,,,,,,,,,,,,,,,,,,,,,,,,,,,,,,,,,,,,,,,,,,,,,,,,,,,,,,,,,,,,,,,,,,,,,,,,,,,,,,,,,,,,
,,5ebabd40d9ef2902351e4445,2024-02-19_03h06.28.142,kallum_motion_pilot,2023.2.2,Win32,20,5ebabd40d9ef2902351e4445,65d2b6c8f2eece985d8e374c,65d2b799b376ecff2523cbe4,0.0251,0.0251,0,154,154,106,1,sixfive,,,,,,,,,,,,,,,,,,,,,,,,,,,,,,,,,,,,,,,,,,,,,,,,,,,,,,,,,,,,,,,,,,,,,,,,,,,,,,,,,,,,,,,,,,,,,,,,,,,,,,,,,,,,,,,,,,,,,,,,,,,,,,,,,,,,,,,,,
,,5ebabd40d9ef2902351e4445,2024-02-19_03h06.28.142,kallum_motion_pilot,2023.2.2,Win32,20,5ebabd40d9ef2902351e4445,65d2b6c8f2eece985d8e374c,65d2b799b376ecff2523cbe4,0.0252,0.0252,0,155,155,115,1,sixeight,,,,,,,,,,,,,,,,,,,,,,,,,,,,,,,,,,,,,,,,,,,,,,,,,,,,,,,,,,,,,,,,,,,,,,,,,,,,,,,,,,,,,,,,,,,,,,,,,,,,,,,,,,,,,,,,,,,,,,,,,,,,,,,,,,,,,,,,,
,,5ebabd40d9ef2902351e4445,2024-02-19_03h06.28.142,kallum_motion_pilot,2023.2.2,Win32,20,5ebabd40d9ef2902351e4445,65d2b6c8f2eece985d8e374c,65d2b799b376ecff2523cbe4,0.0253,0.0253,0,156,156,66,1,twoone,,,,,,,,,,,,,,,,,,,,,,,,,,,,,,,,,,,,,,,,,,,,,,,,,,,,,,,,,,,,,,,,,,,,,,,,,,,,,,,,,,,,,,,,,,,,,,,,,,,,,,,,,,,,,,,,,,,,,,,,,,,,,,,,,,,,,,,,,
,,5ebabd40d9ef2902351e4445,2024-02-19_03h06.28.142,kallum_motion_pilot,2023.2.2,Win32,20,5ebabd40d9ef2902351e4445,65d2b6c8f2eece985d8e374c,65d2b799b376ecff2523cbe4,0.0255,0.0255,0,157,157,102,1,eightsix,,,,,,,,,,,,,,,,,,,,,,,,,,,,,,,,,,,,,,,,,,,,,,,,,,,,,,,,,,,,,,,,,,,,,,,,,,,,,,,,,,,,,,,,,,,,,,,,,,,,,,,,,,,,,,,,,,,,,,,,,,,,,,,,,,,,,,,,,
,,5ebabd40d9ef2902351e4445,2024-02-19_03h06.28.142,kallum_motion_pilot,2023.2.2,Win32,20,5ebabd40d9ef2902351e4445,65d2b6c8f2eece985d8e374c,65d2b799b376ecff2523cbe4,0.0256,0.0256,0,158,158,155,1,sixeight,,,,,,,,,,,,,,,,,,,,,,,,,,,,,,,,,,,,,,,,,,,,,,,,,,,,,,,,,,,,,,,,,,,,,,,,,,,,,,,,,,,,,,,,,,,,,,,,,,,,,,,,,,,,,,,,,,,,,,,,,,,,,,,,,,,,,,,,,
,,5ebabd40d9ef2902351e4445,2024-02-19_03h06.28.142,kallum_motion_pilot,2023.2.2,Win32,20,5ebabd40d9ef2902351e4445,65d2b6c8f2eece985d8e374c,65d2b799b376ecff2523cbe4,0.0256,0.0256,0,159,159,96,1,fivesix,,,,,,,,,,,,,,,,,,,,,,,,,,,,,,,,,,,,,,,,,,,,,,,,,,,,,,,,,,,,,,,,,,,,,,,,,,,,,,,,,,,,,,,,,,,,,,,,,,,,,,,,,,,,,,,,,,,,,,,,,,,,,,,,,,,,,,,,,
,,5ebabd40d9ef2902351e4445,2024-02-19_03h06.28.142,kallum_motion_pilot,2023.2.2,Win32,20,5ebabd40d9ef2902351e4445,65d2b6c8f2eece985d8e374c,65d2b799b376ecff2523cbe4,0.0257,0.0258,0,160,160,153,1,fiveseven,,,,,,,,,,,,,,,,,,,,,,,,,,,,,,,,,,,,,,,,,,,,,,,,,,,,,,,,,,,,,,,,,,,,,,,,,,,,,,,,,,,,,,,,,,,,,,,,,,,,,,,,,,,,,,,,,,,,,,,,,,,,,,,,,,,,,,,,,
,,5ebabd40d9ef2902351e4445,2024-02-19_03h06.28.142,kallum_motion_pilot,2023.2.2,Win32,20,5ebabd40d9ef2902351e4445,65d2b6c8f2eece985d8e374c,65d2b799b376ecff2523cbe4,0.0258,0.0258,0,161,161,98,1,sixfive,,,,,,,,,,,,,,,,,,,,,,,,,,,,,,,,,,,,,,,,,,,,,,,,,,,,,,,,,,,,,,,,,,,,,,,,,,,,,,,,,,,,,,,,,,,,,,,,,,,,,,,,,,,,,,,,,,,,,,,,,,,,,,,,,,,,,,,,,
,,5ebabd40d9ef2902351e4445,2024-02-19_03h06.28.142,kallum_motion_pilot,2023.2.2,Win32,20,5ebabd40d9ef2902351e4445,65d2b6c8f2eece985d8e374c,65d2b799b376ecff2523cbe4,0.0259,0.0259,1,0,162,81,1,fiveseven,,,,,,,,,,,,,,,,,,,,,,,,,,,,,,,,,,,,,,,,,,,,,,,,,,,,,,,,,,,,,,,,,,,,,,,,,,,,,,,,,,,,,,,,,,,,,,,,,,,,,,,,,,,,,,,,,,,,,,,,,,,,,,,,,,,,,,,,,
,,5ebabd40d9ef2902351e4445,2024-02-19_03h06.28.142,kallum_motion_pilot,2023.2.2,Win32,20,5ebabd40d9ef2902351e4445,65d2b6c8f2eece985d8e374c,65d2b799b376ecff2523cbe4,0.026,0.026,1,1,163,158,1,eightsix,,,,,,,,,,,,,,,,,,,,,,,,,,,,,,,,,,,,,,,,,,,,,,,,,,,,,,,,,,,,,,,,,,,,,,,,,,,,,,,,,,,,,,,,,,,,,,,,,,,,,,,,,,,,,,,,,,,,,,,,,,,,,,,,,,,,,,,,,
,,5ebabd40d9ef2902351e4445,2024-02-19_03h06.28.142,kallum_motion_pilot,2023.2.2,Win32,20,5ebabd40d9ef2902351e4445,65d2b6c8f2eece985d8e374c,65d2b799b376ecff2523cbe4,0.0261,0.0261,1,2,164,1,1,onethree,,,,,,,,,,,,,,,,,,,,,,,,,,,,,,,,,,,,,,,,,,,,,,,,,,,,,,,,,,,,,,,,,,,,,,,,,,,,,,,,,,,,,,,,,,,,,,,,,,,,,,,,,,,,,,,,,,,,,,,,,,,,,,,,,,,,,,,,,
,,5ebabd40d9ef2902351e4445,2024-02-19_03h06.28.142,kallum_motion_pilot,2023.2.2,Win32,20,5ebabd40d9ef2902351e4445,65d2b6c8f2eece985d8e374c,65d2b799b376ecff2523cbe4,0.0261,0.0261,1,3,165,90,1,sixfive,,,,,,,,,,,,,,,,,,,,,,,,,,,,,,,,,,,,,,,,,,,,,,,,,,,,,,,,,,,,,,,,,,,,,,,,,,,,,,,,,,,,,,,,,,,,,,,,,,,,,,,,,,,,,,,,,,,,,,,,,,,,,,,,,,,,,,,,,
,,5ebabd40d9ef2902351e4445,2024-02-19_03h06.28.142,kallum_motion_pilot,2023.2.2,Win32,20,5ebabd40d9ef2902351e4445,65d2b6c8f2eece985d8e374c,65d2b799b376ecff2523cbe4,0.0263,0.0263,1,4,166,89,1,fiveseven,,,,,,,,,,,,,,,,,,,,,,,,,,,,,,,,,,,,,,,,,,,,,,,,,,,,,,,,,,,,,,,,,,,,,,,,,,,,,,,,,,,,,,,,,,,,,,,,,,,,,,,,,,,,,,,,,,,,,,,,,,,,,,,,,,,,,,,,,
,,5ebabd40d9ef2902351e4445,2024-02-19_03h06.28.142,kallum_motion_pilot,2023.2.2,Win32,20,5ebabd40d9ef2902351e4445,65d2b6c8f2eece985d8e374c,65d2b799b376ecff2523cbe4,0.0264,0.0264,1,5,167,155,1,sixeight,,,,,,,,,,,,,,,,,,,,,,,,,,,,,,,,,,,,,,,,,,,,,,,,,,,,,,,,,,,,,,,,,,,,,,,,,,,,,,,,,,,,,,,,,,,,,,,,,,,,,,,,,,,,,,,,,,,,,,,,,,,,,,,,,,,,,,,,,
,,5ebabd40d9ef2902351e4445,2024-02-19_03h06.28.142,kallum_motion_pilot,2023.2.2,Win32,20,5ebabd40d9ef2902351e4445,65d2b6c8f2eece985d8e374c,65d2b799b376ecff2523cbe4,0.0264,0.0266,1,6,168,48,1,onetwo,,,,,,,,,,,,,,,,,,,,,,,,,,,,,,,,,,,,,,,,,,,,,,,,,,,,,,,,,,,,,,,,,,,,,,,,,,,,,,,,,,,,,,,,,,,,,,,,,,,,,,,,,,,,,,,,,,,,,,,,,,,,,,,,,,,,,,,,,
,,5ebabd40d9ef2902351e4445,2024-02-19_03h06.28.142,kallum_motion_pilot,2023.2.2,Win32,20,5ebabd40d9ef2902351e4445,65d2b6c8f2eece985d8e374c,65d2b799b376ecff2523cbe4,0.0266,0.0267,1,7,169,32,1,onetwo,,,,,,,,,,,,,,,,,,,,,,,,,,,,,,,,,,,,,,,,,,,,,,,,,,,,,,,,,,,,,,,,,,,,,,,,,,,,,,,,,,,,,,,,,,,,,,,,,,,,,,,,,,,,,,,,,,,,,,,,,,,,,,,,,,,,,,,,,
,,5ebabd40d9ef2902351e4445,2024-02-19_03h06.28.142,kallum_motion_pilot,2023.2.2,Win32,20,5ebabd40d9ef2902351e4445,65d2b6c8f2eece985d8e374c,65d2b799b376ecff2523cbe4,0.0267,0.0268,1,8,170,109,1,seveneight,,,,,,,,,,,,,,,,,,,,,,,,,,,,,,,,,,,,,,,,,,,,,,,,,,,,,,,,,,,,,,,,,,,,,,,,,,,,,,,,,,,,,,,,,,,,,,,,,,,,,,,,,,,,,,,,,,,,,,,,,,,,,,,,,,,,,,,,,
,,5ebabd40d9ef2902351e4445,2024-02-19_03h06.28.142,kallum_motion_pilot,2023.2.2,Win32,20,5ebabd40d9ef2902351e4445,65d2b6c8f2eece985d8e374c,65d2b799b376ecff2523cbe4,0.0268,0.0268,1,9,171,17,1,onethree,,,,,,,,,,,,,,,,,,,,,,,,,,,,,,,,,,,,,,,,,,,,,,,,,,,,,,,,,,,,,,,,,,,,,,,,,,,,,,,,,,,,,,,,,,,,,,,,,,,,,,,,,,,,,,,,,,,,,,,,,,,,,,,,,,,,,,,,,
,,5ebabd40d9ef2902351e4445,2024-02-19_03h06.28.142,kallum_motion_pilot,2023.2.2,Win32,20,5ebabd40d9ef2902351e4445,65d2b6c8f2eece985d8e374c,65d2b799b376ecff2523cbe4,0.0269,0.0269,1,10,172,56,1,onetwo,,,,,,,,,,,,,,,,,,,,,,,,,,,,,,,,,,,,,,,,,,,,,,,,,,,,,,,,,,,,,,,,,,,,,,,,,,,,,,,,,,,,,,,,,,,,,,,,,,,,,,,,,,,,,,,,,,,,,,,,,,,,,,,,,,,,,,,,,
,,5ebabd40d9ef2902351e4445,2024-02-19_03h06.28.142,kallum_motion_pilot,2023.2.2,Win32,20,5ebabd40d9ef2902351e4445,65d2b6c8f2eece985d8e374c,65d2b799b376ecff2523cbe4,0.0269,0.027,1,11,173,21,1,threefour,,,,,,,,,,,,,,,,,,,,,,,,,,,,,,,,,,,,,,,,,,,,,,,,,,,,,,,,,,,,,,,,,,,,,,,,,,,,,,,,,,,,,,,,,,,,,,,,,,,,,,,,,,,,,,,,,,,,,,,,,,,,,,,,,,,,,,,,,
,,5ebabd40d9ef2902351e4445,2024-02-19_03h06.28.142,kallum_motion_pilot,2023.2.2,Win32,20,5ebabd40d9ef2902351e4445,65d2b6c8f2eece985d8e374c,65d2b799b376ecff2523cbe4,0.0271,0.0271,1,12,174,68,1,threeone,,,,,,,,,,,,,,,,,,,,,,,,,,,,,,,,,,,,,,,,,,,,,,,,,,,,,,,,,,,,,,,,,,,,,,,,,,,,,,,,,,,,,,,,,,,,,,,,,,,,,,,,,,,,,,,,,,,,,,,,,,,,,,,,,,,,,,,,,
,,5ebabd40d9ef2902351e4445,2024-02-19_03h06.28.142,kallum_motion_pilot,2023.2.2,Win32,20,5ebabd40d9ef2902351e4445,65d2b6c8f2eece985d8e374c,65d2b799b376ecff2523cbe4,0.0272,0.0272,1,13,175,126,1,eightsix,,,,,,,,,,,,,,,,,,,,,,,,,,,,,,,,,,,,,,,,,,,,,,,,,,,,,,,,,,,,,,,,,,,,,,,,,,,,,,,,,,,,,,,,,,,,,,,,,,,,,,,,,,,,,,,,,,,,,,,,,,,,,,,,,,,,,,,,,
,,5ebabd40d9ef2902351e4445,2024-02-19_03h06.28.142,kallum_motion_pilot,2023.2.2,Win32,20,5ebabd40d9ef2902351e4445,65d2b6c8f2eece985d8e374c,65d2b799b376ecff2523cbe4,0.0272,0.0273,1,14,176,73,1,onethree,,,,,,,,,,,,,,,,,,,,,,,,,,,,,,,,,,,,,,,,,,,,,,,,,,,,,,,,,,,,,,,,,,,,,,,,,,,,,,,,,,,,,,,,,,,,,,,,,,,,,,,,,,,,,,,,,,,,,,,,,,,,,,,,,,,,,,,,,
,,5ebabd40d9ef2902351e4445,2024-02-19_03h06.28.142,kallum_motion_pilot,2023.2.2,Win32,20,5ebabd40d9ef2902351e4445,65d2b6c8f2eece985d8e374c,65d2b799b376ecff2523cbe4,0.0274,0.0274,1,15,177,123,1,sixeight,,,,,,,,,,,,,,,,,,,,,,,,,,,,,,,,,,,,,,,,,,,,,,,,,,,,,,,,,,,,,,,,,,,,,,,,,,,,,,,,,,,,,,,,,,,,,,,,,,,,,,,,,,,,,,,,,,,,,,,,,,,,,,,,,,,,,,,,,
,,5ebabd40d9ef2902351e4445,2024-02-19_03h06.28.142,kallum_motion_pilot,2023.2.2,Win32,20,5ebabd40d9ef2902351e4445,65d2b6c8f2eece985d8e374c,65d2b799b376ecff2523cbe4,0.0275,0.0275,1,16,178,82,1,sixfive,,,,,,,,,,,,,,,,,,,,,,,,,,,,,,,,,,,,,,,,,,,,,,,,,,,,,,,,,,,,,,,,,,,,,,,,,,,,,,,,,,,,,,,,,,,,,,,,,,,,,,,,,,,,,,,,,,,,,,,,,,,,,,,,,,,,,,,,,
,,5ebabd40d9ef2902351e4445,2024-02-19_03h06.28.142,kallum_motion_pilot,2023.2.2,Win32,20,5ebabd40d9ef2902351e4445,65d2b6c8f2eece985d8e374c,65d2b799b376ecff2523cbe4,0.0275,0.0275,1,17,179,124,1,sevenfive,,,,,,,,,,,,,,,,,,,,,,,,,,,,,,,,,,,,,,,,,,,,,,,,,,,,,,,,,,,,,,,,,,,,,,,,,,,,,,,,,,,,,,,,,,,,,,,,,,,,,,,,,,,,,,,,,,,,,,,,,,,,,,,,,,,,,,,,,
,,5ebabd40d9ef2902351e4445,2024-02-19_03h06.28.142,kallum_motion_pilot,2023.2.2,Win32,20,5ebabd40d9ef2902351e4445,65d2b6c8f2eece985d8e374c,65d2b799b376ecff2523cbe4,0.0276,0.0277,1,18,180,53,1,threefour,,,,,,,,,,,,,,,,,,,,,,,,,,,,,,,,,,,,,,,,,,,,,,,,,,,,,,,,,,,,,,,,,,,,,,,,,,,,,,,,,,,,,,,,,,,,,,,,,,,,,,,,,,,,,,,,,,,,,,,,,,,,,,,,,,,,,,,,,
,,5ebabd40d9ef2902351e4445,2024-02-19_03h06.28.142,kallum_motion_pilot,2023.2.2,Win32,20,5ebabd40d9ef2902351e4445,65d2b6c8f2eece985d8e374c,65d2b799b376ecff2523cbe4,0.0277,0.0277,1,19,181,108,1,sevenfive,,,,,,,,,,,,,,,,,,,,,,,,,,,,,,,,,,,,,,,,,,,,,,,,,,,,,,,,,,,,,,,,,,,,,,,,,,,,,,,,,,,,,,,,,,,,,,,,,,,,,,,,,,,,,,,,,,,,,,,,,,,,,,,,,,,,,,,,,
,,5ebabd40d9ef2902351e4445,2024-02-19_03h06.28.142,kallum_motion_pilot,2023.2.2,Win32,20,5ebabd40d9ef2902351e4445,65d2b6c8f2eece985d8e374c,65d2b799b376ecff2523cbe4,0.0278,0.0278,1,20,182,106,1,sixfive,,,,,,,,,,,,,,,,,,,,,,,,,,,,,,,,,,,,,,,,,,,,,,,,,,,,,,,,,,,,,,,,,,,,,,,,,,,,,,,,,,,,,,,,,,,,,,,,,,,,,,,,,,,,,,,,,,,,,,,,,,,,,,,,,,,,,,,,,
,,5ebabd40d9ef2902351e4445,2024-02-19_03h06.28.142,kallum_motion_pilot,2023.2.2,Win32,20,5ebabd40d9ef2902351e4445,65d2b6c8f2eece985d8e374c,65d2b799b376ecff2523cbe4,0.0279,0.0279,1,21,183,143,1,eightseven,,,,,,,,,,,,,,,,,,,,,,,,,,,,,,,,,,,,,,,,,,,,,,,,,,,,,,,,,,,,,,,,,,,,,,,,,,,,,,,,,,,,,,,,,,,,,,,,,,,,,,,,,,,,,,,,,,,,,,,,,,,,,,,,,,,,,,,,,
,,5ebabd40d9ef2902351e4445,2024-02-19_03h06.28.142,kallum_motion_pilot,2023.2.2,Win32,20,5ebabd40d9ef2902351e4445,65d2b6c8f2eece985d8e374c,65d2b799b376ecff2523cbe4,0.0279,0.0279,1,22,184,131,1,sixeight,,,,,,,,,,,,,,,,,,,,,,,,,,,,,,,,,,,,,,,,,,,,,,,,,,,,,,,,,,,,,,,,,,,,,,,,,,,,,,,,,,,,,,,,,,,,,,,,,,,,,,,,,,,,,,,,,,,,,,,,,,,,,,,,,,,,,,,,,
,,5ebabd40d9ef2902351e4445,2024-02-19_03h06.28.142,kallum_motion_pilot,2023.2.2,Win32,20,5ebabd40d9ef2902351e4445,65d2b6c8f2eece985d8e374c,65d2b799b376ecff2523cbe4,0.028,0.028,1,23,185,128,1,fivesix,,,,,,,,,,,,,,,,,,,,,,,,,,,,,,,,,,,,,,,,,,,,,,,,,,,,,,,,,,,,,,,,,,,,,,,,,,,,,,,,,,,,,,,,,,,,,,,,,,,,,,,,,,,,,,,,,,,,,,,,,,,,,,,,,,,,,,,,,
,,5ebabd40d9ef2902351e4445,2024-02-19_03h06.28.142,kallum_motion_pilot,2023.2.2,Win32,20,5ebabd40d9ef2902351e4445,65d2b6c8f2eece985d8e374c,65d2b799b376ecff2523cbe4,0.0281,0.0281,1,24,186,76,1,threeone,,,,,,,,,,,,,,,,,,,,,,,,,,,,,,,,,,,,,,,,,,,,,,,,,,,,,,,,,,,,,,,,,,,,,,,,,,,,,,,,,,,,,,,,,,,,,,,,,,,,,,,,,,,,,,,,,,,,,,,,,,,,,,,,,,,,,,,,,
,,5ebabd40d9ef2902351e4445,2024-02-19_03h06.28.142,kallum_motion_pilot,2023.2.2,Win32,20,5ebabd40d9ef2902351e4445,65d2b6c8f2eece985d8e374c,65d2b799b376ecff2523cbe4,0.0282,0.0283,1,25,187,18,1,twoone,,,,,,,,,,,,,,,,,,,,,,,,,,,,,,,,,,,,,,,,,,,,,,,,,,,,,,,,,,,,,,,,,,,,,,,,,,,,,,,,,,,,,,,,,,,,,,,,,,,,,,,,,,,,,,,,,,,,,,,,,,,,,,,,,,,,,,,,,
,,5ebabd40d9ef2902351e4445,2024-02-19_03h06.28.142,kallum_motion_pilot,2023.2.2,Win32,20,5ebabd40d9ef2902351e4445,65d2b6c8f2eece985d8e374c,65d2b799b376ecff2523cbe4,0.0284,0.0285,1,26,188,153,1,fiveseven,,,,,,,,,,,,,,,,,,,,,,,,,,,,,,,,,,,,,,,,,,,,,,,,,,,,,,,,,,,,,,,,,,,,,,,,,,,,,,,,,,,,,,,,,,,,,,,,,,,,,,,,,,,,,,,,,,,,,,,,,,,,,,,,,,,,,,,,,
,,5ebabd40d9ef2902351e4445,2024-02-19_03h06.28.142,kallum_motion_pilot,2023.2.2,Win32,20,5ebabd40d9ef2902351e4445,65d2b6c8f2eece985d8e374c,65d2b799b376ecff2523cbe4,0.0285,0.0285,1,27,189,59,1,twofour,,,,,,,,,,,,,,,,,,,,,,,,,,,,,,,,,,,,,,,,,,,,,,,,,,,,,,,,,,,,,,,,,,,,,,,,,,,,,,,,,,,,,,,,,,,,,,,,,,,,,,,,,,,,,,,,,,,,,,,,,,,,,,,,,,,,,,,,,
,,5ebabd40d9ef2902351e4445,2024-02-19_03h06.28.142,kallum_motion_pilot,2023.2.2,Win32,20,5ebabd40d9ef2902351e4445,65d2b6c8f2eece985d8e374c,65d2b799b376ecff2523cbe4,0.0286,0.0287,1,28,190,7,1,fourthree,,,,,,,,,,,,,,,,,,,,,,,,,,,,,,,,,,,,,,,,,,,,,,,,,,,,,,,,,,,,,,,,,,,,,,,,,,,,,,,,,,,,,,,,,,,,,,,,,,,,,,,,,,,,,,,,,,,,,,,,,,,,,,,,,,,,,,,,,
,,5ebabd40d9ef2902351e4445,2024-02-19_03h06.28.142,kallum_motion_pilot,2023.2.2,Win32,20,5ebabd40d9ef2902351e4445,65d2b6c8f2eece985d8e374c,65d2b799b376ecff2523cbe4,0.0287,0.0288,1,29,191,55,1,fourthree,,,,,,,,,,,,,,,,,,,,,,,,,,,,,,,,,,,,,,,,,,,,,,,,,,,,,,,,,,,,,,,,,,,,,,,,,,,,,,,,,,,,,,,,,,,,,,,,,,,,,,,,,,,,,,,,,,,,,,,,,,,,,,,,,,,,,,,,,
,,5ebabd40d9ef2902351e4445,2024-02-19_03h06.28.142,kallum_motion_pilot,2023.2.2,Win32,20,5ebabd40d9ef2902351e4445,65d2b6c8f2eece985d8e374c,65d2b799b376ecff2523cbe4,0.0289,0.029,1,30,192,139,1,sixeight,,,,,,,,,,,,,,,,,,,,,,,,,,,,,,,,,,,,,,,,,,,,,,,,,,,,,,,,,,,,,,,,,,,,,,,,,,,,,,,,,,,,,,,,,,,,,,,,,,,,,,,,,,,,,,,,,,,,,,,,,,,,,,,,,,,,,,,,,
,,5ebabd40d9ef2902351e4445,2024-02-19_03h06.28.142,kallum_motion_pilot,2023.2.2,Win32,20,5ebabd40d9ef2902351e4445,65d2b6c8f2eece985d8e374c,65d2b799b376ecff2523cbe4,0.029,0.0291,1,31,193,5,1,threefour,,,,,,,,,,,,,,,,,,,,,,,,,,,,,,,,,,,,,,,,,,,,,,,,,,,,,,,,,,,,,,,,,,,,,,,,,,,,,,,,,,,,,,,,,,,,,,,,,,,,,,,,,,,,,,,,,,,,,,,,,,,,,,,,,,,,,,,,,
,,5ebabd40d9ef2902351e4445,2024-02-19_03h06.28.142,kallum_motion_pilot,2023.2.2,Win32,20,5ebabd40d9ef2902351e4445,65d2b6c8f2eece985d8e374c,65d2b799b376ecff2523cbe4,0.0291,0.0291,1,32,194,38,1,fourtwo,,,,,,,,,,,,,,,,,,,,,,,,,,,,,,,,,,,,,,,,,,,,,,,,,,,,,,,,,,,,,,,,,,,,,,,,,,,,,,,,,,,,,,,,,,,,,,,,,,,,,,,,,,,,,,,,,,,,,,,,,,,,,,,,,,,,,,,,,
,,5ebabd40d9ef2902351e4445,2024-02-19_03h06.28.142,kallum_motion_pilot,2023.2.2,Win32,20,5ebabd40d9ef2902351e4445,65d2b6c8f2eece985d8e374c,65d2b799b376ecff2523cbe4,0.0291,0.0293,1,33,195,83,1,sixeight,,,,,,,,,,,,,,,,,,,,,,,,,,,,,,,,,,,,,,,,,,,,,,,,,,,,,,,,,,,,,,,,,,,,,,,,,,,,,,,,,,,,,,,,,,,,,,,,,,,,,,,,,,,,,,,,,,,,,,,,,,,,,,,,,,,,,,,,,
,,5ebabd40d9ef2902351e4445,2024-02-19_03h06.28.142,kallum_motion_pilot,2023.2.2,Win32,20,5ebabd40d9ef2902351e4445,65d2b6c8f2eece985d8e374c,65d2b799b376ecff2523cbe4,0.0293,0.0293,1,34,196,87,1,eightseven,,,,,,,,,,,,,,,,,,,,,,,,,,,,,,,,,,,,,,,,,,,,,,,,,,,,,,,,,,,,,,,,,,,,,,,,,,,,,,,,,,,,,,,,,,,,,,,,,,,,,,,,,,,,,,,,,,,,,,,,,,,,,,,,,,,,,,,,,
,,5ebabd40d9ef2902351e4445,2024-02-19_03h06.28.142,kallum_motion_pilot,2023.2.2,Win32,20,5ebabd40d9ef2902351e4445,65d2b6c8f2eece985d8e374c,65d2b799b376ecff2523cbe4,0.0293,0.0294,1,35,197,3,1,twofour,,,,,,,,,,,,,,,,,,,,,,,,,,,,,,,,,,,,,,,,,,,,,,,,,,,,,,,,,,,,,,,,,,,,,,,,,,,,,,,,,,,,,,,,,,,,,,,,,,,,,,,,,,,,,,,,,,,,,,,,,,,,,,,,,,,,,,,,,
,,5ebabd40d9ef2902351e4445,2024-02-19_03h06.28.142,kallum_motion_pilot,2023.2.2,Win32,20,5ebabd40d9ef2902351e4445,65d2b6c8f2eece985d8e374c,65d2b799b376ecff2523cbe4,0.0294,0.0295,1,36,198,147,1,sixeight,,,,,,,,,,,,,,,,,,,,,,,,,,,,,,,,,,,,,,,,,,,,,,,,,,,,,,,,,,,,,,,,,,,,,,,,,,,,,,,,,,,,,,,,,,,,,,,,,,,,,,,,,,,,,,,,,,,,,,,,,,,,,,,,,,,,,,,,,
,,5ebabd40d9ef2902351e4445,2024-02-19_03h06.28.142,kallum_motion_pilot,2023.2.2,Win32,20,5ebabd40d9ef2902351e4445,65d2b6c8f2eece985d8e374c,65d2b799b376ecff2523cbe4,0.0295,0.0296,1,37,199,154,1,sixfive,,,,,,,,,,,,,,,,,,,,,,,,,,,,,,,,,,,,,,,,,,,,,,,,,,,,,,,,,,,,,,,,,,,,,,,,,,,,,,,,,,,,,,,,,,,,,,,,,,,,,,,,,,,,,,,,,,,,,,,,,,,,,,,,,,,,,,,,,
,,5ebabd40d9ef2902351e4445,2024-02-19_03h06.28.142,kallum_motion_pilot,2023.2.2,Win32,20,5ebabd40d9ef2902351e4445,65d2b6c8f2eece985d8e374c,65d2b799b376ecff2523cbe4,0.0296,0.0296,1,38,200,37,1,threefour,,,,,,,,,,,,,,,,,,,,,,,,,,,,,,,,,,,,,,,,,,,,,,,,,,,,,,,,,,,,,,,,,,,,,,,,,,,,,,,,,,,,,,,,,,,,,,,,,,,,,,,,,,,,,,,,,,,,,,,,,,,,,,,,,,,,,,,,,
,,5ebabd40d9ef2902351e4445,2024-02-19_03h06.28.142,kallum_motion_pilot,2023.2.2,Win32,20,5ebabd40d9ef2902351e4445,65d2b6c8f2eece985d8e374c,65d2b799b376ecff2523cbe4,0.0297,0.0298,1,39,201,72,1,onetwo,,,,,,,,,,,,,,,,,,,,,,,,,,,,,,,,,,,,,,,,,,,,,,,,,,,,,,,,,,,,,,,,,,,,,,,,,,,,,,,,,,,,,,,,,,,,,,,,,,,,,,,,,,,,,,,,,,,,,,,,,,,,,,,,,,,,,,,,,
,,5ebabd40d9ef2902351e4445,2024-02-19_03h06.28.142,kallum_motion_pilot,2023.2.2,Win32,20,5ebabd40d9ef2902351e4445,65d2b6c8f2eece985d8e374c,65d2b799b376ecff2523cbe4,0.0298,0.0298,1,40,202,157,1,seveneight,,,,,,,,,,,,,,,,,,,,,,,,,,,,,,,,,,,,,,,,,,,,,,,,,,,,,,,,,,,,,,,,,,,,,,,,,,,,,,,,,,,,,,,,,,,,,,,,,,,,,,,,,,,,,,,,,,,,,,,,,,,,,,,,,,,,,,,,,
,,5ebabd40d9ef2902351e4445,2024-02-19_03h06.28.142,kallum_motion_pilot,2023.2.2,Win32,20,5ebabd40d9ef2902351e4445,65d2b6c8f2eece985d8e374c,65d2b799b376ecff2523cbe4,0.0298,0.0299,1,41,203,60,1,threeone,,,,,,,,,,,,,,,,,,,,,,,,,,,,,,,,,,,,,,,,,,,,,,,,,,,,,,,,,,,,,,,,,,,,,,,,,,,,,,,,,,,,,,,,,,,,,,,,,,,,,,,,,,,,,,,,,,,,,,,,,,,,,,,,,,,,,,,,,
,,5ebabd40d9ef2902351e4445,2024-02-19_03h06.28.142,kallum_motion_pilot,2023.2.2,Win32,20,5ebabd40d9ef2902351e4445,65d2b6c8f2eece985d8e374c,65d2b799b376ecff2523cbe4,0.03,0.03,1,42,204,45,1,threefour,,,,,,,,,,,,,,,,,,,,,,,,,,,,,,,,,,,,,,,,,,,,,,,,,,,,,,,,,,,,,,,,,,,,,,,,,,,,,,,,,,,,,,,,,,,,,,,,,,,,,,,,,,,,,,,,,,,,,,,,,,,,,,,,,,,,,,,,,
,,5ebabd40d9ef2902351e4445,2024-02-19_03h06.28.142,kallum_motion_pilot,2023.2.2,Win32,20,5ebabd40d9ef2902351e4445,65d2b6c8f2eece985d8e374c,65d2b799b376ecff2523cbe4,0.03,0.03,1,43,205,46,1,fourtwo,,,,,,,,,,,,,,,,,,,,,,,,,,,,,,,,,,,,,,,,,,,,,,,,,,,,,,,,,,,,,,,,,,,,,,,,,,,,,,,,,,,,,,,,,,,,,,,,,,,,,,,,,,,,,,,,,,,,,,,,,,,,,,,,,,,,,,,,,
,,5ebabd40d9ef2902351e4445,2024-02-19_03h06.28.142,kallum_motion_pilot,2023.2.2,Win32,20,5ebabd40d9ef2902351e4445,65d2b6c8f2eece985d8e374c,65d2b799b376ecff2523cbe4,0.0301,0.0301,1,44,206,122,1,sixfive,,,,,,,,,,,,,,,,,,,,,,,,,,,,,,,,,,,,,,,,,,,,,,,,,,,,,,,,,,,,,,,,,,,,,,,,,,,,,,,,,,,,,,,,,,,,,,,,,,,,,,,,,,,,,,,,,,,,,,,,,,,,,,,,,,,,,,,,,
,,5ebabd40d9ef2902351e4445,2024-02-19_03h06.28.142,kallum_motion_pilot,2023.2.2,Win32,20,5ebabd40d9ef2902351e4445,65d2b6c8f2eece985d8e374c,65d2b799b376ecff2523cbe4,0.0302,0.0302,1,45,207,50,1,twoone,,,,,,,,,,,,,,,,,,,,,,,,,,,,,,,,,,,,,,,,,,,,,,,,,,,,,,,,,,,,,,,,,,,,,,,,,,,,,,,,,,,,,,,,,,,,,,,,,,,,,,,,,,,,,,,,,,,,,,,,,,,,,,,,,,,,,,,,,
,,5ebabd40d9ef2902351e4445,2024-02-19_03h06.28.142,kallum_motion_pilot,2023.2.2,Win32,20,5ebabd40d9ef2902351e4445,65d2b6c8f2eece985d8e374c,65d2b799b376ecff2523cbe4,0.0303,0.0303,1,46,208,39,1,fourthree,,,,,,,,,,,,,,,,,,,,,,,,,,,,,,,,,,,,,,,,,,,,,,,,,,,,,,,,,,,,,,,,,,,,,,,,,,,,,,,,,,,,,,,,,,,,,,,,,,,,,,,,,,,,,,,,,,,,,,,,,,,,,,,,,,,,,,,,,
,,5ebabd40d9ef2902351e4445,2024-02-19_03h06.28.142,kallum_motion_pilot,2023.2.2,Win32,20,5ebabd40d9ef2902351e4445,65d2b6c8f2eece985d8e374c,65d2b799b376ecff2523cbe4,0.0304,0.0304,1,47,209,146,1,sixfive,,,,,,,,,,,,,,,,,,,,,,,,,,,,,,,,,,,,,,,,,,,,,,,,,,,,,,,,,,,,,,,,,,,,,,,,,,,,,,,,,,,,,,,,,,,,,,,,,,,,,,,,,,,,,,,,,,,,,,,,,,,,,,,,,,,,,,,,,
,,5ebabd40d9ef2902351e4445,2024-02-19_03h06.28.142,kallum_motion_pilot,2023.2.2,Win32,20,5ebabd40d9ef2902351e4445,65d2b6c8f2eece985d8e374c,65d2b799b376ecff2523cbe4,0.0304,0.0305,1,48,210,119,1,eightseven,,,,,,,,,,,,,,,,,,,,,,,,,,,,,,,,,,,,,,,,,,,,,,,,,,,,,,,,,,,,,,,,,,,,,,,,,,,,,,,,,,,,,,,,,,,,,,,,,,,,,,,,,,,,,,,,,,,,,,,,,,,,,,,,,,,,,,,,,
,,5ebabd40d9ef2902351e4445,2024-02-19_03h06.28.142,kallum_motion_pilot,2023.2.2,Win32,20,5ebabd40d9ef2902351e4445,65d2b6c8f2eece985d8e374c,65d2b799b376ecff2523cbe4,0.0305,0.0306,1,49,211,107,1,sixeight,,,,,,,,,,,,,,,,,,,,,,,,,,,,,,,,,,,,,,,,,,,,,,,,,,,,,,,,,,,,,,,,,,,,,,,,,,,,,,,,,,,,,,,,,,,,,,,,,,,,,,,,,,,,,,,,,,,,,,,,,,,,,,,,,,,,,,,,,
,,5ebabd40d9ef2902351e4445,2024-02-19_03h06.28.142,kallum_motion_pilot,2023.2.2,Win32,20,5ebabd40d9ef2902351e4445,65d2b6c8f2eece985d8e374c,65d2b799b376ecff2523cbe4,0.0306,0.0307,1,50,212,19,1,twofour,,,,,,,,,,,,,,,,,,,,,,,,,,,,,,,,,,,,,,,,,,,,,,,,,,,,,,,,,,,,,,,,,,,,,,,,,,,,,,,,,,,,,,,,,,,,,,,,,,,,,,,,,,,,,,,,,,,,,,,,,,,,,,,,,,,,,,,,,
,,5ebabd40d9ef2902351e4445,2024-02-19_03h06.28.142,kallum_motion_pilot,2023.2.2,Win32,20,5ebabd40d9ef2902351e4445,65d2b6c8f2eece985d8e374c,65d2b799b376ecff2523cbe4,0.0307,0.0307,1,51,213,52,1,threeone,,,,,,,,,,,,,,,,,,,,,,,,,,,,,,,,,,,,,,,,,,,,,,,,,,,,,,,,,,,,,,,,,,,,,,,,,,,,,,,,,,,,,,,,,,,,,,,,,,,,,,,,,,,,,,,,,,,,,,,,,,,,,,,,,,,,,,,,,
,,5ebabd40d9ef2902351e4445,2024-02-19_03h06.28.142,kallum_motion_pilot,2023.2.2,Win32,20,5ebabd40d9ef2902351e4445,65d2b6c8f2eece985d8e374c,65d2b799b376ecff2523cbe4,0.0308,0.0308,1,52,214,15,1,fourthree,,,,,,,,,,,,,,,,,,,,,,,,,,,,,,,,,,,,,,,,,,,,,,,,,,,,,,,,,,,,,,,,,,,,,,,,,,,,,,,,,,,,,,,,,,,,,,,,,,,,,,,,,,,,,,,,,,,,,,,,,,,,,,,,,,,,,,,,,
,,5ebabd40d9ef2902351e4445,2024-02-19_03h06.28.142,kallum_motion_pilot,2023.2.2,Win32,20,5ebabd40d9ef2902351e4445,65d2b6c8f2eece985d8e374c,65d2b799b376ecff2523cbe4,0.0308,0.0308,1,53,215,138,1,sixfive,,,,,,,,,,,,,,,,,,,,,,,,,,,,,,,,,,,,,,,,,,,,,,,,,,,,,,,,,,,,,,,,,,,,,,,,,,,,,,,,,,,,,,,,,,,,,,,,,,,,,,,,,,,,,,,,,,,,,,,,,,,,,,,,,,,,,,,,,
,,5ebabd40d9ef2902351e4445,2024-02-19_03h06.28.142,kallum_motion_pilot,2023.2.2,Win32,20,5ebabd40d9ef2902351e4445,65d2b6c8f2eece985d8e374c,65d2b799b376ecff2523cbe4,0.0309,0.031,1,54,216,22,1,fourtwo,,,,,,,,,,,,,,,,,,,,,,,,,,,,,,,,,,,,,,,,,,,,,,,,,,,,,,,,,,,,,,,,,,,,,,,,,,,,,,,,,,,,,,,,,,,,,,,,,,,,,,,,,,,,,,,,,,,,,,,,,,,,,,,,,,,,,,,,,
,,5ebabd40d9ef2902351e4445,2024-02-19_03h06.28.142,kallum_motion_pilot,2023.2.2,Win32,20,5ebabd40d9ef2902351e4445,65d2b6c8f2eece985d8e374c,65d2b799b376ecff2523cbe4,0.031,0.031,1,55,217,96,1,fivesix,,,,,,,,,,,,,,,,,,,,,,,,,,,,,,,,,,,,,,,,,,,,,,,,,,,,,,,,,,,,,,,,,,,,,,,,,,,,,,,,,,,,,,,,,,,,,,,,,,,,,,,,,,,,,,,,,,,,,,,,,,,,,,,,,,,,,,,,,
,,5ebabd40d9ef2902351e4445,2024-02-19_03h06.28.142,kallum_motion_pilot,2023.2.2,Win32,20,5ebabd40d9ef2902351e4445,65d2b6c8f2eece985d8e374c,65d2b799b376ecff2523cbe4,0.0311,0.0311,1,56,218,26,1,twoone,,,,,,,,,,,,,,,,,,,,,,,,,,,,,,,,,,,,,,,,,,,,,,,,,,,,,,,,,,,,,,,,,,,,,,,,,,,,,,,,,,,,,,,,,,,,,,,,,,,,,,,,,,,,,,,,,,,,,,,,,,,,,,,,,,,,,,,,,
,,5ebabd40d9ef2902351e4445,2024-02-19_03h06.28.142,kallum_motion_pilot,2023.2.2,Win32,20,5ebabd40d9ef2902351e4445,65d2b6c8f2eece985d8e374c,65d2b799b376ecff2523cbe4,0.0311,0.0311,1,57,219,62,1,fourtwo,,,,,,,,,,,,,,,,,,,,,,,,,,,,,,,,,,,,,,,,,,,,,,,,,,,,,,,,,,,,,,,,,,,,,,,,,,,,,,,,,,,,,,,,,,,,,,,,,,,,,,,,,,,,,,,,,,,,,,,,,,,,,,,,,,,,,,,,,
,,5ebabd40d9ef2902351e4445,2024-02-19_03h06.28.142,kallum_motion_pilot,2023.2.2,Win32,20,5ebabd40d9ef2902351e4445,65d2b6c8f2eece985d8e374c,65d2b799b376ecff2523cbe4,0.0312,0.0312,1,58,220,0,1,onetwo,,,,,,,,,,,,,,,,,,,,,,,,,,,,,,,,,,,,,,,,,,,,,,,,,,,,,,,,,,,,,,,,,,,,,,,,,,,,,,,,,,,,,,,,,,,,,,,,,,,,,,,,,,,,,,,,,,,,,,,,,,,,,,,,,,,,,,,,,
,,5ebabd40d9ef2902351e4445,2024-02-19_03h06.28.142,kallum_motion_pilot,2023.2.2,Win32,20,5ebabd40d9ef2902351e4445,65d2b6c8f2eece985d8e374c,65d2b799b376ecff2523cbe4,0.0314,0.0314,1,59,221,112,1,fivesix,,,,,,,,,,,,,,,,,,,,,,,,,,,,,,,,,,,,,,,,,,,,,,,,,,,,,,,,,,,,,,,,,,,,,,,,,,,,,,,,,,,,,,,,,,,,,,,,,,,,,,,,,,,,,,,,,,,,,,,,,,,,,,,,,,,,,,,,,
,,5ebabd40d9ef2902351e4445,2024-02-19_03h06.28.142,kallum_motion_pilot,2023.2.2,Win32,20,5ebabd40d9ef2902351e4445,65d2b6c8f2eece985d8e374c,65d2b799b376ecff2523cbe4,0.0314,0.0315,1,60,222,31,1,fourthree,,,,,,,,,,,,,,,,,,,,,,,,,,,,,,,,,,,,,,,,,,,,,,,,,,,,,,,,,,,,,,,,,,,,,,,,,,,,,,,,,,,,,,,,,,,,,,,,,,,,,,,,,,,,,,,,,,,,,,,,,,,,,,,,,,,,,,,,,
,,5ebabd40d9ef2902351e4445,2024-02-19_03h06.28.142,kallum_motion_pilot,2023.2.2,Win32,20,5ebabd40d9ef2902351e4445,65d2b6c8f2eece985d8e374c,65d2b799b376ecff2523cbe4,0.0315,0.0315,1,61,223,118,1,eightsix,,,,,,,,,,,,,,,,,,,,,,,,,,,,,,,,,,,,,,,,,,,,,,,,,,,,,,,,,,,,,,,,,,,,,,,,,,,,,,,,,,,,,,,,,,,,,,,,,,,,,,,,,,,,,,,,,,,,,,,,,,,,,,,,,,,,,,,,,
,,5ebabd40d9ef2902351e4445,2024-02-19_03h06.28.142,kallum_motion_pilot,2023.2.2,Win32,20,5ebabd40d9ef2902351e4445,65d2b6c8f2eece985d8e374c,65d2b799b376ecff2523cbe4,0.0316,0.0316,1,62,224,16,1,onetwo,,,,,,,,,,,,,,,,,,,,,,,,,,,,,,,,,,,,,,,,,,,,,,,,,,,,,,,,,,,,,,,,,,,,,,,,,,,,,,,,,,,,,,,,,,,,,,,,,,,,,,,,,,,,,,,,,,,,,,,,,,,,,,,,,,,,,,,,,
,,5ebabd40d9ef2902351e4445,2024-02-19_03h06.28.142,kallum_motion_pilot,2023.2.2,Win32,20,5ebabd40d9ef2902351e4445,65d2b6c8f2eece985d8e374c,65d2b799b376ecff2523cbe4,0.0316,0.0317,1,63,225,65,1,onethree,,,,,,,,,,,,,,,,,,,,,,,,,,,,,,,,,,,,,,,,,,,,,,,,,,,,,,,,,,,,,,,,,,,,,,,,,,,,,,,,,,,,,,,,,,,,,,,,,,,,,,,,,,,,,,,,,,,,,,,,,,,,,,,,,,,,,,,,,
,,5ebabd40d9ef2902351e4445,2024-02-19_03h06.28.142,kallum_motion_pilot,2023.2.2,Win32,20,5ebabd40d9ef2902351e4445,65d2b6c8f2eece985d8e374c,65d2b799b376ecff2523cbe4,0.0317,0.0318,1,64,226,20,1,threeone,,,,,,,,,,,,,,,,,,,,,,,,,,,,,,,,,,,,,,,,,,,,,,,,,,,,,,,,,,,,,,,,,,,,,,,,,,,,,,,,,,,,,,,,,,,,,,,,,,,,,,,,,,,,,,,,,,,,,,,,,,,,,,,,,,,,,,,,,
,,5ebabd40d9ef2902351e4445,2024-02-19_03h06.28.142,kallum_motion_pilot,2023.2.2,Win32,20,5ebabd40d9ef2902351e4445,65d2b6c8f2eece985d8e374c,65d2b799b376ecff2523cbe4,0.0318,0.0318,1,65,227,33,1,onethree,,,,,,,,,,,,,,,,,,,,,,,,,,,,,,,,,,,,,,,,,,,,,,,,,,,,,,,,,,,,,,,,,,,,,,,,,,,,,,,,,,,,,,,,,,,,,,,,,,,,,,,,,,,,,,,,,,,,,,,,,,,,,,,,,,,,,,,,,
,,5ebabd40d9ef2902351e4445,2024-02-19_03h06.28.142,kallum_motion_pilot,2023.2.2,Win32,20,5ebabd40d9ef2902351e4445,65d2b6c8f2eece985d8e374c,65d2b799b376ecff2523cbe4,0.0318,0.0319,1,66,228,132,1,sevenfive,,,,,,,,,,,,,,,,,,,,,,,,,,,,,,,,,,,,,,,,,,,,,,,,,,,,,,,,,,,,,,,,,,,,,,,,,,,,,,,,,,,,,,,,,,,,,,,,,,,,,,,,,,,,,,,,,,,,,,,,,,,,,,,,,,,,,,,,,
,,5ebabd40d9ef2902351e4445,2024-02-19_03h06.28.142,kallum_motion_pilot,2023.2.2,Win32,20,5ebabd40d9ef2902351e4445,65d2b6c8f2eece985d8e374c,65d2b799b376ecff2523cbe4,0.032,0.032,1,67,229,27,1,twofour,,,,,,,,,,,,,,,,,,,,,,,,,,,,,,,,,,,,,,,,,,,,,,,,,,,,,,,,,,,,,,,,,,,,,,,,,,,,,,,,,,,,,,,,,,,,,,,,,,,,,,,,,,,,,,,,,,,,,,,,,,,,,,,,,,,,,,,,,
,,5ebabd40d9ef2902351e4445,2024-02-19_03h06.28.142,kallum_motion_pilot,2023.2.2,Win32,20,5ebabd40d9ef2902351e4445,65d2b6c8f2eece985d8e374c,65d2b799b376ecff2523cbe4,0.0321,0.0322,1,68,230,64,1,onetwo,,,,,,,,,,,,,,,,,,,,,,,,,,,,,,,,,,,,,,,,,,,,,,,,,,,,,,,,,,,,,,,,,,,,,,,,,,,,,,,,,,,,,,,,,,,,,,,,,,,,,,,,,,,,,,,,,,,,,,,,,,,,,,,,,,,,,,,,,
,,5ebabd40d9ef2902351e4445,2024-02-19_03h06.28.142,kallum_motion_pilot,2023.2.2,Win32,20,5ebabd40d9ef2902351e4445,65d2b6c8f2eece985d8e374c,65d2b799b376ecff2523cbe4,0.0322,0.0323,1,69,231,130,1,sixfive,,,,,,,,,,,,,,,,,,,,,,,,,,,,,,,,,,,,,,,,,,,,,,,,,,,,,,,,,,,,,,,,,,,,,,,,,,,,,,,,,,,,,,,,,,,,,,,,,,,,,,,,,,,,,,,,,,,,,,,,,,,,,,,,,,,,,,,,,
,,5ebabd40d9ef2902351e4445,2024-02-19_03h06.28.142,kallum_motion_pilot,2023.2.2,Win32,20,5ebabd40d9ef2902351e4445,65d2b6c8f2eece985d8e374c,65d2b799b376ecff2523cbe4,0.0324,0.0324,1,70,232,84,1,sevenfive,,,,,,,,,,,,,,,,,,,,,,,,,,,,,,,,,,,,,,,,,,,,,,,,,,,,,,,,,,,,,,,,,,,,,,,,,,,,,,,,,,,,,,,,,,,,,,,,,,,,,,,,,,,,,,,,,,,,,,,,,,,,,,,,,,,,,,,,,
,,5ebabd40d9ef2902351e4445,2024-02-19_03h06.28.142,kallum_motion_pilot,2023.2.2,Win32,20,5ebabd40d9ef2902351e4445,65d2b6c8f2eece985d8e374c,65d2b799b376ecff2523cbe4,0.0325,0.0325,1,71,233,98,1,sixfive,,,,,,,,,,,,,,,,,,,,,,,,,,,,,,,,,,,,,,,,,,,,,,,,,,,,,,,,,,,,,,,,,,,,,,,,,,,,,,,,,,,,,,,,,,,,,,,,,,,,,,,,,,,,,,,,,,,,,,,,,,,,,,,,,,,,,,,,,
,,5ebabd40d9ef2902351e4445,2024-02-19_03h06.28.142,kallum_motion_pilot,2023.2.2,Win32,20,5ebabd40d9ef2902351e4445,65d2b6c8f2eece985d8e374c,65d2b799b376ecff2523cbe4,0.0326,0.0327,1,72,234,160,1,fivesix,,,,,,,,,,,,,,,,,,,,,,,,,,,,,,,,,,,,,,,,,,,,,,,,,,,,,,,,,,,,,,,,,,,,,,,,,,,,,,,,,,,,,,,,,,,,,,,,,,,,,,,,,,,,,,,,,,,,,,,,,,,,,,,,,,,,,,,,,
,,5ebabd40d9ef2902351e4445,2024-02-19_03h06.28.142,kallum_motion_pilot,2023.2.2,Win32,20,5ebabd40d9ef2902351e4445,65d2b6c8f2eece985d8e374c,65d2b799b376ecff2523cbe4,0.0327,0.0328,1,73,235,42,1,twoone,,,,,,,,,,,,,,,,,,,,,,,,,,,,,,,,,,,,,,,,,,,,,,,,,,,,,,,,,,,,,,,,,,,,,,,,,,,,,,,,,,,,,,,,,,,,,,,,,,,,,,,,,,,,,,,,,,,,,,,,,,,,,,,,,,,,,,,,,
,,5ebabd40d9ef2902351e4445,2024-02-19_03h06.28.142,kallum_motion_pilot,2023.2.2,Win32,20,5ebabd40d9ef2902351e4445,65d2b6c8f2eece985d8e374c,65d2b799b376ecff2523cbe4,0.0329,0.0329,1,74,236,79,1,eightseven,,,,,,,,,,,,,,,,,,,,,,,,,,,,,,,,,,,,,,,,,,,,,,,,,,,,,,,,,,,,,,,,,,,,,,,,,,,,,,,,,,,,,,,,,,,,,,,,,,,,,,,,,,,,,,,,,,,,,,,,,,,,,,,,,,,,,,,,,
,,5ebabd40d9ef2902351e4445,2024-02-19_03h06.28.142,kallum_motion_pilot,2023.2.2,Win32,20,5ebabd40d9ef2902351e4445,65d2b6c8f2eece985d8e374c,65d2b799b376ecff2523cbe4,0.0329,0.0331,1,75,237,114,1,sixfive,,,,,,,,,,,,,,,,,,,,,,,,,,,,,,,,,,,,,,,,,,,,,,,,,,,,,,,,,,,,,,,,,,,,,,,,,,,,,,,,,,,,,,,,,,,,,,,,,,,,,,,,,,,,,,,,,,,,,,,,,,,,,,,,,,,,,,,,,
,,5ebabd40d9ef2902351e4445,2024-02-19_03h06.28.142,kallum_motion_pilot,2023.2.2,Win32,20,5ebabd40d9ef2902351e4445,65d2b6c8f2eece985d8e374c,65d2b799b376ecff2523cbe4,0.0331,0.0332,1,76,238,51,1,twofour,,,,,,,,,,,,,,,,,,,,,,,,,,,,,,,,,,,,,,,,,,,,,,,,,,,,,,,,,,,,,,,,,,,,,,,,,,,,,,,,,,,,,,,,,,,,,,,,,,,,,,,,,,,,,,,,,,,,,,,,,,,,,,,,,,,,,,,,,
,,5ebabd40d9ef2902351e4445,2024-02-19_03h06.28.142,kallum_motion_pilot,2023.2.2,Win32,20,5ebabd40d9ef2902351e4445,65d2b6c8f2eece985d8e374c,65d2b799b376ecff2523cbe4,0.0333,0.0334,1,77,239,29,1,threefour,,,,,,,,,,,,,,,,,,,,,,,,,,,,,,,,,,,,,,,,,,,,,,,,,,,,,,,,,,,,,,,,,,,,,,,,,,,,,,,,,,,,,,,,,,,,,,,,,,,,,,,,,,,,,,,,,,,,,,,,,,,,,,,,,,,,,,,,,
,,5ebabd40d9ef2902351e4445,2024-02-19_03h06.28.142,kallum_motion_pilot,2023.2.2,Win32,20,5ebabd40d9ef2902351e4445,65d2b6c8f2eece985d8e374c,65d2b799b376ecff2523cbe4,0.0334,0.0335,1,78,240,94,1,eightsix,,,,,,,,,,,,,,,,,,,,,,,,,,,,,,,,,,,,,,,,,,,,,,,,,,,,,,,,,,,,,,,,,,,,,,,,,,,,,,,,,,,,,,,,,,,,,,,,,,,,,,,,,,,,,,,,,,,,,,,,,,,,,,,,,,,,,,,,,
,,5ebabd40d9ef2902351e4445,2024-02-19_03h06.28.142,kallum_motion_pilot,2023.2.2,Win32,20,5ebabd40d9ef2902351e4445,65d2b6c8f2eece985d8e374c,65d2b799b376ecff2523cbe4,0.0336,0.0337,1,79,241,145,1,fiveseven,,,,,,,,,,,,,,,,,,,,,,,,,,,,,,,,,,,,,,,,,,,,,,,,,,,,,,,,,,,,,,,,,,,,,,,,,,,,,,,,,,,,,,,,,,,,,,,,,,,,,,,,,,,,,,,,,,,,,,,,,,,,,,,,,,,,,,,,,
,,5ebabd40d9ef2902351e4445,2024-02-19_03h06.28.142,kallum_motion_pilot,2023.2.2,Win32,20,5ebabd40d9ef2902351e4445,65d2b6c8f2eece985d8e374c,65d2b799b376ecff2523cbe4,0.0337,0.0338,1,80,242,8,1,onetwo,,,,,,,,,,,,,,,,,,,,,,,,,,,,,,,,,,,,,,,,,,,,,,,,,,,,,,,,,,,,,,,,,,,,,,,,,,,,,,,,,,,,,,,,,,,,,,,,,,,,,,,,,,,,,,,,,,,,,,,,,,,,,,,,,,,,,,,,,
,,5ebabd40d9ef2902351e4445,2024-02-19_03h06.28.142,kallum_motion_pilot,2023.2.2,Win32,20,5ebabd40d9ef2902351e4445,65d2b6c8f2eece985d8e374c,65d2b799b376ecff2523cbe4,0.0338,0.0339,1,81,243,103,1,eightseven,,,,,,,,,,,,,,,,,,,,,,,,,,,,,,,,,,,,,,,,,,,,,,,,,,,,,,,,,,,,,,,,,,,,,,,,,,,,,,,,,,,,,,,,,,,,,,,,,,,,,,,,,,,,,,,,,,,,,,,,,,,,,,,,,,,,,,,,,
,,5ebabd40d9ef2902351e4445,2024-02-19_03h06.28.142,kallum_motion_pilot,2023.2.2,Win32,20,5ebabd40d9ef2902351e4445,65d2b6c8f2eece985d8e374c,65d2b799b376ecff2523cbe4,0.034,0.034,1,82,244,149,1,seveneight,,,,,,,,,,,,,,,,,,,,,,,,,,,,,,,,,,,,,,,,,,,,,,,,,,,,,,,,,,,,,,,,,,,,,,,,,,,,,,,,,,,,,,,,,,,,,,,,,,,,,,,,,,,,,,,,,,,,,,,,,,,,,,,,,,,,,,,,,
,,5ebabd40d9ef2902351e4445,2024-02-19_03h06.28.142,kallum_motion_pilot,2023.2.2,Win32,20,5ebabd40d9ef2902351e4445,65d2b6c8f2eece985d8e374c,65d2b799b376ecff2523cbe4,0.034,0.0341,1,83,245,156,1,sevenfive,,,,,,,,,,,,,,,,,,,,,,,,,,,,,,,,,,,,,,,,,,,,,,,,,,,,,,,,,,,,,,,,,,,,,,,,,,,,,,,,,,,,,,,,,,,,,,,,,,,,,,,,,,,,,,,,,,,,,,,,,,,,,,,,,,,,,,,,,
,,5ebabd40d9ef2902351e4445,2024-02-19_03h06.28.142,kallum_motion_pilot,2023.2.2,Win32,20,5ebabd40d9ef2902351e4445,65d2b6c8f2eece985d8e374c,65d2b799b376ecff2523cbe4,0.0343,0.0343,1,84,246,6,1,fourtwo,,,,,,,,,,,,,,,,,,,,,,,,,,,,,,,,,,,,,,,,,,,,,,,,,,,,,,,,,,,,,,,,,,,,,,,,,,,,,,,,,,,,,,,,,,,,,,,,,,,,,,,,,,,,,,,,,,,,,,,,,,,,,,,,,,,,,,,,,
,,5ebabd40d9ef2902351e4445,2024-02-19_03h06.28.142,kallum_motion_pilot,2023.2.2,Win32,20,5ebabd40d9ef2902351e4445,65d2b6c8f2eece985d8e374c,65d2b799b376ecff2523cbe4,0.0344,0.0344,1,85,247,70,1,fourtwo,,,,,,,,,,,,,,,,,,,,,,,,,,,,,,,,,,,,,,,,,,,,,,,,,,,,,,,,,,,,,,,,,,,,,,,,,,,,,,,,,,,,,,,,,,,,,,,,,,,,,,,,,,,,,,,,,,,,,,,,,,,,,,,,,,,,,,,,,
,,5ebabd40d9ef2902351e4445,2024-02-19_03h06.28.142,kallum_motion_pilot,2023.2.2,Win32,20,5ebabd40d9ef2902351e4445,65d2b6c8f2eece985d8e374c,65d2b799b376ecff2523cbe4,0.0344,0.0344,1,86,248,74,1,twoone,,,,,,,,,,,,,,,,,,,,,,,,,,,,,,,,,,,,,,,,,,,,,,,,,,,,,,,,,,,,,,,,,,,,,,,,,,,,,,,,,,,,,,,,,,,,,,,,,,,,,,,,,,,,,,,,,,,,,,,,,,,,,,,,,,,,,,,,,
,,5ebabd40d9ef2902351e4445,2024-02-19_03h06.28.142,kallum_motion_pilot,2023.2.2,Win32,20,5ebabd40d9ef2902351e4445,65d2b6c8f2eece985d8e374c,65d2b799b376ecff2523cbe4,0.0345,0.0345,1,87,249,125,1,seveneight,,,,,,,,,,,,,,,,,,,,,,,,,,,,,,,,,,,,,,,,,,,,,,,,,,,,,,,,,,,,,,,,,,,,,,,,,,,,,,,,,,,,,,,,,,,,,,,,,,,,,,,,,,,,,,,,,,,,,,,,,,,,,,,,,,,,,,,,,
,,5ebabd40d9ef2902351e4445,2024-02-19_03h06.28.142,kallum_motion_pilot,2023.2.2,Win32,20,5ebabd40d9ef2902351e4445,65d2b6c8f2eece985d8e374c,65d2b799b376ecff2523cbe4,0.0346,0.0347,1,88,250,159,1,eightseven,,,,,,,,,,,,,,,,,,,,,,,,,,,,,,,,,,,,,,,,,,,,,,,,,,,,,,,,,,,,,,,,,,,,,,,,,,,,,,,,,,,,,,,,,,,,,,,,,,,,,,,,,,,,,,,,,,,,,,,,,,,,,,,,,,,,,,,,,
,,5ebabd40d9ef2902351e4445,2024-02-19_03h06.28.142,kallum_motion_pilot,2023.2.2,Win32,20,5ebabd40d9ef2902351e4445,65d2b6c8f2eece985d8e374c,65d2b799b376ecff2523cbe4,0.0347,0.0348,1,89,251,116,1,sevenfive,,,,,,,,,,,,,,,,,,,,,,,,,,,,,,,,,,,,,,,,,,,,,,,,,,,,,,,,,,,,,,,,,,,,,,,,,,,,,,,,,,,,,,,,,,,,,,,,,,,,,,,,,,,,,,,,,,,,,,,,,,,,,,,,,,,,,,,,,
,,5ebabd40d9ef2902351e4445,2024-02-19_03h06.28.142,kallum_motion_pilot,2023.2.2,Win32,20,5ebabd40d9ef2902351e4445,65d2b6c8f2eece985d8e374c,65d2b799b376ecff2523cbe4,0.0348,0.0349,1,90,252,110,1,eightsix,,,,,,,,,,,,,,,,,,,,,,,,,,,,,,,,,,,,,,,,,,,,,,,,,,,,,,,,,,,,,,,,,,,,,,,,,,,,,,,,,,,,,,,,,,,,,,,,,,,,,,,,,,,,,,,,,,,,,,,,,,,,,,,,,,,,,,,,,
,,5ebabd40d9ef2902351e4445,2024-02-19_03h06.28.142,kallum_motion_pilot,2023.2.2,Win32,20,5ebabd40d9ef2902351e4445,65d2b6c8f2eece985d8e374c,65d2b799b376ecff2523cbe4,0.0349,0.0349,1,91,253,88,1,fivesix,,,,,,,,,,,,,,,,,,,,,,,,,,,,,,,,,,,,,,,,,,,,,,,,,,,,,,,,,,,,,,,,,,,,,,,,,,,,,,,,,,,,,,,,,,,,,,,,,,,,,,,,,,,,,,,,,,,,,,,,,,,,,,,,,,,,,,,,,
,,5ebabd40d9ef2902351e4445,2024-02-19_03h06.28.142,kallum_motion_pilot,2023.2.2,Win32,20,5ebabd40d9ef2902351e4445,65d2b6c8f2eece985d8e374c,65d2b799b376ecff2523cbe4,0.0349,0.035,1,92,254,97,1,fiveseven,,,,,,,,,,,,,,,,,,,,,,,,,,,,,,,,,,,,,,,,,,,,,,,,,,,,,,,,,,,,,,,,,,,,,,,,,,,,,,,,,,,,,,,,,,,,,,,,,,,,,,,,,,,,,,,,,,,,,,,,,,,,,,,,,,,,,,,,,
,,5ebabd40d9ef2902351e4445,2024-02-19_03h06.28.142,kallum_motion_pilot,2023.2.2,Win32,20,5ebabd40d9ef2902351e4445,65d2b6c8f2eece985d8e374c,65d2b799b376ecff2523cbe4,0.0351,0.0351,1,93,255,57,1,onethree,,,,,,,,,,,,,,,,,,,,,,,,,,,,,,,,,,,,,,,,,,,,,,,,,,,,,,,,,,,,,,,,,,,,,,,,,,,,,,,,,,,,,,,,,,,,,,,,,,,,,,,,,,,,,,,,,,,,,,,,,,,,,,,,,,,,,,,,,
,,5ebabd40d9ef2902351e4445,2024-02-19_03h06.28.142,kallum_motion_pilot,2023.2.2,Win32,20,5ebabd40d9ef2902351e4445,65d2b6c8f2eece985d8e374c,65d2b799b376ecff2523cbe4,0.0352,0.0353,1,94,256,150,1,eightsix,,,,,,,,,,,,,,,,,,,,,,,,,,,,,,,,,,,,,,,,,,,,,,,,,,,,,,,,,,,,,,,,,,,,,,,,,,,,,,,,,,,,,,,,,,,,,,,,,,,,,,,,,,,,,,,,,,,,,,,,,,,,,,,,,,,,,,,,,
,,5ebabd40d9ef2902351e4445,2024-02-19_03h06.28.142,kallum_motion_pilot,2023.2.2,Win32,20,5ebabd40d9ef2902351e4445,65d2b6c8f2eece985d8e374c,65d2b799b376ecff2523cbe4,0.0353,0.0354,1,95,257,140,1,sevenfive,,,,,,,,,,,,,,,,,,,,,,,,,,,,,,,,,,,,,,,,,,,,,,,,,,,,,,,,,,,,,,,,,,,,,,,,,,,,,,,,,,,,,,,,,,,,,,,,,,,,,,,,,,,,,,,,,,,,,,,,,,,,,,,,,,,,,,,,,
,,5ebabd40d9ef2902351e4445,2024-02-19_03h06.28.142,kallum_motion_pilot,2023.2.2,Win32,20,5ebabd40d9ef2902351e4445,65d2b6c8f2eece985d8e374c,65d2b799b376ecff2523cbe4,0.0354,0.0355,1,96,258,40,1,onetwo,,,,,,,,,,,,,,,,,,,,,,,,,,,,,,,,,,,,,,,,,,,,,,,,,,,,,,,,,,,,,,,,,,,,,,,,,,,,,,,,,,,,,,,,,,,,,,,,,,,,,,,,,,,,,,,,,,,,,,,,,,,,,,,,,,,,,,,,,
,,5ebabd40d9ef2902351e4445,2024-02-19_03h06.28.142,kallum_motion_pilot,2023.2.2,Win32,20,5ebabd40d9ef2902351e4445,65d2b6c8f2eece985d8e374c,65d2b799b376ecff2523cbe4,0.0356,0.0356,1,97,259,129,1,fiveseven,,,,,,,,,,,,,,,,,,,,,,,,,,,,,,,,,,,,,,,,,,,,,,,,,,,,,,,,,,,,,,,,,,,,,,,,,,,,,,,,,,,,,,,,,,,,,,,,,,,,,,,,,,,,,,,,,,,,,,,,,,,,,,,,,,,,,,,,,
,,5ebabd40d9ef2902351e4445,2024-02-19_03h06.28.142,kallum_motion_pilot,2023.2.2,Win32,20,5ebabd40d9ef2902351e4445,65d2b6c8f2eece985d8e374c,65d2b799b376ecff2523cbe4,0.0356,0.0356,1,98,260,12,1,threeone,,,,,,,,,,,,,,,,,,,,,,,,,,,,,,,,,,,,,,,,,,,,,,,,,,,,,,,,,,,,,,,,,,,,,,,,,,,,,,,,,,,,,,,,,,,,,,,,,,,,,,,,,,,,,,,,,,,,,,,,,,,,,,,,,,,,,,,,,
,,5ebabd40d9ef2902351e4445,2024-02-19_03h06.28.142,kallum_motion_pilot,2023.2.2,Win32,20,5ebabd40d9ef2902351e4445,65d2b6c8f2eece985d8e374c,65d2b799b376ecff2523cbe4,0.0356,0.0357,1,99,261,25,1,onethree,,,,,,,,,,,,,,,,,,,,,,,,,,,,,,,,,,,,,,,,,,,,,,,,,,,,,,,,,,,,,,,,,,,,,,,,,,,,,,,,,,,,,,,,,,,,,,,,,,,,,,,,,,,,,,,,,,,,,,,,,,,,,,,,,,,,,,,,,
,,5ebabd40d9ef2902351e4445,2024-02-19_03h06.28.142,kallum_motion_pilot,2023.2.2,Win32,20,5ebabd40d9ef2902351e4445,65d2b6c8f2eece985d8e374c,65d2b799b376ecff2523cbe4,0.0358,0.0358,1,100,262,30,1,fourtwo,,,,,,,,,,,,,,,,,,,,,,,,,,,,,,,,,,,,,,,,,,,,,,,,,,,,,,,,,,,,,,,,,,,,,,,,,,,,,,,,,,,,,,,,,,,,,,,,,,,,,,,,,,,,,,,,,,,,,,,,,,,,,,,,,,,,,,,,,
,,5ebabd40d9ef2902351e4445,2024-02-19_03h06.28.142,kallum_motion_pilot,2023.2.2,Win32,20,5ebabd40d9ef2902351e4445,65d2b6c8f2eece985d8e374c,65d2b799b376ecff2523cbe4,0.0358,0.0359,1,101,263,11,1,twofour,,,,,,,,,,,,,,,,,,,,,,,,,,,,,,,,,,,,,,,,,,,,,,,,,,,,,,,,,,,,,,,,,,,,,,,,,,,,,,,,,,,,,,,,,,,,,,,,,,,,,,,,,,,,,,,,,,,,,,,,,,,,,,,,,,,,,,,,,
,,5ebabd40d9ef2902351e4445,2024-02-19_03h06.28.142,kallum_motion_pilot,2023.2.2,Win32,20,5ebabd40d9ef2902351e4445,65d2b6c8f2eece985d8e374c,65d2b799b376ecff2523cbe4,0.036,0.0361,1,102,264,66,1,twoone,,,,,,,,,,,,,,,,,,,,,,,,,,,,,,,,,,,,,,,,,,,,,,,,,,,,,,,,,,,,,,,,,,,,,,,,,,,,,,,,,,,,,,,,,,,,,,,,,,,,,,,,,,,,,,,,,,,,,,,,,,,,,,,,,,,,,,,,,
,,5ebabd40d9ef2902351e4445,2024-02-19_03h06.28.142,kallum_motion_pilot,2023.2.2,Win32,20,5ebabd40d9ef2902351e4445,65d2b6c8f2eece985d8e374c,65d2b799b376ecff2523cbe4,0.0361,0.0362,1,103,265,2,1,twoone,,,,,,,,,,,,,,,,,,,,,,,,,,,,,,,,,,,,,,,,,,,,,,,,,,,,,,,,,,,,,,,,,,,,,,,,,,,,,,,,,,,,,,,,,,,,,,,,,,,,,,,,,,,,,,,,,,,,,,,,,,,,,,,,,,,,,,,,,
,,5ebabd40d9ef2902351e4445,2024-02-19_03h06.28.142,kallum_motion_pilot,2023.2.2,Win32,20,5ebabd40d9ef2902351e4445,65d2b6c8f2eece985d8e374c,65d2b799b376ecff2523cbe4,0.0362,0.0362,1,104,266,49,1,onethree,,,,,,,,,,,,,,,,,,,,,,,,,,,,,,,,,,,,,,,,,,,,,,,,,,,,,,,,,,,,,,,,,,,,,,,,,,,,,,,,,,,,,,,,,,,,,,,,,,,,,,,,,,,,,,,,,,,,,,,,,,,,,,,,,,,,,,,,,
,,5ebabd40d9ef2902351e4445,2024-02-19_03h06.28.142,kallum_motion_pilot,2023.2.2,Win32,20,5ebabd40d9ef2902351e4445,65d2b6c8f2eece985d8e374c,65d2b799b376ecff2523cbe4,0.0364,0.0364,1,105,267,71,1,fourthree,,,,,,,,,,,,,,,,,,,,,,,,,,,,,,,,,,,,,,,,,,,,,,,,,,,,,,,,,,,,,,,,,,,,,,,,,,,,,,,,,,,,,,,,,,,,,,,,,,,,,,,,,,,,,,,,,,,,,,,,,,,,,,,,,,,,,,,,,
,,5ebabd40d9ef2902351e4445,2024-02-19_03h06.28.142,kallum_motion_pilot,2023.2.2,Win32,20,5ebabd40d9ef2902351e4445,65d2b6c8f2eece985d8e374c,65d2b799b376ecff2523cbe4,0.0365,0.0365,1,106,268,36,1,threeone,,,,,,,,,,,,,,,,,,,,,,,,,,,,,,,,,,,,,,,,,,,,,,,,,,,,,,,,,,,,,,,,,,,,,,,,,,,,,,,,,,,,,,,,,,,,,,,,,,,,,,,,,,,,,,,,,,,,,,,,,,,,,,,,,,,,,,,,,
,,5ebabd40d9ef2902351e4445,2024-02-19_03h06.28.142,kallum_motion_pilot,2023.2.2,Win32,20,5ebabd40d9ef2902351e4445,65d2b6c8f2eece985d8e374c,65d2b799b376ecff2523cbe4,0.0365,0.0366,1,107,269,43,1,twofour,,,,,,,,,,,,,,,,,,,,,,,,,,,,,,,,,,,,,,,,,,,,,,,,,,,,,,,,,,,,,,,,,,,,,,,,,,,,,,,,,,,,,,,,,,,,,,,,,,,,,,,,,,,,,,,,,,,,,,,,,,,,,,,,,,,,,,,,,
,,5ebabd40d9ef2902351e4445,2024-02-19_03h06.28.142,kallum_motion_pilot,2023.2.2,Win32,20,5ebabd40d9ef2902351e4445,65d2b6c8f2eece985d8e374c,65d2b799b376ecff2523cbe4,0.0367,0.0367,1,108,270,152,1,fivesix,,,,,,,,,,,,,,,,,,,,,,,,,,,,,,,,,,,,,,,,,,,,,,,,,,,,,,,,,,,,,,,,,,,,,,,,,,,,,,,,,,,,,,,,,,,,,,,,,,,,,,,,,,,,,,,,,,,,,,,,,,,,,,,,,,,,,,,,,
,,5ebabd40d9ef2902351e4445,2024-02-19_03h06.28.142,kallum_motion_pilot,2023.2.2,Win32,20,5ebabd40d9ef2902351e4445,65d2b6c8f2eece985d8e374c,65d2b799b376ecff2523cbe4,0.0369,0.0369,1,109,271,9,1,onethree,,,,,,,,,,,,,,,,,,,,,,,,,,,,,,,,,,,,,,,,,,,,,,,,,,,,,,,,,,,,,,,,,,,,,,,,,,,,,,,,,,,,,,,,,,,,,,,,,,,,,,,,,,,,,,,,,,,,,,,,,,,,,,,,,,,,,,,,,
,,5ebabd40d9ef2902351e4445,2024-02-19_03h06.28.142,kallum_motion_pilot,2023.2.2,Win32,20,5ebabd40d9ef2902351e4445,65d2b6c8f2eece985d8e374c,65d2b799b376ecff2523cbe4,0.037,0.037,1,110,272,75,1,twofour,,,,,,,,,,,,,,,,,,,,,,,,,,,,,,,,,,,,,,,,,,,,,,,,,,,,,,,,,,,,,,,,,,,,,,,,,,,,,,,,,,,,,,,,,,,,,,,,,,,,,,,,,,,,,,,,,,,,,,,,,,,,,,,,,,,,,,,,,
,,5ebabd40d9ef2902351e4445,2024-02-19_03h06.28.142,kallum_motion_pilot,2023.2.2,Win32,20,5ebabd40d9ef2902351e4445,65d2b6c8f2eece985d8e374c,65d2b799b376ecff2523cbe4,0.0372,0.0372,1,111,273,13,1,threefour,,,,,,,,,,,,,,,,,,,,,,,,,,,,,,,,,,,,,,,,,,,,,,,,,,,,,,,,,,,,,,,,,,,,,,,,,,,,,,,,,,,,,,,,,,,,,,,,,,,,,,,,,,,,,,,,,,,,,,,,,,,,,,,,,,,,,,,,,
,,5ebabd40d9ef2902351e4445,2024-02-19_03h06.28.142,kallum_motion_pilot,2023.2.2,Win32,20,5ebabd40d9ef2902351e4445,65d2b6c8f2eece985d8e374c,65d2b799b376ecff2523cbe4,0.0373,0.0374,1,112,274,85,1,seveneight,,,,,,,,,,,,,,,,,,,,,,,,,,,,,,,,,,,,,,,,,,,,,,,,,,,,,,,,,,,,,,,,,,,,,,,,,,,,,,,,,,,,,,,,,,,,,,,,,,,,,,,,,,,,,,,,,,,,,,,,,,,,,,,,,,,,,,,,,
,,5ebabd40d9ef2902351e4445,2024-02-19_03h06.28.142,kallum_motion_pilot,2023.2.2,Win32,20,5ebabd40d9ef2902351e4445,65d2b6c8f2eece985d8e374c,65d2b799b376ecff2523cbe4,0.0375,0.0375,1,113,275,67,1,twofour,,,,,,,,,,,,,,,,,,,,,,,,,,,,,,,,,,,,,,,,,,,,,,,,,,,,,,,,,,,,,,,,,,,,,,,,,,,,,,,,,,,,,,,,,,,,,,,,,,,,,,,,,,,,,,,,,,,,,,,,,,,,,,,,,,,,,,,,,
,,5ebabd40d9ef2902351e4445,2024-02-19_03h06.28.142,kallum_motion_pilot,2023.2.2,Win32,20,5ebabd40d9ef2902351e4445,65d2b6c8f2eece985d8e374c,65d2b799b376ecff2523cbe4,0.0375,0.0376,1,114,276,41,1,onethree,,,,,,,,,,,,,,,,,,,,,,,,,,,,,,,,,,,,,,,,,,,,,,,,,,,,,,,,,,,,,,,,,,,,,,,,,,,,,,,,,,,,,,,,,,,,,,,,,,,,,,,,,,,,,,,,,,,,,,,,,,,,,,,,,,,,,,,,,
,,5ebabd40d9ef2902351e4445,2024-02-19_03h06.28.142,kallum_motion_pilot,2023.2.2,Win32,20,5ebabd40d9ef2902351e4445,65d2b6c8f2eece985d8e374c,65d2b799b376ecff2523cbe4,0.0376,0.0377,1,115,277,91,1,sixeight,,,,,,,,,,,,,,,,,,,,,,,,,,,,,,,,,,,,,,,,,,,,,,,,,,,,,,,,,,,,,,,,,,,,,,,,,,,,,,,,,,,,,,,,,,,,,,,,,,,,,,,,,,,,,,,,,,,,,,,,,,,,,,,,,,,,,,,,,
,,5ebabd40d9ef2902351e4445,2024-02-19_03h06.28.142,kallum_motion_pilot,2023.2.2,Win32,20,5ebabd40d9ef2902351e4445,65d2b6c8f2eece985d8e374c,65d2b799b376ecff2523cbe4,0.0377,0.0378,1,116,278,99,1,sixeight,,,,,,,,,,,,,,,,,,,,,,,,,,,,,,,,,,,,,,,,,,,,,,,,,,,,,,,,,,,,,,,,,,,,,,,,,,,,,,,,,,,,,,,,,,,,,,,,,,,,,,,,,,,,,,,,,,,,,,,,,,,,,,,,,,,,,,,,,
,,5ebabd40d9ef2902351e4445,2024-02-19_03h06.28.142,kallum_motion_pilot,2023.2.2,Win32,20,5ebabd40d9ef2902351e4445,65d2b6c8f2eece985d8e374c,65d2b799b376ecff2523cbe4,0.0378,0.0378,1,117,279,93,1,seveneight,,,,,,,,,,,,,,,,,,,,,,,,,,,,,,,,,,,,,,,,,,,,,,,,,,,,,,,,,,,,,,,,,,,,,,,,,,,,,,,,,,,,,,,,,,,,,,,,,,,,,,,,,,,,,,,,,,,,,,,,,,,,,,,,,,,,,,,,,
,,5ebabd40d9ef2902351e4445,2024-02-19_03h06.28.142,kallum_motion_pilot,2023.2.2,Win32,20,5ebabd40d9ef2902351e4445,65d2b6c8f2eece985d8e374c,65d2b799b376ecff2523cbe4,0.0378,0.0378,1,118,280,144,1,fivesix,,,,,,,,,,,,,,,,,,,,,,,,,,,,,,,,,,,,,,,,,,,,,,,,,,,,,,,,,,,,,,,,,,,,,,,,,,,,,,,,,,,,,,,,,,,,,,,,,,,,,,,,,,,,,,,,,,,,,,,,,,,,,,,,,,,,,,,,,
,,5ebabd40d9ef2902351e4445,2024-02-19_03h06.28.142,kallum_motion_pilot,2023.2.2,Win32,20,5ebabd40d9ef2902351e4445,65d2b6c8f2eece985d8e374c,65d2b799b376ecff2523cbe4,0.0379,0.038,1,119,281,4,1,threeone,,,,,,,,,,,,,,,,,,,,,,,,,,,,,,,,,,,,,,,,,,,,,,,,,,,,,,,,,,,,,,,,,,,,,,,,,,,,,,,,,,,,,,,,,,,,,,,,,,,,,,,,,,,,,,,,,,,,,,,,,,,,,,,,,,,,,,,,,
,,5ebabd40d9ef2902351e4445,2024-02-19_03h06.28.142,kallum_motion_pilot,2023.2.2,Win32,20,5ebabd40d9ef2902351e4445,65d2b6c8f2eece985d8e374c,65d2b799b376ecff2523cbe4,0.038,0.0381,1,120,282,54,1,fourtwo,,,,,,,,,,,,,,,,,,,,,,,,,,,,,,,,,,,,,,,,,,,,,,,,,,,,,,,,,,,,,,,,,,,,,,,,,,,,,,,,,,,,,,,,,,,,,,,,,,,,,,,,,,,,,,,,,,,,,,,,,,,,,,,,,,,,,,,,,
,,5ebabd40d9ef2902351e4445,2024-02-19_03h06.28.142,kallum_motion_pilot,2023.2.2,Win32,20,5ebabd40d9ef2902351e4445,65d2b6c8f2eece985d8e374c,65d2b799b376ecff2523cbe4,0.0381,0.0382,1,121,283,14,1,fourtwo,,,,,,,,,,,,,,,,,,,,,,,,,,,,,,,,,,,,,,,,,,,,,,,,,,,,,,,,,,,,,,,,,,,,,,,,,,,,,,,,,,,,,,,,,,,,,,,,,,,,,,,,,,,,,,,,,,,,,,,,,,,,,,,,,,,,,,,,,
,,5ebabd40d9ef2902351e4445,2024-02-19_03h06.28.142,kallum_motion_pilot,2023.2.2,Win32,20,5ebabd40d9ef2902351e4445,65d2b6c8f2eece985d8e374c,65d2b799b376ecff2523cbe4,0.0382,0.0382,1,122,284,115,1,sixeight,,,,,,,,,,,,,,,,,,,,,,,,,,,,,,,,,,,,,,,,,,,,,,,,,,,,,,,,,,,,,,,,,,,,,,,,,,,,,,,,,,,,,,,,,,,,,,,,,,,,,,,,,,,,,,,,,,,,,,,,,,,,,,,,,,,,,,,,,
,,5ebabd40d9ef2902351e4445,2024-02-19_03h06.28.142,kallum_motion_pilot,2023.2.2,Win32,20,5ebabd40d9ef2902351e4445,65d2b6c8f2eece985d8e374c,65d2b799b376ecff2523cbe4,0.0383,0.0383,1,123,285,137,1,fiveseven,,,,,,,,,,,,,,,,,,,,,,,,,,,,,,,,,,,,,,,,,,,,,,,,,,,,,,,,,,,,,,,,,,,,,,,,,,,,,,,,,,,,,,,,,,,,,,,,,,,,,,,,,,,,,,,,,,,,,,,,,,,,,,,,,,,,,,,,,
