startup.started,startup.stopped,Prolific ID*,date,expName,psychopyVersion,OS,frameRate,participant,study_id,session,stimpositions.started,stimpositions.stopped,hardcoded_stimulus_positions.thisRepN,hardcoded_stimulus_positions.thisTrialN,hardcoded_stimulus_positions.thisN,hardcoded_stimulus_positions.thisIndex,hardcoded_stimulus_positions.ran,StimulusPos,stimorientation.started,stimorientation.stopped,prac_stimorientation_import_loop.thisRepN,prac_stimorientation_import_loop.thisTrialN,prac_stimorientation_import_loop.thisN,prac_stimorientation_import_loop.thisIndex,prac_stimorientation_import_loop.ran,Stimorientation,welcome_instr.started,welcome_instr.stopped,key_resp.keys,key_resp.rt,key_resp.duration,response_steppedout_1.started,response_steppedout_1.stopped,key_resp_20.keys,key_resp_20.rt,key_resp_20.duration,response_steppedout_2.started,response_steppedout_2.stopped,key_resp_19.keys,key_resp_19.rt,key_resp_19.duration,stim_response_instr.started,stim_response_instr.stopped,key_resp_15.keys,key_resp_15.rt,key_resp_15.duration,direction_instr_2.started,direction_instr_2.stopped,key_resp_9.keys,key_resp_9.rt,key_resp_9.duration,instr_prac.started,instr_prac.stopped,key_resp_10.keys,key_resp_10.rt,key_resp_10.duration,Stim1_display_prac.started,Stim1_display_prac.stopped,Ecc,Circle1_ori,Circle2_ori,response_prac.started,similarity,response_time,response_prac.stopped,mouse_5.x,mouse_5.y,mouse_5.leftButton,mouse_5.midButton,mouse_5.rightButton,mouse_5.clicked_name,responseprac_feedback.started,responseprac_feedback.stopped,summary2_prac.started,summary2_prac.stopped,mouse_6.x,mouse_6.y,mouse_6.leftButton,mouse_6.midButton,mouse_6.rightButton,mouse_6.clicked_name,duringprac.thisRepN,duringprac.thisTrialN,duringprac.thisN,duringprac.thisIndex,duringprac.ran,begin.started,begin.stopped,key_resp_22.keys,key_resp_22.rt,key_resp_22.duration,Stim1_display.started,Stim1_display.stopped,circle1_ori,circle2_ori,circle1_SF,circle2_SF,response.started,response.stopped,mouse.x,mouse.y,mouse.leftButton,mouse.midButton,mouse.rightButton,mouse.clicked_name,trialnumber,double_pass.thisRepN,double_pass.thisTrialN,double_pass.thisN,double_pass.thisIndex,double_pass.ran,double_pass.order,main_trial.thisRepN,main_trial.thisTrialN,main_trial.thisN,main_trial.thisIndex,main_trial.ran,main_trial.order,Trial_Counter,Catch,Frequencies,response_2.started,response_2.stopped,mouse_2.x,mouse_2.y,mouse_2.leftButton,mouse_2.midButton,mouse_2.rightButton,mouse_2.clicked_name,special_trial.started,special_trial.stopped,catch_1.started,catch_1.stopped,mouse_3.x,mouse_3.y,mouse_3.leftButton,mouse_3.midButton,mouse_3.rightButton,catchresponse,catchnumber,response_time_catch,response_sum.started,response_sum.stopped,mouse_11.x,mouse_11.y,mouse_11.leftButton,mouse_11.midButton,mouse_11.rightButton,flip_presentation_sequence_for_double_pass.started,flip_presentation_sequence_for_double_pass.stopped,goodbye.started,goodbye.stopped,key_resp_3.keys,key_resp_3.rt,key_resp_3.duration
0.0003,0.0004,5ed8cf4782a6eb04ddf9962d,2024-02-19_05h55.08.240,kallum_motion_pilot,2023.2.2,Win32,10,5ed8cf4782a6eb04ddf9962d,65d2b6c8f2eece985d8e374c,65d2def2aaec44a00e5b80a2,,,,,,,,,,,,,,,,,,,,,,,,,,,,,,,,,,,,,,,,,,,,,,,,,,,,,,,,,,,,,,,,,,,,,,,,,,,,,,,,,,,,,,,,,,,,,,,,,,,,,,,,,,,,,,,,,,,,,,,,,,,,,,,,,,,,,,,,,,,,,,,,,
,,5ed8cf4782a6eb04ddf9962d,2024-02-19_05h55.08.240,kallum_motion_pilot,2023.2.2,Win32,10,5ed8cf4782a6eb04ddf9962d,65d2b6c8f2eece985d8e374c,65d2def2aaec44a00e5b80a2,0.0265,0.0266,0,0,0,86,1,eightsix,,,,,,,,,,,,,,,,,,,,,,,,,,,,,,,,,,,,,,,,,,,,,,,,,,,,,,,,,,,,,,,,,,,,,,,,,,,,,,,,,,,,,,,,,,,,,,,,,,,,,,,,,,,,,,,,,,,,,,,,,,,,,,,,,,,,,,,,,
,,5ed8cf4782a6eb04ddf9962d,2024-02-19_05h55.08.240,kallum_motion_pilot,2023.2.2,Win32,10,5ed8cf4782a6eb04ddf9962d,65d2b6c8f2eece985d8e374c,65d2def2aaec44a00e5b80a2,0.0269,0.027,0,1,1,59,1,twofour,,,,,,,,,,,,,,,,,,,,,,,,,,,,,,,,,,,,,,,,,,,,,,,,,,,,,,,,,,,,,,,,,,,,,,,,,,,,,,,,,,,,,,,,,,,,,,,,,,,,,,,,,,,,,,,,,,,,,,,,,,,,,,,,,,,,,,,,,
,,5ed8cf4782a6eb04ddf9962d,2024-02-19_05h55.08.240,kallum_motion_pilot,2023.2.2,Win32,10,5ed8cf4782a6eb04ddf9962d,65d2b6c8f2eece985d8e374c,65d2def2aaec44a00e5b80a2,0.0271,0.0271,0,2,2,68,1,threeone,,,,,,,,,,,,,,,,,,,,,,,,,,,,,,,,,,,,,,,,,,,,,,,,,,,,,,,,,,,,,,,,,,,,,,,,,,,,,,,,,,,,,,,,,,,,,,,,,,,,,,,,,,,,,,,,,,,,,,,,,,,,,,,,,,,,,,,,,
,,5ed8cf4782a6eb04ddf9962d,2024-02-19_05h55.08.240,kallum_motion_pilot,2023.2.2,Win32,10,5ed8cf4782a6eb04ddf9962d,65d2b6c8f2eece985d8e374c,65d2def2aaec44a00e5b80a2,0.0273,0.0273,0,3,3,37,1,threefour,,,,,,,,,,,,,,,,,,,,,,,,,,,,,,,,,,,,,,,,,,,,,,,,,,,,,,,,,,,,,,,,,,,,,,,,,,,,,,,,,,,,,,,,,,,,,,,,,,,,,,,,,,,,,,,,,,,,,,,,,,,,,,,,,,,,,,,,,
,,5ed8cf4782a6eb04ddf9962d,2024-02-19_05h55.08.240,kallum_motion_pilot,2023.2.2,Win32,10,5ed8cf4782a6eb04ddf9962d,65d2b6c8f2eece985d8e374c,65d2def2aaec44a00e5b80a2,0.0275,0.0275,0,4,4,118,1,eightsix,,,,,,,,,,,,,,,,,,,,,,,,,,,,,,,,,,,,,,,,,,,,,,,,,,,,,,,,,,,,,,,,,,,,,,,,,,,,,,,,,,,,,,,,,,,,,,,,,,,,,,,,,,,,,,,,,,,,,,,,,,,,,,,,,,,,,,,,,
,,5ed8cf4782a6eb04ddf9962d,2024-02-19_05h55.08.240,kallum_motion_pilot,2023.2.2,Win32,10,5ed8cf4782a6eb04ddf9962d,65d2b6c8f2eece985d8e374c,65d2def2aaec44a00e5b80a2,0.0277,0.0277,0,5,5,158,1,eightsix,,,,,,,,,,,,,,,,,,,,,,,,,,,,,,,,,,,,,,,,,,,,,,,,,,,,,,,,,,,,,,,,,,,,,,,,,,,,,,,,,,,,,,,,,,,,,,,,,,,,,,,,,,,,,,,,,,,,,,,,,,,,,,,,,,,,,,,,,
,,5ed8cf4782a6eb04ddf9962d,2024-02-19_05h55.08.240,kallum_motion_pilot,2023.2.2,Win32,10,5ed8cf4782a6eb04ddf9962d,65d2b6c8f2eece985d8e374c,65d2def2aaec44a00e5b80a2,0.0278,0.0278,0,6,6,135,1,eightseven,,,,,,,,,,,,,,,,,,,,,,,,,,,,,,,,,,,,,,,,,,,,,,,,,,,,,,,,,,,,,,,,,,,,,,,,,,,,,,,,,,,,,,,,,,,,,,,,,,,,,,,,,,,,,,,,,,,,,,,,,,,,,,,,,,,,,,,,,
,,5ed8cf4782a6eb04ddf9962d,2024-02-19_05h55.08.240,kallum_motion_pilot,2023.2.2,Win32,10,5ed8cf4782a6eb04ddf9962d,65d2b6c8f2eece985d8e374c,65d2def2aaec44a00e5b80a2,0.0279,0.0279,0,7,7,17,1,onethree,,,,,,,,,,,,,,,,,,,,,,,,,,,,,,,,,,,,,,,,,,,,,,,,,,,,,,,,,,,,,,,,,,,,,,,,,,,,,,,,,,,,,,,,,,,,,,,,,,,,,,,,,,,,,,,,,,,,,,,,,,,,,,,,,,,,,,,,,
,,5ed8cf4782a6eb04ddf9962d,2024-02-19_05h55.08.240,kallum_motion_pilot,2023.2.2,Win32,10,5ed8cf4782a6eb04ddf9962d,65d2b6c8f2eece985d8e374c,65d2def2aaec44a00e5b80a2,0.0281,0.0281,0,8,8,85,1,seveneight,,,,,,,,,,,,,,,,,,,,,,,,,,,,,,,,,,,,,,,,,,,,,,,,,,,,,,,,,,,,,,,,,,,,,,,,,,,,,,,,,,,,,,,,,,,,,,,,,,,,,,,,,,,,,,,,,,,,,,,,,,,,,,,,,,,,,,,,,
,,5ed8cf4782a6eb04ddf9962d,2024-02-19_05h55.08.240,kallum_motion_pilot,2023.2.2,Win32,10,5ed8cf4782a6eb04ddf9962d,65d2b6c8f2eece985d8e374c,65d2def2aaec44a00e5b80a2,0.0283,0.0283,0,9,9,46,1,fourtwo,,,,,,,,,,,,,,,,,,,,,,,,,,,,,,,,,,,,,,,,,,,,,,,,,,,,,,,,,,,,,,,,,,,,,,,,,,,,,,,,,,,,,,,,,,,,,,,,,,,,,,,,,,,,,,,,,,,,,,,,,,,,,,,,,,,,,,,,,
,,5ed8cf4782a6eb04ddf9962d,2024-02-19_05h55.08.240,kallum_motion_pilot,2023.2.2,Win32,10,5ed8cf4782a6eb04ddf9962d,65d2b6c8f2eece985d8e374c,65d2def2aaec44a00e5b80a2,0.0284,0.0284,0,10,10,115,1,sixeight,,,,,,,,,,,,,,,,,,,,,,,,,,,,,,,,,,,,,,,,,,,,,,,,,,,,,,,,,,,,,,,,,,,,,,,,,,,,,,,,,,,,,,,,,,,,,,,,,,,,,,,,,,,,,,,,,,,,,,,,,,,,,,,,,,,,,,,,,
,,5ed8cf4782a6eb04ddf9962d,2024-02-19_05h55.08.240,kallum_motion_pilot,2023.2.2,Win32,10,5ed8cf4782a6eb04ddf9962d,65d2b6c8f2eece985d8e374c,65d2def2aaec44a00e5b80a2,0.0285,0.0286,0,11,11,15,1,fourthree,,,,,,,,,,,,,,,,,,,,,,,,,,,,,,,,,,,,,,,,,,,,,,,,,,,,,,,,,,,,,,,,,,,,,,,,,,,,,,,,,,,,,,,,,,,,,,,,,,,,,,,,,,,,,,,,,,,,,,,,,,,,,,,,,,,,,,,,,
,,5ed8cf4782a6eb04ddf9962d,2024-02-19_05h55.08.240,kallum_motion_pilot,2023.2.2,Win32,10,5ed8cf4782a6eb04ddf9962d,65d2b6c8f2eece985d8e374c,65d2def2aaec44a00e5b80a2,0.0286,0.0287,0,12,12,10,1,twoone,,,,,,,,,,,,,,,,,,,,,,,,,,,,,,,,,,,,,,,,,,,,,,,,,,,,,,,,,,,,,,,,,,,,,,,,,,,,,,,,,,,,,,,,,,,,,,,,,,,,,,,,,,,,,,,,,,,,,,,,,,,,,,,,,,,,,,,,,
,,5ed8cf4782a6eb04ddf9962d,2024-02-19_05h55.08.240,kallum_motion_pilot,2023.2.2,Win32,10,5ed8cf4782a6eb04ddf9962d,65d2b6c8f2eece985d8e374c,65d2def2aaec44a00e5b80a2,0.0287,0.0288,0,13,13,159,1,eightseven,,,,,,,,,,,,,,,,,,,,,,,,,,,,,,,,,,,,,,,,,,,,,,,,,,,,,,,,,,,,,,,,,,,,,,,,,,,,,,,,,,,,,,,,,,,,,,,,,,,,,,,,,,,,,,,,,,,,,,,,,,,,,,,,,,,,,,,,,
,,5ed8cf4782a6eb04ddf9962d,2024-02-19_05h55.08.240,kallum_motion_pilot,2023.2.2,Win32,10,5ed8cf4782a6eb04ddf9962d,65d2b6c8f2eece985d8e374c,65d2def2aaec44a00e5b80a2,0.0288,0.0288,0,14,14,21,1,threefour,,,,,,,,,,,,,,,,,,,,,,,,,,,,,,,,,,,,,,,,,,,,,,,,,,,,,,,,,,,,,,,,,,,,,,,,,,,,,,,,,,,,,,,,,,,,,,,,,,,,,,,,,,,,,,,,,,,,,,,,,,,,,,,,,,,,,,,,,
,,5ed8cf4782a6eb04ddf9962d,2024-02-19_05h55.08.240,kallum_motion_pilot,2023.2.2,Win32,10,5ed8cf4782a6eb04ddf9962d,65d2b6c8f2eece985d8e374c,65d2def2aaec44a00e5b80a2,0.029,0.029,0,15,15,113,1,fiveseven,,,,,,,,,,,,,,,,,,,,,,,,,,,,,,,,,,,,,,,,,,,,,,,,,,,,,,,,,,,,,,,,,,,,,,,,,,,,,,,,,,,,,,,,,,,,,,,,,,,,,,,,,,,,,,,,,,,,,,,,,,,,,,,,,,,,,,,,,
,,5ed8cf4782a6eb04ddf9962d,2024-02-19_05h55.08.240,kallum_motion_pilot,2023.2.2,Win32,10,5ed8cf4782a6eb04ddf9962d,65d2b6c8f2eece985d8e374c,65d2def2aaec44a00e5b80a2,0.0291,0.0291,0,16,16,138,1,sixfive,,,,,,,,,,,,,,,,,,,,,,,,,,,,,,,,,,,,,,,,,,,,,,,,,,,,,,,,,,,,,,,,,,,,,,,,,,,,,,,,,,,,,,,,,,,,,,,,,,,,,,,,,,,,,,,,,,,,,,,,,,,,,,,,,,,,,,,,,
,,5ed8cf4782a6eb04ddf9962d,2024-02-19_05h55.08.240,kallum_motion_pilot,2023.2.2,Win32,10,5ed8cf4782a6eb04ddf9962d,65d2b6c8f2eece985d8e374c,65d2def2aaec44a00e5b80a2,0.0292,0.0292,0,17,17,161,1,fiveseven,,,,,,,,,,,,,,,,,,,,,,,,,,,,,,,,,,,,,,,,,,,,,,,,,,,,,,,,,,,,,,,,,,,,,,,,,,,,,,,,,,,,,,,,,,,,,,,,,,,,,,,,,,,,,,,,,,,,,,,,,,,,,,,,,,,,,,,,,
,,5ed8cf4782a6eb04ddf9962d,2024-02-19_05h55.08.240,kallum_motion_pilot,2023.2.2,Win32,10,5ed8cf4782a6eb04ddf9962d,65d2b6c8f2eece985d8e374c,65d2def2aaec44a00e5b80a2,0.0293,0.0293,0,18,18,1,1,onethree,,,,,,,,,,,,,,,,,,,,,,,,,,,,,,,,,,,,,,,,,,,,,,,,,,,,,,,,,,,,,,,,,,,,,,,,,,,,,,,,,,,,,,,,,,,,,,,,,,,,,,,,,,,,,,,,,,,,,,,,,,,,,,,,,,,,,,,,,
,,5ed8cf4782a6eb04ddf9962d,2024-02-19_05h55.08.240,kallum_motion_pilot,2023.2.2,Win32,10,5ed8cf4782a6eb04ddf9962d,65d2b6c8f2eece985d8e374c,65d2def2aaec44a00e5b80a2,0.0294,0.0294,0,19,19,106,1,sixfive,,,,,,,,,,,,,,,,,,,,,,,,,,,,,,,,,,,,,,,,,,,,,,,,,,,,,,,,,,,,,,,,,,,,,,,,,,,,,,,,,,,,,,,,,,,,,,,,,,,,,,,,,,,,,,,,,,,,,,,,,,,,,,,,,,,,,,,,,
,,5ed8cf4782a6eb04ddf9962d,2024-02-19_05h55.08.240,kallum_motion_pilot,2023.2.2,Win32,10,5ed8cf4782a6eb04ddf9962d,65d2b6c8f2eece985d8e374c,65d2def2aaec44a00e5b80a2,0.0295,0.0296,0,20,20,20,1,threeone,,,,,,,,,,,,,,,,,,,,,,,,,,,,,,,,,,,,,,,,,,,,,,,,,,,,,,,,,,,,,,,,,,,,,,,,,,,,,,,,,,,,,,,,,,,,,,,,,,,,,,,,,,,,,,,,,,,,,,,,,,,,,,,,,,,,,,,,,
,,5ed8cf4782a6eb04ddf9962d,2024-02-19_05h55.08.240,kallum_motion_pilot,2023.2.2,Win32,10,5ed8cf4782a6eb04ddf9962d,65d2b6c8f2eece985d8e374c,65d2def2aaec44a00e5b80a2,0.0296,0.0297,0,21,21,47,1,fourthree,,,,,,,,,,,,,,,,,,,,,,,,,,,,,,,,,,,,,,,,,,,,,,,,,,,,,,,,,,,,,,,,,,,,,,,,,,,,,,,,,,,,,,,,,,,,,,,,,,,,,,,,,,,,,,,,,,,,,,,,,,,,,,,,,,,,,,,,,
,,5ed8cf4782a6eb04ddf9962d,2024-02-19_05h55.08.240,kallum_motion_pilot,2023.2.2,Win32,10,5ed8cf4782a6eb04ddf9962d,65d2b6c8f2eece985d8e374c,65d2def2aaec44a00e5b80a2,0.0297,0.0298,0,22,22,116,1,sevenfive,,,,,,,,,,,,,,,,,,,,,,,,,,,,,,,,,,,,,,,,,,,,,,,,,,,,,,,,,,,,,,,,,,,,,,,,,,,,,,,,,,,,,,,,,,,,,,,,,,,,,,,,,,,,,,,,,,,,,,,,,,,,,,,,,,,,,,,,,
,,5ed8cf4782a6eb04ddf9962d,2024-02-19_05h55.08.240,kallum_motion_pilot,2023.2.2,Win32,10,5ed8cf4782a6eb04ddf9962d,65d2b6c8f2eece985d8e374c,65d2def2aaec44a00e5b80a2,0.0299,0.0299,0,23,23,35,1,twofour,,,,,,,,,,,,,,,,,,,,,,,,,,,,,,,,,,,,,,,,,,,,,,,,,,,,,,,,,,,,,,,,,,,,,,,,,,,,,,,,,,,,,,,,,,,,,,,,,,,,,,,,,,,,,,,,,,,,,,,,,,,,,,,,,,,,,,,,,
,,5ed8cf4782a6eb04ddf9962d,2024-02-19_05h55.08.240,kallum_motion_pilot,2023.2.2,Win32,10,5ed8cf4782a6eb04ddf9962d,65d2b6c8f2eece985d8e374c,65d2def2aaec44a00e5b80a2,0.03,0.03,0,24,24,72,1,onetwo,,,,,,,,,,,,,,,,,,,,,,,,,,,,,,,,,,,,,,,,,,,,,,,,,,,,,,,,,,,,,,,,,,,,,,,,,,,,,,,,,,,,,,,,,,,,,,,,,,,,,,,,,,,,,,,,,,,,,,,,,,,,,,,,,,,,,,,,,
,,5ed8cf4782a6eb04ddf9962d,2024-02-19_05h55.08.240,kallum_motion_pilot,2023.2.2,Win32,10,5ed8cf4782a6eb04ddf9962d,65d2b6c8f2eece985d8e374c,65d2def2aaec44a00e5b80a2,0.0302,0.0302,0,25,25,140,1,sevenfive,,,,,,,,,,,,,,,,,,,,,,,,,,,,,,,,,,,,,,,,,,,,,,,,,,,,,,,,,,,,,,,,,,,,,,,,,,,,,,,,,,,,,,,,,,,,,,,,,,,,,,,,,,,,,,,,,,,,,,,,,,,,,,,,,,,,,,,,,
,,5ed8cf4782a6eb04ddf9962d,2024-02-19_05h55.08.240,kallum_motion_pilot,2023.2.2,Win32,10,5ed8cf4782a6eb04ddf9962d,65d2b6c8f2eece985d8e374c,65d2def2aaec44a00e5b80a2,0.0303,0.0303,0,26,26,13,1,threefour,,,,,,,,,,,,,,,,,,,,,,,,,,,,,,,,,,,,,,,,,,,,,,,,,,,,,,,,,,,,,,,,,,,,,,,,,,,,,,,,,,,,,,,,,,,,,,,,,,,,,,,,,,,,,,,,,,,,,,,,,,,,,,,,,,,,,,,,,
,,5ed8cf4782a6eb04ddf9962d,2024-02-19_05h55.08.240,kallum_motion_pilot,2023.2.2,Win32,10,5ed8cf4782a6eb04ddf9962d,65d2b6c8f2eece985d8e374c,65d2def2aaec44a00e5b80a2,0.0304,0.0305,0,27,27,145,1,fiveseven,,,,,,,,,,,,,,,,,,,,,,,,,,,,,,,,,,,,,,,,,,,,,,,,,,,,,,,,,,,,,,,,,,,,,,,,,,,,,,,,,,,,,,,,,,,,,,,,,,,,,,,,,,,,,,,,,,,,,,,,,,,,,,,,,,,,,,,,,
,,5ed8cf4782a6eb04ddf9962d,2024-02-19_05h55.08.240,kallum_motion_pilot,2023.2.2,Win32,10,5ed8cf4782a6eb04ddf9962d,65d2b6c8f2eece985d8e374c,65d2def2aaec44a00e5b80a2,0.0305,0.0305,0,28,28,2,1,twoone,,,,,,,,,,,,,,,,,,,,,,,,,,,,,,,,,,,,,,,,,,,,,,,,,,,,,,,,,,,,,,,,,,,,,,,,,,,,,,,,,,,,,,,,,,,,,,,,,,,,,,,,,,,,,,,,,,,,,,,,,,,,,,,,,,,,,,,,,
,,5ed8cf4782a6eb04ddf9962d,2024-02-19_05h55.08.240,kallum_motion_pilot,2023.2.2,Win32,10,5ed8cf4782a6eb04ddf9962d,65d2b6c8f2eece985d8e374c,65d2def2aaec44a00e5b80a2,0.0307,0.0307,0,29,29,71,1,fourthree,,,,,,,,,,,,,,,,,,,,,,,,,,,,,,,,,,,,,,,,,,,,,,,,,,,,,,,,,,,,,,,,,,,,,,,,,,,,,,,,,,,,,,,,,,,,,,,,,,,,,,,,,,,,,,,,,,,,,,,,,,,,,,,,,,,,,,,,,
,,5ed8cf4782a6eb04ddf9962d,2024-02-19_05h55.08.240,kallum_motion_pilot,2023.2.2,Win32,10,5ed8cf4782a6eb04ddf9962d,65d2b6c8f2eece985d8e374c,65d2def2aaec44a00e5b80a2,0.0308,0.0309,0,30,30,127,1,eightseven,,,,,,,,,,,,,,,,,,,,,,,,,,,,,,,,,,,,,,,,,,,,,,,,,,,,,,,,,,,,,,,,,,,,,,,,,,,,,,,,,,,,,,,,,,,,,,,,,,,,,,,,,,,,,,,,,,,,,,,,,,,,,,,,,,,,,,,,,
,,5ed8cf4782a6eb04ddf9962d,2024-02-19_05h55.08.240,kallum_motion_pilot,2023.2.2,Win32,10,5ed8cf4782a6eb04ddf9962d,65d2b6c8f2eece985d8e374c,65d2def2aaec44a00e5b80a2,0.0309,0.0311,0,31,31,97,1,fiveseven,,,,,,,,,,,,,,,,,,,,,,,,,,,,,,,,,,,,,,,,,,,,,,,,,,,,,,,,,,,,,,,,,,,,,,,,,,,,,,,,,,,,,,,,,,,,,,,,,,,,,,,,,,,,,,,,,,,,,,,,,,,,,,,,,,,,,,,,,
,,5ed8cf4782a6eb04ddf9962d,2024-02-19_05h55.08.240,kallum_motion_pilot,2023.2.2,Win32,10,5ed8cf4782a6eb04ddf9962d,65d2b6c8f2eece985d8e374c,65d2def2aaec44a00e5b80a2,0.0312,0.0312,0,32,32,155,1,sixeight,,,,,,,,,,,,,,,,,,,,,,,,,,,,,,,,,,,,,,,,,,,,,,,,,,,,,,,,,,,,,,,,,,,,,,,,,,,,,,,,,,,,,,,,,,,,,,,,,,,,,,,,,,,,,,,,,,,,,,,,,,,,,,,,,,,,,,,,,
,,5ed8cf4782a6eb04ddf9962d,2024-02-19_05h55.08.240,kallum_motion_pilot,2023.2.2,Win32,10,5ed8cf4782a6eb04ddf9962d,65d2b6c8f2eece985d8e374c,65d2def2aaec44a00e5b80a2,0.0314,0.0314,0,33,33,139,1,sixeight,,,,,,,,,,,,,,,,,,,,,,,,,,,,,,,,,,,,,,,,,,,,,,,,,,,,,,,,,,,,,,,,,,,,,,,,,,,,,,,,,,,,,,,,,,,,,,,,,,,,,,,,,,,,,,,,,,,,,,,,,,,,,,,,,,,,,,,,,
,,5ed8cf4782a6eb04ddf9962d,2024-02-19_05h55.08.240,kallum_motion_pilot,2023.2.2,Win32,10,5ed8cf4782a6eb04ddf9962d,65d2b6c8f2eece985d8e374c,65d2def2aaec44a00e5b80a2,0.0316,0.0317,0,34,34,67,1,twofour,,,,,,,,,,,,,,,,,,,,,,,,,,,,,,,,,,,,,,,,,,,,,,,,,,,,,,,,,,,,,,,,,,,,,,,,,,,,,,,,,,,,,,,,,,,,,,,,,,,,,,,,,,,,,,,,,,,,,,,,,,,,,,,,,,,,,,,,,
,,5ed8cf4782a6eb04ddf9962d,2024-02-19_05h55.08.240,kallum_motion_pilot,2023.2.2,Win32,10,5ed8cf4782a6eb04ddf9962d,65d2b6c8f2eece985d8e374c,65d2def2aaec44a00e5b80a2,0.0317,0.0318,0,35,35,147,1,sixeight,,,,,,,,,,,,,,,,,,,,,,,,,,,,,,,,,,,,,,,,,,,,,,,,,,,,,,,,,,,,,,,,,,,,,,,,,,,,,,,,,,,,,,,,,,,,,,,,,,,,,,,,,,,,,,,,,,,,,,,,,,,,,,,,,,,,,,,,,
,,5ed8cf4782a6eb04ddf9962d,2024-02-19_05h55.08.240,kallum_motion_pilot,2023.2.2,Win32,10,5ed8cf4782a6eb04ddf9962d,65d2b6c8f2eece985d8e374c,65d2def2aaec44a00e5b80a2,0.0319,0.032,0,36,36,144,1,fivesix,,,,,,,,,,,,,,,,,,,,,,,,,,,,,,,,,,,,,,,,,,,,,,,,,,,,,,,,,,,,,,,,,,,,,,,,,,,,,,,,,,,,,,,,,,,,,,,,,,,,,,,,,,,,,,,,,,,,,,,,,,,,,,,,,,,,,,,,,
,,5ed8cf4782a6eb04ddf9962d,2024-02-19_05h55.08.240,kallum_motion_pilot,2023.2.2,Win32,10,5ed8cf4782a6eb04ddf9962d,65d2b6c8f2eece985d8e374c,65d2def2aaec44a00e5b80a2,0.032,0.0321,0,37,37,126,1,eightsix,,,,,,,,,,,,,,,,,,,,,,,,,,,,,,,,,,,,,,,,,,,,,,,,,,,,,,,,,,,,,,,,,,,,,,,,,,,,,,,,,,,,,,,,,,,,,,,,,,,,,,,,,,,,,,,,,,,,,,,,,,,,,,,,,,,,,,,,,
,,5ed8cf4782a6eb04ddf9962d,2024-02-19_05h55.08.240,kallum_motion_pilot,2023.2.2,Win32,10,5ed8cf4782a6eb04ddf9962d,65d2b6c8f2eece985d8e374c,65d2def2aaec44a00e5b80a2,0.0322,0.0322,0,38,38,95,1,eightseven,,,,,,,,,,,,,,,,,,,,,,,,,,,,,,,,,,,,,,,,,,,,,,,,,,,,,,,,,,,,,,,,,,,,,,,,,,,,,,,,,,,,,,,,,,,,,,,,,,,,,,,,,,,,,,,,,,,,,,,,,,,,,,,,,,,,,,,,,
,,5ed8cf4782a6eb04ddf9962d,2024-02-19_05h55.08.240,kallum_motion_pilot,2023.2.2,Win32,10,5ed8cf4782a6eb04ddf9962d,65d2b6c8f2eece985d8e374c,65d2def2aaec44a00e5b80a2,0.0322,0.0323,0,39,39,82,1,sixfive,,,,,,,,,,,,,,,,,,,,,,,,,,,,,,,,,,,,,,,,,,,,,,,,,,,,,,,,,,,,,,,,,,,,,,,,,,,,,,,,,,,,,,,,,,,,,,,,,,,,,,,,,,,,,,,,,,,,,,,,,,,,,,,,,,,,,,,,,
,,5ed8cf4782a6eb04ddf9962d,2024-02-19_05h55.08.240,kallum_motion_pilot,2023.2.2,Win32,10,5ed8cf4782a6eb04ddf9962d,65d2b6c8f2eece985d8e374c,65d2def2aaec44a00e5b80a2,0.0325,0.0325,0,40,40,24,1,onetwo,,,,,,,,,,,,,,,,,,,,,,,,,,,,,,,,,,,,,,,,,,,,,,,,,,,,,,,,,,,,,,,,,,,,,,,,,,,,,,,,,,,,,,,,,,,,,,,,,,,,,,,,,,,,,,,,,,,,,,,,,,,,,,,,,,,,,,,,,
,,5ed8cf4782a6eb04ddf9962d,2024-02-19_05h55.08.240,kallum_motion_pilot,2023.2.2,Win32,10,5ed8cf4782a6eb04ddf9962d,65d2b6c8f2eece985d8e374c,65d2def2aaec44a00e5b80a2,0.0326,0.0327,0,41,41,22,1,fourtwo,,,,,,,,,,,,,,,,,,,,,,,,,,,,,,,,,,,,,,,,,,,,,,,,,,,,,,,,,,,,,,,,,,,,,,,,,,,,,,,,,,,,,,,,,,,,,,,,,,,,,,,,,,,,,,,,,,,,,,,,,,,,,,,,,,,,,,,,,
,,5ed8cf4782a6eb04ddf9962d,2024-02-19_05h55.08.240,kallum_motion_pilot,2023.2.2,Win32,10,5ed8cf4782a6eb04ddf9962d,65d2b6c8f2eece985d8e374c,65d2def2aaec44a00e5b80a2,0.0327,0.0327,0,42,42,92,1,sevenfive,,,,,,,,,,,,,,,,,,,,,,,,,,,,,,,,,,,,,,,,,,,,,,,,,,,,,,,,,,,,,,,,,,,,,,,,,,,,,,,,,,,,,,,,,,,,,,,,,,,,,,,,,,,,,,,,,,,,,,,,,,,,,,,,,,,,,,,,,
,,5ed8cf4782a6eb04ddf9962d,2024-02-19_05h55.08.240,kallum_motion_pilot,2023.2.2,Win32,10,5ed8cf4782a6eb04ddf9962d,65d2b6c8f2eece985d8e374c,65d2def2aaec44a00e5b80a2,0.0328,0.0328,0,43,43,133,1,seveneight,,,,,,,,,,,,,,,,,,,,,,,,,,,,,,,,,,,,,,,,,,,,,,,,,,,,,,,,,,,,,,,,,,,,,,,,,,,,,,,,,,,,,,,,,,,,,,,,,,,,,,,,,,,,,,,,,,,,,,,,,,,,,,,,,,,,,,,,,
,,5ed8cf4782a6eb04ddf9962d,2024-02-19_05h55.08.240,kallum_motion_pilot,2023.2.2,Win32,10,5ed8cf4782a6eb04ddf9962d,65d2b6c8f2eece985d8e374c,65d2def2aaec44a00e5b80a2,0.0329,0.033,0,44,44,23,1,fourthree,,,,,,,,,,,,,,,,,,,,,,,,,,,,,,,,,,,,,,,,,,,,,,,,,,,,,,,,,,,,,,,,,,,,,,,,,,,,,,,,,,,,,,,,,,,,,,,,,,,,,,,,,,,,,,,,,,,,,,,,,,,,,,,,,,,,,,,,,
,,5ed8cf4782a6eb04ddf9962d,2024-02-19_05h55.08.240,kallum_motion_pilot,2023.2.2,Win32,10,5ed8cf4782a6eb04ddf9962d,65d2b6c8f2eece985d8e374c,65d2def2aaec44a00e5b80a2,0.0331,0.0331,0,45,45,109,1,seveneight,,,,,,,,,,,,,,,,,,,,,,,,,,,,,,,,,,,,,,,,,,,,,,,,,,,,,,,,,,,,,,,,,,,,,,,,,,,,,,,,,,,,,,,,,,,,,,,,,,,,,,,,,,,,,,,,,,,,,,,,,,,,,,,,,,,,,,,,,
,,5ed8cf4782a6eb04ddf9962d,2024-02-19_05h55.08.240,kallum_motion_pilot,2023.2.2,Win32,10,5ed8cf4782a6eb04ddf9962d,65d2b6c8f2eece985d8e374c,65d2def2aaec44a00e5b80a2,0.0332,0.0334,0,46,46,119,1,eightseven,,,,,,,,,,,,,,,,,,,,,,,,,,,,,,,,,,,,,,,,,,,,,,,,,,,,,,,,,,,,,,,,,,,,,,,,,,,,,,,,,,,,,,,,,,,,,,,,,,,,,,,,,,,,,,,,,,,,,,,,,,,,,,,,,,,,,,,,,
,,5ed8cf4782a6eb04ddf9962d,2024-02-19_05h55.08.240,kallum_motion_pilot,2023.2.2,Win32,10,5ed8cf4782a6eb04ddf9962d,65d2b6c8f2eece985d8e374c,65d2def2aaec44a00e5b80a2,0.0335,0.0335,0,47,47,156,1,sevenfive,,,,,,,,,,,,,,,,,,,,,,,,,,,,,,,,,,,,,,,,,,,,,,,,,,,,,,,,,,,,,,,,,,,,,,,,,,,,,,,,,,,,,,,,,,,,,,,,,,,,,,,,,,,,,,,,,,,,,,,,,,,,,,,,,,,,,,,,,
,,5ed8cf4782a6eb04ddf9962d,2024-02-19_05h55.08.240,kallum_motion_pilot,2023.2.2,Win32,10,5ed8cf4782a6eb04ddf9962d,65d2b6c8f2eece985d8e374c,65d2def2aaec44a00e5b80a2,0.0336,0.0336,0,48,48,66,1,twoone,,,,,,,,,,,,,,,,,,,,,,,,,,,,,,,,,,,,,,,,,,,,,,,,,,,,,,,,,,,,,,,,,,,,,,,,,,,,,,,,,,,,,,,,,,,,,,,,,,,,,,,,,,,,,,,,,,,,,,,,,,,,,,,,,,,,,,,,,
,,5ed8cf4782a6eb04ddf9962d,2024-02-19_05h55.08.240,kallum_motion_pilot,2023.2.2,Win32,10,5ed8cf4782a6eb04ddf9962d,65d2b6c8f2eece985d8e374c,65d2def2aaec44a00e5b80a2,0.0338,0.0338,0,49,49,84,1,sevenfive,,,,,,,,,,,,,,,,,,,,,,,,,,,,,,,,,,,,,,,,,,,,,,,,,,,,,,,,,,,,,,,,,,,,,,,,,,,,,,,,,,,,,,,,,,,,,,,,,,,,,,,,,,,,,,,,,,,,,,,,,,,,,,,,,,,,,,,,,
,,5ed8cf4782a6eb04ddf9962d,2024-02-19_05h55.08.240,kallum_motion_pilot,2023.2.2,Win32,10,5ed8cf4782a6eb04ddf9962d,65d2b6c8f2eece985d8e374c,65d2def2aaec44a00e5b80a2,0.0339,0.0339,0,50,50,4,1,threeone,,,,,,,,,,,,,,,,,,,,,,,,,,,,,,,,,,,,,,,,,,,,,,,,,,,,,,,,,,,,,,,,,,,,,,,,,,,,,,,,,,,,,,,,,,,,,,,,,,,,,,,,,,,,,,,,,,,,,,,,,,,,,,,,,,,,,,,,,
,,5ed8cf4782a6eb04ddf9962d,2024-02-19_05h55.08.240,kallum_motion_pilot,2023.2.2,Win32,10,5ed8cf4782a6eb04ddf9962d,65d2b6c8f2eece985d8e374c,65d2def2aaec44a00e5b80a2,0.034,0.034,0,51,51,33,1,onethree,,,,,,,,,,,,,,,,,,,,,,,,,,,,,,,,,,,,,,,,,,,,,,,,,,,,,,,,,,,,,,,,,,,,,,,,,,,,,,,,,,,,,,,,,,,,,,,,,,,,,,,,,,,,,,,,,,,,,,,,,,,,,,,,,,,,,,,,,
,,5ed8cf4782a6eb04ddf9962d,2024-02-19_05h55.08.240,kallum_motion_pilot,2023.2.2,Win32,10,5ed8cf4782a6eb04ddf9962d,65d2b6c8f2eece985d8e374c,65d2def2aaec44a00e5b80a2,0.0341,0.0342,0,52,52,104,1,fivesix,,,,,,,,,,,,,,,,,,,,,,,,,,,,,,,,,,,,,,,,,,,,,,,,,,,,,,,,,,,,,,,,,,,,,,,,,,,,,,,,,,,,,,,,,,,,,,,,,,,,,,,,,,,,,,,,,,,,,,,,,,,,,,,,,,,,,,,,,
,,5ed8cf4782a6eb04ddf9962d,2024-02-19_05h55.08.240,kallum_motion_pilot,2023.2.2,Win32,10,5ed8cf4782a6eb04ddf9962d,65d2b6c8f2eece985d8e374c,65d2def2aaec44a00e5b80a2,0.0342,0.0343,0,53,53,112,1,fivesix,,,,,,,,,,,,,,,,,,,,,,,,,,,,,,,,,,,,,,,,,,,,,,,,,,,,,,,,,,,,,,,,,,,,,,,,,,,,,,,,,,,,,,,,,,,,,,,,,,,,,,,,,,,,,,,,,,,,,,,,,,,,,,,,,,,,,,,,,
,,5ed8cf4782a6eb04ddf9962d,2024-02-19_05h55.08.240,kallum_motion_pilot,2023.2.2,Win32,10,5ed8cf4782a6eb04ddf9962d,65d2b6c8f2eece985d8e374c,65d2def2aaec44a00e5b80a2,0.0343,0.0343,0,54,54,148,1,sevenfive,,,,,,,,,,,,,,,,,,,,,,,,,,,,,,,,,,,,,,,,,,,,,,,,,,,,,,,,,,,,,,,,,,,,,,,,,,,,,,,,,,,,,,,,,,,,,,,,,,,,,,,,,,,,,,,,,,,,,,,,,,,,,,,,,,,,,,,,,
,,5ed8cf4782a6eb04ddf9962d,2024-02-19_05h55.08.240,kallum_motion_pilot,2023.2.2,Win32,10,5ed8cf4782a6eb04ddf9962d,65d2b6c8f2eece985d8e374c,65d2def2aaec44a00e5b80a2,0.0345,0.0345,0,55,55,43,1,twofour,,,,,,,,,,,,,,,,,,,,,,,,,,,,,,,,,,,,,,,,,,,,,,,,,,,,,,,,,,,,,,,,,,,,,,,,,,,,,,,,,,,,,,,,,,,,,,,,,,,,,,,,,,,,,,,,,,,,,,,,,,,,,,,,,,,,,,,,,
,,5ed8cf4782a6eb04ddf9962d,2024-02-19_05h55.08.240,kallum_motion_pilot,2023.2.2,Win32,10,5ed8cf4782a6eb04ddf9962d,65d2b6c8f2eece985d8e374c,65d2def2aaec44a00e5b80a2,0.0346,0.0347,0,56,56,31,1,fourthree,,,,,,,,,,,,,,,,,,,,,,,,,,,,,,,,,,,,,,,,,,,,,,,,,,,,,,,,,,,,,,,,,,,,,,,,,,,,,,,,,,,,,,,,,,,,,,,,,,,,,,,,,,,,,,,,,,,,,,,,,,,,,,,,,,,,,,,,,
,,5ed8cf4782a6eb04ddf9962d,2024-02-19_05h55.08.240,kallum_motion_pilot,2023.2.2,Win32,10,5ed8cf4782a6eb04ddf9962d,65d2b6c8f2eece985d8e374c,65d2def2aaec44a00e5b80a2,0.0347,0.0347,0,57,57,0,1,onetwo,,,,,,,,,,,,,,,,,,,,,,,,,,,,,,,,,,,,,,,,,,,,,,,,,,,,,,,,,,,,,,,,,,,,,,,,,,,,,,,,,,,,,,,,,,,,,,,,,,,,,,,,,,,,,,,,,,,,,,,,,,,,,,,,,,,,,,,,,
,,5ed8cf4782a6eb04ddf9962d,2024-02-19_05h55.08.240,kallum_motion_pilot,2023.2.2,Win32,10,5ed8cf4782a6eb04ddf9962d,65d2b6c8f2eece985d8e374c,65d2def2aaec44a00e5b80a2,0.0348,0.0349,0,58,58,81,1,fiveseven,,,,,,,,,,,,,,,,,,,,,,,,,,,,,,,,,,,,,,,,,,,,,,,,,,,,,,,,,,,,,,,,,,,,,,,,,,,,,,,,,,,,,,,,,,,,,,,,,,,,,,,,,,,,,,,,,,,,,,,,,,,,,,,,,,,,,,,,,
,,5ed8cf4782a6eb04ddf9962d,2024-02-19_05h55.08.240,kallum_motion_pilot,2023.2.2,Win32,10,5ed8cf4782a6eb04ddf9962d,65d2b6c8f2eece985d8e374c,65d2def2aaec44a00e5b80a2,0.0349,0.035,0,59,59,74,1,twoone,,,,,,,,,,,,,,,,,,,,,,,,,,,,,,,,,,,,,,,,,,,,,,,,,,,,,,,,,,,,,,,,,,,,,,,,,,,,,,,,,,,,,,,,,,,,,,,,,,,,,,,,,,,,,,,,,,,,,,,,,,,,,,,,,,,,,,,,,
,,5ed8cf4782a6eb04ddf9962d,2024-02-19_05h55.08.240,kallum_motion_pilot,2023.2.2,Win32,10,5ed8cf4782a6eb04ddf9962d,65d2b6c8f2eece985d8e374c,65d2def2aaec44a00e5b80a2,0.035,0.0352,0,60,60,110,1,eightsix,,,,,,,,,,,,,,,,,,,,,,,,,,,,,,,,,,,,,,,,,,,,,,,,,,,,,,,,,,,,,,,,,,,,,,,,,,,,,,,,,,,,,,,,,,,,,,,,,,,,,,,,,,,,,,,,,,,,,,,,,,,,,,,,,,,,,,,,,
,,5ed8cf4782a6eb04ddf9962d,2024-02-19_05h55.08.240,kallum_motion_pilot,2023.2.2,Win32,10,5ed8cf4782a6eb04ddf9962d,65d2b6c8f2eece985d8e374c,65d2def2aaec44a00e5b80a2,0.0352,0.0353,0,61,61,83,1,sixeight,,,,,,,,,,,,,,,,,,,,,,,,,,,,,,,,,,,,,,,,,,,,,,,,,,,,,,,,,,,,,,,,,,,,,,,,,,,,,,,,,,,,,,,,,,,,,,,,,,,,,,,,,,,,,,,,,,,,,,,,,,,,,,,,,,,,,,,,,
,,5ed8cf4782a6eb04ddf9962d,2024-02-19_05h55.08.240,kallum_motion_pilot,2023.2.2,Win32,10,5ed8cf4782a6eb04ddf9962d,65d2b6c8f2eece985d8e374c,65d2def2aaec44a00e5b80a2,0.0353,0.0354,0,62,62,123,1,sixeight,,,,,,,,,,,,,,,,,,,,,,,,,,,,,,,,,,,,,,,,,,,,,,,,,,,,,,,,,,,,,,,,,,,,,,,,,,,,,,,,,,,,,,,,,,,,,,,,,,,,,,,,,,,,,,,,,,,,,,,,,,,,,,,,,,,,,,,,,
,,5ed8cf4782a6eb04ddf9962d,2024-02-19_05h55.08.240,kallum_motion_pilot,2023.2.2,Win32,10,5ed8cf4782a6eb04ddf9962d,65d2b6c8f2eece985d8e374c,65d2def2aaec44a00e5b80a2,0.0355,0.0355,0,63,63,142,1,eightsix,,,,,,,,,,,,,,,,,,,,,,,,,,,,,,,,,,,,,,,,,,,,,,,,,,,,,,,,,,,,,,,,,,,,,,,,,,,,,,,,,,,,,,,,,,,,,,,,,,,,,,,,,,,,,,,,,,,,,,,,,,,,,,,,,,,,,,,,,
,,5ed8cf4782a6eb04ddf9962d,2024-02-19_05h55.08.240,kallum_motion_pilot,2023.2.2,Win32,10,5ed8cf4782a6eb04ddf9962d,65d2b6c8f2eece985d8e374c,65d2def2aaec44a00e5b80a2,0.0357,0.0357,0,64,64,12,1,threeone,,,,,,,,,,,,,,,,,,,,,,,,,,,,,,,,,,,,,,,,,,,,,,,,,,,,,,,,,,,,,,,,,,,,,,,,,,,,,,,,,,,,,,,,,,,,,,,,,,,,,,,,,,,,,,,,,,,,,,,,,,,,,,,,,,,,,,,,,
,,5ed8cf4782a6eb04ddf9962d,2024-02-19_05h55.08.240,kallum_motion_pilot,2023.2.2,Win32,10,5ed8cf4782a6eb04ddf9962d,65d2b6c8f2eece985d8e374c,65d2def2aaec44a00e5b80a2,0.0357,0.0358,0,65,65,124,1,sevenfive,,,,,,,,,,,,,,,,,,,,,,,,,,,,,,,,,,,,,,,,,,,,,,,,,,,,,,,,,,,,,,,,,,,,,,,,,,,,,,,,,,,,,,,,,,,,,,,,,,,,,,,,,,,,,,,,,,,,,,,,,,,,,,,,,,,,,,,,,
,,5ed8cf4782a6eb04ddf9962d,2024-02-19_05h55.08.240,kallum_motion_pilot,2023.2.2,Win32,10,5ed8cf4782a6eb04ddf9962d,65d2b6c8f2eece985d8e374c,65d2def2aaec44a00e5b80a2,0.0359,0.0359,0,66,66,60,1,threeone,,,,,,,,,,,,,,,,,,,,,,,,,,,,,,,,,,,,,,,,,,,,,,,,,,,,,,,,,,,,,,,,,,,,,,,,,,,,,,,,,,,,,,,,,,,,,,,,,,,,,,,,,,,,,,,,,,,,,,,,,,,,,,,,,,,,,,,,,
,,5ed8cf4782a6eb04ddf9962d,2024-02-19_05h55.08.240,kallum_motion_pilot,2023.2.2,Win32,10,5ed8cf4782a6eb04ddf9962d,65d2b6c8f2eece985d8e374c,65d2def2aaec44a00e5b80a2,0.0361,0.0361,0,67,67,120,1,fivesix,,,,,,,,,,,,,,,,,,,,,,,,,,,,,,,,,,,,,,,,,,,,,,,,,,,,,,,,,,,,,,,,,,,,,,,,,,,,,,,,,,,,,,,,,,,,,,,,,,,,,,,,,,,,,,,,,,,,,,,,,,,,,,,,,,,,,,,,,
,,5ed8cf4782a6eb04ddf9962d,2024-02-19_05h55.08.240,kallum_motion_pilot,2023.2.2,Win32,10,5ed8cf4782a6eb04ddf9962d,65d2b6c8f2eece985d8e374c,65d2def2aaec44a00e5b80a2,0.0362,0.0363,0,68,68,40,1,onetwo,,,,,,,,,,,,,,,,,,,,,,,,,,,,,,,,,,,,,,,,,,,,,,,,,,,,,,,,,,,,,,,,,,,,,,,,,,,,,,,,,,,,,,,,,,,,,,,,,,,,,,,,,,,,,,,,,,,,,,,,,,,,,,,,,,,,,,,,,
,,5ed8cf4782a6eb04ddf9962d,2024-02-19_05h55.08.240,kallum_motion_pilot,2023.2.2,Win32,10,5ed8cf4782a6eb04ddf9962d,65d2b6c8f2eece985d8e374c,65d2def2aaec44a00e5b80a2,0.0364,0.0364,0,69,69,137,1,fiveseven,,,,,,,,,,,,,,,,,,,,,,,,,,,,,,,,,,,,,,,,,,,,,,,,,,,,,,,,,,,,,,,,,,,,,,,,,,,,,,,,,,,,,,,,,,,,,,,,,,,,,,,,,,,,,,,,,,,,,,,,,,,,,,,,,,,,,,,,,
,,5ed8cf4782a6eb04ddf9962d,2024-02-19_05h55.08.240,kallum_motion_pilot,2023.2.2,Win32,10,5ed8cf4782a6eb04ddf9962d,65d2b6c8f2eece985d8e374c,65d2def2aaec44a00e5b80a2,0.0364,0.0365,0,70,70,73,1,onethree,,,,,,,,,,,,,,,,,,,,,,,,,,,,,,,,,,,,,,,,,,,,,,,,,,,,,,,,,,,,,,,,,,,,,,,,,,,,,,,,,,,,,,,,,,,,,,,,,,,,,,,,,,,,,,,,,,,,,,,,,,,,,,,,,,,,,,,,,
,,5ed8cf4782a6eb04ddf9962d,2024-02-19_05h55.08.240,kallum_motion_pilot,2023.2.2,Win32,10,5ed8cf4782a6eb04ddf9962d,65d2b6c8f2eece985d8e374c,65d2def2aaec44a00e5b80a2,0.0366,0.0366,0,71,71,44,1,threeone,,,,,,,,,,,,,,,,,,,,,,,,,,,,,,,,,,,,,,,,,,,,,,,,,,,,,,,,,,,,,,,,,,,,,,,,,,,,,,,,,,,,,,,,,,,,,,,,,,,,,,,,,,,,,,,,,,,,,,,,,,,,,,,,,,,,,,,,,
,,5ed8cf4782a6eb04ddf9962d,2024-02-19_05h55.08.240,kallum_motion_pilot,2023.2.2,Win32,10,5ed8cf4782a6eb04ddf9962d,65d2b6c8f2eece985d8e374c,65d2def2aaec44a00e5b80a2,0.0367,0.0367,0,72,72,150,1,eightsix,,,,,,,,,,,,,,,,,,,,,,,,,,,,,,,,,,,,,,,,,,,,,,,,,,,,,,,,,,,,,,,,,,,,,,,,,,,,,,,,,,,,,,,,,,,,,,,,,,,,,,,,,,,,,,,,,,,,,,,,,,,,,,,,,,,,,,,,,
,,5ed8cf4782a6eb04ddf9962d,2024-02-19_05h55.08.240,kallum_motion_pilot,2023.2.2,Win32,10,5ed8cf4782a6eb04ddf9962d,65d2b6c8f2eece985d8e374c,65d2def2aaec44a00e5b80a2,0.0368,0.0369,0,73,73,77,1,threefour,,,,,,,,,,,,,,,,,,,,,,,,,,,,,,,,,,,,,,,,,,,,,,,,,,,,,,,,,,,,,,,,,,,,,,,,,,,,,,,,,,,,,,,,,,,,,,,,,,,,,,,,,,,,,,,,,,,,,,,,,,,,,,,,,,,,,,,,,
,,5ed8cf4782a6eb04ddf9962d,2024-02-19_05h55.08.240,kallum_motion_pilot,2023.2.2,Win32,10,5ed8cf4782a6eb04ddf9962d,65d2b6c8f2eece985d8e374c,65d2def2aaec44a00e5b80a2,0.037,0.0371,0,74,74,91,1,sixeight,,,,,,,,,,,,,,,,,,,,,,,,,,,,,,,,,,,,,,,,,,,,,,,,,,,,,,,,,,,,,,,,,,,,,,,,,,,,,,,,,,,,,,,,,,,,,,,,,,,,,,,,,,,,,,,,,,,,,,,,,,,,,,,,,,,,,,,,,
,,5ed8cf4782a6eb04ddf9962d,2024-02-19_05h55.08.240,kallum_motion_pilot,2023.2.2,Win32,10,5ed8cf4782a6eb04ddf9962d,65d2b6c8f2eece985d8e374c,65d2def2aaec44a00e5b80a2,0.0371,0.0372,0,75,75,27,1,twofour,,,,,,,,,,,,,,,,,,,,,,,,,,,,,,,,,,,,,,,,,,,,,,,,,,,,,,,,,,,,,,,,,,,,,,,,,,,,,,,,,,,,,,,,,,,,,,,,,,,,,,,,,,,,,,,,,,,,,,,,,,,,,,,,,,,,,,,,,
,,5ed8cf4782a6eb04ddf9962d,2024-02-19_05h55.08.240,kallum_motion_pilot,2023.2.2,Win32,10,5ed8cf4782a6eb04ddf9962d,65d2b6c8f2eece985d8e374c,65d2def2aaec44a00e5b80a2,0.0372,0.0373,0,76,76,28,1,threeone,,,,,,,,,,,,,,,,,,,,,,,,,,,,,,,,,,,,,,,,,,,,,,,,,,,,,,,,,,,,,,,,,,,,,,,,,,,,,,,,,,,,,,,,,,,,,,,,,,,,,,,,,,,,,,,,,,,,,,,,,,,,,,,,,,,,,,,,,
,,5ed8cf4782a6eb04ddf9962d,2024-02-19_05h55.08.240,kallum_motion_pilot,2023.2.2,Win32,10,5ed8cf4782a6eb04ddf9962d,65d2b6c8f2eece985d8e374c,65d2def2aaec44a00e5b80a2,0.0374,0.0374,0,77,77,57,1,onethree,,,,,,,,,,,,,,,,,,,,,,,,,,,,,,,,,,,,,,,,,,,,,,,,,,,,,,,,,,,,,,,,,,,,,,,,,,,,,,,,,,,,,,,,,,,,,,,,,,,,,,,,,,,,,,,,,,,,,,,,,,,,,,,,,,,,,,,,,
,,5ed8cf4782a6eb04ddf9962d,2024-02-19_05h55.08.240,kallum_motion_pilot,2023.2.2,Win32,10,5ed8cf4782a6eb04ddf9962d,65d2b6c8f2eece985d8e374c,65d2def2aaec44a00e5b80a2,0.0375,0.0376,0,78,78,107,1,sixeight,,,,,,,,,,,,,,,,,,,,,,,,,,,,,,,,,,,,,,,,,,,,,,,,,,,,,,,,,,,,,,,,,,,,,,,,,,,,,,,,,,,,,,,,,,,,,,,,,,,,,,,,,,,,,,,,,,,,,,,,,,,,,,,,,,,,,,,,,
,,5ed8cf4782a6eb04ddf9962d,2024-02-19_05h55.08.240,kallum_motion_pilot,2023.2.2,Win32,10,5ed8cf4782a6eb04ddf9962d,65d2b6c8f2eece985d8e374c,65d2def2aaec44a00e5b80a2,0.0376,0.0377,0,79,79,103,1,eightseven,,,,,,,,,,,,,,,,,,,,,,,,,,,,,,,,,,,,,,,,,,,,,,,,,,,,,,,,,,,,,,,,,,,,,,,,,,,,,,,,,,,,,,,,,,,,,,,,,,,,,,,,,,,,,,,,,,,,,,,,,,,,,,,,,,,,,,,,,
,,5ed8cf4782a6eb04ddf9962d,2024-02-19_05h55.08.240,kallum_motion_pilot,2023.2.2,Win32,10,5ed8cf4782a6eb04ddf9962d,65d2b6c8f2eece985d8e374c,65d2def2aaec44a00e5b80a2,0.0378,0.0378,0,80,80,130,1,sixfive,,,,,,,,,,,,,,,,,,,,,,,,,,,,,,,,,,,,,,,,,,,,,,,,,,,,,,,,,,,,,,,,,,,,,,,,,,,,,,,,,,,,,,,,,,,,,,,,,,,,,,,,,,,,,,,,,,,,,,,,,,,,,,,,,,,,,,,,,
,,5ed8cf4782a6eb04ddf9962d,2024-02-19_05h55.08.240,kallum_motion_pilot,2023.2.2,Win32,10,5ed8cf4782a6eb04ddf9962d,65d2b6c8f2eece985d8e374c,65d2def2aaec44a00e5b80a2,0.0379,0.0379,0,81,81,63,1,fourthree,,,,,,,,,,,,,,,,,,,,,,,,,,,,,,,,,,,,,,,,,,,,,,,,,,,,,,,,,,,,,,,,,,,,,,,,,,,,,,,,,,,,,,,,,,,,,,,,,,,,,,,,,,,,,,,,,,,,,,,,,,,,,,,,,,,,,,,,,
,,5ed8cf4782a6eb04ddf9962d,2024-02-19_05h55.08.240,kallum_motion_pilot,2023.2.2,Win32,10,5ed8cf4782a6eb04ddf9962d,65d2b6c8f2eece985d8e374c,65d2def2aaec44a00e5b80a2,0.0381,0.0381,0,82,82,29,1,threefour,,,,,,,,,,,,,,,,,,,,,,,,,,,,,,,,,,,,,,,,,,,,,,,,,,,,,,,,,,,,,,,,,,,,,,,,,,,,,,,,,,,,,,,,,,,,,,,,,,,,,,,,,,,,,,,,,,,,,,,,,,,,,,,,,,,,,,,,,
,,5ed8cf4782a6eb04ddf9962d,2024-02-19_05h55.08.240,kallum_motion_pilot,2023.2.2,Win32,10,5ed8cf4782a6eb04ddf9962d,65d2b6c8f2eece985d8e374c,65d2def2aaec44a00e5b80a2,0.0382,0.0382,0,83,83,76,1,threeone,,,,,,,,,,,,,,,,,,,,,,,,,,,,,,,,,,,,,,,,,,,,,,,,,,,,,,,,,,,,,,,,,,,,,,,,,,,,,,,,,,,,,,,,,,,,,,,,,,,,,,,,,,,,,,,,,,,,,,,,,,,,,,,,,,,,,,,,,
,,5ed8cf4782a6eb04ddf9962d,2024-02-19_05h55.08.240,kallum_motion_pilot,2023.2.2,Win32,10,5ed8cf4782a6eb04ddf9962d,65d2b6c8f2eece985d8e374c,65d2def2aaec44a00e5b80a2,0.0384,0.0384,0,84,84,18,1,twoone,,,,,,,,,,,,,,,,,,,,,,,,,,,,,,,,,,,,,,,,,,,,,,,,,,,,,,,,,,,,,,,,,,,,,,,,,,,,,,,,,,,,,,,,,,,,,,,,,,,,,,,,,,,,,,,,,,,,,,,,,,,,,,,,,,,,,,,,,
,,5ed8cf4782a6eb04ddf9962d,2024-02-19_05h55.08.240,kallum_motion_pilot,2023.2.2,Win32,10,5ed8cf4782a6eb04ddf9962d,65d2b6c8f2eece985d8e374c,65d2def2aaec44a00e5b80a2,0.0385,0.0385,0,85,85,129,1,fiveseven,,,,,,,,,,,,,,,,,,,,,,,,,,,,,,,,,,,,,,,,,,,,,,,,,,,,,,,,,,,,,,,,,,,,,,,,,,,,,,,,,,,,,,,,,,,,,,,,,,,,,,,,,,,,,,,,,,,,,,,,,,,,,,,,,,,,,,,,,
,,5ed8cf4782a6eb04ddf9962d,2024-02-19_05h55.08.240,kallum_motion_pilot,2023.2.2,Win32,10,5ed8cf4782a6eb04ddf9962d,65d2b6c8f2eece985d8e374c,65d2def2aaec44a00e5b80a2,0.0386,0.0387,0,86,86,65,1,onethree,,,,,,,,,,,,,,,,,,,,,,,,,,,,,,,,,,,,,,,,,,,,,,,,,,,,,,,,,,,,,,,,,,,,,,,,,,,,,,,,,,,,,,,,,,,,,,,,,,,,,,,,,,,,,,,,,,,,,,,,,,,,,,,,,,,,,,,,,
,,5ed8cf4782a6eb04ddf9962d,2024-02-19_05h55.08.240,kallum_motion_pilot,2023.2.2,Win32,10,5ed8cf4782a6eb04ddf9962d,65d2b6c8f2eece985d8e374c,65d2def2aaec44a00e5b80a2,0.0388,0.0388,0,87,87,80,1,fivesix,,,,,,,,,,,,,,,,,,,,,,,,,,,,,,,,,,,,,,,,,,,,,,,,,,,,,,,,,,,,,,,,,,,,,,,,,,,,,,,,,,,,,,,,,,,,,,,,,,,,,,,,,,,,,,,,,,,,,,,,,,,,,,,,,,,,,,,,,
,,5ed8cf4782a6eb04ddf9962d,2024-02-19_05h55.08.240,kallum_motion_pilot,2023.2.2,Win32,10,5ed8cf4782a6eb04ddf9962d,65d2b6c8f2eece985d8e374c,65d2def2aaec44a00e5b80a2,0.0389,0.039,0,88,88,98,1,sixfive,,,,,,,,,,,,,,,,,,,,,,,,,,,,,,,,,,,,,,,,,,,,,,,,,,,,,,,,,,,,,,,,,,,,,,,,,,,,,,,,,,,,,,,,,,,,,,,,,,,,,,,,,,,,,,,,,,,,,,,,,,,,,,,,,,,,,,,,,
,,5ed8cf4782a6eb04ddf9962d,2024-02-19_05h55.08.240,kallum_motion_pilot,2023.2.2,Win32,10,5ed8cf4782a6eb04ddf9962d,65d2b6c8f2eece985d8e374c,65d2def2aaec44a00e5b80a2,0.039,0.039,0,89,89,146,1,sixfive,,,,,,,,,,,,,,,,,,,,,,,,,,,,,,,,,,,,,,,,,,,,,,,,,,,,,,,,,,,,,,,,,,,,,,,,,,,,,,,,,,,,,,,,,,,,,,,,,,,,,,,,,,,,,,,,,,,,,,,,,,,,,,,,,,,,,,,,,
,,5ed8cf4782a6eb04ddf9962d,2024-02-19_05h55.08.240,kallum_motion_pilot,2023.2.2,Win32,10,5ed8cf4782a6eb04ddf9962d,65d2b6c8f2eece985d8e374c,65d2def2aaec44a00e5b80a2,0.0392,0.0392,0,90,90,54,1,fourtwo,,,,,,,,,,,,,,,,,,,,,,,,,,,,,,,,,,,,,,,,,,,,,,,,,,,,,,,,,,,,,,,,,,,,,,,,,,,,,,,,,,,,,,,,,,,,,,,,,,,,,,,,,,,,,,,,,,,,,,,,,,,,,,,,,,,,,,,,,
,,5ed8cf4782a6eb04ddf9962d,2024-02-19_05h55.08.240,kallum_motion_pilot,2023.2.2,Win32,10,5ed8cf4782a6eb04ddf9962d,65d2b6c8f2eece985d8e374c,65d2def2aaec44a00e5b80a2,0.0393,0.0393,0,91,91,56,1,onetwo,,,,,,,,,,,,,,,,,,,,,,,,,,,,,,,,,,,,,,,,,,,,,,,,,,,,,,,,,,,,,,,,,,,,,,,,,,,,,,,,,,,,,,,,,,,,,,,,,,,,,,,,,,,,,,,,,,,,,,,,,,,,,,,,,,,,,,,,,
,,5ed8cf4782a6eb04ddf9962d,2024-02-19_05h55.08.240,kallum_motion_pilot,2023.2.2,Win32,10,5ed8cf4782a6eb04ddf9962d,65d2b6c8f2eece985d8e374c,65d2def2aaec44a00e5b80a2,0.0394,0.0394,0,92,92,152,1,fivesix,,,,,,,,,,,,,,,,,,,,,,,,,,,,,,,,,,,,,,,,,,,,,,,,,,,,,,,,,,,,,,,,,,,,,,,,,,,,,,,,,,,,,,,,,,,,,,,,,,,,,,,,,,,,,,,,,,,,,,,,,,,,,,,,,,,,,,,,,
,,5ed8cf4782a6eb04ddf9962d,2024-02-19_05h55.08.240,kallum_motion_pilot,2023.2.2,Win32,10,5ed8cf4782a6eb04ddf9962d,65d2b6c8f2eece985d8e374c,65d2def2aaec44a00e5b80a2,0.0395,0.0396,0,93,93,39,1,fourthree,,,,,,,,,,,,,,,,,,,,,,,,,,,,,,,,,,,,,,,,,,,,,,,,,,,,,,,,,,,,,,,,,,,,,,,,,,,,,,,,,,,,,,,,,,,,,,,,,,,,,,,,,,,,,,,,,,,,,,,,,,,,,,,,,,,,,,,,,
,,5ed8cf4782a6eb04ddf9962d,2024-02-19_05h55.08.240,kallum_motion_pilot,2023.2.2,Win32,10,5ed8cf4782a6eb04ddf9962d,65d2b6c8f2eece985d8e374c,65d2def2aaec44a00e5b80a2,0.0397,0.0397,0,94,94,100,1,sevenfive,,,,,,,,,,,,,,,,,,,,,,,,,,,,,,,,,,,,,,,,,,,,,,,,,,,,,,,,,,,,,,,,,,,,,,,,,,,,,,,,,,,,,,,,,,,,,,,,,,,,,,,,,,,,,,,,,,,,,,,,,,,,,,,,,,,,,,,,,
,,5ed8cf4782a6eb04ddf9962d,2024-02-19_05h55.08.240,kallum_motion_pilot,2023.2.2,Win32,10,5ed8cf4782a6eb04ddf9962d,65d2b6c8f2eece985d8e374c,65d2def2aaec44a00e5b80a2,0.0398,0.0399,0,95,95,25,1,onethree,,,,,,,,,,,,,,,,,,,,,,,,,,,,,,,,,,,,,,,,,,,,,,,,,,,,,,,,,,,,,,,,,,,,,,,,,,,,,,,,,,,,,,,,,,,,,,,,,,,,,,,,,,,,,,,,,,,,,,,,,,,,,,,,,,,,,,,,,
,,5ed8cf4782a6eb04ddf9962d,2024-02-19_05h55.08.240,kallum_motion_pilot,2023.2.2,Win32,10,5ed8cf4782a6eb04ddf9962d,65d2b6c8f2eece985d8e374c,65d2def2aaec44a00e5b80a2,0.0399,0.0399,0,96,96,89,1,fiveseven,,,,,,,,,,,,,,,,,,,,,,,,,,,,,,,,,,,,,,,,,,,,,,,,,,,,,,,,,,,,,,,,,,,,,,,,,,,,,,,,,,,,,,,,,,,,,,,,,,,,,,,,,,,,,,,,,,,,,,,,,,,,,,,,,,,,,,,,,
,,5ed8cf4782a6eb04ddf9962d,2024-02-19_05h55.08.240,kallum_motion_pilot,2023.2.2,Win32,10,5ed8cf4782a6eb04ddf9962d,65d2b6c8f2eece985d8e374c,65d2def2aaec44a00e5b80a2,0.04,0.0401,0,97,97,70,1,fourtwo,,,,,,,,,,,,,,,,,,,,,,,,,,,,,,,,,,,,,,,,,,,,,,,,,,,,,,,,,,,,,,,,,,,,,,,,,,,,,,,,,,,,,,,,,,,,,,,,,,,,,,,,,,,,,,,,,,,,,,,,,,,,,,,,,,,,,,,,,
,,5ed8cf4782a6eb04ddf9962d,2024-02-19_05h55.08.240,kallum_motion_pilot,2023.2.2,Win32,10,5ed8cf4782a6eb04ddf9962d,65d2b6c8f2eece985d8e374c,65d2def2aaec44a00e5b80a2,0.0402,0.0402,0,98,98,49,1,onethree,,,,,,,,,,,,,,,,,,,,,,,,,,,,,,,,,,,,,,,,,,,,,,,,,,,,,,,,,,,,,,,,,,,,,,,,,,,,,,,,,,,,,,,,,,,,,,,,,,,,,,,,,,,,,,,,,,,,,,,,,,,,,,,,,,,,,,,,,
,,5ed8cf4782a6eb04ddf9962d,2024-02-19_05h55.08.240,kallum_motion_pilot,2023.2.2,Win32,10,5ed8cf4782a6eb04ddf9962d,65d2b6c8f2eece985d8e374c,65d2def2aaec44a00e5b80a2,0.0404,0.0404,0,99,99,117,1,seveneight,,,,,,,,,,,,,,,,,,,,,,,,,,,,,,,,,,,,,,,,,,,,,,,,,,,,,,,,,,,,,,,,,,,,,,,,,,,,,,,,,,,,,,,,,,,,,,,,,,,,,,,,,,,,,,,,,,,,,,,,,,,,,,,,,,,,,,,,,
,,5ed8cf4782a6eb04ddf9962d,2024-02-19_05h55.08.240,kallum_motion_pilot,2023.2.2,Win32,10,5ed8cf4782a6eb04ddf9962d,65d2b6c8f2eece985d8e374c,65d2def2aaec44a00e5b80a2,0.0405,0.0405,0,100,100,108,1,sevenfive,,,,,,,,,,,,,,,,,,,,,,,,,,,,,,,,,,,,,,,,,,,,,,,,,,,,,,,,,,,,,,,,,,,,,,,,,,,,,,,,,,,,,,,,,,,,,,,,,,,,,,,,,,,,,,,,,,,,,,,,,,,,,,,,,,,,,,,,,
,,5ed8cf4782a6eb04ddf9962d,2024-02-19_05h55.08.240,kallum_motion_pilot,2023.2.2,Win32,10,5ed8cf4782a6eb04ddf9962d,65d2b6c8f2eece985d8e374c,65d2def2aaec44a00e5b80a2,0.0406,0.0406,0,101,101,96,1,fivesix,,,,,,,,,,,,,,,,,,,,,,,,,,,,,,,,,,,,,,,,,,,,,,,,,,,,,,,,,,,,,,,,,,,,,,,,,,,,,,,,,,,,,,,,,,,,,,,,,,,,,,,,,,,,,,,,,,,,,,,,,,,,,,,,,,,,,,,,,
,,5ed8cf4782a6eb04ddf9962d,2024-02-19_05h55.08.240,kallum_motion_pilot,2023.2.2,Win32,10,5ed8cf4782a6eb04ddf9962d,65d2b6c8f2eece985d8e374c,65d2def2aaec44a00e5b80a2,0.0408,0.0408,0,102,102,105,1,fiveseven,,,,,,,,,,,,,,,,,,,,,,,,,,,,,,,,,,,,,,,,,,,,,,,,,,,,,,,,,,,,,,,,,,,,,,,,,,,,,,,,,,,,,,,,,,,,,,,,,,,,,,,,,,,,,,,,,,,,,,,,,,,,,,,,,,,,,,,,,
,,5ed8cf4782a6eb04ddf9962d,2024-02-19_05h55.08.240,kallum_motion_pilot,2023.2.2,Win32,10,5ed8cf4782a6eb04ddf9962d,65d2b6c8f2eece985d8e374c,65d2def2aaec44a00e5b80a2,0.0409,0.041,0,103,103,141,1,seveneight,,,,,,,,,,,,,,,,,,,,,,,,,,,,,,,,,,,,,,,,,,,,,,,,,,,,,,,,,,,,,,,,,,,,,,,,,,,,,,,,,,,,,,,,,,,,,,,,,,,,,,,,,,,,,,,,,,,,,,,,,,,,,,,,,,,,,,,,,
,,5ed8cf4782a6eb04ddf9962d,2024-02-19_05h55.08.240,kallum_motion_pilot,2023.2.2,Win32,10,5ed8cf4782a6eb04ddf9962d,65d2b6c8f2eece985d8e374c,65d2def2aaec44a00e5b80a2,0.0411,0.0411,0,104,104,64,1,onetwo,,,,,,,,,,,,,,,,,,,,,,,,,,,,,,,,,,,,,,,,,,,,,,,,,,,,,,,,,,,,,,,,,,,,,,,,,,,,,,,,,,,,,,,,,,,,,,,,,,,,,,,,,,,,,,,,,,,,,,,,,,,,,,,,,,,,,,,,,
,,5ed8cf4782a6eb04ddf9962d,2024-02-19_05h55.08.240,kallum_motion_pilot,2023.2.2,Win32,10,5ed8cf4782a6eb04ddf9962d,65d2b6c8f2eece985d8e374c,65d2def2aaec44a00e5b80a2,0.0412,0.0413,0,105,105,149,1,seveneight,,,,,,,,,,,,,,,,,,,,,,,,,,,,,,,,,,,,,,,,,,,,,,,,,,,,,,,,,,,,,,,,,,,,,,,,,,,,,,,,,,,,,,,,,,,,,,,,,,,,,,,,,,,,,,,,,,,,,,,,,,,,,,,,,,,,,,,,,
,,5ed8cf4782a6eb04ddf9962d,2024-02-19_05h55.08.240,kallum_motion_pilot,2023.2.2,Win32,10,5ed8cf4782a6eb04ddf9962d,65d2b6c8f2eece985d8e374c,65d2def2aaec44a00e5b80a2,0.0414,0.0414,0,106,106,78,1,fourtwo,,,,,,,,,,,,,,,,,,,,,,,,,,,,,,,,,,,,,,,,,,,,,,,,,,,,,,,,,,,,,,,,,,,,,,,,,,,,,,,,,,,,,,,,,,,,,,,,,,,,,,,,,,,,,,,,,,,,,,,,,,,,,,,,,,,,,,,,,
,,5ed8cf4782a6eb04ddf9962d,2024-02-19_05h55.08.240,kallum_motion_pilot,2023.2.2,Win32,10,5ed8cf4782a6eb04ddf9962d,65d2b6c8f2eece985d8e374c,65d2def2aaec44a00e5b80a2,0.0415,0.0416,0,107,107,6,1,fourtwo,,,,,,,,,,,,,,,,,,,,,,,,,,,,,,,,,,,,,,,,,,,,,,,,,,,,,,,,,,,,,,,,,,,,,,,,,,,,,,,,,,,,,,,,,,,,,,,,,,,,,,,,,,,,,,,,,,,,,,,,,,,,,,,,,,,,,,,,,
,,5ed8cf4782a6eb04ddf9962d,2024-02-19_05h55.08.240,kallum_motion_pilot,2023.2.2,Win32,10,5ed8cf4782a6eb04ddf9962d,65d2b6c8f2eece985d8e374c,65d2def2aaec44a00e5b80a2,0.0416,0.0417,0,108,108,102,1,eightsix,,,,,,,,,,,,,,,,,,,,,,,,,,,,,,,,,,,,,,,,,,,,,,,,,,,,,,,,,,,,,,,,,,,,,,,,,,,,,,,,,,,,,,,,,,,,,,,,,,,,,,,,,,,,,,,,,,,,,,,,,,,,,,,,,,,,,,,,,
,,5ed8cf4782a6eb04ddf9962d,2024-02-19_05h55.08.240,kallum_motion_pilot,2023.2.2,Win32,10,5ed8cf4782a6eb04ddf9962d,65d2b6c8f2eece985d8e374c,65d2def2aaec44a00e5b80a2,0.0417,0.0418,0,109,109,3,1,twofour,,,,,,,,,,,,,,,,,,,,,,,,,,,,,,,,,,,,,,,,,,,,,,,,,,,,,,,,,,,,,,,,,,,,,,,,,,,,,,,,,,,,,,,,,,,,,,,,,,,,,,,,,,,,,,,,,,,,,,,,,,,,,,,,,,,,,,,,,
,,5ed8cf4782a6eb04ddf9962d,2024-02-19_05h55.08.240,kallum_motion_pilot,2023.2.2,Win32,10,5ed8cf4782a6eb04ddf9962d,65d2b6c8f2eece985d8e374c,65d2def2aaec44a00e5b80a2,0.0419,0.042,0,110,110,53,1,threefour,,,,,,,,,,,,,,,,,,,,,,,,,,,,,,,,,,,,,,,,,,,,,,,,,,,,,,,,,,,,,,,,,,,,,,,,,,,,,,,,,,,,,,,,,,,,,,,,,,,,,,,,,,,,,,,,,,,,,,,,,,,,,,,,,,,,,,,,,
,,5ed8cf4782a6eb04ddf9962d,2024-02-19_05h55.08.240,kallum_motion_pilot,2023.2.2,Win32,10,5ed8cf4782a6eb04ddf9962d,65d2b6c8f2eece985d8e374c,65d2def2aaec44a00e5b80a2,0.042,0.0421,0,111,111,9,1,onethree,,,,,,,,,,,,,,,,,,,,,,,,,,,,,,,,,,,,,,,,,,,,,,,,,,,,,,,,,,,,,,,,,,,,,,,,,,,,,,,,,,,,,,,,,,,,,,,,,,,,,,,,,,,,,,,,,,,,,,,,,,,,,,,,,,,,,,,,,
,,5ed8cf4782a6eb04ddf9962d,2024-02-19_05h55.08.240,kallum_motion_pilot,2023.2.2,Win32,10,5ed8cf4782a6eb04ddf9962d,65d2b6c8f2eece985d8e374c,65d2def2aaec44a00e5b80a2,0.0422,0.0422,0,112,112,14,1,fourtwo,,,,,,,,,,,,,,,,,,,,,,,,,,,,,,,,,,,,,,,,,,,,,,,,,,,,,,,,,,,,,,,,,,,,,,,,,,,,,,,,,,,,,,,,,,,,,,,,,,,,,,,,,,,,,,,,,,,,,,,,,,,,,,,,,,,,,,,,,
,,5ed8cf4782a6eb04ddf9962d,2024-02-19_05h55.08.240,kallum_motion_pilot,2023.2.2,Win32,10,5ed8cf4782a6eb04ddf9962d,65d2b6c8f2eece985d8e374c,65d2def2aaec44a00e5b80a2,0.0423,0.0424,0,113,113,125,1,seveneight,,,,,,,,,,,,,,,,,,,,,,,,,,,,,,,,,,,,,,,,,,,,,,,,,,,,,,,,,,,,,,,,,,,,,,,,,,,,,,,,,,,,,,,,,,,,,,,,,,,,,,,,,,,,,,,,,,,,,,,,,,,,,,,,,,,,,,,,,
,,5ed8cf4782a6eb04ddf9962d,2024-02-19_05h55.08.240,kallum_motion_pilot,2023.2.2,Win32,10,5ed8cf4782a6eb04ddf9962d,65d2b6c8f2eece985d8e374c,65d2def2aaec44a00e5b80a2,0.0424,0.0425,0,114,114,88,1,fivesix,,,,,,,,,,,,,,,,,,,,,,,,,,,,,,,,,,,,,,,,,,,,,,,,,,,,,,,,,,,,,,,,,,,,,,,,,,,,,,,,,,,,,,,,,,,,,,,,,,,,,,,,,,,,,,,,,,,,,,,,,,,,,,,,,,,,,,,,,
,,5ed8cf4782a6eb04ddf9962d,2024-02-19_05h55.08.240,kallum_motion_pilot,2023.2.2,Win32,10,5ed8cf4782a6eb04ddf9962d,65d2b6c8f2eece985d8e374c,65d2def2aaec44a00e5b80a2,0.0425,0.0426,0,115,115,16,1,onetwo,,,,,,,,,,,,,,,,,,,,,,,,,,,,,,,,,,,,,,,,,,,,,,,,,,,,,,,,,,,,,,,,,,,,,,,,,,,,,,,,,,,,,,,,,,,,,,,,,,,,,,,,,,,,,,,,,,,,,,,,,,,,,,,,,,,,,,,,,
,,5ed8cf4782a6eb04ddf9962d,2024-02-19_05h55.08.240,kallum_motion_pilot,2023.2.2,Win32,10,5ed8cf4782a6eb04ddf9962d,65d2b6c8f2eece985d8e374c,65d2def2aaec44a00e5b80a2,0.0427,0.0428,0,116,116,143,1,eightseven,,,,,,,,,,,,,,,,,,,,,,,,,,,,,,,,,,,,,,,,,,,,,,,,,,,,,,,,,,,,,,,,,,,,,,,,,,,,,,,,,,,,,,,,,,,,,,,,,,,,,,,,,,,,,,,,,,,,,,,,,,,,,,,,,,,,,,,,,
,,5ed8cf4782a6eb04ddf9962d,2024-02-19_05h55.08.240,kallum_motion_pilot,2023.2.2,Win32,10,5ed8cf4782a6eb04ddf9962d,65d2b6c8f2eece985d8e374c,65d2def2aaec44a00e5b80a2,0.0428,0.0429,0,117,117,19,1,twofour,,,,,,,,,,,,,,,,,,,,,,,,,,,,,,,,,,,,,,,,,,,,,,,,,,,,,,,,,,,,,,,,,,,,,,,,,,,,,,,,,,,,,,,,,,,,,,,,,,,,,,,,,,,,,,,,,,,,,,,,,,,,,,,,,,,,,,,,,
,,5ed8cf4782a6eb04ddf9962d,2024-02-19_05h55.08.240,kallum_motion_pilot,2023.2.2,Win32,10,5ed8cf4782a6eb04ddf9962d,65d2b6c8f2eece985d8e374c,65d2def2aaec44a00e5b80a2,0.043,0.043,0,118,118,52,1,threeone,,,,,,,,,,,,,,,,,,,,,,,,,,,,,,,,,,,,,,,,,,,,,,,,,,,,,,,,,,,,,,,,,,,,,,,,,,,,,,,,,,,,,,,,,,,,,,,,,,,,,,,,,,,,,,,,,,,,,,,,,,,,,,,,,,,,,,,,,
,,5ed8cf4782a6eb04ddf9962d,2024-02-19_05h55.08.240,kallum_motion_pilot,2023.2.2,Win32,10,5ed8cf4782a6eb04ddf9962d,65d2b6c8f2eece985d8e374c,65d2def2aaec44a00e5b80a2,0.0431,0.0432,0,119,119,34,1,twoone,,,,,,,,,,,,,,,,,,,,,,,,,,,,,,,,,,,,,,,,,,,,,,,,,,,,,,,,,,,,,,,,,,,,,,,,,,,,,,,,,,,,,,,,,,,,,,,,,,,,,,,,,,,,,,,,,,,,,,,,,,,,,,,,,,,,,,,,,
,,5ed8cf4782a6eb04ddf9962d,2024-02-19_05h55.08.240,kallum_motion_pilot,2023.2.2,Win32,10,5ed8cf4782a6eb04ddf9962d,65d2b6c8f2eece985d8e374c,65d2def2aaec44a00e5b80a2,0.0433,0.0433,0,120,120,131,1,sixeight,,,,,,,,,,,,,,,,,,,,,,,,,,,,,,,,,,,,,,,,,,,,,,,,,,,,,,,,,,,,,,,,,,,,,,,,,,,,,,,,,,,,,,,,,,,,,,,,,,,,,,,,,,,,,,,,,,,,,,,,,,,,,,,,,,,,,,,,,
,,5ed8cf4782a6eb04ddf9962d,2024-02-19_05h55.08.240,kallum_motion_pilot,2023.2.2,Win32,10,5ed8cf4782a6eb04ddf9962d,65d2b6c8f2eece985d8e374c,65d2def2aaec44a00e5b80a2,0.0434,0.0435,0,121,121,128,1,fivesix,,,,,,,,,,,,,,,,,,,,,,,,,,,,,,,,,,,,,,,,,,,,,,,,,,,,,,,,,,,,,,,,,,,,,,,,,,,,,,,,,,,,,,,,,,,,,,,,,,,,,,,,,,,,,,,,,,,,,,,,,,,,,,,,,,,,,,,,,
,,5ed8cf4782a6eb04ddf9962d,2024-02-19_05h55.08.240,kallum_motion_pilot,2023.2.2,Win32,10,5ed8cf4782a6eb04ddf9962d,65d2b6c8f2eece985d8e374c,65d2def2aaec44a00e5b80a2,0.0436,0.0436,0,122,122,151,1,eightseven,,,,,,,,,,,,,,,,,,,,,,,,,,,,,,,,,,,,,,,,,,,,,,,,,,,,,,,,,,,,,,,,,,,,,,,,,,,,,,,,,,,,,,,,,,,,,,,,,,,,,,,,,,,,,,,,,,,,,,,,,,,,,,,,,,,,,,,,,
,,5ed8cf4782a6eb04ddf9962d,2024-02-19_05h55.08.240,kallum_motion_pilot,2023.2.2,Win32,10,5ed8cf4782a6eb04ddf9962d,65d2b6c8f2eece985d8e374c,65d2def2aaec44a00e5b80a2,0.0437,0.0437,0,123,123,134,1,eightsix,,,,,,,,,,,,,,,,,,,,,,,,,,,,,,,,,,,,,,,,,,,,,,,,,,,,,,,,,,,,,,,,,,,,,,,,,,,,,,,,,,,,,,,,,,,,,,,,,,,,,,,,,,,,,,,,,,,,,,,,,,,,,,,,,,,,,,,,,
,,5ed8cf4782a6eb04ddf9962d,2024-02-19_05h55.08.240,kallum_motion_pilot,2023.2.2,Win32,10,5ed8cf4782a6eb04ddf9962d,65d2b6c8f2eece985d8e374c,65d2def2aaec44a00e5b80a2,0.0438,0.0438,0,124,124,99,1,sixeight,,,,,,,,,,,,,,,,,,,,,,,,,,,,,,,,,,,,,,,,,,,,,,,,,,,,,,,,,,,,,,,,,,,,,,,,,,,,,,,,,,,,,,,,,,,,,,,,,,,,,,,,,,,,,,,,,,,,,,,,,,,,,,,,,,,,,,,,,
,,5ed8cf4782a6eb04ddf9962d,2024-02-19_05h55.08.240,kallum_motion_pilot,2023.2.2,Win32,10,5ed8cf4782a6eb04ddf9962d,65d2b6c8f2eece985d8e374c,65d2def2aaec44a00e5b80a2,0.044,0.044,0,125,125,45,1,threefour,,,,,,,,,,,,,,,,,,,,,,,,,,,,,,,,,,,,,,,,,,,,,,,,,,,,,,,,,,,,,,,,,,,,,,,,,,,,,,,,,,,,,,,,,,,,,,,,,,,,,,,,,,,,,,,,,,,,,,,,,,,,,,,,,,,,,,,,,
,,5ed8cf4782a6eb04ddf9962d,2024-02-19_05h55.08.240,kallum_motion_pilot,2023.2.2,Win32,10,5ed8cf4782a6eb04ddf9962d,65d2b6c8f2eece985d8e374c,65d2def2aaec44a00e5b80a2,0.0442,0.0442,0,126,126,58,1,twoone,,,,,,,,,,,,,,,,,,,,,,,,,,,,,,,,,,,,,,,,,,,,,,,,,,,,,,,,,,,,,,,,,,,,,,,,,,,,,,,,,,,,,,,,,,,,,,,,,,,,,,,,,,,,,,,,,,,,,,,,,,,,,,,,,,,,,,,,,
,,5ed8cf4782a6eb04ddf9962d,2024-02-19_05h55.08.240,kallum_motion_pilot,2023.2.2,Win32,10,5ed8cf4782a6eb04ddf9962d,65d2b6c8f2eece985d8e374c,65d2def2aaec44a00e5b80a2,0.0443,0.0444,0,127,127,11,1,twofour,,,,,,,,,,,,,,,,,,,,,,,,,,,,,,,,,,,,,,,,,,,,,,,,,,,,,,,,,,,,,,,,,,,,,,,,,,,,,,,,,,,,,,,,,,,,,,,,,,,,,,,,,,,,,,,,,,,,,,,,,,,,,,,,,,,,,,,,,
,,5ed8cf4782a6eb04ddf9962d,2024-02-19_05h55.08.240,kallum_motion_pilot,2023.2.2,Win32,10,5ed8cf4782a6eb04ddf9962d,65d2b6c8f2eece985d8e374c,65d2def2aaec44a00e5b80a2,0.0444,0.0445,0,128,128,42,1,twoone,,,,,,,,,,,,,,,,,,,,,,,,,,,,,,,,,,,,,,,,,,,,,,,,,,,,,,,,,,,,,,,,,,,,,,,,,,,,,,,,,,,,,,,,,,,,,,,,,,,,,,,,,,,,,,,,,,,,,,,,,,,,,,,,,,,,,,,,,
,,5ed8cf4782a6eb04ddf9962d,2024-02-19_05h55.08.240,kallum_motion_pilot,2023.2.2,Win32,10,5ed8cf4782a6eb04ddf9962d,65d2b6c8f2eece985d8e374c,65d2def2aaec44a00e5b80a2,0.0446,0.0446,0,129,129,50,1,twoone,,,,,,,,,,,,,,,,,,,,,,,,,,,,,,,,,,,,,,,,,,,,,,,,,,,,,,,,,,,,,,,,,,,,,,,,,,,,,,,,,,,,,,,,,,,,,,,,,,,,,,,,,,,,,,,,,,,,,,,,,,,,,,,,,,,,,,,,,
,,5ed8cf4782a6eb04ddf9962d,2024-02-19_05h55.08.240,kallum_motion_pilot,2023.2.2,Win32,10,5ed8cf4782a6eb04ddf9962d,65d2b6c8f2eece985d8e374c,65d2def2aaec44a00e5b80a2,0.0447,0.0448,0,130,130,87,1,eightseven,,,,,,,,,,,,,,,,,,,,,,,,,,,,,,,,,,,,,,,,,,,,,,,,,,,,,,,,,,,,,,,,,,,,,,,,,,,,,,,,,,,,,,,,,,,,,,,,,,,,,,,,,,,,,,,,,,,,,,,,,,,,,,,,,,,,,,,,,
,,5ed8cf4782a6eb04ddf9962d,2024-02-19_05h55.08.240,kallum_motion_pilot,2023.2.2,Win32,10,5ed8cf4782a6eb04ddf9962d,65d2b6c8f2eece985d8e374c,65d2def2aaec44a00e5b80a2,0.0449,0.045,0,131,131,8,1,onetwo,,,,,,,,,,,,,,,,,,,,,,,,,,,,,,,,,,,,,,,,,,,,,,,,,,,,,,,,,,,,,,,,,,,,,,,,,,,,,,,,,,,,,,,,,,,,,,,,,,,,,,,,,,,,,,,,,,,,,,,,,,,,,,,,,,,,,,,,,
,,5ed8cf4782a6eb04ddf9962d,2024-02-19_05h55.08.240,kallum_motion_pilot,2023.2.2,Win32,10,5ed8cf4782a6eb04ddf9962d,65d2b6c8f2eece985d8e374c,65d2def2aaec44a00e5b80a2,0.045,0.045,0,132,132,62,1,fourtwo,,,,,,,,,,,,,,,,,,,,,,,,,,,,,,,,,,,,,,,,,,,,,,,,,,,,,,,,,,,,,,,,,,,,,,,,,,,,,,,,,,,,,,,,,,,,,,,,,,,,,,,,,,,,,,,,,,,,,,,,,,,,,,,,,,,,,,,,,
,,5ed8cf4782a6eb04ddf9962d,2024-02-19_05h55.08.240,kallum_motion_pilot,2023.2.2,Win32,10,5ed8cf4782a6eb04ddf9962d,65d2b6c8f2eece985d8e374c,65d2def2aaec44a00e5b80a2,0.0452,0.0453,0,133,133,114,1,sixfive,,,,,,,,,,,,,,,,,,,,,,,,,,,,,,,,,,,,,,,,,,,,,,,,,,,,,,,,,,,,,,,,,,,,,,,,,,,,,,,,,,,,,,,,,,,,,,,,,,,,,,,,,,,,,,,,,,,,,,,,,,,,,,,,,,,,,,,,,
,,5ed8cf4782a6eb04ddf9962d,2024-02-19_05h55.08.240,kallum_motion_pilot,2023.2.2,Win32,10,5ed8cf4782a6eb04ddf9962d,65d2b6c8f2eece985d8e374c,65d2def2aaec44a00e5b80a2,0.0453,0.0453,0,134,134,90,1,sixfive,,,,,,,,,,,,,,,,,,,,,,,,,,,,,,,,,,,,,,,,,,,,,,,,,,,,,,,,,,,,,,,,,,,,,,,,,,,,,,,,,,,,,,,,,,,,,,,,,,,,,,,,,,,,,,,,,,,,,,,,,,,,,,,,,,,,,,,,,
,,5ed8cf4782a6eb04ddf9962d,2024-02-19_05h55.08.240,kallum_motion_pilot,2023.2.2,Win32,10,5ed8cf4782a6eb04ddf9962d,65d2b6c8f2eece985d8e374c,65d2def2aaec44a00e5b80a2,0.0455,0.0455,0,135,135,160,1,fivesix,,,,,,,,,,,,,,,,,,,,,,,,,,,,,,,,,,,,,,,,,,,,,,,,,,,,,,,,,,,,,,,,,,,,,,,,,,,,,,,,,,,,,,,,,,,,,,,,,,,,,,,,,,,,,,,,,,,,,,,,,,,,,,,,,,,,,,,,,
,,5ed8cf4782a6eb04ddf9962d,2024-02-19_05h55.08.240,kallum_motion_pilot,2023.2.2,Win32,10,5ed8cf4782a6eb04ddf9962d,65d2b6c8f2eece985d8e374c,65d2def2aaec44a00e5b80a2,0.0456,0.0456,0,136,136,38,1,fourtwo,,,,,,,,,,,,,,,,,,,,,,,,,,,,,,,,,,,,,,,,,,,,,,,,,,,,,,,,,,,,,,,,,,,,,,,,,,,,,,,,,,,,,,,,,,,,,,,,,,,,,,,,,,,,,,,,,,,,,,,,,,,,,,,,,,,,,,,,,
,,5ed8cf4782a6eb04ddf9962d,2024-02-19_05h55.08.240,kallum_motion_pilot,2023.2.2,Win32,10,5ed8cf4782a6eb04ddf9962d,65d2b6c8f2eece985d8e374c,65d2def2aaec44a00e5b80a2,0.0458,0.0458,0,137,137,111,1,eightseven,,,,,,,,,,,,,,,,,,,,,,,,,,,,,,,,,,,,,,,,,,,,,,,,,,,,,,,,,,,,,,,,,,,,,,,,,,,,,,,,,,,,,,,,,,,,,,,,,,,,,,,,,,,,,,,,,,,,,,,,,,,,,,,,,,,,,,,,,
,,5ed8cf4782a6eb04ddf9962d,2024-02-19_05h55.08.240,kallum_motion_pilot,2023.2.2,Win32,10,5ed8cf4782a6eb04ddf9962d,65d2b6c8f2eece985d8e374c,65d2def2aaec44a00e5b80a2,0.0458,0.0459,0,138,138,55,1,fourthree,,,,,,,,,,,,,,,,,,,,,,,,,,,,,,,,,,,,,,,,,,,,,,,,,,,,,,,,,,,,,,,,,,,,,,,,,,,,,,,,,,,,,,,,,,,,,,,,,,,,,,,,,,,,,,,,,,,,,,,,,,,,,,,,,,,,,,,,,
,,5ed8cf4782a6eb04ddf9962d,2024-02-19_05h55.08.240,kallum_motion_pilot,2023.2.2,Win32,10,5ed8cf4782a6eb04ddf9962d,65d2b6c8f2eece985d8e374c,65d2def2aaec44a00e5b80a2,0.046,0.046,0,139,139,79,1,eightseven,,,,,,,,,,,,,,,,,,,,,,,,,,,,,,,,,,,,,,,,,,,,,,,,,,,,,,,,,,,,,,,,,,,,,,,,,,,,,,,,,,,,,,,,,,,,,,,,,,,,,,,,,,,,,,,,,,,,,,,,,,,,,,,,,,,,,,,,,
,,5ed8cf4782a6eb04ddf9962d,2024-02-19_05h55.08.240,kallum_motion_pilot,2023.2.2,Win32,10,5ed8cf4782a6eb04ddf9962d,65d2b6c8f2eece985d8e374c,65d2def2aaec44a00e5b80a2,0.0462,0.0463,0,140,140,7,1,fourthree,,,,,,,,,,,,,,,,,,,,,,,,,,,,,,,,,,,,,,,,,,,,,,,,,,,,,,,,,,,,,,,,,,,,,,,,,,,,,,,,,,,,,,,,,,,,,,,,,,,,,,,,,,,,,,,,,,,,,,,,,,,,,,,,,,,,,,,,,
,,5ed8cf4782a6eb04ddf9962d,2024-02-19_05h55.08.240,kallum_motion_pilot,2023.2.2,Win32,10,5ed8cf4782a6eb04ddf9962d,65d2b6c8f2eece985d8e374c,65d2def2aaec44a00e5b80a2,0.0463,0.0463,0,141,141,121,1,fiveseven,,,,,,,,,,,,,,,,,,,,,,,,,,,,,,,,,,,,,,,,,,,,,,,,,,,,,,,,,,,,,,,,,,,,,,,,,,,,,,,,,,,,,,,,,,,,,,,,,,,,,,,,,,,,,,,,,,,,,,,,,,,,,,,,,,,,,,,,,
,,5ed8cf4782a6eb04ddf9962d,2024-02-19_05h55.08.240,kallum_motion_pilot,2023.2.2,Win32,10,5ed8cf4782a6eb04ddf9962d,65d2b6c8f2eece985d8e374c,65d2def2aaec44a00e5b80a2,0.0465,0.0465,0,142,142,153,1,fiveseven,,,,,,,,,,,,,,,,,,,,,,,,,,,,,,,,,,,,,,,,,,,,,,,,,,,,,,,,,,,,,,,,,,,,,,,,,,,,,,,,,,,,,,,,,,,,,,,,,,,,,,,,,,,,,,,,,,,,,,,,,,,,,,,,,,,,,,,,,
,,5ed8cf4782a6eb04ddf9962d,2024-02-19_05h55.08.240,kallum_motion_pilot,2023.2.2,Win32,10,5ed8cf4782a6eb04ddf9962d,65d2b6c8f2eece985d8e374c,65d2def2aaec44a00e5b80a2,0.0466,0.0467,0,143,143,5,1,threefour,,,,,,,,,,,,,,,,,,,,,,,,,,,,,,,,,,,,,,,,,,,,,,,,,,,,,,,,,,,,,,,,,,,,,,,,,,,,,,,,,,,,,,,,,,,,,,,,,,,,,,,,,,,,,,,,,,,,,,,,,,,,,,,,,,,,,,,,,
,,5ed8cf4782a6eb04ddf9962d,2024-02-19_05h55.08.240,kallum_motion_pilot,2023.2.2,Win32,10,5ed8cf4782a6eb04ddf9962d,65d2b6c8f2eece985d8e374c,65d2def2aaec44a00e5b80a2,0.0468,0.0468,0,144,144,136,1,fivesix,,,,,,,,,,,,,,,,,,,,,,,,,,,,,,,,,,,,,,,,,,,,,,,,,,,,,,,,,,,,,,,,,,,,,,,,,,,,,,,,,,,,,,,,,,,,,,,,,,,,,,,,,,,,,,,,,,,,,,,,,,,,,,,,,,,,,,,,,
,,5ed8cf4782a6eb04ddf9962d,2024-02-19_05h55.08.240,kallum_motion_pilot,2023.2.2,Win32,10,5ed8cf4782a6eb04ddf9962d,65d2b6c8f2eece985d8e374c,65d2def2aaec44a00e5b80a2,0.0469,0.047,0,145,145,75,1,twofour,,,,,,,,,,,,,,,,,,,,,,,,,,,,,,,,,,,,,,,,,,,,,,,,,,,,,,,,,,,,,,,,,,,,,,,,,,,,,,,,,,,,,,,,,,,,,,,,,,,,,,,,,,,,,,,,,,,,,,,,,,,,,,,,,,,,,,,,,
,,5ed8cf4782a6eb04ddf9962d,2024-02-19_05h55.08.240,kallum_motion_pilot,2023.2.2,Win32,10,5ed8cf4782a6eb04ddf9962d,65d2b6c8f2eece985d8e374c,65d2def2aaec44a00e5b80a2,0.0471,0.0471,0,146,146,26,1,twoone,,,,,,,,,,,,,,,,,,,,,,,,,,,,,,,,,,,,,,,,,,,,,,,,,,,,,,,,,,,,,,,,,,,,,,,,,,,,,,,,,,,,,,,,,,,,,,,,,,,,,,,,,,,,,,,,,,,,,,,,,,,,,,,,,,,,,,,,,
,,5ed8cf4782a6eb04ddf9962d,2024-02-19_05h55.08.240,kallum_motion_pilot,2023.2.2,Win32,10,5ed8cf4782a6eb04ddf9962d,65d2b6c8f2eece985d8e374c,65d2def2aaec44a00e5b80a2,0.0472,0.0473,0,147,147,41,1,onethree,,,,,,,,,,,,,,,,,,,,,,,,,,,,,,,,,,,,,,,,,,,,,,,,,,,,,,,,,,,,,,,,,,,,,,,,,,,,,,,,,,,,,,,,,,,,,,,,,,,,,,,,,,,,,,,,,,,,,,,,,,,,,,,,,,,,,,,,,
,,5ed8cf4782a6eb04ddf9962d,2024-02-19_05h55.08.240,kallum_motion_pilot,2023.2.2,Win32,10,5ed8cf4782a6eb04ddf9962d,65d2b6c8f2eece985d8e374c,65d2def2aaec44a00e5b80a2,0.0473,0.0474,0,148,148,48,1,onetwo,,,,,,,,,,,,,,,,,,,,,,,,,,,,,,,,,,,,,,,,,,,,,,,,,,,,,,,,,,,,,,,,,,,,,,,,,,,,,,,,,,,,,,,,,,,,,,,,,,,,,,,,,,,,,,,,,,,,,,,,,,,,,,,,,,,,,,,,,
,,5ed8cf4782a6eb04ddf9962d,2024-02-19_05h55.08.240,kallum_motion_pilot,2023.2.2,Win32,10,5ed8cf4782a6eb04ddf9962d,65d2b6c8f2eece985d8e374c,65d2def2aaec44a00e5b80a2,0.0476,0.0476,0,149,149,101,1,seveneight,,,,,,,,,,,,,,,,,,,,,,,,,,,,,,,,,,,,,,,,,,,,,,,,,,,,,,,,,,,,,,,,,,,,,,,,,,,,,,,,,,,,,,,,,,,,,,,,,,,,,,,,,,,,,,,,,,,,,,,,,,,,,,,,,,,,,,,,,
,,5ed8cf4782a6eb04ddf9962d,2024-02-19_05h55.08.240,kallum_motion_pilot,2023.2.2,Win32,10,5ed8cf4782a6eb04ddf9962d,65d2b6c8f2eece985d8e374c,65d2def2aaec44a00e5b80a2,0.0477,0.0478,0,150,150,51,1,twofour,,,,,,,,,,,,,,,,,,,,,,,,,,,,,,,,,,,,,,,,,,,,,,,,,,,,,,,,,,,,,,,,,,,,,,,,,,,,,,,,,,,,,,,,,,,,,,,,,,,,,,,,,,,,,,,,,,,,,,,,,,,,,,,,,,,,,,,,,
,,5ed8cf4782a6eb04ddf9962d,2024-02-19_05h55.08.240,kallum_motion_pilot,2023.2.2,Win32,10,5ed8cf4782a6eb04ddf9962d,65d2b6c8f2eece985d8e374c,65d2def2aaec44a00e5b80a2,0.048,0.048,0,151,151,157,1,seveneight,,,,,,,,,,,,,,,,,,,,,,,,,,,,,,,,,,,,,,,,,,,,,,,,,,,,,,,,,,,,,,,,,,,,,,,,,,,,,,,,,,,,,,,,,,,,,,,,,,,,,,,,,,,,,,,,,,,,,,,,,,,,,,,,,,,,,,,,,
,,5ed8cf4782a6eb04ddf9962d,2024-02-19_05h55.08.240,kallum_motion_pilot,2023.2.2,Win32,10,5ed8cf4782a6eb04ddf9962d,65d2b6c8f2eece985d8e374c,65d2def2aaec44a00e5b80a2,0.0481,0.0481,0,152,152,36,1,threeone,,,,,,,,,,,,,,,,,,,,,,,,,,,,,,,,,,,,,,,,,,,,,,,,,,,,,,,,,,,,,,,,,,,,,,,,,,,,,,,,,,,,,,,,,,,,,,,,,,,,,,,,,,,,,,,,,,,,,,,,,,,,,,,,,,,,,,,,,
,,5ed8cf4782a6eb04ddf9962d,2024-02-19_05h55.08.240,kallum_motion_pilot,2023.2.2,Win32,10,5ed8cf4782a6eb04ddf9962d,65d2b6c8f2eece985d8e374c,65d2def2aaec44a00e5b80a2,0.0483,0.0484,0,153,153,132,1,sevenfive,,,,,,,,,,,,,,,,,,,,,,,,,,,,,,,,,,,,,,,,,,,,,,,,,,,,,,,,,,,,,,,,,,,,,,,,,,,,,,,,,,,,,,,,,,,,,,,,,,,,,,,,,,,,,,,,,,,,,,,,,,,,,,,,,,,,,,,,,
,,5ed8cf4782a6eb04ddf9962d,2024-02-19_05h55.08.240,kallum_motion_pilot,2023.2.2,Win32,10,5ed8cf4782a6eb04ddf9962d,65d2b6c8f2eece985d8e374c,65d2def2aaec44a00e5b80a2,0.0491,0.0491,0,154,154,30,1,fourtwo,,,,,,,,,,,,,,,,,,,,,,,,,,,,,,,,,,,,,,,,,,,,,,,,,,,,,,,,,,,,,,,,,,,,,,,,,,,,,,,,,,,,,,,,,,,,,,,,,,,,,,,,,,,,,,,,,,,,,,,,,,,,,,,,,,,,,,,,,
,,5ed8cf4782a6eb04ddf9962d,2024-02-19_05h55.08.240,kallum_motion_pilot,2023.2.2,Win32,10,5ed8cf4782a6eb04ddf9962d,65d2b6c8f2eece985d8e374c,65d2def2aaec44a00e5b80a2,0.0492,0.0492,0,155,155,122,1,sixfive,,,,,,,,,,,,,,,,,,,,,,,,,,,,,,,,,,,,,,,,,,,,,,,,,,,,,,,,,,,,,,,,,,,,,,,,,,,,,,,,,,,,,,,,,,,,,,,,,,,,,,,,,,,,,,,,,,,,,,,,,,,,,,,,,,,,,,,,,
,,5ed8cf4782a6eb04ddf9962d,2024-02-19_05h55.08.240,kallum_motion_pilot,2023.2.2,Win32,10,5ed8cf4782a6eb04ddf9962d,65d2b6c8f2eece985d8e374c,65d2def2aaec44a00e5b80a2,0.0493,0.0494,0,156,156,69,1,threefour,,,,,,,,,,,,,,,,,,,,,,,,,,,,,,,,,,,,,,,,,,,,,,,,,,,,,,,,,,,,,,,,,,,,,,,,,,,,,,,,,,,,,,,,,,,,,,,,,,,,,,,,,,,,,,,,,,,,,,,,,,,,,,,,,,,,,,,,,
,,5ed8cf4782a6eb04ddf9962d,2024-02-19_05h55.08.240,kallum_motion_pilot,2023.2.2,Win32,10,5ed8cf4782a6eb04ddf9962d,65d2b6c8f2eece985d8e374c,65d2def2aaec44a00e5b80a2,0.0496,0.0496,0,157,157,32,1,onetwo,,,,,,,,,,,,,,,,,,,,,,,,,,,,,,,,,,,,,,,,,,,,,,,,,,,,,,,,,,,,,,,,,,,,,,,,,,,,,,,,,,,,,,,,,,,,,,,,,,,,,,,,,,,,,,,,,,,,,,,,,,,,,,,,,,,,,,,,,
,,5ed8cf4782a6eb04ddf9962d,2024-02-19_05h55.08.240,kallum_motion_pilot,2023.2.2,Win32,10,5ed8cf4782a6eb04ddf9962d,65d2b6c8f2eece985d8e374c,65d2def2aaec44a00e5b80a2,0.0497,0.0498,0,158,158,154,1,sixfive,,,,,,,,,,,,,,,,,,,,,,,,,,,,,,,,,,,,,,,,,,,,,,,,,,,,,,,,,,,,,,,,,,,,,,,,,,,,,,,,,,,,,,,,,,,,,,,,,,,,,,,,,,,,,,,,,,,,,,,,,,,,,,,,,,,,,,,,,
,,5ed8cf4782a6eb04ddf9962d,2024-02-19_05h55.08.240,kallum_motion_pilot,2023.2.2,Win32,10,5ed8cf4782a6eb04ddf9962d,65d2b6c8f2eece985d8e374c,65d2def2aaec44a00e5b80a2,0.0498,0.0499,0,159,159,61,1,threefour,,,,,,,,,,,,,,,,,,,,,,,,,,,,,,,,,,,,,,,,,,,,,,,,,,,,,,,,,,,,,,,,,,,,,,,,,,,,,,,,,,,,,,,,,,,,,,,,,,,,,,,,,,,,,,,,,,,,,,,,,,,,,,,,,,,,,,,,,
,,5ed8cf4782a6eb04ddf9962d,2024-02-19_05h55.08.240,kallum_motion_pilot,2023.2.2,Win32,10,5ed8cf4782a6eb04ddf9962d,65d2b6c8f2eece985d8e374c,65d2def2aaec44a00e5b80a2,0.05,0.0501,0,160,160,93,1,seveneight,,,,,,,,,,,,,,,,,,,,,,,,,,,,,,,,,,,,,,,,,,,,,,,,,,,,,,,,,,,,,,,,,,,,,,,,,,,,,,,,,,,,,,,,,,,,,,,,,,,,,,,,,,,,,,,,,,,,,,,,,,,,,,,,,,,,,,,,,
,,5ed8cf4782a6eb04ddf9962d,2024-02-19_05h55.08.240,kallum_motion_pilot,2023.2.2,Win32,10,5ed8cf4782a6eb04ddf9962d,65d2b6c8f2eece985d8e374c,65d2def2aaec44a00e5b80a2,0.0501,0.0503,0,161,161,94,1,eightsix,,,,,,,,,,,,,,,,,,,,,,,,,,,,,,,,,,,,,,,,,,,,,,,,,,,,,,,,,,,,,,,,,,,,,,,,,,,,,,,,,,,,,,,,,,,,,,,,,,,,,,,,,,,,,,,,,,,,,,,,,,,,,,,,,,,,,,,,,
,,5ed8cf4782a6eb04ddf9962d,2024-02-19_05h55.08.240,kallum_motion_pilot,2023.2.2,Win32,10,5ed8cf4782a6eb04ddf9962d,65d2b6c8f2eece985d8e374c,65d2def2aaec44a00e5b80a2,0.0503,0.0504,1,0,162,161,1,fiveseven,,,,,,,,,,,,,,,,,,,,,,,,,,,,,,,,,,,,,,,,,,,,,,,,,,,,,,,,,,,,,,,,,,,,,,,,,,,,,,,,,,,,,,,,,,,,,,,,,,,,,,,,,,,,,,,,,,,,,,,,,,,,,,,,,,,,,,,,,
,,5ed8cf4782a6eb04ddf9962d,2024-02-19_05h55.08.240,kallum_motion_pilot,2023.2.2,Win32,10,5ed8cf4782a6eb04ddf9962d,65d2b6c8f2eece985d8e374c,65d2def2aaec44a00e5b80a2,0.0504,0.0505,1,1,163,151,1,eightseven,,,,,,,,,,,,,,,,,,,,,,,,,,,,,,,,,,,,,,,,,,,,,,,,,,,,,,,,,,,,,,,,,,,,,,,,,,,,,,,,,,,,,,,,,,,,,,,,,,,,,,,,,,,,,,,,,,,,,,,,,,,,,,,,,,,,,,,,,
,,5ed8cf4782a6eb04ddf9962d,2024-02-19_05h55.08.240,kallum_motion_pilot,2023.2.2,Win32,10,5ed8cf4782a6eb04ddf9962d,65d2b6c8f2eece985d8e374c,65d2def2aaec44a00e5b80a2,0.0506,0.0507,1,2,164,37,1,threefour,,,,,,,,,,,,,,,,,,,,,,,,,,,,,,,,,,,,,,,,,,,,,,,,,,,,,,,,,,,,,,,,,,,,,,,,,,,,,,,,,,,,,,,,,,,,,,,,,,,,,,,,,,,,,,,,,,,,,,,,,,,,,,,,,,,,,,,,,
,,5ed8cf4782a6eb04ddf9962d,2024-02-19_05h55.08.240,kallum_motion_pilot,2023.2.2,Win32,10,5ed8cf4782a6eb04ddf9962d,65d2b6c8f2eece985d8e374c,65d2def2aaec44a00e5b80a2,0.0508,0.0508,1,3,165,120,1,fivesix,,,,,,,,,,,,,,,,,,,,,,,,,,,,,,,,,,,,,,,,,,,,,,,,,,,,,,,,,,,,,,,,,,,,,,,,,,,,,,,,,,,,,,,,,,,,,,,,,,,,,,,,,,,,,,,,,,,,,,,,,,,,,,,,,,,,,,,,,
,,5ed8cf4782a6eb04ddf9962d,2024-02-19_05h55.08.240,kallum_motion_pilot,2023.2.2,Win32,10,5ed8cf4782a6eb04ddf9962d,65d2b6c8f2eece985d8e374c,65d2def2aaec44a00e5b80a2,0.051,0.051,1,4,166,123,1,sixeight,,,,,,,,,,,,,,,,,,,,,,,,,,,,,,,,,,,,,,,,,,,,,,,,,,,,,,,,,,,,,,,,,,,,,,,,,,,,,,,,,,,,,,,,,,,,,,,,,,,,,,,,,,,,,,,,,,,,,,,,,,,,,,,,,,,,,,,,,
,,5ed8cf4782a6eb04ddf9962d,2024-02-19_05h55.08.240,kallum_motion_pilot,2023.2.2,Win32,10,5ed8cf4782a6eb04ddf9962d,65d2b6c8f2eece985d8e374c,65d2def2aaec44a00e5b80a2,0.0511,0.0512,1,5,167,145,1,fiveseven,,,,,,,,,,,,,,,,,,,,,,,,,,,,,,,,,,,,,,,,,,,,,,,,,,,,,,,,,,,,,,,,,,,,,,,,,,,,,,,,,,,,,,,,,,,,,,,,,,,,,,,,,,,,,,,,,,,,,,,,,,,,,,,,,,,,,,,,,
,,5ed8cf4782a6eb04ddf9962d,2024-02-19_05h55.08.240,kallum_motion_pilot,2023.2.2,Win32,10,5ed8cf4782a6eb04ddf9962d,65d2b6c8f2eece985d8e374c,65d2def2aaec44a00e5b80a2,0.0512,0.0513,1,6,168,64,1,onetwo,,,,,,,,,,,,,,,,,,,,,,,,,,,,,,,,,,,,,,,,,,,,,,,,,,,,,,,,,,,,,,,,,,,,,,,,,,,,,,,,,,,,,,,,,,,,,,,,,,,,,,,,,,,,,,,,,,,,,,,,,,,,,,,,,,,,,,,,,
,,5ed8cf4782a6eb04ddf9962d,2024-02-19_05h55.08.240,kallum_motion_pilot,2023.2.2,Win32,10,5ed8cf4782a6eb04ddf9962d,65d2b6c8f2eece985d8e374c,65d2def2aaec44a00e5b80a2,0.0514,0.0514,1,7,169,154,1,sixfive,,,,,,,,,,,,,,,,,,,,,,,,,,,,,,,,,,,,,,,,,,,,,,,,,,,,,,,,,,,,,,,,,,,,,,,,,,,,,,,,,,,,,,,,,,,,,,,,,,,,,,,,,,,,,,,,,,,,,,,,,,,,,,,,,,,,,,,,,
,,5ed8cf4782a6eb04ddf9962d,2024-02-19_05h55.08.240,kallum_motion_pilot,2023.2.2,Win32,10,5ed8cf4782a6eb04ddf9962d,65d2b6c8f2eece985d8e374c,65d2def2aaec44a00e5b80a2,0.0515,0.0516,1,8,170,77,1,threefour,,,,,,,,,,,,,,,,,,,,,,,,,,,,,,,,,,,,,,,,,,,,,,,,,,,,,,,,,,,,,,,,,,,,,,,,,,,,,,,,,,,,,,,,,,,,,,,,,,,,,,,,,,,,,,,,,,,,,,,,,,,,,,,,,,,,,,,,,
,,5ed8cf4782a6eb04ddf9962d,2024-02-19_05h55.08.240,kallum_motion_pilot,2023.2.2,Win32,10,5ed8cf4782a6eb04ddf9962d,65d2b6c8f2eece985d8e374c,65d2def2aaec44a00e5b80a2,0.0517,0.0517,1,9,171,72,1,onetwo,,,,,,,,,,,,,,,,,,,,,,,,,,,,,,,,,,,,,,,,,,,,,,,,,,,,,,,,,,,,,,,,,,,,,,,,,,,,,,,,,,,,,,,,,,,,,,,,,,,,,,,,,,,,,,,,,,,,,,,,,,,,,,,,,,,,,,,,,
,,5ed8cf4782a6eb04ddf9962d,2024-02-19_05h55.08.240,kallum_motion_pilot,2023.2.2,Win32,10,5ed8cf4782a6eb04ddf9962d,65d2b6c8f2eece985d8e374c,65d2def2aaec44a00e5b80a2,0.0518,0.0519,1,10,172,15,1,fourthree,,,,,,,,,,,,,,,,,,,,,,,,,,,,,,,,,,,,,,,,,,,,,,,,,,,,,,,,,,,,,,,,,,,,,,,,,,,,,,,,,,,,,,,,,,,,,,,,,,,,,,,,,,,,,,,,,,,,,,,,,,,,,,,,,,,,,,,,,
,,5ed8cf4782a6eb04ddf9962d,2024-02-19_05h55.08.240,kallum_motion_pilot,2023.2.2,Win32,10,5ed8cf4782a6eb04ddf9962d,65d2b6c8f2eece985d8e374c,65d2def2aaec44a00e5b80a2,0.0519,0.0521,1,11,173,81,1,fiveseven,,,,,,,,,,,,,,,,,,,,,,,,,,,,,,,,,,,,,,,,,,,,,,,,,,,,,,,,,,,,,,,,,,,,,,,,,,,,,,,,,,,,,,,,,,,,,,,,,,,,,,,,,,,,,,,,,,,,,,,,,,,,,,,,,,,,,,,,,
,,5ed8cf4782a6eb04ddf9962d,2024-02-19_05h55.08.240,kallum_motion_pilot,2023.2.2,Win32,10,5ed8cf4782a6eb04ddf9962d,65d2b6c8f2eece985d8e374c,65d2def2aaec44a00e5b80a2,0.0522,0.0522,1,12,174,10,1,twoone,,,,,,,,,,,,,,,,,,,,,,,,,,,,,,,,,,,,,,,,,,,,,,,,,,,,,,,,,,,,,,,,,,,,,,,,,,,,,,,,,,,,,,,,,,,,,,,,,,,,,,,,,,,,,,,,,,,,,,,,,,,,,,,,,,,,,,,,,
,,5ed8cf4782a6eb04ddf9962d,2024-02-19_05h55.08.240,kallum_motion_pilot,2023.2.2,Win32,10,5ed8cf4782a6eb04ddf9962d,65d2b6c8f2eece985d8e374c,65d2def2aaec44a00e5b80a2,0.0523,0.0524,1,13,175,40,1,onetwo,,,,,,,,,,,,,,,,,,,,,,,,,,,,,,,,,,,,,,,,,,,,,,,,,,,,,,,,,,,,,,,,,,,,,,,,,,,,,,,,,,,,,,,,,,,,,,,,,,,,,,,,,,,,,,,,,,,,,,,,,,,,,,,,,,,,,,,,,
,,5ed8cf4782a6eb04ddf9962d,2024-02-19_05h55.08.240,kallum_motion_pilot,2023.2.2,Win32,10,5ed8cf4782a6eb04ddf9962d,65d2b6c8f2eece985d8e374c,65d2def2aaec44a00e5b80a2,0.0524,0.0525,1,14,176,97,1,fiveseven,,,,,,,,,,,,,,,,,,,,,,,,,,,,,,,,,,,,,,,,,,,,,,,,,,,,,,,,,,,,,,,,,,,,,,,,,,,,,,,,,,,,,,,,,,,,,,,,,,,,,,,,,,,,,,,,,,,,,,,,,,,,,,,,,,,,,,,,,
,,5ed8cf4782a6eb04ddf9962d,2024-02-19_05h55.08.240,kallum_motion_pilot,2023.2.2,Win32,10,5ed8cf4782a6eb04ddf9962d,65d2b6c8f2eece985d8e374c,65d2def2aaec44a00e5b80a2,0.0526,0.0527,1,15,177,100,1,sevenfive,,,,,,,,,,,,,,,,,,,,,,,,,,,,,,,,,,,,,,,,,,,,,,,,,,,,,,,,,,,,,,,,,,,,,,,,,,,,,,,,,,,,,,,,,,,,,,,,,,,,,,,,,,,,,,,,,,,,,,,,,,,,,,,,,,,,,,,,,
,,5ed8cf4782a6eb04ddf9962d,2024-02-19_05h55.08.240,kallum_motion_pilot,2023.2.2,Win32,10,5ed8cf4782a6eb04ddf9962d,65d2b6c8f2eece985d8e374c,65d2def2aaec44a00e5b80a2,0.0528,0.0528,1,16,178,153,1,fiveseven,,,,,,,,,,,,,,,,,,,,,,,,,,,,,,,,,,,,,,,,,,,,,,,,,,,,,,,,,,,,,,,,,,,,,,,,,,,,,,,,,,,,,,,,,,,,,,,,,,,,,,,,,,,,,,,,,,,,,,,,,,,,,,,,,,,,,,,,,
,,5ed8cf4782a6eb04ddf9962d,2024-02-19_05h55.08.240,kallum_motion_pilot,2023.2.2,Win32,10,5ed8cf4782a6eb04ddf9962d,65d2b6c8f2eece985d8e374c,65d2def2aaec44a00e5b80a2,0.053,0.053,1,17,179,104,1,fivesix,,,,,,,,,,,,,,,,,,,,,,,,,,,,,,,,,,,,,,,,,,,,,,,,,,,,,,,,,,,,,,,,,,,,,,,,,,,,,,,,,,,,,,,,,,,,,,,,,,,,,,,,,,,,,,,,,,,,,,,,,,,,,,,,,,,,,,,,,
,,5ed8cf4782a6eb04ddf9962d,2024-02-19_05h55.08.240,kallum_motion_pilot,2023.2.2,Win32,10,5ed8cf4782a6eb04ddf9962d,65d2b6c8f2eece985d8e374c,65d2def2aaec44a00e5b80a2,0.0531,0.0532,1,18,180,110,1,eightsix,,,,,,,,,,,,,,,,,,,,,,,,,,,,,,,,,,,,,,,,,,,,,,,,,,,,,,,,,,,,,,,,,,,,,,,,,,,,,,,,,,,,,,,,,,,,,,,,,,,,,,,,,,,,,,,,,,,,,,,,,,,,,,,,,,,,,,,,,
,,5ed8cf4782a6eb04ddf9962d,2024-02-19_05h55.08.240,kallum_motion_pilot,2023.2.2,Win32,10,5ed8cf4782a6eb04ddf9962d,65d2b6c8f2eece985d8e374c,65d2def2aaec44a00e5b80a2,0.0533,0.0533,1,19,181,142,1,eightsix,,,,,,,,,,,,,,,,,,,,,,,,,,,,,,,,,,,,,,,,,,,,,,,,,,,,,,,,,,,,,,,,,,,,,,,,,,,,,,,,,,,,,,,,,,,,,,,,,,,,,,,,,,,,,,,,,,,,,,,,,,,,,,,,,,,,,,,,,
,,5ed8cf4782a6eb04ddf9962d,2024-02-19_05h55.08.240,kallum_motion_pilot,2023.2.2,Win32,10,5ed8cf4782a6eb04ddf9962d,65d2b6c8f2eece985d8e374c,65d2def2aaec44a00e5b80a2,0.0534,0.0534,1,20,182,12,1,threeone,,,,,,,,,,,,,,,,,,,,,,,,,,,,,,,,,,,,,,,,,,,,,,,,,,,,,,,,,,,,,,,,,,,,,,,,,,,,,,,,,,,,,,,,,,,,,,,,,,,,,,,,,,,,,,,,,,,,,,,,,,,,,,,,,,,,,,,,,
,,5ed8cf4782a6eb04ddf9962d,2024-02-19_05h55.08.240,kallum_motion_pilot,2023.2.2,Win32,10,5ed8cf4782a6eb04ddf9962d,65d2b6c8f2eece985d8e374c,65d2def2aaec44a00e5b80a2,0.0535,0.0535,1,21,183,32,1,onetwo,,,,,,,,,,,,,,,,,,,,,,,,,,,,,,,,,,,,,,,,,,,,,,,,,,,,,,,,,,,,,,,,,,,,,,,,,,,,,,,,,,,,,,,,,,,,,,,,,,,,,,,,,,,,,,,,,,,,,,,,,,,,,,,,,,,,,,,,,
,,5ed8cf4782a6eb04ddf9962d,2024-02-19_05h55.08.240,kallum_motion_pilot,2023.2.2,Win32,10,5ed8cf4782a6eb04ddf9962d,65d2b6c8f2eece985d8e374c,65d2def2aaec44a00e5b80a2,0.0537,0.0538,1,22,184,58,1,twoone,,,,,,,,,,,,,,,,,,,,,,,,,,,,,,,,,,,,,,,,,,,,,,,,,,,,,,,,,,,,,,,,,,,,,,,,,,,,,,,,,,,,,,,,,,,,,,,,,,,,,,,,,,,,,,,,,,,,,,,,,,,,,,,,,,,,,,,,,
,,5ed8cf4782a6eb04ddf9962d,2024-02-19_05h55.08.240,kallum_motion_pilot,2023.2.2,Win32,10,5ed8cf4782a6eb04ddf9962d,65d2b6c8f2eece985d8e374c,65d2def2aaec44a00e5b80a2,0.0538,0.0539,1,23,185,33,1,onethree,,,,,,,,,,,,,,,,,,,,,,,,,,,,,,,,,,,,,,,,,,,,,,,,,,,,,,,,,,,,,,,,,,,,,,,,,,,,,,,,,,,,,,,,,,,,,,,,,,,,,,,,,,,,,,,,,,,,,,,,,,,,,,,,,,,,,,,,,
,,5ed8cf4782a6eb04ddf9962d,2024-02-19_05h55.08.240,kallum_motion_pilot,2023.2.2,Win32,10,5ed8cf4782a6eb04ddf9962d,65d2b6c8f2eece985d8e374c,65d2def2aaec44a00e5b80a2,0.054,0.0541,1,24,186,68,1,threeone,,,,,,,,,,,,,,,,,,,,,,,,,,,,,,,,,,,,,,,,,,,,,,,,,,,,,,,,,,,,,,,,,,,,,,,,,,,,,,,,,,,,,,,,,,,,,,,,,,,,,,,,,,,,,,,,,,,,,,,,,,,,,,,,,,,,,,,,,
,,5ed8cf4782a6eb04ddf9962d,2024-02-19_05h55.08.240,kallum_motion_pilot,2023.2.2,Win32,10,5ed8cf4782a6eb04ddf9962d,65d2b6c8f2eece985d8e374c,65d2def2aaec44a00e5b80a2,0.0541,0.0542,1,25,187,67,1,twofour,,,,,,,,,,,,,,,,,,,,,,,,,,,,,,,,,,,,,,,,,,,,,,,,,,,,,,,,,,,,,,,,,,,,,,,,,,,,,,,,,,,,,,,,,,,,,,,,,,,,,,,,,,,,,,,,,,,,,,,,,,,,,,,,,,,,,,,,,
,,5ed8cf4782a6eb04ddf9962d,2024-02-19_05h55.08.240,kallum_motion_pilot,2023.2.2,Win32,10,5ed8cf4782a6eb04ddf9962d,65d2b6c8f2eece985d8e374c,65d2def2aaec44a00e5b80a2,0.0543,0.0544,1,26,188,79,1,eightseven,,,,,,,,,,,,,,,,,,,,,,,,,,,,,,,,,,,,,,,,,,,,,,,,,,,,,,,,,,,,,,,,,,,,,,,,,,,,,,,,,,,,,,,,,,,,,,,,,,,,,,,,,,,,,,,,,,,,,,,,,,,,,,,,,,,,,,,,,
,,5ed8cf4782a6eb04ddf9962d,2024-02-19_05h55.08.240,kallum_motion_pilot,2023.2.2,Win32,10,5ed8cf4782a6eb04ddf9962d,65d2b6c8f2eece985d8e374c,65d2def2aaec44a00e5b80a2,0.0545,0.0545,1,27,189,71,1,fourthree,,,,,,,,,,,,,,,,,,,,,,,,,,,,,,,,,,,,,,,,,,,,,,,,,,,,,,,,,,,,,,,,,,,,,,,,,,,,,,,,,,,,,,,,,,,,,,,,,,,,,,,,,,,,,,,,,,,,,,,,,,,,,,,,,,,,,,,,,
,,5ed8cf4782a6eb04ddf9962d,2024-02-19_05h55.08.240,kallum_motion_pilot,2023.2.2,Win32,10,5ed8cf4782a6eb04ddf9962d,65d2b6c8f2eece985d8e374c,65d2def2aaec44a00e5b80a2,0.0546,0.0547,1,28,190,9,1,onethree,,,,,,,,,,,,,,,,,,,,,,,,,,,,,,,,,,,,,,,,,,,,,,,,,,,,,,,,,,,,,,,,,,,,,,,,,,,,,,,,,,,,,,,,,,,,,,,,,,,,,,,,,,,,,,,,,,,,,,,,,,,,,,,,,,,,,,,,,
,,5ed8cf4782a6eb04ddf9962d,2024-02-19_05h55.08.240,kallum_motion_pilot,2023.2.2,Win32,10,5ed8cf4782a6eb04ddf9962d,65d2b6c8f2eece985d8e374c,65d2def2aaec44a00e5b80a2,0.0548,0.0548,1,29,191,88,1,fivesix,,,,,,,,,,,,,,,,,,,,,,,,,,,,,,,,,,,,,,,,,,,,,,,,,,,,,,,,,,,,,,,,,,,,,,,,,,,,,,,,,,,,,,,,,,,,,,,,,,,,,,,,,,,,,,,,,,,,,,,,,,,,,,,,,,,,,,,,,
,,5ed8cf4782a6eb04ddf9962d,2024-02-19_05h55.08.240,kallum_motion_pilot,2023.2.2,Win32,10,5ed8cf4782a6eb04ddf9962d,65d2b6c8f2eece985d8e374c,65d2def2aaec44a00e5b80a2,0.0549,0.055,1,30,192,42,1,twoone,,,,,,,,,,,,,,,,,,,,,,,,,,,,,,,,,,,,,,,,,,,,,,,,,,,,,,,,,,,,,,,,,,,,,,,,,,,,,,,,,,,,,,,,,,,,,,,,,,,,,,,,,,,,,,,,,,,,,,,,,,,,,,,,,,,,,,,,,
,,5ed8cf4782a6eb04ddf9962d,2024-02-19_05h55.08.240,kallum_motion_pilot,2023.2.2,Win32,10,5ed8cf4782a6eb04ddf9962d,65d2b6c8f2eece985d8e374c,65d2def2aaec44a00e5b80a2,0.0551,0.0551,1,31,193,19,1,twofour,,,,,,,,,,,,,,,,,,,,,,,,,,,,,,,,,,,,,,,,,,,,,,,,,,,,,,,,,,,,,,,,,,,,,,,,,,,,,,,,,,,,,,,,,,,,,,,,,,,,,,,,,,,,,,,,,,,,,,,,,,,,,,,,,,,,,,,,,
,,5ed8cf4782a6eb04ddf9962d,2024-02-19_05h55.08.240,kallum_motion_pilot,2023.2.2,Win32,10,5ed8cf4782a6eb04ddf9962d,65d2b6c8f2eece985d8e374c,65d2def2aaec44a00e5b80a2,0.0552,0.0553,1,32,194,43,1,twofour,,,,,,,,,,,,,,,,,,,,,,,,,,,,,,,,,,,,,,,,,,,,,,,,,,,,,,,,,,,,,,,,,,,,,,,,,,,,,,,,,,,,,,,,,,,,,,,,,,,,,,,,,,,,,,,,,,,,,,,,,,,,,,,,,,,,,,,,,
,,5ed8cf4782a6eb04ddf9962d,2024-02-19_05h55.08.240,kallum_motion_pilot,2023.2.2,Win32,10,5ed8cf4782a6eb04ddf9962d,65d2b6c8f2eece985d8e374c,65d2def2aaec44a00e5b80a2,0.0554,0.0555,1,33,195,1,1,onethree,,,,,,,,,,,,,,,,,,,,,,,,,,,,,,,,,,,,,,,,,,,,,,,,,,,,,,,,,,,,,,,,,,,,,,,,,,,,,,,,,,,,,,,,,,,,,,,,,,,,,,,,,,,,,,,,,,,,,,,,,,,,,,,,,,,,,,,,,
,,5ed8cf4782a6eb04ddf9962d,2024-02-19_05h55.08.240,kallum_motion_pilot,2023.2.2,Win32,10,5ed8cf4782a6eb04ddf9962d,65d2b6c8f2eece985d8e374c,65d2def2aaec44a00e5b80a2,0.0555,0.0556,1,34,196,132,1,sevenfive,,,,,,,,,,,,,,,,,,,,,,,,,,,,,,,,,,,,,,,,,,,,,,,,,,,,,,,,,,,,,,,,,,,,,,,,,,,,,,,,,,,,,,,,,,,,,,,,,,,,,,,,,,,,,,,,,,,,,,,,,,,,,,,,,,,,,,,,,
,,5ed8cf4782a6eb04ddf9962d,2024-02-19_05h55.08.240,kallum_motion_pilot,2023.2.2,Win32,10,5ed8cf4782a6eb04ddf9962d,65d2b6c8f2eece985d8e374c,65d2def2aaec44a00e5b80a2,0.0558,0.0558,1,35,197,28,1,threeone,,,,,,,,,,,,,,,,,,,,,,,,,,,,,,,,,,,,,,,,,,,,,,,,,,,,,,,,,,,,,,,,,,,,,,,,,,,,,,,,,,,,,,,,,,,,,,,,,,,,,,,,,,,,,,,,,,,,,,,,,,,,,,,,,,,,,,,,,
,,5ed8cf4782a6eb04ddf9962d,2024-02-19_05h55.08.240,kallum_motion_pilot,2023.2.2,Win32,10,5ed8cf4782a6eb04ddf9962d,65d2b6c8f2eece985d8e374c,65d2def2aaec44a00e5b80a2,0.0559,0.056,1,36,198,18,1,twoone,,,,,,,,,,,,,,,,,,,,,,,,,,,,,,,,,,,,,,,,,,,,,,,,,,,,,,,,,,,,,,,,,,,,,,,,,,,,,,,,,,,,,,,,,,,,,,,,,,,,,,,,,,,,,,,,,,,,,,,,,,,,,,,,,,,,,,,,,
,,5ed8cf4782a6eb04ddf9962d,2024-02-19_05h55.08.240,kallum_motion_pilot,2023.2.2,Win32,10,5ed8cf4782a6eb04ddf9962d,65d2b6c8f2eece985d8e374c,65d2def2aaec44a00e5b80a2,0.056,0.0561,1,37,199,102,1,eightsix,,,,,,,,,,,,,,,,,,,,,,,,,,,,,,,,,,,,,,,,,,,,,,,,,,,,,,,,,,,,,,,,,,,,,,,,,,,,,,,,,,,,,,,,,,,,,,,,,,,,,,,,,,,,,,,,,,,,,,,,,,,,,,,,,,,,,,,,,
,,5ed8cf4782a6eb04ddf9962d,2024-02-19_05h55.08.240,kallum_motion_pilot,2023.2.2,Win32,10,5ed8cf4782a6eb04ddf9962d,65d2b6c8f2eece985d8e374c,65d2def2aaec44a00e5b80a2,0.0562,0.0563,1,38,200,105,1,fiveseven,,,,,,,,,,,,,,,,,,,,,,,,,,,,,,,,,,,,,,,,,,,,,,,,,,,,,,,,,,,,,,,,,,,,,,,,,,,,,,,,,,,,,,,,,,,,,,,,,,,,,,,,,,,,,,,,,,,,,,,,,,,,,,,,,,,,,,,,,
,,5ed8cf4782a6eb04ddf9962d,2024-02-19_05h55.08.240,kallum_motion_pilot,2023.2.2,Win32,10,5ed8cf4782a6eb04ddf9962d,65d2b6c8f2eece985d8e374c,65d2def2aaec44a00e5b80a2,0.0564,0.0564,1,39,201,0,1,onetwo,,,,,,,,,,,,,,,,,,,,,,,,,,,,,,,,,,,,,,,,,,,,,,,,,,,,,,,,,,,,,,,,,,,,,,,,,,,,,,,,,,,,,,,,,,,,,,,,,,,,,,,,,,,,,,,,,,,,,,,,,,,,,,,,,,,,,,,,,
,,5ed8cf4782a6eb04ddf9962d,2024-02-19_05h55.08.240,kallum_motion_pilot,2023.2.2,Win32,10,5ed8cf4782a6eb04ddf9962d,65d2b6c8f2eece985d8e374c,65d2def2aaec44a00e5b80a2,0.0565,0.0566,1,40,202,69,1,threefour,,,,,,,,,,,,,,,,,,,,,,,,,,,,,,,,,,,,,,,,,,,,,,,,,,,,,,,,,,,,,,,,,,,,,,,,,,,,,,,,,,,,,,,,,,,,,,,,,,,,,,,,,,,,,,,,,,,,,,,,,,,,,,,,,,,,,,,,,
,,5ed8cf4782a6eb04ddf9962d,2024-02-19_05h55.08.240,kallum_motion_pilot,2023.2.2,Win32,10,5ed8cf4782a6eb04ddf9962d,65d2b6c8f2eece985d8e374c,65d2def2aaec44a00e5b80a2,0.0566,0.0567,1,41,203,119,1,eightseven,,,,,,,,,,,,,,,,,,,,,,,,,,,,,,,,,,,,,,,,,,,,,,,,,,,,,,,,,,,,,,,,,,,,,,,,,,,,,,,,,,,,,,,,,,,,,,,,,,,,,,,,,,,,,,,,,,,,,,,,,,,,,,,,,,,,,,,,,
,,5ed8cf4782a6eb04ddf9962d,2024-02-19_05h55.08.240,kallum_motion_pilot,2023.2.2,Win32,10,5ed8cf4782a6eb04ddf9962d,65d2b6c8f2eece985d8e374c,65d2def2aaec44a00e5b80a2,0.0568,0.0569,1,42,204,155,1,sixeight,,,,,,,,,,,,,,,,,,,,,,,,,,,,,,,,,,,,,,,,,,,,,,,,,,,,,,,,,,,,,,,,,,,,,,,,,,,,,,,,,,,,,,,,,,,,,,,,,,,,,,,,,,,,,,,,,,,,,,,,,,,,,,,,,,,,,,,,,
,,5ed8cf4782a6eb04ddf9962d,2024-02-19_05h55.08.240,kallum_motion_pilot,2023.2.2,Win32,10,5ed8cf4782a6eb04ddf9962d,65d2b6c8f2eece985d8e374c,65d2def2aaec44a00e5b80a2,0.0569,0.057,1,43,205,75,1,twofour,,,,,,,,,,,,,,,,,,,,,,,,,,,,,,,,,,,,,,,,,,,,,,,,,,,,,,,,,,,,,,,,,,,,,,,,,,,,,,,,,,,,,,,,,,,,,,,,,,,,,,,,,,,,,,,,,,,,,,,,,,,,,,,,,,,,,,,,,
,,5ed8cf4782a6eb04ddf9962d,2024-02-19_05h55.08.240,kallum_motion_pilot,2023.2.2,Win32,10,5ed8cf4782a6eb04ddf9962d,65d2b6c8f2eece985d8e374c,65d2def2aaec44a00e5b80a2,0.0571,0.0572,1,44,206,46,1,fourtwo,,,,,,,,,,,,,,,,,,,,,,,,,,,,,,,,,,,,,,,,,,,,,,,,,,,,,,,,,,,,,,,,,,,,,,,,,,,,,,,,,,,,,,,,,,,,,,,,,,,,,,,,,,,,,,,,,,,,,,,,,,,,,,,,,,,,,,,,,
,,5ed8cf4782a6eb04ddf9962d,2024-02-19_05h55.08.240,kallum_motion_pilot,2023.2.2,Win32,10,5ed8cf4782a6eb04ddf9962d,65d2b6c8f2eece985d8e374c,65d2def2aaec44a00e5b80a2,0.0573,0.0574,1,45,207,126,1,eightsix,,,,,,,,,,,,,,,,,,,,,,,,,,,,,,,,,,,,,,,,,,,,,,,,,,,,,,,,,,,,,,,,,,,,,,,,,,,,,,,,,,,,,,,,,,,,,,,,,,,,,,,,,,,,,,,,,,,,,,,,,,,,,,,,,,,,,,,,,
,,5ed8cf4782a6eb04ddf9962d,2024-02-19_05h55.08.240,kallum_motion_pilot,2023.2.2,Win32,10,5ed8cf4782a6eb04ddf9962d,65d2b6c8f2eece985d8e374c,65d2def2aaec44a00e5b80a2,0.0574,0.0575,1,46,208,54,1,fourtwo,,,,,,,,,,,,,,,,,,,,,,,,,,,,,,,,,,,,,,,,,,,,,,,,,,,,,,,,,,,,,,,,,,,,,,,,,,,,,,,,,,,,,,,,,,,,,,,,,,,,,,,,,,,,,,,,,,,,,,,,,,,,,,,,,,,,,,,,,
,,5ed8cf4782a6eb04ddf9962d,2024-02-19_05h55.08.240,kallum_motion_pilot,2023.2.2,Win32,10,5ed8cf4782a6eb04ddf9962d,65d2b6c8f2eece985d8e374c,65d2def2aaec44a00e5b80a2,0.0576,0.0577,1,47,209,30,1,fourtwo,,,,,,,,,,,,,,,,,,,,,,,,,,,,,,,,,,,,,,,,,,,,,,,,,,,,,,,,,,,,,,,,,,,,,,,,,,,,,,,,,,,,,,,,,,,,,,,,,,,,,,,,,,,,,,,,,,,,,,,,,,,,,,,,,,,,,,,,,
,,5ed8cf4782a6eb04ddf9962d,2024-02-19_05h55.08.240,kallum_motion_pilot,2023.2.2,Win32,10,5ed8cf4782a6eb04ddf9962d,65d2b6c8f2eece985d8e374c,65d2def2aaec44a00e5b80a2,0.0577,0.0577,1,48,210,48,1,onetwo,,,,,,,,,,,,,,,,,,,,,,,,,,,,,,,,,,,,,,,,,,,,,,,,,,,,,,,,,,,,,,,,,,,,,,,,,,,,,,,,,,,,,,,,,,,,,,,,,,,,,,,,,,,,,,,,,,,,,,,,,,,,,,,,,,,,,,,,,
,,5ed8cf4782a6eb04ddf9962d,2024-02-19_05h55.08.240,kallum_motion_pilot,2023.2.2,Win32,10,5ed8cf4782a6eb04ddf9962d,65d2b6c8f2eece985d8e374c,65d2def2aaec44a00e5b80a2,0.0578,0.058,1,49,211,38,1,fourtwo,,,,,,,,,,,,,,,,,,,,,,,,,,,,,,,,,,,,,,,,,,,,,,,,,,,,,,,,,,,,,,,,,,,,,,,,,,,,,,,,,,,,,,,,,,,,,,,,,,,,,,,,,,,,,,,,,,,,,,,,,,,,,,,,,,,,,,,,,
,,5ed8cf4782a6eb04ddf9962d,2024-02-19_05h55.08.240,kallum_motion_pilot,2023.2.2,Win32,10,5ed8cf4782a6eb04ddf9962d,65d2b6c8f2eece985d8e374c,65d2def2aaec44a00e5b80a2,0.058,0.0581,1,50,212,6,1,fourtwo,,,,,,,,,,,,,,,,,,,,,,,,,,,,,,,,,,,,,,,,,,,,,,,,,,,,,,,,,,,,,,,,,,,,,,,,,,,,,,,,,,,,,,,,,,,,,,,,,,,,,,,,,,,,,,,,,,,,,,,,,,,,,,,,,,,,,,,,,
,,5ed8cf4782a6eb04ddf9962d,2024-02-19_05h55.08.240,kallum_motion_pilot,2023.2.2,Win32,10,5ed8cf4782a6eb04ddf9962d,65d2b6c8f2eece985d8e374c,65d2def2aaec44a00e5b80a2,0.0581,0.0582,1,51,213,95,1,eightseven,,,,,,,,,,,,,,,,,,,,,,,,,,,,,,,,,,,,,,,,,,,,,,,,,,,,,,,,,,,,,,,,,,,,,,,,,,,,,,,,,,,,,,,,,,,,,,,,,,,,,,,,,,,,,,,,,,,,,,,,,,,,,,,,,,,,,,,,,
,,5ed8cf4782a6eb04ddf9962d,2024-02-19_05h55.08.240,kallum_motion_pilot,2023.2.2,Win32,10,5ed8cf4782a6eb04ddf9962d,65d2b6c8f2eece985d8e374c,65d2def2aaec44a00e5b80a2,0.0583,0.0584,1,52,214,149,1,seveneight,,,,,,,,,,,,,,,,,,,,,,,,,,,,,,,,,,,,,,,,,,,,,,,,,,,,,,,,,,,,,,,,,,,,,,,,,,,,,,,,,,,,,,,,,,,,,,,,,,,,,,,,,,,,,,,,,,,,,,,,,,,,,,,,,,,,,,,,,
,,5ed8cf4782a6eb04ddf9962d,2024-02-19_05h55.08.240,kallum_motion_pilot,2023.2.2,Win32,10,5ed8cf4782a6eb04ddf9962d,65d2b6c8f2eece985d8e374c,65d2def2aaec44a00e5b80a2,0.0585,0.0585,1,53,215,94,1,eightsix,,,,,,,,,,,,,,,,,,,,,,,,,,,,,,,,,,,,,,,,,,,,,,,,,,,,,,,,,,,,,,,,,,,,,,,,,,,,,,,,,,,,,,,,,,,,,,,,,,,,,,,,,,,,,,,,,,,,,,,,,,,,,,,,,,,,,,,,,
,,5ed8cf4782a6eb04ddf9962d,2024-02-19_05h55.08.240,kallum_motion_pilot,2023.2.2,Win32,10,5ed8cf4782a6eb04ddf9962d,65d2b6c8f2eece985d8e374c,65d2def2aaec44a00e5b80a2,0.0586,0.0587,1,54,216,36,1,threeone,,,,,,,,,,,,,,,,,,,,,,,,,,,,,,,,,,,,,,,,,,,,,,,,,,,,,,,,,,,,,,,,,,,,,,,,,,,,,,,,,,,,,,,,,,,,,,,,,,,,,,,,,,,,,,,,,,,,,,,,,,,,,,,,,,,,,,,,,
,,5ed8cf4782a6eb04ddf9962d,2024-02-19_05h55.08.240,kallum_motion_pilot,2023.2.2,Win32,10,5ed8cf4782a6eb04ddf9962d,65d2b6c8f2eece985d8e374c,65d2def2aaec44a00e5b80a2,0.0588,0.0589,1,55,217,127,1,eightseven,,,,,,,,,,,,,,,,,,,,,,,,,,,,,,,,,,,,,,,,,,,,,,,,,,,,,,,,,,,,,,,,,,,,,,,,,,,,,,,,,,,,,,,,,,,,,,,,,,,,,,,,,,,,,,,,,,,,,,,,,,,,,,,,,,,,,,,,,
,,5ed8cf4782a6eb04ddf9962d,2024-02-19_05h55.08.240,kallum_motion_pilot,2023.2.2,Win32,10,5ed8cf4782a6eb04ddf9962d,65d2b6c8f2eece985d8e374c,65d2def2aaec44a00e5b80a2,0.059,0.0591,1,56,218,5,1,threefour,,,,,,,,,,,,,,,,,,,,,,,,,,,,,,,,,,,,,,,,,,,,,,,,,,,,,,,,,,,,,,,,,,,,,,,,,,,,,,,,,,,,,,,,,,,,,,,,,,,,,,,,,,,,,,,,,,,,,,,,,,,,,,,,,,,,,,,,,
,,5ed8cf4782a6eb04ddf9962d,2024-02-19_05h55.08.240,kallum_motion_pilot,2023.2.2,Win32,10,5ed8cf4782a6eb04ddf9962d,65d2b6c8f2eece985d8e374c,65d2def2aaec44a00e5b80a2,0.0592,0.0592,1,57,219,134,1,eightsix,,,,,,,,,,,,,,,,,,,,,,,,,,,,,,,,,,,,,,,,,,,,,,,,,,,,,,,,,,,,,,,,,,,,,,,,,,,,,,,,,,,,,,,,,,,,,,,,,,,,,,,,,,,,,,,,,,,,,,,,,,,,,,,,,,,,,,,,,
,,5ed8cf4782a6eb04ddf9962d,2024-02-19_05h55.08.240,kallum_motion_pilot,2023.2.2,Win32,10,5ed8cf4782a6eb04ddf9962d,65d2b6c8f2eece985d8e374c,65d2def2aaec44a00e5b80a2,0.0593,0.0594,1,58,220,23,1,fourthree,,,,,,,,,,,,,,,,,,,,,,,,,,,,,,,,,,,,,,,,,,,,,,,,,,,,,,,,,,,,,,,,,,,,,,,,,,,,,,,,,,,,,,,,,,,,,,,,,,,,,,,,,,,,,,,,,,,,,,,,,,,,,,,,,,,,,,,,,
,,5ed8cf4782a6eb04ddf9962d,2024-02-19_05h55.08.240,kallum_motion_pilot,2023.2.2,Win32,10,5ed8cf4782a6eb04ddf9962d,65d2b6c8f2eece985d8e374c,65d2def2aaec44a00e5b80a2,0.0594,0.0595,1,59,221,29,1,threefour,,,,,,,,,,,,,,,,,,,,,,,,,,,,,,,,,,,,,,,,,,,,,,,,,,,,,,,,,,,,,,,,,,,,,,,,,,,,,,,,,,,,,,,,,,,,,,,,,,,,,,,,,,,,,,,,,,,,,,,,,,,,,,,,,,,,,,,,,
,,5ed8cf4782a6eb04ddf9962d,2024-02-19_05h55.08.240,kallum_motion_pilot,2023.2.2,Win32,10,5ed8cf4782a6eb04ddf9962d,65d2b6c8f2eece985d8e374c,65d2def2aaec44a00e5b80a2,0.0597,0.0598,1,60,222,14,1,fourtwo,,,,,,,,,,,,,,,,,,,,,,,,,,,,,,,,,,,,,,,,,,,,,,,,,,,,,,,,,,,,,,,,,,,,,,,,,,,,,,,,,,,,,,,,,,,,,,,,,,,,,,,,,,,,,,,,,,,,,,,,,,,,,,,,,,,,,,,,,
,,5ed8cf4782a6eb04ddf9962d,2024-02-19_05h55.08.240,kallum_motion_pilot,2023.2.2,Win32,10,5ed8cf4782a6eb04ddf9962d,65d2b6c8f2eece985d8e374c,65d2def2aaec44a00e5b80a2,0.0599,0.0599,1,61,223,90,1,sixfive,,,,,,,,,,,,,,,,,,,,,,,,,,,,,,,,,,,,,,,,,,,,,,,,,,,,,,,,,,,,,,,,,,,,,,,,,,,,,,,,,,,,,,,,,,,,,,,,,,,,,,,,,,,,,,,,,,,,,,,,,,,,,,,,,,,,,,,,,
,,5ed8cf4782a6eb04ddf9962d,2024-02-19_05h55.08.240,kallum_motion_pilot,2023.2.2,Win32,10,5ed8cf4782a6eb04ddf9962d,65d2b6c8f2eece985d8e374c,65d2def2aaec44a00e5b80a2,0.06,0.0601,1,62,224,82,1,sixfive,,,,,,,,,,,,,,,,,,,,,,,,,,,,,,,,,,,,,,,,,,,,,,,,,,,,,,,,,,,,,,,,,,,,,,,,,,,,,,,,,,,,,,,,,,,,,,,,,,,,,,,,,,,,,,,,,,,,,,,,,,,,,,,,,,,,,,,,,
,,5ed8cf4782a6eb04ddf9962d,2024-02-19_05h55.08.240,kallum_motion_pilot,2023.2.2,Win32,10,5ed8cf4782a6eb04ddf9962d,65d2b6c8f2eece985d8e374c,65d2def2aaec44a00e5b80a2,0.0601,0.0602,1,63,225,160,1,fivesix,,,,,,,,,,,,,,,,,,,,,,,,,,,,,,,,,,,,,,,,,,,,,,,,,,,,,,,,,,,,,,,,,,,,,,,,,,,,,,,,,,,,,,,,,,,,,,,,,,,,,,,,,,,,,,,,,,,,,,,,,,,,,,,,,,,,,,,,,
,,5ed8cf4782a6eb04ddf9962d,2024-02-19_05h55.08.240,kallum_motion_pilot,2023.2.2,Win32,10,5ed8cf4782a6eb04ddf9962d,65d2b6c8f2eece985d8e374c,65d2def2aaec44a00e5b80a2,0.0603,0.0604,1,64,226,92,1,sevenfive,,,,,,,,,,,,,,,,,,,,,,,,,,,,,,,,,,,,,,,,,,,,,,,,,,,,,,,,,,,,,,,,,,,,,,,,,,,,,,,,,,,,,,,,,,,,,,,,,,,,,,,,,,,,,,,,,,,,,,,,,,,,,,,,,,,,,,,,,
,,5ed8cf4782a6eb04ddf9962d,2024-02-19_05h55.08.240,kallum_motion_pilot,2023.2.2,Win32,10,5ed8cf4782a6eb04ddf9962d,65d2b6c8f2eece985d8e374c,65d2def2aaec44a00e5b80a2,0.0605,0.0606,1,65,227,135,1,eightseven,,,,,,,,,,,,,,,,,,,,,,,,,,,,,,,,,,,,,,,,,,,,,,,,,,,,,,,,,,,,,,,,,,,,,,,,,,,,,,,,,,,,,,,,,,,,,,,,,,,,,,,,,,,,,,,,,,,,,,,,,,,,,,,,,,,,,,,,,
,,5ed8cf4782a6eb04ddf9962d,2024-02-19_05h55.08.240,kallum_motion_pilot,2023.2.2,Win32,10,5ed8cf4782a6eb04ddf9962d,65d2b6c8f2eece985d8e374c,65d2def2aaec44a00e5b80a2,0.0607,0.0608,1,66,228,141,1,seveneight,,,,,,,,,,,,,,,,,,,,,,,,,,,,,,,,,,,,,,,,,,,,,,,,,,,,,,,,,,,,,,,,,,,,,,,,,,,,,,,,,,,,,,,,,,,,,,,,,,,,,,,,,,,,,,,,,,,,,,,,,,,,,,,,,,,,,,,,,
,,5ed8cf4782a6eb04ddf9962d,2024-02-19_05h55.08.240,kallum_motion_pilot,2023.2.2,Win32,10,5ed8cf4782a6eb04ddf9962d,65d2b6c8f2eece985d8e374c,65d2def2aaec44a00e5b80a2,0.0608,0.0609,1,67,229,27,1,twofour,,,,,,,,,,,,,,,,,,,,,,,,,,,,,,,,,,,,,,,,,,,,,,,,,,,,,,,,,,,,,,,,,,,,,,,,,,,,,,,,,,,,,,,,,,,,,,,,,,,,,,,,,,,,,,,,,,,,,,,,,,,,,,,,,,,,,,,,,
,,5ed8cf4782a6eb04ddf9962d,2024-02-19_05h55.08.240,kallum_motion_pilot,2023.2.2,Win32,10,5ed8cf4782a6eb04ddf9962d,65d2b6c8f2eece985d8e374c,65d2def2aaec44a00e5b80a2,0.061,0.0611,1,68,230,39,1,fourthree,,,,,,,,,,,,,,,,,,,,,,,,,,,,,,,,,,,,,,,,,,,,,,,,,,,,,,,,,,,,,,,,,,,,,,,,,,,,,,,,,,,,,,,,,,,,,,,,,,,,,,,,,,,,,,,,,,,,,,,,,,,,,,,,,,,,,,,,,
,,5ed8cf4782a6eb04ddf9962d,2024-02-19_05h55.08.240,kallum_motion_pilot,2023.2.2,Win32,10,5ed8cf4782a6eb04ddf9962d,65d2b6c8f2eece985d8e374c,65d2def2aaec44a00e5b80a2,0.0612,0.0613,1,69,231,83,1,sixeight,,,,,,,,,,,,,,,,,,,,,,,,,,,,,,,,,,,,,,,,,,,,,,,,,,,,,,,,,,,,,,,,,,,,,,,,,,,,,,,,,,,,,,,,,,,,,,,,,,,,,,,,,,,,,,,,,,,,,,,,,,,,,,,,,,,,,,,,,
,,5ed8cf4782a6eb04ddf9962d,2024-02-19_05h55.08.240,kallum_motion_pilot,2023.2.2,Win32,10,5ed8cf4782a6eb04ddf9962d,65d2b6c8f2eece985d8e374c,65d2def2aaec44a00e5b80a2,0.0614,0.0615,1,70,232,74,1,twoone,,,,,,,,,,,,,,,,,,,,,,,,,,,,,,,,,,,,,,,,,,,,,,,,,,,,,,,,,,,,,,,,,,,,,,,,,,,,,,,,,,,,,,,,,,,,,,,,,,,,,,,,,,,,,,,,,,,,,,,,,,,,,,,,,,,,,,,,,
,,5ed8cf4782a6eb04ddf9962d,2024-02-19_05h55.08.240,kallum_motion_pilot,2023.2.2,Win32,10,5ed8cf4782a6eb04ddf9962d,65d2b6c8f2eece985d8e374c,65d2def2aaec44a00e5b80a2,0.0615,0.0616,1,71,233,140,1,sevenfive,,,,,,,,,,,,,,,,,,,,,,,,,,,,,,,,,,,,,,,,,,,,,,,,,,,,,,,,,,,,,,,,,,,,,,,,,,,,,,,,,,,,,,,,,,,,,,,,,,,,,,,,,,,,,,,,,,,,,,,,,,,,,,,,,,,,,,,,,
,,5ed8cf4782a6eb04ddf9962d,2024-02-19_05h55.08.240,kallum_motion_pilot,2023.2.2,Win32,10,5ed8cf4782a6eb04ddf9962d,65d2b6c8f2eece985d8e374c,65d2def2aaec44a00e5b80a2,0.0617,0.0618,1,72,234,85,1,seveneight,,,,,,,,,,,,,,,,,,,,,,,,,,,,,,,,,,,,,,,,,,,,,,,,,,,,,,,,,,,,,,,,,,,,,,,,,,,,,,,,,,,,,,,,,,,,,,,,,,,,,,,,,,,,,,,,,,,,,,,,,,,,,,,,,,,,,,,,,
,,5ed8cf4782a6eb04ddf9962d,2024-02-19_05h55.08.240,kallum_motion_pilot,2023.2.2,Win32,10,5ed8cf4782a6eb04ddf9962d,65d2b6c8f2eece985d8e374c,65d2def2aaec44a00e5b80a2,0.0618,0.0619,1,73,235,138,1,sixfive,,,,,,,,,,,,,,,,,,,,,,,,,,,,,,,,,,,,,,,,,,,,,,,,,,,,,,,,,,,,,,,,,,,,,,,,,,,,,,,,,,,,,,,,,,,,,,,,,,,,,,,,,,,,,,,,,,,,,,,,,,,,,,,,,,,,,,,,,
,,5ed8cf4782a6eb04ddf9962d,2024-02-19_05h55.08.240,kallum_motion_pilot,2023.2.2,Win32,10,5ed8cf4782a6eb04ddf9962d,65d2b6c8f2eece985d8e374c,65d2def2aaec44a00e5b80a2,0.062,0.0621,1,74,236,65,1,onethree,,,,,,,,,,,,,,,,,,,,,,,,,,,,,,,,,,,,,,,,,,,,,,,,,,,,,,,,,,,,,,,,,,,,,,,,,,,,,,,,,,,,,,,,,,,,,,,,,,,,,,,,,,,,,,,,,,,,,,,,,,,,,,,,,,,,,,,,,
,,5ed8cf4782a6eb04ddf9962d,2024-02-19_05h55.08.240,kallum_motion_pilot,2023.2.2,Win32,10,5ed8cf4782a6eb04ddf9962d,65d2b6c8f2eece985d8e374c,65d2def2aaec44a00e5b80a2,0.0621,0.0623,1,75,237,41,1,onethree,,,,,,,,,,,,,,,,,,,,,,,,,,,,,,,,,,,,,,,,,,,,,,,,,,,,,,,,,,,,,,,,,,,,,,,,,,,,,,,,,,,,,,,,,,,,,,,,,,,,,,,,,,,,,,,,,,,,,,,,,,,,,,,,,,,,,,,,,
,,5ed8cf4782a6eb04ddf9962d,2024-02-19_05h55.08.240,kallum_motion_pilot,2023.2.2,Win32,10,5ed8cf4782a6eb04ddf9962d,65d2b6c8f2eece985d8e374c,65d2def2aaec44a00e5b80a2,0.0623,0.0624,1,76,238,99,1,sixeight,,,,,,,,,,,,,,,,,,,,,,,,,,,,,,,,,,,,,,,,,,,,,,,,,,,,,,,,,,,,,,,,,,,,,,,,,,,,,,,,,,,,,,,,,,,,,,,,,,,,,,,,,,,,,,,,,,,,,,,,,,,,,,,,,,,,,,,,,
,,5ed8cf4782a6eb04ddf9962d,2024-02-19_05h55.08.240,kallum_motion_pilot,2023.2.2,Win32,10,5ed8cf4782a6eb04ddf9962d,65d2b6c8f2eece985d8e374c,65d2def2aaec44a00e5b80a2,0.0625,0.0626,1,77,239,76,1,threeone,,,,,,,,,,,,,,,,,,,,,,,,,,,,,,,,,,,,,,,,,,,,,,,,,,,,,,,,,,,,,,,,,,,,,,,,,,,,,,,,,,,,,,,,,,,,,,,,,,,,,,,,,,,,,,,,,,,,,,,,,,,,,,,,,,,,,,,,,
,,5ed8cf4782a6eb04ddf9962d,2024-02-19_05h55.08.240,kallum_motion_pilot,2023.2.2,Win32,10,5ed8cf4782a6eb04ddf9962d,65d2b6c8f2eece985d8e374c,65d2def2aaec44a00e5b80a2,0.0626,0.0628,1,78,240,107,1,sixeight,,,,,,,,,,,,,,,,,,,,,,,,,,,,,,,,,,,,,,,,,,,,,,,,,,,,,,,,,,,,,,,,,,,,,,,,,,,,,,,,,,,,,,,,,,,,,,,,,,,,,,,,,,,,,,,,,,,,,,,,,,,,,,,,,,,,,,,,,
,,5ed8cf4782a6eb04ddf9962d,2024-02-19_05h55.08.240,kallum_motion_pilot,2023.2.2,Win32,10,5ed8cf4782a6eb04ddf9962d,65d2b6c8f2eece985d8e374c,65d2def2aaec44a00e5b80a2,0.0628,0.063,1,79,241,56,1,onetwo,,,,,,,,,,,,,,,,,,,,,,,,,,,,,,,,,,,,,,,,,,,,,,,,,,,,,,,,,,,,,,,,,,,,,,,,,,,,,,,,,,,,,,,,,,,,,,,,,,,,,,,,,,,,,,,,,,,,,,,,,,,,,,,,,,,,,,,,,
,,5ed8cf4782a6eb04ddf9962d,2024-02-19_05h55.08.240,kallum_motion_pilot,2023.2.2,Win32,10,5ed8cf4782a6eb04ddf9962d,65d2b6c8f2eece985d8e374c,65d2def2aaec44a00e5b80a2,0.063,0.0631,1,80,242,84,1,sevenfive,,,,,,,,,,,,,,,,,,,,,,,,,,,,,,,,,,,,,,,,,,,,,,,,,,,,,,,,,,,,,,,,,,,,,,,,,,,,,,,,,,,,,,,,,,,,,,,,,,,,,,,,,,,,,,,,,,,,,,,,,,,,,,,,,,,,,,,,,
,,5ed8cf4782a6eb04ddf9962d,2024-02-19_05h55.08.240,kallum_motion_pilot,2023.2.2,Win32,10,5ed8cf4782a6eb04ddf9962d,65d2b6c8f2eece985d8e374c,65d2def2aaec44a00e5b80a2,0.0632,0.0633,1,81,243,113,1,fiveseven,,,,,,,,,,,,,,,,,,,,,,,,,,,,,,,,,,,,,,,,,,,,,,,,,,,,,,,,,,,,,,,,,,,,,,,,,,,,,,,,,,,,,,,,,,,,,,,,,,,,,,,,,,,,,,,,,,,,,,,,,,,,,,,,,,,,,,,,,
,,5ed8cf4782a6eb04ddf9962d,2024-02-19_05h55.08.240,kallum_motion_pilot,2023.2.2,Win32,10,5ed8cf4782a6eb04ddf9962d,65d2b6c8f2eece985d8e374c,65d2def2aaec44a00e5b80a2,0.0634,0.0634,1,82,244,96,1,fivesix,,,,,,,,,,,,,,,,,,,,,,,,,,,,,,,,,,,,,,,,,,,,,,,,,,,,,,,,,,,,,,,,,,,,,,,,,,,,,,,,,,,,,,,,,,,,,,,,,,,,,,,,,,,,,,,,,,,,,,,,,,,,,,,,,,,,,,,,,
,,5ed8cf4782a6eb04ddf9962d,2024-02-19_05h55.08.240,kallum_motion_pilot,2023.2.2,Win32,10,5ed8cf4782a6eb04ddf9962d,65d2b6c8f2eece985d8e374c,65d2def2aaec44a00e5b80a2,0.0635,0.0636,1,83,245,156,1,sevenfive,,,,,,,,,,,,,,,,,,,,,,,,,,,,,,,,,,,,,,,,,,,,,,,,,,,,,,,,,,,,,,,,,,,,,,,,,,,,,,,,,,,,,,,,,,,,,,,,,,,,,,,,,,,,,,,,,,,,,,,,,,,,,,,,,,,,,,,,,
,,5ed8cf4782a6eb04ddf9962d,2024-02-19_05h55.08.240,kallum_motion_pilot,2023.2.2,Win32,10,5ed8cf4782a6eb04ddf9962d,65d2b6c8f2eece985d8e374c,65d2def2aaec44a00e5b80a2,0.0637,0.0638,1,84,246,131,1,sixeight,,,,,,,,,,,,,,,,,,,,,,,,,,,,,,,,,,,,,,,,,,,,,,,,,,,,,,,,,,,,,,,,,,,,,,,,,,,,,,,,,,,,,,,,,,,,,,,,,,,,,,,,,,,,,,,,,,,,,,,,,,,,,,,,,,,,,,,,,
,,5ed8cf4782a6eb04ddf9962d,2024-02-19_05h55.08.240,kallum_motion_pilot,2023.2.2,Win32,10,5ed8cf4782a6eb04ddf9962d,65d2b6c8f2eece985d8e374c,65d2def2aaec44a00e5b80a2,0.0638,0.0639,1,85,247,144,1,fivesix,,,,,,,,,,,,,,,,,,,,,,,,,,,,,,,,,,,,,,,,,,,,,,,,,,,,,,,,,,,,,,,,,,,,,,,,,,,,,,,,,,,,,,,,,,,,,,,,,,,,,,,,,,,,,,,,,,,,,,,,,,,,,,,,,,,,,,,,,
,,5ed8cf4782a6eb04ddf9962d,2024-02-19_05h55.08.240,kallum_motion_pilot,2023.2.2,Win32,10,5ed8cf4782a6eb04ddf9962d,65d2b6c8f2eece985d8e374c,65d2def2aaec44a00e5b80a2,0.0641,0.0641,1,86,248,112,1,fivesix,,,,,,,,,,,,,,,,,,,,,,,,,,,,,,,,,,,,,,,,,,,,,,,,,,,,,,,,,,,,,,,,,,,,,,,,,,,,,,,,,,,,,,,,,,,,,,,,,,,,,,,,,,,,,,,,,,,,,,,,,,,,,,,,,,,,,,,,,
,,5ed8cf4782a6eb04ddf9962d,2024-02-19_05h55.08.240,kallum_motion_pilot,2023.2.2,Win32,10,5ed8cf4782a6eb04ddf9962d,65d2b6c8f2eece985d8e374c,65d2def2aaec44a00e5b80a2,0.0643,0.0643,1,87,249,118,1,eightsix,,,,,,,,,,,,,,,,,,,,,,,,,,,,,,,,,,,,,,,,,,,,,,,,,,,,,,,,,,,,,,,,,,,,,,,,,,,,,,,,,,,,,,,,,,,,,,,,,,,,,,,,,,,,,,,,,,,,,,,,,,,,,,,,,,,,,,,,,
,,5ed8cf4782a6eb04ddf9962d,2024-02-19_05h55.08.240,kallum_motion_pilot,2023.2.2,Win32,10,5ed8cf4782a6eb04ddf9962d,65d2b6c8f2eece985d8e374c,65d2def2aaec44a00e5b80a2,0.0644,0.0645,1,88,250,129,1,fiveseven,,,,,,,,,,,,,,,,,,,,,,,,,,,,,,,,,,,,,,,,,,,,,,,,,,,,,,,,,,,,,,,,,,,,,,,,,,,,,,,,,,,,,,,,,,,,,,,,,,,,,,,,,,,,,,,,,,,,,,,,,,,,,,,,,,,,,,,,,
,,5ed8cf4782a6eb04ddf9962d,2024-02-19_05h55.08.240,kallum_motion_pilot,2023.2.2,Win32,10,5ed8cf4782a6eb04ddf9962d,65d2b6c8f2eece985d8e374c,65d2def2aaec44a00e5b80a2,0.0646,0.0647,1,89,251,106,1,sixfive,,,,,,,,,,,,,,,,,,,,,,,,,,,,,,,,,,,,,,,,,,,,,,,,,,,,,,,,,,,,,,,,,,,,,,,,,,,,,,,,,,,,,,,,,,,,,,,,,,,,,,,,,,,,,,,,,,,,,,,,,,,,,,,,,,,,,,,,,
,,5ed8cf4782a6eb04ddf9962d,2024-02-19_05h55.08.240,kallum_motion_pilot,2023.2.2,Win32,10,5ed8cf4782a6eb04ddf9962d,65d2b6c8f2eece985d8e374c,65d2def2aaec44a00e5b80a2,0.0648,0.0649,1,90,252,8,1,onetwo,,,,,,,,,,,,,,,,,,,,,,,,,,,,,,,,,,,,,,,,,,,,,,,,,,,,,,,,,,,,,,,,,,,,,,,,,,,,,,,,,,,,,,,,,,,,,,,,,,,,,,,,,,,,,,,,,,,,,,,,,,,,,,,,,,,,,,,,,
,,5ed8cf4782a6eb04ddf9962d,2024-02-19_05h55.08.240,kallum_motion_pilot,2023.2.2,Win32,10,5ed8cf4782a6eb04ddf9962d,65d2b6c8f2eece985d8e374c,65d2def2aaec44a00e5b80a2,0.065,0.065,1,91,253,60,1,threeone,,,,,,,,,,,,,,,,,,,,,,,,,,,,,,,,,,,,,,,,,,,,,,,,,,,,,,,,,,,,,,,,,,,,,,,,,,,,,,,,,,,,,,,,,,,,,,,,,,,,,,,,,,,,,,,,,,,,,,,,,,,,,,,,,,,,,,,,,
,,5ed8cf4782a6eb04ddf9962d,2024-02-19_05h55.08.240,kallum_motion_pilot,2023.2.2,Win32,10,5ed8cf4782a6eb04ddf9962d,65d2b6c8f2eece985d8e374c,65d2def2aaec44a00e5b80a2,0.0652,0.0653,1,92,254,20,1,threeone,,,,,,,,,,,,,,,,,,,,,,,,,,,,,,,,,,,,,,,,,,,,,,,,,,,,,,,,,,,,,,,,,,,,,,,,,,,,,,,,,,,,,,,,,,,,,,,,,,,,,,,,,,,,,,,,,,,,,,,,,,,,,,,,,,,,,,,,,
,,5ed8cf4782a6eb04ddf9962d,2024-02-19_05h55.08.240,kallum_motion_pilot,2023.2.2,Win32,10,5ed8cf4782a6eb04ddf9962d,65d2b6c8f2eece985d8e374c,65d2def2aaec44a00e5b80a2,0.0654,0.0655,1,93,255,89,1,fiveseven,,,,,,,,,,,,,,,,,,,,,,,,,,,,,,,,,,,,,,,,,,,,,,,,,,,,,,,,,,,,,,,,,,,,,,,,,,,,,,,,,,,,,,,,,,,,,,,,,,,,,,,,,,,,,,,,,,,,,,,,,,,,,,,,,,,,,,,,,
,,5ed8cf4782a6eb04ddf9962d,2024-02-19_05h55.08.240,kallum_motion_pilot,2023.2.2,Win32,10,5ed8cf4782a6eb04ddf9962d,65d2b6c8f2eece985d8e374c,65d2def2aaec44a00e5b80a2,0.0657,0.0659,1,94,256,122,1,sixfive,,,,,,,,,,,,,,,,,,,,,,,,,,,,,,,,,,,,,,,,,,,,,,,,,,,,,,,,,,,,,,,,,,,,,,,,,,,,,,,,,,,,,,,,,,,,,,,,,,,,,,,,,,,,,,,,,,,,,,,,,,,,,,,,,,,,,,,,,
,,5ed8cf4782a6eb04ddf9962d,2024-02-19_05h55.08.240,kallum_motion_pilot,2023.2.2,Win32,10,5ed8cf4782a6eb04ddf9962d,65d2b6c8f2eece985d8e374c,65d2def2aaec44a00e5b80a2,0.066,0.0661,1,95,257,11,1,twofour,,,,,,,,,,,,,,,,,,,,,,,,,,,,,,,,,,,,,,,,,,,,,,,,,,,,,,,,,,,,,,,,,,,,,,,,,,,,,,,,,,,,,,,,,,,,,,,,,,,,,,,,,,,,,,,,,,,,,,,,,,,,,,,,,,,,,,,,,
,,5ed8cf4782a6eb04ddf9962d,2024-02-19_05h55.08.240,kallum_motion_pilot,2023.2.2,Win32,10,5ed8cf4782a6eb04ddf9962d,65d2b6c8f2eece985d8e374c,65d2def2aaec44a00e5b80a2,0.0662,0.0663,1,96,258,86,1,eightsix,,,,,,,,,,,,,,,,,,,,,,,,,,,,,,,,,,,,,,,,,,,,,,,,,,,,,,,,,,,,,,,,,,,,,,,,,,,,,,,,,,,,,,,,,,,,,,,,,,,,,,,,,,,,,,,,,,,,,,,,,,,,,,,,,,,,,,,,,
,,5ed8cf4782a6eb04ddf9962d,2024-02-19_05h55.08.240,kallum_motion_pilot,2023.2.2,Win32,10,5ed8cf4782a6eb04ddf9962d,65d2b6c8f2eece985d8e374c,65d2def2aaec44a00e5b80a2,0.0664,0.0665,1,97,259,47,1,fourthree,,,,,,,,,,,,,,,,,,,,,,,,,,,,,,,,,,,,,,,,,,,,,,,,,,,,,,,,,,,,,,,,,,,,,,,,,,,,,,,,,,,,,,,,,,,,,,,,,,,,,,,,,,,,,,,,,,,,,,,,,,,,,,,,,,,,,,,,,
,,5ed8cf4782a6eb04ddf9962d,2024-02-19_05h55.08.240,kallum_motion_pilot,2023.2.2,Win32,10,5ed8cf4782a6eb04ddf9962d,65d2b6c8f2eece985d8e374c,65d2def2aaec44a00e5b80a2,0.0666,0.0667,1,98,260,125,1,seveneight,,,,,,,,,,,,,,,,,,,,,,,,,,,,,,,,,,,,,,,,,,,,,,,,,,,,,,,,,,,,,,,,,,,,,,,,,,,,,,,,,,,,,,,,,,,,,,,,,,,,,,,,,,,,,,,,,,,,,,,,,,,,,,,,,,,,,,,,,
,,5ed8cf4782a6eb04ddf9962d,2024-02-19_05h55.08.240,kallum_motion_pilot,2023.2.2,Win32,10,5ed8cf4782a6eb04ddf9962d,65d2b6c8f2eece985d8e374c,65d2def2aaec44a00e5b80a2,0.0668,0.0669,1,99,261,4,1,threeone,,,,,,,,,,,,,,,,,,,,,,,,,,,,,,,,,,,,,,,,,,,,,,,,,,,,,,,,,,,,,,,,,,,,,,,,,,,,,,,,,,,,,,,,,,,,,,,,,,,,,,,,,,,,,,,,,,,,,,,,,,,,,,,,,,,,,,,,,
,,5ed8cf4782a6eb04ddf9962d,2024-02-19_05h55.08.240,kallum_motion_pilot,2023.2.2,Win32,10,5ed8cf4782a6eb04ddf9962d,65d2b6c8f2eece985d8e374c,65d2def2aaec44a00e5b80a2,0.067,0.0671,1,100,262,66,1,twoone,,,,,,,,,,,,,,,,,,,,,,,,,,,,,,,,,,,,,,,,,,,,,,,,,,,,,,,,,,,,,,,,,,,,,,,,,,,,,,,,,,,,,,,,,,,,,,,,,,,,,,,,,,,,,,,,,,,,,,,,,,,,,,,,,,,,,,,,,
,,5ed8cf4782a6eb04ddf9962d,2024-02-19_05h55.08.240,kallum_motion_pilot,2023.2.2,Win32,10,5ed8cf4782a6eb04ddf9962d,65d2b6c8f2eece985d8e374c,65d2def2aaec44a00e5b80a2,0.0672,0.0673,1,101,263,146,1,sixfive,,,,,,,,,,,,,,,,,,,,,,,,,,,,,,,,,,,,,,,,,,,,,,,,,,,,,,,,,,,,,,,,,,,,,,,,,,,,,,,,,,,,,,,,,,,,,,,,,,,,,,,,,,,,,,,,,,,,,,,,,,,,,,,,,,,,,,,,,
,,5ed8cf4782a6eb04ddf9962d,2024-02-19_05h55.08.240,kallum_motion_pilot,2023.2.2,Win32,10,5ed8cf4782a6eb04ddf9962d,65d2b6c8f2eece985d8e374c,65d2def2aaec44a00e5b80a2,0.0674,0.0675,1,102,264,114,1,sixfive,,,,,,,,,,,,,,,,,,,,,,,,,,,,,,,,,,,,,,,,,,,,,,,,,,,,,,,,,,,,,,,,,,,,,,,,,,,,,,,,,,,,,,,,,,,,,,,,,,,,,,,,,,,,,,,,,,,,,,,,,,,,,,,,,,,,,,,,,
,,5ed8cf4782a6eb04ddf9962d,2024-02-19_05h55.08.240,kallum_motion_pilot,2023.2.2,Win32,10,5ed8cf4782a6eb04ddf9962d,65d2b6c8f2eece985d8e374c,65d2def2aaec44a00e5b80a2,0.0676,0.0676,1,103,265,44,1,threeone,,,,,,,,,,,,,,,,,,,,,,,,,,,,,,,,,,,,,,,,,,,,,,,,,,,,,,,,,,,,,,,,,,,,,,,,,,,,,,,,,,,,,,,,,,,,,,,,,,,,,,,,,,,,,,,,,,,,,,,,,,,,,,,,,,,,,,,,,
,,5ed8cf4782a6eb04ddf9962d,2024-02-19_05h55.08.240,kallum_motion_pilot,2023.2.2,Win32,10,5ed8cf4782a6eb04ddf9962d,65d2b6c8f2eece985d8e374c,65d2def2aaec44a00e5b80a2,0.0678,0.0678,1,104,266,73,1,onethree,,,,,,,,,,,,,,,,,,,,,,,,,,,,,,,,,,,,,,,,,,,,,,,,,,,,,,,,,,,,,,,,,,,,,,,,,,,,,,,,,,,,,,,,,,,,,,,,,,,,,,,,,,,,,,,,,,,,,,,,,,,,,,,,,,,,,,,,,
,,5ed8cf4782a6eb04ddf9962d,2024-02-19_05h55.08.240,kallum_motion_pilot,2023.2.2,Win32,10,5ed8cf4782a6eb04ddf9962d,65d2b6c8f2eece985d8e374c,65d2def2aaec44a00e5b80a2,0.0679,0.068,1,105,267,21,1,threefour,,,,,,,,,,,,,,,,,,,,,,,,,,,,,,,,,,,,,,,,,,,,,,,,,,,,,,,,,,,,,,,,,,,,,,,,,,,,,,,,,,,,,,,,,,,,,,,,,,,,,,,,,,,,,,,,,,,,,,,,,,,,,,,,,,,,,,,,,
,,5ed8cf4782a6eb04ddf9962d,2024-02-19_05h55.08.240,kallum_motion_pilot,2023.2.2,Win32,10,5ed8cf4782a6eb04ddf9962d,65d2b6c8f2eece985d8e374c,65d2def2aaec44a00e5b80a2,0.0681,0.0682,1,106,268,50,1,twoone,,,,,,,,,,,,,,,,,,,,,,,,,,,,,,,,,,,,,,,,,,,,,,,,,,,,,,,,,,,,,,,,,,,,,,,,,,,,,,,,,,,,,,,,,,,,,,,,,,,,,,,,,,,,,,,,,,,,,,,,,,,,,,,,,,,,,,,,,
,,5ed8cf4782a6eb04ddf9962d,2024-02-19_05h55.08.240,kallum_motion_pilot,2023.2.2,Win32,10,5ed8cf4782a6eb04ddf9962d,65d2b6c8f2eece985d8e374c,65d2def2aaec44a00e5b80a2,0.0683,0.0684,1,107,269,130,1,sixfive,,,,,,,,,,,,,,,,,,,,,,,,,,,,,,,,,,,,,,,,,,,,,,,,,,,,,,,,,,,,,,,,,,,,,,,,,,,,,,,,,,,,,,,,,,,,,,,,,,,,,,,,,,,,,,,,,,,,,,,,,,,,,,,,,,,,,,,,,
,,5ed8cf4782a6eb04ddf9962d,2024-02-19_05h55.08.240,kallum_motion_pilot,2023.2.2,Win32,10,5ed8cf4782a6eb04ddf9962d,65d2b6c8f2eece985d8e374c,65d2def2aaec44a00e5b80a2,0.0685,0.0686,1,108,270,159,1,eightseven,,,,,,,,,,,,,,,,,,,,,,,,,,,,,,,,,,,,,,,,,,,,,,,,,,,,,,,,,,,,,,,,,,,,,,,,,,,,,,,,,,,,,,,,,,,,,,,,,,,,,,,,,,,,,,,,,,,,,,,,,,,,,,,,,,,,,,,,,
,,5ed8cf4782a6eb04ddf9962d,2024-02-19_05h55.08.240,kallum_motion_pilot,2023.2.2,Win32,10,5ed8cf4782a6eb04ddf9962d,65d2b6c8f2eece985d8e374c,65d2def2aaec44a00e5b80a2,0.0687,0.0687,1,109,271,158,1,eightsix,,,,,,,,,,,,,,,,,,,,,,,,,,,,,,,,,,,,,,,,,,,,,,,,,,,,,,,,,,,,,,,,,,,,,,,,,,,,,,,,,,,,,,,,,,,,,,,,,,,,,,,,,,,,,,,,,,,,,,,,,,,,,,,,,,,,,,,,,
,,5ed8cf4782a6eb04ddf9962d,2024-02-19_05h55.08.240,kallum_motion_pilot,2023.2.2,Win32,10,5ed8cf4782a6eb04ddf9962d,65d2b6c8f2eece985d8e374c,65d2def2aaec44a00e5b80a2,0.0689,0.0689,1,110,272,16,1,onetwo,,,,,,,,,,,,,,,,,,,,,,,,,,,,,,,,,,,,,,,,,,,,,,,,,,,,,,,,,,,,,,,,,,,,,,,,,,,,,,,,,,,,,,,,,,,,,,,,,,,,,,,,,,,,,,,,,,,,,,,,,,,,,,,,,,,,,,,,,
,,5ed8cf4782a6eb04ddf9962d,2024-02-19_05h55.08.240,kallum_motion_pilot,2023.2.2,Win32,10,5ed8cf4782a6eb04ddf9962d,65d2b6c8f2eece985d8e374c,65d2def2aaec44a00e5b80a2,0.069,0.0691,1,111,273,35,1,twofour,,,,,,,,,,,,,,,,,,,,,,,,,,,,,,,,,,,,,,,,,,,,,,,,,,,,,,,,,,,,,,,,,,,,,,,,,,,,,,,,,,,,,,,,,,,,,,,,,,,,,,,,,,,,,,,,,,,,,,,,,,,,,,,,,,,,,,,,,
,,5ed8cf4782a6eb04ddf9962d,2024-02-19_05h55.08.240,kallum_motion_pilot,2023.2.2,Win32,10,5ed8cf4782a6eb04ddf9962d,65d2b6c8f2eece985d8e374c,65d2def2aaec44a00e5b80a2,0.0692,0.0693,1,112,274,150,1,eightsix,,,,,,,,,,,,,,,,,,,,,,,,,,,,,,,,,,,,,,,,,,,,,,,,,,,,,,,,,,,,,,,,,,,,,,,,,,,,,,,,,,,,,,,,,,,,,,,,,,,,,,,,,,,,,,,,,,,,,,,,,,,,,,,,,,,,,,,,,
,,5ed8cf4782a6eb04ddf9962d,2024-02-19_05h55.08.240,kallum_motion_pilot,2023.2.2,Win32,10,5ed8cf4782a6eb04ddf9962d,65d2b6c8f2eece985d8e374c,65d2def2aaec44a00e5b80a2,0.0694,0.0695,1,113,275,139,1,sixeight,,,,,,,,,,,,,,,,,,,,,,,,,,,,,,,,,,,,,,,,,,,,,,,,,,,,,,,,,,,,,,,,,,,,,,,,,,,,,,,,,,,,,,,,,,,,,,,,,,,,,,,,,,,,,,,,,,,,,,,,,,,,,,,,,,,,,,,,,
,,5ed8cf4782a6eb04ddf9962d,2024-02-19_05h55.08.240,kallum_motion_pilot,2023.2.2,Win32,10,5ed8cf4782a6eb04ddf9962d,65d2b6c8f2eece985d8e374c,65d2def2aaec44a00e5b80a2,0.0696,0.0697,1,114,276,31,1,fourthree,,,,,,,,,,,,,,,,,,,,,,,,,,,,,,,,,,,,,,,,,,,,,,,,,,,,,,,,,,,,,,,,,,,,,,,,,,,,,,,,,,,,,,,,,,,,,,,,,,,,,,,,,,,,,,,,,,,,,,,,,,,,,,,,,,,,,,,,,
,,5ed8cf4782a6eb04ddf9962d,2024-02-19_05h55.08.240,kallum_motion_pilot,2023.2.2,Win32,10,5ed8cf4782a6eb04ddf9962d,65d2b6c8f2eece985d8e374c,65d2def2aaec44a00e5b80a2,0.0698,0.0699,1,115,277,115,1,sixeight,,,,,,,,,,,,,,,,,,,,,,,,,,,,,,,,,,,,,,,,,,,,,,,,,,,,,,,,,,,,,,,,,,,,,,,,,,,,,,,,,,,,,,,,,,,,,,,,,,,,,,,,,,,,,,,,,,,,,,,,,,,,,,,,,,,,,,,,,
,,5ed8cf4782a6eb04ddf9962d,2024-02-19_05h55.08.240,kallum_motion_pilot,2023.2.2,Win32,10,5ed8cf4782a6eb04ddf9962d,65d2b6c8f2eece985d8e374c,65d2def2aaec44a00e5b80a2,0.07,0.0701,1,116,278,49,1,onethree,,,,,,,,,,,,,,,,,,,,,,,,,,,,,,,,,,,,,,,,,,,,,,,,,,,,,,,,,,,,,,,,,,,,,,,,,,,,,,,,,,,,,,,,,,,,,,,,,,,,,,,,,,,,,,,,,,,,,,,,,,,,,,,,,,,,,,,,,
,,5ed8cf4782a6eb04ddf9962d,2024-02-19_05h55.08.240,kallum_motion_pilot,2023.2.2,Win32,10,5ed8cf4782a6eb04ddf9962d,65d2b6c8f2eece985d8e374c,65d2def2aaec44a00e5b80a2,0.0701,0.0703,1,117,279,117,1,seveneight,,,,,,,,,,,,,,,,,,,,,,,,,,,,,,,,,,,,,,,,,,,,,,,,,,,,,,,,,,,,,,,,,,,,,,,,,,,,,,,,,,,,,,,,,,,,,,,,,,,,,,,,,,,,,,,,,,,,,,,,,,,,,,,,,,,,,,,,,
,,5ed8cf4782a6eb04ddf9962d,2024-02-19_05h55.08.240,kallum_motion_pilot,2023.2.2,Win32,10,5ed8cf4782a6eb04ddf9962d,65d2b6c8f2eece985d8e374c,65d2def2aaec44a00e5b80a2,0.0704,0.0704,1,118,280,137,1,fiveseven,,,,,,,,,,,,,,,,,,,,,,,,,,,,,,,,,,,,,,,,,,,,,,,,,,,,,,,,,,,,,,,,,,,,,,,,,,,,,,,,,,,,,,,,,,,,,,,,,,,,,,,,,,,,,,,,,,,,,,,,,,,,,,,,,,,,,,,,,
,,5ed8cf4782a6eb04ddf9962d,2024-02-19_05h55.08.240,kallum_motion_pilot,2023.2.2,Win32,10,5ed8cf4782a6eb04ddf9962d,65d2b6c8f2eece985d8e374c,65d2def2aaec44a00e5b80a2,0.0706,0.0707,1,119,281,53,1,threefour,,,,,,,,,,,,,,,,,,,,,,,,,,,,,,,,,,,,,,,,,,,,,,,,,,,,,,,,,,,,,,,,,,,,,,,,,,,,,,,,,,,,,,,,,,,,,,,,,,,,,,,,,,,,,,,,,,,,,,,,,,,,,,,,,,,,,,,,,
,,5ed8cf4782a6eb04ddf9962d,2024-02-19_05h55.08.240,kallum_motion_pilot,2023.2.2,Win32,10,5ed8cf4782a6eb04ddf9962d,65d2b6c8f2eece985d8e374c,65d2def2aaec44a00e5b80a2,0.0707,0.0708,1,120,282,93,1,seveneight,,,,,,,,,,,,,,,,,,,,,,,,,,,,,,,,,,,,,,,,,,,,,,,,,,,,,,,,,,,,,,,,,,,,,,,,,,,,,,,,,,,,,,,,,,,,,,,,,,,,,,,,,,,,,,,,,,,,,,,,,,,,,,,,,,,,,,,,,
,,5ed8cf4782a6eb04ddf9962d,2024-02-19_05h55.08.240,kallum_motion_pilot,2023.2.2,Win32,10,5ed8cf4782a6eb04ddf9962d,65d2b6c8f2eece985d8e374c,65d2def2aaec44a00e5b80a2,0.0709,0.071,1,121,283,133,1,seveneight,,,,,,,,,,,,,,,,,,,,,,,,,,,,,,,,,,,,,,,,,,,,,,,,,,,,,,,,,,,,,,,,,,,,,,,,,,,,,,,,,,,,,,,,,,,,,,,,,,,,,,,,,,,,,,,,,,,,,,,,,,,,,,,,,,,,,,,,,
,,5ed8cf4782a6eb04ddf9962d,2024-02-19_05h55.08.240,kallum_motion_pilot,2023.2.2,Win32,10,5ed8cf4782a6eb04ddf9962d,65d2b6c8f2eece985d8e374c,65d2def2aaec44a00e5b80a2,0.0711,0.0712,1,122,284,80,1,fivesix,,,,,,,,,,,,,,,,,,,,,,,,,,,,,,,,,,,,,,,,,,,,,,,,,,,,,,,,,,,,,,,,,,,,,,,,,,,,,,,,,,,,,,,,,,,,,,,,,,,,,,,,,,,,,,,,,,,,,,,,,,,,,,,,,,,,,,,,,
,,5ed8cf4782a6eb04ddf9962d,2024-02-19_05h55.08.240,kallum_motion_pilot,2023.2.2,Win32,10,5ed8cf4782a6eb04ddf9962d,65d2b6c8f2eece985d8e374c,65d2def2aaec44a00e5b80a2,0.0712,0.0714,1,123,285,121,1,fiveseven,,,,,,,,,,,,,,,,,,,,,,,,,,,,,,,,,,,,,,,,,,,,,,,,,,,,,,,,,,,,,,,,,,,,,,,,,,,,,,,,,,,,,,,,,,,,,,,,,,,,,,,,,,,,,,,,,,,,,,,,,,,,,,,,,,,,,,,,,
