startup.started,startup.stopped,Prolific ID*,date,expName,psychopyVersion,OS,frameRate,participant,study_id,session,stimpositions.started,stimpositions.stopped,hardcoded_stimulus_positions.thisRepN,hardcoded_stimulus_positions.thisTrialN,hardcoded_stimulus_positions.thisN,hardcoded_stimulus_positions.thisIndex,hardcoded_stimulus_positions.ran,StimulusPos,stimorientation.started,stimorientation.stopped,prac_stimorientation_import_loop.thisRepN,prac_stimorientation_import_loop.thisTrialN,prac_stimorientation_import_loop.thisN,prac_stimorientation_import_loop.thisIndex,prac_stimorientation_import_loop.ran,Stimorientation,welcome_instr.started,welcome_instr.stopped,key_resp.keys,key_resp.rt,key_resp.duration,response_steppedout_1.started,response_steppedout_1.stopped,key_resp_20.keys,key_resp_20.rt,key_resp_20.duration,response_steppedout_2.started,response_steppedout_2.stopped,key_resp_19.keys,key_resp_19.rt,key_resp_19.duration,stim_response_instr.started,stim_response_instr.stopped,key_resp_15.keys,key_resp_15.rt,key_resp_15.duration,direction_instr_2.started,direction_instr_2.stopped,key_resp_9.keys,key_resp_9.rt,key_resp_9.duration,instr_prac.started,instr_prac.stopped,key_resp_10.keys,key_resp_10.rt,key_resp_10.duration,Stim1_display_prac.started,Stim1_display_prac.stopped,Ecc,Circle1_ori,Circle2_ori,response_prac.started,similarity,response_time,response_prac.stopped,mouse_5.x,mouse_5.y,mouse_5.leftButton,mouse_5.midButton,mouse_5.rightButton,mouse_5.clicked_name,responseprac_feedback.started,responseprac_feedback.stopped,summary2_prac.started,summary2_prac.stopped,mouse_6.x,mouse_6.y,mouse_6.leftButton,mouse_6.midButton,mouse_6.rightButton,mouse_6.clicked_name,duringprac.thisRepN,duringprac.thisTrialN,duringprac.thisN,duringprac.thisIndex,duringprac.ran,begin.started,begin.stopped,key_resp_22.keys,key_resp_22.rt,key_resp_22.duration,Stim1_display.started,Stim1_display.stopped,circle1_ori,circle2_ori,circle1_SF,circle2_SF,response.started,response.stopped,mouse.x,mouse.y,mouse.leftButton,mouse.midButton,mouse.rightButton,mouse.clicked_name,trialnumber,double_pass.thisRepN,double_pass.thisTrialN,double_pass.thisN,double_pass.thisIndex,double_pass.ran,double_pass.order,main_trial.thisRepN,main_trial.thisTrialN,main_trial.thisN,main_trial.thisIndex,main_trial.ran,main_trial.order,Trial_Counter,Catch,Frequencies,response_2.started,response_2.stopped,mouse_2.x,mouse_2.y,mouse_2.leftButton,mouse_2.midButton,mouse_2.rightButton,mouse_2.clicked_name,special_trial.started,special_trial.stopped,catch_1.started,catch_1.stopped,mouse_3.x,mouse_3.y,mouse_3.leftButton,mouse_3.midButton,mouse_3.rightButton,catchresponse,catchnumber,response_time_catch,response_sum.started,response_sum.stopped,mouse_11.x,mouse_11.y,mouse_11.leftButton,mouse_11.midButton,mouse_11.rightButton,flip_presentation_sequence_for_double_pass.started,flip_presentation_sequence_for_double_pass.stopped,goodbye.started,goodbye.stopped,key_resp_3.keys,key_resp_3.rt,key_resp_3.duration
0.0007,0.0009,5edc3d681a69d49159555f91,2024-02-19_03h19.18.942,kallum_motion_pilot,2023.2.2,Win32,58.82352941,5edc3d681a69d49159555f91,65d2b6c8f2eece985d8e374c,65d2b9d98a991a46c4571428,,,,,,,,,,,,,,,,,,,,,,,,,,,,,,,,,,,,,,,,,,,,,,,,,,,,,,,,,,,,,,,,,,,,,,,,,,,,,,,,,,,,,,,,,,,,,,,,,,,,,,,,,,,,,,,,,,,,,,,,,,,,,,,,,,,,,,,,,,,,,,,,,
,,5edc3d681a69d49159555f91,2024-02-19_03h19.18.942,kallum_motion_pilot,2023.2.2,Win32,58.82352941,5edc3d681a69d49159555f91,65d2b6c8f2eece985d8e374c,65d2b9d98a991a46c4571428,0.0376,0.0379,0,0,0,143,1,eightseven,,,,,,,,,,,,,,,,,,,,,,,,,,,,,,,,,,,,,,,,,,,,,,,,,,,,,,,,,,,,,,,,,,,,,,,,,,,,,,,,,,,,,,,,,,,,,,,,,,,,,,,,,,,,,,,,,,,,,,,,,,,,,,,,,,,,,,,,,
,,5edc3d681a69d49159555f91,2024-02-19_03h19.18.942,kallum_motion_pilot,2023.2.2,Win32,58.82352941,5edc3d681a69d49159555f91,65d2b6c8f2eece985d8e374c,65d2b9d98a991a46c4571428,0.0387,0.0388,0,1,1,27,1,twofour,,,,,,,,,,,,,,,,,,,,,,,,,,,,,,,,,,,,,,,,,,,,,,,,,,,,,,,,,,,,,,,,,,,,,,,,,,,,,,,,,,,,,,,,,,,,,,,,,,,,,,,,,,,,,,,,,,,,,,,,,,,,,,,,,,,,,,,,,
,,5edc3d681a69d49159555f91,2024-02-19_03h19.18.942,kallum_motion_pilot,2023.2.2,Win32,58.82352941,5edc3d681a69d49159555f91,65d2b6c8f2eece985d8e374c,65d2b9d98a991a46c4571428,0.039,0.0392,0,2,2,89,1,fiveseven,,,,,,,,,,,,,,,,,,,,,,,,,,,,,,,,,,,,,,,,,,,,,,,,,,,,,,,,,,,,,,,,,,,,,,,,,,,,,,,,,,,,,,,,,,,,,,,,,,,,,,,,,,,,,,,,,,,,,,,,,,,,,,,,,,,,,,,,,
,,5edc3d681a69d49159555f91,2024-02-19_03h19.18.942,kallum_motion_pilot,2023.2.2,Win32,58.82352941,5edc3d681a69d49159555f91,65d2b6c8f2eece985d8e374c,65d2b9d98a991a46c4571428,0.0396,0.0398,0,3,3,37,1,threefour,,,,,,,,,,,,,,,,,,,,,,,,,,,,,,,,,,,,,,,,,,,,,,,,,,,,,,,,,,,,,,,,,,,,,,,,,,,,,,,,,,,,,,,,,,,,,,,,,,,,,,,,,,,,,,,,,,,,,,,,,,,,,,,,,,,,,,,,,
,,5edc3d681a69d49159555f91,2024-02-19_03h19.18.942,kallum_motion_pilot,2023.2.2,Win32,58.82352941,5edc3d681a69d49159555f91,65d2b6c8f2eece985d8e374c,65d2b9d98a991a46c4571428,0.0407,0.0408,0,4,4,51,1,twofour,,,,,,,,,,,,,,,,,,,,,,,,,,,,,,,,,,,,,,,,,,,,,,,,,,,,,,,,,,,,,,,,,,,,,,,,,,,,,,,,,,,,,,,,,,,,,,,,,,,,,,,,,,,,,,,,,,,,,,,,,,,,,,,,,,,,,,,,,
,,5edc3d681a69d49159555f91,2024-02-19_03h19.18.942,kallum_motion_pilot,2023.2.2,Win32,58.82352941,5edc3d681a69d49159555f91,65d2b6c8f2eece985d8e374c,65d2b9d98a991a46c4571428,0.0411,0.0412,0,5,5,133,1,seveneight,,,,,,,,,,,,,,,,,,,,,,,,,,,,,,,,,,,,,,,,,,,,,,,,,,,,,,,,,,,,,,,,,,,,,,,,,,,,,,,,,,,,,,,,,,,,,,,,,,,,,,,,,,,,,,,,,,,,,,,,,,,,,,,,,,,,,,,,,
,,5edc3d681a69d49159555f91,2024-02-19_03h19.18.942,kallum_motion_pilot,2023.2.2,Win32,58.82352941,5edc3d681a69d49159555f91,65d2b6c8f2eece985d8e374c,65d2b9d98a991a46c4571428,0.0414,0.0416,0,6,6,152,1,fivesix,,,,,,,,,,,,,,,,,,,,,,,,,,,,,,,,,,,,,,,,,,,,,,,,,,,,,,,,,,,,,,,,,,,,,,,,,,,,,,,,,,,,,,,,,,,,,,,,,,,,,,,,,,,,,,,,,,,,,,,,,,,,,,,,,,,,,,,,,
,,5edc3d681a69d49159555f91,2024-02-19_03h19.18.942,kallum_motion_pilot,2023.2.2,Win32,58.82352941,5edc3d681a69d49159555f91,65d2b6c8f2eece985d8e374c,65d2b9d98a991a46c4571428,0.0418,0.0418,0,7,7,136,1,fivesix,,,,,,,,,,,,,,,,,,,,,,,,,,,,,,,,,,,,,,,,,,,,,,,,,,,,,,,,,,,,,,,,,,,,,,,,,,,,,,,,,,,,,,,,,,,,,,,,,,,,,,,,,,,,,,,,,,,,,,,,,,,,,,,,,,,,,,,,,
,,5edc3d681a69d49159555f91,2024-02-19_03h19.18.942,kallum_motion_pilot,2023.2.2,Win32,58.82352941,5edc3d681a69d49159555f91,65d2b6c8f2eece985d8e374c,65d2b9d98a991a46c4571428,0.0421,0.0422,0,8,8,59,1,twofour,,,,,,,,,,,,,,,,,,,,,,,,,,,,,,,,,,,,,,,,,,,,,,,,,,,,,,,,,,,,,,,,,,,,,,,,,,,,,,,,,,,,,,,,,,,,,,,,,,,,,,,,,,,,,,,,,,,,,,,,,,,,,,,,,,,,,,,,,
,,5edc3d681a69d49159555f91,2024-02-19_03h19.18.942,kallum_motion_pilot,2023.2.2,Win32,58.82352941,5edc3d681a69d49159555f91,65d2b6c8f2eece985d8e374c,65d2b9d98a991a46c4571428,0.0425,0.0425,0,9,9,14,1,fourtwo,,,,,,,,,,,,,,,,,,,,,,,,,,,,,,,,,,,,,,,,,,,,,,,,,,,,,,,,,,,,,,,,,,,,,,,,,,,,,,,,,,,,,,,,,,,,,,,,,,,,,,,,,,,,,,,,,,,,,,,,,,,,,,,,,,,,,,,,,
,,5edc3d681a69d49159555f91,2024-02-19_03h19.18.942,kallum_motion_pilot,2023.2.2,Win32,58.82352941,5edc3d681a69d49159555f91,65d2b6c8f2eece985d8e374c,65d2b9d98a991a46c4571428,0.0427,0.0428,0,10,10,99,1,sixeight,,,,,,,,,,,,,,,,,,,,,,,,,,,,,,,,,,,,,,,,,,,,,,,,,,,,,,,,,,,,,,,,,,,,,,,,,,,,,,,,,,,,,,,,,,,,,,,,,,,,,,,,,,,,,,,,,,,,,,,,,,,,,,,,,,,,,,,,,
,,5edc3d681a69d49159555f91,2024-02-19_03h19.18.942,kallum_motion_pilot,2023.2.2,Win32,58.82352941,5edc3d681a69d49159555f91,65d2b6c8f2eece985d8e374c,65d2b9d98a991a46c4571428,0.0429,0.0429,0,11,11,44,1,threeone,,,,,,,,,,,,,,,,,,,,,,,,,,,,,,,,,,,,,,,,,,,,,,,,,,,,,,,,,,,,,,,,,,,,,,,,,,,,,,,,,,,,,,,,,,,,,,,,,,,,,,,,,,,,,,,,,,,,,,,,,,,,,,,,,,,,,,,,,
,,5edc3d681a69d49159555f91,2024-02-19_03h19.18.942,kallum_motion_pilot,2023.2.2,Win32,58.82352941,5edc3d681a69d49159555f91,65d2b6c8f2eece985d8e374c,65d2b9d98a991a46c4571428,0.0431,0.0432,0,12,12,61,1,threefour,,,,,,,,,,,,,,,,,,,,,,,,,,,,,,,,,,,,,,,,,,,,,,,,,,,,,,,,,,,,,,,,,,,,,,,,,,,,,,,,,,,,,,,,,,,,,,,,,,,,,,,,,,,,,,,,,,,,,,,,,,,,,,,,,,,,,,,,,
,,5edc3d681a69d49159555f91,2024-02-19_03h19.18.942,kallum_motion_pilot,2023.2.2,Win32,58.82352941,5edc3d681a69d49159555f91,65d2b6c8f2eece985d8e374c,65d2b9d98a991a46c4571428,0.0433,0.0434,0,13,13,109,1,seveneight,,,,,,,,,,,,,,,,,,,,,,,,,,,,,,,,,,,,,,,,,,,,,,,,,,,,,,,,,,,,,,,,,,,,,,,,,,,,,,,,,,,,,,,,,,,,,,,,,,,,,,,,,,,,,,,,,,,,,,,,,,,,,,,,,,,,,,,,,
,,5edc3d681a69d49159555f91,2024-02-19_03h19.18.942,kallum_motion_pilot,2023.2.2,Win32,58.82352941,5edc3d681a69d49159555f91,65d2b6c8f2eece985d8e374c,65d2b9d98a991a46c4571428,0.0436,0.0436,0,14,14,115,1,sixeight,,,,,,,,,,,,,,,,,,,,,,,,,,,,,,,,,,,,,,,,,,,,,,,,,,,,,,,,,,,,,,,,,,,,,,,,,,,,,,,,,,,,,,,,,,,,,,,,,,,,,,,,,,,,,,,,,,,,,,,,,,,,,,,,,,,,,,,,,
,,5edc3d681a69d49159555f91,2024-02-19_03h19.18.942,kallum_motion_pilot,2023.2.2,Win32,58.82352941,5edc3d681a69d49159555f91,65d2b6c8f2eece985d8e374c,65d2b9d98a991a46c4571428,0.0439,0.0439,0,15,15,81,1,fiveseven,,,,,,,,,,,,,,,,,,,,,,,,,,,,,,,,,,,,,,,,,,,,,,,,,,,,,,,,,,,,,,,,,,,,,,,,,,,,,,,,,,,,,,,,,,,,,,,,,,,,,,,,,,,,,,,,,,,,,,,,,,,,,,,,,,,,,,,,,
,,5edc3d681a69d49159555f91,2024-02-19_03h19.18.942,kallum_motion_pilot,2023.2.2,Win32,58.82352941,5edc3d681a69d49159555f91,65d2b6c8f2eece985d8e374c,65d2b9d98a991a46c4571428,0.0441,0.0441,0,16,16,36,1,threeone,,,,,,,,,,,,,,,,,,,,,,,,,,,,,,,,,,,,,,,,,,,,,,,,,,,,,,,,,,,,,,,,,,,,,,,,,,,,,,,,,,,,,,,,,,,,,,,,,,,,,,,,,,,,,,,,,,,,,,,,,,,,,,,,,,,,,,,,,
,,5edc3d681a69d49159555f91,2024-02-19_03h19.18.942,kallum_motion_pilot,2023.2.2,Win32,58.82352941,5edc3d681a69d49159555f91,65d2b6c8f2eece985d8e374c,65d2b9d98a991a46c4571428,0.0442,0.0443,0,17,17,68,1,threeone,,,,,,,,,,,,,,,,,,,,,,,,,,,,,,,,,,,,,,,,,,,,,,,,,,,,,,,,,,,,,,,,,,,,,,,,,,,,,,,,,,,,,,,,,,,,,,,,,,,,,,,,,,,,,,,,,,,,,,,,,,,,,,,,,,,,,,,,,
,,5edc3d681a69d49159555f91,2024-02-19_03h19.18.942,kallum_motion_pilot,2023.2.2,Win32,58.82352941,5edc3d681a69d49159555f91,65d2b6c8f2eece985d8e374c,65d2b9d98a991a46c4571428,0.0445,0.0445,0,18,18,32,1,onetwo,,,,,,,,,,,,,,,,,,,,,,,,,,,,,,,,,,,,,,,,,,,,,,,,,,,,,,,,,,,,,,,,,,,,,,,,,,,,,,,,,,,,,,,,,,,,,,,,,,,,,,,,,,,,,,,,,,,,,,,,,,,,,,,,,,,,,,,,,
,,5edc3d681a69d49159555f91,2024-02-19_03h19.18.942,kallum_motion_pilot,2023.2.2,Win32,58.82352941,5edc3d681a69d49159555f91,65d2b6c8f2eece985d8e374c,65d2b9d98a991a46c4571428,0.0448,0.0448,0,19,19,72,1,onetwo,,,,,,,,,,,,,,,,,,,,,,,,,,,,,,,,,,,,,,,,,,,,,,,,,,,,,,,,,,,,,,,,,,,,,,,,,,,,,,,,,,,,,,,,,,,,,,,,,,,,,,,,,,,,,,,,,,,,,,,,,,,,,,,,,,,,,,,,,
,,5edc3d681a69d49159555f91,2024-02-19_03h19.18.942,kallum_motion_pilot,2023.2.2,Win32,58.82352941,5edc3d681a69d49159555f91,65d2b6c8f2eece985d8e374c,65d2b9d98a991a46c4571428,0.0451,0.0451,0,20,20,128,1,fivesix,,,,,,,,,,,,,,,,,,,,,,,,,,,,,,,,,,,,,,,,,,,,,,,,,,,,,,,,,,,,,,,,,,,,,,,,,,,,,,,,,,,,,,,,,,,,,,,,,,,,,,,,,,,,,,,,,,,,,,,,,,,,,,,,,,,,,,,,,
,,5edc3d681a69d49159555f91,2024-02-19_03h19.18.942,kallum_motion_pilot,2023.2.2,Win32,58.82352941,5edc3d681a69d49159555f91,65d2b6c8f2eece985d8e374c,65d2b9d98a991a46c4571428,0.0452,0.0453,0,21,21,130,1,sixfive,,,,,,,,,,,,,,,,,,,,,,,,,,,,,,,,,,,,,,,,,,,,,,,,,,,,,,,,,,,,,,,,,,,,,,,,,,,,,,,,,,,,,,,,,,,,,,,,,,,,,,,,,,,,,,,,,,,,,,,,,,,,,,,,,,,,,,,,,
,,5edc3d681a69d49159555f91,2024-02-19_03h19.18.942,kallum_motion_pilot,2023.2.2,Win32,58.82352941,5edc3d681a69d49159555f91,65d2b6c8f2eece985d8e374c,65d2b9d98a991a46c4571428,0.0455,0.0457,0,22,22,48,1,onetwo,,,,,,,,,,,,,,,,,,,,,,,,,,,,,,,,,,,,,,,,,,,,,,,,,,,,,,,,,,,,,,,,,,,,,,,,,,,,,,,,,,,,,,,,,,,,,,,,,,,,,,,,,,,,,,,,,,,,,,,,,,,,,,,,,,,,,,,,,
,,5edc3d681a69d49159555f91,2024-02-19_03h19.18.942,kallum_motion_pilot,2023.2.2,Win32,58.82352941,5edc3d681a69d49159555f91,65d2b6c8f2eece985d8e374c,65d2b9d98a991a46c4571428,0.0458,0.0459,0,23,23,57,1,onethree,,,,,,,,,,,,,,,,,,,,,,,,,,,,,,,,,,,,,,,,,,,,,,,,,,,,,,,,,,,,,,,,,,,,,,,,,,,,,,,,,,,,,,,,,,,,,,,,,,,,,,,,,,,,,,,,,,,,,,,,,,,,,,,,,,,,,,,,,
,,5edc3d681a69d49159555f91,2024-02-19_03h19.18.942,kallum_motion_pilot,2023.2.2,Win32,58.82352941,5edc3d681a69d49159555f91,65d2b6c8f2eece985d8e374c,65d2b9d98a991a46c4571428,0.046,0.0461,0,24,24,132,1,sevenfive,,,,,,,,,,,,,,,,,,,,,,,,,,,,,,,,,,,,,,,,,,,,,,,,,,,,,,,,,,,,,,,,,,,,,,,,,,,,,,,,,,,,,,,,,,,,,,,,,,,,,,,,,,,,,,,,,,,,,,,,,,,,,,,,,,,,,,,,,
,,5edc3d681a69d49159555f91,2024-02-19_03h19.18.942,kallum_motion_pilot,2023.2.2,Win32,58.82352941,5edc3d681a69d49159555f91,65d2b6c8f2eece985d8e374c,65d2b9d98a991a46c4571428,0.0464,0.0464,0,25,25,8,1,onetwo,,,,,,,,,,,,,,,,,,,,,,,,,,,,,,,,,,,,,,,,,,,,,,,,,,,,,,,,,,,,,,,,,,,,,,,,,,,,,,,,,,,,,,,,,,,,,,,,,,,,,,,,,,,,,,,,,,,,,,,,,,,,,,,,,,,,,,,,,
,,5edc3d681a69d49159555f91,2024-02-19_03h19.18.942,kallum_motion_pilot,2023.2.2,Win32,58.82352941,5edc3d681a69d49159555f91,65d2b6c8f2eece985d8e374c,65d2b9d98a991a46c4571428,0.0466,0.0466,0,26,26,129,1,fiveseven,,,,,,,,,,,,,,,,,,,,,,,,,,,,,,,,,,,,,,,,,,,,,,,,,,,,,,,,,,,,,,,,,,,,,,,,,,,,,,,,,,,,,,,,,,,,,,,,,,,,,,,,,,,,,,,,,,,,,,,,,,,,,,,,,,,,,,,,,
,,5edc3d681a69d49159555f91,2024-02-19_03h19.18.942,kallum_motion_pilot,2023.2.2,Win32,58.82352941,5edc3d681a69d49159555f91,65d2b6c8f2eece985d8e374c,65d2b9d98a991a46c4571428,0.0468,0.0469,0,27,27,63,1,fourthree,,,,,,,,,,,,,,,,,,,,,,,,,,,,,,,,,,,,,,,,,,,,,,,,,,,,,,,,,,,,,,,,,,,,,,,,,,,,,,,,,,,,,,,,,,,,,,,,,,,,,,,,,,,,,,,,,,,,,,,,,,,,,,,,,,,,,,,,,
,,5edc3d681a69d49159555f91,2024-02-19_03h19.18.942,kallum_motion_pilot,2023.2.2,Win32,58.82352941,5edc3d681a69d49159555f91,65d2b6c8f2eece985d8e374c,65d2b9d98a991a46c4571428,0.047,0.0471,0,28,28,75,1,twofour,,,,,,,,,,,,,,,,,,,,,,,,,,,,,,,,,,,,,,,,,,,,,,,,,,,,,,,,,,,,,,,,,,,,,,,,,,,,,,,,,,,,,,,,,,,,,,,,,,,,,,,,,,,,,,,,,,,,,,,,,,,,,,,,,,,,,,,,,
,,5edc3d681a69d49159555f91,2024-02-19_03h19.18.942,kallum_motion_pilot,2023.2.2,Win32,58.82352941,5edc3d681a69d49159555f91,65d2b6c8f2eece985d8e374c,65d2b9d98a991a46c4571428,0.0473,0.0474,0,29,29,127,1,eightseven,,,,,,,,,,,,,,,,,,,,,,,,,,,,,,,,,,,,,,,,,,,,,,,,,,,,,,,,,,,,,,,,,,,,,,,,,,,,,,,,,,,,,,,,,,,,,,,,,,,,,,,,,,,,,,,,,,,,,,,,,,,,,,,,,,,,,,,,,
,,5edc3d681a69d49159555f91,2024-02-19_03h19.18.942,kallum_motion_pilot,2023.2.2,Win32,58.82352941,5edc3d681a69d49159555f91,65d2b6c8f2eece985d8e374c,65d2b9d98a991a46c4571428,0.0476,0.0477,0,30,30,155,1,sixeight,,,,,,,,,,,,,,,,,,,,,,,,,,,,,,,,,,,,,,,,,,,,,,,,,,,,,,,,,,,,,,,,,,,,,,,,,,,,,,,,,,,,,,,,,,,,,,,,,,,,,,,,,,,,,,,,,,,,,,,,,,,,,,,,,,,,,,,,,
,,5edc3d681a69d49159555f91,2024-02-19_03h19.18.942,kallum_motion_pilot,2023.2.2,Win32,58.82352941,5edc3d681a69d49159555f91,65d2b6c8f2eece985d8e374c,65d2b9d98a991a46c4571428,0.0478,0.0479,0,31,31,124,1,sevenfive,,,,,,,,,,,,,,,,,,,,,,,,,,,,,,,,,,,,,,,,,,,,,,,,,,,,,,,,,,,,,,,,,,,,,,,,,,,,,,,,,,,,,,,,,,,,,,,,,,,,,,,,,,,,,,,,,,,,,,,,,,,,,,,,,,,,,,,,,
,,5edc3d681a69d49159555f91,2024-02-19_03h19.18.942,kallum_motion_pilot,2023.2.2,Win32,58.82352941,5edc3d681a69d49159555f91,65d2b6c8f2eece985d8e374c,65d2b9d98a991a46c4571428,0.0481,0.0482,0,32,32,85,1,seveneight,,,,,,,,,,,,,,,,,,,,,,,,,,,,,,,,,,,,,,,,,,,,,,,,,,,,,,,,,,,,,,,,,,,,,,,,,,,,,,,,,,,,,,,,,,,,,,,,,,,,,,,,,,,,,,,,,,,,,,,,,,,,,,,,,,,,,,,,,
,,5edc3d681a69d49159555f91,2024-02-19_03h19.18.942,kallum_motion_pilot,2023.2.2,Win32,58.82352941,5edc3d681a69d49159555f91,65d2b6c8f2eece985d8e374c,65d2b9d98a991a46c4571428,0.0485,0.0487,0,33,33,96,1,fivesix,,,,,,,,,,,,,,,,,,,,,,,,,,,,,,,,,,,,,,,,,,,,,,,,,,,,,,,,,,,,,,,,,,,,,,,,,,,,,,,,,,,,,,,,,,,,,,,,,,,,,,,,,,,,,,,,,,,,,,,,,,,,,,,,,,,,,,,,,
,,5edc3d681a69d49159555f91,2024-02-19_03h19.18.942,kallum_motion_pilot,2023.2.2,Win32,58.82352941,5edc3d681a69d49159555f91,65d2b6c8f2eece985d8e374c,65d2b9d98a991a46c4571428,0.0489,0.0491,0,34,34,74,1,twoone,,,,,,,,,,,,,,,,,,,,,,,,,,,,,,,,,,,,,,,,,,,,,,,,,,,,,,,,,,,,,,,,,,,,,,,,,,,,,,,,,,,,,,,,,,,,,,,,,,,,,,,,,,,,,,,,,,,,,,,,,,,,,,,,,,,,,,,,,
,,5edc3d681a69d49159555f91,2024-02-19_03h19.18.942,kallum_motion_pilot,2023.2.2,Win32,58.82352941,5edc3d681a69d49159555f91,65d2b6c8f2eece985d8e374c,65d2b9d98a991a46c4571428,0.0493,0.0493,0,35,35,114,1,sixfive,,,,,,,,,,,,,,,,,,,,,,,,,,,,,,,,,,,,,,,,,,,,,,,,,,,,,,,,,,,,,,,,,,,,,,,,,,,,,,,,,,,,,,,,,,,,,,,,,,,,,,,,,,,,,,,,,,,,,,,,,,,,,,,,,,,,,,,,,
,,5edc3d681a69d49159555f91,2024-02-19_03h19.18.942,kallum_motion_pilot,2023.2.2,Win32,58.82352941,5edc3d681a69d49159555f91,65d2b6c8f2eece985d8e374c,65d2b9d98a991a46c4571428,0.0495,0.0496,0,36,36,53,1,threefour,,,,,,,,,,,,,,,,,,,,,,,,,,,,,,,,,,,,,,,,,,,,,,,,,,,,,,,,,,,,,,,,,,,,,,,,,,,,,,,,,,,,,,,,,,,,,,,,,,,,,,,,,,,,,,,,,,,,,,,,,,,,,,,,,,,,,,,,,
,,5edc3d681a69d49159555f91,2024-02-19_03h19.18.942,kallum_motion_pilot,2023.2.2,Win32,58.82352941,5edc3d681a69d49159555f91,65d2b6c8f2eece985d8e374c,65d2b9d98a991a46c4571428,0.0497,0.0498,0,37,37,12,1,threeone,,,,,,,,,,,,,,,,,,,,,,,,,,,,,,,,,,,,,,,,,,,,,,,,,,,,,,,,,,,,,,,,,,,,,,,,,,,,,,,,,,,,,,,,,,,,,,,,,,,,,,,,,,,,,,,,,,,,,,,,,,,,,,,,,,,,,,,,,
,,5edc3d681a69d49159555f91,2024-02-19_03h19.18.942,kallum_motion_pilot,2023.2.2,Win32,58.82352941,5edc3d681a69d49159555f91,65d2b6c8f2eece985d8e374c,65d2b9d98a991a46c4571428,0.0501,0.0501,0,38,38,1,1,onethree,,,,,,,,,,,,,,,,,,,,,,,,,,,,,,,,,,,,,,,,,,,,,,,,,,,,,,,,,,,,,,,,,,,,,,,,,,,,,,,,,,,,,,,,,,,,,,,,,,,,,,,,,,,,,,,,,,,,,,,,,,,,,,,,,,,,,,,,,
,,5edc3d681a69d49159555f91,2024-02-19_03h19.18.942,kallum_motion_pilot,2023.2.2,Win32,58.82352941,5edc3d681a69d49159555f91,65d2b6c8f2eece985d8e374c,65d2b9d98a991a46c4571428,0.0503,0.0503,0,39,39,41,1,onethree,,,,,,,,,,,,,,,,,,,,,,,,,,,,,,,,,,,,,,,,,,,,,,,,,,,,,,,,,,,,,,,,,,,,,,,,,,,,,,,,,,,,,,,,,,,,,,,,,,,,,,,,,,,,,,,,,,,,,,,,,,,,,,,,,,,,,,,,,
,,5edc3d681a69d49159555f91,2024-02-19_03h19.18.942,kallum_motion_pilot,2023.2.2,Win32,58.82352941,5edc3d681a69d49159555f91,65d2b6c8f2eece985d8e374c,65d2b9d98a991a46c4571428,0.0506,0.0506,0,40,40,137,1,fiveseven,,,,,,,,,,,,,,,,,,,,,,,,,,,,,,,,,,,,,,,,,,,,,,,,,,,,,,,,,,,,,,,,,,,,,,,,,,,,,,,,,,,,,,,,,,,,,,,,,,,,,,,,,,,,,,,,,,,,,,,,,,,,,,,,,,,,,,,,,
,,5edc3d681a69d49159555f91,2024-02-19_03h19.18.942,kallum_motion_pilot,2023.2.2,Win32,58.82352941,5edc3d681a69d49159555f91,65d2b6c8f2eece985d8e374c,65d2b9d98a991a46c4571428,0.0508,0.0508,0,41,41,77,1,threefour,,,,,,,,,,,,,,,,,,,,,,,,,,,,,,,,,,,,,,,,,,,,,,,,,,,,,,,,,,,,,,,,,,,,,,,,,,,,,,,,,,,,,,,,,,,,,,,,,,,,,,,,,,,,,,,,,,,,,,,,,,,,,,,,,,,,,,,,,
,,5edc3d681a69d49159555f91,2024-02-19_03h19.18.942,kallum_motion_pilot,2023.2.2,Win32,58.82352941,5edc3d681a69d49159555f91,65d2b6c8f2eece985d8e374c,65d2b9d98a991a46c4571428,0.051,0.0511,0,42,42,5,1,threefour,,,,,,,,,,,,,,,,,,,,,,,,,,,,,,,,,,,,,,,,,,,,,,,,,,,,,,,,,,,,,,,,,,,,,,,,,,,,,,,,,,,,,,,,,,,,,,,,,,,,,,,,,,,,,,,,,,,,,,,,,,,,,,,,,,,,,,,,,
,,5edc3d681a69d49159555f91,2024-02-19_03h19.18.942,kallum_motion_pilot,2023.2.2,Win32,58.82352941,5edc3d681a69d49159555f91,65d2b6c8f2eece985d8e374c,65d2b9d98a991a46c4571428,0.0513,0.0513,0,43,43,45,1,threefour,,,,,,,,,,,,,,,,,,,,,,,,,,,,,,,,,,,,,,,,,,,,,,,,,,,,,,,,,,,,,,,,,,,,,,,,,,,,,,,,,,,,,,,,,,,,,,,,,,,,,,,,,,,,,,,,,,,,,,,,,,,,,,,,,,,,,,,,,
,,5edc3d681a69d49159555f91,2024-02-19_03h19.18.942,kallum_motion_pilot,2023.2.2,Win32,58.82352941,5edc3d681a69d49159555f91,65d2b6c8f2eece985d8e374c,65d2b9d98a991a46c4571428,0.0515,0.0515,0,44,44,144,1,fivesix,,,,,,,,,,,,,,,,,,,,,,,,,,,,,,,,,,,,,,,,,,,,,,,,,,,,,,,,,,,,,,,,,,,,,,,,,,,,,,,,,,,,,,,,,,,,,,,,,,,,,,,,,,,,,,,,,,,,,,,,,,,,,,,,,,,,,,,,,
,,5edc3d681a69d49159555f91,2024-02-19_03h19.18.942,kallum_motion_pilot,2023.2.2,Win32,58.82352941,5edc3d681a69d49159555f91,65d2b6c8f2eece985d8e374c,65d2b9d98a991a46c4571428,0.0518,0.0518,0,45,45,54,1,fourtwo,,,,,,,,,,,,,,,,,,,,,,,,,,,,,,,,,,,,,,,,,,,,,,,,,,,,,,,,,,,,,,,,,,,,,,,,,,,,,,,,,,,,,,,,,,,,,,,,,,,,,,,,,,,,,,,,,,,,,,,,,,,,,,,,,,,,,,,,,
,,5edc3d681a69d49159555f91,2024-02-19_03h19.18.942,kallum_motion_pilot,2023.2.2,Win32,58.82352941,5edc3d681a69d49159555f91,65d2b6c8f2eece985d8e374c,65d2b9d98a991a46c4571428,0.052,0.052,0,46,46,20,1,threeone,,,,,,,,,,,,,,,,,,,,,,,,,,,,,,,,,,,,,,,,,,,,,,,,,,,,,,,,,,,,,,,,,,,,,,,,,,,,,,,,,,,,,,,,,,,,,,,,,,,,,,,,,,,,,,,,,,,,,,,,,,,,,,,,,,,,,,,,,
,,5edc3d681a69d49159555f91,2024-02-19_03h19.18.942,kallum_motion_pilot,2023.2.2,Win32,58.82352941,5edc3d681a69d49159555f91,65d2b6c8f2eece985d8e374c,65d2b9d98a991a46c4571428,0.0522,0.0523,0,47,47,103,1,eightseven,,,,,,,,,,,,,,,,,,,,,,,,,,,,,,,,,,,,,,,,,,,,,,,,,,,,,,,,,,,,,,,,,,,,,,,,,,,,,,,,,,,,,,,,,,,,,,,,,,,,,,,,,,,,,,,,,,,,,,,,,,,,,,,,,,,,,,,,,
,,5edc3d681a69d49159555f91,2024-02-19_03h19.18.942,kallum_motion_pilot,2023.2.2,Win32,58.82352941,5edc3d681a69d49159555f91,65d2b6c8f2eece985d8e374c,65d2b9d98a991a46c4571428,0.0525,0.0525,0,48,48,39,1,fourthree,,,,,,,,,,,,,,,,,,,,,,,,,,,,,,,,,,,,,,,,,,,,,,,,,,,,,,,,,,,,,,,,,,,,,,,,,,,,,,,,,,,,,,,,,,,,,,,,,,,,,,,,,,,,,,,,,,,,,,,,,,,,,,,,,,,,,,,,,
,,5edc3d681a69d49159555f91,2024-02-19_03h19.18.942,kallum_motion_pilot,2023.2.2,Win32,58.82352941,5edc3d681a69d49159555f91,65d2b6c8f2eece985d8e374c,65d2b9d98a991a46c4571428,0.0527,0.0527,0,49,49,105,1,fiveseven,,,,,,,,,,,,,,,,,,,,,,,,,,,,,,,,,,,,,,,,,,,,,,,,,,,,,,,,,,,,,,,,,,,,,,,,,,,,,,,,,,,,,,,,,,,,,,,,,,,,,,,,,,,,,,,,,,,,,,,,,,,,,,,,,,,,,,,,,
,,5edc3d681a69d49159555f91,2024-02-19_03h19.18.942,kallum_motion_pilot,2023.2.2,Win32,58.82352941,5edc3d681a69d49159555f91,65d2b6c8f2eece985d8e374c,65d2b9d98a991a46c4571428,0.0529,0.053,0,50,50,146,1,sixfive,,,,,,,,,,,,,,,,,,,,,,,,,,,,,,,,,,,,,,,,,,,,,,,,,,,,,,,,,,,,,,,,,,,,,,,,,,,,,,,,,,,,,,,,,,,,,,,,,,,,,,,,,,,,,,,,,,,,,,,,,,,,,,,,,,,,,,,,,
,,5edc3d681a69d49159555f91,2024-02-19_03h19.18.942,kallum_motion_pilot,2023.2.2,Win32,58.82352941,5edc3d681a69d49159555f91,65d2b6c8f2eece985d8e374c,65d2b9d98a991a46c4571428,0.0531,0.0532,0,51,51,6,1,fourtwo,,,,,,,,,,,,,,,,,,,,,,,,,,,,,,,,,,,,,,,,,,,,,,,,,,,,,,,,,,,,,,,,,,,,,,,,,,,,,,,,,,,,,,,,,,,,,,,,,,,,,,,,,,,,,,,,,,,,,,,,,,,,,,,,,,,,,,,,,
,,5edc3d681a69d49159555f91,2024-02-19_03h19.18.942,kallum_motion_pilot,2023.2.2,Win32,58.82352941,5edc3d681a69d49159555f91,65d2b6c8f2eece985d8e374c,65d2b9d98a991a46c4571428,0.0542,0.0543,0,52,52,65,1,onethree,,,,,,,,,,,,,,,,,,,,,,,,,,,,,,,,,,,,,,,,,,,,,,,,,,,,,,,,,,,,,,,,,,,,,,,,,,,,,,,,,,,,,,,,,,,,,,,,,,,,,,,,,,,,,,,,,,,,,,,,,,,,,,,,,,,,,,,,,
,,5edc3d681a69d49159555f91,2024-02-19_03h19.18.942,kallum_motion_pilot,2023.2.2,Win32,58.82352941,5edc3d681a69d49159555f91,65d2b6c8f2eece985d8e374c,65d2b9d98a991a46c4571428,0.0545,0.0546,0,53,53,46,1,fourtwo,,,,,,,,,,,,,,,,,,,,,,,,,,,,,,,,,,,,,,,,,,,,,,,,,,,,,,,,,,,,,,,,,,,,,,,,,,,,,,,,,,,,,,,,,,,,,,,,,,,,,,,,,,,,,,,,,,,,,,,,,,,,,,,,,,,,,,,,,
,,5edc3d681a69d49159555f91,2024-02-19_03h19.18.942,kallum_motion_pilot,2023.2.2,Win32,58.82352941,5edc3d681a69d49159555f91,65d2b6c8f2eece985d8e374c,65d2b9d98a991a46c4571428,0.0554,0.0559,0,54,54,134,1,eightsix,,,,,,,,,,,,,,,,,,,,,,,,,,,,,,,,,,,,,,,,,,,,,,,,,,,,,,,,,,,,,,,,,,,,,,,,,,,,,,,,,,,,,,,,,,,,,,,,,,,,,,,,,,,,,,,,,,,,,,,,,,,,,,,,,,,,,,,,,
,,5edc3d681a69d49159555f91,2024-02-19_03h19.18.942,kallum_motion_pilot,2023.2.2,Win32,58.82352941,5edc3d681a69d49159555f91,65d2b6c8f2eece985d8e374c,65d2b9d98a991a46c4571428,0.0568,0.057,0,55,55,50,1,twoone,,,,,,,,,,,,,,,,,,,,,,,,,,,,,,,,,,,,,,,,,,,,,,,,,,,,,,,,,,,,,,,,,,,,,,,,,,,,,,,,,,,,,,,,,,,,,,,,,,,,,,,,,,,,,,,,,,,,,,,,,,,,,,,,,,,,,,,,,
,,5edc3d681a69d49159555f91,2024-02-19_03h19.18.942,kallum_motion_pilot,2023.2.2,Win32,58.82352941,5edc3d681a69d49159555f91,65d2b6c8f2eece985d8e374c,65d2b9d98a991a46c4571428,0.0572,0.0574,0,56,56,4,1,threeone,,,,,,,,,,,,,,,,,,,,,,,,,,,,,,,,,,,,,,,,,,,,,,,,,,,,,,,,,,,,,,,,,,,,,,,,,,,,,,,,,,,,,,,,,,,,,,,,,,,,,,,,,,,,,,,,,,,,,,,,,,,,,,,,,,,,,,,,,
,,5edc3d681a69d49159555f91,2024-02-19_03h19.18.942,kallum_motion_pilot,2023.2.2,Win32,58.82352941,5edc3d681a69d49159555f91,65d2b6c8f2eece985d8e374c,65d2b9d98a991a46c4571428,0.0577,0.0578,0,57,57,123,1,sixeight,,,,,,,,,,,,,,,,,,,,,,,,,,,,,,,,,,,,,,,,,,,,,,,,,,,,,,,,,,,,,,,,,,,,,,,,,,,,,,,,,,,,,,,,,,,,,,,,,,,,,,,,,,,,,,,,,,,,,,,,,,,,,,,,,,,,,,,,,
,,5edc3d681a69d49159555f91,2024-02-19_03h19.18.942,kallum_motion_pilot,2023.2.2,Win32,58.82352941,5edc3d681a69d49159555f91,65d2b6c8f2eece985d8e374c,65d2b9d98a991a46c4571428,0.058,0.0581,0,58,58,2,1,twoone,,,,,,,,,,,,,,,,,,,,,,,,,,,,,,,,,,,,,,,,,,,,,,,,,,,,,,,,,,,,,,,,,,,,,,,,,,,,,,,,,,,,,,,,,,,,,,,,,,,,,,,,,,,,,,,,,,,,,,,,,,,,,,,,,,,,,,,,,
,,5edc3d681a69d49159555f91,2024-02-19_03h19.18.942,kallum_motion_pilot,2023.2.2,Win32,58.82352941,5edc3d681a69d49159555f91,65d2b6c8f2eece985d8e374c,65d2b9d98a991a46c4571428,0.0584,0.0585,0,59,59,135,1,eightseven,,,,,,,,,,,,,,,,,,,,,,,,,,,,,,,,,,,,,,,,,,,,,,,,,,,,,,,,,,,,,,,,,,,,,,,,,,,,,,,,,,,,,,,,,,,,,,,,,,,,,,,,,,,,,,,,,,,,,,,,,,,,,,,,,,,,,,,,,
,,5edc3d681a69d49159555f91,2024-02-19_03h19.18.942,kallum_motion_pilot,2023.2.2,Win32,58.82352941,5edc3d681a69d49159555f91,65d2b6c8f2eece985d8e374c,65d2b9d98a991a46c4571428,0.0587,0.0588,0,60,60,62,1,fourtwo,,,,,,,,,,,,,,,,,,,,,,,,,,,,,,,,,,,,,,,,,,,,,,,,,,,,,,,,,,,,,,,,,,,,,,,,,,,,,,,,,,,,,,,,,,,,,,,,,,,,,,,,,,,,,,,,,,,,,,,,,,,,,,,,,,,,,,,,,
,,5edc3d681a69d49159555f91,2024-02-19_03h19.18.942,kallum_motion_pilot,2023.2.2,Win32,58.82352941,5edc3d681a69d49159555f91,65d2b6c8f2eece985d8e374c,65d2b9d98a991a46c4571428,0.059,0.0591,0,61,61,80,1,fivesix,,,,,,,,,,,,,,,,,,,,,,,,,,,,,,,,,,,,,,,,,,,,,,,,,,,,,,,,,,,,,,,,,,,,,,,,,,,,,,,,,,,,,,,,,,,,,,,,,,,,,,,,,,,,,,,,,,,,,,,,,,,,,,,,,,,,,,,,,
,,5edc3d681a69d49159555f91,2024-02-19_03h19.18.942,kallum_motion_pilot,2023.2.2,Win32,58.82352941,5edc3d681a69d49159555f91,65d2b6c8f2eece985d8e374c,65d2b9d98a991a46c4571428,0.0594,0.0595,0,62,62,122,1,sixfive,,,,,,,,,,,,,,,,,,,,,,,,,,,,,,,,,,,,,,,,,,,,,,,,,,,,,,,,,,,,,,,,,,,,,,,,,,,,,,,,,,,,,,,,,,,,,,,,,,,,,,,,,,,,,,,,,,,,,,,,,,,,,,,,,,,,,,,,,
,,5edc3d681a69d49159555f91,2024-02-19_03h19.18.942,kallum_motion_pilot,2023.2.2,Win32,58.82352941,5edc3d681a69d49159555f91,65d2b6c8f2eece985d8e374c,65d2b9d98a991a46c4571428,0.0599,0.0599,0,63,63,43,1,twofour,,,,,,,,,,,,,,,,,,,,,,,,,,,,,,,,,,,,,,,,,,,,,,,,,,,,,,,,,,,,,,,,,,,,,,,,,,,,,,,,,,,,,,,,,,,,,,,,,,,,,,,,,,,,,,,,,,,,,,,,,,,,,,,,,,,,,,,,,
,,5edc3d681a69d49159555f91,2024-02-19_03h19.18.942,kallum_motion_pilot,2023.2.2,Win32,58.82352941,5edc3d681a69d49159555f91,65d2b6c8f2eece985d8e374c,65d2b9d98a991a46c4571428,0.0601,0.0602,0,64,64,101,1,seveneight,,,,,,,,,,,,,,,,,,,,,,,,,,,,,,,,,,,,,,,,,,,,,,,,,,,,,,,,,,,,,,,,,,,,,,,,,,,,,,,,,,,,,,,,,,,,,,,,,,,,,,,,,,,,,,,,,,,,,,,,,,,,,,,,,,,,,,,,,
,,5edc3d681a69d49159555f91,2024-02-19_03h19.18.942,kallum_motion_pilot,2023.2.2,Win32,58.82352941,5edc3d681a69d49159555f91,65d2b6c8f2eece985d8e374c,65d2b9d98a991a46c4571428,0.0604,0.0605,0,65,65,142,1,eightsix,,,,,,,,,,,,,,,,,,,,,,,,,,,,,,,,,,,,,,,,,,,,,,,,,,,,,,,,,,,,,,,,,,,,,,,,,,,,,,,,,,,,,,,,,,,,,,,,,,,,,,,,,,,,,,,,,,,,,,,,,,,,,,,,,,,,,,,,,
,,5edc3d681a69d49159555f91,2024-02-19_03h19.18.942,kallum_motion_pilot,2023.2.2,Win32,58.82352941,5edc3d681a69d49159555f91,65d2b6c8f2eece985d8e374c,65d2b9d98a991a46c4571428,0.0607,0.0608,0,66,66,16,1,onetwo,,,,,,,,,,,,,,,,,,,,,,,,,,,,,,,,,,,,,,,,,,,,,,,,,,,,,,,,,,,,,,,,,,,,,,,,,,,,,,,,,,,,,,,,,,,,,,,,,,,,,,,,,,,,,,,,,,,,,,,,,,,,,,,,,,,,,,,,,
,,5edc3d681a69d49159555f91,2024-02-19_03h19.18.942,kallum_motion_pilot,2023.2.2,Win32,58.82352941,5edc3d681a69d49159555f91,65d2b6c8f2eece985d8e374c,65d2b9d98a991a46c4571428,0.0611,0.0611,0,67,67,35,1,twofour,,,,,,,,,,,,,,,,,,,,,,,,,,,,,,,,,,,,,,,,,,,,,,,,,,,,,,,,,,,,,,,,,,,,,,,,,,,,,,,,,,,,,,,,,,,,,,,,,,,,,,,,,,,,,,,,,,,,,,,,,,,,,,,,,,,,,,,,,
,,5edc3d681a69d49159555f91,2024-02-19_03h19.18.942,kallum_motion_pilot,2023.2.2,Win32,58.82352941,5edc3d681a69d49159555f91,65d2b6c8f2eece985d8e374c,65d2b9d98a991a46c4571428,0.0613,0.0615,0,68,68,94,1,eightsix,,,,,,,,,,,,,,,,,,,,,,,,,,,,,,,,,,,,,,,,,,,,,,,,,,,,,,,,,,,,,,,,,,,,,,,,,,,,,,,,,,,,,,,,,,,,,,,,,,,,,,,,,,,,,,,,,,,,,,,,,,,,,,,,,,,,,,,,,
,,5edc3d681a69d49159555f91,2024-02-19_03h19.18.942,kallum_motion_pilot,2023.2.2,Win32,58.82352941,5edc3d681a69d49159555f91,65d2b6c8f2eece985d8e374c,65d2b9d98a991a46c4571428,0.0617,0.0618,0,69,69,70,1,fourtwo,,,,,,,,,,,,,,,,,,,,,,,,,,,,,,,,,,,,,,,,,,,,,,,,,,,,,,,,,,,,,,,,,,,,,,,,,,,,,,,,,,,,,,,,,,,,,,,,,,,,,,,,,,,,,,,,,,,,,,,,,,,,,,,,,,,,,,,,,
,,5edc3d681a69d49159555f91,2024-02-19_03h19.18.942,kallum_motion_pilot,2023.2.2,Win32,58.82352941,5edc3d681a69d49159555f91,65d2b6c8f2eece985d8e374c,65d2b9d98a991a46c4571428,0.0619,0.062,0,70,70,64,1,onetwo,,,,,,,,,,,,,,,,,,,,,,,,,,,,,,,,,,,,,,,,,,,,,,,,,,,,,,,,,,,,,,,,,,,,,,,,,,,,,,,,,,,,,,,,,,,,,,,,,,,,,,,,,,,,,,,,,,,,,,,,,,,,,,,,,,,,,,,,,
,,5edc3d681a69d49159555f91,2024-02-19_03h19.18.942,kallum_motion_pilot,2023.2.2,Win32,58.82352941,5edc3d681a69d49159555f91,65d2b6c8f2eece985d8e374c,65d2b9d98a991a46c4571428,0.0622,0.0624,0,71,71,139,1,sixeight,,,,,,,,,,,,,,,,,,,,,,,,,,,,,,,,,,,,,,,,,,,,,,,,,,,,,,,,,,,,,,,,,,,,,,,,,,,,,,,,,,,,,,,,,,,,,,,,,,,,,,,,,,,,,,,,,,,,,,,,,,,,,,,,,,,,,,,,,
,,5edc3d681a69d49159555f91,2024-02-19_03h19.18.942,kallum_motion_pilot,2023.2.2,Win32,58.82352941,5edc3d681a69d49159555f91,65d2b6c8f2eece985d8e374c,65d2b9d98a991a46c4571428,0.0625,0.0627,0,72,72,145,1,fiveseven,,,,,,,,,,,,,,,,,,,,,,,,,,,,,,,,,,,,,,,,,,,,,,,,,,,,,,,,,,,,,,,,,,,,,,,,,,,,,,,,,,,,,,,,,,,,,,,,,,,,,,,,,,,,,,,,,,,,,,,,,,,,,,,,,,,,,,,,,
,,5edc3d681a69d49159555f91,2024-02-19_03h19.18.942,kallum_motion_pilot,2023.2.2,Win32,58.82352941,5edc3d681a69d49159555f91,65d2b6c8f2eece985d8e374c,65d2b9d98a991a46c4571428,0.0628,0.0629,0,73,73,91,1,sixeight,,,,,,,,,,,,,,,,,,,,,,,,,,,,,,,,,,,,,,,,,,,,,,,,,,,,,,,,,,,,,,,,,,,,,,,,,,,,,,,,,,,,,,,,,,,,,,,,,,,,,,,,,,,,,,,,,,,,,,,,,,,,,,,,,,,,,,,,,
,,5edc3d681a69d49159555f91,2024-02-19_03h19.18.942,kallum_motion_pilot,2023.2.2,Win32,58.82352941,5edc3d681a69d49159555f91,65d2b6c8f2eece985d8e374c,65d2b9d98a991a46c4571428,0.0632,0.0632,0,74,74,90,1,sixfive,,,,,,,,,,,,,,,,,,,,,,,,,,,,,,,,,,,,,,,,,,,,,,,,,,,,,,,,,,,,,,,,,,,,,,,,,,,,,,,,,,,,,,,,,,,,,,,,,,,,,,,,,,,,,,,,,,,,,,,,,,,,,,,,,,,,,,,,,
,,5edc3d681a69d49159555f91,2024-02-19_03h19.18.942,kallum_motion_pilot,2023.2.2,Win32,58.82352941,5edc3d681a69d49159555f91,65d2b6c8f2eece985d8e374c,65d2b9d98a991a46c4571428,0.0634,0.0635,0,75,75,156,1,sevenfive,,,,,,,,,,,,,,,,,,,,,,,,,,,,,,,,,,,,,,,,,,,,,,,,,,,,,,,,,,,,,,,,,,,,,,,,,,,,,,,,,,,,,,,,,,,,,,,,,,,,,,,,,,,,,,,,,,,,,,,,,,,,,,,,,,,,,,,,,
,,5edc3d681a69d49159555f91,2024-02-19_03h19.18.942,kallum_motion_pilot,2023.2.2,Win32,58.82352941,5edc3d681a69d49159555f91,65d2b6c8f2eece985d8e374c,65d2b9d98a991a46c4571428,0.0637,0.0639,0,76,76,119,1,eightseven,,,,,,,,,,,,,,,,,,,,,,,,,,,,,,,,,,,,,,,,,,,,,,,,,,,,,,,,,,,,,,,,,,,,,,,,,,,,,,,,,,,,,,,,,,,,,,,,,,,,,,,,,,,,,,,,,,,,,,,,,,,,,,,,,,,,,,,,,
,,5edc3d681a69d49159555f91,2024-02-19_03h19.18.942,kallum_motion_pilot,2023.2.2,Win32,58.82352941,5edc3d681a69d49159555f91,65d2b6c8f2eece985d8e374c,65d2b9d98a991a46c4571428,0.064,0.0642,0,77,77,118,1,eightsix,,,,,,,,,,,,,,,,,,,,,,,,,,,,,,,,,,,,,,,,,,,,,,,,,,,,,,,,,,,,,,,,,,,,,,,,,,,,,,,,,,,,,,,,,,,,,,,,,,,,,,,,,,,,,,,,,,,,,,,,,,,,,,,,,,,,,,,,,
,,5edc3d681a69d49159555f91,2024-02-19_03h19.18.942,kallum_motion_pilot,2023.2.2,Win32,58.82352941,5edc3d681a69d49159555f91,65d2b6c8f2eece985d8e374c,65d2b9d98a991a46c4571428,0.0644,0.0645,0,78,78,15,1,fourthree,,,,,,,,,,,,,,,,,,,,,,,,,,,,,,,,,,,,,,,,,,,,,,,,,,,,,,,,,,,,,,,,,,,,,,,,,,,,,,,,,,,,,,,,,,,,,,,,,,,,,,,,,,,,,,,,,,,,,,,,,,,,,,,,,,,,,,,,,
,,5edc3d681a69d49159555f91,2024-02-19_03h19.18.942,kallum_motion_pilot,2023.2.2,Win32,58.82352941,5edc3d681a69d49159555f91,65d2b6c8f2eece985d8e374c,65d2b9d98a991a46c4571428,0.0655,0.0658,0,79,79,149,1,seveneight,,,,,,,,,,,,,,,,,,,,,,,,,,,,,,,,,,,,,,,,,,,,,,,,,,,,,,,,,,,,,,,,,,,,,,,,,,,,,,,,,,,,,,,,,,,,,,,,,,,,,,,,,,,,,,,,,,,,,,,,,,,,,,,,,,,,,,,,,
,,5edc3d681a69d49159555f91,2024-02-19_03h19.18.942,kallum_motion_pilot,2023.2.2,Win32,58.82352941,5edc3d681a69d49159555f91,65d2b6c8f2eece985d8e374c,65d2b9d98a991a46c4571428,0.066,0.0662,0,80,80,47,1,fourthree,,,,,,,,,,,,,,,,,,,,,,,,,,,,,,,,,,,,,,,,,,,,,,,,,,,,,,,,,,,,,,,,,,,,,,,,,,,,,,,,,,,,,,,,,,,,,,,,,,,,,,,,,,,,,,,,,,,,,,,,,,,,,,,,,,,,,,,,,
,,5edc3d681a69d49159555f91,2024-02-19_03h19.18.942,kallum_motion_pilot,2023.2.2,Win32,58.82352941,5edc3d681a69d49159555f91,65d2b6c8f2eece985d8e374c,65d2b9d98a991a46c4571428,0.0665,0.0666,0,81,81,79,1,eightseven,,,,,,,,,,,,,,,,,,,,,,,,,,,,,,,,,,,,,,,,,,,,,,,,,,,,,,,,,,,,,,,,,,,,,,,,,,,,,,,,,,,,,,,,,,,,,,,,,,,,,,,,,,,,,,,,,,,,,,,,,,,,,,,,,,,,,,,,,
,,5edc3d681a69d49159555f91,2024-02-19_03h19.18.942,kallum_motion_pilot,2023.2.2,Win32,58.82352941,5edc3d681a69d49159555f91,65d2b6c8f2eece985d8e374c,65d2b9d98a991a46c4571428,0.0668,0.067,0,82,82,3,1,twofour,,,,,,,,,,,,,,,,,,,,,,,,,,,,,,,,,,,,,,,,,,,,,,,,,,,,,,,,,,,,,,,,,,,,,,,,,,,,,,,,,,,,,,,,,,,,,,,,,,,,,,,,,,,,,,,,,,,,,,,,,,,,,,,,,,,,,,,,,
,,5edc3d681a69d49159555f91,2024-02-19_03h19.18.942,kallum_motion_pilot,2023.2.2,Win32,58.82352941,5edc3d681a69d49159555f91,65d2b6c8f2eece985d8e374c,65d2b9d98a991a46c4571428,0.0672,0.0673,0,83,83,95,1,eightseven,,,,,,,,,,,,,,,,,,,,,,,,,,,,,,,,,,,,,,,,,,,,,,,,,,,,,,,,,,,,,,,,,,,,,,,,,,,,,,,,,,,,,,,,,,,,,,,,,,,,,,,,,,,,,,,,,,,,,,,,,,,,,,,,,,,,,,,,,
,,5edc3d681a69d49159555f91,2024-02-19_03h19.18.942,kallum_motion_pilot,2023.2.2,Win32,58.82352941,5edc3d681a69d49159555f91,65d2b6c8f2eece985d8e374c,65d2b9d98a991a46c4571428,0.0676,0.0677,0,84,84,18,1,twoone,,,,,,,,,,,,,,,,,,,,,,,,,,,,,,,,,,,,,,,,,,,,,,,,,,,,,,,,,,,,,,,,,,,,,,,,,,,,,,,,,,,,,,,,,,,,,,,,,,,,,,,,,,,,,,,,,,,,,,,,,,,,,,,,,,,,,,,,,
,,5edc3d681a69d49159555f91,2024-02-19_03h19.18.942,kallum_motion_pilot,2023.2.2,Win32,58.82352941,5edc3d681a69d49159555f91,65d2b6c8f2eece985d8e374c,65d2b9d98a991a46c4571428,0.0679,0.0679,0,85,85,31,1,fourthree,,,,,,,,,,,,,,,,,,,,,,,,,,,,,,,,,,,,,,,,,,,,,,,,,,,,,,,,,,,,,,,,,,,,,,,,,,,,,,,,,,,,,,,,,,,,,,,,,,,,,,,,,,,,,,,,,,,,,,,,,,,,,,,,,,,,,,,,,
,,5edc3d681a69d49159555f91,2024-02-19_03h19.18.942,kallum_motion_pilot,2023.2.2,Win32,58.82352941,5edc3d681a69d49159555f91,65d2b6c8f2eece985d8e374c,65d2b9d98a991a46c4571428,0.0682,0.0683,0,86,86,26,1,twoone,,,,,,,,,,,,,,,,,,,,,,,,,,,,,,,,,,,,,,,,,,,,,,,,,,,,,,,,,,,,,,,,,,,,,,,,,,,,,,,,,,,,,,,,,,,,,,,,,,,,,,,,,,,,,,,,,,,,,,,,,,,,,,,,,,,,,,,,,
,,5edc3d681a69d49159555f91,2024-02-19_03h19.18.942,kallum_motion_pilot,2023.2.2,Win32,58.82352941,5edc3d681a69d49159555f91,65d2b6c8f2eece985d8e374c,65d2b9d98a991a46c4571428,0.0684,0.0685,0,87,87,100,1,sevenfive,,,,,,,,,,,,,,,,,,,,,,,,,,,,,,,,,,,,,,,,,,,,,,,,,,,,,,,,,,,,,,,,,,,,,,,,,,,,,,,,,,,,,,,,,,,,,,,,,,,,,,,,,,,,,,,,,,,,,,,,,,,,,,,,,,,,,,,,,
,,5edc3d681a69d49159555f91,2024-02-19_03h19.18.942,kallum_motion_pilot,2023.2.2,Win32,58.82352941,5edc3d681a69d49159555f91,65d2b6c8f2eece985d8e374c,65d2b9d98a991a46c4571428,0.0688,0.0689,0,88,88,110,1,eightsix,,,,,,,,,,,,,,,,,,,,,,,,,,,,,,,,,,,,,,,,,,,,,,,,,,,,,,,,,,,,,,,,,,,,,,,,,,,,,,,,,,,,,,,,,,,,,,,,,,,,,,,,,,,,,,,,,,,,,,,,,,,,,,,,,,,,,,,,,
,,5edc3d681a69d49159555f91,2024-02-19_03h19.18.942,kallum_motion_pilot,2023.2.2,Win32,58.82352941,5edc3d681a69d49159555f91,65d2b6c8f2eece985d8e374c,65d2b9d98a991a46c4571428,0.0692,0.0693,0,89,89,106,1,sixfive,,,,,,,,,,,,,,,,,,,,,,,,,,,,,,,,,,,,,,,,,,,,,,,,,,,,,,,,,,,,,,,,,,,,,,,,,,,,,,,,,,,,,,,,,,,,,,,,,,,,,,,,,,,,,,,,,,,,,,,,,,,,,,,,,,,,,,,,,
,,5edc3d681a69d49159555f91,2024-02-19_03h19.18.942,kallum_motion_pilot,2023.2.2,Win32,58.82352941,5edc3d681a69d49159555f91,65d2b6c8f2eece985d8e374c,65d2b9d98a991a46c4571428,0.0696,0.0697,0,90,90,159,1,eightseven,,,,,,,,,,,,,,,,,,,,,,,,,,,,,,,,,,,,,,,,,,,,,,,,,,,,,,,,,,,,,,,,,,,,,,,,,,,,,,,,,,,,,,,,,,,,,,,,,,,,,,,,,,,,,,,,,,,,,,,,,,,,,,,,,,,,,,,,,
,,5edc3d681a69d49159555f91,2024-02-19_03h19.18.942,kallum_motion_pilot,2023.2.2,Win32,58.82352941,5edc3d681a69d49159555f91,65d2b6c8f2eece985d8e374c,65d2b9d98a991a46c4571428,0.0699,0.07,0,91,91,23,1,fourthree,,,,,,,,,,,,,,,,,,,,,,,,,,,,,,,,,,,,,,,,,,,,,,,,,,,,,,,,,,,,,,,,,,,,,,,,,,,,,,,,,,,,,,,,,,,,,,,,,,,,,,,,,,,,,,,,,,,,,,,,,,,,,,,,,,,,,,,,,
,,5edc3d681a69d49159555f91,2024-02-19_03h19.18.942,kallum_motion_pilot,2023.2.2,Win32,58.82352941,5edc3d681a69d49159555f91,65d2b6c8f2eece985d8e374c,65d2b9d98a991a46c4571428,0.0702,0.0703,0,92,92,102,1,eightsix,,,,,,,,,,,,,,,,,,,,,,,,,,,,,,,,,,,,,,,,,,,,,,,,,,,,,,,,,,,,,,,,,,,,,,,,,,,,,,,,,,,,,,,,,,,,,,,,,,,,,,,,,,,,,,,,,,,,,,,,,,,,,,,,,,,,,,,,,
,,5edc3d681a69d49159555f91,2024-02-19_03h19.18.942,kallum_motion_pilot,2023.2.2,Win32,58.82352941,5edc3d681a69d49159555f91,65d2b6c8f2eece985d8e374c,65d2b9d98a991a46c4571428,0.0705,0.0706,0,93,93,56,1,onetwo,,,,,,,,,,,,,,,,,,,,,,,,,,,,,,,,,,,,,,,,,,,,,,,,,,,,,,,,,,,,,,,,,,,,,,,,,,,,,,,,,,,,,,,,,,,,,,,,,,,,,,,,,,,,,,,,,,,,,,,,,,,,,,,,,,,,,,,,,
,,5edc3d681a69d49159555f91,2024-02-19_03h19.18.942,kallum_motion_pilot,2023.2.2,Win32,58.82352941,5edc3d681a69d49159555f91,65d2b6c8f2eece985d8e374c,65d2b9d98a991a46c4571428,0.0707,0.0708,0,94,94,92,1,sevenfive,,,,,,,,,,,,,,,,,,,,,,,,,,,,,,,,,,,,,,,,,,,,,,,,,,,,,,,,,,,,,,,,,,,,,,,,,,,,,,,,,,,,,,,,,,,,,,,,,,,,,,,,,,,,,,,,,,,,,,,,,,,,,,,,,,,,,,,,,
,,5edc3d681a69d49159555f91,2024-02-19_03h19.18.942,kallum_motion_pilot,2023.2.2,Win32,58.82352941,5edc3d681a69d49159555f91,65d2b6c8f2eece985d8e374c,65d2b9d98a991a46c4571428,0.0709,0.0711,0,95,95,49,1,onethree,,,,,,,,,,,,,,,,,,,,,,,,,,,,,,,,,,,,,,,,,,,,,,,,,,,,,,,,,,,,,,,,,,,,,,,,,,,,,,,,,,,,,,,,,,,,,,,,,,,,,,,,,,,,,,,,,,,,,,,,,,,,,,,,,,,,,,,,,
,,5edc3d681a69d49159555f91,2024-02-19_03h19.18.942,kallum_motion_pilot,2023.2.2,Win32,58.82352941,5edc3d681a69d49159555f91,65d2b6c8f2eece985d8e374c,65d2b9d98a991a46c4571428,0.0713,0.0713,0,96,96,104,1,fivesix,,,,,,,,,,,,,,,,,,,,,,,,,,,,,,,,,,,,,,,,,,,,,,,,,,,,,,,,,,,,,,,,,,,,,,,,,,,,,,,,,,,,,,,,,,,,,,,,,,,,,,,,,,,,,,,,,,,,,,,,,,,,,,,,,,,,,,,,,
,,5edc3d681a69d49159555f91,2024-02-19_03h19.18.942,kallum_motion_pilot,2023.2.2,Win32,58.82352941,5edc3d681a69d49159555f91,65d2b6c8f2eece985d8e374c,65d2b9d98a991a46c4571428,0.0716,0.0719,0,97,97,108,1,sevenfive,,,,,,,,,,,,,,,,,,,,,,,,,,,,,,,,,,,,,,,,,,,,,,,,,,,,,,,,,,,,,,,,,,,,,,,,,,,,,,,,,,,,,,,,,,,,,,,,,,,,,,,,,,,,,,,,,,,,,,,,,,,,,,,,,,,,,,,,,
,,5edc3d681a69d49159555f91,2024-02-19_03h19.18.942,kallum_motion_pilot,2023.2.2,Win32,58.82352941,5edc3d681a69d49159555f91,65d2b6c8f2eece985d8e374c,65d2b9d98a991a46c4571428,0.0733,0.0736,0,98,98,151,1,eightseven,,,,,,,,,,,,,,,,,,,,,,,,,,,,,,,,,,,,,,,,,,,,,,,,,,,,,,,,,,,,,,,,,,,,,,,,,,,,,,,,,,,,,,,,,,,,,,,,,,,,,,,,,,,,,,,,,,,,,,,,,,,,,,,,,,,,,,,,,
,,5edc3d681a69d49159555f91,2024-02-19_03h19.18.942,kallum_motion_pilot,2023.2.2,Win32,58.82352941,5edc3d681a69d49159555f91,65d2b6c8f2eece985d8e374c,65d2b9d98a991a46c4571428,0.074,0.0741,0,99,99,150,1,eightsix,,,,,,,,,,,,,,,,,,,,,,,,,,,,,,,,,,,,,,,,,,,,,,,,,,,,,,,,,,,,,,,,,,,,,,,,,,,,,,,,,,,,,,,,,,,,,,,,,,,,,,,,,,,,,,,,,,,,,,,,,,,,,,,,,,,,,,,,,
,,5edc3d681a69d49159555f91,2024-02-19_03h19.18.942,kallum_motion_pilot,2023.2.2,Win32,58.82352941,5edc3d681a69d49159555f91,65d2b6c8f2eece985d8e374c,65d2b9d98a991a46c4571428,0.0743,0.0743,0,100,100,25,1,onethree,,,,,,,,,,,,,,,,,,,,,,,,,,,,,,,,,,,,,,,,,,,,,,,,,,,,,,,,,,,,,,,,,,,,,,,,,,,,,,,,,,,,,,,,,,,,,,,,,,,,,,,,,,,,,,,,,,,,,,,,,,,,,,,,,,,,,,,,,
,,5edc3d681a69d49159555f91,2024-02-19_03h19.18.942,kallum_motion_pilot,2023.2.2,Win32,58.82352941,5edc3d681a69d49159555f91,65d2b6c8f2eece985d8e374c,65d2b9d98a991a46c4571428,0.0745,0.0747,0,101,101,88,1,fivesix,,,,,,,,,,,,,,,,,,,,,,,,,,,,,,,,,,,,,,,,,,,,,,,,,,,,,,,,,,,,,,,,,,,,,,,,,,,,,,,,,,,,,,,,,,,,,,,,,,,,,,,,,,,,,,,,,,,,,,,,,,,,,,,,,,,,,,,,,
,,5edc3d681a69d49159555f91,2024-02-19_03h19.18.942,kallum_motion_pilot,2023.2.2,Win32,58.82352941,5edc3d681a69d49159555f91,65d2b6c8f2eece985d8e374c,65d2b9d98a991a46c4571428,0.0749,0.075,0,102,102,160,1,fivesix,,,,,,,,,,,,,,,,,,,,,,,,,,,,,,,,,,,,,,,,,,,,,,,,,,,,,,,,,,,,,,,,,,,,,,,,,,,,,,,,,,,,,,,,,,,,,,,,,,,,,,,,,,,,,,,,,,,,,,,,,,,,,,,,,,,,,,,,,
,,5edc3d681a69d49159555f91,2024-02-19_03h19.18.942,kallum_motion_pilot,2023.2.2,Win32,58.82352941,5edc3d681a69d49159555f91,65d2b6c8f2eece985d8e374c,65d2b9d98a991a46c4571428,0.0753,0.0754,0,103,103,21,1,threefour,,,,,,,,,,,,,,,,,,,,,,,,,,,,,,,,,,,,,,,,,,,,,,,,,,,,,,,,,,,,,,,,,,,,,,,,,,,,,,,,,,,,,,,,,,,,,,,,,,,,,,,,,,,,,,,,,,,,,,,,,,,,,,,,,,,,,,,,,
,,5edc3d681a69d49159555f91,2024-02-19_03h19.18.942,kallum_motion_pilot,2023.2.2,Win32,58.82352941,5edc3d681a69d49159555f91,65d2b6c8f2eece985d8e374c,65d2b9d98a991a46c4571428,0.0756,0.0758,0,104,104,34,1,twoone,,,,,,,,,,,,,,,,,,,,,,,,,,,,,,,,,,,,,,,,,,,,,,,,,,,,,,,,,,,,,,,,,,,,,,,,,,,,,,,,,,,,,,,,,,,,,,,,,,,,,,,,,,,,,,,,,,,,,,,,,,,,,,,,,,,,,,,,,
,,5edc3d681a69d49159555f91,2024-02-19_03h19.18.942,kallum_motion_pilot,2023.2.2,Win32,58.82352941,5edc3d681a69d49159555f91,65d2b6c8f2eece985d8e374c,65d2b9d98a991a46c4571428,0.076,0.0761,0,105,105,71,1,fourthree,,,,,,,,,,,,,,,,,,,,,,,,,,,,,,,,,,,,,,,,,,,,,,,,,,,,,,,,,,,,,,,,,,,,,,,,,,,,,,,,,,,,,,,,,,,,,,,,,,,,,,,,,,,,,,,,,,,,,,,,,,,,,,,,,,,,,,,,,
,,5edc3d681a69d49159555f91,2024-02-19_03h19.18.942,kallum_motion_pilot,2023.2.2,Win32,58.82352941,5edc3d681a69d49159555f91,65d2b6c8f2eece985d8e374c,65d2b9d98a991a46c4571428,0.0762,0.0764,0,106,106,131,1,sixeight,,,,,,,,,,,,,,,,,,,,,,,,,,,,,,,,,,,,,,,,,,,,,,,,,,,,,,,,,,,,,,,,,,,,,,,,,,,,,,,,,,,,,,,,,,,,,,,,,,,,,,,,,,,,,,,,,,,,,,,,,,,,,,,,,,,,,,,,,
,,5edc3d681a69d49159555f91,2024-02-19_03h19.18.942,kallum_motion_pilot,2023.2.2,Win32,58.82352941,5edc3d681a69d49159555f91,65d2b6c8f2eece985d8e374c,65d2b9d98a991a46c4571428,0.0766,0.0767,0,107,107,82,1,sixfive,,,,,,,,,,,,,,,,,,,,,,,,,,,,,,,,,,,,,,,,,,,,,,,,,,,,,,,,,,,,,,,,,,,,,,,,,,,,,,,,,,,,,,,,,,,,,,,,,,,,,,,,,,,,,,,,,,,,,,,,,,,,,,,,,,,,,,,,,
,,5edc3d681a69d49159555f91,2024-02-19_03h19.18.942,kallum_motion_pilot,2023.2.2,Win32,58.82352941,5edc3d681a69d49159555f91,65d2b6c8f2eece985d8e374c,65d2b9d98a991a46c4571428,0.0768,0.0769,0,108,108,161,1,fiveseven,,,,,,,,,,,,,,,,,,,,,,,,,,,,,,,,,,,,,,,,,,,,,,,,,,,,,,,,,,,,,,,,,,,,,,,,,,,,,,,,,,,,,,,,,,,,,,,,,,,,,,,,,,,,,,,,,,,,,,,,,,,,,,,,,,,,,,,,,
,,5edc3d681a69d49159555f91,2024-02-19_03h19.18.942,kallum_motion_pilot,2023.2.2,Win32,58.82352941,5edc3d681a69d49159555f91,65d2b6c8f2eece985d8e374c,65d2b9d98a991a46c4571428,0.0771,0.0773,0,109,109,87,1,eightseven,,,,,,,,,,,,,,,,,,,,,,,,,,,,,,,,,,,,,,,,,,,,,,,,,,,,,,,,,,,,,,,,,,,,,,,,,,,,,,,,,,,,,,,,,,,,,,,,,,,,,,,,,,,,,,,,,,,,,,,,,,,,,,,,,,,,,,,,,
,,5edc3d681a69d49159555f91,2024-02-19_03h19.18.942,kallum_motion_pilot,2023.2.2,Win32,58.82352941,5edc3d681a69d49159555f91,65d2b6c8f2eece985d8e374c,65d2b9d98a991a46c4571428,0.0774,0.0776,0,110,110,148,1,sevenfive,,,,,,,,,,,,,,,,,,,,,,,,,,,,,,,,,,,,,,,,,,,,,,,,,,,,,,,,,,,,,,,,,,,,,,,,,,,,,,,,,,,,,,,,,,,,,,,,,,,,,,,,,,,,,,,,,,,,,,,,,,,,,,,,,,,,,,,,,
,,5edc3d681a69d49159555f91,2024-02-19_03h19.18.942,kallum_motion_pilot,2023.2.2,Win32,58.82352941,5edc3d681a69d49159555f91,65d2b6c8f2eece985d8e374c,65d2b9d98a991a46c4571428,0.0777,0.0778,0,111,111,153,1,fiveseven,,,,,,,,,,,,,,,,,,,,,,,,,,,,,,,,,,,,,,,,,,,,,,,,,,,,,,,,,,,,,,,,,,,,,,,,,,,,,,,,,,,,,,,,,,,,,,,,,,,,,,,,,,,,,,,,,,,,,,,,,,,,,,,,,,,,,,,,,
,,5edc3d681a69d49159555f91,2024-02-19_03h19.18.942,kallum_motion_pilot,2023.2.2,Win32,58.82352941,5edc3d681a69d49159555f91,65d2b6c8f2eece985d8e374c,65d2b9d98a991a46c4571428,0.078,0.0782,0,112,112,140,1,sevenfive,,,,,,,,,,,,,,,,,,,,,,,,,,,,,,,,,,,,,,,,,,,,,,,,,,,,,,,,,,,,,,,,,,,,,,,,,,,,,,,,,,,,,,,,,,,,,,,,,,,,,,,,,,,,,,,,,,,,,,,,,,,,,,,,,,,,,,,,,
,,5edc3d681a69d49159555f91,2024-02-19_03h19.18.942,kallum_motion_pilot,2023.2.2,Win32,58.82352941,5edc3d681a69d49159555f91,65d2b6c8f2eece985d8e374c,65d2b9d98a991a46c4571428,0.0784,0.0784,0,113,113,58,1,twoone,,,,,,,,,,,,,,,,,,,,,,,,,,,,,,,,,,,,,,,,,,,,,,,,,,,,,,,,,,,,,,,,,,,,,,,,,,,,,,,,,,,,,,,,,,,,,,,,,,,,,,,,,,,,,,,,,,,,,,,,,,,,,,,,,,,,,,,,,
,,5edc3d681a69d49159555f91,2024-02-19_03h19.18.942,kallum_motion_pilot,2023.2.2,Win32,58.82352941,5edc3d681a69d49159555f91,65d2b6c8f2eece985d8e374c,65d2b9d98a991a46c4571428,0.0786,0.0787,0,114,114,73,1,onethree,,,,,,,,,,,,,,,,,,,,,,,,,,,,,,,,,,,,,,,,,,,,,,,,,,,,,,,,,,,,,,,,,,,,,,,,,,,,,,,,,,,,,,,,,,,,,,,,,,,,,,,,,,,,,,,,,,,,,,,,,,,,,,,,,,,,,,,,,
,,5edc3d681a69d49159555f91,2024-02-19_03h19.18.942,kallum_motion_pilot,2023.2.2,Win32,58.82352941,5edc3d681a69d49159555f91,65d2b6c8f2eece985d8e374c,65d2b9d98a991a46c4571428,0.0789,0.079,0,115,115,120,1,fivesix,,,,,,,,,,,,,,,,,,,,,,,,,,,,,,,,,,,,,,,,,,,,,,,,,,,,,,,,,,,,,,,,,,,,,,,,,,,,,,,,,,,,,,,,,,,,,,,,,,,,,,,,,,,,,,,,,,,,,,,,,,,,,,,,,,,,,,,,,
,,5edc3d681a69d49159555f91,2024-02-19_03h19.18.942,kallum_motion_pilot,2023.2.2,Win32,58.82352941,5edc3d681a69d49159555f91,65d2b6c8f2eece985d8e374c,65d2b9d98a991a46c4571428,0.0792,0.0793,0,116,116,138,1,sixfive,,,,,,,,,,,,,,,,,,,,,,,,,,,,,,,,,,,,,,,,,,,,,,,,,,,,,,,,,,,,,,,,,,,,,,,,,,,,,,,,,,,,,,,,,,,,,,,,,,,,,,,,,,,,,,,,,,,,,,,,,,,,,,,,,,,,,,,,,
,,5edc3d681a69d49159555f91,2024-02-19_03h19.18.942,kallum_motion_pilot,2023.2.2,Win32,58.82352941,5edc3d681a69d49159555f91,65d2b6c8f2eece985d8e374c,65d2b9d98a991a46c4571428,0.0796,0.0796,0,117,117,111,1,eightseven,,,,,,,,,,,,,,,,,,,,,,,,,,,,,,,,,,,,,,,,,,,,,,,,,,,,,,,,,,,,,,,,,,,,,,,,,,,,,,,,,,,,,,,,,,,,,,,,,,,,,,,,,,,,,,,,,,,,,,,,,,,,,,,,,,,,,,,,,
,,5edc3d681a69d49159555f91,2024-02-19_03h19.18.942,kallum_motion_pilot,2023.2.2,Win32,58.82352941,5edc3d681a69d49159555f91,65d2b6c8f2eece985d8e374c,65d2b9d98a991a46c4571428,0.0799,0.08,0,118,118,0,1,onetwo,,,,,,,,,,,,,,,,,,,,,,,,,,,,,,,,,,,,,,,,,,,,,,,,,,,,,,,,,,,,,,,,,,,,,,,,,,,,,,,,,,,,,,,,,,,,,,,,,,,,,,,,,,,,,,,,,,,,,,,,,,,,,,,,,,,,,,,,,
,,5edc3d681a69d49159555f91,2024-02-19_03h19.18.942,kallum_motion_pilot,2023.2.2,Win32,58.82352941,5edc3d681a69d49159555f91,65d2b6c8f2eece985d8e374c,65d2b9d98a991a46c4571428,0.0802,0.0803,0,119,119,66,1,twoone,,,,,,,,,,,,,,,,,,,,,,,,,,,,,,,,,,,,,,,,,,,,,,,,,,,,,,,,,,,,,,,,,,,,,,,,,,,,,,,,,,,,,,,,,,,,,,,,,,,,,,,,,,,,,,,,,,,,,,,,,,,,,,,,,,,,,,,,,
,,5edc3d681a69d49159555f91,2024-02-19_03h19.18.942,kallum_motion_pilot,2023.2.2,Win32,58.82352941,5edc3d681a69d49159555f91,65d2b6c8f2eece985d8e374c,65d2b9d98a991a46c4571428,0.0807,0.0809,0,120,120,117,1,seveneight,,,,,,,,,,,,,,,,,,,,,,,,,,,,,,,,,,,,,,,,,,,,,,,,,,,,,,,,,,,,,,,,,,,,,,,,,,,,,,,,,,,,,,,,,,,,,,,,,,,,,,,,,,,,,,,,,,,,,,,,,,,,,,,,,,,,,,,,,
,,5edc3d681a69d49159555f91,2024-02-19_03h19.18.942,kallum_motion_pilot,2023.2.2,Win32,58.82352941,5edc3d681a69d49159555f91,65d2b6c8f2eece985d8e374c,65d2b9d98a991a46c4571428,0.081,0.0812,0,121,121,9,1,onethree,,,,,,,,,,,,,,,,,,,,,,,,,,,,,,,,,,,,,,,,,,,,,,,,,,,,,,,,,,,,,,,,,,,,,,,,,,,,,,,,,,,,,,,,,,,,,,,,,,,,,,,,,,,,,,,,,,,,,,,,,,,,,,,,,,,,,,,,,
,,5edc3d681a69d49159555f91,2024-02-19_03h19.18.942,kallum_motion_pilot,2023.2.2,Win32,58.82352941,5edc3d681a69d49159555f91,65d2b6c8f2eece985d8e374c,65d2b9d98a991a46c4571428,0.0815,0.0816,0,122,122,11,1,twofour,,,,,,,,,,,,,,,,,,,,,,,,,,,,,,,,,,,,,,,,,,,,,,,,,,,,,,,,,,,,,,,,,,,,,,,,,,,,,,,,,,,,,,,,,,,,,,,,,,,,,,,,,,,,,,,,,,,,,,,,,,,,,,,,,,,,,,,,,
,,5edc3d681a69d49159555f91,2024-02-19_03h19.18.942,kallum_motion_pilot,2023.2.2,Win32,58.82352941,5edc3d681a69d49159555f91,65d2b6c8f2eece985d8e374c,65d2b9d98a991a46c4571428,0.0818,0.0818,0,123,123,113,1,fiveseven,,,,,,,,,,,,,,,,,,,,,,,,,,,,,,,,,,,,,,,,,,,,,,,,,,,,,,,,,,,,,,,,,,,,,,,,,,,,,,,,,,,,,,,,,,,,,,,,,,,,,,,,,,,,,,,,,,,,,,,,,,,,,,,,,,,,,,,,,
,,5edc3d681a69d49159555f91,2024-02-19_03h19.18.942,kallum_motion_pilot,2023.2.2,Win32,58.82352941,5edc3d681a69d49159555f91,65d2b6c8f2eece985d8e374c,65d2b9d98a991a46c4571428,0.082,0.0821,0,124,124,116,1,sevenfive,,,,,,,,,,,,,,,,,,,,,,,,,,,,,,,,,,,,,,,,,,,,,,,,,,,,,,,,,,,,,,,,,,,,,,,,,,,,,,,,,,,,,,,,,,,,,,,,,,,,,,,,,,,,,,,,,,,,,,,,,,,,,,,,,,,,,,,,,
,,5edc3d681a69d49159555f91,2024-02-19_03h19.18.942,kallum_motion_pilot,2023.2.2,Win32,58.82352941,5edc3d681a69d49159555f91,65d2b6c8f2eece985d8e374c,65d2b9d98a991a46c4571428,0.0823,0.0825,0,125,125,83,1,sixeight,,,,,,,,,,,,,,,,,,,,,,,,,,,,,,,,,,,,,,,,,,,,,,,,,,,,,,,,,,,,,,,,,,,,,,,,,,,,,,,,,,,,,,,,,,,,,,,,,,,,,,,,,,,,,,,,,,,,,,,,,,,,,,,,,,,,,,,,,
,,5edc3d681a69d49159555f91,2024-02-19_03h19.18.942,kallum_motion_pilot,2023.2.2,Win32,58.82352941,5edc3d681a69d49159555f91,65d2b6c8f2eece985d8e374c,65d2b9d98a991a46c4571428,0.0827,0.0827,0,126,126,147,1,sixeight,,,,,,,,,,,,,,,,,,,,,,,,,,,,,,,,,,,,,,,,,,,,,,,,,,,,,,,,,,,,,,,,,,,,,,,,,,,,,,,,,,,,,,,,,,,,,,,,,,,,,,,,,,,,,,,,,,,,,,,,,,,,,,,,,,,,,,,,,
,,5edc3d681a69d49159555f91,2024-02-19_03h19.18.942,kallum_motion_pilot,2023.2.2,Win32,58.82352941,5edc3d681a69d49159555f91,65d2b6c8f2eece985d8e374c,65d2b9d98a991a46c4571428,0.083,0.0831,0,127,127,86,1,eightsix,,,,,,,,,,,,,,,,,,,,,,,,,,,,,,,,,,,,,,,,,,,,,,,,,,,,,,,,,,,,,,,,,,,,,,,,,,,,,,,,,,,,,,,,,,,,,,,,,,,,,,,,,,,,,,,,,,,,,,,,,,,,,,,,,,,,,,,,,
,,5edc3d681a69d49159555f91,2024-02-19_03h19.18.942,kallum_motion_pilot,2023.2.2,Win32,58.82352941,5edc3d681a69d49159555f91,65d2b6c8f2eece985d8e374c,65d2b9d98a991a46c4571428,0.0833,0.0834,0,128,128,121,1,fiveseven,,,,,,,,,,,,,,,,,,,,,,,,,,,,,,,,,,,,,,,,,,,,,,,,,,,,,,,,,,,,,,,,,,,,,,,,,,,,,,,,,,,,,,,,,,,,,,,,,,,,,,,,,,,,,,,,,,,,,,,,,,,,,,,,,,,,,,,,,
,,5edc3d681a69d49159555f91,2024-02-19_03h19.18.942,kallum_motion_pilot,2023.2.2,Win32,58.82352941,5edc3d681a69d49159555f91,65d2b6c8f2eece985d8e374c,65d2b9d98a991a46c4571428,0.0836,0.0837,0,129,129,19,1,twofour,,,,,,,,,,,,,,,,,,,,,,,,,,,,,,,,,,,,,,,,,,,,,,,,,,,,,,,,,,,,,,,,,,,,,,,,,,,,,,,,,,,,,,,,,,,,,,,,,,,,,,,,,,,,,,,,,,,,,,,,,,,,,,,,,,,,,,,,,
,,5edc3d681a69d49159555f91,2024-02-19_03h19.18.942,kallum_motion_pilot,2023.2.2,Win32,58.82352941,5edc3d681a69d49159555f91,65d2b6c8f2eece985d8e374c,65d2b9d98a991a46c4571428,0.0838,0.0839,0,130,130,76,1,threeone,,,,,,,,,,,,,,,,,,,,,,,,,,,,,,,,,,,,,,,,,,,,,,,,,,,,,,,,,,,,,,,,,,,,,,,,,,,,,,,,,,,,,,,,,,,,,,,,,,,,,,,,,,,,,,,,,,,,,,,,,,,,,,,,,,,,,,,,,
,,5edc3d681a69d49159555f91,2024-02-19_03h19.18.942,kallum_motion_pilot,2023.2.2,Win32,58.82352941,5edc3d681a69d49159555f91,65d2b6c8f2eece985d8e374c,65d2b9d98a991a46c4571428,0.084,0.0842,0,131,131,42,1,twoone,,,,,,,,,,,,,,,,,,,,,,,,,,,,,,,,,,,,,,,,,,,,,,,,,,,,,,,,,,,,,,,,,,,,,,,,,,,,,,,,,,,,,,,,,,,,,,,,,,,,,,,,,,,,,,,,,,,,,,,,,,,,,,,,,,,,,,,,,
,,5edc3d681a69d49159555f91,2024-02-19_03h19.18.942,kallum_motion_pilot,2023.2.2,Win32,58.82352941,5edc3d681a69d49159555f91,65d2b6c8f2eece985d8e374c,65d2b9d98a991a46c4571428,0.0843,0.0844,0,132,132,7,1,fourthree,,,,,,,,,,,,,,,,,,,,,,,,,,,,,,,,,,,,,,,,,,,,,,,,,,,,,,,,,,,,,,,,,,,,,,,,,,,,,,,,,,,,,,,,,,,,,,,,,,,,,,,,,,,,,,,,,,,,,,,,,,,,,,,,,,,,,,,,,
,,5edc3d681a69d49159555f91,2024-02-19_03h19.18.942,kallum_motion_pilot,2023.2.2,Win32,58.82352941,5edc3d681a69d49159555f91,65d2b6c8f2eece985d8e374c,65d2b9d98a991a46c4571428,0.0845,0.0846,0,133,133,38,1,fourtwo,,,,,,,,,,,,,,,,,,,,,,,,,,,,,,,,,,,,,,,,,,,,,,,,,,,,,,,,,,,,,,,,,,,,,,,,,,,,,,,,,,,,,,,,,,,,,,,,,,,,,,,,,,,,,,,,,,,,,,,,,,,,,,,,,,,,,,,,,
,,5edc3d681a69d49159555f91,2024-02-19_03h19.18.942,kallum_motion_pilot,2023.2.2,Win32,58.82352941,5edc3d681a69d49159555f91,65d2b6c8f2eece985d8e374c,65d2b9d98a991a46c4571428,0.0848,0.085,0,134,134,60,1,threeone,,,,,,,,,,,,,,,,,,,,,,,,,,,,,,,,,,,,,,,,,,,,,,,,,,,,,,,,,,,,,,,,,,,,,,,,,,,,,,,,,,,,,,,,,,,,,,,,,,,,,,,,,,,,,,,,,,,,,,,,,,,,,,,,,,,,,,,,,
,,5edc3d681a69d49159555f91,2024-02-19_03h19.18.942,kallum_motion_pilot,2023.2.2,Win32,58.82352941,5edc3d681a69d49159555f91,65d2b6c8f2eece985d8e374c,65d2b9d98a991a46c4571428,0.0851,0.0853,0,135,135,93,1,seveneight,,,,,,,,,,,,,,,,,,,,,,,,,,,,,,,,,,,,,,,,,,,,,,,,,,,,,,,,,,,,,,,,,,,,,,,,,,,,,,,,,,,,,,,,,,,,,,,,,,,,,,,,,,,,,,,,,,,,,,,,,,,,,,,,,,,,,,,,,
,,5edc3d681a69d49159555f91,2024-02-19_03h19.18.942,kallum_motion_pilot,2023.2.2,Win32,58.82352941,5edc3d681a69d49159555f91,65d2b6c8f2eece985d8e374c,65d2b9d98a991a46c4571428,0.0854,0.0855,0,136,136,33,1,onethree,,,,,,,,,,,,,,,,,,,,,,,,,,,,,,,,,,,,,,,,,,,,,,,,,,,,,,,,,,,,,,,,,,,,,,,,,,,,,,,,,,,,,,,,,,,,,,,,,,,,,,,,,,,,,,,,,,,,,,,,,,,,,,,,,,,,,,,,,
,,5edc3d681a69d49159555f91,2024-02-19_03h19.18.942,kallum_motion_pilot,2023.2.2,Win32,58.82352941,5edc3d681a69d49159555f91,65d2b6c8f2eece985d8e374c,65d2b9d98a991a46c4571428,0.0856,0.0857,0,137,137,13,1,threefour,,,,,,,,,,,,,,,,,,,,,,,,,,,,,,,,,,,,,,,,,,,,,,,,,,,,,,,,,,,,,,,,,,,,,,,,,,,,,,,,,,,,,,,,,,,,,,,,,,,,,,,,,,,,,,,,,,,,,,,,,,,,,,,,,,,,,,,,,
,,5edc3d681a69d49159555f91,2024-02-19_03h19.18.942,kallum_motion_pilot,2023.2.2,Win32,58.82352941,5edc3d681a69d49159555f91,65d2b6c8f2eece985d8e374c,65d2b9d98a991a46c4571428,0.0858,0.0858,0,138,138,141,1,seveneight,,,,,,,,,,,,,,,,,,,,,,,,,,,,,,,,,,,,,,,,,,,,,,,,,,,,,,,,,,,,,,,,,,,,,,,,,,,,,,,,,,,,,,,,,,,,,,,,,,,,,,,,,,,,,,,,,,,,,,,,,,,,,,,,,,,,,,,,,
,,5edc3d681a69d49159555f91,2024-02-19_03h19.18.942,kallum_motion_pilot,2023.2.2,Win32,58.82352941,5edc3d681a69d49159555f91,65d2b6c8f2eece985d8e374c,65d2b9d98a991a46c4571428,0.0859,0.0861,0,139,139,22,1,fourtwo,,,,,,,,,,,,,,,,,,,,,,,,,,,,,,,,,,,,,,,,,,,,,,,,,,,,,,,,,,,,,,,,,,,,,,,,,,,,,,,,,,,,,,,,,,,,,,,,,,,,,,,,,,,,,,,,,,,,,,,,,,,,,,,,,,,,,,,,,
,,5edc3d681a69d49159555f91,2024-02-19_03h19.18.942,kallum_motion_pilot,2023.2.2,Win32,58.82352941,5edc3d681a69d49159555f91,65d2b6c8f2eece985d8e374c,65d2b9d98a991a46c4571428,0.0861,0.0862,0,140,140,24,1,onetwo,,,,,,,,,,,,,,,,,,,,,,,,,,,,,,,,,,,,,,,,,,,,,,,,,,,,,,,,,,,,,,,,,,,,,,,,,,,,,,,,,,,,,,,,,,,,,,,,,,,,,,,,,,,,,,,,,,,,,,,,,,,,,,,,,,,,,,,,,
,,5edc3d681a69d49159555f91,2024-02-19_03h19.18.942,kallum_motion_pilot,2023.2.2,Win32,58.82352941,5edc3d681a69d49159555f91,65d2b6c8f2eece985d8e374c,65d2b9d98a991a46c4571428,0.0864,0.0865,0,141,141,30,1,fourtwo,,,,,,,,,,,,,,,,,,,,,,,,,,,,,,,,,,,,,,,,,,,,,,,,,,,,,,,,,,,,,,,,,,,,,,,,,,,,,,,,,,,,,,,,,,,,,,,,,,,,,,,,,,,,,,,,,,,,,,,,,,,,,,,,,,,,,,,,,
,,5edc3d681a69d49159555f91,2024-02-19_03h19.18.942,kallum_motion_pilot,2023.2.2,Win32,58.82352941,5edc3d681a69d49159555f91,65d2b6c8f2eece985d8e374c,65d2b9d98a991a46c4571428,0.0866,0.0866,0,142,142,107,1,sixeight,,,,,,,,,,,,,,,,,,,,,,,,,,,,,,,,,,,,,,,,,,,,,,,,,,,,,,,,,,,,,,,,,,,,,,,,,,,,,,,,,,,,,,,,,,,,,,,,,,,,,,,,,,,,,,,,,,,,,,,,,,,,,,,,,,,,,,,,,
,,5edc3d681a69d49159555f91,2024-02-19_03h19.18.942,kallum_motion_pilot,2023.2.2,Win32,58.82352941,5edc3d681a69d49159555f91,65d2b6c8f2eece985d8e374c,65d2b9d98a991a46c4571428,0.0867,0.0868,0,143,143,28,1,threeone,,,,,,,,,,,,,,,,,,,,,,,,,,,,,,,,,,,,,,,,,,,,,,,,,,,,,,,,,,,,,,,,,,,,,,,,,,,,,,,,,,,,,,,,,,,,,,,,,,,,,,,,,,,,,,,,,,,,,,,,,,,,,,,,,,,,,,,,,
,,5edc3d681a69d49159555f91,2024-02-19_03h19.18.942,kallum_motion_pilot,2023.2.2,Win32,58.82352941,5edc3d681a69d49159555f91,65d2b6c8f2eece985d8e374c,65d2b9d98a991a46c4571428,0.087,0.087,0,144,144,126,1,eightsix,,,,,,,,,,,,,,,,,,,,,,,,,,,,,,,,,,,,,,,,,,,,,,,,,,,,,,,,,,,,,,,,,,,,,,,,,,,,,,,,,,,,,,,,,,,,,,,,,,,,,,,,,,,,,,,,,,,,,,,,,,,,,,,,,,,,,,,,,
,,5edc3d681a69d49159555f91,2024-02-19_03h19.18.942,kallum_motion_pilot,2023.2.2,Win32,58.82352941,5edc3d681a69d49159555f91,65d2b6c8f2eece985d8e374c,65d2b9d98a991a46c4571428,0.0872,0.0872,0,145,145,40,1,onetwo,,,,,,,,,,,,,,,,,,,,,,,,,,,,,,,,,,,,,,,,,,,,,,,,,,,,,,,,,,,,,,,,,,,,,,,,,,,,,,,,,,,,,,,,,,,,,,,,,,,,,,,,,,,,,,,,,,,,,,,,,,,,,,,,,,,,,,,,,
,,5edc3d681a69d49159555f91,2024-02-19_03h19.18.942,kallum_motion_pilot,2023.2.2,Win32,58.82352941,5edc3d681a69d49159555f91,65d2b6c8f2eece985d8e374c,65d2b9d98a991a46c4571428,0.0873,0.0875,0,146,146,158,1,eightsix,,,,,,,,,,,,,,,,,,,,,,,,,,,,,,,,,,,,,,,,,,,,,,,,,,,,,,,,,,,,,,,,,,,,,,,,,,,,,,,,,,,,,,,,,,,,,,,,,,,,,,,,,,,,,,,,,,,,,,,,,,,,,,,,,,,,,,,,,
,,5edc3d681a69d49159555f91,2024-02-19_03h19.18.942,kallum_motion_pilot,2023.2.2,Win32,58.82352941,5edc3d681a69d49159555f91,65d2b6c8f2eece985d8e374c,65d2b9d98a991a46c4571428,0.0876,0.0877,0,147,147,10,1,twoone,,,,,,,,,,,,,,,,,,,,,,,,,,,,,,,,,,,,,,,,,,,,,,,,,,,,,,,,,,,,,,,,,,,,,,,,,,,,,,,,,,,,,,,,,,,,,,,,,,,,,,,,,,,,,,,,,,,,,,,,,,,,,,,,,,,,,,,,,
,,5edc3d681a69d49159555f91,2024-02-19_03h19.18.942,kallum_motion_pilot,2023.2.2,Win32,58.82352941,5edc3d681a69d49159555f91,65d2b6c8f2eece985d8e374c,65d2b9d98a991a46c4571428,0.0877,0.0879,0,148,148,78,1,fourtwo,,,,,,,,,,,,,,,,,,,,,,,,,,,,,,,,,,,,,,,,,,,,,,,,,,,,,,,,,,,,,,,,,,,,,,,,,,,,,,,,,,,,,,,,,,,,,,,,,,,,,,,,,,,,,,,,,,,,,,,,,,,,,,,,,,,,,,,,,
,,5edc3d681a69d49159555f91,2024-02-19_03h19.18.942,kallum_motion_pilot,2023.2.2,Win32,58.82352941,5edc3d681a69d49159555f91,65d2b6c8f2eece985d8e374c,65d2b9d98a991a46c4571428,0.088,0.088,0,149,149,69,1,threefour,,,,,,,,,,,,,,,,,,,,,,,,,,,,,,,,,,,,,,,,,,,,,,,,,,,,,,,,,,,,,,,,,,,,,,,,,,,,,,,,,,,,,,,,,,,,,,,,,,,,,,,,,,,,,,,,,,,,,,,,,,,,,,,,,,,,,,,,,
,,5edc3d681a69d49159555f91,2024-02-19_03h19.18.942,kallum_motion_pilot,2023.2.2,Win32,58.82352941,5edc3d681a69d49159555f91,65d2b6c8f2eece985d8e374c,65d2b9d98a991a46c4571428,0.0896,0.0898,0,150,150,29,1,threefour,,,,,,,,,,,,,,,,,,,,,,,,,,,,,,,,,,,,,,,,,,,,,,,,,,,,,,,,,,,,,,,,,,,,,,,,,,,,,,,,,,,,,,,,,,,,,,,,,,,,,,,,,,,,,,,,,,,,,,,,,,,,,,,,,,,,,,,,,
,,5edc3d681a69d49159555f91,2024-02-19_03h19.18.942,kallum_motion_pilot,2023.2.2,Win32,58.82352941,5edc3d681a69d49159555f91,65d2b6c8f2eece985d8e374c,65d2b9d98a991a46c4571428,0.0903,0.0908,0,151,151,17,1,onethree,,,,,,,,,,,,,,,,,,,,,,,,,,,,,,,,,,,,,,,,,,,,,,,,,,,,,,,,,,,,,,,,,,,,,,,,,,,,,,,,,,,,,,,,,,,,,,,,,,,,,,,,,,,,,,,,,,,,,,,,,,,,,,,,,,,,,,,,,
,,5edc3d681a69d49159555f91,2024-02-19_03h19.18.942,kallum_motion_pilot,2023.2.2,Win32,58.82352941,5edc3d681a69d49159555f91,65d2b6c8f2eece985d8e374c,65d2b9d98a991a46c4571428,0.0917,0.0918,0,152,152,84,1,sevenfive,,,,,,,,,,,,,,,,,,,,,,,,,,,,,,,,,,,,,,,,,,,,,,,,,,,,,,,,,,,,,,,,,,,,,,,,,,,,,,,,,,,,,,,,,,,,,,,,,,,,,,,,,,,,,,,,,,,,,,,,,,,,,,,,,,,,,,,,,
,,5edc3d681a69d49159555f91,2024-02-19_03h19.18.942,kallum_motion_pilot,2023.2.2,Win32,58.82352941,5edc3d681a69d49159555f91,65d2b6c8f2eece985d8e374c,65d2b9d98a991a46c4571428,0.0921,0.0924,0,153,153,98,1,sixfive,,,,,,,,,,,,,,,,,,,,,,,,,,,,,,,,,,,,,,,,,,,,,,,,,,,,,,,,,,,,,,,,,,,,,,,,,,,,,,,,,,,,,,,,,,,,,,,,,,,,,,,,,,,,,,,,,,,,,,,,,,,,,,,,,,,,,,,,,
,,5edc3d681a69d49159555f91,2024-02-19_03h19.18.942,kallum_motion_pilot,2023.2.2,Win32,58.82352941,5edc3d681a69d49159555f91,65d2b6c8f2eece985d8e374c,65d2b9d98a991a46c4571428,0.0926,0.0927,0,154,154,97,1,fiveseven,,,,,,,,,,,,,,,,,,,,,,,,,,,,,,,,,,,,,,,,,,,,,,,,,,,,,,,,,,,,,,,,,,,,,,,,,,,,,,,,,,,,,,,,,,,,,,,,,,,,,,,,,,,,,,,,,,,,,,,,,,,,,,,,,,,,,,,,,
,,5edc3d681a69d49159555f91,2024-02-19_03h19.18.942,kallum_motion_pilot,2023.2.2,Win32,58.82352941,5edc3d681a69d49159555f91,65d2b6c8f2eece985d8e374c,65d2b9d98a991a46c4571428,0.0929,0.093,0,155,155,157,1,seveneight,,,,,,,,,,,,,,,,,,,,,,,,,,,,,,,,,,,,,,,,,,,,,,,,,,,,,,,,,,,,,,,,,,,,,,,,,,,,,,,,,,,,,,,,,,,,,,,,,,,,,,,,,,,,,,,,,,,,,,,,,,,,,,,,,,,,,,,,,
,,5edc3d681a69d49159555f91,2024-02-19_03h19.18.942,kallum_motion_pilot,2023.2.2,Win32,58.82352941,5edc3d681a69d49159555f91,65d2b6c8f2eece985d8e374c,65d2b9d98a991a46c4571428,0.0932,0.0933,0,156,156,55,1,fourthree,,,,,,,,,,,,,,,,,,,,,,,,,,,,,,,,,,,,,,,,,,,,,,,,,,,,,,,,,,,,,,,,,,,,,,,,,,,,,,,,,,,,,,,,,,,,,,,,,,,,,,,,,,,,,,,,,,,,,,,,,,,,,,,,,,,,,,,,,
,,5edc3d681a69d49159555f91,2024-02-19_03h19.18.942,kallum_motion_pilot,2023.2.2,Win32,58.82352941,5edc3d681a69d49159555f91,65d2b6c8f2eece985d8e374c,65d2b9d98a991a46c4571428,0.0935,0.0936,0,157,157,112,1,fivesix,,,,,,,,,,,,,,,,,,,,,,,,,,,,,,,,,,,,,,,,,,,,,,,,,,,,,,,,,,,,,,,,,,,,,,,,,,,,,,,,,,,,,,,,,,,,,,,,,,,,,,,,,,,,,,,,,,,,,,,,,,,,,,,,,,,,,,,,,
,,5edc3d681a69d49159555f91,2024-02-19_03h19.18.942,kallum_motion_pilot,2023.2.2,Win32,58.82352941,5edc3d681a69d49159555f91,65d2b6c8f2eece985d8e374c,65d2b9d98a991a46c4571428,0.094,0.0941,0,158,158,125,1,seveneight,,,,,,,,,,,,,,,,,,,,,,,,,,,,,,,,,,,,,,,,,,,,,,,,,,,,,,,,,,,,,,,,,,,,,,,,,,,,,,,,,,,,,,,,,,,,,,,,,,,,,,,,,,,,,,,,,,,,,,,,,,,,,,,,,,,,,,,,,
,,5edc3d681a69d49159555f91,2024-02-19_03h19.18.942,kallum_motion_pilot,2023.2.2,Win32,58.82352941,5edc3d681a69d49159555f91,65d2b6c8f2eece985d8e374c,65d2b9d98a991a46c4571428,0.0943,0.0945,0,159,159,52,1,threeone,,,,,,,,,,,,,,,,,,,,,,,,,,,,,,,,,,,,,,,,,,,,,,,,,,,,,,,,,,,,,,,,,,,,,,,,,,,,,,,,,,,,,,,,,,,,,,,,,,,,,,,,,,,,,,,,,,,,,,,,,,,,,,,,,,,,,,,,,
,,5edc3d681a69d49159555f91,2024-02-19_03h19.18.942,kallum_motion_pilot,2023.2.2,Win32,58.82352941,5edc3d681a69d49159555f91,65d2b6c8f2eece985d8e374c,65d2b9d98a991a46c4571428,0.0948,0.0951,0,160,160,67,1,twofour,,,,,,,,,,,,,,,,,,,,,,,,,,,,,,,,,,,,,,,,,,,,,,,,,,,,,,,,,,,,,,,,,,,,,,,,,,,,,,,,,,,,,,,,,,,,,,,,,,,,,,,,,,,,,,,,,,,,,,,,,,,,,,,,,,,,,,,,,
,,5edc3d681a69d49159555f91,2024-02-19_03h19.18.942,kallum_motion_pilot,2023.2.2,Win32,58.82352941,5edc3d681a69d49159555f91,65d2b6c8f2eece985d8e374c,65d2b9d98a991a46c4571428,0.0953,0.0954,0,161,161,154,1,sixfive,,,,,,,,,,,,,,,,,,,,,,,,,,,,,,,,,,,,,,,,,,,,,,,,,,,,,,,,,,,,,,,,,,,,,,,,,,,,,,,,,,,,,,,,,,,,,,,,,,,,,,,,,,,,,,,,,,,,,,,,,,,,,,,,,,,,,,,,,
,,5edc3d681a69d49159555f91,2024-02-19_03h19.18.942,kallum_motion_pilot,2023.2.2,Win32,58.82352941,5edc3d681a69d49159555f91,65d2b6c8f2eece985d8e374c,65d2b9d98a991a46c4571428,0.0955,0.0956,1,0,162,40,1,onetwo,,,,,,,,,,,,,,,,,,,,,,,,,,,,,,,,,,,,,,,,,,,,,,,,,,,,,,,,,,,,,,,,,,,,,,,,,,,,,,,,,,,,,,,,,,,,,,,,,,,,,,,,,,,,,,,,,,,,,,,,,,,,,,,,,,,,,,,,,
,,5edc3d681a69d49159555f91,2024-02-19_03h19.18.942,kallum_motion_pilot,2023.2.2,Win32,58.82352941,5edc3d681a69d49159555f91,65d2b6c8f2eece985d8e374c,65d2b9d98a991a46c4571428,0.0958,0.0959,1,1,163,55,1,fourthree,,,,,,,,,,,,,,,,,,,,,,,,,,,,,,,,,,,,,,,,,,,,,,,,,,,,,,,,,,,,,,,,,,,,,,,,,,,,,,,,,,,,,,,,,,,,,,,,,,,,,,,,,,,,,,,,,,,,,,,,,,,,,,,,,,,,,,,,,
,,5edc3d681a69d49159555f91,2024-02-19_03h19.18.942,kallum_motion_pilot,2023.2.2,Win32,58.82352941,5edc3d681a69d49159555f91,65d2b6c8f2eece985d8e374c,65d2b9d98a991a46c4571428,0.096,0.0961,1,2,164,6,1,fourtwo,,,,,,,,,,,,,,,,,,,,,,,,,,,,,,,,,,,,,,,,,,,,,,,,,,,,,,,,,,,,,,,,,,,,,,,,,,,,,,,,,,,,,,,,,,,,,,,,,,,,,,,,,,,,,,,,,,,,,,,,,,,,,,,,,,,,,,,,,
,,5edc3d681a69d49159555f91,2024-02-19_03h19.18.942,kallum_motion_pilot,2023.2.2,Win32,58.82352941,5edc3d681a69d49159555f91,65d2b6c8f2eece985d8e374c,65d2b9d98a991a46c4571428,0.0962,0.0964,1,3,165,75,1,twofour,,,,,,,,,,,,,,,,,,,,,,,,,,,,,,,,,,,,,,,,,,,,,,,,,,,,,,,,,,,,,,,,,,,,,,,,,,,,,,,,,,,,,,,,,,,,,,,,,,,,,,,,,,,,,,,,,,,,,,,,,,,,,,,,,,,,,,,,,
,,5edc3d681a69d49159555f91,2024-02-19_03h19.18.942,kallum_motion_pilot,2023.2.2,Win32,58.82352941,5edc3d681a69d49159555f91,65d2b6c8f2eece985d8e374c,65d2b9d98a991a46c4571428,0.0966,0.0968,1,4,166,161,1,fiveseven,,,,,,,,,,,,,,,,,,,,,,,,,,,,,,,,,,,,,,,,,,,,,,,,,,,,,,,,,,,,,,,,,,,,,,,,,,,,,,,,,,,,,,,,,,,,,,,,,,,,,,,,,,,,,,,,,,,,,,,,,,,,,,,,,,,,,,,,,
,,5edc3d681a69d49159555f91,2024-02-19_03h19.18.942,kallum_motion_pilot,2023.2.2,Win32,58.82352941,5edc3d681a69d49159555f91,65d2b6c8f2eece985d8e374c,65d2b9d98a991a46c4571428,0.097,0.097,1,5,167,85,1,seveneight,,,,,,,,,,,,,,,,,,,,,,,,,,,,,,,,,,,,,,,,,,,,,,,,,,,,,,,,,,,,,,,,,,,,,,,,,,,,,,,,,,,,,,,,,,,,,,,,,,,,,,,,,,,,,,,,,,,,,,,,,,,,,,,,,,,,,,,,,
,,5edc3d681a69d49159555f91,2024-02-19_03h19.18.942,kallum_motion_pilot,2023.2.2,Win32,58.82352941,5edc3d681a69d49159555f91,65d2b6c8f2eece985d8e374c,65d2b9d98a991a46c4571428,0.0972,0.0973,1,6,168,49,1,onethree,,,,,,,,,,,,,,,,,,,,,,,,,,,,,,,,,,,,,,,,,,,,,,,,,,,,,,,,,,,,,,,,,,,,,,,,,,,,,,,,,,,,,,,,,,,,,,,,,,,,,,,,,,,,,,,,,,,,,,,,,,,,,,,,,,,,,,,,,
,,5edc3d681a69d49159555f91,2024-02-19_03h19.18.942,kallum_motion_pilot,2023.2.2,Win32,58.82352941,5edc3d681a69d49159555f91,65d2b6c8f2eece985d8e374c,65d2b9d98a991a46c4571428,0.0975,0.0975,1,7,169,52,1,threeone,,,,,,,,,,,,,,,,,,,,,,,,,,,,,,,,,,,,,,,,,,,,,,,,,,,,,,,,,,,,,,,,,,,,,,,,,,,,,,,,,,,,,,,,,,,,,,,,,,,,,,,,,,,,,,,,,,,,,,,,,,,,,,,,,,,,,,,,,
,,5edc3d681a69d49159555f91,2024-02-19_03h19.18.942,kallum_motion_pilot,2023.2.2,Win32,58.82352941,5edc3d681a69d49159555f91,65d2b6c8f2eece985d8e374c,65d2b9d98a991a46c4571428,0.0977,0.0978,1,8,170,143,1,eightseven,,,,,,,,,,,,,,,,,,,,,,,,,,,,,,,,,,,,,,,,,,,,,,,,,,,,,,,,,,,,,,,,,,,,,,,,,,,,,,,,,,,,,,,,,,,,,,,,,,,,,,,,,,,,,,,,,,,,,,,,,,,,,,,,,,,,,,,,,
,,5edc3d681a69d49159555f91,2024-02-19_03h19.18.942,kallum_motion_pilot,2023.2.2,Win32,58.82352941,5edc3d681a69d49159555f91,65d2b6c8f2eece985d8e374c,65d2b9d98a991a46c4571428,0.0979,0.0979,1,9,171,87,1,eightseven,,,,,,,,,,,,,,,,,,,,,,,,,,,,,,,,,,,,,,,,,,,,,,,,,,,,,,,,,,,,,,,,,,,,,,,,,,,,,,,,,,,,,,,,,,,,,,,,,,,,,,,,,,,,,,,,,,,,,,,,,,,,,,,,,,,,,,,,,
,,5edc3d681a69d49159555f91,2024-02-19_03h19.18.942,kallum_motion_pilot,2023.2.2,Win32,58.82352941,5edc3d681a69d49159555f91,65d2b6c8f2eece985d8e374c,65d2b9d98a991a46c4571428,0.0981,0.0982,1,10,172,48,1,onetwo,,,,,,,,,,,,,,,,,,,,,,,,,,,,,,,,,,,,,,,,,,,,,,,,,,,,,,,,,,,,,,,,,,,,,,,,,,,,,,,,,,,,,,,,,,,,,,,,,,,,,,,,,,,,,,,,,,,,,,,,,,,,,,,,,,,,,,,,,
,,5edc3d681a69d49159555f91,2024-02-19_03h19.18.942,kallum_motion_pilot,2023.2.2,Win32,58.82352941,5edc3d681a69d49159555f91,65d2b6c8f2eece985d8e374c,65d2b9d98a991a46c4571428,0.0982,0.0983,1,11,173,66,1,twoone,,,,,,,,,,,,,,,,,,,,,,,,,,,,,,,,,,,,,,,,,,,,,,,,,,,,,,,,,,,,,,,,,,,,,,,,,,,,,,,,,,,,,,,,,,,,,,,,,,,,,,,,,,,,,,,,,,,,,,,,,,,,,,,,,,,,,,,,,
,,5edc3d681a69d49159555f91,2024-02-19_03h19.18.942,kallum_motion_pilot,2023.2.2,Win32,58.82352941,5edc3d681a69d49159555f91,65d2b6c8f2eece985d8e374c,65d2b9d98a991a46c4571428,0.0985,0.0986,1,12,174,13,1,threefour,,,,,,,,,,,,,,,,,,,,,,,,,,,,,,,,,,,,,,,,,,,,,,,,,,,,,,,,,,,,,,,,,,,,,,,,,,,,,,,,,,,,,,,,,,,,,,,,,,,,,,,,,,,,,,,,,,,,,,,,,,,,,,,,,,,,,,,,,
,,5edc3d681a69d49159555f91,2024-02-19_03h19.18.942,kallum_motion_pilot,2023.2.2,Win32,58.82352941,5edc3d681a69d49159555f91,65d2b6c8f2eece985d8e374c,65d2b9d98a991a46c4571428,0.0987,0.0988,1,13,175,129,1,fiveseven,,,,,,,,,,,,,,,,,,,,,,,,,,,,,,,,,,,,,,,,,,,,,,,,,,,,,,,,,,,,,,,,,,,,,,,,,,,,,,,,,,,,,,,,,,,,,,,,,,,,,,,,,,,,,,,,,,,,,,,,,,,,,,,,,,,,,,,,,
,,5edc3d681a69d49159555f91,2024-02-19_03h19.18.942,kallum_motion_pilot,2023.2.2,Win32,58.82352941,5edc3d681a69d49159555f91,65d2b6c8f2eece985d8e374c,65d2b9d98a991a46c4571428,0.099,0.099,1,14,176,11,1,twofour,,,,,,,,,,,,,,,,,,,,,,,,,,,,,,,,,,,,,,,,,,,,,,,,,,,,,,,,,,,,,,,,,,,,,,,,,,,,,,,,,,,,,,,,,,,,,,,,,,,,,,,,,,,,,,,,,,,,,,,,,,,,,,,,,,,,,,,,,
,,5edc3d681a69d49159555f91,2024-02-19_03h19.18.942,kallum_motion_pilot,2023.2.2,Win32,58.82352941,5edc3d681a69d49159555f91,65d2b6c8f2eece985d8e374c,65d2b9d98a991a46c4571428,0.0991,0.0992,1,15,177,78,1,fourtwo,,,,,,,,,,,,,,,,,,,,,,,,,,,,,,,,,,,,,,,,,,,,,,,,,,,,,,,,,,,,,,,,,,,,,,,,,,,,,,,,,,,,,,,,,,,,,,,,,,,,,,,,,,,,,,,,,,,,,,,,,,,,,,,,,,,,,,,,,
,,5edc3d681a69d49159555f91,2024-02-19_03h19.18.942,kallum_motion_pilot,2023.2.2,Win32,58.82352941,5edc3d681a69d49159555f91,65d2b6c8f2eece985d8e374c,65d2b9d98a991a46c4571428,0.0994,0.0995,1,16,178,45,1,threefour,,,,,,,,,,,,,,,,,,,,,,,,,,,,,,,,,,,,,,,,,,,,,,,,,,,,,,,,,,,,,,,,,,,,,,,,,,,,,,,,,,,,,,,,,,,,,,,,,,,,,,,,,,,,,,,,,,,,,,,,,,,,,,,,,,,,,,,,,
,,5edc3d681a69d49159555f91,2024-02-19_03h19.18.942,kallum_motion_pilot,2023.2.2,Win32,58.82352941,5edc3d681a69d49159555f91,65d2b6c8f2eece985d8e374c,65d2b9d98a991a46c4571428,0.0995,0.0996,1,17,179,106,1,sixfive,,,,,,,,,,,,,,,,,,,,,,,,,,,,,,,,,,,,,,,,,,,,,,,,,,,,,,,,,,,,,,,,,,,,,,,,,,,,,,,,,,,,,,,,,,,,,,,,,,,,,,,,,,,,,,,,,,,,,,,,,,,,,,,,,,,,,,,,,
,,5edc3d681a69d49159555f91,2024-02-19_03h19.18.942,kallum_motion_pilot,2023.2.2,Win32,58.82352941,5edc3d681a69d49159555f91,65d2b6c8f2eece985d8e374c,65d2b9d98a991a46c4571428,0.0998,0.0998,1,18,180,122,1,sixfive,,,,,,,,,,,,,,,,,,,,,,,,,,,,,,,,,,,,,,,,,,,,,,,,,,,,,,,,,,,,,,,,,,,,,,,,,,,,,,,,,,,,,,,,,,,,,,,,,,,,,,,,,,,,,,,,,,,,,,,,,,,,,,,,,,,,,,,,,
,,5edc3d681a69d49159555f91,2024-02-19_03h19.18.942,kallum_motion_pilot,2023.2.2,Win32,58.82352941,5edc3d681a69d49159555f91,65d2b6c8f2eece985d8e374c,65d2b9d98a991a46c4571428,0.0999,0.1,1,19,181,10,1,twoone,,,,,,,,,,,,,,,,,,,,,,,,,,,,,,,,,,,,,,,,,,,,,,,,,,,,,,,,,,,,,,,,,,,,,,,,,,,,,,,,,,,,,,,,,,,,,,,,,,,,,,,,,,,,,,,,,,,,,,,,,,,,,,,,,,,,,,,,,
,,5edc3d681a69d49159555f91,2024-02-19_03h19.18.942,kallum_motion_pilot,2023.2.2,Win32,58.82352941,5edc3d681a69d49159555f91,65d2b6c8f2eece985d8e374c,65d2b9d98a991a46c4571428,0.1001,0.1002,1,20,182,50,1,twoone,,,,,,,,,,,,,,,,,,,,,,,,,,,,,,,,,,,,,,,,,,,,,,,,,,,,,,,,,,,,,,,,,,,,,,,,,,,,,,,,,,,,,,,,,,,,,,,,,,,,,,,,,,,,,,,,,,,,,,,,,,,,,,,,,,,,,,,,,
,,5edc3d681a69d49159555f91,2024-02-19_03h19.18.942,kallum_motion_pilot,2023.2.2,Win32,58.82352941,5edc3d681a69d49159555f91,65d2b6c8f2eece985d8e374c,65d2b9d98a991a46c4571428,0.1003,0.1004,1,21,183,5,1,threefour,,,,,,,,,,,,,,,,,,,,,,,,,,,,,,,,,,,,,,,,,,,,,,,,,,,,,,,,,,,,,,,,,,,,,,,,,,,,,,,,,,,,,,,,,,,,,,,,,,,,,,,,,,,,,,,,,,,,,,,,,,,,,,,,,,,,,,,,,
,,5edc3d681a69d49159555f91,2024-02-19_03h19.18.942,kallum_motion_pilot,2023.2.2,Win32,58.82352941,5edc3d681a69d49159555f91,65d2b6c8f2eece985d8e374c,65d2b9d98a991a46c4571428,0.1005,0.1007,1,22,184,132,1,sevenfive,,,,,,,,,,,,,,,,,,,,,,,,,,,,,,,,,,,,,,,,,,,,,,,,,,,,,,,,,,,,,,,,,,,,,,,,,,,,,,,,,,,,,,,,,,,,,,,,,,,,,,,,,,,,,,,,,,,,,,,,,,,,,,,,,,,,,,,,,
,,5edc3d681a69d49159555f91,2024-02-19_03h19.18.942,kallum_motion_pilot,2023.2.2,Win32,58.82352941,5edc3d681a69d49159555f91,65d2b6c8f2eece985d8e374c,65d2b9d98a991a46c4571428,0.1009,0.1011,1,23,185,51,1,twofour,,,,,,,,,,,,,,,,,,,,,,,,,,,,,,,,,,,,,,,,,,,,,,,,,,,,,,,,,,,,,,,,,,,,,,,,,,,,,,,,,,,,,,,,,,,,,,,,,,,,,,,,,,,,,,,,,,,,,,,,,,,,,,,,,,,,,,,,,
,,5edc3d681a69d49159555f91,2024-02-19_03h19.18.942,kallum_motion_pilot,2023.2.2,Win32,58.82352941,5edc3d681a69d49159555f91,65d2b6c8f2eece985d8e374c,65d2b9d98a991a46c4571428,0.1012,0.1012,1,24,186,14,1,fourtwo,,,,,,,,,,,,,,,,,,,,,,,,,,,,,,,,,,,,,,,,,,,,,,,,,,,,,,,,,,,,,,,,,,,,,,,,,,,,,,,,,,,,,,,,,,,,,,,,,,,,,,,,,,,,,,,,,,,,,,,,,,,,,,,,,,,,,,,,,
,,5edc3d681a69d49159555f91,2024-02-19_03h19.18.942,kallum_motion_pilot,2023.2.2,Win32,58.82352941,5edc3d681a69d49159555f91,65d2b6c8f2eece985d8e374c,65d2b9d98a991a46c4571428,0.1014,0.1015,1,25,187,130,1,sixfive,,,,,,,,,,,,,,,,,,,,,,,,,,,,,,,,,,,,,,,,,,,,,,,,,,,,,,,,,,,,,,,,,,,,,,,,,,,,,,,,,,,,,,,,,,,,,,,,,,,,,,,,,,,,,,,,,,,,,,,,,,,,,,,,,,,,,,,,,
,,5edc3d681a69d49159555f91,2024-02-19_03h19.18.942,kallum_motion_pilot,2023.2.2,Win32,58.82352941,5edc3d681a69d49159555f91,65d2b6c8f2eece985d8e374c,65d2b9d98a991a46c4571428,0.1017,0.1018,1,26,188,100,1,sevenfive,,,,,,,,,,,,,,,,,,,,,,,,,,,,,,,,,,,,,,,,,,,,,,,,,,,,,,,,,,,,,,,,,,,,,,,,,,,,,,,,,,,,,,,,,,,,,,,,,,,,,,,,,,,,,,,,,,,,,,,,,,,,,,,,,,,,,,,,,
,,5edc3d681a69d49159555f91,2024-02-19_03h19.18.942,kallum_motion_pilot,2023.2.2,Win32,58.82352941,5edc3d681a69d49159555f91,65d2b6c8f2eece985d8e374c,65d2b9d98a991a46c4571428,0.1019,0.1021,1,27,189,65,1,onethree,,,,,,,,,,,,,,,,,,,,,,,,,,,,,,,,,,,,,,,,,,,,,,,,,,,,,,,,,,,,,,,,,,,,,,,,,,,,,,,,,,,,,,,,,,,,,,,,,,,,,,,,,,,,,,,,,,,,,,,,,,,,,,,,,,,,,,,,,
,,5edc3d681a69d49159555f91,2024-02-19_03h19.18.942,kallum_motion_pilot,2023.2.2,Win32,58.82352941,5edc3d681a69d49159555f91,65d2b6c8f2eece985d8e374c,65d2b9d98a991a46c4571428,0.1022,0.1023,1,28,190,33,1,onethree,,,,,,,,,,,,,,,,,,,,,,,,,,,,,,,,,,,,,,,,,,,,,,,,,,,,,,,,,,,,,,,,,,,,,,,,,,,,,,,,,,,,,,,,,,,,,,,,,,,,,,,,,,,,,,,,,,,,,,,,,,,,,,,,,,,,,,,,,
,,5edc3d681a69d49159555f91,2024-02-19_03h19.18.942,kallum_motion_pilot,2023.2.2,Win32,58.82352941,5edc3d681a69d49159555f91,65d2b6c8f2eece985d8e374c,65d2b9d98a991a46c4571428,0.1025,0.1027,1,29,191,146,1,sixfive,,,,,,,,,,,,,,,,,,,,,,,,,,,,,,,,,,,,,,,,,,,,,,,,,,,,,,,,,,,,,,,,,,,,,,,,,,,,,,,,,,,,,,,,,,,,,,,,,,,,,,,,,,,,,,,,,,,,,,,,,,,,,,,,,,,,,,,,,
,,5edc3d681a69d49159555f91,2024-02-19_03h19.18.942,kallum_motion_pilot,2023.2.2,Win32,58.82352941,5edc3d681a69d49159555f91,65d2b6c8f2eece985d8e374c,65d2b9d98a991a46c4571428,0.1028,0.103,1,30,192,147,1,sixeight,,,,,,,,,,,,,,,,,,,,,,,,,,,,,,,,,,,,,,,,,,,,,,,,,,,,,,,,,,,,,,,,,,,,,,,,,,,,,,,,,,,,,,,,,,,,,,,,,,,,,,,,,,,,,,,,,,,,,,,,,,,,,,,,,,,,,,,,,
,,5edc3d681a69d49159555f91,2024-02-19_03h19.18.942,kallum_motion_pilot,2023.2.2,Win32,58.82352941,5edc3d681a69d49159555f91,65d2b6c8f2eece985d8e374c,65d2b9d98a991a46c4571428,0.103,0.1031,1,31,193,39,1,fourthree,,,,,,,,,,,,,,,,,,,,,,,,,,,,,,,,,,,,,,,,,,,,,,,,,,,,,,,,,,,,,,,,,,,,,,,,,,,,,,,,,,,,,,,,,,,,,,,,,,,,,,,,,,,,,,,,,,,,,,,,,,,,,,,,,,,,,,,,,
,,5edc3d681a69d49159555f91,2024-02-19_03h19.18.942,kallum_motion_pilot,2023.2.2,Win32,58.82352941,5edc3d681a69d49159555f91,65d2b6c8f2eece985d8e374c,65d2b9d98a991a46c4571428,0.1034,0.1035,1,32,194,42,1,twoone,,,,,,,,,,,,,,,,,,,,,,,,,,,,,,,,,,,,,,,,,,,,,,,,,,,,,,,,,,,,,,,,,,,,,,,,,,,,,,,,,,,,,,,,,,,,,,,,,,,,,,,,,,,,,,,,,,,,,,,,,,,,,,,,,,,,,,,,,
,,5edc3d681a69d49159555f91,2024-02-19_03h19.18.942,kallum_motion_pilot,2023.2.2,Win32,58.82352941,5edc3d681a69d49159555f91,65d2b6c8f2eece985d8e374c,65d2b9d98a991a46c4571428,0.1036,0.1038,1,33,195,79,1,eightseven,,,,,,,,,,,,,,,,,,,,,,,,,,,,,,,,,,,,,,,,,,,,,,,,,,,,,,,,,,,,,,,,,,,,,,,,,,,,,,,,,,,,,,,,,,,,,,,,,,,,,,,,,,,,,,,,,,,,,,,,,,,,,,,,,,,,,,,,,
,,5edc3d681a69d49159555f91,2024-02-19_03h19.18.942,kallum_motion_pilot,2023.2.2,Win32,58.82352941,5edc3d681a69d49159555f91,65d2b6c8f2eece985d8e374c,65d2b9d98a991a46c4571428,0.1041,0.1042,1,34,196,89,1,fiveseven,,,,,,,,,,,,,,,,,,,,,,,,,,,,,,,,,,,,,,,,,,,,,,,,,,,,,,,,,,,,,,,,,,,,,,,,,,,,,,,,,,,,,,,,,,,,,,,,,,,,,,,,,,,,,,,,,,,,,,,,,,,,,,,,,,,,,,,,,
,,5edc3d681a69d49159555f91,2024-02-19_03h19.18.942,kallum_motion_pilot,2023.2.2,Win32,58.82352941,5edc3d681a69d49159555f91,65d2b6c8f2eece985d8e374c,65d2b9d98a991a46c4571428,0.1044,0.1046,1,35,197,156,1,sevenfive,,,,,,,,,,,,,,,,,,,,,,,,,,,,,,,,,,,,,,,,,,,,,,,,,,,,,,,,,,,,,,,,,,,,,,,,,,,,,,,,,,,,,,,,,,,,,,,,,,,,,,,,,,,,,,,,,,,,,,,,,,,,,,,,,,,,,,,,,
,,5edc3d681a69d49159555f91,2024-02-19_03h19.18.942,kallum_motion_pilot,2023.2.2,Win32,58.82352941,5edc3d681a69d49159555f91,65d2b6c8f2eece985d8e374c,65d2b9d98a991a46c4571428,0.1048,0.1057,1,36,198,141,1,seveneight,,,,,,,,,,,,,,,,,,,,,,,,,,,,,,,,,,,,,,,,,,,,,,,,,,,,,,,,,,,,,,,,,,,,,,,,,,,,,,,,,,,,,,,,,,,,,,,,,,,,,,,,,,,,,,,,,,,,,,,,,,,,,,,,,,,,,,,,,
,,5edc3d681a69d49159555f91,2024-02-19_03h19.18.942,kallum_motion_pilot,2023.2.2,Win32,58.82352941,5edc3d681a69d49159555f91,65d2b6c8f2eece985d8e374c,65d2b9d98a991a46c4571428,0.106,0.1061,1,37,199,119,1,eightseven,,,,,,,,,,,,,,,,,,,,,,,,,,,,,,,,,,,,,,,,,,,,,,,,,,,,,,,,,,,,,,,,,,,,,,,,,,,,,,,,,,,,,,,,,,,,,,,,,,,,,,,,,,,,,,,,,,,,,,,,,,,,,,,,,,,,,,,,,
,,5edc3d681a69d49159555f91,2024-02-19_03h19.18.942,kallum_motion_pilot,2023.2.2,Win32,58.82352941,5edc3d681a69d49159555f91,65d2b6c8f2eece985d8e374c,65d2b9d98a991a46c4571428,0.1063,0.1064,1,38,200,138,1,sixfive,,,,,,,,,,,,,,,,,,,,,,,,,,,,,,,,,,,,,,,,,,,,,,,,,,,,,,,,,,,,,,,,,,,,,,,,,,,,,,,,,,,,,,,,,,,,,,,,,,,,,,,,,,,,,,,,,,,,,,,,,,,,,,,,,,,,,,,,,
,,5edc3d681a69d49159555f91,2024-02-19_03h19.18.942,kallum_motion_pilot,2023.2.2,Win32,58.82352941,5edc3d681a69d49159555f91,65d2b6c8f2eece985d8e374c,65d2b9d98a991a46c4571428,0.1066,0.1066,1,39,201,96,1,fivesix,,,,,,,,,,,,,,,,,,,,,,,,,,,,,,,,,,,,,,,,,,,,,,,,,,,,,,,,,,,,,,,,,,,,,,,,,,,,,,,,,,,,,,,,,,,,,,,,,,,,,,,,,,,,,,,,,,,,,,,,,,,,,,,,,,,,,,,,,
,,5edc3d681a69d49159555f91,2024-02-19_03h19.18.942,kallum_motion_pilot,2023.2.2,Win32,58.82352941,5edc3d681a69d49159555f91,65d2b6c8f2eece985d8e374c,65d2b9d98a991a46c4571428,0.1068,0.107,1,40,202,114,1,sixfive,,,,,,,,,,,,,,,,,,,,,,,,,,,,,,,,,,,,,,,,,,,,,,,,,,,,,,,,,,,,,,,,,,,,,,,,,,,,,,,,,,,,,,,,,,,,,,,,,,,,,,,,,,,,,,,,,,,,,,,,,,,,,,,,,,,,,,,,,
,,5edc3d681a69d49159555f91,2024-02-19_03h19.18.942,kallum_motion_pilot,2023.2.2,Win32,58.82352941,5edc3d681a69d49159555f91,65d2b6c8f2eece985d8e374c,65d2b9d98a991a46c4571428,0.1071,0.1072,1,41,203,92,1,sevenfive,,,,,,,,,,,,,,,,,,,,,,,,,,,,,,,,,,,,,,,,,,,,,,,,,,,,,,,,,,,,,,,,,,,,,,,,,,,,,,,,,,,,,,,,,,,,,,,,,,,,,,,,,,,,,,,,,,,,,,,,,,,,,,,,,,,,,,,,,
,,5edc3d681a69d49159555f91,2024-02-19_03h19.18.942,kallum_motion_pilot,2023.2.2,Win32,58.82352941,5edc3d681a69d49159555f91,65d2b6c8f2eece985d8e374c,65d2b9d98a991a46c4571428,0.1073,0.1074,1,42,204,1,1,onethree,,,,,,,,,,,,,,,,,,,,,,,,,,,,,,,,,,,,,,,,,,,,,,,,,,,,,,,,,,,,,,,,,,,,,,,,,,,,,,,,,,,,,,,,,,,,,,,,,,,,,,,,,,,,,,,,,,,,,,,,,,,,,,,,,,,,,,,,,
,,5edc3d681a69d49159555f91,2024-02-19_03h19.18.942,kallum_motion_pilot,2023.2.2,Win32,58.82352941,5edc3d681a69d49159555f91,65d2b6c8f2eece985d8e374c,65d2b9d98a991a46c4571428,0.1076,0.1077,1,43,205,16,1,onetwo,,,,,,,,,,,,,,,,,,,,,,,,,,,,,,,,,,,,,,,,,,,,,,,,,,,,,,,,,,,,,,,,,,,,,,,,,,,,,,,,,,,,,,,,,,,,,,,,,,,,,,,,,,,,,,,,,,,,,,,,,,,,,,,,,,,,,,,,,
,,5edc3d681a69d49159555f91,2024-02-19_03h19.18.942,kallum_motion_pilot,2023.2.2,Win32,58.82352941,5edc3d681a69d49159555f91,65d2b6c8f2eece985d8e374c,65d2b9d98a991a46c4571428,0.1079,0.108,1,44,206,2,1,twoone,,,,,,,,,,,,,,,,,,,,,,,,,,,,,,,,,,,,,,,,,,,,,,,,,,,,,,,,,,,,,,,,,,,,,,,,,,,,,,,,,,,,,,,,,,,,,,,,,,,,,,,,,,,,,,,,,,,,,,,,,,,,,,,,,,,,,,,,,
,,5edc3d681a69d49159555f91,2024-02-19_03h19.18.942,kallum_motion_pilot,2023.2.2,Win32,58.82352941,5edc3d681a69d49159555f91,65d2b6c8f2eece985d8e374c,65d2b9d98a991a46c4571428,0.1082,0.1083,1,45,207,135,1,eightseven,,,,,,,,,,,,,,,,,,,,,,,,,,,,,,,,,,,,,,,,,,,,,,,,,,,,,,,,,,,,,,,,,,,,,,,,,,,,,,,,,,,,,,,,,,,,,,,,,,,,,,,,,,,,,,,,,,,,,,,,,,,,,,,,,,,,,,,,,
,,5edc3d681a69d49159555f91,2024-02-19_03h19.18.942,kallum_motion_pilot,2023.2.2,Win32,58.82352941,5edc3d681a69d49159555f91,65d2b6c8f2eece985d8e374c,65d2b9d98a991a46c4571428,0.1085,0.1086,1,46,208,105,1,fiveseven,,,,,,,,,,,,,,,,,,,,,,,,,,,,,,,,,,,,,,,,,,,,,,,,,,,,,,,,,,,,,,,,,,,,,,,,,,,,,,,,,,,,,,,,,,,,,,,,,,,,,,,,,,,,,,,,,,,,,,,,,,,,,,,,,,,,,,,,,
,,5edc3d681a69d49159555f91,2024-02-19_03h19.18.942,kallum_motion_pilot,2023.2.2,Win32,58.82352941,5edc3d681a69d49159555f91,65d2b6c8f2eece985d8e374c,65d2b9d98a991a46c4571428,0.1087,0.1088,1,47,209,108,1,sevenfive,,,,,,,,,,,,,,,,,,,,,,,,,,,,,,,,,,,,,,,,,,,,,,,,,,,,,,,,,,,,,,,,,,,,,,,,,,,,,,,,,,,,,,,,,,,,,,,,,,,,,,,,,,,,,,,,,,,,,,,,,,,,,,,,,,,,,,,,,
,,5edc3d681a69d49159555f91,2024-02-19_03h19.18.942,kallum_motion_pilot,2023.2.2,Win32,58.82352941,5edc3d681a69d49159555f91,65d2b6c8f2eece985d8e374c,65d2b9d98a991a46c4571428,0.109,0.1091,1,48,210,7,1,fourthree,,,,,,,,,,,,,,,,,,,,,,,,,,,,,,,,,,,,,,,,,,,,,,,,,,,,,,,,,,,,,,,,,,,,,,,,,,,,,,,,,,,,,,,,,,,,,,,,,,,,,,,,,,,,,,,,,,,,,,,,,,,,,,,,,,,,,,,,,
,,5edc3d681a69d49159555f91,2024-02-19_03h19.18.942,kallum_motion_pilot,2023.2.2,Win32,58.82352941,5edc3d681a69d49159555f91,65d2b6c8f2eece985d8e374c,65d2b9d98a991a46c4571428,0.1092,0.1094,1,49,211,64,1,onetwo,,,,,,,,,,,,,,,,,,,,,,,,,,,,,,,,,,,,,,,,,,,,,,,,,,,,,,,,,,,,,,,,,,,,,,,,,,,,,,,,,,,,,,,,,,,,,,,,,,,,,,,,,,,,,,,,,,,,,,,,,,,,,,,,,,,,,,,,,
,,5edc3d681a69d49159555f91,2024-02-19_03h19.18.942,kallum_motion_pilot,2023.2.2,Win32,58.82352941,5edc3d681a69d49159555f91,65d2b6c8f2eece985d8e374c,65d2b9d98a991a46c4571428,0.1095,0.1096,1,50,212,69,1,threefour,,,,,,,,,,,,,,,,,,,,,,,,,,,,,,,,,,,,,,,,,,,,,,,,,,,,,,,,,,,,,,,,,,,,,,,,,,,,,,,,,,,,,,,,,,,,,,,,,,,,,,,,,,,,,,,,,,,,,,,,,,,,,,,,,,,,,,,,,
,,5edc3d681a69d49159555f91,2024-02-19_03h19.18.942,kallum_motion_pilot,2023.2.2,Win32,58.82352941,5edc3d681a69d49159555f91,65d2b6c8f2eece985d8e374c,65d2b9d98a991a46c4571428,0.1098,0.1099,1,51,213,88,1,fivesix,,,,,,,,,,,,,,,,,,,,,,,,,,,,,,,,,,,,,,,,,,,,,,,,,,,,,,,,,,,,,,,,,,,,,,,,,,,,,,,,,,,,,,,,,,,,,,,,,,,,,,,,,,,,,,,,,,,,,,,,,,,,,,,,,,,,,,,,,
,,5edc3d681a69d49159555f91,2024-02-19_03h19.18.942,kallum_motion_pilot,2023.2.2,Win32,58.82352941,5edc3d681a69d49159555f91,65d2b6c8f2eece985d8e374c,65d2b9d98a991a46c4571428,0.1101,0.1101,1,52,214,17,1,onethree,,,,,,,,,,,,,,,,,,,,,,,,,,,,,,,,,,,,,,,,,,,,,,,,,,,,,,,,,,,,,,,,,,,,,,,,,,,,,,,,,,,,,,,,,,,,,,,,,,,,,,,,,,,,,,,,,,,,,,,,,,,,,,,,,,,,,,,,,
,,5edc3d681a69d49159555f91,2024-02-19_03h19.18.942,kallum_motion_pilot,2023.2.2,Win32,58.82352941,5edc3d681a69d49159555f91,65d2b6c8f2eece985d8e374c,65d2b9d98a991a46c4571428,0.1103,0.1105,1,53,215,12,1,threeone,,,,,,,,,,,,,,,,,,,,,,,,,,,,,,,,,,,,,,,,,,,,,,,,,,,,,,,,,,,,,,,,,,,,,,,,,,,,,,,,,,,,,,,,,,,,,,,,,,,,,,,,,,,,,,,,,,,,,,,,,,,,,,,,,,,,,,,,,
,,5edc3d681a69d49159555f91,2024-02-19_03h19.18.942,kallum_motion_pilot,2023.2.2,Win32,58.82352941,5edc3d681a69d49159555f91,65d2b6c8f2eece985d8e374c,65d2b9d98a991a46c4571428,0.1106,0.1108,1,54,216,57,1,onethree,,,,,,,,,,,,,,,,,,,,,,,,,,,,,,,,,,,,,,,,,,,,,,,,,,,,,,,,,,,,,,,,,,,,,,,,,,,,,,,,,,,,,,,,,,,,,,,,,,,,,,,,,,,,,,,,,,,,,,,,,,,,,,,,,,,,,,,,,
,,5edc3d681a69d49159555f91,2024-02-19_03h19.18.942,kallum_motion_pilot,2023.2.2,Win32,58.82352941,5edc3d681a69d49159555f91,65d2b6c8f2eece985d8e374c,65d2b9d98a991a46c4571428,0.1109,0.111,1,55,217,99,1,sixeight,,,,,,,,,,,,,,,,,,,,,,,,,,,,,,,,,,,,,,,,,,,,,,,,,,,,,,,,,,,,,,,,,,,,,,,,,,,,,,,,,,,,,,,,,,,,,,,,,,,,,,,,,,,,,,,,,,,,,,,,,,,,,,,,,,,,,,,,,
,,5edc3d681a69d49159555f91,2024-02-19_03h19.18.942,kallum_motion_pilot,2023.2.2,Win32,58.82352941,5edc3d681a69d49159555f91,65d2b6c8f2eece985d8e374c,65d2b9d98a991a46c4571428,0.1111,0.1113,1,56,218,23,1,fourthree,,,,,,,,,,,,,,,,,,,,,,,,,,,,,,,,,,,,,,,,,,,,,,,,,,,,,,,,,,,,,,,,,,,,,,,,,,,,,,,,,,,,,,,,,,,,,,,,,,,,,,,,,,,,,,,,,,,,,,,,,,,,,,,,,,,,,,,,,
,,5edc3d681a69d49159555f91,2024-02-19_03h19.18.942,kallum_motion_pilot,2023.2.2,Win32,58.82352941,5edc3d681a69d49159555f91,65d2b6c8f2eece985d8e374c,65d2b9d98a991a46c4571428,0.1115,0.1116,1,57,219,139,1,sixeight,,,,,,,,,,,,,,,,,,,,,,,,,,,,,,,,,,,,,,,,,,,,,,,,,,,,,,,,,,,,,,,,,,,,,,,,,,,,,,,,,,,,,,,,,,,,,,,,,,,,,,,,,,,,,,,,,,,,,,,,,,,,,,,,,,,,,,,,,
,,5edc3d681a69d49159555f91,2024-02-19_03h19.18.942,kallum_motion_pilot,2023.2.2,Win32,58.82352941,5edc3d681a69d49159555f91,65d2b6c8f2eece985d8e374c,65d2b9d98a991a46c4571428,0.1117,0.1119,1,58,220,74,1,twoone,,,,,,,,,,,,,,,,,,,,,,,,,,,,,,,,,,,,,,,,,,,,,,,,,,,,,,,,,,,,,,,,,,,,,,,,,,,,,,,,,,,,,,,,,,,,,,,,,,,,,,,,,,,,,,,,,,,,,,,,,,,,,,,,,,,,,,,,,
,,5edc3d681a69d49159555f91,2024-02-19_03h19.18.942,kallum_motion_pilot,2023.2.2,Win32,58.82352941,5edc3d681a69d49159555f91,65d2b6c8f2eece985d8e374c,65d2b9d98a991a46c4571428,0.112,0.1122,1,59,221,140,1,sevenfive,,,,,,,,,,,,,,,,,,,,,,,,,,,,,,,,,,,,,,,,,,,,,,,,,,,,,,,,,,,,,,,,,,,,,,,,,,,,,,,,,,,,,,,,,,,,,,,,,,,,,,,,,,,,,,,,,,,,,,,,,,,,,,,,,,,,,,,,,
,,5edc3d681a69d49159555f91,2024-02-19_03h19.18.942,kallum_motion_pilot,2023.2.2,Win32,58.82352941,5edc3d681a69d49159555f91,65d2b6c8f2eece985d8e374c,65d2b9d98a991a46c4571428,0.1123,0.1125,1,60,222,125,1,seveneight,,,,,,,,,,,,,,,,,,,,,,,,,,,,,,,,,,,,,,,,,,,,,,,,,,,,,,,,,,,,,,,,,,,,,,,,,,,,,,,,,,,,,,,,,,,,,,,,,,,,,,,,,,,,,,,,,,,,,,,,,,,,,,,,,,,,,,,,,
,,5edc3d681a69d49159555f91,2024-02-19_03h19.18.942,kallum_motion_pilot,2023.2.2,Win32,58.82352941,5edc3d681a69d49159555f91,65d2b6c8f2eece985d8e374c,65d2b9d98a991a46c4571428,0.1128,0.1128,1,61,223,19,1,twofour,,,,,,,,,,,,,,,,,,,,,,,,,,,,,,,,,,,,,,,,,,,,,,,,,,,,,,,,,,,,,,,,,,,,,,,,,,,,,,,,,,,,,,,,,,,,,,,,,,,,,,,,,,,,,,,,,,,,,,,,,,,,,,,,,,,,,,,,,
,,5edc3d681a69d49159555f91,2024-02-19_03h19.18.942,kallum_motion_pilot,2023.2.2,Win32,58.82352941,5edc3d681a69d49159555f91,65d2b6c8f2eece985d8e374c,65d2b9d98a991a46c4571428,0.113,0.1132,1,62,224,101,1,seveneight,,,,,,,,,,,,,,,,,,,,,,,,,,,,,,,,,,,,,,,,,,,,,,,,,,,,,,,,,,,,,,,,,,,,,,,,,,,,,,,,,,,,,,,,,,,,,,,,,,,,,,,,,,,,,,,,,,,,,,,,,,,,,,,,,,,,,,,,,
,,5edc3d681a69d49159555f91,2024-02-19_03h19.18.942,kallum_motion_pilot,2023.2.2,Win32,58.82352941,5edc3d681a69d49159555f91,65d2b6c8f2eece985d8e374c,65d2b9d98a991a46c4571428,0.1133,0.1134,1,63,225,9,1,onethree,,,,,,,,,,,,,,,,,,,,,,,,,,,,,,,,,,,,,,,,,,,,,,,,,,,,,,,,,,,,,,,,,,,,,,,,,,,,,,,,,,,,,,,,,,,,,,,,,,,,,,,,,,,,,,,,,,,,,,,,,,,,,,,,,,,,,,,,,
,,5edc3d681a69d49159555f91,2024-02-19_03h19.18.942,kallum_motion_pilot,2023.2.2,Win32,58.82352941,5edc3d681a69d49159555f91,65d2b6c8f2eece985d8e374c,65d2b9d98a991a46c4571428,0.1136,0.1137,1,64,226,136,1,fivesix,,,,,,,,,,,,,,,,,,,,,,,,,,,,,,,,,,,,,,,,,,,,,,,,,,,,,,,,,,,,,,,,,,,,,,,,,,,,,,,,,,,,,,,,,,,,,,,,,,,,,,,,,,,,,,,,,,,,,,,,,,,,,,,,,,,,,,,,,
,,5edc3d681a69d49159555f91,2024-02-19_03h19.18.942,kallum_motion_pilot,2023.2.2,Win32,58.82352941,5edc3d681a69d49159555f91,65d2b6c8f2eece985d8e374c,65d2b9d98a991a46c4571428,0.1138,0.1139,1,65,227,34,1,twoone,,,,,,,,,,,,,,,,,,,,,,,,,,,,,,,,,,,,,,,,,,,,,,,,,,,,,,,,,,,,,,,,,,,,,,,,,,,,,,,,,,,,,,,,,,,,,,,,,,,,,,,,,,,,,,,,,,,,,,,,,,,,,,,,,,,,,,,,,
,,5edc3d681a69d49159555f91,2024-02-19_03h19.18.942,kallum_motion_pilot,2023.2.2,Win32,58.82352941,5edc3d681a69d49159555f91,65d2b6c8f2eece985d8e374c,65d2b9d98a991a46c4571428,0.1149,0.1151,1,66,228,63,1,fourthree,,,,,,,,,,,,,,,,,,,,,,,,,,,,,,,,,,,,,,,,,,,,,,,,,,,,,,,,,,,,,,,,,,,,,,,,,,,,,,,,,,,,,,,,,,,,,,,,,,,,,,,,,,,,,,,,,,,,,,,,,,,,,,,,,,,,,,,,,
,,5edc3d681a69d49159555f91,2024-02-19_03h19.18.942,kallum_motion_pilot,2023.2.2,Win32,58.82352941,5edc3d681a69d49159555f91,65d2b6c8f2eece985d8e374c,65d2b9d98a991a46c4571428,0.1153,0.1154,1,67,229,3,1,twofour,,,,,,,,,,,,,,,,,,,,,,,,,,,,,,,,,,,,,,,,,,,,,,,,,,,,,,,,,,,,,,,,,,,,,,,,,,,,,,,,,,,,,,,,,,,,,,,,,,,,,,,,,,,,,,,,,,,,,,,,,,,,,,,,,,,,,,,,,
,,5edc3d681a69d49159555f91,2024-02-19_03h19.18.942,kallum_motion_pilot,2023.2.2,Win32,58.82352941,5edc3d681a69d49159555f91,65d2b6c8f2eece985d8e374c,65d2b9d98a991a46c4571428,0.1156,0.1157,1,68,230,102,1,eightsix,,,,,,,,,,,,,,,,,,,,,,,,,,,,,,,,,,,,,,,,,,,,,,,,,,,,,,,,,,,,,,,,,,,,,,,,,,,,,,,,,,,,,,,,,,,,,,,,,,,,,,,,,,,,,,,,,,,,,,,,,,,,,,,,,,,,,,,,,
,,5edc3d681a69d49159555f91,2024-02-19_03h19.18.942,kallum_motion_pilot,2023.2.2,Win32,58.82352941,5edc3d681a69d49159555f91,65d2b6c8f2eece985d8e374c,65d2b9d98a991a46c4571428,0.1159,0.116,1,69,231,113,1,fiveseven,,,,,,,,,,,,,,,,,,,,,,,,,,,,,,,,,,,,,,,,,,,,,,,,,,,,,,,,,,,,,,,,,,,,,,,,,,,,,,,,,,,,,,,,,,,,,,,,,,,,,,,,,,,,,,,,,,,,,,,,,,,,,,,,,,,,,,,,,
,,5edc3d681a69d49159555f91,2024-02-19_03h19.18.942,kallum_motion_pilot,2023.2.2,Win32,58.82352941,5edc3d681a69d49159555f91,65d2b6c8f2eece985d8e374c,65d2b9d98a991a46c4571428,0.116,0.1162,1,70,232,123,1,sixeight,,,,,,,,,,,,,,,,,,,,,,,,,,,,,,,,,,,,,,,,,,,,,,,,,,,,,,,,,,,,,,,,,,,,,,,,,,,,,,,,,,,,,,,,,,,,,,,,,,,,,,,,,,,,,,,,,,,,,,,,,,,,,,,,,,,,,,,,,
,,5edc3d681a69d49159555f91,2024-02-19_03h19.18.942,kallum_motion_pilot,2023.2.2,Win32,58.82352941,5edc3d681a69d49159555f91,65d2b6c8f2eece985d8e374c,65d2b9d98a991a46c4571428,0.1163,0.1163,1,71,233,97,1,fiveseven,,,,,,,,,,,,,,,,,,,,,,,,,,,,,,,,,,,,,,,,,,,,,,,,,,,,,,,,,,,,,,,,,,,,,,,,,,,,,,,,,,,,,,,,,,,,,,,,,,,,,,,,,,,,,,,,,,,,,,,,,,,,,,,,,,,,,,,,,
,,5edc3d681a69d49159555f91,2024-02-19_03h19.18.942,kallum_motion_pilot,2023.2.2,Win32,58.82352941,5edc3d681a69d49159555f91,65d2b6c8f2eece985d8e374c,65d2b9d98a991a46c4571428,0.1165,0.1166,1,72,234,84,1,sevenfive,,,,,,,,,,,,,,,,,,,,,,,,,,,,,,,,,,,,,,,,,,,,,,,,,,,,,,,,,,,,,,,,,,,,,,,,,,,,,,,,,,,,,,,,,,,,,,,,,,,,,,,,,,,,,,,,,,,,,,,,,,,,,,,,,,,,,,,,,
,,5edc3d681a69d49159555f91,2024-02-19_03h19.18.942,kallum_motion_pilot,2023.2.2,Win32,58.82352941,5edc3d681a69d49159555f91,65d2b6c8f2eece985d8e374c,65d2b9d98a991a46c4571428,0.1167,0.1168,1,73,235,117,1,seveneight,,,,,,,,,,,,,,,,,,,,,,,,,,,,,,,,,,,,,,,,,,,,,,,,,,,,,,,,,,,,,,,,,,,,,,,,,,,,,,,,,,,,,,,,,,,,,,,,,,,,,,,,,,,,,,,,,,,,,,,,,,,,,,,,,,,,,,,,,
,,5edc3d681a69d49159555f91,2024-02-19_03h19.18.942,kallum_motion_pilot,2023.2.2,Win32,58.82352941,5edc3d681a69d49159555f91,65d2b6c8f2eece985d8e374c,65d2b9d98a991a46c4571428,0.1168,0.117,1,74,236,145,1,fiveseven,,,,,,,,,,,,,,,,,,,,,,,,,,,,,,,,,,,,,,,,,,,,,,,,,,,,,,,,,,,,,,,,,,,,,,,,,,,,,,,,,,,,,,,,,,,,,,,,,,,,,,,,,,,,,,,,,,,,,,,,,,,,,,,,,,,,,,,,,
,,5edc3d681a69d49159555f91,2024-02-19_03h19.18.942,kallum_motion_pilot,2023.2.2,Win32,58.82352941,5edc3d681a69d49159555f91,65d2b6c8f2eece985d8e374c,65d2b9d98a991a46c4571428,0.1171,0.1172,1,75,237,61,1,threefour,,,,,,,,,,,,,,,,,,,,,,,,,,,,,,,,,,,,,,,,,,,,,,,,,,,,,,,,,,,,,,,,,,,,,,,,,,,,,,,,,,,,,,,,,,,,,,,,,,,,,,,,,,,,,,,,,,,,,,,,,,,,,,,,,,,,,,,,,
,,5edc3d681a69d49159555f91,2024-02-19_03h19.18.942,kallum_motion_pilot,2023.2.2,Win32,58.82352941,5edc3d681a69d49159555f91,65d2b6c8f2eece985d8e374c,65d2b9d98a991a46c4571428,0.1173,0.1174,1,76,238,29,1,threefour,,,,,,,,,,,,,,,,,,,,,,,,,,,,,,,,,,,,,,,,,,,,,,,,,,,,,,,,,,,,,,,,,,,,,,,,,,,,,,,,,,,,,,,,,,,,,,,,,,,,,,,,,,,,,,,,,,,,,,,,,,,,,,,,,,,,,,,,,
,,5edc3d681a69d49159555f91,2024-02-19_03h19.18.942,kallum_motion_pilot,2023.2.2,Win32,58.82352941,5edc3d681a69d49159555f91,65d2b6c8f2eece985d8e374c,65d2b9d98a991a46c4571428,0.1175,0.1176,1,77,239,73,1,onethree,,,,,,,,,,,,,,,,,,,,,,,,,,,,,,,,,,,,,,,,,,,,,,,,,,,,,,,,,,,,,,,,,,,,,,,,,,,,,,,,,,,,,,,,,,,,,,,,,,,,,,,,,,,,,,,,,,,,,,,,,,,,,,,,,,,,,,,,,
,,5edc3d681a69d49159555f91,2024-02-19_03h19.18.942,kallum_motion_pilot,2023.2.2,Win32,58.82352941,5edc3d681a69d49159555f91,65d2b6c8f2eece985d8e374c,65d2b9d98a991a46c4571428,0.1177,0.1178,1,78,240,86,1,eightsix,,,,,,,,,,,,,,,,,,,,,,,,,,,,,,,,,,,,,,,,,,,,,,,,,,,,,,,,,,,,,,,,,,,,,,,,,,,,,,,,,,,,,,,,,,,,,,,,,,,,,,,,,,,,,,,,,,,,,,,,,,,,,,,,,,,,,,,,,
,,5edc3d681a69d49159555f91,2024-02-19_03h19.18.942,kallum_motion_pilot,2023.2.2,Win32,58.82352941,5edc3d681a69d49159555f91,65d2b6c8f2eece985d8e374c,65d2b9d98a991a46c4571428,0.1179,0.118,1,79,241,137,1,fiveseven,,,,,,,,,,,,,,,,,,,,,,,,,,,,,,,,,,,,,,,,,,,,,,,,,,,,,,,,,,,,,,,,,,,,,,,,,,,,,,,,,,,,,,,,,,,,,,,,,,,,,,,,,,,,,,,,,,,,,,,,,,,,,,,,,,,,,,,,,
,,5edc3d681a69d49159555f91,2024-02-19_03h19.18.942,kallum_motion_pilot,2023.2.2,Win32,58.82352941,5edc3d681a69d49159555f91,65d2b6c8f2eece985d8e374c,65d2b9d98a991a46c4571428,0.1181,0.1182,1,80,242,98,1,sixfive,,,,,,,,,,,,,,,,,,,,,,,,,,,,,,,,,,,,,,,,,,,,,,,,,,,,,,,,,,,,,,,,,,,,,,,,,,,,,,,,,,,,,,,,,,,,,,,,,,,,,,,,,,,,,,,,,,,,,,,,,,,,,,,,,,,,,,,,,
,,5edc3d681a69d49159555f91,2024-02-19_03h19.18.942,kallum_motion_pilot,2023.2.2,Win32,58.82352941,5edc3d681a69d49159555f91,65d2b6c8f2eece985d8e374c,65d2b9d98a991a46c4571428,0.1183,0.1184,1,81,243,46,1,fourtwo,,,,,,,,,,,,,,,,,,,,,,,,,,,,,,,,,,,,,,,,,,,,,,,,,,,,,,,,,,,,,,,,,,,,,,,,,,,,,,,,,,,,,,,,,,,,,,,,,,,,,,,,,,,,,,,,,,,,,,,,,,,,,,,,,,,,,,,,,
,,5edc3d681a69d49159555f91,2024-02-19_03h19.18.942,kallum_motion_pilot,2023.2.2,Win32,58.82352941,5edc3d681a69d49159555f91,65d2b6c8f2eece985d8e374c,65d2b9d98a991a46c4571428,0.1185,0.1186,1,82,244,62,1,fourtwo,,,,,,,,,,,,,,,,,,,,,,,,,,,,,,,,,,,,,,,,,,,,,,,,,,,,,,,,,,,,,,,,,,,,,,,,,,,,,,,,,,,,,,,,,,,,,,,,,,,,,,,,,,,,,,,,,,,,,,,,,,,,,,,,,,,,,,,,,
,,5edc3d681a69d49159555f91,2024-02-19_03h19.18.942,kallum_motion_pilot,2023.2.2,Win32,58.82352941,5edc3d681a69d49159555f91,65d2b6c8f2eece985d8e374c,65d2b9d98a991a46c4571428,0.1189,0.119,1,83,245,22,1,fourtwo,,,,,,,,,,,,,,,,,,,,,,,,,,,,,,,,,,,,,,,,,,,,,,,,,,,,,,,,,,,,,,,,,,,,,,,,,,,,,,,,,,,,,,,,,,,,,,,,,,,,,,,,,,,,,,,,,,,,,,,,,,,,,,,,,,,,,,,,,
,,5edc3d681a69d49159555f91,2024-02-19_03h19.18.942,kallum_motion_pilot,2023.2.2,Win32,58.82352941,5edc3d681a69d49159555f91,65d2b6c8f2eece985d8e374c,65d2b9d98a991a46c4571428,0.1192,0.1193,1,84,246,53,1,threefour,,,,,,,,,,,,,,,,,,,,,,,,,,,,,,,,,,,,,,,,,,,,,,,,,,,,,,,,,,,,,,,,,,,,,,,,,,,,,,,,,,,,,,,,,,,,,,,,,,,,,,,,,,,,,,,,,,,,,,,,,,,,,,,,,,,,,,,,,
,,5edc3d681a69d49159555f91,2024-02-19_03h19.18.942,kallum_motion_pilot,2023.2.2,Win32,58.82352941,5edc3d681a69d49159555f91,65d2b6c8f2eece985d8e374c,65d2b9d98a991a46c4571428,0.1195,0.1197,1,85,247,154,1,sixfive,,,,,,,,,,,,,,,,,,,,,,,,,,,,,,,,,,,,,,,,,,,,,,,,,,,,,,,,,,,,,,,,,,,,,,,,,,,,,,,,,,,,,,,,,,,,,,,,,,,,,,,,,,,,,,,,,,,,,,,,,,,,,,,,,,,,,,,,,
,,5edc3d681a69d49159555f91,2024-02-19_03h19.18.942,kallum_motion_pilot,2023.2.2,Win32,58.82352941,5edc3d681a69d49159555f91,65d2b6c8f2eece985d8e374c,65d2b9d98a991a46c4571428,0.1198,0.1199,1,86,248,26,1,twoone,,,,,,,,,,,,,,,,,,,,,,,,,,,,,,,,,,,,,,,,,,,,,,,,,,,,,,,,,,,,,,,,,,,,,,,,,,,,,,,,,,,,,,,,,,,,,,,,,,,,,,,,,,,,,,,,,,,,,,,,,,,,,,,,,,,,,,,,,
,,5edc3d681a69d49159555f91,2024-02-19_03h19.18.942,kallum_motion_pilot,2023.2.2,Win32,58.82352941,5edc3d681a69d49159555f91,65d2b6c8f2eece985d8e374c,65d2b9d98a991a46c4571428,0.1199,0.12,1,87,249,134,1,eightsix,,,,,,,,,,,,,,,,,,,,,,,,,,,,,,,,,,,,,,,,,,,,,,,,,,,,,,,,,,,,,,,,,,,,,,,,,,,,,,,,,,,,,,,,,,,,,,,,,,,,,,,,,,,,,,,,,,,,,,,,,,,,,,,,,,,,,,,,,
,,5edc3d681a69d49159555f91,2024-02-19_03h19.18.942,kallum_motion_pilot,2023.2.2,Win32,58.82352941,5edc3d681a69d49159555f91,65d2b6c8f2eece985d8e374c,65d2b9d98a991a46c4571428,0.1202,0.1205,1,88,250,151,1,eightseven,,,,,,,,,,,,,,,,,,,,,,,,,,,,,,,,,,,,,,,,,,,,,,,,,,,,,,,,,,,,,,,,,,,,,,,,,,,,,,,,,,,,,,,,,,,,,,,,,,,,,,,,,,,,,,,,,,,,,,,,,,,,,,,,,,,,,,,,,
,,5edc3d681a69d49159555f91,2024-02-19_03h19.18.942,kallum_motion_pilot,2023.2.2,Win32,58.82352941,5edc3d681a69d49159555f91,65d2b6c8f2eece985d8e374c,65d2b9d98a991a46c4571428,0.1207,0.1209,1,89,251,60,1,threeone,,,,,,,,,,,,,,,,,,,,,,,,,,,,,,,,,,,,,,,,,,,,,,,,,,,,,,,,,,,,,,,,,,,,,,,,,,,,,,,,,,,,,,,,,,,,,,,,,,,,,,,,,,,,,,,,,,,,,,,,,,,,,,,,,,,,,,,,,
,,5edc3d681a69d49159555f91,2024-02-19_03h19.18.942,kallum_motion_pilot,2023.2.2,Win32,58.82352941,5edc3d681a69d49159555f91,65d2b6c8f2eece985d8e374c,65d2b9d98a991a46c4571428,0.121,0.1212,1,90,252,70,1,fourtwo,,,,,,,,,,,,,,,,,,,,,,,,,,,,,,,,,,,,,,,,,,,,,,,,,,,,,,,,,,,,,,,,,,,,,,,,,,,,,,,,,,,,,,,,,,,,,,,,,,,,,,,,,,,,,,,,,,,,,,,,,,,,,,,,,,,,,,,,,
,,5edc3d681a69d49159555f91,2024-02-19_03h19.18.942,kallum_motion_pilot,2023.2.2,Win32,58.82352941,5edc3d681a69d49159555f91,65d2b6c8f2eece985d8e374c,65d2b9d98a991a46c4571428,0.1213,0.1215,1,91,253,27,1,twofour,,,,,,,,,,,,,,,,,,,,,,,,,,,,,,,,,,,,,,,,,,,,,,,,,,,,,,,,,,,,,,,,,,,,,,,,,,,,,,,,,,,,,,,,,,,,,,,,,,,,,,,,,,,,,,,,,,,,,,,,,,,,,,,,,,,,,,,,,
,,5edc3d681a69d49159555f91,2024-02-19_03h19.18.942,kallum_motion_pilot,2023.2.2,Win32,58.82352941,5edc3d681a69d49159555f91,65d2b6c8f2eece985d8e374c,65d2b9d98a991a46c4571428,0.1219,0.122,1,92,254,25,1,onethree,,,,,,,,,,,,,,,,,,,,,,,,,,,,,,,,,,,,,,,,,,,,,,,,,,,,,,,,,,,,,,,,,,,,,,,,,,,,,,,,,,,,,,,,,,,,,,,,,,,,,,,,,,,,,,,,,,,,,,,,,,,,,,,,,,,,,,,,,
,,5edc3d681a69d49159555f91,2024-02-19_03h19.18.942,kallum_motion_pilot,2023.2.2,Win32,58.82352941,5edc3d681a69d49159555f91,65d2b6c8f2eece985d8e374c,65d2b9d98a991a46c4571428,0.1223,0.1224,1,93,255,120,1,fivesix,,,,,,,,,,,,,,,,,,,,,,,,,,,,,,,,,,,,,,,,,,,,,,,,,,,,,,,,,,,,,,,,,,,,,,,,,,,,,,,,,,,,,,,,,,,,,,,,,,,,,,,,,,,,,,,,,,,,,,,,,,,,,,,,,,,,,,,,,
,,5edc3d681a69d49159555f91,2024-02-19_03h19.18.942,kallum_motion_pilot,2023.2.2,Win32,58.82352941,5edc3d681a69d49159555f91,65d2b6c8f2eece985d8e374c,65d2b9d98a991a46c4571428,0.1226,0.1227,1,94,256,44,1,threeone,,,,,,,,,,,,,,,,,,,,,,,,,,,,,,,,,,,,,,,,,,,,,,,,,,,,,,,,,,,,,,,,,,,,,,,,,,,,,,,,,,,,,,,,,,,,,,,,,,,,,,,,,,,,,,,,,,,,,,,,,,,,,,,,,,,,,,,,,
,,5edc3d681a69d49159555f91,2024-02-19_03h19.18.942,kallum_motion_pilot,2023.2.2,Win32,58.82352941,5edc3d681a69d49159555f91,65d2b6c8f2eece985d8e374c,65d2b9d98a991a46c4571428,0.1228,0.1229,1,95,257,111,1,eightseven,,,,,,,,,,,,,,,,,,,,,,,,,,,,,,,,,,,,,,,,,,,,,,,,,,,,,,,,,,,,,,,,,,,,,,,,,,,,,,,,,,,,,,,,,,,,,,,,,,,,,,,,,,,,,,,,,,,,,,,,,,,,,,,,,,,,,,,,,
,,5edc3d681a69d49159555f91,2024-02-19_03h19.18.942,kallum_motion_pilot,2023.2.2,Win32,58.82352941,5edc3d681a69d49159555f91,65d2b6c8f2eece985d8e374c,65d2b9d98a991a46c4571428,0.123,0.123,1,96,258,144,1,fivesix,,,,,,,,,,,,,,,,,,,,,,,,,,,,,,,,,,,,,,,,,,,,,,,,,,,,,,,,,,,,,,,,,,,,,,,,,,,,,,,,,,,,,,,,,,,,,,,,,,,,,,,,,,,,,,,,,,,,,,,,,,,,,,,,,,,,,,,,,
,,5edc3d681a69d49159555f91,2024-02-19_03h19.18.942,kallum_motion_pilot,2023.2.2,Win32,58.82352941,5edc3d681a69d49159555f91,65d2b6c8f2eece985d8e374c,65d2b9d98a991a46c4571428,0.1231,0.1233,1,97,259,82,1,sixfive,,,,,,,,,,,,,,,,,,,,,,,,,,,,,,,,,,,,,,,,,,,,,,,,,,,,,,,,,,,,,,,,,,,,,,,,,,,,,,,,,,,,,,,,,,,,,,,,,,,,,,,,,,,,,,,,,,,,,,,,,,,,,,,,,,,,,,,,,
,,5edc3d681a69d49159555f91,2024-02-19_03h19.18.942,kallum_motion_pilot,2023.2.2,Win32,58.82352941,5edc3d681a69d49159555f91,65d2b6c8f2eece985d8e374c,65d2b9d98a991a46c4571428,0.1234,0.1235,1,98,260,91,1,sixeight,,,,,,,,,,,,,,,,,,,,,,,,,,,,,,,,,,,,,,,,,,,,,,,,,,,,,,,,,,,,,,,,,,,,,,,,,,,,,,,,,,,,,,,,,,,,,,,,,,,,,,,,,,,,,,,,,,,,,,,,,,,,,,,,,,,,,,,,,
,,5edc3d681a69d49159555f91,2024-02-19_03h19.18.942,kallum_motion_pilot,2023.2.2,Win32,58.82352941,5edc3d681a69d49159555f91,65d2b6c8f2eece985d8e374c,65d2b9d98a991a46c4571428,0.1235,0.1236,1,99,261,126,1,eightsix,,,,,,,,,,,,,,,,,,,,,,,,,,,,,,,,,,,,,,,,,,,,,,,,,,,,,,,,,,,,,,,,,,,,,,,,,,,,,,,,,,,,,,,,,,,,,,,,,,,,,,,,,,,,,,,,,,,,,,,,,,,,,,,,,,,,,,,,,
,,5edc3d681a69d49159555f91,2024-02-19_03h19.18.942,kallum_motion_pilot,2023.2.2,Win32,58.82352941,5edc3d681a69d49159555f91,65d2b6c8f2eece985d8e374c,65d2b9d98a991a46c4571428,0.1238,0.1239,1,100,262,71,1,fourthree,,,,,,,,,,,,,,,,,,,,,,,,,,,,,,,,,,,,,,,,,,,,,,,,,,,,,,,,,,,,,,,,,,,,,,,,,,,,,,,,,,,,,,,,,,,,,,,,,,,,,,,,,,,,,,,,,,,,,,,,,,,,,,,,,,,,,,,,,
,,5edc3d681a69d49159555f91,2024-02-19_03h19.18.942,kallum_motion_pilot,2023.2.2,Win32,58.82352941,5edc3d681a69d49159555f91,65d2b6c8f2eece985d8e374c,65d2b9d98a991a46c4571428,0.124,0.1241,1,101,263,150,1,eightsix,,,,,,,,,,,,,,,,,,,,,,,,,,,,,,,,,,,,,,,,,,,,,,,,,,,,,,,,,,,,,,,,,,,,,,,,,,,,,,,,,,,,,,,,,,,,,,,,,,,,,,,,,,,,,,,,,,,,,,,,,,,,,,,,,,,,,,,,,
,,5edc3d681a69d49159555f91,2024-02-19_03h19.18.942,kallum_motion_pilot,2023.2.2,Win32,58.82352941,5edc3d681a69d49159555f91,65d2b6c8f2eece985d8e374c,65d2b9d98a991a46c4571428,0.1243,0.1245,1,102,264,37,1,threefour,,,,,,,,,,,,,,,,,,,,,,,,,,,,,,,,,,,,,,,,,,,,,,,,,,,,,,,,,,,,,,,,,,,,,,,,,,,,,,,,,,,,,,,,,,,,,,,,,,,,,,,,,,,,,,,,,,,,,,,,,,,,,,,,,,,,,,,,,
,,5edc3d681a69d49159555f91,2024-02-19_03h19.18.942,kallum_motion_pilot,2023.2.2,Win32,58.82352941,5edc3d681a69d49159555f91,65d2b6c8f2eece985d8e374c,65d2b9d98a991a46c4571428,0.1248,0.125,1,103,265,32,1,onetwo,,,,,,,,,,,,,,,,,,,,,,,,,,,,,,,,,,,,,,,,,,,,,,,,,,,,,,,,,,,,,,,,,,,,,,,,,,,,,,,,,,,,,,,,,,,,,,,,,,,,,,,,,,,,,,,,,,,,,,,,,,,,,,,,,,,,,,,,,
,,5edc3d681a69d49159555f91,2024-02-19_03h19.18.942,kallum_motion_pilot,2023.2.2,Win32,58.82352941,5edc3d681a69d49159555f91,65d2b6c8f2eece985d8e374c,65d2b9d98a991a46c4571428,0.1252,0.1253,1,104,266,157,1,seveneight,,,,,,,,,,,,,,,,,,,,,,,,,,,,,,,,,,,,,,,,,,,,,,,,,,,,,,,,,,,,,,,,,,,,,,,,,,,,,,,,,,,,,,,,,,,,,,,,,,,,,,,,,,,,,,,,,,,,,,,,,,,,,,,,,,,,,,,,,
,,5edc3d681a69d49159555f91,2024-02-19_03h19.18.942,kallum_motion_pilot,2023.2.2,Win32,58.82352941,5edc3d681a69d49159555f91,65d2b6c8f2eece985d8e374c,65d2b9d98a991a46c4571428,0.1254,0.1255,1,105,267,54,1,fourtwo,,,,,,,,,,,,,,,,,,,,,,,,,,,,,,,,,,,,,,,,,,,,,,,,,,,,,,,,,,,,,,,,,,,,,,,,,,,,,,,,,,,,,,,,,,,,,,,,,,,,,,,,,,,,,,,,,,,,,,,,,,,,,,,,,,,,,,,,,
,,5edc3d681a69d49159555f91,2024-02-19_03h19.18.942,kallum_motion_pilot,2023.2.2,Win32,58.82352941,5edc3d681a69d49159555f91,65d2b6c8f2eece985d8e374c,65d2b9d98a991a46c4571428,0.1256,0.1257,1,106,268,152,1,fivesix,,,,,,,,,,,,,,,,,,,,,,,,,,,,,,,,,,,,,,,,,,,,,,,,,,,,,,,,,,,,,,,,,,,,,,,,,,,,,,,,,,,,,,,,,,,,,,,,,,,,,,,,,,,,,,,,,,,,,,,,,,,,,,,,,,,,,,,,,
,,5edc3d681a69d49159555f91,2024-02-19_03h19.18.942,kallum_motion_pilot,2023.2.2,Win32,58.82352941,5edc3d681a69d49159555f91,65d2b6c8f2eece985d8e374c,65d2b9d98a991a46c4571428,0.1259,0.1259,1,107,269,67,1,twofour,,,,,,,,,,,,,,,,,,,,,,,,,,,,,,,,,,,,,,,,,,,,,,,,,,,,,,,,,,,,,,,,,,,,,,,,,,,,,,,,,,,,,,,,,,,,,,,,,,,,,,,,,,,,,,,,,,,,,,,,,,,,,,,,,,,,,,,,,
,,5edc3d681a69d49159555f91,2024-02-19_03h19.18.942,kallum_motion_pilot,2023.2.2,Win32,58.82352941,5edc3d681a69d49159555f91,65d2b6c8f2eece985d8e374c,65d2b9d98a991a46c4571428,0.1261,0.1262,1,108,270,159,1,eightseven,,,,,,,,,,,,,,,,,,,,,,,,,,,,,,,,,,,,,,,,,,,,,,,,,,,,,,,,,,,,,,,,,,,,,,,,,,,,,,,,,,,,,,,,,,,,,,,,,,,,,,,,,,,,,,,,,,,,,,,,,,,,,,,,,,,,,,,,,
,,5edc3d681a69d49159555f91,2024-02-19_03h19.18.942,kallum_motion_pilot,2023.2.2,Win32,58.82352941,5edc3d681a69d49159555f91,65d2b6c8f2eece985d8e374c,65d2b9d98a991a46c4571428,0.1262,0.1264,1,109,271,110,1,eightsix,,,,,,,,,,,,,,,,,,,,,,,,,,,,,,,,,,,,,,,,,,,,,,,,,,,,,,,,,,,,,,,,,,,,,,,,,,,,,,,,,,,,,,,,,,,,,,,,,,,,,,,,,,,,,,,,,,,,,,,,,,,,,,,,,,,,,,,,,
,,5edc3d681a69d49159555f91,2024-02-19_03h19.18.942,kallum_motion_pilot,2023.2.2,Win32,58.82352941,5edc3d681a69d49159555f91,65d2b6c8f2eece985d8e374c,65d2b9d98a991a46c4571428,0.1265,0.1265,1,110,272,158,1,eightsix,,,,,,,,,,,,,,,,,,,,,,,,,,,,,,,,,,,,,,,,,,,,,,,,,,,,,,,,,,,,,,,,,,,,,,,,,,,,,,,,,,,,,,,,,,,,,,,,,,,,,,,,,,,,,,,,,,,,,,,,,,,,,,,,,,,,,,,,,
,,5edc3d681a69d49159555f91,2024-02-19_03h19.18.942,kallum_motion_pilot,2023.2.2,Win32,58.82352941,5edc3d681a69d49159555f91,65d2b6c8f2eece985d8e374c,65d2b9d98a991a46c4571428,0.1267,0.1267,1,111,273,4,1,threeone,,,,,,,,,,,,,,,,,,,,,,,,,,,,,,,,,,,,,,,,,,,,,,,,,,,,,,,,,,,,,,,,,,,,,,,,,,,,,,,,,,,,,,,,,,,,,,,,,,,,,,,,,,,,,,,,,,,,,,,,,,,,,,,,,,,,,,,,,
,,5edc3d681a69d49159555f91,2024-02-19_03h19.18.942,kallum_motion_pilot,2023.2.2,Win32,58.82352941,5edc3d681a69d49159555f91,65d2b6c8f2eece985d8e374c,65d2b9d98a991a46c4571428,0.1269,0.127,1,112,274,153,1,fiveseven,,,,,,,,,,,,,,,,,,,,,,,,,,,,,,,,,,,,,,,,,,,,,,,,,,,,,,,,,,,,,,,,,,,,,,,,,,,,,,,,,,,,,,,,,,,,,,,,,,,,,,,,,,,,,,,,,,,,,,,,,,,,,,,,,,,,,,,,,
,,5edc3d681a69d49159555f91,2024-02-19_03h19.18.942,kallum_motion_pilot,2023.2.2,Win32,58.82352941,5edc3d681a69d49159555f91,65d2b6c8f2eece985d8e374c,65d2b9d98a991a46c4571428,0.127,0.1272,1,113,275,115,1,sixeight,,,,,,,,,,,,,,,,,,,,,,,,,,,,,,,,,,,,,,,,,,,,,,,,,,,,,,,,,,,,,,,,,,,,,,,,,,,,,,,,,,,,,,,,,,,,,,,,,,,,,,,,,,,,,,,,,,,,,,,,,,,,,,,,,,,,,,,,,
,,5edc3d681a69d49159555f91,2024-02-19_03h19.18.942,kallum_motion_pilot,2023.2.2,Win32,58.82352941,5edc3d681a69d49159555f91,65d2b6c8f2eece985d8e374c,65d2b9d98a991a46c4571428,0.1273,0.1274,1,114,276,58,1,twoone,,,,,,,,,,,,,,,,,,,,,,,,,,,,,,,,,,,,,,,,,,,,,,,,,,,,,,,,,,,,,,,,,,,,,,,,,,,,,,,,,,,,,,,,,,,,,,,,,,,,,,,,,,,,,,,,,,,,,,,,,,,,,,,,,,,,,,,,,
,,5edc3d681a69d49159555f91,2024-02-19_03h19.18.942,kallum_motion_pilot,2023.2.2,Win32,58.82352941,5edc3d681a69d49159555f91,65d2b6c8f2eece985d8e374c,65d2b9d98a991a46c4571428,0.1275,0.1276,1,115,277,15,1,fourthree,,,,,,,,,,,,,,,,,,,,,,,,,,,,,,,,,,,,,,,,,,,,,,,,,,,,,,,,,,,,,,,,,,,,,,,,,,,,,,,,,,,,,,,,,,,,,,,,,,,,,,,,,,,,,,,,,,,,,,,,,,,,,,,,,,,,,,,,,
