startup.started,startup.stopped,Prolific ID*,date,expName,psychopyVersion,OS,frameRate,participant,study_id,session,stimpositions.started,stimpositions.stopped,hardcoded_stimulus_positions.thisRepN,hardcoded_stimulus_positions.thisTrialN,hardcoded_stimulus_positions.thisN,hardcoded_stimulus_positions.thisIndex,hardcoded_stimulus_positions.ran,StimulusPos,stimorientation.started,stimorientation.stopped,prac_stimorientation_import_loop.thisRepN,prac_stimorientation_import_loop.thisTrialN,prac_stimorientation_import_loop.thisN,prac_stimorientation_import_loop.thisIndex,prac_stimorientation_import_loop.ran,Stimorientation,welcome_instr.started,welcome_instr.stopped,key_resp.keys,key_resp.rt,key_resp.duration,response_steppedout_1.started,response_steppedout_1.stopped,key_resp_20.keys,key_resp_20.rt,key_resp_20.duration,response_steppedout_2.started,response_steppedout_2.stopped,key_resp_19.keys,key_resp_19.rt,key_resp_19.duration,stim_response_instr.started,stim_response_instr.stopped,key_resp_15.keys,key_resp_15.rt,key_resp_15.duration,direction_instr_2.started,direction_instr_2.stopped,key_resp_9.keys,key_resp_9.rt,key_resp_9.duration,instr_prac.started,instr_prac.stopped,key_resp_10.keys,key_resp_10.rt,key_resp_10.duration,Stim1_display_prac.started,Stim1_display_prac.stopped,Ecc,Circle1_ori,Circle2_ori,response_prac.started,similarity,response_time,response_prac.stopped,mouse_5.x,mouse_5.y,mouse_5.leftButton,mouse_5.midButton,mouse_5.rightButton,mouse_5.clicked_name,responseprac_feedback.started,responseprac_feedback.stopped,summary2_prac.started,summary2_prac.stopped,mouse_6.x,mouse_6.y,mouse_6.leftButton,mouse_6.midButton,mouse_6.rightButton,mouse_6.clicked_name,duringprac.thisRepN,duringprac.thisTrialN,duringprac.thisN,duringprac.thisIndex,duringprac.ran,begin.started,begin.stopped,key_resp_22.keys,key_resp_22.rt,key_resp_22.duration,Stim1_display.started,Stim1_display.stopped,circle1_ori,circle2_ori,circle1_SF,circle2_SF,response.started,response.stopped,mouse.x,mouse.y,mouse.leftButton,mouse.midButton,mouse.rightButton,mouse.clicked_name,trialnumber,double_pass.thisRepN,double_pass.thisTrialN,double_pass.thisN,double_pass.thisIndex,double_pass.ran,double_pass.order,main_trial.thisRepN,main_trial.thisTrialN,main_trial.thisN,main_trial.thisIndex,main_trial.ran,main_trial.order,Trial_Counter,Catch,Frequencies,response_2.started,response_2.stopped,mouse_2.x,mouse_2.y,mouse_2.leftButton,mouse_2.midButton,mouse_2.rightButton,mouse_2.clicked_name,special_trial.started,special_trial.stopped,catch_1.started,catch_1.stopped,mouse_3.x,mouse_3.y,mouse_3.leftButton,mouse_3.midButton,mouse_3.rightButton,catchresponse,catchnumber,response_time_catch,response_sum.started,response_sum.stopped,mouse_11.x,mouse_11.y,mouse_11.leftButton,mouse_11.midButton,mouse_11.rightButton,flip_presentation_sequence_for_double_pass.started,flip_presentation_sequence_for_double_pass.stopped,goodbye.started,goodbye.stopped,key_resp_3.keys,key_resp_3.rt,key_resp_3.duration
0.0009,0.001,5eece6c66db5540c7b43648d,2024-02-21_21h28.08.027,kallum_motion_pilot,2023.2.2,Win32,163.9344262,5eece6c66db5540c7b43648d,65d6bb0e977760de756971f7,65d6bf33bcd697ef2196c036,,,,,,,,,,,,,,,,,,,,,,,,,,,,,,,,,,,,,,,,,,,,,,,,,,,,,,,,,,,,,,,,,,,,,,,,,,,,,,,,,,,,,,,,,,,,,,,,,,,,,,,,,,,,,,,,,,,,,,,,,,,,,,,,,,,,,,,,,,,,,,,,,
,,5eece6c66db5540c7b43648d,2024-02-21_21h28.08.027,kallum_motion_pilot,2023.2.2,Win32,163.9344262,5eece6c66db5540c7b43648d,65d6bb0e977760de756971f7,65d6bf33bcd697ef2196c036,0.0134,0.0136,0,0,0,90,1,sixfive,,,,,,,,,,,,,,,,,,,,,,,,,,,,,,,,,,,,,,,,,,,,,,,,,,,,,,,,,,,,,,,,,,,,,,,,,,,,,,,,,,,,,,,,,,,,,,,,,,,,,,,,,,,,,,,,,,,,,,,,,,,,,,,,,,,,,,,,,
,,5eece6c66db5540c7b43648d,2024-02-21_21h28.08.027,kallum_motion_pilot,2023.2.2,Win32,163.9344262,5eece6c66db5540c7b43648d,65d6bb0e977760de756971f7,65d6bf33bcd697ef2196c036,0.0137,0.0137,0,1,1,58,1,twoone,,,,,,,,,,,,,,,,,,,,,,,,,,,,,,,,,,,,,,,,,,,,,,,,,,,,,,,,,,,,,,,,,,,,,,,,,,,,,,,,,,,,,,,,,,,,,,,,,,,,,,,,,,,,,,,,,,,,,,,,,,,,,,,,,,,,,,,,,
,,5eece6c66db5540c7b43648d,2024-02-21_21h28.08.027,kallum_motion_pilot,2023.2.2,Win32,163.9344262,5eece6c66db5540c7b43648d,65d6bb0e977760de756971f7,65d6bf33bcd697ef2196c036,0.0138,0.0138,0,2,2,151,1,eightseven,,,,,,,,,,,,,,,,,,,,,,,,,,,,,,,,,,,,,,,,,,,,,,,,,,,,,,,,,,,,,,,,,,,,,,,,,,,,,,,,,,,,,,,,,,,,,,,,,,,,,,,,,,,,,,,,,,,,,,,,,,,,,,,,,,,,,,,,,
,,5eece6c66db5540c7b43648d,2024-02-21_21h28.08.027,kallum_motion_pilot,2023.2.2,Win32,163.9344262,5eece6c66db5540c7b43648d,65d6bb0e977760de756971f7,65d6bf33bcd697ef2196c036,0.0138,0.0139,0,3,3,32,1,onetwo,,,,,,,,,,,,,,,,,,,,,,,,,,,,,,,,,,,,,,,,,,,,,,,,,,,,,,,,,,,,,,,,,,,,,,,,,,,,,,,,,,,,,,,,,,,,,,,,,,,,,,,,,,,,,,,,,,,,,,,,,,,,,,,,,,,,,,,,,
,,5eece6c66db5540c7b43648d,2024-02-21_21h28.08.027,kallum_motion_pilot,2023.2.2,Win32,163.9344262,5eece6c66db5540c7b43648d,65d6bb0e977760de756971f7,65d6bf33bcd697ef2196c036,0.0139,0.0139,0,4,4,59,1,twofour,,,,,,,,,,,,,,,,,,,,,,,,,,,,,,,,,,,,,,,,,,,,,,,,,,,,,,,,,,,,,,,,,,,,,,,,,,,,,,,,,,,,,,,,,,,,,,,,,,,,,,,,,,,,,,,,,,,,,,,,,,,,,,,,,,,,,,,,,
,,5eece6c66db5540c7b43648d,2024-02-21_21h28.08.027,kallum_motion_pilot,2023.2.2,Win32,163.9344262,5eece6c66db5540c7b43648d,65d6bb0e977760de756971f7,65d6bf33bcd697ef2196c036,0.014,0.014,0,5,5,133,1,seveneight,,,,,,,,,,,,,,,,,,,,,,,,,,,,,,,,,,,,,,,,,,,,,,,,,,,,,,,,,,,,,,,,,,,,,,,,,,,,,,,,,,,,,,,,,,,,,,,,,,,,,,,,,,,,,,,,,,,,,,,,,,,,,,,,,,,,,,,,,
,,5eece6c66db5540c7b43648d,2024-02-21_21h28.08.027,kallum_motion_pilot,2023.2.2,Win32,163.9344262,5eece6c66db5540c7b43648d,65d6bb0e977760de756971f7,65d6bf33bcd697ef2196c036,0.0141,0.0141,0,6,6,77,1,threefour,,,,,,,,,,,,,,,,,,,,,,,,,,,,,,,,,,,,,,,,,,,,,,,,,,,,,,,,,,,,,,,,,,,,,,,,,,,,,,,,,,,,,,,,,,,,,,,,,,,,,,,,,,,,,,,,,,,,,,,,,,,,,,,,,,,,,,,,,
,,5eece6c66db5540c7b43648d,2024-02-21_21h28.08.027,kallum_motion_pilot,2023.2.2,Win32,163.9344262,5eece6c66db5540c7b43648d,65d6bb0e977760de756971f7,65d6bf33bcd697ef2196c036,0.0141,0.0141,0,7,7,4,1,threeone,,,,,,,,,,,,,,,,,,,,,,,,,,,,,,,,,,,,,,,,,,,,,,,,,,,,,,,,,,,,,,,,,,,,,,,,,,,,,,,,,,,,,,,,,,,,,,,,,,,,,,,,,,,,,,,,,,,,,,,,,,,,,,,,,,,,,,,,,
,,5eece6c66db5540c7b43648d,2024-02-21_21h28.08.027,kallum_motion_pilot,2023.2.2,Win32,163.9344262,5eece6c66db5540c7b43648d,65d6bb0e977760de756971f7,65d6bf33bcd697ef2196c036,0.0142,0.0142,0,8,8,35,1,twofour,,,,,,,,,,,,,,,,,,,,,,,,,,,,,,,,,,,,,,,,,,,,,,,,,,,,,,,,,,,,,,,,,,,,,,,,,,,,,,,,,,,,,,,,,,,,,,,,,,,,,,,,,,,,,,,,,,,,,,,,,,,,,,,,,,,,,,,,,
,,5eece6c66db5540c7b43648d,2024-02-21_21h28.08.027,kallum_motion_pilot,2023.2.2,Win32,163.9344262,5eece6c66db5540c7b43648d,65d6bb0e977760de756971f7,65d6bf33bcd697ef2196c036,0.0143,0.0143,0,9,9,125,1,seveneight,,,,,,,,,,,,,,,,,,,,,,,,,,,,,,,,,,,,,,,,,,,,,,,,,,,,,,,,,,,,,,,,,,,,,,,,,,,,,,,,,,,,,,,,,,,,,,,,,,,,,,,,,,,,,,,,,,,,,,,,,,,,,,,,,,,,,,,,,
,,5eece6c66db5540c7b43648d,2024-02-21_21h28.08.027,kallum_motion_pilot,2023.2.2,Win32,163.9344262,5eece6c66db5540c7b43648d,65d6bb0e977760de756971f7,65d6bf33bcd697ef2196c036,0.0143,0.0143,0,10,10,17,1,onethree,,,,,,,,,,,,,,,,,,,,,,,,,,,,,,,,,,,,,,,,,,,,,,,,,,,,,,,,,,,,,,,,,,,,,,,,,,,,,,,,,,,,,,,,,,,,,,,,,,,,,,,,,,,,,,,,,,,,,,,,,,,,,,,,,,,,,,,,,
,,5eece6c66db5540c7b43648d,2024-02-21_21h28.08.027,kallum_motion_pilot,2023.2.2,Win32,163.9344262,5eece6c66db5540c7b43648d,65d6bb0e977760de756971f7,65d6bf33bcd697ef2196c036,0.0145,0.0145,0,11,11,124,1,sevenfive,,,,,,,,,,,,,,,,,,,,,,,,,,,,,,,,,,,,,,,,,,,,,,,,,,,,,,,,,,,,,,,,,,,,,,,,,,,,,,,,,,,,,,,,,,,,,,,,,,,,,,,,,,,,,,,,,,,,,,,,,,,,,,,,,,,,,,,,,
,,5eece6c66db5540c7b43648d,2024-02-21_21h28.08.027,kallum_motion_pilot,2023.2.2,Win32,163.9344262,5eece6c66db5540c7b43648d,65d6bb0e977760de756971f7,65d6bf33bcd697ef2196c036,0.0145,0.0145,0,12,12,70,1,fourtwo,,,,,,,,,,,,,,,,,,,,,,,,,,,,,,,,,,,,,,,,,,,,,,,,,,,,,,,,,,,,,,,,,,,,,,,,,,,,,,,,,,,,,,,,,,,,,,,,,,,,,,,,,,,,,,,,,,,,,,,,,,,,,,,,,,,,,,,,,
,,5eece6c66db5540c7b43648d,2024-02-21_21h28.08.027,kallum_motion_pilot,2023.2.2,Win32,163.9344262,5eece6c66db5540c7b43648d,65d6bb0e977760de756971f7,65d6bf33bcd697ef2196c036,0.0145,0.0146,0,13,13,25,1,onethree,,,,,,,,,,,,,,,,,,,,,,,,,,,,,,,,,,,,,,,,,,,,,,,,,,,,,,,,,,,,,,,,,,,,,,,,,,,,,,,,,,,,,,,,,,,,,,,,,,,,,,,,,,,,,,,,,,,,,,,,,,,,,,,,,,,,,,,,,
,,5eece6c66db5540c7b43648d,2024-02-21_21h28.08.027,kallum_motion_pilot,2023.2.2,Win32,163.9344262,5eece6c66db5540c7b43648d,65d6bb0e977760de756971f7,65d6bf33bcd697ef2196c036,0.0147,0.0147,0,14,14,9,1,onethree,,,,,,,,,,,,,,,,,,,,,,,,,,,,,,,,,,,,,,,,,,,,,,,,,,,,,,,,,,,,,,,,,,,,,,,,,,,,,,,,,,,,,,,,,,,,,,,,,,,,,,,,,,,,,,,,,,,,,,,,,,,,,,,,,,,,,,,,,
,,5eece6c66db5540c7b43648d,2024-02-21_21h28.08.027,kallum_motion_pilot,2023.2.2,Win32,163.9344262,5eece6c66db5540c7b43648d,65d6bb0e977760de756971f7,65d6bf33bcd697ef2196c036,0.0147,0.0147,0,15,15,97,1,fiveseven,,,,,,,,,,,,,,,,,,,,,,,,,,,,,,,,,,,,,,,,,,,,,,,,,,,,,,,,,,,,,,,,,,,,,,,,,,,,,,,,,,,,,,,,,,,,,,,,,,,,,,,,,,,,,,,,,,,,,,,,,,,,,,,,,,,,,,,,,
,,5eece6c66db5540c7b43648d,2024-02-21_21h28.08.027,kallum_motion_pilot,2023.2.2,Win32,163.9344262,5eece6c66db5540c7b43648d,65d6bb0e977760de756971f7,65d6bf33bcd697ef2196c036,0.0148,0.0148,0,16,16,131,1,sixeight,,,,,,,,,,,,,,,,,,,,,,,,,,,,,,,,,,,,,,,,,,,,,,,,,,,,,,,,,,,,,,,,,,,,,,,,,,,,,,,,,,,,,,,,,,,,,,,,,,,,,,,,,,,,,,,,,,,,,,,,,,,,,,,,,,,,,,,,,
,,5eece6c66db5540c7b43648d,2024-02-21_21h28.08.027,kallum_motion_pilot,2023.2.2,Win32,163.9344262,5eece6c66db5540c7b43648d,65d6bb0e977760de756971f7,65d6bf33bcd697ef2196c036,0.0149,0.0149,0,17,17,37,1,threefour,,,,,,,,,,,,,,,,,,,,,,,,,,,,,,,,,,,,,,,,,,,,,,,,,,,,,,,,,,,,,,,,,,,,,,,,,,,,,,,,,,,,,,,,,,,,,,,,,,,,,,,,,,,,,,,,,,,,,,,,,,,,,,,,,,,,,,,,,
,,5eece6c66db5540c7b43648d,2024-02-21_21h28.08.027,kallum_motion_pilot,2023.2.2,Win32,163.9344262,5eece6c66db5540c7b43648d,65d6bb0e977760de756971f7,65d6bf33bcd697ef2196c036,0.015,0.015,0,18,18,102,1,eightsix,,,,,,,,,,,,,,,,,,,,,,,,,,,,,,,,,,,,,,,,,,,,,,,,,,,,,,,,,,,,,,,,,,,,,,,,,,,,,,,,,,,,,,,,,,,,,,,,,,,,,,,,,,,,,,,,,,,,,,,,,,,,,,,,,,,,,,,,,
,,5eece6c66db5540c7b43648d,2024-02-21_21h28.08.027,kallum_motion_pilot,2023.2.2,Win32,163.9344262,5eece6c66db5540c7b43648d,65d6bb0e977760de756971f7,65d6bf33bcd697ef2196c036,0.015,0.015,0,19,19,144,1,fivesix,,,,,,,,,,,,,,,,,,,,,,,,,,,,,,,,,,,,,,,,,,,,,,,,,,,,,,,,,,,,,,,,,,,,,,,,,,,,,,,,,,,,,,,,,,,,,,,,,,,,,,,,,,,,,,,,,,,,,,,,,,,,,,,,,,,,,,,,,
,,5eece6c66db5540c7b43648d,2024-02-21_21h28.08.027,kallum_motion_pilot,2023.2.2,Win32,163.9344262,5eece6c66db5540c7b43648d,65d6bb0e977760de756971f7,65d6bf33bcd697ef2196c036,0.0151,0.0151,0,20,20,113,1,fiveseven,,,,,,,,,,,,,,,,,,,,,,,,,,,,,,,,,,,,,,,,,,,,,,,,,,,,,,,,,,,,,,,,,,,,,,,,,,,,,,,,,,,,,,,,,,,,,,,,,,,,,,,,,,,,,,,,,,,,,,,,,,,,,,,,,,,,,,,,,
,,5eece6c66db5540c7b43648d,2024-02-21_21h28.08.027,kallum_motion_pilot,2023.2.2,Win32,163.9344262,5eece6c66db5540c7b43648d,65d6bb0e977760de756971f7,65d6bf33bcd697ef2196c036,0.0151,0.0151,0,21,21,112,1,fivesix,,,,,,,,,,,,,,,,,,,,,,,,,,,,,,,,,,,,,,,,,,,,,,,,,,,,,,,,,,,,,,,,,,,,,,,,,,,,,,,,,,,,,,,,,,,,,,,,,,,,,,,,,,,,,,,,,,,,,,,,,,,,,,,,,,,,,,,,,
,,5eece6c66db5540c7b43648d,2024-02-21_21h28.08.027,kallum_motion_pilot,2023.2.2,Win32,163.9344262,5eece6c66db5540c7b43648d,65d6bb0e977760de756971f7,65d6bf33bcd697ef2196c036,0.0152,0.0152,0,22,22,148,1,sevenfive,,,,,,,,,,,,,,,,,,,,,,,,,,,,,,,,,,,,,,,,,,,,,,,,,,,,,,,,,,,,,,,,,,,,,,,,,,,,,,,,,,,,,,,,,,,,,,,,,,,,,,,,,,,,,,,,,,,,,,,,,,,,,,,,,,,,,,,,,
,,5eece6c66db5540c7b43648d,2024-02-21_21h28.08.027,kallum_motion_pilot,2023.2.2,Win32,163.9344262,5eece6c66db5540c7b43648d,65d6bb0e977760de756971f7,65d6bf33bcd697ef2196c036,0.0153,0.0153,0,23,23,83,1,sixeight,,,,,,,,,,,,,,,,,,,,,,,,,,,,,,,,,,,,,,,,,,,,,,,,,,,,,,,,,,,,,,,,,,,,,,,,,,,,,,,,,,,,,,,,,,,,,,,,,,,,,,,,,,,,,,,,,,,,,,,,,,,,,,,,,,,,,,,,,
,,5eece6c66db5540c7b43648d,2024-02-21_21h28.08.027,kallum_motion_pilot,2023.2.2,Win32,163.9344262,5eece6c66db5540c7b43648d,65d6bb0e977760de756971f7,65d6bf33bcd697ef2196c036,0.0154,0.0154,0,24,24,119,1,eightseven,,,,,,,,,,,,,,,,,,,,,,,,,,,,,,,,,,,,,,,,,,,,,,,,,,,,,,,,,,,,,,,,,,,,,,,,,,,,,,,,,,,,,,,,,,,,,,,,,,,,,,,,,,,,,,,,,,,,,,,,,,,,,,,,,,,,,,,,,
,,5eece6c66db5540c7b43648d,2024-02-21_21h28.08.027,kallum_motion_pilot,2023.2.2,Win32,163.9344262,5eece6c66db5540c7b43648d,65d6bb0e977760de756971f7,65d6bf33bcd697ef2196c036,0.0154,0.0154,0,25,25,28,1,threeone,,,,,,,,,,,,,,,,,,,,,,,,,,,,,,,,,,,,,,,,,,,,,,,,,,,,,,,,,,,,,,,,,,,,,,,,,,,,,,,,,,,,,,,,,,,,,,,,,,,,,,,,,,,,,,,,,,,,,,,,,,,,,,,,,,,,,,,,,
,,5eece6c66db5540c7b43648d,2024-02-21_21h28.08.027,kallum_motion_pilot,2023.2.2,Win32,163.9344262,5eece6c66db5540c7b43648d,65d6bb0e977760de756971f7,65d6bf33bcd697ef2196c036,0.0154,0.0155,0,26,26,54,1,fourtwo,,,,,,,,,,,,,,,,,,,,,,,,,,,,,,,,,,,,,,,,,,,,,,,,,,,,,,,,,,,,,,,,,,,,,,,,,,,,,,,,,,,,,,,,,,,,,,,,,,,,,,,,,,,,,,,,,,,,,,,,,,,,,,,,,,,,,,,,,
,,5eece6c66db5540c7b43648d,2024-02-21_21h28.08.027,kallum_motion_pilot,2023.2.2,Win32,163.9344262,5eece6c66db5540c7b43648d,65d6bb0e977760de756971f7,65d6bf33bcd697ef2196c036,0.0155,0.0155,0,27,27,159,1,eightseven,,,,,,,,,,,,,,,,,,,,,,,,,,,,,,,,,,,,,,,,,,,,,,,,,,,,,,,,,,,,,,,,,,,,,,,,,,,,,,,,,,,,,,,,,,,,,,,,,,,,,,,,,,,,,,,,,,,,,,,,,,,,,,,,,,,,,,,,,
,,5eece6c66db5540c7b43648d,2024-02-21_21h28.08.027,kallum_motion_pilot,2023.2.2,Win32,163.9344262,5eece6c66db5540c7b43648d,65d6bb0e977760de756971f7,65d6bf33bcd697ef2196c036,0.0156,0.0156,0,28,28,10,1,twoone,,,,,,,,,,,,,,,,,,,,,,,,,,,,,,,,,,,,,,,,,,,,,,,,,,,,,,,,,,,,,,,,,,,,,,,,,,,,,,,,,,,,,,,,,,,,,,,,,,,,,,,,,,,,,,,,,,,,,,,,,,,,,,,,,,,,,,,,,
,,5eece6c66db5540c7b43648d,2024-02-21_21h28.08.027,kallum_motion_pilot,2023.2.2,Win32,163.9344262,5eece6c66db5540c7b43648d,65d6bb0e977760de756971f7,65d6bf33bcd697ef2196c036,0.0157,0.0157,0,29,29,143,1,eightseven,,,,,,,,,,,,,,,,,,,,,,,,,,,,,,,,,,,,,,,,,,,,,,,,,,,,,,,,,,,,,,,,,,,,,,,,,,,,,,,,,,,,,,,,,,,,,,,,,,,,,,,,,,,,,,,,,,,,,,,,,,,,,,,,,,,,,,,,,
,,5eece6c66db5540c7b43648d,2024-02-21_21h28.08.027,kallum_motion_pilot,2023.2.2,Win32,163.9344262,5eece6c66db5540c7b43648d,65d6bb0e977760de756971f7,65d6bf33bcd697ef2196c036,0.0157,0.0157,0,30,30,75,1,twofour,,,,,,,,,,,,,,,,,,,,,,,,,,,,,,,,,,,,,,,,,,,,,,,,,,,,,,,,,,,,,,,,,,,,,,,,,,,,,,,,,,,,,,,,,,,,,,,,,,,,,,,,,,,,,,,,,,,,,,,,,,,,,,,,,,,,,,,,,
,,5eece6c66db5540c7b43648d,2024-02-21_21h28.08.027,kallum_motion_pilot,2023.2.2,Win32,163.9344262,5eece6c66db5540c7b43648d,65d6bb0e977760de756971f7,65d6bf33bcd697ef2196c036,0.0158,0.0158,0,31,31,93,1,seveneight,,,,,,,,,,,,,,,,,,,,,,,,,,,,,,,,,,,,,,,,,,,,,,,,,,,,,,,,,,,,,,,,,,,,,,,,,,,,,,,,,,,,,,,,,,,,,,,,,,,,,,,,,,,,,,,,,,,,,,,,,,,,,,,,,,,,,,,,,
,,5eece6c66db5540c7b43648d,2024-02-21_21h28.08.027,kallum_motion_pilot,2023.2.2,Win32,163.9344262,5eece6c66db5540c7b43648d,65d6bb0e977760de756971f7,65d6bf33bcd697ef2196c036,0.0158,0.0158,0,32,32,146,1,sixfive,,,,,,,,,,,,,,,,,,,,,,,,,,,,,,,,,,,,,,,,,,,,,,,,,,,,,,,,,,,,,,,,,,,,,,,,,,,,,,,,,,,,,,,,,,,,,,,,,,,,,,,,,,,,,,,,,,,,,,,,,,,,,,,,,,,,,,,,,
,,5eece6c66db5540c7b43648d,2024-02-21_21h28.08.027,kallum_motion_pilot,2023.2.2,Win32,163.9344262,5eece6c66db5540c7b43648d,65d6bb0e977760de756971f7,65d6bf33bcd697ef2196c036,0.0159,0.0159,0,33,33,57,1,onethree,,,,,,,,,,,,,,,,,,,,,,,,,,,,,,,,,,,,,,,,,,,,,,,,,,,,,,,,,,,,,,,,,,,,,,,,,,,,,,,,,,,,,,,,,,,,,,,,,,,,,,,,,,,,,,,,,,,,,,,,,,,,,,,,,,,,,,,,,
,,5eece6c66db5540c7b43648d,2024-02-21_21h28.08.027,kallum_motion_pilot,2023.2.2,Win32,163.9344262,5eece6c66db5540c7b43648d,65d6bb0e977760de756971f7,65d6bf33bcd697ef2196c036,0.016,0.016,0,34,34,3,1,twofour,,,,,,,,,,,,,,,,,,,,,,,,,,,,,,,,,,,,,,,,,,,,,,,,,,,,,,,,,,,,,,,,,,,,,,,,,,,,,,,,,,,,,,,,,,,,,,,,,,,,,,,,,,,,,,,,,,,,,,,,,,,,,,,,,,,,,,,,,
,,5eece6c66db5540c7b43648d,2024-02-21_21h28.08.027,kallum_motion_pilot,2023.2.2,Win32,163.9344262,5eece6c66db5540c7b43648d,65d6bb0e977760de756971f7,65d6bf33bcd697ef2196c036,0.0161,0.0161,0,35,35,107,1,sixeight,,,,,,,,,,,,,,,,,,,,,,,,,,,,,,,,,,,,,,,,,,,,,,,,,,,,,,,,,,,,,,,,,,,,,,,,,,,,,,,,,,,,,,,,,,,,,,,,,,,,,,,,,,,,,,,,,,,,,,,,,,,,,,,,,,,,,,,,,
,,5eece6c66db5540c7b43648d,2024-02-21_21h28.08.027,kallum_motion_pilot,2023.2.2,Win32,163.9344262,5eece6c66db5540c7b43648d,65d6bb0e977760de756971f7,65d6bf33bcd697ef2196c036,0.0161,0.0161,0,36,36,15,1,fourthree,,,,,,,,,,,,,,,,,,,,,,,,,,,,,,,,,,,,,,,,,,,,,,,,,,,,,,,,,,,,,,,,,,,,,,,,,,,,,,,,,,,,,,,,,,,,,,,,,,,,,,,,,,,,,,,,,,,,,,,,,,,,,,,,,,,,,,,,,
,,5eece6c66db5540c7b43648d,2024-02-21_21h28.08.027,kallum_motion_pilot,2023.2.2,Win32,163.9344262,5eece6c66db5540c7b43648d,65d6bb0e977760de756971f7,65d6bf33bcd697ef2196c036,0.0161,0.0161,0,37,37,39,1,fourthree,,,,,,,,,,,,,,,,,,,,,,,,,,,,,,,,,,,,,,,,,,,,,,,,,,,,,,,,,,,,,,,,,,,,,,,,,,,,,,,,,,,,,,,,,,,,,,,,,,,,,,,,,,,,,,,,,,,,,,,,,,,,,,,,,,,,,,,,,
,,5eece6c66db5540c7b43648d,2024-02-21_21h28.08.027,kallum_motion_pilot,2023.2.2,Win32,163.9344262,5eece6c66db5540c7b43648d,65d6bb0e977760de756971f7,65d6bf33bcd697ef2196c036,0.0163,0.0163,0,38,38,6,1,fourtwo,,,,,,,,,,,,,,,,,,,,,,,,,,,,,,,,,,,,,,,,,,,,,,,,,,,,,,,,,,,,,,,,,,,,,,,,,,,,,,,,,,,,,,,,,,,,,,,,,,,,,,,,,,,,,,,,,,,,,,,,,,,,,,,,,,,,,,,,,
,,5eece6c66db5540c7b43648d,2024-02-21_21h28.08.027,kallum_motion_pilot,2023.2.2,Win32,163.9344262,5eece6c66db5540c7b43648d,65d6bb0e977760de756971f7,65d6bf33bcd697ef2196c036,0.0164,0.0164,0,39,39,47,1,fourthree,,,,,,,,,,,,,,,,,,,,,,,,,,,,,,,,,,,,,,,,,,,,,,,,,,,,,,,,,,,,,,,,,,,,,,,,,,,,,,,,,,,,,,,,,,,,,,,,,,,,,,,,,,,,,,,,,,,,,,,,,,,,,,,,,,,,,,,,,
,,5eece6c66db5540c7b43648d,2024-02-21_21h28.08.027,kallum_motion_pilot,2023.2.2,Win32,163.9344262,5eece6c66db5540c7b43648d,65d6bb0e977760de756971f7,65d6bf33bcd697ef2196c036,0.0164,0.0164,0,40,40,157,1,seveneight,,,,,,,,,,,,,,,,,,,,,,,,,,,,,,,,,,,,,,,,,,,,,,,,,,,,,,,,,,,,,,,,,,,,,,,,,,,,,,,,,,,,,,,,,,,,,,,,,,,,,,,,,,,,,,,,,,,,,,,,,,,,,,,,,,,,,,,,,
,,5eece6c66db5540c7b43648d,2024-02-21_21h28.08.027,kallum_motion_pilot,2023.2.2,Win32,163.9344262,5eece6c66db5540c7b43648d,65d6bb0e977760de756971f7,65d6bf33bcd697ef2196c036,0.0165,0.0165,0,41,41,92,1,sevenfive,,,,,,,,,,,,,,,,,,,,,,,,,,,,,,,,,,,,,,,,,,,,,,,,,,,,,,,,,,,,,,,,,,,,,,,,,,,,,,,,,,,,,,,,,,,,,,,,,,,,,,,,,,,,,,,,,,,,,,,,,,,,,,,,,,,,,,,,,
,,5eece6c66db5540c7b43648d,2024-02-21_21h28.08.027,kallum_motion_pilot,2023.2.2,Win32,163.9344262,5eece6c66db5540c7b43648d,65d6bb0e977760de756971f7,65d6bf33bcd697ef2196c036,0.0165,0.0165,0,42,42,85,1,seveneight,,,,,,,,,,,,,,,,,,,,,,,,,,,,,,,,,,,,,,,,,,,,,,,,,,,,,,,,,,,,,,,,,,,,,,,,,,,,,,,,,,,,,,,,,,,,,,,,,,,,,,,,,,,,,,,,,,,,,,,,,,,,,,,,,,,,,,,,,
,,5eece6c66db5540c7b43648d,2024-02-21_21h28.08.027,kallum_motion_pilot,2023.2.2,Win32,163.9344262,5eece6c66db5540c7b43648d,65d6bb0e977760de756971f7,65d6bf33bcd697ef2196c036,0.0165,0.0166,0,43,43,46,1,fourtwo,,,,,,,,,,,,,,,,,,,,,,,,,,,,,,,,,,,,,,,,,,,,,,,,,,,,,,,,,,,,,,,,,,,,,,,,,,,,,,,,,,,,,,,,,,,,,,,,,,,,,,,,,,,,,,,,,,,,,,,,,,,,,,,,,,,,,,,,,
,,5eece6c66db5540c7b43648d,2024-02-21_21h28.08.027,kallum_motion_pilot,2023.2.2,Win32,163.9344262,5eece6c66db5540c7b43648d,65d6bb0e977760de756971f7,65d6bf33bcd697ef2196c036,0.0166,0.0167,0,44,44,7,1,fourthree,,,,,,,,,,,,,,,,,,,,,,,,,,,,,,,,,,,,,,,,,,,,,,,,,,,,,,,,,,,,,,,,,,,,,,,,,,,,,,,,,,,,,,,,,,,,,,,,,,,,,,,,,,,,,,,,,,,,,,,,,,,,,,,,,,,,,,,,,
,,5eece6c66db5540c7b43648d,2024-02-21_21h28.08.027,kallum_motion_pilot,2023.2.2,Win32,163.9344262,5eece6c66db5540c7b43648d,65d6bb0e977760de756971f7,65d6bf33bcd697ef2196c036,0.0167,0.0167,0,45,45,152,1,fivesix,,,,,,,,,,,,,,,,,,,,,,,,,,,,,,,,,,,,,,,,,,,,,,,,,,,,,,,,,,,,,,,,,,,,,,,,,,,,,,,,,,,,,,,,,,,,,,,,,,,,,,,,,,,,,,,,,,,,,,,,,,,,,,,,,,,,,,,,,
,,5eece6c66db5540c7b43648d,2024-02-21_21h28.08.027,kallum_motion_pilot,2023.2.2,Win32,163.9344262,5eece6c66db5540c7b43648d,65d6bb0e977760de756971f7,65d6bf33bcd697ef2196c036,0.0167,0.0167,0,46,46,16,1,onetwo,,,,,,,,,,,,,,,,,,,,,,,,,,,,,,,,,,,,,,,,,,,,,,,,,,,,,,,,,,,,,,,,,,,,,,,,,,,,,,,,,,,,,,,,,,,,,,,,,,,,,,,,,,,,,,,,,,,,,,,,,,,,,,,,,,,,,,,,,
,,5eece6c66db5540c7b43648d,2024-02-21_21h28.08.027,kallum_motion_pilot,2023.2.2,Win32,163.9344262,5eece6c66db5540c7b43648d,65d6bb0e977760de756971f7,65d6bf33bcd697ef2196c036,0.0168,0.0168,0,47,47,130,1,sixfive,,,,,,,,,,,,,,,,,,,,,,,,,,,,,,,,,,,,,,,,,,,,,,,,,,,,,,,,,,,,,,,,,,,,,,,,,,,,,,,,,,,,,,,,,,,,,,,,,,,,,,,,,,,,,,,,,,,,,,,,,,,,,,,,,,,,,,,,,
,,5eece6c66db5540c7b43648d,2024-02-21_21h28.08.027,kallum_motion_pilot,2023.2.2,Win32,163.9344262,5eece6c66db5540c7b43648d,65d6bb0e977760de756971f7,65d6bf33bcd697ef2196c036,0.0168,0.0169,0,48,48,12,1,threeone,,,,,,,,,,,,,,,,,,,,,,,,,,,,,,,,,,,,,,,,,,,,,,,,,,,,,,,,,,,,,,,,,,,,,,,,,,,,,,,,,,,,,,,,,,,,,,,,,,,,,,,,,,,,,,,,,,,,,,,,,,,,,,,,,,,,,,,,,
,,5eece6c66db5540c7b43648d,2024-02-21_21h28.08.027,kallum_motion_pilot,2023.2.2,Win32,163.9344262,5eece6c66db5540c7b43648d,65d6bb0e977760de756971f7,65d6bf33bcd697ef2196c036,0.0169,0.0169,0,49,49,128,1,fivesix,,,,,,,,,,,,,,,,,,,,,,,,,,,,,,,,,,,,,,,,,,,,,,,,,,,,,,,,,,,,,,,,,,,,,,,,,,,,,,,,,,,,,,,,,,,,,,,,,,,,,,,,,,,,,,,,,,,,,,,,,,,,,,,,,,,,,,,,,
,,5eece6c66db5540c7b43648d,2024-02-21_21h28.08.027,kallum_motion_pilot,2023.2.2,Win32,163.9344262,5eece6c66db5540c7b43648d,65d6bb0e977760de756971f7,65d6bf33bcd697ef2196c036,0.017,0.017,0,50,50,36,1,threeone,,,,,,,,,,,,,,,,,,,,,,,,,,,,,,,,,,,,,,,,,,,,,,,,,,,,,,,,,,,,,,,,,,,,,,,,,,,,,,,,,,,,,,,,,,,,,,,,,,,,,,,,,,,,,,,,,,,,,,,,,,,,,,,,,,,,,,,,,
,,5eece6c66db5540c7b43648d,2024-02-21_21h28.08.027,kallum_motion_pilot,2023.2.2,Win32,163.9344262,5eece6c66db5540c7b43648d,65d6bb0e977760de756971f7,65d6bf33bcd697ef2196c036,0.017,0.0171,0,51,51,14,1,fourtwo,,,,,,,,,,,,,,,,,,,,,,,,,,,,,,,,,,,,,,,,,,,,,,,,,,,,,,,,,,,,,,,,,,,,,,,,,,,,,,,,,,,,,,,,,,,,,,,,,,,,,,,,,,,,,,,,,,,,,,,,,,,,,,,,,,,,,,,,,
,,5eece6c66db5540c7b43648d,2024-02-21_21h28.08.027,kallum_motion_pilot,2023.2.2,Win32,163.9344262,5eece6c66db5540c7b43648d,65d6bb0e977760de756971f7,65d6bf33bcd697ef2196c036,0.0171,0.0172,0,52,52,156,1,sevenfive,,,,,,,,,,,,,,,,,,,,,,,,,,,,,,,,,,,,,,,,,,,,,,,,,,,,,,,,,,,,,,,,,,,,,,,,,,,,,,,,,,,,,,,,,,,,,,,,,,,,,,,,,,,,,,,,,,,,,,,,,,,,,,,,,,,,,,,,,
,,5eece6c66db5540c7b43648d,2024-02-21_21h28.08.027,kallum_motion_pilot,2023.2.2,Win32,163.9344262,5eece6c66db5540c7b43648d,65d6bb0e977760de756971f7,65d6bf33bcd697ef2196c036,0.0172,0.0172,0,53,53,116,1,sevenfive,,,,,,,,,,,,,,,,,,,,,,,,,,,,,,,,,,,,,,,,,,,,,,,,,,,,,,,,,,,,,,,,,,,,,,,,,,,,,,,,,,,,,,,,,,,,,,,,,,,,,,,,,,,,,,,,,,,,,,,,,,,,,,,,,,,,,,,,,
,,5eece6c66db5540c7b43648d,2024-02-21_21h28.08.027,kallum_motion_pilot,2023.2.2,Win32,163.9344262,5eece6c66db5540c7b43648d,65d6bb0e977760de756971f7,65d6bf33bcd697ef2196c036,0.0172,0.0172,0,54,54,120,1,fivesix,,,,,,,,,,,,,,,,,,,,,,,,,,,,,,,,,,,,,,,,,,,,,,,,,,,,,,,,,,,,,,,,,,,,,,,,,,,,,,,,,,,,,,,,,,,,,,,,,,,,,,,,,,,,,,,,,,,,,,,,,,,,,,,,,,,,,,,,,
,,5eece6c66db5540c7b43648d,2024-02-21_21h28.08.027,kallum_motion_pilot,2023.2.2,Win32,163.9344262,5eece6c66db5540c7b43648d,65d6bb0e977760de756971f7,65d6bf33bcd697ef2196c036,0.0172,0.0172,0,55,55,149,1,seveneight,,,,,,,,,,,,,,,,,,,,,,,,,,,,,,,,,,,,,,,,,,,,,,,,,,,,,,,,,,,,,,,,,,,,,,,,,,,,,,,,,,,,,,,,,,,,,,,,,,,,,,,,,,,,,,,,,,,,,,,,,,,,,,,,,,,,,,,,,
,,5eece6c66db5540c7b43648d,2024-02-21_21h28.08.027,kallum_motion_pilot,2023.2.2,Win32,163.9344262,5eece6c66db5540c7b43648d,65d6bb0e977760de756971f7,65d6bf33bcd697ef2196c036,0.0173,0.0174,0,56,56,26,1,twoone,,,,,,,,,,,,,,,,,,,,,,,,,,,,,,,,,,,,,,,,,,,,,,,,,,,,,,,,,,,,,,,,,,,,,,,,,,,,,,,,,,,,,,,,,,,,,,,,,,,,,,,,,,,,,,,,,,,,,,,,,,,,,,,,,,,,,,,,,
,,5eece6c66db5540c7b43648d,2024-02-21_21h28.08.027,kallum_motion_pilot,2023.2.2,Win32,163.9344262,5eece6c66db5540c7b43648d,65d6bb0e977760de756971f7,65d6bf33bcd697ef2196c036,0.0175,0.0175,0,57,57,45,1,threefour,,,,,,,,,,,,,,,,,,,,,,,,,,,,,,,,,,,,,,,,,,,,,,,,,,,,,,,,,,,,,,,,,,,,,,,,,,,,,,,,,,,,,,,,,,,,,,,,,,,,,,,,,,,,,,,,,,,,,,,,,,,,,,,,,,,,,,,,,
,,5eece6c66db5540c7b43648d,2024-02-21_21h28.08.027,kallum_motion_pilot,2023.2.2,Win32,163.9344262,5eece6c66db5540c7b43648d,65d6bb0e977760de756971f7,65d6bf33bcd697ef2196c036,0.0175,0.0175,0,58,58,141,1,seveneight,,,,,,,,,,,,,,,,,,,,,,,,,,,,,,,,,,,,,,,,,,,,,,,,,,,,,,,,,,,,,,,,,,,,,,,,,,,,,,,,,,,,,,,,,,,,,,,,,,,,,,,,,,,,,,,,,,,,,,,,,,,,,,,,,,,,,,,,,
,,5eece6c66db5540c7b43648d,2024-02-21_21h28.08.027,kallum_motion_pilot,2023.2.2,Win32,163.9344262,5eece6c66db5540c7b43648d,65d6bb0e977760de756971f7,65d6bf33bcd697ef2196c036,0.0176,0.0176,0,59,59,31,1,fourthree,,,,,,,,,,,,,,,,,,,,,,,,,,,,,,,,,,,,,,,,,,,,,,,,,,,,,,,,,,,,,,,,,,,,,,,,,,,,,,,,,,,,,,,,,,,,,,,,,,,,,,,,,,,,,,,,,,,,,,,,,,,,,,,,,,,,,,,,,
,,5eece6c66db5540c7b43648d,2024-02-21_21h28.08.027,kallum_motion_pilot,2023.2.2,Win32,163.9344262,5eece6c66db5540c7b43648d,65d6bb0e977760de756971f7,65d6bf33bcd697ef2196c036,0.0177,0.0177,0,60,60,99,1,sixeight,,,,,,,,,,,,,,,,,,,,,,,,,,,,,,,,,,,,,,,,,,,,,,,,,,,,,,,,,,,,,,,,,,,,,,,,,,,,,,,,,,,,,,,,,,,,,,,,,,,,,,,,,,,,,,,,,,,,,,,,,,,,,,,,,,,,,,,,,
,,5eece6c66db5540c7b43648d,2024-02-21_21h28.08.027,kallum_motion_pilot,2023.2.2,Win32,163.9344262,5eece6c66db5540c7b43648d,65d6bb0e977760de756971f7,65d6bf33bcd697ef2196c036,0.0177,0.0177,0,61,61,115,1,sixeight,,,,,,,,,,,,,,,,,,,,,,,,,,,,,,,,,,,,,,,,,,,,,,,,,,,,,,,,,,,,,,,,,,,,,,,,,,,,,,,,,,,,,,,,,,,,,,,,,,,,,,,,,,,,,,,,,,,,,,,,,,,,,,,,,,,,,,,,,
,,5eece6c66db5540c7b43648d,2024-02-21_21h28.08.027,kallum_motion_pilot,2023.2.2,Win32,163.9344262,5eece6c66db5540c7b43648d,65d6bb0e977760de756971f7,65d6bf33bcd697ef2196c036,0.0178,0.0178,0,62,62,88,1,fivesix,,,,,,,,,,,,,,,,,,,,,,,,,,,,,,,,,,,,,,,,,,,,,,,,,,,,,,,,,,,,,,,,,,,,,,,,,,,,,,,,,,,,,,,,,,,,,,,,,,,,,,,,,,,,,,,,,,,,,,,,,,,,,,,,,,,,,,,,,
,,5eece6c66db5540c7b43648d,2024-02-21_21h28.08.027,kallum_motion_pilot,2023.2.2,Win32,163.9344262,5eece6c66db5540c7b43648d,65d6bb0e977760de756971f7,65d6bf33bcd697ef2196c036,0.0178,0.0178,0,63,63,65,1,onethree,,,,,,,,,,,,,,,,,,,,,,,,,,,,,,,,,,,,,,,,,,,,,,,,,,,,,,,,,,,,,,,,,,,,,,,,,,,,,,,,,,,,,,,,,,,,,,,,,,,,,,,,,,,,,,,,,,,,,,,,,,,,,,,,,,,,,,,,,
,,5eece6c66db5540c7b43648d,2024-02-21_21h28.08.027,kallum_motion_pilot,2023.2.2,Win32,163.9344262,5eece6c66db5540c7b43648d,65d6bb0e977760de756971f7,65d6bf33bcd697ef2196c036,0.0179,0.0179,0,64,64,95,1,eightseven,,,,,,,,,,,,,,,,,,,,,,,,,,,,,,,,,,,,,,,,,,,,,,,,,,,,,,,,,,,,,,,,,,,,,,,,,,,,,,,,,,,,,,,,,,,,,,,,,,,,,,,,,,,,,,,,,,,,,,,,,,,,,,,,,,,,,,,,,
,,5eece6c66db5540c7b43648d,2024-02-21_21h28.08.027,kallum_motion_pilot,2023.2.2,Win32,163.9344262,5eece6c66db5540c7b43648d,65d6bb0e977760de756971f7,65d6bf33bcd697ef2196c036,0.018,0.018,0,65,65,118,1,eightsix,,,,,,,,,,,,,,,,,,,,,,,,,,,,,,,,,,,,,,,,,,,,,,,,,,,,,,,,,,,,,,,,,,,,,,,,,,,,,,,,,,,,,,,,,,,,,,,,,,,,,,,,,,,,,,,,,,,,,,,,,,,,,,,,,,,,,,,,,
,,5eece6c66db5540c7b43648d,2024-02-21_21h28.08.027,kallum_motion_pilot,2023.2.2,Win32,163.9344262,5eece6c66db5540c7b43648d,65d6bb0e977760de756971f7,65d6bf33bcd697ef2196c036,0.018,0.018,0,66,66,108,1,sevenfive,,,,,,,,,,,,,,,,,,,,,,,,,,,,,,,,,,,,,,,,,,,,,,,,,,,,,,,,,,,,,,,,,,,,,,,,,,,,,,,,,,,,,,,,,,,,,,,,,,,,,,,,,,,,,,,,,,,,,,,,,,,,,,,,,,,,,,,,,
,,5eece6c66db5540c7b43648d,2024-02-21_21h28.08.027,kallum_motion_pilot,2023.2.2,Win32,163.9344262,5eece6c66db5540c7b43648d,65d6bb0e977760de756971f7,65d6bf33bcd697ef2196c036,0.0181,0.0181,0,67,67,21,1,threefour,,,,,,,,,,,,,,,,,,,,,,,,,,,,,,,,,,,,,,,,,,,,,,,,,,,,,,,,,,,,,,,,,,,,,,,,,,,,,,,,,,,,,,,,,,,,,,,,,,,,,,,,,,,,,,,,,,,,,,,,,,,,,,,,,,,,,,,,,
,,5eece6c66db5540c7b43648d,2024-02-21_21h28.08.027,kallum_motion_pilot,2023.2.2,Win32,163.9344262,5eece6c66db5540c7b43648d,65d6bb0e977760de756971f7,65d6bf33bcd697ef2196c036,0.0181,0.0181,0,68,68,126,1,eightsix,,,,,,,,,,,,,,,,,,,,,,,,,,,,,,,,,,,,,,,,,,,,,,,,,,,,,,,,,,,,,,,,,,,,,,,,,,,,,,,,,,,,,,,,,,,,,,,,,,,,,,,,,,,,,,,,,,,,,,,,,,,,,,,,,,,,,,,,,
,,5eece6c66db5540c7b43648d,2024-02-21_21h28.08.027,kallum_motion_pilot,2023.2.2,Win32,163.9344262,5eece6c66db5540c7b43648d,65d6bb0e977760de756971f7,65d6bf33bcd697ef2196c036,0.0182,0.0182,0,69,69,22,1,fourtwo,,,,,,,,,,,,,,,,,,,,,,,,,,,,,,,,,,,,,,,,,,,,,,,,,,,,,,,,,,,,,,,,,,,,,,,,,,,,,,,,,,,,,,,,,,,,,,,,,,,,,,,,,,,,,,,,,,,,,,,,,,,,,,,,,,,,,,,,,
,,5eece6c66db5540c7b43648d,2024-02-21_21h28.08.027,kallum_motion_pilot,2023.2.2,Win32,163.9344262,5eece6c66db5540c7b43648d,65d6bb0e977760de756971f7,65d6bf33bcd697ef2196c036,0.0182,0.0182,0,70,70,68,1,threeone,,,,,,,,,,,,,,,,,,,,,,,,,,,,,,,,,,,,,,,,,,,,,,,,,,,,,,,,,,,,,,,,,,,,,,,,,,,,,,,,,,,,,,,,,,,,,,,,,,,,,,,,,,,,,,,,,,,,,,,,,,,,,,,,,,,,,,,,,
,,5eece6c66db5540c7b43648d,2024-02-21_21h28.08.027,kallum_motion_pilot,2023.2.2,Win32,163.9344262,5eece6c66db5540c7b43648d,65d6bb0e977760de756971f7,65d6bf33bcd697ef2196c036,0.0183,0.0184,0,71,71,160,1,fivesix,,,,,,,,,,,,,,,,,,,,,,,,,,,,,,,,,,,,,,,,,,,,,,,,,,,,,,,,,,,,,,,,,,,,,,,,,,,,,,,,,,,,,,,,,,,,,,,,,,,,,,,,,,,,,,,,,,,,,,,,,,,,,,,,,,,,,,,,,
,,5eece6c66db5540c7b43648d,2024-02-21_21h28.08.027,kallum_motion_pilot,2023.2.2,Win32,163.9344262,5eece6c66db5540c7b43648d,65d6bb0e977760de756971f7,65d6bf33bcd697ef2196c036,0.0184,0.0184,0,72,72,127,1,eightseven,,,,,,,,,,,,,,,,,,,,,,,,,,,,,,,,,,,,,,,,,,,,,,,,,,,,,,,,,,,,,,,,,,,,,,,,,,,,,,,,,,,,,,,,,,,,,,,,,,,,,,,,,,,,,,,,,,,,,,,,,,,,,,,,,,,,,,,,,
,,5eece6c66db5540c7b43648d,2024-02-21_21h28.08.027,kallum_motion_pilot,2023.2.2,Win32,163.9344262,5eece6c66db5540c7b43648d,65d6bb0e977760de756971f7,65d6bf33bcd697ef2196c036,0.0184,0.0184,0,73,73,18,1,twoone,,,,,,,,,,,,,,,,,,,,,,,,,,,,,,,,,,,,,,,,,,,,,,,,,,,,,,,,,,,,,,,,,,,,,,,,,,,,,,,,,,,,,,,,,,,,,,,,,,,,,,,,,,,,,,,,,,,,,,,,,,,,,,,,,,,,,,,,,
,,5eece6c66db5540c7b43648d,2024-02-21_21h28.08.027,kallum_motion_pilot,2023.2.2,Win32,163.9344262,5eece6c66db5540c7b43648d,65d6bb0e977760de756971f7,65d6bf33bcd697ef2196c036,0.0185,0.0185,0,74,74,62,1,fourtwo,,,,,,,,,,,,,,,,,,,,,,,,,,,,,,,,,,,,,,,,,,,,,,,,,,,,,,,,,,,,,,,,,,,,,,,,,,,,,,,,,,,,,,,,,,,,,,,,,,,,,,,,,,,,,,,,,,,,,,,,,,,,,,,,,,,,,,,,,
,,5eece6c66db5540c7b43648d,2024-02-21_21h28.08.027,kallum_motion_pilot,2023.2.2,Win32,163.9344262,5eece6c66db5540c7b43648d,65d6bb0e977760de756971f7,65d6bf33bcd697ef2196c036,0.0185,0.0185,0,75,75,106,1,sixfive,,,,,,,,,,,,,,,,,,,,,,,,,,,,,,,,,,,,,,,,,,,,,,,,,,,,,,,,,,,,,,,,,,,,,,,,,,,,,,,,,,,,,,,,,,,,,,,,,,,,,,,,,,,,,,,,,,,,,,,,,,,,,,,,,,,,,,,,,
,,5eece6c66db5540c7b43648d,2024-02-21_21h28.08.027,kallum_motion_pilot,2023.2.2,Win32,163.9344262,5eece6c66db5540c7b43648d,65d6bb0e977760de756971f7,65d6bf33bcd697ef2196c036,0.0186,0.0186,0,76,76,123,1,sixeight,,,,,,,,,,,,,,,,,,,,,,,,,,,,,,,,,,,,,,,,,,,,,,,,,,,,,,,,,,,,,,,,,,,,,,,,,,,,,,,,,,,,,,,,,,,,,,,,,,,,,,,,,,,,,,,,,,,,,,,,,,,,,,,,,,,,,,,,,
,,5eece6c66db5540c7b43648d,2024-02-21_21h28.08.027,kallum_motion_pilot,2023.2.2,Win32,163.9344262,5eece6c66db5540c7b43648d,65d6bb0e977760de756971f7,65d6bf33bcd697ef2196c036,0.0187,0.0187,0,77,77,82,1,sixfive,,,,,,,,,,,,,,,,,,,,,,,,,,,,,,,,,,,,,,,,,,,,,,,,,,,,,,,,,,,,,,,,,,,,,,,,,,,,,,,,,,,,,,,,,,,,,,,,,,,,,,,,,,,,,,,,,,,,,,,,,,,,,,,,,,,,,,,,,
,,5eece6c66db5540c7b43648d,2024-02-21_21h28.08.027,kallum_motion_pilot,2023.2.2,Win32,163.9344262,5eece6c66db5540c7b43648d,65d6bb0e977760de756971f7,65d6bf33bcd697ef2196c036,0.0187,0.0187,0,78,78,76,1,threeone,,,,,,,,,,,,,,,,,,,,,,,,,,,,,,,,,,,,,,,,,,,,,,,,,,,,,,,,,,,,,,,,,,,,,,,,,,,,,,,,,,,,,,,,,,,,,,,,,,,,,,,,,,,,,,,,,,,,,,,,,,,,,,,,,,,,,,,,,
,,5eece6c66db5540c7b43648d,2024-02-21_21h28.08.027,kallum_motion_pilot,2023.2.2,Win32,163.9344262,5eece6c66db5540c7b43648d,65d6bb0e977760de756971f7,65d6bf33bcd697ef2196c036,0.0188,0.0189,0,79,79,8,1,onetwo,,,,,,,,,,,,,,,,,,,,,,,,,,,,,,,,,,,,,,,,,,,,,,,,,,,,,,,,,,,,,,,,,,,,,,,,,,,,,,,,,,,,,,,,,,,,,,,,,,,,,,,,,,,,,,,,,,,,,,,,,,,,,,,,,,,,,,,,,
,,5eece6c66db5540c7b43648d,2024-02-21_21h28.08.027,kallum_motion_pilot,2023.2.2,Win32,163.9344262,5eece6c66db5540c7b43648d,65d6bb0e977760de756971f7,65d6bf33bcd697ef2196c036,0.0189,0.0189,0,80,80,122,1,sixfive,,,,,,,,,,,,,,,,,,,,,,,,,,,,,,,,,,,,,,,,,,,,,,,,,,,,,,,,,,,,,,,,,,,,,,,,,,,,,,,,,,,,,,,,,,,,,,,,,,,,,,,,,,,,,,,,,,,,,,,,,,,,,,,,,,,,,,,,,
,,5eece6c66db5540c7b43648d,2024-02-21_21h28.08.027,kallum_motion_pilot,2023.2.2,Win32,163.9344262,5eece6c66db5540c7b43648d,65d6bb0e977760de756971f7,65d6bf33bcd697ef2196c036,0.019,0.019,0,81,81,48,1,onetwo,,,,,,,,,,,,,,,,,,,,,,,,,,,,,,,,,,,,,,,,,,,,,,,,,,,,,,,,,,,,,,,,,,,,,,,,,,,,,,,,,,,,,,,,,,,,,,,,,,,,,,,,,,,,,,,,,,,,,,,,,,,,,,,,,,,,,,,,,
,,5eece6c66db5540c7b43648d,2024-02-21_21h28.08.027,kallum_motion_pilot,2023.2.2,Win32,163.9344262,5eece6c66db5540c7b43648d,65d6bb0e977760de756971f7,65d6bf33bcd697ef2196c036,0.019,0.0191,0,82,82,20,1,threeone,,,,,,,,,,,,,,,,,,,,,,,,,,,,,,,,,,,,,,,,,,,,,,,,,,,,,,,,,,,,,,,,,,,,,,,,,,,,,,,,,,,,,,,,,,,,,,,,,,,,,,,,,,,,,,,,,,,,,,,,,,,,,,,,,,,,,,,,,
,,5eece6c66db5540c7b43648d,2024-02-21_21h28.08.027,kallum_motion_pilot,2023.2.2,Win32,163.9344262,5eece6c66db5540c7b43648d,65d6bb0e977760de756971f7,65d6bf33bcd697ef2196c036,0.0191,0.0191,0,83,83,142,1,eightsix,,,,,,,,,,,,,,,,,,,,,,,,,,,,,,,,,,,,,,,,,,,,,,,,,,,,,,,,,,,,,,,,,,,,,,,,,,,,,,,,,,,,,,,,,,,,,,,,,,,,,,,,,,,,,,,,,,,,,,,,,,,,,,,,,,,,,,,,,
,,5eece6c66db5540c7b43648d,2024-02-21_21h28.08.027,kallum_motion_pilot,2023.2.2,Win32,163.9344262,5eece6c66db5540c7b43648d,65d6bb0e977760de756971f7,65d6bf33bcd697ef2196c036,0.0192,0.0192,0,84,84,140,1,sevenfive,,,,,,,,,,,,,,,,,,,,,,,,,,,,,,,,,,,,,,,,,,,,,,,,,,,,,,,,,,,,,,,,,,,,,,,,,,,,,,,,,,,,,,,,,,,,,,,,,,,,,,,,,,,,,,,,,,,,,,,,,,,,,,,,,,,,,,,,,
,,5eece6c66db5540c7b43648d,2024-02-21_21h28.08.027,kallum_motion_pilot,2023.2.2,Win32,163.9344262,5eece6c66db5540c7b43648d,65d6bb0e977760de756971f7,65d6bf33bcd697ef2196c036,0.0192,0.0193,0,85,85,104,1,fivesix,,,,,,,,,,,,,,,,,,,,,,,,,,,,,,,,,,,,,,,,,,,,,,,,,,,,,,,,,,,,,,,,,,,,,,,,,,,,,,,,,,,,,,,,,,,,,,,,,,,,,,,,,,,,,,,,,,,,,,,,,,,,,,,,,,,,,,,,,
,,5eece6c66db5540c7b43648d,2024-02-21_21h28.08.027,kallum_motion_pilot,2023.2.2,Win32,163.9344262,5eece6c66db5540c7b43648d,65d6bb0e977760de756971f7,65d6bf33bcd697ef2196c036,0.0193,0.0193,0,86,86,30,1,fourtwo,,,,,,,,,,,,,,,,,,,,,,,,,,,,,,,,,,,,,,,,,,,,,,,,,,,,,,,,,,,,,,,,,,,,,,,,,,,,,,,,,,,,,,,,,,,,,,,,,,,,,,,,,,,,,,,,,,,,,,,,,,,,,,,,,,,,,,,,,
,,5eece6c66db5540c7b43648d,2024-02-21_21h28.08.027,kallum_motion_pilot,2023.2.2,Win32,163.9344262,5eece6c66db5540c7b43648d,65d6bb0e977760de756971f7,65d6bf33bcd697ef2196c036,0.0193,0.0193,0,87,87,161,1,fiveseven,,,,,,,,,,,,,,,,,,,,,,,,,,,,,,,,,,,,,,,,,,,,,,,,,,,,,,,,,,,,,,,,,,,,,,,,,,,,,,,,,,,,,,,,,,,,,,,,,,,,,,,,,,,,,,,,,,,,,,,,,,,,,,,,,,,,,,,,,
,,5eece6c66db5540c7b43648d,2024-02-21_21h28.08.027,kallum_motion_pilot,2023.2.2,Win32,163.9344262,5eece6c66db5540c7b43648d,65d6bb0e977760de756971f7,65d6bf33bcd697ef2196c036,0.0195,0.0195,0,88,88,5,1,threefour,,,,,,,,,,,,,,,,,,,,,,,,,,,,,,,,,,,,,,,,,,,,,,,,,,,,,,,,,,,,,,,,,,,,,,,,,,,,,,,,,,,,,,,,,,,,,,,,,,,,,,,,,,,,,,,,,,,,,,,,,,,,,,,,,,,,,,,,,
,,5eece6c66db5540c7b43648d,2024-02-21_21h28.08.027,kallum_motion_pilot,2023.2.2,Win32,163.9344262,5eece6c66db5540c7b43648d,65d6bb0e977760de756971f7,65d6bf33bcd697ef2196c036,0.0195,0.0196,0,89,89,98,1,sixfive,,,,,,,,,,,,,,,,,,,,,,,,,,,,,,,,,,,,,,,,,,,,,,,,,,,,,,,,,,,,,,,,,,,,,,,,,,,,,,,,,,,,,,,,,,,,,,,,,,,,,,,,,,,,,,,,,,,,,,,,,,,,,,,,,,,,,,,,,
,,5eece6c66db5540c7b43648d,2024-02-21_21h28.08.027,kallum_motion_pilot,2023.2.2,Win32,163.9344262,5eece6c66db5540c7b43648d,65d6bb0e977760de756971f7,65d6bf33bcd697ef2196c036,0.0196,0.0196,0,90,90,24,1,onetwo,,,,,,,,,,,,,,,,,,,,,,,,,,,,,,,,,,,,,,,,,,,,,,,,,,,,,,,,,,,,,,,,,,,,,,,,,,,,,,,,,,,,,,,,,,,,,,,,,,,,,,,,,,,,,,,,,,,,,,,,,,,,,,,,,,,,,,,,,
,,5eece6c66db5540c7b43648d,2024-02-21_21h28.08.027,kallum_motion_pilot,2023.2.2,Win32,163.9344262,5eece6c66db5540c7b43648d,65d6bb0e977760de756971f7,65d6bf33bcd697ef2196c036,0.0196,0.0197,0,91,91,134,1,eightsix,,,,,,,,,,,,,,,,,,,,,,,,,,,,,,,,,,,,,,,,,,,,,,,,,,,,,,,,,,,,,,,,,,,,,,,,,,,,,,,,,,,,,,,,,,,,,,,,,,,,,,,,,,,,,,,,,,,,,,,,,,,,,,,,,,,,,,,,,
,,5eece6c66db5540c7b43648d,2024-02-21_21h28.08.027,kallum_motion_pilot,2023.2.2,Win32,163.9344262,5eece6c66db5540c7b43648d,65d6bb0e977760de756971f7,65d6bf33bcd697ef2196c036,0.0197,0.0197,0,92,92,34,1,twoone,,,,,,,,,,,,,,,,,,,,,,,,,,,,,,,,,,,,,,,,,,,,,,,,,,,,,,,,,,,,,,,,,,,,,,,,,,,,,,,,,,,,,,,,,,,,,,,,,,,,,,,,,,,,,,,,,,,,,,,,,,,,,,,,,,,,,,,,,
,,5eece6c66db5540c7b43648d,2024-02-21_21h28.08.027,kallum_motion_pilot,2023.2.2,Win32,163.9344262,5eece6c66db5540c7b43648d,65d6bb0e977760de756971f7,65d6bf33bcd697ef2196c036,0.0198,0.0198,0,93,93,0,1,onetwo,,,,,,,,,,,,,,,,,,,,,,,,,,,,,,,,,,,,,,,,,,,,,,,,,,,,,,,,,,,,,,,,,,,,,,,,,,,,,,,,,,,,,,,,,,,,,,,,,,,,,,,,,,,,,,,,,,,,,,,,,,,,,,,,,,,,,,,,,
,,5eece6c66db5540c7b43648d,2024-02-21_21h28.08.027,kallum_motion_pilot,2023.2.2,Win32,163.9344262,5eece6c66db5540c7b43648d,65d6bb0e977760de756971f7,65d6bf33bcd697ef2196c036,0.0198,0.0198,0,94,94,11,1,twofour,,,,,,,,,,,,,,,,,,,,,,,,,,,,,,,,,,,,,,,,,,,,,,,,,,,,,,,,,,,,,,,,,,,,,,,,,,,,,,,,,,,,,,,,,,,,,,,,,,,,,,,,,,,,,,,,,,,,,,,,,,,,,,,,,,,,,,,,,
,,5eece6c66db5540c7b43648d,2024-02-21_21h28.08.027,kallum_motion_pilot,2023.2.2,Win32,163.9344262,5eece6c66db5540c7b43648d,65d6bb0e977760de756971f7,65d6bf33bcd697ef2196c036,0.0199,0.0199,0,95,95,66,1,twoone,,,,,,,,,,,,,,,,,,,,,,,,,,,,,,,,,,,,,,,,,,,,,,,,,,,,,,,,,,,,,,,,,,,,,,,,,,,,,,,,,,,,,,,,,,,,,,,,,,,,,,,,,,,,,,,,,,,,,,,,,,,,,,,,,,,,,,,,,
,,5eece6c66db5540c7b43648d,2024-02-21_21h28.08.027,kallum_motion_pilot,2023.2.2,Win32,163.9344262,5eece6c66db5540c7b43648d,65d6bb0e977760de756971f7,65d6bf33bcd697ef2196c036,0.0199,0.0199,0,96,96,73,1,onethree,,,,,,,,,,,,,,,,,,,,,,,,,,,,,,,,,,,,,,,,,,,,,,,,,,,,,,,,,,,,,,,,,,,,,,,,,,,,,,,,,,,,,,,,,,,,,,,,,,,,,,,,,,,,,,,,,,,,,,,,,,,,,,,,,,,,,,,,,
,,5eece6c66db5540c7b43648d,2024-02-21_21h28.08.027,kallum_motion_pilot,2023.2.2,Win32,163.9344262,5eece6c66db5540c7b43648d,65d6bb0e977760de756971f7,65d6bf33bcd697ef2196c036,0.02,0.02,0,97,97,111,1,eightseven,,,,,,,,,,,,,,,,,,,,,,,,,,,,,,,,,,,,,,,,,,,,,,,,,,,,,,,,,,,,,,,,,,,,,,,,,,,,,,,,,,,,,,,,,,,,,,,,,,,,,,,,,,,,,,,,,,,,,,,,,,,,,,,,,,,,,,,,,
,,5eece6c66db5540c7b43648d,2024-02-21_21h28.08.027,kallum_motion_pilot,2023.2.2,Win32,163.9344262,5eece6c66db5540c7b43648d,65d6bb0e977760de756971f7,65d6bf33bcd697ef2196c036,0.02,0.0201,0,98,98,33,1,onethree,,,,,,,,,,,,,,,,,,,,,,,,,,,,,,,,,,,,,,,,,,,,,,,,,,,,,,,,,,,,,,,,,,,,,,,,,,,,,,,,,,,,,,,,,,,,,,,,,,,,,,,,,,,,,,,,,,,,,,,,,,,,,,,,,,,,,,,,,
,,5eece6c66db5540c7b43648d,2024-02-21_21h28.08.027,kallum_motion_pilot,2023.2.2,Win32,163.9344262,5eece6c66db5540c7b43648d,65d6bb0e977760de756971f7,65d6bf33bcd697ef2196c036,0.0202,0.0202,0,99,99,2,1,twoone,,,,,,,,,,,,,,,,,,,,,,,,,,,,,,,,,,,,,,,,,,,,,,,,,,,,,,,,,,,,,,,,,,,,,,,,,,,,,,,,,,,,,,,,,,,,,,,,,,,,,,,,,,,,,,,,,,,,,,,,,,,,,,,,,,,,,,,,,
,,5eece6c66db5540c7b43648d,2024-02-21_21h28.08.027,kallum_motion_pilot,2023.2.2,Win32,163.9344262,5eece6c66db5540c7b43648d,65d6bb0e977760de756971f7,65d6bf33bcd697ef2196c036,0.0202,0.0202,0,100,100,51,1,twofour,,,,,,,,,,,,,,,,,,,,,,,,,,,,,,,,,,,,,,,,,,,,,,,,,,,,,,,,,,,,,,,,,,,,,,,,,,,,,,,,,,,,,,,,,,,,,,,,,,,,,,,,,,,,,,,,,,,,,,,,,,,,,,,,,,,,,,,,,
,,5eece6c66db5540c7b43648d,2024-02-21_21h28.08.027,kallum_motion_pilot,2023.2.2,Win32,163.9344262,5eece6c66db5540c7b43648d,65d6bb0e977760de756971f7,65d6bf33bcd697ef2196c036,0.0202,0.0202,0,101,101,72,1,onetwo,,,,,,,,,,,,,,,,,,,,,,,,,,,,,,,,,,,,,,,,,,,,,,,,,,,,,,,,,,,,,,,,,,,,,,,,,,,,,,,,,,,,,,,,,,,,,,,,,,,,,,,,,,,,,,,,,,,,,,,,,,,,,,,,,,,,,,,,,
,,5eece6c66db5540c7b43648d,2024-02-21_21h28.08.027,kallum_motion_pilot,2023.2.2,Win32,163.9344262,5eece6c66db5540c7b43648d,65d6bb0e977760de756971f7,65d6bf33bcd697ef2196c036,0.0203,0.0204,0,102,102,61,1,threefour,,,,,,,,,,,,,,,,,,,,,,,,,,,,,,,,,,,,,,,,,,,,,,,,,,,,,,,,,,,,,,,,,,,,,,,,,,,,,,,,,,,,,,,,,,,,,,,,,,,,,,,,,,,,,,,,,,,,,,,,,,,,,,,,,,,,,,,,,
,,5eece6c66db5540c7b43648d,2024-02-21_21h28.08.027,kallum_motion_pilot,2023.2.2,Win32,163.9344262,5eece6c66db5540c7b43648d,65d6bb0e977760de756971f7,65d6bf33bcd697ef2196c036,0.0204,0.0204,0,103,103,121,1,fiveseven,,,,,,,,,,,,,,,,,,,,,,,,,,,,,,,,,,,,,,,,,,,,,,,,,,,,,,,,,,,,,,,,,,,,,,,,,,,,,,,,,,,,,,,,,,,,,,,,,,,,,,,,,,,,,,,,,,,,,,,,,,,,,,,,,,,,,,,,,
,,5eece6c66db5540c7b43648d,2024-02-21_21h28.08.027,kallum_motion_pilot,2023.2.2,Win32,163.9344262,5eece6c66db5540c7b43648d,65d6bb0e977760de756971f7,65d6bf33bcd697ef2196c036,0.0205,0.0205,0,104,104,129,1,fiveseven,,,,,,,,,,,,,,,,,,,,,,,,,,,,,,,,,,,,,,,,,,,,,,,,,,,,,,,,,,,,,,,,,,,,,,,,,,,,,,,,,,,,,,,,,,,,,,,,,,,,,,,,,,,,,,,,,,,,,,,,,,,,,,,,,,,,,,,,,
,,5eece6c66db5540c7b43648d,2024-02-21_21h28.08.027,kallum_motion_pilot,2023.2.2,Win32,163.9344262,5eece6c66db5540c7b43648d,65d6bb0e977760de756971f7,65d6bf33bcd697ef2196c036,0.0205,0.0206,0,105,105,89,1,fiveseven,,,,,,,,,,,,,,,,,,,,,,,,,,,,,,,,,,,,,,,,,,,,,,,,,,,,,,,,,,,,,,,,,,,,,,,,,,,,,,,,,,,,,,,,,,,,,,,,,,,,,,,,,,,,,,,,,,,,,,,,,,,,,,,,,,,,,,,,,
,,5eece6c66db5540c7b43648d,2024-02-21_21h28.08.027,kallum_motion_pilot,2023.2.2,Win32,163.9344262,5eece6c66db5540c7b43648d,65d6bb0e977760de756971f7,65d6bf33bcd697ef2196c036,0.0206,0.0206,0,106,106,86,1,eightsix,,,,,,,,,,,,,,,,,,,,,,,,,,,,,,,,,,,,,,,,,,,,,,,,,,,,,,,,,,,,,,,,,,,,,,,,,,,,,,,,,,,,,,,,,,,,,,,,,,,,,,,,,,,,,,,,,,,,,,,,,,,,,,,,,,,,,,,,,
,,5eece6c66db5540c7b43648d,2024-02-21_21h28.08.027,kallum_motion_pilot,2023.2.2,Win32,163.9344262,5eece6c66db5540c7b43648d,65d6bb0e977760de756971f7,65d6bf33bcd697ef2196c036,0.0206,0.0207,0,107,107,71,1,fourthree,,,,,,,,,,,,,,,,,,,,,,,,,,,,,,,,,,,,,,,,,,,,,,,,,,,,,,,,,,,,,,,,,,,,,,,,,,,,,,,,,,,,,,,,,,,,,,,,,,,,,,,,,,,,,,,,,,,,,,,,,,,,,,,,,,,,,,,,,
,,5eece6c66db5540c7b43648d,2024-02-21_21h28.08.027,kallum_motion_pilot,2023.2.2,Win32,163.9344262,5eece6c66db5540c7b43648d,65d6bb0e977760de756971f7,65d6bf33bcd697ef2196c036,0.0208,0.0208,0,108,108,43,1,twofour,,,,,,,,,,,,,,,,,,,,,,,,,,,,,,,,,,,,,,,,,,,,,,,,,,,,,,,,,,,,,,,,,,,,,,,,,,,,,,,,,,,,,,,,,,,,,,,,,,,,,,,,,,,,,,,,,,,,,,,,,,,,,,,,,,,,,,,,,
,,5eece6c66db5540c7b43648d,2024-02-21_21h28.08.027,kallum_motion_pilot,2023.2.2,Win32,163.9344262,5eece6c66db5540c7b43648d,65d6bb0e977760de756971f7,65d6bf33bcd697ef2196c036,0.0208,0.0208,0,109,109,84,1,sevenfive,,,,,,,,,,,,,,,,,,,,,,,,,,,,,,,,,,,,,,,,,,,,,,,,,,,,,,,,,,,,,,,,,,,,,,,,,,,,,,,,,,,,,,,,,,,,,,,,,,,,,,,,,,,,,,,,,,,,,,,,,,,,,,,,,,,,,,,,,
,,5eece6c66db5540c7b43648d,2024-02-21_21h28.08.027,kallum_motion_pilot,2023.2.2,Win32,163.9344262,5eece6c66db5540c7b43648d,65d6bb0e977760de756971f7,65d6bf33bcd697ef2196c036,0.0208,0.0209,0,110,110,87,1,eightseven,,,,,,,,,,,,,,,,,,,,,,,,,,,,,,,,,,,,,,,,,,,,,,,,,,,,,,,,,,,,,,,,,,,,,,,,,,,,,,,,,,,,,,,,,,,,,,,,,,,,,,,,,,,,,,,,,,,,,,,,,,,,,,,,,,,,,,,,,
,,5eece6c66db5540c7b43648d,2024-02-21_21h28.08.027,kallum_motion_pilot,2023.2.2,Win32,163.9344262,5eece6c66db5540c7b43648d,65d6bb0e977760de756971f7,65d6bf33bcd697ef2196c036,0.021,0.021,0,111,111,96,1,fivesix,,,,,,,,,,,,,,,,,,,,,,,,,,,,,,,,,,,,,,,,,,,,,,,,,,,,,,,,,,,,,,,,,,,,,,,,,,,,,,,,,,,,,,,,,,,,,,,,,,,,,,,,,,,,,,,,,,,,,,,,,,,,,,,,,,,,,,,,,
,,5eece6c66db5540c7b43648d,2024-02-21_21h28.08.027,kallum_motion_pilot,2023.2.2,Win32,163.9344262,5eece6c66db5540c7b43648d,65d6bb0e977760de756971f7,65d6bf33bcd697ef2196c036,0.021,0.0211,0,112,112,153,1,fiveseven,,,,,,,,,,,,,,,,,,,,,,,,,,,,,,,,,,,,,,,,,,,,,,,,,,,,,,,,,,,,,,,,,,,,,,,,,,,,,,,,,,,,,,,,,,,,,,,,,,,,,,,,,,,,,,,,,,,,,,,,,,,,,,,,,,,,,,,,,
,,5eece6c66db5540c7b43648d,2024-02-21_21h28.08.027,kallum_motion_pilot,2023.2.2,Win32,163.9344262,5eece6c66db5540c7b43648d,65d6bb0e977760de756971f7,65d6bf33bcd697ef2196c036,0.0211,0.0211,0,113,113,38,1,fourtwo,,,,,,,,,,,,,,,,,,,,,,,,,,,,,,,,,,,,,,,,,,,,,,,,,,,,,,,,,,,,,,,,,,,,,,,,,,,,,,,,,,,,,,,,,,,,,,,,,,,,,,,,,,,,,,,,,,,,,,,,,,,,,,,,,,,,,,,,,
,,5eece6c66db5540c7b43648d,2024-02-21_21h28.08.027,kallum_motion_pilot,2023.2.2,Win32,163.9344262,5eece6c66db5540c7b43648d,65d6bb0e977760de756971f7,65d6bf33bcd697ef2196c036,0.0211,0.0212,0,114,114,81,1,fiveseven,,,,,,,,,,,,,,,,,,,,,,,,,,,,,,,,,,,,,,,,,,,,,,,,,,,,,,,,,,,,,,,,,,,,,,,,,,,,,,,,,,,,,,,,,,,,,,,,,,,,,,,,,,,,,,,,,,,,,,,,,,,,,,,,,,,,,,,,,
,,5eece6c66db5540c7b43648d,2024-02-21_21h28.08.027,kallum_motion_pilot,2023.2.2,Win32,163.9344262,5eece6c66db5540c7b43648d,65d6bb0e977760de756971f7,65d6bf33bcd697ef2196c036,0.0212,0.0212,0,115,115,145,1,fiveseven,,,,,,,,,,,,,,,,,,,,,,,,,,,,,,,,,,,,,,,,,,,,,,,,,,,,,,,,,,,,,,,,,,,,,,,,,,,,,,,,,,,,,,,,,,,,,,,,,,,,,,,,,,,,,,,,,,,,,,,,,,,,,,,,,,,,,,,,,
,,5eece6c66db5540c7b43648d,2024-02-21_21h28.08.027,kallum_motion_pilot,2023.2.2,Win32,163.9344262,5eece6c66db5540c7b43648d,65d6bb0e977760de756971f7,65d6bf33bcd697ef2196c036,0.0213,0.0213,0,116,116,42,1,twoone,,,,,,,,,,,,,,,,,,,,,,,,,,,,,,,,,,,,,,,,,,,,,,,,,,,,,,,,,,,,,,,,,,,,,,,,,,,,,,,,,,,,,,,,,,,,,,,,,,,,,,,,,,,,,,,,,,,,,,,,,,,,,,,,,,,,,,,,,
,,5eece6c66db5540c7b43648d,2024-02-21_21h28.08.027,kallum_motion_pilot,2023.2.2,Win32,163.9344262,5eece6c66db5540c7b43648d,65d6bb0e977760de756971f7,65d6bf33bcd697ef2196c036,0.0214,0.0214,0,117,117,79,1,eightseven,,,,,,,,,,,,,,,,,,,,,,,,,,,,,,,,,,,,,,,,,,,,,,,,,,,,,,,,,,,,,,,,,,,,,,,,,,,,,,,,,,,,,,,,,,,,,,,,,,,,,,,,,,,,,,,,,,,,,,,,,,,,,,,,,,,,,,,,,
,,5eece6c66db5540c7b43648d,2024-02-21_21h28.08.027,kallum_motion_pilot,2023.2.2,Win32,163.9344262,5eece6c66db5540c7b43648d,65d6bb0e977760de756971f7,65d6bf33bcd697ef2196c036,0.0215,0.0215,0,118,118,117,1,seveneight,,,,,,,,,,,,,,,,,,,,,,,,,,,,,,,,,,,,,,,,,,,,,,,,,,,,,,,,,,,,,,,,,,,,,,,,,,,,,,,,,,,,,,,,,,,,,,,,,,,,,,,,,,,,,,,,,,,,,,,,,,,,,,,,,,,,,,,,,
,,5eece6c66db5540c7b43648d,2024-02-21_21h28.08.027,kallum_motion_pilot,2023.2.2,Win32,163.9344262,5eece6c66db5540c7b43648d,65d6bb0e977760de756971f7,65d6bf33bcd697ef2196c036,0.0215,0.0215,0,119,119,109,1,seveneight,,,,,,,,,,,,,,,,,,,,,,,,,,,,,,,,,,,,,,,,,,,,,,,,,,,,,,,,,,,,,,,,,,,,,,,,,,,,,,,,,,,,,,,,,,,,,,,,,,,,,,,,,,,,,,,,,,,,,,,,,,,,,,,,,,,,,,,,,
,,5eece6c66db5540c7b43648d,2024-02-21_21h28.08.027,kallum_motion_pilot,2023.2.2,Win32,163.9344262,5eece6c66db5540c7b43648d,65d6bb0e977760de756971f7,65d6bf33bcd697ef2196c036,0.0216,0.0216,0,120,120,60,1,threeone,,,,,,,,,,,,,,,,,,,,,,,,,,,,,,,,,,,,,,,,,,,,,,,,,,,,,,,,,,,,,,,,,,,,,,,,,,,,,,,,,,,,,,,,,,,,,,,,,,,,,,,,,,,,,,,,,,,,,,,,,,,,,,,,,,,,,,,,,
,,5eece6c66db5540c7b43648d,2024-02-21_21h28.08.027,kallum_motion_pilot,2023.2.2,Win32,163.9344262,5eece6c66db5540c7b43648d,65d6bb0e977760de756971f7,65d6bf33bcd697ef2196c036,0.0217,0.0217,0,121,121,150,1,eightsix,,,,,,,,,,,,,,,,,,,,,,,,,,,,,,,,,,,,,,,,,,,,,,,,,,,,,,,,,,,,,,,,,,,,,,,,,,,,,,,,,,,,,,,,,,,,,,,,,,,,,,,,,,,,,,,,,,,,,,,,,,,,,,,,,,,,,,,,,
,,5eece6c66db5540c7b43648d,2024-02-21_21h28.08.027,kallum_motion_pilot,2023.2.2,Win32,163.9344262,5eece6c66db5540c7b43648d,65d6bb0e977760de756971f7,65d6bf33bcd697ef2196c036,0.0217,0.0217,0,122,122,56,1,onetwo,,,,,,,,,,,,,,,,,,,,,,,,,,,,,,,,,,,,,,,,,,,,,,,,,,,,,,,,,,,,,,,,,,,,,,,,,,,,,,,,,,,,,,,,,,,,,,,,,,,,,,,,,,,,,,,,,,,,,,,,,,,,,,,,,,,,,,,,,
,,5eece6c66db5540c7b43648d,2024-02-21_21h28.08.027,kallum_motion_pilot,2023.2.2,Win32,163.9344262,5eece6c66db5540c7b43648d,65d6bb0e977760de756971f7,65d6bf33bcd697ef2196c036,0.0218,0.0218,0,123,123,55,1,fourthree,,,,,,,,,,,,,,,,,,,,,,,,,,,,,,,,,,,,,,,,,,,,,,,,,,,,,,,,,,,,,,,,,,,,,,,,,,,,,,,,,,,,,,,,,,,,,,,,,,,,,,,,,,,,,,,,,,,,,,,,,,,,,,,,,,,,,,,,,
,,5eece6c66db5540c7b43648d,2024-02-21_21h28.08.027,kallum_motion_pilot,2023.2.2,Win32,163.9344262,5eece6c66db5540c7b43648d,65d6bb0e977760de756971f7,65d6bf33bcd697ef2196c036,0.0219,0.0219,0,124,124,23,1,fourthree,,,,,,,,,,,,,,,,,,,,,,,,,,,,,,,,,,,,,,,,,,,,,,,,,,,,,,,,,,,,,,,,,,,,,,,,,,,,,,,,,,,,,,,,,,,,,,,,,,,,,,,,,,,,,,,,,,,,,,,,,,,,,,,,,,,,,,,,,
,,5eece6c66db5540c7b43648d,2024-02-21_21h28.08.027,kallum_motion_pilot,2023.2.2,Win32,163.9344262,5eece6c66db5540c7b43648d,65d6bb0e977760de756971f7,65d6bf33bcd697ef2196c036,0.0219,0.0219,0,125,125,100,1,sevenfive,,,,,,,,,,,,,,,,,,,,,,,,,,,,,,,,,,,,,,,,,,,,,,,,,,,,,,,,,,,,,,,,,,,,,,,,,,,,,,,,,,,,,,,,,,,,,,,,,,,,,,,,,,,,,,,,,,,,,,,,,,,,,,,,,,,,,,,,,
,,5eece6c66db5540c7b43648d,2024-02-21_21h28.08.027,kallum_motion_pilot,2023.2.2,Win32,163.9344262,5eece6c66db5540c7b43648d,65d6bb0e977760de756971f7,65d6bf33bcd697ef2196c036,0.022,0.022,0,126,126,137,1,fiveseven,,,,,,,,,,,,,,,,,,,,,,,,,,,,,,,,,,,,,,,,,,,,,,,,,,,,,,,,,,,,,,,,,,,,,,,,,,,,,,,,,,,,,,,,,,,,,,,,,,,,,,,,,,,,,,,,,,,,,,,,,,,,,,,,,,,,,,,,,
,,5eece6c66db5540c7b43648d,2024-02-21_21h28.08.027,kallum_motion_pilot,2023.2.2,Win32,163.9344262,5eece6c66db5540c7b43648d,65d6bb0e977760de756971f7,65d6bf33bcd697ef2196c036,0.0221,0.0221,0,127,127,63,1,fourthree,,,,,,,,,,,,,,,,,,,,,,,,,,,,,,,,,,,,,,,,,,,,,,,,,,,,,,,,,,,,,,,,,,,,,,,,,,,,,,,,,,,,,,,,,,,,,,,,,,,,,,,,,,,,,,,,,,,,,,,,,,,,,,,,,,,,,,,,,
,,5eece6c66db5540c7b43648d,2024-02-21_21h28.08.027,kallum_motion_pilot,2023.2.2,Win32,163.9344262,5eece6c66db5540c7b43648d,65d6bb0e977760de756971f7,65d6bf33bcd697ef2196c036,0.0222,0.0222,0,128,128,53,1,threefour,,,,,,,,,,,,,,,,,,,,,,,,,,,,,,,,,,,,,,,,,,,,,,,,,,,,,,,,,,,,,,,,,,,,,,,,,,,,,,,,,,,,,,,,,,,,,,,,,,,,,,,,,,,,,,,,,,,,,,,,,,,,,,,,,,,,,,,,,
,,5eece6c66db5540c7b43648d,2024-02-21_21h28.08.027,kallum_motion_pilot,2023.2.2,Win32,163.9344262,5eece6c66db5540c7b43648d,65d6bb0e977760de756971f7,65d6bf33bcd697ef2196c036,0.0222,0.0223,0,129,129,41,1,onethree,,,,,,,,,,,,,,,,,,,,,,,,,,,,,,,,,,,,,,,,,,,,,,,,,,,,,,,,,,,,,,,,,,,,,,,,,,,,,,,,,,,,,,,,,,,,,,,,,,,,,,,,,,,,,,,,,,,,,,,,,,,,,,,,,,,,,,,,,
,,5eece6c66db5540c7b43648d,2024-02-21_21h28.08.027,kallum_motion_pilot,2023.2.2,Win32,163.9344262,5eece6c66db5540c7b43648d,65d6bb0e977760de756971f7,65d6bf33bcd697ef2196c036,0.0223,0.0223,0,130,130,29,1,threefour,,,,,,,,,,,,,,,,,,,,,,,,,,,,,,,,,,,,,,,,,,,,,,,,,,,,,,,,,,,,,,,,,,,,,,,,,,,,,,,,,,,,,,,,,,,,,,,,,,,,,,,,,,,,,,,,,,,,,,,,,,,,,,,,,,,,,,,,,
,,5eece6c66db5540c7b43648d,2024-02-21_21h28.08.027,kallum_motion_pilot,2023.2.2,Win32,163.9344262,5eece6c66db5540c7b43648d,65d6bb0e977760de756971f7,65d6bf33bcd697ef2196c036,0.0223,0.0224,0,131,131,40,1,onetwo,,,,,,,,,,,,,,,,,,,,,,,,,,,,,,,,,,,,,,,,,,,,,,,,,,,,,,,,,,,,,,,,,,,,,,,,,,,,,,,,,,,,,,,,,,,,,,,,,,,,,,,,,,,,,,,,,,,,,,,,,,,,,,,,,,,,,,,,,
,,5eece6c66db5540c7b43648d,2024-02-21_21h28.08.027,kallum_motion_pilot,2023.2.2,Win32,163.9344262,5eece6c66db5540c7b43648d,65d6bb0e977760de756971f7,65d6bf33bcd697ef2196c036,0.0225,0.0225,0,132,132,13,1,threefour,,,,,,,,,,,,,,,,,,,,,,,,,,,,,,,,,,,,,,,,,,,,,,,,,,,,,,,,,,,,,,,,,,,,,,,,,,,,,,,,,,,,,,,,,,,,,,,,,,,,,,,,,,,,,,,,,,,,,,,,,,,,,,,,,,,,,,,,,
,,5eece6c66db5540c7b43648d,2024-02-21_21h28.08.027,kallum_motion_pilot,2023.2.2,Win32,163.9344262,5eece6c66db5540c7b43648d,65d6bb0e977760de756971f7,65d6bf33bcd697ef2196c036,0.0225,0.0225,0,133,133,114,1,sixfive,,,,,,,,,,,,,,,,,,,,,,,,,,,,,,,,,,,,,,,,,,,,,,,,,,,,,,,,,,,,,,,,,,,,,,,,,,,,,,,,,,,,,,,,,,,,,,,,,,,,,,,,,,,,,,,,,,,,,,,,,,,,,,,,,,,,,,,,,
,,5eece6c66db5540c7b43648d,2024-02-21_21h28.08.027,kallum_motion_pilot,2023.2.2,Win32,163.9344262,5eece6c66db5540c7b43648d,65d6bb0e977760de756971f7,65d6bf33bcd697ef2196c036,0.0225,0.0226,0,134,134,94,1,eightsix,,,,,,,,,,,,,,,,,,,,,,,,,,,,,,,,,,,,,,,,,,,,,,,,,,,,,,,,,,,,,,,,,,,,,,,,,,,,,,,,,,,,,,,,,,,,,,,,,,,,,,,,,,,,,,,,,,,,,,,,,,,,,,,,,,,,,,,,,
,,5eece6c66db5540c7b43648d,2024-02-21_21h28.08.027,kallum_motion_pilot,2023.2.2,Win32,163.9344262,5eece6c66db5540c7b43648d,65d6bb0e977760de756971f7,65d6bf33bcd697ef2196c036,0.0227,0.0227,0,135,135,91,1,sixeight,,,,,,,,,,,,,,,,,,,,,,,,,,,,,,,,,,,,,,,,,,,,,,,,,,,,,,,,,,,,,,,,,,,,,,,,,,,,,,,,,,,,,,,,,,,,,,,,,,,,,,,,,,,,,,,,,,,,,,,,,,,,,,,,,,,,,,,,,
,,5eece6c66db5540c7b43648d,2024-02-21_21h28.08.027,kallum_motion_pilot,2023.2.2,Win32,163.9344262,5eece6c66db5540c7b43648d,65d6bb0e977760de756971f7,65d6bf33bcd697ef2196c036,0.0227,0.0228,0,136,136,139,1,sixeight,,,,,,,,,,,,,,,,,,,,,,,,,,,,,,,,,,,,,,,,,,,,,,,,,,,,,,,,,,,,,,,,,,,,,,,,,,,,,,,,,,,,,,,,,,,,,,,,,,,,,,,,,,,,,,,,,,,,,,,,,,,,,,,,,,,,,,,,,
,,5eece6c66db5540c7b43648d,2024-02-21_21h28.08.027,kallum_motion_pilot,2023.2.2,Win32,163.9344262,5eece6c66db5540c7b43648d,65d6bb0e977760de756971f7,65d6bf33bcd697ef2196c036,0.0228,0.0228,0,137,137,74,1,twoone,,,,,,,,,,,,,,,,,,,,,,,,,,,,,,,,,,,,,,,,,,,,,,,,,,,,,,,,,,,,,,,,,,,,,,,,,,,,,,,,,,,,,,,,,,,,,,,,,,,,,,,,,,,,,,,,,,,,,,,,,,,,,,,,,,,,,,,,,
,,5eece6c66db5540c7b43648d,2024-02-21_21h28.08.027,kallum_motion_pilot,2023.2.2,Win32,163.9344262,5eece6c66db5540c7b43648d,65d6bb0e977760de756971f7,65d6bf33bcd697ef2196c036,0.0228,0.0228,0,138,138,69,1,threefour,,,,,,,,,,,,,,,,,,,,,,,,,,,,,,,,,,,,,,,,,,,,,,,,,,,,,,,,,,,,,,,,,,,,,,,,,,,,,,,,,,,,,,,,,,,,,,,,,,,,,,,,,,,,,,,,,,,,,,,,,,,,,,,,,,,,,,,,,
,,5eece6c66db5540c7b43648d,2024-02-21_21h28.08.027,kallum_motion_pilot,2023.2.2,Win32,163.9344262,5eece6c66db5540c7b43648d,65d6bb0e977760de756971f7,65d6bf33bcd697ef2196c036,0.0229,0.0229,0,139,139,78,1,fourtwo,,,,,,,,,,,,,,,,,,,,,,,,,,,,,,,,,,,,,,,,,,,,,,,,,,,,,,,,,,,,,,,,,,,,,,,,,,,,,,,,,,,,,,,,,,,,,,,,,,,,,,,,,,,,,,,,,,,,,,,,,,,,,,,,,,,,,,,,,
,,5eece6c66db5540c7b43648d,2024-02-21_21h28.08.027,kallum_motion_pilot,2023.2.2,Win32,163.9344262,5eece6c66db5540c7b43648d,65d6bb0e977760de756971f7,65d6bf33bcd697ef2196c036,0.023,0.023,0,140,140,64,1,onetwo,,,,,,,,,,,,,,,,,,,,,,,,,,,,,,,,,,,,,,,,,,,,,,,,,,,,,,,,,,,,,,,,,,,,,,,,,,,,,,,,,,,,,,,,,,,,,,,,,,,,,,,,,,,,,,,,,,,,,,,,,,,,,,,,,,,,,,,,,
,,5eece6c66db5540c7b43648d,2024-02-21_21h28.08.027,kallum_motion_pilot,2023.2.2,Win32,163.9344262,5eece6c66db5540c7b43648d,65d6bb0e977760de756971f7,65d6bf33bcd697ef2196c036,0.023,0.023,0,141,141,154,1,sixfive,,,,,,,,,,,,,,,,,,,,,,,,,,,,,,,,,,,,,,,,,,,,,,,,,,,,,,,,,,,,,,,,,,,,,,,,,,,,,,,,,,,,,,,,,,,,,,,,,,,,,,,,,,,,,,,,,,,,,,,,,,,,,,,,,,,,,,,,,
,,5eece6c66db5540c7b43648d,2024-02-21_21h28.08.027,kallum_motion_pilot,2023.2.2,Win32,163.9344262,5eece6c66db5540c7b43648d,65d6bb0e977760de756971f7,65d6bf33bcd697ef2196c036,0.0231,0.0232,0,142,142,44,1,threeone,,,,,,,,,,,,,,,,,,,,,,,,,,,,,,,,,,,,,,,,,,,,,,,,,,,,,,,,,,,,,,,,,,,,,,,,,,,,,,,,,,,,,,,,,,,,,,,,,,,,,,,,,,,,,,,,,,,,,,,,,,,,,,,,,,,,,,,,,
,,5eece6c66db5540c7b43648d,2024-02-21_21h28.08.027,kallum_motion_pilot,2023.2.2,Win32,163.9344262,5eece6c66db5540c7b43648d,65d6bb0e977760de756971f7,65d6bf33bcd697ef2196c036,0.0232,0.0232,0,143,143,50,1,twoone,,,,,,,,,,,,,,,,,,,,,,,,,,,,,,,,,,,,,,,,,,,,,,,,,,,,,,,,,,,,,,,,,,,,,,,,,,,,,,,,,,,,,,,,,,,,,,,,,,,,,,,,,,,,,,,,,,,,,,,,,,,,,,,,,,,,,,,,,
,,5eece6c66db5540c7b43648d,2024-02-21_21h28.08.027,kallum_motion_pilot,2023.2.2,Win32,163.9344262,5eece6c66db5540c7b43648d,65d6bb0e977760de756971f7,65d6bf33bcd697ef2196c036,0.0233,0.0233,0,144,144,103,1,eightseven,,,,,,,,,,,,,,,,,,,,,,,,,,,,,,,,,,,,,,,,,,,,,,,,,,,,,,,,,,,,,,,,,,,,,,,,,,,,,,,,,,,,,,,,,,,,,,,,,,,,,,,,,,,,,,,,,,,,,,,,,,,,,,,,,,,,,,,,,
,,5eece6c66db5540c7b43648d,2024-02-21_21h28.08.027,kallum_motion_pilot,2023.2.2,Win32,163.9344262,5eece6c66db5540c7b43648d,65d6bb0e977760de756971f7,65d6bf33bcd697ef2196c036,0.0234,0.0234,0,145,145,132,1,sevenfive,,,,,,,,,,,,,,,,,,,,,,,,,,,,,,,,,,,,,,,,,,,,,,,,,,,,,,,,,,,,,,,,,,,,,,,,,,,,,,,,,,,,,,,,,,,,,,,,,,,,,,,,,,,,,,,,,,,,,,,,,,,,,,,,,,,,,,,,,
,,5eece6c66db5540c7b43648d,2024-02-21_21h28.08.027,kallum_motion_pilot,2023.2.2,Win32,163.9344262,5eece6c66db5540c7b43648d,65d6bb0e977760de756971f7,65d6bf33bcd697ef2196c036,0.0234,0.0235,0,146,146,158,1,eightsix,,,,,,,,,,,,,,,,,,,,,,,,,,,,,,,,,,,,,,,,,,,,,,,,,,,,,,,,,,,,,,,,,,,,,,,,,,,,,,,,,,,,,,,,,,,,,,,,,,,,,,,,,,,,,,,,,,,,,,,,,,,,,,,,,,,,,,,,,
,,5eece6c66db5540c7b43648d,2024-02-21_21h28.08.027,kallum_motion_pilot,2023.2.2,Win32,163.9344262,5eece6c66db5540c7b43648d,65d6bb0e977760de756971f7,65d6bf33bcd697ef2196c036,0.0235,0.0235,0,147,147,49,1,onethree,,,,,,,,,,,,,,,,,,,,,,,,,,,,,,,,,,,,,,,,,,,,,,,,,,,,,,,,,,,,,,,,,,,,,,,,,,,,,,,,,,,,,,,,,,,,,,,,,,,,,,,,,,,,,,,,,,,,,,,,,,,,,,,,,,,,,,,,,
,,5eece6c66db5540c7b43648d,2024-02-21_21h28.08.027,kallum_motion_pilot,2023.2.2,Win32,163.9344262,5eece6c66db5540c7b43648d,65d6bb0e977760de756971f7,65d6bf33bcd697ef2196c036,0.0235,0.0236,0,148,148,138,1,sixfive,,,,,,,,,,,,,,,,,,,,,,,,,,,,,,,,,,,,,,,,,,,,,,,,,,,,,,,,,,,,,,,,,,,,,,,,,,,,,,,,,,,,,,,,,,,,,,,,,,,,,,,,,,,,,,,,,,,,,,,,,,,,,,,,,,,,,,,,,
,,5eece6c66db5540c7b43648d,2024-02-21_21h28.08.027,kallum_motion_pilot,2023.2.2,Win32,163.9344262,5eece6c66db5540c7b43648d,65d6bb0e977760de756971f7,65d6bf33bcd697ef2196c036,0.0236,0.0236,0,149,149,110,1,eightsix,,,,,,,,,,,,,,,,,,,,,,,,,,,,,,,,,,,,,,,,,,,,,,,,,,,,,,,,,,,,,,,,,,,,,,,,,,,,,,,,,,,,,,,,,,,,,,,,,,,,,,,,,,,,,,,,,,,,,,,,,,,,,,,,,,,,,,,,,
,,5eece6c66db5540c7b43648d,2024-02-21_21h28.08.027,kallum_motion_pilot,2023.2.2,Win32,163.9344262,5eece6c66db5540c7b43648d,65d6bb0e977760de756971f7,65d6bf33bcd697ef2196c036,0.0237,0.0237,0,150,150,136,1,fivesix,,,,,,,,,,,,,,,,,,,,,,,,,,,,,,,,,,,,,,,,,,,,,,,,,,,,,,,,,,,,,,,,,,,,,,,,,,,,,,,,,,,,,,,,,,,,,,,,,,,,,,,,,,,,,,,,,,,,,,,,,,,,,,,,,,,,,,,,,
,,5eece6c66db5540c7b43648d,2024-02-21_21h28.08.027,kallum_motion_pilot,2023.2.2,Win32,163.9344262,5eece6c66db5540c7b43648d,65d6bb0e977760de756971f7,65d6bf33bcd697ef2196c036,0.0237,0.0238,0,151,151,67,1,twofour,,,,,,,,,,,,,,,,,,,,,,,,,,,,,,,,,,,,,,,,,,,,,,,,,,,,,,,,,,,,,,,,,,,,,,,,,,,,,,,,,,,,,,,,,,,,,,,,,,,,,,,,,,,,,,,,,,,,,,,,,,,,,,,,,,,,,,,,,
,,5eece6c66db5540c7b43648d,2024-02-21_21h28.08.027,kallum_motion_pilot,2023.2.2,Win32,163.9344262,5eece6c66db5540c7b43648d,65d6bb0e977760de756971f7,65d6bf33bcd697ef2196c036,0.0238,0.0238,0,152,152,147,1,sixeight,,,,,,,,,,,,,,,,,,,,,,,,,,,,,,,,,,,,,,,,,,,,,,,,,,,,,,,,,,,,,,,,,,,,,,,,,,,,,,,,,,,,,,,,,,,,,,,,,,,,,,,,,,,,,,,,,,,,,,,,,,,,,,,,,,,,,,,,,
,,5eece6c66db5540c7b43648d,2024-02-21_21h28.08.027,kallum_motion_pilot,2023.2.2,Win32,163.9344262,5eece6c66db5540c7b43648d,65d6bb0e977760de756971f7,65d6bf33bcd697ef2196c036,0.0239,0.0239,0,153,153,80,1,fivesix,,,,,,,,,,,,,,,,,,,,,,,,,,,,,,,,,,,,,,,,,,,,,,,,,,,,,,,,,,,,,,,,,,,,,,,,,,,,,,,,,,,,,,,,,,,,,,,,,,,,,,,,,,,,,,,,,,,,,,,,,,,,,,,,,,,,,,,,,
,,5eece6c66db5540c7b43648d,2024-02-21_21h28.08.027,kallum_motion_pilot,2023.2.2,Win32,163.9344262,5eece6c66db5540c7b43648d,65d6bb0e977760de756971f7,65d6bf33bcd697ef2196c036,0.0239,0.024,0,154,154,155,1,sixeight,,,,,,,,,,,,,,,,,,,,,,,,,,,,,,,,,,,,,,,,,,,,,,,,,,,,,,,,,,,,,,,,,,,,,,,,,,,,,,,,,,,,,,,,,,,,,,,,,,,,,,,,,,,,,,,,,,,,,,,,,,,,,,,,,,,,,,,,,
,,5eece6c66db5540c7b43648d,2024-02-21_21h28.08.027,kallum_motion_pilot,2023.2.2,Win32,163.9344262,5eece6c66db5540c7b43648d,65d6bb0e977760de756971f7,65d6bf33bcd697ef2196c036,0.0241,0.0241,0,155,155,52,1,threeone,,,,,,,,,,,,,,,,,,,,,,,,,,,,,,,,,,,,,,,,,,,,,,,,,,,,,,,,,,,,,,,,,,,,,,,,,,,,,,,,,,,,,,,,,,,,,,,,,,,,,,,,,,,,,,,,,,,,,,,,,,,,,,,,,,,,,,,,,
,,5eece6c66db5540c7b43648d,2024-02-21_21h28.08.027,kallum_motion_pilot,2023.2.2,Win32,163.9344262,5eece6c66db5540c7b43648d,65d6bb0e977760de756971f7,65d6bf33bcd697ef2196c036,0.0241,0.0241,0,156,156,1,1,onethree,,,,,,,,,,,,,,,,,,,,,,,,,,,,,,,,,,,,,,,,,,,,,,,,,,,,,,,,,,,,,,,,,,,,,,,,,,,,,,,,,,,,,,,,,,,,,,,,,,,,,,,,,,,,,,,,,,,,,,,,,,,,,,,,,,,,,,,,,
,,5eece6c66db5540c7b43648d,2024-02-21_21h28.08.027,kallum_motion_pilot,2023.2.2,Win32,163.9344262,5eece6c66db5540c7b43648d,65d6bb0e977760de756971f7,65d6bf33bcd697ef2196c036,0.0245,0.0245,0,157,157,19,1,twofour,,,,,,,,,,,,,,,,,,,,,,,,,,,,,,,,,,,,,,,,,,,,,,,,,,,,,,,,,,,,,,,,,,,,,,,,,,,,,,,,,,,,,,,,,,,,,,,,,,,,,,,,,,,,,,,,,,,,,,,,,,,,,,,,,,,,,,,,,
,,5eece6c66db5540c7b43648d,2024-02-21_21h28.08.027,kallum_motion_pilot,2023.2.2,Win32,163.9344262,5eece6c66db5540c7b43648d,65d6bb0e977760de756971f7,65d6bf33bcd697ef2196c036,0.0245,0.0246,0,158,158,101,1,seveneight,,,,,,,,,,,,,,,,,,,,,,,,,,,,,,,,,,,,,,,,,,,,,,,,,,,,,,,,,,,,,,,,,,,,,,,,,,,,,,,,,,,,,,,,,,,,,,,,,,,,,,,,,,,,,,,,,,,,,,,,,,,,,,,,,,,,,,,,,
,,5eece6c66db5540c7b43648d,2024-02-21_21h28.08.027,kallum_motion_pilot,2023.2.2,Win32,163.9344262,5eece6c66db5540c7b43648d,65d6bb0e977760de756971f7,65d6bf33bcd697ef2196c036,0.0246,0.0246,0,159,159,27,1,twofour,,,,,,,,,,,,,,,,,,,,,,,,,,,,,,,,,,,,,,,,,,,,,,,,,,,,,,,,,,,,,,,,,,,,,,,,,,,,,,,,,,,,,,,,,,,,,,,,,,,,,,,,,,,,,,,,,,,,,,,,,,,,,,,,,,,,,,,,,
,,5eece6c66db5540c7b43648d,2024-02-21_21h28.08.027,kallum_motion_pilot,2023.2.2,Win32,163.9344262,5eece6c66db5540c7b43648d,65d6bb0e977760de756971f7,65d6bf33bcd697ef2196c036,0.0246,0.0247,0,160,160,135,1,eightseven,,,,,,,,,,,,,,,,,,,,,,,,,,,,,,,,,,,,,,,,,,,,,,,,,,,,,,,,,,,,,,,,,,,,,,,,,,,,,,,,,,,,,,,,,,,,,,,,,,,,,,,,,,,,,,,,,,,,,,,,,,,,,,,,,,,,,,,,,
,,5eece6c66db5540c7b43648d,2024-02-21_21h28.08.027,kallum_motion_pilot,2023.2.2,Win32,163.9344262,5eece6c66db5540c7b43648d,65d6bb0e977760de756971f7,65d6bf33bcd697ef2196c036,0.0247,0.0247,0,161,161,105,1,fiveseven,,,,,,,,,,,,,,,,,,,,,,,,,,,,,,,,,,,,,,,,,,,,,,,,,,,,,,,,,,,,,,,,,,,,,,,,,,,,,,,,,,,,,,,,,,,,,,,,,,,,,,,,,,,,,,,,,,,,,,,,,,,,,,,,,,,,,,,,,
,,5eece6c66db5540c7b43648d,2024-02-21_21h28.08.027,kallum_motion_pilot,2023.2.2,Win32,163.9344262,5eece6c66db5540c7b43648d,65d6bb0e977760de756971f7,65d6bf33bcd697ef2196c036,0.0248,0.0249,1,0,162,146,1,sixfive,,,,,,,,,,,,,,,,,,,,,,,,,,,,,,,,,,,,,,,,,,,,,,,,,,,,,,,,,,,,,,,,,,,,,,,,,,,,,,,,,,,,,,,,,,,,,,,,,,,,,,,,,,,,,,,,,,,,,,,,,,,,,,,,,,,,,,,,,
,,5eece6c66db5540c7b43648d,2024-02-21_21h28.08.027,kallum_motion_pilot,2023.2.2,Win32,163.9344262,5eece6c66db5540c7b43648d,65d6bb0e977760de756971f7,65d6bf33bcd697ef2196c036,0.0249,0.0249,1,1,163,75,1,twofour,,,,,,,,,,,,,,,,,,,,,,,,,,,,,,,,,,,,,,,,,,,,,,,,,,,,,,,,,,,,,,,,,,,,,,,,,,,,,,,,,,,,,,,,,,,,,,,,,,,,,,,,,,,,,,,,,,,,,,,,,,,,,,,,,,,,,,,,,
,,5eece6c66db5540c7b43648d,2024-02-21_21h28.08.027,kallum_motion_pilot,2023.2.2,Win32,163.9344262,5eece6c66db5540c7b43648d,65d6bb0e977760de756971f7,65d6bf33bcd697ef2196c036,0.0249,0.025,1,2,164,110,1,eightsix,,,,,,,,,,,,,,,,,,,,,,,,,,,,,,,,,,,,,,,,,,,,,,,,,,,,,,,,,,,,,,,,,,,,,,,,,,,,,,,,,,,,,,,,,,,,,,,,,,,,,,,,,,,,,,,,,,,,,,,,,,,,,,,,,,,,,,,,,
,,5eece6c66db5540c7b43648d,2024-02-21_21h28.08.027,kallum_motion_pilot,2023.2.2,Win32,163.9344262,5eece6c66db5540c7b43648d,65d6bb0e977760de756971f7,65d6bf33bcd697ef2196c036,0.025,0.0251,1,3,165,84,1,sevenfive,,,,,,,,,,,,,,,,,,,,,,,,,,,,,,,,,,,,,,,,,,,,,,,,,,,,,,,,,,,,,,,,,,,,,,,,,,,,,,,,,,,,,,,,,,,,,,,,,,,,,,,,,,,,,,,,,,,,,,,,,,,,,,,,,,,,,,,,,
,,5eece6c66db5540c7b43648d,2024-02-21_21h28.08.027,kallum_motion_pilot,2023.2.2,Win32,163.9344262,5eece6c66db5540c7b43648d,65d6bb0e977760de756971f7,65d6bf33bcd697ef2196c036,0.0251,0.0251,1,4,166,105,1,fiveseven,,,,,,,,,,,,,,,,,,,,,,,,,,,,,,,,,,,,,,,,,,,,,,,,,,,,,,,,,,,,,,,,,,,,,,,,,,,,,,,,,,,,,,,,,,,,,,,,,,,,,,,,,,,,,,,,,,,,,,,,,,,,,,,,,,,,,,,,,
,,5eece6c66db5540c7b43648d,2024-02-21_21h28.08.027,kallum_motion_pilot,2023.2.2,Win32,163.9344262,5eece6c66db5540c7b43648d,65d6bb0e977760de756971f7,65d6bf33bcd697ef2196c036,0.0252,0.0252,1,5,167,126,1,eightsix,,,,,,,,,,,,,,,,,,,,,,,,,,,,,,,,,,,,,,,,,,,,,,,,,,,,,,,,,,,,,,,,,,,,,,,,,,,,,,,,,,,,,,,,,,,,,,,,,,,,,,,,,,,,,,,,,,,,,,,,,,,,,,,,,,,,,,,,,
,,5eece6c66db5540c7b43648d,2024-02-21_21h28.08.027,kallum_motion_pilot,2023.2.2,Win32,163.9344262,5eece6c66db5540c7b43648d,65d6bb0e977760de756971f7,65d6bf33bcd697ef2196c036,0.0252,0.0252,1,6,168,98,1,sixfive,,,,,,,,,,,,,,,,,,,,,,,,,,,,,,,,,,,,,,,,,,,,,,,,,,,,,,,,,,,,,,,,,,,,,,,,,,,,,,,,,,,,,,,,,,,,,,,,,,,,,,,,,,,,,,,,,,,,,,,,,,,,,,,,,,,,,,,,,
,,5eece6c66db5540c7b43648d,2024-02-21_21h28.08.027,kallum_motion_pilot,2023.2.2,Win32,163.9344262,5eece6c66db5540c7b43648d,65d6bb0e977760de756971f7,65d6bf33bcd697ef2196c036,0.0252,0.0253,1,7,169,153,1,fiveseven,,,,,,,,,,,,,,,,,,,,,,,,,,,,,,,,,,,,,,,,,,,,,,,,,,,,,,,,,,,,,,,,,,,,,,,,,,,,,,,,,,,,,,,,,,,,,,,,,,,,,,,,,,,,,,,,,,,,,,,,,,,,,,,,,,,,,,,,,
,,5eece6c66db5540c7b43648d,2024-02-21_21h28.08.027,kallum_motion_pilot,2023.2.2,Win32,163.9344262,5eece6c66db5540c7b43648d,65d6bb0e977760de756971f7,65d6bf33bcd697ef2196c036,0.0253,0.0254,1,8,170,41,1,onethree,,,,,,,,,,,,,,,,,,,,,,,,,,,,,,,,,,,,,,,,,,,,,,,,,,,,,,,,,,,,,,,,,,,,,,,,,,,,,,,,,,,,,,,,,,,,,,,,,,,,,,,,,,,,,,,,,,,,,,,,,,,,,,,,,,,,,,,,,
,,5eece6c66db5540c7b43648d,2024-02-21_21h28.08.027,kallum_motion_pilot,2023.2.2,Win32,163.9344262,5eece6c66db5540c7b43648d,65d6bb0e977760de756971f7,65d6bf33bcd697ef2196c036,0.0254,0.0254,1,9,171,60,1,threeone,,,,,,,,,,,,,,,,,,,,,,,,,,,,,,,,,,,,,,,,,,,,,,,,,,,,,,,,,,,,,,,,,,,,,,,,,,,,,,,,,,,,,,,,,,,,,,,,,,,,,,,,,,,,,,,,,,,,,,,,,,,,,,,,,,,,,,,,,
,,5eece6c66db5540c7b43648d,2024-02-21_21h28.08.027,kallum_motion_pilot,2023.2.2,Win32,163.9344262,5eece6c66db5540c7b43648d,65d6bb0e977760de756971f7,65d6bf33bcd697ef2196c036,0.0255,0.0255,1,10,172,64,1,onetwo,,,,,,,,,,,,,,,,,,,,,,,,,,,,,,,,,,,,,,,,,,,,,,,,,,,,,,,,,,,,,,,,,,,,,,,,,,,,,,,,,,,,,,,,,,,,,,,,,,,,,,,,,,,,,,,,,,,,,,,,,,,,,,,,,,,,,,,,,
,,5eece6c66db5540c7b43648d,2024-02-21_21h28.08.027,kallum_motion_pilot,2023.2.2,Win32,163.9344262,5eece6c66db5540c7b43648d,65d6bb0e977760de756971f7,65d6bf33bcd697ef2196c036,0.0256,0.0256,1,11,173,136,1,fivesix,,,,,,,,,,,,,,,,,,,,,,,,,,,,,,,,,,,,,,,,,,,,,,,,,,,,,,,,,,,,,,,,,,,,,,,,,,,,,,,,,,,,,,,,,,,,,,,,,,,,,,,,,,,,,,,,,,,,,,,,,,,,,,,,,,,,,,,,,
,,5eece6c66db5540c7b43648d,2024-02-21_21h28.08.027,kallum_motion_pilot,2023.2.2,Win32,163.9344262,5eece6c66db5540c7b43648d,65d6bb0e977760de756971f7,65d6bf33bcd697ef2196c036,0.0256,0.0257,1,12,174,4,1,threeone,,,,,,,,,,,,,,,,,,,,,,,,,,,,,,,,,,,,,,,,,,,,,,,,,,,,,,,,,,,,,,,,,,,,,,,,,,,,,,,,,,,,,,,,,,,,,,,,,,,,,,,,,,,,,,,,,,,,,,,,,,,,,,,,,,,,,,,,,
,,5eece6c66db5540c7b43648d,2024-02-21_21h28.08.027,kallum_motion_pilot,2023.2.2,Win32,163.9344262,5eece6c66db5540c7b43648d,65d6bb0e977760de756971f7,65d6bf33bcd697ef2196c036,0.0257,0.0257,1,13,175,61,1,threefour,,,,,,,,,,,,,,,,,,,,,,,,,,,,,,,,,,,,,,,,,,,,,,,,,,,,,,,,,,,,,,,,,,,,,,,,,,,,,,,,,,,,,,,,,,,,,,,,,,,,,,,,,,,,,,,,,,,,,,,,,,,,,,,,,,,,,,,,,
,,5eece6c66db5540c7b43648d,2024-02-21_21h28.08.027,kallum_motion_pilot,2023.2.2,Win32,163.9344262,5eece6c66db5540c7b43648d,65d6bb0e977760de756971f7,65d6bf33bcd697ef2196c036,0.0257,0.0257,1,14,176,111,1,eightseven,,,,,,,,,,,,,,,,,,,,,,,,,,,,,,,,,,,,,,,,,,,,,,,,,,,,,,,,,,,,,,,,,,,,,,,,,,,,,,,,,,,,,,,,,,,,,,,,,,,,,,,,,,,,,,,,,,,,,,,,,,,,,,,,,,,,,,,,,
,,5eece6c66db5540c7b43648d,2024-02-21_21h28.08.027,kallum_motion_pilot,2023.2.2,Win32,163.9344262,5eece6c66db5540c7b43648d,65d6bb0e977760de756971f7,65d6bf33bcd697ef2196c036,0.0258,0.0258,1,15,177,158,1,eightsix,,,,,,,,,,,,,,,,,,,,,,,,,,,,,,,,,,,,,,,,,,,,,,,,,,,,,,,,,,,,,,,,,,,,,,,,,,,,,,,,,,,,,,,,,,,,,,,,,,,,,,,,,,,,,,,,,,,,,,,,,,,,,,,,,,,,,,,,,
,,5eece6c66db5540c7b43648d,2024-02-21_21h28.08.027,kallum_motion_pilot,2023.2.2,Win32,163.9344262,5eece6c66db5540c7b43648d,65d6bb0e977760de756971f7,65d6bf33bcd697ef2196c036,0.0258,0.0259,1,16,178,88,1,fivesix,,,,,,,,,,,,,,,,,,,,,,,,,,,,,,,,,,,,,,,,,,,,,,,,,,,,,,,,,,,,,,,,,,,,,,,,,,,,,,,,,,,,,,,,,,,,,,,,,,,,,,,,,,,,,,,,,,,,,,,,,,,,,,,,,,,,,,,,,
,,5eece6c66db5540c7b43648d,2024-02-21_21h28.08.027,kallum_motion_pilot,2023.2.2,Win32,163.9344262,5eece6c66db5540c7b43648d,65d6bb0e977760de756971f7,65d6bf33bcd697ef2196c036,0.0259,0.026,1,17,179,133,1,seveneight,,,,,,,,,,,,,,,,,,,,,,,,,,,,,,,,,,,,,,,,,,,,,,,,,,,,,,,,,,,,,,,,,,,,,,,,,,,,,,,,,,,,,,,,,,,,,,,,,,,,,,,,,,,,,,,,,,,,,,,,,,,,,,,,,,,,,,,,,
,,5eece6c66db5540c7b43648d,2024-02-21_21h28.08.027,kallum_motion_pilot,2023.2.2,Win32,163.9344262,5eece6c66db5540c7b43648d,65d6bb0e977760de756971f7,65d6bf33bcd697ef2196c036,0.026,0.026,1,18,180,93,1,seveneight,,,,,,,,,,,,,,,,,,,,,,,,,,,,,,,,,,,,,,,,,,,,,,,,,,,,,,,,,,,,,,,,,,,,,,,,,,,,,,,,,,,,,,,,,,,,,,,,,,,,,,,,,,,,,,,,,,,,,,,,,,,,,,,,,,,,,,,,,
,,5eece6c66db5540c7b43648d,2024-02-21_21h28.08.027,kallum_motion_pilot,2023.2.2,Win32,163.9344262,5eece6c66db5540c7b43648d,65d6bb0e977760de756971f7,65d6bf33bcd697ef2196c036,0.026,0.0261,1,19,181,108,1,sevenfive,,,,,,,,,,,,,,,,,,,,,,,,,,,,,,,,,,,,,,,,,,,,,,,,,,,,,,,,,,,,,,,,,,,,,,,,,,,,,,,,,,,,,,,,,,,,,,,,,,,,,,,,,,,,,,,,,,,,,,,,,,,,,,,,,,,,,,,,,
,,5eece6c66db5540c7b43648d,2024-02-21_21h28.08.027,kallum_motion_pilot,2023.2.2,Win32,163.9344262,5eece6c66db5540c7b43648d,65d6bb0e977760de756971f7,65d6bf33bcd697ef2196c036,0.0261,0.0262,1,20,182,31,1,fourthree,,,,,,,,,,,,,,,,,,,,,,,,,,,,,,,,,,,,,,,,,,,,,,,,,,,,,,,,,,,,,,,,,,,,,,,,,,,,,,,,,,,,,,,,,,,,,,,,,,,,,,,,,,,,,,,,,,,,,,,,,,,,,,,,,,,,,,,,,
,,5eece6c66db5540c7b43648d,2024-02-21_21h28.08.027,kallum_motion_pilot,2023.2.2,Win32,163.9344262,5eece6c66db5540c7b43648d,65d6bb0e977760de756971f7,65d6bf33bcd697ef2196c036,0.0262,0.0263,1,21,183,159,1,eightseven,,,,,,,,,,,,,,,,,,,,,,,,,,,,,,,,,,,,,,,,,,,,,,,,,,,,,,,,,,,,,,,,,,,,,,,,,,,,,,,,,,,,,,,,,,,,,,,,,,,,,,,,,,,,,,,,,,,,,,,,,,,,,,,,,,,,,,,,,
,,5eece6c66db5540c7b43648d,2024-02-21_21h28.08.027,kallum_motion_pilot,2023.2.2,Win32,163.9344262,5eece6c66db5540c7b43648d,65d6bb0e977760de756971f7,65d6bf33bcd697ef2196c036,0.0263,0.0263,1,22,184,128,1,fivesix,,,,,,,,,,,,,,,,,,,,,,,,,,,,,,,,,,,,,,,,,,,,,,,,,,,,,,,,,,,,,,,,,,,,,,,,,,,,,,,,,,,,,,,,,,,,,,,,,,,,,,,,,,,,,,,,,,,,,,,,,,,,,,,,,,,,,,,,,
,,5eece6c66db5540c7b43648d,2024-02-21_21h28.08.027,kallum_motion_pilot,2023.2.2,Win32,163.9344262,5eece6c66db5540c7b43648d,65d6bb0e977760de756971f7,65d6bf33bcd697ef2196c036,0.0263,0.0263,1,23,185,47,1,fourthree,,,,,,,,,,,,,,,,,,,,,,,,,,,,,,,,,,,,,,,,,,,,,,,,,,,,,,,,,,,,,,,,,,,,,,,,,,,,,,,,,,,,,,,,,,,,,,,,,,,,,,,,,,,,,,,,,,,,,,,,,,,,,,,,,,,,,,,,,
,,5eece6c66db5540c7b43648d,2024-02-21_21h28.08.027,kallum_motion_pilot,2023.2.2,Win32,163.9344262,5eece6c66db5540c7b43648d,65d6bb0e977760de756971f7,65d6bf33bcd697ef2196c036,0.0264,0.0265,1,24,186,143,1,eightseven,,,,,,,,,,,,,,,,,,,,,,,,,,,,,,,,,,,,,,,,,,,,,,,,,,,,,,,,,,,,,,,,,,,,,,,,,,,,,,,,,,,,,,,,,,,,,,,,,,,,,,,,,,,,,,,,,,,,,,,,,,,,,,,,,,,,,,,,,
,,5eece6c66db5540c7b43648d,2024-02-21_21h28.08.027,kallum_motion_pilot,2023.2.2,Win32,163.9344262,5eece6c66db5540c7b43648d,65d6bb0e977760de756971f7,65d6bf33bcd697ef2196c036,0.0265,0.0266,1,25,187,45,1,threefour,,,,,,,,,,,,,,,,,,,,,,,,,,,,,,,,,,,,,,,,,,,,,,,,,,,,,,,,,,,,,,,,,,,,,,,,,,,,,,,,,,,,,,,,,,,,,,,,,,,,,,,,,,,,,,,,,,,,,,,,,,,,,,,,,,,,,,,,,
,,5eece6c66db5540c7b43648d,2024-02-21_21h28.08.027,kallum_motion_pilot,2023.2.2,Win32,163.9344262,5eece6c66db5540c7b43648d,65d6bb0e977760de756971f7,65d6bf33bcd697ef2196c036,0.0266,0.0266,1,26,188,145,1,fiveseven,,,,,,,,,,,,,,,,,,,,,,,,,,,,,,,,,,,,,,,,,,,,,,,,,,,,,,,,,,,,,,,,,,,,,,,,,,,,,,,,,,,,,,,,,,,,,,,,,,,,,,,,,,,,,,,,,,,,,,,,,,,,,,,,,,,,,,,,,
,,5eece6c66db5540c7b43648d,2024-02-21_21h28.08.027,kallum_motion_pilot,2023.2.2,Win32,163.9344262,5eece6c66db5540c7b43648d,65d6bb0e977760de756971f7,65d6bf33bcd697ef2196c036,0.0266,0.0266,1,27,189,138,1,sixfive,,,,,,,,,,,,,,,,,,,,,,,,,,,,,,,,,,,,,,,,,,,,,,,,,,,,,,,,,,,,,,,,,,,,,,,,,,,,,,,,,,,,,,,,,,,,,,,,,,,,,,,,,,,,,,,,,,,,,,,,,,,,,,,,,,,,,,,,,
,,5eece6c66db5540c7b43648d,2024-02-21_21h28.08.027,kallum_motion_pilot,2023.2.2,Win32,163.9344262,5eece6c66db5540c7b43648d,65d6bb0e977760de756971f7,65d6bf33bcd697ef2196c036,0.0267,0.0267,1,28,190,68,1,threeone,,,,,,,,,,,,,,,,,,,,,,,,,,,,,,,,,,,,,,,,,,,,,,,,,,,,,,,,,,,,,,,,,,,,,,,,,,,,,,,,,,,,,,,,,,,,,,,,,,,,,,,,,,,,,,,,,,,,,,,,,,,,,,,,,,,,,,,,,
,,5eece6c66db5540c7b43648d,2024-02-21_21h28.08.027,kallum_motion_pilot,2023.2.2,Win32,163.9344262,5eece6c66db5540c7b43648d,65d6bb0e977760de756971f7,65d6bf33bcd697ef2196c036,0.0267,0.0268,1,29,191,1,1,onethree,,,,,,,,,,,,,,,,,,,,,,,,,,,,,,,,,,,,,,,,,,,,,,,,,,,,,,,,,,,,,,,,,,,,,,,,,,,,,,,,,,,,,,,,,,,,,,,,,,,,,,,,,,,,,,,,,,,,,,,,,,,,,,,,,,,,,,,,,
,,5eece6c66db5540c7b43648d,2024-02-21_21h28.08.027,kallum_motion_pilot,2023.2.2,Win32,163.9344262,5eece6c66db5540c7b43648d,65d6bb0e977760de756971f7,65d6bf33bcd697ef2196c036,0.0268,0.0269,1,30,192,22,1,fourtwo,,,,,,,,,,,,,,,,,,,,,,,,,,,,,,,,,,,,,,,,,,,,,,,,,,,,,,,,,,,,,,,,,,,,,,,,,,,,,,,,,,,,,,,,,,,,,,,,,,,,,,,,,,,,,,,,,,,,,,,,,,,,,,,,,,,,,,,,,
,,5eece6c66db5540c7b43648d,2024-02-21_21h28.08.027,kallum_motion_pilot,2023.2.2,Win32,163.9344262,5eece6c66db5540c7b43648d,65d6bb0e977760de756971f7,65d6bf33bcd697ef2196c036,0.0269,0.0269,1,31,193,123,1,sixeight,,,,,,,,,,,,,,,,,,,,,,,,,,,,,,,,,,,,,,,,,,,,,,,,,,,,,,,,,,,,,,,,,,,,,,,,,,,,,,,,,,,,,,,,,,,,,,,,,,,,,,,,,,,,,,,,,,,,,,,,,,,,,,,,,,,,,,,,,
,,5eece6c66db5540c7b43648d,2024-02-21_21h28.08.027,kallum_motion_pilot,2023.2.2,Win32,163.9344262,5eece6c66db5540c7b43648d,65d6bb0e977760de756971f7,65d6bf33bcd697ef2196c036,0.027,0.027,1,32,194,51,1,twofour,,,,,,,,,,,,,,,,,,,,,,,,,,,,,,,,,,,,,,,,,,,,,,,,,,,,,,,,,,,,,,,,,,,,,,,,,,,,,,,,,,,,,,,,,,,,,,,,,,,,,,,,,,,,,,,,,,,,,,,,,,,,,,,,,,,,,,,,,
,,5eece6c66db5540c7b43648d,2024-02-21_21h28.08.027,kallum_motion_pilot,2023.2.2,Win32,163.9344262,5eece6c66db5540c7b43648d,65d6bb0e977760de756971f7,65d6bf33bcd697ef2196c036,0.0271,0.0271,1,33,195,46,1,fourtwo,,,,,,,,,,,,,,,,,,,,,,,,,,,,,,,,,,,,,,,,,,,,,,,,,,,,,,,,,,,,,,,,,,,,,,,,,,,,,,,,,,,,,,,,,,,,,,,,,,,,,,,,,,,,,,,,,,,,,,,,,,,,,,,,,,,,,,,,,
,,5eece6c66db5540c7b43648d,2024-02-21_21h28.08.027,kallum_motion_pilot,2023.2.2,Win32,163.9344262,5eece6c66db5540c7b43648d,65d6bb0e977760de756971f7,65d6bf33bcd697ef2196c036,0.0271,0.0271,1,34,196,70,1,fourtwo,,,,,,,,,,,,,,,,,,,,,,,,,,,,,,,,,,,,,,,,,,,,,,,,,,,,,,,,,,,,,,,,,,,,,,,,,,,,,,,,,,,,,,,,,,,,,,,,,,,,,,,,,,,,,,,,,,,,,,,,,,,,,,,,,,,,,,,,,
,,5eece6c66db5540c7b43648d,2024-02-21_21h28.08.027,kallum_motion_pilot,2023.2.2,Win32,163.9344262,5eece6c66db5540c7b43648d,65d6bb0e977760de756971f7,65d6bf33bcd697ef2196c036,0.0272,0.0273,1,35,197,42,1,twoone,,,,,,,,,,,,,,,,,,,,,,,,,,,,,,,,,,,,,,,,,,,,,,,,,,,,,,,,,,,,,,,,,,,,,,,,,,,,,,,,,,,,,,,,,,,,,,,,,,,,,,,,,,,,,,,,,,,,,,,,,,,,,,,,,,,,,,,,,
,,5eece6c66db5540c7b43648d,2024-02-21_21h28.08.027,kallum_motion_pilot,2023.2.2,Win32,163.9344262,5eece6c66db5540c7b43648d,65d6bb0e977760de756971f7,65d6bf33bcd697ef2196c036,0.0273,0.0273,1,36,198,7,1,fourthree,,,,,,,,,,,,,,,,,,,,,,,,,,,,,,,,,,,,,,,,,,,,,,,,,,,,,,,,,,,,,,,,,,,,,,,,,,,,,,,,,,,,,,,,,,,,,,,,,,,,,,,,,,,,,,,,,,,,,,,,,,,,,,,,,,,,,,,,,
,,5eece6c66db5540c7b43648d,2024-02-21_21h28.08.027,kallum_motion_pilot,2023.2.2,Win32,163.9344262,5eece6c66db5540c7b43648d,65d6bb0e977760de756971f7,65d6bf33bcd697ef2196c036,0.0274,0.0274,1,37,199,149,1,seveneight,,,,,,,,,,,,,,,,,,,,,,,,,,,,,,,,,,,,,,,,,,,,,,,,,,,,,,,,,,,,,,,,,,,,,,,,,,,,,,,,,,,,,,,,,,,,,,,,,,,,,,,,,,,,,,,,,,,,,,,,,,,,,,,,,,,,,,,,,
,,5eece6c66db5540c7b43648d,2024-02-21_21h28.08.027,kallum_motion_pilot,2023.2.2,Win32,163.9344262,5eece6c66db5540c7b43648d,65d6bb0e977760de756971f7,65d6bf33bcd697ef2196c036,0.0274,0.0274,1,38,200,8,1,onetwo,,,,,,,,,,,,,,,,,,,,,,,,,,,,,,,,,,,,,,,,,,,,,,,,,,,,,,,,,,,,,,,,,,,,,,,,,,,,,,,,,,,,,,,,,,,,,,,,,,,,,,,,,,,,,,,,,,,,,,,,,,,,,,,,,,,,,,,,,
,,5eece6c66db5540c7b43648d,2024-02-21_21h28.08.027,kallum_motion_pilot,2023.2.2,Win32,163.9344262,5eece6c66db5540c7b43648d,65d6bb0e977760de756971f7,65d6bf33bcd697ef2196c036,0.0274,0.0275,1,39,201,117,1,seveneight,,,,,,,,,,,,,,,,,,,,,,,,,,,,,,,,,,,,,,,,,,,,,,,,,,,,,,,,,,,,,,,,,,,,,,,,,,,,,,,,,,,,,,,,,,,,,,,,,,,,,,,,,,,,,,,,,,,,,,,,,,,,,,,,,,,,,,,,,
,,5eece6c66db5540c7b43648d,2024-02-21_21h28.08.027,kallum_motion_pilot,2023.2.2,Win32,163.9344262,5eece6c66db5540c7b43648d,65d6bb0e977760de756971f7,65d6bf33bcd697ef2196c036,0.0275,0.0276,1,40,202,144,1,fivesix,,,,,,,,,,,,,,,,,,,,,,,,,,,,,,,,,,,,,,,,,,,,,,,,,,,,,,,,,,,,,,,,,,,,,,,,,,,,,,,,,,,,,,,,,,,,,,,,,,,,,,,,,,,,,,,,,,,,,,,,,,,,,,,,,,,,,,,,,
,,5eece6c66db5540c7b43648d,2024-02-21_21h28.08.027,kallum_motion_pilot,2023.2.2,Win32,163.9344262,5eece6c66db5540c7b43648d,65d6bb0e977760de756971f7,65d6bf33bcd697ef2196c036,0.0276,0.0276,1,41,203,103,1,eightseven,,,,,,,,,,,,,,,,,,,,,,,,,,,,,,,,,,,,,,,,,,,,,,,,,,,,,,,,,,,,,,,,,,,,,,,,,,,,,,,,,,,,,,,,,,,,,,,,,,,,,,,,,,,,,,,,,,,,,,,,,,,,,,,,,,,,,,,,,
,,5eece6c66db5540c7b43648d,2024-02-21_21h28.08.027,kallum_motion_pilot,2023.2.2,Win32,163.9344262,5eece6c66db5540c7b43648d,65d6bb0e977760de756971f7,65d6bf33bcd697ef2196c036,0.0277,0.0277,1,42,204,124,1,sevenfive,,,,,,,,,,,,,,,,,,,,,,,,,,,,,,,,,,,,,,,,,,,,,,,,,,,,,,,,,,,,,,,,,,,,,,,,,,,,,,,,,,,,,,,,,,,,,,,,,,,,,,,,,,,,,,,,,,,,,,,,,,,,,,,,,,,,,,,,,
,,5eece6c66db5540c7b43648d,2024-02-21_21h28.08.027,kallum_motion_pilot,2023.2.2,Win32,163.9344262,5eece6c66db5540c7b43648d,65d6bb0e977760de756971f7,65d6bf33bcd697ef2196c036,0.0278,0.0278,1,43,205,56,1,onetwo,,,,,,,,,,,,,,,,,,,,,,,,,,,,,,,,,,,,,,,,,,,,,,,,,,,,,,,,,,,,,,,,,,,,,,,,,,,,,,,,,,,,,,,,,,,,,,,,,,,,,,,,,,,,,,,,,,,,,,,,,,,,,,,,,,,,,,,,,
,,5eece6c66db5540c7b43648d,2024-02-21_21h28.08.027,kallum_motion_pilot,2023.2.2,Win32,163.9344262,5eece6c66db5540c7b43648d,65d6bb0e977760de756971f7,65d6bf33bcd697ef2196c036,0.0278,0.0278,1,44,206,50,1,twoone,,,,,,,,,,,,,,,,,,,,,,,,,,,,,,,,,,,,,,,,,,,,,,,,,,,,,,,,,,,,,,,,,,,,,,,,,,,,,,,,,,,,,,,,,,,,,,,,,,,,,,,,,,,,,,,,,,,,,,,,,,,,,,,,,,,,,,,,,
,,5eece6c66db5540c7b43648d,2024-02-21_21h28.08.027,kallum_motion_pilot,2023.2.2,Win32,163.9344262,5eece6c66db5540c7b43648d,65d6bb0e977760de756971f7,65d6bf33bcd697ef2196c036,0.0279,0.028,1,45,207,66,1,twoone,,,,,,,,,,,,,,,,,,,,,,,,,,,,,,,,,,,,,,,,,,,,,,,,,,,,,,,,,,,,,,,,,,,,,,,,,,,,,,,,,,,,,,,,,,,,,,,,,,,,,,,,,,,,,,,,,,,,,,,,,,,,,,,,,,,,,,,,,
,,5eece6c66db5540c7b43648d,2024-02-21_21h28.08.027,kallum_motion_pilot,2023.2.2,Win32,163.9344262,5eece6c66db5540c7b43648d,65d6bb0e977760de756971f7,65d6bf33bcd697ef2196c036,0.028,0.028,1,46,208,127,1,eightseven,,,,,,,,,,,,,,,,,,,,,,,,,,,,,,,,,,,,,,,,,,,,,,,,,,,,,,,,,,,,,,,,,,,,,,,,,,,,,,,,,,,,,,,,,,,,,,,,,,,,,,,,,,,,,,,,,,,,,,,,,,,,,,,,,,,,,,,,,
,,5eece6c66db5540c7b43648d,2024-02-21_21h28.08.027,kallum_motion_pilot,2023.2.2,Win32,163.9344262,5eece6c66db5540c7b43648d,65d6bb0e977760de756971f7,65d6bf33bcd697ef2196c036,0.028,0.0281,1,47,209,77,1,threefour,,,,,,,,,,,,,,,,,,,,,,,,,,,,,,,,,,,,,,,,,,,,,,,,,,,,,,,,,,,,,,,,,,,,,,,,,,,,,,,,,,,,,,,,,,,,,,,,,,,,,,,,,,,,,,,,,,,,,,,,,,,,,,,,,,,,,,,,,
,,5eece6c66db5540c7b43648d,2024-02-21_21h28.08.027,kallum_motion_pilot,2023.2.2,Win32,163.9344262,5eece6c66db5540c7b43648d,65d6bb0e977760de756971f7,65d6bf33bcd697ef2196c036,0.0281,0.0282,1,48,210,54,1,fourtwo,,,,,,,,,,,,,,,,,,,,,,,,,,,,,,,,,,,,,,,,,,,,,,,,,,,,,,,,,,,,,,,,,,,,,,,,,,,,,,,,,,,,,,,,,,,,,,,,,,,,,,,,,,,,,,,,,,,,,,,,,,,,,,,,,,,,,,,,,
,,5eece6c66db5540c7b43648d,2024-02-21_21h28.08.027,kallum_motion_pilot,2023.2.2,Win32,163.9344262,5eece6c66db5540c7b43648d,65d6bb0e977760de756971f7,65d6bf33bcd697ef2196c036,0.0282,0.0283,1,49,211,39,1,fourthree,,,,,,,,,,,,,,,,,,,,,,,,,,,,,,,,,,,,,,,,,,,,,,,,,,,,,,,,,,,,,,,,,,,,,,,,,,,,,,,,,,,,,,,,,,,,,,,,,,,,,,,,,,,,,,,,,,,,,,,,,,,,,,,,,,,,,,,,,
,,5eece6c66db5540c7b43648d,2024-02-21_21h28.08.027,kallum_motion_pilot,2023.2.2,Win32,163.9344262,5eece6c66db5540c7b43648d,65d6bb0e977760de756971f7,65d6bf33bcd697ef2196c036,0.0283,0.0283,1,50,212,90,1,sixfive,,,,,,,,,,,,,,,,,,,,,,,,,,,,,,,,,,,,,,,,,,,,,,,,,,,,,,,,,,,,,,,,,,,,,,,,,,,,,,,,,,,,,,,,,,,,,,,,,,,,,,,,,,,,,,,,,,,,,,,,,,,,,,,,,,,,,,,,,
,,5eece6c66db5540c7b43648d,2024-02-21_21h28.08.027,kallum_motion_pilot,2023.2.2,Win32,163.9344262,5eece6c66db5540c7b43648d,65d6bb0e977760de756971f7,65d6bf33bcd697ef2196c036,0.0283,0.0283,1,51,213,25,1,onethree,,,,,,,,,,,,,,,,,,,,,,,,,,,,,,,,,,,,,,,,,,,,,,,,,,,,,,,,,,,,,,,,,,,,,,,,,,,,,,,,,,,,,,,,,,,,,,,,,,,,,,,,,,,,,,,,,,,,,,,,,,,,,,,,,,,,,,,,,
,,5eece6c66db5540c7b43648d,2024-02-21_21h28.08.027,kallum_motion_pilot,2023.2.2,Win32,163.9344262,5eece6c66db5540c7b43648d,65d6bb0e977760de756971f7,65d6bf33bcd697ef2196c036,0.0283,0.0285,1,52,214,80,1,fivesix,,,,,,,,,,,,,,,,,,,,,,,,,,,,,,,,,,,,,,,,,,,,,,,,,,,,,,,,,,,,,,,,,,,,,,,,,,,,,,,,,,,,,,,,,,,,,,,,,,,,,,,,,,,,,,,,,,,,,,,,,,,,,,,,,,,,,,,,,
,,5eece6c66db5540c7b43648d,2024-02-21_21h28.08.027,kallum_motion_pilot,2023.2.2,Win32,163.9344262,5eece6c66db5540c7b43648d,65d6bb0e977760de756971f7,65d6bf33bcd697ef2196c036,0.0285,0.0285,1,53,215,30,1,fourtwo,,,,,,,,,,,,,,,,,,,,,,,,,,,,,,,,,,,,,,,,,,,,,,,,,,,,,,,,,,,,,,,,,,,,,,,,,,,,,,,,,,,,,,,,,,,,,,,,,,,,,,,,,,,,,,,,,,,,,,,,,,,,,,,,,,,,,,,,,
,,5eece6c66db5540c7b43648d,2024-02-21_21h28.08.027,kallum_motion_pilot,2023.2.2,Win32,163.9344262,5eece6c66db5540c7b43648d,65d6bb0e977760de756971f7,65d6bf33bcd697ef2196c036,0.0286,0.0286,1,54,216,160,1,fivesix,,,,,,,,,,,,,,,,,,,,,,,,,,,,,,,,,,,,,,,,,,,,,,,,,,,,,,,,,,,,,,,,,,,,,,,,,,,,,,,,,,,,,,,,,,,,,,,,,,,,,,,,,,,,,,,,,,,,,,,,,,,,,,,,,,,,,,,,,
,,5eece6c66db5540c7b43648d,2024-02-21_21h28.08.027,kallum_motion_pilot,2023.2.2,Win32,163.9344262,5eece6c66db5540c7b43648d,65d6bb0e977760de756971f7,65d6bf33bcd697ef2196c036,0.0286,0.0286,1,55,217,74,1,twoone,,,,,,,,,,,,,,,,,,,,,,,,,,,,,,,,,,,,,,,,,,,,,,,,,,,,,,,,,,,,,,,,,,,,,,,,,,,,,,,,,,,,,,,,,,,,,,,,,,,,,,,,,,,,,,,,,,,,,,,,,,,,,,,,,,,,,,,,,
,,5eece6c66db5540c7b43648d,2024-02-21_21h28.08.027,kallum_motion_pilot,2023.2.2,Win32,163.9344262,5eece6c66db5540c7b43648d,65d6bb0e977760de756971f7,65d6bf33bcd697ef2196c036,0.0286,0.0287,1,56,218,96,1,fivesix,,,,,,,,,,,,,,,,,,,,,,,,,,,,,,,,,,,,,,,,,,,,,,,,,,,,,,,,,,,,,,,,,,,,,,,,,,,,,,,,,,,,,,,,,,,,,,,,,,,,,,,,,,,,,,,,,,,,,,,,,,,,,,,,,,,,,,,,,
,,5eece6c66db5540c7b43648d,2024-02-21_21h28.08.027,kallum_motion_pilot,2023.2.2,Win32,163.9344262,5eece6c66db5540c7b43648d,65d6bb0e977760de756971f7,65d6bf33bcd697ef2196c036,0.0287,0.0288,1,57,219,104,1,fivesix,,,,,,,,,,,,,,,,,,,,,,,,,,,,,,,,,,,,,,,,,,,,,,,,,,,,,,,,,,,,,,,,,,,,,,,,,,,,,,,,,,,,,,,,,,,,,,,,,,,,,,,,,,,,,,,,,,,,,,,,,,,,,,,,,,,,,,,,,
,,5eece6c66db5540c7b43648d,2024-02-21_21h28.08.027,kallum_motion_pilot,2023.2.2,Win32,163.9344262,5eece6c66db5540c7b43648d,65d6bb0e977760de756971f7,65d6bf33bcd697ef2196c036,0.0288,0.0288,1,58,220,44,1,threeone,,,,,,,,,,,,,,,,,,,,,,,,,,,,,,,,,,,,,,,,,,,,,,,,,,,,,,,,,,,,,,,,,,,,,,,,,,,,,,,,,,,,,,,,,,,,,,,,,,,,,,,,,,,,,,,,,,,,,,,,,,,,,,,,,,,,,,,,,
,,5eece6c66db5540c7b43648d,2024-02-21_21h28.08.027,kallum_motion_pilot,2023.2.2,Win32,163.9344262,5eece6c66db5540c7b43648d,65d6bb0e977760de756971f7,65d6bf33bcd697ef2196c036,0.0289,0.0289,1,59,221,157,1,seveneight,,,,,,,,,,,,,,,,,,,,,,,,,,,,,,,,,,,,,,,,,,,,,,,,,,,,,,,,,,,,,,,,,,,,,,,,,,,,,,,,,,,,,,,,,,,,,,,,,,,,,,,,,,,,,,,,,,,,,,,,,,,,,,,,,,,,,,,,,
,,5eece6c66db5540c7b43648d,2024-02-21_21h28.08.027,kallum_motion_pilot,2023.2.2,Win32,163.9344262,5eece6c66db5540c7b43648d,65d6bb0e977760de756971f7,65d6bf33bcd697ef2196c036,0.029,0.029,1,60,222,82,1,sixfive,,,,,,,,,,,,,,,,,,,,,,,,,,,,,,,,,,,,,,,,,,,,,,,,,,,,,,,,,,,,,,,,,,,,,,,,,,,,,,,,,,,,,,,,,,,,,,,,,,,,,,,,,,,,,,,,,,,,,,,,,,,,,,,,,,,,,,,,,
,,5eece6c66db5540c7b43648d,2024-02-21_21h28.08.027,kallum_motion_pilot,2023.2.2,Win32,163.9344262,5eece6c66db5540c7b43648d,65d6bb0e977760de756971f7,65d6bf33bcd697ef2196c036,0.0291,0.0291,1,61,223,9,1,onethree,,,,,,,,,,,,,,,,,,,,,,,,,,,,,,,,,,,,,,,,,,,,,,,,,,,,,,,,,,,,,,,,,,,,,,,,,,,,,,,,,,,,,,,,,,,,,,,,,,,,,,,,,,,,,,,,,,,,,,,,,,,,,,,,,,,,,,,,,
,,5eece6c66db5540c7b43648d,2024-02-21_21h28.08.027,kallum_motion_pilot,2023.2.2,Win32,163.9344262,5eece6c66db5540c7b43648d,65d6bb0e977760de756971f7,65d6bf33bcd697ef2196c036,0.0291,0.0291,1,62,224,97,1,fiveseven,,,,,,,,,,,,,,,,,,,,,,,,,,,,,,,,,,,,,,,,,,,,,,,,,,,,,,,,,,,,,,,,,,,,,,,,,,,,,,,,,,,,,,,,,,,,,,,,,,,,,,,,,,,,,,,,,,,,,,,,,,,,,,,,,,,,,,,,,
,,5eece6c66db5540c7b43648d,2024-02-21_21h28.08.027,kallum_motion_pilot,2023.2.2,Win32,163.9344262,5eece6c66db5540c7b43648d,65d6bb0e977760de756971f7,65d6bf33bcd697ef2196c036,0.0291,0.0293,1,63,225,151,1,eightseven,,,,,,,,,,,,,,,,,,,,,,,,,,,,,,,,,,,,,,,,,,,,,,,,,,,,,,,,,,,,,,,,,,,,,,,,,,,,,,,,,,,,,,,,,,,,,,,,,,,,,,,,,,,,,,,,,,,,,,,,,,,,,,,,,,,,,,,,,
,,5eece6c66db5540c7b43648d,2024-02-21_21h28.08.027,kallum_motion_pilot,2023.2.2,Win32,163.9344262,5eece6c66db5540c7b43648d,65d6bb0e977760de756971f7,65d6bf33bcd697ef2196c036,0.0293,0.0293,1,64,226,23,1,fourthree,,,,,,,,,,,,,,,,,,,,,,,,,,,,,,,,,,,,,,,,,,,,,,,,,,,,,,,,,,,,,,,,,,,,,,,,,,,,,,,,,,,,,,,,,,,,,,,,,,,,,,,,,,,,,,,,,,,,,,,,,,,,,,,,,,,,,,,,,
,,5eece6c66db5540c7b43648d,2024-02-21_21h28.08.027,kallum_motion_pilot,2023.2.2,Win32,163.9344262,5eece6c66db5540c7b43648d,65d6bb0e977760de756971f7,65d6bf33bcd697ef2196c036,0.0293,0.0293,1,65,227,71,1,fourthree,,,,,,,,,,,,,,,,,,,,,,,,,,,,,,,,,,,,,,,,,,,,,,,,,,,,,,,,,,,,,,,,,,,,,,,,,,,,,,,,,,,,,,,,,,,,,,,,,,,,,,,,,,,,,,,,,,,,,,,,,,,,,,,,,,,,,,,,,
,,5eece6c66db5540c7b43648d,2024-02-21_21h28.08.027,kallum_motion_pilot,2023.2.2,Win32,163.9344262,5eece6c66db5540c7b43648d,65d6bb0e977760de756971f7,65d6bf33bcd697ef2196c036,0.0294,0.0294,1,66,228,53,1,threefour,,,,,,,,,,,,,,,,,,,,,,,,,,,,,,,,,,,,,,,,,,,,,,,,,,,,,,,,,,,,,,,,,,,,,,,,,,,,,,,,,,,,,,,,,,,,,,,,,,,,,,,,,,,,,,,,,,,,,,,,,,,,,,,,,,,,,,,,,
,,5eece6c66db5540c7b43648d,2024-02-21_21h28.08.027,kallum_motion_pilot,2023.2.2,Win32,163.9344262,5eece6c66db5540c7b43648d,65d6bb0e977760de756971f7,65d6bf33bcd697ef2196c036,0.0295,0.0295,1,67,229,154,1,sixfive,,,,,,,,,,,,,,,,,,,,,,,,,,,,,,,,,,,,,,,,,,,,,,,,,,,,,,,,,,,,,,,,,,,,,,,,,,,,,,,,,,,,,,,,,,,,,,,,,,,,,,,,,,,,,,,,,,,,,,,,,,,,,,,,,,,,,,,,,
,,5eece6c66db5540c7b43648d,2024-02-21_21h28.08.027,kallum_motion_pilot,2023.2.2,Win32,163.9344262,5eece6c66db5540c7b43648d,65d6bb0e977760de756971f7,65d6bf33bcd697ef2196c036,0.0295,0.0296,1,68,230,122,1,sixfive,,,,,,,,,,,,,,,,,,,,,,,,,,,,,,,,,,,,,,,,,,,,,,,,,,,,,,,,,,,,,,,,,,,,,,,,,,,,,,,,,,,,,,,,,,,,,,,,,,,,,,,,,,,,,,,,,,,,,,,,,,,,,,,,,,,,,,,,,
,,5eece6c66db5540c7b43648d,2024-02-21_21h28.08.027,kallum_motion_pilot,2023.2.2,Win32,163.9344262,5eece6c66db5540c7b43648d,65d6bb0e977760de756971f7,65d6bf33bcd697ef2196c036,0.0296,0.0296,1,69,231,27,1,twofour,,,,,,,,,,,,,,,,,,,,,,,,,,,,,,,,,,,,,,,,,,,,,,,,,,,,,,,,,,,,,,,,,,,,,,,,,,,,,,,,,,,,,,,,,,,,,,,,,,,,,,,,,,,,,,,,,,,,,,,,,,,,,,,,,,,,,,,,,
,,5eece6c66db5540c7b43648d,2024-02-21_21h28.08.027,kallum_motion_pilot,2023.2.2,Win32,163.9344262,5eece6c66db5540c7b43648d,65d6bb0e977760de756971f7,65d6bf33bcd697ef2196c036,0.0297,0.0298,1,70,232,63,1,fourthree,,,,,,,,,,,,,,,,,,,,,,,,,,,,,,,,,,,,,,,,,,,,,,,,,,,,,,,,,,,,,,,,,,,,,,,,,,,,,,,,,,,,,,,,,,,,,,,,,,,,,,,,,,,,,,,,,,,,,,,,,,,,,,,,,,,,,,,,,
,,5eece6c66db5540c7b43648d,2024-02-21_21h28.08.027,kallum_motion_pilot,2023.2.2,Win32,163.9344262,5eece6c66db5540c7b43648d,65d6bb0e977760de756971f7,65d6bf33bcd697ef2196c036,0.0298,0.0298,1,71,233,147,1,sixeight,,,,,,,,,,,,,,,,,,,,,,,,,,,,,,,,,,,,,,,,,,,,,,,,,,,,,,,,,,,,,,,,,,,,,,,,,,,,,,,,,,,,,,,,,,,,,,,,,,,,,,,,,,,,,,,,,,,,,,,,,,,,,,,,,,,,,,,,,
,,5eece6c66db5540c7b43648d,2024-02-21_21h28.08.027,kallum_motion_pilot,2023.2.2,Win32,163.9344262,5eece6c66db5540c7b43648d,65d6bb0e977760de756971f7,65d6bf33bcd697ef2196c036,0.0299,0.0299,1,72,234,69,1,threefour,,,,,,,,,,,,,,,,,,,,,,,,,,,,,,,,,,,,,,,,,,,,,,,,,,,,,,,,,,,,,,,,,,,,,,,,,,,,,,,,,,,,,,,,,,,,,,,,,,,,,,,,,,,,,,,,,,,,,,,,,,,,,,,,,,,,,,,,,
,,5eece6c66db5540c7b43648d,2024-02-21_21h28.08.027,kallum_motion_pilot,2023.2.2,Win32,163.9344262,5eece6c66db5540c7b43648d,65d6bb0e977760de756971f7,65d6bf33bcd697ef2196c036,0.0299,0.03,1,73,235,112,1,fivesix,,,,,,,,,,,,,,,,,,,,,,,,,,,,,,,,,,,,,,,,,,,,,,,,,,,,,,,,,,,,,,,,,,,,,,,,,,,,,,,,,,,,,,,,,,,,,,,,,,,,,,,,,,,,,,,,,,,,,,,,,,,,,,,,,,,,,,,,,
,,5eece6c66db5540c7b43648d,2024-02-21_21h28.08.027,kallum_motion_pilot,2023.2.2,Win32,163.9344262,5eece6c66db5540c7b43648d,65d6bb0e977760de756971f7,65d6bf33bcd697ef2196c036,0.0301,0.0301,1,74,236,29,1,threefour,,,,,,,,,,,,,,,,,,,,,,,,,,,,,,,,,,,,,,,,,,,,,,,,,,,,,,,,,,,,,,,,,,,,,,,,,,,,,,,,,,,,,,,,,,,,,,,,,,,,,,,,,,,,,,,,,,,,,,,,,,,,,,,,,,,,,,,,,
,,5eece6c66db5540c7b43648d,2024-02-21_21h28.08.027,kallum_motion_pilot,2023.2.2,Win32,163.9344262,5eece6c66db5540c7b43648d,65d6bb0e977760de756971f7,65d6bf33bcd697ef2196c036,0.0301,0.0302,1,75,237,101,1,seveneight,,,,,,,,,,,,,,,,,,,,,,,,,,,,,,,,,,,,,,,,,,,,,,,,,,,,,,,,,,,,,,,,,,,,,,,,,,,,,,,,,,,,,,,,,,,,,,,,,,,,,,,,,,,,,,,,,,,,,,,,,,,,,,,,,,,,,,,,,
,,5eece6c66db5540c7b43648d,2024-02-21_21h28.08.027,kallum_motion_pilot,2023.2.2,Win32,163.9344262,5eece6c66db5540c7b43648d,65d6bb0e977760de756971f7,65d6bf33bcd697ef2196c036,0.0302,0.0302,1,76,238,13,1,threefour,,,,,,,,,,,,,,,,,,,,,,,,,,,,,,,,,,,,,,,,,,,,,,,,,,,,,,,,,,,,,,,,,,,,,,,,,,,,,,,,,,,,,,,,,,,,,,,,,,,,,,,,,,,,,,,,,,,,,,,,,,,,,,,,,,,,,,,,,
,,5eece6c66db5540c7b43648d,2024-02-21_21h28.08.027,kallum_motion_pilot,2023.2.2,Win32,163.9344262,5eece6c66db5540c7b43648d,65d6bb0e977760de756971f7,65d6bf33bcd697ef2196c036,0.0303,0.0304,1,77,239,17,1,onethree,,,,,,,,,,,,,,,,,,,,,,,,,,,,,,,,,,,,,,,,,,,,,,,,,,,,,,,,,,,,,,,,,,,,,,,,,,,,,,,,,,,,,,,,,,,,,,,,,,,,,,,,,,,,,,,,,,,,,,,,,,,,,,,,,,,,,,,,,
,,5eece6c66db5540c7b43648d,2024-02-21_21h28.08.027,kallum_motion_pilot,2023.2.2,Win32,163.9344262,5eece6c66db5540c7b43648d,65d6bb0e977760de756971f7,65d6bf33bcd697ef2196c036,0.0304,0.0304,1,78,240,125,1,seveneight,,,,,,,,,,,,,,,,,,,,,,,,,,,,,,,,,,,,,,,,,,,,,,,,,,,,,,,,,,,,,,,,,,,,,,,,,,,,,,,,,,,,,,,,,,,,,,,,,,,,,,,,,,,,,,,,,,,,,,,,,,,,,,,,,,,,,,,,,
,,5eece6c66db5540c7b43648d,2024-02-21_21h28.08.027,kallum_motion_pilot,2023.2.2,Win32,163.9344262,5eece6c66db5540c7b43648d,65d6bb0e977760de756971f7,65d6bf33bcd697ef2196c036,0.0305,0.0305,1,79,241,94,1,eightsix,,,,,,,,,,,,,,,,,,,,,,,,,,,,,,,,,,,,,,,,,,,,,,,,,,,,,,,,,,,,,,,,,,,,,,,,,,,,,,,,,,,,,,,,,,,,,,,,,,,,,,,,,,,,,,,,,,,,,,,,,,,,,,,,,,,,,,,,,
,,5eece6c66db5540c7b43648d,2024-02-21_21h28.08.027,kallum_motion_pilot,2023.2.2,Win32,163.9344262,5eece6c66db5540c7b43648d,65d6bb0e977760de756971f7,65d6bf33bcd697ef2196c036,0.0306,0.0306,1,80,242,34,1,twoone,,,,,,,,,,,,,,,,,,,,,,,,,,,,,,,,,,,,,,,,,,,,,,,,,,,,,,,,,,,,,,,,,,,,,,,,,,,,,,,,,,,,,,,,,,,,,,,,,,,,,,,,,,,,,,,,,,,,,,,,,,,,,,,,,,,,,,,,,
,,5eece6c66db5540c7b43648d,2024-02-21_21h28.08.027,kallum_motion_pilot,2023.2.2,Win32,163.9344262,5eece6c66db5540c7b43648d,65d6bb0e977760de756971f7,65d6bf33bcd697ef2196c036,0.0306,0.0307,1,81,243,73,1,onethree,,,,,,,,,,,,,,,,,,,,,,,,,,,,,,,,,,,,,,,,,,,,,,,,,,,,,,,,,,,,,,,,,,,,,,,,,,,,,,,,,,,,,,,,,,,,,,,,,,,,,,,,,,,,,,,,,,,,,,,,,,,,,,,,,,,,,,,,,
,,5eece6c66db5540c7b43648d,2024-02-21_21h28.08.027,kallum_motion_pilot,2023.2.2,Win32,163.9344262,5eece6c66db5540c7b43648d,65d6bb0e977760de756971f7,65d6bf33bcd697ef2196c036,0.0307,0.0308,1,82,244,72,1,onetwo,,,,,,,,,,,,,,,,,,,,,,,,,,,,,,,,,,,,,,,,,,,,,,,,,,,,,,,,,,,,,,,,,,,,,,,,,,,,,,,,,,,,,,,,,,,,,,,,,,,,,,,,,,,,,,,,,,,,,,,,,,,,,,,,,,,,,,,,,
,,5eece6c66db5540c7b43648d,2024-02-21_21h28.08.027,kallum_motion_pilot,2023.2.2,Win32,163.9344262,5eece6c66db5540c7b43648d,65d6bb0e977760de756971f7,65d6bf33bcd697ef2196c036,0.0308,0.0308,1,83,245,20,1,threeone,,,,,,,,,,,,,,,,,,,,,,,,,,,,,,,,,,,,,,,,,,,,,,,,,,,,,,,,,,,,,,,,,,,,,,,,,,,,,,,,,,,,,,,,,,,,,,,,,,,,,,,,,,,,,,,,,,,,,,,,,,,,,,,,,,,,,,,,,
,,5eece6c66db5540c7b43648d,2024-02-21_21h28.08.027,kallum_motion_pilot,2023.2.2,Win32,163.9344262,5eece6c66db5540c7b43648d,65d6bb0e977760de756971f7,65d6bf33bcd697ef2196c036,0.0308,0.0309,1,84,246,36,1,threeone,,,,,,,,,,,,,,,,,,,,,,,,,,,,,,,,,,,,,,,,,,,,,,,,,,,,,,,,,,,,,,,,,,,,,,,,,,,,,,,,,,,,,,,,,,,,,,,,,,,,,,,,,,,,,,,,,,,,,,,,,,,,,,,,,,,,,,,,,
,,5eece6c66db5540c7b43648d,2024-02-21_21h28.08.027,kallum_motion_pilot,2023.2.2,Win32,163.9344262,5eece6c66db5540c7b43648d,65d6bb0e977760de756971f7,65d6bf33bcd697ef2196c036,0.031,0.031,1,85,247,109,1,seveneight,,,,,,,,,,,,,,,,,,,,,,,,,,,,,,,,,,,,,,,,,,,,,,,,,,,,,,,,,,,,,,,,,,,,,,,,,,,,,,,,,,,,,,,,,,,,,,,,,,,,,,,,,,,,,,,,,,,,,,,,,,,,,,,,,,,,,,,,,
,,5eece6c66db5540c7b43648d,2024-02-21_21h28.08.027,kallum_motion_pilot,2023.2.2,Win32,163.9344262,5eece6c66db5540c7b43648d,65d6bb0e977760de756971f7,65d6bf33bcd697ef2196c036,0.0311,0.0311,1,86,248,107,1,sixeight,,,,,,,,,,,,,,,,,,,,,,,,,,,,,,,,,,,,,,,,,,,,,,,,,,,,,,,,,,,,,,,,,,,,,,,,,,,,,,,,,,,,,,,,,,,,,,,,,,,,,,,,,,,,,,,,,,,,,,,,,,,,,,,,,,,,,,,,,
,,5eece6c66db5540c7b43648d,2024-02-21_21h28.08.027,kallum_motion_pilot,2023.2.2,Win32,163.9344262,5eece6c66db5540c7b43648d,65d6bb0e977760de756971f7,65d6bf33bcd697ef2196c036,0.0312,0.0313,1,87,249,21,1,threefour,,,,,,,,,,,,,,,,,,,,,,,,,,,,,,,,,,,,,,,,,,,,,,,,,,,,,,,,,,,,,,,,,,,,,,,,,,,,,,,,,,,,,,,,,,,,,,,,,,,,,,,,,,,,,,,,,,,,,,,,,,,,,,,,,,,,,,,,,
,,5eece6c66db5540c7b43648d,2024-02-21_21h28.08.027,kallum_motion_pilot,2023.2.2,Win32,163.9344262,5eece6c66db5540c7b43648d,65d6bb0e977760de756971f7,65d6bf33bcd697ef2196c036,0.0313,0.0313,1,88,250,113,1,fiveseven,,,,,,,,,,,,,,,,,,,,,,,,,,,,,,,,,,,,,,,,,,,,,,,,,,,,,,,,,,,,,,,,,,,,,,,,,,,,,,,,,,,,,,,,,,,,,,,,,,,,,,,,,,,,,,,,,,,,,,,,,,,,,,,,,,,,,,,,,
,,5eece6c66db5540c7b43648d,2024-02-21_21h28.08.027,kallum_motion_pilot,2023.2.2,Win32,163.9344262,5eece6c66db5540c7b43648d,65d6bb0e977760de756971f7,65d6bf33bcd697ef2196c036,0.0313,0.0314,1,89,251,134,1,eightsix,,,,,,,,,,,,,,,,,,,,,,,,,,,,,,,,,,,,,,,,,,,,,,,,,,,,,,,,,,,,,,,,,,,,,,,,,,,,,,,,,,,,,,,,,,,,,,,,,,,,,,,,,,,,,,,,,,,,,,,,,,,,,,,,,,,,,,,,,
,,5eece6c66db5540c7b43648d,2024-02-21_21h28.08.027,kallum_motion_pilot,2023.2.2,Win32,163.9344262,5eece6c66db5540c7b43648d,65d6bb0e977760de756971f7,65d6bf33bcd697ef2196c036,0.0314,0.0315,1,90,252,132,1,sevenfive,,,,,,,,,,,,,,,,,,,,,,,,,,,,,,,,,,,,,,,,,,,,,,,,,,,,,,,,,,,,,,,,,,,,,,,,,,,,,,,,,,,,,,,,,,,,,,,,,,,,,,,,,,,,,,,,,,,,,,,,,,,,,,,,,,,,,,,,,
,,5eece6c66db5540c7b43648d,2024-02-21_21h28.08.027,kallum_motion_pilot,2023.2.2,Win32,163.9344262,5eece6c66db5540c7b43648d,65d6bb0e977760de756971f7,65d6bf33bcd697ef2196c036,0.0316,0.0316,1,91,253,32,1,onetwo,,,,,,,,,,,,,,,,,,,,,,,,,,,,,,,,,,,,,,,,,,,,,,,,,,,,,,,,,,,,,,,,,,,,,,,,,,,,,,,,,,,,,,,,,,,,,,,,,,,,,,,,,,,,,,,,,,,,,,,,,,,,,,,,,,,,,,,,,
,,5eece6c66db5540c7b43648d,2024-02-21_21h28.08.027,kallum_motion_pilot,2023.2.2,Win32,163.9344262,5eece6c66db5540c7b43648d,65d6bb0e977760de756971f7,65d6bf33bcd697ef2196c036,0.0317,0.0317,1,92,254,106,1,sixfive,,,,,,,,,,,,,,,,,,,,,,,,,,,,,,,,,,,,,,,,,,,,,,,,,,,,,,,,,,,,,,,,,,,,,,,,,,,,,,,,,,,,,,,,,,,,,,,,,,,,,,,,,,,,,,,,,,,,,,,,,,,,,,,,,,,,,,,,,
,,5eece6c66db5540c7b43648d,2024-02-21_21h28.08.027,kallum_motion_pilot,2023.2.2,Win32,163.9344262,5eece6c66db5540c7b43648d,65d6bb0e977760de756971f7,65d6bf33bcd697ef2196c036,0.0318,0.0318,1,93,255,12,1,threeone,,,,,,,,,,,,,,,,,,,,,,,,,,,,,,,,,,,,,,,,,,,,,,,,,,,,,,,,,,,,,,,,,,,,,,,,,,,,,,,,,,,,,,,,,,,,,,,,,,,,,,,,,,,,,,,,,,,,,,,,,,,,,,,,,,,,,,,,,
,,5eece6c66db5540c7b43648d,2024-02-21_21h28.08.027,kallum_motion_pilot,2023.2.2,Win32,163.9344262,5eece6c66db5540c7b43648d,65d6bb0e977760de756971f7,65d6bf33bcd697ef2196c036,0.0319,0.0319,1,94,256,115,1,sixeight,,,,,,,,,,,,,,,,,,,,,,,,,,,,,,,,,,,,,,,,,,,,,,,,,,,,,,,,,,,,,,,,,,,,,,,,,,,,,,,,,,,,,,,,,,,,,,,,,,,,,,,,,,,,,,,,,,,,,,,,,,,,,,,,,,,,,,,,,
,,5eece6c66db5540c7b43648d,2024-02-21_21h28.08.027,kallum_motion_pilot,2023.2.2,Win32,163.9344262,5eece6c66db5540c7b43648d,65d6bb0e977760de756971f7,65d6bf33bcd697ef2196c036,0.0319,0.0319,1,95,257,102,1,eightsix,,,,,,,,,,,,,,,,,,,,,,,,,,,,,,,,,,,,,,,,,,,,,,,,,,,,,,,,,,,,,,,,,,,,,,,,,,,,,,,,,,,,,,,,,,,,,,,,,,,,,,,,,,,,,,,,,,,,,,,,,,,,,,,,,,,,,,,,,
,,5eece6c66db5540c7b43648d,2024-02-21_21h28.08.027,kallum_motion_pilot,2023.2.2,Win32,163.9344262,5eece6c66db5540c7b43648d,65d6bb0e977760de756971f7,65d6bf33bcd697ef2196c036,0.032,0.0321,1,96,258,116,1,sevenfive,,,,,,,,,,,,,,,,,,,,,,,,,,,,,,,,,,,,,,,,,,,,,,,,,,,,,,,,,,,,,,,,,,,,,,,,,,,,,,,,,,,,,,,,,,,,,,,,,,,,,,,,,,,,,,,,,,,,,,,,,,,,,,,,,,,,,,,,,
,,5eece6c66db5540c7b43648d,2024-02-21_21h28.08.027,kallum_motion_pilot,2023.2.2,Win32,163.9344262,5eece6c66db5540c7b43648d,65d6bb0e977760de756971f7,65d6bf33bcd697ef2196c036,0.0321,0.0322,1,97,259,65,1,onethree,,,,,,,,,,,,,,,,,,,,,,,,,,,,,,,,,,,,,,,,,,,,,,,,,,,,,,,,,,,,,,,,,,,,,,,,,,,,,,,,,,,,,,,,,,,,,,,,,,,,,,,,,,,,,,,,,,,,,,,,,,,,,,,,,,,,,,,,,
,,5eece6c66db5540c7b43648d,2024-02-21_21h28.08.027,kallum_motion_pilot,2023.2.2,Win32,163.9344262,5eece6c66db5540c7b43648d,65d6bb0e977760de756971f7,65d6bf33bcd697ef2196c036,0.0322,0.0323,1,98,260,67,1,twofour,,,,,,,,,,,,,,,,,,,,,,,,,,,,,,,,,,,,,,,,,,,,,,,,,,,,,,,,,,,,,,,,,,,,,,,,,,,,,,,,,,,,,,,,,,,,,,,,,,,,,,,,,,,,,,,,,,,,,,,,,,,,,,,,,,,,,,,,,
,,5eece6c66db5540c7b43648d,2024-02-21_21h28.08.027,kallum_motion_pilot,2023.2.2,Win32,163.9344262,5eece6c66db5540c7b43648d,65d6bb0e977760de756971f7,65d6bf33bcd697ef2196c036,0.0323,0.0323,1,99,261,156,1,sevenfive,,,,,,,,,,,,,,,,,,,,,,,,,,,,,,,,,,,,,,,,,,,,,,,,,,,,,,,,,,,,,,,,,,,,,,,,,,,,,,,,,,,,,,,,,,,,,,,,,,,,,,,,,,,,,,,,,,,,,,,,,,,,,,,,,,,,,,,,,
,,5eece6c66db5540c7b43648d,2024-02-21_21h28.08.027,kallum_motion_pilot,2023.2.2,Win32,163.9344262,5eece6c66db5540c7b43648d,65d6bb0e977760de756971f7,65d6bf33bcd697ef2196c036,0.0324,0.0324,1,100,262,95,1,eightseven,,,,,,,,,,,,,,,,,,,,,,,,,,,,,,,,,,,,,,,,,,,,,,,,,,,,,,,,,,,,,,,,,,,,,,,,,,,,,,,,,,,,,,,,,,,,,,,,,,,,,,,,,,,,,,,,,,,,,,,,,,,,,,,,,,,,,,,,,
,,5eece6c66db5540c7b43648d,2024-02-21_21h28.08.027,kallum_motion_pilot,2023.2.2,Win32,163.9344262,5eece6c66db5540c7b43648d,65d6bb0e977760de756971f7,65d6bf33bcd697ef2196c036,0.0325,0.0325,1,101,263,15,1,fourthree,,,,,,,,,,,,,,,,,,,,,,,,,,,,,,,,,,,,,,,,,,,,,,,,,,,,,,,,,,,,,,,,,,,,,,,,,,,,,,,,,,,,,,,,,,,,,,,,,,,,,,,,,,,,,,,,,,,,,,,,,,,,,,,,,,,,,,,,,
,,5eece6c66db5540c7b43648d,2024-02-21_21h28.08.027,kallum_motion_pilot,2023.2.2,Win32,163.9344262,5eece6c66db5540c7b43648d,65d6bb0e977760de756971f7,65d6bf33bcd697ef2196c036,0.0326,0.0326,1,102,264,52,1,threeone,,,,,,,,,,,,,,,,,,,,,,,,,,,,,,,,,,,,,,,,,,,,,,,,,,,,,,,,,,,,,,,,,,,,,,,,,,,,,,,,,,,,,,,,,,,,,,,,,,,,,,,,,,,,,,,,,,,,,,,,,,,,,,,,,,,,,,,,,
,,5eece6c66db5540c7b43648d,2024-02-21_21h28.08.027,kallum_motion_pilot,2023.2.2,Win32,163.9344262,5eece6c66db5540c7b43648d,65d6bb0e977760de756971f7,65d6bf33bcd697ef2196c036,0.0327,0.0327,1,103,265,91,1,sixeight,,,,,,,,,,,,,,,,,,,,,,,,,,,,,,,,,,,,,,,,,,,,,,,,,,,,,,,,,,,,,,,,,,,,,,,,,,,,,,,,,,,,,,,,,,,,,,,,,,,,,,,,,,,,,,,,,,,,,,,,,,,,,,,,,,,,,,,,,
,,5eece6c66db5540c7b43648d,2024-02-21_21h28.08.027,kallum_motion_pilot,2023.2.2,Win32,163.9344262,5eece6c66db5540c7b43648d,65d6bb0e977760de756971f7,65d6bf33bcd697ef2196c036,0.0328,0.0328,1,104,266,129,1,fiveseven,,,,,,,,,,,,,,,,,,,,,,,,,,,,,,,,,,,,,,,,,,,,,,,,,,,,,,,,,,,,,,,,,,,,,,,,,,,,,,,,,,,,,,,,,,,,,,,,,,,,,,,,,,,,,,,,,,,,,,,,,,,,,,,,,,,,,,,,,
,,5eece6c66db5540c7b43648d,2024-02-21_21h28.08.027,kallum_motion_pilot,2023.2.2,Win32,163.9344262,5eece6c66db5540c7b43648d,65d6bb0e977760de756971f7,65d6bf33bcd697ef2196c036,0.0328,0.0329,1,105,267,131,1,sixeight,,,,,,,,,,,,,,,,,,,,,,,,,,,,,,,,,,,,,,,,,,,,,,,,,,,,,,,,,,,,,,,,,,,,,,,,,,,,,,,,,,,,,,,,,,,,,,,,,,,,,,,,,,,,,,,,,,,,,,,,,,,,,,,,,,,,,,,,,
,,5eece6c66db5540c7b43648d,2024-02-21_21h28.08.027,kallum_motion_pilot,2023.2.2,Win32,163.9344262,5eece6c66db5540c7b43648d,65d6bb0e977760de756971f7,65d6bf33bcd697ef2196c036,0.0329,0.033,1,106,268,43,1,twofour,,,,,,,,,,,,,,,,,,,,,,,,,,,,,,,,,,,,,,,,,,,,,,,,,,,,,,,,,,,,,,,,,,,,,,,,,,,,,,,,,,,,,,,,,,,,,,,,,,,,,,,,,,,,,,,,,,,,,,,,,,,,,,,,,,,,,,,,,
,,5eece6c66db5540c7b43648d,2024-02-21_21h28.08.027,kallum_motion_pilot,2023.2.2,Win32,163.9344262,5eece6c66db5540c7b43648d,65d6bb0e977760de756971f7,65d6bf33bcd697ef2196c036,0.033,0.0331,1,107,269,140,1,sevenfive,,,,,,,,,,,,,,,,,,,,,,,,,,,,,,,,,,,,,,,,,,,,,,,,,,,,,,,,,,,,,,,,,,,,,,,,,,,,,,,,,,,,,,,,,,,,,,,,,,,,,,,,,,,,,,,,,,,,,,,,,,,,,,,,,,,,,,,,,
,,5eece6c66db5540c7b43648d,2024-02-21_21h28.08.027,kallum_motion_pilot,2023.2.2,Win32,163.9344262,5eece6c66db5540c7b43648d,65d6bb0e977760de756971f7,65d6bf33bcd697ef2196c036,0.0331,0.0331,1,108,270,148,1,sevenfive,,,,,,,,,,,,,,,,,,,,,,,,,,,,,,,,,,,,,,,,,,,,,,,,,,,,,,,,,,,,,,,,,,,,,,,,,,,,,,,,,,,,,,,,,,,,,,,,,,,,,,,,,,,,,,,,,,,,,,,,,,,,,,,,,,,,,,,,,
,,5eece6c66db5540c7b43648d,2024-02-21_21h28.08.027,kallum_motion_pilot,2023.2.2,Win32,163.9344262,5eece6c66db5540c7b43648d,65d6bb0e977760de756971f7,65d6bf33bcd697ef2196c036,0.0332,0.0332,1,109,271,0,1,onetwo,,,,,,,,,,,,,,,,,,,,,,,,,,,,,,,,,,,,,,,,,,,,,,,,,,,,,,,,,,,,,,,,,,,,,,,,,,,,,,,,,,,,,,,,,,,,,,,,,,,,,,,,,,,,,,,,,,,,,,,,,,,,,,,,,,,,,,,,,
,,5eece6c66db5540c7b43648d,2024-02-21_21h28.08.027,kallum_motion_pilot,2023.2.2,Win32,163.9344262,5eece6c66db5540c7b43648d,65d6bb0e977760de756971f7,65d6bf33bcd697ef2196c036,0.0332,0.0333,1,110,272,24,1,onetwo,,,,,,,,,,,,,,,,,,,,,,,,,,,,,,,,,,,,,,,,,,,,,,,,,,,,,,,,,,,,,,,,,,,,,,,,,,,,,,,,,,,,,,,,,,,,,,,,,,,,,,,,,,,,,,,,,,,,,,,,,,,,,,,,,,,,,,,,,
,,5eece6c66db5540c7b43648d,2024-02-21_21h28.08.027,kallum_motion_pilot,2023.2.2,Win32,163.9344262,5eece6c66db5540c7b43648d,65d6bb0e977760de756971f7,65d6bf33bcd697ef2196c036,0.0333,0.0333,1,111,273,40,1,onetwo,,,,,,,,,,,,,,,,,,,,,,,,,,,,,,,,,,,,,,,,,,,,,,,,,,,,,,,,,,,,,,,,,,,,,,,,,,,,,,,,,,,,,,,,,,,,,,,,,,,,,,,,,,,,,,,,,,,,,,,,,,,,,,,,,,,,,,,,,
,,5eece6c66db5540c7b43648d,2024-02-21_21h28.08.027,kallum_motion_pilot,2023.2.2,Win32,163.9344262,5eece6c66db5540c7b43648d,65d6bb0e977760de756971f7,65d6bf33bcd697ef2196c036,0.0334,0.0335,1,112,274,87,1,eightseven,,,,,,,,,,,,,,,,,,,,,,,,,,,,,,,,,,,,,,,,,,,,,,,,,,,,,,,,,,,,,,,,,,,,,,,,,,,,,,,,,,,,,,,,,,,,,,,,,,,,,,,,,,,,,,,,,,,,,,,,,,,,,,,,,,,,,,,,,
,,5eece6c66db5540c7b43648d,2024-02-21_21h28.08.027,kallum_motion_pilot,2023.2.2,Win32,163.9344262,5eece6c66db5540c7b43648d,65d6bb0e977760de756971f7,65d6bf33bcd697ef2196c036,0.0335,0.0335,1,113,275,81,1,fiveseven,,,,,,,,,,,,,,,,,,,,,,,,,,,,,,,,,,,,,,,,,,,,,,,,,,,,,,,,,,,,,,,,,,,,,,,,,,,,,,,,,,,,,,,,,,,,,,,,,,,,,,,,,,,,,,,,,,,,,,,,,,,,,,,,,,,,,,,,,
,,5eece6c66db5540c7b43648d,2024-02-21_21h28.08.027,kallum_motion_pilot,2023.2.2,Win32,163.9344262,5eece6c66db5540c7b43648d,65d6bb0e977760de756971f7,65d6bf33bcd697ef2196c036,0.0336,0.0336,1,114,276,85,1,seveneight,,,,,,,,,,,,,,,,,,,,,,,,,,,,,,,,,,,,,,,,,,,,,,,,,,,,,,,,,,,,,,,,,,,,,,,,,,,,,,,,,,,,,,,,,,,,,,,,,,,,,,,,,,,,,,,,,,,,,,,,,,,,,,,,,,,,,,,,,
,,5eece6c66db5540c7b43648d,2024-02-21_21h28.08.027,kallum_motion_pilot,2023.2.2,Win32,163.9344262,5eece6c66db5540c7b43648d,65d6bb0e977760de756971f7,65d6bf33bcd697ef2196c036,0.0337,0.0337,1,115,277,18,1,twoone,,,,,,,,,,,,,,,,,,,,,,,,,,,,,,,,,,,,,,,,,,,,,,,,,,,,,,,,,,,,,,,,,,,,,,,,,,,,,,,,,,,,,,,,,,,,,,,,,,,,,,,,,,,,,,,,,,,,,,,,,,,,,,,,,,,,,,,,,
