startup.started,startup.stopped,Prolific ID*,date,expName,psychopyVersion,OS,frameRate,participant,study_id,session,stimpositions.started,stimpositions.stopped,hardcoded_stimulus_positions.thisRepN,hardcoded_stimulus_positions.thisTrialN,hardcoded_stimulus_positions.thisN,hardcoded_stimulus_positions.thisIndex,hardcoded_stimulus_positions.ran,StimulusPos,stimorientation.started,stimorientation.stopped,prac_stimorientation_import_loop.thisRepN,prac_stimorientation_import_loop.thisTrialN,prac_stimorientation_import_loop.thisN,prac_stimorientation_import_loop.thisIndex,prac_stimorientation_import_loop.ran,Stimorientation,welcome_instr.started,welcome_instr.stopped,key_resp.keys,key_resp.rt,key_resp.duration,response_steppedout_1.started,response_steppedout_1.stopped,key_resp_20.keys,key_resp_20.rt,key_resp_20.duration,response_steppedout_2.started,response_steppedout_2.stopped,key_resp_19.keys,key_resp_19.rt,key_resp_19.duration,stim_response_instr.started,stim_response_instr.stopped,key_resp_15.keys,key_resp_15.rt,key_resp_15.duration,direction_instr_2.started,direction_instr_2.stopped,key_resp_9.keys,key_resp_9.rt,key_resp_9.duration,instr_prac.started,instr_prac.stopped,key_resp_10.keys,key_resp_10.rt,key_resp_10.duration,Stim1_display_prac.started,Stim1_display_prac.stopped,Ecc,Circle1_ori,Circle2_ori,response_prac.started,similarity,response_time,response_prac.stopped,mouse_5.x,mouse_5.y,mouse_5.leftButton,mouse_5.midButton,mouse_5.rightButton,mouse_5.clicked_name,responseprac_feedback.started,responseprac_feedback.stopped,summary2_prac.started,summary2_prac.stopped,mouse_6.x,mouse_6.y,mouse_6.leftButton,mouse_6.midButton,mouse_6.rightButton,mouse_6.clicked_name,duringprac.thisRepN,duringprac.thisTrialN,duringprac.thisN,duringprac.thisIndex,duringprac.ran,begin.started,begin.stopped,key_resp_22.keys,key_resp_22.rt,key_resp_22.duration,Stim1_display.started,Stim1_display.stopped,circle1_ori,circle2_ori,circle1_SF,circle2_SF,response.started,response.stopped,mouse.x,mouse.y,mouse.leftButton,mouse.midButton,mouse.rightButton,mouse.clicked_name,trialnumber,double_pass.thisRepN,double_pass.thisTrialN,double_pass.thisN,double_pass.thisIndex,double_pass.ran,double_pass.order,main_trial.thisRepN,main_trial.thisTrialN,main_trial.thisN,main_trial.thisIndex,main_trial.ran,main_trial.order,Trial_Counter,Catch,Frequencies,response_2.started,response_2.stopped,mouse_2.x,mouse_2.y,mouse_2.leftButton,mouse_2.midButton,mouse_2.rightButton,mouse_2.clicked_name,special_trial.started,special_trial.stopped,catch_1.started,catch_1.stopped,mouse_3.x,mouse_3.y,mouse_3.leftButton,mouse_3.midButton,mouse_3.rightButton,catchresponse,catchnumber,response_time_catch,response_sum.started,response_sum.stopped,mouse_11.x,mouse_11.y,mouse_11.leftButton,mouse_11.midButton,mouse_11.rightButton,flip_presentation_sequence_for_double_pass.started,flip_presentation_sequence_for_double_pass.stopped,goodbye.started,goodbye.stopped,key_resp_3.keys,key_resp_3.rt,key_resp_3.duration
0.0014,0.0017,5ef67612126bfa36576e1b03,2024-02-18_20h15.19.852,kallum_motion_pilot,2023.2.2,Win32,48.07692308,5ef67612126bfa36576e1b03,65d2b6c8f2eece985d8e374c,65d2b84596fa611396bffb0d,,,,,,,,,,,,,,,,,,,,,,,,,,,,,,,,,,,,,,,,,,,,,,,,,,,,,,,,,,,,,,,,,,,,,,,,,,,,,,,,,,,,,,,,,,,,,,,,,,,,,,,,,,,,,,,,,,,,,,,,,,,,,,,,,,,,,,,,,,,,,,,,,
,,5ef67612126bfa36576e1b03,2024-02-18_20h15.19.852,kallum_motion_pilot,2023.2.2,Win32,48.07692308,5ef67612126bfa36576e1b03,65d2b6c8f2eece985d8e374c,65d2b84596fa611396bffb0d,0.0337,0.0339,0,0,0,103,1,eightseven,,,,,,,,,,,,,,,,,,,,,,,,,,,,,,,,,,,,,,,,,,,,,,,,,,,,,,,,,,,,,,,,,,,,,,,,,,,,,,,,,,,,,,,,,,,,,,,,,,,,,,,,,,,,,,,,,,,,,,,,,,,,,,,,,,,,,,,,,
,,5ef67612126bfa36576e1b03,2024-02-18_20h15.19.852,kallum_motion_pilot,2023.2.2,Win32,48.07692308,5ef67612126bfa36576e1b03,65d2b6c8f2eece985d8e374c,65d2b84596fa611396bffb0d,0.0344,0.0344,0,1,1,0,1,onetwo,,,,,,,,,,,,,,,,,,,,,,,,,,,,,,,,,,,,,,,,,,,,,,,,,,,,,,,,,,,,,,,,,,,,,,,,,,,,,,,,,,,,,,,,,,,,,,,,,,,,,,,,,,,,,,,,,,,,,,,,,,,,,,,,,,,,,,,,,
,,5ef67612126bfa36576e1b03,2024-02-18_20h15.19.852,kallum_motion_pilot,2023.2.2,Win32,48.07692308,5ef67612126bfa36576e1b03,65d2b6c8f2eece985d8e374c,65d2b84596fa611396bffb0d,0.0345,0.0345,0,2,2,14,1,fourtwo,,,,,,,,,,,,,,,,,,,,,,,,,,,,,,,,,,,,,,,,,,,,,,,,,,,,,,,,,,,,,,,,,,,,,,,,,,,,,,,,,,,,,,,,,,,,,,,,,,,,,,,,,,,,,,,,,,,,,,,,,,,,,,,,,,,,,,,,,
,,5ef67612126bfa36576e1b03,2024-02-18_20h15.19.852,kallum_motion_pilot,2023.2.2,Win32,48.07692308,5ef67612126bfa36576e1b03,65d2b6c8f2eece985d8e374c,65d2b84596fa611396bffb0d,0.0346,0.0346,0,3,3,87,1,eightseven,,,,,,,,,,,,,,,,,,,,,,,,,,,,,,,,,,,,,,,,,,,,,,,,,,,,,,,,,,,,,,,,,,,,,,,,,,,,,,,,,,,,,,,,,,,,,,,,,,,,,,,,,,,,,,,,,,,,,,,,,,,,,,,,,,,,,,,,,
,,5ef67612126bfa36576e1b03,2024-02-18_20h15.19.852,kallum_motion_pilot,2023.2.2,Win32,48.07692308,5ef67612126bfa36576e1b03,65d2b6c8f2eece985d8e374c,65d2b84596fa611396bffb0d,0.0347,0.0347,0,4,4,32,1,onetwo,,,,,,,,,,,,,,,,,,,,,,,,,,,,,,,,,,,,,,,,,,,,,,,,,,,,,,,,,,,,,,,,,,,,,,,,,,,,,,,,,,,,,,,,,,,,,,,,,,,,,,,,,,,,,,,,,,,,,,,,,,,,,,,,,,,,,,,,,
,,5ef67612126bfa36576e1b03,2024-02-18_20h15.19.852,kallum_motion_pilot,2023.2.2,Win32,48.07692308,5ef67612126bfa36576e1b03,65d2b6c8f2eece985d8e374c,65d2b84596fa611396bffb0d,0.0348,0.0348,0,5,5,146,1,sixfive,,,,,,,,,,,,,,,,,,,,,,,,,,,,,,,,,,,,,,,,,,,,,,,,,,,,,,,,,,,,,,,,,,,,,,,,,,,,,,,,,,,,,,,,,,,,,,,,,,,,,,,,,,,,,,,,,,,,,,,,,,,,,,,,,,,,,,,,,
,,5ef67612126bfa36576e1b03,2024-02-18_20h15.19.852,kallum_motion_pilot,2023.2.2,Win32,48.07692308,5ef67612126bfa36576e1b03,65d2b6c8f2eece985d8e374c,65d2b84596fa611396bffb0d,0.0349,0.0349,0,6,6,81,1,fiveseven,,,,,,,,,,,,,,,,,,,,,,,,,,,,,,,,,,,,,,,,,,,,,,,,,,,,,,,,,,,,,,,,,,,,,,,,,,,,,,,,,,,,,,,,,,,,,,,,,,,,,,,,,,,,,,,,,,,,,,,,,,,,,,,,,,,,,,,,,
,,5ef67612126bfa36576e1b03,2024-02-18_20h15.19.852,kallum_motion_pilot,2023.2.2,Win32,48.07692308,5ef67612126bfa36576e1b03,65d2b6c8f2eece985d8e374c,65d2b84596fa611396bffb0d,0.0349,0.0349,0,7,7,43,1,twofour,,,,,,,,,,,,,,,,,,,,,,,,,,,,,,,,,,,,,,,,,,,,,,,,,,,,,,,,,,,,,,,,,,,,,,,,,,,,,,,,,,,,,,,,,,,,,,,,,,,,,,,,,,,,,,,,,,,,,,,,,,,,,,,,,,,,,,,,,
,,5ef67612126bfa36576e1b03,2024-02-18_20h15.19.852,kallum_motion_pilot,2023.2.2,Win32,48.07692308,5ef67612126bfa36576e1b03,65d2b6c8f2eece985d8e374c,65d2b84596fa611396bffb0d,0.0351,0.0351,0,8,8,73,1,onethree,,,,,,,,,,,,,,,,,,,,,,,,,,,,,,,,,,,,,,,,,,,,,,,,,,,,,,,,,,,,,,,,,,,,,,,,,,,,,,,,,,,,,,,,,,,,,,,,,,,,,,,,,,,,,,,,,,,,,,,,,,,,,,,,,,,,,,,,,
,,5ef67612126bfa36576e1b03,2024-02-18_20h15.19.852,kallum_motion_pilot,2023.2.2,Win32,48.07692308,5ef67612126bfa36576e1b03,65d2b6c8f2eece985d8e374c,65d2b84596fa611396bffb0d,0.0352,0.0352,0,9,9,114,1,sixfive,,,,,,,,,,,,,,,,,,,,,,,,,,,,,,,,,,,,,,,,,,,,,,,,,,,,,,,,,,,,,,,,,,,,,,,,,,,,,,,,,,,,,,,,,,,,,,,,,,,,,,,,,,,,,,,,,,,,,,,,,,,,,,,,,,,,,,,,,
,,5ef67612126bfa36576e1b03,2024-02-18_20h15.19.852,kallum_motion_pilot,2023.2.2,Win32,48.07692308,5ef67612126bfa36576e1b03,65d2b6c8f2eece985d8e374c,65d2b84596fa611396bffb0d,0.0353,0.0353,0,10,10,74,1,twoone,,,,,,,,,,,,,,,,,,,,,,,,,,,,,,,,,,,,,,,,,,,,,,,,,,,,,,,,,,,,,,,,,,,,,,,,,,,,,,,,,,,,,,,,,,,,,,,,,,,,,,,,,,,,,,,,,,,,,,,,,,,,,,,,,,,,,,,,,
,,5ef67612126bfa36576e1b03,2024-02-18_20h15.19.852,kallum_motion_pilot,2023.2.2,Win32,48.07692308,5ef67612126bfa36576e1b03,65d2b6c8f2eece985d8e374c,65d2b84596fa611396bffb0d,0.0354,0.0354,0,11,11,153,1,fiveseven,,,,,,,,,,,,,,,,,,,,,,,,,,,,,,,,,,,,,,,,,,,,,,,,,,,,,,,,,,,,,,,,,,,,,,,,,,,,,,,,,,,,,,,,,,,,,,,,,,,,,,,,,,,,,,,,,,,,,,,,,,,,,,,,,,,,,,,,,
,,5ef67612126bfa36576e1b03,2024-02-18_20h15.19.852,kallum_motion_pilot,2023.2.2,Win32,48.07692308,5ef67612126bfa36576e1b03,65d2b6c8f2eece985d8e374c,65d2b84596fa611396bffb0d,0.0355,0.0355,0,12,12,75,1,twofour,,,,,,,,,,,,,,,,,,,,,,,,,,,,,,,,,,,,,,,,,,,,,,,,,,,,,,,,,,,,,,,,,,,,,,,,,,,,,,,,,,,,,,,,,,,,,,,,,,,,,,,,,,,,,,,,,,,,,,,,,,,,,,,,,,,,,,,,,
,,5ef67612126bfa36576e1b03,2024-02-18_20h15.19.852,kallum_motion_pilot,2023.2.2,Win32,48.07692308,5ef67612126bfa36576e1b03,65d2b6c8f2eece985d8e374c,65d2b84596fa611396bffb0d,0.0355,0.0356,0,13,13,23,1,fourthree,,,,,,,,,,,,,,,,,,,,,,,,,,,,,,,,,,,,,,,,,,,,,,,,,,,,,,,,,,,,,,,,,,,,,,,,,,,,,,,,,,,,,,,,,,,,,,,,,,,,,,,,,,,,,,,,,,,,,,,,,,,,,,,,,,,,,,,,,
,,5ef67612126bfa36576e1b03,2024-02-18_20h15.19.852,kallum_motion_pilot,2023.2.2,Win32,48.07692308,5ef67612126bfa36576e1b03,65d2b6c8f2eece985d8e374c,65d2b84596fa611396bffb0d,0.0356,0.0356,0,14,14,40,1,onetwo,,,,,,,,,,,,,,,,,,,,,,,,,,,,,,,,,,,,,,,,,,,,,,,,,,,,,,,,,,,,,,,,,,,,,,,,,,,,,,,,,,,,,,,,,,,,,,,,,,,,,,,,,,,,,,,,,,,,,,,,,,,,,,,,,,,,,,,,,
,,5ef67612126bfa36576e1b03,2024-02-18_20h15.19.852,kallum_motion_pilot,2023.2.2,Win32,48.07692308,5ef67612126bfa36576e1b03,65d2b6c8f2eece985d8e374c,65d2b84596fa611396bffb0d,0.0356,0.0357,0,15,15,88,1,fivesix,,,,,,,,,,,,,,,,,,,,,,,,,,,,,,,,,,,,,,,,,,,,,,,,,,,,,,,,,,,,,,,,,,,,,,,,,,,,,,,,,,,,,,,,,,,,,,,,,,,,,,,,,,,,,,,,,,,,,,,,,,,,,,,,,,,,,,,,,
,,5ef67612126bfa36576e1b03,2024-02-18_20h15.19.852,kallum_motion_pilot,2023.2.2,Win32,48.07692308,5ef67612126bfa36576e1b03,65d2b6c8f2eece985d8e374c,65d2b84596fa611396bffb0d,0.0359,0.0359,0,16,16,151,1,eightseven,,,,,,,,,,,,,,,,,,,,,,,,,,,,,,,,,,,,,,,,,,,,,,,,,,,,,,,,,,,,,,,,,,,,,,,,,,,,,,,,,,,,,,,,,,,,,,,,,,,,,,,,,,,,,,,,,,,,,,,,,,,,,,,,,,,,,,,,,
,,5ef67612126bfa36576e1b03,2024-02-18_20h15.19.852,kallum_motion_pilot,2023.2.2,Win32,48.07692308,5ef67612126bfa36576e1b03,65d2b6c8f2eece985d8e374c,65d2b84596fa611396bffb0d,0.036,0.0361,0,17,17,158,1,eightsix,,,,,,,,,,,,,,,,,,,,,,,,,,,,,,,,,,,,,,,,,,,,,,,,,,,,,,,,,,,,,,,,,,,,,,,,,,,,,,,,,,,,,,,,,,,,,,,,,,,,,,,,,,,,,,,,,,,,,,,,,,,,,,,,,,,,,,,,,
,,5ef67612126bfa36576e1b03,2024-02-18_20h15.19.852,kallum_motion_pilot,2023.2.2,Win32,48.07692308,5ef67612126bfa36576e1b03,65d2b6c8f2eece985d8e374c,65d2b84596fa611396bffb0d,0.0361,0.0361,0,18,18,39,1,fourthree,,,,,,,,,,,,,,,,,,,,,,,,,,,,,,,,,,,,,,,,,,,,,,,,,,,,,,,,,,,,,,,,,,,,,,,,,,,,,,,,,,,,,,,,,,,,,,,,,,,,,,,,,,,,,,,,,,,,,,,,,,,,,,,,,,,,,,,,,
,,5ef67612126bfa36576e1b03,2024-02-18_20h15.19.852,kallum_motion_pilot,2023.2.2,Win32,48.07692308,5ef67612126bfa36576e1b03,65d2b6c8f2eece985d8e374c,65d2b84596fa611396bffb0d,0.0379,0.0379,0,19,19,91,1,sixeight,,,,,,,,,,,,,,,,,,,,,,,,,,,,,,,,,,,,,,,,,,,,,,,,,,,,,,,,,,,,,,,,,,,,,,,,,,,,,,,,,,,,,,,,,,,,,,,,,,,,,,,,,,,,,,,,,,,,,,,,,,,,,,,,,,,,,,,,,
,,5ef67612126bfa36576e1b03,2024-02-18_20h15.19.852,kallum_motion_pilot,2023.2.2,Win32,48.07692308,5ef67612126bfa36576e1b03,65d2b6c8f2eece985d8e374c,65d2b84596fa611396bffb0d,0.0383,0.0383,0,20,20,51,1,twofour,,,,,,,,,,,,,,,,,,,,,,,,,,,,,,,,,,,,,,,,,,,,,,,,,,,,,,,,,,,,,,,,,,,,,,,,,,,,,,,,,,,,,,,,,,,,,,,,,,,,,,,,,,,,,,,,,,,,,,,,,,,,,,,,,,,,,,,,,
,,5ef67612126bfa36576e1b03,2024-02-18_20h15.19.852,kallum_motion_pilot,2023.2.2,Win32,48.07692308,5ef67612126bfa36576e1b03,65d2b6c8f2eece985d8e374c,65d2b84596fa611396bffb0d,0.0384,0.0385,0,21,21,16,1,onetwo,,,,,,,,,,,,,,,,,,,,,,,,,,,,,,,,,,,,,,,,,,,,,,,,,,,,,,,,,,,,,,,,,,,,,,,,,,,,,,,,,,,,,,,,,,,,,,,,,,,,,,,,,,,,,,,,,,,,,,,,,,,,,,,,,,,,,,,,,
,,5ef67612126bfa36576e1b03,2024-02-18_20h15.19.852,kallum_motion_pilot,2023.2.2,Win32,48.07692308,5ef67612126bfa36576e1b03,65d2b6c8f2eece985d8e374c,65d2b84596fa611396bffb0d,0.0386,0.0386,0,22,22,17,1,onethree,,,,,,,,,,,,,,,,,,,,,,,,,,,,,,,,,,,,,,,,,,,,,,,,,,,,,,,,,,,,,,,,,,,,,,,,,,,,,,,,,,,,,,,,,,,,,,,,,,,,,,,,,,,,,,,,,,,,,,,,,,,,,,,,,,,,,,,,,
,,5ef67612126bfa36576e1b03,2024-02-18_20h15.19.852,kallum_motion_pilot,2023.2.2,Win32,48.07692308,5ef67612126bfa36576e1b03,65d2b6c8f2eece985d8e374c,65d2b84596fa611396bffb0d,0.0387,0.0387,0,23,23,36,1,threeone,,,,,,,,,,,,,,,,,,,,,,,,,,,,,,,,,,,,,,,,,,,,,,,,,,,,,,,,,,,,,,,,,,,,,,,,,,,,,,,,,,,,,,,,,,,,,,,,,,,,,,,,,,,,,,,,,,,,,,,,,,,,,,,,,,,,,,,,,
,,5ef67612126bfa36576e1b03,2024-02-18_20h15.19.852,kallum_motion_pilot,2023.2.2,Win32,48.07692308,5ef67612126bfa36576e1b03,65d2b6c8f2eece985d8e374c,65d2b84596fa611396bffb0d,0.0388,0.0389,0,24,24,49,1,onethree,,,,,,,,,,,,,,,,,,,,,,,,,,,,,,,,,,,,,,,,,,,,,,,,,,,,,,,,,,,,,,,,,,,,,,,,,,,,,,,,,,,,,,,,,,,,,,,,,,,,,,,,,,,,,,,,,,,,,,,,,,,,,,,,,,,,,,,,,
,,5ef67612126bfa36576e1b03,2024-02-18_20h15.19.852,kallum_motion_pilot,2023.2.2,Win32,48.07692308,5ef67612126bfa36576e1b03,65d2b6c8f2eece985d8e374c,65d2b84596fa611396bffb0d,0.039,0.0391,0,25,25,155,1,sixeight,,,,,,,,,,,,,,,,,,,,,,,,,,,,,,,,,,,,,,,,,,,,,,,,,,,,,,,,,,,,,,,,,,,,,,,,,,,,,,,,,,,,,,,,,,,,,,,,,,,,,,,,,,,,,,,,,,,,,,,,,,,,,,,,,,,,,,,,,
,,5ef67612126bfa36576e1b03,2024-02-18_20h15.19.852,kallum_motion_pilot,2023.2.2,Win32,48.07692308,5ef67612126bfa36576e1b03,65d2b6c8f2eece985d8e374c,65d2b84596fa611396bffb0d,0.0391,0.0391,0,26,26,92,1,sevenfive,,,,,,,,,,,,,,,,,,,,,,,,,,,,,,,,,,,,,,,,,,,,,,,,,,,,,,,,,,,,,,,,,,,,,,,,,,,,,,,,,,,,,,,,,,,,,,,,,,,,,,,,,,,,,,,,,,,,,,,,,,,,,,,,,,,,,,,,,
,,5ef67612126bfa36576e1b03,2024-02-18_20h15.19.852,kallum_motion_pilot,2023.2.2,Win32,48.07692308,5ef67612126bfa36576e1b03,65d2b6c8f2eece985d8e374c,65d2b84596fa611396bffb0d,0.0393,0.0393,0,27,27,160,1,fivesix,,,,,,,,,,,,,,,,,,,,,,,,,,,,,,,,,,,,,,,,,,,,,,,,,,,,,,,,,,,,,,,,,,,,,,,,,,,,,,,,,,,,,,,,,,,,,,,,,,,,,,,,,,,,,,,,,,,,,,,,,,,,,,,,,,,,,,,,,
,,5ef67612126bfa36576e1b03,2024-02-18_20h15.19.852,kallum_motion_pilot,2023.2.2,Win32,48.07692308,5ef67612126bfa36576e1b03,65d2b6c8f2eece985d8e374c,65d2b84596fa611396bffb0d,0.0394,0.0394,0,28,28,67,1,twofour,,,,,,,,,,,,,,,,,,,,,,,,,,,,,,,,,,,,,,,,,,,,,,,,,,,,,,,,,,,,,,,,,,,,,,,,,,,,,,,,,,,,,,,,,,,,,,,,,,,,,,,,,,,,,,,,,,,,,,,,,,,,,,,,,,,,,,,,,
,,5ef67612126bfa36576e1b03,2024-02-18_20h15.19.852,kallum_motion_pilot,2023.2.2,Win32,48.07692308,5ef67612126bfa36576e1b03,65d2b6c8f2eece985d8e374c,65d2b84596fa611396bffb0d,0.0395,0.0395,0,29,29,125,1,seveneight,,,,,,,,,,,,,,,,,,,,,,,,,,,,,,,,,,,,,,,,,,,,,,,,,,,,,,,,,,,,,,,,,,,,,,,,,,,,,,,,,,,,,,,,,,,,,,,,,,,,,,,,,,,,,,,,,,,,,,,,,,,,,,,,,,,,,,,,,
,,5ef67612126bfa36576e1b03,2024-02-18_20h15.19.852,kallum_motion_pilot,2023.2.2,Win32,48.07692308,5ef67612126bfa36576e1b03,65d2b6c8f2eece985d8e374c,65d2b84596fa611396bffb0d,0.0396,0.0396,0,30,30,25,1,onethree,,,,,,,,,,,,,,,,,,,,,,,,,,,,,,,,,,,,,,,,,,,,,,,,,,,,,,,,,,,,,,,,,,,,,,,,,,,,,,,,,,,,,,,,,,,,,,,,,,,,,,,,,,,,,,,,,,,,,,,,,,,,,,,,,,,,,,,,,
,,5ef67612126bfa36576e1b03,2024-02-18_20h15.19.852,kallum_motion_pilot,2023.2.2,Win32,48.07692308,5ef67612126bfa36576e1b03,65d2b6c8f2eece985d8e374c,65d2b84596fa611396bffb0d,0.0397,0.0397,0,31,31,69,1,threefour,,,,,,,,,,,,,,,,,,,,,,,,,,,,,,,,,,,,,,,,,,,,,,,,,,,,,,,,,,,,,,,,,,,,,,,,,,,,,,,,,,,,,,,,,,,,,,,,,,,,,,,,,,,,,,,,,,,,,,,,,,,,,,,,,,,,,,,,,
,,5ef67612126bfa36576e1b03,2024-02-18_20h15.19.852,kallum_motion_pilot,2023.2.2,Win32,48.07692308,5ef67612126bfa36576e1b03,65d2b6c8f2eece985d8e374c,65d2b84596fa611396bffb0d,0.0398,0.0398,0,32,32,139,1,sixeight,,,,,,,,,,,,,,,,,,,,,,,,,,,,,,,,,,,,,,,,,,,,,,,,,,,,,,,,,,,,,,,,,,,,,,,,,,,,,,,,,,,,,,,,,,,,,,,,,,,,,,,,,,,,,,,,,,,,,,,,,,,,,,,,,,,,,,,,,
,,5ef67612126bfa36576e1b03,2024-02-18_20h15.19.852,kallum_motion_pilot,2023.2.2,Win32,48.07692308,5ef67612126bfa36576e1b03,65d2b6c8f2eece985d8e374c,65d2b84596fa611396bffb0d,0.0399,0.0399,0,33,33,148,1,sevenfive,,,,,,,,,,,,,,,,,,,,,,,,,,,,,,,,,,,,,,,,,,,,,,,,,,,,,,,,,,,,,,,,,,,,,,,,,,,,,,,,,,,,,,,,,,,,,,,,,,,,,,,,,,,,,,,,,,,,,,,,,,,,,,,,,,,,,,,,,
,,5ef67612126bfa36576e1b03,2024-02-18_20h15.19.852,kallum_motion_pilot,2023.2.2,Win32,48.07692308,5ef67612126bfa36576e1b03,65d2b6c8f2eece985d8e374c,65d2b84596fa611396bffb0d,0.04,0.04,0,34,34,111,1,eightseven,,,,,,,,,,,,,,,,,,,,,,,,,,,,,,,,,,,,,,,,,,,,,,,,,,,,,,,,,,,,,,,,,,,,,,,,,,,,,,,,,,,,,,,,,,,,,,,,,,,,,,,,,,,,,,,,,,,,,,,,,,,,,,,,,,,,,,,,,
,,5ef67612126bfa36576e1b03,2024-02-18_20h15.19.852,kallum_motion_pilot,2023.2.2,Win32,48.07692308,5ef67612126bfa36576e1b03,65d2b6c8f2eece985d8e374c,65d2b84596fa611396bffb0d,0.0401,0.0401,0,35,35,3,1,twofour,,,,,,,,,,,,,,,,,,,,,,,,,,,,,,,,,,,,,,,,,,,,,,,,,,,,,,,,,,,,,,,,,,,,,,,,,,,,,,,,,,,,,,,,,,,,,,,,,,,,,,,,,,,,,,,,,,,,,,,,,,,,,,,,,,,,,,,,,
,,5ef67612126bfa36576e1b03,2024-02-18_20h15.19.852,kallum_motion_pilot,2023.2.2,Win32,48.07692308,5ef67612126bfa36576e1b03,65d2b6c8f2eece985d8e374c,65d2b84596fa611396bffb0d,0.0402,0.0402,0,36,36,76,1,threeone,,,,,,,,,,,,,,,,,,,,,,,,,,,,,,,,,,,,,,,,,,,,,,,,,,,,,,,,,,,,,,,,,,,,,,,,,,,,,,,,,,,,,,,,,,,,,,,,,,,,,,,,,,,,,,,,,,,,,,,,,,,,,,,,,,,,,,,,,
,,5ef67612126bfa36576e1b03,2024-02-18_20h15.19.852,kallum_motion_pilot,2023.2.2,Win32,48.07692308,5ef67612126bfa36576e1b03,65d2b6c8f2eece985d8e374c,65d2b84596fa611396bffb0d,0.0403,0.0404,0,37,37,95,1,eightseven,,,,,,,,,,,,,,,,,,,,,,,,,,,,,,,,,,,,,,,,,,,,,,,,,,,,,,,,,,,,,,,,,,,,,,,,,,,,,,,,,,,,,,,,,,,,,,,,,,,,,,,,,,,,,,,,,,,,,,,,,,,,,,,,,,,,,,,,,
,,5ef67612126bfa36576e1b03,2024-02-18_20h15.19.852,kallum_motion_pilot,2023.2.2,Win32,48.07692308,5ef67612126bfa36576e1b03,65d2b6c8f2eece985d8e374c,65d2b84596fa611396bffb0d,0.0404,0.0404,0,38,38,121,1,fiveseven,,,,,,,,,,,,,,,,,,,,,,,,,,,,,,,,,,,,,,,,,,,,,,,,,,,,,,,,,,,,,,,,,,,,,,,,,,,,,,,,,,,,,,,,,,,,,,,,,,,,,,,,,,,,,,,,,,,,,,,,,,,,,,,,,,,,,,,,,
,,5ef67612126bfa36576e1b03,2024-02-18_20h15.19.852,kallum_motion_pilot,2023.2.2,Win32,48.07692308,5ef67612126bfa36576e1b03,65d2b6c8f2eece985d8e374c,65d2b84596fa611396bffb0d,0.0405,0.0405,0,39,39,90,1,sixfive,,,,,,,,,,,,,,,,,,,,,,,,,,,,,,,,,,,,,,,,,,,,,,,,,,,,,,,,,,,,,,,,,,,,,,,,,,,,,,,,,,,,,,,,,,,,,,,,,,,,,,,,,,,,,,,,,,,,,,,,,,,,,,,,,,,,,,,,,
,,5ef67612126bfa36576e1b03,2024-02-18_20h15.19.852,kallum_motion_pilot,2023.2.2,Win32,48.07692308,5ef67612126bfa36576e1b03,65d2b6c8f2eece985d8e374c,65d2b84596fa611396bffb0d,0.0406,0.0406,0,40,40,52,1,threeone,,,,,,,,,,,,,,,,,,,,,,,,,,,,,,,,,,,,,,,,,,,,,,,,,,,,,,,,,,,,,,,,,,,,,,,,,,,,,,,,,,,,,,,,,,,,,,,,,,,,,,,,,,,,,,,,,,,,,,,,,,,,,,,,,,,,,,,,,
,,5ef67612126bfa36576e1b03,2024-02-18_20h15.19.852,kallum_motion_pilot,2023.2.2,Win32,48.07692308,5ef67612126bfa36576e1b03,65d2b6c8f2eece985d8e374c,65d2b84596fa611396bffb0d,0.0407,0.0407,0,41,41,50,1,twoone,,,,,,,,,,,,,,,,,,,,,,,,,,,,,,,,,,,,,,,,,,,,,,,,,,,,,,,,,,,,,,,,,,,,,,,,,,,,,,,,,,,,,,,,,,,,,,,,,,,,,,,,,,,,,,,,,,,,,,,,,,,,,,,,,,,,,,,,,
,,5ef67612126bfa36576e1b03,2024-02-18_20h15.19.852,kallum_motion_pilot,2023.2.2,Win32,48.07692308,5ef67612126bfa36576e1b03,65d2b6c8f2eece985d8e374c,65d2b84596fa611396bffb0d,0.0408,0.0408,0,42,42,22,1,fourtwo,,,,,,,,,,,,,,,,,,,,,,,,,,,,,,,,,,,,,,,,,,,,,,,,,,,,,,,,,,,,,,,,,,,,,,,,,,,,,,,,,,,,,,,,,,,,,,,,,,,,,,,,,,,,,,,,,,,,,,,,,,,,,,,,,,,,,,,,,
,,5ef67612126bfa36576e1b03,2024-02-18_20h15.19.852,kallum_motion_pilot,2023.2.2,Win32,48.07692308,5ef67612126bfa36576e1b03,65d2b6c8f2eece985d8e374c,65d2b84596fa611396bffb0d,0.0409,0.0409,0,43,43,77,1,threefour,,,,,,,,,,,,,,,,,,,,,,,,,,,,,,,,,,,,,,,,,,,,,,,,,,,,,,,,,,,,,,,,,,,,,,,,,,,,,,,,,,,,,,,,,,,,,,,,,,,,,,,,,,,,,,,,,,,,,,,,,,,,,,,,,,,,,,,,,
,,5ef67612126bfa36576e1b03,2024-02-18_20h15.19.852,kallum_motion_pilot,2023.2.2,Win32,48.07692308,5ef67612126bfa36576e1b03,65d2b6c8f2eece985d8e374c,65d2b84596fa611396bffb0d,0.041,0.0411,0,44,44,62,1,fourtwo,,,,,,,,,,,,,,,,,,,,,,,,,,,,,,,,,,,,,,,,,,,,,,,,,,,,,,,,,,,,,,,,,,,,,,,,,,,,,,,,,,,,,,,,,,,,,,,,,,,,,,,,,,,,,,,,,,,,,,,,,,,,,,,,,,,,,,,,,
,,5ef67612126bfa36576e1b03,2024-02-18_20h15.19.852,kallum_motion_pilot,2023.2.2,Win32,48.07692308,5ef67612126bfa36576e1b03,65d2b6c8f2eece985d8e374c,65d2b84596fa611396bffb0d,0.0412,0.0413,0,45,45,106,1,sixfive,,,,,,,,,,,,,,,,,,,,,,,,,,,,,,,,,,,,,,,,,,,,,,,,,,,,,,,,,,,,,,,,,,,,,,,,,,,,,,,,,,,,,,,,,,,,,,,,,,,,,,,,,,,,,,,,,,,,,,,,,,,,,,,,,,,,,,,,,
,,5ef67612126bfa36576e1b03,2024-02-18_20h15.19.852,kallum_motion_pilot,2023.2.2,Win32,48.07692308,5ef67612126bfa36576e1b03,65d2b6c8f2eece985d8e374c,65d2b84596fa611396bffb0d,0.0414,0.0415,0,46,46,20,1,threeone,,,,,,,,,,,,,,,,,,,,,,,,,,,,,,,,,,,,,,,,,,,,,,,,,,,,,,,,,,,,,,,,,,,,,,,,,,,,,,,,,,,,,,,,,,,,,,,,,,,,,,,,,,,,,,,,,,,,,,,,,,,,,,,,,,,,,,,,,
,,5ef67612126bfa36576e1b03,2024-02-18_20h15.19.852,kallum_motion_pilot,2023.2.2,Win32,48.07692308,5ef67612126bfa36576e1b03,65d2b6c8f2eece985d8e374c,65d2b84596fa611396bffb0d,0.0416,0.0417,0,47,47,21,1,threefour,,,,,,,,,,,,,,,,,,,,,,,,,,,,,,,,,,,,,,,,,,,,,,,,,,,,,,,,,,,,,,,,,,,,,,,,,,,,,,,,,,,,,,,,,,,,,,,,,,,,,,,,,,,,,,,,,,,,,,,,,,,,,,,,,,,,,,,,,
,,5ef67612126bfa36576e1b03,2024-02-18_20h15.19.852,kallum_motion_pilot,2023.2.2,Win32,48.07692308,5ef67612126bfa36576e1b03,65d2b6c8f2eece985d8e374c,65d2b84596fa611396bffb0d,0.0419,0.042,0,48,48,64,1,onetwo,,,,,,,,,,,,,,,,,,,,,,,,,,,,,,,,,,,,,,,,,,,,,,,,,,,,,,,,,,,,,,,,,,,,,,,,,,,,,,,,,,,,,,,,,,,,,,,,,,,,,,,,,,,,,,,,,,,,,,,,,,,,,,,,,,,,,,,,,
,,5ef67612126bfa36576e1b03,2024-02-18_20h15.19.852,kallum_motion_pilot,2023.2.2,Win32,48.07692308,5ef67612126bfa36576e1b03,65d2b6c8f2eece985d8e374c,65d2b84596fa611396bffb0d,0.0422,0.0422,0,49,49,119,1,eightseven,,,,,,,,,,,,,,,,,,,,,,,,,,,,,,,,,,,,,,,,,,,,,,,,,,,,,,,,,,,,,,,,,,,,,,,,,,,,,,,,,,,,,,,,,,,,,,,,,,,,,,,,,,,,,,,,,,,,,,,,,,,,,,,,,,,,,,,,,
,,5ef67612126bfa36576e1b03,2024-02-18_20h15.19.852,kallum_motion_pilot,2023.2.2,Win32,48.07692308,5ef67612126bfa36576e1b03,65d2b6c8f2eece985d8e374c,65d2b84596fa611396bffb0d,0.0424,0.0424,0,50,50,120,1,fivesix,,,,,,,,,,,,,,,,,,,,,,,,,,,,,,,,,,,,,,,,,,,,,,,,,,,,,,,,,,,,,,,,,,,,,,,,,,,,,,,,,,,,,,,,,,,,,,,,,,,,,,,,,,,,,,,,,,,,,,,,,,,,,,,,,,,,,,,,,
,,5ef67612126bfa36576e1b03,2024-02-18_20h15.19.852,kallum_motion_pilot,2023.2.2,Win32,48.07692308,5ef67612126bfa36576e1b03,65d2b6c8f2eece985d8e374c,65d2b84596fa611396bffb0d,0.0428,0.043,0,51,51,124,1,sevenfive,,,,,,,,,,,,,,,,,,,,,,,,,,,,,,,,,,,,,,,,,,,,,,,,,,,,,,,,,,,,,,,,,,,,,,,,,,,,,,,,,,,,,,,,,,,,,,,,,,,,,,,,,,,,,,,,,,,,,,,,,,,,,,,,,,,,,,,,,
,,5ef67612126bfa36576e1b03,2024-02-18_20h15.19.852,kallum_motion_pilot,2023.2.2,Win32,48.07692308,5ef67612126bfa36576e1b03,65d2b6c8f2eece985d8e374c,65d2b84596fa611396bffb0d,0.0432,0.0433,0,52,52,135,1,eightseven,,,,,,,,,,,,,,,,,,,,,,,,,,,,,,,,,,,,,,,,,,,,,,,,,,,,,,,,,,,,,,,,,,,,,,,,,,,,,,,,,,,,,,,,,,,,,,,,,,,,,,,,,,,,,,,,,,,,,,,,,,,,,,,,,,,,,,,,,
,,5ef67612126bfa36576e1b03,2024-02-18_20h15.19.852,kallum_motion_pilot,2023.2.2,Win32,48.07692308,5ef67612126bfa36576e1b03,65d2b6c8f2eece985d8e374c,65d2b84596fa611396bffb0d,0.0434,0.0434,0,53,53,24,1,onetwo,,,,,,,,,,,,,,,,,,,,,,,,,,,,,,,,,,,,,,,,,,,,,,,,,,,,,,,,,,,,,,,,,,,,,,,,,,,,,,,,,,,,,,,,,,,,,,,,,,,,,,,,,,,,,,,,,,,,,,,,,,,,,,,,,,,,,,,,,
,,5ef67612126bfa36576e1b03,2024-02-18_20h15.19.852,kallum_motion_pilot,2023.2.2,Win32,48.07692308,5ef67612126bfa36576e1b03,65d2b6c8f2eece985d8e374c,65d2b84596fa611396bffb0d,0.0435,0.0435,0,54,54,31,1,fourthree,,,,,,,,,,,,,,,,,,,,,,,,,,,,,,,,,,,,,,,,,,,,,,,,,,,,,,,,,,,,,,,,,,,,,,,,,,,,,,,,,,,,,,,,,,,,,,,,,,,,,,,,,,,,,,,,,,,,,,,,,,,,,,,,,,,,,,,,,
,,5ef67612126bfa36576e1b03,2024-02-18_20h15.19.852,kallum_motion_pilot,2023.2.2,Win32,48.07692308,5ef67612126bfa36576e1b03,65d2b6c8f2eece985d8e374c,65d2b84596fa611396bffb0d,0.0437,0.0437,0,55,55,45,1,threefour,,,,,,,,,,,,,,,,,,,,,,,,,,,,,,,,,,,,,,,,,,,,,,,,,,,,,,,,,,,,,,,,,,,,,,,,,,,,,,,,,,,,,,,,,,,,,,,,,,,,,,,,,,,,,,,,,,,,,,,,,,,,,,,,,,,,,,,,,
,,5ef67612126bfa36576e1b03,2024-02-18_20h15.19.852,kallum_motion_pilot,2023.2.2,Win32,48.07692308,5ef67612126bfa36576e1b03,65d2b6c8f2eece985d8e374c,65d2b84596fa611396bffb0d,0.0438,0.0438,0,56,56,38,1,fourtwo,,,,,,,,,,,,,,,,,,,,,,,,,,,,,,,,,,,,,,,,,,,,,,,,,,,,,,,,,,,,,,,,,,,,,,,,,,,,,,,,,,,,,,,,,,,,,,,,,,,,,,,,,,,,,,,,,,,,,,,,,,,,,,,,,,,,,,,,,
,,5ef67612126bfa36576e1b03,2024-02-18_20h15.19.852,kallum_motion_pilot,2023.2.2,Win32,48.07692308,5ef67612126bfa36576e1b03,65d2b6c8f2eece985d8e374c,65d2b84596fa611396bffb0d,0.0439,0.0441,0,57,57,2,1,twoone,,,,,,,,,,,,,,,,,,,,,,,,,,,,,,,,,,,,,,,,,,,,,,,,,,,,,,,,,,,,,,,,,,,,,,,,,,,,,,,,,,,,,,,,,,,,,,,,,,,,,,,,,,,,,,,,,,,,,,,,,,,,,,,,,,,,,,,,,
,,5ef67612126bfa36576e1b03,2024-02-18_20h15.19.852,kallum_motion_pilot,2023.2.2,Win32,48.07692308,5ef67612126bfa36576e1b03,65d2b6c8f2eece985d8e374c,65d2b84596fa611396bffb0d,0.0442,0.0443,0,58,58,144,1,fivesix,,,,,,,,,,,,,,,,,,,,,,,,,,,,,,,,,,,,,,,,,,,,,,,,,,,,,,,,,,,,,,,,,,,,,,,,,,,,,,,,,,,,,,,,,,,,,,,,,,,,,,,,,,,,,,,,,,,,,,,,,,,,,,,,,,,,,,,,,
,,5ef67612126bfa36576e1b03,2024-02-18_20h15.19.852,kallum_motion_pilot,2023.2.2,Win32,48.07692308,5ef67612126bfa36576e1b03,65d2b6c8f2eece985d8e374c,65d2b84596fa611396bffb0d,0.0443,0.0444,0,59,59,7,1,fourthree,,,,,,,,,,,,,,,,,,,,,,,,,,,,,,,,,,,,,,,,,,,,,,,,,,,,,,,,,,,,,,,,,,,,,,,,,,,,,,,,,,,,,,,,,,,,,,,,,,,,,,,,,,,,,,,,,,,,,,,,,,,,,,,,,,,,,,,,,
,,5ef67612126bfa36576e1b03,2024-02-18_20h15.19.852,kallum_motion_pilot,2023.2.2,Win32,48.07692308,5ef67612126bfa36576e1b03,65d2b6c8f2eece985d8e374c,65d2b84596fa611396bffb0d,0.0446,0.0446,0,60,60,63,1,fourthree,,,,,,,,,,,,,,,,,,,,,,,,,,,,,,,,,,,,,,,,,,,,,,,,,,,,,,,,,,,,,,,,,,,,,,,,,,,,,,,,,,,,,,,,,,,,,,,,,,,,,,,,,,,,,,,,,,,,,,,,,,,,,,,,,,,,,,,,,
,,5ef67612126bfa36576e1b03,2024-02-18_20h15.19.852,kallum_motion_pilot,2023.2.2,Win32,48.07692308,5ef67612126bfa36576e1b03,65d2b6c8f2eece985d8e374c,65d2b84596fa611396bffb0d,0.0446,0.0447,0,61,61,84,1,sevenfive,,,,,,,,,,,,,,,,,,,,,,,,,,,,,,,,,,,,,,,,,,,,,,,,,,,,,,,,,,,,,,,,,,,,,,,,,,,,,,,,,,,,,,,,,,,,,,,,,,,,,,,,,,,,,,,,,,,,,,,,,,,,,,,,,,,,,,,,,
,,5ef67612126bfa36576e1b03,2024-02-18_20h15.19.852,kallum_motion_pilot,2023.2.2,Win32,48.07692308,5ef67612126bfa36576e1b03,65d2b6c8f2eece985d8e374c,65d2b84596fa611396bffb0d,0.0448,0.0448,0,62,62,10,1,twoone,,,,,,,,,,,,,,,,,,,,,,,,,,,,,,,,,,,,,,,,,,,,,,,,,,,,,,,,,,,,,,,,,,,,,,,,,,,,,,,,,,,,,,,,,,,,,,,,,,,,,,,,,,,,,,,,,,,,,,,,,,,,,,,,,,,,,,,,,
,,5ef67612126bfa36576e1b03,2024-02-18_20h15.19.852,kallum_motion_pilot,2023.2.2,Win32,48.07692308,5ef67612126bfa36576e1b03,65d2b6c8f2eece985d8e374c,65d2b84596fa611396bffb0d,0.0451,0.0451,0,63,63,65,1,onethree,,,,,,,,,,,,,,,,,,,,,,,,,,,,,,,,,,,,,,,,,,,,,,,,,,,,,,,,,,,,,,,,,,,,,,,,,,,,,,,,,,,,,,,,,,,,,,,,,,,,,,,,,,,,,,,,,,,,,,,,,,,,,,,,,,,,,,,,,
,,5ef67612126bfa36576e1b03,2024-02-18_20h15.19.852,kallum_motion_pilot,2023.2.2,Win32,48.07692308,5ef67612126bfa36576e1b03,65d2b6c8f2eece985d8e374c,65d2b84596fa611396bffb0d,0.0453,0.0453,0,64,64,89,1,fiveseven,,,,,,,,,,,,,,,,,,,,,,,,,,,,,,,,,,,,,,,,,,,,,,,,,,,,,,,,,,,,,,,,,,,,,,,,,,,,,,,,,,,,,,,,,,,,,,,,,,,,,,,,,,,,,,,,,,,,,,,,,,,,,,,,,,,,,,,,,
,,5ef67612126bfa36576e1b03,2024-02-18_20h15.19.852,kallum_motion_pilot,2023.2.2,Win32,48.07692308,5ef67612126bfa36576e1b03,65d2b6c8f2eece985d8e374c,65d2b84596fa611396bffb0d,0.0454,0.0454,0,65,65,37,1,threefour,,,,,,,,,,,,,,,,,,,,,,,,,,,,,,,,,,,,,,,,,,,,,,,,,,,,,,,,,,,,,,,,,,,,,,,,,,,,,,,,,,,,,,,,,,,,,,,,,,,,,,,,,,,,,,,,,,,,,,,,,,,,,,,,,,,,,,,,,
,,5ef67612126bfa36576e1b03,2024-02-18_20h15.19.852,kallum_motion_pilot,2023.2.2,Win32,48.07692308,5ef67612126bfa36576e1b03,65d2b6c8f2eece985d8e374c,65d2b84596fa611396bffb0d,0.0456,0.0458,0,66,66,157,1,seveneight,,,,,,,,,,,,,,,,,,,,,,,,,,,,,,,,,,,,,,,,,,,,,,,,,,,,,,,,,,,,,,,,,,,,,,,,,,,,,,,,,,,,,,,,,,,,,,,,,,,,,,,,,,,,,,,,,,,,,,,,,,,,,,,,,,,,,,,,,
,,5ef67612126bfa36576e1b03,2024-02-18_20h15.19.852,kallum_motion_pilot,2023.2.2,Win32,48.07692308,5ef67612126bfa36576e1b03,65d2b6c8f2eece985d8e374c,65d2b84596fa611396bffb0d,0.0461,0.0461,0,67,67,131,1,sixeight,,,,,,,,,,,,,,,,,,,,,,,,,,,,,,,,,,,,,,,,,,,,,,,,,,,,,,,,,,,,,,,,,,,,,,,,,,,,,,,,,,,,,,,,,,,,,,,,,,,,,,,,,,,,,,,,,,,,,,,,,,,,,,,,,,,,,,,,,
,,5ef67612126bfa36576e1b03,2024-02-18_20h15.19.852,kallum_motion_pilot,2023.2.2,Win32,48.07692308,5ef67612126bfa36576e1b03,65d2b6c8f2eece985d8e374c,65d2b84596fa611396bffb0d,0.0462,0.0463,0,68,68,56,1,onetwo,,,,,,,,,,,,,,,,,,,,,,,,,,,,,,,,,,,,,,,,,,,,,,,,,,,,,,,,,,,,,,,,,,,,,,,,,,,,,,,,,,,,,,,,,,,,,,,,,,,,,,,,,,,,,,,,,,,,,,,,,,,,,,,,,,,,,,,,,
,,5ef67612126bfa36576e1b03,2024-02-18_20h15.19.852,kallum_motion_pilot,2023.2.2,Win32,48.07692308,5ef67612126bfa36576e1b03,65d2b6c8f2eece985d8e374c,65d2b84596fa611396bffb0d,0.0463,0.0464,0,69,69,110,1,eightsix,,,,,,,,,,,,,,,,,,,,,,,,,,,,,,,,,,,,,,,,,,,,,,,,,,,,,,,,,,,,,,,,,,,,,,,,,,,,,,,,,,,,,,,,,,,,,,,,,,,,,,,,,,,,,,,,,,,,,,,,,,,,,,,,,,,,,,,,,
,,5ef67612126bfa36576e1b03,2024-02-18_20h15.19.852,kallum_motion_pilot,2023.2.2,Win32,48.07692308,5ef67612126bfa36576e1b03,65d2b6c8f2eece985d8e374c,65d2b84596fa611396bffb0d,0.0464,0.0465,0,70,70,138,1,sixfive,,,,,,,,,,,,,,,,,,,,,,,,,,,,,,,,,,,,,,,,,,,,,,,,,,,,,,,,,,,,,,,,,,,,,,,,,,,,,,,,,,,,,,,,,,,,,,,,,,,,,,,,,,,,,,,,,,,,,,,,,,,,,,,,,,,,,,,,,
,,5ef67612126bfa36576e1b03,2024-02-18_20h15.19.852,kallum_motion_pilot,2023.2.2,Win32,48.07692308,5ef67612126bfa36576e1b03,65d2b6c8f2eece985d8e374c,65d2b84596fa611396bffb0d,0.0465,0.0465,0,71,71,6,1,fourtwo,,,,,,,,,,,,,,,,,,,,,,,,,,,,,,,,,,,,,,,,,,,,,,,,,,,,,,,,,,,,,,,,,,,,,,,,,,,,,,,,,,,,,,,,,,,,,,,,,,,,,,,,,,,,,,,,,,,,,,,,,,,,,,,,,,,,,,,,,
,,5ef67612126bfa36576e1b03,2024-02-18_20h15.19.852,kallum_motion_pilot,2023.2.2,Win32,48.07692308,5ef67612126bfa36576e1b03,65d2b6c8f2eece985d8e374c,65d2b84596fa611396bffb0d,0.0466,0.0466,0,72,72,113,1,fiveseven,,,,,,,,,,,,,,,,,,,,,,,,,,,,,,,,,,,,,,,,,,,,,,,,,,,,,,,,,,,,,,,,,,,,,,,,,,,,,,,,,,,,,,,,,,,,,,,,,,,,,,,,,,,,,,,,,,,,,,,,,,,,,,,,,,,,,,,,,
,,5ef67612126bfa36576e1b03,2024-02-18_20h15.19.852,kallum_motion_pilot,2023.2.2,Win32,48.07692308,5ef67612126bfa36576e1b03,65d2b6c8f2eece985d8e374c,65d2b84596fa611396bffb0d,0.0467,0.0468,0,73,73,136,1,fivesix,,,,,,,,,,,,,,,,,,,,,,,,,,,,,,,,,,,,,,,,,,,,,,,,,,,,,,,,,,,,,,,,,,,,,,,,,,,,,,,,,,,,,,,,,,,,,,,,,,,,,,,,,,,,,,,,,,,,,,,,,,,,,,,,,,,,,,,,,
,,5ef67612126bfa36576e1b03,2024-02-18_20h15.19.852,kallum_motion_pilot,2023.2.2,Win32,48.07692308,5ef67612126bfa36576e1b03,65d2b6c8f2eece985d8e374c,65d2b84596fa611396bffb0d,0.0469,0.0469,0,74,74,47,1,fourthree,,,,,,,,,,,,,,,,,,,,,,,,,,,,,,,,,,,,,,,,,,,,,,,,,,,,,,,,,,,,,,,,,,,,,,,,,,,,,,,,,,,,,,,,,,,,,,,,,,,,,,,,,,,,,,,,,,,,,,,,,,,,,,,,,,,,,,,,,
,,5ef67612126bfa36576e1b03,2024-02-18_20h15.19.852,kallum_motion_pilot,2023.2.2,Win32,48.07692308,5ef67612126bfa36576e1b03,65d2b6c8f2eece985d8e374c,65d2b84596fa611396bffb0d,0.047,0.047,0,75,75,98,1,sixfive,,,,,,,,,,,,,,,,,,,,,,,,,,,,,,,,,,,,,,,,,,,,,,,,,,,,,,,,,,,,,,,,,,,,,,,,,,,,,,,,,,,,,,,,,,,,,,,,,,,,,,,,,,,,,,,,,,,,,,,,,,,,,,,,,,,,,,,,,
,,5ef67612126bfa36576e1b03,2024-02-18_20h15.19.852,kallum_motion_pilot,2023.2.2,Win32,48.07692308,5ef67612126bfa36576e1b03,65d2b6c8f2eece985d8e374c,65d2b84596fa611396bffb0d,0.047,0.0471,0,76,76,57,1,onethree,,,,,,,,,,,,,,,,,,,,,,,,,,,,,,,,,,,,,,,,,,,,,,,,,,,,,,,,,,,,,,,,,,,,,,,,,,,,,,,,,,,,,,,,,,,,,,,,,,,,,,,,,,,,,,,,,,,,,,,,,,,,,,,,,,,,,,,,,
,,5ef67612126bfa36576e1b03,2024-02-18_20h15.19.852,kallum_motion_pilot,2023.2.2,Win32,48.07692308,5ef67612126bfa36576e1b03,65d2b6c8f2eece985d8e374c,65d2b84596fa611396bffb0d,0.0471,0.0471,0,77,77,145,1,fiveseven,,,,,,,,,,,,,,,,,,,,,,,,,,,,,,,,,,,,,,,,,,,,,,,,,,,,,,,,,,,,,,,,,,,,,,,,,,,,,,,,,,,,,,,,,,,,,,,,,,,,,,,,,,,,,,,,,,,,,,,,,,,,,,,,,,,,,,,,,
,,5ef67612126bfa36576e1b03,2024-02-18_20h15.19.852,kallum_motion_pilot,2023.2.2,Win32,48.07692308,5ef67612126bfa36576e1b03,65d2b6c8f2eece985d8e374c,65d2b84596fa611396bffb0d,0.0472,0.0473,0,78,78,13,1,threefour,,,,,,,,,,,,,,,,,,,,,,,,,,,,,,,,,,,,,,,,,,,,,,,,,,,,,,,,,,,,,,,,,,,,,,,,,,,,,,,,,,,,,,,,,,,,,,,,,,,,,,,,,,,,,,,,,,,,,,,,,,,,,,,,,,,,,,,,,
,,5ef67612126bfa36576e1b03,2024-02-18_20h15.19.852,kallum_motion_pilot,2023.2.2,Win32,48.07692308,5ef67612126bfa36576e1b03,65d2b6c8f2eece985d8e374c,65d2b84596fa611396bffb0d,0.0473,0.0474,0,79,79,9,1,onethree,,,,,,,,,,,,,,,,,,,,,,,,,,,,,,,,,,,,,,,,,,,,,,,,,,,,,,,,,,,,,,,,,,,,,,,,,,,,,,,,,,,,,,,,,,,,,,,,,,,,,,,,,,,,,,,,,,,,,,,,,,,,,,,,,,,,,,,,,
,,5ef67612126bfa36576e1b03,2024-02-18_20h15.19.852,kallum_motion_pilot,2023.2.2,Win32,48.07692308,5ef67612126bfa36576e1b03,65d2b6c8f2eece985d8e374c,65d2b84596fa611396bffb0d,0.0475,0.0475,0,80,80,59,1,twofour,,,,,,,,,,,,,,,,,,,,,,,,,,,,,,,,,,,,,,,,,,,,,,,,,,,,,,,,,,,,,,,,,,,,,,,,,,,,,,,,,,,,,,,,,,,,,,,,,,,,,,,,,,,,,,,,,,,,,,,,,,,,,,,,,,,,,,,,,
,,5ef67612126bfa36576e1b03,2024-02-18_20h15.19.852,kallum_motion_pilot,2023.2.2,Win32,48.07692308,5ef67612126bfa36576e1b03,65d2b6c8f2eece985d8e374c,65d2b84596fa611396bffb0d,0.0475,0.0475,0,81,81,18,1,twoone,,,,,,,,,,,,,,,,,,,,,,,,,,,,,,,,,,,,,,,,,,,,,,,,,,,,,,,,,,,,,,,,,,,,,,,,,,,,,,,,,,,,,,,,,,,,,,,,,,,,,,,,,,,,,,,,,,,,,,,,,,,,,,,,,,,,,,,,,
,,5ef67612126bfa36576e1b03,2024-02-18_20h15.19.852,kallum_motion_pilot,2023.2.2,Win32,48.07692308,5ef67612126bfa36576e1b03,65d2b6c8f2eece985d8e374c,65d2b84596fa611396bffb0d,0.0477,0.0477,0,82,82,99,1,sixeight,,,,,,,,,,,,,,,,,,,,,,,,,,,,,,,,,,,,,,,,,,,,,,,,,,,,,,,,,,,,,,,,,,,,,,,,,,,,,,,,,,,,,,,,,,,,,,,,,,,,,,,,,,,,,,,,,,,,,,,,,,,,,,,,,,,,,,,,,
,,5ef67612126bfa36576e1b03,2024-02-18_20h15.19.852,kallum_motion_pilot,2023.2.2,Win32,48.07692308,5ef67612126bfa36576e1b03,65d2b6c8f2eece985d8e374c,65d2b84596fa611396bffb0d,0.0478,0.0478,0,83,83,12,1,threeone,,,,,,,,,,,,,,,,,,,,,,,,,,,,,,,,,,,,,,,,,,,,,,,,,,,,,,,,,,,,,,,,,,,,,,,,,,,,,,,,,,,,,,,,,,,,,,,,,,,,,,,,,,,,,,,,,,,,,,,,,,,,,,,,,,,,,,,,,
,,5ef67612126bfa36576e1b03,2024-02-18_20h15.19.852,kallum_motion_pilot,2023.2.2,Win32,48.07692308,5ef67612126bfa36576e1b03,65d2b6c8f2eece985d8e374c,65d2b84596fa611396bffb0d,0.0479,0.0479,0,84,84,61,1,threefour,,,,,,,,,,,,,,,,,,,,,,,,,,,,,,,,,,,,,,,,,,,,,,,,,,,,,,,,,,,,,,,,,,,,,,,,,,,,,,,,,,,,,,,,,,,,,,,,,,,,,,,,,,,,,,,,,,,,,,,,,,,,,,,,,,,,,,,,,
,,5ef67612126bfa36576e1b03,2024-02-18_20h15.19.852,kallum_motion_pilot,2023.2.2,Win32,48.07692308,5ef67612126bfa36576e1b03,65d2b6c8f2eece985d8e374c,65d2b84596fa611396bffb0d,0.048,0.048,0,85,85,126,1,eightsix,,,,,,,,,,,,,,,,,,,,,,,,,,,,,,,,,,,,,,,,,,,,,,,,,,,,,,,,,,,,,,,,,,,,,,,,,,,,,,,,,,,,,,,,,,,,,,,,,,,,,,,,,,,,,,,,,,,,,,,,,,,,,,,,,,,,,,,,,
,,5ef67612126bfa36576e1b03,2024-02-18_20h15.19.852,kallum_motion_pilot,2023.2.2,Win32,48.07692308,5ef67612126bfa36576e1b03,65d2b6c8f2eece985d8e374c,65d2b84596fa611396bffb0d,0.0481,0.0481,0,86,86,71,1,fourthree,,,,,,,,,,,,,,,,,,,,,,,,,,,,,,,,,,,,,,,,,,,,,,,,,,,,,,,,,,,,,,,,,,,,,,,,,,,,,,,,,,,,,,,,,,,,,,,,,,,,,,,,,,,,,,,,,,,,,,,,,,,,,,,,,,,,,,,,,
,,5ef67612126bfa36576e1b03,2024-02-18_20h15.19.852,kallum_motion_pilot,2023.2.2,Win32,48.07692308,5ef67612126bfa36576e1b03,65d2b6c8f2eece985d8e374c,65d2b84596fa611396bffb0d,0.0482,0.0483,0,87,87,96,1,fivesix,,,,,,,,,,,,,,,,,,,,,,,,,,,,,,,,,,,,,,,,,,,,,,,,,,,,,,,,,,,,,,,,,,,,,,,,,,,,,,,,,,,,,,,,,,,,,,,,,,,,,,,,,,,,,,,,,,,,,,,,,,,,,,,,,,,,,,,,,
,,5ef67612126bfa36576e1b03,2024-02-18_20h15.19.852,kallum_motion_pilot,2023.2.2,Win32,48.07692308,5ef67612126bfa36576e1b03,65d2b6c8f2eece985d8e374c,65d2b84596fa611396bffb0d,0.0484,0.0484,0,88,88,105,1,fiveseven,,,,,,,,,,,,,,,,,,,,,,,,,,,,,,,,,,,,,,,,,,,,,,,,,,,,,,,,,,,,,,,,,,,,,,,,,,,,,,,,,,,,,,,,,,,,,,,,,,,,,,,,,,,,,,,,,,,,,,,,,,,,,,,,,,,,,,,,,
,,5ef67612126bfa36576e1b03,2024-02-18_20h15.19.852,kallum_motion_pilot,2023.2.2,Win32,48.07692308,5ef67612126bfa36576e1b03,65d2b6c8f2eece985d8e374c,65d2b84596fa611396bffb0d,0.0485,0.0485,0,89,89,143,1,eightseven,,,,,,,,,,,,,,,,,,,,,,,,,,,,,,,,,,,,,,,,,,,,,,,,,,,,,,,,,,,,,,,,,,,,,,,,,,,,,,,,,,,,,,,,,,,,,,,,,,,,,,,,,,,,,,,,,,,,,,,,,,,,,,,,,,,,,,,,,
,,5ef67612126bfa36576e1b03,2024-02-18_20h15.19.852,kallum_motion_pilot,2023.2.2,Win32,48.07692308,5ef67612126bfa36576e1b03,65d2b6c8f2eece985d8e374c,65d2b84596fa611396bffb0d,0.0486,0.0497,0,90,90,150,1,eightsix,,,,,,,,,,,,,,,,,,,,,,,,,,,,,,,,,,,,,,,,,,,,,,,,,,,,,,,,,,,,,,,,,,,,,,,,,,,,,,,,,,,,,,,,,,,,,,,,,,,,,,,,,,,,,,,,,,,,,,,,,,,,,,,,,,,,,,,,,
,,5ef67612126bfa36576e1b03,2024-02-18_20h15.19.852,kallum_motion_pilot,2023.2.2,Win32,48.07692308,5ef67612126bfa36576e1b03,65d2b6c8f2eece985d8e374c,65d2b84596fa611396bffb0d,0.05,0.05,0,91,91,149,1,seveneight,,,,,,,,,,,,,,,,,,,,,,,,,,,,,,,,,,,,,,,,,,,,,,,,,,,,,,,,,,,,,,,,,,,,,,,,,,,,,,,,,,,,,,,,,,,,,,,,,,,,,,,,,,,,,,,,,,,,,,,,,,,,,,,,,,,,,,,,,
,,5ef67612126bfa36576e1b03,2024-02-18_20h15.19.852,kallum_motion_pilot,2023.2.2,Win32,48.07692308,5ef67612126bfa36576e1b03,65d2b6c8f2eece985d8e374c,65d2b84596fa611396bffb0d,0.0502,0.0502,0,92,92,156,1,sevenfive,,,,,,,,,,,,,,,,,,,,,,,,,,,,,,,,,,,,,,,,,,,,,,,,,,,,,,,,,,,,,,,,,,,,,,,,,,,,,,,,,,,,,,,,,,,,,,,,,,,,,,,,,,,,,,,,,,,,,,,,,,,,,,,,,,,,,,,,,
,,5ef67612126bfa36576e1b03,2024-02-18_20h15.19.852,kallum_motion_pilot,2023.2.2,Win32,48.07692308,5ef67612126bfa36576e1b03,65d2b6c8f2eece985d8e374c,65d2b84596fa611396bffb0d,0.0503,0.0504,0,93,93,161,1,fiveseven,,,,,,,,,,,,,,,,,,,,,,,,,,,,,,,,,,,,,,,,,,,,,,,,,,,,,,,,,,,,,,,,,,,,,,,,,,,,,,,,,,,,,,,,,,,,,,,,,,,,,,,,,,,,,,,,,,,,,,,,,,,,,,,,,,,,,,,,,
,,5ef67612126bfa36576e1b03,2024-02-18_20h15.19.852,kallum_motion_pilot,2023.2.2,Win32,48.07692308,5ef67612126bfa36576e1b03,65d2b6c8f2eece985d8e374c,65d2b84596fa611396bffb0d,0.0504,0.0505,0,94,94,101,1,seveneight,,,,,,,,,,,,,,,,,,,,,,,,,,,,,,,,,,,,,,,,,,,,,,,,,,,,,,,,,,,,,,,,,,,,,,,,,,,,,,,,,,,,,,,,,,,,,,,,,,,,,,,,,,,,,,,,,,,,,,,,,,,,,,,,,,,,,,,,,
,,5ef67612126bfa36576e1b03,2024-02-18_20h15.19.852,kallum_motion_pilot,2023.2.2,Win32,48.07692308,5ef67612126bfa36576e1b03,65d2b6c8f2eece985d8e374c,65d2b84596fa611396bffb0d,0.0506,0.0506,0,95,95,28,1,threeone,,,,,,,,,,,,,,,,,,,,,,,,,,,,,,,,,,,,,,,,,,,,,,,,,,,,,,,,,,,,,,,,,,,,,,,,,,,,,,,,,,,,,,,,,,,,,,,,,,,,,,,,,,,,,,,,,,,,,,,,,,,,,,,,,,,,,,,,,
,,5ef67612126bfa36576e1b03,2024-02-18_20h15.19.852,kallum_motion_pilot,2023.2.2,Win32,48.07692308,5ef67612126bfa36576e1b03,65d2b6c8f2eece985d8e374c,65d2b84596fa611396bffb0d,0.0507,0.0507,0,96,96,93,1,seveneight,,,,,,,,,,,,,,,,,,,,,,,,,,,,,,,,,,,,,,,,,,,,,,,,,,,,,,,,,,,,,,,,,,,,,,,,,,,,,,,,,,,,,,,,,,,,,,,,,,,,,,,,,,,,,,,,,,,,,,,,,,,,,,,,,,,,,,,,,
,,5ef67612126bfa36576e1b03,2024-02-18_20h15.19.852,kallum_motion_pilot,2023.2.2,Win32,48.07692308,5ef67612126bfa36576e1b03,65d2b6c8f2eece985d8e374c,65d2b84596fa611396bffb0d,0.0508,0.0509,0,97,97,27,1,twofour,,,,,,,,,,,,,,,,,,,,,,,,,,,,,,,,,,,,,,,,,,,,,,,,,,,,,,,,,,,,,,,,,,,,,,,,,,,,,,,,,,,,,,,,,,,,,,,,,,,,,,,,,,,,,,,,,,,,,,,,,,,,,,,,,,,,,,,,,
,,5ef67612126bfa36576e1b03,2024-02-18_20h15.19.852,kallum_motion_pilot,2023.2.2,Win32,48.07692308,5ef67612126bfa36576e1b03,65d2b6c8f2eece985d8e374c,65d2b84596fa611396bffb0d,0.051,0.051,0,98,98,4,1,threeone,,,,,,,,,,,,,,,,,,,,,,,,,,,,,,,,,,,,,,,,,,,,,,,,,,,,,,,,,,,,,,,,,,,,,,,,,,,,,,,,,,,,,,,,,,,,,,,,,,,,,,,,,,,,,,,,,,,,,,,,,,,,,,,,,,,,,,,,,
,,5ef67612126bfa36576e1b03,2024-02-18_20h15.19.852,kallum_motion_pilot,2023.2.2,Win32,48.07692308,5ef67612126bfa36576e1b03,65d2b6c8f2eece985d8e374c,65d2b84596fa611396bffb0d,0.0511,0.0512,0,99,99,68,1,threeone,,,,,,,,,,,,,,,,,,,,,,,,,,,,,,,,,,,,,,,,,,,,,,,,,,,,,,,,,,,,,,,,,,,,,,,,,,,,,,,,,,,,,,,,,,,,,,,,,,,,,,,,,,,,,,,,,,,,,,,,,,,,,,,,,,,,,,,,,
,,5ef67612126bfa36576e1b03,2024-02-18_20h15.19.852,kallum_motion_pilot,2023.2.2,Win32,48.07692308,5ef67612126bfa36576e1b03,65d2b6c8f2eece985d8e374c,65d2b84596fa611396bffb0d,0.0512,0.0513,0,100,100,79,1,eightseven,,,,,,,,,,,,,,,,,,,,,,,,,,,,,,,,,,,,,,,,,,,,,,,,,,,,,,,,,,,,,,,,,,,,,,,,,,,,,,,,,,,,,,,,,,,,,,,,,,,,,,,,,,,,,,,,,,,,,,,,,,,,,,,,,,,,,,,,,
,,5ef67612126bfa36576e1b03,2024-02-18_20h15.19.852,kallum_motion_pilot,2023.2.2,Win32,48.07692308,5ef67612126bfa36576e1b03,65d2b6c8f2eece985d8e374c,65d2b84596fa611396bffb0d,0.0513,0.0515,0,101,101,80,1,fivesix,,,,,,,,,,,,,,,,,,,,,,,,,,,,,,,,,,,,,,,,,,,,,,,,,,,,,,,,,,,,,,,,,,,,,,,,,,,,,,,,,,,,,,,,,,,,,,,,,,,,,,,,,,,,,,,,,,,,,,,,,,,,,,,,,,,,,,,,,
,,5ef67612126bfa36576e1b03,2024-02-18_20h15.19.852,kallum_motion_pilot,2023.2.2,Win32,48.07692308,5ef67612126bfa36576e1b03,65d2b6c8f2eece985d8e374c,65d2b84596fa611396bffb0d,0.0516,0.0516,0,102,102,66,1,twoone,,,,,,,,,,,,,,,,,,,,,,,,,,,,,,,,,,,,,,,,,,,,,,,,,,,,,,,,,,,,,,,,,,,,,,,,,,,,,,,,,,,,,,,,,,,,,,,,,,,,,,,,,,,,,,,,,,,,,,,,,,,,,,,,,,,,,,,,,
,,5ef67612126bfa36576e1b03,2024-02-18_20h15.19.852,kallum_motion_pilot,2023.2.2,Win32,48.07692308,5ef67612126bfa36576e1b03,65d2b6c8f2eece985d8e374c,65d2b84596fa611396bffb0d,0.0517,0.0518,0,103,103,129,1,fiveseven,,,,,,,,,,,,,,,,,,,,,,,,,,,,,,,,,,,,,,,,,,,,,,,,,,,,,,,,,,,,,,,,,,,,,,,,,,,,,,,,,,,,,,,,,,,,,,,,,,,,,,,,,,,,,,,,,,,,,,,,,,,,,,,,,,,,,,,,,
,,5ef67612126bfa36576e1b03,2024-02-18_20h15.19.852,kallum_motion_pilot,2023.2.2,Win32,48.07692308,5ef67612126bfa36576e1b03,65d2b6c8f2eece985d8e374c,65d2b84596fa611396bffb0d,0.0519,0.052,0,104,104,35,1,twofour,,,,,,,,,,,,,,,,,,,,,,,,,,,,,,,,,,,,,,,,,,,,,,,,,,,,,,,,,,,,,,,,,,,,,,,,,,,,,,,,,,,,,,,,,,,,,,,,,,,,,,,,,,,,,,,,,,,,,,,,,,,,,,,,,,,,,,,,,
,,5ef67612126bfa36576e1b03,2024-02-18_20h15.19.852,kallum_motion_pilot,2023.2.2,Win32,48.07692308,5ef67612126bfa36576e1b03,65d2b6c8f2eece985d8e374c,65d2b84596fa611396bffb0d,0.052,0.052,0,105,105,53,1,threefour,,,,,,,,,,,,,,,,,,,,,,,,,,,,,,,,,,,,,,,,,,,,,,,,,,,,,,,,,,,,,,,,,,,,,,,,,,,,,,,,,,,,,,,,,,,,,,,,,,,,,,,,,,,,,,,,,,,,,,,,,,,,,,,,,,,,,,,,,
,,5ef67612126bfa36576e1b03,2024-02-18_20h15.19.852,kallum_motion_pilot,2023.2.2,Win32,48.07692308,5ef67612126bfa36576e1b03,65d2b6c8f2eece985d8e374c,65d2b84596fa611396bffb0d,0.0522,0.0522,0,106,106,115,1,sixeight,,,,,,,,,,,,,,,,,,,,,,,,,,,,,,,,,,,,,,,,,,,,,,,,,,,,,,,,,,,,,,,,,,,,,,,,,,,,,,,,,,,,,,,,,,,,,,,,,,,,,,,,,,,,,,,,,,,,,,,,,,,,,,,,,,,,,,,,,
,,5ef67612126bfa36576e1b03,2024-02-18_20h15.19.852,kallum_motion_pilot,2023.2.2,Win32,48.07692308,5ef67612126bfa36576e1b03,65d2b6c8f2eece985d8e374c,65d2b84596fa611396bffb0d,0.0523,0.0523,0,107,107,137,1,fiveseven,,,,,,,,,,,,,,,,,,,,,,,,,,,,,,,,,,,,,,,,,,,,,,,,,,,,,,,,,,,,,,,,,,,,,,,,,,,,,,,,,,,,,,,,,,,,,,,,,,,,,,,,,,,,,,,,,,,,,,,,,,,,,,,,,,,,,,,,,
,,5ef67612126bfa36576e1b03,2024-02-18_20h15.19.852,kallum_motion_pilot,2023.2.2,Win32,48.07692308,5ef67612126bfa36576e1b03,65d2b6c8f2eece985d8e374c,65d2b84596fa611396bffb0d,0.0525,0.0525,0,108,108,117,1,seveneight,,,,,,,,,,,,,,,,,,,,,,,,,,,,,,,,,,,,,,,,,,,,,,,,,,,,,,,,,,,,,,,,,,,,,,,,,,,,,,,,,,,,,,,,,,,,,,,,,,,,,,,,,,,,,,,,,,,,,,,,,,,,,,,,,,,,,,,,,
,,5ef67612126bfa36576e1b03,2024-02-18_20h15.19.852,kallum_motion_pilot,2023.2.2,Win32,48.07692308,5ef67612126bfa36576e1b03,65d2b6c8f2eece985d8e374c,65d2b84596fa611396bffb0d,0.0526,0.0526,0,109,109,109,1,seveneight,,,,,,,,,,,,,,,,,,,,,,,,,,,,,,,,,,,,,,,,,,,,,,,,,,,,,,,,,,,,,,,,,,,,,,,,,,,,,,,,,,,,,,,,,,,,,,,,,,,,,,,,,,,,,,,,,,,,,,,,,,,,,,,,,,,,,,,,,
,,5ef67612126bfa36576e1b03,2024-02-18_20h15.19.852,kallum_motion_pilot,2023.2.2,Win32,48.07692308,5ef67612126bfa36576e1b03,65d2b6c8f2eece985d8e374c,65d2b84596fa611396bffb0d,0.0527,0.0527,0,110,110,130,1,sixfive,,,,,,,,,,,,,,,,,,,,,,,,,,,,,,,,,,,,,,,,,,,,,,,,,,,,,,,,,,,,,,,,,,,,,,,,,,,,,,,,,,,,,,,,,,,,,,,,,,,,,,,,,,,,,,,,,,,,,,,,,,,,,,,,,,,,,,,,,
,,5ef67612126bfa36576e1b03,2024-02-18_20h15.19.852,kallum_motion_pilot,2023.2.2,Win32,48.07692308,5ef67612126bfa36576e1b03,65d2b6c8f2eece985d8e374c,65d2b84596fa611396bffb0d,0.0527,0.0528,0,111,111,46,1,fourtwo,,,,,,,,,,,,,,,,,,,,,,,,,,,,,,,,,,,,,,,,,,,,,,,,,,,,,,,,,,,,,,,,,,,,,,,,,,,,,,,,,,,,,,,,,,,,,,,,,,,,,,,,,,,,,,,,,,,,,,,,,,,,,,,,,,,,,,,,,
,,5ef67612126bfa36576e1b03,2024-02-18_20h15.19.852,kallum_motion_pilot,2023.2.2,Win32,48.07692308,5ef67612126bfa36576e1b03,65d2b6c8f2eece985d8e374c,65d2b84596fa611396bffb0d,0.053,0.053,0,112,112,26,1,twoone,,,,,,,,,,,,,,,,,,,,,,,,,,,,,,,,,,,,,,,,,,,,,,,,,,,,,,,,,,,,,,,,,,,,,,,,,,,,,,,,,,,,,,,,,,,,,,,,,,,,,,,,,,,,,,,,,,,,,,,,,,,,,,,,,,,,,,,,,
,,5ef67612126bfa36576e1b03,2024-02-18_20h15.19.852,kallum_motion_pilot,2023.2.2,Win32,48.07692308,5ef67612126bfa36576e1b03,65d2b6c8f2eece985d8e374c,65d2b84596fa611396bffb0d,0.053,0.0531,0,113,113,70,1,fourtwo,,,,,,,,,,,,,,,,,,,,,,,,,,,,,,,,,,,,,,,,,,,,,,,,,,,,,,,,,,,,,,,,,,,,,,,,,,,,,,,,,,,,,,,,,,,,,,,,,,,,,,,,,,,,,,,,,,,,,,,,,,,,,,,,,,,,,,,,,
,,5ef67612126bfa36576e1b03,2024-02-18_20h15.19.852,kallum_motion_pilot,2023.2.2,Win32,48.07692308,5ef67612126bfa36576e1b03,65d2b6c8f2eece985d8e374c,65d2b84596fa611396bffb0d,0.0531,0.0532,0,114,114,100,1,sevenfive,,,,,,,,,,,,,,,,,,,,,,,,,,,,,,,,,,,,,,,,,,,,,,,,,,,,,,,,,,,,,,,,,,,,,,,,,,,,,,,,,,,,,,,,,,,,,,,,,,,,,,,,,,,,,,,,,,,,,,,,,,,,,,,,,,,,,,,,,
,,5ef67612126bfa36576e1b03,2024-02-18_20h15.19.852,kallum_motion_pilot,2023.2.2,Win32,48.07692308,5ef67612126bfa36576e1b03,65d2b6c8f2eece985d8e374c,65d2b84596fa611396bffb0d,0.0533,0.0533,0,115,115,128,1,fivesix,,,,,,,,,,,,,,,,,,,,,,,,,,,,,,,,,,,,,,,,,,,,,,,,,,,,,,,,,,,,,,,,,,,,,,,,,,,,,,,,,,,,,,,,,,,,,,,,,,,,,,,,,,,,,,,,,,,,,,,,,,,,,,,,,,,,,,,,,
,,5ef67612126bfa36576e1b03,2024-02-18_20h15.19.852,kallum_motion_pilot,2023.2.2,Win32,48.07692308,5ef67612126bfa36576e1b03,65d2b6c8f2eece985d8e374c,65d2b84596fa611396bffb0d,0.0534,0.0534,0,116,116,159,1,eightseven,,,,,,,,,,,,,,,,,,,,,,,,,,,,,,,,,,,,,,,,,,,,,,,,,,,,,,,,,,,,,,,,,,,,,,,,,,,,,,,,,,,,,,,,,,,,,,,,,,,,,,,,,,,,,,,,,,,,,,,,,,,,,,,,,,,,,,,,,
,,5ef67612126bfa36576e1b03,2024-02-18_20h15.19.852,kallum_motion_pilot,2023.2.2,Win32,48.07692308,5ef67612126bfa36576e1b03,65d2b6c8f2eece985d8e374c,65d2b84596fa611396bffb0d,0.0535,0.0536,0,117,117,122,1,sixfive,,,,,,,,,,,,,,,,,,,,,,,,,,,,,,,,,,,,,,,,,,,,,,,,,,,,,,,,,,,,,,,,,,,,,,,,,,,,,,,,,,,,,,,,,,,,,,,,,,,,,,,,,,,,,,,,,,,,,,,,,,,,,,,,,,,,,,,,,
,,5ef67612126bfa36576e1b03,2024-02-18_20h15.19.852,kallum_motion_pilot,2023.2.2,Win32,48.07692308,5ef67612126bfa36576e1b03,65d2b6c8f2eece985d8e374c,65d2b84596fa611396bffb0d,0.0536,0.0537,0,118,118,102,1,eightsix,,,,,,,,,,,,,,,,,,,,,,,,,,,,,,,,,,,,,,,,,,,,,,,,,,,,,,,,,,,,,,,,,,,,,,,,,,,,,,,,,,,,,,,,,,,,,,,,,,,,,,,,,,,,,,,,,,,,,,,,,,,,,,,,,,,,,,,,,
,,5ef67612126bfa36576e1b03,2024-02-18_20h15.19.852,kallum_motion_pilot,2023.2.2,Win32,48.07692308,5ef67612126bfa36576e1b03,65d2b6c8f2eece985d8e374c,65d2b84596fa611396bffb0d,0.0538,0.0538,0,119,119,147,1,sixeight,,,,,,,,,,,,,,,,,,,,,,,,,,,,,,,,,,,,,,,,,,,,,,,,,,,,,,,,,,,,,,,,,,,,,,,,,,,,,,,,,,,,,,,,,,,,,,,,,,,,,,,,,,,,,,,,,,,,,,,,,,,,,,,,,,,,,,,,,
,,5ef67612126bfa36576e1b03,2024-02-18_20h15.19.852,kallum_motion_pilot,2023.2.2,Win32,48.07692308,5ef67612126bfa36576e1b03,65d2b6c8f2eece985d8e374c,65d2b84596fa611396bffb0d,0.0539,0.054,0,120,120,86,1,eightsix,,,,,,,,,,,,,,,,,,,,,,,,,,,,,,,,,,,,,,,,,,,,,,,,,,,,,,,,,,,,,,,,,,,,,,,,,,,,,,,,,,,,,,,,,,,,,,,,,,,,,,,,,,,,,,,,,,,,,,,,,,,,,,,,,,,,,,,,,
,,5ef67612126bfa36576e1b03,2024-02-18_20h15.19.852,kallum_motion_pilot,2023.2.2,Win32,48.07692308,5ef67612126bfa36576e1b03,65d2b6c8f2eece985d8e374c,65d2b84596fa611396bffb0d,0.054,0.0541,0,121,121,141,1,seveneight,,,,,,,,,,,,,,,,,,,,,,,,,,,,,,,,,,,,,,,,,,,,,,,,,,,,,,,,,,,,,,,,,,,,,,,,,,,,,,,,,,,,,,,,,,,,,,,,,,,,,,,,,,,,,,,,,,,,,,,,,,,,,,,,,,,,,,,,,
,,5ef67612126bfa36576e1b03,2024-02-18_20h15.19.852,kallum_motion_pilot,2023.2.2,Win32,48.07692308,5ef67612126bfa36576e1b03,65d2b6c8f2eece985d8e374c,65d2b84596fa611396bffb0d,0.0541,0.0541,0,122,122,72,1,onetwo,,,,,,,,,,,,,,,,,,,,,,,,,,,,,,,,,,,,,,,,,,,,,,,,,,,,,,,,,,,,,,,,,,,,,,,,,,,,,,,,,,,,,,,,,,,,,,,,,,,,,,,,,,,,,,,,,,,,,,,,,,,,,,,,,,,,,,,,,
,,5ef67612126bfa36576e1b03,2024-02-18_20h15.19.852,kallum_motion_pilot,2023.2.2,Win32,48.07692308,5ef67612126bfa36576e1b03,65d2b6c8f2eece985d8e374c,65d2b84596fa611396bffb0d,0.0542,0.0543,0,123,123,58,1,twoone,,,,,,,,,,,,,,,,,,,,,,,,,,,,,,,,,,,,,,,,,,,,,,,,,,,,,,,,,,,,,,,,,,,,,,,,,,,,,,,,,,,,,,,,,,,,,,,,,,,,,,,,,,,,,,,,,,,,,,,,,,,,,,,,,,,,,,,,,
,,5ef67612126bfa36576e1b03,2024-02-18_20h15.19.852,kallum_motion_pilot,2023.2.2,Win32,48.07692308,5ef67612126bfa36576e1b03,65d2b6c8f2eece985d8e374c,65d2b84596fa611396bffb0d,0.0545,0.0545,0,124,124,94,1,eightsix,,,,,,,,,,,,,,,,,,,,,,,,,,,,,,,,,,,,,,,,,,,,,,,,,,,,,,,,,,,,,,,,,,,,,,,,,,,,,,,,,,,,,,,,,,,,,,,,,,,,,,,,,,,,,,,,,,,,,,,,,,,,,,,,,,,,,,,,,
,,5ef67612126bfa36576e1b03,2024-02-18_20h15.19.852,kallum_motion_pilot,2023.2.2,Win32,48.07692308,5ef67612126bfa36576e1b03,65d2b6c8f2eece985d8e374c,65d2b84596fa611396bffb0d,0.0546,0.0547,0,125,125,123,1,sixeight,,,,,,,,,,,,,,,,,,,,,,,,,,,,,,,,,,,,,,,,,,,,,,,,,,,,,,,,,,,,,,,,,,,,,,,,,,,,,,,,,,,,,,,,,,,,,,,,,,,,,,,,,,,,,,,,,,,,,,,,,,,,,,,,,,,,,,,,,
,,5ef67612126bfa36576e1b03,2024-02-18_20h15.19.852,kallum_motion_pilot,2023.2.2,Win32,48.07692308,5ef67612126bfa36576e1b03,65d2b6c8f2eece985d8e374c,65d2b84596fa611396bffb0d,0.0547,0.0548,0,126,126,116,1,sevenfive,,,,,,,,,,,,,,,,,,,,,,,,,,,,,,,,,,,,,,,,,,,,,,,,,,,,,,,,,,,,,,,,,,,,,,,,,,,,,,,,,,,,,,,,,,,,,,,,,,,,,,,,,,,,,,,,,,,,,,,,,,,,,,,,,,,,,,,,,
,,5ef67612126bfa36576e1b03,2024-02-18_20h15.19.852,kallum_motion_pilot,2023.2.2,Win32,48.07692308,5ef67612126bfa36576e1b03,65d2b6c8f2eece985d8e374c,65d2b84596fa611396bffb0d,0.0549,0.055,0,127,127,33,1,onethree,,,,,,,,,,,,,,,,,,,,,,,,,,,,,,,,,,,,,,,,,,,,,,,,,,,,,,,,,,,,,,,,,,,,,,,,,,,,,,,,,,,,,,,,,,,,,,,,,,,,,,,,,,,,,,,,,,,,,,,,,,,,,,,,,,,,,,,,,
,,5ef67612126bfa36576e1b03,2024-02-18_20h15.19.852,kallum_motion_pilot,2023.2.2,Win32,48.07692308,5ef67612126bfa36576e1b03,65d2b6c8f2eece985d8e374c,65d2b84596fa611396bffb0d,0.0551,0.0551,0,128,128,127,1,eightseven,,,,,,,,,,,,,,,,,,,,,,,,,,,,,,,,,,,,,,,,,,,,,,,,,,,,,,,,,,,,,,,,,,,,,,,,,,,,,,,,,,,,,,,,,,,,,,,,,,,,,,,,,,,,,,,,,,,,,,,,,,,,,,,,,,,,,,,,,
,,5ef67612126bfa36576e1b03,2024-02-18_20h15.19.852,kallum_motion_pilot,2023.2.2,Win32,48.07692308,5ef67612126bfa36576e1b03,65d2b6c8f2eece985d8e374c,65d2b84596fa611396bffb0d,0.0551,0.0553,0,129,129,48,1,onetwo,,,,,,,,,,,,,,,,,,,,,,,,,,,,,,,,,,,,,,,,,,,,,,,,,,,,,,,,,,,,,,,,,,,,,,,,,,,,,,,,,,,,,,,,,,,,,,,,,,,,,,,,,,,,,,,,,,,,,,,,,,,,,,,,,,,,,,,,,
,,5ef67612126bfa36576e1b03,2024-02-18_20h15.19.852,kallum_motion_pilot,2023.2.2,Win32,48.07692308,5ef67612126bfa36576e1b03,65d2b6c8f2eece985d8e374c,65d2b84596fa611396bffb0d,0.0554,0.0555,0,130,130,154,1,sixfive,,,,,,,,,,,,,,,,,,,,,,,,,,,,,,,,,,,,,,,,,,,,,,,,,,,,,,,,,,,,,,,,,,,,,,,,,,,,,,,,,,,,,,,,,,,,,,,,,,,,,,,,,,,,,,,,,,,,,,,,,,,,,,,,,,,,,,,,,
,,5ef67612126bfa36576e1b03,2024-02-18_20h15.19.852,kallum_motion_pilot,2023.2.2,Win32,48.07692308,5ef67612126bfa36576e1b03,65d2b6c8f2eece985d8e374c,65d2b84596fa611396bffb0d,0.0556,0.0556,0,131,131,15,1,fourthree,,,,,,,,,,,,,,,,,,,,,,,,,,,,,,,,,,,,,,,,,,,,,,,,,,,,,,,,,,,,,,,,,,,,,,,,,,,,,,,,,,,,,,,,,,,,,,,,,,,,,,,,,,,,,,,,,,,,,,,,,,,,,,,,,,,,,,,,,
,,5ef67612126bfa36576e1b03,2024-02-18_20h15.19.852,kallum_motion_pilot,2023.2.2,Win32,48.07692308,5ef67612126bfa36576e1b03,65d2b6c8f2eece985d8e374c,65d2b84596fa611396bffb0d,0.0557,0.0557,0,132,132,132,1,sevenfive,,,,,,,,,,,,,,,,,,,,,,,,,,,,,,,,,,,,,,,,,,,,,,,,,,,,,,,,,,,,,,,,,,,,,,,,,,,,,,,,,,,,,,,,,,,,,,,,,,,,,,,,,,,,,,,,,,,,,,,,,,,,,,,,,,,,,,,,,
,,5ef67612126bfa36576e1b03,2024-02-18_20h15.19.852,kallum_motion_pilot,2023.2.2,Win32,48.07692308,5ef67612126bfa36576e1b03,65d2b6c8f2eece985d8e374c,65d2b84596fa611396bffb0d,0.0558,0.0559,0,133,133,140,1,sevenfive,,,,,,,,,,,,,,,,,,,,,,,,,,,,,,,,,,,,,,,,,,,,,,,,,,,,,,,,,,,,,,,,,,,,,,,,,,,,,,,,,,,,,,,,,,,,,,,,,,,,,,,,,,,,,,,,,,,,,,,,,,,,,,,,,,,,,,,,,
,,5ef67612126bfa36576e1b03,2024-02-18_20h15.19.852,kallum_motion_pilot,2023.2.2,Win32,48.07692308,5ef67612126bfa36576e1b03,65d2b6c8f2eece985d8e374c,65d2b84596fa611396bffb0d,0.0559,0.056,0,134,134,142,1,eightsix,,,,,,,,,,,,,,,,,,,,,,,,,,,,,,,,,,,,,,,,,,,,,,,,,,,,,,,,,,,,,,,,,,,,,,,,,,,,,,,,,,,,,,,,,,,,,,,,,,,,,,,,,,,,,,,,,,,,,,,,,,,,,,,,,,,,,,,,,
,,5ef67612126bfa36576e1b03,2024-02-18_20h15.19.852,kallum_motion_pilot,2023.2.2,Win32,48.07692308,5ef67612126bfa36576e1b03,65d2b6c8f2eece985d8e374c,65d2b84596fa611396bffb0d,0.0561,0.0561,0,135,135,133,1,seveneight,,,,,,,,,,,,,,,,,,,,,,,,,,,,,,,,,,,,,,,,,,,,,,,,,,,,,,,,,,,,,,,,,,,,,,,,,,,,,,,,,,,,,,,,,,,,,,,,,,,,,,,,,,,,,,,,,,,,,,,,,,,,,,,,,,,,,,,,,
,,5ef67612126bfa36576e1b03,2024-02-18_20h15.19.852,kallum_motion_pilot,2023.2.2,Win32,48.07692308,5ef67612126bfa36576e1b03,65d2b6c8f2eece985d8e374c,65d2b84596fa611396bffb0d,0.0562,0.0562,0,136,136,97,1,fiveseven,,,,,,,,,,,,,,,,,,,,,,,,,,,,,,,,,,,,,,,,,,,,,,,,,,,,,,,,,,,,,,,,,,,,,,,,,,,,,,,,,,,,,,,,,,,,,,,,,,,,,,,,,,,,,,,,,,,,,,,,,,,,,,,,,,,,,,,,,
,,5ef67612126bfa36576e1b03,2024-02-18_20h15.19.852,kallum_motion_pilot,2023.2.2,Win32,48.07692308,5ef67612126bfa36576e1b03,65d2b6c8f2eece985d8e374c,65d2b84596fa611396bffb0d,0.0563,0.0563,0,137,137,134,1,eightsix,,,,,,,,,,,,,,,,,,,,,,,,,,,,,,,,,,,,,,,,,,,,,,,,,,,,,,,,,,,,,,,,,,,,,,,,,,,,,,,,,,,,,,,,,,,,,,,,,,,,,,,,,,,,,,,,,,,,,,,,,,,,,,,,,,,,,,,,,
,,5ef67612126bfa36576e1b03,2024-02-18_20h15.19.852,kallum_motion_pilot,2023.2.2,Win32,48.07692308,5ef67612126bfa36576e1b03,65d2b6c8f2eece985d8e374c,65d2b84596fa611396bffb0d,0.0564,0.0564,0,138,138,8,1,onetwo,,,,,,,,,,,,,,,,,,,,,,,,,,,,,,,,,,,,,,,,,,,,,,,,,,,,,,,,,,,,,,,,,,,,,,,,,,,,,,,,,,,,,,,,,,,,,,,,,,,,,,,,,,,,,,,,,,,,,,,,,,,,,,,,,,,,,,,,,
,,5ef67612126bfa36576e1b03,2024-02-18_20h15.19.852,kallum_motion_pilot,2023.2.2,Win32,48.07692308,5ef67612126bfa36576e1b03,65d2b6c8f2eece985d8e374c,65d2b84596fa611396bffb0d,0.0565,0.0566,0,139,139,5,1,threefour,,,,,,,,,,,,,,,,,,,,,,,,,,,,,,,,,,,,,,,,,,,,,,,,,,,,,,,,,,,,,,,,,,,,,,,,,,,,,,,,,,,,,,,,,,,,,,,,,,,,,,,,,,,,,,,,,,,,,,,,,,,,,,,,,,,,,,,,,
,,5ef67612126bfa36576e1b03,2024-02-18_20h15.19.852,kallum_motion_pilot,2023.2.2,Win32,48.07692308,5ef67612126bfa36576e1b03,65d2b6c8f2eece985d8e374c,65d2b84596fa611396bffb0d,0.0568,0.0568,0,140,140,44,1,threeone,,,,,,,,,,,,,,,,,,,,,,,,,,,,,,,,,,,,,,,,,,,,,,,,,,,,,,,,,,,,,,,,,,,,,,,,,,,,,,,,,,,,,,,,,,,,,,,,,,,,,,,,,,,,,,,,,,,,,,,,,,,,,,,,,,,,,,,,,
,,5ef67612126bfa36576e1b03,2024-02-18_20h15.19.852,kallum_motion_pilot,2023.2.2,Win32,48.07692308,5ef67612126bfa36576e1b03,65d2b6c8f2eece985d8e374c,65d2b84596fa611396bffb0d,0.0569,0.0569,0,141,141,104,1,fivesix,,,,,,,,,,,,,,,,,,,,,,,,,,,,,,,,,,,,,,,,,,,,,,,,,,,,,,,,,,,,,,,,,,,,,,,,,,,,,,,,,,,,,,,,,,,,,,,,,,,,,,,,,,,,,,,,,,,,,,,,,,,,,,,,,,,,,,,,,
,,5ef67612126bfa36576e1b03,2024-02-18_20h15.19.852,kallum_motion_pilot,2023.2.2,Win32,48.07692308,5ef67612126bfa36576e1b03,65d2b6c8f2eece985d8e374c,65d2b84596fa611396bffb0d,0.0571,0.0571,0,142,142,83,1,sixeight,,,,,,,,,,,,,,,,,,,,,,,,,,,,,,,,,,,,,,,,,,,,,,,,,,,,,,,,,,,,,,,,,,,,,,,,,,,,,,,,,,,,,,,,,,,,,,,,,,,,,,,,,,,,,,,,,,,,,,,,,,,,,,,,,,,,,,,,,
,,5ef67612126bfa36576e1b03,2024-02-18_20h15.19.852,kallum_motion_pilot,2023.2.2,Win32,48.07692308,5ef67612126bfa36576e1b03,65d2b6c8f2eece985d8e374c,65d2b84596fa611396bffb0d,0.0571,0.0572,0,143,143,82,1,sixfive,,,,,,,,,,,,,,,,,,,,,,,,,,,,,,,,,,,,,,,,,,,,,,,,,,,,,,,,,,,,,,,,,,,,,,,,,,,,,,,,,,,,,,,,,,,,,,,,,,,,,,,,,,,,,,,,,,,,,,,,,,,,,,,,,,,,,,,,,
,,5ef67612126bfa36576e1b03,2024-02-18_20h15.19.852,kallum_motion_pilot,2023.2.2,Win32,48.07692308,5ef67612126bfa36576e1b03,65d2b6c8f2eece985d8e374c,65d2b84596fa611396bffb0d,0.0572,0.0573,0,144,144,29,1,threefour,,,,,,,,,,,,,,,,,,,,,,,,,,,,,,,,,,,,,,,,,,,,,,,,,,,,,,,,,,,,,,,,,,,,,,,,,,,,,,,,,,,,,,,,,,,,,,,,,,,,,,,,,,,,,,,,,,,,,,,,,,,,,,,,,,,,,,,,,
,,5ef67612126bfa36576e1b03,2024-02-18_20h15.19.852,kallum_motion_pilot,2023.2.2,Win32,48.07692308,5ef67612126bfa36576e1b03,65d2b6c8f2eece985d8e374c,65d2b84596fa611396bffb0d,0.0574,0.0576,0,145,145,42,1,twoone,,,,,,,,,,,,,,,,,,,,,,,,,,,,,,,,,,,,,,,,,,,,,,,,,,,,,,,,,,,,,,,,,,,,,,,,,,,,,,,,,,,,,,,,,,,,,,,,,,,,,,,,,,,,,,,,,,,,,,,,,,,,,,,,,,,,,,,,,
,,5ef67612126bfa36576e1b03,2024-02-18_20h15.19.852,kallum_motion_pilot,2023.2.2,Win32,48.07692308,5ef67612126bfa36576e1b03,65d2b6c8f2eece985d8e374c,65d2b84596fa611396bffb0d,0.0576,0.0577,0,146,146,60,1,threeone,,,,,,,,,,,,,,,,,,,,,,,,,,,,,,,,,,,,,,,,,,,,,,,,,,,,,,,,,,,,,,,,,,,,,,,,,,,,,,,,,,,,,,,,,,,,,,,,,,,,,,,,,,,,,,,,,,,,,,,,,,,,,,,,,,,,,,,,,
,,5ef67612126bfa36576e1b03,2024-02-18_20h15.19.852,kallum_motion_pilot,2023.2.2,Win32,48.07692308,5ef67612126bfa36576e1b03,65d2b6c8f2eece985d8e374c,65d2b84596fa611396bffb0d,0.0577,0.0578,0,147,147,41,1,onethree,,,,,,,,,,,,,,,,,,,,,,,,,,,,,,,,,,,,,,,,,,,,,,,,,,,,,,,,,,,,,,,,,,,,,,,,,,,,,,,,,,,,,,,,,,,,,,,,,,,,,,,,,,,,,,,,,,,,,,,,,,,,,,,,,,,,,,,,,
,,5ef67612126bfa36576e1b03,2024-02-18_20h15.19.852,kallum_motion_pilot,2023.2.2,Win32,48.07692308,5ef67612126bfa36576e1b03,65d2b6c8f2eece985d8e374c,65d2b84596fa611396bffb0d,0.0578,0.058,0,148,148,108,1,sevenfive,,,,,,,,,,,,,,,,,,,,,,,,,,,,,,,,,,,,,,,,,,,,,,,,,,,,,,,,,,,,,,,,,,,,,,,,,,,,,,,,,,,,,,,,,,,,,,,,,,,,,,,,,,,,,,,,,,,,,,,,,,,,,,,,,,,,,,,,,
,,5ef67612126bfa36576e1b03,2024-02-18_20h15.19.852,kallum_motion_pilot,2023.2.2,Win32,48.07692308,5ef67612126bfa36576e1b03,65d2b6c8f2eece985d8e374c,65d2b84596fa611396bffb0d,0.058,0.0581,0,149,149,30,1,fourtwo,,,,,,,,,,,,,,,,,,,,,,,,,,,,,,,,,,,,,,,,,,,,,,,,,,,,,,,,,,,,,,,,,,,,,,,,,,,,,,,,,,,,,,,,,,,,,,,,,,,,,,,,,,,,,,,,,,,,,,,,,,,,,,,,,,,,,,,,,
,,5ef67612126bfa36576e1b03,2024-02-18_20h15.19.852,kallum_motion_pilot,2023.2.2,Win32,48.07692308,5ef67612126bfa36576e1b03,65d2b6c8f2eece985d8e374c,65d2b84596fa611396bffb0d,0.0581,0.0581,0,150,150,11,1,twofour,,,,,,,,,,,,,,,,,,,,,,,,,,,,,,,,,,,,,,,,,,,,,,,,,,,,,,,,,,,,,,,,,,,,,,,,,,,,,,,,,,,,,,,,,,,,,,,,,,,,,,,,,,,,,,,,,,,,,,,,,,,,,,,,,,,,,,,,,
,,5ef67612126bfa36576e1b03,2024-02-18_20h15.19.852,kallum_motion_pilot,2023.2.2,Win32,48.07692308,5ef67612126bfa36576e1b03,65d2b6c8f2eece985d8e374c,65d2b84596fa611396bffb0d,0.0582,0.0583,0,151,151,1,1,onethree,,,,,,,,,,,,,,,,,,,,,,,,,,,,,,,,,,,,,,,,,,,,,,,,,,,,,,,,,,,,,,,,,,,,,,,,,,,,,,,,,,,,,,,,,,,,,,,,,,,,,,,,,,,,,,,,,,,,,,,,,,,,,,,,,,,,,,,,,
,,5ef67612126bfa36576e1b03,2024-02-18_20h15.19.852,kallum_motion_pilot,2023.2.2,Win32,48.07692308,5ef67612126bfa36576e1b03,65d2b6c8f2eece985d8e374c,65d2b84596fa611396bffb0d,0.0584,0.0585,0,152,152,112,1,fivesix,,,,,,,,,,,,,,,,,,,,,,,,,,,,,,,,,,,,,,,,,,,,,,,,,,,,,,,,,,,,,,,,,,,,,,,,,,,,,,,,,,,,,,,,,,,,,,,,,,,,,,,,,,,,,,,,,,,,,,,,,,,,,,,,,,,,,,,,,
,,5ef67612126bfa36576e1b03,2024-02-18_20h15.19.852,kallum_motion_pilot,2023.2.2,Win32,48.07692308,5ef67612126bfa36576e1b03,65d2b6c8f2eece985d8e374c,65d2b84596fa611396bffb0d,0.0585,0.0586,0,153,153,34,1,twoone,,,,,,,,,,,,,,,,,,,,,,,,,,,,,,,,,,,,,,,,,,,,,,,,,,,,,,,,,,,,,,,,,,,,,,,,,,,,,,,,,,,,,,,,,,,,,,,,,,,,,,,,,,,,,,,,,,,,,,,,,,,,,,,,,,,,,,,,,
,,5ef67612126bfa36576e1b03,2024-02-18_20h15.19.852,kallum_motion_pilot,2023.2.2,Win32,48.07692308,5ef67612126bfa36576e1b03,65d2b6c8f2eece985d8e374c,65d2b84596fa611396bffb0d,0.0588,0.0589,0,154,154,54,1,fourtwo,,,,,,,,,,,,,,,,,,,,,,,,,,,,,,,,,,,,,,,,,,,,,,,,,,,,,,,,,,,,,,,,,,,,,,,,,,,,,,,,,,,,,,,,,,,,,,,,,,,,,,,,,,,,,,,,,,,,,,,,,,,,,,,,,,,,,,,,,
,,5ef67612126bfa36576e1b03,2024-02-18_20h15.19.852,kallum_motion_pilot,2023.2.2,Win32,48.07692308,5ef67612126bfa36576e1b03,65d2b6c8f2eece985d8e374c,65d2b84596fa611396bffb0d,0.0589,0.059,0,155,155,118,1,eightsix,,,,,,,,,,,,,,,,,,,,,,,,,,,,,,,,,,,,,,,,,,,,,,,,,,,,,,,,,,,,,,,,,,,,,,,,,,,,,,,,,,,,,,,,,,,,,,,,,,,,,,,,,,,,,,,,,,,,,,,,,,,,,,,,,,,,,,,,,
,,5ef67612126bfa36576e1b03,2024-02-18_20h15.19.852,kallum_motion_pilot,2023.2.2,Win32,48.07692308,5ef67612126bfa36576e1b03,65d2b6c8f2eece985d8e374c,65d2b84596fa611396bffb0d,0.059,0.0591,0,156,156,78,1,fourtwo,,,,,,,,,,,,,,,,,,,,,,,,,,,,,,,,,,,,,,,,,,,,,,,,,,,,,,,,,,,,,,,,,,,,,,,,,,,,,,,,,,,,,,,,,,,,,,,,,,,,,,,,,,,,,,,,,,,,,,,,,,,,,,,,,,,,,,,,,
,,5ef67612126bfa36576e1b03,2024-02-18_20h15.19.852,kallum_motion_pilot,2023.2.2,Win32,48.07692308,5ef67612126bfa36576e1b03,65d2b6c8f2eece985d8e374c,65d2b84596fa611396bffb0d,0.0591,0.0593,0,157,157,19,1,twofour,,,,,,,,,,,,,,,,,,,,,,,,,,,,,,,,,,,,,,,,,,,,,,,,,,,,,,,,,,,,,,,,,,,,,,,,,,,,,,,,,,,,,,,,,,,,,,,,,,,,,,,,,,,,,,,,,,,,,,,,,,,,,,,,,,,,,,,,,
,,5ef67612126bfa36576e1b03,2024-02-18_20h15.19.852,kallum_motion_pilot,2023.2.2,Win32,48.07692308,5ef67612126bfa36576e1b03,65d2b6c8f2eece985d8e374c,65d2b84596fa611396bffb0d,0.0593,0.0594,0,158,158,107,1,sixeight,,,,,,,,,,,,,,,,,,,,,,,,,,,,,,,,,,,,,,,,,,,,,,,,,,,,,,,,,,,,,,,,,,,,,,,,,,,,,,,,,,,,,,,,,,,,,,,,,,,,,,,,,,,,,,,,,,,,,,,,,,,,,,,,,,,,,,,,,
,,5ef67612126bfa36576e1b03,2024-02-18_20h15.19.852,kallum_motion_pilot,2023.2.2,Win32,48.07692308,5ef67612126bfa36576e1b03,65d2b6c8f2eece985d8e374c,65d2b84596fa611396bffb0d,0.0595,0.0595,0,159,159,85,1,seveneight,,,,,,,,,,,,,,,,,,,,,,,,,,,,,,,,,,,,,,,,,,,,,,,,,,,,,,,,,,,,,,,,,,,,,,,,,,,,,,,,,,,,,,,,,,,,,,,,,,,,,,,,,,,,,,,,,,,,,,,,,,,,,,,,,,,,,,,,,
,,5ef67612126bfa36576e1b03,2024-02-18_20h15.19.852,kallum_motion_pilot,2023.2.2,Win32,48.07692308,5ef67612126bfa36576e1b03,65d2b6c8f2eece985d8e374c,65d2b84596fa611396bffb0d,0.0595,0.0596,0,160,160,152,1,fivesix,,,,,,,,,,,,,,,,,,,,,,,,,,,,,,,,,,,,,,,,,,,,,,,,,,,,,,,,,,,,,,,,,,,,,,,,,,,,,,,,,,,,,,,,,,,,,,,,,,,,,,,,,,,,,,,,,,,,,,,,,,,,,,,,,,,,,,,,,
,,5ef67612126bfa36576e1b03,2024-02-18_20h15.19.852,kallum_motion_pilot,2023.2.2,Win32,48.07692308,5ef67612126bfa36576e1b03,65d2b6c8f2eece985d8e374c,65d2b84596fa611396bffb0d,0.0597,0.0597,0,161,161,55,1,fourthree,,,,,,,,,,,,,,,,,,,,,,,,,,,,,,,,,,,,,,,,,,,,,,,,,,,,,,,,,,,,,,,,,,,,,,,,,,,,,,,,,,,,,,,,,,,,,,,,,,,,,,,,,,,,,,,,,,,,,,,,,,,,,,,,,,,,,,,,,
,,5ef67612126bfa36576e1b03,2024-02-18_20h15.19.852,kallum_motion_pilot,2023.2.2,Win32,48.07692308,5ef67612126bfa36576e1b03,65d2b6c8f2eece985d8e374c,65d2b84596fa611396bffb0d,0.0598,0.0599,1,0,162,127,1,eightseven,,,,,,,,,,,,,,,,,,,,,,,,,,,,,,,,,,,,,,,,,,,,,,,,,,,,,,,,,,,,,,,,,,,,,,,,,,,,,,,,,,,,,,,,,,,,,,,,,,,,,,,,,,,,,,,,,,,,,,,,,,,,,,,,,,,,,,,,,
,,5ef67612126bfa36576e1b03,2024-02-18_20h15.19.852,kallum_motion_pilot,2023.2.2,Win32,48.07692308,5ef67612126bfa36576e1b03,65d2b6c8f2eece985d8e374c,65d2b84596fa611396bffb0d,0.0599,0.06,1,1,163,25,1,onethree,,,,,,,,,,,,,,,,,,,,,,,,,,,,,,,,,,,,,,,,,,,,,,,,,,,,,,,,,,,,,,,,,,,,,,,,,,,,,,,,,,,,,,,,,,,,,,,,,,,,,,,,,,,,,,,,,,,,,,,,,,,,,,,,,,,,,,,,,
,,5ef67612126bfa36576e1b03,2024-02-18_20h15.19.852,kallum_motion_pilot,2023.2.2,Win32,48.07692308,5ef67612126bfa36576e1b03,65d2b6c8f2eece985d8e374c,65d2b84596fa611396bffb0d,0.0601,0.0602,1,2,164,99,1,sixeight,,,,,,,,,,,,,,,,,,,,,,,,,,,,,,,,,,,,,,,,,,,,,,,,,,,,,,,,,,,,,,,,,,,,,,,,,,,,,,,,,,,,,,,,,,,,,,,,,,,,,,,,,,,,,,,,,,,,,,,,,,,,,,,,,,,,,,,,,
,,5ef67612126bfa36576e1b03,2024-02-18_20h15.19.852,kallum_motion_pilot,2023.2.2,Win32,48.07692308,5ef67612126bfa36576e1b03,65d2b6c8f2eece985d8e374c,65d2b84596fa611396bffb0d,0.0602,0.0603,1,3,165,35,1,twofour,,,,,,,,,,,,,,,,,,,,,,,,,,,,,,,,,,,,,,,,,,,,,,,,,,,,,,,,,,,,,,,,,,,,,,,,,,,,,,,,,,,,,,,,,,,,,,,,,,,,,,,,,,,,,,,,,,,,,,,,,,,,,,,,,,,,,,,,,
,,5ef67612126bfa36576e1b03,2024-02-18_20h15.19.852,kallum_motion_pilot,2023.2.2,Win32,48.07692308,5ef67612126bfa36576e1b03,65d2b6c8f2eece985d8e374c,65d2b84596fa611396bffb0d,0.0603,0.0604,1,4,166,71,1,fourthree,,,,,,,,,,,,,,,,,,,,,,,,,,,,,,,,,,,,,,,,,,,,,,,,,,,,,,,,,,,,,,,,,,,,,,,,,,,,,,,,,,,,,,,,,,,,,,,,,,,,,,,,,,,,,,,,,,,,,,,,,,,,,,,,,,,,,,,,,
,,5ef67612126bfa36576e1b03,2024-02-18_20h15.19.852,kallum_motion_pilot,2023.2.2,Win32,48.07692308,5ef67612126bfa36576e1b03,65d2b6c8f2eece985d8e374c,65d2b84596fa611396bffb0d,0.0604,0.0605,1,5,167,31,1,fourthree,,,,,,,,,,,,,,,,,,,,,,,,,,,,,,,,,,,,,,,,,,,,,,,,,,,,,,,,,,,,,,,,,,,,,,,,,,,,,,,,,,,,,,,,,,,,,,,,,,,,,,,,,,,,,,,,,,,,,,,,,,,,,,,,,,,,,,,,,
,,5ef67612126bfa36576e1b03,2024-02-18_20h15.19.852,kallum_motion_pilot,2023.2.2,Win32,48.07692308,5ef67612126bfa36576e1b03,65d2b6c8f2eece985d8e374c,65d2b84596fa611396bffb0d,0.0606,0.0607,1,6,168,125,1,seveneight,,,,,,,,,,,,,,,,,,,,,,,,,,,,,,,,,,,,,,,,,,,,,,,,,,,,,,,,,,,,,,,,,,,,,,,,,,,,,,,,,,,,,,,,,,,,,,,,,,,,,,,,,,,,,,,,,,,,,,,,,,,,,,,,,,,,,,,,,
,,5ef67612126bfa36576e1b03,2024-02-18_20h15.19.852,kallum_motion_pilot,2023.2.2,Win32,48.07692308,5ef67612126bfa36576e1b03,65d2b6c8f2eece985d8e374c,65d2b84596fa611396bffb0d,0.0607,0.0608,1,7,169,93,1,seveneight,,,,,,,,,,,,,,,,,,,,,,,,,,,,,,,,,,,,,,,,,,,,,,,,,,,,,,,,,,,,,,,,,,,,,,,,,,,,,,,,,,,,,,,,,,,,,,,,,,,,,,,,,,,,,,,,,,,,,,,,,,,,,,,,,,,,,,,,,
,,5ef67612126bfa36576e1b03,2024-02-18_20h15.19.852,kallum_motion_pilot,2023.2.2,Win32,48.07692308,5ef67612126bfa36576e1b03,65d2b6c8f2eece985d8e374c,65d2b84596fa611396bffb0d,0.0608,0.0608,1,8,170,39,1,fourthree,,,,,,,,,,,,,,,,,,,,,,,,,,,,,,,,,,,,,,,,,,,,,,,,,,,,,,,,,,,,,,,,,,,,,,,,,,,,,,,,,,,,,,,,,,,,,,,,,,,,,,,,,,,,,,,,,,,,,,,,,,,,,,,,,,,,,,,,,
,,5ef67612126bfa36576e1b03,2024-02-18_20h15.19.852,kallum_motion_pilot,2023.2.2,Win32,48.07692308,5ef67612126bfa36576e1b03,65d2b6c8f2eece985d8e374c,65d2b84596fa611396bffb0d,0.0609,0.061,1,9,171,37,1,threefour,,,,,,,,,,,,,,,,,,,,,,,,,,,,,,,,,,,,,,,,,,,,,,,,,,,,,,,,,,,,,,,,,,,,,,,,,,,,,,,,,,,,,,,,,,,,,,,,,,,,,,,,,,,,,,,,,,,,,,,,,,,,,,,,,,,,,,,,,
,,5ef67612126bfa36576e1b03,2024-02-18_20h15.19.852,kallum_motion_pilot,2023.2.2,Win32,48.07692308,5ef67612126bfa36576e1b03,65d2b6c8f2eece985d8e374c,65d2b84596fa611396bffb0d,0.0611,0.0611,1,10,172,106,1,sixfive,,,,,,,,,,,,,,,,,,,,,,,,,,,,,,,,,,,,,,,,,,,,,,,,,,,,,,,,,,,,,,,,,,,,,,,,,,,,,,,,,,,,,,,,,,,,,,,,,,,,,,,,,,,,,,,,,,,,,,,,,,,,,,,,,,,,,,,,,
,,5ef67612126bfa36576e1b03,2024-02-18_20h15.19.852,kallum_motion_pilot,2023.2.2,Win32,48.07692308,5ef67612126bfa36576e1b03,65d2b6c8f2eece985d8e374c,65d2b84596fa611396bffb0d,0.0612,0.0612,1,11,173,88,1,fivesix,,,,,,,,,,,,,,,,,,,,,,,,,,,,,,,,,,,,,,,,,,,,,,,,,,,,,,,,,,,,,,,,,,,,,,,,,,,,,,,,,,,,,,,,,,,,,,,,,,,,,,,,,,,,,,,,,,,,,,,,,,,,,,,,,,,,,,,,,
,,5ef67612126bfa36576e1b03,2024-02-18_20h15.19.852,kallum_motion_pilot,2023.2.2,Win32,48.07692308,5ef67612126bfa36576e1b03,65d2b6c8f2eece985d8e374c,65d2b84596fa611396bffb0d,0.0613,0.0615,1,12,174,154,1,sixfive,,,,,,,,,,,,,,,,,,,,,,,,,,,,,,,,,,,,,,,,,,,,,,,,,,,,,,,,,,,,,,,,,,,,,,,,,,,,,,,,,,,,,,,,,,,,,,,,,,,,,,,,,,,,,,,,,,,,,,,,,,,,,,,,,,,,,,,,,
,,5ef67612126bfa36576e1b03,2024-02-18_20h15.19.852,kallum_motion_pilot,2023.2.2,Win32,48.07692308,5ef67612126bfa36576e1b03,65d2b6c8f2eece985d8e374c,65d2b84596fa611396bffb0d,0.0615,0.0615,1,13,175,77,1,threefour,,,,,,,,,,,,,,,,,,,,,,,,,,,,,,,,,,,,,,,,,,,,,,,,,,,,,,,,,,,,,,,,,,,,,,,,,,,,,,,,,,,,,,,,,,,,,,,,,,,,,,,,,,,,,,,,,,,,,,,,,,,,,,,,,,,,,,,,,
,,5ef67612126bfa36576e1b03,2024-02-18_20h15.19.852,kallum_motion_pilot,2023.2.2,Win32,48.07692308,5ef67612126bfa36576e1b03,65d2b6c8f2eece985d8e374c,65d2b84596fa611396bffb0d,0.0616,0.0617,1,14,176,62,1,fourtwo,,,,,,,,,,,,,,,,,,,,,,,,,,,,,,,,,,,,,,,,,,,,,,,,,,,,,,,,,,,,,,,,,,,,,,,,,,,,,,,,,,,,,,,,,,,,,,,,,,,,,,,,,,,,,,,,,,,,,,,,,,,,,,,,,,,,,,,,,
,,5ef67612126bfa36576e1b03,2024-02-18_20h15.19.852,kallum_motion_pilot,2023.2.2,Win32,48.07692308,5ef67612126bfa36576e1b03,65d2b6c8f2eece985d8e374c,65d2b84596fa611396bffb0d,0.0618,0.0618,1,15,177,82,1,sixfive,,,,,,,,,,,,,,,,,,,,,,,,,,,,,,,,,,,,,,,,,,,,,,,,,,,,,,,,,,,,,,,,,,,,,,,,,,,,,,,,,,,,,,,,,,,,,,,,,,,,,,,,,,,,,,,,,,,,,,,,,,,,,,,,,,,,,,,,,
,,5ef67612126bfa36576e1b03,2024-02-18_20h15.19.852,kallum_motion_pilot,2023.2.2,Win32,48.07692308,5ef67612126bfa36576e1b03,65d2b6c8f2eece985d8e374c,65d2b84596fa611396bffb0d,0.0618,0.0619,1,16,178,0,1,onetwo,,,,,,,,,,,,,,,,,,,,,,,,,,,,,,,,,,,,,,,,,,,,,,,,,,,,,,,,,,,,,,,,,,,,,,,,,,,,,,,,,,,,,,,,,,,,,,,,,,,,,,,,,,,,,,,,,,,,,,,,,,,,,,,,,,,,,,,,,
,,5ef67612126bfa36576e1b03,2024-02-18_20h15.19.852,kallum_motion_pilot,2023.2.2,Win32,48.07692308,5ef67612126bfa36576e1b03,65d2b6c8f2eece985d8e374c,65d2b84596fa611396bffb0d,0.062,0.0621,1,17,179,159,1,eightseven,,,,,,,,,,,,,,,,,,,,,,,,,,,,,,,,,,,,,,,,,,,,,,,,,,,,,,,,,,,,,,,,,,,,,,,,,,,,,,,,,,,,,,,,,,,,,,,,,,,,,,,,,,,,,,,,,,,,,,,,,,,,,,,,,,,,,,,,,
,,5ef67612126bfa36576e1b03,2024-02-18_20h15.19.852,kallum_motion_pilot,2023.2.2,Win32,48.07692308,5ef67612126bfa36576e1b03,65d2b6c8f2eece985d8e374c,65d2b84596fa611396bffb0d,0.0621,0.0622,1,18,180,132,1,sevenfive,,,,,,,,,,,,,,,,,,,,,,,,,,,,,,,,,,,,,,,,,,,,,,,,,,,,,,,,,,,,,,,,,,,,,,,,,,,,,,,,,,,,,,,,,,,,,,,,,,,,,,,,,,,,,,,,,,,,,,,,,,,,,,,,,,,,,,,,,
,,5ef67612126bfa36576e1b03,2024-02-18_20h15.19.852,kallum_motion_pilot,2023.2.2,Win32,48.07692308,5ef67612126bfa36576e1b03,65d2b6c8f2eece985d8e374c,65d2b84596fa611396bffb0d,0.0622,0.0623,1,19,181,20,1,threeone,,,,,,,,,,,,,,,,,,,,,,,,,,,,,,,,,,,,,,,,,,,,,,,,,,,,,,,,,,,,,,,,,,,,,,,,,,,,,,,,,,,,,,,,,,,,,,,,,,,,,,,,,,,,,,,,,,,,,,,,,,,,,,,,,,,,,,,,,
,,5ef67612126bfa36576e1b03,2024-02-18_20h15.19.852,kallum_motion_pilot,2023.2.2,Win32,48.07692308,5ef67612126bfa36576e1b03,65d2b6c8f2eece985d8e374c,65d2b84596fa611396bffb0d,0.0624,0.0625,1,20,182,17,1,onethree,,,,,,,,,,,,,,,,,,,,,,,,,,,,,,,,,,,,,,,,,,,,,,,,,,,,,,,,,,,,,,,,,,,,,,,,,,,,,,,,,,,,,,,,,,,,,,,,,,,,,,,,,,,,,,,,,,,,,,,,,,,,,,,,,,,,,,,,,
,,5ef67612126bfa36576e1b03,2024-02-18_20h15.19.852,kallum_motion_pilot,2023.2.2,Win32,48.07692308,5ef67612126bfa36576e1b03,65d2b6c8f2eece985d8e374c,65d2b84596fa611396bffb0d,0.0625,0.0626,1,21,183,68,1,threeone,,,,,,,,,,,,,,,,,,,,,,,,,,,,,,,,,,,,,,,,,,,,,,,,,,,,,,,,,,,,,,,,,,,,,,,,,,,,,,,,,,,,,,,,,,,,,,,,,,,,,,,,,,,,,,,,,,,,,,,,,,,,,,,,,,,,,,,,,
,,5ef67612126bfa36576e1b03,2024-02-18_20h15.19.852,kallum_motion_pilot,2023.2.2,Win32,48.07692308,5ef67612126bfa36576e1b03,65d2b6c8f2eece985d8e374c,65d2b84596fa611396bffb0d,0.0627,0.0628,1,22,184,102,1,eightsix,,,,,,,,,,,,,,,,,,,,,,,,,,,,,,,,,,,,,,,,,,,,,,,,,,,,,,,,,,,,,,,,,,,,,,,,,,,,,,,,,,,,,,,,,,,,,,,,,,,,,,,,,,,,,,,,,,,,,,,,,,,,,,,,,,,,,,,,,
,,5ef67612126bfa36576e1b03,2024-02-18_20h15.19.852,kallum_motion_pilot,2023.2.2,Win32,48.07692308,5ef67612126bfa36576e1b03,65d2b6c8f2eece985d8e374c,65d2b84596fa611396bffb0d,0.0628,0.0629,1,23,185,149,1,seveneight,,,,,,,,,,,,,,,,,,,,,,,,,,,,,,,,,,,,,,,,,,,,,,,,,,,,,,,,,,,,,,,,,,,,,,,,,,,,,,,,,,,,,,,,,,,,,,,,,,,,,,,,,,,,,,,,,,,,,,,,,,,,,,,,,,,,,,,,,
,,5ef67612126bfa36576e1b03,2024-02-18_20h15.19.852,kallum_motion_pilot,2023.2.2,Win32,48.07692308,5ef67612126bfa36576e1b03,65d2b6c8f2eece985d8e374c,65d2b84596fa611396bffb0d,0.063,0.0631,1,24,186,10,1,twoone,,,,,,,,,,,,,,,,,,,,,,,,,,,,,,,,,,,,,,,,,,,,,,,,,,,,,,,,,,,,,,,,,,,,,,,,,,,,,,,,,,,,,,,,,,,,,,,,,,,,,,,,,,,,,,,,,,,,,,,,,,,,,,,,,,,,,,,,,
,,5ef67612126bfa36576e1b03,2024-02-18_20h15.19.852,kallum_motion_pilot,2023.2.2,Win32,48.07692308,5ef67612126bfa36576e1b03,65d2b6c8f2eece985d8e374c,65d2b84596fa611396bffb0d,0.0632,0.0633,1,25,187,139,1,sixeight,,,,,,,,,,,,,,,,,,,,,,,,,,,,,,,,,,,,,,,,,,,,,,,,,,,,,,,,,,,,,,,,,,,,,,,,,,,,,,,,,,,,,,,,,,,,,,,,,,,,,,,,,,,,,,,,,,,,,,,,,,,,,,,,,,,,,,,,,
,,5ef67612126bfa36576e1b03,2024-02-18_20h15.19.852,kallum_motion_pilot,2023.2.2,Win32,48.07692308,5ef67612126bfa36576e1b03,65d2b6c8f2eece985d8e374c,65d2b84596fa611396bffb0d,0.0634,0.0634,1,26,188,21,1,threefour,,,,,,,,,,,,,,,,,,,,,,,,,,,,,,,,,,,,,,,,,,,,,,,,,,,,,,,,,,,,,,,,,,,,,,,,,,,,,,,,,,,,,,,,,,,,,,,,,,,,,,,,,,,,,,,,,,,,,,,,,,,,,,,,,,,,,,,,,
,,5ef67612126bfa36576e1b03,2024-02-18_20h15.19.852,kallum_motion_pilot,2023.2.2,Win32,48.07692308,5ef67612126bfa36576e1b03,65d2b6c8f2eece985d8e374c,65d2b84596fa611396bffb0d,0.0635,0.0635,1,27,189,141,1,seveneight,,,,,,,,,,,,,,,,,,,,,,,,,,,,,,,,,,,,,,,,,,,,,,,,,,,,,,,,,,,,,,,,,,,,,,,,,,,,,,,,,,,,,,,,,,,,,,,,,,,,,,,,,,,,,,,,,,,,,,,,,,,,,,,,,,,,,,,,,
,,5ef67612126bfa36576e1b03,2024-02-18_20h15.19.852,kallum_motion_pilot,2023.2.2,Win32,48.07692308,5ef67612126bfa36576e1b03,65d2b6c8f2eece985d8e374c,65d2b84596fa611396bffb0d,0.0637,0.0637,1,28,190,58,1,twoone,,,,,,,,,,,,,,,,,,,,,,,,,,,,,,,,,,,,,,,,,,,,,,,,,,,,,,,,,,,,,,,,,,,,,,,,,,,,,,,,,,,,,,,,,,,,,,,,,,,,,,,,,,,,,,,,,,,,,,,,,,,,,,,,,,,,,,,,,
,,5ef67612126bfa36576e1b03,2024-02-18_20h15.19.852,kallum_motion_pilot,2023.2.2,Win32,48.07692308,5ef67612126bfa36576e1b03,65d2b6c8f2eece985d8e374c,65d2b84596fa611396bffb0d,0.0638,0.0638,1,29,191,38,1,fourtwo,,,,,,,,,,,,,,,,,,,,,,,,,,,,,,,,,,,,,,,,,,,,,,,,,,,,,,,,,,,,,,,,,,,,,,,,,,,,,,,,,,,,,,,,,,,,,,,,,,,,,,,,,,,,,,,,,,,,,,,,,,,,,,,,,,,,,,,,,
,,5ef67612126bfa36576e1b03,2024-02-18_20h15.19.852,kallum_motion_pilot,2023.2.2,Win32,48.07692308,5ef67612126bfa36576e1b03,65d2b6c8f2eece985d8e374c,65d2b84596fa611396bffb0d,0.0639,0.0639,1,30,192,113,1,fiveseven,,,,,,,,,,,,,,,,,,,,,,,,,,,,,,,,,,,,,,,,,,,,,,,,,,,,,,,,,,,,,,,,,,,,,,,,,,,,,,,,,,,,,,,,,,,,,,,,,,,,,,,,,,,,,,,,,,,,,,,,,,,,,,,,,,,,,,,,,
,,5ef67612126bfa36576e1b03,2024-02-18_20h15.19.852,kallum_motion_pilot,2023.2.2,Win32,48.07692308,5ef67612126bfa36576e1b03,65d2b6c8f2eece985d8e374c,65d2b84596fa611396bffb0d,0.0641,0.0641,1,31,193,61,1,threefour,,,,,,,,,,,,,,,,,,,,,,,,,,,,,,,,,,,,,,,,,,,,,,,,,,,,,,,,,,,,,,,,,,,,,,,,,,,,,,,,,,,,,,,,,,,,,,,,,,,,,,,,,,,,,,,,,,,,,,,,,,,,,,,,,,,,,,,,,
,,5ef67612126bfa36576e1b03,2024-02-18_20h15.19.852,kallum_motion_pilot,2023.2.2,Win32,48.07692308,5ef67612126bfa36576e1b03,65d2b6c8f2eece985d8e374c,65d2b84596fa611396bffb0d,0.0642,0.0643,1,32,194,40,1,onetwo,,,,,,,,,,,,,,,,,,,,,,,,,,,,,,,,,,,,,,,,,,,,,,,,,,,,,,,,,,,,,,,,,,,,,,,,,,,,,,,,,,,,,,,,,,,,,,,,,,,,,,,,,,,,,,,,,,,,,,,,,,,,,,,,,,,,,,,,,
,,5ef67612126bfa36576e1b03,2024-02-18_20h15.19.852,kallum_motion_pilot,2023.2.2,Win32,48.07692308,5ef67612126bfa36576e1b03,65d2b6c8f2eece985d8e374c,65d2b84596fa611396bffb0d,0.0644,0.0644,1,33,195,27,1,twofour,,,,,,,,,,,,,,,,,,,,,,,,,,,,,,,,,,,,,,,,,,,,,,,,,,,,,,,,,,,,,,,,,,,,,,,,,,,,,,,,,,,,,,,,,,,,,,,,,,,,,,,,,,,,,,,,,,,,,,,,,,,,,,,,,,,,,,,,,
,,5ef67612126bfa36576e1b03,2024-02-18_20h15.19.852,kallum_motion_pilot,2023.2.2,Win32,48.07692308,5ef67612126bfa36576e1b03,65d2b6c8f2eece985d8e374c,65d2b84596fa611396bffb0d,0.0645,0.0646,1,34,196,138,1,sixfive,,,,,,,,,,,,,,,,,,,,,,,,,,,,,,,,,,,,,,,,,,,,,,,,,,,,,,,,,,,,,,,,,,,,,,,,,,,,,,,,,,,,,,,,,,,,,,,,,,,,,,,,,,,,,,,,,,,,,,,,,,,,,,,,,,,,,,,,,
,,5ef67612126bfa36576e1b03,2024-02-18_20h15.19.852,kallum_motion_pilot,2023.2.2,Win32,48.07692308,5ef67612126bfa36576e1b03,65d2b6c8f2eece985d8e374c,65d2b84596fa611396bffb0d,0.0646,0.0646,1,35,197,67,1,twofour,,,,,,,,,,,,,,,,,,,,,,,,,,,,,,,,,,,,,,,,,,,,,,,,,,,,,,,,,,,,,,,,,,,,,,,,,,,,,,,,,,,,,,,,,,,,,,,,,,,,,,,,,,,,,,,,,,,,,,,,,,,,,,,,,,,,,,,,,
,,5ef67612126bfa36576e1b03,2024-02-18_20h15.19.852,kallum_motion_pilot,2023.2.2,Win32,48.07692308,5ef67612126bfa36576e1b03,65d2b6c8f2eece985d8e374c,65d2b84596fa611396bffb0d,0.0647,0.0648,1,36,198,1,1,onethree,,,,,,,,,,,,,,,,,,,,,,,,,,,,,,,,,,,,,,,,,,,,,,,,,,,,,,,,,,,,,,,,,,,,,,,,,,,,,,,,,,,,,,,,,,,,,,,,,,,,,,,,,,,,,,,,,,,,,,,,,,,,,,,,,,,,,,,,,
,,5ef67612126bfa36576e1b03,2024-02-18_20h15.19.852,kallum_motion_pilot,2023.2.2,Win32,48.07692308,5ef67612126bfa36576e1b03,65d2b6c8f2eece985d8e374c,65d2b84596fa611396bffb0d,0.0649,0.065,1,37,199,134,1,eightsix,,,,,,,,,,,,,,,,,,,,,,,,,,,,,,,,,,,,,,,,,,,,,,,,,,,,,,,,,,,,,,,,,,,,,,,,,,,,,,,,,,,,,,,,,,,,,,,,,,,,,,,,,,,,,,,,,,,,,,,,,,,,,,,,,,,,,,,,,
,,5ef67612126bfa36576e1b03,2024-02-18_20h15.19.852,kallum_motion_pilot,2023.2.2,Win32,48.07692308,5ef67612126bfa36576e1b03,65d2b6c8f2eece985d8e374c,65d2b84596fa611396bffb0d,0.065,0.0652,1,38,200,24,1,onetwo,,,,,,,,,,,,,,,,,,,,,,,,,,,,,,,,,,,,,,,,,,,,,,,,,,,,,,,,,,,,,,,,,,,,,,,,,,,,,,,,,,,,,,,,,,,,,,,,,,,,,,,,,,,,,,,,,,,,,,,,,,,,,,,,,,,,,,,,,
,,5ef67612126bfa36576e1b03,2024-02-18_20h15.19.852,kallum_motion_pilot,2023.2.2,Win32,48.07692308,5ef67612126bfa36576e1b03,65d2b6c8f2eece985d8e374c,65d2b84596fa611396bffb0d,0.0652,0.0652,1,39,201,130,1,sixfive,,,,,,,,,,,,,,,,,,,,,,,,,,,,,,,,,,,,,,,,,,,,,,,,,,,,,,,,,,,,,,,,,,,,,,,,,,,,,,,,,,,,,,,,,,,,,,,,,,,,,,,,,,,,,,,,,,,,,,,,,,,,,,,,,,,,,,,,,
,,5ef67612126bfa36576e1b03,2024-02-18_20h15.19.852,kallum_motion_pilot,2023.2.2,Win32,48.07692308,5ef67612126bfa36576e1b03,65d2b6c8f2eece985d8e374c,65d2b84596fa611396bffb0d,0.0653,0.0654,1,40,202,121,1,fiveseven,,,,,,,,,,,,,,,,,,,,,,,,,,,,,,,,,,,,,,,,,,,,,,,,,,,,,,,,,,,,,,,,,,,,,,,,,,,,,,,,,,,,,,,,,,,,,,,,,,,,,,,,,,,,,,,,,,,,,,,,,,,,,,,,,,,,,,,,,
,,5ef67612126bfa36576e1b03,2024-02-18_20h15.19.852,kallum_motion_pilot,2023.2.2,Win32,48.07692308,5ef67612126bfa36576e1b03,65d2b6c8f2eece985d8e374c,65d2b84596fa611396bffb0d,0.0654,0.0655,1,41,203,146,1,sixfive,,,,,,,,,,,,,,,,,,,,,,,,,,,,,,,,,,,,,,,,,,,,,,,,,,,,,,,,,,,,,,,,,,,,,,,,,,,,,,,,,,,,,,,,,,,,,,,,,,,,,,,,,,,,,,,,,,,,,,,,,,,,,,,,,,,,,,,,,
,,5ef67612126bfa36576e1b03,2024-02-18_20h15.19.852,kallum_motion_pilot,2023.2.2,Win32,48.07692308,5ef67612126bfa36576e1b03,65d2b6c8f2eece985d8e374c,65d2b84596fa611396bffb0d,0.0656,0.0657,1,42,204,96,1,fivesix,,,,,,,,,,,,,,,,,,,,,,,,,,,,,,,,,,,,,,,,,,,,,,,,,,,,,,,,,,,,,,,,,,,,,,,,,,,,,,,,,,,,,,,,,,,,,,,,,,,,,,,,,,,,,,,,,,,,,,,,,,,,,,,,,,,,,,,,,
,,5ef67612126bfa36576e1b03,2024-02-18_20h15.19.852,kallum_motion_pilot,2023.2.2,Win32,48.07692308,5ef67612126bfa36576e1b03,65d2b6c8f2eece985d8e374c,65d2b84596fa611396bffb0d,0.0658,0.0658,1,43,205,92,1,sevenfive,,,,,,,,,,,,,,,,,,,,,,,,,,,,,,,,,,,,,,,,,,,,,,,,,,,,,,,,,,,,,,,,,,,,,,,,,,,,,,,,,,,,,,,,,,,,,,,,,,,,,,,,,,,,,,,,,,,,,,,,,,,,,,,,,,,,,,,,,
,,5ef67612126bfa36576e1b03,2024-02-18_20h15.19.852,kallum_motion_pilot,2023.2.2,Win32,48.07692308,5ef67612126bfa36576e1b03,65d2b6c8f2eece985d8e374c,65d2b84596fa611396bffb0d,0.0659,0.066,1,44,206,60,1,threeone,,,,,,,,,,,,,,,,,,,,,,,,,,,,,,,,,,,,,,,,,,,,,,,,,,,,,,,,,,,,,,,,,,,,,,,,,,,,,,,,,,,,,,,,,,,,,,,,,,,,,,,,,,,,,,,,,,,,,,,,,,,,,,,,,,,,,,,,,
,,5ef67612126bfa36576e1b03,2024-02-18_20h15.19.852,kallum_motion_pilot,2023.2.2,Win32,48.07692308,5ef67612126bfa36576e1b03,65d2b6c8f2eece985d8e374c,65d2b84596fa611396bffb0d,0.066,0.0661,1,45,207,129,1,fiveseven,,,,,,,,,,,,,,,,,,,,,,,,,,,,,,,,,,,,,,,,,,,,,,,,,,,,,,,,,,,,,,,,,,,,,,,,,,,,,,,,,,,,,,,,,,,,,,,,,,,,,,,,,,,,,,,,,,,,,,,,,,,,,,,,,,,,,,,,,
,,5ef67612126bfa36576e1b03,2024-02-18_20h15.19.852,kallum_motion_pilot,2023.2.2,Win32,48.07692308,5ef67612126bfa36576e1b03,65d2b6c8f2eece985d8e374c,65d2b84596fa611396bffb0d,0.0661,0.0662,1,46,208,95,1,eightseven,,,,,,,,,,,,,,,,,,,,,,,,,,,,,,,,,,,,,,,,,,,,,,,,,,,,,,,,,,,,,,,,,,,,,,,,,,,,,,,,,,,,,,,,,,,,,,,,,,,,,,,,,,,,,,,,,,,,,,,,,,,,,,,,,,,,,,,,,
,,5ef67612126bfa36576e1b03,2024-02-18_20h15.19.852,kallum_motion_pilot,2023.2.2,Win32,48.07692308,5ef67612126bfa36576e1b03,65d2b6c8f2eece985d8e374c,65d2b84596fa611396bffb0d,0.0663,0.0664,1,47,209,86,1,eightsix,,,,,,,,,,,,,,,,,,,,,,,,,,,,,,,,,,,,,,,,,,,,,,,,,,,,,,,,,,,,,,,,,,,,,,,,,,,,,,,,,,,,,,,,,,,,,,,,,,,,,,,,,,,,,,,,,,,,,,,,,,,,,,,,,,,,,,,,,
,,5ef67612126bfa36576e1b03,2024-02-18_20h15.19.852,kallum_motion_pilot,2023.2.2,Win32,48.07692308,5ef67612126bfa36576e1b03,65d2b6c8f2eece985d8e374c,65d2b84596fa611396bffb0d,0.0665,0.0665,1,48,210,7,1,fourthree,,,,,,,,,,,,,,,,,,,,,,,,,,,,,,,,,,,,,,,,,,,,,,,,,,,,,,,,,,,,,,,,,,,,,,,,,,,,,,,,,,,,,,,,,,,,,,,,,,,,,,,,,,,,,,,,,,,,,,,,,,,,,,,,,,,,,,,,,
,,5ef67612126bfa36576e1b03,2024-02-18_20h15.19.852,kallum_motion_pilot,2023.2.2,Win32,48.07692308,5ef67612126bfa36576e1b03,65d2b6c8f2eece985d8e374c,65d2b84596fa611396bffb0d,0.0666,0.0667,1,49,211,119,1,eightseven,,,,,,,,,,,,,,,,,,,,,,,,,,,,,,,,,,,,,,,,,,,,,,,,,,,,,,,,,,,,,,,,,,,,,,,,,,,,,,,,,,,,,,,,,,,,,,,,,,,,,,,,,,,,,,,,,,,,,,,,,,,,,,,,,,,,,,,,,
,,5ef67612126bfa36576e1b03,2024-02-18_20h15.19.852,kallum_motion_pilot,2023.2.2,Win32,48.07692308,5ef67612126bfa36576e1b03,65d2b6c8f2eece985d8e374c,65d2b84596fa611396bffb0d,0.0667,0.0668,1,50,212,28,1,threeone,,,,,,,,,,,,,,,,,,,,,,,,,,,,,,,,,,,,,,,,,,,,,,,,,,,,,,,,,,,,,,,,,,,,,,,,,,,,,,,,,,,,,,,,,,,,,,,,,,,,,,,,,,,,,,,,,,,,,,,,,,,,,,,,,,,,,,,,,
,,5ef67612126bfa36576e1b03,2024-02-18_20h15.19.852,kallum_motion_pilot,2023.2.2,Win32,48.07692308,5ef67612126bfa36576e1b03,65d2b6c8f2eece985d8e374c,65d2b84596fa611396bffb0d,0.0669,0.0669,1,51,213,78,1,fourtwo,,,,,,,,,,,,,,,,,,,,,,,,,,,,,,,,,,,,,,,,,,,,,,,,,,,,,,,,,,,,,,,,,,,,,,,,,,,,,,,,,,,,,,,,,,,,,,,,,,,,,,,,,,,,,,,,,,,,,,,,,,,,,,,,,,,,,,,,,
,,5ef67612126bfa36576e1b03,2024-02-18_20h15.19.852,kallum_motion_pilot,2023.2.2,Win32,48.07692308,5ef67612126bfa36576e1b03,65d2b6c8f2eece985d8e374c,65d2b84596fa611396bffb0d,0.067,0.067,1,52,214,124,1,sevenfive,,,,,,,,,,,,,,,,,,,,,,,,,,,,,,,,,,,,,,,,,,,,,,,,,,,,,,,,,,,,,,,,,,,,,,,,,,,,,,,,,,,,,,,,,,,,,,,,,,,,,,,,,,,,,,,,,,,,,,,,,,,,,,,,,,,,,,,,,
,,5ef67612126bfa36576e1b03,2024-02-18_20h15.19.852,kallum_motion_pilot,2023.2.2,Win32,48.07692308,5ef67612126bfa36576e1b03,65d2b6c8f2eece985d8e374c,65d2b84596fa611396bffb0d,0.0672,0.0672,1,53,215,5,1,threefour,,,,,,,,,,,,,,,,,,,,,,,,,,,,,,,,,,,,,,,,,,,,,,,,,,,,,,,,,,,,,,,,,,,,,,,,,,,,,,,,,,,,,,,,,,,,,,,,,,,,,,,,,,,,,,,,,,,,,,,,,,,,,,,,,,,,,,,,,
,,5ef67612126bfa36576e1b03,2024-02-18_20h15.19.852,kallum_motion_pilot,2023.2.2,Win32,48.07692308,5ef67612126bfa36576e1b03,65d2b6c8f2eece985d8e374c,65d2b84596fa611396bffb0d,0.0673,0.0674,1,54,216,103,1,eightseven,,,,,,,,,,,,,,,,,,,,,,,,,,,,,,,,,,,,,,,,,,,,,,,,,,,,,,,,,,,,,,,,,,,,,,,,,,,,,,,,,,,,,,,,,,,,,,,,,,,,,,,,,,,,,,,,,,,,,,,,,,,,,,,,,,,,,,,,,
,,5ef67612126bfa36576e1b03,2024-02-18_20h15.19.852,kallum_motion_pilot,2023.2.2,Win32,48.07692308,5ef67612126bfa36576e1b03,65d2b6c8f2eece985d8e374c,65d2b84596fa611396bffb0d,0.0674,0.0676,1,55,217,22,1,fourtwo,,,,,,,,,,,,,,,,,,,,,,,,,,,,,,,,,,,,,,,,,,,,,,,,,,,,,,,,,,,,,,,,,,,,,,,,,,,,,,,,,,,,,,,,,,,,,,,,,,,,,,,,,,,,,,,,,,,,,,,,,,,,,,,,,,,,,,,,,
,,5ef67612126bfa36576e1b03,2024-02-18_20h15.19.852,kallum_motion_pilot,2023.2.2,Win32,48.07692308,5ef67612126bfa36576e1b03,65d2b6c8f2eece985d8e374c,65d2b84596fa611396bffb0d,0.0676,0.0676,1,56,218,80,1,fivesix,,,,,,,,,,,,,,,,,,,,,,,,,,,,,,,,,,,,,,,,,,,,,,,,,,,,,,,,,,,,,,,,,,,,,,,,,,,,,,,,,,,,,,,,,,,,,,,,,,,,,,,,,,,,,,,,,,,,,,,,,,,,,,,,,,,,,,,,,
,,5ef67612126bfa36576e1b03,2024-02-18_20h15.19.852,kallum_motion_pilot,2023.2.2,Win32,48.07692308,5ef67612126bfa36576e1b03,65d2b6c8f2eece985d8e374c,65d2b84596fa611396bffb0d,0.0678,0.0679,1,57,219,64,1,onetwo,,,,,,,,,,,,,,,,,,,,,,,,,,,,,,,,,,,,,,,,,,,,,,,,,,,,,,,,,,,,,,,,,,,,,,,,,,,,,,,,,,,,,,,,,,,,,,,,,,,,,,,,,,,,,,,,,,,,,,,,,,,,,,,,,,,,,,,,,
,,5ef67612126bfa36576e1b03,2024-02-18_20h15.19.852,kallum_motion_pilot,2023.2.2,Win32,48.07692308,5ef67612126bfa36576e1b03,65d2b6c8f2eece985d8e374c,65d2b84596fa611396bffb0d,0.0679,0.068,1,58,220,126,1,eightsix,,,,,,,,,,,,,,,,,,,,,,,,,,,,,,,,,,,,,,,,,,,,,,,,,,,,,,,,,,,,,,,,,,,,,,,,,,,,,,,,,,,,,,,,,,,,,,,,,,,,,,,,,,,,,,,,,,,,,,,,,,,,,,,,,,,,,,,,,
,,5ef67612126bfa36576e1b03,2024-02-18_20h15.19.852,kallum_motion_pilot,2023.2.2,Win32,48.07692308,5ef67612126bfa36576e1b03,65d2b6c8f2eece985d8e374c,65d2b84596fa611396bffb0d,0.0681,0.0682,1,59,221,107,1,sixeight,,,,,,,,,,,,,,,,,,,,,,,,,,,,,,,,,,,,,,,,,,,,,,,,,,,,,,,,,,,,,,,,,,,,,,,,,,,,,,,,,,,,,,,,,,,,,,,,,,,,,,,,,,,,,,,,,,,,,,,,,,,,,,,,,,,,,,,,,
,,5ef67612126bfa36576e1b03,2024-02-18_20h15.19.852,kallum_motion_pilot,2023.2.2,Win32,48.07692308,5ef67612126bfa36576e1b03,65d2b6c8f2eece985d8e374c,65d2b84596fa611396bffb0d,0.0683,0.0683,1,60,222,120,1,fivesix,,,,,,,,,,,,,,,,,,,,,,,,,,,,,,,,,,,,,,,,,,,,,,,,,,,,,,,,,,,,,,,,,,,,,,,,,,,,,,,,,,,,,,,,,,,,,,,,,,,,,,,,,,,,,,,,,,,,,,,,,,,,,,,,,,,,,,,,,
,,5ef67612126bfa36576e1b03,2024-02-18_20h15.19.852,kallum_motion_pilot,2023.2.2,Win32,48.07692308,5ef67612126bfa36576e1b03,65d2b6c8f2eece985d8e374c,65d2b84596fa611396bffb0d,0.0684,0.0685,1,61,223,147,1,sixeight,,,,,,,,,,,,,,,,,,,,,,,,,,,,,,,,,,,,,,,,,,,,,,,,,,,,,,,,,,,,,,,,,,,,,,,,,,,,,,,,,,,,,,,,,,,,,,,,,,,,,,,,,,,,,,,,,,,,,,,,,,,,,,,,,,,,,,,,,
,,5ef67612126bfa36576e1b03,2024-02-18_20h15.19.852,kallum_motion_pilot,2023.2.2,Win32,48.07692308,5ef67612126bfa36576e1b03,65d2b6c8f2eece985d8e374c,65d2b84596fa611396bffb0d,0.0685,0.0686,1,62,224,47,1,fourthree,,,,,,,,,,,,,,,,,,,,,,,,,,,,,,,,,,,,,,,,,,,,,,,,,,,,,,,,,,,,,,,,,,,,,,,,,,,,,,,,,,,,,,,,,,,,,,,,,,,,,,,,,,,,,,,,,,,,,,,,,,,,,,,,,,,,,,,,,
,,5ef67612126bfa36576e1b03,2024-02-18_20h15.19.852,kallum_motion_pilot,2023.2.2,Win32,48.07692308,5ef67612126bfa36576e1b03,65d2b6c8f2eece985d8e374c,65d2b84596fa611396bffb0d,0.0686,0.0687,1,63,225,41,1,onethree,,,,,,,,,,,,,,,,,,,,,,,,,,,,,,,,,,,,,,,,,,,,,,,,,,,,,,,,,,,,,,,,,,,,,,,,,,,,,,,,,,,,,,,,,,,,,,,,,,,,,,,,,,,,,,,,,,,,,,,,,,,,,,,,,,,,,,,,,
,,5ef67612126bfa36576e1b03,2024-02-18_20h15.19.852,kallum_motion_pilot,2023.2.2,Win32,48.07692308,5ef67612126bfa36576e1b03,65d2b6c8f2eece985d8e374c,65d2b84596fa611396bffb0d,0.0688,0.0689,1,64,226,156,1,sevenfive,,,,,,,,,,,,,,,,,,,,,,,,,,,,,,,,,,,,,,,,,,,,,,,,,,,,,,,,,,,,,,,,,,,,,,,,,,,,,,,,,,,,,,,,,,,,,,,,,,,,,,,,,,,,,,,,,,,,,,,,,,,,,,,,,,,,,,,,,
,,5ef67612126bfa36576e1b03,2024-02-18_20h15.19.852,kallum_motion_pilot,2023.2.2,Win32,48.07692308,5ef67612126bfa36576e1b03,65d2b6c8f2eece985d8e374c,65d2b84596fa611396bffb0d,0.0689,0.069,1,65,227,50,1,twoone,,,,,,,,,,,,,,,,,,,,,,,,,,,,,,,,,,,,,,,,,,,,,,,,,,,,,,,,,,,,,,,,,,,,,,,,,,,,,,,,,,,,,,,,,,,,,,,,,,,,,,,,,,,,,,,,,,,,,,,,,,,,,,,,,,,,,,,,,
,,5ef67612126bfa36576e1b03,2024-02-18_20h15.19.852,kallum_motion_pilot,2023.2.2,Win32,48.07692308,5ef67612126bfa36576e1b03,65d2b6c8f2eece985d8e374c,65d2b84596fa611396bffb0d,0.0691,0.0692,1,66,228,3,1,twofour,,,,,,,,,,,,,,,,,,,,,,,,,,,,,,,,,,,,,,,,,,,,,,,,,,,,,,,,,,,,,,,,,,,,,,,,,,,,,,,,,,,,,,,,,,,,,,,,,,,,,,,,,,,,,,,,,,,,,,,,,,,,,,,,,,,,,,,,,
,,5ef67612126bfa36576e1b03,2024-02-18_20h15.19.852,kallum_motion_pilot,2023.2.2,Win32,48.07692308,5ef67612126bfa36576e1b03,65d2b6c8f2eece985d8e374c,65d2b84596fa611396bffb0d,0.0692,0.0693,1,67,229,128,1,fivesix,,,,,,,,,,,,,,,,,,,,,,,,,,,,,,,,,,,,,,,,,,,,,,,,,,,,,,,,,,,,,,,,,,,,,,,,,,,,,,,,,,,,,,,,,,,,,,,,,,,,,,,,,,,,,,,,,,,,,,,,,,,,,,,,,,,,,,,,,
,,5ef67612126bfa36576e1b03,2024-02-18_20h15.19.852,kallum_motion_pilot,2023.2.2,Win32,48.07692308,5ef67612126bfa36576e1b03,65d2b6c8f2eece985d8e374c,65d2b84596fa611396bffb0d,0.0694,0.0695,1,68,230,111,1,eightseven,,,,,,,,,,,,,,,,,,,,,,,,,,,,,,,,,,,,,,,,,,,,,,,,,,,,,,,,,,,,,,,,,,,,,,,,,,,,,,,,,,,,,,,,,,,,,,,,,,,,,,,,,,,,,,,,,,,,,,,,,,,,,,,,,,,,,,,,,
,,5ef67612126bfa36576e1b03,2024-02-18_20h15.19.852,kallum_motion_pilot,2023.2.2,Win32,48.07692308,5ef67612126bfa36576e1b03,65d2b6c8f2eece985d8e374c,65d2b84596fa611396bffb0d,0.0696,0.0696,1,69,231,79,1,eightseven,,,,,,,,,,,,,,,,,,,,,,,,,,,,,,,,,,,,,,,,,,,,,,,,,,,,,,,,,,,,,,,,,,,,,,,,,,,,,,,,,,,,,,,,,,,,,,,,,,,,,,,,,,,,,,,,,,,,,,,,,,,,,,,,,,,,,,,,,
,,5ef67612126bfa36576e1b03,2024-02-18_20h15.19.852,kallum_motion_pilot,2023.2.2,Win32,48.07692308,5ef67612126bfa36576e1b03,65d2b6c8f2eece985d8e374c,65d2b84596fa611396bffb0d,0.0698,0.0698,1,70,232,85,1,seveneight,,,,,,,,,,,,,,,,,,,,,,,,,,,,,,,,,,,,,,,,,,,,,,,,,,,,,,,,,,,,,,,,,,,,,,,,,,,,,,,,,,,,,,,,,,,,,,,,,,,,,,,,,,,,,,,,,,,,,,,,,,,,,,,,,,,,,,,,,
,,5ef67612126bfa36576e1b03,2024-02-18_20h15.19.852,kallum_motion_pilot,2023.2.2,Win32,48.07692308,5ef67612126bfa36576e1b03,65d2b6c8f2eece985d8e374c,65d2b84596fa611396bffb0d,0.0699,0.07,1,71,233,55,1,fourthree,,,,,,,,,,,,,,,,,,,,,,,,,,,,,,,,,,,,,,,,,,,,,,,,,,,,,,,,,,,,,,,,,,,,,,,,,,,,,,,,,,,,,,,,,,,,,,,,,,,,,,,,,,,,,,,,,,,,,,,,,,,,,,,,,,,,,,,,,
,,5ef67612126bfa36576e1b03,2024-02-18_20h15.19.852,kallum_motion_pilot,2023.2.2,Win32,48.07692308,5ef67612126bfa36576e1b03,65d2b6c8f2eece985d8e374c,65d2b84596fa611396bffb0d,0.0701,0.0702,1,72,234,45,1,threefour,,,,,,,,,,,,,,,,,,,,,,,,,,,,,,,,,,,,,,,,,,,,,,,,,,,,,,,,,,,,,,,,,,,,,,,,,,,,,,,,,,,,,,,,,,,,,,,,,,,,,,,,,,,,,,,,,,,,,,,,,,,,,,,,,,,,,,,,,
,,5ef67612126bfa36576e1b03,2024-02-18_20h15.19.852,kallum_motion_pilot,2023.2.2,Win32,48.07692308,5ef67612126bfa36576e1b03,65d2b6c8f2eece985d8e374c,65d2b84596fa611396bffb0d,0.0702,0.0704,1,73,235,136,1,fivesix,,,,,,,,,,,,,,,,,,,,,,,,,,,,,,,,,,,,,,,,,,,,,,,,,,,,,,,,,,,,,,,,,,,,,,,,,,,,,,,,,,,,,,,,,,,,,,,,,,,,,,,,,,,,,,,,,,,,,,,,,,,,,,,,,,,,,,,,,
,,5ef67612126bfa36576e1b03,2024-02-18_20h15.19.852,kallum_motion_pilot,2023.2.2,Win32,48.07692308,5ef67612126bfa36576e1b03,65d2b6c8f2eece985d8e374c,65d2b84596fa611396bffb0d,0.0704,0.0705,1,74,236,90,1,sixfive,,,,,,,,,,,,,,,,,,,,,,,,,,,,,,,,,,,,,,,,,,,,,,,,,,,,,,,,,,,,,,,,,,,,,,,,,,,,,,,,,,,,,,,,,,,,,,,,,,,,,,,,,,,,,,,,,,,,,,,,,,,,,,,,,,,,,,,,,
,,5ef67612126bfa36576e1b03,2024-02-18_20h15.19.852,kallum_motion_pilot,2023.2.2,Win32,48.07692308,5ef67612126bfa36576e1b03,65d2b6c8f2eece985d8e374c,65d2b84596fa611396bffb0d,0.0706,0.0707,1,75,237,73,1,onethree,,,,,,,,,,,,,,,,,,,,,,,,,,,,,,,,,,,,,,,,,,,,,,,,,,,,,,,,,,,,,,,,,,,,,,,,,,,,,,,,,,,,,,,,,,,,,,,,,,,,,,,,,,,,,,,,,,,,,,,,,,,,,,,,,,,,,,,,,
,,5ef67612126bfa36576e1b03,2024-02-18_20h15.19.852,kallum_motion_pilot,2023.2.2,Win32,48.07692308,5ef67612126bfa36576e1b03,65d2b6c8f2eece985d8e374c,65d2b84596fa611396bffb0d,0.0709,0.0709,1,76,238,100,1,sevenfive,,,,,,,,,,,,,,,,,,,,,,,,,,,,,,,,,,,,,,,,,,,,,,,,,,,,,,,,,,,,,,,,,,,,,,,,,,,,,,,,,,,,,,,,,,,,,,,,,,,,,,,,,,,,,,,,,,,,,,,,,,,,,,,,,,,,,,,,,
,,5ef67612126bfa36576e1b03,2024-02-18_20h15.19.852,kallum_motion_pilot,2023.2.2,Win32,48.07692308,5ef67612126bfa36576e1b03,65d2b6c8f2eece985d8e374c,65d2b84596fa611396bffb0d,0.0711,0.0712,1,77,239,52,1,threeone,,,,,,,,,,,,,,,,,,,,,,,,,,,,,,,,,,,,,,,,,,,,,,,,,,,,,,,,,,,,,,,,,,,,,,,,,,,,,,,,,,,,,,,,,,,,,,,,,,,,,,,,,,,,,,,,,,,,,,,,,,,,,,,,,,,,,,,,,
,,5ef67612126bfa36576e1b03,2024-02-18_20h15.19.852,kallum_motion_pilot,2023.2.2,Win32,48.07692308,5ef67612126bfa36576e1b03,65d2b6c8f2eece985d8e374c,65d2b84596fa611396bffb0d,0.0712,0.0714,1,78,240,13,1,threefour,,,,,,,,,,,,,,,,,,,,,,,,,,,,,,,,,,,,,,,,,,,,,,,,,,,,,,,,,,,,,,,,,,,,,,,,,,,,,,,,,,,,,,,,,,,,,,,,,,,,,,,,,,,,,,,,,,,,,,,,,,,,,,,,,,,,,,,,,
,,5ef67612126bfa36576e1b03,2024-02-18_20h15.19.852,kallum_motion_pilot,2023.2.2,Win32,48.07692308,5ef67612126bfa36576e1b03,65d2b6c8f2eece985d8e374c,65d2b84596fa611396bffb0d,0.0716,0.0718,1,79,241,63,1,fourthree,,,,,,,,,,,,,,,,,,,,,,,,,,,,,,,,,,,,,,,,,,,,,,,,,,,,,,,,,,,,,,,,,,,,,,,,,,,,,,,,,,,,,,,,,,,,,,,,,,,,,,,,,,,,,,,,,,,,,,,,,,,,,,,,,,,,,,,,,
,,5ef67612126bfa36576e1b03,2024-02-18_20h15.19.852,kallum_motion_pilot,2023.2.2,Win32,48.07692308,5ef67612126bfa36576e1b03,65d2b6c8f2eece985d8e374c,65d2b84596fa611396bffb0d,0.0718,0.0719,1,80,242,9,1,onethree,,,,,,,,,,,,,,,,,,,,,,,,,,,,,,,,,,,,,,,,,,,,,,,,,,,,,,,,,,,,,,,,,,,,,,,,,,,,,,,,,,,,,,,,,,,,,,,,,,,,,,,,,,,,,,,,,,,,,,,,,,,,,,,,,,,,,,,,,
,,5ef67612126bfa36576e1b03,2024-02-18_20h15.19.852,kallum_motion_pilot,2023.2.2,Win32,48.07692308,5ef67612126bfa36576e1b03,65d2b6c8f2eece985d8e374c,65d2b84596fa611396bffb0d,0.072,0.0721,1,81,243,151,1,eightseven,,,,,,,,,,,,,,,,,,,,,,,,,,,,,,,,,,,,,,,,,,,,,,,,,,,,,,,,,,,,,,,,,,,,,,,,,,,,,,,,,,,,,,,,,,,,,,,,,,,,,,,,,,,,,,,,,,,,,,,,,,,,,,,,,,,,,,,,,
,,5ef67612126bfa36576e1b03,2024-02-18_20h15.19.852,kallum_motion_pilot,2023.2.2,Win32,48.07692308,5ef67612126bfa36576e1b03,65d2b6c8f2eece985d8e374c,65d2b84596fa611396bffb0d,0.0722,0.0723,1,82,244,108,1,sevenfive,,,,,,,,,,,,,,,,,,,,,,,,,,,,,,,,,,,,,,,,,,,,,,,,,,,,,,,,,,,,,,,,,,,,,,,,,,,,,,,,,,,,,,,,,,,,,,,,,,,,,,,,,,,,,,,,,,,,,,,,,,,,,,,,,,,,,,,,,
,,5ef67612126bfa36576e1b03,2024-02-18_20h15.19.852,kallum_motion_pilot,2023.2.2,Win32,48.07692308,5ef67612126bfa36576e1b03,65d2b6c8f2eece985d8e374c,65d2b84596fa611396bffb0d,0.0725,0.0726,1,83,245,131,1,sixeight,,,,,,,,,,,,,,,,,,,,,,,,,,,,,,,,,,,,,,,,,,,,,,,,,,,,,,,,,,,,,,,,,,,,,,,,,,,,,,,,,,,,,,,,,,,,,,,,,,,,,,,,,,,,,,,,,,,,,,,,,,,,,,,,,,,,,,,,,
,,5ef67612126bfa36576e1b03,2024-02-18_20h15.19.852,kallum_motion_pilot,2023.2.2,Win32,48.07692308,5ef67612126bfa36576e1b03,65d2b6c8f2eece985d8e374c,65d2b84596fa611396bffb0d,0.0726,0.0727,1,84,246,16,1,onetwo,,,,,,,,,,,,,,,,,,,,,,,,,,,,,,,,,,,,,,,,,,,,,,,,,,,,,,,,,,,,,,,,,,,,,,,,,,,,,,,,,,,,,,,,,,,,,,,,,,,,,,,,,,,,,,,,,,,,,,,,,,,,,,,,,,,,,,,,,
,,5ef67612126bfa36576e1b03,2024-02-18_20h15.19.852,kallum_motion_pilot,2023.2.2,Win32,48.07692308,5ef67612126bfa36576e1b03,65d2b6c8f2eece985d8e374c,65d2b84596fa611396bffb0d,0.0728,0.0728,1,85,247,105,1,fiveseven,,,,,,,,,,,,,,,,,,,,,,,,,,,,,,,,,,,,,,,,,,,,,,,,,,,,,,,,,,,,,,,,,,,,,,,,,,,,,,,,,,,,,,,,,,,,,,,,,,,,,,,,,,,,,,,,,,,,,,,,,,,,,,,,,,,,,,,,,
,,5ef67612126bfa36576e1b03,2024-02-18_20h15.19.852,kallum_motion_pilot,2023.2.2,Win32,48.07692308,5ef67612126bfa36576e1b03,65d2b6c8f2eece985d8e374c,65d2b84596fa611396bffb0d,0.0729,0.073,1,86,248,140,1,sevenfive,,,,,,,,,,,,,,,,,,,,,,,,,,,,,,,,,,,,,,,,,,,,,,,,,,,,,,,,,,,,,,,,,,,,,,,,,,,,,,,,,,,,,,,,,,,,,,,,,,,,,,,,,,,,,,,,,,,,,,,,,,,,,,,,,,,,,,,,,
,,5ef67612126bfa36576e1b03,2024-02-18_20h15.19.852,kallum_motion_pilot,2023.2.2,Win32,48.07692308,5ef67612126bfa36576e1b03,65d2b6c8f2eece985d8e374c,65d2b84596fa611396bffb0d,0.073,0.0731,1,87,249,142,1,eightsix,,,,,,,,,,,,,,,,,,,,,,,,,,,,,,,,,,,,,,,,,,,,,,,,,,,,,,,,,,,,,,,,,,,,,,,,,,,,,,,,,,,,,,,,,,,,,,,,,,,,,,,,,,,,,,,,,,,,,,,,,,,,,,,,,,,,,,,,,
,,5ef67612126bfa36576e1b03,2024-02-18_20h15.19.852,kallum_motion_pilot,2023.2.2,Win32,48.07692308,5ef67612126bfa36576e1b03,65d2b6c8f2eece985d8e374c,65d2b84596fa611396bffb0d,0.0732,0.0733,1,88,250,15,1,fourthree,,,,,,,,,,,,,,,,,,,,,,,,,,,,,,,,,,,,,,,,,,,,,,,,,,,,,,,,,,,,,,,,,,,,,,,,,,,,,,,,,,,,,,,,,,,,,,,,,,,,,,,,,,,,,,,,,,,,,,,,,,,,,,,,,,,,,,,,,
,,5ef67612126bfa36576e1b03,2024-02-18_20h15.19.852,kallum_motion_pilot,2023.2.2,Win32,48.07692308,5ef67612126bfa36576e1b03,65d2b6c8f2eece985d8e374c,65d2b84596fa611396bffb0d,0.0734,0.0735,1,89,251,104,1,fivesix,,,,,,,,,,,,,,,,,,,,,,,,,,,,,,,,,,,,,,,,,,,,,,,,,,,,,,,,,,,,,,,,,,,,,,,,,,,,,,,,,,,,,,,,,,,,,,,,,,,,,,,,,,,,,,,,,,,,,,,,,,,,,,,,,,,,,,,,,
,,5ef67612126bfa36576e1b03,2024-02-18_20h15.19.852,kallum_motion_pilot,2023.2.2,Win32,48.07692308,5ef67612126bfa36576e1b03,65d2b6c8f2eece985d8e374c,65d2b84596fa611396bffb0d,0.0738,0.0738,1,90,252,135,1,eightseven,,,,,,,,,,,,,,,,,,,,,,,,,,,,,,,,,,,,,,,,,,,,,,,,,,,,,,,,,,,,,,,,,,,,,,,,,,,,,,,,,,,,,,,,,,,,,,,,,,,,,,,,,,,,,,,,,,,,,,,,,,,,,,,,,,,,,,,,,
,,5ef67612126bfa36576e1b03,2024-02-18_20h15.19.852,kallum_motion_pilot,2023.2.2,Win32,48.07692308,5ef67612126bfa36576e1b03,65d2b6c8f2eece985d8e374c,65d2b84596fa611396bffb0d,0.0739,0.0741,1,91,253,23,1,fourthree,,,,,,,,,,,,,,,,,,,,,,,,,,,,,,,,,,,,,,,,,,,,,,,,,,,,,,,,,,,,,,,,,,,,,,,,,,,,,,,,,,,,,,,,,,,,,,,,,,,,,,,,,,,,,,,,,,,,,,,,,,,,,,,,,,,,,,,,,
,,5ef67612126bfa36576e1b03,2024-02-18_20h15.19.852,kallum_motion_pilot,2023.2.2,Win32,48.07692308,5ef67612126bfa36576e1b03,65d2b6c8f2eece985d8e374c,65d2b84596fa611396bffb0d,0.0741,0.0743,1,92,254,144,1,fivesix,,,,,,,,,,,,,,,,,,,,,,,,,,,,,,,,,,,,,,,,,,,,,,,,,,,,,,,,,,,,,,,,,,,,,,,,,,,,,,,,,,,,,,,,,,,,,,,,,,,,,,,,,,,,,,,,,,,,,,,,,,,,,,,,,,,,,,,,,
,,5ef67612126bfa36576e1b03,2024-02-18_20h15.19.852,kallum_motion_pilot,2023.2.2,Win32,48.07692308,5ef67612126bfa36576e1b03,65d2b6c8f2eece985d8e374c,65d2b84596fa611396bffb0d,0.0744,0.0746,1,93,255,44,1,threeone,,,,,,,,,,,,,,,,,,,,,,,,,,,,,,,,,,,,,,,,,,,,,,,,,,,,,,,,,,,,,,,,,,,,,,,,,,,,,,,,,,,,,,,,,,,,,,,,,,,,,,,,,,,,,,,,,,,,,,,,,,,,,,,,,,,,,,,,,
,,5ef67612126bfa36576e1b03,2024-02-18_20h15.19.852,kallum_motion_pilot,2023.2.2,Win32,48.07692308,5ef67612126bfa36576e1b03,65d2b6c8f2eece985d8e374c,65d2b84596fa611396bffb0d,0.0747,0.0748,1,94,256,65,1,onethree,,,,,,,,,,,,,,,,,,,,,,,,,,,,,,,,,,,,,,,,,,,,,,,,,,,,,,,,,,,,,,,,,,,,,,,,,,,,,,,,,,,,,,,,,,,,,,,,,,,,,,,,,,,,,,,,,,,,,,,,,,,,,,,,,,,,,,,,,
,,5ef67612126bfa36576e1b03,2024-02-18_20h15.19.852,kallum_motion_pilot,2023.2.2,Win32,48.07692308,5ef67612126bfa36576e1b03,65d2b6c8f2eece985d8e374c,65d2b84596fa611396bffb0d,0.0749,0.0749,1,95,257,152,1,fivesix,,,,,,,,,,,,,,,,,,,,,,,,,,,,,,,,,,,,,,,,,,,,,,,,,,,,,,,,,,,,,,,,,,,,,,,,,,,,,,,,,,,,,,,,,,,,,,,,,,,,,,,,,,,,,,,,,,,,,,,,,,,,,,,,,,,,,,,,,
,,5ef67612126bfa36576e1b03,2024-02-18_20h15.19.852,kallum_motion_pilot,2023.2.2,Win32,48.07692308,5ef67612126bfa36576e1b03,65d2b6c8f2eece985d8e374c,65d2b84596fa611396bffb0d,0.075,0.0751,1,96,258,145,1,fiveseven,,,,,,,,,,,,,,,,,,,,,,,,,,,,,,,,,,,,,,,,,,,,,,,,,,,,,,,,,,,,,,,,,,,,,,,,,,,,,,,,,,,,,,,,,,,,,,,,,,,,,,,,,,,,,,,,,,,,,,,,,,,,,,,,,,,,,,,,,
,,5ef67612126bfa36576e1b03,2024-02-18_20h15.19.852,kallum_motion_pilot,2023.2.2,Win32,48.07692308,5ef67612126bfa36576e1b03,65d2b6c8f2eece985d8e374c,65d2b84596fa611396bffb0d,0.0752,0.0753,1,97,259,115,1,sixeight,,,,,,,,,,,,,,,,,,,,,,,,,,,,,,,,,,,,,,,,,,,,,,,,,,,,,,,,,,,,,,,,,,,,,,,,,,,,,,,,,,,,,,,,,,,,,,,,,,,,,,,,,,,,,,,,,,,,,,,,,,,,,,,,,,,,,,,,,
,,5ef67612126bfa36576e1b03,2024-02-18_20h15.19.852,kallum_motion_pilot,2023.2.2,Win32,48.07692308,5ef67612126bfa36576e1b03,65d2b6c8f2eece985d8e374c,65d2b84596fa611396bffb0d,0.0755,0.0756,1,98,260,8,1,onetwo,,,,,,,,,,,,,,,,,,,,,,,,,,,,,,,,,,,,,,,,,,,,,,,,,,,,,,,,,,,,,,,,,,,,,,,,,,,,,,,,,,,,,,,,,,,,,,,,,,,,,,,,,,,,,,,,,,,,,,,,,,,,,,,,,,,,,,,,,
,,5ef67612126bfa36576e1b03,2024-02-18_20h15.19.852,kallum_motion_pilot,2023.2.2,Win32,48.07692308,5ef67612126bfa36576e1b03,65d2b6c8f2eece985d8e374c,65d2b84596fa611396bffb0d,0.0757,0.0758,1,99,261,18,1,twoone,,,,,,,,,,,,,,,,,,,,,,,,,,,,,,,,,,,,,,,,,,,,,,,,,,,,,,,,,,,,,,,,,,,,,,,,,,,,,,,,,,,,,,,,,,,,,,,,,,,,,,,,,,,,,,,,,,,,,,,,,,,,,,,,,,,,,,,,,
,,5ef67612126bfa36576e1b03,2024-02-18_20h15.19.852,kallum_motion_pilot,2023.2.2,Win32,48.07692308,5ef67612126bfa36576e1b03,65d2b6c8f2eece985d8e374c,65d2b84596fa611396bffb0d,0.0758,0.0759,1,100,262,19,1,twofour,,,,,,,,,,,,,,,,,,,,,,,,,,,,,,,,,,,,,,,,,,,,,,,,,,,,,,,,,,,,,,,,,,,,,,,,,,,,,,,,,,,,,,,,,,,,,,,,,,,,,,,,,,,,,,,,,,,,,,,,,,,,,,,,,,,,,,,,,
,,5ef67612126bfa36576e1b03,2024-02-18_20h15.19.852,kallum_motion_pilot,2023.2.2,Win32,48.07692308,5ef67612126bfa36576e1b03,65d2b6c8f2eece985d8e374c,65d2b84596fa611396bffb0d,0.076,0.0761,1,101,263,51,1,twofour,,,,,,,,,,,,,,,,,,,,,,,,,,,,,,,,,,,,,,,,,,,,,,,,,,,,,,,,,,,,,,,,,,,,,,,,,,,,,,,,,,,,,,,,,,,,,,,,,,,,,,,,,,,,,,,,,,,,,,,,,,,,,,,,,,,,,,,,,
,,5ef67612126bfa36576e1b03,2024-02-18_20h15.19.852,kallum_motion_pilot,2023.2.2,Win32,48.07692308,5ef67612126bfa36576e1b03,65d2b6c8f2eece985d8e374c,65d2b84596fa611396bffb0d,0.0763,0.0763,1,102,264,74,1,twoone,,,,,,,,,,,,,,,,,,,,,,,,,,,,,,,,,,,,,,,,,,,,,,,,,,,,,,,,,,,,,,,,,,,,,,,,,,,,,,,,,,,,,,,,,,,,,,,,,,,,,,,,,,,,,,,,,,,,,,,,,,,,,,,,,,,,,,,,,
,,5ef67612126bfa36576e1b03,2024-02-18_20h15.19.852,kallum_motion_pilot,2023.2.2,Win32,48.07692308,5ef67612126bfa36576e1b03,65d2b6c8f2eece985d8e374c,65d2b84596fa611396bffb0d,0.0765,0.0765,1,103,265,143,1,eightseven,,,,,,,,,,,,,,,,,,,,,,,,,,,,,,,,,,,,,,,,,,,,,,,,,,,,,,,,,,,,,,,,,,,,,,,,,,,,,,,,,,,,,,,,,,,,,,,,,,,,,,,,,,,,,,,,,,,,,,,,,,,,,,,,,,,,,,,,,
,,5ef67612126bfa36576e1b03,2024-02-18_20h15.19.852,kallum_motion_pilot,2023.2.2,Win32,48.07692308,5ef67612126bfa36576e1b03,65d2b6c8f2eece985d8e374c,65d2b84596fa611396bffb0d,0.0766,0.0767,1,104,266,155,1,sixeight,,,,,,,,,,,,,,,,,,,,,,,,,,,,,,,,,,,,,,,,,,,,,,,,,,,,,,,,,,,,,,,,,,,,,,,,,,,,,,,,,,,,,,,,,,,,,,,,,,,,,,,,,,,,,,,,,,,,,,,,,,,,,,,,,,,,,,,,,
,,5ef67612126bfa36576e1b03,2024-02-18_20h15.19.852,kallum_motion_pilot,2023.2.2,Win32,48.07692308,5ef67612126bfa36576e1b03,65d2b6c8f2eece985d8e374c,65d2b84596fa611396bffb0d,0.0768,0.0769,1,105,267,160,1,fivesix,,,,,,,,,,,,,,,,,,,,,,,,,,,,,,,,,,,,,,,,,,,,,,,,,,,,,,,,,,,,,,,,,,,,,,,,,,,,,,,,,,,,,,,,,,,,,,,,,,,,,,,,,,,,,,,,,,,,,,,,,,,,,,,,,,,,,,,,,
,,5ef67612126bfa36576e1b03,2024-02-18_20h15.19.852,kallum_motion_pilot,2023.2.2,Win32,48.07692308,5ef67612126bfa36576e1b03,65d2b6c8f2eece985d8e374c,65d2b84596fa611396bffb0d,0.077,0.0771,1,106,268,32,1,onetwo,,,,,,,,,,,,,,,,,,,,,,,,,,,,,,,,,,,,,,,,,,,,,,,,,,,,,,,,,,,,,,,,,,,,,,,,,,,,,,,,,,,,,,,,,,,,,,,,,,,,,,,,,,,,,,,,,,,,,,,,,,,,,,,,,,,,,,,,,
,,5ef67612126bfa36576e1b03,2024-02-18_20h15.19.852,kallum_motion_pilot,2023.2.2,Win32,48.07692308,5ef67612126bfa36576e1b03,65d2b6c8f2eece985d8e374c,65d2b84596fa611396bffb0d,0.0772,0.0772,1,107,269,53,1,threefour,,,,,,,,,,,,,,,,,,,,,,,,,,,,,,,,,,,,,,,,,,,,,,,,,,,,,,,,,,,,,,,,,,,,,,,,,,,,,,,,,,,,,,,,,,,,,,,,,,,,,,,,,,,,,,,,,,,,,,,,,,,,,,,,,,,,,,,,,
,,5ef67612126bfa36576e1b03,2024-02-18_20h15.19.852,kallum_motion_pilot,2023.2.2,Win32,48.07692308,5ef67612126bfa36576e1b03,65d2b6c8f2eece985d8e374c,65d2b84596fa611396bffb0d,0.0774,0.0776,1,108,270,66,1,twoone,,,,,,,,,,,,,,,,,,,,,,,,,,,,,,,,,,,,,,,,,,,,,,,,,,,,,,,,,,,,,,,,,,,,,,,,,,,,,,,,,,,,,,,,,,,,,,,,,,,,,,,,,,,,,,,,,,,,,,,,,,,,,,,,,,,,,,,,,
,,5ef67612126bfa36576e1b03,2024-02-18_20h15.19.852,kallum_motion_pilot,2023.2.2,Win32,48.07692308,5ef67612126bfa36576e1b03,65d2b6c8f2eece985d8e374c,65d2b84596fa611396bffb0d,0.0776,0.0777,1,109,271,161,1,fiveseven,,,,,,,,,,,,,,,,,,,,,,,,,,,,,,,,,,,,,,,,,,,,,,,,,,,,,,,,,,,,,,,,,,,,,,,,,,,,,,,,,,,,,,,,,,,,,,,,,,,,,,,,,,,,,,,,,,,,,,,,,,,,,,,,,,,,,,,,,
,,5ef67612126bfa36576e1b03,2024-02-18_20h15.19.852,kallum_motion_pilot,2023.2.2,Win32,48.07692308,5ef67612126bfa36576e1b03,65d2b6c8f2eece985d8e374c,65d2b84596fa611396bffb0d,0.0778,0.0779,1,110,272,148,1,sevenfive,,,,,,,,,,,,,,,,,,,,,,,,,,,,,,,,,,,,,,,,,,,,,,,,,,,,,,,,,,,,,,,,,,,,,,,,,,,,,,,,,,,,,,,,,,,,,,,,,,,,,,,,,,,,,,,,,,,,,,,,,,,,,,,,,,,,,,,,,
,,5ef67612126bfa36576e1b03,2024-02-18_20h15.19.852,kallum_motion_pilot,2023.2.2,Win32,48.07692308,5ef67612126bfa36576e1b03,65d2b6c8f2eece985d8e374c,65d2b84596fa611396bffb0d,0.078,0.0781,1,111,273,6,1,fourtwo,,,,,,,,,,,,,,,,,,,,,,,,,,,,,,,,,,,,,,,,,,,,,,,,,,,,,,,,,,,,,,,,,,,,,,,,,,,,,,,,,,,,,,,,,,,,,,,,,,,,,,,,,,,,,,,,,,,,,,,,,,,,,,,,,,,,,,,,,
,,5ef67612126bfa36576e1b03,2024-02-18_20h15.19.852,kallum_motion_pilot,2023.2.2,Win32,48.07692308,5ef67612126bfa36576e1b03,65d2b6c8f2eece985d8e374c,65d2b84596fa611396bffb0d,0.0782,0.0782,1,112,274,110,1,eightsix,,,,,,,,,,,,,,,,,,,,,,,,,,,,,,,,,,,,,,,,,,,,,,,,,,,,,,,,,,,,,,,,,,,,,,,,,,,,,,,,,,,,,,,,,,,,,,,,,,,,,,,,,,,,,,,,,,,,,,,,,,,,,,,,,,,,,,,,,
,,5ef67612126bfa36576e1b03,2024-02-18_20h15.19.852,kallum_motion_pilot,2023.2.2,Win32,48.07692308,5ef67612126bfa36576e1b03,65d2b6c8f2eece985d8e374c,65d2b84596fa611396bffb0d,0.0783,0.0784,1,113,275,83,1,sixeight,,,,,,,,,,,,,,,,,,,,,,,,,,,,,,,,,,,,,,,,,,,,,,,,,,,,,,,,,,,,,,,,,,,,,,,,,,,,,,,,,,,,,,,,,,,,,,,,,,,,,,,,,,,,,,,,,,,,,,,,,,,,,,,,,,,,,,,,,
,,5ef67612126bfa36576e1b03,2024-02-18_20h15.19.852,kallum_motion_pilot,2023.2.2,Win32,48.07692308,5ef67612126bfa36576e1b03,65d2b6c8f2eece985d8e374c,65d2b84596fa611396bffb0d,0.0785,0.0787,1,114,276,43,1,twofour,,,,,,,,,,,,,,,,,,,,,,,,,,,,,,,,,,,,,,,,,,,,,,,,,,,,,,,,,,,,,,,,,,,,,,,,,,,,,,,,,,,,,,,,,,,,,,,,,,,,,,,,,,,,,,,,,,,,,,,,,,,,,,,,,,,,,,,,,
,,5ef67612126bfa36576e1b03,2024-02-18_20h15.19.852,kallum_motion_pilot,2023.2.2,Win32,48.07692308,5ef67612126bfa36576e1b03,65d2b6c8f2eece985d8e374c,65d2b84596fa611396bffb0d,0.0788,0.079,1,115,277,30,1,fourtwo,,,,,,,,,,,,,,,,,,,,,,,,,,,,,,,,,,,,,,,,,,,,,,,,,,,,,,,,,,,,,,,,,,,,,,,,,,,,,,,,,,,,,,,,,,,,,,,,,,,,,,,,,,,,,,,,,,,,,,,,,,,,,,,,,,,,,,,,,
