startup.started,startup.stopped,Prolific ID*,date,expName,psychopyVersion,OS,frameRate,participant,study_id,session,stimpositions.started,stimpositions.stopped,hardcoded_stimulus_positions.thisRepN,hardcoded_stimulus_positions.thisTrialN,hardcoded_stimulus_positions.thisN,hardcoded_stimulus_positions.thisIndex,hardcoded_stimulus_positions.ran,StimulusPos,stimorientation.started,stimorientation.stopped,prac_stimorientation_import_loop.thisRepN,prac_stimorientation_import_loop.thisTrialN,prac_stimorientation_import_loop.thisN,prac_stimorientation_import_loop.thisIndex,prac_stimorientation_import_loop.ran,Stimorientation,welcome_instr.started,welcome_instr.stopped,key_resp.keys,key_resp.rt,key_resp.duration,response_steppedout_1.started,response_steppedout_1.stopped,key_resp_20.keys,key_resp_20.rt,key_resp_20.duration,response_steppedout_2.started,response_steppedout_2.stopped,key_resp_19.keys,key_resp_19.rt,key_resp_19.duration,stim_response_instr.started,stim_response_instr.stopped,key_resp_15.keys,key_resp_15.rt,key_resp_15.duration,direction_instr_2.started,direction_instr_2.stopped,key_resp_9.keys,key_resp_9.rt,key_resp_9.duration,instr_prac.started,instr_prac.stopped,key_resp_10.keys,key_resp_10.rt,key_resp_10.duration,Stim1_display_prac.started,Stim1_display_prac.stopped,Ecc,Circle1_ori,Circle2_ori,response_prac.started,similarity,response_time,response_prac.stopped,mouse_5.x,mouse_5.y,mouse_5.leftButton,mouse_5.midButton,mouse_5.rightButton,mouse_5.clicked_name,responseprac_feedback.started,responseprac_feedback.stopped,summary2_prac.started,summary2_prac.stopped,mouse_6.x,mouse_6.y,mouse_6.leftButton,mouse_6.midButton,mouse_6.rightButton,mouse_6.clicked_name,duringprac.thisRepN,duringprac.thisTrialN,duringprac.thisN,duringprac.thisIndex,duringprac.ran,begin.started,begin.stopped,key_resp_22.keys,key_resp_22.rt,key_resp_22.duration,Stim1_display.started,Stim1_display.stopped,circle1_ori,circle2_ori,circle1_SF,circle2_SF,response.started,response.stopped,mouse.x,mouse.y,mouse.leftButton,mouse.midButton,mouse.rightButton,mouse.clicked_name,trialnumber,double_pass.thisRepN,double_pass.thisTrialN,double_pass.thisN,double_pass.thisIndex,double_pass.ran,double_pass.order,main_trial.thisRepN,main_trial.thisTrialN,main_trial.thisN,main_trial.thisIndex,main_trial.ran,main_trial.order,Trial_Counter,Catch,Frequencies,response_2.started,response_2.stopped,mouse_2.x,mouse_2.y,mouse_2.leftButton,mouse_2.midButton,mouse_2.rightButton,mouse_2.clicked_name,special_trial.started,special_trial.stopped,catch_1.started,catch_1.stopped,mouse_3.x,mouse_3.y,mouse_3.leftButton,mouse_3.midButton,mouse_3.rightButton,catchresponse,catchnumber,response_time_catch,response_sum.started,response_sum.stopped,mouse_11.x,mouse_11.y,mouse_11.leftButton,mouse_11.midButton,mouse_11.rightButton,flip_presentation_sequence_for_double_pass.started,flip_presentation_sequence_for_double_pass.stopped,goodbye.started,goodbye.stopped,key_resp_3.keys,key_resp_3.rt,key_resp_3.duration
0.0003,0.0005,5f035cb3e9d86255405f1d46,2024-02-19_03h19.03.937,kallum_motion_pilot,2023.2.2,Win32,119.047619,5f035cb3e9d86255405f1d46,65d2b6c8f2eece985d8e374c,65d2b996341d070378ca4f0f,,,,,,,,,,,,,,,,,,,,,,,,,,,,,,,,,,,,,,,,,,,,,,,,,,,,,,,,,,,,,,,,,,,,,,,,,,,,,,,,,,,,,,,,,,,,,,,,,,,,,,,,,,,,,,,,,,,,,,,,,,,,,,,,,,,,,,,,,,,,,,,,,
,,5f035cb3e9d86255405f1d46,2024-02-19_03h19.03.937,kallum_motion_pilot,2023.2.2,Win32,119.047619,5f035cb3e9d86255405f1d46,65d2b6c8f2eece985d8e374c,65d2b996341d070378ca4f0f,0.0258,0.0262,0,0,0,89,1,fiveseven,,,,,,,,,,,,,,,,,,,,,,,,,,,,,,,,,,,,,,,,,,,,,,,,,,,,,,,,,,,,,,,,,,,,,,,,,,,,,,,,,,,,,,,,,,,,,,,,,,,,,,,,,,,,,,,,,,,,,,,,,,,,,,,,,,,,,,,,,
,,5f035cb3e9d86255405f1d46,2024-02-19_03h19.03.937,kallum_motion_pilot,2023.2.2,Win32,119.047619,5f035cb3e9d86255405f1d46,65d2b6c8f2eece985d8e374c,65d2b996341d070378ca4f0f,0.0265,0.0265,0,1,1,81,1,fiveseven,,,,,,,,,,,,,,,,,,,,,,,,,,,,,,,,,,,,,,,,,,,,,,,,,,,,,,,,,,,,,,,,,,,,,,,,,,,,,,,,,,,,,,,,,,,,,,,,,,,,,,,,,,,,,,,,,,,,,,,,,,,,,,,,,,,,,,,,,
,,5f035cb3e9d86255405f1d46,2024-02-19_03h19.03.937,kallum_motion_pilot,2023.2.2,Win32,119.047619,5f035cb3e9d86255405f1d46,65d2b6c8f2eece985d8e374c,65d2b996341d070378ca4f0f,0.0266,0.0267,0,2,2,31,1,fourthree,,,,,,,,,,,,,,,,,,,,,,,,,,,,,,,,,,,,,,,,,,,,,,,,,,,,,,,,,,,,,,,,,,,,,,,,,,,,,,,,,,,,,,,,,,,,,,,,,,,,,,,,,,,,,,,,,,,,,,,,,,,,,,,,,,,,,,,,,
,,5f035cb3e9d86255405f1d46,2024-02-19_03h19.03.937,kallum_motion_pilot,2023.2.2,Win32,119.047619,5f035cb3e9d86255405f1d46,65d2b6c8f2eece985d8e374c,65d2b996341d070378ca4f0f,0.0269,0.0269,0,3,3,147,1,sixeight,,,,,,,,,,,,,,,,,,,,,,,,,,,,,,,,,,,,,,,,,,,,,,,,,,,,,,,,,,,,,,,,,,,,,,,,,,,,,,,,,,,,,,,,,,,,,,,,,,,,,,,,,,,,,,,,,,,,,,,,,,,,,,,,,,,,,,,,,
,,5f035cb3e9d86255405f1d46,2024-02-19_03h19.03.937,kallum_motion_pilot,2023.2.2,Win32,119.047619,5f035cb3e9d86255405f1d46,65d2b6c8f2eece985d8e374c,65d2b996341d070378ca4f0f,0.0272,0.0272,0,4,4,50,1,twoone,,,,,,,,,,,,,,,,,,,,,,,,,,,,,,,,,,,,,,,,,,,,,,,,,,,,,,,,,,,,,,,,,,,,,,,,,,,,,,,,,,,,,,,,,,,,,,,,,,,,,,,,,,,,,,,,,,,,,,,,,,,,,,,,,,,,,,,,,
,,5f035cb3e9d86255405f1d46,2024-02-19_03h19.03.937,kallum_motion_pilot,2023.2.2,Win32,119.047619,5f035cb3e9d86255405f1d46,65d2b6c8f2eece985d8e374c,65d2b996341d070378ca4f0f,0.0274,0.0274,0,5,5,32,1,onetwo,,,,,,,,,,,,,,,,,,,,,,,,,,,,,,,,,,,,,,,,,,,,,,,,,,,,,,,,,,,,,,,,,,,,,,,,,,,,,,,,,,,,,,,,,,,,,,,,,,,,,,,,,,,,,,,,,,,,,,,,,,,,,,,,,,,,,,,,,
,,5f035cb3e9d86255405f1d46,2024-02-19_03h19.03.937,kallum_motion_pilot,2023.2.2,Win32,119.047619,5f035cb3e9d86255405f1d46,65d2b6c8f2eece985d8e374c,65d2b996341d070378ca4f0f,0.0276,0.0276,0,6,6,4,1,threeone,,,,,,,,,,,,,,,,,,,,,,,,,,,,,,,,,,,,,,,,,,,,,,,,,,,,,,,,,,,,,,,,,,,,,,,,,,,,,,,,,,,,,,,,,,,,,,,,,,,,,,,,,,,,,,,,,,,,,,,,,,,,,,,,,,,,,,,,,
,,5f035cb3e9d86255405f1d46,2024-02-19_03h19.03.937,kallum_motion_pilot,2023.2.2,Win32,119.047619,5f035cb3e9d86255405f1d46,65d2b6c8f2eece985d8e374c,65d2b996341d070378ca4f0f,0.0279,0.0279,0,7,7,52,1,threeone,,,,,,,,,,,,,,,,,,,,,,,,,,,,,,,,,,,,,,,,,,,,,,,,,,,,,,,,,,,,,,,,,,,,,,,,,,,,,,,,,,,,,,,,,,,,,,,,,,,,,,,,,,,,,,,,,,,,,,,,,,,,,,,,,,,,,,,,,
,,5f035cb3e9d86255405f1d46,2024-02-19_03h19.03.937,kallum_motion_pilot,2023.2.2,Win32,119.047619,5f035cb3e9d86255405f1d46,65d2b6c8f2eece985d8e374c,65d2b996341d070378ca4f0f,0.028,0.0281,0,8,8,27,1,twofour,,,,,,,,,,,,,,,,,,,,,,,,,,,,,,,,,,,,,,,,,,,,,,,,,,,,,,,,,,,,,,,,,,,,,,,,,,,,,,,,,,,,,,,,,,,,,,,,,,,,,,,,,,,,,,,,,,,,,,,,,,,,,,,,,,,,,,,,,
,,5f035cb3e9d86255405f1d46,2024-02-19_03h19.03.937,kallum_motion_pilot,2023.2.2,Win32,119.047619,5f035cb3e9d86255405f1d46,65d2b6c8f2eece985d8e374c,65d2b996341d070378ca4f0f,0.0283,0.0284,0,9,9,39,1,fourthree,,,,,,,,,,,,,,,,,,,,,,,,,,,,,,,,,,,,,,,,,,,,,,,,,,,,,,,,,,,,,,,,,,,,,,,,,,,,,,,,,,,,,,,,,,,,,,,,,,,,,,,,,,,,,,,,,,,,,,,,,,,,,,,,,,,,,,,,,
,,5f035cb3e9d86255405f1d46,2024-02-19_03h19.03.937,kallum_motion_pilot,2023.2.2,Win32,119.047619,5f035cb3e9d86255405f1d46,65d2b6c8f2eece985d8e374c,65d2b996341d070378ca4f0f,0.0285,0.0286,0,10,10,30,1,fourtwo,,,,,,,,,,,,,,,,,,,,,,,,,,,,,,,,,,,,,,,,,,,,,,,,,,,,,,,,,,,,,,,,,,,,,,,,,,,,,,,,,,,,,,,,,,,,,,,,,,,,,,,,,,,,,,,,,,,,,,,,,,,,,,,,,,,,,,,,,
,,5f035cb3e9d86255405f1d46,2024-02-19_03h19.03.937,kallum_motion_pilot,2023.2.2,Win32,119.047619,5f035cb3e9d86255405f1d46,65d2b6c8f2eece985d8e374c,65d2b996341d070378ca4f0f,0.0288,0.0288,0,11,11,133,1,seveneight,,,,,,,,,,,,,,,,,,,,,,,,,,,,,,,,,,,,,,,,,,,,,,,,,,,,,,,,,,,,,,,,,,,,,,,,,,,,,,,,,,,,,,,,,,,,,,,,,,,,,,,,,,,,,,,,,,,,,,,,,,,,,,,,,,,,,,,,,
,,5f035cb3e9d86255405f1d46,2024-02-19_03h19.03.937,kallum_motion_pilot,2023.2.2,Win32,119.047619,5f035cb3e9d86255405f1d46,65d2b6c8f2eece985d8e374c,65d2b996341d070378ca4f0f,0.029,0.029,0,12,12,104,1,fivesix,,,,,,,,,,,,,,,,,,,,,,,,,,,,,,,,,,,,,,,,,,,,,,,,,,,,,,,,,,,,,,,,,,,,,,,,,,,,,,,,,,,,,,,,,,,,,,,,,,,,,,,,,,,,,,,,,,,,,,,,,,,,,,,,,,,,,,,,,
,,5f035cb3e9d86255405f1d46,2024-02-19_03h19.03.937,kallum_motion_pilot,2023.2.2,Win32,119.047619,5f035cb3e9d86255405f1d46,65d2b6c8f2eece985d8e374c,65d2b996341d070378ca4f0f,0.0292,0.0292,0,13,13,123,1,sixeight,,,,,,,,,,,,,,,,,,,,,,,,,,,,,,,,,,,,,,,,,,,,,,,,,,,,,,,,,,,,,,,,,,,,,,,,,,,,,,,,,,,,,,,,,,,,,,,,,,,,,,,,,,,,,,,,,,,,,,,,,,,,,,,,,,,,,,,,,
,,5f035cb3e9d86255405f1d46,2024-02-19_03h19.03.937,kallum_motion_pilot,2023.2.2,Win32,119.047619,5f035cb3e9d86255405f1d46,65d2b6c8f2eece985d8e374c,65d2b996341d070378ca4f0f,0.0293,0.0293,0,14,14,142,1,eightsix,,,,,,,,,,,,,,,,,,,,,,,,,,,,,,,,,,,,,,,,,,,,,,,,,,,,,,,,,,,,,,,,,,,,,,,,,,,,,,,,,,,,,,,,,,,,,,,,,,,,,,,,,,,,,,,,,,,,,,,,,,,,,,,,,,,,,,,,,
,,5f035cb3e9d86255405f1d46,2024-02-19_03h19.03.937,kallum_motion_pilot,2023.2.2,Win32,119.047619,5f035cb3e9d86255405f1d46,65d2b6c8f2eece985d8e374c,65d2b996341d070378ca4f0f,0.0295,0.0296,0,15,15,16,1,onetwo,,,,,,,,,,,,,,,,,,,,,,,,,,,,,,,,,,,,,,,,,,,,,,,,,,,,,,,,,,,,,,,,,,,,,,,,,,,,,,,,,,,,,,,,,,,,,,,,,,,,,,,,,,,,,,,,,,,,,,,,,,,,,,,,,,,,,,,,,
,,5f035cb3e9d86255405f1d46,2024-02-19_03h19.03.937,kallum_motion_pilot,2023.2.2,Win32,119.047619,5f035cb3e9d86255405f1d46,65d2b6c8f2eece985d8e374c,65d2b996341d070378ca4f0f,0.0297,0.0298,0,16,16,137,1,fiveseven,,,,,,,,,,,,,,,,,,,,,,,,,,,,,,,,,,,,,,,,,,,,,,,,,,,,,,,,,,,,,,,,,,,,,,,,,,,,,,,,,,,,,,,,,,,,,,,,,,,,,,,,,,,,,,,,,,,,,,,,,,,,,,,,,,,,,,,,,
,,5f035cb3e9d86255405f1d46,2024-02-19_03h19.03.937,kallum_motion_pilot,2023.2.2,Win32,119.047619,5f035cb3e9d86255405f1d46,65d2b6c8f2eece985d8e374c,65d2b996341d070378ca4f0f,0.0301,0.0302,0,17,17,13,1,threefour,,,,,,,,,,,,,,,,,,,,,,,,,,,,,,,,,,,,,,,,,,,,,,,,,,,,,,,,,,,,,,,,,,,,,,,,,,,,,,,,,,,,,,,,,,,,,,,,,,,,,,,,,,,,,,,,,,,,,,,,,,,,,,,,,,,,,,,,,
,,5f035cb3e9d86255405f1d46,2024-02-19_03h19.03.937,kallum_motion_pilot,2023.2.2,Win32,119.047619,5f035cb3e9d86255405f1d46,65d2b6c8f2eece985d8e374c,65d2b996341d070378ca4f0f,0.0304,0.0304,0,18,18,129,1,fiveseven,,,,,,,,,,,,,,,,,,,,,,,,,,,,,,,,,,,,,,,,,,,,,,,,,,,,,,,,,,,,,,,,,,,,,,,,,,,,,,,,,,,,,,,,,,,,,,,,,,,,,,,,,,,,,,,,,,,,,,,,,,,,,,,,,,,,,,,,,
,,5f035cb3e9d86255405f1d46,2024-02-19_03h19.03.937,kallum_motion_pilot,2023.2.2,Win32,119.047619,5f035cb3e9d86255405f1d46,65d2b6c8f2eece985d8e374c,65d2b996341d070378ca4f0f,0.0305,0.0306,0,19,19,96,1,fivesix,,,,,,,,,,,,,,,,,,,,,,,,,,,,,,,,,,,,,,,,,,,,,,,,,,,,,,,,,,,,,,,,,,,,,,,,,,,,,,,,,,,,,,,,,,,,,,,,,,,,,,,,,,,,,,,,,,,,,,,,,,,,,,,,,,,,,,,,,
,,5f035cb3e9d86255405f1d46,2024-02-19_03h19.03.937,kallum_motion_pilot,2023.2.2,Win32,119.047619,5f035cb3e9d86255405f1d46,65d2b6c8f2eece985d8e374c,65d2b996341d070378ca4f0f,0.0307,0.0307,0,20,20,44,1,threeone,,,,,,,,,,,,,,,,,,,,,,,,,,,,,,,,,,,,,,,,,,,,,,,,,,,,,,,,,,,,,,,,,,,,,,,,,,,,,,,,,,,,,,,,,,,,,,,,,,,,,,,,,,,,,,,,,,,,,,,,,,,,,,,,,,,,,,,,,
,,5f035cb3e9d86255405f1d46,2024-02-19_03h19.03.937,kallum_motion_pilot,2023.2.2,Win32,119.047619,5f035cb3e9d86255405f1d46,65d2b6c8f2eece985d8e374c,65d2b996341d070378ca4f0f,0.0308,0.0309,0,21,21,41,1,onethree,,,,,,,,,,,,,,,,,,,,,,,,,,,,,,,,,,,,,,,,,,,,,,,,,,,,,,,,,,,,,,,,,,,,,,,,,,,,,,,,,,,,,,,,,,,,,,,,,,,,,,,,,,,,,,,,,,,,,,,,,,,,,,,,,,,,,,,,,
,,5f035cb3e9d86255405f1d46,2024-02-19_03h19.03.937,kallum_motion_pilot,2023.2.2,Win32,119.047619,5f035cb3e9d86255405f1d46,65d2b6c8f2eece985d8e374c,65d2b996341d070378ca4f0f,0.0311,0.0311,0,22,22,23,1,fourthree,,,,,,,,,,,,,,,,,,,,,,,,,,,,,,,,,,,,,,,,,,,,,,,,,,,,,,,,,,,,,,,,,,,,,,,,,,,,,,,,,,,,,,,,,,,,,,,,,,,,,,,,,,,,,,,,,,,,,,,,,,,,,,,,,,,,,,,,,
,,5f035cb3e9d86255405f1d46,2024-02-19_03h19.03.937,kallum_motion_pilot,2023.2.2,Win32,119.047619,5f035cb3e9d86255405f1d46,65d2b6c8f2eece985d8e374c,65d2b996341d070378ca4f0f,0.0313,0.0313,0,23,23,28,1,threeone,,,,,,,,,,,,,,,,,,,,,,,,,,,,,,,,,,,,,,,,,,,,,,,,,,,,,,,,,,,,,,,,,,,,,,,,,,,,,,,,,,,,,,,,,,,,,,,,,,,,,,,,,,,,,,,,,,,,,,,,,,,,,,,,,,,,,,,,,
,,5f035cb3e9d86255405f1d46,2024-02-19_03h19.03.937,kallum_motion_pilot,2023.2.2,Win32,119.047619,5f035cb3e9d86255405f1d46,65d2b6c8f2eece985d8e374c,65d2b996341d070378ca4f0f,0.0315,0.0315,0,24,24,75,1,twofour,,,,,,,,,,,,,,,,,,,,,,,,,,,,,,,,,,,,,,,,,,,,,,,,,,,,,,,,,,,,,,,,,,,,,,,,,,,,,,,,,,,,,,,,,,,,,,,,,,,,,,,,,,,,,,,,,,,,,,,,,,,,,,,,,,,,,,,,,
,,5f035cb3e9d86255405f1d46,2024-02-19_03h19.03.937,kallum_motion_pilot,2023.2.2,Win32,119.047619,5f035cb3e9d86255405f1d46,65d2b6c8f2eece985d8e374c,65d2b996341d070378ca4f0f,0.0317,0.0317,0,25,25,38,1,fourtwo,,,,,,,,,,,,,,,,,,,,,,,,,,,,,,,,,,,,,,,,,,,,,,,,,,,,,,,,,,,,,,,,,,,,,,,,,,,,,,,,,,,,,,,,,,,,,,,,,,,,,,,,,,,,,,,,,,,,,,,,,,,,,,,,,,,,,,,,,
,,5f035cb3e9d86255405f1d46,2024-02-19_03h19.03.937,kallum_motion_pilot,2023.2.2,Win32,119.047619,5f035cb3e9d86255405f1d46,65d2b6c8f2eece985d8e374c,65d2b996341d070378ca4f0f,0.0318,0.0319,0,26,26,139,1,sixeight,,,,,,,,,,,,,,,,,,,,,,,,,,,,,,,,,,,,,,,,,,,,,,,,,,,,,,,,,,,,,,,,,,,,,,,,,,,,,,,,,,,,,,,,,,,,,,,,,,,,,,,,,,,,,,,,,,,,,,,,,,,,,,,,,,,,,,,,,
,,5f035cb3e9d86255405f1d46,2024-02-19_03h19.03.937,kallum_motion_pilot,2023.2.2,Win32,119.047619,5f035cb3e9d86255405f1d46,65d2b6c8f2eece985d8e374c,65d2b996341d070378ca4f0f,0.032,0.0321,0,27,27,8,1,onetwo,,,,,,,,,,,,,,,,,,,,,,,,,,,,,,,,,,,,,,,,,,,,,,,,,,,,,,,,,,,,,,,,,,,,,,,,,,,,,,,,,,,,,,,,,,,,,,,,,,,,,,,,,,,,,,,,,,,,,,,,,,,,,,,,,,,,,,,,,
,,5f035cb3e9d86255405f1d46,2024-02-19_03h19.03.937,kallum_motion_pilot,2023.2.2,Win32,119.047619,5f035cb3e9d86255405f1d46,65d2b6c8f2eece985d8e374c,65d2b996341d070378ca4f0f,0.0321,0.0322,0,28,28,114,1,sixfive,,,,,,,,,,,,,,,,,,,,,,,,,,,,,,,,,,,,,,,,,,,,,,,,,,,,,,,,,,,,,,,,,,,,,,,,,,,,,,,,,,,,,,,,,,,,,,,,,,,,,,,,,,,,,,,,,,,,,,,,,,,,,,,,,,,,,,,,,
,,5f035cb3e9d86255405f1d46,2024-02-19_03h19.03.937,kallum_motion_pilot,2023.2.2,Win32,119.047619,5f035cb3e9d86255405f1d46,65d2b6c8f2eece985d8e374c,65d2b996341d070378ca4f0f,0.0323,0.0324,0,29,29,88,1,fivesix,,,,,,,,,,,,,,,,,,,,,,,,,,,,,,,,,,,,,,,,,,,,,,,,,,,,,,,,,,,,,,,,,,,,,,,,,,,,,,,,,,,,,,,,,,,,,,,,,,,,,,,,,,,,,,,,,,,,,,,,,,,,,,,,,,,,,,,,,
,,5f035cb3e9d86255405f1d46,2024-02-19_03h19.03.937,kallum_motion_pilot,2023.2.2,Win32,119.047619,5f035cb3e9d86255405f1d46,65d2b6c8f2eece985d8e374c,65d2b996341d070378ca4f0f,0.0325,0.0325,0,30,30,20,1,threeone,,,,,,,,,,,,,,,,,,,,,,,,,,,,,,,,,,,,,,,,,,,,,,,,,,,,,,,,,,,,,,,,,,,,,,,,,,,,,,,,,,,,,,,,,,,,,,,,,,,,,,,,,,,,,,,,,,,,,,,,,,,,,,,,,,,,,,,,,
,,5f035cb3e9d86255405f1d46,2024-02-19_03h19.03.937,kallum_motion_pilot,2023.2.2,Win32,119.047619,5f035cb3e9d86255405f1d46,65d2b6c8f2eece985d8e374c,65d2b996341d070378ca4f0f,0.0326,0.0328,0,31,31,79,1,eightseven,,,,,,,,,,,,,,,,,,,,,,,,,,,,,,,,,,,,,,,,,,,,,,,,,,,,,,,,,,,,,,,,,,,,,,,,,,,,,,,,,,,,,,,,,,,,,,,,,,,,,,,,,,,,,,,,,,,,,,,,,,,,,,,,,,,,,,,,,
,,5f035cb3e9d86255405f1d46,2024-02-19_03h19.03.937,kallum_motion_pilot,2023.2.2,Win32,119.047619,5f035cb3e9d86255405f1d46,65d2b6c8f2eece985d8e374c,65d2b996341d070378ca4f0f,0.0329,0.0329,0,32,32,119,1,eightseven,,,,,,,,,,,,,,,,,,,,,,,,,,,,,,,,,,,,,,,,,,,,,,,,,,,,,,,,,,,,,,,,,,,,,,,,,,,,,,,,,,,,,,,,,,,,,,,,,,,,,,,,,,,,,,,,,,,,,,,,,,,,,,,,,,,,,,,,,
,,5f035cb3e9d86255405f1d46,2024-02-19_03h19.03.937,kallum_motion_pilot,2023.2.2,Win32,119.047619,5f035cb3e9d86255405f1d46,65d2b6c8f2eece985d8e374c,65d2b996341d070378ca4f0f,0.0331,0.0331,0,33,33,72,1,onetwo,,,,,,,,,,,,,,,,,,,,,,,,,,,,,,,,,,,,,,,,,,,,,,,,,,,,,,,,,,,,,,,,,,,,,,,,,,,,,,,,,,,,,,,,,,,,,,,,,,,,,,,,,,,,,,,,,,,,,,,,,,,,,,,,,,,,,,,,,
,,5f035cb3e9d86255405f1d46,2024-02-19_03h19.03.937,kallum_motion_pilot,2023.2.2,Win32,119.047619,5f035cb3e9d86255405f1d46,65d2b6c8f2eece985d8e374c,65d2b996341d070378ca4f0f,0.0332,0.0332,0,34,34,161,1,fiveseven,,,,,,,,,,,,,,,,,,,,,,,,,,,,,,,,,,,,,,,,,,,,,,,,,,,,,,,,,,,,,,,,,,,,,,,,,,,,,,,,,,,,,,,,,,,,,,,,,,,,,,,,,,,,,,,,,,,,,,,,,,,,,,,,,,,,,,,,,
,,5f035cb3e9d86255405f1d46,2024-02-19_03h19.03.937,kallum_motion_pilot,2023.2.2,Win32,119.047619,5f035cb3e9d86255405f1d46,65d2b6c8f2eece985d8e374c,65d2b996341d070378ca4f0f,0.0333,0.0334,0,35,35,5,1,threefour,,,,,,,,,,,,,,,,,,,,,,,,,,,,,,,,,,,,,,,,,,,,,,,,,,,,,,,,,,,,,,,,,,,,,,,,,,,,,,,,,,,,,,,,,,,,,,,,,,,,,,,,,,,,,,,,,,,,,,,,,,,,,,,,,,,,,,,,,
,,5f035cb3e9d86255405f1d46,2024-02-19_03h19.03.937,kallum_motion_pilot,2023.2.2,Win32,119.047619,5f035cb3e9d86255405f1d46,65d2b6c8f2eece985d8e374c,65d2b996341d070378ca4f0f,0.0335,0.0336,0,36,36,9,1,onethree,,,,,,,,,,,,,,,,,,,,,,,,,,,,,,,,,,,,,,,,,,,,,,,,,,,,,,,,,,,,,,,,,,,,,,,,,,,,,,,,,,,,,,,,,,,,,,,,,,,,,,,,,,,,,,,,,,,,,,,,,,,,,,,,,,,,,,,,,
,,5f035cb3e9d86255405f1d46,2024-02-19_03h19.03.937,kallum_motion_pilot,2023.2.2,Win32,119.047619,5f035cb3e9d86255405f1d46,65d2b6c8f2eece985d8e374c,65d2b996341d070378ca4f0f,0.0337,0.0338,0,37,37,80,1,fivesix,,,,,,,,,,,,,,,,,,,,,,,,,,,,,,,,,,,,,,,,,,,,,,,,,,,,,,,,,,,,,,,,,,,,,,,,,,,,,,,,,,,,,,,,,,,,,,,,,,,,,,,,,,,,,,,,,,,,,,,,,,,,,,,,,,,,,,,,,
,,5f035cb3e9d86255405f1d46,2024-02-19_03h19.03.937,kallum_motion_pilot,2023.2.2,Win32,119.047619,5f035cb3e9d86255405f1d46,65d2b6c8f2eece985d8e374c,65d2b996341d070378ca4f0f,0.0339,0.0339,0,38,38,43,1,twofour,,,,,,,,,,,,,,,,,,,,,,,,,,,,,,,,,,,,,,,,,,,,,,,,,,,,,,,,,,,,,,,,,,,,,,,,,,,,,,,,,,,,,,,,,,,,,,,,,,,,,,,,,,,,,,,,,,,,,,,,,,,,,,,,,,,,,,,,,
,,5f035cb3e9d86255405f1d46,2024-02-19_03h19.03.937,kallum_motion_pilot,2023.2.2,Win32,119.047619,5f035cb3e9d86255405f1d46,65d2b6c8f2eece985d8e374c,65d2b996341d070378ca4f0f,0.0341,0.0342,0,39,39,76,1,threeone,,,,,,,,,,,,,,,,,,,,,,,,,,,,,,,,,,,,,,,,,,,,,,,,,,,,,,,,,,,,,,,,,,,,,,,,,,,,,,,,,,,,,,,,,,,,,,,,,,,,,,,,,,,,,,,,,,,,,,,,,,,,,,,,,,,,,,,,,
,,5f035cb3e9d86255405f1d46,2024-02-19_03h19.03.937,kallum_motion_pilot,2023.2.2,Win32,119.047619,5f035cb3e9d86255405f1d46,65d2b6c8f2eece985d8e374c,65d2b996341d070378ca4f0f,0.0343,0.0343,0,40,40,56,1,onetwo,,,,,,,,,,,,,,,,,,,,,,,,,,,,,,,,,,,,,,,,,,,,,,,,,,,,,,,,,,,,,,,,,,,,,,,,,,,,,,,,,,,,,,,,,,,,,,,,,,,,,,,,,,,,,,,,,,,,,,,,,,,,,,,,,,,,,,,,,
,,5f035cb3e9d86255405f1d46,2024-02-19_03h19.03.937,kallum_motion_pilot,2023.2.2,Win32,119.047619,5f035cb3e9d86255405f1d46,65d2b6c8f2eece985d8e374c,65d2b996341d070378ca4f0f,0.0344,0.0345,0,41,41,63,1,fourthree,,,,,,,,,,,,,,,,,,,,,,,,,,,,,,,,,,,,,,,,,,,,,,,,,,,,,,,,,,,,,,,,,,,,,,,,,,,,,,,,,,,,,,,,,,,,,,,,,,,,,,,,,,,,,,,,,,,,,,,,,,,,,,,,,,,,,,,,,
,,5f035cb3e9d86255405f1d46,2024-02-19_03h19.03.937,kallum_motion_pilot,2023.2.2,Win32,119.047619,5f035cb3e9d86255405f1d46,65d2b6c8f2eece985d8e374c,65d2b996341d070378ca4f0f,0.0346,0.0346,0,42,42,146,1,sixfive,,,,,,,,,,,,,,,,,,,,,,,,,,,,,,,,,,,,,,,,,,,,,,,,,,,,,,,,,,,,,,,,,,,,,,,,,,,,,,,,,,,,,,,,,,,,,,,,,,,,,,,,,,,,,,,,,,,,,,,,,,,,,,,,,,,,,,,,,
,,5f035cb3e9d86255405f1d46,2024-02-19_03h19.03.937,kallum_motion_pilot,2023.2.2,Win32,119.047619,5f035cb3e9d86255405f1d46,65d2b6c8f2eece985d8e374c,65d2b996341d070378ca4f0f,0.0348,0.0349,0,43,43,69,1,threefour,,,,,,,,,,,,,,,,,,,,,,,,,,,,,,,,,,,,,,,,,,,,,,,,,,,,,,,,,,,,,,,,,,,,,,,,,,,,,,,,,,,,,,,,,,,,,,,,,,,,,,,,,,,,,,,,,,,,,,,,,,,,,,,,,,,,,,,,,
,,5f035cb3e9d86255405f1d46,2024-02-19_03h19.03.937,kallum_motion_pilot,2023.2.2,Win32,119.047619,5f035cb3e9d86255405f1d46,65d2b6c8f2eece985d8e374c,65d2b996341d070378ca4f0f,0.035,0.0351,0,44,44,51,1,twofour,,,,,,,,,,,,,,,,,,,,,,,,,,,,,,,,,,,,,,,,,,,,,,,,,,,,,,,,,,,,,,,,,,,,,,,,,,,,,,,,,,,,,,,,,,,,,,,,,,,,,,,,,,,,,,,,,,,,,,,,,,,,,,,,,,,,,,,,,
,,5f035cb3e9d86255405f1d46,2024-02-19_03h19.03.937,kallum_motion_pilot,2023.2.2,Win32,119.047619,5f035cb3e9d86255405f1d46,65d2b6c8f2eece985d8e374c,65d2b996341d070378ca4f0f,0.0352,0.0352,0,45,45,130,1,sixfive,,,,,,,,,,,,,,,,,,,,,,,,,,,,,,,,,,,,,,,,,,,,,,,,,,,,,,,,,,,,,,,,,,,,,,,,,,,,,,,,,,,,,,,,,,,,,,,,,,,,,,,,,,,,,,,,,,,,,,,,,,,,,,,,,,,,,,,,,
,,5f035cb3e9d86255405f1d46,2024-02-19_03h19.03.937,kallum_motion_pilot,2023.2.2,Win32,119.047619,5f035cb3e9d86255405f1d46,65d2b6c8f2eece985d8e374c,65d2b996341d070378ca4f0f,0.0354,0.0355,0,46,46,155,1,sixeight,,,,,,,,,,,,,,,,,,,,,,,,,,,,,,,,,,,,,,,,,,,,,,,,,,,,,,,,,,,,,,,,,,,,,,,,,,,,,,,,,,,,,,,,,,,,,,,,,,,,,,,,,,,,,,,,,,,,,,,,,,,,,,,,,,,,,,,,,
,,5f035cb3e9d86255405f1d46,2024-02-19_03h19.03.937,kallum_motion_pilot,2023.2.2,Win32,119.047619,5f035cb3e9d86255405f1d46,65d2b6c8f2eece985d8e374c,65d2b996341d070378ca4f0f,0.0356,0.0356,0,47,47,122,1,sixfive,,,,,,,,,,,,,,,,,,,,,,,,,,,,,,,,,,,,,,,,,,,,,,,,,,,,,,,,,,,,,,,,,,,,,,,,,,,,,,,,,,,,,,,,,,,,,,,,,,,,,,,,,,,,,,,,,,,,,,,,,,,,,,,,,,,,,,,,,
,,5f035cb3e9d86255405f1d46,2024-02-19_03h19.03.937,kallum_motion_pilot,2023.2.2,Win32,119.047619,5f035cb3e9d86255405f1d46,65d2b6c8f2eece985d8e374c,65d2b996341d070378ca4f0f,0.0357,0.0358,0,48,48,103,1,eightseven,,,,,,,,,,,,,,,,,,,,,,,,,,,,,,,,,,,,,,,,,,,,,,,,,,,,,,,,,,,,,,,,,,,,,,,,,,,,,,,,,,,,,,,,,,,,,,,,,,,,,,,,,,,,,,,,,,,,,,,,,,,,,,,,,,,,,,,,,
,,5f035cb3e9d86255405f1d46,2024-02-19_03h19.03.937,kallum_motion_pilot,2023.2.2,Win32,119.047619,5f035cb3e9d86255405f1d46,65d2b6c8f2eece985d8e374c,65d2b996341d070378ca4f0f,0.0359,0.036,0,49,49,127,1,eightseven,,,,,,,,,,,,,,,,,,,,,,,,,,,,,,,,,,,,,,,,,,,,,,,,,,,,,,,,,,,,,,,,,,,,,,,,,,,,,,,,,,,,,,,,,,,,,,,,,,,,,,,,,,,,,,,,,,,,,,,,,,,,,,,,,,,,,,,,,
,,5f035cb3e9d86255405f1d46,2024-02-19_03h19.03.937,kallum_motion_pilot,2023.2.2,Win32,119.047619,5f035cb3e9d86255405f1d46,65d2b6c8f2eece985d8e374c,65d2b996341d070378ca4f0f,0.0362,0.0362,0,50,50,35,1,twofour,,,,,,,,,,,,,,,,,,,,,,,,,,,,,,,,,,,,,,,,,,,,,,,,,,,,,,,,,,,,,,,,,,,,,,,,,,,,,,,,,,,,,,,,,,,,,,,,,,,,,,,,,,,,,,,,,,,,,,,,,,,,,,,,,,,,,,,,,
,,5f035cb3e9d86255405f1d46,2024-02-19_03h19.03.937,kallum_motion_pilot,2023.2.2,Win32,119.047619,5f035cb3e9d86255405f1d46,65d2b6c8f2eece985d8e374c,65d2b996341d070378ca4f0f,0.0363,0.0364,0,51,51,17,1,onethree,,,,,,,,,,,,,,,,,,,,,,,,,,,,,,,,,,,,,,,,,,,,,,,,,,,,,,,,,,,,,,,,,,,,,,,,,,,,,,,,,,,,,,,,,,,,,,,,,,,,,,,,,,,,,,,,,,,,,,,,,,,,,,,,,,,,,,,,,
,,5f035cb3e9d86255405f1d46,2024-02-19_03h19.03.937,kallum_motion_pilot,2023.2.2,Win32,119.047619,5f035cb3e9d86255405f1d46,65d2b6c8f2eece985d8e374c,65d2b996341d070378ca4f0f,0.0365,0.0366,0,52,52,0,1,onetwo,,,,,,,,,,,,,,,,,,,,,,,,,,,,,,,,,,,,,,,,,,,,,,,,,,,,,,,,,,,,,,,,,,,,,,,,,,,,,,,,,,,,,,,,,,,,,,,,,,,,,,,,,,,,,,,,,,,,,,,,,,,,,,,,,,,,,,,,,
,,5f035cb3e9d86255405f1d46,2024-02-19_03h19.03.937,kallum_motion_pilot,2023.2.2,Win32,119.047619,5f035cb3e9d86255405f1d46,65d2b6c8f2eece985d8e374c,65d2b996341d070378ca4f0f,0.0368,0.0368,0,53,53,14,1,fourtwo,,,,,,,,,,,,,,,,,,,,,,,,,,,,,,,,,,,,,,,,,,,,,,,,,,,,,,,,,,,,,,,,,,,,,,,,,,,,,,,,,,,,,,,,,,,,,,,,,,,,,,,,,,,,,,,,,,,,,,,,,,,,,,,,,,,,,,,,,
,,5f035cb3e9d86255405f1d46,2024-02-19_03h19.03.937,kallum_motion_pilot,2023.2.2,Win32,119.047619,5f035cb3e9d86255405f1d46,65d2b6c8f2eece985d8e374c,65d2b996341d070378ca4f0f,0.0369,0.037,0,54,54,118,1,eightsix,,,,,,,,,,,,,,,,,,,,,,,,,,,,,,,,,,,,,,,,,,,,,,,,,,,,,,,,,,,,,,,,,,,,,,,,,,,,,,,,,,,,,,,,,,,,,,,,,,,,,,,,,,,,,,,,,,,,,,,,,,,,,,,,,,,,,,,,,
,,5f035cb3e9d86255405f1d46,2024-02-19_03h19.03.937,kallum_motion_pilot,2023.2.2,Win32,119.047619,5f035cb3e9d86255405f1d46,65d2b6c8f2eece985d8e374c,65d2b996341d070378ca4f0f,0.0371,0.0372,0,55,55,102,1,eightsix,,,,,,,,,,,,,,,,,,,,,,,,,,,,,,,,,,,,,,,,,,,,,,,,,,,,,,,,,,,,,,,,,,,,,,,,,,,,,,,,,,,,,,,,,,,,,,,,,,,,,,,,,,,,,,,,,,,,,,,,,,,,,,,,,,,,,,,,,
,,5f035cb3e9d86255405f1d46,2024-02-19_03h19.03.937,kallum_motion_pilot,2023.2.2,Win32,119.047619,5f035cb3e9d86255405f1d46,65d2b6c8f2eece985d8e374c,65d2b996341d070378ca4f0f,0.0373,0.0373,0,56,56,66,1,twoone,,,,,,,,,,,,,,,,,,,,,,,,,,,,,,,,,,,,,,,,,,,,,,,,,,,,,,,,,,,,,,,,,,,,,,,,,,,,,,,,,,,,,,,,,,,,,,,,,,,,,,,,,,,,,,,,,,,,,,,,,,,,,,,,,,,,,,,,,
,,5f035cb3e9d86255405f1d46,2024-02-19_03h19.03.937,kallum_motion_pilot,2023.2.2,Win32,119.047619,5f035cb3e9d86255405f1d46,65d2b6c8f2eece985d8e374c,65d2b996341d070378ca4f0f,0.0375,0.0376,0,57,57,53,1,threefour,,,,,,,,,,,,,,,,,,,,,,,,,,,,,,,,,,,,,,,,,,,,,,,,,,,,,,,,,,,,,,,,,,,,,,,,,,,,,,,,,,,,,,,,,,,,,,,,,,,,,,,,,,,,,,,,,,,,,,,,,,,,,,,,,,,,,,,,,
,,5f035cb3e9d86255405f1d46,2024-02-19_03h19.03.937,kallum_motion_pilot,2023.2.2,Win32,119.047619,5f035cb3e9d86255405f1d46,65d2b6c8f2eece985d8e374c,65d2b996341d070378ca4f0f,0.0377,0.0378,0,58,58,42,1,twoone,,,,,,,,,,,,,,,,,,,,,,,,,,,,,,,,,,,,,,,,,,,,,,,,,,,,,,,,,,,,,,,,,,,,,,,,,,,,,,,,,,,,,,,,,,,,,,,,,,,,,,,,,,,,,,,,,,,,,,,,,,,,,,,,,,,,,,,,,
,,5f035cb3e9d86255405f1d46,2024-02-19_03h19.03.937,kallum_motion_pilot,2023.2.2,Win32,119.047619,5f035cb3e9d86255405f1d46,65d2b6c8f2eece985d8e374c,65d2b996341d070378ca4f0f,0.0379,0.038,0,59,59,109,1,seveneight,,,,,,,,,,,,,,,,,,,,,,,,,,,,,,,,,,,,,,,,,,,,,,,,,,,,,,,,,,,,,,,,,,,,,,,,,,,,,,,,,,,,,,,,,,,,,,,,,,,,,,,,,,,,,,,,,,,,,,,,,,,,,,,,,,,,,,,,,
,,5f035cb3e9d86255405f1d46,2024-02-19_03h19.03.937,kallum_motion_pilot,2023.2.2,Win32,119.047619,5f035cb3e9d86255405f1d46,65d2b6c8f2eece985d8e374c,65d2b996341d070378ca4f0f,0.0381,0.0382,0,60,60,82,1,sixfive,,,,,,,,,,,,,,,,,,,,,,,,,,,,,,,,,,,,,,,,,,,,,,,,,,,,,,,,,,,,,,,,,,,,,,,,,,,,,,,,,,,,,,,,,,,,,,,,,,,,,,,,,,,,,,,,,,,,,,,,,,,,,,,,,,,,,,,,,
,,5f035cb3e9d86255405f1d46,2024-02-19_03h19.03.937,kallum_motion_pilot,2023.2.2,Win32,119.047619,5f035cb3e9d86255405f1d46,65d2b6c8f2eece985d8e374c,65d2b996341d070378ca4f0f,0.0383,0.0384,0,61,61,125,1,seveneight,,,,,,,,,,,,,,,,,,,,,,,,,,,,,,,,,,,,,,,,,,,,,,,,,,,,,,,,,,,,,,,,,,,,,,,,,,,,,,,,,,,,,,,,,,,,,,,,,,,,,,,,,,,,,,,,,,,,,,,,,,,,,,,,,,,,,,,,,
,,5f035cb3e9d86255405f1d46,2024-02-19_03h19.03.937,kallum_motion_pilot,2023.2.2,Win32,119.047619,5f035cb3e9d86255405f1d46,65d2b6c8f2eece985d8e374c,65d2b996341d070378ca4f0f,0.0385,0.0386,0,62,62,150,1,eightsix,,,,,,,,,,,,,,,,,,,,,,,,,,,,,,,,,,,,,,,,,,,,,,,,,,,,,,,,,,,,,,,,,,,,,,,,,,,,,,,,,,,,,,,,,,,,,,,,,,,,,,,,,,,,,,,,,,,,,,,,,,,,,,,,,,,,,,,,,
,,5f035cb3e9d86255405f1d46,2024-02-19_03h19.03.937,kallum_motion_pilot,2023.2.2,Win32,119.047619,5f035cb3e9d86255405f1d46,65d2b6c8f2eece985d8e374c,65d2b996341d070378ca4f0f,0.0388,0.0388,0,63,63,99,1,sixeight,,,,,,,,,,,,,,,,,,,,,,,,,,,,,,,,,,,,,,,,,,,,,,,,,,,,,,,,,,,,,,,,,,,,,,,,,,,,,,,,,,,,,,,,,,,,,,,,,,,,,,,,,,,,,,,,,,,,,,,,,,,,,,,,,,,,,,,,,
,,5f035cb3e9d86255405f1d46,2024-02-19_03h19.03.937,kallum_motion_pilot,2023.2.2,Win32,119.047619,5f035cb3e9d86255405f1d46,65d2b6c8f2eece985d8e374c,65d2b996341d070378ca4f0f,0.039,0.0391,0,64,64,124,1,sevenfive,,,,,,,,,,,,,,,,,,,,,,,,,,,,,,,,,,,,,,,,,,,,,,,,,,,,,,,,,,,,,,,,,,,,,,,,,,,,,,,,,,,,,,,,,,,,,,,,,,,,,,,,,,,,,,,,,,,,,,,,,,,,,,,,,,,,,,,,,
,,5f035cb3e9d86255405f1d46,2024-02-19_03h19.03.937,kallum_motion_pilot,2023.2.2,Win32,119.047619,5f035cb3e9d86255405f1d46,65d2b6c8f2eece985d8e374c,65d2b996341d070378ca4f0f,0.0392,0.0393,0,65,65,126,1,eightsix,,,,,,,,,,,,,,,,,,,,,,,,,,,,,,,,,,,,,,,,,,,,,,,,,,,,,,,,,,,,,,,,,,,,,,,,,,,,,,,,,,,,,,,,,,,,,,,,,,,,,,,,,,,,,,,,,,,,,,,,,,,,,,,,,,,,,,,,,
,,5f035cb3e9d86255405f1d46,2024-02-19_03h19.03.937,kallum_motion_pilot,2023.2.2,Win32,119.047619,5f035cb3e9d86255405f1d46,65d2b6c8f2eece985d8e374c,65d2b996341d070378ca4f0f,0.0395,0.0395,0,66,66,94,1,eightsix,,,,,,,,,,,,,,,,,,,,,,,,,,,,,,,,,,,,,,,,,,,,,,,,,,,,,,,,,,,,,,,,,,,,,,,,,,,,,,,,,,,,,,,,,,,,,,,,,,,,,,,,,,,,,,,,,,,,,,,,,,,,,,,,,,,,,,,,,
,,5f035cb3e9d86255405f1d46,2024-02-19_03h19.03.937,kallum_motion_pilot,2023.2.2,Win32,119.047619,5f035cb3e9d86255405f1d46,65d2b6c8f2eece985d8e374c,65d2b996341d070378ca4f0f,0.0397,0.0397,0,67,67,87,1,eightseven,,,,,,,,,,,,,,,,,,,,,,,,,,,,,,,,,,,,,,,,,,,,,,,,,,,,,,,,,,,,,,,,,,,,,,,,,,,,,,,,,,,,,,,,,,,,,,,,,,,,,,,,,,,,,,,,,,,,,,,,,,,,,,,,,,,,,,,,,
,,5f035cb3e9d86255405f1d46,2024-02-19_03h19.03.937,kallum_motion_pilot,2023.2.2,Win32,119.047619,5f035cb3e9d86255405f1d46,65d2b6c8f2eece985d8e374c,65d2b996341d070378ca4f0f,0.0399,0.04,0,68,68,113,1,fiveseven,,,,,,,,,,,,,,,,,,,,,,,,,,,,,,,,,,,,,,,,,,,,,,,,,,,,,,,,,,,,,,,,,,,,,,,,,,,,,,,,,,,,,,,,,,,,,,,,,,,,,,,,,,,,,,,,,,,,,,,,,,,,,,,,,,,,,,,,,
,,5f035cb3e9d86255405f1d46,2024-02-19_03h19.03.937,kallum_motion_pilot,2023.2.2,Win32,119.047619,5f035cb3e9d86255405f1d46,65d2b6c8f2eece985d8e374c,65d2b996341d070378ca4f0f,0.0401,0.0402,0,69,69,36,1,threeone,,,,,,,,,,,,,,,,,,,,,,,,,,,,,,,,,,,,,,,,,,,,,,,,,,,,,,,,,,,,,,,,,,,,,,,,,,,,,,,,,,,,,,,,,,,,,,,,,,,,,,,,,,,,,,,,,,,,,,,,,,,,,,,,,,,,,,,,,
,,5f035cb3e9d86255405f1d46,2024-02-19_03h19.03.937,kallum_motion_pilot,2023.2.2,Win32,119.047619,5f035cb3e9d86255405f1d46,65d2b6c8f2eece985d8e374c,65d2b996341d070378ca4f0f,0.0404,0.0404,0,70,70,98,1,sixfive,,,,,,,,,,,,,,,,,,,,,,,,,,,,,,,,,,,,,,,,,,,,,,,,,,,,,,,,,,,,,,,,,,,,,,,,,,,,,,,,,,,,,,,,,,,,,,,,,,,,,,,,,,,,,,,,,,,,,,,,,,,,,,,,,,,,,,,,,
,,5f035cb3e9d86255405f1d46,2024-02-19_03h19.03.937,kallum_motion_pilot,2023.2.2,Win32,119.047619,5f035cb3e9d86255405f1d46,65d2b6c8f2eece985d8e374c,65d2b996341d070378ca4f0f,0.0406,0.0406,0,71,71,97,1,fiveseven,,,,,,,,,,,,,,,,,,,,,,,,,,,,,,,,,,,,,,,,,,,,,,,,,,,,,,,,,,,,,,,,,,,,,,,,,,,,,,,,,,,,,,,,,,,,,,,,,,,,,,,,,,,,,,,,,,,,,,,,,,,,,,,,,,,,,,,,,
,,5f035cb3e9d86255405f1d46,2024-02-19_03h19.03.937,kallum_motion_pilot,2023.2.2,Win32,119.047619,5f035cb3e9d86255405f1d46,65d2b6c8f2eece985d8e374c,65d2b996341d070378ca4f0f,0.0408,0.0409,0,72,72,159,1,eightseven,,,,,,,,,,,,,,,,,,,,,,,,,,,,,,,,,,,,,,,,,,,,,,,,,,,,,,,,,,,,,,,,,,,,,,,,,,,,,,,,,,,,,,,,,,,,,,,,,,,,,,,,,,,,,,,,,,,,,,,,,,,,,,,,,,,,,,,,,
,,5f035cb3e9d86255405f1d46,2024-02-19_03h19.03.937,kallum_motion_pilot,2023.2.2,Win32,119.047619,5f035cb3e9d86255405f1d46,65d2b6c8f2eece985d8e374c,65d2b996341d070378ca4f0f,0.041,0.0411,0,73,73,144,1,fivesix,,,,,,,,,,,,,,,,,,,,,,,,,,,,,,,,,,,,,,,,,,,,,,,,,,,,,,,,,,,,,,,,,,,,,,,,,,,,,,,,,,,,,,,,,,,,,,,,,,,,,,,,,,,,,,,,,,,,,,,,,,,,,,,,,,,,,,,,,
,,5f035cb3e9d86255405f1d46,2024-02-19_03h19.03.937,kallum_motion_pilot,2023.2.2,Win32,119.047619,5f035cb3e9d86255405f1d46,65d2b6c8f2eece985d8e374c,65d2b996341d070378ca4f0f,0.0412,0.0413,0,74,74,110,1,eightsix,,,,,,,,,,,,,,,,,,,,,,,,,,,,,,,,,,,,,,,,,,,,,,,,,,,,,,,,,,,,,,,,,,,,,,,,,,,,,,,,,,,,,,,,,,,,,,,,,,,,,,,,,,,,,,,,,,,,,,,,,,,,,,,,,,,,,,,,,
,,5f035cb3e9d86255405f1d46,2024-02-19_03h19.03.937,kallum_motion_pilot,2023.2.2,Win32,119.047619,5f035cb3e9d86255405f1d46,65d2b6c8f2eece985d8e374c,65d2b996341d070378ca4f0f,0.0415,0.0416,0,75,75,59,1,twofour,,,,,,,,,,,,,,,,,,,,,,,,,,,,,,,,,,,,,,,,,,,,,,,,,,,,,,,,,,,,,,,,,,,,,,,,,,,,,,,,,,,,,,,,,,,,,,,,,,,,,,,,,,,,,,,,,,,,,,,,,,,,,,,,,,,,,,,,,
,,5f035cb3e9d86255405f1d46,2024-02-19_03h19.03.937,kallum_motion_pilot,2023.2.2,Win32,119.047619,5f035cb3e9d86255405f1d46,65d2b6c8f2eece985d8e374c,65d2b996341d070378ca4f0f,0.0416,0.0417,0,76,76,67,1,twofour,,,,,,,,,,,,,,,,,,,,,,,,,,,,,,,,,,,,,,,,,,,,,,,,,,,,,,,,,,,,,,,,,,,,,,,,,,,,,,,,,,,,,,,,,,,,,,,,,,,,,,,,,,,,,,,,,,,,,,,,,,,,,,,,,,,,,,,,,
,,5f035cb3e9d86255405f1d46,2024-02-19_03h19.03.937,kallum_motion_pilot,2023.2.2,Win32,119.047619,5f035cb3e9d86255405f1d46,65d2b6c8f2eece985d8e374c,65d2b996341d070378ca4f0f,0.0418,0.042,0,77,77,29,1,threefour,,,,,,,,,,,,,,,,,,,,,,,,,,,,,,,,,,,,,,,,,,,,,,,,,,,,,,,,,,,,,,,,,,,,,,,,,,,,,,,,,,,,,,,,,,,,,,,,,,,,,,,,,,,,,,,,,,,,,,,,,,,,,,,,,,,,,,,,,
,,5f035cb3e9d86255405f1d46,2024-02-19_03h19.03.937,kallum_motion_pilot,2023.2.2,Win32,119.047619,5f035cb3e9d86255405f1d46,65d2b6c8f2eece985d8e374c,65d2b996341d070378ca4f0f,0.0421,0.0422,0,78,78,93,1,seveneight,,,,,,,,,,,,,,,,,,,,,,,,,,,,,,,,,,,,,,,,,,,,,,,,,,,,,,,,,,,,,,,,,,,,,,,,,,,,,,,,,,,,,,,,,,,,,,,,,,,,,,,,,,,,,,,,,,,,,,,,,,,,,,,,,,,,,,,,,
,,5f035cb3e9d86255405f1d46,2024-02-19_03h19.03.937,kallum_motion_pilot,2023.2.2,Win32,119.047619,5f035cb3e9d86255405f1d46,65d2b6c8f2eece985d8e374c,65d2b996341d070378ca4f0f,0.0424,0.0425,0,79,79,64,1,onetwo,,,,,,,,,,,,,,,,,,,,,,,,,,,,,,,,,,,,,,,,,,,,,,,,,,,,,,,,,,,,,,,,,,,,,,,,,,,,,,,,,,,,,,,,,,,,,,,,,,,,,,,,,,,,,,,,,,,,,,,,,,,,,,,,,,,,,,,,,
,,5f035cb3e9d86255405f1d46,2024-02-19_03h19.03.937,kallum_motion_pilot,2023.2.2,Win32,119.047619,5f035cb3e9d86255405f1d46,65d2b6c8f2eece985d8e374c,65d2b996341d070378ca4f0f,0.0426,0.0427,0,80,80,136,1,fivesix,,,,,,,,,,,,,,,,,,,,,,,,,,,,,,,,,,,,,,,,,,,,,,,,,,,,,,,,,,,,,,,,,,,,,,,,,,,,,,,,,,,,,,,,,,,,,,,,,,,,,,,,,,,,,,,,,,,,,,,,,,,,,,,,,,,,,,,,,
,,5f035cb3e9d86255405f1d46,2024-02-19_03h19.03.937,kallum_motion_pilot,2023.2.2,Win32,119.047619,5f035cb3e9d86255405f1d46,65d2b6c8f2eece985d8e374c,65d2b996341d070378ca4f0f,0.0428,0.0429,0,81,81,37,1,threefour,,,,,,,,,,,,,,,,,,,,,,,,,,,,,,,,,,,,,,,,,,,,,,,,,,,,,,,,,,,,,,,,,,,,,,,,,,,,,,,,,,,,,,,,,,,,,,,,,,,,,,,,,,,,,,,,,,,,,,,,,,,,,,,,,,,,,,,,,
,,5f035cb3e9d86255405f1d46,2024-02-19_03h19.03.937,kallum_motion_pilot,2023.2.2,Win32,119.047619,5f035cb3e9d86255405f1d46,65d2b6c8f2eece985d8e374c,65d2b996341d070378ca4f0f,0.043,0.0431,0,82,82,107,1,sixeight,,,,,,,,,,,,,,,,,,,,,,,,,,,,,,,,,,,,,,,,,,,,,,,,,,,,,,,,,,,,,,,,,,,,,,,,,,,,,,,,,,,,,,,,,,,,,,,,,,,,,,,,,,,,,,,,,,,,,,,,,,,,,,,,,,,,,,,,,
,,5f035cb3e9d86255405f1d46,2024-02-19_03h19.03.937,kallum_motion_pilot,2023.2.2,Win32,119.047619,5f035cb3e9d86255405f1d46,65d2b6c8f2eece985d8e374c,65d2b996341d070378ca4f0f,0.0432,0.0433,0,83,83,45,1,threefour,,,,,,,,,,,,,,,,,,,,,,,,,,,,,,,,,,,,,,,,,,,,,,,,,,,,,,,,,,,,,,,,,,,,,,,,,,,,,,,,,,,,,,,,,,,,,,,,,,,,,,,,,,,,,,,,,,,,,,,,,,,,,,,,,,,,,,,,,
,,5f035cb3e9d86255405f1d46,2024-02-19_03h19.03.937,kallum_motion_pilot,2023.2.2,Win32,119.047619,5f035cb3e9d86255405f1d46,65d2b6c8f2eece985d8e374c,65d2b996341d070378ca4f0f,0.0434,0.0436,0,84,84,115,1,sixeight,,,,,,,,,,,,,,,,,,,,,,,,,,,,,,,,,,,,,,,,,,,,,,,,,,,,,,,,,,,,,,,,,,,,,,,,,,,,,,,,,,,,,,,,,,,,,,,,,,,,,,,,,,,,,,,,,,,,,,,,,,,,,,,,,,,,,,,,,
,,5f035cb3e9d86255405f1d46,2024-02-19_03h19.03.937,kallum_motion_pilot,2023.2.2,Win32,119.047619,5f035cb3e9d86255405f1d46,65d2b6c8f2eece985d8e374c,65d2b996341d070378ca4f0f,0.0437,0.0438,0,85,85,138,1,sixfive,,,,,,,,,,,,,,,,,,,,,,,,,,,,,,,,,,,,,,,,,,,,,,,,,,,,,,,,,,,,,,,,,,,,,,,,,,,,,,,,,,,,,,,,,,,,,,,,,,,,,,,,,,,,,,,,,,,,,,,,,,,,,,,,,,,,,,,,,
,,5f035cb3e9d86255405f1d46,2024-02-19_03h19.03.937,kallum_motion_pilot,2023.2.2,Win32,119.047619,5f035cb3e9d86255405f1d46,65d2b6c8f2eece985d8e374c,65d2b996341d070378ca4f0f,0.0439,0.044,0,86,86,65,1,onethree,,,,,,,,,,,,,,,,,,,,,,,,,,,,,,,,,,,,,,,,,,,,,,,,,,,,,,,,,,,,,,,,,,,,,,,,,,,,,,,,,,,,,,,,,,,,,,,,,,,,,,,,,,,,,,,,,,,,,,,,,,,,,,,,,,,,,,,,,
,,5f035cb3e9d86255405f1d46,2024-02-19_03h19.03.937,kallum_motion_pilot,2023.2.2,Win32,119.047619,5f035cb3e9d86255405f1d46,65d2b6c8f2eece985d8e374c,65d2b996341d070378ca4f0f,0.0441,0.0443,0,87,87,86,1,eightsix,,,,,,,,,,,,,,,,,,,,,,,,,,,,,,,,,,,,,,,,,,,,,,,,,,,,,,,,,,,,,,,,,,,,,,,,,,,,,,,,,,,,,,,,,,,,,,,,,,,,,,,,,,,,,,,,,,,,,,,,,,,,,,,,,,,,,,,,,
,,5f035cb3e9d86255405f1d46,2024-02-19_03h19.03.937,kallum_motion_pilot,2023.2.2,Win32,119.047619,5f035cb3e9d86255405f1d46,65d2b6c8f2eece985d8e374c,65d2b996341d070378ca4f0f,0.0444,0.0445,0,88,88,48,1,onetwo,,,,,,,,,,,,,,,,,,,,,,,,,,,,,,,,,,,,,,,,,,,,,,,,,,,,,,,,,,,,,,,,,,,,,,,,,,,,,,,,,,,,,,,,,,,,,,,,,,,,,,,,,,,,,,,,,,,,,,,,,,,,,,,,,,,,,,,,,
,,5f035cb3e9d86255405f1d46,2024-02-19_03h19.03.937,kallum_motion_pilot,2023.2.2,Win32,119.047619,5f035cb3e9d86255405f1d46,65d2b6c8f2eece985d8e374c,65d2b996341d070378ca4f0f,0.0446,0.0447,0,89,89,78,1,fourtwo,,,,,,,,,,,,,,,,,,,,,,,,,,,,,,,,,,,,,,,,,,,,,,,,,,,,,,,,,,,,,,,,,,,,,,,,,,,,,,,,,,,,,,,,,,,,,,,,,,,,,,,,,,,,,,,,,,,,,,,,,,,,,,,,,,,,,,,,,
,,5f035cb3e9d86255405f1d46,2024-02-19_03h19.03.937,kallum_motion_pilot,2023.2.2,Win32,119.047619,5f035cb3e9d86255405f1d46,65d2b6c8f2eece985d8e374c,65d2b996341d070378ca4f0f,0.0448,0.0449,0,90,90,145,1,fiveseven,,,,,,,,,,,,,,,,,,,,,,,,,,,,,,,,,,,,,,,,,,,,,,,,,,,,,,,,,,,,,,,,,,,,,,,,,,,,,,,,,,,,,,,,,,,,,,,,,,,,,,,,,,,,,,,,,,,,,,,,,,,,,,,,,,,,,,,,,
,,5f035cb3e9d86255405f1d46,2024-02-19_03h19.03.937,kallum_motion_pilot,2023.2.2,Win32,119.047619,5f035cb3e9d86255405f1d46,65d2b6c8f2eece985d8e374c,65d2b996341d070378ca4f0f,0.0451,0.0451,0,91,91,3,1,twofour,,,,,,,,,,,,,,,,,,,,,,,,,,,,,,,,,,,,,,,,,,,,,,,,,,,,,,,,,,,,,,,,,,,,,,,,,,,,,,,,,,,,,,,,,,,,,,,,,,,,,,,,,,,,,,,,,,,,,,,,,,,,,,,,,,,,,,,,,
,,5f035cb3e9d86255405f1d46,2024-02-19_03h19.03.937,kallum_motion_pilot,2023.2.2,Win32,119.047619,5f035cb3e9d86255405f1d46,65d2b6c8f2eece985d8e374c,65d2b996341d070378ca4f0f,0.0453,0.0453,0,92,92,134,1,eightsix,,,,,,,,,,,,,,,,,,,,,,,,,,,,,,,,,,,,,,,,,,,,,,,,,,,,,,,,,,,,,,,,,,,,,,,,,,,,,,,,,,,,,,,,,,,,,,,,,,,,,,,,,,,,,,,,,,,,,,,,,,,,,,,,,,,,,,,,,
,,5f035cb3e9d86255405f1d46,2024-02-19_03h19.03.937,kallum_motion_pilot,2023.2.2,Win32,119.047619,5f035cb3e9d86255405f1d46,65d2b6c8f2eece985d8e374c,65d2b996341d070378ca4f0f,0.0456,0.0457,0,93,93,1,1,onethree,,,,,,,,,,,,,,,,,,,,,,,,,,,,,,,,,,,,,,,,,,,,,,,,,,,,,,,,,,,,,,,,,,,,,,,,,,,,,,,,,,,,,,,,,,,,,,,,,,,,,,,,,,,,,,,,,,,,,,,,,,,,,,,,,,,,,,,,,
,,5f035cb3e9d86255405f1d46,2024-02-19_03h19.03.937,kallum_motion_pilot,2023.2.2,Win32,119.047619,5f035cb3e9d86255405f1d46,65d2b6c8f2eece985d8e374c,65d2b996341d070378ca4f0f,0.0459,0.0459,0,94,94,47,1,fourthree,,,,,,,,,,,,,,,,,,,,,,,,,,,,,,,,,,,,,,,,,,,,,,,,,,,,,,,,,,,,,,,,,,,,,,,,,,,,,,,,,,,,,,,,,,,,,,,,,,,,,,,,,,,,,,,,,,,,,,,,,,,,,,,,,,,,,,,,,
,,5f035cb3e9d86255405f1d46,2024-02-19_03h19.03.937,kallum_motion_pilot,2023.2.2,Win32,119.047619,5f035cb3e9d86255405f1d46,65d2b6c8f2eece985d8e374c,65d2b996341d070378ca4f0f,0.0461,0.0461,0,95,95,85,1,seveneight,,,,,,,,,,,,,,,,,,,,,,,,,,,,,,,,,,,,,,,,,,,,,,,,,,,,,,,,,,,,,,,,,,,,,,,,,,,,,,,,,,,,,,,,,,,,,,,,,,,,,,,,,,,,,,,,,,,,,,,,,,,,,,,,,,,,,,,,,
,,5f035cb3e9d86255405f1d46,2024-02-19_03h19.03.937,kallum_motion_pilot,2023.2.2,Win32,119.047619,5f035cb3e9d86255405f1d46,65d2b6c8f2eece985d8e374c,65d2b996341d070378ca4f0f,0.0463,0.0463,0,96,96,46,1,fourtwo,,,,,,,,,,,,,,,,,,,,,,,,,,,,,,,,,,,,,,,,,,,,,,,,,,,,,,,,,,,,,,,,,,,,,,,,,,,,,,,,,,,,,,,,,,,,,,,,,,,,,,,,,,,,,,,,,,,,,,,,,,,,,,,,,,,,,,,,,
,,5f035cb3e9d86255405f1d46,2024-02-19_03h19.03.937,kallum_motion_pilot,2023.2.2,Win32,119.047619,5f035cb3e9d86255405f1d46,65d2b6c8f2eece985d8e374c,65d2b996341d070378ca4f0f,0.0466,0.0466,0,97,97,68,1,threeone,,,,,,,,,,,,,,,,,,,,,,,,,,,,,,,,,,,,,,,,,,,,,,,,,,,,,,,,,,,,,,,,,,,,,,,,,,,,,,,,,,,,,,,,,,,,,,,,,,,,,,,,,,,,,,,,,,,,,,,,,,,,,,,,,,,,,,,,,
,,5f035cb3e9d86255405f1d46,2024-02-19_03h19.03.937,kallum_motion_pilot,2023.2.2,Win32,119.047619,5f035cb3e9d86255405f1d46,65d2b6c8f2eece985d8e374c,65d2b996341d070378ca4f0f,0.0467,0.0469,0,98,98,6,1,fourtwo,,,,,,,,,,,,,,,,,,,,,,,,,,,,,,,,,,,,,,,,,,,,,,,,,,,,,,,,,,,,,,,,,,,,,,,,,,,,,,,,,,,,,,,,,,,,,,,,,,,,,,,,,,,,,,,,,,,,,,,,,,,,,,,,,,,,,,,,,
,,5f035cb3e9d86255405f1d46,2024-02-19_03h19.03.937,kallum_motion_pilot,2023.2.2,Win32,119.047619,5f035cb3e9d86255405f1d46,65d2b6c8f2eece985d8e374c,65d2b996341d070378ca4f0f,0.0471,0.0472,0,99,99,140,1,sevenfive,,,,,,,,,,,,,,,,,,,,,,,,,,,,,,,,,,,,,,,,,,,,,,,,,,,,,,,,,,,,,,,,,,,,,,,,,,,,,,,,,,,,,,,,,,,,,,,,,,,,,,,,,,,,,,,,,,,,,,,,,,,,,,,,,,,,,,,,,
,,5f035cb3e9d86255405f1d46,2024-02-19_03h19.03.937,kallum_motion_pilot,2023.2.2,Win32,119.047619,5f035cb3e9d86255405f1d46,65d2b6c8f2eece985d8e374c,65d2b996341d070378ca4f0f,0.0474,0.0475,0,100,100,128,1,fivesix,,,,,,,,,,,,,,,,,,,,,,,,,,,,,,,,,,,,,,,,,,,,,,,,,,,,,,,,,,,,,,,,,,,,,,,,,,,,,,,,,,,,,,,,,,,,,,,,,,,,,,,,,,,,,,,,,,,,,,,,,,,,,,,,,,,,,,,,,
,,5f035cb3e9d86255405f1d46,2024-02-19_03h19.03.937,kallum_motion_pilot,2023.2.2,Win32,119.047619,5f035cb3e9d86255405f1d46,65d2b6c8f2eece985d8e374c,65d2b996341d070378ca4f0f,0.0477,0.0478,0,101,101,121,1,fiveseven,,,,,,,,,,,,,,,,,,,,,,,,,,,,,,,,,,,,,,,,,,,,,,,,,,,,,,,,,,,,,,,,,,,,,,,,,,,,,,,,,,,,,,,,,,,,,,,,,,,,,,,,,,,,,,,,,,,,,,,,,,,,,,,,,,,,,,,,,
,,5f035cb3e9d86255405f1d46,2024-02-19_03h19.03.937,kallum_motion_pilot,2023.2.2,Win32,119.047619,5f035cb3e9d86255405f1d46,65d2b6c8f2eece985d8e374c,65d2b996341d070378ca4f0f,0.048,0.0481,0,102,102,34,1,twoone,,,,,,,,,,,,,,,,,,,,,,,,,,,,,,,,,,,,,,,,,,,,,,,,,,,,,,,,,,,,,,,,,,,,,,,,,,,,,,,,,,,,,,,,,,,,,,,,,,,,,,,,,,,,,,,,,,,,,,,,,,,,,,,,,,,,,,,,,
,,5f035cb3e9d86255405f1d46,2024-02-19_03h19.03.937,kallum_motion_pilot,2023.2.2,Win32,119.047619,5f035cb3e9d86255405f1d46,65d2b6c8f2eece985d8e374c,65d2b996341d070378ca4f0f,0.0482,0.0483,0,103,103,143,1,eightseven,,,,,,,,,,,,,,,,,,,,,,,,,,,,,,,,,,,,,,,,,,,,,,,,,,,,,,,,,,,,,,,,,,,,,,,,,,,,,,,,,,,,,,,,,,,,,,,,,,,,,,,,,,,,,,,,,,,,,,,,,,,,,,,,,,,,,,,,,
,,5f035cb3e9d86255405f1d46,2024-02-19_03h19.03.937,kallum_motion_pilot,2023.2.2,Win32,119.047619,5f035cb3e9d86255405f1d46,65d2b6c8f2eece985d8e374c,65d2b996341d070378ca4f0f,0.0485,0.0485,0,104,104,90,1,sixfive,,,,,,,,,,,,,,,,,,,,,,,,,,,,,,,,,,,,,,,,,,,,,,,,,,,,,,,,,,,,,,,,,,,,,,,,,,,,,,,,,,,,,,,,,,,,,,,,,,,,,,,,,,,,,,,,,,,,,,,,,,,,,,,,,,,,,,,,,
,,5f035cb3e9d86255405f1d46,2024-02-19_03h19.03.937,kallum_motion_pilot,2023.2.2,Win32,119.047619,5f035cb3e9d86255405f1d46,65d2b6c8f2eece985d8e374c,65d2b996341d070378ca4f0f,0.0487,0.0489,0,105,105,106,1,sixfive,,,,,,,,,,,,,,,,,,,,,,,,,,,,,,,,,,,,,,,,,,,,,,,,,,,,,,,,,,,,,,,,,,,,,,,,,,,,,,,,,,,,,,,,,,,,,,,,,,,,,,,,,,,,,,,,,,,,,,,,,,,,,,,,,,,,,,,,,
,,5f035cb3e9d86255405f1d46,2024-02-19_03h19.03.937,kallum_motion_pilot,2023.2.2,Win32,119.047619,5f035cb3e9d86255405f1d46,65d2b6c8f2eece985d8e374c,65d2b996341d070378ca4f0f,0.049,0.049,0,106,106,71,1,fourthree,,,,,,,,,,,,,,,,,,,,,,,,,,,,,,,,,,,,,,,,,,,,,,,,,,,,,,,,,,,,,,,,,,,,,,,,,,,,,,,,,,,,,,,,,,,,,,,,,,,,,,,,,,,,,,,,,,,,,,,,,,,,,,,,,,,,,,,,,
,,5f035cb3e9d86255405f1d46,2024-02-19_03h19.03.937,kallum_motion_pilot,2023.2.2,Win32,119.047619,5f035cb3e9d86255405f1d46,65d2b6c8f2eece985d8e374c,65d2b996341d070378ca4f0f,0.0491,0.0492,0,107,107,112,1,fivesix,,,,,,,,,,,,,,,,,,,,,,,,,,,,,,,,,,,,,,,,,,,,,,,,,,,,,,,,,,,,,,,,,,,,,,,,,,,,,,,,,,,,,,,,,,,,,,,,,,,,,,,,,,,,,,,,,,,,,,,,,,,,,,,,,,,,,,,,,
,,5f035cb3e9d86255405f1d46,2024-02-19_03h19.03.937,kallum_motion_pilot,2023.2.2,Win32,119.047619,5f035cb3e9d86255405f1d46,65d2b6c8f2eece985d8e374c,65d2b996341d070378ca4f0f,0.0492,0.0493,0,108,108,22,1,fourtwo,,,,,,,,,,,,,,,,,,,,,,,,,,,,,,,,,,,,,,,,,,,,,,,,,,,,,,,,,,,,,,,,,,,,,,,,,,,,,,,,,,,,,,,,,,,,,,,,,,,,,,,,,,,,,,,,,,,,,,,,,,,,,,,,,,,,,,,,,
,,5f035cb3e9d86255405f1d46,2024-02-19_03h19.03.937,kallum_motion_pilot,2023.2.2,Win32,119.047619,5f035cb3e9d86255405f1d46,65d2b6c8f2eece985d8e374c,65d2b996341d070378ca4f0f,0.0494,0.0494,0,109,109,148,1,sevenfive,,,,,,,,,,,,,,,,,,,,,,,,,,,,,,,,,,,,,,,,,,,,,,,,,,,,,,,,,,,,,,,,,,,,,,,,,,,,,,,,,,,,,,,,,,,,,,,,,,,,,,,,,,,,,,,,,,,,,,,,,,,,,,,,,,,,,,,,,
,,5f035cb3e9d86255405f1d46,2024-02-19_03h19.03.937,kallum_motion_pilot,2023.2.2,Win32,119.047619,5f035cb3e9d86255405f1d46,65d2b6c8f2eece985d8e374c,65d2b996341d070378ca4f0f,0.0495,0.0496,0,110,110,12,1,threeone,,,,,,,,,,,,,,,,,,,,,,,,,,,,,,,,,,,,,,,,,,,,,,,,,,,,,,,,,,,,,,,,,,,,,,,,,,,,,,,,,,,,,,,,,,,,,,,,,,,,,,,,,,,,,,,,,,,,,,,,,,,,,,,,,,,,,,,,,
,,5f035cb3e9d86255405f1d46,2024-02-19_03h19.03.937,kallum_motion_pilot,2023.2.2,Win32,119.047619,5f035cb3e9d86255405f1d46,65d2b6c8f2eece985d8e374c,65d2b996341d070378ca4f0f,0.0497,0.0497,0,111,111,55,1,fourthree,,,,,,,,,,,,,,,,,,,,,,,,,,,,,,,,,,,,,,,,,,,,,,,,,,,,,,,,,,,,,,,,,,,,,,,,,,,,,,,,,,,,,,,,,,,,,,,,,,,,,,,,,,,,,,,,,,,,,,,,,,,,,,,,,,,,,,,,,
,,5f035cb3e9d86255405f1d46,2024-02-19_03h19.03.937,kallum_motion_pilot,2023.2.2,Win32,119.047619,5f035cb3e9d86255405f1d46,65d2b6c8f2eece985d8e374c,65d2b996341d070378ca4f0f,0.0498,0.0499,0,112,112,57,1,onethree,,,,,,,,,,,,,,,,,,,,,,,,,,,,,,,,,,,,,,,,,,,,,,,,,,,,,,,,,,,,,,,,,,,,,,,,,,,,,,,,,,,,,,,,,,,,,,,,,,,,,,,,,,,,,,,,,,,,,,,,,,,,,,,,,,,,,,,,,
,,5f035cb3e9d86255405f1d46,2024-02-19_03h19.03.937,kallum_motion_pilot,2023.2.2,Win32,119.047619,5f035cb3e9d86255405f1d46,65d2b6c8f2eece985d8e374c,65d2b996341d070378ca4f0f,0.05,0.0501,0,113,113,105,1,fiveseven,,,,,,,,,,,,,,,,,,,,,,,,,,,,,,,,,,,,,,,,,,,,,,,,,,,,,,,,,,,,,,,,,,,,,,,,,,,,,,,,,,,,,,,,,,,,,,,,,,,,,,,,,,,,,,,,,,,,,,,,,,,,,,,,,,,,,,,,,
,,5f035cb3e9d86255405f1d46,2024-02-19_03h19.03.937,kallum_motion_pilot,2023.2.2,Win32,119.047619,5f035cb3e9d86255405f1d46,65d2b6c8f2eece985d8e374c,65d2b996341d070378ca4f0f,0.0501,0.0502,0,114,114,91,1,sixeight,,,,,,,,,,,,,,,,,,,,,,,,,,,,,,,,,,,,,,,,,,,,,,,,,,,,,,,,,,,,,,,,,,,,,,,,,,,,,,,,,,,,,,,,,,,,,,,,,,,,,,,,,,,,,,,,,,,,,,,,,,,,,,,,,,,,,,,,,
,,5f035cb3e9d86255405f1d46,2024-02-19_03h19.03.937,kallum_motion_pilot,2023.2.2,Win32,119.047619,5f035cb3e9d86255405f1d46,65d2b6c8f2eece985d8e374c,65d2b996341d070378ca4f0f,0.0503,0.0504,0,115,115,15,1,fourthree,,,,,,,,,,,,,,,,,,,,,,,,,,,,,,,,,,,,,,,,,,,,,,,,,,,,,,,,,,,,,,,,,,,,,,,,,,,,,,,,,,,,,,,,,,,,,,,,,,,,,,,,,,,,,,,,,,,,,,,,,,,,,,,,,,,,,,,,,
,,5f035cb3e9d86255405f1d46,2024-02-19_03h19.03.937,kallum_motion_pilot,2023.2.2,Win32,119.047619,5f035cb3e9d86255405f1d46,65d2b6c8f2eece985d8e374c,65d2b996341d070378ca4f0f,0.0505,0.0506,0,116,116,84,1,sevenfive,,,,,,,,,,,,,,,,,,,,,,,,,,,,,,,,,,,,,,,,,,,,,,,,,,,,,,,,,,,,,,,,,,,,,,,,,,,,,,,,,,,,,,,,,,,,,,,,,,,,,,,,,,,,,,,,,,,,,,,,,,,,,,,,,,,,,,,,,
,,5f035cb3e9d86255405f1d46,2024-02-19_03h19.03.937,kallum_motion_pilot,2023.2.2,Win32,119.047619,5f035cb3e9d86255405f1d46,65d2b6c8f2eece985d8e374c,65d2b996341d070378ca4f0f,0.0507,0.0507,0,117,117,62,1,fourtwo,,,,,,,,,,,,,,,,,,,,,,,,,,,,,,,,,,,,,,,,,,,,,,,,,,,,,,,,,,,,,,,,,,,,,,,,,,,,,,,,,,,,,,,,,,,,,,,,,,,,,,,,,,,,,,,,,,,,,,,,,,,,,,,,,,,,,,,,,
,,5f035cb3e9d86255405f1d46,2024-02-19_03h19.03.937,kallum_motion_pilot,2023.2.2,Win32,119.047619,5f035cb3e9d86255405f1d46,65d2b6c8f2eece985d8e374c,65d2b996341d070378ca4f0f,0.0508,0.0509,0,118,118,25,1,onethree,,,,,,,,,,,,,,,,,,,,,,,,,,,,,,,,,,,,,,,,,,,,,,,,,,,,,,,,,,,,,,,,,,,,,,,,,,,,,,,,,,,,,,,,,,,,,,,,,,,,,,,,,,,,,,,,,,,,,,,,,,,,,,,,,,,,,,,,,
,,5f035cb3e9d86255405f1d46,2024-02-19_03h19.03.937,kallum_motion_pilot,2023.2.2,Win32,119.047619,5f035cb3e9d86255405f1d46,65d2b6c8f2eece985d8e374c,65d2b996341d070378ca4f0f,0.0509,0.051,0,119,119,154,1,sixfive,,,,,,,,,,,,,,,,,,,,,,,,,,,,,,,,,,,,,,,,,,,,,,,,,,,,,,,,,,,,,,,,,,,,,,,,,,,,,,,,,,,,,,,,,,,,,,,,,,,,,,,,,,,,,,,,,,,,,,,,,,,,,,,,,,,,,,,,,
,,5f035cb3e9d86255405f1d46,2024-02-19_03h19.03.937,kallum_motion_pilot,2023.2.2,Win32,119.047619,5f035cb3e9d86255405f1d46,65d2b6c8f2eece985d8e374c,65d2b996341d070378ca4f0f,0.0511,0.0512,0,120,120,160,1,fivesix,,,,,,,,,,,,,,,,,,,,,,,,,,,,,,,,,,,,,,,,,,,,,,,,,,,,,,,,,,,,,,,,,,,,,,,,,,,,,,,,,,,,,,,,,,,,,,,,,,,,,,,,,,,,,,,,,,,,,,,,,,,,,,,,,,,,,,,,,
,,5f035cb3e9d86255405f1d46,2024-02-19_03h19.03.937,kallum_motion_pilot,2023.2.2,Win32,119.047619,5f035cb3e9d86255405f1d46,65d2b6c8f2eece985d8e374c,65d2b996341d070378ca4f0f,0.0513,0.0513,0,121,121,11,1,twofour,,,,,,,,,,,,,,,,,,,,,,,,,,,,,,,,,,,,,,,,,,,,,,,,,,,,,,,,,,,,,,,,,,,,,,,,,,,,,,,,,,,,,,,,,,,,,,,,,,,,,,,,,,,,,,,,,,,,,,,,,,,,,,,,,,,,,,,,,
,,5f035cb3e9d86255405f1d46,2024-02-19_03h19.03.937,kallum_motion_pilot,2023.2.2,Win32,119.047619,5f035cb3e9d86255405f1d46,65d2b6c8f2eece985d8e374c,65d2b996341d070378ca4f0f,0.0514,0.0516,0,122,122,149,1,seveneight,,,,,,,,,,,,,,,,,,,,,,,,,,,,,,,,,,,,,,,,,,,,,,,,,,,,,,,,,,,,,,,,,,,,,,,,,,,,,,,,,,,,,,,,,,,,,,,,,,,,,,,,,,,,,,,,,,,,,,,,,,,,,,,,,,,,,,,,,
,,5f035cb3e9d86255405f1d46,2024-02-19_03h19.03.937,kallum_motion_pilot,2023.2.2,Win32,119.047619,5f035cb3e9d86255405f1d46,65d2b6c8f2eece985d8e374c,65d2b996341d070378ca4f0f,0.0516,0.0516,0,123,123,58,1,twoone,,,,,,,,,,,,,,,,,,,,,,,,,,,,,,,,,,,,,,,,,,,,,,,,,,,,,,,,,,,,,,,,,,,,,,,,,,,,,,,,,,,,,,,,,,,,,,,,,,,,,,,,,,,,,,,,,,,,,,,,,,,,,,,,,,,,,,,,,
,,5f035cb3e9d86255405f1d46,2024-02-19_03h19.03.937,kallum_motion_pilot,2023.2.2,Win32,119.047619,5f035cb3e9d86255405f1d46,65d2b6c8f2eece985d8e374c,65d2b996341d070378ca4f0f,0.0518,0.0518,0,124,124,21,1,threefour,,,,,,,,,,,,,,,,,,,,,,,,,,,,,,,,,,,,,,,,,,,,,,,,,,,,,,,,,,,,,,,,,,,,,,,,,,,,,,,,,,,,,,,,,,,,,,,,,,,,,,,,,,,,,,,,,,,,,,,,,,,,,,,,,,,,,,,,,
,,5f035cb3e9d86255405f1d46,2024-02-19_03h19.03.937,kallum_motion_pilot,2023.2.2,Win32,119.047619,5f035cb3e9d86255405f1d46,65d2b6c8f2eece985d8e374c,65d2b996341d070378ca4f0f,0.052,0.0521,0,125,125,7,1,fourthree,,,,,,,,,,,,,,,,,,,,,,,,,,,,,,,,,,,,,,,,,,,,,,,,,,,,,,,,,,,,,,,,,,,,,,,,,,,,,,,,,,,,,,,,,,,,,,,,,,,,,,,,,,,,,,,,,,,,,,,,,,,,,,,,,,,,,,,,,
,,5f035cb3e9d86255405f1d46,2024-02-19_03h19.03.937,kallum_motion_pilot,2023.2.2,Win32,119.047619,5f035cb3e9d86255405f1d46,65d2b6c8f2eece985d8e374c,65d2b996341d070378ca4f0f,0.0522,0.0523,0,126,126,54,1,fourtwo,,,,,,,,,,,,,,,,,,,,,,,,,,,,,,,,,,,,,,,,,,,,,,,,,,,,,,,,,,,,,,,,,,,,,,,,,,,,,,,,,,,,,,,,,,,,,,,,,,,,,,,,,,,,,,,,,,,,,,,,,,,,,,,,,,,,,,,,,
,,5f035cb3e9d86255405f1d46,2024-02-19_03h19.03.937,kallum_motion_pilot,2023.2.2,Win32,119.047619,5f035cb3e9d86255405f1d46,65d2b6c8f2eece985d8e374c,65d2b996341d070378ca4f0f,0.0524,0.0524,0,127,127,77,1,threefour,,,,,,,,,,,,,,,,,,,,,,,,,,,,,,,,,,,,,,,,,,,,,,,,,,,,,,,,,,,,,,,,,,,,,,,,,,,,,,,,,,,,,,,,,,,,,,,,,,,,,,,,,,,,,,,,,,,,,,,,,,,,,,,,,,,,,,,,,
,,5f035cb3e9d86255405f1d46,2024-02-19_03h19.03.937,kallum_motion_pilot,2023.2.2,Win32,119.047619,5f035cb3e9d86255405f1d46,65d2b6c8f2eece985d8e374c,65d2b996341d070378ca4f0f,0.0536,0.0537,0,128,128,152,1,fivesix,,,,,,,,,,,,,,,,,,,,,,,,,,,,,,,,,,,,,,,,,,,,,,,,,,,,,,,,,,,,,,,,,,,,,,,,,,,,,,,,,,,,,,,,,,,,,,,,,,,,,,,,,,,,,,,,,,,,,,,,,,,,,,,,,,,,,,,,,
,,5f035cb3e9d86255405f1d46,2024-02-19_03h19.03.937,kallum_motion_pilot,2023.2.2,Win32,119.047619,5f035cb3e9d86255405f1d46,65d2b6c8f2eece985d8e374c,65d2b996341d070378ca4f0f,0.0538,0.0539,0,129,129,33,1,onethree,,,,,,,,,,,,,,,,,,,,,,,,,,,,,,,,,,,,,,,,,,,,,,,,,,,,,,,,,,,,,,,,,,,,,,,,,,,,,,,,,,,,,,,,,,,,,,,,,,,,,,,,,,,,,,,,,,,,,,,,,,,,,,,,,,,,,,,,,
,,5f035cb3e9d86255405f1d46,2024-02-19_03h19.03.937,kallum_motion_pilot,2023.2.2,Win32,119.047619,5f035cb3e9d86255405f1d46,65d2b6c8f2eece985d8e374c,65d2b996341d070378ca4f0f,0.054,0.0541,0,130,130,158,1,eightsix,,,,,,,,,,,,,,,,,,,,,,,,,,,,,,,,,,,,,,,,,,,,,,,,,,,,,,,,,,,,,,,,,,,,,,,,,,,,,,,,,,,,,,,,,,,,,,,,,,,,,,,,,,,,,,,,,,,,,,,,,,,,,,,,,,,,,,,,,
,,5f035cb3e9d86255405f1d46,2024-02-19_03h19.03.937,kallum_motion_pilot,2023.2.2,Win32,119.047619,5f035cb3e9d86255405f1d46,65d2b6c8f2eece985d8e374c,65d2b996341d070378ca4f0f,0.0542,0.0542,0,131,131,19,1,twofour,,,,,,,,,,,,,,,,,,,,,,,,,,,,,,,,,,,,,,,,,,,,,,,,,,,,,,,,,,,,,,,,,,,,,,,,,,,,,,,,,,,,,,,,,,,,,,,,,,,,,,,,,,,,,,,,,,,,,,,,,,,,,,,,,,,,,,,,,
,,5f035cb3e9d86255405f1d46,2024-02-19_03h19.03.937,kallum_motion_pilot,2023.2.2,Win32,119.047619,5f035cb3e9d86255405f1d46,65d2b6c8f2eece985d8e374c,65d2b996341d070378ca4f0f,0.0544,0.0544,0,132,132,117,1,seveneight,,,,,,,,,,,,,,,,,,,,,,,,,,,,,,,,,,,,,,,,,,,,,,,,,,,,,,,,,,,,,,,,,,,,,,,,,,,,,,,,,,,,,,,,,,,,,,,,,,,,,,,,,,,,,,,,,,,,,,,,,,,,,,,,,,,,,,,,,
,,5f035cb3e9d86255405f1d46,2024-02-19_03h19.03.937,kallum_motion_pilot,2023.2.2,Win32,119.047619,5f035cb3e9d86255405f1d46,65d2b6c8f2eece985d8e374c,65d2b996341d070378ca4f0f,0.0544,0.0546,0,133,133,141,1,seveneight,,,,,,,,,,,,,,,,,,,,,,,,,,,,,,,,,,,,,,,,,,,,,,,,,,,,,,,,,,,,,,,,,,,,,,,,,,,,,,,,,,,,,,,,,,,,,,,,,,,,,,,,,,,,,,,,,,,,,,,,,,,,,,,,,,,,,,,,,
,,5f035cb3e9d86255405f1d46,2024-02-19_03h19.03.937,kallum_motion_pilot,2023.2.2,Win32,119.047619,5f035cb3e9d86255405f1d46,65d2b6c8f2eece985d8e374c,65d2b996341d070378ca4f0f,0.0546,0.0547,0,134,134,40,1,onetwo,,,,,,,,,,,,,,,,,,,,,,,,,,,,,,,,,,,,,,,,,,,,,,,,,,,,,,,,,,,,,,,,,,,,,,,,,,,,,,,,,,,,,,,,,,,,,,,,,,,,,,,,,,,,,,,,,,,,,,,,,,,,,,,,,,,,,,,,,
,,5f035cb3e9d86255405f1d46,2024-02-19_03h19.03.937,kallum_motion_pilot,2023.2.2,Win32,119.047619,5f035cb3e9d86255405f1d46,65d2b6c8f2eece985d8e374c,65d2b996341d070378ca4f0f,0.0547,0.0548,0,135,135,70,1,fourtwo,,,,,,,,,,,,,,,,,,,,,,,,,,,,,,,,,,,,,,,,,,,,,,,,,,,,,,,,,,,,,,,,,,,,,,,,,,,,,,,,,,,,,,,,,,,,,,,,,,,,,,,,,,,,,,,,,,,,,,,,,,,,,,,,,,,,,,,,,
,,5f035cb3e9d86255405f1d46,2024-02-19_03h19.03.937,kallum_motion_pilot,2023.2.2,Win32,119.047619,5f035cb3e9d86255405f1d46,65d2b6c8f2eece985d8e374c,65d2b996341d070378ca4f0f,0.0549,0.0549,0,136,136,95,1,eightseven,,,,,,,,,,,,,,,,,,,,,,,,,,,,,,,,,,,,,,,,,,,,,,,,,,,,,,,,,,,,,,,,,,,,,,,,,,,,,,,,,,,,,,,,,,,,,,,,,,,,,,,,,,,,,,,,,,,,,,,,,,,,,,,,,,,,,,,,,
,,5f035cb3e9d86255405f1d46,2024-02-19_03h19.03.937,kallum_motion_pilot,2023.2.2,Win32,119.047619,5f035cb3e9d86255405f1d46,65d2b6c8f2eece985d8e374c,65d2b996341d070378ca4f0f,0.0551,0.0552,0,137,137,49,1,onethree,,,,,,,,,,,,,,,,,,,,,,,,,,,,,,,,,,,,,,,,,,,,,,,,,,,,,,,,,,,,,,,,,,,,,,,,,,,,,,,,,,,,,,,,,,,,,,,,,,,,,,,,,,,,,,,,,,,,,,,,,,,,,,,,,,,,,,,,,
,,5f035cb3e9d86255405f1d46,2024-02-19_03h19.03.937,kallum_motion_pilot,2023.2.2,Win32,119.047619,5f035cb3e9d86255405f1d46,65d2b6c8f2eece985d8e374c,65d2b996341d070378ca4f0f,0.0553,0.0555,0,138,138,111,1,eightseven,,,,,,,,,,,,,,,,,,,,,,,,,,,,,,,,,,,,,,,,,,,,,,,,,,,,,,,,,,,,,,,,,,,,,,,,,,,,,,,,,,,,,,,,,,,,,,,,,,,,,,,,,,,,,,,,,,,,,,,,,,,,,,,,,,,,,,,,,
,,5f035cb3e9d86255405f1d46,2024-02-19_03h19.03.937,kallum_motion_pilot,2023.2.2,Win32,119.047619,5f035cb3e9d86255405f1d46,65d2b6c8f2eece985d8e374c,65d2b996341d070378ca4f0f,0.0556,0.0558,0,139,139,135,1,eightseven,,,,,,,,,,,,,,,,,,,,,,,,,,,,,,,,,,,,,,,,,,,,,,,,,,,,,,,,,,,,,,,,,,,,,,,,,,,,,,,,,,,,,,,,,,,,,,,,,,,,,,,,,,,,,,,,,,,,,,,,,,,,,,,,,,,,,,,,,
,,5f035cb3e9d86255405f1d46,2024-02-19_03h19.03.937,kallum_motion_pilot,2023.2.2,Win32,119.047619,5f035cb3e9d86255405f1d46,65d2b6c8f2eece985d8e374c,65d2b996341d070378ca4f0f,0.0559,0.0561,0,140,140,24,1,onetwo,,,,,,,,,,,,,,,,,,,,,,,,,,,,,,,,,,,,,,,,,,,,,,,,,,,,,,,,,,,,,,,,,,,,,,,,,,,,,,,,,,,,,,,,,,,,,,,,,,,,,,,,,,,,,,,,,,,,,,,,,,,,,,,,,,,,,,,,,
,,5f035cb3e9d86255405f1d46,2024-02-19_03h19.03.937,kallum_motion_pilot,2023.2.2,Win32,119.047619,5f035cb3e9d86255405f1d46,65d2b6c8f2eece985d8e374c,65d2b996341d070378ca4f0f,0.0561,0.0563,0,141,141,83,1,sixeight,,,,,,,,,,,,,,,,,,,,,,,,,,,,,,,,,,,,,,,,,,,,,,,,,,,,,,,,,,,,,,,,,,,,,,,,,,,,,,,,,,,,,,,,,,,,,,,,,,,,,,,,,,,,,,,,,,,,,,,,,,,,,,,,,,,,,,,,,
,,5f035cb3e9d86255405f1d46,2024-02-19_03h19.03.937,kallum_motion_pilot,2023.2.2,Win32,119.047619,5f035cb3e9d86255405f1d46,65d2b6c8f2eece985d8e374c,65d2b996341d070378ca4f0f,0.0564,0.0565,0,142,142,74,1,twoone,,,,,,,,,,,,,,,,,,,,,,,,,,,,,,,,,,,,,,,,,,,,,,,,,,,,,,,,,,,,,,,,,,,,,,,,,,,,,,,,,,,,,,,,,,,,,,,,,,,,,,,,,,,,,,,,,,,,,,,,,,,,,,,,,,,,,,,,,
,,5f035cb3e9d86255405f1d46,2024-02-19_03h19.03.937,kallum_motion_pilot,2023.2.2,Win32,119.047619,5f035cb3e9d86255405f1d46,65d2b6c8f2eece985d8e374c,65d2b996341d070378ca4f0f,0.0566,0.0566,0,143,143,116,1,sevenfive,,,,,,,,,,,,,,,,,,,,,,,,,,,,,,,,,,,,,,,,,,,,,,,,,,,,,,,,,,,,,,,,,,,,,,,,,,,,,,,,,,,,,,,,,,,,,,,,,,,,,,,,,,,,,,,,,,,,,,,,,,,,,,,,,,,,,,,,,
,,5f035cb3e9d86255405f1d46,2024-02-19_03h19.03.937,kallum_motion_pilot,2023.2.2,Win32,119.047619,5f035cb3e9d86255405f1d46,65d2b6c8f2eece985d8e374c,65d2b996341d070378ca4f0f,0.0568,0.0569,0,144,144,61,1,threefour,,,,,,,,,,,,,,,,,,,,,,,,,,,,,,,,,,,,,,,,,,,,,,,,,,,,,,,,,,,,,,,,,,,,,,,,,,,,,,,,,,,,,,,,,,,,,,,,,,,,,,,,,,,,,,,,,,,,,,,,,,,,,,,,,,,,,,,,,
,,5f035cb3e9d86255405f1d46,2024-02-19_03h19.03.937,kallum_motion_pilot,2023.2.2,Win32,119.047619,5f035cb3e9d86255405f1d46,65d2b6c8f2eece985d8e374c,65d2b996341d070378ca4f0f,0.057,0.057,0,145,145,131,1,sixeight,,,,,,,,,,,,,,,,,,,,,,,,,,,,,,,,,,,,,,,,,,,,,,,,,,,,,,,,,,,,,,,,,,,,,,,,,,,,,,,,,,,,,,,,,,,,,,,,,,,,,,,,,,,,,,,,,,,,,,,,,,,,,,,,,,,,,,,,,
,,5f035cb3e9d86255405f1d46,2024-02-19_03h19.03.937,kallum_motion_pilot,2023.2.2,Win32,119.047619,5f035cb3e9d86255405f1d46,65d2b6c8f2eece985d8e374c,65d2b996341d070378ca4f0f,0.0571,0.0572,0,146,146,60,1,threeone,,,,,,,,,,,,,,,,,,,,,,,,,,,,,,,,,,,,,,,,,,,,,,,,,,,,,,,,,,,,,,,,,,,,,,,,,,,,,,,,,,,,,,,,,,,,,,,,,,,,,,,,,,,,,,,,,,,,,,,,,,,,,,,,,,,,,,,,,
,,5f035cb3e9d86255405f1d46,2024-02-19_03h19.03.937,kallum_motion_pilot,2023.2.2,Win32,119.047619,5f035cb3e9d86255405f1d46,65d2b6c8f2eece985d8e374c,65d2b996341d070378ca4f0f,0.0573,0.0574,0,147,147,10,1,twoone,,,,,,,,,,,,,,,,,,,,,,,,,,,,,,,,,,,,,,,,,,,,,,,,,,,,,,,,,,,,,,,,,,,,,,,,,,,,,,,,,,,,,,,,,,,,,,,,,,,,,,,,,,,,,,,,,,,,,,,,,,,,,,,,,,,,,,,,,
,,5f035cb3e9d86255405f1d46,2024-02-19_03h19.03.937,kallum_motion_pilot,2023.2.2,Win32,119.047619,5f035cb3e9d86255405f1d46,65d2b6c8f2eece985d8e374c,65d2b996341d070378ca4f0f,0.0574,0.0575,0,148,148,120,1,fivesix,,,,,,,,,,,,,,,,,,,,,,,,,,,,,,,,,,,,,,,,,,,,,,,,,,,,,,,,,,,,,,,,,,,,,,,,,,,,,,,,,,,,,,,,,,,,,,,,,,,,,,,,,,,,,,,,,,,,,,,,,,,,,,,,,,,,,,,,,
,,5f035cb3e9d86255405f1d46,2024-02-19_03h19.03.937,kallum_motion_pilot,2023.2.2,Win32,119.047619,5f035cb3e9d86255405f1d46,65d2b6c8f2eece985d8e374c,65d2b996341d070378ca4f0f,0.0576,0.0577,0,149,149,2,1,twoone,,,,,,,,,,,,,,,,,,,,,,,,,,,,,,,,,,,,,,,,,,,,,,,,,,,,,,,,,,,,,,,,,,,,,,,,,,,,,,,,,,,,,,,,,,,,,,,,,,,,,,,,,,,,,,,,,,,,,,,,,,,,,,,,,,,,,,,,,
,,5f035cb3e9d86255405f1d46,2024-02-19_03h19.03.937,kallum_motion_pilot,2023.2.2,Win32,119.047619,5f035cb3e9d86255405f1d46,65d2b6c8f2eece985d8e374c,65d2b996341d070378ca4f0f,0.0579,0.058,0,150,150,18,1,twoone,,,,,,,,,,,,,,,,,,,,,,,,,,,,,,,,,,,,,,,,,,,,,,,,,,,,,,,,,,,,,,,,,,,,,,,,,,,,,,,,,,,,,,,,,,,,,,,,,,,,,,,,,,,,,,,,,,,,,,,,,,,,,,,,,,,,,,,,,
,,5f035cb3e9d86255405f1d46,2024-02-19_03h19.03.937,kallum_motion_pilot,2023.2.2,Win32,119.047619,5f035cb3e9d86255405f1d46,65d2b6c8f2eece985d8e374c,65d2b996341d070378ca4f0f,0.0581,0.0583,0,151,151,153,1,fiveseven,,,,,,,,,,,,,,,,,,,,,,,,,,,,,,,,,,,,,,,,,,,,,,,,,,,,,,,,,,,,,,,,,,,,,,,,,,,,,,,,,,,,,,,,,,,,,,,,,,,,,,,,,,,,,,,,,,,,,,,,,,,,,,,,,,,,,,,,,
,,5f035cb3e9d86255405f1d46,2024-02-19_03h19.03.937,kallum_motion_pilot,2023.2.2,Win32,119.047619,5f035cb3e9d86255405f1d46,65d2b6c8f2eece985d8e374c,65d2b996341d070378ca4f0f,0.0583,0.0584,0,152,152,73,1,onethree,,,,,,,,,,,,,,,,,,,,,,,,,,,,,,,,,,,,,,,,,,,,,,,,,,,,,,,,,,,,,,,,,,,,,,,,,,,,,,,,,,,,,,,,,,,,,,,,,,,,,,,,,,,,,,,,,,,,,,,,,,,,,,,,,,,,,,,,,
,,5f035cb3e9d86255405f1d46,2024-02-19_03h19.03.937,kallum_motion_pilot,2023.2.2,Win32,119.047619,5f035cb3e9d86255405f1d46,65d2b6c8f2eece985d8e374c,65d2b996341d070378ca4f0f,0.0585,0.0586,0,153,153,92,1,sevenfive,,,,,,,,,,,,,,,,,,,,,,,,,,,,,,,,,,,,,,,,,,,,,,,,,,,,,,,,,,,,,,,,,,,,,,,,,,,,,,,,,,,,,,,,,,,,,,,,,,,,,,,,,,,,,,,,,,,,,,,,,,,,,,,,,,,,,,,,,
,,5f035cb3e9d86255405f1d46,2024-02-19_03h19.03.937,kallum_motion_pilot,2023.2.2,Win32,119.047619,5f035cb3e9d86255405f1d46,65d2b6c8f2eece985d8e374c,65d2b996341d070378ca4f0f,0.0586,0.0587,0,154,154,132,1,sevenfive,,,,,,,,,,,,,,,,,,,,,,,,,,,,,,,,,,,,,,,,,,,,,,,,,,,,,,,,,,,,,,,,,,,,,,,,,,,,,,,,,,,,,,,,,,,,,,,,,,,,,,,,,,,,,,,,,,,,,,,,,,,,,,,,,,,,,,,,,
,,5f035cb3e9d86255405f1d46,2024-02-19_03h19.03.937,kallum_motion_pilot,2023.2.2,Win32,119.047619,5f035cb3e9d86255405f1d46,65d2b6c8f2eece985d8e374c,65d2b996341d070378ca4f0f,0.0588,0.0589,0,155,155,26,1,twoone,,,,,,,,,,,,,,,,,,,,,,,,,,,,,,,,,,,,,,,,,,,,,,,,,,,,,,,,,,,,,,,,,,,,,,,,,,,,,,,,,,,,,,,,,,,,,,,,,,,,,,,,,,,,,,,,,,,,,,,,,,,,,,,,,,,,,,,,,
,,5f035cb3e9d86255405f1d46,2024-02-19_03h19.03.937,kallum_motion_pilot,2023.2.2,Win32,119.047619,5f035cb3e9d86255405f1d46,65d2b6c8f2eece985d8e374c,65d2b996341d070378ca4f0f,0.059,0.0591,0,156,156,151,1,eightseven,,,,,,,,,,,,,,,,,,,,,,,,,,,,,,,,,,,,,,,,,,,,,,,,,,,,,,,,,,,,,,,,,,,,,,,,,,,,,,,,,,,,,,,,,,,,,,,,,,,,,,,,,,,,,,,,,,,,,,,,,,,,,,,,,,,,,,,,,
,,5f035cb3e9d86255405f1d46,2024-02-19_03h19.03.937,kallum_motion_pilot,2023.2.2,Win32,119.047619,5f035cb3e9d86255405f1d46,65d2b6c8f2eece985d8e374c,65d2b996341d070378ca4f0f,0.0592,0.0592,0,157,157,101,1,seveneight,,,,,,,,,,,,,,,,,,,,,,,,,,,,,,,,,,,,,,,,,,,,,,,,,,,,,,,,,,,,,,,,,,,,,,,,,,,,,,,,,,,,,,,,,,,,,,,,,,,,,,,,,,,,,,,,,,,,,,,,,,,,,,,,,,,,,,,,,
,,5f035cb3e9d86255405f1d46,2024-02-19_03h19.03.937,kallum_motion_pilot,2023.2.2,Win32,119.047619,5f035cb3e9d86255405f1d46,65d2b6c8f2eece985d8e374c,65d2b996341d070378ca4f0f,0.0593,0.0594,0,158,158,108,1,sevenfive,,,,,,,,,,,,,,,,,,,,,,,,,,,,,,,,,,,,,,,,,,,,,,,,,,,,,,,,,,,,,,,,,,,,,,,,,,,,,,,,,,,,,,,,,,,,,,,,,,,,,,,,,,,,,,,,,,,,,,,,,,,,,,,,,,,,,,,,,
,,5f035cb3e9d86255405f1d46,2024-02-19_03h19.03.937,kallum_motion_pilot,2023.2.2,Win32,119.047619,5f035cb3e9d86255405f1d46,65d2b6c8f2eece985d8e374c,65d2b996341d070378ca4f0f,0.0594,0.0595,0,159,159,157,1,seveneight,,,,,,,,,,,,,,,,,,,,,,,,,,,,,,,,,,,,,,,,,,,,,,,,,,,,,,,,,,,,,,,,,,,,,,,,,,,,,,,,,,,,,,,,,,,,,,,,,,,,,,,,,,,,,,,,,,,,,,,,,,,,,,,,,,,,,,,,,
,,5f035cb3e9d86255405f1d46,2024-02-19_03h19.03.937,kallum_motion_pilot,2023.2.2,Win32,119.047619,5f035cb3e9d86255405f1d46,65d2b6c8f2eece985d8e374c,65d2b996341d070378ca4f0f,0.0597,0.0597,0,160,160,156,1,sevenfive,,,,,,,,,,,,,,,,,,,,,,,,,,,,,,,,,,,,,,,,,,,,,,,,,,,,,,,,,,,,,,,,,,,,,,,,,,,,,,,,,,,,,,,,,,,,,,,,,,,,,,,,,,,,,,,,,,,,,,,,,,,,,,,,,,,,,,,,,
,,5f035cb3e9d86255405f1d46,2024-02-19_03h19.03.937,kallum_motion_pilot,2023.2.2,Win32,119.047619,5f035cb3e9d86255405f1d46,65d2b6c8f2eece985d8e374c,65d2b996341d070378ca4f0f,0.0598,0.0599,0,161,161,100,1,sevenfive,,,,,,,,,,,,,,,,,,,,,,,,,,,,,,,,,,,,,,,,,,,,,,,,,,,,,,,,,,,,,,,,,,,,,,,,,,,,,,,,,,,,,,,,,,,,,,,,,,,,,,,,,,,,,,,,,,,,,,,,,,,,,,,,,,,,,,,,,
,,5f035cb3e9d86255405f1d46,2024-02-19_03h19.03.937,kallum_motion_pilot,2023.2.2,Win32,119.047619,5f035cb3e9d86255405f1d46,65d2b6c8f2eece985d8e374c,65d2b996341d070378ca4f0f,0.06,0.0601,1,0,162,27,1,twofour,,,,,,,,,,,,,,,,,,,,,,,,,,,,,,,,,,,,,,,,,,,,,,,,,,,,,,,,,,,,,,,,,,,,,,,,,,,,,,,,,,,,,,,,,,,,,,,,,,,,,,,,,,,,,,,,,,,,,,,,,,,,,,,,,,,,,,,,,
,,5f035cb3e9d86255405f1d46,2024-02-19_03h19.03.937,kallum_motion_pilot,2023.2.2,Win32,119.047619,5f035cb3e9d86255405f1d46,65d2b6c8f2eece985d8e374c,65d2b996341d070378ca4f0f,0.0602,0.0602,1,1,163,107,1,sixeight,,,,,,,,,,,,,,,,,,,,,,,,,,,,,,,,,,,,,,,,,,,,,,,,,,,,,,,,,,,,,,,,,,,,,,,,,,,,,,,,,,,,,,,,,,,,,,,,,,,,,,,,,,,,,,,,,,,,,,,,,,,,,,,,,,,,,,,,,
,,5f035cb3e9d86255405f1d46,2024-02-19_03h19.03.937,kallum_motion_pilot,2023.2.2,Win32,119.047619,5f035cb3e9d86255405f1d46,65d2b6c8f2eece985d8e374c,65d2b996341d070378ca4f0f,0.0603,0.0603,1,2,164,159,1,eightseven,,,,,,,,,,,,,,,,,,,,,,,,,,,,,,,,,,,,,,,,,,,,,,,,,,,,,,,,,,,,,,,,,,,,,,,,,,,,,,,,,,,,,,,,,,,,,,,,,,,,,,,,,,,,,,,,,,,,,,,,,,,,,,,,,,,,,,,,,
,,5f035cb3e9d86255405f1d46,2024-02-19_03h19.03.937,kallum_motion_pilot,2023.2.2,Win32,119.047619,5f035cb3e9d86255405f1d46,65d2b6c8f2eece985d8e374c,65d2b996341d070378ca4f0f,0.0605,0.0606,1,3,165,113,1,fiveseven,,,,,,,,,,,,,,,,,,,,,,,,,,,,,,,,,,,,,,,,,,,,,,,,,,,,,,,,,,,,,,,,,,,,,,,,,,,,,,,,,,,,,,,,,,,,,,,,,,,,,,,,,,,,,,,,,,,,,,,,,,,,,,,,,,,,,,,,,
,,5f035cb3e9d86255405f1d46,2024-02-19_03h19.03.937,kallum_motion_pilot,2023.2.2,Win32,119.047619,5f035cb3e9d86255405f1d46,65d2b6c8f2eece985d8e374c,65d2b996341d070378ca4f0f,0.0607,0.0608,1,4,166,9,1,onethree,,,,,,,,,,,,,,,,,,,,,,,,,,,,,,,,,,,,,,,,,,,,,,,,,,,,,,,,,,,,,,,,,,,,,,,,,,,,,,,,,,,,,,,,,,,,,,,,,,,,,,,,,,,,,,,,,,,,,,,,,,,,,,,,,,,,,,,,,
,,5f035cb3e9d86255405f1d46,2024-02-19_03h19.03.937,kallum_motion_pilot,2023.2.2,Win32,119.047619,5f035cb3e9d86255405f1d46,65d2b6c8f2eece985d8e374c,65d2b996341d070378ca4f0f,0.0608,0.0609,1,5,167,160,1,fivesix,,,,,,,,,,,,,,,,,,,,,,,,,,,,,,,,,,,,,,,,,,,,,,,,,,,,,,,,,,,,,,,,,,,,,,,,,,,,,,,,,,,,,,,,,,,,,,,,,,,,,,,,,,,,,,,,,,,,,,,,,,,,,,,,,,,,,,,,,
,,5f035cb3e9d86255405f1d46,2024-02-19_03h19.03.937,kallum_motion_pilot,2023.2.2,Win32,119.047619,5f035cb3e9d86255405f1d46,65d2b6c8f2eece985d8e374c,65d2b996341d070378ca4f0f,0.061,0.0611,1,6,168,91,1,sixeight,,,,,,,,,,,,,,,,,,,,,,,,,,,,,,,,,,,,,,,,,,,,,,,,,,,,,,,,,,,,,,,,,,,,,,,,,,,,,,,,,,,,,,,,,,,,,,,,,,,,,,,,,,,,,,,,,,,,,,,,,,,,,,,,,,,,,,,,,
,,5f035cb3e9d86255405f1d46,2024-02-19_03h19.03.937,kallum_motion_pilot,2023.2.2,Win32,119.047619,5f035cb3e9d86255405f1d46,65d2b6c8f2eece985d8e374c,65d2b996341d070378ca4f0f,0.0612,0.0612,1,7,169,76,1,threeone,,,,,,,,,,,,,,,,,,,,,,,,,,,,,,,,,,,,,,,,,,,,,,,,,,,,,,,,,,,,,,,,,,,,,,,,,,,,,,,,,,,,,,,,,,,,,,,,,,,,,,,,,,,,,,,,,,,,,,,,,,,,,,,,,,,,,,,,,
,,5f035cb3e9d86255405f1d46,2024-02-19_03h19.03.937,kallum_motion_pilot,2023.2.2,Win32,119.047619,5f035cb3e9d86255405f1d46,65d2b6c8f2eece985d8e374c,65d2b996341d070378ca4f0f,0.0614,0.0614,1,8,170,49,1,onethree,,,,,,,,,,,,,,,,,,,,,,,,,,,,,,,,,,,,,,,,,,,,,,,,,,,,,,,,,,,,,,,,,,,,,,,,,,,,,,,,,,,,,,,,,,,,,,,,,,,,,,,,,,,,,,,,,,,,,,,,,,,,,,,,,,,,,,,,,
,,5f035cb3e9d86255405f1d46,2024-02-19_03h19.03.937,kallum_motion_pilot,2023.2.2,Win32,119.047619,5f035cb3e9d86255405f1d46,65d2b6c8f2eece985d8e374c,65d2b996341d070378ca4f0f,0.0615,0.0616,1,9,171,80,1,fivesix,,,,,,,,,,,,,,,,,,,,,,,,,,,,,,,,,,,,,,,,,,,,,,,,,,,,,,,,,,,,,,,,,,,,,,,,,,,,,,,,,,,,,,,,,,,,,,,,,,,,,,,,,,,,,,,,,,,,,,,,,,,,,,,,,,,,,,,,,
,,5f035cb3e9d86255405f1d46,2024-02-19_03h19.03.937,kallum_motion_pilot,2023.2.2,Win32,119.047619,5f035cb3e9d86255405f1d46,65d2b6c8f2eece985d8e374c,65d2b996341d070378ca4f0f,0.0617,0.0618,1,10,172,69,1,threefour,,,,,,,,,,,,,,,,,,,,,,,,,,,,,,,,,,,,,,,,,,,,,,,,,,,,,,,,,,,,,,,,,,,,,,,,,,,,,,,,,,,,,,,,,,,,,,,,,,,,,,,,,,,,,,,,,,,,,,,,,,,,,,,,,,,,,,,,,
,,5f035cb3e9d86255405f1d46,2024-02-19_03h19.03.937,kallum_motion_pilot,2023.2.2,Win32,119.047619,5f035cb3e9d86255405f1d46,65d2b6c8f2eece985d8e374c,65d2b996341d070378ca4f0f,0.0618,0.0619,1,11,173,10,1,twoone,,,,,,,,,,,,,,,,,,,,,,,,,,,,,,,,,,,,,,,,,,,,,,,,,,,,,,,,,,,,,,,,,,,,,,,,,,,,,,,,,,,,,,,,,,,,,,,,,,,,,,,,,,,,,,,,,,,,,,,,,,,,,,,,,,,,,,,,,
,,5f035cb3e9d86255405f1d46,2024-02-19_03h19.03.937,kallum_motion_pilot,2023.2.2,Win32,119.047619,5f035cb3e9d86255405f1d46,65d2b6c8f2eece985d8e374c,65d2b996341d070378ca4f0f,0.062,0.0621,1,12,174,74,1,twoone,,,,,,,,,,,,,,,,,,,,,,,,,,,,,,,,,,,,,,,,,,,,,,,,,,,,,,,,,,,,,,,,,,,,,,,,,,,,,,,,,,,,,,,,,,,,,,,,,,,,,,,,,,,,,,,,,,,,,,,,,,,,,,,,,,,,,,,,,
,,5f035cb3e9d86255405f1d46,2024-02-19_03h19.03.937,kallum_motion_pilot,2023.2.2,Win32,119.047619,5f035cb3e9d86255405f1d46,65d2b6c8f2eece985d8e374c,65d2b996341d070378ca4f0f,0.0622,0.0623,1,13,175,58,1,twoone,,,,,,,,,,,,,,,,,,,,,,,,,,,,,,,,,,,,,,,,,,,,,,,,,,,,,,,,,,,,,,,,,,,,,,,,,,,,,,,,,,,,,,,,,,,,,,,,,,,,,,,,,,,,,,,,,,,,,,,,,,,,,,,,,,,,,,,,,
,,5f035cb3e9d86255405f1d46,2024-02-19_03h19.03.937,kallum_motion_pilot,2023.2.2,Win32,119.047619,5f035cb3e9d86255405f1d46,65d2b6c8f2eece985d8e374c,65d2b996341d070378ca4f0f,0.0623,0.0624,1,14,176,92,1,sevenfive,,,,,,,,,,,,,,,,,,,,,,,,,,,,,,,,,,,,,,,,,,,,,,,,,,,,,,,,,,,,,,,,,,,,,,,,,,,,,,,,,,,,,,,,,,,,,,,,,,,,,,,,,,,,,,,,,,,,,,,,,,,,,,,,,,,,,,,,,
,,5f035cb3e9d86255405f1d46,2024-02-19_03h19.03.937,kallum_motion_pilot,2023.2.2,Win32,119.047619,5f035cb3e9d86255405f1d46,65d2b6c8f2eece985d8e374c,65d2b996341d070378ca4f0f,0.0625,0.0626,1,15,177,42,1,twoone,,,,,,,,,,,,,,,,,,,,,,,,,,,,,,,,,,,,,,,,,,,,,,,,,,,,,,,,,,,,,,,,,,,,,,,,,,,,,,,,,,,,,,,,,,,,,,,,,,,,,,,,,,,,,,,,,,,,,,,,,,,,,,,,,,,,,,,,,
,,5f035cb3e9d86255405f1d46,2024-02-19_03h19.03.937,kallum_motion_pilot,2023.2.2,Win32,119.047619,5f035cb3e9d86255405f1d46,65d2b6c8f2eece985d8e374c,65d2b996341d070378ca4f0f,0.0627,0.0628,1,16,178,127,1,eightseven,,,,,,,,,,,,,,,,,,,,,,,,,,,,,,,,,,,,,,,,,,,,,,,,,,,,,,,,,,,,,,,,,,,,,,,,,,,,,,,,,,,,,,,,,,,,,,,,,,,,,,,,,,,,,,,,,,,,,,,,,,,,,,,,,,,,,,,,,
,,5f035cb3e9d86255405f1d46,2024-02-19_03h19.03.937,kallum_motion_pilot,2023.2.2,Win32,119.047619,5f035cb3e9d86255405f1d46,65d2b6c8f2eece985d8e374c,65d2b996341d070378ca4f0f,0.0628,0.0629,1,17,179,100,1,sevenfive,,,,,,,,,,,,,,,,,,,,,,,,,,,,,,,,,,,,,,,,,,,,,,,,,,,,,,,,,,,,,,,,,,,,,,,,,,,,,,,,,,,,,,,,,,,,,,,,,,,,,,,,,,,,,,,,,,,,,,,,,,,,,,,,,,,,,,,,,
,,5f035cb3e9d86255405f1d46,2024-02-19_03h19.03.937,kallum_motion_pilot,2023.2.2,Win32,119.047619,5f035cb3e9d86255405f1d46,65d2b6c8f2eece985d8e374c,65d2b996341d070378ca4f0f,0.063,0.0631,1,18,180,125,1,seveneight,,,,,,,,,,,,,,,,,,,,,,,,,,,,,,,,,,,,,,,,,,,,,,,,,,,,,,,,,,,,,,,,,,,,,,,,,,,,,,,,,,,,,,,,,,,,,,,,,,,,,,,,,,,,,,,,,,,,,,,,,,,,,,,,,,,,,,,,,
,,5f035cb3e9d86255405f1d46,2024-02-19_03h19.03.937,kallum_motion_pilot,2023.2.2,Win32,119.047619,5f035cb3e9d86255405f1d46,65d2b6c8f2eece985d8e374c,65d2b996341d070378ca4f0f,0.0631,0.0632,1,19,181,65,1,onethree,,,,,,,,,,,,,,,,,,,,,,,,,,,,,,,,,,,,,,,,,,,,,,,,,,,,,,,,,,,,,,,,,,,,,,,,,,,,,,,,,,,,,,,,,,,,,,,,,,,,,,,,,,,,,,,,,,,,,,,,,,,,,,,,,,,,,,,,,
,,5f035cb3e9d86255405f1d46,2024-02-19_03h19.03.937,kallum_motion_pilot,2023.2.2,Win32,119.047619,5f035cb3e9d86255405f1d46,65d2b6c8f2eece985d8e374c,65d2b996341d070378ca4f0f,0.0634,0.0635,1,20,182,143,1,eightseven,,,,,,,,,,,,,,,,,,,,,,,,,,,,,,,,,,,,,,,,,,,,,,,,,,,,,,,,,,,,,,,,,,,,,,,,,,,,,,,,,,,,,,,,,,,,,,,,,,,,,,,,,,,,,,,,,,,,,,,,,,,,,,,,,,,,,,,,,
,,5f035cb3e9d86255405f1d46,2024-02-19_03h19.03.937,kallum_motion_pilot,2023.2.2,Win32,119.047619,5f035cb3e9d86255405f1d46,65d2b6c8f2eece985d8e374c,65d2b996341d070378ca4f0f,0.0636,0.0637,1,21,183,138,1,sixfive,,,,,,,,,,,,,,,,,,,,,,,,,,,,,,,,,,,,,,,,,,,,,,,,,,,,,,,,,,,,,,,,,,,,,,,,,,,,,,,,,,,,,,,,,,,,,,,,,,,,,,,,,,,,,,,,,,,,,,,,,,,,,,,,,,,,,,,,,
,,5f035cb3e9d86255405f1d46,2024-02-19_03h19.03.937,kallum_motion_pilot,2023.2.2,Win32,119.047619,5f035cb3e9d86255405f1d46,65d2b6c8f2eece985d8e374c,65d2b996341d070378ca4f0f,0.0639,0.0641,1,22,184,28,1,threeone,,,,,,,,,,,,,,,,,,,,,,,,,,,,,,,,,,,,,,,,,,,,,,,,,,,,,,,,,,,,,,,,,,,,,,,,,,,,,,,,,,,,,,,,,,,,,,,,,,,,,,,,,,,,,,,,,,,,,,,,,,,,,,,,,,,,,,,,,
,,5f035cb3e9d86255405f1d46,2024-02-19_03h19.03.937,kallum_motion_pilot,2023.2.2,Win32,119.047619,5f035cb3e9d86255405f1d46,65d2b6c8f2eece985d8e374c,65d2b996341d070378ca4f0f,0.0642,0.0643,1,23,185,37,1,threefour,,,,,,,,,,,,,,,,,,,,,,,,,,,,,,,,,,,,,,,,,,,,,,,,,,,,,,,,,,,,,,,,,,,,,,,,,,,,,,,,,,,,,,,,,,,,,,,,,,,,,,,,,,,,,,,,,,,,,,,,,,,,,,,,,,,,,,,,,
,,5f035cb3e9d86255405f1d46,2024-02-19_03h19.03.937,kallum_motion_pilot,2023.2.2,Win32,119.047619,5f035cb3e9d86255405f1d46,65d2b6c8f2eece985d8e374c,65d2b996341d070378ca4f0f,0.0646,0.0647,1,24,186,156,1,sevenfive,,,,,,,,,,,,,,,,,,,,,,,,,,,,,,,,,,,,,,,,,,,,,,,,,,,,,,,,,,,,,,,,,,,,,,,,,,,,,,,,,,,,,,,,,,,,,,,,,,,,,,,,,,,,,,,,,,,,,,,,,,,,,,,,,,,,,,,,,
,,5f035cb3e9d86255405f1d46,2024-02-19_03h19.03.937,kallum_motion_pilot,2023.2.2,Win32,119.047619,5f035cb3e9d86255405f1d46,65d2b6c8f2eece985d8e374c,65d2b996341d070378ca4f0f,0.0648,0.065,1,25,187,16,1,onetwo,,,,,,,,,,,,,,,,,,,,,,,,,,,,,,,,,,,,,,,,,,,,,,,,,,,,,,,,,,,,,,,,,,,,,,,,,,,,,,,,,,,,,,,,,,,,,,,,,,,,,,,,,,,,,,,,,,,,,,,,,,,,,,,,,,,,,,,,,
,,5f035cb3e9d86255405f1d46,2024-02-19_03h19.03.937,kallum_motion_pilot,2023.2.2,Win32,119.047619,5f035cb3e9d86255405f1d46,65d2b6c8f2eece985d8e374c,65d2b996341d070378ca4f0f,0.0651,0.0653,1,26,188,141,1,seveneight,,,,,,,,,,,,,,,,,,,,,,,,,,,,,,,,,,,,,,,,,,,,,,,,,,,,,,,,,,,,,,,,,,,,,,,,,,,,,,,,,,,,,,,,,,,,,,,,,,,,,,,,,,,,,,,,,,,,,,,,,,,,,,,,,,,,,,,,,
,,5f035cb3e9d86255405f1d46,2024-02-19_03h19.03.937,kallum_motion_pilot,2023.2.2,Win32,119.047619,5f035cb3e9d86255405f1d46,65d2b6c8f2eece985d8e374c,65d2b996341d070378ca4f0f,0.0654,0.0655,1,27,189,7,1,fourthree,,,,,,,,,,,,,,,,,,,,,,,,,,,,,,,,,,,,,,,,,,,,,,,,,,,,,,,,,,,,,,,,,,,,,,,,,,,,,,,,,,,,,,,,,,,,,,,,,,,,,,,,,,,,,,,,,,,,,,,,,,,,,,,,,,,,,,,,,
,,5f035cb3e9d86255405f1d46,2024-02-19_03h19.03.937,kallum_motion_pilot,2023.2.2,Win32,119.047619,5f035cb3e9d86255405f1d46,65d2b6c8f2eece985d8e374c,65d2b996341d070378ca4f0f,0.0656,0.0658,1,28,190,0,1,onetwo,,,,,,,,,,,,,,,,,,,,,,,,,,,,,,,,,,,,,,,,,,,,,,,,,,,,,,,,,,,,,,,,,,,,,,,,,,,,,,,,,,,,,,,,,,,,,,,,,,,,,,,,,,,,,,,,,,,,,,,,,,,,,,,,,,,,,,,,,
,,5f035cb3e9d86255405f1d46,2024-02-19_03h19.03.937,kallum_motion_pilot,2023.2.2,Win32,119.047619,5f035cb3e9d86255405f1d46,65d2b6c8f2eece985d8e374c,65d2b996341d070378ca4f0f,0.0659,0.0661,1,29,191,44,1,threeone,,,,,,,,,,,,,,,,,,,,,,,,,,,,,,,,,,,,,,,,,,,,,,,,,,,,,,,,,,,,,,,,,,,,,,,,,,,,,,,,,,,,,,,,,,,,,,,,,,,,,,,,,,,,,,,,,,,,,,,,,,,,,,,,,,,,,,,,,
,,5f035cb3e9d86255405f1d46,2024-02-19_03h19.03.937,kallum_motion_pilot,2023.2.2,Win32,119.047619,5f035cb3e9d86255405f1d46,65d2b6c8f2eece985d8e374c,65d2b996341d070378ca4f0f,0.0662,0.0663,1,30,192,133,1,seveneight,,,,,,,,,,,,,,,,,,,,,,,,,,,,,,,,,,,,,,,,,,,,,,,,,,,,,,,,,,,,,,,,,,,,,,,,,,,,,,,,,,,,,,,,,,,,,,,,,,,,,,,,,,,,,,,,,,,,,,,,,,,,,,,,,,,,,,,,,
,,5f035cb3e9d86255405f1d46,2024-02-19_03h19.03.937,kallum_motion_pilot,2023.2.2,Win32,119.047619,5f035cb3e9d86255405f1d46,65d2b6c8f2eece985d8e374c,65d2b996341d070378ca4f0f,0.0665,0.0667,1,31,193,102,1,eightsix,,,,,,,,,,,,,,,,,,,,,,,,,,,,,,,,,,,,,,,,,,,,,,,,,,,,,,,,,,,,,,,,,,,,,,,,,,,,,,,,,,,,,,,,,,,,,,,,,,,,,,,,,,,,,,,,,,,,,,,,,,,,,,,,,,,,,,,,,
,,5f035cb3e9d86255405f1d46,2024-02-19_03h19.03.937,kallum_motion_pilot,2023.2.2,Win32,119.047619,5f035cb3e9d86255405f1d46,65d2b6c8f2eece985d8e374c,65d2b996341d070378ca4f0f,0.0667,0.067,1,32,194,85,1,seveneight,,,,,,,,,,,,,,,,,,,,,,,,,,,,,,,,,,,,,,,,,,,,,,,,,,,,,,,,,,,,,,,,,,,,,,,,,,,,,,,,,,,,,,,,,,,,,,,,,,,,,,,,,,,,,,,,,,,,,,,,,,,,,,,,,,,,,,,,,
,,5f035cb3e9d86255405f1d46,2024-02-19_03h19.03.937,kallum_motion_pilot,2023.2.2,Win32,119.047619,5f035cb3e9d86255405f1d46,65d2b6c8f2eece985d8e374c,65d2b996341d070378ca4f0f,0.0671,0.0672,1,33,195,96,1,fivesix,,,,,,,,,,,,,,,,,,,,,,,,,,,,,,,,,,,,,,,,,,,,,,,,,,,,,,,,,,,,,,,,,,,,,,,,,,,,,,,,,,,,,,,,,,,,,,,,,,,,,,,,,,,,,,,,,,,,,,,,,,,,,,,,,,,,,,,,,
,,5f035cb3e9d86255405f1d46,2024-02-19_03h19.03.937,kallum_motion_pilot,2023.2.2,Win32,119.047619,5f035cb3e9d86255405f1d46,65d2b6c8f2eece985d8e374c,65d2b996341d070378ca4f0f,0.0674,0.0676,1,34,196,64,1,onetwo,,,,,,,,,,,,,,,,,,,,,,,,,,,,,,,,,,,,,,,,,,,,,,,,,,,,,,,,,,,,,,,,,,,,,,,,,,,,,,,,,,,,,,,,,,,,,,,,,,,,,,,,,,,,,,,,,,,,,,,,,,,,,,,,,,,,,,,,,
,,5f035cb3e9d86255405f1d46,2024-02-19_03h19.03.937,kallum_motion_pilot,2023.2.2,Win32,119.047619,5f035cb3e9d86255405f1d46,65d2b6c8f2eece985d8e374c,65d2b996341d070378ca4f0f,0.0677,0.0679,1,35,197,60,1,threeone,,,,,,,,,,,,,,,,,,,,,,,,,,,,,,,,,,,,,,,,,,,,,,,,,,,,,,,,,,,,,,,,,,,,,,,,,,,,,,,,,,,,,,,,,,,,,,,,,,,,,,,,,,,,,,,,,,,,,,,,,,,,,,,,,,,,,,,,,
,,5f035cb3e9d86255405f1d46,2024-02-19_03h19.03.937,kallum_motion_pilot,2023.2.2,Win32,119.047619,5f035cb3e9d86255405f1d46,65d2b6c8f2eece985d8e374c,65d2b996341d070378ca4f0f,0.0679,0.0681,1,36,198,25,1,onethree,,,,,,,,,,,,,,,,,,,,,,,,,,,,,,,,,,,,,,,,,,,,,,,,,,,,,,,,,,,,,,,,,,,,,,,,,,,,,,,,,,,,,,,,,,,,,,,,,,,,,,,,,,,,,,,,,,,,,,,,,,,,,,,,,,,,,,,,,
,,5f035cb3e9d86255405f1d46,2024-02-19_03h19.03.937,kallum_motion_pilot,2023.2.2,Win32,119.047619,5f035cb3e9d86255405f1d46,65d2b6c8f2eece985d8e374c,65d2b996341d070378ca4f0f,0.0682,0.0684,1,37,199,36,1,threeone,,,,,,,,,,,,,,,,,,,,,,,,,,,,,,,,,,,,,,,,,,,,,,,,,,,,,,,,,,,,,,,,,,,,,,,,,,,,,,,,,,,,,,,,,,,,,,,,,,,,,,,,,,,,,,,,,,,,,,,,,,,,,,,,,,,,,,,,,
,,5f035cb3e9d86255405f1d46,2024-02-19_03h19.03.937,kallum_motion_pilot,2023.2.2,Win32,119.047619,5f035cb3e9d86255405f1d46,65d2b6c8f2eece985d8e374c,65d2b996341d070378ca4f0f,0.0686,0.0686,1,38,200,39,1,fourthree,,,,,,,,,,,,,,,,,,,,,,,,,,,,,,,,,,,,,,,,,,,,,,,,,,,,,,,,,,,,,,,,,,,,,,,,,,,,,,,,,,,,,,,,,,,,,,,,,,,,,,,,,,,,,,,,,,,,,,,,,,,,,,,,,,,,,,,,,
,,5f035cb3e9d86255405f1d46,2024-02-19_03h19.03.937,kallum_motion_pilot,2023.2.2,Win32,119.047619,5f035cb3e9d86255405f1d46,65d2b6c8f2eece985d8e374c,65d2b996341d070378ca4f0f,0.0688,0.069,1,39,201,50,1,twoone,,,,,,,,,,,,,,,,,,,,,,,,,,,,,,,,,,,,,,,,,,,,,,,,,,,,,,,,,,,,,,,,,,,,,,,,,,,,,,,,,,,,,,,,,,,,,,,,,,,,,,,,,,,,,,,,,,,,,,,,,,,,,,,,,,,,,,,,,
,,5f035cb3e9d86255405f1d46,2024-02-19_03h19.03.937,kallum_motion_pilot,2023.2.2,Win32,119.047619,5f035cb3e9d86255405f1d46,65d2b6c8f2eece985d8e374c,65d2b996341d070378ca4f0f,0.0691,0.0692,1,40,202,142,1,eightsix,,,,,,,,,,,,,,,,,,,,,,,,,,,,,,,,,,,,,,,,,,,,,,,,,,,,,,,,,,,,,,,,,,,,,,,,,,,,,,,,,,,,,,,,,,,,,,,,,,,,,,,,,,,,,,,,,,,,,,,,,,,,,,,,,,,,,,,,,
,,5f035cb3e9d86255405f1d46,2024-02-19_03h19.03.937,kallum_motion_pilot,2023.2.2,Win32,119.047619,5f035cb3e9d86255405f1d46,65d2b6c8f2eece985d8e374c,65d2b996341d070378ca4f0f,0.0694,0.0696,1,41,203,6,1,fourtwo,,,,,,,,,,,,,,,,,,,,,,,,,,,,,,,,,,,,,,,,,,,,,,,,,,,,,,,,,,,,,,,,,,,,,,,,,,,,,,,,,,,,,,,,,,,,,,,,,,,,,,,,,,,,,,,,,,,,,,,,,,,,,,,,,,,,,,,,,
,,5f035cb3e9d86255405f1d46,2024-02-19_03h19.03.937,kallum_motion_pilot,2023.2.2,Win32,119.047619,5f035cb3e9d86255405f1d46,65d2b6c8f2eece985d8e374c,65d2b996341d070378ca4f0f,0.0697,0.0698,1,42,204,24,1,onetwo,,,,,,,,,,,,,,,,,,,,,,,,,,,,,,,,,,,,,,,,,,,,,,,,,,,,,,,,,,,,,,,,,,,,,,,,,,,,,,,,,,,,,,,,,,,,,,,,,,,,,,,,,,,,,,,,,,,,,,,,,,,,,,,,,,,,,,,,,
,,5f035cb3e9d86255405f1d46,2024-02-19_03h19.03.937,kallum_motion_pilot,2023.2.2,Win32,119.047619,5f035cb3e9d86255405f1d46,65d2b6c8f2eece985d8e374c,65d2b996341d070378ca4f0f,0.0699,0.0702,1,43,205,124,1,sevenfive,,,,,,,,,,,,,,,,,,,,,,,,,,,,,,,,,,,,,,,,,,,,,,,,,,,,,,,,,,,,,,,,,,,,,,,,,,,,,,,,,,,,,,,,,,,,,,,,,,,,,,,,,,,,,,,,,,,,,,,,,,,,,,,,,,,,,,,,,
,,5f035cb3e9d86255405f1d46,2024-02-19_03h19.03.937,kallum_motion_pilot,2023.2.2,Win32,119.047619,5f035cb3e9d86255405f1d46,65d2b6c8f2eece985d8e374c,65d2b996341d070378ca4f0f,0.0702,0.0704,1,44,206,121,1,fiveseven,,,,,,,,,,,,,,,,,,,,,,,,,,,,,,,,,,,,,,,,,,,,,,,,,,,,,,,,,,,,,,,,,,,,,,,,,,,,,,,,,,,,,,,,,,,,,,,,,,,,,,,,,,,,,,,,,,,,,,,,,,,,,,,,,,,,,,,,,
,,5f035cb3e9d86255405f1d46,2024-02-19_03h19.03.937,kallum_motion_pilot,2023.2.2,Win32,119.047619,5f035cb3e9d86255405f1d46,65d2b6c8f2eece985d8e374c,65d2b996341d070378ca4f0f,0.0705,0.0706,1,45,207,108,1,sevenfive,,,,,,,,,,,,,,,,,,,,,,,,,,,,,,,,,,,,,,,,,,,,,,,,,,,,,,,,,,,,,,,,,,,,,,,,,,,,,,,,,,,,,,,,,,,,,,,,,,,,,,,,,,,,,,,,,,,,,,,,,,,,,,,,,,,,,,,,,
,,5f035cb3e9d86255405f1d46,2024-02-19_03h19.03.937,kallum_motion_pilot,2023.2.2,Win32,119.047619,5f035cb3e9d86255405f1d46,65d2b6c8f2eece985d8e374c,65d2b996341d070378ca4f0f,0.0708,0.071,1,46,208,4,1,threeone,,,,,,,,,,,,,,,,,,,,,,,,,,,,,,,,,,,,,,,,,,,,,,,,,,,,,,,,,,,,,,,,,,,,,,,,,,,,,,,,,,,,,,,,,,,,,,,,,,,,,,,,,,,,,,,,,,,,,,,,,,,,,,,,,,,,,,,,,
,,5f035cb3e9d86255405f1d46,2024-02-19_03h19.03.937,kallum_motion_pilot,2023.2.2,Win32,119.047619,5f035cb3e9d86255405f1d46,65d2b6c8f2eece985d8e374c,65d2b996341d070378ca4f0f,0.0711,0.0713,1,47,209,66,1,twoone,,,,,,,,,,,,,,,,,,,,,,,,,,,,,,,,,,,,,,,,,,,,,,,,,,,,,,,,,,,,,,,,,,,,,,,,,,,,,,,,,,,,,,,,,,,,,,,,,,,,,,,,,,,,,,,,,,,,,,,,,,,,,,,,,,,,,,,,,
,,5f035cb3e9d86255405f1d46,2024-02-19_03h19.03.937,kallum_motion_pilot,2023.2.2,Win32,119.047619,5f035cb3e9d86255405f1d46,65d2b6c8f2eece985d8e374c,65d2b996341d070378ca4f0f,0.0714,0.0716,1,48,210,112,1,fivesix,,,,,,,,,,,,,,,,,,,,,,,,,,,,,,,,,,,,,,,,,,,,,,,,,,,,,,,,,,,,,,,,,,,,,,,,,,,,,,,,,,,,,,,,,,,,,,,,,,,,,,,,,,,,,,,,,,,,,,,,,,,,,,,,,,,,,,,,,
,,5f035cb3e9d86255405f1d46,2024-02-19_03h19.03.937,kallum_motion_pilot,2023.2.2,Win32,119.047619,5f035cb3e9d86255405f1d46,65d2b6c8f2eece985d8e374c,65d2b996341d070378ca4f0f,0.0717,0.0718,1,49,211,128,1,fivesix,,,,,,,,,,,,,,,,,,,,,,,,,,,,,,,,,,,,,,,,,,,,,,,,,,,,,,,,,,,,,,,,,,,,,,,,,,,,,,,,,,,,,,,,,,,,,,,,,,,,,,,,,,,,,,,,,,,,,,,,,,,,,,,,,,,,,,,,,
,,5f035cb3e9d86255405f1d46,2024-02-19_03h19.03.937,kallum_motion_pilot,2023.2.2,Win32,119.047619,5f035cb3e9d86255405f1d46,65d2b6c8f2eece985d8e374c,65d2b996341d070378ca4f0f,0.072,0.0721,1,50,212,90,1,sixfive,,,,,,,,,,,,,,,,,,,,,,,,,,,,,,,,,,,,,,,,,,,,,,,,,,,,,,,,,,,,,,,,,,,,,,,,,,,,,,,,,,,,,,,,,,,,,,,,,,,,,,,,,,,,,,,,,,,,,,,,,,,,,,,,,,,,,,,,,
,,5f035cb3e9d86255405f1d46,2024-02-19_03h19.03.937,kallum_motion_pilot,2023.2.2,Win32,119.047619,5f035cb3e9d86255405f1d46,65d2b6c8f2eece985d8e374c,65d2b996341d070378ca4f0f,0.0722,0.0725,1,51,213,158,1,eightsix,,,,,,,,,,,,,,,,,,,,,,,,,,,,,,,,,,,,,,,,,,,,,,,,,,,,,,,,,,,,,,,,,,,,,,,,,,,,,,,,,,,,,,,,,,,,,,,,,,,,,,,,,,,,,,,,,,,,,,,,,,,,,,,,,,,,,,,,,
,,5f035cb3e9d86255405f1d46,2024-02-19_03h19.03.937,kallum_motion_pilot,2023.2.2,Win32,119.047619,5f035cb3e9d86255405f1d46,65d2b6c8f2eece985d8e374c,65d2b996341d070378ca4f0f,0.0726,0.0727,1,52,214,115,1,sixeight,,,,,,,,,,,,,,,,,,,,,,,,,,,,,,,,,,,,,,,,,,,,,,,,,,,,,,,,,,,,,,,,,,,,,,,,,,,,,,,,,,,,,,,,,,,,,,,,,,,,,,,,,,,,,,,,,,,,,,,,,,,,,,,,,,,,,,,,,
,,5f035cb3e9d86255405f1d46,2024-02-19_03h19.03.937,kallum_motion_pilot,2023.2.2,Win32,119.047619,5f035cb3e9d86255405f1d46,65d2b6c8f2eece985d8e374c,65d2b996341d070378ca4f0f,0.0728,0.073,1,53,215,145,1,fiveseven,,,,,,,,,,,,,,,,,,,,,,,,,,,,,,,,,,,,,,,,,,,,,,,,,,,,,,,,,,,,,,,,,,,,,,,,,,,,,,,,,,,,,,,,,,,,,,,,,,,,,,,,,,,,,,,,,,,,,,,,,,,,,,,,,,,,,,,,,
,,5f035cb3e9d86255405f1d46,2024-02-19_03h19.03.937,kallum_motion_pilot,2023.2.2,Win32,119.047619,5f035cb3e9d86255405f1d46,65d2b6c8f2eece985d8e374c,65d2b996341d070378ca4f0f,0.0731,0.0733,1,54,216,47,1,fourthree,,,,,,,,,,,,,,,,,,,,,,,,,,,,,,,,,,,,,,,,,,,,,,,,,,,,,,,,,,,,,,,,,,,,,,,,,,,,,,,,,,,,,,,,,,,,,,,,,,,,,,,,,,,,,,,,,,,,,,,,,,,,,,,,,,,,,,,,,
,,5f035cb3e9d86255405f1d46,2024-02-19_03h19.03.937,kallum_motion_pilot,2023.2.2,Win32,119.047619,5f035cb3e9d86255405f1d46,65d2b6c8f2eece985d8e374c,65d2b996341d070378ca4f0f,0.0735,0.0736,1,55,217,126,1,eightsix,,,,,,,,,,,,,,,,,,,,,,,,,,,,,,,,,,,,,,,,,,,,,,,,,,,,,,,,,,,,,,,,,,,,,,,,,,,,,,,,,,,,,,,,,,,,,,,,,,,,,,,,,,,,,,,,,,,,,,,,,,,,,,,,,,,,,,,,,
,,5f035cb3e9d86255405f1d46,2024-02-19_03h19.03.937,kallum_motion_pilot,2023.2.2,Win32,119.047619,5f035cb3e9d86255405f1d46,65d2b6c8f2eece985d8e374c,65d2b996341d070378ca4f0f,0.0738,0.0739,1,56,218,29,1,threefour,,,,,,,,,,,,,,,,,,,,,,,,,,,,,,,,,,,,,,,,,,,,,,,,,,,,,,,,,,,,,,,,,,,,,,,,,,,,,,,,,,,,,,,,,,,,,,,,,,,,,,,,,,,,,,,,,,,,,,,,,,,,,,,,,,,,,,,,,
,,5f035cb3e9d86255405f1d46,2024-02-19_03h19.03.937,kallum_motion_pilot,2023.2.2,Win32,119.047619,5f035cb3e9d86255405f1d46,65d2b6c8f2eece985d8e374c,65d2b996341d070378ca4f0f,0.074,0.0742,1,57,219,38,1,fourtwo,,,,,,,,,,,,,,,,,,,,,,,,,,,,,,,,,,,,,,,,,,,,,,,,,,,,,,,,,,,,,,,,,,,,,,,,,,,,,,,,,,,,,,,,,,,,,,,,,,,,,,,,,,,,,,,,,,,,,,,,,,,,,,,,,,,,,,,,,
,,5f035cb3e9d86255405f1d46,2024-02-19_03h19.03.937,kallum_motion_pilot,2023.2.2,Win32,119.047619,5f035cb3e9d86255405f1d46,65d2b6c8f2eece985d8e374c,65d2b996341d070378ca4f0f,0.0743,0.0745,1,58,220,161,1,fiveseven,,,,,,,,,,,,,,,,,,,,,,,,,,,,,,,,,,,,,,,,,,,,,,,,,,,,,,,,,,,,,,,,,,,,,,,,,,,,,,,,,,,,,,,,,,,,,,,,,,,,,,,,,,,,,,,,,,,,,,,,,,,,,,,,,,,,,,,,,
,,5f035cb3e9d86255405f1d46,2024-02-19_03h19.03.937,kallum_motion_pilot,2023.2.2,Win32,119.047619,5f035cb3e9d86255405f1d46,65d2b6c8f2eece985d8e374c,65d2b996341d070378ca4f0f,0.0746,0.0748,1,59,221,20,1,threeone,,,,,,,,,,,,,,,,,,,,,,,,,,,,,,,,,,,,,,,,,,,,,,,,,,,,,,,,,,,,,,,,,,,,,,,,,,,,,,,,,,,,,,,,,,,,,,,,,,,,,,,,,,,,,,,,,,,,,,,,,,,,,,,,,,,,,,,,,
,,5f035cb3e9d86255405f1d46,2024-02-19_03h19.03.937,kallum_motion_pilot,2023.2.2,Win32,119.047619,5f035cb3e9d86255405f1d46,65d2b6c8f2eece985d8e374c,65d2b996341d070378ca4f0f,0.0749,0.0751,1,60,222,40,1,onetwo,,,,,,,,,,,,,,,,,,,,,,,,,,,,,,,,,,,,,,,,,,,,,,,,,,,,,,,,,,,,,,,,,,,,,,,,,,,,,,,,,,,,,,,,,,,,,,,,,,,,,,,,,,,,,,,,,,,,,,,,,,,,,,,,,,,,,,,,,
,,5f035cb3e9d86255405f1d46,2024-02-19_03h19.03.937,kallum_motion_pilot,2023.2.2,Win32,119.047619,5f035cb3e9d86255405f1d46,65d2b6c8f2eece985d8e374c,65d2b996341d070378ca4f0f,0.0752,0.0753,1,61,223,48,1,onetwo,,,,,,,,,,,,,,,,,,,,,,,,,,,,,,,,,,,,,,,,,,,,,,,,,,,,,,,,,,,,,,,,,,,,,,,,,,,,,,,,,,,,,,,,,,,,,,,,,,,,,,,,,,,,,,,,,,,,,,,,,,,,,,,,,,,,,,,,,
,,5f035cb3e9d86255405f1d46,2024-02-19_03h19.03.937,kallum_motion_pilot,2023.2.2,Win32,119.047619,5f035cb3e9d86255405f1d46,65d2b6c8f2eece985d8e374c,65d2b996341d070378ca4f0f,0.0755,0.0757,1,62,224,89,1,fiveseven,,,,,,,,,,,,,,,,,,,,,,,,,,,,,,,,,,,,,,,,,,,,,,,,,,,,,,,,,,,,,,,,,,,,,,,,,,,,,,,,,,,,,,,,,,,,,,,,,,,,,,,,,,,,,,,,,,,,,,,,,,,,,,,,,,,,,,,,,
,,5f035cb3e9d86255405f1d46,2024-02-19_03h19.03.937,kallum_motion_pilot,2023.2.2,Win32,119.047619,5f035cb3e9d86255405f1d46,65d2b6c8f2eece985d8e374c,65d2b996341d070378ca4f0f,0.0758,0.076,1,63,225,73,1,onethree,,,,,,,,,,,,,,,,,,,,,,,,,,,,,,,,,,,,,,,,,,,,,,,,,,,,,,,,,,,,,,,,,,,,,,,,,,,,,,,,,,,,,,,,,,,,,,,,,,,,,,,,,,,,,,,,,,,,,,,,,,,,,,,,,,,,,,,,,
,,5f035cb3e9d86255405f1d46,2024-02-19_03h19.03.937,kallum_motion_pilot,2023.2.2,Win32,119.047619,5f035cb3e9d86255405f1d46,65d2b6c8f2eece985d8e374c,65d2b996341d070378ca4f0f,0.0761,0.0762,1,64,226,55,1,fourthree,,,,,,,,,,,,,,,,,,,,,,,,,,,,,,,,,,,,,,,,,,,,,,,,,,,,,,,,,,,,,,,,,,,,,,,,,,,,,,,,,,,,,,,,,,,,,,,,,,,,,,,,,,,,,,,,,,,,,,,,,,,,,,,,,,,,,,,,,
,,5f035cb3e9d86255405f1d46,2024-02-19_03h19.03.937,kallum_motion_pilot,2023.2.2,Win32,119.047619,5f035cb3e9d86255405f1d46,65d2b6c8f2eece985d8e374c,65d2b996341d070378ca4f0f,0.0764,0.0766,1,65,227,53,1,threefour,,,,,,,,,,,,,,,,,,,,,,,,,,,,,,,,,,,,,,,,,,,,,,,,,,,,,,,,,,,,,,,,,,,,,,,,,,,,,,,,,,,,,,,,,,,,,,,,,,,,,,,,,,,,,,,,,,,,,,,,,,,,,,,,,,,,,,,,,
,,5f035cb3e9d86255405f1d46,2024-02-19_03h19.03.937,kallum_motion_pilot,2023.2.2,Win32,119.047619,5f035cb3e9d86255405f1d46,65d2b6c8f2eece985d8e374c,65d2b996341d070378ca4f0f,0.0767,0.0769,1,66,228,2,1,twoone,,,,,,,,,,,,,,,,,,,,,,,,,,,,,,,,,,,,,,,,,,,,,,,,,,,,,,,,,,,,,,,,,,,,,,,,,,,,,,,,,,,,,,,,,,,,,,,,,,,,,,,,,,,,,,,,,,,,,,,,,,,,,,,,,,,,,,,,,
,,5f035cb3e9d86255405f1d46,2024-02-19_03h19.03.937,kallum_motion_pilot,2023.2.2,Win32,119.047619,5f035cb3e9d86255405f1d46,65d2b6c8f2eece985d8e374c,65d2b996341d070378ca4f0f,0.077,0.0772,1,67,229,149,1,seveneight,,,,,,,,,,,,,,,,,,,,,,,,,,,,,,,,,,,,,,,,,,,,,,,,,,,,,,,,,,,,,,,,,,,,,,,,,,,,,,,,,,,,,,,,,,,,,,,,,,,,,,,,,,,,,,,,,,,,,,,,,,,,,,,,,,,,,,,,,
,,5f035cb3e9d86255405f1d46,2024-02-19_03h19.03.937,kallum_motion_pilot,2023.2.2,Win32,119.047619,5f035cb3e9d86255405f1d46,65d2b6c8f2eece985d8e374c,65d2b996341d070378ca4f0f,0.0773,0.0774,1,68,230,67,1,twofour,,,,,,,,,,,,,,,,,,,,,,,,,,,,,,,,,,,,,,,,,,,,,,,,,,,,,,,,,,,,,,,,,,,,,,,,,,,,,,,,,,,,,,,,,,,,,,,,,,,,,,,,,,,,,,,,,,,,,,,,,,,,,,,,,,,,,,,,,
,,5f035cb3e9d86255405f1d46,2024-02-19_03h19.03.937,kallum_motion_pilot,2023.2.2,Win32,119.047619,5f035cb3e9d86255405f1d46,65d2b6c8f2eece985d8e374c,65d2b996341d070378ca4f0f,0.0776,0.0777,1,69,231,86,1,eightsix,,,,,,,,,,,,,,,,,,,,,,,,,,,,,,,,,,,,,,,,,,,,,,,,,,,,,,,,,,,,,,,,,,,,,,,,,,,,,,,,,,,,,,,,,,,,,,,,,,,,,,,,,,,,,,,,,,,,,,,,,,,,,,,,,,,,,,,,,
,,5f035cb3e9d86255405f1d46,2024-02-19_03h19.03.937,kallum_motion_pilot,2023.2.2,Win32,119.047619,5f035cb3e9d86255405f1d46,65d2b6c8f2eece985d8e374c,65d2b996341d070378ca4f0f,0.0779,0.078,1,70,232,79,1,eightseven,,,,,,,,,,,,,,,,,,,,,,,,,,,,,,,,,,,,,,,,,,,,,,,,,,,,,,,,,,,,,,,,,,,,,,,,,,,,,,,,,,,,,,,,,,,,,,,,,,,,,,,,,,,,,,,,,,,,,,,,,,,,,,,,,,,,,,,,,
,,5f035cb3e9d86255405f1d46,2024-02-19_03h19.03.937,kallum_motion_pilot,2023.2.2,Win32,119.047619,5f035cb3e9d86255405f1d46,65d2b6c8f2eece985d8e374c,65d2b996341d070378ca4f0f,0.0782,0.0783,1,71,233,118,1,eightsix,,,,,,,,,,,,,,,,,,,,,,,,,,,,,,,,,,,,,,,,,,,,,,,,,,,,,,,,,,,,,,,,,,,,,,,,,,,,,,,,,,,,,,,,,,,,,,,,,,,,,,,,,,,,,,,,,,,,,,,,,,,,,,,,,,,,,,,,,
,,5f035cb3e9d86255405f1d46,2024-02-19_03h19.03.937,kallum_motion_pilot,2023.2.2,Win32,119.047619,5f035cb3e9d86255405f1d46,65d2b6c8f2eece985d8e374c,65d2b996341d070378ca4f0f,0.0786,0.0787,1,72,234,46,1,fourtwo,,,,,,,,,,,,,,,,,,,,,,,,,,,,,,,,,,,,,,,,,,,,,,,,,,,,,,,,,,,,,,,,,,,,,,,,,,,,,,,,,,,,,,,,,,,,,,,,,,,,,,,,,,,,,,,,,,,,,,,,,,,,,,,,,,,,,,,,,
,,5f035cb3e9d86255405f1d46,2024-02-19_03h19.03.937,kallum_motion_pilot,2023.2.2,Win32,119.047619,5f035cb3e9d86255405f1d46,65d2b6c8f2eece985d8e374c,65d2b996341d070378ca4f0f,0.0788,0.079,1,73,235,123,1,sixeight,,,,,,,,,,,,,,,,,,,,,,,,,,,,,,,,,,,,,,,,,,,,,,,,,,,,,,,,,,,,,,,,,,,,,,,,,,,,,,,,,,,,,,,,,,,,,,,,,,,,,,,,,,,,,,,,,,,,,,,,,,,,,,,,,,,,,,,,,
,,5f035cb3e9d86255405f1d46,2024-02-19_03h19.03.937,kallum_motion_pilot,2023.2.2,Win32,119.047619,5f035cb3e9d86255405f1d46,65d2b6c8f2eece985d8e374c,65d2b996341d070378ca4f0f,0.0791,0.0792,1,74,236,5,1,threefour,,,,,,,,,,,,,,,,,,,,,,,,,,,,,,,,,,,,,,,,,,,,,,,,,,,,,,,,,,,,,,,,,,,,,,,,,,,,,,,,,,,,,,,,,,,,,,,,,,,,,,,,,,,,,,,,,,,,,,,,,,,,,,,,,,,,,,,,,
,,5f035cb3e9d86255405f1d46,2024-02-19_03h19.03.937,kallum_motion_pilot,2023.2.2,Win32,119.047619,5f035cb3e9d86255405f1d46,65d2b6c8f2eece985d8e374c,65d2b996341d070378ca4f0f,0.0794,0.0796,1,75,237,154,1,sixfive,,,,,,,,,,,,,,,,,,,,,,,,,,,,,,,,,,,,,,,,,,,,,,,,,,,,,,,,,,,,,,,,,,,,,,,,,,,,,,,,,,,,,,,,,,,,,,,,,,,,,,,,,,,,,,,,,,,,,,,,,,,,,,,,,,,,,,,,,
,,5f035cb3e9d86255405f1d46,2024-02-19_03h19.03.937,kallum_motion_pilot,2023.2.2,Win32,119.047619,5f035cb3e9d86255405f1d46,65d2b6c8f2eece985d8e374c,65d2b996341d070378ca4f0f,0.0797,0.0799,1,76,238,70,1,fourtwo,,,,,,,,,,,,,,,,,,,,,,,,,,,,,,,,,,,,,,,,,,,,,,,,,,,,,,,,,,,,,,,,,,,,,,,,,,,,,,,,,,,,,,,,,,,,,,,,,,,,,,,,,,,,,,,,,,,,,,,,,,,,,,,,,,,,,,,,,
,,5f035cb3e9d86255405f1d46,2024-02-19_03h19.03.937,kallum_motion_pilot,2023.2.2,Win32,119.047619,5f035cb3e9d86255405f1d46,65d2b6c8f2eece985d8e374c,65d2b996341d070378ca4f0f,0.0801,0.0801,1,77,239,87,1,eightseven,,,,,,,,,,,,,,,,,,,,,,,,,,,,,,,,,,,,,,,,,,,,,,,,,,,,,,,,,,,,,,,,,,,,,,,,,,,,,,,,,,,,,,,,,,,,,,,,,,,,,,,,,,,,,,,,,,,,,,,,,,,,,,,,,,,,,,,,,
,,5f035cb3e9d86255405f1d46,2024-02-19_03h19.03.937,kallum_motion_pilot,2023.2.2,Win32,119.047619,5f035cb3e9d86255405f1d46,65d2b6c8f2eece985d8e374c,65d2b996341d070378ca4f0f,0.0803,0.0805,1,78,240,150,1,eightsix,,,,,,,,,,,,,,,,,,,,,,,,,,,,,,,,,,,,,,,,,,,,,,,,,,,,,,,,,,,,,,,,,,,,,,,,,,,,,,,,,,,,,,,,,,,,,,,,,,,,,,,,,,,,,,,,,,,,,,,,,,,,,,,,,,,,,,,,,
,,5f035cb3e9d86255405f1d46,2024-02-19_03h19.03.937,kallum_motion_pilot,2023.2.2,Win32,119.047619,5f035cb3e9d86255405f1d46,65d2b6c8f2eece985d8e374c,65d2b996341d070378ca4f0f,0.0806,0.0808,1,79,241,105,1,fiveseven,,,,,,,,,,,,,,,,,,,,,,,,,,,,,,,,,,,,,,,,,,,,,,,,,,,,,,,,,,,,,,,,,,,,,,,,,,,,,,,,,,,,,,,,,,,,,,,,,,,,,,,,,,,,,,,,,,,,,,,,,,,,,,,,,,,,,,,,,
,,5f035cb3e9d86255405f1d46,2024-02-19_03h19.03.937,kallum_motion_pilot,2023.2.2,Win32,119.047619,5f035cb3e9d86255405f1d46,65d2b6c8f2eece985d8e374c,65d2b996341d070378ca4f0f,0.0809,0.0811,1,80,242,116,1,sevenfive,,,,,,,,,,,,,,,,,,,,,,,,,,,,,,,,,,,,,,,,,,,,,,,,,,,,,,,,,,,,,,,,,,,,,,,,,,,,,,,,,,,,,,,,,,,,,,,,,,,,,,,,,,,,,,,,,,,,,,,,,,,,,,,,,,,,,,,,,
,,5f035cb3e9d86255405f1d46,2024-02-19_03h19.03.937,kallum_motion_pilot,2023.2.2,Win32,119.047619,5f035cb3e9d86255405f1d46,65d2b6c8f2eece985d8e374c,65d2b996341d070378ca4f0f,0.0813,0.0814,1,81,243,72,1,onetwo,,,,,,,,,,,,,,,,,,,,,,,,,,,,,,,,,,,,,,,,,,,,,,,,,,,,,,,,,,,,,,,,,,,,,,,,,,,,,,,,,,,,,,,,,,,,,,,,,,,,,,,,,,,,,,,,,,,,,,,,,,,,,,,,,,,,,,,,,
,,5f035cb3e9d86255405f1d46,2024-02-19_03h19.03.937,kallum_motion_pilot,2023.2.2,Win32,119.047619,5f035cb3e9d86255405f1d46,65d2b6c8f2eece985d8e374c,65d2b996341d070378ca4f0f,0.0816,0.0818,1,82,244,75,1,twofour,,,,,,,,,,,,,,,,,,,,,,,,,,,,,,,,,,,,,,,,,,,,,,,,,,,,,,,,,,,,,,,,,,,,,,,,,,,,,,,,,,,,,,,,,,,,,,,,,,,,,,,,,,,,,,,,,,,,,,,,,,,,,,,,,,,,,,,,,
,,5f035cb3e9d86255405f1d46,2024-02-19_03h19.03.937,kallum_motion_pilot,2023.2.2,Win32,119.047619,5f035cb3e9d86255405f1d46,65d2b6c8f2eece985d8e374c,65d2b996341d070378ca4f0f,0.0818,0.082,1,83,245,31,1,fourthree,,,,,,,,,,,,,,,,,,,,,,,,,,,,,,,,,,,,,,,,,,,,,,,,,,,,,,,,,,,,,,,,,,,,,,,,,,,,,,,,,,,,,,,,,,,,,,,,,,,,,,,,,,,,,,,,,,,,,,,,,,,,,,,,,,,,,,,,,
,,5f035cb3e9d86255405f1d46,2024-02-19_03h19.03.937,kallum_motion_pilot,2023.2.2,Win32,119.047619,5f035cb3e9d86255405f1d46,65d2b6c8f2eece985d8e374c,65d2b996341d070378ca4f0f,0.0821,0.0824,1,84,246,17,1,onethree,,,,,,,,,,,,,,,,,,,,,,,,,,,,,,,,,,,,,,,,,,,,,,,,,,,,,,,,,,,,,,,,,,,,,,,,,,,,,,,,,,,,,,,,,,,,,,,,,,,,,,,,,,,,,,,,,,,,,,,,,,,,,,,,,,,,,,,,,
,,5f035cb3e9d86255405f1d46,2024-02-19_03h19.03.937,kallum_motion_pilot,2023.2.2,Win32,119.047619,5f035cb3e9d86255405f1d46,65d2b6c8f2eece985d8e374c,65d2b996341d070378ca4f0f,0.0825,0.0827,1,85,247,99,1,sixeight,,,,,,,,,,,,,,,,,,,,,,,,,,,,,,,,,,,,,,,,,,,,,,,,,,,,,,,,,,,,,,,,,,,,,,,,,,,,,,,,,,,,,,,,,,,,,,,,,,,,,,,,,,,,,,,,,,,,,,,,,,,,,,,,,,,,,,,,,
,,5f035cb3e9d86255405f1d46,2024-02-19_03h19.03.937,kallum_motion_pilot,2023.2.2,Win32,119.047619,5f035cb3e9d86255405f1d46,65d2b6c8f2eece985d8e374c,65d2b996341d070378ca4f0f,0.0828,0.0829,1,86,248,84,1,sevenfive,,,,,,,,,,,,,,,,,,,,,,,,,,,,,,,,,,,,,,,,,,,,,,,,,,,,,,,,,,,,,,,,,,,,,,,,,,,,,,,,,,,,,,,,,,,,,,,,,,,,,,,,,,,,,,,,,,,,,,,,,,,,,,,,,,,,,,,,,
,,5f035cb3e9d86255405f1d46,2024-02-19_03h19.03.937,kallum_motion_pilot,2023.2.2,Win32,119.047619,5f035cb3e9d86255405f1d46,65d2b6c8f2eece985d8e374c,65d2b996341d070378ca4f0f,0.0832,0.0833,1,87,249,56,1,onetwo,,,,,,,,,,,,,,,,,,,,,,,,,,,,,,,,,,,,,,,,,,,,,,,,,,,,,,,,,,,,,,,,,,,,,,,,,,,,,,,,,,,,,,,,,,,,,,,,,,,,,,,,,,,,,,,,,,,,,,,,,,,,,,,,,,,,,,,,,
,,5f035cb3e9d86255405f1d46,2024-02-19_03h19.03.937,kallum_motion_pilot,2023.2.2,Win32,119.047619,5f035cb3e9d86255405f1d46,65d2b6c8f2eece985d8e374c,65d2b996341d070378ca4f0f,0.0835,0.0836,1,88,250,109,1,seveneight,,,,,,,,,,,,,,,,,,,,,,,,,,,,,,,,,,,,,,,,,,,,,,,,,,,,,,,,,,,,,,,,,,,,,,,,,,,,,,,,,,,,,,,,,,,,,,,,,,,,,,,,,,,,,,,,,,,,,,,,,,,,,,,,,,,,,,,,,
,,5f035cb3e9d86255405f1d46,2024-02-19_03h19.03.937,kallum_motion_pilot,2023.2.2,Win32,119.047619,5f035cb3e9d86255405f1d46,65d2b6c8f2eece985d8e374c,65d2b996341d070378ca4f0f,0.0837,0.0838,1,89,251,111,1,eightseven,,,,,,,,,,,,,,,,,,,,,,,,,,,,,,,,,,,,,,,,,,,,,,,,,,,,,,,,,,,,,,,,,,,,,,,,,,,,,,,,,,,,,,,,,,,,,,,,,,,,,,,,,,,,,,,,,,,,,,,,,,,,,,,,,,,,,,,,,
,,5f035cb3e9d86255405f1d46,2024-02-19_03h19.03.937,kallum_motion_pilot,2023.2.2,Win32,119.047619,5f035cb3e9d86255405f1d46,65d2b6c8f2eece985d8e374c,65d2b996341d070378ca4f0f,0.0839,0.0841,1,90,252,61,1,threefour,,,,,,,,,,,,,,,,,,,,,,,,,,,,,,,,,,,,,,,,,,,,,,,,,,,,,,,,,,,,,,,,,,,,,,,,,,,,,,,,,,,,,,,,,,,,,,,,,,,,,,,,,,,,,,,,,,,,,,,,,,,,,,,,,,,,,,,,,
,,5f035cb3e9d86255405f1d46,2024-02-19_03h19.03.937,kallum_motion_pilot,2023.2.2,Win32,119.047619,5f035cb3e9d86255405f1d46,65d2b6c8f2eece985d8e374c,65d2b996341d070378ca4f0f,0.0842,0.0843,1,91,253,3,1,twofour,,,,,,,,,,,,,,,,,,,,,,,,,,,,,,,,,,,,,,,,,,,,,,,,,,,,,,,,,,,,,,,,,,,,,,,,,,,,,,,,,,,,,,,,,,,,,,,,,,,,,,,,,,,,,,,,,,,,,,,,,,,,,,,,,,,,,,,,,
,,5f035cb3e9d86255405f1d46,2024-02-19_03h19.03.937,kallum_motion_pilot,2023.2.2,Win32,119.047619,5f035cb3e9d86255405f1d46,65d2b6c8f2eece985d8e374c,65d2b996341d070378ca4f0f,0.0844,0.0844,1,92,254,147,1,sixeight,,,,,,,,,,,,,,,,,,,,,,,,,,,,,,,,,,,,,,,,,,,,,,,,,,,,,,,,,,,,,,,,,,,,,,,,,,,,,,,,,,,,,,,,,,,,,,,,,,,,,,,,,,,,,,,,,,,,,,,,,,,,,,,,,,,,,,,,,
,,5f035cb3e9d86255405f1d46,2024-02-19_03h19.03.937,kallum_motion_pilot,2023.2.2,Win32,119.047619,5f035cb3e9d86255405f1d46,65d2b6c8f2eece985d8e374c,65d2b996341d070378ca4f0f,0.0847,0.0849,1,93,255,63,1,fourthree,,,,,,,,,,,,,,,,,,,,,,,,,,,,,,,,,,,,,,,,,,,,,,,,,,,,,,,,,,,,,,,,,,,,,,,,,,,,,,,,,,,,,,,,,,,,,,,,,,,,,,,,,,,,,,,,,,,,,,,,,,,,,,,,,,,,,,,,,
,,5f035cb3e9d86255405f1d46,2024-02-19_03h19.03.937,kallum_motion_pilot,2023.2.2,Win32,119.047619,5f035cb3e9d86255405f1d46,65d2b6c8f2eece985d8e374c,65d2b996341d070378ca4f0f,0.085,0.0851,1,94,256,82,1,sixfive,,,,,,,,,,,,,,,,,,,,,,,,,,,,,,,,,,,,,,,,,,,,,,,,,,,,,,,,,,,,,,,,,,,,,,,,,,,,,,,,,,,,,,,,,,,,,,,,,,,,,,,,,,,,,,,,,,,,,,,,,,,,,,,,,,,,,,,,,
,,5f035cb3e9d86255405f1d46,2024-02-19_03h19.03.937,kallum_motion_pilot,2023.2.2,Win32,119.047619,5f035cb3e9d86255405f1d46,65d2b6c8f2eece985d8e374c,65d2b996341d070378ca4f0f,0.0852,0.0853,1,95,257,41,1,onethree,,,,,,,,,,,,,,,,,,,,,,,,,,,,,,,,,,,,,,,,,,,,,,,,,,,,,,,,,,,,,,,,,,,,,,,,,,,,,,,,,,,,,,,,,,,,,,,,,,,,,,,,,,,,,,,,,,,,,,,,,,,,,,,,,,,,,,,,,
,,5f035cb3e9d86255405f1d46,2024-02-19_03h19.03.937,kallum_motion_pilot,2023.2.2,Win32,119.047619,5f035cb3e9d86255405f1d46,65d2b6c8f2eece985d8e374c,65d2b996341d070378ca4f0f,0.0854,0.0855,1,96,258,119,1,eightseven,,,,,,,,,,,,,,,,,,,,,,,,,,,,,,,,,,,,,,,,,,,,,,,,,,,,,,,,,,,,,,,,,,,,,,,,,,,,,,,,,,,,,,,,,,,,,,,,,,,,,,,,,,,,,,,,,,,,,,,,,,,,,,,,,,,,,,,,,
,,5f035cb3e9d86255405f1d46,2024-02-19_03h19.03.937,kallum_motion_pilot,2023.2.2,Win32,119.047619,5f035cb3e9d86255405f1d46,65d2b6c8f2eece985d8e374c,65d2b996341d070378ca4f0f,0.0857,0.0858,1,97,259,93,1,seveneight,,,,,,,,,,,,,,,,,,,,,,,,,,,,,,,,,,,,,,,,,,,,,,,,,,,,,,,,,,,,,,,,,,,,,,,,,,,,,,,,,,,,,,,,,,,,,,,,,,,,,,,,,,,,,,,,,,,,,,,,,,,,,,,,,,,,,,,,,
,,5f035cb3e9d86255405f1d46,2024-02-19_03h19.03.937,kallum_motion_pilot,2023.2.2,Win32,119.047619,5f035cb3e9d86255405f1d46,65d2b6c8f2eece985d8e374c,65d2b996341d070378ca4f0f,0.086,0.0862,1,98,260,33,1,onethree,,,,,,,,,,,,,,,,,,,,,,,,,,,,,,,,,,,,,,,,,,,,,,,,,,,,,,,,,,,,,,,,,,,,,,,,,,,,,,,,,,,,,,,,,,,,,,,,,,,,,,,,,,,,,,,,,,,,,,,,,,,,,,,,,,,,,,,,,
,,5f035cb3e9d86255405f1d46,2024-02-19_03h19.03.937,kallum_motion_pilot,2023.2.2,Win32,119.047619,5f035cb3e9d86255405f1d46,65d2b6c8f2eece985d8e374c,65d2b996341d070378ca4f0f,0.0863,0.0865,1,99,261,120,1,fivesix,,,,,,,,,,,,,,,,,,,,,,,,,,,,,,,,,,,,,,,,,,,,,,,,,,,,,,,,,,,,,,,,,,,,,,,,,,,,,,,,,,,,,,,,,,,,,,,,,,,,,,,,,,,,,,,,,,,,,,,,,,,,,,,,,,,,,,,,,
,,5f035cb3e9d86255405f1d46,2024-02-19_03h19.03.937,kallum_motion_pilot,2023.2.2,Win32,119.047619,5f035cb3e9d86255405f1d46,65d2b6c8f2eece985d8e374c,65d2b996341d070378ca4f0f,0.0866,0.0868,1,100,262,81,1,fiveseven,,,,,,,,,,,,,,,,,,,,,,,,,,,,,,,,,,,,,,,,,,,,,,,,,,,,,,,,,,,,,,,,,,,,,,,,,,,,,,,,,,,,,,,,,,,,,,,,,,,,,,,,,,,,,,,,,,,,,,,,,,,,,,,,,,,,,,,,,
,,5f035cb3e9d86255405f1d46,2024-02-19_03h19.03.937,kallum_motion_pilot,2023.2.2,Win32,119.047619,5f035cb3e9d86255405f1d46,65d2b6c8f2eece985d8e374c,65d2b996341d070378ca4f0f,0.0869,0.0872,1,101,263,129,1,fiveseven,,,,,,,,,,,,,,,,,,,,,,,,,,,,,,,,,,,,,,,,,,,,,,,,,,,,,,,,,,,,,,,,,,,,,,,,,,,,,,,,,,,,,,,,,,,,,,,,,,,,,,,,,,,,,,,,,,,,,,,,,,,,,,,,,,,,,,,,,
,,5f035cb3e9d86255405f1d46,2024-02-19_03h19.03.937,kallum_motion_pilot,2023.2.2,Win32,119.047619,5f035cb3e9d86255405f1d46,65d2b6c8f2eece985d8e374c,65d2b996341d070378ca4f0f,0.0874,0.0876,1,102,264,71,1,fourthree,,,,,,,,,,,,,,,,,,,,,,,,,,,,,,,,,,,,,,,,,,,,,,,,,,,,,,,,,,,,,,,,,,,,,,,,,,,,,,,,,,,,,,,,,,,,,,,,,,,,,,,,,,,,,,,,,,,,,,,,,,,,,,,,,,,,,,,,,
,,5f035cb3e9d86255405f1d46,2024-02-19_03h19.03.937,kallum_motion_pilot,2023.2.2,Win32,119.047619,5f035cb3e9d86255405f1d46,65d2b6c8f2eece985d8e374c,65d2b996341d070378ca4f0f,0.0878,0.088,1,103,265,132,1,sevenfive,,,,,,,,,,,,,,,,,,,,,,,,,,,,,,,,,,,,,,,,,,,,,,,,,,,,,,,,,,,,,,,,,,,,,,,,,,,,,,,,,,,,,,,,,,,,,,,,,,,,,,,,,,,,,,,,,,,,,,,,,,,,,,,,,,,,,,,,,
,,5f035cb3e9d86255405f1d46,2024-02-19_03h19.03.937,kallum_motion_pilot,2023.2.2,Win32,119.047619,5f035cb3e9d86255405f1d46,65d2b6c8f2eece985d8e374c,65d2b996341d070378ca4f0f,0.0882,0.0883,1,104,266,98,1,sixfive,,,,,,,,,,,,,,,,,,,,,,,,,,,,,,,,,,,,,,,,,,,,,,,,,,,,,,,,,,,,,,,,,,,,,,,,,,,,,,,,,,,,,,,,,,,,,,,,,,,,,,,,,,,,,,,,,,,,,,,,,,,,,,,,,,,,,,,,,
,,5f035cb3e9d86255405f1d46,2024-02-19_03h19.03.937,kallum_motion_pilot,2023.2.2,Win32,119.047619,5f035cb3e9d86255405f1d46,65d2b6c8f2eece985d8e374c,65d2b996341d070378ca4f0f,0.0885,0.0888,1,105,267,8,1,onetwo,,,,,,,,,,,,,,,,,,,,,,,,,,,,,,,,,,,,,,,,,,,,,,,,,,,,,,,,,,,,,,,,,,,,,,,,,,,,,,,,,,,,,,,,,,,,,,,,,,,,,,,,,,,,,,,,,,,,,,,,,,,,,,,,,,,,,,,,,
,,5f035cb3e9d86255405f1d46,2024-02-19_03h19.03.937,kallum_motion_pilot,2023.2.2,Win32,119.047619,5f035cb3e9d86255405f1d46,65d2b6c8f2eece985d8e374c,65d2b996341d070378ca4f0f,0.0891,0.0894,1,106,268,152,1,fivesix,,,,,,,,,,,,,,,,,,,,,,,,,,,,,,,,,,,,,,,,,,,,,,,,,,,,,,,,,,,,,,,,,,,,,,,,,,,,,,,,,,,,,,,,,,,,,,,,,,,,,,,,,,,,,,,,,,,,,,,,,,,,,,,,,,,,,,,,,
,,5f035cb3e9d86255405f1d46,2024-02-19_03h19.03.937,kallum_motion_pilot,2023.2.2,Win32,119.047619,5f035cb3e9d86255405f1d46,65d2b6c8f2eece985d8e374c,65d2b996341d070378ca4f0f,0.0895,0.0898,1,107,269,13,1,threefour,,,,,,,,,,,,,,,,,,,,,,,,,,,,,,,,,,,,,,,,,,,,,,,,,,,,,,,,,,,,,,,,,,,,,,,,,,,,,,,,,,,,,,,,,,,,,,,,,,,,,,,,,,,,,,,,,,,,,,,,,,,,,,,,,,,,,,,,,
,,5f035cb3e9d86255405f1d46,2024-02-19_03h19.03.937,kallum_motion_pilot,2023.2.2,Win32,119.047619,5f035cb3e9d86255405f1d46,65d2b6c8f2eece985d8e374c,65d2b996341d070378ca4f0f,0.0899,0.0902,1,108,270,30,1,fourtwo,,,,,,,,,,,,,,,,,,,,,,,,,,,,,,,,,,,,,,,,,,,,,,,,,,,,,,,,,,,,,,,,,,,,,,,,,,,,,,,,,,,,,,,,,,,,,,,,,,,,,,,,,,,,,,,,,,,,,,,,,,,,,,,,,,,,,,,,,
,,5f035cb3e9d86255405f1d46,2024-02-19_03h19.03.937,kallum_motion_pilot,2023.2.2,Win32,119.047619,5f035cb3e9d86255405f1d46,65d2b6c8f2eece985d8e374c,65d2b996341d070378ca4f0f,0.0903,0.0904,1,109,271,101,1,seveneight,,,,,,,,,,,,,,,,,,,,,,,,,,,,,,,,,,,,,,,,,,,,,,,,,,,,,,,,,,,,,,,,,,,,,,,,,,,,,,,,,,,,,,,,,,,,,,,,,,,,,,,,,,,,,,,,,,,,,,,,,,,,,,,,,,,,,,,,,
,,5f035cb3e9d86255405f1d46,2024-02-19_03h19.03.937,kallum_motion_pilot,2023.2.2,Win32,119.047619,5f035cb3e9d86255405f1d46,65d2b6c8f2eece985d8e374c,65d2b996341d070378ca4f0f,0.0906,0.0907,1,110,272,95,1,eightseven,,,,,,,,,,,,,,,,,,,,,,,,,,,,,,,,,,,,,,,,,,,,,,,,,,,,,,,,,,,,,,,,,,,,,,,,,,,,,,,,,,,,,,,,,,,,,,,,,,,,,,,,,,,,,,,,,,,,,,,,,,,,,,,,,,,,,,,,,
,,5f035cb3e9d86255405f1d46,2024-02-19_03h19.03.937,kallum_motion_pilot,2023.2.2,Win32,119.047619,5f035cb3e9d86255405f1d46,65d2b6c8f2eece985d8e374c,65d2b996341d070378ca4f0f,0.0908,0.0911,1,111,273,140,1,sevenfive,,,,,,,,,,,,,,,,,,,,,,,,,,,,,,,,,,,,,,,,,,,,,,,,,,,,,,,,,,,,,,,,,,,,,,,,,,,,,,,,,,,,,,,,,,,,,,,,,,,,,,,,,,,,,,,,,,,,,,,,,,,,,,,,,,,,,,,,,
,,5f035cb3e9d86255405f1d46,2024-02-19_03h19.03.937,kallum_motion_pilot,2023.2.2,Win32,119.047619,5f035cb3e9d86255405f1d46,65d2b6c8f2eece985d8e374c,65d2b996341d070378ca4f0f,0.0912,0.0914,1,112,274,148,1,sevenfive,,,,,,,,,,,,,,,,,,,,,,,,,,,,,,,,,,,,,,,,,,,,,,,,,,,,,,,,,,,,,,,,,,,,,,,,,,,,,,,,,,,,,,,,,,,,,,,,,,,,,,,,,,,,,,,,,,,,,,,,,,,,,,,,,,,,,,,,,
,,5f035cb3e9d86255405f1d46,2024-02-19_03h19.03.937,kallum_motion_pilot,2023.2.2,Win32,119.047619,5f035cb3e9d86255405f1d46,65d2b6c8f2eece985d8e374c,65d2b996341d070378ca4f0f,0.0916,0.0918,1,113,275,11,1,twofour,,,,,,,,,,,,,,,,,,,,,,,,,,,,,,,,,,,,,,,,,,,,,,,,,,,,,,,,,,,,,,,,,,,,,,,,,,,,,,,,,,,,,,,,,,,,,,,,,,,,,,,,,,,,,,,,,,,,,,,,,,,,,,,,,,,,,,,,,
,,5f035cb3e9d86255405f1d46,2024-02-19_03h19.03.937,kallum_motion_pilot,2023.2.2,Win32,119.047619,5f035cb3e9d86255405f1d46,65d2b6c8f2eece985d8e374c,65d2b996341d070378ca4f0f,0.0919,0.0922,1,114,276,83,1,sixeight,,,,,,,,,,,,,,,,,,,,,,,,,,,,,,,,,,,,,,,,,,,,,,,,,,,,,,,,,,,,,,,,,,,,,,,,,,,,,,,,,,,,,,,,,,,,,,,,,,,,,,,,,,,,,,,,,,,,,,,,,,,,,,,,,,,,,,,,,
,,5f035cb3e9d86255405f1d46,2024-02-19_03h19.03.937,kallum_motion_pilot,2023.2.2,Win32,119.047619,5f035cb3e9d86255405f1d46,65d2b6c8f2eece985d8e374c,65d2b996341d070378ca4f0f,0.0923,0.0925,1,115,277,104,1,fivesix,,,,,,,,,,,,,,,,,,,,,,,,,,,,,,,,,,,,,,,,,,,,,,,,,,,,,,,,,,,,,,,,,,,,,,,,,,,,,,,,,,,,,,,,,,,,,,,,,,,,,,,,,,,,,,,,,,,,,,,,,,,,,,,,,,,,,,,,,
,,5f035cb3e9d86255405f1d46,2024-02-19_03h19.03.937,kallum_motion_pilot,2023.2.2,Win32,119.047619,5f035cb3e9d86255405f1d46,65d2b6c8f2eece985d8e374c,65d2b996341d070378ca4f0f,0.0927,0.0929,1,116,278,144,1,fivesix,,,,,,,,,,,,,,,,,,,,,,,,,,,,,,,,,,,,,,,,,,,,,,,,,,,,,,,,,,,,,,,,,,,,,,,,,,,,,,,,,,,,,,,,,,,,,,,,,,,,,,,,,,,,,,,,,,,,,,,,,,,,,,,,,,,,,,,,,
