startup.started,startup.stopped,Prolific ID*,date,expName,psychopyVersion,OS,frameRate,participant,study_id,session,stimpositions.started,stimpositions.stopped,hardcoded_stimulus_positions.thisRepN,hardcoded_stimulus_positions.thisTrialN,hardcoded_stimulus_positions.thisN,hardcoded_stimulus_positions.thisIndex,hardcoded_stimulus_positions.ran,StimulusPos,stimorientation.started,stimorientation.stopped,prac_stimorientation_import_loop.thisRepN,prac_stimorientation_import_loop.thisTrialN,prac_stimorientation_import_loop.thisN,prac_stimorientation_import_loop.thisIndex,prac_stimorientation_import_loop.ran,Stimorientation,welcome_instr.started,welcome_instr.stopped,key_resp.keys,key_resp.rt,key_resp.duration,response_steppedout_1.started,response_steppedout_1.stopped,key_resp_20.keys,key_resp_20.rt,key_resp_20.duration,response_steppedout_2.started,response_steppedout_2.stopped,key_resp_19.keys,key_resp_19.rt,key_resp_19.duration,stim_response_instr.started,stim_response_instr.stopped,key_resp_15.keys,key_resp_15.rt,key_resp_15.duration,direction_instr_2.started,direction_instr_2.stopped,key_resp_9.keys,key_resp_9.rt,key_resp_9.duration,instr_prac.started,instr_prac.stopped,key_resp_10.keys,key_resp_10.rt,key_resp_10.duration,Stim1_display_prac.started,Stim1_display_prac.stopped,Ecc,Circle1_ori,Circle2_ori,response_prac.started,similarity,response_time,response_prac.stopped,mouse_5.x,mouse_5.y,mouse_5.leftButton,mouse_5.midButton,mouse_5.rightButton,mouse_5.clicked_name,responseprac_feedback.started,responseprac_feedback.stopped,summary2_prac.started,summary2_prac.stopped,mouse_6.x,mouse_6.y,mouse_6.leftButton,mouse_6.midButton,mouse_6.rightButton,mouse_6.clicked_name,duringprac.thisRepN,duringprac.thisTrialN,duringprac.thisN,duringprac.thisIndex,duringprac.ran,begin.started,begin.stopped,key_resp_22.keys,key_resp_22.rt,key_resp_22.duration,Stim1_display.started,Stim1_display.stopped,circle1_ori,circle2_ori,circle1_SF,circle2_SF,response.started,response.stopped,mouse.x,mouse.y,mouse.leftButton,mouse.midButton,mouse.rightButton,mouse.clicked_name,trialnumber,double_pass.thisRepN,double_pass.thisTrialN,double_pass.thisN,double_pass.thisIndex,double_pass.ran,double_pass.order,main_trial.thisRepN,main_trial.thisTrialN,main_trial.thisN,main_trial.thisIndex,main_trial.ran,main_trial.order,Trial_Counter,Catch,Frequencies,response_2.started,response_2.stopped,mouse_2.x,mouse_2.y,mouse_2.leftButton,mouse_2.midButton,mouse_2.rightButton,mouse_2.clicked_name,special_trial.started,special_trial.stopped,catch_1.started,catch_1.stopped,mouse_3.x,mouse_3.y,mouse_3.leftButton,mouse_3.midButton,mouse_3.rightButton,catchresponse,catchnumber,response_time_catch,response_sum.started,response_sum.stopped,mouse_11.x,mouse_11.y,mouse_11.leftButton,mouse_11.midButton,mouse_11.rightButton,flip_presentation_sequence_for_double_pass.started,flip_presentation_sequence_for_double_pass.stopped,goodbye.started,goodbye.stopped,key_resp_3.keys,key_resp_3.rt,key_resp_3.duration
0.0003,0.0003,5f06e85cf4e25a023d92fcc3,2024-02-18_23h11.27.050,kallum_motion_pilot,2023.2.2,Win32,144.9275362,5f06e85cf4e25a023d92fcc3,65d2b6c8f2eece985d8e374c,65d2b8bb664d1d730608df92,,,,,,,,,,,,,,,,,,,,,,,,,,,,,,,,,,,,,,,,,,,,,,,,,,,,,,,,,,,,,,,,,,,,,,,,,,,,,,,,,,,,,,,,,,,,,,,,,,,,,,,,,,,,,,,,,,,,,,,,,,,,,,,,,,,,,,,,,,,,,,,,,
,,5f06e85cf4e25a023d92fcc3,2024-02-18_23h11.27.050,kallum_motion_pilot,2023.2.2,Win32,144.9275362,5f06e85cf4e25a023d92fcc3,65d2b6c8f2eece985d8e374c,65d2b8bb664d1d730608df92,0.0179,0.018,0,0,0,115,1,sixeight,,,,,,,,,,,,,,,,,,,,,,,,,,,,,,,,,,,,,,,,,,,,,,,,,,,,,,,,,,,,,,,,,,,,,,,,,,,,,,,,,,,,,,,,,,,,,,,,,,,,,,,,,,,,,,,,,,,,,,,,,,,,,,,,,,,,,,,,,
,,5f06e85cf4e25a023d92fcc3,2024-02-18_23h11.27.050,kallum_motion_pilot,2023.2.2,Win32,144.9275362,5f06e85cf4e25a023d92fcc3,65d2b6c8f2eece985d8e374c,65d2b8bb664d1d730608df92,0.0182,0.0182,0,1,1,94,1,eightsix,,,,,,,,,,,,,,,,,,,,,,,,,,,,,,,,,,,,,,,,,,,,,,,,,,,,,,,,,,,,,,,,,,,,,,,,,,,,,,,,,,,,,,,,,,,,,,,,,,,,,,,,,,,,,,,,,,,,,,,,,,,,,,,,,,,,,,,,,
,,5f06e85cf4e25a023d92fcc3,2024-02-18_23h11.27.050,kallum_motion_pilot,2023.2.2,Win32,144.9275362,5f06e85cf4e25a023d92fcc3,65d2b6c8f2eece985d8e374c,65d2b8bb664d1d730608df92,0.0182,0.0182,0,2,2,122,1,sixfive,,,,,,,,,,,,,,,,,,,,,,,,,,,,,,,,,,,,,,,,,,,,,,,,,,,,,,,,,,,,,,,,,,,,,,,,,,,,,,,,,,,,,,,,,,,,,,,,,,,,,,,,,,,,,,,,,,,,,,,,,,,,,,,,,,,,,,,,,
,,5f06e85cf4e25a023d92fcc3,2024-02-18_23h11.27.050,kallum_motion_pilot,2023.2.2,Win32,144.9275362,5f06e85cf4e25a023d92fcc3,65d2b6c8f2eece985d8e374c,65d2b8bb664d1d730608df92,0.0183,0.0183,0,3,3,60,1,threeone,,,,,,,,,,,,,,,,,,,,,,,,,,,,,,,,,,,,,,,,,,,,,,,,,,,,,,,,,,,,,,,,,,,,,,,,,,,,,,,,,,,,,,,,,,,,,,,,,,,,,,,,,,,,,,,,,,,,,,,,,,,,,,,,,,,,,,,,,
,,5f06e85cf4e25a023d92fcc3,2024-02-18_23h11.27.050,kallum_motion_pilot,2023.2.2,Win32,144.9275362,5f06e85cf4e25a023d92fcc3,65d2b6c8f2eece985d8e374c,65d2b8bb664d1d730608df92,0.0183,0.0184,0,4,4,34,1,twoone,,,,,,,,,,,,,,,,,,,,,,,,,,,,,,,,,,,,,,,,,,,,,,,,,,,,,,,,,,,,,,,,,,,,,,,,,,,,,,,,,,,,,,,,,,,,,,,,,,,,,,,,,,,,,,,,,,,,,,,,,,,,,,,,,,,,,,,,,
,,5f06e85cf4e25a023d92fcc3,2024-02-18_23h11.27.050,kallum_motion_pilot,2023.2.2,Win32,144.9275362,5f06e85cf4e25a023d92fcc3,65d2b6c8f2eece985d8e374c,65d2b8bb664d1d730608df92,0.0184,0.0184,0,5,5,30,1,fourtwo,,,,,,,,,,,,,,,,,,,,,,,,,,,,,,,,,,,,,,,,,,,,,,,,,,,,,,,,,,,,,,,,,,,,,,,,,,,,,,,,,,,,,,,,,,,,,,,,,,,,,,,,,,,,,,,,,,,,,,,,,,,,,,,,,,,,,,,,,
,,5f06e85cf4e25a023d92fcc3,2024-02-18_23h11.27.050,kallum_motion_pilot,2023.2.2,Win32,144.9275362,5f06e85cf4e25a023d92fcc3,65d2b6c8f2eece985d8e374c,65d2b8bb664d1d730608df92,0.0185,0.0185,0,6,6,47,1,fourthree,,,,,,,,,,,,,,,,,,,,,,,,,,,,,,,,,,,,,,,,,,,,,,,,,,,,,,,,,,,,,,,,,,,,,,,,,,,,,,,,,,,,,,,,,,,,,,,,,,,,,,,,,,,,,,,,,,,,,,,,,,,,,,,,,,,,,,,,,
,,5f06e85cf4e25a023d92fcc3,2024-02-18_23h11.27.050,kallum_motion_pilot,2023.2.2,Win32,144.9275362,5f06e85cf4e25a023d92fcc3,65d2b6c8f2eece985d8e374c,65d2b8bb664d1d730608df92,0.0186,0.0186,0,7,7,10,1,twoone,,,,,,,,,,,,,,,,,,,,,,,,,,,,,,,,,,,,,,,,,,,,,,,,,,,,,,,,,,,,,,,,,,,,,,,,,,,,,,,,,,,,,,,,,,,,,,,,,,,,,,,,,,,,,,,,,,,,,,,,,,,,,,,,,,,,,,,,,
,,5f06e85cf4e25a023d92fcc3,2024-02-18_23h11.27.050,kallum_motion_pilot,2023.2.2,Win32,144.9275362,5f06e85cf4e25a023d92fcc3,65d2b6c8f2eece985d8e374c,65d2b8bb664d1d730608df92,0.0188,0.0188,0,8,8,73,1,onethree,,,,,,,,,,,,,,,,,,,,,,,,,,,,,,,,,,,,,,,,,,,,,,,,,,,,,,,,,,,,,,,,,,,,,,,,,,,,,,,,,,,,,,,,,,,,,,,,,,,,,,,,,,,,,,,,,,,,,,,,,,,,,,,,,,,,,,,,,
,,5f06e85cf4e25a023d92fcc3,2024-02-18_23h11.27.050,kallum_motion_pilot,2023.2.2,Win32,144.9275362,5f06e85cf4e25a023d92fcc3,65d2b6c8f2eece985d8e374c,65d2b8bb664d1d730608df92,0.0188,0.0188,0,9,9,69,1,threefour,,,,,,,,,,,,,,,,,,,,,,,,,,,,,,,,,,,,,,,,,,,,,,,,,,,,,,,,,,,,,,,,,,,,,,,,,,,,,,,,,,,,,,,,,,,,,,,,,,,,,,,,,,,,,,,,,,,,,,,,,,,,,,,,,,,,,,,,,
,,5f06e85cf4e25a023d92fcc3,2024-02-18_23h11.27.050,kallum_motion_pilot,2023.2.2,Win32,144.9275362,5f06e85cf4e25a023d92fcc3,65d2b6c8f2eece985d8e374c,65d2b8bb664d1d730608df92,0.0189,0.0189,0,10,10,114,1,sixfive,,,,,,,,,,,,,,,,,,,,,,,,,,,,,,,,,,,,,,,,,,,,,,,,,,,,,,,,,,,,,,,,,,,,,,,,,,,,,,,,,,,,,,,,,,,,,,,,,,,,,,,,,,,,,,,,,,,,,,,,,,,,,,,,,,,,,,,,,
,,5f06e85cf4e25a023d92fcc3,2024-02-18_23h11.27.050,kallum_motion_pilot,2023.2.2,Win32,144.9275362,5f06e85cf4e25a023d92fcc3,65d2b6c8f2eece985d8e374c,65d2b8bb664d1d730608df92,0.0189,0.019,0,11,11,1,1,onethree,,,,,,,,,,,,,,,,,,,,,,,,,,,,,,,,,,,,,,,,,,,,,,,,,,,,,,,,,,,,,,,,,,,,,,,,,,,,,,,,,,,,,,,,,,,,,,,,,,,,,,,,,,,,,,,,,,,,,,,,,,,,,,,,,,,,,,,,,
,,5f06e85cf4e25a023d92fcc3,2024-02-18_23h11.27.050,kallum_motion_pilot,2023.2.2,Win32,144.9275362,5f06e85cf4e25a023d92fcc3,65d2b6c8f2eece985d8e374c,65d2b8bb664d1d730608df92,0.019,0.019,0,12,12,99,1,sixeight,,,,,,,,,,,,,,,,,,,,,,,,,,,,,,,,,,,,,,,,,,,,,,,,,,,,,,,,,,,,,,,,,,,,,,,,,,,,,,,,,,,,,,,,,,,,,,,,,,,,,,,,,,,,,,,,,,,,,,,,,,,,,,,,,,,,,,,,,
,,5f06e85cf4e25a023d92fcc3,2024-02-18_23h11.27.050,kallum_motion_pilot,2023.2.2,Win32,144.9275362,5f06e85cf4e25a023d92fcc3,65d2b6c8f2eece985d8e374c,65d2b8bb664d1d730608df92,0.019,0.0191,0,13,13,103,1,eightseven,,,,,,,,,,,,,,,,,,,,,,,,,,,,,,,,,,,,,,,,,,,,,,,,,,,,,,,,,,,,,,,,,,,,,,,,,,,,,,,,,,,,,,,,,,,,,,,,,,,,,,,,,,,,,,,,,,,,,,,,,,,,,,,,,,,,,,,,,
,,5f06e85cf4e25a023d92fcc3,2024-02-18_23h11.27.050,kallum_motion_pilot,2023.2.2,Win32,144.9275362,5f06e85cf4e25a023d92fcc3,65d2b6c8f2eece985d8e374c,65d2b8bb664d1d730608df92,0.0191,0.0191,0,14,14,75,1,twofour,,,,,,,,,,,,,,,,,,,,,,,,,,,,,,,,,,,,,,,,,,,,,,,,,,,,,,,,,,,,,,,,,,,,,,,,,,,,,,,,,,,,,,,,,,,,,,,,,,,,,,,,,,,,,,,,,,,,,,,,,,,,,,,,,,,,,,,,,
,,5f06e85cf4e25a023d92fcc3,2024-02-18_23h11.27.050,kallum_motion_pilot,2023.2.2,Win32,144.9275362,5f06e85cf4e25a023d92fcc3,65d2b6c8f2eece985d8e374c,65d2b8bb664d1d730608df92,0.0197,0.0197,0,15,15,154,1,sixfive,,,,,,,,,,,,,,,,,,,,,,,,,,,,,,,,,,,,,,,,,,,,,,,,,,,,,,,,,,,,,,,,,,,,,,,,,,,,,,,,,,,,,,,,,,,,,,,,,,,,,,,,,,,,,,,,,,,,,,,,,,,,,,,,,,,,,,,,,
,,5f06e85cf4e25a023d92fcc3,2024-02-18_23h11.27.050,kallum_motion_pilot,2023.2.2,Win32,144.9275362,5f06e85cf4e25a023d92fcc3,65d2b6c8f2eece985d8e374c,65d2b8bb664d1d730608df92,0.0198,0.0199,0,16,16,126,1,eightsix,,,,,,,,,,,,,,,,,,,,,,,,,,,,,,,,,,,,,,,,,,,,,,,,,,,,,,,,,,,,,,,,,,,,,,,,,,,,,,,,,,,,,,,,,,,,,,,,,,,,,,,,,,,,,,,,,,,,,,,,,,,,,,,,,,,,,,,,,
,,5f06e85cf4e25a023d92fcc3,2024-02-18_23h11.27.050,kallum_motion_pilot,2023.2.2,Win32,144.9275362,5f06e85cf4e25a023d92fcc3,65d2b6c8f2eece985d8e374c,65d2b8bb664d1d730608df92,0.0199,0.0199,0,17,17,13,1,threefour,,,,,,,,,,,,,,,,,,,,,,,,,,,,,,,,,,,,,,,,,,,,,,,,,,,,,,,,,,,,,,,,,,,,,,,,,,,,,,,,,,,,,,,,,,,,,,,,,,,,,,,,,,,,,,,,,,,,,,,,,,,,,,,,,,,,,,,,,
,,5f06e85cf4e25a023d92fcc3,2024-02-18_23h11.27.050,kallum_motion_pilot,2023.2.2,Win32,144.9275362,5f06e85cf4e25a023d92fcc3,65d2b6c8f2eece985d8e374c,65d2b8bb664d1d730608df92,0.02,0.02,0,18,18,12,1,threeone,,,,,,,,,,,,,,,,,,,,,,,,,,,,,,,,,,,,,,,,,,,,,,,,,,,,,,,,,,,,,,,,,,,,,,,,,,,,,,,,,,,,,,,,,,,,,,,,,,,,,,,,,,,,,,,,,,,,,,,,,,,,,,,,,,,,,,,,,
,,5f06e85cf4e25a023d92fcc3,2024-02-18_23h11.27.050,kallum_motion_pilot,2023.2.2,Win32,144.9275362,5f06e85cf4e25a023d92fcc3,65d2b6c8f2eece985d8e374c,65d2b8bb664d1d730608df92,0.02,0.02,0,19,19,33,1,onethree,,,,,,,,,,,,,,,,,,,,,,,,,,,,,,,,,,,,,,,,,,,,,,,,,,,,,,,,,,,,,,,,,,,,,,,,,,,,,,,,,,,,,,,,,,,,,,,,,,,,,,,,,,,,,,,,,,,,,,,,,,,,,,,,,,,,,,,,,
,,5f06e85cf4e25a023d92fcc3,2024-02-18_23h11.27.050,kallum_motion_pilot,2023.2.2,Win32,144.9275362,5f06e85cf4e25a023d92fcc3,65d2b6c8f2eece985d8e374c,65d2b8bb664d1d730608df92,0.02,0.02,0,20,20,87,1,eightseven,,,,,,,,,,,,,,,,,,,,,,,,,,,,,,,,,,,,,,,,,,,,,,,,,,,,,,,,,,,,,,,,,,,,,,,,,,,,,,,,,,,,,,,,,,,,,,,,,,,,,,,,,,,,,,,,,,,,,,,,,,,,,,,,,,,,,,,,,
,,5f06e85cf4e25a023d92fcc3,2024-02-18_23h11.27.050,kallum_motion_pilot,2023.2.2,Win32,144.9275362,5f06e85cf4e25a023d92fcc3,65d2b6c8f2eece985d8e374c,65d2b8bb664d1d730608df92,0.0201,0.0202,0,21,21,22,1,fourtwo,,,,,,,,,,,,,,,,,,,,,,,,,,,,,,,,,,,,,,,,,,,,,,,,,,,,,,,,,,,,,,,,,,,,,,,,,,,,,,,,,,,,,,,,,,,,,,,,,,,,,,,,,,,,,,,,,,,,,,,,,,,,,,,,,,,,,,,,,
,,5f06e85cf4e25a023d92fcc3,2024-02-18_23h11.27.050,kallum_motion_pilot,2023.2.2,Win32,144.9275362,5f06e85cf4e25a023d92fcc3,65d2b6c8f2eece985d8e374c,65d2b8bb664d1d730608df92,0.0202,0.0202,0,22,22,9,1,onethree,,,,,,,,,,,,,,,,,,,,,,,,,,,,,,,,,,,,,,,,,,,,,,,,,,,,,,,,,,,,,,,,,,,,,,,,,,,,,,,,,,,,,,,,,,,,,,,,,,,,,,,,,,,,,,,,,,,,,,,,,,,,,,,,,,,,,,,,,
,,5f06e85cf4e25a023d92fcc3,2024-02-18_23h11.27.050,kallum_motion_pilot,2023.2.2,Win32,144.9275362,5f06e85cf4e25a023d92fcc3,65d2b6c8f2eece985d8e374c,65d2b8bb664d1d730608df92,0.0203,0.0203,0,23,23,64,1,onetwo,,,,,,,,,,,,,,,,,,,,,,,,,,,,,,,,,,,,,,,,,,,,,,,,,,,,,,,,,,,,,,,,,,,,,,,,,,,,,,,,,,,,,,,,,,,,,,,,,,,,,,,,,,,,,,,,,,,,,,,,,,,,,,,,,,,,,,,,,
,,5f06e85cf4e25a023d92fcc3,2024-02-18_23h11.27.050,kallum_motion_pilot,2023.2.2,Win32,144.9275362,5f06e85cf4e25a023d92fcc3,65d2b6c8f2eece985d8e374c,65d2b8bb664d1d730608df92,0.0203,0.0203,0,24,24,119,1,eightseven,,,,,,,,,,,,,,,,,,,,,,,,,,,,,,,,,,,,,,,,,,,,,,,,,,,,,,,,,,,,,,,,,,,,,,,,,,,,,,,,,,,,,,,,,,,,,,,,,,,,,,,,,,,,,,,,,,,,,,,,,,,,,,,,,,,,,,,,,
,,5f06e85cf4e25a023d92fcc3,2024-02-18_23h11.27.050,kallum_motion_pilot,2023.2.2,Win32,144.9275362,5f06e85cf4e25a023d92fcc3,65d2b6c8f2eece985d8e374c,65d2b8bb664d1d730608df92,0.0204,0.0204,0,25,25,50,1,twoone,,,,,,,,,,,,,,,,,,,,,,,,,,,,,,,,,,,,,,,,,,,,,,,,,,,,,,,,,,,,,,,,,,,,,,,,,,,,,,,,,,,,,,,,,,,,,,,,,,,,,,,,,,,,,,,,,,,,,,,,,,,,,,,,,,,,,,,,,
,,5f06e85cf4e25a023d92fcc3,2024-02-18_23h11.27.050,kallum_motion_pilot,2023.2.2,Win32,144.9275362,5f06e85cf4e25a023d92fcc3,65d2b6c8f2eece985d8e374c,65d2b8bb664d1d730608df92,0.0205,0.0205,0,26,26,51,1,twofour,,,,,,,,,,,,,,,,,,,,,,,,,,,,,,,,,,,,,,,,,,,,,,,,,,,,,,,,,,,,,,,,,,,,,,,,,,,,,,,,,,,,,,,,,,,,,,,,,,,,,,,,,,,,,,,,,,,,,,,,,,,,,,,,,,,,,,,,,
,,5f06e85cf4e25a023d92fcc3,2024-02-18_23h11.27.050,kallum_motion_pilot,2023.2.2,Win32,144.9275362,5f06e85cf4e25a023d92fcc3,65d2b6c8f2eece985d8e374c,65d2b8bb664d1d730608df92,0.0205,0.0205,0,27,27,120,1,fivesix,,,,,,,,,,,,,,,,,,,,,,,,,,,,,,,,,,,,,,,,,,,,,,,,,,,,,,,,,,,,,,,,,,,,,,,,,,,,,,,,,,,,,,,,,,,,,,,,,,,,,,,,,,,,,,,,,,,,,,,,,,,,,,,,,,,,,,,,,
,,5f06e85cf4e25a023d92fcc3,2024-02-18_23h11.27.050,kallum_motion_pilot,2023.2.2,Win32,144.9275362,5f06e85cf4e25a023d92fcc3,65d2b6c8f2eece985d8e374c,65d2b8bb664d1d730608df92,0.0205,0.0206,0,28,28,88,1,fivesix,,,,,,,,,,,,,,,,,,,,,,,,,,,,,,,,,,,,,,,,,,,,,,,,,,,,,,,,,,,,,,,,,,,,,,,,,,,,,,,,,,,,,,,,,,,,,,,,,,,,,,,,,,,,,,,,,,,,,,,,,,,,,,,,,,,,,,,,,
,,5f06e85cf4e25a023d92fcc3,2024-02-18_23h11.27.050,kallum_motion_pilot,2023.2.2,Win32,144.9275362,5f06e85cf4e25a023d92fcc3,65d2b6c8f2eece985d8e374c,65d2b8bb664d1d730608df92,0.0207,0.0207,0,29,29,123,1,sixeight,,,,,,,,,,,,,,,,,,,,,,,,,,,,,,,,,,,,,,,,,,,,,,,,,,,,,,,,,,,,,,,,,,,,,,,,,,,,,,,,,,,,,,,,,,,,,,,,,,,,,,,,,,,,,,,,,,,,,,,,,,,,,,,,,,,,,,,,,
,,5f06e85cf4e25a023d92fcc3,2024-02-18_23h11.27.050,kallum_motion_pilot,2023.2.2,Win32,144.9275362,5f06e85cf4e25a023d92fcc3,65d2b6c8f2eece985d8e374c,65d2b8bb664d1d730608df92,0.0207,0.0207,0,30,30,26,1,twoone,,,,,,,,,,,,,,,,,,,,,,,,,,,,,,,,,,,,,,,,,,,,,,,,,,,,,,,,,,,,,,,,,,,,,,,,,,,,,,,,,,,,,,,,,,,,,,,,,,,,,,,,,,,,,,,,,,,,,,,,,,,,,,,,,,,,,,,,,
,,5f06e85cf4e25a023d92fcc3,2024-02-18_23h11.27.050,kallum_motion_pilot,2023.2.2,Win32,144.9275362,5f06e85cf4e25a023d92fcc3,65d2b6c8f2eece985d8e374c,65d2b8bb664d1d730608df92,0.0207,0.0208,0,31,31,82,1,sixfive,,,,,,,,,,,,,,,,,,,,,,,,,,,,,,,,,,,,,,,,,,,,,,,,,,,,,,,,,,,,,,,,,,,,,,,,,,,,,,,,,,,,,,,,,,,,,,,,,,,,,,,,,,,,,,,,,,,,,,,,,,,,,,,,,,,,,,,,,
,,5f06e85cf4e25a023d92fcc3,2024-02-18_23h11.27.050,kallum_motion_pilot,2023.2.2,Win32,144.9275362,5f06e85cf4e25a023d92fcc3,65d2b6c8f2eece985d8e374c,65d2b8bb664d1d730608df92,0.0208,0.0208,0,32,32,6,1,fourtwo,,,,,,,,,,,,,,,,,,,,,,,,,,,,,,,,,,,,,,,,,,,,,,,,,,,,,,,,,,,,,,,,,,,,,,,,,,,,,,,,,,,,,,,,,,,,,,,,,,,,,,,,,,,,,,,,,,,,,,,,,,,,,,,,,,,,,,,,,
,,5f06e85cf4e25a023d92fcc3,2024-02-18_23h11.27.050,kallum_motion_pilot,2023.2.2,Win32,144.9275362,5f06e85cf4e25a023d92fcc3,65d2b6c8f2eece985d8e374c,65d2b8bb664d1d730608df92,0.0209,0.0209,0,33,33,161,1,fiveseven,,,,,,,,,,,,,,,,,,,,,,,,,,,,,,,,,,,,,,,,,,,,,,,,,,,,,,,,,,,,,,,,,,,,,,,,,,,,,,,,,,,,,,,,,,,,,,,,,,,,,,,,,,,,,,,,,,,,,,,,,,,,,,,,,,,,,,,,,
,,5f06e85cf4e25a023d92fcc3,2024-02-18_23h11.27.050,kallum_motion_pilot,2023.2.2,Win32,144.9275362,5f06e85cf4e25a023d92fcc3,65d2b6c8f2eece985d8e374c,65d2b8bb664d1d730608df92,0.021,0.021,0,34,34,101,1,seveneight,,,,,,,,,,,,,,,,,,,,,,,,,,,,,,,,,,,,,,,,,,,,,,,,,,,,,,,,,,,,,,,,,,,,,,,,,,,,,,,,,,,,,,,,,,,,,,,,,,,,,,,,,,,,,,,,,,,,,,,,,,,,,,,,,,,,,,,,,
,,5f06e85cf4e25a023d92fcc3,2024-02-18_23h11.27.050,kallum_motion_pilot,2023.2.2,Win32,144.9275362,5f06e85cf4e25a023d92fcc3,65d2b6c8f2eece985d8e374c,65d2b8bb664d1d730608df92,0.0211,0.0211,0,35,35,155,1,sixeight,,,,,,,,,,,,,,,,,,,,,,,,,,,,,,,,,,,,,,,,,,,,,,,,,,,,,,,,,,,,,,,,,,,,,,,,,,,,,,,,,,,,,,,,,,,,,,,,,,,,,,,,,,,,,,,,,,,,,,,,,,,,,,,,,,,,,,,,,
,,5f06e85cf4e25a023d92fcc3,2024-02-18_23h11.27.050,kallum_motion_pilot,2023.2.2,Win32,144.9275362,5f06e85cf4e25a023d92fcc3,65d2b6c8f2eece985d8e374c,65d2b8bb664d1d730608df92,0.0211,0.0211,0,36,36,29,1,threefour,,,,,,,,,,,,,,,,,,,,,,,,,,,,,,,,,,,,,,,,,,,,,,,,,,,,,,,,,,,,,,,,,,,,,,,,,,,,,,,,,,,,,,,,,,,,,,,,,,,,,,,,,,,,,,,,,,,,,,,,,,,,,,,,,,,,,,,,,
,,5f06e85cf4e25a023d92fcc3,2024-02-18_23h11.27.050,kallum_motion_pilot,2023.2.2,Win32,144.9275362,5f06e85cf4e25a023d92fcc3,65d2b6c8f2eece985d8e374c,65d2b8bb664d1d730608df92,0.0212,0.0212,0,37,37,140,1,sevenfive,,,,,,,,,,,,,,,,,,,,,,,,,,,,,,,,,,,,,,,,,,,,,,,,,,,,,,,,,,,,,,,,,,,,,,,,,,,,,,,,,,,,,,,,,,,,,,,,,,,,,,,,,,,,,,,,,,,,,,,,,,,,,,,,,,,,,,,,,
,,5f06e85cf4e25a023d92fcc3,2024-02-18_23h11.27.050,kallum_motion_pilot,2023.2.2,Win32,144.9275362,5f06e85cf4e25a023d92fcc3,65d2b6c8f2eece985d8e374c,65d2b8bb664d1d730608df92,0.0212,0.0212,0,38,38,159,1,eightseven,,,,,,,,,,,,,,,,,,,,,,,,,,,,,,,,,,,,,,,,,,,,,,,,,,,,,,,,,,,,,,,,,,,,,,,,,,,,,,,,,,,,,,,,,,,,,,,,,,,,,,,,,,,,,,,,,,,,,,,,,,,,,,,,,,,,,,,,,
,,5f06e85cf4e25a023d92fcc3,2024-02-18_23h11.27.050,kallum_motion_pilot,2023.2.2,Win32,144.9275362,5f06e85cf4e25a023d92fcc3,65d2b6c8f2eece985d8e374c,65d2b8bb664d1d730608df92,0.0213,0.0213,0,39,39,136,1,fivesix,,,,,,,,,,,,,,,,,,,,,,,,,,,,,,,,,,,,,,,,,,,,,,,,,,,,,,,,,,,,,,,,,,,,,,,,,,,,,,,,,,,,,,,,,,,,,,,,,,,,,,,,,,,,,,,,,,,,,,,,,,,,,,,,,,,,,,,,,
,,5f06e85cf4e25a023d92fcc3,2024-02-18_23h11.27.050,kallum_motion_pilot,2023.2.2,Win32,144.9275362,5f06e85cf4e25a023d92fcc3,65d2b6c8f2eece985d8e374c,65d2b8bb664d1d730608df92,0.0214,0.0214,0,40,40,43,1,twofour,,,,,,,,,,,,,,,,,,,,,,,,,,,,,,,,,,,,,,,,,,,,,,,,,,,,,,,,,,,,,,,,,,,,,,,,,,,,,,,,,,,,,,,,,,,,,,,,,,,,,,,,,,,,,,,,,,,,,,,,,,,,,,,,,,,,,,,,,
,,5f06e85cf4e25a023d92fcc3,2024-02-18_23h11.27.050,kallum_motion_pilot,2023.2.2,Win32,144.9275362,5f06e85cf4e25a023d92fcc3,65d2b6c8f2eece985d8e374c,65d2b8bb664d1d730608df92,0.0214,0.0214,0,41,41,91,1,sixeight,,,,,,,,,,,,,,,,,,,,,,,,,,,,,,,,,,,,,,,,,,,,,,,,,,,,,,,,,,,,,,,,,,,,,,,,,,,,,,,,,,,,,,,,,,,,,,,,,,,,,,,,,,,,,,,,,,,,,,,,,,,,,,,,,,,,,,,,,
,,5f06e85cf4e25a023d92fcc3,2024-02-18_23h11.27.050,kallum_motion_pilot,2023.2.2,Win32,144.9275362,5f06e85cf4e25a023d92fcc3,65d2b6c8f2eece985d8e374c,65d2b8bb664d1d730608df92,0.0215,0.0215,0,42,42,142,1,eightsix,,,,,,,,,,,,,,,,,,,,,,,,,,,,,,,,,,,,,,,,,,,,,,,,,,,,,,,,,,,,,,,,,,,,,,,,,,,,,,,,,,,,,,,,,,,,,,,,,,,,,,,,,,,,,,,,,,,,,,,,,,,,,,,,,,,,,,,,,
,,5f06e85cf4e25a023d92fcc3,2024-02-18_23h11.27.050,kallum_motion_pilot,2023.2.2,Win32,144.9275362,5f06e85cf4e25a023d92fcc3,65d2b6c8f2eece985d8e374c,65d2b8bb664d1d730608df92,0.0215,0.0216,0,43,43,137,1,fiveseven,,,,,,,,,,,,,,,,,,,,,,,,,,,,,,,,,,,,,,,,,,,,,,,,,,,,,,,,,,,,,,,,,,,,,,,,,,,,,,,,,,,,,,,,,,,,,,,,,,,,,,,,,,,,,,,,,,,,,,,,,,,,,,,,,,,,,,,,,
,,5f06e85cf4e25a023d92fcc3,2024-02-18_23h11.27.050,kallum_motion_pilot,2023.2.2,Win32,144.9275362,5f06e85cf4e25a023d92fcc3,65d2b6c8f2eece985d8e374c,65d2b8bb664d1d730608df92,0.0216,0.0216,0,44,44,125,1,seveneight,,,,,,,,,,,,,,,,,,,,,,,,,,,,,,,,,,,,,,,,,,,,,,,,,,,,,,,,,,,,,,,,,,,,,,,,,,,,,,,,,,,,,,,,,,,,,,,,,,,,,,,,,,,,,,,,,,,,,,,,,,,,,,,,,,,,,,,,,
,,5f06e85cf4e25a023d92fcc3,2024-02-18_23h11.27.050,kallum_motion_pilot,2023.2.2,Win32,144.9275362,5f06e85cf4e25a023d92fcc3,65d2b6c8f2eece985d8e374c,65d2b8bb664d1d730608df92,0.0216,0.0217,0,45,45,83,1,sixeight,,,,,,,,,,,,,,,,,,,,,,,,,,,,,,,,,,,,,,,,,,,,,,,,,,,,,,,,,,,,,,,,,,,,,,,,,,,,,,,,,,,,,,,,,,,,,,,,,,,,,,,,,,,,,,,,,,,,,,,,,,,,,,,,,,,,,,,,,
,,5f06e85cf4e25a023d92fcc3,2024-02-18_23h11.27.050,kallum_motion_pilot,2023.2.2,Win32,144.9275362,5f06e85cf4e25a023d92fcc3,65d2b6c8f2eece985d8e374c,65d2b8bb664d1d730608df92,0.0217,0.0217,0,46,46,147,1,sixeight,,,,,,,,,,,,,,,,,,,,,,,,,,,,,,,,,,,,,,,,,,,,,,,,,,,,,,,,,,,,,,,,,,,,,,,,,,,,,,,,,,,,,,,,,,,,,,,,,,,,,,,,,,,,,,,,,,,,,,,,,,,,,,,,,,,,,,,,,
,,5f06e85cf4e25a023d92fcc3,2024-02-18_23h11.27.050,kallum_motion_pilot,2023.2.2,Win32,144.9275362,5f06e85cf4e25a023d92fcc3,65d2b6c8f2eece985d8e374c,65d2b8bb664d1d730608df92,0.0218,0.0218,0,47,47,144,1,fivesix,,,,,,,,,,,,,,,,,,,,,,,,,,,,,,,,,,,,,,,,,,,,,,,,,,,,,,,,,,,,,,,,,,,,,,,,,,,,,,,,,,,,,,,,,,,,,,,,,,,,,,,,,,,,,,,,,,,,,,,,,,,,,,,,,,,,,,,,,
,,5f06e85cf4e25a023d92fcc3,2024-02-18_23h11.27.050,kallum_motion_pilot,2023.2.2,Win32,144.9275362,5f06e85cf4e25a023d92fcc3,65d2b6c8f2eece985d8e374c,65d2b8bb664d1d730608df92,0.0219,0.0219,0,48,48,93,1,seveneight,,,,,,,,,,,,,,,,,,,,,,,,,,,,,,,,,,,,,,,,,,,,,,,,,,,,,,,,,,,,,,,,,,,,,,,,,,,,,,,,,,,,,,,,,,,,,,,,,,,,,,,,,,,,,,,,,,,,,,,,,,,,,,,,,,,,,,,,,
,,5f06e85cf4e25a023d92fcc3,2024-02-18_23h11.27.050,kallum_motion_pilot,2023.2.2,Win32,144.9275362,5f06e85cf4e25a023d92fcc3,65d2b6c8f2eece985d8e374c,65d2b8bb664d1d730608df92,0.0219,0.0219,0,49,49,121,1,fiveseven,,,,,,,,,,,,,,,,,,,,,,,,,,,,,,,,,,,,,,,,,,,,,,,,,,,,,,,,,,,,,,,,,,,,,,,,,,,,,,,,,,,,,,,,,,,,,,,,,,,,,,,,,,,,,,,,,,,,,,,,,,,,,,,,,,,,,,,,,
,,5f06e85cf4e25a023d92fcc3,2024-02-18_23h11.27.050,kallum_motion_pilot,2023.2.2,Win32,144.9275362,5f06e85cf4e25a023d92fcc3,65d2b6c8f2eece985d8e374c,65d2b8bb664d1d730608df92,0.022,0.022,0,50,50,111,1,eightseven,,,,,,,,,,,,,,,,,,,,,,,,,,,,,,,,,,,,,,,,,,,,,,,,,,,,,,,,,,,,,,,,,,,,,,,,,,,,,,,,,,,,,,,,,,,,,,,,,,,,,,,,,,,,,,,,,,,,,,,,,,,,,,,,,,,,,,,,,
,,5f06e85cf4e25a023d92fcc3,2024-02-18_23h11.27.050,kallum_motion_pilot,2023.2.2,Win32,144.9275362,5f06e85cf4e25a023d92fcc3,65d2b6c8f2eece985d8e374c,65d2b8bb664d1d730608df92,0.022,0.022,0,51,51,57,1,onethree,,,,,,,,,,,,,,,,,,,,,,,,,,,,,,,,,,,,,,,,,,,,,,,,,,,,,,,,,,,,,,,,,,,,,,,,,,,,,,,,,,,,,,,,,,,,,,,,,,,,,,,,,,,,,,,,,,,,,,,,,,,,,,,,,,,,,,,,,
,,5f06e85cf4e25a023d92fcc3,2024-02-18_23h11.27.050,kallum_motion_pilot,2023.2.2,Win32,144.9275362,5f06e85cf4e25a023d92fcc3,65d2b6c8f2eece985d8e374c,65d2b8bb664d1d730608df92,0.0221,0.0221,0,52,52,139,1,sixeight,,,,,,,,,,,,,,,,,,,,,,,,,,,,,,,,,,,,,,,,,,,,,,,,,,,,,,,,,,,,,,,,,,,,,,,,,,,,,,,,,,,,,,,,,,,,,,,,,,,,,,,,,,,,,,,,,,,,,,,,,,,,,,,,,,,,,,,,,
,,5f06e85cf4e25a023d92fcc3,2024-02-18_23h11.27.050,kallum_motion_pilot,2023.2.2,Win32,144.9275362,5f06e85cf4e25a023d92fcc3,65d2b6c8f2eece985d8e374c,65d2b8bb664d1d730608df92,0.0222,0.0222,0,53,53,124,1,sevenfive,,,,,,,,,,,,,,,,,,,,,,,,,,,,,,,,,,,,,,,,,,,,,,,,,,,,,,,,,,,,,,,,,,,,,,,,,,,,,,,,,,,,,,,,,,,,,,,,,,,,,,,,,,,,,,,,,,,,,,,,,,,,,,,,,,,,,,,,,
,,5f06e85cf4e25a023d92fcc3,2024-02-18_23h11.27.050,kallum_motion_pilot,2023.2.2,Win32,144.9275362,5f06e85cf4e25a023d92fcc3,65d2b6c8f2eece985d8e374c,65d2b8bb664d1d730608df92,0.0222,0.0223,0,54,54,17,1,onethree,,,,,,,,,,,,,,,,,,,,,,,,,,,,,,,,,,,,,,,,,,,,,,,,,,,,,,,,,,,,,,,,,,,,,,,,,,,,,,,,,,,,,,,,,,,,,,,,,,,,,,,,,,,,,,,,,,,,,,,,,,,,,,,,,,,,,,,,,
,,5f06e85cf4e25a023d92fcc3,2024-02-18_23h11.27.050,kallum_motion_pilot,2023.2.2,Win32,144.9275362,5f06e85cf4e25a023d92fcc3,65d2b6c8f2eece985d8e374c,65d2b8bb664d1d730608df92,0.0224,0.0224,0,55,55,133,1,seveneight,,,,,,,,,,,,,,,,,,,,,,,,,,,,,,,,,,,,,,,,,,,,,,,,,,,,,,,,,,,,,,,,,,,,,,,,,,,,,,,,,,,,,,,,,,,,,,,,,,,,,,,,,,,,,,,,,,,,,,,,,,,,,,,,,,,,,,,,,
,,5f06e85cf4e25a023d92fcc3,2024-02-18_23h11.27.050,kallum_motion_pilot,2023.2.2,Win32,144.9275362,5f06e85cf4e25a023d92fcc3,65d2b6c8f2eece985d8e374c,65d2b8bb664d1d730608df92,0.0224,0.0224,0,56,56,113,1,fiveseven,,,,,,,,,,,,,,,,,,,,,,,,,,,,,,,,,,,,,,,,,,,,,,,,,,,,,,,,,,,,,,,,,,,,,,,,,,,,,,,,,,,,,,,,,,,,,,,,,,,,,,,,,,,,,,,,,,,,,,,,,,,,,,,,,,,,,,,,,
,,5f06e85cf4e25a023d92fcc3,2024-02-18_23h11.27.050,kallum_motion_pilot,2023.2.2,Win32,144.9275362,5f06e85cf4e25a023d92fcc3,65d2b6c8f2eece985d8e374c,65d2b8bb664d1d730608df92,0.0225,0.0225,0,57,57,109,1,seveneight,,,,,,,,,,,,,,,,,,,,,,,,,,,,,,,,,,,,,,,,,,,,,,,,,,,,,,,,,,,,,,,,,,,,,,,,,,,,,,,,,,,,,,,,,,,,,,,,,,,,,,,,,,,,,,,,,,,,,,,,,,,,,,,,,,,,,,,,,
,,5f06e85cf4e25a023d92fcc3,2024-02-18_23h11.27.050,kallum_motion_pilot,2023.2.2,Win32,144.9275362,5f06e85cf4e25a023d92fcc3,65d2b6c8f2eece985d8e374c,65d2b8bb664d1d730608df92,0.0226,0.0226,0,58,58,152,1,fivesix,,,,,,,,,,,,,,,,,,,,,,,,,,,,,,,,,,,,,,,,,,,,,,,,,,,,,,,,,,,,,,,,,,,,,,,,,,,,,,,,,,,,,,,,,,,,,,,,,,,,,,,,,,,,,,,,,,,,,,,,,,,,,,,,,,,,,,,,,
,,5f06e85cf4e25a023d92fcc3,2024-02-18_23h11.27.050,kallum_motion_pilot,2023.2.2,Win32,144.9275362,5f06e85cf4e25a023d92fcc3,65d2b6c8f2eece985d8e374c,65d2b8bb664d1d730608df92,0.0226,0.0227,0,59,59,42,1,twoone,,,,,,,,,,,,,,,,,,,,,,,,,,,,,,,,,,,,,,,,,,,,,,,,,,,,,,,,,,,,,,,,,,,,,,,,,,,,,,,,,,,,,,,,,,,,,,,,,,,,,,,,,,,,,,,,,,,,,,,,,,,,,,,,,,,,,,,,,
,,5f06e85cf4e25a023d92fcc3,2024-02-18_23h11.27.050,kallum_motion_pilot,2023.2.2,Win32,144.9275362,5f06e85cf4e25a023d92fcc3,65d2b6c8f2eece985d8e374c,65d2b8bb664d1d730608df92,0.0227,0.0227,0,60,60,70,1,fourtwo,,,,,,,,,,,,,,,,,,,,,,,,,,,,,,,,,,,,,,,,,,,,,,,,,,,,,,,,,,,,,,,,,,,,,,,,,,,,,,,,,,,,,,,,,,,,,,,,,,,,,,,,,,,,,,,,,,,,,,,,,,,,,,,,,,,,,,,,,
,,5f06e85cf4e25a023d92fcc3,2024-02-18_23h11.27.050,kallum_motion_pilot,2023.2.2,Win32,144.9275362,5f06e85cf4e25a023d92fcc3,65d2b6c8f2eece985d8e374c,65d2b8bb664d1d730608df92,0.0228,0.0229,0,61,61,53,1,threefour,,,,,,,,,,,,,,,,,,,,,,,,,,,,,,,,,,,,,,,,,,,,,,,,,,,,,,,,,,,,,,,,,,,,,,,,,,,,,,,,,,,,,,,,,,,,,,,,,,,,,,,,,,,,,,,,,,,,,,,,,,,,,,,,,,,,,,,,,
,,5f06e85cf4e25a023d92fcc3,2024-02-18_23h11.27.050,kallum_motion_pilot,2023.2.2,Win32,144.9275362,5f06e85cf4e25a023d92fcc3,65d2b6c8f2eece985d8e374c,65d2b8bb664d1d730608df92,0.0229,0.023,0,62,62,38,1,fourtwo,,,,,,,,,,,,,,,,,,,,,,,,,,,,,,,,,,,,,,,,,,,,,,,,,,,,,,,,,,,,,,,,,,,,,,,,,,,,,,,,,,,,,,,,,,,,,,,,,,,,,,,,,,,,,,,,,,,,,,,,,,,,,,,,,,,,,,,,,
,,5f06e85cf4e25a023d92fcc3,2024-02-18_23h11.27.050,kallum_motion_pilot,2023.2.2,Win32,144.9275362,5f06e85cf4e25a023d92fcc3,65d2b6c8f2eece985d8e374c,65d2b8bb664d1d730608df92,0.023,0.023,0,63,63,98,1,sixfive,,,,,,,,,,,,,,,,,,,,,,,,,,,,,,,,,,,,,,,,,,,,,,,,,,,,,,,,,,,,,,,,,,,,,,,,,,,,,,,,,,,,,,,,,,,,,,,,,,,,,,,,,,,,,,,,,,,,,,,,,,,,,,,,,,,,,,,,,
,,5f06e85cf4e25a023d92fcc3,2024-02-18_23h11.27.050,kallum_motion_pilot,2023.2.2,Win32,144.9275362,5f06e85cf4e25a023d92fcc3,65d2b6c8f2eece985d8e374c,65d2b8bb664d1d730608df92,0.0232,0.0232,0,64,64,61,1,threefour,,,,,,,,,,,,,,,,,,,,,,,,,,,,,,,,,,,,,,,,,,,,,,,,,,,,,,,,,,,,,,,,,,,,,,,,,,,,,,,,,,,,,,,,,,,,,,,,,,,,,,,,,,,,,,,,,,,,,,,,,,,,,,,,,,,,,,,,,
,,5f06e85cf4e25a023d92fcc3,2024-02-18_23h11.27.050,kallum_motion_pilot,2023.2.2,Win32,144.9275362,5f06e85cf4e25a023d92fcc3,65d2b6c8f2eece985d8e374c,65d2b8bb664d1d730608df92,0.0232,0.0233,0,65,65,76,1,threeone,,,,,,,,,,,,,,,,,,,,,,,,,,,,,,,,,,,,,,,,,,,,,,,,,,,,,,,,,,,,,,,,,,,,,,,,,,,,,,,,,,,,,,,,,,,,,,,,,,,,,,,,,,,,,,,,,,,,,,,,,,,,,,,,,,,,,,,,,
,,5f06e85cf4e25a023d92fcc3,2024-02-18_23h11.27.050,kallum_motion_pilot,2023.2.2,Win32,144.9275362,5f06e85cf4e25a023d92fcc3,65d2b6c8f2eece985d8e374c,65d2b8bb664d1d730608df92,0.0233,0.0233,0,66,66,149,1,seveneight,,,,,,,,,,,,,,,,,,,,,,,,,,,,,,,,,,,,,,,,,,,,,,,,,,,,,,,,,,,,,,,,,,,,,,,,,,,,,,,,,,,,,,,,,,,,,,,,,,,,,,,,,,,,,,,,,,,,,,,,,,,,,,,,,,,,,,,,,
,,5f06e85cf4e25a023d92fcc3,2024-02-18_23h11.27.050,kallum_motion_pilot,2023.2.2,Win32,144.9275362,5f06e85cf4e25a023d92fcc3,65d2b6c8f2eece985d8e374c,65d2b8bb664d1d730608df92,0.0234,0.0234,0,67,67,79,1,eightseven,,,,,,,,,,,,,,,,,,,,,,,,,,,,,,,,,,,,,,,,,,,,,,,,,,,,,,,,,,,,,,,,,,,,,,,,,,,,,,,,,,,,,,,,,,,,,,,,,,,,,,,,,,,,,,,,,,,,,,,,,,,,,,,,,,,,,,,,,
,,5f06e85cf4e25a023d92fcc3,2024-02-18_23h11.27.050,kallum_motion_pilot,2023.2.2,Win32,144.9275362,5f06e85cf4e25a023d92fcc3,65d2b6c8f2eece985d8e374c,65d2b8bb664d1d730608df92,0.0235,0.0235,0,68,68,41,1,onethree,,,,,,,,,,,,,,,,,,,,,,,,,,,,,,,,,,,,,,,,,,,,,,,,,,,,,,,,,,,,,,,,,,,,,,,,,,,,,,,,,,,,,,,,,,,,,,,,,,,,,,,,,,,,,,,,,,,,,,,,,,,,,,,,,,,,,,,,,
,,5f06e85cf4e25a023d92fcc3,2024-02-18_23h11.27.050,kallum_motion_pilot,2023.2.2,Win32,144.9275362,5f06e85cf4e25a023d92fcc3,65d2b6c8f2eece985d8e374c,65d2b8bb664d1d730608df92,0.0236,0.0236,0,69,69,132,1,sevenfive,,,,,,,,,,,,,,,,,,,,,,,,,,,,,,,,,,,,,,,,,,,,,,,,,,,,,,,,,,,,,,,,,,,,,,,,,,,,,,,,,,,,,,,,,,,,,,,,,,,,,,,,,,,,,,,,,,,,,,,,,,,,,,,,,,,,,,,,,
,,5f06e85cf4e25a023d92fcc3,2024-02-18_23h11.27.050,kallum_motion_pilot,2023.2.2,Win32,144.9275362,5f06e85cf4e25a023d92fcc3,65d2b6c8f2eece985d8e374c,65d2b8bb664d1d730608df92,0.0237,0.0237,0,70,70,77,1,threefour,,,,,,,,,,,,,,,,,,,,,,,,,,,,,,,,,,,,,,,,,,,,,,,,,,,,,,,,,,,,,,,,,,,,,,,,,,,,,,,,,,,,,,,,,,,,,,,,,,,,,,,,,,,,,,,,,,,,,,,,,,,,,,,,,,,,,,,,,
,,5f06e85cf4e25a023d92fcc3,2024-02-18_23h11.27.050,kallum_motion_pilot,2023.2.2,Win32,144.9275362,5f06e85cf4e25a023d92fcc3,65d2b6c8f2eece985d8e374c,65d2b8bb664d1d730608df92,0.0237,0.0238,0,71,71,32,1,onetwo,,,,,,,,,,,,,,,,,,,,,,,,,,,,,,,,,,,,,,,,,,,,,,,,,,,,,,,,,,,,,,,,,,,,,,,,,,,,,,,,,,,,,,,,,,,,,,,,,,,,,,,,,,,,,,,,,,,,,,,,,,,,,,,,,,,,,,,,,
,,5f06e85cf4e25a023d92fcc3,2024-02-18_23h11.27.050,kallum_motion_pilot,2023.2.2,Win32,144.9275362,5f06e85cf4e25a023d92fcc3,65d2b6c8f2eece985d8e374c,65d2b8bb664d1d730608df92,0.0238,0.0238,0,72,72,72,1,onetwo,,,,,,,,,,,,,,,,,,,,,,,,,,,,,,,,,,,,,,,,,,,,,,,,,,,,,,,,,,,,,,,,,,,,,,,,,,,,,,,,,,,,,,,,,,,,,,,,,,,,,,,,,,,,,,,,,,,,,,,,,,,,,,,,,,,,,,,,,
,,5f06e85cf4e25a023d92fcc3,2024-02-18_23h11.27.050,kallum_motion_pilot,2023.2.2,Win32,144.9275362,5f06e85cf4e25a023d92fcc3,65d2b6c8f2eece985d8e374c,65d2b8bb664d1d730608df92,0.0239,0.0239,0,73,73,63,1,fourthree,,,,,,,,,,,,,,,,,,,,,,,,,,,,,,,,,,,,,,,,,,,,,,,,,,,,,,,,,,,,,,,,,,,,,,,,,,,,,,,,,,,,,,,,,,,,,,,,,,,,,,,,,,,,,,,,,,,,,,,,,,,,,,,,,,,,,,,,,
,,5f06e85cf4e25a023d92fcc3,2024-02-18_23h11.27.050,kallum_motion_pilot,2023.2.2,Win32,144.9275362,5f06e85cf4e25a023d92fcc3,65d2b6c8f2eece985d8e374c,65d2b8bb664d1d730608df92,0.024,0.024,0,74,74,85,1,seveneight,,,,,,,,,,,,,,,,,,,,,,,,,,,,,,,,,,,,,,,,,,,,,,,,,,,,,,,,,,,,,,,,,,,,,,,,,,,,,,,,,,,,,,,,,,,,,,,,,,,,,,,,,,,,,,,,,,,,,,,,,,,,,,,,,,,,,,,,,
,,5f06e85cf4e25a023d92fcc3,2024-02-18_23h11.27.050,kallum_motion_pilot,2023.2.2,Win32,144.9275362,5f06e85cf4e25a023d92fcc3,65d2b6c8f2eece985d8e374c,65d2b8bb664d1d730608df92,0.0241,0.0241,0,75,75,84,1,sevenfive,,,,,,,,,,,,,,,,,,,,,,,,,,,,,,,,,,,,,,,,,,,,,,,,,,,,,,,,,,,,,,,,,,,,,,,,,,,,,,,,,,,,,,,,,,,,,,,,,,,,,,,,,,,,,,,,,,,,,,,,,,,,,,,,,,,,,,,,,
,,5f06e85cf4e25a023d92fcc3,2024-02-18_23h11.27.050,kallum_motion_pilot,2023.2.2,Win32,144.9275362,5f06e85cf4e25a023d92fcc3,65d2b6c8f2eece985d8e374c,65d2b8bb664d1d730608df92,0.0241,0.0242,0,76,76,112,1,fivesix,,,,,,,,,,,,,,,,,,,,,,,,,,,,,,,,,,,,,,,,,,,,,,,,,,,,,,,,,,,,,,,,,,,,,,,,,,,,,,,,,,,,,,,,,,,,,,,,,,,,,,,,,,,,,,,,,,,,,,,,,,,,,,,,,,,,,,,,,
,,5f06e85cf4e25a023d92fcc3,2024-02-18_23h11.27.050,kallum_motion_pilot,2023.2.2,Win32,144.9275362,5f06e85cf4e25a023d92fcc3,65d2b6c8f2eece985d8e374c,65d2b8bb664d1d730608df92,0.0242,0.0242,0,77,77,67,1,twofour,,,,,,,,,,,,,,,,,,,,,,,,,,,,,,,,,,,,,,,,,,,,,,,,,,,,,,,,,,,,,,,,,,,,,,,,,,,,,,,,,,,,,,,,,,,,,,,,,,,,,,,,,,,,,,,,,,,,,,,,,,,,,,,,,,,,,,,,,
,,5f06e85cf4e25a023d92fcc3,2024-02-18_23h11.27.050,kallum_motion_pilot,2023.2.2,Win32,144.9275362,5f06e85cf4e25a023d92fcc3,65d2b6c8f2eece985d8e374c,65d2b8bb664d1d730608df92,0.0242,0.0243,0,78,78,66,1,twoone,,,,,,,,,,,,,,,,,,,,,,,,,,,,,,,,,,,,,,,,,,,,,,,,,,,,,,,,,,,,,,,,,,,,,,,,,,,,,,,,,,,,,,,,,,,,,,,,,,,,,,,,,,,,,,,,,,,,,,,,,,,,,,,,,,,,,,,,,
,,5f06e85cf4e25a023d92fcc3,2024-02-18_23h11.27.050,kallum_motion_pilot,2023.2.2,Win32,144.9275362,5f06e85cf4e25a023d92fcc3,65d2b6c8f2eece985d8e374c,65d2b8bb664d1d730608df92,0.0243,0.0243,0,79,79,130,1,sixfive,,,,,,,,,,,,,,,,,,,,,,,,,,,,,,,,,,,,,,,,,,,,,,,,,,,,,,,,,,,,,,,,,,,,,,,,,,,,,,,,,,,,,,,,,,,,,,,,,,,,,,,,,,,,,,,,,,,,,,,,,,,,,,,,,,,,,,,,,
,,5f06e85cf4e25a023d92fcc3,2024-02-18_23h11.27.050,kallum_motion_pilot,2023.2.2,Win32,144.9275362,5f06e85cf4e25a023d92fcc3,65d2b6c8f2eece985d8e374c,65d2b8bb664d1d730608df92,0.0244,0.0244,0,80,80,90,1,sixfive,,,,,,,,,,,,,,,,,,,,,,,,,,,,,,,,,,,,,,,,,,,,,,,,,,,,,,,,,,,,,,,,,,,,,,,,,,,,,,,,,,,,,,,,,,,,,,,,,,,,,,,,,,,,,,,,,,,,,,,,,,,,,,,,,,,,,,,,,
,,5f06e85cf4e25a023d92fcc3,2024-02-18_23h11.27.050,kallum_motion_pilot,2023.2.2,Win32,144.9275362,5f06e85cf4e25a023d92fcc3,65d2b6c8f2eece985d8e374c,65d2b8bb664d1d730608df92,0.0245,0.0245,0,81,81,80,1,fivesix,,,,,,,,,,,,,,,,,,,,,,,,,,,,,,,,,,,,,,,,,,,,,,,,,,,,,,,,,,,,,,,,,,,,,,,,,,,,,,,,,,,,,,,,,,,,,,,,,,,,,,,,,,,,,,,,,,,,,,,,,,,,,,,,,,,,,,,,,
,,5f06e85cf4e25a023d92fcc3,2024-02-18_23h11.27.050,kallum_motion_pilot,2023.2.2,Win32,144.9275362,5f06e85cf4e25a023d92fcc3,65d2b6c8f2eece985d8e374c,65d2b8bb664d1d730608df92,0.0245,0.0245,0,82,82,20,1,threeone,,,,,,,,,,,,,,,,,,,,,,,,,,,,,,,,,,,,,,,,,,,,,,,,,,,,,,,,,,,,,,,,,,,,,,,,,,,,,,,,,,,,,,,,,,,,,,,,,,,,,,,,,,,,,,,,,,,,,,,,,,,,,,,,,,,,,,,,,
,,5f06e85cf4e25a023d92fcc3,2024-02-18_23h11.27.050,kallum_motion_pilot,2023.2.2,Win32,144.9275362,5f06e85cf4e25a023d92fcc3,65d2b6c8f2eece985d8e374c,65d2b8bb664d1d730608df92,0.0246,0.0246,0,83,83,86,1,eightsix,,,,,,,,,,,,,,,,,,,,,,,,,,,,,,,,,,,,,,,,,,,,,,,,,,,,,,,,,,,,,,,,,,,,,,,,,,,,,,,,,,,,,,,,,,,,,,,,,,,,,,,,,,,,,,,,,,,,,,,,,,,,,,,,,,,,,,,,,
,,5f06e85cf4e25a023d92fcc3,2024-02-18_23h11.27.050,kallum_motion_pilot,2023.2.2,Win32,144.9275362,5f06e85cf4e25a023d92fcc3,65d2b6c8f2eece985d8e374c,65d2b8bb664d1d730608df92,0.0248,0.0248,0,84,84,151,1,eightseven,,,,,,,,,,,,,,,,,,,,,,,,,,,,,,,,,,,,,,,,,,,,,,,,,,,,,,,,,,,,,,,,,,,,,,,,,,,,,,,,,,,,,,,,,,,,,,,,,,,,,,,,,,,,,,,,,,,,,,,,,,,,,,,,,,,,,,,,,
,,5f06e85cf4e25a023d92fcc3,2024-02-18_23h11.27.050,kallum_motion_pilot,2023.2.2,Win32,144.9275362,5f06e85cf4e25a023d92fcc3,65d2b6c8f2eece985d8e374c,65d2b8bb664d1d730608df92,0.0248,0.0248,0,85,85,153,1,fiveseven,,,,,,,,,,,,,,,,,,,,,,,,,,,,,,,,,,,,,,,,,,,,,,,,,,,,,,,,,,,,,,,,,,,,,,,,,,,,,,,,,,,,,,,,,,,,,,,,,,,,,,,,,,,,,,,,,,,,,,,,,,,,,,,,,,,,,,,,,
,,5f06e85cf4e25a023d92fcc3,2024-02-18_23h11.27.050,kallum_motion_pilot,2023.2.2,Win32,144.9275362,5f06e85cf4e25a023d92fcc3,65d2b6c8f2eece985d8e374c,65d2b8bb664d1d730608df92,0.0249,0.0249,0,86,86,18,1,twoone,,,,,,,,,,,,,,,,,,,,,,,,,,,,,,,,,,,,,,,,,,,,,,,,,,,,,,,,,,,,,,,,,,,,,,,,,,,,,,,,,,,,,,,,,,,,,,,,,,,,,,,,,,,,,,,,,,,,,,,,,,,,,,,,,,,,,,,,,
,,5f06e85cf4e25a023d92fcc3,2024-02-18_23h11.27.050,kallum_motion_pilot,2023.2.2,Win32,144.9275362,5f06e85cf4e25a023d92fcc3,65d2b6c8f2eece985d8e374c,65d2b8bb664d1d730608df92,0.0249,0.025,0,87,87,68,1,threeone,,,,,,,,,,,,,,,,,,,,,,,,,,,,,,,,,,,,,,,,,,,,,,,,,,,,,,,,,,,,,,,,,,,,,,,,,,,,,,,,,,,,,,,,,,,,,,,,,,,,,,,,,,,,,,,,,,,,,,,,,,,,,,,,,,,,,,,,,
,,5f06e85cf4e25a023d92fcc3,2024-02-18_23h11.27.050,kallum_motion_pilot,2023.2.2,Win32,144.9275362,5f06e85cf4e25a023d92fcc3,65d2b6c8f2eece985d8e374c,65d2b8bb664d1d730608df92,0.025,0.025,0,88,88,65,1,onethree,,,,,,,,,,,,,,,,,,,,,,,,,,,,,,,,,,,,,,,,,,,,,,,,,,,,,,,,,,,,,,,,,,,,,,,,,,,,,,,,,,,,,,,,,,,,,,,,,,,,,,,,,,,,,,,,,,,,,,,,,,,,,,,,,,,,,,,,,
,,5f06e85cf4e25a023d92fcc3,2024-02-18_23h11.27.050,kallum_motion_pilot,2023.2.2,Win32,144.9275362,5f06e85cf4e25a023d92fcc3,65d2b6c8f2eece985d8e374c,65d2b8bb664d1d730608df92,0.0251,0.0251,0,89,89,104,1,fivesix,,,,,,,,,,,,,,,,,,,,,,,,,,,,,,,,,,,,,,,,,,,,,,,,,,,,,,,,,,,,,,,,,,,,,,,,,,,,,,,,,,,,,,,,,,,,,,,,,,,,,,,,,,,,,,,,,,,,,,,,,,,,,,,,,,,,,,,,,
,,5f06e85cf4e25a023d92fcc3,2024-02-18_23h11.27.050,kallum_motion_pilot,2023.2.2,Win32,144.9275362,5f06e85cf4e25a023d92fcc3,65d2b6c8f2eece985d8e374c,65d2b8bb664d1d730608df92,0.0252,0.0252,0,90,90,71,1,fourthree,,,,,,,,,,,,,,,,,,,,,,,,,,,,,,,,,,,,,,,,,,,,,,,,,,,,,,,,,,,,,,,,,,,,,,,,,,,,,,,,,,,,,,,,,,,,,,,,,,,,,,,,,,,,,,,,,,,,,,,,,,,,,,,,,,,,,,,,,
,,5f06e85cf4e25a023d92fcc3,2024-02-18_23h11.27.050,kallum_motion_pilot,2023.2.2,Win32,144.9275362,5f06e85cf4e25a023d92fcc3,65d2b6c8f2eece985d8e374c,65d2b8bb664d1d730608df92,0.0253,0.0253,0,91,91,23,1,fourthree,,,,,,,,,,,,,,,,,,,,,,,,,,,,,,,,,,,,,,,,,,,,,,,,,,,,,,,,,,,,,,,,,,,,,,,,,,,,,,,,,,,,,,,,,,,,,,,,,,,,,,,,,,,,,,,,,,,,,,,,,,,,,,,,,,,,,,,,,
,,5f06e85cf4e25a023d92fcc3,2024-02-18_23h11.27.050,kallum_motion_pilot,2023.2.2,Win32,144.9275362,5f06e85cf4e25a023d92fcc3,65d2b6c8f2eece985d8e374c,65d2b8bb664d1d730608df92,0.0253,0.0254,0,92,92,44,1,threeone,,,,,,,,,,,,,,,,,,,,,,,,,,,,,,,,,,,,,,,,,,,,,,,,,,,,,,,,,,,,,,,,,,,,,,,,,,,,,,,,,,,,,,,,,,,,,,,,,,,,,,,,,,,,,,,,,,,,,,,,,,,,,,,,,,,,,,,,,
,,5f06e85cf4e25a023d92fcc3,2024-02-18_23h11.27.050,kallum_motion_pilot,2023.2.2,Win32,144.9275362,5f06e85cf4e25a023d92fcc3,65d2b6c8f2eece985d8e374c,65d2b8bb664d1d730608df92,0.0254,0.0254,0,93,93,39,1,fourthree,,,,,,,,,,,,,,,,,,,,,,,,,,,,,,,,,,,,,,,,,,,,,,,,,,,,,,,,,,,,,,,,,,,,,,,,,,,,,,,,,,,,,,,,,,,,,,,,,,,,,,,,,,,,,,,,,,,,,,,,,,,,,,,,,,,,,,,,,
,,5f06e85cf4e25a023d92fcc3,2024-02-18_23h11.27.050,kallum_motion_pilot,2023.2.2,Win32,144.9275362,5f06e85cf4e25a023d92fcc3,65d2b6c8f2eece985d8e374c,65d2b8bb664d1d730608df92,0.0254,0.0255,0,94,94,58,1,twoone,,,,,,,,,,,,,,,,,,,,,,,,,,,,,,,,,,,,,,,,,,,,,,,,,,,,,,,,,,,,,,,,,,,,,,,,,,,,,,,,,,,,,,,,,,,,,,,,,,,,,,,,,,,,,,,,,,,,,,,,,,,,,,,,,,,,,,,,,
,,5f06e85cf4e25a023d92fcc3,2024-02-18_23h11.27.050,kallum_motion_pilot,2023.2.2,Win32,144.9275362,5f06e85cf4e25a023d92fcc3,65d2b6c8f2eece985d8e374c,65d2b8bb664d1d730608df92,0.0256,0.0256,0,95,95,95,1,eightseven,,,,,,,,,,,,,,,,,,,,,,,,,,,,,,,,,,,,,,,,,,,,,,,,,,,,,,,,,,,,,,,,,,,,,,,,,,,,,,,,,,,,,,,,,,,,,,,,,,,,,,,,,,,,,,,,,,,,,,,,,,,,,,,,,,,,,,,,,
,,5f06e85cf4e25a023d92fcc3,2024-02-18_23h11.27.050,kallum_motion_pilot,2023.2.2,Win32,144.9275362,5f06e85cf4e25a023d92fcc3,65d2b6c8f2eece985d8e374c,65d2b8bb664d1d730608df92,0.0257,0.0257,0,96,96,52,1,threeone,,,,,,,,,,,,,,,,,,,,,,,,,,,,,,,,,,,,,,,,,,,,,,,,,,,,,,,,,,,,,,,,,,,,,,,,,,,,,,,,,,,,,,,,,,,,,,,,,,,,,,,,,,,,,,,,,,,,,,,,,,,,,,,,,,,,,,,,,
,,5f06e85cf4e25a023d92fcc3,2024-02-18_23h11.27.050,kallum_motion_pilot,2023.2.2,Win32,144.9275362,5f06e85cf4e25a023d92fcc3,65d2b6c8f2eece985d8e374c,65d2b8bb664d1d730608df92,0.0257,0.0257,0,97,97,62,1,fourtwo,,,,,,,,,,,,,,,,,,,,,,,,,,,,,,,,,,,,,,,,,,,,,,,,,,,,,,,,,,,,,,,,,,,,,,,,,,,,,,,,,,,,,,,,,,,,,,,,,,,,,,,,,,,,,,,,,,,,,,,,,,,,,,,,,,,,,,,,,
,,5f06e85cf4e25a023d92fcc3,2024-02-18_23h11.27.050,kallum_motion_pilot,2023.2.2,Win32,144.9275362,5f06e85cf4e25a023d92fcc3,65d2b6c8f2eece985d8e374c,65d2b8bb664d1d730608df92,0.0259,0.0259,0,98,98,134,1,eightsix,,,,,,,,,,,,,,,,,,,,,,,,,,,,,,,,,,,,,,,,,,,,,,,,,,,,,,,,,,,,,,,,,,,,,,,,,,,,,,,,,,,,,,,,,,,,,,,,,,,,,,,,,,,,,,,,,,,,,,,,,,,,,,,,,,,,,,,,,
,,5f06e85cf4e25a023d92fcc3,2024-02-18_23h11.27.050,kallum_motion_pilot,2023.2.2,Win32,144.9275362,5f06e85cf4e25a023d92fcc3,65d2b6c8f2eece985d8e374c,65d2b8bb664d1d730608df92,0.0259,0.026,0,99,99,105,1,fiveseven,,,,,,,,,,,,,,,,,,,,,,,,,,,,,,,,,,,,,,,,,,,,,,,,,,,,,,,,,,,,,,,,,,,,,,,,,,,,,,,,,,,,,,,,,,,,,,,,,,,,,,,,,,,,,,,,,,,,,,,,,,,,,,,,,,,,,,,,,
,,5f06e85cf4e25a023d92fcc3,2024-02-18_23h11.27.050,kallum_motion_pilot,2023.2.2,Win32,144.9275362,5f06e85cf4e25a023d92fcc3,65d2b6c8f2eece985d8e374c,65d2b8bb664d1d730608df92,0.026,0.0261,0,100,100,4,1,threeone,,,,,,,,,,,,,,,,,,,,,,,,,,,,,,,,,,,,,,,,,,,,,,,,,,,,,,,,,,,,,,,,,,,,,,,,,,,,,,,,,,,,,,,,,,,,,,,,,,,,,,,,,,,,,,,,,,,,,,,,,,,,,,,,,,,,,,,,,
,,5f06e85cf4e25a023d92fcc3,2024-02-18_23h11.27.050,kallum_motion_pilot,2023.2.2,Win32,144.9275362,5f06e85cf4e25a023d92fcc3,65d2b6c8f2eece985d8e374c,65d2b8bb664d1d730608df92,0.0261,0.0262,0,101,101,74,1,twoone,,,,,,,,,,,,,,,,,,,,,,,,,,,,,,,,,,,,,,,,,,,,,,,,,,,,,,,,,,,,,,,,,,,,,,,,,,,,,,,,,,,,,,,,,,,,,,,,,,,,,,,,,,,,,,,,,,,,,,,,,,,,,,,,,,,,,,,,,
,,5f06e85cf4e25a023d92fcc3,2024-02-18_23h11.27.050,kallum_motion_pilot,2023.2.2,Win32,144.9275362,5f06e85cf4e25a023d92fcc3,65d2b6c8f2eece985d8e374c,65d2b8bb664d1d730608df92,0.0262,0.0262,0,102,102,37,1,threefour,,,,,,,,,,,,,,,,,,,,,,,,,,,,,,,,,,,,,,,,,,,,,,,,,,,,,,,,,,,,,,,,,,,,,,,,,,,,,,,,,,,,,,,,,,,,,,,,,,,,,,,,,,,,,,,,,,,,,,,,,,,,,,,,,,,,,,,,,
,,5f06e85cf4e25a023d92fcc3,2024-02-18_23h11.27.050,kallum_motion_pilot,2023.2.2,Win32,144.9275362,5f06e85cf4e25a023d92fcc3,65d2b6c8f2eece985d8e374c,65d2b8bb664d1d730608df92,0.0263,0.0263,0,103,103,35,1,twofour,,,,,,,,,,,,,,,,,,,,,,,,,,,,,,,,,,,,,,,,,,,,,,,,,,,,,,,,,,,,,,,,,,,,,,,,,,,,,,,,,,,,,,,,,,,,,,,,,,,,,,,,,,,,,,,,,,,,,,,,,,,,,,,,,,,,,,,,,
,,5f06e85cf4e25a023d92fcc3,2024-02-18_23h11.27.050,kallum_motion_pilot,2023.2.2,Win32,144.9275362,5f06e85cf4e25a023d92fcc3,65d2b6c8f2eece985d8e374c,65d2b8bb664d1d730608df92,0.0264,0.0264,0,104,104,160,1,fivesix,,,,,,,,,,,,,,,,,,,,,,,,,,,,,,,,,,,,,,,,,,,,,,,,,,,,,,,,,,,,,,,,,,,,,,,,,,,,,,,,,,,,,,,,,,,,,,,,,,,,,,,,,,,,,,,,,,,,,,,,,,,,,,,,,,,,,,,,,
,,5f06e85cf4e25a023d92fcc3,2024-02-18_23h11.27.050,kallum_motion_pilot,2023.2.2,Win32,144.9275362,5f06e85cf4e25a023d92fcc3,65d2b6c8f2eece985d8e374c,65d2b8bb664d1d730608df92,0.0265,0.0266,0,105,105,11,1,twofour,,,,,,,,,,,,,,,,,,,,,,,,,,,,,,,,,,,,,,,,,,,,,,,,,,,,,,,,,,,,,,,,,,,,,,,,,,,,,,,,,,,,,,,,,,,,,,,,,,,,,,,,,,,,,,,,,,,,,,,,,,,,,,,,,,,,,,,,,
,,5f06e85cf4e25a023d92fcc3,2024-02-18_23h11.27.050,kallum_motion_pilot,2023.2.2,Win32,144.9275362,5f06e85cf4e25a023d92fcc3,65d2b6c8f2eece985d8e374c,65d2b8bb664d1d730608df92,0.0266,0.0266,0,106,106,128,1,fivesix,,,,,,,,,,,,,,,,,,,,,,,,,,,,,,,,,,,,,,,,,,,,,,,,,,,,,,,,,,,,,,,,,,,,,,,,,,,,,,,,,,,,,,,,,,,,,,,,,,,,,,,,,,,,,,,,,,,,,,,,,,,,,,,,,,,,,,,,,
,,5f06e85cf4e25a023d92fcc3,2024-02-18_23h11.27.050,kallum_motion_pilot,2023.2.2,Win32,144.9275362,5f06e85cf4e25a023d92fcc3,65d2b6c8f2eece985d8e374c,65d2b8bb664d1d730608df92,0.0266,0.0267,0,107,107,129,1,fiveseven,,,,,,,,,,,,,,,,,,,,,,,,,,,,,,,,,,,,,,,,,,,,,,,,,,,,,,,,,,,,,,,,,,,,,,,,,,,,,,,,,,,,,,,,,,,,,,,,,,,,,,,,,,,,,,,,,,,,,,,,,,,,,,,,,,,,,,,,,
,,5f06e85cf4e25a023d92fcc3,2024-02-18_23h11.27.050,kallum_motion_pilot,2023.2.2,Win32,144.9275362,5f06e85cf4e25a023d92fcc3,65d2b6c8f2eece985d8e374c,65d2b8bb664d1d730608df92,0.0267,0.0267,0,108,108,146,1,sixfive,,,,,,,,,,,,,,,,,,,,,,,,,,,,,,,,,,,,,,,,,,,,,,,,,,,,,,,,,,,,,,,,,,,,,,,,,,,,,,,,,,,,,,,,,,,,,,,,,,,,,,,,,,,,,,,,,,,,,,,,,,,,,,,,,,,,,,,,,
,,5f06e85cf4e25a023d92fcc3,2024-02-18_23h11.27.050,kallum_motion_pilot,2023.2.2,Win32,144.9275362,5f06e85cf4e25a023d92fcc3,65d2b6c8f2eece985d8e374c,65d2b8bb664d1d730608df92,0.0268,0.0268,0,109,109,158,1,eightsix,,,,,,,,,,,,,,,,,,,,,,,,,,,,,,,,,,,,,,,,,,,,,,,,,,,,,,,,,,,,,,,,,,,,,,,,,,,,,,,,,,,,,,,,,,,,,,,,,,,,,,,,,,,,,,,,,,,,,,,,,,,,,,,,,,,,,,,,,
,,5f06e85cf4e25a023d92fcc3,2024-02-18_23h11.27.050,kallum_motion_pilot,2023.2.2,Win32,144.9275362,5f06e85cf4e25a023d92fcc3,65d2b6c8f2eece985d8e374c,65d2b8bb664d1d730608df92,0.0269,0.0269,0,110,110,16,1,onetwo,,,,,,,,,,,,,,,,,,,,,,,,,,,,,,,,,,,,,,,,,,,,,,,,,,,,,,,,,,,,,,,,,,,,,,,,,,,,,,,,,,,,,,,,,,,,,,,,,,,,,,,,,,,,,,,,,,,,,,,,,,,,,,,,,,,,,,,,,
,,5f06e85cf4e25a023d92fcc3,2024-02-18_23h11.27.050,kallum_motion_pilot,2023.2.2,Win32,144.9275362,5f06e85cf4e25a023d92fcc3,65d2b6c8f2eece985d8e374c,65d2b8bb664d1d730608df92,0.027,0.027,0,111,111,14,1,fourtwo,,,,,,,,,,,,,,,,,,,,,,,,,,,,,,,,,,,,,,,,,,,,,,,,,,,,,,,,,,,,,,,,,,,,,,,,,,,,,,,,,,,,,,,,,,,,,,,,,,,,,,,,,,,,,,,,,,,,,,,,,,,,,,,,,,,,,,,,,
,,5f06e85cf4e25a023d92fcc3,2024-02-18_23h11.27.050,kallum_motion_pilot,2023.2.2,Win32,144.9275362,5f06e85cf4e25a023d92fcc3,65d2b6c8f2eece985d8e374c,65d2b8bb664d1d730608df92,0.0271,0.0271,0,112,112,28,1,threeone,,,,,,,,,,,,,,,,,,,,,,,,,,,,,,,,,,,,,,,,,,,,,,,,,,,,,,,,,,,,,,,,,,,,,,,,,,,,,,,,,,,,,,,,,,,,,,,,,,,,,,,,,,,,,,,,,,,,,,,,,,,,,,,,,,,,,,,,,
,,5f06e85cf4e25a023d92fcc3,2024-02-18_23h11.27.050,kallum_motion_pilot,2023.2.2,Win32,144.9275362,5f06e85cf4e25a023d92fcc3,65d2b6c8f2eece985d8e374c,65d2b8bb664d1d730608df92,0.0272,0.0272,0,113,113,138,1,sixfive,,,,,,,,,,,,,,,,,,,,,,,,,,,,,,,,,,,,,,,,,,,,,,,,,,,,,,,,,,,,,,,,,,,,,,,,,,,,,,,,,,,,,,,,,,,,,,,,,,,,,,,,,,,,,,,,,,,,,,,,,,,,,,,,,,,,,,,,,
,,5f06e85cf4e25a023d92fcc3,2024-02-18_23h11.27.050,kallum_motion_pilot,2023.2.2,Win32,144.9275362,5f06e85cf4e25a023d92fcc3,65d2b6c8f2eece985d8e374c,65d2b8bb664d1d730608df92,0.0272,0.0272,0,114,114,31,1,fourthree,,,,,,,,,,,,,,,,,,,,,,,,,,,,,,,,,,,,,,,,,,,,,,,,,,,,,,,,,,,,,,,,,,,,,,,,,,,,,,,,,,,,,,,,,,,,,,,,,,,,,,,,,,,,,,,,,,,,,,,,,,,,,,,,,,,,,,,,,
,,5f06e85cf4e25a023d92fcc3,2024-02-18_23h11.27.050,kallum_motion_pilot,2023.2.2,Win32,144.9275362,5f06e85cf4e25a023d92fcc3,65d2b6c8f2eece985d8e374c,65d2b8bb664d1d730608df92,0.0273,0.0273,0,115,115,19,1,twofour,,,,,,,,,,,,,,,,,,,,,,,,,,,,,,,,,,,,,,,,,,,,,,,,,,,,,,,,,,,,,,,,,,,,,,,,,,,,,,,,,,,,,,,,,,,,,,,,,,,,,,,,,,,,,,,,,,,,,,,,,,,,,,,,,,,,,,,,,
,,5f06e85cf4e25a023d92fcc3,2024-02-18_23h11.27.050,kallum_motion_pilot,2023.2.2,Win32,144.9275362,5f06e85cf4e25a023d92fcc3,65d2b6c8f2eece985d8e374c,65d2b8bb664d1d730608df92,0.0274,0.0274,0,116,116,131,1,sixeight,,,,,,,,,,,,,,,,,,,,,,,,,,,,,,,,,,,,,,,,,,,,,,,,,,,,,,,,,,,,,,,,,,,,,,,,,,,,,,,,,,,,,,,,,,,,,,,,,,,,,,,,,,,,,,,,,,,,,,,,,,,,,,,,,,,,,,,,,
,,5f06e85cf4e25a023d92fcc3,2024-02-18_23h11.27.050,kallum_motion_pilot,2023.2.2,Win32,144.9275362,5f06e85cf4e25a023d92fcc3,65d2b6c8f2eece985d8e374c,65d2b8bb664d1d730608df92,0.0274,0.0275,0,117,117,118,1,eightsix,,,,,,,,,,,,,,,,,,,,,,,,,,,,,,,,,,,,,,,,,,,,,,,,,,,,,,,,,,,,,,,,,,,,,,,,,,,,,,,,,,,,,,,,,,,,,,,,,,,,,,,,,,,,,,,,,,,,,,,,,,,,,,,,,,,,,,,,,
,,5f06e85cf4e25a023d92fcc3,2024-02-18_23h11.27.050,kallum_motion_pilot,2023.2.2,Win32,144.9275362,5f06e85cf4e25a023d92fcc3,65d2b6c8f2eece985d8e374c,65d2b8bb664d1d730608df92,0.0275,0.0275,0,118,118,2,1,twoone,,,,,,,,,,,,,,,,,,,,,,,,,,,,,,,,,,,,,,,,,,,,,,,,,,,,,,,,,,,,,,,,,,,,,,,,,,,,,,,,,,,,,,,,,,,,,,,,,,,,,,,,,,,,,,,,,,,,,,,,,,,,,,,,,,,,,,,,,
,,5f06e85cf4e25a023d92fcc3,2024-02-18_23h11.27.050,kallum_motion_pilot,2023.2.2,Win32,144.9275362,5f06e85cf4e25a023d92fcc3,65d2b6c8f2eece985d8e374c,65d2b8bb664d1d730608df92,0.0276,0.0277,0,119,119,145,1,fiveseven,,,,,,,,,,,,,,,,,,,,,,,,,,,,,,,,,,,,,,,,,,,,,,,,,,,,,,,,,,,,,,,,,,,,,,,,,,,,,,,,,,,,,,,,,,,,,,,,,,,,,,,,,,,,,,,,,,,,,,,,,,,,,,,,,,,,,,,,,
,,5f06e85cf4e25a023d92fcc3,2024-02-18_23h11.27.050,kallum_motion_pilot,2023.2.2,Win32,144.9275362,5f06e85cf4e25a023d92fcc3,65d2b6c8f2eece985d8e374c,65d2b8bb664d1d730608df92,0.0278,0.0278,0,120,120,54,1,fourtwo,,,,,,,,,,,,,,,,,,,,,,,,,,,,,,,,,,,,,,,,,,,,,,,,,,,,,,,,,,,,,,,,,,,,,,,,,,,,,,,,,,,,,,,,,,,,,,,,,,,,,,,,,,,,,,,,,,,,,,,,,,,,,,,,,,,,,,,,,
,,5f06e85cf4e25a023d92fcc3,2024-02-18_23h11.27.050,kallum_motion_pilot,2023.2.2,Win32,144.9275362,5f06e85cf4e25a023d92fcc3,65d2b6c8f2eece985d8e374c,65d2b8bb664d1d730608df92,0.0278,0.0279,0,121,121,49,1,onethree,,,,,,,,,,,,,,,,,,,,,,,,,,,,,,,,,,,,,,,,,,,,,,,,,,,,,,,,,,,,,,,,,,,,,,,,,,,,,,,,,,,,,,,,,,,,,,,,,,,,,,,,,,,,,,,,,,,,,,,,,,,,,,,,,,,,,,,,,
,,5f06e85cf4e25a023d92fcc3,2024-02-18_23h11.27.050,kallum_motion_pilot,2023.2.2,Win32,144.9275362,5f06e85cf4e25a023d92fcc3,65d2b6c8f2eece985d8e374c,65d2b8bb664d1d730608df92,0.0279,0.028,0,122,122,0,1,onetwo,,,,,,,,,,,,,,,,,,,,,,,,,,,,,,,,,,,,,,,,,,,,,,,,,,,,,,,,,,,,,,,,,,,,,,,,,,,,,,,,,,,,,,,,,,,,,,,,,,,,,,,,,,,,,,,,,,,,,,,,,,,,,,,,,,,,,,,,,
,,5f06e85cf4e25a023d92fcc3,2024-02-18_23h11.27.050,kallum_motion_pilot,2023.2.2,Win32,144.9275362,5f06e85cf4e25a023d92fcc3,65d2b6c8f2eece985d8e374c,65d2b8bb664d1d730608df92,0.028,0.0281,0,123,123,116,1,sevenfive,,,,,,,,,,,,,,,,,,,,,,,,,,,,,,,,,,,,,,,,,,,,,,,,,,,,,,,,,,,,,,,,,,,,,,,,,,,,,,,,,,,,,,,,,,,,,,,,,,,,,,,,,,,,,,,,,,,,,,,,,,,,,,,,,,,,,,,,,
,,5f06e85cf4e25a023d92fcc3,2024-02-18_23h11.27.050,kallum_motion_pilot,2023.2.2,Win32,144.9275362,5f06e85cf4e25a023d92fcc3,65d2b6c8f2eece985d8e374c,65d2b8bb664d1d730608df92,0.0281,0.0281,0,124,124,81,1,fiveseven,,,,,,,,,,,,,,,,,,,,,,,,,,,,,,,,,,,,,,,,,,,,,,,,,,,,,,,,,,,,,,,,,,,,,,,,,,,,,,,,,,,,,,,,,,,,,,,,,,,,,,,,,,,,,,,,,,,,,,,,,,,,,,,,,,,,,,,,,
,,5f06e85cf4e25a023d92fcc3,2024-02-18_23h11.27.050,kallum_motion_pilot,2023.2.2,Win32,144.9275362,5f06e85cf4e25a023d92fcc3,65d2b6c8f2eece985d8e374c,65d2b8bb664d1d730608df92,0.0281,0.0282,0,125,125,89,1,fiveseven,,,,,,,,,,,,,,,,,,,,,,,,,,,,,,,,,,,,,,,,,,,,,,,,,,,,,,,,,,,,,,,,,,,,,,,,,,,,,,,,,,,,,,,,,,,,,,,,,,,,,,,,,,,,,,,,,,,,,,,,,,,,,,,,,,,,,,,,,
,,5f06e85cf4e25a023d92fcc3,2024-02-18_23h11.27.050,kallum_motion_pilot,2023.2.2,Win32,144.9275362,5f06e85cf4e25a023d92fcc3,65d2b6c8f2eece985d8e374c,65d2b8bb664d1d730608df92,0.0282,0.0283,0,126,126,48,1,onetwo,,,,,,,,,,,,,,,,,,,,,,,,,,,,,,,,,,,,,,,,,,,,,,,,,,,,,,,,,,,,,,,,,,,,,,,,,,,,,,,,,,,,,,,,,,,,,,,,,,,,,,,,,,,,,,,,,,,,,,,,,,,,,,,,,,,,,,,,,
,,5f06e85cf4e25a023d92fcc3,2024-02-18_23h11.27.050,kallum_motion_pilot,2023.2.2,Win32,144.9275362,5f06e85cf4e25a023d92fcc3,65d2b6c8f2eece985d8e374c,65d2b8bb664d1d730608df92,0.0284,0.0284,0,127,127,108,1,sevenfive,,,,,,,,,,,,,,,,,,,,,,,,,,,,,,,,,,,,,,,,,,,,,,,,,,,,,,,,,,,,,,,,,,,,,,,,,,,,,,,,,,,,,,,,,,,,,,,,,,,,,,,,,,,,,,,,,,,,,,,,,,,,,,,,,,,,,,,,,
,,5f06e85cf4e25a023d92fcc3,2024-02-18_23h11.27.050,kallum_motion_pilot,2023.2.2,Win32,144.9275362,5f06e85cf4e25a023d92fcc3,65d2b6c8f2eece985d8e374c,65d2b8bb664d1d730608df92,0.0285,0.0285,0,128,128,110,1,eightsix,,,,,,,,,,,,,,,,,,,,,,,,,,,,,,,,,,,,,,,,,,,,,,,,,,,,,,,,,,,,,,,,,,,,,,,,,,,,,,,,,,,,,,,,,,,,,,,,,,,,,,,,,,,,,,,,,,,,,,,,,,,,,,,,,,,,,,,,,
,,5f06e85cf4e25a023d92fcc3,2024-02-18_23h11.27.050,kallum_motion_pilot,2023.2.2,Win32,144.9275362,5f06e85cf4e25a023d92fcc3,65d2b6c8f2eece985d8e374c,65d2b8bb664d1d730608df92,0.0286,0.0286,0,129,129,15,1,fourthree,,,,,,,,,,,,,,,,,,,,,,,,,,,,,,,,,,,,,,,,,,,,,,,,,,,,,,,,,,,,,,,,,,,,,,,,,,,,,,,,,,,,,,,,,,,,,,,,,,,,,,,,,,,,,,,,,,,,,,,,,,,,,,,,,,,,,,,,,
,,5f06e85cf4e25a023d92fcc3,2024-02-18_23h11.27.050,kallum_motion_pilot,2023.2.2,Win32,144.9275362,5f06e85cf4e25a023d92fcc3,65d2b6c8f2eece985d8e374c,65d2b8bb664d1d730608df92,0.0286,0.0287,0,130,130,24,1,onetwo,,,,,,,,,,,,,,,,,,,,,,,,,,,,,,,,,,,,,,,,,,,,,,,,,,,,,,,,,,,,,,,,,,,,,,,,,,,,,,,,,,,,,,,,,,,,,,,,,,,,,,,,,,,,,,,,,,,,,,,,,,,,,,,,,,,,,,,,,
,,5f06e85cf4e25a023d92fcc3,2024-02-18_23h11.27.050,kallum_motion_pilot,2023.2.2,Win32,144.9275362,5f06e85cf4e25a023d92fcc3,65d2b6c8f2eece985d8e374c,65d2b8bb664d1d730608df92,0.0287,0.0287,0,131,131,96,1,fivesix,,,,,,,,,,,,,,,,,,,,,,,,,,,,,,,,,,,,,,,,,,,,,,,,,,,,,,,,,,,,,,,,,,,,,,,,,,,,,,,,,,,,,,,,,,,,,,,,,,,,,,,,,,,,,,,,,,,,,,,,,,,,,,,,,,,,,,,,,
,,5f06e85cf4e25a023d92fcc3,2024-02-18_23h11.27.050,kallum_motion_pilot,2023.2.2,Win32,144.9275362,5f06e85cf4e25a023d92fcc3,65d2b6c8f2eece985d8e374c,65d2b8bb664d1d730608df92,0.0288,0.0288,0,132,132,55,1,fourthree,,,,,,,,,,,,,,,,,,,,,,,,,,,,,,,,,,,,,,,,,,,,,,,,,,,,,,,,,,,,,,,,,,,,,,,,,,,,,,,,,,,,,,,,,,,,,,,,,,,,,,,,,,,,,,,,,,,,,,,,,,,,,,,,,,,,,,,,,
,,5f06e85cf4e25a023d92fcc3,2024-02-18_23h11.27.050,kallum_motion_pilot,2023.2.2,Win32,144.9275362,5f06e85cf4e25a023d92fcc3,65d2b6c8f2eece985d8e374c,65d2b8bb664d1d730608df92,0.029,0.029,0,133,133,127,1,eightseven,,,,,,,,,,,,,,,,,,,,,,,,,,,,,,,,,,,,,,,,,,,,,,,,,,,,,,,,,,,,,,,,,,,,,,,,,,,,,,,,,,,,,,,,,,,,,,,,,,,,,,,,,,,,,,,,,,,,,,,,,,,,,,,,,,,,,,,,,
,,5f06e85cf4e25a023d92fcc3,2024-02-18_23h11.27.050,kallum_motion_pilot,2023.2.2,Win32,144.9275362,5f06e85cf4e25a023d92fcc3,65d2b6c8f2eece985d8e374c,65d2b8bb664d1d730608df92,0.029,0.029,0,134,134,27,1,twofour,,,,,,,,,,,,,,,,,,,,,,,,,,,,,,,,,,,,,,,,,,,,,,,,,,,,,,,,,,,,,,,,,,,,,,,,,,,,,,,,,,,,,,,,,,,,,,,,,,,,,,,,,,,,,,,,,,,,,,,,,,,,,,,,,,,,,,,,,
,,5f06e85cf4e25a023d92fcc3,2024-02-18_23h11.27.050,kallum_motion_pilot,2023.2.2,Win32,144.9275362,5f06e85cf4e25a023d92fcc3,65d2b6c8f2eece985d8e374c,65d2b8bb664d1d730608df92,0.0291,0.0292,0,135,135,157,1,seveneight,,,,,,,,,,,,,,,,,,,,,,,,,,,,,,,,,,,,,,,,,,,,,,,,,,,,,,,,,,,,,,,,,,,,,,,,,,,,,,,,,,,,,,,,,,,,,,,,,,,,,,,,,,,,,,,,,,,,,,,,,,,,,,,,,,,,,,,,,
,,5f06e85cf4e25a023d92fcc3,2024-02-18_23h11.27.050,kallum_motion_pilot,2023.2.2,Win32,144.9275362,5f06e85cf4e25a023d92fcc3,65d2b6c8f2eece985d8e374c,65d2b8bb664d1d730608df92,0.0292,0.0292,0,136,136,45,1,threefour,,,,,,,,,,,,,,,,,,,,,,,,,,,,,,,,,,,,,,,,,,,,,,,,,,,,,,,,,,,,,,,,,,,,,,,,,,,,,,,,,,,,,,,,,,,,,,,,,,,,,,,,,,,,,,,,,,,,,,,,,,,,,,,,,,,,,,,,,
,,5f06e85cf4e25a023d92fcc3,2024-02-18_23h11.27.050,kallum_motion_pilot,2023.2.2,Win32,144.9275362,5f06e85cf4e25a023d92fcc3,65d2b6c8f2eece985d8e374c,65d2b8bb664d1d730608df92,0.0292,0.0292,0,137,137,56,1,onetwo,,,,,,,,,,,,,,,,,,,,,,,,,,,,,,,,,,,,,,,,,,,,,,,,,,,,,,,,,,,,,,,,,,,,,,,,,,,,,,,,,,,,,,,,,,,,,,,,,,,,,,,,,,,,,,,,,,,,,,,,,,,,,,,,,,,,,,,,,
,,5f06e85cf4e25a023d92fcc3,2024-02-18_23h11.27.050,kallum_motion_pilot,2023.2.2,Win32,144.9275362,5f06e85cf4e25a023d92fcc3,65d2b6c8f2eece985d8e374c,65d2b8bb664d1d730608df92,0.0294,0.0294,0,138,138,107,1,sixeight,,,,,,,,,,,,,,,,,,,,,,,,,,,,,,,,,,,,,,,,,,,,,,,,,,,,,,,,,,,,,,,,,,,,,,,,,,,,,,,,,,,,,,,,,,,,,,,,,,,,,,,,,,,,,,,,,,,,,,,,,,,,,,,,,,,,,,,,,
,,5f06e85cf4e25a023d92fcc3,2024-02-18_23h11.27.050,kallum_motion_pilot,2023.2.2,Win32,144.9275362,5f06e85cf4e25a023d92fcc3,65d2b6c8f2eece985d8e374c,65d2b8bb664d1d730608df92,0.0295,0.0296,0,139,139,7,1,fourthree,,,,,,,,,,,,,,,,,,,,,,,,,,,,,,,,,,,,,,,,,,,,,,,,,,,,,,,,,,,,,,,,,,,,,,,,,,,,,,,,,,,,,,,,,,,,,,,,,,,,,,,,,,,,,,,,,,,,,,,,,,,,,,,,,,,,,,,,,
,,5f06e85cf4e25a023d92fcc3,2024-02-18_23h11.27.050,kallum_motion_pilot,2023.2.2,Win32,144.9275362,5f06e85cf4e25a023d92fcc3,65d2b6c8f2eece985d8e374c,65d2b8bb664d1d730608df92,0.0296,0.0296,0,140,140,3,1,twofour,,,,,,,,,,,,,,,,,,,,,,,,,,,,,,,,,,,,,,,,,,,,,,,,,,,,,,,,,,,,,,,,,,,,,,,,,,,,,,,,,,,,,,,,,,,,,,,,,,,,,,,,,,,,,,,,,,,,,,,,,,,,,,,,,,,,,,,,,
,,5f06e85cf4e25a023d92fcc3,2024-02-18_23h11.27.050,kallum_motion_pilot,2023.2.2,Win32,144.9275362,5f06e85cf4e25a023d92fcc3,65d2b6c8f2eece985d8e374c,65d2b8bb664d1d730608df92,0.0298,0.0298,0,141,141,117,1,seveneight,,,,,,,,,,,,,,,,,,,,,,,,,,,,,,,,,,,,,,,,,,,,,,,,,,,,,,,,,,,,,,,,,,,,,,,,,,,,,,,,,,,,,,,,,,,,,,,,,,,,,,,,,,,,,,,,,,,,,,,,,,,,,,,,,,,,,,,,,
,,5f06e85cf4e25a023d92fcc3,2024-02-18_23h11.27.050,kallum_motion_pilot,2023.2.2,Win32,144.9275362,5f06e85cf4e25a023d92fcc3,65d2b6c8f2eece985d8e374c,65d2b8bb664d1d730608df92,0.0298,0.0298,0,142,142,135,1,eightseven,,,,,,,,,,,,,,,,,,,,,,,,,,,,,,,,,,,,,,,,,,,,,,,,,,,,,,,,,,,,,,,,,,,,,,,,,,,,,,,,,,,,,,,,,,,,,,,,,,,,,,,,,,,,,,,,,,,,,,,,,,,,,,,,,,,,,,,,,
,,5f06e85cf4e25a023d92fcc3,2024-02-18_23h11.27.050,kallum_motion_pilot,2023.2.2,Win32,144.9275362,5f06e85cf4e25a023d92fcc3,65d2b6c8f2eece985d8e374c,65d2b8bb664d1d730608df92,0.0299,0.0299,0,143,143,102,1,eightsix,,,,,,,,,,,,,,,,,,,,,,,,,,,,,,,,,,,,,,,,,,,,,,,,,,,,,,,,,,,,,,,,,,,,,,,,,,,,,,,,,,,,,,,,,,,,,,,,,,,,,,,,,,,,,,,,,,,,,,,,,,,,,,,,,,,,,,,,,
,,5f06e85cf4e25a023d92fcc3,2024-02-18_23h11.27.050,kallum_motion_pilot,2023.2.2,Win32,144.9275362,5f06e85cf4e25a023d92fcc3,65d2b6c8f2eece985d8e374c,65d2b8bb664d1d730608df92,0.03,0.0301,0,144,144,106,1,sixfive,,,,,,,,,,,,,,,,,,,,,,,,,,,,,,,,,,,,,,,,,,,,,,,,,,,,,,,,,,,,,,,,,,,,,,,,,,,,,,,,,,,,,,,,,,,,,,,,,,,,,,,,,,,,,,,,,,,,,,,,,,,,,,,,,,,,,,,,,
,,5f06e85cf4e25a023d92fcc3,2024-02-18_23h11.27.050,kallum_motion_pilot,2023.2.2,Win32,144.9275362,5f06e85cf4e25a023d92fcc3,65d2b6c8f2eece985d8e374c,65d2b8bb664d1d730608df92,0.0301,0.0302,0,145,145,40,1,onetwo,,,,,,,,,,,,,,,,,,,,,,,,,,,,,,,,,,,,,,,,,,,,,,,,,,,,,,,,,,,,,,,,,,,,,,,,,,,,,,,,,,,,,,,,,,,,,,,,,,,,,,,,,,,,,,,,,,,,,,,,,,,,,,,,,,,,,,,,,
,,5f06e85cf4e25a023d92fcc3,2024-02-18_23h11.27.050,kallum_motion_pilot,2023.2.2,Win32,144.9275362,5f06e85cf4e25a023d92fcc3,65d2b6c8f2eece985d8e374c,65d2b8bb664d1d730608df92,0.0302,0.0303,0,146,146,78,1,fourtwo,,,,,,,,,,,,,,,,,,,,,,,,,,,,,,,,,,,,,,,,,,,,,,,,,,,,,,,,,,,,,,,,,,,,,,,,,,,,,,,,,,,,,,,,,,,,,,,,,,,,,,,,,,,,,,,,,,,,,,,,,,,,,,,,,,,,,,,,,
,,5f06e85cf4e25a023d92fcc3,2024-02-18_23h11.27.050,kallum_motion_pilot,2023.2.2,Win32,144.9275362,5f06e85cf4e25a023d92fcc3,65d2b6c8f2eece985d8e374c,65d2b8bb664d1d730608df92,0.0303,0.0304,0,147,147,143,1,eightseven,,,,,,,,,,,,,,,,,,,,,,,,,,,,,,,,,,,,,,,,,,,,,,,,,,,,,,,,,,,,,,,,,,,,,,,,,,,,,,,,,,,,,,,,,,,,,,,,,,,,,,,,,,,,,,,,,,,,,,,,,,,,,,,,,,,,,,,,,
,,5f06e85cf4e25a023d92fcc3,2024-02-18_23h11.27.050,kallum_motion_pilot,2023.2.2,Win32,144.9275362,5f06e85cf4e25a023d92fcc3,65d2b6c8f2eece985d8e374c,65d2b8bb664d1d730608df92,0.0304,0.0304,0,148,148,100,1,sevenfive,,,,,,,,,,,,,,,,,,,,,,,,,,,,,,,,,,,,,,,,,,,,,,,,,,,,,,,,,,,,,,,,,,,,,,,,,,,,,,,,,,,,,,,,,,,,,,,,,,,,,,,,,,,,,,,,,,,,,,,,,,,,,,,,,,,,,,,,,
,,5f06e85cf4e25a023d92fcc3,2024-02-18_23h11.27.050,kallum_motion_pilot,2023.2.2,Win32,144.9275362,5f06e85cf4e25a023d92fcc3,65d2b6c8f2eece985d8e374c,65d2b8bb664d1d730608df92,0.0305,0.0305,0,149,149,36,1,threeone,,,,,,,,,,,,,,,,,,,,,,,,,,,,,,,,,,,,,,,,,,,,,,,,,,,,,,,,,,,,,,,,,,,,,,,,,,,,,,,,,,,,,,,,,,,,,,,,,,,,,,,,,,,,,,,,,,,,,,,,,,,,,,,,,,,,,,,,,
,,5f06e85cf4e25a023d92fcc3,2024-02-18_23h11.27.050,kallum_motion_pilot,2023.2.2,Win32,144.9275362,5f06e85cf4e25a023d92fcc3,65d2b6c8f2eece985d8e374c,65d2b8bb664d1d730608df92,0.0306,0.0306,0,150,150,59,1,twofour,,,,,,,,,,,,,,,,,,,,,,,,,,,,,,,,,,,,,,,,,,,,,,,,,,,,,,,,,,,,,,,,,,,,,,,,,,,,,,,,,,,,,,,,,,,,,,,,,,,,,,,,,,,,,,,,,,,,,,,,,,,,,,,,,,,,,,,,,
,,5f06e85cf4e25a023d92fcc3,2024-02-18_23h11.27.050,kallum_motion_pilot,2023.2.2,Win32,144.9275362,5f06e85cf4e25a023d92fcc3,65d2b6c8f2eece985d8e374c,65d2b8bb664d1d730608df92,0.0306,0.0307,0,151,151,46,1,fourtwo,,,,,,,,,,,,,,,,,,,,,,,,,,,,,,,,,,,,,,,,,,,,,,,,,,,,,,,,,,,,,,,,,,,,,,,,,,,,,,,,,,,,,,,,,,,,,,,,,,,,,,,,,,,,,,,,,,,,,,,,,,,,,,,,,,,,,,,,,
,,5f06e85cf4e25a023d92fcc3,2024-02-18_23h11.27.050,kallum_motion_pilot,2023.2.2,Win32,144.9275362,5f06e85cf4e25a023d92fcc3,65d2b6c8f2eece985d8e374c,65d2b8bb664d1d730608df92,0.0308,0.0308,0,152,152,97,1,fiveseven,,,,,,,,,,,,,,,,,,,,,,,,,,,,,,,,,,,,,,,,,,,,,,,,,,,,,,,,,,,,,,,,,,,,,,,,,,,,,,,,,,,,,,,,,,,,,,,,,,,,,,,,,,,,,,,,,,,,,,,,,,,,,,,,,,,,,,,,,
,,5f06e85cf4e25a023d92fcc3,2024-02-18_23h11.27.050,kallum_motion_pilot,2023.2.2,Win32,144.9275362,5f06e85cf4e25a023d92fcc3,65d2b6c8f2eece985d8e374c,65d2b8bb664d1d730608df92,0.0308,0.0309,0,153,153,148,1,sevenfive,,,,,,,,,,,,,,,,,,,,,,,,,,,,,,,,,,,,,,,,,,,,,,,,,,,,,,,,,,,,,,,,,,,,,,,,,,,,,,,,,,,,,,,,,,,,,,,,,,,,,,,,,,,,,,,,,,,,,,,,,,,,,,,,,,,,,,,,,
,,5f06e85cf4e25a023d92fcc3,2024-02-18_23h11.27.050,kallum_motion_pilot,2023.2.2,Win32,144.9275362,5f06e85cf4e25a023d92fcc3,65d2b6c8f2eece985d8e374c,65d2b8bb664d1d730608df92,0.031,0.031,0,154,154,141,1,seveneight,,,,,,,,,,,,,,,,,,,,,,,,,,,,,,,,,,,,,,,,,,,,,,,,,,,,,,,,,,,,,,,,,,,,,,,,,,,,,,,,,,,,,,,,,,,,,,,,,,,,,,,,,,,,,,,,,,,,,,,,,,,,,,,,,,,,,,,,,
,,5f06e85cf4e25a023d92fcc3,2024-02-18_23h11.27.050,kallum_motion_pilot,2023.2.2,Win32,144.9275362,5f06e85cf4e25a023d92fcc3,65d2b6c8f2eece985d8e374c,65d2b8bb664d1d730608df92,0.031,0.0311,0,155,155,156,1,sevenfive,,,,,,,,,,,,,,,,,,,,,,,,,,,,,,,,,,,,,,,,,,,,,,,,,,,,,,,,,,,,,,,,,,,,,,,,,,,,,,,,,,,,,,,,,,,,,,,,,,,,,,,,,,,,,,,,,,,,,,,,,,,,,,,,,,,,,,,,,
,,5f06e85cf4e25a023d92fcc3,2024-02-18_23h11.27.050,kallum_motion_pilot,2023.2.2,Win32,144.9275362,5f06e85cf4e25a023d92fcc3,65d2b6c8f2eece985d8e374c,65d2b8bb664d1d730608df92,0.0311,0.0312,0,156,156,25,1,onethree,,,,,,,,,,,,,,,,,,,,,,,,,,,,,,,,,,,,,,,,,,,,,,,,,,,,,,,,,,,,,,,,,,,,,,,,,,,,,,,,,,,,,,,,,,,,,,,,,,,,,,,,,,,,,,,,,,,,,,,,,,,,,,,,,,,,,,,,,
,,5f06e85cf4e25a023d92fcc3,2024-02-18_23h11.27.050,kallum_motion_pilot,2023.2.2,Win32,144.9275362,5f06e85cf4e25a023d92fcc3,65d2b6c8f2eece985d8e374c,65d2b8bb664d1d730608df92,0.0312,0.0313,0,157,157,21,1,threefour,,,,,,,,,,,,,,,,,,,,,,,,,,,,,,,,,,,,,,,,,,,,,,,,,,,,,,,,,,,,,,,,,,,,,,,,,,,,,,,,,,,,,,,,,,,,,,,,,,,,,,,,,,,,,,,,,,,,,,,,,,,,,,,,,,,,,,,,,
,,5f06e85cf4e25a023d92fcc3,2024-02-18_23h11.27.050,kallum_motion_pilot,2023.2.2,Win32,144.9275362,5f06e85cf4e25a023d92fcc3,65d2b6c8f2eece985d8e374c,65d2b8bb664d1d730608df92,0.0313,0.0314,0,158,158,8,1,onetwo,,,,,,,,,,,,,,,,,,,,,,,,,,,,,,,,,,,,,,,,,,,,,,,,,,,,,,,,,,,,,,,,,,,,,,,,,,,,,,,,,,,,,,,,,,,,,,,,,,,,,,,,,,,,,,,,,,,,,,,,,,,,,,,,,,,,,,,,,
,,5f06e85cf4e25a023d92fcc3,2024-02-18_23h11.27.050,kallum_motion_pilot,2023.2.2,Win32,144.9275362,5f06e85cf4e25a023d92fcc3,65d2b6c8f2eece985d8e374c,65d2b8bb664d1d730608df92,0.0314,0.0314,0,159,159,150,1,eightsix,,,,,,,,,,,,,,,,,,,,,,,,,,,,,,,,,,,,,,,,,,,,,,,,,,,,,,,,,,,,,,,,,,,,,,,,,,,,,,,,,,,,,,,,,,,,,,,,,,,,,,,,,,,,,,,,,,,,,,,,,,,,,,,,,,,,,,,,,
,,5f06e85cf4e25a023d92fcc3,2024-02-18_23h11.27.050,kallum_motion_pilot,2023.2.2,Win32,144.9275362,5f06e85cf4e25a023d92fcc3,65d2b6c8f2eece985d8e374c,65d2b8bb664d1d730608df92,0.0314,0.0316,0,160,160,92,1,sevenfive,,,,,,,,,,,,,,,,,,,,,,,,,,,,,,,,,,,,,,,,,,,,,,,,,,,,,,,,,,,,,,,,,,,,,,,,,,,,,,,,,,,,,,,,,,,,,,,,,,,,,,,,,,,,,,,,,,,,,,,,,,,,,,,,,,,,,,,,,
,,5f06e85cf4e25a023d92fcc3,2024-02-18_23h11.27.050,kallum_motion_pilot,2023.2.2,Win32,144.9275362,5f06e85cf4e25a023d92fcc3,65d2b6c8f2eece985d8e374c,65d2b8bb664d1d730608df92,0.0316,0.0317,0,161,161,5,1,threefour,,,,,,,,,,,,,,,,,,,,,,,,,,,,,,,,,,,,,,,,,,,,,,,,,,,,,,,,,,,,,,,,,,,,,,,,,,,,,,,,,,,,,,,,,,,,,,,,,,,,,,,,,,,,,,,,,,,,,,,,,,,,,,,,,,,,,,,,,
,,5f06e85cf4e25a023d92fcc3,2024-02-18_23h11.27.050,kallum_motion_pilot,2023.2.2,Win32,144.9275362,5f06e85cf4e25a023d92fcc3,65d2b6c8f2eece985d8e374c,65d2b8bb664d1d730608df92,0.0317,0.0317,1,0,162,110,1,eightsix,,,,,,,,,,,,,,,,,,,,,,,,,,,,,,,,,,,,,,,,,,,,,,,,,,,,,,,,,,,,,,,,,,,,,,,,,,,,,,,,,,,,,,,,,,,,,,,,,,,,,,,,,,,,,,,,,,,,,,,,,,,,,,,,,,,,,,,,,
,,5f06e85cf4e25a023d92fcc3,2024-02-18_23h11.27.050,kallum_motion_pilot,2023.2.2,Win32,144.9275362,5f06e85cf4e25a023d92fcc3,65d2b6c8f2eece985d8e374c,65d2b8bb664d1d730608df92,0.0323,0.0324,1,1,163,67,1,twofour,,,,,,,,,,,,,,,,,,,,,,,,,,,,,,,,,,,,,,,,,,,,,,,,,,,,,,,,,,,,,,,,,,,,,,,,,,,,,,,,,,,,,,,,,,,,,,,,,,,,,,,,,,,,,,,,,,,,,,,,,,,,,,,,,,,,,,,,,
,,5f06e85cf4e25a023d92fcc3,2024-02-18_23h11.27.050,kallum_motion_pilot,2023.2.2,Win32,144.9275362,5f06e85cf4e25a023d92fcc3,65d2b6c8f2eece985d8e374c,65d2b8bb664d1d730608df92,0.0324,0.0325,1,2,164,39,1,fourthree,,,,,,,,,,,,,,,,,,,,,,,,,,,,,,,,,,,,,,,,,,,,,,,,,,,,,,,,,,,,,,,,,,,,,,,,,,,,,,,,,,,,,,,,,,,,,,,,,,,,,,,,,,,,,,,,,,,,,,,,,,,,,,,,,,,,,,,,,
,,5f06e85cf4e25a023d92fcc3,2024-02-18_23h11.27.050,kallum_motion_pilot,2023.2.2,Win32,144.9275362,5f06e85cf4e25a023d92fcc3,65d2b6c8f2eece985d8e374c,65d2b8bb664d1d730608df92,0.0325,0.0325,1,3,165,71,1,fourthree,,,,,,,,,,,,,,,,,,,,,,,,,,,,,,,,,,,,,,,,,,,,,,,,,,,,,,,,,,,,,,,,,,,,,,,,,,,,,,,,,,,,,,,,,,,,,,,,,,,,,,,,,,,,,,,,,,,,,,,,,,,,,,,,,,,,,,,,,
,,5f06e85cf4e25a023d92fcc3,2024-02-18_23h11.27.050,kallum_motion_pilot,2023.2.2,Win32,144.9275362,5f06e85cf4e25a023d92fcc3,65d2b6c8f2eece985d8e374c,65d2b8bb664d1d730608df92,0.0326,0.0326,1,4,166,124,1,sevenfive,,,,,,,,,,,,,,,,,,,,,,,,,,,,,,,,,,,,,,,,,,,,,,,,,,,,,,,,,,,,,,,,,,,,,,,,,,,,,,,,,,,,,,,,,,,,,,,,,,,,,,,,,,,,,,,,,,,,,,,,,,,,,,,,,,,,,,,,,
,,5f06e85cf4e25a023d92fcc3,2024-02-18_23h11.27.050,kallum_motion_pilot,2023.2.2,Win32,144.9275362,5f06e85cf4e25a023d92fcc3,65d2b6c8f2eece985d8e374c,65d2b8bb664d1d730608df92,0.0326,0.0327,1,5,167,9,1,onethree,,,,,,,,,,,,,,,,,,,,,,,,,,,,,,,,,,,,,,,,,,,,,,,,,,,,,,,,,,,,,,,,,,,,,,,,,,,,,,,,,,,,,,,,,,,,,,,,,,,,,,,,,,,,,,,,,,,,,,,,,,,,,,,,,,,,,,,,,
,,5f06e85cf4e25a023d92fcc3,2024-02-18_23h11.27.050,kallum_motion_pilot,2023.2.2,Win32,144.9275362,5f06e85cf4e25a023d92fcc3,65d2b6c8f2eece985d8e374c,65d2b8bb664d1d730608df92,0.0328,0.0328,1,6,168,5,1,threefour,,,,,,,,,,,,,,,,,,,,,,,,,,,,,,,,,,,,,,,,,,,,,,,,,,,,,,,,,,,,,,,,,,,,,,,,,,,,,,,,,,,,,,,,,,,,,,,,,,,,,,,,,,,,,,,,,,,,,,,,,,,,,,,,,,,,,,,,,
,,5f06e85cf4e25a023d92fcc3,2024-02-18_23h11.27.050,kallum_motion_pilot,2023.2.2,Win32,144.9275362,5f06e85cf4e25a023d92fcc3,65d2b6c8f2eece985d8e374c,65d2b8bb664d1d730608df92,0.0328,0.0329,1,7,169,101,1,seveneight,,,,,,,,,,,,,,,,,,,,,,,,,,,,,,,,,,,,,,,,,,,,,,,,,,,,,,,,,,,,,,,,,,,,,,,,,,,,,,,,,,,,,,,,,,,,,,,,,,,,,,,,,,,,,,,,,,,,,,,,,,,,,,,,,,,,,,,,,
,,5f06e85cf4e25a023d92fcc3,2024-02-18_23h11.27.050,kallum_motion_pilot,2023.2.2,Win32,144.9275362,5f06e85cf4e25a023d92fcc3,65d2b6c8f2eece985d8e374c,65d2b8bb664d1d730608df92,0.0329,0.0329,1,8,170,62,1,fourtwo,,,,,,,,,,,,,,,,,,,,,,,,,,,,,,,,,,,,,,,,,,,,,,,,,,,,,,,,,,,,,,,,,,,,,,,,,,,,,,,,,,,,,,,,,,,,,,,,,,,,,,,,,,,,,,,,,,,,,,,,,,,,,,,,,,,,,,,,,
,,5f06e85cf4e25a023d92fcc3,2024-02-18_23h11.27.050,kallum_motion_pilot,2023.2.2,Win32,144.9275362,5f06e85cf4e25a023d92fcc3,65d2b6c8f2eece985d8e374c,65d2b8bb664d1d730608df92,0.033,0.0331,1,9,171,37,1,threefour,,,,,,,,,,,,,,,,,,,,,,,,,,,,,,,,,,,,,,,,,,,,,,,,,,,,,,,,,,,,,,,,,,,,,,,,,,,,,,,,,,,,,,,,,,,,,,,,,,,,,,,,,,,,,,,,,,,,,,,,,,,,,,,,,,,,,,,,,
,,5f06e85cf4e25a023d92fcc3,2024-02-18_23h11.27.050,kallum_motion_pilot,2023.2.2,Win32,144.9275362,5f06e85cf4e25a023d92fcc3,65d2b6c8f2eece985d8e374c,65d2b8bb664d1d730608df92,0.0331,0.0332,1,10,172,156,1,sevenfive,,,,,,,,,,,,,,,,,,,,,,,,,,,,,,,,,,,,,,,,,,,,,,,,,,,,,,,,,,,,,,,,,,,,,,,,,,,,,,,,,,,,,,,,,,,,,,,,,,,,,,,,,,,,,,,,,,,,,,,,,,,,,,,,,,,,,,,,,
,,5f06e85cf4e25a023d92fcc3,2024-02-18_23h11.27.050,kallum_motion_pilot,2023.2.2,Win32,144.9275362,5f06e85cf4e25a023d92fcc3,65d2b6c8f2eece985d8e374c,65d2b8bb664d1d730608df92,0.0332,0.0332,1,11,173,16,1,onetwo,,,,,,,,,,,,,,,,,,,,,,,,,,,,,,,,,,,,,,,,,,,,,,,,,,,,,,,,,,,,,,,,,,,,,,,,,,,,,,,,,,,,,,,,,,,,,,,,,,,,,,,,,,,,,,,,,,,,,,,,,,,,,,,,,,,,,,,,,
,,5f06e85cf4e25a023d92fcc3,2024-02-18_23h11.27.050,kallum_motion_pilot,2023.2.2,Win32,144.9275362,5f06e85cf4e25a023d92fcc3,65d2b6c8f2eece985d8e374c,65d2b8bb664d1d730608df92,0.0332,0.0333,1,12,174,104,1,fivesix,,,,,,,,,,,,,,,,,,,,,,,,,,,,,,,,,,,,,,,,,,,,,,,,,,,,,,,,,,,,,,,,,,,,,,,,,,,,,,,,,,,,,,,,,,,,,,,,,,,,,,,,,,,,,,,,,,,,,,,,,,,,,,,,,,,,,,,,,
,,5f06e85cf4e25a023d92fcc3,2024-02-18_23h11.27.050,kallum_motion_pilot,2023.2.2,Win32,144.9275362,5f06e85cf4e25a023d92fcc3,65d2b6c8f2eece985d8e374c,65d2b8bb664d1d730608df92,0.0334,0.0334,1,13,175,35,1,twofour,,,,,,,,,,,,,,,,,,,,,,,,,,,,,,,,,,,,,,,,,,,,,,,,,,,,,,,,,,,,,,,,,,,,,,,,,,,,,,,,,,,,,,,,,,,,,,,,,,,,,,,,,,,,,,,,,,,,,,,,,,,,,,,,,,,,,,,,,
,,5f06e85cf4e25a023d92fcc3,2024-02-18_23h11.27.050,kallum_motion_pilot,2023.2.2,Win32,144.9275362,5f06e85cf4e25a023d92fcc3,65d2b6c8f2eece985d8e374c,65d2b8bb664d1d730608df92,0.0335,0.0335,1,14,176,117,1,seveneight,,,,,,,,,,,,,,,,,,,,,,,,,,,,,,,,,,,,,,,,,,,,,,,,,,,,,,,,,,,,,,,,,,,,,,,,,,,,,,,,,,,,,,,,,,,,,,,,,,,,,,,,,,,,,,,,,,,,,,,,,,,,,,,,,,,,,,,,,
,,5f06e85cf4e25a023d92fcc3,2024-02-18_23h11.27.050,kallum_motion_pilot,2023.2.2,Win32,144.9275362,5f06e85cf4e25a023d92fcc3,65d2b6c8f2eece985d8e374c,65d2b8bb664d1d730608df92,0.0335,0.0335,1,15,177,31,1,fourthree,,,,,,,,,,,,,,,,,,,,,,,,,,,,,,,,,,,,,,,,,,,,,,,,,,,,,,,,,,,,,,,,,,,,,,,,,,,,,,,,,,,,,,,,,,,,,,,,,,,,,,,,,,,,,,,,,,,,,,,,,,,,,,,,,,,,,,,,,
,,5f06e85cf4e25a023d92fcc3,2024-02-18_23h11.27.050,kallum_motion_pilot,2023.2.2,Win32,144.9275362,5f06e85cf4e25a023d92fcc3,65d2b6c8f2eece985d8e374c,65d2b8bb664d1d730608df92,0.0336,0.0337,1,16,178,120,1,fivesix,,,,,,,,,,,,,,,,,,,,,,,,,,,,,,,,,,,,,,,,,,,,,,,,,,,,,,,,,,,,,,,,,,,,,,,,,,,,,,,,,,,,,,,,,,,,,,,,,,,,,,,,,,,,,,,,,,,,,,,,,,,,,,,,,,,,,,,,,
,,5f06e85cf4e25a023d92fcc3,2024-02-18_23h11.27.050,kallum_motion_pilot,2023.2.2,Win32,144.9275362,5f06e85cf4e25a023d92fcc3,65d2b6c8f2eece985d8e374c,65d2b8bb664d1d730608df92,0.0337,0.0337,1,17,179,10,1,twoone,,,,,,,,,,,,,,,,,,,,,,,,,,,,,,,,,,,,,,,,,,,,,,,,,,,,,,,,,,,,,,,,,,,,,,,,,,,,,,,,,,,,,,,,,,,,,,,,,,,,,,,,,,,,,,,,,,,,,,,,,,,,,,,,,,,,,,,,,
,,5f06e85cf4e25a023d92fcc3,2024-02-18_23h11.27.050,kallum_motion_pilot,2023.2.2,Win32,144.9275362,5f06e85cf4e25a023d92fcc3,65d2b6c8f2eece985d8e374c,65d2b8bb664d1d730608df92,0.0338,0.0339,1,18,180,30,1,fourtwo,,,,,,,,,,,,,,,,,,,,,,,,,,,,,,,,,,,,,,,,,,,,,,,,,,,,,,,,,,,,,,,,,,,,,,,,,,,,,,,,,,,,,,,,,,,,,,,,,,,,,,,,,,,,,,,,,,,,,,,,,,,,,,,,,,,,,,,,,
,,5f06e85cf4e25a023d92fcc3,2024-02-18_23h11.27.050,kallum_motion_pilot,2023.2.2,Win32,144.9275362,5f06e85cf4e25a023d92fcc3,65d2b6c8f2eece985d8e374c,65d2b8bb664d1d730608df92,0.034,0.034,1,19,181,74,1,twoone,,,,,,,,,,,,,,,,,,,,,,,,,,,,,,,,,,,,,,,,,,,,,,,,,,,,,,,,,,,,,,,,,,,,,,,,,,,,,,,,,,,,,,,,,,,,,,,,,,,,,,,,,,,,,,,,,,,,,,,,,,,,,,,,,,,,,,,,,
,,5f06e85cf4e25a023d92fcc3,2024-02-18_23h11.27.050,kallum_motion_pilot,2023.2.2,Win32,144.9275362,5f06e85cf4e25a023d92fcc3,65d2b6c8f2eece985d8e374c,65d2b8bb664d1d730608df92,0.034,0.0341,1,20,182,43,1,twofour,,,,,,,,,,,,,,,,,,,,,,,,,,,,,,,,,,,,,,,,,,,,,,,,,,,,,,,,,,,,,,,,,,,,,,,,,,,,,,,,,,,,,,,,,,,,,,,,,,,,,,,,,,,,,,,,,,,,,,,,,,,,,,,,,,,,,,,,,
,,5f06e85cf4e25a023d92fcc3,2024-02-18_23h11.27.050,kallum_motion_pilot,2023.2.2,Win32,144.9275362,5f06e85cf4e25a023d92fcc3,65d2b6c8f2eece985d8e374c,65d2b8bb664d1d730608df92,0.0342,0.0342,1,21,183,122,1,sixfive,,,,,,,,,,,,,,,,,,,,,,,,,,,,,,,,,,,,,,,,,,,,,,,,,,,,,,,,,,,,,,,,,,,,,,,,,,,,,,,,,,,,,,,,,,,,,,,,,,,,,,,,,,,,,,,,,,,,,,,,,,,,,,,,,,,,,,,,,
,,5f06e85cf4e25a023d92fcc3,2024-02-18_23h11.27.050,kallum_motion_pilot,2023.2.2,Win32,144.9275362,5f06e85cf4e25a023d92fcc3,65d2b6c8f2eece985d8e374c,65d2b8bb664d1d730608df92,0.0343,0.0343,1,22,184,99,1,sixeight,,,,,,,,,,,,,,,,,,,,,,,,,,,,,,,,,,,,,,,,,,,,,,,,,,,,,,,,,,,,,,,,,,,,,,,,,,,,,,,,,,,,,,,,,,,,,,,,,,,,,,,,,,,,,,,,,,,,,,,,,,,,,,,,,,,,,,,,,
,,5f06e85cf4e25a023d92fcc3,2024-02-18_23h11.27.050,kallum_motion_pilot,2023.2.2,Win32,144.9275362,5f06e85cf4e25a023d92fcc3,65d2b6c8f2eece985d8e374c,65d2b8bb664d1d730608df92,0.0343,0.0344,1,23,185,125,1,seveneight,,,,,,,,,,,,,,,,,,,,,,,,,,,,,,,,,,,,,,,,,,,,,,,,,,,,,,,,,,,,,,,,,,,,,,,,,,,,,,,,,,,,,,,,,,,,,,,,,,,,,,,,,,,,,,,,,,,,,,,,,,,,,,,,,,,,,,,,,
,,5f06e85cf4e25a023d92fcc3,2024-02-18_23h11.27.050,kallum_motion_pilot,2023.2.2,Win32,144.9275362,5f06e85cf4e25a023d92fcc3,65d2b6c8f2eece985d8e374c,65d2b8bb664d1d730608df92,0.0344,0.0345,1,24,186,78,1,fourtwo,,,,,,,,,,,,,,,,,,,,,,,,,,,,,,,,,,,,,,,,,,,,,,,,,,,,,,,,,,,,,,,,,,,,,,,,,,,,,,,,,,,,,,,,,,,,,,,,,,,,,,,,,,,,,,,,,,,,,,,,,,,,,,,,,,,,,,,,,
,,5f06e85cf4e25a023d92fcc3,2024-02-18_23h11.27.050,kallum_motion_pilot,2023.2.2,Win32,144.9275362,5f06e85cf4e25a023d92fcc3,65d2b6c8f2eece985d8e374c,65d2b8bb664d1d730608df92,0.0346,0.0346,1,25,187,68,1,threeone,,,,,,,,,,,,,,,,,,,,,,,,,,,,,,,,,,,,,,,,,,,,,,,,,,,,,,,,,,,,,,,,,,,,,,,,,,,,,,,,,,,,,,,,,,,,,,,,,,,,,,,,,,,,,,,,,,,,,,,,,,,,,,,,,,,,,,,,,
,,5f06e85cf4e25a023d92fcc3,2024-02-18_23h11.27.050,kallum_motion_pilot,2023.2.2,Win32,144.9275362,5f06e85cf4e25a023d92fcc3,65d2b6c8f2eece985d8e374c,65d2b8bb664d1d730608df92,0.0346,0.0347,1,26,188,34,1,twoone,,,,,,,,,,,,,,,,,,,,,,,,,,,,,,,,,,,,,,,,,,,,,,,,,,,,,,,,,,,,,,,,,,,,,,,,,,,,,,,,,,,,,,,,,,,,,,,,,,,,,,,,,,,,,,,,,,,,,,,,,,,,,,,,,,,,,,,,,
,,5f06e85cf4e25a023d92fcc3,2024-02-18_23h11.27.050,kallum_motion_pilot,2023.2.2,Win32,144.9275362,5f06e85cf4e25a023d92fcc3,65d2b6c8f2eece985d8e374c,65d2b8bb664d1d730608df92,0.0348,0.0348,1,27,189,138,1,sixfive,,,,,,,,,,,,,,,,,,,,,,,,,,,,,,,,,,,,,,,,,,,,,,,,,,,,,,,,,,,,,,,,,,,,,,,,,,,,,,,,,,,,,,,,,,,,,,,,,,,,,,,,,,,,,,,,,,,,,,,,,,,,,,,,,,,,,,,,,
,,5f06e85cf4e25a023d92fcc3,2024-02-18_23h11.27.050,kallum_motion_pilot,2023.2.2,Win32,144.9275362,5f06e85cf4e25a023d92fcc3,65d2b6c8f2eece985d8e374c,65d2b8bb664d1d730608df92,0.0348,0.0348,1,28,190,146,1,sixfive,,,,,,,,,,,,,,,,,,,,,,,,,,,,,,,,,,,,,,,,,,,,,,,,,,,,,,,,,,,,,,,,,,,,,,,,,,,,,,,,,,,,,,,,,,,,,,,,,,,,,,,,,,,,,,,,,,,,,,,,,,,,,,,,,,,,,,,,,
,,5f06e85cf4e25a023d92fcc3,2024-02-18_23h11.27.050,kallum_motion_pilot,2023.2.2,Win32,144.9275362,5f06e85cf4e25a023d92fcc3,65d2b6c8f2eece985d8e374c,65d2b8bb664d1d730608df92,0.0349,0.035,1,29,191,64,1,onetwo,,,,,,,,,,,,,,,,,,,,,,,,,,,,,,,,,,,,,,,,,,,,,,,,,,,,,,,,,,,,,,,,,,,,,,,,,,,,,,,,,,,,,,,,,,,,,,,,,,,,,,,,,,,,,,,,,,,,,,,,,,,,,,,,,,,,,,,,,
,,5f06e85cf4e25a023d92fcc3,2024-02-18_23h11.27.050,kallum_motion_pilot,2023.2.2,Win32,144.9275362,5f06e85cf4e25a023d92fcc3,65d2b6c8f2eece985d8e374c,65d2b8bb664d1d730608df92,0.035,0.035,1,30,192,88,1,fivesix,,,,,,,,,,,,,,,,,,,,,,,,,,,,,,,,,,,,,,,,,,,,,,,,,,,,,,,,,,,,,,,,,,,,,,,,,,,,,,,,,,,,,,,,,,,,,,,,,,,,,,,,,,,,,,,,,,,,,,,,,,,,,,,,,,,,,,,,,
,,5f06e85cf4e25a023d92fcc3,2024-02-18_23h11.27.050,kallum_motion_pilot,2023.2.2,Win32,144.9275362,5f06e85cf4e25a023d92fcc3,65d2b6c8f2eece985d8e374c,65d2b8bb664d1d730608df92,0.0351,0.0351,1,31,193,48,1,onetwo,,,,,,,,,,,,,,,,,,,,,,,,,,,,,,,,,,,,,,,,,,,,,,,,,,,,,,,,,,,,,,,,,,,,,,,,,,,,,,,,,,,,,,,,,,,,,,,,,,,,,,,,,,,,,,,,,,,,,,,,,,,,,,,,,,,,,,,,,
,,5f06e85cf4e25a023d92fcc3,2024-02-18_23h11.27.050,kallum_motion_pilot,2023.2.2,Win32,144.9275362,5f06e85cf4e25a023d92fcc3,65d2b6c8f2eece985d8e374c,65d2b8bb664d1d730608df92,0.0352,0.0352,1,32,194,63,1,fourthree,,,,,,,,,,,,,,,,,,,,,,,,,,,,,,,,,,,,,,,,,,,,,,,,,,,,,,,,,,,,,,,,,,,,,,,,,,,,,,,,,,,,,,,,,,,,,,,,,,,,,,,,,,,,,,,,,,,,,,,,,,,,,,,,,,,,,,,,,
,,5f06e85cf4e25a023d92fcc3,2024-02-18_23h11.27.050,kallum_motion_pilot,2023.2.2,Win32,144.9275362,5f06e85cf4e25a023d92fcc3,65d2b6c8f2eece985d8e374c,65d2b8bb664d1d730608df92,0.0353,0.0353,1,33,195,158,1,eightsix,,,,,,,,,,,,,,,,,,,,,,,,,,,,,,,,,,,,,,,,,,,,,,,,,,,,,,,,,,,,,,,,,,,,,,,,,,,,,,,,,,,,,,,,,,,,,,,,,,,,,,,,,,,,,,,,,,,,,,,,,,,,,,,,,,,,,,,,,
,,5f06e85cf4e25a023d92fcc3,2024-02-18_23h11.27.050,kallum_motion_pilot,2023.2.2,Win32,144.9275362,5f06e85cf4e25a023d92fcc3,65d2b6c8f2eece985d8e374c,65d2b8bb664d1d730608df92,0.0354,0.0354,1,34,196,161,1,fiveseven,,,,,,,,,,,,,,,,,,,,,,,,,,,,,,,,,,,,,,,,,,,,,,,,,,,,,,,,,,,,,,,,,,,,,,,,,,,,,,,,,,,,,,,,,,,,,,,,,,,,,,,,,,,,,,,,,,,,,,,,,,,,,,,,,,,,,,,,,
,,5f06e85cf4e25a023d92fcc3,2024-02-18_23h11.27.050,kallum_motion_pilot,2023.2.2,Win32,144.9275362,5f06e85cf4e25a023d92fcc3,65d2b6c8f2eece985d8e374c,65d2b8bb664d1d730608df92,0.0355,0.0355,1,35,197,131,1,sixeight,,,,,,,,,,,,,,,,,,,,,,,,,,,,,,,,,,,,,,,,,,,,,,,,,,,,,,,,,,,,,,,,,,,,,,,,,,,,,,,,,,,,,,,,,,,,,,,,,,,,,,,,,,,,,,,,,,,,,,,,,,,,,,,,,,,,,,,,,
,,5f06e85cf4e25a023d92fcc3,2024-02-18_23h11.27.050,kallum_motion_pilot,2023.2.2,Win32,144.9275362,5f06e85cf4e25a023d92fcc3,65d2b6c8f2eece985d8e374c,65d2b8bb664d1d730608df92,0.0356,0.0356,1,36,198,66,1,twoone,,,,,,,,,,,,,,,,,,,,,,,,,,,,,,,,,,,,,,,,,,,,,,,,,,,,,,,,,,,,,,,,,,,,,,,,,,,,,,,,,,,,,,,,,,,,,,,,,,,,,,,,,,,,,,,,,,,,,,,,,,,,,,,,,,,,,,,,,
,,5f06e85cf4e25a023d92fcc3,2024-02-18_23h11.27.050,kallum_motion_pilot,2023.2.2,Win32,144.9275362,5f06e85cf4e25a023d92fcc3,65d2b6c8f2eece985d8e374c,65d2b8bb664d1d730608df92,0.0356,0.0357,1,37,199,58,1,twoone,,,,,,,,,,,,,,,,,,,,,,,,,,,,,,,,,,,,,,,,,,,,,,,,,,,,,,,,,,,,,,,,,,,,,,,,,,,,,,,,,,,,,,,,,,,,,,,,,,,,,,,,,,,,,,,,,,,,,,,,,,,,,,,,,,,,,,,,,
,,5f06e85cf4e25a023d92fcc3,2024-02-18_23h11.27.050,kallum_motion_pilot,2023.2.2,Win32,144.9275362,5f06e85cf4e25a023d92fcc3,65d2b6c8f2eece985d8e374c,65d2b8bb664d1d730608df92,0.0358,0.0358,1,38,200,150,1,eightsix,,,,,,,,,,,,,,,,,,,,,,,,,,,,,,,,,,,,,,,,,,,,,,,,,,,,,,,,,,,,,,,,,,,,,,,,,,,,,,,,,,,,,,,,,,,,,,,,,,,,,,,,,,,,,,,,,,,,,,,,,,,,,,,,,,,,,,,,,
,,5f06e85cf4e25a023d92fcc3,2024-02-18_23h11.27.050,kallum_motion_pilot,2023.2.2,Win32,144.9275362,5f06e85cf4e25a023d92fcc3,65d2b6c8f2eece985d8e374c,65d2b8bb664d1d730608df92,0.0359,0.0359,1,39,201,98,1,sixfive,,,,,,,,,,,,,,,,,,,,,,,,,,,,,,,,,,,,,,,,,,,,,,,,,,,,,,,,,,,,,,,,,,,,,,,,,,,,,,,,,,,,,,,,,,,,,,,,,,,,,,,,,,,,,,,,,,,,,,,,,,,,,,,,,,,,,,,,,
,,5f06e85cf4e25a023d92fcc3,2024-02-18_23h11.27.050,kallum_motion_pilot,2023.2.2,Win32,144.9275362,5f06e85cf4e25a023d92fcc3,65d2b6c8f2eece985d8e374c,65d2b8bb664d1d730608df92,0.036,0.036,1,40,202,49,1,onethree,,,,,,,,,,,,,,,,,,,,,,,,,,,,,,,,,,,,,,,,,,,,,,,,,,,,,,,,,,,,,,,,,,,,,,,,,,,,,,,,,,,,,,,,,,,,,,,,,,,,,,,,,,,,,,,,,,,,,,,,,,,,,,,,,,,,,,,,,
,,5f06e85cf4e25a023d92fcc3,2024-02-18_23h11.27.050,kallum_motion_pilot,2023.2.2,Win32,144.9275362,5f06e85cf4e25a023d92fcc3,65d2b6c8f2eece985d8e374c,65d2b8bb664d1d730608df92,0.0361,0.0361,1,41,203,84,1,sevenfive,,,,,,,,,,,,,,,,,,,,,,,,,,,,,,,,,,,,,,,,,,,,,,,,,,,,,,,,,,,,,,,,,,,,,,,,,,,,,,,,,,,,,,,,,,,,,,,,,,,,,,,,,,,,,,,,,,,,,,,,,,,,,,,,,,,,,,,,,
,,5f06e85cf4e25a023d92fcc3,2024-02-18_23h11.27.050,kallum_motion_pilot,2023.2.2,Win32,144.9275362,5f06e85cf4e25a023d92fcc3,65d2b6c8f2eece985d8e374c,65d2b8bb664d1d730608df92,0.0361,0.0361,1,42,204,25,1,onethree,,,,,,,,,,,,,,,,,,,,,,,,,,,,,,,,,,,,,,,,,,,,,,,,,,,,,,,,,,,,,,,,,,,,,,,,,,,,,,,,,,,,,,,,,,,,,,,,,,,,,,,,,,,,,,,,,,,,,,,,,,,,,,,,,,,,,,,,,
,,5f06e85cf4e25a023d92fcc3,2024-02-18_23h11.27.050,kallum_motion_pilot,2023.2.2,Win32,144.9275362,5f06e85cf4e25a023d92fcc3,65d2b6c8f2eece985d8e374c,65d2b8bb664d1d730608df92,0.0362,0.0363,1,43,205,6,1,fourtwo,,,,,,,,,,,,,,,,,,,,,,,,,,,,,,,,,,,,,,,,,,,,,,,,,,,,,,,,,,,,,,,,,,,,,,,,,,,,,,,,,,,,,,,,,,,,,,,,,,,,,,,,,,,,,,,,,,,,,,,,,,,,,,,,,,,,,,,,,
,,5f06e85cf4e25a023d92fcc3,2024-02-18_23h11.27.050,kallum_motion_pilot,2023.2.2,Win32,144.9275362,5f06e85cf4e25a023d92fcc3,65d2b6c8f2eece985d8e374c,65d2b8bb664d1d730608df92,0.0363,0.0364,1,44,206,149,1,seveneight,,,,,,,,,,,,,,,,,,,,,,,,,,,,,,,,,,,,,,,,,,,,,,,,,,,,,,,,,,,,,,,,,,,,,,,,,,,,,,,,,,,,,,,,,,,,,,,,,,,,,,,,,,,,,,,,,,,,,,,,,,,,,,,,,,,,,,,,,
,,5f06e85cf4e25a023d92fcc3,2024-02-18_23h11.27.050,kallum_motion_pilot,2023.2.2,Win32,144.9275362,5f06e85cf4e25a023d92fcc3,65d2b6c8f2eece985d8e374c,65d2b8bb664d1d730608df92,0.0365,0.0365,1,45,207,130,1,sixfive,,,,,,,,,,,,,,,,,,,,,,,,,,,,,,,,,,,,,,,,,,,,,,,,,,,,,,,,,,,,,,,,,,,,,,,,,,,,,,,,,,,,,,,,,,,,,,,,,,,,,,,,,,,,,,,,,,,,,,,,,,,,,,,,,,,,,,,,,
,,5f06e85cf4e25a023d92fcc3,2024-02-18_23h11.27.050,kallum_motion_pilot,2023.2.2,Win32,144.9275362,5f06e85cf4e25a023d92fcc3,65d2b6c8f2eece985d8e374c,65d2b8bb664d1d730608df92,0.0366,0.0366,1,46,208,87,1,eightseven,,,,,,,,,,,,,,,,,,,,,,,,,,,,,,,,,,,,,,,,,,,,,,,,,,,,,,,,,,,,,,,,,,,,,,,,,,,,,,,,,,,,,,,,,,,,,,,,,,,,,,,,,,,,,,,,,,,,,,,,,,,,,,,,,,,,,,,,,
,,5f06e85cf4e25a023d92fcc3,2024-02-18_23h11.27.050,kallum_motion_pilot,2023.2.2,Win32,144.9275362,5f06e85cf4e25a023d92fcc3,65d2b6c8f2eece985d8e374c,65d2b8bb664d1d730608df92,0.0368,0.0368,1,47,209,18,1,twoone,,,,,,,,,,,,,,,,,,,,,,,,,,,,,,,,,,,,,,,,,,,,,,,,,,,,,,,,,,,,,,,,,,,,,,,,,,,,,,,,,,,,,,,,,,,,,,,,,,,,,,,,,,,,,,,,,,,,,,,,,,,,,,,,,,,,,,,,,
,,5f06e85cf4e25a023d92fcc3,2024-02-18_23h11.27.050,kallum_motion_pilot,2023.2.2,Win32,144.9275362,5f06e85cf4e25a023d92fcc3,65d2b6c8f2eece985d8e374c,65d2b8bb664d1d730608df92,0.0368,0.0369,1,48,210,107,1,sixeight,,,,,,,,,,,,,,,,,,,,,,,,,,,,,,,,,,,,,,,,,,,,,,,,,,,,,,,,,,,,,,,,,,,,,,,,,,,,,,,,,,,,,,,,,,,,,,,,,,,,,,,,,,,,,,,,,,,,,,,,,,,,,,,,,,,,,,,,,
,,5f06e85cf4e25a023d92fcc3,2024-02-18_23h11.27.050,kallum_motion_pilot,2023.2.2,Win32,144.9275362,5f06e85cf4e25a023d92fcc3,65d2b6c8f2eece985d8e374c,65d2b8bb664d1d730608df92,0.0369,0.037,1,49,211,70,1,fourtwo,,,,,,,,,,,,,,,,,,,,,,,,,,,,,,,,,,,,,,,,,,,,,,,,,,,,,,,,,,,,,,,,,,,,,,,,,,,,,,,,,,,,,,,,,,,,,,,,,,,,,,,,,,,,,,,,,,,,,,,,,,,,,,,,,,,,,,,,,
,,5f06e85cf4e25a023d92fcc3,2024-02-18_23h11.27.050,kallum_motion_pilot,2023.2.2,Win32,144.9275362,5f06e85cf4e25a023d92fcc3,65d2b6c8f2eece985d8e374c,65d2b8bb664d1d730608df92,0.037,0.0371,1,50,212,135,1,eightseven,,,,,,,,,,,,,,,,,,,,,,,,,,,,,,,,,,,,,,,,,,,,,,,,,,,,,,,,,,,,,,,,,,,,,,,,,,,,,,,,,,,,,,,,,,,,,,,,,,,,,,,,,,,,,,,,,,,,,,,,,,,,,,,,,,,,,,,,,
,,5f06e85cf4e25a023d92fcc3,2024-02-18_23h11.27.050,kallum_motion_pilot,2023.2.2,Win32,144.9275362,5f06e85cf4e25a023d92fcc3,65d2b6c8f2eece985d8e374c,65d2b8bb664d1d730608df92,0.0371,0.0372,1,51,213,12,1,threeone,,,,,,,,,,,,,,,,,,,,,,,,,,,,,,,,,,,,,,,,,,,,,,,,,,,,,,,,,,,,,,,,,,,,,,,,,,,,,,,,,,,,,,,,,,,,,,,,,,,,,,,,,,,,,,,,,,,,,,,,,,,,,,,,,,,,,,,,,
,,5f06e85cf4e25a023d92fcc3,2024-02-18_23h11.27.050,kallum_motion_pilot,2023.2.2,Win32,144.9275362,5f06e85cf4e25a023d92fcc3,65d2b6c8f2eece985d8e374c,65d2b8bb664d1d730608df92,0.0372,0.0373,1,52,214,0,1,onetwo,,,,,,,,,,,,,,,,,,,,,,,,,,,,,,,,,,,,,,,,,,,,,,,,,,,,,,,,,,,,,,,,,,,,,,,,,,,,,,,,,,,,,,,,,,,,,,,,,,,,,,,,,,,,,,,,,,,,,,,,,,,,,,,,,,,,,,,,,
,,5f06e85cf4e25a023d92fcc3,2024-02-18_23h11.27.050,kallum_motion_pilot,2023.2.2,Win32,144.9275362,5f06e85cf4e25a023d92fcc3,65d2b6c8f2eece985d8e374c,65d2b8bb664d1d730608df92,0.0373,0.0373,1,53,215,50,1,twoone,,,,,,,,,,,,,,,,,,,,,,,,,,,,,,,,,,,,,,,,,,,,,,,,,,,,,,,,,,,,,,,,,,,,,,,,,,,,,,,,,,,,,,,,,,,,,,,,,,,,,,,,,,,,,,,,,,,,,,,,,,,,,,,,,,,,,,,,,
,,5f06e85cf4e25a023d92fcc3,2024-02-18_23h11.27.050,kallum_motion_pilot,2023.2.2,Win32,144.9275362,5f06e85cf4e25a023d92fcc3,65d2b6c8f2eece985d8e374c,65d2b8bb664d1d730608df92,0.0373,0.0374,1,54,216,7,1,fourthree,,,,,,,,,,,,,,,,,,,,,,,,,,,,,,,,,,,,,,,,,,,,,,,,,,,,,,,,,,,,,,,,,,,,,,,,,,,,,,,,,,,,,,,,,,,,,,,,,,,,,,,,,,,,,,,,,,,,,,,,,,,,,,,,,,,,,,,,,
,,5f06e85cf4e25a023d92fcc3,2024-02-18_23h11.27.050,kallum_motion_pilot,2023.2.2,Win32,144.9275362,5f06e85cf4e25a023d92fcc3,65d2b6c8f2eece985d8e374c,65d2b8bb664d1d730608df92,0.0375,0.0375,1,55,217,75,1,twofour,,,,,,,,,,,,,,,,,,,,,,,,,,,,,,,,,,,,,,,,,,,,,,,,,,,,,,,,,,,,,,,,,,,,,,,,,,,,,,,,,,,,,,,,,,,,,,,,,,,,,,,,,,,,,,,,,,,,,,,,,,,,,,,,,,,,,,,,,
,,5f06e85cf4e25a023d92fcc3,2024-02-18_23h11.27.050,kallum_motion_pilot,2023.2.2,Win32,144.9275362,5f06e85cf4e25a023d92fcc3,65d2b6c8f2eece985d8e374c,65d2b8bb664d1d730608df92,0.0375,0.0376,1,56,218,79,1,eightseven,,,,,,,,,,,,,,,,,,,,,,,,,,,,,,,,,,,,,,,,,,,,,,,,,,,,,,,,,,,,,,,,,,,,,,,,,,,,,,,,,,,,,,,,,,,,,,,,,,,,,,,,,,,,,,,,,,,,,,,,,,,,,,,,,,,,,,,,,
,,5f06e85cf4e25a023d92fcc3,2024-02-18_23h11.27.050,kallum_motion_pilot,2023.2.2,Win32,144.9275362,5f06e85cf4e25a023d92fcc3,65d2b6c8f2eece985d8e374c,65d2b8bb664d1d730608df92,0.0376,0.0377,1,57,219,38,1,fourtwo,,,,,,,,,,,,,,,,,,,,,,,,,,,,,,,,,,,,,,,,,,,,,,,,,,,,,,,,,,,,,,,,,,,,,,,,,,,,,,,,,,,,,,,,,,,,,,,,,,,,,,,,,,,,,,,,,,,,,,,,,,,,,,,,,,,,,,,,,
,,5f06e85cf4e25a023d92fcc3,2024-02-18_23h11.27.050,kallum_motion_pilot,2023.2.2,Win32,144.9275362,5f06e85cf4e25a023d92fcc3,65d2b6c8f2eece985d8e374c,65d2b8bb664d1d730608df92,0.0377,0.0378,1,58,220,114,1,sixfive,,,,,,,,,,,,,,,,,,,,,,,,,,,,,,,,,,,,,,,,,,,,,,,,,,,,,,,,,,,,,,,,,,,,,,,,,,,,,,,,,,,,,,,,,,,,,,,,,,,,,,,,,,,,,,,,,,,,,,,,,,,,,,,,,,,,,,,,,
,,5f06e85cf4e25a023d92fcc3,2024-02-18_23h11.27.050,kallum_motion_pilot,2023.2.2,Win32,144.9275362,5f06e85cf4e25a023d92fcc3,65d2b6c8f2eece985d8e374c,65d2b8bb664d1d730608df92,0.0379,0.0379,1,59,221,96,1,fivesix,,,,,,,,,,,,,,,,,,,,,,,,,,,,,,,,,,,,,,,,,,,,,,,,,,,,,,,,,,,,,,,,,,,,,,,,,,,,,,,,,,,,,,,,,,,,,,,,,,,,,,,,,,,,,,,,,,,,,,,,,,,,,,,,,,,,,,,,,
,,5f06e85cf4e25a023d92fcc3,2024-02-18_23h11.27.050,kallum_motion_pilot,2023.2.2,Win32,144.9275362,5f06e85cf4e25a023d92fcc3,65d2b6c8f2eece985d8e374c,65d2b8bb664d1d730608df92,0.0379,0.038,1,60,222,127,1,eightseven,,,,,,,,,,,,,,,,,,,,,,,,,,,,,,,,,,,,,,,,,,,,,,,,,,,,,,,,,,,,,,,,,,,,,,,,,,,,,,,,,,,,,,,,,,,,,,,,,,,,,,,,,,,,,,,,,,,,,,,,,,,,,,,,,,,,,,,,,
,,5f06e85cf4e25a023d92fcc3,2024-02-18_23h11.27.050,kallum_motion_pilot,2023.2.2,Win32,144.9275362,5f06e85cf4e25a023d92fcc3,65d2b6c8f2eece985d8e374c,65d2b8bb664d1d730608df92,0.0381,0.0381,1,61,223,80,1,fivesix,,,,,,,,,,,,,,,,,,,,,,,,,,,,,,,,,,,,,,,,,,,,,,,,,,,,,,,,,,,,,,,,,,,,,,,,,,,,,,,,,,,,,,,,,,,,,,,,,,,,,,,,,,,,,,,,,,,,,,,,,,,,,,,,,,,,,,,,,
,,5f06e85cf4e25a023d92fcc3,2024-02-18_23h11.27.050,kallum_motion_pilot,2023.2.2,Win32,144.9275362,5f06e85cf4e25a023d92fcc3,65d2b6c8f2eece985d8e374c,65d2b8bb664d1d730608df92,0.0382,0.0382,1,62,224,17,1,onethree,,,,,,,,,,,,,,,,,,,,,,,,,,,,,,,,,,,,,,,,,,,,,,,,,,,,,,,,,,,,,,,,,,,,,,,,,,,,,,,,,,,,,,,,,,,,,,,,,,,,,,,,,,,,,,,,,,,,,,,,,,,,,,,,,,,,,,,,,
,,5f06e85cf4e25a023d92fcc3,2024-02-18_23h11.27.050,kallum_motion_pilot,2023.2.2,Win32,144.9275362,5f06e85cf4e25a023d92fcc3,65d2b6c8f2eece985d8e374c,65d2b8bb664d1d730608df92,0.0382,0.0383,1,63,225,60,1,threeone,,,,,,,,,,,,,,,,,,,,,,,,,,,,,,,,,,,,,,,,,,,,,,,,,,,,,,,,,,,,,,,,,,,,,,,,,,,,,,,,,,,,,,,,,,,,,,,,,,,,,,,,,,,,,,,,,,,,,,,,,,,,,,,,,,,,,,,,,
,,5f06e85cf4e25a023d92fcc3,2024-02-18_23h11.27.050,kallum_motion_pilot,2023.2.2,Win32,144.9275362,5f06e85cf4e25a023d92fcc3,65d2b6c8f2eece985d8e374c,65d2b8bb664d1d730608df92,0.0383,0.0383,1,64,226,132,1,sevenfive,,,,,,,,,,,,,,,,,,,,,,,,,,,,,,,,,,,,,,,,,,,,,,,,,,,,,,,,,,,,,,,,,,,,,,,,,,,,,,,,,,,,,,,,,,,,,,,,,,,,,,,,,,,,,,,,,,,,,,,,,,,,,,,,,,,,,,,,,
,,5f06e85cf4e25a023d92fcc3,2024-02-18_23h11.27.050,kallum_motion_pilot,2023.2.2,Win32,144.9275362,5f06e85cf4e25a023d92fcc3,65d2b6c8f2eece985d8e374c,65d2b8bb664d1d730608df92,0.0384,0.0384,1,65,227,54,1,fourtwo,,,,,,,,,,,,,,,,,,,,,,,,,,,,,,,,,,,,,,,,,,,,,,,,,,,,,,,,,,,,,,,,,,,,,,,,,,,,,,,,,,,,,,,,,,,,,,,,,,,,,,,,,,,,,,,,,,,,,,,,,,,,,,,,,,,,,,,,,
,,5f06e85cf4e25a023d92fcc3,2024-02-18_23h11.27.050,kallum_motion_pilot,2023.2.2,Win32,144.9275362,5f06e85cf4e25a023d92fcc3,65d2b6c8f2eece985d8e374c,65d2b8bb664d1d730608df92,0.0386,0.0386,1,66,228,4,1,threeone,,,,,,,,,,,,,,,,,,,,,,,,,,,,,,,,,,,,,,,,,,,,,,,,,,,,,,,,,,,,,,,,,,,,,,,,,,,,,,,,,,,,,,,,,,,,,,,,,,,,,,,,,,,,,,,,,,,,,,,,,,,,,,,,,,,,,,,,,
,,5f06e85cf4e25a023d92fcc3,2024-02-18_23h11.27.050,kallum_motion_pilot,2023.2.2,Win32,144.9275362,5f06e85cf4e25a023d92fcc3,65d2b6c8f2eece985d8e374c,65d2b8bb664d1d730608df92,0.0386,0.0386,1,67,229,94,1,eightsix,,,,,,,,,,,,,,,,,,,,,,,,,,,,,,,,,,,,,,,,,,,,,,,,,,,,,,,,,,,,,,,,,,,,,,,,,,,,,,,,,,,,,,,,,,,,,,,,,,,,,,,,,,,,,,,,,,,,,,,,,,,,,,,,,,,,,,,,,
,,5f06e85cf4e25a023d92fcc3,2024-02-18_23h11.27.050,kallum_motion_pilot,2023.2.2,Win32,144.9275362,5f06e85cf4e25a023d92fcc3,65d2b6c8f2eece985d8e374c,65d2b8bb664d1d730608df92,0.0387,0.0388,1,68,230,97,1,fiveseven,,,,,,,,,,,,,,,,,,,,,,,,,,,,,,,,,,,,,,,,,,,,,,,,,,,,,,,,,,,,,,,,,,,,,,,,,,,,,,,,,,,,,,,,,,,,,,,,,,,,,,,,,,,,,,,,,,,,,,,,,,,,,,,,,,,,,,,,,
,,5f06e85cf4e25a023d92fcc3,2024-02-18_23h11.27.050,kallum_motion_pilot,2023.2.2,Win32,144.9275362,5f06e85cf4e25a023d92fcc3,65d2b6c8f2eece985d8e374c,65d2b8bb664d1d730608df92,0.0388,0.0388,1,69,231,90,1,sixfive,,,,,,,,,,,,,,,,,,,,,,,,,,,,,,,,,,,,,,,,,,,,,,,,,,,,,,,,,,,,,,,,,,,,,,,,,,,,,,,,,,,,,,,,,,,,,,,,,,,,,,,,,,,,,,,,,,,,,,,,,,,,,,,,,,,,,,,,,
,,5f06e85cf4e25a023d92fcc3,2024-02-18_23h11.27.050,kallum_motion_pilot,2023.2.2,Win32,144.9275362,5f06e85cf4e25a023d92fcc3,65d2b6c8f2eece985d8e374c,65d2b8bb664d1d730608df92,0.0389,0.039,1,70,232,73,1,onethree,,,,,,,,,,,,,,,,,,,,,,,,,,,,,,,,,,,,,,,,,,,,,,,,,,,,,,,,,,,,,,,,,,,,,,,,,,,,,,,,,,,,,,,,,,,,,,,,,,,,,,,,,,,,,,,,,,,,,,,,,,,,,,,,,,,,,,,,,
,,5f06e85cf4e25a023d92fcc3,2024-02-18_23h11.27.050,kallum_motion_pilot,2023.2.2,Win32,144.9275362,5f06e85cf4e25a023d92fcc3,65d2b6c8f2eece985d8e374c,65d2b8bb664d1d730608df92,0.039,0.0391,1,71,233,115,1,sixeight,,,,,,,,,,,,,,,,,,,,,,,,,,,,,,,,,,,,,,,,,,,,,,,,,,,,,,,,,,,,,,,,,,,,,,,,,,,,,,,,,,,,,,,,,,,,,,,,,,,,,,,,,,,,,,,,,,,,,,,,,,,,,,,,,,,,,,,,,
,,5f06e85cf4e25a023d92fcc3,2024-02-18_23h11.27.050,kallum_motion_pilot,2023.2.2,Win32,144.9275362,5f06e85cf4e25a023d92fcc3,65d2b6c8f2eece985d8e374c,65d2b8bb664d1d730608df92,0.0391,0.0392,1,72,234,20,1,threeone,,,,,,,,,,,,,,,,,,,,,,,,,,,,,,,,,,,,,,,,,,,,,,,,,,,,,,,,,,,,,,,,,,,,,,,,,,,,,,,,,,,,,,,,,,,,,,,,,,,,,,,,,,,,,,,,,,,,,,,,,,,,,,,,,,,,,,,,,
,,5f06e85cf4e25a023d92fcc3,2024-02-18_23h11.27.050,kallum_motion_pilot,2023.2.2,Win32,144.9275362,5f06e85cf4e25a023d92fcc3,65d2b6c8f2eece985d8e374c,65d2b8bb664d1d730608df92,0.0392,0.0393,1,73,235,1,1,onethree,,,,,,,,,,,,,,,,,,,,,,,,,,,,,,,,,,,,,,,,,,,,,,,,,,,,,,,,,,,,,,,,,,,,,,,,,,,,,,,,,,,,,,,,,,,,,,,,,,,,,,,,,,,,,,,,,,,,,,,,,,,,,,,,,,,,,,,,,
,,5f06e85cf4e25a023d92fcc3,2024-02-18_23h11.27.050,kallum_motion_pilot,2023.2.2,Win32,144.9275362,5f06e85cf4e25a023d92fcc3,65d2b6c8f2eece985d8e374c,65d2b8bb664d1d730608df92,0.0393,0.0393,1,74,236,153,1,fiveseven,,,,,,,,,,,,,,,,,,,,,,,,,,,,,,,,,,,,,,,,,,,,,,,,,,,,,,,,,,,,,,,,,,,,,,,,,,,,,,,,,,,,,,,,,,,,,,,,,,,,,,,,,,,,,,,,,,,,,,,,,,,,,,,,,,,,,,,,,
,,5f06e85cf4e25a023d92fcc3,2024-02-18_23h11.27.050,kallum_motion_pilot,2023.2.2,Win32,144.9275362,5f06e85cf4e25a023d92fcc3,65d2b6c8f2eece985d8e374c,65d2b8bb664d1d730608df92,0.0395,0.0395,1,75,237,56,1,onetwo,,,,,,,,,,,,,,,,,,,,,,,,,,,,,,,,,,,,,,,,,,,,,,,,,,,,,,,,,,,,,,,,,,,,,,,,,,,,,,,,,,,,,,,,,,,,,,,,,,,,,,,,,,,,,,,,,,,,,,,,,,,,,,,,,,,,,,,,,
,,5f06e85cf4e25a023d92fcc3,2024-02-18_23h11.27.050,kallum_motion_pilot,2023.2.2,Win32,144.9275362,5f06e85cf4e25a023d92fcc3,65d2b6c8f2eece985d8e374c,65d2b8bb664d1d730608df92,0.0395,0.0395,1,76,238,121,1,fiveseven,,,,,,,,,,,,,,,,,,,,,,,,,,,,,,,,,,,,,,,,,,,,,,,,,,,,,,,,,,,,,,,,,,,,,,,,,,,,,,,,,,,,,,,,,,,,,,,,,,,,,,,,,,,,,,,,,,,,,,,,,,,,,,,,,,,,,,,,,
,,5f06e85cf4e25a023d92fcc3,2024-02-18_23h11.27.050,kallum_motion_pilot,2023.2.2,Win32,144.9275362,5f06e85cf4e25a023d92fcc3,65d2b6c8f2eece985d8e374c,65d2b8bb664d1d730608df92,0.0397,0.0397,1,77,239,19,1,twofour,,,,,,,,,,,,,,,,,,,,,,,,,,,,,,,,,,,,,,,,,,,,,,,,,,,,,,,,,,,,,,,,,,,,,,,,,,,,,,,,,,,,,,,,,,,,,,,,,,,,,,,,,,,,,,,,,,,,,,,,,,,,,,,,,,,,,,,,,
,,5f06e85cf4e25a023d92fcc3,2024-02-18_23h11.27.050,kallum_motion_pilot,2023.2.2,Win32,144.9275362,5f06e85cf4e25a023d92fcc3,65d2b6c8f2eece985d8e374c,65d2b8bb664d1d730608df92,0.0397,0.0398,1,78,240,33,1,onethree,,,,,,,,,,,,,,,,,,,,,,,,,,,,,,,,,,,,,,,,,,,,,,,,,,,,,,,,,,,,,,,,,,,,,,,,,,,,,,,,,,,,,,,,,,,,,,,,,,,,,,,,,,,,,,,,,,,,,,,,,,,,,,,,,,,,,,,,,
,,5f06e85cf4e25a023d92fcc3,2024-02-18_23h11.27.050,kallum_motion_pilot,2023.2.2,Win32,144.9275362,5f06e85cf4e25a023d92fcc3,65d2b6c8f2eece985d8e374c,65d2b8bb664d1d730608df92,0.0398,0.0398,1,79,241,36,1,threeone,,,,,,,,,,,,,,,,,,,,,,,,,,,,,,,,,,,,,,,,,,,,,,,,,,,,,,,,,,,,,,,,,,,,,,,,,,,,,,,,,,,,,,,,,,,,,,,,,,,,,,,,,,,,,,,,,,,,,,,,,,,,,,,,,,,,,,,,,
,,5f06e85cf4e25a023d92fcc3,2024-02-18_23h11.27.050,kallum_motion_pilot,2023.2.2,Win32,144.9275362,5f06e85cf4e25a023d92fcc3,65d2b6c8f2eece985d8e374c,65d2b8bb664d1d730608df92,0.0399,0.0399,1,80,242,59,1,twofour,,,,,,,,,,,,,,,,,,,,,,,,,,,,,,,,,,,,,,,,,,,,,,,,,,,,,,,,,,,,,,,,,,,,,,,,,,,,,,,,,,,,,,,,,,,,,,,,,,,,,,,,,,,,,,,,,,,,,,,,,,,,,,,,,,,,,,,,,
,,5f06e85cf4e25a023d92fcc3,2024-02-18_23h11.27.050,kallum_motion_pilot,2023.2.2,Win32,144.9275362,5f06e85cf4e25a023d92fcc3,65d2b6c8f2eece985d8e374c,65d2b8bb664d1d730608df92,0.04,0.04,1,81,243,128,1,fivesix,,,,,,,,,,,,,,,,,,,,,,,,,,,,,,,,,,,,,,,,,,,,,,,,,,,,,,,,,,,,,,,,,,,,,,,,,,,,,,,,,,,,,,,,,,,,,,,,,,,,,,,,,,,,,,,,,,,,,,,,,,,,,,,,,,,,,,,,,
,,5f06e85cf4e25a023d92fcc3,2024-02-18_23h11.27.050,kallum_motion_pilot,2023.2.2,Win32,144.9275362,5f06e85cf4e25a023d92fcc3,65d2b6c8f2eece985d8e374c,65d2b8bb664d1d730608df92,0.0402,0.0402,1,82,244,41,1,onethree,,,,,,,,,,,,,,,,,,,,,,,,,,,,,,,,,,,,,,,,,,,,,,,,,,,,,,,,,,,,,,,,,,,,,,,,,,,,,,,,,,,,,,,,,,,,,,,,,,,,,,,,,,,,,,,,,,,,,,,,,,,,,,,,,,,,,,,,,
,,5f06e85cf4e25a023d92fcc3,2024-02-18_23h11.27.050,kallum_motion_pilot,2023.2.2,Win32,144.9275362,5f06e85cf4e25a023d92fcc3,65d2b6c8f2eece985d8e374c,65d2b8bb664d1d730608df92,0.0402,0.0403,1,83,245,109,1,seveneight,,,,,,,,,,,,,,,,,,,,,,,,,,,,,,,,,,,,,,,,,,,,,,,,,,,,,,,,,,,,,,,,,,,,,,,,,,,,,,,,,,,,,,,,,,,,,,,,,,,,,,,,,,,,,,,,,,,,,,,,,,,,,,,,,,,,,,,,,
,,5f06e85cf4e25a023d92fcc3,2024-02-18_23h11.27.050,kallum_motion_pilot,2023.2.2,Win32,144.9275362,5f06e85cf4e25a023d92fcc3,65d2b6c8f2eece985d8e374c,65d2b8bb664d1d730608df92,0.0404,0.0404,1,84,246,123,1,sixeight,,,,,,,,,,,,,,,,,,,,,,,,,,,,,,,,,,,,,,,,,,,,,,,,,,,,,,,,,,,,,,,,,,,,,,,,,,,,,,,,,,,,,,,,,,,,,,,,,,,,,,,,,,,,,,,,,,,,,,,,,,,,,,,,,,,,,,,,,
,,5f06e85cf4e25a023d92fcc3,2024-02-18_23h11.27.050,kallum_motion_pilot,2023.2.2,Win32,144.9275362,5f06e85cf4e25a023d92fcc3,65d2b6c8f2eece985d8e374c,65d2b8bb664d1d730608df92,0.0404,0.0404,1,85,247,82,1,sixfive,,,,,,,,,,,,,,,,,,,,,,,,,,,,,,,,,,,,,,,,,,,,,,,,,,,,,,,,,,,,,,,,,,,,,,,,,,,,,,,,,,,,,,,,,,,,,,,,,,,,,,,,,,,,,,,,,,,,,,,,,,,,,,,,,,,,,,,,,
,,5f06e85cf4e25a023d92fcc3,2024-02-18_23h11.27.050,kallum_motion_pilot,2023.2.2,Win32,144.9275362,5f06e85cf4e25a023d92fcc3,65d2b6c8f2eece985d8e374c,65d2b8bb664d1d730608df92,0.0406,0.0406,1,86,248,119,1,eightseven,,,,,,,,,,,,,,,,,,,,,,,,,,,,,,,,,,,,,,,,,,,,,,,,,,,,,,,,,,,,,,,,,,,,,,,,,,,,,,,,,,,,,,,,,,,,,,,,,,,,,,,,,,,,,,,,,,,,,,,,,,,,,,,,,,,,,,,,,
,,5f06e85cf4e25a023d92fcc3,2024-02-18_23h11.27.050,kallum_motion_pilot,2023.2.2,Win32,144.9275362,5f06e85cf4e25a023d92fcc3,65d2b6c8f2eece985d8e374c,65d2b8bb664d1d730608df92,0.0406,0.0406,1,87,249,102,1,eightsix,,,,,,,,,,,,,,,,,,,,,,,,,,,,,,,,,,,,,,,,,,,,,,,,,,,,,,,,,,,,,,,,,,,,,,,,,,,,,,,,,,,,,,,,,,,,,,,,,,,,,,,,,,,,,,,,,,,,,,,,,,,,,,,,,,,,,,,,,
,,5f06e85cf4e25a023d92fcc3,2024-02-18_23h11.27.050,kallum_motion_pilot,2023.2.2,Win32,144.9275362,5f06e85cf4e25a023d92fcc3,65d2b6c8f2eece985d8e374c,65d2b8bb664d1d730608df92,0.0407,0.0408,1,88,250,95,1,eightseven,,,,,,,,,,,,,,,,,,,,,,,,,,,,,,,,,,,,,,,,,,,,,,,,,,,,,,,,,,,,,,,,,,,,,,,,,,,,,,,,,,,,,,,,,,,,,,,,,,,,,,,,,,,,,,,,,,,,,,,,,,,,,,,,,,,,,,,,,
,,5f06e85cf4e25a023d92fcc3,2024-02-18_23h11.27.050,kallum_motion_pilot,2023.2.2,Win32,144.9275362,5f06e85cf4e25a023d92fcc3,65d2b6c8f2eece985d8e374c,65d2b8bb664d1d730608df92,0.0408,0.0409,1,89,251,111,1,eightseven,,,,,,,,,,,,,,,,,,,,,,,,,,,,,,,,,,,,,,,,,,,,,,,,,,,,,,,,,,,,,,,,,,,,,,,,,,,,,,,,,,,,,,,,,,,,,,,,,,,,,,,,,,,,,,,,,,,,,,,,,,,,,,,,,,,,,,,,,
,,5f06e85cf4e25a023d92fcc3,2024-02-18_23h11.27.050,kallum_motion_pilot,2023.2.2,Win32,144.9275362,5f06e85cf4e25a023d92fcc3,65d2b6c8f2eece985d8e374c,65d2b8bb664d1d730608df92,0.041,0.041,1,90,252,145,1,fiveseven,,,,,,,,,,,,,,,,,,,,,,,,,,,,,,,,,,,,,,,,,,,,,,,,,,,,,,,,,,,,,,,,,,,,,,,,,,,,,,,,,,,,,,,,,,,,,,,,,,,,,,,,,,,,,,,,,,,,,,,,,,,,,,,,,,,,,,,,,
,,5f06e85cf4e25a023d92fcc3,2024-02-18_23h11.27.050,kallum_motion_pilot,2023.2.2,Win32,144.9275362,5f06e85cf4e25a023d92fcc3,65d2b6c8f2eece985d8e374c,65d2b8bb664d1d730608df92,0.041,0.0411,1,91,253,77,1,threefour,,,,,,,,,,,,,,,,,,,,,,,,,,,,,,,,,,,,,,,,,,,,,,,,,,,,,,,,,,,,,,,,,,,,,,,,,,,,,,,,,,,,,,,,,,,,,,,,,,,,,,,,,,,,,,,,,,,,,,,,,,,,,,,,,,,,,,,,,
,,5f06e85cf4e25a023d92fcc3,2024-02-18_23h11.27.050,kallum_motion_pilot,2023.2.2,Win32,144.9275362,5f06e85cf4e25a023d92fcc3,65d2b6c8f2eece985d8e374c,65d2b8bb664d1d730608df92,0.0412,0.0412,1,92,254,15,1,fourthree,,,,,,,,,,,,,,,,,,,,,,,,,,,,,,,,,,,,,,,,,,,,,,,,,,,,,,,,,,,,,,,,,,,,,,,,,,,,,,,,,,,,,,,,,,,,,,,,,,,,,,,,,,,,,,,,,,,,,,,,,,,,,,,,,,,,,,,,,
,,5f06e85cf4e25a023d92fcc3,2024-02-18_23h11.27.050,kallum_motion_pilot,2023.2.2,Win32,144.9275362,5f06e85cf4e25a023d92fcc3,65d2b6c8f2eece985d8e374c,65d2b8bb664d1d730608df92,0.0413,0.0413,1,93,255,57,1,onethree,,,,,,,,,,,,,,,,,,,,,,,,,,,,,,,,,,,,,,,,,,,,,,,,,,,,,,,,,,,,,,,,,,,,,,,,,,,,,,,,,,,,,,,,,,,,,,,,,,,,,,,,,,,,,,,,,,,,,,,,,,,,,,,,,,,,,,,,,
,,5f06e85cf4e25a023d92fcc3,2024-02-18_23h11.27.050,kallum_motion_pilot,2023.2.2,Win32,144.9275362,5f06e85cf4e25a023d92fcc3,65d2b6c8f2eece985d8e374c,65d2b8bb664d1d730608df92,0.0414,0.0415,1,94,256,46,1,fourtwo,,,,,,,,,,,,,,,,,,,,,,,,,,,,,,,,,,,,,,,,,,,,,,,,,,,,,,,,,,,,,,,,,,,,,,,,,,,,,,,,,,,,,,,,,,,,,,,,,,,,,,,,,,,,,,,,,,,,,,,,,,,,,,,,,,,,,,,,,
,,5f06e85cf4e25a023d92fcc3,2024-02-18_23h11.27.050,kallum_motion_pilot,2023.2.2,Win32,144.9275362,5f06e85cf4e25a023d92fcc3,65d2b6c8f2eece985d8e374c,65d2b8bb664d1d730608df92,0.0415,0.0416,1,95,257,147,1,sixeight,,,,,,,,,,,,,,,,,,,,,,,,,,,,,,,,,,,,,,,,,,,,,,,,,,,,,,,,,,,,,,,,,,,,,,,,,,,,,,,,,,,,,,,,,,,,,,,,,,,,,,,,,,,,,,,,,,,,,,,,,,,,,,,,,,,,,,,,,
,,5f06e85cf4e25a023d92fcc3,2024-02-18_23h11.27.050,kallum_motion_pilot,2023.2.2,Win32,144.9275362,5f06e85cf4e25a023d92fcc3,65d2b6c8f2eece985d8e374c,65d2b8bb664d1d730608df92,0.0417,0.0417,1,96,258,143,1,eightseven,,,,,,,,,,,,,,,,,,,,,,,,,,,,,,,,,,,,,,,,,,,,,,,,,,,,,,,,,,,,,,,,,,,,,,,,,,,,,,,,,,,,,,,,,,,,,,,,,,,,,,,,,,,,,,,,,,,,,,,,,,,,,,,,,,,,,,,,,
,,5f06e85cf4e25a023d92fcc3,2024-02-18_23h11.27.050,kallum_motion_pilot,2023.2.2,Win32,144.9275362,5f06e85cf4e25a023d92fcc3,65d2b6c8f2eece985d8e374c,65d2b8bb664d1d730608df92,0.0417,0.0418,1,97,259,116,1,sevenfive,,,,,,,,,,,,,,,,,,,,,,,,,,,,,,,,,,,,,,,,,,,,,,,,,,,,,,,,,,,,,,,,,,,,,,,,,,,,,,,,,,,,,,,,,,,,,,,,,,,,,,,,,,,,,,,,,,,,,,,,,,,,,,,,,,,,,,,,,
,,5f06e85cf4e25a023d92fcc3,2024-02-18_23h11.27.050,kallum_motion_pilot,2023.2.2,Win32,144.9275362,5f06e85cf4e25a023d92fcc3,65d2b6c8f2eece985d8e374c,65d2b8bb664d1d730608df92,0.0419,0.0419,1,98,260,29,1,threefour,,,,,,,,,,,,,,,,,,,,,,,,,,,,,,,,,,,,,,,,,,,,,,,,,,,,,,,,,,,,,,,,,,,,,,,,,,,,,,,,,,,,,,,,,,,,,,,,,,,,,,,,,,,,,,,,,,,,,,,,,,,,,,,,,,,,,,,,,
,,5f06e85cf4e25a023d92fcc3,2024-02-18_23h11.27.050,kallum_motion_pilot,2023.2.2,Win32,144.9275362,5f06e85cf4e25a023d92fcc3,65d2b6c8f2eece985d8e374c,65d2b8bb664d1d730608df92,0.0419,0.042,1,99,261,72,1,onetwo,,,,,,,,,,,,,,,,,,,,,,,,,,,,,,,,,,,,,,,,,,,,,,,,,,,,,,,,,,,,,,,,,,,,,,,,,,,,,,,,,,,,,,,,,,,,,,,,,,,,,,,,,,,,,,,,,,,,,,,,,,,,,,,,,,,,,,,,,
,,5f06e85cf4e25a023d92fcc3,2024-02-18_23h11.27.050,kallum_motion_pilot,2023.2.2,Win32,144.9275362,5f06e85cf4e25a023d92fcc3,65d2b6c8f2eece985d8e374c,65d2b8bb664d1d730608df92,0.042,0.0421,1,100,262,142,1,eightsix,,,,,,,,,,,,,,,,,,,,,,,,,,,,,,,,,,,,,,,,,,,,,,,,,,,,,,,,,,,,,,,,,,,,,,,,,,,,,,,,,,,,,,,,,,,,,,,,,,,,,,,,,,,,,,,,,,,,,,,,,,,,,,,,,,,,,,,,,
,,5f06e85cf4e25a023d92fcc3,2024-02-18_23h11.27.050,kallum_motion_pilot,2023.2.2,Win32,144.9275362,5f06e85cf4e25a023d92fcc3,65d2b6c8f2eece985d8e374c,65d2b8bb664d1d730608df92,0.0422,0.0422,1,101,263,113,1,fiveseven,,,,,,,,,,,,,,,,,,,,,,,,,,,,,,,,,,,,,,,,,,,,,,,,,,,,,,,,,,,,,,,,,,,,,,,,,,,,,,,,,,,,,,,,,,,,,,,,,,,,,,,,,,,,,,,,,,,,,,,,,,,,,,,,,,,,,,,,,
,,5f06e85cf4e25a023d92fcc3,2024-02-18_23h11.27.050,kallum_motion_pilot,2023.2.2,Win32,144.9275362,5f06e85cf4e25a023d92fcc3,65d2b6c8f2eece985d8e374c,65d2b8bb664d1d730608df92,0.0423,0.0424,1,102,264,155,1,sixeight,,,,,,,,,,,,,,,,,,,,,,,,,,,,,,,,,,,,,,,,,,,,,,,,,,,,,,,,,,,,,,,,,,,,,,,,,,,,,,,,,,,,,,,,,,,,,,,,,,,,,,,,,,,,,,,,,,,,,,,,,,,,,,,,,,,,,,,,,
,,5f06e85cf4e25a023d92fcc3,2024-02-18_23h11.27.050,kallum_motion_pilot,2023.2.2,Win32,144.9275362,5f06e85cf4e25a023d92fcc3,65d2b6c8f2eece985d8e374c,65d2b8bb664d1d730608df92,0.0424,0.0424,1,103,265,103,1,eightseven,,,,,,,,,,,,,,,,,,,,,,,,,,,,,,,,,,,,,,,,,,,,,,,,,,,,,,,,,,,,,,,,,,,,,,,,,,,,,,,,,,,,,,,,,,,,,,,,,,,,,,,,,,,,,,,,,,,,,,,,,,,,,,,,,,,,,,,,,
,,5f06e85cf4e25a023d92fcc3,2024-02-18_23h11.27.050,kallum_motion_pilot,2023.2.2,Win32,144.9275362,5f06e85cf4e25a023d92fcc3,65d2b6c8f2eece985d8e374c,65d2b8bb664d1d730608df92,0.0425,0.0426,1,104,266,141,1,seveneight,,,,,,,,,,,,,,,,,,,,,,,,,,,,,,,,,,,,,,,,,,,,,,,,,,,,,,,,,,,,,,,,,,,,,,,,,,,,,,,,,,,,,,,,,,,,,,,,,,,,,,,,,,,,,,,,,,,,,,,,,,,,,,,,,,,,,,,,,
,,5f06e85cf4e25a023d92fcc3,2024-02-18_23h11.27.050,kallum_motion_pilot,2023.2.2,Win32,144.9275362,5f06e85cf4e25a023d92fcc3,65d2b6c8f2eece985d8e374c,65d2b8bb664d1d730608df92,0.0427,0.0427,1,105,267,45,1,threefour,,,,,,,,,,,,,,,,,,,,,,,,,,,,,,,,,,,,,,,,,,,,,,,,,,,,,,,,,,,,,,,,,,,,,,,,,,,,,,,,,,,,,,,,,,,,,,,,,,,,,,,,,,,,,,,,,,,,,,,,,,,,,,,,,,,,,,,,,
,,5f06e85cf4e25a023d92fcc3,2024-02-18_23h11.27.050,kallum_motion_pilot,2023.2.2,Win32,144.9275362,5f06e85cf4e25a023d92fcc3,65d2b6c8f2eece985d8e374c,65d2b8bb664d1d730608df92,0.0428,0.0428,1,106,268,22,1,fourtwo,,,,,,,,,,,,,,,,,,,,,,,,,,,,,,,,,,,,,,,,,,,,,,,,,,,,,,,,,,,,,,,,,,,,,,,,,,,,,,,,,,,,,,,,,,,,,,,,,,,,,,,,,,,,,,,,,,,,,,,,,,,,,,,,,,,,,,,,,
,,5f06e85cf4e25a023d92fcc3,2024-02-18_23h11.27.050,kallum_motion_pilot,2023.2.2,Win32,144.9275362,5f06e85cf4e25a023d92fcc3,65d2b6c8f2eece985d8e374c,65d2b8bb664d1d730608df92,0.0429,0.0429,1,107,269,83,1,sixeight,,,,,,,,,,,,,,,,,,,,,,,,,,,,,,,,,,,,,,,,,,,,,,,,,,,,,,,,,,,,,,,,,,,,,,,,,,,,,,,,,,,,,,,,,,,,,,,,,,,,,,,,,,,,,,,,,,,,,,,,,,,,,,,,,,,,,,,,,
,,5f06e85cf4e25a023d92fcc3,2024-02-18_23h11.27.050,kallum_motion_pilot,2023.2.2,Win32,144.9275362,5f06e85cf4e25a023d92fcc3,65d2b6c8f2eece985d8e374c,65d2b8bb664d1d730608df92,0.0429,0.043,1,108,270,65,1,onethree,,,,,,,,,,,,,,,,,,,,,,,,,,,,,,,,,,,,,,,,,,,,,,,,,,,,,,,,,,,,,,,,,,,,,,,,,,,,,,,,,,,,,,,,,,,,,,,,,,,,,,,,,,,,,,,,,,,,,,,,,,,,,,,,,,,,,,,,,
,,5f06e85cf4e25a023d92fcc3,2024-02-18_23h11.27.050,kallum_motion_pilot,2023.2.2,Win32,144.9275362,5f06e85cf4e25a023d92fcc3,65d2b6c8f2eece985d8e374c,65d2b8bb664d1d730608df92,0.043,0.0432,1,109,271,89,1,fiveseven,,,,,,,,,,,,,,,,,,,,,,,,,,,,,,,,,,,,,,,,,,,,,,,,,,,,,,,,,,,,,,,,,,,,,,,,,,,,,,,,,,,,,,,,,,,,,,,,,,,,,,,,,,,,,,,,,,,,,,,,,,,,,,,,,,,,,,,,,
,,5f06e85cf4e25a023d92fcc3,2024-02-18_23h11.27.050,kallum_motion_pilot,2023.2.2,Win32,144.9275362,5f06e85cf4e25a023d92fcc3,65d2b6c8f2eece985d8e374c,65d2b8bb664d1d730608df92,0.0432,0.0432,1,110,272,81,1,fiveseven,,,,,,,,,,,,,,,,,,,,,,,,,,,,,,,,,,,,,,,,,,,,,,,,,,,,,,,,,,,,,,,,,,,,,,,,,,,,,,,,,,,,,,,,,,,,,,,,,,,,,,,,,,,,,,,,,,,,,,,,,,,,,,,,,,,,,,,,,
,,5f06e85cf4e25a023d92fcc3,2024-02-18_23h11.27.050,kallum_motion_pilot,2023.2.2,Win32,144.9275362,5f06e85cf4e25a023d92fcc3,65d2b6c8f2eece985d8e374c,65d2b8bb664d1d730608df92,0.0433,0.0433,1,111,273,118,1,eightsix,,,,,,,,,,,,,,,,,,,,,,,,,,,,,,,,,,,,,,,,,,,,,,,,,,,,,,,,,,,,,,,,,,,,,,,,,,,,,,,,,,,,,,,,,,,,,,,,,,,,,,,,,,,,,,,,,,,,,,,,,,,,,,,,,,,,,,,,,
,,5f06e85cf4e25a023d92fcc3,2024-02-18_23h11.27.050,kallum_motion_pilot,2023.2.2,Win32,144.9275362,5f06e85cf4e25a023d92fcc3,65d2b6c8f2eece985d8e374c,65d2b8bb664d1d730608df92,0.0434,0.0435,1,112,274,28,1,threeone,,,,,,,,,,,,,,,,,,,,,,,,,,,,,,,,,,,,,,,,,,,,,,,,,,,,,,,,,,,,,,,,,,,,,,,,,,,,,,,,,,,,,,,,,,,,,,,,,,,,,,,,,,,,,,,,,,,,,,,,,,,,,,,,,,,,,,,,,
,,5f06e85cf4e25a023d92fcc3,2024-02-18_23h11.27.050,kallum_motion_pilot,2023.2.2,Win32,144.9275362,5f06e85cf4e25a023d92fcc3,65d2b6c8f2eece985d8e374c,65d2b8bb664d1d730608df92,0.0435,0.0436,1,113,275,100,1,sevenfive,,,,,,,,,,,,,,,,,,,,,,,,,,,,,,,,,,,,,,,,,,,,,,,,,,,,,,,,,,,,,,,,,,,,,,,,,,,,,,,,,,,,,,,,,,,,,,,,,,,,,,,,,,,,,,,,,,,,,,,,,,,,,,,,,,,,,,,,,
,,5f06e85cf4e25a023d92fcc3,2024-02-18_23h11.27.050,kallum_motion_pilot,2023.2.2,Win32,144.9275362,5f06e85cf4e25a023d92fcc3,65d2b6c8f2eece985d8e374c,65d2b8bb664d1d730608df92,0.0436,0.0436,1,114,276,61,1,threefour,,,,,,,,,,,,,,,,,,,,,,,,,,,,,,,,,,,,,,,,,,,,,,,,,,,,,,,,,,,,,,,,,,,,,,,,,,,,,,,,,,,,,,,,,,,,,,,,,,,,,,,,,,,,,,,,,,,,,,,,,,,,,,,,,,,,,,,,,
,,5f06e85cf4e25a023d92fcc3,2024-02-18_23h11.27.050,kallum_motion_pilot,2023.2.2,Win32,144.9275362,5f06e85cf4e25a023d92fcc3,65d2b6c8f2eece985d8e374c,65d2b8bb664d1d730608df92,0.0437,0.0438,1,115,277,11,1,twofour,,,,,,,,,,,,,,,,,,,,,,,,,,,,,,,,,,,,,,,,,,,,,,,,,,,,,,,,,,,,,,,,,,,,,,,,,,,,,,,,,,,,,,,,,,,,,,,,,,,,,,,,,,,,,,,,,,,,,,,,,,,,,,,,,,,,,,,,,
