startup.started,startup.stopped,Prolific ID*,date,expName,psychopyVersion,OS,frameRate,participant,study_id,session,stimpositions.started,stimpositions.stopped,hardcoded_stimulus_positions.thisRepN,hardcoded_stimulus_positions.thisTrialN,hardcoded_stimulus_positions.thisN,hardcoded_stimulus_positions.thisIndex,hardcoded_stimulus_positions.ran,StimulusPos,stimorientation.started,stimorientation.stopped,prac_stimorientation_import_loop.thisRepN,prac_stimorientation_import_loop.thisTrialN,prac_stimorientation_import_loop.thisN,prac_stimorientation_import_loop.thisIndex,prac_stimorientation_import_loop.ran,Stimorientation,welcome_instr.started,welcome_instr.stopped,key_resp.keys,key_resp.rt,key_resp.duration,response_steppedout_1.started,response_steppedout_1.stopped,key_resp_20.keys,key_resp_20.rt,key_resp_20.duration,response_steppedout_2.started,response_steppedout_2.stopped,key_resp_19.keys,key_resp_19.rt,key_resp_19.duration,stim_response_instr.started,stim_response_instr.stopped,key_resp_15.keys,key_resp_15.rt,key_resp_15.duration,direction_instr_2.started,direction_instr_2.stopped,key_resp_9.keys,key_resp_9.rt,key_resp_9.duration,instr_prac.started,instr_prac.stopped,key_resp_10.keys,key_resp_10.rt,key_resp_10.duration,Stim1_display_prac.started,Stim1_display_prac.stopped,Ecc,Circle1_ori,Circle2_ori,response_prac.started,similarity,response_time,response_prac.stopped,mouse_5.x,mouse_5.y,mouse_5.leftButton,mouse_5.midButton,mouse_5.rightButton,mouse_5.clicked_name,responseprac_feedback.started,responseprac_feedback.stopped,summary2_prac.started,summary2_prac.stopped,mouse_6.x,mouse_6.y,mouse_6.leftButton,mouse_6.midButton,mouse_6.rightButton,mouse_6.clicked_name,duringprac.thisRepN,duringprac.thisTrialN,duringprac.thisN,duringprac.thisIndex,duringprac.ran,begin.started,begin.stopped,key_resp_22.keys,key_resp_22.rt,key_resp_22.duration,Stim1_display.started,Stim1_display.stopped,circle1_ori,circle2_ori,circle1_SF,circle2_SF,response.started,response.stopped,mouse.x,mouse.y,mouse.leftButton,mouse.midButton,mouse.rightButton,mouse.clicked_name,trialnumber,double_pass.thisRepN,double_pass.thisTrialN,double_pass.thisN,double_pass.thisIndex,double_pass.ran,double_pass.order,main_trial.thisRepN,main_trial.thisTrialN,main_trial.thisN,main_trial.thisIndex,main_trial.ran,main_trial.order,Trial_Counter,Catch,Frequencies,response_2.started,response_2.stopped,mouse_2.x,mouse_2.y,mouse_2.leftButton,mouse_2.midButton,mouse_2.rightButton,mouse_2.clicked_name,special_trial.started,special_trial.stopped,catch_1.started,catch_1.stopped,mouse_3.x,mouse_3.y,mouse_3.leftButton,mouse_3.midButton,mouse_3.rightButton,catchresponse,catchnumber,response_time_catch,response_sum.started,response_sum.stopped,mouse_11.x,mouse_11.y,mouse_11.leftButton,mouse_11.midButton,mouse_11.rightButton,flip_presentation_sequence_for_double_pass.started,flip_presentation_sequence_for_double_pass.stopped,goodbye.started,goodbye.stopped,key_resp_3.keys,key_resp_3.rt,key_resp_3.duration
0.0003,0.0004,5f25d8172b91b02b72277187,2024-02-19_03h39.06.639,kallum_motion_pilot,2023.2.2,Win32,75.75757576,5f25d8172b91b02b72277187,65d2b6c8f2eece985d8e374c,65d2b9e7341d070378ca4f1d,,,,,,,,,,,,,,,,,,,,,,,,,,,,,,,,,,,,,,,,,,,,,,,,,,,,,,,,,,,,,,,,,,,,,,,,,,,,,,,,,,,,,,,,,,,,,,,,,,,,,,,,,,,,,,,,,,,,,,,,,,,,,,,,,,,,,,,,,,,,,,,,,
,,5f25d8172b91b02b72277187,2024-02-19_03h39.06.639,kallum_motion_pilot,2023.2.2,Win32,75.75757576,5f25d8172b91b02b72277187,65d2b6c8f2eece985d8e374c,65d2b9e7341d070378ca4f1d,0.0159,0.0161,0,0,0,142,1,eightsix,,,,,,,,,,,,,,,,,,,,,,,,,,,,,,,,,,,,,,,,,,,,,,,,,,,,,,,,,,,,,,,,,,,,,,,,,,,,,,,,,,,,,,,,,,,,,,,,,,,,,,,,,,,,,,,,,,,,,,,,,,,,,,,,,,,,,,,,,
,,5f25d8172b91b02b72277187,2024-02-19_03h39.06.639,kallum_motion_pilot,2023.2.2,Win32,75.75757576,5f25d8172b91b02b72277187,65d2b6c8f2eece985d8e374c,65d2b9e7341d070378ca4f1d,0.0163,0.0163,0,1,1,80,1,fivesix,,,,,,,,,,,,,,,,,,,,,,,,,,,,,,,,,,,,,,,,,,,,,,,,,,,,,,,,,,,,,,,,,,,,,,,,,,,,,,,,,,,,,,,,,,,,,,,,,,,,,,,,,,,,,,,,,,,,,,,,,,,,,,,,,,,,,,,,,
,,5f25d8172b91b02b72277187,2024-02-19_03h39.06.639,kallum_motion_pilot,2023.2.2,Win32,75.75757576,5f25d8172b91b02b72277187,65d2b6c8f2eece985d8e374c,65d2b9e7341d070378ca4f1d,0.0164,0.0164,0,2,2,146,1,sixfive,,,,,,,,,,,,,,,,,,,,,,,,,,,,,,,,,,,,,,,,,,,,,,,,,,,,,,,,,,,,,,,,,,,,,,,,,,,,,,,,,,,,,,,,,,,,,,,,,,,,,,,,,,,,,,,,,,,,,,,,,,,,,,,,,,,,,,,,,
,,5f25d8172b91b02b72277187,2024-02-19_03h39.06.639,kallum_motion_pilot,2023.2.2,Win32,75.75757576,5f25d8172b91b02b72277187,65d2b6c8f2eece985d8e374c,65d2b9e7341d070378ca4f1d,0.0165,0.0165,0,3,3,70,1,fourtwo,,,,,,,,,,,,,,,,,,,,,,,,,,,,,,,,,,,,,,,,,,,,,,,,,,,,,,,,,,,,,,,,,,,,,,,,,,,,,,,,,,,,,,,,,,,,,,,,,,,,,,,,,,,,,,,,,,,,,,,,,,,,,,,,,,,,,,,,,
,,5f25d8172b91b02b72277187,2024-02-19_03h39.06.639,kallum_motion_pilot,2023.2.2,Win32,75.75757576,5f25d8172b91b02b72277187,65d2b6c8f2eece985d8e374c,65d2b9e7341d070378ca4f1d,0.0166,0.0166,0,4,4,64,1,onetwo,,,,,,,,,,,,,,,,,,,,,,,,,,,,,,,,,,,,,,,,,,,,,,,,,,,,,,,,,,,,,,,,,,,,,,,,,,,,,,,,,,,,,,,,,,,,,,,,,,,,,,,,,,,,,,,,,,,,,,,,,,,,,,,,,,,,,,,,,
,,5f25d8172b91b02b72277187,2024-02-19_03h39.06.639,kallum_motion_pilot,2023.2.2,Win32,75.75757576,5f25d8172b91b02b72277187,65d2b6c8f2eece985d8e374c,65d2b9e7341d070378ca4f1d,0.0167,0.0167,0,5,5,7,1,fourthree,,,,,,,,,,,,,,,,,,,,,,,,,,,,,,,,,,,,,,,,,,,,,,,,,,,,,,,,,,,,,,,,,,,,,,,,,,,,,,,,,,,,,,,,,,,,,,,,,,,,,,,,,,,,,,,,,,,,,,,,,,,,,,,,,,,,,,,,,
,,5f25d8172b91b02b72277187,2024-02-19_03h39.06.639,kallum_motion_pilot,2023.2.2,Win32,75.75757576,5f25d8172b91b02b72277187,65d2b6c8f2eece985d8e374c,65d2b9e7341d070378ca4f1d,0.0167,0.0167,0,6,6,140,1,sevenfive,,,,,,,,,,,,,,,,,,,,,,,,,,,,,,,,,,,,,,,,,,,,,,,,,,,,,,,,,,,,,,,,,,,,,,,,,,,,,,,,,,,,,,,,,,,,,,,,,,,,,,,,,,,,,,,,,,,,,,,,,,,,,,,,,,,,,,,,,
,,5f25d8172b91b02b72277187,2024-02-19_03h39.06.639,kallum_motion_pilot,2023.2.2,Win32,75.75757576,5f25d8172b91b02b72277187,65d2b6c8f2eece985d8e374c,65d2b9e7341d070378ca4f1d,0.0169,0.0169,0,7,7,99,1,sixeight,,,,,,,,,,,,,,,,,,,,,,,,,,,,,,,,,,,,,,,,,,,,,,,,,,,,,,,,,,,,,,,,,,,,,,,,,,,,,,,,,,,,,,,,,,,,,,,,,,,,,,,,,,,,,,,,,,,,,,,,,,,,,,,,,,,,,,,,,
,,5f25d8172b91b02b72277187,2024-02-19_03h39.06.639,kallum_motion_pilot,2023.2.2,Win32,75.75757576,5f25d8172b91b02b72277187,65d2b6c8f2eece985d8e374c,65d2b9e7341d070378ca4f1d,0.017,0.017,0,8,8,44,1,threeone,,,,,,,,,,,,,,,,,,,,,,,,,,,,,,,,,,,,,,,,,,,,,,,,,,,,,,,,,,,,,,,,,,,,,,,,,,,,,,,,,,,,,,,,,,,,,,,,,,,,,,,,,,,,,,,,,,,,,,,,,,,,,,,,,,,,,,,,,
,,5f25d8172b91b02b72277187,2024-02-19_03h39.06.639,kallum_motion_pilot,2023.2.2,Win32,75.75757576,5f25d8172b91b02b72277187,65d2b6c8f2eece985d8e374c,65d2b9e7341d070378ca4f1d,0.0171,0.0171,0,9,9,50,1,twoone,,,,,,,,,,,,,,,,,,,,,,,,,,,,,,,,,,,,,,,,,,,,,,,,,,,,,,,,,,,,,,,,,,,,,,,,,,,,,,,,,,,,,,,,,,,,,,,,,,,,,,,,,,,,,,,,,,,,,,,,,,,,,,,,,,,,,,,,,
,,5f25d8172b91b02b72277187,2024-02-19_03h39.06.639,kallum_motion_pilot,2023.2.2,Win32,75.75757576,5f25d8172b91b02b72277187,65d2b6c8f2eece985d8e374c,65d2b9e7341d070378ca4f1d,0.0172,0.0172,0,10,10,133,1,seveneight,,,,,,,,,,,,,,,,,,,,,,,,,,,,,,,,,,,,,,,,,,,,,,,,,,,,,,,,,,,,,,,,,,,,,,,,,,,,,,,,,,,,,,,,,,,,,,,,,,,,,,,,,,,,,,,,,,,,,,,,,,,,,,,,,,,,,,,,,
,,5f25d8172b91b02b72277187,2024-02-19_03h39.06.639,kallum_motion_pilot,2023.2.2,Win32,75.75757576,5f25d8172b91b02b72277187,65d2b6c8f2eece985d8e374c,65d2b9e7341d070378ca4f1d,0.0172,0.0172,0,11,11,97,1,fiveseven,,,,,,,,,,,,,,,,,,,,,,,,,,,,,,,,,,,,,,,,,,,,,,,,,,,,,,,,,,,,,,,,,,,,,,,,,,,,,,,,,,,,,,,,,,,,,,,,,,,,,,,,,,,,,,,,,,,,,,,,,,,,,,,,,,,,,,,,,
,,5f25d8172b91b02b72277187,2024-02-19_03h39.06.639,kallum_motion_pilot,2023.2.2,Win32,75.75757576,5f25d8172b91b02b72277187,65d2b6c8f2eece985d8e374c,65d2b9e7341d070378ca4f1d,0.0178,0.0179,0,12,12,129,1,fiveseven,,,,,,,,,,,,,,,,,,,,,,,,,,,,,,,,,,,,,,,,,,,,,,,,,,,,,,,,,,,,,,,,,,,,,,,,,,,,,,,,,,,,,,,,,,,,,,,,,,,,,,,,,,,,,,,,,,,,,,,,,,,,,,,,,,,,,,,,,
,,5f25d8172b91b02b72277187,2024-02-19_03h39.06.639,kallum_motion_pilot,2023.2.2,Win32,75.75757576,5f25d8172b91b02b72277187,65d2b6c8f2eece985d8e374c,65d2b9e7341d070378ca4f1d,0.0179,0.0179,0,13,13,71,1,fourthree,,,,,,,,,,,,,,,,,,,,,,,,,,,,,,,,,,,,,,,,,,,,,,,,,,,,,,,,,,,,,,,,,,,,,,,,,,,,,,,,,,,,,,,,,,,,,,,,,,,,,,,,,,,,,,,,,,,,,,,,,,,,,,,,,,,,,,,,,
,,5f25d8172b91b02b72277187,2024-02-19_03h39.06.639,kallum_motion_pilot,2023.2.2,Win32,75.75757576,5f25d8172b91b02b72277187,65d2b6c8f2eece985d8e374c,65d2b9e7341d070378ca4f1d,0.018,0.018,0,14,14,118,1,eightsix,,,,,,,,,,,,,,,,,,,,,,,,,,,,,,,,,,,,,,,,,,,,,,,,,,,,,,,,,,,,,,,,,,,,,,,,,,,,,,,,,,,,,,,,,,,,,,,,,,,,,,,,,,,,,,,,,,,,,,,,,,,,,,,,,,,,,,,,,
,,5f25d8172b91b02b72277187,2024-02-19_03h39.06.639,kallum_motion_pilot,2023.2.2,Win32,75.75757576,5f25d8172b91b02b72277187,65d2b6c8f2eece985d8e374c,65d2b9e7341d070378ca4f1d,0.0181,0.0182,0,15,15,9,1,onethree,,,,,,,,,,,,,,,,,,,,,,,,,,,,,,,,,,,,,,,,,,,,,,,,,,,,,,,,,,,,,,,,,,,,,,,,,,,,,,,,,,,,,,,,,,,,,,,,,,,,,,,,,,,,,,,,,,,,,,,,,,,,,,,,,,,,,,,,,
,,5f25d8172b91b02b72277187,2024-02-19_03h39.06.639,kallum_motion_pilot,2023.2.2,Win32,75.75757576,5f25d8172b91b02b72277187,65d2b6c8f2eece985d8e374c,65d2b9e7341d070378ca4f1d,0.0183,0.0183,0,16,16,109,1,seveneight,,,,,,,,,,,,,,,,,,,,,,,,,,,,,,,,,,,,,,,,,,,,,,,,,,,,,,,,,,,,,,,,,,,,,,,,,,,,,,,,,,,,,,,,,,,,,,,,,,,,,,,,,,,,,,,,,,,,,,,,,,,,,,,,,,,,,,,,,
,,5f25d8172b91b02b72277187,2024-02-19_03h39.06.639,kallum_motion_pilot,2023.2.2,Win32,75.75757576,5f25d8172b91b02b72277187,65d2b6c8f2eece985d8e374c,65d2b9e7341d070378ca4f1d,0.0183,0.0183,0,17,17,127,1,eightseven,,,,,,,,,,,,,,,,,,,,,,,,,,,,,,,,,,,,,,,,,,,,,,,,,,,,,,,,,,,,,,,,,,,,,,,,,,,,,,,,,,,,,,,,,,,,,,,,,,,,,,,,,,,,,,,,,,,,,,,,,,,,,,,,,,,,,,,,,
,,5f25d8172b91b02b72277187,2024-02-19_03h39.06.639,kallum_motion_pilot,2023.2.2,Win32,75.75757576,5f25d8172b91b02b72277187,65d2b6c8f2eece985d8e374c,65d2b9e7341d070378ca4f1d,0.0183,0.0183,0,18,18,124,1,sevenfive,,,,,,,,,,,,,,,,,,,,,,,,,,,,,,,,,,,,,,,,,,,,,,,,,,,,,,,,,,,,,,,,,,,,,,,,,,,,,,,,,,,,,,,,,,,,,,,,,,,,,,,,,,,,,,,,,,,,,,,,,,,,,,,,,,,,,,,,,
,,5f25d8172b91b02b72277187,2024-02-19_03h39.06.639,kallum_motion_pilot,2023.2.2,Win32,75.75757576,5f25d8172b91b02b72277187,65d2b6c8f2eece985d8e374c,65d2b9e7341d070378ca4f1d,0.0184,0.0184,0,19,19,111,1,eightseven,,,,,,,,,,,,,,,,,,,,,,,,,,,,,,,,,,,,,,,,,,,,,,,,,,,,,,,,,,,,,,,,,,,,,,,,,,,,,,,,,,,,,,,,,,,,,,,,,,,,,,,,,,,,,,,,,,,,,,,,,,,,,,,,,,,,,,,,,
,,5f25d8172b91b02b72277187,2024-02-19_03h39.06.639,kallum_motion_pilot,2023.2.2,Win32,75.75757576,5f25d8172b91b02b72277187,65d2b6c8f2eece985d8e374c,65d2b9e7341d070378ca4f1d,0.0185,0.0185,0,20,20,155,1,sixeight,,,,,,,,,,,,,,,,,,,,,,,,,,,,,,,,,,,,,,,,,,,,,,,,,,,,,,,,,,,,,,,,,,,,,,,,,,,,,,,,,,,,,,,,,,,,,,,,,,,,,,,,,,,,,,,,,,,,,,,,,,,,,,,,,,,,,,,,,
,,5f25d8172b91b02b72277187,2024-02-19_03h39.06.639,kallum_motion_pilot,2023.2.2,Win32,75.75757576,5f25d8172b91b02b72277187,65d2b6c8f2eece985d8e374c,65d2b9e7341d070378ca4f1d,0.0185,0.0185,0,21,21,22,1,fourtwo,,,,,,,,,,,,,,,,,,,,,,,,,,,,,,,,,,,,,,,,,,,,,,,,,,,,,,,,,,,,,,,,,,,,,,,,,,,,,,,,,,,,,,,,,,,,,,,,,,,,,,,,,,,,,,,,,,,,,,,,,,,,,,,,,,,,,,,,,
,,5f25d8172b91b02b72277187,2024-02-19_03h39.06.639,kallum_motion_pilot,2023.2.2,Win32,75.75757576,5f25d8172b91b02b72277187,65d2b6c8f2eece985d8e374c,65d2b9e7341d070378ca4f1d,0.0186,0.0187,0,22,22,59,1,twofour,,,,,,,,,,,,,,,,,,,,,,,,,,,,,,,,,,,,,,,,,,,,,,,,,,,,,,,,,,,,,,,,,,,,,,,,,,,,,,,,,,,,,,,,,,,,,,,,,,,,,,,,,,,,,,,,,,,,,,,,,,,,,,,,,,,,,,,,,
,,5f25d8172b91b02b72277187,2024-02-19_03h39.06.639,kallum_motion_pilot,2023.2.2,Win32,75.75757576,5f25d8172b91b02b72277187,65d2b6c8f2eece985d8e374c,65d2b9e7341d070378ca4f1d,0.0187,0.0187,0,23,23,12,1,threeone,,,,,,,,,,,,,,,,,,,,,,,,,,,,,,,,,,,,,,,,,,,,,,,,,,,,,,,,,,,,,,,,,,,,,,,,,,,,,,,,,,,,,,,,,,,,,,,,,,,,,,,,,,,,,,,,,,,,,,,,,,,,,,,,,,,,,,,,,
,,5f25d8172b91b02b72277187,2024-02-19_03h39.06.639,kallum_motion_pilot,2023.2.2,Win32,75.75757576,5f25d8172b91b02b72277187,65d2b6c8f2eece985d8e374c,65d2b9e7341d070378ca4f1d,0.0188,0.0188,0,24,24,32,1,onetwo,,,,,,,,,,,,,,,,,,,,,,,,,,,,,,,,,,,,,,,,,,,,,,,,,,,,,,,,,,,,,,,,,,,,,,,,,,,,,,,,,,,,,,,,,,,,,,,,,,,,,,,,,,,,,,,,,,,,,,,,,,,,,,,,,,,,,,,,,
,,5f25d8172b91b02b72277187,2024-02-19_03h39.06.639,kallum_motion_pilot,2023.2.2,Win32,75.75757576,5f25d8172b91b02b72277187,65d2b6c8f2eece985d8e374c,65d2b9e7341d070378ca4f1d,0.0189,0.0189,0,25,25,28,1,threeone,,,,,,,,,,,,,,,,,,,,,,,,,,,,,,,,,,,,,,,,,,,,,,,,,,,,,,,,,,,,,,,,,,,,,,,,,,,,,,,,,,,,,,,,,,,,,,,,,,,,,,,,,,,,,,,,,,,,,,,,,,,,,,,,,,,,,,,,,
,,5f25d8172b91b02b72277187,2024-02-19_03h39.06.639,kallum_motion_pilot,2023.2.2,Win32,75.75757576,5f25d8172b91b02b72277187,65d2b6c8f2eece985d8e374c,65d2b9e7341d070378ca4f1d,0.0189,0.0189,0,26,26,45,1,threefour,,,,,,,,,,,,,,,,,,,,,,,,,,,,,,,,,,,,,,,,,,,,,,,,,,,,,,,,,,,,,,,,,,,,,,,,,,,,,,,,,,,,,,,,,,,,,,,,,,,,,,,,,,,,,,,,,,,,,,,,,,,,,,,,,,,,,,,,,
,,5f25d8172b91b02b72277187,2024-02-19_03h39.06.639,kallum_motion_pilot,2023.2.2,Win32,75.75757576,5f25d8172b91b02b72277187,65d2b6c8f2eece985d8e374c,65d2b9e7341d070378ca4f1d,0.019,0.019,0,27,27,76,1,threeone,,,,,,,,,,,,,,,,,,,,,,,,,,,,,,,,,,,,,,,,,,,,,,,,,,,,,,,,,,,,,,,,,,,,,,,,,,,,,,,,,,,,,,,,,,,,,,,,,,,,,,,,,,,,,,,,,,,,,,,,,,,,,,,,,,,,,,,,,
,,5f25d8172b91b02b72277187,2024-02-19_03h39.06.639,kallum_motion_pilot,2023.2.2,Win32,75.75757576,5f25d8172b91b02b72277187,65d2b6c8f2eece985d8e374c,65d2b9e7341d070378ca4f1d,0.019,0.0191,0,28,28,38,1,fourtwo,,,,,,,,,,,,,,,,,,,,,,,,,,,,,,,,,,,,,,,,,,,,,,,,,,,,,,,,,,,,,,,,,,,,,,,,,,,,,,,,,,,,,,,,,,,,,,,,,,,,,,,,,,,,,,,,,,,,,,,,,,,,,,,,,,,,,,,,,
,,5f25d8172b91b02b72277187,2024-02-19_03h39.06.639,kallum_motion_pilot,2023.2.2,Win32,75.75757576,5f25d8172b91b02b72277187,65d2b6c8f2eece985d8e374c,65d2b9e7341d070378ca4f1d,0.0191,0.0192,0,29,29,157,1,seveneight,,,,,,,,,,,,,,,,,,,,,,,,,,,,,,,,,,,,,,,,,,,,,,,,,,,,,,,,,,,,,,,,,,,,,,,,,,,,,,,,,,,,,,,,,,,,,,,,,,,,,,,,,,,,,,,,,,,,,,,,,,,,,,,,,,,,,,,,,
,,5f25d8172b91b02b72277187,2024-02-19_03h39.06.639,kallum_motion_pilot,2023.2.2,Win32,75.75757576,5f25d8172b91b02b72277187,65d2b6c8f2eece985d8e374c,65d2b9e7341d070378ca4f1d,0.0192,0.0192,0,30,30,106,1,sixfive,,,,,,,,,,,,,,,,,,,,,,,,,,,,,,,,,,,,,,,,,,,,,,,,,,,,,,,,,,,,,,,,,,,,,,,,,,,,,,,,,,,,,,,,,,,,,,,,,,,,,,,,,,,,,,,,,,,,,,,,,,,,,,,,,,,,,,,,,
,,5f25d8172b91b02b72277187,2024-02-19_03h39.06.639,kallum_motion_pilot,2023.2.2,Win32,75.75757576,5f25d8172b91b02b72277187,65d2b6c8f2eece985d8e374c,65d2b9e7341d070378ca4f1d,0.0193,0.0193,0,31,31,159,1,eightseven,,,,,,,,,,,,,,,,,,,,,,,,,,,,,,,,,,,,,,,,,,,,,,,,,,,,,,,,,,,,,,,,,,,,,,,,,,,,,,,,,,,,,,,,,,,,,,,,,,,,,,,,,,,,,,,,,,,,,,,,,,,,,,,,,,,,,,,,,
,,5f25d8172b91b02b72277187,2024-02-19_03h39.06.639,kallum_motion_pilot,2023.2.2,Win32,75.75757576,5f25d8172b91b02b72277187,65d2b6c8f2eece985d8e374c,65d2b9e7341d070378ca4f1d,0.0193,0.0193,0,32,32,120,1,fivesix,,,,,,,,,,,,,,,,,,,,,,,,,,,,,,,,,,,,,,,,,,,,,,,,,,,,,,,,,,,,,,,,,,,,,,,,,,,,,,,,,,,,,,,,,,,,,,,,,,,,,,,,,,,,,,,,,,,,,,,,,,,,,,,,,,,,,,,,,
,,5f25d8172b91b02b72277187,2024-02-19_03h39.06.639,kallum_motion_pilot,2023.2.2,Win32,75.75757576,5f25d8172b91b02b72277187,65d2b6c8f2eece985d8e374c,65d2b9e7341d070378ca4f1d,0.0193,0.0194,0,33,33,36,1,threeone,,,,,,,,,,,,,,,,,,,,,,,,,,,,,,,,,,,,,,,,,,,,,,,,,,,,,,,,,,,,,,,,,,,,,,,,,,,,,,,,,,,,,,,,,,,,,,,,,,,,,,,,,,,,,,,,,,,,,,,,,,,,,,,,,,,,,,,,,
,,5f25d8172b91b02b72277187,2024-02-19_03h39.06.639,kallum_motion_pilot,2023.2.2,Win32,75.75757576,5f25d8172b91b02b72277187,65d2b6c8f2eece985d8e374c,65d2b9e7341d070378ca4f1d,0.0194,0.0194,0,34,34,151,1,eightseven,,,,,,,,,,,,,,,,,,,,,,,,,,,,,,,,,,,,,,,,,,,,,,,,,,,,,,,,,,,,,,,,,,,,,,,,,,,,,,,,,,,,,,,,,,,,,,,,,,,,,,,,,,,,,,,,,,,,,,,,,,,,,,,,,,,,,,,,,
,,5f25d8172b91b02b72277187,2024-02-19_03h39.06.639,kallum_motion_pilot,2023.2.2,Win32,75.75757576,5f25d8172b91b02b72277187,65d2b6c8f2eece985d8e374c,65d2b9e7341d070378ca4f1d,0.0196,0.0196,0,35,35,141,1,seveneight,,,,,,,,,,,,,,,,,,,,,,,,,,,,,,,,,,,,,,,,,,,,,,,,,,,,,,,,,,,,,,,,,,,,,,,,,,,,,,,,,,,,,,,,,,,,,,,,,,,,,,,,,,,,,,,,,,,,,,,,,,,,,,,,,,,,,,,,,
,,5f25d8172b91b02b72277187,2024-02-19_03h39.06.639,kallum_motion_pilot,2023.2.2,Win32,75.75757576,5f25d8172b91b02b72277187,65d2b6c8f2eece985d8e374c,65d2b9e7341d070378ca4f1d,0.0196,0.0196,0,36,36,39,1,fourthree,,,,,,,,,,,,,,,,,,,,,,,,,,,,,,,,,,,,,,,,,,,,,,,,,,,,,,,,,,,,,,,,,,,,,,,,,,,,,,,,,,,,,,,,,,,,,,,,,,,,,,,,,,,,,,,,,,,,,,,,,,,,,,,,,,,,,,,,,
,,5f25d8172b91b02b72277187,2024-02-19_03h39.06.639,kallum_motion_pilot,2023.2.2,Win32,75.75757576,5f25d8172b91b02b72277187,65d2b6c8f2eece985d8e374c,65d2b9e7341d070378ca4f1d,0.0197,0.0197,0,37,37,68,1,threeone,,,,,,,,,,,,,,,,,,,,,,,,,,,,,,,,,,,,,,,,,,,,,,,,,,,,,,,,,,,,,,,,,,,,,,,,,,,,,,,,,,,,,,,,,,,,,,,,,,,,,,,,,,,,,,,,,,,,,,,,,,,,,,,,,,,,,,,,,
,,5f25d8172b91b02b72277187,2024-02-19_03h39.06.639,kallum_motion_pilot,2023.2.2,Win32,75.75757576,5f25d8172b91b02b72277187,65d2b6c8f2eece985d8e374c,65d2b9e7341d070378ca4f1d,0.0197,0.0197,0,38,38,144,1,fivesix,,,,,,,,,,,,,,,,,,,,,,,,,,,,,,,,,,,,,,,,,,,,,,,,,,,,,,,,,,,,,,,,,,,,,,,,,,,,,,,,,,,,,,,,,,,,,,,,,,,,,,,,,,,,,,,,,,,,,,,,,,,,,,,,,,,,,,,,,
,,5f25d8172b91b02b72277187,2024-02-19_03h39.06.639,kallum_motion_pilot,2023.2.2,Win32,75.75757576,5f25d8172b91b02b72277187,65d2b6c8f2eece985d8e374c,65d2b9e7341d070378ca4f1d,0.0198,0.0198,0,39,39,13,1,threefour,,,,,,,,,,,,,,,,,,,,,,,,,,,,,,,,,,,,,,,,,,,,,,,,,,,,,,,,,,,,,,,,,,,,,,,,,,,,,,,,,,,,,,,,,,,,,,,,,,,,,,,,,,,,,,,,,,,,,,,,,,,,,,,,,,,,,,,,,
,,5f25d8172b91b02b72277187,2024-02-19_03h39.06.639,kallum_motion_pilot,2023.2.2,Win32,75.75757576,5f25d8172b91b02b72277187,65d2b6c8f2eece985d8e374c,65d2b9e7341d070378ca4f1d,0.0198,0.0199,0,40,40,122,1,sixfive,,,,,,,,,,,,,,,,,,,,,,,,,,,,,,,,,,,,,,,,,,,,,,,,,,,,,,,,,,,,,,,,,,,,,,,,,,,,,,,,,,,,,,,,,,,,,,,,,,,,,,,,,,,,,,,,,,,,,,,,,,,,,,,,,,,,,,,,,
,,5f25d8172b91b02b72277187,2024-02-19_03h39.06.639,kallum_motion_pilot,2023.2.2,Win32,75.75757576,5f25d8172b91b02b72277187,65d2b6c8f2eece985d8e374c,65d2b9e7341d070378ca4f1d,0.02,0.02,0,41,41,147,1,sixeight,,,,,,,,,,,,,,,,,,,,,,,,,,,,,,,,,,,,,,,,,,,,,,,,,,,,,,,,,,,,,,,,,,,,,,,,,,,,,,,,,,,,,,,,,,,,,,,,,,,,,,,,,,,,,,,,,,,,,,,,,,,,,,,,,,,,,,,,,
,,5f25d8172b91b02b72277187,2024-02-19_03h39.06.639,kallum_motion_pilot,2023.2.2,Win32,75.75757576,5f25d8172b91b02b72277187,65d2b6c8f2eece985d8e374c,65d2b9e7341d070378ca4f1d,0.02,0.02,0,42,42,113,1,fiveseven,,,,,,,,,,,,,,,,,,,,,,,,,,,,,,,,,,,,,,,,,,,,,,,,,,,,,,,,,,,,,,,,,,,,,,,,,,,,,,,,,,,,,,,,,,,,,,,,,,,,,,,,,,,,,,,,,,,,,,,,,,,,,,,,,,,,,,,,,
,,5f25d8172b91b02b72277187,2024-02-19_03h39.06.639,kallum_motion_pilot,2023.2.2,Win32,75.75757576,5f25d8172b91b02b72277187,65d2b6c8f2eece985d8e374c,65d2b9e7341d070378ca4f1d,0.02,0.0201,0,43,43,92,1,sevenfive,,,,,,,,,,,,,,,,,,,,,,,,,,,,,,,,,,,,,,,,,,,,,,,,,,,,,,,,,,,,,,,,,,,,,,,,,,,,,,,,,,,,,,,,,,,,,,,,,,,,,,,,,,,,,,,,,,,,,,,,,,,,,,,,,,,,,,,,,
,,5f25d8172b91b02b72277187,2024-02-19_03h39.06.639,kallum_motion_pilot,2023.2.2,Win32,75.75757576,5f25d8172b91b02b72277187,65d2b6c8f2eece985d8e374c,65d2b9e7341d070378ca4f1d,0.0201,0.0202,0,44,44,104,1,fivesix,,,,,,,,,,,,,,,,,,,,,,,,,,,,,,,,,,,,,,,,,,,,,,,,,,,,,,,,,,,,,,,,,,,,,,,,,,,,,,,,,,,,,,,,,,,,,,,,,,,,,,,,,,,,,,,,,,,,,,,,,,,,,,,,,,,,,,,,,
,,5f25d8172b91b02b72277187,2024-02-19_03h39.06.639,kallum_motion_pilot,2023.2.2,Win32,75.75757576,5f25d8172b91b02b72277187,65d2b6c8f2eece985d8e374c,65d2b9e7341d070378ca4f1d,0.0202,0.0202,0,45,45,134,1,eightsix,,,,,,,,,,,,,,,,,,,,,,,,,,,,,,,,,,,,,,,,,,,,,,,,,,,,,,,,,,,,,,,,,,,,,,,,,,,,,,,,,,,,,,,,,,,,,,,,,,,,,,,,,,,,,,,,,,,,,,,,,,,,,,,,,,,,,,,,,
,,5f25d8172b91b02b72277187,2024-02-19_03h39.06.639,kallum_motion_pilot,2023.2.2,Win32,75.75757576,5f25d8172b91b02b72277187,65d2b6c8f2eece985d8e374c,65d2b9e7341d070378ca4f1d,0.0203,0.0203,0,46,46,136,1,fivesix,,,,,,,,,,,,,,,,,,,,,,,,,,,,,,,,,,,,,,,,,,,,,,,,,,,,,,,,,,,,,,,,,,,,,,,,,,,,,,,,,,,,,,,,,,,,,,,,,,,,,,,,,,,,,,,,,,,,,,,,,,,,,,,,,,,,,,,,,
,,5f25d8172b91b02b72277187,2024-02-19_03h39.06.639,kallum_motion_pilot,2023.2.2,Win32,75.75757576,5f25d8172b91b02b72277187,65d2b6c8f2eece985d8e374c,65d2b9e7341d070378ca4f1d,0.0203,0.0203,0,47,47,20,1,threeone,,,,,,,,,,,,,,,,,,,,,,,,,,,,,,,,,,,,,,,,,,,,,,,,,,,,,,,,,,,,,,,,,,,,,,,,,,,,,,,,,,,,,,,,,,,,,,,,,,,,,,,,,,,,,,,,,,,,,,,,,,,,,,,,,,,,,,,,,
,,5f25d8172b91b02b72277187,2024-02-19_03h39.06.639,kallum_motion_pilot,2023.2.2,Win32,75.75757576,5f25d8172b91b02b72277187,65d2b6c8f2eece985d8e374c,65d2b9e7341d070378ca4f1d,0.0204,0.0204,0,48,48,86,1,eightsix,,,,,,,,,,,,,,,,,,,,,,,,,,,,,,,,,,,,,,,,,,,,,,,,,,,,,,,,,,,,,,,,,,,,,,,,,,,,,,,,,,,,,,,,,,,,,,,,,,,,,,,,,,,,,,,,,,,,,,,,,,,,,,,,,,,,,,,,,
,,5f25d8172b91b02b72277187,2024-02-19_03h39.06.639,kallum_motion_pilot,2023.2.2,Win32,75.75757576,5f25d8172b91b02b72277187,65d2b6c8f2eece985d8e374c,65d2b9e7341d070378ca4f1d,0.0205,0.0205,0,49,49,126,1,eightsix,,,,,,,,,,,,,,,,,,,,,,,,,,,,,,,,,,,,,,,,,,,,,,,,,,,,,,,,,,,,,,,,,,,,,,,,,,,,,,,,,,,,,,,,,,,,,,,,,,,,,,,,,,,,,,,,,,,,,,,,,,,,,,,,,,,,,,,,,
,,5f25d8172b91b02b72277187,2024-02-19_03h39.06.639,kallum_motion_pilot,2023.2.2,Win32,75.75757576,5f25d8172b91b02b72277187,65d2b6c8f2eece985d8e374c,65d2b9e7341d070378ca4f1d,0.0206,0.0206,0,50,50,29,1,threefour,,,,,,,,,,,,,,,,,,,,,,,,,,,,,,,,,,,,,,,,,,,,,,,,,,,,,,,,,,,,,,,,,,,,,,,,,,,,,,,,,,,,,,,,,,,,,,,,,,,,,,,,,,,,,,,,,,,,,,,,,,,,,,,,,,,,,,,,,
,,5f25d8172b91b02b72277187,2024-02-19_03h39.06.639,kallum_motion_pilot,2023.2.2,Win32,75.75757576,5f25d8172b91b02b72277187,65d2b6c8f2eece985d8e374c,65d2b9e7341d070378ca4f1d,0.0206,0.0206,0,51,51,107,1,sixeight,,,,,,,,,,,,,,,,,,,,,,,,,,,,,,,,,,,,,,,,,,,,,,,,,,,,,,,,,,,,,,,,,,,,,,,,,,,,,,,,,,,,,,,,,,,,,,,,,,,,,,,,,,,,,,,,,,,,,,,,,,,,,,,,,,,,,,,,,
,,5f25d8172b91b02b72277187,2024-02-19_03h39.06.639,kallum_motion_pilot,2023.2.2,Win32,75.75757576,5f25d8172b91b02b72277187,65d2b6c8f2eece985d8e374c,65d2b9e7341d070378ca4f1d,0.0207,0.0207,0,52,52,3,1,twofour,,,,,,,,,,,,,,,,,,,,,,,,,,,,,,,,,,,,,,,,,,,,,,,,,,,,,,,,,,,,,,,,,,,,,,,,,,,,,,,,,,,,,,,,,,,,,,,,,,,,,,,,,,,,,,,,,,,,,,,,,,,,,,,,,,,,,,,,,
,,5f25d8172b91b02b72277187,2024-02-19_03h39.06.639,kallum_motion_pilot,2023.2.2,Win32,75.75757576,5f25d8172b91b02b72277187,65d2b6c8f2eece985d8e374c,65d2b9e7341d070378ca4f1d,0.0208,0.0208,0,53,53,37,1,threefour,,,,,,,,,,,,,,,,,,,,,,,,,,,,,,,,,,,,,,,,,,,,,,,,,,,,,,,,,,,,,,,,,,,,,,,,,,,,,,,,,,,,,,,,,,,,,,,,,,,,,,,,,,,,,,,,,,,,,,,,,,,,,,,,,,,,,,,,,
,,5f25d8172b91b02b72277187,2024-02-19_03h39.06.639,kallum_motion_pilot,2023.2.2,Win32,75.75757576,5f25d8172b91b02b72277187,65d2b6c8f2eece985d8e374c,65d2b9e7341d070378ca4f1d,0.0208,0.0208,0,54,54,26,1,twoone,,,,,,,,,,,,,,,,,,,,,,,,,,,,,,,,,,,,,,,,,,,,,,,,,,,,,,,,,,,,,,,,,,,,,,,,,,,,,,,,,,,,,,,,,,,,,,,,,,,,,,,,,,,,,,,,,,,,,,,,,,,,,,,,,,,,,,,,,
,,5f25d8172b91b02b72277187,2024-02-19_03h39.06.639,kallum_motion_pilot,2023.2.2,Win32,75.75757576,5f25d8172b91b02b72277187,65d2b6c8f2eece985d8e374c,65d2b9e7341d070378ca4f1d,0.0209,0.0209,0,55,55,98,1,sixfive,,,,,,,,,,,,,,,,,,,,,,,,,,,,,,,,,,,,,,,,,,,,,,,,,,,,,,,,,,,,,,,,,,,,,,,,,,,,,,,,,,,,,,,,,,,,,,,,,,,,,,,,,,,,,,,,,,,,,,,,,,,,,,,,,,,,,,,,,
,,5f25d8172b91b02b72277187,2024-02-19_03h39.06.639,kallum_motion_pilot,2023.2.2,Win32,75.75757576,5f25d8172b91b02b72277187,65d2b6c8f2eece985d8e374c,65d2b9e7341d070378ca4f1d,0.021,0.021,0,56,56,85,1,seveneight,,,,,,,,,,,,,,,,,,,,,,,,,,,,,,,,,,,,,,,,,,,,,,,,,,,,,,,,,,,,,,,,,,,,,,,,,,,,,,,,,,,,,,,,,,,,,,,,,,,,,,,,,,,,,,,,,,,,,,,,,,,,,,,,,,,,,,,,,
,,5f25d8172b91b02b72277187,2024-02-19_03h39.06.639,kallum_motion_pilot,2023.2.2,Win32,75.75757576,5f25d8172b91b02b72277187,65d2b6c8f2eece985d8e374c,65d2b9e7341d070378ca4f1d,0.0211,0.0211,0,57,57,116,1,sevenfive,,,,,,,,,,,,,,,,,,,,,,,,,,,,,,,,,,,,,,,,,,,,,,,,,,,,,,,,,,,,,,,,,,,,,,,,,,,,,,,,,,,,,,,,,,,,,,,,,,,,,,,,,,,,,,,,,,,,,,,,,,,,,,,,,,,,,,,,,
,,5f25d8172b91b02b72277187,2024-02-19_03h39.06.639,kallum_motion_pilot,2023.2.2,Win32,75.75757576,5f25d8172b91b02b72277187,65d2b6c8f2eece985d8e374c,65d2b9e7341d070378ca4f1d,0.0211,0.0211,0,58,58,1,1,onethree,,,,,,,,,,,,,,,,,,,,,,,,,,,,,,,,,,,,,,,,,,,,,,,,,,,,,,,,,,,,,,,,,,,,,,,,,,,,,,,,,,,,,,,,,,,,,,,,,,,,,,,,,,,,,,,,,,,,,,,,,,,,,,,,,,,,,,,,,
,,5f25d8172b91b02b72277187,2024-02-19_03h39.06.639,kallum_motion_pilot,2023.2.2,Win32,75.75757576,5f25d8172b91b02b72277187,65d2b6c8f2eece985d8e374c,65d2b9e7341d070378ca4f1d,0.0212,0.0212,0,59,59,156,1,sevenfive,,,,,,,,,,,,,,,,,,,,,,,,,,,,,,,,,,,,,,,,,,,,,,,,,,,,,,,,,,,,,,,,,,,,,,,,,,,,,,,,,,,,,,,,,,,,,,,,,,,,,,,,,,,,,,,,,,,,,,,,,,,,,,,,,,,,,,,,,
,,5f25d8172b91b02b72277187,2024-02-19_03h39.06.639,kallum_motion_pilot,2023.2.2,Win32,75.75757576,5f25d8172b91b02b72277187,65d2b6c8f2eece985d8e374c,65d2b9e7341d070378ca4f1d,0.0213,0.0213,0,60,60,161,1,fiveseven,,,,,,,,,,,,,,,,,,,,,,,,,,,,,,,,,,,,,,,,,,,,,,,,,,,,,,,,,,,,,,,,,,,,,,,,,,,,,,,,,,,,,,,,,,,,,,,,,,,,,,,,,,,,,,,,,,,,,,,,,,,,,,,,,,,,,,,,,
,,5f25d8172b91b02b72277187,2024-02-19_03h39.06.639,kallum_motion_pilot,2023.2.2,Win32,75.75757576,5f25d8172b91b02b72277187,65d2b6c8f2eece985d8e374c,65d2b9e7341d070378ca4f1d,0.0214,0.0214,0,61,61,149,1,seveneight,,,,,,,,,,,,,,,,,,,,,,,,,,,,,,,,,,,,,,,,,,,,,,,,,,,,,,,,,,,,,,,,,,,,,,,,,,,,,,,,,,,,,,,,,,,,,,,,,,,,,,,,,,,,,,,,,,,,,,,,,,,,,,,,,,,,,,,,,
,,5f25d8172b91b02b72277187,2024-02-19_03h39.06.639,kallum_motion_pilot,2023.2.2,Win32,75.75757576,5f25d8172b91b02b72277187,65d2b6c8f2eece985d8e374c,65d2b9e7341d070378ca4f1d,0.0215,0.0215,0,62,62,79,1,eightseven,,,,,,,,,,,,,,,,,,,,,,,,,,,,,,,,,,,,,,,,,,,,,,,,,,,,,,,,,,,,,,,,,,,,,,,,,,,,,,,,,,,,,,,,,,,,,,,,,,,,,,,,,,,,,,,,,,,,,,,,,,,,,,,,,,,,,,,,,
,,5f25d8172b91b02b72277187,2024-02-19_03h39.06.639,kallum_motion_pilot,2023.2.2,Win32,75.75757576,5f25d8172b91b02b72277187,65d2b6c8f2eece985d8e374c,65d2b9e7341d070378ca4f1d,0.0216,0.0216,0,63,63,105,1,fiveseven,,,,,,,,,,,,,,,,,,,,,,,,,,,,,,,,,,,,,,,,,,,,,,,,,,,,,,,,,,,,,,,,,,,,,,,,,,,,,,,,,,,,,,,,,,,,,,,,,,,,,,,,,,,,,,,,,,,,,,,,,,,,,,,,,,,,,,,,,
,,5f25d8172b91b02b72277187,2024-02-19_03h39.06.639,kallum_motion_pilot,2023.2.2,Win32,75.75757576,5f25d8172b91b02b72277187,65d2b6c8f2eece985d8e374c,65d2b9e7341d070378ca4f1d,0.0217,0.0217,0,64,64,154,1,sixfive,,,,,,,,,,,,,,,,,,,,,,,,,,,,,,,,,,,,,,,,,,,,,,,,,,,,,,,,,,,,,,,,,,,,,,,,,,,,,,,,,,,,,,,,,,,,,,,,,,,,,,,,,,,,,,,,,,,,,,,,,,,,,,,,,,,,,,,,,
,,5f25d8172b91b02b72277187,2024-02-19_03h39.06.639,kallum_motion_pilot,2023.2.2,Win32,75.75757576,5f25d8172b91b02b72277187,65d2b6c8f2eece985d8e374c,65d2b9e7341d070378ca4f1d,0.0219,0.0219,0,65,65,47,1,fourthree,,,,,,,,,,,,,,,,,,,,,,,,,,,,,,,,,,,,,,,,,,,,,,,,,,,,,,,,,,,,,,,,,,,,,,,,,,,,,,,,,,,,,,,,,,,,,,,,,,,,,,,,,,,,,,,,,,,,,,,,,,,,,,,,,,,,,,,,,
,,5f25d8172b91b02b72277187,2024-02-19_03h39.06.639,kallum_motion_pilot,2023.2.2,Win32,75.75757576,5f25d8172b91b02b72277187,65d2b6c8f2eece985d8e374c,65d2b9e7341d070378ca4f1d,0.022,0.022,0,66,66,31,1,fourthree,,,,,,,,,,,,,,,,,,,,,,,,,,,,,,,,,,,,,,,,,,,,,,,,,,,,,,,,,,,,,,,,,,,,,,,,,,,,,,,,,,,,,,,,,,,,,,,,,,,,,,,,,,,,,,,,,,,,,,,,,,,,,,,,,,,,,,,,,
,,5f25d8172b91b02b72277187,2024-02-19_03h39.06.639,kallum_motion_pilot,2023.2.2,Win32,75.75757576,5f25d8172b91b02b72277187,65d2b6c8f2eece985d8e374c,65d2b9e7341d070378ca4f1d,0.022,0.0221,0,67,67,75,1,twofour,,,,,,,,,,,,,,,,,,,,,,,,,,,,,,,,,,,,,,,,,,,,,,,,,,,,,,,,,,,,,,,,,,,,,,,,,,,,,,,,,,,,,,,,,,,,,,,,,,,,,,,,,,,,,,,,,,,,,,,,,,,,,,,,,,,,,,,,,
,,5f25d8172b91b02b72277187,2024-02-19_03h39.06.639,kallum_motion_pilot,2023.2.2,Win32,75.75757576,5f25d8172b91b02b72277187,65d2b6c8f2eece985d8e374c,65d2b9e7341d070378ca4f1d,0.0221,0.0222,0,68,68,15,1,fourthree,,,,,,,,,,,,,,,,,,,,,,,,,,,,,,,,,,,,,,,,,,,,,,,,,,,,,,,,,,,,,,,,,,,,,,,,,,,,,,,,,,,,,,,,,,,,,,,,,,,,,,,,,,,,,,,,,,,,,,,,,,,,,,,,,,,,,,,,,
,,5f25d8172b91b02b72277187,2024-02-19_03h39.06.639,kallum_motion_pilot,2023.2.2,Win32,75.75757576,5f25d8172b91b02b72277187,65d2b6c8f2eece985d8e374c,65d2b9e7341d070378ca4f1d,0.0222,0.0223,0,69,69,100,1,sevenfive,,,,,,,,,,,,,,,,,,,,,,,,,,,,,,,,,,,,,,,,,,,,,,,,,,,,,,,,,,,,,,,,,,,,,,,,,,,,,,,,,,,,,,,,,,,,,,,,,,,,,,,,,,,,,,,,,,,,,,,,,,,,,,,,,,,,,,,,,
,,5f25d8172b91b02b72277187,2024-02-19_03h39.06.639,kallum_motion_pilot,2023.2.2,Win32,75.75757576,5f25d8172b91b02b72277187,65d2b6c8f2eece985d8e374c,65d2b9e7341d070378ca4f1d,0.0223,0.0224,0,70,70,42,1,twoone,,,,,,,,,,,,,,,,,,,,,,,,,,,,,,,,,,,,,,,,,,,,,,,,,,,,,,,,,,,,,,,,,,,,,,,,,,,,,,,,,,,,,,,,,,,,,,,,,,,,,,,,,,,,,,,,,,,,,,,,,,,,,,,,,,,,,,,,,
,,5f25d8172b91b02b72277187,2024-02-19_03h39.06.639,kallum_motion_pilot,2023.2.2,Win32,75.75757576,5f25d8172b91b02b72277187,65d2b6c8f2eece985d8e374c,65d2b9e7341d070378ca4f1d,0.0224,0.0225,0,71,71,6,1,fourtwo,,,,,,,,,,,,,,,,,,,,,,,,,,,,,,,,,,,,,,,,,,,,,,,,,,,,,,,,,,,,,,,,,,,,,,,,,,,,,,,,,,,,,,,,,,,,,,,,,,,,,,,,,,,,,,,,,,,,,,,,,,,,,,,,,,,,,,,,,
,,5f25d8172b91b02b72277187,2024-02-19_03h39.06.639,kallum_motion_pilot,2023.2.2,Win32,75.75757576,5f25d8172b91b02b72277187,65d2b6c8f2eece985d8e374c,65d2b9e7341d070378ca4f1d,0.0225,0.0225,0,72,72,121,1,fiveseven,,,,,,,,,,,,,,,,,,,,,,,,,,,,,,,,,,,,,,,,,,,,,,,,,,,,,,,,,,,,,,,,,,,,,,,,,,,,,,,,,,,,,,,,,,,,,,,,,,,,,,,,,,,,,,,,,,,,,,,,,,,,,,,,,,,,,,,,,
,,5f25d8172b91b02b72277187,2024-02-19_03h39.06.639,kallum_motion_pilot,2023.2.2,Win32,75.75757576,5f25d8172b91b02b72277187,65d2b6c8f2eece985d8e374c,65d2b9e7341d070378ca4f1d,0.0226,0.0226,0,73,73,119,1,eightseven,,,,,,,,,,,,,,,,,,,,,,,,,,,,,,,,,,,,,,,,,,,,,,,,,,,,,,,,,,,,,,,,,,,,,,,,,,,,,,,,,,,,,,,,,,,,,,,,,,,,,,,,,,,,,,,,,,,,,,,,,,,,,,,,,,,,,,,,,
,,5f25d8172b91b02b72277187,2024-02-19_03h39.06.639,kallum_motion_pilot,2023.2.2,Win32,75.75757576,5f25d8172b91b02b72277187,65d2b6c8f2eece985d8e374c,65d2b9e7341d070378ca4f1d,0.0226,0.0226,0,74,74,114,1,sixfive,,,,,,,,,,,,,,,,,,,,,,,,,,,,,,,,,,,,,,,,,,,,,,,,,,,,,,,,,,,,,,,,,,,,,,,,,,,,,,,,,,,,,,,,,,,,,,,,,,,,,,,,,,,,,,,,,,,,,,,,,,,,,,,,,,,,,,,,,
,,5f25d8172b91b02b72277187,2024-02-19_03h39.06.639,kallum_motion_pilot,2023.2.2,Win32,75.75757576,5f25d8172b91b02b72277187,65d2b6c8f2eece985d8e374c,65d2b9e7341d070378ca4f1d,0.0227,0.0228,0,75,75,148,1,sevenfive,,,,,,,,,,,,,,,,,,,,,,,,,,,,,,,,,,,,,,,,,,,,,,,,,,,,,,,,,,,,,,,,,,,,,,,,,,,,,,,,,,,,,,,,,,,,,,,,,,,,,,,,,,,,,,,,,,,,,,,,,,,,,,,,,,,,,,,,,
,,5f25d8172b91b02b72277187,2024-02-19_03h39.06.639,kallum_motion_pilot,2023.2.2,Win32,75.75757576,5f25d8172b91b02b72277187,65d2b6c8f2eece985d8e374c,65d2b9e7341d070378ca4f1d,0.0228,0.0228,0,76,76,91,1,sixeight,,,,,,,,,,,,,,,,,,,,,,,,,,,,,,,,,,,,,,,,,,,,,,,,,,,,,,,,,,,,,,,,,,,,,,,,,,,,,,,,,,,,,,,,,,,,,,,,,,,,,,,,,,,,,,,,,,,,,,,,,,,,,,,,,,,,,,,,,
,,5f25d8172b91b02b72277187,2024-02-19_03h39.06.639,kallum_motion_pilot,2023.2.2,Win32,75.75757576,5f25d8172b91b02b72277187,65d2b6c8f2eece985d8e374c,65d2b9e7341d070378ca4f1d,0.0229,0.0229,0,77,77,139,1,sixeight,,,,,,,,,,,,,,,,,,,,,,,,,,,,,,,,,,,,,,,,,,,,,,,,,,,,,,,,,,,,,,,,,,,,,,,,,,,,,,,,,,,,,,,,,,,,,,,,,,,,,,,,,,,,,,,,,,,,,,,,,,,,,,,,,,,,,,,,,
,,5f25d8172b91b02b72277187,2024-02-19_03h39.06.639,kallum_motion_pilot,2023.2.2,Win32,75.75757576,5f25d8172b91b02b72277187,65d2b6c8f2eece985d8e374c,65d2b9e7341d070378ca4f1d,0.023,0.0231,0,78,78,150,1,eightsix,,,,,,,,,,,,,,,,,,,,,,,,,,,,,,,,,,,,,,,,,,,,,,,,,,,,,,,,,,,,,,,,,,,,,,,,,,,,,,,,,,,,,,,,,,,,,,,,,,,,,,,,,,,,,,,,,,,,,,,,,,,,,,,,,,,,,,,,,
,,5f25d8172b91b02b72277187,2024-02-19_03h39.06.639,kallum_motion_pilot,2023.2.2,Win32,75.75757576,5f25d8172b91b02b72277187,65d2b6c8f2eece985d8e374c,65d2b9e7341d070378ca4f1d,0.0231,0.0231,0,79,79,83,1,sixeight,,,,,,,,,,,,,,,,,,,,,,,,,,,,,,,,,,,,,,,,,,,,,,,,,,,,,,,,,,,,,,,,,,,,,,,,,,,,,,,,,,,,,,,,,,,,,,,,,,,,,,,,,,,,,,,,,,,,,,,,,,,,,,,,,,,,,,,,,
,,5f25d8172b91b02b72277187,2024-02-19_03h39.06.639,kallum_motion_pilot,2023.2.2,Win32,75.75757576,5f25d8172b91b02b72277187,65d2b6c8f2eece985d8e374c,65d2b9e7341d070378ca4f1d,0.0232,0.0233,0,80,80,145,1,fiveseven,,,,,,,,,,,,,,,,,,,,,,,,,,,,,,,,,,,,,,,,,,,,,,,,,,,,,,,,,,,,,,,,,,,,,,,,,,,,,,,,,,,,,,,,,,,,,,,,,,,,,,,,,,,,,,,,,,,,,,,,,,,,,,,,,,,,,,,,,
,,5f25d8172b91b02b72277187,2024-02-19_03h39.06.639,kallum_motion_pilot,2023.2.2,Win32,75.75757576,5f25d8172b91b02b72277187,65d2b6c8f2eece985d8e374c,65d2b9e7341d070378ca4f1d,0.0241,0.0241,0,81,81,16,1,onetwo,,,,,,,,,,,,,,,,,,,,,,,,,,,,,,,,,,,,,,,,,,,,,,,,,,,,,,,,,,,,,,,,,,,,,,,,,,,,,,,,,,,,,,,,,,,,,,,,,,,,,,,,,,,,,,,,,,,,,,,,,,,,,,,,,,,,,,,,,
,,5f25d8172b91b02b72277187,2024-02-19_03h39.06.639,kallum_motion_pilot,2023.2.2,Win32,75.75757576,5f25d8172b91b02b72277187,65d2b6c8f2eece985d8e374c,65d2b9e7341d070378ca4f1d,0.0242,0.0242,0,82,82,4,1,threeone,,,,,,,,,,,,,,,,,,,,,,,,,,,,,,,,,,,,,,,,,,,,,,,,,,,,,,,,,,,,,,,,,,,,,,,,,,,,,,,,,,,,,,,,,,,,,,,,,,,,,,,,,,,,,,,,,,,,,,,,,,,,,,,,,,,,,,,,,
,,5f25d8172b91b02b72277187,2024-02-19_03h39.06.639,kallum_motion_pilot,2023.2.2,Win32,75.75757576,5f25d8172b91b02b72277187,65d2b6c8f2eece985d8e374c,65d2b9e7341d070378ca4f1d,0.0243,0.0244,0,83,83,27,1,twofour,,,,,,,,,,,,,,,,,,,,,,,,,,,,,,,,,,,,,,,,,,,,,,,,,,,,,,,,,,,,,,,,,,,,,,,,,,,,,,,,,,,,,,,,,,,,,,,,,,,,,,,,,,,,,,,,,,,,,,,,,,,,,,,,,,,,,,,,,
,,5f25d8172b91b02b72277187,2024-02-19_03h39.06.639,kallum_motion_pilot,2023.2.2,Win32,75.75757576,5f25d8172b91b02b72277187,65d2b6c8f2eece985d8e374c,65d2b9e7341d070378ca4f1d,0.0244,0.0245,0,84,84,11,1,twofour,,,,,,,,,,,,,,,,,,,,,,,,,,,,,,,,,,,,,,,,,,,,,,,,,,,,,,,,,,,,,,,,,,,,,,,,,,,,,,,,,,,,,,,,,,,,,,,,,,,,,,,,,,,,,,,,,,,,,,,,,,,,,,,,,,,,,,,,,
,,5f25d8172b91b02b72277187,2024-02-19_03h39.06.639,kallum_motion_pilot,2023.2.2,Win32,75.75757576,5f25d8172b91b02b72277187,65d2b6c8f2eece985d8e374c,65d2b9e7341d070378ca4f1d,0.0246,0.0246,0,85,85,132,1,sevenfive,,,,,,,,,,,,,,,,,,,,,,,,,,,,,,,,,,,,,,,,,,,,,,,,,,,,,,,,,,,,,,,,,,,,,,,,,,,,,,,,,,,,,,,,,,,,,,,,,,,,,,,,,,,,,,,,,,,,,,,,,,,,,,,,,,,,,,,,,
,,5f25d8172b91b02b72277187,2024-02-19_03h39.06.639,kallum_motion_pilot,2023.2.2,Win32,75.75757576,5f25d8172b91b02b72277187,65d2b6c8f2eece985d8e374c,65d2b9e7341d070378ca4f1d,0.0246,0.0247,0,86,86,89,1,fiveseven,,,,,,,,,,,,,,,,,,,,,,,,,,,,,,,,,,,,,,,,,,,,,,,,,,,,,,,,,,,,,,,,,,,,,,,,,,,,,,,,,,,,,,,,,,,,,,,,,,,,,,,,,,,,,,,,,,,,,,,,,,,,,,,,,,,,,,,,,
,,5f25d8172b91b02b72277187,2024-02-19_03h39.06.639,kallum_motion_pilot,2023.2.2,Win32,75.75757576,5f25d8172b91b02b72277187,65d2b6c8f2eece985d8e374c,65d2b9e7341d070378ca4f1d,0.0247,0.0248,0,87,87,51,1,twofour,,,,,,,,,,,,,,,,,,,,,,,,,,,,,,,,,,,,,,,,,,,,,,,,,,,,,,,,,,,,,,,,,,,,,,,,,,,,,,,,,,,,,,,,,,,,,,,,,,,,,,,,,,,,,,,,,,,,,,,,,,,,,,,,,,,,,,,,,
,,5f25d8172b91b02b72277187,2024-02-19_03h39.06.639,kallum_motion_pilot,2023.2.2,Win32,75.75757576,5f25d8172b91b02b72277187,65d2b6c8f2eece985d8e374c,65d2b9e7341d070378ca4f1d,0.0249,0.0249,0,88,88,102,1,eightsix,,,,,,,,,,,,,,,,,,,,,,,,,,,,,,,,,,,,,,,,,,,,,,,,,,,,,,,,,,,,,,,,,,,,,,,,,,,,,,,,,,,,,,,,,,,,,,,,,,,,,,,,,,,,,,,,,,,,,,,,,,,,,,,,,,,,,,,,,
,,5f25d8172b91b02b72277187,2024-02-19_03h39.06.639,kallum_motion_pilot,2023.2.2,Win32,75.75757576,5f25d8172b91b02b72277187,65d2b6c8f2eece985d8e374c,65d2b9e7341d070378ca4f1d,0.0249,0.0251,0,89,89,90,1,sixfive,,,,,,,,,,,,,,,,,,,,,,,,,,,,,,,,,,,,,,,,,,,,,,,,,,,,,,,,,,,,,,,,,,,,,,,,,,,,,,,,,,,,,,,,,,,,,,,,,,,,,,,,,,,,,,,,,,,,,,,,,,,,,,,,,,,,,,,,,
,,5f25d8172b91b02b72277187,2024-02-19_03h39.06.639,kallum_motion_pilot,2023.2.2,Win32,75.75757576,5f25d8172b91b02b72277187,65d2b6c8f2eece985d8e374c,65d2b9e7341d070378ca4f1d,0.0252,0.0252,0,90,90,2,1,twoone,,,,,,,,,,,,,,,,,,,,,,,,,,,,,,,,,,,,,,,,,,,,,,,,,,,,,,,,,,,,,,,,,,,,,,,,,,,,,,,,,,,,,,,,,,,,,,,,,,,,,,,,,,,,,,,,,,,,,,,,,,,,,,,,,,,,,,,,,
,,5f25d8172b91b02b72277187,2024-02-19_03h39.06.639,kallum_motion_pilot,2023.2.2,Win32,75.75757576,5f25d8172b91b02b72277187,65d2b6c8f2eece985d8e374c,65d2b9e7341d070378ca4f1d,0.0253,0.0254,0,91,91,128,1,fivesix,,,,,,,,,,,,,,,,,,,,,,,,,,,,,,,,,,,,,,,,,,,,,,,,,,,,,,,,,,,,,,,,,,,,,,,,,,,,,,,,,,,,,,,,,,,,,,,,,,,,,,,,,,,,,,,,,,,,,,,,,,,,,,,,,,,,,,,,,
,,5f25d8172b91b02b72277187,2024-02-19_03h39.06.639,kallum_motion_pilot,2023.2.2,Win32,75.75757576,5f25d8172b91b02b72277187,65d2b6c8f2eece985d8e374c,65d2b9e7341d070378ca4f1d,0.0255,0.0255,0,92,92,23,1,fourthree,,,,,,,,,,,,,,,,,,,,,,,,,,,,,,,,,,,,,,,,,,,,,,,,,,,,,,,,,,,,,,,,,,,,,,,,,,,,,,,,,,,,,,,,,,,,,,,,,,,,,,,,,,,,,,,,,,,,,,,,,,,,,,,,,,,,,,,,,
,,5f25d8172b91b02b72277187,2024-02-19_03h39.06.639,kallum_motion_pilot,2023.2.2,Win32,75.75757576,5f25d8172b91b02b72277187,65d2b6c8f2eece985d8e374c,65d2b9e7341d070378ca4f1d,0.0255,0.0256,0,93,93,130,1,sixfive,,,,,,,,,,,,,,,,,,,,,,,,,,,,,,,,,,,,,,,,,,,,,,,,,,,,,,,,,,,,,,,,,,,,,,,,,,,,,,,,,,,,,,,,,,,,,,,,,,,,,,,,,,,,,,,,,,,,,,,,,,,,,,,,,,,,,,,,,
,,5f25d8172b91b02b72277187,2024-02-19_03h39.06.639,kallum_motion_pilot,2023.2.2,Win32,75.75757576,5f25d8172b91b02b72277187,65d2b6c8f2eece985d8e374c,65d2b9e7341d070378ca4f1d,0.0256,0.0256,0,94,94,137,1,fiveseven,,,,,,,,,,,,,,,,,,,,,,,,,,,,,,,,,,,,,,,,,,,,,,,,,,,,,,,,,,,,,,,,,,,,,,,,,,,,,,,,,,,,,,,,,,,,,,,,,,,,,,,,,,,,,,,,,,,,,,,,,,,,,,,,,,,,,,,,,
,,5f25d8172b91b02b72277187,2024-02-19_03h39.06.639,kallum_motion_pilot,2023.2.2,Win32,75.75757576,5f25d8172b91b02b72277187,65d2b6c8f2eece985d8e374c,65d2b9e7341d070378ca4f1d,0.0258,0.0258,0,95,95,52,1,threeone,,,,,,,,,,,,,,,,,,,,,,,,,,,,,,,,,,,,,,,,,,,,,,,,,,,,,,,,,,,,,,,,,,,,,,,,,,,,,,,,,,,,,,,,,,,,,,,,,,,,,,,,,,,,,,,,,,,,,,,,,,,,,,,,,,,,,,,,,
,,5f25d8172b91b02b72277187,2024-02-19_03h39.06.639,kallum_motion_pilot,2023.2.2,Win32,75.75757576,5f25d8172b91b02b72277187,65d2b6c8f2eece985d8e374c,65d2b9e7341d070378ca4f1d,0.0259,0.026,0,96,96,77,1,threefour,,,,,,,,,,,,,,,,,,,,,,,,,,,,,,,,,,,,,,,,,,,,,,,,,,,,,,,,,,,,,,,,,,,,,,,,,,,,,,,,,,,,,,,,,,,,,,,,,,,,,,,,,,,,,,,,,,,,,,,,,,,,,,,,,,,,,,,,,
,,5f25d8172b91b02b72277187,2024-02-19_03h39.06.639,kallum_motion_pilot,2023.2.2,Win32,75.75757576,5f25d8172b91b02b72277187,65d2b6c8f2eece985d8e374c,65d2b9e7341d070378ca4f1d,0.0261,0.0261,0,97,97,82,1,sixfive,,,,,,,,,,,,,,,,,,,,,,,,,,,,,,,,,,,,,,,,,,,,,,,,,,,,,,,,,,,,,,,,,,,,,,,,,,,,,,,,,,,,,,,,,,,,,,,,,,,,,,,,,,,,,,,,,,,,,,,,,,,,,,,,,,,,,,,,,
,,5f25d8172b91b02b72277187,2024-02-19_03h39.06.639,kallum_motion_pilot,2023.2.2,Win32,75.75757576,5f25d8172b91b02b72277187,65d2b6c8f2eece985d8e374c,65d2b9e7341d070378ca4f1d,0.0262,0.0263,0,98,98,40,1,onetwo,,,,,,,,,,,,,,,,,,,,,,,,,,,,,,,,,,,,,,,,,,,,,,,,,,,,,,,,,,,,,,,,,,,,,,,,,,,,,,,,,,,,,,,,,,,,,,,,,,,,,,,,,,,,,,,,,,,,,,,,,,,,,,,,,,,,,,,,,
,,5f25d8172b91b02b72277187,2024-02-19_03h39.06.639,kallum_motion_pilot,2023.2.2,Win32,75.75757576,5f25d8172b91b02b72277187,65d2b6c8f2eece985d8e374c,65d2b9e7341d070378ca4f1d,0.0263,0.0263,0,99,99,73,1,onethree,,,,,,,,,,,,,,,,,,,,,,,,,,,,,,,,,,,,,,,,,,,,,,,,,,,,,,,,,,,,,,,,,,,,,,,,,,,,,,,,,,,,,,,,,,,,,,,,,,,,,,,,,,,,,,,,,,,,,,,,,,,,,,,,,,,,,,,,,
,,5f25d8172b91b02b72277187,2024-02-19_03h39.06.639,kallum_motion_pilot,2023.2.2,Win32,75.75757576,5f25d8172b91b02b72277187,65d2b6c8f2eece985d8e374c,65d2b9e7341d070378ca4f1d,0.0264,0.0264,0,100,100,152,1,fivesix,,,,,,,,,,,,,,,,,,,,,,,,,,,,,,,,,,,,,,,,,,,,,,,,,,,,,,,,,,,,,,,,,,,,,,,,,,,,,,,,,,,,,,,,,,,,,,,,,,,,,,,,,,,,,,,,,,,,,,,,,,,,,,,,,,,,,,,,,
,,5f25d8172b91b02b72277187,2024-02-19_03h39.06.639,kallum_motion_pilot,2023.2.2,Win32,75.75757576,5f25d8172b91b02b72277187,65d2b6c8f2eece985d8e374c,65d2b9e7341d070378ca4f1d,0.0265,0.0266,0,101,101,56,1,onetwo,,,,,,,,,,,,,,,,,,,,,,,,,,,,,,,,,,,,,,,,,,,,,,,,,,,,,,,,,,,,,,,,,,,,,,,,,,,,,,,,,,,,,,,,,,,,,,,,,,,,,,,,,,,,,,,,,,,,,,,,,,,,,,,,,,,,,,,,,
,,5f25d8172b91b02b72277187,2024-02-19_03h39.06.639,kallum_motion_pilot,2023.2.2,Win32,75.75757576,5f25d8172b91b02b72277187,65d2b6c8f2eece985d8e374c,65d2b9e7341d070378ca4f1d,0.0266,0.0267,0,102,102,115,1,sixeight,,,,,,,,,,,,,,,,,,,,,,,,,,,,,,,,,,,,,,,,,,,,,,,,,,,,,,,,,,,,,,,,,,,,,,,,,,,,,,,,,,,,,,,,,,,,,,,,,,,,,,,,,,,,,,,,,,,,,,,,,,,,,,,,,,,,,,,,,
,,5f25d8172b91b02b72277187,2024-02-19_03h39.06.639,kallum_motion_pilot,2023.2.2,Win32,75.75757576,5f25d8172b91b02b72277187,65d2b6c8f2eece985d8e374c,65d2b9e7341d070378ca4f1d,0.0267,0.0267,0,103,103,69,1,threefour,,,,,,,,,,,,,,,,,,,,,,,,,,,,,,,,,,,,,,,,,,,,,,,,,,,,,,,,,,,,,,,,,,,,,,,,,,,,,,,,,,,,,,,,,,,,,,,,,,,,,,,,,,,,,,,,,,,,,,,,,,,,,,,,,,,,,,,,,
,,5f25d8172b91b02b72277187,2024-02-19_03h39.06.639,kallum_motion_pilot,2023.2.2,Win32,75.75757576,5f25d8172b91b02b72277187,65d2b6c8f2eece985d8e374c,65d2b9e7341d070378ca4f1d,0.0268,0.0268,0,104,104,0,1,onetwo,,,,,,,,,,,,,,,,,,,,,,,,,,,,,,,,,,,,,,,,,,,,,,,,,,,,,,,,,,,,,,,,,,,,,,,,,,,,,,,,,,,,,,,,,,,,,,,,,,,,,,,,,,,,,,,,,,,,,,,,,,,,,,,,,,,,,,,,,
,,5f25d8172b91b02b72277187,2024-02-19_03h39.06.639,kallum_motion_pilot,2023.2.2,Win32,75.75757576,5f25d8172b91b02b72277187,65d2b6c8f2eece985d8e374c,65d2b9e7341d070378ca4f1d,0.0268,0.0269,0,105,105,53,1,threefour,,,,,,,,,,,,,,,,,,,,,,,,,,,,,,,,,,,,,,,,,,,,,,,,,,,,,,,,,,,,,,,,,,,,,,,,,,,,,,,,,,,,,,,,,,,,,,,,,,,,,,,,,,,,,,,,,,,,,,,,,,,,,,,,,,,,,,,,,
,,5f25d8172b91b02b72277187,2024-02-19_03h39.06.639,kallum_motion_pilot,2023.2.2,Win32,75.75757576,5f25d8172b91b02b72277187,65d2b6c8f2eece985d8e374c,65d2b9e7341d070378ca4f1d,0.027,0.027,0,106,106,55,1,fourthree,,,,,,,,,,,,,,,,,,,,,,,,,,,,,,,,,,,,,,,,,,,,,,,,,,,,,,,,,,,,,,,,,,,,,,,,,,,,,,,,,,,,,,,,,,,,,,,,,,,,,,,,,,,,,,,,,,,,,,,,,,,,,,,,,,,,,,,,,
,,5f25d8172b91b02b72277187,2024-02-19_03h39.06.639,kallum_motion_pilot,2023.2.2,Win32,75.75757576,5f25d8172b91b02b72277187,65d2b6c8f2eece985d8e374c,65d2b9e7341d070378ca4f1d,0.0271,0.0272,0,107,107,19,1,twofour,,,,,,,,,,,,,,,,,,,,,,,,,,,,,,,,,,,,,,,,,,,,,,,,,,,,,,,,,,,,,,,,,,,,,,,,,,,,,,,,,,,,,,,,,,,,,,,,,,,,,,,,,,,,,,,,,,,,,,,,,,,,,,,,,,,,,,,,,
,,5f25d8172b91b02b72277187,2024-02-19_03h39.06.639,kallum_motion_pilot,2023.2.2,Win32,75.75757576,5f25d8172b91b02b72277187,65d2b6c8f2eece985d8e374c,65d2b9e7341d070378ca4f1d,0.0274,0.0274,0,108,108,54,1,fourtwo,,,,,,,,,,,,,,,,,,,,,,,,,,,,,,,,,,,,,,,,,,,,,,,,,,,,,,,,,,,,,,,,,,,,,,,,,,,,,,,,,,,,,,,,,,,,,,,,,,,,,,,,,,,,,,,,,,,,,,,,,,,,,,,,,,,,,,,,,
,,5f25d8172b91b02b72277187,2024-02-19_03h39.06.639,kallum_motion_pilot,2023.2.2,Win32,75.75757576,5f25d8172b91b02b72277187,65d2b6c8f2eece985d8e374c,65d2b9e7341d070378ca4f1d,0.0274,0.0275,0,109,109,72,1,onetwo,,,,,,,,,,,,,,,,,,,,,,,,,,,,,,,,,,,,,,,,,,,,,,,,,,,,,,,,,,,,,,,,,,,,,,,,,,,,,,,,,,,,,,,,,,,,,,,,,,,,,,,,,,,,,,,,,,,,,,,,,,,,,,,,,,,,,,,,,
,,5f25d8172b91b02b72277187,2024-02-19_03h39.06.639,kallum_motion_pilot,2023.2.2,Win32,75.75757576,5f25d8172b91b02b72277187,65d2b6c8f2eece985d8e374c,65d2b9e7341d070378ca4f1d,0.0275,0.0275,0,110,110,158,1,eightsix,,,,,,,,,,,,,,,,,,,,,,,,,,,,,,,,,,,,,,,,,,,,,,,,,,,,,,,,,,,,,,,,,,,,,,,,,,,,,,,,,,,,,,,,,,,,,,,,,,,,,,,,,,,,,,,,,,,,,,,,,,,,,,,,,,,,,,,,,
,,5f25d8172b91b02b72277187,2024-02-19_03h39.06.639,kallum_motion_pilot,2023.2.2,Win32,75.75757576,5f25d8172b91b02b72277187,65d2b6c8f2eece985d8e374c,65d2b9e7341d070378ca4f1d,0.0275,0.0276,0,111,111,101,1,seveneight,,,,,,,,,,,,,,,,,,,,,,,,,,,,,,,,,,,,,,,,,,,,,,,,,,,,,,,,,,,,,,,,,,,,,,,,,,,,,,,,,,,,,,,,,,,,,,,,,,,,,,,,,,,,,,,,,,,,,,,,,,,,,,,,,,,,,,,,,
,,5f25d8172b91b02b72277187,2024-02-19_03h39.06.639,kallum_motion_pilot,2023.2.2,Win32,75.75757576,5f25d8172b91b02b72277187,65d2b6c8f2eece985d8e374c,65d2b9e7341d070378ca4f1d,0.0276,0.0277,0,112,112,93,1,seveneight,,,,,,,,,,,,,,,,,,,,,,,,,,,,,,,,,,,,,,,,,,,,,,,,,,,,,,,,,,,,,,,,,,,,,,,,,,,,,,,,,,,,,,,,,,,,,,,,,,,,,,,,,,,,,,,,,,,,,,,,,,,,,,,,,,,,,,,,,
,,5f25d8172b91b02b72277187,2024-02-19_03h39.06.639,kallum_motion_pilot,2023.2.2,Win32,75.75757576,5f25d8172b91b02b72277187,65d2b6c8f2eece985d8e374c,65d2b9e7341d070378ca4f1d,0.0277,0.0277,0,113,113,25,1,onethree,,,,,,,,,,,,,,,,,,,,,,,,,,,,,,,,,,,,,,,,,,,,,,,,,,,,,,,,,,,,,,,,,,,,,,,,,,,,,,,,,,,,,,,,,,,,,,,,,,,,,,,,,,,,,,,,,,,,,,,,,,,,,,,,,,,,,,,,,
,,5f25d8172b91b02b72277187,2024-02-19_03h39.06.639,kallum_motion_pilot,2023.2.2,Win32,75.75757576,5f25d8172b91b02b72277187,65d2b6c8f2eece985d8e374c,65d2b9e7341d070378ca4f1d,0.0279,0.0279,0,114,114,18,1,twoone,,,,,,,,,,,,,,,,,,,,,,,,,,,,,,,,,,,,,,,,,,,,,,,,,,,,,,,,,,,,,,,,,,,,,,,,,,,,,,,,,,,,,,,,,,,,,,,,,,,,,,,,,,,,,,,,,,,,,,,,,,,,,,,,,,,,,,,,,
,,5f25d8172b91b02b72277187,2024-02-19_03h39.06.639,kallum_motion_pilot,2023.2.2,Win32,75.75757576,5f25d8172b91b02b72277187,65d2b6c8f2eece985d8e374c,65d2b9e7341d070378ca4f1d,0.0279,0.028,0,115,115,48,1,onetwo,,,,,,,,,,,,,,,,,,,,,,,,,,,,,,,,,,,,,,,,,,,,,,,,,,,,,,,,,,,,,,,,,,,,,,,,,,,,,,,,,,,,,,,,,,,,,,,,,,,,,,,,,,,,,,,,,,,,,,,,,,,,,,,,,,,,,,,,,
,,5f25d8172b91b02b72277187,2024-02-19_03h39.06.639,kallum_motion_pilot,2023.2.2,Win32,75.75757576,5f25d8172b91b02b72277187,65d2b6c8f2eece985d8e374c,65d2b9e7341d070378ca4f1d,0.028,0.0281,0,116,116,95,1,eightseven,,,,,,,,,,,,,,,,,,,,,,,,,,,,,,,,,,,,,,,,,,,,,,,,,,,,,,,,,,,,,,,,,,,,,,,,,,,,,,,,,,,,,,,,,,,,,,,,,,,,,,,,,,,,,,,,,,,,,,,,,,,,,,,,,,,,,,,,,
,,5f25d8172b91b02b72277187,2024-02-19_03h39.06.639,kallum_motion_pilot,2023.2.2,Win32,75.75757576,5f25d8172b91b02b72277187,65d2b6c8f2eece985d8e374c,65d2b9e7341d070378ca4f1d,0.0281,0.0282,0,117,117,88,1,fivesix,,,,,,,,,,,,,,,,,,,,,,,,,,,,,,,,,,,,,,,,,,,,,,,,,,,,,,,,,,,,,,,,,,,,,,,,,,,,,,,,,,,,,,,,,,,,,,,,,,,,,,,,,,,,,,,,,,,,,,,,,,,,,,,,,,,,,,,,,
,,5f25d8172b91b02b72277187,2024-02-19_03h39.06.639,kallum_motion_pilot,2023.2.2,Win32,75.75757576,5f25d8172b91b02b72277187,65d2b6c8f2eece985d8e374c,65d2b9e7341d070378ca4f1d,0.0283,0.0283,0,118,118,160,1,fivesix,,,,,,,,,,,,,,,,,,,,,,,,,,,,,,,,,,,,,,,,,,,,,,,,,,,,,,,,,,,,,,,,,,,,,,,,,,,,,,,,,,,,,,,,,,,,,,,,,,,,,,,,,,,,,,,,,,,,,,,,,,,,,,,,,,,,,,,,,
,,5f25d8172b91b02b72277187,2024-02-19_03h39.06.639,kallum_motion_pilot,2023.2.2,Win32,75.75757576,5f25d8172b91b02b72277187,65d2b6c8f2eece985d8e374c,65d2b9e7341d070378ca4f1d,0.0284,0.0284,0,119,119,65,1,onethree,,,,,,,,,,,,,,,,,,,,,,,,,,,,,,,,,,,,,,,,,,,,,,,,,,,,,,,,,,,,,,,,,,,,,,,,,,,,,,,,,,,,,,,,,,,,,,,,,,,,,,,,,,,,,,,,,,,,,,,,,,,,,,,,,,,,,,,,,
,,5f25d8172b91b02b72277187,2024-02-19_03h39.06.639,kallum_motion_pilot,2023.2.2,Win32,75.75757576,5f25d8172b91b02b72277187,65d2b6c8f2eece985d8e374c,65d2b9e7341d070378ca4f1d,0.0284,0.0284,0,120,120,61,1,threefour,,,,,,,,,,,,,,,,,,,,,,,,,,,,,,,,,,,,,,,,,,,,,,,,,,,,,,,,,,,,,,,,,,,,,,,,,,,,,,,,,,,,,,,,,,,,,,,,,,,,,,,,,,,,,,,,,,,,,,,,,,,,,,,,,,,,,,,,,
,,5f25d8172b91b02b72277187,2024-02-19_03h39.06.639,kallum_motion_pilot,2023.2.2,Win32,75.75757576,5f25d8172b91b02b72277187,65d2b6c8f2eece985d8e374c,65d2b9e7341d070378ca4f1d,0.0285,0.0285,0,121,121,131,1,sixeight,,,,,,,,,,,,,,,,,,,,,,,,,,,,,,,,,,,,,,,,,,,,,,,,,,,,,,,,,,,,,,,,,,,,,,,,,,,,,,,,,,,,,,,,,,,,,,,,,,,,,,,,,,,,,,,,,,,,,,,,,,,,,,,,,,,,,,,,,
,,5f25d8172b91b02b72277187,2024-02-19_03h39.06.639,kallum_motion_pilot,2023.2.2,Win32,75.75757576,5f25d8172b91b02b72277187,65d2b6c8f2eece985d8e374c,65d2b9e7341d070378ca4f1d,0.0285,0.0286,0,122,122,84,1,sevenfive,,,,,,,,,,,,,,,,,,,,,,,,,,,,,,,,,,,,,,,,,,,,,,,,,,,,,,,,,,,,,,,,,,,,,,,,,,,,,,,,,,,,,,,,,,,,,,,,,,,,,,,,,,,,,,,,,,,,,,,,,,,,,,,,,,,,,,,,,
,,5f25d8172b91b02b72277187,2024-02-19_03h39.06.639,kallum_motion_pilot,2023.2.2,Win32,75.75757576,5f25d8172b91b02b72277187,65d2b6c8f2eece985d8e374c,65d2b9e7341d070378ca4f1d,0.0287,0.0287,0,123,123,153,1,fiveseven,,,,,,,,,,,,,,,,,,,,,,,,,,,,,,,,,,,,,,,,,,,,,,,,,,,,,,,,,,,,,,,,,,,,,,,,,,,,,,,,,,,,,,,,,,,,,,,,,,,,,,,,,,,,,,,,,,,,,,,,,,,,,,,,,,,,,,,,,
,,5f25d8172b91b02b72277187,2024-02-19_03h39.06.639,kallum_motion_pilot,2023.2.2,Win32,75.75757576,5f25d8172b91b02b72277187,65d2b6c8f2eece985d8e374c,65d2b9e7341d070378ca4f1d,0.0288,0.0288,0,124,124,138,1,sixfive,,,,,,,,,,,,,,,,,,,,,,,,,,,,,,,,,,,,,,,,,,,,,,,,,,,,,,,,,,,,,,,,,,,,,,,,,,,,,,,,,,,,,,,,,,,,,,,,,,,,,,,,,,,,,,,,,,,,,,,,,,,,,,,,,,,,,,,,,
,,5f25d8172b91b02b72277187,2024-02-19_03h39.06.639,kallum_motion_pilot,2023.2.2,Win32,75.75757576,5f25d8172b91b02b72277187,65d2b6c8f2eece985d8e374c,65d2b9e7341d070378ca4f1d,0.0289,0.0289,0,125,125,35,1,twofour,,,,,,,,,,,,,,,,,,,,,,,,,,,,,,,,,,,,,,,,,,,,,,,,,,,,,,,,,,,,,,,,,,,,,,,,,,,,,,,,,,,,,,,,,,,,,,,,,,,,,,,,,,,,,,,,,,,,,,,,,,,,,,,,,,,,,,,,,
,,5f25d8172b91b02b72277187,2024-02-19_03h39.06.639,kallum_motion_pilot,2023.2.2,Win32,75.75757576,5f25d8172b91b02b72277187,65d2b6c8f2eece985d8e374c,65d2b9e7341d070378ca4f1d,0.029,0.029,0,126,126,33,1,onethree,,,,,,,,,,,,,,,,,,,,,,,,,,,,,,,,,,,,,,,,,,,,,,,,,,,,,,,,,,,,,,,,,,,,,,,,,,,,,,,,,,,,,,,,,,,,,,,,,,,,,,,,,,,,,,,,,,,,,,,,,,,,,,,,,,,,,,,,,
,,5f25d8172b91b02b72277187,2024-02-19_03h39.06.639,kallum_motion_pilot,2023.2.2,Win32,75.75757576,5f25d8172b91b02b72277187,65d2b6c8f2eece985d8e374c,65d2b9e7341d070378ca4f1d,0.0291,0.0292,0,127,127,57,1,onethree,,,,,,,,,,,,,,,,,,,,,,,,,,,,,,,,,,,,,,,,,,,,,,,,,,,,,,,,,,,,,,,,,,,,,,,,,,,,,,,,,,,,,,,,,,,,,,,,,,,,,,,,,,,,,,,,,,,,,,,,,,,,,,,,,,,,,,,,,
,,5f25d8172b91b02b72277187,2024-02-19_03h39.06.639,kallum_motion_pilot,2023.2.2,Win32,75.75757576,5f25d8172b91b02b72277187,65d2b6c8f2eece985d8e374c,65d2b9e7341d070378ca4f1d,0.0292,0.0293,0,128,128,123,1,sixeight,,,,,,,,,,,,,,,,,,,,,,,,,,,,,,,,,,,,,,,,,,,,,,,,,,,,,,,,,,,,,,,,,,,,,,,,,,,,,,,,,,,,,,,,,,,,,,,,,,,,,,,,,,,,,,,,,,,,,,,,,,,,,,,,,,,,,,,,,
,,5f25d8172b91b02b72277187,2024-02-19_03h39.06.639,kallum_motion_pilot,2023.2.2,Win32,75.75757576,5f25d8172b91b02b72277187,65d2b6c8f2eece985d8e374c,65d2b9e7341d070378ca4f1d,0.0293,0.0293,0,129,129,96,1,fivesix,,,,,,,,,,,,,,,,,,,,,,,,,,,,,,,,,,,,,,,,,,,,,,,,,,,,,,,,,,,,,,,,,,,,,,,,,,,,,,,,,,,,,,,,,,,,,,,,,,,,,,,,,,,,,,,,,,,,,,,,,,,,,,,,,,,,,,,,,
,,5f25d8172b91b02b72277187,2024-02-19_03h39.06.639,kallum_motion_pilot,2023.2.2,Win32,75.75757576,5f25d8172b91b02b72277187,65d2b6c8f2eece985d8e374c,65d2b9e7341d070378ca4f1d,0.0294,0.0294,0,130,130,125,1,seveneight,,,,,,,,,,,,,,,,,,,,,,,,,,,,,,,,,,,,,,,,,,,,,,,,,,,,,,,,,,,,,,,,,,,,,,,,,,,,,,,,,,,,,,,,,,,,,,,,,,,,,,,,,,,,,,,,,,,,,,,,,,,,,,,,,,,,,,,,,
,,5f25d8172b91b02b72277187,2024-02-19_03h39.06.639,kallum_motion_pilot,2023.2.2,Win32,75.75757576,5f25d8172b91b02b72277187,65d2b6c8f2eece985d8e374c,65d2b9e7341d070378ca4f1d,0.0295,0.0295,0,131,131,135,1,eightseven,,,,,,,,,,,,,,,,,,,,,,,,,,,,,,,,,,,,,,,,,,,,,,,,,,,,,,,,,,,,,,,,,,,,,,,,,,,,,,,,,,,,,,,,,,,,,,,,,,,,,,,,,,,,,,,,,,,,,,,,,,,,,,,,,,,,,,,,,
,,5f25d8172b91b02b72277187,2024-02-19_03h39.06.639,kallum_motion_pilot,2023.2.2,Win32,75.75757576,5f25d8172b91b02b72277187,65d2b6c8f2eece985d8e374c,65d2b9e7341d070378ca4f1d,0.0296,0.0296,0,132,132,34,1,twoone,,,,,,,,,,,,,,,,,,,,,,,,,,,,,,,,,,,,,,,,,,,,,,,,,,,,,,,,,,,,,,,,,,,,,,,,,,,,,,,,,,,,,,,,,,,,,,,,,,,,,,,,,,,,,,,,,,,,,,,,,,,,,,,,,,,,,,,,,
,,5f25d8172b91b02b72277187,2024-02-19_03h39.06.639,kallum_motion_pilot,2023.2.2,Win32,75.75757576,5f25d8172b91b02b72277187,65d2b6c8f2eece985d8e374c,65d2b9e7341d070378ca4f1d,0.0296,0.0297,0,133,133,74,1,twoone,,,,,,,,,,,,,,,,,,,,,,,,,,,,,,,,,,,,,,,,,,,,,,,,,,,,,,,,,,,,,,,,,,,,,,,,,,,,,,,,,,,,,,,,,,,,,,,,,,,,,,,,,,,,,,,,,,,,,,,,,,,,,,,,,,,,,,,,,
,,5f25d8172b91b02b72277187,2024-02-19_03h39.06.639,kallum_motion_pilot,2023.2.2,Win32,75.75757576,5f25d8172b91b02b72277187,65d2b6c8f2eece985d8e374c,65d2b9e7341d070378ca4f1d,0.0298,0.0298,0,134,134,17,1,onethree,,,,,,,,,,,,,,,,,,,,,,,,,,,,,,,,,,,,,,,,,,,,,,,,,,,,,,,,,,,,,,,,,,,,,,,,,,,,,,,,,,,,,,,,,,,,,,,,,,,,,,,,,,,,,,,,,,,,,,,,,,,,,,,,,,,,,,,,,
,,5f25d8172b91b02b72277187,2024-02-19_03h39.06.639,kallum_motion_pilot,2023.2.2,Win32,75.75757576,5f25d8172b91b02b72277187,65d2b6c8f2eece985d8e374c,65d2b9e7341d070378ca4f1d,0.0298,0.0299,0,135,135,62,1,fourtwo,,,,,,,,,,,,,,,,,,,,,,,,,,,,,,,,,,,,,,,,,,,,,,,,,,,,,,,,,,,,,,,,,,,,,,,,,,,,,,,,,,,,,,,,,,,,,,,,,,,,,,,,,,,,,,,,,,,,,,,,,,,,,,,,,,,,,,,,,
,,5f25d8172b91b02b72277187,2024-02-19_03h39.06.639,kallum_motion_pilot,2023.2.2,Win32,75.75757576,5f25d8172b91b02b72277187,65d2b6c8f2eece985d8e374c,65d2b9e7341d070378ca4f1d,0.0299,0.03,0,136,136,94,1,eightsix,,,,,,,,,,,,,,,,,,,,,,,,,,,,,,,,,,,,,,,,,,,,,,,,,,,,,,,,,,,,,,,,,,,,,,,,,,,,,,,,,,,,,,,,,,,,,,,,,,,,,,,,,,,,,,,,,,,,,,,,,,,,,,,,,,,,,,,,,
,,5f25d8172b91b02b72277187,2024-02-19_03h39.06.639,kallum_motion_pilot,2023.2.2,Win32,75.75757576,5f25d8172b91b02b72277187,65d2b6c8f2eece985d8e374c,65d2b9e7341d070378ca4f1d,0.03,0.03,0,137,137,43,1,twofour,,,,,,,,,,,,,,,,,,,,,,,,,,,,,,,,,,,,,,,,,,,,,,,,,,,,,,,,,,,,,,,,,,,,,,,,,,,,,,,,,,,,,,,,,,,,,,,,,,,,,,,,,,,,,,,,,,,,,,,,,,,,,,,,,,,,,,,,,
,,5f25d8172b91b02b72277187,2024-02-19_03h39.06.639,kallum_motion_pilot,2023.2.2,Win32,75.75757576,5f25d8172b91b02b72277187,65d2b6c8f2eece985d8e374c,65d2b9e7341d070378ca4f1d,0.0301,0.0301,0,138,138,10,1,twoone,,,,,,,,,,,,,,,,,,,,,,,,,,,,,,,,,,,,,,,,,,,,,,,,,,,,,,,,,,,,,,,,,,,,,,,,,,,,,,,,,,,,,,,,,,,,,,,,,,,,,,,,,,,,,,,,,,,,,,,,,,,,,,,,,,,,,,,,,
,,5f25d8172b91b02b72277187,2024-02-19_03h39.06.639,kallum_motion_pilot,2023.2.2,Win32,75.75757576,5f25d8172b91b02b72277187,65d2b6c8f2eece985d8e374c,65d2b9e7341d070378ca4f1d,0.0302,0.0302,0,139,139,108,1,sevenfive,,,,,,,,,,,,,,,,,,,,,,,,,,,,,,,,,,,,,,,,,,,,,,,,,,,,,,,,,,,,,,,,,,,,,,,,,,,,,,,,,,,,,,,,,,,,,,,,,,,,,,,,,,,,,,,,,,,,,,,,,,,,,,,,,,,,,,,,,
,,5f25d8172b91b02b72277187,2024-02-19_03h39.06.639,kallum_motion_pilot,2023.2.2,Win32,75.75757576,5f25d8172b91b02b72277187,65d2b6c8f2eece985d8e374c,65d2b9e7341d070378ca4f1d,0.0302,0.0304,0,140,140,46,1,fourtwo,,,,,,,,,,,,,,,,,,,,,,,,,,,,,,,,,,,,,,,,,,,,,,,,,,,,,,,,,,,,,,,,,,,,,,,,,,,,,,,,,,,,,,,,,,,,,,,,,,,,,,,,,,,,,,,,,,,,,,,,,,,,,,,,,,,,,,,,,
,,5f25d8172b91b02b72277187,2024-02-19_03h39.06.639,kallum_motion_pilot,2023.2.2,Win32,75.75757576,5f25d8172b91b02b72277187,65d2b6c8f2eece985d8e374c,65d2b9e7341d070378ca4f1d,0.0304,0.0304,0,141,141,110,1,eightsix,,,,,,,,,,,,,,,,,,,,,,,,,,,,,,,,,,,,,,,,,,,,,,,,,,,,,,,,,,,,,,,,,,,,,,,,,,,,,,,,,,,,,,,,,,,,,,,,,,,,,,,,,,,,,,,,,,,,,,,,,,,,,,,,,,,,,,,,,
,,5f25d8172b91b02b72277187,2024-02-19_03h39.06.639,kallum_motion_pilot,2023.2.2,Win32,75.75757576,5f25d8172b91b02b72277187,65d2b6c8f2eece985d8e374c,65d2b9e7341d070378ca4f1d,0.0304,0.0305,0,142,142,81,1,fiveseven,,,,,,,,,,,,,,,,,,,,,,,,,,,,,,,,,,,,,,,,,,,,,,,,,,,,,,,,,,,,,,,,,,,,,,,,,,,,,,,,,,,,,,,,,,,,,,,,,,,,,,,,,,,,,,,,,,,,,,,,,,,,,,,,,,,,,,,,,
,,5f25d8172b91b02b72277187,2024-02-19_03h39.06.639,kallum_motion_pilot,2023.2.2,Win32,75.75757576,5f25d8172b91b02b72277187,65d2b6c8f2eece985d8e374c,65d2b9e7341d070378ca4f1d,0.0305,0.0306,0,143,143,103,1,eightseven,,,,,,,,,,,,,,,,,,,,,,,,,,,,,,,,,,,,,,,,,,,,,,,,,,,,,,,,,,,,,,,,,,,,,,,,,,,,,,,,,,,,,,,,,,,,,,,,,,,,,,,,,,,,,,,,,,,,,,,,,,,,,,,,,,,,,,,,,
,,5f25d8172b91b02b72277187,2024-02-19_03h39.06.639,kallum_motion_pilot,2023.2.2,Win32,75.75757576,5f25d8172b91b02b72277187,65d2b6c8f2eece985d8e374c,65d2b9e7341d070378ca4f1d,0.0307,0.0307,0,144,144,49,1,onethree,,,,,,,,,,,,,,,,,,,,,,,,,,,,,,,,,,,,,,,,,,,,,,,,,,,,,,,,,,,,,,,,,,,,,,,,,,,,,,,,,,,,,,,,,,,,,,,,,,,,,,,,,,,,,,,,,,,,,,,,,,,,,,,,,,,,,,,,,
,,5f25d8172b91b02b72277187,2024-02-19_03h39.06.639,kallum_motion_pilot,2023.2.2,Win32,75.75757576,5f25d8172b91b02b72277187,65d2b6c8f2eece985d8e374c,65d2b9e7341d070378ca4f1d,0.0307,0.0308,0,145,145,41,1,onethree,,,,,,,,,,,,,,,,,,,,,,,,,,,,,,,,,,,,,,,,,,,,,,,,,,,,,,,,,,,,,,,,,,,,,,,,,,,,,,,,,,,,,,,,,,,,,,,,,,,,,,,,,,,,,,,,,,,,,,,,,,,,,,,,,,,,,,,,,
,,5f25d8172b91b02b72277187,2024-02-19_03h39.06.639,kallum_motion_pilot,2023.2.2,Win32,75.75757576,5f25d8172b91b02b72277187,65d2b6c8f2eece985d8e374c,65d2b9e7341d070378ca4f1d,0.0309,0.0309,0,146,146,60,1,threeone,,,,,,,,,,,,,,,,,,,,,,,,,,,,,,,,,,,,,,,,,,,,,,,,,,,,,,,,,,,,,,,,,,,,,,,,,,,,,,,,,,,,,,,,,,,,,,,,,,,,,,,,,,,,,,,,,,,,,,,,,,,,,,,,,,,,,,,,,
,,5f25d8172b91b02b72277187,2024-02-19_03h39.06.639,kallum_motion_pilot,2023.2.2,Win32,75.75757576,5f25d8172b91b02b72277187,65d2b6c8f2eece985d8e374c,65d2b9e7341d070378ca4f1d,0.031,0.031,0,147,147,21,1,threefour,,,,,,,,,,,,,,,,,,,,,,,,,,,,,,,,,,,,,,,,,,,,,,,,,,,,,,,,,,,,,,,,,,,,,,,,,,,,,,,,,,,,,,,,,,,,,,,,,,,,,,,,,,,,,,,,,,,,,,,,,,,,,,,,,,,,,,,,,
,,5f25d8172b91b02b72277187,2024-02-19_03h39.06.639,kallum_motion_pilot,2023.2.2,Win32,75.75757576,5f25d8172b91b02b72277187,65d2b6c8f2eece985d8e374c,65d2b9e7341d070378ca4f1d,0.031,0.0311,0,148,148,58,1,twoone,,,,,,,,,,,,,,,,,,,,,,,,,,,,,,,,,,,,,,,,,,,,,,,,,,,,,,,,,,,,,,,,,,,,,,,,,,,,,,,,,,,,,,,,,,,,,,,,,,,,,,,,,,,,,,,,,,,,,,,,,,,,,,,,,,,,,,,,,
,,5f25d8172b91b02b72277187,2024-02-19_03h39.06.639,kallum_motion_pilot,2023.2.2,Win32,75.75757576,5f25d8172b91b02b72277187,65d2b6c8f2eece985d8e374c,65d2b9e7341d070378ca4f1d,0.0311,0.0312,0,149,149,66,1,twoone,,,,,,,,,,,,,,,,,,,,,,,,,,,,,,,,,,,,,,,,,,,,,,,,,,,,,,,,,,,,,,,,,,,,,,,,,,,,,,,,,,,,,,,,,,,,,,,,,,,,,,,,,,,,,,,,,,,,,,,,,,,,,,,,,,,,,,,,,
,,5f25d8172b91b02b72277187,2024-02-19_03h39.06.639,kallum_motion_pilot,2023.2.2,Win32,75.75757576,5f25d8172b91b02b72277187,65d2b6c8f2eece985d8e374c,65d2b9e7341d070378ca4f1d,0.0313,0.0313,0,150,150,14,1,fourtwo,,,,,,,,,,,,,,,,,,,,,,,,,,,,,,,,,,,,,,,,,,,,,,,,,,,,,,,,,,,,,,,,,,,,,,,,,,,,,,,,,,,,,,,,,,,,,,,,,,,,,,,,,,,,,,,,,,,,,,,,,,,,,,,,,,,,,,,,,
,,5f25d8172b91b02b72277187,2024-02-19_03h39.06.639,kallum_motion_pilot,2023.2.2,Win32,75.75757576,5f25d8172b91b02b72277187,65d2b6c8f2eece985d8e374c,65d2b9e7341d070378ca4f1d,0.0313,0.0313,0,151,151,117,1,seveneight,,,,,,,,,,,,,,,,,,,,,,,,,,,,,,,,,,,,,,,,,,,,,,,,,,,,,,,,,,,,,,,,,,,,,,,,,,,,,,,,,,,,,,,,,,,,,,,,,,,,,,,,,,,,,,,,,,,,,,,,,,,,,,,,,,,,,,,,,
,,5f25d8172b91b02b72277187,2024-02-19_03h39.06.639,kallum_motion_pilot,2023.2.2,Win32,75.75757576,5f25d8172b91b02b72277187,65d2b6c8f2eece985d8e374c,65d2b9e7341d070378ca4f1d,0.0315,0.0315,0,152,152,30,1,fourtwo,,,,,,,,,,,,,,,,,,,,,,,,,,,,,,,,,,,,,,,,,,,,,,,,,,,,,,,,,,,,,,,,,,,,,,,,,,,,,,,,,,,,,,,,,,,,,,,,,,,,,,,,,,,,,,,,,,,,,,,,,,,,,,,,,,,,,,,,,
,,5f25d8172b91b02b72277187,2024-02-19_03h39.06.639,kallum_motion_pilot,2023.2.2,Win32,75.75757576,5f25d8172b91b02b72277187,65d2b6c8f2eece985d8e374c,65d2b9e7341d070378ca4f1d,0.0315,0.0316,0,153,153,78,1,fourtwo,,,,,,,,,,,,,,,,,,,,,,,,,,,,,,,,,,,,,,,,,,,,,,,,,,,,,,,,,,,,,,,,,,,,,,,,,,,,,,,,,,,,,,,,,,,,,,,,,,,,,,,,,,,,,,,,,,,,,,,,,,,,,,,,,,,,,,,,,
,,5f25d8172b91b02b72277187,2024-02-19_03h39.06.639,kallum_motion_pilot,2023.2.2,Win32,75.75757576,5f25d8172b91b02b72277187,65d2b6c8f2eece985d8e374c,65d2b9e7341d070378ca4f1d,0.0317,0.0317,0,154,154,112,1,fivesix,,,,,,,,,,,,,,,,,,,,,,,,,,,,,,,,,,,,,,,,,,,,,,,,,,,,,,,,,,,,,,,,,,,,,,,,,,,,,,,,,,,,,,,,,,,,,,,,,,,,,,,,,,,,,,,,,,,,,,,,,,,,,,,,,,,,,,,,,
,,5f25d8172b91b02b72277187,2024-02-19_03h39.06.639,kallum_motion_pilot,2023.2.2,Win32,75.75757576,5f25d8172b91b02b72277187,65d2b6c8f2eece985d8e374c,65d2b9e7341d070378ca4f1d,0.0317,0.0317,0,155,155,8,1,onetwo,,,,,,,,,,,,,,,,,,,,,,,,,,,,,,,,,,,,,,,,,,,,,,,,,,,,,,,,,,,,,,,,,,,,,,,,,,,,,,,,,,,,,,,,,,,,,,,,,,,,,,,,,,,,,,,,,,,,,,,,,,,,,,,,,,,,,,,,,
,,5f25d8172b91b02b72277187,2024-02-19_03h39.06.639,kallum_motion_pilot,2023.2.2,Win32,75.75757576,5f25d8172b91b02b72277187,65d2b6c8f2eece985d8e374c,65d2b9e7341d070378ca4f1d,0.0318,0.0319,0,156,156,87,1,eightseven,,,,,,,,,,,,,,,,,,,,,,,,,,,,,,,,,,,,,,,,,,,,,,,,,,,,,,,,,,,,,,,,,,,,,,,,,,,,,,,,,,,,,,,,,,,,,,,,,,,,,,,,,,,,,,,,,,,,,,,,,,,,,,,,,,,,,,,,,
,,5f25d8172b91b02b72277187,2024-02-19_03h39.06.639,kallum_motion_pilot,2023.2.2,Win32,75.75757576,5f25d8172b91b02b72277187,65d2b6c8f2eece985d8e374c,65d2b9e7341d070378ca4f1d,0.0319,0.032,0,157,157,143,1,eightseven,,,,,,,,,,,,,,,,,,,,,,,,,,,,,,,,,,,,,,,,,,,,,,,,,,,,,,,,,,,,,,,,,,,,,,,,,,,,,,,,,,,,,,,,,,,,,,,,,,,,,,,,,,,,,,,,,,,,,,,,,,,,,,,,,,,,,,,,,
,,5f25d8172b91b02b72277187,2024-02-19_03h39.06.639,kallum_motion_pilot,2023.2.2,Win32,75.75757576,5f25d8172b91b02b72277187,65d2b6c8f2eece985d8e374c,65d2b9e7341d070378ca4f1d,0.032,0.0321,0,158,158,5,1,threefour,,,,,,,,,,,,,,,,,,,,,,,,,,,,,,,,,,,,,,,,,,,,,,,,,,,,,,,,,,,,,,,,,,,,,,,,,,,,,,,,,,,,,,,,,,,,,,,,,,,,,,,,,,,,,,,,,,,,,,,,,,,,,,,,,,,,,,,,,
,,5f25d8172b91b02b72277187,2024-02-19_03h39.06.639,kallum_motion_pilot,2023.2.2,Win32,75.75757576,5f25d8172b91b02b72277187,65d2b6c8f2eece985d8e374c,65d2b9e7341d070378ca4f1d,0.0322,0.0322,0,159,159,67,1,twofour,,,,,,,,,,,,,,,,,,,,,,,,,,,,,,,,,,,,,,,,,,,,,,,,,,,,,,,,,,,,,,,,,,,,,,,,,,,,,,,,,,,,,,,,,,,,,,,,,,,,,,,,,,,,,,,,,,,,,,,,,,,,,,,,,,,,,,,,,
,,5f25d8172b91b02b72277187,2024-02-19_03h39.06.639,kallum_motion_pilot,2023.2.2,Win32,75.75757576,5f25d8172b91b02b72277187,65d2b6c8f2eece985d8e374c,65d2b9e7341d070378ca4f1d,0.0323,0.0325,0,160,160,63,1,fourthree,,,,,,,,,,,,,,,,,,,,,,,,,,,,,,,,,,,,,,,,,,,,,,,,,,,,,,,,,,,,,,,,,,,,,,,,,,,,,,,,,,,,,,,,,,,,,,,,,,,,,,,,,,,,,,,,,,,,,,,,,,,,,,,,,,,,,,,,,
,,5f25d8172b91b02b72277187,2024-02-19_03h39.06.639,kallum_motion_pilot,2023.2.2,Win32,75.75757576,5f25d8172b91b02b72277187,65d2b6c8f2eece985d8e374c,65d2b9e7341d070378ca4f1d,0.0325,0.0325,0,161,161,24,1,onetwo,,,,,,,,,,,,,,,,,,,,,,,,,,,,,,,,,,,,,,,,,,,,,,,,,,,,,,,,,,,,,,,,,,,,,,,,,,,,,,,,,,,,,,,,,,,,,,,,,,,,,,,,,,,,,,,,,,,,,,,,,,,,,,,,,,,,,,,,,
,,5f25d8172b91b02b72277187,2024-02-19_03h39.06.639,kallum_motion_pilot,2023.2.2,Win32,75.75757576,5f25d8172b91b02b72277187,65d2b6c8f2eece985d8e374c,65d2b9e7341d070378ca4f1d,0.0326,0.0326,1,0,162,69,1,threefour,,,,,,,,,,,,,,,,,,,,,,,,,,,,,,,,,,,,,,,,,,,,,,,,,,,,,,,,,,,,,,,,,,,,,,,,,,,,,,,,,,,,,,,,,,,,,,,,,,,,,,,,,,,,,,,,,,,,,,,,,,,,,,,,,,,,,,,,,
,,5f25d8172b91b02b72277187,2024-02-19_03h39.06.639,kallum_motion_pilot,2023.2.2,Win32,75.75757576,5f25d8172b91b02b72277187,65d2b6c8f2eece985d8e374c,65d2b9e7341d070378ca4f1d,0.0327,0.0328,1,1,163,161,1,fiveseven,,,,,,,,,,,,,,,,,,,,,,,,,,,,,,,,,,,,,,,,,,,,,,,,,,,,,,,,,,,,,,,,,,,,,,,,,,,,,,,,,,,,,,,,,,,,,,,,,,,,,,,,,,,,,,,,,,,,,,,,,,,,,,,,,,,,,,,,,
,,5f25d8172b91b02b72277187,2024-02-19_03h39.06.639,kallum_motion_pilot,2023.2.2,Win32,75.75757576,5f25d8172b91b02b72277187,65d2b6c8f2eece985d8e374c,65d2b9e7341d070378ca4f1d,0.0328,0.0328,1,2,164,113,1,fiveseven,,,,,,,,,,,,,,,,,,,,,,,,,,,,,,,,,,,,,,,,,,,,,,,,,,,,,,,,,,,,,,,,,,,,,,,,,,,,,,,,,,,,,,,,,,,,,,,,,,,,,,,,,,,,,,,,,,,,,,,,,,,,,,,,,,,,,,,,,
,,5f25d8172b91b02b72277187,2024-02-19_03h39.06.639,kallum_motion_pilot,2023.2.2,Win32,75.75757576,5f25d8172b91b02b72277187,65d2b6c8f2eece985d8e374c,65d2b9e7341d070378ca4f1d,0.0329,0.0329,1,3,165,124,1,sevenfive,,,,,,,,,,,,,,,,,,,,,,,,,,,,,,,,,,,,,,,,,,,,,,,,,,,,,,,,,,,,,,,,,,,,,,,,,,,,,,,,,,,,,,,,,,,,,,,,,,,,,,,,,,,,,,,,,,,,,,,,,,,,,,,,,,,,,,,,,
,,5f25d8172b91b02b72277187,2024-02-19_03h39.06.639,kallum_motion_pilot,2023.2.2,Win32,75.75757576,5f25d8172b91b02b72277187,65d2b6c8f2eece985d8e374c,65d2b9e7341d070378ca4f1d,0.033,0.033,1,4,166,93,1,seveneight,,,,,,,,,,,,,,,,,,,,,,,,,,,,,,,,,,,,,,,,,,,,,,,,,,,,,,,,,,,,,,,,,,,,,,,,,,,,,,,,,,,,,,,,,,,,,,,,,,,,,,,,,,,,,,,,,,,,,,,,,,,,,,,,,,,,,,,,,
,,5f25d8172b91b02b72277187,2024-02-19_03h39.06.639,kallum_motion_pilot,2023.2.2,Win32,75.75757576,5f25d8172b91b02b72277187,65d2b6c8f2eece985d8e374c,65d2b9e7341d070378ca4f1d,0.0331,0.0332,1,5,167,120,1,fivesix,,,,,,,,,,,,,,,,,,,,,,,,,,,,,,,,,,,,,,,,,,,,,,,,,,,,,,,,,,,,,,,,,,,,,,,,,,,,,,,,,,,,,,,,,,,,,,,,,,,,,,,,,,,,,,,,,,,,,,,,,,,,,,,,,,,,,,,,,
,,5f25d8172b91b02b72277187,2024-02-19_03h39.06.639,kallum_motion_pilot,2023.2.2,Win32,75.75757576,5f25d8172b91b02b72277187,65d2b6c8f2eece985d8e374c,65d2b9e7341d070378ca4f1d,0.0332,0.0333,1,6,168,19,1,twofour,,,,,,,,,,,,,,,,,,,,,,,,,,,,,,,,,,,,,,,,,,,,,,,,,,,,,,,,,,,,,,,,,,,,,,,,,,,,,,,,,,,,,,,,,,,,,,,,,,,,,,,,,,,,,,,,,,,,,,,,,,,,,,,,,,,,,,,,,
,,5f25d8172b91b02b72277187,2024-02-19_03h39.06.639,kallum_motion_pilot,2023.2.2,Win32,75.75757576,5f25d8172b91b02b72277187,65d2b6c8f2eece985d8e374c,65d2b9e7341d070378ca4f1d,0.0333,0.0333,1,7,169,95,1,eightseven,,,,,,,,,,,,,,,,,,,,,,,,,,,,,,,,,,,,,,,,,,,,,,,,,,,,,,,,,,,,,,,,,,,,,,,,,,,,,,,,,,,,,,,,,,,,,,,,,,,,,,,,,,,,,,,,,,,,,,,,,,,,,,,,,,,,,,,,,
,,5f25d8172b91b02b72277187,2024-02-19_03h39.06.639,kallum_motion_pilot,2023.2.2,Win32,75.75757576,5f25d8172b91b02b72277187,65d2b6c8f2eece985d8e374c,65d2b9e7341d070378ca4f1d,0.0334,0.0335,1,8,170,56,1,onetwo,,,,,,,,,,,,,,,,,,,,,,,,,,,,,,,,,,,,,,,,,,,,,,,,,,,,,,,,,,,,,,,,,,,,,,,,,,,,,,,,,,,,,,,,,,,,,,,,,,,,,,,,,,,,,,,,,,,,,,,,,,,,,,,,,,,,,,,,,
,,5f25d8172b91b02b72277187,2024-02-19_03h39.06.639,kallum_motion_pilot,2023.2.2,Win32,75.75757576,5f25d8172b91b02b72277187,65d2b6c8f2eece985d8e374c,65d2b9e7341d070378ca4f1d,0.0335,0.0335,1,9,171,41,1,onethree,,,,,,,,,,,,,,,,,,,,,,,,,,,,,,,,,,,,,,,,,,,,,,,,,,,,,,,,,,,,,,,,,,,,,,,,,,,,,,,,,,,,,,,,,,,,,,,,,,,,,,,,,,,,,,,,,,,,,,,,,,,,,,,,,,,,,,,,,
,,5f25d8172b91b02b72277187,2024-02-19_03h39.06.639,kallum_motion_pilot,2023.2.2,Win32,75.75757576,5f25d8172b91b02b72277187,65d2b6c8f2eece985d8e374c,65d2b9e7341d070378ca4f1d,0.0336,0.0336,1,10,172,114,1,sixfive,,,,,,,,,,,,,,,,,,,,,,,,,,,,,,,,,,,,,,,,,,,,,,,,,,,,,,,,,,,,,,,,,,,,,,,,,,,,,,,,,,,,,,,,,,,,,,,,,,,,,,,,,,,,,,,,,,,,,,,,,,,,,,,,,,,,,,,,,
,,5f25d8172b91b02b72277187,2024-02-19_03h39.06.639,kallum_motion_pilot,2023.2.2,Win32,75.75757576,5f25d8172b91b02b72277187,65d2b6c8f2eece985d8e374c,65d2b9e7341d070378ca4f1d,0.0337,0.0337,1,11,173,115,1,sixeight,,,,,,,,,,,,,,,,,,,,,,,,,,,,,,,,,,,,,,,,,,,,,,,,,,,,,,,,,,,,,,,,,,,,,,,,,,,,,,,,,,,,,,,,,,,,,,,,,,,,,,,,,,,,,,,,,,,,,,,,,,,,,,,,,,,,,,,,,
,,5f25d8172b91b02b72277187,2024-02-19_03h39.06.639,kallum_motion_pilot,2023.2.2,Win32,75.75757576,5f25d8172b91b02b72277187,65d2b6c8f2eece985d8e374c,65d2b9e7341d070378ca4f1d,0.0337,0.0339,1,12,174,144,1,fivesix,,,,,,,,,,,,,,,,,,,,,,,,,,,,,,,,,,,,,,,,,,,,,,,,,,,,,,,,,,,,,,,,,,,,,,,,,,,,,,,,,,,,,,,,,,,,,,,,,,,,,,,,,,,,,,,,,,,,,,,,,,,,,,,,,,,,,,,,,
,,5f25d8172b91b02b72277187,2024-02-19_03h39.06.639,kallum_motion_pilot,2023.2.2,Win32,75.75757576,5f25d8172b91b02b72277187,65d2b6c8f2eece985d8e374c,65d2b9e7341d070378ca4f1d,0.0339,0.034,1,13,175,44,1,threeone,,,,,,,,,,,,,,,,,,,,,,,,,,,,,,,,,,,,,,,,,,,,,,,,,,,,,,,,,,,,,,,,,,,,,,,,,,,,,,,,,,,,,,,,,,,,,,,,,,,,,,,,,,,,,,,,,,,,,,,,,,,,,,,,,,,,,,,,,
,,5f25d8172b91b02b72277187,2024-02-19_03h39.06.639,kallum_motion_pilot,2023.2.2,Win32,75.75757576,5f25d8172b91b02b72277187,65d2b6c8f2eece985d8e374c,65d2b9e7341d070378ca4f1d,0.034,0.0341,1,14,176,36,1,threeone,,,,,,,,,,,,,,,,,,,,,,,,,,,,,,,,,,,,,,,,,,,,,,,,,,,,,,,,,,,,,,,,,,,,,,,,,,,,,,,,,,,,,,,,,,,,,,,,,,,,,,,,,,,,,,,,,,,,,,,,,,,,,,,,,,,,,,,,,
,,5f25d8172b91b02b72277187,2024-02-19_03h39.06.639,kallum_motion_pilot,2023.2.2,Win32,75.75757576,5f25d8172b91b02b72277187,65d2b6c8f2eece985d8e374c,65d2b9e7341d070378ca4f1d,0.0341,0.0342,1,15,177,1,1,onethree,,,,,,,,,,,,,,,,,,,,,,,,,,,,,,,,,,,,,,,,,,,,,,,,,,,,,,,,,,,,,,,,,,,,,,,,,,,,,,,,,,,,,,,,,,,,,,,,,,,,,,,,,,,,,,,,,,,,,,,,,,,,,,,,,,,,,,,,,
,,5f25d8172b91b02b72277187,2024-02-19_03h39.06.639,kallum_motion_pilot,2023.2.2,Win32,75.75757576,5f25d8172b91b02b72277187,65d2b6c8f2eece985d8e374c,65d2b9e7341d070378ca4f1d,0.0342,0.0342,1,16,178,123,1,sixeight,,,,,,,,,,,,,,,,,,,,,,,,,,,,,,,,,,,,,,,,,,,,,,,,,,,,,,,,,,,,,,,,,,,,,,,,,,,,,,,,,,,,,,,,,,,,,,,,,,,,,,,,,,,,,,,,,,,,,,,,,,,,,,,,,,,,,,,,,
,,5f25d8172b91b02b72277187,2024-02-19_03h39.06.639,kallum_motion_pilot,2023.2.2,Win32,75.75757576,5f25d8172b91b02b72277187,65d2b6c8f2eece985d8e374c,65d2b9e7341d070378ca4f1d,0.0343,0.0344,1,17,179,27,1,twofour,,,,,,,,,,,,,,,,,,,,,,,,,,,,,,,,,,,,,,,,,,,,,,,,,,,,,,,,,,,,,,,,,,,,,,,,,,,,,,,,,,,,,,,,,,,,,,,,,,,,,,,,,,,,,,,,,,,,,,,,,,,,,,,,,,,,,,,,,
,,5f25d8172b91b02b72277187,2024-02-19_03h39.06.639,kallum_motion_pilot,2023.2.2,Win32,75.75757576,5f25d8172b91b02b72277187,65d2b6c8f2eece985d8e374c,65d2b9e7341d070378ca4f1d,0.0345,0.0345,1,18,180,43,1,twofour,,,,,,,,,,,,,,,,,,,,,,,,,,,,,,,,,,,,,,,,,,,,,,,,,,,,,,,,,,,,,,,,,,,,,,,,,,,,,,,,,,,,,,,,,,,,,,,,,,,,,,,,,,,,,,,,,,,,,,,,,,,,,,,,,,,,,,,,,
,,5f25d8172b91b02b72277187,2024-02-19_03h39.06.639,kallum_motion_pilot,2023.2.2,Win32,75.75757576,5f25d8172b91b02b72277187,65d2b6c8f2eece985d8e374c,65d2b9e7341d070378ca4f1d,0.0345,0.0346,1,19,181,111,1,eightseven,,,,,,,,,,,,,,,,,,,,,,,,,,,,,,,,,,,,,,,,,,,,,,,,,,,,,,,,,,,,,,,,,,,,,,,,,,,,,,,,,,,,,,,,,,,,,,,,,,,,,,,,,,,,,,,,,,,,,,,,,,,,,,,,,,,,,,,,,
,,5f25d8172b91b02b72277187,2024-02-19_03h39.06.639,kallum_motion_pilot,2023.2.2,Win32,75.75757576,5f25d8172b91b02b72277187,65d2b6c8f2eece985d8e374c,65d2b9e7341d070378ca4f1d,0.0346,0.0347,1,20,182,151,1,eightseven,,,,,,,,,,,,,,,,,,,,,,,,,,,,,,,,,,,,,,,,,,,,,,,,,,,,,,,,,,,,,,,,,,,,,,,,,,,,,,,,,,,,,,,,,,,,,,,,,,,,,,,,,,,,,,,,,,,,,,,,,,,,,,,,,,,,,,,,,
,,5f25d8172b91b02b72277187,2024-02-19_03h39.06.639,kallum_motion_pilot,2023.2.2,Win32,75.75757576,5f25d8172b91b02b72277187,65d2b6c8f2eece985d8e374c,65d2b9e7341d070378ca4f1d,0.0348,0.0348,1,21,183,100,1,sevenfive,,,,,,,,,,,,,,,,,,,,,,,,,,,,,,,,,,,,,,,,,,,,,,,,,,,,,,,,,,,,,,,,,,,,,,,,,,,,,,,,,,,,,,,,,,,,,,,,,,,,,,,,,,,,,,,,,,,,,,,,,,,,,,,,,,,,,,,,,
,,5f25d8172b91b02b72277187,2024-02-19_03h39.06.639,kallum_motion_pilot,2023.2.2,Win32,75.75757576,5f25d8172b91b02b72277187,65d2b6c8f2eece985d8e374c,65d2b9e7341d070378ca4f1d,0.0349,0.035,1,22,184,102,1,eightsix,,,,,,,,,,,,,,,,,,,,,,,,,,,,,,,,,,,,,,,,,,,,,,,,,,,,,,,,,,,,,,,,,,,,,,,,,,,,,,,,,,,,,,,,,,,,,,,,,,,,,,,,,,,,,,,,,,,,,,,,,,,,,,,,,,,,,,,,,
,,5f25d8172b91b02b72277187,2024-02-19_03h39.06.639,kallum_motion_pilot,2023.2.2,Win32,75.75757576,5f25d8172b91b02b72277187,65d2b6c8f2eece985d8e374c,65d2b9e7341d070378ca4f1d,0.035,0.0351,1,23,185,55,1,fourthree,,,,,,,,,,,,,,,,,,,,,,,,,,,,,,,,,,,,,,,,,,,,,,,,,,,,,,,,,,,,,,,,,,,,,,,,,,,,,,,,,,,,,,,,,,,,,,,,,,,,,,,,,,,,,,,,,,,,,,,,,,,,,,,,,,,,,,,,,
,,5f25d8172b91b02b72277187,2024-02-19_03h39.06.639,kallum_motion_pilot,2023.2.2,Win32,75.75757576,5f25d8172b91b02b72277187,65d2b6c8f2eece985d8e374c,65d2b9e7341d070378ca4f1d,0.0352,0.0353,1,24,186,29,1,threefour,,,,,,,,,,,,,,,,,,,,,,,,,,,,,,,,,,,,,,,,,,,,,,,,,,,,,,,,,,,,,,,,,,,,,,,,,,,,,,,,,,,,,,,,,,,,,,,,,,,,,,,,,,,,,,,,,,,,,,,,,,,,,,,,,,,,,,,,,
,,5f25d8172b91b02b72277187,2024-02-19_03h39.06.639,kallum_motion_pilot,2023.2.2,Win32,75.75757576,5f25d8172b91b02b72277187,65d2b6c8f2eece985d8e374c,65d2b9e7341d070378ca4f1d,0.0353,0.0354,1,25,187,12,1,threeone,,,,,,,,,,,,,,,,,,,,,,,,,,,,,,,,,,,,,,,,,,,,,,,,,,,,,,,,,,,,,,,,,,,,,,,,,,,,,,,,,,,,,,,,,,,,,,,,,,,,,,,,,,,,,,,,,,,,,,,,,,,,,,,,,,,,,,,,,
,,5f25d8172b91b02b72277187,2024-02-19_03h39.06.639,kallum_motion_pilot,2023.2.2,Win32,75.75757576,5f25d8172b91b02b72277187,65d2b6c8f2eece985d8e374c,65d2b9e7341d070378ca4f1d,0.0354,0.0354,1,26,188,97,1,fiveseven,,,,,,,,,,,,,,,,,,,,,,,,,,,,,,,,,,,,,,,,,,,,,,,,,,,,,,,,,,,,,,,,,,,,,,,,,,,,,,,,,,,,,,,,,,,,,,,,,,,,,,,,,,,,,,,,,,,,,,,,,,,,,,,,,,,,,,,,,
,,5f25d8172b91b02b72277187,2024-02-19_03h39.06.639,kallum_motion_pilot,2023.2.2,Win32,75.75757576,5f25d8172b91b02b72277187,65d2b6c8f2eece985d8e374c,65d2b9e7341d070378ca4f1d,0.0355,0.0356,1,27,189,157,1,seveneight,,,,,,,,,,,,,,,,,,,,,,,,,,,,,,,,,,,,,,,,,,,,,,,,,,,,,,,,,,,,,,,,,,,,,,,,,,,,,,,,,,,,,,,,,,,,,,,,,,,,,,,,,,,,,,,,,,,,,,,,,,,,,,,,,,,,,,,,,
,,5f25d8172b91b02b72277187,2024-02-19_03h39.06.639,kallum_motion_pilot,2023.2.2,Win32,75.75757576,5f25d8172b91b02b72277187,65d2b6c8f2eece985d8e374c,65d2b9e7341d070378ca4f1d,0.0357,0.0357,1,28,190,160,1,fivesix,,,,,,,,,,,,,,,,,,,,,,,,,,,,,,,,,,,,,,,,,,,,,,,,,,,,,,,,,,,,,,,,,,,,,,,,,,,,,,,,,,,,,,,,,,,,,,,,,,,,,,,,,,,,,,,,,,,,,,,,,,,,,,,,,,,,,,,,,
,,5f25d8172b91b02b72277187,2024-02-19_03h39.06.639,kallum_motion_pilot,2023.2.2,Win32,75.75757576,5f25d8172b91b02b72277187,65d2b6c8f2eece985d8e374c,65d2b9e7341d070378ca4f1d,0.0358,0.0359,1,29,191,39,1,fourthree,,,,,,,,,,,,,,,,,,,,,,,,,,,,,,,,,,,,,,,,,,,,,,,,,,,,,,,,,,,,,,,,,,,,,,,,,,,,,,,,,,,,,,,,,,,,,,,,,,,,,,,,,,,,,,,,,,,,,,,,,,,,,,,,,,,,,,,,,
,,5f25d8172b91b02b72277187,2024-02-19_03h39.06.639,kallum_motion_pilot,2023.2.2,Win32,75.75757576,5f25d8172b91b02b72277187,65d2b6c8f2eece985d8e374c,65d2b9e7341d070378ca4f1d,0.0359,0.036,1,30,192,18,1,twoone,,,,,,,,,,,,,,,,,,,,,,,,,,,,,,,,,,,,,,,,,,,,,,,,,,,,,,,,,,,,,,,,,,,,,,,,,,,,,,,,,,,,,,,,,,,,,,,,,,,,,,,,,,,,,,,,,,,,,,,,,,,,,,,,,,,,,,,,,
,,5f25d8172b91b02b72277187,2024-02-19_03h39.06.639,kallum_motion_pilot,2023.2.2,Win32,75.75757576,5f25d8172b91b02b72277187,65d2b6c8f2eece985d8e374c,65d2b9e7341d070378ca4f1d,0.036,0.0361,1,31,193,4,1,threeone,,,,,,,,,,,,,,,,,,,,,,,,,,,,,,,,,,,,,,,,,,,,,,,,,,,,,,,,,,,,,,,,,,,,,,,,,,,,,,,,,,,,,,,,,,,,,,,,,,,,,,,,,,,,,,,,,,,,,,,,,,,,,,,,,,,,,,,,,
,,5f25d8172b91b02b72277187,2024-02-19_03h39.06.639,kallum_motion_pilot,2023.2.2,Win32,75.75757576,5f25d8172b91b02b72277187,65d2b6c8f2eece985d8e374c,65d2b9e7341d070378ca4f1d,0.0361,0.0362,1,32,194,37,1,threefour,,,,,,,,,,,,,,,,,,,,,,,,,,,,,,,,,,,,,,,,,,,,,,,,,,,,,,,,,,,,,,,,,,,,,,,,,,,,,,,,,,,,,,,,,,,,,,,,,,,,,,,,,,,,,,,,,,,,,,,,,,,,,,,,,,,,,,,,,
,,5f25d8172b91b02b72277187,2024-02-19_03h39.06.639,kallum_motion_pilot,2023.2.2,Win32,75.75757576,5f25d8172b91b02b72277187,65d2b6c8f2eece985d8e374c,65d2b9e7341d070378ca4f1d,0.0362,0.0363,1,33,195,80,1,fivesix,,,,,,,,,,,,,,,,,,,,,,,,,,,,,,,,,,,,,,,,,,,,,,,,,,,,,,,,,,,,,,,,,,,,,,,,,,,,,,,,,,,,,,,,,,,,,,,,,,,,,,,,,,,,,,,,,,,,,,,,,,,,,,,,,,,,,,,,,
,,5f25d8172b91b02b72277187,2024-02-19_03h39.06.639,kallum_motion_pilot,2023.2.2,Win32,75.75757576,5f25d8172b91b02b72277187,65d2b6c8f2eece985d8e374c,65d2b9e7341d070378ca4f1d,0.0364,0.0364,1,34,196,53,1,threefour,,,,,,,,,,,,,,,,,,,,,,,,,,,,,,,,,,,,,,,,,,,,,,,,,,,,,,,,,,,,,,,,,,,,,,,,,,,,,,,,,,,,,,,,,,,,,,,,,,,,,,,,,,,,,,,,,,,,,,,,,,,,,,,,,,,,,,,,,
,,5f25d8172b91b02b72277187,2024-02-19_03h39.06.639,kallum_motion_pilot,2023.2.2,Win32,75.75757576,5f25d8172b91b02b72277187,65d2b6c8f2eece985d8e374c,65d2b9e7341d070378ca4f1d,0.0364,0.0365,1,35,197,121,1,fiveseven,,,,,,,,,,,,,,,,,,,,,,,,,,,,,,,,,,,,,,,,,,,,,,,,,,,,,,,,,,,,,,,,,,,,,,,,,,,,,,,,,,,,,,,,,,,,,,,,,,,,,,,,,,,,,,,,,,,,,,,,,,,,,,,,,,,,,,,,,
,,5f25d8172b91b02b72277187,2024-02-19_03h39.06.639,kallum_motion_pilot,2023.2.2,Win32,75.75757576,5f25d8172b91b02b72277187,65d2b6c8f2eece985d8e374c,65d2b9e7341d070378ca4f1d,0.0366,0.0366,1,36,198,106,1,sixfive,,,,,,,,,,,,,,,,,,,,,,,,,,,,,,,,,,,,,,,,,,,,,,,,,,,,,,,,,,,,,,,,,,,,,,,,,,,,,,,,,,,,,,,,,,,,,,,,,,,,,,,,,,,,,,,,,,,,,,,,,,,,,,,,,,,,,,,,,
,,5f25d8172b91b02b72277187,2024-02-19_03h39.06.639,kallum_motion_pilot,2023.2.2,Win32,75.75757576,5f25d8172b91b02b72277187,65d2b6c8f2eece985d8e374c,65d2b9e7341d070378ca4f1d,0.0367,0.0368,1,37,199,99,1,sixeight,,,,,,,,,,,,,,,,,,,,,,,,,,,,,,,,,,,,,,,,,,,,,,,,,,,,,,,,,,,,,,,,,,,,,,,,,,,,,,,,,,,,,,,,,,,,,,,,,,,,,,,,,,,,,,,,,,,,,,,,,,,,,,,,,,,,,,,,,
,,5f25d8172b91b02b72277187,2024-02-19_03h39.06.639,kallum_motion_pilot,2023.2.2,Win32,75.75757576,5f25d8172b91b02b72277187,65d2b6c8f2eece985d8e374c,65d2b9e7341d070378ca4f1d,0.0368,0.0369,1,38,200,149,1,seveneight,,,,,,,,,,,,,,,,,,,,,,,,,,,,,,,,,,,,,,,,,,,,,,,,,,,,,,,,,,,,,,,,,,,,,,,,,,,,,,,,,,,,,,,,,,,,,,,,,,,,,,,,,,,,,,,,,,,,,,,,,,,,,,,,,,,,,,,,,
,,5f25d8172b91b02b72277187,2024-02-19_03h39.06.639,kallum_motion_pilot,2023.2.2,Win32,75.75757576,5f25d8172b91b02b72277187,65d2b6c8f2eece985d8e374c,65d2b9e7341d070378ca4f1d,0.0369,0.0369,1,39,201,129,1,fiveseven,,,,,,,,,,,,,,,,,,,,,,,,,,,,,,,,,,,,,,,,,,,,,,,,,,,,,,,,,,,,,,,,,,,,,,,,,,,,,,,,,,,,,,,,,,,,,,,,,,,,,,,,,,,,,,,,,,,,,,,,,,,,,,,,,,,,,,,,,
,,5f25d8172b91b02b72277187,2024-02-19_03h39.06.639,kallum_motion_pilot,2023.2.2,Win32,75.75757576,5f25d8172b91b02b72277187,65d2b6c8f2eece985d8e374c,65d2b9e7341d070378ca4f1d,0.037,0.0371,1,40,202,67,1,twofour,,,,,,,,,,,,,,,,,,,,,,,,,,,,,,,,,,,,,,,,,,,,,,,,,,,,,,,,,,,,,,,,,,,,,,,,,,,,,,,,,,,,,,,,,,,,,,,,,,,,,,,,,,,,,,,,,,,,,,,,,,,,,,,,,,,,,,,,,
,,5f25d8172b91b02b72277187,2024-02-19_03h39.06.639,kallum_motion_pilot,2023.2.2,Win32,75.75757576,5f25d8172b91b02b72277187,65d2b6c8f2eece985d8e374c,65d2b9e7341d070378ca4f1d,0.0372,0.0372,1,41,203,49,1,onethree,,,,,,,,,,,,,,,,,,,,,,,,,,,,,,,,,,,,,,,,,,,,,,,,,,,,,,,,,,,,,,,,,,,,,,,,,,,,,,,,,,,,,,,,,,,,,,,,,,,,,,,,,,,,,,,,,,,,,,,,,,,,,,,,,,,,,,,,,
,,5f25d8172b91b02b72277187,2024-02-19_03h39.06.639,kallum_motion_pilot,2023.2.2,Win32,75.75757576,5f25d8172b91b02b72277187,65d2b6c8f2eece985d8e374c,65d2b9e7341d070378ca4f1d,0.0373,0.0373,1,42,204,34,1,twoone,,,,,,,,,,,,,,,,,,,,,,,,,,,,,,,,,,,,,,,,,,,,,,,,,,,,,,,,,,,,,,,,,,,,,,,,,,,,,,,,,,,,,,,,,,,,,,,,,,,,,,,,,,,,,,,,,,,,,,,,,,,,,,,,,,,,,,,,,
,,5f25d8172b91b02b72277187,2024-02-19_03h39.06.639,kallum_motion_pilot,2023.2.2,Win32,75.75757576,5f25d8172b91b02b72277187,65d2b6c8f2eece985d8e374c,65d2b9e7341d070378ca4f1d,0.0374,0.0374,1,43,205,13,1,threefour,,,,,,,,,,,,,,,,,,,,,,,,,,,,,,,,,,,,,,,,,,,,,,,,,,,,,,,,,,,,,,,,,,,,,,,,,,,,,,,,,,,,,,,,,,,,,,,,,,,,,,,,,,,,,,,,,,,,,,,,,,,,,,,,,,,,,,,,,
,,5f25d8172b91b02b72277187,2024-02-19_03h39.06.639,kallum_motion_pilot,2023.2.2,Win32,75.75757576,5f25d8172b91b02b72277187,65d2b6c8f2eece985d8e374c,65d2b9e7341d070378ca4f1d,0.0375,0.0375,1,44,206,35,1,twofour,,,,,,,,,,,,,,,,,,,,,,,,,,,,,,,,,,,,,,,,,,,,,,,,,,,,,,,,,,,,,,,,,,,,,,,,,,,,,,,,,,,,,,,,,,,,,,,,,,,,,,,,,,,,,,,,,,,,,,,,,,,,,,,,,,,,,,,,,
,,5f25d8172b91b02b72277187,2024-02-19_03h39.06.639,kallum_motion_pilot,2023.2.2,Win32,75.75757576,5f25d8172b91b02b72277187,65d2b6c8f2eece985d8e374c,65d2b9e7341d070378ca4f1d,0.0376,0.0378,1,45,207,40,1,onetwo,,,,,,,,,,,,,,,,,,,,,,,,,,,,,,,,,,,,,,,,,,,,,,,,,,,,,,,,,,,,,,,,,,,,,,,,,,,,,,,,,,,,,,,,,,,,,,,,,,,,,,,,,,,,,,,,,,,,,,,,,,,,,,,,,,,,,,,,,
,,5f25d8172b91b02b72277187,2024-02-19_03h39.06.639,kallum_motion_pilot,2023.2.2,Win32,75.75757576,5f25d8172b91b02b72277187,65d2b6c8f2eece985d8e374c,65d2b9e7341d070378ca4f1d,0.0378,0.0378,1,46,208,136,1,fivesix,,,,,,,,,,,,,,,,,,,,,,,,,,,,,,,,,,,,,,,,,,,,,,,,,,,,,,,,,,,,,,,,,,,,,,,,,,,,,,,,,,,,,,,,,,,,,,,,,,,,,,,,,,,,,,,,,,,,,,,,,,,,,,,,,,,,,,,,,
,,5f25d8172b91b02b72277187,2024-02-19_03h39.06.639,kallum_motion_pilot,2023.2.2,Win32,75.75757576,5f25d8172b91b02b72277187,65d2b6c8f2eece985d8e374c,65d2b9e7341d070378ca4f1d,0.038,0.0381,1,47,209,54,1,fourtwo,,,,,,,,,,,,,,,,,,,,,,,,,,,,,,,,,,,,,,,,,,,,,,,,,,,,,,,,,,,,,,,,,,,,,,,,,,,,,,,,,,,,,,,,,,,,,,,,,,,,,,,,,,,,,,,,,,,,,,,,,,,,,,,,,,,,,,,,,
,,5f25d8172b91b02b72277187,2024-02-19_03h39.06.639,kallum_motion_pilot,2023.2.2,Win32,75.75757576,5f25d8172b91b02b72277187,65d2b6c8f2eece985d8e374c,65d2b9e7341d070378ca4f1d,0.0381,0.0382,1,48,210,66,1,twoone,,,,,,,,,,,,,,,,,,,,,,,,,,,,,,,,,,,,,,,,,,,,,,,,,,,,,,,,,,,,,,,,,,,,,,,,,,,,,,,,,,,,,,,,,,,,,,,,,,,,,,,,,,,,,,,,,,,,,,,,,,,,,,,,,,,,,,,,,
,,5f25d8172b91b02b72277187,2024-02-19_03h39.06.639,kallum_motion_pilot,2023.2.2,Win32,75.75757576,5f25d8172b91b02b72277187,65d2b6c8f2eece985d8e374c,65d2b9e7341d070378ca4f1d,0.0383,0.0383,1,49,211,122,1,sixfive,,,,,,,,,,,,,,,,,,,,,,,,,,,,,,,,,,,,,,,,,,,,,,,,,,,,,,,,,,,,,,,,,,,,,,,,,,,,,,,,,,,,,,,,,,,,,,,,,,,,,,,,,,,,,,,,,,,,,,,,,,,,,,,,,,,,,,,,,
,,5f25d8172b91b02b72277187,2024-02-19_03h39.06.639,kallum_motion_pilot,2023.2.2,Win32,75.75757576,5f25d8172b91b02b72277187,65d2b6c8f2eece985d8e374c,65d2b9e7341d070378ca4f1d,0.0384,0.0385,1,50,212,2,1,twoone,,,,,,,,,,,,,,,,,,,,,,,,,,,,,,,,,,,,,,,,,,,,,,,,,,,,,,,,,,,,,,,,,,,,,,,,,,,,,,,,,,,,,,,,,,,,,,,,,,,,,,,,,,,,,,,,,,,,,,,,,,,,,,,,,,,,,,,,,
,,5f25d8172b91b02b72277187,2024-02-19_03h39.06.639,kallum_motion_pilot,2023.2.2,Win32,75.75757576,5f25d8172b91b02b72277187,65d2b6c8f2eece985d8e374c,65d2b9e7341d070378ca4f1d,0.0386,0.0387,1,51,213,143,1,eightseven,,,,,,,,,,,,,,,,,,,,,,,,,,,,,,,,,,,,,,,,,,,,,,,,,,,,,,,,,,,,,,,,,,,,,,,,,,,,,,,,,,,,,,,,,,,,,,,,,,,,,,,,,,,,,,,,,,,,,,,,,,,,,,,,,,,,,,,,,
,,5f25d8172b91b02b72277187,2024-02-19_03h39.06.639,kallum_motion_pilot,2023.2.2,Win32,75.75757576,5f25d8172b91b02b72277187,65d2b6c8f2eece985d8e374c,65d2b9e7341d070378ca4f1d,0.0387,0.0388,1,52,214,96,1,fivesix,,,,,,,,,,,,,,,,,,,,,,,,,,,,,,,,,,,,,,,,,,,,,,,,,,,,,,,,,,,,,,,,,,,,,,,,,,,,,,,,,,,,,,,,,,,,,,,,,,,,,,,,,,,,,,,,,,,,,,,,,,,,,,,,,,,,,,,,,
,,5f25d8172b91b02b72277187,2024-02-19_03h39.06.639,kallum_motion_pilot,2023.2.2,Win32,75.75757576,5f25d8172b91b02b72277187,65d2b6c8f2eece985d8e374c,65d2b9e7341d070378ca4f1d,0.039,0.0391,1,53,215,110,1,eightsix,,,,,,,,,,,,,,,,,,,,,,,,,,,,,,,,,,,,,,,,,,,,,,,,,,,,,,,,,,,,,,,,,,,,,,,,,,,,,,,,,,,,,,,,,,,,,,,,,,,,,,,,,,,,,,,,,,,,,,,,,,,,,,,,,,,,,,,,,
,,5f25d8172b91b02b72277187,2024-02-19_03h39.06.639,kallum_motion_pilot,2023.2.2,Win32,75.75757576,5f25d8172b91b02b72277187,65d2b6c8f2eece985d8e374c,65d2b9e7341d070378ca4f1d,0.0391,0.0391,1,54,216,65,1,onethree,,,,,,,,,,,,,,,,,,,,,,,,,,,,,,,,,,,,,,,,,,,,,,,,,,,,,,,,,,,,,,,,,,,,,,,,,,,,,,,,,,,,,,,,,,,,,,,,,,,,,,,,,,,,,,,,,,,,,,,,,,,,,,,,,,,,,,,,,
,,5f25d8172b91b02b72277187,2024-02-19_03h39.06.639,kallum_motion_pilot,2023.2.2,Win32,75.75757576,5f25d8172b91b02b72277187,65d2b6c8f2eece985d8e374c,65d2b9e7341d070378ca4f1d,0.0392,0.0393,1,55,217,103,1,eightseven,,,,,,,,,,,,,,,,,,,,,,,,,,,,,,,,,,,,,,,,,,,,,,,,,,,,,,,,,,,,,,,,,,,,,,,,,,,,,,,,,,,,,,,,,,,,,,,,,,,,,,,,,,,,,,,,,,,,,,,,,,,,,,,,,,,,,,,,,
,,5f25d8172b91b02b72277187,2024-02-19_03h39.06.639,kallum_motion_pilot,2023.2.2,Win32,75.75757576,5f25d8172b91b02b72277187,65d2b6c8f2eece985d8e374c,65d2b9e7341d070378ca4f1d,0.0395,0.0395,1,56,218,14,1,fourtwo,,,,,,,,,,,,,,,,,,,,,,,,,,,,,,,,,,,,,,,,,,,,,,,,,,,,,,,,,,,,,,,,,,,,,,,,,,,,,,,,,,,,,,,,,,,,,,,,,,,,,,,,,,,,,,,,,,,,,,,,,,,,,,,,,,,,,,,,,
,,5f25d8172b91b02b72277187,2024-02-19_03h39.06.639,kallum_motion_pilot,2023.2.2,Win32,75.75757576,5f25d8172b91b02b72277187,65d2b6c8f2eece985d8e374c,65d2b9e7341d070378ca4f1d,0.0395,0.0396,1,57,219,26,1,twoone,,,,,,,,,,,,,,,,,,,,,,,,,,,,,,,,,,,,,,,,,,,,,,,,,,,,,,,,,,,,,,,,,,,,,,,,,,,,,,,,,,,,,,,,,,,,,,,,,,,,,,,,,,,,,,,,,,,,,,,,,,,,,,,,,,,,,,,,,
,,5f25d8172b91b02b72277187,2024-02-19_03h39.06.639,kallum_motion_pilot,2023.2.2,Win32,75.75757576,5f25d8172b91b02b72277187,65d2b6c8f2eece985d8e374c,65d2b9e7341d070378ca4f1d,0.0396,0.0397,1,58,220,82,1,sixfive,,,,,,,,,,,,,,,,,,,,,,,,,,,,,,,,,,,,,,,,,,,,,,,,,,,,,,,,,,,,,,,,,,,,,,,,,,,,,,,,,,,,,,,,,,,,,,,,,,,,,,,,,,,,,,,,,,,,,,,,,,,,,,,,,,,,,,,,,
,,5f25d8172b91b02b72277187,2024-02-19_03h39.06.639,kallum_motion_pilot,2023.2.2,Win32,75.75757576,5f25d8172b91b02b72277187,65d2b6c8f2eece985d8e374c,65d2b9e7341d070378ca4f1d,0.0397,0.0399,1,59,221,146,1,sixfive,,,,,,,,,,,,,,,,,,,,,,,,,,,,,,,,,,,,,,,,,,,,,,,,,,,,,,,,,,,,,,,,,,,,,,,,,,,,,,,,,,,,,,,,,,,,,,,,,,,,,,,,,,,,,,,,,,,,,,,,,,,,,,,,,,,,,,,,,
,,5f25d8172b91b02b72277187,2024-02-19_03h39.06.639,kallum_motion_pilot,2023.2.2,Win32,75.75757576,5f25d8172b91b02b72277187,65d2b6c8f2eece985d8e374c,65d2b9e7341d070378ca4f1d,0.04,0.04,1,60,222,150,1,eightsix,,,,,,,,,,,,,,,,,,,,,,,,,,,,,,,,,,,,,,,,,,,,,,,,,,,,,,,,,,,,,,,,,,,,,,,,,,,,,,,,,,,,,,,,,,,,,,,,,,,,,,,,,,,,,,,,,,,,,,,,,,,,,,,,,,,,,,,,,
,,5f25d8172b91b02b72277187,2024-02-19_03h39.06.639,kallum_motion_pilot,2023.2.2,Win32,75.75757576,5f25d8172b91b02b72277187,65d2b6c8f2eece985d8e374c,65d2b9e7341d070378ca4f1d,0.04,0.0401,1,61,223,128,1,fivesix,,,,,,,,,,,,,,,,,,,,,,,,,,,,,,,,,,,,,,,,,,,,,,,,,,,,,,,,,,,,,,,,,,,,,,,,,,,,,,,,,,,,,,,,,,,,,,,,,,,,,,,,,,,,,,,,,,,,,,,,,,,,,,,,,,,,,,,,,
,,5f25d8172b91b02b72277187,2024-02-19_03h39.06.639,kallum_motion_pilot,2023.2.2,Win32,75.75757576,5f25d8172b91b02b72277187,65d2b6c8f2eece985d8e374c,65d2b9e7341d070378ca4f1d,0.0402,0.0402,1,62,224,77,1,threefour,,,,,,,,,,,,,,,,,,,,,,,,,,,,,,,,,,,,,,,,,,,,,,,,,,,,,,,,,,,,,,,,,,,,,,,,,,,,,,,,,,,,,,,,,,,,,,,,,,,,,,,,,,,,,,,,,,,,,,,,,,,,,,,,,,,,,,,,,
,,5f25d8172b91b02b72277187,2024-02-19_03h39.06.639,kallum_motion_pilot,2023.2.2,Win32,75.75757576,5f25d8172b91b02b72277187,65d2b6c8f2eece985d8e374c,65d2b9e7341d070378ca4f1d,0.0403,0.0404,1,63,225,11,1,twofour,,,,,,,,,,,,,,,,,,,,,,,,,,,,,,,,,,,,,,,,,,,,,,,,,,,,,,,,,,,,,,,,,,,,,,,,,,,,,,,,,,,,,,,,,,,,,,,,,,,,,,,,,,,,,,,,,,,,,,,,,,,,,,,,,,,,,,,,,
,,5f25d8172b91b02b72277187,2024-02-19_03h39.06.639,kallum_motion_pilot,2023.2.2,Win32,75.75757576,5f25d8172b91b02b72277187,65d2b6c8f2eece985d8e374c,65d2b9e7341d070378ca4f1d,0.0404,0.0405,1,64,226,45,1,threefour,,,,,,,,,,,,,,,,,,,,,,,,,,,,,,,,,,,,,,,,,,,,,,,,,,,,,,,,,,,,,,,,,,,,,,,,,,,,,,,,,,,,,,,,,,,,,,,,,,,,,,,,,,,,,,,,,,,,,,,,,,,,,,,,,,,,,,,,,
,,5f25d8172b91b02b72277187,2024-02-19_03h39.06.639,kallum_motion_pilot,2023.2.2,Win32,75.75757576,5f25d8172b91b02b72277187,65d2b6c8f2eece985d8e374c,65d2b9e7341d070378ca4f1d,0.0406,0.0406,1,65,227,118,1,eightsix,,,,,,,,,,,,,,,,,,,,,,,,,,,,,,,,,,,,,,,,,,,,,,,,,,,,,,,,,,,,,,,,,,,,,,,,,,,,,,,,,,,,,,,,,,,,,,,,,,,,,,,,,,,,,,,,,,,,,,,,,,,,,,,,,,,,,,,,,
,,5f25d8172b91b02b72277187,2024-02-19_03h39.06.639,kallum_motion_pilot,2023.2.2,Win32,75.75757576,5f25d8172b91b02b72277187,65d2b6c8f2eece985d8e374c,65d2b9e7341d070378ca4f1d,0.0406,0.0408,1,66,228,0,1,onetwo,,,,,,,,,,,,,,,,,,,,,,,,,,,,,,,,,,,,,,,,,,,,,,,,,,,,,,,,,,,,,,,,,,,,,,,,,,,,,,,,,,,,,,,,,,,,,,,,,,,,,,,,,,,,,,,,,,,,,,,,,,,,,,,,,,,,,,,,,
,,5f25d8172b91b02b72277187,2024-02-19_03h39.06.639,kallum_motion_pilot,2023.2.2,Win32,75.75757576,5f25d8172b91b02b72277187,65d2b6c8f2eece985d8e374c,65d2b9e7341d070378ca4f1d,0.0408,0.0409,1,67,229,79,1,eightseven,,,,,,,,,,,,,,,,,,,,,,,,,,,,,,,,,,,,,,,,,,,,,,,,,,,,,,,,,,,,,,,,,,,,,,,,,,,,,,,,,,,,,,,,,,,,,,,,,,,,,,,,,,,,,,,,,,,,,,,,,,,,,,,,,,,,,,,,,
,,5f25d8172b91b02b72277187,2024-02-19_03h39.06.639,kallum_motion_pilot,2023.2.2,Win32,75.75757576,5f25d8172b91b02b72277187,65d2b6c8f2eece985d8e374c,65d2b9e7341d070378ca4f1d,0.0409,0.0409,1,68,230,17,1,onethree,,,,,,,,,,,,,,,,,,,,,,,,,,,,,,,,,,,,,,,,,,,,,,,,,,,,,,,,,,,,,,,,,,,,,,,,,,,,,,,,,,,,,,,,,,,,,,,,,,,,,,,,,,,,,,,,,,,,,,,,,,,,,,,,,,,,,,,,,
,,5f25d8172b91b02b72277187,2024-02-19_03h39.06.639,kallum_motion_pilot,2023.2.2,Win32,75.75757576,5f25d8172b91b02b72277187,65d2b6c8f2eece985d8e374c,65d2b9e7341d070378ca4f1d,0.041,0.0411,1,69,231,148,1,sevenfive,,,,,,,,,,,,,,,,,,,,,,,,,,,,,,,,,,,,,,,,,,,,,,,,,,,,,,,,,,,,,,,,,,,,,,,,,,,,,,,,,,,,,,,,,,,,,,,,,,,,,,,,,,,,,,,,,,,,,,,,,,,,,,,,,,,,,,,,,
,,5f25d8172b91b02b72277187,2024-02-19_03h39.06.639,kallum_motion_pilot,2023.2.2,Win32,75.75757576,5f25d8172b91b02b72277187,65d2b6c8f2eece985d8e374c,65d2b9e7341d070378ca4f1d,0.0411,0.0412,1,70,232,104,1,fivesix,,,,,,,,,,,,,,,,,,,,,,,,,,,,,,,,,,,,,,,,,,,,,,,,,,,,,,,,,,,,,,,,,,,,,,,,,,,,,,,,,,,,,,,,,,,,,,,,,,,,,,,,,,,,,,,,,,,,,,,,,,,,,,,,,,,,,,,,,
,,5f25d8172b91b02b72277187,2024-02-19_03h39.06.639,kallum_motion_pilot,2023.2.2,Win32,75.75757576,5f25d8172b91b02b72277187,65d2b6c8f2eece985d8e374c,65d2b9e7341d070378ca4f1d,0.0413,0.0413,1,71,233,116,1,sevenfive,,,,,,,,,,,,,,,,,,,,,,,,,,,,,,,,,,,,,,,,,,,,,,,,,,,,,,,,,,,,,,,,,,,,,,,,,,,,,,,,,,,,,,,,,,,,,,,,,,,,,,,,,,,,,,,,,,,,,,,,,,,,,,,,,,,,,,,,,
,,5f25d8172b91b02b72277187,2024-02-19_03h39.06.639,kallum_motion_pilot,2023.2.2,Win32,75.75757576,5f25d8172b91b02b72277187,65d2b6c8f2eece985d8e374c,65d2b9e7341d070378ca4f1d,0.0413,0.0414,1,72,234,74,1,twoone,,,,,,,,,,,,,,,,,,,,,,,,,,,,,,,,,,,,,,,,,,,,,,,,,,,,,,,,,,,,,,,,,,,,,,,,,,,,,,,,,,,,,,,,,,,,,,,,,,,,,,,,,,,,,,,,,,,,,,,,,,,,,,,,,,,,,,,,,
,,5f25d8172b91b02b72277187,2024-02-19_03h39.06.639,kallum_motion_pilot,2023.2.2,Win32,75.75757576,5f25d8172b91b02b72277187,65d2b6c8f2eece985d8e374c,65d2b9e7341d070378ca4f1d,0.0415,0.0415,1,73,235,117,1,seveneight,,,,,,,,,,,,,,,,,,,,,,,,,,,,,,,,,,,,,,,,,,,,,,,,,,,,,,,,,,,,,,,,,,,,,,,,,,,,,,,,,,,,,,,,,,,,,,,,,,,,,,,,,,,,,,,,,,,,,,,,,,,,,,,,,,,,,,,,,
,,5f25d8172b91b02b72277187,2024-02-19_03h39.06.639,kallum_motion_pilot,2023.2.2,Win32,75.75757576,5f25d8172b91b02b72277187,65d2b6c8f2eece985d8e374c,65d2b9e7341d070378ca4f1d,0.0416,0.0417,1,74,236,24,1,onetwo,,,,,,,,,,,,,,,,,,,,,,,,,,,,,,,,,,,,,,,,,,,,,,,,,,,,,,,,,,,,,,,,,,,,,,,,,,,,,,,,,,,,,,,,,,,,,,,,,,,,,,,,,,,,,,,,,,,,,,,,,,,,,,,,,,,,,,,,,
,,5f25d8172b91b02b72277187,2024-02-19_03h39.06.639,kallum_motion_pilot,2023.2.2,Win32,75.75757576,5f25d8172b91b02b72277187,65d2b6c8f2eece985d8e374c,65d2b9e7341d070378ca4f1d,0.0417,0.0418,1,75,237,7,1,fourthree,,,,,,,,,,,,,,,,,,,,,,,,,,,,,,,,,,,,,,,,,,,,,,,,,,,,,,,,,,,,,,,,,,,,,,,,,,,,,,,,,,,,,,,,,,,,,,,,,,,,,,,,,,,,,,,,,,,,,,,,,,,,,,,,,,,,,,,,,
,,5f25d8172b91b02b72277187,2024-02-19_03h39.06.639,kallum_motion_pilot,2023.2.2,Win32,75.75757576,5f25d8172b91b02b72277187,65d2b6c8f2eece985d8e374c,65d2b9e7341d070378ca4f1d,0.0419,0.0419,1,76,238,63,1,fourthree,,,,,,,,,,,,,,,,,,,,,,,,,,,,,,,,,,,,,,,,,,,,,,,,,,,,,,,,,,,,,,,,,,,,,,,,,,,,,,,,,,,,,,,,,,,,,,,,,,,,,,,,,,,,,,,,,,,,,,,,,,,,,,,,,,,,,,,,,
,,5f25d8172b91b02b72277187,2024-02-19_03h39.06.639,kallum_motion_pilot,2023.2.2,Win32,75.75757576,5f25d8172b91b02b72277187,65d2b6c8f2eece985d8e374c,65d2b9e7341d070378ca4f1d,0.0421,0.0421,1,77,239,33,1,onethree,,,,,,,,,,,,,,,,,,,,,,,,,,,,,,,,,,,,,,,,,,,,,,,,,,,,,,,,,,,,,,,,,,,,,,,,,,,,,,,,,,,,,,,,,,,,,,,,,,,,,,,,,,,,,,,,,,,,,,,,,,,,,,,,,,,,,,,,,
,,5f25d8172b91b02b72277187,2024-02-19_03h39.06.639,kallum_motion_pilot,2023.2.2,Win32,75.75757576,5f25d8172b91b02b72277187,65d2b6c8f2eece985d8e374c,65d2b9e7341d070378ca4f1d,0.0422,0.0423,1,78,240,68,1,threeone,,,,,,,,,,,,,,,,,,,,,,,,,,,,,,,,,,,,,,,,,,,,,,,,,,,,,,,,,,,,,,,,,,,,,,,,,,,,,,,,,,,,,,,,,,,,,,,,,,,,,,,,,,,,,,,,,,,,,,,,,,,,,,,,,,,,,,,,,
,,5f25d8172b91b02b72277187,2024-02-19_03h39.06.639,kallum_motion_pilot,2023.2.2,Win32,75.75757576,5f25d8172b91b02b72277187,65d2b6c8f2eece985d8e374c,65d2b9e7341d070378ca4f1d,0.0424,0.0424,1,79,241,86,1,eightsix,,,,,,,,,,,,,,,,,,,,,,,,,,,,,,,,,,,,,,,,,,,,,,,,,,,,,,,,,,,,,,,,,,,,,,,,,,,,,,,,,,,,,,,,,,,,,,,,,,,,,,,,,,,,,,,,,,,,,,,,,,,,,,,,,,,,,,,,,
,,5f25d8172b91b02b72277187,2024-02-19_03h39.06.639,kallum_motion_pilot,2023.2.2,Win32,75.75757576,5f25d8172b91b02b72277187,65d2b6c8f2eece985d8e374c,65d2b9e7341d070378ca4f1d,0.0425,0.0425,1,80,242,109,1,seveneight,,,,,,,,,,,,,,,,,,,,,,,,,,,,,,,,,,,,,,,,,,,,,,,,,,,,,,,,,,,,,,,,,,,,,,,,,,,,,,,,,,,,,,,,,,,,,,,,,,,,,,,,,,,,,,,,,,,,,,,,,,,,,,,,,,,,,,,,,
,,5f25d8172b91b02b72277187,2024-02-19_03h39.06.639,kallum_motion_pilot,2023.2.2,Win32,75.75757576,5f25d8172b91b02b72277187,65d2b6c8f2eece985d8e374c,65d2b9e7341d070378ca4f1d,0.0426,0.0427,1,81,243,21,1,threefour,,,,,,,,,,,,,,,,,,,,,,,,,,,,,,,,,,,,,,,,,,,,,,,,,,,,,,,,,,,,,,,,,,,,,,,,,,,,,,,,,,,,,,,,,,,,,,,,,,,,,,,,,,,,,,,,,,,,,,,,,,,,,,,,,,,,,,,,,
,,5f25d8172b91b02b72277187,2024-02-19_03h39.06.639,kallum_motion_pilot,2023.2.2,Win32,75.75757576,5f25d8172b91b02b72277187,65d2b6c8f2eece985d8e374c,65d2b9e7341d070378ca4f1d,0.0428,0.0429,1,82,244,133,1,seveneight,,,,,,,,,,,,,,,,,,,,,,,,,,,,,,,,,,,,,,,,,,,,,,,,,,,,,,,,,,,,,,,,,,,,,,,,,,,,,,,,,,,,,,,,,,,,,,,,,,,,,,,,,,,,,,,,,,,,,,,,,,,,,,,,,,,,,,,,,
,,5f25d8172b91b02b72277187,2024-02-19_03h39.06.639,kallum_motion_pilot,2023.2.2,Win32,75.75757576,5f25d8172b91b02b72277187,65d2b6c8f2eece985d8e374c,65d2b9e7341d070378ca4f1d,0.0429,0.0429,1,83,245,126,1,eightsix,,,,,,,,,,,,,,,,,,,,,,,,,,,,,,,,,,,,,,,,,,,,,,,,,,,,,,,,,,,,,,,,,,,,,,,,,,,,,,,,,,,,,,,,,,,,,,,,,,,,,,,,,,,,,,,,,,,,,,,,,,,,,,,,,,,,,,,,,
,,5f25d8172b91b02b72277187,2024-02-19_03h39.06.639,kallum_motion_pilot,2023.2.2,Win32,75.75757576,5f25d8172b91b02b72277187,65d2b6c8f2eece985d8e374c,65d2b9e7341d070378ca4f1d,0.0431,0.0431,1,84,246,70,1,fourtwo,,,,,,,,,,,,,,,,,,,,,,,,,,,,,,,,,,,,,,,,,,,,,,,,,,,,,,,,,,,,,,,,,,,,,,,,,,,,,,,,,,,,,,,,,,,,,,,,,,,,,,,,,,,,,,,,,,,,,,,,,,,,,,,,,,,,,,,,,
,,5f25d8172b91b02b72277187,2024-02-19_03h39.06.639,kallum_motion_pilot,2023.2.2,Win32,75.75757576,5f25d8172b91b02b72277187,65d2b6c8f2eece985d8e374c,65d2b9e7341d070378ca4f1d,0.0431,0.0432,1,85,247,131,1,sixeight,,,,,,,,,,,,,,,,,,,,,,,,,,,,,,,,,,,,,,,,,,,,,,,,,,,,,,,,,,,,,,,,,,,,,,,,,,,,,,,,,,,,,,,,,,,,,,,,,,,,,,,,,,,,,,,,,,,,,,,,,,,,,,,,,,,,,,,,,
,,5f25d8172b91b02b72277187,2024-02-19_03h39.06.639,kallum_motion_pilot,2023.2.2,Win32,75.75757576,5f25d8172b91b02b72277187,65d2b6c8f2eece985d8e374c,65d2b9e7341d070378ca4f1d,0.0432,0.0433,1,86,248,91,1,sixeight,,,,,,,,,,,,,,,,,,,,,,,,,,,,,,,,,,,,,,,,,,,,,,,,,,,,,,,,,,,,,,,,,,,,,,,,,,,,,,,,,,,,,,,,,,,,,,,,,,,,,,,,,,,,,,,,,,,,,,,,,,,,,,,,,,,,,,,,,
,,5f25d8172b91b02b72277187,2024-02-19_03h39.06.639,kallum_motion_pilot,2023.2.2,Win32,75.75757576,5f25d8172b91b02b72277187,65d2b6c8f2eece985d8e374c,65d2b9e7341d070378ca4f1d,0.0434,0.0435,1,87,249,46,1,fourtwo,,,,,,,,,,,,,,,,,,,,,,,,,,,,,,,,,,,,,,,,,,,,,,,,,,,,,,,,,,,,,,,,,,,,,,,,,,,,,,,,,,,,,,,,,,,,,,,,,,,,,,,,,,,,,,,,,,,,,,,,,,,,,,,,,,,,,,,,,
,,5f25d8172b91b02b72277187,2024-02-19_03h39.06.639,kallum_motion_pilot,2023.2.2,Win32,75.75757576,5f25d8172b91b02b72277187,65d2b6c8f2eece985d8e374c,65d2b9e7341d070378ca4f1d,0.0436,0.0436,1,88,250,145,1,fiveseven,,,,,,,,,,,,,,,,,,,,,,,,,,,,,,,,,,,,,,,,,,,,,,,,,,,,,,,,,,,,,,,,,,,,,,,,,,,,,,,,,,,,,,,,,,,,,,,,,,,,,,,,,,,,,,,,,,,,,,,,,,,,,,,,,,,,,,,,,
,,5f25d8172b91b02b72277187,2024-02-19_03h39.06.639,kallum_motion_pilot,2023.2.2,Win32,75.75757576,5f25d8172b91b02b72277187,65d2b6c8f2eece985d8e374c,65d2b9e7341d070378ca4f1d,0.0437,0.0438,1,89,251,61,1,threefour,,,,,,,,,,,,,,,,,,,,,,,,,,,,,,,,,,,,,,,,,,,,,,,,,,,,,,,,,,,,,,,,,,,,,,,,,,,,,,,,,,,,,,,,,,,,,,,,,,,,,,,,,,,,,,,,,,,,,,,,,,,,,,,,,,,,,,,,,
,,5f25d8172b91b02b72277187,2024-02-19_03h39.06.639,kallum_motion_pilot,2023.2.2,Win32,75.75757576,5f25d8172b91b02b72277187,65d2b6c8f2eece985d8e374c,65d2b9e7341d070378ca4f1d,0.0438,0.0439,1,90,252,23,1,fourthree,,,,,,,,,,,,,,,,,,,,,,,,,,,,,,,,,,,,,,,,,,,,,,,,,,,,,,,,,,,,,,,,,,,,,,,,,,,,,,,,,,,,,,,,,,,,,,,,,,,,,,,,,,,,,,,,,,,,,,,,,,,,,,,,,,,,,,,,,
,,5f25d8172b91b02b72277187,2024-02-19_03h39.06.639,kallum_motion_pilot,2023.2.2,Win32,75.75757576,5f25d8172b91b02b72277187,65d2b6c8f2eece985d8e374c,65d2b9e7341d070378ca4f1d,0.0439,0.044,1,91,253,134,1,eightsix,,,,,,,,,,,,,,,,,,,,,,,,,,,,,,,,,,,,,,,,,,,,,,,,,,,,,,,,,,,,,,,,,,,,,,,,,,,,,,,,,,,,,,,,,,,,,,,,,,,,,,,,,,,,,,,,,,,,,,,,,,,,,,,,,,,,,,,,,
,,5f25d8172b91b02b72277187,2024-02-19_03h39.06.639,kallum_motion_pilot,2023.2.2,Win32,75.75757576,5f25d8172b91b02b72277187,65d2b6c8f2eece985d8e374c,65d2b9e7341d070378ca4f1d,0.0442,0.0442,1,92,254,22,1,fourtwo,,,,,,,,,,,,,,,,,,,,,,,,,,,,,,,,,,,,,,,,,,,,,,,,,,,,,,,,,,,,,,,,,,,,,,,,,,,,,,,,,,,,,,,,,,,,,,,,,,,,,,,,,,,,,,,,,,,,,,,,,,,,,,,,,,,,,,,,,
,,5f25d8172b91b02b72277187,2024-02-19_03h39.06.639,kallum_motion_pilot,2023.2.2,Win32,75.75757576,5f25d8172b91b02b72277187,65d2b6c8f2eece985d8e374c,65d2b9e7341d070378ca4f1d,0.0443,0.0443,1,93,255,62,1,fourtwo,,,,,,,,,,,,,,,,,,,,,,,,,,,,,,,,,,,,,,,,,,,,,,,,,,,,,,,,,,,,,,,,,,,,,,,,,,,,,,,,,,,,,,,,,,,,,,,,,,,,,,,,,,,,,,,,,,,,,,,,,,,,,,,,,,,,,,,,,
,,5f25d8172b91b02b72277187,2024-02-19_03h39.06.639,kallum_motion_pilot,2023.2.2,Win32,75.75757576,5f25d8172b91b02b72277187,65d2b6c8f2eece985d8e374c,65d2b9e7341d070378ca4f1d,0.0443,0.0445,1,94,256,130,1,sixfive,,,,,,,,,,,,,,,,,,,,,,,,,,,,,,,,,,,,,,,,,,,,,,,,,,,,,,,,,,,,,,,,,,,,,,,,,,,,,,,,,,,,,,,,,,,,,,,,,,,,,,,,,,,,,,,,,,,,,,,,,,,,,,,,,,,,,,,,,
,,5f25d8172b91b02b72277187,2024-02-19_03h39.06.639,kallum_motion_pilot,2023.2.2,Win32,75.75757576,5f25d8172b91b02b72277187,65d2b6c8f2eece985d8e374c,65d2b9e7341d070378ca4f1d,0.0445,0.0446,1,95,257,51,1,twofour,,,,,,,,,,,,,,,,,,,,,,,,,,,,,,,,,,,,,,,,,,,,,,,,,,,,,,,,,,,,,,,,,,,,,,,,,,,,,,,,,,,,,,,,,,,,,,,,,,,,,,,,,,,,,,,,,,,,,,,,,,,,,,,,,,,,,,,,,
,,5f25d8172b91b02b72277187,2024-02-19_03h39.06.639,kallum_motion_pilot,2023.2.2,Win32,75.75757576,5f25d8172b91b02b72277187,65d2b6c8f2eece985d8e374c,65d2b9e7341d070378ca4f1d,0.0447,0.0447,1,96,258,141,1,seveneight,,,,,,,,,,,,,,,,,,,,,,,,,,,,,,,,,,,,,,,,,,,,,,,,,,,,,,,,,,,,,,,,,,,,,,,,,,,,,,,,,,,,,,,,,,,,,,,,,,,,,,,,,,,,,,,,,,,,,,,,,,,,,,,,,,,,,,,,,
,,5f25d8172b91b02b72277187,2024-02-19_03h39.06.639,kallum_motion_pilot,2023.2.2,Win32,75.75757576,5f25d8172b91b02b72277187,65d2b6c8f2eece985d8e374c,65d2b9e7341d070378ca4f1d,0.0448,0.0449,1,97,259,59,1,twofour,,,,,,,,,,,,,,,,,,,,,,,,,,,,,,,,,,,,,,,,,,,,,,,,,,,,,,,,,,,,,,,,,,,,,,,,,,,,,,,,,,,,,,,,,,,,,,,,,,,,,,,,,,,,,,,,,,,,,,,,,,,,,,,,,,,,,,,,,
,,5f25d8172b91b02b72277187,2024-02-19_03h39.06.639,kallum_motion_pilot,2023.2.2,Win32,75.75757576,5f25d8172b91b02b72277187,65d2b6c8f2eece985d8e374c,65d2b9e7341d070378ca4f1d,0.045,0.0451,1,98,260,72,1,onetwo,,,,,,,,,,,,,,,,,,,,,,,,,,,,,,,,,,,,,,,,,,,,,,,,,,,,,,,,,,,,,,,,,,,,,,,,,,,,,,,,,,,,,,,,,,,,,,,,,,,,,,,,,,,,,,,,,,,,,,,,,,,,,,,,,,,,,,,,,
,,5f25d8172b91b02b72277187,2024-02-19_03h39.06.639,kallum_motion_pilot,2023.2.2,Win32,75.75757576,5f25d8172b91b02b72277187,65d2b6c8f2eece985d8e374c,65d2b9e7341d070378ca4f1d,0.0451,0.0452,1,99,261,92,1,sevenfive,,,,,,,,,,,,,,,,,,,,,,,,,,,,,,,,,,,,,,,,,,,,,,,,,,,,,,,,,,,,,,,,,,,,,,,,,,,,,,,,,,,,,,,,,,,,,,,,,,,,,,,,,,,,,,,,,,,,,,,,,,,,,,,,,,,,,,,,,
,,5f25d8172b91b02b72277187,2024-02-19_03h39.06.639,kallum_motion_pilot,2023.2.2,Win32,75.75757576,5f25d8172b91b02b72277187,65d2b6c8f2eece985d8e374c,65d2b9e7341d070378ca4f1d,0.0452,0.0453,1,100,262,83,1,sixeight,,,,,,,,,,,,,,,,,,,,,,,,,,,,,,,,,,,,,,,,,,,,,,,,,,,,,,,,,,,,,,,,,,,,,,,,,,,,,,,,,,,,,,,,,,,,,,,,,,,,,,,,,,,,,,,,,,,,,,,,,,,,,,,,,,,,,,,,,
,,5f25d8172b91b02b72277187,2024-02-19_03h39.06.639,kallum_motion_pilot,2023.2.2,Win32,75.75757576,5f25d8172b91b02b72277187,65d2b6c8f2eece985d8e374c,65d2b9e7341d070378ca4f1d,0.0454,0.0455,1,101,263,57,1,onethree,,,,,,,,,,,,,,,,,,,,,,,,,,,,,,,,,,,,,,,,,,,,,,,,,,,,,,,,,,,,,,,,,,,,,,,,,,,,,,,,,,,,,,,,,,,,,,,,,,,,,,,,,,,,,,,,,,,,,,,,,,,,,,,,,,,,,,,,,
,,5f25d8172b91b02b72277187,2024-02-19_03h39.06.639,kallum_motion_pilot,2023.2.2,Win32,75.75757576,5f25d8172b91b02b72277187,65d2b6c8f2eece985d8e374c,65d2b9e7341d070378ca4f1d,0.0455,0.0456,1,102,264,75,1,twofour,,,,,,,,,,,,,,,,,,,,,,,,,,,,,,,,,,,,,,,,,,,,,,,,,,,,,,,,,,,,,,,,,,,,,,,,,,,,,,,,,,,,,,,,,,,,,,,,,,,,,,,,,,,,,,,,,,,,,,,,,,,,,,,,,,,,,,,,,
,,5f25d8172b91b02b72277187,2024-02-19_03h39.06.639,kallum_motion_pilot,2023.2.2,Win32,75.75757576,5f25d8172b91b02b72277187,65d2b6c8f2eece985d8e374c,65d2b9e7341d070378ca4f1d,0.0456,0.0457,1,103,265,85,1,seveneight,,,,,,,,,,,,,,,,,,,,,,,,,,,,,,,,,,,,,,,,,,,,,,,,,,,,,,,,,,,,,,,,,,,,,,,,,,,,,,,,,,,,,,,,,,,,,,,,,,,,,,,,,,,,,,,,,,,,,,,,,,,,,,,,,,,,,,,,,
,,5f25d8172b91b02b72277187,2024-02-19_03h39.06.639,kallum_motion_pilot,2023.2.2,Win32,75.75757576,5f25d8172b91b02b72277187,65d2b6c8f2eece985d8e374c,65d2b9e7341d070378ca4f1d,0.0457,0.0458,1,104,266,87,1,eightseven,,,,,,,,,,,,,,,,,,,,,,,,,,,,,,,,,,,,,,,,,,,,,,,,,,,,,,,,,,,,,,,,,,,,,,,,,,,,,,,,,,,,,,,,,,,,,,,,,,,,,,,,,,,,,,,,,,,,,,,,,,,,,,,,,,,,,,,,,
,,5f25d8172b91b02b72277187,2024-02-19_03h39.06.639,kallum_motion_pilot,2023.2.2,Win32,75.75757576,5f25d8172b91b02b72277187,65d2b6c8f2eece985d8e374c,65d2b9e7341d070378ca4f1d,0.0459,0.0459,1,105,267,48,1,onetwo,,,,,,,,,,,,,,,,,,,,,,,,,,,,,,,,,,,,,,,,,,,,,,,,,,,,,,,,,,,,,,,,,,,,,,,,,,,,,,,,,,,,,,,,,,,,,,,,,,,,,,,,,,,,,,,,,,,,,,,,,,,,,,,,,,,,,,,,,
,,5f25d8172b91b02b72277187,2024-02-19_03h39.06.639,kallum_motion_pilot,2023.2.2,Win32,75.75757576,5f25d8172b91b02b72277187,65d2b6c8f2eece985d8e374c,65d2b9e7341d070378ca4f1d,0.046,0.0461,1,106,268,89,1,fiveseven,,,,,,,,,,,,,,,,,,,,,,,,,,,,,,,,,,,,,,,,,,,,,,,,,,,,,,,,,,,,,,,,,,,,,,,,,,,,,,,,,,,,,,,,,,,,,,,,,,,,,,,,,,,,,,,,,,,,,,,,,,,,,,,,,,,,,,,,,
,,5f25d8172b91b02b72277187,2024-02-19_03h39.06.639,kallum_motion_pilot,2023.2.2,Win32,75.75757576,5f25d8172b91b02b72277187,65d2b6c8f2eece985d8e374c,65d2b9e7341d070378ca4f1d,0.0461,0.0462,1,107,269,125,1,seveneight,,,,,,,,,,,,,,,,,,,,,,,,,,,,,,,,,,,,,,,,,,,,,,,,,,,,,,,,,,,,,,,,,,,,,,,,,,,,,,,,,,,,,,,,,,,,,,,,,,,,,,,,,,,,,,,,,,,,,,,,,,,,,,,,,,,,,,,,,
,,5f25d8172b91b02b72277187,2024-02-19_03h39.06.639,kallum_motion_pilot,2023.2.2,Win32,75.75757576,5f25d8172b91b02b72277187,65d2b6c8f2eece985d8e374c,65d2b9e7341d070378ca4f1d,0.0463,0.0464,1,108,270,31,1,fourthree,,,,,,,,,,,,,,,,,,,,,,,,,,,,,,,,,,,,,,,,,,,,,,,,,,,,,,,,,,,,,,,,,,,,,,,,,,,,,,,,,,,,,,,,,,,,,,,,,,,,,,,,,,,,,,,,,,,,,,,,,,,,,,,,,,,,,,,,,
,,5f25d8172b91b02b72277187,2024-02-19_03h39.06.639,kallum_motion_pilot,2023.2.2,Win32,75.75757576,5f25d8172b91b02b72277187,65d2b6c8f2eece985d8e374c,65d2b9e7341d070378ca4f1d,0.0464,0.0465,1,109,271,127,1,eightseven,,,,,,,,,,,,,,,,,,,,,,,,,,,,,,,,,,,,,,,,,,,,,,,,,,,,,,,,,,,,,,,,,,,,,,,,,,,,,,,,,,,,,,,,,,,,,,,,,,,,,,,,,,,,,,,,,,,,,,,,,,,,,,,,,,,,,,,,,
,,5f25d8172b91b02b72277187,2024-02-19_03h39.06.639,kallum_motion_pilot,2023.2.2,Win32,75.75757576,5f25d8172b91b02b72277187,65d2b6c8f2eece985d8e374c,65d2b9e7341d070378ca4f1d,0.0466,0.0466,1,110,272,137,1,fiveseven,,,,,,,,,,,,,,,,,,,,,,,,,,,,,,,,,,,,,,,,,,,,,,,,,,,,,,,,,,,,,,,,,,,,,,,,,,,,,,,,,,,,,,,,,,,,,,,,,,,,,,,,,,,,,,,,,,,,,,,,,,,,,,,,,,,,,,,,,
,,5f25d8172b91b02b72277187,2024-02-19_03h39.06.639,kallum_motion_pilot,2023.2.2,Win32,75.75757576,5f25d8172b91b02b72277187,65d2b6c8f2eece985d8e374c,65d2b9e7341d070378ca4f1d,0.0466,0.0468,1,111,273,112,1,fivesix,,,,,,,,,,,,,,,,,,,,,,,,,,,,,,,,,,,,,,,,,,,,,,,,,,,,,,,,,,,,,,,,,,,,,,,,,,,,,,,,,,,,,,,,,,,,,,,,,,,,,,,,,,,,,,,,,,,,,,,,,,,,,,,,,,,,,,,,,
,,5f25d8172b91b02b72277187,2024-02-19_03h39.06.639,kallum_motion_pilot,2023.2.2,Win32,75.75757576,5f25d8172b91b02b72277187,65d2b6c8f2eece985d8e374c,65d2b9e7341d070378ca4f1d,0.0468,0.0468,1,112,274,64,1,onetwo,,,,,,,,,,,,,,,,,,,,,,,,,,,,,,,,,,,,,,,,,,,,,,,,,,,,,,,,,,,,,,,,,,,,,,,,,,,,,,,,,,,,,,,,,,,,,,,,,,,,,,,,,,,,,,,,,,,,,,,,,,,,,,,,,,,,,,,,,
,,5f25d8172b91b02b72277187,2024-02-19_03h39.06.639,kallum_motion_pilot,2023.2.2,Win32,75.75757576,5f25d8172b91b02b72277187,65d2b6c8f2eece985d8e374c,65d2b9e7341d070378ca4f1d,0.0469,0.047,1,113,275,107,1,sixeight,,,,,,,,,,,,,,,,,,,,,,,,,,,,,,,,,,,,,,,,,,,,,,,,,,,,,,,,,,,,,,,,,,,,,,,,,,,,,,,,,,,,,,,,,,,,,,,,,,,,,,,,,,,,,,,,,,,,,,,,,,,,,,,,,,,,,,,,,
,,5f25d8172b91b02b72277187,2024-02-19_03h39.06.639,kallum_motion_pilot,2023.2.2,Win32,75.75757576,5f25d8172b91b02b72277187,65d2b6c8f2eece985d8e374c,65d2b9e7341d070378ca4f1d,0.047,0.0471,1,114,276,105,1,fiveseven,,,,,,,,,,,,,,,,,,,,,,,,,,,,,,,,,,,,,,,,,,,,,,,,,,,,,,,,,,,,,,,,,,,,,,,,,,,,,,,,,,,,,,,,,,,,,,,,,,,,,,,,,,,,,,,,,,,,,,,,,,,,,,,,,,,,,,,,,
,,5f25d8172b91b02b72277187,2024-02-19_03h39.06.639,kallum_motion_pilot,2023.2.2,Win32,75.75757576,5f25d8172b91b02b72277187,65d2b6c8f2eece985d8e374c,65d2b9e7341d070378ca4f1d,0.0473,0.0473,1,115,277,159,1,eightseven,,,,,,,,,,,,,,,,,,,,,,,,,,,,,,,,,,,,,,,,,,,,,,,,,,,,,,,,,,,,,,,,,,,,,,,,,,,,,,,,,,,,,,,,,,,,,,,,,,,,,,,,,,,,,,,,,,,,,,,,,,,,,,,,,,,,,,,,,
