startup.started,startup.stopped,Prolific ID*,date,expName,psychopyVersion,OS,frameRate,participant,study_id,session,stimpositions.started,stimpositions.stopped,hardcoded_stimulus_positions.thisRepN,hardcoded_stimulus_positions.thisTrialN,hardcoded_stimulus_positions.thisN,hardcoded_stimulus_positions.thisIndex,hardcoded_stimulus_positions.ran,StimulusPos,stimorientation.started,stimorientation.stopped,prac_stimorientation_import_loop.thisRepN,prac_stimorientation_import_loop.thisTrialN,prac_stimorientation_import_loop.thisN,prac_stimorientation_import_loop.thisIndex,prac_stimorientation_import_loop.ran,Stimorientation,welcome_instr.started,welcome_instr.stopped,key_resp.keys,key_resp.rt,key_resp.duration,response_steppedout_1.started,response_steppedout_1.stopped,key_resp_20.keys,key_resp_20.rt,key_resp_20.duration,response_steppedout_2.started,response_steppedout_2.stopped,key_resp_19.keys,key_resp_19.rt,key_resp_19.duration,stim_response_instr.started,stim_response_instr.stopped,key_resp_15.keys,key_resp_15.rt,key_resp_15.duration,direction_instr_2.started,direction_instr_2.stopped,key_resp_9.keys,key_resp_9.rt,key_resp_9.duration,instr_prac.started,instr_prac.stopped,key_resp_10.keys,key_resp_10.rt,key_resp_10.duration,Stim1_display_prac.started,Stim1_display_prac.stopped,Ecc,Circle1_ori,Circle2_ori,response_prac.started,similarity,response_time,response_prac.stopped,mouse_5.x,mouse_5.y,mouse_5.leftButton,mouse_5.midButton,mouse_5.rightButton,mouse_5.clicked_name,responseprac_feedback.started,responseprac_feedback.stopped,summary2_prac.started,summary2_prac.stopped,mouse_6.x,mouse_6.y,mouse_6.leftButton,mouse_6.midButton,mouse_6.rightButton,mouse_6.clicked_name,duringprac.thisRepN,duringprac.thisTrialN,duringprac.thisN,duringprac.thisIndex,duringprac.ran,begin.started,begin.stopped,key_resp_22.keys,key_resp_22.rt,key_resp_22.duration,Stim1_display.started,Stim1_display.stopped,circle1_ori,circle2_ori,circle1_SF,circle2_SF,response.started,response.stopped,mouse.x,mouse.y,mouse.leftButton,mouse.midButton,mouse.rightButton,mouse.clicked_name,trialnumber,double_pass.thisRepN,double_pass.thisTrialN,double_pass.thisN,double_pass.thisIndex,double_pass.ran,double_pass.order,main_trial.thisRepN,main_trial.thisTrialN,main_trial.thisN,main_trial.thisIndex,main_trial.ran,main_trial.order,Trial_Counter,Catch,Frequencies,response_2.started,response_2.stopped,mouse_2.x,mouse_2.y,mouse_2.leftButton,mouse_2.midButton,mouse_2.rightButton,mouse_2.clicked_name,special_trial.started,special_trial.stopped,catch_1.started,catch_1.stopped,mouse_3.x,mouse_3.y,mouse_3.leftButton,mouse_3.midButton,mouse_3.rightButton,catchresponse,catchnumber,response_time_catch,response_sum.started,response_sum.stopped,mouse_11.x,mouse_11.y,mouse_11.leftButton,mouse_11.midButton,mouse_11.rightButton,flip_presentation_sequence_for_double_pass.started,flip_presentation_sequence_for_double_pass.stopped,goodbye.started,goodbye.stopped,key_resp_3.keys,key_resp_3.rt,key_resp_3.duration
0.0003,0.0005,5f285902166da3151b01faf2,2024-02-22_03h25.46.473,kallum_motion_pilot,2023.2.2,MacIntel,59.88023952,5f285902166da3151b01faf2,65d6bb0e977760de756971f7,65d6bea9c7c0f830c49a8d8e,,,,,,,,,,,,,,,,,,,,,,,,,,,,,,,,,,,,,,,,,,,,,,,,,,,,,,,,,,,,,,,,,,,,,,,,,,,,,,,,,,,,,,,,,,,,,,,,,,,,,,,,,,,,,,,,,,,,,,,,,,,,,,,,,,,,,,,,,,,,,,,,,
,,5f285902166da3151b01faf2,2024-02-22_03h25.46.473,kallum_motion_pilot,2023.2.2,MacIntel,59.88023952,5f285902166da3151b01faf2,65d6bb0e977760de756971f7,65d6bea9c7c0f830c49a8d8e,0.0296,0.0299,0,0,0,38,1,fourtwo,,,,,,,,,,,,,,,,,,,,,,,,,,,,,,,,,,,,,,,,,,,,,,,,,,,,,,,,,,,,,,,,,,,,,,,,,,,,,,,,,,,,,,,,,,,,,,,,,,,,,,,,,,,,,,,,,,,,,,,,,,,,,,,,,,,,,,,,,
,,5f285902166da3151b01faf2,2024-02-22_03h25.46.473,kallum_motion_pilot,2023.2.2,MacIntel,59.88023952,5f285902166da3151b01faf2,65d6bb0e977760de756971f7,65d6bea9c7c0f830c49a8d8e,0.0304,0.0304,0,1,1,27,1,twofour,,,,,,,,,,,,,,,,,,,,,,,,,,,,,,,,,,,,,,,,,,,,,,,,,,,,,,,,,,,,,,,,,,,,,,,,,,,,,,,,,,,,,,,,,,,,,,,,,,,,,,,,,,,,,,,,,,,,,,,,,,,,,,,,,,,,,,,,,
,,5f285902166da3151b01faf2,2024-02-22_03h25.46.473,kallum_motion_pilot,2023.2.2,MacIntel,59.88023952,5f285902166da3151b01faf2,65d6bb0e977760de756971f7,65d6bea9c7c0f830c49a8d8e,0.0306,0.0307,0,2,2,29,1,threefour,,,,,,,,,,,,,,,,,,,,,,,,,,,,,,,,,,,,,,,,,,,,,,,,,,,,,,,,,,,,,,,,,,,,,,,,,,,,,,,,,,,,,,,,,,,,,,,,,,,,,,,,,,,,,,,,,,,,,,,,,,,,,,,,,,,,,,,,,
,,5f285902166da3151b01faf2,2024-02-22_03h25.46.473,kallum_motion_pilot,2023.2.2,MacIntel,59.88023952,5f285902166da3151b01faf2,65d6bb0e977760de756971f7,65d6bea9c7c0f830c49a8d8e,0.0308,0.0309,0,3,3,118,1,eightsix,,,,,,,,,,,,,,,,,,,,,,,,,,,,,,,,,,,,,,,,,,,,,,,,,,,,,,,,,,,,,,,,,,,,,,,,,,,,,,,,,,,,,,,,,,,,,,,,,,,,,,,,,,,,,,,,,,,,,,,,,,,,,,,,,,,,,,,,,
,,5f285902166da3151b01faf2,2024-02-22_03h25.46.473,kallum_motion_pilot,2023.2.2,MacIntel,59.88023952,5f285902166da3151b01faf2,65d6bb0e977760de756971f7,65d6bea9c7c0f830c49a8d8e,0.0309,0.031,0,4,4,18,1,twoone,,,,,,,,,,,,,,,,,,,,,,,,,,,,,,,,,,,,,,,,,,,,,,,,,,,,,,,,,,,,,,,,,,,,,,,,,,,,,,,,,,,,,,,,,,,,,,,,,,,,,,,,,,,,,,,,,,,,,,,,,,,,,,,,,,,,,,,,,
,,5f285902166da3151b01faf2,2024-02-22_03h25.46.473,kallum_motion_pilot,2023.2.2,MacIntel,59.88023952,5f285902166da3151b01faf2,65d6bb0e977760de756971f7,65d6bea9c7c0f830c49a8d8e,0.0311,0.0311,0,5,5,73,1,onethree,,,,,,,,,,,,,,,,,,,,,,,,,,,,,,,,,,,,,,,,,,,,,,,,,,,,,,,,,,,,,,,,,,,,,,,,,,,,,,,,,,,,,,,,,,,,,,,,,,,,,,,,,,,,,,,,,,,,,,,,,,,,,,,,,,,,,,,,,
,,5f285902166da3151b01faf2,2024-02-22_03h25.46.473,kallum_motion_pilot,2023.2.2,MacIntel,59.88023952,5f285902166da3151b01faf2,65d6bb0e977760de756971f7,65d6bea9c7c0f830c49a8d8e,0.0312,0.0313,0,6,6,127,1,eightseven,,,,,,,,,,,,,,,,,,,,,,,,,,,,,,,,,,,,,,,,,,,,,,,,,,,,,,,,,,,,,,,,,,,,,,,,,,,,,,,,,,,,,,,,,,,,,,,,,,,,,,,,,,,,,,,,,,,,,,,,,,,,,,,,,,,,,,,,,
,,5f285902166da3151b01faf2,2024-02-22_03h25.46.473,kallum_motion_pilot,2023.2.2,MacIntel,59.88023952,5f285902166da3151b01faf2,65d6bb0e977760de756971f7,65d6bea9c7c0f830c49a8d8e,0.0314,0.0314,0,7,7,40,1,onetwo,,,,,,,,,,,,,,,,,,,,,,,,,,,,,,,,,,,,,,,,,,,,,,,,,,,,,,,,,,,,,,,,,,,,,,,,,,,,,,,,,,,,,,,,,,,,,,,,,,,,,,,,,,,,,,,,,,,,,,,,,,,,,,,,,,,,,,,,,
,,5f285902166da3151b01faf2,2024-02-22_03h25.46.473,kallum_motion_pilot,2023.2.2,MacIntel,59.88023952,5f285902166da3151b01faf2,65d6bb0e977760de756971f7,65d6bea9c7c0f830c49a8d8e,0.0316,0.0317,0,8,8,138,1,sixfive,,,,,,,,,,,,,,,,,,,,,,,,,,,,,,,,,,,,,,,,,,,,,,,,,,,,,,,,,,,,,,,,,,,,,,,,,,,,,,,,,,,,,,,,,,,,,,,,,,,,,,,,,,,,,,,,,,,,,,,,,,,,,,,,,,,,,,,,,
,,5f285902166da3151b01faf2,2024-02-22_03h25.46.473,kallum_motion_pilot,2023.2.2,MacIntel,59.88023952,5f285902166da3151b01faf2,65d6bb0e977760de756971f7,65d6bea9c7c0f830c49a8d8e,0.0317,0.0318,0,9,9,139,1,sixeight,,,,,,,,,,,,,,,,,,,,,,,,,,,,,,,,,,,,,,,,,,,,,,,,,,,,,,,,,,,,,,,,,,,,,,,,,,,,,,,,,,,,,,,,,,,,,,,,,,,,,,,,,,,,,,,,,,,,,,,,,,,,,,,,,,,,,,,,,
,,5f285902166da3151b01faf2,2024-02-22_03h25.46.473,kallum_motion_pilot,2023.2.2,MacIntel,59.88023952,5f285902166da3151b01faf2,65d6bb0e977760de756971f7,65d6bea9c7c0f830c49a8d8e,0.0319,0.0319,0,10,10,83,1,sixeight,,,,,,,,,,,,,,,,,,,,,,,,,,,,,,,,,,,,,,,,,,,,,,,,,,,,,,,,,,,,,,,,,,,,,,,,,,,,,,,,,,,,,,,,,,,,,,,,,,,,,,,,,,,,,,,,,,,,,,,,,,,,,,,,,,,,,,,,,
,,5f285902166da3151b01faf2,2024-02-22_03h25.46.473,kallum_motion_pilot,2023.2.2,MacIntel,59.88023952,5f285902166da3151b01faf2,65d6bb0e977760de756971f7,65d6bea9c7c0f830c49a8d8e,0.0321,0.0321,0,11,11,54,1,fourtwo,,,,,,,,,,,,,,,,,,,,,,,,,,,,,,,,,,,,,,,,,,,,,,,,,,,,,,,,,,,,,,,,,,,,,,,,,,,,,,,,,,,,,,,,,,,,,,,,,,,,,,,,,,,,,,,,,,,,,,,,,,,,,,,,,,,,,,,,,
,,5f285902166da3151b01faf2,2024-02-22_03h25.46.473,kallum_motion_pilot,2023.2.2,MacIntel,59.88023952,5f285902166da3151b01faf2,65d6bb0e977760de756971f7,65d6bea9c7c0f830c49a8d8e,0.0322,0.0322,0,12,12,79,1,eightseven,,,,,,,,,,,,,,,,,,,,,,,,,,,,,,,,,,,,,,,,,,,,,,,,,,,,,,,,,,,,,,,,,,,,,,,,,,,,,,,,,,,,,,,,,,,,,,,,,,,,,,,,,,,,,,,,,,,,,,,,,,,,,,,,,,,,,,,,,
,,5f285902166da3151b01faf2,2024-02-22_03h25.46.473,kallum_motion_pilot,2023.2.2,MacIntel,59.88023952,5f285902166da3151b01faf2,65d6bb0e977760de756971f7,65d6bea9c7c0f830c49a8d8e,0.0323,0.0324,0,13,13,74,1,twoone,,,,,,,,,,,,,,,,,,,,,,,,,,,,,,,,,,,,,,,,,,,,,,,,,,,,,,,,,,,,,,,,,,,,,,,,,,,,,,,,,,,,,,,,,,,,,,,,,,,,,,,,,,,,,,,,,,,,,,,,,,,,,,,,,,,,,,,,,
,,5f285902166da3151b01faf2,2024-02-22_03h25.46.473,kallum_motion_pilot,2023.2.2,MacIntel,59.88023952,5f285902166da3151b01faf2,65d6bb0e977760de756971f7,65d6bea9c7c0f830c49a8d8e,0.0324,0.0324,0,14,14,5,1,threefour,,,,,,,,,,,,,,,,,,,,,,,,,,,,,,,,,,,,,,,,,,,,,,,,,,,,,,,,,,,,,,,,,,,,,,,,,,,,,,,,,,,,,,,,,,,,,,,,,,,,,,,,,,,,,,,,,,,,,,,,,,,,,,,,,,,,,,,,,
,,5f285902166da3151b01faf2,2024-02-22_03h25.46.473,kallum_motion_pilot,2023.2.2,MacIntel,59.88023952,5f285902166da3151b01faf2,65d6bb0e977760de756971f7,65d6bea9c7c0f830c49a8d8e,0.0325,0.0325,0,15,15,23,1,fourthree,,,,,,,,,,,,,,,,,,,,,,,,,,,,,,,,,,,,,,,,,,,,,,,,,,,,,,,,,,,,,,,,,,,,,,,,,,,,,,,,,,,,,,,,,,,,,,,,,,,,,,,,,,,,,,,,,,,,,,,,,,,,,,,,,,,,,,,,,
,,5f285902166da3151b01faf2,2024-02-22_03h25.46.473,kallum_motion_pilot,2023.2.2,MacIntel,59.88023952,5f285902166da3151b01faf2,65d6bb0e977760de756971f7,65d6bea9c7c0f830c49a8d8e,0.0326,0.0326,0,16,16,46,1,fourtwo,,,,,,,,,,,,,,,,,,,,,,,,,,,,,,,,,,,,,,,,,,,,,,,,,,,,,,,,,,,,,,,,,,,,,,,,,,,,,,,,,,,,,,,,,,,,,,,,,,,,,,,,,,,,,,,,,,,,,,,,,,,,,,,,,,,,,,,,,
,,5f285902166da3151b01faf2,2024-02-22_03h25.46.473,kallum_motion_pilot,2023.2.2,MacIntel,59.88023952,5f285902166da3151b01faf2,65d6bb0e977760de756971f7,65d6bea9c7c0f830c49a8d8e,0.0327,0.0327,0,17,17,152,1,fivesix,,,,,,,,,,,,,,,,,,,,,,,,,,,,,,,,,,,,,,,,,,,,,,,,,,,,,,,,,,,,,,,,,,,,,,,,,,,,,,,,,,,,,,,,,,,,,,,,,,,,,,,,,,,,,,,,,,,,,,,,,,,,,,,,,,,,,,,,,
,,5f285902166da3151b01faf2,2024-02-22_03h25.46.473,kallum_motion_pilot,2023.2.2,MacIntel,59.88023952,5f285902166da3151b01faf2,65d6bb0e977760de756971f7,65d6bea9c7c0f830c49a8d8e,0.0328,0.0328,0,18,18,48,1,onetwo,,,,,,,,,,,,,,,,,,,,,,,,,,,,,,,,,,,,,,,,,,,,,,,,,,,,,,,,,,,,,,,,,,,,,,,,,,,,,,,,,,,,,,,,,,,,,,,,,,,,,,,,,,,,,,,,,,,,,,,,,,,,,,,,,,,,,,,,,
,,5f285902166da3151b01faf2,2024-02-22_03h25.46.473,kallum_motion_pilot,2023.2.2,MacIntel,59.88023952,5f285902166da3151b01faf2,65d6bb0e977760de756971f7,65d6bea9c7c0f830c49a8d8e,0.0329,0.033,0,19,19,11,1,twofour,,,,,,,,,,,,,,,,,,,,,,,,,,,,,,,,,,,,,,,,,,,,,,,,,,,,,,,,,,,,,,,,,,,,,,,,,,,,,,,,,,,,,,,,,,,,,,,,,,,,,,,,,,,,,,,,,,,,,,,,,,,,,,,,,,,,,,,,,
,,5f285902166da3151b01faf2,2024-02-22_03h25.46.473,kallum_motion_pilot,2023.2.2,MacIntel,59.88023952,5f285902166da3151b01faf2,65d6bb0e977760de756971f7,65d6bea9c7c0f830c49a8d8e,0.033,0.033,0,20,20,68,1,threeone,,,,,,,,,,,,,,,,,,,,,,,,,,,,,,,,,,,,,,,,,,,,,,,,,,,,,,,,,,,,,,,,,,,,,,,,,,,,,,,,,,,,,,,,,,,,,,,,,,,,,,,,,,,,,,,,,,,,,,,,,,,,,,,,,,,,,,,,,
,,5f285902166da3151b01faf2,2024-02-22_03h25.46.473,kallum_motion_pilot,2023.2.2,MacIntel,59.88023952,5f285902166da3151b01faf2,65d6bb0e977760de756971f7,65d6bea9c7c0f830c49a8d8e,0.0331,0.0332,0,21,21,109,1,seveneight,,,,,,,,,,,,,,,,,,,,,,,,,,,,,,,,,,,,,,,,,,,,,,,,,,,,,,,,,,,,,,,,,,,,,,,,,,,,,,,,,,,,,,,,,,,,,,,,,,,,,,,,,,,,,,,,,,,,,,,,,,,,,,,,,,,,,,,,,
,,5f285902166da3151b01faf2,2024-02-22_03h25.46.473,kallum_motion_pilot,2023.2.2,MacIntel,59.88023952,5f285902166da3151b01faf2,65d6bb0e977760de756971f7,65d6bea9c7c0f830c49a8d8e,0.0332,0.0333,0,22,22,63,1,fourthree,,,,,,,,,,,,,,,,,,,,,,,,,,,,,,,,,,,,,,,,,,,,,,,,,,,,,,,,,,,,,,,,,,,,,,,,,,,,,,,,,,,,,,,,,,,,,,,,,,,,,,,,,,,,,,,,,,,,,,,,,,,,,,,,,,,,,,,,,
,,5f285902166da3151b01faf2,2024-02-22_03h25.46.473,kallum_motion_pilot,2023.2.2,MacIntel,59.88023952,5f285902166da3151b01faf2,65d6bb0e977760de756971f7,65d6bea9c7c0f830c49a8d8e,0.0334,0.0334,0,23,23,26,1,twoone,,,,,,,,,,,,,,,,,,,,,,,,,,,,,,,,,,,,,,,,,,,,,,,,,,,,,,,,,,,,,,,,,,,,,,,,,,,,,,,,,,,,,,,,,,,,,,,,,,,,,,,,,,,,,,,,,,,,,,,,,,,,,,,,,,,,,,,,,
,,5f285902166da3151b01faf2,2024-02-22_03h25.46.473,kallum_motion_pilot,2023.2.2,MacIntel,59.88023952,5f285902166da3151b01faf2,65d6bb0e977760de756971f7,65d6bea9c7c0f830c49a8d8e,0.0335,0.0336,0,24,24,124,1,sevenfive,,,,,,,,,,,,,,,,,,,,,,,,,,,,,,,,,,,,,,,,,,,,,,,,,,,,,,,,,,,,,,,,,,,,,,,,,,,,,,,,,,,,,,,,,,,,,,,,,,,,,,,,,,,,,,,,,,,,,,,,,,,,,,,,,,,,,,,,,
,,5f285902166da3151b01faf2,2024-02-22_03h25.46.473,kallum_motion_pilot,2023.2.2,MacIntel,59.88023952,5f285902166da3151b01faf2,65d6bb0e977760de756971f7,65d6bea9c7c0f830c49a8d8e,0.0337,0.0337,0,25,25,110,1,eightsix,,,,,,,,,,,,,,,,,,,,,,,,,,,,,,,,,,,,,,,,,,,,,,,,,,,,,,,,,,,,,,,,,,,,,,,,,,,,,,,,,,,,,,,,,,,,,,,,,,,,,,,,,,,,,,,,,,,,,,,,,,,,,,,,,,,,,,,,,
,,5f285902166da3151b01faf2,2024-02-22_03h25.46.473,kallum_motion_pilot,2023.2.2,MacIntel,59.88023952,5f285902166da3151b01faf2,65d6bb0e977760de756971f7,65d6bea9c7c0f830c49a8d8e,0.0338,0.0338,0,26,26,76,1,threeone,,,,,,,,,,,,,,,,,,,,,,,,,,,,,,,,,,,,,,,,,,,,,,,,,,,,,,,,,,,,,,,,,,,,,,,,,,,,,,,,,,,,,,,,,,,,,,,,,,,,,,,,,,,,,,,,,,,,,,,,,,,,,,,,,,,,,,,,,
,,5f285902166da3151b01faf2,2024-02-22_03h25.46.473,kallum_motion_pilot,2023.2.2,MacIntel,59.88023952,5f285902166da3151b01faf2,65d6bb0e977760de756971f7,65d6bea9c7c0f830c49a8d8e,0.0339,0.0339,0,27,27,125,1,seveneight,,,,,,,,,,,,,,,,,,,,,,,,,,,,,,,,,,,,,,,,,,,,,,,,,,,,,,,,,,,,,,,,,,,,,,,,,,,,,,,,,,,,,,,,,,,,,,,,,,,,,,,,,,,,,,,,,,,,,,,,,,,,,,,,,,,,,,,,,
,,5f285902166da3151b01faf2,2024-02-22_03h25.46.473,kallum_motion_pilot,2023.2.2,MacIntel,59.88023952,5f285902166da3151b01faf2,65d6bb0e977760de756971f7,65d6bea9c7c0f830c49a8d8e,0.034,0.0341,0,28,28,108,1,sevenfive,,,,,,,,,,,,,,,,,,,,,,,,,,,,,,,,,,,,,,,,,,,,,,,,,,,,,,,,,,,,,,,,,,,,,,,,,,,,,,,,,,,,,,,,,,,,,,,,,,,,,,,,,,,,,,,,,,,,,,,,,,,,,,,,,,,,,,,,,
,,5f285902166da3151b01faf2,2024-02-22_03h25.46.473,kallum_motion_pilot,2023.2.2,MacIntel,59.88023952,5f285902166da3151b01faf2,65d6bb0e977760de756971f7,65d6bea9c7c0f830c49a8d8e,0.0341,0.0341,0,29,29,161,1,fiveseven,,,,,,,,,,,,,,,,,,,,,,,,,,,,,,,,,,,,,,,,,,,,,,,,,,,,,,,,,,,,,,,,,,,,,,,,,,,,,,,,,,,,,,,,,,,,,,,,,,,,,,,,,,,,,,,,,,,,,,,,,,,,,,,,,,,,,,,,,
,,5f285902166da3151b01faf2,2024-02-22_03h25.46.473,kallum_motion_pilot,2023.2.2,MacIntel,59.88023952,5f285902166da3151b01faf2,65d6bb0e977760de756971f7,65d6bea9c7c0f830c49a8d8e,0.0342,0.0343,0,30,30,62,1,fourtwo,,,,,,,,,,,,,,,,,,,,,,,,,,,,,,,,,,,,,,,,,,,,,,,,,,,,,,,,,,,,,,,,,,,,,,,,,,,,,,,,,,,,,,,,,,,,,,,,,,,,,,,,,,,,,,,,,,,,,,,,,,,,,,,,,,,,,,,,,
,,5f285902166da3151b01faf2,2024-02-22_03h25.46.473,kallum_motion_pilot,2023.2.2,MacIntel,59.88023952,5f285902166da3151b01faf2,65d6bb0e977760de756971f7,65d6bea9c7c0f830c49a8d8e,0.0344,0.0344,0,31,31,90,1,sixfive,,,,,,,,,,,,,,,,,,,,,,,,,,,,,,,,,,,,,,,,,,,,,,,,,,,,,,,,,,,,,,,,,,,,,,,,,,,,,,,,,,,,,,,,,,,,,,,,,,,,,,,,,,,,,,,,,,,,,,,,,,,,,,,,,,,,,,,,,
,,5f285902166da3151b01faf2,2024-02-22_03h25.46.473,kallum_motion_pilot,2023.2.2,MacIntel,59.88023952,5f285902166da3151b01faf2,65d6bb0e977760de756971f7,65d6bea9c7c0f830c49a8d8e,0.0344,0.0345,0,32,32,67,1,twofour,,,,,,,,,,,,,,,,,,,,,,,,,,,,,,,,,,,,,,,,,,,,,,,,,,,,,,,,,,,,,,,,,,,,,,,,,,,,,,,,,,,,,,,,,,,,,,,,,,,,,,,,,,,,,,,,,,,,,,,,,,,,,,,,,,,,,,,,,
,,5f285902166da3151b01faf2,2024-02-22_03h25.46.473,kallum_motion_pilot,2023.2.2,MacIntel,59.88023952,5f285902166da3151b01faf2,65d6bb0e977760de756971f7,65d6bea9c7c0f830c49a8d8e,0.0346,0.0346,0,33,33,130,1,sixfive,,,,,,,,,,,,,,,,,,,,,,,,,,,,,,,,,,,,,,,,,,,,,,,,,,,,,,,,,,,,,,,,,,,,,,,,,,,,,,,,,,,,,,,,,,,,,,,,,,,,,,,,,,,,,,,,,,,,,,,,,,,,,,,,,,,,,,,,,
,,5f285902166da3151b01faf2,2024-02-22_03h25.46.473,kallum_motion_pilot,2023.2.2,MacIntel,59.88023952,5f285902166da3151b01faf2,65d6bb0e977760de756971f7,65d6bea9c7c0f830c49a8d8e,0.0346,0.0347,0,34,34,141,1,seveneight,,,,,,,,,,,,,,,,,,,,,,,,,,,,,,,,,,,,,,,,,,,,,,,,,,,,,,,,,,,,,,,,,,,,,,,,,,,,,,,,,,,,,,,,,,,,,,,,,,,,,,,,,,,,,,,,,,,,,,,,,,,,,,,,,,,,,,,,,
,,5f285902166da3151b01faf2,2024-02-22_03h25.46.473,kallum_motion_pilot,2023.2.2,MacIntel,59.88023952,5f285902166da3151b01faf2,65d6bb0e977760de756971f7,65d6bea9c7c0f830c49a8d8e,0.0348,0.0348,0,35,35,147,1,sixeight,,,,,,,,,,,,,,,,,,,,,,,,,,,,,,,,,,,,,,,,,,,,,,,,,,,,,,,,,,,,,,,,,,,,,,,,,,,,,,,,,,,,,,,,,,,,,,,,,,,,,,,,,,,,,,,,,,,,,,,,,,,,,,,,,,,,,,,,,
,,5f285902166da3151b01faf2,2024-02-22_03h25.46.473,kallum_motion_pilot,2023.2.2,MacIntel,59.88023952,5f285902166da3151b01faf2,65d6bb0e977760de756971f7,65d6bea9c7c0f830c49a8d8e,0.0348,0.0349,0,36,36,20,1,threeone,,,,,,,,,,,,,,,,,,,,,,,,,,,,,,,,,,,,,,,,,,,,,,,,,,,,,,,,,,,,,,,,,,,,,,,,,,,,,,,,,,,,,,,,,,,,,,,,,,,,,,,,,,,,,,,,,,,,,,,,,,,,,,,,,,,,,,,,,
,,5f285902166da3151b01faf2,2024-02-22_03h25.46.473,kallum_motion_pilot,2023.2.2,MacIntel,59.88023952,5f285902166da3151b01faf2,65d6bb0e977760de756971f7,65d6bea9c7c0f830c49a8d8e,0.035,0.035,0,37,37,51,1,twofour,,,,,,,,,,,,,,,,,,,,,,,,,,,,,,,,,,,,,,,,,,,,,,,,,,,,,,,,,,,,,,,,,,,,,,,,,,,,,,,,,,,,,,,,,,,,,,,,,,,,,,,,,,,,,,,,,,,,,,,,,,,,,,,,,,,,,,,,,
,,5f285902166da3151b01faf2,2024-02-22_03h25.46.473,kallum_motion_pilot,2023.2.2,MacIntel,59.88023952,5f285902166da3151b01faf2,65d6bb0e977760de756971f7,65d6bea9c7c0f830c49a8d8e,0.0351,0.0351,0,38,38,107,1,sixeight,,,,,,,,,,,,,,,,,,,,,,,,,,,,,,,,,,,,,,,,,,,,,,,,,,,,,,,,,,,,,,,,,,,,,,,,,,,,,,,,,,,,,,,,,,,,,,,,,,,,,,,,,,,,,,,,,,,,,,,,,,,,,,,,,,,,,,,,,
,,5f285902166da3151b01faf2,2024-02-22_03h25.46.473,kallum_motion_pilot,2023.2.2,MacIntel,59.88023952,5f285902166da3151b01faf2,65d6bb0e977760de756971f7,65d6bea9c7c0f830c49a8d8e,0.0352,0.0353,0,39,39,22,1,fourtwo,,,,,,,,,,,,,,,,,,,,,,,,,,,,,,,,,,,,,,,,,,,,,,,,,,,,,,,,,,,,,,,,,,,,,,,,,,,,,,,,,,,,,,,,,,,,,,,,,,,,,,,,,,,,,,,,,,,,,,,,,,,,,,,,,,,,,,,,,
,,5f285902166da3151b01faf2,2024-02-22_03h25.46.473,kallum_motion_pilot,2023.2.2,MacIntel,59.88023952,5f285902166da3151b01faf2,65d6bb0e977760de756971f7,65d6bea9c7c0f830c49a8d8e,0.0354,0.0354,0,40,40,36,1,threeone,,,,,,,,,,,,,,,,,,,,,,,,,,,,,,,,,,,,,,,,,,,,,,,,,,,,,,,,,,,,,,,,,,,,,,,,,,,,,,,,,,,,,,,,,,,,,,,,,,,,,,,,,,,,,,,,,,,,,,,,,,,,,,,,,,,,,,,,,
,,5f285902166da3151b01faf2,2024-02-22_03h25.46.473,kallum_motion_pilot,2023.2.2,MacIntel,59.88023952,5f285902166da3151b01faf2,65d6bb0e977760de756971f7,65d6bea9c7c0f830c49a8d8e,0.0355,0.0355,0,41,41,77,1,threefour,,,,,,,,,,,,,,,,,,,,,,,,,,,,,,,,,,,,,,,,,,,,,,,,,,,,,,,,,,,,,,,,,,,,,,,,,,,,,,,,,,,,,,,,,,,,,,,,,,,,,,,,,,,,,,,,,,,,,,,,,,,,,,,,,,,,,,,,,
,,5f285902166da3151b01faf2,2024-02-22_03h25.46.473,kallum_motion_pilot,2023.2.2,MacIntel,59.88023952,5f285902166da3151b01faf2,65d6bb0e977760de756971f7,65d6bea9c7c0f830c49a8d8e,0.0356,0.0356,0,42,42,60,1,threeone,,,,,,,,,,,,,,,,,,,,,,,,,,,,,,,,,,,,,,,,,,,,,,,,,,,,,,,,,,,,,,,,,,,,,,,,,,,,,,,,,,,,,,,,,,,,,,,,,,,,,,,,,,,,,,,,,,,,,,,,,,,,,,,,,,,,,,,,,
,,5f285902166da3151b01faf2,2024-02-22_03h25.46.473,kallum_motion_pilot,2023.2.2,MacIntel,59.88023952,5f285902166da3151b01faf2,65d6bb0e977760de756971f7,65d6bea9c7c0f830c49a8d8e,0.0357,0.0357,0,43,43,58,1,twoone,,,,,,,,,,,,,,,,,,,,,,,,,,,,,,,,,,,,,,,,,,,,,,,,,,,,,,,,,,,,,,,,,,,,,,,,,,,,,,,,,,,,,,,,,,,,,,,,,,,,,,,,,,,,,,,,,,,,,,,,,,,,,,,,,,,,,,,,,
,,5f285902166da3151b01faf2,2024-02-22_03h25.46.473,kallum_motion_pilot,2023.2.2,MacIntel,59.88023952,5f285902166da3151b01faf2,65d6bb0e977760de756971f7,65d6bea9c7c0f830c49a8d8e,0.0358,0.0358,0,44,44,7,1,fourthree,,,,,,,,,,,,,,,,,,,,,,,,,,,,,,,,,,,,,,,,,,,,,,,,,,,,,,,,,,,,,,,,,,,,,,,,,,,,,,,,,,,,,,,,,,,,,,,,,,,,,,,,,,,,,,,,,,,,,,,,,,,,,,,,,,,,,,,,,
,,5f285902166da3151b01faf2,2024-02-22_03h25.46.473,kallum_motion_pilot,2023.2.2,MacIntel,59.88023952,5f285902166da3151b01faf2,65d6bb0e977760de756971f7,65d6bea9c7c0f830c49a8d8e,0.0359,0.0359,0,45,45,24,1,onetwo,,,,,,,,,,,,,,,,,,,,,,,,,,,,,,,,,,,,,,,,,,,,,,,,,,,,,,,,,,,,,,,,,,,,,,,,,,,,,,,,,,,,,,,,,,,,,,,,,,,,,,,,,,,,,,,,,,,,,,,,,,,,,,,,,,,,,,,,,
,,5f285902166da3151b01faf2,2024-02-22_03h25.46.473,kallum_motion_pilot,2023.2.2,MacIntel,59.88023952,5f285902166da3151b01faf2,65d6bb0e977760de756971f7,65d6bea9c7c0f830c49a8d8e,0.036,0.0361,0,46,46,146,1,sixfive,,,,,,,,,,,,,,,,,,,,,,,,,,,,,,,,,,,,,,,,,,,,,,,,,,,,,,,,,,,,,,,,,,,,,,,,,,,,,,,,,,,,,,,,,,,,,,,,,,,,,,,,,,,,,,,,,,,,,,,,,,,,,,,,,,,,,,,,,
,,5f285902166da3151b01faf2,2024-02-22_03h25.46.473,kallum_motion_pilot,2023.2.2,MacIntel,59.88023952,5f285902166da3151b01faf2,65d6bb0e977760de756971f7,65d6bea9c7c0f830c49a8d8e,0.0361,0.0361,0,47,47,117,1,seveneight,,,,,,,,,,,,,,,,,,,,,,,,,,,,,,,,,,,,,,,,,,,,,,,,,,,,,,,,,,,,,,,,,,,,,,,,,,,,,,,,,,,,,,,,,,,,,,,,,,,,,,,,,,,,,,,,,,,,,,,,,,,,,,,,,,,,,,,,,
,,5f285902166da3151b01faf2,2024-02-22_03h25.46.473,kallum_motion_pilot,2023.2.2,MacIntel,59.88023952,5f285902166da3151b01faf2,65d6bb0e977760de756971f7,65d6bea9c7c0f830c49a8d8e,0.0363,0.0363,0,48,48,19,1,twofour,,,,,,,,,,,,,,,,,,,,,,,,,,,,,,,,,,,,,,,,,,,,,,,,,,,,,,,,,,,,,,,,,,,,,,,,,,,,,,,,,,,,,,,,,,,,,,,,,,,,,,,,,,,,,,,,,,,,,,,,,,,,,,,,,,,,,,,,,
,,5f285902166da3151b01faf2,2024-02-22_03h25.46.473,kallum_motion_pilot,2023.2.2,MacIntel,59.88023952,5f285902166da3151b01faf2,65d6bb0e977760de756971f7,65d6bea9c7c0f830c49a8d8e,0.0364,0.0365,0,49,49,128,1,fivesix,,,,,,,,,,,,,,,,,,,,,,,,,,,,,,,,,,,,,,,,,,,,,,,,,,,,,,,,,,,,,,,,,,,,,,,,,,,,,,,,,,,,,,,,,,,,,,,,,,,,,,,,,,,,,,,,,,,,,,,,,,,,,,,,,,,,,,,,,
,,5f285902166da3151b01faf2,2024-02-22_03h25.46.473,kallum_motion_pilot,2023.2.2,MacIntel,59.88023952,5f285902166da3151b01faf2,65d6bb0e977760de756971f7,65d6bea9c7c0f830c49a8d8e,0.0365,0.0365,0,50,50,98,1,sixfive,,,,,,,,,,,,,,,,,,,,,,,,,,,,,,,,,,,,,,,,,,,,,,,,,,,,,,,,,,,,,,,,,,,,,,,,,,,,,,,,,,,,,,,,,,,,,,,,,,,,,,,,,,,,,,,,,,,,,,,,,,,,,,,,,,,,,,,,,
,,5f285902166da3151b01faf2,2024-02-22_03h25.46.473,kallum_motion_pilot,2023.2.2,MacIntel,59.88023952,5f285902166da3151b01faf2,65d6bb0e977760de756971f7,65d6bea9c7c0f830c49a8d8e,0.0366,0.0367,0,51,51,95,1,eightseven,,,,,,,,,,,,,,,,,,,,,,,,,,,,,,,,,,,,,,,,,,,,,,,,,,,,,,,,,,,,,,,,,,,,,,,,,,,,,,,,,,,,,,,,,,,,,,,,,,,,,,,,,,,,,,,,,,,,,,,,,,,,,,,,,,,,,,,,,
,,5f285902166da3151b01faf2,2024-02-22_03h25.46.473,kallum_motion_pilot,2023.2.2,MacIntel,59.88023952,5f285902166da3151b01faf2,65d6bb0e977760de756971f7,65d6bea9c7c0f830c49a8d8e,0.0367,0.0367,0,52,52,87,1,eightseven,,,,,,,,,,,,,,,,,,,,,,,,,,,,,,,,,,,,,,,,,,,,,,,,,,,,,,,,,,,,,,,,,,,,,,,,,,,,,,,,,,,,,,,,,,,,,,,,,,,,,,,,,,,,,,,,,,,,,,,,,,,,,,,,,,,,,,,,,
,,5f285902166da3151b01faf2,2024-02-22_03h25.46.473,kallum_motion_pilot,2023.2.2,MacIntel,59.88023952,5f285902166da3151b01faf2,65d6bb0e977760de756971f7,65d6bea9c7c0f830c49a8d8e,0.0368,0.0368,0,53,53,105,1,fiveseven,,,,,,,,,,,,,,,,,,,,,,,,,,,,,,,,,,,,,,,,,,,,,,,,,,,,,,,,,,,,,,,,,,,,,,,,,,,,,,,,,,,,,,,,,,,,,,,,,,,,,,,,,,,,,,,,,,,,,,,,,,,,,,,,,,,,,,,,,
,,5f285902166da3151b01faf2,2024-02-22_03h25.46.473,kallum_motion_pilot,2023.2.2,MacIntel,59.88023952,5f285902166da3151b01faf2,65d6bb0e977760de756971f7,65d6bea9c7c0f830c49a8d8e,0.037,0.037,0,54,54,9,1,onethree,,,,,,,,,,,,,,,,,,,,,,,,,,,,,,,,,,,,,,,,,,,,,,,,,,,,,,,,,,,,,,,,,,,,,,,,,,,,,,,,,,,,,,,,,,,,,,,,,,,,,,,,,,,,,,,,,,,,,,,,,,,,,,,,,,,,,,,,,
,,5f285902166da3151b01faf2,2024-02-22_03h25.46.473,kallum_motion_pilot,2023.2.2,MacIntel,59.88023952,5f285902166da3151b01faf2,65d6bb0e977760de756971f7,65d6bea9c7c0f830c49a8d8e,0.0371,0.0371,0,55,55,123,1,sixeight,,,,,,,,,,,,,,,,,,,,,,,,,,,,,,,,,,,,,,,,,,,,,,,,,,,,,,,,,,,,,,,,,,,,,,,,,,,,,,,,,,,,,,,,,,,,,,,,,,,,,,,,,,,,,,,,,,,,,,,,,,,,,,,,,,,,,,,,,
,,5f285902166da3151b01faf2,2024-02-22_03h25.46.473,kallum_motion_pilot,2023.2.2,MacIntel,59.88023952,5f285902166da3151b01faf2,65d6bb0e977760de756971f7,65d6bea9c7c0f830c49a8d8e,0.0372,0.0372,0,56,56,106,1,sixfive,,,,,,,,,,,,,,,,,,,,,,,,,,,,,,,,,,,,,,,,,,,,,,,,,,,,,,,,,,,,,,,,,,,,,,,,,,,,,,,,,,,,,,,,,,,,,,,,,,,,,,,,,,,,,,,,,,,,,,,,,,,,,,,,,,,,,,,,,
,,5f285902166da3151b01faf2,2024-02-22_03h25.46.473,kallum_motion_pilot,2023.2.2,MacIntel,59.88023952,5f285902166da3151b01faf2,65d6bb0e977760de756971f7,65d6bea9c7c0f830c49a8d8e,0.0373,0.0374,0,57,57,145,1,fiveseven,,,,,,,,,,,,,,,,,,,,,,,,,,,,,,,,,,,,,,,,,,,,,,,,,,,,,,,,,,,,,,,,,,,,,,,,,,,,,,,,,,,,,,,,,,,,,,,,,,,,,,,,,,,,,,,,,,,,,,,,,,,,,,,,,,,,,,,,,
,,5f285902166da3151b01faf2,2024-02-22_03h25.46.473,kallum_motion_pilot,2023.2.2,MacIntel,59.88023952,5f285902166da3151b01faf2,65d6bb0e977760de756971f7,65d6bea9c7c0f830c49a8d8e,0.0374,0.0375,0,58,58,96,1,fivesix,,,,,,,,,,,,,,,,,,,,,,,,,,,,,,,,,,,,,,,,,,,,,,,,,,,,,,,,,,,,,,,,,,,,,,,,,,,,,,,,,,,,,,,,,,,,,,,,,,,,,,,,,,,,,,,,,,,,,,,,,,,,,,,,,,,,,,,,,
,,5f285902166da3151b01faf2,2024-02-22_03h25.46.473,kallum_motion_pilot,2023.2.2,MacIntel,59.88023952,5f285902166da3151b01faf2,65d6bb0e977760de756971f7,65d6bea9c7c0f830c49a8d8e,0.0376,0.0376,0,59,59,3,1,twofour,,,,,,,,,,,,,,,,,,,,,,,,,,,,,,,,,,,,,,,,,,,,,,,,,,,,,,,,,,,,,,,,,,,,,,,,,,,,,,,,,,,,,,,,,,,,,,,,,,,,,,,,,,,,,,,,,,,,,,,,,,,,,,,,,,,,,,,,,
,,5f285902166da3151b01faf2,2024-02-22_03h25.46.473,kallum_motion_pilot,2023.2.2,MacIntel,59.88023952,5f285902166da3151b01faf2,65d6bb0e977760de756971f7,65d6bea9c7c0f830c49a8d8e,0.0376,0.0377,0,60,60,84,1,sevenfive,,,,,,,,,,,,,,,,,,,,,,,,,,,,,,,,,,,,,,,,,,,,,,,,,,,,,,,,,,,,,,,,,,,,,,,,,,,,,,,,,,,,,,,,,,,,,,,,,,,,,,,,,,,,,,,,,,,,,,,,,,,,,,,,,,,,,,,,,
,,5f285902166da3151b01faf2,2024-02-22_03h25.46.473,kallum_motion_pilot,2023.2.2,MacIntel,59.88023952,5f285902166da3151b01faf2,65d6bb0e977760de756971f7,65d6bea9c7c0f830c49a8d8e,0.0378,0.0378,0,61,61,45,1,threefour,,,,,,,,,,,,,,,,,,,,,,,,,,,,,,,,,,,,,,,,,,,,,,,,,,,,,,,,,,,,,,,,,,,,,,,,,,,,,,,,,,,,,,,,,,,,,,,,,,,,,,,,,,,,,,,,,,,,,,,,,,,,,,,,,,,,,,,,,
,,5f285902166da3151b01faf2,2024-02-22_03h25.46.473,kallum_motion_pilot,2023.2.2,MacIntel,59.88023952,5f285902166da3151b01faf2,65d6bb0e977760de756971f7,65d6bea9c7c0f830c49a8d8e,0.0379,0.038,0,62,62,69,1,threefour,,,,,,,,,,,,,,,,,,,,,,,,,,,,,,,,,,,,,,,,,,,,,,,,,,,,,,,,,,,,,,,,,,,,,,,,,,,,,,,,,,,,,,,,,,,,,,,,,,,,,,,,,,,,,,,,,,,,,,,,,,,,,,,,,,,,,,,,,
,,5f285902166da3151b01faf2,2024-02-22_03h25.46.473,kallum_motion_pilot,2023.2.2,MacIntel,59.88023952,5f285902166da3151b01faf2,65d6bb0e977760de756971f7,65d6bea9c7c0f830c49a8d8e,0.038,0.0381,0,63,63,89,1,fiveseven,,,,,,,,,,,,,,,,,,,,,,,,,,,,,,,,,,,,,,,,,,,,,,,,,,,,,,,,,,,,,,,,,,,,,,,,,,,,,,,,,,,,,,,,,,,,,,,,,,,,,,,,,,,,,,,,,,,,,,,,,,,,,,,,,,,,,,,,,
,,5f285902166da3151b01faf2,2024-02-22_03h25.46.473,kallum_motion_pilot,2023.2.2,MacIntel,59.88023952,5f285902166da3151b01faf2,65d6bb0e977760de756971f7,65d6bea9c7c0f830c49a8d8e,0.0382,0.0382,0,64,64,102,1,eightsix,,,,,,,,,,,,,,,,,,,,,,,,,,,,,,,,,,,,,,,,,,,,,,,,,,,,,,,,,,,,,,,,,,,,,,,,,,,,,,,,,,,,,,,,,,,,,,,,,,,,,,,,,,,,,,,,,,,,,,,,,,,,,,,,,,,,,,,,,
,,5f285902166da3151b01faf2,2024-02-22_03h25.46.473,kallum_motion_pilot,2023.2.2,MacIntel,59.88023952,5f285902166da3151b01faf2,65d6bb0e977760de756971f7,65d6bea9c7c0f830c49a8d8e,0.0394,0.0394,0,65,65,42,1,twoone,,,,,,,,,,,,,,,,,,,,,,,,,,,,,,,,,,,,,,,,,,,,,,,,,,,,,,,,,,,,,,,,,,,,,,,,,,,,,,,,,,,,,,,,,,,,,,,,,,,,,,,,,,,,,,,,,,,,,,,,,,,,,,,,,,,,,,,,,
,,5f285902166da3151b01faf2,2024-02-22_03h25.46.473,kallum_motion_pilot,2023.2.2,MacIntel,59.88023952,5f285902166da3151b01faf2,65d6bb0e977760de756971f7,65d6bea9c7c0f830c49a8d8e,0.0395,0.0396,0,66,66,64,1,onetwo,,,,,,,,,,,,,,,,,,,,,,,,,,,,,,,,,,,,,,,,,,,,,,,,,,,,,,,,,,,,,,,,,,,,,,,,,,,,,,,,,,,,,,,,,,,,,,,,,,,,,,,,,,,,,,,,,,,,,,,,,,,,,,,,,,,,,,,,,
,,5f285902166da3151b01faf2,2024-02-22_03h25.46.473,kallum_motion_pilot,2023.2.2,MacIntel,59.88023952,5f285902166da3151b01faf2,65d6bb0e977760de756971f7,65d6bea9c7c0f830c49a8d8e,0.0397,0.0397,0,67,67,35,1,twofour,,,,,,,,,,,,,,,,,,,,,,,,,,,,,,,,,,,,,,,,,,,,,,,,,,,,,,,,,,,,,,,,,,,,,,,,,,,,,,,,,,,,,,,,,,,,,,,,,,,,,,,,,,,,,,,,,,,,,,,,,,,,,,,,,,,,,,,,,
,,5f285902166da3151b01faf2,2024-02-22_03h25.46.473,kallum_motion_pilot,2023.2.2,MacIntel,59.88023952,5f285902166da3151b01faf2,65d6bb0e977760de756971f7,65d6bea9c7c0f830c49a8d8e,0.0398,0.0398,0,68,68,72,1,onetwo,,,,,,,,,,,,,,,,,,,,,,,,,,,,,,,,,,,,,,,,,,,,,,,,,,,,,,,,,,,,,,,,,,,,,,,,,,,,,,,,,,,,,,,,,,,,,,,,,,,,,,,,,,,,,,,,,,,,,,,,,,,,,,,,,,,,,,,,,
,,5f285902166da3151b01faf2,2024-02-22_03h25.46.473,kallum_motion_pilot,2023.2.2,MacIntel,59.88023952,5f285902166da3151b01faf2,65d6bb0e977760de756971f7,65d6bea9c7c0f830c49a8d8e,0.0399,0.0399,0,69,69,153,1,fiveseven,,,,,,,,,,,,,,,,,,,,,,,,,,,,,,,,,,,,,,,,,,,,,,,,,,,,,,,,,,,,,,,,,,,,,,,,,,,,,,,,,,,,,,,,,,,,,,,,,,,,,,,,,,,,,,,,,,,,,,,,,,,,,,,,,,,,,,,,,
,,5f285902166da3151b01faf2,2024-02-22_03h25.46.473,kallum_motion_pilot,2023.2.2,MacIntel,59.88023952,5f285902166da3151b01faf2,65d6bb0e977760de756971f7,65d6bea9c7c0f830c49a8d8e,0.0401,0.0401,0,70,70,14,1,fourtwo,,,,,,,,,,,,,,,,,,,,,,,,,,,,,,,,,,,,,,,,,,,,,,,,,,,,,,,,,,,,,,,,,,,,,,,,,,,,,,,,,,,,,,,,,,,,,,,,,,,,,,,,,,,,,,,,,,,,,,,,,,,,,,,,,,,,,,,,,
,,5f285902166da3151b01faf2,2024-02-22_03h25.46.473,kallum_motion_pilot,2023.2.2,MacIntel,59.88023952,5f285902166da3151b01faf2,65d6bb0e977760de756971f7,65d6bea9c7c0f830c49a8d8e,0.0402,0.0402,0,71,71,31,1,fourthree,,,,,,,,,,,,,,,,,,,,,,,,,,,,,,,,,,,,,,,,,,,,,,,,,,,,,,,,,,,,,,,,,,,,,,,,,,,,,,,,,,,,,,,,,,,,,,,,,,,,,,,,,,,,,,,,,,,,,,,,,,,,,,,,,,,,,,,,,
,,5f285902166da3151b01faf2,2024-02-22_03h25.46.473,kallum_motion_pilot,2023.2.2,MacIntel,59.88023952,5f285902166da3151b01faf2,65d6bb0e977760de756971f7,65d6bea9c7c0f830c49a8d8e,0.0403,0.0403,0,72,72,155,1,sixeight,,,,,,,,,,,,,,,,,,,,,,,,,,,,,,,,,,,,,,,,,,,,,,,,,,,,,,,,,,,,,,,,,,,,,,,,,,,,,,,,,,,,,,,,,,,,,,,,,,,,,,,,,,,,,,,,,,,,,,,,,,,,,,,,,,,,,,,,,
,,5f285902166da3151b01faf2,2024-02-22_03h25.46.473,kallum_motion_pilot,2023.2.2,MacIntel,59.88023952,5f285902166da3151b01faf2,65d6bb0e977760de756971f7,65d6bea9c7c0f830c49a8d8e,0.0405,0.0405,0,73,73,17,1,onethree,,,,,,,,,,,,,,,,,,,,,,,,,,,,,,,,,,,,,,,,,,,,,,,,,,,,,,,,,,,,,,,,,,,,,,,,,,,,,,,,,,,,,,,,,,,,,,,,,,,,,,,,,,,,,,,,,,,,,,,,,,,,,,,,,,,,,,,,,
,,5f285902166da3151b01faf2,2024-02-22_03h25.46.473,kallum_motion_pilot,2023.2.2,MacIntel,59.88023952,5f285902166da3151b01faf2,65d6bb0e977760de756971f7,65d6bea9c7c0f830c49a8d8e,0.0408,0.041,0,74,74,149,1,seveneight,,,,,,,,,,,,,,,,,,,,,,,,,,,,,,,,,,,,,,,,,,,,,,,,,,,,,,,,,,,,,,,,,,,,,,,,,,,,,,,,,,,,,,,,,,,,,,,,,,,,,,,,,,,,,,,,,,,,,,,,,,,,,,,,,,,,,,,,,
,,5f285902166da3151b01faf2,2024-02-22_03h25.46.473,kallum_motion_pilot,2023.2.2,MacIntel,59.88023952,5f285902166da3151b01faf2,65d6bb0e977760de756971f7,65d6bea9c7c0f830c49a8d8e,0.0413,0.0413,0,75,75,92,1,sevenfive,,,,,,,,,,,,,,,,,,,,,,,,,,,,,,,,,,,,,,,,,,,,,,,,,,,,,,,,,,,,,,,,,,,,,,,,,,,,,,,,,,,,,,,,,,,,,,,,,,,,,,,,,,,,,,,,,,,,,,,,,,,,,,,,,,,,,,,,,
,,5f285902166da3151b01faf2,2024-02-22_03h25.46.473,kallum_motion_pilot,2023.2.2,MacIntel,59.88023952,5f285902166da3151b01faf2,65d6bb0e977760de756971f7,65d6bea9c7c0f830c49a8d8e,0.0416,0.0416,0,76,76,28,1,threeone,,,,,,,,,,,,,,,,,,,,,,,,,,,,,,,,,,,,,,,,,,,,,,,,,,,,,,,,,,,,,,,,,,,,,,,,,,,,,,,,,,,,,,,,,,,,,,,,,,,,,,,,,,,,,,,,,,,,,,,,,,,,,,,,,,,,,,,,,
,,5f285902166da3151b01faf2,2024-02-22_03h25.46.473,kallum_motion_pilot,2023.2.2,MacIntel,59.88023952,5f285902166da3151b01faf2,65d6bb0e977760de756971f7,65d6bea9c7c0f830c49a8d8e,0.0417,0.0418,0,77,77,16,1,onetwo,,,,,,,,,,,,,,,,,,,,,,,,,,,,,,,,,,,,,,,,,,,,,,,,,,,,,,,,,,,,,,,,,,,,,,,,,,,,,,,,,,,,,,,,,,,,,,,,,,,,,,,,,,,,,,,,,,,,,,,,,,,,,,,,,,,,,,,,,
,,5f285902166da3151b01faf2,2024-02-22_03h25.46.473,kallum_motion_pilot,2023.2.2,MacIntel,59.88023952,5f285902166da3151b01faf2,65d6bb0e977760de756971f7,65d6bea9c7c0f830c49a8d8e,0.0421,0.0423,0,78,78,39,1,fourthree,,,,,,,,,,,,,,,,,,,,,,,,,,,,,,,,,,,,,,,,,,,,,,,,,,,,,,,,,,,,,,,,,,,,,,,,,,,,,,,,,,,,,,,,,,,,,,,,,,,,,,,,,,,,,,,,,,,,,,,,,,,,,,,,,,,,,,,,,
,,5f285902166da3151b01faf2,2024-02-22_03h25.46.473,kallum_motion_pilot,2023.2.2,MacIntel,59.88023952,5f285902166da3151b01faf2,65d6bb0e977760de756971f7,65d6bea9c7c0f830c49a8d8e,0.0427,0.0428,0,79,79,59,1,twofour,,,,,,,,,,,,,,,,,,,,,,,,,,,,,,,,,,,,,,,,,,,,,,,,,,,,,,,,,,,,,,,,,,,,,,,,,,,,,,,,,,,,,,,,,,,,,,,,,,,,,,,,,,,,,,,,,,,,,,,,,,,,,,,,,,,,,,,,,
,,5f285902166da3151b01faf2,2024-02-22_03h25.46.473,kallum_motion_pilot,2023.2.2,MacIntel,59.88023952,5f285902166da3151b01faf2,65d6bb0e977760de756971f7,65d6bea9c7c0f830c49a8d8e,0.0429,0.043,0,80,80,126,1,eightsix,,,,,,,,,,,,,,,,,,,,,,,,,,,,,,,,,,,,,,,,,,,,,,,,,,,,,,,,,,,,,,,,,,,,,,,,,,,,,,,,,,,,,,,,,,,,,,,,,,,,,,,,,,,,,,,,,,,,,,,,,,,,,,,,,,,,,,,,,
,,5f285902166da3151b01faf2,2024-02-22_03h25.46.473,kallum_motion_pilot,2023.2.2,MacIntel,59.88023952,5f285902166da3151b01faf2,65d6bb0e977760de756971f7,65d6bea9c7c0f830c49a8d8e,0.0432,0.0432,0,81,81,41,1,onethree,,,,,,,,,,,,,,,,,,,,,,,,,,,,,,,,,,,,,,,,,,,,,,,,,,,,,,,,,,,,,,,,,,,,,,,,,,,,,,,,,,,,,,,,,,,,,,,,,,,,,,,,,,,,,,,,,,,,,,,,,,,,,,,,,,,,,,,,,
,,5f285902166da3151b01faf2,2024-02-22_03h25.46.473,kallum_motion_pilot,2023.2.2,MacIntel,59.88023952,5f285902166da3151b01faf2,65d6bb0e977760de756971f7,65d6bea9c7c0f830c49a8d8e,0.0432,0.0433,0,82,82,157,1,seveneight,,,,,,,,,,,,,,,,,,,,,,,,,,,,,,,,,,,,,,,,,,,,,,,,,,,,,,,,,,,,,,,,,,,,,,,,,,,,,,,,,,,,,,,,,,,,,,,,,,,,,,,,,,,,,,,,,,,,,,,,,,,,,,,,,,,,,,,,,
,,5f285902166da3151b01faf2,2024-02-22_03h25.46.473,kallum_motion_pilot,2023.2.2,MacIntel,59.88023952,5f285902166da3151b01faf2,65d6bb0e977760de756971f7,65d6bea9c7c0f830c49a8d8e,0.0434,0.0434,0,83,83,21,1,threefour,,,,,,,,,,,,,,,,,,,,,,,,,,,,,,,,,,,,,,,,,,,,,,,,,,,,,,,,,,,,,,,,,,,,,,,,,,,,,,,,,,,,,,,,,,,,,,,,,,,,,,,,,,,,,,,,,,,,,,,,,,,,,,,,,,,,,,,,,
,,5f285902166da3151b01faf2,2024-02-22_03h25.46.473,kallum_motion_pilot,2023.2.2,MacIntel,59.88023952,5f285902166da3151b01faf2,65d6bb0e977760de756971f7,65d6bea9c7c0f830c49a8d8e,0.0435,0.0436,0,84,84,25,1,onethree,,,,,,,,,,,,,,,,,,,,,,,,,,,,,,,,,,,,,,,,,,,,,,,,,,,,,,,,,,,,,,,,,,,,,,,,,,,,,,,,,,,,,,,,,,,,,,,,,,,,,,,,,,,,,,,,,,,,,,,,,,,,,,,,,,,,,,,,,
,,5f285902166da3151b01faf2,2024-02-22_03h25.46.473,kallum_motion_pilot,2023.2.2,MacIntel,59.88023952,5f285902166da3151b01faf2,65d6bb0e977760de756971f7,65d6bea9c7c0f830c49a8d8e,0.0436,0.0436,0,85,85,70,1,fourtwo,,,,,,,,,,,,,,,,,,,,,,,,,,,,,,,,,,,,,,,,,,,,,,,,,,,,,,,,,,,,,,,,,,,,,,,,,,,,,,,,,,,,,,,,,,,,,,,,,,,,,,,,,,,,,,,,,,,,,,,,,,,,,,,,,,,,,,,,,
,,5f285902166da3151b01faf2,2024-02-22_03h25.46.473,kallum_motion_pilot,2023.2.2,MacIntel,59.88023952,5f285902166da3151b01faf2,65d6bb0e977760de756971f7,65d6bea9c7c0f830c49a8d8e,0.0437,0.0437,0,86,86,75,1,twofour,,,,,,,,,,,,,,,,,,,,,,,,,,,,,,,,,,,,,,,,,,,,,,,,,,,,,,,,,,,,,,,,,,,,,,,,,,,,,,,,,,,,,,,,,,,,,,,,,,,,,,,,,,,,,,,,,,,,,,,,,,,,,,,,,,,,,,,,,
,,5f285902166da3151b01faf2,2024-02-22_03h25.46.473,kallum_motion_pilot,2023.2.2,MacIntel,59.88023952,5f285902166da3151b01faf2,65d6bb0e977760de756971f7,65d6bea9c7c0f830c49a8d8e,0.0438,0.0439,0,87,87,158,1,eightsix,,,,,,,,,,,,,,,,,,,,,,,,,,,,,,,,,,,,,,,,,,,,,,,,,,,,,,,,,,,,,,,,,,,,,,,,,,,,,,,,,,,,,,,,,,,,,,,,,,,,,,,,,,,,,,,,,,,,,,,,,,,,,,,,,,,,,,,,,
,,5f285902166da3151b01faf2,2024-02-22_03h25.46.473,kallum_motion_pilot,2023.2.2,MacIntel,59.88023952,5f285902166da3151b01faf2,65d6bb0e977760de756971f7,65d6bea9c7c0f830c49a8d8e,0.0439,0.044,0,88,88,86,1,eightsix,,,,,,,,,,,,,,,,,,,,,,,,,,,,,,,,,,,,,,,,,,,,,,,,,,,,,,,,,,,,,,,,,,,,,,,,,,,,,,,,,,,,,,,,,,,,,,,,,,,,,,,,,,,,,,,,,,,,,,,,,,,,,,,,,,,,,,,,,
,,5f285902166da3151b01faf2,2024-02-22_03h25.46.473,kallum_motion_pilot,2023.2.2,MacIntel,59.88023952,5f285902166da3151b01faf2,65d6bb0e977760de756971f7,65d6bea9c7c0f830c49a8d8e,0.0441,0.0442,0,89,89,1,1,onethree,,,,,,,,,,,,,,,,,,,,,,,,,,,,,,,,,,,,,,,,,,,,,,,,,,,,,,,,,,,,,,,,,,,,,,,,,,,,,,,,,,,,,,,,,,,,,,,,,,,,,,,,,,,,,,,,,,,,,,,,,,,,,,,,,,,,,,,,,
,,5f285902166da3151b01faf2,2024-02-22_03h25.46.473,kallum_motion_pilot,2023.2.2,MacIntel,59.88023952,5f285902166da3151b01faf2,65d6bb0e977760de756971f7,65d6bea9c7c0f830c49a8d8e,0.0442,0.0443,0,90,90,142,1,eightsix,,,,,,,,,,,,,,,,,,,,,,,,,,,,,,,,,,,,,,,,,,,,,,,,,,,,,,,,,,,,,,,,,,,,,,,,,,,,,,,,,,,,,,,,,,,,,,,,,,,,,,,,,,,,,,,,,,,,,,,,,,,,,,,,,,,,,,,,,
,,5f285902166da3151b01faf2,2024-02-22_03h25.46.473,kallum_motion_pilot,2023.2.2,MacIntel,59.88023952,5f285902166da3151b01faf2,65d6bb0e977760de756971f7,65d6bea9c7c0f830c49a8d8e,0.0444,0.0444,0,91,91,159,1,eightseven,,,,,,,,,,,,,,,,,,,,,,,,,,,,,,,,,,,,,,,,,,,,,,,,,,,,,,,,,,,,,,,,,,,,,,,,,,,,,,,,,,,,,,,,,,,,,,,,,,,,,,,,,,,,,,,,,,,,,,,,,,,,,,,,,,,,,,,,,
,,5f285902166da3151b01faf2,2024-02-22_03h25.46.473,kallum_motion_pilot,2023.2.2,MacIntel,59.88023952,5f285902166da3151b01faf2,65d6bb0e977760de756971f7,65d6bea9c7c0f830c49a8d8e,0.0445,0.0445,0,92,92,143,1,eightseven,,,,,,,,,,,,,,,,,,,,,,,,,,,,,,,,,,,,,,,,,,,,,,,,,,,,,,,,,,,,,,,,,,,,,,,,,,,,,,,,,,,,,,,,,,,,,,,,,,,,,,,,,,,,,,,,,,,,,,,,,,,,,,,,,,,,,,,,,
,,5f285902166da3151b01faf2,2024-02-22_03h25.46.473,kallum_motion_pilot,2023.2.2,MacIntel,59.88023952,5f285902166da3151b01faf2,65d6bb0e977760de756971f7,65d6bea9c7c0f830c49a8d8e,0.0447,0.0448,0,93,93,57,1,onethree,,,,,,,,,,,,,,,,,,,,,,,,,,,,,,,,,,,,,,,,,,,,,,,,,,,,,,,,,,,,,,,,,,,,,,,,,,,,,,,,,,,,,,,,,,,,,,,,,,,,,,,,,,,,,,,,,,,,,,,,,,,,,,,,,,,,,,,,,
,,5f285902166da3151b01faf2,2024-02-22_03h25.46.473,kallum_motion_pilot,2023.2.2,MacIntel,59.88023952,5f285902166da3151b01faf2,65d6bb0e977760de756971f7,65d6bea9c7c0f830c49a8d8e,0.0449,0.045,0,94,94,44,1,threeone,,,,,,,,,,,,,,,,,,,,,,,,,,,,,,,,,,,,,,,,,,,,,,,,,,,,,,,,,,,,,,,,,,,,,,,,,,,,,,,,,,,,,,,,,,,,,,,,,,,,,,,,,,,,,,,,,,,,,,,,,,,,,,,,,,,,,,,,,
,,5f285902166da3151b01faf2,2024-02-22_03h25.46.473,kallum_motion_pilot,2023.2.2,MacIntel,59.88023952,5f285902166da3151b01faf2,65d6bb0e977760de756971f7,65d6bea9c7c0f830c49a8d8e,0.045,0.0452,0,95,95,131,1,sixeight,,,,,,,,,,,,,,,,,,,,,,,,,,,,,,,,,,,,,,,,,,,,,,,,,,,,,,,,,,,,,,,,,,,,,,,,,,,,,,,,,,,,,,,,,,,,,,,,,,,,,,,,,,,,,,,,,,,,,,,,,,,,,,,,,,,,,,,,,
,,5f285902166da3151b01faf2,2024-02-22_03h25.46.473,kallum_motion_pilot,2023.2.2,MacIntel,59.88023952,5f285902166da3151b01faf2,65d6bb0e977760de756971f7,65d6bea9c7c0f830c49a8d8e,0.0452,0.0452,0,96,96,111,1,eightseven,,,,,,,,,,,,,,,,,,,,,,,,,,,,,,,,,,,,,,,,,,,,,,,,,,,,,,,,,,,,,,,,,,,,,,,,,,,,,,,,,,,,,,,,,,,,,,,,,,,,,,,,,,,,,,,,,,,,,,,,,,,,,,,,,,,,,,,,,
,,5f285902166da3151b01faf2,2024-02-22_03h25.46.473,kallum_motion_pilot,2023.2.2,MacIntel,59.88023952,5f285902166da3151b01faf2,65d6bb0e977760de756971f7,65d6bea9c7c0f830c49a8d8e,0.0454,0.0454,0,97,97,71,1,fourthree,,,,,,,,,,,,,,,,,,,,,,,,,,,,,,,,,,,,,,,,,,,,,,,,,,,,,,,,,,,,,,,,,,,,,,,,,,,,,,,,,,,,,,,,,,,,,,,,,,,,,,,,,,,,,,,,,,,,,,,,,,,,,,,,,,,,,,,,,
,,5f285902166da3151b01faf2,2024-02-22_03h25.46.473,kallum_motion_pilot,2023.2.2,MacIntel,59.88023952,5f285902166da3151b01faf2,65d6bb0e977760de756971f7,65d6bea9c7c0f830c49a8d8e,0.0454,0.0455,0,98,98,160,1,fivesix,,,,,,,,,,,,,,,,,,,,,,,,,,,,,,,,,,,,,,,,,,,,,,,,,,,,,,,,,,,,,,,,,,,,,,,,,,,,,,,,,,,,,,,,,,,,,,,,,,,,,,,,,,,,,,,,,,,,,,,,,,,,,,,,,,,,,,,,,
,,5f285902166da3151b01faf2,2024-02-22_03h25.46.473,kallum_motion_pilot,2023.2.2,MacIntel,59.88023952,5f285902166da3151b01faf2,65d6bb0e977760de756971f7,65d6bea9c7c0f830c49a8d8e,0.0456,0.0456,0,99,99,66,1,twoone,,,,,,,,,,,,,,,,,,,,,,,,,,,,,,,,,,,,,,,,,,,,,,,,,,,,,,,,,,,,,,,,,,,,,,,,,,,,,,,,,,,,,,,,,,,,,,,,,,,,,,,,,,,,,,,,,,,,,,,,,,,,,,,,,,,,,,,,,
,,5f285902166da3151b01faf2,2024-02-22_03h25.46.473,kallum_motion_pilot,2023.2.2,MacIntel,59.88023952,5f285902166da3151b01faf2,65d6bb0e977760de756971f7,65d6bea9c7c0f830c49a8d8e,0.0457,0.0458,0,100,100,32,1,onetwo,,,,,,,,,,,,,,,,,,,,,,,,,,,,,,,,,,,,,,,,,,,,,,,,,,,,,,,,,,,,,,,,,,,,,,,,,,,,,,,,,,,,,,,,,,,,,,,,,,,,,,,,,,,,,,,,,,,,,,,,,,,,,,,,,,,,,,,,,
,,5f285902166da3151b01faf2,2024-02-22_03h25.46.473,kallum_motion_pilot,2023.2.2,MacIntel,59.88023952,5f285902166da3151b01faf2,65d6bb0e977760de756971f7,65d6bea9c7c0f830c49a8d8e,0.0458,0.0459,0,101,101,4,1,threeone,,,,,,,,,,,,,,,,,,,,,,,,,,,,,,,,,,,,,,,,,,,,,,,,,,,,,,,,,,,,,,,,,,,,,,,,,,,,,,,,,,,,,,,,,,,,,,,,,,,,,,,,,,,,,,,,,,,,,,,,,,,,,,,,,,,,,,,,,
,,5f285902166da3151b01faf2,2024-02-22_03h25.46.473,kallum_motion_pilot,2023.2.2,MacIntel,59.88023952,5f285902166da3151b01faf2,65d6bb0e977760de756971f7,65d6bea9c7c0f830c49a8d8e,0.046,0.046,0,102,102,129,1,fiveseven,,,,,,,,,,,,,,,,,,,,,,,,,,,,,,,,,,,,,,,,,,,,,,,,,,,,,,,,,,,,,,,,,,,,,,,,,,,,,,,,,,,,,,,,,,,,,,,,,,,,,,,,,,,,,,,,,,,,,,,,,,,,,,,,,,,,,,,,,
,,5f285902166da3151b01faf2,2024-02-22_03h25.46.473,kallum_motion_pilot,2023.2.2,MacIntel,59.88023952,5f285902166da3151b01faf2,65d6bb0e977760de756971f7,65d6bea9c7c0f830c49a8d8e,0.0461,0.0462,0,103,103,101,1,seveneight,,,,,,,,,,,,,,,,,,,,,,,,,,,,,,,,,,,,,,,,,,,,,,,,,,,,,,,,,,,,,,,,,,,,,,,,,,,,,,,,,,,,,,,,,,,,,,,,,,,,,,,,,,,,,,,,,,,,,,,,,,,,,,,,,,,,,,,,,
,,5f285902166da3151b01faf2,2024-02-22_03h25.46.473,kallum_motion_pilot,2023.2.2,MacIntel,59.88023952,5f285902166da3151b01faf2,65d6bb0e977760de756971f7,65d6bea9c7c0f830c49a8d8e,0.0462,0.0463,0,104,104,135,1,eightseven,,,,,,,,,,,,,,,,,,,,,,,,,,,,,,,,,,,,,,,,,,,,,,,,,,,,,,,,,,,,,,,,,,,,,,,,,,,,,,,,,,,,,,,,,,,,,,,,,,,,,,,,,,,,,,,,,,,,,,,,,,,,,,,,,,,,,,,,,
,,5f285902166da3151b01faf2,2024-02-22_03h25.46.473,kallum_motion_pilot,2023.2.2,MacIntel,59.88023952,5f285902166da3151b01faf2,65d6bb0e977760de756971f7,65d6bea9c7c0f830c49a8d8e,0.0464,0.0464,0,105,105,148,1,sevenfive,,,,,,,,,,,,,,,,,,,,,,,,,,,,,,,,,,,,,,,,,,,,,,,,,,,,,,,,,,,,,,,,,,,,,,,,,,,,,,,,,,,,,,,,,,,,,,,,,,,,,,,,,,,,,,,,,,,,,,,,,,,,,,,,,,,,,,,,,
,,5f285902166da3151b01faf2,2024-02-22_03h25.46.473,kallum_motion_pilot,2023.2.2,MacIntel,59.88023952,5f285902166da3151b01faf2,65d6bb0e977760de756971f7,65d6bea9c7c0f830c49a8d8e,0.0465,0.0466,0,106,106,122,1,sixfive,,,,,,,,,,,,,,,,,,,,,,,,,,,,,,,,,,,,,,,,,,,,,,,,,,,,,,,,,,,,,,,,,,,,,,,,,,,,,,,,,,,,,,,,,,,,,,,,,,,,,,,,,,,,,,,,,,,,,,,,,,,,,,,,,,,,,,,,,
,,5f285902166da3151b01faf2,2024-02-22_03h25.46.473,kallum_motion_pilot,2023.2.2,MacIntel,59.88023952,5f285902166da3151b01faf2,65d6bb0e977760de756971f7,65d6bea9c7c0f830c49a8d8e,0.0466,0.0467,0,107,107,151,1,eightseven,,,,,,,,,,,,,,,,,,,,,,,,,,,,,,,,,,,,,,,,,,,,,,,,,,,,,,,,,,,,,,,,,,,,,,,,,,,,,,,,,,,,,,,,,,,,,,,,,,,,,,,,,,,,,,,,,,,,,,,,,,,,,,,,,,,,,,,,,
,,5f285902166da3151b01faf2,2024-02-22_03h25.46.473,kallum_motion_pilot,2023.2.2,MacIntel,59.88023952,5f285902166da3151b01faf2,65d6bb0e977760de756971f7,65d6bea9c7c0f830c49a8d8e,0.0468,0.0468,0,108,108,6,1,fourtwo,,,,,,,,,,,,,,,,,,,,,,,,,,,,,,,,,,,,,,,,,,,,,,,,,,,,,,,,,,,,,,,,,,,,,,,,,,,,,,,,,,,,,,,,,,,,,,,,,,,,,,,,,,,,,,,,,,,,,,,,,,,,,,,,,,,,,,,,,
,,5f285902166da3151b01faf2,2024-02-22_03h25.46.473,kallum_motion_pilot,2023.2.2,MacIntel,59.88023952,5f285902166da3151b01faf2,65d6bb0e977760de756971f7,65d6bea9c7c0f830c49a8d8e,0.0469,0.0469,0,109,109,91,1,sixeight,,,,,,,,,,,,,,,,,,,,,,,,,,,,,,,,,,,,,,,,,,,,,,,,,,,,,,,,,,,,,,,,,,,,,,,,,,,,,,,,,,,,,,,,,,,,,,,,,,,,,,,,,,,,,,,,,,,,,,,,,,,,,,,,,,,,,,,,,
,,5f285902166da3151b01faf2,2024-02-22_03h25.46.473,kallum_motion_pilot,2023.2.2,MacIntel,59.88023952,5f285902166da3151b01faf2,65d6bb0e977760de756971f7,65d6bea9c7c0f830c49a8d8e,0.0471,0.0471,0,110,110,52,1,threeone,,,,,,,,,,,,,,,,,,,,,,,,,,,,,,,,,,,,,,,,,,,,,,,,,,,,,,,,,,,,,,,,,,,,,,,,,,,,,,,,,,,,,,,,,,,,,,,,,,,,,,,,,,,,,,,,,,,,,,,,,,,,,,,,,,,,,,,,,
,,5f285902166da3151b01faf2,2024-02-22_03h25.46.473,kallum_motion_pilot,2023.2.2,MacIntel,59.88023952,5f285902166da3151b01faf2,65d6bb0e977760de756971f7,65d6bea9c7c0f830c49a8d8e,0.0472,0.0473,0,111,111,88,1,fivesix,,,,,,,,,,,,,,,,,,,,,,,,,,,,,,,,,,,,,,,,,,,,,,,,,,,,,,,,,,,,,,,,,,,,,,,,,,,,,,,,,,,,,,,,,,,,,,,,,,,,,,,,,,,,,,,,,,,,,,,,,,,,,,,,,,,,,,,,,
,,5f285902166da3151b01faf2,2024-02-22_03h25.46.473,kallum_motion_pilot,2023.2.2,MacIntel,59.88023952,5f285902166da3151b01faf2,65d6bb0e977760de756971f7,65d6bea9c7c0f830c49a8d8e,0.0473,0.0474,0,112,112,10,1,twoone,,,,,,,,,,,,,,,,,,,,,,,,,,,,,,,,,,,,,,,,,,,,,,,,,,,,,,,,,,,,,,,,,,,,,,,,,,,,,,,,,,,,,,,,,,,,,,,,,,,,,,,,,,,,,,,,,,,,,,,,,,,,,,,,,,,,,,,,,
,,5f285902166da3151b01faf2,2024-02-22_03h25.46.473,kallum_motion_pilot,2023.2.2,MacIntel,59.88023952,5f285902166da3151b01faf2,65d6bb0e977760de756971f7,65d6bea9c7c0f830c49a8d8e,0.0475,0.0476,0,113,113,55,1,fourthree,,,,,,,,,,,,,,,,,,,,,,,,,,,,,,,,,,,,,,,,,,,,,,,,,,,,,,,,,,,,,,,,,,,,,,,,,,,,,,,,,,,,,,,,,,,,,,,,,,,,,,,,,,,,,,,,,,,,,,,,,,,,,,,,,,,,,,,,,
,,5f285902166da3151b01faf2,2024-02-22_03h25.46.473,kallum_motion_pilot,2023.2.2,MacIntel,59.88023952,5f285902166da3151b01faf2,65d6bb0e977760de756971f7,65d6bea9c7c0f830c49a8d8e,0.0476,0.0476,0,114,114,81,1,fiveseven,,,,,,,,,,,,,,,,,,,,,,,,,,,,,,,,,,,,,,,,,,,,,,,,,,,,,,,,,,,,,,,,,,,,,,,,,,,,,,,,,,,,,,,,,,,,,,,,,,,,,,,,,,,,,,,,,,,,,,,,,,,,,,,,,,,,,,,,,
,,5f285902166da3151b01faf2,2024-02-22_03h25.46.473,kallum_motion_pilot,2023.2.2,MacIntel,59.88023952,5f285902166da3151b01faf2,65d6bb0e977760de756971f7,65d6bea9c7c0f830c49a8d8e,0.0478,0.0478,0,115,115,50,1,twoone,,,,,,,,,,,,,,,,,,,,,,,,,,,,,,,,,,,,,,,,,,,,,,,,,,,,,,,,,,,,,,,,,,,,,,,,,,,,,,,,,,,,,,,,,,,,,,,,,,,,,,,,,,,,,,,,,,,,,,,,,,,,,,,,,,,,,,,,,
,,5f285902166da3151b01faf2,2024-02-22_03h25.46.473,kallum_motion_pilot,2023.2.2,MacIntel,59.88023952,5f285902166da3151b01faf2,65d6bb0e977760de756971f7,65d6bea9c7c0f830c49a8d8e,0.0478,0.0479,0,116,116,78,1,fourtwo,,,,,,,,,,,,,,,,,,,,,,,,,,,,,,,,,,,,,,,,,,,,,,,,,,,,,,,,,,,,,,,,,,,,,,,,,,,,,,,,,,,,,,,,,,,,,,,,,,,,,,,,,,,,,,,,,,,,,,,,,,,,,,,,,,,,,,,,,
,,5f285902166da3151b01faf2,2024-02-22_03h25.46.473,kallum_motion_pilot,2023.2.2,MacIntel,59.88023952,5f285902166da3151b01faf2,65d6bb0e977760de756971f7,65d6bea9c7c0f830c49a8d8e,0.048,0.048,0,117,117,61,1,threefour,,,,,,,,,,,,,,,,,,,,,,,,,,,,,,,,,,,,,,,,,,,,,,,,,,,,,,,,,,,,,,,,,,,,,,,,,,,,,,,,,,,,,,,,,,,,,,,,,,,,,,,,,,,,,,,,,,,,,,,,,,,,,,,,,,,,,,,,,
,,5f285902166da3151b01faf2,2024-02-22_03h25.46.473,kallum_motion_pilot,2023.2.2,MacIntel,59.88023952,5f285902166da3151b01faf2,65d6bb0e977760de756971f7,65d6bea9c7c0f830c49a8d8e,0.0481,0.0481,0,118,118,13,1,threefour,,,,,,,,,,,,,,,,,,,,,,,,,,,,,,,,,,,,,,,,,,,,,,,,,,,,,,,,,,,,,,,,,,,,,,,,,,,,,,,,,,,,,,,,,,,,,,,,,,,,,,,,,,,,,,,,,,,,,,,,,,,,,,,,,,,,,,,,,
,,5f285902166da3151b01faf2,2024-02-22_03h25.46.473,kallum_motion_pilot,2023.2.2,MacIntel,59.88023952,5f285902166da3151b01faf2,65d6bb0e977760de756971f7,65d6bea9c7c0f830c49a8d8e,0.0482,0.0483,0,119,119,100,1,sevenfive,,,,,,,,,,,,,,,,,,,,,,,,,,,,,,,,,,,,,,,,,,,,,,,,,,,,,,,,,,,,,,,,,,,,,,,,,,,,,,,,,,,,,,,,,,,,,,,,,,,,,,,,,,,,,,,,,,,,,,,,,,,,,,,,,,,,,,,,,
,,5f285902166da3151b01faf2,2024-02-22_03h25.46.473,kallum_motion_pilot,2023.2.2,MacIntel,59.88023952,5f285902166da3151b01faf2,65d6bb0e977760de756971f7,65d6bea9c7c0f830c49a8d8e,0.0484,0.0484,0,120,120,120,1,fivesix,,,,,,,,,,,,,,,,,,,,,,,,,,,,,,,,,,,,,,,,,,,,,,,,,,,,,,,,,,,,,,,,,,,,,,,,,,,,,,,,,,,,,,,,,,,,,,,,,,,,,,,,,,,,,,,,,,,,,,,,,,,,,,,,,,,,,,,,,
,,5f285902166da3151b01faf2,2024-02-22_03h25.46.473,kallum_motion_pilot,2023.2.2,MacIntel,59.88023952,5f285902166da3151b01faf2,65d6bb0e977760de756971f7,65d6bea9c7c0f830c49a8d8e,0.0485,0.0485,0,121,121,43,1,twofour,,,,,,,,,,,,,,,,,,,,,,,,,,,,,,,,,,,,,,,,,,,,,,,,,,,,,,,,,,,,,,,,,,,,,,,,,,,,,,,,,,,,,,,,,,,,,,,,,,,,,,,,,,,,,,,,,,,,,,,,,,,,,,,,,,,,,,,,,
,,5f285902166da3151b01faf2,2024-02-22_03h25.46.473,kallum_motion_pilot,2023.2.2,MacIntel,59.88023952,5f285902166da3151b01faf2,65d6bb0e977760de756971f7,65d6bea9c7c0f830c49a8d8e,0.0486,0.0487,0,122,122,0,1,onetwo,,,,,,,,,,,,,,,,,,,,,,,,,,,,,,,,,,,,,,,,,,,,,,,,,,,,,,,,,,,,,,,,,,,,,,,,,,,,,,,,,,,,,,,,,,,,,,,,,,,,,,,,,,,,,,,,,,,,,,,,,,,,,,,,,,,,,,,,,
,,5f285902166da3151b01faf2,2024-02-22_03h25.46.473,kallum_motion_pilot,2023.2.2,MacIntel,59.88023952,5f285902166da3151b01faf2,65d6bb0e977760de756971f7,65d6bea9c7c0f830c49a8d8e,0.0488,0.0489,0,123,123,34,1,twoone,,,,,,,,,,,,,,,,,,,,,,,,,,,,,,,,,,,,,,,,,,,,,,,,,,,,,,,,,,,,,,,,,,,,,,,,,,,,,,,,,,,,,,,,,,,,,,,,,,,,,,,,,,,,,,,,,,,,,,,,,,,,,,,,,,,,,,,,,
,,5f285902166da3151b01faf2,2024-02-22_03h25.46.473,kallum_motion_pilot,2023.2.2,MacIntel,59.88023952,5f285902166da3151b01faf2,65d6bb0e977760de756971f7,65d6bea9c7c0f830c49a8d8e,0.0489,0.049,0,124,124,99,1,sixeight,,,,,,,,,,,,,,,,,,,,,,,,,,,,,,,,,,,,,,,,,,,,,,,,,,,,,,,,,,,,,,,,,,,,,,,,,,,,,,,,,,,,,,,,,,,,,,,,,,,,,,,,,,,,,,,,,,,,,,,,,,,,,,,,,,,,,,,,,
,,5f285902166da3151b01faf2,2024-02-22_03h25.46.473,kallum_motion_pilot,2023.2.2,MacIntel,59.88023952,5f285902166da3151b01faf2,65d6bb0e977760de756971f7,65d6bea9c7c0f830c49a8d8e,0.049,0.0492,0,125,125,119,1,eightseven,,,,,,,,,,,,,,,,,,,,,,,,,,,,,,,,,,,,,,,,,,,,,,,,,,,,,,,,,,,,,,,,,,,,,,,,,,,,,,,,,,,,,,,,,,,,,,,,,,,,,,,,,,,,,,,,,,,,,,,,,,,,,,,,,,,,,,,,,
,,5f285902166da3151b01faf2,2024-02-22_03h25.46.473,kallum_motion_pilot,2023.2.2,MacIntel,59.88023952,5f285902166da3151b01faf2,65d6bb0e977760de756971f7,65d6bea9c7c0f830c49a8d8e,0.0492,0.0492,0,126,126,116,1,sevenfive,,,,,,,,,,,,,,,,,,,,,,,,,,,,,,,,,,,,,,,,,,,,,,,,,,,,,,,,,,,,,,,,,,,,,,,,,,,,,,,,,,,,,,,,,,,,,,,,,,,,,,,,,,,,,,,,,,,,,,,,,,,,,,,,,,,,,,,,,
,,5f285902166da3151b01faf2,2024-02-22_03h25.46.473,kallum_motion_pilot,2023.2.2,MacIntel,59.88023952,5f285902166da3151b01faf2,65d6bb0e977760de756971f7,65d6bea9c7c0f830c49a8d8e,0.0494,0.0494,0,127,127,65,1,onethree,,,,,,,,,,,,,,,,,,,,,,,,,,,,,,,,,,,,,,,,,,,,,,,,,,,,,,,,,,,,,,,,,,,,,,,,,,,,,,,,,,,,,,,,,,,,,,,,,,,,,,,,,,,,,,,,,,,,,,,,,,,,,,,,,,,,,,,,,
,,5f285902166da3151b01faf2,2024-02-22_03h25.46.473,kallum_motion_pilot,2023.2.2,MacIntel,59.88023952,5f285902166da3151b01faf2,65d6bb0e977760de756971f7,65d6bea9c7c0f830c49a8d8e,0.0495,0.0496,0,128,128,94,1,eightsix,,,,,,,,,,,,,,,,,,,,,,,,,,,,,,,,,,,,,,,,,,,,,,,,,,,,,,,,,,,,,,,,,,,,,,,,,,,,,,,,,,,,,,,,,,,,,,,,,,,,,,,,,,,,,,,,,,,,,,,,,,,,,,,,,,,,,,,,,
,,5f285902166da3151b01faf2,2024-02-22_03h25.46.473,kallum_motion_pilot,2023.2.2,MacIntel,59.88023952,5f285902166da3151b01faf2,65d6bb0e977760de756971f7,65d6bea9c7c0f830c49a8d8e,0.0497,0.0497,0,129,129,112,1,fivesix,,,,,,,,,,,,,,,,,,,,,,,,,,,,,,,,,,,,,,,,,,,,,,,,,,,,,,,,,,,,,,,,,,,,,,,,,,,,,,,,,,,,,,,,,,,,,,,,,,,,,,,,,,,,,,,,,,,,,,,,,,,,,,,,,,,,,,,,,
,,5f285902166da3151b01faf2,2024-02-22_03h25.46.473,kallum_motion_pilot,2023.2.2,MacIntel,59.88023952,5f285902166da3151b01faf2,65d6bb0e977760de756971f7,65d6bea9c7c0f830c49a8d8e,0.0497,0.0498,0,130,130,33,1,onethree,,,,,,,,,,,,,,,,,,,,,,,,,,,,,,,,,,,,,,,,,,,,,,,,,,,,,,,,,,,,,,,,,,,,,,,,,,,,,,,,,,,,,,,,,,,,,,,,,,,,,,,,,,,,,,,,,,,,,,,,,,,,,,,,,,,,,,,,,
,,5f285902166da3151b01faf2,2024-02-22_03h25.46.473,kallum_motion_pilot,2023.2.2,MacIntel,59.88023952,5f285902166da3151b01faf2,65d6bb0e977760de756971f7,65d6bea9c7c0f830c49a8d8e,0.0499,0.05,0,131,131,82,1,sixfive,,,,,,,,,,,,,,,,,,,,,,,,,,,,,,,,,,,,,,,,,,,,,,,,,,,,,,,,,,,,,,,,,,,,,,,,,,,,,,,,,,,,,,,,,,,,,,,,,,,,,,,,,,,,,,,,,,,,,,,,,,,,,,,,,,,,,,,,,
,,5f285902166da3151b01faf2,2024-02-22_03h25.46.473,kallum_motion_pilot,2023.2.2,MacIntel,59.88023952,5f285902166da3151b01faf2,65d6bb0e977760de756971f7,65d6bea9c7c0f830c49a8d8e,0.05,0.0501,0,132,132,104,1,fivesix,,,,,,,,,,,,,,,,,,,,,,,,,,,,,,,,,,,,,,,,,,,,,,,,,,,,,,,,,,,,,,,,,,,,,,,,,,,,,,,,,,,,,,,,,,,,,,,,,,,,,,,,,,,,,,,,,,,,,,,,,,,,,,,,,,,,,,,,,
,,5f285902166da3151b01faf2,2024-02-22_03h25.46.473,kallum_motion_pilot,2023.2.2,MacIntel,59.88023952,5f285902166da3151b01faf2,65d6bb0e977760de756971f7,65d6bea9c7c0f830c49a8d8e,0.0502,0.0502,0,133,133,156,1,sevenfive,,,,,,,,,,,,,,,,,,,,,,,,,,,,,,,,,,,,,,,,,,,,,,,,,,,,,,,,,,,,,,,,,,,,,,,,,,,,,,,,,,,,,,,,,,,,,,,,,,,,,,,,,,,,,,,,,,,,,,,,,,,,,,,,,,,,,,,,,
,,5f285902166da3151b01faf2,2024-02-22_03h25.46.473,kallum_motion_pilot,2023.2.2,MacIntel,59.88023952,5f285902166da3151b01faf2,65d6bb0e977760de756971f7,65d6bea9c7c0f830c49a8d8e,0.0503,0.0503,0,134,134,15,1,fourthree,,,,,,,,,,,,,,,,,,,,,,,,,,,,,,,,,,,,,,,,,,,,,,,,,,,,,,,,,,,,,,,,,,,,,,,,,,,,,,,,,,,,,,,,,,,,,,,,,,,,,,,,,,,,,,,,,,,,,,,,,,,,,,,,,,,,,,,,,
,,5f285902166da3151b01faf2,2024-02-22_03h25.46.473,kallum_motion_pilot,2023.2.2,MacIntel,59.88023952,5f285902166da3151b01faf2,65d6bb0e977760de756971f7,65d6bea9c7c0f830c49a8d8e,0.0504,0.0504,0,135,135,47,1,fourthree,,,,,,,,,,,,,,,,,,,,,,,,,,,,,,,,,,,,,,,,,,,,,,,,,,,,,,,,,,,,,,,,,,,,,,,,,,,,,,,,,,,,,,,,,,,,,,,,,,,,,,,,,,,,,,,,,,,,,,,,,,,,,,,,,,,,,,,,,
,,5f285902166da3151b01faf2,2024-02-22_03h25.46.473,kallum_motion_pilot,2023.2.2,MacIntel,59.88023952,5f285902166da3151b01faf2,65d6bb0e977760de756971f7,65d6bea9c7c0f830c49a8d8e,0.0506,0.0506,0,136,136,37,1,threefour,,,,,,,,,,,,,,,,,,,,,,,,,,,,,,,,,,,,,,,,,,,,,,,,,,,,,,,,,,,,,,,,,,,,,,,,,,,,,,,,,,,,,,,,,,,,,,,,,,,,,,,,,,,,,,,,,,,,,,,,,,,,,,,,,,,,,,,,,
,,5f285902166da3151b01faf2,2024-02-22_03h25.46.473,kallum_motion_pilot,2023.2.2,MacIntel,59.88023952,5f285902166da3151b01faf2,65d6bb0e977760de756971f7,65d6bea9c7c0f830c49a8d8e,0.0506,0.0508,0,137,137,93,1,seveneight,,,,,,,,,,,,,,,,,,,,,,,,,,,,,,,,,,,,,,,,,,,,,,,,,,,,,,,,,,,,,,,,,,,,,,,,,,,,,,,,,,,,,,,,,,,,,,,,,,,,,,,,,,,,,,,,,,,,,,,,,,,,,,,,,,,,,,,,,
,,5f285902166da3151b01faf2,2024-02-22_03h25.46.473,kallum_motion_pilot,2023.2.2,MacIntel,59.88023952,5f285902166da3151b01faf2,65d6bb0e977760de756971f7,65d6bea9c7c0f830c49a8d8e,0.0508,0.0509,0,138,138,114,1,sixfive,,,,,,,,,,,,,,,,,,,,,,,,,,,,,,,,,,,,,,,,,,,,,,,,,,,,,,,,,,,,,,,,,,,,,,,,,,,,,,,,,,,,,,,,,,,,,,,,,,,,,,,,,,,,,,,,,,,,,,,,,,,,,,,,,,,,,,,,,
,,5f285902166da3151b01faf2,2024-02-22_03h25.46.473,kallum_motion_pilot,2023.2.2,MacIntel,59.88023952,5f285902166da3151b01faf2,65d6bb0e977760de756971f7,65d6bea9c7c0f830c49a8d8e,0.0509,0.051,0,139,139,132,1,sevenfive,,,,,,,,,,,,,,,,,,,,,,,,,,,,,,,,,,,,,,,,,,,,,,,,,,,,,,,,,,,,,,,,,,,,,,,,,,,,,,,,,,,,,,,,,,,,,,,,,,,,,,,,,,,,,,,,,,,,,,,,,,,,,,,,,,,,,,,,,
,,5f285902166da3151b01faf2,2024-02-22_03h25.46.473,kallum_motion_pilot,2023.2.2,MacIntel,59.88023952,5f285902166da3151b01faf2,65d6bb0e977760de756971f7,65d6bea9c7c0f830c49a8d8e,0.0511,0.0511,0,140,140,115,1,sixeight,,,,,,,,,,,,,,,,,,,,,,,,,,,,,,,,,,,,,,,,,,,,,,,,,,,,,,,,,,,,,,,,,,,,,,,,,,,,,,,,,,,,,,,,,,,,,,,,,,,,,,,,,,,,,,,,,,,,,,,,,,,,,,,,,,,,,,,,,
,,5f285902166da3151b01faf2,2024-02-22_03h25.46.473,kallum_motion_pilot,2023.2.2,MacIntel,59.88023952,5f285902166da3151b01faf2,65d6bb0e977760de756971f7,65d6bea9c7c0f830c49a8d8e,0.0512,0.0513,0,141,141,103,1,eightseven,,,,,,,,,,,,,,,,,,,,,,,,,,,,,,,,,,,,,,,,,,,,,,,,,,,,,,,,,,,,,,,,,,,,,,,,,,,,,,,,,,,,,,,,,,,,,,,,,,,,,,,,,,,,,,,,,,,,,,,,,,,,,,,,,,,,,,,,,
,,5f285902166da3151b01faf2,2024-02-22_03h25.46.473,kallum_motion_pilot,2023.2.2,MacIntel,59.88023952,5f285902166da3151b01faf2,65d6bb0e977760de756971f7,65d6bea9c7c0f830c49a8d8e,0.0513,0.0514,0,142,142,85,1,seveneight,,,,,,,,,,,,,,,,,,,,,,,,,,,,,,,,,,,,,,,,,,,,,,,,,,,,,,,,,,,,,,,,,,,,,,,,,,,,,,,,,,,,,,,,,,,,,,,,,,,,,,,,,,,,,,,,,,,,,,,,,,,,,,,,,,,,,,,,,
,,5f285902166da3151b01faf2,2024-02-22_03h25.46.473,kallum_motion_pilot,2023.2.2,MacIntel,59.88023952,5f285902166da3151b01faf2,65d6bb0e977760de756971f7,65d6bea9c7c0f830c49a8d8e,0.0515,0.0516,0,143,143,12,1,threeone,,,,,,,,,,,,,,,,,,,,,,,,,,,,,,,,,,,,,,,,,,,,,,,,,,,,,,,,,,,,,,,,,,,,,,,,,,,,,,,,,,,,,,,,,,,,,,,,,,,,,,,,,,,,,,,,,,,,,,,,,,,,,,,,,,,,,,,,,
,,5f285902166da3151b01faf2,2024-02-22_03h25.46.473,kallum_motion_pilot,2023.2.2,MacIntel,59.88023952,5f285902166da3151b01faf2,65d6bb0e977760de756971f7,65d6bea9c7c0f830c49a8d8e,0.0516,0.0516,0,144,144,144,1,fivesix,,,,,,,,,,,,,,,,,,,,,,,,,,,,,,,,,,,,,,,,,,,,,,,,,,,,,,,,,,,,,,,,,,,,,,,,,,,,,,,,,,,,,,,,,,,,,,,,,,,,,,,,,,,,,,,,,,,,,,,,,,,,,,,,,,,,,,,,,
,,5f285902166da3151b01faf2,2024-02-22_03h25.46.473,kallum_motion_pilot,2023.2.2,MacIntel,59.88023952,5f285902166da3151b01faf2,65d6bb0e977760de756971f7,65d6bea9c7c0f830c49a8d8e,0.0518,0.0518,0,145,145,154,1,sixfive,,,,,,,,,,,,,,,,,,,,,,,,,,,,,,,,,,,,,,,,,,,,,,,,,,,,,,,,,,,,,,,,,,,,,,,,,,,,,,,,,,,,,,,,,,,,,,,,,,,,,,,,,,,,,,,,,,,,,,,,,,,,,,,,,,,,,,,,,
,,5f285902166da3151b01faf2,2024-02-22_03h25.46.473,kallum_motion_pilot,2023.2.2,MacIntel,59.88023952,5f285902166da3151b01faf2,65d6bb0e977760de756971f7,65d6bea9c7c0f830c49a8d8e,0.0518,0.0519,0,146,146,30,1,fourtwo,,,,,,,,,,,,,,,,,,,,,,,,,,,,,,,,,,,,,,,,,,,,,,,,,,,,,,,,,,,,,,,,,,,,,,,,,,,,,,,,,,,,,,,,,,,,,,,,,,,,,,,,,,,,,,,,,,,,,,,,,,,,,,,,,,,,,,,,,
,,5f285902166da3151b01faf2,2024-02-22_03h25.46.473,kallum_motion_pilot,2023.2.2,MacIntel,59.88023952,5f285902166da3151b01faf2,65d6bb0e977760de756971f7,65d6bea9c7c0f830c49a8d8e,0.052,0.0521,0,147,147,140,1,sevenfive,,,,,,,,,,,,,,,,,,,,,,,,,,,,,,,,,,,,,,,,,,,,,,,,,,,,,,,,,,,,,,,,,,,,,,,,,,,,,,,,,,,,,,,,,,,,,,,,,,,,,,,,,,,,,,,,,,,,,,,,,,,,,,,,,,,,,,,,,
,,5f285902166da3151b01faf2,2024-02-22_03h25.46.473,kallum_motion_pilot,2023.2.2,MacIntel,59.88023952,5f285902166da3151b01faf2,65d6bb0e977760de756971f7,65d6bea9c7c0f830c49a8d8e,0.0521,0.0522,0,148,148,136,1,fivesix,,,,,,,,,,,,,,,,,,,,,,,,,,,,,,,,,,,,,,,,,,,,,,,,,,,,,,,,,,,,,,,,,,,,,,,,,,,,,,,,,,,,,,,,,,,,,,,,,,,,,,,,,,,,,,,,,,,,,,,,,,,,,,,,,,,,,,,,,
,,5f285902166da3151b01faf2,2024-02-22_03h25.46.473,kallum_motion_pilot,2023.2.2,MacIntel,59.88023952,5f285902166da3151b01faf2,65d6bb0e977760de756971f7,65d6bea9c7c0f830c49a8d8e,0.0523,0.0523,0,149,149,8,1,onetwo,,,,,,,,,,,,,,,,,,,,,,,,,,,,,,,,,,,,,,,,,,,,,,,,,,,,,,,,,,,,,,,,,,,,,,,,,,,,,,,,,,,,,,,,,,,,,,,,,,,,,,,,,,,,,,,,,,,,,,,,,,,,,,,,,,,,,,,,,
,,5f285902166da3151b01faf2,2024-02-22_03h25.46.473,kallum_motion_pilot,2023.2.2,MacIntel,59.88023952,5f285902166da3151b01faf2,65d6bb0e977760de756971f7,65d6bea9c7c0f830c49a8d8e,0.0524,0.0525,0,150,150,150,1,eightsix,,,,,,,,,,,,,,,,,,,,,,,,,,,,,,,,,,,,,,,,,,,,,,,,,,,,,,,,,,,,,,,,,,,,,,,,,,,,,,,,,,,,,,,,,,,,,,,,,,,,,,,,,,,,,,,,,,,,,,,,,,,,,,,,,,,,,,,,,
,,5f285902166da3151b01faf2,2024-02-22_03h25.46.473,kallum_motion_pilot,2023.2.2,MacIntel,59.88023952,5f285902166da3151b01faf2,65d6bb0e977760de756971f7,65d6bea9c7c0f830c49a8d8e,0.0526,0.0526,0,151,151,80,1,fivesix,,,,,,,,,,,,,,,,,,,,,,,,,,,,,,,,,,,,,,,,,,,,,,,,,,,,,,,,,,,,,,,,,,,,,,,,,,,,,,,,,,,,,,,,,,,,,,,,,,,,,,,,,,,,,,,,,,,,,,,,,,,,,,,,,,,,,,,,,
,,5f285902166da3151b01faf2,2024-02-22_03h25.46.473,kallum_motion_pilot,2023.2.2,MacIntel,59.88023952,5f285902166da3151b01faf2,65d6bb0e977760de756971f7,65d6bea9c7c0f830c49a8d8e,0.0527,0.0527,0,152,152,133,1,seveneight,,,,,,,,,,,,,,,,,,,,,,,,,,,,,,,,,,,,,,,,,,,,,,,,,,,,,,,,,,,,,,,,,,,,,,,,,,,,,,,,,,,,,,,,,,,,,,,,,,,,,,,,,,,,,,,,,,,,,,,,,,,,,,,,,,,,,,,,,
,,5f285902166da3151b01faf2,2024-02-22_03h25.46.473,kallum_motion_pilot,2023.2.2,MacIntel,59.88023952,5f285902166da3151b01faf2,65d6bb0e977760de756971f7,65d6bea9c7c0f830c49a8d8e,0.0529,0.0529,0,153,153,2,1,twoone,,,,,,,,,,,,,,,,,,,,,,,,,,,,,,,,,,,,,,,,,,,,,,,,,,,,,,,,,,,,,,,,,,,,,,,,,,,,,,,,,,,,,,,,,,,,,,,,,,,,,,,,,,,,,,,,,,,,,,,,,,,,,,,,,,,,,,,,,
,,5f285902166da3151b01faf2,2024-02-22_03h25.46.473,kallum_motion_pilot,2023.2.2,MacIntel,59.88023952,5f285902166da3151b01faf2,65d6bb0e977760de756971f7,65d6bea9c7c0f830c49a8d8e,0.0535,0.0535,0,154,154,49,1,onethree,,,,,,,,,,,,,,,,,,,,,,,,,,,,,,,,,,,,,,,,,,,,,,,,,,,,,,,,,,,,,,,,,,,,,,,,,,,,,,,,,,,,,,,,,,,,,,,,,,,,,,,,,,,,,,,,,,,,,,,,,,,,,,,,,,,,,,,,,
,,5f285902166da3151b01faf2,2024-02-22_03h25.46.473,kallum_motion_pilot,2023.2.2,MacIntel,59.88023952,5f285902166da3151b01faf2,65d6bb0e977760de756971f7,65d6bea9c7c0f830c49a8d8e,0.0537,0.0537,0,155,155,113,1,fiveseven,,,,,,,,,,,,,,,,,,,,,,,,,,,,,,,,,,,,,,,,,,,,,,,,,,,,,,,,,,,,,,,,,,,,,,,,,,,,,,,,,,,,,,,,,,,,,,,,,,,,,,,,,,,,,,,,,,,,,,,,,,,,,,,,,,,,,,,,,
,,5f285902166da3151b01faf2,2024-02-22_03h25.46.473,kallum_motion_pilot,2023.2.2,MacIntel,59.88023952,5f285902166da3151b01faf2,65d6bb0e977760de756971f7,65d6bea9c7c0f830c49a8d8e,0.0537,0.0538,0,156,156,121,1,fiveseven,,,,,,,,,,,,,,,,,,,,,,,,,,,,,,,,,,,,,,,,,,,,,,,,,,,,,,,,,,,,,,,,,,,,,,,,,,,,,,,,,,,,,,,,,,,,,,,,,,,,,,,,,,,,,,,,,,,,,,,,,,,,,,,,,,,,,,,,,
,,5f285902166da3151b01faf2,2024-02-22_03h25.46.473,kallum_motion_pilot,2023.2.2,MacIntel,59.88023952,5f285902166da3151b01faf2,65d6bb0e977760de756971f7,65d6bea9c7c0f830c49a8d8e,0.0539,0.054,0,157,157,137,1,fiveseven,,,,,,,,,,,,,,,,,,,,,,,,,,,,,,,,,,,,,,,,,,,,,,,,,,,,,,,,,,,,,,,,,,,,,,,,,,,,,,,,,,,,,,,,,,,,,,,,,,,,,,,,,,,,,,,,,,,,,,,,,,,,,,,,,,,,,,,,,
,,5f285902166da3151b01faf2,2024-02-22_03h25.46.473,kallum_motion_pilot,2023.2.2,MacIntel,59.88023952,5f285902166da3151b01faf2,65d6bb0e977760de756971f7,65d6bea9c7c0f830c49a8d8e,0.0541,0.0542,0,158,158,53,1,threefour,,,,,,,,,,,,,,,,,,,,,,,,,,,,,,,,,,,,,,,,,,,,,,,,,,,,,,,,,,,,,,,,,,,,,,,,,,,,,,,,,,,,,,,,,,,,,,,,,,,,,,,,,,,,,,,,,,,,,,,,,,,,,,,,,,,,,,,,,
,,5f285902166da3151b01faf2,2024-02-22_03h25.46.473,kallum_motion_pilot,2023.2.2,MacIntel,59.88023952,5f285902166da3151b01faf2,65d6bb0e977760de756971f7,65d6bea9c7c0f830c49a8d8e,0.0542,0.0542,0,159,159,134,1,eightsix,,,,,,,,,,,,,,,,,,,,,,,,,,,,,,,,,,,,,,,,,,,,,,,,,,,,,,,,,,,,,,,,,,,,,,,,,,,,,,,,,,,,,,,,,,,,,,,,,,,,,,,,,,,,,,,,,,,,,,,,,,,,,,,,,,,,,,,,,
,,5f285902166da3151b01faf2,2024-02-22_03h25.46.473,kallum_motion_pilot,2023.2.2,MacIntel,59.88023952,5f285902166da3151b01faf2,65d6bb0e977760de756971f7,65d6bea9c7c0f830c49a8d8e,0.0543,0.0544,0,160,160,97,1,fiveseven,,,,,,,,,,,,,,,,,,,,,,,,,,,,,,,,,,,,,,,,,,,,,,,,,,,,,,,,,,,,,,,,,,,,,,,,,,,,,,,,,,,,,,,,,,,,,,,,,,,,,,,,,,,,,,,,,,,,,,,,,,,,,,,,,,,,,,,,,
,,5f285902166da3151b01faf2,2024-02-22_03h25.46.473,kallum_motion_pilot,2023.2.2,MacIntel,59.88023952,5f285902166da3151b01faf2,65d6bb0e977760de756971f7,65d6bea9c7c0f830c49a8d8e,0.0545,0.0545,0,161,161,56,1,onetwo,,,,,,,,,,,,,,,,,,,,,,,,,,,,,,,,,,,,,,,,,,,,,,,,,,,,,,,,,,,,,,,,,,,,,,,,,,,,,,,,,,,,,,,,,,,,,,,,,,,,,,,,,,,,,,,,,,,,,,,,,,,,,,,,,,,,,,,,,
,,5f285902166da3151b01faf2,2024-02-22_03h25.46.473,kallum_motion_pilot,2023.2.2,MacIntel,59.88023952,5f285902166da3151b01faf2,65d6bb0e977760de756971f7,65d6bea9c7c0f830c49a8d8e,0.0547,0.0548,1,0,162,81,1,fiveseven,,,,,,,,,,,,,,,,,,,,,,,,,,,,,,,,,,,,,,,,,,,,,,,,,,,,,,,,,,,,,,,,,,,,,,,,,,,,,,,,,,,,,,,,,,,,,,,,,,,,,,,,,,,,,,,,,,,,,,,,,,,,,,,,,,,,,,,,,
,,5f285902166da3151b01faf2,2024-02-22_03h25.46.473,kallum_motion_pilot,2023.2.2,MacIntel,59.88023952,5f285902166da3151b01faf2,65d6bb0e977760de756971f7,65d6bea9c7c0f830c49a8d8e,0.0548,0.0549,1,1,163,152,1,fivesix,,,,,,,,,,,,,,,,,,,,,,,,,,,,,,,,,,,,,,,,,,,,,,,,,,,,,,,,,,,,,,,,,,,,,,,,,,,,,,,,,,,,,,,,,,,,,,,,,,,,,,,,,,,,,,,,,,,,,,,,,,,,,,,,,,,,,,,,,
,,5f285902166da3151b01faf2,2024-02-22_03h25.46.473,kallum_motion_pilot,2023.2.2,MacIntel,59.88023952,5f285902166da3151b01faf2,65d6bb0e977760de756971f7,65d6bea9c7c0f830c49a8d8e,0.055,0.0551,1,2,164,128,1,fivesix,,,,,,,,,,,,,,,,,,,,,,,,,,,,,,,,,,,,,,,,,,,,,,,,,,,,,,,,,,,,,,,,,,,,,,,,,,,,,,,,,,,,,,,,,,,,,,,,,,,,,,,,,,,,,,,,,,,,,,,,,,,,,,,,,,,,,,,,,
,,5f285902166da3151b01faf2,2024-02-22_03h25.46.473,kallum_motion_pilot,2023.2.2,MacIntel,59.88023952,5f285902166da3151b01faf2,65d6bb0e977760de756971f7,65d6bea9c7c0f830c49a8d8e,0.0551,0.0552,1,3,165,93,1,seveneight,,,,,,,,,,,,,,,,,,,,,,,,,,,,,,,,,,,,,,,,,,,,,,,,,,,,,,,,,,,,,,,,,,,,,,,,,,,,,,,,,,,,,,,,,,,,,,,,,,,,,,,,,,,,,,,,,,,,,,,,,,,,,,,,,,,,,,,,,
,,5f285902166da3151b01faf2,2024-02-22_03h25.46.473,kallum_motion_pilot,2023.2.2,MacIntel,59.88023952,5f285902166da3151b01faf2,65d6bb0e977760de756971f7,65d6bea9c7c0f830c49a8d8e,0.0554,0.0555,1,4,166,110,1,eightsix,,,,,,,,,,,,,,,,,,,,,,,,,,,,,,,,,,,,,,,,,,,,,,,,,,,,,,,,,,,,,,,,,,,,,,,,,,,,,,,,,,,,,,,,,,,,,,,,,,,,,,,,,,,,,,,,,,,,,,,,,,,,,,,,,,,,,,,,,
,,5f285902166da3151b01faf2,2024-02-22_03h25.46.473,kallum_motion_pilot,2023.2.2,MacIntel,59.88023952,5f285902166da3151b01faf2,65d6bb0e977760de756971f7,65d6bea9c7c0f830c49a8d8e,0.0557,0.0557,1,5,167,119,1,eightseven,,,,,,,,,,,,,,,,,,,,,,,,,,,,,,,,,,,,,,,,,,,,,,,,,,,,,,,,,,,,,,,,,,,,,,,,,,,,,,,,,,,,,,,,,,,,,,,,,,,,,,,,,,,,,,,,,,,,,,,,,,,,,,,,,,,,,,,,,
,,5f285902166da3151b01faf2,2024-02-22_03h25.46.473,kallum_motion_pilot,2023.2.2,MacIntel,59.88023952,5f285902166da3151b01faf2,65d6bb0e977760de756971f7,65d6bea9c7c0f830c49a8d8e,0.0558,0.0559,1,6,168,95,1,eightseven,,,,,,,,,,,,,,,,,,,,,,,,,,,,,,,,,,,,,,,,,,,,,,,,,,,,,,,,,,,,,,,,,,,,,,,,,,,,,,,,,,,,,,,,,,,,,,,,,,,,,,,,,,,,,,,,,,,,,,,,,,,,,,,,,,,,,,,,,
,,5f285902166da3151b01faf2,2024-02-22_03h25.46.473,kallum_motion_pilot,2023.2.2,MacIntel,59.88023952,5f285902166da3151b01faf2,65d6bb0e977760de756971f7,65d6bea9c7c0f830c49a8d8e,0.056,0.056,1,7,169,50,1,twoone,,,,,,,,,,,,,,,,,,,,,,,,,,,,,,,,,,,,,,,,,,,,,,,,,,,,,,,,,,,,,,,,,,,,,,,,,,,,,,,,,,,,,,,,,,,,,,,,,,,,,,,,,,,,,,,,,,,,,,,,,,,,,,,,,,,,,,,,,
,,5f285902166da3151b01faf2,2024-02-22_03h25.46.473,kallum_motion_pilot,2023.2.2,MacIntel,59.88023952,5f285902166da3151b01faf2,65d6bb0e977760de756971f7,65d6bea9c7c0f830c49a8d8e,0.0562,0.0562,1,8,170,64,1,onetwo,,,,,,,,,,,,,,,,,,,,,,,,,,,,,,,,,,,,,,,,,,,,,,,,,,,,,,,,,,,,,,,,,,,,,,,,,,,,,,,,,,,,,,,,,,,,,,,,,,,,,,,,,,,,,,,,,,,,,,,,,,,,,,,,,,,,,,,,,
,,5f285902166da3151b01faf2,2024-02-22_03h25.46.473,kallum_motion_pilot,2023.2.2,MacIntel,59.88023952,5f285902166da3151b01faf2,65d6bb0e977760de756971f7,65d6bea9c7c0f830c49a8d8e,0.0563,0.0564,1,9,171,133,1,seveneight,,,,,,,,,,,,,,,,,,,,,,,,,,,,,,,,,,,,,,,,,,,,,,,,,,,,,,,,,,,,,,,,,,,,,,,,,,,,,,,,,,,,,,,,,,,,,,,,,,,,,,,,,,,,,,,,,,,,,,,,,,,,,,,,,,,,,,,,,
,,5f285902166da3151b01faf2,2024-02-22_03h25.46.473,kallum_motion_pilot,2023.2.2,MacIntel,59.88023952,5f285902166da3151b01faf2,65d6bb0e977760de756971f7,65d6bea9c7c0f830c49a8d8e,0.0565,0.0566,1,10,172,153,1,fiveseven,,,,,,,,,,,,,,,,,,,,,,,,,,,,,,,,,,,,,,,,,,,,,,,,,,,,,,,,,,,,,,,,,,,,,,,,,,,,,,,,,,,,,,,,,,,,,,,,,,,,,,,,,,,,,,,,,,,,,,,,,,,,,,,,,,,,,,,,,
,,5f285902166da3151b01faf2,2024-02-22_03h25.46.473,kallum_motion_pilot,2023.2.2,MacIntel,59.88023952,5f285902166da3151b01faf2,65d6bb0e977760de756971f7,65d6bea9c7c0f830c49a8d8e,0.0566,0.0567,1,11,173,136,1,fivesix,,,,,,,,,,,,,,,,,,,,,,,,,,,,,,,,,,,,,,,,,,,,,,,,,,,,,,,,,,,,,,,,,,,,,,,,,,,,,,,,,,,,,,,,,,,,,,,,,,,,,,,,,,,,,,,,,,,,,,,,,,,,,,,,,,,,,,,,,
,,5f285902166da3151b01faf2,2024-02-22_03h25.46.473,kallum_motion_pilot,2023.2.2,MacIntel,59.88023952,5f285902166da3151b01faf2,65d6bb0e977760de756971f7,65d6bea9c7c0f830c49a8d8e,0.0568,0.0569,1,12,174,9,1,onethree,,,,,,,,,,,,,,,,,,,,,,,,,,,,,,,,,,,,,,,,,,,,,,,,,,,,,,,,,,,,,,,,,,,,,,,,,,,,,,,,,,,,,,,,,,,,,,,,,,,,,,,,,,,,,,,,,,,,,,,,,,,,,,,,,,,,,,,,,
,,5f285902166da3151b01faf2,2024-02-22_03h25.46.473,kallum_motion_pilot,2023.2.2,MacIntel,59.88023952,5f285902166da3151b01faf2,65d6bb0e977760de756971f7,65d6bea9c7c0f830c49a8d8e,0.0569,0.057,1,13,175,146,1,sixfive,,,,,,,,,,,,,,,,,,,,,,,,,,,,,,,,,,,,,,,,,,,,,,,,,,,,,,,,,,,,,,,,,,,,,,,,,,,,,,,,,,,,,,,,,,,,,,,,,,,,,,,,,,,,,,,,,,,,,,,,,,,,,,,,,,,,,,,,,
,,5f285902166da3151b01faf2,2024-02-22_03h25.46.473,kallum_motion_pilot,2023.2.2,MacIntel,59.88023952,5f285902166da3151b01faf2,65d6bb0e977760de756971f7,65d6bea9c7c0f830c49a8d8e,0.0571,0.0574,1,14,176,2,1,twoone,,,,,,,,,,,,,,,,,,,,,,,,,,,,,,,,,,,,,,,,,,,,,,,,,,,,,,,,,,,,,,,,,,,,,,,,,,,,,,,,,,,,,,,,,,,,,,,,,,,,,,,,,,,,,,,,,,,,,,,,,,,,,,,,,,,,,,,,,
,,5f285902166da3151b01faf2,2024-02-22_03h25.46.473,kallum_motion_pilot,2023.2.2,MacIntel,59.88023952,5f285902166da3151b01faf2,65d6bb0e977760de756971f7,65d6bea9c7c0f830c49a8d8e,0.0579,0.058,1,15,177,30,1,fourtwo,,,,,,,,,,,,,,,,,,,,,,,,,,,,,,,,,,,,,,,,,,,,,,,,,,,,,,,,,,,,,,,,,,,,,,,,,,,,,,,,,,,,,,,,,,,,,,,,,,,,,,,,,,,,,,,,,,,,,,,,,,,,,,,,,,,,,,,,,
,,5f285902166da3151b01faf2,2024-02-22_03h25.46.473,kallum_motion_pilot,2023.2.2,MacIntel,59.88023952,5f285902166da3151b01faf2,65d6bb0e977760de756971f7,65d6bea9c7c0f830c49a8d8e,0.0582,0.0588,1,16,178,151,1,eightseven,,,,,,,,,,,,,,,,,,,,,,,,,,,,,,,,,,,,,,,,,,,,,,,,,,,,,,,,,,,,,,,,,,,,,,,,,,,,,,,,,,,,,,,,,,,,,,,,,,,,,,,,,,,,,,,,,,,,,,,,,,,,,,,,,,,,,,,,,
,,5f285902166da3151b01faf2,2024-02-22_03h25.46.473,kallum_motion_pilot,2023.2.2,MacIntel,59.88023952,5f285902166da3151b01faf2,65d6bb0e977760de756971f7,65d6bea9c7c0f830c49a8d8e,0.0592,0.0594,1,17,179,92,1,sevenfive,,,,,,,,,,,,,,,,,,,,,,,,,,,,,,,,,,,,,,,,,,,,,,,,,,,,,,,,,,,,,,,,,,,,,,,,,,,,,,,,,,,,,,,,,,,,,,,,,,,,,,,,,,,,,,,,,,,,,,,,,,,,,,,,,,,,,,,,,
,,5f285902166da3151b01faf2,2024-02-22_03h25.46.473,kallum_motion_pilot,2023.2.2,MacIntel,59.88023952,5f285902166da3151b01faf2,65d6bb0e977760de756971f7,65d6bea9c7c0f830c49a8d8e,0.0596,0.0596,1,18,180,26,1,twoone,,,,,,,,,,,,,,,,,,,,,,,,,,,,,,,,,,,,,,,,,,,,,,,,,,,,,,,,,,,,,,,,,,,,,,,,,,,,,,,,,,,,,,,,,,,,,,,,,,,,,,,,,,,,,,,,,,,,,,,,,,,,,,,,,,,,,,,,,
,,5f285902166da3151b01faf2,2024-02-22_03h25.46.473,kallum_motion_pilot,2023.2.2,MacIntel,59.88023952,5f285902166da3151b01faf2,65d6bb0e977760de756971f7,65d6bea9c7c0f830c49a8d8e,0.0598,0.0599,1,19,181,32,1,onetwo,,,,,,,,,,,,,,,,,,,,,,,,,,,,,,,,,,,,,,,,,,,,,,,,,,,,,,,,,,,,,,,,,,,,,,,,,,,,,,,,,,,,,,,,,,,,,,,,,,,,,,,,,,,,,,,,,,,,,,,,,,,,,,,,,,,,,,,,,
,,5f285902166da3151b01faf2,2024-02-22_03h25.46.473,kallum_motion_pilot,2023.2.2,MacIntel,59.88023952,5f285902166da3151b01faf2,65d6bb0e977760de756971f7,65d6bea9c7c0f830c49a8d8e,0.06,0.0601,1,20,182,131,1,sixeight,,,,,,,,,,,,,,,,,,,,,,,,,,,,,,,,,,,,,,,,,,,,,,,,,,,,,,,,,,,,,,,,,,,,,,,,,,,,,,,,,,,,,,,,,,,,,,,,,,,,,,,,,,,,,,,,,,,,,,,,,,,,,,,,,,,,,,,,,
,,5f285902166da3151b01faf2,2024-02-22_03h25.46.473,kallum_motion_pilot,2023.2.2,MacIntel,59.88023952,5f285902166da3151b01faf2,65d6bb0e977760de756971f7,65d6bea9c7c0f830c49a8d8e,0.0601,0.0603,1,21,183,106,1,sixfive,,,,,,,,,,,,,,,,,,,,,,,,,,,,,,,,,,,,,,,,,,,,,,,,,,,,,,,,,,,,,,,,,,,,,,,,,,,,,,,,,,,,,,,,,,,,,,,,,,,,,,,,,,,,,,,,,,,,,,,,,,,,,,,,,,,,,,,,,
,,5f285902166da3151b01faf2,2024-02-22_03h25.46.473,kallum_motion_pilot,2023.2.2,MacIntel,59.88023952,5f285902166da3151b01faf2,65d6bb0e977760de756971f7,65d6bea9c7c0f830c49a8d8e,0.0603,0.0604,1,22,184,114,1,sixfive,,,,,,,,,,,,,,,,,,,,,,,,,,,,,,,,,,,,,,,,,,,,,,,,,,,,,,,,,,,,,,,,,,,,,,,,,,,,,,,,,,,,,,,,,,,,,,,,,,,,,,,,,,,,,,,,,,,,,,,,,,,,,,,,,,,,,,,,,
,,5f285902166da3151b01faf2,2024-02-22_03h25.46.473,kallum_motion_pilot,2023.2.2,MacIntel,59.88023952,5f285902166da3151b01faf2,65d6bb0e977760de756971f7,65d6bea9c7c0f830c49a8d8e,0.0605,0.0606,1,23,185,124,1,sevenfive,,,,,,,,,,,,,,,,,,,,,,,,,,,,,,,,,,,,,,,,,,,,,,,,,,,,,,,,,,,,,,,,,,,,,,,,,,,,,,,,,,,,,,,,,,,,,,,,,,,,,,,,,,,,,,,,,,,,,,,,,,,,,,,,,,,,,,,,,
,,5f285902166da3151b01faf2,2024-02-22_03h25.46.473,kallum_motion_pilot,2023.2.2,MacIntel,59.88023952,5f285902166da3151b01faf2,65d6bb0e977760de756971f7,65d6bea9c7c0f830c49a8d8e,0.0606,0.0608,1,24,186,137,1,fiveseven,,,,,,,,,,,,,,,,,,,,,,,,,,,,,,,,,,,,,,,,,,,,,,,,,,,,,,,,,,,,,,,,,,,,,,,,,,,,,,,,,,,,,,,,,,,,,,,,,,,,,,,,,,,,,,,,,,,,,,,,,,,,,,,,,,,,,,,,,
,,5f285902166da3151b01faf2,2024-02-22_03h25.46.473,kallum_motion_pilot,2023.2.2,MacIntel,59.88023952,5f285902166da3151b01faf2,65d6bb0e977760de756971f7,65d6bea9c7c0f830c49a8d8e,0.0609,0.0609,1,25,187,111,1,eightseven,,,,,,,,,,,,,,,,,,,,,,,,,,,,,,,,,,,,,,,,,,,,,,,,,,,,,,,,,,,,,,,,,,,,,,,,,,,,,,,,,,,,,,,,,,,,,,,,,,,,,,,,,,,,,,,,,,,,,,,,,,,,,,,,,,,,,,,,,
,,5f285902166da3151b01faf2,2024-02-22_03h25.46.473,kallum_motion_pilot,2023.2.2,MacIntel,59.88023952,5f285902166da3151b01faf2,65d6bb0e977760de756971f7,65d6bea9c7c0f830c49a8d8e,0.061,0.061,1,26,188,69,1,threefour,,,,,,,,,,,,,,,,,,,,,,,,,,,,,,,,,,,,,,,,,,,,,,,,,,,,,,,,,,,,,,,,,,,,,,,,,,,,,,,,,,,,,,,,,,,,,,,,,,,,,,,,,,,,,,,,,,,,,,,,,,,,,,,,,,,,,,,,,
,,5f285902166da3151b01faf2,2024-02-22_03h25.46.473,kallum_motion_pilot,2023.2.2,MacIntel,59.88023952,5f285902166da3151b01faf2,65d6bb0e977760de756971f7,65d6bea9c7c0f830c49a8d8e,0.0612,0.0612,1,27,189,127,1,eightseven,,,,,,,,,,,,,,,,,,,,,,,,,,,,,,,,,,,,,,,,,,,,,,,,,,,,,,,,,,,,,,,,,,,,,,,,,,,,,,,,,,,,,,,,,,,,,,,,,,,,,,,,,,,,,,,,,,,,,,,,,,,,,,,,,,,,,,,,,
,,5f285902166da3151b01faf2,2024-02-22_03h25.46.473,kallum_motion_pilot,2023.2.2,MacIntel,59.88023952,5f285902166da3151b01faf2,65d6bb0e977760de756971f7,65d6bea9c7c0f830c49a8d8e,0.0614,0.0614,1,28,190,33,1,onethree,,,,,,,,,,,,,,,,,,,,,,,,,,,,,,,,,,,,,,,,,,,,,,,,,,,,,,,,,,,,,,,,,,,,,,,,,,,,,,,,,,,,,,,,,,,,,,,,,,,,,,,,,,,,,,,,,,,,,,,,,,,,,,,,,,,,,,,,,
,,5f285902166da3151b01faf2,2024-02-22_03h25.46.473,kallum_motion_pilot,2023.2.2,MacIntel,59.88023952,5f285902166da3151b01faf2,65d6bb0e977760de756971f7,65d6bea9c7c0f830c49a8d8e,0.0615,0.0615,1,29,191,21,1,threefour,,,,,,,,,,,,,,,,,,,,,,,,,,,,,,,,,,,,,,,,,,,,,,,,,,,,,,,,,,,,,,,,,,,,,,,,,,,,,,,,,,,,,,,,,,,,,,,,,,,,,,,,,,,,,,,,,,,,,,,,,,,,,,,,,,,,,,,,,
,,5f285902166da3151b01faf2,2024-02-22_03h25.46.473,kallum_motion_pilot,2023.2.2,MacIntel,59.88023952,5f285902166da3151b01faf2,65d6bb0e977760de756971f7,65d6bea9c7c0f830c49a8d8e,0.0616,0.0617,1,30,192,6,1,fourtwo,,,,,,,,,,,,,,,,,,,,,,,,,,,,,,,,,,,,,,,,,,,,,,,,,,,,,,,,,,,,,,,,,,,,,,,,,,,,,,,,,,,,,,,,,,,,,,,,,,,,,,,,,,,,,,,,,,,,,,,,,,,,,,,,,,,,,,,,,
,,5f285902166da3151b01faf2,2024-02-22_03h25.46.473,kallum_motion_pilot,2023.2.2,MacIntel,59.88023952,5f285902166da3151b01faf2,65d6bb0e977760de756971f7,65d6bea9c7c0f830c49a8d8e,0.0618,0.0619,1,31,193,135,1,eightseven,,,,,,,,,,,,,,,,,,,,,,,,,,,,,,,,,,,,,,,,,,,,,,,,,,,,,,,,,,,,,,,,,,,,,,,,,,,,,,,,,,,,,,,,,,,,,,,,,,,,,,,,,,,,,,,,,,,,,,,,,,,,,,,,,,,,,,,,,
,,5f285902166da3151b01faf2,2024-02-22_03h25.46.473,kallum_motion_pilot,2023.2.2,MacIntel,59.88023952,5f285902166da3151b01faf2,65d6bb0e977760de756971f7,65d6bea9c7c0f830c49a8d8e,0.062,0.0621,1,32,194,37,1,threefour,,,,,,,,,,,,,,,,,,,,,,,,,,,,,,,,,,,,,,,,,,,,,,,,,,,,,,,,,,,,,,,,,,,,,,,,,,,,,,,,,,,,,,,,,,,,,,,,,,,,,,,,,,,,,,,,,,,,,,,,,,,,,,,,,,,,,,,,,
,,5f285902166da3151b01faf2,2024-02-22_03h25.46.473,kallum_motion_pilot,2023.2.2,MacIntel,59.88023952,5f285902166da3151b01faf2,65d6bb0e977760de756971f7,65d6bea9c7c0f830c49a8d8e,0.0621,0.0622,1,33,195,75,1,twofour,,,,,,,,,,,,,,,,,,,,,,,,,,,,,,,,,,,,,,,,,,,,,,,,,,,,,,,,,,,,,,,,,,,,,,,,,,,,,,,,,,,,,,,,,,,,,,,,,,,,,,,,,,,,,,,,,,,,,,,,,,,,,,,,,,,,,,,,,
,,5f285902166da3151b01faf2,2024-02-22_03h25.46.473,kallum_motion_pilot,2023.2.2,MacIntel,59.88023952,5f285902166da3151b01faf2,65d6bb0e977760de756971f7,65d6bea9c7c0f830c49a8d8e,0.0623,0.0623,1,34,196,147,1,sixeight,,,,,,,,,,,,,,,,,,,,,,,,,,,,,,,,,,,,,,,,,,,,,,,,,,,,,,,,,,,,,,,,,,,,,,,,,,,,,,,,,,,,,,,,,,,,,,,,,,,,,,,,,,,,,,,,,,,,,,,,,,,,,,,,,,,,,,,,,
,,5f285902166da3151b01faf2,2024-02-22_03h25.46.473,kallum_motion_pilot,2023.2.2,MacIntel,59.88023952,5f285902166da3151b01faf2,65d6bb0e977760de756971f7,65d6bea9c7c0f830c49a8d8e,0.0625,0.0625,1,35,197,90,1,sixfive,,,,,,,,,,,,,,,,,,,,,,,,,,,,,,,,,,,,,,,,,,,,,,,,,,,,,,,,,,,,,,,,,,,,,,,,,,,,,,,,,,,,,,,,,,,,,,,,,,,,,,,,,,,,,,,,,,,,,,,,,,,,,,,,,,,,,,,,,
,,5f285902166da3151b01faf2,2024-02-22_03h25.46.473,kallum_motion_pilot,2023.2.2,MacIntel,59.88023952,5f285902166da3151b01faf2,65d6bb0e977760de756971f7,65d6bea9c7c0f830c49a8d8e,0.0626,0.0627,1,36,198,44,1,threeone,,,,,,,,,,,,,,,,,,,,,,,,,,,,,,,,,,,,,,,,,,,,,,,,,,,,,,,,,,,,,,,,,,,,,,,,,,,,,,,,,,,,,,,,,,,,,,,,,,,,,,,,,,,,,,,,,,,,,,,,,,,,,,,,,,,,,,,,,
,,5f285902166da3151b01faf2,2024-02-22_03h25.46.473,kallum_motion_pilot,2023.2.2,MacIntel,59.88023952,5f285902166da3151b01faf2,65d6bb0e977760de756971f7,65d6bea9c7c0f830c49a8d8e,0.0628,0.0628,1,37,199,29,1,threefour,,,,,,,,,,,,,,,,,,,,,,,,,,,,,,,,,,,,,,,,,,,,,,,,,,,,,,,,,,,,,,,,,,,,,,,,,,,,,,,,,,,,,,,,,,,,,,,,,,,,,,,,,,,,,,,,,,,,,,,,,,,,,,,,,,,,,,,,,
,,5f285902166da3151b01faf2,2024-02-22_03h25.46.473,kallum_motion_pilot,2023.2.2,MacIntel,59.88023952,5f285902166da3151b01faf2,65d6bb0e977760de756971f7,65d6bea9c7c0f830c49a8d8e,0.063,0.0631,1,38,200,109,1,seveneight,,,,,,,,,,,,,,,,,,,,,,,,,,,,,,,,,,,,,,,,,,,,,,,,,,,,,,,,,,,,,,,,,,,,,,,,,,,,,,,,,,,,,,,,,,,,,,,,,,,,,,,,,,,,,,,,,,,,,,,,,,,,,,,,,,,,,,,,,
,,5f285902166da3151b01faf2,2024-02-22_03h25.46.473,kallum_motion_pilot,2023.2.2,MacIntel,59.88023952,5f285902166da3151b01faf2,65d6bb0e977760de756971f7,65d6bea9c7c0f830c49a8d8e,0.0631,0.0632,1,39,201,61,1,threefour,,,,,,,,,,,,,,,,,,,,,,,,,,,,,,,,,,,,,,,,,,,,,,,,,,,,,,,,,,,,,,,,,,,,,,,,,,,,,,,,,,,,,,,,,,,,,,,,,,,,,,,,,,,,,,,,,,,,,,,,,,,,,,,,,,,,,,,,,
,,5f285902166da3151b01faf2,2024-02-22_03h25.46.473,kallum_motion_pilot,2023.2.2,MacIntel,59.88023952,5f285902166da3151b01faf2,65d6bb0e977760de756971f7,65d6bea9c7c0f830c49a8d8e,0.0632,0.0633,1,40,202,1,1,onethree,,,,,,,,,,,,,,,,,,,,,,,,,,,,,,,,,,,,,,,,,,,,,,,,,,,,,,,,,,,,,,,,,,,,,,,,,,,,,,,,,,,,,,,,,,,,,,,,,,,,,,,,,,,,,,,,,,,,,,,,,,,,,,,,,,,,,,,,,
,,5f285902166da3151b01faf2,2024-02-22_03h25.46.473,kallum_motion_pilot,2023.2.2,MacIntel,59.88023952,5f285902166da3151b01faf2,65d6bb0e977760de756971f7,65d6bea9c7c0f830c49a8d8e,0.0634,0.0635,1,41,203,51,1,twofour,,,,,,,,,,,,,,,,,,,,,,,,,,,,,,,,,,,,,,,,,,,,,,,,,,,,,,,,,,,,,,,,,,,,,,,,,,,,,,,,,,,,,,,,,,,,,,,,,,,,,,,,,,,,,,,,,,,,,,,,,,,,,,,,,,,,,,,,,
,,5f285902166da3151b01faf2,2024-02-22_03h25.46.473,kallum_motion_pilot,2023.2.2,MacIntel,59.88023952,5f285902166da3151b01faf2,65d6bb0e977760de756971f7,65d6bea9c7c0f830c49a8d8e,0.0636,0.0637,1,42,204,46,1,fourtwo,,,,,,,,,,,,,,,,,,,,,,,,,,,,,,,,,,,,,,,,,,,,,,,,,,,,,,,,,,,,,,,,,,,,,,,,,,,,,,,,,,,,,,,,,,,,,,,,,,,,,,,,,,,,,,,,,,,,,,,,,,,,,,,,,,,,,,,,,
,,5f285902166da3151b01faf2,2024-02-22_03h25.46.473,kallum_motion_pilot,2023.2.2,MacIntel,59.88023952,5f285902166da3151b01faf2,65d6bb0e977760de756971f7,65d6bea9c7c0f830c49a8d8e,0.0637,0.0638,1,43,205,18,1,twoone,,,,,,,,,,,,,,,,,,,,,,,,,,,,,,,,,,,,,,,,,,,,,,,,,,,,,,,,,,,,,,,,,,,,,,,,,,,,,,,,,,,,,,,,,,,,,,,,,,,,,,,,,,,,,,,,,,,,,,,,,,,,,,,,,,,,,,,,,
,,5f285902166da3151b01faf2,2024-02-22_03h25.46.473,kallum_motion_pilot,2023.2.2,MacIntel,59.88023952,5f285902166da3151b01faf2,65d6bb0e977760de756971f7,65d6bea9c7c0f830c49a8d8e,0.0639,0.0639,1,44,206,113,1,fiveseven,,,,,,,,,,,,,,,,,,,,,,,,,,,,,,,,,,,,,,,,,,,,,,,,,,,,,,,,,,,,,,,,,,,,,,,,,,,,,,,,,,,,,,,,,,,,,,,,,,,,,,,,,,,,,,,,,,,,,,,,,,,,,,,,,,,,,,,,,
,,5f285902166da3151b01faf2,2024-02-22_03h25.46.473,kallum_motion_pilot,2023.2.2,MacIntel,59.88023952,5f285902166da3151b01faf2,65d6bb0e977760de756971f7,65d6bea9c7c0f830c49a8d8e,0.0641,0.0641,1,45,207,89,1,fiveseven,,,,,,,,,,,,,,,,,,,,,,,,,,,,,,,,,,,,,,,,,,,,,,,,,,,,,,,,,,,,,,,,,,,,,,,,,,,,,,,,,,,,,,,,,,,,,,,,,,,,,,,,,,,,,,,,,,,,,,,,,,,,,,,,,,,,,,,,,
,,5f285902166da3151b01faf2,2024-02-22_03h25.46.473,kallum_motion_pilot,2023.2.2,MacIntel,59.88023952,5f285902166da3151b01faf2,65d6bb0e977760de756971f7,65d6bea9c7c0f830c49a8d8e,0.0642,0.0643,1,46,208,24,1,onetwo,,,,,,,,,,,,,,,,,,,,,,,,,,,,,,,,,,,,,,,,,,,,,,,,,,,,,,,,,,,,,,,,,,,,,,,,,,,,,,,,,,,,,,,,,,,,,,,,,,,,,,,,,,,,,,,,,,,,,,,,,,,,,,,,,,,,,,,,,
,,5f285902166da3151b01faf2,2024-02-22_03h25.46.473,kallum_motion_pilot,2023.2.2,MacIntel,59.88023952,5f285902166da3151b01faf2,65d6bb0e977760de756971f7,65d6bea9c7c0f830c49a8d8e,0.0644,0.0644,1,47,209,141,1,seveneight,,,,,,,,,,,,,,,,,,,,,,,,,,,,,,,,,,,,,,,,,,,,,,,,,,,,,,,,,,,,,,,,,,,,,,,,,,,,,,,,,,,,,,,,,,,,,,,,,,,,,,,,,,,,,,,,,,,,,,,,,,,,,,,,,,,,,,,,,
,,5f285902166da3151b01faf2,2024-02-22_03h25.46.473,kallum_motion_pilot,2023.2.2,MacIntel,59.88023952,5f285902166da3151b01faf2,65d6bb0e977760de756971f7,65d6bea9c7c0f830c49a8d8e,0.0646,0.0646,1,48,210,43,1,twofour,,,,,,,,,,,,,,,,,,,,,,,,,,,,,,,,,,,,,,,,,,,,,,,,,,,,,,,,,,,,,,,,,,,,,,,,,,,,,,,,,,,,,,,,,,,,,,,,,,,,,,,,,,,,,,,,,,,,,,,,,,,,,,,,,,,,,,,,,
,,5f285902166da3151b01faf2,2024-02-22_03h25.46.473,kallum_motion_pilot,2023.2.2,MacIntel,59.88023952,5f285902166da3151b01faf2,65d6bb0e977760de756971f7,65d6bea9c7c0f830c49a8d8e,0.0647,0.0648,1,49,211,85,1,seveneight,,,,,,,,,,,,,,,,,,,,,,,,,,,,,,,,,,,,,,,,,,,,,,,,,,,,,,,,,,,,,,,,,,,,,,,,,,,,,,,,,,,,,,,,,,,,,,,,,,,,,,,,,,,,,,,,,,,,,,,,,,,,,,,,,,,,,,,,,
,,5f285902166da3151b01faf2,2024-02-22_03h25.46.473,kallum_motion_pilot,2023.2.2,MacIntel,59.88023952,5f285902166da3151b01faf2,65d6bb0e977760de756971f7,65d6bea9c7c0f830c49a8d8e,0.0649,0.065,1,50,212,100,1,sevenfive,,,,,,,,,,,,,,,,,,,,,,,,,,,,,,,,,,,,,,,,,,,,,,,,,,,,,,,,,,,,,,,,,,,,,,,,,,,,,,,,,,,,,,,,,,,,,,,,,,,,,,,,,,,,,,,,,,,,,,,,,,,,,,,,,,,,,,,,,
,,5f285902166da3151b01faf2,2024-02-22_03h25.46.473,kallum_motion_pilot,2023.2.2,MacIntel,59.88023952,5f285902166da3151b01faf2,65d6bb0e977760de756971f7,65d6bea9c7c0f830c49a8d8e,0.065,0.0651,1,51,213,77,1,threefour,,,,,,,,,,,,,,,,,,,,,,,,,,,,,,,,,,,,,,,,,,,,,,,,,,,,,,,,,,,,,,,,,,,,,,,,,,,,,,,,,,,,,,,,,,,,,,,,,,,,,,,,,,,,,,,,,,,,,,,,,,,,,,,,,,,,,,,,,
,,5f285902166da3151b01faf2,2024-02-22_03h25.46.473,kallum_motion_pilot,2023.2.2,MacIntel,59.88023952,5f285902166da3151b01faf2,65d6bb0e977760de756971f7,65d6bea9c7c0f830c49a8d8e,0.0651,0.0652,1,52,214,74,1,twoone,,,,,,,,,,,,,,,,,,,,,,,,,,,,,,,,,,,,,,,,,,,,,,,,,,,,,,,,,,,,,,,,,,,,,,,,,,,,,,,,,,,,,,,,,,,,,,,,,,,,,,,,,,,,,,,,,,,,,,,,,,,,,,,,,,,,,,,,,
,,5f285902166da3151b01faf2,2024-02-22_03h25.46.473,kallum_motion_pilot,2023.2.2,MacIntel,59.88023952,5f285902166da3151b01faf2,65d6bb0e977760de756971f7,65d6bea9c7c0f830c49a8d8e,0.0653,0.0654,1,53,215,25,1,onethree,,,,,,,,,,,,,,,,,,,,,,,,,,,,,,,,,,,,,,,,,,,,,,,,,,,,,,,,,,,,,,,,,,,,,,,,,,,,,,,,,,,,,,,,,,,,,,,,,,,,,,,,,,,,,,,,,,,,,,,,,,,,,,,,,,,,,,,,,
,,5f285902166da3151b01faf2,2024-02-22_03h25.46.473,kallum_motion_pilot,2023.2.2,MacIntel,59.88023952,5f285902166da3151b01faf2,65d6bb0e977760de756971f7,65d6bea9c7c0f830c49a8d8e,0.0655,0.0656,1,54,216,59,1,twofour,,,,,,,,,,,,,,,,,,,,,,,,,,,,,,,,,,,,,,,,,,,,,,,,,,,,,,,,,,,,,,,,,,,,,,,,,,,,,,,,,,,,,,,,,,,,,,,,,,,,,,,,,,,,,,,,,,,,,,,,,,,,,,,,,,,,,,,,,
,,5f285902166da3151b01faf2,2024-02-22_03h25.46.473,kallum_motion_pilot,2023.2.2,MacIntel,59.88023952,5f285902166da3151b01faf2,65d6bb0e977760de756971f7,65d6bea9c7c0f830c49a8d8e,0.0656,0.0658,1,55,217,134,1,eightsix,,,,,,,,,,,,,,,,,,,,,,,,,,,,,,,,,,,,,,,,,,,,,,,,,,,,,,,,,,,,,,,,,,,,,,,,,,,,,,,,,,,,,,,,,,,,,,,,,,,,,,,,,,,,,,,,,,,,,,,,,,,,,,,,,,,,,,,,,
,,5f285902166da3151b01faf2,2024-02-22_03h25.46.473,kallum_motion_pilot,2023.2.2,MacIntel,59.88023952,5f285902166da3151b01faf2,65d6bb0e977760de756971f7,65d6bea9c7c0f830c49a8d8e,0.0658,0.0659,1,56,218,68,1,threeone,,,,,,,,,,,,,,,,,,,,,,,,,,,,,,,,,,,,,,,,,,,,,,,,,,,,,,,,,,,,,,,,,,,,,,,,,,,,,,,,,,,,,,,,,,,,,,,,,,,,,,,,,,,,,,,,,,,,,,,,,,,,,,,,,,,,,,,,,
,,5f285902166da3151b01faf2,2024-02-22_03h25.46.473,kallum_motion_pilot,2023.2.2,MacIntel,59.88023952,5f285902166da3151b01faf2,65d6bb0e977760de756971f7,65d6bea9c7c0f830c49a8d8e,0.066,0.066,1,57,219,91,1,sixeight,,,,,,,,,,,,,,,,,,,,,,,,,,,,,,,,,,,,,,,,,,,,,,,,,,,,,,,,,,,,,,,,,,,,,,,,,,,,,,,,,,,,,,,,,,,,,,,,,,,,,,,,,,,,,,,,,,,,,,,,,,,,,,,,,,,,,,,,,
,,5f285902166da3151b01faf2,2024-02-22_03h25.46.473,kallum_motion_pilot,2023.2.2,MacIntel,59.88023952,5f285902166da3151b01faf2,65d6bb0e977760de756971f7,65d6bea9c7c0f830c49a8d8e,0.0661,0.0663,1,58,220,48,1,onetwo,,,,,,,,,,,,,,,,,,,,,,,,,,,,,,,,,,,,,,,,,,,,,,,,,,,,,,,,,,,,,,,,,,,,,,,,,,,,,,,,,,,,,,,,,,,,,,,,,,,,,,,,,,,,,,,,,,,,,,,,,,,,,,,,,,,,,,,,,
,,5f285902166da3151b01faf2,2024-02-22_03h25.46.473,kallum_motion_pilot,2023.2.2,MacIntel,59.88023952,5f285902166da3151b01faf2,65d6bb0e977760de756971f7,65d6bea9c7c0f830c49a8d8e,0.0663,0.0664,1,59,221,150,1,eightsix,,,,,,,,,,,,,,,,,,,,,,,,,,,,,,,,,,,,,,,,,,,,,,,,,,,,,,,,,,,,,,,,,,,,,,,,,,,,,,,,,,,,,,,,,,,,,,,,,,,,,,,,,,,,,,,,,,,,,,,,,,,,,,,,,,,,,,,,,
,,5f285902166da3151b01faf2,2024-02-22_03h25.46.473,kallum_motion_pilot,2023.2.2,MacIntel,59.88023952,5f285902166da3151b01faf2,65d6bb0e977760de756971f7,65d6bea9c7c0f830c49a8d8e,0.0664,0.0666,1,60,222,4,1,threeone,,,,,,,,,,,,,,,,,,,,,,,,,,,,,,,,,,,,,,,,,,,,,,,,,,,,,,,,,,,,,,,,,,,,,,,,,,,,,,,,,,,,,,,,,,,,,,,,,,,,,,,,,,,,,,,,,,,,,,,,,,,,,,,,,,,,,,,,,
,,5f285902166da3151b01faf2,2024-02-22_03h25.46.473,kallum_motion_pilot,2023.2.2,MacIntel,59.88023952,5f285902166da3151b01faf2,65d6bb0e977760de756971f7,65d6bea9c7c0f830c49a8d8e,0.0666,0.0667,1,61,223,35,1,twofour,,,,,,,,,,,,,,,,,,,,,,,,,,,,,,,,,,,,,,,,,,,,,,,,,,,,,,,,,,,,,,,,,,,,,,,,,,,,,,,,,,,,,,,,,,,,,,,,,,,,,,,,,,,,,,,,,,,,,,,,,,,,,,,,,,,,,,,,,
,,5f285902166da3151b01faf2,2024-02-22_03h25.46.473,kallum_motion_pilot,2023.2.2,MacIntel,59.88023952,5f285902166da3151b01faf2,65d6bb0e977760de756971f7,65d6bea9c7c0f830c49a8d8e,0.0668,0.0669,1,62,224,65,1,onethree,,,,,,,,,,,,,,,,,,,,,,,,,,,,,,,,,,,,,,,,,,,,,,,,,,,,,,,,,,,,,,,,,,,,,,,,,,,,,,,,,,,,,,,,,,,,,,,,,,,,,,,,,,,,,,,,,,,,,,,,,,,,,,,,,,,,,,,,,
,,5f285902166da3151b01faf2,2024-02-22_03h25.46.473,kallum_motion_pilot,2023.2.2,MacIntel,59.88023952,5f285902166da3151b01faf2,65d6bb0e977760de756971f7,65d6bea9c7c0f830c49a8d8e,0.067,0.0671,1,63,225,66,1,twoone,,,,,,,,,,,,,,,,,,,,,,,,,,,,,,,,,,,,,,,,,,,,,,,,,,,,,,,,,,,,,,,,,,,,,,,,,,,,,,,,,,,,,,,,,,,,,,,,,,,,,,,,,,,,,,,,,,,,,,,,,,,,,,,,,,,,,,,,,
,,5f285902166da3151b01faf2,2024-02-22_03h25.46.473,kallum_motion_pilot,2023.2.2,MacIntel,59.88023952,5f285902166da3151b01faf2,65d6bb0e977760de756971f7,65d6bea9c7c0f830c49a8d8e,0.0672,0.0672,1,64,226,155,1,sixeight,,,,,,,,,,,,,,,,,,,,,,,,,,,,,,,,,,,,,,,,,,,,,,,,,,,,,,,,,,,,,,,,,,,,,,,,,,,,,,,,,,,,,,,,,,,,,,,,,,,,,,,,,,,,,,,,,,,,,,,,,,,,,,,,,,,,,,,,,
,,5f285902166da3151b01faf2,2024-02-22_03h25.46.473,kallum_motion_pilot,2023.2.2,MacIntel,59.88023952,5f285902166da3151b01faf2,65d6bb0e977760de756971f7,65d6bea9c7c0f830c49a8d8e,0.0673,0.0674,1,65,227,144,1,fivesix,,,,,,,,,,,,,,,,,,,,,,,,,,,,,,,,,,,,,,,,,,,,,,,,,,,,,,,,,,,,,,,,,,,,,,,,,,,,,,,,,,,,,,,,,,,,,,,,,,,,,,,,,,,,,,,,,,,,,,,,,,,,,,,,,,,,,,,,,
,,5f285902166da3151b01faf2,2024-02-22_03h25.46.473,kallum_motion_pilot,2023.2.2,MacIntel,59.88023952,5f285902166da3151b01faf2,65d6bb0e977760de756971f7,65d6bea9c7c0f830c49a8d8e,0.0675,0.0675,1,66,228,8,1,onetwo,,,,,,,,,,,,,,,,,,,,,,,,,,,,,,,,,,,,,,,,,,,,,,,,,,,,,,,,,,,,,,,,,,,,,,,,,,,,,,,,,,,,,,,,,,,,,,,,,,,,,,,,,,,,,,,,,,,,,,,,,,,,,,,,,,,,,,,,,
,,5f285902166da3151b01faf2,2024-02-22_03h25.46.473,kallum_motion_pilot,2023.2.2,MacIntel,59.88023952,5f285902166da3151b01faf2,65d6bb0e977760de756971f7,65d6bea9c7c0f830c49a8d8e,0.0676,0.0677,1,67,229,105,1,fiveseven,,,,,,,,,,,,,,,,,,,,,,,,,,,,,,,,,,,,,,,,,,,,,,,,,,,,,,,,,,,,,,,,,,,,,,,,,,,,,,,,,,,,,,,,,,,,,,,,,,,,,,,,,,,,,,,,,,,,,,,,,,,,,,,,,,,,,,,,,
,,5f285902166da3151b01faf2,2024-02-22_03h25.46.473,kallum_motion_pilot,2023.2.2,MacIntel,59.88023952,5f285902166da3151b01faf2,65d6bb0e977760de756971f7,65d6bea9c7c0f830c49a8d8e,0.0678,0.0679,1,68,230,126,1,eightsix,,,,,,,,,,,,,,,,,,,,,,,,,,,,,,,,,,,,,,,,,,,,,,,,,,,,,,,,,,,,,,,,,,,,,,,,,,,,,,,,,,,,,,,,,,,,,,,,,,,,,,,,,,,,,,,,,,,,,,,,,,,,,,,,,,,,,,,,,
,,5f285902166da3151b01faf2,2024-02-22_03h25.46.473,kallum_motion_pilot,2023.2.2,MacIntel,59.88023952,5f285902166da3151b01faf2,65d6bb0e977760de756971f7,65d6bea9c7c0f830c49a8d8e,0.068,0.068,1,69,231,87,1,eightseven,,,,,,,,,,,,,,,,,,,,,,,,,,,,,,,,,,,,,,,,,,,,,,,,,,,,,,,,,,,,,,,,,,,,,,,,,,,,,,,,,,,,,,,,,,,,,,,,,,,,,,,,,,,,,,,,,,,,,,,,,,,,,,,,,,,,,,,,,
,,5f285902166da3151b01faf2,2024-02-22_03h25.46.473,kallum_motion_pilot,2023.2.2,MacIntel,59.88023952,5f285902166da3151b01faf2,65d6bb0e977760de756971f7,65d6bea9c7c0f830c49a8d8e,0.0681,0.0683,1,70,232,129,1,fiveseven,,,,,,,,,,,,,,,,,,,,,,,,,,,,,,,,,,,,,,,,,,,,,,,,,,,,,,,,,,,,,,,,,,,,,,,,,,,,,,,,,,,,,,,,,,,,,,,,,,,,,,,,,,,,,,,,,,,,,,,,,,,,,,,,,,,,,,,,,
,,5f285902166da3151b01faf2,2024-02-22_03h25.46.473,kallum_motion_pilot,2023.2.2,MacIntel,59.88023952,5f285902166da3151b01faf2,65d6bb0e977760de756971f7,65d6bea9c7c0f830c49a8d8e,0.0683,0.0684,1,71,233,160,1,fivesix,,,,,,,,,,,,,,,,,,,,,,,,,,,,,,,,,,,,,,,,,,,,,,,,,,,,,,,,,,,,,,,,,,,,,,,,,,,,,,,,,,,,,,,,,,,,,,,,,,,,,,,,,,,,,,,,,,,,,,,,,,,,,,,,,,,,,,,,,
,,5f285902166da3151b01faf2,2024-02-22_03h25.46.473,kallum_motion_pilot,2023.2.2,MacIntel,59.88023952,5f285902166da3151b01faf2,65d6bb0e977760de756971f7,65d6bea9c7c0f830c49a8d8e,0.0685,0.0685,1,72,234,138,1,sixfive,,,,,,,,,,,,,,,,,,,,,,,,,,,,,,,,,,,,,,,,,,,,,,,,,,,,,,,,,,,,,,,,,,,,,,,,,,,,,,,,,,,,,,,,,,,,,,,,,,,,,,,,,,,,,,,,,,,,,,,,,,,,,,,,,,,,,,,,,
,,5f285902166da3151b01faf2,2024-02-22_03h25.46.473,kallum_motion_pilot,2023.2.2,MacIntel,59.88023952,5f285902166da3151b01faf2,65d6bb0e977760de756971f7,65d6bea9c7c0f830c49a8d8e,0.0686,0.0687,1,73,235,142,1,eightsix,,,,,,,,,,,,,,,,,,,,,,,,,,,,,,,,,,,,,,,,,,,,,,,,,,,,,,,,,,,,,,,,,,,,,,,,,,,,,,,,,,,,,,,,,,,,,,,,,,,,,,,,,,,,,,,,,,,,,,,,,,,,,,,,,,,,,,,,,
,,5f285902166da3151b01faf2,2024-02-22_03h25.46.473,kallum_motion_pilot,2023.2.2,MacIntel,59.88023952,5f285902166da3151b01faf2,65d6bb0e977760de756971f7,65d6bea9c7c0f830c49a8d8e,0.0688,0.0689,1,74,236,78,1,fourtwo,,,,,,,,,,,,,,,,,,,,,,,,,,,,,,,,,,,,,,,,,,,,,,,,,,,,,,,,,,,,,,,,,,,,,,,,,,,,,,,,,,,,,,,,,,,,,,,,,,,,,,,,,,,,,,,,,,,,,,,,,,,,,,,,,,,,,,,,,
,,5f285902166da3151b01faf2,2024-02-22_03h25.46.473,kallum_motion_pilot,2023.2.2,MacIntel,59.88023952,5f285902166da3151b01faf2,65d6bb0e977760de756971f7,65d6bea9c7c0f830c49a8d8e,0.0689,0.0691,1,75,237,98,1,sixfive,,,,,,,,,,,,,,,,,,,,,,,,,,,,,,,,,,,,,,,,,,,,,,,,,,,,,,,,,,,,,,,,,,,,,,,,,,,,,,,,,,,,,,,,,,,,,,,,,,,,,,,,,,,,,,,,,,,,,,,,,,,,,,,,,,,,,,,,,
,,5f285902166da3151b01faf2,2024-02-22_03h25.46.473,kallum_motion_pilot,2023.2.2,MacIntel,59.88023952,5f285902166da3151b01faf2,65d6bb0e977760de756971f7,65d6bea9c7c0f830c49a8d8e,0.0691,0.0692,1,76,238,86,1,eightsix,,,,,,,,,,,,,,,,,,,,,,,,,,,,,,,,,,,,,,,,,,,,,,,,,,,,,,,,,,,,,,,,,,,,,,,,,,,,,,,,,,,,,,,,,,,,,,,,,,,,,,,,,,,,,,,,,,,,,,,,,,,,,,,,,,,,,,,,,
,,5f285902166da3151b01faf2,2024-02-22_03h25.46.473,kallum_motion_pilot,2023.2.2,MacIntel,59.88023952,5f285902166da3151b01faf2,65d6bb0e977760de756971f7,65d6bea9c7c0f830c49a8d8e,0.0693,0.0693,1,77,239,12,1,threeone,,,,,,,,,,,,,,,,,,,,,,,,,,,,,,,,,,,,,,,,,,,,,,,,,,,,,,,,,,,,,,,,,,,,,,,,,,,,,,,,,,,,,,,,,,,,,,,,,,,,,,,,,,,,,,,,,,,,,,,,,,,,,,,,,,,,,,,,,
,,5f285902166da3151b01faf2,2024-02-22_03h25.46.473,kallum_motion_pilot,2023.2.2,MacIntel,59.88023952,5f285902166da3151b01faf2,65d6bb0e977760de756971f7,65d6bea9c7c0f830c49a8d8e,0.0695,0.0695,1,78,240,40,1,onetwo,,,,,,,,,,,,,,,,,,,,,,,,,,,,,,,,,,,,,,,,,,,,,,,,,,,,,,,,,,,,,,,,,,,,,,,,,,,,,,,,,,,,,,,,,,,,,,,,,,,,,,,,,,,,,,,,,,,,,,,,,,,,,,,,,,,,,,,,,
,,5f285902166da3151b01faf2,2024-02-22_03h25.46.473,kallum_motion_pilot,2023.2.2,MacIntel,59.88023952,5f285902166da3151b01faf2,65d6bb0e977760de756971f7,65d6bea9c7c0f830c49a8d8e,0.0696,0.0697,1,79,241,36,1,threeone,,,,,,,,,,,,,,,,,,,,,,,,,,,,,,,,,,,,,,,,,,,,,,,,,,,,,,,,,,,,,,,,,,,,,,,,,,,,,,,,,,,,,,,,,,,,,,,,,,,,,,,,,,,,,,,,,,,,,,,,,,,,,,,,,,,,,,,,,
,,5f285902166da3151b01faf2,2024-02-22_03h25.46.473,kallum_motion_pilot,2023.2.2,MacIntel,59.88023952,5f285902166da3151b01faf2,65d6bb0e977760de756971f7,65d6bea9c7c0f830c49a8d8e,0.0698,0.0699,1,80,242,3,1,twofour,,,,,,,,,,,,,,,,,,,,,,,,,,,,,,,,,,,,,,,,,,,,,,,,,,,,,,,,,,,,,,,,,,,,,,,,,,,,,,,,,,,,,,,,,,,,,,,,,,,,,,,,,,,,,,,,,,,,,,,,,,,,,,,,,,,,,,,,,
,,5f285902166da3151b01faf2,2024-02-22_03h25.46.473,kallum_motion_pilot,2023.2.2,MacIntel,59.88023952,5f285902166da3151b01faf2,65d6bb0e977760de756971f7,65d6bea9c7c0f830c49a8d8e,0.07,0.07,1,81,243,103,1,eightseven,,,,,,,,,,,,,,,,,,,,,,,,,,,,,,,,,,,,,,,,,,,,,,,,,,,,,,,,,,,,,,,,,,,,,,,,,,,,,,,,,,,,,,,,,,,,,,,,,,,,,,,,,,,,,,,,,,,,,,,,,,,,,,,,,,,,,,,,,
,,5f285902166da3151b01faf2,2024-02-22_03h25.46.473,kallum_motion_pilot,2023.2.2,MacIntel,59.88023952,5f285902166da3151b01faf2,65d6bb0e977760de756971f7,65d6bea9c7c0f830c49a8d8e,0.0701,0.0702,1,82,244,82,1,sixfive,,,,,,,,,,,,,,,,,,,,,,,,,,,,,,,,,,,,,,,,,,,,,,,,,,,,,,,,,,,,,,,,,,,,,,,,,,,,,,,,,,,,,,,,,,,,,,,,,,,,,,,,,,,,,,,,,,,,,,,,,,,,,,,,,,,,,,,,,
,,5f285902166da3151b01faf2,2024-02-22_03h25.46.473,kallum_motion_pilot,2023.2.2,MacIntel,59.88023952,5f285902166da3151b01faf2,65d6bb0e977760de756971f7,65d6bea9c7c0f830c49a8d8e,0.0703,0.0704,1,83,245,117,1,seveneight,,,,,,,,,,,,,,,,,,,,,,,,,,,,,,,,,,,,,,,,,,,,,,,,,,,,,,,,,,,,,,,,,,,,,,,,,,,,,,,,,,,,,,,,,,,,,,,,,,,,,,,,,,,,,,,,,,,,,,,,,,,,,,,,,,,,,,,,,
,,5f285902166da3151b01faf2,2024-02-22_03h25.46.473,kallum_motion_pilot,2023.2.2,MacIntel,59.88023952,5f285902166da3151b01faf2,65d6bb0e977760de756971f7,65d6bea9c7c0f830c49a8d8e,0.0704,0.0706,1,84,246,143,1,eightseven,,,,,,,,,,,,,,,,,,,,,,,,,,,,,,,,,,,,,,,,,,,,,,,,,,,,,,,,,,,,,,,,,,,,,,,,,,,,,,,,,,,,,,,,,,,,,,,,,,,,,,,,,,,,,,,,,,,,,,,,,,,,,,,,,,,,,,,,,
,,5f285902166da3151b01faf2,2024-02-22_03h25.46.473,kallum_motion_pilot,2023.2.2,MacIntel,59.88023952,5f285902166da3151b01faf2,65d6bb0e977760de756971f7,65d6bea9c7c0f830c49a8d8e,0.0706,0.0707,1,85,247,39,1,fourthree,,,,,,,,,,,,,,,,,,,,,,,,,,,,,,,,,,,,,,,,,,,,,,,,,,,,,,,,,,,,,,,,,,,,,,,,,,,,,,,,,,,,,,,,,,,,,,,,,,,,,,,,,,,,,,,,,,,,,,,,,,,,,,,,,,,,,,,,,
,,5f285902166da3151b01faf2,2024-02-22_03h25.46.473,kallum_motion_pilot,2023.2.2,MacIntel,59.88023952,5f285902166da3151b01faf2,65d6bb0e977760de756971f7,65d6bea9c7c0f830c49a8d8e,0.0708,0.0709,1,86,248,67,1,twofour,,,,,,,,,,,,,,,,,,,,,,,,,,,,,,,,,,,,,,,,,,,,,,,,,,,,,,,,,,,,,,,,,,,,,,,,,,,,,,,,,,,,,,,,,,,,,,,,,,,,,,,,,,,,,,,,,,,,,,,,,,,,,,,,,,,,,,,,,
,,5f285902166da3151b01faf2,2024-02-22_03h25.46.473,kallum_motion_pilot,2023.2.2,MacIntel,59.88023952,5f285902166da3151b01faf2,65d6bb0e977760de756971f7,65d6bea9c7c0f830c49a8d8e,0.0709,0.071,1,87,249,63,1,fourthree,,,,,,,,,,,,,,,,,,,,,,,,,,,,,,,,,,,,,,,,,,,,,,,,,,,,,,,,,,,,,,,,,,,,,,,,,,,,,,,,,,,,,,,,,,,,,,,,,,,,,,,,,,,,,,,,,,,,,,,,,,,,,,,,,,,,,,,,,
,,5f285902166da3151b01faf2,2024-02-22_03h25.46.473,kallum_motion_pilot,2023.2.2,MacIntel,59.88023952,5f285902166da3151b01faf2,65d6bb0e977760de756971f7,65d6bea9c7c0f830c49a8d8e,0.0712,0.0713,1,88,250,148,1,sevenfive,,,,,,,,,,,,,,,,,,,,,,,,,,,,,,,,,,,,,,,,,,,,,,,,,,,,,,,,,,,,,,,,,,,,,,,,,,,,,,,,,,,,,,,,,,,,,,,,,,,,,,,,,,,,,,,,,,,,,,,,,,,,,,,,,,,,,,,,,
,,5f285902166da3151b01faf2,2024-02-22_03h25.46.473,kallum_motion_pilot,2023.2.2,MacIntel,59.88023952,5f285902166da3151b01faf2,65d6bb0e977760de756971f7,65d6bea9c7c0f830c49a8d8e,0.0713,0.0714,1,89,251,104,1,fivesix,,,,,,,,,,,,,,,,,,,,,,,,,,,,,,,,,,,,,,,,,,,,,,,,,,,,,,,,,,,,,,,,,,,,,,,,,,,,,,,,,,,,,,,,,,,,,,,,,,,,,,,,,,,,,,,,,,,,,,,,,,,,,,,,,,,,,,,,,
,,5f285902166da3151b01faf2,2024-02-22_03h25.46.473,kallum_motion_pilot,2023.2.2,MacIntel,59.88023952,5f285902166da3151b01faf2,65d6bb0e977760de756971f7,65d6bea9c7c0f830c49a8d8e,0.0715,0.0715,1,90,252,79,1,eightseven,,,,,,,,,,,,,,,,,,,,,,,,,,,,,,,,,,,,,,,,,,,,,,,,,,,,,,,,,,,,,,,,,,,,,,,,,,,,,,,,,,,,,,,,,,,,,,,,,,,,,,,,,,,,,,,,,,,,,,,,,,,,,,,,,,,,,,,,,
,,5f285902166da3151b01faf2,2024-02-22_03h25.46.473,kallum_motion_pilot,2023.2.2,MacIntel,59.88023952,5f285902166da3151b01faf2,65d6bb0e977760de756971f7,65d6bea9c7c0f830c49a8d8e,0.0716,0.0717,1,91,253,17,1,onethree,,,,,,,,,,,,,,,,,,,,,,,,,,,,,,,,,,,,,,,,,,,,,,,,,,,,,,,,,,,,,,,,,,,,,,,,,,,,,,,,,,,,,,,,,,,,,,,,,,,,,,,,,,,,,,,,,,,,,,,,,,,,,,,,,,,,,,,,,
,,5f285902166da3151b01faf2,2024-02-22_03h25.46.473,kallum_motion_pilot,2023.2.2,MacIntel,59.88023952,5f285902166da3151b01faf2,65d6bb0e977760de756971f7,65d6bea9c7c0f830c49a8d8e,0.0718,0.0719,1,92,254,161,1,fiveseven,,,,,,,,,,,,,,,,,,,,,,,,,,,,,,,,,,,,,,,,,,,,,,,,,,,,,,,,,,,,,,,,,,,,,,,,,,,,,,,,,,,,,,,,,,,,,,,,,,,,,,,,,,,,,,,,,,,,,,,,,,,,,,,,,,,,,,,,,
,,5f285902166da3151b01faf2,2024-02-22_03h25.46.473,kallum_motion_pilot,2023.2.2,MacIntel,59.88023952,5f285902166da3151b01faf2,65d6bb0e977760de756971f7,65d6bea9c7c0f830c49a8d8e,0.0721,0.0723,1,93,255,15,1,fourthree,,,,,,,,,,,,,,,,,,,,,,,,,,,,,,,,,,,,,,,,,,,,,,,,,,,,,,,,,,,,,,,,,,,,,,,,,,,,,,,,,,,,,,,,,,,,,,,,,,,,,,,,,,,,,,,,,,,,,,,,,,,,,,,,,,,,,,,,,
,,5f285902166da3151b01faf2,2024-02-22_03h25.46.473,kallum_motion_pilot,2023.2.2,MacIntel,59.88023952,5f285902166da3151b01faf2,65d6bb0e977760de756971f7,65d6bea9c7c0f830c49a8d8e,0.0724,0.0725,1,94,256,49,1,onethree,,,,,,,,,,,,,,,,,,,,,,,,,,,,,,,,,,,,,,,,,,,,,,,,,,,,,,,,,,,,,,,,,,,,,,,,,,,,,,,,,,,,,,,,,,,,,,,,,,,,,,,,,,,,,,,,,,,,,,,,,,,,,,,,,,,,,,,,,
,,5f285902166da3151b01faf2,2024-02-22_03h25.46.473,kallum_motion_pilot,2023.2.2,MacIntel,59.88023952,5f285902166da3151b01faf2,65d6bb0e977760de756971f7,65d6bea9c7c0f830c49a8d8e,0.073,0.073,1,95,257,84,1,sevenfive,,,,,,,,,,,,,,,,,,,,,,,,,,,,,,,,,,,,,,,,,,,,,,,,,,,,,,,,,,,,,,,,,,,,,,,,,,,,,,,,,,,,,,,,,,,,,,,,,,,,,,,,,,,,,,,,,,,,,,,,,,,,,,,,,,,,,,,,,
,,5f285902166da3151b01faf2,2024-02-22_03h25.46.473,kallum_motion_pilot,2023.2.2,MacIntel,59.88023952,5f285902166da3151b01faf2,65d6bb0e977760de756971f7,65d6bea9c7c0f830c49a8d8e,0.0731,0.0732,1,96,258,62,1,fourtwo,,,,,,,,,,,,,,,,,,,,,,,,,,,,,,,,,,,,,,,,,,,,,,,,,,,,,,,,,,,,,,,,,,,,,,,,,,,,,,,,,,,,,,,,,,,,,,,,,,,,,,,,,,,,,,,,,,,,,,,,,,,,,,,,,,,,,,,,,
,,5f285902166da3151b01faf2,2024-02-22_03h25.46.473,kallum_motion_pilot,2023.2.2,MacIntel,59.88023952,5f285902166da3151b01faf2,65d6bb0e977760de756971f7,65d6bea9c7c0f830c49a8d8e,0.0733,0.0735,1,97,259,57,1,onethree,,,,,,,,,,,,,,,,,,,,,,,,,,,,,,,,,,,,,,,,,,,,,,,,,,,,,,,,,,,,,,,,,,,,,,,,,,,,,,,,,,,,,,,,,,,,,,,,,,,,,,,,,,,,,,,,,,,,,,,,,,,,,,,,,,,,,,,,,
,,5f285902166da3151b01faf2,2024-02-22_03h25.46.473,kallum_motion_pilot,2023.2.2,MacIntel,59.88023952,5f285902166da3151b01faf2,65d6bb0e977760de756971f7,65d6bea9c7c0f830c49a8d8e,0.0736,0.0736,1,98,260,54,1,fourtwo,,,,,,,,,,,,,,,,,,,,,,,,,,,,,,,,,,,,,,,,,,,,,,,,,,,,,,,,,,,,,,,,,,,,,,,,,,,,,,,,,,,,,,,,,,,,,,,,,,,,,,,,,,,,,,,,,,,,,,,,,,,,,,,,,,,,,,,,,
,,5f285902166da3151b01faf2,2024-02-22_03h25.46.473,kallum_motion_pilot,2023.2.2,MacIntel,59.88023952,5f285902166da3151b01faf2,65d6bb0e977760de756971f7,65d6bea9c7c0f830c49a8d8e,0.0737,0.0738,1,99,261,58,1,twoone,,,,,,,,,,,,,,,,,,,,,,,,,,,,,,,,,,,,,,,,,,,,,,,,,,,,,,,,,,,,,,,,,,,,,,,,,,,,,,,,,,,,,,,,,,,,,,,,,,,,,,,,,,,,,,,,,,,,,,,,,,,,,,,,,,,,,,,,,
,,5f285902166da3151b01faf2,2024-02-22_03h25.46.473,kallum_motion_pilot,2023.2.2,MacIntel,59.88023952,5f285902166da3151b01faf2,65d6bb0e977760de756971f7,65d6bea9c7c0f830c49a8d8e,0.0741,0.0742,1,100,262,20,1,threeone,,,,,,,,,,,,,,,,,,,,,,,,,,,,,,,,,,,,,,,,,,,,,,,,,,,,,,,,,,,,,,,,,,,,,,,,,,,,,,,,,,,,,,,,,,,,,,,,,,,,,,,,,,,,,,,,,,,,,,,,,,,,,,,,,,,,,,,,,
,,5f285902166da3151b01faf2,2024-02-22_03h25.46.473,kallum_motion_pilot,2023.2.2,MacIntel,59.88023952,5f285902166da3151b01faf2,65d6bb0e977760de756971f7,65d6bea9c7c0f830c49a8d8e,0.0745,0.0746,1,101,263,156,1,sevenfive,,,,,,,,,,,,,,,,,,,,,,,,,,,,,,,,,,,,,,,,,,,,,,,,,,,,,,,,,,,,,,,,,,,,,,,,,,,,,,,,,,,,,,,,,,,,,,,,,,,,,,,,,,,,,,,,,,,,,,,,,,,,,,,,,,,,,,,,,
,,5f285902166da3151b01faf2,2024-02-22_03h25.46.473,kallum_motion_pilot,2023.2.2,MacIntel,59.88023952,5f285902166da3151b01faf2,65d6bb0e977760de756971f7,65d6bea9c7c0f830c49a8d8e,0.0748,0.075,1,102,264,31,1,fourthree,,,,,,,,,,,,,,,,,,,,,,,,,,,,,,,,,,,,,,,,,,,,,,,,,,,,,,,,,,,,,,,,,,,,,,,,,,,,,,,,,,,,,,,,,,,,,,,,,,,,,,,,,,,,,,,,,,,,,,,,,,,,,,,,,,,,,,,,,
,,5f285902166da3151b01faf2,2024-02-22_03h25.46.473,kallum_motion_pilot,2023.2.2,MacIntel,59.88023952,5f285902166da3151b01faf2,65d6bb0e977760de756971f7,65d6bea9c7c0f830c49a8d8e,0.0752,0.0754,1,103,265,7,1,fourthree,,,,,,,,,,,,,,,,,,,,,,,,,,,,,,,,,,,,,,,,,,,,,,,,,,,,,,,,,,,,,,,,,,,,,,,,,,,,,,,,,,,,,,,,,,,,,,,,,,,,,,,,,,,,,,,,,,,,,,,,,,,,,,,,,,,,,,,,,
,,5f285902166da3151b01faf2,2024-02-22_03h25.46.473,kallum_motion_pilot,2023.2.2,MacIntel,59.88023952,5f285902166da3151b01faf2,65d6bb0e977760de756971f7,65d6bea9c7c0f830c49a8d8e,0.0756,0.0758,1,104,266,107,1,sixeight,,,,,,,,,,,,,,,,,,,,,,,,,,,,,,,,,,,,,,,,,,,,,,,,,,,,,,,,,,,,,,,,,,,,,,,,,,,,,,,,,,,,,,,,,,,,,,,,,,,,,,,,,,,,,,,,,,,,,,,,,,,,,,,,,,,,,,,,,
,,5f285902166da3151b01faf2,2024-02-22_03h25.46.473,kallum_motion_pilot,2023.2.2,MacIntel,59.88023952,5f285902166da3151b01faf2,65d6bb0e977760de756971f7,65d6bea9c7c0f830c49a8d8e,0.0761,0.0762,1,105,267,42,1,twoone,,,,,,,,,,,,,,,,,,,,,,,,,,,,,,,,,,,,,,,,,,,,,,,,,,,,,,,,,,,,,,,,,,,,,,,,,,,,,,,,,,,,,,,,,,,,,,,,,,,,,,,,,,,,,,,,,,,,,,,,,,,,,,,,,,,,,,,,,
,,5f285902166da3151b01faf2,2024-02-22_03h25.46.473,kallum_motion_pilot,2023.2.2,MacIntel,59.88023952,5f285902166da3151b01faf2,65d6bb0e977760de756971f7,65d6bea9c7c0f830c49a8d8e,0.0764,0.0765,1,106,268,11,1,twofour,,,,,,,,,,,,,,,,,,,,,,,,,,,,,,,,,,,,,,,,,,,,,,,,,,,,,,,,,,,,,,,,,,,,,,,,,,,,,,,,,,,,,,,,,,,,,,,,,,,,,,,,,,,,,,,,,,,,,,,,,,,,,,,,,,,,,,,,,
,,5f285902166da3151b01faf2,2024-02-22_03h25.46.473,kallum_motion_pilot,2023.2.2,MacIntel,59.88023952,5f285902166da3151b01faf2,65d6bb0e977760de756971f7,65d6bea9c7c0f830c49a8d8e,0.0765,0.0766,1,107,269,34,1,twoone,,,,,,,,,,,,,,,,,,,,,,,,,,,,,,,,,,,,,,,,,,,,,,,,,,,,,,,,,,,,,,,,,,,,,,,,,,,,,,,,,,,,,,,,,,,,,,,,,,,,,,,,,,,,,,,,,,,,,,,,,,,,,,,,,,,,,,,,,
,,5f285902166da3151b01faf2,2024-02-22_03h25.46.473,kallum_motion_pilot,2023.2.2,MacIntel,59.88023952,5f285902166da3151b01faf2,65d6bb0e977760de756971f7,65d6bea9c7c0f830c49a8d8e,0.0768,0.0768,1,108,270,52,1,threeone,,,,,,,,,,,,,,,,,,,,,,,,,,,,,,,,,,,,,,,,,,,,,,,,,,,,,,,,,,,,,,,,,,,,,,,,,,,,,,,,,,,,,,,,,,,,,,,,,,,,,,,,,,,,,,,,,,,,,,,,,,,,,,,,,,,,,,,,,
,,5f285902166da3151b01faf2,2024-02-22_03h25.46.473,kallum_motion_pilot,2023.2.2,MacIntel,59.88023952,5f285902166da3151b01faf2,65d6bb0e977760de756971f7,65d6bea9c7c0f830c49a8d8e,0.0769,0.077,1,109,271,123,1,sixeight,,,,,,,,,,,,,,,,,,,,,,,,,,,,,,,,,,,,,,,,,,,,,,,,,,,,,,,,,,,,,,,,,,,,,,,,,,,,,,,,,,,,,,,,,,,,,,,,,,,,,,,,,,,,,,,,,,,,,,,,,,,,,,,,,,,,,,,,,
,,5f285902166da3151b01faf2,2024-02-22_03h25.46.473,kallum_motion_pilot,2023.2.2,MacIntel,59.88023952,5f285902166da3151b01faf2,65d6bb0e977760de756971f7,65d6bea9c7c0f830c49a8d8e,0.077,0.0771,1,110,272,112,1,fivesix,,,,,,,,,,,,,,,,,,,,,,,,,,,,,,,,,,,,,,,,,,,,,,,,,,,,,,,,,,,,,,,,,,,,,,,,,,,,,,,,,,,,,,,,,,,,,,,,,,,,,,,,,,,,,,,,,,,,,,,,,,,,,,,,,,,,,,,,,
,,5f285902166da3151b01faf2,2024-02-22_03h25.46.473,kallum_motion_pilot,2023.2.2,MacIntel,59.88023952,5f285902166da3151b01faf2,65d6bb0e977760de756971f7,65d6bea9c7c0f830c49a8d8e,0.0773,0.0774,1,111,273,139,1,sixeight,,,,,,,,,,,,,,,,,,,,,,,,,,,,,,,,,,,,,,,,,,,,,,,,,,,,,,,,,,,,,,,,,,,,,,,,,,,,,,,,,,,,,,,,,,,,,,,,,,,,,,,,,,,,,,,,,,,,,,,,,,,,,,,,,,,,,,,,,
,,5f285902166da3151b01faf2,2024-02-22_03h25.46.473,kallum_motion_pilot,2023.2.2,MacIntel,59.88023952,5f285902166da3151b01faf2,65d6bb0e977760de756971f7,65d6bea9c7c0f830c49a8d8e,0.0774,0.0776,1,112,274,53,1,threefour,,,,,,,,,,,,,,,,,,,,,,,,,,,,,,,,,,,,,,,,,,,,,,,,,,,,,,,,,,,,,,,,,,,,,,,,,,,,,,,,,,,,,,,,,,,,,,,,,,,,,,,,,,,,,,,,,,,,,,,,,,,,,,,,,,,,,,,,,
,,5f285902166da3151b01faf2,2024-02-22_03h25.46.473,kallum_motion_pilot,2023.2.2,MacIntel,59.88023952,5f285902166da3151b01faf2,65d6bb0e977760de756971f7,65d6bea9c7c0f830c49a8d8e,0.0776,0.0778,1,113,275,80,1,fivesix,,,,,,,,,,,,,,,,,,,,,,,,,,,,,,,,,,,,,,,,,,,,,,,,,,,,,,,,,,,,,,,,,,,,,,,,,,,,,,,,,,,,,,,,,,,,,,,,,,,,,,,,,,,,,,,,,,,,,,,,,,,,,,,,,,,,,,,,,
