startup.started,startup.stopped,Prolific ID*,date,expName,psychopyVersion,OS,frameRate,participant,study_id,session,stimpositions.started,stimpositions.stopped,hardcoded_stimulus_positions.thisRepN,hardcoded_stimulus_positions.thisTrialN,hardcoded_stimulus_positions.thisN,hardcoded_stimulus_positions.thisIndex,hardcoded_stimulus_positions.ran,StimulusPos,stimorientation.started,stimorientation.stopped,prac_stimorientation_import_loop.thisRepN,prac_stimorientation_import_loop.thisTrialN,prac_stimorientation_import_loop.thisN,prac_stimorientation_import_loop.thisIndex,prac_stimorientation_import_loop.ran,Stimorientation,welcome_instr.started,welcome_instr.stopped,key_resp.keys,key_resp.rt,key_resp.duration,response_steppedout_1.started,response_steppedout_1.stopped,key_resp_20.keys,key_resp_20.rt,key_resp_20.duration,response_steppedout_2.started,response_steppedout_2.stopped,key_resp_19.keys,key_resp_19.rt,key_resp_19.duration,stim_response_instr.started,stim_response_instr.stopped,key_resp_15.keys,key_resp_15.rt,key_resp_15.duration,direction_instr_2.started,direction_instr_2.stopped,key_resp_9.keys,key_resp_9.rt,key_resp_9.duration,instr_prac.started,instr_prac.stopped,key_resp_10.keys,key_resp_10.rt,key_resp_10.duration,Stim1_display_prac.started,Stim1_display_prac.stopped,Ecc,Circle1_ori,Circle2_ori,response_prac.started,similarity,response_time,response_prac.stopped,mouse_5.x,mouse_5.y,mouse_5.leftButton,mouse_5.midButton,mouse_5.rightButton,mouse_5.clicked_name,responseprac_feedback.started,responseprac_feedback.stopped,summary2_prac.started,summary2_prac.stopped,mouse_6.x,mouse_6.y,mouse_6.leftButton,mouse_6.midButton,mouse_6.rightButton,mouse_6.clicked_name,duringprac.thisRepN,duringprac.thisTrialN,duringprac.thisN,duringprac.thisIndex,duringprac.ran,begin.started,begin.stopped,key_resp_22.keys,key_resp_22.rt,key_resp_22.duration,Stim1_display.started,Stim1_display.stopped,circle1_ori,circle2_ori,circle1_SF,circle2_SF,response.started,response.stopped,mouse.x,mouse.y,mouse.leftButton,mouse.midButton,mouse.rightButton,mouse.clicked_name,trialnumber,double_pass.thisRepN,double_pass.thisTrialN,double_pass.thisN,double_pass.thisIndex,double_pass.ran,double_pass.order,main_trial.thisRepN,main_trial.thisTrialN,main_trial.thisN,main_trial.thisIndex,main_trial.ran,main_trial.order,Trial_Counter,Catch,Frequencies,response_2.started,response_2.stopped,mouse_2.x,mouse_2.y,mouse_2.leftButton,mouse_2.midButton,mouse_2.rightButton,mouse_2.clicked_name,special_trial.started,special_trial.stopped,catch_1.started,catch_1.stopped,mouse_3.x,mouse_3.y,mouse_3.leftButton,mouse_3.midButton,mouse_3.rightButton,catchresponse,catchnumber,response_time_catch,response_sum.started,response_sum.stopped,mouse_11.x,mouse_11.y,mouse_11.leftButton,mouse_11.midButton,mouse_11.rightButton,flip_presentation_sequence_for_double_pass.started,flip_presentation_sequence_for_double_pass.stopped,goodbye.started,goodbye.stopped,key_resp_3.keys,key_resp_3.rt,key_resp_3.duration
0.0004,0.0005,5f3168ce4634da00094704e6,2024-02-22_04h27.39.773,kallum_motion_pilot,2023.2.2,MacIntel,60.24096386,5f3168ce4634da00094704e6,65d6bb0e977760de756971f7,65d6bec1ab610f7bb580d5c3,,,,,,,,,,,,,,,,,,,,,,,,,,,,,,,,,,,,,,,,,,,,,,,,,,,,,,,,,,,,,,,,,,,,,,,,,,,,,,,,,,,,,,,,,,,,,,,,,,,,,,,,,,,,,,,,,,,,,,,,,,,,,,,,,,,,,,,,,,,,,,,,,
,,5f3168ce4634da00094704e6,2024-02-22_04h27.39.773,kallum_motion_pilot,2023.2.2,MacIntel,60.24096386,5f3168ce4634da00094704e6,65d6bb0e977760de756971f7,65d6bec1ab610f7bb580d5c3,0.0176,0.0177,0,0,0,139,1,sixeight,,,,,,,,,,,,,,,,,,,,,,,,,,,,,,,,,,,,,,,,,,,,,,,,,,,,,,,,,,,,,,,,,,,,,,,,,,,,,,,,,,,,,,,,,,,,,,,,,,,,,,,,,,,,,,,,,,,,,,,,,,,,,,,,,,,,,,,,,
,,5f3168ce4634da00094704e6,2024-02-22_04h27.39.773,kallum_motion_pilot,2023.2.2,MacIntel,60.24096386,5f3168ce4634da00094704e6,65d6bb0e977760de756971f7,65d6bec1ab610f7bb580d5c3,0.018,0.018,0,1,1,25,1,onethree,,,,,,,,,,,,,,,,,,,,,,,,,,,,,,,,,,,,,,,,,,,,,,,,,,,,,,,,,,,,,,,,,,,,,,,,,,,,,,,,,,,,,,,,,,,,,,,,,,,,,,,,,,,,,,,,,,,,,,,,,,,,,,,,,,,,,,,,,
,,5f3168ce4634da00094704e6,2024-02-22_04h27.39.773,kallum_motion_pilot,2023.2.2,MacIntel,60.24096386,5f3168ce4634da00094704e6,65d6bb0e977760de756971f7,65d6bec1ab610f7bb580d5c3,0.0181,0.0182,0,2,2,52,1,threeone,,,,,,,,,,,,,,,,,,,,,,,,,,,,,,,,,,,,,,,,,,,,,,,,,,,,,,,,,,,,,,,,,,,,,,,,,,,,,,,,,,,,,,,,,,,,,,,,,,,,,,,,,,,,,,,,,,,,,,,,,,,,,,,,,,,,,,,,,
,,5f3168ce4634da00094704e6,2024-02-22_04h27.39.773,kallum_motion_pilot,2023.2.2,MacIntel,60.24096386,5f3168ce4634da00094704e6,65d6bb0e977760de756971f7,65d6bec1ab610f7bb580d5c3,0.0183,0.0183,0,3,3,159,1,eightseven,,,,,,,,,,,,,,,,,,,,,,,,,,,,,,,,,,,,,,,,,,,,,,,,,,,,,,,,,,,,,,,,,,,,,,,,,,,,,,,,,,,,,,,,,,,,,,,,,,,,,,,,,,,,,,,,,,,,,,,,,,,,,,,,,,,,,,,,,
,,5f3168ce4634da00094704e6,2024-02-22_04h27.39.773,kallum_motion_pilot,2023.2.2,MacIntel,60.24096386,5f3168ce4634da00094704e6,65d6bb0e977760de756971f7,65d6bec1ab610f7bb580d5c3,0.0184,0.0184,0,4,4,0,1,onetwo,,,,,,,,,,,,,,,,,,,,,,,,,,,,,,,,,,,,,,,,,,,,,,,,,,,,,,,,,,,,,,,,,,,,,,,,,,,,,,,,,,,,,,,,,,,,,,,,,,,,,,,,,,,,,,,,,,,,,,,,,,,,,,,,,,,,,,,,,
,,5f3168ce4634da00094704e6,2024-02-22_04h27.39.773,kallum_motion_pilot,2023.2.2,MacIntel,60.24096386,5f3168ce4634da00094704e6,65d6bb0e977760de756971f7,65d6bec1ab610f7bb580d5c3,0.0186,0.0186,0,5,5,66,1,twoone,,,,,,,,,,,,,,,,,,,,,,,,,,,,,,,,,,,,,,,,,,,,,,,,,,,,,,,,,,,,,,,,,,,,,,,,,,,,,,,,,,,,,,,,,,,,,,,,,,,,,,,,,,,,,,,,,,,,,,,,,,,,,,,,,,,,,,,,,
,,5f3168ce4634da00094704e6,2024-02-22_04h27.39.773,kallum_motion_pilot,2023.2.2,MacIntel,60.24096386,5f3168ce4634da00094704e6,65d6bb0e977760de756971f7,65d6bec1ab610f7bb580d5c3,0.0187,0.0187,0,6,6,140,1,sevenfive,,,,,,,,,,,,,,,,,,,,,,,,,,,,,,,,,,,,,,,,,,,,,,,,,,,,,,,,,,,,,,,,,,,,,,,,,,,,,,,,,,,,,,,,,,,,,,,,,,,,,,,,,,,,,,,,,,,,,,,,,,,,,,,,,,,,,,,,,
,,5f3168ce4634da00094704e6,2024-02-22_04h27.39.773,kallum_motion_pilot,2023.2.2,MacIntel,60.24096386,5f3168ce4634da00094704e6,65d6bb0e977760de756971f7,65d6bec1ab610f7bb580d5c3,0.0189,0.0189,0,7,7,114,1,sixfive,,,,,,,,,,,,,,,,,,,,,,,,,,,,,,,,,,,,,,,,,,,,,,,,,,,,,,,,,,,,,,,,,,,,,,,,,,,,,,,,,,,,,,,,,,,,,,,,,,,,,,,,,,,,,,,,,,,,,,,,,,,,,,,,,,,,,,,,,
,,5f3168ce4634da00094704e6,2024-02-22_04h27.39.773,kallum_motion_pilot,2023.2.2,MacIntel,60.24096386,5f3168ce4634da00094704e6,65d6bb0e977760de756971f7,65d6bec1ab610f7bb580d5c3,0.0191,0.0191,0,8,8,33,1,onethree,,,,,,,,,,,,,,,,,,,,,,,,,,,,,,,,,,,,,,,,,,,,,,,,,,,,,,,,,,,,,,,,,,,,,,,,,,,,,,,,,,,,,,,,,,,,,,,,,,,,,,,,,,,,,,,,,,,,,,,,,,,,,,,,,,,,,,,,,
,,5f3168ce4634da00094704e6,2024-02-22_04h27.39.773,kallum_motion_pilot,2023.2.2,MacIntel,60.24096386,5f3168ce4634da00094704e6,65d6bb0e977760de756971f7,65d6bec1ab610f7bb580d5c3,0.0192,0.0193,0,9,9,18,1,twoone,,,,,,,,,,,,,,,,,,,,,,,,,,,,,,,,,,,,,,,,,,,,,,,,,,,,,,,,,,,,,,,,,,,,,,,,,,,,,,,,,,,,,,,,,,,,,,,,,,,,,,,,,,,,,,,,,,,,,,,,,,,,,,,,,,,,,,,,,
,,5f3168ce4634da00094704e6,2024-02-22_04h27.39.773,kallum_motion_pilot,2023.2.2,MacIntel,60.24096386,5f3168ce4634da00094704e6,65d6bb0e977760de756971f7,65d6bec1ab610f7bb580d5c3,0.0193,0.0193,0,10,10,30,1,fourtwo,,,,,,,,,,,,,,,,,,,,,,,,,,,,,,,,,,,,,,,,,,,,,,,,,,,,,,,,,,,,,,,,,,,,,,,,,,,,,,,,,,,,,,,,,,,,,,,,,,,,,,,,,,,,,,,,,,,,,,,,,,,,,,,,,,,,,,,,,
,,5f3168ce4634da00094704e6,2024-02-22_04h27.39.773,kallum_motion_pilot,2023.2.2,MacIntel,60.24096386,5f3168ce4634da00094704e6,65d6bb0e977760de756971f7,65d6bec1ab610f7bb580d5c3,0.0194,0.0195,0,11,11,83,1,sixeight,,,,,,,,,,,,,,,,,,,,,,,,,,,,,,,,,,,,,,,,,,,,,,,,,,,,,,,,,,,,,,,,,,,,,,,,,,,,,,,,,,,,,,,,,,,,,,,,,,,,,,,,,,,,,,,,,,,,,,,,,,,,,,,,,,,,,,,,,
,,5f3168ce4634da00094704e6,2024-02-22_04h27.39.773,kallum_motion_pilot,2023.2.2,MacIntel,60.24096386,5f3168ce4634da00094704e6,65d6bb0e977760de756971f7,65d6bec1ab610f7bb580d5c3,0.0196,0.0196,0,12,12,137,1,fiveseven,,,,,,,,,,,,,,,,,,,,,,,,,,,,,,,,,,,,,,,,,,,,,,,,,,,,,,,,,,,,,,,,,,,,,,,,,,,,,,,,,,,,,,,,,,,,,,,,,,,,,,,,,,,,,,,,,,,,,,,,,,,,,,,,,,,,,,,,,
,,5f3168ce4634da00094704e6,2024-02-22_04h27.39.773,kallum_motion_pilot,2023.2.2,MacIntel,60.24096386,5f3168ce4634da00094704e6,65d6bb0e977760de756971f7,65d6bec1ab610f7bb580d5c3,0.0204,0.0205,0,13,13,2,1,twoone,,,,,,,,,,,,,,,,,,,,,,,,,,,,,,,,,,,,,,,,,,,,,,,,,,,,,,,,,,,,,,,,,,,,,,,,,,,,,,,,,,,,,,,,,,,,,,,,,,,,,,,,,,,,,,,,,,,,,,,,,,,,,,,,,,,,,,,,,
,,5f3168ce4634da00094704e6,2024-02-22_04h27.39.773,kallum_motion_pilot,2023.2.2,MacIntel,60.24096386,5f3168ce4634da00094704e6,65d6bb0e977760de756971f7,65d6bec1ab610f7bb580d5c3,0.0206,0.0206,0,14,14,119,1,eightseven,,,,,,,,,,,,,,,,,,,,,,,,,,,,,,,,,,,,,,,,,,,,,,,,,,,,,,,,,,,,,,,,,,,,,,,,,,,,,,,,,,,,,,,,,,,,,,,,,,,,,,,,,,,,,,,,,,,,,,,,,,,,,,,,,,,,,,,,,
,,5f3168ce4634da00094704e6,2024-02-22_04h27.39.773,kallum_motion_pilot,2023.2.2,MacIntel,60.24096386,5f3168ce4634da00094704e6,65d6bb0e977760de756971f7,65d6bec1ab610f7bb580d5c3,0.0207,0.0207,0,15,15,45,1,threefour,,,,,,,,,,,,,,,,,,,,,,,,,,,,,,,,,,,,,,,,,,,,,,,,,,,,,,,,,,,,,,,,,,,,,,,,,,,,,,,,,,,,,,,,,,,,,,,,,,,,,,,,,,,,,,,,,,,,,,,,,,,,,,,,,,,,,,,,,
,,5f3168ce4634da00094704e6,2024-02-22_04h27.39.773,kallum_motion_pilot,2023.2.2,MacIntel,60.24096386,5f3168ce4634da00094704e6,65d6bb0e977760de756971f7,65d6bec1ab610f7bb580d5c3,0.0208,0.0208,0,16,16,11,1,twofour,,,,,,,,,,,,,,,,,,,,,,,,,,,,,,,,,,,,,,,,,,,,,,,,,,,,,,,,,,,,,,,,,,,,,,,,,,,,,,,,,,,,,,,,,,,,,,,,,,,,,,,,,,,,,,,,,,,,,,,,,,,,,,,,,,,,,,,,,
,,5f3168ce4634da00094704e6,2024-02-22_04h27.39.773,kallum_motion_pilot,2023.2.2,MacIntel,60.24096386,5f3168ce4634da00094704e6,65d6bb0e977760de756971f7,65d6bec1ab610f7bb580d5c3,0.0209,0.0209,0,17,17,44,1,threeone,,,,,,,,,,,,,,,,,,,,,,,,,,,,,,,,,,,,,,,,,,,,,,,,,,,,,,,,,,,,,,,,,,,,,,,,,,,,,,,,,,,,,,,,,,,,,,,,,,,,,,,,,,,,,,,,,,,,,,,,,,,,,,,,,,,,,,,,,
,,5f3168ce4634da00094704e6,2024-02-22_04h27.39.773,kallum_motion_pilot,2023.2.2,MacIntel,60.24096386,5f3168ce4634da00094704e6,65d6bb0e977760de756971f7,65d6bec1ab610f7bb580d5c3,0.021,0.0211,0,18,18,101,1,seveneight,,,,,,,,,,,,,,,,,,,,,,,,,,,,,,,,,,,,,,,,,,,,,,,,,,,,,,,,,,,,,,,,,,,,,,,,,,,,,,,,,,,,,,,,,,,,,,,,,,,,,,,,,,,,,,,,,,,,,,,,,,,,,,,,,,,,,,,,,
,,5f3168ce4634da00094704e6,2024-02-22_04h27.39.773,kallum_motion_pilot,2023.2.2,MacIntel,60.24096386,5f3168ce4634da00094704e6,65d6bb0e977760de756971f7,65d6bec1ab610f7bb580d5c3,0.0212,0.0212,0,19,19,122,1,sixfive,,,,,,,,,,,,,,,,,,,,,,,,,,,,,,,,,,,,,,,,,,,,,,,,,,,,,,,,,,,,,,,,,,,,,,,,,,,,,,,,,,,,,,,,,,,,,,,,,,,,,,,,,,,,,,,,,,,,,,,,,,,,,,,,,,,,,,,,,
,,5f3168ce4634da00094704e6,2024-02-22_04h27.39.773,kallum_motion_pilot,2023.2.2,MacIntel,60.24096386,5f3168ce4634da00094704e6,65d6bb0e977760de756971f7,65d6bec1ab610f7bb580d5c3,0.0213,0.0213,0,20,20,49,1,onethree,,,,,,,,,,,,,,,,,,,,,,,,,,,,,,,,,,,,,,,,,,,,,,,,,,,,,,,,,,,,,,,,,,,,,,,,,,,,,,,,,,,,,,,,,,,,,,,,,,,,,,,,,,,,,,,,,,,,,,,,,,,,,,,,,,,,,,,,,
,,5f3168ce4634da00094704e6,2024-02-22_04h27.39.773,kallum_motion_pilot,2023.2.2,MacIntel,60.24096386,5f3168ce4634da00094704e6,65d6bb0e977760de756971f7,65d6bec1ab610f7bb580d5c3,0.0214,0.0214,0,21,21,97,1,fiveseven,,,,,,,,,,,,,,,,,,,,,,,,,,,,,,,,,,,,,,,,,,,,,,,,,,,,,,,,,,,,,,,,,,,,,,,,,,,,,,,,,,,,,,,,,,,,,,,,,,,,,,,,,,,,,,,,,,,,,,,,,,,,,,,,,,,,,,,,,
,,5f3168ce4634da00094704e6,2024-02-22_04h27.39.773,kallum_motion_pilot,2023.2.2,MacIntel,60.24096386,5f3168ce4634da00094704e6,65d6bb0e977760de756971f7,65d6bec1ab610f7bb580d5c3,0.0214,0.0215,0,22,22,70,1,fourtwo,,,,,,,,,,,,,,,,,,,,,,,,,,,,,,,,,,,,,,,,,,,,,,,,,,,,,,,,,,,,,,,,,,,,,,,,,,,,,,,,,,,,,,,,,,,,,,,,,,,,,,,,,,,,,,,,,,,,,,,,,,,,,,,,,,,,,,,,,
,,5f3168ce4634da00094704e6,2024-02-22_04h27.39.773,kallum_motion_pilot,2023.2.2,MacIntel,60.24096386,5f3168ce4634da00094704e6,65d6bb0e977760de756971f7,65d6bec1ab610f7bb580d5c3,0.0216,0.0216,0,23,23,61,1,threefour,,,,,,,,,,,,,,,,,,,,,,,,,,,,,,,,,,,,,,,,,,,,,,,,,,,,,,,,,,,,,,,,,,,,,,,,,,,,,,,,,,,,,,,,,,,,,,,,,,,,,,,,,,,,,,,,,,,,,,,,,,,,,,,,,,,,,,,,,
,,5f3168ce4634da00094704e6,2024-02-22_04h27.39.773,kallum_motion_pilot,2023.2.2,MacIntel,60.24096386,5f3168ce4634da00094704e6,65d6bb0e977760de756971f7,65d6bec1ab610f7bb580d5c3,0.0217,0.0218,0,24,24,87,1,eightseven,,,,,,,,,,,,,,,,,,,,,,,,,,,,,,,,,,,,,,,,,,,,,,,,,,,,,,,,,,,,,,,,,,,,,,,,,,,,,,,,,,,,,,,,,,,,,,,,,,,,,,,,,,,,,,,,,,,,,,,,,,,,,,,,,,,,,,,,,
,,5f3168ce4634da00094704e6,2024-02-22_04h27.39.773,kallum_motion_pilot,2023.2.2,MacIntel,60.24096386,5f3168ce4634da00094704e6,65d6bb0e977760de756971f7,65d6bec1ab610f7bb580d5c3,0.0219,0.0219,0,25,25,135,1,eightseven,,,,,,,,,,,,,,,,,,,,,,,,,,,,,,,,,,,,,,,,,,,,,,,,,,,,,,,,,,,,,,,,,,,,,,,,,,,,,,,,,,,,,,,,,,,,,,,,,,,,,,,,,,,,,,,,,,,,,,,,,,,,,,,,,,,,,,,,,
,,5f3168ce4634da00094704e6,2024-02-22_04h27.39.773,kallum_motion_pilot,2023.2.2,MacIntel,60.24096386,5f3168ce4634da00094704e6,65d6bb0e977760de756971f7,65d6bec1ab610f7bb580d5c3,0.022,0.022,0,26,26,58,1,twoone,,,,,,,,,,,,,,,,,,,,,,,,,,,,,,,,,,,,,,,,,,,,,,,,,,,,,,,,,,,,,,,,,,,,,,,,,,,,,,,,,,,,,,,,,,,,,,,,,,,,,,,,,,,,,,,,,,,,,,,,,,,,,,,,,,,,,,,,,
,,5f3168ce4634da00094704e6,2024-02-22_04h27.39.773,kallum_motion_pilot,2023.2.2,MacIntel,60.24096386,5f3168ce4634da00094704e6,65d6bb0e977760de756971f7,65d6bec1ab610f7bb580d5c3,0.0221,0.0221,0,27,27,89,1,fiveseven,,,,,,,,,,,,,,,,,,,,,,,,,,,,,,,,,,,,,,,,,,,,,,,,,,,,,,,,,,,,,,,,,,,,,,,,,,,,,,,,,,,,,,,,,,,,,,,,,,,,,,,,,,,,,,,,,,,,,,,,,,,,,,,,,,,,,,,,,
,,5f3168ce4634da00094704e6,2024-02-22_04h27.39.773,kallum_motion_pilot,2023.2.2,MacIntel,60.24096386,5f3168ce4634da00094704e6,65d6bb0e977760de756971f7,65d6bec1ab610f7bb580d5c3,0.0222,0.0222,0,28,28,112,1,fivesix,,,,,,,,,,,,,,,,,,,,,,,,,,,,,,,,,,,,,,,,,,,,,,,,,,,,,,,,,,,,,,,,,,,,,,,,,,,,,,,,,,,,,,,,,,,,,,,,,,,,,,,,,,,,,,,,,,,,,,,,,,,,,,,,,,,,,,,,,
,,5f3168ce4634da00094704e6,2024-02-22_04h27.39.773,kallum_motion_pilot,2023.2.2,MacIntel,60.24096386,5f3168ce4634da00094704e6,65d6bb0e977760de756971f7,65d6bec1ab610f7bb580d5c3,0.0223,0.0223,0,29,29,12,1,threeone,,,,,,,,,,,,,,,,,,,,,,,,,,,,,,,,,,,,,,,,,,,,,,,,,,,,,,,,,,,,,,,,,,,,,,,,,,,,,,,,,,,,,,,,,,,,,,,,,,,,,,,,,,,,,,,,,,,,,,,,,,,,,,,,,,,,,,,,,
,,5f3168ce4634da00094704e6,2024-02-22_04h27.39.773,kallum_motion_pilot,2023.2.2,MacIntel,60.24096386,5f3168ce4634da00094704e6,65d6bb0e977760de756971f7,65d6bec1ab610f7bb580d5c3,0.0224,0.0224,0,30,30,64,1,onetwo,,,,,,,,,,,,,,,,,,,,,,,,,,,,,,,,,,,,,,,,,,,,,,,,,,,,,,,,,,,,,,,,,,,,,,,,,,,,,,,,,,,,,,,,,,,,,,,,,,,,,,,,,,,,,,,,,,,,,,,,,,,,,,,,,,,,,,,,,
,,5f3168ce4634da00094704e6,2024-02-22_04h27.39.773,kallum_motion_pilot,2023.2.2,MacIntel,60.24096386,5f3168ce4634da00094704e6,65d6bb0e977760de756971f7,65d6bec1ab610f7bb580d5c3,0.0226,0.0226,0,31,31,75,1,twofour,,,,,,,,,,,,,,,,,,,,,,,,,,,,,,,,,,,,,,,,,,,,,,,,,,,,,,,,,,,,,,,,,,,,,,,,,,,,,,,,,,,,,,,,,,,,,,,,,,,,,,,,,,,,,,,,,,,,,,,,,,,,,,,,,,,,,,,,,
,,5f3168ce4634da00094704e6,2024-02-22_04h27.39.773,kallum_motion_pilot,2023.2.2,MacIntel,60.24096386,5f3168ce4634da00094704e6,65d6bb0e977760de756971f7,65d6bec1ab610f7bb580d5c3,0.0227,0.0227,0,32,32,141,1,seveneight,,,,,,,,,,,,,,,,,,,,,,,,,,,,,,,,,,,,,,,,,,,,,,,,,,,,,,,,,,,,,,,,,,,,,,,,,,,,,,,,,,,,,,,,,,,,,,,,,,,,,,,,,,,,,,,,,,,,,,,,,,,,,,,,,,,,,,,,,
,,5f3168ce4634da00094704e6,2024-02-22_04h27.39.773,kallum_motion_pilot,2023.2.2,MacIntel,60.24096386,5f3168ce4634da00094704e6,65d6bb0e977760de756971f7,65d6bec1ab610f7bb580d5c3,0.0228,0.0229,0,33,33,15,1,fourthree,,,,,,,,,,,,,,,,,,,,,,,,,,,,,,,,,,,,,,,,,,,,,,,,,,,,,,,,,,,,,,,,,,,,,,,,,,,,,,,,,,,,,,,,,,,,,,,,,,,,,,,,,,,,,,,,,,,,,,,,,,,,,,,,,,,,,,,,,
,,5f3168ce4634da00094704e6,2024-02-22_04h27.39.773,kallum_motion_pilot,2023.2.2,MacIntel,60.24096386,5f3168ce4634da00094704e6,65d6bb0e977760de756971f7,65d6bec1ab610f7bb580d5c3,0.023,0.023,0,34,34,142,1,eightsix,,,,,,,,,,,,,,,,,,,,,,,,,,,,,,,,,,,,,,,,,,,,,,,,,,,,,,,,,,,,,,,,,,,,,,,,,,,,,,,,,,,,,,,,,,,,,,,,,,,,,,,,,,,,,,,,,,,,,,,,,,,,,,,,,,,,,,,,,
,,5f3168ce4634da00094704e6,2024-02-22_04h27.39.773,kallum_motion_pilot,2023.2.2,MacIntel,60.24096386,5f3168ce4634da00094704e6,65d6bb0e977760de756971f7,65d6bec1ab610f7bb580d5c3,0.0231,0.0231,0,35,35,105,1,fiveseven,,,,,,,,,,,,,,,,,,,,,,,,,,,,,,,,,,,,,,,,,,,,,,,,,,,,,,,,,,,,,,,,,,,,,,,,,,,,,,,,,,,,,,,,,,,,,,,,,,,,,,,,,,,,,,,,,,,,,,,,,,,,,,,,,,,,,,,,,
,,5f3168ce4634da00094704e6,2024-02-22_04h27.39.773,kallum_motion_pilot,2023.2.2,MacIntel,60.24096386,5f3168ce4634da00094704e6,65d6bb0e977760de756971f7,65d6bec1ab610f7bb580d5c3,0.0232,0.0232,0,36,36,34,1,twoone,,,,,,,,,,,,,,,,,,,,,,,,,,,,,,,,,,,,,,,,,,,,,,,,,,,,,,,,,,,,,,,,,,,,,,,,,,,,,,,,,,,,,,,,,,,,,,,,,,,,,,,,,,,,,,,,,,,,,,,,,,,,,,,,,,,,,,,,,
,,5f3168ce4634da00094704e6,2024-02-22_04h27.39.773,kallum_motion_pilot,2023.2.2,MacIntel,60.24096386,5f3168ce4634da00094704e6,65d6bb0e977760de756971f7,65d6bec1ab610f7bb580d5c3,0.0233,0.0233,0,37,37,47,1,fourthree,,,,,,,,,,,,,,,,,,,,,,,,,,,,,,,,,,,,,,,,,,,,,,,,,,,,,,,,,,,,,,,,,,,,,,,,,,,,,,,,,,,,,,,,,,,,,,,,,,,,,,,,,,,,,,,,,,,,,,,,,,,,,,,,,,,,,,,,,
,,5f3168ce4634da00094704e6,2024-02-22_04h27.39.773,kallum_motion_pilot,2023.2.2,MacIntel,60.24096386,5f3168ce4634da00094704e6,65d6bb0e977760de756971f7,65d6bec1ab610f7bb580d5c3,0.0234,0.0234,0,38,38,98,1,sixfive,,,,,,,,,,,,,,,,,,,,,,,,,,,,,,,,,,,,,,,,,,,,,,,,,,,,,,,,,,,,,,,,,,,,,,,,,,,,,,,,,,,,,,,,,,,,,,,,,,,,,,,,,,,,,,,,,,,,,,,,,,,,,,,,,,,,,,,,,
,,5f3168ce4634da00094704e6,2024-02-22_04h27.39.773,kallum_motion_pilot,2023.2.2,MacIntel,60.24096386,5f3168ce4634da00094704e6,65d6bb0e977760de756971f7,65d6bec1ab610f7bb580d5c3,0.0235,0.0235,0,39,39,88,1,fivesix,,,,,,,,,,,,,,,,,,,,,,,,,,,,,,,,,,,,,,,,,,,,,,,,,,,,,,,,,,,,,,,,,,,,,,,,,,,,,,,,,,,,,,,,,,,,,,,,,,,,,,,,,,,,,,,,,,,,,,,,,,,,,,,,,,,,,,,,,
,,5f3168ce4634da00094704e6,2024-02-22_04h27.39.773,kallum_motion_pilot,2023.2.2,MacIntel,60.24096386,5f3168ce4634da00094704e6,65d6bb0e977760de756971f7,65d6bec1ab610f7bb580d5c3,0.0236,0.0237,0,40,40,158,1,eightsix,,,,,,,,,,,,,,,,,,,,,,,,,,,,,,,,,,,,,,,,,,,,,,,,,,,,,,,,,,,,,,,,,,,,,,,,,,,,,,,,,,,,,,,,,,,,,,,,,,,,,,,,,,,,,,,,,,,,,,,,,,,,,,,,,,,,,,,,,
,,5f3168ce4634da00094704e6,2024-02-22_04h27.39.773,kallum_motion_pilot,2023.2.2,MacIntel,60.24096386,5f3168ce4634da00094704e6,65d6bb0e977760de756971f7,65d6bec1ab610f7bb580d5c3,0.0237,0.0238,0,41,41,7,1,fourthree,,,,,,,,,,,,,,,,,,,,,,,,,,,,,,,,,,,,,,,,,,,,,,,,,,,,,,,,,,,,,,,,,,,,,,,,,,,,,,,,,,,,,,,,,,,,,,,,,,,,,,,,,,,,,,,,,,,,,,,,,,,,,,,,,,,,,,,,,
,,5f3168ce4634da00094704e6,2024-02-22_04h27.39.773,kallum_motion_pilot,2023.2.2,MacIntel,60.24096386,5f3168ce4634da00094704e6,65d6bb0e977760de756971f7,65d6bec1ab610f7bb580d5c3,0.0239,0.024,0,42,42,6,1,fourtwo,,,,,,,,,,,,,,,,,,,,,,,,,,,,,,,,,,,,,,,,,,,,,,,,,,,,,,,,,,,,,,,,,,,,,,,,,,,,,,,,,,,,,,,,,,,,,,,,,,,,,,,,,,,,,,,,,,,,,,,,,,,,,,,,,,,,,,,,,
,,5f3168ce4634da00094704e6,2024-02-22_04h27.39.773,kallum_motion_pilot,2023.2.2,MacIntel,60.24096386,5f3168ce4634da00094704e6,65d6bb0e977760de756971f7,65d6bec1ab610f7bb580d5c3,0.024,0.024,0,43,43,121,1,fiveseven,,,,,,,,,,,,,,,,,,,,,,,,,,,,,,,,,,,,,,,,,,,,,,,,,,,,,,,,,,,,,,,,,,,,,,,,,,,,,,,,,,,,,,,,,,,,,,,,,,,,,,,,,,,,,,,,,,,,,,,,,,,,,,,,,,,,,,,,,
,,5f3168ce4634da00094704e6,2024-02-22_04h27.39.773,kallum_motion_pilot,2023.2.2,MacIntel,60.24096386,5f3168ce4634da00094704e6,65d6bb0e977760de756971f7,65d6bec1ab610f7bb580d5c3,0.0242,0.0242,0,44,44,138,1,sixfive,,,,,,,,,,,,,,,,,,,,,,,,,,,,,,,,,,,,,,,,,,,,,,,,,,,,,,,,,,,,,,,,,,,,,,,,,,,,,,,,,,,,,,,,,,,,,,,,,,,,,,,,,,,,,,,,,,,,,,,,,,,,,,,,,,,,,,,,,
,,5f3168ce4634da00094704e6,2024-02-22_04h27.39.773,kallum_motion_pilot,2023.2.2,MacIntel,60.24096386,5f3168ce4634da00094704e6,65d6bb0e977760de756971f7,65d6bec1ab610f7bb580d5c3,0.0243,0.0243,0,45,45,154,1,sixfive,,,,,,,,,,,,,,,,,,,,,,,,,,,,,,,,,,,,,,,,,,,,,,,,,,,,,,,,,,,,,,,,,,,,,,,,,,,,,,,,,,,,,,,,,,,,,,,,,,,,,,,,,,,,,,,,,,,,,,,,,,,,,,,,,,,,,,,,,
,,5f3168ce4634da00094704e6,2024-02-22_04h27.39.773,kallum_motion_pilot,2023.2.2,MacIntel,60.24096386,5f3168ce4634da00094704e6,65d6bb0e977760de756971f7,65d6bec1ab610f7bb580d5c3,0.0244,0.0244,0,46,46,35,1,twofour,,,,,,,,,,,,,,,,,,,,,,,,,,,,,,,,,,,,,,,,,,,,,,,,,,,,,,,,,,,,,,,,,,,,,,,,,,,,,,,,,,,,,,,,,,,,,,,,,,,,,,,,,,,,,,,,,,,,,,,,,,,,,,,,,,,,,,,,,
,,5f3168ce4634da00094704e6,2024-02-22_04h27.39.773,kallum_motion_pilot,2023.2.2,MacIntel,60.24096386,5f3168ce4634da00094704e6,65d6bb0e977760de756971f7,65d6bec1ab610f7bb580d5c3,0.0245,0.0245,0,47,47,31,1,fourthree,,,,,,,,,,,,,,,,,,,,,,,,,,,,,,,,,,,,,,,,,,,,,,,,,,,,,,,,,,,,,,,,,,,,,,,,,,,,,,,,,,,,,,,,,,,,,,,,,,,,,,,,,,,,,,,,,,,,,,,,,,,,,,,,,,,,,,,,,
,,5f3168ce4634da00094704e6,2024-02-22_04h27.39.773,kallum_motion_pilot,2023.2.2,MacIntel,60.24096386,5f3168ce4634da00094704e6,65d6bb0e977760de756971f7,65d6bec1ab610f7bb580d5c3,0.0246,0.0246,0,48,48,85,1,seveneight,,,,,,,,,,,,,,,,,,,,,,,,,,,,,,,,,,,,,,,,,,,,,,,,,,,,,,,,,,,,,,,,,,,,,,,,,,,,,,,,,,,,,,,,,,,,,,,,,,,,,,,,,,,,,,,,,,,,,,,,,,,,,,,,,,,,,,,,,
,,5f3168ce4634da00094704e6,2024-02-22_04h27.39.773,kallum_motion_pilot,2023.2.2,MacIntel,60.24096386,5f3168ce4634da00094704e6,65d6bb0e977760de756971f7,65d6bec1ab610f7bb580d5c3,0.0248,0.0248,0,49,49,84,1,sevenfive,,,,,,,,,,,,,,,,,,,,,,,,,,,,,,,,,,,,,,,,,,,,,,,,,,,,,,,,,,,,,,,,,,,,,,,,,,,,,,,,,,,,,,,,,,,,,,,,,,,,,,,,,,,,,,,,,,,,,,,,,,,,,,,,,,,,,,,,,
,,5f3168ce4634da00094704e6,2024-02-22_04h27.39.773,kallum_motion_pilot,2023.2.2,MacIntel,60.24096386,5f3168ce4634da00094704e6,65d6bb0e977760de756971f7,65d6bec1ab610f7bb580d5c3,0.0249,0.0249,0,50,50,65,1,onethree,,,,,,,,,,,,,,,,,,,,,,,,,,,,,,,,,,,,,,,,,,,,,,,,,,,,,,,,,,,,,,,,,,,,,,,,,,,,,,,,,,,,,,,,,,,,,,,,,,,,,,,,,,,,,,,,,,,,,,,,,,,,,,,,,,,,,,,,,
,,5f3168ce4634da00094704e6,2024-02-22_04h27.39.773,kallum_motion_pilot,2023.2.2,MacIntel,60.24096386,5f3168ce4634da00094704e6,65d6bb0e977760de756971f7,65d6bec1ab610f7bb580d5c3,0.0249,0.025,0,51,51,24,1,onetwo,,,,,,,,,,,,,,,,,,,,,,,,,,,,,,,,,,,,,,,,,,,,,,,,,,,,,,,,,,,,,,,,,,,,,,,,,,,,,,,,,,,,,,,,,,,,,,,,,,,,,,,,,,,,,,,,,,,,,,,,,,,,,,,,,,,,,,,,,
,,5f3168ce4634da00094704e6,2024-02-22_04h27.39.773,kallum_motion_pilot,2023.2.2,MacIntel,60.24096386,5f3168ce4634da00094704e6,65d6bb0e977760de756971f7,65d6bec1ab610f7bb580d5c3,0.0251,0.0251,0,52,52,14,1,fourtwo,,,,,,,,,,,,,,,,,,,,,,,,,,,,,,,,,,,,,,,,,,,,,,,,,,,,,,,,,,,,,,,,,,,,,,,,,,,,,,,,,,,,,,,,,,,,,,,,,,,,,,,,,,,,,,,,,,,,,,,,,,,,,,,,,,,,,,,,,
,,5f3168ce4634da00094704e6,2024-02-22_04h27.39.773,kallum_motion_pilot,2023.2.2,MacIntel,60.24096386,5f3168ce4634da00094704e6,65d6bb0e977760de756971f7,65d6bec1ab610f7bb580d5c3,0.0252,0.0253,0,53,53,115,1,sixeight,,,,,,,,,,,,,,,,,,,,,,,,,,,,,,,,,,,,,,,,,,,,,,,,,,,,,,,,,,,,,,,,,,,,,,,,,,,,,,,,,,,,,,,,,,,,,,,,,,,,,,,,,,,,,,,,,,,,,,,,,,,,,,,,,,,,,,,,,
,,5f3168ce4634da00094704e6,2024-02-22_04h27.39.773,kallum_motion_pilot,2023.2.2,MacIntel,60.24096386,5f3168ce4634da00094704e6,65d6bb0e977760de756971f7,65d6bec1ab610f7bb580d5c3,0.0254,0.0254,0,54,54,127,1,eightseven,,,,,,,,,,,,,,,,,,,,,,,,,,,,,,,,,,,,,,,,,,,,,,,,,,,,,,,,,,,,,,,,,,,,,,,,,,,,,,,,,,,,,,,,,,,,,,,,,,,,,,,,,,,,,,,,,,,,,,,,,,,,,,,,,,,,,,,,,
,,5f3168ce4634da00094704e6,2024-02-22_04h27.39.773,kallum_motion_pilot,2023.2.2,MacIntel,60.24096386,5f3168ce4634da00094704e6,65d6bb0e977760de756971f7,65d6bec1ab610f7bb580d5c3,0.0255,0.0255,0,55,55,20,1,threeone,,,,,,,,,,,,,,,,,,,,,,,,,,,,,,,,,,,,,,,,,,,,,,,,,,,,,,,,,,,,,,,,,,,,,,,,,,,,,,,,,,,,,,,,,,,,,,,,,,,,,,,,,,,,,,,,,,,,,,,,,,,,,,,,,,,,,,,,,
,,5f3168ce4634da00094704e6,2024-02-22_04h27.39.773,kallum_motion_pilot,2023.2.2,MacIntel,60.24096386,5f3168ce4634da00094704e6,65d6bb0e977760de756971f7,65d6bec1ab610f7bb580d5c3,0.0256,0.0257,0,56,56,72,1,onetwo,,,,,,,,,,,,,,,,,,,,,,,,,,,,,,,,,,,,,,,,,,,,,,,,,,,,,,,,,,,,,,,,,,,,,,,,,,,,,,,,,,,,,,,,,,,,,,,,,,,,,,,,,,,,,,,,,,,,,,,,,,,,,,,,,,,,,,,,,
,,5f3168ce4634da00094704e6,2024-02-22_04h27.39.773,kallum_motion_pilot,2023.2.2,MacIntel,60.24096386,5f3168ce4634da00094704e6,65d6bb0e977760de756971f7,65d6bec1ab610f7bb580d5c3,0.0257,0.0257,0,57,57,1,1,onethree,,,,,,,,,,,,,,,,,,,,,,,,,,,,,,,,,,,,,,,,,,,,,,,,,,,,,,,,,,,,,,,,,,,,,,,,,,,,,,,,,,,,,,,,,,,,,,,,,,,,,,,,,,,,,,,,,,,,,,,,,,,,,,,,,,,,,,,,,
,,5f3168ce4634da00094704e6,2024-02-22_04h27.39.773,kallum_motion_pilot,2023.2.2,MacIntel,60.24096386,5f3168ce4634da00094704e6,65d6bb0e977760de756971f7,65d6bec1ab610f7bb580d5c3,0.0258,0.0259,0,58,58,151,1,eightseven,,,,,,,,,,,,,,,,,,,,,,,,,,,,,,,,,,,,,,,,,,,,,,,,,,,,,,,,,,,,,,,,,,,,,,,,,,,,,,,,,,,,,,,,,,,,,,,,,,,,,,,,,,,,,,,,,,,,,,,,,,,,,,,,,,,,,,,,,
,,5f3168ce4634da00094704e6,2024-02-22_04h27.39.773,kallum_motion_pilot,2023.2.2,MacIntel,60.24096386,5f3168ce4634da00094704e6,65d6bb0e977760de756971f7,65d6bec1ab610f7bb580d5c3,0.026,0.026,0,59,59,69,1,threefour,,,,,,,,,,,,,,,,,,,,,,,,,,,,,,,,,,,,,,,,,,,,,,,,,,,,,,,,,,,,,,,,,,,,,,,,,,,,,,,,,,,,,,,,,,,,,,,,,,,,,,,,,,,,,,,,,,,,,,,,,,,,,,,,,,,,,,,,,
,,5f3168ce4634da00094704e6,2024-02-22_04h27.39.773,kallum_motion_pilot,2023.2.2,MacIntel,60.24096386,5f3168ce4634da00094704e6,65d6bb0e977760de756971f7,65d6bec1ab610f7bb580d5c3,0.026,0.0261,0,60,60,82,1,sixfive,,,,,,,,,,,,,,,,,,,,,,,,,,,,,,,,,,,,,,,,,,,,,,,,,,,,,,,,,,,,,,,,,,,,,,,,,,,,,,,,,,,,,,,,,,,,,,,,,,,,,,,,,,,,,,,,,,,,,,,,,,,,,,,,,,,,,,,,,
,,5f3168ce4634da00094704e6,2024-02-22_04h27.39.773,kallum_motion_pilot,2023.2.2,MacIntel,60.24096386,5f3168ce4634da00094704e6,65d6bb0e977760de756971f7,65d6bec1ab610f7bb580d5c3,0.0262,0.0262,0,61,61,23,1,fourthree,,,,,,,,,,,,,,,,,,,,,,,,,,,,,,,,,,,,,,,,,,,,,,,,,,,,,,,,,,,,,,,,,,,,,,,,,,,,,,,,,,,,,,,,,,,,,,,,,,,,,,,,,,,,,,,,,,,,,,,,,,,,,,,,,,,,,,,,,
,,5f3168ce4634da00094704e6,2024-02-22_04h27.39.773,kallum_motion_pilot,2023.2.2,MacIntel,60.24096386,5f3168ce4634da00094704e6,65d6bb0e977760de756971f7,65d6bec1ab610f7bb580d5c3,0.0264,0.0264,0,62,62,28,1,threeone,,,,,,,,,,,,,,,,,,,,,,,,,,,,,,,,,,,,,,,,,,,,,,,,,,,,,,,,,,,,,,,,,,,,,,,,,,,,,,,,,,,,,,,,,,,,,,,,,,,,,,,,,,,,,,,,,,,,,,,,,,,,,,,,,,,,,,,,,
,,5f3168ce4634da00094704e6,2024-02-22_04h27.39.773,kallum_motion_pilot,2023.2.2,MacIntel,60.24096386,5f3168ce4634da00094704e6,65d6bb0e977760de756971f7,65d6bec1ab610f7bb580d5c3,0.0265,0.0265,0,63,63,54,1,fourtwo,,,,,,,,,,,,,,,,,,,,,,,,,,,,,,,,,,,,,,,,,,,,,,,,,,,,,,,,,,,,,,,,,,,,,,,,,,,,,,,,,,,,,,,,,,,,,,,,,,,,,,,,,,,,,,,,,,,,,,,,,,,,,,,,,,,,,,,,,
,,5f3168ce4634da00094704e6,2024-02-22_04h27.39.773,kallum_motion_pilot,2023.2.2,MacIntel,60.24096386,5f3168ce4634da00094704e6,65d6bb0e977760de756971f7,65d6bec1ab610f7bb580d5c3,0.0266,0.0267,0,64,64,106,1,sixfive,,,,,,,,,,,,,,,,,,,,,,,,,,,,,,,,,,,,,,,,,,,,,,,,,,,,,,,,,,,,,,,,,,,,,,,,,,,,,,,,,,,,,,,,,,,,,,,,,,,,,,,,,,,,,,,,,,,,,,,,,,,,,,,,,,,,,,,,,
,,5f3168ce4634da00094704e6,2024-02-22_04h27.39.773,kallum_motion_pilot,2023.2.2,MacIntel,60.24096386,5f3168ce4634da00094704e6,65d6bb0e977760de756971f7,65d6bec1ab610f7bb580d5c3,0.0267,0.0267,0,65,65,136,1,fivesix,,,,,,,,,,,,,,,,,,,,,,,,,,,,,,,,,,,,,,,,,,,,,,,,,,,,,,,,,,,,,,,,,,,,,,,,,,,,,,,,,,,,,,,,,,,,,,,,,,,,,,,,,,,,,,,,,,,,,,,,,,,,,,,,,,,,,,,,,
,,5f3168ce4634da00094704e6,2024-02-22_04h27.39.773,kallum_motion_pilot,2023.2.2,MacIntel,60.24096386,5f3168ce4634da00094704e6,65d6bb0e977760de756971f7,65d6bec1ab610f7bb580d5c3,0.0268,0.0268,0,66,66,79,1,eightseven,,,,,,,,,,,,,,,,,,,,,,,,,,,,,,,,,,,,,,,,,,,,,,,,,,,,,,,,,,,,,,,,,,,,,,,,,,,,,,,,,,,,,,,,,,,,,,,,,,,,,,,,,,,,,,,,,,,,,,,,,,,,,,,,,,,,,,,,,
,,5f3168ce4634da00094704e6,2024-02-22_04h27.39.773,kallum_motion_pilot,2023.2.2,MacIntel,60.24096386,5f3168ce4634da00094704e6,65d6bb0e977760de756971f7,65d6bec1ab610f7bb580d5c3,0.027,0.027,0,67,67,149,1,seveneight,,,,,,,,,,,,,,,,,,,,,,,,,,,,,,,,,,,,,,,,,,,,,,,,,,,,,,,,,,,,,,,,,,,,,,,,,,,,,,,,,,,,,,,,,,,,,,,,,,,,,,,,,,,,,,,,,,,,,,,,,,,,,,,,,,,,,,,,,
,,5f3168ce4634da00094704e6,2024-02-22_04h27.39.773,kallum_motion_pilot,2023.2.2,MacIntel,60.24096386,5f3168ce4634da00094704e6,65d6bb0e977760de756971f7,65d6bec1ab610f7bb580d5c3,0.0271,0.0271,0,68,68,99,1,sixeight,,,,,,,,,,,,,,,,,,,,,,,,,,,,,,,,,,,,,,,,,,,,,,,,,,,,,,,,,,,,,,,,,,,,,,,,,,,,,,,,,,,,,,,,,,,,,,,,,,,,,,,,,,,,,,,,,,,,,,,,,,,,,,,,,,,,,,,,,
,,5f3168ce4634da00094704e6,2024-02-22_04h27.39.773,kallum_motion_pilot,2023.2.2,MacIntel,60.24096386,5f3168ce4634da00094704e6,65d6bb0e977760de756971f7,65d6bec1ab610f7bb580d5c3,0.0298,0.0298,0,69,69,77,1,threefour,,,,,,,,,,,,,,,,,,,,,,,,,,,,,,,,,,,,,,,,,,,,,,,,,,,,,,,,,,,,,,,,,,,,,,,,,,,,,,,,,,,,,,,,,,,,,,,,,,,,,,,,,,,,,,,,,,,,,,,,,,,,,,,,,,,,,,,,,
,,5f3168ce4634da00094704e6,2024-02-22_04h27.39.773,kallum_motion_pilot,2023.2.2,MacIntel,60.24096386,5f3168ce4634da00094704e6,65d6bb0e977760de756971f7,65d6bec1ab610f7bb580d5c3,0.0299,0.0299,0,70,70,133,1,seveneight,,,,,,,,,,,,,,,,,,,,,,,,,,,,,,,,,,,,,,,,,,,,,,,,,,,,,,,,,,,,,,,,,,,,,,,,,,,,,,,,,,,,,,,,,,,,,,,,,,,,,,,,,,,,,,,,,,,,,,,,,,,,,,,,,,,,,,,,,
,,5f3168ce4634da00094704e6,2024-02-22_04h27.39.773,kallum_motion_pilot,2023.2.2,MacIntel,60.24096386,5f3168ce4634da00094704e6,65d6bb0e977760de756971f7,65d6bec1ab610f7bb580d5c3,0.03,0.0302,0,71,71,59,1,twofour,,,,,,,,,,,,,,,,,,,,,,,,,,,,,,,,,,,,,,,,,,,,,,,,,,,,,,,,,,,,,,,,,,,,,,,,,,,,,,,,,,,,,,,,,,,,,,,,,,,,,,,,,,,,,,,,,,,,,,,,,,,,,,,,,,,,,,,,,
,,5f3168ce4634da00094704e6,2024-02-22_04h27.39.773,kallum_motion_pilot,2023.2.2,MacIntel,60.24096386,5f3168ce4634da00094704e6,65d6bb0e977760de756971f7,65d6bec1ab610f7bb580d5c3,0.0302,0.0302,0,72,72,32,1,onetwo,,,,,,,,,,,,,,,,,,,,,,,,,,,,,,,,,,,,,,,,,,,,,,,,,,,,,,,,,,,,,,,,,,,,,,,,,,,,,,,,,,,,,,,,,,,,,,,,,,,,,,,,,,,,,,,,,,,,,,,,,,,,,,,,,,,,,,,,,
,,5f3168ce4634da00094704e6,2024-02-22_04h27.39.773,kallum_motion_pilot,2023.2.2,MacIntel,60.24096386,5f3168ce4634da00094704e6,65d6bb0e977760de756971f7,65d6bec1ab610f7bb580d5c3,0.0304,0.0305,0,73,73,68,1,threeone,,,,,,,,,,,,,,,,,,,,,,,,,,,,,,,,,,,,,,,,,,,,,,,,,,,,,,,,,,,,,,,,,,,,,,,,,,,,,,,,,,,,,,,,,,,,,,,,,,,,,,,,,,,,,,,,,,,,,,,,,,,,,,,,,,,,,,,,,
,,5f3168ce4634da00094704e6,2024-02-22_04h27.39.773,kallum_motion_pilot,2023.2.2,MacIntel,60.24096386,5f3168ce4634da00094704e6,65d6bb0e977760de756971f7,65d6bec1ab610f7bb580d5c3,0.0307,0.0307,0,74,74,104,1,fivesix,,,,,,,,,,,,,,,,,,,,,,,,,,,,,,,,,,,,,,,,,,,,,,,,,,,,,,,,,,,,,,,,,,,,,,,,,,,,,,,,,,,,,,,,,,,,,,,,,,,,,,,,,,,,,,,,,,,,,,,,,,,,,,,,,,,,,,,,,
,,5f3168ce4634da00094704e6,2024-02-22_04h27.39.773,kallum_motion_pilot,2023.2.2,MacIntel,60.24096386,5f3168ce4634da00094704e6,65d6bb0e977760de756971f7,65d6bec1ab610f7bb580d5c3,0.0307,0.0307,0,75,75,160,1,fivesix,,,,,,,,,,,,,,,,,,,,,,,,,,,,,,,,,,,,,,,,,,,,,,,,,,,,,,,,,,,,,,,,,,,,,,,,,,,,,,,,,,,,,,,,,,,,,,,,,,,,,,,,,,,,,,,,,,,,,,,,,,,,,,,,,,,,,,,,,
,,5f3168ce4634da00094704e6,2024-02-22_04h27.39.773,kallum_motion_pilot,2023.2.2,MacIntel,60.24096386,5f3168ce4634da00094704e6,65d6bb0e977760de756971f7,65d6bec1ab610f7bb580d5c3,0.0308,0.0308,0,76,76,111,1,eightseven,,,,,,,,,,,,,,,,,,,,,,,,,,,,,,,,,,,,,,,,,,,,,,,,,,,,,,,,,,,,,,,,,,,,,,,,,,,,,,,,,,,,,,,,,,,,,,,,,,,,,,,,,,,,,,,,,,,,,,,,,,,,,,,,,,,,,,,,,
,,5f3168ce4634da00094704e6,2024-02-22_04h27.39.773,kallum_motion_pilot,2023.2.2,MacIntel,60.24096386,5f3168ce4634da00094704e6,65d6bb0e977760de756971f7,65d6bec1ab610f7bb580d5c3,0.0309,0.0309,0,77,77,42,1,twoone,,,,,,,,,,,,,,,,,,,,,,,,,,,,,,,,,,,,,,,,,,,,,,,,,,,,,,,,,,,,,,,,,,,,,,,,,,,,,,,,,,,,,,,,,,,,,,,,,,,,,,,,,,,,,,,,,,,,,,,,,,,,,,,,,,,,,,,,,
,,5f3168ce4634da00094704e6,2024-02-22_04h27.39.773,kallum_motion_pilot,2023.2.2,MacIntel,60.24096386,5f3168ce4634da00094704e6,65d6bb0e977760de756971f7,65d6bec1ab610f7bb580d5c3,0.0309,0.031,0,78,78,13,1,threefour,,,,,,,,,,,,,,,,,,,,,,,,,,,,,,,,,,,,,,,,,,,,,,,,,,,,,,,,,,,,,,,,,,,,,,,,,,,,,,,,,,,,,,,,,,,,,,,,,,,,,,,,,,,,,,,,,,,,,,,,,,,,,,,,,,,,,,,,,
,,5f3168ce4634da00094704e6,2024-02-22_04h27.39.773,kallum_motion_pilot,2023.2.2,MacIntel,60.24096386,5f3168ce4634da00094704e6,65d6bb0e977760de756971f7,65d6bec1ab610f7bb580d5c3,0.031,0.031,0,79,79,150,1,eightsix,,,,,,,,,,,,,,,,,,,,,,,,,,,,,,,,,,,,,,,,,,,,,,,,,,,,,,,,,,,,,,,,,,,,,,,,,,,,,,,,,,,,,,,,,,,,,,,,,,,,,,,,,,,,,,,,,,,,,,,,,,,,,,,,,,,,,,,,,
,,5f3168ce4634da00094704e6,2024-02-22_04h27.39.773,kallum_motion_pilot,2023.2.2,MacIntel,60.24096386,5f3168ce4634da00094704e6,65d6bb0e977760de756971f7,65d6bec1ab610f7bb580d5c3,0.0311,0.0311,0,80,80,91,1,sixeight,,,,,,,,,,,,,,,,,,,,,,,,,,,,,,,,,,,,,,,,,,,,,,,,,,,,,,,,,,,,,,,,,,,,,,,,,,,,,,,,,,,,,,,,,,,,,,,,,,,,,,,,,,,,,,,,,,,,,,,,,,,,,,,,,,,,,,,,,
,,5f3168ce4634da00094704e6,2024-02-22_04h27.39.773,kallum_motion_pilot,2023.2.2,MacIntel,60.24096386,5f3168ce4634da00094704e6,65d6bb0e977760de756971f7,65d6bec1ab610f7bb580d5c3,0.0312,0.0312,0,81,81,147,1,sixeight,,,,,,,,,,,,,,,,,,,,,,,,,,,,,,,,,,,,,,,,,,,,,,,,,,,,,,,,,,,,,,,,,,,,,,,,,,,,,,,,,,,,,,,,,,,,,,,,,,,,,,,,,,,,,,,,,,,,,,,,,,,,,,,,,,,,,,,,,
,,5f3168ce4634da00094704e6,2024-02-22_04h27.39.773,kallum_motion_pilot,2023.2.2,MacIntel,60.24096386,5f3168ce4634da00094704e6,65d6bb0e977760de756971f7,65d6bec1ab610f7bb580d5c3,0.0312,0.0313,0,82,82,71,1,fourthree,,,,,,,,,,,,,,,,,,,,,,,,,,,,,,,,,,,,,,,,,,,,,,,,,,,,,,,,,,,,,,,,,,,,,,,,,,,,,,,,,,,,,,,,,,,,,,,,,,,,,,,,,,,,,,,,,,,,,,,,,,,,,,,,,,,,,,,,,
,,5f3168ce4634da00094704e6,2024-02-22_04h27.39.773,kallum_motion_pilot,2023.2.2,MacIntel,60.24096386,5f3168ce4634da00094704e6,65d6bb0e977760de756971f7,65d6bec1ab610f7bb580d5c3,0.0313,0.0313,0,83,83,93,1,seveneight,,,,,,,,,,,,,,,,,,,,,,,,,,,,,,,,,,,,,,,,,,,,,,,,,,,,,,,,,,,,,,,,,,,,,,,,,,,,,,,,,,,,,,,,,,,,,,,,,,,,,,,,,,,,,,,,,,,,,,,,,,,,,,,,,,,,,,,,,
,,5f3168ce4634da00094704e6,2024-02-22_04h27.39.773,kallum_motion_pilot,2023.2.2,MacIntel,60.24096386,5f3168ce4634da00094704e6,65d6bb0e977760de756971f7,65d6bec1ab610f7bb580d5c3,0.0313,0.0313,0,84,84,132,1,sevenfive,,,,,,,,,,,,,,,,,,,,,,,,,,,,,,,,,,,,,,,,,,,,,,,,,,,,,,,,,,,,,,,,,,,,,,,,,,,,,,,,,,,,,,,,,,,,,,,,,,,,,,,,,,,,,,,,,,,,,,,,,,,,,,,,,,,,,,,,,
,,5f3168ce4634da00094704e6,2024-02-22_04h27.39.773,kallum_motion_pilot,2023.2.2,MacIntel,60.24096386,5f3168ce4634da00094704e6,65d6bb0e977760de756971f7,65d6bec1ab610f7bb580d5c3,0.0314,0.0315,0,85,85,40,1,onetwo,,,,,,,,,,,,,,,,,,,,,,,,,,,,,,,,,,,,,,,,,,,,,,,,,,,,,,,,,,,,,,,,,,,,,,,,,,,,,,,,,,,,,,,,,,,,,,,,,,,,,,,,,,,,,,,,,,,,,,,,,,,,,,,,,,,,,,,,,
,,5f3168ce4634da00094704e6,2024-02-22_04h27.39.773,kallum_motion_pilot,2023.2.2,MacIntel,60.24096386,5f3168ce4634da00094704e6,65d6bb0e977760de756971f7,65d6bec1ab610f7bb580d5c3,0.0315,0.0315,0,86,86,39,1,fourthree,,,,,,,,,,,,,,,,,,,,,,,,,,,,,,,,,,,,,,,,,,,,,,,,,,,,,,,,,,,,,,,,,,,,,,,,,,,,,,,,,,,,,,,,,,,,,,,,,,,,,,,,,,,,,,,,,,,,,,,,,,,,,,,,,,,,,,,,,
,,5f3168ce4634da00094704e6,2024-02-22_04h27.39.773,kallum_motion_pilot,2023.2.2,MacIntel,60.24096386,5f3168ce4634da00094704e6,65d6bb0e977760de756971f7,65d6bec1ab610f7bb580d5c3,0.0315,0.0316,0,87,87,100,1,sevenfive,,,,,,,,,,,,,,,,,,,,,,,,,,,,,,,,,,,,,,,,,,,,,,,,,,,,,,,,,,,,,,,,,,,,,,,,,,,,,,,,,,,,,,,,,,,,,,,,,,,,,,,,,,,,,,,,,,,,,,,,,,,,,,,,,,,,,,,,,
,,5f3168ce4634da00094704e6,2024-02-22_04h27.39.773,kallum_motion_pilot,2023.2.2,MacIntel,60.24096386,5f3168ce4634da00094704e6,65d6bb0e977760de756971f7,65d6bec1ab610f7bb580d5c3,0.0317,0.0317,0,88,88,5,1,threefour,,,,,,,,,,,,,,,,,,,,,,,,,,,,,,,,,,,,,,,,,,,,,,,,,,,,,,,,,,,,,,,,,,,,,,,,,,,,,,,,,,,,,,,,,,,,,,,,,,,,,,,,,,,,,,,,,,,,,,,,,,,,,,,,,,,,,,,,,
,,5f3168ce4634da00094704e6,2024-02-22_04h27.39.773,kallum_motion_pilot,2023.2.2,MacIntel,60.24096386,5f3168ce4634da00094704e6,65d6bb0e977760de756971f7,65d6bec1ab610f7bb580d5c3,0.0317,0.0318,0,89,89,63,1,fourthree,,,,,,,,,,,,,,,,,,,,,,,,,,,,,,,,,,,,,,,,,,,,,,,,,,,,,,,,,,,,,,,,,,,,,,,,,,,,,,,,,,,,,,,,,,,,,,,,,,,,,,,,,,,,,,,,,,,,,,,,,,,,,,,,,,,,,,,,,
,,5f3168ce4634da00094704e6,2024-02-22_04h27.39.773,kallum_motion_pilot,2023.2.2,MacIntel,60.24096386,5f3168ce4634da00094704e6,65d6bb0e977760de756971f7,65d6bec1ab610f7bb580d5c3,0.0318,0.0318,0,90,90,62,1,fourtwo,,,,,,,,,,,,,,,,,,,,,,,,,,,,,,,,,,,,,,,,,,,,,,,,,,,,,,,,,,,,,,,,,,,,,,,,,,,,,,,,,,,,,,,,,,,,,,,,,,,,,,,,,,,,,,,,,,,,,,,,,,,,,,,,,,,,,,,,,
,,5f3168ce4634da00094704e6,2024-02-22_04h27.39.773,kallum_motion_pilot,2023.2.2,MacIntel,60.24096386,5f3168ce4634da00094704e6,65d6bb0e977760de756971f7,65d6bec1ab610f7bb580d5c3,0.0318,0.0319,0,91,91,155,1,sixeight,,,,,,,,,,,,,,,,,,,,,,,,,,,,,,,,,,,,,,,,,,,,,,,,,,,,,,,,,,,,,,,,,,,,,,,,,,,,,,,,,,,,,,,,,,,,,,,,,,,,,,,,,,,,,,,,,,,,,,,,,,,,,,,,,,,,,,,,,
,,5f3168ce4634da00094704e6,2024-02-22_04h27.39.773,kallum_motion_pilot,2023.2.2,MacIntel,60.24096386,5f3168ce4634da00094704e6,65d6bb0e977760de756971f7,65d6bec1ab610f7bb580d5c3,0.0319,0.032,0,92,92,41,1,onethree,,,,,,,,,,,,,,,,,,,,,,,,,,,,,,,,,,,,,,,,,,,,,,,,,,,,,,,,,,,,,,,,,,,,,,,,,,,,,,,,,,,,,,,,,,,,,,,,,,,,,,,,,,,,,,,,,,,,,,,,,,,,,,,,,,,,,,,,,
,,5f3168ce4634da00094704e6,2024-02-22_04h27.39.773,kallum_motion_pilot,2023.2.2,MacIntel,60.24096386,5f3168ce4634da00094704e6,65d6bb0e977760de756971f7,65d6bec1ab610f7bb580d5c3,0.032,0.0321,0,93,93,56,1,onetwo,,,,,,,,,,,,,,,,,,,,,,,,,,,,,,,,,,,,,,,,,,,,,,,,,,,,,,,,,,,,,,,,,,,,,,,,,,,,,,,,,,,,,,,,,,,,,,,,,,,,,,,,,,,,,,,,,,,,,,,,,,,,,,,,,,,,,,,,,
,,5f3168ce4634da00094704e6,2024-02-22_04h27.39.773,kallum_motion_pilot,2023.2.2,MacIntel,60.24096386,5f3168ce4634da00094704e6,65d6bb0e977760de756971f7,65d6bec1ab610f7bb580d5c3,0.0321,0.0321,0,94,94,4,1,threeone,,,,,,,,,,,,,,,,,,,,,,,,,,,,,,,,,,,,,,,,,,,,,,,,,,,,,,,,,,,,,,,,,,,,,,,,,,,,,,,,,,,,,,,,,,,,,,,,,,,,,,,,,,,,,,,,,,,,,,,,,,,,,,,,,,,,,,,,,
,,5f3168ce4634da00094704e6,2024-02-22_04h27.39.773,kallum_motion_pilot,2023.2.2,MacIntel,60.24096386,5f3168ce4634da00094704e6,65d6bb0e977760de756971f7,65d6bec1ab610f7bb580d5c3,0.0321,0.0321,0,95,95,48,1,onetwo,,,,,,,,,,,,,,,,,,,,,,,,,,,,,,,,,,,,,,,,,,,,,,,,,,,,,,,,,,,,,,,,,,,,,,,,,,,,,,,,,,,,,,,,,,,,,,,,,,,,,,,,,,,,,,,,,,,,,,,,,,,,,,,,,,,,,,,,,
,,5f3168ce4634da00094704e6,2024-02-22_04h27.39.773,kallum_motion_pilot,2023.2.2,MacIntel,60.24096386,5f3168ce4634da00094704e6,65d6bb0e977760de756971f7,65d6bec1ab610f7bb580d5c3,0.0322,0.0323,0,96,96,3,1,twofour,,,,,,,,,,,,,,,,,,,,,,,,,,,,,,,,,,,,,,,,,,,,,,,,,,,,,,,,,,,,,,,,,,,,,,,,,,,,,,,,,,,,,,,,,,,,,,,,,,,,,,,,,,,,,,,,,,,,,,,,,,,,,,,,,,,,,,,,,
,,5f3168ce4634da00094704e6,2024-02-22_04h27.39.773,kallum_motion_pilot,2023.2.2,MacIntel,60.24096386,5f3168ce4634da00094704e6,65d6bb0e977760de756971f7,65d6bec1ab610f7bb580d5c3,0.0323,0.0323,0,97,97,128,1,fivesix,,,,,,,,,,,,,,,,,,,,,,,,,,,,,,,,,,,,,,,,,,,,,,,,,,,,,,,,,,,,,,,,,,,,,,,,,,,,,,,,,,,,,,,,,,,,,,,,,,,,,,,,,,,,,,,,,,,,,,,,,,,,,,,,,,,,,,,,,
,,5f3168ce4634da00094704e6,2024-02-22_04h27.39.773,kallum_motion_pilot,2023.2.2,MacIntel,60.24096386,5f3168ce4634da00094704e6,65d6bb0e977760de756971f7,65d6bec1ab610f7bb580d5c3,0.0323,0.0323,0,98,98,124,1,sevenfive,,,,,,,,,,,,,,,,,,,,,,,,,,,,,,,,,,,,,,,,,,,,,,,,,,,,,,,,,,,,,,,,,,,,,,,,,,,,,,,,,,,,,,,,,,,,,,,,,,,,,,,,,,,,,,,,,,,,,,,,,,,,,,,,,,,,,,,,,
,,5f3168ce4634da00094704e6,2024-02-22_04h27.39.773,kallum_motion_pilot,2023.2.2,MacIntel,60.24096386,5f3168ce4634da00094704e6,65d6bb0e977760de756971f7,65d6bec1ab610f7bb580d5c3,0.0323,0.0324,0,99,99,51,1,twofour,,,,,,,,,,,,,,,,,,,,,,,,,,,,,,,,,,,,,,,,,,,,,,,,,,,,,,,,,,,,,,,,,,,,,,,,,,,,,,,,,,,,,,,,,,,,,,,,,,,,,,,,,,,,,,,,,,,,,,,,,,,,,,,,,,,,,,,,,
,,5f3168ce4634da00094704e6,2024-02-22_04h27.39.773,kallum_motion_pilot,2023.2.2,MacIntel,60.24096386,5f3168ce4634da00094704e6,65d6bb0e977760de756971f7,65d6bec1ab610f7bb580d5c3,0.0324,0.0325,0,100,100,131,1,sixeight,,,,,,,,,,,,,,,,,,,,,,,,,,,,,,,,,,,,,,,,,,,,,,,,,,,,,,,,,,,,,,,,,,,,,,,,,,,,,,,,,,,,,,,,,,,,,,,,,,,,,,,,,,,,,,,,,,,,,,,,,,,,,,,,,,,,,,,,,
,,5f3168ce4634da00094704e6,2024-02-22_04h27.39.773,kallum_motion_pilot,2023.2.2,MacIntel,60.24096386,5f3168ce4634da00094704e6,65d6bb0e977760de756971f7,65d6bec1ab610f7bb580d5c3,0.0325,0.0326,0,101,101,8,1,onetwo,,,,,,,,,,,,,,,,,,,,,,,,,,,,,,,,,,,,,,,,,,,,,,,,,,,,,,,,,,,,,,,,,,,,,,,,,,,,,,,,,,,,,,,,,,,,,,,,,,,,,,,,,,,,,,,,,,,,,,,,,,,,,,,,,,,,,,,,,
,,5f3168ce4634da00094704e6,2024-02-22_04h27.39.773,kallum_motion_pilot,2023.2.2,MacIntel,60.24096386,5f3168ce4634da00094704e6,65d6bb0e977760de756971f7,65d6bec1ab610f7bb580d5c3,0.0326,0.0326,0,102,102,22,1,fourtwo,,,,,,,,,,,,,,,,,,,,,,,,,,,,,,,,,,,,,,,,,,,,,,,,,,,,,,,,,,,,,,,,,,,,,,,,,,,,,,,,,,,,,,,,,,,,,,,,,,,,,,,,,,,,,,,,,,,,,,,,,,,,,,,,,,,,,,,,,
,,5f3168ce4634da00094704e6,2024-02-22_04h27.39.773,kallum_motion_pilot,2023.2.2,MacIntel,60.24096386,5f3168ce4634da00094704e6,65d6bb0e977760de756971f7,65d6bec1ab610f7bb580d5c3,0.0326,0.0327,0,103,103,94,1,eightsix,,,,,,,,,,,,,,,,,,,,,,,,,,,,,,,,,,,,,,,,,,,,,,,,,,,,,,,,,,,,,,,,,,,,,,,,,,,,,,,,,,,,,,,,,,,,,,,,,,,,,,,,,,,,,,,,,,,,,,,,,,,,,,,,,,,,,,,,,
,,5f3168ce4634da00094704e6,2024-02-22_04h27.39.773,kallum_motion_pilot,2023.2.2,MacIntel,60.24096386,5f3168ce4634da00094704e6,65d6bb0e977760de756971f7,65d6bec1ab610f7bb580d5c3,0.0327,0.0327,0,104,104,57,1,onethree,,,,,,,,,,,,,,,,,,,,,,,,,,,,,,,,,,,,,,,,,,,,,,,,,,,,,,,,,,,,,,,,,,,,,,,,,,,,,,,,,,,,,,,,,,,,,,,,,,,,,,,,,,,,,,,,,,,,,,,,,,,,,,,,,,,,,,,,,
,,5f3168ce4634da00094704e6,2024-02-22_04h27.39.773,kallum_motion_pilot,2023.2.2,MacIntel,60.24096386,5f3168ce4634da00094704e6,65d6bb0e977760de756971f7,65d6bec1ab610f7bb580d5c3,0.0328,0.0328,0,105,105,103,1,eightseven,,,,,,,,,,,,,,,,,,,,,,,,,,,,,,,,,,,,,,,,,,,,,,,,,,,,,,,,,,,,,,,,,,,,,,,,,,,,,,,,,,,,,,,,,,,,,,,,,,,,,,,,,,,,,,,,,,,,,,,,,,,,,,,,,,,,,,,,,
,,5f3168ce4634da00094704e6,2024-02-22_04h27.39.773,kallum_motion_pilot,2023.2.2,MacIntel,60.24096386,5f3168ce4634da00094704e6,65d6bb0e977760de756971f7,65d6bec1ab610f7bb580d5c3,0.0328,0.0329,0,106,106,78,1,fourtwo,,,,,,,,,,,,,,,,,,,,,,,,,,,,,,,,,,,,,,,,,,,,,,,,,,,,,,,,,,,,,,,,,,,,,,,,,,,,,,,,,,,,,,,,,,,,,,,,,,,,,,,,,,,,,,,,,,,,,,,,,,,,,,,,,,,,,,,,,
,,5f3168ce4634da00094704e6,2024-02-22_04h27.39.773,kallum_motion_pilot,2023.2.2,MacIntel,60.24096386,5f3168ce4634da00094704e6,65d6bb0e977760de756971f7,65d6bec1ab610f7bb580d5c3,0.0329,0.033,0,107,107,27,1,twofour,,,,,,,,,,,,,,,,,,,,,,,,,,,,,,,,,,,,,,,,,,,,,,,,,,,,,,,,,,,,,,,,,,,,,,,,,,,,,,,,,,,,,,,,,,,,,,,,,,,,,,,,,,,,,,,,,,,,,,,,,,,,,,,,,,,,,,,,,
,,5f3168ce4634da00094704e6,2024-02-22_04h27.39.773,kallum_motion_pilot,2023.2.2,MacIntel,60.24096386,5f3168ce4634da00094704e6,65d6bb0e977760de756971f7,65d6bec1ab610f7bb580d5c3,0.033,0.033,0,108,108,73,1,onethree,,,,,,,,,,,,,,,,,,,,,,,,,,,,,,,,,,,,,,,,,,,,,,,,,,,,,,,,,,,,,,,,,,,,,,,,,,,,,,,,,,,,,,,,,,,,,,,,,,,,,,,,,,,,,,,,,,,,,,,,,,,,,,,,,,,,,,,,,
,,5f3168ce4634da00094704e6,2024-02-22_04h27.39.773,kallum_motion_pilot,2023.2.2,MacIntel,60.24096386,5f3168ce4634da00094704e6,65d6bb0e977760de756971f7,65d6bec1ab610f7bb580d5c3,0.0331,0.0331,0,109,109,19,1,twofour,,,,,,,,,,,,,,,,,,,,,,,,,,,,,,,,,,,,,,,,,,,,,,,,,,,,,,,,,,,,,,,,,,,,,,,,,,,,,,,,,,,,,,,,,,,,,,,,,,,,,,,,,,,,,,,,,,,,,,,,,,,,,,,,,,,,,,,,,
,,5f3168ce4634da00094704e6,2024-02-22_04h27.39.773,kallum_motion_pilot,2023.2.2,MacIntel,60.24096386,5f3168ce4634da00094704e6,65d6bb0e977760de756971f7,65d6bec1ab610f7bb580d5c3,0.0331,0.0331,0,110,110,143,1,eightseven,,,,,,,,,,,,,,,,,,,,,,,,,,,,,,,,,,,,,,,,,,,,,,,,,,,,,,,,,,,,,,,,,,,,,,,,,,,,,,,,,,,,,,,,,,,,,,,,,,,,,,,,,,,,,,,,,,,,,,,,,,,,,,,,,,,,,,,,,
,,5f3168ce4634da00094704e6,2024-02-22_04h27.39.773,kallum_motion_pilot,2023.2.2,MacIntel,60.24096386,5f3168ce4634da00094704e6,65d6bb0e977760de756971f7,65d6bec1ab610f7bb580d5c3,0.0333,0.0333,0,111,111,125,1,seveneight,,,,,,,,,,,,,,,,,,,,,,,,,,,,,,,,,,,,,,,,,,,,,,,,,,,,,,,,,,,,,,,,,,,,,,,,,,,,,,,,,,,,,,,,,,,,,,,,,,,,,,,,,,,,,,,,,,,,,,,,,,,,,,,,,,,,,,,,,
,,5f3168ce4634da00094704e6,2024-02-22_04h27.39.773,kallum_motion_pilot,2023.2.2,MacIntel,60.24096386,5f3168ce4634da00094704e6,65d6bb0e977760de756971f7,65d6bec1ab610f7bb580d5c3,0.0333,0.0333,0,112,112,90,1,sixfive,,,,,,,,,,,,,,,,,,,,,,,,,,,,,,,,,,,,,,,,,,,,,,,,,,,,,,,,,,,,,,,,,,,,,,,,,,,,,,,,,,,,,,,,,,,,,,,,,,,,,,,,,,,,,,,,,,,,,,,,,,,,,,,,,,,,,,,,,
,,5f3168ce4634da00094704e6,2024-02-22_04h27.39.773,kallum_motion_pilot,2023.2.2,MacIntel,60.24096386,5f3168ce4634da00094704e6,65d6bb0e977760de756971f7,65d6bec1ab610f7bb580d5c3,0.0334,0.0334,0,113,113,134,1,eightsix,,,,,,,,,,,,,,,,,,,,,,,,,,,,,,,,,,,,,,,,,,,,,,,,,,,,,,,,,,,,,,,,,,,,,,,,,,,,,,,,,,,,,,,,,,,,,,,,,,,,,,,,,,,,,,,,,,,,,,,,,,,,,,,,,,,,,,,,,
,,5f3168ce4634da00094704e6,2024-02-22_04h27.39.773,kallum_motion_pilot,2023.2.2,MacIntel,60.24096386,5f3168ce4634da00094704e6,65d6bb0e977760de756971f7,65d6bec1ab610f7bb580d5c3,0.0334,0.0335,0,114,114,96,1,fivesix,,,,,,,,,,,,,,,,,,,,,,,,,,,,,,,,,,,,,,,,,,,,,,,,,,,,,,,,,,,,,,,,,,,,,,,,,,,,,,,,,,,,,,,,,,,,,,,,,,,,,,,,,,,,,,,,,,,,,,,,,,,,,,,,,,,,,,,,,
,,5f3168ce4634da00094704e6,2024-02-22_04h27.39.773,kallum_motion_pilot,2023.2.2,MacIntel,60.24096386,5f3168ce4634da00094704e6,65d6bb0e977760de756971f7,65d6bec1ab610f7bb580d5c3,0.0335,0.0335,0,115,115,146,1,sixfive,,,,,,,,,,,,,,,,,,,,,,,,,,,,,,,,,,,,,,,,,,,,,,,,,,,,,,,,,,,,,,,,,,,,,,,,,,,,,,,,,,,,,,,,,,,,,,,,,,,,,,,,,,,,,,,,,,,,,,,,,,,,,,,,,,,,,,,,,
,,5f3168ce4634da00094704e6,2024-02-22_04h27.39.773,kallum_motion_pilot,2023.2.2,MacIntel,60.24096386,5f3168ce4634da00094704e6,65d6bb0e977760de756971f7,65d6bec1ab610f7bb580d5c3,0.0336,0.0336,0,116,116,120,1,fivesix,,,,,,,,,,,,,,,,,,,,,,,,,,,,,,,,,,,,,,,,,,,,,,,,,,,,,,,,,,,,,,,,,,,,,,,,,,,,,,,,,,,,,,,,,,,,,,,,,,,,,,,,,,,,,,,,,,,,,,,,,,,,,,,,,,,,,,,,,
,,5f3168ce4634da00094704e6,2024-02-22_04h27.39.773,kallum_motion_pilot,2023.2.2,MacIntel,60.24096386,5f3168ce4634da00094704e6,65d6bb0e977760de756971f7,65d6bec1ab610f7bb580d5c3,0.0336,0.0336,0,117,117,145,1,fiveseven,,,,,,,,,,,,,,,,,,,,,,,,,,,,,,,,,,,,,,,,,,,,,,,,,,,,,,,,,,,,,,,,,,,,,,,,,,,,,,,,,,,,,,,,,,,,,,,,,,,,,,,,,,,,,,,,,,,,,,,,,,,,,,,,,,,,,,,,,
,,5f3168ce4634da00094704e6,2024-02-22_04h27.39.773,kallum_motion_pilot,2023.2.2,MacIntel,60.24096386,5f3168ce4634da00094704e6,65d6bb0e977760de756971f7,65d6bec1ab610f7bb580d5c3,0.0337,0.0338,0,118,118,10,1,twoone,,,,,,,,,,,,,,,,,,,,,,,,,,,,,,,,,,,,,,,,,,,,,,,,,,,,,,,,,,,,,,,,,,,,,,,,,,,,,,,,,,,,,,,,,,,,,,,,,,,,,,,,,,,,,,,,,,,,,,,,,,,,,,,,,,,,,,,,,
,,5f3168ce4634da00094704e6,2024-02-22_04h27.39.773,kallum_motion_pilot,2023.2.2,MacIntel,60.24096386,5f3168ce4634da00094704e6,65d6bb0e977760de756971f7,65d6bec1ab610f7bb580d5c3,0.0338,0.0338,0,119,119,37,1,threefour,,,,,,,,,,,,,,,,,,,,,,,,,,,,,,,,,,,,,,,,,,,,,,,,,,,,,,,,,,,,,,,,,,,,,,,,,,,,,,,,,,,,,,,,,,,,,,,,,,,,,,,,,,,,,,,,,,,,,,,,,,,,,,,,,,,,,,,,,
,,5f3168ce4634da00094704e6,2024-02-22_04h27.39.773,kallum_motion_pilot,2023.2.2,MacIntel,60.24096386,5f3168ce4634da00094704e6,65d6bb0e977760de756971f7,65d6bec1ab610f7bb580d5c3,0.0339,0.0339,0,120,120,110,1,eightsix,,,,,,,,,,,,,,,,,,,,,,,,,,,,,,,,,,,,,,,,,,,,,,,,,,,,,,,,,,,,,,,,,,,,,,,,,,,,,,,,,,,,,,,,,,,,,,,,,,,,,,,,,,,,,,,,,,,,,,,,,,,,,,,,,,,,,,,,,
,,5f3168ce4634da00094704e6,2024-02-22_04h27.39.773,kallum_motion_pilot,2023.2.2,MacIntel,60.24096386,5f3168ce4634da00094704e6,65d6bb0e977760de756971f7,65d6bec1ab610f7bb580d5c3,0.0339,0.0339,0,121,121,26,1,twoone,,,,,,,,,,,,,,,,,,,,,,,,,,,,,,,,,,,,,,,,,,,,,,,,,,,,,,,,,,,,,,,,,,,,,,,,,,,,,,,,,,,,,,,,,,,,,,,,,,,,,,,,,,,,,,,,,,,,,,,,,,,,,,,,,,,,,,,,,
,,5f3168ce4634da00094704e6,2024-02-22_04h27.39.773,kallum_motion_pilot,2023.2.2,MacIntel,60.24096386,5f3168ce4634da00094704e6,65d6bb0e977760de756971f7,65d6bec1ab610f7bb580d5c3,0.0339,0.0341,0,122,122,126,1,eightsix,,,,,,,,,,,,,,,,,,,,,,,,,,,,,,,,,,,,,,,,,,,,,,,,,,,,,,,,,,,,,,,,,,,,,,,,,,,,,,,,,,,,,,,,,,,,,,,,,,,,,,,,,,,,,,,,,,,,,,,,,,,,,,,,,,,,,,,,,
,,5f3168ce4634da00094704e6,2024-02-22_04h27.39.773,kallum_motion_pilot,2023.2.2,MacIntel,60.24096386,5f3168ce4634da00094704e6,65d6bb0e977760de756971f7,65d6bec1ab610f7bb580d5c3,0.0341,0.0341,0,123,123,95,1,eightseven,,,,,,,,,,,,,,,,,,,,,,,,,,,,,,,,,,,,,,,,,,,,,,,,,,,,,,,,,,,,,,,,,,,,,,,,,,,,,,,,,,,,,,,,,,,,,,,,,,,,,,,,,,,,,,,,,,,,,,,,,,,,,,,,,,,,,,,,,
,,5f3168ce4634da00094704e6,2024-02-22_04h27.39.773,kallum_motion_pilot,2023.2.2,MacIntel,60.24096386,5f3168ce4634da00094704e6,65d6bb0e977760de756971f7,65d6bec1ab610f7bb580d5c3,0.0342,0.0343,0,124,124,17,1,onethree,,,,,,,,,,,,,,,,,,,,,,,,,,,,,,,,,,,,,,,,,,,,,,,,,,,,,,,,,,,,,,,,,,,,,,,,,,,,,,,,,,,,,,,,,,,,,,,,,,,,,,,,,,,,,,,,,,,,,,,,,,,,,,,,,,,,,,,,,
,,5f3168ce4634da00094704e6,2024-02-22_04h27.39.773,kallum_motion_pilot,2023.2.2,MacIntel,60.24096386,5f3168ce4634da00094704e6,65d6bb0e977760de756971f7,65d6bec1ab610f7bb580d5c3,0.0344,0.0344,0,125,125,107,1,sixeight,,,,,,,,,,,,,,,,,,,,,,,,,,,,,,,,,,,,,,,,,,,,,,,,,,,,,,,,,,,,,,,,,,,,,,,,,,,,,,,,,,,,,,,,,,,,,,,,,,,,,,,,,,,,,,,,,,,,,,,,,,,,,,,,,,,,,,,,,
,,5f3168ce4634da00094704e6,2024-02-22_04h27.39.773,kallum_motion_pilot,2023.2.2,MacIntel,60.24096386,5f3168ce4634da00094704e6,65d6bb0e977760de756971f7,65d6bec1ab610f7bb580d5c3,0.0344,0.0345,0,126,126,53,1,threefour,,,,,,,,,,,,,,,,,,,,,,,,,,,,,,,,,,,,,,,,,,,,,,,,,,,,,,,,,,,,,,,,,,,,,,,,,,,,,,,,,,,,,,,,,,,,,,,,,,,,,,,,,,,,,,,,,,,,,,,,,,,,,,,,,,,,,,,,,
,,5f3168ce4634da00094704e6,2024-02-22_04h27.39.773,kallum_motion_pilot,2023.2.2,MacIntel,60.24096386,5f3168ce4634da00094704e6,65d6bb0e977760de756971f7,65d6bec1ab610f7bb580d5c3,0.0346,0.0346,0,127,127,9,1,onethree,,,,,,,,,,,,,,,,,,,,,,,,,,,,,,,,,,,,,,,,,,,,,,,,,,,,,,,,,,,,,,,,,,,,,,,,,,,,,,,,,,,,,,,,,,,,,,,,,,,,,,,,,,,,,,,,,,,,,,,,,,,,,,,,,,,,,,,,,
,,5f3168ce4634da00094704e6,2024-02-22_04h27.39.773,kallum_motion_pilot,2023.2.2,MacIntel,60.24096386,5f3168ce4634da00094704e6,65d6bb0e977760de756971f7,65d6bec1ab610f7bb580d5c3,0.0347,0.0347,0,128,128,16,1,onetwo,,,,,,,,,,,,,,,,,,,,,,,,,,,,,,,,,,,,,,,,,,,,,,,,,,,,,,,,,,,,,,,,,,,,,,,,,,,,,,,,,,,,,,,,,,,,,,,,,,,,,,,,,,,,,,,,,,,,,,,,,,,,,,,,,,,,,,,,,
,,5f3168ce4634da00094704e6,2024-02-22_04h27.39.773,kallum_motion_pilot,2023.2.2,MacIntel,60.24096386,5f3168ce4634da00094704e6,65d6bb0e977760de756971f7,65d6bec1ab610f7bb580d5c3,0.0347,0.0347,0,129,129,152,1,fivesix,,,,,,,,,,,,,,,,,,,,,,,,,,,,,,,,,,,,,,,,,,,,,,,,,,,,,,,,,,,,,,,,,,,,,,,,,,,,,,,,,,,,,,,,,,,,,,,,,,,,,,,,,,,,,,,,,,,,,,,,,,,,,,,,,,,,,,,,,
,,5f3168ce4634da00094704e6,2024-02-22_04h27.39.773,kallum_motion_pilot,2023.2.2,MacIntel,60.24096386,5f3168ce4634da00094704e6,65d6bb0e977760de756971f7,65d6bec1ab610f7bb580d5c3,0.0348,0.0349,0,130,130,117,1,seveneight,,,,,,,,,,,,,,,,,,,,,,,,,,,,,,,,,,,,,,,,,,,,,,,,,,,,,,,,,,,,,,,,,,,,,,,,,,,,,,,,,,,,,,,,,,,,,,,,,,,,,,,,,,,,,,,,,,,,,,,,,,,,,,,,,,,,,,,,,
,,5f3168ce4634da00094704e6,2024-02-22_04h27.39.773,kallum_motion_pilot,2023.2.2,MacIntel,60.24096386,5f3168ce4634da00094704e6,65d6bb0e977760de756971f7,65d6bec1ab610f7bb580d5c3,0.0349,0.035,0,131,131,55,1,fourthree,,,,,,,,,,,,,,,,,,,,,,,,,,,,,,,,,,,,,,,,,,,,,,,,,,,,,,,,,,,,,,,,,,,,,,,,,,,,,,,,,,,,,,,,,,,,,,,,,,,,,,,,,,,,,,,,,,,,,,,,,,,,,,,,,,,,,,,,,
,,5f3168ce4634da00094704e6,2024-02-22_04h27.39.773,kallum_motion_pilot,2023.2.2,MacIntel,60.24096386,5f3168ce4634da00094704e6,65d6bb0e977760de756971f7,65d6bec1ab610f7bb580d5c3,0.035,0.035,0,132,132,113,1,fiveseven,,,,,,,,,,,,,,,,,,,,,,,,,,,,,,,,,,,,,,,,,,,,,,,,,,,,,,,,,,,,,,,,,,,,,,,,,,,,,,,,,,,,,,,,,,,,,,,,,,,,,,,,,,,,,,,,,,,,,,,,,,,,,,,,,,,,,,,,,
,,5f3168ce4634da00094704e6,2024-02-22_04h27.39.773,kallum_motion_pilot,2023.2.2,MacIntel,60.24096386,5f3168ce4634da00094704e6,65d6bb0e977760de756971f7,65d6bec1ab610f7bb580d5c3,0.0351,0.0351,0,133,133,129,1,fiveseven,,,,,,,,,,,,,,,,,,,,,,,,,,,,,,,,,,,,,,,,,,,,,,,,,,,,,,,,,,,,,,,,,,,,,,,,,,,,,,,,,,,,,,,,,,,,,,,,,,,,,,,,,,,,,,,,,,,,,,,,,,,,,,,,,,,,,,,,,
,,5f3168ce4634da00094704e6,2024-02-22_04h27.39.773,kallum_motion_pilot,2023.2.2,MacIntel,60.24096386,5f3168ce4634da00094704e6,65d6bb0e977760de756971f7,65d6bec1ab610f7bb580d5c3,0.0351,0.0351,0,134,134,50,1,twoone,,,,,,,,,,,,,,,,,,,,,,,,,,,,,,,,,,,,,,,,,,,,,,,,,,,,,,,,,,,,,,,,,,,,,,,,,,,,,,,,,,,,,,,,,,,,,,,,,,,,,,,,,,,,,,,,,,,,,,,,,,,,,,,,,,,,,,,,,
,,5f3168ce4634da00094704e6,2024-02-22_04h27.39.773,kallum_motion_pilot,2023.2.2,MacIntel,60.24096386,5f3168ce4634da00094704e6,65d6bb0e977760de756971f7,65d6bec1ab610f7bb580d5c3,0.0352,0.0352,0,135,135,102,1,eightsix,,,,,,,,,,,,,,,,,,,,,,,,,,,,,,,,,,,,,,,,,,,,,,,,,,,,,,,,,,,,,,,,,,,,,,,,,,,,,,,,,,,,,,,,,,,,,,,,,,,,,,,,,,,,,,,,,,,,,,,,,,,,,,,,,,,,,,,,,
,,5f3168ce4634da00094704e6,2024-02-22_04h27.39.773,kallum_motion_pilot,2023.2.2,MacIntel,60.24096386,5f3168ce4634da00094704e6,65d6bb0e977760de756971f7,65d6bec1ab610f7bb580d5c3,0.0353,0.0353,0,136,136,161,1,fiveseven,,,,,,,,,,,,,,,,,,,,,,,,,,,,,,,,,,,,,,,,,,,,,,,,,,,,,,,,,,,,,,,,,,,,,,,,,,,,,,,,,,,,,,,,,,,,,,,,,,,,,,,,,,,,,,,,,,,,,,,,,,,,,,,,,,,,,,,,,
,,5f3168ce4634da00094704e6,2024-02-22_04h27.39.773,kallum_motion_pilot,2023.2.2,MacIntel,60.24096386,5f3168ce4634da00094704e6,65d6bb0e977760de756971f7,65d6bec1ab610f7bb580d5c3,0.0353,0.0354,0,137,137,46,1,fourtwo,,,,,,,,,,,,,,,,,,,,,,,,,,,,,,,,,,,,,,,,,,,,,,,,,,,,,,,,,,,,,,,,,,,,,,,,,,,,,,,,,,,,,,,,,,,,,,,,,,,,,,,,,,,,,,,,,,,,,,,,,,,,,,,,,,,,,,,,,
,,5f3168ce4634da00094704e6,2024-02-22_04h27.39.773,kallum_motion_pilot,2023.2.2,MacIntel,60.24096386,5f3168ce4634da00094704e6,65d6bb0e977760de756971f7,65d6bec1ab610f7bb580d5c3,0.0354,0.0354,0,138,138,148,1,sevenfive,,,,,,,,,,,,,,,,,,,,,,,,,,,,,,,,,,,,,,,,,,,,,,,,,,,,,,,,,,,,,,,,,,,,,,,,,,,,,,,,,,,,,,,,,,,,,,,,,,,,,,,,,,,,,,,,,,,,,,,,,,,,,,,,,,,,,,,,,
,,5f3168ce4634da00094704e6,2024-02-22_04h27.39.773,kallum_motion_pilot,2023.2.2,MacIntel,60.24096386,5f3168ce4634da00094704e6,65d6bb0e977760de756971f7,65d6bec1ab610f7bb580d5c3,0.0355,0.0356,0,139,139,80,1,fivesix,,,,,,,,,,,,,,,,,,,,,,,,,,,,,,,,,,,,,,,,,,,,,,,,,,,,,,,,,,,,,,,,,,,,,,,,,,,,,,,,,,,,,,,,,,,,,,,,,,,,,,,,,,,,,,,,,,,,,,,,,,,,,,,,,,,,,,,,,
,,5f3168ce4634da00094704e6,2024-02-22_04h27.39.773,kallum_motion_pilot,2023.2.2,MacIntel,60.24096386,5f3168ce4634da00094704e6,65d6bb0e977760de756971f7,65d6bec1ab610f7bb580d5c3,0.0356,0.0356,0,140,140,156,1,sevenfive,,,,,,,,,,,,,,,,,,,,,,,,,,,,,,,,,,,,,,,,,,,,,,,,,,,,,,,,,,,,,,,,,,,,,,,,,,,,,,,,,,,,,,,,,,,,,,,,,,,,,,,,,,,,,,,,,,,,,,,,,,,,,,,,,,,,,,,,,
,,5f3168ce4634da00094704e6,2024-02-22_04h27.39.773,kallum_motion_pilot,2023.2.2,MacIntel,60.24096386,5f3168ce4634da00094704e6,65d6bb0e977760de756971f7,65d6bec1ab610f7bb580d5c3,0.0357,0.0357,0,141,141,108,1,sevenfive,,,,,,,,,,,,,,,,,,,,,,,,,,,,,,,,,,,,,,,,,,,,,,,,,,,,,,,,,,,,,,,,,,,,,,,,,,,,,,,,,,,,,,,,,,,,,,,,,,,,,,,,,,,,,,,,,,,,,,,,,,,,,,,,,,,,,,,,,
,,5f3168ce4634da00094704e6,2024-02-22_04h27.39.773,kallum_motion_pilot,2023.2.2,MacIntel,60.24096386,5f3168ce4634da00094704e6,65d6bb0e977760de756971f7,65d6bec1ab610f7bb580d5c3,0.0357,0.0358,0,142,142,153,1,fiveseven,,,,,,,,,,,,,,,,,,,,,,,,,,,,,,,,,,,,,,,,,,,,,,,,,,,,,,,,,,,,,,,,,,,,,,,,,,,,,,,,,,,,,,,,,,,,,,,,,,,,,,,,,,,,,,,,,,,,,,,,,,,,,,,,,,,,,,,,,
,,5f3168ce4634da00094704e6,2024-02-22_04h27.39.773,kallum_motion_pilot,2023.2.2,MacIntel,60.24096386,5f3168ce4634da00094704e6,65d6bb0e977760de756971f7,65d6bec1ab610f7bb580d5c3,0.0358,0.0358,0,143,143,157,1,seveneight,,,,,,,,,,,,,,,,,,,,,,,,,,,,,,,,,,,,,,,,,,,,,,,,,,,,,,,,,,,,,,,,,,,,,,,,,,,,,,,,,,,,,,,,,,,,,,,,,,,,,,,,,,,,,,,,,,,,,,,,,,,,,,,,,,,,,,,,,
,,5f3168ce4634da00094704e6,2024-02-22_04h27.39.773,kallum_motion_pilot,2023.2.2,MacIntel,60.24096386,5f3168ce4634da00094704e6,65d6bb0e977760de756971f7,65d6bec1ab610f7bb580d5c3,0.0359,0.036,0,144,144,116,1,sevenfive,,,,,,,,,,,,,,,,,,,,,,,,,,,,,,,,,,,,,,,,,,,,,,,,,,,,,,,,,,,,,,,,,,,,,,,,,,,,,,,,,,,,,,,,,,,,,,,,,,,,,,,,,,,,,,,,,,,,,,,,,,,,,,,,,,,,,,,,,
,,5f3168ce4634da00094704e6,2024-02-22_04h27.39.773,kallum_motion_pilot,2023.2.2,MacIntel,60.24096386,5f3168ce4634da00094704e6,65d6bb0e977760de756971f7,65d6bec1ab610f7bb580d5c3,0.036,0.036,0,145,145,29,1,threefour,,,,,,,,,,,,,,,,,,,,,,,,,,,,,,,,,,,,,,,,,,,,,,,,,,,,,,,,,,,,,,,,,,,,,,,,,,,,,,,,,,,,,,,,,,,,,,,,,,,,,,,,,,,,,,,,,,,,,,,,,,,,,,,,,,,,,,,,,
,,5f3168ce4634da00094704e6,2024-02-22_04h27.39.773,kallum_motion_pilot,2023.2.2,MacIntel,60.24096386,5f3168ce4634da00094704e6,65d6bb0e977760de756971f7,65d6bec1ab610f7bb580d5c3,0.036,0.0361,0,146,146,21,1,threefour,,,,,,,,,,,,,,,,,,,,,,,,,,,,,,,,,,,,,,,,,,,,,,,,,,,,,,,,,,,,,,,,,,,,,,,,,,,,,,,,,,,,,,,,,,,,,,,,,,,,,,,,,,,,,,,,,,,,,,,,,,,,,,,,,,,,,,,,,
,,5f3168ce4634da00094704e6,2024-02-22_04h27.39.773,kallum_motion_pilot,2023.2.2,MacIntel,60.24096386,5f3168ce4634da00094704e6,65d6bb0e977760de756971f7,65d6bec1ab610f7bb580d5c3,0.0362,0.0362,0,147,147,109,1,seveneight,,,,,,,,,,,,,,,,,,,,,,,,,,,,,,,,,,,,,,,,,,,,,,,,,,,,,,,,,,,,,,,,,,,,,,,,,,,,,,,,,,,,,,,,,,,,,,,,,,,,,,,,,,,,,,,,,,,,,,,,,,,,,,,,,,,,,,,,,
,,5f3168ce4634da00094704e6,2024-02-22_04h27.39.773,kallum_motion_pilot,2023.2.2,MacIntel,60.24096386,5f3168ce4634da00094704e6,65d6bb0e977760de756971f7,65d6bec1ab610f7bb580d5c3,0.0363,0.0363,0,148,148,86,1,eightsix,,,,,,,,,,,,,,,,,,,,,,,,,,,,,,,,,,,,,,,,,,,,,,,,,,,,,,,,,,,,,,,,,,,,,,,,,,,,,,,,,,,,,,,,,,,,,,,,,,,,,,,,,,,,,,,,,,,,,,,,,,,,,,,,,,,,,,,,,
,,5f3168ce4634da00094704e6,2024-02-22_04h27.39.773,kallum_motion_pilot,2023.2.2,MacIntel,60.24096386,5f3168ce4634da00094704e6,65d6bb0e977760de756971f7,65d6bec1ab610f7bb580d5c3,0.0363,0.0363,0,149,149,43,1,twofour,,,,,,,,,,,,,,,,,,,,,,,,,,,,,,,,,,,,,,,,,,,,,,,,,,,,,,,,,,,,,,,,,,,,,,,,,,,,,,,,,,,,,,,,,,,,,,,,,,,,,,,,,,,,,,,,,,,,,,,,,,,,,,,,,,,,,,,,,
,,5f3168ce4634da00094704e6,2024-02-22_04h27.39.773,kallum_motion_pilot,2023.2.2,MacIntel,60.24096386,5f3168ce4634da00094704e6,65d6bb0e977760de756971f7,65d6bec1ab610f7bb580d5c3,0.0363,0.0364,0,150,150,81,1,fiveseven,,,,,,,,,,,,,,,,,,,,,,,,,,,,,,,,,,,,,,,,,,,,,,,,,,,,,,,,,,,,,,,,,,,,,,,,,,,,,,,,,,,,,,,,,,,,,,,,,,,,,,,,,,,,,,,,,,,,,,,,,,,,,,,,,,,,,,,,,
,,5f3168ce4634da00094704e6,2024-02-22_04h27.39.773,kallum_motion_pilot,2023.2.2,MacIntel,60.24096386,5f3168ce4634da00094704e6,65d6bb0e977760de756971f7,65d6bec1ab610f7bb580d5c3,0.0365,0.0365,0,151,151,92,1,sevenfive,,,,,,,,,,,,,,,,,,,,,,,,,,,,,,,,,,,,,,,,,,,,,,,,,,,,,,,,,,,,,,,,,,,,,,,,,,,,,,,,,,,,,,,,,,,,,,,,,,,,,,,,,,,,,,,,,,,,,,,,,,,,,,,,,,,,,,,,,
,,5f3168ce4634da00094704e6,2024-02-22_04h27.39.773,kallum_motion_pilot,2023.2.2,MacIntel,60.24096386,5f3168ce4634da00094704e6,65d6bb0e977760de756971f7,65d6bec1ab610f7bb580d5c3,0.0365,0.0365,0,152,152,123,1,sixeight,,,,,,,,,,,,,,,,,,,,,,,,,,,,,,,,,,,,,,,,,,,,,,,,,,,,,,,,,,,,,,,,,,,,,,,,,,,,,,,,,,,,,,,,,,,,,,,,,,,,,,,,,,,,,,,,,,,,,,,,,,,,,,,,,,,,,,,,,
,,5f3168ce4634da00094704e6,2024-02-22_04h27.39.773,kallum_motion_pilot,2023.2.2,MacIntel,60.24096386,5f3168ce4634da00094704e6,65d6bb0e977760de756971f7,65d6bec1ab610f7bb580d5c3,0.0366,0.0367,0,153,153,67,1,twofour,,,,,,,,,,,,,,,,,,,,,,,,,,,,,,,,,,,,,,,,,,,,,,,,,,,,,,,,,,,,,,,,,,,,,,,,,,,,,,,,,,,,,,,,,,,,,,,,,,,,,,,,,,,,,,,,,,,,,,,,,,,,,,,,,,,,,,,,,
,,5f3168ce4634da00094704e6,2024-02-22_04h27.39.773,kallum_motion_pilot,2023.2.2,MacIntel,60.24096386,5f3168ce4634da00094704e6,65d6bb0e977760de756971f7,65d6bec1ab610f7bb580d5c3,0.0367,0.0367,0,154,154,36,1,threeone,,,,,,,,,,,,,,,,,,,,,,,,,,,,,,,,,,,,,,,,,,,,,,,,,,,,,,,,,,,,,,,,,,,,,,,,,,,,,,,,,,,,,,,,,,,,,,,,,,,,,,,,,,,,,,,,,,,,,,,,,,,,,,,,,,,,,,,,,
,,5f3168ce4634da00094704e6,2024-02-22_04h27.39.773,kallum_motion_pilot,2023.2.2,MacIntel,60.24096386,5f3168ce4634da00094704e6,65d6bb0e977760de756971f7,65d6bec1ab610f7bb580d5c3,0.0367,0.0367,0,155,155,76,1,threeone,,,,,,,,,,,,,,,,,,,,,,,,,,,,,,,,,,,,,,,,,,,,,,,,,,,,,,,,,,,,,,,,,,,,,,,,,,,,,,,,,,,,,,,,,,,,,,,,,,,,,,,,,,,,,,,,,,,,,,,,,,,,,,,,,,,,,,,,,
,,5f3168ce4634da00094704e6,2024-02-22_04h27.39.773,kallum_motion_pilot,2023.2.2,MacIntel,60.24096386,5f3168ce4634da00094704e6,65d6bb0e977760de756971f7,65d6bec1ab610f7bb580d5c3,0.0368,0.0369,0,156,156,130,1,sixfive,,,,,,,,,,,,,,,,,,,,,,,,,,,,,,,,,,,,,,,,,,,,,,,,,,,,,,,,,,,,,,,,,,,,,,,,,,,,,,,,,,,,,,,,,,,,,,,,,,,,,,,,,,,,,,,,,,,,,,,,,,,,,,,,,,,,,,,,,
,,5f3168ce4634da00094704e6,2024-02-22_04h27.39.773,kallum_motion_pilot,2023.2.2,MacIntel,60.24096386,5f3168ce4634da00094704e6,65d6bb0e977760de756971f7,65d6bec1ab610f7bb580d5c3,0.0369,0.037,0,157,157,38,1,fourtwo,,,,,,,,,,,,,,,,,,,,,,,,,,,,,,,,,,,,,,,,,,,,,,,,,,,,,,,,,,,,,,,,,,,,,,,,,,,,,,,,,,,,,,,,,,,,,,,,,,,,,,,,,,,,,,,,,,,,,,,,,,,,,,,,,,,,,,,,,
,,5f3168ce4634da00094704e6,2024-02-22_04h27.39.773,kallum_motion_pilot,2023.2.2,MacIntel,60.24096386,5f3168ce4634da00094704e6,65d6bb0e977760de756971f7,65d6bec1ab610f7bb580d5c3,0.037,0.0371,0,158,158,144,1,fivesix,,,,,,,,,,,,,,,,,,,,,,,,,,,,,,,,,,,,,,,,,,,,,,,,,,,,,,,,,,,,,,,,,,,,,,,,,,,,,,,,,,,,,,,,,,,,,,,,,,,,,,,,,,,,,,,,,,,,,,,,,,,,,,,,,,,,,,,,,
,,5f3168ce4634da00094704e6,2024-02-22_04h27.39.773,kallum_motion_pilot,2023.2.2,MacIntel,60.24096386,5f3168ce4634da00094704e6,65d6bb0e977760de756971f7,65d6bec1ab610f7bb580d5c3,0.0371,0.0371,0,159,159,118,1,eightsix,,,,,,,,,,,,,,,,,,,,,,,,,,,,,,,,,,,,,,,,,,,,,,,,,,,,,,,,,,,,,,,,,,,,,,,,,,,,,,,,,,,,,,,,,,,,,,,,,,,,,,,,,,,,,,,,,,,,,,,,,,,,,,,,,,,,,,,,,
,,5f3168ce4634da00094704e6,2024-02-22_04h27.39.773,kallum_motion_pilot,2023.2.2,MacIntel,60.24096386,5f3168ce4634da00094704e6,65d6bb0e977760de756971f7,65d6bec1ab610f7bb580d5c3,0.0371,0.0372,0,160,160,74,1,twoone,,,,,,,,,,,,,,,,,,,,,,,,,,,,,,,,,,,,,,,,,,,,,,,,,,,,,,,,,,,,,,,,,,,,,,,,,,,,,,,,,,,,,,,,,,,,,,,,,,,,,,,,,,,,,,,,,,,,,,,,,,,,,,,,,,,,,,,,,
,,5f3168ce4634da00094704e6,2024-02-22_04h27.39.773,kallum_motion_pilot,2023.2.2,MacIntel,60.24096386,5f3168ce4634da00094704e6,65d6bb0e977760de756971f7,65d6bec1ab610f7bb580d5c3,0.0372,0.0372,0,161,161,60,1,threeone,,,,,,,,,,,,,,,,,,,,,,,,,,,,,,,,,,,,,,,,,,,,,,,,,,,,,,,,,,,,,,,,,,,,,,,,,,,,,,,,,,,,,,,,,,,,,,,,,,,,,,,,,,,,,,,,,,,,,,,,,,,,,,,,,,,,,,,,,
,,5f3168ce4634da00094704e6,2024-02-22_04h27.39.773,kallum_motion_pilot,2023.2.2,MacIntel,60.24096386,5f3168ce4634da00094704e6,65d6bb0e977760de756971f7,65d6bec1ab610f7bb580d5c3,0.0373,0.0374,1,0,162,63,1,fourthree,,,,,,,,,,,,,,,,,,,,,,,,,,,,,,,,,,,,,,,,,,,,,,,,,,,,,,,,,,,,,,,,,,,,,,,,,,,,,,,,,,,,,,,,,,,,,,,,,,,,,,,,,,,,,,,,,,,,,,,,,,,,,,,,,,,,,,,,,
,,5f3168ce4634da00094704e6,2024-02-22_04h27.39.773,kallum_motion_pilot,2023.2.2,MacIntel,60.24096386,5f3168ce4634da00094704e6,65d6bb0e977760de756971f7,65d6bec1ab610f7bb580d5c3,0.0374,0.0374,1,1,163,40,1,onetwo,,,,,,,,,,,,,,,,,,,,,,,,,,,,,,,,,,,,,,,,,,,,,,,,,,,,,,,,,,,,,,,,,,,,,,,,,,,,,,,,,,,,,,,,,,,,,,,,,,,,,,,,,,,,,,,,,,,,,,,,,,,,,,,,,,,,,,,,,
,,5f3168ce4634da00094704e6,2024-02-22_04h27.39.773,kallum_motion_pilot,2023.2.2,MacIntel,60.24096386,5f3168ce4634da00094704e6,65d6bb0e977760de756971f7,65d6bec1ab610f7bb580d5c3,0.0374,0.0375,1,2,164,84,1,sevenfive,,,,,,,,,,,,,,,,,,,,,,,,,,,,,,,,,,,,,,,,,,,,,,,,,,,,,,,,,,,,,,,,,,,,,,,,,,,,,,,,,,,,,,,,,,,,,,,,,,,,,,,,,,,,,,,,,,,,,,,,,,,,,,,,,,,,,,,,,
,,5f3168ce4634da00094704e6,2024-02-22_04h27.39.773,kallum_motion_pilot,2023.2.2,MacIntel,60.24096386,5f3168ce4634da00094704e6,65d6bb0e977760de756971f7,65d6bec1ab610f7bb580d5c3,0.0375,0.0375,1,3,165,143,1,eightseven,,,,,,,,,,,,,,,,,,,,,,,,,,,,,,,,,,,,,,,,,,,,,,,,,,,,,,,,,,,,,,,,,,,,,,,,,,,,,,,,,,,,,,,,,,,,,,,,,,,,,,,,,,,,,,,,,,,,,,,,,,,,,,,,,,,,,,,,,
,,5f3168ce4634da00094704e6,2024-02-22_04h27.39.773,kallum_motion_pilot,2023.2.2,MacIntel,60.24096386,5f3168ce4634da00094704e6,65d6bb0e977760de756971f7,65d6bec1ab610f7bb580d5c3,0.0376,0.0376,1,4,166,154,1,sixfive,,,,,,,,,,,,,,,,,,,,,,,,,,,,,,,,,,,,,,,,,,,,,,,,,,,,,,,,,,,,,,,,,,,,,,,,,,,,,,,,,,,,,,,,,,,,,,,,,,,,,,,,,,,,,,,,,,,,,,,,,,,,,,,,,,,,,,,,,
,,5f3168ce4634da00094704e6,2024-02-22_04h27.39.773,kallum_motion_pilot,2023.2.2,MacIntel,60.24096386,5f3168ce4634da00094704e6,65d6bb0e977760de756971f7,65d6bec1ab610f7bb580d5c3,0.0377,0.0377,1,5,167,105,1,fiveseven,,,,,,,,,,,,,,,,,,,,,,,,,,,,,,,,,,,,,,,,,,,,,,,,,,,,,,,,,,,,,,,,,,,,,,,,,,,,,,,,,,,,,,,,,,,,,,,,,,,,,,,,,,,,,,,,,,,,,,,,,,,,,,,,,,,,,,,,,
,,5f3168ce4634da00094704e6,2024-02-22_04h27.39.773,kallum_motion_pilot,2023.2.2,MacIntel,60.24096386,5f3168ce4634da00094704e6,65d6bb0e977760de756971f7,65d6bec1ab610f7bb580d5c3,0.0378,0.0378,1,6,168,67,1,twofour,,,,,,,,,,,,,,,,,,,,,,,,,,,,,,,,,,,,,,,,,,,,,,,,,,,,,,,,,,,,,,,,,,,,,,,,,,,,,,,,,,,,,,,,,,,,,,,,,,,,,,,,,,,,,,,,,,,,,,,,,,,,,,,,,,,,,,,,,
,,5f3168ce4634da00094704e6,2024-02-22_04h27.39.773,kallum_motion_pilot,2023.2.2,MacIntel,60.24096386,5f3168ce4634da00094704e6,65d6bb0e977760de756971f7,65d6bec1ab610f7bb580d5c3,0.0378,0.0379,1,7,169,43,1,twofour,,,,,,,,,,,,,,,,,,,,,,,,,,,,,,,,,,,,,,,,,,,,,,,,,,,,,,,,,,,,,,,,,,,,,,,,,,,,,,,,,,,,,,,,,,,,,,,,,,,,,,,,,,,,,,,,,,,,,,,,,,,,,,,,,,,,,,,,,
,,5f3168ce4634da00094704e6,2024-02-22_04h27.39.773,kallum_motion_pilot,2023.2.2,MacIntel,60.24096386,5f3168ce4634da00094704e6,65d6bb0e977760de756971f7,65d6bec1ab610f7bb580d5c3,0.0379,0.038,1,8,170,110,1,eightsix,,,,,,,,,,,,,,,,,,,,,,,,,,,,,,,,,,,,,,,,,,,,,,,,,,,,,,,,,,,,,,,,,,,,,,,,,,,,,,,,,,,,,,,,,,,,,,,,,,,,,,,,,,,,,,,,,,,,,,,,,,,,,,,,,,,,,,,,,
,,5f3168ce4634da00094704e6,2024-02-22_04h27.39.773,kallum_motion_pilot,2023.2.2,MacIntel,60.24096386,5f3168ce4634da00094704e6,65d6bb0e977760de756971f7,65d6bec1ab610f7bb580d5c3,0.038,0.0381,1,9,171,9,1,onethree,,,,,,,,,,,,,,,,,,,,,,,,,,,,,,,,,,,,,,,,,,,,,,,,,,,,,,,,,,,,,,,,,,,,,,,,,,,,,,,,,,,,,,,,,,,,,,,,,,,,,,,,,,,,,,,,,,,,,,,,,,,,,,,,,,,,,,,,,
,,5f3168ce4634da00094704e6,2024-02-22_04h27.39.773,kallum_motion_pilot,2023.2.2,MacIntel,60.24096386,5f3168ce4634da00094704e6,65d6bb0e977760de756971f7,65d6bec1ab610f7bb580d5c3,0.0381,0.0382,1,10,172,62,1,fourtwo,,,,,,,,,,,,,,,,,,,,,,,,,,,,,,,,,,,,,,,,,,,,,,,,,,,,,,,,,,,,,,,,,,,,,,,,,,,,,,,,,,,,,,,,,,,,,,,,,,,,,,,,,,,,,,,,,,,,,,,,,,,,,,,,,,,,,,,,,
,,5f3168ce4634da00094704e6,2024-02-22_04h27.39.773,kallum_motion_pilot,2023.2.2,MacIntel,60.24096386,5f3168ce4634da00094704e6,65d6bb0e977760de756971f7,65d6bec1ab610f7bb580d5c3,0.0382,0.0383,1,11,173,107,1,sixeight,,,,,,,,,,,,,,,,,,,,,,,,,,,,,,,,,,,,,,,,,,,,,,,,,,,,,,,,,,,,,,,,,,,,,,,,,,,,,,,,,,,,,,,,,,,,,,,,,,,,,,,,,,,,,,,,,,,,,,,,,,,,,,,,,,,,,,,,,
,,5f3168ce4634da00094704e6,2024-02-22_04h27.39.773,kallum_motion_pilot,2023.2.2,MacIntel,60.24096386,5f3168ce4634da00094704e6,65d6bb0e977760de756971f7,65d6bec1ab610f7bb580d5c3,0.0383,0.0384,1,12,174,55,1,fourthree,,,,,,,,,,,,,,,,,,,,,,,,,,,,,,,,,,,,,,,,,,,,,,,,,,,,,,,,,,,,,,,,,,,,,,,,,,,,,,,,,,,,,,,,,,,,,,,,,,,,,,,,,,,,,,,,,,,,,,,,,,,,,,,,,,,,,,,,,
,,5f3168ce4634da00094704e6,2024-02-22_04h27.39.773,kallum_motion_pilot,2023.2.2,MacIntel,60.24096386,5f3168ce4634da00094704e6,65d6bb0e977760de756971f7,65d6bec1ab610f7bb580d5c3,0.0384,0.0385,1,13,175,137,1,fiveseven,,,,,,,,,,,,,,,,,,,,,,,,,,,,,,,,,,,,,,,,,,,,,,,,,,,,,,,,,,,,,,,,,,,,,,,,,,,,,,,,,,,,,,,,,,,,,,,,,,,,,,,,,,,,,,,,,,,,,,,,,,,,,,,,,,,,,,,,,
,,5f3168ce4634da00094704e6,2024-02-22_04h27.39.773,kallum_motion_pilot,2023.2.2,MacIntel,60.24096386,5f3168ce4634da00094704e6,65d6bb0e977760de756971f7,65d6bec1ab610f7bb580d5c3,0.0385,0.0385,1,14,176,158,1,eightsix,,,,,,,,,,,,,,,,,,,,,,,,,,,,,,,,,,,,,,,,,,,,,,,,,,,,,,,,,,,,,,,,,,,,,,,,,,,,,,,,,,,,,,,,,,,,,,,,,,,,,,,,,,,,,,,,,,,,,,,,,,,,,,,,,,,,,,,,,
,,5f3168ce4634da00094704e6,2024-02-22_04h27.39.773,kallum_motion_pilot,2023.2.2,MacIntel,60.24096386,5f3168ce4634da00094704e6,65d6bb0e977760de756971f7,65d6bec1ab610f7bb580d5c3,0.0386,0.0387,1,15,177,155,1,sixeight,,,,,,,,,,,,,,,,,,,,,,,,,,,,,,,,,,,,,,,,,,,,,,,,,,,,,,,,,,,,,,,,,,,,,,,,,,,,,,,,,,,,,,,,,,,,,,,,,,,,,,,,,,,,,,,,,,,,,,,,,,,,,,,,,,,,,,,,,
,,5f3168ce4634da00094704e6,2024-02-22_04h27.39.773,kallum_motion_pilot,2023.2.2,MacIntel,60.24096386,5f3168ce4634da00094704e6,65d6bb0e977760de756971f7,65d6bec1ab610f7bb580d5c3,0.0387,0.0388,1,16,178,116,1,sevenfive,,,,,,,,,,,,,,,,,,,,,,,,,,,,,,,,,,,,,,,,,,,,,,,,,,,,,,,,,,,,,,,,,,,,,,,,,,,,,,,,,,,,,,,,,,,,,,,,,,,,,,,,,,,,,,,,,,,,,,,,,,,,,,,,,,,,,,,,,
,,5f3168ce4634da00094704e6,2024-02-22_04h27.39.773,kallum_motion_pilot,2023.2.2,MacIntel,60.24096386,5f3168ce4634da00094704e6,65d6bb0e977760de756971f7,65d6bec1ab610f7bb580d5c3,0.0388,0.0388,1,17,179,7,1,fourthree,,,,,,,,,,,,,,,,,,,,,,,,,,,,,,,,,,,,,,,,,,,,,,,,,,,,,,,,,,,,,,,,,,,,,,,,,,,,,,,,,,,,,,,,,,,,,,,,,,,,,,,,,,,,,,,,,,,,,,,,,,,,,,,,,,,,,,,,,
,,5f3168ce4634da00094704e6,2024-02-22_04h27.39.773,kallum_motion_pilot,2023.2.2,MacIntel,60.24096386,5f3168ce4634da00094704e6,65d6bb0e977760de756971f7,65d6bec1ab610f7bb580d5c3,0.0389,0.0389,1,18,180,35,1,twofour,,,,,,,,,,,,,,,,,,,,,,,,,,,,,,,,,,,,,,,,,,,,,,,,,,,,,,,,,,,,,,,,,,,,,,,,,,,,,,,,,,,,,,,,,,,,,,,,,,,,,,,,,,,,,,,,,,,,,,,,,,,,,,,,,,,,,,,,,
,,5f3168ce4634da00094704e6,2024-02-22_04h27.39.773,kallum_motion_pilot,2023.2.2,MacIntel,60.24096386,5f3168ce4634da00094704e6,65d6bb0e977760de756971f7,65d6bec1ab610f7bb580d5c3,0.0389,0.039,1,19,181,46,1,fourtwo,,,,,,,,,,,,,,,,,,,,,,,,,,,,,,,,,,,,,,,,,,,,,,,,,,,,,,,,,,,,,,,,,,,,,,,,,,,,,,,,,,,,,,,,,,,,,,,,,,,,,,,,,,,,,,,,,,,,,,,,,,,,,,,,,,,,,,,,,
,,5f3168ce4634da00094704e6,2024-02-22_04h27.39.773,kallum_motion_pilot,2023.2.2,MacIntel,60.24096386,5f3168ce4634da00094704e6,65d6bb0e977760de756971f7,65d6bec1ab610f7bb580d5c3,0.039,0.039,1,20,182,161,1,fiveseven,,,,,,,,,,,,,,,,,,,,,,,,,,,,,,,,,,,,,,,,,,,,,,,,,,,,,,,,,,,,,,,,,,,,,,,,,,,,,,,,,,,,,,,,,,,,,,,,,,,,,,,,,,,,,,,,,,,,,,,,,,,,,,,,,,,,,,,,,
,,5f3168ce4634da00094704e6,2024-02-22_04h27.39.773,kallum_motion_pilot,2023.2.2,MacIntel,60.24096386,5f3168ce4634da00094704e6,65d6bb0e977760de756971f7,65d6bec1ab610f7bb580d5c3,0.0392,0.0392,1,21,183,86,1,eightsix,,,,,,,,,,,,,,,,,,,,,,,,,,,,,,,,,,,,,,,,,,,,,,,,,,,,,,,,,,,,,,,,,,,,,,,,,,,,,,,,,,,,,,,,,,,,,,,,,,,,,,,,,,,,,,,,,,,,,,,,,,,,,,,,,,,,,,,,,
,,5f3168ce4634da00094704e6,2024-02-22_04h27.39.773,kallum_motion_pilot,2023.2.2,MacIntel,60.24096386,5f3168ce4634da00094704e6,65d6bb0e977760de756971f7,65d6bec1ab610f7bb580d5c3,0.0392,0.0393,1,22,184,159,1,eightseven,,,,,,,,,,,,,,,,,,,,,,,,,,,,,,,,,,,,,,,,,,,,,,,,,,,,,,,,,,,,,,,,,,,,,,,,,,,,,,,,,,,,,,,,,,,,,,,,,,,,,,,,,,,,,,,,,,,,,,,,,,,,,,,,,,,,,,,,,
,,5f3168ce4634da00094704e6,2024-02-22_04h27.39.773,kallum_motion_pilot,2023.2.2,MacIntel,60.24096386,5f3168ce4634da00094704e6,65d6bb0e977760de756971f7,65d6bec1ab610f7bb580d5c3,0.0393,0.0393,1,23,185,139,1,sixeight,,,,,,,,,,,,,,,,,,,,,,,,,,,,,,,,,,,,,,,,,,,,,,,,,,,,,,,,,,,,,,,,,,,,,,,,,,,,,,,,,,,,,,,,,,,,,,,,,,,,,,,,,,,,,,,,,,,,,,,,,,,,,,,,,,,,,,,,,
,,5f3168ce4634da00094704e6,2024-02-22_04h27.39.773,kallum_motion_pilot,2023.2.2,MacIntel,60.24096386,5f3168ce4634da00094704e6,65d6bb0e977760de756971f7,65d6bec1ab610f7bb580d5c3,0.0394,0.0394,1,24,186,11,1,twofour,,,,,,,,,,,,,,,,,,,,,,,,,,,,,,,,,,,,,,,,,,,,,,,,,,,,,,,,,,,,,,,,,,,,,,,,,,,,,,,,,,,,,,,,,,,,,,,,,,,,,,,,,,,,,,,,,,,,,,,,,,,,,,,,,,,,,,,,,
,,5f3168ce4634da00094704e6,2024-02-22_04h27.39.773,kallum_motion_pilot,2023.2.2,MacIntel,60.24096386,5f3168ce4634da00094704e6,65d6bb0e977760de756971f7,65d6bec1ab610f7bb580d5c3,0.0395,0.0396,1,25,187,142,1,eightsix,,,,,,,,,,,,,,,,,,,,,,,,,,,,,,,,,,,,,,,,,,,,,,,,,,,,,,,,,,,,,,,,,,,,,,,,,,,,,,,,,,,,,,,,,,,,,,,,,,,,,,,,,,,,,,,,,,,,,,,,,,,,,,,,,,,,,,,,,
,,5f3168ce4634da00094704e6,2024-02-22_04h27.39.773,kallum_motion_pilot,2023.2.2,MacIntel,60.24096386,5f3168ce4634da00094704e6,65d6bb0e977760de756971f7,65d6bec1ab610f7bb580d5c3,0.0396,0.0396,1,26,188,54,1,fourtwo,,,,,,,,,,,,,,,,,,,,,,,,,,,,,,,,,,,,,,,,,,,,,,,,,,,,,,,,,,,,,,,,,,,,,,,,,,,,,,,,,,,,,,,,,,,,,,,,,,,,,,,,,,,,,,,,,,,,,,,,,,,,,,,,,,,,,,,,,
,,5f3168ce4634da00094704e6,2024-02-22_04h27.39.773,kallum_motion_pilot,2023.2.2,MacIntel,60.24096386,5f3168ce4634da00094704e6,65d6bb0e977760de756971f7,65d6bec1ab610f7bb580d5c3,0.0396,0.0397,1,27,189,122,1,sixfive,,,,,,,,,,,,,,,,,,,,,,,,,,,,,,,,,,,,,,,,,,,,,,,,,,,,,,,,,,,,,,,,,,,,,,,,,,,,,,,,,,,,,,,,,,,,,,,,,,,,,,,,,,,,,,,,,,,,,,,,,,,,,,,,,,,,,,,,,
,,5f3168ce4634da00094704e6,2024-02-22_04h27.39.773,kallum_motion_pilot,2023.2.2,MacIntel,60.24096386,5f3168ce4634da00094704e6,65d6bb0e977760de756971f7,65d6bec1ab610f7bb580d5c3,0.0398,0.0398,1,28,190,141,1,seveneight,,,,,,,,,,,,,,,,,,,,,,,,,,,,,,,,,,,,,,,,,,,,,,,,,,,,,,,,,,,,,,,,,,,,,,,,,,,,,,,,,,,,,,,,,,,,,,,,,,,,,,,,,,,,,,,,,,,,,,,,,,,,,,,,,,,,,,,,,
,,5f3168ce4634da00094704e6,2024-02-22_04h27.39.773,kallum_motion_pilot,2023.2.2,MacIntel,60.24096386,5f3168ce4634da00094704e6,65d6bb0e977760de756971f7,65d6bec1ab610f7bb580d5c3,0.0398,0.0398,1,29,191,47,1,fourthree,,,,,,,,,,,,,,,,,,,,,,,,,,,,,,,,,,,,,,,,,,,,,,,,,,,,,,,,,,,,,,,,,,,,,,,,,,,,,,,,,,,,,,,,,,,,,,,,,,,,,,,,,,,,,,,,,,,,,,,,,,,,,,,,,,,,,,,,,
,,5f3168ce4634da00094704e6,2024-02-22_04h27.39.773,kallum_motion_pilot,2023.2.2,MacIntel,60.24096386,5f3168ce4634da00094704e6,65d6bb0e977760de756971f7,65d6bec1ab610f7bb580d5c3,0.04,0.04,1,30,192,138,1,sixfive,,,,,,,,,,,,,,,,,,,,,,,,,,,,,,,,,,,,,,,,,,,,,,,,,,,,,,,,,,,,,,,,,,,,,,,,,,,,,,,,,,,,,,,,,,,,,,,,,,,,,,,,,,,,,,,,,,,,,,,,,,,,,,,,,,,,,,,,,
,,5f3168ce4634da00094704e6,2024-02-22_04h27.39.773,kallum_motion_pilot,2023.2.2,MacIntel,60.24096386,5f3168ce4634da00094704e6,65d6bb0e977760de756971f7,65d6bec1ab610f7bb580d5c3,0.04,0.0401,1,31,193,21,1,threefour,,,,,,,,,,,,,,,,,,,,,,,,,,,,,,,,,,,,,,,,,,,,,,,,,,,,,,,,,,,,,,,,,,,,,,,,,,,,,,,,,,,,,,,,,,,,,,,,,,,,,,,,,,,,,,,,,,,,,,,,,,,,,,,,,,,,,,,,,
,,5f3168ce4634da00094704e6,2024-02-22_04h27.39.773,kallum_motion_pilot,2023.2.2,MacIntel,60.24096386,5f3168ce4634da00094704e6,65d6bb0e977760de756971f7,65d6bec1ab610f7bb580d5c3,0.0401,0.0401,1,32,194,128,1,fivesix,,,,,,,,,,,,,,,,,,,,,,,,,,,,,,,,,,,,,,,,,,,,,,,,,,,,,,,,,,,,,,,,,,,,,,,,,,,,,,,,,,,,,,,,,,,,,,,,,,,,,,,,,,,,,,,,,,,,,,,,,,,,,,,,,,,,,,,,,
,,5f3168ce4634da00094704e6,2024-02-22_04h27.39.773,kallum_motion_pilot,2023.2.2,MacIntel,60.24096386,5f3168ce4634da00094704e6,65d6bb0e977760de756971f7,65d6bec1ab610f7bb580d5c3,0.0402,0.0402,1,33,195,16,1,onetwo,,,,,,,,,,,,,,,,,,,,,,,,,,,,,,,,,,,,,,,,,,,,,,,,,,,,,,,,,,,,,,,,,,,,,,,,,,,,,,,,,,,,,,,,,,,,,,,,,,,,,,,,,,,,,,,,,,,,,,,,,,,,,,,,,,,,,,,,,
,,5f3168ce4634da00094704e6,2024-02-22_04h27.39.773,kallum_motion_pilot,2023.2.2,MacIntel,60.24096386,5f3168ce4634da00094704e6,65d6bb0e977760de756971f7,65d6bec1ab610f7bb580d5c3,0.0403,0.0404,1,34,196,160,1,fivesix,,,,,,,,,,,,,,,,,,,,,,,,,,,,,,,,,,,,,,,,,,,,,,,,,,,,,,,,,,,,,,,,,,,,,,,,,,,,,,,,,,,,,,,,,,,,,,,,,,,,,,,,,,,,,,,,,,,,,,,,,,,,,,,,,,,,,,,,,
,,5f3168ce4634da00094704e6,2024-02-22_04h27.39.773,kallum_motion_pilot,2023.2.2,MacIntel,60.24096386,5f3168ce4634da00094704e6,65d6bb0e977760de756971f7,65d6bec1ab610f7bb580d5c3,0.0404,0.0405,1,35,197,77,1,threefour,,,,,,,,,,,,,,,,,,,,,,,,,,,,,,,,,,,,,,,,,,,,,,,,,,,,,,,,,,,,,,,,,,,,,,,,,,,,,,,,,,,,,,,,,,,,,,,,,,,,,,,,,,,,,,,,,,,,,,,,,,,,,,,,,,,,,,,,,
,,5f3168ce4634da00094704e6,2024-02-22_04h27.39.773,kallum_motion_pilot,2023.2.2,MacIntel,60.24096386,5f3168ce4634da00094704e6,65d6bb0e977760de756971f7,65d6bec1ab610f7bb580d5c3,0.0405,0.0405,1,36,198,95,1,eightseven,,,,,,,,,,,,,,,,,,,,,,,,,,,,,,,,,,,,,,,,,,,,,,,,,,,,,,,,,,,,,,,,,,,,,,,,,,,,,,,,,,,,,,,,,,,,,,,,,,,,,,,,,,,,,,,,,,,,,,,,,,,,,,,,,,,,,,,,,
,,5f3168ce4634da00094704e6,2024-02-22_04h27.39.773,kallum_motion_pilot,2023.2.2,MacIntel,60.24096386,5f3168ce4634da00094704e6,65d6bb0e977760de756971f7,65d6bec1ab610f7bb580d5c3,0.0407,0.0407,1,37,199,60,1,threeone,,,,,,,,,,,,,,,,,,,,,,,,,,,,,,,,,,,,,,,,,,,,,,,,,,,,,,,,,,,,,,,,,,,,,,,,,,,,,,,,,,,,,,,,,,,,,,,,,,,,,,,,,,,,,,,,,,,,,,,,,,,,,,,,,,,,,,,,,
,,5f3168ce4634da00094704e6,2024-02-22_04h27.39.773,kallum_motion_pilot,2023.2.2,MacIntel,60.24096386,5f3168ce4634da00094704e6,65d6bb0e977760de756971f7,65d6bec1ab610f7bb580d5c3,0.0407,0.0408,1,38,200,81,1,fiveseven,,,,,,,,,,,,,,,,,,,,,,,,,,,,,,,,,,,,,,,,,,,,,,,,,,,,,,,,,,,,,,,,,,,,,,,,,,,,,,,,,,,,,,,,,,,,,,,,,,,,,,,,,,,,,,,,,,,,,,,,,,,,,,,,,,,,,,,,,
,,5f3168ce4634da00094704e6,2024-02-22_04h27.39.773,kallum_motion_pilot,2023.2.2,MacIntel,60.24096386,5f3168ce4634da00094704e6,65d6bb0e977760de756971f7,65d6bec1ab610f7bb580d5c3,0.0408,0.0409,1,39,201,131,1,sixeight,,,,,,,,,,,,,,,,,,,,,,,,,,,,,,,,,,,,,,,,,,,,,,,,,,,,,,,,,,,,,,,,,,,,,,,,,,,,,,,,,,,,,,,,,,,,,,,,,,,,,,,,,,,,,,,,,,,,,,,,,,,,,,,,,,,,,,,,,
,,5f3168ce4634da00094704e6,2024-02-22_04h27.39.773,kallum_motion_pilot,2023.2.2,MacIntel,60.24096386,5f3168ce4634da00094704e6,65d6bb0e977760de756971f7,65d6bec1ab610f7bb580d5c3,0.0409,0.041,1,40,202,147,1,sixeight,,,,,,,,,,,,,,,,,,,,,,,,,,,,,,,,,,,,,,,,,,,,,,,,,,,,,,,,,,,,,,,,,,,,,,,,,,,,,,,,,,,,,,,,,,,,,,,,,,,,,,,,,,,,,,,,,,,,,,,,,,,,,,,,,,,,,,,,,
,,5f3168ce4634da00094704e6,2024-02-22_04h27.39.773,kallum_motion_pilot,2023.2.2,MacIntel,60.24096386,5f3168ce4634da00094704e6,65d6bb0e977760de756971f7,65d6bec1ab610f7bb580d5c3,0.041,0.041,1,41,203,24,1,onetwo,,,,,,,,,,,,,,,,,,,,,,,,,,,,,,,,,,,,,,,,,,,,,,,,,,,,,,,,,,,,,,,,,,,,,,,,,,,,,,,,,,,,,,,,,,,,,,,,,,,,,,,,,,,,,,,,,,,,,,,,,,,,,,,,,,,,,,,,,
,,5f3168ce4634da00094704e6,2024-02-22_04h27.39.773,kallum_motion_pilot,2023.2.2,MacIntel,60.24096386,5f3168ce4634da00094704e6,65d6bb0e977760de756971f7,65d6bec1ab610f7bb580d5c3,0.041,0.0411,1,42,204,36,1,threeone,,,,,,,,,,,,,,,,,,,,,,,,,,,,,,,,,,,,,,,,,,,,,,,,,,,,,,,,,,,,,,,,,,,,,,,,,,,,,,,,,,,,,,,,,,,,,,,,,,,,,,,,,,,,,,,,,,,,,,,,,,,,,,,,,,,,,,,,,
,,5f3168ce4634da00094704e6,2024-02-22_04h27.39.773,kallum_motion_pilot,2023.2.2,MacIntel,60.24096386,5f3168ce4634da00094704e6,65d6bb0e977760de756971f7,65d6bec1ab610f7bb580d5c3,0.0411,0.0412,1,43,205,126,1,eightsix,,,,,,,,,,,,,,,,,,,,,,,,,,,,,,,,,,,,,,,,,,,,,,,,,,,,,,,,,,,,,,,,,,,,,,,,,,,,,,,,,,,,,,,,,,,,,,,,,,,,,,,,,,,,,,,,,,,,,,,,,,,,,,,,,,,,,,,,,
,,5f3168ce4634da00094704e6,2024-02-22_04h27.39.773,kallum_motion_pilot,2023.2.2,MacIntel,60.24096386,5f3168ce4634da00094704e6,65d6bb0e977760de756971f7,65d6bec1ab610f7bb580d5c3,0.0413,0.0413,1,44,206,87,1,eightseven,,,,,,,,,,,,,,,,,,,,,,,,,,,,,,,,,,,,,,,,,,,,,,,,,,,,,,,,,,,,,,,,,,,,,,,,,,,,,,,,,,,,,,,,,,,,,,,,,,,,,,,,,,,,,,,,,,,,,,,,,,,,,,,,,,,,,,,,,
,,5f3168ce4634da00094704e6,2024-02-22_04h27.39.773,kallum_motion_pilot,2023.2.2,MacIntel,60.24096386,5f3168ce4634da00094704e6,65d6bb0e977760de756971f7,65d6bec1ab610f7bb580d5c3,0.0413,0.0413,1,45,207,94,1,eightsix,,,,,,,,,,,,,,,,,,,,,,,,,,,,,,,,,,,,,,,,,,,,,,,,,,,,,,,,,,,,,,,,,,,,,,,,,,,,,,,,,,,,,,,,,,,,,,,,,,,,,,,,,,,,,,,,,,,,,,,,,,,,,,,,,,,,,,,,,
,,5f3168ce4634da00094704e6,2024-02-22_04h27.39.773,kallum_motion_pilot,2023.2.2,MacIntel,60.24096386,5f3168ce4634da00094704e6,65d6bb0e977760de756971f7,65d6bec1ab610f7bb580d5c3,0.0414,0.0415,1,46,208,153,1,fiveseven,,,,,,,,,,,,,,,,,,,,,,,,,,,,,,,,,,,,,,,,,,,,,,,,,,,,,,,,,,,,,,,,,,,,,,,,,,,,,,,,,,,,,,,,,,,,,,,,,,,,,,,,,,,,,,,,,,,,,,,,,,,,,,,,,,,,,,,,,
,,5f3168ce4634da00094704e6,2024-02-22_04h27.39.773,kallum_motion_pilot,2023.2.2,MacIntel,60.24096386,5f3168ce4634da00094704e6,65d6bb0e977760de756971f7,65d6bec1ab610f7bb580d5c3,0.0415,0.0415,1,47,209,56,1,onetwo,,,,,,,,,,,,,,,,,,,,,,,,,,,,,,,,,,,,,,,,,,,,,,,,,,,,,,,,,,,,,,,,,,,,,,,,,,,,,,,,,,,,,,,,,,,,,,,,,,,,,,,,,,,,,,,,,,,,,,,,,,,,,,,,,,,,,,,,,
,,5f3168ce4634da00094704e6,2024-02-22_04h27.39.773,kallum_motion_pilot,2023.2.2,MacIntel,60.24096386,5f3168ce4634da00094704e6,65d6bb0e977760de756971f7,65d6bec1ab610f7bb580d5c3,0.0415,0.0416,1,48,210,83,1,sixeight,,,,,,,,,,,,,,,,,,,,,,,,,,,,,,,,,,,,,,,,,,,,,,,,,,,,,,,,,,,,,,,,,,,,,,,,,,,,,,,,,,,,,,,,,,,,,,,,,,,,,,,,,,,,,,,,,,,,,,,,,,,,,,,,,,,,,,,,,
,,5f3168ce4634da00094704e6,2024-02-22_04h27.39.773,kallum_motion_pilot,2023.2.2,MacIntel,60.24096386,5f3168ce4634da00094704e6,65d6bb0e977760de756971f7,65d6bec1ab610f7bb580d5c3,0.0417,0.0417,1,49,211,82,1,sixfive,,,,,,,,,,,,,,,,,,,,,,,,,,,,,,,,,,,,,,,,,,,,,,,,,,,,,,,,,,,,,,,,,,,,,,,,,,,,,,,,,,,,,,,,,,,,,,,,,,,,,,,,,,,,,,,,,,,,,,,,,,,,,,,,,,,,,,,,,
,,5f3168ce4634da00094704e6,2024-02-22_04h27.39.773,kallum_motion_pilot,2023.2.2,MacIntel,60.24096386,5f3168ce4634da00094704e6,65d6bb0e977760de756971f7,65d6bec1ab610f7bb580d5c3,0.0418,0.0418,1,50,212,65,1,onethree,,,,,,,,,,,,,,,,,,,,,,,,,,,,,,,,,,,,,,,,,,,,,,,,,,,,,,,,,,,,,,,,,,,,,,,,,,,,,,,,,,,,,,,,,,,,,,,,,,,,,,,,,,,,,,,,,,,,,,,,,,,,,,,,,,,,,,,,,
,,5f3168ce4634da00094704e6,2024-02-22_04h27.39.773,kallum_motion_pilot,2023.2.2,MacIntel,60.24096386,5f3168ce4634da00094704e6,65d6bb0e977760de756971f7,65d6bec1ab610f7bb580d5c3,0.0418,0.0419,1,51,213,71,1,fourthree,,,,,,,,,,,,,,,,,,,,,,,,,,,,,,,,,,,,,,,,,,,,,,,,,,,,,,,,,,,,,,,,,,,,,,,,,,,,,,,,,,,,,,,,,,,,,,,,,,,,,,,,,,,,,,,,,,,,,,,,,,,,,,,,,,,,,,,,,
,,5f3168ce4634da00094704e6,2024-02-22_04h27.39.773,kallum_motion_pilot,2023.2.2,MacIntel,60.24096386,5f3168ce4634da00094704e6,65d6bb0e977760de756971f7,65d6bec1ab610f7bb580d5c3,0.0419,0.042,1,52,214,18,1,twoone,,,,,,,,,,,,,,,,,,,,,,,,,,,,,,,,,,,,,,,,,,,,,,,,,,,,,,,,,,,,,,,,,,,,,,,,,,,,,,,,,,,,,,,,,,,,,,,,,,,,,,,,,,,,,,,,,,,,,,,,,,,,,,,,,,,,,,,,,
,,5f3168ce4634da00094704e6,2024-02-22_04h27.39.773,kallum_motion_pilot,2023.2.2,MacIntel,60.24096386,5f3168ce4634da00094704e6,65d6bb0e977760de756971f7,65d6bec1ab610f7bb580d5c3,0.042,0.042,1,53,215,152,1,fivesix,,,,,,,,,,,,,,,,,,,,,,,,,,,,,,,,,,,,,,,,,,,,,,,,,,,,,,,,,,,,,,,,,,,,,,,,,,,,,,,,,,,,,,,,,,,,,,,,,,,,,,,,,,,,,,,,,,,,,,,,,,,,,,,,,,,,,,,,,
,,5f3168ce4634da00094704e6,2024-02-22_04h27.39.773,kallum_motion_pilot,2023.2.2,MacIntel,60.24096386,5f3168ce4634da00094704e6,65d6bb0e977760de756971f7,65d6bec1ab610f7bb580d5c3,0.0421,0.0421,1,54,216,69,1,threefour,,,,,,,,,,,,,,,,,,,,,,,,,,,,,,,,,,,,,,,,,,,,,,,,,,,,,,,,,,,,,,,,,,,,,,,,,,,,,,,,,,,,,,,,,,,,,,,,,,,,,,,,,,,,,,,,,,,,,,,,,,,,,,,,,,,,,,,,,
,,5f3168ce4634da00094704e6,2024-02-22_04h27.39.773,kallum_motion_pilot,2023.2.2,MacIntel,60.24096386,5f3168ce4634da00094704e6,65d6bb0e977760de756971f7,65d6bec1ab610f7bb580d5c3,0.0422,0.0422,1,55,217,31,1,fourthree,,,,,,,,,,,,,,,,,,,,,,,,,,,,,,,,,,,,,,,,,,,,,,,,,,,,,,,,,,,,,,,,,,,,,,,,,,,,,,,,,,,,,,,,,,,,,,,,,,,,,,,,,,,,,,,,,,,,,,,,,,,,,,,,,,,,,,,,,
,,5f3168ce4634da00094704e6,2024-02-22_04h27.39.773,kallum_motion_pilot,2023.2.2,MacIntel,60.24096386,5f3168ce4634da00094704e6,65d6bb0e977760de756971f7,65d6bec1ab610f7bb580d5c3,0.0423,0.0423,1,56,218,93,1,seveneight,,,,,,,,,,,,,,,,,,,,,,,,,,,,,,,,,,,,,,,,,,,,,,,,,,,,,,,,,,,,,,,,,,,,,,,,,,,,,,,,,,,,,,,,,,,,,,,,,,,,,,,,,,,,,,,,,,,,,,,,,,,,,,,,,,,,,,,,,
,,5f3168ce4634da00094704e6,2024-02-22_04h27.39.773,kallum_motion_pilot,2023.2.2,MacIntel,60.24096386,5f3168ce4634da00094704e6,65d6bb0e977760de756971f7,65d6bec1ab610f7bb580d5c3,0.0423,0.0425,1,57,219,114,1,sixfive,,,,,,,,,,,,,,,,,,,,,,,,,,,,,,,,,,,,,,,,,,,,,,,,,,,,,,,,,,,,,,,,,,,,,,,,,,,,,,,,,,,,,,,,,,,,,,,,,,,,,,,,,,,,,,,,,,,,,,,,,,,,,,,,,,,,,,,,,
,,5f3168ce4634da00094704e6,2024-02-22_04h27.39.773,kallum_motion_pilot,2023.2.2,MacIntel,60.24096386,5f3168ce4634da00094704e6,65d6bb0e977760de756971f7,65d6bec1ab610f7bb580d5c3,0.0425,0.0425,1,58,220,102,1,eightsix,,,,,,,,,,,,,,,,,,,,,,,,,,,,,,,,,,,,,,,,,,,,,,,,,,,,,,,,,,,,,,,,,,,,,,,,,,,,,,,,,,,,,,,,,,,,,,,,,,,,,,,,,,,,,,,,,,,,,,,,,,,,,,,,,,,,,,,,,
,,5f3168ce4634da00094704e6,2024-02-22_04h27.39.773,kallum_motion_pilot,2023.2.2,MacIntel,60.24096386,5f3168ce4634da00094704e6,65d6bb0e977760de756971f7,65d6bec1ab610f7bb580d5c3,0.0425,0.0426,1,59,221,13,1,threefour,,,,,,,,,,,,,,,,,,,,,,,,,,,,,,,,,,,,,,,,,,,,,,,,,,,,,,,,,,,,,,,,,,,,,,,,,,,,,,,,,,,,,,,,,,,,,,,,,,,,,,,,,,,,,,,,,,,,,,,,,,,,,,,,,,,,,,,,,
,,5f3168ce4634da00094704e6,2024-02-22_04h27.39.773,kallum_motion_pilot,2023.2.2,MacIntel,60.24096386,5f3168ce4634da00094704e6,65d6bb0e977760de756971f7,65d6bec1ab610f7bb580d5c3,0.0427,0.0427,1,60,222,99,1,sixeight,,,,,,,,,,,,,,,,,,,,,,,,,,,,,,,,,,,,,,,,,,,,,,,,,,,,,,,,,,,,,,,,,,,,,,,,,,,,,,,,,,,,,,,,,,,,,,,,,,,,,,,,,,,,,,,,,,,,,,,,,,,,,,,,,,,,,,,,,
,,5f3168ce4634da00094704e6,2024-02-22_04h27.39.773,kallum_motion_pilot,2023.2.2,MacIntel,60.24096386,5f3168ce4634da00094704e6,65d6bb0e977760de756971f7,65d6bec1ab610f7bb580d5c3,0.0427,0.0428,1,61,223,66,1,twoone,,,,,,,,,,,,,,,,,,,,,,,,,,,,,,,,,,,,,,,,,,,,,,,,,,,,,,,,,,,,,,,,,,,,,,,,,,,,,,,,,,,,,,,,,,,,,,,,,,,,,,,,,,,,,,,,,,,,,,,,,,,,,,,,,,,,,,,,,
,,5f3168ce4634da00094704e6,2024-02-22_04h27.39.773,kallum_motion_pilot,2023.2.2,MacIntel,60.24096386,5f3168ce4634da00094704e6,65d6bb0e977760de756971f7,65d6bec1ab610f7bb580d5c3,0.0428,0.0429,1,62,224,61,1,threefour,,,,,,,,,,,,,,,,,,,,,,,,,,,,,,,,,,,,,,,,,,,,,,,,,,,,,,,,,,,,,,,,,,,,,,,,,,,,,,,,,,,,,,,,,,,,,,,,,,,,,,,,,,,,,,,,,,,,,,,,,,,,,,,,,,,,,,,,,
,,5f3168ce4634da00094704e6,2024-02-22_04h27.39.773,kallum_motion_pilot,2023.2.2,MacIntel,60.24096386,5f3168ce4634da00094704e6,65d6bb0e977760de756971f7,65d6bec1ab610f7bb580d5c3,0.0429,0.043,1,63,225,111,1,eightseven,,,,,,,,,,,,,,,,,,,,,,,,,,,,,,,,,,,,,,,,,,,,,,,,,,,,,,,,,,,,,,,,,,,,,,,,,,,,,,,,,,,,,,,,,,,,,,,,,,,,,,,,,,,,,,,,,,,,,,,,,,,,,,,,,,,,,,,,,
,,5f3168ce4634da00094704e6,2024-02-22_04h27.39.773,kallum_motion_pilot,2023.2.2,MacIntel,60.24096386,5f3168ce4634da00094704e6,65d6bb0e977760de756971f7,65d6bec1ab610f7bb580d5c3,0.043,0.043,1,64,226,80,1,fivesix,,,,,,,,,,,,,,,,,,,,,,,,,,,,,,,,,,,,,,,,,,,,,,,,,,,,,,,,,,,,,,,,,,,,,,,,,,,,,,,,,,,,,,,,,,,,,,,,,,,,,,,,,,,,,,,,,,,,,,,,,,,,,,,,,,,,,,,,,
,,5f3168ce4634da00094704e6,2024-02-22_04h27.39.773,kallum_motion_pilot,2023.2.2,MacIntel,60.24096386,5f3168ce4634da00094704e6,65d6bb0e977760de756971f7,65d6bec1ab610f7bb580d5c3,0.0431,0.0432,1,65,227,68,1,threeone,,,,,,,,,,,,,,,,,,,,,,,,,,,,,,,,,,,,,,,,,,,,,,,,,,,,,,,,,,,,,,,,,,,,,,,,,,,,,,,,,,,,,,,,,,,,,,,,,,,,,,,,,,,,,,,,,,,,,,,,,,,,,,,,,,,,,,,,,
,,5f3168ce4634da00094704e6,2024-02-22_04h27.39.773,kallum_motion_pilot,2023.2.2,MacIntel,60.24096386,5f3168ce4634da00094704e6,65d6bb0e977760de756971f7,65d6bec1ab610f7bb580d5c3,0.0432,0.0432,1,66,228,101,1,seveneight,,,,,,,,,,,,,,,,,,,,,,,,,,,,,,,,,,,,,,,,,,,,,,,,,,,,,,,,,,,,,,,,,,,,,,,,,,,,,,,,,,,,,,,,,,,,,,,,,,,,,,,,,,,,,,,,,,,,,,,,,,,,,,,,,,,,,,,,,
,,5f3168ce4634da00094704e6,2024-02-22_04h27.39.773,kallum_motion_pilot,2023.2.2,MacIntel,60.24096386,5f3168ce4634da00094704e6,65d6bb0e977760de756971f7,65d6bec1ab610f7bb580d5c3,0.0433,0.0434,1,67,229,5,1,threefour,,,,,,,,,,,,,,,,,,,,,,,,,,,,,,,,,,,,,,,,,,,,,,,,,,,,,,,,,,,,,,,,,,,,,,,,,,,,,,,,,,,,,,,,,,,,,,,,,,,,,,,,,,,,,,,,,,,,,,,,,,,,,,,,,,,,,,,,,
,,5f3168ce4634da00094704e6,2024-02-22_04h27.39.773,kallum_motion_pilot,2023.2.2,MacIntel,60.24096386,5f3168ce4634da00094704e6,65d6bb0e977760de756971f7,65d6bec1ab610f7bb580d5c3,0.0434,0.0435,1,68,230,52,1,threeone,,,,,,,,,,,,,,,,,,,,,,,,,,,,,,,,,,,,,,,,,,,,,,,,,,,,,,,,,,,,,,,,,,,,,,,,,,,,,,,,,,,,,,,,,,,,,,,,,,,,,,,,,,,,,,,,,,,,,,,,,,,,,,,,,,,,,,,,,
,,5f3168ce4634da00094704e6,2024-02-22_04h27.39.773,kallum_motion_pilot,2023.2.2,MacIntel,60.24096386,5f3168ce4634da00094704e6,65d6bb0e977760de756971f7,65d6bec1ab610f7bb580d5c3,0.0435,0.0435,1,69,231,130,1,sixfive,,,,,,,,,,,,,,,,,,,,,,,,,,,,,,,,,,,,,,,,,,,,,,,,,,,,,,,,,,,,,,,,,,,,,,,,,,,,,,,,,,,,,,,,,,,,,,,,,,,,,,,,,,,,,,,,,,,,,,,,,,,,,,,,,,,,,,,,,
,,5f3168ce4634da00094704e6,2024-02-22_04h27.39.773,kallum_motion_pilot,2023.2.2,MacIntel,60.24096386,5f3168ce4634da00094704e6,65d6bb0e977760de756971f7,65d6bec1ab610f7bb580d5c3,0.0436,0.0437,1,70,232,19,1,twofour,,,,,,,,,,,,,,,,,,,,,,,,,,,,,,,,,,,,,,,,,,,,,,,,,,,,,,,,,,,,,,,,,,,,,,,,,,,,,,,,,,,,,,,,,,,,,,,,,,,,,,,,,,,,,,,,,,,,,,,,,,,,,,,,,,,,,,,,,
,,5f3168ce4634da00094704e6,2024-02-22_04h27.39.773,kallum_motion_pilot,2023.2.2,MacIntel,60.24096386,5f3168ce4634da00094704e6,65d6bb0e977760de756971f7,65d6bec1ab610f7bb580d5c3,0.0437,0.0438,1,71,233,97,1,fiveseven,,,,,,,,,,,,,,,,,,,,,,,,,,,,,,,,,,,,,,,,,,,,,,,,,,,,,,,,,,,,,,,,,,,,,,,,,,,,,,,,,,,,,,,,,,,,,,,,,,,,,,,,,,,,,,,,,,,,,,,,,,,,,,,,,,,,,,,,,
,,5f3168ce4634da00094704e6,2024-02-22_04h27.39.773,kallum_motion_pilot,2023.2.2,MacIntel,60.24096386,5f3168ce4634da00094704e6,65d6bb0e977760de756971f7,65d6bec1ab610f7bb580d5c3,0.0438,0.0438,1,72,234,85,1,seveneight,,,,,,,,,,,,,,,,,,,,,,,,,,,,,,,,,,,,,,,,,,,,,,,,,,,,,,,,,,,,,,,,,,,,,,,,,,,,,,,,,,,,,,,,,,,,,,,,,,,,,,,,,,,,,,,,,,,,,,,,,,,,,,,,,,,,,,,,,
,,5f3168ce4634da00094704e6,2024-02-22_04h27.39.773,kallum_motion_pilot,2023.2.2,MacIntel,60.24096386,5f3168ce4634da00094704e6,65d6bb0e977760de756971f7,65d6bec1ab610f7bb580d5c3,0.0438,0.044,1,73,235,59,1,twofour,,,,,,,,,,,,,,,,,,,,,,,,,,,,,,,,,,,,,,,,,,,,,,,,,,,,,,,,,,,,,,,,,,,,,,,,,,,,,,,,,,,,,,,,,,,,,,,,,,,,,,,,,,,,,,,,,,,,,,,,,,,,,,,,,,,,,,,,,
,,5f3168ce4634da00094704e6,2024-02-22_04h27.39.773,kallum_motion_pilot,2023.2.2,MacIntel,60.24096386,5f3168ce4634da00094704e6,65d6bb0e977760de756971f7,65d6bec1ab610f7bb580d5c3,0.044,0.044,1,74,236,48,1,onetwo,,,,,,,,,,,,,,,,,,,,,,,,,,,,,,,,,,,,,,,,,,,,,,,,,,,,,,,,,,,,,,,,,,,,,,,,,,,,,,,,,,,,,,,,,,,,,,,,,,,,,,,,,,,,,,,,,,,,,,,,,,,,,,,,,,,,,,,,,
,,5f3168ce4634da00094704e6,2024-02-22_04h27.39.773,kallum_motion_pilot,2023.2.2,MacIntel,60.24096386,5f3168ce4634da00094704e6,65d6bb0e977760de756971f7,65d6bec1ab610f7bb580d5c3,0.044,0.0442,1,75,237,27,1,twofour,,,,,,,,,,,,,,,,,,,,,,,,,,,,,,,,,,,,,,,,,,,,,,,,,,,,,,,,,,,,,,,,,,,,,,,,,,,,,,,,,,,,,,,,,,,,,,,,,,,,,,,,,,,,,,,,,,,,,,,,,,,,,,,,,,,,,,,,,
,,5f3168ce4634da00094704e6,2024-02-22_04h27.39.773,kallum_motion_pilot,2023.2.2,MacIntel,60.24096386,5f3168ce4634da00094704e6,65d6bb0e977760de756971f7,65d6bec1ab610f7bb580d5c3,0.0442,0.0442,1,76,238,123,1,sixeight,,,,,,,,,,,,,,,,,,,,,,,,,,,,,,,,,,,,,,,,,,,,,,,,,,,,,,,,,,,,,,,,,,,,,,,,,,,,,,,,,,,,,,,,,,,,,,,,,,,,,,,,,,,,,,,,,,,,,,,,,,,,,,,,,,,,,,,,,
,,5f3168ce4634da00094704e6,2024-02-22_04h27.39.773,kallum_motion_pilot,2023.2.2,MacIntel,60.24096386,5f3168ce4634da00094704e6,65d6bb0e977760de756971f7,65d6bec1ab610f7bb580d5c3,0.0443,0.0443,1,77,239,51,1,twofour,,,,,,,,,,,,,,,,,,,,,,,,,,,,,,,,,,,,,,,,,,,,,,,,,,,,,,,,,,,,,,,,,,,,,,,,,,,,,,,,,,,,,,,,,,,,,,,,,,,,,,,,,,,,,,,,,,,,,,,,,,,,,,,,,,,,,,,,,
,,5f3168ce4634da00094704e6,2024-02-22_04h27.39.773,kallum_motion_pilot,2023.2.2,MacIntel,60.24096386,5f3168ce4634da00094704e6,65d6bb0e977760de756971f7,65d6bec1ab610f7bb580d5c3,0.0444,0.0444,1,78,240,15,1,fourthree,,,,,,,,,,,,,,,,,,,,,,,,,,,,,,,,,,,,,,,,,,,,,,,,,,,,,,,,,,,,,,,,,,,,,,,,,,,,,,,,,,,,,,,,,,,,,,,,,,,,,,,,,,,,,,,,,,,,,,,,,,,,,,,,,,,,,,,,,
,,5f3168ce4634da00094704e6,2024-02-22_04h27.39.773,kallum_motion_pilot,2023.2.2,MacIntel,60.24096386,5f3168ce4634da00094704e6,65d6bb0e977760de756971f7,65d6bec1ab610f7bb580d5c3,0.0445,0.0445,1,79,241,70,1,fourtwo,,,,,,,,,,,,,,,,,,,,,,,,,,,,,,,,,,,,,,,,,,,,,,,,,,,,,,,,,,,,,,,,,,,,,,,,,,,,,,,,,,,,,,,,,,,,,,,,,,,,,,,,,,,,,,,,,,,,,,,,,,,,,,,,,,,,,,,,,
,,5f3168ce4634da00094704e6,2024-02-22_04h27.39.773,kallum_motion_pilot,2023.2.2,MacIntel,60.24096386,5f3168ce4634da00094704e6,65d6bb0e977760de756971f7,65d6bec1ab610f7bb580d5c3,0.0445,0.0446,1,80,242,42,1,twoone,,,,,,,,,,,,,,,,,,,,,,,,,,,,,,,,,,,,,,,,,,,,,,,,,,,,,,,,,,,,,,,,,,,,,,,,,,,,,,,,,,,,,,,,,,,,,,,,,,,,,,,,,,,,,,,,,,,,,,,,,,,,,,,,,,,,,,,,,
,,5f3168ce4634da00094704e6,2024-02-22_04h27.39.773,kallum_motion_pilot,2023.2.2,MacIntel,60.24096386,5f3168ce4634da00094704e6,65d6bb0e977760de756971f7,65d6bec1ab610f7bb580d5c3,0.0446,0.0447,1,81,243,115,1,sixeight,,,,,,,,,,,,,,,,,,,,,,,,,,,,,,,,,,,,,,,,,,,,,,,,,,,,,,,,,,,,,,,,,,,,,,,,,,,,,,,,,,,,,,,,,,,,,,,,,,,,,,,,,,,,,,,,,,,,,,,,,,,,,,,,,,,,,,,,,
,,5f3168ce4634da00094704e6,2024-02-22_04h27.39.773,kallum_motion_pilot,2023.2.2,MacIntel,60.24096386,5f3168ce4634da00094704e6,65d6bb0e977760de756971f7,65d6bec1ab610f7bb580d5c3,0.0448,0.0448,1,82,244,151,1,eightseven,,,,,,,,,,,,,,,,,,,,,,,,,,,,,,,,,,,,,,,,,,,,,,,,,,,,,,,,,,,,,,,,,,,,,,,,,,,,,,,,,,,,,,,,,,,,,,,,,,,,,,,,,,,,,,,,,,,,,,,,,,,,,,,,,,,,,,,,,
,,5f3168ce4634da00094704e6,2024-02-22_04h27.39.773,kallum_motion_pilot,2023.2.2,MacIntel,60.24096386,5f3168ce4634da00094704e6,65d6bb0e977760de756971f7,65d6bec1ab610f7bb580d5c3,0.0449,0.0449,1,83,245,156,1,sevenfive,,,,,,,,,,,,,,,,,,,,,,,,,,,,,,,,,,,,,,,,,,,,,,,,,,,,,,,,,,,,,,,,,,,,,,,,,,,,,,,,,,,,,,,,,,,,,,,,,,,,,,,,,,,,,,,,,,,,,,,,,,,,,,,,,,,,,,,,,
,,5f3168ce4634da00094704e6,2024-02-22_04h27.39.773,kallum_motion_pilot,2023.2.2,MacIntel,60.24096386,5f3168ce4634da00094704e6,65d6bb0e977760de756971f7,65d6bec1ab610f7bb580d5c3,0.0449,0.045,1,84,246,121,1,fiveseven,,,,,,,,,,,,,,,,,,,,,,,,,,,,,,,,,,,,,,,,,,,,,,,,,,,,,,,,,,,,,,,,,,,,,,,,,,,,,,,,,,,,,,,,,,,,,,,,,,,,,,,,,,,,,,,,,,,,,,,,,,,,,,,,,,,,,,,,,
,,5f3168ce4634da00094704e6,2024-02-22_04h27.39.773,kallum_motion_pilot,2023.2.2,MacIntel,60.24096386,5f3168ce4634da00094704e6,65d6bb0e977760de756971f7,65d6bec1ab610f7bb580d5c3,0.045,0.0451,1,85,247,140,1,sevenfive,,,,,,,,,,,,,,,,,,,,,,,,,,,,,,,,,,,,,,,,,,,,,,,,,,,,,,,,,,,,,,,,,,,,,,,,,,,,,,,,,,,,,,,,,,,,,,,,,,,,,,,,,,,,,,,,,,,,,,,,,,,,,,,,,,,,,,,,,
,,5f3168ce4634da00094704e6,2024-02-22_04h27.39.773,kallum_motion_pilot,2023.2.2,MacIntel,60.24096386,5f3168ce4634da00094704e6,65d6bb0e977760de756971f7,65d6bec1ab610f7bb580d5c3,0.0451,0.0452,1,86,248,28,1,threeone,,,,,,,,,,,,,,,,,,,,,,,,,,,,,,,,,,,,,,,,,,,,,,,,,,,,,,,,,,,,,,,,,,,,,,,,,,,,,,,,,,,,,,,,,,,,,,,,,,,,,,,,,,,,,,,,,,,,,,,,,,,,,,,,,,,,,,,,,
,,5f3168ce4634da00094704e6,2024-02-22_04h27.39.773,kallum_motion_pilot,2023.2.2,MacIntel,60.24096386,5f3168ce4634da00094704e6,65d6bb0e977760de756971f7,65d6bec1ab610f7bb580d5c3,0.0452,0.0453,1,87,249,108,1,sevenfive,,,,,,,,,,,,,,,,,,,,,,,,,,,,,,,,,,,,,,,,,,,,,,,,,,,,,,,,,,,,,,,,,,,,,,,,,,,,,,,,,,,,,,,,,,,,,,,,,,,,,,,,,,,,,,,,,,,,,,,,,,,,,,,,,,,,,,,,,
,,5f3168ce4634da00094704e6,2024-02-22_04h27.39.773,kallum_motion_pilot,2023.2.2,MacIntel,60.24096386,5f3168ce4634da00094704e6,65d6bb0e977760de756971f7,65d6bec1ab610f7bb580d5c3,0.0454,0.0454,1,88,250,90,1,sixfive,,,,,,,,,,,,,,,,,,,,,,,,,,,,,,,,,,,,,,,,,,,,,,,,,,,,,,,,,,,,,,,,,,,,,,,,,,,,,,,,,,,,,,,,,,,,,,,,,,,,,,,,,,,,,,,,,,,,,,,,,,,,,,,,,,,,,,,,,
,,5f3168ce4634da00094704e6,2024-02-22_04h27.39.773,kallum_motion_pilot,2023.2.2,MacIntel,60.24096386,5f3168ce4634da00094704e6,65d6bb0e977760de756971f7,65d6bec1ab610f7bb580d5c3,0.0455,0.0455,1,89,251,17,1,onethree,,,,,,,,,,,,,,,,,,,,,,,,,,,,,,,,,,,,,,,,,,,,,,,,,,,,,,,,,,,,,,,,,,,,,,,,,,,,,,,,,,,,,,,,,,,,,,,,,,,,,,,,,,,,,,,,,,,,,,,,,,,,,,,,,,,,,,,,,
,,5f3168ce4634da00094704e6,2024-02-22_04h27.39.773,kallum_motion_pilot,2023.2.2,MacIntel,60.24096386,5f3168ce4634da00094704e6,65d6bb0e977760de756971f7,65d6bec1ab610f7bb580d5c3,0.0455,0.0456,1,90,252,4,1,threeone,,,,,,,,,,,,,,,,,,,,,,,,,,,,,,,,,,,,,,,,,,,,,,,,,,,,,,,,,,,,,,,,,,,,,,,,,,,,,,,,,,,,,,,,,,,,,,,,,,,,,,,,,,,,,,,,,,,,,,,,,,,,,,,,,,,,,,,,,
,,5f3168ce4634da00094704e6,2024-02-22_04h27.39.773,kallum_motion_pilot,2023.2.2,MacIntel,60.24096386,5f3168ce4634da00094704e6,65d6bb0e977760de756971f7,65d6bec1ab610f7bb580d5c3,0.0457,0.0457,1,91,253,44,1,threeone,,,,,,,,,,,,,,,,,,,,,,,,,,,,,,,,,,,,,,,,,,,,,,,,,,,,,,,,,,,,,,,,,,,,,,,,,,,,,,,,,,,,,,,,,,,,,,,,,,,,,,,,,,,,,,,,,,,,,,,,,,,,,,,,,,,,,,,,,
,,5f3168ce4634da00094704e6,2024-02-22_04h27.39.773,kallum_motion_pilot,2023.2.2,MacIntel,60.24096386,5f3168ce4634da00094704e6,65d6bb0e977760de756971f7,65d6bec1ab610f7bb580d5c3,0.0458,0.0458,1,92,254,41,1,onethree,,,,,,,,,,,,,,,,,,,,,,,,,,,,,,,,,,,,,,,,,,,,,,,,,,,,,,,,,,,,,,,,,,,,,,,,,,,,,,,,,,,,,,,,,,,,,,,,,,,,,,,,,,,,,,,,,,,,,,,,,,,,,,,,,,,,,,,,,
,,5f3168ce4634da00094704e6,2024-02-22_04h27.39.773,kallum_motion_pilot,2023.2.2,MacIntel,60.24096386,5f3168ce4634da00094704e6,65d6bb0e977760de756971f7,65d6bec1ab610f7bb580d5c3,0.0458,0.046,1,93,255,109,1,seveneight,,,,,,,,,,,,,,,,,,,,,,,,,,,,,,,,,,,,,,,,,,,,,,,,,,,,,,,,,,,,,,,,,,,,,,,,,,,,,,,,,,,,,,,,,,,,,,,,,,,,,,,,,,,,,,,,,,,,,,,,,,,,,,,,,,,,,,,,,
,,5f3168ce4634da00094704e6,2024-02-22_04h27.39.773,kallum_motion_pilot,2023.2.2,MacIntel,60.24096386,5f3168ce4634da00094704e6,65d6bb0e977760de756971f7,65d6bec1ab610f7bb580d5c3,0.046,0.0461,1,94,256,78,1,fourtwo,,,,,,,,,,,,,,,,,,,,,,,,,,,,,,,,,,,,,,,,,,,,,,,,,,,,,,,,,,,,,,,,,,,,,,,,,,,,,,,,,,,,,,,,,,,,,,,,,,,,,,,,,,,,,,,,,,,,,,,,,,,,,,,,,,,,,,,,,
,,5f3168ce4634da00094704e6,2024-02-22_04h27.39.773,kallum_motion_pilot,2023.2.2,MacIntel,60.24096386,5f3168ce4634da00094704e6,65d6bb0e977760de756971f7,65d6bec1ab610f7bb580d5c3,0.0461,0.0461,1,95,257,32,1,onetwo,,,,,,,,,,,,,,,,,,,,,,,,,,,,,,,,,,,,,,,,,,,,,,,,,,,,,,,,,,,,,,,,,,,,,,,,,,,,,,,,,,,,,,,,,,,,,,,,,,,,,,,,,,,,,,,,,,,,,,,,,,,,,,,,,,,,,,,,,
,,5f3168ce4634da00094704e6,2024-02-22_04h27.39.773,kallum_motion_pilot,2023.2.2,MacIntel,60.24096386,5f3168ce4634da00094704e6,65d6bb0e977760de756971f7,65d6bec1ab610f7bb580d5c3,0.0461,0.0462,1,96,258,74,1,twoone,,,,,,,,,,,,,,,,,,,,,,,,,,,,,,,,,,,,,,,,,,,,,,,,,,,,,,,,,,,,,,,,,,,,,,,,,,,,,,,,,,,,,,,,,,,,,,,,,,,,,,,,,,,,,,,,,,,,,,,,,,,,,,,,,,,,,,,,,
,,5f3168ce4634da00094704e6,2024-02-22_04h27.39.773,kallum_motion_pilot,2023.2.2,MacIntel,60.24096386,5f3168ce4634da00094704e6,65d6bb0e977760de756971f7,65d6bec1ab610f7bb580d5c3,0.0463,0.0463,1,97,259,132,1,sevenfive,,,,,,,,,,,,,,,,,,,,,,,,,,,,,,,,,,,,,,,,,,,,,,,,,,,,,,,,,,,,,,,,,,,,,,,,,,,,,,,,,,,,,,,,,,,,,,,,,,,,,,,,,,,,,,,,,,,,,,,,,,,,,,,,,,,,,,,,,
,,5f3168ce4634da00094704e6,2024-02-22_04h27.39.773,kallum_motion_pilot,2023.2.2,MacIntel,60.24096386,5f3168ce4634da00094704e6,65d6bb0e977760de756971f7,65d6bec1ab610f7bb580d5c3,0.0464,0.0464,1,98,260,112,1,fivesix,,,,,,,,,,,,,,,,,,,,,,,,,,,,,,,,,,,,,,,,,,,,,,,,,,,,,,,,,,,,,,,,,,,,,,,,,,,,,,,,,,,,,,,,,,,,,,,,,,,,,,,,,,,,,,,,,,,,,,,,,,,,,,,,,,,,,,,,,
,,5f3168ce4634da00094704e6,2024-02-22_04h27.39.773,kallum_motion_pilot,2023.2.2,MacIntel,60.24096386,5f3168ce4634da00094704e6,65d6bb0e977760de756971f7,65d6bec1ab610f7bb580d5c3,0.0465,0.0465,1,99,261,148,1,sevenfive,,,,,,,,,,,,,,,,,,,,,,,,,,,,,,,,,,,,,,,,,,,,,,,,,,,,,,,,,,,,,,,,,,,,,,,,,,,,,,,,,,,,,,,,,,,,,,,,,,,,,,,,,,,,,,,,,,,,,,,,,,,,,,,,,,,,,,,,,
,,5f3168ce4634da00094704e6,2024-02-22_04h27.39.773,kallum_motion_pilot,2023.2.2,MacIntel,60.24096386,5f3168ce4634da00094704e6,65d6bb0e977760de756971f7,65d6bec1ab610f7bb580d5c3,0.0466,0.0466,1,100,262,100,1,sevenfive,,,,,,,,,,,,,,,,,,,,,,,,,,,,,,,,,,,,,,,,,,,,,,,,,,,,,,,,,,,,,,,,,,,,,,,,,,,,,,,,,,,,,,,,,,,,,,,,,,,,,,,,,,,,,,,,,,,,,,,,,,,,,,,,,,,,,,,,,
,,5f3168ce4634da00094704e6,2024-02-22_04h27.39.773,kallum_motion_pilot,2023.2.2,MacIntel,60.24096386,5f3168ce4634da00094704e6,65d6bb0e977760de756971f7,65d6bec1ab610f7bb580d5c3,0.0466,0.0467,1,101,263,145,1,fiveseven,,,,,,,,,,,,,,,,,,,,,,,,,,,,,,,,,,,,,,,,,,,,,,,,,,,,,,,,,,,,,,,,,,,,,,,,,,,,,,,,,,,,,,,,,,,,,,,,,,,,,,,,,,,,,,,,,,,,,,,,,,,,,,,,,,,,,,,,,
,,5f3168ce4634da00094704e6,2024-02-22_04h27.39.773,kallum_motion_pilot,2023.2.2,MacIntel,60.24096386,5f3168ce4634da00094704e6,65d6bb0e977760de756971f7,65d6bec1ab610f7bb580d5c3,0.0467,0.0468,1,102,264,91,1,sixeight,,,,,,,,,,,,,,,,,,,,,,,,,,,,,,,,,,,,,,,,,,,,,,,,,,,,,,,,,,,,,,,,,,,,,,,,,,,,,,,,,,,,,,,,,,,,,,,,,,,,,,,,,,,,,,,,,,,,,,,,,,,,,,,,,,,,,,,,,
,,5f3168ce4634da00094704e6,2024-02-22_04h27.39.773,kallum_motion_pilot,2023.2.2,MacIntel,60.24096386,5f3168ce4634da00094704e6,65d6bb0e977760de756971f7,65d6bec1ab610f7bb580d5c3,0.0469,0.0469,1,103,265,129,1,fiveseven,,,,,,,,,,,,,,,,,,,,,,,,,,,,,,,,,,,,,,,,,,,,,,,,,,,,,,,,,,,,,,,,,,,,,,,,,,,,,,,,,,,,,,,,,,,,,,,,,,,,,,,,,,,,,,,,,,,,,,,,,,,,,,,,,,,,,,,,,
,,5f3168ce4634da00094704e6,2024-02-22_04h27.39.773,kallum_motion_pilot,2023.2.2,MacIntel,60.24096386,5f3168ce4634da00094704e6,65d6bb0e977760de756971f7,65d6bec1ab610f7bb580d5c3,0.047,0.0471,1,104,266,38,1,fourtwo,,,,,,,,,,,,,,,,,,,,,,,,,,,,,,,,,,,,,,,,,,,,,,,,,,,,,,,,,,,,,,,,,,,,,,,,,,,,,,,,,,,,,,,,,,,,,,,,,,,,,,,,,,,,,,,,,,,,,,,,,,,,,,,,,,,,,,,,,
,,5f3168ce4634da00094704e6,2024-02-22_04h27.39.773,kallum_motion_pilot,2023.2.2,MacIntel,60.24096386,5f3168ce4634da00094704e6,65d6bb0e977760de756971f7,65d6bec1ab610f7bb580d5c3,0.0471,0.0472,1,105,267,34,1,twoone,,,,,,,,,,,,,,,,,,,,,,,,,,,,,,,,,,,,,,,,,,,,,,,,,,,,,,,,,,,,,,,,,,,,,,,,,,,,,,,,,,,,,,,,,,,,,,,,,,,,,,,,,,,,,,,,,,,,,,,,,,,,,,,,,,,,,,,,,
,,5f3168ce4634da00094704e6,2024-02-22_04h27.39.773,kallum_motion_pilot,2023.2.2,MacIntel,60.24096386,5f3168ce4634da00094704e6,65d6bb0e977760de756971f7,65d6bec1ab610f7bb580d5c3,0.0473,0.0473,1,106,268,75,1,twofour,,,,,,,,,,,,,,,,,,,,,,,,,,,,,,,,,,,,,,,,,,,,,,,,,,,,,,,,,,,,,,,,,,,,,,,,,,,,,,,,,,,,,,,,,,,,,,,,,,,,,,,,,,,,,,,,,,,,,,,,,,,,,,,,,,,,,,,,,
,,5f3168ce4634da00094704e6,2024-02-22_04h27.39.773,kallum_motion_pilot,2023.2.2,MacIntel,60.24096386,5f3168ce4634da00094704e6,65d6bb0e977760de756971f7,65d6bec1ab610f7bb580d5c3,0.0473,0.0474,1,107,269,149,1,seveneight,,,,,,,,,,,,,,,,,,,,,,,,,,,,,,,,,,,,,,,,,,,,,,,,,,,,,,,,,,,,,,,,,,,,,,,,,,,,,,,,,,,,,,,,,,,,,,,,,,,,,,,,,,,,,,,,,,,,,,,,,,,,,,,,,,,,,,,,,
,,5f3168ce4634da00094704e6,2024-02-22_04h27.39.773,kallum_motion_pilot,2023.2.2,MacIntel,60.24096386,5f3168ce4634da00094704e6,65d6bb0e977760de756971f7,65d6bec1ab610f7bb580d5c3,0.0474,0.0474,1,108,270,26,1,twoone,,,,,,,,,,,,,,,,,,,,,,,,,,,,,,,,,,,,,,,,,,,,,,,,,,,,,,,,,,,,,,,,,,,,,,,,,,,,,,,,,,,,,,,,,,,,,,,,,,,,,,,,,,,,,,,,,,,,,,,,,,,,,,,,,,,,,,,,,
,,5f3168ce4634da00094704e6,2024-02-22_04h27.39.773,kallum_motion_pilot,2023.2.2,MacIntel,60.24096386,5f3168ce4634da00094704e6,65d6bb0e977760de756971f7,65d6bec1ab610f7bb580d5c3,0.0475,0.0475,1,109,271,117,1,seveneight,,,,,,,,,,,,,,,,,,,,,,,,,,,,,,,,,,,,,,,,,,,,,,,,,,,,,,,,,,,,,,,,,,,,,,,,,,,,,,,,,,,,,,,,,,,,,,,,,,,,,,,,,,,,,,,,,,,,,,,,,,,,,,,,,,,,,,,,,
,,5f3168ce4634da00094704e6,2024-02-22_04h27.39.773,kallum_motion_pilot,2023.2.2,MacIntel,60.24096386,5f3168ce4634da00094704e6,65d6bb0e977760de756971f7,65d6bec1ab610f7bb580d5c3,0.0476,0.0477,1,110,272,6,1,fourtwo,,,,,,,,,,,,,,,,,,,,,,,,,,,,,,,,,,,,,,,,,,,,,,,,,,,,,,,,,,,,,,,,,,,,,,,,,,,,,,,,,,,,,,,,,,,,,,,,,,,,,,,,,,,,,,,,,,,,,,,,,,,,,,,,,,,,,,,,,
,,5f3168ce4634da00094704e6,2024-02-22_04h27.39.773,kallum_motion_pilot,2023.2.2,MacIntel,60.24096386,5f3168ce4634da00094704e6,65d6bb0e977760de756971f7,65d6bec1ab610f7bb580d5c3,0.0477,0.0478,1,111,273,12,1,threeone,,,,,,,,,,,,,,,,,,,,,,,,,,,,,,,,,,,,,,,,,,,,,,,,,,,,,,,,,,,,,,,,,,,,,,,,,,,,,,,,,,,,,,,,,,,,,,,,,,,,,,,,,,,,,,,,,,,,,,,,,,,,,,,,,,,,,,,,,
,,5f3168ce4634da00094704e6,2024-02-22_04h27.39.773,kallum_motion_pilot,2023.2.2,MacIntel,60.24096386,5f3168ce4634da00094704e6,65d6bb0e977760de756971f7,65d6bec1ab610f7bb580d5c3,0.0479,0.0479,1,112,274,96,1,fivesix,,,,,,,,,,,,,,,,,,,,,,,,,,,,,,,,,,,,,,,,,,,,,,,,,,,,,,,,,,,,,,,,,,,,,,,,,,,,,,,,,,,,,,,,,,,,,,,,,,,,,,,,,,,,,,,,,,,,,,,,,,,,,,,,,,,,,,,,,
,,5f3168ce4634da00094704e6,2024-02-22_04h27.39.773,kallum_motion_pilot,2023.2.2,MacIntel,60.24096386,5f3168ce4634da00094704e6,65d6bb0e977760de756971f7,65d6bec1ab610f7bb580d5c3,0.048,0.048,1,113,275,150,1,eightsix,,,,,,,,,,,,,,,,,,,,,,,,,,,,,,,,,,,,,,,,,,,,,,,,,,,,,,,,,,,,,,,,,,,,,,,,,,,,,,,,,,,,,,,,,,,,,,,,,,,,,,,,,,,,,,,,,,,,,,,,,,,,,,,,,,,,,,,,,
