startup.started,startup.stopped,Prolific ID*,date,expName,psychopyVersion,OS,frameRate,participant,study_id,session,stimpositions.started,stimpositions.stopped,hardcoded_stimulus_positions.thisRepN,hardcoded_stimulus_positions.thisTrialN,hardcoded_stimulus_positions.thisN,hardcoded_stimulus_positions.thisIndex,hardcoded_stimulus_positions.ran,StimulusPos,stimorientation.started,stimorientation.stopped,prac_stimorientation_import_loop.thisRepN,prac_stimorientation_import_loop.thisTrialN,prac_stimorientation_import_loop.thisN,prac_stimorientation_import_loop.thisIndex,prac_stimorientation_import_loop.ran,Stimorientation,welcome_instr.started,welcome_instr.stopped,key_resp.keys,key_resp.rt,key_resp.duration,response_steppedout_1.started,response_steppedout_1.stopped,key_resp_20.keys,key_resp_20.rt,key_resp_20.duration,response_steppedout_2.started,response_steppedout_2.stopped,key_resp_19.keys,key_resp_19.rt,key_resp_19.duration,stim_response_instr.started,stim_response_instr.stopped,key_resp_15.keys,key_resp_15.rt,key_resp_15.duration,direction_instr_2.started,direction_instr_2.stopped,key_resp_9.keys,key_resp_9.rt,key_resp_9.duration,instr_prac.started,instr_prac.stopped,key_resp_10.keys,key_resp_10.rt,key_resp_10.duration,Stim1_display_prac.started,Stim1_display_prac.stopped,Ecc,Circle1_ori,Circle2_ori,response_prac.started,similarity,response_time,response_prac.stopped,mouse_5.x,mouse_5.y,mouse_5.leftButton,mouse_5.midButton,mouse_5.rightButton,mouse_5.clicked_name,responseprac_feedback.started,responseprac_feedback.stopped,summary2_prac.started,summary2_prac.stopped,mouse_6.x,mouse_6.y,mouse_6.leftButton,mouse_6.midButton,mouse_6.rightButton,mouse_6.clicked_name,duringprac.thisRepN,duringprac.thisTrialN,duringprac.thisN,duringprac.thisIndex,duringprac.ran,begin.started,begin.stopped,key_resp_22.keys,key_resp_22.rt,key_resp_22.duration,Stim1_display.started,Stim1_display.stopped,circle1_ori,circle2_ori,circle1_SF,circle2_SF,response.started,response.stopped,mouse.x,mouse.y,mouse.leftButton,mouse.midButton,mouse.rightButton,mouse.clicked_name,trialnumber,double_pass.thisRepN,double_pass.thisTrialN,double_pass.thisN,double_pass.thisIndex,double_pass.ran,double_pass.order,main_trial.thisRepN,main_trial.thisTrialN,main_trial.thisN,main_trial.thisIndex,main_trial.ran,main_trial.order,Trial_Counter,Catch,Frequencies,response_2.started,response_2.stopped,mouse_2.x,mouse_2.y,mouse_2.leftButton,mouse_2.midButton,mouse_2.rightButton,mouse_2.clicked_name,special_trial.started,special_trial.stopped,catch_1.started,catch_1.stopped,mouse_3.x,mouse_3.y,mouse_3.leftButton,mouse_3.midButton,mouse_3.rightButton,catchresponse,catchnumber,response_time_catch,response_sum.started,response_sum.stopped,mouse_11.x,mouse_11.y,mouse_11.leftButton,mouse_11.midButton,mouse_11.rightButton,flip_presentation_sequence_for_double_pass.started,flip_presentation_sequence_for_double_pass.stopped,goodbye.started,goodbye.stopped,key_resp_3.keys,key_resp_3.rt,key_resp_3.duration
0.005,0.005,5f317f269c42ef04587aa7a0,2024-02-22_04h21.57.787,kallum_motion_pilot,2023.2.2,Win32,10.03613007,5f317f269c42ef04587aa7a0,65d6bb0e977760de756971f7,65d6bdbcdd292789db81fbaa,,,,,,,,,,,,,,,,,,,,,,,,,,,,,,,,,,,,,,,,,,,,,,,,,,,,,,,,,,,,,,,,,,,,,,,,,,,,,,,,,,,,,,,,,,,,,,,,,,,,,,,,,,,,,,,,,,,,,,,,,,,,,,,,,,,,,,,,,,,,,,,,,
,,5f317f269c42ef04587aa7a0,2024-02-22_04h21.57.787,kallum_motion_pilot,2023.2.2,Win32,10.03613007,5f317f269c42ef04587aa7a0,65d6bb0e977760de756971f7,65d6bdbcdd292789db81fbaa,0.02,0.02,0,0,0,16,1,onetwo,,,,,,,,,,,,,,,,,,,,,,,,,,,,,,,,,,,,,,,,,,,,,,,,,,,,,,,,,,,,,,,,,,,,,,,,,,,,,,,,,,,,,,,,,,,,,,,,,,,,,,,,,,,,,,,,,,,,,,,,,,,,,,,,,,,,,,,,,
,,5f317f269c42ef04587aa7a0,2024-02-22_04h21.57.787,kallum_motion_pilot,2023.2.2,Win32,10.03613007,5f317f269c42ef04587aa7a0,65d6bb0e977760de756971f7,65d6bdbcdd292789db81fbaa,0.022,0.022,0,1,1,149,1,seveneight,,,,,,,,,,,,,,,,,,,,,,,,,,,,,,,,,,,,,,,,,,,,,,,,,,,,,,,,,,,,,,,,,,,,,,,,,,,,,,,,,,,,,,,,,,,,,,,,,,,,,,,,,,,,,,,,,,,,,,,,,,,,,,,,,,,,,,,,,
,,5f317f269c42ef04587aa7a0,2024-02-22_04h21.57.787,kallum_motion_pilot,2023.2.2,Win32,10.03613007,5f317f269c42ef04587aa7a0,65d6bb0e977760de756971f7,65d6bdbcdd292789db81fbaa,0.022,0.022,0,2,2,91,1,sixeight,,,,,,,,,,,,,,,,,,,,,,,,,,,,,,,,,,,,,,,,,,,,,,,,,,,,,,,,,,,,,,,,,,,,,,,,,,,,,,,,,,,,,,,,,,,,,,,,,,,,,,,,,,,,,,,,,,,,,,,,,,,,,,,,,,,,,,,,,
,,5f317f269c42ef04587aa7a0,2024-02-22_04h21.57.787,kallum_motion_pilot,2023.2.2,Win32,10.03613007,5f317f269c42ef04587aa7a0,65d6bb0e977760de756971f7,65d6bdbcdd292789db81fbaa,0.022,0.022,0,3,3,116,1,sevenfive,,,,,,,,,,,,,,,,,,,,,,,,,,,,,,,,,,,,,,,,,,,,,,,,,,,,,,,,,,,,,,,,,,,,,,,,,,,,,,,,,,,,,,,,,,,,,,,,,,,,,,,,,,,,,,,,,,,,,,,,,,,,,,,,,,,,,,,,,
,,5f317f269c42ef04587aa7a0,2024-02-22_04h21.57.787,kallum_motion_pilot,2023.2.2,Win32,10.03613007,5f317f269c42ef04587aa7a0,65d6bb0e977760de756971f7,65d6bdbcdd292789db81fbaa,0.022,0.022,0,4,4,152,1,fivesix,,,,,,,,,,,,,,,,,,,,,,,,,,,,,,,,,,,,,,,,,,,,,,,,,,,,,,,,,,,,,,,,,,,,,,,,,,,,,,,,,,,,,,,,,,,,,,,,,,,,,,,,,,,,,,,,,,,,,,,,,,,,,,,,,,,,,,,,,
,,5f317f269c42ef04587aa7a0,2024-02-22_04h21.57.787,kallum_motion_pilot,2023.2.2,Win32,10.03613007,5f317f269c42ef04587aa7a0,65d6bb0e977760de756971f7,65d6bdbcdd292789db81fbaa,0.022,0.022,0,5,5,79,1,eightseven,,,,,,,,,,,,,,,,,,,,,,,,,,,,,,,,,,,,,,,,,,,,,,,,,,,,,,,,,,,,,,,,,,,,,,,,,,,,,,,,,,,,,,,,,,,,,,,,,,,,,,,,,,,,,,,,,,,,,,,,,,,,,,,,,,,,,,,,,
,,5f317f269c42ef04587aa7a0,2024-02-22_04h21.57.787,kallum_motion_pilot,2023.2.2,Win32,10.03613007,5f317f269c42ef04587aa7a0,65d6bb0e977760de756971f7,65d6bdbcdd292789db81fbaa,0.022,0.022,0,6,6,133,1,seveneight,,,,,,,,,,,,,,,,,,,,,,,,,,,,,,,,,,,,,,,,,,,,,,,,,,,,,,,,,,,,,,,,,,,,,,,,,,,,,,,,,,,,,,,,,,,,,,,,,,,,,,,,,,,,,,,,,,,,,,,,,,,,,,,,,,,,,,,,,
,,5f317f269c42ef04587aa7a0,2024-02-22_04h21.57.787,kallum_motion_pilot,2023.2.2,Win32,10.03613007,5f317f269c42ef04587aa7a0,65d6bb0e977760de756971f7,65d6bdbcdd292789db81fbaa,0.022,0.022,0,7,7,94,1,eightsix,,,,,,,,,,,,,,,,,,,,,,,,,,,,,,,,,,,,,,,,,,,,,,,,,,,,,,,,,,,,,,,,,,,,,,,,,,,,,,,,,,,,,,,,,,,,,,,,,,,,,,,,,,,,,,,,,,,,,,,,,,,,,,,,,,,,,,,,,
,,5f317f269c42ef04587aa7a0,2024-02-22_04h21.57.787,kallum_motion_pilot,2023.2.2,Win32,10.03613007,5f317f269c42ef04587aa7a0,65d6bb0e977760de756971f7,65d6bdbcdd292789db81fbaa,0.022,0.022,0,8,8,109,1,seveneight,,,,,,,,,,,,,,,,,,,,,,,,,,,,,,,,,,,,,,,,,,,,,,,,,,,,,,,,,,,,,,,,,,,,,,,,,,,,,,,,,,,,,,,,,,,,,,,,,,,,,,,,,,,,,,,,,,,,,,,,,,,,,,,,,,,,,,,,,
,,5f317f269c42ef04587aa7a0,2024-02-22_04h21.57.787,kallum_motion_pilot,2023.2.2,Win32,10.03613007,5f317f269c42ef04587aa7a0,65d6bb0e977760de756971f7,65d6bdbcdd292789db81fbaa,0.023,0.023,0,9,9,77,1,threefour,,,,,,,,,,,,,,,,,,,,,,,,,,,,,,,,,,,,,,,,,,,,,,,,,,,,,,,,,,,,,,,,,,,,,,,,,,,,,,,,,,,,,,,,,,,,,,,,,,,,,,,,,,,,,,,,,,,,,,,,,,,,,,,,,,,,,,,,,
,,5f317f269c42ef04587aa7a0,2024-02-22_04h21.57.787,kallum_motion_pilot,2023.2.2,Win32,10.03613007,5f317f269c42ef04587aa7a0,65d6bb0e977760de756971f7,65d6bdbcdd292789db81fbaa,0.023,0.023,0,10,10,140,1,sevenfive,,,,,,,,,,,,,,,,,,,,,,,,,,,,,,,,,,,,,,,,,,,,,,,,,,,,,,,,,,,,,,,,,,,,,,,,,,,,,,,,,,,,,,,,,,,,,,,,,,,,,,,,,,,,,,,,,,,,,,,,,,,,,,,,,,,,,,,,,
,,5f317f269c42ef04587aa7a0,2024-02-22_04h21.57.787,kallum_motion_pilot,2023.2.2,Win32,10.03613007,5f317f269c42ef04587aa7a0,65d6bb0e977760de756971f7,65d6bdbcdd292789db81fbaa,0.023,0.023,0,11,11,52,1,threeone,,,,,,,,,,,,,,,,,,,,,,,,,,,,,,,,,,,,,,,,,,,,,,,,,,,,,,,,,,,,,,,,,,,,,,,,,,,,,,,,,,,,,,,,,,,,,,,,,,,,,,,,,,,,,,,,,,,,,,,,,,,,,,,,,,,,,,,,,
,,5f317f269c42ef04587aa7a0,2024-02-22_04h21.57.787,kallum_motion_pilot,2023.2.2,Win32,10.03613007,5f317f269c42ef04587aa7a0,65d6bb0e977760de756971f7,65d6bdbcdd292789db81fbaa,0.023,0.023,0,12,12,110,1,eightsix,,,,,,,,,,,,,,,,,,,,,,,,,,,,,,,,,,,,,,,,,,,,,,,,,,,,,,,,,,,,,,,,,,,,,,,,,,,,,,,,,,,,,,,,,,,,,,,,,,,,,,,,,,,,,,,,,,,,,,,,,,,,,,,,,,,,,,,,,
,,5f317f269c42ef04587aa7a0,2024-02-22_04h21.57.787,kallum_motion_pilot,2023.2.2,Win32,10.03613007,5f317f269c42ef04587aa7a0,65d6bb0e977760de756971f7,65d6bdbcdd292789db81fbaa,0.023,0.023,0,13,13,153,1,fiveseven,,,,,,,,,,,,,,,,,,,,,,,,,,,,,,,,,,,,,,,,,,,,,,,,,,,,,,,,,,,,,,,,,,,,,,,,,,,,,,,,,,,,,,,,,,,,,,,,,,,,,,,,,,,,,,,,,,,,,,,,,,,,,,,,,,,,,,,,,
,,5f317f269c42ef04587aa7a0,2024-02-22_04h21.57.787,kallum_motion_pilot,2023.2.2,Win32,10.03613007,5f317f269c42ef04587aa7a0,65d6bb0e977760de756971f7,65d6bdbcdd292789db81fbaa,0.023,0.023,0,14,14,98,1,sixfive,,,,,,,,,,,,,,,,,,,,,,,,,,,,,,,,,,,,,,,,,,,,,,,,,,,,,,,,,,,,,,,,,,,,,,,,,,,,,,,,,,,,,,,,,,,,,,,,,,,,,,,,,,,,,,,,,,,,,,,,,,,,,,,,,,,,,,,,,
,,5f317f269c42ef04587aa7a0,2024-02-22_04h21.57.787,kallum_motion_pilot,2023.2.2,Win32,10.03613007,5f317f269c42ef04587aa7a0,65d6bb0e977760de756971f7,65d6bdbcdd292789db81fbaa,0.023,0.023,0,15,15,95,1,eightseven,,,,,,,,,,,,,,,,,,,,,,,,,,,,,,,,,,,,,,,,,,,,,,,,,,,,,,,,,,,,,,,,,,,,,,,,,,,,,,,,,,,,,,,,,,,,,,,,,,,,,,,,,,,,,,,,,,,,,,,,,,,,,,,,,,,,,,,,,
,,5f317f269c42ef04587aa7a0,2024-02-22_04h21.57.787,kallum_motion_pilot,2023.2.2,Win32,10.03613007,5f317f269c42ef04587aa7a0,65d6bb0e977760de756971f7,65d6bdbcdd292789db81fbaa,0.023,0.023,0,16,16,111,1,eightseven,,,,,,,,,,,,,,,,,,,,,,,,,,,,,,,,,,,,,,,,,,,,,,,,,,,,,,,,,,,,,,,,,,,,,,,,,,,,,,,,,,,,,,,,,,,,,,,,,,,,,,,,,,,,,,,,,,,,,,,,,,,,,,,,,,,,,,,,,
,,5f317f269c42ef04587aa7a0,2024-02-22_04h21.57.787,kallum_motion_pilot,2023.2.2,Win32,10.03613007,5f317f269c42ef04587aa7a0,65d6bb0e977760de756971f7,65d6bdbcdd292789db81fbaa,0.023,0.023,0,17,17,59,1,twofour,,,,,,,,,,,,,,,,,,,,,,,,,,,,,,,,,,,,,,,,,,,,,,,,,,,,,,,,,,,,,,,,,,,,,,,,,,,,,,,,,,,,,,,,,,,,,,,,,,,,,,,,,,,,,,,,,,,,,,,,,,,,,,,,,,,,,,,,,
,,5f317f269c42ef04587aa7a0,2024-02-22_04h21.57.787,kallum_motion_pilot,2023.2.2,Win32,10.03613007,5f317f269c42ef04587aa7a0,65d6bb0e977760de756971f7,65d6bdbcdd292789db81fbaa,0.023,0.023,0,18,18,72,1,onetwo,,,,,,,,,,,,,,,,,,,,,,,,,,,,,,,,,,,,,,,,,,,,,,,,,,,,,,,,,,,,,,,,,,,,,,,,,,,,,,,,,,,,,,,,,,,,,,,,,,,,,,,,,,,,,,,,,,,,,,,,,,,,,,,,,,,,,,,,,
,,5f317f269c42ef04587aa7a0,2024-02-22_04h21.57.787,kallum_motion_pilot,2023.2.2,Win32,10.03613007,5f317f269c42ef04587aa7a0,65d6bb0e977760de756971f7,65d6bdbcdd292789db81fbaa,0.023,0.023,0,19,19,73,1,onethree,,,,,,,,,,,,,,,,,,,,,,,,,,,,,,,,,,,,,,,,,,,,,,,,,,,,,,,,,,,,,,,,,,,,,,,,,,,,,,,,,,,,,,,,,,,,,,,,,,,,,,,,,,,,,,,,,,,,,,,,,,,,,,,,,,,,,,,,,
,,5f317f269c42ef04587aa7a0,2024-02-22_04h21.57.787,kallum_motion_pilot,2023.2.2,Win32,10.03613007,5f317f269c42ef04587aa7a0,65d6bb0e977760de756971f7,65d6bdbcdd292789db81fbaa,0.023,0.023,0,20,20,102,1,eightsix,,,,,,,,,,,,,,,,,,,,,,,,,,,,,,,,,,,,,,,,,,,,,,,,,,,,,,,,,,,,,,,,,,,,,,,,,,,,,,,,,,,,,,,,,,,,,,,,,,,,,,,,,,,,,,,,,,,,,,,,,,,,,,,,,,,,,,,,,
,,5f317f269c42ef04587aa7a0,2024-02-22_04h21.57.787,kallum_motion_pilot,2023.2.2,Win32,10.03613007,5f317f269c42ef04587aa7a0,65d6bb0e977760de756971f7,65d6bdbcdd292789db81fbaa,0.023,0.023,0,21,21,29,1,threefour,,,,,,,,,,,,,,,,,,,,,,,,,,,,,,,,,,,,,,,,,,,,,,,,,,,,,,,,,,,,,,,,,,,,,,,,,,,,,,,,,,,,,,,,,,,,,,,,,,,,,,,,,,,,,,,,,,,,,,,,,,,,,,,,,,,,,,,,,
,,5f317f269c42ef04587aa7a0,2024-02-22_04h21.57.787,kallum_motion_pilot,2023.2.2,Win32,10.03613007,5f317f269c42ef04587aa7a0,65d6bb0e977760de756971f7,65d6bdbcdd292789db81fbaa,0.023,0.023,0,22,22,86,1,eightsix,,,,,,,,,,,,,,,,,,,,,,,,,,,,,,,,,,,,,,,,,,,,,,,,,,,,,,,,,,,,,,,,,,,,,,,,,,,,,,,,,,,,,,,,,,,,,,,,,,,,,,,,,,,,,,,,,,,,,,,,,,,,,,,,,,,,,,,,,
,,5f317f269c42ef04587aa7a0,2024-02-22_04h21.57.787,kallum_motion_pilot,2023.2.2,Win32,10.03613007,5f317f269c42ef04587aa7a0,65d6bb0e977760de756971f7,65d6bdbcdd292789db81fbaa,0.023,0.023,0,23,23,66,1,twoone,,,,,,,,,,,,,,,,,,,,,,,,,,,,,,,,,,,,,,,,,,,,,,,,,,,,,,,,,,,,,,,,,,,,,,,,,,,,,,,,,,,,,,,,,,,,,,,,,,,,,,,,,,,,,,,,,,,,,,,,,,,,,,,,,,,,,,,,,
,,5f317f269c42ef04587aa7a0,2024-02-22_04h21.57.787,kallum_motion_pilot,2023.2.2,Win32,10.03613007,5f317f269c42ef04587aa7a0,65d6bb0e977760de756971f7,65d6bdbcdd292789db81fbaa,0.023,0.023,0,24,24,104,1,fivesix,,,,,,,,,,,,,,,,,,,,,,,,,,,,,,,,,,,,,,,,,,,,,,,,,,,,,,,,,,,,,,,,,,,,,,,,,,,,,,,,,,,,,,,,,,,,,,,,,,,,,,,,,,,,,,,,,,,,,,,,,,,,,,,,,,,,,,,,,
,,5f317f269c42ef04587aa7a0,2024-02-22_04h21.57.787,kallum_motion_pilot,2023.2.2,Win32,10.03613007,5f317f269c42ef04587aa7a0,65d6bb0e977760de756971f7,65d6bdbcdd292789db81fbaa,0.023,0.023,0,25,25,61,1,threefour,,,,,,,,,,,,,,,,,,,,,,,,,,,,,,,,,,,,,,,,,,,,,,,,,,,,,,,,,,,,,,,,,,,,,,,,,,,,,,,,,,,,,,,,,,,,,,,,,,,,,,,,,,,,,,,,,,,,,,,,,,,,,,,,,,,,,,,,,
,,5f317f269c42ef04587aa7a0,2024-02-22_04h21.57.787,kallum_motion_pilot,2023.2.2,Win32,10.03613007,5f317f269c42ef04587aa7a0,65d6bb0e977760de756971f7,65d6bdbcdd292789db81fbaa,0.023,0.023,0,26,26,53,1,threefour,,,,,,,,,,,,,,,,,,,,,,,,,,,,,,,,,,,,,,,,,,,,,,,,,,,,,,,,,,,,,,,,,,,,,,,,,,,,,,,,,,,,,,,,,,,,,,,,,,,,,,,,,,,,,,,,,,,,,,,,,,,,,,,,,,,,,,,,,
,,5f317f269c42ef04587aa7a0,2024-02-22_04h21.57.787,kallum_motion_pilot,2023.2.2,Win32,10.03613007,5f317f269c42ef04587aa7a0,65d6bb0e977760de756971f7,65d6bdbcdd292789db81fbaa,0.023,0.023,0,27,27,101,1,seveneight,,,,,,,,,,,,,,,,,,,,,,,,,,,,,,,,,,,,,,,,,,,,,,,,,,,,,,,,,,,,,,,,,,,,,,,,,,,,,,,,,,,,,,,,,,,,,,,,,,,,,,,,,,,,,,,,,,,,,,,,,,,,,,,,,,,,,,,,,
,,5f317f269c42ef04587aa7a0,2024-02-22_04h21.57.787,kallum_motion_pilot,2023.2.2,Win32,10.03613007,5f317f269c42ef04587aa7a0,65d6bb0e977760de756971f7,65d6bdbcdd292789db81fbaa,0.023,0.023,0,28,28,10,1,twoone,,,,,,,,,,,,,,,,,,,,,,,,,,,,,,,,,,,,,,,,,,,,,,,,,,,,,,,,,,,,,,,,,,,,,,,,,,,,,,,,,,,,,,,,,,,,,,,,,,,,,,,,,,,,,,,,,,,,,,,,,,,,,,,,,,,,,,,,,
,,5f317f269c42ef04587aa7a0,2024-02-22_04h21.57.787,kallum_motion_pilot,2023.2.2,Win32,10.03613007,5f317f269c42ef04587aa7a0,65d6bb0e977760de756971f7,65d6bdbcdd292789db81fbaa,0.023,0.023,0,29,29,49,1,onethree,,,,,,,,,,,,,,,,,,,,,,,,,,,,,,,,,,,,,,,,,,,,,,,,,,,,,,,,,,,,,,,,,,,,,,,,,,,,,,,,,,,,,,,,,,,,,,,,,,,,,,,,,,,,,,,,,,,,,,,,,,,,,,,,,,,,,,,,,
,,5f317f269c42ef04587aa7a0,2024-02-22_04h21.57.787,kallum_motion_pilot,2023.2.2,Win32,10.03613007,5f317f269c42ef04587aa7a0,65d6bb0e977760de756971f7,65d6bdbcdd292789db81fbaa,0.023,0.023,0,30,30,159,1,eightseven,,,,,,,,,,,,,,,,,,,,,,,,,,,,,,,,,,,,,,,,,,,,,,,,,,,,,,,,,,,,,,,,,,,,,,,,,,,,,,,,,,,,,,,,,,,,,,,,,,,,,,,,,,,,,,,,,,,,,,,,,,,,,,,,,,,,,,,,,
,,5f317f269c42ef04587aa7a0,2024-02-22_04h21.57.787,kallum_motion_pilot,2023.2.2,Win32,10.03613007,5f317f269c42ef04587aa7a0,65d6bb0e977760de756971f7,65d6bdbcdd292789db81fbaa,0.023,0.024,0,31,31,100,1,sevenfive,,,,,,,,,,,,,,,,,,,,,,,,,,,,,,,,,,,,,,,,,,,,,,,,,,,,,,,,,,,,,,,,,,,,,,,,,,,,,,,,,,,,,,,,,,,,,,,,,,,,,,,,,,,,,,,,,,,,,,,,,,,,,,,,,,,,,,,,,
,,5f317f269c42ef04587aa7a0,2024-02-22_04h21.57.787,kallum_motion_pilot,2023.2.2,Win32,10.03613007,5f317f269c42ef04587aa7a0,65d6bb0e977760de756971f7,65d6bdbcdd292789db81fbaa,0.024,0.024,0,32,32,85,1,seveneight,,,,,,,,,,,,,,,,,,,,,,,,,,,,,,,,,,,,,,,,,,,,,,,,,,,,,,,,,,,,,,,,,,,,,,,,,,,,,,,,,,,,,,,,,,,,,,,,,,,,,,,,,,,,,,,,,,,,,,,,,,,,,,,,,,,,,,,,,
,,5f317f269c42ef04587aa7a0,2024-02-22_04h21.57.787,kallum_motion_pilot,2023.2.2,Win32,10.03613007,5f317f269c42ef04587aa7a0,65d6bb0e977760de756971f7,65d6bdbcdd292789db81fbaa,0.024,0.024,0,33,33,161,1,fiveseven,,,,,,,,,,,,,,,,,,,,,,,,,,,,,,,,,,,,,,,,,,,,,,,,,,,,,,,,,,,,,,,,,,,,,,,,,,,,,,,,,,,,,,,,,,,,,,,,,,,,,,,,,,,,,,,,,,,,,,,,,,,,,,,,,,,,,,,,,
,,5f317f269c42ef04587aa7a0,2024-02-22_04h21.57.787,kallum_motion_pilot,2023.2.2,Win32,10.03613007,5f317f269c42ef04587aa7a0,65d6bb0e977760de756971f7,65d6bdbcdd292789db81fbaa,0.024,0.024,0,34,34,131,1,sixeight,,,,,,,,,,,,,,,,,,,,,,,,,,,,,,,,,,,,,,,,,,,,,,,,,,,,,,,,,,,,,,,,,,,,,,,,,,,,,,,,,,,,,,,,,,,,,,,,,,,,,,,,,,,,,,,,,,,,,,,,,,,,,,,,,,,,,,,,,
,,5f317f269c42ef04587aa7a0,2024-02-22_04h21.57.787,kallum_motion_pilot,2023.2.2,Win32,10.03613007,5f317f269c42ef04587aa7a0,65d6bb0e977760de756971f7,65d6bdbcdd292789db81fbaa,0.024,0.024,0,35,35,93,1,seveneight,,,,,,,,,,,,,,,,,,,,,,,,,,,,,,,,,,,,,,,,,,,,,,,,,,,,,,,,,,,,,,,,,,,,,,,,,,,,,,,,,,,,,,,,,,,,,,,,,,,,,,,,,,,,,,,,,,,,,,,,,,,,,,,,,,,,,,,,,
,,5f317f269c42ef04587aa7a0,2024-02-22_04h21.57.787,kallum_motion_pilot,2023.2.2,Win32,10.03613007,5f317f269c42ef04587aa7a0,65d6bb0e977760de756971f7,65d6bdbcdd292789db81fbaa,0.024,0.024,0,36,36,14,1,fourtwo,,,,,,,,,,,,,,,,,,,,,,,,,,,,,,,,,,,,,,,,,,,,,,,,,,,,,,,,,,,,,,,,,,,,,,,,,,,,,,,,,,,,,,,,,,,,,,,,,,,,,,,,,,,,,,,,,,,,,,,,,,,,,,,,,,,,,,,,,
,,5f317f269c42ef04587aa7a0,2024-02-22_04h21.57.787,kallum_motion_pilot,2023.2.2,Win32,10.03613007,5f317f269c42ef04587aa7a0,65d6bb0e977760de756971f7,65d6bdbcdd292789db81fbaa,0.024,0.024,0,37,37,139,1,sixeight,,,,,,,,,,,,,,,,,,,,,,,,,,,,,,,,,,,,,,,,,,,,,,,,,,,,,,,,,,,,,,,,,,,,,,,,,,,,,,,,,,,,,,,,,,,,,,,,,,,,,,,,,,,,,,,,,,,,,,,,,,,,,,,,,,,,,,,,,
,,5f317f269c42ef04587aa7a0,2024-02-22_04h21.57.787,kallum_motion_pilot,2023.2.2,Win32,10.03613007,5f317f269c42ef04587aa7a0,65d6bb0e977760de756971f7,65d6bdbcdd292789db81fbaa,0.024,0.024,0,38,38,34,1,twoone,,,,,,,,,,,,,,,,,,,,,,,,,,,,,,,,,,,,,,,,,,,,,,,,,,,,,,,,,,,,,,,,,,,,,,,,,,,,,,,,,,,,,,,,,,,,,,,,,,,,,,,,,,,,,,,,,,,,,,,,,,,,,,,,,,,,,,,,,
,,5f317f269c42ef04587aa7a0,2024-02-22_04h21.57.787,kallum_motion_pilot,2023.2.2,Win32,10.03613007,5f317f269c42ef04587aa7a0,65d6bb0e977760de756971f7,65d6bdbcdd292789db81fbaa,0.024,0.024,0,39,39,12,1,threeone,,,,,,,,,,,,,,,,,,,,,,,,,,,,,,,,,,,,,,,,,,,,,,,,,,,,,,,,,,,,,,,,,,,,,,,,,,,,,,,,,,,,,,,,,,,,,,,,,,,,,,,,,,,,,,,,,,,,,,,,,,,,,,,,,,,,,,,,,
,,5f317f269c42ef04587aa7a0,2024-02-22_04h21.57.787,kallum_motion_pilot,2023.2.2,Win32,10.03613007,5f317f269c42ef04587aa7a0,65d6bb0e977760de756971f7,65d6bdbcdd292789db81fbaa,0.024,0.024,0,40,40,17,1,onethree,,,,,,,,,,,,,,,,,,,,,,,,,,,,,,,,,,,,,,,,,,,,,,,,,,,,,,,,,,,,,,,,,,,,,,,,,,,,,,,,,,,,,,,,,,,,,,,,,,,,,,,,,,,,,,,,,,,,,,,,,,,,,,,,,,,,,,,,,
,,5f317f269c42ef04587aa7a0,2024-02-22_04h21.57.787,kallum_motion_pilot,2023.2.2,Win32,10.03613007,5f317f269c42ef04587aa7a0,65d6bb0e977760de756971f7,65d6bdbcdd292789db81fbaa,0.024,0.024,0,41,41,80,1,fivesix,,,,,,,,,,,,,,,,,,,,,,,,,,,,,,,,,,,,,,,,,,,,,,,,,,,,,,,,,,,,,,,,,,,,,,,,,,,,,,,,,,,,,,,,,,,,,,,,,,,,,,,,,,,,,,,,,,,,,,,,,,,,,,,,,,,,,,,,,
,,5f317f269c42ef04587aa7a0,2024-02-22_04h21.57.787,kallum_motion_pilot,2023.2.2,Win32,10.03613007,5f317f269c42ef04587aa7a0,65d6bb0e977760de756971f7,65d6bdbcdd292789db81fbaa,0.024,0.024,0,42,42,115,1,sixeight,,,,,,,,,,,,,,,,,,,,,,,,,,,,,,,,,,,,,,,,,,,,,,,,,,,,,,,,,,,,,,,,,,,,,,,,,,,,,,,,,,,,,,,,,,,,,,,,,,,,,,,,,,,,,,,,,,,,,,,,,,,,,,,,,,,,,,,,,
,,5f317f269c42ef04587aa7a0,2024-02-22_04h21.57.787,kallum_motion_pilot,2023.2.2,Win32,10.03613007,5f317f269c42ef04587aa7a0,65d6bb0e977760de756971f7,65d6bdbcdd292789db81fbaa,0.025,0.025,0,43,43,128,1,fivesix,,,,,,,,,,,,,,,,,,,,,,,,,,,,,,,,,,,,,,,,,,,,,,,,,,,,,,,,,,,,,,,,,,,,,,,,,,,,,,,,,,,,,,,,,,,,,,,,,,,,,,,,,,,,,,,,,,,,,,,,,,,,,,,,,,,,,,,,,
,,5f317f269c42ef04587aa7a0,2024-02-22_04h21.57.787,kallum_motion_pilot,2023.2.2,Win32,10.03613007,5f317f269c42ef04587aa7a0,65d6bb0e977760de756971f7,65d6bdbcdd292789db81fbaa,0.026,0.026,0,44,44,126,1,eightsix,,,,,,,,,,,,,,,,,,,,,,,,,,,,,,,,,,,,,,,,,,,,,,,,,,,,,,,,,,,,,,,,,,,,,,,,,,,,,,,,,,,,,,,,,,,,,,,,,,,,,,,,,,,,,,,,,,,,,,,,,,,,,,,,,,,,,,,,,
,,5f317f269c42ef04587aa7a0,2024-02-22_04h21.57.787,kallum_motion_pilot,2023.2.2,Win32,10.03613007,5f317f269c42ef04587aa7a0,65d6bb0e977760de756971f7,65d6bdbcdd292789db81fbaa,0.026,0.026,0,45,45,32,1,onetwo,,,,,,,,,,,,,,,,,,,,,,,,,,,,,,,,,,,,,,,,,,,,,,,,,,,,,,,,,,,,,,,,,,,,,,,,,,,,,,,,,,,,,,,,,,,,,,,,,,,,,,,,,,,,,,,,,,,,,,,,,,,,,,,,,,,,,,,,,
,,5f317f269c42ef04587aa7a0,2024-02-22_04h21.57.787,kallum_motion_pilot,2023.2.2,Win32,10.03613007,5f317f269c42ef04587aa7a0,65d6bb0e977760de756971f7,65d6bdbcdd292789db81fbaa,0.026,0.026,0,46,46,144,1,fivesix,,,,,,,,,,,,,,,,,,,,,,,,,,,,,,,,,,,,,,,,,,,,,,,,,,,,,,,,,,,,,,,,,,,,,,,,,,,,,,,,,,,,,,,,,,,,,,,,,,,,,,,,,,,,,,,,,,,,,,,,,,,,,,,,,,,,,,,,,
,,5f317f269c42ef04587aa7a0,2024-02-22_04h21.57.787,kallum_motion_pilot,2023.2.2,Win32,10.03613007,5f317f269c42ef04587aa7a0,65d6bb0e977760de756971f7,65d6bdbcdd292789db81fbaa,0.026,0.026,0,47,47,151,1,eightseven,,,,,,,,,,,,,,,,,,,,,,,,,,,,,,,,,,,,,,,,,,,,,,,,,,,,,,,,,,,,,,,,,,,,,,,,,,,,,,,,,,,,,,,,,,,,,,,,,,,,,,,,,,,,,,,,,,,,,,,,,,,,,,,,,,,,,,,,,
,,5f317f269c42ef04587aa7a0,2024-02-22_04h21.57.787,kallum_motion_pilot,2023.2.2,Win32,10.03613007,5f317f269c42ef04587aa7a0,65d6bb0e977760de756971f7,65d6bdbcdd292789db81fbaa,0.026,0.026,0,48,48,13,1,threefour,,,,,,,,,,,,,,,,,,,,,,,,,,,,,,,,,,,,,,,,,,,,,,,,,,,,,,,,,,,,,,,,,,,,,,,,,,,,,,,,,,,,,,,,,,,,,,,,,,,,,,,,,,,,,,,,,,,,,,,,,,,,,,,,,,,,,,,,,
,,5f317f269c42ef04587aa7a0,2024-02-22_04h21.57.787,kallum_motion_pilot,2023.2.2,Win32,10.03613007,5f317f269c42ef04587aa7a0,65d6bb0e977760de756971f7,65d6bdbcdd292789db81fbaa,0.026,0.026,0,49,49,113,1,fiveseven,,,,,,,,,,,,,,,,,,,,,,,,,,,,,,,,,,,,,,,,,,,,,,,,,,,,,,,,,,,,,,,,,,,,,,,,,,,,,,,,,,,,,,,,,,,,,,,,,,,,,,,,,,,,,,,,,,,,,,,,,,,,,,,,,,,,,,,,,
,,5f317f269c42ef04587aa7a0,2024-02-22_04h21.57.787,kallum_motion_pilot,2023.2.2,Win32,10.03613007,5f317f269c42ef04587aa7a0,65d6bb0e977760de756971f7,65d6bdbcdd292789db81fbaa,0.026,0.026,0,50,50,143,1,eightseven,,,,,,,,,,,,,,,,,,,,,,,,,,,,,,,,,,,,,,,,,,,,,,,,,,,,,,,,,,,,,,,,,,,,,,,,,,,,,,,,,,,,,,,,,,,,,,,,,,,,,,,,,,,,,,,,,,,,,,,,,,,,,,,,,,,,,,,,,
,,5f317f269c42ef04587aa7a0,2024-02-22_04h21.57.787,kallum_motion_pilot,2023.2.2,Win32,10.03613007,5f317f269c42ef04587aa7a0,65d6bb0e977760de756971f7,65d6bdbcdd292789db81fbaa,0.026,0.026,0,51,51,58,1,twoone,,,,,,,,,,,,,,,,,,,,,,,,,,,,,,,,,,,,,,,,,,,,,,,,,,,,,,,,,,,,,,,,,,,,,,,,,,,,,,,,,,,,,,,,,,,,,,,,,,,,,,,,,,,,,,,,,,,,,,,,,,,,,,,,,,,,,,,,,
,,5f317f269c42ef04587aa7a0,2024-02-22_04h21.57.787,kallum_motion_pilot,2023.2.2,Win32,10.03613007,5f317f269c42ef04587aa7a0,65d6bb0e977760de756971f7,65d6bdbcdd292789db81fbaa,0.026,0.026,0,52,52,127,1,eightseven,,,,,,,,,,,,,,,,,,,,,,,,,,,,,,,,,,,,,,,,,,,,,,,,,,,,,,,,,,,,,,,,,,,,,,,,,,,,,,,,,,,,,,,,,,,,,,,,,,,,,,,,,,,,,,,,,,,,,,,,,,,,,,,,,,,,,,,,,
,,5f317f269c42ef04587aa7a0,2024-02-22_04h21.57.787,kallum_motion_pilot,2023.2.2,Win32,10.03613007,5f317f269c42ef04587aa7a0,65d6bb0e977760de756971f7,65d6bdbcdd292789db81fbaa,0.026,0.026,0,53,53,0,1,onetwo,,,,,,,,,,,,,,,,,,,,,,,,,,,,,,,,,,,,,,,,,,,,,,,,,,,,,,,,,,,,,,,,,,,,,,,,,,,,,,,,,,,,,,,,,,,,,,,,,,,,,,,,,,,,,,,,,,,,,,,,,,,,,,,,,,,,,,,,,
,,5f317f269c42ef04587aa7a0,2024-02-22_04h21.57.787,kallum_motion_pilot,2023.2.2,Win32,10.03613007,5f317f269c42ef04587aa7a0,65d6bb0e977760de756971f7,65d6bdbcdd292789db81fbaa,0.026,0.026,0,54,54,50,1,twoone,,,,,,,,,,,,,,,,,,,,,,,,,,,,,,,,,,,,,,,,,,,,,,,,,,,,,,,,,,,,,,,,,,,,,,,,,,,,,,,,,,,,,,,,,,,,,,,,,,,,,,,,,,,,,,,,,,,,,,,,,,,,,,,,,,,,,,,,,
,,5f317f269c42ef04587aa7a0,2024-02-22_04h21.57.787,kallum_motion_pilot,2023.2.2,Win32,10.03613007,5f317f269c42ef04587aa7a0,65d6bb0e977760de756971f7,65d6bdbcdd292789db81fbaa,0.027,0.027,0,55,55,146,1,sixfive,,,,,,,,,,,,,,,,,,,,,,,,,,,,,,,,,,,,,,,,,,,,,,,,,,,,,,,,,,,,,,,,,,,,,,,,,,,,,,,,,,,,,,,,,,,,,,,,,,,,,,,,,,,,,,,,,,,,,,,,,,,,,,,,,,,,,,,,,
,,5f317f269c42ef04587aa7a0,2024-02-22_04h21.57.787,kallum_motion_pilot,2023.2.2,Win32,10.03613007,5f317f269c42ef04587aa7a0,65d6bb0e977760de756971f7,65d6bdbcdd292789db81fbaa,0.027,0.027,0,56,56,45,1,threefour,,,,,,,,,,,,,,,,,,,,,,,,,,,,,,,,,,,,,,,,,,,,,,,,,,,,,,,,,,,,,,,,,,,,,,,,,,,,,,,,,,,,,,,,,,,,,,,,,,,,,,,,,,,,,,,,,,,,,,,,,,,,,,,,,,,,,,,,,
,,5f317f269c42ef04587aa7a0,2024-02-22_04h21.57.787,kallum_motion_pilot,2023.2.2,Win32,10.03613007,5f317f269c42ef04587aa7a0,65d6bb0e977760de756971f7,65d6bdbcdd292789db81fbaa,0.027,0.027,0,57,57,117,1,seveneight,,,,,,,,,,,,,,,,,,,,,,,,,,,,,,,,,,,,,,,,,,,,,,,,,,,,,,,,,,,,,,,,,,,,,,,,,,,,,,,,,,,,,,,,,,,,,,,,,,,,,,,,,,,,,,,,,,,,,,,,,,,,,,,,,,,,,,,,,
,,5f317f269c42ef04587aa7a0,2024-02-22_04h21.57.787,kallum_motion_pilot,2023.2.2,Win32,10.03613007,5f317f269c42ef04587aa7a0,65d6bb0e977760de756971f7,65d6bdbcdd292789db81fbaa,0.027,0.027,0,58,58,103,1,eightseven,,,,,,,,,,,,,,,,,,,,,,,,,,,,,,,,,,,,,,,,,,,,,,,,,,,,,,,,,,,,,,,,,,,,,,,,,,,,,,,,,,,,,,,,,,,,,,,,,,,,,,,,,,,,,,,,,,,,,,,,,,,,,,,,,,,,,,,,,
,,5f317f269c42ef04587aa7a0,2024-02-22_04h21.57.787,kallum_motion_pilot,2023.2.2,Win32,10.03613007,5f317f269c42ef04587aa7a0,65d6bb0e977760de756971f7,65d6bdbcdd292789db81fbaa,0.027,0.027,0,59,59,60,1,threeone,,,,,,,,,,,,,,,,,,,,,,,,,,,,,,,,,,,,,,,,,,,,,,,,,,,,,,,,,,,,,,,,,,,,,,,,,,,,,,,,,,,,,,,,,,,,,,,,,,,,,,,,,,,,,,,,,,,,,,,,,,,,,,,,,,,,,,,,,
,,5f317f269c42ef04587aa7a0,2024-02-22_04h21.57.787,kallum_motion_pilot,2023.2.2,Win32,10.03613007,5f317f269c42ef04587aa7a0,65d6bb0e977760de756971f7,65d6bdbcdd292789db81fbaa,0.027,0.027,0,60,60,41,1,onethree,,,,,,,,,,,,,,,,,,,,,,,,,,,,,,,,,,,,,,,,,,,,,,,,,,,,,,,,,,,,,,,,,,,,,,,,,,,,,,,,,,,,,,,,,,,,,,,,,,,,,,,,,,,,,,,,,,,,,,,,,,,,,,,,,,,,,,,,,
,,5f317f269c42ef04587aa7a0,2024-02-22_04h21.57.787,kallum_motion_pilot,2023.2.2,Win32,10.03613007,5f317f269c42ef04587aa7a0,65d6bb0e977760de756971f7,65d6bdbcdd292789db81fbaa,0.027,0.027,0,61,61,114,1,sixfive,,,,,,,,,,,,,,,,,,,,,,,,,,,,,,,,,,,,,,,,,,,,,,,,,,,,,,,,,,,,,,,,,,,,,,,,,,,,,,,,,,,,,,,,,,,,,,,,,,,,,,,,,,,,,,,,,,,,,,,,,,,,,,,,,,,,,,,,,
,,5f317f269c42ef04587aa7a0,2024-02-22_04h21.57.787,kallum_motion_pilot,2023.2.2,Win32,10.03613007,5f317f269c42ef04587aa7a0,65d6bb0e977760de756971f7,65d6bdbcdd292789db81fbaa,0.027,0.027,0,62,62,106,1,sixfive,,,,,,,,,,,,,,,,,,,,,,,,,,,,,,,,,,,,,,,,,,,,,,,,,,,,,,,,,,,,,,,,,,,,,,,,,,,,,,,,,,,,,,,,,,,,,,,,,,,,,,,,,,,,,,,,,,,,,,,,,,,,,,,,,,,,,,,,,
,,5f317f269c42ef04587aa7a0,2024-02-22_04h21.57.787,kallum_motion_pilot,2023.2.2,Win32,10.03613007,5f317f269c42ef04587aa7a0,65d6bb0e977760de756971f7,65d6bdbcdd292789db81fbaa,0.027,0.027,0,63,63,156,1,sevenfive,,,,,,,,,,,,,,,,,,,,,,,,,,,,,,,,,,,,,,,,,,,,,,,,,,,,,,,,,,,,,,,,,,,,,,,,,,,,,,,,,,,,,,,,,,,,,,,,,,,,,,,,,,,,,,,,,,,,,,,,,,,,,,,,,,,,,,,,,
,,5f317f269c42ef04587aa7a0,2024-02-22_04h21.57.787,kallum_motion_pilot,2023.2.2,Win32,10.03613007,5f317f269c42ef04587aa7a0,65d6bb0e977760de756971f7,65d6bdbcdd292789db81fbaa,0.027,0.027,0,64,64,96,1,fivesix,,,,,,,,,,,,,,,,,,,,,,,,,,,,,,,,,,,,,,,,,,,,,,,,,,,,,,,,,,,,,,,,,,,,,,,,,,,,,,,,,,,,,,,,,,,,,,,,,,,,,,,,,,,,,,,,,,,,,,,,,,,,,,,,,,,,,,,,,
,,5f317f269c42ef04587aa7a0,2024-02-22_04h21.57.787,kallum_motion_pilot,2023.2.2,Win32,10.03613007,5f317f269c42ef04587aa7a0,65d6bb0e977760de756971f7,65d6bdbcdd292789db81fbaa,0.027,0.027,0,65,65,4,1,threeone,,,,,,,,,,,,,,,,,,,,,,,,,,,,,,,,,,,,,,,,,,,,,,,,,,,,,,,,,,,,,,,,,,,,,,,,,,,,,,,,,,,,,,,,,,,,,,,,,,,,,,,,,,,,,,,,,,,,,,,,,,,,,,,,,,,,,,,,,
,,5f317f269c42ef04587aa7a0,2024-02-22_04h21.57.787,kallum_motion_pilot,2023.2.2,Win32,10.03613007,5f317f269c42ef04587aa7a0,65d6bb0e977760de756971f7,65d6bdbcdd292789db81fbaa,0.027,0.027,0,66,66,57,1,onethree,,,,,,,,,,,,,,,,,,,,,,,,,,,,,,,,,,,,,,,,,,,,,,,,,,,,,,,,,,,,,,,,,,,,,,,,,,,,,,,,,,,,,,,,,,,,,,,,,,,,,,,,,,,,,,,,,,,,,,,,,,,,,,,,,,,,,,,,,
,,5f317f269c42ef04587aa7a0,2024-02-22_04h21.57.787,kallum_motion_pilot,2023.2.2,Win32,10.03613007,5f317f269c42ef04587aa7a0,65d6bb0e977760de756971f7,65d6bdbcdd292789db81fbaa,0.027,0.027,0,67,67,44,1,threeone,,,,,,,,,,,,,,,,,,,,,,,,,,,,,,,,,,,,,,,,,,,,,,,,,,,,,,,,,,,,,,,,,,,,,,,,,,,,,,,,,,,,,,,,,,,,,,,,,,,,,,,,,,,,,,,,,,,,,,,,,,,,,,,,,,,,,,,,,
,,5f317f269c42ef04587aa7a0,2024-02-22_04h21.57.787,kallum_motion_pilot,2023.2.2,Win32,10.03613007,5f317f269c42ef04587aa7a0,65d6bb0e977760de756971f7,65d6bdbcdd292789db81fbaa,0.027,0.027,0,68,68,78,1,fourtwo,,,,,,,,,,,,,,,,,,,,,,,,,,,,,,,,,,,,,,,,,,,,,,,,,,,,,,,,,,,,,,,,,,,,,,,,,,,,,,,,,,,,,,,,,,,,,,,,,,,,,,,,,,,,,,,,,,,,,,,,,,,,,,,,,,,,,,,,,
,,5f317f269c42ef04587aa7a0,2024-02-22_04h21.57.787,kallum_motion_pilot,2023.2.2,Win32,10.03613007,5f317f269c42ef04587aa7a0,65d6bb0e977760de756971f7,65d6bdbcdd292789db81fbaa,0.027,0.027,0,69,69,120,1,fivesix,,,,,,,,,,,,,,,,,,,,,,,,,,,,,,,,,,,,,,,,,,,,,,,,,,,,,,,,,,,,,,,,,,,,,,,,,,,,,,,,,,,,,,,,,,,,,,,,,,,,,,,,,,,,,,,,,,,,,,,,,,,,,,,,,,,,,,,,,
,,5f317f269c42ef04587aa7a0,2024-02-22_04h21.57.787,kallum_motion_pilot,2023.2.2,Win32,10.03613007,5f317f269c42ef04587aa7a0,65d6bb0e977760de756971f7,65d6bdbcdd292789db81fbaa,0.027,0.027,0,70,70,42,1,twoone,,,,,,,,,,,,,,,,,,,,,,,,,,,,,,,,,,,,,,,,,,,,,,,,,,,,,,,,,,,,,,,,,,,,,,,,,,,,,,,,,,,,,,,,,,,,,,,,,,,,,,,,,,,,,,,,,,,,,,,,,,,,,,,,,,,,,,,,,
,,5f317f269c42ef04587aa7a0,2024-02-22_04h21.57.787,kallum_motion_pilot,2023.2.2,Win32,10.03613007,5f317f269c42ef04587aa7a0,65d6bb0e977760de756971f7,65d6bdbcdd292789db81fbaa,0.027,0.027,0,71,71,89,1,fiveseven,,,,,,,,,,,,,,,,,,,,,,,,,,,,,,,,,,,,,,,,,,,,,,,,,,,,,,,,,,,,,,,,,,,,,,,,,,,,,,,,,,,,,,,,,,,,,,,,,,,,,,,,,,,,,,,,,,,,,,,,,,,,,,,,,,,,,,,,,
,,5f317f269c42ef04587aa7a0,2024-02-22_04h21.57.787,kallum_motion_pilot,2023.2.2,Win32,10.03613007,5f317f269c42ef04587aa7a0,65d6bb0e977760de756971f7,65d6bdbcdd292789db81fbaa,0.027,0.027,0,72,72,87,1,eightseven,,,,,,,,,,,,,,,,,,,,,,,,,,,,,,,,,,,,,,,,,,,,,,,,,,,,,,,,,,,,,,,,,,,,,,,,,,,,,,,,,,,,,,,,,,,,,,,,,,,,,,,,,,,,,,,,,,,,,,,,,,,,,,,,,,,,,,,,,
,,5f317f269c42ef04587aa7a0,2024-02-22_04h21.57.787,kallum_motion_pilot,2023.2.2,Win32,10.03613007,5f317f269c42ef04587aa7a0,65d6bb0e977760de756971f7,65d6bdbcdd292789db81fbaa,0.027,0.027,0,73,73,112,1,fivesix,,,,,,,,,,,,,,,,,,,,,,,,,,,,,,,,,,,,,,,,,,,,,,,,,,,,,,,,,,,,,,,,,,,,,,,,,,,,,,,,,,,,,,,,,,,,,,,,,,,,,,,,,,,,,,,,,,,,,,,,,,,,,,,,,,,,,,,,,
,,5f317f269c42ef04587aa7a0,2024-02-22_04h21.57.787,kallum_motion_pilot,2023.2.2,Win32,10.03613007,5f317f269c42ef04587aa7a0,65d6bb0e977760de756971f7,65d6bdbcdd292789db81fbaa,0.027,0.027,0,74,74,137,1,fiveseven,,,,,,,,,,,,,,,,,,,,,,,,,,,,,,,,,,,,,,,,,,,,,,,,,,,,,,,,,,,,,,,,,,,,,,,,,,,,,,,,,,,,,,,,,,,,,,,,,,,,,,,,,,,,,,,,,,,,,,,,,,,,,,,,,,,,,,,,,
,,5f317f269c42ef04587aa7a0,2024-02-22_04h21.57.787,kallum_motion_pilot,2023.2.2,Win32,10.03613007,5f317f269c42ef04587aa7a0,65d6bb0e977760de756971f7,65d6bdbcdd292789db81fbaa,0.027,0.027,0,75,75,129,1,fiveseven,,,,,,,,,,,,,,,,,,,,,,,,,,,,,,,,,,,,,,,,,,,,,,,,,,,,,,,,,,,,,,,,,,,,,,,,,,,,,,,,,,,,,,,,,,,,,,,,,,,,,,,,,,,,,,,,,,,,,,,,,,,,,,,,,,,,,,,,,
,,5f317f269c42ef04587aa7a0,2024-02-22_04h21.57.787,kallum_motion_pilot,2023.2.2,Win32,10.03613007,5f317f269c42ef04587aa7a0,65d6bb0e977760de756971f7,65d6bdbcdd292789db81fbaa,0.027,0.027,0,76,76,82,1,sixfive,,,,,,,,,,,,,,,,,,,,,,,,,,,,,,,,,,,,,,,,,,,,,,,,,,,,,,,,,,,,,,,,,,,,,,,,,,,,,,,,,,,,,,,,,,,,,,,,,,,,,,,,,,,,,,,,,,,,,,,,,,,,,,,,,,,,,,,,,
,,5f317f269c42ef04587aa7a0,2024-02-22_04h21.57.787,kallum_motion_pilot,2023.2.2,Win32,10.03613007,5f317f269c42ef04587aa7a0,65d6bb0e977760de756971f7,65d6bdbcdd292789db81fbaa,0.027,0.027,0,77,77,136,1,fivesix,,,,,,,,,,,,,,,,,,,,,,,,,,,,,,,,,,,,,,,,,,,,,,,,,,,,,,,,,,,,,,,,,,,,,,,,,,,,,,,,,,,,,,,,,,,,,,,,,,,,,,,,,,,,,,,,,,,,,,,,,,,,,,,,,,,,,,,,,
,,5f317f269c42ef04587aa7a0,2024-02-22_04h21.57.787,kallum_motion_pilot,2023.2.2,Win32,10.03613007,5f317f269c42ef04587aa7a0,65d6bb0e977760de756971f7,65d6bdbcdd292789db81fbaa,0.028,0.028,0,78,78,74,1,twoone,,,,,,,,,,,,,,,,,,,,,,,,,,,,,,,,,,,,,,,,,,,,,,,,,,,,,,,,,,,,,,,,,,,,,,,,,,,,,,,,,,,,,,,,,,,,,,,,,,,,,,,,,,,,,,,,,,,,,,,,,,,,,,,,,,,,,,,,,
,,5f317f269c42ef04587aa7a0,2024-02-22_04h21.57.787,kallum_motion_pilot,2023.2.2,Win32,10.03613007,5f317f269c42ef04587aa7a0,65d6bb0e977760de756971f7,65d6bdbcdd292789db81fbaa,0.028,0.028,0,79,79,76,1,threeone,,,,,,,,,,,,,,,,,,,,,,,,,,,,,,,,,,,,,,,,,,,,,,,,,,,,,,,,,,,,,,,,,,,,,,,,,,,,,,,,,,,,,,,,,,,,,,,,,,,,,,,,,,,,,,,,,,,,,,,,,,,,,,,,,,,,,,,,,
,,5f317f269c42ef04587aa7a0,2024-02-22_04h21.57.787,kallum_motion_pilot,2023.2.2,Win32,10.03613007,5f317f269c42ef04587aa7a0,65d6bb0e977760de756971f7,65d6bdbcdd292789db81fbaa,0.028,0.028,0,80,80,142,1,eightsix,,,,,,,,,,,,,,,,,,,,,,,,,,,,,,,,,,,,,,,,,,,,,,,,,,,,,,,,,,,,,,,,,,,,,,,,,,,,,,,,,,,,,,,,,,,,,,,,,,,,,,,,,,,,,,,,,,,,,,,,,,,,,,,,,,,,,,,,,
,,5f317f269c42ef04587aa7a0,2024-02-22_04h21.57.787,kallum_motion_pilot,2023.2.2,Win32,10.03613007,5f317f269c42ef04587aa7a0,65d6bb0e977760de756971f7,65d6bdbcdd292789db81fbaa,0.028,0.028,0,81,81,160,1,fivesix,,,,,,,,,,,,,,,,,,,,,,,,,,,,,,,,,,,,,,,,,,,,,,,,,,,,,,,,,,,,,,,,,,,,,,,,,,,,,,,,,,,,,,,,,,,,,,,,,,,,,,,,,,,,,,,,,,,,,,,,,,,,,,,,,,,,,,,,,
,,5f317f269c42ef04587aa7a0,2024-02-22_04h21.57.787,kallum_motion_pilot,2023.2.2,Win32,10.03613007,5f317f269c42ef04587aa7a0,65d6bb0e977760de756971f7,65d6bdbcdd292789db81fbaa,0.028,0.028,0,82,82,47,1,fourthree,,,,,,,,,,,,,,,,,,,,,,,,,,,,,,,,,,,,,,,,,,,,,,,,,,,,,,,,,,,,,,,,,,,,,,,,,,,,,,,,,,,,,,,,,,,,,,,,,,,,,,,,,,,,,,,,,,,,,,,,,,,,,,,,,,,,,,,,,
,,5f317f269c42ef04587aa7a0,2024-02-22_04h21.57.787,kallum_motion_pilot,2023.2.2,Win32,10.03613007,5f317f269c42ef04587aa7a0,65d6bb0e977760de756971f7,65d6bdbcdd292789db81fbaa,0.028,0.028,0,83,83,157,1,seveneight,,,,,,,,,,,,,,,,,,,,,,,,,,,,,,,,,,,,,,,,,,,,,,,,,,,,,,,,,,,,,,,,,,,,,,,,,,,,,,,,,,,,,,,,,,,,,,,,,,,,,,,,,,,,,,,,,,,,,,,,,,,,,,,,,,,,,,,,,
,,5f317f269c42ef04587aa7a0,2024-02-22_04h21.57.787,kallum_motion_pilot,2023.2.2,Win32,10.03613007,5f317f269c42ef04587aa7a0,65d6bb0e977760de756971f7,65d6bdbcdd292789db81fbaa,0.028,0.028,0,84,84,31,1,fourthree,,,,,,,,,,,,,,,,,,,,,,,,,,,,,,,,,,,,,,,,,,,,,,,,,,,,,,,,,,,,,,,,,,,,,,,,,,,,,,,,,,,,,,,,,,,,,,,,,,,,,,,,,,,,,,,,,,,,,,,,,,,,,,,,,,,,,,,,,
,,5f317f269c42ef04587aa7a0,2024-02-22_04h21.57.787,kallum_motion_pilot,2023.2.2,Win32,10.03613007,5f317f269c42ef04587aa7a0,65d6bb0e977760de756971f7,65d6bdbcdd292789db81fbaa,0.028,0.028,0,85,85,154,1,sixfive,,,,,,,,,,,,,,,,,,,,,,,,,,,,,,,,,,,,,,,,,,,,,,,,,,,,,,,,,,,,,,,,,,,,,,,,,,,,,,,,,,,,,,,,,,,,,,,,,,,,,,,,,,,,,,,,,,,,,,,,,,,,,,,,,,,,,,,,,
,,5f317f269c42ef04587aa7a0,2024-02-22_04h21.57.787,kallum_motion_pilot,2023.2.2,Win32,10.03613007,5f317f269c42ef04587aa7a0,65d6bb0e977760de756971f7,65d6bdbcdd292789db81fbaa,0.028,0.028,0,86,86,20,1,threeone,,,,,,,,,,,,,,,,,,,,,,,,,,,,,,,,,,,,,,,,,,,,,,,,,,,,,,,,,,,,,,,,,,,,,,,,,,,,,,,,,,,,,,,,,,,,,,,,,,,,,,,,,,,,,,,,,,,,,,,,,,,,,,,,,,,,,,,,,
,,5f317f269c42ef04587aa7a0,2024-02-22_04h21.57.787,kallum_motion_pilot,2023.2.2,Win32,10.03613007,5f317f269c42ef04587aa7a0,65d6bb0e977760de756971f7,65d6bdbcdd292789db81fbaa,0.028,0.028,0,87,87,2,1,twoone,,,,,,,,,,,,,,,,,,,,,,,,,,,,,,,,,,,,,,,,,,,,,,,,,,,,,,,,,,,,,,,,,,,,,,,,,,,,,,,,,,,,,,,,,,,,,,,,,,,,,,,,,,,,,,,,,,,,,,,,,,,,,,,,,,,,,,,,,
,,5f317f269c42ef04587aa7a0,2024-02-22_04h21.57.787,kallum_motion_pilot,2023.2.2,Win32,10.03613007,5f317f269c42ef04587aa7a0,65d6bb0e977760de756971f7,65d6bdbcdd292789db81fbaa,0.028,0.028,0,88,88,26,1,twoone,,,,,,,,,,,,,,,,,,,,,,,,,,,,,,,,,,,,,,,,,,,,,,,,,,,,,,,,,,,,,,,,,,,,,,,,,,,,,,,,,,,,,,,,,,,,,,,,,,,,,,,,,,,,,,,,,,,,,,,,,,,,,,,,,,,,,,,,,
,,5f317f269c42ef04587aa7a0,2024-02-22_04h21.57.787,kallum_motion_pilot,2023.2.2,Win32,10.03613007,5f317f269c42ef04587aa7a0,65d6bb0e977760de756971f7,65d6bdbcdd292789db81fbaa,0.028,0.028,0,89,89,28,1,threeone,,,,,,,,,,,,,,,,,,,,,,,,,,,,,,,,,,,,,,,,,,,,,,,,,,,,,,,,,,,,,,,,,,,,,,,,,,,,,,,,,,,,,,,,,,,,,,,,,,,,,,,,,,,,,,,,,,,,,,,,,,,,,,,,,,,,,,,,,
,,5f317f269c42ef04587aa7a0,2024-02-22_04h21.57.787,kallum_motion_pilot,2023.2.2,Win32,10.03613007,5f317f269c42ef04587aa7a0,65d6bb0e977760de756971f7,65d6bdbcdd292789db81fbaa,0.029,0.029,0,90,90,27,1,twofour,,,,,,,,,,,,,,,,,,,,,,,,,,,,,,,,,,,,,,,,,,,,,,,,,,,,,,,,,,,,,,,,,,,,,,,,,,,,,,,,,,,,,,,,,,,,,,,,,,,,,,,,,,,,,,,,,,,,,,,,,,,,,,,,,,,,,,,,,
,,5f317f269c42ef04587aa7a0,2024-02-22_04h21.57.787,kallum_motion_pilot,2023.2.2,Win32,10.03613007,5f317f269c42ef04587aa7a0,65d6bb0e977760de756971f7,65d6bdbcdd292789db81fbaa,0.029,0.029,0,91,91,6,1,fourtwo,,,,,,,,,,,,,,,,,,,,,,,,,,,,,,,,,,,,,,,,,,,,,,,,,,,,,,,,,,,,,,,,,,,,,,,,,,,,,,,,,,,,,,,,,,,,,,,,,,,,,,,,,,,,,,,,,,,,,,,,,,,,,,,,,,,,,,,,,
,,5f317f269c42ef04587aa7a0,2024-02-22_04h21.57.787,kallum_motion_pilot,2023.2.2,Win32,10.03613007,5f317f269c42ef04587aa7a0,65d6bb0e977760de756971f7,65d6bdbcdd292789db81fbaa,0.029,0.029,0,92,92,130,1,sixfive,,,,,,,,,,,,,,,,,,,,,,,,,,,,,,,,,,,,,,,,,,,,,,,,,,,,,,,,,,,,,,,,,,,,,,,,,,,,,,,,,,,,,,,,,,,,,,,,,,,,,,,,,,,,,,,,,,,,,,,,,,,,,,,,,,,,,,,,,
,,5f317f269c42ef04587aa7a0,2024-02-22_04h21.57.787,kallum_motion_pilot,2023.2.2,Win32,10.03613007,5f317f269c42ef04587aa7a0,65d6bb0e977760de756971f7,65d6bdbcdd292789db81fbaa,0.029,0.029,0,93,93,15,1,fourthree,,,,,,,,,,,,,,,,,,,,,,,,,,,,,,,,,,,,,,,,,,,,,,,,,,,,,,,,,,,,,,,,,,,,,,,,,,,,,,,,,,,,,,,,,,,,,,,,,,,,,,,,,,,,,,,,,,,,,,,,,,,,,,,,,,,,,,,,,
,,5f317f269c42ef04587aa7a0,2024-02-22_04h21.57.787,kallum_motion_pilot,2023.2.2,Win32,10.03613007,5f317f269c42ef04587aa7a0,65d6bb0e977760de756971f7,65d6bdbcdd292789db81fbaa,0.029,0.029,0,94,94,62,1,fourtwo,,,,,,,,,,,,,,,,,,,,,,,,,,,,,,,,,,,,,,,,,,,,,,,,,,,,,,,,,,,,,,,,,,,,,,,,,,,,,,,,,,,,,,,,,,,,,,,,,,,,,,,,,,,,,,,,,,,,,,,,,,,,,,,,,,,,,,,,,
,,5f317f269c42ef04587aa7a0,2024-02-22_04h21.57.787,kallum_motion_pilot,2023.2.2,Win32,10.03613007,5f317f269c42ef04587aa7a0,65d6bb0e977760de756971f7,65d6bdbcdd292789db81fbaa,0.029,0.029,0,95,95,21,1,threefour,,,,,,,,,,,,,,,,,,,,,,,,,,,,,,,,,,,,,,,,,,,,,,,,,,,,,,,,,,,,,,,,,,,,,,,,,,,,,,,,,,,,,,,,,,,,,,,,,,,,,,,,,,,,,,,,,,,,,,,,,,,,,,,,,,,,,,,,,
,,5f317f269c42ef04587aa7a0,2024-02-22_04h21.57.787,kallum_motion_pilot,2023.2.2,Win32,10.03613007,5f317f269c42ef04587aa7a0,65d6bb0e977760de756971f7,65d6bdbcdd292789db81fbaa,0.029,0.029,0,96,96,35,1,twofour,,,,,,,,,,,,,,,,,,,,,,,,,,,,,,,,,,,,,,,,,,,,,,,,,,,,,,,,,,,,,,,,,,,,,,,,,,,,,,,,,,,,,,,,,,,,,,,,,,,,,,,,,,,,,,,,,,,,,,,,,,,,,,,,,,,,,,,,,
,,5f317f269c42ef04587aa7a0,2024-02-22_04h21.57.787,kallum_motion_pilot,2023.2.2,Win32,10.03613007,5f317f269c42ef04587aa7a0,65d6bb0e977760de756971f7,65d6bdbcdd292789db81fbaa,0.029,0.029,0,97,97,54,1,fourtwo,,,,,,,,,,,,,,,,,,,,,,,,,,,,,,,,,,,,,,,,,,,,,,,,,,,,,,,,,,,,,,,,,,,,,,,,,,,,,,,,,,,,,,,,,,,,,,,,,,,,,,,,,,,,,,,,,,,,,,,,,,,,,,,,,,,,,,,,,
,,5f317f269c42ef04587aa7a0,2024-02-22_04h21.57.787,kallum_motion_pilot,2023.2.2,Win32,10.03613007,5f317f269c42ef04587aa7a0,65d6bb0e977760de756971f7,65d6bdbcdd292789db81fbaa,0.029,0.029,0,98,98,107,1,sixeight,,,,,,,,,,,,,,,,,,,,,,,,,,,,,,,,,,,,,,,,,,,,,,,,,,,,,,,,,,,,,,,,,,,,,,,,,,,,,,,,,,,,,,,,,,,,,,,,,,,,,,,,,,,,,,,,,,,,,,,,,,,,,,,,,,,,,,,,,
,,5f317f269c42ef04587aa7a0,2024-02-22_04h21.57.787,kallum_motion_pilot,2023.2.2,Win32,10.03613007,5f317f269c42ef04587aa7a0,65d6bb0e977760de756971f7,65d6bdbcdd292789db81fbaa,0.029,0.029,0,99,99,19,1,twofour,,,,,,,,,,,,,,,,,,,,,,,,,,,,,,,,,,,,,,,,,,,,,,,,,,,,,,,,,,,,,,,,,,,,,,,,,,,,,,,,,,,,,,,,,,,,,,,,,,,,,,,,,,,,,,,,,,,,,,,,,,,,,,,,,,,,,,,,,
,,5f317f269c42ef04587aa7a0,2024-02-22_04h21.57.787,kallum_motion_pilot,2023.2.2,Win32,10.03613007,5f317f269c42ef04587aa7a0,65d6bb0e977760de756971f7,65d6bdbcdd292789db81fbaa,0.029,0.029,0,100,100,9,1,onethree,,,,,,,,,,,,,,,,,,,,,,,,,,,,,,,,,,,,,,,,,,,,,,,,,,,,,,,,,,,,,,,,,,,,,,,,,,,,,,,,,,,,,,,,,,,,,,,,,,,,,,,,,,,,,,,,,,,,,,,,,,,,,,,,,,,,,,,,,
,,5f317f269c42ef04587aa7a0,2024-02-22_04h21.57.787,kallum_motion_pilot,2023.2.2,Win32,10.03613007,5f317f269c42ef04587aa7a0,65d6bb0e977760de756971f7,65d6bdbcdd292789db81fbaa,0.029,0.029,0,101,101,25,1,onethree,,,,,,,,,,,,,,,,,,,,,,,,,,,,,,,,,,,,,,,,,,,,,,,,,,,,,,,,,,,,,,,,,,,,,,,,,,,,,,,,,,,,,,,,,,,,,,,,,,,,,,,,,,,,,,,,,,,,,,,,,,,,,,,,,,,,,,,,,
,,5f317f269c42ef04587aa7a0,2024-02-22_04h21.57.787,kallum_motion_pilot,2023.2.2,Win32,10.03613007,5f317f269c42ef04587aa7a0,65d6bb0e977760de756971f7,65d6bdbcdd292789db81fbaa,0.029,0.029,0,102,102,121,1,fiveseven,,,,,,,,,,,,,,,,,,,,,,,,,,,,,,,,,,,,,,,,,,,,,,,,,,,,,,,,,,,,,,,,,,,,,,,,,,,,,,,,,,,,,,,,,,,,,,,,,,,,,,,,,,,,,,,,,,,,,,,,,,,,,,,,,,,,,,,,,
,,5f317f269c42ef04587aa7a0,2024-02-22_04h21.57.787,kallum_motion_pilot,2023.2.2,Win32,10.03613007,5f317f269c42ef04587aa7a0,65d6bb0e977760de756971f7,65d6bdbcdd292789db81fbaa,0.029,0.029,0,103,103,1,1,onethree,,,,,,,,,,,,,,,,,,,,,,,,,,,,,,,,,,,,,,,,,,,,,,,,,,,,,,,,,,,,,,,,,,,,,,,,,,,,,,,,,,,,,,,,,,,,,,,,,,,,,,,,,,,,,,,,,,,,,,,,,,,,,,,,,,,,,,,,,
,,5f317f269c42ef04587aa7a0,2024-02-22_04h21.57.787,kallum_motion_pilot,2023.2.2,Win32,10.03613007,5f317f269c42ef04587aa7a0,65d6bb0e977760de756971f7,65d6bdbcdd292789db81fbaa,0.03,0.03,0,104,104,92,1,sevenfive,,,,,,,,,,,,,,,,,,,,,,,,,,,,,,,,,,,,,,,,,,,,,,,,,,,,,,,,,,,,,,,,,,,,,,,,,,,,,,,,,,,,,,,,,,,,,,,,,,,,,,,,,,,,,,,,,,,,,,,,,,,,,,,,,,,,,,,,,
,,5f317f269c42ef04587aa7a0,2024-02-22_04h21.57.787,kallum_motion_pilot,2023.2.2,Win32,10.03613007,5f317f269c42ef04587aa7a0,65d6bb0e977760de756971f7,65d6bdbcdd292789db81fbaa,0.03,0.03,0,105,105,46,1,fourtwo,,,,,,,,,,,,,,,,,,,,,,,,,,,,,,,,,,,,,,,,,,,,,,,,,,,,,,,,,,,,,,,,,,,,,,,,,,,,,,,,,,,,,,,,,,,,,,,,,,,,,,,,,,,,,,,,,,,,,,,,,,,,,,,,,,,,,,,,,
,,5f317f269c42ef04587aa7a0,2024-02-22_04h21.57.787,kallum_motion_pilot,2023.2.2,Win32,10.03613007,5f317f269c42ef04587aa7a0,65d6bb0e977760de756971f7,65d6bdbcdd292789db81fbaa,0.03,0.03,0,106,106,39,1,fourthree,,,,,,,,,,,,,,,,,,,,,,,,,,,,,,,,,,,,,,,,,,,,,,,,,,,,,,,,,,,,,,,,,,,,,,,,,,,,,,,,,,,,,,,,,,,,,,,,,,,,,,,,,,,,,,,,,,,,,,,,,,,,,,,,,,,,,,,,,
,,5f317f269c42ef04587aa7a0,2024-02-22_04h21.57.787,kallum_motion_pilot,2023.2.2,Win32,10.03613007,5f317f269c42ef04587aa7a0,65d6bb0e977760de756971f7,65d6bdbcdd292789db81fbaa,0.03,0.03,0,107,107,124,1,sevenfive,,,,,,,,,,,,,,,,,,,,,,,,,,,,,,,,,,,,,,,,,,,,,,,,,,,,,,,,,,,,,,,,,,,,,,,,,,,,,,,,,,,,,,,,,,,,,,,,,,,,,,,,,,,,,,,,,,,,,,,,,,,,,,,,,,,,,,,,,
,,5f317f269c42ef04587aa7a0,2024-02-22_04h21.57.787,kallum_motion_pilot,2023.2.2,Win32,10.03613007,5f317f269c42ef04587aa7a0,65d6bb0e977760de756971f7,65d6bdbcdd292789db81fbaa,0.03,0.03,0,108,108,141,1,seveneight,,,,,,,,,,,,,,,,,,,,,,,,,,,,,,,,,,,,,,,,,,,,,,,,,,,,,,,,,,,,,,,,,,,,,,,,,,,,,,,,,,,,,,,,,,,,,,,,,,,,,,,,,,,,,,,,,,,,,,,,,,,,,,,,,,,,,,,,,
,,5f317f269c42ef04587aa7a0,2024-02-22_04h21.57.787,kallum_motion_pilot,2023.2.2,Win32,10.03613007,5f317f269c42ef04587aa7a0,65d6bb0e977760de756971f7,65d6bdbcdd292789db81fbaa,0.03,0.03,0,109,109,147,1,sixeight,,,,,,,,,,,,,,,,,,,,,,,,,,,,,,,,,,,,,,,,,,,,,,,,,,,,,,,,,,,,,,,,,,,,,,,,,,,,,,,,,,,,,,,,,,,,,,,,,,,,,,,,,,,,,,,,,,,,,,,,,,,,,,,,,,,,,,,,,
,,5f317f269c42ef04587aa7a0,2024-02-22_04h21.57.787,kallum_motion_pilot,2023.2.2,Win32,10.03613007,5f317f269c42ef04587aa7a0,65d6bb0e977760de756971f7,65d6bdbcdd292789db81fbaa,0.03,0.03,0,110,110,132,1,sevenfive,,,,,,,,,,,,,,,,,,,,,,,,,,,,,,,,,,,,,,,,,,,,,,,,,,,,,,,,,,,,,,,,,,,,,,,,,,,,,,,,,,,,,,,,,,,,,,,,,,,,,,,,,,,,,,,,,,,,,,,,,,,,,,,,,,,,,,,,,
,,5f317f269c42ef04587aa7a0,2024-02-22_04h21.57.787,kallum_motion_pilot,2023.2.2,Win32,10.03613007,5f317f269c42ef04587aa7a0,65d6bb0e977760de756971f7,65d6bdbcdd292789db81fbaa,0.03,0.03,0,111,111,97,1,fiveseven,,,,,,,,,,,,,,,,,,,,,,,,,,,,,,,,,,,,,,,,,,,,,,,,,,,,,,,,,,,,,,,,,,,,,,,,,,,,,,,,,,,,,,,,,,,,,,,,,,,,,,,,,,,,,,,,,,,,,,,,,,,,,,,,,,,,,,,,,
,,5f317f269c42ef04587aa7a0,2024-02-22_04h21.57.787,kallum_motion_pilot,2023.2.2,Win32,10.03613007,5f317f269c42ef04587aa7a0,65d6bb0e977760de756971f7,65d6bdbcdd292789db81fbaa,0.03,0.03,0,112,112,122,1,sixfive,,,,,,,,,,,,,,,,,,,,,,,,,,,,,,,,,,,,,,,,,,,,,,,,,,,,,,,,,,,,,,,,,,,,,,,,,,,,,,,,,,,,,,,,,,,,,,,,,,,,,,,,,,,,,,,,,,,,,,,,,,,,,,,,,,,,,,,,,
,,5f317f269c42ef04587aa7a0,2024-02-22_04h21.57.787,kallum_motion_pilot,2023.2.2,Win32,10.03613007,5f317f269c42ef04587aa7a0,65d6bb0e977760de756971f7,65d6bdbcdd292789db81fbaa,0.03,0.03,0,113,113,148,1,sevenfive,,,,,,,,,,,,,,,,,,,,,,,,,,,,,,,,,,,,,,,,,,,,,,,,,,,,,,,,,,,,,,,,,,,,,,,,,,,,,,,,,,,,,,,,,,,,,,,,,,,,,,,,,,,,,,,,,,,,,,,,,,,,,,,,,,,,,,,,,
,,5f317f269c42ef04587aa7a0,2024-02-22_04h21.57.787,kallum_motion_pilot,2023.2.2,Win32,10.03613007,5f317f269c42ef04587aa7a0,65d6bb0e977760de756971f7,65d6bdbcdd292789db81fbaa,0.03,0.03,0,114,114,33,1,onethree,,,,,,,,,,,,,,,,,,,,,,,,,,,,,,,,,,,,,,,,,,,,,,,,,,,,,,,,,,,,,,,,,,,,,,,,,,,,,,,,,,,,,,,,,,,,,,,,,,,,,,,,,,,,,,,,,,,,,,,,,,,,,,,,,,,,,,,,,
,,5f317f269c42ef04587aa7a0,2024-02-22_04h21.57.787,kallum_motion_pilot,2023.2.2,Win32,10.03613007,5f317f269c42ef04587aa7a0,65d6bb0e977760de756971f7,65d6bdbcdd292789db81fbaa,0.03,0.03,0,115,115,43,1,twofour,,,,,,,,,,,,,,,,,,,,,,,,,,,,,,,,,,,,,,,,,,,,,,,,,,,,,,,,,,,,,,,,,,,,,,,,,,,,,,,,,,,,,,,,,,,,,,,,,,,,,,,,,,,,,,,,,,,,,,,,,,,,,,,,,,,,,,,,,
,,5f317f269c42ef04587aa7a0,2024-02-22_04h21.57.787,kallum_motion_pilot,2023.2.2,Win32,10.03613007,5f317f269c42ef04587aa7a0,65d6bb0e977760de756971f7,65d6bdbcdd292789db81fbaa,0.03,0.03,0,116,116,75,1,twofour,,,,,,,,,,,,,,,,,,,,,,,,,,,,,,,,,,,,,,,,,,,,,,,,,,,,,,,,,,,,,,,,,,,,,,,,,,,,,,,,,,,,,,,,,,,,,,,,,,,,,,,,,,,,,,,,,,,,,,,,,,,,,,,,,,,,,,,,,
,,5f317f269c42ef04587aa7a0,2024-02-22_04h21.57.787,kallum_motion_pilot,2023.2.2,Win32,10.03613007,5f317f269c42ef04587aa7a0,65d6bb0e977760de756971f7,65d6bdbcdd292789db81fbaa,0.031,0.031,0,117,117,7,1,fourthree,,,,,,,,,,,,,,,,,,,,,,,,,,,,,,,,,,,,,,,,,,,,,,,,,,,,,,,,,,,,,,,,,,,,,,,,,,,,,,,,,,,,,,,,,,,,,,,,,,,,,,,,,,,,,,,,,,,,,,,,,,,,,,,,,,,,,,,,,
,,5f317f269c42ef04587aa7a0,2024-02-22_04h21.57.787,kallum_motion_pilot,2023.2.2,Win32,10.03613007,5f317f269c42ef04587aa7a0,65d6bb0e977760de756971f7,65d6bdbcdd292789db81fbaa,0.031,0.031,0,118,118,71,1,fourthree,,,,,,,,,,,,,,,,,,,,,,,,,,,,,,,,,,,,,,,,,,,,,,,,,,,,,,,,,,,,,,,,,,,,,,,,,,,,,,,,,,,,,,,,,,,,,,,,,,,,,,,,,,,,,,,,,,,,,,,,,,,,,,,,,,,,,,,,,
,,5f317f269c42ef04587aa7a0,2024-02-22_04h21.57.787,kallum_motion_pilot,2023.2.2,Win32,10.03613007,5f317f269c42ef04587aa7a0,65d6bb0e977760de756971f7,65d6bdbcdd292789db81fbaa,0.031,0.031,0,119,119,90,1,sixfive,,,,,,,,,,,,,,,,,,,,,,,,,,,,,,,,,,,,,,,,,,,,,,,,,,,,,,,,,,,,,,,,,,,,,,,,,,,,,,,,,,,,,,,,,,,,,,,,,,,,,,,,,,,,,,,,,,,,,,,,,,,,,,,,,,,,,,,,,
,,5f317f269c42ef04587aa7a0,2024-02-22_04h21.57.787,kallum_motion_pilot,2023.2.2,Win32,10.03613007,5f317f269c42ef04587aa7a0,65d6bb0e977760de756971f7,65d6bdbcdd292789db81fbaa,0.031,0.031,0,120,120,88,1,fivesix,,,,,,,,,,,,,,,,,,,,,,,,,,,,,,,,,,,,,,,,,,,,,,,,,,,,,,,,,,,,,,,,,,,,,,,,,,,,,,,,,,,,,,,,,,,,,,,,,,,,,,,,,,,,,,,,,,,,,,,,,,,,,,,,,,,,,,,,,
,,5f317f269c42ef04587aa7a0,2024-02-22_04h21.57.787,kallum_motion_pilot,2023.2.2,Win32,10.03613007,5f317f269c42ef04587aa7a0,65d6bb0e977760de756971f7,65d6bdbcdd292789db81fbaa,0.031,0.031,0,121,121,23,1,fourthree,,,,,,,,,,,,,,,,,,,,,,,,,,,,,,,,,,,,,,,,,,,,,,,,,,,,,,,,,,,,,,,,,,,,,,,,,,,,,,,,,,,,,,,,,,,,,,,,,,,,,,,,,,,,,,,,,,,,,,,,,,,,,,,,,,,,,,,,,
,,5f317f269c42ef04587aa7a0,2024-02-22_04h21.57.787,kallum_motion_pilot,2023.2.2,Win32,10.03613007,5f317f269c42ef04587aa7a0,65d6bb0e977760de756971f7,65d6bdbcdd292789db81fbaa,0.031,0.031,0,122,122,55,1,fourthree,,,,,,,,,,,,,,,,,,,,,,,,,,,,,,,,,,,,,,,,,,,,,,,,,,,,,,,,,,,,,,,,,,,,,,,,,,,,,,,,,,,,,,,,,,,,,,,,,,,,,,,,,,,,,,,,,,,,,,,,,,,,,,,,,,,,,,,,,
,,5f317f269c42ef04587aa7a0,2024-02-22_04h21.57.787,kallum_motion_pilot,2023.2.2,Win32,10.03613007,5f317f269c42ef04587aa7a0,65d6bb0e977760de756971f7,65d6bdbcdd292789db81fbaa,0.031,0.031,0,123,123,11,1,twofour,,,,,,,,,,,,,,,,,,,,,,,,,,,,,,,,,,,,,,,,,,,,,,,,,,,,,,,,,,,,,,,,,,,,,,,,,,,,,,,,,,,,,,,,,,,,,,,,,,,,,,,,,,,,,,,,,,,,,,,,,,,,,,,,,,,,,,,,,
,,5f317f269c42ef04587aa7a0,2024-02-22_04h21.57.787,kallum_motion_pilot,2023.2.2,Win32,10.03613007,5f317f269c42ef04587aa7a0,65d6bb0e977760de756971f7,65d6bdbcdd292789db81fbaa,0.031,0.031,0,124,124,5,1,threefour,,,,,,,,,,,,,,,,,,,,,,,,,,,,,,,,,,,,,,,,,,,,,,,,,,,,,,,,,,,,,,,,,,,,,,,,,,,,,,,,,,,,,,,,,,,,,,,,,,,,,,,,,,,,,,,,,,,,,,,,,,,,,,,,,,,,,,,,,
,,5f317f269c42ef04587aa7a0,2024-02-22_04h21.57.787,kallum_motion_pilot,2023.2.2,Win32,10.03613007,5f317f269c42ef04587aa7a0,65d6bb0e977760de756971f7,65d6bdbcdd292789db81fbaa,0.031,0.031,0,125,125,67,1,twofour,,,,,,,,,,,,,,,,,,,,,,,,,,,,,,,,,,,,,,,,,,,,,,,,,,,,,,,,,,,,,,,,,,,,,,,,,,,,,,,,,,,,,,,,,,,,,,,,,,,,,,,,,,,,,,,,,,,,,,,,,,,,,,,,,,,,,,,,,
,,5f317f269c42ef04587aa7a0,2024-02-22_04h21.57.787,kallum_motion_pilot,2023.2.2,Win32,10.03613007,5f317f269c42ef04587aa7a0,65d6bb0e977760de756971f7,65d6bdbcdd292789db81fbaa,0.031,0.031,0,126,126,18,1,twoone,,,,,,,,,,,,,,,,,,,,,,,,,,,,,,,,,,,,,,,,,,,,,,,,,,,,,,,,,,,,,,,,,,,,,,,,,,,,,,,,,,,,,,,,,,,,,,,,,,,,,,,,,,,,,,,,,,,,,,,,,,,,,,,,,,,,,,,,,
,,5f317f269c42ef04587aa7a0,2024-02-22_04h21.57.787,kallum_motion_pilot,2023.2.2,Win32,10.03613007,5f317f269c42ef04587aa7a0,65d6bb0e977760de756971f7,65d6bdbcdd292789db81fbaa,0.031,0.031,0,127,127,3,1,twofour,,,,,,,,,,,,,,,,,,,,,,,,,,,,,,,,,,,,,,,,,,,,,,,,,,,,,,,,,,,,,,,,,,,,,,,,,,,,,,,,,,,,,,,,,,,,,,,,,,,,,,,,,,,,,,,,,,,,,,,,,,,,,,,,,,,,,,,,,
,,5f317f269c42ef04587aa7a0,2024-02-22_04h21.57.787,kallum_motion_pilot,2023.2.2,Win32,10.03613007,5f317f269c42ef04587aa7a0,65d6bb0e977760de756971f7,65d6bdbcdd292789db81fbaa,0.031,0.031,0,128,128,24,1,onetwo,,,,,,,,,,,,,,,,,,,,,,,,,,,,,,,,,,,,,,,,,,,,,,,,,,,,,,,,,,,,,,,,,,,,,,,,,,,,,,,,,,,,,,,,,,,,,,,,,,,,,,,,,,,,,,,,,,,,,,,,,,,,,,,,,,,,,,,,,
,,5f317f269c42ef04587aa7a0,2024-02-22_04h21.57.787,kallum_motion_pilot,2023.2.2,Win32,10.03613007,5f317f269c42ef04587aa7a0,65d6bb0e977760de756971f7,65d6bdbcdd292789db81fbaa,0.031,0.031,0,129,129,69,1,threefour,,,,,,,,,,,,,,,,,,,,,,,,,,,,,,,,,,,,,,,,,,,,,,,,,,,,,,,,,,,,,,,,,,,,,,,,,,,,,,,,,,,,,,,,,,,,,,,,,,,,,,,,,,,,,,,,,,,,,,,,,,,,,,,,,,,,,,,,,
,,5f317f269c42ef04587aa7a0,2024-02-22_04h21.57.787,kallum_motion_pilot,2023.2.2,Win32,10.03613007,5f317f269c42ef04587aa7a0,65d6bb0e977760de756971f7,65d6bdbcdd292789db81fbaa,0.032,0.032,0,130,130,135,1,eightseven,,,,,,,,,,,,,,,,,,,,,,,,,,,,,,,,,,,,,,,,,,,,,,,,,,,,,,,,,,,,,,,,,,,,,,,,,,,,,,,,,,,,,,,,,,,,,,,,,,,,,,,,,,,,,,,,,,,,,,,,,,,,,,,,,,,,,,,,,
,,5f317f269c42ef04587aa7a0,2024-02-22_04h21.57.787,kallum_motion_pilot,2023.2.2,Win32,10.03613007,5f317f269c42ef04587aa7a0,65d6bb0e977760de756971f7,65d6bdbcdd292789db81fbaa,0.032,0.032,0,131,131,134,1,eightsix,,,,,,,,,,,,,,,,,,,,,,,,,,,,,,,,,,,,,,,,,,,,,,,,,,,,,,,,,,,,,,,,,,,,,,,,,,,,,,,,,,,,,,,,,,,,,,,,,,,,,,,,,,,,,,,,,,,,,,,,,,,,,,,,,,,,,,,,,
,,5f317f269c42ef04587aa7a0,2024-02-22_04h21.57.787,kallum_motion_pilot,2023.2.2,Win32,10.03613007,5f317f269c42ef04587aa7a0,65d6bb0e977760de756971f7,65d6bdbcdd292789db81fbaa,0.032,0.032,0,132,132,48,1,onetwo,,,,,,,,,,,,,,,,,,,,,,,,,,,,,,,,,,,,,,,,,,,,,,,,,,,,,,,,,,,,,,,,,,,,,,,,,,,,,,,,,,,,,,,,,,,,,,,,,,,,,,,,,,,,,,,,,,,,,,,,,,,,,,,,,,,,,,,,,
,,5f317f269c42ef04587aa7a0,2024-02-22_04h21.57.787,kallum_motion_pilot,2023.2.2,Win32,10.03613007,5f317f269c42ef04587aa7a0,65d6bb0e977760de756971f7,65d6bdbcdd292789db81fbaa,0.032,0.032,0,133,133,123,1,sixeight,,,,,,,,,,,,,,,,,,,,,,,,,,,,,,,,,,,,,,,,,,,,,,,,,,,,,,,,,,,,,,,,,,,,,,,,,,,,,,,,,,,,,,,,,,,,,,,,,,,,,,,,,,,,,,,,,,,,,,,,,,,,,,,,,,,,,,,,,
,,5f317f269c42ef04587aa7a0,2024-02-22_04h21.57.787,kallum_motion_pilot,2023.2.2,Win32,10.03613007,5f317f269c42ef04587aa7a0,65d6bb0e977760de756971f7,65d6bdbcdd292789db81fbaa,0.032,0.032,0,134,134,84,1,sevenfive,,,,,,,,,,,,,,,,,,,,,,,,,,,,,,,,,,,,,,,,,,,,,,,,,,,,,,,,,,,,,,,,,,,,,,,,,,,,,,,,,,,,,,,,,,,,,,,,,,,,,,,,,,,,,,,,,,,,,,,,,,,,,,,,,,,,,,,,,
,,5f317f269c42ef04587aa7a0,2024-02-22_04h21.57.787,kallum_motion_pilot,2023.2.2,Win32,10.03613007,5f317f269c42ef04587aa7a0,65d6bb0e977760de756971f7,65d6bdbcdd292789db81fbaa,0.032,0.032,0,135,135,37,1,threefour,,,,,,,,,,,,,,,,,,,,,,,,,,,,,,,,,,,,,,,,,,,,,,,,,,,,,,,,,,,,,,,,,,,,,,,,,,,,,,,,,,,,,,,,,,,,,,,,,,,,,,,,,,,,,,,,,,,,,,,,,,,,,,,,,,,,,,,,,
,,5f317f269c42ef04587aa7a0,2024-02-22_04h21.57.787,kallum_motion_pilot,2023.2.2,Win32,10.03613007,5f317f269c42ef04587aa7a0,65d6bb0e977760de756971f7,65d6bdbcdd292789db81fbaa,0.032,0.032,0,136,136,8,1,onetwo,,,,,,,,,,,,,,,,,,,,,,,,,,,,,,,,,,,,,,,,,,,,,,,,,,,,,,,,,,,,,,,,,,,,,,,,,,,,,,,,,,,,,,,,,,,,,,,,,,,,,,,,,,,,,,,,,,,,,,,,,,,,,,,,,,,,,,,,,
,,5f317f269c42ef04587aa7a0,2024-02-22_04h21.57.787,kallum_motion_pilot,2023.2.2,Win32,10.03613007,5f317f269c42ef04587aa7a0,65d6bb0e977760de756971f7,65d6bdbcdd292789db81fbaa,0.032,0.032,0,137,137,51,1,twofour,,,,,,,,,,,,,,,,,,,,,,,,,,,,,,,,,,,,,,,,,,,,,,,,,,,,,,,,,,,,,,,,,,,,,,,,,,,,,,,,,,,,,,,,,,,,,,,,,,,,,,,,,,,,,,,,,,,,,,,,,,,,,,,,,,,,,,,,,
,,5f317f269c42ef04587aa7a0,2024-02-22_04h21.57.787,kallum_motion_pilot,2023.2.2,Win32,10.03613007,5f317f269c42ef04587aa7a0,65d6bb0e977760de756971f7,65d6bdbcdd292789db81fbaa,0.032,0.032,0,138,138,145,1,fiveseven,,,,,,,,,,,,,,,,,,,,,,,,,,,,,,,,,,,,,,,,,,,,,,,,,,,,,,,,,,,,,,,,,,,,,,,,,,,,,,,,,,,,,,,,,,,,,,,,,,,,,,,,,,,,,,,,,,,,,,,,,,,,,,,,,,,,,,,,,
,,5f317f269c42ef04587aa7a0,2024-02-22_04h21.57.787,kallum_motion_pilot,2023.2.2,Win32,10.03613007,5f317f269c42ef04587aa7a0,65d6bb0e977760de756971f7,65d6bdbcdd292789db81fbaa,0.033,0.033,0,139,139,30,1,fourtwo,,,,,,,,,,,,,,,,,,,,,,,,,,,,,,,,,,,,,,,,,,,,,,,,,,,,,,,,,,,,,,,,,,,,,,,,,,,,,,,,,,,,,,,,,,,,,,,,,,,,,,,,,,,,,,,,,,,,,,,,,,,,,,,,,,,,,,,,,
,,5f317f269c42ef04587aa7a0,2024-02-22_04h21.57.787,kallum_motion_pilot,2023.2.2,Win32,10.03613007,5f317f269c42ef04587aa7a0,65d6bb0e977760de756971f7,65d6bdbcdd292789db81fbaa,0.033,0.033,0,140,140,63,1,fourthree,,,,,,,,,,,,,,,,,,,,,,,,,,,,,,,,,,,,,,,,,,,,,,,,,,,,,,,,,,,,,,,,,,,,,,,,,,,,,,,,,,,,,,,,,,,,,,,,,,,,,,,,,,,,,,,,,,,,,,,,,,,,,,,,,,,,,,,,,
,,5f317f269c42ef04587aa7a0,2024-02-22_04h21.57.787,kallum_motion_pilot,2023.2.2,Win32,10.03613007,5f317f269c42ef04587aa7a0,65d6bb0e977760de756971f7,65d6bdbcdd292789db81fbaa,0.033,0.033,0,141,141,56,1,onetwo,,,,,,,,,,,,,,,,,,,,,,,,,,,,,,,,,,,,,,,,,,,,,,,,,,,,,,,,,,,,,,,,,,,,,,,,,,,,,,,,,,,,,,,,,,,,,,,,,,,,,,,,,,,,,,,,,,,,,,,,,,,,,,,,,,,,,,,,,
,,5f317f269c42ef04587aa7a0,2024-02-22_04h21.57.787,kallum_motion_pilot,2023.2.2,Win32,10.03613007,5f317f269c42ef04587aa7a0,65d6bb0e977760de756971f7,65d6bdbcdd292789db81fbaa,0.033,0.033,0,142,142,118,1,eightsix,,,,,,,,,,,,,,,,,,,,,,,,,,,,,,,,,,,,,,,,,,,,,,,,,,,,,,,,,,,,,,,,,,,,,,,,,,,,,,,,,,,,,,,,,,,,,,,,,,,,,,,,,,,,,,,,,,,,,,,,,,,,,,,,,,,,,,,,,
,,5f317f269c42ef04587aa7a0,2024-02-22_04h21.57.787,kallum_motion_pilot,2023.2.2,Win32,10.03613007,5f317f269c42ef04587aa7a0,65d6bb0e977760de756971f7,65d6bdbcdd292789db81fbaa,0.033,0.033,0,143,143,64,1,onetwo,,,,,,,,,,,,,,,,,,,,,,,,,,,,,,,,,,,,,,,,,,,,,,,,,,,,,,,,,,,,,,,,,,,,,,,,,,,,,,,,,,,,,,,,,,,,,,,,,,,,,,,,,,,,,,,,,,,,,,,,,,,,,,,,,,,,,,,,,
,,5f317f269c42ef04587aa7a0,2024-02-22_04h21.57.787,kallum_motion_pilot,2023.2.2,Win32,10.03613007,5f317f269c42ef04587aa7a0,65d6bb0e977760de756971f7,65d6bdbcdd292789db81fbaa,0.033,0.033,0,144,144,108,1,sevenfive,,,,,,,,,,,,,,,,,,,,,,,,,,,,,,,,,,,,,,,,,,,,,,,,,,,,,,,,,,,,,,,,,,,,,,,,,,,,,,,,,,,,,,,,,,,,,,,,,,,,,,,,,,,,,,,,,,,,,,,,,,,,,,,,,,,,,,,,,
,,5f317f269c42ef04587aa7a0,2024-02-22_04h21.57.787,kallum_motion_pilot,2023.2.2,Win32,10.03613007,5f317f269c42ef04587aa7a0,65d6bb0e977760de756971f7,65d6bdbcdd292789db81fbaa,0.033,0.033,0,145,145,105,1,fiveseven,,,,,,,,,,,,,,,,,,,,,,,,,,,,,,,,,,,,,,,,,,,,,,,,,,,,,,,,,,,,,,,,,,,,,,,,,,,,,,,,,,,,,,,,,,,,,,,,,,,,,,,,,,,,,,,,,,,,,,,,,,,,,,,,,,,,,,,,,
,,5f317f269c42ef04587aa7a0,2024-02-22_04h21.57.787,kallum_motion_pilot,2023.2.2,Win32,10.03613007,5f317f269c42ef04587aa7a0,65d6bb0e977760de756971f7,65d6bdbcdd292789db81fbaa,0.034,0.034,0,146,146,68,1,threeone,,,,,,,,,,,,,,,,,,,,,,,,,,,,,,,,,,,,,,,,,,,,,,,,,,,,,,,,,,,,,,,,,,,,,,,,,,,,,,,,,,,,,,,,,,,,,,,,,,,,,,,,,,,,,,,,,,,,,,,,,,,,,,,,,,,,,,,,,
,,5f317f269c42ef04587aa7a0,2024-02-22_04h21.57.787,kallum_motion_pilot,2023.2.2,Win32,10.03613007,5f317f269c42ef04587aa7a0,65d6bb0e977760de756971f7,65d6bdbcdd292789db81fbaa,0.034,0.034,0,147,147,155,1,sixeight,,,,,,,,,,,,,,,,,,,,,,,,,,,,,,,,,,,,,,,,,,,,,,,,,,,,,,,,,,,,,,,,,,,,,,,,,,,,,,,,,,,,,,,,,,,,,,,,,,,,,,,,,,,,,,,,,,,,,,,,,,,,,,,,,,,,,,,,,
,,5f317f269c42ef04587aa7a0,2024-02-22_04h21.57.787,kallum_motion_pilot,2023.2.2,Win32,10.03613007,5f317f269c42ef04587aa7a0,65d6bb0e977760de756971f7,65d6bdbcdd292789db81fbaa,0.034,0.034,0,148,148,150,1,eightsix,,,,,,,,,,,,,,,,,,,,,,,,,,,,,,,,,,,,,,,,,,,,,,,,,,,,,,,,,,,,,,,,,,,,,,,,,,,,,,,,,,,,,,,,,,,,,,,,,,,,,,,,,,,,,,,,,,,,,,,,,,,,,,,,,,,,,,,,,
,,5f317f269c42ef04587aa7a0,2024-02-22_04h21.57.787,kallum_motion_pilot,2023.2.2,Win32,10.03613007,5f317f269c42ef04587aa7a0,65d6bb0e977760de756971f7,65d6bdbcdd292789db81fbaa,0.034,0.034,0,149,149,83,1,sixeight,,,,,,,,,,,,,,,,,,,,,,,,,,,,,,,,,,,,,,,,,,,,,,,,,,,,,,,,,,,,,,,,,,,,,,,,,,,,,,,,,,,,,,,,,,,,,,,,,,,,,,,,,,,,,,,,,,,,,,,,,,,,,,,,,,,,,,,,,
,,5f317f269c42ef04587aa7a0,2024-02-22_04h21.57.787,kallum_motion_pilot,2023.2.2,Win32,10.03613007,5f317f269c42ef04587aa7a0,65d6bb0e977760de756971f7,65d6bdbcdd292789db81fbaa,0.034,0.034,0,150,150,125,1,seveneight,,,,,,,,,,,,,,,,,,,,,,,,,,,,,,,,,,,,,,,,,,,,,,,,,,,,,,,,,,,,,,,,,,,,,,,,,,,,,,,,,,,,,,,,,,,,,,,,,,,,,,,,,,,,,,,,,,,,,,,,,,,,,,,,,,,,,,,,,
,,5f317f269c42ef04587aa7a0,2024-02-22_04h21.57.787,kallum_motion_pilot,2023.2.2,Win32,10.03613007,5f317f269c42ef04587aa7a0,65d6bb0e977760de756971f7,65d6bdbcdd292789db81fbaa,0.034,0.034,0,151,151,36,1,threeone,,,,,,,,,,,,,,,,,,,,,,,,,,,,,,,,,,,,,,,,,,,,,,,,,,,,,,,,,,,,,,,,,,,,,,,,,,,,,,,,,,,,,,,,,,,,,,,,,,,,,,,,,,,,,,,,,,,,,,,,,,,,,,,,,,,,,,,,,
,,5f317f269c42ef04587aa7a0,2024-02-22_04h21.57.787,kallum_motion_pilot,2023.2.2,Win32,10.03613007,5f317f269c42ef04587aa7a0,65d6bb0e977760de756971f7,65d6bdbcdd292789db81fbaa,0.035,0.035,0,152,152,38,1,fourtwo,,,,,,,,,,,,,,,,,,,,,,,,,,,,,,,,,,,,,,,,,,,,,,,,,,,,,,,,,,,,,,,,,,,,,,,,,,,,,,,,,,,,,,,,,,,,,,,,,,,,,,,,,,,,,,,,,,,,,,,,,,,,,,,,,,,,,,,,,
,,5f317f269c42ef04587aa7a0,2024-02-22_04h21.57.787,kallum_motion_pilot,2023.2.2,Win32,10.03613007,5f317f269c42ef04587aa7a0,65d6bb0e977760de756971f7,65d6bdbcdd292789db81fbaa,0.035,0.035,0,153,153,99,1,sixeight,,,,,,,,,,,,,,,,,,,,,,,,,,,,,,,,,,,,,,,,,,,,,,,,,,,,,,,,,,,,,,,,,,,,,,,,,,,,,,,,,,,,,,,,,,,,,,,,,,,,,,,,,,,,,,,,,,,,,,,,,,,,,,,,,,,,,,,,,
,,5f317f269c42ef04587aa7a0,2024-02-22_04h21.57.787,kallum_motion_pilot,2023.2.2,Win32,10.03613007,5f317f269c42ef04587aa7a0,65d6bb0e977760de756971f7,65d6bdbcdd292789db81fbaa,0.035,0.035,0,154,154,158,1,eightsix,,,,,,,,,,,,,,,,,,,,,,,,,,,,,,,,,,,,,,,,,,,,,,,,,,,,,,,,,,,,,,,,,,,,,,,,,,,,,,,,,,,,,,,,,,,,,,,,,,,,,,,,,,,,,,,,,,,,,,,,,,,,,,,,,,,,,,,,,
,,5f317f269c42ef04587aa7a0,2024-02-22_04h21.57.787,kallum_motion_pilot,2023.2.2,Win32,10.03613007,5f317f269c42ef04587aa7a0,65d6bb0e977760de756971f7,65d6bdbcdd292789db81fbaa,0.035,0.035,0,155,155,81,1,fiveseven,,,,,,,,,,,,,,,,,,,,,,,,,,,,,,,,,,,,,,,,,,,,,,,,,,,,,,,,,,,,,,,,,,,,,,,,,,,,,,,,,,,,,,,,,,,,,,,,,,,,,,,,,,,,,,,,,,,,,,,,,,,,,,,,,,,,,,,,,
,,5f317f269c42ef04587aa7a0,2024-02-22_04h21.57.787,kallum_motion_pilot,2023.2.2,Win32,10.03613007,5f317f269c42ef04587aa7a0,65d6bb0e977760de756971f7,65d6bdbcdd292789db81fbaa,0.035,0.035,0,156,156,40,1,onetwo,,,,,,,,,,,,,,,,,,,,,,,,,,,,,,,,,,,,,,,,,,,,,,,,,,,,,,,,,,,,,,,,,,,,,,,,,,,,,,,,,,,,,,,,,,,,,,,,,,,,,,,,,,,,,,,,,,,,,,,,,,,,,,,,,,,,,,,,,
,,5f317f269c42ef04587aa7a0,2024-02-22_04h21.57.787,kallum_motion_pilot,2023.2.2,Win32,10.03613007,5f317f269c42ef04587aa7a0,65d6bb0e977760de756971f7,65d6bdbcdd292789db81fbaa,0.035,0.035,0,157,157,65,1,onethree,,,,,,,,,,,,,,,,,,,,,,,,,,,,,,,,,,,,,,,,,,,,,,,,,,,,,,,,,,,,,,,,,,,,,,,,,,,,,,,,,,,,,,,,,,,,,,,,,,,,,,,,,,,,,,,,,,,,,,,,,,,,,,,,,,,,,,,,,
,,5f317f269c42ef04587aa7a0,2024-02-22_04h21.57.787,kallum_motion_pilot,2023.2.2,Win32,10.03613007,5f317f269c42ef04587aa7a0,65d6bb0e977760de756971f7,65d6bdbcdd292789db81fbaa,0.035,0.035,0,158,158,138,1,sixfive,,,,,,,,,,,,,,,,,,,,,,,,,,,,,,,,,,,,,,,,,,,,,,,,,,,,,,,,,,,,,,,,,,,,,,,,,,,,,,,,,,,,,,,,,,,,,,,,,,,,,,,,,,,,,,,,,,,,,,,,,,,,,,,,,,,,,,,,,
,,5f317f269c42ef04587aa7a0,2024-02-22_04h21.57.787,kallum_motion_pilot,2023.2.2,Win32,10.03613007,5f317f269c42ef04587aa7a0,65d6bb0e977760de756971f7,65d6bdbcdd292789db81fbaa,0.035,0.035,0,159,159,119,1,eightseven,,,,,,,,,,,,,,,,,,,,,,,,,,,,,,,,,,,,,,,,,,,,,,,,,,,,,,,,,,,,,,,,,,,,,,,,,,,,,,,,,,,,,,,,,,,,,,,,,,,,,,,,,,,,,,,,,,,,,,,,,,,,,,,,,,,,,,,,,
,,5f317f269c42ef04587aa7a0,2024-02-22_04h21.57.787,kallum_motion_pilot,2023.2.2,Win32,10.03613007,5f317f269c42ef04587aa7a0,65d6bb0e977760de756971f7,65d6bdbcdd292789db81fbaa,0.035,0.035,0,160,160,70,1,fourtwo,,,,,,,,,,,,,,,,,,,,,,,,,,,,,,,,,,,,,,,,,,,,,,,,,,,,,,,,,,,,,,,,,,,,,,,,,,,,,,,,,,,,,,,,,,,,,,,,,,,,,,,,,,,,,,,,,,,,,,,,,,,,,,,,,,,,,,,,,
,,5f317f269c42ef04587aa7a0,2024-02-22_04h21.57.787,kallum_motion_pilot,2023.2.2,Win32,10.03613007,5f317f269c42ef04587aa7a0,65d6bb0e977760de756971f7,65d6bdbcdd292789db81fbaa,0.035,0.035,0,161,161,22,1,fourtwo,,,,,,,,,,,,,,,,,,,,,,,,,,,,,,,,,,,,,,,,,,,,,,,,,,,,,,,,,,,,,,,,,,,,,,,,,,,,,,,,,,,,,,,,,,,,,,,,,,,,,,,,,,,,,,,,,,,,,,,,,,,,,,,,,,,,,,,,,
,,5f317f269c42ef04587aa7a0,2024-02-22_04h21.57.787,kallum_motion_pilot,2023.2.2,Win32,10.03613007,5f317f269c42ef04587aa7a0,65d6bb0e977760de756971f7,65d6bdbcdd292789db81fbaa,0.036,0.036,1,0,162,157,1,seveneight,,,,,,,,,,,,,,,,,,,,,,,,,,,,,,,,,,,,,,,,,,,,,,,,,,,,,,,,,,,,,,,,,,,,,,,,,,,,,,,,,,,,,,,,,,,,,,,,,,,,,,,,,,,,,,,,,,,,,,,,,,,,,,,,,,,,,,,,,
,,5f317f269c42ef04587aa7a0,2024-02-22_04h21.57.787,kallum_motion_pilot,2023.2.2,Win32,10.03613007,5f317f269c42ef04587aa7a0,65d6bb0e977760de756971f7,65d6bdbcdd292789db81fbaa,0.036,0.036,1,1,163,129,1,fiveseven,,,,,,,,,,,,,,,,,,,,,,,,,,,,,,,,,,,,,,,,,,,,,,,,,,,,,,,,,,,,,,,,,,,,,,,,,,,,,,,,,,,,,,,,,,,,,,,,,,,,,,,,,,,,,,,,,,,,,,,,,,,,,,,,,,,,,,,,,
,,5f317f269c42ef04587aa7a0,2024-02-22_04h21.57.787,kallum_motion_pilot,2023.2.2,Win32,10.03613007,5f317f269c42ef04587aa7a0,65d6bb0e977760de756971f7,65d6bdbcdd292789db81fbaa,0.036,0.036,1,2,164,73,1,onethree,,,,,,,,,,,,,,,,,,,,,,,,,,,,,,,,,,,,,,,,,,,,,,,,,,,,,,,,,,,,,,,,,,,,,,,,,,,,,,,,,,,,,,,,,,,,,,,,,,,,,,,,,,,,,,,,,,,,,,,,,,,,,,,,,,,,,,,,,
,,5f317f269c42ef04587aa7a0,2024-02-22_04h21.57.787,kallum_motion_pilot,2023.2.2,Win32,10.03613007,5f317f269c42ef04587aa7a0,65d6bb0e977760de756971f7,65d6bdbcdd292789db81fbaa,0.036,0.036,1,3,165,11,1,twofour,,,,,,,,,,,,,,,,,,,,,,,,,,,,,,,,,,,,,,,,,,,,,,,,,,,,,,,,,,,,,,,,,,,,,,,,,,,,,,,,,,,,,,,,,,,,,,,,,,,,,,,,,,,,,,,,,,,,,,,,,,,,,,,,,,,,,,,,,
,,5f317f269c42ef04587aa7a0,2024-02-22_04h21.57.787,kallum_motion_pilot,2023.2.2,Win32,10.03613007,5f317f269c42ef04587aa7a0,65d6bb0e977760de756971f7,65d6bdbcdd292789db81fbaa,0.036,0.036,1,4,166,45,1,threefour,,,,,,,,,,,,,,,,,,,,,,,,,,,,,,,,,,,,,,,,,,,,,,,,,,,,,,,,,,,,,,,,,,,,,,,,,,,,,,,,,,,,,,,,,,,,,,,,,,,,,,,,,,,,,,,,,,,,,,,,,,,,,,,,,,,,,,,,,
,,5f317f269c42ef04587aa7a0,2024-02-22_04h21.57.787,kallum_motion_pilot,2023.2.2,Win32,10.03613007,5f317f269c42ef04587aa7a0,65d6bb0e977760de756971f7,65d6bdbcdd292789db81fbaa,0.036,0.036,1,5,167,67,1,twofour,,,,,,,,,,,,,,,,,,,,,,,,,,,,,,,,,,,,,,,,,,,,,,,,,,,,,,,,,,,,,,,,,,,,,,,,,,,,,,,,,,,,,,,,,,,,,,,,,,,,,,,,,,,,,,,,,,,,,,,,,,,,,,,,,,,,,,,,,
,,5f317f269c42ef04587aa7a0,2024-02-22_04h21.57.787,kallum_motion_pilot,2023.2.2,Win32,10.03613007,5f317f269c42ef04587aa7a0,65d6bb0e977760de756971f7,65d6bdbcdd292789db81fbaa,0.036,0.036,1,6,168,12,1,threeone,,,,,,,,,,,,,,,,,,,,,,,,,,,,,,,,,,,,,,,,,,,,,,,,,,,,,,,,,,,,,,,,,,,,,,,,,,,,,,,,,,,,,,,,,,,,,,,,,,,,,,,,,,,,,,,,,,,,,,,,,,,,,,,,,,,,,,,,,
,,5f317f269c42ef04587aa7a0,2024-02-22_04h21.57.787,kallum_motion_pilot,2023.2.2,Win32,10.03613007,5f317f269c42ef04587aa7a0,65d6bb0e977760de756971f7,65d6bdbcdd292789db81fbaa,0.036,0.036,1,7,169,130,1,sixfive,,,,,,,,,,,,,,,,,,,,,,,,,,,,,,,,,,,,,,,,,,,,,,,,,,,,,,,,,,,,,,,,,,,,,,,,,,,,,,,,,,,,,,,,,,,,,,,,,,,,,,,,,,,,,,,,,,,,,,,,,,,,,,,,,,,,,,,,,
,,5f317f269c42ef04587aa7a0,2024-02-22_04h21.57.787,kallum_motion_pilot,2023.2.2,Win32,10.03613007,5f317f269c42ef04587aa7a0,65d6bb0e977760de756971f7,65d6bdbcdd292789db81fbaa,0.036,0.036,1,8,170,105,1,fiveseven,,,,,,,,,,,,,,,,,,,,,,,,,,,,,,,,,,,,,,,,,,,,,,,,,,,,,,,,,,,,,,,,,,,,,,,,,,,,,,,,,,,,,,,,,,,,,,,,,,,,,,,,,,,,,,,,,,,,,,,,,,,,,,,,,,,,,,,,,
,,5f317f269c42ef04587aa7a0,2024-02-22_04h21.57.787,kallum_motion_pilot,2023.2.2,Win32,10.03613007,5f317f269c42ef04587aa7a0,65d6bb0e977760de756971f7,65d6bdbcdd292789db81fbaa,0.036,0.036,1,9,171,7,1,fourthree,,,,,,,,,,,,,,,,,,,,,,,,,,,,,,,,,,,,,,,,,,,,,,,,,,,,,,,,,,,,,,,,,,,,,,,,,,,,,,,,,,,,,,,,,,,,,,,,,,,,,,,,,,,,,,,,,,,,,,,,,,,,,,,,,,,,,,,,,
,,5f317f269c42ef04587aa7a0,2024-02-22_04h21.57.787,kallum_motion_pilot,2023.2.2,Win32,10.03613007,5f317f269c42ef04587aa7a0,65d6bb0e977760de756971f7,65d6bdbcdd292789db81fbaa,0.036,0.036,1,10,172,62,1,fourtwo,,,,,,,,,,,,,,,,,,,,,,,,,,,,,,,,,,,,,,,,,,,,,,,,,,,,,,,,,,,,,,,,,,,,,,,,,,,,,,,,,,,,,,,,,,,,,,,,,,,,,,,,,,,,,,,,,,,,,,,,,,,,,,,,,,,,,,,,,
,,5f317f269c42ef04587aa7a0,2024-02-22_04h21.57.787,kallum_motion_pilot,2023.2.2,Win32,10.03613007,5f317f269c42ef04587aa7a0,65d6bb0e977760de756971f7,65d6bdbcdd292789db81fbaa,0.036,0.036,1,11,173,61,1,threefour,,,,,,,,,,,,,,,,,,,,,,,,,,,,,,,,,,,,,,,,,,,,,,,,,,,,,,,,,,,,,,,,,,,,,,,,,,,,,,,,,,,,,,,,,,,,,,,,,,,,,,,,,,,,,,,,,,,,,,,,,,,,,,,,,,,,,,,,,
,,5f317f269c42ef04587aa7a0,2024-02-22_04h21.57.787,kallum_motion_pilot,2023.2.2,Win32,10.03613007,5f317f269c42ef04587aa7a0,65d6bb0e977760de756971f7,65d6bdbcdd292789db81fbaa,0.036,0.036,1,12,174,72,1,onetwo,,,,,,,,,,,,,,,,,,,,,,,,,,,,,,,,,,,,,,,,,,,,,,,,,,,,,,,,,,,,,,,,,,,,,,,,,,,,,,,,,,,,,,,,,,,,,,,,,,,,,,,,,,,,,,,,,,,,,,,,,,,,,,,,,,,,,,,,,
,,5f317f269c42ef04587aa7a0,2024-02-22_04h21.57.787,kallum_motion_pilot,2023.2.2,Win32,10.03613007,5f317f269c42ef04587aa7a0,65d6bb0e977760de756971f7,65d6bdbcdd292789db81fbaa,0.036,0.036,1,13,175,161,1,fiveseven,,,,,,,,,,,,,,,,,,,,,,,,,,,,,,,,,,,,,,,,,,,,,,,,,,,,,,,,,,,,,,,,,,,,,,,,,,,,,,,,,,,,,,,,,,,,,,,,,,,,,,,,,,,,,,,,,,,,,,,,,,,,,,,,,,,,,,,,,
,,5f317f269c42ef04587aa7a0,2024-02-22_04h21.57.787,kallum_motion_pilot,2023.2.2,Win32,10.03613007,5f317f269c42ef04587aa7a0,65d6bb0e977760de756971f7,65d6bdbcdd292789db81fbaa,0.043,0.043,1,14,176,28,1,threeone,,,,,,,,,,,,,,,,,,,,,,,,,,,,,,,,,,,,,,,,,,,,,,,,,,,,,,,,,,,,,,,,,,,,,,,,,,,,,,,,,,,,,,,,,,,,,,,,,,,,,,,,,,,,,,,,,,,,,,,,,,,,,,,,,,,,,,,,,
,,5f317f269c42ef04587aa7a0,2024-02-22_04h21.57.787,kallum_motion_pilot,2023.2.2,Win32,10.03613007,5f317f269c42ef04587aa7a0,65d6bb0e977760de756971f7,65d6bdbcdd292789db81fbaa,0.043,0.043,1,15,177,40,1,onetwo,,,,,,,,,,,,,,,,,,,,,,,,,,,,,,,,,,,,,,,,,,,,,,,,,,,,,,,,,,,,,,,,,,,,,,,,,,,,,,,,,,,,,,,,,,,,,,,,,,,,,,,,,,,,,,,,,,,,,,,,,,,,,,,,,,,,,,,,,
,,5f317f269c42ef04587aa7a0,2024-02-22_04h21.57.787,kallum_motion_pilot,2023.2.2,Win32,10.03613007,5f317f269c42ef04587aa7a0,65d6bb0e977760de756971f7,65d6bdbcdd292789db81fbaa,0.043,0.043,1,16,178,126,1,eightsix,,,,,,,,,,,,,,,,,,,,,,,,,,,,,,,,,,,,,,,,,,,,,,,,,,,,,,,,,,,,,,,,,,,,,,,,,,,,,,,,,,,,,,,,,,,,,,,,,,,,,,,,,,,,,,,,,,,,,,,,,,,,,,,,,,,,,,,,,
,,5f317f269c42ef04587aa7a0,2024-02-22_04h21.57.787,kallum_motion_pilot,2023.2.2,Win32,10.03613007,5f317f269c42ef04587aa7a0,65d6bb0e977760de756971f7,65d6bdbcdd292789db81fbaa,0.043,0.043,1,17,179,128,1,fivesix,,,,,,,,,,,,,,,,,,,,,,,,,,,,,,,,,,,,,,,,,,,,,,,,,,,,,,,,,,,,,,,,,,,,,,,,,,,,,,,,,,,,,,,,,,,,,,,,,,,,,,,,,,,,,,,,,,,,,,,,,,,,,,,,,,,,,,,,,
,,5f317f269c42ef04587aa7a0,2024-02-22_04h21.57.787,kallum_motion_pilot,2023.2.2,Win32,10.03613007,5f317f269c42ef04587aa7a0,65d6bb0e977760de756971f7,65d6bdbcdd292789db81fbaa,0.043,0.043,1,18,180,154,1,sixfive,,,,,,,,,,,,,,,,,,,,,,,,,,,,,,,,,,,,,,,,,,,,,,,,,,,,,,,,,,,,,,,,,,,,,,,,,,,,,,,,,,,,,,,,,,,,,,,,,,,,,,,,,,,,,,,,,,,,,,,,,,,,,,,,,,,,,,,,,
,,5f317f269c42ef04587aa7a0,2024-02-22_04h21.57.787,kallum_motion_pilot,2023.2.2,Win32,10.03613007,5f317f269c42ef04587aa7a0,65d6bb0e977760de756971f7,65d6bdbcdd292789db81fbaa,0.043,0.043,1,19,181,121,1,fiveseven,,,,,,,,,,,,,,,,,,,,,,,,,,,,,,,,,,,,,,,,,,,,,,,,,,,,,,,,,,,,,,,,,,,,,,,,,,,,,,,,,,,,,,,,,,,,,,,,,,,,,,,,,,,,,,,,,,,,,,,,,,,,,,,,,,,,,,,,,
,,5f317f269c42ef04587aa7a0,2024-02-22_04h21.57.787,kallum_motion_pilot,2023.2.2,Win32,10.03613007,5f317f269c42ef04587aa7a0,65d6bb0e977760de756971f7,65d6bdbcdd292789db81fbaa,0.043,0.043,1,20,182,38,1,fourtwo,,,,,,,,,,,,,,,,,,,,,,,,,,,,,,,,,,,,,,,,,,,,,,,,,,,,,,,,,,,,,,,,,,,,,,,,,,,,,,,,,,,,,,,,,,,,,,,,,,,,,,,,,,,,,,,,,,,,,,,,,,,,,,,,,,,,,,,,,
,,5f317f269c42ef04587aa7a0,2024-02-22_04h21.57.787,kallum_motion_pilot,2023.2.2,Win32,10.03613007,5f317f269c42ef04587aa7a0,65d6bb0e977760de756971f7,65d6bdbcdd292789db81fbaa,0.043,0.043,1,21,183,58,1,twoone,,,,,,,,,,,,,,,,,,,,,,,,,,,,,,,,,,,,,,,,,,,,,,,,,,,,,,,,,,,,,,,,,,,,,,,,,,,,,,,,,,,,,,,,,,,,,,,,,,,,,,,,,,,,,,,,,,,,,,,,,,,,,,,,,,,,,,,,,
,,5f317f269c42ef04587aa7a0,2024-02-22_04h21.57.787,kallum_motion_pilot,2023.2.2,Win32,10.03613007,5f317f269c42ef04587aa7a0,65d6bb0e977760de756971f7,65d6bdbcdd292789db81fbaa,0.044,0.044,1,22,184,56,1,onetwo,,,,,,,,,,,,,,,,,,,,,,,,,,,,,,,,,,,,,,,,,,,,,,,,,,,,,,,,,,,,,,,,,,,,,,,,,,,,,,,,,,,,,,,,,,,,,,,,,,,,,,,,,,,,,,,,,,,,,,,,,,,,,,,,,,,,,,,,,
,,5f317f269c42ef04587aa7a0,2024-02-22_04h21.57.787,kallum_motion_pilot,2023.2.2,Win32,10.03613007,5f317f269c42ef04587aa7a0,65d6bb0e977760de756971f7,65d6bdbcdd292789db81fbaa,0.044,0.044,1,23,185,89,1,fiveseven,,,,,,,,,,,,,,,,,,,,,,,,,,,,,,,,,,,,,,,,,,,,,,,,,,,,,,,,,,,,,,,,,,,,,,,,,,,,,,,,,,,,,,,,,,,,,,,,,,,,,,,,,,,,,,,,,,,,,,,,,,,,,,,,,,,,,,,,,
,,5f317f269c42ef04587aa7a0,2024-02-22_04h21.57.787,kallum_motion_pilot,2023.2.2,Win32,10.03613007,5f317f269c42ef04587aa7a0,65d6bb0e977760de756971f7,65d6bdbcdd292789db81fbaa,0.044,0.044,1,24,186,153,1,fiveseven,,,,,,,,,,,,,,,,,,,,,,,,,,,,,,,,,,,,,,,,,,,,,,,,,,,,,,,,,,,,,,,,,,,,,,,,,,,,,,,,,,,,,,,,,,,,,,,,,,,,,,,,,,,,,,,,,,,,,,,,,,,,,,,,,,,,,,,,,
,,5f317f269c42ef04587aa7a0,2024-02-22_04h21.57.787,kallum_motion_pilot,2023.2.2,Win32,10.03613007,5f317f269c42ef04587aa7a0,65d6bb0e977760de756971f7,65d6bdbcdd292789db81fbaa,0.044,0.044,1,25,187,5,1,threefour,,,,,,,,,,,,,,,,,,,,,,,,,,,,,,,,,,,,,,,,,,,,,,,,,,,,,,,,,,,,,,,,,,,,,,,,,,,,,,,,,,,,,,,,,,,,,,,,,,,,,,,,,,,,,,,,,,,,,,,,,,,,,,,,,,,,,,,,,
,,5f317f269c42ef04587aa7a0,2024-02-22_04h21.57.787,kallum_motion_pilot,2023.2.2,Win32,10.03613007,5f317f269c42ef04587aa7a0,65d6bb0e977760de756971f7,65d6bdbcdd292789db81fbaa,0.044,0.044,1,26,188,107,1,sixeight,,,,,,,,,,,,,,,,,,,,,,,,,,,,,,,,,,,,,,,,,,,,,,,,,,,,,,,,,,,,,,,,,,,,,,,,,,,,,,,,,,,,,,,,,,,,,,,,,,,,,,,,,,,,,,,,,,,,,,,,,,,,,,,,,,,,,,,,,
,,5f317f269c42ef04587aa7a0,2024-02-22_04h21.57.787,kallum_motion_pilot,2023.2.2,Win32,10.03613007,5f317f269c42ef04587aa7a0,65d6bb0e977760de756971f7,65d6bdbcdd292789db81fbaa,0.044,0.044,1,27,189,13,1,threefour,,,,,,,,,,,,,,,,,,,,,,,,,,,,,,,,,,,,,,,,,,,,,,,,,,,,,,,,,,,,,,,,,,,,,,,,,,,,,,,,,,,,,,,,,,,,,,,,,,,,,,,,,,,,,,,,,,,,,,,,,,,,,,,,,,,,,,,,,
,,5f317f269c42ef04587aa7a0,2024-02-22_04h21.57.787,kallum_motion_pilot,2023.2.2,Win32,10.03613007,5f317f269c42ef04587aa7a0,65d6bb0e977760de756971f7,65d6bdbcdd292789db81fbaa,0.044,0.044,1,28,190,155,1,sixeight,,,,,,,,,,,,,,,,,,,,,,,,,,,,,,,,,,,,,,,,,,,,,,,,,,,,,,,,,,,,,,,,,,,,,,,,,,,,,,,,,,,,,,,,,,,,,,,,,,,,,,,,,,,,,,,,,,,,,,,,,,,,,,,,,,,,,,,,,
,,5f317f269c42ef04587aa7a0,2024-02-22_04h21.57.787,kallum_motion_pilot,2023.2.2,Win32,10.03613007,5f317f269c42ef04587aa7a0,65d6bb0e977760de756971f7,65d6bdbcdd292789db81fbaa,0.044,0.044,1,29,191,78,1,fourtwo,,,,,,,,,,,,,,,,,,,,,,,,,,,,,,,,,,,,,,,,,,,,,,,,,,,,,,,,,,,,,,,,,,,,,,,,,,,,,,,,,,,,,,,,,,,,,,,,,,,,,,,,,,,,,,,,,,,,,,,,,,,,,,,,,,,,,,,,,
,,5f317f269c42ef04587aa7a0,2024-02-22_04h21.57.787,kallum_motion_pilot,2023.2.2,Win32,10.03613007,5f317f269c42ef04587aa7a0,65d6bb0e977760de756971f7,65d6bdbcdd292789db81fbaa,0.044,0.044,1,30,192,39,1,fourthree,,,,,,,,,,,,,,,,,,,,,,,,,,,,,,,,,,,,,,,,,,,,,,,,,,,,,,,,,,,,,,,,,,,,,,,,,,,,,,,,,,,,,,,,,,,,,,,,,,,,,,,,,,,,,,,,,,,,,,,,,,,,,,,,,,,,,,,,,
,,5f317f269c42ef04587aa7a0,2024-02-22_04h21.57.787,kallum_motion_pilot,2023.2.2,Win32,10.03613007,5f317f269c42ef04587aa7a0,65d6bb0e977760de756971f7,65d6bdbcdd292789db81fbaa,0.044,0.044,1,31,193,140,1,sevenfive,,,,,,,,,,,,,,,,,,,,,,,,,,,,,,,,,,,,,,,,,,,,,,,,,,,,,,,,,,,,,,,,,,,,,,,,,,,,,,,,,,,,,,,,,,,,,,,,,,,,,,,,,,,,,,,,,,,,,,,,,,,,,,,,,,,,,,,,,
,,5f317f269c42ef04587aa7a0,2024-02-22_04h21.57.787,kallum_motion_pilot,2023.2.2,Win32,10.03613007,5f317f269c42ef04587aa7a0,65d6bb0e977760de756971f7,65d6bdbcdd292789db81fbaa,0.044,0.044,1,32,194,156,1,sevenfive,,,,,,,,,,,,,,,,,,,,,,,,,,,,,,,,,,,,,,,,,,,,,,,,,,,,,,,,,,,,,,,,,,,,,,,,,,,,,,,,,,,,,,,,,,,,,,,,,,,,,,,,,,,,,,,,,,,,,,,,,,,,,,,,,,,,,,,,,
,,5f317f269c42ef04587aa7a0,2024-02-22_04h21.57.787,kallum_motion_pilot,2023.2.2,Win32,10.03613007,5f317f269c42ef04587aa7a0,65d6bb0e977760de756971f7,65d6bdbcdd292789db81fbaa,0.044,0.044,1,33,195,6,1,fourtwo,,,,,,,,,,,,,,,,,,,,,,,,,,,,,,,,,,,,,,,,,,,,,,,,,,,,,,,,,,,,,,,,,,,,,,,,,,,,,,,,,,,,,,,,,,,,,,,,,,,,,,,,,,,,,,,,,,,,,,,,,,,,,,,,,,,,,,,,,
,,5f317f269c42ef04587aa7a0,2024-02-22_04h21.57.787,kallum_motion_pilot,2023.2.2,Win32,10.03613007,5f317f269c42ef04587aa7a0,65d6bb0e977760de756971f7,65d6bdbcdd292789db81fbaa,0.044,0.044,1,34,196,37,1,threefour,,,,,,,,,,,,,,,,,,,,,,,,,,,,,,,,,,,,,,,,,,,,,,,,,,,,,,,,,,,,,,,,,,,,,,,,,,,,,,,,,,,,,,,,,,,,,,,,,,,,,,,,,,,,,,,,,,,,,,,,,,,,,,,,,,,,,,,,,
,,5f317f269c42ef04587aa7a0,2024-02-22_04h21.57.787,kallum_motion_pilot,2023.2.2,Win32,10.03613007,5f317f269c42ef04587aa7a0,65d6bb0e977760de756971f7,65d6bdbcdd292789db81fbaa,0.044,0.044,1,35,197,21,1,threefour,,,,,,,,,,,,,,,,,,,,,,,,,,,,,,,,,,,,,,,,,,,,,,,,,,,,,,,,,,,,,,,,,,,,,,,,,,,,,,,,,,,,,,,,,,,,,,,,,,,,,,,,,,,,,,,,,,,,,,,,,,,,,,,,,,,,,,,,,
,,5f317f269c42ef04587aa7a0,2024-02-22_04h21.57.787,kallum_motion_pilot,2023.2.2,Win32,10.03613007,5f317f269c42ef04587aa7a0,65d6bb0e977760de756971f7,65d6bdbcdd292789db81fbaa,0.044,0.044,1,36,198,116,1,sevenfive,,,,,,,,,,,,,,,,,,,,,,,,,,,,,,,,,,,,,,,,,,,,,,,,,,,,,,,,,,,,,,,,,,,,,,,,,,,,,,,,,,,,,,,,,,,,,,,,,,,,,,,,,,,,,,,,,,,,,,,,,,,,,,,,,,,,,,,,,
,,5f317f269c42ef04587aa7a0,2024-02-22_04h21.57.787,kallum_motion_pilot,2023.2.2,Win32,10.03613007,5f317f269c42ef04587aa7a0,65d6bb0e977760de756971f7,65d6bdbcdd292789db81fbaa,0.044,0.044,1,37,199,131,1,sixeight,,,,,,,,,,,,,,,,,,,,,,,,,,,,,,,,,,,,,,,,,,,,,,,,,,,,,,,,,,,,,,,,,,,,,,,,,,,,,,,,,,,,,,,,,,,,,,,,,,,,,,,,,,,,,,,,,,,,,,,,,,,,,,,,,,,,,,,,,
,,5f317f269c42ef04587aa7a0,2024-02-22_04h21.57.787,kallum_motion_pilot,2023.2.2,Win32,10.03613007,5f317f269c42ef04587aa7a0,65d6bb0e977760de756971f7,65d6bdbcdd292789db81fbaa,0.044,0.044,1,38,200,87,1,eightseven,,,,,,,,,,,,,,,,,,,,,,,,,,,,,,,,,,,,,,,,,,,,,,,,,,,,,,,,,,,,,,,,,,,,,,,,,,,,,,,,,,,,,,,,,,,,,,,,,,,,,,,,,,,,,,,,,,,,,,,,,,,,,,,,,,,,,,,,,
,,5f317f269c42ef04587aa7a0,2024-02-22_04h21.57.787,kallum_motion_pilot,2023.2.2,Win32,10.03613007,5f317f269c42ef04587aa7a0,65d6bb0e977760de756971f7,65d6bdbcdd292789db81fbaa,0.044,0.045,1,39,201,52,1,threeone,,,,,,,,,,,,,,,,,,,,,,,,,,,,,,,,,,,,,,,,,,,,,,,,,,,,,,,,,,,,,,,,,,,,,,,,,,,,,,,,,,,,,,,,,,,,,,,,,,,,,,,,,,,,,,,,,,,,,,,,,,,,,,,,,,,,,,,,,
,,5f317f269c42ef04587aa7a0,2024-02-22_04h21.57.787,kallum_motion_pilot,2023.2.2,Win32,10.03613007,5f317f269c42ef04587aa7a0,65d6bb0e977760de756971f7,65d6bdbcdd292789db81fbaa,0.045,0.045,1,40,202,102,1,eightsix,,,,,,,,,,,,,,,,,,,,,,,,,,,,,,,,,,,,,,,,,,,,,,,,,,,,,,,,,,,,,,,,,,,,,,,,,,,,,,,,,,,,,,,,,,,,,,,,,,,,,,,,,,,,,,,,,,,,,,,,,,,,,,,,,,,,,,,,,
,,5f317f269c42ef04587aa7a0,2024-02-22_04h21.57.787,kallum_motion_pilot,2023.2.2,Win32,10.03613007,5f317f269c42ef04587aa7a0,65d6bb0e977760de756971f7,65d6bdbcdd292789db81fbaa,0.045,0.045,1,41,203,76,1,threeone,,,,,,,,,,,,,,,,,,,,,,,,,,,,,,,,,,,,,,,,,,,,,,,,,,,,,,,,,,,,,,,,,,,,,,,,,,,,,,,,,,,,,,,,,,,,,,,,,,,,,,,,,,,,,,,,,,,,,,,,,,,,,,,,,,,,,,,,,
,,5f317f269c42ef04587aa7a0,2024-02-22_04h21.57.787,kallum_motion_pilot,2023.2.2,Win32,10.03613007,5f317f269c42ef04587aa7a0,65d6bb0e977760de756971f7,65d6bdbcdd292789db81fbaa,0.045,0.045,1,42,204,80,1,fivesix,,,,,,,,,,,,,,,,,,,,,,,,,,,,,,,,,,,,,,,,,,,,,,,,,,,,,,,,,,,,,,,,,,,,,,,,,,,,,,,,,,,,,,,,,,,,,,,,,,,,,,,,,,,,,,,,,,,,,,,,,,,,,,,,,,,,,,,,,
,,5f317f269c42ef04587aa7a0,2024-02-22_04h21.57.787,kallum_motion_pilot,2023.2.2,Win32,10.03613007,5f317f269c42ef04587aa7a0,65d6bb0e977760de756971f7,65d6bdbcdd292789db81fbaa,0.045,0.045,1,43,205,139,1,sixeight,,,,,,,,,,,,,,,,,,,,,,,,,,,,,,,,,,,,,,,,,,,,,,,,,,,,,,,,,,,,,,,,,,,,,,,,,,,,,,,,,,,,,,,,,,,,,,,,,,,,,,,,,,,,,,,,,,,,,,,,,,,,,,,,,,,,,,,,,
,,5f317f269c42ef04587aa7a0,2024-02-22_04h21.57.787,kallum_motion_pilot,2023.2.2,Win32,10.03613007,5f317f269c42ef04587aa7a0,65d6bb0e977760de756971f7,65d6bdbcdd292789db81fbaa,0.045,0.045,1,44,206,48,1,onetwo,,,,,,,,,,,,,,,,,,,,,,,,,,,,,,,,,,,,,,,,,,,,,,,,,,,,,,,,,,,,,,,,,,,,,,,,,,,,,,,,,,,,,,,,,,,,,,,,,,,,,,,,,,,,,,,,,,,,,,,,,,,,,,,,,,,,,,,,,
,,5f317f269c42ef04587aa7a0,2024-02-22_04h21.57.787,kallum_motion_pilot,2023.2.2,Win32,10.03613007,5f317f269c42ef04587aa7a0,65d6bb0e977760de756971f7,65d6bdbcdd292789db81fbaa,0.045,0.045,1,45,207,35,1,twofour,,,,,,,,,,,,,,,,,,,,,,,,,,,,,,,,,,,,,,,,,,,,,,,,,,,,,,,,,,,,,,,,,,,,,,,,,,,,,,,,,,,,,,,,,,,,,,,,,,,,,,,,,,,,,,,,,,,,,,,,,,,,,,,,,,,,,,,,,
,,5f317f269c42ef04587aa7a0,2024-02-22_04h21.57.787,kallum_motion_pilot,2023.2.2,Win32,10.03613007,5f317f269c42ef04587aa7a0,65d6bb0e977760de756971f7,65d6bdbcdd292789db81fbaa,0.045,0.045,1,46,208,118,1,eightsix,,,,,,,,,,,,,,,,,,,,,,,,,,,,,,,,,,,,,,,,,,,,,,,,,,,,,,,,,,,,,,,,,,,,,,,,,,,,,,,,,,,,,,,,,,,,,,,,,,,,,,,,,,,,,,,,,,,,,,,,,,,,,,,,,,,,,,,,,
,,5f317f269c42ef04587aa7a0,2024-02-22_04h21.57.787,kallum_motion_pilot,2023.2.2,Win32,10.03613007,5f317f269c42ef04587aa7a0,65d6bb0e977760de756971f7,65d6bdbcdd292789db81fbaa,0.045,0.045,1,47,209,125,1,seveneight,,,,,,,,,,,,,,,,,,,,,,,,,,,,,,,,,,,,,,,,,,,,,,,,,,,,,,,,,,,,,,,,,,,,,,,,,,,,,,,,,,,,,,,,,,,,,,,,,,,,,,,,,,,,,,,,,,,,,,,,,,,,,,,,,,,,,,,,,
,,5f317f269c42ef04587aa7a0,2024-02-22_04h21.57.787,kallum_motion_pilot,2023.2.2,Win32,10.03613007,5f317f269c42ef04587aa7a0,65d6bb0e977760de756971f7,65d6bdbcdd292789db81fbaa,0.045,0.045,1,48,210,109,1,seveneight,,,,,,,,,,,,,,,,,,,,,,,,,,,,,,,,,,,,,,,,,,,,,,,,,,,,,,,,,,,,,,,,,,,,,,,,,,,,,,,,,,,,,,,,,,,,,,,,,,,,,,,,,,,,,,,,,,,,,,,,,,,,,,,,,,,,,,,,,
,,5f317f269c42ef04587aa7a0,2024-02-22_04h21.57.787,kallum_motion_pilot,2023.2.2,Win32,10.03613007,5f317f269c42ef04587aa7a0,65d6bb0e977760de756971f7,65d6bdbcdd292789db81fbaa,0.045,0.045,1,49,211,141,1,seveneight,,,,,,,,,,,,,,,,,,,,,,,,,,,,,,,,,,,,,,,,,,,,,,,,,,,,,,,,,,,,,,,,,,,,,,,,,,,,,,,,,,,,,,,,,,,,,,,,,,,,,,,,,,,,,,,,,,,,,,,,,,,,,,,,,,,,,,,,,
,,5f317f269c42ef04587aa7a0,2024-02-22_04h21.57.787,kallum_motion_pilot,2023.2.2,Win32,10.03613007,5f317f269c42ef04587aa7a0,65d6bb0e977760de756971f7,65d6bdbcdd292789db81fbaa,0.045,0.045,1,50,212,96,1,fivesix,,,,,,,,,,,,,,,,,,,,,,,,,,,,,,,,,,,,,,,,,,,,,,,,,,,,,,,,,,,,,,,,,,,,,,,,,,,,,,,,,,,,,,,,,,,,,,,,,,,,,,,,,,,,,,,,,,,,,,,,,,,,,,,,,,,,,,,,,
,,5f317f269c42ef04587aa7a0,2024-02-22_04h21.57.787,kallum_motion_pilot,2023.2.2,Win32,10.03613007,5f317f269c42ef04587aa7a0,65d6bb0e977760de756971f7,65d6bdbcdd292789db81fbaa,0.045,0.045,1,51,213,93,1,seveneight,,,,,,,,,,,,,,,,,,,,,,,,,,,,,,,,,,,,,,,,,,,,,,,,,,,,,,,,,,,,,,,,,,,,,,,,,,,,,,,,,,,,,,,,,,,,,,,,,,,,,,,,,,,,,,,,,,,,,,,,,,,,,,,,,,,,,,,,,
,,5f317f269c42ef04587aa7a0,2024-02-22_04h21.57.787,kallum_motion_pilot,2023.2.2,Win32,10.03613007,5f317f269c42ef04587aa7a0,65d6bb0e977760de756971f7,65d6bdbcdd292789db81fbaa,0.046,0.046,1,52,214,33,1,onethree,,,,,,,,,,,,,,,,,,,,,,,,,,,,,,,,,,,,,,,,,,,,,,,,,,,,,,,,,,,,,,,,,,,,,,,,,,,,,,,,,,,,,,,,,,,,,,,,,,,,,,,,,,,,,,,,,,,,,,,,,,,,,,,,,,,,,,,,,
,,5f317f269c42ef04587aa7a0,2024-02-22_04h21.57.787,kallum_motion_pilot,2023.2.2,Win32,10.03613007,5f317f269c42ef04587aa7a0,65d6bb0e977760de756971f7,65d6bdbcdd292789db81fbaa,0.046,0.046,1,53,215,8,1,onetwo,,,,,,,,,,,,,,,,,,,,,,,,,,,,,,,,,,,,,,,,,,,,,,,,,,,,,,,,,,,,,,,,,,,,,,,,,,,,,,,,,,,,,,,,,,,,,,,,,,,,,,,,,,,,,,,,,,,,,,,,,,,,,,,,,,,,,,,,,
,,5f317f269c42ef04587aa7a0,2024-02-22_04h21.57.787,kallum_motion_pilot,2023.2.2,Win32,10.03613007,5f317f269c42ef04587aa7a0,65d6bb0e977760de756971f7,65d6bdbcdd292789db81fbaa,0.046,0.046,1,54,216,134,1,eightsix,,,,,,,,,,,,,,,,,,,,,,,,,,,,,,,,,,,,,,,,,,,,,,,,,,,,,,,,,,,,,,,,,,,,,,,,,,,,,,,,,,,,,,,,,,,,,,,,,,,,,,,,,,,,,,,,,,,,,,,,,,,,,,,,,,,,,,,,,
,,5f317f269c42ef04587aa7a0,2024-02-22_04h21.57.787,kallum_motion_pilot,2023.2.2,Win32,10.03613007,5f317f269c42ef04587aa7a0,65d6bb0e977760de756971f7,65d6bdbcdd292789db81fbaa,0.046,0.046,1,55,217,103,1,eightseven,,,,,,,,,,,,,,,,,,,,,,,,,,,,,,,,,,,,,,,,,,,,,,,,,,,,,,,,,,,,,,,,,,,,,,,,,,,,,,,,,,,,,,,,,,,,,,,,,,,,,,,,,,,,,,,,,,,,,,,,,,,,,,,,,,,,,,,,,
,,5f317f269c42ef04587aa7a0,2024-02-22_04h21.57.787,kallum_motion_pilot,2023.2.2,Win32,10.03613007,5f317f269c42ef04587aa7a0,65d6bb0e977760de756971f7,65d6bdbcdd292789db81fbaa,0.046,0.046,1,56,218,23,1,fourthree,,,,,,,,,,,,,,,,,,,,,,,,,,,,,,,,,,,,,,,,,,,,,,,,,,,,,,,,,,,,,,,,,,,,,,,,,,,,,,,,,,,,,,,,,,,,,,,,,,,,,,,,,,,,,,,,,,,,,,,,,,,,,,,,,,,,,,,,,
,,5f317f269c42ef04587aa7a0,2024-02-22_04h21.57.787,kallum_motion_pilot,2023.2.2,Win32,10.03613007,5f317f269c42ef04587aa7a0,65d6bb0e977760de756971f7,65d6bdbcdd292789db81fbaa,0.046,0.046,1,57,219,57,1,onethree,,,,,,,,,,,,,,,,,,,,,,,,,,,,,,,,,,,,,,,,,,,,,,,,,,,,,,,,,,,,,,,,,,,,,,,,,,,,,,,,,,,,,,,,,,,,,,,,,,,,,,,,,,,,,,,,,,,,,,,,,,,,,,,,,,,,,,,,,
,,5f317f269c42ef04587aa7a0,2024-02-22_04h21.57.787,kallum_motion_pilot,2023.2.2,Win32,10.03613007,5f317f269c42ef04587aa7a0,65d6bb0e977760de756971f7,65d6bdbcdd292789db81fbaa,0.046,0.046,1,58,220,82,1,sixfive,,,,,,,,,,,,,,,,,,,,,,,,,,,,,,,,,,,,,,,,,,,,,,,,,,,,,,,,,,,,,,,,,,,,,,,,,,,,,,,,,,,,,,,,,,,,,,,,,,,,,,,,,,,,,,,,,,,,,,,,,,,,,,,,,,,,,,,,,
,,5f317f269c42ef04587aa7a0,2024-02-22_04h21.57.787,kallum_motion_pilot,2023.2.2,Win32,10.03613007,5f317f269c42ef04587aa7a0,65d6bb0e977760de756971f7,65d6bdbcdd292789db81fbaa,0.046,0.046,1,59,221,143,1,eightseven,,,,,,,,,,,,,,,,,,,,,,,,,,,,,,,,,,,,,,,,,,,,,,,,,,,,,,,,,,,,,,,,,,,,,,,,,,,,,,,,,,,,,,,,,,,,,,,,,,,,,,,,,,,,,,,,,,,,,,,,,,,,,,,,,,,,,,,,,
,,5f317f269c42ef04587aa7a0,2024-02-22_04h21.57.787,kallum_motion_pilot,2023.2.2,Win32,10.03613007,5f317f269c42ef04587aa7a0,65d6bb0e977760de756971f7,65d6bdbcdd292789db81fbaa,0.046,0.046,1,60,222,124,1,sevenfive,,,,,,,,,,,,,,,,,,,,,,,,,,,,,,,,,,,,,,,,,,,,,,,,,,,,,,,,,,,,,,,,,,,,,,,,,,,,,,,,,,,,,,,,,,,,,,,,,,,,,,,,,,,,,,,,,,,,,,,,,,,,,,,,,,,,,,,,,
,,5f317f269c42ef04587aa7a0,2024-02-22_04h21.57.787,kallum_motion_pilot,2023.2.2,Win32,10.03613007,5f317f269c42ef04587aa7a0,65d6bb0e977760de756971f7,65d6bdbcdd292789db81fbaa,0.046,0.046,1,61,223,66,1,twoone,,,,,,,,,,,,,,,,,,,,,,,,,,,,,,,,,,,,,,,,,,,,,,,,,,,,,,,,,,,,,,,,,,,,,,,,,,,,,,,,,,,,,,,,,,,,,,,,,,,,,,,,,,,,,,,,,,,,,,,,,,,,,,,,,,,,,,,,,
,,5f317f269c42ef04587aa7a0,2024-02-22_04h21.57.787,kallum_motion_pilot,2023.2.2,Win32,10.03613007,5f317f269c42ef04587aa7a0,65d6bb0e977760de756971f7,65d6bdbcdd292789db81fbaa,0.046,0.046,1,62,224,59,1,twofour,,,,,,,,,,,,,,,,,,,,,,,,,,,,,,,,,,,,,,,,,,,,,,,,,,,,,,,,,,,,,,,,,,,,,,,,,,,,,,,,,,,,,,,,,,,,,,,,,,,,,,,,,,,,,,,,,,,,,,,,,,,,,,,,,,,,,,,,,
,,5f317f269c42ef04587aa7a0,2024-02-22_04h21.57.787,kallum_motion_pilot,2023.2.2,Win32,10.03613007,5f317f269c42ef04587aa7a0,65d6bb0e977760de756971f7,65d6bdbcdd292789db81fbaa,0.046,0.046,1,63,225,60,1,threeone,,,,,,,,,,,,,,,,,,,,,,,,,,,,,,,,,,,,,,,,,,,,,,,,,,,,,,,,,,,,,,,,,,,,,,,,,,,,,,,,,,,,,,,,,,,,,,,,,,,,,,,,,,,,,,,,,,,,,,,,,,,,,,,,,,,,,,,,,
,,5f317f269c42ef04587aa7a0,2024-02-22_04h21.57.787,kallum_motion_pilot,2023.2.2,Win32,10.03613007,5f317f269c42ef04587aa7a0,65d6bb0e977760de756971f7,65d6bdbcdd292789db81fbaa,0.046,0.046,1,64,226,127,1,eightseven,,,,,,,,,,,,,,,,,,,,,,,,,,,,,,,,,,,,,,,,,,,,,,,,,,,,,,,,,,,,,,,,,,,,,,,,,,,,,,,,,,,,,,,,,,,,,,,,,,,,,,,,,,,,,,,,,,,,,,,,,,,,,,,,,,,,,,,,,
,,5f317f269c42ef04587aa7a0,2024-02-22_04h21.57.787,kallum_motion_pilot,2023.2.2,Win32,10.03613007,5f317f269c42ef04587aa7a0,65d6bb0e977760de756971f7,65d6bdbcdd292789db81fbaa,0.046,0.046,1,65,227,16,1,onetwo,,,,,,,,,,,,,,,,,,,,,,,,,,,,,,,,,,,,,,,,,,,,,,,,,,,,,,,,,,,,,,,,,,,,,,,,,,,,,,,,,,,,,,,,,,,,,,,,,,,,,,,,,,,,,,,,,,,,,,,,,,,,,,,,,,,,,,,,,
,,5f317f269c42ef04587aa7a0,2024-02-22_04h21.57.787,kallum_motion_pilot,2023.2.2,Win32,10.03613007,5f317f269c42ef04587aa7a0,65d6bb0e977760de756971f7,65d6bdbcdd292789db81fbaa,0.046,0.046,1,66,228,101,1,seveneight,,,,,,,,,,,,,,,,,,,,,,,,,,,,,,,,,,,,,,,,,,,,,,,,,,,,,,,,,,,,,,,,,,,,,,,,,,,,,,,,,,,,,,,,,,,,,,,,,,,,,,,,,,,,,,,,,,,,,,,,,,,,,,,,,,,,,,,,,
,,5f317f269c42ef04587aa7a0,2024-02-22_04h21.57.787,kallum_motion_pilot,2023.2.2,Win32,10.03613007,5f317f269c42ef04587aa7a0,65d6bb0e977760de756971f7,65d6bdbcdd292789db81fbaa,0.047,0.047,1,67,229,79,1,eightseven,,,,,,,,,,,,,,,,,,,,,,,,,,,,,,,,,,,,,,,,,,,,,,,,,,,,,,,,,,,,,,,,,,,,,,,,,,,,,,,,,,,,,,,,,,,,,,,,,,,,,,,,,,,,,,,,,,,,,,,,,,,,,,,,,,,,,,,,,
,,5f317f269c42ef04587aa7a0,2024-02-22_04h21.57.787,kallum_motion_pilot,2023.2.2,Win32,10.03613007,5f317f269c42ef04587aa7a0,65d6bb0e977760de756971f7,65d6bdbcdd292789db81fbaa,0.047,0.047,1,68,230,70,1,fourtwo,,,,,,,,,,,,,,,,,,,,,,,,,,,,,,,,,,,,,,,,,,,,,,,,,,,,,,,,,,,,,,,,,,,,,,,,,,,,,,,,,,,,,,,,,,,,,,,,,,,,,,,,,,,,,,,,,,,,,,,,,,,,,,,,,,,,,,,,,
,,5f317f269c42ef04587aa7a0,2024-02-22_04h21.57.787,kallum_motion_pilot,2023.2.2,Win32,10.03613007,5f317f269c42ef04587aa7a0,65d6bb0e977760de756971f7,65d6bdbcdd292789db81fbaa,0.047,0.047,1,69,231,136,1,fivesix,,,,,,,,,,,,,,,,,,,,,,,,,,,,,,,,,,,,,,,,,,,,,,,,,,,,,,,,,,,,,,,,,,,,,,,,,,,,,,,,,,,,,,,,,,,,,,,,,,,,,,,,,,,,,,,,,,,,,,,,,,,,,,,,,,,,,,,,,
,,5f317f269c42ef04587aa7a0,2024-02-22_04h21.57.787,kallum_motion_pilot,2023.2.2,Win32,10.03613007,5f317f269c42ef04587aa7a0,65d6bb0e977760de756971f7,65d6bdbcdd292789db81fbaa,0.047,0.047,1,70,232,2,1,twoone,,,,,,,,,,,,,,,,,,,,,,,,,,,,,,,,,,,,,,,,,,,,,,,,,,,,,,,,,,,,,,,,,,,,,,,,,,,,,,,,,,,,,,,,,,,,,,,,,,,,,,,,,,,,,,,,,,,,,,,,,,,,,,,,,,,,,,,,,
,,5f317f269c42ef04587aa7a0,2024-02-22_04h21.57.787,kallum_motion_pilot,2023.2.2,Win32,10.03613007,5f317f269c42ef04587aa7a0,65d6bb0e977760de756971f7,65d6bdbcdd292789db81fbaa,0.047,0.047,1,71,233,132,1,sevenfive,,,,,,,,,,,,,,,,,,,,,,,,,,,,,,,,,,,,,,,,,,,,,,,,,,,,,,,,,,,,,,,,,,,,,,,,,,,,,,,,,,,,,,,,,,,,,,,,,,,,,,,,,,,,,,,,,,,,,,,,,,,,,,,,,,,,,,,,,
,,5f317f269c42ef04587aa7a0,2024-02-22_04h21.57.787,kallum_motion_pilot,2023.2.2,Win32,10.03613007,5f317f269c42ef04587aa7a0,65d6bb0e977760de756971f7,65d6bdbcdd292789db81fbaa,0.047,0.047,1,72,234,47,1,fourthree,,,,,,,,,,,,,,,,,,,,,,,,,,,,,,,,,,,,,,,,,,,,,,,,,,,,,,,,,,,,,,,,,,,,,,,,,,,,,,,,,,,,,,,,,,,,,,,,,,,,,,,,,,,,,,,,,,,,,,,,,,,,,,,,,,,,,,,,,
,,5f317f269c42ef04587aa7a0,2024-02-22_04h21.57.787,kallum_motion_pilot,2023.2.2,Win32,10.03613007,5f317f269c42ef04587aa7a0,65d6bb0e977760de756971f7,65d6bdbcdd292789db81fbaa,0.047,0.047,1,73,235,135,1,eightseven,,,,,,,,,,,,,,,,,,,,,,,,,,,,,,,,,,,,,,,,,,,,,,,,,,,,,,,,,,,,,,,,,,,,,,,,,,,,,,,,,,,,,,,,,,,,,,,,,,,,,,,,,,,,,,,,,,,,,,,,,,,,,,,,,,,,,,,,,
,,5f317f269c42ef04587aa7a0,2024-02-22_04h21.57.787,kallum_motion_pilot,2023.2.2,Win32,10.03613007,5f317f269c42ef04587aa7a0,65d6bb0e977760de756971f7,65d6bdbcdd292789db81fbaa,0.047,0.047,1,74,236,81,1,fiveseven,,,,,,,,,,,,,,,,,,,,,,,,,,,,,,,,,,,,,,,,,,,,,,,,,,,,,,,,,,,,,,,,,,,,,,,,,,,,,,,,,,,,,,,,,,,,,,,,,,,,,,,,,,,,,,,,,,,,,,,,,,,,,,,,,,,,,,,,,
,,5f317f269c42ef04587aa7a0,2024-02-22_04h21.57.787,kallum_motion_pilot,2023.2.2,Win32,10.03613007,5f317f269c42ef04587aa7a0,65d6bb0e977760de756971f7,65d6bdbcdd292789db81fbaa,0.047,0.047,1,75,237,117,1,seveneight,,,,,,,,,,,,,,,,,,,,,,,,,,,,,,,,,,,,,,,,,,,,,,,,,,,,,,,,,,,,,,,,,,,,,,,,,,,,,,,,,,,,,,,,,,,,,,,,,,,,,,,,,,,,,,,,,,,,,,,,,,,,,,,,,,,,,,,,,
,,5f317f269c42ef04587aa7a0,2024-02-22_04h21.57.787,kallum_motion_pilot,2023.2.2,Win32,10.03613007,5f317f269c42ef04587aa7a0,65d6bb0e977760de756971f7,65d6bdbcdd292789db81fbaa,0.047,0.047,1,76,238,50,1,twoone,,,,,,,,,,,,,,,,,,,,,,,,,,,,,,,,,,,,,,,,,,,,,,,,,,,,,,,,,,,,,,,,,,,,,,,,,,,,,,,,,,,,,,,,,,,,,,,,,,,,,,,,,,,,,,,,,,,,,,,,,,,,,,,,,,,,,,,,,
,,5f317f269c42ef04587aa7a0,2024-02-22_04h21.57.787,kallum_motion_pilot,2023.2.2,Win32,10.03613007,5f317f269c42ef04587aa7a0,65d6bb0e977760de756971f7,65d6bdbcdd292789db81fbaa,0.047,0.047,1,77,239,160,1,fivesix,,,,,,,,,,,,,,,,,,,,,,,,,,,,,,,,,,,,,,,,,,,,,,,,,,,,,,,,,,,,,,,,,,,,,,,,,,,,,,,,,,,,,,,,,,,,,,,,,,,,,,,,,,,,,,,,,,,,,,,,,,,,,,,,,,,,,,,,,
,,5f317f269c42ef04587aa7a0,2024-02-22_04h21.57.787,kallum_motion_pilot,2023.2.2,Win32,10.03613007,5f317f269c42ef04587aa7a0,65d6bb0e977760de756971f7,65d6bdbcdd292789db81fbaa,0.047,0.047,1,78,240,147,1,sixeight,,,,,,,,,,,,,,,,,,,,,,,,,,,,,,,,,,,,,,,,,,,,,,,,,,,,,,,,,,,,,,,,,,,,,,,,,,,,,,,,,,,,,,,,,,,,,,,,,,,,,,,,,,,,,,,,,,,,,,,,,,,,,,,,,,,,,,,,,
,,5f317f269c42ef04587aa7a0,2024-02-22_04h21.57.787,kallum_motion_pilot,2023.2.2,Win32,10.03613007,5f317f269c42ef04587aa7a0,65d6bb0e977760de756971f7,65d6bdbcdd292789db81fbaa,0.047,0.047,1,79,241,138,1,sixfive,,,,,,,,,,,,,,,,,,,,,,,,,,,,,,,,,,,,,,,,,,,,,,,,,,,,,,,,,,,,,,,,,,,,,,,,,,,,,,,,,,,,,,,,,,,,,,,,,,,,,,,,,,,,,,,,,,,,,,,,,,,,,,,,,,,,,,,,,
,,5f317f269c42ef04587aa7a0,2024-02-22_04h21.57.787,kallum_motion_pilot,2023.2.2,Win32,10.03613007,5f317f269c42ef04587aa7a0,65d6bb0e977760de756971f7,65d6bdbcdd292789db81fbaa,0.047,0.047,1,80,242,4,1,threeone,,,,,,,,,,,,,,,,,,,,,,,,,,,,,,,,,,,,,,,,,,,,,,,,,,,,,,,,,,,,,,,,,,,,,,,,,,,,,,,,,,,,,,,,,,,,,,,,,,,,,,,,,,,,,,,,,,,,,,,,,,,,,,,,,,,,,,,,,
,,5f317f269c42ef04587aa7a0,2024-02-22_04h21.57.787,kallum_motion_pilot,2023.2.2,Win32,10.03613007,5f317f269c42ef04587aa7a0,65d6bb0e977760de756971f7,65d6bdbcdd292789db81fbaa,0.047,0.047,1,81,243,97,1,fiveseven,,,,,,,,,,,,,,,,,,,,,,,,,,,,,,,,,,,,,,,,,,,,,,,,,,,,,,,,,,,,,,,,,,,,,,,,,,,,,,,,,,,,,,,,,,,,,,,,,,,,,,,,,,,,,,,,,,,,,,,,,,,,,,,,,,,,,,,,,
,,5f317f269c42ef04587aa7a0,2024-02-22_04h21.57.787,kallum_motion_pilot,2023.2.2,Win32,10.03613007,5f317f269c42ef04587aa7a0,65d6bb0e977760de756971f7,65d6bdbcdd292789db81fbaa,0.048,0.048,1,82,244,49,1,onethree,,,,,,,,,,,,,,,,,,,,,,,,,,,,,,,,,,,,,,,,,,,,,,,,,,,,,,,,,,,,,,,,,,,,,,,,,,,,,,,,,,,,,,,,,,,,,,,,,,,,,,,,,,,,,,,,,,,,,,,,,,,,,,,,,,,,,,,,,
,,5f317f269c42ef04587aa7a0,2024-02-22_04h21.57.787,kallum_motion_pilot,2023.2.2,Win32,10.03613007,5f317f269c42ef04587aa7a0,65d6bb0e977760de756971f7,65d6bdbcdd292789db81fbaa,0.048,0.048,1,83,245,14,1,fourtwo,,,,,,,,,,,,,,,,,,,,,,,,,,,,,,,,,,,,,,,,,,,,,,,,,,,,,,,,,,,,,,,,,,,,,,,,,,,,,,,,,,,,,,,,,,,,,,,,,,,,,,,,,,,,,,,,,,,,,,,,,,,,,,,,,,,,,,,,,
,,5f317f269c42ef04587aa7a0,2024-02-22_04h21.57.787,kallum_motion_pilot,2023.2.2,Win32,10.03613007,5f317f269c42ef04587aa7a0,65d6bb0e977760de756971f7,65d6bdbcdd292789db81fbaa,0.048,0.048,1,84,246,91,1,sixeight,,,,,,,,,,,,,,,,,,,,,,,,,,,,,,,,,,,,,,,,,,,,,,,,,,,,,,,,,,,,,,,,,,,,,,,,,,,,,,,,,,,,,,,,,,,,,,,,,,,,,,,,,,,,,,,,,,,,,,,,,,,,,,,,,,,,,,,,,
,,5f317f269c42ef04587aa7a0,2024-02-22_04h21.57.787,kallum_motion_pilot,2023.2.2,Win32,10.03613007,5f317f269c42ef04587aa7a0,65d6bb0e977760de756971f7,65d6bdbcdd292789db81fbaa,0.048,0.048,1,85,247,106,1,sixfive,,,,,,,,,,,,,,,,,,,,,,,,,,,,,,,,,,,,,,,,,,,,,,,,,,,,,,,,,,,,,,,,,,,,,,,,,,,,,,,,,,,,,,,,,,,,,,,,,,,,,,,,,,,,,,,,,,,,,,,,,,,,,,,,,,,,,,,,,
,,5f317f269c42ef04587aa7a0,2024-02-22_04h21.57.787,kallum_motion_pilot,2023.2.2,Win32,10.03613007,5f317f269c42ef04587aa7a0,65d6bb0e977760de756971f7,65d6bdbcdd292789db81fbaa,0.048,0.048,1,86,248,18,1,twoone,,,,,,,,,,,,,,,,,,,,,,,,,,,,,,,,,,,,,,,,,,,,,,,,,,,,,,,,,,,,,,,,,,,,,,,,,,,,,,,,,,,,,,,,,,,,,,,,,,,,,,,,,,,,,,,,,,,,,,,,,,,,,,,,,,,,,,,,,
,,5f317f269c42ef04587aa7a0,2024-02-22_04h21.57.787,kallum_motion_pilot,2023.2.2,Win32,10.03613007,5f317f269c42ef04587aa7a0,65d6bb0e977760de756971f7,65d6bdbcdd292789db81fbaa,0.048,0.048,1,87,249,9,1,onethree,,,,,,,,,,,,,,,,,,,,,,,,,,,,,,,,,,,,,,,,,,,,,,,,,,,,,,,,,,,,,,,,,,,,,,,,,,,,,,,,,,,,,,,,,,,,,,,,,,,,,,,,,,,,,,,,,,,,,,,,,,,,,,,,,,,,,,,,,
,,5f317f269c42ef04587aa7a0,2024-02-22_04h21.57.787,kallum_motion_pilot,2023.2.2,Win32,10.03613007,5f317f269c42ef04587aa7a0,65d6bb0e977760de756971f7,65d6bdbcdd292789db81fbaa,0.048,0.048,1,88,250,54,1,fourtwo,,,,,,,,,,,,,,,,,,,,,,,,,,,,,,,,,,,,,,,,,,,,,,,,,,,,,,,,,,,,,,,,,,,,,,,,,,,,,,,,,,,,,,,,,,,,,,,,,,,,,,,,,,,,,,,,,,,,,,,,,,,,,,,,,,,,,,,,,
,,5f317f269c42ef04587aa7a0,2024-02-22_04h21.57.787,kallum_motion_pilot,2023.2.2,Win32,10.03613007,5f317f269c42ef04587aa7a0,65d6bb0e977760de756971f7,65d6bdbcdd292789db81fbaa,0.048,0.048,1,89,251,86,1,eightsix,,,,,,,,,,,,,,,,,,,,,,,,,,,,,,,,,,,,,,,,,,,,,,,,,,,,,,,,,,,,,,,,,,,,,,,,,,,,,,,,,,,,,,,,,,,,,,,,,,,,,,,,,,,,,,,,,,,,,,,,,,,,,,,,,,,,,,,,,
,,5f317f269c42ef04587aa7a0,2024-02-22_04h21.57.787,kallum_motion_pilot,2023.2.2,Win32,10.03613007,5f317f269c42ef04587aa7a0,65d6bb0e977760de756971f7,65d6bdbcdd292789db81fbaa,0.048,0.048,1,90,252,15,1,fourthree,,,,,,,,,,,,,,,,,,,,,,,,,,,,,,,,,,,,,,,,,,,,,,,,,,,,,,,,,,,,,,,,,,,,,,,,,,,,,,,,,,,,,,,,,,,,,,,,,,,,,,,,,,,,,,,,,,,,,,,,,,,,,,,,,,,,,,,,,
,,5f317f269c42ef04587aa7a0,2024-02-22_04h21.57.787,kallum_motion_pilot,2023.2.2,Win32,10.03613007,5f317f269c42ef04587aa7a0,65d6bb0e977760de756971f7,65d6bdbcdd292789db81fbaa,0.048,0.048,1,91,253,68,1,threeone,,,,,,,,,,,,,,,,,,,,,,,,,,,,,,,,,,,,,,,,,,,,,,,,,,,,,,,,,,,,,,,,,,,,,,,,,,,,,,,,,,,,,,,,,,,,,,,,,,,,,,,,,,,,,,,,,,,,,,,,,,,,,,,,,,,,,,,,,
,,5f317f269c42ef04587aa7a0,2024-02-22_04h21.57.787,kallum_motion_pilot,2023.2.2,Win32,10.03613007,5f317f269c42ef04587aa7a0,65d6bb0e977760de756971f7,65d6bdbcdd292789db81fbaa,0.048,0.048,1,92,254,104,1,fivesix,,,,,,,,,,,,,,,,,,,,,,,,,,,,,,,,,,,,,,,,,,,,,,,,,,,,,,,,,,,,,,,,,,,,,,,,,,,,,,,,,,,,,,,,,,,,,,,,,,,,,,,,,,,,,,,,,,,,,,,,,,,,,,,,,,,,,,,,,
,,5f317f269c42ef04587aa7a0,2024-02-22_04h21.57.787,kallum_motion_pilot,2023.2.2,Win32,10.03613007,5f317f269c42ef04587aa7a0,65d6bb0e977760de756971f7,65d6bdbcdd292789db81fbaa,0.049,0.049,1,93,255,41,1,onethree,,,,,,,,,,,,,,,,,,,,,,,,,,,,,,,,,,,,,,,,,,,,,,,,,,,,,,,,,,,,,,,,,,,,,,,,,,,,,,,,,,,,,,,,,,,,,,,,,,,,,,,,,,,,,,,,,,,,,,,,,,,,,,,,,,,,,,,,,
,,5f317f269c42ef04587aa7a0,2024-02-22_04h21.57.787,kallum_motion_pilot,2023.2.2,Win32,10.03613007,5f317f269c42ef04587aa7a0,65d6bb0e977760de756971f7,65d6bdbcdd292789db81fbaa,0.049,0.049,1,94,256,31,1,fourthree,,,,,,,,,,,,,,,,,,,,,,,,,,,,,,,,,,,,,,,,,,,,,,,,,,,,,,,,,,,,,,,,,,,,,,,,,,,,,,,,,,,,,,,,,,,,,,,,,,,,,,,,,,,,,,,,,,,,,,,,,,,,,,,,,,,,,,,,,
,,5f317f269c42ef04587aa7a0,2024-02-22_04h21.57.787,kallum_motion_pilot,2023.2.2,Win32,10.03613007,5f317f269c42ef04587aa7a0,65d6bb0e977760de756971f7,65d6bdbcdd292789db81fbaa,0.049,0.049,1,95,257,150,1,eightsix,,,,,,,,,,,,,,,,,,,,,,,,,,,,,,,,,,,,,,,,,,,,,,,,,,,,,,,,,,,,,,,,,,,,,,,,,,,,,,,,,,,,,,,,,,,,,,,,,,,,,,,,,,,,,,,,,,,,,,,,,,,,,,,,,,,,,,,,,
,,5f317f269c42ef04587aa7a0,2024-02-22_04h21.57.787,kallum_motion_pilot,2023.2.2,Win32,10.03613007,5f317f269c42ef04587aa7a0,65d6bb0e977760de756971f7,65d6bdbcdd292789db81fbaa,0.049,0.049,1,96,258,133,1,seveneight,,,,,,,,,,,,,,,,,,,,,,,,,,,,,,,,,,,,,,,,,,,,,,,,,,,,,,,,,,,,,,,,,,,,,,,,,,,,,,,,,,,,,,,,,,,,,,,,,,,,,,,,,,,,,,,,,,,,,,,,,,,,,,,,,,,,,,,,,
,,5f317f269c42ef04587aa7a0,2024-02-22_04h21.57.787,kallum_motion_pilot,2023.2.2,Win32,10.03613007,5f317f269c42ef04587aa7a0,65d6bb0e977760de756971f7,65d6bdbcdd292789db81fbaa,0.049,0.049,1,97,259,64,1,onetwo,,,,,,,,,,,,,,,,,,,,,,,,,,,,,,,,,,,,,,,,,,,,,,,,,,,,,,,,,,,,,,,,,,,,,,,,,,,,,,,,,,,,,,,,,,,,,,,,,,,,,,,,,,,,,,,,,,,,,,,,,,,,,,,,,,,,,,,,,
,,5f317f269c42ef04587aa7a0,2024-02-22_04h21.57.787,kallum_motion_pilot,2023.2.2,Win32,10.03613007,5f317f269c42ef04587aa7a0,65d6bb0e977760de756971f7,65d6bdbcdd292789db81fbaa,0.049,0.049,1,98,260,42,1,twoone,,,,,,,,,,,,,,,,,,,,,,,,,,,,,,,,,,,,,,,,,,,,,,,,,,,,,,,,,,,,,,,,,,,,,,,,,,,,,,,,,,,,,,,,,,,,,,,,,,,,,,,,,,,,,,,,,,,,,,,,,,,,,,,,,,,,,,,,,
,,5f317f269c42ef04587aa7a0,2024-02-22_04h21.57.787,kallum_motion_pilot,2023.2.2,Win32,10.03613007,5f317f269c42ef04587aa7a0,65d6bb0e977760de756971f7,65d6bdbcdd292789db81fbaa,0.05,0.05,1,99,261,159,1,eightseven,,,,,,,,,,,,,,,,,,,,,,,,,,,,,,,,,,,,,,,,,,,,,,,,,,,,,,,,,,,,,,,,,,,,,,,,,,,,,,,,,,,,,,,,,,,,,,,,,,,,,,,,,,,,,,,,,,,,,,,,,,,,,,,,,,,,,,,,,
,,5f317f269c42ef04587aa7a0,2024-02-22_04h21.57.787,kallum_motion_pilot,2023.2.2,Win32,10.03613007,5f317f269c42ef04587aa7a0,65d6bb0e977760de756971f7,65d6bdbcdd292789db81fbaa,0.05,0.05,1,100,262,0,1,onetwo,,,,,,,,,,,,,,,,,,,,,,,,,,,,,,,,,,,,,,,,,,,,,,,,,,,,,,,,,,,,,,,,,,,,,,,,,,,,,,,,,,,,,,,,,,,,,,,,,,,,,,,,,,,,,,,,,,,,,,,,,,,,,,,,,,,,,,,,,
,,5f317f269c42ef04587aa7a0,2024-02-22_04h21.57.787,kallum_motion_pilot,2023.2.2,Win32,10.03613007,5f317f269c42ef04587aa7a0,65d6bb0e977760de756971f7,65d6bdbcdd292789db81fbaa,0.05,0.05,1,101,263,114,1,sixfive,,,,,,,,,,,,,,,,,,,,,,,,,,,,,,,,,,,,,,,,,,,,,,,,,,,,,,,,,,,,,,,,,,,,,,,,,,,,,,,,,,,,,,,,,,,,,,,,,,,,,,,,,,,,,,,,,,,,,,,,,,,,,,,,,,,,,,,,,
,,5f317f269c42ef04587aa7a0,2024-02-22_04h21.57.787,kallum_motion_pilot,2023.2.2,Win32,10.03613007,5f317f269c42ef04587aa7a0,65d6bb0e977760de756971f7,65d6bdbcdd292789db81fbaa,0.05,0.05,1,102,264,151,1,eightseven,,,,,,,,,,,,,,,,,,,,,,,,,,,,,,,,,,,,,,,,,,,,,,,,,,,,,,,,,,,,,,,,,,,,,,,,,,,,,,,,,,,,,,,,,,,,,,,,,,,,,,,,,,,,,,,,,,,,,,,,,,,,,,,,,,,,,,,,,
,,5f317f269c42ef04587aa7a0,2024-02-22_04h21.57.787,kallum_motion_pilot,2023.2.2,Win32,10.03613007,5f317f269c42ef04587aa7a0,65d6bb0e977760de756971f7,65d6bdbcdd292789db81fbaa,0.05,0.05,1,103,265,142,1,eightsix,,,,,,,,,,,,,,,,,,,,,,,,,,,,,,,,,,,,,,,,,,,,,,,,,,,,,,,,,,,,,,,,,,,,,,,,,,,,,,,,,,,,,,,,,,,,,,,,,,,,,,,,,,,,,,,,,,,,,,,,,,,,,,,,,,,,,,,,,
,,5f317f269c42ef04587aa7a0,2024-02-22_04h21.57.787,kallum_motion_pilot,2023.2.2,Win32,10.03613007,5f317f269c42ef04587aa7a0,65d6bb0e977760de756971f7,65d6bdbcdd292789db81fbaa,0.05,0.05,1,104,266,22,1,fourtwo,,,,,,,,,,,,,,,,,,,,,,,,,,,,,,,,,,,,,,,,,,,,,,,,,,,,,,,,,,,,,,,,,,,,,,,,,,,,,,,,,,,,,,,,,,,,,,,,,,,,,,,,,,,,,,,,,,,,,,,,,,,,,,,,,,,,,,,,,
,,5f317f269c42ef04587aa7a0,2024-02-22_04h21.57.787,kallum_motion_pilot,2023.2.2,Win32,10.03613007,5f317f269c42ef04587aa7a0,65d6bb0e977760de756971f7,65d6bdbcdd292789db81fbaa,0.05,0.05,1,105,267,36,1,threeone,,,,,,,,,,,,,,,,,,,,,,,,,,,,,,,,,,,,,,,,,,,,,,,,,,,,,,,,,,,,,,,,,,,,,,,,,,,,,,,,,,,,,,,,,,,,,,,,,,,,,,,,,,,,,,,,,,,,,,,,,,,,,,,,,,,,,,,,,
,,5f317f269c42ef04587aa7a0,2024-02-22_04h21.57.787,kallum_motion_pilot,2023.2.2,Win32,10.03613007,5f317f269c42ef04587aa7a0,65d6bb0e977760de756971f7,65d6bdbcdd292789db81fbaa,0.05,0.05,1,106,268,63,1,fourthree,,,,,,,,,,,,,,,,,,,,,,,,,,,,,,,,,,,,,,,,,,,,,,,,,,,,,,,,,,,,,,,,,,,,,,,,,,,,,,,,,,,,,,,,,,,,,,,,,,,,,,,,,,,,,,,,,,,,,,,,,,,,,,,,,,,,,,,,,
,,5f317f269c42ef04587aa7a0,2024-02-22_04h21.57.787,kallum_motion_pilot,2023.2.2,Win32,10.03613007,5f317f269c42ef04587aa7a0,65d6bb0e977760de756971f7,65d6bdbcdd292789db81fbaa,0.05,0.05,1,107,269,43,1,twofour,,,,,,,,,,,,,,,,,,,,,,,,,,,,,,,,,,,,,,,,,,,,,,,,,,,,,,,,,,,,,,,,,,,,,,,,,,,,,,,,,,,,,,,,,,,,,,,,,,,,,,,,,,,,,,,,,,,,,,,,,,,,,,,,,,,,,,,,,
,,5f317f269c42ef04587aa7a0,2024-02-22_04h21.57.787,kallum_motion_pilot,2023.2.2,Win32,10.03613007,5f317f269c42ef04587aa7a0,65d6bb0e977760de756971f7,65d6bdbcdd292789db81fbaa,0.051,0.051,1,108,270,149,1,seveneight,,,,,,,,,,,,,,,,,,,,,,,,,,,,,,,,,,,,,,,,,,,,,,,,,,,,,,,,,,,,,,,,,,,,,,,,,,,,,,,,,,,,,,,,,,,,,,,,,,,,,,,,,,,,,,,,,,,,,,,,,,,,,,,,,,,,,,,,,
,,5f317f269c42ef04587aa7a0,2024-02-22_04h21.57.787,kallum_motion_pilot,2023.2.2,Win32,10.03613007,5f317f269c42ef04587aa7a0,65d6bb0e977760de756971f7,65d6bdbcdd292789db81fbaa,0.051,0.051,1,109,271,113,1,fiveseven,,,,,,,,,,,,,,,,,,,,,,,,,,,,,,,,,,,,,,,,,,,,,,,,,,,,,,,,,,,,,,,,,,,,,,,,,,,,,,,,,,,,,,,,,,,,,,,,,,,,,,,,,,,,,,,,,,,,,,,,,,,,,,,,,,,,,,,,,
,,5f317f269c42ef04587aa7a0,2024-02-22_04h21.57.787,kallum_motion_pilot,2023.2.2,Win32,10.03613007,5f317f269c42ef04587aa7a0,65d6bb0e977760de756971f7,65d6bdbcdd292789db81fbaa,0.051,0.051,1,110,272,26,1,twoone,,,,,,,,,,,,,,,,,,,,,,,,,,,,,,,,,,,,,,,,,,,,,,,,,,,,,,,,,,,,,,,,,,,,,,,,,,,,,,,,,,,,,,,,,,,,,,,,,,,,,,,,,,,,,,,,,,,,,,,,,,,,,,,,,,,,,,,,,
,,5f317f269c42ef04587aa7a0,2024-02-22_04h21.57.787,kallum_motion_pilot,2023.2.2,Win32,10.03613007,5f317f269c42ef04587aa7a0,65d6bb0e977760de756971f7,65d6bdbcdd292789db81fbaa,0.051,0.051,1,111,273,152,1,fivesix,,,,,,,,,,,,,,,,,,,,,,,,,,,,,,,,,,,,,,,,,,,,,,,,,,,,,,,,,,,,,,,,,,,,,,,,,,,,,,,,,,,,,,,,,,,,,,,,,,,,,,,,,,,,,,,,,,,,,,,,,,,,,,,,,,,,,,,,,
,,5f317f269c42ef04587aa7a0,2024-02-22_04h21.57.787,kallum_motion_pilot,2023.2.2,Win32,10.03613007,5f317f269c42ef04587aa7a0,65d6bb0e977760de756971f7,65d6bdbcdd292789db81fbaa,0.051,0.051,1,112,274,1,1,onethree,,,,,,,,,,,,,,,,,,,,,,,,,,,,,,,,,,,,,,,,,,,,,,,,,,,,,,,,,,,,,,,,,,,,,,,,,,,,,,,,,,,,,,,,,,,,,,,,,,,,,,,,,,,,,,,,,,,,,,,,,,,,,,,,,,,,,,,,,
,,5f317f269c42ef04587aa7a0,2024-02-22_04h21.57.787,kallum_motion_pilot,2023.2.2,Win32,10.03613007,5f317f269c42ef04587aa7a0,65d6bb0e977760de756971f7,65d6bdbcdd292789db81fbaa,0.051,0.051,1,113,275,71,1,fourthree,,,,,,,,,,,,,,,,,,,,,,,,,,,,,,,,,,,,,,,,,,,,,,,,,,,,,,,,,,,,,,,,,,,,,,,,,,,,,,,,,,,,,,,,,,,,,,,,,,,,,,,,,,,,,,,,,,,,,,,,,,,,,,,,,,,,,,,,,
,,5f317f269c42ef04587aa7a0,2024-02-22_04h21.57.787,kallum_motion_pilot,2023.2.2,Win32,10.03613007,5f317f269c42ef04587aa7a0,65d6bb0e977760de756971f7,65d6bdbcdd292789db81fbaa,0.051,0.051,1,114,276,27,1,twofour,,,,,,,,,,,,,,,,,,,,,,,,,,,,,,,,,,,,,,,,,,,,,,,,,,,,,,,,,,,,,,,,,,,,,,,,,,,,,,,,,,,,,,,,,,,,,,,,,,,,,,,,,,,,,,,,,,,,,,,,,,,,,,,,,,,,,,,,,
,,5f317f269c42ef04587aa7a0,2024-02-22_04h21.57.787,kallum_motion_pilot,2023.2.2,Win32,10.03613007,5f317f269c42ef04587aa7a0,65d6bb0e977760de756971f7,65d6bdbcdd292789db81fbaa,0.051,0.051,1,115,277,10,1,twoone,,,,,,,,,,,,,,,,,,,,,,,,,,,,,,,,,,,,,,,,,,,,,,,,,,,,,,,,,,,,,,,,,,,,,,,,,,,,,,,,,,,,,,,,,,,,,,,,,,,,,,,,,,,,,,,,,,,,,,,,,,,,,,,,,,,,,,,,,
,,5f317f269c42ef04587aa7a0,2024-02-22_04h21.57.787,kallum_motion_pilot,2023.2.2,Win32,10.03613007,5f317f269c42ef04587aa7a0,65d6bb0e977760de756971f7,65d6bdbcdd292789db81fbaa,0.052,0.052,1,116,278,148,1,sevenfive,,,,,,,,,,,,,,,,,,,,,,,,,,,,,,,,,,,,,,,,,,,,,,,,,,,,,,,,,,,,,,,,,,,,,,,,,,,,,,,,,,,,,,,,,,,,,,,,,,,,,,,,,,,,,,,,,,,,,,,,,,,,,,,,,,,,,,,,,
,,5f317f269c42ef04587aa7a0,2024-02-22_04h21.57.787,kallum_motion_pilot,2023.2.2,Win32,10.03613007,5f317f269c42ef04587aa7a0,65d6bb0e977760de756971f7,65d6bdbcdd292789db81fbaa,0.052,0.052,1,117,279,137,1,fiveseven,,,,,,,,,,,,,,,,,,,,,,,,,,,,,,,,,,,,,,,,,,,,,,,,,,,,,,,,,,,,,,,,,,,,,,,,,,,,,,,,,,,,,,,,,,,,,,,,,,,,,,,,,,,,,,,,,,,,,,,,,,,,,,,,,,,,,,,,,
