startup.started,startup.stopped,Prolific ID*,date,expName,psychopyVersion,OS,frameRate,participant,study_id,session,stimpositions.started,stimpositions.stopped,hardcoded_stimulus_positions.thisRepN,hardcoded_stimulus_positions.thisTrialN,hardcoded_stimulus_positions.thisN,hardcoded_stimulus_positions.thisIndex,hardcoded_stimulus_positions.ran,StimulusPos,stimorientation.started,stimorientation.stopped,prac_stimorientation_import_loop.thisRepN,prac_stimorientation_import_loop.thisTrialN,prac_stimorientation_import_loop.thisN,prac_stimorientation_import_loop.thisIndex,prac_stimorientation_import_loop.ran,Stimorientation,welcome_instr.started,welcome_instr.stopped,key_resp.keys,key_resp.rt,key_resp.duration,response_steppedout_1.started,response_steppedout_1.stopped,key_resp_20.keys,key_resp_20.rt,key_resp_20.duration,response_steppedout_2.started,response_steppedout_2.stopped,key_resp_19.keys,key_resp_19.rt,key_resp_19.duration,stim_response_instr.started,stim_response_instr.stopped,key_resp_15.keys,key_resp_15.rt,key_resp_15.duration,direction_instr_2.started,direction_instr_2.stopped,key_resp_9.keys,key_resp_9.rt,key_resp_9.duration,instr_prac.started,instr_prac.stopped,key_resp_10.keys,key_resp_10.rt,key_resp_10.duration,Stim1_display_prac.started,Stim1_display_prac.stopped,Ecc,Circle1_ori,Circle2_ori,response_prac.started,similarity,response_time,response_prac.stopped,mouse_5.x,mouse_5.y,mouse_5.leftButton,mouse_5.midButton,mouse_5.rightButton,mouse_5.clicked_name,responseprac_feedback.started,responseprac_feedback.stopped,summary2_prac.started,summary2_prac.stopped,mouse_6.x,mouse_6.y,mouse_6.leftButton,mouse_6.midButton,mouse_6.rightButton,mouse_6.clicked_name,duringprac.thisRepN,duringprac.thisTrialN,duringprac.thisN,duringprac.thisIndex,duringprac.ran,begin.started,begin.stopped,key_resp_22.keys,key_resp_22.rt,key_resp_22.duration,Stim1_display.started,Stim1_display.stopped,circle1_ori,circle2_ori,circle1_SF,circle2_SF,response.started,response.stopped,mouse.x,mouse.y,mouse.leftButton,mouse.midButton,mouse.rightButton,mouse.clicked_name,trialnumber,double_pass.thisRepN,double_pass.thisTrialN,double_pass.thisN,double_pass.thisIndex,double_pass.ran,double_pass.order,main_trial.thisRepN,main_trial.thisTrialN,main_trial.thisN,main_trial.thisIndex,main_trial.ran,main_trial.order,Trial_Counter,Catch,Frequencies,response_2.started,response_2.stopped,mouse_2.x,mouse_2.y,mouse_2.leftButton,mouse_2.midButton,mouse_2.rightButton,mouse_2.clicked_name,special_trial.started,special_trial.stopped,catch_1.started,catch_1.stopped,mouse_3.x,mouse_3.y,mouse_3.leftButton,mouse_3.midButton,mouse_3.rightButton,catchresponse,catchnumber,response_time_catch,response_sum.started,response_sum.stopped,mouse_11.x,mouse_11.y,mouse_11.leftButton,mouse_11.midButton,mouse_11.rightButton,flip_presentation_sequence_for_double_pass.started,flip_presentation_sequence_for_double_pass.stopped,goodbye.started,goodbye.stopped,key_resp_3.keys,key_resp_3.rt,key_resp_3.duration
0.002,0.002,5f3b3d16d2664625fcfa73aa,2024-02-22_04h16.51.848,kallum_motion_pilot,2023.2.2,Win32,58.82352941,5f3b3d16d2664625fcfa73aa,65d6bb0e977760de756971f7,65d6bcaa56de2f00fa72f85b,,,,,,,,,,,,,,,,,,,,,,,,,,,,,,,,,,,,,,,,,,,,,,,,,,,,,,,,,,,,,,,,,,,,,,,,,,,,,,,,,,,,,,,,,,,,,,,,,,,,,,,,,,,,,,,,,,,,,,,,,,,,,,,,,,,,,,,,,,,,,,,,,
,,5f3b3d16d2664625fcfa73aa,2024-02-22_04h16.51.848,kallum_motion_pilot,2023.2.2,Win32,58.82352941,5f3b3d16d2664625fcfa73aa,65d6bb0e977760de756971f7,65d6bcaa56de2f00fa72f85b,0.019,0.019,0,0,0,112,1,fivesix,,,,,,,,,,,,,,,,,,,,,,,,,,,,,,,,,,,,,,,,,,,,,,,,,,,,,,,,,,,,,,,,,,,,,,,,,,,,,,,,,,,,,,,,,,,,,,,,,,,,,,,,,,,,,,,,,,,,,,,,,,,,,,,,,,,,,,,,,
,,5f3b3d16d2664625fcfa73aa,2024-02-22_04h16.51.848,kallum_motion_pilot,2023.2.2,Win32,58.82352941,5f3b3d16d2664625fcfa73aa,65d6bb0e977760de756971f7,65d6bcaa56de2f00fa72f85b,0.019,0.019,0,1,1,66,1,twoone,,,,,,,,,,,,,,,,,,,,,,,,,,,,,,,,,,,,,,,,,,,,,,,,,,,,,,,,,,,,,,,,,,,,,,,,,,,,,,,,,,,,,,,,,,,,,,,,,,,,,,,,,,,,,,,,,,,,,,,,,,,,,,,,,,,,,,,,,
,,5f3b3d16d2664625fcfa73aa,2024-02-22_04h16.51.848,kallum_motion_pilot,2023.2.2,Win32,58.82352941,5f3b3d16d2664625fcfa73aa,65d6bb0e977760de756971f7,65d6bcaa56de2f00fa72f85b,0.019,0.019,0,2,2,151,1,eightseven,,,,,,,,,,,,,,,,,,,,,,,,,,,,,,,,,,,,,,,,,,,,,,,,,,,,,,,,,,,,,,,,,,,,,,,,,,,,,,,,,,,,,,,,,,,,,,,,,,,,,,,,,,,,,,,,,,,,,,,,,,,,,,,,,,,,,,,,,
,,5f3b3d16d2664625fcfa73aa,2024-02-22_04h16.51.848,kallum_motion_pilot,2023.2.2,Win32,58.82352941,5f3b3d16d2664625fcfa73aa,65d6bb0e977760de756971f7,65d6bcaa56de2f00fa72f85b,0.019,0.019,0,3,3,18,1,twoone,,,,,,,,,,,,,,,,,,,,,,,,,,,,,,,,,,,,,,,,,,,,,,,,,,,,,,,,,,,,,,,,,,,,,,,,,,,,,,,,,,,,,,,,,,,,,,,,,,,,,,,,,,,,,,,,,,,,,,,,,,,,,,,,,,,,,,,,,
,,5f3b3d16d2664625fcfa73aa,2024-02-22_04h16.51.848,kallum_motion_pilot,2023.2.2,Win32,58.82352941,5f3b3d16d2664625fcfa73aa,65d6bb0e977760de756971f7,65d6bcaa56de2f00fa72f85b,0.02,0.02,0,4,4,81,1,fiveseven,,,,,,,,,,,,,,,,,,,,,,,,,,,,,,,,,,,,,,,,,,,,,,,,,,,,,,,,,,,,,,,,,,,,,,,,,,,,,,,,,,,,,,,,,,,,,,,,,,,,,,,,,,,,,,,,,,,,,,,,,,,,,,,,,,,,,,,,,
,,5f3b3d16d2664625fcfa73aa,2024-02-22_04h16.51.848,kallum_motion_pilot,2023.2.2,Win32,58.82352941,5f3b3d16d2664625fcfa73aa,65d6bb0e977760de756971f7,65d6bcaa56de2f00fa72f85b,0.02,0.02,0,5,5,60,1,threeone,,,,,,,,,,,,,,,,,,,,,,,,,,,,,,,,,,,,,,,,,,,,,,,,,,,,,,,,,,,,,,,,,,,,,,,,,,,,,,,,,,,,,,,,,,,,,,,,,,,,,,,,,,,,,,,,,,,,,,,,,,,,,,,,,,,,,,,,,
,,5f3b3d16d2664625fcfa73aa,2024-02-22_04h16.51.848,kallum_motion_pilot,2023.2.2,Win32,58.82352941,5f3b3d16d2664625fcfa73aa,65d6bb0e977760de756971f7,65d6bcaa56de2f00fa72f85b,0.02,0.02,0,6,6,56,1,onetwo,,,,,,,,,,,,,,,,,,,,,,,,,,,,,,,,,,,,,,,,,,,,,,,,,,,,,,,,,,,,,,,,,,,,,,,,,,,,,,,,,,,,,,,,,,,,,,,,,,,,,,,,,,,,,,,,,,,,,,,,,,,,,,,,,,,,,,,,,
,,5f3b3d16d2664625fcfa73aa,2024-02-22_04h16.51.848,kallum_motion_pilot,2023.2.2,Win32,58.82352941,5f3b3d16d2664625fcfa73aa,65d6bb0e977760de756971f7,65d6bcaa56de2f00fa72f85b,0.02,0.02,0,7,7,109,1,seveneight,,,,,,,,,,,,,,,,,,,,,,,,,,,,,,,,,,,,,,,,,,,,,,,,,,,,,,,,,,,,,,,,,,,,,,,,,,,,,,,,,,,,,,,,,,,,,,,,,,,,,,,,,,,,,,,,,,,,,,,,,,,,,,,,,,,,,,,,,
,,5f3b3d16d2664625fcfa73aa,2024-02-22_04h16.51.848,kallum_motion_pilot,2023.2.2,Win32,58.82352941,5f3b3d16d2664625fcfa73aa,65d6bb0e977760de756971f7,65d6bcaa56de2f00fa72f85b,0.02,0.02,0,8,8,85,1,seveneight,,,,,,,,,,,,,,,,,,,,,,,,,,,,,,,,,,,,,,,,,,,,,,,,,,,,,,,,,,,,,,,,,,,,,,,,,,,,,,,,,,,,,,,,,,,,,,,,,,,,,,,,,,,,,,,,,,,,,,,,,,,,,,,,,,,,,,,,,
,,5f3b3d16d2664625fcfa73aa,2024-02-22_04h16.51.848,kallum_motion_pilot,2023.2.2,Win32,58.82352941,5f3b3d16d2664625fcfa73aa,65d6bb0e977760de756971f7,65d6bcaa56de2f00fa72f85b,0.02,0.02,0,9,9,25,1,onethree,,,,,,,,,,,,,,,,,,,,,,,,,,,,,,,,,,,,,,,,,,,,,,,,,,,,,,,,,,,,,,,,,,,,,,,,,,,,,,,,,,,,,,,,,,,,,,,,,,,,,,,,,,,,,,,,,,,,,,,,,,,,,,,,,,,,,,,,,
,,5f3b3d16d2664625fcfa73aa,2024-02-22_04h16.51.848,kallum_motion_pilot,2023.2.2,Win32,58.82352941,5f3b3d16d2664625fcfa73aa,65d6bb0e977760de756971f7,65d6bcaa56de2f00fa72f85b,0.02,0.02,0,10,10,75,1,twofour,,,,,,,,,,,,,,,,,,,,,,,,,,,,,,,,,,,,,,,,,,,,,,,,,,,,,,,,,,,,,,,,,,,,,,,,,,,,,,,,,,,,,,,,,,,,,,,,,,,,,,,,,,,,,,,,,,,,,,,,,,,,,,,,,,,,,,,,,
,,5f3b3d16d2664625fcfa73aa,2024-02-22_04h16.51.848,kallum_motion_pilot,2023.2.2,Win32,58.82352941,5f3b3d16d2664625fcfa73aa,65d6bb0e977760de756971f7,65d6bcaa56de2f00fa72f85b,0.02,0.02,0,11,11,135,1,eightseven,,,,,,,,,,,,,,,,,,,,,,,,,,,,,,,,,,,,,,,,,,,,,,,,,,,,,,,,,,,,,,,,,,,,,,,,,,,,,,,,,,,,,,,,,,,,,,,,,,,,,,,,,,,,,,,,,,,,,,,,,,,,,,,,,,,,,,,,,
,,5f3b3d16d2664625fcfa73aa,2024-02-22_04h16.51.848,kallum_motion_pilot,2023.2.2,Win32,58.82352941,5f3b3d16d2664625fcfa73aa,65d6bb0e977760de756971f7,65d6bcaa56de2f00fa72f85b,0.02,0.02,0,12,12,94,1,eightsix,,,,,,,,,,,,,,,,,,,,,,,,,,,,,,,,,,,,,,,,,,,,,,,,,,,,,,,,,,,,,,,,,,,,,,,,,,,,,,,,,,,,,,,,,,,,,,,,,,,,,,,,,,,,,,,,,,,,,,,,,,,,,,,,,,,,,,,,,
,,5f3b3d16d2664625fcfa73aa,2024-02-22_04h16.51.848,kallum_motion_pilot,2023.2.2,Win32,58.82352941,5f3b3d16d2664625fcfa73aa,65d6bb0e977760de756971f7,65d6bcaa56de2f00fa72f85b,0.02,0.02,0,13,13,114,1,sixfive,,,,,,,,,,,,,,,,,,,,,,,,,,,,,,,,,,,,,,,,,,,,,,,,,,,,,,,,,,,,,,,,,,,,,,,,,,,,,,,,,,,,,,,,,,,,,,,,,,,,,,,,,,,,,,,,,,,,,,,,,,,,,,,,,,,,,,,,,
,,5f3b3d16d2664625fcfa73aa,2024-02-22_04h16.51.848,kallum_motion_pilot,2023.2.2,Win32,58.82352941,5f3b3d16d2664625fcfa73aa,65d6bb0e977760de756971f7,65d6bcaa56de2f00fa72f85b,0.02,0.02,0,14,14,50,1,twoone,,,,,,,,,,,,,,,,,,,,,,,,,,,,,,,,,,,,,,,,,,,,,,,,,,,,,,,,,,,,,,,,,,,,,,,,,,,,,,,,,,,,,,,,,,,,,,,,,,,,,,,,,,,,,,,,,,,,,,,,,,,,,,,,,,,,,,,,,
,,5f3b3d16d2664625fcfa73aa,2024-02-22_04h16.51.848,kallum_motion_pilot,2023.2.2,Win32,58.82352941,5f3b3d16d2664625fcfa73aa,65d6bb0e977760de756971f7,65d6bcaa56de2f00fa72f85b,0.02,0.02,0,15,15,122,1,sixfive,,,,,,,,,,,,,,,,,,,,,,,,,,,,,,,,,,,,,,,,,,,,,,,,,,,,,,,,,,,,,,,,,,,,,,,,,,,,,,,,,,,,,,,,,,,,,,,,,,,,,,,,,,,,,,,,,,,,,,,,,,,,,,,,,,,,,,,,,
,,5f3b3d16d2664625fcfa73aa,2024-02-22_04h16.51.848,kallum_motion_pilot,2023.2.2,Win32,58.82352941,5f3b3d16d2664625fcfa73aa,65d6bb0e977760de756971f7,65d6bcaa56de2f00fa72f85b,0.021,0.021,0,16,16,34,1,twoone,,,,,,,,,,,,,,,,,,,,,,,,,,,,,,,,,,,,,,,,,,,,,,,,,,,,,,,,,,,,,,,,,,,,,,,,,,,,,,,,,,,,,,,,,,,,,,,,,,,,,,,,,,,,,,,,,,,,,,,,,,,,,,,,,,,,,,,,,
,,5f3b3d16d2664625fcfa73aa,2024-02-22_04h16.51.848,kallum_motion_pilot,2023.2.2,Win32,58.82352941,5f3b3d16d2664625fcfa73aa,65d6bb0e977760de756971f7,65d6bcaa56de2f00fa72f85b,0.021,0.021,0,17,17,127,1,eightseven,,,,,,,,,,,,,,,,,,,,,,,,,,,,,,,,,,,,,,,,,,,,,,,,,,,,,,,,,,,,,,,,,,,,,,,,,,,,,,,,,,,,,,,,,,,,,,,,,,,,,,,,,,,,,,,,,,,,,,,,,,,,,,,,,,,,,,,,,
,,5f3b3d16d2664625fcfa73aa,2024-02-22_04h16.51.848,kallum_motion_pilot,2023.2.2,Win32,58.82352941,5f3b3d16d2664625fcfa73aa,65d6bb0e977760de756971f7,65d6bcaa56de2f00fa72f85b,0.021,0.021,0,18,18,5,1,threefour,,,,,,,,,,,,,,,,,,,,,,,,,,,,,,,,,,,,,,,,,,,,,,,,,,,,,,,,,,,,,,,,,,,,,,,,,,,,,,,,,,,,,,,,,,,,,,,,,,,,,,,,,,,,,,,,,,,,,,,,,,,,,,,,,,,,,,,,,
,,5f3b3d16d2664625fcfa73aa,2024-02-22_04h16.51.848,kallum_motion_pilot,2023.2.2,Win32,58.82352941,5f3b3d16d2664625fcfa73aa,65d6bb0e977760de756971f7,65d6bcaa56de2f00fa72f85b,0.021,0.021,0,19,19,140,1,sevenfive,,,,,,,,,,,,,,,,,,,,,,,,,,,,,,,,,,,,,,,,,,,,,,,,,,,,,,,,,,,,,,,,,,,,,,,,,,,,,,,,,,,,,,,,,,,,,,,,,,,,,,,,,,,,,,,,,,,,,,,,,,,,,,,,,,,,,,,,,
,,5f3b3d16d2664625fcfa73aa,2024-02-22_04h16.51.848,kallum_motion_pilot,2023.2.2,Win32,58.82352941,5f3b3d16d2664625fcfa73aa,65d6bb0e977760de756971f7,65d6bcaa56de2f00fa72f85b,0.021,0.021,0,20,20,121,1,fiveseven,,,,,,,,,,,,,,,,,,,,,,,,,,,,,,,,,,,,,,,,,,,,,,,,,,,,,,,,,,,,,,,,,,,,,,,,,,,,,,,,,,,,,,,,,,,,,,,,,,,,,,,,,,,,,,,,,,,,,,,,,,,,,,,,,,,,,,,,,
,,5f3b3d16d2664625fcfa73aa,2024-02-22_04h16.51.848,kallum_motion_pilot,2023.2.2,Win32,58.82352941,5f3b3d16d2664625fcfa73aa,65d6bb0e977760de756971f7,65d6bcaa56de2f00fa72f85b,0.021,0.021,0,21,21,67,1,twofour,,,,,,,,,,,,,,,,,,,,,,,,,,,,,,,,,,,,,,,,,,,,,,,,,,,,,,,,,,,,,,,,,,,,,,,,,,,,,,,,,,,,,,,,,,,,,,,,,,,,,,,,,,,,,,,,,,,,,,,,,,,,,,,,,,,,,,,,,
,,5f3b3d16d2664625fcfa73aa,2024-02-22_04h16.51.848,kallum_motion_pilot,2023.2.2,Win32,58.82352941,5f3b3d16d2664625fcfa73aa,65d6bb0e977760de756971f7,65d6bcaa56de2f00fa72f85b,0.021,0.021,0,22,22,24,1,onetwo,,,,,,,,,,,,,,,,,,,,,,,,,,,,,,,,,,,,,,,,,,,,,,,,,,,,,,,,,,,,,,,,,,,,,,,,,,,,,,,,,,,,,,,,,,,,,,,,,,,,,,,,,,,,,,,,,,,,,,,,,,,,,,,,,,,,,,,,,
,,5f3b3d16d2664625fcfa73aa,2024-02-22_04h16.51.848,kallum_motion_pilot,2023.2.2,Win32,58.82352941,5f3b3d16d2664625fcfa73aa,65d6bb0e977760de756971f7,65d6bcaa56de2f00fa72f85b,0.021,0.021,0,23,23,22,1,fourtwo,,,,,,,,,,,,,,,,,,,,,,,,,,,,,,,,,,,,,,,,,,,,,,,,,,,,,,,,,,,,,,,,,,,,,,,,,,,,,,,,,,,,,,,,,,,,,,,,,,,,,,,,,,,,,,,,,,,,,,,,,,,,,,,,,,,,,,,,,
,,5f3b3d16d2664625fcfa73aa,2024-02-22_04h16.51.848,kallum_motion_pilot,2023.2.2,Win32,58.82352941,5f3b3d16d2664625fcfa73aa,65d6bb0e977760de756971f7,65d6bcaa56de2f00fa72f85b,0.021,0.021,0,24,24,99,1,sixeight,,,,,,,,,,,,,,,,,,,,,,,,,,,,,,,,,,,,,,,,,,,,,,,,,,,,,,,,,,,,,,,,,,,,,,,,,,,,,,,,,,,,,,,,,,,,,,,,,,,,,,,,,,,,,,,,,,,,,,,,,,,,,,,,,,,,,,,,,
,,5f3b3d16d2664625fcfa73aa,2024-02-22_04h16.51.848,kallum_motion_pilot,2023.2.2,Win32,58.82352941,5f3b3d16d2664625fcfa73aa,65d6bb0e977760de756971f7,65d6bcaa56de2f00fa72f85b,0.021,0.021,0,25,25,77,1,threefour,,,,,,,,,,,,,,,,,,,,,,,,,,,,,,,,,,,,,,,,,,,,,,,,,,,,,,,,,,,,,,,,,,,,,,,,,,,,,,,,,,,,,,,,,,,,,,,,,,,,,,,,,,,,,,,,,,,,,,,,,,,,,,,,,,,,,,,,,
,,5f3b3d16d2664625fcfa73aa,2024-02-22_04h16.51.848,kallum_motion_pilot,2023.2.2,Win32,58.82352941,5f3b3d16d2664625fcfa73aa,65d6bb0e977760de756971f7,65d6bcaa56de2f00fa72f85b,0.021,0.021,0,26,26,101,1,seveneight,,,,,,,,,,,,,,,,,,,,,,,,,,,,,,,,,,,,,,,,,,,,,,,,,,,,,,,,,,,,,,,,,,,,,,,,,,,,,,,,,,,,,,,,,,,,,,,,,,,,,,,,,,,,,,,,,,,,,,,,,,,,,,,,,,,,,,,,,
,,5f3b3d16d2664625fcfa73aa,2024-02-22_04h16.51.848,kallum_motion_pilot,2023.2.2,Win32,58.82352941,5f3b3d16d2664625fcfa73aa,65d6bb0e977760de756971f7,65d6bcaa56de2f00fa72f85b,0.021,0.021,0,27,27,17,1,onethree,,,,,,,,,,,,,,,,,,,,,,,,,,,,,,,,,,,,,,,,,,,,,,,,,,,,,,,,,,,,,,,,,,,,,,,,,,,,,,,,,,,,,,,,,,,,,,,,,,,,,,,,,,,,,,,,,,,,,,,,,,,,,,,,,,,,,,,,,
,,5f3b3d16d2664625fcfa73aa,2024-02-22_04h16.51.848,kallum_motion_pilot,2023.2.2,Win32,58.82352941,5f3b3d16d2664625fcfa73aa,65d6bb0e977760de756971f7,65d6bcaa56de2f00fa72f85b,0.021,0.021,0,28,28,12,1,threeone,,,,,,,,,,,,,,,,,,,,,,,,,,,,,,,,,,,,,,,,,,,,,,,,,,,,,,,,,,,,,,,,,,,,,,,,,,,,,,,,,,,,,,,,,,,,,,,,,,,,,,,,,,,,,,,,,,,,,,,,,,,,,,,,,,,,,,,,,
,,5f3b3d16d2664625fcfa73aa,2024-02-22_04h16.51.848,kallum_motion_pilot,2023.2.2,Win32,58.82352941,5f3b3d16d2664625fcfa73aa,65d6bb0e977760de756971f7,65d6bcaa56de2f00fa72f85b,0.021,0.021,0,29,29,70,1,fourtwo,,,,,,,,,,,,,,,,,,,,,,,,,,,,,,,,,,,,,,,,,,,,,,,,,,,,,,,,,,,,,,,,,,,,,,,,,,,,,,,,,,,,,,,,,,,,,,,,,,,,,,,,,,,,,,,,,,,,,,,,,,,,,,,,,,,,,,,,,
,,5f3b3d16d2664625fcfa73aa,2024-02-22_04h16.51.848,kallum_motion_pilot,2023.2.2,Win32,58.82352941,5f3b3d16d2664625fcfa73aa,65d6bb0e977760de756971f7,65d6bcaa56de2f00fa72f85b,0.021,0.021,0,30,30,58,1,twoone,,,,,,,,,,,,,,,,,,,,,,,,,,,,,,,,,,,,,,,,,,,,,,,,,,,,,,,,,,,,,,,,,,,,,,,,,,,,,,,,,,,,,,,,,,,,,,,,,,,,,,,,,,,,,,,,,,,,,,,,,,,,,,,,,,,,,,,,,
,,5f3b3d16d2664625fcfa73aa,2024-02-22_04h16.51.848,kallum_motion_pilot,2023.2.2,Win32,58.82352941,5f3b3d16d2664625fcfa73aa,65d6bb0e977760de756971f7,65d6bcaa56de2f00fa72f85b,0.021,0.021,0,31,31,59,1,twofour,,,,,,,,,,,,,,,,,,,,,,,,,,,,,,,,,,,,,,,,,,,,,,,,,,,,,,,,,,,,,,,,,,,,,,,,,,,,,,,,,,,,,,,,,,,,,,,,,,,,,,,,,,,,,,,,,,,,,,,,,,,,,,,,,,,,,,,,,
,,5f3b3d16d2664625fcfa73aa,2024-02-22_04h16.51.848,kallum_motion_pilot,2023.2.2,Win32,58.82352941,5f3b3d16d2664625fcfa73aa,65d6bb0e977760de756971f7,65d6bcaa56de2f00fa72f85b,0.021,0.021,0,32,32,161,1,fiveseven,,,,,,,,,,,,,,,,,,,,,,,,,,,,,,,,,,,,,,,,,,,,,,,,,,,,,,,,,,,,,,,,,,,,,,,,,,,,,,,,,,,,,,,,,,,,,,,,,,,,,,,,,,,,,,,,,,,,,,,,,,,,,,,,,,,,,,,,,
,,5f3b3d16d2664625fcfa73aa,2024-02-22_04h16.51.848,kallum_motion_pilot,2023.2.2,Win32,58.82352941,5f3b3d16d2664625fcfa73aa,65d6bb0e977760de756971f7,65d6bcaa56de2f00fa72f85b,0.021,0.021,0,33,33,4,1,threeone,,,,,,,,,,,,,,,,,,,,,,,,,,,,,,,,,,,,,,,,,,,,,,,,,,,,,,,,,,,,,,,,,,,,,,,,,,,,,,,,,,,,,,,,,,,,,,,,,,,,,,,,,,,,,,,,,,,,,,,,,,,,,,,,,,,,,,,,,
,,5f3b3d16d2664625fcfa73aa,2024-02-22_04h16.51.848,kallum_motion_pilot,2023.2.2,Win32,58.82352941,5f3b3d16d2664625fcfa73aa,65d6bb0e977760de756971f7,65d6bcaa56de2f00fa72f85b,0.021,0.021,0,34,34,76,1,threeone,,,,,,,,,,,,,,,,,,,,,,,,,,,,,,,,,,,,,,,,,,,,,,,,,,,,,,,,,,,,,,,,,,,,,,,,,,,,,,,,,,,,,,,,,,,,,,,,,,,,,,,,,,,,,,,,,,,,,,,,,,,,,,,,,,,,,,,,,
,,5f3b3d16d2664625fcfa73aa,2024-02-22_04h16.51.848,kallum_motion_pilot,2023.2.2,Win32,58.82352941,5f3b3d16d2664625fcfa73aa,65d6bb0e977760de756971f7,65d6bcaa56de2f00fa72f85b,0.021,0.021,0,35,35,73,1,onethree,,,,,,,,,,,,,,,,,,,,,,,,,,,,,,,,,,,,,,,,,,,,,,,,,,,,,,,,,,,,,,,,,,,,,,,,,,,,,,,,,,,,,,,,,,,,,,,,,,,,,,,,,,,,,,,,,,,,,,,,,,,,,,,,,,,,,,,,,
,,5f3b3d16d2664625fcfa73aa,2024-02-22_04h16.51.848,kallum_motion_pilot,2023.2.2,Win32,58.82352941,5f3b3d16d2664625fcfa73aa,65d6bb0e977760de756971f7,65d6bcaa56de2f00fa72f85b,0.021,0.021,0,36,36,144,1,fivesix,,,,,,,,,,,,,,,,,,,,,,,,,,,,,,,,,,,,,,,,,,,,,,,,,,,,,,,,,,,,,,,,,,,,,,,,,,,,,,,,,,,,,,,,,,,,,,,,,,,,,,,,,,,,,,,,,,,,,,,,,,,,,,,,,,,,,,,,,
,,5f3b3d16d2664625fcfa73aa,2024-02-22_04h16.51.848,kallum_motion_pilot,2023.2.2,Win32,58.82352941,5f3b3d16d2664625fcfa73aa,65d6bb0e977760de756971f7,65d6bcaa56de2f00fa72f85b,0.021,0.021,0,37,37,150,1,eightsix,,,,,,,,,,,,,,,,,,,,,,,,,,,,,,,,,,,,,,,,,,,,,,,,,,,,,,,,,,,,,,,,,,,,,,,,,,,,,,,,,,,,,,,,,,,,,,,,,,,,,,,,,,,,,,,,,,,,,,,,,,,,,,,,,,,,,,,,,
,,5f3b3d16d2664625fcfa73aa,2024-02-22_04h16.51.848,kallum_motion_pilot,2023.2.2,Win32,58.82352941,5f3b3d16d2664625fcfa73aa,65d6bb0e977760de756971f7,65d6bcaa56de2f00fa72f85b,0.022,0.022,0,38,38,46,1,fourtwo,,,,,,,,,,,,,,,,,,,,,,,,,,,,,,,,,,,,,,,,,,,,,,,,,,,,,,,,,,,,,,,,,,,,,,,,,,,,,,,,,,,,,,,,,,,,,,,,,,,,,,,,,,,,,,,,,,,,,,,,,,,,,,,,,,,,,,,,,
,,5f3b3d16d2664625fcfa73aa,2024-02-22_04h16.51.848,kallum_motion_pilot,2023.2.2,Win32,58.82352941,5f3b3d16d2664625fcfa73aa,65d6bb0e977760de756971f7,65d6bcaa56de2f00fa72f85b,0.022,0.022,0,39,39,137,1,fiveseven,,,,,,,,,,,,,,,,,,,,,,,,,,,,,,,,,,,,,,,,,,,,,,,,,,,,,,,,,,,,,,,,,,,,,,,,,,,,,,,,,,,,,,,,,,,,,,,,,,,,,,,,,,,,,,,,,,,,,,,,,,,,,,,,,,,,,,,,,
,,5f3b3d16d2664625fcfa73aa,2024-02-22_04h16.51.848,kallum_motion_pilot,2023.2.2,Win32,58.82352941,5f3b3d16d2664625fcfa73aa,65d6bb0e977760de756971f7,65d6bcaa56de2f00fa72f85b,0.022,0.022,0,40,40,20,1,threeone,,,,,,,,,,,,,,,,,,,,,,,,,,,,,,,,,,,,,,,,,,,,,,,,,,,,,,,,,,,,,,,,,,,,,,,,,,,,,,,,,,,,,,,,,,,,,,,,,,,,,,,,,,,,,,,,,,,,,,,,,,,,,,,,,,,,,,,,,
,,5f3b3d16d2664625fcfa73aa,2024-02-22_04h16.51.848,kallum_motion_pilot,2023.2.2,Win32,58.82352941,5f3b3d16d2664625fcfa73aa,65d6bb0e977760de756971f7,65d6bcaa56de2f00fa72f85b,0.022,0.022,0,41,41,103,1,eightseven,,,,,,,,,,,,,,,,,,,,,,,,,,,,,,,,,,,,,,,,,,,,,,,,,,,,,,,,,,,,,,,,,,,,,,,,,,,,,,,,,,,,,,,,,,,,,,,,,,,,,,,,,,,,,,,,,,,,,,,,,,,,,,,,,,,,,,,,,
,,5f3b3d16d2664625fcfa73aa,2024-02-22_04h16.51.848,kallum_motion_pilot,2023.2.2,Win32,58.82352941,5f3b3d16d2664625fcfa73aa,65d6bb0e977760de756971f7,65d6bcaa56de2f00fa72f85b,0.022,0.022,0,42,42,117,1,seveneight,,,,,,,,,,,,,,,,,,,,,,,,,,,,,,,,,,,,,,,,,,,,,,,,,,,,,,,,,,,,,,,,,,,,,,,,,,,,,,,,,,,,,,,,,,,,,,,,,,,,,,,,,,,,,,,,,,,,,,,,,,,,,,,,,,,,,,,,,
,,5f3b3d16d2664625fcfa73aa,2024-02-22_04h16.51.848,kallum_motion_pilot,2023.2.2,Win32,58.82352941,5f3b3d16d2664625fcfa73aa,65d6bb0e977760de756971f7,65d6bcaa56de2f00fa72f85b,0.023,0.023,0,43,43,104,1,fivesix,,,,,,,,,,,,,,,,,,,,,,,,,,,,,,,,,,,,,,,,,,,,,,,,,,,,,,,,,,,,,,,,,,,,,,,,,,,,,,,,,,,,,,,,,,,,,,,,,,,,,,,,,,,,,,,,,,,,,,,,,,,,,,,,,,,,,,,,,
,,5f3b3d16d2664625fcfa73aa,2024-02-22_04h16.51.848,kallum_motion_pilot,2023.2.2,Win32,58.82352941,5f3b3d16d2664625fcfa73aa,65d6bb0e977760de756971f7,65d6bcaa56de2f00fa72f85b,0.023,0.023,0,44,44,156,1,sevenfive,,,,,,,,,,,,,,,,,,,,,,,,,,,,,,,,,,,,,,,,,,,,,,,,,,,,,,,,,,,,,,,,,,,,,,,,,,,,,,,,,,,,,,,,,,,,,,,,,,,,,,,,,,,,,,,,,,,,,,,,,,,,,,,,,,,,,,,,,
,,5f3b3d16d2664625fcfa73aa,2024-02-22_04h16.51.848,kallum_motion_pilot,2023.2.2,Win32,58.82352941,5f3b3d16d2664625fcfa73aa,65d6bb0e977760de756971f7,65d6bcaa56de2f00fa72f85b,0.023,0.023,0,45,45,143,1,eightseven,,,,,,,,,,,,,,,,,,,,,,,,,,,,,,,,,,,,,,,,,,,,,,,,,,,,,,,,,,,,,,,,,,,,,,,,,,,,,,,,,,,,,,,,,,,,,,,,,,,,,,,,,,,,,,,,,,,,,,,,,,,,,,,,,,,,,,,,,
,,5f3b3d16d2664625fcfa73aa,2024-02-22_04h16.51.848,kallum_motion_pilot,2023.2.2,Win32,58.82352941,5f3b3d16d2664625fcfa73aa,65d6bb0e977760de756971f7,65d6bcaa56de2f00fa72f85b,0.023,0.023,0,46,46,10,1,twoone,,,,,,,,,,,,,,,,,,,,,,,,,,,,,,,,,,,,,,,,,,,,,,,,,,,,,,,,,,,,,,,,,,,,,,,,,,,,,,,,,,,,,,,,,,,,,,,,,,,,,,,,,,,,,,,,,,,,,,,,,,,,,,,,,,,,,,,,,
,,5f3b3d16d2664625fcfa73aa,2024-02-22_04h16.51.848,kallum_motion_pilot,2023.2.2,Win32,58.82352941,5f3b3d16d2664625fcfa73aa,65d6bb0e977760de756971f7,65d6bcaa56de2f00fa72f85b,0.023,0.023,0,47,47,107,1,sixeight,,,,,,,,,,,,,,,,,,,,,,,,,,,,,,,,,,,,,,,,,,,,,,,,,,,,,,,,,,,,,,,,,,,,,,,,,,,,,,,,,,,,,,,,,,,,,,,,,,,,,,,,,,,,,,,,,,,,,,,,,,,,,,,,,,,,,,,,,
,,5f3b3d16d2664625fcfa73aa,2024-02-22_04h16.51.848,kallum_motion_pilot,2023.2.2,Win32,58.82352941,5f3b3d16d2664625fcfa73aa,65d6bb0e977760de756971f7,65d6bcaa56de2f00fa72f85b,0.023,0.023,0,48,48,71,1,fourthree,,,,,,,,,,,,,,,,,,,,,,,,,,,,,,,,,,,,,,,,,,,,,,,,,,,,,,,,,,,,,,,,,,,,,,,,,,,,,,,,,,,,,,,,,,,,,,,,,,,,,,,,,,,,,,,,,,,,,,,,,,,,,,,,,,,,,,,,,
,,5f3b3d16d2664625fcfa73aa,2024-02-22_04h16.51.848,kallum_motion_pilot,2023.2.2,Win32,58.82352941,5f3b3d16d2664625fcfa73aa,65d6bb0e977760de756971f7,65d6bcaa56de2f00fa72f85b,0.023,0.023,0,49,49,132,1,sevenfive,,,,,,,,,,,,,,,,,,,,,,,,,,,,,,,,,,,,,,,,,,,,,,,,,,,,,,,,,,,,,,,,,,,,,,,,,,,,,,,,,,,,,,,,,,,,,,,,,,,,,,,,,,,,,,,,,,,,,,,,,,,,,,,,,,,,,,,,,
,,5f3b3d16d2664625fcfa73aa,2024-02-22_04h16.51.848,kallum_motion_pilot,2023.2.2,Win32,58.82352941,5f3b3d16d2664625fcfa73aa,65d6bb0e977760de756971f7,65d6bcaa56de2f00fa72f85b,0.023,0.023,0,50,50,134,1,eightsix,,,,,,,,,,,,,,,,,,,,,,,,,,,,,,,,,,,,,,,,,,,,,,,,,,,,,,,,,,,,,,,,,,,,,,,,,,,,,,,,,,,,,,,,,,,,,,,,,,,,,,,,,,,,,,,,,,,,,,,,,,,,,,,,,,,,,,,,,
,,5f3b3d16d2664625fcfa73aa,2024-02-22_04h16.51.848,kallum_motion_pilot,2023.2.2,Win32,58.82352941,5f3b3d16d2664625fcfa73aa,65d6bb0e977760de756971f7,65d6bcaa56de2f00fa72f85b,0.023,0.023,0,51,51,119,1,eightseven,,,,,,,,,,,,,,,,,,,,,,,,,,,,,,,,,,,,,,,,,,,,,,,,,,,,,,,,,,,,,,,,,,,,,,,,,,,,,,,,,,,,,,,,,,,,,,,,,,,,,,,,,,,,,,,,,,,,,,,,,,,,,,,,,,,,,,,,,
,,5f3b3d16d2664625fcfa73aa,2024-02-22_04h16.51.848,kallum_motion_pilot,2023.2.2,Win32,58.82352941,5f3b3d16d2664625fcfa73aa,65d6bb0e977760de756971f7,65d6bcaa56de2f00fa72f85b,0.023,0.023,0,52,52,93,1,seveneight,,,,,,,,,,,,,,,,,,,,,,,,,,,,,,,,,,,,,,,,,,,,,,,,,,,,,,,,,,,,,,,,,,,,,,,,,,,,,,,,,,,,,,,,,,,,,,,,,,,,,,,,,,,,,,,,,,,,,,,,,,,,,,,,,,,,,,,,,
,,5f3b3d16d2664625fcfa73aa,2024-02-22_04h16.51.848,kallum_motion_pilot,2023.2.2,Win32,58.82352941,5f3b3d16d2664625fcfa73aa,65d6bb0e977760de756971f7,65d6bcaa56de2f00fa72f85b,0.023,0.023,0,53,53,74,1,twoone,,,,,,,,,,,,,,,,,,,,,,,,,,,,,,,,,,,,,,,,,,,,,,,,,,,,,,,,,,,,,,,,,,,,,,,,,,,,,,,,,,,,,,,,,,,,,,,,,,,,,,,,,,,,,,,,,,,,,,,,,,,,,,,,,,,,,,,,,
,,5f3b3d16d2664625fcfa73aa,2024-02-22_04h16.51.848,kallum_motion_pilot,2023.2.2,Win32,58.82352941,5f3b3d16d2664625fcfa73aa,65d6bb0e977760de756971f7,65d6bcaa56de2f00fa72f85b,0.023,0.023,0,54,54,92,1,sevenfive,,,,,,,,,,,,,,,,,,,,,,,,,,,,,,,,,,,,,,,,,,,,,,,,,,,,,,,,,,,,,,,,,,,,,,,,,,,,,,,,,,,,,,,,,,,,,,,,,,,,,,,,,,,,,,,,,,,,,,,,,,,,,,,,,,,,,,,,,
,,5f3b3d16d2664625fcfa73aa,2024-02-22_04h16.51.848,kallum_motion_pilot,2023.2.2,Win32,58.82352941,5f3b3d16d2664625fcfa73aa,65d6bb0e977760de756971f7,65d6bcaa56de2f00fa72f85b,0.023,0.023,0,55,55,57,1,onethree,,,,,,,,,,,,,,,,,,,,,,,,,,,,,,,,,,,,,,,,,,,,,,,,,,,,,,,,,,,,,,,,,,,,,,,,,,,,,,,,,,,,,,,,,,,,,,,,,,,,,,,,,,,,,,,,,,,,,,,,,,,,,,,,,,,,,,,,,
,,5f3b3d16d2664625fcfa73aa,2024-02-22_04h16.51.848,kallum_motion_pilot,2023.2.2,Win32,58.82352941,5f3b3d16d2664625fcfa73aa,65d6bb0e977760de756971f7,65d6bcaa56de2f00fa72f85b,0.024,0.024,0,56,56,125,1,seveneight,,,,,,,,,,,,,,,,,,,,,,,,,,,,,,,,,,,,,,,,,,,,,,,,,,,,,,,,,,,,,,,,,,,,,,,,,,,,,,,,,,,,,,,,,,,,,,,,,,,,,,,,,,,,,,,,,,,,,,,,,,,,,,,,,,,,,,,,,
,,5f3b3d16d2664625fcfa73aa,2024-02-22_04h16.51.848,kallum_motion_pilot,2023.2.2,Win32,58.82352941,5f3b3d16d2664625fcfa73aa,65d6bb0e977760de756971f7,65d6bcaa56de2f00fa72f85b,0.024,0.024,0,57,57,79,1,eightseven,,,,,,,,,,,,,,,,,,,,,,,,,,,,,,,,,,,,,,,,,,,,,,,,,,,,,,,,,,,,,,,,,,,,,,,,,,,,,,,,,,,,,,,,,,,,,,,,,,,,,,,,,,,,,,,,,,,,,,,,,,,,,,,,,,,,,,,,,
,,5f3b3d16d2664625fcfa73aa,2024-02-22_04h16.51.848,kallum_motion_pilot,2023.2.2,Win32,58.82352941,5f3b3d16d2664625fcfa73aa,65d6bb0e977760de756971f7,65d6bcaa56de2f00fa72f85b,0.024,0.024,0,58,58,108,1,sevenfive,,,,,,,,,,,,,,,,,,,,,,,,,,,,,,,,,,,,,,,,,,,,,,,,,,,,,,,,,,,,,,,,,,,,,,,,,,,,,,,,,,,,,,,,,,,,,,,,,,,,,,,,,,,,,,,,,,,,,,,,,,,,,,,,,,,,,,,,,
,,5f3b3d16d2664625fcfa73aa,2024-02-22_04h16.51.848,kallum_motion_pilot,2023.2.2,Win32,58.82352941,5f3b3d16d2664625fcfa73aa,65d6bb0e977760de756971f7,65d6bcaa56de2f00fa72f85b,0.024,0.024,0,59,59,30,1,fourtwo,,,,,,,,,,,,,,,,,,,,,,,,,,,,,,,,,,,,,,,,,,,,,,,,,,,,,,,,,,,,,,,,,,,,,,,,,,,,,,,,,,,,,,,,,,,,,,,,,,,,,,,,,,,,,,,,,,,,,,,,,,,,,,,,,,,,,,,,,
,,5f3b3d16d2664625fcfa73aa,2024-02-22_04h16.51.848,kallum_motion_pilot,2023.2.2,Win32,58.82352941,5f3b3d16d2664625fcfa73aa,65d6bb0e977760de756971f7,65d6bcaa56de2f00fa72f85b,0.024,0.024,0,60,60,97,1,fiveseven,,,,,,,,,,,,,,,,,,,,,,,,,,,,,,,,,,,,,,,,,,,,,,,,,,,,,,,,,,,,,,,,,,,,,,,,,,,,,,,,,,,,,,,,,,,,,,,,,,,,,,,,,,,,,,,,,,,,,,,,,,,,,,,,,,,,,,,,,
,,5f3b3d16d2664625fcfa73aa,2024-02-22_04h16.51.848,kallum_motion_pilot,2023.2.2,Win32,58.82352941,5f3b3d16d2664625fcfa73aa,65d6bb0e977760de756971f7,65d6bcaa56de2f00fa72f85b,0.024,0.024,0,61,61,86,1,eightsix,,,,,,,,,,,,,,,,,,,,,,,,,,,,,,,,,,,,,,,,,,,,,,,,,,,,,,,,,,,,,,,,,,,,,,,,,,,,,,,,,,,,,,,,,,,,,,,,,,,,,,,,,,,,,,,,,,,,,,,,,,,,,,,,,,,,,,,,,
,,5f3b3d16d2664625fcfa73aa,2024-02-22_04h16.51.848,kallum_motion_pilot,2023.2.2,Win32,58.82352941,5f3b3d16d2664625fcfa73aa,65d6bb0e977760de756971f7,65d6bcaa56de2f00fa72f85b,0.024,0.024,0,62,62,44,1,threeone,,,,,,,,,,,,,,,,,,,,,,,,,,,,,,,,,,,,,,,,,,,,,,,,,,,,,,,,,,,,,,,,,,,,,,,,,,,,,,,,,,,,,,,,,,,,,,,,,,,,,,,,,,,,,,,,,,,,,,,,,,,,,,,,,,,,,,,,,
,,5f3b3d16d2664625fcfa73aa,2024-02-22_04h16.51.848,kallum_motion_pilot,2023.2.2,Win32,58.82352941,5f3b3d16d2664625fcfa73aa,65d6bb0e977760de756971f7,65d6bcaa56de2f00fa72f85b,0.024,0.024,0,63,63,148,1,sevenfive,,,,,,,,,,,,,,,,,,,,,,,,,,,,,,,,,,,,,,,,,,,,,,,,,,,,,,,,,,,,,,,,,,,,,,,,,,,,,,,,,,,,,,,,,,,,,,,,,,,,,,,,,,,,,,,,,,,,,,,,,,,,,,,,,,,,,,,,,
,,5f3b3d16d2664625fcfa73aa,2024-02-22_04h16.51.848,kallum_motion_pilot,2023.2.2,Win32,58.82352941,5f3b3d16d2664625fcfa73aa,65d6bb0e977760de756971f7,65d6bcaa56de2f00fa72f85b,0.024,0.024,0,64,64,159,1,eightseven,,,,,,,,,,,,,,,,,,,,,,,,,,,,,,,,,,,,,,,,,,,,,,,,,,,,,,,,,,,,,,,,,,,,,,,,,,,,,,,,,,,,,,,,,,,,,,,,,,,,,,,,,,,,,,,,,,,,,,,,,,,,,,,,,,,,,,,,,
,,5f3b3d16d2664625fcfa73aa,2024-02-22_04h16.51.848,kallum_motion_pilot,2023.2.2,Win32,58.82352941,5f3b3d16d2664625fcfa73aa,65d6bb0e977760de756971f7,65d6bcaa56de2f00fa72f85b,0.024,0.024,0,65,65,160,1,fivesix,,,,,,,,,,,,,,,,,,,,,,,,,,,,,,,,,,,,,,,,,,,,,,,,,,,,,,,,,,,,,,,,,,,,,,,,,,,,,,,,,,,,,,,,,,,,,,,,,,,,,,,,,,,,,,,,,,,,,,,,,,,,,,,,,,,,,,,,,
,,5f3b3d16d2664625fcfa73aa,2024-02-22_04h16.51.848,kallum_motion_pilot,2023.2.2,Win32,58.82352941,5f3b3d16d2664625fcfa73aa,65d6bb0e977760de756971f7,65d6bcaa56de2f00fa72f85b,0.024,0.024,0,66,66,0,1,onetwo,,,,,,,,,,,,,,,,,,,,,,,,,,,,,,,,,,,,,,,,,,,,,,,,,,,,,,,,,,,,,,,,,,,,,,,,,,,,,,,,,,,,,,,,,,,,,,,,,,,,,,,,,,,,,,,,,,,,,,,,,,,,,,,,,,,,,,,,,
,,5f3b3d16d2664625fcfa73aa,2024-02-22_04h16.51.848,kallum_motion_pilot,2023.2.2,Win32,58.82352941,5f3b3d16d2664625fcfa73aa,65d6bb0e977760de756971f7,65d6bcaa56de2f00fa72f85b,0.024,0.024,0,67,67,91,1,sixeight,,,,,,,,,,,,,,,,,,,,,,,,,,,,,,,,,,,,,,,,,,,,,,,,,,,,,,,,,,,,,,,,,,,,,,,,,,,,,,,,,,,,,,,,,,,,,,,,,,,,,,,,,,,,,,,,,,,,,,,,,,,,,,,,,,,,,,,,,
,,5f3b3d16d2664625fcfa73aa,2024-02-22_04h16.51.848,kallum_motion_pilot,2023.2.2,Win32,58.82352941,5f3b3d16d2664625fcfa73aa,65d6bb0e977760de756971f7,65d6bcaa56de2f00fa72f85b,0.024,0.024,0,68,68,27,1,twofour,,,,,,,,,,,,,,,,,,,,,,,,,,,,,,,,,,,,,,,,,,,,,,,,,,,,,,,,,,,,,,,,,,,,,,,,,,,,,,,,,,,,,,,,,,,,,,,,,,,,,,,,,,,,,,,,,,,,,,,,,,,,,,,,,,,,,,,,,
,,5f3b3d16d2664625fcfa73aa,2024-02-22_04h16.51.848,kallum_motion_pilot,2023.2.2,Win32,58.82352941,5f3b3d16d2664625fcfa73aa,65d6bb0e977760de756971f7,65d6bcaa56de2f00fa72f85b,0.024,0.024,0,69,69,133,1,seveneight,,,,,,,,,,,,,,,,,,,,,,,,,,,,,,,,,,,,,,,,,,,,,,,,,,,,,,,,,,,,,,,,,,,,,,,,,,,,,,,,,,,,,,,,,,,,,,,,,,,,,,,,,,,,,,,,,,,,,,,,,,,,,,,,,,,,,,,,,
,,5f3b3d16d2664625fcfa73aa,2024-02-22_04h16.51.848,kallum_motion_pilot,2023.2.2,Win32,58.82352941,5f3b3d16d2664625fcfa73aa,65d6bb0e977760de756971f7,65d6bcaa56de2f00fa72f85b,0.024,0.024,0,70,70,155,1,sixeight,,,,,,,,,,,,,,,,,,,,,,,,,,,,,,,,,,,,,,,,,,,,,,,,,,,,,,,,,,,,,,,,,,,,,,,,,,,,,,,,,,,,,,,,,,,,,,,,,,,,,,,,,,,,,,,,,,,,,,,,,,,,,,,,,,,,,,,,,
,,5f3b3d16d2664625fcfa73aa,2024-02-22_04h16.51.848,kallum_motion_pilot,2023.2.2,Win32,58.82352941,5f3b3d16d2664625fcfa73aa,65d6bb0e977760de756971f7,65d6bcaa56de2f00fa72f85b,0.024,0.024,0,71,71,32,1,onetwo,,,,,,,,,,,,,,,,,,,,,,,,,,,,,,,,,,,,,,,,,,,,,,,,,,,,,,,,,,,,,,,,,,,,,,,,,,,,,,,,,,,,,,,,,,,,,,,,,,,,,,,,,,,,,,,,,,,,,,,,,,,,,,,,,,,,,,,,,
,,5f3b3d16d2664625fcfa73aa,2024-02-22_04h16.51.848,kallum_motion_pilot,2023.2.2,Win32,58.82352941,5f3b3d16d2664625fcfa73aa,65d6bb0e977760de756971f7,65d6bcaa56de2f00fa72f85b,0.024,0.024,0,72,72,14,1,fourtwo,,,,,,,,,,,,,,,,,,,,,,,,,,,,,,,,,,,,,,,,,,,,,,,,,,,,,,,,,,,,,,,,,,,,,,,,,,,,,,,,,,,,,,,,,,,,,,,,,,,,,,,,,,,,,,,,,,,,,,,,,,,,,,,,,,,,,,,,,
,,5f3b3d16d2664625fcfa73aa,2024-02-22_04h16.51.848,kallum_motion_pilot,2023.2.2,Win32,58.82352941,5f3b3d16d2664625fcfa73aa,65d6bb0e977760de756971f7,65d6bcaa56de2f00fa72f85b,0.024,0.024,0,73,73,154,1,sixfive,,,,,,,,,,,,,,,,,,,,,,,,,,,,,,,,,,,,,,,,,,,,,,,,,,,,,,,,,,,,,,,,,,,,,,,,,,,,,,,,,,,,,,,,,,,,,,,,,,,,,,,,,,,,,,,,,,,,,,,,,,,,,,,,,,,,,,,,,
,,5f3b3d16d2664625fcfa73aa,2024-02-22_04h16.51.848,kallum_motion_pilot,2023.2.2,Win32,58.82352941,5f3b3d16d2664625fcfa73aa,65d6bb0e977760de756971f7,65d6bcaa56de2f00fa72f85b,0.024,0.025,0,74,74,139,1,sixeight,,,,,,,,,,,,,,,,,,,,,,,,,,,,,,,,,,,,,,,,,,,,,,,,,,,,,,,,,,,,,,,,,,,,,,,,,,,,,,,,,,,,,,,,,,,,,,,,,,,,,,,,,,,,,,,,,,,,,,,,,,,,,,,,,,,,,,,,,
,,5f3b3d16d2664625fcfa73aa,2024-02-22_04h16.51.848,kallum_motion_pilot,2023.2.2,Win32,58.82352941,5f3b3d16d2664625fcfa73aa,65d6bb0e977760de756971f7,65d6bcaa56de2f00fa72f85b,0.025,0.025,0,75,75,128,1,fivesix,,,,,,,,,,,,,,,,,,,,,,,,,,,,,,,,,,,,,,,,,,,,,,,,,,,,,,,,,,,,,,,,,,,,,,,,,,,,,,,,,,,,,,,,,,,,,,,,,,,,,,,,,,,,,,,,,,,,,,,,,,,,,,,,,,,,,,,,,
,,5f3b3d16d2664625fcfa73aa,2024-02-22_04h16.51.848,kallum_motion_pilot,2023.2.2,Win32,58.82352941,5f3b3d16d2664625fcfa73aa,65d6bb0e977760de756971f7,65d6bcaa56de2f00fa72f85b,0.025,0.025,0,76,76,7,1,fourthree,,,,,,,,,,,,,,,,,,,,,,,,,,,,,,,,,,,,,,,,,,,,,,,,,,,,,,,,,,,,,,,,,,,,,,,,,,,,,,,,,,,,,,,,,,,,,,,,,,,,,,,,,,,,,,,,,,,,,,,,,,,,,,,,,,,,,,,,,
,,5f3b3d16d2664625fcfa73aa,2024-02-22_04h16.51.848,kallum_motion_pilot,2023.2.2,Win32,58.82352941,5f3b3d16d2664625fcfa73aa,65d6bb0e977760de756971f7,65d6bcaa56de2f00fa72f85b,0.025,0.025,0,77,77,51,1,twofour,,,,,,,,,,,,,,,,,,,,,,,,,,,,,,,,,,,,,,,,,,,,,,,,,,,,,,,,,,,,,,,,,,,,,,,,,,,,,,,,,,,,,,,,,,,,,,,,,,,,,,,,,,,,,,,,,,,,,,,,,,,,,,,,,,,,,,,,,
,,5f3b3d16d2664625fcfa73aa,2024-02-22_04h16.51.848,kallum_motion_pilot,2023.2.2,Win32,58.82352941,5f3b3d16d2664625fcfa73aa,65d6bb0e977760de756971f7,65d6bcaa56de2f00fa72f85b,0.025,0.025,0,78,78,146,1,sixfive,,,,,,,,,,,,,,,,,,,,,,,,,,,,,,,,,,,,,,,,,,,,,,,,,,,,,,,,,,,,,,,,,,,,,,,,,,,,,,,,,,,,,,,,,,,,,,,,,,,,,,,,,,,,,,,,,,,,,,,,,,,,,,,,,,,,,,,,,
,,5f3b3d16d2664625fcfa73aa,2024-02-22_04h16.51.848,kallum_motion_pilot,2023.2.2,Win32,58.82352941,5f3b3d16d2664625fcfa73aa,65d6bb0e977760de756971f7,65d6bcaa56de2f00fa72f85b,0.025,0.025,0,79,79,61,1,threefour,,,,,,,,,,,,,,,,,,,,,,,,,,,,,,,,,,,,,,,,,,,,,,,,,,,,,,,,,,,,,,,,,,,,,,,,,,,,,,,,,,,,,,,,,,,,,,,,,,,,,,,,,,,,,,,,,,,,,,,,,,,,,,,,,,,,,,,,,
,,5f3b3d16d2664625fcfa73aa,2024-02-22_04h16.51.848,kallum_motion_pilot,2023.2.2,Win32,58.82352941,5f3b3d16d2664625fcfa73aa,65d6bb0e977760de756971f7,65d6bcaa56de2f00fa72f85b,0.025,0.025,0,80,80,149,1,seveneight,,,,,,,,,,,,,,,,,,,,,,,,,,,,,,,,,,,,,,,,,,,,,,,,,,,,,,,,,,,,,,,,,,,,,,,,,,,,,,,,,,,,,,,,,,,,,,,,,,,,,,,,,,,,,,,,,,,,,,,,,,,,,,,,,,,,,,,,,
,,5f3b3d16d2664625fcfa73aa,2024-02-22_04h16.51.848,kallum_motion_pilot,2023.2.2,Win32,58.82352941,5f3b3d16d2664625fcfa73aa,65d6bb0e977760de756971f7,65d6bcaa56de2f00fa72f85b,0.026,0.026,0,81,81,147,1,sixeight,,,,,,,,,,,,,,,,,,,,,,,,,,,,,,,,,,,,,,,,,,,,,,,,,,,,,,,,,,,,,,,,,,,,,,,,,,,,,,,,,,,,,,,,,,,,,,,,,,,,,,,,,,,,,,,,,,,,,,,,,,,,,,,,,,,,,,,,,
,,5f3b3d16d2664625fcfa73aa,2024-02-22_04h16.51.848,kallum_motion_pilot,2023.2.2,Win32,58.82352941,5f3b3d16d2664625fcfa73aa,65d6bb0e977760de756971f7,65d6bcaa56de2f00fa72f85b,0.026,0.026,0,82,82,98,1,sixfive,,,,,,,,,,,,,,,,,,,,,,,,,,,,,,,,,,,,,,,,,,,,,,,,,,,,,,,,,,,,,,,,,,,,,,,,,,,,,,,,,,,,,,,,,,,,,,,,,,,,,,,,,,,,,,,,,,,,,,,,,,,,,,,,,,,,,,,,,
,,5f3b3d16d2664625fcfa73aa,2024-02-22_04h16.51.848,kallum_motion_pilot,2023.2.2,Win32,58.82352941,5f3b3d16d2664625fcfa73aa,65d6bb0e977760de756971f7,65d6bcaa56de2f00fa72f85b,0.026,0.026,0,83,83,63,1,fourthree,,,,,,,,,,,,,,,,,,,,,,,,,,,,,,,,,,,,,,,,,,,,,,,,,,,,,,,,,,,,,,,,,,,,,,,,,,,,,,,,,,,,,,,,,,,,,,,,,,,,,,,,,,,,,,,,,,,,,,,,,,,,,,,,,,,,,,,,,
,,5f3b3d16d2664625fcfa73aa,2024-02-22_04h16.51.848,kallum_motion_pilot,2023.2.2,Win32,58.82352941,5f3b3d16d2664625fcfa73aa,65d6bb0e977760de756971f7,65d6bcaa56de2f00fa72f85b,0.026,0.026,0,84,84,152,1,fivesix,,,,,,,,,,,,,,,,,,,,,,,,,,,,,,,,,,,,,,,,,,,,,,,,,,,,,,,,,,,,,,,,,,,,,,,,,,,,,,,,,,,,,,,,,,,,,,,,,,,,,,,,,,,,,,,,,,,,,,,,,,,,,,,,,,,,,,,,,
,,5f3b3d16d2664625fcfa73aa,2024-02-22_04h16.51.848,kallum_motion_pilot,2023.2.2,Win32,58.82352941,5f3b3d16d2664625fcfa73aa,65d6bb0e977760de756971f7,65d6bcaa56de2f00fa72f85b,0.026,0.026,0,85,85,64,1,onetwo,,,,,,,,,,,,,,,,,,,,,,,,,,,,,,,,,,,,,,,,,,,,,,,,,,,,,,,,,,,,,,,,,,,,,,,,,,,,,,,,,,,,,,,,,,,,,,,,,,,,,,,,,,,,,,,,,,,,,,,,,,,,,,,,,,,,,,,,,
,,5f3b3d16d2664625fcfa73aa,2024-02-22_04h16.51.848,kallum_motion_pilot,2023.2.2,Win32,58.82352941,5f3b3d16d2664625fcfa73aa,65d6bb0e977760de756971f7,65d6bcaa56de2f00fa72f85b,0.026,0.026,0,86,86,15,1,fourthree,,,,,,,,,,,,,,,,,,,,,,,,,,,,,,,,,,,,,,,,,,,,,,,,,,,,,,,,,,,,,,,,,,,,,,,,,,,,,,,,,,,,,,,,,,,,,,,,,,,,,,,,,,,,,,,,,,,,,,,,,,,,,,,,,,,,,,,,,
,,5f3b3d16d2664625fcfa73aa,2024-02-22_04h16.51.848,kallum_motion_pilot,2023.2.2,Win32,58.82352941,5f3b3d16d2664625fcfa73aa,65d6bb0e977760de756971f7,65d6bcaa56de2f00fa72f85b,0.026,0.026,0,87,87,9,1,onethree,,,,,,,,,,,,,,,,,,,,,,,,,,,,,,,,,,,,,,,,,,,,,,,,,,,,,,,,,,,,,,,,,,,,,,,,,,,,,,,,,,,,,,,,,,,,,,,,,,,,,,,,,,,,,,,,,,,,,,,,,,,,,,,,,,,,,,,,,
,,5f3b3d16d2664625fcfa73aa,2024-02-22_04h16.51.848,kallum_motion_pilot,2023.2.2,Win32,58.82352941,5f3b3d16d2664625fcfa73aa,65d6bb0e977760de756971f7,65d6bcaa56de2f00fa72f85b,0.026,0.026,0,88,88,106,1,sixfive,,,,,,,,,,,,,,,,,,,,,,,,,,,,,,,,,,,,,,,,,,,,,,,,,,,,,,,,,,,,,,,,,,,,,,,,,,,,,,,,,,,,,,,,,,,,,,,,,,,,,,,,,,,,,,,,,,,,,,,,,,,,,,,,,,,,,,,,,
,,5f3b3d16d2664625fcfa73aa,2024-02-22_04h16.51.848,kallum_motion_pilot,2023.2.2,Win32,58.82352941,5f3b3d16d2664625fcfa73aa,65d6bb0e977760de756971f7,65d6bcaa56de2f00fa72f85b,0.026,0.026,0,89,89,33,1,onethree,,,,,,,,,,,,,,,,,,,,,,,,,,,,,,,,,,,,,,,,,,,,,,,,,,,,,,,,,,,,,,,,,,,,,,,,,,,,,,,,,,,,,,,,,,,,,,,,,,,,,,,,,,,,,,,,,,,,,,,,,,,,,,,,,,,,,,,,,
,,5f3b3d16d2664625fcfa73aa,2024-02-22_04h16.51.848,kallum_motion_pilot,2023.2.2,Win32,58.82352941,5f3b3d16d2664625fcfa73aa,65d6bb0e977760de756971f7,65d6bcaa56de2f00fa72f85b,0.026,0.026,0,90,90,1,1,onethree,,,,,,,,,,,,,,,,,,,,,,,,,,,,,,,,,,,,,,,,,,,,,,,,,,,,,,,,,,,,,,,,,,,,,,,,,,,,,,,,,,,,,,,,,,,,,,,,,,,,,,,,,,,,,,,,,,,,,,,,,,,,,,,,,,,,,,,,,
,,5f3b3d16d2664625fcfa73aa,2024-02-22_04h16.51.848,kallum_motion_pilot,2023.2.2,Win32,58.82352941,5f3b3d16d2664625fcfa73aa,65d6bb0e977760de756971f7,65d6bcaa56de2f00fa72f85b,0.026,0.026,0,91,91,38,1,fourtwo,,,,,,,,,,,,,,,,,,,,,,,,,,,,,,,,,,,,,,,,,,,,,,,,,,,,,,,,,,,,,,,,,,,,,,,,,,,,,,,,,,,,,,,,,,,,,,,,,,,,,,,,,,,,,,,,,,,,,,,,,,,,,,,,,,,,,,,,,
,,5f3b3d16d2664625fcfa73aa,2024-02-22_04h16.51.848,kallum_motion_pilot,2023.2.2,Win32,58.82352941,5f3b3d16d2664625fcfa73aa,65d6bb0e977760de756971f7,65d6bcaa56de2f00fa72f85b,0.026,0.026,0,92,92,131,1,sixeight,,,,,,,,,,,,,,,,,,,,,,,,,,,,,,,,,,,,,,,,,,,,,,,,,,,,,,,,,,,,,,,,,,,,,,,,,,,,,,,,,,,,,,,,,,,,,,,,,,,,,,,,,,,,,,,,,,,,,,,,,,,,,,,,,,,,,,,,,
,,5f3b3d16d2664625fcfa73aa,2024-02-22_04h16.51.848,kallum_motion_pilot,2023.2.2,Win32,58.82352941,5f3b3d16d2664625fcfa73aa,65d6bb0e977760de756971f7,65d6bcaa56de2f00fa72f85b,0.026,0.026,0,93,93,55,1,fourthree,,,,,,,,,,,,,,,,,,,,,,,,,,,,,,,,,,,,,,,,,,,,,,,,,,,,,,,,,,,,,,,,,,,,,,,,,,,,,,,,,,,,,,,,,,,,,,,,,,,,,,,,,,,,,,,,,,,,,,,,,,,,,,,,,,,,,,,,,
,,5f3b3d16d2664625fcfa73aa,2024-02-22_04h16.51.848,kallum_motion_pilot,2023.2.2,Win32,58.82352941,5f3b3d16d2664625fcfa73aa,65d6bb0e977760de756971f7,65d6bcaa56de2f00fa72f85b,0.026,0.026,0,94,94,100,1,sevenfive,,,,,,,,,,,,,,,,,,,,,,,,,,,,,,,,,,,,,,,,,,,,,,,,,,,,,,,,,,,,,,,,,,,,,,,,,,,,,,,,,,,,,,,,,,,,,,,,,,,,,,,,,,,,,,,,,,,,,,,,,,,,,,,,,,,,,,,,,
,,5f3b3d16d2664625fcfa73aa,2024-02-22_04h16.51.848,kallum_motion_pilot,2023.2.2,Win32,58.82352941,5f3b3d16d2664625fcfa73aa,65d6bb0e977760de756971f7,65d6bcaa56de2f00fa72f85b,0.026,0.026,0,95,95,116,1,sevenfive,,,,,,,,,,,,,,,,,,,,,,,,,,,,,,,,,,,,,,,,,,,,,,,,,,,,,,,,,,,,,,,,,,,,,,,,,,,,,,,,,,,,,,,,,,,,,,,,,,,,,,,,,,,,,,,,,,,,,,,,,,,,,,,,,,,,,,,,,
,,5f3b3d16d2664625fcfa73aa,2024-02-22_04h16.51.848,kallum_motion_pilot,2023.2.2,Win32,58.82352941,5f3b3d16d2664625fcfa73aa,65d6bb0e977760de756971f7,65d6bcaa56de2f00fa72f85b,0.026,0.026,0,96,96,111,1,eightseven,,,,,,,,,,,,,,,,,,,,,,,,,,,,,,,,,,,,,,,,,,,,,,,,,,,,,,,,,,,,,,,,,,,,,,,,,,,,,,,,,,,,,,,,,,,,,,,,,,,,,,,,,,,,,,,,,,,,,,,,,,,,,,,,,,,,,,,,,
,,5f3b3d16d2664625fcfa73aa,2024-02-22_04h16.51.848,kallum_motion_pilot,2023.2.2,Win32,58.82352941,5f3b3d16d2664625fcfa73aa,65d6bb0e977760de756971f7,65d6bcaa56de2f00fa72f85b,0.026,0.026,0,97,97,141,1,seveneight,,,,,,,,,,,,,,,,,,,,,,,,,,,,,,,,,,,,,,,,,,,,,,,,,,,,,,,,,,,,,,,,,,,,,,,,,,,,,,,,,,,,,,,,,,,,,,,,,,,,,,,,,,,,,,,,,,,,,,,,,,,,,,,,,,,,,,,,,
,,5f3b3d16d2664625fcfa73aa,2024-02-22_04h16.51.848,kallum_motion_pilot,2023.2.2,Win32,58.82352941,5f3b3d16d2664625fcfa73aa,65d6bb0e977760de756971f7,65d6bcaa56de2f00fa72f85b,0.026,0.026,0,98,98,136,1,fivesix,,,,,,,,,,,,,,,,,,,,,,,,,,,,,,,,,,,,,,,,,,,,,,,,,,,,,,,,,,,,,,,,,,,,,,,,,,,,,,,,,,,,,,,,,,,,,,,,,,,,,,,,,,,,,,,,,,,,,,,,,,,,,,,,,,,,,,,,,
,,5f3b3d16d2664625fcfa73aa,2024-02-22_04h16.51.848,kallum_motion_pilot,2023.2.2,Win32,58.82352941,5f3b3d16d2664625fcfa73aa,65d6bb0e977760de756971f7,65d6bcaa56de2f00fa72f85b,0.026,0.026,0,99,99,124,1,sevenfive,,,,,,,,,,,,,,,,,,,,,,,,,,,,,,,,,,,,,,,,,,,,,,,,,,,,,,,,,,,,,,,,,,,,,,,,,,,,,,,,,,,,,,,,,,,,,,,,,,,,,,,,,,,,,,,,,,,,,,,,,,,,,,,,,,,,,,,,,
,,5f3b3d16d2664625fcfa73aa,2024-02-22_04h16.51.848,kallum_motion_pilot,2023.2.2,Win32,58.82352941,5f3b3d16d2664625fcfa73aa,65d6bb0e977760de756971f7,65d6bcaa56de2f00fa72f85b,0.026,0.026,0,100,100,62,1,fourtwo,,,,,,,,,,,,,,,,,,,,,,,,,,,,,,,,,,,,,,,,,,,,,,,,,,,,,,,,,,,,,,,,,,,,,,,,,,,,,,,,,,,,,,,,,,,,,,,,,,,,,,,,,,,,,,,,,,,,,,,,,,,,,,,,,,,,,,,,,
,,5f3b3d16d2664625fcfa73aa,2024-02-22_04h16.51.848,kallum_motion_pilot,2023.2.2,Win32,58.82352941,5f3b3d16d2664625fcfa73aa,65d6bb0e977760de756971f7,65d6bcaa56de2f00fa72f85b,0.027,0.027,0,101,101,120,1,fivesix,,,,,,,,,,,,,,,,,,,,,,,,,,,,,,,,,,,,,,,,,,,,,,,,,,,,,,,,,,,,,,,,,,,,,,,,,,,,,,,,,,,,,,,,,,,,,,,,,,,,,,,,,,,,,,,,,,,,,,,,,,,,,,,,,,,,,,,,,
,,5f3b3d16d2664625fcfa73aa,2024-02-22_04h16.51.848,kallum_motion_pilot,2023.2.2,Win32,58.82352941,5f3b3d16d2664625fcfa73aa,65d6bb0e977760de756971f7,65d6bcaa56de2f00fa72f85b,0.027,0.027,0,102,102,118,1,eightsix,,,,,,,,,,,,,,,,,,,,,,,,,,,,,,,,,,,,,,,,,,,,,,,,,,,,,,,,,,,,,,,,,,,,,,,,,,,,,,,,,,,,,,,,,,,,,,,,,,,,,,,,,,,,,,,,,,,,,,,,,,,,,,,,,,,,,,,,,
,,5f3b3d16d2664625fcfa73aa,2024-02-22_04h16.51.848,kallum_motion_pilot,2023.2.2,Win32,58.82352941,5f3b3d16d2664625fcfa73aa,65d6bb0e977760de756971f7,65d6bcaa56de2f00fa72f85b,0.027,0.027,0,103,103,54,1,fourtwo,,,,,,,,,,,,,,,,,,,,,,,,,,,,,,,,,,,,,,,,,,,,,,,,,,,,,,,,,,,,,,,,,,,,,,,,,,,,,,,,,,,,,,,,,,,,,,,,,,,,,,,,,,,,,,,,,,,,,,,,,,,,,,,,,,,,,,,,,
,,5f3b3d16d2664625fcfa73aa,2024-02-22_04h16.51.848,kallum_motion_pilot,2023.2.2,Win32,58.82352941,5f3b3d16d2664625fcfa73aa,65d6bb0e977760de756971f7,65d6bcaa56de2f00fa72f85b,0.027,0.027,0,104,104,31,1,fourthree,,,,,,,,,,,,,,,,,,,,,,,,,,,,,,,,,,,,,,,,,,,,,,,,,,,,,,,,,,,,,,,,,,,,,,,,,,,,,,,,,,,,,,,,,,,,,,,,,,,,,,,,,,,,,,,,,,,,,,,,,,,,,,,,,,,,,,,,,
,,5f3b3d16d2664625fcfa73aa,2024-02-22_04h16.51.848,kallum_motion_pilot,2023.2.2,Win32,58.82352941,5f3b3d16d2664625fcfa73aa,65d6bb0e977760de756971f7,65d6bcaa56de2f00fa72f85b,0.027,0.027,0,105,105,48,1,onetwo,,,,,,,,,,,,,,,,,,,,,,,,,,,,,,,,,,,,,,,,,,,,,,,,,,,,,,,,,,,,,,,,,,,,,,,,,,,,,,,,,,,,,,,,,,,,,,,,,,,,,,,,,,,,,,,,,,,,,,,,,,,,,,,,,,,,,,,,,
,,5f3b3d16d2664625fcfa73aa,2024-02-22_04h16.51.848,kallum_motion_pilot,2023.2.2,Win32,58.82352941,5f3b3d16d2664625fcfa73aa,65d6bb0e977760de756971f7,65d6bcaa56de2f00fa72f85b,0.027,0.027,0,106,106,126,1,eightsix,,,,,,,,,,,,,,,,,,,,,,,,,,,,,,,,,,,,,,,,,,,,,,,,,,,,,,,,,,,,,,,,,,,,,,,,,,,,,,,,,,,,,,,,,,,,,,,,,,,,,,,,,,,,,,,,,,,,,,,,,,,,,,,,,,,,,,,,,
,,5f3b3d16d2664625fcfa73aa,2024-02-22_04h16.51.848,kallum_motion_pilot,2023.2.2,Win32,58.82352941,5f3b3d16d2664625fcfa73aa,65d6bb0e977760de756971f7,65d6bcaa56de2f00fa72f85b,0.027,0.027,0,107,107,95,1,eightseven,,,,,,,,,,,,,,,,,,,,,,,,,,,,,,,,,,,,,,,,,,,,,,,,,,,,,,,,,,,,,,,,,,,,,,,,,,,,,,,,,,,,,,,,,,,,,,,,,,,,,,,,,,,,,,,,,,,,,,,,,,,,,,,,,,,,,,,,,
,,5f3b3d16d2664625fcfa73aa,2024-02-22_04h16.51.848,kallum_motion_pilot,2023.2.2,Win32,58.82352941,5f3b3d16d2664625fcfa73aa,65d6bb0e977760de756971f7,65d6bcaa56de2f00fa72f85b,0.027,0.027,0,108,108,21,1,threefour,,,,,,,,,,,,,,,,,,,,,,,,,,,,,,,,,,,,,,,,,,,,,,,,,,,,,,,,,,,,,,,,,,,,,,,,,,,,,,,,,,,,,,,,,,,,,,,,,,,,,,,,,,,,,,,,,,,,,,,,,,,,,,,,,,,,,,,,,
,,5f3b3d16d2664625fcfa73aa,2024-02-22_04h16.51.848,kallum_motion_pilot,2023.2.2,Win32,58.82352941,5f3b3d16d2664625fcfa73aa,65d6bb0e977760de756971f7,65d6bcaa56de2f00fa72f85b,0.028,0.029,0,109,109,78,1,fourtwo,,,,,,,,,,,,,,,,,,,,,,,,,,,,,,,,,,,,,,,,,,,,,,,,,,,,,,,,,,,,,,,,,,,,,,,,,,,,,,,,,,,,,,,,,,,,,,,,,,,,,,,,,,,,,,,,,,,,,,,,,,,,,,,,,,,,,,,,,
,,5f3b3d16d2664625fcfa73aa,2024-02-22_04h16.51.848,kallum_motion_pilot,2023.2.2,Win32,58.82352941,5f3b3d16d2664625fcfa73aa,65d6bb0e977760de756971f7,65d6bcaa56de2f00fa72f85b,0.029,0.029,0,110,110,158,1,eightsix,,,,,,,,,,,,,,,,,,,,,,,,,,,,,,,,,,,,,,,,,,,,,,,,,,,,,,,,,,,,,,,,,,,,,,,,,,,,,,,,,,,,,,,,,,,,,,,,,,,,,,,,,,,,,,,,,,,,,,,,,,,,,,,,,,,,,,,,,
,,5f3b3d16d2664625fcfa73aa,2024-02-22_04h16.51.848,kallum_motion_pilot,2023.2.2,Win32,58.82352941,5f3b3d16d2664625fcfa73aa,65d6bb0e977760de756971f7,65d6bcaa56de2f00fa72f85b,0.029,0.029,0,111,111,28,1,threeone,,,,,,,,,,,,,,,,,,,,,,,,,,,,,,,,,,,,,,,,,,,,,,,,,,,,,,,,,,,,,,,,,,,,,,,,,,,,,,,,,,,,,,,,,,,,,,,,,,,,,,,,,,,,,,,,,,,,,,,,,,,,,,,,,,,,,,,,,
,,5f3b3d16d2664625fcfa73aa,2024-02-22_04h16.51.848,kallum_motion_pilot,2023.2.2,Win32,58.82352941,5f3b3d16d2664625fcfa73aa,65d6bb0e977760de756971f7,65d6bcaa56de2f00fa72f85b,0.029,0.029,0,112,112,157,1,seveneight,,,,,,,,,,,,,,,,,,,,,,,,,,,,,,,,,,,,,,,,,,,,,,,,,,,,,,,,,,,,,,,,,,,,,,,,,,,,,,,,,,,,,,,,,,,,,,,,,,,,,,,,,,,,,,,,,,,,,,,,,,,,,,,,,,,,,,,,,
,,5f3b3d16d2664625fcfa73aa,2024-02-22_04h16.51.848,kallum_motion_pilot,2023.2.2,Win32,58.82352941,5f3b3d16d2664625fcfa73aa,65d6bb0e977760de756971f7,65d6bcaa56de2f00fa72f85b,0.029,0.029,0,113,113,36,1,threeone,,,,,,,,,,,,,,,,,,,,,,,,,,,,,,,,,,,,,,,,,,,,,,,,,,,,,,,,,,,,,,,,,,,,,,,,,,,,,,,,,,,,,,,,,,,,,,,,,,,,,,,,,,,,,,,,,,,,,,,,,,,,,,,,,,,,,,,,,
,,5f3b3d16d2664625fcfa73aa,2024-02-22_04h16.51.848,kallum_motion_pilot,2023.2.2,Win32,58.82352941,5f3b3d16d2664625fcfa73aa,65d6bb0e977760de756971f7,65d6bcaa56de2f00fa72f85b,0.029,0.029,0,114,114,130,1,sixfive,,,,,,,,,,,,,,,,,,,,,,,,,,,,,,,,,,,,,,,,,,,,,,,,,,,,,,,,,,,,,,,,,,,,,,,,,,,,,,,,,,,,,,,,,,,,,,,,,,,,,,,,,,,,,,,,,,,,,,,,,,,,,,,,,,,,,,,,,
,,5f3b3d16d2664625fcfa73aa,2024-02-22_04h16.51.848,kallum_motion_pilot,2023.2.2,Win32,58.82352941,5f3b3d16d2664625fcfa73aa,65d6bb0e977760de756971f7,65d6bcaa56de2f00fa72f85b,0.029,0.029,0,115,115,153,1,fiveseven,,,,,,,,,,,,,,,,,,,,,,,,,,,,,,,,,,,,,,,,,,,,,,,,,,,,,,,,,,,,,,,,,,,,,,,,,,,,,,,,,,,,,,,,,,,,,,,,,,,,,,,,,,,,,,,,,,,,,,,,,,,,,,,,,,,,,,,,,
,,5f3b3d16d2664625fcfa73aa,2024-02-22_04h16.51.848,kallum_motion_pilot,2023.2.2,Win32,58.82352941,5f3b3d16d2664625fcfa73aa,65d6bb0e977760de756971f7,65d6bcaa56de2f00fa72f85b,0.029,0.029,0,116,116,53,1,threefour,,,,,,,,,,,,,,,,,,,,,,,,,,,,,,,,,,,,,,,,,,,,,,,,,,,,,,,,,,,,,,,,,,,,,,,,,,,,,,,,,,,,,,,,,,,,,,,,,,,,,,,,,,,,,,,,,,,,,,,,,,,,,,,,,,,,,,,,,
,,5f3b3d16d2664625fcfa73aa,2024-02-22_04h16.51.848,kallum_motion_pilot,2023.2.2,Win32,58.82352941,5f3b3d16d2664625fcfa73aa,65d6bb0e977760de756971f7,65d6bcaa56de2f00fa72f85b,0.029,0.029,0,117,117,68,1,threeone,,,,,,,,,,,,,,,,,,,,,,,,,,,,,,,,,,,,,,,,,,,,,,,,,,,,,,,,,,,,,,,,,,,,,,,,,,,,,,,,,,,,,,,,,,,,,,,,,,,,,,,,,,,,,,,,,,,,,,,,,,,,,,,,,,,,,,,,,
,,5f3b3d16d2664625fcfa73aa,2024-02-22_04h16.51.848,kallum_motion_pilot,2023.2.2,Win32,58.82352941,5f3b3d16d2664625fcfa73aa,65d6bb0e977760de756971f7,65d6bcaa56de2f00fa72f85b,0.029,0.029,0,118,118,129,1,fiveseven,,,,,,,,,,,,,,,,,,,,,,,,,,,,,,,,,,,,,,,,,,,,,,,,,,,,,,,,,,,,,,,,,,,,,,,,,,,,,,,,,,,,,,,,,,,,,,,,,,,,,,,,,,,,,,,,,,,,,,,,,,,,,,,,,,,,,,,,,
,,5f3b3d16d2664625fcfa73aa,2024-02-22_04h16.51.848,kallum_motion_pilot,2023.2.2,Win32,58.82352941,5f3b3d16d2664625fcfa73aa,65d6bb0e977760de756971f7,65d6bcaa56de2f00fa72f85b,0.029,0.029,0,119,119,39,1,fourthree,,,,,,,,,,,,,,,,,,,,,,,,,,,,,,,,,,,,,,,,,,,,,,,,,,,,,,,,,,,,,,,,,,,,,,,,,,,,,,,,,,,,,,,,,,,,,,,,,,,,,,,,,,,,,,,,,,,,,,,,,,,,,,,,,,,,,,,,,
,,5f3b3d16d2664625fcfa73aa,2024-02-22_04h16.51.848,kallum_motion_pilot,2023.2.2,Win32,58.82352941,5f3b3d16d2664625fcfa73aa,65d6bb0e977760de756971f7,65d6bcaa56de2f00fa72f85b,0.029,0.029,0,120,120,52,1,threeone,,,,,,,,,,,,,,,,,,,,,,,,,,,,,,,,,,,,,,,,,,,,,,,,,,,,,,,,,,,,,,,,,,,,,,,,,,,,,,,,,,,,,,,,,,,,,,,,,,,,,,,,,,,,,,,,,,,,,,,,,,,,,,,,,,,,,,,,,
,,5f3b3d16d2664625fcfa73aa,2024-02-22_04h16.51.848,kallum_motion_pilot,2023.2.2,Win32,58.82352941,5f3b3d16d2664625fcfa73aa,65d6bb0e977760de756971f7,65d6bcaa56de2f00fa72f85b,0.029,0.029,0,121,121,88,1,fivesix,,,,,,,,,,,,,,,,,,,,,,,,,,,,,,,,,,,,,,,,,,,,,,,,,,,,,,,,,,,,,,,,,,,,,,,,,,,,,,,,,,,,,,,,,,,,,,,,,,,,,,,,,,,,,,,,,,,,,,,,,,,,,,,,,,,,,,,,,
,,5f3b3d16d2664625fcfa73aa,2024-02-22_04h16.51.848,kallum_motion_pilot,2023.2.2,Win32,58.82352941,5f3b3d16d2664625fcfa73aa,65d6bb0e977760de756971f7,65d6bcaa56de2f00fa72f85b,0.029,0.029,0,122,122,89,1,fiveseven,,,,,,,,,,,,,,,,,,,,,,,,,,,,,,,,,,,,,,,,,,,,,,,,,,,,,,,,,,,,,,,,,,,,,,,,,,,,,,,,,,,,,,,,,,,,,,,,,,,,,,,,,,,,,,,,,,,,,,,,,,,,,,,,,,,,,,,,,
,,5f3b3d16d2664625fcfa73aa,2024-02-22_04h16.51.848,kallum_motion_pilot,2023.2.2,Win32,58.82352941,5f3b3d16d2664625fcfa73aa,65d6bb0e977760de756971f7,65d6bcaa56de2f00fa72f85b,0.029,0.029,0,123,123,82,1,sixfive,,,,,,,,,,,,,,,,,,,,,,,,,,,,,,,,,,,,,,,,,,,,,,,,,,,,,,,,,,,,,,,,,,,,,,,,,,,,,,,,,,,,,,,,,,,,,,,,,,,,,,,,,,,,,,,,,,,,,,,,,,,,,,,,,,,,,,,,,
,,5f3b3d16d2664625fcfa73aa,2024-02-22_04h16.51.848,kallum_motion_pilot,2023.2.2,Win32,58.82352941,5f3b3d16d2664625fcfa73aa,65d6bb0e977760de756971f7,65d6bcaa56de2f00fa72f85b,0.029,0.029,0,124,124,96,1,fivesix,,,,,,,,,,,,,,,,,,,,,,,,,,,,,,,,,,,,,,,,,,,,,,,,,,,,,,,,,,,,,,,,,,,,,,,,,,,,,,,,,,,,,,,,,,,,,,,,,,,,,,,,,,,,,,,,,,,,,,,,,,,,,,,,,,,,,,,,,
,,5f3b3d16d2664625fcfa73aa,2024-02-22_04h16.51.848,kallum_motion_pilot,2023.2.2,Win32,58.82352941,5f3b3d16d2664625fcfa73aa,65d6bb0e977760de756971f7,65d6bcaa56de2f00fa72f85b,0.029,0.029,0,125,125,69,1,threefour,,,,,,,,,,,,,,,,,,,,,,,,,,,,,,,,,,,,,,,,,,,,,,,,,,,,,,,,,,,,,,,,,,,,,,,,,,,,,,,,,,,,,,,,,,,,,,,,,,,,,,,,,,,,,,,,,,,,,,,,,,,,,,,,,,,,,,,,,
,,5f3b3d16d2664625fcfa73aa,2024-02-22_04h16.51.848,kallum_motion_pilot,2023.2.2,Win32,58.82352941,5f3b3d16d2664625fcfa73aa,65d6bb0e977760de756971f7,65d6bcaa56de2f00fa72f85b,0.03,0.03,0,126,126,80,1,fivesix,,,,,,,,,,,,,,,,,,,,,,,,,,,,,,,,,,,,,,,,,,,,,,,,,,,,,,,,,,,,,,,,,,,,,,,,,,,,,,,,,,,,,,,,,,,,,,,,,,,,,,,,,,,,,,,,,,,,,,,,,,,,,,,,,,,,,,,,,
,,5f3b3d16d2664625fcfa73aa,2024-02-22_04h16.51.848,kallum_motion_pilot,2023.2.2,Win32,58.82352941,5f3b3d16d2664625fcfa73aa,65d6bb0e977760de756971f7,65d6bcaa56de2f00fa72f85b,0.03,0.03,0,127,127,142,1,eightsix,,,,,,,,,,,,,,,,,,,,,,,,,,,,,,,,,,,,,,,,,,,,,,,,,,,,,,,,,,,,,,,,,,,,,,,,,,,,,,,,,,,,,,,,,,,,,,,,,,,,,,,,,,,,,,,,,,,,,,,,,,,,,,,,,,,,,,,,,
,,5f3b3d16d2664625fcfa73aa,2024-02-22_04h16.51.848,kallum_motion_pilot,2023.2.2,Win32,58.82352941,5f3b3d16d2664625fcfa73aa,65d6bb0e977760de756971f7,65d6bcaa56de2f00fa72f85b,0.03,0.03,0,128,128,2,1,twoone,,,,,,,,,,,,,,,,,,,,,,,,,,,,,,,,,,,,,,,,,,,,,,,,,,,,,,,,,,,,,,,,,,,,,,,,,,,,,,,,,,,,,,,,,,,,,,,,,,,,,,,,,,,,,,,,,,,,,,,,,,,,,,,,,,,,,,,,,
,,5f3b3d16d2664625fcfa73aa,2024-02-22_04h16.51.848,kallum_motion_pilot,2023.2.2,Win32,58.82352941,5f3b3d16d2664625fcfa73aa,65d6bb0e977760de756971f7,65d6bcaa56de2f00fa72f85b,0.03,0.03,0,129,129,47,1,fourthree,,,,,,,,,,,,,,,,,,,,,,,,,,,,,,,,,,,,,,,,,,,,,,,,,,,,,,,,,,,,,,,,,,,,,,,,,,,,,,,,,,,,,,,,,,,,,,,,,,,,,,,,,,,,,,,,,,,,,,,,,,,,,,,,,,,,,,,,,
,,5f3b3d16d2664625fcfa73aa,2024-02-22_04h16.51.848,kallum_motion_pilot,2023.2.2,Win32,58.82352941,5f3b3d16d2664625fcfa73aa,65d6bb0e977760de756971f7,65d6bcaa56de2f00fa72f85b,0.03,0.03,0,130,130,35,1,twofour,,,,,,,,,,,,,,,,,,,,,,,,,,,,,,,,,,,,,,,,,,,,,,,,,,,,,,,,,,,,,,,,,,,,,,,,,,,,,,,,,,,,,,,,,,,,,,,,,,,,,,,,,,,,,,,,,,,,,,,,,,,,,,,,,,,,,,,,,
,,5f3b3d16d2664625fcfa73aa,2024-02-22_04h16.51.848,kallum_motion_pilot,2023.2.2,Win32,58.82352941,5f3b3d16d2664625fcfa73aa,65d6bb0e977760de756971f7,65d6bcaa56de2f00fa72f85b,0.03,0.031,0,131,131,45,1,threefour,,,,,,,,,,,,,,,,,,,,,,,,,,,,,,,,,,,,,,,,,,,,,,,,,,,,,,,,,,,,,,,,,,,,,,,,,,,,,,,,,,,,,,,,,,,,,,,,,,,,,,,,,,,,,,,,,,,,,,,,,,,,,,,,,,,,,,,,,
,,5f3b3d16d2664625fcfa73aa,2024-02-22_04h16.51.848,kallum_motion_pilot,2023.2.2,Win32,58.82352941,5f3b3d16d2664625fcfa73aa,65d6bb0e977760de756971f7,65d6bcaa56de2f00fa72f85b,0.031,0.031,0,132,132,65,1,onethree,,,,,,,,,,,,,,,,,,,,,,,,,,,,,,,,,,,,,,,,,,,,,,,,,,,,,,,,,,,,,,,,,,,,,,,,,,,,,,,,,,,,,,,,,,,,,,,,,,,,,,,,,,,,,,,,,,,,,,,,,,,,,,,,,,,,,,,,,
,,5f3b3d16d2664625fcfa73aa,2024-02-22_04h16.51.848,kallum_motion_pilot,2023.2.2,Win32,58.82352941,5f3b3d16d2664625fcfa73aa,65d6bb0e977760de756971f7,65d6bcaa56de2f00fa72f85b,0.031,0.031,0,133,133,138,1,sixfive,,,,,,,,,,,,,,,,,,,,,,,,,,,,,,,,,,,,,,,,,,,,,,,,,,,,,,,,,,,,,,,,,,,,,,,,,,,,,,,,,,,,,,,,,,,,,,,,,,,,,,,,,,,,,,,,,,,,,,,,,,,,,,,,,,,,,,,,,
,,5f3b3d16d2664625fcfa73aa,2024-02-22_04h16.51.848,kallum_motion_pilot,2023.2.2,Win32,58.82352941,5f3b3d16d2664625fcfa73aa,65d6bb0e977760de756971f7,65d6bcaa56de2f00fa72f85b,0.031,0.031,0,134,134,13,1,threefour,,,,,,,,,,,,,,,,,,,,,,,,,,,,,,,,,,,,,,,,,,,,,,,,,,,,,,,,,,,,,,,,,,,,,,,,,,,,,,,,,,,,,,,,,,,,,,,,,,,,,,,,,,,,,,,,,,,,,,,,,,,,,,,,,,,,,,,,,
,,5f3b3d16d2664625fcfa73aa,2024-02-22_04h16.51.848,kallum_motion_pilot,2023.2.2,Win32,58.82352941,5f3b3d16d2664625fcfa73aa,65d6bb0e977760de756971f7,65d6bcaa56de2f00fa72f85b,0.031,0.031,0,135,135,123,1,sixeight,,,,,,,,,,,,,,,,,,,,,,,,,,,,,,,,,,,,,,,,,,,,,,,,,,,,,,,,,,,,,,,,,,,,,,,,,,,,,,,,,,,,,,,,,,,,,,,,,,,,,,,,,,,,,,,,,,,,,,,,,,,,,,,,,,,,,,,,,
,,5f3b3d16d2664625fcfa73aa,2024-02-22_04h16.51.848,kallum_motion_pilot,2023.2.2,Win32,58.82352941,5f3b3d16d2664625fcfa73aa,65d6bb0e977760de756971f7,65d6bcaa56de2f00fa72f85b,0.031,0.031,0,136,136,105,1,fiveseven,,,,,,,,,,,,,,,,,,,,,,,,,,,,,,,,,,,,,,,,,,,,,,,,,,,,,,,,,,,,,,,,,,,,,,,,,,,,,,,,,,,,,,,,,,,,,,,,,,,,,,,,,,,,,,,,,,,,,,,,,,,,,,,,,,,,,,,,,
,,5f3b3d16d2664625fcfa73aa,2024-02-22_04h16.51.848,kallum_motion_pilot,2023.2.2,Win32,58.82352941,5f3b3d16d2664625fcfa73aa,65d6bb0e977760de756971f7,65d6bcaa56de2f00fa72f85b,0.031,0.031,0,137,137,49,1,onethree,,,,,,,,,,,,,,,,,,,,,,,,,,,,,,,,,,,,,,,,,,,,,,,,,,,,,,,,,,,,,,,,,,,,,,,,,,,,,,,,,,,,,,,,,,,,,,,,,,,,,,,,,,,,,,,,,,,,,,,,,,,,,,,,,,,,,,,,,
,,5f3b3d16d2664625fcfa73aa,2024-02-22_04h16.51.848,kallum_motion_pilot,2023.2.2,Win32,58.82352941,5f3b3d16d2664625fcfa73aa,65d6bb0e977760de756971f7,65d6bcaa56de2f00fa72f85b,0.031,0.031,0,138,138,115,1,sixeight,,,,,,,,,,,,,,,,,,,,,,,,,,,,,,,,,,,,,,,,,,,,,,,,,,,,,,,,,,,,,,,,,,,,,,,,,,,,,,,,,,,,,,,,,,,,,,,,,,,,,,,,,,,,,,,,,,,,,,,,,,,,,,,,,,,,,,,,,
,,5f3b3d16d2664625fcfa73aa,2024-02-22_04h16.51.848,kallum_motion_pilot,2023.2.2,Win32,58.82352941,5f3b3d16d2664625fcfa73aa,65d6bb0e977760de756971f7,65d6bcaa56de2f00fa72f85b,0.031,0.031,0,139,139,41,1,onethree,,,,,,,,,,,,,,,,,,,,,,,,,,,,,,,,,,,,,,,,,,,,,,,,,,,,,,,,,,,,,,,,,,,,,,,,,,,,,,,,,,,,,,,,,,,,,,,,,,,,,,,,,,,,,,,,,,,,,,,,,,,,,,,,,,,,,,,,,
,,5f3b3d16d2664625fcfa73aa,2024-02-22_04h16.51.848,kallum_motion_pilot,2023.2.2,Win32,58.82352941,5f3b3d16d2664625fcfa73aa,65d6bb0e977760de756971f7,65d6bcaa56de2f00fa72f85b,0.031,0.031,0,140,140,19,1,twofour,,,,,,,,,,,,,,,,,,,,,,,,,,,,,,,,,,,,,,,,,,,,,,,,,,,,,,,,,,,,,,,,,,,,,,,,,,,,,,,,,,,,,,,,,,,,,,,,,,,,,,,,,,,,,,,,,,,,,,,,,,,,,,,,,,,,,,,,,
,,5f3b3d16d2664625fcfa73aa,2024-02-22_04h16.51.848,kallum_motion_pilot,2023.2.2,Win32,58.82352941,5f3b3d16d2664625fcfa73aa,65d6bb0e977760de756971f7,65d6bcaa56de2f00fa72f85b,0.031,0.031,0,141,141,145,1,fiveseven,,,,,,,,,,,,,,,,,,,,,,,,,,,,,,,,,,,,,,,,,,,,,,,,,,,,,,,,,,,,,,,,,,,,,,,,,,,,,,,,,,,,,,,,,,,,,,,,,,,,,,,,,,,,,,,,,,,,,,,,,,,,,,,,,,,,,,,,,
,,5f3b3d16d2664625fcfa73aa,2024-02-22_04h16.51.848,kallum_motion_pilot,2023.2.2,Win32,58.82352941,5f3b3d16d2664625fcfa73aa,65d6bb0e977760de756971f7,65d6bcaa56de2f00fa72f85b,0.031,0.031,0,142,142,23,1,fourthree,,,,,,,,,,,,,,,,,,,,,,,,,,,,,,,,,,,,,,,,,,,,,,,,,,,,,,,,,,,,,,,,,,,,,,,,,,,,,,,,,,,,,,,,,,,,,,,,,,,,,,,,,,,,,,,,,,,,,,,,,,,,,,,,,,,,,,,,,
,,5f3b3d16d2664625fcfa73aa,2024-02-22_04h16.51.848,kallum_motion_pilot,2023.2.2,Win32,58.82352941,5f3b3d16d2664625fcfa73aa,65d6bb0e977760de756971f7,65d6bcaa56de2f00fa72f85b,0.031,0.031,0,143,143,83,1,sixeight,,,,,,,,,,,,,,,,,,,,,,,,,,,,,,,,,,,,,,,,,,,,,,,,,,,,,,,,,,,,,,,,,,,,,,,,,,,,,,,,,,,,,,,,,,,,,,,,,,,,,,,,,,,,,,,,,,,,,,,,,,,,,,,,,,,,,,,,,
,,5f3b3d16d2664625fcfa73aa,2024-02-22_04h16.51.848,kallum_motion_pilot,2023.2.2,Win32,58.82352941,5f3b3d16d2664625fcfa73aa,65d6bb0e977760de756971f7,65d6bcaa56de2f00fa72f85b,0.031,0.031,0,144,144,26,1,twoone,,,,,,,,,,,,,,,,,,,,,,,,,,,,,,,,,,,,,,,,,,,,,,,,,,,,,,,,,,,,,,,,,,,,,,,,,,,,,,,,,,,,,,,,,,,,,,,,,,,,,,,,,,,,,,,,,,,,,,,,,,,,,,,,,,,,,,,,,
,,5f3b3d16d2664625fcfa73aa,2024-02-22_04h16.51.848,kallum_motion_pilot,2023.2.2,Win32,58.82352941,5f3b3d16d2664625fcfa73aa,65d6bb0e977760de756971f7,65d6bcaa56de2f00fa72f85b,0.031,0.031,0,145,145,102,1,eightsix,,,,,,,,,,,,,,,,,,,,,,,,,,,,,,,,,,,,,,,,,,,,,,,,,,,,,,,,,,,,,,,,,,,,,,,,,,,,,,,,,,,,,,,,,,,,,,,,,,,,,,,,,,,,,,,,,,,,,,,,,,,,,,,,,,,,,,,,,
,,5f3b3d16d2664625fcfa73aa,2024-02-22_04h16.51.848,kallum_motion_pilot,2023.2.2,Win32,58.82352941,5f3b3d16d2664625fcfa73aa,65d6bb0e977760de756971f7,65d6bcaa56de2f00fa72f85b,0.032,0.032,0,146,146,113,1,fiveseven,,,,,,,,,,,,,,,,,,,,,,,,,,,,,,,,,,,,,,,,,,,,,,,,,,,,,,,,,,,,,,,,,,,,,,,,,,,,,,,,,,,,,,,,,,,,,,,,,,,,,,,,,,,,,,,,,,,,,,,,,,,,,,,,,,,,,,,,,
,,5f3b3d16d2664625fcfa73aa,2024-02-22_04h16.51.848,kallum_motion_pilot,2023.2.2,Win32,58.82352941,5f3b3d16d2664625fcfa73aa,65d6bb0e977760de756971f7,65d6bcaa56de2f00fa72f85b,0.032,0.032,0,147,147,42,1,twoone,,,,,,,,,,,,,,,,,,,,,,,,,,,,,,,,,,,,,,,,,,,,,,,,,,,,,,,,,,,,,,,,,,,,,,,,,,,,,,,,,,,,,,,,,,,,,,,,,,,,,,,,,,,,,,,,,,,,,,,,,,,,,,,,,,,,,,,,,
,,5f3b3d16d2664625fcfa73aa,2024-02-22_04h16.51.848,kallum_motion_pilot,2023.2.2,Win32,58.82352941,5f3b3d16d2664625fcfa73aa,65d6bb0e977760de756971f7,65d6bcaa56de2f00fa72f85b,0.032,0.032,0,148,148,87,1,eightseven,,,,,,,,,,,,,,,,,,,,,,,,,,,,,,,,,,,,,,,,,,,,,,,,,,,,,,,,,,,,,,,,,,,,,,,,,,,,,,,,,,,,,,,,,,,,,,,,,,,,,,,,,,,,,,,,,,,,,,,,,,,,,,,,,,,,,,,,,
,,5f3b3d16d2664625fcfa73aa,2024-02-22_04h16.51.848,kallum_motion_pilot,2023.2.2,Win32,58.82352941,5f3b3d16d2664625fcfa73aa,65d6bb0e977760de756971f7,65d6bcaa56de2f00fa72f85b,0.032,0.032,0,149,149,29,1,threefour,,,,,,,,,,,,,,,,,,,,,,,,,,,,,,,,,,,,,,,,,,,,,,,,,,,,,,,,,,,,,,,,,,,,,,,,,,,,,,,,,,,,,,,,,,,,,,,,,,,,,,,,,,,,,,,,,,,,,,,,,,,,,,,,,,,,,,,,,
,,5f3b3d16d2664625fcfa73aa,2024-02-22_04h16.51.848,kallum_motion_pilot,2023.2.2,Win32,58.82352941,5f3b3d16d2664625fcfa73aa,65d6bb0e977760de756971f7,65d6bcaa56de2f00fa72f85b,0.032,0.032,0,150,150,3,1,twofour,,,,,,,,,,,,,,,,,,,,,,,,,,,,,,,,,,,,,,,,,,,,,,,,,,,,,,,,,,,,,,,,,,,,,,,,,,,,,,,,,,,,,,,,,,,,,,,,,,,,,,,,,,,,,,,,,,,,,,,,,,,,,,,,,,,,,,,,,
,,5f3b3d16d2664625fcfa73aa,2024-02-22_04h16.51.848,kallum_motion_pilot,2023.2.2,Win32,58.82352941,5f3b3d16d2664625fcfa73aa,65d6bb0e977760de756971f7,65d6bcaa56de2f00fa72f85b,0.032,0.032,0,151,151,37,1,threefour,,,,,,,,,,,,,,,,,,,,,,,,,,,,,,,,,,,,,,,,,,,,,,,,,,,,,,,,,,,,,,,,,,,,,,,,,,,,,,,,,,,,,,,,,,,,,,,,,,,,,,,,,,,,,,,,,,,,,,,,,,,,,,,,,,,,,,,,,
,,5f3b3d16d2664625fcfa73aa,2024-02-22_04h16.51.848,kallum_motion_pilot,2023.2.2,Win32,58.82352941,5f3b3d16d2664625fcfa73aa,65d6bb0e977760de756971f7,65d6bcaa56de2f00fa72f85b,0.032,0.032,0,152,152,16,1,onetwo,,,,,,,,,,,,,,,,,,,,,,,,,,,,,,,,,,,,,,,,,,,,,,,,,,,,,,,,,,,,,,,,,,,,,,,,,,,,,,,,,,,,,,,,,,,,,,,,,,,,,,,,,,,,,,,,,,,,,,,,,,,,,,,,,,,,,,,,,
,,5f3b3d16d2664625fcfa73aa,2024-02-22_04h16.51.848,kallum_motion_pilot,2023.2.2,Win32,58.82352941,5f3b3d16d2664625fcfa73aa,65d6bb0e977760de756971f7,65d6bcaa56de2f00fa72f85b,0.032,0.032,0,153,153,84,1,sevenfive,,,,,,,,,,,,,,,,,,,,,,,,,,,,,,,,,,,,,,,,,,,,,,,,,,,,,,,,,,,,,,,,,,,,,,,,,,,,,,,,,,,,,,,,,,,,,,,,,,,,,,,,,,,,,,,,,,,,,,,,,,,,,,,,,,,,,,,,,
,,5f3b3d16d2664625fcfa73aa,2024-02-22_04h16.51.848,kallum_motion_pilot,2023.2.2,Win32,58.82352941,5f3b3d16d2664625fcfa73aa,65d6bb0e977760de756971f7,65d6bcaa56de2f00fa72f85b,0.032,0.032,0,154,154,43,1,twofour,,,,,,,,,,,,,,,,,,,,,,,,,,,,,,,,,,,,,,,,,,,,,,,,,,,,,,,,,,,,,,,,,,,,,,,,,,,,,,,,,,,,,,,,,,,,,,,,,,,,,,,,,,,,,,,,,,,,,,,,,,,,,,,,,,,,,,,,,
,,5f3b3d16d2664625fcfa73aa,2024-02-22_04h16.51.848,kallum_motion_pilot,2023.2.2,Win32,58.82352941,5f3b3d16d2664625fcfa73aa,65d6bb0e977760de756971f7,65d6bcaa56de2f00fa72f85b,0.032,0.032,0,155,155,11,1,twofour,,,,,,,,,,,,,,,,,,,,,,,,,,,,,,,,,,,,,,,,,,,,,,,,,,,,,,,,,,,,,,,,,,,,,,,,,,,,,,,,,,,,,,,,,,,,,,,,,,,,,,,,,,,,,,,,,,,,,,,,,,,,,,,,,,,,,,,,,
,,5f3b3d16d2664625fcfa73aa,2024-02-22_04h16.51.848,kallum_motion_pilot,2023.2.2,Win32,58.82352941,5f3b3d16d2664625fcfa73aa,65d6bb0e977760de756971f7,65d6bcaa56de2f00fa72f85b,0.032,0.032,0,156,156,110,1,eightsix,,,,,,,,,,,,,,,,,,,,,,,,,,,,,,,,,,,,,,,,,,,,,,,,,,,,,,,,,,,,,,,,,,,,,,,,,,,,,,,,,,,,,,,,,,,,,,,,,,,,,,,,,,,,,,,,,,,,,,,,,,,,,,,,,,,,,,,,,
,,5f3b3d16d2664625fcfa73aa,2024-02-22_04h16.51.848,kallum_motion_pilot,2023.2.2,Win32,58.82352941,5f3b3d16d2664625fcfa73aa,65d6bb0e977760de756971f7,65d6bcaa56de2f00fa72f85b,0.032,0.032,0,157,157,90,1,sixfive,,,,,,,,,,,,,,,,,,,,,,,,,,,,,,,,,,,,,,,,,,,,,,,,,,,,,,,,,,,,,,,,,,,,,,,,,,,,,,,,,,,,,,,,,,,,,,,,,,,,,,,,,,,,,,,,,,,,,,,,,,,,,,,,,,,,,,,,,
,,5f3b3d16d2664625fcfa73aa,2024-02-22_04h16.51.848,kallum_motion_pilot,2023.2.2,Win32,58.82352941,5f3b3d16d2664625fcfa73aa,65d6bb0e977760de756971f7,65d6bcaa56de2f00fa72f85b,0.033,0.033,0,158,158,40,1,onetwo,,,,,,,,,,,,,,,,,,,,,,,,,,,,,,,,,,,,,,,,,,,,,,,,,,,,,,,,,,,,,,,,,,,,,,,,,,,,,,,,,,,,,,,,,,,,,,,,,,,,,,,,,,,,,,,,,,,,,,,,,,,,,,,,,,,,,,,,,
,,5f3b3d16d2664625fcfa73aa,2024-02-22_04h16.51.848,kallum_motion_pilot,2023.2.2,Win32,58.82352941,5f3b3d16d2664625fcfa73aa,65d6bb0e977760de756971f7,65d6bcaa56de2f00fa72f85b,0.033,0.033,0,159,159,8,1,onetwo,,,,,,,,,,,,,,,,,,,,,,,,,,,,,,,,,,,,,,,,,,,,,,,,,,,,,,,,,,,,,,,,,,,,,,,,,,,,,,,,,,,,,,,,,,,,,,,,,,,,,,,,,,,,,,,,,,,,,,,,,,,,,,,,,,,,,,,,,
,,5f3b3d16d2664625fcfa73aa,2024-02-22_04h16.51.848,kallum_motion_pilot,2023.2.2,Win32,58.82352941,5f3b3d16d2664625fcfa73aa,65d6bb0e977760de756971f7,65d6bcaa56de2f00fa72f85b,0.033,0.033,0,160,160,72,1,onetwo,,,,,,,,,,,,,,,,,,,,,,,,,,,,,,,,,,,,,,,,,,,,,,,,,,,,,,,,,,,,,,,,,,,,,,,,,,,,,,,,,,,,,,,,,,,,,,,,,,,,,,,,,,,,,,,,,,,,,,,,,,,,,,,,,,,,,,,,,
,,5f3b3d16d2664625fcfa73aa,2024-02-22_04h16.51.848,kallum_motion_pilot,2023.2.2,Win32,58.82352941,5f3b3d16d2664625fcfa73aa,65d6bb0e977760de756971f7,65d6bcaa56de2f00fa72f85b,0.033,0.033,0,161,161,6,1,fourtwo,,,,,,,,,,,,,,,,,,,,,,,,,,,,,,,,,,,,,,,,,,,,,,,,,,,,,,,,,,,,,,,,,,,,,,,,,,,,,,,,,,,,,,,,,,,,,,,,,,,,,,,,,,,,,,,,,,,,,,,,,,,,,,,,,,,,,,,,,
,,5f3b3d16d2664625fcfa73aa,2024-02-22_04h16.51.848,kallum_motion_pilot,2023.2.2,Win32,58.82352941,5f3b3d16d2664625fcfa73aa,65d6bb0e977760de756971f7,65d6bcaa56de2f00fa72f85b,0.033,0.033,1,0,162,51,1,twofour,,,,,,,,,,,,,,,,,,,,,,,,,,,,,,,,,,,,,,,,,,,,,,,,,,,,,,,,,,,,,,,,,,,,,,,,,,,,,,,,,,,,,,,,,,,,,,,,,,,,,,,,,,,,,,,,,,,,,,,,,,,,,,,,,,,,,,,,,
,,5f3b3d16d2664625fcfa73aa,2024-02-22_04h16.51.848,kallum_motion_pilot,2023.2.2,Win32,58.82352941,5f3b3d16d2664625fcfa73aa,65d6bb0e977760de756971f7,65d6bcaa56de2f00fa72f85b,0.033,0.033,1,1,163,124,1,sevenfive,,,,,,,,,,,,,,,,,,,,,,,,,,,,,,,,,,,,,,,,,,,,,,,,,,,,,,,,,,,,,,,,,,,,,,,,,,,,,,,,,,,,,,,,,,,,,,,,,,,,,,,,,,,,,,,,,,,,,,,,,,,,,,,,,,,,,,,,,
,,5f3b3d16d2664625fcfa73aa,2024-02-22_04h16.51.848,kallum_motion_pilot,2023.2.2,Win32,58.82352941,5f3b3d16d2664625fcfa73aa,65d6bb0e977760de756971f7,65d6bcaa56de2f00fa72f85b,0.033,0.033,1,2,164,108,1,sevenfive,,,,,,,,,,,,,,,,,,,,,,,,,,,,,,,,,,,,,,,,,,,,,,,,,,,,,,,,,,,,,,,,,,,,,,,,,,,,,,,,,,,,,,,,,,,,,,,,,,,,,,,,,,,,,,,,,,,,,,,,,,,,,,,,,,,,,,,,,
,,5f3b3d16d2664625fcfa73aa,2024-02-22_04h16.51.848,kallum_motion_pilot,2023.2.2,Win32,58.82352941,5f3b3d16d2664625fcfa73aa,65d6bb0e977760de756971f7,65d6bcaa56de2f00fa72f85b,0.033,0.033,1,3,165,58,1,twoone,,,,,,,,,,,,,,,,,,,,,,,,,,,,,,,,,,,,,,,,,,,,,,,,,,,,,,,,,,,,,,,,,,,,,,,,,,,,,,,,,,,,,,,,,,,,,,,,,,,,,,,,,,,,,,,,,,,,,,,,,,,,,,,,,,,,,,,,,
,,5f3b3d16d2664625fcfa73aa,2024-02-22_04h16.51.848,kallum_motion_pilot,2023.2.2,Win32,58.82352941,5f3b3d16d2664625fcfa73aa,65d6bb0e977760de756971f7,65d6bcaa56de2f00fa72f85b,0.033,0.034,1,4,166,73,1,onethree,,,,,,,,,,,,,,,,,,,,,,,,,,,,,,,,,,,,,,,,,,,,,,,,,,,,,,,,,,,,,,,,,,,,,,,,,,,,,,,,,,,,,,,,,,,,,,,,,,,,,,,,,,,,,,,,,,,,,,,,,,,,,,,,,,,,,,,,,
,,5f3b3d16d2664625fcfa73aa,2024-02-22_04h16.51.848,kallum_motion_pilot,2023.2.2,Win32,58.82352941,5f3b3d16d2664625fcfa73aa,65d6bb0e977760de756971f7,65d6bcaa56de2f00fa72f85b,0.034,0.034,1,5,167,89,1,fiveseven,,,,,,,,,,,,,,,,,,,,,,,,,,,,,,,,,,,,,,,,,,,,,,,,,,,,,,,,,,,,,,,,,,,,,,,,,,,,,,,,,,,,,,,,,,,,,,,,,,,,,,,,,,,,,,,,,,,,,,,,,,,,,,,,,,,,,,,,,
,,5f3b3d16d2664625fcfa73aa,2024-02-22_04h16.51.848,kallum_motion_pilot,2023.2.2,Win32,58.82352941,5f3b3d16d2664625fcfa73aa,65d6bb0e977760de756971f7,65d6bcaa56de2f00fa72f85b,0.034,0.034,1,6,168,102,1,eightsix,,,,,,,,,,,,,,,,,,,,,,,,,,,,,,,,,,,,,,,,,,,,,,,,,,,,,,,,,,,,,,,,,,,,,,,,,,,,,,,,,,,,,,,,,,,,,,,,,,,,,,,,,,,,,,,,,,,,,,,,,,,,,,,,,,,,,,,,,
,,5f3b3d16d2664625fcfa73aa,2024-02-22_04h16.51.848,kallum_motion_pilot,2023.2.2,Win32,58.82352941,5f3b3d16d2664625fcfa73aa,65d6bb0e977760de756971f7,65d6bcaa56de2f00fa72f85b,0.034,0.034,1,7,169,114,1,sixfive,,,,,,,,,,,,,,,,,,,,,,,,,,,,,,,,,,,,,,,,,,,,,,,,,,,,,,,,,,,,,,,,,,,,,,,,,,,,,,,,,,,,,,,,,,,,,,,,,,,,,,,,,,,,,,,,,,,,,,,,,,,,,,,,,,,,,,,,,
,,5f3b3d16d2664625fcfa73aa,2024-02-22_04h16.51.848,kallum_motion_pilot,2023.2.2,Win32,58.82352941,5f3b3d16d2664625fcfa73aa,65d6bb0e977760de756971f7,65d6bcaa56de2f00fa72f85b,0.034,0.034,1,8,170,33,1,onethree,,,,,,,,,,,,,,,,,,,,,,,,,,,,,,,,,,,,,,,,,,,,,,,,,,,,,,,,,,,,,,,,,,,,,,,,,,,,,,,,,,,,,,,,,,,,,,,,,,,,,,,,,,,,,,,,,,,,,,,,,,,,,,,,,,,,,,,,,
,,5f3b3d16d2664625fcfa73aa,2024-02-22_04h16.51.848,kallum_motion_pilot,2023.2.2,Win32,58.82352941,5f3b3d16d2664625fcfa73aa,65d6bb0e977760de756971f7,65d6bcaa56de2f00fa72f85b,0.034,0.034,1,9,171,109,1,seveneight,,,,,,,,,,,,,,,,,,,,,,,,,,,,,,,,,,,,,,,,,,,,,,,,,,,,,,,,,,,,,,,,,,,,,,,,,,,,,,,,,,,,,,,,,,,,,,,,,,,,,,,,,,,,,,,,,,,,,,,,,,,,,,,,,,,,,,,,,
,,5f3b3d16d2664625fcfa73aa,2024-02-22_04h16.51.848,kallum_motion_pilot,2023.2.2,Win32,58.82352941,5f3b3d16d2664625fcfa73aa,65d6bb0e977760de756971f7,65d6bcaa56de2f00fa72f85b,0.034,0.034,1,10,172,79,1,eightseven,,,,,,,,,,,,,,,,,,,,,,,,,,,,,,,,,,,,,,,,,,,,,,,,,,,,,,,,,,,,,,,,,,,,,,,,,,,,,,,,,,,,,,,,,,,,,,,,,,,,,,,,,,,,,,,,,,,,,,,,,,,,,,,,,,,,,,,,,
,,5f3b3d16d2664625fcfa73aa,2024-02-22_04h16.51.848,kallum_motion_pilot,2023.2.2,Win32,58.82352941,5f3b3d16d2664625fcfa73aa,65d6bb0e977760de756971f7,65d6bcaa56de2f00fa72f85b,0.034,0.034,1,11,173,28,1,threeone,,,,,,,,,,,,,,,,,,,,,,,,,,,,,,,,,,,,,,,,,,,,,,,,,,,,,,,,,,,,,,,,,,,,,,,,,,,,,,,,,,,,,,,,,,,,,,,,,,,,,,,,,,,,,,,,,,,,,,,,,,,,,,,,,,,,,,,,,
,,5f3b3d16d2664625fcfa73aa,2024-02-22_04h16.51.848,kallum_motion_pilot,2023.2.2,Win32,58.82352941,5f3b3d16d2664625fcfa73aa,65d6bb0e977760de756971f7,65d6bcaa56de2f00fa72f85b,0.034,0.034,1,12,174,45,1,threefour,,,,,,,,,,,,,,,,,,,,,,,,,,,,,,,,,,,,,,,,,,,,,,,,,,,,,,,,,,,,,,,,,,,,,,,,,,,,,,,,,,,,,,,,,,,,,,,,,,,,,,,,,,,,,,,,,,,,,,,,,,,,,,,,,,,,,,,,,
,,5f3b3d16d2664625fcfa73aa,2024-02-22_04h16.51.848,kallum_motion_pilot,2023.2.2,Win32,58.82352941,5f3b3d16d2664625fcfa73aa,65d6bb0e977760de756971f7,65d6bcaa56de2f00fa72f85b,0.034,0.034,1,13,175,154,1,sixfive,,,,,,,,,,,,,,,,,,,,,,,,,,,,,,,,,,,,,,,,,,,,,,,,,,,,,,,,,,,,,,,,,,,,,,,,,,,,,,,,,,,,,,,,,,,,,,,,,,,,,,,,,,,,,,,,,,,,,,,,,,,,,,,,,,,,,,,,,
,,5f3b3d16d2664625fcfa73aa,2024-02-22_04h16.51.848,kallum_motion_pilot,2023.2.2,Win32,58.82352941,5f3b3d16d2664625fcfa73aa,65d6bb0e977760de756971f7,65d6bcaa56de2f00fa72f85b,0.034,0.034,1,14,176,50,1,twoone,,,,,,,,,,,,,,,,,,,,,,,,,,,,,,,,,,,,,,,,,,,,,,,,,,,,,,,,,,,,,,,,,,,,,,,,,,,,,,,,,,,,,,,,,,,,,,,,,,,,,,,,,,,,,,,,,,,,,,,,,,,,,,,,,,,,,,,,,
,,5f3b3d16d2664625fcfa73aa,2024-02-22_04h16.51.848,kallum_motion_pilot,2023.2.2,Win32,58.82352941,5f3b3d16d2664625fcfa73aa,65d6bb0e977760de756971f7,65d6bcaa56de2f00fa72f85b,0.034,0.034,1,15,177,88,1,fivesix,,,,,,,,,,,,,,,,,,,,,,,,,,,,,,,,,,,,,,,,,,,,,,,,,,,,,,,,,,,,,,,,,,,,,,,,,,,,,,,,,,,,,,,,,,,,,,,,,,,,,,,,,,,,,,,,,,,,,,,,,,,,,,,,,,,,,,,,,
,,5f3b3d16d2664625fcfa73aa,2024-02-22_04h16.51.848,kallum_motion_pilot,2023.2.2,Win32,58.82352941,5f3b3d16d2664625fcfa73aa,65d6bb0e977760de756971f7,65d6bcaa56de2f00fa72f85b,0.034,0.034,1,16,178,80,1,fivesix,,,,,,,,,,,,,,,,,,,,,,,,,,,,,,,,,,,,,,,,,,,,,,,,,,,,,,,,,,,,,,,,,,,,,,,,,,,,,,,,,,,,,,,,,,,,,,,,,,,,,,,,,,,,,,,,,,,,,,,,,,,,,,,,,,,,,,,,,
,,5f3b3d16d2664625fcfa73aa,2024-02-22_04h16.51.848,kallum_motion_pilot,2023.2.2,Win32,58.82352941,5f3b3d16d2664625fcfa73aa,65d6bb0e977760de756971f7,65d6bcaa56de2f00fa72f85b,0.034,0.035,1,17,179,93,1,seveneight,,,,,,,,,,,,,,,,,,,,,,,,,,,,,,,,,,,,,,,,,,,,,,,,,,,,,,,,,,,,,,,,,,,,,,,,,,,,,,,,,,,,,,,,,,,,,,,,,,,,,,,,,,,,,,,,,,,,,,,,,,,,,,,,,,,,,,,,,
,,5f3b3d16d2664625fcfa73aa,2024-02-22_04h16.51.848,kallum_motion_pilot,2023.2.2,Win32,58.82352941,5f3b3d16d2664625fcfa73aa,65d6bb0e977760de756971f7,65d6bcaa56de2f00fa72f85b,0.035,0.035,1,18,180,146,1,sixfive,,,,,,,,,,,,,,,,,,,,,,,,,,,,,,,,,,,,,,,,,,,,,,,,,,,,,,,,,,,,,,,,,,,,,,,,,,,,,,,,,,,,,,,,,,,,,,,,,,,,,,,,,,,,,,,,,,,,,,,,,,,,,,,,,,,,,,,,,
,,5f3b3d16d2664625fcfa73aa,2024-02-22_04h16.51.848,kallum_motion_pilot,2023.2.2,Win32,58.82352941,5f3b3d16d2664625fcfa73aa,65d6bb0e977760de756971f7,65d6bcaa56de2f00fa72f85b,0.035,0.035,1,19,181,150,1,eightsix,,,,,,,,,,,,,,,,,,,,,,,,,,,,,,,,,,,,,,,,,,,,,,,,,,,,,,,,,,,,,,,,,,,,,,,,,,,,,,,,,,,,,,,,,,,,,,,,,,,,,,,,,,,,,,,,,,,,,,,,,,,,,,,,,,,,,,,,,
,,5f3b3d16d2664625fcfa73aa,2024-02-22_04h16.51.848,kallum_motion_pilot,2023.2.2,Win32,58.82352941,5f3b3d16d2664625fcfa73aa,65d6bb0e977760de756971f7,65d6bcaa56de2f00fa72f85b,0.035,0.035,1,20,182,87,1,eightseven,,,,,,,,,,,,,,,,,,,,,,,,,,,,,,,,,,,,,,,,,,,,,,,,,,,,,,,,,,,,,,,,,,,,,,,,,,,,,,,,,,,,,,,,,,,,,,,,,,,,,,,,,,,,,,,,,,,,,,,,,,,,,,,,,,,,,,,,,
,,5f3b3d16d2664625fcfa73aa,2024-02-22_04h16.51.848,kallum_motion_pilot,2023.2.2,Win32,58.82352941,5f3b3d16d2664625fcfa73aa,65d6bb0e977760de756971f7,65d6bcaa56de2f00fa72f85b,0.035,0.035,1,21,183,55,1,fourthree,,,,,,,,,,,,,,,,,,,,,,,,,,,,,,,,,,,,,,,,,,,,,,,,,,,,,,,,,,,,,,,,,,,,,,,,,,,,,,,,,,,,,,,,,,,,,,,,,,,,,,,,,,,,,,,,,,,,,,,,,,,,,,,,,,,,,,,,,
,,5f3b3d16d2664625fcfa73aa,2024-02-22_04h16.51.848,kallum_motion_pilot,2023.2.2,Win32,58.82352941,5f3b3d16d2664625fcfa73aa,65d6bb0e977760de756971f7,65d6bcaa56de2f00fa72f85b,0.035,0.035,1,22,184,64,1,onetwo,,,,,,,,,,,,,,,,,,,,,,,,,,,,,,,,,,,,,,,,,,,,,,,,,,,,,,,,,,,,,,,,,,,,,,,,,,,,,,,,,,,,,,,,,,,,,,,,,,,,,,,,,,,,,,,,,,,,,,,,,,,,,,,,,,,,,,,,,
,,5f3b3d16d2664625fcfa73aa,2024-02-22_04h16.51.848,kallum_motion_pilot,2023.2.2,Win32,58.82352941,5f3b3d16d2664625fcfa73aa,65d6bb0e977760de756971f7,65d6bcaa56de2f00fa72f85b,0.035,0.035,1,23,185,83,1,sixeight,,,,,,,,,,,,,,,,,,,,,,,,,,,,,,,,,,,,,,,,,,,,,,,,,,,,,,,,,,,,,,,,,,,,,,,,,,,,,,,,,,,,,,,,,,,,,,,,,,,,,,,,,,,,,,,,,,,,,,,,,,,,,,,,,,,,,,,,,
,,5f3b3d16d2664625fcfa73aa,2024-02-22_04h16.51.848,kallum_motion_pilot,2023.2.2,Win32,58.82352941,5f3b3d16d2664625fcfa73aa,65d6bb0e977760de756971f7,65d6bcaa56de2f00fa72f85b,0.035,0.035,1,24,186,66,1,twoone,,,,,,,,,,,,,,,,,,,,,,,,,,,,,,,,,,,,,,,,,,,,,,,,,,,,,,,,,,,,,,,,,,,,,,,,,,,,,,,,,,,,,,,,,,,,,,,,,,,,,,,,,,,,,,,,,,,,,,,,,,,,,,,,,,,,,,,,,
,,5f3b3d16d2664625fcfa73aa,2024-02-22_04h16.51.848,kallum_motion_pilot,2023.2.2,Win32,58.82352941,5f3b3d16d2664625fcfa73aa,65d6bb0e977760de756971f7,65d6bcaa56de2f00fa72f85b,0.035,0.035,1,25,187,63,1,fourthree,,,,,,,,,,,,,,,,,,,,,,,,,,,,,,,,,,,,,,,,,,,,,,,,,,,,,,,,,,,,,,,,,,,,,,,,,,,,,,,,,,,,,,,,,,,,,,,,,,,,,,,,,,,,,,,,,,,,,,,,,,,,,,,,,,,,,,,,,
,,5f3b3d16d2664625fcfa73aa,2024-02-22_04h16.51.848,kallum_motion_pilot,2023.2.2,Win32,58.82352941,5f3b3d16d2664625fcfa73aa,65d6bb0e977760de756971f7,65d6bcaa56de2f00fa72f85b,0.035,0.035,1,26,188,82,1,sixfive,,,,,,,,,,,,,,,,,,,,,,,,,,,,,,,,,,,,,,,,,,,,,,,,,,,,,,,,,,,,,,,,,,,,,,,,,,,,,,,,,,,,,,,,,,,,,,,,,,,,,,,,,,,,,,,,,,,,,,,,,,,,,,,,,,,,,,,,,
,,5f3b3d16d2664625fcfa73aa,2024-02-22_04h16.51.848,kallum_motion_pilot,2023.2.2,Win32,58.82352941,5f3b3d16d2664625fcfa73aa,65d6bb0e977760de756971f7,65d6bcaa56de2f00fa72f85b,0.035,0.035,1,27,189,54,1,fourtwo,,,,,,,,,,,,,,,,,,,,,,,,,,,,,,,,,,,,,,,,,,,,,,,,,,,,,,,,,,,,,,,,,,,,,,,,,,,,,,,,,,,,,,,,,,,,,,,,,,,,,,,,,,,,,,,,,,,,,,,,,,,,,,,,,,,,,,,,,
,,5f3b3d16d2664625fcfa73aa,2024-02-22_04h16.51.848,kallum_motion_pilot,2023.2.2,Win32,58.82352941,5f3b3d16d2664625fcfa73aa,65d6bb0e977760de756971f7,65d6bcaa56de2f00fa72f85b,0.035,0.035,1,28,190,110,1,eightsix,,,,,,,,,,,,,,,,,,,,,,,,,,,,,,,,,,,,,,,,,,,,,,,,,,,,,,,,,,,,,,,,,,,,,,,,,,,,,,,,,,,,,,,,,,,,,,,,,,,,,,,,,,,,,,,,,,,,,,,,,,,,,,,,,,,,,,,,,
,,5f3b3d16d2664625fcfa73aa,2024-02-22_04h16.51.848,kallum_motion_pilot,2023.2.2,Win32,58.82352941,5f3b3d16d2664625fcfa73aa,65d6bb0e977760de756971f7,65d6bcaa56de2f00fa72f85b,0.035,0.035,1,29,191,135,1,eightseven,,,,,,,,,,,,,,,,,,,,,,,,,,,,,,,,,,,,,,,,,,,,,,,,,,,,,,,,,,,,,,,,,,,,,,,,,,,,,,,,,,,,,,,,,,,,,,,,,,,,,,,,,,,,,,,,,,,,,,,,,,,,,,,,,,,,,,,,,
,,5f3b3d16d2664625fcfa73aa,2024-02-22_04h16.51.848,kallum_motion_pilot,2023.2.2,Win32,58.82352941,5f3b3d16d2664625fcfa73aa,65d6bb0e977760de756971f7,65d6bcaa56de2f00fa72f85b,0.035,0.036,1,30,192,134,1,eightsix,,,,,,,,,,,,,,,,,,,,,,,,,,,,,,,,,,,,,,,,,,,,,,,,,,,,,,,,,,,,,,,,,,,,,,,,,,,,,,,,,,,,,,,,,,,,,,,,,,,,,,,,,,,,,,,,,,,,,,,,,,,,,,,,,,,,,,,,,
,,5f3b3d16d2664625fcfa73aa,2024-02-22_04h16.51.848,kallum_motion_pilot,2023.2.2,Win32,58.82352941,5f3b3d16d2664625fcfa73aa,65d6bb0e977760de756971f7,65d6bcaa56de2f00fa72f85b,0.036,0.036,1,31,193,25,1,onethree,,,,,,,,,,,,,,,,,,,,,,,,,,,,,,,,,,,,,,,,,,,,,,,,,,,,,,,,,,,,,,,,,,,,,,,,,,,,,,,,,,,,,,,,,,,,,,,,,,,,,,,,,,,,,,,,,,,,,,,,,,,,,,,,,,,,,,,,,
,,5f3b3d16d2664625fcfa73aa,2024-02-22_04h16.51.848,kallum_motion_pilot,2023.2.2,Win32,58.82352941,5f3b3d16d2664625fcfa73aa,65d6bb0e977760de756971f7,65d6bcaa56de2f00fa72f85b,0.036,0.036,1,32,194,36,1,threeone,,,,,,,,,,,,,,,,,,,,,,,,,,,,,,,,,,,,,,,,,,,,,,,,,,,,,,,,,,,,,,,,,,,,,,,,,,,,,,,,,,,,,,,,,,,,,,,,,,,,,,,,,,,,,,,,,,,,,,,,,,,,,,,,,,,,,,,,,
,,5f3b3d16d2664625fcfa73aa,2024-02-22_04h16.51.848,kallum_motion_pilot,2023.2.2,Win32,58.82352941,5f3b3d16d2664625fcfa73aa,65d6bb0e977760de756971f7,65d6bcaa56de2f00fa72f85b,0.036,0.036,1,33,195,128,1,fivesix,,,,,,,,,,,,,,,,,,,,,,,,,,,,,,,,,,,,,,,,,,,,,,,,,,,,,,,,,,,,,,,,,,,,,,,,,,,,,,,,,,,,,,,,,,,,,,,,,,,,,,,,,,,,,,,,,,,,,,,,,,,,,,,,,,,,,,,,,
,,5f3b3d16d2664625fcfa73aa,2024-02-22_04h16.51.848,kallum_motion_pilot,2023.2.2,Win32,58.82352941,5f3b3d16d2664625fcfa73aa,65d6bb0e977760de756971f7,65d6bcaa56de2f00fa72f85b,0.036,0.036,1,34,196,113,1,fiveseven,,,,,,,,,,,,,,,,,,,,,,,,,,,,,,,,,,,,,,,,,,,,,,,,,,,,,,,,,,,,,,,,,,,,,,,,,,,,,,,,,,,,,,,,,,,,,,,,,,,,,,,,,,,,,,,,,,,,,,,,,,,,,,,,,,,,,,,,,
,,5f3b3d16d2664625fcfa73aa,2024-02-22_04h16.51.848,kallum_motion_pilot,2023.2.2,Win32,58.82352941,5f3b3d16d2664625fcfa73aa,65d6bb0e977760de756971f7,65d6bcaa56de2f00fa72f85b,0.036,0.036,1,35,197,107,1,sixeight,,,,,,,,,,,,,,,,,,,,,,,,,,,,,,,,,,,,,,,,,,,,,,,,,,,,,,,,,,,,,,,,,,,,,,,,,,,,,,,,,,,,,,,,,,,,,,,,,,,,,,,,,,,,,,,,,,,,,,,,,,,,,,,,,,,,,,,,,
,,5f3b3d16d2664625fcfa73aa,2024-02-22_04h16.51.848,kallum_motion_pilot,2023.2.2,Win32,58.82352941,5f3b3d16d2664625fcfa73aa,65d6bb0e977760de756971f7,65d6bcaa56de2f00fa72f85b,0.036,0.036,1,36,198,92,1,sevenfive,,,,,,,,,,,,,,,,,,,,,,,,,,,,,,,,,,,,,,,,,,,,,,,,,,,,,,,,,,,,,,,,,,,,,,,,,,,,,,,,,,,,,,,,,,,,,,,,,,,,,,,,,,,,,,,,,,,,,,,,,,,,,,,,,,,,,,,,,
,,5f3b3d16d2664625fcfa73aa,2024-02-22_04h16.51.848,kallum_motion_pilot,2023.2.2,Win32,58.82352941,5f3b3d16d2664625fcfa73aa,65d6bb0e977760de756971f7,65d6bcaa56de2f00fa72f85b,0.036,0.036,1,37,199,1,1,onethree,,,,,,,,,,,,,,,,,,,,,,,,,,,,,,,,,,,,,,,,,,,,,,,,,,,,,,,,,,,,,,,,,,,,,,,,,,,,,,,,,,,,,,,,,,,,,,,,,,,,,,,,,,,,,,,,,,,,,,,,,,,,,,,,,,,,,,,,,
,,5f3b3d16d2664625fcfa73aa,2024-02-22_04h16.51.848,kallum_motion_pilot,2023.2.2,Win32,58.82352941,5f3b3d16d2664625fcfa73aa,65d6bb0e977760de756971f7,65d6bcaa56de2f00fa72f85b,0.036,0.036,1,38,200,32,1,onetwo,,,,,,,,,,,,,,,,,,,,,,,,,,,,,,,,,,,,,,,,,,,,,,,,,,,,,,,,,,,,,,,,,,,,,,,,,,,,,,,,,,,,,,,,,,,,,,,,,,,,,,,,,,,,,,,,,,,,,,,,,,,,,,,,,,,,,,,,,
,,5f3b3d16d2664625fcfa73aa,2024-02-22_04h16.51.848,kallum_motion_pilot,2023.2.2,Win32,58.82352941,5f3b3d16d2664625fcfa73aa,65d6bb0e977760de756971f7,65d6bcaa56de2f00fa72f85b,0.036,0.036,1,39,201,15,1,fourthree,,,,,,,,,,,,,,,,,,,,,,,,,,,,,,,,,,,,,,,,,,,,,,,,,,,,,,,,,,,,,,,,,,,,,,,,,,,,,,,,,,,,,,,,,,,,,,,,,,,,,,,,,,,,,,,,,,,,,,,,,,,,,,,,,,,,,,,,,
,,5f3b3d16d2664625fcfa73aa,2024-02-22_04h16.51.848,kallum_motion_pilot,2023.2.2,Win32,58.82352941,5f3b3d16d2664625fcfa73aa,65d6bb0e977760de756971f7,65d6bcaa56de2f00fa72f85b,0.037,0.037,1,40,202,30,1,fourtwo,,,,,,,,,,,,,,,,,,,,,,,,,,,,,,,,,,,,,,,,,,,,,,,,,,,,,,,,,,,,,,,,,,,,,,,,,,,,,,,,,,,,,,,,,,,,,,,,,,,,,,,,,,,,,,,,,,,,,,,,,,,,,,,,,,,,,,,,,
,,5f3b3d16d2664625fcfa73aa,2024-02-22_04h16.51.848,kallum_motion_pilot,2023.2.2,Win32,58.82352941,5f3b3d16d2664625fcfa73aa,65d6bb0e977760de756971f7,65d6bcaa56de2f00fa72f85b,0.037,0.037,1,41,203,22,1,fourtwo,,,,,,,,,,,,,,,,,,,,,,,,,,,,,,,,,,,,,,,,,,,,,,,,,,,,,,,,,,,,,,,,,,,,,,,,,,,,,,,,,,,,,,,,,,,,,,,,,,,,,,,,,,,,,,,,,,,,,,,,,,,,,,,,,,,,,,,,,
,,5f3b3d16d2664625fcfa73aa,2024-02-22_04h16.51.848,kallum_motion_pilot,2023.2.2,Win32,58.82352941,5f3b3d16d2664625fcfa73aa,65d6bb0e977760de756971f7,65d6bcaa56de2f00fa72f85b,0.037,0.037,1,42,204,31,1,fourthree,,,,,,,,,,,,,,,,,,,,,,,,,,,,,,,,,,,,,,,,,,,,,,,,,,,,,,,,,,,,,,,,,,,,,,,,,,,,,,,,,,,,,,,,,,,,,,,,,,,,,,,,,,,,,,,,,,,,,,,,,,,,,,,,,,,,,,,,,
,,5f3b3d16d2664625fcfa73aa,2024-02-22_04h16.51.848,kallum_motion_pilot,2023.2.2,Win32,58.82352941,5f3b3d16d2664625fcfa73aa,65d6bb0e977760de756971f7,65d6bcaa56de2f00fa72f85b,0.037,0.037,1,43,205,13,1,threefour,,,,,,,,,,,,,,,,,,,,,,,,,,,,,,,,,,,,,,,,,,,,,,,,,,,,,,,,,,,,,,,,,,,,,,,,,,,,,,,,,,,,,,,,,,,,,,,,,,,,,,,,,,,,,,,,,,,,,,,,,,,,,,,,,,,,,,,,,
,,5f3b3d16d2664625fcfa73aa,2024-02-22_04h16.51.848,kallum_motion_pilot,2023.2.2,Win32,58.82352941,5f3b3d16d2664625fcfa73aa,65d6bb0e977760de756971f7,65d6bcaa56de2f00fa72f85b,0.037,0.037,1,44,206,147,1,sixeight,,,,,,,,,,,,,,,,,,,,,,,,,,,,,,,,,,,,,,,,,,,,,,,,,,,,,,,,,,,,,,,,,,,,,,,,,,,,,,,,,,,,,,,,,,,,,,,,,,,,,,,,,,,,,,,,,,,,,,,,,,,,,,,,,,,,,,,,,
,,5f3b3d16d2664625fcfa73aa,2024-02-22_04h16.51.848,kallum_motion_pilot,2023.2.2,Win32,58.82352941,5f3b3d16d2664625fcfa73aa,65d6bb0e977760de756971f7,65d6bcaa56de2f00fa72f85b,0.037,0.037,1,45,207,115,1,sixeight,,,,,,,,,,,,,,,,,,,,,,,,,,,,,,,,,,,,,,,,,,,,,,,,,,,,,,,,,,,,,,,,,,,,,,,,,,,,,,,,,,,,,,,,,,,,,,,,,,,,,,,,,,,,,,,,,,,,,,,,,,,,,,,,,,,,,,,,,
,,5f3b3d16d2664625fcfa73aa,2024-02-22_04h16.51.848,kallum_motion_pilot,2023.2.2,Win32,58.82352941,5f3b3d16d2664625fcfa73aa,65d6bb0e977760de756971f7,65d6bcaa56de2f00fa72f85b,0.037,0.037,1,46,208,140,1,sevenfive,,,,,,,,,,,,,,,,,,,,,,,,,,,,,,,,,,,,,,,,,,,,,,,,,,,,,,,,,,,,,,,,,,,,,,,,,,,,,,,,,,,,,,,,,,,,,,,,,,,,,,,,,,,,,,,,,,,,,,,,,,,,,,,,,,,,,,,,,
,,5f3b3d16d2664625fcfa73aa,2024-02-22_04h16.51.848,kallum_motion_pilot,2023.2.2,Win32,58.82352941,5f3b3d16d2664625fcfa73aa,65d6bb0e977760de756971f7,65d6bcaa56de2f00fa72f85b,0.037,0.037,1,47,209,100,1,sevenfive,,,,,,,,,,,,,,,,,,,,,,,,,,,,,,,,,,,,,,,,,,,,,,,,,,,,,,,,,,,,,,,,,,,,,,,,,,,,,,,,,,,,,,,,,,,,,,,,,,,,,,,,,,,,,,,,,,,,,,,,,,,,,,,,,,,,,,,,,
,,5f3b3d16d2664625fcfa73aa,2024-02-22_04h16.51.848,kallum_motion_pilot,2023.2.2,Win32,58.82352941,5f3b3d16d2664625fcfa73aa,65d6bb0e977760de756971f7,65d6bcaa56de2f00fa72f85b,0.037,0.037,1,48,210,4,1,threeone,,,,,,,,,,,,,,,,,,,,,,,,,,,,,,,,,,,,,,,,,,,,,,,,,,,,,,,,,,,,,,,,,,,,,,,,,,,,,,,,,,,,,,,,,,,,,,,,,,,,,,,,,,,,,,,,,,,,,,,,,,,,,,,,,,,,,,,,,
,,5f3b3d16d2664625fcfa73aa,2024-02-22_04h16.51.848,kallum_motion_pilot,2023.2.2,Win32,58.82352941,5f3b3d16d2664625fcfa73aa,65d6bb0e977760de756971f7,65d6bcaa56de2f00fa72f85b,0.037,0.037,1,49,211,94,1,eightsix,,,,,,,,,,,,,,,,,,,,,,,,,,,,,,,,,,,,,,,,,,,,,,,,,,,,,,,,,,,,,,,,,,,,,,,,,,,,,,,,,,,,,,,,,,,,,,,,,,,,,,,,,,,,,,,,,,,,,,,,,,,,,,,,,,,,,,,,,
,,5f3b3d16d2664625fcfa73aa,2024-02-22_04h16.51.848,kallum_motion_pilot,2023.2.2,Win32,58.82352941,5f3b3d16d2664625fcfa73aa,65d6bb0e977760de756971f7,65d6bcaa56de2f00fa72f85b,0.037,0.037,1,50,212,16,1,onetwo,,,,,,,,,,,,,,,,,,,,,,,,,,,,,,,,,,,,,,,,,,,,,,,,,,,,,,,,,,,,,,,,,,,,,,,,,,,,,,,,,,,,,,,,,,,,,,,,,,,,,,,,,,,,,,,,,,,,,,,,,,,,,,,,,,,,,,,,,
,,5f3b3d16d2664625fcfa73aa,2024-02-22_04h16.51.848,kallum_motion_pilot,2023.2.2,Win32,58.82352941,5f3b3d16d2664625fcfa73aa,65d6bb0e977760de756971f7,65d6bcaa56de2f00fa72f85b,0.038,0.038,1,51,213,37,1,threefour,,,,,,,,,,,,,,,,,,,,,,,,,,,,,,,,,,,,,,,,,,,,,,,,,,,,,,,,,,,,,,,,,,,,,,,,,,,,,,,,,,,,,,,,,,,,,,,,,,,,,,,,,,,,,,,,,,,,,,,,,,,,,,,,,,,,,,,,,
,,5f3b3d16d2664625fcfa73aa,2024-02-22_04h16.51.848,kallum_motion_pilot,2023.2.2,Win32,58.82352941,5f3b3d16d2664625fcfa73aa,65d6bb0e977760de756971f7,65d6bcaa56de2f00fa72f85b,0.038,0.038,1,52,214,105,1,fiveseven,,,,,,,,,,,,,,,,,,,,,,,,,,,,,,,,,,,,,,,,,,,,,,,,,,,,,,,,,,,,,,,,,,,,,,,,,,,,,,,,,,,,,,,,,,,,,,,,,,,,,,,,,,,,,,,,,,,,,,,,,,,,,,,,,,,,,,,,,
,,5f3b3d16d2664625fcfa73aa,2024-02-22_04h16.51.848,kallum_motion_pilot,2023.2.2,Win32,58.82352941,5f3b3d16d2664625fcfa73aa,65d6bb0e977760de756971f7,65d6bcaa56de2f00fa72f85b,0.038,0.038,1,53,215,111,1,eightseven,,,,,,,,,,,,,,,,,,,,,,,,,,,,,,,,,,,,,,,,,,,,,,,,,,,,,,,,,,,,,,,,,,,,,,,,,,,,,,,,,,,,,,,,,,,,,,,,,,,,,,,,,,,,,,,,,,,,,,,,,,,,,,,,,,,,,,,,,
,,5f3b3d16d2664625fcfa73aa,2024-02-22_04h16.51.848,kallum_motion_pilot,2023.2.2,Win32,58.82352941,5f3b3d16d2664625fcfa73aa,65d6bb0e977760de756971f7,65d6bcaa56de2f00fa72f85b,0.038,0.038,1,54,216,23,1,fourthree,,,,,,,,,,,,,,,,,,,,,,,,,,,,,,,,,,,,,,,,,,,,,,,,,,,,,,,,,,,,,,,,,,,,,,,,,,,,,,,,,,,,,,,,,,,,,,,,,,,,,,,,,,,,,,,,,,,,,,,,,,,,,,,,,,,,,,,,,
,,5f3b3d16d2664625fcfa73aa,2024-02-22_04h16.51.848,kallum_motion_pilot,2023.2.2,Win32,58.82352941,5f3b3d16d2664625fcfa73aa,65d6bb0e977760de756971f7,65d6bcaa56de2f00fa72f85b,0.038,0.038,1,55,217,40,1,onetwo,,,,,,,,,,,,,,,,,,,,,,,,,,,,,,,,,,,,,,,,,,,,,,,,,,,,,,,,,,,,,,,,,,,,,,,,,,,,,,,,,,,,,,,,,,,,,,,,,,,,,,,,,,,,,,,,,,,,,,,,,,,,,,,,,,,,,,,,,
,,5f3b3d16d2664625fcfa73aa,2024-02-22_04h16.51.848,kallum_motion_pilot,2023.2.2,Win32,58.82352941,5f3b3d16d2664625fcfa73aa,65d6bb0e977760de756971f7,65d6bcaa56de2f00fa72f85b,0.038,0.039,1,56,218,48,1,onetwo,,,,,,,,,,,,,,,,,,,,,,,,,,,,,,,,,,,,,,,,,,,,,,,,,,,,,,,,,,,,,,,,,,,,,,,,,,,,,,,,,,,,,,,,,,,,,,,,,,,,,,,,,,,,,,,,,,,,,,,,,,,,,,,,,,,,,,,,,
,,5f3b3d16d2664625fcfa73aa,2024-02-22_04h16.51.848,kallum_motion_pilot,2023.2.2,Win32,58.82352941,5f3b3d16d2664625fcfa73aa,65d6bb0e977760de756971f7,65d6bcaa56de2f00fa72f85b,0.039,0.039,1,57,219,0,1,onetwo,,,,,,,,,,,,,,,,,,,,,,,,,,,,,,,,,,,,,,,,,,,,,,,,,,,,,,,,,,,,,,,,,,,,,,,,,,,,,,,,,,,,,,,,,,,,,,,,,,,,,,,,,,,,,,,,,,,,,,,,,,,,,,,,,,,,,,,,,
,,5f3b3d16d2664625fcfa73aa,2024-02-22_04h16.51.848,kallum_motion_pilot,2023.2.2,Win32,58.82352941,5f3b3d16d2664625fcfa73aa,65d6bb0e977760de756971f7,65d6bcaa56de2f00fa72f85b,0.039,0.039,1,58,220,53,1,threefour,,,,,,,,,,,,,,,,,,,,,,,,,,,,,,,,,,,,,,,,,,,,,,,,,,,,,,,,,,,,,,,,,,,,,,,,,,,,,,,,,,,,,,,,,,,,,,,,,,,,,,,,,,,,,,,,,,,,,,,,,,,,,,,,,,,,,,,,,
,,5f3b3d16d2664625fcfa73aa,2024-02-22_04h16.51.848,kallum_motion_pilot,2023.2.2,Win32,58.82352941,5f3b3d16d2664625fcfa73aa,65d6bb0e977760de756971f7,65d6bcaa56de2f00fa72f85b,0.039,0.039,1,59,221,145,1,fiveseven,,,,,,,,,,,,,,,,,,,,,,,,,,,,,,,,,,,,,,,,,,,,,,,,,,,,,,,,,,,,,,,,,,,,,,,,,,,,,,,,,,,,,,,,,,,,,,,,,,,,,,,,,,,,,,,,,,,,,,,,,,,,,,,,,,,,,,,,,
,,5f3b3d16d2664625fcfa73aa,2024-02-22_04h16.51.848,kallum_motion_pilot,2023.2.2,Win32,58.82352941,5f3b3d16d2664625fcfa73aa,65d6bb0e977760de756971f7,65d6bcaa56de2f00fa72f85b,0.039,0.039,1,60,222,126,1,eightsix,,,,,,,,,,,,,,,,,,,,,,,,,,,,,,,,,,,,,,,,,,,,,,,,,,,,,,,,,,,,,,,,,,,,,,,,,,,,,,,,,,,,,,,,,,,,,,,,,,,,,,,,,,,,,,,,,,,,,,,,,,,,,,,,,,,,,,,,,
,,5f3b3d16d2664625fcfa73aa,2024-02-22_04h16.51.848,kallum_motion_pilot,2023.2.2,Win32,58.82352941,5f3b3d16d2664625fcfa73aa,65d6bb0e977760de756971f7,65d6bcaa56de2f00fa72f85b,0.039,0.039,1,61,223,132,1,sevenfive,,,,,,,,,,,,,,,,,,,,,,,,,,,,,,,,,,,,,,,,,,,,,,,,,,,,,,,,,,,,,,,,,,,,,,,,,,,,,,,,,,,,,,,,,,,,,,,,,,,,,,,,,,,,,,,,,,,,,,,,,,,,,,,,,,,,,,,,,
,,5f3b3d16d2664625fcfa73aa,2024-02-22_04h16.51.848,kallum_motion_pilot,2023.2.2,Win32,58.82352941,5f3b3d16d2664625fcfa73aa,65d6bb0e977760de756971f7,65d6bcaa56de2f00fa72f85b,0.04,0.04,1,62,224,20,1,threeone,,,,,,,,,,,,,,,,,,,,,,,,,,,,,,,,,,,,,,,,,,,,,,,,,,,,,,,,,,,,,,,,,,,,,,,,,,,,,,,,,,,,,,,,,,,,,,,,,,,,,,,,,,,,,,,,,,,,,,,,,,,,,,,,,,,,,,,,,
,,5f3b3d16d2664625fcfa73aa,2024-02-22_04h16.51.848,kallum_motion_pilot,2023.2.2,Win32,58.82352941,5f3b3d16d2664625fcfa73aa,65d6bb0e977760de756971f7,65d6bcaa56de2f00fa72f85b,0.04,0.04,1,63,225,42,1,twoone,,,,,,,,,,,,,,,,,,,,,,,,,,,,,,,,,,,,,,,,,,,,,,,,,,,,,,,,,,,,,,,,,,,,,,,,,,,,,,,,,,,,,,,,,,,,,,,,,,,,,,,,,,,,,,,,,,,,,,,,,,,,,,,,,,,,,,,,,
,,5f3b3d16d2664625fcfa73aa,2024-02-22_04h16.51.848,kallum_motion_pilot,2023.2.2,Win32,58.82352941,5f3b3d16d2664625fcfa73aa,65d6bb0e977760de756971f7,65d6bcaa56de2f00fa72f85b,0.04,0.04,1,64,226,91,1,sixeight,,,,,,,,,,,,,,,,,,,,,,,,,,,,,,,,,,,,,,,,,,,,,,,,,,,,,,,,,,,,,,,,,,,,,,,,,,,,,,,,,,,,,,,,,,,,,,,,,,,,,,,,,,,,,,,,,,,,,,,,,,,,,,,,,,,,,,,,,
,,5f3b3d16d2664625fcfa73aa,2024-02-22_04h16.51.848,kallum_motion_pilot,2023.2.2,Win32,58.82352941,5f3b3d16d2664625fcfa73aa,65d6bb0e977760de756971f7,65d6bcaa56de2f00fa72f85b,0.04,0.04,1,65,227,149,1,seveneight,,,,,,,,,,,,,,,,,,,,,,,,,,,,,,,,,,,,,,,,,,,,,,,,,,,,,,,,,,,,,,,,,,,,,,,,,,,,,,,,,,,,,,,,,,,,,,,,,,,,,,,,,,,,,,,,,,,,,,,,,,,,,,,,,,,,,,,,,
,,5f3b3d16d2664625fcfa73aa,2024-02-22_04h16.51.848,kallum_motion_pilot,2023.2.2,Win32,58.82352941,5f3b3d16d2664625fcfa73aa,65d6bb0e977760de756971f7,65d6bcaa56de2f00fa72f85b,0.04,0.04,1,66,228,18,1,twoone,,,,,,,,,,,,,,,,,,,,,,,,,,,,,,,,,,,,,,,,,,,,,,,,,,,,,,,,,,,,,,,,,,,,,,,,,,,,,,,,,,,,,,,,,,,,,,,,,,,,,,,,,,,,,,,,,,,,,,,,,,,,,,,,,,,,,,,,,
,,5f3b3d16d2664625fcfa73aa,2024-02-22_04h16.51.848,kallum_motion_pilot,2023.2.2,Win32,58.82352941,5f3b3d16d2664625fcfa73aa,65d6bb0e977760de756971f7,65d6bcaa56de2f00fa72f85b,0.04,0.04,1,67,229,90,1,sixfive,,,,,,,,,,,,,,,,,,,,,,,,,,,,,,,,,,,,,,,,,,,,,,,,,,,,,,,,,,,,,,,,,,,,,,,,,,,,,,,,,,,,,,,,,,,,,,,,,,,,,,,,,,,,,,,,,,,,,,,,,,,,,,,,,,,,,,,,,
,,5f3b3d16d2664625fcfa73aa,2024-02-22_04h16.51.848,kallum_motion_pilot,2023.2.2,Win32,58.82352941,5f3b3d16d2664625fcfa73aa,65d6bb0e977760de756971f7,65d6bcaa56de2f00fa72f85b,0.04,0.04,1,68,230,151,1,eightseven,,,,,,,,,,,,,,,,,,,,,,,,,,,,,,,,,,,,,,,,,,,,,,,,,,,,,,,,,,,,,,,,,,,,,,,,,,,,,,,,,,,,,,,,,,,,,,,,,,,,,,,,,,,,,,,,,,,,,,,,,,,,,,,,,,,,,,,,,
,,5f3b3d16d2664625fcfa73aa,2024-02-22_04h16.51.848,kallum_motion_pilot,2023.2.2,Win32,58.82352941,5f3b3d16d2664625fcfa73aa,65d6bb0e977760de756971f7,65d6bcaa56de2f00fa72f85b,0.04,0.04,1,69,231,131,1,sixeight,,,,,,,,,,,,,,,,,,,,,,,,,,,,,,,,,,,,,,,,,,,,,,,,,,,,,,,,,,,,,,,,,,,,,,,,,,,,,,,,,,,,,,,,,,,,,,,,,,,,,,,,,,,,,,,,,,,,,,,,,,,,,,,,,,,,,,,,,
,,5f3b3d16d2664625fcfa73aa,2024-02-22_04h16.51.848,kallum_motion_pilot,2023.2.2,Win32,58.82352941,5f3b3d16d2664625fcfa73aa,65d6bb0e977760de756971f7,65d6bcaa56de2f00fa72f85b,0.04,0.04,1,70,232,137,1,fiveseven,,,,,,,,,,,,,,,,,,,,,,,,,,,,,,,,,,,,,,,,,,,,,,,,,,,,,,,,,,,,,,,,,,,,,,,,,,,,,,,,,,,,,,,,,,,,,,,,,,,,,,,,,,,,,,,,,,,,,,,,,,,,,,,,,,,,,,,,,
,,5f3b3d16d2664625fcfa73aa,2024-02-22_04h16.51.848,kallum_motion_pilot,2023.2.2,Win32,58.82352941,5f3b3d16d2664625fcfa73aa,65d6bb0e977760de756971f7,65d6bcaa56de2f00fa72f85b,0.04,0.04,1,71,233,65,1,onethree,,,,,,,,,,,,,,,,,,,,,,,,,,,,,,,,,,,,,,,,,,,,,,,,,,,,,,,,,,,,,,,,,,,,,,,,,,,,,,,,,,,,,,,,,,,,,,,,,,,,,,,,,,,,,,,,,,,,,,,,,,,,,,,,,,,,,,,,,
,,5f3b3d16d2664625fcfa73aa,2024-02-22_04h16.51.848,kallum_motion_pilot,2023.2.2,Win32,58.82352941,5f3b3d16d2664625fcfa73aa,65d6bb0e977760de756971f7,65d6bcaa56de2f00fa72f85b,0.04,0.04,1,72,234,26,1,twoone,,,,,,,,,,,,,,,,,,,,,,,,,,,,,,,,,,,,,,,,,,,,,,,,,,,,,,,,,,,,,,,,,,,,,,,,,,,,,,,,,,,,,,,,,,,,,,,,,,,,,,,,,,,,,,,,,,,,,,,,,,,,,,,,,,,,,,,,,
,,5f3b3d16d2664625fcfa73aa,2024-02-22_04h16.51.848,kallum_motion_pilot,2023.2.2,Win32,58.82352941,5f3b3d16d2664625fcfa73aa,65d6bb0e977760de756971f7,65d6bcaa56de2f00fa72f85b,0.04,0.04,1,73,235,2,1,twoone,,,,,,,,,,,,,,,,,,,,,,,,,,,,,,,,,,,,,,,,,,,,,,,,,,,,,,,,,,,,,,,,,,,,,,,,,,,,,,,,,,,,,,,,,,,,,,,,,,,,,,,,,,,,,,,,,,,,,,,,,,,,,,,,,,,,,,,,,
,,5f3b3d16d2664625fcfa73aa,2024-02-22_04h16.51.848,kallum_motion_pilot,2023.2.2,Win32,58.82352941,5f3b3d16d2664625fcfa73aa,65d6bb0e977760de756971f7,65d6bcaa56de2f00fa72f85b,0.041,0.041,1,74,236,60,1,threeone,,,,,,,,,,,,,,,,,,,,,,,,,,,,,,,,,,,,,,,,,,,,,,,,,,,,,,,,,,,,,,,,,,,,,,,,,,,,,,,,,,,,,,,,,,,,,,,,,,,,,,,,,,,,,,,,,,,,,,,,,,,,,,,,,,,,,,,,,
,,5f3b3d16d2664625fcfa73aa,2024-02-22_04h16.51.848,kallum_motion_pilot,2023.2.2,Win32,58.82352941,5f3b3d16d2664625fcfa73aa,65d6bb0e977760de756971f7,65d6bcaa56de2f00fa72f85b,0.041,0.041,1,75,237,46,1,fourtwo,,,,,,,,,,,,,,,,,,,,,,,,,,,,,,,,,,,,,,,,,,,,,,,,,,,,,,,,,,,,,,,,,,,,,,,,,,,,,,,,,,,,,,,,,,,,,,,,,,,,,,,,,,,,,,,,,,,,,,,,,,,,,,,,,,,,,,,,,
,,5f3b3d16d2664625fcfa73aa,2024-02-22_04h16.51.848,kallum_motion_pilot,2023.2.2,Win32,58.82352941,5f3b3d16d2664625fcfa73aa,65d6bb0e977760de756971f7,65d6bcaa56de2f00fa72f85b,0.041,0.041,1,76,238,49,1,onethree,,,,,,,,,,,,,,,,,,,,,,,,,,,,,,,,,,,,,,,,,,,,,,,,,,,,,,,,,,,,,,,,,,,,,,,,,,,,,,,,,,,,,,,,,,,,,,,,,,,,,,,,,,,,,,,,,,,,,,,,,,,,,,,,,,,,,,,,,
,,5f3b3d16d2664625fcfa73aa,2024-02-22_04h16.51.848,kallum_motion_pilot,2023.2.2,Win32,58.82352941,5f3b3d16d2664625fcfa73aa,65d6bb0e977760de756971f7,65d6bcaa56de2f00fa72f85b,0.041,0.041,1,77,239,11,1,twofour,,,,,,,,,,,,,,,,,,,,,,,,,,,,,,,,,,,,,,,,,,,,,,,,,,,,,,,,,,,,,,,,,,,,,,,,,,,,,,,,,,,,,,,,,,,,,,,,,,,,,,,,,,,,,,,,,,,,,,,,,,,,,,,,,,,,,,,,,
,,5f3b3d16d2664625fcfa73aa,2024-02-22_04h16.51.848,kallum_motion_pilot,2023.2.2,Win32,58.82352941,5f3b3d16d2664625fcfa73aa,65d6bb0e977760de756971f7,65d6bcaa56de2f00fa72f85b,0.041,0.041,1,78,240,101,1,seveneight,,,,,,,,,,,,,,,,,,,,,,,,,,,,,,,,,,,,,,,,,,,,,,,,,,,,,,,,,,,,,,,,,,,,,,,,,,,,,,,,,,,,,,,,,,,,,,,,,,,,,,,,,,,,,,,,,,,,,,,,,,,,,,,,,,,,,,,,,
,,5f3b3d16d2664625fcfa73aa,2024-02-22_04h16.51.848,kallum_motion_pilot,2023.2.2,Win32,58.82352941,5f3b3d16d2664625fcfa73aa,65d6bb0e977760de756971f7,65d6bcaa56de2f00fa72f85b,0.041,0.041,1,79,241,21,1,threefour,,,,,,,,,,,,,,,,,,,,,,,,,,,,,,,,,,,,,,,,,,,,,,,,,,,,,,,,,,,,,,,,,,,,,,,,,,,,,,,,,,,,,,,,,,,,,,,,,,,,,,,,,,,,,,,,,,,,,,,,,,,,,,,,,,,,,,,,,
,,5f3b3d16d2664625fcfa73aa,2024-02-22_04h16.51.848,kallum_motion_pilot,2023.2.2,Win32,58.82352941,5f3b3d16d2664625fcfa73aa,65d6bb0e977760de756971f7,65d6bcaa56de2f00fa72f85b,0.041,0.041,1,80,242,67,1,twofour,,,,,,,,,,,,,,,,,,,,,,,,,,,,,,,,,,,,,,,,,,,,,,,,,,,,,,,,,,,,,,,,,,,,,,,,,,,,,,,,,,,,,,,,,,,,,,,,,,,,,,,,,,,,,,,,,,,,,,,,,,,,,,,,,,,,,,,,,
,,5f3b3d16d2664625fcfa73aa,2024-02-22_04h16.51.848,kallum_motion_pilot,2023.2.2,Win32,58.82352941,5f3b3d16d2664625fcfa73aa,65d6bb0e977760de756971f7,65d6bcaa56de2f00fa72f85b,0.041,0.041,1,81,243,157,1,seveneight,,,,,,,,,,,,,,,,,,,,,,,,,,,,,,,,,,,,,,,,,,,,,,,,,,,,,,,,,,,,,,,,,,,,,,,,,,,,,,,,,,,,,,,,,,,,,,,,,,,,,,,,,,,,,,,,,,,,,,,,,,,,,,,,,,,,,,,,,
,,5f3b3d16d2664625fcfa73aa,2024-02-22_04h16.51.848,kallum_motion_pilot,2023.2.2,Win32,58.82352941,5f3b3d16d2664625fcfa73aa,65d6bb0e977760de756971f7,65d6bcaa56de2f00fa72f85b,0.041,0.041,1,82,244,68,1,threeone,,,,,,,,,,,,,,,,,,,,,,,,,,,,,,,,,,,,,,,,,,,,,,,,,,,,,,,,,,,,,,,,,,,,,,,,,,,,,,,,,,,,,,,,,,,,,,,,,,,,,,,,,,,,,,,,,,,,,,,,,,,,,,,,,,,,,,,,,
,,5f3b3d16d2664625fcfa73aa,2024-02-22_04h16.51.848,kallum_motion_pilot,2023.2.2,Win32,58.82352941,5f3b3d16d2664625fcfa73aa,65d6bb0e977760de756971f7,65d6bcaa56de2f00fa72f85b,0.041,0.041,1,83,245,86,1,eightsix,,,,,,,,,,,,,,,,,,,,,,,,,,,,,,,,,,,,,,,,,,,,,,,,,,,,,,,,,,,,,,,,,,,,,,,,,,,,,,,,,,,,,,,,,,,,,,,,,,,,,,,,,,,,,,,,,,,,,,,,,,,,,,,,,,,,,,,,,
,,5f3b3d16d2664625fcfa73aa,2024-02-22_04h16.51.848,kallum_motion_pilot,2023.2.2,Win32,58.82352941,5f3b3d16d2664625fcfa73aa,65d6bb0e977760de756971f7,65d6bcaa56de2f00fa72f85b,0.041,0.041,1,84,246,69,1,threefour,,,,,,,,,,,,,,,,,,,,,,,,,,,,,,,,,,,,,,,,,,,,,,,,,,,,,,,,,,,,,,,,,,,,,,,,,,,,,,,,,,,,,,,,,,,,,,,,,,,,,,,,,,,,,,,,,,,,,,,,,,,,,,,,,,,,,,,,,
,,5f3b3d16d2664625fcfa73aa,2024-02-22_04h16.51.848,kallum_motion_pilot,2023.2.2,Win32,58.82352941,5f3b3d16d2664625fcfa73aa,65d6bb0e977760de756971f7,65d6bcaa56de2f00fa72f85b,0.041,0.041,1,85,247,144,1,fivesix,,,,,,,,,,,,,,,,,,,,,,,,,,,,,,,,,,,,,,,,,,,,,,,,,,,,,,,,,,,,,,,,,,,,,,,,,,,,,,,,,,,,,,,,,,,,,,,,,,,,,,,,,,,,,,,,,,,,,,,,,,,,,,,,,,,,,,,,,
,,5f3b3d16d2664625fcfa73aa,2024-02-22_04h16.51.848,kallum_motion_pilot,2023.2.2,Win32,58.82352941,5f3b3d16d2664625fcfa73aa,65d6bb0e977760de756971f7,65d6bcaa56de2f00fa72f85b,0.041,0.042,1,86,248,3,1,twofour,,,,,,,,,,,,,,,,,,,,,,,,,,,,,,,,,,,,,,,,,,,,,,,,,,,,,,,,,,,,,,,,,,,,,,,,,,,,,,,,,,,,,,,,,,,,,,,,,,,,,,,,,,,,,,,,,,,,,,,,,,,,,,,,,,,,,,,,,
,,5f3b3d16d2664625fcfa73aa,2024-02-22_04h16.51.848,kallum_motion_pilot,2023.2.2,Win32,58.82352941,5f3b3d16d2664625fcfa73aa,65d6bb0e977760de756971f7,65d6bcaa56de2f00fa72f85b,0.042,0.042,1,87,249,12,1,threeone,,,,,,,,,,,,,,,,,,,,,,,,,,,,,,,,,,,,,,,,,,,,,,,,,,,,,,,,,,,,,,,,,,,,,,,,,,,,,,,,,,,,,,,,,,,,,,,,,,,,,,,,,,,,,,,,,,,,,,,,,,,,,,,,,,,,,,,,,
,,5f3b3d16d2664625fcfa73aa,2024-02-22_04h16.51.848,kallum_motion_pilot,2023.2.2,Win32,58.82352941,5f3b3d16d2664625fcfa73aa,65d6bb0e977760de756971f7,65d6bcaa56de2f00fa72f85b,0.042,0.042,1,88,250,130,1,sixfive,,,,,,,,,,,,,,,,,,,,,,,,,,,,,,,,,,,,,,,,,,,,,,,,,,,,,,,,,,,,,,,,,,,,,,,,,,,,,,,,,,,,,,,,,,,,,,,,,,,,,,,,,,,,,,,,,,,,,,,,,,,,,,,,,,,,,,,,,
,,5f3b3d16d2664625fcfa73aa,2024-02-22_04h16.51.848,kallum_motion_pilot,2023.2.2,Win32,58.82352941,5f3b3d16d2664625fcfa73aa,65d6bb0e977760de756971f7,65d6bcaa56de2f00fa72f85b,0.042,0.042,1,89,251,34,1,twoone,,,,,,,,,,,,,,,,,,,,,,,,,,,,,,,,,,,,,,,,,,,,,,,,,,,,,,,,,,,,,,,,,,,,,,,,,,,,,,,,,,,,,,,,,,,,,,,,,,,,,,,,,,,,,,,,,,,,,,,,,,,,,,,,,,,,,,,,,
,,5f3b3d16d2664625fcfa73aa,2024-02-22_04h16.51.848,kallum_motion_pilot,2023.2.2,Win32,58.82352941,5f3b3d16d2664625fcfa73aa,65d6bb0e977760de756971f7,65d6bcaa56de2f00fa72f85b,0.042,0.043,1,90,252,84,1,sevenfive,,,,,,,,,,,,,,,,,,,,,,,,,,,,,,,,,,,,,,,,,,,,,,,,,,,,,,,,,,,,,,,,,,,,,,,,,,,,,,,,,,,,,,,,,,,,,,,,,,,,,,,,,,,,,,,,,,,,,,,,,,,,,,,,,,,,,,,,,
,,5f3b3d16d2664625fcfa73aa,2024-02-22_04h16.51.848,kallum_motion_pilot,2023.2.2,Win32,58.82352941,5f3b3d16d2664625fcfa73aa,65d6bb0e977760de756971f7,65d6bcaa56de2f00fa72f85b,0.043,0.043,1,91,253,57,1,onethree,,,,,,,,,,,,,,,,,,,,,,,,,,,,,,,,,,,,,,,,,,,,,,,,,,,,,,,,,,,,,,,,,,,,,,,,,,,,,,,,,,,,,,,,,,,,,,,,,,,,,,,,,,,,,,,,,,,,,,,,,,,,,,,,,,,,,,,,,
,,5f3b3d16d2664625fcfa73aa,2024-02-22_04h16.51.848,kallum_motion_pilot,2023.2.2,Win32,58.82352941,5f3b3d16d2664625fcfa73aa,65d6bb0e977760de756971f7,65d6bcaa56de2f00fa72f85b,0.043,0.043,1,92,254,103,1,eightseven,,,,,,,,,,,,,,,,,,,,,,,,,,,,,,,,,,,,,,,,,,,,,,,,,,,,,,,,,,,,,,,,,,,,,,,,,,,,,,,,,,,,,,,,,,,,,,,,,,,,,,,,,,,,,,,,,,,,,,,,,,,,,,,,,,,,,,,,,
,,5f3b3d16d2664625fcfa73aa,2024-02-22_04h16.51.848,kallum_motion_pilot,2023.2.2,Win32,58.82352941,5f3b3d16d2664625fcfa73aa,65d6bb0e977760de756971f7,65d6bcaa56de2f00fa72f85b,0.043,0.043,1,93,255,72,1,onetwo,,,,,,,,,,,,,,,,,,,,,,,,,,,,,,,,,,,,,,,,,,,,,,,,,,,,,,,,,,,,,,,,,,,,,,,,,,,,,,,,,,,,,,,,,,,,,,,,,,,,,,,,,,,,,,,,,,,,,,,,,,,,,,,,,,,,,,,,,
,,5f3b3d16d2664625fcfa73aa,2024-02-22_04h16.51.848,kallum_motion_pilot,2023.2.2,Win32,58.82352941,5f3b3d16d2664625fcfa73aa,65d6bb0e977760de756971f7,65d6bcaa56de2f00fa72f85b,0.043,0.043,1,94,256,8,1,onetwo,,,,,,,,,,,,,,,,,,,,,,,,,,,,,,,,,,,,,,,,,,,,,,,,,,,,,,,,,,,,,,,,,,,,,,,,,,,,,,,,,,,,,,,,,,,,,,,,,,,,,,,,,,,,,,,,,,,,,,,,,,,,,,,,,,,,,,,,,
,,5f3b3d16d2664625fcfa73aa,2024-02-22_04h16.51.848,kallum_motion_pilot,2023.2.2,Win32,58.82352941,5f3b3d16d2664625fcfa73aa,65d6bb0e977760de756971f7,65d6bcaa56de2f00fa72f85b,0.043,0.043,1,95,257,122,1,sixfive,,,,,,,,,,,,,,,,,,,,,,,,,,,,,,,,,,,,,,,,,,,,,,,,,,,,,,,,,,,,,,,,,,,,,,,,,,,,,,,,,,,,,,,,,,,,,,,,,,,,,,,,,,,,,,,,,,,,,,,,,,,,,,,,,,,,,,,,,
,,5f3b3d16d2664625fcfa73aa,2024-02-22_04h16.51.848,kallum_motion_pilot,2023.2.2,Win32,58.82352941,5f3b3d16d2664625fcfa73aa,65d6bb0e977760de756971f7,65d6bcaa56de2f00fa72f85b,0.043,0.043,1,96,258,27,1,twofour,,,,,,,,,,,,,,,,,,,,,,,,,,,,,,,,,,,,,,,,,,,,,,,,,,,,,,,,,,,,,,,,,,,,,,,,,,,,,,,,,,,,,,,,,,,,,,,,,,,,,,,,,,,,,,,,,,,,,,,,,,,,,,,,,,,,,,,,,
,,5f3b3d16d2664625fcfa73aa,2024-02-22_04h16.51.848,kallum_motion_pilot,2023.2.2,Win32,58.82352941,5f3b3d16d2664625fcfa73aa,65d6bb0e977760de756971f7,65d6bcaa56de2f00fa72f85b,0.043,0.043,1,97,259,24,1,onetwo,,,,,,,,,,,,,,,,,,,,,,,,,,,,,,,,,,,,,,,,,,,,,,,,,,,,,,,,,,,,,,,,,,,,,,,,,,,,,,,,,,,,,,,,,,,,,,,,,,,,,,,,,,,,,,,,,,,,,,,,,,,,,,,,,,,,,,,,,
,,5f3b3d16d2664625fcfa73aa,2024-02-22_04h16.51.848,kallum_motion_pilot,2023.2.2,Win32,58.82352941,5f3b3d16d2664625fcfa73aa,65d6bb0e977760de756971f7,65d6bcaa56de2f00fa72f85b,0.043,0.043,1,98,260,98,1,sixfive,,,,,,,,,,,,,,,,,,,,,,,,,,,,,,,,,,,,,,,,,,,,,,,,,,,,,,,,,,,,,,,,,,,,,,,,,,,,,,,,,,,,,,,,,,,,,,,,,,,,,,,,,,,,,,,,,,,,,,,,,,,,,,,,,,,,,,,,,
,,5f3b3d16d2664625fcfa73aa,2024-02-22_04h16.51.848,kallum_motion_pilot,2023.2.2,Win32,58.82352941,5f3b3d16d2664625fcfa73aa,65d6bb0e977760de756971f7,65d6bcaa56de2f00fa72f85b,0.044,0.044,1,99,261,78,1,fourtwo,,,,,,,,,,,,,,,,,,,,,,,,,,,,,,,,,,,,,,,,,,,,,,,,,,,,,,,,,,,,,,,,,,,,,,,,,,,,,,,,,,,,,,,,,,,,,,,,,,,,,,,,,,,,,,,,,,,,,,,,,,,,,,,,,,,,,,,,,
,,5f3b3d16d2664625fcfa73aa,2024-02-22_04h16.51.848,kallum_motion_pilot,2023.2.2,Win32,58.82352941,5f3b3d16d2664625fcfa73aa,65d6bb0e977760de756971f7,65d6bcaa56de2f00fa72f85b,0.044,0.044,1,100,262,14,1,fourtwo,,,,,,,,,,,,,,,,,,,,,,,,,,,,,,,,,,,,,,,,,,,,,,,,,,,,,,,,,,,,,,,,,,,,,,,,,,,,,,,,,,,,,,,,,,,,,,,,,,,,,,,,,,,,,,,,,,,,,,,,,,,,,,,,,,,,,,,,,
,,5f3b3d16d2664625fcfa73aa,2024-02-22_04h16.51.848,kallum_motion_pilot,2023.2.2,Win32,58.82352941,5f3b3d16d2664625fcfa73aa,65d6bb0e977760de756971f7,65d6bcaa56de2f00fa72f85b,0.044,0.044,1,101,263,5,1,threefour,,,,,,,,,,,,,,,,,,,,,,,,,,,,,,,,,,,,,,,,,,,,,,,,,,,,,,,,,,,,,,,,,,,,,,,,,,,,,,,,,,,,,,,,,,,,,,,,,,,,,,,,,,,,,,,,,,,,,,,,,,,,,,,,,,,,,,,,,
,,5f3b3d16d2664625fcfa73aa,2024-02-22_04h16.51.848,kallum_motion_pilot,2023.2.2,Win32,58.82352941,5f3b3d16d2664625fcfa73aa,65d6bb0e977760de756971f7,65d6bcaa56de2f00fa72f85b,0.044,0.044,1,102,264,127,1,eightseven,,,,,,,,,,,,,,,,,,,,,,,,,,,,,,,,,,,,,,,,,,,,,,,,,,,,,,,,,,,,,,,,,,,,,,,,,,,,,,,,,,,,,,,,,,,,,,,,,,,,,,,,,,,,,,,,,,,,,,,,,,,,,,,,,,,,,,,,,
,,5f3b3d16d2664625fcfa73aa,2024-02-22_04h16.51.848,kallum_motion_pilot,2023.2.2,Win32,58.82352941,5f3b3d16d2664625fcfa73aa,65d6bb0e977760de756971f7,65d6bcaa56de2f00fa72f85b,0.044,0.044,1,103,265,104,1,fivesix,,,,,,,,,,,,,,,,,,,,,,,,,,,,,,,,,,,,,,,,,,,,,,,,,,,,,,,,,,,,,,,,,,,,,,,,,,,,,,,,,,,,,,,,,,,,,,,,,,,,,,,,,,,,,,,,,,,,,,,,,,,,,,,,,,,,,,,,,
,,5f3b3d16d2664625fcfa73aa,2024-02-22_04h16.51.848,kallum_motion_pilot,2023.2.2,Win32,58.82352941,5f3b3d16d2664625fcfa73aa,65d6bb0e977760de756971f7,65d6bcaa56de2f00fa72f85b,0.044,0.044,1,104,266,17,1,onethree,,,,,,,,,,,,,,,,,,,,,,,,,,,,,,,,,,,,,,,,,,,,,,,,,,,,,,,,,,,,,,,,,,,,,,,,,,,,,,,,,,,,,,,,,,,,,,,,,,,,,,,,,,,,,,,,,,,,,,,,,,,,,,,,,,,,,,,,,
,,5f3b3d16d2664625fcfa73aa,2024-02-22_04h16.51.848,kallum_motion_pilot,2023.2.2,Win32,58.82352941,5f3b3d16d2664625fcfa73aa,65d6bb0e977760de756971f7,65d6bcaa56de2f00fa72f85b,0.044,0.044,1,105,267,123,1,sixeight,,,,,,,,,,,,,,,,,,,,,,,,,,,,,,,,,,,,,,,,,,,,,,,,,,,,,,,,,,,,,,,,,,,,,,,,,,,,,,,,,,,,,,,,,,,,,,,,,,,,,,,,,,,,,,,,,,,,,,,,,,,,,,,,,,,,,,,,,
,,5f3b3d16d2664625fcfa73aa,2024-02-22_04h16.51.848,kallum_motion_pilot,2023.2.2,Win32,58.82352941,5f3b3d16d2664625fcfa73aa,65d6bb0e977760de756971f7,65d6bcaa56de2f00fa72f85b,0.044,0.044,1,106,268,85,1,seveneight,,,,,,,,,,,,,,,,,,,,,,,,,,,,,,,,,,,,,,,,,,,,,,,,,,,,,,,,,,,,,,,,,,,,,,,,,,,,,,,,,,,,,,,,,,,,,,,,,,,,,,,,,,,,,,,,,,,,,,,,,,,,,,,,,,,,,,,,,
,,5f3b3d16d2664625fcfa73aa,2024-02-22_04h16.51.848,kallum_motion_pilot,2023.2.2,Win32,58.82352941,5f3b3d16d2664625fcfa73aa,65d6bb0e977760de756971f7,65d6bcaa56de2f00fa72f85b,0.044,0.044,1,107,269,161,1,fiveseven,,,,,,,,,,,,,,,,,,,,,,,,,,,,,,,,,,,,,,,,,,,,,,,,,,,,,,,,,,,,,,,,,,,,,,,,,,,,,,,,,,,,,,,,,,,,,,,,,,,,,,,,,,,,,,,,,,,,,,,,,,,,,,,,,,,,,,,,,
,,5f3b3d16d2664625fcfa73aa,2024-02-22_04h16.51.848,kallum_motion_pilot,2023.2.2,Win32,58.82352941,5f3b3d16d2664625fcfa73aa,65d6bb0e977760de756971f7,65d6bcaa56de2f00fa72f85b,0.044,0.044,1,108,270,99,1,sixeight,,,,,,,,,,,,,,,,,,,,,,,,,,,,,,,,,,,,,,,,,,,,,,,,,,,,,,,,,,,,,,,,,,,,,,,,,,,,,,,,,,,,,,,,,,,,,,,,,,,,,,,,,,,,,,,,,,,,,,,,,,,,,,,,,,,,,,,,,
,,5f3b3d16d2664625fcfa73aa,2024-02-22_04h16.51.848,kallum_motion_pilot,2023.2.2,Win32,58.82352941,5f3b3d16d2664625fcfa73aa,65d6bb0e977760de756971f7,65d6bcaa56de2f00fa72f85b,0.044,0.044,1,109,271,155,1,sixeight,,,,,,,,,,,,,,,,,,,,,,,,,,,,,,,,,,,,,,,,,,,,,,,,,,,,,,,,,,,,,,,,,,,,,,,,,,,,,,,,,,,,,,,,,,,,,,,,,,,,,,,,,,,,,,,,,,,,,,,,,,,,,,,,,,,,,,,,,
,,5f3b3d16d2664625fcfa73aa,2024-02-22_04h16.51.848,kallum_motion_pilot,2023.2.2,Win32,58.82352941,5f3b3d16d2664625fcfa73aa,65d6bb0e977760de756971f7,65d6bcaa56de2f00fa72f85b,0.044,0.045,1,110,272,136,1,fivesix,,,,,,,,,,,,,,,,,,,,,,,,,,,,,,,,,,,,,,,,,,,,,,,,,,,,,,,,,,,,,,,,,,,,,,,,,,,,,,,,,,,,,,,,,,,,,,,,,,,,,,,,,,,,,,,,,,,,,,,,,,,,,,,,,,,,,,,,,
,,5f3b3d16d2664625fcfa73aa,2024-02-22_04h16.51.848,kallum_motion_pilot,2023.2.2,Win32,58.82352941,5f3b3d16d2664625fcfa73aa,65d6bb0e977760de756971f7,65d6bcaa56de2f00fa72f85b,0.045,0.045,1,111,273,56,1,onetwo,,,,,,,,,,,,,,,,,,,,,,,,,,,,,,,,,,,,,,,,,,,,,,,,,,,,,,,,,,,,,,,,,,,,,,,,,,,,,,,,,,,,,,,,,,,,,,,,,,,,,,,,,,,,,,,,,,,,,,,,,,,,,,,,,,,,,,,,,
,,5f3b3d16d2664625fcfa73aa,2024-02-22_04h16.51.848,kallum_motion_pilot,2023.2.2,Win32,58.82352941,5f3b3d16d2664625fcfa73aa,65d6bb0e977760de756971f7,65d6bcaa56de2f00fa72f85b,0.045,0.045,1,112,274,75,1,twofour,,,,,,,,,,,,,,,,,,,,,,,,,,,,,,,,,,,,,,,,,,,,,,,,,,,,,,,,,,,,,,,,,,,,,,,,,,,,,,,,,,,,,,,,,,,,,,,,,,,,,,,,,,,,,,,,,,,,,,,,,,,,,,,,,,,,,,,,,
,,5f3b3d16d2664625fcfa73aa,2024-02-22_04h16.51.848,kallum_motion_pilot,2023.2.2,Win32,58.82352941,5f3b3d16d2664625fcfa73aa,65d6bb0e977760de756971f7,65d6bcaa56de2f00fa72f85b,0.045,0.045,1,113,275,10,1,twoone,,,,,,,,,,,,,,,,,,,,,,,,,,,,,,,,,,,,,,,,,,,,,,,,,,,,,,,,,,,,,,,,,,,,,,,,,,,,,,,,,,,,,,,,,,,,,,,,,,,,,,,,,,,,,,,,,,,,,,,,,,,,,,,,,,,,,,,,,
,,5f3b3d16d2664625fcfa73aa,2024-02-22_04h16.51.848,kallum_motion_pilot,2023.2.2,Win32,58.82352941,5f3b3d16d2664625fcfa73aa,65d6bb0e977760de756971f7,65d6bcaa56de2f00fa72f85b,0.045,0.045,1,114,276,71,1,fourthree,,,,,,,,,,,,,,,,,,,,,,,,,,,,,,,,,,,,,,,,,,,,,,,,,,,,,,,,,,,,,,,,,,,,,,,,,,,,,,,,,,,,,,,,,,,,,,,,,,,,,,,,,,,,,,,,,,,,,,,,,,,,,,,,,,,,,,,,,
,,5f3b3d16d2664625fcfa73aa,2024-02-22_04h16.51.848,kallum_motion_pilot,2023.2.2,Win32,58.82352941,5f3b3d16d2664625fcfa73aa,65d6bb0e977760de756971f7,65d6bcaa56de2f00fa72f85b,0.045,0.045,1,115,277,81,1,fiveseven,,,,,,,,,,,,,,,,,,,,,,,,,,,,,,,,,,,,,,,,,,,,,,,,,,,,,,,,,,,,,,,,,,,,,,,,,,,,,,,,,,,,,,,,,,,,,,,,,,,,,,,,,,,,,,,,,,,,,,,,,,,,,,,,,,,,,,,,,
,,5f3b3d16d2664625fcfa73aa,2024-02-22_04h16.51.848,kallum_motion_pilot,2023.2.2,Win32,58.82352941,5f3b3d16d2664625fcfa73aa,65d6bb0e977760de756971f7,65d6bcaa56de2f00fa72f85b,0.045,0.045,1,116,278,47,1,fourthree,,,,,,,,,,,,,,,,,,,,,,,,,,,,,,,,,,,,,,,,,,,,,,,,,,,,,,,,,,,,,,,,,,,,,,,,,,,,,,,,,,,,,,,,,,,,,,,,,,,,,,,,,,,,,,,,,,,,,,,,,,,,,,,,,,,,,,,,,
,,5f3b3d16d2664625fcfa73aa,2024-02-22_04h16.51.848,kallum_motion_pilot,2023.2.2,Win32,58.82352941,5f3b3d16d2664625fcfa73aa,65d6bb0e977760de756971f7,65d6bcaa56de2f00fa72f85b,0.045,0.045,1,117,279,112,1,fivesix,,,,,,,,,,,,,,,,,,,,,,,,,,,,,,,,,,,,,,,,,,,,,,,,,,,,,,,,,,,,,,,,,,,,,,,,,,,,,,,,,,,,,,,,,,,,,,,,,,,,,,,,,,,,,,,,,,,,,,,,,,,,,,,,,,,,,,,,,
