startup.started,startup.stopped,Prolific ID*,date,expName,psychopyVersion,OS,frameRate,participant,study_id,session,stimpositions.started,stimpositions.stopped,hardcoded_stimulus_positions.thisRepN,hardcoded_stimulus_positions.thisTrialN,hardcoded_stimulus_positions.thisN,hardcoded_stimulus_positions.thisIndex,hardcoded_stimulus_positions.ran,StimulusPos,stimorientation.started,stimorientation.stopped,prac_stimorientation_import_loop.thisRepN,prac_stimorientation_import_loop.thisTrialN,prac_stimorientation_import_loop.thisN,prac_stimorientation_import_loop.thisIndex,prac_stimorientation_import_loop.ran,Stimorientation,welcome_instr.started,welcome_instr.stopped,key_resp.keys,key_resp.rt,key_resp.duration,response_steppedout_1.started,response_steppedout_1.stopped,key_resp_20.keys,key_resp_20.rt,key_resp_20.duration,response_steppedout_2.started,response_steppedout_2.stopped,key_resp_19.keys,key_resp_19.rt,key_resp_19.duration,stim_response_instr.started,stim_response_instr.stopped,key_resp_15.keys,key_resp_15.rt,key_resp_15.duration,direction_instr_2.started,direction_instr_2.stopped,key_resp_9.keys,key_resp_9.rt,key_resp_9.duration,instr_prac.started,instr_prac.stopped,key_resp_10.keys,key_resp_10.rt,key_resp_10.duration,Stim1_display_prac.started,Stim1_display_prac.stopped,Ecc,Circle1_ori,Circle2_ori,response_prac.started,similarity,response_time,response_prac.stopped,mouse_5.x,mouse_5.y,mouse_5.leftButton,mouse_5.midButton,mouse_5.rightButton,mouse_5.clicked_name,responseprac_feedback.started,responseprac_feedback.stopped,summary2_prac.started,summary2_prac.stopped,mouse_6.x,mouse_6.y,mouse_6.leftButton,mouse_6.midButton,mouse_6.rightButton,mouse_6.clicked_name,duringprac.thisRepN,duringprac.thisTrialN,duringprac.thisN,duringprac.thisIndex,duringprac.ran,begin.started,begin.stopped,key_resp_22.keys,key_resp_22.rt,key_resp_22.duration,Stim1_display.started,Stim1_display.stopped,circle1_ori,circle2_ori,circle1_SF,circle2_SF,response.started,response.stopped,mouse.x,mouse.y,mouse.leftButton,mouse.midButton,mouse.rightButton,mouse.clicked_name,trialnumber,double_pass.thisRepN,double_pass.thisTrialN,double_pass.thisN,double_pass.thisIndex,double_pass.ran,double_pass.order,main_trial.thisRepN,main_trial.thisTrialN,main_trial.thisN,main_trial.thisIndex,main_trial.ran,main_trial.order,Trial_Counter,Catch,Frequencies,response_2.started,response_2.stopped,mouse_2.x,mouse_2.y,mouse_2.leftButton,mouse_2.midButton,mouse_2.rightButton,mouse_2.clicked_name,special_trial.started,special_trial.stopped,catch_1.started,catch_1.stopped,mouse_3.x,mouse_3.y,mouse_3.leftButton,mouse_3.midButton,mouse_3.rightButton,catchresponse,catchnumber,response_time_catch,response_sum.started,response_sum.stopped,mouse_11.x,mouse_11.y,mouse_11.leftButton,mouse_11.midButton,mouse_11.rightButton,flip_presentation_sequence_for_double_pass.started,flip_presentation_sequence_for_double_pass.stopped,goodbye.started,goodbye.stopped,key_resp_3.keys,key_resp_3.rt,key_resp_3.duration
0.0011,0.0011,5f527fcd94f94754853db0e5,2024-02-18_20h12.58.007,kallum_motion_pilot,2023.2.2,Win32,60.24096386,5f527fcd94f94754853db0e5,65d2b6c8f2eece985d8e374c,65d2b910924c2db16f8dae82,,,,,,,,,,,,,,,,,,,,,,,,,,,,,,,,,,,,,,,,,,,,,,,,,,,,,,,,,,,,,,,,,,,,,,,,,,,,,,,,,,,,,,,,,,,,,,,,,,,,,,,,,,,,,,,,,,,,,,,,,,,,,,,,,,,,,,,,,,,,,,,,,
,,5f527fcd94f94754853db0e5,2024-02-18_20h12.58.007,kallum_motion_pilot,2023.2.2,Win32,60.24096386,5f527fcd94f94754853db0e5,65d2b6c8f2eece985d8e374c,65d2b910924c2db16f8dae82,0.0333,0.0336,0,0,0,77,1,threefour,,,,,,,,,,,,,,,,,,,,,,,,,,,,,,,,,,,,,,,,,,,,,,,,,,,,,,,,,,,,,,,,,,,,,,,,,,,,,,,,,,,,,,,,,,,,,,,,,,,,,,,,,,,,,,,,,,,,,,,,,,,,,,,,,,,,,,,,,
,,5f527fcd94f94754853db0e5,2024-02-18_20h12.58.007,kallum_motion_pilot,2023.2.2,Win32,60.24096386,5f527fcd94f94754853db0e5,65d2b6c8f2eece985d8e374c,65d2b910924c2db16f8dae82,0.0341,0.0342,0,1,1,152,1,fivesix,,,,,,,,,,,,,,,,,,,,,,,,,,,,,,,,,,,,,,,,,,,,,,,,,,,,,,,,,,,,,,,,,,,,,,,,,,,,,,,,,,,,,,,,,,,,,,,,,,,,,,,,,,,,,,,,,,,,,,,,,,,,,,,,,,,,,,,,,
,,5f527fcd94f94754853db0e5,2024-02-18_20h12.58.007,kallum_motion_pilot,2023.2.2,Win32,60.24096386,5f527fcd94f94754853db0e5,65d2b6c8f2eece985d8e374c,65d2b910924c2db16f8dae82,0.0345,0.0345,0,2,2,94,1,eightsix,,,,,,,,,,,,,,,,,,,,,,,,,,,,,,,,,,,,,,,,,,,,,,,,,,,,,,,,,,,,,,,,,,,,,,,,,,,,,,,,,,,,,,,,,,,,,,,,,,,,,,,,,,,,,,,,,,,,,,,,,,,,,,,,,,,,,,,,,
,,5f527fcd94f94754853db0e5,2024-02-18_20h12.58.007,kallum_motion_pilot,2023.2.2,Win32,60.24096386,5f527fcd94f94754853db0e5,65d2b6c8f2eece985d8e374c,65d2b910924c2db16f8dae82,0.0348,0.0349,0,3,3,60,1,threeone,,,,,,,,,,,,,,,,,,,,,,,,,,,,,,,,,,,,,,,,,,,,,,,,,,,,,,,,,,,,,,,,,,,,,,,,,,,,,,,,,,,,,,,,,,,,,,,,,,,,,,,,,,,,,,,,,,,,,,,,,,,,,,,,,,,,,,,,,
,,5f527fcd94f94754853db0e5,2024-02-18_20h12.58.007,kallum_motion_pilot,2023.2.2,Win32,60.24096386,5f527fcd94f94754853db0e5,65d2b6c8f2eece985d8e374c,65d2b910924c2db16f8dae82,0.0352,0.0352,0,4,4,23,1,fourthree,,,,,,,,,,,,,,,,,,,,,,,,,,,,,,,,,,,,,,,,,,,,,,,,,,,,,,,,,,,,,,,,,,,,,,,,,,,,,,,,,,,,,,,,,,,,,,,,,,,,,,,,,,,,,,,,,,,,,,,,,,,,,,,,,,,,,,,,,
,,5f527fcd94f94754853db0e5,2024-02-18_20h12.58.007,kallum_motion_pilot,2023.2.2,Win32,60.24096386,5f527fcd94f94754853db0e5,65d2b6c8f2eece985d8e374c,65d2b910924c2db16f8dae82,0.0354,0.0355,0,5,5,118,1,eightsix,,,,,,,,,,,,,,,,,,,,,,,,,,,,,,,,,,,,,,,,,,,,,,,,,,,,,,,,,,,,,,,,,,,,,,,,,,,,,,,,,,,,,,,,,,,,,,,,,,,,,,,,,,,,,,,,,,,,,,,,,,,,,,,,,,,,,,,,,
,,5f527fcd94f94754853db0e5,2024-02-18_20h12.58.007,kallum_motion_pilot,2023.2.2,Win32,60.24096386,5f527fcd94f94754853db0e5,65d2b6c8f2eece985d8e374c,65d2b910924c2db16f8dae82,0.0357,0.0358,0,6,6,12,1,threeone,,,,,,,,,,,,,,,,,,,,,,,,,,,,,,,,,,,,,,,,,,,,,,,,,,,,,,,,,,,,,,,,,,,,,,,,,,,,,,,,,,,,,,,,,,,,,,,,,,,,,,,,,,,,,,,,,,,,,,,,,,,,,,,,,,,,,,,,,
,,5f527fcd94f94754853db0e5,2024-02-18_20h12.58.007,kallum_motion_pilot,2023.2.2,Win32,60.24096386,5f527fcd94f94754853db0e5,65d2b6c8f2eece985d8e374c,65d2b910924c2db16f8dae82,0.036,0.0361,0,7,7,106,1,sixfive,,,,,,,,,,,,,,,,,,,,,,,,,,,,,,,,,,,,,,,,,,,,,,,,,,,,,,,,,,,,,,,,,,,,,,,,,,,,,,,,,,,,,,,,,,,,,,,,,,,,,,,,,,,,,,,,,,,,,,,,,,,,,,,,,,,,,,,,,
,,5f527fcd94f94754853db0e5,2024-02-18_20h12.58.007,kallum_motion_pilot,2023.2.2,Win32,60.24096386,5f527fcd94f94754853db0e5,65d2b6c8f2eece985d8e374c,65d2b910924c2db16f8dae82,0.0365,0.0365,0,8,8,107,1,sixeight,,,,,,,,,,,,,,,,,,,,,,,,,,,,,,,,,,,,,,,,,,,,,,,,,,,,,,,,,,,,,,,,,,,,,,,,,,,,,,,,,,,,,,,,,,,,,,,,,,,,,,,,,,,,,,,,,,,,,,,,,,,,,,,,,,,,,,,,,
,,5f527fcd94f94754853db0e5,2024-02-18_20h12.58.007,kallum_motion_pilot,2023.2.2,Win32,60.24096386,5f527fcd94f94754853db0e5,65d2b6c8f2eece985d8e374c,65d2b910924c2db16f8dae82,0.0368,0.0368,0,9,9,159,1,eightseven,,,,,,,,,,,,,,,,,,,,,,,,,,,,,,,,,,,,,,,,,,,,,,,,,,,,,,,,,,,,,,,,,,,,,,,,,,,,,,,,,,,,,,,,,,,,,,,,,,,,,,,,,,,,,,,,,,,,,,,,,,,,,,,,,,,,,,,,,
,,5f527fcd94f94754853db0e5,2024-02-18_20h12.58.007,kallum_motion_pilot,2023.2.2,Win32,60.24096386,5f527fcd94f94754853db0e5,65d2b6c8f2eece985d8e374c,65d2b910924c2db16f8dae82,0.0371,0.0371,0,10,10,147,1,sixeight,,,,,,,,,,,,,,,,,,,,,,,,,,,,,,,,,,,,,,,,,,,,,,,,,,,,,,,,,,,,,,,,,,,,,,,,,,,,,,,,,,,,,,,,,,,,,,,,,,,,,,,,,,,,,,,,,,,,,,,,,,,,,,,,,,,,,,,,,
,,5f527fcd94f94754853db0e5,2024-02-18_20h12.58.007,kallum_motion_pilot,2023.2.2,Win32,60.24096386,5f527fcd94f94754853db0e5,65d2b6c8f2eece985d8e374c,65d2b910924c2db16f8dae82,0.0374,0.0374,0,11,11,86,1,eightsix,,,,,,,,,,,,,,,,,,,,,,,,,,,,,,,,,,,,,,,,,,,,,,,,,,,,,,,,,,,,,,,,,,,,,,,,,,,,,,,,,,,,,,,,,,,,,,,,,,,,,,,,,,,,,,,,,,,,,,,,,,,,,,,,,,,,,,,,,
,,5f527fcd94f94754853db0e5,2024-02-18_20h12.58.007,kallum_motion_pilot,2023.2.2,Win32,60.24096386,5f527fcd94f94754853db0e5,65d2b6c8f2eece985d8e374c,65d2b910924c2db16f8dae82,0.0376,0.0377,0,12,12,144,1,fivesix,,,,,,,,,,,,,,,,,,,,,,,,,,,,,,,,,,,,,,,,,,,,,,,,,,,,,,,,,,,,,,,,,,,,,,,,,,,,,,,,,,,,,,,,,,,,,,,,,,,,,,,,,,,,,,,,,,,,,,,,,,,,,,,,,,,,,,,,,
,,5f527fcd94f94754853db0e5,2024-02-18_20h12.58.007,kallum_motion_pilot,2023.2.2,Win32,60.24096386,5f527fcd94f94754853db0e5,65d2b6c8f2eece985d8e374c,65d2b910924c2db16f8dae82,0.0379,0.0379,0,13,13,136,1,fivesix,,,,,,,,,,,,,,,,,,,,,,,,,,,,,,,,,,,,,,,,,,,,,,,,,,,,,,,,,,,,,,,,,,,,,,,,,,,,,,,,,,,,,,,,,,,,,,,,,,,,,,,,,,,,,,,,,,,,,,,,,,,,,,,,,,,,,,,,,
,,5f527fcd94f94754853db0e5,2024-02-18_20h12.58.007,kallum_motion_pilot,2023.2.2,Win32,60.24096386,5f527fcd94f94754853db0e5,65d2b6c8f2eece985d8e374c,65d2b910924c2db16f8dae82,0.0382,0.0382,0,14,14,41,1,onethree,,,,,,,,,,,,,,,,,,,,,,,,,,,,,,,,,,,,,,,,,,,,,,,,,,,,,,,,,,,,,,,,,,,,,,,,,,,,,,,,,,,,,,,,,,,,,,,,,,,,,,,,,,,,,,,,,,,,,,,,,,,,,,,,,,,,,,,,,
,,5f527fcd94f94754853db0e5,2024-02-18_20h12.58.007,kallum_motion_pilot,2023.2.2,Win32,60.24096386,5f527fcd94f94754853db0e5,65d2b6c8f2eece985d8e374c,65d2b910924c2db16f8dae82,0.0384,0.0384,0,15,15,13,1,threefour,,,,,,,,,,,,,,,,,,,,,,,,,,,,,,,,,,,,,,,,,,,,,,,,,,,,,,,,,,,,,,,,,,,,,,,,,,,,,,,,,,,,,,,,,,,,,,,,,,,,,,,,,,,,,,,,,,,,,,,,,,,,,,,,,,,,,,,,,
,,5f527fcd94f94754853db0e5,2024-02-18_20h12.58.007,kallum_motion_pilot,2023.2.2,Win32,60.24096386,5f527fcd94f94754853db0e5,65d2b6c8f2eece985d8e374c,65d2b910924c2db16f8dae82,0.0387,0.0388,0,16,16,124,1,sevenfive,,,,,,,,,,,,,,,,,,,,,,,,,,,,,,,,,,,,,,,,,,,,,,,,,,,,,,,,,,,,,,,,,,,,,,,,,,,,,,,,,,,,,,,,,,,,,,,,,,,,,,,,,,,,,,,,,,,,,,,,,,,,,,,,,,,,,,,,,
,,5f527fcd94f94754853db0e5,2024-02-18_20h12.58.007,kallum_motion_pilot,2023.2.2,Win32,60.24096386,5f527fcd94f94754853db0e5,65d2b6c8f2eece985d8e374c,65d2b910924c2db16f8dae82,0.039,0.0391,0,17,17,111,1,eightseven,,,,,,,,,,,,,,,,,,,,,,,,,,,,,,,,,,,,,,,,,,,,,,,,,,,,,,,,,,,,,,,,,,,,,,,,,,,,,,,,,,,,,,,,,,,,,,,,,,,,,,,,,,,,,,,,,,,,,,,,,,,,,,,,,,,,,,,,,
,,5f527fcd94f94754853db0e5,2024-02-18_20h12.58.007,kallum_motion_pilot,2023.2.2,Win32,60.24096386,5f527fcd94f94754853db0e5,65d2b6c8f2eece985d8e374c,65d2b910924c2db16f8dae82,0.0393,0.0394,0,18,18,51,1,twofour,,,,,,,,,,,,,,,,,,,,,,,,,,,,,,,,,,,,,,,,,,,,,,,,,,,,,,,,,,,,,,,,,,,,,,,,,,,,,,,,,,,,,,,,,,,,,,,,,,,,,,,,,,,,,,,,,,,,,,,,,,,,,,,,,,,,,,,,,
,,5f527fcd94f94754853db0e5,2024-02-18_20h12.58.007,kallum_motion_pilot,2023.2.2,Win32,60.24096386,5f527fcd94f94754853db0e5,65d2b6c8f2eece985d8e374c,65d2b910924c2db16f8dae82,0.0396,0.0396,0,19,19,141,1,seveneight,,,,,,,,,,,,,,,,,,,,,,,,,,,,,,,,,,,,,,,,,,,,,,,,,,,,,,,,,,,,,,,,,,,,,,,,,,,,,,,,,,,,,,,,,,,,,,,,,,,,,,,,,,,,,,,,,,,,,,,,,,,,,,,,,,,,,,,,,
,,5f527fcd94f94754853db0e5,2024-02-18_20h12.58.007,kallum_motion_pilot,2023.2.2,Win32,60.24096386,5f527fcd94f94754853db0e5,65d2b6c8f2eece985d8e374c,65d2b910924c2db16f8dae82,0.0398,0.0398,0,20,20,108,1,sevenfive,,,,,,,,,,,,,,,,,,,,,,,,,,,,,,,,,,,,,,,,,,,,,,,,,,,,,,,,,,,,,,,,,,,,,,,,,,,,,,,,,,,,,,,,,,,,,,,,,,,,,,,,,,,,,,,,,,,,,,,,,,,,,,,,,,,,,,,,,
,,5f527fcd94f94754853db0e5,2024-02-18_20h12.58.007,kallum_motion_pilot,2023.2.2,Win32,60.24096386,5f527fcd94f94754853db0e5,65d2b6c8f2eece985d8e374c,65d2b910924c2db16f8dae82,0.0401,0.0401,0,21,21,44,1,threeone,,,,,,,,,,,,,,,,,,,,,,,,,,,,,,,,,,,,,,,,,,,,,,,,,,,,,,,,,,,,,,,,,,,,,,,,,,,,,,,,,,,,,,,,,,,,,,,,,,,,,,,,,,,,,,,,,,,,,,,,,,,,,,,,,,,,,,,,,
,,5f527fcd94f94754853db0e5,2024-02-18_20h12.58.007,kallum_motion_pilot,2023.2.2,Win32,60.24096386,5f527fcd94f94754853db0e5,65d2b6c8f2eece985d8e374c,65d2b910924c2db16f8dae82,0.0402,0.0403,0,22,22,75,1,twofour,,,,,,,,,,,,,,,,,,,,,,,,,,,,,,,,,,,,,,,,,,,,,,,,,,,,,,,,,,,,,,,,,,,,,,,,,,,,,,,,,,,,,,,,,,,,,,,,,,,,,,,,,,,,,,,,,,,,,,,,,,,,,,,,,,,,,,,,,
,,5f527fcd94f94754853db0e5,2024-02-18_20h12.58.007,kallum_motion_pilot,2023.2.2,Win32,60.24096386,5f527fcd94f94754853db0e5,65d2b6c8f2eece985d8e374c,65d2b910924c2db16f8dae82,0.0405,0.0405,0,23,23,140,1,sevenfive,,,,,,,,,,,,,,,,,,,,,,,,,,,,,,,,,,,,,,,,,,,,,,,,,,,,,,,,,,,,,,,,,,,,,,,,,,,,,,,,,,,,,,,,,,,,,,,,,,,,,,,,,,,,,,,,,,,,,,,,,,,,,,,,,,,,,,,,,
,,5f527fcd94f94754853db0e5,2024-02-18_20h12.58.007,kallum_motion_pilot,2023.2.2,Win32,60.24096386,5f527fcd94f94754853db0e5,65d2b6c8f2eece985d8e374c,65d2b910924c2db16f8dae82,0.0406,0.0407,0,24,24,130,1,sixfive,,,,,,,,,,,,,,,,,,,,,,,,,,,,,,,,,,,,,,,,,,,,,,,,,,,,,,,,,,,,,,,,,,,,,,,,,,,,,,,,,,,,,,,,,,,,,,,,,,,,,,,,,,,,,,,,,,,,,,,,,,,,,,,,,,,,,,,,,
,,5f527fcd94f94754853db0e5,2024-02-18_20h12.58.007,kallum_motion_pilot,2023.2.2,Win32,60.24096386,5f527fcd94f94754853db0e5,65d2b6c8f2eece985d8e374c,65d2b910924c2db16f8dae82,0.0408,0.0409,0,25,25,9,1,onethree,,,,,,,,,,,,,,,,,,,,,,,,,,,,,,,,,,,,,,,,,,,,,,,,,,,,,,,,,,,,,,,,,,,,,,,,,,,,,,,,,,,,,,,,,,,,,,,,,,,,,,,,,,,,,,,,,,,,,,,,,,,,,,,,,,,,,,,,,
,,5f527fcd94f94754853db0e5,2024-02-18_20h12.58.007,kallum_motion_pilot,2023.2.2,Win32,60.24096386,5f527fcd94f94754853db0e5,65d2b6c8f2eece985d8e374c,65d2b910924c2db16f8dae82,0.041,0.041,0,26,26,74,1,twoone,,,,,,,,,,,,,,,,,,,,,,,,,,,,,,,,,,,,,,,,,,,,,,,,,,,,,,,,,,,,,,,,,,,,,,,,,,,,,,,,,,,,,,,,,,,,,,,,,,,,,,,,,,,,,,,,,,,,,,,,,,,,,,,,,,,,,,,,,
,,5f527fcd94f94754853db0e5,2024-02-18_20h12.58.007,kallum_motion_pilot,2023.2.2,Win32,60.24096386,5f527fcd94f94754853db0e5,65d2b6c8f2eece985d8e374c,65d2b910924c2db16f8dae82,0.0411,0.0412,0,27,27,21,1,threefour,,,,,,,,,,,,,,,,,,,,,,,,,,,,,,,,,,,,,,,,,,,,,,,,,,,,,,,,,,,,,,,,,,,,,,,,,,,,,,,,,,,,,,,,,,,,,,,,,,,,,,,,,,,,,,,,,,,,,,,,,,,,,,,,,,,,,,,,,
,,5f527fcd94f94754853db0e5,2024-02-18_20h12.58.007,kallum_motion_pilot,2023.2.2,Win32,60.24096386,5f527fcd94f94754853db0e5,65d2b6c8f2eece985d8e374c,65d2b910924c2db16f8dae82,0.0413,0.0414,0,28,28,151,1,eightseven,,,,,,,,,,,,,,,,,,,,,,,,,,,,,,,,,,,,,,,,,,,,,,,,,,,,,,,,,,,,,,,,,,,,,,,,,,,,,,,,,,,,,,,,,,,,,,,,,,,,,,,,,,,,,,,,,,,,,,,,,,,,,,,,,,,,,,,,,
,,5f527fcd94f94754853db0e5,2024-02-18_20h12.58.007,kallum_motion_pilot,2023.2.2,Win32,60.24096386,5f527fcd94f94754853db0e5,65d2b6c8f2eece985d8e374c,65d2b910924c2db16f8dae82,0.0415,0.0416,0,29,29,80,1,fivesix,,,,,,,,,,,,,,,,,,,,,,,,,,,,,,,,,,,,,,,,,,,,,,,,,,,,,,,,,,,,,,,,,,,,,,,,,,,,,,,,,,,,,,,,,,,,,,,,,,,,,,,,,,,,,,,,,,,,,,,,,,,,,,,,,,,,,,,,,
,,5f527fcd94f94754853db0e5,2024-02-18_20h12.58.007,kallum_motion_pilot,2023.2.2,Win32,60.24096386,5f527fcd94f94754853db0e5,65d2b6c8f2eece985d8e374c,65d2b910924c2db16f8dae82,0.0417,0.0418,0,30,30,64,1,onetwo,,,,,,,,,,,,,,,,,,,,,,,,,,,,,,,,,,,,,,,,,,,,,,,,,,,,,,,,,,,,,,,,,,,,,,,,,,,,,,,,,,,,,,,,,,,,,,,,,,,,,,,,,,,,,,,,,,,,,,,,,,,,,,,,,,,,,,,,,
,,5f527fcd94f94754853db0e5,2024-02-18_20h12.58.007,kallum_motion_pilot,2023.2.2,Win32,60.24096386,5f527fcd94f94754853db0e5,65d2b6c8f2eece985d8e374c,65d2b910924c2db16f8dae82,0.0419,0.0419,0,31,31,100,1,sevenfive,,,,,,,,,,,,,,,,,,,,,,,,,,,,,,,,,,,,,,,,,,,,,,,,,,,,,,,,,,,,,,,,,,,,,,,,,,,,,,,,,,,,,,,,,,,,,,,,,,,,,,,,,,,,,,,,,,,,,,,,,,,,,,,,,,,,,,,,,
,,5f527fcd94f94754853db0e5,2024-02-18_20h12.58.007,kallum_motion_pilot,2023.2.2,Win32,60.24096386,5f527fcd94f94754853db0e5,65d2b6c8f2eece985d8e374c,65d2b910924c2db16f8dae82,0.045,0.045,0,32,32,71,1,fourthree,,,,,,,,,,,,,,,,,,,,,,,,,,,,,,,,,,,,,,,,,,,,,,,,,,,,,,,,,,,,,,,,,,,,,,,,,,,,,,,,,,,,,,,,,,,,,,,,,,,,,,,,,,,,,,,,,,,,,,,,,,,,,,,,,,,,,,,,,
,,5f527fcd94f94754853db0e5,2024-02-18_20h12.58.007,kallum_motion_pilot,2023.2.2,Win32,60.24096386,5f527fcd94f94754853db0e5,65d2b6c8f2eece985d8e374c,65d2b910924c2db16f8dae82,0.0451,0.0452,0,33,33,20,1,threeone,,,,,,,,,,,,,,,,,,,,,,,,,,,,,,,,,,,,,,,,,,,,,,,,,,,,,,,,,,,,,,,,,,,,,,,,,,,,,,,,,,,,,,,,,,,,,,,,,,,,,,,,,,,,,,,,,,,,,,,,,,,,,,,,,,,,,,,,,
,,5f527fcd94f94754853db0e5,2024-02-18_20h12.58.007,kallum_motion_pilot,2023.2.2,Win32,60.24096386,5f527fcd94f94754853db0e5,65d2b6c8f2eece985d8e374c,65d2b910924c2db16f8dae82,0.0453,0.0453,0,34,34,61,1,threefour,,,,,,,,,,,,,,,,,,,,,,,,,,,,,,,,,,,,,,,,,,,,,,,,,,,,,,,,,,,,,,,,,,,,,,,,,,,,,,,,,,,,,,,,,,,,,,,,,,,,,,,,,,,,,,,,,,,,,,,,,,,,,,,,,,,,,,,,,
,,5f527fcd94f94754853db0e5,2024-02-18_20h12.58.007,kallum_motion_pilot,2023.2.2,Win32,60.24096386,5f527fcd94f94754853db0e5,65d2b6c8f2eece985d8e374c,65d2b910924c2db16f8dae82,0.0455,0.0456,0,35,35,14,1,fourtwo,,,,,,,,,,,,,,,,,,,,,,,,,,,,,,,,,,,,,,,,,,,,,,,,,,,,,,,,,,,,,,,,,,,,,,,,,,,,,,,,,,,,,,,,,,,,,,,,,,,,,,,,,,,,,,,,,,,,,,,,,,,,,,,,,,,,,,,,,
,,5f527fcd94f94754853db0e5,2024-02-18_20h12.58.007,kallum_motion_pilot,2023.2.2,Win32,60.24096386,5f527fcd94f94754853db0e5,65d2b6c8f2eece985d8e374c,65d2b910924c2db16f8dae82,0.0457,0.0457,0,36,36,0,1,onetwo,,,,,,,,,,,,,,,,,,,,,,,,,,,,,,,,,,,,,,,,,,,,,,,,,,,,,,,,,,,,,,,,,,,,,,,,,,,,,,,,,,,,,,,,,,,,,,,,,,,,,,,,,,,,,,,,,,,,,,,,,,,,,,,,,,,,,,,,,
,,5f527fcd94f94754853db0e5,2024-02-18_20h12.58.007,kallum_motion_pilot,2023.2.2,Win32,60.24096386,5f527fcd94f94754853db0e5,65d2b6c8f2eece985d8e374c,65d2b910924c2db16f8dae82,0.0458,0.0459,0,37,37,7,1,fourthree,,,,,,,,,,,,,,,,,,,,,,,,,,,,,,,,,,,,,,,,,,,,,,,,,,,,,,,,,,,,,,,,,,,,,,,,,,,,,,,,,,,,,,,,,,,,,,,,,,,,,,,,,,,,,,,,,,,,,,,,,,,,,,,,,,,,,,,,,
,,5f527fcd94f94754853db0e5,2024-02-18_20h12.58.007,kallum_motion_pilot,2023.2.2,Win32,60.24096386,5f527fcd94f94754853db0e5,65d2b6c8f2eece985d8e374c,65d2b910924c2db16f8dae82,0.0461,0.0461,0,38,38,32,1,onetwo,,,,,,,,,,,,,,,,,,,,,,,,,,,,,,,,,,,,,,,,,,,,,,,,,,,,,,,,,,,,,,,,,,,,,,,,,,,,,,,,,,,,,,,,,,,,,,,,,,,,,,,,,,,,,,,,,,,,,,,,,,,,,,,,,,,,,,,,,
,,5f527fcd94f94754853db0e5,2024-02-18_20h12.58.007,kallum_motion_pilot,2023.2.2,Win32,60.24096386,5f527fcd94f94754853db0e5,65d2b6c8f2eece985d8e374c,65d2b910924c2db16f8dae82,0.0462,0.0463,0,39,39,25,1,onethree,,,,,,,,,,,,,,,,,,,,,,,,,,,,,,,,,,,,,,,,,,,,,,,,,,,,,,,,,,,,,,,,,,,,,,,,,,,,,,,,,,,,,,,,,,,,,,,,,,,,,,,,,,,,,,,,,,,,,,,,,,,,,,,,,,,,,,,,,
,,5f527fcd94f94754853db0e5,2024-02-18_20h12.58.007,kallum_motion_pilot,2023.2.2,Win32,60.24096386,5f527fcd94f94754853db0e5,65d2b6c8f2eece985d8e374c,65d2b910924c2db16f8dae82,0.0464,0.0465,0,40,40,112,1,fivesix,,,,,,,,,,,,,,,,,,,,,,,,,,,,,,,,,,,,,,,,,,,,,,,,,,,,,,,,,,,,,,,,,,,,,,,,,,,,,,,,,,,,,,,,,,,,,,,,,,,,,,,,,,,,,,,,,,,,,,,,,,,,,,,,,,,,,,,,,
,,5f527fcd94f94754853db0e5,2024-02-18_20h12.58.007,kallum_motion_pilot,2023.2.2,Win32,60.24096386,5f527fcd94f94754853db0e5,65d2b6c8f2eece985d8e374c,65d2b910924c2db16f8dae82,0.0467,0.0467,0,41,41,85,1,seveneight,,,,,,,,,,,,,,,,,,,,,,,,,,,,,,,,,,,,,,,,,,,,,,,,,,,,,,,,,,,,,,,,,,,,,,,,,,,,,,,,,,,,,,,,,,,,,,,,,,,,,,,,,,,,,,,,,,,,,,,,,,,,,,,,,,,,,,,,,
,,5f527fcd94f94754853db0e5,2024-02-18_20h12.58.007,kallum_motion_pilot,2023.2.2,Win32,60.24096386,5f527fcd94f94754853db0e5,65d2b6c8f2eece985d8e374c,65d2b910924c2db16f8dae82,0.0469,0.0469,0,42,42,79,1,eightseven,,,,,,,,,,,,,,,,,,,,,,,,,,,,,,,,,,,,,,,,,,,,,,,,,,,,,,,,,,,,,,,,,,,,,,,,,,,,,,,,,,,,,,,,,,,,,,,,,,,,,,,,,,,,,,,,,,,,,,,,,,,,,,,,,,,,,,,,,
,,5f527fcd94f94754853db0e5,2024-02-18_20h12.58.007,kallum_motion_pilot,2023.2.2,Win32,60.24096386,5f527fcd94f94754853db0e5,65d2b6c8f2eece985d8e374c,65d2b910924c2db16f8dae82,0.047,0.0471,0,43,43,72,1,onetwo,,,,,,,,,,,,,,,,,,,,,,,,,,,,,,,,,,,,,,,,,,,,,,,,,,,,,,,,,,,,,,,,,,,,,,,,,,,,,,,,,,,,,,,,,,,,,,,,,,,,,,,,,,,,,,,,,,,,,,,,,,,,,,,,,,,,,,,,,
,,5f527fcd94f94754853db0e5,2024-02-18_20h12.58.007,kallum_motion_pilot,2023.2.2,Win32,60.24096386,5f527fcd94f94754853db0e5,65d2b6c8f2eece985d8e374c,65d2b910924c2db16f8dae82,0.0473,0.0473,0,44,44,53,1,threefour,,,,,,,,,,,,,,,,,,,,,,,,,,,,,,,,,,,,,,,,,,,,,,,,,,,,,,,,,,,,,,,,,,,,,,,,,,,,,,,,,,,,,,,,,,,,,,,,,,,,,,,,,,,,,,,,,,,,,,,,,,,,,,,,,,,,,,,,,
,,5f527fcd94f94754853db0e5,2024-02-18_20h12.58.007,kallum_motion_pilot,2023.2.2,Win32,60.24096386,5f527fcd94f94754853db0e5,65d2b6c8f2eece985d8e374c,65d2b910924c2db16f8dae82,0.0474,0.0474,0,45,45,92,1,sevenfive,,,,,,,,,,,,,,,,,,,,,,,,,,,,,,,,,,,,,,,,,,,,,,,,,,,,,,,,,,,,,,,,,,,,,,,,,,,,,,,,,,,,,,,,,,,,,,,,,,,,,,,,,,,,,,,,,,,,,,,,,,,,,,,,,,,,,,,,,
,,5f527fcd94f94754853db0e5,2024-02-18_20h12.58.007,kallum_motion_pilot,2023.2.2,Win32,60.24096386,5f527fcd94f94754853db0e5,65d2b6c8f2eece985d8e374c,65d2b910924c2db16f8dae82,0.0476,0.0476,0,46,46,138,1,sixfive,,,,,,,,,,,,,,,,,,,,,,,,,,,,,,,,,,,,,,,,,,,,,,,,,,,,,,,,,,,,,,,,,,,,,,,,,,,,,,,,,,,,,,,,,,,,,,,,,,,,,,,,,,,,,,,,,,,,,,,,,,,,,,,,,,,,,,,,,
,,5f527fcd94f94754853db0e5,2024-02-18_20h12.58.007,kallum_motion_pilot,2023.2.2,Win32,60.24096386,5f527fcd94f94754853db0e5,65d2b6c8f2eece985d8e374c,65d2b910924c2db16f8dae82,0.0478,0.0479,0,47,47,160,1,fivesix,,,,,,,,,,,,,,,,,,,,,,,,,,,,,,,,,,,,,,,,,,,,,,,,,,,,,,,,,,,,,,,,,,,,,,,,,,,,,,,,,,,,,,,,,,,,,,,,,,,,,,,,,,,,,,,,,,,,,,,,,,,,,,,,,,,,,,,,,
,,5f527fcd94f94754853db0e5,2024-02-18_20h12.58.007,kallum_motion_pilot,2023.2.2,Win32,60.24096386,5f527fcd94f94754853db0e5,65d2b6c8f2eece985d8e374c,65d2b910924c2db16f8dae82,0.048,0.048,0,48,48,102,1,eightsix,,,,,,,,,,,,,,,,,,,,,,,,,,,,,,,,,,,,,,,,,,,,,,,,,,,,,,,,,,,,,,,,,,,,,,,,,,,,,,,,,,,,,,,,,,,,,,,,,,,,,,,,,,,,,,,,,,,,,,,,,,,,,,,,,,,,,,,,,
,,5f527fcd94f94754853db0e5,2024-02-18_20h12.58.007,kallum_motion_pilot,2023.2.2,Win32,60.24096386,5f527fcd94f94754853db0e5,65d2b6c8f2eece985d8e374c,65d2b910924c2db16f8dae82,0.0483,0.0484,0,49,49,88,1,fivesix,,,,,,,,,,,,,,,,,,,,,,,,,,,,,,,,,,,,,,,,,,,,,,,,,,,,,,,,,,,,,,,,,,,,,,,,,,,,,,,,,,,,,,,,,,,,,,,,,,,,,,,,,,,,,,,,,,,,,,,,,,,,,,,,,,,,,,,,,
,,5f527fcd94f94754853db0e5,2024-02-18_20h12.58.007,kallum_motion_pilot,2023.2.2,Win32,60.24096386,5f527fcd94f94754853db0e5,65d2b6c8f2eece985d8e374c,65d2b910924c2db16f8dae82,0.0485,0.0486,0,50,50,128,1,fivesix,,,,,,,,,,,,,,,,,,,,,,,,,,,,,,,,,,,,,,,,,,,,,,,,,,,,,,,,,,,,,,,,,,,,,,,,,,,,,,,,,,,,,,,,,,,,,,,,,,,,,,,,,,,,,,,,,,,,,,,,,,,,,,,,,,,,,,,,,
,,5f527fcd94f94754853db0e5,2024-02-18_20h12.58.007,kallum_motion_pilot,2023.2.2,Win32,60.24096386,5f527fcd94f94754853db0e5,65d2b6c8f2eece985d8e374c,65d2b910924c2db16f8dae82,0.0487,0.0488,0,51,51,145,1,fiveseven,,,,,,,,,,,,,,,,,,,,,,,,,,,,,,,,,,,,,,,,,,,,,,,,,,,,,,,,,,,,,,,,,,,,,,,,,,,,,,,,,,,,,,,,,,,,,,,,,,,,,,,,,,,,,,,,,,,,,,,,,,,,,,,,,,,,,,,,,
,,5f527fcd94f94754853db0e5,2024-02-18_20h12.58.007,kallum_motion_pilot,2023.2.2,Win32,60.24096386,5f527fcd94f94754853db0e5,65d2b6c8f2eece985d8e374c,65d2b910924c2db16f8dae82,0.0489,0.049,0,52,52,57,1,onethree,,,,,,,,,,,,,,,,,,,,,,,,,,,,,,,,,,,,,,,,,,,,,,,,,,,,,,,,,,,,,,,,,,,,,,,,,,,,,,,,,,,,,,,,,,,,,,,,,,,,,,,,,,,,,,,,,,,,,,,,,,,,,,,,,,,,,,,,,
,,5f527fcd94f94754853db0e5,2024-02-18_20h12.58.007,kallum_motion_pilot,2023.2.2,Win32,60.24096386,5f527fcd94f94754853db0e5,65d2b6c8f2eece985d8e374c,65d2b910924c2db16f8dae82,0.0491,0.0492,0,53,53,99,1,sixeight,,,,,,,,,,,,,,,,,,,,,,,,,,,,,,,,,,,,,,,,,,,,,,,,,,,,,,,,,,,,,,,,,,,,,,,,,,,,,,,,,,,,,,,,,,,,,,,,,,,,,,,,,,,,,,,,,,,,,,,,,,,,,,,,,,,,,,,,,
,,5f527fcd94f94754853db0e5,2024-02-18_20h12.58.007,kallum_motion_pilot,2023.2.2,Win32,60.24096386,5f527fcd94f94754853db0e5,65d2b6c8f2eece985d8e374c,65d2b910924c2db16f8dae82,0.0494,0.0495,0,54,54,5,1,threefour,,,,,,,,,,,,,,,,,,,,,,,,,,,,,,,,,,,,,,,,,,,,,,,,,,,,,,,,,,,,,,,,,,,,,,,,,,,,,,,,,,,,,,,,,,,,,,,,,,,,,,,,,,,,,,,,,,,,,,,,,,,,,,,,,,,,,,,,,
,,5f527fcd94f94754853db0e5,2024-02-18_20h12.58.007,kallum_motion_pilot,2023.2.2,Win32,60.24096386,5f527fcd94f94754853db0e5,65d2b6c8f2eece985d8e374c,65d2b910924c2db16f8dae82,0.0495,0.0497,0,55,55,125,1,seveneight,,,,,,,,,,,,,,,,,,,,,,,,,,,,,,,,,,,,,,,,,,,,,,,,,,,,,,,,,,,,,,,,,,,,,,,,,,,,,,,,,,,,,,,,,,,,,,,,,,,,,,,,,,,,,,,,,,,,,,,,,,,,,,,,,,,,,,,,,
,,5f527fcd94f94754853db0e5,2024-02-18_20h12.58.007,kallum_motion_pilot,2023.2.2,Win32,60.24096386,5f527fcd94f94754853db0e5,65d2b6c8f2eece985d8e374c,65d2b910924c2db16f8dae82,0.0498,0.05,0,56,56,24,1,onetwo,,,,,,,,,,,,,,,,,,,,,,,,,,,,,,,,,,,,,,,,,,,,,,,,,,,,,,,,,,,,,,,,,,,,,,,,,,,,,,,,,,,,,,,,,,,,,,,,,,,,,,,,,,,,,,,,,,,,,,,,,,,,,,,,,,,,,,,,,
,,5f527fcd94f94754853db0e5,2024-02-18_20h12.58.007,kallum_motion_pilot,2023.2.2,Win32,60.24096386,5f527fcd94f94754853db0e5,65d2b6c8f2eece985d8e374c,65d2b910924c2db16f8dae82,0.0502,0.0503,0,57,57,6,1,fourtwo,,,,,,,,,,,,,,,,,,,,,,,,,,,,,,,,,,,,,,,,,,,,,,,,,,,,,,,,,,,,,,,,,,,,,,,,,,,,,,,,,,,,,,,,,,,,,,,,,,,,,,,,,,,,,,,,,,,,,,,,,,,,,,,,,,,,,,,,,
,,5f527fcd94f94754853db0e5,2024-02-18_20h12.58.007,kallum_motion_pilot,2023.2.2,Win32,60.24096386,5f527fcd94f94754853db0e5,65d2b6c8f2eece985d8e374c,65d2b910924c2db16f8dae82,0.0504,0.0505,0,58,58,50,1,twoone,,,,,,,,,,,,,,,,,,,,,,,,,,,,,,,,,,,,,,,,,,,,,,,,,,,,,,,,,,,,,,,,,,,,,,,,,,,,,,,,,,,,,,,,,,,,,,,,,,,,,,,,,,,,,,,,,,,,,,,,,,,,,,,,,,,,,,,,,
,,5f527fcd94f94754853db0e5,2024-02-18_20h12.58.007,kallum_motion_pilot,2023.2.2,Win32,60.24096386,5f527fcd94f94754853db0e5,65d2b6c8f2eece985d8e374c,65d2b910924c2db16f8dae82,0.0505,0.0506,0,59,59,123,1,sixeight,,,,,,,,,,,,,,,,,,,,,,,,,,,,,,,,,,,,,,,,,,,,,,,,,,,,,,,,,,,,,,,,,,,,,,,,,,,,,,,,,,,,,,,,,,,,,,,,,,,,,,,,,,,,,,,,,,,,,,,,,,,,,,,,,,,,,,,,,
,,5f527fcd94f94754853db0e5,2024-02-18_20h12.58.007,kallum_motion_pilot,2023.2.2,Win32,60.24096386,5f527fcd94f94754853db0e5,65d2b6c8f2eece985d8e374c,65d2b910924c2db16f8dae82,0.0507,0.0508,0,60,60,17,1,onethree,,,,,,,,,,,,,,,,,,,,,,,,,,,,,,,,,,,,,,,,,,,,,,,,,,,,,,,,,,,,,,,,,,,,,,,,,,,,,,,,,,,,,,,,,,,,,,,,,,,,,,,,,,,,,,,,,,,,,,,,,,,,,,,,,,,,,,,,,
,,5f527fcd94f94754853db0e5,2024-02-18_20h12.58.007,kallum_motion_pilot,2023.2.2,Win32,60.24096386,5f527fcd94f94754853db0e5,65d2b6c8f2eece985d8e374c,65d2b910924c2db16f8dae82,0.0508,0.0509,0,61,61,8,1,onetwo,,,,,,,,,,,,,,,,,,,,,,,,,,,,,,,,,,,,,,,,,,,,,,,,,,,,,,,,,,,,,,,,,,,,,,,,,,,,,,,,,,,,,,,,,,,,,,,,,,,,,,,,,,,,,,,,,,,,,,,,,,,,,,,,,,,,,,,,,
,,5f527fcd94f94754853db0e5,2024-02-18_20h12.58.007,kallum_motion_pilot,2023.2.2,Win32,60.24096386,5f527fcd94f94754853db0e5,65d2b6c8f2eece985d8e374c,65d2b910924c2db16f8dae82,0.051,0.0511,0,62,62,66,1,twoone,,,,,,,,,,,,,,,,,,,,,,,,,,,,,,,,,,,,,,,,,,,,,,,,,,,,,,,,,,,,,,,,,,,,,,,,,,,,,,,,,,,,,,,,,,,,,,,,,,,,,,,,,,,,,,,,,,,,,,,,,,,,,,,,,,,,,,,,,
,,5f527fcd94f94754853db0e5,2024-02-18_20h12.58.007,kallum_motion_pilot,2023.2.2,Win32,60.24096386,5f527fcd94f94754853db0e5,65d2b6c8f2eece985d8e374c,65d2b910924c2db16f8dae82,0.0514,0.0515,0,63,63,158,1,eightsix,,,,,,,,,,,,,,,,,,,,,,,,,,,,,,,,,,,,,,,,,,,,,,,,,,,,,,,,,,,,,,,,,,,,,,,,,,,,,,,,,,,,,,,,,,,,,,,,,,,,,,,,,,,,,,,,,,,,,,,,,,,,,,,,,,,,,,,,,
,,5f527fcd94f94754853db0e5,2024-02-18_20h12.58.007,kallum_motion_pilot,2023.2.2,Win32,60.24096386,5f527fcd94f94754853db0e5,65d2b6c8f2eece985d8e374c,65d2b910924c2db16f8dae82,0.0517,0.0517,0,64,64,127,1,eightseven,,,,,,,,,,,,,,,,,,,,,,,,,,,,,,,,,,,,,,,,,,,,,,,,,,,,,,,,,,,,,,,,,,,,,,,,,,,,,,,,,,,,,,,,,,,,,,,,,,,,,,,,,,,,,,,,,,,,,,,,,,,,,,,,,,,,,,,,,
,,5f527fcd94f94754853db0e5,2024-02-18_20h12.58.007,kallum_motion_pilot,2023.2.2,Win32,60.24096386,5f527fcd94f94754853db0e5,65d2b6c8f2eece985d8e374c,65d2b910924c2db16f8dae82,0.0519,0.052,0,65,65,68,1,threeone,,,,,,,,,,,,,,,,,,,,,,,,,,,,,,,,,,,,,,,,,,,,,,,,,,,,,,,,,,,,,,,,,,,,,,,,,,,,,,,,,,,,,,,,,,,,,,,,,,,,,,,,,,,,,,,,,,,,,,,,,,,,,,,,,,,,,,,,,
,,5f527fcd94f94754853db0e5,2024-02-18_20h12.58.007,kallum_motion_pilot,2023.2.2,Win32,60.24096386,5f527fcd94f94754853db0e5,65d2b6c8f2eece985d8e374c,65d2b910924c2db16f8dae82,0.0521,0.0521,0,66,66,153,1,fiveseven,,,,,,,,,,,,,,,,,,,,,,,,,,,,,,,,,,,,,,,,,,,,,,,,,,,,,,,,,,,,,,,,,,,,,,,,,,,,,,,,,,,,,,,,,,,,,,,,,,,,,,,,,,,,,,,,,,,,,,,,,,,,,,,,,,,,,,,,,
,,5f527fcd94f94754853db0e5,2024-02-18_20h12.58.007,kallum_motion_pilot,2023.2.2,Win32,60.24096386,5f527fcd94f94754853db0e5,65d2b6c8f2eece985d8e374c,65d2b910924c2db16f8dae82,0.0522,0.0523,0,67,67,70,1,fourtwo,,,,,,,,,,,,,,,,,,,,,,,,,,,,,,,,,,,,,,,,,,,,,,,,,,,,,,,,,,,,,,,,,,,,,,,,,,,,,,,,,,,,,,,,,,,,,,,,,,,,,,,,,,,,,,,,,,,,,,,,,,,,,,,,,,,,,,,,,
,,5f527fcd94f94754853db0e5,2024-02-18_20h12.58.007,kallum_motion_pilot,2023.2.2,Win32,60.24096386,5f527fcd94f94754853db0e5,65d2b6c8f2eece985d8e374c,65d2b910924c2db16f8dae82,0.0525,0.0526,0,68,68,119,1,eightseven,,,,,,,,,,,,,,,,,,,,,,,,,,,,,,,,,,,,,,,,,,,,,,,,,,,,,,,,,,,,,,,,,,,,,,,,,,,,,,,,,,,,,,,,,,,,,,,,,,,,,,,,,,,,,,,,,,,,,,,,,,,,,,,,,,,,,,,,,
,,5f527fcd94f94754853db0e5,2024-02-18_20h12.58.007,kallum_motion_pilot,2023.2.2,Win32,60.24096386,5f527fcd94f94754853db0e5,65d2b6c8f2eece985d8e374c,65d2b910924c2db16f8dae82,0.0526,0.0527,0,69,69,150,1,eightsix,,,,,,,,,,,,,,,,,,,,,,,,,,,,,,,,,,,,,,,,,,,,,,,,,,,,,,,,,,,,,,,,,,,,,,,,,,,,,,,,,,,,,,,,,,,,,,,,,,,,,,,,,,,,,,,,,,,,,,,,,,,,,,,,,,,,,,,,,
,,5f527fcd94f94754853db0e5,2024-02-18_20h12.58.007,kallum_motion_pilot,2023.2.2,Win32,60.24096386,5f527fcd94f94754853db0e5,65d2b6c8f2eece985d8e374c,65d2b910924c2db16f8dae82,0.0528,0.0528,0,70,70,90,1,sixfive,,,,,,,,,,,,,,,,,,,,,,,,,,,,,,,,,,,,,,,,,,,,,,,,,,,,,,,,,,,,,,,,,,,,,,,,,,,,,,,,,,,,,,,,,,,,,,,,,,,,,,,,,,,,,,,,,,,,,,,,,,,,,,,,,,,,,,,,,
,,5f527fcd94f94754853db0e5,2024-02-18_20h12.58.007,kallum_motion_pilot,2023.2.2,Win32,60.24096386,5f527fcd94f94754853db0e5,65d2b6c8f2eece985d8e374c,65d2b910924c2db16f8dae82,0.053,0.053,0,71,71,96,1,fivesix,,,,,,,,,,,,,,,,,,,,,,,,,,,,,,,,,,,,,,,,,,,,,,,,,,,,,,,,,,,,,,,,,,,,,,,,,,,,,,,,,,,,,,,,,,,,,,,,,,,,,,,,,,,,,,,,,,,,,,,,,,,,,,,,,,,,,,,,,
,,5f527fcd94f94754853db0e5,2024-02-18_20h12.58.007,kallum_motion_pilot,2023.2.2,Win32,60.24096386,5f527fcd94f94754853db0e5,65d2b6c8f2eece985d8e374c,65d2b910924c2db16f8dae82,0.0531,0.0532,0,72,72,27,1,twofour,,,,,,,,,,,,,,,,,,,,,,,,,,,,,,,,,,,,,,,,,,,,,,,,,,,,,,,,,,,,,,,,,,,,,,,,,,,,,,,,,,,,,,,,,,,,,,,,,,,,,,,,,,,,,,,,,,,,,,,,,,,,,,,,,,,,,,,,,
,,5f527fcd94f94754853db0e5,2024-02-18_20h12.58.007,kallum_motion_pilot,2023.2.2,Win32,60.24096386,5f527fcd94f94754853db0e5,65d2b6c8f2eece985d8e374c,65d2b910924c2db16f8dae82,0.0532,0.0534,0,73,73,30,1,fourtwo,,,,,,,,,,,,,,,,,,,,,,,,,,,,,,,,,,,,,,,,,,,,,,,,,,,,,,,,,,,,,,,,,,,,,,,,,,,,,,,,,,,,,,,,,,,,,,,,,,,,,,,,,,,,,,,,,,,,,,,,,,,,,,,,,,,,,,,,,
,,5f527fcd94f94754853db0e5,2024-02-18_20h12.58.007,kallum_motion_pilot,2023.2.2,Win32,60.24096386,5f527fcd94f94754853db0e5,65d2b6c8f2eece985d8e374c,65d2b910924c2db16f8dae82,0.0535,0.0535,0,74,74,48,1,onetwo,,,,,,,,,,,,,,,,,,,,,,,,,,,,,,,,,,,,,,,,,,,,,,,,,,,,,,,,,,,,,,,,,,,,,,,,,,,,,,,,,,,,,,,,,,,,,,,,,,,,,,,,,,,,,,,,,,,,,,,,,,,,,,,,,,,,,,,,,
,,5f527fcd94f94754853db0e5,2024-02-18_20h12.58.007,kallum_motion_pilot,2023.2.2,Win32,60.24096386,5f527fcd94f94754853db0e5,65d2b6c8f2eece985d8e374c,65d2b910924c2db16f8dae82,0.0536,0.0537,0,75,75,42,1,twoone,,,,,,,,,,,,,,,,,,,,,,,,,,,,,,,,,,,,,,,,,,,,,,,,,,,,,,,,,,,,,,,,,,,,,,,,,,,,,,,,,,,,,,,,,,,,,,,,,,,,,,,,,,,,,,,,,,,,,,,,,,,,,,,,,,,,,,,,,
,,5f527fcd94f94754853db0e5,2024-02-18_20h12.58.007,kallum_motion_pilot,2023.2.2,Win32,60.24096386,5f527fcd94f94754853db0e5,65d2b6c8f2eece985d8e374c,65d2b910924c2db16f8dae82,0.0537,0.0538,0,76,76,157,1,seveneight,,,,,,,,,,,,,,,,,,,,,,,,,,,,,,,,,,,,,,,,,,,,,,,,,,,,,,,,,,,,,,,,,,,,,,,,,,,,,,,,,,,,,,,,,,,,,,,,,,,,,,,,,,,,,,,,,,,,,,,,,,,,,,,,,,,,,,,,,
,,5f527fcd94f94754853db0e5,2024-02-18_20h12.58.007,kallum_motion_pilot,2023.2.2,Win32,60.24096386,5f527fcd94f94754853db0e5,65d2b6c8f2eece985d8e374c,65d2b910924c2db16f8dae82,0.0539,0.0541,0,77,77,98,1,sixfive,,,,,,,,,,,,,,,,,,,,,,,,,,,,,,,,,,,,,,,,,,,,,,,,,,,,,,,,,,,,,,,,,,,,,,,,,,,,,,,,,,,,,,,,,,,,,,,,,,,,,,,,,,,,,,,,,,,,,,,,,,,,,,,,,,,,,,,,,
,,5f527fcd94f94754853db0e5,2024-02-18_20h12.58.007,kallum_motion_pilot,2023.2.2,Win32,60.24096386,5f527fcd94f94754853db0e5,65d2b6c8f2eece985d8e374c,65d2b910924c2db16f8dae82,0.0541,0.0541,0,78,78,135,1,eightseven,,,,,,,,,,,,,,,,,,,,,,,,,,,,,,,,,,,,,,,,,,,,,,,,,,,,,,,,,,,,,,,,,,,,,,,,,,,,,,,,,,,,,,,,,,,,,,,,,,,,,,,,,,,,,,,,,,,,,,,,,,,,,,,,,,,,,,,,,
,,5f527fcd94f94754853db0e5,2024-02-18_20h12.58.007,kallum_motion_pilot,2023.2.2,Win32,60.24096386,5f527fcd94f94754853db0e5,65d2b6c8f2eece985d8e374c,65d2b910924c2db16f8dae82,0.0544,0.0544,0,79,79,46,1,fourtwo,,,,,,,,,,,,,,,,,,,,,,,,,,,,,,,,,,,,,,,,,,,,,,,,,,,,,,,,,,,,,,,,,,,,,,,,,,,,,,,,,,,,,,,,,,,,,,,,,,,,,,,,,,,,,,,,,,,,,,,,,,,,,,,,,,,,,,,,,
,,5f527fcd94f94754853db0e5,2024-02-18_20h12.58.007,kallum_motion_pilot,2023.2.2,Win32,60.24096386,5f527fcd94f94754853db0e5,65d2b6c8f2eece985d8e374c,65d2b910924c2db16f8dae82,0.0545,0.0546,0,80,80,33,1,onethree,,,,,,,,,,,,,,,,,,,,,,,,,,,,,,,,,,,,,,,,,,,,,,,,,,,,,,,,,,,,,,,,,,,,,,,,,,,,,,,,,,,,,,,,,,,,,,,,,,,,,,,,,,,,,,,,,,,,,,,,,,,,,,,,,,,,,,,,,
,,5f527fcd94f94754853db0e5,2024-02-18_20h12.58.007,kallum_motion_pilot,2023.2.2,Win32,60.24096386,5f527fcd94f94754853db0e5,65d2b6c8f2eece985d8e374c,65d2b910924c2db16f8dae82,0.0546,0.0547,0,81,81,39,1,fourthree,,,,,,,,,,,,,,,,,,,,,,,,,,,,,,,,,,,,,,,,,,,,,,,,,,,,,,,,,,,,,,,,,,,,,,,,,,,,,,,,,,,,,,,,,,,,,,,,,,,,,,,,,,,,,,,,,,,,,,,,,,,,,,,,,,,,,,,,,
,,5f527fcd94f94754853db0e5,2024-02-18_20h12.58.007,kallum_motion_pilot,2023.2.2,Win32,60.24096386,5f527fcd94f94754853db0e5,65d2b6c8f2eece985d8e374c,65d2b910924c2db16f8dae82,0.0548,0.0549,0,82,82,103,1,eightseven,,,,,,,,,,,,,,,,,,,,,,,,,,,,,,,,,,,,,,,,,,,,,,,,,,,,,,,,,,,,,,,,,,,,,,,,,,,,,,,,,,,,,,,,,,,,,,,,,,,,,,,,,,,,,,,,,,,,,,,,,,,,,,,,,,,,,,,,,
,,5f527fcd94f94754853db0e5,2024-02-18_20h12.58.007,kallum_motion_pilot,2023.2.2,Win32,60.24096386,5f527fcd94f94754853db0e5,65d2b6c8f2eece985d8e374c,65d2b910924c2db16f8dae82,0.055,0.0551,0,83,83,3,1,twofour,,,,,,,,,,,,,,,,,,,,,,,,,,,,,,,,,,,,,,,,,,,,,,,,,,,,,,,,,,,,,,,,,,,,,,,,,,,,,,,,,,,,,,,,,,,,,,,,,,,,,,,,,,,,,,,,,,,,,,,,,,,,,,,,,,,,,,,,,
,,5f527fcd94f94754853db0e5,2024-02-18_20h12.58.007,kallum_motion_pilot,2023.2.2,Win32,60.24096386,5f527fcd94f94754853db0e5,65d2b6c8f2eece985d8e374c,65d2b910924c2db16f8dae82,0.0552,0.0554,0,84,84,4,1,threeone,,,,,,,,,,,,,,,,,,,,,,,,,,,,,,,,,,,,,,,,,,,,,,,,,,,,,,,,,,,,,,,,,,,,,,,,,,,,,,,,,,,,,,,,,,,,,,,,,,,,,,,,,,,,,,,,,,,,,,,,,,,,,,,,,,,,,,,,,
,,5f527fcd94f94754853db0e5,2024-02-18_20h12.58.007,kallum_motion_pilot,2023.2.2,Win32,60.24096386,5f527fcd94f94754853db0e5,65d2b6c8f2eece985d8e374c,65d2b910924c2db16f8dae82,0.0554,0.0555,0,85,85,65,1,onethree,,,,,,,,,,,,,,,,,,,,,,,,,,,,,,,,,,,,,,,,,,,,,,,,,,,,,,,,,,,,,,,,,,,,,,,,,,,,,,,,,,,,,,,,,,,,,,,,,,,,,,,,,,,,,,,,,,,,,,,,,,,,,,,,,,,,,,,,,
,,5f527fcd94f94754853db0e5,2024-02-18_20h12.58.007,kallum_motion_pilot,2023.2.2,Win32,60.24096386,5f527fcd94f94754853db0e5,65d2b6c8f2eece985d8e374c,65d2b910924c2db16f8dae82,0.0556,0.0557,0,86,86,81,1,fiveseven,,,,,,,,,,,,,,,,,,,,,,,,,,,,,,,,,,,,,,,,,,,,,,,,,,,,,,,,,,,,,,,,,,,,,,,,,,,,,,,,,,,,,,,,,,,,,,,,,,,,,,,,,,,,,,,,,,,,,,,,,,,,,,,,,,,,,,,,,
,,5f527fcd94f94754853db0e5,2024-02-18_20h12.58.007,kallum_motion_pilot,2023.2.2,Win32,60.24096386,5f527fcd94f94754853db0e5,65d2b6c8f2eece985d8e374c,65d2b910924c2db16f8dae82,0.0558,0.0559,0,87,87,36,1,threeone,,,,,,,,,,,,,,,,,,,,,,,,,,,,,,,,,,,,,,,,,,,,,,,,,,,,,,,,,,,,,,,,,,,,,,,,,,,,,,,,,,,,,,,,,,,,,,,,,,,,,,,,,,,,,,,,,,,,,,,,,,,,,,,,,,,,,,,,,
,,5f527fcd94f94754853db0e5,2024-02-18_20h12.58.007,kallum_motion_pilot,2023.2.2,Win32,60.24096386,5f527fcd94f94754853db0e5,65d2b6c8f2eece985d8e374c,65d2b910924c2db16f8dae82,0.0559,0.0561,0,88,88,34,1,twoone,,,,,,,,,,,,,,,,,,,,,,,,,,,,,,,,,,,,,,,,,,,,,,,,,,,,,,,,,,,,,,,,,,,,,,,,,,,,,,,,,,,,,,,,,,,,,,,,,,,,,,,,,,,,,,,,,,,,,,,,,,,,,,,,,,,,,,,,,
,,5f527fcd94f94754853db0e5,2024-02-18_20h12.58.007,kallum_motion_pilot,2023.2.2,Win32,60.24096386,5f527fcd94f94754853db0e5,65d2b6c8f2eece985d8e374c,65d2b910924c2db16f8dae82,0.0562,0.0562,0,89,89,2,1,twoone,,,,,,,,,,,,,,,,,,,,,,,,,,,,,,,,,,,,,,,,,,,,,,,,,,,,,,,,,,,,,,,,,,,,,,,,,,,,,,,,,,,,,,,,,,,,,,,,,,,,,,,,,,,,,,,,,,,,,,,,,,,,,,,,,,,,,,,,,
,,5f527fcd94f94754853db0e5,2024-02-18_20h12.58.007,kallum_motion_pilot,2023.2.2,Win32,60.24096386,5f527fcd94f94754853db0e5,65d2b6c8f2eece985d8e374c,65d2b910924c2db16f8dae82,0.0564,0.0565,0,90,90,73,1,onethree,,,,,,,,,,,,,,,,,,,,,,,,,,,,,,,,,,,,,,,,,,,,,,,,,,,,,,,,,,,,,,,,,,,,,,,,,,,,,,,,,,,,,,,,,,,,,,,,,,,,,,,,,,,,,,,,,,,,,,,,,,,,,,,,,,,,,,,,,
,,5f527fcd94f94754853db0e5,2024-02-18_20h12.58.007,kallum_motion_pilot,2023.2.2,Win32,60.24096386,5f527fcd94f94754853db0e5,65d2b6c8f2eece985d8e374c,65d2b910924c2db16f8dae82,0.0565,0.0566,0,91,91,126,1,eightsix,,,,,,,,,,,,,,,,,,,,,,,,,,,,,,,,,,,,,,,,,,,,,,,,,,,,,,,,,,,,,,,,,,,,,,,,,,,,,,,,,,,,,,,,,,,,,,,,,,,,,,,,,,,,,,,,,,,,,,,,,,,,,,,,,,,,,,,,,
,,5f527fcd94f94754853db0e5,2024-02-18_20h12.58.007,kallum_motion_pilot,2023.2.2,Win32,60.24096386,5f527fcd94f94754853db0e5,65d2b6c8f2eece985d8e374c,65d2b910924c2db16f8dae82,0.0567,0.0567,0,92,92,93,1,seveneight,,,,,,,,,,,,,,,,,,,,,,,,,,,,,,,,,,,,,,,,,,,,,,,,,,,,,,,,,,,,,,,,,,,,,,,,,,,,,,,,,,,,,,,,,,,,,,,,,,,,,,,,,,,,,,,,,,,,,,,,,,,,,,,,,,,,,,,,,
,,5f527fcd94f94754853db0e5,2024-02-18_20h12.58.007,kallum_motion_pilot,2023.2.2,Win32,60.24096386,5f527fcd94f94754853db0e5,65d2b6c8f2eece985d8e374c,65d2b910924c2db16f8dae82,0.0569,0.0569,0,93,93,10,1,twoone,,,,,,,,,,,,,,,,,,,,,,,,,,,,,,,,,,,,,,,,,,,,,,,,,,,,,,,,,,,,,,,,,,,,,,,,,,,,,,,,,,,,,,,,,,,,,,,,,,,,,,,,,,,,,,,,,,,,,,,,,,,,,,,,,,,,,,,,,
,,5f527fcd94f94754853db0e5,2024-02-18_20h12.58.007,kallum_motion_pilot,2023.2.2,Win32,60.24096386,5f527fcd94f94754853db0e5,65d2b6c8f2eece985d8e374c,65d2b910924c2db16f8dae82,0.057,0.0571,0,94,94,95,1,eightseven,,,,,,,,,,,,,,,,,,,,,,,,,,,,,,,,,,,,,,,,,,,,,,,,,,,,,,,,,,,,,,,,,,,,,,,,,,,,,,,,,,,,,,,,,,,,,,,,,,,,,,,,,,,,,,,,,,,,,,,,,,,,,,,,,,,,,,,,,
,,5f527fcd94f94754853db0e5,2024-02-18_20h12.58.007,kallum_motion_pilot,2023.2.2,Win32,60.24096386,5f527fcd94f94754853db0e5,65d2b6c8f2eece985d8e374c,65d2b910924c2db16f8dae82,0.0572,0.0573,0,95,95,115,1,sixeight,,,,,,,,,,,,,,,,,,,,,,,,,,,,,,,,,,,,,,,,,,,,,,,,,,,,,,,,,,,,,,,,,,,,,,,,,,,,,,,,,,,,,,,,,,,,,,,,,,,,,,,,,,,,,,,,,,,,,,,,,,,,,,,,,,,,,,,,,
,,5f527fcd94f94754853db0e5,2024-02-18_20h12.58.007,kallum_motion_pilot,2023.2.2,Win32,60.24096386,5f527fcd94f94754853db0e5,65d2b6c8f2eece985d8e374c,65d2b910924c2db16f8dae82,0.0574,0.0575,0,96,96,131,1,sixeight,,,,,,,,,,,,,,,,,,,,,,,,,,,,,,,,,,,,,,,,,,,,,,,,,,,,,,,,,,,,,,,,,,,,,,,,,,,,,,,,,,,,,,,,,,,,,,,,,,,,,,,,,,,,,,,,,,,,,,,,,,,,,,,,,,,,,,,,,
,,5f527fcd94f94754853db0e5,2024-02-18_20h12.58.007,kallum_motion_pilot,2023.2.2,Win32,60.24096386,5f527fcd94f94754853db0e5,65d2b6c8f2eece985d8e374c,65d2b910924c2db16f8dae82,0.0576,0.0577,0,97,97,43,1,twofour,,,,,,,,,,,,,,,,,,,,,,,,,,,,,,,,,,,,,,,,,,,,,,,,,,,,,,,,,,,,,,,,,,,,,,,,,,,,,,,,,,,,,,,,,,,,,,,,,,,,,,,,,,,,,,,,,,,,,,,,,,,,,,,,,,,,,,,,,
,,5f527fcd94f94754853db0e5,2024-02-18_20h12.58.007,kallum_motion_pilot,2023.2.2,Win32,60.24096386,5f527fcd94f94754853db0e5,65d2b6c8f2eece985d8e374c,65d2b910924c2db16f8dae82,0.0578,0.0578,0,98,98,84,1,sevenfive,,,,,,,,,,,,,,,,,,,,,,,,,,,,,,,,,,,,,,,,,,,,,,,,,,,,,,,,,,,,,,,,,,,,,,,,,,,,,,,,,,,,,,,,,,,,,,,,,,,,,,,,,,,,,,,,,,,,,,,,,,,,,,,,,,,,,,,,,
,,5f527fcd94f94754853db0e5,2024-02-18_20h12.58.007,kallum_motion_pilot,2023.2.2,Win32,60.24096386,5f527fcd94f94754853db0e5,65d2b6c8f2eece985d8e374c,65d2b910924c2db16f8dae82,0.058,0.058,0,99,99,63,1,fourthree,,,,,,,,,,,,,,,,,,,,,,,,,,,,,,,,,,,,,,,,,,,,,,,,,,,,,,,,,,,,,,,,,,,,,,,,,,,,,,,,,,,,,,,,,,,,,,,,,,,,,,,,,,,,,,,,,,,,,,,,,,,,,,,,,,,,,,,,,
,,5f527fcd94f94754853db0e5,2024-02-18_20h12.58.007,kallum_motion_pilot,2023.2.2,Win32,60.24096386,5f527fcd94f94754853db0e5,65d2b6c8f2eece985d8e374c,65d2b910924c2db16f8dae82,0.0582,0.0582,0,100,100,101,1,seveneight,,,,,,,,,,,,,,,,,,,,,,,,,,,,,,,,,,,,,,,,,,,,,,,,,,,,,,,,,,,,,,,,,,,,,,,,,,,,,,,,,,,,,,,,,,,,,,,,,,,,,,,,,,,,,,,,,,,,,,,,,,,,,,,,,,,,,,,,,
,,5f527fcd94f94754853db0e5,2024-02-18_20h12.58.007,kallum_motion_pilot,2023.2.2,Win32,60.24096386,5f527fcd94f94754853db0e5,65d2b6c8f2eece985d8e374c,65d2b910924c2db16f8dae82,0.0584,0.0585,0,101,101,133,1,seveneight,,,,,,,,,,,,,,,,,,,,,,,,,,,,,,,,,,,,,,,,,,,,,,,,,,,,,,,,,,,,,,,,,,,,,,,,,,,,,,,,,,,,,,,,,,,,,,,,,,,,,,,,,,,,,,,,,,,,,,,,,,,,,,,,,,,,,,,,,
,,5f527fcd94f94754853db0e5,2024-02-18_20h12.58.007,kallum_motion_pilot,2023.2.2,Win32,60.24096386,5f527fcd94f94754853db0e5,65d2b6c8f2eece985d8e374c,65d2b910924c2db16f8dae82,0.0585,0.0587,0,102,102,149,1,seveneight,,,,,,,,,,,,,,,,,,,,,,,,,,,,,,,,,,,,,,,,,,,,,,,,,,,,,,,,,,,,,,,,,,,,,,,,,,,,,,,,,,,,,,,,,,,,,,,,,,,,,,,,,,,,,,,,,,,,,,,,,,,,,,,,,,,,,,,,,
,,5f527fcd94f94754853db0e5,2024-02-18_20h12.58.007,kallum_motion_pilot,2023.2.2,Win32,60.24096386,5f527fcd94f94754853db0e5,65d2b6c8f2eece985d8e374c,65d2b910924c2db16f8dae82,0.0587,0.0588,0,103,103,31,1,fourthree,,,,,,,,,,,,,,,,,,,,,,,,,,,,,,,,,,,,,,,,,,,,,,,,,,,,,,,,,,,,,,,,,,,,,,,,,,,,,,,,,,,,,,,,,,,,,,,,,,,,,,,,,,,,,,,,,,,,,,,,,,,,,,,,,,,,,,,,,
,,5f527fcd94f94754853db0e5,2024-02-18_20h12.58.007,kallum_motion_pilot,2023.2.2,Win32,60.24096386,5f527fcd94f94754853db0e5,65d2b6c8f2eece985d8e374c,65d2b910924c2db16f8dae82,0.0589,0.0589,0,104,104,139,1,sixeight,,,,,,,,,,,,,,,,,,,,,,,,,,,,,,,,,,,,,,,,,,,,,,,,,,,,,,,,,,,,,,,,,,,,,,,,,,,,,,,,,,,,,,,,,,,,,,,,,,,,,,,,,,,,,,,,,,,,,,,,,,,,,,,,,,,,,,,,,
,,5f527fcd94f94754853db0e5,2024-02-18_20h12.58.007,kallum_motion_pilot,2023.2.2,Win32,60.24096386,5f527fcd94f94754853db0e5,65d2b6c8f2eece985d8e374c,65d2b910924c2db16f8dae82,0.059,0.0592,0,105,105,137,1,fiveseven,,,,,,,,,,,,,,,,,,,,,,,,,,,,,,,,,,,,,,,,,,,,,,,,,,,,,,,,,,,,,,,,,,,,,,,,,,,,,,,,,,,,,,,,,,,,,,,,,,,,,,,,,,,,,,,,,,,,,,,,,,,,,,,,,,,,,,,,,
,,5f527fcd94f94754853db0e5,2024-02-18_20h12.58.007,kallum_motion_pilot,2023.2.2,Win32,60.24096386,5f527fcd94f94754853db0e5,65d2b6c8f2eece985d8e374c,65d2b910924c2db16f8dae82,0.0592,0.0593,0,106,106,142,1,eightsix,,,,,,,,,,,,,,,,,,,,,,,,,,,,,,,,,,,,,,,,,,,,,,,,,,,,,,,,,,,,,,,,,,,,,,,,,,,,,,,,,,,,,,,,,,,,,,,,,,,,,,,,,,,,,,,,,,,,,,,,,,,,,,,,,,,,,,,,,
,,5f527fcd94f94754853db0e5,2024-02-18_20h12.58.007,kallum_motion_pilot,2023.2.2,Win32,60.24096386,5f527fcd94f94754853db0e5,65d2b6c8f2eece985d8e374c,65d2b910924c2db16f8dae82,0.0594,0.0594,0,107,107,161,1,fiveseven,,,,,,,,,,,,,,,,,,,,,,,,,,,,,,,,,,,,,,,,,,,,,,,,,,,,,,,,,,,,,,,,,,,,,,,,,,,,,,,,,,,,,,,,,,,,,,,,,,,,,,,,,,,,,,,,,,,,,,,,,,,,,,,,,,,,,,,,,
,,5f527fcd94f94754853db0e5,2024-02-18_20h12.58.007,kallum_motion_pilot,2023.2.2,Win32,60.24096386,5f527fcd94f94754853db0e5,65d2b6c8f2eece985d8e374c,65d2b910924c2db16f8dae82,0.0595,0.0595,0,108,108,134,1,eightsix,,,,,,,,,,,,,,,,,,,,,,,,,,,,,,,,,,,,,,,,,,,,,,,,,,,,,,,,,,,,,,,,,,,,,,,,,,,,,,,,,,,,,,,,,,,,,,,,,,,,,,,,,,,,,,,,,,,,,,,,,,,,,,,,,,,,,,,,,
,,5f527fcd94f94754853db0e5,2024-02-18_20h12.58.007,kallum_motion_pilot,2023.2.2,Win32,60.24096386,5f527fcd94f94754853db0e5,65d2b6c8f2eece985d8e374c,65d2b910924c2db16f8dae82,0.0597,0.0598,0,109,109,35,1,twofour,,,,,,,,,,,,,,,,,,,,,,,,,,,,,,,,,,,,,,,,,,,,,,,,,,,,,,,,,,,,,,,,,,,,,,,,,,,,,,,,,,,,,,,,,,,,,,,,,,,,,,,,,,,,,,,,,,,,,,,,,,,,,,,,,,,,,,,,,
,,5f527fcd94f94754853db0e5,2024-02-18_20h12.58.007,kallum_motion_pilot,2023.2.2,Win32,60.24096386,5f527fcd94f94754853db0e5,65d2b6c8f2eece985d8e374c,65d2b910924c2db16f8dae82,0.0598,0.0599,0,110,110,47,1,fourthree,,,,,,,,,,,,,,,,,,,,,,,,,,,,,,,,,,,,,,,,,,,,,,,,,,,,,,,,,,,,,,,,,,,,,,,,,,,,,,,,,,,,,,,,,,,,,,,,,,,,,,,,,,,,,,,,,,,,,,,,,,,,,,,,,,,,,,,,,
,,5f527fcd94f94754853db0e5,2024-02-18_20h12.58.007,kallum_motion_pilot,2023.2.2,Win32,60.24096386,5f527fcd94f94754853db0e5,65d2b6c8f2eece985d8e374c,65d2b910924c2db16f8dae82,0.06,0.06,0,111,111,59,1,twofour,,,,,,,,,,,,,,,,,,,,,,,,,,,,,,,,,,,,,,,,,,,,,,,,,,,,,,,,,,,,,,,,,,,,,,,,,,,,,,,,,,,,,,,,,,,,,,,,,,,,,,,,,,,,,,,,,,,,,,,,,,,,,,,,,,,,,,,,,
,,5f527fcd94f94754853db0e5,2024-02-18_20h12.58.007,kallum_motion_pilot,2023.2.2,Win32,60.24096386,5f527fcd94f94754853db0e5,65d2b6c8f2eece985d8e374c,65d2b910924c2db16f8dae82,0.0602,0.0602,0,112,112,91,1,sixeight,,,,,,,,,,,,,,,,,,,,,,,,,,,,,,,,,,,,,,,,,,,,,,,,,,,,,,,,,,,,,,,,,,,,,,,,,,,,,,,,,,,,,,,,,,,,,,,,,,,,,,,,,,,,,,,,,,,,,,,,,,,,,,,,,,,,,,,,,
,,5f527fcd94f94754853db0e5,2024-02-18_20h12.58.007,kallum_motion_pilot,2023.2.2,Win32,60.24096386,5f527fcd94f94754853db0e5,65d2b6c8f2eece985d8e374c,65d2b910924c2db16f8dae82,0.0604,0.0604,0,113,113,22,1,fourtwo,,,,,,,,,,,,,,,,,,,,,,,,,,,,,,,,,,,,,,,,,,,,,,,,,,,,,,,,,,,,,,,,,,,,,,,,,,,,,,,,,,,,,,,,,,,,,,,,,,,,,,,,,,,,,,,,,,,,,,,,,,,,,,,,,,,,,,,,,
,,5f527fcd94f94754853db0e5,2024-02-18_20h12.58.007,kallum_motion_pilot,2023.2.2,Win32,60.24096386,5f527fcd94f94754853db0e5,65d2b6c8f2eece985d8e374c,65d2b910924c2db16f8dae82,0.0606,0.0607,0,114,114,122,1,sixfive,,,,,,,,,,,,,,,,,,,,,,,,,,,,,,,,,,,,,,,,,,,,,,,,,,,,,,,,,,,,,,,,,,,,,,,,,,,,,,,,,,,,,,,,,,,,,,,,,,,,,,,,,,,,,,,,,,,,,,,,,,,,,,,,,,,,,,,,,
,,5f527fcd94f94754853db0e5,2024-02-18_20h12.58.007,kallum_motion_pilot,2023.2.2,Win32,60.24096386,5f527fcd94f94754853db0e5,65d2b6c8f2eece985d8e374c,65d2b910924c2db16f8dae82,0.0609,0.0609,0,115,115,52,1,threeone,,,,,,,,,,,,,,,,,,,,,,,,,,,,,,,,,,,,,,,,,,,,,,,,,,,,,,,,,,,,,,,,,,,,,,,,,,,,,,,,,,,,,,,,,,,,,,,,,,,,,,,,,,,,,,,,,,,,,,,,,,,,,,,,,,,,,,,,,
,,5f527fcd94f94754853db0e5,2024-02-18_20h12.58.007,kallum_motion_pilot,2023.2.2,Win32,60.24096386,5f527fcd94f94754853db0e5,65d2b6c8f2eece985d8e374c,65d2b910924c2db16f8dae82,0.0611,0.0611,0,116,116,49,1,onethree,,,,,,,,,,,,,,,,,,,,,,,,,,,,,,,,,,,,,,,,,,,,,,,,,,,,,,,,,,,,,,,,,,,,,,,,,,,,,,,,,,,,,,,,,,,,,,,,,,,,,,,,,,,,,,,,,,,,,,,,,,,,,,,,,,,,,,,,,
,,5f527fcd94f94754853db0e5,2024-02-18_20h12.58.007,kallum_motion_pilot,2023.2.2,Win32,60.24096386,5f527fcd94f94754853db0e5,65d2b6c8f2eece985d8e374c,65d2b910924c2db16f8dae82,0.0612,0.0613,0,117,117,58,1,twoone,,,,,,,,,,,,,,,,,,,,,,,,,,,,,,,,,,,,,,,,,,,,,,,,,,,,,,,,,,,,,,,,,,,,,,,,,,,,,,,,,,,,,,,,,,,,,,,,,,,,,,,,,,,,,,,,,,,,,,,,,,,,,,,,,,,,,,,,,
,,5f527fcd94f94754853db0e5,2024-02-18_20h12.58.007,kallum_motion_pilot,2023.2.2,Win32,60.24096386,5f527fcd94f94754853db0e5,65d2b6c8f2eece985d8e374c,65d2b910924c2db16f8dae82,0.0615,0.0616,0,118,118,132,1,sevenfive,,,,,,,,,,,,,,,,,,,,,,,,,,,,,,,,,,,,,,,,,,,,,,,,,,,,,,,,,,,,,,,,,,,,,,,,,,,,,,,,,,,,,,,,,,,,,,,,,,,,,,,,,,,,,,,,,,,,,,,,,,,,,,,,,,,,,,,,,
,,5f527fcd94f94754853db0e5,2024-02-18_20h12.58.007,kallum_motion_pilot,2023.2.2,Win32,60.24096386,5f527fcd94f94754853db0e5,65d2b6c8f2eece985d8e374c,65d2b910924c2db16f8dae82,0.0616,0.0617,0,119,119,62,1,fourtwo,,,,,,,,,,,,,,,,,,,,,,,,,,,,,,,,,,,,,,,,,,,,,,,,,,,,,,,,,,,,,,,,,,,,,,,,,,,,,,,,,,,,,,,,,,,,,,,,,,,,,,,,,,,,,,,,,,,,,,,,,,,,,,,,,,,,,,,,,
,,5f527fcd94f94754853db0e5,2024-02-18_20h12.58.007,kallum_motion_pilot,2023.2.2,Win32,60.24096386,5f527fcd94f94754853db0e5,65d2b6c8f2eece985d8e374c,65d2b910924c2db16f8dae82,0.0618,0.0619,0,120,120,143,1,eightseven,,,,,,,,,,,,,,,,,,,,,,,,,,,,,,,,,,,,,,,,,,,,,,,,,,,,,,,,,,,,,,,,,,,,,,,,,,,,,,,,,,,,,,,,,,,,,,,,,,,,,,,,,,,,,,,,,,,,,,,,,,,,,,,,,,,,,,,,,
,,5f527fcd94f94754853db0e5,2024-02-18_20h12.58.007,kallum_motion_pilot,2023.2.2,Win32,60.24096386,5f527fcd94f94754853db0e5,65d2b6c8f2eece985d8e374c,65d2b910924c2db16f8dae82,0.062,0.0621,0,121,121,148,1,sevenfive,,,,,,,,,,,,,,,,,,,,,,,,,,,,,,,,,,,,,,,,,,,,,,,,,,,,,,,,,,,,,,,,,,,,,,,,,,,,,,,,,,,,,,,,,,,,,,,,,,,,,,,,,,,,,,,,,,,,,,,,,,,,,,,,,,,,,,,,,
,,5f527fcd94f94754853db0e5,2024-02-18_20h12.58.007,kallum_motion_pilot,2023.2.2,Win32,60.24096386,5f527fcd94f94754853db0e5,65d2b6c8f2eece985d8e374c,65d2b910924c2db16f8dae82,0.0622,0.0622,0,122,122,15,1,fourthree,,,,,,,,,,,,,,,,,,,,,,,,,,,,,,,,,,,,,,,,,,,,,,,,,,,,,,,,,,,,,,,,,,,,,,,,,,,,,,,,,,,,,,,,,,,,,,,,,,,,,,,,,,,,,,,,,,,,,,,,,,,,,,,,,,,,,,,,,
,,5f527fcd94f94754853db0e5,2024-02-18_20h12.58.007,kallum_motion_pilot,2023.2.2,Win32,60.24096386,5f527fcd94f94754853db0e5,65d2b6c8f2eece985d8e374c,65d2b910924c2db16f8dae82,0.0623,0.0624,0,123,123,104,1,fivesix,,,,,,,,,,,,,,,,,,,,,,,,,,,,,,,,,,,,,,,,,,,,,,,,,,,,,,,,,,,,,,,,,,,,,,,,,,,,,,,,,,,,,,,,,,,,,,,,,,,,,,,,,,,,,,,,,,,,,,,,,,,,,,,,,,,,,,,,,
,,5f527fcd94f94754853db0e5,2024-02-18_20h12.58.007,kallum_motion_pilot,2023.2.2,Win32,60.24096386,5f527fcd94f94754853db0e5,65d2b6c8f2eece985d8e374c,65d2b910924c2db16f8dae82,0.0625,0.0626,0,124,124,105,1,fiveseven,,,,,,,,,,,,,,,,,,,,,,,,,,,,,,,,,,,,,,,,,,,,,,,,,,,,,,,,,,,,,,,,,,,,,,,,,,,,,,,,,,,,,,,,,,,,,,,,,,,,,,,,,,,,,,,,,,,,,,,,,,,,,,,,,,,,,,,,,
,,5f527fcd94f94754853db0e5,2024-02-18_20h12.58.007,kallum_motion_pilot,2023.2.2,Win32,60.24096386,5f527fcd94f94754853db0e5,65d2b6c8f2eece985d8e374c,65d2b910924c2db16f8dae82,0.0627,0.0628,0,125,125,146,1,sixfive,,,,,,,,,,,,,,,,,,,,,,,,,,,,,,,,,,,,,,,,,,,,,,,,,,,,,,,,,,,,,,,,,,,,,,,,,,,,,,,,,,,,,,,,,,,,,,,,,,,,,,,,,,,,,,,,,,,,,,,,,,,,,,,,,,,,,,,,,
,,5f527fcd94f94754853db0e5,2024-02-18_20h12.58.007,kallum_motion_pilot,2023.2.2,Win32,60.24096386,5f527fcd94f94754853db0e5,65d2b6c8f2eece985d8e374c,65d2b910924c2db16f8dae82,0.0629,0.063,0,126,126,154,1,sixfive,,,,,,,,,,,,,,,,,,,,,,,,,,,,,,,,,,,,,,,,,,,,,,,,,,,,,,,,,,,,,,,,,,,,,,,,,,,,,,,,,,,,,,,,,,,,,,,,,,,,,,,,,,,,,,,,,,,,,,,,,,,,,,,,,,,,,,,,,
,,5f527fcd94f94754853db0e5,2024-02-18_20h12.58.007,kallum_motion_pilot,2023.2.2,Win32,60.24096386,5f527fcd94f94754853db0e5,65d2b6c8f2eece985d8e374c,65d2b910924c2db16f8dae82,0.063,0.0631,0,127,127,29,1,threefour,,,,,,,,,,,,,,,,,,,,,,,,,,,,,,,,,,,,,,,,,,,,,,,,,,,,,,,,,,,,,,,,,,,,,,,,,,,,,,,,,,,,,,,,,,,,,,,,,,,,,,,,,,,,,,,,,,,,,,,,,,,,,,,,,,,,,,,,,
,,5f527fcd94f94754853db0e5,2024-02-18_20h12.58.007,kallum_motion_pilot,2023.2.2,Win32,60.24096386,5f527fcd94f94754853db0e5,65d2b6c8f2eece985d8e374c,65d2b910924c2db16f8dae82,0.0632,0.0634,0,128,128,109,1,seveneight,,,,,,,,,,,,,,,,,,,,,,,,,,,,,,,,,,,,,,,,,,,,,,,,,,,,,,,,,,,,,,,,,,,,,,,,,,,,,,,,,,,,,,,,,,,,,,,,,,,,,,,,,,,,,,,,,,,,,,,,,,,,,,,,,,,,,,,,,
,,5f527fcd94f94754853db0e5,2024-02-18_20h12.58.007,kallum_motion_pilot,2023.2.2,Win32,60.24096386,5f527fcd94f94754853db0e5,65d2b6c8f2eece985d8e374c,65d2b910924c2db16f8dae82,0.0634,0.0635,0,129,129,28,1,threeone,,,,,,,,,,,,,,,,,,,,,,,,,,,,,,,,,,,,,,,,,,,,,,,,,,,,,,,,,,,,,,,,,,,,,,,,,,,,,,,,,,,,,,,,,,,,,,,,,,,,,,,,,,,,,,,,,,,,,,,,,,,,,,,,,,,,,,,,,
,,5f527fcd94f94754853db0e5,2024-02-18_20h12.58.007,kallum_motion_pilot,2023.2.2,Win32,60.24096386,5f527fcd94f94754853db0e5,65d2b6c8f2eece985d8e374c,65d2b910924c2db16f8dae82,0.0636,0.0637,0,130,130,117,1,seveneight,,,,,,,,,,,,,,,,,,,,,,,,,,,,,,,,,,,,,,,,,,,,,,,,,,,,,,,,,,,,,,,,,,,,,,,,,,,,,,,,,,,,,,,,,,,,,,,,,,,,,,,,,,,,,,,,,,,,,,,,,,,,,,,,,,,,,,,,,
,,5f527fcd94f94754853db0e5,2024-02-18_20h12.58.007,kallum_motion_pilot,2023.2.2,Win32,60.24096386,5f527fcd94f94754853db0e5,65d2b6c8f2eece985d8e374c,65d2b910924c2db16f8dae82,0.0639,0.0639,0,131,131,54,1,fourtwo,,,,,,,,,,,,,,,,,,,,,,,,,,,,,,,,,,,,,,,,,,,,,,,,,,,,,,,,,,,,,,,,,,,,,,,,,,,,,,,,,,,,,,,,,,,,,,,,,,,,,,,,,,,,,,,,,,,,,,,,,,,,,,,,,,,,,,,,,
,,5f527fcd94f94754853db0e5,2024-02-18_20h12.58.007,kallum_motion_pilot,2023.2.2,Win32,60.24096386,5f527fcd94f94754853db0e5,65d2b6c8f2eece985d8e374c,65d2b910924c2db16f8dae82,0.064,0.0641,0,132,132,89,1,fiveseven,,,,,,,,,,,,,,,,,,,,,,,,,,,,,,,,,,,,,,,,,,,,,,,,,,,,,,,,,,,,,,,,,,,,,,,,,,,,,,,,,,,,,,,,,,,,,,,,,,,,,,,,,,,,,,,,,,,,,,,,,,,,,,,,,,,,,,,,,
,,5f527fcd94f94754853db0e5,2024-02-18_20h12.58.007,kallum_motion_pilot,2023.2.2,Win32,60.24096386,5f527fcd94f94754853db0e5,65d2b6c8f2eece985d8e374c,65d2b910924c2db16f8dae82,0.0642,0.0643,0,133,133,116,1,sevenfive,,,,,,,,,,,,,,,,,,,,,,,,,,,,,,,,,,,,,,,,,,,,,,,,,,,,,,,,,,,,,,,,,,,,,,,,,,,,,,,,,,,,,,,,,,,,,,,,,,,,,,,,,,,,,,,,,,,,,,,,,,,,,,,,,,,,,,,,,
,,5f527fcd94f94754853db0e5,2024-02-18_20h12.58.007,kallum_motion_pilot,2023.2.2,Win32,60.24096386,5f527fcd94f94754853db0e5,65d2b6c8f2eece985d8e374c,65d2b910924c2db16f8dae82,0.0644,0.0644,0,134,134,11,1,twofour,,,,,,,,,,,,,,,,,,,,,,,,,,,,,,,,,,,,,,,,,,,,,,,,,,,,,,,,,,,,,,,,,,,,,,,,,,,,,,,,,,,,,,,,,,,,,,,,,,,,,,,,,,,,,,,,,,,,,,,,,,,,,,,,,,,,,,,,,
,,5f527fcd94f94754853db0e5,2024-02-18_20h12.58.007,kallum_motion_pilot,2023.2.2,Win32,60.24096386,5f527fcd94f94754853db0e5,65d2b6c8f2eece985d8e374c,65d2b910924c2db16f8dae82,0.0645,0.0646,0,135,135,16,1,onetwo,,,,,,,,,,,,,,,,,,,,,,,,,,,,,,,,,,,,,,,,,,,,,,,,,,,,,,,,,,,,,,,,,,,,,,,,,,,,,,,,,,,,,,,,,,,,,,,,,,,,,,,,,,,,,,,,,,,,,,,,,,,,,,,,,,,,,,,,,
,,5f527fcd94f94754853db0e5,2024-02-18_20h12.58.007,kallum_motion_pilot,2023.2.2,Win32,60.24096386,5f527fcd94f94754853db0e5,65d2b6c8f2eece985d8e374c,65d2b910924c2db16f8dae82,0.0648,0.065,0,136,136,18,1,twoone,,,,,,,,,,,,,,,,,,,,,,,,,,,,,,,,,,,,,,,,,,,,,,,,,,,,,,,,,,,,,,,,,,,,,,,,,,,,,,,,,,,,,,,,,,,,,,,,,,,,,,,,,,,,,,,,,,,,,,,,,,,,,,,,,,,,,,,,,
,,5f527fcd94f94754853db0e5,2024-02-18_20h12.58.007,kallum_motion_pilot,2023.2.2,Win32,60.24096386,5f527fcd94f94754853db0e5,65d2b6c8f2eece985d8e374c,65d2b910924c2db16f8dae82,0.0656,0.0658,0,137,137,120,1,fivesix,,,,,,,,,,,,,,,,,,,,,,,,,,,,,,,,,,,,,,,,,,,,,,,,,,,,,,,,,,,,,,,,,,,,,,,,,,,,,,,,,,,,,,,,,,,,,,,,,,,,,,,,,,,,,,,,,,,,,,,,,,,,,,,,,,,,,,,,,
,,5f527fcd94f94754853db0e5,2024-02-18_20h12.58.007,kallum_motion_pilot,2023.2.2,Win32,60.24096386,5f527fcd94f94754853db0e5,65d2b6c8f2eece985d8e374c,65d2b910924c2db16f8dae82,0.0661,0.0662,0,138,138,40,1,onetwo,,,,,,,,,,,,,,,,,,,,,,,,,,,,,,,,,,,,,,,,,,,,,,,,,,,,,,,,,,,,,,,,,,,,,,,,,,,,,,,,,,,,,,,,,,,,,,,,,,,,,,,,,,,,,,,,,,,,,,,,,,,,,,,,,,,,,,,,,
,,5f527fcd94f94754853db0e5,2024-02-18_20h12.58.007,kallum_motion_pilot,2023.2.2,Win32,60.24096386,5f527fcd94f94754853db0e5,65d2b6c8f2eece985d8e374c,65d2b910924c2db16f8dae82,0.0664,0.0664,0,139,139,121,1,fiveseven,,,,,,,,,,,,,,,,,,,,,,,,,,,,,,,,,,,,,,,,,,,,,,,,,,,,,,,,,,,,,,,,,,,,,,,,,,,,,,,,,,,,,,,,,,,,,,,,,,,,,,,,,,,,,,,,,,,,,,,,,,,,,,,,,,,,,,,,,
,,5f527fcd94f94754853db0e5,2024-02-18_20h12.58.007,kallum_motion_pilot,2023.2.2,Win32,60.24096386,5f527fcd94f94754853db0e5,65d2b6c8f2eece985d8e374c,65d2b910924c2db16f8dae82,0.0666,0.0667,0,140,140,156,1,sevenfive,,,,,,,,,,,,,,,,,,,,,,,,,,,,,,,,,,,,,,,,,,,,,,,,,,,,,,,,,,,,,,,,,,,,,,,,,,,,,,,,,,,,,,,,,,,,,,,,,,,,,,,,,,,,,,,,,,,,,,,,,,,,,,,,,,,,,,,,,
,,5f527fcd94f94754853db0e5,2024-02-18_20h12.58.007,kallum_motion_pilot,2023.2.2,Win32,60.24096386,5f527fcd94f94754853db0e5,65d2b6c8f2eece985d8e374c,65d2b910924c2db16f8dae82,0.0668,0.0669,0,141,141,83,1,sixeight,,,,,,,,,,,,,,,,,,,,,,,,,,,,,,,,,,,,,,,,,,,,,,,,,,,,,,,,,,,,,,,,,,,,,,,,,,,,,,,,,,,,,,,,,,,,,,,,,,,,,,,,,,,,,,,,,,,,,,,,,,,,,,,,,,,,,,,,,
,,5f527fcd94f94754853db0e5,2024-02-18_20h12.58.007,kallum_motion_pilot,2023.2.2,Win32,60.24096386,5f527fcd94f94754853db0e5,65d2b6c8f2eece985d8e374c,65d2b910924c2db16f8dae82,0.0671,0.0671,0,142,142,155,1,sixeight,,,,,,,,,,,,,,,,,,,,,,,,,,,,,,,,,,,,,,,,,,,,,,,,,,,,,,,,,,,,,,,,,,,,,,,,,,,,,,,,,,,,,,,,,,,,,,,,,,,,,,,,,,,,,,,,,,,,,,,,,,,,,,,,,,,,,,,,,
,,5f527fcd94f94754853db0e5,2024-02-18_20h12.58.007,kallum_motion_pilot,2023.2.2,Win32,60.24096386,5f527fcd94f94754853db0e5,65d2b6c8f2eece985d8e374c,65d2b910924c2db16f8dae82,0.0673,0.0673,0,143,143,69,1,threefour,,,,,,,,,,,,,,,,,,,,,,,,,,,,,,,,,,,,,,,,,,,,,,,,,,,,,,,,,,,,,,,,,,,,,,,,,,,,,,,,,,,,,,,,,,,,,,,,,,,,,,,,,,,,,,,,,,,,,,,,,,,,,,,,,,,,,,,,,
,,5f527fcd94f94754853db0e5,2024-02-18_20h12.58.007,kallum_motion_pilot,2023.2.2,Win32,60.24096386,5f527fcd94f94754853db0e5,65d2b6c8f2eece985d8e374c,65d2b910924c2db16f8dae82,0.0674,0.0675,0,144,144,97,1,fiveseven,,,,,,,,,,,,,,,,,,,,,,,,,,,,,,,,,,,,,,,,,,,,,,,,,,,,,,,,,,,,,,,,,,,,,,,,,,,,,,,,,,,,,,,,,,,,,,,,,,,,,,,,,,,,,,,,,,,,,,,,,,,,,,,,,,,,,,,,,
,,5f527fcd94f94754853db0e5,2024-02-18_20h12.58.007,kallum_motion_pilot,2023.2.2,Win32,60.24096386,5f527fcd94f94754853db0e5,65d2b6c8f2eece985d8e374c,65d2b910924c2db16f8dae82,0.0677,0.0678,0,145,145,78,1,fourtwo,,,,,,,,,,,,,,,,,,,,,,,,,,,,,,,,,,,,,,,,,,,,,,,,,,,,,,,,,,,,,,,,,,,,,,,,,,,,,,,,,,,,,,,,,,,,,,,,,,,,,,,,,,,,,,,,,,,,,,,,,,,,,,,,,,,,,,,,,
,,5f527fcd94f94754853db0e5,2024-02-18_20h12.58.007,kallum_motion_pilot,2023.2.2,Win32,60.24096386,5f527fcd94f94754853db0e5,65d2b6c8f2eece985d8e374c,65d2b910924c2db16f8dae82,0.0679,0.0679,0,146,146,87,1,eightseven,,,,,,,,,,,,,,,,,,,,,,,,,,,,,,,,,,,,,,,,,,,,,,,,,,,,,,,,,,,,,,,,,,,,,,,,,,,,,,,,,,,,,,,,,,,,,,,,,,,,,,,,,,,,,,,,,,,,,,,,,,,,,,,,,,,,,,,,,
,,5f527fcd94f94754853db0e5,2024-02-18_20h12.58.007,kallum_motion_pilot,2023.2.2,Win32,60.24096386,5f527fcd94f94754853db0e5,65d2b6c8f2eece985d8e374c,65d2b910924c2db16f8dae82,0.068,0.0681,0,147,147,110,1,eightsix,,,,,,,,,,,,,,,,,,,,,,,,,,,,,,,,,,,,,,,,,,,,,,,,,,,,,,,,,,,,,,,,,,,,,,,,,,,,,,,,,,,,,,,,,,,,,,,,,,,,,,,,,,,,,,,,,,,,,,,,,,,,,,,,,,,,,,,,,
,,5f527fcd94f94754853db0e5,2024-02-18_20h12.58.007,kallum_motion_pilot,2023.2.2,Win32,60.24096386,5f527fcd94f94754853db0e5,65d2b6c8f2eece985d8e374c,65d2b910924c2db16f8dae82,0.0682,0.0683,0,148,148,19,1,twofour,,,,,,,,,,,,,,,,,,,,,,,,,,,,,,,,,,,,,,,,,,,,,,,,,,,,,,,,,,,,,,,,,,,,,,,,,,,,,,,,,,,,,,,,,,,,,,,,,,,,,,,,,,,,,,,,,,,,,,,,,,,,,,,,,,,,,,,,,
,,5f527fcd94f94754853db0e5,2024-02-18_20h12.58.007,kallum_motion_pilot,2023.2.2,Win32,60.24096386,5f527fcd94f94754853db0e5,65d2b6c8f2eece985d8e374c,65d2b910924c2db16f8dae82,0.0685,0.0686,0,149,149,114,1,sixfive,,,,,,,,,,,,,,,,,,,,,,,,,,,,,,,,,,,,,,,,,,,,,,,,,,,,,,,,,,,,,,,,,,,,,,,,,,,,,,,,,,,,,,,,,,,,,,,,,,,,,,,,,,,,,,,,,,,,,,,,,,,,,,,,,,,,,,,,,
,,5f527fcd94f94754853db0e5,2024-02-18_20h12.58.007,kallum_motion_pilot,2023.2.2,Win32,60.24096386,5f527fcd94f94754853db0e5,65d2b6c8f2eece985d8e374c,65d2b910924c2db16f8dae82,0.0687,0.0688,0,150,150,26,1,twoone,,,,,,,,,,,,,,,,,,,,,,,,,,,,,,,,,,,,,,,,,,,,,,,,,,,,,,,,,,,,,,,,,,,,,,,,,,,,,,,,,,,,,,,,,,,,,,,,,,,,,,,,,,,,,,,,,,,,,,,,,,,,,,,,,,,,,,,,,
,,5f527fcd94f94754853db0e5,2024-02-18_20h12.58.007,kallum_motion_pilot,2023.2.2,Win32,60.24096386,5f527fcd94f94754853db0e5,65d2b6c8f2eece985d8e374c,65d2b910924c2db16f8dae82,0.0689,0.069,0,151,151,82,1,sixfive,,,,,,,,,,,,,,,,,,,,,,,,,,,,,,,,,,,,,,,,,,,,,,,,,,,,,,,,,,,,,,,,,,,,,,,,,,,,,,,,,,,,,,,,,,,,,,,,,,,,,,,,,,,,,,,,,,,,,,,,,,,,,,,,,,,,,,,,,
,,5f527fcd94f94754853db0e5,2024-02-18_20h12.58.007,kallum_motion_pilot,2023.2.2,Win32,60.24096386,5f527fcd94f94754853db0e5,65d2b6c8f2eece985d8e374c,65d2b910924c2db16f8dae82,0.0691,0.0692,0,152,152,56,1,onetwo,,,,,,,,,,,,,,,,,,,,,,,,,,,,,,,,,,,,,,,,,,,,,,,,,,,,,,,,,,,,,,,,,,,,,,,,,,,,,,,,,,,,,,,,,,,,,,,,,,,,,,,,,,,,,,,,,,,,,,,,,,,,,,,,,,,,,,,,,
,,5f527fcd94f94754853db0e5,2024-02-18_20h12.58.007,kallum_motion_pilot,2023.2.2,Win32,60.24096386,5f527fcd94f94754853db0e5,65d2b6c8f2eece985d8e374c,65d2b910924c2db16f8dae82,0.0693,0.0694,0,153,153,113,1,fiveseven,,,,,,,,,,,,,,,,,,,,,,,,,,,,,,,,,,,,,,,,,,,,,,,,,,,,,,,,,,,,,,,,,,,,,,,,,,,,,,,,,,,,,,,,,,,,,,,,,,,,,,,,,,,,,,,,,,,,,,,,,,,,,,,,,,,,,,,,,
,,5f527fcd94f94754853db0e5,2024-02-18_20h12.58.007,kallum_motion_pilot,2023.2.2,Win32,60.24096386,5f527fcd94f94754853db0e5,65d2b6c8f2eece985d8e374c,65d2b910924c2db16f8dae82,0.0695,0.0696,0,154,154,45,1,threefour,,,,,,,,,,,,,,,,,,,,,,,,,,,,,,,,,,,,,,,,,,,,,,,,,,,,,,,,,,,,,,,,,,,,,,,,,,,,,,,,,,,,,,,,,,,,,,,,,,,,,,,,,,,,,,,,,,,,,,,,,,,,,,,,,,,,,,,,,
,,5f527fcd94f94754853db0e5,2024-02-18_20h12.58.007,kallum_motion_pilot,2023.2.2,Win32,60.24096386,5f527fcd94f94754853db0e5,65d2b6c8f2eece985d8e374c,65d2b910924c2db16f8dae82,0.0697,0.07,0,155,155,37,1,threefour,,,,,,,,,,,,,,,,,,,,,,,,,,,,,,,,,,,,,,,,,,,,,,,,,,,,,,,,,,,,,,,,,,,,,,,,,,,,,,,,,,,,,,,,,,,,,,,,,,,,,,,,,,,,,,,,,,,,,,,,,,,,,,,,,,,,,,,,,
,,5f527fcd94f94754853db0e5,2024-02-18_20h12.58.007,kallum_motion_pilot,2023.2.2,Win32,60.24096386,5f527fcd94f94754853db0e5,65d2b6c8f2eece985d8e374c,65d2b910924c2db16f8dae82,0.0701,0.0703,0,156,156,55,1,fourthree,,,,,,,,,,,,,,,,,,,,,,,,,,,,,,,,,,,,,,,,,,,,,,,,,,,,,,,,,,,,,,,,,,,,,,,,,,,,,,,,,,,,,,,,,,,,,,,,,,,,,,,,,,,,,,,,,,,,,,,,,,,,,,,,,,,,,,,,,
,,5f527fcd94f94754853db0e5,2024-02-18_20h12.58.007,kallum_motion_pilot,2023.2.2,Win32,60.24096386,5f527fcd94f94754853db0e5,65d2b6c8f2eece985d8e374c,65d2b910924c2db16f8dae82,0.0704,0.0706,0,157,157,76,1,threeone,,,,,,,,,,,,,,,,,,,,,,,,,,,,,,,,,,,,,,,,,,,,,,,,,,,,,,,,,,,,,,,,,,,,,,,,,,,,,,,,,,,,,,,,,,,,,,,,,,,,,,,,,,,,,,,,,,,,,,,,,,,,,,,,,,,,,,,,,
,,5f527fcd94f94754853db0e5,2024-02-18_20h12.58.007,kallum_motion_pilot,2023.2.2,Win32,60.24096386,5f527fcd94f94754853db0e5,65d2b6c8f2eece985d8e374c,65d2b910924c2db16f8dae82,0.0707,0.0709,0,158,158,129,1,fiveseven,,,,,,,,,,,,,,,,,,,,,,,,,,,,,,,,,,,,,,,,,,,,,,,,,,,,,,,,,,,,,,,,,,,,,,,,,,,,,,,,,,,,,,,,,,,,,,,,,,,,,,,,,,,,,,,,,,,,,,,,,,,,,,,,,,,,,,,,,
,,5f527fcd94f94754853db0e5,2024-02-18_20h12.58.007,kallum_motion_pilot,2023.2.2,Win32,60.24096386,5f527fcd94f94754853db0e5,65d2b6c8f2eece985d8e374c,65d2b910924c2db16f8dae82,0.071,0.0711,0,159,159,1,1,onethree,,,,,,,,,,,,,,,,,,,,,,,,,,,,,,,,,,,,,,,,,,,,,,,,,,,,,,,,,,,,,,,,,,,,,,,,,,,,,,,,,,,,,,,,,,,,,,,,,,,,,,,,,,,,,,,,,,,,,,,,,,,,,,,,,,,,,,,,,
,,5f527fcd94f94754853db0e5,2024-02-18_20h12.58.007,kallum_motion_pilot,2023.2.2,Win32,60.24096386,5f527fcd94f94754853db0e5,65d2b6c8f2eece985d8e374c,65d2b910924c2db16f8dae82,0.0712,0.0713,0,160,160,67,1,twofour,,,,,,,,,,,,,,,,,,,,,,,,,,,,,,,,,,,,,,,,,,,,,,,,,,,,,,,,,,,,,,,,,,,,,,,,,,,,,,,,,,,,,,,,,,,,,,,,,,,,,,,,,,,,,,,,,,,,,,,,,,,,,,,,,,,,,,,,,
,,5f527fcd94f94754853db0e5,2024-02-18_20h12.58.007,kallum_motion_pilot,2023.2.2,Win32,60.24096386,5f527fcd94f94754853db0e5,65d2b6c8f2eece985d8e374c,65d2b910924c2db16f8dae82,0.0715,0.0715,0,161,161,38,1,fourtwo,,,,,,,,,,,,,,,,,,,,,,,,,,,,,,,,,,,,,,,,,,,,,,,,,,,,,,,,,,,,,,,,,,,,,,,,,,,,,,,,,,,,,,,,,,,,,,,,,,,,,,,,,,,,,,,,,,,,,,,,,,,,,,,,,,,,,,,,,
,,5f527fcd94f94754853db0e5,2024-02-18_20h12.58.007,kallum_motion_pilot,2023.2.2,Win32,60.24096386,5f527fcd94f94754853db0e5,65d2b6c8f2eece985d8e374c,65d2b910924c2db16f8dae82,0.0718,0.0719,1,0,162,4,1,threeone,,,,,,,,,,,,,,,,,,,,,,,,,,,,,,,,,,,,,,,,,,,,,,,,,,,,,,,,,,,,,,,,,,,,,,,,,,,,,,,,,,,,,,,,,,,,,,,,,,,,,,,,,,,,,,,,,,,,,,,,,,,,,,,,,,,,,,,,,
,,5f527fcd94f94754853db0e5,2024-02-18_20h12.58.007,kallum_motion_pilot,2023.2.2,Win32,60.24096386,5f527fcd94f94754853db0e5,65d2b6c8f2eece985d8e374c,65d2b910924c2db16f8dae82,0.0721,0.0723,1,1,163,13,1,threefour,,,,,,,,,,,,,,,,,,,,,,,,,,,,,,,,,,,,,,,,,,,,,,,,,,,,,,,,,,,,,,,,,,,,,,,,,,,,,,,,,,,,,,,,,,,,,,,,,,,,,,,,,,,,,,,,,,,,,,,,,,,,,,,,,,,,,,,,,
,,5f527fcd94f94754853db0e5,2024-02-18_20h12.58.007,kallum_motion_pilot,2023.2.2,Win32,60.24096386,5f527fcd94f94754853db0e5,65d2b6c8f2eece985d8e374c,65d2b910924c2db16f8dae82,0.0724,0.0726,1,2,164,96,1,fivesix,,,,,,,,,,,,,,,,,,,,,,,,,,,,,,,,,,,,,,,,,,,,,,,,,,,,,,,,,,,,,,,,,,,,,,,,,,,,,,,,,,,,,,,,,,,,,,,,,,,,,,,,,,,,,,,,,,,,,,,,,,,,,,,,,,,,,,,,,
,,5f527fcd94f94754853db0e5,2024-02-18_20h12.58.007,kallum_motion_pilot,2023.2.2,Win32,60.24096386,5f527fcd94f94754853db0e5,65d2b6c8f2eece985d8e374c,65d2b910924c2db16f8dae82,0.0727,0.0728,1,3,165,143,1,eightseven,,,,,,,,,,,,,,,,,,,,,,,,,,,,,,,,,,,,,,,,,,,,,,,,,,,,,,,,,,,,,,,,,,,,,,,,,,,,,,,,,,,,,,,,,,,,,,,,,,,,,,,,,,,,,,,,,,,,,,,,,,,,,,,,,,,,,,,,,
,,5f527fcd94f94754853db0e5,2024-02-18_20h12.58.007,kallum_motion_pilot,2023.2.2,Win32,60.24096386,5f527fcd94f94754853db0e5,65d2b6c8f2eece985d8e374c,65d2b910924c2db16f8dae82,0.0729,0.0729,1,4,166,130,1,sixfive,,,,,,,,,,,,,,,,,,,,,,,,,,,,,,,,,,,,,,,,,,,,,,,,,,,,,,,,,,,,,,,,,,,,,,,,,,,,,,,,,,,,,,,,,,,,,,,,,,,,,,,,,,,,,,,,,,,,,,,,,,,,,,,,,,,,,,,,,
,,5f527fcd94f94754853db0e5,2024-02-18_20h12.58.007,kallum_motion_pilot,2023.2.2,Win32,60.24096386,5f527fcd94f94754853db0e5,65d2b6c8f2eece985d8e374c,65d2b910924c2db16f8dae82,0.0731,0.0731,1,5,167,128,1,fivesix,,,,,,,,,,,,,,,,,,,,,,,,,,,,,,,,,,,,,,,,,,,,,,,,,,,,,,,,,,,,,,,,,,,,,,,,,,,,,,,,,,,,,,,,,,,,,,,,,,,,,,,,,,,,,,,,,,,,,,,,,,,,,,,,,,,,,,,,,
,,5f527fcd94f94754853db0e5,2024-02-18_20h12.58.007,kallum_motion_pilot,2023.2.2,Win32,60.24096386,5f527fcd94f94754853db0e5,65d2b6c8f2eece985d8e374c,65d2b910924c2db16f8dae82,0.0732,0.0733,1,6,168,18,1,twoone,,,,,,,,,,,,,,,,,,,,,,,,,,,,,,,,,,,,,,,,,,,,,,,,,,,,,,,,,,,,,,,,,,,,,,,,,,,,,,,,,,,,,,,,,,,,,,,,,,,,,,,,,,,,,,,,,,,,,,,,,,,,,,,,,,,,,,,,,
,,5f527fcd94f94754853db0e5,2024-02-18_20h12.58.007,kallum_motion_pilot,2023.2.2,Win32,60.24096386,5f527fcd94f94754853db0e5,65d2b6c8f2eece985d8e374c,65d2b910924c2db16f8dae82,0.0734,0.0735,1,7,169,95,1,eightseven,,,,,,,,,,,,,,,,,,,,,,,,,,,,,,,,,,,,,,,,,,,,,,,,,,,,,,,,,,,,,,,,,,,,,,,,,,,,,,,,,,,,,,,,,,,,,,,,,,,,,,,,,,,,,,,,,,,,,,,,,,,,,,,,,,,,,,,,,
,,5f527fcd94f94754853db0e5,2024-02-18_20h12.58.007,kallum_motion_pilot,2023.2.2,Win32,60.24096386,5f527fcd94f94754853db0e5,65d2b6c8f2eece985d8e374c,65d2b910924c2db16f8dae82,0.0736,0.0737,1,8,170,120,1,fivesix,,,,,,,,,,,,,,,,,,,,,,,,,,,,,,,,,,,,,,,,,,,,,,,,,,,,,,,,,,,,,,,,,,,,,,,,,,,,,,,,,,,,,,,,,,,,,,,,,,,,,,,,,,,,,,,,,,,,,,,,,,,,,,,,,,,,,,,,,
,,5f527fcd94f94754853db0e5,2024-02-18_20h12.58.007,kallum_motion_pilot,2023.2.2,Win32,60.24096386,5f527fcd94f94754853db0e5,65d2b6c8f2eece985d8e374c,65d2b910924c2db16f8dae82,0.0737,0.0738,1,9,171,131,1,sixeight,,,,,,,,,,,,,,,,,,,,,,,,,,,,,,,,,,,,,,,,,,,,,,,,,,,,,,,,,,,,,,,,,,,,,,,,,,,,,,,,,,,,,,,,,,,,,,,,,,,,,,,,,,,,,,,,,,,,,,,,,,,,,,,,,,,,,,,,,
,,5f527fcd94f94754853db0e5,2024-02-18_20h12.58.007,kallum_motion_pilot,2023.2.2,Win32,60.24096386,5f527fcd94f94754853db0e5,65d2b6c8f2eece985d8e374c,65d2b910924c2db16f8dae82,0.0739,0.074,1,10,172,91,1,sixeight,,,,,,,,,,,,,,,,,,,,,,,,,,,,,,,,,,,,,,,,,,,,,,,,,,,,,,,,,,,,,,,,,,,,,,,,,,,,,,,,,,,,,,,,,,,,,,,,,,,,,,,,,,,,,,,,,,,,,,,,,,,,,,,,,,,,,,,,,
,,5f527fcd94f94754853db0e5,2024-02-18_20h12.58.007,kallum_motion_pilot,2023.2.2,Win32,60.24096386,5f527fcd94f94754853db0e5,65d2b6c8f2eece985d8e374c,65d2b910924c2db16f8dae82,0.0741,0.0741,1,11,173,106,1,sixfive,,,,,,,,,,,,,,,,,,,,,,,,,,,,,,,,,,,,,,,,,,,,,,,,,,,,,,,,,,,,,,,,,,,,,,,,,,,,,,,,,,,,,,,,,,,,,,,,,,,,,,,,,,,,,,,,,,,,,,,,,,,,,,,,,,,,,,,,,
,,5f527fcd94f94754853db0e5,2024-02-18_20h12.58.007,kallum_motion_pilot,2023.2.2,Win32,60.24096386,5f527fcd94f94754853db0e5,65d2b6c8f2eece985d8e374c,65d2b910924c2db16f8dae82,0.0742,0.0743,1,12,174,16,1,onetwo,,,,,,,,,,,,,,,,,,,,,,,,,,,,,,,,,,,,,,,,,,,,,,,,,,,,,,,,,,,,,,,,,,,,,,,,,,,,,,,,,,,,,,,,,,,,,,,,,,,,,,,,,,,,,,,,,,,,,,,,,,,,,,,,,,,,,,,,,
,,5f527fcd94f94754853db0e5,2024-02-18_20h12.58.007,kallum_motion_pilot,2023.2.2,Win32,60.24096386,5f527fcd94f94754853db0e5,65d2b6c8f2eece985d8e374c,65d2b910924c2db16f8dae82,0.0744,0.0745,1,13,175,139,1,sixeight,,,,,,,,,,,,,,,,,,,,,,,,,,,,,,,,,,,,,,,,,,,,,,,,,,,,,,,,,,,,,,,,,,,,,,,,,,,,,,,,,,,,,,,,,,,,,,,,,,,,,,,,,,,,,,,,,,,,,,,,,,,,,,,,,,,,,,,,,
,,5f527fcd94f94754853db0e5,2024-02-18_20h12.58.007,kallum_motion_pilot,2023.2.2,Win32,60.24096386,5f527fcd94f94754853db0e5,65d2b6c8f2eece985d8e374c,65d2b910924c2db16f8dae82,0.0746,0.0747,1,14,176,7,1,fourthree,,,,,,,,,,,,,,,,,,,,,,,,,,,,,,,,,,,,,,,,,,,,,,,,,,,,,,,,,,,,,,,,,,,,,,,,,,,,,,,,,,,,,,,,,,,,,,,,,,,,,,,,,,,,,,,,,,,,,,,,,,,,,,,,,,,,,,,,,
,,5f527fcd94f94754853db0e5,2024-02-18_20h12.58.007,kallum_motion_pilot,2023.2.2,Win32,60.24096386,5f527fcd94f94754853db0e5,65d2b6c8f2eece985d8e374c,65d2b910924c2db16f8dae82,0.0748,0.0749,1,15,177,144,1,fivesix,,,,,,,,,,,,,,,,,,,,,,,,,,,,,,,,,,,,,,,,,,,,,,,,,,,,,,,,,,,,,,,,,,,,,,,,,,,,,,,,,,,,,,,,,,,,,,,,,,,,,,,,,,,,,,,,,,,,,,,,,,,,,,,,,,,,,,,,,
,,5f527fcd94f94754853db0e5,2024-02-18_20h12.58.007,kallum_motion_pilot,2023.2.2,Win32,60.24096386,5f527fcd94f94754853db0e5,65d2b6c8f2eece985d8e374c,65d2b910924c2db16f8dae82,0.0749,0.075,1,16,178,150,1,eightsix,,,,,,,,,,,,,,,,,,,,,,,,,,,,,,,,,,,,,,,,,,,,,,,,,,,,,,,,,,,,,,,,,,,,,,,,,,,,,,,,,,,,,,,,,,,,,,,,,,,,,,,,,,,,,,,,,,,,,,,,,,,,,,,,,,,,,,,,,
,,5f527fcd94f94754853db0e5,2024-02-18_20h12.58.007,kallum_motion_pilot,2023.2.2,Win32,60.24096386,5f527fcd94f94754853db0e5,65d2b6c8f2eece985d8e374c,65d2b910924c2db16f8dae82,0.0751,0.0751,1,17,179,160,1,fivesix,,,,,,,,,,,,,,,,,,,,,,,,,,,,,,,,,,,,,,,,,,,,,,,,,,,,,,,,,,,,,,,,,,,,,,,,,,,,,,,,,,,,,,,,,,,,,,,,,,,,,,,,,,,,,,,,,,,,,,,,,,,,,,,,,,,,,,,,,
,,5f527fcd94f94754853db0e5,2024-02-18_20h12.58.007,kallum_motion_pilot,2023.2.2,Win32,60.24096386,5f527fcd94f94754853db0e5,65d2b6c8f2eece985d8e374c,65d2b910924c2db16f8dae82,0.0752,0.0753,1,18,180,56,1,onetwo,,,,,,,,,,,,,,,,,,,,,,,,,,,,,,,,,,,,,,,,,,,,,,,,,,,,,,,,,,,,,,,,,,,,,,,,,,,,,,,,,,,,,,,,,,,,,,,,,,,,,,,,,,,,,,,,,,,,,,,,,,,,,,,,,,,,,,,,,
,,5f527fcd94f94754853db0e5,2024-02-18_20h12.58.007,kallum_motion_pilot,2023.2.2,Win32,60.24096386,5f527fcd94f94754853db0e5,65d2b6c8f2eece985d8e374c,65d2b910924c2db16f8dae82,0.0754,0.0755,1,19,181,127,1,eightseven,,,,,,,,,,,,,,,,,,,,,,,,,,,,,,,,,,,,,,,,,,,,,,,,,,,,,,,,,,,,,,,,,,,,,,,,,,,,,,,,,,,,,,,,,,,,,,,,,,,,,,,,,,,,,,,,,,,,,,,,,,,,,,,,,,,,,,,,,
,,5f527fcd94f94754853db0e5,2024-02-18_20h12.58.007,kallum_motion_pilot,2023.2.2,Win32,60.24096386,5f527fcd94f94754853db0e5,65d2b6c8f2eece985d8e374c,65d2b910924c2db16f8dae82,0.0756,0.0757,1,20,182,51,1,twofour,,,,,,,,,,,,,,,,,,,,,,,,,,,,,,,,,,,,,,,,,,,,,,,,,,,,,,,,,,,,,,,,,,,,,,,,,,,,,,,,,,,,,,,,,,,,,,,,,,,,,,,,,,,,,,,,,,,,,,,,,,,,,,,,,,,,,,,,,
,,5f527fcd94f94754853db0e5,2024-02-18_20h12.58.007,kallum_motion_pilot,2023.2.2,Win32,60.24096386,5f527fcd94f94754853db0e5,65d2b6c8f2eece985d8e374c,65d2b910924c2db16f8dae82,0.0757,0.0758,1,21,183,28,1,threeone,,,,,,,,,,,,,,,,,,,,,,,,,,,,,,,,,,,,,,,,,,,,,,,,,,,,,,,,,,,,,,,,,,,,,,,,,,,,,,,,,,,,,,,,,,,,,,,,,,,,,,,,,,,,,,,,,,,,,,,,,,,,,,,,,,,,,,,,,
,,5f527fcd94f94754853db0e5,2024-02-18_20h12.58.007,kallum_motion_pilot,2023.2.2,Win32,60.24096386,5f527fcd94f94754853db0e5,65d2b6c8f2eece985d8e374c,65d2b910924c2db16f8dae82,0.0759,0.0761,1,22,184,152,1,fivesix,,,,,,,,,,,,,,,,,,,,,,,,,,,,,,,,,,,,,,,,,,,,,,,,,,,,,,,,,,,,,,,,,,,,,,,,,,,,,,,,,,,,,,,,,,,,,,,,,,,,,,,,,,,,,,,,,,,,,,,,,,,,,,,,,,,,,,,,,
,,5f527fcd94f94754853db0e5,2024-02-18_20h12.58.007,kallum_motion_pilot,2023.2.2,Win32,60.24096386,5f527fcd94f94754853db0e5,65d2b6c8f2eece985d8e374c,65d2b910924c2db16f8dae82,0.0763,0.0764,1,23,185,161,1,fiveseven,,,,,,,,,,,,,,,,,,,,,,,,,,,,,,,,,,,,,,,,,,,,,,,,,,,,,,,,,,,,,,,,,,,,,,,,,,,,,,,,,,,,,,,,,,,,,,,,,,,,,,,,,,,,,,,,,,,,,,,,,,,,,,,,,,,,,,,,,
,,5f527fcd94f94754853db0e5,2024-02-18_20h12.58.007,kallum_motion_pilot,2023.2.2,Win32,60.24096386,5f527fcd94f94754853db0e5,65d2b6c8f2eece985d8e374c,65d2b910924c2db16f8dae82,0.0766,0.0766,1,24,186,59,1,twofour,,,,,,,,,,,,,,,,,,,,,,,,,,,,,,,,,,,,,,,,,,,,,,,,,,,,,,,,,,,,,,,,,,,,,,,,,,,,,,,,,,,,,,,,,,,,,,,,,,,,,,,,,,,,,,,,,,,,,,,,,,,,,,,,,,,,,,,,,
,,5f527fcd94f94754853db0e5,2024-02-18_20h12.58.007,kallum_motion_pilot,2023.2.2,Win32,60.24096386,5f527fcd94f94754853db0e5,65d2b6c8f2eece985d8e374c,65d2b910924c2db16f8dae82,0.0767,0.0769,1,25,187,82,1,sixfive,,,,,,,,,,,,,,,,,,,,,,,,,,,,,,,,,,,,,,,,,,,,,,,,,,,,,,,,,,,,,,,,,,,,,,,,,,,,,,,,,,,,,,,,,,,,,,,,,,,,,,,,,,,,,,,,,,,,,,,,,,,,,,,,,,,,,,,,,
,,5f527fcd94f94754853db0e5,2024-02-18_20h12.58.007,kallum_motion_pilot,2023.2.2,Win32,60.24096386,5f527fcd94f94754853db0e5,65d2b6c8f2eece985d8e374c,65d2b910924c2db16f8dae82,0.077,0.077,1,26,188,57,1,onethree,,,,,,,,,,,,,,,,,,,,,,,,,,,,,,,,,,,,,,,,,,,,,,,,,,,,,,,,,,,,,,,,,,,,,,,,,,,,,,,,,,,,,,,,,,,,,,,,,,,,,,,,,,,,,,,,,,,,,,,,,,,,,,,,,,,,,,,,,
,,5f527fcd94f94754853db0e5,2024-02-18_20h12.58.007,kallum_motion_pilot,2023.2.2,Win32,60.24096386,5f527fcd94f94754853db0e5,65d2b6c8f2eece985d8e374c,65d2b910924c2db16f8dae82,0.0772,0.0772,1,27,189,107,1,sixeight,,,,,,,,,,,,,,,,,,,,,,,,,,,,,,,,,,,,,,,,,,,,,,,,,,,,,,,,,,,,,,,,,,,,,,,,,,,,,,,,,,,,,,,,,,,,,,,,,,,,,,,,,,,,,,,,,,,,,,,,,,,,,,,,,,,,,,,,,
,,5f527fcd94f94754853db0e5,2024-02-18_20h12.58.007,kallum_motion_pilot,2023.2.2,Win32,60.24096386,5f527fcd94f94754853db0e5,65d2b6c8f2eece985d8e374c,65d2b910924c2db16f8dae82,0.0773,0.0773,1,28,190,78,1,fourtwo,,,,,,,,,,,,,,,,,,,,,,,,,,,,,,,,,,,,,,,,,,,,,,,,,,,,,,,,,,,,,,,,,,,,,,,,,,,,,,,,,,,,,,,,,,,,,,,,,,,,,,,,,,,,,,,,,,,,,,,,,,,,,,,,,,,,,,,,,
,,5f527fcd94f94754853db0e5,2024-02-18_20h12.58.007,kallum_motion_pilot,2023.2.2,Win32,60.24096386,5f527fcd94f94754853db0e5,65d2b6c8f2eece985d8e374c,65d2b910924c2db16f8dae82,0.0775,0.0775,1,29,191,25,1,onethree,,,,,,,,,,,,,,,,,,,,,,,,,,,,,,,,,,,,,,,,,,,,,,,,,,,,,,,,,,,,,,,,,,,,,,,,,,,,,,,,,,,,,,,,,,,,,,,,,,,,,,,,,,,,,,,,,,,,,,,,,,,,,,,,,,,,,,,,,
,,5f527fcd94f94754853db0e5,2024-02-18_20h12.58.007,kallum_motion_pilot,2023.2.2,Win32,60.24096386,5f527fcd94f94754853db0e5,65d2b6c8f2eece985d8e374c,65d2b910924c2db16f8dae82,0.0776,0.0777,1,30,192,155,1,sixeight,,,,,,,,,,,,,,,,,,,,,,,,,,,,,,,,,,,,,,,,,,,,,,,,,,,,,,,,,,,,,,,,,,,,,,,,,,,,,,,,,,,,,,,,,,,,,,,,,,,,,,,,,,,,,,,,,,,,,,,,,,,,,,,,,,,,,,,,,
,,5f527fcd94f94754853db0e5,2024-02-18_20h12.58.007,kallum_motion_pilot,2023.2.2,Win32,60.24096386,5f527fcd94f94754853db0e5,65d2b6c8f2eece985d8e374c,65d2b910924c2db16f8dae82,0.0778,0.0779,1,31,193,54,1,fourtwo,,,,,,,,,,,,,,,,,,,,,,,,,,,,,,,,,,,,,,,,,,,,,,,,,,,,,,,,,,,,,,,,,,,,,,,,,,,,,,,,,,,,,,,,,,,,,,,,,,,,,,,,,,,,,,,,,,,,,,,,,,,,,,,,,,,,,,,,,
,,5f527fcd94f94754853db0e5,2024-02-18_20h12.58.007,kallum_motion_pilot,2023.2.2,Win32,60.24096386,5f527fcd94f94754853db0e5,65d2b6c8f2eece985d8e374c,65d2b910924c2db16f8dae82,0.078,0.0781,1,32,194,84,1,sevenfive,,,,,,,,,,,,,,,,,,,,,,,,,,,,,,,,,,,,,,,,,,,,,,,,,,,,,,,,,,,,,,,,,,,,,,,,,,,,,,,,,,,,,,,,,,,,,,,,,,,,,,,,,,,,,,,,,,,,,,,,,,,,,,,,,,,,,,,,,
,,5f527fcd94f94754853db0e5,2024-02-18_20h12.58.007,kallum_motion_pilot,2023.2.2,Win32,60.24096386,5f527fcd94f94754853db0e5,65d2b6c8f2eece985d8e374c,65d2b910924c2db16f8dae82,0.0782,0.0783,1,33,195,52,1,threeone,,,,,,,,,,,,,,,,,,,,,,,,,,,,,,,,,,,,,,,,,,,,,,,,,,,,,,,,,,,,,,,,,,,,,,,,,,,,,,,,,,,,,,,,,,,,,,,,,,,,,,,,,,,,,,,,,,,,,,,,,,,,,,,,,,,,,,,,,
,,5f527fcd94f94754853db0e5,2024-02-18_20h12.58.007,kallum_motion_pilot,2023.2.2,Win32,60.24096386,5f527fcd94f94754853db0e5,65d2b6c8f2eece985d8e374c,65d2b910924c2db16f8dae82,0.0784,0.0785,1,34,196,114,1,sixfive,,,,,,,,,,,,,,,,,,,,,,,,,,,,,,,,,,,,,,,,,,,,,,,,,,,,,,,,,,,,,,,,,,,,,,,,,,,,,,,,,,,,,,,,,,,,,,,,,,,,,,,,,,,,,,,,,,,,,,,,,,,,,,,,,,,,,,,,,
,,5f527fcd94f94754853db0e5,2024-02-18_20h12.58.007,kallum_motion_pilot,2023.2.2,Win32,60.24096386,5f527fcd94f94754853db0e5,65d2b6c8f2eece985d8e374c,65d2b910924c2db16f8dae82,0.0786,0.0787,1,35,197,75,1,twofour,,,,,,,,,,,,,,,,,,,,,,,,,,,,,,,,,,,,,,,,,,,,,,,,,,,,,,,,,,,,,,,,,,,,,,,,,,,,,,,,,,,,,,,,,,,,,,,,,,,,,,,,,,,,,,,,,,,,,,,,,,,,,,,,,,,,,,,,,
,,5f527fcd94f94754853db0e5,2024-02-18_20h12.58.007,kallum_motion_pilot,2023.2.2,Win32,60.24096386,5f527fcd94f94754853db0e5,65d2b6c8f2eece985d8e374c,65d2b910924c2db16f8dae82,0.0788,0.0789,1,36,198,8,1,onetwo,,,,,,,,,,,,,,,,,,,,,,,,,,,,,,,,,,,,,,,,,,,,,,,,,,,,,,,,,,,,,,,,,,,,,,,,,,,,,,,,,,,,,,,,,,,,,,,,,,,,,,,,,,,,,,,,,,,,,,,,,,,,,,,,,,,,,,,,,
,,5f527fcd94f94754853db0e5,2024-02-18_20h12.58.007,kallum_motion_pilot,2023.2.2,Win32,60.24096386,5f527fcd94f94754853db0e5,65d2b6c8f2eece985d8e374c,65d2b910924c2db16f8dae82,0.079,0.0791,1,37,199,115,1,sixeight,,,,,,,,,,,,,,,,,,,,,,,,,,,,,,,,,,,,,,,,,,,,,,,,,,,,,,,,,,,,,,,,,,,,,,,,,,,,,,,,,,,,,,,,,,,,,,,,,,,,,,,,,,,,,,,,,,,,,,,,,,,,,,,,,,,,,,,,,
,,5f527fcd94f94754853db0e5,2024-02-18_20h12.58.007,kallum_motion_pilot,2023.2.2,Win32,60.24096386,5f527fcd94f94754853db0e5,65d2b6c8f2eece985d8e374c,65d2b910924c2db16f8dae82,0.0791,0.0792,1,38,200,49,1,onethree,,,,,,,,,,,,,,,,,,,,,,,,,,,,,,,,,,,,,,,,,,,,,,,,,,,,,,,,,,,,,,,,,,,,,,,,,,,,,,,,,,,,,,,,,,,,,,,,,,,,,,,,,,,,,,,,,,,,,,,,,,,,,,,,,,,,,,,,,
,,5f527fcd94f94754853db0e5,2024-02-18_20h12.58.007,kallum_motion_pilot,2023.2.2,Win32,60.24096386,5f527fcd94f94754853db0e5,65d2b6c8f2eece985d8e374c,65d2b910924c2db16f8dae82,0.0794,0.0795,1,39,201,37,1,threefour,,,,,,,,,,,,,,,,,,,,,,,,,,,,,,,,,,,,,,,,,,,,,,,,,,,,,,,,,,,,,,,,,,,,,,,,,,,,,,,,,,,,,,,,,,,,,,,,,,,,,,,,,,,,,,,,,,,,,,,,,,,,,,,,,,,,,,,,,
,,5f527fcd94f94754853db0e5,2024-02-18_20h12.58.007,kallum_motion_pilot,2023.2.2,Win32,60.24096386,5f527fcd94f94754853db0e5,65d2b6c8f2eece985d8e374c,65d2b910924c2db16f8dae82,0.0795,0.0797,1,40,202,136,1,fivesix,,,,,,,,,,,,,,,,,,,,,,,,,,,,,,,,,,,,,,,,,,,,,,,,,,,,,,,,,,,,,,,,,,,,,,,,,,,,,,,,,,,,,,,,,,,,,,,,,,,,,,,,,,,,,,,,,,,,,,,,,,,,,,,,,,,,,,,,,
,,5f527fcd94f94754853db0e5,2024-02-18_20h12.58.007,kallum_motion_pilot,2023.2.2,Win32,60.24096386,5f527fcd94f94754853db0e5,65d2b6c8f2eece985d8e374c,65d2b910924c2db16f8dae82,0.0798,0.08,1,41,203,50,1,twoone,,,,,,,,,,,,,,,,,,,,,,,,,,,,,,,,,,,,,,,,,,,,,,,,,,,,,,,,,,,,,,,,,,,,,,,,,,,,,,,,,,,,,,,,,,,,,,,,,,,,,,,,,,,,,,,,,,,,,,,,,,,,,,,,,,,,,,,,,
,,5f527fcd94f94754853db0e5,2024-02-18_20h12.58.007,kallum_motion_pilot,2023.2.2,Win32,60.24096386,5f527fcd94f94754853db0e5,65d2b6c8f2eece985d8e374c,65d2b910924c2db16f8dae82,0.0802,0.0803,1,42,204,14,1,fourtwo,,,,,,,,,,,,,,,,,,,,,,,,,,,,,,,,,,,,,,,,,,,,,,,,,,,,,,,,,,,,,,,,,,,,,,,,,,,,,,,,,,,,,,,,,,,,,,,,,,,,,,,,,,,,,,,,,,,,,,,,,,,,,,,,,,,,,,,,,
,,5f527fcd94f94754853db0e5,2024-02-18_20h12.58.007,kallum_motion_pilot,2023.2.2,Win32,60.24096386,5f527fcd94f94754853db0e5,65d2b6c8f2eece985d8e374c,65d2b910924c2db16f8dae82,0.0805,0.0806,1,43,205,137,1,fiveseven,,,,,,,,,,,,,,,,,,,,,,,,,,,,,,,,,,,,,,,,,,,,,,,,,,,,,,,,,,,,,,,,,,,,,,,,,,,,,,,,,,,,,,,,,,,,,,,,,,,,,,,,,,,,,,,,,,,,,,,,,,,,,,,,,,,,,,,,,
,,5f527fcd94f94754853db0e5,2024-02-18_20h12.58.007,kallum_motion_pilot,2023.2.2,Win32,60.24096386,5f527fcd94f94754853db0e5,65d2b6c8f2eece985d8e374c,65d2b910924c2db16f8dae82,0.0808,0.0811,1,44,206,103,1,eightseven,,,,,,,,,,,,,,,,,,,,,,,,,,,,,,,,,,,,,,,,,,,,,,,,,,,,,,,,,,,,,,,,,,,,,,,,,,,,,,,,,,,,,,,,,,,,,,,,,,,,,,,,,,,,,,,,,,,,,,,,,,,,,,,,,,,,,,,,,
,,5f527fcd94f94754853db0e5,2024-02-18_20h12.58.007,kallum_motion_pilot,2023.2.2,Win32,60.24096386,5f527fcd94f94754853db0e5,65d2b6c8f2eece985d8e374c,65d2b910924c2db16f8dae82,0.0812,0.0814,1,45,207,94,1,eightsix,,,,,,,,,,,,,,,,,,,,,,,,,,,,,,,,,,,,,,,,,,,,,,,,,,,,,,,,,,,,,,,,,,,,,,,,,,,,,,,,,,,,,,,,,,,,,,,,,,,,,,,,,,,,,,,,,,,,,,,,,,,,,,,,,,,,,,,,,
,,5f527fcd94f94754853db0e5,2024-02-18_20h12.58.007,kallum_motion_pilot,2023.2.2,Win32,60.24096386,5f527fcd94f94754853db0e5,65d2b6c8f2eece985d8e374c,65d2b910924c2db16f8dae82,0.0816,0.0818,1,46,208,71,1,fourthree,,,,,,,,,,,,,,,,,,,,,,,,,,,,,,,,,,,,,,,,,,,,,,,,,,,,,,,,,,,,,,,,,,,,,,,,,,,,,,,,,,,,,,,,,,,,,,,,,,,,,,,,,,,,,,,,,,,,,,,,,,,,,,,,,,,,,,,,,
,,5f527fcd94f94754853db0e5,2024-02-18_20h12.58.007,kallum_motion_pilot,2023.2.2,Win32,60.24096386,5f527fcd94f94754853db0e5,65d2b6c8f2eece985d8e374c,65d2b910924c2db16f8dae82,0.0819,0.082,1,47,209,116,1,sevenfive,,,,,,,,,,,,,,,,,,,,,,,,,,,,,,,,,,,,,,,,,,,,,,,,,,,,,,,,,,,,,,,,,,,,,,,,,,,,,,,,,,,,,,,,,,,,,,,,,,,,,,,,,,,,,,,,,,,,,,,,,,,,,,,,,,,,,,,,,
,,5f527fcd94f94754853db0e5,2024-02-18_20h12.58.007,kallum_motion_pilot,2023.2.2,Win32,60.24096386,5f527fcd94f94754853db0e5,65d2b6c8f2eece985d8e374c,65d2b910924c2db16f8dae82,0.0821,0.0823,1,48,210,72,1,onetwo,,,,,,,,,,,,,,,,,,,,,,,,,,,,,,,,,,,,,,,,,,,,,,,,,,,,,,,,,,,,,,,,,,,,,,,,,,,,,,,,,,,,,,,,,,,,,,,,,,,,,,,,,,,,,,,,,,,,,,,,,,,,,,,,,,,,,,,,,
,,5f527fcd94f94754853db0e5,2024-02-18_20h12.58.007,kallum_motion_pilot,2023.2.2,Win32,60.24096386,5f527fcd94f94754853db0e5,65d2b6c8f2eece985d8e374c,65d2b910924c2db16f8dae82,0.0824,0.0825,1,49,211,63,1,fourthree,,,,,,,,,,,,,,,,,,,,,,,,,,,,,,,,,,,,,,,,,,,,,,,,,,,,,,,,,,,,,,,,,,,,,,,,,,,,,,,,,,,,,,,,,,,,,,,,,,,,,,,,,,,,,,,,,,,,,,,,,,,,,,,,,,,,,,,,,
,,5f527fcd94f94754853db0e5,2024-02-18_20h12.58.007,kallum_motion_pilot,2023.2.2,Win32,60.24096386,5f527fcd94f94754853db0e5,65d2b6c8f2eece985d8e374c,65d2b910924c2db16f8dae82,0.0826,0.0827,1,50,212,81,1,fiveseven,,,,,,,,,,,,,,,,,,,,,,,,,,,,,,,,,,,,,,,,,,,,,,,,,,,,,,,,,,,,,,,,,,,,,,,,,,,,,,,,,,,,,,,,,,,,,,,,,,,,,,,,,,,,,,,,,,,,,,,,,,,,,,,,,,,,,,,,,
,,5f527fcd94f94754853db0e5,2024-02-18_20h12.58.007,kallum_motion_pilot,2023.2.2,Win32,60.24096386,5f527fcd94f94754853db0e5,65d2b6c8f2eece985d8e374c,65d2b910924c2db16f8dae82,0.0829,0.083,1,51,213,38,1,fourtwo,,,,,,,,,,,,,,,,,,,,,,,,,,,,,,,,,,,,,,,,,,,,,,,,,,,,,,,,,,,,,,,,,,,,,,,,,,,,,,,,,,,,,,,,,,,,,,,,,,,,,,,,,,,,,,,,,,,,,,,,,,,,,,,,,,,,,,,,,
,,5f527fcd94f94754853db0e5,2024-02-18_20h12.58.007,kallum_motion_pilot,2023.2.2,Win32,60.24096386,5f527fcd94f94754853db0e5,65d2b6c8f2eece985d8e374c,65d2b910924c2db16f8dae82,0.0832,0.0835,1,52,214,44,1,threeone,,,,,,,,,,,,,,,,,,,,,,,,,,,,,,,,,,,,,,,,,,,,,,,,,,,,,,,,,,,,,,,,,,,,,,,,,,,,,,,,,,,,,,,,,,,,,,,,,,,,,,,,,,,,,,,,,,,,,,,,,,,,,,,,,,,,,,,,,
,,5f527fcd94f94754853db0e5,2024-02-18_20h12.58.007,kallum_motion_pilot,2023.2.2,Win32,60.24096386,5f527fcd94f94754853db0e5,65d2b6c8f2eece985d8e374c,65d2b910924c2db16f8dae82,0.0836,0.0839,1,53,215,117,1,seveneight,,,,,,,,,,,,,,,,,,,,,,,,,,,,,,,,,,,,,,,,,,,,,,,,,,,,,,,,,,,,,,,,,,,,,,,,,,,,,,,,,,,,,,,,,,,,,,,,,,,,,,,,,,,,,,,,,,,,,,,,,,,,,,,,,,,,,,,,,
,,5f527fcd94f94754853db0e5,2024-02-18_20h12.58.007,kallum_motion_pilot,2023.2.2,Win32,60.24096386,5f527fcd94f94754853db0e5,65d2b6c8f2eece985d8e374c,65d2b910924c2db16f8dae82,0.0841,0.0842,1,54,216,39,1,fourthree,,,,,,,,,,,,,,,,,,,,,,,,,,,,,,,,,,,,,,,,,,,,,,,,,,,,,,,,,,,,,,,,,,,,,,,,,,,,,,,,,,,,,,,,,,,,,,,,,,,,,,,,,,,,,,,,,,,,,,,,,,,,,,,,,,,,,,,,,
,,5f527fcd94f94754853db0e5,2024-02-18_20h12.58.007,kallum_motion_pilot,2023.2.2,Win32,60.24096386,5f527fcd94f94754853db0e5,65d2b6c8f2eece985d8e374c,65d2b910924c2db16f8dae82,0.0843,0.0845,1,55,217,41,1,onethree,,,,,,,,,,,,,,,,,,,,,,,,,,,,,,,,,,,,,,,,,,,,,,,,,,,,,,,,,,,,,,,,,,,,,,,,,,,,,,,,,,,,,,,,,,,,,,,,,,,,,,,,,,,,,,,,,,,,,,,,,,,,,,,,,,,,,,,,,
,,5f527fcd94f94754853db0e5,2024-02-18_20h12.58.007,kallum_motion_pilot,2023.2.2,Win32,60.24096386,5f527fcd94f94754853db0e5,65d2b6c8f2eece985d8e374c,65d2b910924c2db16f8dae82,0.0846,0.0847,1,56,218,0,1,onetwo,,,,,,,,,,,,,,,,,,,,,,,,,,,,,,,,,,,,,,,,,,,,,,,,,,,,,,,,,,,,,,,,,,,,,,,,,,,,,,,,,,,,,,,,,,,,,,,,,,,,,,,,,,,,,,,,,,,,,,,,,,,,,,,,,,,,,,,,,
,,5f527fcd94f94754853db0e5,2024-02-18_20h12.58.007,kallum_motion_pilot,2023.2.2,Win32,60.24096386,5f527fcd94f94754853db0e5,65d2b6c8f2eece985d8e374c,65d2b910924c2db16f8dae82,0.0848,0.0849,1,57,219,102,1,eightsix,,,,,,,,,,,,,,,,,,,,,,,,,,,,,,,,,,,,,,,,,,,,,,,,,,,,,,,,,,,,,,,,,,,,,,,,,,,,,,,,,,,,,,,,,,,,,,,,,,,,,,,,,,,,,,,,,,,,,,,,,,,,,,,,,,,,,,,,,
,,5f527fcd94f94754853db0e5,2024-02-18_20h12.58.007,kallum_motion_pilot,2023.2.2,Win32,60.24096386,5f527fcd94f94754853db0e5,65d2b6c8f2eece985d8e374c,65d2b910924c2db16f8dae82,0.085,0.0851,1,58,220,11,1,twofour,,,,,,,,,,,,,,,,,,,,,,,,,,,,,,,,,,,,,,,,,,,,,,,,,,,,,,,,,,,,,,,,,,,,,,,,,,,,,,,,,,,,,,,,,,,,,,,,,,,,,,,,,,,,,,,,,,,,,,,,,,,,,,,,,,,,,,,,,
,,5f527fcd94f94754853db0e5,2024-02-18_20h12.58.007,kallum_motion_pilot,2023.2.2,Win32,60.24096386,5f527fcd94f94754853db0e5,65d2b6c8f2eece985d8e374c,65d2b910924c2db16f8dae82,0.0853,0.0853,1,59,221,113,1,fiveseven,,,,,,,,,,,,,,,,,,,,,,,,,,,,,,,,,,,,,,,,,,,,,,,,,,,,,,,,,,,,,,,,,,,,,,,,,,,,,,,,,,,,,,,,,,,,,,,,,,,,,,,,,,,,,,,,,,,,,,,,,,,,,,,,,,,,,,,,,
,,5f527fcd94f94754853db0e5,2024-02-18_20h12.58.007,kallum_motion_pilot,2023.2.2,Win32,60.24096386,5f527fcd94f94754853db0e5,65d2b6c8f2eece985d8e374c,65d2b910924c2db16f8dae82,0.0855,0.0855,1,60,222,23,1,fourthree,,,,,,,,,,,,,,,,,,,,,,,,,,,,,,,,,,,,,,,,,,,,,,,,,,,,,,,,,,,,,,,,,,,,,,,,,,,,,,,,,,,,,,,,,,,,,,,,,,,,,,,,,,,,,,,,,,,,,,,,,,,,,,,,,,,,,,,,,
,,5f527fcd94f94754853db0e5,2024-02-18_20h12.58.007,kallum_motion_pilot,2023.2.2,Win32,60.24096386,5f527fcd94f94754853db0e5,65d2b6c8f2eece985d8e374c,65d2b910924c2db16f8dae82,0.0856,0.0857,1,61,223,73,1,onethree,,,,,,,,,,,,,,,,,,,,,,,,,,,,,,,,,,,,,,,,,,,,,,,,,,,,,,,,,,,,,,,,,,,,,,,,,,,,,,,,,,,,,,,,,,,,,,,,,,,,,,,,,,,,,,,,,,,,,,,,,,,,,,,,,,,,,,,,,
,,5f527fcd94f94754853db0e5,2024-02-18_20h12.58.007,kallum_motion_pilot,2023.2.2,Win32,60.24096386,5f527fcd94f94754853db0e5,65d2b6c8f2eece985d8e374c,65d2b910924c2db16f8dae82,0.0858,0.0859,1,62,224,98,1,sixfive,,,,,,,,,,,,,,,,,,,,,,,,,,,,,,,,,,,,,,,,,,,,,,,,,,,,,,,,,,,,,,,,,,,,,,,,,,,,,,,,,,,,,,,,,,,,,,,,,,,,,,,,,,,,,,,,,,,,,,,,,,,,,,,,,,,,,,,,,
,,5f527fcd94f94754853db0e5,2024-02-18_20h12.58.007,kallum_motion_pilot,2023.2.2,Win32,60.24096386,5f527fcd94f94754853db0e5,65d2b6c8f2eece985d8e374c,65d2b910924c2db16f8dae82,0.086,0.0861,1,63,225,123,1,sixeight,,,,,,,,,,,,,,,,,,,,,,,,,,,,,,,,,,,,,,,,,,,,,,,,,,,,,,,,,,,,,,,,,,,,,,,,,,,,,,,,,,,,,,,,,,,,,,,,,,,,,,,,,,,,,,,,,,,,,,,,,,,,,,,,,,,,,,,,,
,,5f527fcd94f94754853db0e5,2024-02-18_20h12.58.007,kallum_motion_pilot,2023.2.2,Win32,60.24096386,5f527fcd94f94754853db0e5,65d2b6c8f2eece985d8e374c,65d2b910924c2db16f8dae82,0.0861,0.0862,1,64,226,118,1,eightsix,,,,,,,,,,,,,,,,,,,,,,,,,,,,,,,,,,,,,,,,,,,,,,,,,,,,,,,,,,,,,,,,,,,,,,,,,,,,,,,,,,,,,,,,,,,,,,,,,,,,,,,,,,,,,,,,,,,,,,,,,,,,,,,,,,,,,,,,,
,,5f527fcd94f94754853db0e5,2024-02-18_20h12.58.007,kallum_motion_pilot,2023.2.2,Win32,60.24096386,5f527fcd94f94754853db0e5,65d2b6c8f2eece985d8e374c,65d2b910924c2db16f8dae82,0.0863,0.0864,1,65,227,104,1,fivesix,,,,,,,,,,,,,,,,,,,,,,,,,,,,,,,,,,,,,,,,,,,,,,,,,,,,,,,,,,,,,,,,,,,,,,,,,,,,,,,,,,,,,,,,,,,,,,,,,,,,,,,,,,,,,,,,,,,,,,,,,,,,,,,,,,,,,,,,,
,,5f527fcd94f94754853db0e5,2024-02-18_20h12.58.007,kallum_motion_pilot,2023.2.2,Win32,60.24096386,5f527fcd94f94754853db0e5,65d2b6c8f2eece985d8e374c,65d2b910924c2db16f8dae82,0.0864,0.0865,1,66,228,46,1,fourtwo,,,,,,,,,,,,,,,,,,,,,,,,,,,,,,,,,,,,,,,,,,,,,,,,,,,,,,,,,,,,,,,,,,,,,,,,,,,,,,,,,,,,,,,,,,,,,,,,,,,,,,,,,,,,,,,,,,,,,,,,,,,,,,,,,,,,,,,,,
,,5f527fcd94f94754853db0e5,2024-02-18_20h12.58.007,kallum_motion_pilot,2023.2.2,Win32,60.24096386,5f527fcd94f94754853db0e5,65d2b6c8f2eece985d8e374c,65d2b910924c2db16f8dae82,0.0866,0.0868,1,67,229,55,1,fourthree,,,,,,,,,,,,,,,,,,,,,,,,,,,,,,,,,,,,,,,,,,,,,,,,,,,,,,,,,,,,,,,,,,,,,,,,,,,,,,,,,,,,,,,,,,,,,,,,,,,,,,,,,,,,,,,,,,,,,,,,,,,,,,,,,,,,,,,,,
,,5f527fcd94f94754853db0e5,2024-02-18_20h12.58.007,kallum_motion_pilot,2023.2.2,Win32,60.24096386,5f527fcd94f94754853db0e5,65d2b6c8f2eece985d8e374c,65d2b910924c2db16f8dae82,0.0869,0.0871,1,68,230,69,1,threefour,,,,,,,,,,,,,,,,,,,,,,,,,,,,,,,,,,,,,,,,,,,,,,,,,,,,,,,,,,,,,,,,,,,,,,,,,,,,,,,,,,,,,,,,,,,,,,,,,,,,,,,,,,,,,,,,,,,,,,,,,,,,,,,,,,,,,,,,,
,,5f527fcd94f94754853db0e5,2024-02-18_20h12.58.007,kallum_motion_pilot,2023.2.2,Win32,60.24096386,5f527fcd94f94754853db0e5,65d2b6c8f2eece985d8e374c,65d2b910924c2db16f8dae82,0.0872,0.0873,1,69,231,2,1,twoone,,,,,,,,,,,,,,,,,,,,,,,,,,,,,,,,,,,,,,,,,,,,,,,,,,,,,,,,,,,,,,,,,,,,,,,,,,,,,,,,,,,,,,,,,,,,,,,,,,,,,,,,,,,,,,,,,,,,,,,,,,,,,,,,,,,,,,,,,
,,5f527fcd94f94754853db0e5,2024-02-18_20h12.58.007,kallum_motion_pilot,2023.2.2,Win32,60.24096386,5f527fcd94f94754853db0e5,65d2b6c8f2eece985d8e374c,65d2b910924c2db16f8dae82,0.0874,0.0876,1,70,232,126,1,eightsix,,,,,,,,,,,,,,,,,,,,,,,,,,,,,,,,,,,,,,,,,,,,,,,,,,,,,,,,,,,,,,,,,,,,,,,,,,,,,,,,,,,,,,,,,,,,,,,,,,,,,,,,,,,,,,,,,,,,,,,,,,,,,,,,,,,,,,,,,
,,5f527fcd94f94754853db0e5,2024-02-18_20h12.58.007,kallum_motion_pilot,2023.2.2,Win32,60.24096386,5f527fcd94f94754853db0e5,65d2b6c8f2eece985d8e374c,65d2b910924c2db16f8dae82,0.0876,0.0877,1,71,233,43,1,twofour,,,,,,,,,,,,,,,,,,,,,,,,,,,,,,,,,,,,,,,,,,,,,,,,,,,,,,,,,,,,,,,,,,,,,,,,,,,,,,,,,,,,,,,,,,,,,,,,,,,,,,,,,,,,,,,,,,,,,,,,,,,,,,,,,,,,,,,,,
,,5f527fcd94f94754853db0e5,2024-02-18_20h12.58.007,kallum_motion_pilot,2023.2.2,Win32,60.24096386,5f527fcd94f94754853db0e5,65d2b6c8f2eece985d8e374c,65d2b910924c2db16f8dae82,0.0878,0.0879,1,72,234,74,1,twoone,,,,,,,,,,,,,,,,,,,,,,,,,,,,,,,,,,,,,,,,,,,,,,,,,,,,,,,,,,,,,,,,,,,,,,,,,,,,,,,,,,,,,,,,,,,,,,,,,,,,,,,,,,,,,,,,,,,,,,,,,,,,,,,,,,,,,,,,,
,,5f527fcd94f94754853db0e5,2024-02-18_20h12.58.007,kallum_motion_pilot,2023.2.2,Win32,60.24096386,5f527fcd94f94754853db0e5,65d2b6c8f2eece985d8e374c,65d2b910924c2db16f8dae82,0.088,0.0881,1,73,235,88,1,fivesix,,,,,,,,,,,,,,,,,,,,,,,,,,,,,,,,,,,,,,,,,,,,,,,,,,,,,,,,,,,,,,,,,,,,,,,,,,,,,,,,,,,,,,,,,,,,,,,,,,,,,,,,,,,,,,,,,,,,,,,,,,,,,,,,,,,,,,,,,
,,5f527fcd94f94754853db0e5,2024-02-18_20h12.58.007,kallum_motion_pilot,2023.2.2,Win32,60.24096386,5f527fcd94f94754853db0e5,65d2b6c8f2eece985d8e374c,65d2b910924c2db16f8dae82,0.0881,0.0882,1,74,236,62,1,fourtwo,,,,,,,,,,,,,,,,,,,,,,,,,,,,,,,,,,,,,,,,,,,,,,,,,,,,,,,,,,,,,,,,,,,,,,,,,,,,,,,,,,,,,,,,,,,,,,,,,,,,,,,,,,,,,,,,,,,,,,,,,,,,,,,,,,,,,,,,,
,,5f527fcd94f94754853db0e5,2024-02-18_20h12.58.007,kallum_motion_pilot,2023.2.2,Win32,60.24096386,5f527fcd94f94754853db0e5,65d2b6c8f2eece985d8e374c,65d2b910924c2db16f8dae82,0.0883,0.0884,1,75,237,3,1,twofour,,,,,,,,,,,,,,,,,,,,,,,,,,,,,,,,,,,,,,,,,,,,,,,,,,,,,,,,,,,,,,,,,,,,,,,,,,,,,,,,,,,,,,,,,,,,,,,,,,,,,,,,,,,,,,,,,,,,,,,,,,,,,,,,,,,,,,,,,
,,5f527fcd94f94754853db0e5,2024-02-18_20h12.58.007,kallum_motion_pilot,2023.2.2,Win32,60.24096386,5f527fcd94f94754853db0e5,65d2b6c8f2eece985d8e374c,65d2b910924c2db16f8dae82,0.0885,0.0886,1,76,238,61,1,threefour,,,,,,,,,,,,,,,,,,,,,,,,,,,,,,,,,,,,,,,,,,,,,,,,,,,,,,,,,,,,,,,,,,,,,,,,,,,,,,,,,,,,,,,,,,,,,,,,,,,,,,,,,,,,,,,,,,,,,,,,,,,,,,,,,,,,,,,,,
,,5f527fcd94f94754853db0e5,2024-02-18_20h12.58.007,kallum_motion_pilot,2023.2.2,Win32,60.24096386,5f527fcd94f94754853db0e5,65d2b6c8f2eece985d8e374c,65d2b910924c2db16f8dae82,0.0887,0.0887,1,77,239,31,1,fourthree,,,,,,,,,,,,,,,,,,,,,,,,,,,,,,,,,,,,,,,,,,,,,,,,,,,,,,,,,,,,,,,,,,,,,,,,,,,,,,,,,,,,,,,,,,,,,,,,,,,,,,,,,,,,,,,,,,,,,,,,,,,,,,,,,,,,,,,,,
,,5f527fcd94f94754853db0e5,2024-02-18_20h12.58.007,kallum_motion_pilot,2023.2.2,Win32,60.24096386,5f527fcd94f94754853db0e5,65d2b6c8f2eece985d8e374c,65d2b910924c2db16f8dae82,0.0889,0.0889,1,78,240,134,1,eightsix,,,,,,,,,,,,,,,,,,,,,,,,,,,,,,,,,,,,,,,,,,,,,,,,,,,,,,,,,,,,,,,,,,,,,,,,,,,,,,,,,,,,,,,,,,,,,,,,,,,,,,,,,,,,,,,,,,,,,,,,,,,,,,,,,,,,,,,,,
,,5f527fcd94f94754853db0e5,2024-02-18_20h12.58.007,kallum_motion_pilot,2023.2.2,Win32,60.24096386,5f527fcd94f94754853db0e5,65d2b6c8f2eece985d8e374c,65d2b910924c2db16f8dae82,0.089,0.0891,1,79,241,142,1,eightsix,,,,,,,,,,,,,,,,,,,,,,,,,,,,,,,,,,,,,,,,,,,,,,,,,,,,,,,,,,,,,,,,,,,,,,,,,,,,,,,,,,,,,,,,,,,,,,,,,,,,,,,,,,,,,,,,,,,,,,,,,,,,,,,,,,,,,,,,,
,,5f527fcd94f94754853db0e5,2024-02-18_20h12.58.007,kallum_motion_pilot,2023.2.2,Win32,60.24096386,5f527fcd94f94754853db0e5,65d2b6c8f2eece985d8e374c,65d2b910924c2db16f8dae82,0.0892,0.0893,1,80,242,21,1,threefour,,,,,,,,,,,,,,,,,,,,,,,,,,,,,,,,,,,,,,,,,,,,,,,,,,,,,,,,,,,,,,,,,,,,,,,,,,,,,,,,,,,,,,,,,,,,,,,,,,,,,,,,,,,,,,,,,,,,,,,,,,,,,,,,,,,,,,,,,
,,5f527fcd94f94754853db0e5,2024-02-18_20h12.58.007,kallum_motion_pilot,2023.2.2,Win32,60.24096386,5f527fcd94f94754853db0e5,65d2b6c8f2eece985d8e374c,65d2b910924c2db16f8dae82,0.0894,0.0895,1,81,243,148,1,sevenfive,,,,,,,,,,,,,,,,,,,,,,,,,,,,,,,,,,,,,,,,,,,,,,,,,,,,,,,,,,,,,,,,,,,,,,,,,,,,,,,,,,,,,,,,,,,,,,,,,,,,,,,,,,,,,,,,,,,,,,,,,,,,,,,,,,,,,,,,,
,,5f527fcd94f94754853db0e5,2024-02-18_20h12.58.007,kallum_motion_pilot,2023.2.2,Win32,60.24096386,5f527fcd94f94754853db0e5,65d2b6c8f2eece985d8e374c,65d2b910924c2db16f8dae82,0.0895,0.0896,1,82,244,64,1,onetwo,,,,,,,,,,,,,,,,,,,,,,,,,,,,,,,,,,,,,,,,,,,,,,,,,,,,,,,,,,,,,,,,,,,,,,,,,,,,,,,,,,,,,,,,,,,,,,,,,,,,,,,,,,,,,,,,,,,,,,,,,,,,,,,,,,,,,,,,,
,,5f527fcd94f94754853db0e5,2024-02-18_20h12.58.007,kallum_motion_pilot,2023.2.2,Win32,60.24096386,5f527fcd94f94754853db0e5,65d2b6c8f2eece985d8e374c,65d2b910924c2db16f8dae82,0.0898,0.0898,1,83,245,90,1,sixfive,,,,,,,,,,,,,,,,,,,,,,,,,,,,,,,,,,,,,,,,,,,,,,,,,,,,,,,,,,,,,,,,,,,,,,,,,,,,,,,,,,,,,,,,,,,,,,,,,,,,,,,,,,,,,,,,,,,,,,,,,,,,,,,,,,,,,,,,,
,,5f527fcd94f94754853db0e5,2024-02-18_20h12.58.007,kallum_motion_pilot,2023.2.2,Win32,60.24096386,5f527fcd94f94754853db0e5,65d2b6c8f2eece985d8e374c,65d2b910924c2db16f8dae82,0.09,0.0901,1,84,246,89,1,fiveseven,,,,,,,,,,,,,,,,,,,,,,,,,,,,,,,,,,,,,,,,,,,,,,,,,,,,,,,,,,,,,,,,,,,,,,,,,,,,,,,,,,,,,,,,,,,,,,,,,,,,,,,,,,,,,,,,,,,,,,,,,,,,,,,,,,,,,,,,,
,,5f527fcd94f94754853db0e5,2024-02-18_20h12.58.007,kallum_motion_pilot,2023.2.2,Win32,60.24096386,5f527fcd94f94754853db0e5,65d2b6c8f2eece985d8e374c,65d2b910924c2db16f8dae82,0.0903,0.0904,1,85,247,34,1,twoone,,,,,,,,,,,,,,,,,,,,,,,,,,,,,,,,,,,,,,,,,,,,,,,,,,,,,,,,,,,,,,,,,,,,,,,,,,,,,,,,,,,,,,,,,,,,,,,,,,,,,,,,,,,,,,,,,,,,,,,,,,,,,,,,,,,,,,,,,
,,5f527fcd94f94754853db0e5,2024-02-18_20h12.58.007,kallum_motion_pilot,2023.2.2,Win32,60.24096386,5f527fcd94f94754853db0e5,65d2b6c8f2eece985d8e374c,65d2b910924c2db16f8dae82,0.0905,0.0905,1,86,248,99,1,sixeight,,,,,,,,,,,,,,,,,,,,,,,,,,,,,,,,,,,,,,,,,,,,,,,,,,,,,,,,,,,,,,,,,,,,,,,,,,,,,,,,,,,,,,,,,,,,,,,,,,,,,,,,,,,,,,,,,,,,,,,,,,,,,,,,,,,,,,,,,
,,5f527fcd94f94754853db0e5,2024-02-18_20h12.58.007,kallum_motion_pilot,2023.2.2,Win32,60.24096386,5f527fcd94f94754853db0e5,65d2b6c8f2eece985d8e374c,65d2b910924c2db16f8dae82,0.0905,0.0907,1,87,249,45,1,threefour,,,,,,,,,,,,,,,,,,,,,,,,,,,,,,,,,,,,,,,,,,,,,,,,,,,,,,,,,,,,,,,,,,,,,,,,,,,,,,,,,,,,,,,,,,,,,,,,,,,,,,,,,,,,,,,,,,,,,,,,,,,,,,,,,,,,,,,,,
,,5f527fcd94f94754853db0e5,2024-02-18_20h12.58.007,kallum_motion_pilot,2023.2.2,Win32,60.24096386,5f527fcd94f94754853db0e5,65d2b6c8f2eece985d8e374c,65d2b910924c2db16f8dae82,0.0907,0.0908,1,88,250,42,1,twoone,,,,,,,,,,,,,,,,,,,,,,,,,,,,,,,,,,,,,,,,,,,,,,,,,,,,,,,,,,,,,,,,,,,,,,,,,,,,,,,,,,,,,,,,,,,,,,,,,,,,,,,,,,,,,,,,,,,,,,,,,,,,,,,,,,,,,,,,,
,,5f527fcd94f94754853db0e5,2024-02-18_20h12.58.007,kallum_motion_pilot,2023.2.2,Win32,60.24096386,5f527fcd94f94754853db0e5,65d2b6c8f2eece985d8e374c,65d2b910924c2db16f8dae82,0.091,0.091,1,89,251,15,1,fourthree,,,,,,,,,,,,,,,,,,,,,,,,,,,,,,,,,,,,,,,,,,,,,,,,,,,,,,,,,,,,,,,,,,,,,,,,,,,,,,,,,,,,,,,,,,,,,,,,,,,,,,,,,,,,,,,,,,,,,,,,,,,,,,,,,,,,,,,,,
,,5f527fcd94f94754853db0e5,2024-02-18_20h12.58.007,kallum_motion_pilot,2023.2.2,Win32,60.24096386,5f527fcd94f94754853db0e5,65d2b6c8f2eece985d8e374c,65d2b910924c2db16f8dae82,0.0911,0.0912,1,90,252,121,1,fiveseven,,,,,,,,,,,,,,,,,,,,,,,,,,,,,,,,,,,,,,,,,,,,,,,,,,,,,,,,,,,,,,,,,,,,,,,,,,,,,,,,,,,,,,,,,,,,,,,,,,,,,,,,,,,,,,,,,,,,,,,,,,,,,,,,,,,,,,,,,
,,5f527fcd94f94754853db0e5,2024-02-18_20h12.58.007,kallum_motion_pilot,2023.2.2,Win32,60.24096386,5f527fcd94f94754853db0e5,65d2b6c8f2eece985d8e374c,65d2b910924c2db16f8dae82,0.0913,0.0914,1,91,253,87,1,eightseven,,,,,,,,,,,,,,,,,,,,,,,,,,,,,,,,,,,,,,,,,,,,,,,,,,,,,,,,,,,,,,,,,,,,,,,,,,,,,,,,,,,,,,,,,,,,,,,,,,,,,,,,,,,,,,,,,,,,,,,,,,,,,,,,,,,,,,,,,
,,5f527fcd94f94754853db0e5,2024-02-18_20h12.58.007,kallum_motion_pilot,2023.2.2,Win32,60.24096386,5f527fcd94f94754853db0e5,65d2b6c8f2eece985d8e374c,65d2b910924c2db16f8dae82,0.0914,0.0915,1,92,254,158,1,eightsix,,,,,,,,,,,,,,,,,,,,,,,,,,,,,,,,,,,,,,,,,,,,,,,,,,,,,,,,,,,,,,,,,,,,,,,,,,,,,,,,,,,,,,,,,,,,,,,,,,,,,,,,,,,,,,,,,,,,,,,,,,,,,,,,,,,,,,,,,
,,5f527fcd94f94754853db0e5,2024-02-18_20h12.58.007,kallum_motion_pilot,2023.2.2,Win32,60.24096386,5f527fcd94f94754853db0e5,65d2b6c8f2eece985d8e374c,65d2b910924c2db16f8dae82,0.0916,0.0919,1,93,255,111,1,eightseven,,,,,,,,,,,,,,,,,,,,,,,,,,,,,,,,,,,,,,,,,,,,,,,,,,,,,,,,,,,,,,,,,,,,,,,,,,,,,,,,,,,,,,,,,,,,,,,,,,,,,,,,,,,,,,,,,,,,,,,,,,,,,,,,,,,,,,,,,
,,5f527fcd94f94754853db0e5,2024-02-18_20h12.58.007,kallum_motion_pilot,2023.2.2,Win32,60.24096386,5f527fcd94f94754853db0e5,65d2b6c8f2eece985d8e374c,65d2b910924c2db16f8dae82,0.0919,0.092,1,94,256,141,1,seveneight,,,,,,,,,,,,,,,,,,,,,,,,,,,,,,,,,,,,,,,,,,,,,,,,,,,,,,,,,,,,,,,,,,,,,,,,,,,,,,,,,,,,,,,,,,,,,,,,,,,,,,,,,,,,,,,,,,,,,,,,,,,,,,,,,,,,,,,,,
,,5f527fcd94f94754853db0e5,2024-02-18_20h12.58.007,kallum_motion_pilot,2023.2.2,Win32,60.24096386,5f527fcd94f94754853db0e5,65d2b6c8f2eece985d8e374c,65d2b910924c2db16f8dae82,0.0921,0.0922,1,95,257,1,1,onethree,,,,,,,,,,,,,,,,,,,,,,,,,,,,,,,,,,,,,,,,,,,,,,,,,,,,,,,,,,,,,,,,,,,,,,,,,,,,,,,,,,,,,,,,,,,,,,,,,,,,,,,,,,,,,,,,,,,,,,,,,,,,,,,,,,,,,,,,,
,,5f527fcd94f94754853db0e5,2024-02-18_20h12.58.007,kallum_motion_pilot,2023.2.2,Win32,60.24096386,5f527fcd94f94754853db0e5,65d2b6c8f2eece985d8e374c,65d2b910924c2db16f8dae82,0.0923,0.0924,1,96,258,93,1,seveneight,,,,,,,,,,,,,,,,,,,,,,,,,,,,,,,,,,,,,,,,,,,,,,,,,,,,,,,,,,,,,,,,,,,,,,,,,,,,,,,,,,,,,,,,,,,,,,,,,,,,,,,,,,,,,,,,,,,,,,,,,,,,,,,,,,,,,,,,,
,,5f527fcd94f94754853db0e5,2024-02-18_20h12.58.007,kallum_motion_pilot,2023.2.2,Win32,60.24096386,5f527fcd94f94754853db0e5,65d2b6c8f2eece985d8e374c,65d2b910924c2db16f8dae82,0.0925,0.0926,1,97,259,19,1,twofour,,,,,,,,,,,,,,,,,,,,,,,,,,,,,,,,,,,,,,,,,,,,,,,,,,,,,,,,,,,,,,,,,,,,,,,,,,,,,,,,,,,,,,,,,,,,,,,,,,,,,,,,,,,,,,,,,,,,,,,,,,,,,,,,,,,,,,,,,
,,5f527fcd94f94754853db0e5,2024-02-18_20h12.58.007,kallum_motion_pilot,2023.2.2,Win32,60.24096386,5f527fcd94f94754853db0e5,65d2b6c8f2eece985d8e374c,65d2b910924c2db16f8dae82,0.0927,0.0928,1,98,260,53,1,threefour,,,,,,,,,,,,,,,,,,,,,,,,,,,,,,,,,,,,,,,,,,,,,,,,,,,,,,,,,,,,,,,,,,,,,,,,,,,,,,,,,,,,,,,,,,,,,,,,,,,,,,,,,,,,,,,,,,,,,,,,,,,,,,,,,,,,,,,,,
,,5f527fcd94f94754853db0e5,2024-02-18_20h12.58.007,kallum_motion_pilot,2023.2.2,Win32,60.24096386,5f527fcd94f94754853db0e5,65d2b6c8f2eece985d8e374c,65d2b910924c2db16f8dae82,0.0928,0.093,1,99,261,48,1,onetwo,,,,,,,,,,,,,,,,,,,,,,,,,,,,,,,,,,,,,,,,,,,,,,,,,,,,,,,,,,,,,,,,,,,,,,,,,,,,,,,,,,,,,,,,,,,,,,,,,,,,,,,,,,,,,,,,,,,,,,,,,,,,,,,,,,,,,,,,,
,,5f527fcd94f94754853db0e5,2024-02-18_20h12.58.007,kallum_motion_pilot,2023.2.2,Win32,60.24096386,5f527fcd94f94754853db0e5,65d2b6c8f2eece985d8e374c,65d2b910924c2db16f8dae82,0.093,0.0931,1,100,262,76,1,threeone,,,,,,,,,,,,,,,,,,,,,,,,,,,,,,,,,,,,,,,,,,,,,,,,,,,,,,,,,,,,,,,,,,,,,,,,,,,,,,,,,,,,,,,,,,,,,,,,,,,,,,,,,,,,,,,,,,,,,,,,,,,,,,,,,,,,,,,,,
,,5f527fcd94f94754853db0e5,2024-02-18_20h12.58.007,kallum_motion_pilot,2023.2.2,Win32,60.24096386,5f527fcd94f94754853db0e5,65d2b6c8f2eece985d8e374c,65d2b910924c2db16f8dae82,0.0932,0.0934,1,101,263,47,1,fourthree,,,,,,,,,,,,,,,,,,,,,,,,,,,,,,,,,,,,,,,,,,,,,,,,,,,,,,,,,,,,,,,,,,,,,,,,,,,,,,,,,,,,,,,,,,,,,,,,,,,,,,,,,,,,,,,,,,,,,,,,,,,,,,,,,,,,,,,,,
,,5f527fcd94f94754853db0e5,2024-02-18_20h12.58.007,kallum_motion_pilot,2023.2.2,Win32,60.24096386,5f527fcd94f94754853db0e5,65d2b6c8f2eece985d8e374c,65d2b910924c2db16f8dae82,0.0935,0.0936,1,102,264,66,1,twoone,,,,,,,,,,,,,,,,,,,,,,,,,,,,,,,,,,,,,,,,,,,,,,,,,,,,,,,,,,,,,,,,,,,,,,,,,,,,,,,,,,,,,,,,,,,,,,,,,,,,,,,,,,,,,,,,,,,,,,,,,,,,,,,,,,,,,,,,,
,,5f527fcd94f94754853db0e5,2024-02-18_20h12.58.007,kallum_motion_pilot,2023.2.2,Win32,60.24096386,5f527fcd94f94754853db0e5,65d2b6c8f2eece985d8e374c,65d2b910924c2db16f8dae82,0.0937,0.0939,1,103,265,22,1,fourtwo,,,,,,,,,,,,,,,,,,,,,,,,,,,,,,,,,,,,,,,,,,,,,,,,,,,,,,,,,,,,,,,,,,,,,,,,,,,,,,,,,,,,,,,,,,,,,,,,,,,,,,,,,,,,,,,,,,,,,,,,,,,,,,,,,,,,,,,,,
,,5f527fcd94f94754853db0e5,2024-02-18_20h12.58.007,kallum_motion_pilot,2023.2.2,Win32,60.24096386,5f527fcd94f94754853db0e5,65d2b6c8f2eece985d8e374c,65d2b910924c2db16f8dae82,0.094,0.0941,1,104,266,129,1,fiveseven,,,,,,,,,,,,,,,,,,,,,,,,,,,,,,,,,,,,,,,,,,,,,,,,,,,,,,,,,,,,,,,,,,,,,,,,,,,,,,,,,,,,,,,,,,,,,,,,,,,,,,,,,,,,,,,,,,,,,,,,,,,,,,,,,,,,,,,,,
,,5f527fcd94f94754853db0e5,2024-02-18_20h12.58.007,kallum_motion_pilot,2023.2.2,Win32,60.24096386,5f527fcd94f94754853db0e5,65d2b6c8f2eece985d8e374c,65d2b910924c2db16f8dae82,0.0942,0.0943,1,105,267,79,1,eightseven,,,,,,,,,,,,,,,,,,,,,,,,,,,,,,,,,,,,,,,,,,,,,,,,,,,,,,,,,,,,,,,,,,,,,,,,,,,,,,,,,,,,,,,,,,,,,,,,,,,,,,,,,,,,,,,,,,,,,,,,,,,,,,,,,,,,,,,,,
,,5f527fcd94f94754853db0e5,2024-02-18_20h12.58.007,kallum_motion_pilot,2023.2.2,Win32,60.24096386,5f527fcd94f94754853db0e5,65d2b6c8f2eece985d8e374c,65d2b910924c2db16f8dae82,0.0945,0.0946,1,106,268,108,1,sevenfive,,,,,,,,,,,,,,,,,,,,,,,,,,,,,,,,,,,,,,,,,,,,,,,,,,,,,,,,,,,,,,,,,,,,,,,,,,,,,,,,,,,,,,,,,,,,,,,,,,,,,,,,,,,,,,,,,,,,,,,,,,,,,,,,,,,,,,,,,
,,5f527fcd94f94754853db0e5,2024-02-18_20h12.58.007,kallum_motion_pilot,2023.2.2,Win32,60.24096386,5f527fcd94f94754853db0e5,65d2b6c8f2eece985d8e374c,65d2b910924c2db16f8dae82,0.0947,0.095,1,107,269,6,1,fourtwo,,,,,,,,,,,,,,,,,,,,,,,,,,,,,,,,,,,,,,,,,,,,,,,,,,,,,,,,,,,,,,,,,,,,,,,,,,,,,,,,,,,,,,,,,,,,,,,,,,,,,,,,,,,,,,,,,,,,,,,,,,,,,,,,,,,,,,,,,
,,5f527fcd94f94754853db0e5,2024-02-18_20h12.58.007,kallum_motion_pilot,2023.2.2,Win32,60.24096386,5f527fcd94f94754853db0e5,65d2b6c8f2eece985d8e374c,65d2b910924c2db16f8dae82,0.0952,0.0953,1,108,270,30,1,fourtwo,,,,,,,,,,,,,,,,,,,,,,,,,,,,,,,,,,,,,,,,,,,,,,,,,,,,,,,,,,,,,,,,,,,,,,,,,,,,,,,,,,,,,,,,,,,,,,,,,,,,,,,,,,,,,,,,,,,,,,,,,,,,,,,,,,,,,,,,,
,,5f527fcd94f94754853db0e5,2024-02-18_20h12.58.007,kallum_motion_pilot,2023.2.2,Win32,60.24096386,5f527fcd94f94754853db0e5,65d2b6c8f2eece985d8e374c,65d2b910924c2db16f8dae82,0.0954,0.0955,1,109,271,60,1,threeone,,,,,,,,,,,,,,,,,,,,,,,,,,,,,,,,,,,,,,,,,,,,,,,,,,,,,,,,,,,,,,,,,,,,,,,,,,,,,,,,,,,,,,,,,,,,,,,,,,,,,,,,,,,,,,,,,,,,,,,,,,,,,,,,,,,,,,,,,
,,5f527fcd94f94754853db0e5,2024-02-18_20h12.58.007,kallum_motion_pilot,2023.2.2,Win32,60.24096386,5f527fcd94f94754853db0e5,65d2b6c8f2eece985d8e374c,65d2b910924c2db16f8dae82,0.0957,0.0958,1,110,272,156,1,sevenfive,,,,,,,,,,,,,,,,,,,,,,,,,,,,,,,,,,,,,,,,,,,,,,,,,,,,,,,,,,,,,,,,,,,,,,,,,,,,,,,,,,,,,,,,,,,,,,,,,,,,,,,,,,,,,,,,,,,,,,,,,,,,,,,,,,,,,,,,,
,,5f527fcd94f94754853db0e5,2024-02-18_20h12.58.007,kallum_motion_pilot,2023.2.2,Win32,60.24096386,5f527fcd94f94754853db0e5,65d2b6c8f2eece985d8e374c,65d2b910924c2db16f8dae82,0.0959,0.096,1,111,273,5,1,threefour,,,,,,,,,,,,,,,,,,,,,,,,,,,,,,,,,,,,,,,,,,,,,,,,,,,,,,,,,,,,,,,,,,,,,,,,,,,,,,,,,,,,,,,,,,,,,,,,,,,,,,,,,,,,,,,,,,,,,,,,,,,,,,,,,,,,,,,,,
,,5f527fcd94f94754853db0e5,2024-02-18_20h12.58.007,kallum_motion_pilot,2023.2.2,Win32,60.24096386,5f527fcd94f94754853db0e5,65d2b6c8f2eece985d8e374c,65d2b910924c2db16f8dae82,0.0962,0.0963,1,112,274,85,1,seveneight,,,,,,,,,,,,,,,,,,,,,,,,,,,,,,,,,,,,,,,,,,,,,,,,,,,,,,,,,,,,,,,,,,,,,,,,,,,,,,,,,,,,,,,,,,,,,,,,,,,,,,,,,,,,,,,,,,,,,,,,,,,,,,,,,,,,,,,,,
,,5f527fcd94f94754853db0e5,2024-02-18_20h12.58.007,kallum_motion_pilot,2023.2.2,Win32,60.24096386,5f527fcd94f94754853db0e5,65d2b6c8f2eece985d8e374c,65d2b910924c2db16f8dae82,0.0964,0.0966,1,113,275,135,1,eightseven,,,,,,,,,,,,,,,,,,,,,,,,,,,,,,,,,,,,,,,,,,,,,,,,,,,,,,,,,,,,,,,,,,,,,,,,,,,,,,,,,,,,,,,,,,,,,,,,,,,,,,,,,,,,,,,,,,,,,,,,,,,,,,,,,,,,,,,,,
,,5f527fcd94f94754853db0e5,2024-02-18_20h12.58.007,kallum_motion_pilot,2023.2.2,Win32,60.24096386,5f527fcd94f94754853db0e5,65d2b6c8f2eece985d8e374c,65d2b910924c2db16f8dae82,0.0967,0.0968,1,114,276,83,1,sixeight,,,,,,,,,,,,,,,,,,,,,,,,,,,,,,,,,,,,,,,,,,,,,,,,,,,,,,,,,,,,,,,,,,,,,,,,,,,,,,,,,,,,,,,,,,,,,,,,,,,,,,,,,,,,,,,,,,,,,,,,,,,,,,,,,,,,,,,,,
,,5f527fcd94f94754853db0e5,2024-02-18_20h12.58.007,kallum_motion_pilot,2023.2.2,Win32,60.24096386,5f527fcd94f94754853db0e5,65d2b6c8f2eece985d8e374c,65d2b910924c2db16f8dae82,0.097,0.0971,1,115,277,119,1,eightseven,,,,,,,,,,,,,,,,,,,,,,,,,,,,,,,,,,,,,,,,,,,,,,,,,,,,,,,,,,,,,,,,,,,,,,,,,,,,,,,,,,,,,,,,,,,,,,,,,,,,,,,,,,,,,,,,,,,,,,,,,,,,,,,,,,,,,,,,,
