startup.started,startup.stopped,Prolific ID*,date,expName,psychopyVersion,OS,frameRate,participant,study_id,session,stimpositions.started,stimpositions.stopped,hardcoded_stimulus_positions.thisRepN,hardcoded_stimulus_positions.thisTrialN,hardcoded_stimulus_positions.thisN,hardcoded_stimulus_positions.thisIndex,hardcoded_stimulus_positions.ran,StimulusPos,stimorientation.started,stimorientation.stopped,prac_stimorientation_import_loop.thisRepN,prac_stimorientation_import_loop.thisTrialN,prac_stimorientation_import_loop.thisN,prac_stimorientation_import_loop.thisIndex,prac_stimorientation_import_loop.ran,Stimorientation,welcome_instr.started,welcome_instr.stopped,key_resp.keys,key_resp.rt,key_resp.duration,response_steppedout_1.started,response_steppedout_1.stopped,key_resp_20.keys,key_resp_20.rt,key_resp_20.duration,response_steppedout_2.started,response_steppedout_2.stopped,key_resp_19.keys,key_resp_19.rt,key_resp_19.duration,stim_response_instr.started,stim_response_instr.stopped,key_resp_15.keys,key_resp_15.rt,key_resp_15.duration,direction_instr_2.started,direction_instr_2.stopped,key_resp_9.keys,key_resp_9.rt,key_resp_9.duration,instr_prac.started,instr_prac.stopped,key_resp_10.keys,key_resp_10.rt,key_resp_10.duration,Stim1_display_prac.started,Stim1_display_prac.stopped,Ecc,Circle1_ori,Circle2_ori,response_prac.started,similarity,response_time,response_prac.stopped,mouse_5.x,mouse_5.y,mouse_5.leftButton,mouse_5.midButton,mouse_5.rightButton,mouse_5.clicked_name,responseprac_feedback.started,responseprac_feedback.stopped,summary2_prac.started,summary2_prac.stopped,mouse_6.x,mouse_6.y,mouse_6.leftButton,mouse_6.midButton,mouse_6.rightButton,mouse_6.clicked_name,duringprac.thisRepN,duringprac.thisTrialN,duringprac.thisN,duringprac.thisIndex,duringprac.ran,begin.started,begin.stopped,key_resp_22.keys,key_resp_22.rt,key_resp_22.duration,Stim1_display.started,Stim1_display.stopped,circle1_ori,circle2_ori,circle1_SF,circle2_SF,response.started,response.stopped,mouse.x,mouse.y,mouse.leftButton,mouse.midButton,mouse.rightButton,mouse.clicked_name,trialnumber,double_pass.thisRepN,double_pass.thisTrialN,double_pass.thisN,double_pass.thisIndex,double_pass.ran,double_pass.order,main_trial.thisRepN,main_trial.thisTrialN,main_trial.thisN,main_trial.thisIndex,main_trial.ran,main_trial.order,Trial_Counter,Catch,Frequencies,response_2.started,response_2.stopped,mouse_2.x,mouse_2.y,mouse_2.leftButton,mouse_2.midButton,mouse_2.rightButton,mouse_2.clicked_name,special_trial.started,special_trial.stopped,catch_1.started,catch_1.stopped,mouse_3.x,mouse_3.y,mouse_3.leftButton,mouse_3.midButton,mouse_3.rightButton,catchresponse,catchnumber,response_time_catch,response_sum.started,response_sum.stopped,mouse_11.x,mouse_11.y,mouse_11.leftButton,mouse_11.midButton,mouse_11.rightButton,flip_presentation_sequence_for_double_pass.started,flip_presentation_sequence_for_double_pass.stopped,goodbye.started,goodbye.stopped,key_resp_3.keys,key_resp_3.rt,key_resp_3.duration
0.0005,0.0006,5f5b232433097f234bc64508,2024-02-21_20h25.13.463,kallum_motion_pilot,2023.2.2,Win32,59.88023952,5f5b232433097f234bc64508,65d6bb0e977760de756971f7,65d6be57a834b53c8a8f2879,,,,,,,,,,,,,,,,,,,,,,,,,,,,,,,,,,,,,,,,,,,,,,,,,,,,,,,,,,,,,,,,,,,,,,,,,,,,,,,,,,,,,,,,,,,,,,,,,,,,,,,,,,,,,,,,,,,,,,,,,,,,,,,,,,,,,,,,,,,,,,,,,
,,5f5b232433097f234bc64508,2024-02-21_20h25.13.463,kallum_motion_pilot,2023.2.2,Win32,59.88023952,5f5b232433097f234bc64508,65d6bb0e977760de756971f7,65d6be57a834b53c8a8f2879,0.0341,0.0344,0,0,0,51,1,twofour,,,,,,,,,,,,,,,,,,,,,,,,,,,,,,,,,,,,,,,,,,,,,,,,,,,,,,,,,,,,,,,,,,,,,,,,,,,,,,,,,,,,,,,,,,,,,,,,,,,,,,,,,,,,,,,,,,,,,,,,,,,,,,,,,,,,,,,,,
,,5f5b232433097f234bc64508,2024-02-21_20h25.13.463,kallum_motion_pilot,2023.2.2,Win32,59.88023952,5f5b232433097f234bc64508,65d6bb0e977760de756971f7,65d6be57a834b53c8a8f2879,0.0348,0.0349,0,1,1,16,1,onetwo,,,,,,,,,,,,,,,,,,,,,,,,,,,,,,,,,,,,,,,,,,,,,,,,,,,,,,,,,,,,,,,,,,,,,,,,,,,,,,,,,,,,,,,,,,,,,,,,,,,,,,,,,,,,,,,,,,,,,,,,,,,,,,,,,,,,,,,,,
,,5f5b232433097f234bc64508,2024-02-21_20h25.13.463,kallum_motion_pilot,2023.2.2,Win32,59.88023952,5f5b232433097f234bc64508,65d6bb0e977760de756971f7,65d6be57a834b53c8a8f2879,0.0352,0.0352,0,2,2,21,1,threefour,,,,,,,,,,,,,,,,,,,,,,,,,,,,,,,,,,,,,,,,,,,,,,,,,,,,,,,,,,,,,,,,,,,,,,,,,,,,,,,,,,,,,,,,,,,,,,,,,,,,,,,,,,,,,,,,,,,,,,,,,,,,,,,,,,,,,,,,,
,,5f5b232433097f234bc64508,2024-02-21_20h25.13.463,kallum_motion_pilot,2023.2.2,Win32,59.88023952,5f5b232433097f234bc64508,65d6bb0e977760de756971f7,65d6be57a834b53c8a8f2879,0.0357,0.0361,0,3,3,157,1,seveneight,,,,,,,,,,,,,,,,,,,,,,,,,,,,,,,,,,,,,,,,,,,,,,,,,,,,,,,,,,,,,,,,,,,,,,,,,,,,,,,,,,,,,,,,,,,,,,,,,,,,,,,,,,,,,,,,,,,,,,,,,,,,,,,,,,,,,,,,,
,,5f5b232433097f234bc64508,2024-02-21_20h25.13.463,kallum_motion_pilot,2023.2.2,Win32,59.88023952,5f5b232433097f234bc64508,65d6bb0e977760de756971f7,65d6be57a834b53c8a8f2879,0.0366,0.0367,0,4,4,146,1,sixfive,,,,,,,,,,,,,,,,,,,,,,,,,,,,,,,,,,,,,,,,,,,,,,,,,,,,,,,,,,,,,,,,,,,,,,,,,,,,,,,,,,,,,,,,,,,,,,,,,,,,,,,,,,,,,,,,,,,,,,,,,,,,,,,,,,,,,,,,,
,,5f5b232433097f234bc64508,2024-02-21_20h25.13.463,kallum_motion_pilot,2023.2.2,Win32,59.88023952,5f5b232433097f234bc64508,65d6bb0e977760de756971f7,65d6be57a834b53c8a8f2879,0.037,0.0371,0,5,5,128,1,fivesix,,,,,,,,,,,,,,,,,,,,,,,,,,,,,,,,,,,,,,,,,,,,,,,,,,,,,,,,,,,,,,,,,,,,,,,,,,,,,,,,,,,,,,,,,,,,,,,,,,,,,,,,,,,,,,,,,,,,,,,,,,,,,,,,,,,,,,,,,
,,5f5b232433097f234bc64508,2024-02-21_20h25.13.463,kallum_motion_pilot,2023.2.2,Win32,59.88023952,5f5b232433097f234bc64508,65d6bb0e977760de756971f7,65d6be57a834b53c8a8f2879,0.0388,0.039,0,6,6,75,1,twofour,,,,,,,,,,,,,,,,,,,,,,,,,,,,,,,,,,,,,,,,,,,,,,,,,,,,,,,,,,,,,,,,,,,,,,,,,,,,,,,,,,,,,,,,,,,,,,,,,,,,,,,,,,,,,,,,,,,,,,,,,,,,,,,,,,,,,,,,,
,,5f5b232433097f234bc64508,2024-02-21_20h25.13.463,kallum_motion_pilot,2023.2.2,Win32,59.88023952,5f5b232433097f234bc64508,65d6bb0e977760de756971f7,65d6be57a834b53c8a8f2879,0.0394,0.0394,0,7,7,74,1,twoone,,,,,,,,,,,,,,,,,,,,,,,,,,,,,,,,,,,,,,,,,,,,,,,,,,,,,,,,,,,,,,,,,,,,,,,,,,,,,,,,,,,,,,,,,,,,,,,,,,,,,,,,,,,,,,,,,,,,,,,,,,,,,,,,,,,,,,,,,
,,5f5b232433097f234bc64508,2024-02-21_20h25.13.463,kallum_motion_pilot,2023.2.2,Win32,59.88023952,5f5b232433097f234bc64508,65d6bb0e977760de756971f7,65d6be57a834b53c8a8f2879,0.0397,0.0399,0,8,8,45,1,threefour,,,,,,,,,,,,,,,,,,,,,,,,,,,,,,,,,,,,,,,,,,,,,,,,,,,,,,,,,,,,,,,,,,,,,,,,,,,,,,,,,,,,,,,,,,,,,,,,,,,,,,,,,,,,,,,,,,,,,,,,,,,,,,,,,,,,,,,,,
,,5f5b232433097f234bc64508,2024-02-21_20h25.13.463,kallum_motion_pilot,2023.2.2,Win32,59.88023952,5f5b232433097f234bc64508,65d6bb0e977760de756971f7,65d6be57a834b53c8a8f2879,0.0402,0.0404,0,9,9,31,1,fourthree,,,,,,,,,,,,,,,,,,,,,,,,,,,,,,,,,,,,,,,,,,,,,,,,,,,,,,,,,,,,,,,,,,,,,,,,,,,,,,,,,,,,,,,,,,,,,,,,,,,,,,,,,,,,,,,,,,,,,,,,,,,,,,,,,,,,,,,,,
,,5f5b232433097f234bc64508,2024-02-21_20h25.13.463,kallum_motion_pilot,2023.2.2,Win32,59.88023952,5f5b232433097f234bc64508,65d6bb0e977760de756971f7,65d6be57a834b53c8a8f2879,0.0406,0.0407,0,10,10,142,1,eightsix,,,,,,,,,,,,,,,,,,,,,,,,,,,,,,,,,,,,,,,,,,,,,,,,,,,,,,,,,,,,,,,,,,,,,,,,,,,,,,,,,,,,,,,,,,,,,,,,,,,,,,,,,,,,,,,,,,,,,,,,,,,,,,,,,,,,,,,,,
,,5f5b232433097f234bc64508,2024-02-21_20h25.13.463,kallum_motion_pilot,2023.2.2,Win32,59.88023952,5f5b232433097f234bc64508,65d6bb0e977760de756971f7,65d6be57a834b53c8a8f2879,0.0409,0.0409,0,11,11,69,1,threefour,,,,,,,,,,,,,,,,,,,,,,,,,,,,,,,,,,,,,,,,,,,,,,,,,,,,,,,,,,,,,,,,,,,,,,,,,,,,,,,,,,,,,,,,,,,,,,,,,,,,,,,,,,,,,,,,,,,,,,,,,,,,,,,,,,,,,,,,,
,,5f5b232433097f234bc64508,2024-02-21_20h25.13.463,kallum_motion_pilot,2023.2.2,Win32,59.88023952,5f5b232433097f234bc64508,65d6bb0e977760de756971f7,65d6be57a834b53c8a8f2879,0.0412,0.0412,0,12,12,114,1,sixfive,,,,,,,,,,,,,,,,,,,,,,,,,,,,,,,,,,,,,,,,,,,,,,,,,,,,,,,,,,,,,,,,,,,,,,,,,,,,,,,,,,,,,,,,,,,,,,,,,,,,,,,,,,,,,,,,,,,,,,,,,,,,,,,,,,,,,,,,,
,,5f5b232433097f234bc64508,2024-02-21_20h25.13.463,kallum_motion_pilot,2023.2.2,Win32,59.88023952,5f5b232433097f234bc64508,65d6bb0e977760de756971f7,65d6be57a834b53c8a8f2879,0.0414,0.0414,0,13,13,61,1,threefour,,,,,,,,,,,,,,,,,,,,,,,,,,,,,,,,,,,,,,,,,,,,,,,,,,,,,,,,,,,,,,,,,,,,,,,,,,,,,,,,,,,,,,,,,,,,,,,,,,,,,,,,,,,,,,,,,,,,,,,,,,,,,,,,,,,,,,,,,
,,5f5b232433097f234bc64508,2024-02-21_20h25.13.463,kallum_motion_pilot,2023.2.2,Win32,59.88023952,5f5b232433097f234bc64508,65d6bb0e977760de756971f7,65d6be57a834b53c8a8f2879,0.0416,0.0417,0,14,14,119,1,eightseven,,,,,,,,,,,,,,,,,,,,,,,,,,,,,,,,,,,,,,,,,,,,,,,,,,,,,,,,,,,,,,,,,,,,,,,,,,,,,,,,,,,,,,,,,,,,,,,,,,,,,,,,,,,,,,,,,,,,,,,,,,,,,,,,,,,,,,,,,
,,5f5b232433097f234bc64508,2024-02-21_20h25.13.463,kallum_motion_pilot,2023.2.2,Win32,59.88023952,5f5b232433097f234bc64508,65d6bb0e977760de756971f7,65d6be57a834b53c8a8f2879,0.0418,0.0419,0,15,15,58,1,twoone,,,,,,,,,,,,,,,,,,,,,,,,,,,,,,,,,,,,,,,,,,,,,,,,,,,,,,,,,,,,,,,,,,,,,,,,,,,,,,,,,,,,,,,,,,,,,,,,,,,,,,,,,,,,,,,,,,,,,,,,,,,,,,,,,,,,,,,,,
,,5f5b232433097f234bc64508,2024-02-21_20h25.13.463,kallum_motion_pilot,2023.2.2,Win32,59.88023952,5f5b232433097f234bc64508,65d6bb0e977760de756971f7,65d6be57a834b53c8a8f2879,0.042,0.042,0,16,16,79,1,eightseven,,,,,,,,,,,,,,,,,,,,,,,,,,,,,,,,,,,,,,,,,,,,,,,,,,,,,,,,,,,,,,,,,,,,,,,,,,,,,,,,,,,,,,,,,,,,,,,,,,,,,,,,,,,,,,,,,,,,,,,,,,,,,,,,,,,,,,,,,
,,5f5b232433097f234bc64508,2024-02-21_20h25.13.463,kallum_motion_pilot,2023.2.2,Win32,59.88023952,5f5b232433097f234bc64508,65d6bb0e977760de756971f7,65d6be57a834b53c8a8f2879,0.0422,0.0423,0,17,17,8,1,onetwo,,,,,,,,,,,,,,,,,,,,,,,,,,,,,,,,,,,,,,,,,,,,,,,,,,,,,,,,,,,,,,,,,,,,,,,,,,,,,,,,,,,,,,,,,,,,,,,,,,,,,,,,,,,,,,,,,,,,,,,,,,,,,,,,,,,,,,,,,
,,5f5b232433097f234bc64508,2024-02-21_20h25.13.463,kallum_motion_pilot,2023.2.2,Win32,59.88023952,5f5b232433097f234bc64508,65d6bb0e977760de756971f7,65d6be57a834b53c8a8f2879,0.0424,0.0425,0,18,18,100,1,sevenfive,,,,,,,,,,,,,,,,,,,,,,,,,,,,,,,,,,,,,,,,,,,,,,,,,,,,,,,,,,,,,,,,,,,,,,,,,,,,,,,,,,,,,,,,,,,,,,,,,,,,,,,,,,,,,,,,,,,,,,,,,,,,,,,,,,,,,,,,,
,,5f5b232433097f234bc64508,2024-02-21_20h25.13.463,kallum_motion_pilot,2023.2.2,Win32,59.88023952,5f5b232433097f234bc64508,65d6bb0e977760de756971f7,65d6be57a834b53c8a8f2879,0.0426,0.0427,0,19,19,36,1,threeone,,,,,,,,,,,,,,,,,,,,,,,,,,,,,,,,,,,,,,,,,,,,,,,,,,,,,,,,,,,,,,,,,,,,,,,,,,,,,,,,,,,,,,,,,,,,,,,,,,,,,,,,,,,,,,,,,,,,,,,,,,,,,,,,,,,,,,,,,
,,5f5b232433097f234bc64508,2024-02-21_20h25.13.463,kallum_motion_pilot,2023.2.2,Win32,59.88023952,5f5b232433097f234bc64508,65d6bb0e977760de756971f7,65d6be57a834b53c8a8f2879,0.0428,0.0429,0,20,20,28,1,threeone,,,,,,,,,,,,,,,,,,,,,,,,,,,,,,,,,,,,,,,,,,,,,,,,,,,,,,,,,,,,,,,,,,,,,,,,,,,,,,,,,,,,,,,,,,,,,,,,,,,,,,,,,,,,,,,,,,,,,,,,,,,,,,,,,,,,,,,,,
,,5f5b232433097f234bc64508,2024-02-21_20h25.13.463,kallum_motion_pilot,2023.2.2,Win32,59.88023952,5f5b232433097f234bc64508,65d6bb0e977760de756971f7,65d6be57a834b53c8a8f2879,0.0431,0.0431,0,21,21,153,1,fiveseven,,,,,,,,,,,,,,,,,,,,,,,,,,,,,,,,,,,,,,,,,,,,,,,,,,,,,,,,,,,,,,,,,,,,,,,,,,,,,,,,,,,,,,,,,,,,,,,,,,,,,,,,,,,,,,,,,,,,,,,,,,,,,,,,,,,,,,,,,
,,5f5b232433097f234bc64508,2024-02-21_20h25.13.463,kallum_motion_pilot,2023.2.2,Win32,59.88023952,5f5b232433097f234bc64508,65d6bb0e977760de756971f7,65d6be57a834b53c8a8f2879,0.0432,0.0432,0,22,22,26,1,twoone,,,,,,,,,,,,,,,,,,,,,,,,,,,,,,,,,,,,,,,,,,,,,,,,,,,,,,,,,,,,,,,,,,,,,,,,,,,,,,,,,,,,,,,,,,,,,,,,,,,,,,,,,,,,,,,,,,,,,,,,,,,,,,,,,,,,,,,,,
,,5f5b232433097f234bc64508,2024-02-21_20h25.13.463,kallum_motion_pilot,2023.2.2,Win32,59.88023952,5f5b232433097f234bc64508,65d6bb0e977760de756971f7,65d6be57a834b53c8a8f2879,0.0434,0.0434,0,23,23,19,1,twofour,,,,,,,,,,,,,,,,,,,,,,,,,,,,,,,,,,,,,,,,,,,,,,,,,,,,,,,,,,,,,,,,,,,,,,,,,,,,,,,,,,,,,,,,,,,,,,,,,,,,,,,,,,,,,,,,,,,,,,,,,,,,,,,,,,,,,,,,,
,,5f5b232433097f234bc64508,2024-02-21_20h25.13.463,kallum_motion_pilot,2023.2.2,Win32,59.88023952,5f5b232433097f234bc64508,65d6bb0e977760de756971f7,65d6be57a834b53c8a8f2879,0.0436,0.0437,0,24,24,126,1,eightsix,,,,,,,,,,,,,,,,,,,,,,,,,,,,,,,,,,,,,,,,,,,,,,,,,,,,,,,,,,,,,,,,,,,,,,,,,,,,,,,,,,,,,,,,,,,,,,,,,,,,,,,,,,,,,,,,,,,,,,,,,,,,,,,,,,,,,,,,,
,,5f5b232433097f234bc64508,2024-02-21_20h25.13.463,kallum_motion_pilot,2023.2.2,Win32,59.88023952,5f5b232433097f234bc64508,65d6bb0e977760de756971f7,65d6be57a834b53c8a8f2879,0.0439,0.0439,0,25,25,64,1,onetwo,,,,,,,,,,,,,,,,,,,,,,,,,,,,,,,,,,,,,,,,,,,,,,,,,,,,,,,,,,,,,,,,,,,,,,,,,,,,,,,,,,,,,,,,,,,,,,,,,,,,,,,,,,,,,,,,,,,,,,,,,,,,,,,,,,,,,,,,,
,,5f5b232433097f234bc64508,2024-02-21_20h25.13.463,kallum_motion_pilot,2023.2.2,Win32,59.88023952,5f5b232433097f234bc64508,65d6bb0e977760de756971f7,65d6be57a834b53c8a8f2879,0.0441,0.0441,0,26,26,83,1,sixeight,,,,,,,,,,,,,,,,,,,,,,,,,,,,,,,,,,,,,,,,,,,,,,,,,,,,,,,,,,,,,,,,,,,,,,,,,,,,,,,,,,,,,,,,,,,,,,,,,,,,,,,,,,,,,,,,,,,,,,,,,,,,,,,,,,,,,,,,,
,,5f5b232433097f234bc64508,2024-02-21_20h25.13.463,kallum_motion_pilot,2023.2.2,Win32,59.88023952,5f5b232433097f234bc64508,65d6bb0e977760de756971f7,65d6be57a834b53c8a8f2879,0.0444,0.0444,0,27,27,37,1,threefour,,,,,,,,,,,,,,,,,,,,,,,,,,,,,,,,,,,,,,,,,,,,,,,,,,,,,,,,,,,,,,,,,,,,,,,,,,,,,,,,,,,,,,,,,,,,,,,,,,,,,,,,,,,,,,,,,,,,,,,,,,,,,,,,,,,,,,,,,
,,5f5b232433097f234bc64508,2024-02-21_20h25.13.463,kallum_motion_pilot,2023.2.2,Win32,59.88023952,5f5b232433097f234bc64508,65d6bb0e977760de756971f7,65d6be57a834b53c8a8f2879,0.0445,0.0446,0,28,28,10,1,twoone,,,,,,,,,,,,,,,,,,,,,,,,,,,,,,,,,,,,,,,,,,,,,,,,,,,,,,,,,,,,,,,,,,,,,,,,,,,,,,,,,,,,,,,,,,,,,,,,,,,,,,,,,,,,,,,,,,,,,,,,,,,,,,,,,,,,,,,,,
,,5f5b232433097f234bc64508,2024-02-21_20h25.13.463,kallum_motion_pilot,2023.2.2,Win32,59.88023952,5f5b232433097f234bc64508,65d6bb0e977760de756971f7,65d6be57a834b53c8a8f2879,0.0447,0.0449,0,29,29,158,1,eightsix,,,,,,,,,,,,,,,,,,,,,,,,,,,,,,,,,,,,,,,,,,,,,,,,,,,,,,,,,,,,,,,,,,,,,,,,,,,,,,,,,,,,,,,,,,,,,,,,,,,,,,,,,,,,,,,,,,,,,,,,,,,,,,,,,,,,,,,,,
,,5f5b232433097f234bc64508,2024-02-21_20h25.13.463,kallum_motion_pilot,2023.2.2,Win32,59.88023952,5f5b232433097f234bc64508,65d6bb0e977760de756971f7,65d6be57a834b53c8a8f2879,0.0451,0.0452,0,30,30,97,1,fiveseven,,,,,,,,,,,,,,,,,,,,,,,,,,,,,,,,,,,,,,,,,,,,,,,,,,,,,,,,,,,,,,,,,,,,,,,,,,,,,,,,,,,,,,,,,,,,,,,,,,,,,,,,,,,,,,,,,,,,,,,,,,,,,,,,,,,,,,,,,
,,5f5b232433097f234bc64508,2024-02-21_20h25.13.463,kallum_motion_pilot,2023.2.2,Win32,59.88023952,5f5b232433097f234bc64508,65d6bb0e977760de756971f7,65d6be57a834b53c8a8f2879,0.0453,0.0454,0,31,31,68,1,threeone,,,,,,,,,,,,,,,,,,,,,,,,,,,,,,,,,,,,,,,,,,,,,,,,,,,,,,,,,,,,,,,,,,,,,,,,,,,,,,,,,,,,,,,,,,,,,,,,,,,,,,,,,,,,,,,,,,,,,,,,,,,,,,,,,,,,,,,,,
,,5f5b232433097f234bc64508,2024-02-21_20h25.13.463,kallum_motion_pilot,2023.2.2,Win32,59.88023952,5f5b232433097f234bc64508,65d6bb0e977760de756971f7,65d6be57a834b53c8a8f2879,0.0456,0.0456,0,32,32,154,1,sixfive,,,,,,,,,,,,,,,,,,,,,,,,,,,,,,,,,,,,,,,,,,,,,,,,,,,,,,,,,,,,,,,,,,,,,,,,,,,,,,,,,,,,,,,,,,,,,,,,,,,,,,,,,,,,,,,,,,,,,,,,,,,,,,,,,,,,,,,,,
,,5f5b232433097f234bc64508,2024-02-21_20h25.13.463,kallum_motion_pilot,2023.2.2,Win32,59.88023952,5f5b232433097f234bc64508,65d6bb0e977760de756971f7,65d6be57a834b53c8a8f2879,0.0459,0.0459,0,33,33,66,1,twoone,,,,,,,,,,,,,,,,,,,,,,,,,,,,,,,,,,,,,,,,,,,,,,,,,,,,,,,,,,,,,,,,,,,,,,,,,,,,,,,,,,,,,,,,,,,,,,,,,,,,,,,,,,,,,,,,,,,,,,,,,,,,,,,,,,,,,,,,,
,,5f5b232433097f234bc64508,2024-02-21_20h25.13.463,kallum_motion_pilot,2023.2.2,Win32,59.88023952,5f5b232433097f234bc64508,65d6bb0e977760de756971f7,65d6be57a834b53c8a8f2879,0.0461,0.0461,0,34,34,85,1,seveneight,,,,,,,,,,,,,,,,,,,,,,,,,,,,,,,,,,,,,,,,,,,,,,,,,,,,,,,,,,,,,,,,,,,,,,,,,,,,,,,,,,,,,,,,,,,,,,,,,,,,,,,,,,,,,,,,,,,,,,,,,,,,,,,,,,,,,,,,,
,,5f5b232433097f234bc64508,2024-02-21_20h25.13.463,kallum_motion_pilot,2023.2.2,Win32,59.88023952,5f5b232433097f234bc64508,65d6bb0e977760de756971f7,65d6be57a834b53c8a8f2879,0.0462,0.0463,0,35,35,12,1,threeone,,,,,,,,,,,,,,,,,,,,,,,,,,,,,,,,,,,,,,,,,,,,,,,,,,,,,,,,,,,,,,,,,,,,,,,,,,,,,,,,,,,,,,,,,,,,,,,,,,,,,,,,,,,,,,,,,,,,,,,,,,,,,,,,,,,,,,,,,
,,5f5b232433097f234bc64508,2024-02-21_20h25.13.463,kallum_motion_pilot,2023.2.2,Win32,59.88023952,5f5b232433097f234bc64508,65d6bb0e977760de756971f7,65d6be57a834b53c8a8f2879,0.0465,0.0465,0,36,36,27,1,twofour,,,,,,,,,,,,,,,,,,,,,,,,,,,,,,,,,,,,,,,,,,,,,,,,,,,,,,,,,,,,,,,,,,,,,,,,,,,,,,,,,,,,,,,,,,,,,,,,,,,,,,,,,,,,,,,,,,,,,,,,,,,,,,,,,,,,,,,,,
,,5f5b232433097f234bc64508,2024-02-21_20h25.13.463,kallum_motion_pilot,2023.2.2,Win32,59.88023952,5f5b232433097f234bc64508,65d6bb0e977760de756971f7,65d6be57a834b53c8a8f2879,0.0467,0.0468,0,37,37,4,1,threeone,,,,,,,,,,,,,,,,,,,,,,,,,,,,,,,,,,,,,,,,,,,,,,,,,,,,,,,,,,,,,,,,,,,,,,,,,,,,,,,,,,,,,,,,,,,,,,,,,,,,,,,,,,,,,,,,,,,,,,,,,,,,,,,,,,,,,,,,,
,,5f5b232433097f234bc64508,2024-02-21_20h25.13.463,kallum_motion_pilot,2023.2.2,Win32,59.88023952,5f5b232433097f234bc64508,65d6bb0e977760de756971f7,65d6be57a834b53c8a8f2879,0.0469,0.0469,0,38,38,88,1,fivesix,,,,,,,,,,,,,,,,,,,,,,,,,,,,,,,,,,,,,,,,,,,,,,,,,,,,,,,,,,,,,,,,,,,,,,,,,,,,,,,,,,,,,,,,,,,,,,,,,,,,,,,,,,,,,,,,,,,,,,,,,,,,,,,,,,,,,,,,,
,,5f5b232433097f234bc64508,2024-02-21_20h25.13.463,kallum_motion_pilot,2023.2.2,Win32,59.88023952,5f5b232433097f234bc64508,65d6bb0e977760de756971f7,65d6be57a834b53c8a8f2879,0.0471,0.0472,0,39,39,144,1,fivesix,,,,,,,,,,,,,,,,,,,,,,,,,,,,,,,,,,,,,,,,,,,,,,,,,,,,,,,,,,,,,,,,,,,,,,,,,,,,,,,,,,,,,,,,,,,,,,,,,,,,,,,,,,,,,,,,,,,,,,,,,,,,,,,,,,,,,,,,,
,,5f5b232433097f234bc64508,2024-02-21_20h25.13.463,kallum_motion_pilot,2023.2.2,Win32,59.88023952,5f5b232433097f234bc64508,65d6bb0e977760de756971f7,65d6be57a834b53c8a8f2879,0.0474,0.0474,0,40,40,89,1,fiveseven,,,,,,,,,,,,,,,,,,,,,,,,,,,,,,,,,,,,,,,,,,,,,,,,,,,,,,,,,,,,,,,,,,,,,,,,,,,,,,,,,,,,,,,,,,,,,,,,,,,,,,,,,,,,,,,,,,,,,,,,,,,,,,,,,,,,,,,,,
,,5f5b232433097f234bc64508,2024-02-21_20h25.13.463,kallum_motion_pilot,2023.2.2,Win32,59.88023952,5f5b232433097f234bc64508,65d6bb0e977760de756971f7,65d6be57a834b53c8a8f2879,0.0475,0.0476,0,41,41,46,1,fourtwo,,,,,,,,,,,,,,,,,,,,,,,,,,,,,,,,,,,,,,,,,,,,,,,,,,,,,,,,,,,,,,,,,,,,,,,,,,,,,,,,,,,,,,,,,,,,,,,,,,,,,,,,,,,,,,,,,,,,,,,,,,,,,,,,,,,,,,,,,
,,5f5b232433097f234bc64508,2024-02-21_20h25.13.463,kallum_motion_pilot,2023.2.2,Win32,59.88023952,5f5b232433097f234bc64508,65d6bb0e977760de756971f7,65d6be57a834b53c8a8f2879,0.0477,0.0478,0,42,42,107,1,sixeight,,,,,,,,,,,,,,,,,,,,,,,,,,,,,,,,,,,,,,,,,,,,,,,,,,,,,,,,,,,,,,,,,,,,,,,,,,,,,,,,,,,,,,,,,,,,,,,,,,,,,,,,,,,,,,,,,,,,,,,,,,,,,,,,,,,,,,,,,
,,5f5b232433097f234bc64508,2024-02-21_20h25.13.463,kallum_motion_pilot,2023.2.2,Win32,59.88023952,5f5b232433097f234bc64508,65d6bb0e977760de756971f7,65d6be57a834b53c8a8f2879,0.048,0.048,0,43,43,116,1,sevenfive,,,,,,,,,,,,,,,,,,,,,,,,,,,,,,,,,,,,,,,,,,,,,,,,,,,,,,,,,,,,,,,,,,,,,,,,,,,,,,,,,,,,,,,,,,,,,,,,,,,,,,,,,,,,,,,,,,,,,,,,,,,,,,,,,,,,,,,,,
,,5f5b232433097f234bc64508,2024-02-21_20h25.13.463,kallum_motion_pilot,2023.2.2,Win32,59.88023952,5f5b232433097f234bc64508,65d6bb0e977760de756971f7,65d6be57a834b53c8a8f2879,0.0482,0.0482,0,44,44,101,1,seveneight,,,,,,,,,,,,,,,,,,,,,,,,,,,,,,,,,,,,,,,,,,,,,,,,,,,,,,,,,,,,,,,,,,,,,,,,,,,,,,,,,,,,,,,,,,,,,,,,,,,,,,,,,,,,,,,,,,,,,,,,,,,,,,,,,,,,,,,,,
,,5f5b232433097f234bc64508,2024-02-21_20h25.13.463,kallum_motion_pilot,2023.2.2,Win32,59.88023952,5f5b232433097f234bc64508,65d6bb0e977760de756971f7,65d6be57a834b53c8a8f2879,0.0484,0.0485,0,45,45,111,1,eightseven,,,,,,,,,,,,,,,,,,,,,,,,,,,,,,,,,,,,,,,,,,,,,,,,,,,,,,,,,,,,,,,,,,,,,,,,,,,,,,,,,,,,,,,,,,,,,,,,,,,,,,,,,,,,,,,,,,,,,,,,,,,,,,,,,,,,,,,,,
,,5f5b232433097f234bc64508,2024-02-21_20h25.13.463,kallum_motion_pilot,2023.2.2,Win32,59.88023952,5f5b232433097f234bc64508,65d6bb0e977760de756971f7,65d6be57a834b53c8a8f2879,0.0485,0.0487,0,46,46,131,1,sixeight,,,,,,,,,,,,,,,,,,,,,,,,,,,,,,,,,,,,,,,,,,,,,,,,,,,,,,,,,,,,,,,,,,,,,,,,,,,,,,,,,,,,,,,,,,,,,,,,,,,,,,,,,,,,,,,,,,,,,,,,,,,,,,,,,,,,,,,,,
,,5f5b232433097f234bc64508,2024-02-21_20h25.13.463,kallum_motion_pilot,2023.2.2,Win32,59.88023952,5f5b232433097f234bc64508,65d6bb0e977760de756971f7,65d6be57a834b53c8a8f2879,0.0488,0.0489,0,47,47,149,1,seveneight,,,,,,,,,,,,,,,,,,,,,,,,,,,,,,,,,,,,,,,,,,,,,,,,,,,,,,,,,,,,,,,,,,,,,,,,,,,,,,,,,,,,,,,,,,,,,,,,,,,,,,,,,,,,,,,,,,,,,,,,,,,,,,,,,,,,,,,,,
,,5f5b232433097f234bc64508,2024-02-21_20h25.13.463,kallum_motion_pilot,2023.2.2,Win32,59.88023952,5f5b232433097f234bc64508,65d6bb0e977760de756971f7,65d6be57a834b53c8a8f2879,0.049,0.049,0,48,48,65,1,onethree,,,,,,,,,,,,,,,,,,,,,,,,,,,,,,,,,,,,,,,,,,,,,,,,,,,,,,,,,,,,,,,,,,,,,,,,,,,,,,,,,,,,,,,,,,,,,,,,,,,,,,,,,,,,,,,,,,,,,,,,,,,,,,,,,,,,,,,,,
,,5f5b232433097f234bc64508,2024-02-21_20h25.13.463,kallum_motion_pilot,2023.2.2,Win32,59.88023952,5f5b232433097f234bc64508,65d6bb0e977760de756971f7,65d6be57a834b53c8a8f2879,0.0493,0.0493,0,49,49,71,1,fourthree,,,,,,,,,,,,,,,,,,,,,,,,,,,,,,,,,,,,,,,,,,,,,,,,,,,,,,,,,,,,,,,,,,,,,,,,,,,,,,,,,,,,,,,,,,,,,,,,,,,,,,,,,,,,,,,,,,,,,,,,,,,,,,,,,,,,,,,,,
,,5f5b232433097f234bc64508,2024-02-21_20h25.13.463,kallum_motion_pilot,2023.2.2,Win32,59.88023952,5f5b232433097f234bc64508,65d6bb0e977760de756971f7,65d6be57a834b53c8a8f2879,0.0495,0.0495,0,50,50,129,1,fiveseven,,,,,,,,,,,,,,,,,,,,,,,,,,,,,,,,,,,,,,,,,,,,,,,,,,,,,,,,,,,,,,,,,,,,,,,,,,,,,,,,,,,,,,,,,,,,,,,,,,,,,,,,,,,,,,,,,,,,,,,,,,,,,,,,,,,,,,,,,
,,5f5b232433097f234bc64508,2024-02-21_20h25.13.463,kallum_motion_pilot,2023.2.2,Win32,59.88023952,5f5b232433097f234bc64508,65d6bb0e977760de756971f7,65d6be57a834b53c8a8f2879,0.0497,0.0497,0,51,51,5,1,threefour,,,,,,,,,,,,,,,,,,,,,,,,,,,,,,,,,,,,,,,,,,,,,,,,,,,,,,,,,,,,,,,,,,,,,,,,,,,,,,,,,,,,,,,,,,,,,,,,,,,,,,,,,,,,,,,,,,,,,,,,,,,,,,,,,,,,,,,,,
,,5f5b232433097f234bc64508,2024-02-21_20h25.13.463,kallum_motion_pilot,2023.2.2,Win32,59.88023952,5f5b232433097f234bc64508,65d6bb0e977760de756971f7,65d6be57a834b53c8a8f2879,0.0498,0.0498,0,52,52,81,1,fiveseven,,,,,,,,,,,,,,,,,,,,,,,,,,,,,,,,,,,,,,,,,,,,,,,,,,,,,,,,,,,,,,,,,,,,,,,,,,,,,,,,,,,,,,,,,,,,,,,,,,,,,,,,,,,,,,,,,,,,,,,,,,,,,,,,,,,,,,,,,
,,5f5b232433097f234bc64508,2024-02-21_20h25.13.463,kallum_motion_pilot,2023.2.2,Win32,59.88023952,5f5b232433097f234bc64508,65d6bb0e977760de756971f7,65d6be57a834b53c8a8f2879,0.05,0.05,0,53,53,78,1,fourtwo,,,,,,,,,,,,,,,,,,,,,,,,,,,,,,,,,,,,,,,,,,,,,,,,,,,,,,,,,,,,,,,,,,,,,,,,,,,,,,,,,,,,,,,,,,,,,,,,,,,,,,,,,,,,,,,,,,,,,,,,,,,,,,,,,,,,,,,,,
,,5f5b232433097f234bc64508,2024-02-21_20h25.13.463,kallum_motion_pilot,2023.2.2,Win32,59.88023952,5f5b232433097f234bc64508,65d6bb0e977760de756971f7,65d6be57a834b53c8a8f2879,0.0501,0.0502,0,54,54,35,1,twofour,,,,,,,,,,,,,,,,,,,,,,,,,,,,,,,,,,,,,,,,,,,,,,,,,,,,,,,,,,,,,,,,,,,,,,,,,,,,,,,,,,,,,,,,,,,,,,,,,,,,,,,,,,,,,,,,,,,,,,,,,,,,,,,,,,,,,,,,,
,,5f5b232433097f234bc64508,2024-02-21_20h25.13.463,kallum_motion_pilot,2023.2.2,Win32,59.88023952,5f5b232433097f234bc64508,65d6bb0e977760de756971f7,65d6be57a834b53c8a8f2879,0.0511,0.0511,0,55,55,104,1,fivesix,,,,,,,,,,,,,,,,,,,,,,,,,,,,,,,,,,,,,,,,,,,,,,,,,,,,,,,,,,,,,,,,,,,,,,,,,,,,,,,,,,,,,,,,,,,,,,,,,,,,,,,,,,,,,,,,,,,,,,,,,,,,,,,,,,,,,,,,,
,,5f5b232433097f234bc64508,2024-02-21_20h25.13.463,kallum_motion_pilot,2023.2.2,Win32,59.88023952,5f5b232433097f234bc64508,65d6bb0e977760de756971f7,65d6be57a834b53c8a8f2879,0.0513,0.0513,0,56,56,67,1,twofour,,,,,,,,,,,,,,,,,,,,,,,,,,,,,,,,,,,,,,,,,,,,,,,,,,,,,,,,,,,,,,,,,,,,,,,,,,,,,,,,,,,,,,,,,,,,,,,,,,,,,,,,,,,,,,,,,,,,,,,,,,,,,,,,,,,,,,,,,
,,5f5b232433097f234bc64508,2024-02-21_20h25.13.463,kallum_motion_pilot,2023.2.2,Win32,59.88023952,5f5b232433097f234bc64508,65d6bb0e977760de756971f7,65d6be57a834b53c8a8f2879,0.0515,0.0515,0,57,57,1,1,onethree,,,,,,,,,,,,,,,,,,,,,,,,,,,,,,,,,,,,,,,,,,,,,,,,,,,,,,,,,,,,,,,,,,,,,,,,,,,,,,,,,,,,,,,,,,,,,,,,,,,,,,,,,,,,,,,,,,,,,,,,,,,,,,,,,,,,,,,,,
,,5f5b232433097f234bc64508,2024-02-21_20h25.13.463,kallum_motion_pilot,2023.2.2,Win32,59.88023952,5f5b232433097f234bc64508,65d6bb0e977760de756971f7,65d6be57a834b53c8a8f2879,0.0516,0.0516,0,58,58,6,1,fourtwo,,,,,,,,,,,,,,,,,,,,,,,,,,,,,,,,,,,,,,,,,,,,,,,,,,,,,,,,,,,,,,,,,,,,,,,,,,,,,,,,,,,,,,,,,,,,,,,,,,,,,,,,,,,,,,,,,,,,,,,,,,,,,,,,,,,,,,,,,
,,5f5b232433097f234bc64508,2024-02-21_20h25.13.463,kallum_motion_pilot,2023.2.2,Win32,59.88023952,5f5b232433097f234bc64508,65d6bb0e977760de756971f7,65d6be57a834b53c8a8f2879,0.0517,0.0518,0,59,59,140,1,sevenfive,,,,,,,,,,,,,,,,,,,,,,,,,,,,,,,,,,,,,,,,,,,,,,,,,,,,,,,,,,,,,,,,,,,,,,,,,,,,,,,,,,,,,,,,,,,,,,,,,,,,,,,,,,,,,,,,,,,,,,,,,,,,,,,,,,,,,,,,,
,,5f5b232433097f234bc64508,2024-02-21_20h25.13.463,kallum_motion_pilot,2023.2.2,Win32,59.88023952,5f5b232433097f234bc64508,65d6bb0e977760de756971f7,65d6be57a834b53c8a8f2879,0.0519,0.052,0,60,60,48,1,onetwo,,,,,,,,,,,,,,,,,,,,,,,,,,,,,,,,,,,,,,,,,,,,,,,,,,,,,,,,,,,,,,,,,,,,,,,,,,,,,,,,,,,,,,,,,,,,,,,,,,,,,,,,,,,,,,,,,,,,,,,,,,,,,,,,,,,,,,,,,
,,5f5b232433097f234bc64508,2024-02-21_20h25.13.463,kallum_motion_pilot,2023.2.2,Win32,59.88023952,5f5b232433097f234bc64508,65d6bb0e977760de756971f7,65d6be57a834b53c8a8f2879,0.0522,0.0522,0,61,61,3,1,twofour,,,,,,,,,,,,,,,,,,,,,,,,,,,,,,,,,,,,,,,,,,,,,,,,,,,,,,,,,,,,,,,,,,,,,,,,,,,,,,,,,,,,,,,,,,,,,,,,,,,,,,,,,,,,,,,,,,,,,,,,,,,,,,,,,,,,,,,,,
,,5f5b232433097f234bc64508,2024-02-21_20h25.13.463,kallum_motion_pilot,2023.2.2,Win32,59.88023952,5f5b232433097f234bc64508,65d6bb0e977760de756971f7,65d6be57a834b53c8a8f2879,0.0524,0.0524,0,62,62,0,1,onetwo,,,,,,,,,,,,,,,,,,,,,,,,,,,,,,,,,,,,,,,,,,,,,,,,,,,,,,,,,,,,,,,,,,,,,,,,,,,,,,,,,,,,,,,,,,,,,,,,,,,,,,,,,,,,,,,,,,,,,,,,,,,,,,,,,,,,,,,,,
,,5f5b232433097f234bc64508,2024-02-21_20h25.13.463,kallum_motion_pilot,2023.2.2,Win32,59.88023952,5f5b232433097f234bc64508,65d6bb0e977760de756971f7,65d6be57a834b53c8a8f2879,0.0526,0.0527,0,63,63,41,1,onethree,,,,,,,,,,,,,,,,,,,,,,,,,,,,,,,,,,,,,,,,,,,,,,,,,,,,,,,,,,,,,,,,,,,,,,,,,,,,,,,,,,,,,,,,,,,,,,,,,,,,,,,,,,,,,,,,,,,,,,,,,,,,,,,,,,,,,,,,,
,,5f5b232433097f234bc64508,2024-02-21_20h25.13.463,kallum_motion_pilot,2023.2.2,Win32,59.88023952,5f5b232433097f234bc64508,65d6bb0e977760de756971f7,65d6be57a834b53c8a8f2879,0.0528,0.0529,0,64,64,84,1,sevenfive,,,,,,,,,,,,,,,,,,,,,,,,,,,,,,,,,,,,,,,,,,,,,,,,,,,,,,,,,,,,,,,,,,,,,,,,,,,,,,,,,,,,,,,,,,,,,,,,,,,,,,,,,,,,,,,,,,,,,,,,,,,,,,,,,,,,,,,,,
,,5f5b232433097f234bc64508,2024-02-21_20h25.13.463,kallum_motion_pilot,2023.2.2,Win32,59.88023952,5f5b232433097f234bc64508,65d6bb0e977760de756971f7,65d6be57a834b53c8a8f2879,0.0531,0.0532,0,65,65,155,1,sixeight,,,,,,,,,,,,,,,,,,,,,,,,,,,,,,,,,,,,,,,,,,,,,,,,,,,,,,,,,,,,,,,,,,,,,,,,,,,,,,,,,,,,,,,,,,,,,,,,,,,,,,,,,,,,,,,,,,,,,,,,,,,,,,,,,,,,,,,,,
,,5f5b232433097f234bc64508,2024-02-21_20h25.13.463,kallum_motion_pilot,2023.2.2,Win32,59.88023952,5f5b232433097f234bc64508,65d6bb0e977760de756971f7,65d6be57a834b53c8a8f2879,0.0533,0.0533,0,66,66,82,1,sixfive,,,,,,,,,,,,,,,,,,,,,,,,,,,,,,,,,,,,,,,,,,,,,,,,,,,,,,,,,,,,,,,,,,,,,,,,,,,,,,,,,,,,,,,,,,,,,,,,,,,,,,,,,,,,,,,,,,,,,,,,,,,,,,,,,,,,,,,,,
,,5f5b232433097f234bc64508,2024-02-21_20h25.13.463,kallum_motion_pilot,2023.2.2,Win32,59.88023952,5f5b232433097f234bc64508,65d6bb0e977760de756971f7,65d6be57a834b53c8a8f2879,0.0534,0.0535,0,67,67,130,1,sixfive,,,,,,,,,,,,,,,,,,,,,,,,,,,,,,,,,,,,,,,,,,,,,,,,,,,,,,,,,,,,,,,,,,,,,,,,,,,,,,,,,,,,,,,,,,,,,,,,,,,,,,,,,,,,,,,,,,,,,,,,,,,,,,,,,,,,,,,,,
,,5f5b232433097f234bc64508,2024-02-21_20h25.13.463,kallum_motion_pilot,2023.2.2,Win32,59.88023952,5f5b232433097f234bc64508,65d6bb0e977760de756971f7,65d6be57a834b53c8a8f2879,0.0536,0.0536,0,68,68,125,1,seveneight,,,,,,,,,,,,,,,,,,,,,,,,,,,,,,,,,,,,,,,,,,,,,,,,,,,,,,,,,,,,,,,,,,,,,,,,,,,,,,,,,,,,,,,,,,,,,,,,,,,,,,,,,,,,,,,,,,,,,,,,,,,,,,,,,,,,,,,,,
,,5f5b232433097f234bc64508,2024-02-21_20h25.13.463,kallum_motion_pilot,2023.2.2,Win32,59.88023952,5f5b232433097f234bc64508,65d6bb0e977760de756971f7,65d6be57a834b53c8a8f2879,0.0538,0.0539,0,69,69,11,1,twofour,,,,,,,,,,,,,,,,,,,,,,,,,,,,,,,,,,,,,,,,,,,,,,,,,,,,,,,,,,,,,,,,,,,,,,,,,,,,,,,,,,,,,,,,,,,,,,,,,,,,,,,,,,,,,,,,,,,,,,,,,,,,,,,,,,,,,,,,,
,,5f5b232433097f234bc64508,2024-02-21_20h25.13.463,kallum_motion_pilot,2023.2.2,Win32,59.88023952,5f5b232433097f234bc64508,65d6bb0e977760de756971f7,65d6be57a834b53c8a8f2879,0.0543,0.0545,0,70,70,53,1,threefour,,,,,,,,,,,,,,,,,,,,,,,,,,,,,,,,,,,,,,,,,,,,,,,,,,,,,,,,,,,,,,,,,,,,,,,,,,,,,,,,,,,,,,,,,,,,,,,,,,,,,,,,,,,,,,,,,,,,,,,,,,,,,,,,,,,,,,,,,
,,5f5b232433097f234bc64508,2024-02-21_20h25.13.463,kallum_motion_pilot,2023.2.2,Win32,59.88023952,5f5b232433097f234bc64508,65d6bb0e977760de756971f7,65d6be57a834b53c8a8f2879,0.0548,0.055,0,71,71,145,1,fiveseven,,,,,,,,,,,,,,,,,,,,,,,,,,,,,,,,,,,,,,,,,,,,,,,,,,,,,,,,,,,,,,,,,,,,,,,,,,,,,,,,,,,,,,,,,,,,,,,,,,,,,,,,,,,,,,,,,,,,,,,,,,,,,,,,,,,,,,,,,
,,5f5b232433097f234bc64508,2024-02-21_20h25.13.463,kallum_motion_pilot,2023.2.2,Win32,59.88023952,5f5b232433097f234bc64508,65d6bb0e977760de756971f7,65d6be57a834b53c8a8f2879,0.0551,0.0552,0,72,72,123,1,sixeight,,,,,,,,,,,,,,,,,,,,,,,,,,,,,,,,,,,,,,,,,,,,,,,,,,,,,,,,,,,,,,,,,,,,,,,,,,,,,,,,,,,,,,,,,,,,,,,,,,,,,,,,,,,,,,,,,,,,,,,,,,,,,,,,,,,,,,,,,
,,5f5b232433097f234bc64508,2024-02-21_20h25.13.463,kallum_motion_pilot,2023.2.2,Win32,59.88023952,5f5b232433097f234bc64508,65d6bb0e977760de756971f7,65d6be57a834b53c8a8f2879,0.0554,0.0555,0,73,73,38,1,fourtwo,,,,,,,,,,,,,,,,,,,,,,,,,,,,,,,,,,,,,,,,,,,,,,,,,,,,,,,,,,,,,,,,,,,,,,,,,,,,,,,,,,,,,,,,,,,,,,,,,,,,,,,,,,,,,,,,,,,,,,,,,,,,,,,,,,,,,,,,,
,,5f5b232433097f234bc64508,2024-02-21_20h25.13.463,kallum_motion_pilot,2023.2.2,Win32,59.88023952,5f5b232433097f234bc64508,65d6bb0e977760de756971f7,65d6be57a834b53c8a8f2879,0.0556,0.0557,0,74,74,105,1,fiveseven,,,,,,,,,,,,,,,,,,,,,,,,,,,,,,,,,,,,,,,,,,,,,,,,,,,,,,,,,,,,,,,,,,,,,,,,,,,,,,,,,,,,,,,,,,,,,,,,,,,,,,,,,,,,,,,,,,,,,,,,,,,,,,,,,,,,,,,,,
,,5f5b232433097f234bc64508,2024-02-21_20h25.13.463,kallum_motion_pilot,2023.2.2,Win32,59.88023952,5f5b232433097f234bc64508,65d6bb0e977760de756971f7,65d6be57a834b53c8a8f2879,0.0558,0.0558,0,75,75,117,1,seveneight,,,,,,,,,,,,,,,,,,,,,,,,,,,,,,,,,,,,,,,,,,,,,,,,,,,,,,,,,,,,,,,,,,,,,,,,,,,,,,,,,,,,,,,,,,,,,,,,,,,,,,,,,,,,,,,,,,,,,,,,,,,,,,,,,,,,,,,,,
,,5f5b232433097f234bc64508,2024-02-21_20h25.13.463,kallum_motion_pilot,2023.2.2,Win32,59.88023952,5f5b232433097f234bc64508,65d6bb0e977760de756971f7,65d6be57a834b53c8a8f2879,0.0559,0.056,0,76,76,102,1,eightsix,,,,,,,,,,,,,,,,,,,,,,,,,,,,,,,,,,,,,,,,,,,,,,,,,,,,,,,,,,,,,,,,,,,,,,,,,,,,,,,,,,,,,,,,,,,,,,,,,,,,,,,,,,,,,,,,,,,,,,,,,,,,,,,,,,,,,,,,,
,,5f5b232433097f234bc64508,2024-02-21_20h25.13.463,kallum_motion_pilot,2023.2.2,Win32,59.88023952,5f5b232433097f234bc64508,65d6bb0e977760de756971f7,65d6be57a834b53c8a8f2879,0.0561,0.0562,0,77,77,143,1,eightseven,,,,,,,,,,,,,,,,,,,,,,,,,,,,,,,,,,,,,,,,,,,,,,,,,,,,,,,,,,,,,,,,,,,,,,,,,,,,,,,,,,,,,,,,,,,,,,,,,,,,,,,,,,,,,,,,,,,,,,,,,,,,,,,,,,,,,,,,,
,,5f5b232433097f234bc64508,2024-02-21_20h25.13.463,kallum_motion_pilot,2023.2.2,Win32,59.88023952,5f5b232433097f234bc64508,65d6bb0e977760de756971f7,65d6be57a834b53c8a8f2879,0.0563,0.0564,0,78,78,32,1,onetwo,,,,,,,,,,,,,,,,,,,,,,,,,,,,,,,,,,,,,,,,,,,,,,,,,,,,,,,,,,,,,,,,,,,,,,,,,,,,,,,,,,,,,,,,,,,,,,,,,,,,,,,,,,,,,,,,,,,,,,,,,,,,,,,,,,,,,,,,,
,,5f5b232433097f234bc64508,2024-02-21_20h25.13.463,kallum_motion_pilot,2023.2.2,Win32,59.88023952,5f5b232433097f234bc64508,65d6bb0e977760de756971f7,65d6be57a834b53c8a8f2879,0.0565,0.0566,0,79,79,118,1,eightsix,,,,,,,,,,,,,,,,,,,,,,,,,,,,,,,,,,,,,,,,,,,,,,,,,,,,,,,,,,,,,,,,,,,,,,,,,,,,,,,,,,,,,,,,,,,,,,,,,,,,,,,,,,,,,,,,,,,,,,,,,,,,,,,,,,,,,,,,,
,,5f5b232433097f234bc64508,2024-02-21_20h25.13.463,kallum_motion_pilot,2023.2.2,Win32,59.88023952,5f5b232433097f234bc64508,65d6bb0e977760de756971f7,65d6be57a834b53c8a8f2879,0.0566,0.0567,0,80,80,112,1,fivesix,,,,,,,,,,,,,,,,,,,,,,,,,,,,,,,,,,,,,,,,,,,,,,,,,,,,,,,,,,,,,,,,,,,,,,,,,,,,,,,,,,,,,,,,,,,,,,,,,,,,,,,,,,,,,,,,,,,,,,,,,,,,,,,,,,,,,,,,,
,,5f5b232433097f234bc64508,2024-02-21_20h25.13.463,kallum_motion_pilot,2023.2.2,Win32,59.88023952,5f5b232433097f234bc64508,65d6bb0e977760de756971f7,65d6be57a834b53c8a8f2879,0.0568,0.0569,0,81,81,40,1,onetwo,,,,,,,,,,,,,,,,,,,,,,,,,,,,,,,,,,,,,,,,,,,,,,,,,,,,,,,,,,,,,,,,,,,,,,,,,,,,,,,,,,,,,,,,,,,,,,,,,,,,,,,,,,,,,,,,,,,,,,,,,,,,,,,,,,,,,,,,,
,,5f5b232433097f234bc64508,2024-02-21_20h25.13.463,kallum_motion_pilot,2023.2.2,Win32,59.88023952,5f5b232433097f234bc64508,65d6bb0e977760de756971f7,65d6be57a834b53c8a8f2879,0.057,0.057,0,82,82,98,1,sixfive,,,,,,,,,,,,,,,,,,,,,,,,,,,,,,,,,,,,,,,,,,,,,,,,,,,,,,,,,,,,,,,,,,,,,,,,,,,,,,,,,,,,,,,,,,,,,,,,,,,,,,,,,,,,,,,,,,,,,,,,,,,,,,,,,,,,,,,,,
,,5f5b232433097f234bc64508,2024-02-21_20h25.13.463,kallum_motion_pilot,2023.2.2,Win32,59.88023952,5f5b232433097f234bc64508,65d6bb0e977760de756971f7,65d6be57a834b53c8a8f2879,0.0571,0.0571,0,83,83,141,1,seveneight,,,,,,,,,,,,,,,,,,,,,,,,,,,,,,,,,,,,,,,,,,,,,,,,,,,,,,,,,,,,,,,,,,,,,,,,,,,,,,,,,,,,,,,,,,,,,,,,,,,,,,,,,,,,,,,,,,,,,,,,,,,,,,,,,,,,,,,,,
,,5f5b232433097f234bc64508,2024-02-21_20h25.13.463,kallum_motion_pilot,2023.2.2,Win32,59.88023952,5f5b232433097f234bc64508,65d6bb0e977760de756971f7,65d6be57a834b53c8a8f2879,0.0573,0.0574,0,84,84,25,1,onethree,,,,,,,,,,,,,,,,,,,,,,,,,,,,,,,,,,,,,,,,,,,,,,,,,,,,,,,,,,,,,,,,,,,,,,,,,,,,,,,,,,,,,,,,,,,,,,,,,,,,,,,,,,,,,,,,,,,,,,,,,,,,,,,,,,,,,,,,,
,,5f5b232433097f234bc64508,2024-02-21_20h25.13.463,kallum_motion_pilot,2023.2.2,Win32,59.88023952,5f5b232433097f234bc64508,65d6bb0e977760de756971f7,65d6be57a834b53c8a8f2879,0.0575,0.0575,0,85,85,151,1,eightseven,,,,,,,,,,,,,,,,,,,,,,,,,,,,,,,,,,,,,,,,,,,,,,,,,,,,,,,,,,,,,,,,,,,,,,,,,,,,,,,,,,,,,,,,,,,,,,,,,,,,,,,,,,,,,,,,,,,,,,,,,,,,,,,,,,,,,,,,,
,,5f5b232433097f234bc64508,2024-02-21_20h25.13.463,kallum_motion_pilot,2023.2.2,Win32,59.88023952,5f5b232433097f234bc64508,65d6bb0e977760de756971f7,65d6be57a834b53c8a8f2879,0.0576,0.0577,0,86,86,156,1,sevenfive,,,,,,,,,,,,,,,,,,,,,,,,,,,,,,,,,,,,,,,,,,,,,,,,,,,,,,,,,,,,,,,,,,,,,,,,,,,,,,,,,,,,,,,,,,,,,,,,,,,,,,,,,,,,,,,,,,,,,,,,,,,,,,,,,,,,,,,,,
,,5f5b232433097f234bc64508,2024-02-21_20h25.13.463,kallum_motion_pilot,2023.2.2,Win32,59.88023952,5f5b232433097f234bc64508,65d6bb0e977760de756971f7,65d6be57a834b53c8a8f2879,0.0578,0.0579,0,87,87,87,1,eightseven,,,,,,,,,,,,,,,,,,,,,,,,,,,,,,,,,,,,,,,,,,,,,,,,,,,,,,,,,,,,,,,,,,,,,,,,,,,,,,,,,,,,,,,,,,,,,,,,,,,,,,,,,,,,,,,,,,,,,,,,,,,,,,,,,,,,,,,,,
,,5f5b232433097f234bc64508,2024-02-21_20h25.13.463,kallum_motion_pilot,2023.2.2,Win32,59.88023952,5f5b232433097f234bc64508,65d6bb0e977760de756971f7,65d6be57a834b53c8a8f2879,0.058,0.0581,0,88,88,137,1,fiveseven,,,,,,,,,,,,,,,,,,,,,,,,,,,,,,,,,,,,,,,,,,,,,,,,,,,,,,,,,,,,,,,,,,,,,,,,,,,,,,,,,,,,,,,,,,,,,,,,,,,,,,,,,,,,,,,,,,,,,,,,,,,,,,,,,,,,,,,,,
,,5f5b232433097f234bc64508,2024-02-21_20h25.13.463,kallum_motion_pilot,2023.2.2,Win32,59.88023952,5f5b232433097f234bc64508,65d6bb0e977760de756971f7,65d6be57a834b53c8a8f2879,0.0582,0.0582,0,89,89,23,1,fourthree,,,,,,,,,,,,,,,,,,,,,,,,,,,,,,,,,,,,,,,,,,,,,,,,,,,,,,,,,,,,,,,,,,,,,,,,,,,,,,,,,,,,,,,,,,,,,,,,,,,,,,,,,,,,,,,,,,,,,,,,,,,,,,,,,,,,,,,,,
,,5f5b232433097f234bc64508,2024-02-21_20h25.13.463,kallum_motion_pilot,2023.2.2,Win32,59.88023952,5f5b232433097f234bc64508,65d6bb0e977760de756971f7,65d6be57a834b53c8a8f2879,0.0584,0.0584,0,90,90,60,1,threeone,,,,,,,,,,,,,,,,,,,,,,,,,,,,,,,,,,,,,,,,,,,,,,,,,,,,,,,,,,,,,,,,,,,,,,,,,,,,,,,,,,,,,,,,,,,,,,,,,,,,,,,,,,,,,,,,,,,,,,,,,,,,,,,,,,,,,,,,,
,,5f5b232433097f234bc64508,2024-02-21_20h25.13.463,kallum_motion_pilot,2023.2.2,Win32,59.88023952,5f5b232433097f234bc64508,65d6bb0e977760de756971f7,65d6be57a834b53c8a8f2879,0.0586,0.0586,0,91,91,50,1,twoone,,,,,,,,,,,,,,,,,,,,,,,,,,,,,,,,,,,,,,,,,,,,,,,,,,,,,,,,,,,,,,,,,,,,,,,,,,,,,,,,,,,,,,,,,,,,,,,,,,,,,,,,,,,,,,,,,,,,,,,,,,,,,,,,,,,,,,,,,
,,5f5b232433097f234bc64508,2024-02-21_20h25.13.463,kallum_motion_pilot,2023.2.2,Win32,59.88023952,5f5b232433097f234bc64508,65d6bb0e977760de756971f7,65d6be57a834b53c8a8f2879,0.0587,0.0587,0,92,92,57,1,onethree,,,,,,,,,,,,,,,,,,,,,,,,,,,,,,,,,,,,,,,,,,,,,,,,,,,,,,,,,,,,,,,,,,,,,,,,,,,,,,,,,,,,,,,,,,,,,,,,,,,,,,,,,,,,,,,,,,,,,,,,,,,,,,,,,,,,,,,,,
,,5f5b232433097f234bc64508,2024-02-21_20h25.13.463,kallum_motion_pilot,2023.2.2,Win32,59.88023952,5f5b232433097f234bc64508,65d6bb0e977760de756971f7,65d6be57a834b53c8a8f2879,0.0589,0.0589,0,93,93,33,1,onethree,,,,,,,,,,,,,,,,,,,,,,,,,,,,,,,,,,,,,,,,,,,,,,,,,,,,,,,,,,,,,,,,,,,,,,,,,,,,,,,,,,,,,,,,,,,,,,,,,,,,,,,,,,,,,,,,,,,,,,,,,,,,,,,,,,,,,,,,,
,,5f5b232433097f234bc64508,2024-02-21_20h25.13.463,kallum_motion_pilot,2023.2.2,Win32,59.88023952,5f5b232433097f234bc64508,65d6bb0e977760de756971f7,65d6be57a834b53c8a8f2879,0.059,0.0591,0,94,94,152,1,fivesix,,,,,,,,,,,,,,,,,,,,,,,,,,,,,,,,,,,,,,,,,,,,,,,,,,,,,,,,,,,,,,,,,,,,,,,,,,,,,,,,,,,,,,,,,,,,,,,,,,,,,,,,,,,,,,,,,,,,,,,,,,,,,,,,,,,,,,,,,
,,5f5b232433097f234bc64508,2024-02-21_20h25.13.463,kallum_motion_pilot,2023.2.2,Win32,59.88023952,5f5b232433097f234bc64508,65d6bb0e977760de756971f7,65d6be57a834b53c8a8f2879,0.0592,0.0593,0,95,95,42,1,twoone,,,,,,,,,,,,,,,,,,,,,,,,,,,,,,,,,,,,,,,,,,,,,,,,,,,,,,,,,,,,,,,,,,,,,,,,,,,,,,,,,,,,,,,,,,,,,,,,,,,,,,,,,,,,,,,,,,,,,,,,,,,,,,,,,,,,,,,,,
,,5f5b232433097f234bc64508,2024-02-21_20h25.13.463,kallum_motion_pilot,2023.2.2,Win32,59.88023952,5f5b232433097f234bc64508,65d6bb0e977760de756971f7,65d6be57a834b53c8a8f2879,0.0593,0.0594,0,96,96,86,1,eightsix,,,,,,,,,,,,,,,,,,,,,,,,,,,,,,,,,,,,,,,,,,,,,,,,,,,,,,,,,,,,,,,,,,,,,,,,,,,,,,,,,,,,,,,,,,,,,,,,,,,,,,,,,,,,,,,,,,,,,,,,,,,,,,,,,,,,,,,,,
,,5f5b232433097f234bc64508,2024-02-21_20h25.13.463,kallum_motion_pilot,2023.2.2,Win32,59.88023952,5f5b232433097f234bc64508,65d6bb0e977760de756971f7,65d6be57a834b53c8a8f2879,0.0595,0.0596,0,97,97,134,1,eightsix,,,,,,,,,,,,,,,,,,,,,,,,,,,,,,,,,,,,,,,,,,,,,,,,,,,,,,,,,,,,,,,,,,,,,,,,,,,,,,,,,,,,,,,,,,,,,,,,,,,,,,,,,,,,,,,,,,,,,,,,,,,,,,,,,,,,,,,,,
,,5f5b232433097f234bc64508,2024-02-21_20h25.13.463,kallum_motion_pilot,2023.2.2,Win32,59.88023952,5f5b232433097f234bc64508,65d6bb0e977760de756971f7,65d6be57a834b53c8a8f2879,0.0597,0.0598,0,98,98,56,1,onetwo,,,,,,,,,,,,,,,,,,,,,,,,,,,,,,,,,,,,,,,,,,,,,,,,,,,,,,,,,,,,,,,,,,,,,,,,,,,,,,,,,,,,,,,,,,,,,,,,,,,,,,,,,,,,,,,,,,,,,,,,,,,,,,,,,,,,,,,,,
,,5f5b232433097f234bc64508,2024-02-21_20h25.13.463,kallum_motion_pilot,2023.2.2,Win32,59.88023952,5f5b232433097f234bc64508,65d6bb0e977760de756971f7,65d6be57a834b53c8a8f2879,0.06,0.06,0,99,99,76,1,threeone,,,,,,,,,,,,,,,,,,,,,,,,,,,,,,,,,,,,,,,,,,,,,,,,,,,,,,,,,,,,,,,,,,,,,,,,,,,,,,,,,,,,,,,,,,,,,,,,,,,,,,,,,,,,,,,,,,,,,,,,,,,,,,,,,,,,,,,,,
,,5f5b232433097f234bc64508,2024-02-21_20h25.13.463,kallum_motion_pilot,2023.2.2,Win32,59.88023952,5f5b232433097f234bc64508,65d6bb0e977760de756971f7,65d6be57a834b53c8a8f2879,0.0601,0.0602,0,100,100,147,1,sixeight,,,,,,,,,,,,,,,,,,,,,,,,,,,,,,,,,,,,,,,,,,,,,,,,,,,,,,,,,,,,,,,,,,,,,,,,,,,,,,,,,,,,,,,,,,,,,,,,,,,,,,,,,,,,,,,,,,,,,,,,,,,,,,,,,,,,,,,,,
,,5f5b232433097f234bc64508,2024-02-21_20h25.13.463,kallum_motion_pilot,2023.2.2,Win32,59.88023952,5f5b232433097f234bc64508,65d6bb0e977760de756971f7,65d6be57a834b53c8a8f2879,0.0603,0.0604,0,101,101,22,1,fourtwo,,,,,,,,,,,,,,,,,,,,,,,,,,,,,,,,,,,,,,,,,,,,,,,,,,,,,,,,,,,,,,,,,,,,,,,,,,,,,,,,,,,,,,,,,,,,,,,,,,,,,,,,,,,,,,,,,,,,,,,,,,,,,,,,,,,,,,,,,
,,5f5b232433097f234bc64508,2024-02-21_20h25.13.463,kallum_motion_pilot,2023.2.2,Win32,59.88023952,5f5b232433097f234bc64508,65d6bb0e977760de756971f7,65d6be57a834b53c8a8f2879,0.0605,0.0605,0,102,102,124,1,sevenfive,,,,,,,,,,,,,,,,,,,,,,,,,,,,,,,,,,,,,,,,,,,,,,,,,,,,,,,,,,,,,,,,,,,,,,,,,,,,,,,,,,,,,,,,,,,,,,,,,,,,,,,,,,,,,,,,,,,,,,,,,,,,,,,,,,,,,,,,,
,,5f5b232433097f234bc64508,2024-02-21_20h25.13.463,kallum_motion_pilot,2023.2.2,Win32,59.88023952,5f5b232433097f234bc64508,65d6bb0e977760de756971f7,65d6be57a834b53c8a8f2879,0.0606,0.0607,0,103,103,2,1,twoone,,,,,,,,,,,,,,,,,,,,,,,,,,,,,,,,,,,,,,,,,,,,,,,,,,,,,,,,,,,,,,,,,,,,,,,,,,,,,,,,,,,,,,,,,,,,,,,,,,,,,,,,,,,,,,,,,,,,,,,,,,,,,,,,,,,,,,,,,
,,5f5b232433097f234bc64508,2024-02-21_20h25.13.463,kallum_motion_pilot,2023.2.2,Win32,59.88023952,5f5b232433097f234bc64508,65d6bb0e977760de756971f7,65d6be57a834b53c8a8f2879,0.0609,0.0609,0,104,104,73,1,onethree,,,,,,,,,,,,,,,,,,,,,,,,,,,,,,,,,,,,,,,,,,,,,,,,,,,,,,,,,,,,,,,,,,,,,,,,,,,,,,,,,,,,,,,,,,,,,,,,,,,,,,,,,,,,,,,,,,,,,,,,,,,,,,,,,,,,,,,,,
,,5f5b232433097f234bc64508,2024-02-21_20h25.13.463,kallum_motion_pilot,2023.2.2,Win32,59.88023952,5f5b232433097f234bc64508,65d6bb0e977760de756971f7,65d6be57a834b53c8a8f2879,0.061,0.061,0,105,105,96,1,fivesix,,,,,,,,,,,,,,,,,,,,,,,,,,,,,,,,,,,,,,,,,,,,,,,,,,,,,,,,,,,,,,,,,,,,,,,,,,,,,,,,,,,,,,,,,,,,,,,,,,,,,,,,,,,,,,,,,,,,,,,,,,,,,,,,,,,,,,,,,
,,5f5b232433097f234bc64508,2024-02-21_20h25.13.463,kallum_motion_pilot,2023.2.2,Win32,59.88023952,5f5b232433097f234bc64508,65d6bb0e977760de756971f7,65d6be57a834b53c8a8f2879,0.0611,0.0612,0,106,106,70,1,fourtwo,,,,,,,,,,,,,,,,,,,,,,,,,,,,,,,,,,,,,,,,,,,,,,,,,,,,,,,,,,,,,,,,,,,,,,,,,,,,,,,,,,,,,,,,,,,,,,,,,,,,,,,,,,,,,,,,,,,,,,,,,,,,,,,,,,,,,,,,,
,,5f5b232433097f234bc64508,2024-02-21_20h25.13.463,kallum_motion_pilot,2023.2.2,Win32,59.88023952,5f5b232433097f234bc64508,65d6bb0e977760de756971f7,65d6be57a834b53c8a8f2879,0.0613,0.0614,0,107,107,72,1,onetwo,,,,,,,,,,,,,,,,,,,,,,,,,,,,,,,,,,,,,,,,,,,,,,,,,,,,,,,,,,,,,,,,,,,,,,,,,,,,,,,,,,,,,,,,,,,,,,,,,,,,,,,,,,,,,,,,,,,,,,,,,,,,,,,,,,,,,,,,,
,,5f5b232433097f234bc64508,2024-02-21_20h25.13.463,kallum_motion_pilot,2023.2.2,Win32,59.88023952,5f5b232433097f234bc64508,65d6bb0e977760de756971f7,65d6be57a834b53c8a8f2879,0.0616,0.0616,0,108,108,133,1,seveneight,,,,,,,,,,,,,,,,,,,,,,,,,,,,,,,,,,,,,,,,,,,,,,,,,,,,,,,,,,,,,,,,,,,,,,,,,,,,,,,,,,,,,,,,,,,,,,,,,,,,,,,,,,,,,,,,,,,,,,,,,,,,,,,,,,,,,,,,,
,,5f5b232433097f234bc64508,2024-02-21_20h25.13.463,kallum_motion_pilot,2023.2.2,Win32,59.88023952,5f5b232433097f234bc64508,65d6bb0e977760de756971f7,65d6be57a834b53c8a8f2879,0.0617,0.0618,0,109,109,52,1,threeone,,,,,,,,,,,,,,,,,,,,,,,,,,,,,,,,,,,,,,,,,,,,,,,,,,,,,,,,,,,,,,,,,,,,,,,,,,,,,,,,,,,,,,,,,,,,,,,,,,,,,,,,,,,,,,,,,,,,,,,,,,,,,,,,,,,,,,,,,
,,5f5b232433097f234bc64508,2024-02-21_20h25.13.463,kallum_motion_pilot,2023.2.2,Win32,59.88023952,5f5b232433097f234bc64508,65d6bb0e977760de756971f7,65d6be57a834b53c8a8f2879,0.0618,0.0619,0,110,110,20,1,threeone,,,,,,,,,,,,,,,,,,,,,,,,,,,,,,,,,,,,,,,,,,,,,,,,,,,,,,,,,,,,,,,,,,,,,,,,,,,,,,,,,,,,,,,,,,,,,,,,,,,,,,,,,,,,,,,,,,,,,,,,,,,,,,,,,,,,,,,,,
,,5f5b232433097f234bc64508,2024-02-21_20h25.13.463,kallum_motion_pilot,2023.2.2,Win32,59.88023952,5f5b232433097f234bc64508,65d6bb0e977760de756971f7,65d6be57a834b53c8a8f2879,0.0621,0.0621,0,111,111,59,1,twofour,,,,,,,,,,,,,,,,,,,,,,,,,,,,,,,,,,,,,,,,,,,,,,,,,,,,,,,,,,,,,,,,,,,,,,,,,,,,,,,,,,,,,,,,,,,,,,,,,,,,,,,,,,,,,,,,,,,,,,,,,,,,,,,,,,,,,,,,,
,,5f5b232433097f234bc64508,2024-02-21_20h25.13.463,kallum_motion_pilot,2023.2.2,Win32,59.88023952,5f5b232433097f234bc64508,65d6bb0e977760de756971f7,65d6be57a834b53c8a8f2879,0.0623,0.0623,0,112,112,14,1,fourtwo,,,,,,,,,,,,,,,,,,,,,,,,,,,,,,,,,,,,,,,,,,,,,,,,,,,,,,,,,,,,,,,,,,,,,,,,,,,,,,,,,,,,,,,,,,,,,,,,,,,,,,,,,,,,,,,,,,,,,,,,,,,,,,,,,,,,,,,,,
,,5f5b232433097f234bc64508,2024-02-21_20h25.13.463,kallum_motion_pilot,2023.2.2,Win32,59.88023952,5f5b232433097f234bc64508,65d6bb0e977760de756971f7,65d6be57a834b53c8a8f2879,0.0624,0.0624,0,113,113,49,1,onethree,,,,,,,,,,,,,,,,,,,,,,,,,,,,,,,,,,,,,,,,,,,,,,,,,,,,,,,,,,,,,,,,,,,,,,,,,,,,,,,,,,,,,,,,,,,,,,,,,,,,,,,,,,,,,,,,,,,,,,,,,,,,,,,,,,,,,,,,,
,,5f5b232433097f234bc64508,2024-02-21_20h25.13.463,kallum_motion_pilot,2023.2.2,Win32,59.88023952,5f5b232433097f234bc64508,65d6bb0e977760de756971f7,65d6be57a834b53c8a8f2879,0.0626,0.0627,0,114,114,148,1,sevenfive,,,,,,,,,,,,,,,,,,,,,,,,,,,,,,,,,,,,,,,,,,,,,,,,,,,,,,,,,,,,,,,,,,,,,,,,,,,,,,,,,,,,,,,,,,,,,,,,,,,,,,,,,,,,,,,,,,,,,,,,,,,,,,,,,,,,,,,,,
,,5f5b232433097f234bc64508,2024-02-21_20h25.13.463,kallum_motion_pilot,2023.2.2,Win32,59.88023952,5f5b232433097f234bc64508,65d6bb0e977760de756971f7,65d6be57a834b53c8a8f2879,0.0627,0.0628,0,115,115,7,1,fourthree,,,,,,,,,,,,,,,,,,,,,,,,,,,,,,,,,,,,,,,,,,,,,,,,,,,,,,,,,,,,,,,,,,,,,,,,,,,,,,,,,,,,,,,,,,,,,,,,,,,,,,,,,,,,,,,,,,,,,,,,,,,,,,,,,,,,,,,,,
,,5f5b232433097f234bc64508,2024-02-21_20h25.13.463,kallum_motion_pilot,2023.2.2,Win32,59.88023952,5f5b232433097f234bc64508,65d6bb0e977760de756971f7,65d6be57a834b53c8a8f2879,0.063,0.063,0,116,116,62,1,fourtwo,,,,,,,,,,,,,,,,,,,,,,,,,,,,,,,,,,,,,,,,,,,,,,,,,,,,,,,,,,,,,,,,,,,,,,,,,,,,,,,,,,,,,,,,,,,,,,,,,,,,,,,,,,,,,,,,,,,,,,,,,,,,,,,,,,,,,,,,,
,,5f5b232433097f234bc64508,2024-02-21_20h25.13.463,kallum_motion_pilot,2023.2.2,Win32,59.88023952,5f5b232433097f234bc64508,65d6bb0e977760de756971f7,65d6be57a834b53c8a8f2879,0.0632,0.0632,0,117,117,80,1,fivesix,,,,,,,,,,,,,,,,,,,,,,,,,,,,,,,,,,,,,,,,,,,,,,,,,,,,,,,,,,,,,,,,,,,,,,,,,,,,,,,,,,,,,,,,,,,,,,,,,,,,,,,,,,,,,,,,,,,,,,,,,,,,,,,,,,,,,,,,,
,,5f5b232433097f234bc64508,2024-02-21_20h25.13.463,kallum_motion_pilot,2023.2.2,Win32,59.88023952,5f5b232433097f234bc64508,65d6bb0e977760de756971f7,65d6be57a834b53c8a8f2879,0.0633,0.0633,0,118,118,138,1,sixfive,,,,,,,,,,,,,,,,,,,,,,,,,,,,,,,,,,,,,,,,,,,,,,,,,,,,,,,,,,,,,,,,,,,,,,,,,,,,,,,,,,,,,,,,,,,,,,,,,,,,,,,,,,,,,,,,,,,,,,,,,,,,,,,,,,,,,,,,,
,,5f5b232433097f234bc64508,2024-02-21_20h25.13.463,kallum_motion_pilot,2023.2.2,Win32,59.88023952,5f5b232433097f234bc64508,65d6bb0e977760de756971f7,65d6be57a834b53c8a8f2879,0.0635,0.0635,0,119,119,15,1,fourthree,,,,,,,,,,,,,,,,,,,,,,,,,,,,,,,,,,,,,,,,,,,,,,,,,,,,,,,,,,,,,,,,,,,,,,,,,,,,,,,,,,,,,,,,,,,,,,,,,,,,,,,,,,,,,,,,,,,,,,,,,,,,,,,,,,,,,,,,,
,,5f5b232433097f234bc64508,2024-02-21_20h25.13.463,kallum_motion_pilot,2023.2.2,Win32,59.88023952,5f5b232433097f234bc64508,65d6bb0e977760de756971f7,65d6be57a834b53c8a8f2879,0.0636,0.0637,0,120,120,135,1,eightseven,,,,,,,,,,,,,,,,,,,,,,,,,,,,,,,,,,,,,,,,,,,,,,,,,,,,,,,,,,,,,,,,,,,,,,,,,,,,,,,,,,,,,,,,,,,,,,,,,,,,,,,,,,,,,,,,,,,,,,,,,,,,,,,,,,,,,,,,,
,,5f5b232433097f234bc64508,2024-02-21_20h25.13.463,kallum_motion_pilot,2023.2.2,Win32,59.88023952,5f5b232433097f234bc64508,65d6bb0e977760de756971f7,65d6be57a834b53c8a8f2879,0.0638,0.0639,0,121,121,122,1,sixfive,,,,,,,,,,,,,,,,,,,,,,,,,,,,,,,,,,,,,,,,,,,,,,,,,,,,,,,,,,,,,,,,,,,,,,,,,,,,,,,,,,,,,,,,,,,,,,,,,,,,,,,,,,,,,,,,,,,,,,,,,,,,,,,,,,,,,,,,,
,,5f5b232433097f234bc64508,2024-02-21_20h25.13.463,kallum_motion_pilot,2023.2.2,Win32,59.88023952,5f5b232433097f234bc64508,65d6bb0e977760de756971f7,65d6be57a834b53c8a8f2879,0.064,0.0641,0,122,122,121,1,fiveseven,,,,,,,,,,,,,,,,,,,,,,,,,,,,,,,,,,,,,,,,,,,,,,,,,,,,,,,,,,,,,,,,,,,,,,,,,,,,,,,,,,,,,,,,,,,,,,,,,,,,,,,,,,,,,,,,,,,,,,,,,,,,,,,,,,,,,,,,,
,,5f5b232433097f234bc64508,2024-02-21_20h25.13.463,kallum_motion_pilot,2023.2.2,Win32,59.88023952,5f5b232433097f234bc64508,65d6bb0e977760de756971f7,65d6be57a834b53c8a8f2879,0.0642,0.0643,0,123,123,120,1,fivesix,,,,,,,,,,,,,,,,,,,,,,,,,,,,,,,,,,,,,,,,,,,,,,,,,,,,,,,,,,,,,,,,,,,,,,,,,,,,,,,,,,,,,,,,,,,,,,,,,,,,,,,,,,,,,,,,,,,,,,,,,,,,,,,,,,,,,,,,,
,,5f5b232433097f234bc64508,2024-02-21_20h25.13.463,kallum_motion_pilot,2023.2.2,Win32,59.88023952,5f5b232433097f234bc64508,65d6bb0e977760de756971f7,65d6be57a834b53c8a8f2879,0.0644,0.0645,0,124,124,94,1,eightsix,,,,,,,,,,,,,,,,,,,,,,,,,,,,,,,,,,,,,,,,,,,,,,,,,,,,,,,,,,,,,,,,,,,,,,,,,,,,,,,,,,,,,,,,,,,,,,,,,,,,,,,,,,,,,,,,,,,,,,,,,,,,,,,,,,,,,,,,,
,,5f5b232433097f234bc64508,2024-02-21_20h25.13.463,kallum_motion_pilot,2023.2.2,Win32,59.88023952,5f5b232433097f234bc64508,65d6bb0e977760de756971f7,65d6be57a834b53c8a8f2879,0.0646,0.0647,0,125,125,106,1,sixfive,,,,,,,,,,,,,,,,,,,,,,,,,,,,,,,,,,,,,,,,,,,,,,,,,,,,,,,,,,,,,,,,,,,,,,,,,,,,,,,,,,,,,,,,,,,,,,,,,,,,,,,,,,,,,,,,,,,,,,,,,,,,,,,,,,,,,,,,,
,,5f5b232433097f234bc64508,2024-02-21_20h25.13.463,kallum_motion_pilot,2023.2.2,Win32,59.88023952,5f5b232433097f234bc64508,65d6bb0e977760de756971f7,65d6be57a834b53c8a8f2879,0.0649,0.065,0,126,126,47,1,fourthree,,,,,,,,,,,,,,,,,,,,,,,,,,,,,,,,,,,,,,,,,,,,,,,,,,,,,,,,,,,,,,,,,,,,,,,,,,,,,,,,,,,,,,,,,,,,,,,,,,,,,,,,,,,,,,,,,,,,,,,,,,,,,,,,,,,,,,,,,
,,5f5b232433097f234bc64508,2024-02-21_20h25.13.463,kallum_motion_pilot,2023.2.2,Win32,59.88023952,5f5b232433097f234bc64508,65d6bb0e977760de756971f7,65d6be57a834b53c8a8f2879,0.0651,0.0652,0,127,127,43,1,twofour,,,,,,,,,,,,,,,,,,,,,,,,,,,,,,,,,,,,,,,,,,,,,,,,,,,,,,,,,,,,,,,,,,,,,,,,,,,,,,,,,,,,,,,,,,,,,,,,,,,,,,,,,,,,,,,,,,,,,,,,,,,,,,,,,,,,,,,,,
,,5f5b232433097f234bc64508,2024-02-21_20h25.13.463,kallum_motion_pilot,2023.2.2,Win32,59.88023952,5f5b232433097f234bc64508,65d6bb0e977760de756971f7,65d6be57a834b53c8a8f2879,0.0653,0.0653,0,128,128,139,1,sixeight,,,,,,,,,,,,,,,,,,,,,,,,,,,,,,,,,,,,,,,,,,,,,,,,,,,,,,,,,,,,,,,,,,,,,,,,,,,,,,,,,,,,,,,,,,,,,,,,,,,,,,,,,,,,,,,,,,,,,,,,,,,,,,,,,,,,,,,,,
,,5f5b232433097f234bc64508,2024-02-21_20h25.13.463,kallum_motion_pilot,2023.2.2,Win32,59.88023952,5f5b232433097f234bc64508,65d6bb0e977760de756971f7,65d6be57a834b53c8a8f2879,0.0655,0.0656,0,129,129,161,1,fiveseven,,,,,,,,,,,,,,,,,,,,,,,,,,,,,,,,,,,,,,,,,,,,,,,,,,,,,,,,,,,,,,,,,,,,,,,,,,,,,,,,,,,,,,,,,,,,,,,,,,,,,,,,,,,,,,,,,,,,,,,,,,,,,,,,,,,,,,,,,
,,5f5b232433097f234bc64508,2024-02-21_20h25.13.463,kallum_motion_pilot,2023.2.2,Win32,59.88023952,5f5b232433097f234bc64508,65d6bb0e977760de756971f7,65d6be57a834b53c8a8f2879,0.0657,0.0658,0,130,130,115,1,sixeight,,,,,,,,,,,,,,,,,,,,,,,,,,,,,,,,,,,,,,,,,,,,,,,,,,,,,,,,,,,,,,,,,,,,,,,,,,,,,,,,,,,,,,,,,,,,,,,,,,,,,,,,,,,,,,,,,,,,,,,,,,,,,,,,,,,,,,,,,
,,5f5b232433097f234bc64508,2024-02-21_20h25.13.463,kallum_motion_pilot,2023.2.2,Win32,59.88023952,5f5b232433097f234bc64508,65d6bb0e977760de756971f7,65d6be57a834b53c8a8f2879,0.0659,0.066,0,131,131,18,1,twoone,,,,,,,,,,,,,,,,,,,,,,,,,,,,,,,,,,,,,,,,,,,,,,,,,,,,,,,,,,,,,,,,,,,,,,,,,,,,,,,,,,,,,,,,,,,,,,,,,,,,,,,,,,,,,,,,,,,,,,,,,,,,,,,,,,,,,,,,,
,,5f5b232433097f234bc64508,2024-02-21_20h25.13.463,kallum_motion_pilot,2023.2.2,Win32,59.88023952,5f5b232433097f234bc64508,65d6bb0e977760de756971f7,65d6be57a834b53c8a8f2879,0.0661,0.0662,0,132,132,44,1,threeone,,,,,,,,,,,,,,,,,,,,,,,,,,,,,,,,,,,,,,,,,,,,,,,,,,,,,,,,,,,,,,,,,,,,,,,,,,,,,,,,,,,,,,,,,,,,,,,,,,,,,,,,,,,,,,,,,,,,,,,,,,,,,,,,,,,,,,,,,
,,5f5b232433097f234bc64508,2024-02-21_20h25.13.463,kallum_motion_pilot,2023.2.2,Win32,59.88023952,5f5b232433097f234bc64508,65d6bb0e977760de756971f7,65d6be57a834b53c8a8f2879,0.0663,0.0664,0,133,133,95,1,eightseven,,,,,,,,,,,,,,,,,,,,,,,,,,,,,,,,,,,,,,,,,,,,,,,,,,,,,,,,,,,,,,,,,,,,,,,,,,,,,,,,,,,,,,,,,,,,,,,,,,,,,,,,,,,,,,,,,,,,,,,,,,,,,,,,,,,,,,,,,
,,5f5b232433097f234bc64508,2024-02-21_20h25.13.463,kallum_motion_pilot,2023.2.2,Win32,59.88023952,5f5b232433097f234bc64508,65d6bb0e977760de756971f7,65d6be57a834b53c8a8f2879,0.0672,0.0673,0,134,134,91,1,sixeight,,,,,,,,,,,,,,,,,,,,,,,,,,,,,,,,,,,,,,,,,,,,,,,,,,,,,,,,,,,,,,,,,,,,,,,,,,,,,,,,,,,,,,,,,,,,,,,,,,,,,,,,,,,,,,,,,,,,,,,,,,,,,,,,,,,,,,,,,
,,5f5b232433097f234bc64508,2024-02-21_20h25.13.463,kallum_motion_pilot,2023.2.2,Win32,59.88023952,5f5b232433097f234bc64508,65d6bb0e977760de756971f7,65d6be57a834b53c8a8f2879,0.0674,0.0675,0,135,135,54,1,fourtwo,,,,,,,,,,,,,,,,,,,,,,,,,,,,,,,,,,,,,,,,,,,,,,,,,,,,,,,,,,,,,,,,,,,,,,,,,,,,,,,,,,,,,,,,,,,,,,,,,,,,,,,,,,,,,,,,,,,,,,,,,,,,,,,,,,,,,,,,,
,,5f5b232433097f234bc64508,2024-02-21_20h25.13.463,kallum_motion_pilot,2023.2.2,Win32,59.88023952,5f5b232433097f234bc64508,65d6bb0e977760de756971f7,65d6be57a834b53c8a8f2879,0.0676,0.0677,0,136,136,30,1,fourtwo,,,,,,,,,,,,,,,,,,,,,,,,,,,,,,,,,,,,,,,,,,,,,,,,,,,,,,,,,,,,,,,,,,,,,,,,,,,,,,,,,,,,,,,,,,,,,,,,,,,,,,,,,,,,,,,,,,,,,,,,,,,,,,,,,,,,,,,,,
,,5f5b232433097f234bc64508,2024-02-21_20h25.13.463,kallum_motion_pilot,2023.2.2,Win32,59.88023952,5f5b232433097f234bc64508,65d6bb0e977760de756971f7,65d6be57a834b53c8a8f2879,0.0679,0.0679,0,137,137,99,1,sixeight,,,,,,,,,,,,,,,,,,,,,,,,,,,,,,,,,,,,,,,,,,,,,,,,,,,,,,,,,,,,,,,,,,,,,,,,,,,,,,,,,,,,,,,,,,,,,,,,,,,,,,,,,,,,,,,,,,,,,,,,,,,,,,,,,,,,,,,,,
,,5f5b232433097f234bc64508,2024-02-21_20h25.13.463,kallum_motion_pilot,2023.2.2,Win32,59.88023952,5f5b232433097f234bc64508,65d6bb0e977760de756971f7,65d6be57a834b53c8a8f2879,0.0681,0.0681,0,138,138,9,1,onethree,,,,,,,,,,,,,,,,,,,,,,,,,,,,,,,,,,,,,,,,,,,,,,,,,,,,,,,,,,,,,,,,,,,,,,,,,,,,,,,,,,,,,,,,,,,,,,,,,,,,,,,,,,,,,,,,,,,,,,,,,,,,,,,,,,,,,,,,,
,,5f5b232433097f234bc64508,2024-02-21_20h25.13.463,kallum_motion_pilot,2023.2.2,Win32,59.88023952,5f5b232433097f234bc64508,65d6bb0e977760de756971f7,65d6be57a834b53c8a8f2879,0.0682,0.0683,0,139,139,108,1,sevenfive,,,,,,,,,,,,,,,,,,,,,,,,,,,,,,,,,,,,,,,,,,,,,,,,,,,,,,,,,,,,,,,,,,,,,,,,,,,,,,,,,,,,,,,,,,,,,,,,,,,,,,,,,,,,,,,,,,,,,,,,,,,,,,,,,,,,,,,,,
,,5f5b232433097f234bc64508,2024-02-21_20h25.13.463,kallum_motion_pilot,2023.2.2,Win32,59.88023952,5f5b232433097f234bc64508,65d6bb0e977760de756971f7,65d6be57a834b53c8a8f2879,0.0683,0.0684,0,140,140,55,1,fourthree,,,,,,,,,,,,,,,,,,,,,,,,,,,,,,,,,,,,,,,,,,,,,,,,,,,,,,,,,,,,,,,,,,,,,,,,,,,,,,,,,,,,,,,,,,,,,,,,,,,,,,,,,,,,,,,,,,,,,,,,,,,,,,,,,,,,,,,,,
,,5f5b232433097f234bc64508,2024-02-21_20h25.13.463,kallum_motion_pilot,2023.2.2,Win32,59.88023952,5f5b232433097f234bc64508,65d6bb0e977760de756971f7,65d6be57a834b53c8a8f2879,0.0686,0.0686,0,141,141,39,1,fourthree,,,,,,,,,,,,,,,,,,,,,,,,,,,,,,,,,,,,,,,,,,,,,,,,,,,,,,,,,,,,,,,,,,,,,,,,,,,,,,,,,,,,,,,,,,,,,,,,,,,,,,,,,,,,,,,,,,,,,,,,,,,,,,,,,,,,,,,,,
,,5f5b232433097f234bc64508,2024-02-21_20h25.13.463,kallum_motion_pilot,2023.2.2,Win32,59.88023952,5f5b232433097f234bc64508,65d6bb0e977760de756971f7,65d6be57a834b53c8a8f2879,0.0687,0.0689,0,142,142,92,1,sevenfive,,,,,,,,,,,,,,,,,,,,,,,,,,,,,,,,,,,,,,,,,,,,,,,,,,,,,,,,,,,,,,,,,,,,,,,,,,,,,,,,,,,,,,,,,,,,,,,,,,,,,,,,,,,,,,,,,,,,,,,,,,,,,,,,,,,,,,,,,
,,5f5b232433097f234bc64508,2024-02-21_20h25.13.463,kallum_motion_pilot,2023.2.2,Win32,59.88023952,5f5b232433097f234bc64508,65d6bb0e977760de756971f7,65d6be57a834b53c8a8f2879,0.0689,0.069,0,143,143,150,1,eightsix,,,,,,,,,,,,,,,,,,,,,,,,,,,,,,,,,,,,,,,,,,,,,,,,,,,,,,,,,,,,,,,,,,,,,,,,,,,,,,,,,,,,,,,,,,,,,,,,,,,,,,,,,,,,,,,,,,,,,,,,,,,,,,,,,,,,,,,,,
,,5f5b232433097f234bc64508,2024-02-21_20h25.13.463,kallum_motion_pilot,2023.2.2,Win32,59.88023952,5f5b232433097f234bc64508,65d6bb0e977760de756971f7,65d6be57a834b53c8a8f2879,0.0691,0.0693,0,144,144,110,1,eightsix,,,,,,,,,,,,,,,,,,,,,,,,,,,,,,,,,,,,,,,,,,,,,,,,,,,,,,,,,,,,,,,,,,,,,,,,,,,,,,,,,,,,,,,,,,,,,,,,,,,,,,,,,,,,,,,,,,,,,,,,,,,,,,,,,,,,,,,,,
,,5f5b232433097f234bc64508,2024-02-21_20h25.13.463,kallum_motion_pilot,2023.2.2,Win32,59.88023952,5f5b232433097f234bc64508,65d6bb0e977760de756971f7,65d6be57a834b53c8a8f2879,0.0694,0.0695,0,145,145,34,1,twoone,,,,,,,,,,,,,,,,,,,,,,,,,,,,,,,,,,,,,,,,,,,,,,,,,,,,,,,,,,,,,,,,,,,,,,,,,,,,,,,,,,,,,,,,,,,,,,,,,,,,,,,,,,,,,,,,,,,,,,,,,,,,,,,,,,,,,,,,,
,,5f5b232433097f234bc64508,2024-02-21_20h25.13.463,kallum_motion_pilot,2023.2.2,Win32,59.88023952,5f5b232433097f234bc64508,65d6bb0e977760de756971f7,65d6be57a834b53c8a8f2879,0.0696,0.0698,0,146,146,159,1,eightseven,,,,,,,,,,,,,,,,,,,,,,,,,,,,,,,,,,,,,,,,,,,,,,,,,,,,,,,,,,,,,,,,,,,,,,,,,,,,,,,,,,,,,,,,,,,,,,,,,,,,,,,,,,,,,,,,,,,,,,,,,,,,,,,,,,,,,,,,,
,,5f5b232433097f234bc64508,2024-02-21_20h25.13.463,kallum_motion_pilot,2023.2.2,Win32,59.88023952,5f5b232433097f234bc64508,65d6bb0e977760de756971f7,65d6be57a834b53c8a8f2879,0.0698,0.0699,0,147,147,17,1,onethree,,,,,,,,,,,,,,,,,,,,,,,,,,,,,,,,,,,,,,,,,,,,,,,,,,,,,,,,,,,,,,,,,,,,,,,,,,,,,,,,,,,,,,,,,,,,,,,,,,,,,,,,,,,,,,,,,,,,,,,,,,,,,,,,,,,,,,,,,
,,5f5b232433097f234bc64508,2024-02-21_20h25.13.463,kallum_motion_pilot,2023.2.2,Win32,59.88023952,5f5b232433097f234bc64508,65d6bb0e977760de756971f7,65d6be57a834b53c8a8f2879,0.0701,0.0701,0,148,148,103,1,eightseven,,,,,,,,,,,,,,,,,,,,,,,,,,,,,,,,,,,,,,,,,,,,,,,,,,,,,,,,,,,,,,,,,,,,,,,,,,,,,,,,,,,,,,,,,,,,,,,,,,,,,,,,,,,,,,,,,,,,,,,,,,,,,,,,,,,,,,,,,
,,5f5b232433097f234bc64508,2024-02-21_20h25.13.463,kallum_motion_pilot,2023.2.2,Win32,59.88023952,5f5b232433097f234bc64508,65d6bb0e977760de756971f7,65d6be57a834b53c8a8f2879,0.0703,0.0704,0,149,149,109,1,seveneight,,,,,,,,,,,,,,,,,,,,,,,,,,,,,,,,,,,,,,,,,,,,,,,,,,,,,,,,,,,,,,,,,,,,,,,,,,,,,,,,,,,,,,,,,,,,,,,,,,,,,,,,,,,,,,,,,,,,,,,,,,,,,,,,,,,,,,,,,
,,5f5b232433097f234bc64508,2024-02-21_20h25.13.463,kallum_motion_pilot,2023.2.2,Win32,59.88023952,5f5b232433097f234bc64508,65d6bb0e977760de756971f7,65d6be57a834b53c8a8f2879,0.0705,0.0707,0,150,150,132,1,sevenfive,,,,,,,,,,,,,,,,,,,,,,,,,,,,,,,,,,,,,,,,,,,,,,,,,,,,,,,,,,,,,,,,,,,,,,,,,,,,,,,,,,,,,,,,,,,,,,,,,,,,,,,,,,,,,,,,,,,,,,,,,,,,,,,,,,,,,,,,,
,,5f5b232433097f234bc64508,2024-02-21_20h25.13.463,kallum_motion_pilot,2023.2.2,Win32,59.88023952,5f5b232433097f234bc64508,65d6bb0e977760de756971f7,65d6be57a834b53c8a8f2879,0.0712,0.0713,0,151,151,160,1,fivesix,,,,,,,,,,,,,,,,,,,,,,,,,,,,,,,,,,,,,,,,,,,,,,,,,,,,,,,,,,,,,,,,,,,,,,,,,,,,,,,,,,,,,,,,,,,,,,,,,,,,,,,,,,,,,,,,,,,,,,,,,,,,,,,,,,,,,,,,,
,,5f5b232433097f234bc64508,2024-02-21_20h25.13.463,kallum_motion_pilot,2023.2.2,Win32,59.88023952,5f5b232433097f234bc64508,65d6bb0e977760de756971f7,65d6be57a834b53c8a8f2879,0.0716,0.0717,0,152,152,93,1,seveneight,,,,,,,,,,,,,,,,,,,,,,,,,,,,,,,,,,,,,,,,,,,,,,,,,,,,,,,,,,,,,,,,,,,,,,,,,,,,,,,,,,,,,,,,,,,,,,,,,,,,,,,,,,,,,,,,,,,,,,,,,,,,,,,,,,,,,,,,,
,,5f5b232433097f234bc64508,2024-02-21_20h25.13.463,kallum_motion_pilot,2023.2.2,Win32,59.88023952,5f5b232433097f234bc64508,65d6bb0e977760de756971f7,65d6be57a834b53c8a8f2879,0.0719,0.072,0,153,153,136,1,fivesix,,,,,,,,,,,,,,,,,,,,,,,,,,,,,,,,,,,,,,,,,,,,,,,,,,,,,,,,,,,,,,,,,,,,,,,,,,,,,,,,,,,,,,,,,,,,,,,,,,,,,,,,,,,,,,,,,,,,,,,,,,,,,,,,,,,,,,,,,
,,5f5b232433097f234bc64508,2024-02-21_20h25.13.463,kallum_motion_pilot,2023.2.2,Win32,59.88023952,5f5b232433097f234bc64508,65d6bb0e977760de756971f7,65d6be57a834b53c8a8f2879,0.0722,0.0723,0,154,154,63,1,fourthree,,,,,,,,,,,,,,,,,,,,,,,,,,,,,,,,,,,,,,,,,,,,,,,,,,,,,,,,,,,,,,,,,,,,,,,,,,,,,,,,,,,,,,,,,,,,,,,,,,,,,,,,,,,,,,,,,,,,,,,,,,,,,,,,,,,,,,,,,
,,5f5b232433097f234bc64508,2024-02-21_20h25.13.463,kallum_motion_pilot,2023.2.2,Win32,59.88023952,5f5b232433097f234bc64508,65d6bb0e977760de756971f7,65d6be57a834b53c8a8f2879,0.0724,0.0725,0,155,155,127,1,eightseven,,,,,,,,,,,,,,,,,,,,,,,,,,,,,,,,,,,,,,,,,,,,,,,,,,,,,,,,,,,,,,,,,,,,,,,,,,,,,,,,,,,,,,,,,,,,,,,,,,,,,,,,,,,,,,,,,,,,,,,,,,,,,,,,,,,,,,,,,
,,5f5b232433097f234bc64508,2024-02-21_20h25.13.463,kallum_motion_pilot,2023.2.2,Win32,59.88023952,5f5b232433097f234bc64508,65d6bb0e977760de756971f7,65d6be57a834b53c8a8f2879,0.0726,0.0727,0,156,156,29,1,threefour,,,,,,,,,,,,,,,,,,,,,,,,,,,,,,,,,,,,,,,,,,,,,,,,,,,,,,,,,,,,,,,,,,,,,,,,,,,,,,,,,,,,,,,,,,,,,,,,,,,,,,,,,,,,,,,,,,,,,,,,,,,,,,,,,,,,,,,,,
,,5f5b232433097f234bc64508,2024-02-21_20h25.13.463,kallum_motion_pilot,2023.2.2,Win32,59.88023952,5f5b232433097f234bc64508,65d6bb0e977760de756971f7,65d6be57a834b53c8a8f2879,0.0728,0.0729,0,157,157,77,1,threefour,,,,,,,,,,,,,,,,,,,,,,,,,,,,,,,,,,,,,,,,,,,,,,,,,,,,,,,,,,,,,,,,,,,,,,,,,,,,,,,,,,,,,,,,,,,,,,,,,,,,,,,,,,,,,,,,,,,,,,,,,,,,,,,,,,,,,,,,,
,,5f5b232433097f234bc64508,2024-02-21_20h25.13.463,kallum_motion_pilot,2023.2.2,Win32,59.88023952,5f5b232433097f234bc64508,65d6bb0e977760de756971f7,65d6be57a834b53c8a8f2879,0.0731,0.0731,0,158,158,24,1,onetwo,,,,,,,,,,,,,,,,,,,,,,,,,,,,,,,,,,,,,,,,,,,,,,,,,,,,,,,,,,,,,,,,,,,,,,,,,,,,,,,,,,,,,,,,,,,,,,,,,,,,,,,,,,,,,,,,,,,,,,,,,,,,,,,,,,,,,,,,,
,,5f5b232433097f234bc64508,2024-02-21_20h25.13.463,kallum_motion_pilot,2023.2.2,Win32,59.88023952,5f5b232433097f234bc64508,65d6bb0e977760de756971f7,65d6be57a834b53c8a8f2879,0.0732,0.0733,0,159,159,113,1,fiveseven,,,,,,,,,,,,,,,,,,,,,,,,,,,,,,,,,,,,,,,,,,,,,,,,,,,,,,,,,,,,,,,,,,,,,,,,,,,,,,,,,,,,,,,,,,,,,,,,,,,,,,,,,,,,,,,,,,,,,,,,,,,,,,,,,,,,,,,,,
,,5f5b232433097f234bc64508,2024-02-21_20h25.13.463,kallum_motion_pilot,2023.2.2,Win32,59.88023952,5f5b232433097f234bc64508,65d6bb0e977760de756971f7,65d6be57a834b53c8a8f2879,0.0734,0.0735,0,160,160,13,1,threefour,,,,,,,,,,,,,,,,,,,,,,,,,,,,,,,,,,,,,,,,,,,,,,,,,,,,,,,,,,,,,,,,,,,,,,,,,,,,,,,,,,,,,,,,,,,,,,,,,,,,,,,,,,,,,,,,,,,,,,,,,,,,,,,,,,,,,,,,,
,,5f5b232433097f234bc64508,2024-02-21_20h25.13.463,kallum_motion_pilot,2023.2.2,Win32,59.88023952,5f5b232433097f234bc64508,65d6bb0e977760de756971f7,65d6be57a834b53c8a8f2879,0.0737,0.0737,0,161,161,90,1,sixfive,,,,,,,,,,,,,,,,,,,,,,,,,,,,,,,,,,,,,,,,,,,,,,,,,,,,,,,,,,,,,,,,,,,,,,,,,,,,,,,,,,,,,,,,,,,,,,,,,,,,,,,,,,,,,,,,,,,,,,,,,,,,,,,,,,,,,,,,,
,,5f5b232433097f234bc64508,2024-02-21_20h25.13.463,kallum_motion_pilot,2023.2.2,Win32,59.88023952,5f5b232433097f234bc64508,65d6bb0e977760de756971f7,65d6be57a834b53c8a8f2879,0.0738,0.074,1,0,162,23,1,fourthree,,,,,,,,,,,,,,,,,,,,,,,,,,,,,,,,,,,,,,,,,,,,,,,,,,,,,,,,,,,,,,,,,,,,,,,,,,,,,,,,,,,,,,,,,,,,,,,,,,,,,,,,,,,,,,,,,,,,,,,,,,,,,,,,,,,,,,,,,
,,5f5b232433097f234bc64508,2024-02-21_20h25.13.463,kallum_motion_pilot,2023.2.2,Win32,59.88023952,5f5b232433097f234bc64508,65d6bb0e977760de756971f7,65d6be57a834b53c8a8f2879,0.0741,0.0741,1,1,163,28,1,threeone,,,,,,,,,,,,,,,,,,,,,,,,,,,,,,,,,,,,,,,,,,,,,,,,,,,,,,,,,,,,,,,,,,,,,,,,,,,,,,,,,,,,,,,,,,,,,,,,,,,,,,,,,,,,,,,,,,,,,,,,,,,,,,,,,,,,,,,,,
,,5f5b232433097f234bc64508,2024-02-21_20h25.13.463,kallum_motion_pilot,2023.2.2,Win32,59.88023952,5f5b232433097f234bc64508,65d6bb0e977760de756971f7,65d6be57a834b53c8a8f2879,0.0745,0.0746,1,2,164,91,1,sixeight,,,,,,,,,,,,,,,,,,,,,,,,,,,,,,,,,,,,,,,,,,,,,,,,,,,,,,,,,,,,,,,,,,,,,,,,,,,,,,,,,,,,,,,,,,,,,,,,,,,,,,,,,,,,,,,,,,,,,,,,,,,,,,,,,,,,,,,,,
,,5f5b232433097f234bc64508,2024-02-21_20h25.13.463,kallum_motion_pilot,2023.2.2,Win32,59.88023952,5f5b232433097f234bc64508,65d6bb0e977760de756971f7,65d6be57a834b53c8a8f2879,0.0748,0.0749,1,3,165,86,1,eightsix,,,,,,,,,,,,,,,,,,,,,,,,,,,,,,,,,,,,,,,,,,,,,,,,,,,,,,,,,,,,,,,,,,,,,,,,,,,,,,,,,,,,,,,,,,,,,,,,,,,,,,,,,,,,,,,,,,,,,,,,,,,,,,,,,,,,,,,,,
,,5f5b232433097f234bc64508,2024-02-21_20h25.13.463,kallum_motion_pilot,2023.2.2,Win32,59.88023952,5f5b232433097f234bc64508,65d6bb0e977760de756971f7,65d6be57a834b53c8a8f2879,0.075,0.0751,1,4,166,131,1,sixeight,,,,,,,,,,,,,,,,,,,,,,,,,,,,,,,,,,,,,,,,,,,,,,,,,,,,,,,,,,,,,,,,,,,,,,,,,,,,,,,,,,,,,,,,,,,,,,,,,,,,,,,,,,,,,,,,,,,,,,,,,,,,,,,,,,,,,,,,,
,,5f5b232433097f234bc64508,2024-02-21_20h25.13.463,kallum_motion_pilot,2023.2.2,Win32,59.88023952,5f5b232433097f234bc64508,65d6bb0e977760de756971f7,65d6be57a834b53c8a8f2879,0.0752,0.0753,1,5,167,34,1,twoone,,,,,,,,,,,,,,,,,,,,,,,,,,,,,,,,,,,,,,,,,,,,,,,,,,,,,,,,,,,,,,,,,,,,,,,,,,,,,,,,,,,,,,,,,,,,,,,,,,,,,,,,,,,,,,,,,,,,,,,,,,,,,,,,,,,,,,,,,
,,5f5b232433097f234bc64508,2024-02-21_20h25.13.463,kallum_motion_pilot,2023.2.2,Win32,59.88023952,5f5b232433097f234bc64508,65d6bb0e977760de756971f7,65d6be57a834b53c8a8f2879,0.0754,0.0755,1,6,168,10,1,twoone,,,,,,,,,,,,,,,,,,,,,,,,,,,,,,,,,,,,,,,,,,,,,,,,,,,,,,,,,,,,,,,,,,,,,,,,,,,,,,,,,,,,,,,,,,,,,,,,,,,,,,,,,,,,,,,,,,,,,,,,,,,,,,,,,,,,,,,,,
,,5f5b232433097f234bc64508,2024-02-21_20h25.13.463,kallum_motion_pilot,2023.2.2,Win32,59.88023952,5f5b232433097f234bc64508,65d6bb0e977760de756971f7,65d6be57a834b53c8a8f2879,0.0757,0.0757,1,7,169,102,1,eightsix,,,,,,,,,,,,,,,,,,,,,,,,,,,,,,,,,,,,,,,,,,,,,,,,,,,,,,,,,,,,,,,,,,,,,,,,,,,,,,,,,,,,,,,,,,,,,,,,,,,,,,,,,,,,,,,,,,,,,,,,,,,,,,,,,,,,,,,,,
,,5f5b232433097f234bc64508,2024-02-21_20h25.13.463,kallum_motion_pilot,2023.2.2,Win32,59.88023952,5f5b232433097f234bc64508,65d6bb0e977760de756971f7,65d6be57a834b53c8a8f2879,0.0759,0.076,1,8,170,129,1,fiveseven,,,,,,,,,,,,,,,,,,,,,,,,,,,,,,,,,,,,,,,,,,,,,,,,,,,,,,,,,,,,,,,,,,,,,,,,,,,,,,,,,,,,,,,,,,,,,,,,,,,,,,,,,,,,,,,,,,,,,,,,,,,,,,,,,,,,,,,,,
,,5f5b232433097f234bc64508,2024-02-21_20h25.13.463,kallum_motion_pilot,2023.2.2,Win32,59.88023952,5f5b232433097f234bc64508,65d6bb0e977760de756971f7,65d6be57a834b53c8a8f2879,0.0761,0.0762,1,9,171,140,1,sevenfive,,,,,,,,,,,,,,,,,,,,,,,,,,,,,,,,,,,,,,,,,,,,,,,,,,,,,,,,,,,,,,,,,,,,,,,,,,,,,,,,,,,,,,,,,,,,,,,,,,,,,,,,,,,,,,,,,,,,,,,,,,,,,,,,,,,,,,,,,
,,5f5b232433097f234bc64508,2024-02-21_20h25.13.463,kallum_motion_pilot,2023.2.2,Win32,59.88023952,5f5b232433097f234bc64508,65d6bb0e977760de756971f7,65d6be57a834b53c8a8f2879,0.0763,0.0764,1,10,172,1,1,onethree,,,,,,,,,,,,,,,,,,,,,,,,,,,,,,,,,,,,,,,,,,,,,,,,,,,,,,,,,,,,,,,,,,,,,,,,,,,,,,,,,,,,,,,,,,,,,,,,,,,,,,,,,,,,,,,,,,,,,,,,,,,,,,,,,,,,,,,,,
,,5f5b232433097f234bc64508,2024-02-21_20h25.13.463,kallum_motion_pilot,2023.2.2,Win32,59.88023952,5f5b232433097f234bc64508,65d6bb0e977760de756971f7,65d6be57a834b53c8a8f2879,0.0766,0.0767,1,11,173,110,1,eightsix,,,,,,,,,,,,,,,,,,,,,,,,,,,,,,,,,,,,,,,,,,,,,,,,,,,,,,,,,,,,,,,,,,,,,,,,,,,,,,,,,,,,,,,,,,,,,,,,,,,,,,,,,,,,,,,,,,,,,,,,,,,,,,,,,,,,,,,,,
,,5f5b232433097f234bc64508,2024-02-21_20h25.13.463,kallum_motion_pilot,2023.2.2,Win32,59.88023952,5f5b232433097f234bc64508,65d6bb0e977760de756971f7,65d6be57a834b53c8a8f2879,0.0768,0.0768,1,12,174,76,1,threeone,,,,,,,,,,,,,,,,,,,,,,,,,,,,,,,,,,,,,,,,,,,,,,,,,,,,,,,,,,,,,,,,,,,,,,,,,,,,,,,,,,,,,,,,,,,,,,,,,,,,,,,,,,,,,,,,,,,,,,,,,,,,,,,,,,,,,,,,,
,,5f5b232433097f234bc64508,2024-02-21_20h25.13.463,kallum_motion_pilot,2023.2.2,Win32,59.88023952,5f5b232433097f234bc64508,65d6bb0e977760de756971f7,65d6be57a834b53c8a8f2879,0.0769,0.077,1,13,175,99,1,sixeight,,,,,,,,,,,,,,,,,,,,,,,,,,,,,,,,,,,,,,,,,,,,,,,,,,,,,,,,,,,,,,,,,,,,,,,,,,,,,,,,,,,,,,,,,,,,,,,,,,,,,,,,,,,,,,,,,,,,,,,,,,,,,,,,,,,,,,,,,
,,5f5b232433097f234bc64508,2024-02-21_20h25.13.463,kallum_motion_pilot,2023.2.2,Win32,59.88023952,5f5b232433097f234bc64508,65d6bb0e977760de756971f7,65d6be57a834b53c8a8f2879,0.0771,0.0773,1,14,176,50,1,twoone,,,,,,,,,,,,,,,,,,,,,,,,,,,,,,,,,,,,,,,,,,,,,,,,,,,,,,,,,,,,,,,,,,,,,,,,,,,,,,,,,,,,,,,,,,,,,,,,,,,,,,,,,,,,,,,,,,,,,,,,,,,,,,,,,,,,,,,,,
,,5f5b232433097f234bc64508,2024-02-21_20h25.13.463,kallum_motion_pilot,2023.2.2,Win32,59.88023952,5f5b232433097f234bc64508,65d6bb0e977760de756971f7,65d6be57a834b53c8a8f2879,0.0774,0.0774,1,15,177,133,1,seveneight,,,,,,,,,,,,,,,,,,,,,,,,,,,,,,,,,,,,,,,,,,,,,,,,,,,,,,,,,,,,,,,,,,,,,,,,,,,,,,,,,,,,,,,,,,,,,,,,,,,,,,,,,,,,,,,,,,,,,,,,,,,,,,,,,,,,,,,,,
,,5f5b232433097f234bc64508,2024-02-21_20h25.13.463,kallum_motion_pilot,2023.2.2,Win32,59.88023952,5f5b232433097f234bc64508,65d6bb0e977760de756971f7,65d6be57a834b53c8a8f2879,0.0776,0.0777,1,16,178,39,1,fourthree,,,,,,,,,,,,,,,,,,,,,,,,,,,,,,,,,,,,,,,,,,,,,,,,,,,,,,,,,,,,,,,,,,,,,,,,,,,,,,,,,,,,,,,,,,,,,,,,,,,,,,,,,,,,,,,,,,,,,,,,,,,,,,,,,,,,,,,,,
,,5f5b232433097f234bc64508,2024-02-21_20h25.13.463,kallum_motion_pilot,2023.2.2,Win32,59.88023952,5f5b232433097f234bc64508,65d6bb0e977760de756971f7,65d6be57a834b53c8a8f2879,0.0778,0.0779,1,17,179,54,1,fourtwo,,,,,,,,,,,,,,,,,,,,,,,,,,,,,,,,,,,,,,,,,,,,,,,,,,,,,,,,,,,,,,,,,,,,,,,,,,,,,,,,,,,,,,,,,,,,,,,,,,,,,,,,,,,,,,,,,,,,,,,,,,,,,,,,,,,,,,,,,
,,5f5b232433097f234bc64508,2024-02-21_20h25.13.463,kallum_motion_pilot,2023.2.2,Win32,59.88023952,5f5b232433097f234bc64508,65d6bb0e977760de756971f7,65d6be57a834b53c8a8f2879,0.0781,0.0781,1,18,180,112,1,fivesix,,,,,,,,,,,,,,,,,,,,,,,,,,,,,,,,,,,,,,,,,,,,,,,,,,,,,,,,,,,,,,,,,,,,,,,,,,,,,,,,,,,,,,,,,,,,,,,,,,,,,,,,,,,,,,,,,,,,,,,,,,,,,,,,,,,,,,,,,
,,5f5b232433097f234bc64508,2024-02-21_20h25.13.463,kallum_motion_pilot,2023.2.2,Win32,59.88023952,5f5b232433097f234bc64508,65d6bb0e977760de756971f7,65d6be57a834b53c8a8f2879,0.0782,0.0783,1,19,181,87,1,eightseven,,,,,,,,,,,,,,,,,,,,,,,,,,,,,,,,,,,,,,,,,,,,,,,,,,,,,,,,,,,,,,,,,,,,,,,,,,,,,,,,,,,,,,,,,,,,,,,,,,,,,,,,,,,,,,,,,,,,,,,,,,,,,,,,,,,,,,,,,
,,5f5b232433097f234bc64508,2024-02-21_20h25.13.463,kallum_motion_pilot,2023.2.2,Win32,59.88023952,5f5b232433097f234bc64508,65d6bb0e977760de756971f7,65d6be57a834b53c8a8f2879,0.0785,0.0785,1,20,182,35,1,twofour,,,,,,,,,,,,,,,,,,,,,,,,,,,,,,,,,,,,,,,,,,,,,,,,,,,,,,,,,,,,,,,,,,,,,,,,,,,,,,,,,,,,,,,,,,,,,,,,,,,,,,,,,,,,,,,,,,,,,,,,,,,,,,,,,,,,,,,,,
,,5f5b232433097f234bc64508,2024-02-21_20h25.13.463,kallum_motion_pilot,2023.2.2,Win32,59.88023952,5f5b232433097f234bc64508,65d6bb0e977760de756971f7,65d6be57a834b53c8a8f2879,0.0786,0.0788,1,21,183,117,1,seveneight,,,,,,,,,,,,,,,,,,,,,,,,,,,,,,,,,,,,,,,,,,,,,,,,,,,,,,,,,,,,,,,,,,,,,,,,,,,,,,,,,,,,,,,,,,,,,,,,,,,,,,,,,,,,,,,,,,,,,,,,,,,,,,,,,,,,,,,,,
,,5f5b232433097f234bc64508,2024-02-21_20h25.13.463,kallum_motion_pilot,2023.2.2,Win32,59.88023952,5f5b232433097f234bc64508,65d6bb0e977760de756971f7,65d6be57a834b53c8a8f2879,0.0789,0.0791,1,22,184,18,1,twoone,,,,,,,,,,,,,,,,,,,,,,,,,,,,,,,,,,,,,,,,,,,,,,,,,,,,,,,,,,,,,,,,,,,,,,,,,,,,,,,,,,,,,,,,,,,,,,,,,,,,,,,,,,,,,,,,,,,,,,,,,,,,,,,,,,,,,,,,,
,,5f5b232433097f234bc64508,2024-02-21_20h25.13.463,kallum_motion_pilot,2023.2.2,Win32,59.88023952,5f5b232433097f234bc64508,65d6bb0e977760de756971f7,65d6be57a834b53c8a8f2879,0.0791,0.0793,1,23,185,36,1,threeone,,,,,,,,,,,,,,,,,,,,,,,,,,,,,,,,,,,,,,,,,,,,,,,,,,,,,,,,,,,,,,,,,,,,,,,,,,,,,,,,,,,,,,,,,,,,,,,,,,,,,,,,,,,,,,,,,,,,,,,,,,,,,,,,,,,,,,,,,
,,5f5b232433097f234bc64508,2024-02-21_20h25.13.463,kallum_motion_pilot,2023.2.2,Win32,59.88023952,5f5b232433097f234bc64508,65d6bb0e977760de756971f7,65d6be57a834b53c8a8f2879,0.0794,0.0796,1,24,186,88,1,fivesix,,,,,,,,,,,,,,,,,,,,,,,,,,,,,,,,,,,,,,,,,,,,,,,,,,,,,,,,,,,,,,,,,,,,,,,,,,,,,,,,,,,,,,,,,,,,,,,,,,,,,,,,,,,,,,,,,,,,,,,,,,,,,,,,,,,,,,,,,
,,5f5b232433097f234bc64508,2024-02-21_20h25.13.463,kallum_motion_pilot,2023.2.2,Win32,59.88023952,5f5b232433097f234bc64508,65d6bb0e977760de756971f7,65d6be57a834b53c8a8f2879,0.0797,0.0797,1,25,187,90,1,sixfive,,,,,,,,,,,,,,,,,,,,,,,,,,,,,,,,,,,,,,,,,,,,,,,,,,,,,,,,,,,,,,,,,,,,,,,,,,,,,,,,,,,,,,,,,,,,,,,,,,,,,,,,,,,,,,,,,,,,,,,,,,,,,,,,,,,,,,,,,
,,5f5b232433097f234bc64508,2024-02-21_20h25.13.463,kallum_motion_pilot,2023.2.2,Win32,59.88023952,5f5b232433097f234bc64508,65d6bb0e977760de756971f7,65d6be57a834b53c8a8f2879,0.0799,0.0799,1,26,188,12,1,threeone,,,,,,,,,,,,,,,,,,,,,,,,,,,,,,,,,,,,,,,,,,,,,,,,,,,,,,,,,,,,,,,,,,,,,,,,,,,,,,,,,,,,,,,,,,,,,,,,,,,,,,,,,,,,,,,,,,,,,,,,,,,,,,,,,,,,,,,,,
,,5f5b232433097f234bc64508,2024-02-21_20h25.13.463,kallum_motion_pilot,2023.2.2,Win32,59.88023952,5f5b232433097f234bc64508,65d6bb0e977760de756971f7,65d6be57a834b53c8a8f2879,0.0801,0.0802,1,27,189,113,1,fiveseven,,,,,,,,,,,,,,,,,,,,,,,,,,,,,,,,,,,,,,,,,,,,,,,,,,,,,,,,,,,,,,,,,,,,,,,,,,,,,,,,,,,,,,,,,,,,,,,,,,,,,,,,,,,,,,,,,,,,,,,,,,,,,,,,,,,,,,,,,
,,5f5b232433097f234bc64508,2024-02-21_20h25.13.463,kallum_motion_pilot,2023.2.2,Win32,59.88023952,5f5b232433097f234bc64508,65d6bb0e977760de756971f7,65d6be57a834b53c8a8f2879,0.0803,0.0804,1,28,190,114,1,sixfive,,,,,,,,,,,,,,,,,,,,,,,,,,,,,,,,,,,,,,,,,,,,,,,,,,,,,,,,,,,,,,,,,,,,,,,,,,,,,,,,,,,,,,,,,,,,,,,,,,,,,,,,,,,,,,,,,,,,,,,,,,,,,,,,,,,,,,,,,
,,5f5b232433097f234bc64508,2024-02-21_20h25.13.463,kallum_motion_pilot,2023.2.2,Win32,59.88023952,5f5b232433097f234bc64508,65d6bb0e977760de756971f7,65d6be57a834b53c8a8f2879,0.0805,0.0806,1,29,191,89,1,fiveseven,,,,,,,,,,,,,,,,,,,,,,,,,,,,,,,,,,,,,,,,,,,,,,,,,,,,,,,,,,,,,,,,,,,,,,,,,,,,,,,,,,,,,,,,,,,,,,,,,,,,,,,,,,,,,,,,,,,,,,,,,,,,,,,,,,,,,,,,,
,,5f5b232433097f234bc64508,2024-02-21_20h25.13.463,kallum_motion_pilot,2023.2.2,Win32,59.88023952,5f5b232433097f234bc64508,65d6bb0e977760de756971f7,65d6be57a834b53c8a8f2879,0.0807,0.0809,1,30,192,82,1,sixfive,,,,,,,,,,,,,,,,,,,,,,,,,,,,,,,,,,,,,,,,,,,,,,,,,,,,,,,,,,,,,,,,,,,,,,,,,,,,,,,,,,,,,,,,,,,,,,,,,,,,,,,,,,,,,,,,,,,,,,,,,,,,,,,,,,,,,,,,,
,,5f5b232433097f234bc64508,2024-02-21_20h25.13.463,kallum_motion_pilot,2023.2.2,Win32,59.88023952,5f5b232433097f234bc64508,65d6bb0e977760de756971f7,65d6be57a834b53c8a8f2879,0.0809,0.0811,1,31,193,16,1,onetwo,,,,,,,,,,,,,,,,,,,,,,,,,,,,,,,,,,,,,,,,,,,,,,,,,,,,,,,,,,,,,,,,,,,,,,,,,,,,,,,,,,,,,,,,,,,,,,,,,,,,,,,,,,,,,,,,,,,,,,,,,,,,,,,,,,,,,,,,,
,,5f5b232433097f234bc64508,2024-02-21_20h25.13.463,kallum_motion_pilot,2023.2.2,Win32,59.88023952,5f5b232433097f234bc64508,65d6bb0e977760de756971f7,65d6be57a834b53c8a8f2879,0.0812,0.0813,1,32,194,139,1,sixeight,,,,,,,,,,,,,,,,,,,,,,,,,,,,,,,,,,,,,,,,,,,,,,,,,,,,,,,,,,,,,,,,,,,,,,,,,,,,,,,,,,,,,,,,,,,,,,,,,,,,,,,,,,,,,,,,,,,,,,,,,,,,,,,,,,,,,,,,,
,,5f5b232433097f234bc64508,2024-02-21_20h25.13.463,kallum_motion_pilot,2023.2.2,Win32,59.88023952,5f5b232433097f234bc64508,65d6bb0e977760de756971f7,65d6be57a834b53c8a8f2879,0.0815,0.0815,1,33,195,128,1,fivesix,,,,,,,,,,,,,,,,,,,,,,,,,,,,,,,,,,,,,,,,,,,,,,,,,,,,,,,,,,,,,,,,,,,,,,,,,,,,,,,,,,,,,,,,,,,,,,,,,,,,,,,,,,,,,,,,,,,,,,,,,,,,,,,,,,,,,,,,,
,,5f5b232433097f234bc64508,2024-02-21_20h25.13.463,kallum_motion_pilot,2023.2.2,Win32,59.88023952,5f5b232433097f234bc64508,65d6bb0e977760de756971f7,65d6be57a834b53c8a8f2879,0.0817,0.082,1,34,196,101,1,seveneight,,,,,,,,,,,,,,,,,,,,,,,,,,,,,,,,,,,,,,,,,,,,,,,,,,,,,,,,,,,,,,,,,,,,,,,,,,,,,,,,,,,,,,,,,,,,,,,,,,,,,,,,,,,,,,,,,,,,,,,,,,,,,,,,,,,,,,,,,
,,5f5b232433097f234bc64508,2024-02-21_20h25.13.463,kallum_motion_pilot,2023.2.2,Win32,59.88023952,5f5b232433097f234bc64508,65d6bb0e977760de756971f7,65d6be57a834b53c8a8f2879,0.0822,0.0823,1,35,197,147,1,sixeight,,,,,,,,,,,,,,,,,,,,,,,,,,,,,,,,,,,,,,,,,,,,,,,,,,,,,,,,,,,,,,,,,,,,,,,,,,,,,,,,,,,,,,,,,,,,,,,,,,,,,,,,,,,,,,,,,,,,,,,,,,,,,,,,,,,,,,,,,
,,5f5b232433097f234bc64508,2024-02-21_20h25.13.463,kallum_motion_pilot,2023.2.2,Win32,59.88023952,5f5b232433097f234bc64508,65d6bb0e977760de756971f7,65d6be57a834b53c8a8f2879,0.0825,0.0825,1,36,198,26,1,twoone,,,,,,,,,,,,,,,,,,,,,,,,,,,,,,,,,,,,,,,,,,,,,,,,,,,,,,,,,,,,,,,,,,,,,,,,,,,,,,,,,,,,,,,,,,,,,,,,,,,,,,,,,,,,,,,,,,,,,,,,,,,,,,,,,,,,,,,,,
,,5f5b232433097f234bc64508,2024-02-21_20h25.13.463,kallum_motion_pilot,2023.2.2,Win32,59.88023952,5f5b232433097f234bc64508,65d6bb0e977760de756971f7,65d6be57a834b53c8a8f2879,0.0827,0.0827,1,37,199,160,1,fivesix,,,,,,,,,,,,,,,,,,,,,,,,,,,,,,,,,,,,,,,,,,,,,,,,,,,,,,,,,,,,,,,,,,,,,,,,,,,,,,,,,,,,,,,,,,,,,,,,,,,,,,,,,,,,,,,,,,,,,,,,,,,,,,,,,,,,,,,,,
,,5f5b232433097f234bc64508,2024-02-21_20h25.13.463,kallum_motion_pilot,2023.2.2,Win32,59.88023952,5f5b232433097f234bc64508,65d6bb0e977760de756971f7,65d6be57a834b53c8a8f2879,0.0829,0.083,1,38,200,80,1,fivesix,,,,,,,,,,,,,,,,,,,,,,,,,,,,,,,,,,,,,,,,,,,,,,,,,,,,,,,,,,,,,,,,,,,,,,,,,,,,,,,,,,,,,,,,,,,,,,,,,,,,,,,,,,,,,,,,,,,,,,,,,,,,,,,,,,,,,,,,,
,,5f5b232433097f234bc64508,2024-02-21_20h25.13.463,kallum_motion_pilot,2023.2.2,Win32,59.88023952,5f5b232433097f234bc64508,65d6bb0e977760de756971f7,65d6be57a834b53c8a8f2879,0.0831,0.0832,1,39,201,130,1,sixfive,,,,,,,,,,,,,,,,,,,,,,,,,,,,,,,,,,,,,,,,,,,,,,,,,,,,,,,,,,,,,,,,,,,,,,,,,,,,,,,,,,,,,,,,,,,,,,,,,,,,,,,,,,,,,,,,,,,,,,,,,,,,,,,,,,,,,,,,,
,,5f5b232433097f234bc64508,2024-02-21_20h25.13.463,kallum_motion_pilot,2023.2.2,Win32,59.88023952,5f5b232433097f234bc64508,65d6bb0e977760de756971f7,65d6be57a834b53c8a8f2879,0.0833,0.0834,1,40,202,104,1,fivesix,,,,,,,,,,,,,,,,,,,,,,,,,,,,,,,,,,,,,,,,,,,,,,,,,,,,,,,,,,,,,,,,,,,,,,,,,,,,,,,,,,,,,,,,,,,,,,,,,,,,,,,,,,,,,,,,,,,,,,,,,,,,,,,,,,,,,,,,,
,,5f5b232433097f234bc64508,2024-02-21_20h25.13.463,kallum_motion_pilot,2023.2.2,Win32,59.88023952,5f5b232433097f234bc64508,65d6bb0e977760de756971f7,65d6be57a834b53c8a8f2879,0.0835,0.0836,1,41,203,96,1,fivesix,,,,,,,,,,,,,,,,,,,,,,,,,,,,,,,,,,,,,,,,,,,,,,,,,,,,,,,,,,,,,,,,,,,,,,,,,,,,,,,,,,,,,,,,,,,,,,,,,,,,,,,,,,,,,,,,,,,,,,,,,,,,,,,,,,,,,,,,,
,,5f5b232433097f234bc64508,2024-02-21_20h25.13.463,kallum_motion_pilot,2023.2.2,Win32,59.88023952,5f5b232433097f234bc64508,65d6bb0e977760de756971f7,65d6be57a834b53c8a8f2879,0.0838,0.0838,1,42,204,95,1,eightseven,,,,,,,,,,,,,,,,,,,,,,,,,,,,,,,,,,,,,,,,,,,,,,,,,,,,,,,,,,,,,,,,,,,,,,,,,,,,,,,,,,,,,,,,,,,,,,,,,,,,,,,,,,,,,,,,,,,,,,,,,,,,,,,,,,,,,,,,,
,,5f5b232433097f234bc64508,2024-02-21_20h25.13.463,kallum_motion_pilot,2023.2.2,Win32,59.88023952,5f5b232433097f234bc64508,65d6bb0e977760de756971f7,65d6be57a834b53c8a8f2879,0.084,0.0841,1,43,205,143,1,eightseven,,,,,,,,,,,,,,,,,,,,,,,,,,,,,,,,,,,,,,,,,,,,,,,,,,,,,,,,,,,,,,,,,,,,,,,,,,,,,,,,,,,,,,,,,,,,,,,,,,,,,,,,,,,,,,,,,,,,,,,,,,,,,,,,,,,,,,,,,
,,5f5b232433097f234bc64508,2024-02-21_20h25.13.463,kallum_motion_pilot,2023.2.2,Win32,59.88023952,5f5b232433097f234bc64508,65d6bb0e977760de756971f7,65d6be57a834b53c8a8f2879,0.0843,0.0843,1,44,206,14,1,fourtwo,,,,,,,,,,,,,,,,,,,,,,,,,,,,,,,,,,,,,,,,,,,,,,,,,,,,,,,,,,,,,,,,,,,,,,,,,,,,,,,,,,,,,,,,,,,,,,,,,,,,,,,,,,,,,,,,,,,,,,,,,,,,,,,,,,,,,,,,,
,,5f5b232433097f234bc64508,2024-02-21_20h25.13.463,kallum_motion_pilot,2023.2.2,Win32,59.88023952,5f5b232433097f234bc64508,65d6bb0e977760de756971f7,65d6be57a834b53c8a8f2879,0.0845,0.0845,1,45,207,73,1,onethree,,,,,,,,,,,,,,,,,,,,,,,,,,,,,,,,,,,,,,,,,,,,,,,,,,,,,,,,,,,,,,,,,,,,,,,,,,,,,,,,,,,,,,,,,,,,,,,,,,,,,,,,,,,,,,,,,,,,,,,,,,,,,,,,,,,,,,,,,
,,5f5b232433097f234bc64508,2024-02-21_20h25.13.463,kallum_motion_pilot,2023.2.2,Win32,59.88023952,5f5b232433097f234bc64508,65d6bb0e977760de756971f7,65d6be57a834b53c8a8f2879,0.0847,0.0848,1,46,208,97,1,fiveseven,,,,,,,,,,,,,,,,,,,,,,,,,,,,,,,,,,,,,,,,,,,,,,,,,,,,,,,,,,,,,,,,,,,,,,,,,,,,,,,,,,,,,,,,,,,,,,,,,,,,,,,,,,,,,,,,,,,,,,,,,,,,,,,,,,,,,,,,,
,,5f5b232433097f234bc64508,2024-02-21_20h25.13.463,kallum_motion_pilot,2023.2.2,Win32,59.88023952,5f5b232433097f234bc64508,65d6bb0e977760de756971f7,65d6be57a834b53c8a8f2879,0.0849,0.085,1,47,209,157,1,seveneight,,,,,,,,,,,,,,,,,,,,,,,,,,,,,,,,,,,,,,,,,,,,,,,,,,,,,,,,,,,,,,,,,,,,,,,,,,,,,,,,,,,,,,,,,,,,,,,,,,,,,,,,,,,,,,,,,,,,,,,,,,,,,,,,,,,,,,,,,
,,5f5b232433097f234bc64508,2024-02-21_20h25.13.463,kallum_motion_pilot,2023.2.2,Win32,59.88023952,5f5b232433097f234bc64508,65d6bb0e977760de756971f7,65d6be57a834b53c8a8f2879,0.0851,0.0852,1,48,210,115,1,sixeight,,,,,,,,,,,,,,,,,,,,,,,,,,,,,,,,,,,,,,,,,,,,,,,,,,,,,,,,,,,,,,,,,,,,,,,,,,,,,,,,,,,,,,,,,,,,,,,,,,,,,,,,,,,,,,,,,,,,,,,,,,,,,,,,,,,,,,,,,
,,5f5b232433097f234bc64508,2024-02-21_20h25.13.463,kallum_motion_pilot,2023.2.2,Win32,59.88023952,5f5b232433097f234bc64508,65d6bb0e977760de756971f7,65d6be57a834b53c8a8f2879,0.0854,0.0854,1,49,211,22,1,fourtwo,,,,,,,,,,,,,,,,,,,,,,,,,,,,,,,,,,,,,,,,,,,,,,,,,,,,,,,,,,,,,,,,,,,,,,,,,,,,,,,,,,,,,,,,,,,,,,,,,,,,,,,,,,,,,,,,,,,,,,,,,,,,,,,,,,,,,,,,,
,,5f5b232433097f234bc64508,2024-02-21_20h25.13.463,kallum_motion_pilot,2023.2.2,Win32,59.88023952,5f5b232433097f234bc64508,65d6bb0e977760de756971f7,65d6be57a834b53c8a8f2879,0.0856,0.0857,1,50,212,43,1,twofour,,,,,,,,,,,,,,,,,,,,,,,,,,,,,,,,,,,,,,,,,,,,,,,,,,,,,,,,,,,,,,,,,,,,,,,,,,,,,,,,,,,,,,,,,,,,,,,,,,,,,,,,,,,,,,,,,,,,,,,,,,,,,,,,,,,,,,,,,
,,5f5b232433097f234bc64508,2024-02-21_20h25.13.463,kallum_motion_pilot,2023.2.2,Win32,59.88023952,5f5b232433097f234bc64508,65d6bb0e977760de756971f7,65d6be57a834b53c8a8f2879,0.0858,0.0859,1,51,213,135,1,eightseven,,,,,,,,,,,,,,,,,,,,,,,,,,,,,,,,,,,,,,,,,,,,,,,,,,,,,,,,,,,,,,,,,,,,,,,,,,,,,,,,,,,,,,,,,,,,,,,,,,,,,,,,,,,,,,,,,,,,,,,,,,,,,,,,,,,,,,,,,
,,5f5b232433097f234bc64508,2024-02-21_20h25.13.463,kallum_motion_pilot,2023.2.2,Win32,59.88023952,5f5b232433097f234bc64508,65d6bb0e977760de756971f7,65d6be57a834b53c8a8f2879,0.086,0.0861,1,52,214,149,1,seveneight,,,,,,,,,,,,,,,,,,,,,,,,,,,,,,,,,,,,,,,,,,,,,,,,,,,,,,,,,,,,,,,,,,,,,,,,,,,,,,,,,,,,,,,,,,,,,,,,,,,,,,,,,,,,,,,,,,,,,,,,,,,,,,,,,,,,,,,,,
,,5f5b232433097f234bc64508,2024-02-21_20h25.13.463,kallum_motion_pilot,2023.2.2,Win32,59.88023952,5f5b232433097f234bc64508,65d6bb0e977760de756971f7,65d6be57a834b53c8a8f2879,0.0863,0.0863,1,53,215,40,1,onetwo,,,,,,,,,,,,,,,,,,,,,,,,,,,,,,,,,,,,,,,,,,,,,,,,,,,,,,,,,,,,,,,,,,,,,,,,,,,,,,,,,,,,,,,,,,,,,,,,,,,,,,,,,,,,,,,,,,,,,,,,,,,,,,,,,,,,,,,,,
,,5f5b232433097f234bc64508,2024-02-21_20h25.13.463,kallum_motion_pilot,2023.2.2,Win32,59.88023952,5f5b232433097f234bc64508,65d6bb0e977760de756971f7,65d6be57a834b53c8a8f2879,0.0865,0.0865,1,54,216,155,1,sixeight,,,,,,,,,,,,,,,,,,,,,,,,,,,,,,,,,,,,,,,,,,,,,,,,,,,,,,,,,,,,,,,,,,,,,,,,,,,,,,,,,,,,,,,,,,,,,,,,,,,,,,,,,,,,,,,,,,,,,,,,,,,,,,,,,,,,,,,,,
,,5f5b232433097f234bc64508,2024-02-21_20h25.13.463,kallum_motion_pilot,2023.2.2,Win32,59.88023952,5f5b232433097f234bc64508,65d6bb0e977760de756971f7,65d6be57a834b53c8a8f2879,0.0867,0.0869,1,55,217,62,1,fourtwo,,,,,,,,,,,,,,,,,,,,,,,,,,,,,,,,,,,,,,,,,,,,,,,,,,,,,,,,,,,,,,,,,,,,,,,,,,,,,,,,,,,,,,,,,,,,,,,,,,,,,,,,,,,,,,,,,,,,,,,,,,,,,,,,,,,,,,,,,
,,5f5b232433097f234bc64508,2024-02-21_20h25.13.463,kallum_motion_pilot,2023.2.2,Win32,59.88023952,5f5b232433097f234bc64508,65d6bb0e977760de756971f7,65d6be57a834b53c8a8f2879,0.087,0.0872,1,56,218,142,1,eightsix,,,,,,,,,,,,,,,,,,,,,,,,,,,,,,,,,,,,,,,,,,,,,,,,,,,,,,,,,,,,,,,,,,,,,,,,,,,,,,,,,,,,,,,,,,,,,,,,,,,,,,,,,,,,,,,,,,,,,,,,,,,,,,,,,,,,,,,,,
,,5f5b232433097f234bc64508,2024-02-21_20h25.13.463,kallum_motion_pilot,2023.2.2,Win32,59.88023952,5f5b232433097f234bc64508,65d6bb0e977760de756971f7,65d6be57a834b53c8a8f2879,0.0882,0.0884,1,57,219,72,1,onetwo,,,,,,,,,,,,,,,,,,,,,,,,,,,,,,,,,,,,,,,,,,,,,,,,,,,,,,,,,,,,,,,,,,,,,,,,,,,,,,,,,,,,,,,,,,,,,,,,,,,,,,,,,,,,,,,,,,,,,,,,,,,,,,,,,,,,,,,,,
,,5f5b232433097f234bc64508,2024-02-21_20h25.13.463,kallum_motion_pilot,2023.2.2,Win32,59.88023952,5f5b232433097f234bc64508,65d6bb0e977760de756971f7,65d6be57a834b53c8a8f2879,0.0887,0.0887,1,58,220,46,1,fourtwo,,,,,,,,,,,,,,,,,,,,,,,,,,,,,,,,,,,,,,,,,,,,,,,,,,,,,,,,,,,,,,,,,,,,,,,,,,,,,,,,,,,,,,,,,,,,,,,,,,,,,,,,,,,,,,,,,,,,,,,,,,,,,,,,,,,,,,,,,
,,5f5b232433097f234bc64508,2024-02-21_20h25.13.463,kallum_motion_pilot,2023.2.2,Win32,59.88023952,5f5b232433097f234bc64508,65d6bb0e977760de756971f7,65d6be57a834b53c8a8f2879,0.089,0.089,1,59,221,108,1,sevenfive,,,,,,,,,,,,,,,,,,,,,,,,,,,,,,,,,,,,,,,,,,,,,,,,,,,,,,,,,,,,,,,,,,,,,,,,,,,,,,,,,,,,,,,,,,,,,,,,,,,,,,,,,,,,,,,,,,,,,,,,,,,,,,,,,,,,,,,,,
,,5f5b232433097f234bc64508,2024-02-21_20h25.13.463,kallum_motion_pilot,2023.2.2,Win32,59.88023952,5f5b232433097f234bc64508,65d6bb0e977760de756971f7,65d6be57a834b53c8a8f2879,0.0893,0.0893,1,60,222,93,1,seveneight,,,,,,,,,,,,,,,,,,,,,,,,,,,,,,,,,,,,,,,,,,,,,,,,,,,,,,,,,,,,,,,,,,,,,,,,,,,,,,,,,,,,,,,,,,,,,,,,,,,,,,,,,,,,,,,,,,,,,,,,,,,,,,,,,,,,,,,,,
,,5f5b232433097f234bc64508,2024-02-21_20h25.13.463,kallum_motion_pilot,2023.2.2,Win32,59.88023952,5f5b232433097f234bc64508,65d6bb0e977760de756971f7,65d6be57a834b53c8a8f2879,0.0896,0.0896,1,61,223,53,1,threefour,,,,,,,,,,,,,,,,,,,,,,,,,,,,,,,,,,,,,,,,,,,,,,,,,,,,,,,,,,,,,,,,,,,,,,,,,,,,,,,,,,,,,,,,,,,,,,,,,,,,,,,,,,,,,,,,,,,,,,,,,,,,,,,,,,,,,,,,,
,,5f5b232433097f234bc64508,2024-02-21_20h25.13.463,kallum_motion_pilot,2023.2.2,Win32,59.88023952,5f5b232433097f234bc64508,65d6bb0e977760de756971f7,65d6be57a834b53c8a8f2879,0.0898,0.0899,1,62,224,121,1,fiveseven,,,,,,,,,,,,,,,,,,,,,,,,,,,,,,,,,,,,,,,,,,,,,,,,,,,,,,,,,,,,,,,,,,,,,,,,,,,,,,,,,,,,,,,,,,,,,,,,,,,,,,,,,,,,,,,,,,,,,,,,,,,,,,,,,,,,,,,,,
,,5f5b232433097f234bc64508,2024-02-21_20h25.13.463,kallum_motion_pilot,2023.2.2,Win32,59.88023952,5f5b232433097f234bc64508,65d6bb0e977760de756971f7,65d6be57a834b53c8a8f2879,0.09,0.0901,1,63,225,3,1,twofour,,,,,,,,,,,,,,,,,,,,,,,,,,,,,,,,,,,,,,,,,,,,,,,,,,,,,,,,,,,,,,,,,,,,,,,,,,,,,,,,,,,,,,,,,,,,,,,,,,,,,,,,,,,,,,,,,,,,,,,,,,,,,,,,,,,,,,,,,
,,5f5b232433097f234bc64508,2024-02-21_20h25.13.463,kallum_motion_pilot,2023.2.2,Win32,59.88023952,5f5b232433097f234bc64508,65d6bb0e977760de756971f7,65d6be57a834b53c8a8f2879,0.0903,0.0904,1,64,226,42,1,twoone,,,,,,,,,,,,,,,,,,,,,,,,,,,,,,,,,,,,,,,,,,,,,,,,,,,,,,,,,,,,,,,,,,,,,,,,,,,,,,,,,,,,,,,,,,,,,,,,,,,,,,,,,,,,,,,,,,,,,,,,,,,,,,,,,,,,,,,,,
,,5f5b232433097f234bc64508,2024-02-21_20h25.13.463,kallum_motion_pilot,2023.2.2,Win32,59.88023952,5f5b232433097f234bc64508,65d6bb0e977760de756971f7,65d6be57a834b53c8a8f2879,0.0905,0.0905,1,65,227,44,1,threeone,,,,,,,,,,,,,,,,,,,,,,,,,,,,,,,,,,,,,,,,,,,,,,,,,,,,,,,,,,,,,,,,,,,,,,,,,,,,,,,,,,,,,,,,,,,,,,,,,,,,,,,,,,,,,,,,,,,,,,,,,,,,,,,,,,,,,,,,,
,,5f5b232433097f234bc64508,2024-02-21_20h25.13.463,kallum_motion_pilot,2023.2.2,Win32,59.88023952,5f5b232433097f234bc64508,65d6bb0e977760de756971f7,65d6be57a834b53c8a8f2879,0.0907,0.0907,1,66,228,120,1,fivesix,,,,,,,,,,,,,,,,,,,,,,,,,,,,,,,,,,,,,,,,,,,,,,,,,,,,,,,,,,,,,,,,,,,,,,,,,,,,,,,,,,,,,,,,,,,,,,,,,,,,,,,,,,,,,,,,,,,,,,,,,,,,,,,,,,,,,,,,,
,,5f5b232433097f234bc64508,2024-02-21_20h25.13.463,kallum_motion_pilot,2023.2.2,Win32,59.88023952,5f5b232433097f234bc64508,65d6bb0e977760de756971f7,65d6be57a834b53c8a8f2879,0.0909,0.091,1,67,229,127,1,eightseven,,,,,,,,,,,,,,,,,,,,,,,,,,,,,,,,,,,,,,,,,,,,,,,,,,,,,,,,,,,,,,,,,,,,,,,,,,,,,,,,,,,,,,,,,,,,,,,,,,,,,,,,,,,,,,,,,,,,,,,,,,,,,,,,,,,,,,,,,
,,5f5b232433097f234bc64508,2024-02-21_20h25.13.463,kallum_motion_pilot,2023.2.2,Win32,59.88023952,5f5b232433097f234bc64508,65d6bb0e977760de756971f7,65d6be57a834b53c8a8f2879,0.0911,0.0912,1,68,230,47,1,fourthree,,,,,,,,,,,,,,,,,,,,,,,,,,,,,,,,,,,,,,,,,,,,,,,,,,,,,,,,,,,,,,,,,,,,,,,,,,,,,,,,,,,,,,,,,,,,,,,,,,,,,,,,,,,,,,,,,,,,,,,,,,,,,,,,,,,,,,,,,
,,5f5b232433097f234bc64508,2024-02-21_20h25.13.463,kallum_motion_pilot,2023.2.2,Win32,59.88023952,5f5b232433097f234bc64508,65d6bb0e977760de756971f7,65d6be57a834b53c8a8f2879,0.0913,0.0914,1,69,231,152,1,fivesix,,,,,,,,,,,,,,,,,,,,,,,,,,,,,,,,,,,,,,,,,,,,,,,,,,,,,,,,,,,,,,,,,,,,,,,,,,,,,,,,,,,,,,,,,,,,,,,,,,,,,,,,,,,,,,,,,,,,,,,,,,,,,,,,,,,,,,,,,
,,5f5b232433097f234bc64508,2024-02-21_20h25.13.463,kallum_motion_pilot,2023.2.2,Win32,59.88023952,5f5b232433097f234bc64508,65d6bb0e977760de756971f7,65d6be57a834b53c8a8f2879,0.0915,0.0916,1,70,232,154,1,sixfive,,,,,,,,,,,,,,,,,,,,,,,,,,,,,,,,,,,,,,,,,,,,,,,,,,,,,,,,,,,,,,,,,,,,,,,,,,,,,,,,,,,,,,,,,,,,,,,,,,,,,,,,,,,,,,,,,,,,,,,,,,,,,,,,,,,,,,,,,
,,5f5b232433097f234bc64508,2024-02-21_20h25.13.463,kallum_motion_pilot,2023.2.2,Win32,59.88023952,5f5b232433097f234bc64508,65d6bb0e977760de756971f7,65d6be57a834b53c8a8f2879,0.0917,0.0918,1,71,233,145,1,fiveseven,,,,,,,,,,,,,,,,,,,,,,,,,,,,,,,,,,,,,,,,,,,,,,,,,,,,,,,,,,,,,,,,,,,,,,,,,,,,,,,,,,,,,,,,,,,,,,,,,,,,,,,,,,,,,,,,,,,,,,,,,,,,,,,,,,,,,,,,,
,,5f5b232433097f234bc64508,2024-02-21_20h25.13.463,kallum_motion_pilot,2023.2.2,Win32,59.88023952,5f5b232433097f234bc64508,65d6bb0e977760de756971f7,65d6be57a834b53c8a8f2879,0.0919,0.0921,1,72,234,7,1,fourthree,,,,,,,,,,,,,,,,,,,,,,,,,,,,,,,,,,,,,,,,,,,,,,,,,,,,,,,,,,,,,,,,,,,,,,,,,,,,,,,,,,,,,,,,,,,,,,,,,,,,,,,,,,,,,,,,,,,,,,,,,,,,,,,,,,,,,,,,,
,,5f5b232433097f234bc64508,2024-02-21_20h25.13.463,kallum_motion_pilot,2023.2.2,Win32,59.88023952,5f5b232433097f234bc64508,65d6bb0e977760de756971f7,65d6be57a834b53c8a8f2879,0.0922,0.0923,1,73,235,20,1,threeone,,,,,,,,,,,,,,,,,,,,,,,,,,,,,,,,,,,,,,,,,,,,,,,,,,,,,,,,,,,,,,,,,,,,,,,,,,,,,,,,,,,,,,,,,,,,,,,,,,,,,,,,,,,,,,,,,,,,,,,,,,,,,,,,,,,,,,,,,
,,5f5b232433097f234bc64508,2024-02-21_20h25.13.463,kallum_motion_pilot,2023.2.2,Win32,59.88023952,5f5b232433097f234bc64508,65d6bb0e977760de756971f7,65d6be57a834b53c8a8f2879,0.0924,0.0924,1,74,236,94,1,eightsix,,,,,,,,,,,,,,,,,,,,,,,,,,,,,,,,,,,,,,,,,,,,,,,,,,,,,,,,,,,,,,,,,,,,,,,,,,,,,,,,,,,,,,,,,,,,,,,,,,,,,,,,,,,,,,,,,,,,,,,,,,,,,,,,,,,,,,,,,
,,5f5b232433097f234bc64508,2024-02-21_20h25.13.463,kallum_motion_pilot,2023.2.2,Win32,59.88023952,5f5b232433097f234bc64508,65d6bb0e977760de756971f7,65d6be57a834b53c8a8f2879,0.0925,0.0927,1,75,237,9,1,onethree,,,,,,,,,,,,,,,,,,,,,,,,,,,,,,,,,,,,,,,,,,,,,,,,,,,,,,,,,,,,,,,,,,,,,,,,,,,,,,,,,,,,,,,,,,,,,,,,,,,,,,,,,,,,,,,,,,,,,,,,,,,,,,,,,,,,,,,,,
,,5f5b232433097f234bc64508,2024-02-21_20h25.13.463,kallum_motion_pilot,2023.2.2,Win32,59.88023952,5f5b232433097f234bc64508,65d6bb0e977760de756971f7,65d6be57a834b53c8a8f2879,0.0928,0.093,1,76,238,59,1,twofour,,,,,,,,,,,,,,,,,,,,,,,,,,,,,,,,,,,,,,,,,,,,,,,,,,,,,,,,,,,,,,,,,,,,,,,,,,,,,,,,,,,,,,,,,,,,,,,,,,,,,,,,,,,,,,,,,,,,,,,,,,,,,,,,,,,,,,,,,
,,5f5b232433097f234bc64508,2024-02-21_20h25.13.463,kallum_motion_pilot,2023.2.2,Win32,59.88023952,5f5b232433097f234bc64508,65d6bb0e977760de756971f7,65d6be57a834b53c8a8f2879,0.093,0.0931,1,77,239,126,1,eightsix,,,,,,,,,,,,,,,,,,,,,,,,,,,,,,,,,,,,,,,,,,,,,,,,,,,,,,,,,,,,,,,,,,,,,,,,,,,,,,,,,,,,,,,,,,,,,,,,,,,,,,,,,,,,,,,,,,,,,,,,,,,,,,,,,,,,,,,,,
,,5f5b232433097f234bc64508,2024-02-21_20h25.13.463,kallum_motion_pilot,2023.2.2,Win32,59.88023952,5f5b232433097f234bc64508,65d6bb0e977760de756971f7,65d6be57a834b53c8a8f2879,0.0933,0.0933,1,78,240,45,1,threefour,,,,,,,,,,,,,,,,,,,,,,,,,,,,,,,,,,,,,,,,,,,,,,,,,,,,,,,,,,,,,,,,,,,,,,,,,,,,,,,,,,,,,,,,,,,,,,,,,,,,,,,,,,,,,,,,,,,,,,,,,,,,,,,,,,,,,,,,,
,,5f5b232433097f234bc64508,2024-02-21_20h25.13.463,kallum_motion_pilot,2023.2.2,Win32,59.88023952,5f5b232433097f234bc64508,65d6bb0e977760de756971f7,65d6be57a834b53c8a8f2879,0.0935,0.0935,1,79,241,11,1,twofour,,,,,,,,,,,,,,,,,,,,,,,,,,,,,,,,,,,,,,,,,,,,,,,,,,,,,,,,,,,,,,,,,,,,,,,,,,,,,,,,,,,,,,,,,,,,,,,,,,,,,,,,,,,,,,,,,,,,,,,,,,,,,,,,,,,,,,,,,
,,5f5b232433097f234bc64508,2024-02-21_20h25.13.463,kallum_motion_pilot,2023.2.2,Win32,59.88023952,5f5b232433097f234bc64508,65d6bb0e977760de756971f7,65d6be57a834b53c8a8f2879,0.0937,0.0938,1,80,242,132,1,sevenfive,,,,,,,,,,,,,,,,,,,,,,,,,,,,,,,,,,,,,,,,,,,,,,,,,,,,,,,,,,,,,,,,,,,,,,,,,,,,,,,,,,,,,,,,,,,,,,,,,,,,,,,,,,,,,,,,,,,,,,,,,,,,,,,,,,,,,,,,,
,,5f5b232433097f234bc64508,2024-02-21_20h25.13.463,kallum_motion_pilot,2023.2.2,Win32,59.88023952,5f5b232433097f234bc64508,65d6bb0e977760de756971f7,65d6be57a834b53c8a8f2879,0.0938,0.094,1,81,243,85,1,seveneight,,,,,,,,,,,,,,,,,,,,,,,,,,,,,,,,,,,,,,,,,,,,,,,,,,,,,,,,,,,,,,,,,,,,,,,,,,,,,,,,,,,,,,,,,,,,,,,,,,,,,,,,,,,,,,,,,,,,,,,,,,,,,,,,,,,,,,,,,
,,5f5b232433097f234bc64508,2024-02-21_20h25.13.463,kallum_motion_pilot,2023.2.2,Win32,59.88023952,5f5b232433097f234bc64508,65d6bb0e977760de756971f7,65d6be57a834b53c8a8f2879,0.0941,0.0942,1,82,244,92,1,sevenfive,,,,,,,,,,,,,,,,,,,,,,,,,,,,,,,,,,,,,,,,,,,,,,,,,,,,,,,,,,,,,,,,,,,,,,,,,,,,,,,,,,,,,,,,,,,,,,,,,,,,,,,,,,,,,,,,,,,,,,,,,,,,,,,,,,,,,,,,,
,,5f5b232433097f234bc64508,2024-02-21_20h25.13.463,kallum_motion_pilot,2023.2.2,Win32,59.88023952,5f5b232433097f234bc64508,65d6bb0e977760de756971f7,65d6be57a834b53c8a8f2879,0.0944,0.0944,1,83,245,138,1,sixfive,,,,,,,,,,,,,,,,,,,,,,,,,,,,,,,,,,,,,,,,,,,,,,,,,,,,,,,,,,,,,,,,,,,,,,,,,,,,,,,,,,,,,,,,,,,,,,,,,,,,,,,,,,,,,,,,,,,,,,,,,,,,,,,,,,,,,,,,,
,,5f5b232433097f234bc64508,2024-02-21_20h25.13.463,kallum_motion_pilot,2023.2.2,Win32,59.88023952,5f5b232433097f234bc64508,65d6bb0e977760de756971f7,65d6be57a834b53c8a8f2879,0.0945,0.0946,1,84,246,49,1,onethree,,,,,,,,,,,,,,,,,,,,,,,,,,,,,,,,,,,,,,,,,,,,,,,,,,,,,,,,,,,,,,,,,,,,,,,,,,,,,,,,,,,,,,,,,,,,,,,,,,,,,,,,,,,,,,,,,,,,,,,,,,,,,,,,,,,,,,,,,
,,5f5b232433097f234bc64508,2024-02-21_20h25.13.463,kallum_motion_pilot,2023.2.2,Win32,59.88023952,5f5b232433097f234bc64508,65d6bb0e977760de756971f7,65d6be57a834b53c8a8f2879,0.0947,0.0948,1,85,247,156,1,sevenfive,,,,,,,,,,,,,,,,,,,,,,,,,,,,,,,,,,,,,,,,,,,,,,,,,,,,,,,,,,,,,,,,,,,,,,,,,,,,,,,,,,,,,,,,,,,,,,,,,,,,,,,,,,,,,,,,,,,,,,,,,,,,,,,,,,,,,,,,,
,,5f5b232433097f234bc64508,2024-02-21_20h25.13.463,kallum_motion_pilot,2023.2.2,Win32,59.88023952,5f5b232433097f234bc64508,65d6bb0e977760de756971f7,65d6be57a834b53c8a8f2879,0.0949,0.0951,1,86,248,150,1,eightsix,,,,,,,,,,,,,,,,,,,,,,,,,,,,,,,,,,,,,,,,,,,,,,,,,,,,,,,,,,,,,,,,,,,,,,,,,,,,,,,,,,,,,,,,,,,,,,,,,,,,,,,,,,,,,,,,,,,,,,,,,,,,,,,,,,,,,,,,,
,,5f5b232433097f234bc64508,2024-02-21_20h25.13.463,kallum_motion_pilot,2023.2.2,Win32,59.88023952,5f5b232433097f234bc64508,65d6bb0e977760de756971f7,65d6be57a834b53c8a8f2879,0.0952,0.0952,1,87,249,33,1,onethree,,,,,,,,,,,,,,,,,,,,,,,,,,,,,,,,,,,,,,,,,,,,,,,,,,,,,,,,,,,,,,,,,,,,,,,,,,,,,,,,,,,,,,,,,,,,,,,,,,,,,,,,,,,,,,,,,,,,,,,,,,,,,,,,,,,,,,,,,
,,5f5b232433097f234bc64508,2024-02-21_20h25.13.463,kallum_motion_pilot,2023.2.2,Win32,59.88023952,5f5b232433097f234bc64508,65d6bb0e977760de756971f7,65d6be57a834b53c8a8f2879,0.0954,0.0955,1,88,250,24,1,onetwo,,,,,,,,,,,,,,,,,,,,,,,,,,,,,,,,,,,,,,,,,,,,,,,,,,,,,,,,,,,,,,,,,,,,,,,,,,,,,,,,,,,,,,,,,,,,,,,,,,,,,,,,,,,,,,,,,,,,,,,,,,,,,,,,,,,,,,,,,
,,5f5b232433097f234bc64508,2024-02-21_20h25.13.463,kallum_motion_pilot,2023.2.2,Win32,59.88023952,5f5b232433097f234bc64508,65d6bb0e977760de756971f7,65d6be57a834b53c8a8f2879,0.0956,0.0957,1,89,251,0,1,onetwo,,,,,,,,,,,,,,,,,,,,,,,,,,,,,,,,,,,,,,,,,,,,,,,,,,,,,,,,,,,,,,,,,,,,,,,,,,,,,,,,,,,,,,,,,,,,,,,,,,,,,,,,,,,,,,,,,,,,,,,,,,,,,,,,,,,,,,,,,
,,5f5b232433097f234bc64508,2024-02-21_20h25.13.463,kallum_motion_pilot,2023.2.2,Win32,59.88023952,5f5b232433097f234bc64508,65d6bb0e977760de756971f7,65d6be57a834b53c8a8f2879,0.0958,0.0959,1,90,252,65,1,onethree,,,,,,,,,,,,,,,,,,,,,,,,,,,,,,,,,,,,,,,,,,,,,,,,,,,,,,,,,,,,,,,,,,,,,,,,,,,,,,,,,,,,,,,,,,,,,,,,,,,,,,,,,,,,,,,,,,,,,,,,,,,,,,,,,,,,,,,,,
,,5f5b232433097f234bc64508,2024-02-21_20h25.13.463,kallum_motion_pilot,2023.2.2,Win32,59.88023952,5f5b232433097f234bc64508,65d6bb0e977760de756971f7,65d6be57a834b53c8a8f2879,0.096,0.0961,1,91,253,25,1,onethree,,,,,,,,,,,,,,,,,,,,,,,,,,,,,,,,,,,,,,,,,,,,,,,,,,,,,,,,,,,,,,,,,,,,,,,,,,,,,,,,,,,,,,,,,,,,,,,,,,,,,,,,,,,,,,,,,,,,,,,,,,,,,,,,,,,,,,,,,
,,5f5b232433097f234bc64508,2024-02-21_20h25.13.463,kallum_motion_pilot,2023.2.2,Win32,59.88023952,5f5b232433097f234bc64508,65d6bb0e977760de756971f7,65d6be57a834b53c8a8f2879,0.0962,0.0963,1,92,254,32,1,onetwo,,,,,,,,,,,,,,,,,,,,,,,,,,,,,,,,,,,,,,,,,,,,,,,,,,,,,,,,,,,,,,,,,,,,,,,,,,,,,,,,,,,,,,,,,,,,,,,,,,,,,,,,,,,,,,,,,,,,,,,,,,,,,,,,,,,,,,,,,
,,5f5b232433097f234bc64508,2024-02-21_20h25.13.463,kallum_motion_pilot,2023.2.2,Win32,59.88023952,5f5b232433097f234bc64508,65d6bb0e977760de756971f7,65d6be57a834b53c8a8f2879,0.0965,0.0966,1,93,255,52,1,threeone,,,,,,,,,,,,,,,,,,,,,,,,,,,,,,,,,,,,,,,,,,,,,,,,,,,,,,,,,,,,,,,,,,,,,,,,,,,,,,,,,,,,,,,,,,,,,,,,,,,,,,,,,,,,,,,,,,,,,,,,,,,,,,,,,,,,,,,,,
,,5f5b232433097f234bc64508,2024-02-21_20h25.13.463,kallum_motion_pilot,2023.2.2,Win32,59.88023952,5f5b232433097f234bc64508,65d6bb0e977760de756971f7,65d6be57a834b53c8a8f2879,0.0968,0.0969,1,94,256,107,1,sixeight,,,,,,,,,,,,,,,,,,,,,,,,,,,,,,,,,,,,,,,,,,,,,,,,,,,,,,,,,,,,,,,,,,,,,,,,,,,,,,,,,,,,,,,,,,,,,,,,,,,,,,,,,,,,,,,,,,,,,,,,,,,,,,,,,,,,,,,,,
,,5f5b232433097f234bc64508,2024-02-21_20h25.13.463,kallum_motion_pilot,2023.2.2,Win32,59.88023952,5f5b232433097f234bc64508,65d6bb0e977760de756971f7,65d6be57a834b53c8a8f2879,0.0971,0.0972,1,95,257,103,1,eightseven,,,,,,,,,,,,,,,,,,,,,,,,,,,,,,,,,,,,,,,,,,,,,,,,,,,,,,,,,,,,,,,,,,,,,,,,,,,,,,,,,,,,,,,,,,,,,,,,,,,,,,,,,,,,,,,,,,,,,,,,,,,,,,,,,,,,,,,,,
,,5f5b232433097f234bc64508,2024-02-21_20h25.13.463,kallum_motion_pilot,2023.2.2,Win32,59.88023952,5f5b232433097f234bc64508,65d6bb0e977760de756971f7,65d6be57a834b53c8a8f2879,0.0974,0.0974,1,96,258,116,1,sevenfive,,,,,,,,,,,,,,,,,,,,,,,,,,,,,,,,,,,,,,,,,,,,,,,,,,,,,,,,,,,,,,,,,,,,,,,,,,,,,,,,,,,,,,,,,,,,,,,,,,,,,,,,,,,,,,,,,,,,,,,,,,,,,,,,,,,,,,,,,
,,5f5b232433097f234bc64508,2024-02-21_20h25.13.463,kallum_motion_pilot,2023.2.2,Win32,59.88023952,5f5b232433097f234bc64508,65d6bb0e977760de756971f7,65d6be57a834b53c8a8f2879,0.0976,0.0977,1,97,259,58,1,twoone,,,,,,,,,,,,,,,,,,,,,,,,,,,,,,,,,,,,,,,,,,,,,,,,,,,,,,,,,,,,,,,,,,,,,,,,,,,,,,,,,,,,,,,,,,,,,,,,,,,,,,,,,,,,,,,,,,,,,,,,,,,,,,,,,,,,,,,,,
,,5f5b232433097f234bc64508,2024-02-21_20h25.13.463,kallum_motion_pilot,2023.2.2,Win32,59.88023952,5f5b232433097f234bc64508,65d6bb0e977760de756971f7,65d6be57a834b53c8a8f2879,0.0978,0.0979,1,98,260,141,1,seveneight,,,,,,,,,,,,,,,,,,,,,,,,,,,,,,,,,,,,,,,,,,,,,,,,,,,,,,,,,,,,,,,,,,,,,,,,,,,,,,,,,,,,,,,,,,,,,,,,,,,,,,,,,,,,,,,,,,,,,,,,,,,,,,,,,,,,,,,,,
,,5f5b232433097f234bc64508,2024-02-21_20h25.13.463,kallum_motion_pilot,2023.2.2,Win32,59.88023952,5f5b232433097f234bc64508,65d6bb0e977760de756971f7,65d6be57a834b53c8a8f2879,0.098,0.0981,1,99,261,27,1,twofour,,,,,,,,,,,,,,,,,,,,,,,,,,,,,,,,,,,,,,,,,,,,,,,,,,,,,,,,,,,,,,,,,,,,,,,,,,,,,,,,,,,,,,,,,,,,,,,,,,,,,,,,,,,,,,,,,,,,,,,,,,,,,,,,,,,,,,,,,
,,5f5b232433097f234bc64508,2024-02-21_20h25.13.463,kallum_motion_pilot,2023.2.2,Win32,59.88023952,5f5b232433097f234bc64508,65d6bb0e977760de756971f7,65d6be57a834b53c8a8f2879,0.0982,0.0983,1,100,262,68,1,threeone,,,,,,,,,,,,,,,,,,,,,,,,,,,,,,,,,,,,,,,,,,,,,,,,,,,,,,,,,,,,,,,,,,,,,,,,,,,,,,,,,,,,,,,,,,,,,,,,,,,,,,,,,,,,,,,,,,,,,,,,,,,,,,,,,,,,,,,,,
,,5f5b232433097f234bc64508,2024-02-21_20h25.13.463,kallum_motion_pilot,2023.2.2,Win32,59.88023952,5f5b232433097f234bc64508,65d6bb0e977760de756971f7,65d6be57a834b53c8a8f2879,0.0984,0.0986,1,101,263,17,1,onethree,,,,,,,,,,,,,,,,,,,,,,,,,,,,,,,,,,,,,,,,,,,,,,,,,,,,,,,,,,,,,,,,,,,,,,,,,,,,,,,,,,,,,,,,,,,,,,,,,,,,,,,,,,,,,,,,,,,,,,,,,,,,,,,,,,,,,,,,,
,,5f5b232433097f234bc64508,2024-02-21_20h25.13.463,kallum_motion_pilot,2023.2.2,Win32,59.88023952,5f5b232433097f234bc64508,65d6bb0e977760de756971f7,65d6be57a834b53c8a8f2879,0.0986,0.0988,1,102,264,21,1,threefour,,,,,,,,,,,,,,,,,,,,,,,,,,,,,,,,,,,,,,,,,,,,,,,,,,,,,,,,,,,,,,,,,,,,,,,,,,,,,,,,,,,,,,,,,,,,,,,,,,,,,,,,,,,,,,,,,,,,,,,,,,,,,,,,,,,,,,,,,
,,5f5b232433097f234bc64508,2024-02-21_20h25.13.463,kallum_motion_pilot,2023.2.2,Win32,59.88023952,5f5b232433097f234bc64508,65d6bb0e977760de756971f7,65d6be57a834b53c8a8f2879,0.099,0.0991,1,103,265,15,1,fourthree,,,,,,,,,,,,,,,,,,,,,,,,,,,,,,,,,,,,,,,,,,,,,,,,,,,,,,,,,,,,,,,,,,,,,,,,,,,,,,,,,,,,,,,,,,,,,,,,,,,,,,,,,,,,,,,,,,,,,,,,,,,,,,,,,,,,,,,,,
,,5f5b232433097f234bc64508,2024-02-21_20h25.13.463,kallum_motion_pilot,2023.2.2,Win32,59.88023952,5f5b232433097f234bc64508,65d6bb0e977760de756971f7,65d6be57a834b53c8a8f2879,0.0992,0.0993,1,104,266,19,1,twofour,,,,,,,,,,,,,,,,,,,,,,,,,,,,,,,,,,,,,,,,,,,,,,,,,,,,,,,,,,,,,,,,,,,,,,,,,,,,,,,,,,,,,,,,,,,,,,,,,,,,,,,,,,,,,,,,,,,,,,,,,,,,,,,,,,,,,,,,,
,,5f5b232433097f234bc64508,2024-02-21_20h25.13.463,kallum_motion_pilot,2023.2.2,Win32,59.88023952,5f5b232433097f234bc64508,65d6bb0e977760de756971f7,65d6be57a834b53c8a8f2879,0.0994,0.0995,1,105,267,61,1,threefour,,,,,,,,,,,,,,,,,,,,,,,,,,,,,,,,,,,,,,,,,,,,,,,,,,,,,,,,,,,,,,,,,,,,,,,,,,,,,,,,,,,,,,,,,,,,,,,,,,,,,,,,,,,,,,,,,,,,,,,,,,,,,,,,,,,,,,,,,
,,5f5b232433097f234bc64508,2024-02-21_20h25.13.463,kallum_motion_pilot,2023.2.2,Win32,59.88023952,5f5b232433097f234bc64508,65d6bb0e977760de756971f7,65d6be57a834b53c8a8f2879,0.0997,0.0997,1,106,268,64,1,onetwo,,,,,,,,,,,,,,,,,,,,,,,,,,,,,,,,,,,,,,,,,,,,,,,,,,,,,,,,,,,,,,,,,,,,,,,,,,,,,,,,,,,,,,,,,,,,,,,,,,,,,,,,,,,,,,,,,,,,,,,,,,,,,,,,,,,,,,,,,
,,5f5b232433097f234bc64508,2024-02-21_20h25.13.463,kallum_motion_pilot,2023.2.2,Win32,59.88023952,5f5b232433097f234bc64508,65d6bb0e977760de756971f7,65d6be57a834b53c8a8f2879,0.0999,0.1,1,107,269,38,1,fourtwo,,,,,,,,,,,,,,,,,,,,,,,,,,,,,,,,,,,,,,,,,,,,,,,,,,,,,,,,,,,,,,,,,,,,,,,,,,,,,,,,,,,,,,,,,,,,,,,,,,,,,,,,,,,,,,,,,,,,,,,,,,,,,,,,,,,,,,,,,
,,5f5b232433097f234bc64508,2024-02-21_20h25.13.463,kallum_motion_pilot,2023.2.2,Win32,59.88023952,5f5b232433097f234bc64508,65d6bb0e977760de756971f7,65d6be57a834b53c8a8f2879,0.1001,0.1002,1,108,270,69,1,threefour,,,,,,,,,,,,,,,,,,,,,,,,,,,,,,,,,,,,,,,,,,,,,,,,,,,,,,,,,,,,,,,,,,,,,,,,,,,,,,,,,,,,,,,,,,,,,,,,,,,,,,,,,,,,,,,,,,,,,,,,,,,,,,,,,,,,,,,,,
,,5f5b232433097f234bc64508,2024-02-21_20h25.13.463,kallum_motion_pilot,2023.2.2,Win32,59.88023952,5f5b232433097f234bc64508,65d6bb0e977760de756971f7,65d6be57a834b53c8a8f2879,0.1003,0.1005,1,109,271,83,1,sixeight,,,,,,,,,,,,,,,,,,,,,,,,,,,,,,,,,,,,,,,,,,,,,,,,,,,,,,,,,,,,,,,,,,,,,,,,,,,,,,,,,,,,,,,,,,,,,,,,,,,,,,,,,,,,,,,,,,,,,,,,,,,,,,,,,,,,,,,,,
,,5f5b232433097f234bc64508,2024-02-21_20h25.13.463,kallum_motion_pilot,2023.2.2,Win32,59.88023952,5f5b232433097f234bc64508,65d6bb0e977760de756971f7,65d6be57a834b53c8a8f2879,0.1006,0.1006,1,110,272,48,1,onetwo,,,,,,,,,,,,,,,,,,,,,,,,,,,,,,,,,,,,,,,,,,,,,,,,,,,,,,,,,,,,,,,,,,,,,,,,,,,,,,,,,,,,,,,,,,,,,,,,,,,,,,,,,,,,,,,,,,,,,,,,,,,,,,,,,,,,,,,,,
,,5f5b232433097f234bc64508,2024-02-21_20h25.13.463,kallum_motion_pilot,2023.2.2,Win32,59.88023952,5f5b232433097f234bc64508,65d6bb0e977760de756971f7,65d6be57a834b53c8a8f2879,0.1008,0.1009,1,111,273,98,1,sixfive,,,,,,,,,,,,,,,,,,,,,,,,,,,,,,,,,,,,,,,,,,,,,,,,,,,,,,,,,,,,,,,,,,,,,,,,,,,,,,,,,,,,,,,,,,,,,,,,,,,,,,,,,,,,,,,,,,,,,,,,,,,,,,,,,,,,,,,,,
,,5f5b232433097f234bc64508,2024-02-21_20h25.13.463,kallum_motion_pilot,2023.2.2,Win32,59.88023952,5f5b232433097f234bc64508,65d6bb0e977760de756971f7,65d6be57a834b53c8a8f2879,0.101,0.1011,1,112,274,29,1,threefour,,,,,,,,,,,,,,,,,,,,,,,,,,,,,,,,,,,,,,,,,,,,,,,,,,,,,,,,,,,,,,,,,,,,,,,,,,,,,,,,,,,,,,,,,,,,,,,,,,,,,,,,,,,,,,,,,,,,,,,,,,,,,,,,,,,,,,,,,
,,5f5b232433097f234bc64508,2024-02-21_20h25.13.463,kallum_motion_pilot,2023.2.2,Win32,59.88023952,5f5b232433097f234bc64508,65d6bb0e977760de756971f7,65d6be57a834b53c8a8f2879,0.1013,0.1013,1,113,275,125,1,seveneight,,,,,,,,,,,,,,,,,,,,,,,,,,,,,,,,,,,,,,,,,,,,,,,,,,,,,,,,,,,,,,,,,,,,,,,,,,,,,,,,,,,,,,,,,,,,,,,,,,,,,,,,,,,,,,,,,,,,,,,,,,,,,,,,,,,,,,,,,
,,5f5b232433097f234bc64508,2024-02-21_20h25.13.463,kallum_motion_pilot,2023.2.2,Win32,59.88023952,5f5b232433097f234bc64508,65d6bb0e977760de756971f7,65d6be57a834b53c8a8f2879,0.1015,0.1015,1,114,276,159,1,eightseven,,,,,,,,,,,,,,,,,,,,,,,,,,,,,,,,,,,,,,,,,,,,,,,,,,,,,,,,,,,,,,,,,,,,,,,,,,,,,,,,,,,,,,,,,,,,,,,,,,,,,,,,,,,,,,,,,,,,,,,,,,,,,,,,,,,,,,,,,
,,5f5b232433097f234bc64508,2024-02-21_20h25.13.463,kallum_motion_pilot,2023.2.2,Win32,59.88023952,5f5b232433097f234bc64508,65d6bb0e977760de756971f7,65d6be57a834b53c8a8f2879,0.1016,0.1018,1,115,277,148,1,sevenfive,,,,,,,,,,,,,,,,,,,,,,,,,,,,,,,,,,,,,,,,,,,,,,,,,,,,,,,,,,,,,,,,,,,,,,,,,,,,,,,,,,,,,,,,,,,,,,,,,,,,,,,,,,,,,,,,,,,,,,,,,,,,,,,,,,,,,,,,,
