startup.started,startup.stopped,Prolific ID*,date,expName,psychopyVersion,OS,frameRate,participant,study_id,session,stimpositions.started,stimpositions.stopped,hardcoded_stimulus_positions.thisRepN,hardcoded_stimulus_positions.thisTrialN,hardcoded_stimulus_positions.thisN,hardcoded_stimulus_positions.thisIndex,hardcoded_stimulus_positions.ran,StimulusPos,stimorientation.started,stimorientation.stopped,prac_stimorientation_import_loop.thisRepN,prac_stimorientation_import_loop.thisTrialN,prac_stimorientation_import_loop.thisN,prac_stimorientation_import_loop.thisIndex,prac_stimorientation_import_loop.ran,Stimorientation,welcome_instr.started,welcome_instr.stopped,key_resp.keys,key_resp.rt,key_resp.duration,response_steppedout_1.started,response_steppedout_1.stopped,key_resp_20.keys,key_resp_20.rt,key_resp_20.duration,response_steppedout_2.started,response_steppedout_2.stopped,key_resp_19.keys,key_resp_19.rt,key_resp_19.duration,stim_response_instr.started,stim_response_instr.stopped,key_resp_15.keys,key_resp_15.rt,key_resp_15.duration,direction_instr_2.started,direction_instr_2.stopped,key_resp_9.keys,key_resp_9.rt,key_resp_9.duration,instr_prac.started,instr_prac.stopped,key_resp_10.keys,key_resp_10.rt,key_resp_10.duration,Stim1_display_prac.started,Stim1_display_prac.stopped,Ecc,Circle1_ori,Circle2_ori,response_prac.started,similarity,response_time,response_prac.stopped,mouse_5.x,mouse_5.y,mouse_5.leftButton,mouse_5.midButton,mouse_5.rightButton,mouse_5.clicked_name,responseprac_feedback.started,responseprac_feedback.stopped,summary2_prac.started,summary2_prac.stopped,mouse_6.x,mouse_6.y,mouse_6.leftButton,mouse_6.midButton,mouse_6.rightButton,mouse_6.clicked_name,duringprac.thisRepN,duringprac.thisTrialN,duringprac.thisN,duringprac.thisIndex,duringprac.ran,begin.started,begin.stopped,key_resp_22.keys,key_resp_22.rt,key_resp_22.duration,Stim1_display.started,Stim1_display.stopped,circle1_ori,circle2_ori,circle1_SF,circle2_SF,response.started,response.stopped,mouse.x,mouse.y,mouse.leftButton,mouse.midButton,mouse.rightButton,mouse.clicked_name,trialnumber,double_pass.thisRepN,double_pass.thisTrialN,double_pass.thisN,double_pass.thisIndex,double_pass.ran,double_pass.order,main_trial.thisRepN,main_trial.thisTrialN,main_trial.thisN,main_trial.thisIndex,main_trial.ran,main_trial.order,Trial_Counter,Catch,Frequencies,response_2.started,response_2.stopped,mouse_2.x,mouse_2.y,mouse_2.leftButton,mouse_2.midButton,mouse_2.rightButton,mouse_2.clicked_name,special_trial.started,special_trial.stopped,catch_1.started,catch_1.stopped,mouse_3.x,mouse_3.y,mouse_3.leftButton,mouse_3.midButton,mouse_3.rightButton,catchresponse,catchnumber,response_time_catch,response_sum.started,response_sum.stopped,mouse_11.x,mouse_11.y,mouse_11.leftButton,mouse_11.midButton,mouse_11.rightButton,flip_presentation_sequence_for_double_pass.started,flip_presentation_sequence_for_double_pass.stopped,goodbye.started,goodbye.stopped,key_resp_3.keys,key_resp_3.rt,key_resp_3.duration
0.0008,0.0014,5f7737e3d3a6410bfdcb06f2,2024-02-22_24h26.33.421,kallum_motion_pilot,2023.2.2,Win32,59.88023952,5f7737e3d3a6410bfdcb06f2,65d6bb0e977760de756971f7,65d6bed2210973f7d2836d4c,,,,,,,,,,,,,,,,,,,,,,,,,,,,,,,,,,,,,,,,,,,,,,,,,,,,,,,,,,,,,,,,,,,,,,,,,,,,,,,,,,,,,,,,,,,,,,,,,,,,,,,,,,,,,,,,,,,,,,,,,,,,,,,,,,,,,,,,,,,,,,,,,
,,5f7737e3d3a6410bfdcb06f2,2024-02-22_24h26.33.421,kallum_motion_pilot,2023.2.2,Win32,59.88023952,5f7737e3d3a6410bfdcb06f2,65d6bb0e977760de756971f7,65d6bed2210973f7d2836d4c,0.055,0.0556,0,0,0,133,1,seveneight,,,,,,,,,,,,,,,,,,,,,,,,,,,,,,,,,,,,,,,,,,,,,,,,,,,,,,,,,,,,,,,,,,,,,,,,,,,,,,,,,,,,,,,,,,,,,,,,,,,,,,,,,,,,,,,,,,,,,,,,,,,,,,,,,,,,,,,,,
,,5f7737e3d3a6410bfdcb06f2,2024-02-22_24h26.33.421,kallum_motion_pilot,2023.2.2,Win32,59.88023952,5f7737e3d3a6410bfdcb06f2,65d6bb0e977760de756971f7,65d6bed2210973f7d2836d4c,0.0563,0.0564,0,1,1,96,1,fivesix,,,,,,,,,,,,,,,,,,,,,,,,,,,,,,,,,,,,,,,,,,,,,,,,,,,,,,,,,,,,,,,,,,,,,,,,,,,,,,,,,,,,,,,,,,,,,,,,,,,,,,,,,,,,,,,,,,,,,,,,,,,,,,,,,,,,,,,,,
,,5f7737e3d3a6410bfdcb06f2,2024-02-22_24h26.33.421,kallum_motion_pilot,2023.2.2,Win32,59.88023952,5f7737e3d3a6410bfdcb06f2,65d6bb0e977760de756971f7,65d6bed2210973f7d2836d4c,0.0567,0.0569,0,2,2,85,1,seveneight,,,,,,,,,,,,,,,,,,,,,,,,,,,,,,,,,,,,,,,,,,,,,,,,,,,,,,,,,,,,,,,,,,,,,,,,,,,,,,,,,,,,,,,,,,,,,,,,,,,,,,,,,,,,,,,,,,,,,,,,,,,,,,,,,,,,,,,,,
,,5f7737e3d3a6410bfdcb06f2,2024-02-22_24h26.33.421,kallum_motion_pilot,2023.2.2,Win32,59.88023952,5f7737e3d3a6410bfdcb06f2,65d6bb0e977760de756971f7,65d6bed2210973f7d2836d4c,0.0574,0.0574,0,3,3,120,1,fivesix,,,,,,,,,,,,,,,,,,,,,,,,,,,,,,,,,,,,,,,,,,,,,,,,,,,,,,,,,,,,,,,,,,,,,,,,,,,,,,,,,,,,,,,,,,,,,,,,,,,,,,,,,,,,,,,,,,,,,,,,,,,,,,,,,,,,,,,,,
,,5f7737e3d3a6410bfdcb06f2,2024-02-22_24h26.33.421,kallum_motion_pilot,2023.2.2,Win32,59.88023952,5f7737e3d3a6410bfdcb06f2,65d6bb0e977760de756971f7,65d6bed2210973f7d2836d4c,0.0579,0.0579,0,4,4,11,1,twofour,,,,,,,,,,,,,,,,,,,,,,,,,,,,,,,,,,,,,,,,,,,,,,,,,,,,,,,,,,,,,,,,,,,,,,,,,,,,,,,,,,,,,,,,,,,,,,,,,,,,,,,,,,,,,,,,,,,,,,,,,,,,,,,,,,,,,,,,,
,,5f7737e3d3a6410bfdcb06f2,2024-02-22_24h26.33.421,kallum_motion_pilot,2023.2.2,Win32,59.88023952,5f7737e3d3a6410bfdcb06f2,65d6bb0e977760de756971f7,65d6bed2210973f7d2836d4c,0.0583,0.0584,0,5,5,128,1,fivesix,,,,,,,,,,,,,,,,,,,,,,,,,,,,,,,,,,,,,,,,,,,,,,,,,,,,,,,,,,,,,,,,,,,,,,,,,,,,,,,,,,,,,,,,,,,,,,,,,,,,,,,,,,,,,,,,,,,,,,,,,,,,,,,,,,,,,,,,,
,,5f7737e3d3a6410bfdcb06f2,2024-02-22_24h26.33.421,kallum_motion_pilot,2023.2.2,Win32,59.88023952,5f7737e3d3a6410bfdcb06f2,65d6bb0e977760de756971f7,65d6bed2210973f7d2836d4c,0.0587,0.0589,0,6,6,86,1,eightsix,,,,,,,,,,,,,,,,,,,,,,,,,,,,,,,,,,,,,,,,,,,,,,,,,,,,,,,,,,,,,,,,,,,,,,,,,,,,,,,,,,,,,,,,,,,,,,,,,,,,,,,,,,,,,,,,,,,,,,,,,,,,,,,,,,,,,,,,,
,,5f7737e3d3a6410bfdcb06f2,2024-02-22_24h26.33.421,kallum_motion_pilot,2023.2.2,Win32,59.88023952,5f7737e3d3a6410bfdcb06f2,65d6bb0e977760de756971f7,65d6bed2210973f7d2836d4c,0.0592,0.0594,0,7,7,100,1,sevenfive,,,,,,,,,,,,,,,,,,,,,,,,,,,,,,,,,,,,,,,,,,,,,,,,,,,,,,,,,,,,,,,,,,,,,,,,,,,,,,,,,,,,,,,,,,,,,,,,,,,,,,,,,,,,,,,,,,,,,,,,,,,,,,,,,,,,,,,,,
,,5f7737e3d3a6410bfdcb06f2,2024-02-22_24h26.33.421,kallum_motion_pilot,2023.2.2,Win32,59.88023952,5f7737e3d3a6410bfdcb06f2,65d6bb0e977760de756971f7,65d6bed2210973f7d2836d4c,0.0597,0.0598,0,8,8,3,1,twofour,,,,,,,,,,,,,,,,,,,,,,,,,,,,,,,,,,,,,,,,,,,,,,,,,,,,,,,,,,,,,,,,,,,,,,,,,,,,,,,,,,,,,,,,,,,,,,,,,,,,,,,,,,,,,,,,,,,,,,,,,,,,,,,,,,,,,,,,,
,,5f7737e3d3a6410bfdcb06f2,2024-02-22_24h26.33.421,kallum_motion_pilot,2023.2.2,Win32,59.88023952,5f7737e3d3a6410bfdcb06f2,65d6bb0e977760de756971f7,65d6bed2210973f7d2836d4c,0.0604,0.0605,0,9,9,37,1,threefour,,,,,,,,,,,,,,,,,,,,,,,,,,,,,,,,,,,,,,,,,,,,,,,,,,,,,,,,,,,,,,,,,,,,,,,,,,,,,,,,,,,,,,,,,,,,,,,,,,,,,,,,,,,,,,,,,,,,,,,,,,,,,,,,,,,,,,,,,
,,5f7737e3d3a6410bfdcb06f2,2024-02-22_24h26.33.421,kallum_motion_pilot,2023.2.2,Win32,59.88023952,5f7737e3d3a6410bfdcb06f2,65d6bb0e977760de756971f7,65d6bed2210973f7d2836d4c,0.0608,0.061,0,10,10,93,1,seveneight,,,,,,,,,,,,,,,,,,,,,,,,,,,,,,,,,,,,,,,,,,,,,,,,,,,,,,,,,,,,,,,,,,,,,,,,,,,,,,,,,,,,,,,,,,,,,,,,,,,,,,,,,,,,,,,,,,,,,,,,,,,,,,,,,,,,,,,,,
,,5f7737e3d3a6410bfdcb06f2,2024-02-22_24h26.33.421,kallum_motion_pilot,2023.2.2,Win32,59.88023952,5f7737e3d3a6410bfdcb06f2,65d6bb0e977760de756971f7,65d6bed2210973f7d2836d4c,0.0613,0.0614,0,11,11,126,1,eightsix,,,,,,,,,,,,,,,,,,,,,,,,,,,,,,,,,,,,,,,,,,,,,,,,,,,,,,,,,,,,,,,,,,,,,,,,,,,,,,,,,,,,,,,,,,,,,,,,,,,,,,,,,,,,,,,,,,,,,,,,,,,,,,,,,,,,,,,,,
,,5f7737e3d3a6410bfdcb06f2,2024-02-22_24h26.33.421,kallum_motion_pilot,2023.2.2,Win32,59.88023952,5f7737e3d3a6410bfdcb06f2,65d6bb0e977760de756971f7,65d6bed2210973f7d2836d4c,0.0617,0.0618,0,12,12,51,1,twofour,,,,,,,,,,,,,,,,,,,,,,,,,,,,,,,,,,,,,,,,,,,,,,,,,,,,,,,,,,,,,,,,,,,,,,,,,,,,,,,,,,,,,,,,,,,,,,,,,,,,,,,,,,,,,,,,,,,,,,,,,,,,,,,,,,,,,,,,,
,,5f7737e3d3a6410bfdcb06f2,2024-02-22_24h26.33.421,kallum_motion_pilot,2023.2.2,Win32,59.88023952,5f7737e3d3a6410bfdcb06f2,65d6bb0e977760de756971f7,65d6bed2210973f7d2836d4c,0.0622,0.0623,0,13,13,1,1,onethree,,,,,,,,,,,,,,,,,,,,,,,,,,,,,,,,,,,,,,,,,,,,,,,,,,,,,,,,,,,,,,,,,,,,,,,,,,,,,,,,,,,,,,,,,,,,,,,,,,,,,,,,,,,,,,,,,,,,,,,,,,,,,,,,,,,,,,,,,
,,5f7737e3d3a6410bfdcb06f2,2024-02-22_24h26.33.421,kallum_motion_pilot,2023.2.2,Win32,59.88023952,5f7737e3d3a6410bfdcb06f2,65d6bb0e977760de756971f7,65d6bed2210973f7d2836d4c,0.0626,0.0627,0,14,14,56,1,onetwo,,,,,,,,,,,,,,,,,,,,,,,,,,,,,,,,,,,,,,,,,,,,,,,,,,,,,,,,,,,,,,,,,,,,,,,,,,,,,,,,,,,,,,,,,,,,,,,,,,,,,,,,,,,,,,,,,,,,,,,,,,,,,,,,,,,,,,,,,
,,5f7737e3d3a6410bfdcb06f2,2024-02-22_24h26.33.421,kallum_motion_pilot,2023.2.2,Win32,59.88023952,5f7737e3d3a6410bfdcb06f2,65d6bb0e977760de756971f7,65d6bed2210973f7d2836d4c,0.063,0.0632,0,15,15,111,1,eightseven,,,,,,,,,,,,,,,,,,,,,,,,,,,,,,,,,,,,,,,,,,,,,,,,,,,,,,,,,,,,,,,,,,,,,,,,,,,,,,,,,,,,,,,,,,,,,,,,,,,,,,,,,,,,,,,,,,,,,,,,,,,,,,,,,,,,,,,,,
,,5f7737e3d3a6410bfdcb06f2,2024-02-22_24h26.33.421,kallum_motion_pilot,2023.2.2,Win32,59.88023952,5f7737e3d3a6410bfdcb06f2,65d6bb0e977760de756971f7,65d6bed2210973f7d2836d4c,0.0635,0.0636,0,16,16,84,1,sevenfive,,,,,,,,,,,,,,,,,,,,,,,,,,,,,,,,,,,,,,,,,,,,,,,,,,,,,,,,,,,,,,,,,,,,,,,,,,,,,,,,,,,,,,,,,,,,,,,,,,,,,,,,,,,,,,,,,,,,,,,,,,,,,,,,,,,,,,,,,
,,5f7737e3d3a6410bfdcb06f2,2024-02-22_24h26.33.421,kallum_motion_pilot,2023.2.2,Win32,59.88023952,5f7737e3d3a6410bfdcb06f2,65d6bb0e977760de756971f7,65d6bed2210973f7d2836d4c,0.0638,0.064,0,17,17,139,1,sixeight,,,,,,,,,,,,,,,,,,,,,,,,,,,,,,,,,,,,,,,,,,,,,,,,,,,,,,,,,,,,,,,,,,,,,,,,,,,,,,,,,,,,,,,,,,,,,,,,,,,,,,,,,,,,,,,,,,,,,,,,,,,,,,,,,,,,,,,,,
,,5f7737e3d3a6410bfdcb06f2,2024-02-22_24h26.33.421,kallum_motion_pilot,2023.2.2,Win32,59.88023952,5f7737e3d3a6410bfdcb06f2,65d6bb0e977760de756971f7,65d6bed2210973f7d2836d4c,0.0642,0.0643,0,18,18,117,1,seveneight,,,,,,,,,,,,,,,,,,,,,,,,,,,,,,,,,,,,,,,,,,,,,,,,,,,,,,,,,,,,,,,,,,,,,,,,,,,,,,,,,,,,,,,,,,,,,,,,,,,,,,,,,,,,,,,,,,,,,,,,,,,,,,,,,,,,,,,,,
,,5f7737e3d3a6410bfdcb06f2,2024-02-22_24h26.33.421,kallum_motion_pilot,2023.2.2,Win32,59.88023952,5f7737e3d3a6410bfdcb06f2,65d6bb0e977760de756971f7,65d6bed2210973f7d2836d4c,0.0646,0.0647,0,19,19,98,1,sixfive,,,,,,,,,,,,,,,,,,,,,,,,,,,,,,,,,,,,,,,,,,,,,,,,,,,,,,,,,,,,,,,,,,,,,,,,,,,,,,,,,,,,,,,,,,,,,,,,,,,,,,,,,,,,,,,,,,,,,,,,,,,,,,,,,,,,,,,,,
,,5f7737e3d3a6410bfdcb06f2,2024-02-22_24h26.33.421,kallum_motion_pilot,2023.2.2,Win32,59.88023952,5f7737e3d3a6410bfdcb06f2,65d6bb0e977760de756971f7,65d6bed2210973f7d2836d4c,0.065,0.0652,0,20,20,160,1,fivesix,,,,,,,,,,,,,,,,,,,,,,,,,,,,,,,,,,,,,,,,,,,,,,,,,,,,,,,,,,,,,,,,,,,,,,,,,,,,,,,,,,,,,,,,,,,,,,,,,,,,,,,,,,,,,,,,,,,,,,,,,,,,,,,,,,,,,,,,,
,,5f7737e3d3a6410bfdcb06f2,2024-02-22_24h26.33.421,kallum_motion_pilot,2023.2.2,Win32,59.88023952,5f7737e3d3a6410bfdcb06f2,65d6bb0e977760de756971f7,65d6bed2210973f7d2836d4c,0.0654,0.0657,0,21,21,12,1,threeone,,,,,,,,,,,,,,,,,,,,,,,,,,,,,,,,,,,,,,,,,,,,,,,,,,,,,,,,,,,,,,,,,,,,,,,,,,,,,,,,,,,,,,,,,,,,,,,,,,,,,,,,,,,,,,,,,,,,,,,,,,,,,,,,,,,,,,,,,
,,5f7737e3d3a6410bfdcb06f2,2024-02-22_24h26.33.421,kallum_motion_pilot,2023.2.2,Win32,59.88023952,5f7737e3d3a6410bfdcb06f2,65d6bb0e977760de756971f7,65d6bed2210973f7d2836d4c,0.066,0.0661,0,22,22,99,1,sixeight,,,,,,,,,,,,,,,,,,,,,,,,,,,,,,,,,,,,,,,,,,,,,,,,,,,,,,,,,,,,,,,,,,,,,,,,,,,,,,,,,,,,,,,,,,,,,,,,,,,,,,,,,,,,,,,,,,,,,,,,,,,,,,,,,,,,,,,,,
,,5f7737e3d3a6410bfdcb06f2,2024-02-22_24h26.33.421,kallum_motion_pilot,2023.2.2,Win32,59.88023952,5f7737e3d3a6410bfdcb06f2,65d6bb0e977760de756971f7,65d6bed2210973f7d2836d4c,0.0663,0.0665,0,23,23,103,1,eightseven,,,,,,,,,,,,,,,,,,,,,,,,,,,,,,,,,,,,,,,,,,,,,,,,,,,,,,,,,,,,,,,,,,,,,,,,,,,,,,,,,,,,,,,,,,,,,,,,,,,,,,,,,,,,,,,,,,,,,,,,,,,,,,,,,,,,,,,,,
,,5f7737e3d3a6410bfdcb06f2,2024-02-22_24h26.33.421,kallum_motion_pilot,2023.2.2,Win32,59.88023952,5f7737e3d3a6410bfdcb06f2,65d6bb0e977760de756971f7,65d6bed2210973f7d2836d4c,0.0669,0.067,0,24,24,4,1,threeone,,,,,,,,,,,,,,,,,,,,,,,,,,,,,,,,,,,,,,,,,,,,,,,,,,,,,,,,,,,,,,,,,,,,,,,,,,,,,,,,,,,,,,,,,,,,,,,,,,,,,,,,,,,,,,,,,,,,,,,,,,,,,,,,,,,,,,,,,
,,5f7737e3d3a6410bfdcb06f2,2024-02-22_24h26.33.421,kallum_motion_pilot,2023.2.2,Win32,59.88023952,5f7737e3d3a6410bfdcb06f2,65d6bb0e977760de756971f7,65d6bed2210973f7d2836d4c,0.0674,0.0674,0,25,25,91,1,sixeight,,,,,,,,,,,,,,,,,,,,,,,,,,,,,,,,,,,,,,,,,,,,,,,,,,,,,,,,,,,,,,,,,,,,,,,,,,,,,,,,,,,,,,,,,,,,,,,,,,,,,,,,,,,,,,,,,,,,,,,,,,,,,,,,,,,,,,,,,
,,5f7737e3d3a6410bfdcb06f2,2024-02-22_24h26.33.421,kallum_motion_pilot,2023.2.2,Win32,59.88023952,5f7737e3d3a6410bfdcb06f2,65d6bb0e977760de756971f7,65d6bed2210973f7d2836d4c,0.0677,0.0678,0,26,26,62,1,fourtwo,,,,,,,,,,,,,,,,,,,,,,,,,,,,,,,,,,,,,,,,,,,,,,,,,,,,,,,,,,,,,,,,,,,,,,,,,,,,,,,,,,,,,,,,,,,,,,,,,,,,,,,,,,,,,,,,,,,,,,,,,,,,,,,,,,,,,,,,,
,,5f7737e3d3a6410bfdcb06f2,2024-02-22_24h26.33.421,kallum_motion_pilot,2023.2.2,Win32,59.88023952,5f7737e3d3a6410bfdcb06f2,65d6bb0e977760de756971f7,65d6bed2210973f7d2836d4c,0.0681,0.0683,0,27,27,158,1,eightsix,,,,,,,,,,,,,,,,,,,,,,,,,,,,,,,,,,,,,,,,,,,,,,,,,,,,,,,,,,,,,,,,,,,,,,,,,,,,,,,,,,,,,,,,,,,,,,,,,,,,,,,,,,,,,,,,,,,,,,,,,,,,,,,,,,,,,,,,,
,,5f7737e3d3a6410bfdcb06f2,2024-02-22_24h26.33.421,kallum_motion_pilot,2023.2.2,Win32,59.88023952,5f7737e3d3a6410bfdcb06f2,65d6bb0e977760de756971f7,65d6bed2210973f7d2836d4c,0.0685,0.0687,0,28,28,60,1,threeone,,,,,,,,,,,,,,,,,,,,,,,,,,,,,,,,,,,,,,,,,,,,,,,,,,,,,,,,,,,,,,,,,,,,,,,,,,,,,,,,,,,,,,,,,,,,,,,,,,,,,,,,,,,,,,,,,,,,,,,,,,,,,,,,,,,,,,,,,
,,5f7737e3d3a6410bfdcb06f2,2024-02-22_24h26.33.421,kallum_motion_pilot,2023.2.2,Win32,59.88023952,5f7737e3d3a6410bfdcb06f2,65d6bb0e977760de756971f7,65d6bed2210973f7d2836d4c,0.0689,0.069,0,29,29,107,1,sixeight,,,,,,,,,,,,,,,,,,,,,,,,,,,,,,,,,,,,,,,,,,,,,,,,,,,,,,,,,,,,,,,,,,,,,,,,,,,,,,,,,,,,,,,,,,,,,,,,,,,,,,,,,,,,,,,,,,,,,,,,,,,,,,,,,,,,,,,,,
,,5f7737e3d3a6410bfdcb06f2,2024-02-22_24h26.33.421,kallum_motion_pilot,2023.2.2,Win32,59.88023952,5f7737e3d3a6410bfdcb06f2,65d6bb0e977760de756971f7,65d6bed2210973f7d2836d4c,0.0693,0.0694,0,30,30,155,1,sixeight,,,,,,,,,,,,,,,,,,,,,,,,,,,,,,,,,,,,,,,,,,,,,,,,,,,,,,,,,,,,,,,,,,,,,,,,,,,,,,,,,,,,,,,,,,,,,,,,,,,,,,,,,,,,,,,,,,,,,,,,,,,,,,,,,,,,,,,,,
,,5f7737e3d3a6410bfdcb06f2,2024-02-22_24h26.33.421,kallum_motion_pilot,2023.2.2,Win32,59.88023952,5f7737e3d3a6410bfdcb06f2,65d6bb0e977760de756971f7,65d6bed2210973f7d2836d4c,0.0697,0.0698,0,31,31,119,1,eightseven,,,,,,,,,,,,,,,,,,,,,,,,,,,,,,,,,,,,,,,,,,,,,,,,,,,,,,,,,,,,,,,,,,,,,,,,,,,,,,,,,,,,,,,,,,,,,,,,,,,,,,,,,,,,,,,,,,,,,,,,,,,,,,,,,,,,,,,,,
,,5f7737e3d3a6410bfdcb06f2,2024-02-22_24h26.33.421,kallum_motion_pilot,2023.2.2,Win32,59.88023952,5f7737e3d3a6410bfdcb06f2,65d6bb0e977760de756971f7,65d6bed2210973f7d2836d4c,0.0701,0.0702,0,32,32,113,1,fiveseven,,,,,,,,,,,,,,,,,,,,,,,,,,,,,,,,,,,,,,,,,,,,,,,,,,,,,,,,,,,,,,,,,,,,,,,,,,,,,,,,,,,,,,,,,,,,,,,,,,,,,,,,,,,,,,,,,,,,,,,,,,,,,,,,,,,,,,,,,
,,5f7737e3d3a6410bfdcb06f2,2024-02-22_24h26.33.421,kallum_motion_pilot,2023.2.2,Win32,59.88023952,5f7737e3d3a6410bfdcb06f2,65d6bb0e977760de756971f7,65d6bed2210973f7d2836d4c,0.0704,0.0705,0,33,33,88,1,fivesix,,,,,,,,,,,,,,,,,,,,,,,,,,,,,,,,,,,,,,,,,,,,,,,,,,,,,,,,,,,,,,,,,,,,,,,,,,,,,,,,,,,,,,,,,,,,,,,,,,,,,,,,,,,,,,,,,,,,,,,,,,,,,,,,,,,,,,,,,
,,5f7737e3d3a6410bfdcb06f2,2024-02-22_24h26.33.421,kallum_motion_pilot,2023.2.2,Win32,59.88023952,5f7737e3d3a6410bfdcb06f2,65d6bb0e977760de756971f7,65d6bed2210973f7d2836d4c,0.0709,0.0709,0,34,34,17,1,onethree,,,,,,,,,,,,,,,,,,,,,,,,,,,,,,,,,,,,,,,,,,,,,,,,,,,,,,,,,,,,,,,,,,,,,,,,,,,,,,,,,,,,,,,,,,,,,,,,,,,,,,,,,,,,,,,,,,,,,,,,,,,,,,,,,,,,,,,,,
,,5f7737e3d3a6410bfdcb06f2,2024-02-22_24h26.33.421,kallum_motion_pilot,2023.2.2,Win32,59.88023952,5f7737e3d3a6410bfdcb06f2,65d6bb0e977760de756971f7,65d6bed2210973f7d2836d4c,0.0712,0.0714,0,35,35,57,1,onethree,,,,,,,,,,,,,,,,,,,,,,,,,,,,,,,,,,,,,,,,,,,,,,,,,,,,,,,,,,,,,,,,,,,,,,,,,,,,,,,,,,,,,,,,,,,,,,,,,,,,,,,,,,,,,,,,,,,,,,,,,,,,,,,,,,,,,,,,,
,,5f7737e3d3a6410bfdcb06f2,2024-02-22_24h26.33.421,kallum_motion_pilot,2023.2.2,Win32,59.88023952,5f7737e3d3a6410bfdcb06f2,65d6bb0e977760de756971f7,65d6bed2210973f7d2836d4c,0.0716,0.0718,0,36,36,142,1,eightsix,,,,,,,,,,,,,,,,,,,,,,,,,,,,,,,,,,,,,,,,,,,,,,,,,,,,,,,,,,,,,,,,,,,,,,,,,,,,,,,,,,,,,,,,,,,,,,,,,,,,,,,,,,,,,,,,,,,,,,,,,,,,,,,,,,,,,,,,,
,,5f7737e3d3a6410bfdcb06f2,2024-02-22_24h26.33.421,kallum_motion_pilot,2023.2.2,Win32,59.88023952,5f7737e3d3a6410bfdcb06f2,65d6bb0e977760de756971f7,65d6bed2210973f7d2836d4c,0.072,0.0722,0,37,37,146,1,sixfive,,,,,,,,,,,,,,,,,,,,,,,,,,,,,,,,,,,,,,,,,,,,,,,,,,,,,,,,,,,,,,,,,,,,,,,,,,,,,,,,,,,,,,,,,,,,,,,,,,,,,,,,,,,,,,,,,,,,,,,,,,,,,,,,,,,,,,,,,
,,5f7737e3d3a6410bfdcb06f2,2024-02-22_24h26.33.421,kallum_motion_pilot,2023.2.2,Win32,59.88023952,5f7737e3d3a6410bfdcb06f2,65d6bb0e977760de756971f7,65d6bed2210973f7d2836d4c,0.0725,0.0726,0,38,38,125,1,seveneight,,,,,,,,,,,,,,,,,,,,,,,,,,,,,,,,,,,,,,,,,,,,,,,,,,,,,,,,,,,,,,,,,,,,,,,,,,,,,,,,,,,,,,,,,,,,,,,,,,,,,,,,,,,,,,,,,,,,,,,,,,,,,,,,,,,,,,,,,
,,5f7737e3d3a6410bfdcb06f2,2024-02-22_24h26.33.421,kallum_motion_pilot,2023.2.2,Win32,59.88023952,5f7737e3d3a6410bfdcb06f2,65d6bb0e977760de756971f7,65d6bed2210973f7d2836d4c,0.0728,0.073,0,39,39,26,1,twoone,,,,,,,,,,,,,,,,,,,,,,,,,,,,,,,,,,,,,,,,,,,,,,,,,,,,,,,,,,,,,,,,,,,,,,,,,,,,,,,,,,,,,,,,,,,,,,,,,,,,,,,,,,,,,,,,,,,,,,,,,,,,,,,,,,,,,,,,,
,,5f7737e3d3a6410bfdcb06f2,2024-02-22_24h26.33.421,kallum_motion_pilot,2023.2.2,Win32,59.88023952,5f7737e3d3a6410bfdcb06f2,65d6bb0e977760de756971f7,65d6bed2210973f7d2836d4c,0.0733,0.0735,0,40,40,101,1,seveneight,,,,,,,,,,,,,,,,,,,,,,,,,,,,,,,,,,,,,,,,,,,,,,,,,,,,,,,,,,,,,,,,,,,,,,,,,,,,,,,,,,,,,,,,,,,,,,,,,,,,,,,,,,,,,,,,,,,,,,,,,,,,,,,,,,,,,,,,,
,,5f7737e3d3a6410bfdcb06f2,2024-02-22_24h26.33.421,kallum_motion_pilot,2023.2.2,Win32,59.88023952,5f7737e3d3a6410bfdcb06f2,65d6bb0e977760de756971f7,65d6bed2210973f7d2836d4c,0.0737,0.0739,0,41,41,22,1,fourtwo,,,,,,,,,,,,,,,,,,,,,,,,,,,,,,,,,,,,,,,,,,,,,,,,,,,,,,,,,,,,,,,,,,,,,,,,,,,,,,,,,,,,,,,,,,,,,,,,,,,,,,,,,,,,,,,,,,,,,,,,,,,,,,,,,,,,,,,,,
,,5f7737e3d3a6410bfdcb06f2,2024-02-22_24h26.33.421,kallum_motion_pilot,2023.2.2,Win32,59.88023952,5f7737e3d3a6410bfdcb06f2,65d6bb0e977760de756971f7,65d6bed2210973f7d2836d4c,0.0742,0.0743,0,42,42,152,1,fivesix,,,,,,,,,,,,,,,,,,,,,,,,,,,,,,,,,,,,,,,,,,,,,,,,,,,,,,,,,,,,,,,,,,,,,,,,,,,,,,,,,,,,,,,,,,,,,,,,,,,,,,,,,,,,,,,,,,,,,,,,,,,,,,,,,,,,,,,,,
,,5f7737e3d3a6410bfdcb06f2,2024-02-22_24h26.33.421,kallum_motion_pilot,2023.2.2,Win32,59.88023952,5f7737e3d3a6410bfdcb06f2,65d6bb0e977760de756971f7,65d6bed2210973f7d2836d4c,0.0746,0.0747,0,43,43,0,1,onetwo,,,,,,,,,,,,,,,,,,,,,,,,,,,,,,,,,,,,,,,,,,,,,,,,,,,,,,,,,,,,,,,,,,,,,,,,,,,,,,,,,,,,,,,,,,,,,,,,,,,,,,,,,,,,,,,,,,,,,,,,,,,,,,,,,,,,,,,,,
,,5f7737e3d3a6410bfdcb06f2,2024-02-22_24h26.33.421,kallum_motion_pilot,2023.2.2,Win32,59.88023952,5f7737e3d3a6410bfdcb06f2,65d6bb0e977760de756971f7,65d6bed2210973f7d2836d4c,0.075,0.0751,0,44,44,153,1,fiveseven,,,,,,,,,,,,,,,,,,,,,,,,,,,,,,,,,,,,,,,,,,,,,,,,,,,,,,,,,,,,,,,,,,,,,,,,,,,,,,,,,,,,,,,,,,,,,,,,,,,,,,,,,,,,,,,,,,,,,,,,,,,,,,,,,,,,,,,,,
,,5f7737e3d3a6410bfdcb06f2,2024-02-22_24h26.33.421,kallum_motion_pilot,2023.2.2,Win32,59.88023952,5f7737e3d3a6410bfdcb06f2,65d6bb0e977760de756971f7,65d6bed2210973f7d2836d4c,0.0756,0.0758,0,45,45,36,1,threeone,,,,,,,,,,,,,,,,,,,,,,,,,,,,,,,,,,,,,,,,,,,,,,,,,,,,,,,,,,,,,,,,,,,,,,,,,,,,,,,,,,,,,,,,,,,,,,,,,,,,,,,,,,,,,,,,,,,,,,,,,,,,,,,,,,,,,,,,,
,,5f7737e3d3a6410bfdcb06f2,2024-02-22_24h26.33.421,kallum_motion_pilot,2023.2.2,Win32,59.88023952,5f7737e3d3a6410bfdcb06f2,65d6bb0e977760de756971f7,65d6bed2210973f7d2836d4c,0.076,0.0762,0,46,46,94,1,eightsix,,,,,,,,,,,,,,,,,,,,,,,,,,,,,,,,,,,,,,,,,,,,,,,,,,,,,,,,,,,,,,,,,,,,,,,,,,,,,,,,,,,,,,,,,,,,,,,,,,,,,,,,,,,,,,,,,,,,,,,,,,,,,,,,,,,,,,,,,
,,5f7737e3d3a6410bfdcb06f2,2024-02-22_24h26.33.421,kallum_motion_pilot,2023.2.2,Win32,59.88023952,5f7737e3d3a6410bfdcb06f2,65d6bb0e977760de756971f7,65d6bed2210973f7d2836d4c,0.0765,0.0766,0,47,47,66,1,twoone,,,,,,,,,,,,,,,,,,,,,,,,,,,,,,,,,,,,,,,,,,,,,,,,,,,,,,,,,,,,,,,,,,,,,,,,,,,,,,,,,,,,,,,,,,,,,,,,,,,,,,,,,,,,,,,,,,,,,,,,,,,,,,,,,,,,,,,,,
,,5f7737e3d3a6410bfdcb06f2,2024-02-22_24h26.33.421,kallum_motion_pilot,2023.2.2,Win32,59.88023952,5f7737e3d3a6410bfdcb06f2,65d6bb0e977760de756971f7,65d6bed2210973f7d2836d4c,0.0769,0.077,0,48,48,97,1,fiveseven,,,,,,,,,,,,,,,,,,,,,,,,,,,,,,,,,,,,,,,,,,,,,,,,,,,,,,,,,,,,,,,,,,,,,,,,,,,,,,,,,,,,,,,,,,,,,,,,,,,,,,,,,,,,,,,,,,,,,,,,,,,,,,,,,,,,,,,,,
,,5f7737e3d3a6410bfdcb06f2,2024-02-22_24h26.33.421,kallum_motion_pilot,2023.2.2,Win32,59.88023952,5f7737e3d3a6410bfdcb06f2,65d6bb0e977760de756971f7,65d6bed2210973f7d2836d4c,0.0773,0.0775,0,49,49,121,1,fiveseven,,,,,,,,,,,,,,,,,,,,,,,,,,,,,,,,,,,,,,,,,,,,,,,,,,,,,,,,,,,,,,,,,,,,,,,,,,,,,,,,,,,,,,,,,,,,,,,,,,,,,,,,,,,,,,,,,,,,,,,,,,,,,,,,,,,,,,,,,
,,5f7737e3d3a6410bfdcb06f2,2024-02-22_24h26.33.421,kallum_motion_pilot,2023.2.2,Win32,59.88023952,5f7737e3d3a6410bfdcb06f2,65d6bb0e977760de756971f7,65d6bed2210973f7d2836d4c,0.0778,0.0779,0,50,50,131,1,sixeight,,,,,,,,,,,,,,,,,,,,,,,,,,,,,,,,,,,,,,,,,,,,,,,,,,,,,,,,,,,,,,,,,,,,,,,,,,,,,,,,,,,,,,,,,,,,,,,,,,,,,,,,,,,,,,,,,,,,,,,,,,,,,,,,,,,,,,,,,
,,5f7737e3d3a6410bfdcb06f2,2024-02-22_24h26.33.421,kallum_motion_pilot,2023.2.2,Win32,59.88023952,5f7737e3d3a6410bfdcb06f2,65d6bb0e977760de756971f7,65d6bed2210973f7d2836d4c,0.0781,0.0782,0,51,51,30,1,fourtwo,,,,,,,,,,,,,,,,,,,,,,,,,,,,,,,,,,,,,,,,,,,,,,,,,,,,,,,,,,,,,,,,,,,,,,,,,,,,,,,,,,,,,,,,,,,,,,,,,,,,,,,,,,,,,,,,,,,,,,,,,,,,,,,,,,,,,,,,,
,,5f7737e3d3a6410bfdcb06f2,2024-02-22_24h26.33.421,kallum_motion_pilot,2023.2.2,Win32,59.88023952,5f7737e3d3a6410bfdcb06f2,65d6bb0e977760de756971f7,65d6bed2210973f7d2836d4c,0.0786,0.0787,0,52,52,159,1,eightseven,,,,,,,,,,,,,,,,,,,,,,,,,,,,,,,,,,,,,,,,,,,,,,,,,,,,,,,,,,,,,,,,,,,,,,,,,,,,,,,,,,,,,,,,,,,,,,,,,,,,,,,,,,,,,,,,,,,,,,,,,,,,,,,,,,,,,,,,,
,,5f7737e3d3a6410bfdcb06f2,2024-02-22_24h26.33.421,kallum_motion_pilot,2023.2.2,Win32,59.88023952,5f7737e3d3a6410bfdcb06f2,65d6bb0e977760de756971f7,65d6bed2210973f7d2836d4c,0.079,0.0791,0,53,53,80,1,fivesix,,,,,,,,,,,,,,,,,,,,,,,,,,,,,,,,,,,,,,,,,,,,,,,,,,,,,,,,,,,,,,,,,,,,,,,,,,,,,,,,,,,,,,,,,,,,,,,,,,,,,,,,,,,,,,,,,,,,,,,,,,,,,,,,,,,,,,,,,
,,5f7737e3d3a6410bfdcb06f2,2024-02-22_24h26.33.421,kallum_motion_pilot,2023.2.2,Win32,59.88023952,5f7737e3d3a6410bfdcb06f2,65d6bb0e977760de756971f7,65d6bed2210973f7d2836d4c,0.0812,0.0813,0,54,54,10,1,twoone,,,,,,,,,,,,,,,,,,,,,,,,,,,,,,,,,,,,,,,,,,,,,,,,,,,,,,,,,,,,,,,,,,,,,,,,,,,,,,,,,,,,,,,,,,,,,,,,,,,,,,,,,,,,,,,,,,,,,,,,,,,,,,,,,,,,,,,,,
,,5f7737e3d3a6410bfdcb06f2,2024-02-22_24h26.33.421,kallum_motion_pilot,2023.2.2,Win32,59.88023952,5f7737e3d3a6410bfdcb06f2,65d6bb0e977760de756971f7,65d6bed2210973f7d2836d4c,0.0816,0.0817,0,55,55,161,1,fiveseven,,,,,,,,,,,,,,,,,,,,,,,,,,,,,,,,,,,,,,,,,,,,,,,,,,,,,,,,,,,,,,,,,,,,,,,,,,,,,,,,,,,,,,,,,,,,,,,,,,,,,,,,,,,,,,,,,,,,,,,,,,,,,,,,,,,,,,,,,
,,5f7737e3d3a6410bfdcb06f2,2024-02-22_24h26.33.421,kallum_motion_pilot,2023.2.2,Win32,59.88023952,5f7737e3d3a6410bfdcb06f2,65d6bb0e977760de756971f7,65d6bed2210973f7d2836d4c,0.0821,0.0822,0,56,56,15,1,fourthree,,,,,,,,,,,,,,,,,,,,,,,,,,,,,,,,,,,,,,,,,,,,,,,,,,,,,,,,,,,,,,,,,,,,,,,,,,,,,,,,,,,,,,,,,,,,,,,,,,,,,,,,,,,,,,,,,,,,,,,,,,,,,,,,,,,,,,,,,
,,5f7737e3d3a6410bfdcb06f2,2024-02-22_24h26.33.421,kallum_motion_pilot,2023.2.2,Win32,59.88023952,5f7737e3d3a6410bfdcb06f2,65d6bb0e977760de756971f7,65d6bed2210973f7d2836d4c,0.0824,0.0826,0,57,57,34,1,twoone,,,,,,,,,,,,,,,,,,,,,,,,,,,,,,,,,,,,,,,,,,,,,,,,,,,,,,,,,,,,,,,,,,,,,,,,,,,,,,,,,,,,,,,,,,,,,,,,,,,,,,,,,,,,,,,,,,,,,,,,,,,,,,,,,,,,,,,,,
,,5f7737e3d3a6410bfdcb06f2,2024-02-22_24h26.33.421,kallum_motion_pilot,2023.2.2,Win32,59.88023952,5f7737e3d3a6410bfdcb06f2,65d6bb0e977760de756971f7,65d6bed2210973f7d2836d4c,0.0829,0.083,0,58,58,104,1,fivesix,,,,,,,,,,,,,,,,,,,,,,,,,,,,,,,,,,,,,,,,,,,,,,,,,,,,,,,,,,,,,,,,,,,,,,,,,,,,,,,,,,,,,,,,,,,,,,,,,,,,,,,,,,,,,,,,,,,,,,,,,,,,,,,,,,,,,,,,,
,,5f7737e3d3a6410bfdcb06f2,2024-02-22_24h26.33.421,kallum_motion_pilot,2023.2.2,Win32,59.88023952,5f7737e3d3a6410bfdcb06f2,65d6bb0e977760de756971f7,65d6bed2210973f7d2836d4c,0.0833,0.0834,0,59,59,53,1,threefour,,,,,,,,,,,,,,,,,,,,,,,,,,,,,,,,,,,,,,,,,,,,,,,,,,,,,,,,,,,,,,,,,,,,,,,,,,,,,,,,,,,,,,,,,,,,,,,,,,,,,,,,,,,,,,,,,,,,,,,,,,,,,,,,,,,,,,,,,
,,5f7737e3d3a6410bfdcb06f2,2024-02-22_24h26.33.421,kallum_motion_pilot,2023.2.2,Win32,59.88023952,5f7737e3d3a6410bfdcb06f2,65d6bb0e977760de756971f7,65d6bed2210973f7d2836d4c,0.0837,0.0839,0,60,60,25,1,onethree,,,,,,,,,,,,,,,,,,,,,,,,,,,,,,,,,,,,,,,,,,,,,,,,,,,,,,,,,,,,,,,,,,,,,,,,,,,,,,,,,,,,,,,,,,,,,,,,,,,,,,,,,,,,,,,,,,,,,,,,,,,,,,,,,,,,,,,,,
,,5f7737e3d3a6410bfdcb06f2,2024-02-22_24h26.33.421,kallum_motion_pilot,2023.2.2,Win32,59.88023952,5f7737e3d3a6410bfdcb06f2,65d6bb0e977760de756971f7,65d6bed2210973f7d2836d4c,0.0841,0.0843,0,61,61,130,1,sixfive,,,,,,,,,,,,,,,,,,,,,,,,,,,,,,,,,,,,,,,,,,,,,,,,,,,,,,,,,,,,,,,,,,,,,,,,,,,,,,,,,,,,,,,,,,,,,,,,,,,,,,,,,,,,,,,,,,,,,,,,,,,,,,,,,,,,,,,,,
,,5f7737e3d3a6410bfdcb06f2,2024-02-22_24h26.33.421,kallum_motion_pilot,2023.2.2,Win32,59.88023952,5f7737e3d3a6410bfdcb06f2,65d6bb0e977760de756971f7,65d6bed2210973f7d2836d4c,0.0845,0.0846,0,62,62,54,1,fourtwo,,,,,,,,,,,,,,,,,,,,,,,,,,,,,,,,,,,,,,,,,,,,,,,,,,,,,,,,,,,,,,,,,,,,,,,,,,,,,,,,,,,,,,,,,,,,,,,,,,,,,,,,,,,,,,,,,,,,,,,,,,,,,,,,,,,,,,,,,
,,5f7737e3d3a6410bfdcb06f2,2024-02-22_24h26.33.421,kallum_motion_pilot,2023.2.2,Win32,59.88023952,5f7737e3d3a6410bfdcb06f2,65d6bb0e977760de756971f7,65d6bed2210973f7d2836d4c,0.0849,0.0853,0,63,63,115,1,sixeight,,,,,,,,,,,,,,,,,,,,,,,,,,,,,,,,,,,,,,,,,,,,,,,,,,,,,,,,,,,,,,,,,,,,,,,,,,,,,,,,,,,,,,,,,,,,,,,,,,,,,,,,,,,,,,,,,,,,,,,,,,,,,,,,,,,,,,,,,
,,5f7737e3d3a6410bfdcb06f2,2024-02-22_24h26.33.421,kallum_motion_pilot,2023.2.2,Win32,59.88023952,5f7737e3d3a6410bfdcb06f2,65d6bb0e977760de756971f7,65d6bed2210973f7d2836d4c,0.0858,0.0859,0,64,64,32,1,onetwo,,,,,,,,,,,,,,,,,,,,,,,,,,,,,,,,,,,,,,,,,,,,,,,,,,,,,,,,,,,,,,,,,,,,,,,,,,,,,,,,,,,,,,,,,,,,,,,,,,,,,,,,,,,,,,,,,,,,,,,,,,,,,,,,,,,,,,,,,
,,5f7737e3d3a6410bfdcb06f2,2024-02-22_24h26.33.421,kallum_motion_pilot,2023.2.2,Win32,59.88023952,5f7737e3d3a6410bfdcb06f2,65d6bb0e977760de756971f7,65d6bed2210973f7d2836d4c,0.0862,0.0863,0,65,65,31,1,fourthree,,,,,,,,,,,,,,,,,,,,,,,,,,,,,,,,,,,,,,,,,,,,,,,,,,,,,,,,,,,,,,,,,,,,,,,,,,,,,,,,,,,,,,,,,,,,,,,,,,,,,,,,,,,,,,,,,,,,,,,,,,,,,,,,,,,,,,,,,
,,5f7737e3d3a6410bfdcb06f2,2024-02-22_24h26.33.421,kallum_motion_pilot,2023.2.2,Win32,59.88023952,5f7737e3d3a6410bfdcb06f2,65d6bb0e977760de756971f7,65d6bed2210973f7d2836d4c,0.0866,0.0868,0,66,66,79,1,eightseven,,,,,,,,,,,,,,,,,,,,,,,,,,,,,,,,,,,,,,,,,,,,,,,,,,,,,,,,,,,,,,,,,,,,,,,,,,,,,,,,,,,,,,,,,,,,,,,,,,,,,,,,,,,,,,,,,,,,,,,,,,,,,,,,,,,,,,,,,
,,5f7737e3d3a6410bfdcb06f2,2024-02-22_24h26.33.421,kallum_motion_pilot,2023.2.2,Win32,59.88023952,5f7737e3d3a6410bfdcb06f2,65d6bb0e977760de756971f7,65d6bed2210973f7d2836d4c,0.0871,0.0873,0,67,67,28,1,threeone,,,,,,,,,,,,,,,,,,,,,,,,,,,,,,,,,,,,,,,,,,,,,,,,,,,,,,,,,,,,,,,,,,,,,,,,,,,,,,,,,,,,,,,,,,,,,,,,,,,,,,,,,,,,,,,,,,,,,,,,,,,,,,,,,,,,,,,,,
,,5f7737e3d3a6410bfdcb06f2,2024-02-22_24h26.33.421,kallum_motion_pilot,2023.2.2,Win32,59.88023952,5f7737e3d3a6410bfdcb06f2,65d6bb0e977760de756971f7,65d6bed2210973f7d2836d4c,0.0876,0.0877,0,68,68,74,1,twoone,,,,,,,,,,,,,,,,,,,,,,,,,,,,,,,,,,,,,,,,,,,,,,,,,,,,,,,,,,,,,,,,,,,,,,,,,,,,,,,,,,,,,,,,,,,,,,,,,,,,,,,,,,,,,,,,,,,,,,,,,,,,,,,,,,,,,,,,,
,,5f7737e3d3a6410bfdcb06f2,2024-02-22_24h26.33.421,kallum_motion_pilot,2023.2.2,Win32,59.88023952,5f7737e3d3a6410bfdcb06f2,65d6bb0e977760de756971f7,65d6bed2210973f7d2836d4c,0.088,0.0881,0,69,69,151,1,eightseven,,,,,,,,,,,,,,,,,,,,,,,,,,,,,,,,,,,,,,,,,,,,,,,,,,,,,,,,,,,,,,,,,,,,,,,,,,,,,,,,,,,,,,,,,,,,,,,,,,,,,,,,,,,,,,,,,,,,,,,,,,,,,,,,,,,,,,,,,
,,5f7737e3d3a6410bfdcb06f2,2024-02-22_24h26.33.421,kallum_motion_pilot,2023.2.2,Win32,59.88023952,5f7737e3d3a6410bfdcb06f2,65d6bb0e977760de756971f7,65d6bed2210973f7d2836d4c,0.0884,0.0885,0,70,70,24,1,onetwo,,,,,,,,,,,,,,,,,,,,,,,,,,,,,,,,,,,,,,,,,,,,,,,,,,,,,,,,,,,,,,,,,,,,,,,,,,,,,,,,,,,,,,,,,,,,,,,,,,,,,,,,,,,,,,,,,,,,,,,,,,,,,,,,,,,,,,,,,
,,5f7737e3d3a6410bfdcb06f2,2024-02-22_24h26.33.421,kallum_motion_pilot,2023.2.2,Win32,59.88023952,5f7737e3d3a6410bfdcb06f2,65d6bb0e977760de756971f7,65d6bed2210973f7d2836d4c,0.0888,0.089,0,71,71,65,1,onethree,,,,,,,,,,,,,,,,,,,,,,,,,,,,,,,,,,,,,,,,,,,,,,,,,,,,,,,,,,,,,,,,,,,,,,,,,,,,,,,,,,,,,,,,,,,,,,,,,,,,,,,,,,,,,,,,,,,,,,,,,,,,,,,,,,,,,,,,,
,,5f7737e3d3a6410bfdcb06f2,2024-02-22_24h26.33.421,kallum_motion_pilot,2023.2.2,Win32,59.88023952,5f7737e3d3a6410bfdcb06f2,65d6bb0e977760de756971f7,65d6bed2210973f7d2836d4c,0.0892,0.0894,0,72,72,135,1,eightseven,,,,,,,,,,,,,,,,,,,,,,,,,,,,,,,,,,,,,,,,,,,,,,,,,,,,,,,,,,,,,,,,,,,,,,,,,,,,,,,,,,,,,,,,,,,,,,,,,,,,,,,,,,,,,,,,,,,,,,,,,,,,,,,,,,,,,,,,,
,,5f7737e3d3a6410bfdcb06f2,2024-02-22_24h26.33.421,kallum_motion_pilot,2023.2.2,Win32,59.88023952,5f7737e3d3a6410bfdcb06f2,65d6bb0e977760de756971f7,65d6bed2210973f7d2836d4c,0.0896,0.0898,0,73,73,5,1,threefour,,,,,,,,,,,,,,,,,,,,,,,,,,,,,,,,,,,,,,,,,,,,,,,,,,,,,,,,,,,,,,,,,,,,,,,,,,,,,,,,,,,,,,,,,,,,,,,,,,,,,,,,,,,,,,,,,,,,,,,,,,,,,,,,,,,,,,,,,
,,5f7737e3d3a6410bfdcb06f2,2024-02-22_24h26.33.421,kallum_motion_pilot,2023.2.2,Win32,59.88023952,5f7737e3d3a6410bfdcb06f2,65d6bb0e977760de756971f7,65d6bed2210973f7d2836d4c,0.0901,0.0902,0,74,74,46,1,fourtwo,,,,,,,,,,,,,,,,,,,,,,,,,,,,,,,,,,,,,,,,,,,,,,,,,,,,,,,,,,,,,,,,,,,,,,,,,,,,,,,,,,,,,,,,,,,,,,,,,,,,,,,,,,,,,,,,,,,,,,,,,,,,,,,,,,,,,,,,,
,,5f7737e3d3a6410bfdcb06f2,2024-02-22_24h26.33.421,kallum_motion_pilot,2023.2.2,Win32,59.88023952,5f7737e3d3a6410bfdcb06f2,65d6bb0e977760de756971f7,65d6bed2210973f7d2836d4c,0.0904,0.0906,0,75,75,21,1,threefour,,,,,,,,,,,,,,,,,,,,,,,,,,,,,,,,,,,,,,,,,,,,,,,,,,,,,,,,,,,,,,,,,,,,,,,,,,,,,,,,,,,,,,,,,,,,,,,,,,,,,,,,,,,,,,,,,,,,,,,,,,,,,,,,,,,,,,,,,
,,5f7737e3d3a6410bfdcb06f2,2024-02-22_24h26.33.421,kallum_motion_pilot,2023.2.2,Win32,59.88023952,5f7737e3d3a6410bfdcb06f2,65d6bb0e977760de756971f7,65d6bed2210973f7d2836d4c,0.0909,0.091,0,76,76,49,1,onethree,,,,,,,,,,,,,,,,,,,,,,,,,,,,,,,,,,,,,,,,,,,,,,,,,,,,,,,,,,,,,,,,,,,,,,,,,,,,,,,,,,,,,,,,,,,,,,,,,,,,,,,,,,,,,,,,,,,,,,,,,,,,,,,,,,,,,,,,,
,,5f7737e3d3a6410bfdcb06f2,2024-02-22_24h26.33.421,kallum_motion_pilot,2023.2.2,Win32,59.88023952,5f7737e3d3a6410bfdcb06f2,65d6bb0e977760de756971f7,65d6bed2210973f7d2836d4c,0.0913,0.0914,0,77,77,8,1,onetwo,,,,,,,,,,,,,,,,,,,,,,,,,,,,,,,,,,,,,,,,,,,,,,,,,,,,,,,,,,,,,,,,,,,,,,,,,,,,,,,,,,,,,,,,,,,,,,,,,,,,,,,,,,,,,,,,,,,,,,,,,,,,,,,,,,,,,,,,,
,,5f7737e3d3a6410bfdcb06f2,2024-02-22_24h26.33.421,kallum_motion_pilot,2023.2.2,Win32,59.88023952,5f7737e3d3a6410bfdcb06f2,65d6bb0e977760de756971f7,65d6bed2210973f7d2836d4c,0.0917,0.0918,0,78,78,87,1,eightseven,,,,,,,,,,,,,,,,,,,,,,,,,,,,,,,,,,,,,,,,,,,,,,,,,,,,,,,,,,,,,,,,,,,,,,,,,,,,,,,,,,,,,,,,,,,,,,,,,,,,,,,,,,,,,,,,,,,,,,,,,,,,,,,,,,,,,,,,,
,,5f7737e3d3a6410bfdcb06f2,2024-02-22_24h26.33.421,kallum_motion_pilot,2023.2.2,Win32,59.88023952,5f7737e3d3a6410bfdcb06f2,65d6bb0e977760de756971f7,65d6bed2210973f7d2836d4c,0.0921,0.0923,0,79,79,124,1,sevenfive,,,,,,,,,,,,,,,,,,,,,,,,,,,,,,,,,,,,,,,,,,,,,,,,,,,,,,,,,,,,,,,,,,,,,,,,,,,,,,,,,,,,,,,,,,,,,,,,,,,,,,,,,,,,,,,,,,,,,,,,,,,,,,,,,,,,,,,,,
,,5f7737e3d3a6410bfdcb06f2,2024-02-22_24h26.33.421,kallum_motion_pilot,2023.2.2,Win32,59.88023952,5f7737e3d3a6410bfdcb06f2,65d6bb0e977760de756971f7,65d6bed2210973f7d2836d4c,0.0926,0.0928,0,80,80,52,1,threeone,,,,,,,,,,,,,,,,,,,,,,,,,,,,,,,,,,,,,,,,,,,,,,,,,,,,,,,,,,,,,,,,,,,,,,,,,,,,,,,,,,,,,,,,,,,,,,,,,,,,,,,,,,,,,,,,,,,,,,,,,,,,,,,,,,,,,,,,,
,,5f7737e3d3a6410bfdcb06f2,2024-02-22_24h26.33.421,kallum_motion_pilot,2023.2.2,Win32,59.88023952,5f7737e3d3a6410bfdcb06f2,65d6bb0e977760de756971f7,65d6bed2210973f7d2836d4c,0.093,0.0932,0,81,81,67,1,twofour,,,,,,,,,,,,,,,,,,,,,,,,,,,,,,,,,,,,,,,,,,,,,,,,,,,,,,,,,,,,,,,,,,,,,,,,,,,,,,,,,,,,,,,,,,,,,,,,,,,,,,,,,,,,,,,,,,,,,,,,,,,,,,,,,,,,,,,,,
,,5f7737e3d3a6410bfdcb06f2,2024-02-22_24h26.33.421,kallum_motion_pilot,2023.2.2,Win32,59.88023952,5f7737e3d3a6410bfdcb06f2,65d6bb0e977760de756971f7,65d6bed2210973f7d2836d4c,0.0934,0.0936,0,82,82,29,1,threefour,,,,,,,,,,,,,,,,,,,,,,,,,,,,,,,,,,,,,,,,,,,,,,,,,,,,,,,,,,,,,,,,,,,,,,,,,,,,,,,,,,,,,,,,,,,,,,,,,,,,,,,,,,,,,,,,,,,,,,,,,,,,,,,,,,,,,,,,,
,,5f7737e3d3a6410bfdcb06f2,2024-02-22_24h26.33.421,kallum_motion_pilot,2023.2.2,Win32,59.88023952,5f7737e3d3a6410bfdcb06f2,65d6bb0e977760de756971f7,65d6bed2210973f7d2836d4c,0.0938,0.094,0,83,83,147,1,sixeight,,,,,,,,,,,,,,,,,,,,,,,,,,,,,,,,,,,,,,,,,,,,,,,,,,,,,,,,,,,,,,,,,,,,,,,,,,,,,,,,,,,,,,,,,,,,,,,,,,,,,,,,,,,,,,,,,,,,,,,,,,,,,,,,,,,,,,,,,
,,5f7737e3d3a6410bfdcb06f2,2024-02-22_24h26.33.421,kallum_motion_pilot,2023.2.2,Win32,59.88023952,5f7737e3d3a6410bfdcb06f2,65d6bb0e977760de756971f7,65d6bed2210973f7d2836d4c,0.0942,0.0944,0,84,84,64,1,onetwo,,,,,,,,,,,,,,,,,,,,,,,,,,,,,,,,,,,,,,,,,,,,,,,,,,,,,,,,,,,,,,,,,,,,,,,,,,,,,,,,,,,,,,,,,,,,,,,,,,,,,,,,,,,,,,,,,,,,,,,,,,,,,,,,,,,,,,,,,
,,5f7737e3d3a6410bfdcb06f2,2024-02-22_24h26.33.421,kallum_motion_pilot,2023.2.2,Win32,59.88023952,5f7737e3d3a6410bfdcb06f2,65d6bb0e977760de756971f7,65d6bed2210973f7d2836d4c,0.0946,0.0948,0,85,85,75,1,twofour,,,,,,,,,,,,,,,,,,,,,,,,,,,,,,,,,,,,,,,,,,,,,,,,,,,,,,,,,,,,,,,,,,,,,,,,,,,,,,,,,,,,,,,,,,,,,,,,,,,,,,,,,,,,,,,,,,,,,,,,,,,,,,,,,,,,,,,,,
,,5f7737e3d3a6410bfdcb06f2,2024-02-22_24h26.33.421,kallum_motion_pilot,2023.2.2,Win32,59.88023952,5f7737e3d3a6410bfdcb06f2,65d6bb0e977760de756971f7,65d6bed2210973f7d2836d4c,0.095,0.0952,0,86,86,68,1,threeone,,,,,,,,,,,,,,,,,,,,,,,,,,,,,,,,,,,,,,,,,,,,,,,,,,,,,,,,,,,,,,,,,,,,,,,,,,,,,,,,,,,,,,,,,,,,,,,,,,,,,,,,,,,,,,,,,,,,,,,,,,,,,,,,,,,,,,,,,
,,5f7737e3d3a6410bfdcb06f2,2024-02-22_24h26.33.421,kallum_motion_pilot,2023.2.2,Win32,59.88023952,5f7737e3d3a6410bfdcb06f2,65d6bb0e977760de756971f7,65d6bed2210973f7d2836d4c,0.0957,0.0958,0,87,87,95,1,eightseven,,,,,,,,,,,,,,,,,,,,,,,,,,,,,,,,,,,,,,,,,,,,,,,,,,,,,,,,,,,,,,,,,,,,,,,,,,,,,,,,,,,,,,,,,,,,,,,,,,,,,,,,,,,,,,,,,,,,,,,,,,,,,,,,,,,,,,,,,
,,5f7737e3d3a6410bfdcb06f2,2024-02-22_24h26.33.421,kallum_motion_pilot,2023.2.2,Win32,59.88023952,5f7737e3d3a6410bfdcb06f2,65d6bb0e977760de756971f7,65d6bed2210973f7d2836d4c,0.0962,0.0963,0,88,88,134,1,eightsix,,,,,,,,,,,,,,,,,,,,,,,,,,,,,,,,,,,,,,,,,,,,,,,,,,,,,,,,,,,,,,,,,,,,,,,,,,,,,,,,,,,,,,,,,,,,,,,,,,,,,,,,,,,,,,,,,,,,,,,,,,,,,,,,,,,,,,,,,
,,5f7737e3d3a6410bfdcb06f2,2024-02-22_24h26.33.421,kallum_motion_pilot,2023.2.2,Win32,59.88023952,5f7737e3d3a6410bfdcb06f2,65d6bb0e977760de756971f7,65d6bed2210973f7d2836d4c,0.0965,0.0968,0,89,89,127,1,eightseven,,,,,,,,,,,,,,,,,,,,,,,,,,,,,,,,,,,,,,,,,,,,,,,,,,,,,,,,,,,,,,,,,,,,,,,,,,,,,,,,,,,,,,,,,,,,,,,,,,,,,,,,,,,,,,,,,,,,,,,,,,,,,,,,,,,,,,,,,
,,5f7737e3d3a6410bfdcb06f2,2024-02-22_24h26.33.421,kallum_motion_pilot,2023.2.2,Win32,59.88023952,5f7737e3d3a6410bfdcb06f2,65d6bb0e977760de756971f7,65d6bed2210973f7d2836d4c,0.097,0.0973,0,90,90,2,1,twoone,,,,,,,,,,,,,,,,,,,,,,,,,,,,,,,,,,,,,,,,,,,,,,,,,,,,,,,,,,,,,,,,,,,,,,,,,,,,,,,,,,,,,,,,,,,,,,,,,,,,,,,,,,,,,,,,,,,,,,,,,,,,,,,,,,,,,,,,,
,,5f7737e3d3a6410bfdcb06f2,2024-02-22_24h26.33.421,kallum_motion_pilot,2023.2.2,Win32,59.88023952,5f7737e3d3a6410bfdcb06f2,65d6bb0e977760de756971f7,65d6bed2210973f7d2836d4c,0.0975,0.0977,0,91,91,154,1,sixfive,,,,,,,,,,,,,,,,,,,,,,,,,,,,,,,,,,,,,,,,,,,,,,,,,,,,,,,,,,,,,,,,,,,,,,,,,,,,,,,,,,,,,,,,,,,,,,,,,,,,,,,,,,,,,,,,,,,,,,,,,,,,,,,,,,,,,,,,,
,,5f7737e3d3a6410bfdcb06f2,2024-02-22_24h26.33.421,kallum_motion_pilot,2023.2.2,Win32,59.88023952,5f7737e3d3a6410bfdcb06f2,65d6bb0e977760de756971f7,65d6bed2210973f7d2836d4c,0.0979,0.0981,0,92,92,43,1,twofour,,,,,,,,,,,,,,,,,,,,,,,,,,,,,,,,,,,,,,,,,,,,,,,,,,,,,,,,,,,,,,,,,,,,,,,,,,,,,,,,,,,,,,,,,,,,,,,,,,,,,,,,,,,,,,,,,,,,,,,,,,,,,,,,,,,,,,,,,
,,5f7737e3d3a6410bfdcb06f2,2024-02-22_24h26.33.421,kallum_motion_pilot,2023.2.2,Win32,59.88023952,5f7737e3d3a6410bfdcb06f2,65d6bb0e977760de756971f7,65d6bed2210973f7d2836d4c,0.0983,0.0985,0,93,93,45,1,threefour,,,,,,,,,,,,,,,,,,,,,,,,,,,,,,,,,,,,,,,,,,,,,,,,,,,,,,,,,,,,,,,,,,,,,,,,,,,,,,,,,,,,,,,,,,,,,,,,,,,,,,,,,,,,,,,,,,,,,,,,,,,,,,,,,,,,,,,,,
,,5f7737e3d3a6410bfdcb06f2,2024-02-22_24h26.33.421,kallum_motion_pilot,2023.2.2,Win32,59.88023952,5f7737e3d3a6410bfdcb06f2,65d6bb0e977760de756971f7,65d6bed2210973f7d2836d4c,0.0988,0.0989,0,94,94,9,1,onethree,,,,,,,,,,,,,,,,,,,,,,,,,,,,,,,,,,,,,,,,,,,,,,,,,,,,,,,,,,,,,,,,,,,,,,,,,,,,,,,,,,,,,,,,,,,,,,,,,,,,,,,,,,,,,,,,,,,,,,,,,,,,,,,,,,,,,,,,,
,,5f7737e3d3a6410bfdcb06f2,2024-02-22_24h26.33.421,kallum_motion_pilot,2023.2.2,Win32,59.88023952,5f7737e3d3a6410bfdcb06f2,65d6bb0e977760de756971f7,65d6bed2210973f7d2836d4c,0.0992,0.0993,0,95,95,77,1,threefour,,,,,,,,,,,,,,,,,,,,,,,,,,,,,,,,,,,,,,,,,,,,,,,,,,,,,,,,,,,,,,,,,,,,,,,,,,,,,,,,,,,,,,,,,,,,,,,,,,,,,,,,,,,,,,,,,,,,,,,,,,,,,,,,,,,,,,,,,
,,5f7737e3d3a6410bfdcb06f2,2024-02-22_24h26.33.421,kallum_motion_pilot,2023.2.2,Win32,59.88023952,5f7737e3d3a6410bfdcb06f2,65d6bb0e977760de756971f7,65d6bed2210973f7d2836d4c,0.0995,0.0997,0,96,96,47,1,fourthree,,,,,,,,,,,,,,,,,,,,,,,,,,,,,,,,,,,,,,,,,,,,,,,,,,,,,,,,,,,,,,,,,,,,,,,,,,,,,,,,,,,,,,,,,,,,,,,,,,,,,,,,,,,,,,,,,,,,,,,,,,,,,,,,,,,,,,,,,
,,5f7737e3d3a6410bfdcb06f2,2024-02-22_24h26.33.421,kallum_motion_pilot,2023.2.2,Win32,59.88023952,5f7737e3d3a6410bfdcb06f2,65d6bb0e977760de756971f7,65d6bed2210973f7d2836d4c,0.0999,0.1001,0,97,97,40,1,onetwo,,,,,,,,,,,,,,,,,,,,,,,,,,,,,,,,,,,,,,,,,,,,,,,,,,,,,,,,,,,,,,,,,,,,,,,,,,,,,,,,,,,,,,,,,,,,,,,,,,,,,,,,,,,,,,,,,,,,,,,,,,,,,,,,,,,,,,,,,
,,5f7737e3d3a6410bfdcb06f2,2024-02-22_24h26.33.421,kallum_motion_pilot,2023.2.2,Win32,59.88023952,5f7737e3d3a6410bfdcb06f2,65d6bb0e977760de756971f7,65d6bed2210973f7d2836d4c,0.1004,0.1005,0,98,98,18,1,twoone,,,,,,,,,,,,,,,,,,,,,,,,,,,,,,,,,,,,,,,,,,,,,,,,,,,,,,,,,,,,,,,,,,,,,,,,,,,,,,,,,,,,,,,,,,,,,,,,,,,,,,,,,,,,,,,,,,,,,,,,,,,,,,,,,,,,,,,,,
,,5f7737e3d3a6410bfdcb06f2,2024-02-22_24h26.33.421,kallum_motion_pilot,2023.2.2,Win32,59.88023952,5f7737e3d3a6410bfdcb06f2,65d6bb0e977760de756971f7,65d6bed2210973f7d2836d4c,0.1008,0.101,0,99,99,110,1,eightsix,,,,,,,,,,,,,,,,,,,,,,,,,,,,,,,,,,,,,,,,,,,,,,,,,,,,,,,,,,,,,,,,,,,,,,,,,,,,,,,,,,,,,,,,,,,,,,,,,,,,,,,,,,,,,,,,,,,,,,,,,,,,,,,,,,,,,,,,,
,,5f7737e3d3a6410bfdcb06f2,2024-02-22_24h26.33.421,kallum_motion_pilot,2023.2.2,Win32,59.88023952,5f7737e3d3a6410bfdcb06f2,65d6bb0e977760de756971f7,65d6bed2210973f7d2836d4c,0.1012,0.1014,0,100,100,63,1,fourthree,,,,,,,,,,,,,,,,,,,,,,,,,,,,,,,,,,,,,,,,,,,,,,,,,,,,,,,,,,,,,,,,,,,,,,,,,,,,,,,,,,,,,,,,,,,,,,,,,,,,,,,,,,,,,,,,,,,,,,,,,,,,,,,,,,,,,,,,,
,,5f7737e3d3a6410bfdcb06f2,2024-02-22_24h26.33.421,kallum_motion_pilot,2023.2.2,Win32,59.88023952,5f7737e3d3a6410bfdcb06f2,65d6bb0e977760de756971f7,65d6bed2210973f7d2836d4c,0.1016,0.1018,0,101,101,82,1,sixfive,,,,,,,,,,,,,,,,,,,,,,,,,,,,,,,,,,,,,,,,,,,,,,,,,,,,,,,,,,,,,,,,,,,,,,,,,,,,,,,,,,,,,,,,,,,,,,,,,,,,,,,,,,,,,,,,,,,,,,,,,,,,,,,,,,,,,,,,,
,,5f7737e3d3a6410bfdcb06f2,2024-02-22_24h26.33.421,kallum_motion_pilot,2023.2.2,Win32,59.88023952,5f7737e3d3a6410bfdcb06f2,65d6bb0e977760de756971f7,65d6bed2210973f7d2836d4c,0.1022,0.1023,0,102,102,148,1,sevenfive,,,,,,,,,,,,,,,,,,,,,,,,,,,,,,,,,,,,,,,,,,,,,,,,,,,,,,,,,,,,,,,,,,,,,,,,,,,,,,,,,,,,,,,,,,,,,,,,,,,,,,,,,,,,,,,,,,,,,,,,,,,,,,,,,,,,,,,,,
,,5f7737e3d3a6410bfdcb06f2,2024-02-22_24h26.33.421,kallum_motion_pilot,2023.2.2,Win32,59.88023952,5f7737e3d3a6410bfdcb06f2,65d6bb0e977760de756971f7,65d6bed2210973f7d2836d4c,0.1026,0.1029,0,103,103,112,1,fivesix,,,,,,,,,,,,,,,,,,,,,,,,,,,,,,,,,,,,,,,,,,,,,,,,,,,,,,,,,,,,,,,,,,,,,,,,,,,,,,,,,,,,,,,,,,,,,,,,,,,,,,,,,,,,,,,,,,,,,,,,,,,,,,,,,,,,,,,,,
,,5f7737e3d3a6410bfdcb06f2,2024-02-22_24h26.33.421,kallum_motion_pilot,2023.2.2,Win32,59.88023952,5f7737e3d3a6410bfdcb06f2,65d6bb0e977760de756971f7,65d6bed2210973f7d2836d4c,0.1031,0.1032,0,104,104,59,1,twofour,,,,,,,,,,,,,,,,,,,,,,,,,,,,,,,,,,,,,,,,,,,,,,,,,,,,,,,,,,,,,,,,,,,,,,,,,,,,,,,,,,,,,,,,,,,,,,,,,,,,,,,,,,,,,,,,,,,,,,,,,,,,,,,,,,,,,,,,,
,,5f7737e3d3a6410bfdcb06f2,2024-02-22_24h26.33.421,kallum_motion_pilot,2023.2.2,Win32,59.88023952,5f7737e3d3a6410bfdcb06f2,65d6bb0e977760de756971f7,65d6bed2210973f7d2836d4c,0.1035,0.1037,0,105,105,6,1,fourtwo,,,,,,,,,,,,,,,,,,,,,,,,,,,,,,,,,,,,,,,,,,,,,,,,,,,,,,,,,,,,,,,,,,,,,,,,,,,,,,,,,,,,,,,,,,,,,,,,,,,,,,,,,,,,,,,,,,,,,,,,,,,,,,,,,,,,,,,,,
,,5f7737e3d3a6410bfdcb06f2,2024-02-22_24h26.33.421,kallum_motion_pilot,2023.2.2,Win32,59.88023952,5f7737e3d3a6410bfdcb06f2,65d6bb0e977760de756971f7,65d6bed2210973f7d2836d4c,0.1039,0.104,0,106,106,35,1,twofour,,,,,,,,,,,,,,,,,,,,,,,,,,,,,,,,,,,,,,,,,,,,,,,,,,,,,,,,,,,,,,,,,,,,,,,,,,,,,,,,,,,,,,,,,,,,,,,,,,,,,,,,,,,,,,,,,,,,,,,,,,,,,,,,,,,,,,,,,
,,5f7737e3d3a6410bfdcb06f2,2024-02-22_24h26.33.421,kallum_motion_pilot,2023.2.2,Win32,59.88023952,5f7737e3d3a6410bfdcb06f2,65d6bb0e977760de756971f7,65d6bed2210973f7d2836d4c,0.1043,0.1045,0,107,107,23,1,fourthree,,,,,,,,,,,,,,,,,,,,,,,,,,,,,,,,,,,,,,,,,,,,,,,,,,,,,,,,,,,,,,,,,,,,,,,,,,,,,,,,,,,,,,,,,,,,,,,,,,,,,,,,,,,,,,,,,,,,,,,,,,,,,,,,,,,,,,,,,
,,5f7737e3d3a6410bfdcb06f2,2024-02-22_24h26.33.421,kallum_motion_pilot,2023.2.2,Win32,59.88023952,5f7737e3d3a6410bfdcb06f2,65d6bb0e977760de756971f7,65d6bed2210973f7d2836d4c,0.1047,0.1048,0,108,108,70,1,fourtwo,,,,,,,,,,,,,,,,,,,,,,,,,,,,,,,,,,,,,,,,,,,,,,,,,,,,,,,,,,,,,,,,,,,,,,,,,,,,,,,,,,,,,,,,,,,,,,,,,,,,,,,,,,,,,,,,,,,,,,,,,,,,,,,,,,,,,,,,,
,,5f7737e3d3a6410bfdcb06f2,2024-02-22_24h26.33.421,kallum_motion_pilot,2023.2.2,Win32,59.88023952,5f7737e3d3a6410bfdcb06f2,65d6bb0e977760de756971f7,65d6bed2210973f7d2836d4c,0.1052,0.1054,0,109,109,132,1,sevenfive,,,,,,,,,,,,,,,,,,,,,,,,,,,,,,,,,,,,,,,,,,,,,,,,,,,,,,,,,,,,,,,,,,,,,,,,,,,,,,,,,,,,,,,,,,,,,,,,,,,,,,,,,,,,,,,,,,,,,,,,,,,,,,,,,,,,,,,,,
,,5f7737e3d3a6410bfdcb06f2,2024-02-22_24h26.33.421,kallum_motion_pilot,2023.2.2,Win32,59.88023952,5f7737e3d3a6410bfdcb06f2,65d6bb0e977760de756971f7,65d6bed2210973f7d2836d4c,0.1058,0.106,0,110,110,143,1,eightseven,,,,,,,,,,,,,,,,,,,,,,,,,,,,,,,,,,,,,,,,,,,,,,,,,,,,,,,,,,,,,,,,,,,,,,,,,,,,,,,,,,,,,,,,,,,,,,,,,,,,,,,,,,,,,,,,,,,,,,,,,,,,,,,,,,,,,,,,,
,,5f7737e3d3a6410bfdcb06f2,2024-02-22_24h26.33.421,kallum_motion_pilot,2023.2.2,Win32,59.88023952,5f7737e3d3a6410bfdcb06f2,65d6bb0e977760de756971f7,65d6bed2210973f7d2836d4c,0.1062,0.1065,0,111,111,72,1,onetwo,,,,,,,,,,,,,,,,,,,,,,,,,,,,,,,,,,,,,,,,,,,,,,,,,,,,,,,,,,,,,,,,,,,,,,,,,,,,,,,,,,,,,,,,,,,,,,,,,,,,,,,,,,,,,,,,,,,,,,,,,,,,,,,,,,,,,,,,,
,,5f7737e3d3a6410bfdcb06f2,2024-02-22_24h26.33.421,kallum_motion_pilot,2023.2.2,Win32,59.88023952,5f7737e3d3a6410bfdcb06f2,65d6bb0e977760de756971f7,65d6bed2210973f7d2836d4c,0.1067,0.1069,0,112,112,138,1,sixfive,,,,,,,,,,,,,,,,,,,,,,,,,,,,,,,,,,,,,,,,,,,,,,,,,,,,,,,,,,,,,,,,,,,,,,,,,,,,,,,,,,,,,,,,,,,,,,,,,,,,,,,,,,,,,,,,,,,,,,,,,,,,,,,,,,,,,,,,,
,,5f7737e3d3a6410bfdcb06f2,2024-02-22_24h26.33.421,kallum_motion_pilot,2023.2.2,Win32,59.88023952,5f7737e3d3a6410bfdcb06f2,65d6bb0e977760de756971f7,65d6bed2210973f7d2836d4c,0.1073,0.1075,0,113,113,44,1,threeone,,,,,,,,,,,,,,,,,,,,,,,,,,,,,,,,,,,,,,,,,,,,,,,,,,,,,,,,,,,,,,,,,,,,,,,,,,,,,,,,,,,,,,,,,,,,,,,,,,,,,,,,,,,,,,,,,,,,,,,,,,,,,,,,,,,,,,,,,
,,5f7737e3d3a6410bfdcb06f2,2024-02-22_24h26.33.421,kallum_motion_pilot,2023.2.2,Win32,59.88023952,5f7737e3d3a6410bfdcb06f2,65d6bb0e977760de756971f7,65d6bed2210973f7d2836d4c,0.1077,0.1079,0,114,114,83,1,sixeight,,,,,,,,,,,,,,,,,,,,,,,,,,,,,,,,,,,,,,,,,,,,,,,,,,,,,,,,,,,,,,,,,,,,,,,,,,,,,,,,,,,,,,,,,,,,,,,,,,,,,,,,,,,,,,,,,,,,,,,,,,,,,,,,,,,,,,,,,
,,5f7737e3d3a6410bfdcb06f2,2024-02-22_24h26.33.421,kallum_motion_pilot,2023.2.2,Win32,59.88023952,5f7737e3d3a6410bfdcb06f2,65d6bb0e977760de756971f7,65d6bed2210973f7d2836d4c,0.1083,0.1084,0,115,115,105,1,fiveseven,,,,,,,,,,,,,,,,,,,,,,,,,,,,,,,,,,,,,,,,,,,,,,,,,,,,,,,,,,,,,,,,,,,,,,,,,,,,,,,,,,,,,,,,,,,,,,,,,,,,,,,,,,,,,,,,,,,,,,,,,,,,,,,,,,,,,,,,,
,,5f7737e3d3a6410bfdcb06f2,2024-02-22_24h26.33.421,kallum_motion_pilot,2023.2.2,Win32,59.88023952,5f7737e3d3a6410bfdcb06f2,65d6bb0e977760de756971f7,65d6bed2210973f7d2836d4c,0.1089,0.109,0,116,116,106,1,sixfive,,,,,,,,,,,,,,,,,,,,,,,,,,,,,,,,,,,,,,,,,,,,,,,,,,,,,,,,,,,,,,,,,,,,,,,,,,,,,,,,,,,,,,,,,,,,,,,,,,,,,,,,,,,,,,,,,,,,,,,,,,,,,,,,,,,,,,,,,
,,5f7737e3d3a6410bfdcb06f2,2024-02-22_24h26.33.421,kallum_motion_pilot,2023.2.2,Win32,59.88023952,5f7737e3d3a6410bfdcb06f2,65d6bb0e977760de756971f7,65d6bed2210973f7d2836d4c,0.1094,0.1095,0,117,117,114,1,sixfive,,,,,,,,,,,,,,,,,,,,,,,,,,,,,,,,,,,,,,,,,,,,,,,,,,,,,,,,,,,,,,,,,,,,,,,,,,,,,,,,,,,,,,,,,,,,,,,,,,,,,,,,,,,,,,,,,,,,,,,,,,,,,,,,,,,,,,,,,
,,5f7737e3d3a6410bfdcb06f2,2024-02-22_24h26.33.421,kallum_motion_pilot,2023.2.2,Win32,59.88023952,5f7737e3d3a6410bfdcb06f2,65d6bb0e977760de756971f7,65d6bed2210973f7d2836d4c,0.1098,0.11,0,118,118,123,1,sixeight,,,,,,,,,,,,,,,,,,,,,,,,,,,,,,,,,,,,,,,,,,,,,,,,,,,,,,,,,,,,,,,,,,,,,,,,,,,,,,,,,,,,,,,,,,,,,,,,,,,,,,,,,,,,,,,,,,,,,,,,,,,,,,,,,,,,,,,,,
,,5f7737e3d3a6410bfdcb06f2,2024-02-22_24h26.33.421,kallum_motion_pilot,2023.2.2,Win32,59.88023952,5f7737e3d3a6410bfdcb06f2,65d6bb0e977760de756971f7,65d6bed2210973f7d2836d4c,0.1102,0.1104,0,119,119,129,1,fiveseven,,,,,,,,,,,,,,,,,,,,,,,,,,,,,,,,,,,,,,,,,,,,,,,,,,,,,,,,,,,,,,,,,,,,,,,,,,,,,,,,,,,,,,,,,,,,,,,,,,,,,,,,,,,,,,,,,,,,,,,,,,,,,,,,,,,,,,,,,
,,5f7737e3d3a6410bfdcb06f2,2024-02-22_24h26.33.421,kallum_motion_pilot,2023.2.2,Win32,59.88023952,5f7737e3d3a6410bfdcb06f2,65d6bb0e977760de756971f7,65d6bed2210973f7d2836d4c,0.1107,0.111,0,120,120,109,1,seveneight,,,,,,,,,,,,,,,,,,,,,,,,,,,,,,,,,,,,,,,,,,,,,,,,,,,,,,,,,,,,,,,,,,,,,,,,,,,,,,,,,,,,,,,,,,,,,,,,,,,,,,,,,,,,,,,,,,,,,,,,,,,,,,,,,,,,,,,,,
,,5f7737e3d3a6410bfdcb06f2,2024-02-22_24h26.33.421,kallum_motion_pilot,2023.2.2,Win32,59.88023952,5f7737e3d3a6410bfdcb06f2,65d6bb0e977760de756971f7,65d6bed2210973f7d2836d4c,0.1112,0.1115,0,121,121,27,1,twofour,,,,,,,,,,,,,,,,,,,,,,,,,,,,,,,,,,,,,,,,,,,,,,,,,,,,,,,,,,,,,,,,,,,,,,,,,,,,,,,,,,,,,,,,,,,,,,,,,,,,,,,,,,,,,,,,,,,,,,,,,,,,,,,,,,,,,,,,,
,,5f7737e3d3a6410bfdcb06f2,2024-02-22_24h26.33.421,kallum_motion_pilot,2023.2.2,Win32,59.88023952,5f7737e3d3a6410bfdcb06f2,65d6bb0e977760de756971f7,65d6bed2210973f7d2836d4c,0.1117,0.1119,0,122,122,7,1,fourthree,,,,,,,,,,,,,,,,,,,,,,,,,,,,,,,,,,,,,,,,,,,,,,,,,,,,,,,,,,,,,,,,,,,,,,,,,,,,,,,,,,,,,,,,,,,,,,,,,,,,,,,,,,,,,,,,,,,,,,,,,,,,,,,,,,,,,,,,,
,,5f7737e3d3a6410bfdcb06f2,2024-02-22_24h26.33.421,kallum_motion_pilot,2023.2.2,Win32,59.88023952,5f7737e3d3a6410bfdcb06f2,65d6bb0e977760de756971f7,65d6bed2210973f7d2836d4c,0.1122,0.1124,0,123,123,116,1,sevenfive,,,,,,,,,,,,,,,,,,,,,,,,,,,,,,,,,,,,,,,,,,,,,,,,,,,,,,,,,,,,,,,,,,,,,,,,,,,,,,,,,,,,,,,,,,,,,,,,,,,,,,,,,,,,,,,,,,,,,,,,,,,,,,,,,,,,,,,,,
,,5f7737e3d3a6410bfdcb06f2,2024-02-22_24h26.33.421,kallum_motion_pilot,2023.2.2,Win32,59.88023952,5f7737e3d3a6410bfdcb06f2,65d6bb0e977760de756971f7,65d6bed2210973f7d2836d4c,0.1127,0.113,0,124,124,50,1,twoone,,,,,,,,,,,,,,,,,,,,,,,,,,,,,,,,,,,,,,,,,,,,,,,,,,,,,,,,,,,,,,,,,,,,,,,,,,,,,,,,,,,,,,,,,,,,,,,,,,,,,,,,,,,,,,,,,,,,,,,,,,,,,,,,,,,,,,,,,
,,5f7737e3d3a6410bfdcb06f2,2024-02-22_24h26.33.421,kallum_motion_pilot,2023.2.2,Win32,59.88023952,5f7737e3d3a6410bfdcb06f2,65d6bb0e977760de756971f7,65d6bed2210973f7d2836d4c,0.1132,0.1134,0,125,125,61,1,threefour,,,,,,,,,,,,,,,,,,,,,,,,,,,,,,,,,,,,,,,,,,,,,,,,,,,,,,,,,,,,,,,,,,,,,,,,,,,,,,,,,,,,,,,,,,,,,,,,,,,,,,,,,,,,,,,,,,,,,,,,,,,,,,,,,,,,,,,,,
,,5f7737e3d3a6410bfdcb06f2,2024-02-22_24h26.33.421,kallum_motion_pilot,2023.2.2,Win32,59.88023952,5f7737e3d3a6410bfdcb06f2,65d6bb0e977760de756971f7,65d6bed2210973f7d2836d4c,0.1139,0.1141,0,126,126,38,1,fourtwo,,,,,,,,,,,,,,,,,,,,,,,,,,,,,,,,,,,,,,,,,,,,,,,,,,,,,,,,,,,,,,,,,,,,,,,,,,,,,,,,,,,,,,,,,,,,,,,,,,,,,,,,,,,,,,,,,,,,,,,,,,,,,,,,,,,,,,,,,
,,5f7737e3d3a6410bfdcb06f2,2024-02-22_24h26.33.421,kallum_motion_pilot,2023.2.2,Win32,59.88023952,5f7737e3d3a6410bfdcb06f2,65d6bb0e977760de756971f7,65d6bed2210973f7d2836d4c,0.1143,0.1145,0,127,127,14,1,fourtwo,,,,,,,,,,,,,,,,,,,,,,,,,,,,,,,,,,,,,,,,,,,,,,,,,,,,,,,,,,,,,,,,,,,,,,,,,,,,,,,,,,,,,,,,,,,,,,,,,,,,,,,,,,,,,,,,,,,,,,,,,,,,,,,,,,,,,,,,,
,,5f7737e3d3a6410bfdcb06f2,2024-02-22_24h26.33.421,kallum_motion_pilot,2023.2.2,Win32,59.88023952,5f7737e3d3a6410bfdcb06f2,65d6bb0e977760de756971f7,65d6bed2210973f7d2836d4c,0.1149,0.115,0,128,128,78,1,fourtwo,,,,,,,,,,,,,,,,,,,,,,,,,,,,,,,,,,,,,,,,,,,,,,,,,,,,,,,,,,,,,,,,,,,,,,,,,,,,,,,,,,,,,,,,,,,,,,,,,,,,,,,,,,,,,,,,,,,,,,,,,,,,,,,,,,,,,,,,,
,,5f7737e3d3a6410bfdcb06f2,2024-02-22_24h26.33.421,kallum_motion_pilot,2023.2.2,Win32,59.88023952,5f7737e3d3a6410bfdcb06f2,65d6bb0e977760de756971f7,65d6bed2210973f7d2836d4c,0.1153,0.1156,0,129,129,157,1,seveneight,,,,,,,,,,,,,,,,,,,,,,,,,,,,,,,,,,,,,,,,,,,,,,,,,,,,,,,,,,,,,,,,,,,,,,,,,,,,,,,,,,,,,,,,,,,,,,,,,,,,,,,,,,,,,,,,,,,,,,,,,,,,,,,,,,,,,,,,,
,,5f7737e3d3a6410bfdcb06f2,2024-02-22_24h26.33.421,kallum_motion_pilot,2023.2.2,Win32,59.88023952,5f7737e3d3a6410bfdcb06f2,65d6bb0e977760de756971f7,65d6bed2210973f7d2836d4c,0.1158,0.1161,0,130,130,76,1,threeone,,,,,,,,,,,,,,,,,,,,,,,,,,,,,,,,,,,,,,,,,,,,,,,,,,,,,,,,,,,,,,,,,,,,,,,,,,,,,,,,,,,,,,,,,,,,,,,,,,,,,,,,,,,,,,,,,,,,,,,,,,,,,,,,,,,,,,,,,
,,5f7737e3d3a6410bfdcb06f2,2024-02-22_24h26.33.421,kallum_motion_pilot,2023.2.2,Win32,59.88023952,5f7737e3d3a6410bfdcb06f2,65d6bb0e977760de756971f7,65d6bed2210973f7d2836d4c,0.1163,0.1165,0,131,131,19,1,twofour,,,,,,,,,,,,,,,,,,,,,,,,,,,,,,,,,,,,,,,,,,,,,,,,,,,,,,,,,,,,,,,,,,,,,,,,,,,,,,,,,,,,,,,,,,,,,,,,,,,,,,,,,,,,,,,,,,,,,,,,,,,,,,,,,,,,,,,,,
,,5f7737e3d3a6410bfdcb06f2,2024-02-22_24h26.33.421,kallum_motion_pilot,2023.2.2,Win32,59.88023952,5f7737e3d3a6410bfdcb06f2,65d6bb0e977760de756971f7,65d6bed2210973f7d2836d4c,0.1168,0.117,0,132,132,48,1,onetwo,,,,,,,,,,,,,,,,,,,,,,,,,,,,,,,,,,,,,,,,,,,,,,,,,,,,,,,,,,,,,,,,,,,,,,,,,,,,,,,,,,,,,,,,,,,,,,,,,,,,,,,,,,,,,,,,,,,,,,,,,,,,,,,,,,,,,,,,,
,,5f7737e3d3a6410bfdcb06f2,2024-02-22_24h26.33.421,kallum_motion_pilot,2023.2.2,Win32,59.88023952,5f7737e3d3a6410bfdcb06f2,65d6bb0e977760de756971f7,65d6bed2210973f7d2836d4c,0.1174,0.1176,0,133,133,39,1,fourthree,,,,,,,,,,,,,,,,,,,,,,,,,,,,,,,,,,,,,,,,,,,,,,,,,,,,,,,,,,,,,,,,,,,,,,,,,,,,,,,,,,,,,,,,,,,,,,,,,,,,,,,,,,,,,,,,,,,,,,,,,,,,,,,,,,,,,,,,,
,,5f7737e3d3a6410bfdcb06f2,2024-02-22_24h26.33.421,kallum_motion_pilot,2023.2.2,Win32,59.88023952,5f7737e3d3a6410bfdcb06f2,65d6bb0e977760de756971f7,65d6bed2210973f7d2836d4c,0.1179,0.1181,0,134,134,20,1,threeone,,,,,,,,,,,,,,,,,,,,,,,,,,,,,,,,,,,,,,,,,,,,,,,,,,,,,,,,,,,,,,,,,,,,,,,,,,,,,,,,,,,,,,,,,,,,,,,,,,,,,,,,,,,,,,,,,,,,,,,,,,,,,,,,,,,,,,,,,
,,5f7737e3d3a6410bfdcb06f2,2024-02-22_24h26.33.421,kallum_motion_pilot,2023.2.2,Win32,59.88023952,5f7737e3d3a6410bfdcb06f2,65d6bb0e977760de756971f7,65d6bed2210973f7d2836d4c,0.1185,0.1187,0,135,135,41,1,onethree,,,,,,,,,,,,,,,,,,,,,,,,,,,,,,,,,,,,,,,,,,,,,,,,,,,,,,,,,,,,,,,,,,,,,,,,,,,,,,,,,,,,,,,,,,,,,,,,,,,,,,,,,,,,,,,,,,,,,,,,,,,,,,,,,,,,,,,,,
,,5f7737e3d3a6410bfdcb06f2,2024-02-22_24h26.33.421,kallum_motion_pilot,2023.2.2,Win32,59.88023952,5f7737e3d3a6410bfdcb06f2,65d6bb0e977760de756971f7,65d6bed2210973f7d2836d4c,0.119,0.1192,0,136,136,71,1,fourthree,,,,,,,,,,,,,,,,,,,,,,,,,,,,,,,,,,,,,,,,,,,,,,,,,,,,,,,,,,,,,,,,,,,,,,,,,,,,,,,,,,,,,,,,,,,,,,,,,,,,,,,,,,,,,,,,,,,,,,,,,,,,,,,,,,,,,,,,,
,,5f7737e3d3a6410bfdcb06f2,2024-02-22_24h26.33.421,kallum_motion_pilot,2023.2.2,Win32,59.88023952,5f7737e3d3a6410bfdcb06f2,65d6bb0e977760de756971f7,65d6bed2210973f7d2836d4c,0.1194,0.1196,0,137,137,156,1,sevenfive,,,,,,,,,,,,,,,,,,,,,,,,,,,,,,,,,,,,,,,,,,,,,,,,,,,,,,,,,,,,,,,,,,,,,,,,,,,,,,,,,,,,,,,,,,,,,,,,,,,,,,,,,,,,,,,,,,,,,,,,,,,,,,,,,,,,,,,,,
,,5f7737e3d3a6410bfdcb06f2,2024-02-22_24h26.33.421,kallum_motion_pilot,2023.2.2,Win32,59.88023952,5f7737e3d3a6410bfdcb06f2,65d6bb0e977760de756971f7,65d6bed2210973f7d2836d4c,0.1199,0.1201,0,138,138,92,1,sevenfive,,,,,,,,,,,,,,,,,,,,,,,,,,,,,,,,,,,,,,,,,,,,,,,,,,,,,,,,,,,,,,,,,,,,,,,,,,,,,,,,,,,,,,,,,,,,,,,,,,,,,,,,,,,,,,,,,,,,,,,,,,,,,,,,,,,,,,,,,
,,5f7737e3d3a6410bfdcb06f2,2024-02-22_24h26.33.421,kallum_motion_pilot,2023.2.2,Win32,59.88023952,5f7737e3d3a6410bfdcb06f2,65d6bb0e977760de756971f7,65d6bed2210973f7d2836d4c,0.1204,0.1207,0,139,139,122,1,sixfive,,,,,,,,,,,,,,,,,,,,,,,,,,,,,,,,,,,,,,,,,,,,,,,,,,,,,,,,,,,,,,,,,,,,,,,,,,,,,,,,,,,,,,,,,,,,,,,,,,,,,,,,,,,,,,,,,,,,,,,,,,,,,,,,,,,,,,,,,
,,5f7737e3d3a6410bfdcb06f2,2024-02-22_24h26.33.421,kallum_motion_pilot,2023.2.2,Win32,59.88023952,5f7737e3d3a6410bfdcb06f2,65d6bb0e977760de756971f7,65d6bed2210973f7d2836d4c,0.1209,0.1211,0,140,140,73,1,onethree,,,,,,,,,,,,,,,,,,,,,,,,,,,,,,,,,,,,,,,,,,,,,,,,,,,,,,,,,,,,,,,,,,,,,,,,,,,,,,,,,,,,,,,,,,,,,,,,,,,,,,,,,,,,,,,,,,,,,,,,,,,,,,,,,,,,,,,,,
,,5f7737e3d3a6410bfdcb06f2,2024-02-22_24h26.33.421,kallum_motion_pilot,2023.2.2,Win32,59.88023952,5f7737e3d3a6410bfdcb06f2,65d6bb0e977760de756971f7,65d6bed2210973f7d2836d4c,0.1214,0.1217,0,141,141,90,1,sixfive,,,,,,,,,,,,,,,,,,,,,,,,,,,,,,,,,,,,,,,,,,,,,,,,,,,,,,,,,,,,,,,,,,,,,,,,,,,,,,,,,,,,,,,,,,,,,,,,,,,,,,,,,,,,,,,,,,,,,,,,,,,,,,,,,,,,,,,,,
,,5f7737e3d3a6410bfdcb06f2,2024-02-22_24h26.33.421,kallum_motion_pilot,2023.2.2,Win32,59.88023952,5f7737e3d3a6410bfdcb06f2,65d6bb0e977760de756971f7,65d6bed2210973f7d2836d4c,0.1219,0.1222,0,142,142,145,1,fiveseven,,,,,,,,,,,,,,,,,,,,,,,,,,,,,,,,,,,,,,,,,,,,,,,,,,,,,,,,,,,,,,,,,,,,,,,,,,,,,,,,,,,,,,,,,,,,,,,,,,,,,,,,,,,,,,,,,,,,,,,,,,,,,,,,,,,,,,,,,
,,5f7737e3d3a6410bfdcb06f2,2024-02-22_24h26.33.421,kallum_motion_pilot,2023.2.2,Win32,59.88023952,5f7737e3d3a6410bfdcb06f2,65d6bb0e977760de756971f7,65d6bed2210973f7d2836d4c,0.1224,0.1227,0,143,143,69,1,threefour,,,,,,,,,,,,,,,,,,,,,,,,,,,,,,,,,,,,,,,,,,,,,,,,,,,,,,,,,,,,,,,,,,,,,,,,,,,,,,,,,,,,,,,,,,,,,,,,,,,,,,,,,,,,,,,,,,,,,,,,,,,,,,,,,,,,,,,,,
,,5f7737e3d3a6410bfdcb06f2,2024-02-22_24h26.33.421,kallum_motion_pilot,2023.2.2,Win32,59.88023952,5f7737e3d3a6410bfdcb06f2,65d6bb0e977760de756971f7,65d6bed2210973f7d2836d4c,0.123,0.1232,0,144,144,118,1,eightsix,,,,,,,,,,,,,,,,,,,,,,,,,,,,,,,,,,,,,,,,,,,,,,,,,,,,,,,,,,,,,,,,,,,,,,,,,,,,,,,,,,,,,,,,,,,,,,,,,,,,,,,,,,,,,,,,,,,,,,,,,,,,,,,,,,,,,,,,,
,,5f7737e3d3a6410bfdcb06f2,2024-02-22_24h26.33.421,kallum_motion_pilot,2023.2.2,Win32,59.88023952,5f7737e3d3a6410bfdcb06f2,65d6bb0e977760de756971f7,65d6bed2210973f7d2836d4c,0.1234,0.1236,0,145,145,81,1,fiveseven,,,,,,,,,,,,,,,,,,,,,,,,,,,,,,,,,,,,,,,,,,,,,,,,,,,,,,,,,,,,,,,,,,,,,,,,,,,,,,,,,,,,,,,,,,,,,,,,,,,,,,,,,,,,,,,,,,,,,,,,,,,,,,,,,,,,,,,,,
,,5f7737e3d3a6410bfdcb06f2,2024-02-22_24h26.33.421,kallum_motion_pilot,2023.2.2,Win32,59.88023952,5f7737e3d3a6410bfdcb06f2,65d6bb0e977760de756971f7,65d6bed2210973f7d2836d4c,0.1238,0.1241,0,146,146,13,1,threefour,,,,,,,,,,,,,,,,,,,,,,,,,,,,,,,,,,,,,,,,,,,,,,,,,,,,,,,,,,,,,,,,,,,,,,,,,,,,,,,,,,,,,,,,,,,,,,,,,,,,,,,,,,,,,,,,,,,,,,,,,,,,,,,,,,,,,,,,,
,,5f7737e3d3a6410bfdcb06f2,2024-02-22_24h26.33.421,kallum_motion_pilot,2023.2.2,Win32,59.88023952,5f7737e3d3a6410bfdcb06f2,65d6bb0e977760de756971f7,65d6bed2210973f7d2836d4c,0.1243,0.1246,0,147,147,141,1,seveneight,,,,,,,,,,,,,,,,,,,,,,,,,,,,,,,,,,,,,,,,,,,,,,,,,,,,,,,,,,,,,,,,,,,,,,,,,,,,,,,,,,,,,,,,,,,,,,,,,,,,,,,,,,,,,,,,,,,,,,,,,,,,,,,,,,,,,,,,,
,,5f7737e3d3a6410bfdcb06f2,2024-02-22_24h26.33.421,kallum_motion_pilot,2023.2.2,Win32,59.88023952,5f7737e3d3a6410bfdcb06f2,65d6bb0e977760de756971f7,65d6bed2210973f7d2836d4c,0.1249,0.1252,0,148,148,136,1,fivesix,,,,,,,,,,,,,,,,,,,,,,,,,,,,,,,,,,,,,,,,,,,,,,,,,,,,,,,,,,,,,,,,,,,,,,,,,,,,,,,,,,,,,,,,,,,,,,,,,,,,,,,,,,,,,,,,,,,,,,,,,,,,,,,,,,,,,,,,,
,,5f7737e3d3a6410bfdcb06f2,2024-02-22_24h26.33.421,kallum_motion_pilot,2023.2.2,Win32,59.88023952,5f7737e3d3a6410bfdcb06f2,65d6bb0e977760de756971f7,65d6bed2210973f7d2836d4c,0.1256,0.1258,0,149,149,140,1,sevenfive,,,,,,,,,,,,,,,,,,,,,,,,,,,,,,,,,,,,,,,,,,,,,,,,,,,,,,,,,,,,,,,,,,,,,,,,,,,,,,,,,,,,,,,,,,,,,,,,,,,,,,,,,,,,,,,,,,,,,,,,,,,,,,,,,,,,,,,,,
,,5f7737e3d3a6410bfdcb06f2,2024-02-22_24h26.33.421,kallum_motion_pilot,2023.2.2,Win32,59.88023952,5f7737e3d3a6410bfdcb06f2,65d6bb0e977760de756971f7,65d6bed2210973f7d2836d4c,0.1261,0.1263,0,150,150,102,1,eightsix,,,,,,,,,,,,,,,,,,,,,,,,,,,,,,,,,,,,,,,,,,,,,,,,,,,,,,,,,,,,,,,,,,,,,,,,,,,,,,,,,,,,,,,,,,,,,,,,,,,,,,,,,,,,,,,,,,,,,,,,,,,,,,,,,,,,,,,,,
,,5f7737e3d3a6410bfdcb06f2,2024-02-22_24h26.33.421,kallum_motion_pilot,2023.2.2,Win32,59.88023952,5f7737e3d3a6410bfdcb06f2,65d6bb0e977760de756971f7,65d6bed2210973f7d2836d4c,0.1265,0.1268,0,151,151,89,1,fiveseven,,,,,,,,,,,,,,,,,,,,,,,,,,,,,,,,,,,,,,,,,,,,,,,,,,,,,,,,,,,,,,,,,,,,,,,,,,,,,,,,,,,,,,,,,,,,,,,,,,,,,,,,,,,,,,,,,,,,,,,,,,,,,,,,,,,,,,,,,
,,5f7737e3d3a6410bfdcb06f2,2024-02-22_24h26.33.421,kallum_motion_pilot,2023.2.2,Win32,59.88023952,5f7737e3d3a6410bfdcb06f2,65d6bb0e977760de756971f7,65d6bed2210973f7d2836d4c,0.127,0.1272,0,152,152,16,1,onetwo,,,,,,,,,,,,,,,,,,,,,,,,,,,,,,,,,,,,,,,,,,,,,,,,,,,,,,,,,,,,,,,,,,,,,,,,,,,,,,,,,,,,,,,,,,,,,,,,,,,,,,,,,,,,,,,,,,,,,,,,,,,,,,,,,,,,,,,,,
,,5f7737e3d3a6410bfdcb06f2,2024-02-22_24h26.33.421,kallum_motion_pilot,2023.2.2,Win32,59.88023952,5f7737e3d3a6410bfdcb06f2,65d6bb0e977760de756971f7,65d6bed2210973f7d2836d4c,0.1274,0.1276,0,153,153,42,1,twoone,,,,,,,,,,,,,,,,,,,,,,,,,,,,,,,,,,,,,,,,,,,,,,,,,,,,,,,,,,,,,,,,,,,,,,,,,,,,,,,,,,,,,,,,,,,,,,,,,,,,,,,,,,,,,,,,,,,,,,,,,,,,,,,,,,,,,,,,,
,,5f7737e3d3a6410bfdcb06f2,2024-02-22_24h26.33.421,kallum_motion_pilot,2023.2.2,Win32,59.88023952,5f7737e3d3a6410bfdcb06f2,65d6bb0e977760de756971f7,65d6bed2210973f7d2836d4c,0.1279,0.1281,0,154,154,137,1,fiveseven,,,,,,,,,,,,,,,,,,,,,,,,,,,,,,,,,,,,,,,,,,,,,,,,,,,,,,,,,,,,,,,,,,,,,,,,,,,,,,,,,,,,,,,,,,,,,,,,,,,,,,,,,,,,,,,,,,,,,,,,,,,,,,,,,,,,,,,,,
,,5f7737e3d3a6410bfdcb06f2,2024-02-22_24h26.33.421,kallum_motion_pilot,2023.2.2,Win32,59.88023952,5f7737e3d3a6410bfdcb06f2,65d6bb0e977760de756971f7,65d6bed2210973f7d2836d4c,0.1283,0.1284,0,155,155,144,1,fivesix,,,,,,,,,,,,,,,,,,,,,,,,,,,,,,,,,,,,,,,,,,,,,,,,,,,,,,,,,,,,,,,,,,,,,,,,,,,,,,,,,,,,,,,,,,,,,,,,,,,,,,,,,,,,,,,,,,,,,,,,,,,,,,,,,,,,,,,,,
,,5f7737e3d3a6410bfdcb06f2,2024-02-22_24h26.33.421,kallum_motion_pilot,2023.2.2,Win32,59.88023952,5f7737e3d3a6410bfdcb06f2,65d6bb0e977760de756971f7,65d6bed2210973f7d2836d4c,0.1287,0.1289,0,156,156,149,1,seveneight,,,,,,,,,,,,,,,,,,,,,,,,,,,,,,,,,,,,,,,,,,,,,,,,,,,,,,,,,,,,,,,,,,,,,,,,,,,,,,,,,,,,,,,,,,,,,,,,,,,,,,,,,,,,,,,,,,,,,,,,,,,,,,,,,,,,,,,,,
,,5f7737e3d3a6410bfdcb06f2,2024-02-22_24h26.33.421,kallum_motion_pilot,2023.2.2,Win32,59.88023952,5f7737e3d3a6410bfdcb06f2,65d6bb0e977760de756971f7,65d6bed2210973f7d2836d4c,0.1292,0.1293,0,157,157,108,1,sevenfive,,,,,,,,,,,,,,,,,,,,,,,,,,,,,,,,,,,,,,,,,,,,,,,,,,,,,,,,,,,,,,,,,,,,,,,,,,,,,,,,,,,,,,,,,,,,,,,,,,,,,,,,,,,,,,,,,,,,,,,,,,,,,,,,,,,,,,,,,
,,5f7737e3d3a6410bfdcb06f2,2024-02-22_24h26.33.421,kallum_motion_pilot,2023.2.2,Win32,59.88023952,5f7737e3d3a6410bfdcb06f2,65d6bb0e977760de756971f7,65d6bed2210973f7d2836d4c,0.1296,0.1297,0,158,158,33,1,onethree,,,,,,,,,,,,,,,,,,,,,,,,,,,,,,,,,,,,,,,,,,,,,,,,,,,,,,,,,,,,,,,,,,,,,,,,,,,,,,,,,,,,,,,,,,,,,,,,,,,,,,,,,,,,,,,,,,,,,,,,,,,,,,,,,,,,,,,,,
,,5f7737e3d3a6410bfdcb06f2,2024-02-22_24h26.33.421,kallum_motion_pilot,2023.2.2,Win32,59.88023952,5f7737e3d3a6410bfdcb06f2,65d6bb0e977760de756971f7,65d6bed2210973f7d2836d4c,0.13,0.1303,0,159,159,58,1,twoone,,,,,,,,,,,,,,,,,,,,,,,,,,,,,,,,,,,,,,,,,,,,,,,,,,,,,,,,,,,,,,,,,,,,,,,,,,,,,,,,,,,,,,,,,,,,,,,,,,,,,,,,,,,,,,,,,,,,,,,,,,,,,,,,,,,,,,,,,
,,5f7737e3d3a6410bfdcb06f2,2024-02-22_24h26.33.421,kallum_motion_pilot,2023.2.2,Win32,59.88023952,5f7737e3d3a6410bfdcb06f2,65d6bb0e977760de756971f7,65d6bed2210973f7d2836d4c,0.1306,0.1308,0,160,160,150,1,eightsix,,,,,,,,,,,,,,,,,,,,,,,,,,,,,,,,,,,,,,,,,,,,,,,,,,,,,,,,,,,,,,,,,,,,,,,,,,,,,,,,,,,,,,,,,,,,,,,,,,,,,,,,,,,,,,,,,,,,,,,,,,,,,,,,,,,,,,,,,
,,5f7737e3d3a6410bfdcb06f2,2024-02-22_24h26.33.421,kallum_motion_pilot,2023.2.2,Win32,59.88023952,5f7737e3d3a6410bfdcb06f2,65d6bb0e977760de756971f7,65d6bed2210973f7d2836d4c,0.1311,0.1312,0,161,161,55,1,fourthree,,,,,,,,,,,,,,,,,,,,,,,,,,,,,,,,,,,,,,,,,,,,,,,,,,,,,,,,,,,,,,,,,,,,,,,,,,,,,,,,,,,,,,,,,,,,,,,,,,,,,,,,,,,,,,,,,,,,,,,,,,,,,,,,,,,,,,,,,
,,5f7737e3d3a6410bfdcb06f2,2024-02-22_24h26.33.421,kallum_motion_pilot,2023.2.2,Win32,59.88023952,5f7737e3d3a6410bfdcb06f2,65d6bb0e977760de756971f7,65d6bed2210973f7d2836d4c,0.1315,0.1317,1,0,162,78,1,fourtwo,,,,,,,,,,,,,,,,,,,,,,,,,,,,,,,,,,,,,,,,,,,,,,,,,,,,,,,,,,,,,,,,,,,,,,,,,,,,,,,,,,,,,,,,,,,,,,,,,,,,,,,,,,,,,,,,,,,,,,,,,,,,,,,,,,,,,,,,,
,,5f7737e3d3a6410bfdcb06f2,2024-02-22_24h26.33.421,kallum_motion_pilot,2023.2.2,Win32,59.88023952,5f7737e3d3a6410bfdcb06f2,65d6bb0e977760de756971f7,65d6bed2210973f7d2836d4c,0.1319,0.1321,1,1,163,142,1,eightsix,,,,,,,,,,,,,,,,,,,,,,,,,,,,,,,,,,,,,,,,,,,,,,,,,,,,,,,,,,,,,,,,,,,,,,,,,,,,,,,,,,,,,,,,,,,,,,,,,,,,,,,,,,,,,,,,,,,,,,,,,,,,,,,,,,,,,,,,,
,,5f7737e3d3a6410bfdcb06f2,2024-02-22_24h26.33.421,kallum_motion_pilot,2023.2.2,Win32,59.88023952,5f7737e3d3a6410bfdcb06f2,65d6bb0e977760de756971f7,65d6bed2210973f7d2836d4c,0.1324,0.1327,1,2,164,49,1,onethree,,,,,,,,,,,,,,,,,,,,,,,,,,,,,,,,,,,,,,,,,,,,,,,,,,,,,,,,,,,,,,,,,,,,,,,,,,,,,,,,,,,,,,,,,,,,,,,,,,,,,,,,,,,,,,,,,,,,,,,,,,,,,,,,,,,,,,,,,
,,5f7737e3d3a6410bfdcb06f2,2024-02-22_24h26.33.421,kallum_motion_pilot,2023.2.2,Win32,59.88023952,5f7737e3d3a6410bfdcb06f2,65d6bb0e977760de756971f7,65d6bed2210973f7d2836d4c,0.1329,0.1331,1,3,165,41,1,onethree,,,,,,,,,,,,,,,,,,,,,,,,,,,,,,,,,,,,,,,,,,,,,,,,,,,,,,,,,,,,,,,,,,,,,,,,,,,,,,,,,,,,,,,,,,,,,,,,,,,,,,,,,,,,,,,,,,,,,,,,,,,,,,,,,,,,,,,,,
,,5f7737e3d3a6410bfdcb06f2,2024-02-22_24h26.33.421,kallum_motion_pilot,2023.2.2,Win32,59.88023952,5f7737e3d3a6410bfdcb06f2,65d6bb0e977760de756971f7,65d6bed2210973f7d2836d4c,0.1334,0.1335,1,4,166,3,1,twofour,,,,,,,,,,,,,,,,,,,,,,,,,,,,,,,,,,,,,,,,,,,,,,,,,,,,,,,,,,,,,,,,,,,,,,,,,,,,,,,,,,,,,,,,,,,,,,,,,,,,,,,,,,,,,,,,,,,,,,,,,,,,,,,,,,,,,,,,,
,,5f7737e3d3a6410bfdcb06f2,2024-02-22_24h26.33.421,kallum_motion_pilot,2023.2.2,Win32,59.88023952,5f7737e3d3a6410bfdcb06f2,65d6bb0e977760de756971f7,65d6bed2210973f7d2836d4c,0.1338,0.1341,1,5,167,109,1,seveneight,,,,,,,,,,,,,,,,,,,,,,,,,,,,,,,,,,,,,,,,,,,,,,,,,,,,,,,,,,,,,,,,,,,,,,,,,,,,,,,,,,,,,,,,,,,,,,,,,,,,,,,,,,,,,,,,,,,,,,,,,,,,,,,,,,,,,,,,,
,,5f7737e3d3a6410bfdcb06f2,2024-02-22_24h26.33.421,kallum_motion_pilot,2023.2.2,Win32,59.88023952,5f7737e3d3a6410bfdcb06f2,65d6bb0e977760de756971f7,65d6bed2210973f7d2836d4c,0.1344,0.1347,1,6,168,23,1,fourthree,,,,,,,,,,,,,,,,,,,,,,,,,,,,,,,,,,,,,,,,,,,,,,,,,,,,,,,,,,,,,,,,,,,,,,,,,,,,,,,,,,,,,,,,,,,,,,,,,,,,,,,,,,,,,,,,,,,,,,,,,,,,,,,,,,,,,,,,,
,,5f7737e3d3a6410bfdcb06f2,2024-02-22_24h26.33.421,kallum_motion_pilot,2023.2.2,Win32,59.88023952,5f7737e3d3a6410bfdcb06f2,65d6bb0e977760de756971f7,65d6bed2210973f7d2836d4c,0.1349,0.1352,1,7,169,47,1,fourthree,,,,,,,,,,,,,,,,,,,,,,,,,,,,,,,,,,,,,,,,,,,,,,,,,,,,,,,,,,,,,,,,,,,,,,,,,,,,,,,,,,,,,,,,,,,,,,,,,,,,,,,,,,,,,,,,,,,,,,,,,,,,,,,,,,,,,,,,,
,,5f7737e3d3a6410bfdcb06f2,2024-02-22_24h26.33.421,kallum_motion_pilot,2023.2.2,Win32,59.88023952,5f7737e3d3a6410bfdcb06f2,65d6bb0e977760de756971f7,65d6bed2210973f7d2836d4c,0.1357,0.1358,1,8,170,160,1,fivesix,,,,,,,,,,,,,,,,,,,,,,,,,,,,,,,,,,,,,,,,,,,,,,,,,,,,,,,,,,,,,,,,,,,,,,,,,,,,,,,,,,,,,,,,,,,,,,,,,,,,,,,,,,,,,,,,,,,,,,,,,,,,,,,,,,,,,,,,,
,,5f7737e3d3a6410bfdcb06f2,2024-02-22_24h26.33.421,kallum_motion_pilot,2023.2.2,Win32,59.88023952,5f7737e3d3a6410bfdcb06f2,65d6bb0e977760de756971f7,65d6bed2210973f7d2836d4c,0.1361,0.1363,1,9,171,161,1,fiveseven,,,,,,,,,,,,,,,,,,,,,,,,,,,,,,,,,,,,,,,,,,,,,,,,,,,,,,,,,,,,,,,,,,,,,,,,,,,,,,,,,,,,,,,,,,,,,,,,,,,,,,,,,,,,,,,,,,,,,,,,,,,,,,,,,,,,,,,,,
,,5f7737e3d3a6410bfdcb06f2,2024-02-22_24h26.33.421,kallum_motion_pilot,2023.2.2,Win32,59.88023952,5f7737e3d3a6410bfdcb06f2,65d6bb0e977760de756971f7,65d6bed2210973f7d2836d4c,0.1366,0.1368,1,10,172,87,1,eightseven,,,,,,,,,,,,,,,,,,,,,,,,,,,,,,,,,,,,,,,,,,,,,,,,,,,,,,,,,,,,,,,,,,,,,,,,,,,,,,,,,,,,,,,,,,,,,,,,,,,,,,,,,,,,,,,,,,,,,,,,,,,,,,,,,,,,,,,,,
,,5f7737e3d3a6410bfdcb06f2,2024-02-22_24h26.33.421,kallum_motion_pilot,2023.2.2,Win32,59.88023952,5f7737e3d3a6410bfdcb06f2,65d6bb0e977760de756971f7,65d6bed2210973f7d2836d4c,0.1371,0.1373,1,11,173,128,1,fivesix,,,,,,,,,,,,,,,,,,,,,,,,,,,,,,,,,,,,,,,,,,,,,,,,,,,,,,,,,,,,,,,,,,,,,,,,,,,,,,,,,,,,,,,,,,,,,,,,,,,,,,,,,,,,,,,,,,,,,,,,,,,,,,,,,,,,,,,,,
,,5f7737e3d3a6410bfdcb06f2,2024-02-22_24h26.33.421,kallum_motion_pilot,2023.2.2,Win32,59.88023952,5f7737e3d3a6410bfdcb06f2,65d6bb0e977760de756971f7,65d6bed2210973f7d2836d4c,0.1374,0.1376,1,12,174,26,1,twoone,,,,,,,,,,,,,,,,,,,,,,,,,,,,,,,,,,,,,,,,,,,,,,,,,,,,,,,,,,,,,,,,,,,,,,,,,,,,,,,,,,,,,,,,,,,,,,,,,,,,,,,,,,,,,,,,,,,,,,,,,,,,,,,,,,,,,,,,,
,,5f7737e3d3a6410bfdcb06f2,2024-02-22_24h26.33.421,kallum_motion_pilot,2023.2.2,Win32,59.88023952,5f7737e3d3a6410bfdcb06f2,65d6bb0e977760de756971f7,65d6bed2210973f7d2836d4c,0.1379,0.1381,1,13,175,32,1,onetwo,,,,,,,,,,,,,,,,,,,,,,,,,,,,,,,,,,,,,,,,,,,,,,,,,,,,,,,,,,,,,,,,,,,,,,,,,,,,,,,,,,,,,,,,,,,,,,,,,,,,,,,,,,,,,,,,,,,,,,,,,,,,,,,,,,,,,,,,,
,,5f7737e3d3a6410bfdcb06f2,2024-02-22_24h26.33.421,kallum_motion_pilot,2023.2.2,Win32,59.88023952,5f7737e3d3a6410bfdcb06f2,65d6bb0e977760de756971f7,65d6bed2210973f7d2836d4c,0.1384,0.1386,1,14,176,113,1,fiveseven,,,,,,,,,,,,,,,,,,,,,,,,,,,,,,,,,,,,,,,,,,,,,,,,,,,,,,,,,,,,,,,,,,,,,,,,,,,,,,,,,,,,,,,,,,,,,,,,,,,,,,,,,,,,,,,,,,,,,,,,,,,,,,,,,,,,,,,,,
,,5f7737e3d3a6410bfdcb06f2,2024-02-22_24h26.33.421,kallum_motion_pilot,2023.2.2,Win32,59.88023952,5f7737e3d3a6410bfdcb06f2,65d6bb0e977760de756971f7,65d6bed2210973f7d2836d4c,0.139,0.1392,1,15,177,93,1,seveneight,,,,,,,,,,,,,,,,,,,,,,,,,,,,,,,,,,,,,,,,,,,,,,,,,,,,,,,,,,,,,,,,,,,,,,,,,,,,,,,,,,,,,,,,,,,,,,,,,,,,,,,,,,,,,,,,,,,,,,,,,,,,,,,,,,,,,,,,,
,,5f7737e3d3a6410bfdcb06f2,2024-02-22_24h26.33.421,kallum_motion_pilot,2023.2.2,Win32,59.88023952,5f7737e3d3a6410bfdcb06f2,65d6bb0e977760de756971f7,65d6bed2210973f7d2836d4c,0.1395,0.1397,1,16,178,8,1,onetwo,,,,,,,,,,,,,,,,,,,,,,,,,,,,,,,,,,,,,,,,,,,,,,,,,,,,,,,,,,,,,,,,,,,,,,,,,,,,,,,,,,,,,,,,,,,,,,,,,,,,,,,,,,,,,,,,,,,,,,,,,,,,,,,,,,,,,,,,,
,,5f7737e3d3a6410bfdcb06f2,2024-02-22_24h26.33.421,kallum_motion_pilot,2023.2.2,Win32,59.88023952,5f7737e3d3a6410bfdcb06f2,65d6bb0e977760de756971f7,65d6bed2210973f7d2836d4c,0.1401,0.1405,1,17,179,116,1,sevenfive,,,,,,,,,,,,,,,,,,,,,,,,,,,,,,,,,,,,,,,,,,,,,,,,,,,,,,,,,,,,,,,,,,,,,,,,,,,,,,,,,,,,,,,,,,,,,,,,,,,,,,,,,,,,,,,,,,,,,,,,,,,,,,,,,,,,,,,,,
,,5f7737e3d3a6410bfdcb06f2,2024-02-22_24h26.33.421,kallum_motion_pilot,2023.2.2,Win32,59.88023952,5f7737e3d3a6410bfdcb06f2,65d6bb0e977760de756971f7,65d6bed2210973f7d2836d4c,0.1407,0.141,1,18,180,91,1,sixeight,,,,,,,,,,,,,,,,,,,,,,,,,,,,,,,,,,,,,,,,,,,,,,,,,,,,,,,,,,,,,,,,,,,,,,,,,,,,,,,,,,,,,,,,,,,,,,,,,,,,,,,,,,,,,,,,,,,,,,,,,,,,,,,,,,,,,,,,,
,,5f7737e3d3a6410bfdcb06f2,2024-02-22_24h26.33.421,kallum_motion_pilot,2023.2.2,Win32,59.88023952,5f7737e3d3a6410bfdcb06f2,65d6bb0e977760de756971f7,65d6bed2210973f7d2836d4c,0.1413,0.1416,1,19,181,80,1,fivesix,,,,,,,,,,,,,,,,,,,,,,,,,,,,,,,,,,,,,,,,,,,,,,,,,,,,,,,,,,,,,,,,,,,,,,,,,,,,,,,,,,,,,,,,,,,,,,,,,,,,,,,,,,,,,,,,,,,,,,,,,,,,,,,,,,,,,,,,,
,,5f7737e3d3a6410bfdcb06f2,2024-02-22_24h26.33.421,kallum_motion_pilot,2023.2.2,Win32,59.88023952,5f7737e3d3a6410bfdcb06f2,65d6bb0e977760de756971f7,65d6bed2210973f7d2836d4c,0.1419,0.1421,1,20,182,134,1,eightsix,,,,,,,,,,,,,,,,,,,,,,,,,,,,,,,,,,,,,,,,,,,,,,,,,,,,,,,,,,,,,,,,,,,,,,,,,,,,,,,,,,,,,,,,,,,,,,,,,,,,,,,,,,,,,,,,,,,,,,,,,,,,,,,,,,,,,,,,,
,,5f7737e3d3a6410bfdcb06f2,2024-02-22_24h26.33.421,kallum_motion_pilot,2023.2.2,Win32,59.88023952,5f7737e3d3a6410bfdcb06f2,65d6bb0e977760de756971f7,65d6bed2210973f7d2836d4c,0.1423,0.1425,1,21,183,50,1,twoone,,,,,,,,,,,,,,,,,,,,,,,,,,,,,,,,,,,,,,,,,,,,,,,,,,,,,,,,,,,,,,,,,,,,,,,,,,,,,,,,,,,,,,,,,,,,,,,,,,,,,,,,,,,,,,,,,,,,,,,,,,,,,,,,,,,,,,,,,
,,5f7737e3d3a6410bfdcb06f2,2024-02-22_24h26.33.421,kallum_motion_pilot,2023.2.2,Win32,59.88023952,5f7737e3d3a6410bfdcb06f2,65d6bb0e977760de756971f7,65d6bed2210973f7d2836d4c,0.1428,0.1431,1,22,184,44,1,threeone,,,,,,,,,,,,,,,,,,,,,,,,,,,,,,,,,,,,,,,,,,,,,,,,,,,,,,,,,,,,,,,,,,,,,,,,,,,,,,,,,,,,,,,,,,,,,,,,,,,,,,,,,,,,,,,,,,,,,,,,,,,,,,,,,,,,,,,,,
,,5f7737e3d3a6410bfdcb06f2,2024-02-22_24h26.33.421,kallum_motion_pilot,2023.2.2,Win32,59.88023952,5f7737e3d3a6410bfdcb06f2,65d6bb0e977760de756971f7,65d6bed2210973f7d2836d4c,0.1434,0.1436,1,23,185,71,1,fourthree,,,,,,,,,,,,,,,,,,,,,,,,,,,,,,,,,,,,,,,,,,,,,,,,,,,,,,,,,,,,,,,,,,,,,,,,,,,,,,,,,,,,,,,,,,,,,,,,,,,,,,,,,,,,,,,,,,,,,,,,,,,,,,,,,,,,,,,,,
,,5f7737e3d3a6410bfdcb06f2,2024-02-22_24h26.33.421,kallum_motion_pilot,2023.2.2,Win32,59.88023952,5f7737e3d3a6410bfdcb06f2,65d6bb0e977760de756971f7,65d6bed2210973f7d2836d4c,0.1439,0.1441,1,24,186,20,1,threeone,,,,,,,,,,,,,,,,,,,,,,,,,,,,,,,,,,,,,,,,,,,,,,,,,,,,,,,,,,,,,,,,,,,,,,,,,,,,,,,,,,,,,,,,,,,,,,,,,,,,,,,,,,,,,,,,,,,,,,,,,,,,,,,,,,,,,,,,,
,,5f7737e3d3a6410bfdcb06f2,2024-02-22_24h26.33.421,kallum_motion_pilot,2023.2.2,Win32,59.88023952,5f7737e3d3a6410bfdcb06f2,65d6bb0e977760de756971f7,65d6bed2210973f7d2836d4c,0.1443,0.1444,1,25,187,4,1,threeone,,,,,,,,,,,,,,,,,,,,,,,,,,,,,,,,,,,,,,,,,,,,,,,,,,,,,,,,,,,,,,,,,,,,,,,,,,,,,,,,,,,,,,,,,,,,,,,,,,,,,,,,,,,,,,,,,,,,,,,,,,,,,,,,,,,,,,,,,
,,5f7737e3d3a6410bfdcb06f2,2024-02-22_24h26.33.421,kallum_motion_pilot,2023.2.2,Win32,59.88023952,5f7737e3d3a6410bfdcb06f2,65d6bb0e977760de756971f7,65d6bed2210973f7d2836d4c,0.1446,0.1448,1,26,188,100,1,sevenfive,,,,,,,,,,,,,,,,,,,,,,,,,,,,,,,,,,,,,,,,,,,,,,,,,,,,,,,,,,,,,,,,,,,,,,,,,,,,,,,,,,,,,,,,,,,,,,,,,,,,,,,,,,,,,,,,,,,,,,,,,,,,,,,,,,,,,,,,,
,,5f7737e3d3a6410bfdcb06f2,2024-02-22_24h26.33.421,kallum_motion_pilot,2023.2.2,Win32,59.88023952,5f7737e3d3a6410bfdcb06f2,65d6bb0e977760de756971f7,65d6bed2210973f7d2836d4c,0.1451,0.1453,1,27,189,159,1,eightseven,,,,,,,,,,,,,,,,,,,,,,,,,,,,,,,,,,,,,,,,,,,,,,,,,,,,,,,,,,,,,,,,,,,,,,,,,,,,,,,,,,,,,,,,,,,,,,,,,,,,,,,,,,,,,,,,,,,,,,,,,,,,,,,,,,,,,,,,,
,,5f7737e3d3a6410bfdcb06f2,2024-02-22_24h26.33.421,kallum_motion_pilot,2023.2.2,Win32,59.88023952,5f7737e3d3a6410bfdcb06f2,65d6bb0e977760de756971f7,65d6bed2210973f7d2836d4c,0.1457,0.146,1,28,190,39,1,fourthree,,,,,,,,,,,,,,,,,,,,,,,,,,,,,,,,,,,,,,,,,,,,,,,,,,,,,,,,,,,,,,,,,,,,,,,,,,,,,,,,,,,,,,,,,,,,,,,,,,,,,,,,,,,,,,,,,,,,,,,,,,,,,,,,,,,,,,,,,
,,5f7737e3d3a6410bfdcb06f2,2024-02-22_24h26.33.421,kallum_motion_pilot,2023.2.2,Win32,59.88023952,5f7737e3d3a6410bfdcb06f2,65d6bb0e977760de756971f7,65d6bed2210973f7d2836d4c,0.1462,0.1464,1,29,191,129,1,fiveseven,,,,,,,,,,,,,,,,,,,,,,,,,,,,,,,,,,,,,,,,,,,,,,,,,,,,,,,,,,,,,,,,,,,,,,,,,,,,,,,,,,,,,,,,,,,,,,,,,,,,,,,,,,,,,,,,,,,,,,,,,,,,,,,,,,,,,,,,,
,,5f7737e3d3a6410bfdcb06f2,2024-02-22_24h26.33.421,kallum_motion_pilot,2023.2.2,Win32,59.88023952,5f7737e3d3a6410bfdcb06f2,65d6bb0e977760de756971f7,65d6bed2210973f7d2836d4c,0.1468,0.1469,1,30,192,16,1,onetwo,,,,,,,,,,,,,,,,,,,,,,,,,,,,,,,,,,,,,,,,,,,,,,,,,,,,,,,,,,,,,,,,,,,,,,,,,,,,,,,,,,,,,,,,,,,,,,,,,,,,,,,,,,,,,,,,,,,,,,,,,,,,,,,,,,,,,,,,,
,,5f7737e3d3a6410bfdcb06f2,2024-02-22_24h26.33.421,kallum_motion_pilot,2023.2.2,Win32,59.88023952,5f7737e3d3a6410bfdcb06f2,65d6bb0e977760de756971f7,65d6bed2210973f7d2836d4c,0.1472,0.1474,1,31,193,140,1,sevenfive,,,,,,,,,,,,,,,,,,,,,,,,,,,,,,,,,,,,,,,,,,,,,,,,,,,,,,,,,,,,,,,,,,,,,,,,,,,,,,,,,,,,,,,,,,,,,,,,,,,,,,,,,,,,,,,,,,,,,,,,,,,,,,,,,,,,,,,,,
,,5f7737e3d3a6410bfdcb06f2,2024-02-22_24h26.33.421,kallum_motion_pilot,2023.2.2,Win32,59.88023952,5f7737e3d3a6410bfdcb06f2,65d6bb0e977760de756971f7,65d6bed2210973f7d2836d4c,0.1479,0.1482,1,32,194,132,1,sevenfive,,,,,,,,,,,,,,,,,,,,,,,,,,,,,,,,,,,,,,,,,,,,,,,,,,,,,,,,,,,,,,,,,,,,,,,,,,,,,,,,,,,,,,,,,,,,,,,,,,,,,,,,,,,,,,,,,,,,,,,,,,,,,,,,,,,,,,,,,
,,5f7737e3d3a6410bfdcb06f2,2024-02-22_24h26.33.421,kallum_motion_pilot,2023.2.2,Win32,59.88023952,5f7737e3d3a6410bfdcb06f2,65d6bb0e977760de756971f7,65d6bed2210973f7d2836d4c,0.1486,0.1487,1,33,195,60,1,threeone,,,,,,,,,,,,,,,,,,,,,,,,,,,,,,,,,,,,,,,,,,,,,,,,,,,,,,,,,,,,,,,,,,,,,,,,,,,,,,,,,,,,,,,,,,,,,,,,,,,,,,,,,,,,,,,,,,,,,,,,,,,,,,,,,,,,,,,,,
,,5f7737e3d3a6410bfdcb06f2,2024-02-22_24h26.33.421,kallum_motion_pilot,2023.2.2,Win32,59.88023952,5f7737e3d3a6410bfdcb06f2,65d6bb0e977760de756971f7,65d6bed2210973f7d2836d4c,0.1491,0.1493,1,34,196,22,1,fourtwo,,,,,,,,,,,,,,,,,,,,,,,,,,,,,,,,,,,,,,,,,,,,,,,,,,,,,,,,,,,,,,,,,,,,,,,,,,,,,,,,,,,,,,,,,,,,,,,,,,,,,,,,,,,,,,,,,,,,,,,,,,,,,,,,,,,,,,,,,
,,5f7737e3d3a6410bfdcb06f2,2024-02-22_24h26.33.421,kallum_motion_pilot,2023.2.2,Win32,59.88023952,5f7737e3d3a6410bfdcb06f2,65d6bb0e977760de756971f7,65d6bed2210973f7d2836d4c,0.1497,0.1499,1,35,197,11,1,twofour,,,,,,,,,,,,,,,,,,,,,,,,,,,,,,,,,,,,,,,,,,,,,,,,,,,,,,,,,,,,,,,,,,,,,,,,,,,,,,,,,,,,,,,,,,,,,,,,,,,,,,,,,,,,,,,,,,,,,,,,,,,,,,,,,,,,,,,,,
,,5f7737e3d3a6410bfdcb06f2,2024-02-22_24h26.33.421,kallum_motion_pilot,2023.2.2,Win32,59.88023952,5f7737e3d3a6410bfdcb06f2,65d6bb0e977760de756971f7,65d6bed2210973f7d2836d4c,0.1501,0.1503,1,36,198,119,1,eightseven,,,,,,,,,,,,,,,,,,,,,,,,,,,,,,,,,,,,,,,,,,,,,,,,,,,,,,,,,,,,,,,,,,,,,,,,,,,,,,,,,,,,,,,,,,,,,,,,,,,,,,,,,,,,,,,,,,,,,,,,,,,,,,,,,,,,,,,,,
,,5f7737e3d3a6410bfdcb06f2,2024-02-22_24h26.33.421,kallum_motion_pilot,2023.2.2,Win32,59.88023952,5f7737e3d3a6410bfdcb06f2,65d6bb0e977760de756971f7,65d6bed2210973f7d2836d4c,0.1506,0.1508,1,37,199,94,1,eightsix,,,,,,,,,,,,,,,,,,,,,,,,,,,,,,,,,,,,,,,,,,,,,,,,,,,,,,,,,,,,,,,,,,,,,,,,,,,,,,,,,,,,,,,,,,,,,,,,,,,,,,,,,,,,,,,,,,,,,,,,,,,,,,,,,,,,,,,,,
,,5f7737e3d3a6410bfdcb06f2,2024-02-22_24h26.33.421,kallum_motion_pilot,2023.2.2,Win32,59.88023952,5f7737e3d3a6410bfdcb06f2,65d6bb0e977760de756971f7,65d6bed2210973f7d2836d4c,0.1511,0.1513,1,38,200,154,1,sixfive,,,,,,,,,,,,,,,,,,,,,,,,,,,,,,,,,,,,,,,,,,,,,,,,,,,,,,,,,,,,,,,,,,,,,,,,,,,,,,,,,,,,,,,,,,,,,,,,,,,,,,,,,,,,,,,,,,,,,,,,,,,,,,,,,,,,,,,,,
,,5f7737e3d3a6410bfdcb06f2,2024-02-22_24h26.33.421,kallum_motion_pilot,2023.2.2,Win32,59.88023952,5f7737e3d3a6410bfdcb06f2,65d6bb0e977760de756971f7,65d6bed2210973f7d2836d4c,0.1516,0.1518,1,39,201,135,1,eightseven,,,,,,,,,,,,,,,,,,,,,,,,,,,,,,,,,,,,,,,,,,,,,,,,,,,,,,,,,,,,,,,,,,,,,,,,,,,,,,,,,,,,,,,,,,,,,,,,,,,,,,,,,,,,,,,,,,,,,,,,,,,,,,,,,,,,,,,,,
,,5f7737e3d3a6410bfdcb06f2,2024-02-22_24h26.33.421,kallum_motion_pilot,2023.2.2,Win32,59.88023952,5f7737e3d3a6410bfdcb06f2,65d6bb0e977760de756971f7,65d6bed2210973f7d2836d4c,0.1521,0.1524,1,40,202,86,1,eightsix,,,,,,,,,,,,,,,,,,,,,,,,,,,,,,,,,,,,,,,,,,,,,,,,,,,,,,,,,,,,,,,,,,,,,,,,,,,,,,,,,,,,,,,,,,,,,,,,,,,,,,,,,,,,,,,,,,,,,,,,,,,,,,,,,,,,,,,,,
,,5f7737e3d3a6410bfdcb06f2,2024-02-22_24h26.33.421,kallum_motion_pilot,2023.2.2,Win32,59.88023952,5f7737e3d3a6410bfdcb06f2,65d6bb0e977760de756971f7,65d6bed2210973f7d2836d4c,0.1526,0.1528,1,41,203,115,1,sixeight,,,,,,,,,,,,,,,,,,,,,,,,,,,,,,,,,,,,,,,,,,,,,,,,,,,,,,,,,,,,,,,,,,,,,,,,,,,,,,,,,,,,,,,,,,,,,,,,,,,,,,,,,,,,,,,,,,,,,,,,,,,,,,,,,,,,,,,,,
,,5f7737e3d3a6410bfdcb06f2,2024-02-22_24h26.33.421,kallum_motion_pilot,2023.2.2,Win32,59.88023952,5f7737e3d3a6410bfdcb06f2,65d6bb0e977760de756971f7,65d6bed2210973f7d2836d4c,0.1531,0.1533,1,42,204,14,1,fourtwo,,,,,,,,,,,,,,,,,,,,,,,,,,,,,,,,,,,,,,,,,,,,,,,,,,,,,,,,,,,,,,,,,,,,,,,,,,,,,,,,,,,,,,,,,,,,,,,,,,,,,,,,,,,,,,,,,,,,,,,,,,,,,,,,,,,,,,,,,
,,5f7737e3d3a6410bfdcb06f2,2024-02-22_24h26.33.421,kallum_motion_pilot,2023.2.2,Win32,59.88023952,5f7737e3d3a6410bfdcb06f2,65d6bb0e977760de756971f7,65d6bed2210973f7d2836d4c,0.1535,0.1538,1,43,205,157,1,seveneight,,,,,,,,,,,,,,,,,,,,,,,,,,,,,,,,,,,,,,,,,,,,,,,,,,,,,,,,,,,,,,,,,,,,,,,,,,,,,,,,,,,,,,,,,,,,,,,,,,,,,,,,,,,,,,,,,,,,,,,,,,,,,,,,,,,,,,,,,
,,5f7737e3d3a6410bfdcb06f2,2024-02-22_24h26.33.421,kallum_motion_pilot,2023.2.2,Win32,59.88023952,5f7737e3d3a6410bfdcb06f2,65d6bb0e977760de756971f7,65d6bed2210973f7d2836d4c,0.1543,0.1545,1,44,206,36,1,threeone,,,,,,,,,,,,,,,,,,,,,,,,,,,,,,,,,,,,,,,,,,,,,,,,,,,,,,,,,,,,,,,,,,,,,,,,,,,,,,,,,,,,,,,,,,,,,,,,,,,,,,,,,,,,,,,,,,,,,,,,,,,,,,,,,,,,,,,,,
,,5f7737e3d3a6410bfdcb06f2,2024-02-22_24h26.33.421,kallum_motion_pilot,2023.2.2,Win32,59.88023952,5f7737e3d3a6410bfdcb06f2,65d6bb0e977760de756971f7,65d6bed2210973f7d2836d4c,0.1548,0.1552,1,45,207,74,1,twoone,,,,,,,,,,,,,,,,,,,,,,,,,,,,,,,,,,,,,,,,,,,,,,,,,,,,,,,,,,,,,,,,,,,,,,,,,,,,,,,,,,,,,,,,,,,,,,,,,,,,,,,,,,,,,,,,,,,,,,,,,,,,,,,,,,,,,,,,,
,,5f7737e3d3a6410bfdcb06f2,2024-02-22_24h26.33.421,kallum_motion_pilot,2023.2.2,Win32,59.88023952,5f7737e3d3a6410bfdcb06f2,65d6bb0e977760de756971f7,65d6bed2210973f7d2836d4c,0.1556,0.1559,1,46,208,72,1,onetwo,,,,,,,,,,,,,,,,,,,,,,,,,,,,,,,,,,,,,,,,,,,,,,,,,,,,,,,,,,,,,,,,,,,,,,,,,,,,,,,,,,,,,,,,,,,,,,,,,,,,,,,,,,,,,,,,,,,,,,,,,,,,,,,,,,,,,,,,,
,,5f7737e3d3a6410bfdcb06f2,2024-02-22_24h26.33.421,kallum_motion_pilot,2023.2.2,Win32,59.88023952,5f7737e3d3a6410bfdcb06f2,65d6bb0e977760de756971f7,65d6bed2210973f7d2836d4c,0.1562,0.1565,1,47,209,77,1,threefour,,,,,,,,,,,,,,,,,,,,,,,,,,,,,,,,,,,,,,,,,,,,,,,,,,,,,,,,,,,,,,,,,,,,,,,,,,,,,,,,,,,,,,,,,,,,,,,,,,,,,,,,,,,,,,,,,,,,,,,,,,,,,,,,,,,,,,,,,
,,5f7737e3d3a6410bfdcb06f2,2024-02-22_24h26.33.421,kallum_motion_pilot,2023.2.2,Win32,59.88023952,5f7737e3d3a6410bfdcb06f2,65d6bb0e977760de756971f7,65d6bed2210973f7d2836d4c,0.1567,0.157,1,48,210,24,1,onetwo,,,,,,,,,,,,,,,,,,,,,,,,,,,,,,,,,,,,,,,,,,,,,,,,,,,,,,,,,,,,,,,,,,,,,,,,,,,,,,,,,,,,,,,,,,,,,,,,,,,,,,,,,,,,,,,,,,,,,,,,,,,,,,,,,,,,,,,,,
,,5f7737e3d3a6410bfdcb06f2,2024-02-22_24h26.33.421,kallum_motion_pilot,2023.2.2,Win32,59.88023952,5f7737e3d3a6410bfdcb06f2,65d6bb0e977760de756971f7,65d6bed2210973f7d2836d4c,0.1572,0.1575,1,49,211,35,1,twofour,,,,,,,,,,,,,,,,,,,,,,,,,,,,,,,,,,,,,,,,,,,,,,,,,,,,,,,,,,,,,,,,,,,,,,,,,,,,,,,,,,,,,,,,,,,,,,,,,,,,,,,,,,,,,,,,,,,,,,,,,,,,,,,,,,,,,,,,,
,,5f7737e3d3a6410bfdcb06f2,2024-02-22_24h26.33.421,kallum_motion_pilot,2023.2.2,Win32,59.88023952,5f7737e3d3a6410bfdcb06f2,65d6bb0e977760de756971f7,65d6bed2210973f7d2836d4c,0.1577,0.1579,1,50,212,105,1,fiveseven,,,,,,,,,,,,,,,,,,,,,,,,,,,,,,,,,,,,,,,,,,,,,,,,,,,,,,,,,,,,,,,,,,,,,,,,,,,,,,,,,,,,,,,,,,,,,,,,,,,,,,,,,,,,,,,,,,,,,,,,,,,,,,,,,,,,,,,,,
,,5f7737e3d3a6410bfdcb06f2,2024-02-22_24h26.33.421,kallum_motion_pilot,2023.2.2,Win32,59.88023952,5f7737e3d3a6410bfdcb06f2,65d6bb0e977760de756971f7,65d6bed2210973f7d2836d4c,0.1581,0.1583,1,51,213,118,1,eightsix,,,,,,,,,,,,,,,,,,,,,,,,,,,,,,,,,,,,,,,,,,,,,,,,,,,,,,,,,,,,,,,,,,,,,,,,,,,,,,,,,,,,,,,,,,,,,,,,,,,,,,,,,,,,,,,,,,,,,,,,,,,,,,,,,,,,,,,,,
,,5f7737e3d3a6410bfdcb06f2,2024-02-22_24h26.33.421,kallum_motion_pilot,2023.2.2,Win32,59.88023952,5f7737e3d3a6410bfdcb06f2,65d6bb0e977760de756971f7,65d6bed2210973f7d2836d4c,0.1587,0.1589,1,52,214,29,1,threefour,,,,,,,,,,,,,,,,,,,,,,,,,,,,,,,,,,,,,,,,,,,,,,,,,,,,,,,,,,,,,,,,,,,,,,,,,,,,,,,,,,,,,,,,,,,,,,,,,,,,,,,,,,,,,,,,,,,,,,,,,,,,,,,,,,,,,,,,,
,,5f7737e3d3a6410bfdcb06f2,2024-02-22_24h26.33.421,kallum_motion_pilot,2023.2.2,Win32,59.88023952,5f7737e3d3a6410bfdcb06f2,65d6bb0e977760de756971f7,65d6bed2210973f7d2836d4c,0.1591,0.1592,1,53,215,81,1,fiveseven,,,,,,,,,,,,,,,,,,,,,,,,,,,,,,,,,,,,,,,,,,,,,,,,,,,,,,,,,,,,,,,,,,,,,,,,,,,,,,,,,,,,,,,,,,,,,,,,,,,,,,,,,,,,,,,,,,,,,,,,,,,,,,,,,,,,,,,,,
,,5f7737e3d3a6410bfdcb06f2,2024-02-22_24h26.33.421,kallum_motion_pilot,2023.2.2,Win32,59.88023952,5f7737e3d3a6410bfdcb06f2,65d6bb0e977760de756971f7,65d6bed2210973f7d2836d4c,0.1595,0.1596,1,54,216,73,1,onethree,,,,,,,,,,,,,,,,,,,,,,,,,,,,,,,,,,,,,,,,,,,,,,,,,,,,,,,,,,,,,,,,,,,,,,,,,,,,,,,,,,,,,,,,,,,,,,,,,,,,,,,,,,,,,,,,,,,,,,,,,,,,,,,,,,,,,,,,,
,,5f7737e3d3a6410bfdcb06f2,2024-02-22_24h26.33.421,kallum_motion_pilot,2023.2.2,Win32,59.88023952,5f7737e3d3a6410bfdcb06f2,65d6bb0e977760de756971f7,65d6bed2210973f7d2836d4c,0.1598,0.16,1,55,217,27,1,twofour,,,,,,,,,,,,,,,,,,,,,,,,,,,,,,,,,,,,,,,,,,,,,,,,,,,,,,,,,,,,,,,,,,,,,,,,,,,,,,,,,,,,,,,,,,,,,,,,,,,,,,,,,,,,,,,,,,,,,,,,,,,,,,,,,,,,,,,,,
,,5f7737e3d3a6410bfdcb06f2,2024-02-22_24h26.33.421,kallum_motion_pilot,2023.2.2,Win32,59.88023952,5f7737e3d3a6410bfdcb06f2,65d6bb0e977760de756971f7,65d6bed2210973f7d2836d4c,0.1603,0.1604,1,56,218,106,1,sixfive,,,,,,,,,,,,,,,,,,,,,,,,,,,,,,,,,,,,,,,,,,,,,,,,,,,,,,,,,,,,,,,,,,,,,,,,,,,,,,,,,,,,,,,,,,,,,,,,,,,,,,,,,,,,,,,,,,,,,,,,,,,,,,,,,,,,,,,,,
,,5f7737e3d3a6410bfdcb06f2,2024-02-22_24h26.33.421,kallum_motion_pilot,2023.2.2,Win32,59.88023952,5f7737e3d3a6410bfdcb06f2,65d6bb0e977760de756971f7,65d6bed2210973f7d2836d4c,0.1606,0.1607,1,57,219,0,1,onetwo,,,,,,,,,,,,,,,,,,,,,,,,,,,,,,,,,,,,,,,,,,,,,,,,,,,,,,,,,,,,,,,,,,,,,,,,,,,,,,,,,,,,,,,,,,,,,,,,,,,,,,,,,,,,,,,,,,,,,,,,,,,,,,,,,,,,,,,,,
,,5f7737e3d3a6410bfdcb06f2,2024-02-22_24h26.33.421,kallum_motion_pilot,2023.2.2,Win32,59.88023952,5f7737e3d3a6410bfdcb06f2,65d6bb0e977760de756971f7,65d6bed2210973f7d2836d4c,0.161,0.1612,1,58,220,40,1,onetwo,,,,,,,,,,,,,,,,,,,,,,,,,,,,,,,,,,,,,,,,,,,,,,,,,,,,,,,,,,,,,,,,,,,,,,,,,,,,,,,,,,,,,,,,,,,,,,,,,,,,,,,,,,,,,,,,,,,,,,,,,,,,,,,,,,,,,,,,,
,,5f7737e3d3a6410bfdcb06f2,2024-02-22_24h26.33.421,kallum_motion_pilot,2023.2.2,Win32,59.88023952,5f7737e3d3a6410bfdcb06f2,65d6bb0e977760de756971f7,65d6bed2210973f7d2836d4c,0.1614,0.1615,1,59,221,52,1,threeone,,,,,,,,,,,,,,,,,,,,,,,,,,,,,,,,,,,,,,,,,,,,,,,,,,,,,,,,,,,,,,,,,,,,,,,,,,,,,,,,,,,,,,,,,,,,,,,,,,,,,,,,,,,,,,,,,,,,,,,,,,,,,,,,,,,,,,,,,
,,5f7737e3d3a6410bfdcb06f2,2024-02-22_24h26.33.421,kallum_motion_pilot,2023.2.2,Win32,59.88023952,5f7737e3d3a6410bfdcb06f2,65d6bb0e977760de756971f7,65d6bed2210973f7d2836d4c,0.1617,0.1619,1,60,222,58,1,twoone,,,,,,,,,,,,,,,,,,,,,,,,,,,,,,,,,,,,,,,,,,,,,,,,,,,,,,,,,,,,,,,,,,,,,,,,,,,,,,,,,,,,,,,,,,,,,,,,,,,,,,,,,,,,,,,,,,,,,,,,,,,,,,,,,,,,,,,,,
,,5f7737e3d3a6410bfdcb06f2,2024-02-22_24h26.33.421,kallum_motion_pilot,2023.2.2,Win32,59.88023952,5f7737e3d3a6410bfdcb06f2,65d6bb0e977760de756971f7,65d6bed2210973f7d2836d4c,0.1636,0.1639,1,61,223,84,1,sevenfive,,,,,,,,,,,,,,,,,,,,,,,,,,,,,,,,,,,,,,,,,,,,,,,,,,,,,,,,,,,,,,,,,,,,,,,,,,,,,,,,,,,,,,,,,,,,,,,,,,,,,,,,,,,,,,,,,,,,,,,,,,,,,,,,,,,,,,,,,
,,5f7737e3d3a6410bfdcb06f2,2024-02-22_24h26.33.421,kallum_motion_pilot,2023.2.2,Win32,59.88023952,5f7737e3d3a6410bfdcb06f2,65d6bb0e977760de756971f7,65d6bed2210973f7d2836d4c,0.1643,0.1644,1,62,224,63,1,fourthree,,,,,,,,,,,,,,,,,,,,,,,,,,,,,,,,,,,,,,,,,,,,,,,,,,,,,,,,,,,,,,,,,,,,,,,,,,,,,,,,,,,,,,,,,,,,,,,,,,,,,,,,,,,,,,,,,,,,,,,,,,,,,,,,,,,,,,,,,
,,5f7737e3d3a6410bfdcb06f2,2024-02-22_24h26.33.421,kallum_motion_pilot,2023.2.2,Win32,59.88023952,5f7737e3d3a6410bfdcb06f2,65d6bb0e977760de756971f7,65d6bed2210973f7d2836d4c,0.1646,0.1648,1,63,225,131,1,sixeight,,,,,,,,,,,,,,,,,,,,,,,,,,,,,,,,,,,,,,,,,,,,,,,,,,,,,,,,,,,,,,,,,,,,,,,,,,,,,,,,,,,,,,,,,,,,,,,,,,,,,,,,,,,,,,,,,,,,,,,,,,,,,,,,,,,,,,,,,
,,5f7737e3d3a6410bfdcb06f2,2024-02-22_24h26.33.421,kallum_motion_pilot,2023.2.2,Win32,59.88023952,5f7737e3d3a6410bfdcb06f2,65d6bb0e977760de756971f7,65d6bed2210973f7d2836d4c,0.1651,0.1654,1,64,226,102,1,eightsix,,,,,,,,,,,,,,,,,,,,,,,,,,,,,,,,,,,,,,,,,,,,,,,,,,,,,,,,,,,,,,,,,,,,,,,,,,,,,,,,,,,,,,,,,,,,,,,,,,,,,,,,,,,,,,,,,,,,,,,,,,,,,,,,,,,,,,,,,
,,5f7737e3d3a6410bfdcb06f2,2024-02-22_24h26.33.421,kallum_motion_pilot,2023.2.2,Win32,59.88023952,5f7737e3d3a6410bfdcb06f2,65d6bb0e977760de756971f7,65d6bed2210973f7d2836d4c,0.1658,0.166,1,65,227,75,1,twofour,,,,,,,,,,,,,,,,,,,,,,,,,,,,,,,,,,,,,,,,,,,,,,,,,,,,,,,,,,,,,,,,,,,,,,,,,,,,,,,,,,,,,,,,,,,,,,,,,,,,,,,,,,,,,,,,,,,,,,,,,,,,,,,,,,,,,,,,,
,,5f7737e3d3a6410bfdcb06f2,2024-02-22_24h26.33.421,kallum_motion_pilot,2023.2.2,Win32,59.88023952,5f7737e3d3a6410bfdcb06f2,65d6bb0e977760de756971f7,65d6bed2210973f7d2836d4c,0.1663,0.1666,1,66,228,138,1,sixfive,,,,,,,,,,,,,,,,,,,,,,,,,,,,,,,,,,,,,,,,,,,,,,,,,,,,,,,,,,,,,,,,,,,,,,,,,,,,,,,,,,,,,,,,,,,,,,,,,,,,,,,,,,,,,,,,,,,,,,,,,,,,,,,,,,,,,,,,,
,,5f7737e3d3a6410bfdcb06f2,2024-02-22_24h26.33.421,kallum_motion_pilot,2023.2.2,Win32,59.88023952,5f7737e3d3a6410bfdcb06f2,65d6bb0e977760de756971f7,65d6bed2210973f7d2836d4c,0.1669,0.1672,1,67,229,53,1,threefour,,,,,,,,,,,,,,,,,,,,,,,,,,,,,,,,,,,,,,,,,,,,,,,,,,,,,,,,,,,,,,,,,,,,,,,,,,,,,,,,,,,,,,,,,,,,,,,,,,,,,,,,,,,,,,,,,,,,,,,,,,,,,,,,,,,,,,,,,
,,5f7737e3d3a6410bfdcb06f2,2024-02-22_24h26.33.421,kallum_motion_pilot,2023.2.2,Win32,59.88023952,5f7737e3d3a6410bfdcb06f2,65d6bb0e977760de756971f7,65d6bed2210973f7d2836d4c,0.1675,0.1678,1,68,230,103,1,eightseven,,,,,,,,,,,,,,,,,,,,,,,,,,,,,,,,,,,,,,,,,,,,,,,,,,,,,,,,,,,,,,,,,,,,,,,,,,,,,,,,,,,,,,,,,,,,,,,,,,,,,,,,,,,,,,,,,,,,,,,,,,,,,,,,,,,,,,,,,
,,5f7737e3d3a6410bfdcb06f2,2024-02-22_24h26.33.421,kallum_motion_pilot,2023.2.2,Win32,59.88023952,5f7737e3d3a6410bfdcb06f2,65d6bb0e977760de756971f7,65d6bed2210973f7d2836d4c,0.1681,0.1683,1,69,231,43,1,twofour,,,,,,,,,,,,,,,,,,,,,,,,,,,,,,,,,,,,,,,,,,,,,,,,,,,,,,,,,,,,,,,,,,,,,,,,,,,,,,,,,,,,,,,,,,,,,,,,,,,,,,,,,,,,,,,,,,,,,,,,,,,,,,,,,,,,,,,,,
,,5f7737e3d3a6410bfdcb06f2,2024-02-22_24h26.33.421,kallum_motion_pilot,2023.2.2,Win32,59.88023952,5f7737e3d3a6410bfdcb06f2,65d6bb0e977760de756971f7,65d6bed2210973f7d2836d4c,0.1686,0.1689,1,70,232,61,1,threefour,,,,,,,,,,,,,,,,,,,,,,,,,,,,,,,,,,,,,,,,,,,,,,,,,,,,,,,,,,,,,,,,,,,,,,,,,,,,,,,,,,,,,,,,,,,,,,,,,,,,,,,,,,,,,,,,,,,,,,,,,,,,,,,,,,,,,,,,,
,,5f7737e3d3a6410bfdcb06f2,2024-02-22_24h26.33.421,kallum_motion_pilot,2023.2.2,Win32,59.88023952,5f7737e3d3a6410bfdcb06f2,65d6bb0e977760de756971f7,65d6bed2210973f7d2836d4c,0.1692,0.1694,1,71,233,156,1,sevenfive,,,,,,,,,,,,,,,,,,,,,,,,,,,,,,,,,,,,,,,,,,,,,,,,,,,,,,,,,,,,,,,,,,,,,,,,,,,,,,,,,,,,,,,,,,,,,,,,,,,,,,,,,,,,,,,,,,,,,,,,,,,,,,,,,,,,,,,,,
,,5f7737e3d3a6410bfdcb06f2,2024-02-22_24h26.33.421,kallum_motion_pilot,2023.2.2,Win32,59.88023952,5f7737e3d3a6410bfdcb06f2,65d6bb0e977760de756971f7,65d6bed2210973f7d2836d4c,0.1697,0.17,1,72,234,110,1,eightsix,,,,,,,,,,,,,,,,,,,,,,,,,,,,,,,,,,,,,,,,,,,,,,,,,,,,,,,,,,,,,,,,,,,,,,,,,,,,,,,,,,,,,,,,,,,,,,,,,,,,,,,,,,,,,,,,,,,,,,,,,,,,,,,,,,,,,,,,,
,,5f7737e3d3a6410bfdcb06f2,2024-02-22_24h26.33.421,kallum_motion_pilot,2023.2.2,Win32,59.88023952,5f7737e3d3a6410bfdcb06f2,65d6bb0e977760de756971f7,65d6bed2210973f7d2836d4c,0.1702,0.1706,1,73,235,137,1,fiveseven,,,,,,,,,,,,,,,,,,,,,,,,,,,,,,,,,,,,,,,,,,,,,,,,,,,,,,,,,,,,,,,,,,,,,,,,,,,,,,,,,,,,,,,,,,,,,,,,,,,,,,,,,,,,,,,,,,,,,,,,,,,,,,,,,,,,,,,,,
,,5f7737e3d3a6410bfdcb06f2,2024-02-22_24h26.33.421,kallum_motion_pilot,2023.2.2,Win32,59.88023952,5f7737e3d3a6410bfdcb06f2,65d6bb0e977760de756971f7,65d6bed2210973f7d2836d4c,0.1707,0.171,1,74,236,122,1,sixfive,,,,,,,,,,,,,,,,,,,,,,,,,,,,,,,,,,,,,,,,,,,,,,,,,,,,,,,,,,,,,,,,,,,,,,,,,,,,,,,,,,,,,,,,,,,,,,,,,,,,,,,,,,,,,,,,,,,,,,,,,,,,,,,,,,,,,,,,,
,,5f7737e3d3a6410bfdcb06f2,2024-02-22_24h26.33.421,kallum_motion_pilot,2023.2.2,Win32,59.88023952,5f7737e3d3a6410bfdcb06f2,65d6bb0e977760de756971f7,65d6bed2210973f7d2836d4c,0.1712,0.1715,1,75,237,121,1,fiveseven,,,,,,,,,,,,,,,,,,,,,,,,,,,,,,,,,,,,,,,,,,,,,,,,,,,,,,,,,,,,,,,,,,,,,,,,,,,,,,,,,,,,,,,,,,,,,,,,,,,,,,,,,,,,,,,,,,,,,,,,,,,,,,,,,,,,,,,,,
,,5f7737e3d3a6410bfdcb06f2,2024-02-22_24h26.33.421,kallum_motion_pilot,2023.2.2,Win32,59.88023952,5f7737e3d3a6410bfdcb06f2,65d6bb0e977760de756971f7,65d6bed2210973f7d2836d4c,0.1717,0.1719,1,76,238,82,1,sixfive,,,,,,,,,,,,,,,,,,,,,,,,,,,,,,,,,,,,,,,,,,,,,,,,,,,,,,,,,,,,,,,,,,,,,,,,,,,,,,,,,,,,,,,,,,,,,,,,,,,,,,,,,,,,,,,,,,,,,,,,,,,,,,,,,,,,,,,,,
,,5f7737e3d3a6410bfdcb06f2,2024-02-22_24h26.33.421,kallum_motion_pilot,2023.2.2,Win32,59.88023952,5f7737e3d3a6410bfdcb06f2,65d6bb0e977760de756971f7,65d6bed2210973f7d2836d4c,0.1722,0.1725,1,77,239,92,1,sevenfive,,,,,,,,,,,,,,,,,,,,,,,,,,,,,,,,,,,,,,,,,,,,,,,,,,,,,,,,,,,,,,,,,,,,,,,,,,,,,,,,,,,,,,,,,,,,,,,,,,,,,,,,,,,,,,,,,,,,,,,,,,,,,,,,,,,,,,,,,
,,5f7737e3d3a6410bfdcb06f2,2024-02-22_24h26.33.421,kallum_motion_pilot,2023.2.2,Win32,59.88023952,5f7737e3d3a6410bfdcb06f2,65d6bb0e977760de756971f7,65d6bed2210973f7d2836d4c,0.1727,0.173,1,78,240,5,1,threefour,,,,,,,,,,,,,,,,,,,,,,,,,,,,,,,,,,,,,,,,,,,,,,,,,,,,,,,,,,,,,,,,,,,,,,,,,,,,,,,,,,,,,,,,,,,,,,,,,,,,,,,,,,,,,,,,,,,,,,,,,,,,,,,,,,,,,,,,,
,,5f7737e3d3a6410bfdcb06f2,2024-02-22_24h26.33.421,kallum_motion_pilot,2023.2.2,Win32,59.88023952,5f7737e3d3a6410bfdcb06f2,65d6bb0e977760de756971f7,65d6bed2210973f7d2836d4c,0.1732,0.1735,1,79,241,34,1,twoone,,,,,,,,,,,,,,,,,,,,,,,,,,,,,,,,,,,,,,,,,,,,,,,,,,,,,,,,,,,,,,,,,,,,,,,,,,,,,,,,,,,,,,,,,,,,,,,,,,,,,,,,,,,,,,,,,,,,,,,,,,,,,,,,,,,,,,,,,
,,5f7737e3d3a6410bfdcb06f2,2024-02-22_24h26.33.421,kallum_motion_pilot,2023.2.2,Win32,59.88023952,5f7737e3d3a6410bfdcb06f2,65d6bb0e977760de756971f7,65d6bed2210973f7d2836d4c,0.1737,0.174,1,80,242,111,1,eightseven,,,,,,,,,,,,,,,,,,,,,,,,,,,,,,,,,,,,,,,,,,,,,,,,,,,,,,,,,,,,,,,,,,,,,,,,,,,,,,,,,,,,,,,,,,,,,,,,,,,,,,,,,,,,,,,,,,,,,,,,,,,,,,,,,,,,,,,,,
,,5f7737e3d3a6410bfdcb06f2,2024-02-22_24h26.33.421,kallum_motion_pilot,2023.2.2,Win32,59.88023952,5f7737e3d3a6410bfdcb06f2,65d6bb0e977760de756971f7,65d6bed2210973f7d2836d4c,0.1742,0.1745,1,81,243,64,1,onetwo,,,,,,,,,,,,,,,,,,,,,,,,,,,,,,,,,,,,,,,,,,,,,,,,,,,,,,,,,,,,,,,,,,,,,,,,,,,,,,,,,,,,,,,,,,,,,,,,,,,,,,,,,,,,,,,,,,,,,,,,,,,,,,,,,,,,,,,,,
,,5f7737e3d3a6410bfdcb06f2,2024-02-22_24h26.33.421,kallum_motion_pilot,2023.2.2,Win32,59.88023952,5f7737e3d3a6410bfdcb06f2,65d6bb0e977760de756971f7,65d6bed2210973f7d2836d4c,0.1747,0.1751,1,82,244,38,1,fourtwo,,,,,,,,,,,,,,,,,,,,,,,,,,,,,,,,,,,,,,,,,,,,,,,,,,,,,,,,,,,,,,,,,,,,,,,,,,,,,,,,,,,,,,,,,,,,,,,,,,,,,,,,,,,,,,,,,,,,,,,,,,,,,,,,,,,,,,,,,
,,5f7737e3d3a6410bfdcb06f2,2024-02-22_24h26.33.421,kallum_motion_pilot,2023.2.2,Win32,59.88023952,5f7737e3d3a6410bfdcb06f2,65d6bb0e977760de756971f7,65d6bed2210973f7d2836d4c,0.1753,0.1757,1,83,245,42,1,twoone,,,,,,,,,,,,,,,,,,,,,,,,,,,,,,,,,,,,,,,,,,,,,,,,,,,,,,,,,,,,,,,,,,,,,,,,,,,,,,,,,,,,,,,,,,,,,,,,,,,,,,,,,,,,,,,,,,,,,,,,,,,,,,,,,,,,,,,,,
,,5f7737e3d3a6410bfdcb06f2,2024-02-22_24h26.33.421,kallum_motion_pilot,2023.2.2,Win32,59.88023952,5f7737e3d3a6410bfdcb06f2,65d6bb0e977760de756971f7,65d6bed2210973f7d2836d4c,0.176,0.1763,1,84,246,70,1,fourtwo,,,,,,,,,,,,,,,,,,,,,,,,,,,,,,,,,,,,,,,,,,,,,,,,,,,,,,,,,,,,,,,,,,,,,,,,,,,,,,,,,,,,,,,,,,,,,,,,,,,,,,,,,,,,,,,,,,,,,,,,,,,,,,,,,,,,,,,,,
,,5f7737e3d3a6410bfdcb06f2,2024-02-22_24h26.33.421,kallum_motion_pilot,2023.2.2,Win32,59.88023952,5f7737e3d3a6410bfdcb06f2,65d6bb0e977760de756971f7,65d6bed2210973f7d2836d4c,0.1766,0.1769,1,85,247,48,1,onetwo,,,,,,,,,,,,,,,,,,,,,,,,,,,,,,,,,,,,,,,,,,,,,,,,,,,,,,,,,,,,,,,,,,,,,,,,,,,,,,,,,,,,,,,,,,,,,,,,,,,,,,,,,,,,,,,,,,,,,,,,,,,,,,,,,,,,,,,,,
,,5f7737e3d3a6410bfdcb06f2,2024-02-22_24h26.33.421,kallum_motion_pilot,2023.2.2,Win32,59.88023952,5f7737e3d3a6410bfdcb06f2,65d6bb0e977760de756971f7,65d6bed2210973f7d2836d4c,0.1771,0.1775,1,86,248,57,1,onethree,,,,,,,,,,,,,,,,,,,,,,,,,,,,,,,,,,,,,,,,,,,,,,,,,,,,,,,,,,,,,,,,,,,,,,,,,,,,,,,,,,,,,,,,,,,,,,,,,,,,,,,,,,,,,,,,,,,,,,,,,,,,,,,,,,,,,,,,,
,,5f7737e3d3a6410bfdcb06f2,2024-02-22_24h26.33.421,kallum_motion_pilot,2023.2.2,Win32,59.88023952,5f7737e3d3a6410bfdcb06f2,65d6bb0e977760de756971f7,65d6bed2210973f7d2836d4c,0.1778,0.1781,1,87,249,79,1,eightseven,,,,,,,,,,,,,,,,,,,,,,,,,,,,,,,,,,,,,,,,,,,,,,,,,,,,,,,,,,,,,,,,,,,,,,,,,,,,,,,,,,,,,,,,,,,,,,,,,,,,,,,,,,,,,,,,,,,,,,,,,,,,,,,,,,,,,,,,,
,,5f7737e3d3a6410bfdcb06f2,2024-02-22_24h26.33.421,kallum_motion_pilot,2023.2.2,Win32,59.88023952,5f7737e3d3a6410bfdcb06f2,65d6bb0e977760de756971f7,65d6bed2210973f7d2836d4c,0.1784,0.1787,1,88,250,120,1,fivesix,,,,,,,,,,,,,,,,,,,,,,,,,,,,,,,,,,,,,,,,,,,,,,,,,,,,,,,,,,,,,,,,,,,,,,,,,,,,,,,,,,,,,,,,,,,,,,,,,,,,,,,,,,,,,,,,,,,,,,,,,,,,,,,,,,,,,,,,,
,,5f7737e3d3a6410bfdcb06f2,2024-02-22_24h26.33.421,kallum_motion_pilot,2023.2.2,Win32,59.88023952,5f7737e3d3a6410bfdcb06f2,65d6bb0e977760de756971f7,65d6bed2210973f7d2836d4c,0.179,0.1794,1,89,251,10,1,twoone,,,,,,,,,,,,,,,,,,,,,,,,,,,,,,,,,,,,,,,,,,,,,,,,,,,,,,,,,,,,,,,,,,,,,,,,,,,,,,,,,,,,,,,,,,,,,,,,,,,,,,,,,,,,,,,,,,,,,,,,,,,,,,,,,,,,,,,,,
,,5f7737e3d3a6410bfdcb06f2,2024-02-22_24h26.33.421,kallum_motion_pilot,2023.2.2,Win32,59.88023952,5f7737e3d3a6410bfdcb06f2,65d6bb0e977760de756971f7,65d6bed2210973f7d2836d4c,0.1797,0.1801,1,90,252,117,1,seveneight,,,,,,,,,,,,,,,,,,,,,,,,,,,,,,,,,,,,,,,,,,,,,,,,,,,,,,,,,,,,,,,,,,,,,,,,,,,,,,,,,,,,,,,,,,,,,,,,,,,,,,,,,,,,,,,,,,,,,,,,,,,,,,,,,,,,,,,,,
,,5f7737e3d3a6410bfdcb06f2,2024-02-22_24h26.33.421,kallum_motion_pilot,2023.2.2,Win32,59.88023952,5f7737e3d3a6410bfdcb06f2,65d6bb0e977760de756971f7,65d6bed2210973f7d2836d4c,0.1804,0.1807,1,91,253,68,1,threeone,,,,,,,,,,,,,,,,,,,,,,,,,,,,,,,,,,,,,,,,,,,,,,,,,,,,,,,,,,,,,,,,,,,,,,,,,,,,,,,,,,,,,,,,,,,,,,,,,,,,,,,,,,,,,,,,,,,,,,,,,,,,,,,,,,,,,,,,,
,,5f7737e3d3a6410bfdcb06f2,2024-02-22_24h26.33.421,kallum_motion_pilot,2023.2.2,Win32,59.88023952,5f7737e3d3a6410bfdcb06f2,65d6bb0e977760de756971f7,65d6bed2210973f7d2836d4c,0.181,0.1813,1,92,254,95,1,eightseven,,,,,,,,,,,,,,,,,,,,,,,,,,,,,,,,,,,,,,,,,,,,,,,,,,,,,,,,,,,,,,,,,,,,,,,,,,,,,,,,,,,,,,,,,,,,,,,,,,,,,,,,,,,,,,,,,,,,,,,,,,,,,,,,,,,,,,,,,
,,5f7737e3d3a6410bfdcb06f2,2024-02-22_24h26.33.421,kallum_motion_pilot,2023.2.2,Win32,59.88023952,5f7737e3d3a6410bfdcb06f2,65d6bb0e977760de756971f7,65d6bed2210973f7d2836d4c,0.1817,0.1821,1,93,255,153,1,fiveseven,,,,,,,,,,,,,,,,,,,,,,,,,,,,,,,,,,,,,,,,,,,,,,,,,,,,,,,,,,,,,,,,,,,,,,,,,,,,,,,,,,,,,,,,,,,,,,,,,,,,,,,,,,,,,,,,,,,,,,,,,,,,,,,,,,,,,,,,,
,,5f7737e3d3a6410bfdcb06f2,2024-02-22_24h26.33.421,kallum_motion_pilot,2023.2.2,Win32,59.88023952,5f7737e3d3a6410bfdcb06f2,65d6bb0e977760de756971f7,65d6bed2210973f7d2836d4c,0.1823,0.1825,1,94,256,123,1,sixeight,,,,,,,,,,,,,,,,,,,,,,,,,,,,,,,,,,,,,,,,,,,,,,,,,,,,,,,,,,,,,,,,,,,,,,,,,,,,,,,,,,,,,,,,,,,,,,,,,,,,,,,,,,,,,,,,,,,,,,,,,,,,,,,,,,,,,,,,,
,,5f7737e3d3a6410bfdcb06f2,2024-02-22_24h26.33.421,kallum_motion_pilot,2023.2.2,Win32,59.88023952,5f7737e3d3a6410bfdcb06f2,65d6bb0e977760de756971f7,65d6bed2210973f7d2836d4c,0.1827,0.1831,1,95,257,97,1,fiveseven,,,,,,,,,,,,,,,,,,,,,,,,,,,,,,,,,,,,,,,,,,,,,,,,,,,,,,,,,,,,,,,,,,,,,,,,,,,,,,,,,,,,,,,,,,,,,,,,,,,,,,,,,,,,,,,,,,,,,,,,,,,,,,,,,,,,,,,,,
,,5f7737e3d3a6410bfdcb06f2,2024-02-22_24h26.33.421,kallum_motion_pilot,2023.2.2,Win32,59.88023952,5f7737e3d3a6410bfdcb06f2,65d6bb0e977760de756971f7,65d6bed2210973f7d2836d4c,0.1833,0.1836,1,96,258,108,1,sevenfive,,,,,,,,,,,,,,,,,,,,,,,,,,,,,,,,,,,,,,,,,,,,,,,,,,,,,,,,,,,,,,,,,,,,,,,,,,,,,,,,,,,,,,,,,,,,,,,,,,,,,,,,,,,,,,,,,,,,,,,,,,,,,,,,,,,,,,,,,
,,5f7737e3d3a6410bfdcb06f2,2024-02-22_24h26.33.421,kallum_motion_pilot,2023.2.2,Win32,59.88023952,5f7737e3d3a6410bfdcb06f2,65d6bb0e977760de756971f7,65d6bed2210973f7d2836d4c,0.1837,0.1841,1,97,259,133,1,seveneight,,,,,,,,,,,,,,,,,,,,,,,,,,,,,,,,,,,,,,,,,,,,,,,,,,,,,,,,,,,,,,,,,,,,,,,,,,,,,,,,,,,,,,,,,,,,,,,,,,,,,,,,,,,,,,,,,,,,,,,,,,,,,,,,,,,,,,,,,
,,5f7737e3d3a6410bfdcb06f2,2024-02-22_24h26.33.421,kallum_motion_pilot,2023.2.2,Win32,59.88023952,5f7737e3d3a6410bfdcb06f2,65d6bb0e977760de756971f7,65d6bed2210973f7d2836d4c,0.1844,0.1847,1,98,260,30,1,fourtwo,,,,,,,,,,,,,,,,,,,,,,,,,,,,,,,,,,,,,,,,,,,,,,,,,,,,,,,,,,,,,,,,,,,,,,,,,,,,,,,,,,,,,,,,,,,,,,,,,,,,,,,,,,,,,,,,,,,,,,,,,,,,,,,,,,,,,,,,,
,,5f7737e3d3a6410bfdcb06f2,2024-02-22_24h26.33.421,kallum_motion_pilot,2023.2.2,Win32,59.88023952,5f7737e3d3a6410bfdcb06f2,65d6bb0e977760de756971f7,65d6bed2210973f7d2836d4c,0.185,0.1854,1,99,261,13,1,threefour,,,,,,,,,,,,,,,,,,,,,,,,,,,,,,,,,,,,,,,,,,,,,,,,,,,,,,,,,,,,,,,,,,,,,,,,,,,,,,,,,,,,,,,,,,,,,,,,,,,,,,,,,,,,,,,,,,,,,,,,,,,,,,,,,,,,,,,,,
,,5f7737e3d3a6410bfdcb06f2,2024-02-22_24h26.33.421,kallum_motion_pilot,2023.2.2,Win32,59.88023952,5f7737e3d3a6410bfdcb06f2,65d6bb0e977760de756971f7,65d6bed2210973f7d2836d4c,0.1858,0.1861,1,100,262,66,1,twoone,,,,,,,,,,,,,,,,,,,,,,,,,,,,,,,,,,,,,,,,,,,,,,,,,,,,,,,,,,,,,,,,,,,,,,,,,,,,,,,,,,,,,,,,,,,,,,,,,,,,,,,,,,,,,,,,,,,,,,,,,,,,,,,,,,,,,,,,,
,,5f7737e3d3a6410bfdcb06f2,2024-02-22_24h26.33.421,kallum_motion_pilot,2023.2.2,Win32,59.88023952,5f7737e3d3a6410bfdcb06f2,65d6bb0e977760de756971f7,65d6bed2210973f7d2836d4c,0.1866,0.1871,1,101,263,155,1,sixeight,,,,,,,,,,,,,,,,,,,,,,,,,,,,,,,,,,,,,,,,,,,,,,,,,,,,,,,,,,,,,,,,,,,,,,,,,,,,,,,,,,,,,,,,,,,,,,,,,,,,,,,,,,,,,,,,,,,,,,,,,,,,,,,,,,,,,,,,,
,,5f7737e3d3a6410bfdcb06f2,2024-02-22_24h26.33.421,kallum_motion_pilot,2023.2.2,Win32,59.88023952,5f7737e3d3a6410bfdcb06f2,65d6bb0e977760de756971f7,65d6bed2210973f7d2836d4c,0.1877,0.188,1,102,264,124,1,sevenfive,,,,,,,,,,,,,,,,,,,,,,,,,,,,,,,,,,,,,,,,,,,,,,,,,,,,,,,,,,,,,,,,,,,,,,,,,,,,,,,,,,,,,,,,,,,,,,,,,,,,,,,,,,,,,,,,,,,,,,,,,,,,,,,,,,,,,,,,,
,,5f7737e3d3a6410bfdcb06f2,2024-02-22_24h26.33.421,kallum_motion_pilot,2023.2.2,Win32,59.88023952,5f7737e3d3a6410bfdcb06f2,65d6bb0e977760de756971f7,65d6bed2210973f7d2836d4c,0.1883,0.1886,1,103,265,76,1,threeone,,,,,,,,,,,,,,,,,,,,,,,,,,,,,,,,,,,,,,,,,,,,,,,,,,,,,,,,,,,,,,,,,,,,,,,,,,,,,,,,,,,,,,,,,,,,,,,,,,,,,,,,,,,,,,,,,,,,,,,,,,,,,,,,,,,,,,,,,
,,5f7737e3d3a6410bfdcb06f2,2024-02-22_24h26.33.421,kallum_motion_pilot,2023.2.2,Win32,59.88023952,5f7737e3d3a6410bfdcb06f2,65d6bb0e977760de756971f7,65d6bed2210973f7d2836d4c,0.1889,0.1892,1,104,266,12,1,threeone,,,,,,,,,,,,,,,,,,,,,,,,,,,,,,,,,,,,,,,,,,,,,,,,,,,,,,,,,,,,,,,,,,,,,,,,,,,,,,,,,,,,,,,,,,,,,,,,,,,,,,,,,,,,,,,,,,,,,,,,,,,,,,,,,,,,,,,,,
,,5f7737e3d3a6410bfdcb06f2,2024-02-22_24h26.33.421,kallum_motion_pilot,2023.2.2,Win32,59.88023952,5f7737e3d3a6410bfdcb06f2,65d6bb0e977760de756971f7,65d6bed2210973f7d2836d4c,0.1895,0.1898,1,105,267,144,1,fivesix,,,,,,,,,,,,,,,,,,,,,,,,,,,,,,,,,,,,,,,,,,,,,,,,,,,,,,,,,,,,,,,,,,,,,,,,,,,,,,,,,,,,,,,,,,,,,,,,,,,,,,,,,,,,,,,,,,,,,,,,,,,,,,,,,,,,,,,,,
,,5f7737e3d3a6410bfdcb06f2,2024-02-22_24h26.33.421,kallum_motion_pilot,2023.2.2,Win32,59.88023952,5f7737e3d3a6410bfdcb06f2,65d6bb0e977760de756971f7,65d6bed2210973f7d2836d4c,0.1901,0.1904,1,106,268,88,1,fivesix,,,,,,,,,,,,,,,,,,,,,,,,,,,,,,,,,,,,,,,,,,,,,,,,,,,,,,,,,,,,,,,,,,,,,,,,,,,,,,,,,,,,,,,,,,,,,,,,,,,,,,,,,,,,,,,,,,,,,,,,,,,,,,,,,,,,,,,,,
,,5f7737e3d3a6410bfdcb06f2,2024-02-22_24h26.33.421,kallum_motion_pilot,2023.2.2,Win32,59.88023952,5f7737e3d3a6410bfdcb06f2,65d6bb0e977760de756971f7,65d6bed2210973f7d2836d4c,0.1907,0.191,1,107,269,37,1,threefour,,,,,,,,,,,,,,,,,,,,,,,,,,,,,,,,,,,,,,,,,,,,,,,,,,,,,,,,,,,,,,,,,,,,,,,,,,,,,,,,,,,,,,,,,,,,,,,,,,,,,,,,,,,,,,,,,,,,,,,,,,,,,,,,,,,,,,,,,
,,5f7737e3d3a6410bfdcb06f2,2024-02-22_24h26.33.421,kallum_motion_pilot,2023.2.2,Win32,59.88023952,5f7737e3d3a6410bfdcb06f2,65d6bb0e977760de756971f7,65d6bed2210973f7d2836d4c,0.1912,0.1914,1,108,270,107,1,sixeight,,,,,,,,,,,,,,,,,,,,,,,,,,,,,,,,,,,,,,,,,,,,,,,,,,,,,,,,,,,,,,,,,,,,,,,,,,,,,,,,,,,,,,,,,,,,,,,,,,,,,,,,,,,,,,,,,,,,,,,,,,,,,,,,,,,,,,,,,
,,5f7737e3d3a6410bfdcb06f2,2024-02-22_24h26.33.421,kallum_motion_pilot,2023.2.2,Win32,59.88023952,5f7737e3d3a6410bfdcb06f2,65d6bb0e977760de756971f7,65d6bed2210973f7d2836d4c,0.1915,0.1918,1,109,271,141,1,seveneight,,,,,,,,,,,,,,,,,,,,,,,,,,,,,,,,,,,,,,,,,,,,,,,,,,,,,,,,,,,,,,,,,,,,,,,,,,,,,,,,,,,,,,,,,,,,,,,,,,,,,,,,,,,,,,,,,,,,,,,,,,,,,,,,,,,,,,,,,
,,5f7737e3d3a6410bfdcb06f2,2024-02-22_24h26.33.421,kallum_motion_pilot,2023.2.2,Win32,59.88023952,5f7737e3d3a6410bfdcb06f2,65d6bb0e977760de756971f7,65d6bed2210973f7d2836d4c,0.192,0.1922,1,110,272,51,1,twofour,,,,,,,,,,,,,,,,,,,,,,,,,,,,,,,,,,,,,,,,,,,,,,,,,,,,,,,,,,,,,,,,,,,,,,,,,,,,,,,,,,,,,,,,,,,,,,,,,,,,,,,,,,,,,,,,,,,,,,,,,,,,,,,,,,,,,,,,,
,,5f7737e3d3a6410bfdcb06f2,2024-02-22_24h26.33.421,kallum_motion_pilot,2023.2.2,Win32,59.88023952,5f7737e3d3a6410bfdcb06f2,65d6bb0e977760de756971f7,65d6bed2210973f7d2836d4c,0.1924,0.1926,1,111,273,9,1,onethree,,,,,,,,,,,,,,,,,,,,,,,,,,,,,,,,,,,,,,,,,,,,,,,,,,,,,,,,,,,,,,,,,,,,,,,,,,,,,,,,,,,,,,,,,,,,,,,,,,,,,,,,,,,,,,,,,,,,,,,,,,,,,,,,,,,,,,,,,
,,5f7737e3d3a6410bfdcb06f2,2024-02-22_24h26.33.421,kallum_motion_pilot,2023.2.2,Win32,59.88023952,5f7737e3d3a6410bfdcb06f2,65d6bb0e977760de756971f7,65d6bed2210973f7d2836d4c,0.1927,0.1929,1,112,274,90,1,sixfive,,,,,,,,,,,,,,,,,,,,,,,,,,,,,,,,,,,,,,,,,,,,,,,,,,,,,,,,,,,,,,,,,,,,,,,,,,,,,,,,,,,,,,,,,,,,,,,,,,,,,,,,,,,,,,,,,,,,,,,,,,,,,,,,,,,,,,,,,
,,5f7737e3d3a6410bfdcb06f2,2024-02-22_24h26.33.421,kallum_motion_pilot,2023.2.2,Win32,59.88023952,5f7737e3d3a6410bfdcb06f2,65d6bb0e977760de756971f7,65d6bed2210973f7d2836d4c,0.1932,0.1933,1,113,275,149,1,seveneight,,,,,,,,,,,,,,,,,,,,,,,,,,,,,,,,,,,,,,,,,,,,,,,,,,,,,,,,,,,,,,,,,,,,,,,,,,,,,,,,,,,,,,,,,,,,,,,,,,,,,,,,,,,,,,,,,,,,,,,,,,,,,,,,,,,,,,,,,
,,5f7737e3d3a6410bfdcb06f2,2024-02-22_24h26.33.421,kallum_motion_pilot,2023.2.2,Win32,59.88023952,5f7737e3d3a6410bfdcb06f2,65d6bb0e977760de756971f7,65d6bed2210973f7d2836d4c,0.1935,0.1938,1,114,276,46,1,fourtwo,,,,,,,,,,,,,,,,,,,,,,,,,,,,,,,,,,,,,,,,,,,,,,,,,,,,,,,,,,,,,,,,,,,,,,,,,,,,,,,,,,,,,,,,,,,,,,,,,,,,,,,,,,,,,,,,,,,,,,,,,,,,,,,,,,,,,,,,,
,,5f7737e3d3a6410bfdcb06f2,2024-02-22_24h26.33.421,kallum_motion_pilot,2023.2.2,Win32,59.88023952,5f7737e3d3a6410bfdcb06f2,65d6bb0e977760de756971f7,65d6bed2210973f7d2836d4c,0.1939,0.1941,1,115,277,145,1,fiveseven,,,,,,,,,,,,,,,,,,,,,,,,,,,,,,,,,,,,,,,,,,,,,,,,,,,,,,,,,,,,,,,,,,,,,,,,,,,,,,,,,,,,,,,,,,,,,,,,,,,,,,,,,,,,,,,,,,,,,,,,,,,,,,,,,,,,,,,,,
