startup.started,startup.stopped,Prolific ID*,date,expName,psychopyVersion,OS,frameRate,participant,study_id,session,stimpositions.started,stimpositions.stopped,hardcoded_stimulus_positions.thisRepN,hardcoded_stimulus_positions.thisTrialN,hardcoded_stimulus_positions.thisN,hardcoded_stimulus_positions.thisIndex,hardcoded_stimulus_positions.ran,StimulusPos,stimorientation.started,stimorientation.stopped,prac_stimorientation_import_loop.thisRepN,prac_stimorientation_import_loop.thisTrialN,prac_stimorientation_import_loop.thisN,prac_stimorientation_import_loop.thisIndex,prac_stimorientation_import_loop.ran,Stimorientation,welcome_instr.started,welcome_instr.stopped,key_resp.keys,key_resp.rt,key_resp.duration,response_steppedout_1.started,response_steppedout_1.stopped,key_resp_20.keys,key_resp_20.rt,key_resp_20.duration,response_steppedout_2.started,response_steppedout_2.stopped,key_resp_19.keys,key_resp_19.rt,key_resp_19.duration,stim_response_instr.started,stim_response_instr.stopped,key_resp_15.keys,key_resp_15.rt,key_resp_15.duration,direction_instr_2.started,direction_instr_2.stopped,key_resp_9.keys,key_resp_9.rt,key_resp_9.duration,instr_prac.started,instr_prac.stopped,key_resp_10.keys,key_resp_10.rt,key_resp_10.duration,Stim1_display_prac.started,Stim1_display_prac.stopped,Ecc,Circle1_ori,Circle2_ori,response_prac.started,similarity,response_time,response_prac.stopped,mouse_5.x,mouse_5.y,mouse_5.leftButton,mouse_5.midButton,mouse_5.rightButton,mouse_5.clicked_name,responseprac_feedback.started,responseprac_feedback.stopped,summary2_prac.started,summary2_prac.stopped,mouse_6.x,mouse_6.y,mouse_6.leftButton,mouse_6.midButton,mouse_6.rightButton,mouse_6.clicked_name,duringprac.thisRepN,duringprac.thisTrialN,duringprac.thisN,duringprac.thisIndex,duringprac.ran,begin.started,begin.stopped,key_resp_22.keys,key_resp_22.rt,key_resp_22.duration,Stim1_display.started,Stim1_display.stopped,circle1_ori,circle2_ori,circle1_SF,circle2_SF,response.started,response.stopped,mouse.x,mouse.y,mouse.leftButton,mouse.midButton,mouse.rightButton,mouse.clicked_name,trialnumber,double_pass.thisRepN,double_pass.thisTrialN,double_pass.thisN,double_pass.thisIndex,double_pass.ran,double_pass.order,main_trial.thisRepN,main_trial.thisTrialN,main_trial.thisN,main_trial.thisIndex,main_trial.ran,main_trial.order,Trial_Counter,Catch,Frequencies,response_2.started,response_2.stopped,mouse_2.x,mouse_2.y,mouse_2.leftButton,mouse_2.midButton,mouse_2.rightButton,mouse_2.clicked_name,special_trial.started,special_trial.stopped,catch_1.started,catch_1.stopped,mouse_3.x,mouse_3.y,mouse_3.leftButton,mouse_3.midButton,mouse_3.rightButton,catchresponse,catchnumber,response_time_catch,response_sum.started,response_sum.stopped,mouse_11.x,mouse_11.y,mouse_11.leftButton,mouse_11.midButton,mouse_11.rightButton,flip_presentation_sequence_for_double_pass.started,flip_presentation_sequence_for_double_pass.stopped,goodbye.started,goodbye.stopped,key_resp_3.keys,key_resp_3.rt,key_resp_3.duration
0.0003,0.0003,5f80a6f92dac9e105a84b405,2024-02-18_20h14.18.421,kallum_motion_pilot,2023.2.2,Win32,144.9275362,5f80a6f92dac9e105a84b405,65d2b6c8f2eece985d8e374c,65d2b96fcf2bb0e35ac16fef,,,,,,,,,,,,,,,,,,,,,,,,,,,,,,,,,,,,,,,,,,,,,,,,,,,,,,,,,,,,,,,,,,,,,,,,,,,,,,,,,,,,,,,,,,,,,,,,,,,,,,,,,,,,,,,,,,,,,,,,,,,,,,,,,,,,,,,,,,,,,,,,,
,,5f80a6f92dac9e105a84b405,2024-02-18_20h14.18.421,kallum_motion_pilot,2023.2.2,Win32,144.9275362,5f80a6f92dac9e105a84b405,65d2b6c8f2eece985d8e374c,65d2b96fcf2bb0e35ac16fef,0.0158,0.0159,0,0,0,87,1,eightseven,,,,,,,,,,,,,,,,,,,,,,,,,,,,,,,,,,,,,,,,,,,,,,,,,,,,,,,,,,,,,,,,,,,,,,,,,,,,,,,,,,,,,,,,,,,,,,,,,,,,,,,,,,,,,,,,,,,,,,,,,,,,,,,,,,,,,,,,,
,,5f80a6f92dac9e105a84b405,2024-02-18_20h14.18.421,kallum_motion_pilot,2023.2.2,Win32,144.9275362,5f80a6f92dac9e105a84b405,65d2b6c8f2eece985d8e374c,65d2b96fcf2bb0e35ac16fef,0.0161,0.0161,0,1,1,20,1,threeone,,,,,,,,,,,,,,,,,,,,,,,,,,,,,,,,,,,,,,,,,,,,,,,,,,,,,,,,,,,,,,,,,,,,,,,,,,,,,,,,,,,,,,,,,,,,,,,,,,,,,,,,,,,,,,,,,,,,,,,,,,,,,,,,,,,,,,,,,
,,5f80a6f92dac9e105a84b405,2024-02-18_20h14.18.421,kallum_motion_pilot,2023.2.2,Win32,144.9275362,5f80a6f92dac9e105a84b405,65d2b6c8f2eece985d8e374c,65d2b96fcf2bb0e35ac16fef,0.0162,0.0162,0,2,2,37,1,threefour,,,,,,,,,,,,,,,,,,,,,,,,,,,,,,,,,,,,,,,,,,,,,,,,,,,,,,,,,,,,,,,,,,,,,,,,,,,,,,,,,,,,,,,,,,,,,,,,,,,,,,,,,,,,,,,,,,,,,,,,,,,,,,,,,,,,,,,,,
,,5f80a6f92dac9e105a84b405,2024-02-18_20h14.18.421,kallum_motion_pilot,2023.2.2,Win32,144.9275362,5f80a6f92dac9e105a84b405,65d2b6c8f2eece985d8e374c,65d2b96fcf2bb0e35ac16fef,0.0162,0.0164,0,3,3,158,1,eightsix,,,,,,,,,,,,,,,,,,,,,,,,,,,,,,,,,,,,,,,,,,,,,,,,,,,,,,,,,,,,,,,,,,,,,,,,,,,,,,,,,,,,,,,,,,,,,,,,,,,,,,,,,,,,,,,,,,,,,,,,,,,,,,,,,,,,,,,,,
,,5f80a6f92dac9e105a84b405,2024-02-18_20h14.18.421,kallum_motion_pilot,2023.2.2,Win32,144.9275362,5f80a6f92dac9e105a84b405,65d2b6c8f2eece985d8e374c,65d2b96fcf2bb0e35ac16fef,0.0164,0.0164,0,4,4,135,1,eightseven,,,,,,,,,,,,,,,,,,,,,,,,,,,,,,,,,,,,,,,,,,,,,,,,,,,,,,,,,,,,,,,,,,,,,,,,,,,,,,,,,,,,,,,,,,,,,,,,,,,,,,,,,,,,,,,,,,,,,,,,,,,,,,,,,,,,,,,,,
,,5f80a6f92dac9e105a84b405,2024-02-18_20h14.18.421,kallum_motion_pilot,2023.2.2,Win32,144.9275362,5f80a6f92dac9e105a84b405,65d2b6c8f2eece985d8e374c,65d2b96fcf2bb0e35ac16fef,0.0165,0.0165,0,5,5,12,1,threeone,,,,,,,,,,,,,,,,,,,,,,,,,,,,,,,,,,,,,,,,,,,,,,,,,,,,,,,,,,,,,,,,,,,,,,,,,,,,,,,,,,,,,,,,,,,,,,,,,,,,,,,,,,,,,,,,,,,,,,,,,,,,,,,,,,,,,,,,,
,,5f80a6f92dac9e105a84b405,2024-02-18_20h14.18.421,kallum_motion_pilot,2023.2.2,Win32,144.9275362,5f80a6f92dac9e105a84b405,65d2b6c8f2eece985d8e374c,65d2b96fcf2bb0e35ac16fef,0.0166,0.0166,0,6,6,107,1,sixeight,,,,,,,,,,,,,,,,,,,,,,,,,,,,,,,,,,,,,,,,,,,,,,,,,,,,,,,,,,,,,,,,,,,,,,,,,,,,,,,,,,,,,,,,,,,,,,,,,,,,,,,,,,,,,,,,,,,,,,,,,,,,,,,,,,,,,,,,,
,,5f80a6f92dac9e105a84b405,2024-02-18_20h14.18.421,kallum_motion_pilot,2023.2.2,Win32,144.9275362,5f80a6f92dac9e105a84b405,65d2b6c8f2eece985d8e374c,65d2b96fcf2bb0e35ac16fef,0.0167,0.0167,0,7,7,79,1,eightseven,,,,,,,,,,,,,,,,,,,,,,,,,,,,,,,,,,,,,,,,,,,,,,,,,,,,,,,,,,,,,,,,,,,,,,,,,,,,,,,,,,,,,,,,,,,,,,,,,,,,,,,,,,,,,,,,,,,,,,,,,,,,,,,,,,,,,,,,,
,,5f80a6f92dac9e105a84b405,2024-02-18_20h14.18.421,kallum_motion_pilot,2023.2.2,Win32,144.9275362,5f80a6f92dac9e105a84b405,65d2b6c8f2eece985d8e374c,65d2b96fcf2bb0e35ac16fef,0.0167,0.0168,0,8,8,74,1,twoone,,,,,,,,,,,,,,,,,,,,,,,,,,,,,,,,,,,,,,,,,,,,,,,,,,,,,,,,,,,,,,,,,,,,,,,,,,,,,,,,,,,,,,,,,,,,,,,,,,,,,,,,,,,,,,,,,,,,,,,,,,,,,,,,,,,,,,,,,
,,5f80a6f92dac9e105a84b405,2024-02-18_20h14.18.421,kallum_motion_pilot,2023.2.2,Win32,144.9275362,5f80a6f92dac9e105a84b405,65d2b6c8f2eece985d8e374c,65d2b96fcf2bb0e35ac16fef,0.0169,0.0169,0,9,9,120,1,fivesix,,,,,,,,,,,,,,,,,,,,,,,,,,,,,,,,,,,,,,,,,,,,,,,,,,,,,,,,,,,,,,,,,,,,,,,,,,,,,,,,,,,,,,,,,,,,,,,,,,,,,,,,,,,,,,,,,,,,,,,,,,,,,,,,,,,,,,,,,
,,5f80a6f92dac9e105a84b405,2024-02-18_20h14.18.421,kallum_motion_pilot,2023.2.2,Win32,144.9275362,5f80a6f92dac9e105a84b405,65d2b6c8f2eece985d8e374c,65d2b96fcf2bb0e35ac16fef,0.017,0.017,0,10,10,93,1,seveneight,,,,,,,,,,,,,,,,,,,,,,,,,,,,,,,,,,,,,,,,,,,,,,,,,,,,,,,,,,,,,,,,,,,,,,,,,,,,,,,,,,,,,,,,,,,,,,,,,,,,,,,,,,,,,,,,,,,,,,,,,,,,,,,,,,,,,,,,,
,,5f80a6f92dac9e105a84b405,2024-02-18_20h14.18.421,kallum_motion_pilot,2023.2.2,Win32,144.9275362,5f80a6f92dac9e105a84b405,65d2b6c8f2eece985d8e374c,65d2b96fcf2bb0e35ac16fef,0.017,0.0171,0,11,11,83,1,sixeight,,,,,,,,,,,,,,,,,,,,,,,,,,,,,,,,,,,,,,,,,,,,,,,,,,,,,,,,,,,,,,,,,,,,,,,,,,,,,,,,,,,,,,,,,,,,,,,,,,,,,,,,,,,,,,,,,,,,,,,,,,,,,,,,,,,,,,,,,
,,5f80a6f92dac9e105a84b405,2024-02-18_20h14.18.421,kallum_motion_pilot,2023.2.2,Win32,144.9275362,5f80a6f92dac9e105a84b405,65d2b6c8f2eece985d8e374c,65d2b96fcf2bb0e35ac16fef,0.0171,0.0171,0,12,12,63,1,fourthree,,,,,,,,,,,,,,,,,,,,,,,,,,,,,,,,,,,,,,,,,,,,,,,,,,,,,,,,,,,,,,,,,,,,,,,,,,,,,,,,,,,,,,,,,,,,,,,,,,,,,,,,,,,,,,,,,,,,,,,,,,,,,,,,,,,,,,,,,
,,5f80a6f92dac9e105a84b405,2024-02-18_20h14.18.421,kallum_motion_pilot,2023.2.2,Win32,144.9275362,5f80a6f92dac9e105a84b405,65d2b6c8f2eece985d8e374c,65d2b96fcf2bb0e35ac16fef,0.0171,0.0172,0,13,13,143,1,eightseven,,,,,,,,,,,,,,,,,,,,,,,,,,,,,,,,,,,,,,,,,,,,,,,,,,,,,,,,,,,,,,,,,,,,,,,,,,,,,,,,,,,,,,,,,,,,,,,,,,,,,,,,,,,,,,,,,,,,,,,,,,,,,,,,,,,,,,,,,
,,5f80a6f92dac9e105a84b405,2024-02-18_20h14.18.421,kallum_motion_pilot,2023.2.2,Win32,144.9275362,5f80a6f92dac9e105a84b405,65d2b6c8f2eece985d8e374c,65d2b96fcf2bb0e35ac16fef,0.0173,0.0173,0,14,14,30,1,fourtwo,,,,,,,,,,,,,,,,,,,,,,,,,,,,,,,,,,,,,,,,,,,,,,,,,,,,,,,,,,,,,,,,,,,,,,,,,,,,,,,,,,,,,,,,,,,,,,,,,,,,,,,,,,,,,,,,,,,,,,,,,,,,,,,,,,,,,,,,,
,,5f80a6f92dac9e105a84b405,2024-02-18_20h14.18.421,kallum_motion_pilot,2023.2.2,Win32,144.9275362,5f80a6f92dac9e105a84b405,65d2b6c8f2eece985d8e374c,65d2b96fcf2bb0e35ac16fef,0.0174,0.0174,0,15,15,23,1,fourthree,,,,,,,,,,,,,,,,,,,,,,,,,,,,,,,,,,,,,,,,,,,,,,,,,,,,,,,,,,,,,,,,,,,,,,,,,,,,,,,,,,,,,,,,,,,,,,,,,,,,,,,,,,,,,,,,,,,,,,,,,,,,,,,,,,,,,,,,,
,,5f80a6f92dac9e105a84b405,2024-02-18_20h14.18.421,kallum_motion_pilot,2023.2.2,Win32,144.9275362,5f80a6f92dac9e105a84b405,65d2b6c8f2eece985d8e374c,65d2b96fcf2bb0e35ac16fef,0.0174,0.0174,0,16,16,59,1,twofour,,,,,,,,,,,,,,,,,,,,,,,,,,,,,,,,,,,,,,,,,,,,,,,,,,,,,,,,,,,,,,,,,,,,,,,,,,,,,,,,,,,,,,,,,,,,,,,,,,,,,,,,,,,,,,,,,,,,,,,,,,,,,,,,,,,,,,,,,
,,5f80a6f92dac9e105a84b405,2024-02-18_20h14.18.421,kallum_motion_pilot,2023.2.2,Win32,144.9275362,5f80a6f92dac9e105a84b405,65d2b6c8f2eece985d8e374c,65d2b96fcf2bb0e35ac16fef,0.0175,0.0175,0,17,17,13,1,threefour,,,,,,,,,,,,,,,,,,,,,,,,,,,,,,,,,,,,,,,,,,,,,,,,,,,,,,,,,,,,,,,,,,,,,,,,,,,,,,,,,,,,,,,,,,,,,,,,,,,,,,,,,,,,,,,,,,,,,,,,,,,,,,,,,,,,,,,,,
,,5f80a6f92dac9e105a84b405,2024-02-18_20h14.18.421,kallum_motion_pilot,2023.2.2,Win32,144.9275362,5f80a6f92dac9e105a84b405,65d2b6c8f2eece985d8e374c,65d2b96fcf2bb0e35ac16fef,0.0175,0.0176,0,18,18,151,1,eightseven,,,,,,,,,,,,,,,,,,,,,,,,,,,,,,,,,,,,,,,,,,,,,,,,,,,,,,,,,,,,,,,,,,,,,,,,,,,,,,,,,,,,,,,,,,,,,,,,,,,,,,,,,,,,,,,,,,,,,,,,,,,,,,,,,,,,,,,,,
,,5f80a6f92dac9e105a84b405,2024-02-18_20h14.18.421,kallum_motion_pilot,2023.2.2,Win32,144.9275362,5f80a6f92dac9e105a84b405,65d2b6c8f2eece985d8e374c,65d2b96fcf2bb0e35ac16fef,0.0176,0.0177,0,19,19,161,1,fiveseven,,,,,,,,,,,,,,,,,,,,,,,,,,,,,,,,,,,,,,,,,,,,,,,,,,,,,,,,,,,,,,,,,,,,,,,,,,,,,,,,,,,,,,,,,,,,,,,,,,,,,,,,,,,,,,,,,,,,,,,,,,,,,,,,,,,,,,,,,
,,5f80a6f92dac9e105a84b405,2024-02-18_20h14.18.421,kallum_motion_pilot,2023.2.2,Win32,144.9275362,5f80a6f92dac9e105a84b405,65d2b6c8f2eece985d8e374c,65d2b96fcf2bb0e35ac16fef,0.0178,0.0178,0,20,20,73,1,onethree,,,,,,,,,,,,,,,,,,,,,,,,,,,,,,,,,,,,,,,,,,,,,,,,,,,,,,,,,,,,,,,,,,,,,,,,,,,,,,,,,,,,,,,,,,,,,,,,,,,,,,,,,,,,,,,,,,,,,,,,,,,,,,,,,,,,,,,,,
,,5f80a6f92dac9e105a84b405,2024-02-18_20h14.18.421,kallum_motion_pilot,2023.2.2,Win32,144.9275362,5f80a6f92dac9e105a84b405,65d2b6c8f2eece985d8e374c,65d2b96fcf2bb0e35ac16fef,0.0178,0.0178,0,21,21,15,1,fourthree,,,,,,,,,,,,,,,,,,,,,,,,,,,,,,,,,,,,,,,,,,,,,,,,,,,,,,,,,,,,,,,,,,,,,,,,,,,,,,,,,,,,,,,,,,,,,,,,,,,,,,,,,,,,,,,,,,,,,,,,,,,,,,,,,,,,,,,,,
,,5f80a6f92dac9e105a84b405,2024-02-18_20h14.18.421,kallum_motion_pilot,2023.2.2,Win32,144.9275362,5f80a6f92dac9e105a84b405,65d2b6c8f2eece985d8e374c,65d2b96fcf2bb0e35ac16fef,0.0179,0.0179,0,22,22,115,1,sixeight,,,,,,,,,,,,,,,,,,,,,,,,,,,,,,,,,,,,,,,,,,,,,,,,,,,,,,,,,,,,,,,,,,,,,,,,,,,,,,,,,,,,,,,,,,,,,,,,,,,,,,,,,,,,,,,,,,,,,,,,,,,,,,,,,,,,,,,,,
,,5f80a6f92dac9e105a84b405,2024-02-18_20h14.18.421,kallum_motion_pilot,2023.2.2,Win32,144.9275362,5f80a6f92dac9e105a84b405,65d2b6c8f2eece985d8e374c,65d2b96fcf2bb0e35ac16fef,0.018,0.018,0,23,23,88,1,fivesix,,,,,,,,,,,,,,,,,,,,,,,,,,,,,,,,,,,,,,,,,,,,,,,,,,,,,,,,,,,,,,,,,,,,,,,,,,,,,,,,,,,,,,,,,,,,,,,,,,,,,,,,,,,,,,,,,,,,,,,,,,,,,,,,,,,,,,,,,
,,5f80a6f92dac9e105a84b405,2024-02-18_20h14.18.421,kallum_motion_pilot,2023.2.2,Win32,144.9275362,5f80a6f92dac9e105a84b405,65d2b6c8f2eece985d8e374c,65d2b96fcf2bb0e35ac16fef,0.0181,0.0181,0,24,24,3,1,twofour,,,,,,,,,,,,,,,,,,,,,,,,,,,,,,,,,,,,,,,,,,,,,,,,,,,,,,,,,,,,,,,,,,,,,,,,,,,,,,,,,,,,,,,,,,,,,,,,,,,,,,,,,,,,,,,,,,,,,,,,,,,,,,,,,,,,,,,,,
,,5f80a6f92dac9e105a84b405,2024-02-18_20h14.18.421,kallum_motion_pilot,2023.2.2,Win32,144.9275362,5f80a6f92dac9e105a84b405,65d2b6c8f2eece985d8e374c,65d2b96fcf2bb0e35ac16fef,0.0181,0.0182,0,25,25,50,1,twoone,,,,,,,,,,,,,,,,,,,,,,,,,,,,,,,,,,,,,,,,,,,,,,,,,,,,,,,,,,,,,,,,,,,,,,,,,,,,,,,,,,,,,,,,,,,,,,,,,,,,,,,,,,,,,,,,,,,,,,,,,,,,,,,,,,,,,,,,,
,,5f80a6f92dac9e105a84b405,2024-02-18_20h14.18.421,kallum_motion_pilot,2023.2.2,Win32,144.9275362,5f80a6f92dac9e105a84b405,65d2b6c8f2eece985d8e374c,65d2b96fcf2bb0e35ac16fef,0.0182,0.0183,0,26,26,109,1,seveneight,,,,,,,,,,,,,,,,,,,,,,,,,,,,,,,,,,,,,,,,,,,,,,,,,,,,,,,,,,,,,,,,,,,,,,,,,,,,,,,,,,,,,,,,,,,,,,,,,,,,,,,,,,,,,,,,,,,,,,,,,,,,,,,,,,,,,,,,,
,,5f80a6f92dac9e105a84b405,2024-02-18_20h14.18.421,kallum_motion_pilot,2023.2.2,Win32,144.9275362,5f80a6f92dac9e105a84b405,65d2b6c8f2eece985d8e374c,65d2b96fcf2bb0e35ac16fef,0.0183,0.0184,0,27,27,100,1,sevenfive,,,,,,,,,,,,,,,,,,,,,,,,,,,,,,,,,,,,,,,,,,,,,,,,,,,,,,,,,,,,,,,,,,,,,,,,,,,,,,,,,,,,,,,,,,,,,,,,,,,,,,,,,,,,,,,,,,,,,,,,,,,,,,,,,,,,,,,,,
,,5f80a6f92dac9e105a84b405,2024-02-18_20h14.18.421,kallum_motion_pilot,2023.2.2,Win32,144.9275362,5f80a6f92dac9e105a84b405,65d2b6c8f2eece985d8e374c,65d2b96fcf2bb0e35ac16fef,0.0184,0.0184,0,28,28,129,1,fiveseven,,,,,,,,,,,,,,,,,,,,,,,,,,,,,,,,,,,,,,,,,,,,,,,,,,,,,,,,,,,,,,,,,,,,,,,,,,,,,,,,,,,,,,,,,,,,,,,,,,,,,,,,,,,,,,,,,,,,,,,,,,,,,,,,,,,,,,,,,
,,5f80a6f92dac9e105a84b405,2024-02-18_20h14.18.421,kallum_motion_pilot,2023.2.2,Win32,144.9275362,5f80a6f92dac9e105a84b405,65d2b6c8f2eece985d8e374c,65d2b96fcf2bb0e35ac16fef,0.0185,0.0185,0,29,29,108,1,sevenfive,,,,,,,,,,,,,,,,,,,,,,,,,,,,,,,,,,,,,,,,,,,,,,,,,,,,,,,,,,,,,,,,,,,,,,,,,,,,,,,,,,,,,,,,,,,,,,,,,,,,,,,,,,,,,,,,,,,,,,,,,,,,,,,,,,,,,,,,,
,,5f80a6f92dac9e105a84b405,2024-02-18_20h14.18.421,kallum_motion_pilot,2023.2.2,Win32,144.9275362,5f80a6f92dac9e105a84b405,65d2b6c8f2eece985d8e374c,65d2b96fcf2bb0e35ac16fef,0.0186,0.0186,0,30,30,99,1,sixeight,,,,,,,,,,,,,,,,,,,,,,,,,,,,,,,,,,,,,,,,,,,,,,,,,,,,,,,,,,,,,,,,,,,,,,,,,,,,,,,,,,,,,,,,,,,,,,,,,,,,,,,,,,,,,,,,,,,,,,,,,,,,,,,,,,,,,,,,,
,,5f80a6f92dac9e105a84b405,2024-02-18_20h14.18.421,kallum_motion_pilot,2023.2.2,Win32,144.9275362,5f80a6f92dac9e105a84b405,65d2b6c8f2eece985d8e374c,65d2b96fcf2bb0e35ac16fef,0.0187,0.0187,0,31,31,134,1,eightsix,,,,,,,,,,,,,,,,,,,,,,,,,,,,,,,,,,,,,,,,,,,,,,,,,,,,,,,,,,,,,,,,,,,,,,,,,,,,,,,,,,,,,,,,,,,,,,,,,,,,,,,,,,,,,,,,,,,,,,,,,,,,,,,,,,,,,,,,,
,,5f80a6f92dac9e105a84b405,2024-02-18_20h14.18.421,kallum_motion_pilot,2023.2.2,Win32,144.9275362,5f80a6f92dac9e105a84b405,65d2b6c8f2eece985d8e374c,65d2b96fcf2bb0e35ac16fef,0.0187,0.0187,0,32,32,76,1,threeone,,,,,,,,,,,,,,,,,,,,,,,,,,,,,,,,,,,,,,,,,,,,,,,,,,,,,,,,,,,,,,,,,,,,,,,,,,,,,,,,,,,,,,,,,,,,,,,,,,,,,,,,,,,,,,,,,,,,,,,,,,,,,,,,,,,,,,,,,
,,5f80a6f92dac9e105a84b405,2024-02-18_20h14.18.421,kallum_motion_pilot,2023.2.2,Win32,144.9275362,5f80a6f92dac9e105a84b405,65d2b6c8f2eece985d8e374c,65d2b96fcf2bb0e35ac16fef,0.0187,0.0187,0,33,33,33,1,onethree,,,,,,,,,,,,,,,,,,,,,,,,,,,,,,,,,,,,,,,,,,,,,,,,,,,,,,,,,,,,,,,,,,,,,,,,,,,,,,,,,,,,,,,,,,,,,,,,,,,,,,,,,,,,,,,,,,,,,,,,,,,,,,,,,,,,,,,,,
,,5f80a6f92dac9e105a84b405,2024-02-18_20h14.18.421,kallum_motion_pilot,2023.2.2,Win32,144.9275362,5f80a6f92dac9e105a84b405,65d2b6c8f2eece985d8e374c,65d2b96fcf2bb0e35ac16fef,0.0189,0.0189,0,34,34,145,1,fiveseven,,,,,,,,,,,,,,,,,,,,,,,,,,,,,,,,,,,,,,,,,,,,,,,,,,,,,,,,,,,,,,,,,,,,,,,,,,,,,,,,,,,,,,,,,,,,,,,,,,,,,,,,,,,,,,,,,,,,,,,,,,,,,,,,,,,,,,,,,
,,5f80a6f92dac9e105a84b405,2024-02-18_20h14.18.421,kallum_motion_pilot,2023.2.2,Win32,144.9275362,5f80a6f92dac9e105a84b405,65d2b6c8f2eece985d8e374c,65d2b96fcf2bb0e35ac16fef,0.019,0.019,0,35,35,16,1,onetwo,,,,,,,,,,,,,,,,,,,,,,,,,,,,,,,,,,,,,,,,,,,,,,,,,,,,,,,,,,,,,,,,,,,,,,,,,,,,,,,,,,,,,,,,,,,,,,,,,,,,,,,,,,,,,,,,,,,,,,,,,,,,,,,,,,,,,,,,,
,,5f80a6f92dac9e105a84b405,2024-02-18_20h14.18.421,kallum_motion_pilot,2023.2.2,Win32,144.9275362,5f80a6f92dac9e105a84b405,65d2b6c8f2eece985d8e374c,65d2b96fcf2bb0e35ac16fef,0.0191,0.0191,0,36,36,25,1,onethree,,,,,,,,,,,,,,,,,,,,,,,,,,,,,,,,,,,,,,,,,,,,,,,,,,,,,,,,,,,,,,,,,,,,,,,,,,,,,,,,,,,,,,,,,,,,,,,,,,,,,,,,,,,,,,,,,,,,,,,,,,,,,,,,,,,,,,,,,
,,5f80a6f92dac9e105a84b405,2024-02-18_20h14.18.421,kallum_motion_pilot,2023.2.2,Win32,144.9275362,5f80a6f92dac9e105a84b405,65d2b6c8f2eece985d8e374c,65d2b96fcf2bb0e35ac16fef,0.0191,0.0191,0,37,37,36,1,threeone,,,,,,,,,,,,,,,,,,,,,,,,,,,,,,,,,,,,,,,,,,,,,,,,,,,,,,,,,,,,,,,,,,,,,,,,,,,,,,,,,,,,,,,,,,,,,,,,,,,,,,,,,,,,,,,,,,,,,,,,,,,,,,,,,,,,,,,,,
,,5f80a6f92dac9e105a84b405,2024-02-18_20h14.18.421,kallum_motion_pilot,2023.2.2,Win32,144.9275362,5f80a6f92dac9e105a84b405,65d2b6c8f2eece985d8e374c,65d2b96fcf2bb0e35ac16fef,0.0191,0.0192,0,38,38,148,1,sevenfive,,,,,,,,,,,,,,,,,,,,,,,,,,,,,,,,,,,,,,,,,,,,,,,,,,,,,,,,,,,,,,,,,,,,,,,,,,,,,,,,,,,,,,,,,,,,,,,,,,,,,,,,,,,,,,,,,,,,,,,,,,,,,,,,,,,,,,,,,
,,5f80a6f92dac9e105a84b405,2024-02-18_20h14.18.421,kallum_motion_pilot,2023.2.2,Win32,144.9275362,5f80a6f92dac9e105a84b405,65d2b6c8f2eece985d8e374c,65d2b96fcf2bb0e35ac16fef,0.0192,0.0192,0,39,39,147,1,sixeight,,,,,,,,,,,,,,,,,,,,,,,,,,,,,,,,,,,,,,,,,,,,,,,,,,,,,,,,,,,,,,,,,,,,,,,,,,,,,,,,,,,,,,,,,,,,,,,,,,,,,,,,,,,,,,,,,,,,,,,,,,,,,,,,,,,,,,,,,
,,5f80a6f92dac9e105a84b405,2024-02-18_20h14.18.421,kallum_motion_pilot,2023.2.2,Win32,144.9275362,5f80a6f92dac9e105a84b405,65d2b6c8f2eece985d8e374c,65d2b96fcf2bb0e35ac16fef,0.0193,0.0194,0,40,40,6,1,fourtwo,,,,,,,,,,,,,,,,,,,,,,,,,,,,,,,,,,,,,,,,,,,,,,,,,,,,,,,,,,,,,,,,,,,,,,,,,,,,,,,,,,,,,,,,,,,,,,,,,,,,,,,,,,,,,,,,,,,,,,,,,,,,,,,,,,,,,,,,,
,,5f80a6f92dac9e105a84b405,2024-02-18_20h14.18.421,kallum_motion_pilot,2023.2.2,Win32,144.9275362,5f80a6f92dac9e105a84b405,65d2b6c8f2eece985d8e374c,65d2b96fcf2bb0e35ac16fef,0.0194,0.0195,0,41,41,40,1,onetwo,,,,,,,,,,,,,,,,,,,,,,,,,,,,,,,,,,,,,,,,,,,,,,,,,,,,,,,,,,,,,,,,,,,,,,,,,,,,,,,,,,,,,,,,,,,,,,,,,,,,,,,,,,,,,,,,,,,,,,,,,,,,,,,,,,,,,,,,,
,,5f80a6f92dac9e105a84b405,2024-02-18_20h14.18.421,kallum_motion_pilot,2023.2.2,Win32,144.9275362,5f80a6f92dac9e105a84b405,65d2b6c8f2eece985d8e374c,65d2b96fcf2bb0e35ac16fef,0.0195,0.0195,0,42,42,17,1,onethree,,,,,,,,,,,,,,,,,,,,,,,,,,,,,,,,,,,,,,,,,,,,,,,,,,,,,,,,,,,,,,,,,,,,,,,,,,,,,,,,,,,,,,,,,,,,,,,,,,,,,,,,,,,,,,,,,,,,,,,,,,,,,,,,,,,,,,,,,
,,5f80a6f92dac9e105a84b405,2024-02-18_20h14.18.421,kallum_motion_pilot,2023.2.2,Win32,144.9275362,5f80a6f92dac9e105a84b405,65d2b6c8f2eece985d8e374c,65d2b96fcf2bb0e35ac16fef,0.0195,0.0195,0,43,43,10,1,twoone,,,,,,,,,,,,,,,,,,,,,,,,,,,,,,,,,,,,,,,,,,,,,,,,,,,,,,,,,,,,,,,,,,,,,,,,,,,,,,,,,,,,,,,,,,,,,,,,,,,,,,,,,,,,,,,,,,,,,,,,,,,,,,,,,,,,,,,,,
,,5f80a6f92dac9e105a84b405,2024-02-18_20h14.18.421,kallum_motion_pilot,2023.2.2,Win32,144.9275362,5f80a6f92dac9e105a84b405,65d2b6c8f2eece985d8e374c,65d2b96fcf2bb0e35ac16fef,0.0196,0.0197,0,44,44,85,1,seveneight,,,,,,,,,,,,,,,,,,,,,,,,,,,,,,,,,,,,,,,,,,,,,,,,,,,,,,,,,,,,,,,,,,,,,,,,,,,,,,,,,,,,,,,,,,,,,,,,,,,,,,,,,,,,,,,,,,,,,,,,,,,,,,,,,,,,,,,,,
,,5f80a6f92dac9e105a84b405,2024-02-18_20h14.18.421,kallum_motion_pilot,2023.2.2,Win32,144.9275362,5f80a6f92dac9e105a84b405,65d2b6c8f2eece985d8e374c,65d2b96fcf2bb0e35ac16fef,0.0197,0.0197,0,45,45,29,1,threefour,,,,,,,,,,,,,,,,,,,,,,,,,,,,,,,,,,,,,,,,,,,,,,,,,,,,,,,,,,,,,,,,,,,,,,,,,,,,,,,,,,,,,,,,,,,,,,,,,,,,,,,,,,,,,,,,,,,,,,,,,,,,,,,,,,,,,,,,,
,,5f80a6f92dac9e105a84b405,2024-02-18_20h14.18.421,kallum_motion_pilot,2023.2.2,Win32,144.9275362,5f80a6f92dac9e105a84b405,65d2b6c8f2eece985d8e374c,65d2b96fcf2bb0e35ac16fef,0.0198,0.0198,0,46,46,48,1,onetwo,,,,,,,,,,,,,,,,,,,,,,,,,,,,,,,,,,,,,,,,,,,,,,,,,,,,,,,,,,,,,,,,,,,,,,,,,,,,,,,,,,,,,,,,,,,,,,,,,,,,,,,,,,,,,,,,,,,,,,,,,,,,,,,,,,,,,,,,,
,,5f80a6f92dac9e105a84b405,2024-02-18_20h14.18.421,kallum_motion_pilot,2023.2.2,Win32,144.9275362,5f80a6f92dac9e105a84b405,65d2b6c8f2eece985d8e374c,65d2b96fcf2bb0e35ac16fef,0.0198,0.0198,0,47,47,156,1,sevenfive,,,,,,,,,,,,,,,,,,,,,,,,,,,,,,,,,,,,,,,,,,,,,,,,,,,,,,,,,,,,,,,,,,,,,,,,,,,,,,,,,,,,,,,,,,,,,,,,,,,,,,,,,,,,,,,,,,,,,,,,,,,,,,,,,,,,,,,,,
,,5f80a6f92dac9e105a84b405,2024-02-18_20h14.18.421,kallum_motion_pilot,2023.2.2,Win32,144.9275362,5f80a6f92dac9e105a84b405,65d2b6c8f2eece985d8e374c,65d2b96fcf2bb0e35ac16fef,0.02,0.02,0,48,48,97,1,fiveseven,,,,,,,,,,,,,,,,,,,,,,,,,,,,,,,,,,,,,,,,,,,,,,,,,,,,,,,,,,,,,,,,,,,,,,,,,,,,,,,,,,,,,,,,,,,,,,,,,,,,,,,,,,,,,,,,,,,,,,,,,,,,,,,,,,,,,,,,,
,,5f80a6f92dac9e105a84b405,2024-02-18_20h14.18.421,kallum_motion_pilot,2023.2.2,Win32,144.9275362,5f80a6f92dac9e105a84b405,65d2b6c8f2eece985d8e374c,65d2b96fcf2bb0e35ac16fef,0.02,0.02,0,49,49,32,1,onetwo,,,,,,,,,,,,,,,,,,,,,,,,,,,,,,,,,,,,,,,,,,,,,,,,,,,,,,,,,,,,,,,,,,,,,,,,,,,,,,,,,,,,,,,,,,,,,,,,,,,,,,,,,,,,,,,,,,,,,,,,,,,,,,,,,,,,,,,,,
,,5f80a6f92dac9e105a84b405,2024-02-18_20h14.18.421,kallum_motion_pilot,2023.2.2,Win32,144.9275362,5f80a6f92dac9e105a84b405,65d2b6c8f2eece985d8e374c,65d2b96fcf2bb0e35ac16fef,0.0211,0.0211,0,50,50,112,1,fivesix,,,,,,,,,,,,,,,,,,,,,,,,,,,,,,,,,,,,,,,,,,,,,,,,,,,,,,,,,,,,,,,,,,,,,,,,,,,,,,,,,,,,,,,,,,,,,,,,,,,,,,,,,,,,,,,,,,,,,,,,,,,,,,,,,,,,,,,,,
,,5f80a6f92dac9e105a84b405,2024-02-18_20h14.18.421,kallum_motion_pilot,2023.2.2,Win32,144.9275362,5f80a6f92dac9e105a84b405,65d2b6c8f2eece985d8e374c,65d2b96fcf2bb0e35ac16fef,0.0211,0.0211,0,51,51,55,1,fourthree,,,,,,,,,,,,,,,,,,,,,,,,,,,,,,,,,,,,,,,,,,,,,,,,,,,,,,,,,,,,,,,,,,,,,,,,,,,,,,,,,,,,,,,,,,,,,,,,,,,,,,,,,,,,,,,,,,,,,,,,,,,,,,,,,,,,,,,,,
,,5f80a6f92dac9e105a84b405,2024-02-18_20h14.18.421,kallum_motion_pilot,2023.2.2,Win32,144.9275362,5f80a6f92dac9e105a84b405,65d2b6c8f2eece985d8e374c,65d2b96fcf2bb0e35ac16fef,0.0212,0.0212,0,52,52,41,1,onethree,,,,,,,,,,,,,,,,,,,,,,,,,,,,,,,,,,,,,,,,,,,,,,,,,,,,,,,,,,,,,,,,,,,,,,,,,,,,,,,,,,,,,,,,,,,,,,,,,,,,,,,,,,,,,,,,,,,,,,,,,,,,,,,,,,,,,,,,,
,,5f80a6f92dac9e105a84b405,2024-02-18_20h14.18.421,kallum_motion_pilot,2023.2.2,Win32,144.9275362,5f80a6f92dac9e105a84b405,65d2b6c8f2eece985d8e374c,65d2b96fcf2bb0e35ac16fef,0.0213,0.0213,0,53,53,60,1,threeone,,,,,,,,,,,,,,,,,,,,,,,,,,,,,,,,,,,,,,,,,,,,,,,,,,,,,,,,,,,,,,,,,,,,,,,,,,,,,,,,,,,,,,,,,,,,,,,,,,,,,,,,,,,,,,,,,,,,,,,,,,,,,,,,,,,,,,,,,
,,5f80a6f92dac9e105a84b405,2024-02-18_20h14.18.421,kallum_motion_pilot,2023.2.2,Win32,144.9275362,5f80a6f92dac9e105a84b405,65d2b6c8f2eece985d8e374c,65d2b96fcf2bb0e35ac16fef,0.0214,0.0215,0,54,54,159,1,eightseven,,,,,,,,,,,,,,,,,,,,,,,,,,,,,,,,,,,,,,,,,,,,,,,,,,,,,,,,,,,,,,,,,,,,,,,,,,,,,,,,,,,,,,,,,,,,,,,,,,,,,,,,,,,,,,,,,,,,,,,,,,,,,,,,,,,,,,,,,
,,5f80a6f92dac9e105a84b405,2024-02-18_20h14.18.421,kallum_motion_pilot,2023.2.2,Win32,144.9275362,5f80a6f92dac9e105a84b405,65d2b6c8f2eece985d8e374c,65d2b96fcf2bb0e35ac16fef,0.0215,0.0215,0,55,55,153,1,fiveseven,,,,,,,,,,,,,,,,,,,,,,,,,,,,,,,,,,,,,,,,,,,,,,,,,,,,,,,,,,,,,,,,,,,,,,,,,,,,,,,,,,,,,,,,,,,,,,,,,,,,,,,,,,,,,,,,,,,,,,,,,,,,,,,,,,,,,,,,,
,,5f80a6f92dac9e105a84b405,2024-02-18_20h14.18.421,kallum_motion_pilot,2023.2.2,Win32,144.9275362,5f80a6f92dac9e105a84b405,65d2b6c8f2eece985d8e374c,65d2b96fcf2bb0e35ac16fef,0.0215,0.0216,0,56,56,66,1,twoone,,,,,,,,,,,,,,,,,,,,,,,,,,,,,,,,,,,,,,,,,,,,,,,,,,,,,,,,,,,,,,,,,,,,,,,,,,,,,,,,,,,,,,,,,,,,,,,,,,,,,,,,,,,,,,,,,,,,,,,,,,,,,,,,,,,,,,,,,
,,5f80a6f92dac9e105a84b405,2024-02-18_20h14.18.421,kallum_motion_pilot,2023.2.2,Win32,144.9275362,5f80a6f92dac9e105a84b405,65d2b6c8f2eece985d8e374c,65d2b96fcf2bb0e35ac16fef,0.0217,0.0217,0,57,57,98,1,sixfive,,,,,,,,,,,,,,,,,,,,,,,,,,,,,,,,,,,,,,,,,,,,,,,,,,,,,,,,,,,,,,,,,,,,,,,,,,,,,,,,,,,,,,,,,,,,,,,,,,,,,,,,,,,,,,,,,,,,,,,,,,,,,,,,,,,,,,,,,
,,5f80a6f92dac9e105a84b405,2024-02-18_20h14.18.421,kallum_motion_pilot,2023.2.2,Win32,144.9275362,5f80a6f92dac9e105a84b405,65d2b6c8f2eece985d8e374c,65d2b96fcf2bb0e35ac16fef,0.0217,0.0217,0,58,58,94,1,eightsix,,,,,,,,,,,,,,,,,,,,,,,,,,,,,,,,,,,,,,,,,,,,,,,,,,,,,,,,,,,,,,,,,,,,,,,,,,,,,,,,,,,,,,,,,,,,,,,,,,,,,,,,,,,,,,,,,,,,,,,,,,,,,,,,,,,,,,,,,
,,5f80a6f92dac9e105a84b405,2024-02-18_20h14.18.421,kallum_motion_pilot,2023.2.2,Win32,144.9275362,5f80a6f92dac9e105a84b405,65d2b6c8f2eece985d8e374c,65d2b96fcf2bb0e35ac16fef,0.0218,0.0218,0,59,59,142,1,eightsix,,,,,,,,,,,,,,,,,,,,,,,,,,,,,,,,,,,,,,,,,,,,,,,,,,,,,,,,,,,,,,,,,,,,,,,,,,,,,,,,,,,,,,,,,,,,,,,,,,,,,,,,,,,,,,,,,,,,,,,,,,,,,,,,,,,,,,,,,
,,5f80a6f92dac9e105a84b405,2024-02-18_20h14.18.421,kallum_motion_pilot,2023.2.2,Win32,144.9275362,5f80a6f92dac9e105a84b405,65d2b6c8f2eece985d8e374c,65d2b96fcf2bb0e35ac16fef,0.0218,0.0218,0,60,60,127,1,eightseven,,,,,,,,,,,,,,,,,,,,,,,,,,,,,,,,,,,,,,,,,,,,,,,,,,,,,,,,,,,,,,,,,,,,,,,,,,,,,,,,,,,,,,,,,,,,,,,,,,,,,,,,,,,,,,,,,,,,,,,,,,,,,,,,,,,,,,,,,
,,5f80a6f92dac9e105a84b405,2024-02-18_20h14.18.421,kallum_motion_pilot,2023.2.2,Win32,144.9275362,5f80a6f92dac9e105a84b405,65d2b6c8f2eece985d8e374c,65d2b96fcf2bb0e35ac16fef,0.0219,0.0219,0,61,61,18,1,twoone,,,,,,,,,,,,,,,,,,,,,,,,,,,,,,,,,,,,,,,,,,,,,,,,,,,,,,,,,,,,,,,,,,,,,,,,,,,,,,,,,,,,,,,,,,,,,,,,,,,,,,,,,,,,,,,,,,,,,,,,,,,,,,,,,,,,,,,,,
,,5f80a6f92dac9e105a84b405,2024-02-18_20h14.18.421,kallum_motion_pilot,2023.2.2,Win32,144.9275362,5f80a6f92dac9e105a84b405,65d2b6c8f2eece985d8e374c,65d2b96fcf2bb0e35ac16fef,0.022,0.022,0,62,62,68,1,threeone,,,,,,,,,,,,,,,,,,,,,,,,,,,,,,,,,,,,,,,,,,,,,,,,,,,,,,,,,,,,,,,,,,,,,,,,,,,,,,,,,,,,,,,,,,,,,,,,,,,,,,,,,,,,,,,,,,,,,,,,,,,,,,,,,,,,,,,,,
,,5f80a6f92dac9e105a84b405,2024-02-18_20h14.18.421,kallum_motion_pilot,2023.2.2,Win32,144.9275362,5f80a6f92dac9e105a84b405,65d2b6c8f2eece985d8e374c,65d2b96fcf2bb0e35ac16fef,0.0221,0.0221,0,63,63,45,1,threefour,,,,,,,,,,,,,,,,,,,,,,,,,,,,,,,,,,,,,,,,,,,,,,,,,,,,,,,,,,,,,,,,,,,,,,,,,,,,,,,,,,,,,,,,,,,,,,,,,,,,,,,,,,,,,,,,,,,,,,,,,,,,,,,,,,,,,,,,,
,,5f80a6f92dac9e105a84b405,2024-02-18_20h14.18.421,kallum_motion_pilot,2023.2.2,Win32,144.9275362,5f80a6f92dac9e105a84b405,65d2b6c8f2eece985d8e374c,65d2b96fcf2bb0e35ac16fef,0.0222,0.0222,0,64,64,130,1,sixfive,,,,,,,,,,,,,,,,,,,,,,,,,,,,,,,,,,,,,,,,,,,,,,,,,,,,,,,,,,,,,,,,,,,,,,,,,,,,,,,,,,,,,,,,,,,,,,,,,,,,,,,,,,,,,,,,,,,,,,,,,,,,,,,,,,,,,,,,,
,,5f80a6f92dac9e105a84b405,2024-02-18_20h14.18.421,kallum_motion_pilot,2023.2.2,Win32,144.9275362,5f80a6f92dac9e105a84b405,65d2b6c8f2eece985d8e374c,65d2b96fcf2bb0e35ac16fef,0.0222,0.0222,0,65,65,67,1,twofour,,,,,,,,,,,,,,,,,,,,,,,,,,,,,,,,,,,,,,,,,,,,,,,,,,,,,,,,,,,,,,,,,,,,,,,,,,,,,,,,,,,,,,,,,,,,,,,,,,,,,,,,,,,,,,,,,,,,,,,,,,,,,,,,,,,,,,,,,
,,5f80a6f92dac9e105a84b405,2024-02-18_20h14.18.421,kallum_motion_pilot,2023.2.2,Win32,144.9275362,5f80a6f92dac9e105a84b405,65d2b6c8f2eece985d8e374c,65d2b96fcf2bb0e35ac16fef,0.0223,0.0223,0,66,66,54,1,fourtwo,,,,,,,,,,,,,,,,,,,,,,,,,,,,,,,,,,,,,,,,,,,,,,,,,,,,,,,,,,,,,,,,,,,,,,,,,,,,,,,,,,,,,,,,,,,,,,,,,,,,,,,,,,,,,,,,,,,,,,,,,,,,,,,,,,,,,,,,,
,,5f80a6f92dac9e105a84b405,2024-02-18_20h14.18.421,kallum_motion_pilot,2023.2.2,Win32,144.9275362,5f80a6f92dac9e105a84b405,65d2b6c8f2eece985d8e374c,65d2b96fcf2bb0e35ac16fef,0.0224,0.0224,0,67,67,42,1,twoone,,,,,,,,,,,,,,,,,,,,,,,,,,,,,,,,,,,,,,,,,,,,,,,,,,,,,,,,,,,,,,,,,,,,,,,,,,,,,,,,,,,,,,,,,,,,,,,,,,,,,,,,,,,,,,,,,,,,,,,,,,,,,,,,,,,,,,,,,
,,5f80a6f92dac9e105a84b405,2024-02-18_20h14.18.421,kallum_motion_pilot,2023.2.2,Win32,144.9275362,5f80a6f92dac9e105a84b405,65d2b6c8f2eece985d8e374c,65d2b96fcf2bb0e35ac16fef,0.0224,0.0225,0,68,68,106,1,sixfive,,,,,,,,,,,,,,,,,,,,,,,,,,,,,,,,,,,,,,,,,,,,,,,,,,,,,,,,,,,,,,,,,,,,,,,,,,,,,,,,,,,,,,,,,,,,,,,,,,,,,,,,,,,,,,,,,,,,,,,,,,,,,,,,,,,,,,,,,
,,5f80a6f92dac9e105a84b405,2024-02-18_20h14.18.421,kallum_motion_pilot,2023.2.2,Win32,144.9275362,5f80a6f92dac9e105a84b405,65d2b6c8f2eece985d8e374c,65d2b96fcf2bb0e35ac16fef,0.0225,0.0226,0,69,69,31,1,fourthree,,,,,,,,,,,,,,,,,,,,,,,,,,,,,,,,,,,,,,,,,,,,,,,,,,,,,,,,,,,,,,,,,,,,,,,,,,,,,,,,,,,,,,,,,,,,,,,,,,,,,,,,,,,,,,,,,,,,,,,,,,,,,,,,,,,,,,,,,
,,5f80a6f92dac9e105a84b405,2024-02-18_20h14.18.421,kallum_motion_pilot,2023.2.2,Win32,144.9275362,5f80a6f92dac9e105a84b405,65d2b6c8f2eece985d8e374c,65d2b96fcf2bb0e35ac16fef,0.0226,0.0226,0,70,70,104,1,fivesix,,,,,,,,,,,,,,,,,,,,,,,,,,,,,,,,,,,,,,,,,,,,,,,,,,,,,,,,,,,,,,,,,,,,,,,,,,,,,,,,,,,,,,,,,,,,,,,,,,,,,,,,,,,,,,,,,,,,,,,,,,,,,,,,,,,,,,,,,
,,5f80a6f92dac9e105a84b405,2024-02-18_20h14.18.421,kallum_motion_pilot,2023.2.2,Win32,144.9275362,5f80a6f92dac9e105a84b405,65d2b6c8f2eece985d8e374c,65d2b96fcf2bb0e35ac16fef,0.0227,0.0227,0,71,71,28,1,threeone,,,,,,,,,,,,,,,,,,,,,,,,,,,,,,,,,,,,,,,,,,,,,,,,,,,,,,,,,,,,,,,,,,,,,,,,,,,,,,,,,,,,,,,,,,,,,,,,,,,,,,,,,,,,,,,,,,,,,,,,,,,,,,,,,,,,,,,,,
,,5f80a6f92dac9e105a84b405,2024-02-18_20h14.18.421,kallum_motion_pilot,2023.2.2,Win32,144.9275362,5f80a6f92dac9e105a84b405,65d2b6c8f2eece985d8e374c,65d2b96fcf2bb0e35ac16fef,0.0228,0.0228,0,72,72,77,1,threefour,,,,,,,,,,,,,,,,,,,,,,,,,,,,,,,,,,,,,,,,,,,,,,,,,,,,,,,,,,,,,,,,,,,,,,,,,,,,,,,,,,,,,,,,,,,,,,,,,,,,,,,,,,,,,,,,,,,,,,,,,,,,,,,,,,,,,,,,,
,,5f80a6f92dac9e105a84b405,2024-02-18_20h14.18.421,kallum_motion_pilot,2023.2.2,Win32,144.9275362,5f80a6f92dac9e105a84b405,65d2b6c8f2eece985d8e374c,65d2b96fcf2bb0e35ac16fef,0.0228,0.0229,0,73,73,137,1,fiveseven,,,,,,,,,,,,,,,,,,,,,,,,,,,,,,,,,,,,,,,,,,,,,,,,,,,,,,,,,,,,,,,,,,,,,,,,,,,,,,,,,,,,,,,,,,,,,,,,,,,,,,,,,,,,,,,,,,,,,,,,,,,,,,,,,,,,,,,,,
,,5f80a6f92dac9e105a84b405,2024-02-18_20h14.18.421,kallum_motion_pilot,2023.2.2,Win32,144.9275362,5f80a6f92dac9e105a84b405,65d2b6c8f2eece985d8e374c,65d2b96fcf2bb0e35ac16fef,0.0229,0.0229,0,74,74,38,1,fourtwo,,,,,,,,,,,,,,,,,,,,,,,,,,,,,,,,,,,,,,,,,,,,,,,,,,,,,,,,,,,,,,,,,,,,,,,,,,,,,,,,,,,,,,,,,,,,,,,,,,,,,,,,,,,,,,,,,,,,,,,,,,,,,,,,,,,,,,,,,
,,5f80a6f92dac9e105a84b405,2024-02-18_20h14.18.421,kallum_motion_pilot,2023.2.2,Win32,144.9275362,5f80a6f92dac9e105a84b405,65d2b6c8f2eece985d8e374c,65d2b96fcf2bb0e35ac16fef,0.023,0.0231,0,75,75,46,1,fourtwo,,,,,,,,,,,,,,,,,,,,,,,,,,,,,,,,,,,,,,,,,,,,,,,,,,,,,,,,,,,,,,,,,,,,,,,,,,,,,,,,,,,,,,,,,,,,,,,,,,,,,,,,,,,,,,,,,,,,,,,,,,,,,,,,,,,,,,,,,
,,5f80a6f92dac9e105a84b405,2024-02-18_20h14.18.421,kallum_motion_pilot,2023.2.2,Win32,144.9275362,5f80a6f92dac9e105a84b405,65d2b6c8f2eece985d8e374c,65d2b96fcf2bb0e35ac16fef,0.0231,0.0231,0,76,76,110,1,eightsix,,,,,,,,,,,,,,,,,,,,,,,,,,,,,,,,,,,,,,,,,,,,,,,,,,,,,,,,,,,,,,,,,,,,,,,,,,,,,,,,,,,,,,,,,,,,,,,,,,,,,,,,,,,,,,,,,,,,,,,,,,,,,,,,,,,,,,,,,
,,5f80a6f92dac9e105a84b405,2024-02-18_20h14.18.421,kallum_motion_pilot,2023.2.2,Win32,144.9275362,5f80a6f92dac9e105a84b405,65d2b6c8f2eece985d8e374c,65d2b96fcf2bb0e35ac16fef,0.0232,0.0232,0,77,77,111,1,eightseven,,,,,,,,,,,,,,,,,,,,,,,,,,,,,,,,,,,,,,,,,,,,,,,,,,,,,,,,,,,,,,,,,,,,,,,,,,,,,,,,,,,,,,,,,,,,,,,,,,,,,,,,,,,,,,,,,,,,,,,,,,,,,,,,,,,,,,,,,
,,5f80a6f92dac9e105a84b405,2024-02-18_20h14.18.421,kallum_motion_pilot,2023.2.2,Win32,144.9275362,5f80a6f92dac9e105a84b405,65d2b6c8f2eece985d8e374c,65d2b96fcf2bb0e35ac16fef,0.0232,0.0232,0,78,78,133,1,seveneight,,,,,,,,,,,,,,,,,,,,,,,,,,,,,,,,,,,,,,,,,,,,,,,,,,,,,,,,,,,,,,,,,,,,,,,,,,,,,,,,,,,,,,,,,,,,,,,,,,,,,,,,,,,,,,,,,,,,,,,,,,,,,,,,,,,,,,,,,
,,5f80a6f92dac9e105a84b405,2024-02-18_20h14.18.421,kallum_motion_pilot,2023.2.2,Win32,144.9275362,5f80a6f92dac9e105a84b405,65d2b6c8f2eece985d8e374c,65d2b96fcf2bb0e35ac16fef,0.0233,0.0233,0,79,79,86,1,eightsix,,,,,,,,,,,,,,,,,,,,,,,,,,,,,,,,,,,,,,,,,,,,,,,,,,,,,,,,,,,,,,,,,,,,,,,,,,,,,,,,,,,,,,,,,,,,,,,,,,,,,,,,,,,,,,,,,,,,,,,,,,,,,,,,,,,,,,,,,
,,5f80a6f92dac9e105a84b405,2024-02-18_20h14.18.421,kallum_motion_pilot,2023.2.2,Win32,144.9275362,5f80a6f92dac9e105a84b405,65d2b6c8f2eece985d8e374c,65d2b96fcf2bb0e35ac16fef,0.0234,0.0234,0,80,80,89,1,fiveseven,,,,,,,,,,,,,,,,,,,,,,,,,,,,,,,,,,,,,,,,,,,,,,,,,,,,,,,,,,,,,,,,,,,,,,,,,,,,,,,,,,,,,,,,,,,,,,,,,,,,,,,,,,,,,,,,,,,,,,,,,,,,,,,,,,,,,,,,,
,,5f80a6f92dac9e105a84b405,2024-02-18_20h14.18.421,kallum_motion_pilot,2023.2.2,Win32,144.9275362,5f80a6f92dac9e105a84b405,65d2b6c8f2eece985d8e374c,65d2b96fcf2bb0e35ac16fef,0.0235,0.0235,0,81,81,5,1,threefour,,,,,,,,,,,,,,,,,,,,,,,,,,,,,,,,,,,,,,,,,,,,,,,,,,,,,,,,,,,,,,,,,,,,,,,,,,,,,,,,,,,,,,,,,,,,,,,,,,,,,,,,,,,,,,,,,,,,,,,,,,,,,,,,,,,,,,,,,
,,5f80a6f92dac9e105a84b405,2024-02-18_20h14.18.421,kallum_motion_pilot,2023.2.2,Win32,144.9275362,5f80a6f92dac9e105a84b405,65d2b6c8f2eece985d8e374c,65d2b96fcf2bb0e35ac16fef,0.0236,0.0236,0,82,82,113,1,fiveseven,,,,,,,,,,,,,,,,,,,,,,,,,,,,,,,,,,,,,,,,,,,,,,,,,,,,,,,,,,,,,,,,,,,,,,,,,,,,,,,,,,,,,,,,,,,,,,,,,,,,,,,,,,,,,,,,,,,,,,,,,,,,,,,,,,,,,,,,,
,,5f80a6f92dac9e105a84b405,2024-02-18_20h14.18.421,kallum_motion_pilot,2023.2.2,Win32,144.9275362,5f80a6f92dac9e105a84b405,65d2b6c8f2eece985d8e374c,65d2b96fcf2bb0e35ac16fef,0.0237,0.0237,0,83,83,138,1,sixfive,,,,,,,,,,,,,,,,,,,,,,,,,,,,,,,,,,,,,,,,,,,,,,,,,,,,,,,,,,,,,,,,,,,,,,,,,,,,,,,,,,,,,,,,,,,,,,,,,,,,,,,,,,,,,,,,,,,,,,,,,,,,,,,,,,,,,,,,,
,,5f80a6f92dac9e105a84b405,2024-02-18_20h14.18.421,kallum_motion_pilot,2023.2.2,Win32,144.9275362,5f80a6f92dac9e105a84b405,65d2b6c8f2eece985d8e374c,65d2b96fcf2bb0e35ac16fef,0.0238,0.0238,0,84,84,24,1,onetwo,,,,,,,,,,,,,,,,,,,,,,,,,,,,,,,,,,,,,,,,,,,,,,,,,,,,,,,,,,,,,,,,,,,,,,,,,,,,,,,,,,,,,,,,,,,,,,,,,,,,,,,,,,,,,,,,,,,,,,,,,,,,,,,,,,,,,,,,,
,,5f80a6f92dac9e105a84b405,2024-02-18_20h14.18.421,kallum_motion_pilot,2023.2.2,Win32,144.9275362,5f80a6f92dac9e105a84b405,65d2b6c8f2eece985d8e374c,65d2b96fcf2bb0e35ac16fef,0.0238,0.0239,0,85,85,157,1,seveneight,,,,,,,,,,,,,,,,,,,,,,,,,,,,,,,,,,,,,,,,,,,,,,,,,,,,,,,,,,,,,,,,,,,,,,,,,,,,,,,,,,,,,,,,,,,,,,,,,,,,,,,,,,,,,,,,,,,,,,,,,,,,,,,,,,,,,,,,,
,,5f80a6f92dac9e105a84b405,2024-02-18_20h14.18.421,kallum_motion_pilot,2023.2.2,Win32,144.9275362,5f80a6f92dac9e105a84b405,65d2b6c8f2eece985d8e374c,65d2b96fcf2bb0e35ac16fef,0.0239,0.0239,0,86,86,34,1,twoone,,,,,,,,,,,,,,,,,,,,,,,,,,,,,,,,,,,,,,,,,,,,,,,,,,,,,,,,,,,,,,,,,,,,,,,,,,,,,,,,,,,,,,,,,,,,,,,,,,,,,,,,,,,,,,,,,,,,,,,,,,,,,,,,,,,,,,,,,
,,5f80a6f92dac9e105a84b405,2024-02-18_20h14.18.421,kallum_motion_pilot,2023.2.2,Win32,144.9275362,5f80a6f92dac9e105a84b405,65d2b6c8f2eece985d8e374c,65d2b96fcf2bb0e35ac16fef,0.0239,0.0239,0,87,87,62,1,fourtwo,,,,,,,,,,,,,,,,,,,,,,,,,,,,,,,,,,,,,,,,,,,,,,,,,,,,,,,,,,,,,,,,,,,,,,,,,,,,,,,,,,,,,,,,,,,,,,,,,,,,,,,,,,,,,,,,,,,,,,,,,,,,,,,,,,,,,,,,,
,,5f80a6f92dac9e105a84b405,2024-02-18_20h14.18.421,kallum_motion_pilot,2023.2.2,Win32,144.9275362,5f80a6f92dac9e105a84b405,65d2b6c8f2eece985d8e374c,65d2b96fcf2bb0e35ac16fef,0.024,0.024,0,88,88,51,1,twofour,,,,,,,,,,,,,,,,,,,,,,,,,,,,,,,,,,,,,,,,,,,,,,,,,,,,,,,,,,,,,,,,,,,,,,,,,,,,,,,,,,,,,,,,,,,,,,,,,,,,,,,,,,,,,,,,,,,,,,,,,,,,,,,,,,,,,,,,,
,,5f80a6f92dac9e105a84b405,2024-02-18_20h14.18.421,kallum_motion_pilot,2023.2.2,Win32,144.9275362,5f80a6f92dac9e105a84b405,65d2b6c8f2eece985d8e374c,65d2b96fcf2bb0e35ac16fef,0.0241,0.0242,0,89,89,61,1,threefour,,,,,,,,,,,,,,,,,,,,,,,,,,,,,,,,,,,,,,,,,,,,,,,,,,,,,,,,,,,,,,,,,,,,,,,,,,,,,,,,,,,,,,,,,,,,,,,,,,,,,,,,,,,,,,,,,,,,,,,,,,,,,,,,,,,,,,,,,
,,5f80a6f92dac9e105a84b405,2024-02-18_20h14.18.421,kallum_motion_pilot,2023.2.2,Win32,144.9275362,5f80a6f92dac9e105a84b405,65d2b6c8f2eece985d8e374c,65d2b96fcf2bb0e35ac16fef,0.0242,0.0242,0,90,90,105,1,fiveseven,,,,,,,,,,,,,,,,,,,,,,,,,,,,,,,,,,,,,,,,,,,,,,,,,,,,,,,,,,,,,,,,,,,,,,,,,,,,,,,,,,,,,,,,,,,,,,,,,,,,,,,,,,,,,,,,,,,,,,,,,,,,,,,,,,,,,,,,,
,,5f80a6f92dac9e105a84b405,2024-02-18_20h14.18.421,kallum_motion_pilot,2023.2.2,Win32,144.9275362,5f80a6f92dac9e105a84b405,65d2b6c8f2eece985d8e374c,65d2b96fcf2bb0e35ac16fef,0.0243,0.0243,0,91,91,81,1,fiveseven,,,,,,,,,,,,,,,,,,,,,,,,,,,,,,,,,,,,,,,,,,,,,,,,,,,,,,,,,,,,,,,,,,,,,,,,,,,,,,,,,,,,,,,,,,,,,,,,,,,,,,,,,,,,,,,,,,,,,,,,,,,,,,,,,,,,,,,,,
,,5f80a6f92dac9e105a84b405,2024-02-18_20h14.18.421,kallum_motion_pilot,2023.2.2,Win32,144.9275362,5f80a6f92dac9e105a84b405,65d2b6c8f2eece985d8e374c,65d2b96fcf2bb0e35ac16fef,0.0243,0.0244,0,92,92,4,1,threeone,,,,,,,,,,,,,,,,,,,,,,,,,,,,,,,,,,,,,,,,,,,,,,,,,,,,,,,,,,,,,,,,,,,,,,,,,,,,,,,,,,,,,,,,,,,,,,,,,,,,,,,,,,,,,,,,,,,,,,,,,,,,,,,,,,,,,,,,,
,,5f80a6f92dac9e105a84b405,2024-02-18_20h14.18.421,kallum_motion_pilot,2023.2.2,Win32,144.9275362,5f80a6f92dac9e105a84b405,65d2b6c8f2eece985d8e374c,65d2b96fcf2bb0e35ac16fef,0.0244,0.0244,0,93,93,43,1,twofour,,,,,,,,,,,,,,,,,,,,,,,,,,,,,,,,,,,,,,,,,,,,,,,,,,,,,,,,,,,,,,,,,,,,,,,,,,,,,,,,,,,,,,,,,,,,,,,,,,,,,,,,,,,,,,,,,,,,,,,,,,,,,,,,,,,,,,,,,
,,5f80a6f92dac9e105a84b405,2024-02-18_20h14.18.421,kallum_motion_pilot,2023.2.2,Win32,144.9275362,5f80a6f92dac9e105a84b405,65d2b6c8f2eece985d8e374c,65d2b96fcf2bb0e35ac16fef,0.0245,0.0245,0,94,94,70,1,fourtwo,,,,,,,,,,,,,,,,,,,,,,,,,,,,,,,,,,,,,,,,,,,,,,,,,,,,,,,,,,,,,,,,,,,,,,,,,,,,,,,,,,,,,,,,,,,,,,,,,,,,,,,,,,,,,,,,,,,,,,,,,,,,,,,,,,,,,,,,,
,,5f80a6f92dac9e105a84b405,2024-02-18_20h14.18.421,kallum_motion_pilot,2023.2.2,Win32,144.9275362,5f80a6f92dac9e105a84b405,65d2b6c8f2eece985d8e374c,65d2b96fcf2bb0e35ac16fef,0.0245,0.0246,0,95,95,9,1,onethree,,,,,,,,,,,,,,,,,,,,,,,,,,,,,,,,,,,,,,,,,,,,,,,,,,,,,,,,,,,,,,,,,,,,,,,,,,,,,,,,,,,,,,,,,,,,,,,,,,,,,,,,,,,,,,,,,,,,,,,,,,,,,,,,,,,,,,,,,
,,5f80a6f92dac9e105a84b405,2024-02-18_20h14.18.421,kallum_motion_pilot,2023.2.2,Win32,144.9275362,5f80a6f92dac9e105a84b405,65d2b6c8f2eece985d8e374c,65d2b96fcf2bb0e35ac16fef,0.0246,0.0246,0,96,96,160,1,fivesix,,,,,,,,,,,,,,,,,,,,,,,,,,,,,,,,,,,,,,,,,,,,,,,,,,,,,,,,,,,,,,,,,,,,,,,,,,,,,,,,,,,,,,,,,,,,,,,,,,,,,,,,,,,,,,,,,,,,,,,,,,,,,,,,,,,,,,,,,
,,5f80a6f92dac9e105a84b405,2024-02-18_20h14.18.421,kallum_motion_pilot,2023.2.2,Win32,144.9275362,5f80a6f92dac9e105a84b405,65d2b6c8f2eece985d8e374c,65d2b96fcf2bb0e35ac16fef,0.0248,0.0248,0,97,97,35,1,twofour,,,,,,,,,,,,,,,,,,,,,,,,,,,,,,,,,,,,,,,,,,,,,,,,,,,,,,,,,,,,,,,,,,,,,,,,,,,,,,,,,,,,,,,,,,,,,,,,,,,,,,,,,,,,,,,,,,,,,,,,,,,,,,,,,,,,,,,,,
,,5f80a6f92dac9e105a84b405,2024-02-18_20h14.18.421,kallum_motion_pilot,2023.2.2,Win32,144.9275362,5f80a6f92dac9e105a84b405,65d2b6c8f2eece985d8e374c,65d2b96fcf2bb0e35ac16fef,0.0248,0.0248,0,98,98,146,1,sixfive,,,,,,,,,,,,,,,,,,,,,,,,,,,,,,,,,,,,,,,,,,,,,,,,,,,,,,,,,,,,,,,,,,,,,,,,,,,,,,,,,,,,,,,,,,,,,,,,,,,,,,,,,,,,,,,,,,,,,,,,,,,,,,,,,,,,,,,,,
,,5f80a6f92dac9e105a84b405,2024-02-18_20h14.18.421,kallum_motion_pilot,2023.2.2,Win32,144.9275362,5f80a6f92dac9e105a84b405,65d2b6c8f2eece985d8e374c,65d2b96fcf2bb0e35ac16fef,0.0248,0.0249,0,99,99,155,1,sixeight,,,,,,,,,,,,,,,,,,,,,,,,,,,,,,,,,,,,,,,,,,,,,,,,,,,,,,,,,,,,,,,,,,,,,,,,,,,,,,,,,,,,,,,,,,,,,,,,,,,,,,,,,,,,,,,,,,,,,,,,,,,,,,,,,,,,,,,,,
,,5f80a6f92dac9e105a84b405,2024-02-18_20h14.18.421,kallum_motion_pilot,2023.2.2,Win32,144.9275362,5f80a6f92dac9e105a84b405,65d2b6c8f2eece985d8e374c,65d2b96fcf2bb0e35ac16fef,0.0249,0.025,0,100,100,14,1,fourtwo,,,,,,,,,,,,,,,,,,,,,,,,,,,,,,,,,,,,,,,,,,,,,,,,,,,,,,,,,,,,,,,,,,,,,,,,,,,,,,,,,,,,,,,,,,,,,,,,,,,,,,,,,,,,,,,,,,,,,,,,,,,,,,,,,,,,,,,,,
,,5f80a6f92dac9e105a84b405,2024-02-18_20h14.18.421,kallum_motion_pilot,2023.2.2,Win32,144.9275362,5f80a6f92dac9e105a84b405,65d2b6c8f2eece985d8e374c,65d2b96fcf2bb0e35ac16fef,0.025,0.0251,0,101,101,154,1,sixfive,,,,,,,,,,,,,,,,,,,,,,,,,,,,,,,,,,,,,,,,,,,,,,,,,,,,,,,,,,,,,,,,,,,,,,,,,,,,,,,,,,,,,,,,,,,,,,,,,,,,,,,,,,,,,,,,,,,,,,,,,,,,,,,,,,,,,,,,,
,,5f80a6f92dac9e105a84b405,2024-02-18_20h14.18.421,kallum_motion_pilot,2023.2.2,Win32,144.9275362,5f80a6f92dac9e105a84b405,65d2b6c8f2eece985d8e374c,65d2b96fcf2bb0e35ac16fef,0.0251,0.0252,0,102,102,95,1,eightseven,,,,,,,,,,,,,,,,,,,,,,,,,,,,,,,,,,,,,,,,,,,,,,,,,,,,,,,,,,,,,,,,,,,,,,,,,,,,,,,,,,,,,,,,,,,,,,,,,,,,,,,,,,,,,,,,,,,,,,,,,,,,,,,,,,,,,,,,,
,,5f80a6f92dac9e105a84b405,2024-02-18_20h14.18.421,kallum_motion_pilot,2023.2.2,Win32,144.9275362,5f80a6f92dac9e105a84b405,65d2b6c8f2eece985d8e374c,65d2b96fcf2bb0e35ac16fef,0.0252,0.0252,0,103,103,141,1,seveneight,,,,,,,,,,,,,,,,,,,,,,,,,,,,,,,,,,,,,,,,,,,,,,,,,,,,,,,,,,,,,,,,,,,,,,,,,,,,,,,,,,,,,,,,,,,,,,,,,,,,,,,,,,,,,,,,,,,,,,,,,,,,,,,,,,,,,,,,,
,,5f80a6f92dac9e105a84b405,2024-02-18_20h14.18.421,kallum_motion_pilot,2023.2.2,Win32,144.9275362,5f80a6f92dac9e105a84b405,65d2b6c8f2eece985d8e374c,65d2b96fcf2bb0e35ac16fef,0.0253,0.0253,0,104,104,131,1,sixeight,,,,,,,,,,,,,,,,,,,,,,,,,,,,,,,,,,,,,,,,,,,,,,,,,,,,,,,,,,,,,,,,,,,,,,,,,,,,,,,,,,,,,,,,,,,,,,,,,,,,,,,,,,,,,,,,,,,,,,,,,,,,,,,,,,,,,,,,,
,,5f80a6f92dac9e105a84b405,2024-02-18_20h14.18.421,kallum_motion_pilot,2023.2.2,Win32,144.9275362,5f80a6f92dac9e105a84b405,65d2b6c8f2eece985d8e374c,65d2b96fcf2bb0e35ac16fef,0.0254,0.0254,0,105,105,123,1,sixeight,,,,,,,,,,,,,,,,,,,,,,,,,,,,,,,,,,,,,,,,,,,,,,,,,,,,,,,,,,,,,,,,,,,,,,,,,,,,,,,,,,,,,,,,,,,,,,,,,,,,,,,,,,,,,,,,,,,,,,,,,,,,,,,,,,,,,,,,,
,,5f80a6f92dac9e105a84b405,2024-02-18_20h14.18.421,kallum_motion_pilot,2023.2.2,Win32,144.9275362,5f80a6f92dac9e105a84b405,65d2b6c8f2eece985d8e374c,65d2b96fcf2bb0e35ac16fef,0.0254,0.0254,0,106,106,8,1,onetwo,,,,,,,,,,,,,,,,,,,,,,,,,,,,,,,,,,,,,,,,,,,,,,,,,,,,,,,,,,,,,,,,,,,,,,,,,,,,,,,,,,,,,,,,,,,,,,,,,,,,,,,,,,,,,,,,,,,,,,,,,,,,,,,,,,,,,,,,,
,,5f80a6f92dac9e105a84b405,2024-02-18_20h14.18.421,kallum_motion_pilot,2023.2.2,Win32,144.9275362,5f80a6f92dac9e105a84b405,65d2b6c8f2eece985d8e374c,65d2b96fcf2bb0e35ac16fef,0.0255,0.0255,0,107,107,124,1,sevenfive,,,,,,,,,,,,,,,,,,,,,,,,,,,,,,,,,,,,,,,,,,,,,,,,,,,,,,,,,,,,,,,,,,,,,,,,,,,,,,,,,,,,,,,,,,,,,,,,,,,,,,,,,,,,,,,,,,,,,,,,,,,,,,,,,,,,,,,,,
,,5f80a6f92dac9e105a84b405,2024-02-18_20h14.18.421,kallum_motion_pilot,2023.2.2,Win32,144.9275362,5f80a6f92dac9e105a84b405,65d2b6c8f2eece985d8e374c,65d2b96fcf2bb0e35ac16fef,0.0255,0.0256,0,108,108,114,1,sixfive,,,,,,,,,,,,,,,,,,,,,,,,,,,,,,,,,,,,,,,,,,,,,,,,,,,,,,,,,,,,,,,,,,,,,,,,,,,,,,,,,,,,,,,,,,,,,,,,,,,,,,,,,,,,,,,,,,,,,,,,,,,,,,,,,,,,,,,,,
,,5f80a6f92dac9e105a84b405,2024-02-18_20h14.18.421,kallum_motion_pilot,2023.2.2,Win32,144.9275362,5f80a6f92dac9e105a84b405,65d2b6c8f2eece985d8e374c,65d2b96fcf2bb0e35ac16fef,0.0256,0.0257,0,109,109,71,1,fourthree,,,,,,,,,,,,,,,,,,,,,,,,,,,,,,,,,,,,,,,,,,,,,,,,,,,,,,,,,,,,,,,,,,,,,,,,,,,,,,,,,,,,,,,,,,,,,,,,,,,,,,,,,,,,,,,,,,,,,,,,,,,,,,,,,,,,,,,,,
,,5f80a6f92dac9e105a84b405,2024-02-18_20h14.18.421,kallum_motion_pilot,2023.2.2,Win32,144.9275362,5f80a6f92dac9e105a84b405,65d2b6c8f2eece985d8e374c,65d2b96fcf2bb0e35ac16fef,0.0258,0.0258,0,110,110,58,1,twoone,,,,,,,,,,,,,,,,,,,,,,,,,,,,,,,,,,,,,,,,,,,,,,,,,,,,,,,,,,,,,,,,,,,,,,,,,,,,,,,,,,,,,,,,,,,,,,,,,,,,,,,,,,,,,,,,,,,,,,,,,,,,,,,,,,,,,,,,,
,,5f80a6f92dac9e105a84b405,2024-02-18_20h14.18.421,kallum_motion_pilot,2023.2.2,Win32,144.9275362,5f80a6f92dac9e105a84b405,65d2b6c8f2eece985d8e374c,65d2b96fcf2bb0e35ac16fef,0.0259,0.0259,0,111,111,132,1,sevenfive,,,,,,,,,,,,,,,,,,,,,,,,,,,,,,,,,,,,,,,,,,,,,,,,,,,,,,,,,,,,,,,,,,,,,,,,,,,,,,,,,,,,,,,,,,,,,,,,,,,,,,,,,,,,,,,,,,,,,,,,,,,,,,,,,,,,,,,,,
,,5f80a6f92dac9e105a84b405,2024-02-18_20h14.18.421,kallum_motion_pilot,2023.2.2,Win32,144.9275362,5f80a6f92dac9e105a84b405,65d2b6c8f2eece985d8e374c,65d2b96fcf2bb0e35ac16fef,0.0259,0.026,0,112,112,53,1,threefour,,,,,,,,,,,,,,,,,,,,,,,,,,,,,,,,,,,,,,,,,,,,,,,,,,,,,,,,,,,,,,,,,,,,,,,,,,,,,,,,,,,,,,,,,,,,,,,,,,,,,,,,,,,,,,,,,,,,,,,,,,,,,,,,,,,,,,,,,
,,5f80a6f92dac9e105a84b405,2024-02-18_20h14.18.421,kallum_motion_pilot,2023.2.2,Win32,144.9275362,5f80a6f92dac9e105a84b405,65d2b6c8f2eece985d8e374c,65d2b96fcf2bb0e35ac16fef,0.026,0.026,0,113,113,150,1,eightsix,,,,,,,,,,,,,,,,,,,,,,,,,,,,,,,,,,,,,,,,,,,,,,,,,,,,,,,,,,,,,,,,,,,,,,,,,,,,,,,,,,,,,,,,,,,,,,,,,,,,,,,,,,,,,,,,,,,,,,,,,,,,,,,,,,,,,,,,,
,,5f80a6f92dac9e105a84b405,2024-02-18_20h14.18.421,kallum_motion_pilot,2023.2.2,Win32,144.9275362,5f80a6f92dac9e105a84b405,65d2b6c8f2eece985d8e374c,65d2b96fcf2bb0e35ac16fef,0.026,0.0261,0,114,114,92,1,sevenfive,,,,,,,,,,,,,,,,,,,,,,,,,,,,,,,,,,,,,,,,,,,,,,,,,,,,,,,,,,,,,,,,,,,,,,,,,,,,,,,,,,,,,,,,,,,,,,,,,,,,,,,,,,,,,,,,,,,,,,,,,,,,,,,,,,,,,,,,,
,,5f80a6f92dac9e105a84b405,2024-02-18_20h14.18.421,kallum_motion_pilot,2023.2.2,Win32,144.9275362,5f80a6f92dac9e105a84b405,65d2b6c8f2eece985d8e374c,65d2b96fcf2bb0e35ac16fef,0.0262,0.0262,0,115,115,64,1,onetwo,,,,,,,,,,,,,,,,,,,,,,,,,,,,,,,,,,,,,,,,,,,,,,,,,,,,,,,,,,,,,,,,,,,,,,,,,,,,,,,,,,,,,,,,,,,,,,,,,,,,,,,,,,,,,,,,,,,,,,,,,,,,,,,,,,,,,,,,,
,,5f80a6f92dac9e105a84b405,2024-02-18_20h14.18.421,kallum_motion_pilot,2023.2.2,Win32,144.9275362,5f80a6f92dac9e105a84b405,65d2b6c8f2eece985d8e374c,65d2b96fcf2bb0e35ac16fef,0.0262,0.0262,0,116,116,122,1,sixfive,,,,,,,,,,,,,,,,,,,,,,,,,,,,,,,,,,,,,,,,,,,,,,,,,,,,,,,,,,,,,,,,,,,,,,,,,,,,,,,,,,,,,,,,,,,,,,,,,,,,,,,,,,,,,,,,,,,,,,,,,,,,,,,,,,,,,,,,,
,,5f80a6f92dac9e105a84b405,2024-02-18_20h14.18.421,kallum_motion_pilot,2023.2.2,Win32,144.9275362,5f80a6f92dac9e105a84b405,65d2b6c8f2eece985d8e374c,65d2b96fcf2bb0e35ac16fef,0.0262,0.0263,0,117,117,72,1,onetwo,,,,,,,,,,,,,,,,,,,,,,,,,,,,,,,,,,,,,,,,,,,,,,,,,,,,,,,,,,,,,,,,,,,,,,,,,,,,,,,,,,,,,,,,,,,,,,,,,,,,,,,,,,,,,,,,,,,,,,,,,,,,,,,,,,,,,,,,,
,,5f80a6f92dac9e105a84b405,2024-02-18_20h14.18.421,kallum_motion_pilot,2023.2.2,Win32,144.9275362,5f80a6f92dac9e105a84b405,65d2b6c8f2eece985d8e374c,65d2b96fcf2bb0e35ac16fef,0.0263,0.0264,0,118,118,56,1,onetwo,,,,,,,,,,,,,,,,,,,,,,,,,,,,,,,,,,,,,,,,,,,,,,,,,,,,,,,,,,,,,,,,,,,,,,,,,,,,,,,,,,,,,,,,,,,,,,,,,,,,,,,,,,,,,,,,,,,,,,,,,,,,,,,,,,,,,,,,,
,,5f80a6f92dac9e105a84b405,2024-02-18_20h14.18.421,kallum_motion_pilot,2023.2.2,Win32,144.9275362,5f80a6f92dac9e105a84b405,65d2b6c8f2eece985d8e374c,65d2b96fcf2bb0e35ac16fef,0.0264,0.0264,0,119,119,125,1,seveneight,,,,,,,,,,,,,,,,,,,,,,,,,,,,,,,,,,,,,,,,,,,,,,,,,,,,,,,,,,,,,,,,,,,,,,,,,,,,,,,,,,,,,,,,,,,,,,,,,,,,,,,,,,,,,,,,,,,,,,,,,,,,,,,,,,,,,,,,,
,,5f80a6f92dac9e105a84b405,2024-02-18_20h14.18.421,kallum_motion_pilot,2023.2.2,Win32,144.9275362,5f80a6f92dac9e105a84b405,65d2b6c8f2eece985d8e374c,65d2b96fcf2bb0e35ac16fef,0.0265,0.0265,0,120,120,144,1,fivesix,,,,,,,,,,,,,,,,,,,,,,,,,,,,,,,,,,,,,,,,,,,,,,,,,,,,,,,,,,,,,,,,,,,,,,,,,,,,,,,,,,,,,,,,,,,,,,,,,,,,,,,,,,,,,,,,,,,,,,,,,,,,,,,,,,,,,,,,,
,,5f80a6f92dac9e105a84b405,2024-02-18_20h14.18.421,kallum_motion_pilot,2023.2.2,Win32,144.9275362,5f80a6f92dac9e105a84b405,65d2b6c8f2eece985d8e374c,65d2b96fcf2bb0e35ac16fef,0.0265,0.0266,0,121,121,103,1,eightseven,,,,,,,,,,,,,,,,,,,,,,,,,,,,,,,,,,,,,,,,,,,,,,,,,,,,,,,,,,,,,,,,,,,,,,,,,,,,,,,,,,,,,,,,,,,,,,,,,,,,,,,,,,,,,,,,,,,,,,,,,,,,,,,,,,,,,,,,,
,,5f80a6f92dac9e105a84b405,2024-02-18_20h14.18.421,kallum_motion_pilot,2023.2.2,Win32,144.9275362,5f80a6f92dac9e105a84b405,65d2b6c8f2eece985d8e374c,65d2b96fcf2bb0e35ac16fef,0.0267,0.0267,0,122,122,2,1,twoone,,,,,,,,,,,,,,,,,,,,,,,,,,,,,,,,,,,,,,,,,,,,,,,,,,,,,,,,,,,,,,,,,,,,,,,,,,,,,,,,,,,,,,,,,,,,,,,,,,,,,,,,,,,,,,,,,,,,,,,,,,,,,,,,,,,,,,,,,
,,5f80a6f92dac9e105a84b405,2024-02-18_20h14.18.421,kallum_motion_pilot,2023.2.2,Win32,144.9275362,5f80a6f92dac9e105a84b405,65d2b6c8f2eece985d8e374c,65d2b96fcf2bb0e35ac16fef,0.0267,0.0267,0,123,123,47,1,fourthree,,,,,,,,,,,,,,,,,,,,,,,,,,,,,,,,,,,,,,,,,,,,,,,,,,,,,,,,,,,,,,,,,,,,,,,,,,,,,,,,,,,,,,,,,,,,,,,,,,,,,,,,,,,,,,,,,,,,,,,,,,,,,,,,,,,,,,,,,
,,5f80a6f92dac9e105a84b405,2024-02-18_20h14.18.421,kallum_motion_pilot,2023.2.2,Win32,144.9275362,5f80a6f92dac9e105a84b405,65d2b6c8f2eece985d8e374c,65d2b96fcf2bb0e35ac16fef,0.0268,0.0269,0,124,124,49,1,onethree,,,,,,,,,,,,,,,,,,,,,,,,,,,,,,,,,,,,,,,,,,,,,,,,,,,,,,,,,,,,,,,,,,,,,,,,,,,,,,,,,,,,,,,,,,,,,,,,,,,,,,,,,,,,,,,,,,,,,,,,,,,,,,,,,,,,,,,,,
,,5f80a6f92dac9e105a84b405,2024-02-18_20h14.18.421,kallum_motion_pilot,2023.2.2,Win32,144.9275362,5f80a6f92dac9e105a84b405,65d2b6c8f2eece985d8e374c,65d2b96fcf2bb0e35ac16fef,0.0269,0.0269,0,125,125,152,1,fivesix,,,,,,,,,,,,,,,,,,,,,,,,,,,,,,,,,,,,,,,,,,,,,,,,,,,,,,,,,,,,,,,,,,,,,,,,,,,,,,,,,,,,,,,,,,,,,,,,,,,,,,,,,,,,,,,,,,,,,,,,,,,,,,,,,,,,,,,,,
,,5f80a6f92dac9e105a84b405,2024-02-18_20h14.18.421,kallum_motion_pilot,2023.2.2,Win32,144.9275362,5f80a6f92dac9e105a84b405,65d2b6c8f2eece985d8e374c,65d2b96fcf2bb0e35ac16fef,0.027,0.027,0,126,126,44,1,threeone,,,,,,,,,,,,,,,,,,,,,,,,,,,,,,,,,,,,,,,,,,,,,,,,,,,,,,,,,,,,,,,,,,,,,,,,,,,,,,,,,,,,,,,,,,,,,,,,,,,,,,,,,,,,,,,,,,,,,,,,,,,,,,,,,,,,,,,,,
,,5f80a6f92dac9e105a84b405,2024-02-18_20h14.18.421,kallum_motion_pilot,2023.2.2,Win32,144.9275362,5f80a6f92dac9e105a84b405,65d2b6c8f2eece985d8e374c,65d2b96fcf2bb0e35ac16fef,0.027,0.0271,0,127,127,69,1,threefour,,,,,,,,,,,,,,,,,,,,,,,,,,,,,,,,,,,,,,,,,,,,,,,,,,,,,,,,,,,,,,,,,,,,,,,,,,,,,,,,,,,,,,,,,,,,,,,,,,,,,,,,,,,,,,,,,,,,,,,,,,,,,,,,,,,,,,,,,
,,5f80a6f92dac9e105a84b405,2024-02-18_20h14.18.421,kallum_motion_pilot,2023.2.2,Win32,144.9275362,5f80a6f92dac9e105a84b405,65d2b6c8f2eece985d8e374c,65d2b96fcf2bb0e35ac16fef,0.0272,0.0272,0,128,128,119,1,eightseven,,,,,,,,,,,,,,,,,,,,,,,,,,,,,,,,,,,,,,,,,,,,,,,,,,,,,,,,,,,,,,,,,,,,,,,,,,,,,,,,,,,,,,,,,,,,,,,,,,,,,,,,,,,,,,,,,,,,,,,,,,,,,,,,,,,,,,,,,
,,5f80a6f92dac9e105a84b405,2024-02-18_20h14.18.421,kallum_motion_pilot,2023.2.2,Win32,144.9275362,5f80a6f92dac9e105a84b405,65d2b6c8f2eece985d8e374c,65d2b96fcf2bb0e35ac16fef,0.0272,0.0272,0,129,129,101,1,seveneight,,,,,,,,,,,,,,,,,,,,,,,,,,,,,,,,,,,,,,,,,,,,,,,,,,,,,,,,,,,,,,,,,,,,,,,,,,,,,,,,,,,,,,,,,,,,,,,,,,,,,,,,,,,,,,,,,,,,,,,,,,,,,,,,,,,,,,,,,
,,5f80a6f92dac9e105a84b405,2024-02-18_20h14.18.421,kallum_motion_pilot,2023.2.2,Win32,144.9275362,5f80a6f92dac9e105a84b405,65d2b6c8f2eece985d8e374c,65d2b96fcf2bb0e35ac16fef,0.0273,0.0273,0,130,130,19,1,twofour,,,,,,,,,,,,,,,,,,,,,,,,,,,,,,,,,,,,,,,,,,,,,,,,,,,,,,,,,,,,,,,,,,,,,,,,,,,,,,,,,,,,,,,,,,,,,,,,,,,,,,,,,,,,,,,,,,,,,,,,,,,,,,,,,,,,,,,,,
,,5f80a6f92dac9e105a84b405,2024-02-18_20h14.18.421,kallum_motion_pilot,2023.2.2,Win32,144.9275362,5f80a6f92dac9e105a84b405,65d2b6c8f2eece985d8e374c,65d2b96fcf2bb0e35ac16fef,0.0275,0.0276,0,131,131,57,1,onethree,,,,,,,,,,,,,,,,,,,,,,,,,,,,,,,,,,,,,,,,,,,,,,,,,,,,,,,,,,,,,,,,,,,,,,,,,,,,,,,,,,,,,,,,,,,,,,,,,,,,,,,,,,,,,,,,,,,,,,,,,,,,,,,,,,,,,,,,,
,,5f80a6f92dac9e105a84b405,2024-02-18_20h14.18.421,kallum_motion_pilot,2023.2.2,Win32,144.9275362,5f80a6f92dac9e105a84b405,65d2b6c8f2eece985d8e374c,65d2b96fcf2bb0e35ac16fef,0.0276,0.0277,0,132,132,21,1,threefour,,,,,,,,,,,,,,,,,,,,,,,,,,,,,,,,,,,,,,,,,,,,,,,,,,,,,,,,,,,,,,,,,,,,,,,,,,,,,,,,,,,,,,,,,,,,,,,,,,,,,,,,,,,,,,,,,,,,,,,,,,,,,,,,,,,,,,,,,
,,5f80a6f92dac9e105a84b405,2024-02-18_20h14.18.421,kallum_motion_pilot,2023.2.2,Win32,144.9275362,5f80a6f92dac9e105a84b405,65d2b6c8f2eece985d8e374c,65d2b96fcf2bb0e35ac16fef,0.0278,0.0278,0,133,133,118,1,eightsix,,,,,,,,,,,,,,,,,,,,,,,,,,,,,,,,,,,,,,,,,,,,,,,,,,,,,,,,,,,,,,,,,,,,,,,,,,,,,,,,,,,,,,,,,,,,,,,,,,,,,,,,,,,,,,,,,,,,,,,,,,,,,,,,,,,,,,,,,
,,5f80a6f92dac9e105a84b405,2024-02-18_20h14.18.421,kallum_motion_pilot,2023.2.2,Win32,144.9275362,5f80a6f92dac9e105a84b405,65d2b6c8f2eece985d8e374c,65d2b96fcf2bb0e35ac16fef,0.0278,0.0278,0,134,134,65,1,onethree,,,,,,,,,,,,,,,,,,,,,,,,,,,,,,,,,,,,,,,,,,,,,,,,,,,,,,,,,,,,,,,,,,,,,,,,,,,,,,,,,,,,,,,,,,,,,,,,,,,,,,,,,,,,,,,,,,,,,,,,,,,,,,,,,,,,,,,,,
,,5f80a6f92dac9e105a84b405,2024-02-18_20h14.18.421,kallum_motion_pilot,2023.2.2,Win32,144.9275362,5f80a6f92dac9e105a84b405,65d2b6c8f2eece985d8e374c,65d2b96fcf2bb0e35ac16fef,0.0279,0.0279,0,135,135,96,1,fivesix,,,,,,,,,,,,,,,,,,,,,,,,,,,,,,,,,,,,,,,,,,,,,,,,,,,,,,,,,,,,,,,,,,,,,,,,,,,,,,,,,,,,,,,,,,,,,,,,,,,,,,,,,,,,,,,,,,,,,,,,,,,,,,,,,,,,,,,,,
,,5f80a6f92dac9e105a84b405,2024-02-18_20h14.18.421,kallum_motion_pilot,2023.2.2,Win32,144.9275362,5f80a6f92dac9e105a84b405,65d2b6c8f2eece985d8e374c,65d2b96fcf2bb0e35ac16fef,0.028,0.028,0,136,136,78,1,fourtwo,,,,,,,,,,,,,,,,,,,,,,,,,,,,,,,,,,,,,,,,,,,,,,,,,,,,,,,,,,,,,,,,,,,,,,,,,,,,,,,,,,,,,,,,,,,,,,,,,,,,,,,,,,,,,,,,,,,,,,,,,,,,,,,,,,,,,,,,,
,,5f80a6f92dac9e105a84b405,2024-02-18_20h14.18.421,kallum_motion_pilot,2023.2.2,Win32,144.9275362,5f80a6f92dac9e105a84b405,65d2b6c8f2eece985d8e374c,65d2b96fcf2bb0e35ac16fef,0.028,0.0281,0,137,137,128,1,fivesix,,,,,,,,,,,,,,,,,,,,,,,,,,,,,,,,,,,,,,,,,,,,,,,,,,,,,,,,,,,,,,,,,,,,,,,,,,,,,,,,,,,,,,,,,,,,,,,,,,,,,,,,,,,,,,,,,,,,,,,,,,,,,,,,,,,,,,,,,
,,5f80a6f92dac9e105a84b405,2024-02-18_20h14.18.421,kallum_motion_pilot,2023.2.2,Win32,144.9275362,5f80a6f92dac9e105a84b405,65d2b6c8f2eece985d8e374c,65d2b96fcf2bb0e35ac16fef,0.0281,0.0281,0,138,138,27,1,twofour,,,,,,,,,,,,,,,,,,,,,,,,,,,,,,,,,,,,,,,,,,,,,,,,,,,,,,,,,,,,,,,,,,,,,,,,,,,,,,,,,,,,,,,,,,,,,,,,,,,,,,,,,,,,,,,,,,,,,,,,,,,,,,,,,,,,,,,,,
,,5f80a6f92dac9e105a84b405,2024-02-18_20h14.18.421,kallum_motion_pilot,2023.2.2,Win32,144.9275362,5f80a6f92dac9e105a84b405,65d2b6c8f2eece985d8e374c,65d2b96fcf2bb0e35ac16fef,0.0282,0.0282,0,139,139,126,1,eightsix,,,,,,,,,,,,,,,,,,,,,,,,,,,,,,,,,,,,,,,,,,,,,,,,,,,,,,,,,,,,,,,,,,,,,,,,,,,,,,,,,,,,,,,,,,,,,,,,,,,,,,,,,,,,,,,,,,,,,,,,,,,,,,,,,,,,,,,,,
,,5f80a6f92dac9e105a84b405,2024-02-18_20h14.18.421,kallum_motion_pilot,2023.2.2,Win32,144.9275362,5f80a6f92dac9e105a84b405,65d2b6c8f2eece985d8e374c,65d2b96fcf2bb0e35ac16fef,0.0283,0.0283,0,140,140,7,1,fourthree,,,,,,,,,,,,,,,,,,,,,,,,,,,,,,,,,,,,,,,,,,,,,,,,,,,,,,,,,,,,,,,,,,,,,,,,,,,,,,,,,,,,,,,,,,,,,,,,,,,,,,,,,,,,,,,,,,,,,,,,,,,,,,,,,,,,,,,,,
,,5f80a6f92dac9e105a84b405,2024-02-18_20h14.18.421,kallum_motion_pilot,2023.2.2,Win32,144.9275362,5f80a6f92dac9e105a84b405,65d2b6c8f2eece985d8e374c,65d2b96fcf2bb0e35ac16fef,0.0283,0.0284,0,141,141,22,1,fourtwo,,,,,,,,,,,,,,,,,,,,,,,,,,,,,,,,,,,,,,,,,,,,,,,,,,,,,,,,,,,,,,,,,,,,,,,,,,,,,,,,,,,,,,,,,,,,,,,,,,,,,,,,,,,,,,,,,,,,,,,,,,,,,,,,,,,,,,,,,
,,5f80a6f92dac9e105a84b405,2024-02-18_20h14.18.421,kallum_motion_pilot,2023.2.2,Win32,144.9275362,5f80a6f92dac9e105a84b405,65d2b6c8f2eece985d8e374c,65d2b96fcf2bb0e35ac16fef,0.0284,0.0284,0,142,142,149,1,seveneight,,,,,,,,,,,,,,,,,,,,,,,,,,,,,,,,,,,,,,,,,,,,,,,,,,,,,,,,,,,,,,,,,,,,,,,,,,,,,,,,,,,,,,,,,,,,,,,,,,,,,,,,,,,,,,,,,,,,,,,,,,,,,,,,,,,,,,,,,
,,5f80a6f92dac9e105a84b405,2024-02-18_20h14.18.421,kallum_motion_pilot,2023.2.2,Win32,144.9275362,5f80a6f92dac9e105a84b405,65d2b6c8f2eece985d8e374c,65d2b96fcf2bb0e35ac16fef,0.0285,0.0285,0,143,143,116,1,sevenfive,,,,,,,,,,,,,,,,,,,,,,,,,,,,,,,,,,,,,,,,,,,,,,,,,,,,,,,,,,,,,,,,,,,,,,,,,,,,,,,,,,,,,,,,,,,,,,,,,,,,,,,,,,,,,,,,,,,,,,,,,,,,,,,,,,,,,,,,,
,,5f80a6f92dac9e105a84b405,2024-02-18_20h14.18.421,kallum_motion_pilot,2023.2.2,Win32,144.9275362,5f80a6f92dac9e105a84b405,65d2b6c8f2eece985d8e374c,65d2b96fcf2bb0e35ac16fef,0.0287,0.0287,0,144,144,39,1,fourthree,,,,,,,,,,,,,,,,,,,,,,,,,,,,,,,,,,,,,,,,,,,,,,,,,,,,,,,,,,,,,,,,,,,,,,,,,,,,,,,,,,,,,,,,,,,,,,,,,,,,,,,,,,,,,,,,,,,,,,,,,,,,,,,,,,,,,,,,,
,,5f80a6f92dac9e105a84b405,2024-02-18_20h14.18.421,kallum_motion_pilot,2023.2.2,Win32,144.9275362,5f80a6f92dac9e105a84b405,65d2b6c8f2eece985d8e374c,65d2b96fcf2bb0e35ac16fef,0.0287,0.0288,0,145,145,26,1,twoone,,,,,,,,,,,,,,,,,,,,,,,,,,,,,,,,,,,,,,,,,,,,,,,,,,,,,,,,,,,,,,,,,,,,,,,,,,,,,,,,,,,,,,,,,,,,,,,,,,,,,,,,,,,,,,,,,,,,,,,,,,,,,,,,,,,,,,,,,
,,5f80a6f92dac9e105a84b405,2024-02-18_20h14.18.421,kallum_motion_pilot,2023.2.2,Win32,144.9275362,5f80a6f92dac9e105a84b405,65d2b6c8f2eece985d8e374c,65d2b96fcf2bb0e35ac16fef,0.0288,0.0289,0,146,146,52,1,threeone,,,,,,,,,,,,,,,,,,,,,,,,,,,,,,,,,,,,,,,,,,,,,,,,,,,,,,,,,,,,,,,,,,,,,,,,,,,,,,,,,,,,,,,,,,,,,,,,,,,,,,,,,,,,,,,,,,,,,,,,,,,,,,,,,,,,,,,,,
,,5f80a6f92dac9e105a84b405,2024-02-18_20h14.18.421,kallum_motion_pilot,2023.2.2,Win32,144.9275362,5f80a6f92dac9e105a84b405,65d2b6c8f2eece985d8e374c,65d2b96fcf2bb0e35ac16fef,0.0289,0.0289,0,147,147,82,1,sixfive,,,,,,,,,,,,,,,,,,,,,,,,,,,,,,,,,,,,,,,,,,,,,,,,,,,,,,,,,,,,,,,,,,,,,,,,,,,,,,,,,,,,,,,,,,,,,,,,,,,,,,,,,,,,,,,,,,,,,,,,,,,,,,,,,,,,,,,,,
,,5f80a6f92dac9e105a84b405,2024-02-18_20h14.18.421,kallum_motion_pilot,2023.2.2,Win32,144.9275362,5f80a6f92dac9e105a84b405,65d2b6c8f2eece985d8e374c,65d2b96fcf2bb0e35ac16fef,0.0289,0.0289,0,148,148,75,1,twofour,,,,,,,,,,,,,,,,,,,,,,,,,,,,,,,,,,,,,,,,,,,,,,,,,,,,,,,,,,,,,,,,,,,,,,,,,,,,,,,,,,,,,,,,,,,,,,,,,,,,,,,,,,,,,,,,,,,,,,,,,,,,,,,,,,,,,,,,,
,,5f80a6f92dac9e105a84b405,2024-02-18_20h14.18.421,kallum_motion_pilot,2023.2.2,Win32,144.9275362,5f80a6f92dac9e105a84b405,65d2b6c8f2eece985d8e374c,65d2b96fcf2bb0e35ac16fef,0.029,0.0291,0,149,149,84,1,sevenfive,,,,,,,,,,,,,,,,,,,,,,,,,,,,,,,,,,,,,,,,,,,,,,,,,,,,,,,,,,,,,,,,,,,,,,,,,,,,,,,,,,,,,,,,,,,,,,,,,,,,,,,,,,,,,,,,,,,,,,,,,,,,,,,,,,,,,,,,,
,,5f80a6f92dac9e105a84b405,2024-02-18_20h14.18.421,kallum_motion_pilot,2023.2.2,Win32,144.9275362,5f80a6f92dac9e105a84b405,65d2b6c8f2eece985d8e374c,65d2b96fcf2bb0e35ac16fef,0.0291,0.0292,0,150,150,11,1,twofour,,,,,,,,,,,,,,,,,,,,,,,,,,,,,,,,,,,,,,,,,,,,,,,,,,,,,,,,,,,,,,,,,,,,,,,,,,,,,,,,,,,,,,,,,,,,,,,,,,,,,,,,,,,,,,,,,,,,,,,,,,,,,,,,,,,,,,,,,
,,5f80a6f92dac9e105a84b405,2024-02-18_20h14.18.421,kallum_motion_pilot,2023.2.2,Win32,144.9275362,5f80a6f92dac9e105a84b405,65d2b6c8f2eece985d8e374c,65d2b96fcf2bb0e35ac16fef,0.0292,0.0293,0,151,151,140,1,sevenfive,,,,,,,,,,,,,,,,,,,,,,,,,,,,,,,,,,,,,,,,,,,,,,,,,,,,,,,,,,,,,,,,,,,,,,,,,,,,,,,,,,,,,,,,,,,,,,,,,,,,,,,,,,,,,,,,,,,,,,,,,,,,,,,,,,,,,,,,,
,,5f80a6f92dac9e105a84b405,2024-02-18_20h14.18.421,kallum_motion_pilot,2023.2.2,Win32,144.9275362,5f80a6f92dac9e105a84b405,65d2b6c8f2eece985d8e374c,65d2b96fcf2bb0e35ac16fef,0.0293,0.0294,0,152,152,102,1,eightsix,,,,,,,,,,,,,,,,,,,,,,,,,,,,,,,,,,,,,,,,,,,,,,,,,,,,,,,,,,,,,,,,,,,,,,,,,,,,,,,,,,,,,,,,,,,,,,,,,,,,,,,,,,,,,,,,,,,,,,,,,,,,,,,,,,,,,,,,,
,,5f80a6f92dac9e105a84b405,2024-02-18_20h14.18.421,kallum_motion_pilot,2023.2.2,Win32,144.9275362,5f80a6f92dac9e105a84b405,65d2b6c8f2eece985d8e374c,65d2b96fcf2bb0e35ac16fef,0.0294,0.0294,0,153,153,136,1,fivesix,,,,,,,,,,,,,,,,,,,,,,,,,,,,,,,,,,,,,,,,,,,,,,,,,,,,,,,,,,,,,,,,,,,,,,,,,,,,,,,,,,,,,,,,,,,,,,,,,,,,,,,,,,,,,,,,,,,,,,,,,,,,,,,,,,,,,,,,,
,,5f80a6f92dac9e105a84b405,2024-02-18_20h14.18.421,kallum_motion_pilot,2023.2.2,Win32,144.9275362,5f80a6f92dac9e105a84b405,65d2b6c8f2eece985d8e374c,65d2b96fcf2bb0e35ac16fef,0.0295,0.0295,0,154,154,80,1,fivesix,,,,,,,,,,,,,,,,,,,,,,,,,,,,,,,,,,,,,,,,,,,,,,,,,,,,,,,,,,,,,,,,,,,,,,,,,,,,,,,,,,,,,,,,,,,,,,,,,,,,,,,,,,,,,,,,,,,,,,,,,,,,,,,,,,,,,,,,,
,,5f80a6f92dac9e105a84b405,2024-02-18_20h14.18.421,kallum_motion_pilot,2023.2.2,Win32,144.9275362,5f80a6f92dac9e105a84b405,65d2b6c8f2eece985d8e374c,65d2b96fcf2bb0e35ac16fef,0.0295,0.0296,0,155,155,91,1,sixeight,,,,,,,,,,,,,,,,,,,,,,,,,,,,,,,,,,,,,,,,,,,,,,,,,,,,,,,,,,,,,,,,,,,,,,,,,,,,,,,,,,,,,,,,,,,,,,,,,,,,,,,,,,,,,,,,,,,,,,,,,,,,,,,,,,,,,,,,,
,,5f80a6f92dac9e105a84b405,2024-02-18_20h14.18.421,kallum_motion_pilot,2023.2.2,Win32,144.9275362,5f80a6f92dac9e105a84b405,65d2b6c8f2eece985d8e374c,65d2b96fcf2bb0e35ac16fef,0.0296,0.0296,0,156,156,117,1,seveneight,,,,,,,,,,,,,,,,,,,,,,,,,,,,,,,,,,,,,,,,,,,,,,,,,,,,,,,,,,,,,,,,,,,,,,,,,,,,,,,,,,,,,,,,,,,,,,,,,,,,,,,,,,,,,,,,,,,,,,,,,,,,,,,,,,,,,,,,,
,,5f80a6f92dac9e105a84b405,2024-02-18_20h14.18.421,kallum_motion_pilot,2023.2.2,Win32,144.9275362,5f80a6f92dac9e105a84b405,65d2b6c8f2eece985d8e374c,65d2b96fcf2bb0e35ac16fef,0.0297,0.0297,0,157,157,0,1,onetwo,,,,,,,,,,,,,,,,,,,,,,,,,,,,,,,,,,,,,,,,,,,,,,,,,,,,,,,,,,,,,,,,,,,,,,,,,,,,,,,,,,,,,,,,,,,,,,,,,,,,,,,,,,,,,,,,,,,,,,,,,,,,,,,,,,,,,,,,,
,,5f80a6f92dac9e105a84b405,2024-02-18_20h14.18.421,kallum_motion_pilot,2023.2.2,Win32,144.9275362,5f80a6f92dac9e105a84b405,65d2b6c8f2eece985d8e374c,65d2b96fcf2bb0e35ac16fef,0.0297,0.0298,0,158,158,121,1,fiveseven,,,,,,,,,,,,,,,,,,,,,,,,,,,,,,,,,,,,,,,,,,,,,,,,,,,,,,,,,,,,,,,,,,,,,,,,,,,,,,,,,,,,,,,,,,,,,,,,,,,,,,,,,,,,,,,,,,,,,,,,,,,,,,,,,,,,,,,,,
,,5f80a6f92dac9e105a84b405,2024-02-18_20h14.18.421,kallum_motion_pilot,2023.2.2,Win32,144.9275362,5f80a6f92dac9e105a84b405,65d2b6c8f2eece985d8e374c,65d2b96fcf2bb0e35ac16fef,0.0298,0.0298,0,159,159,1,1,onethree,,,,,,,,,,,,,,,,,,,,,,,,,,,,,,,,,,,,,,,,,,,,,,,,,,,,,,,,,,,,,,,,,,,,,,,,,,,,,,,,,,,,,,,,,,,,,,,,,,,,,,,,,,,,,,,,,,,,,,,,,,,,,,,,,,,,,,,,,
,,5f80a6f92dac9e105a84b405,2024-02-18_20h14.18.421,kallum_motion_pilot,2023.2.2,Win32,144.9275362,5f80a6f92dac9e105a84b405,65d2b6c8f2eece985d8e374c,65d2b96fcf2bb0e35ac16fef,0.0299,0.03,0,160,160,139,1,sixeight,,,,,,,,,,,,,,,,,,,,,,,,,,,,,,,,,,,,,,,,,,,,,,,,,,,,,,,,,,,,,,,,,,,,,,,,,,,,,,,,,,,,,,,,,,,,,,,,,,,,,,,,,,,,,,,,,,,,,,,,,,,,,,,,,,,,,,,,,
,,5f80a6f92dac9e105a84b405,2024-02-18_20h14.18.421,kallum_motion_pilot,2023.2.2,Win32,144.9275362,5f80a6f92dac9e105a84b405,65d2b6c8f2eece985d8e374c,65d2b96fcf2bb0e35ac16fef,0.03,0.03,0,161,161,90,1,sixfive,,,,,,,,,,,,,,,,,,,,,,,,,,,,,,,,,,,,,,,,,,,,,,,,,,,,,,,,,,,,,,,,,,,,,,,,,,,,,,,,,,,,,,,,,,,,,,,,,,,,,,,,,,,,,,,,,,,,,,,,,,,,,,,,,,,,,,,,,
,,5f80a6f92dac9e105a84b405,2024-02-18_20h14.18.421,kallum_motion_pilot,2023.2.2,Win32,144.9275362,5f80a6f92dac9e105a84b405,65d2b6c8f2eece985d8e374c,65d2b96fcf2bb0e35ac16fef,0.0301,0.0301,1,0,162,39,1,fourthree,,,,,,,,,,,,,,,,,,,,,,,,,,,,,,,,,,,,,,,,,,,,,,,,,,,,,,,,,,,,,,,,,,,,,,,,,,,,,,,,,,,,,,,,,,,,,,,,,,,,,,,,,,,,,,,,,,,,,,,,,,,,,,,,,,,,,,,,,
,,5f80a6f92dac9e105a84b405,2024-02-18_20h14.18.421,kallum_motion_pilot,2023.2.2,Win32,144.9275362,5f80a6f92dac9e105a84b405,65d2b6c8f2eece985d8e374c,65d2b96fcf2bb0e35ac16fef,0.0302,0.0302,1,1,163,48,1,onetwo,,,,,,,,,,,,,,,,,,,,,,,,,,,,,,,,,,,,,,,,,,,,,,,,,,,,,,,,,,,,,,,,,,,,,,,,,,,,,,,,,,,,,,,,,,,,,,,,,,,,,,,,,,,,,,,,,,,,,,,,,,,,,,,,,,,,,,,,,
,,5f80a6f92dac9e105a84b405,2024-02-18_20h14.18.421,kallum_motion_pilot,2023.2.2,Win32,144.9275362,5f80a6f92dac9e105a84b405,65d2b6c8f2eece985d8e374c,65d2b96fcf2bb0e35ac16fef,0.0303,0.0303,1,2,164,53,1,threefour,,,,,,,,,,,,,,,,,,,,,,,,,,,,,,,,,,,,,,,,,,,,,,,,,,,,,,,,,,,,,,,,,,,,,,,,,,,,,,,,,,,,,,,,,,,,,,,,,,,,,,,,,,,,,,,,,,,,,,,,,,,,,,,,,,,,,,,,,
,,5f80a6f92dac9e105a84b405,2024-02-18_20h14.18.421,kallum_motion_pilot,2023.2.2,Win32,144.9275362,5f80a6f92dac9e105a84b405,65d2b6c8f2eece985d8e374c,65d2b96fcf2bb0e35ac16fef,0.0304,0.0304,1,3,165,112,1,fivesix,,,,,,,,,,,,,,,,,,,,,,,,,,,,,,,,,,,,,,,,,,,,,,,,,,,,,,,,,,,,,,,,,,,,,,,,,,,,,,,,,,,,,,,,,,,,,,,,,,,,,,,,,,,,,,,,,,,,,,,,,,,,,,,,,,,,,,,,,
,,5f80a6f92dac9e105a84b405,2024-02-18_20h14.18.421,kallum_motion_pilot,2023.2.2,Win32,144.9275362,5f80a6f92dac9e105a84b405,65d2b6c8f2eece985d8e374c,65d2b96fcf2bb0e35ac16fef,0.0305,0.0305,1,4,166,72,1,onetwo,,,,,,,,,,,,,,,,,,,,,,,,,,,,,,,,,,,,,,,,,,,,,,,,,,,,,,,,,,,,,,,,,,,,,,,,,,,,,,,,,,,,,,,,,,,,,,,,,,,,,,,,,,,,,,,,,,,,,,,,,,,,,,,,,,,,,,,,,
,,5f80a6f92dac9e105a84b405,2024-02-18_20h14.18.421,kallum_motion_pilot,2023.2.2,Win32,144.9275362,5f80a6f92dac9e105a84b405,65d2b6c8f2eece985d8e374c,65d2b96fcf2bb0e35ac16fef,0.0305,0.0305,1,5,167,93,1,seveneight,,,,,,,,,,,,,,,,,,,,,,,,,,,,,,,,,,,,,,,,,,,,,,,,,,,,,,,,,,,,,,,,,,,,,,,,,,,,,,,,,,,,,,,,,,,,,,,,,,,,,,,,,,,,,,,,,,,,,,,,,,,,,,,,,,,,,,,,,
,,5f80a6f92dac9e105a84b405,2024-02-18_20h14.18.421,kallum_motion_pilot,2023.2.2,Win32,144.9275362,5f80a6f92dac9e105a84b405,65d2b6c8f2eece985d8e374c,65d2b96fcf2bb0e35ac16fef,0.0306,0.0306,1,6,168,23,1,fourthree,,,,,,,,,,,,,,,,,,,,,,,,,,,,,,,,,,,,,,,,,,,,,,,,,,,,,,,,,,,,,,,,,,,,,,,,,,,,,,,,,,,,,,,,,,,,,,,,,,,,,,,,,,,,,,,,,,,,,,,,,,,,,,,,,,,,,,,,,
,,5f80a6f92dac9e105a84b405,2024-02-18_20h14.18.421,kallum_motion_pilot,2023.2.2,Win32,144.9275362,5f80a6f92dac9e105a84b405,65d2b6c8f2eece985d8e374c,65d2b96fcf2bb0e35ac16fef,0.0306,0.0307,1,7,169,50,1,twoone,,,,,,,,,,,,,,,,,,,,,,,,,,,,,,,,,,,,,,,,,,,,,,,,,,,,,,,,,,,,,,,,,,,,,,,,,,,,,,,,,,,,,,,,,,,,,,,,,,,,,,,,,,,,,,,,,,,,,,,,,,,,,,,,,,,,,,,,,
,,5f80a6f92dac9e105a84b405,2024-02-18_20h14.18.421,kallum_motion_pilot,2023.2.2,Win32,144.9275362,5f80a6f92dac9e105a84b405,65d2b6c8f2eece985d8e374c,65d2b96fcf2bb0e35ac16fef,0.0308,0.0308,1,8,170,15,1,fourthree,,,,,,,,,,,,,,,,,,,,,,,,,,,,,,,,,,,,,,,,,,,,,,,,,,,,,,,,,,,,,,,,,,,,,,,,,,,,,,,,,,,,,,,,,,,,,,,,,,,,,,,,,,,,,,,,,,,,,,,,,,,,,,,,,,,,,,,,,
,,5f80a6f92dac9e105a84b405,2024-02-18_20h14.18.421,kallum_motion_pilot,2023.2.2,Win32,144.9275362,5f80a6f92dac9e105a84b405,65d2b6c8f2eece985d8e374c,65d2b96fcf2bb0e35ac16fef,0.0308,0.0308,1,9,171,89,1,fiveseven,,,,,,,,,,,,,,,,,,,,,,,,,,,,,,,,,,,,,,,,,,,,,,,,,,,,,,,,,,,,,,,,,,,,,,,,,,,,,,,,,,,,,,,,,,,,,,,,,,,,,,,,,,,,,,,,,,,,,,,,,,,,,,,,,,,,,,,,,
,,5f80a6f92dac9e105a84b405,2024-02-18_20h14.18.421,kallum_motion_pilot,2023.2.2,Win32,144.9275362,5f80a6f92dac9e105a84b405,65d2b6c8f2eece985d8e374c,65d2b96fcf2bb0e35ac16fef,0.0309,0.031,1,10,172,21,1,threefour,,,,,,,,,,,,,,,,,,,,,,,,,,,,,,,,,,,,,,,,,,,,,,,,,,,,,,,,,,,,,,,,,,,,,,,,,,,,,,,,,,,,,,,,,,,,,,,,,,,,,,,,,,,,,,,,,,,,,,,,,,,,,,,,,,,,,,,,,
,,5f80a6f92dac9e105a84b405,2024-02-18_20h14.18.421,kallum_motion_pilot,2023.2.2,Win32,144.9275362,5f80a6f92dac9e105a84b405,65d2b6c8f2eece985d8e374c,65d2b96fcf2bb0e35ac16fef,0.031,0.0311,1,11,173,159,1,eightseven,,,,,,,,,,,,,,,,,,,,,,,,,,,,,,,,,,,,,,,,,,,,,,,,,,,,,,,,,,,,,,,,,,,,,,,,,,,,,,,,,,,,,,,,,,,,,,,,,,,,,,,,,,,,,,,,,,,,,,,,,,,,,,,,,,,,,,,,,
,,5f80a6f92dac9e105a84b405,2024-02-18_20h14.18.421,kallum_motion_pilot,2023.2.2,Win32,144.9275362,5f80a6f92dac9e105a84b405,65d2b6c8f2eece985d8e374c,65d2b96fcf2bb0e35ac16fef,0.0311,0.0311,1,12,174,124,1,sevenfive,,,,,,,,,,,,,,,,,,,,,,,,,,,,,,,,,,,,,,,,,,,,,,,,,,,,,,,,,,,,,,,,,,,,,,,,,,,,,,,,,,,,,,,,,,,,,,,,,,,,,,,,,,,,,,,,,,,,,,,,,,,,,,,,,,,,,,,,,
,,5f80a6f92dac9e105a84b405,2024-02-18_20h14.18.421,kallum_motion_pilot,2023.2.2,Win32,144.9275362,5f80a6f92dac9e105a84b405,65d2b6c8f2eece985d8e374c,65d2b96fcf2bb0e35ac16fef,0.0312,0.0312,1,13,175,33,1,onethree,,,,,,,,,,,,,,,,,,,,,,,,,,,,,,,,,,,,,,,,,,,,,,,,,,,,,,,,,,,,,,,,,,,,,,,,,,,,,,,,,,,,,,,,,,,,,,,,,,,,,,,,,,,,,,,,,,,,,,,,,,,,,,,,,,,,,,,,,
,,5f80a6f92dac9e105a84b405,2024-02-18_20h14.18.421,kallum_motion_pilot,2023.2.2,Win32,144.9275362,5f80a6f92dac9e105a84b405,65d2b6c8f2eece985d8e374c,65d2b96fcf2bb0e35ac16fef,0.0313,0.0313,1,14,176,130,1,sixfive,,,,,,,,,,,,,,,,,,,,,,,,,,,,,,,,,,,,,,,,,,,,,,,,,,,,,,,,,,,,,,,,,,,,,,,,,,,,,,,,,,,,,,,,,,,,,,,,,,,,,,,,,,,,,,,,,,,,,,,,,,,,,,,,,,,,,,,,,
,,5f80a6f92dac9e105a84b405,2024-02-18_20h14.18.421,kallum_motion_pilot,2023.2.2,Win32,144.9275362,5f80a6f92dac9e105a84b405,65d2b6c8f2eece985d8e374c,65d2b96fcf2bb0e35ac16fef,0.0313,0.0314,1,15,177,25,1,onethree,,,,,,,,,,,,,,,,,,,,,,,,,,,,,,,,,,,,,,,,,,,,,,,,,,,,,,,,,,,,,,,,,,,,,,,,,,,,,,,,,,,,,,,,,,,,,,,,,,,,,,,,,,,,,,,,,,,,,,,,,,,,,,,,,,,,,,,,,
,,5f80a6f92dac9e105a84b405,2024-02-18_20h14.18.421,kallum_motion_pilot,2023.2.2,Win32,144.9275362,5f80a6f92dac9e105a84b405,65d2b6c8f2eece985d8e374c,65d2b96fcf2bb0e35ac16fef,0.0314,0.0315,1,16,178,129,1,fiveseven,,,,,,,,,,,,,,,,,,,,,,,,,,,,,,,,,,,,,,,,,,,,,,,,,,,,,,,,,,,,,,,,,,,,,,,,,,,,,,,,,,,,,,,,,,,,,,,,,,,,,,,,,,,,,,,,,,,,,,,,,,,,,,,,,,,,,,,,,
,,5f80a6f92dac9e105a84b405,2024-02-18_20h14.18.421,kallum_motion_pilot,2023.2.2,Win32,144.9275362,5f80a6f92dac9e105a84b405,65d2b6c8f2eece985d8e374c,65d2b96fcf2bb0e35ac16fef,0.0316,0.0316,1,17,179,67,1,twofour,,,,,,,,,,,,,,,,,,,,,,,,,,,,,,,,,,,,,,,,,,,,,,,,,,,,,,,,,,,,,,,,,,,,,,,,,,,,,,,,,,,,,,,,,,,,,,,,,,,,,,,,,,,,,,,,,,,,,,,,,,,,,,,,,,,,,,,,,
,,5f80a6f92dac9e105a84b405,2024-02-18_20h14.18.421,kallum_motion_pilot,2023.2.2,Win32,144.9275362,5f80a6f92dac9e105a84b405,65d2b6c8f2eece985d8e374c,65d2b96fcf2bb0e35ac16fef,0.0316,0.0317,1,18,180,155,1,sixeight,,,,,,,,,,,,,,,,,,,,,,,,,,,,,,,,,,,,,,,,,,,,,,,,,,,,,,,,,,,,,,,,,,,,,,,,,,,,,,,,,,,,,,,,,,,,,,,,,,,,,,,,,,,,,,,,,,,,,,,,,,,,,,,,,,,,,,,,,
,,5f80a6f92dac9e105a84b405,2024-02-18_20h14.18.421,kallum_motion_pilot,2023.2.2,Win32,144.9275362,5f80a6f92dac9e105a84b405,65d2b6c8f2eece985d8e374c,65d2b96fcf2bb0e35ac16fef,0.0317,0.0317,1,19,181,146,1,sixfive,,,,,,,,,,,,,,,,,,,,,,,,,,,,,,,,,,,,,,,,,,,,,,,,,,,,,,,,,,,,,,,,,,,,,,,,,,,,,,,,,,,,,,,,,,,,,,,,,,,,,,,,,,,,,,,,,,,,,,,,,,,,,,,,,,,,,,,,,
,,5f80a6f92dac9e105a84b405,2024-02-18_20h14.18.421,kallum_motion_pilot,2023.2.2,Win32,144.9275362,5f80a6f92dac9e105a84b405,65d2b6c8f2eece985d8e374c,65d2b96fcf2bb0e35ac16fef,0.0318,0.0318,1,20,182,75,1,twofour,,,,,,,,,,,,,,,,,,,,,,,,,,,,,,,,,,,,,,,,,,,,,,,,,,,,,,,,,,,,,,,,,,,,,,,,,,,,,,,,,,,,,,,,,,,,,,,,,,,,,,,,,,,,,,,,,,,,,,,,,,,,,,,,,,,,,,,,,
,,5f80a6f92dac9e105a84b405,2024-02-18_20h14.18.421,kallum_motion_pilot,2023.2.2,Win32,144.9275362,5f80a6f92dac9e105a84b405,65d2b6c8f2eece985d8e374c,65d2b96fcf2bb0e35ac16fef,0.0319,0.0319,1,21,183,40,1,onetwo,,,,,,,,,,,,,,,,,,,,,,,,,,,,,,,,,,,,,,,,,,,,,,,,,,,,,,,,,,,,,,,,,,,,,,,,,,,,,,,,,,,,,,,,,,,,,,,,,,,,,,,,,,,,,,,,,,,,,,,,,,,,,,,,,,,,,,,,,
,,5f80a6f92dac9e105a84b405,2024-02-18_20h14.18.421,kallum_motion_pilot,2023.2.2,Win32,144.9275362,5f80a6f92dac9e105a84b405,65d2b6c8f2eece985d8e374c,65d2b96fcf2bb0e35ac16fef,0.0319,0.032,1,22,184,2,1,twoone,,,,,,,,,,,,,,,,,,,,,,,,,,,,,,,,,,,,,,,,,,,,,,,,,,,,,,,,,,,,,,,,,,,,,,,,,,,,,,,,,,,,,,,,,,,,,,,,,,,,,,,,,,,,,,,,,,,,,,,,,,,,,,,,,,,,,,,,,
,,5f80a6f92dac9e105a84b405,2024-02-18_20h14.18.421,kallum_motion_pilot,2023.2.2,Win32,144.9275362,5f80a6f92dac9e105a84b405,65d2b6c8f2eece985d8e374c,65d2b96fcf2bb0e35ac16fef,0.0321,0.0321,1,23,185,69,1,threefour,,,,,,,,,,,,,,,,,,,,,,,,,,,,,,,,,,,,,,,,,,,,,,,,,,,,,,,,,,,,,,,,,,,,,,,,,,,,,,,,,,,,,,,,,,,,,,,,,,,,,,,,,,,,,,,,,,,,,,,,,,,,,,,,,,,,,,,,,
,,5f80a6f92dac9e105a84b405,2024-02-18_20h14.18.421,kallum_motion_pilot,2023.2.2,Win32,144.9275362,5f80a6f92dac9e105a84b405,65d2b6c8f2eece985d8e374c,65d2b96fcf2bb0e35ac16fef,0.0322,0.0322,1,24,186,161,1,fiveseven,,,,,,,,,,,,,,,,,,,,,,,,,,,,,,,,,,,,,,,,,,,,,,,,,,,,,,,,,,,,,,,,,,,,,,,,,,,,,,,,,,,,,,,,,,,,,,,,,,,,,,,,,,,,,,,,,,,,,,,,,,,,,,,,,,,,,,,,,
,,5f80a6f92dac9e105a84b405,2024-02-18_20h14.18.421,kallum_motion_pilot,2023.2.2,Win32,144.9275362,5f80a6f92dac9e105a84b405,65d2b6c8f2eece985d8e374c,65d2b96fcf2bb0e35ac16fef,0.0322,0.0323,1,25,187,140,1,sevenfive,,,,,,,,,,,,,,,,,,,,,,,,,,,,,,,,,,,,,,,,,,,,,,,,,,,,,,,,,,,,,,,,,,,,,,,,,,,,,,,,,,,,,,,,,,,,,,,,,,,,,,,,,,,,,,,,,,,,,,,,,,,,,,,,,,,,,,,,,
,,5f80a6f92dac9e105a84b405,2024-02-18_20h14.18.421,kallum_motion_pilot,2023.2.2,Win32,144.9275362,5f80a6f92dac9e105a84b405,65d2b6c8f2eece985d8e374c,65d2b96fcf2bb0e35ac16fef,0.0324,0.0324,1,26,188,116,1,sevenfive,,,,,,,,,,,,,,,,,,,,,,,,,,,,,,,,,,,,,,,,,,,,,,,,,,,,,,,,,,,,,,,,,,,,,,,,,,,,,,,,,,,,,,,,,,,,,,,,,,,,,,,,,,,,,,,,,,,,,,,,,,,,,,,,,,,,,,,,,
,,5f80a6f92dac9e105a84b405,2024-02-18_20h14.18.421,kallum_motion_pilot,2023.2.2,Win32,144.9275362,5f80a6f92dac9e105a84b405,65d2b6c8f2eece985d8e374c,65d2b96fcf2bb0e35ac16fef,0.0325,0.0325,1,27,189,88,1,fivesix,,,,,,,,,,,,,,,,,,,,,,,,,,,,,,,,,,,,,,,,,,,,,,,,,,,,,,,,,,,,,,,,,,,,,,,,,,,,,,,,,,,,,,,,,,,,,,,,,,,,,,,,,,,,,,,,,,,,,,,,,,,,,,,,,,,,,,,,,
,,5f80a6f92dac9e105a84b405,2024-02-18_20h14.18.421,kallum_motion_pilot,2023.2.2,Win32,144.9275362,5f80a6f92dac9e105a84b405,65d2b6c8f2eece985d8e374c,65d2b96fcf2bb0e35ac16fef,0.0325,0.0326,1,28,190,108,1,sevenfive,,,,,,,,,,,,,,,,,,,,,,,,,,,,,,,,,,,,,,,,,,,,,,,,,,,,,,,,,,,,,,,,,,,,,,,,,,,,,,,,,,,,,,,,,,,,,,,,,,,,,,,,,,,,,,,,,,,,,,,,,,,,,,,,,,,,,,,,,
,,5f80a6f92dac9e105a84b405,2024-02-18_20h14.18.421,kallum_motion_pilot,2023.2.2,Win32,144.9275362,5f80a6f92dac9e105a84b405,65d2b6c8f2eece985d8e374c,65d2b96fcf2bb0e35ac16fef,0.0326,0.0326,1,29,191,152,1,fivesix,,,,,,,,,,,,,,,,,,,,,,,,,,,,,,,,,,,,,,,,,,,,,,,,,,,,,,,,,,,,,,,,,,,,,,,,,,,,,,,,,,,,,,,,,,,,,,,,,,,,,,,,,,,,,,,,,,,,,,,,,,,,,,,,,,,,,,,,,
,,5f80a6f92dac9e105a84b405,2024-02-18_20h14.18.421,kallum_motion_pilot,2023.2.2,Win32,144.9275362,5f80a6f92dac9e105a84b405,65d2b6c8f2eece985d8e374c,65d2b96fcf2bb0e35ac16fef,0.0326,0.0327,1,30,192,8,1,onetwo,,,,,,,,,,,,,,,,,,,,,,,,,,,,,,,,,,,,,,,,,,,,,,,,,,,,,,,,,,,,,,,,,,,,,,,,,,,,,,,,,,,,,,,,,,,,,,,,,,,,,,,,,,,,,,,,,,,,,,,,,,,,,,,,,,,,,,,,,
,,5f80a6f92dac9e105a84b405,2024-02-18_20h14.18.421,kallum_motion_pilot,2023.2.2,Win32,144.9275362,5f80a6f92dac9e105a84b405,65d2b6c8f2eece985d8e374c,65d2b96fcf2bb0e35ac16fef,0.0327,0.0328,1,31,193,126,1,eightsix,,,,,,,,,,,,,,,,,,,,,,,,,,,,,,,,,,,,,,,,,,,,,,,,,,,,,,,,,,,,,,,,,,,,,,,,,,,,,,,,,,,,,,,,,,,,,,,,,,,,,,,,,,,,,,,,,,,,,,,,,,,,,,,,,,,,,,,,,
,,5f80a6f92dac9e105a84b405,2024-02-18_20h14.18.421,kallum_motion_pilot,2023.2.2,Win32,144.9275362,5f80a6f92dac9e105a84b405,65d2b6c8f2eece985d8e374c,65d2b96fcf2bb0e35ac16fef,0.0329,0.0329,1,32,194,31,1,fourthree,,,,,,,,,,,,,,,,,,,,,,,,,,,,,,,,,,,,,,,,,,,,,,,,,,,,,,,,,,,,,,,,,,,,,,,,,,,,,,,,,,,,,,,,,,,,,,,,,,,,,,,,,,,,,,,,,,,,,,,,,,,,,,,,,,,,,,,,,
,,5f80a6f92dac9e105a84b405,2024-02-18_20h14.18.421,kallum_motion_pilot,2023.2.2,Win32,144.9275362,5f80a6f92dac9e105a84b405,65d2b6c8f2eece985d8e374c,65d2b96fcf2bb0e35ac16fef,0.0329,0.033,1,33,195,41,1,onethree,,,,,,,,,,,,,,,,,,,,,,,,,,,,,,,,,,,,,,,,,,,,,,,,,,,,,,,,,,,,,,,,,,,,,,,,,,,,,,,,,,,,,,,,,,,,,,,,,,,,,,,,,,,,,,,,,,,,,,,,,,,,,,,,,,,,,,,,,
,,5f80a6f92dac9e105a84b405,2024-02-18_20h14.18.421,kallum_motion_pilot,2023.2.2,Win32,144.9275362,5f80a6f92dac9e105a84b405,65d2b6c8f2eece985d8e374c,65d2b96fcf2bb0e35ac16fef,0.033,0.033,1,34,196,131,1,sixeight,,,,,,,,,,,,,,,,,,,,,,,,,,,,,,,,,,,,,,,,,,,,,,,,,,,,,,,,,,,,,,,,,,,,,,,,,,,,,,,,,,,,,,,,,,,,,,,,,,,,,,,,,,,,,,,,,,,,,,,,,,,,,,,,,,,,,,,,,
,,5f80a6f92dac9e105a84b405,2024-02-18_20h14.18.421,kallum_motion_pilot,2023.2.2,Win32,144.9275362,5f80a6f92dac9e105a84b405,65d2b6c8f2eece985d8e374c,65d2b96fcf2bb0e35ac16fef,0.0331,0.0331,1,35,197,150,1,eightsix,,,,,,,,,,,,,,,,,,,,,,,,,,,,,,,,,,,,,,,,,,,,,,,,,,,,,,,,,,,,,,,,,,,,,,,,,,,,,,,,,,,,,,,,,,,,,,,,,,,,,,,,,,,,,,,,,,,,,,,,,,,,,,,,,,,,,,,,,
,,5f80a6f92dac9e105a84b405,2024-02-18_20h14.18.421,kallum_motion_pilot,2023.2.2,Win32,144.9275362,5f80a6f92dac9e105a84b405,65d2b6c8f2eece985d8e374c,65d2b96fcf2bb0e35ac16fef,0.0332,0.0332,1,36,198,160,1,fivesix,,,,,,,,,,,,,,,,,,,,,,,,,,,,,,,,,,,,,,,,,,,,,,,,,,,,,,,,,,,,,,,,,,,,,,,,,,,,,,,,,,,,,,,,,,,,,,,,,,,,,,,,,,,,,,,,,,,,,,,,,,,,,,,,,,,,,,,,,
,,5f80a6f92dac9e105a84b405,2024-02-18_20h14.18.421,kallum_motion_pilot,2023.2.2,Win32,144.9275362,5f80a6f92dac9e105a84b405,65d2b6c8f2eece985d8e374c,65d2b96fcf2bb0e35ac16fef,0.0333,0.0333,1,37,199,35,1,twofour,,,,,,,,,,,,,,,,,,,,,,,,,,,,,,,,,,,,,,,,,,,,,,,,,,,,,,,,,,,,,,,,,,,,,,,,,,,,,,,,,,,,,,,,,,,,,,,,,,,,,,,,,,,,,,,,,,,,,,,,,,,,,,,,,,,,,,,,,
,,5f80a6f92dac9e105a84b405,2024-02-18_20h14.18.421,kallum_motion_pilot,2023.2.2,Win32,144.9275362,5f80a6f92dac9e105a84b405,65d2b6c8f2eece985d8e374c,65d2b96fcf2bb0e35ac16fef,0.0354,0.0355,1,38,200,109,1,seveneight,,,,,,,,,,,,,,,,,,,,,,,,,,,,,,,,,,,,,,,,,,,,,,,,,,,,,,,,,,,,,,,,,,,,,,,,,,,,,,,,,,,,,,,,,,,,,,,,,,,,,,,,,,,,,,,,,,,,,,,,,,,,,,,,,,,,,,,,,
,,5f80a6f92dac9e105a84b405,2024-02-18_20h14.18.421,kallum_motion_pilot,2023.2.2,Win32,144.9275362,5f80a6f92dac9e105a84b405,65d2b6c8f2eece985d8e374c,65d2b96fcf2bb0e35ac16fef,0.0356,0.0356,1,39,201,85,1,seveneight,,,,,,,,,,,,,,,,,,,,,,,,,,,,,,,,,,,,,,,,,,,,,,,,,,,,,,,,,,,,,,,,,,,,,,,,,,,,,,,,,,,,,,,,,,,,,,,,,,,,,,,,,,,,,,,,,,,,,,,,,,,,,,,,,,,,,,,,,
,,5f80a6f92dac9e105a84b405,2024-02-18_20h14.18.421,kallum_motion_pilot,2023.2.2,Win32,144.9275362,5f80a6f92dac9e105a84b405,65d2b6c8f2eece985d8e374c,65d2b96fcf2bb0e35ac16fef,0.0356,0.0357,1,40,202,76,1,threeone,,,,,,,,,,,,,,,,,,,,,,,,,,,,,,,,,,,,,,,,,,,,,,,,,,,,,,,,,,,,,,,,,,,,,,,,,,,,,,,,,,,,,,,,,,,,,,,,,,,,,,,,,,,,,,,,,,,,,,,,,,,,,,,,,,,,,,,,,
,,5f80a6f92dac9e105a84b405,2024-02-18_20h14.18.421,kallum_motion_pilot,2023.2.2,Win32,144.9275362,5f80a6f92dac9e105a84b405,65d2b6c8f2eece985d8e374c,65d2b96fcf2bb0e35ac16fef,0.0357,0.0357,1,41,203,44,1,threeone,,,,,,,,,,,,,,,,,,,,,,,,,,,,,,,,,,,,,,,,,,,,,,,,,,,,,,,,,,,,,,,,,,,,,,,,,,,,,,,,,,,,,,,,,,,,,,,,,,,,,,,,,,,,,,,,,,,,,,,,,,,,,,,,,,,,,,,,,
,,5f80a6f92dac9e105a84b405,2024-02-18_20h14.18.421,kallum_motion_pilot,2023.2.2,Win32,144.9275362,5f80a6f92dac9e105a84b405,65d2b6c8f2eece985d8e374c,65d2b96fcf2bb0e35ac16fef,0.0358,0.0358,1,42,204,91,1,sixeight,,,,,,,,,,,,,,,,,,,,,,,,,,,,,,,,,,,,,,,,,,,,,,,,,,,,,,,,,,,,,,,,,,,,,,,,,,,,,,,,,,,,,,,,,,,,,,,,,,,,,,,,,,,,,,,,,,,,,,,,,,,,,,,,,,,,,,,,,
,,5f80a6f92dac9e105a84b405,2024-02-18_20h14.18.421,kallum_motion_pilot,2023.2.2,Win32,144.9275362,5f80a6f92dac9e105a84b405,65d2b6c8f2eece985d8e374c,65d2b96fcf2bb0e35ac16fef,0.0359,0.0359,1,43,205,57,1,onethree,,,,,,,,,,,,,,,,,,,,,,,,,,,,,,,,,,,,,,,,,,,,,,,,,,,,,,,,,,,,,,,,,,,,,,,,,,,,,,,,,,,,,,,,,,,,,,,,,,,,,,,,,,,,,,,,,,,,,,,,,,,,,,,,,,,,,,,,,
,,5f80a6f92dac9e105a84b405,2024-02-18_20h14.18.421,kallum_motion_pilot,2023.2.2,Win32,144.9275362,5f80a6f92dac9e105a84b405,65d2b6c8f2eece985d8e374c,65d2b96fcf2bb0e35ac16fef,0.036,0.036,1,44,206,28,1,threeone,,,,,,,,,,,,,,,,,,,,,,,,,,,,,,,,,,,,,,,,,,,,,,,,,,,,,,,,,,,,,,,,,,,,,,,,,,,,,,,,,,,,,,,,,,,,,,,,,,,,,,,,,,,,,,,,,,,,,,,,,,,,,,,,,,,,,,,,,
,,5f80a6f92dac9e105a84b405,2024-02-18_20h14.18.421,kallum_motion_pilot,2023.2.2,Win32,144.9275362,5f80a6f92dac9e105a84b405,65d2b6c8f2eece985d8e374c,65d2b96fcf2bb0e35ac16fef,0.036,0.036,1,45,207,29,1,threefour,,,,,,,,,,,,,,,,,,,,,,,,,,,,,,,,,,,,,,,,,,,,,,,,,,,,,,,,,,,,,,,,,,,,,,,,,,,,,,,,,,,,,,,,,,,,,,,,,,,,,,,,,,,,,,,,,,,,,,,,,,,,,,,,,,,,,,,,,
,,5f80a6f92dac9e105a84b405,2024-02-18_20h14.18.421,kallum_motion_pilot,2023.2.2,Win32,144.9275362,5f80a6f92dac9e105a84b405,65d2b6c8f2eece985d8e374c,65d2b96fcf2bb0e35ac16fef,0.036,0.0361,1,46,208,24,1,onetwo,,,,,,,,,,,,,,,,,,,,,,,,,,,,,,,,,,,,,,,,,,,,,,,,,,,,,,,,,,,,,,,,,,,,,,,,,,,,,,,,,,,,,,,,,,,,,,,,,,,,,,,,,,,,,,,,,,,,,,,,,,,,,,,,,,,,,,,,,
,,5f80a6f92dac9e105a84b405,2024-02-18_20h14.18.421,kallum_motion_pilot,2023.2.2,Win32,144.9275362,5f80a6f92dac9e105a84b405,65d2b6c8f2eece985d8e374c,65d2b96fcf2bb0e35ac16fef,0.0361,0.0362,1,47,209,51,1,twofour,,,,,,,,,,,,,,,,,,,,,,,,,,,,,,,,,,,,,,,,,,,,,,,,,,,,,,,,,,,,,,,,,,,,,,,,,,,,,,,,,,,,,,,,,,,,,,,,,,,,,,,,,,,,,,,,,,,,,,,,,,,,,,,,,,,,,,,,,
,,5f80a6f92dac9e105a84b405,2024-02-18_20h14.18.421,kallum_motion_pilot,2023.2.2,Win32,144.9275362,5f80a6f92dac9e105a84b405,65d2b6c8f2eece985d8e374c,65d2b96fcf2bb0e35ac16fef,0.0362,0.0362,1,48,210,107,1,sixeight,,,,,,,,,,,,,,,,,,,,,,,,,,,,,,,,,,,,,,,,,,,,,,,,,,,,,,,,,,,,,,,,,,,,,,,,,,,,,,,,,,,,,,,,,,,,,,,,,,,,,,,,,,,,,,,,,,,,,,,,,,,,,,,,,,,,,,,,,
,,5f80a6f92dac9e105a84b405,2024-02-18_20h14.18.421,kallum_motion_pilot,2023.2.2,Win32,144.9275362,5f80a6f92dac9e105a84b405,65d2b6c8f2eece985d8e374c,65d2b96fcf2bb0e35ac16fef,0.0362,0.0363,1,49,211,68,1,threeone,,,,,,,,,,,,,,,,,,,,,,,,,,,,,,,,,,,,,,,,,,,,,,,,,,,,,,,,,,,,,,,,,,,,,,,,,,,,,,,,,,,,,,,,,,,,,,,,,,,,,,,,,,,,,,,,,,,,,,,,,,,,,,,,,,,,,,,,,
,,5f80a6f92dac9e105a84b405,2024-02-18_20h14.18.421,kallum_motion_pilot,2023.2.2,Win32,144.9275362,5f80a6f92dac9e105a84b405,65d2b6c8f2eece985d8e374c,65d2b96fcf2bb0e35ac16fef,0.0363,0.0363,1,50,212,87,1,eightseven,,,,,,,,,,,,,,,,,,,,,,,,,,,,,,,,,,,,,,,,,,,,,,,,,,,,,,,,,,,,,,,,,,,,,,,,,,,,,,,,,,,,,,,,,,,,,,,,,,,,,,,,,,,,,,,,,,,,,,,,,,,,,,,,,,,,,,,,,
,,5f80a6f92dac9e105a84b405,2024-02-18_20h14.18.421,kallum_motion_pilot,2023.2.2,Win32,144.9275362,5f80a6f92dac9e105a84b405,65d2b6c8f2eece985d8e374c,65d2b96fcf2bb0e35ac16fef,0.0363,0.0363,1,51,213,125,1,seveneight,,,,,,,,,,,,,,,,,,,,,,,,,,,,,,,,,,,,,,,,,,,,,,,,,,,,,,,,,,,,,,,,,,,,,,,,,,,,,,,,,,,,,,,,,,,,,,,,,,,,,,,,,,,,,,,,,,,,,,,,,,,,,,,,,,,,,,,,,
,,5f80a6f92dac9e105a84b405,2024-02-18_20h14.18.421,kallum_motion_pilot,2023.2.2,Win32,144.9275362,5f80a6f92dac9e105a84b405,65d2b6c8f2eece985d8e374c,65d2b96fcf2bb0e35ac16fef,0.0363,0.0364,1,52,214,12,1,threeone,,,,,,,,,,,,,,,,,,,,,,,,,,,,,,,,,,,,,,,,,,,,,,,,,,,,,,,,,,,,,,,,,,,,,,,,,,,,,,,,,,,,,,,,,,,,,,,,,,,,,,,,,,,,,,,,,,,,,,,,,,,,,,,,,,,,,,,,,
,,5f80a6f92dac9e105a84b405,2024-02-18_20h14.18.421,kallum_motion_pilot,2023.2.2,Win32,144.9275362,5f80a6f92dac9e105a84b405,65d2b6c8f2eece985d8e374c,65d2b96fcf2bb0e35ac16fef,0.0364,0.0364,1,53,215,36,1,threeone,,,,,,,,,,,,,,,,,,,,,,,,,,,,,,,,,,,,,,,,,,,,,,,,,,,,,,,,,,,,,,,,,,,,,,,,,,,,,,,,,,,,,,,,,,,,,,,,,,,,,,,,,,,,,,,,,,,,,,,,,,,,,,,,,,,,,,,,,
,,5f80a6f92dac9e105a84b405,2024-02-18_20h14.18.421,kallum_motion_pilot,2023.2.2,Win32,144.9275362,5f80a6f92dac9e105a84b405,65d2b6c8f2eece985d8e374c,65d2b96fcf2bb0e35ac16fef,0.0365,0.0365,1,54,216,102,1,eightsix,,,,,,,,,,,,,,,,,,,,,,,,,,,,,,,,,,,,,,,,,,,,,,,,,,,,,,,,,,,,,,,,,,,,,,,,,,,,,,,,,,,,,,,,,,,,,,,,,,,,,,,,,,,,,,,,,,,,,,,,,,,,,,,,,,,,,,,,,
,,5f80a6f92dac9e105a84b405,2024-02-18_20h14.18.421,kallum_motion_pilot,2023.2.2,Win32,144.9275362,5f80a6f92dac9e105a84b405,65d2b6c8f2eece985d8e374c,65d2b96fcf2bb0e35ac16fef,0.0366,0.0366,1,55,217,5,1,threefour,,,,,,,,,,,,,,,,,,,,,,,,,,,,,,,,,,,,,,,,,,,,,,,,,,,,,,,,,,,,,,,,,,,,,,,,,,,,,,,,,,,,,,,,,,,,,,,,,,,,,,,,,,,,,,,,,,,,,,,,,,,,,,,,,,,,,,,,,
,,5f80a6f92dac9e105a84b405,2024-02-18_20h14.18.421,kallum_motion_pilot,2023.2.2,Win32,144.9275362,5f80a6f92dac9e105a84b405,65d2b6c8f2eece985d8e374c,65d2b96fcf2bb0e35ac16fef,0.0366,0.0367,1,56,218,135,1,eightseven,,,,,,,,,,,,,,,,,,,,,,,,,,,,,,,,,,,,,,,,,,,,,,,,,,,,,,,,,,,,,,,,,,,,,,,,,,,,,,,,,,,,,,,,,,,,,,,,,,,,,,,,,,,,,,,,,,,,,,,,,,,,,,,,,,,,,,,,,
,,5f80a6f92dac9e105a84b405,2024-02-18_20h14.18.421,kallum_motion_pilot,2023.2.2,Win32,144.9275362,5f80a6f92dac9e105a84b405,65d2b6c8f2eece985d8e374c,65d2b96fcf2bb0e35ac16fef,0.0367,0.0367,1,57,219,37,1,threefour,,,,,,,,,,,,,,,,,,,,,,,,,,,,,,,,,,,,,,,,,,,,,,,,,,,,,,,,,,,,,,,,,,,,,,,,,,,,,,,,,,,,,,,,,,,,,,,,,,,,,,,,,,,,,,,,,,,,,,,,,,,,,,,,,,,,,,,,,
,,5f80a6f92dac9e105a84b405,2024-02-18_20h14.18.421,kallum_motion_pilot,2023.2.2,Win32,144.9275362,5f80a6f92dac9e105a84b405,65d2b6c8f2eece985d8e374c,65d2b96fcf2bb0e35ac16fef,0.0368,0.0368,1,58,220,99,1,sixeight,,,,,,,,,,,,,,,,,,,,,,,,,,,,,,,,,,,,,,,,,,,,,,,,,,,,,,,,,,,,,,,,,,,,,,,,,,,,,,,,,,,,,,,,,,,,,,,,,,,,,,,,,,,,,,,,,,,,,,,,,,,,,,,,,,,,,,,,,
,,5f80a6f92dac9e105a84b405,2024-02-18_20h14.18.421,kallum_motion_pilot,2023.2.2,Win32,144.9275362,5f80a6f92dac9e105a84b405,65d2b6c8f2eece985d8e374c,65d2b96fcf2bb0e35ac16fef,0.0368,0.0368,1,59,221,34,1,twoone,,,,,,,,,,,,,,,,,,,,,,,,,,,,,,,,,,,,,,,,,,,,,,,,,,,,,,,,,,,,,,,,,,,,,,,,,,,,,,,,,,,,,,,,,,,,,,,,,,,,,,,,,,,,,,,,,,,,,,,,,,,,,,,,,,,,,,,,,
,,5f80a6f92dac9e105a84b405,2024-02-18_20h14.18.421,kallum_motion_pilot,2023.2.2,Win32,144.9275362,5f80a6f92dac9e105a84b405,65d2b6c8f2eece985d8e374c,65d2b96fcf2bb0e35ac16fef,0.0369,0.0369,1,60,222,74,1,twoone,,,,,,,,,,,,,,,,,,,,,,,,,,,,,,,,,,,,,,,,,,,,,,,,,,,,,,,,,,,,,,,,,,,,,,,,,,,,,,,,,,,,,,,,,,,,,,,,,,,,,,,,,,,,,,,,,,,,,,,,,,,,,,,,,,,,,,,,,
,,5f80a6f92dac9e105a84b405,2024-02-18_20h14.18.421,kallum_motion_pilot,2023.2.2,Win32,144.9275362,5f80a6f92dac9e105a84b405,65d2b6c8f2eece985d8e374c,65d2b96fcf2bb0e35ac16fef,0.0369,0.0369,1,61,223,62,1,fourtwo,,,,,,,,,,,,,,,,,,,,,,,,,,,,,,,,,,,,,,,,,,,,,,,,,,,,,,,,,,,,,,,,,,,,,,,,,,,,,,,,,,,,,,,,,,,,,,,,,,,,,,,,,,,,,,,,,,,,,,,,,,,,,,,,,,,,,,,,,
,,5f80a6f92dac9e105a84b405,2024-02-18_20h14.18.421,kallum_motion_pilot,2023.2.2,Win32,144.9275362,5f80a6f92dac9e105a84b405,65d2b6c8f2eece985d8e374c,65d2b96fcf2bb0e35ac16fef,0.0369,0.037,1,62,224,120,1,fivesix,,,,,,,,,,,,,,,,,,,,,,,,,,,,,,,,,,,,,,,,,,,,,,,,,,,,,,,,,,,,,,,,,,,,,,,,,,,,,,,,,,,,,,,,,,,,,,,,,,,,,,,,,,,,,,,,,,,,,,,,,,,,,,,,,,,,,,,,,
,,5f80a6f92dac9e105a84b405,2024-02-18_20h14.18.421,kallum_motion_pilot,2023.2.2,Win32,144.9275362,5f80a6f92dac9e105a84b405,65d2b6c8f2eece985d8e374c,65d2b96fcf2bb0e35ac16fef,0.037,0.037,1,63,225,106,1,sixfive,,,,,,,,,,,,,,,,,,,,,,,,,,,,,,,,,,,,,,,,,,,,,,,,,,,,,,,,,,,,,,,,,,,,,,,,,,,,,,,,,,,,,,,,,,,,,,,,,,,,,,,,,,,,,,,,,,,,,,,,,,,,,,,,,,,,,,,,,
,,5f80a6f92dac9e105a84b405,2024-02-18_20h14.18.421,kallum_motion_pilot,2023.2.2,Win32,144.9275362,5f80a6f92dac9e105a84b405,65d2b6c8f2eece985d8e374c,65d2b96fcf2bb0e35ac16fef,0.0371,0.0371,1,64,226,64,1,onetwo,,,,,,,,,,,,,,,,,,,,,,,,,,,,,,,,,,,,,,,,,,,,,,,,,,,,,,,,,,,,,,,,,,,,,,,,,,,,,,,,,,,,,,,,,,,,,,,,,,,,,,,,,,,,,,,,,,,,,,,,,,,,,,,,,,,,,,,,,
,,5f80a6f92dac9e105a84b405,2024-02-18_20h14.18.421,kallum_motion_pilot,2023.2.2,Win32,144.9275362,5f80a6f92dac9e105a84b405,65d2b6c8f2eece985d8e374c,65d2b96fcf2bb0e35ac16fef,0.0371,0.0371,1,65,227,115,1,sixeight,,,,,,,,,,,,,,,,,,,,,,,,,,,,,,,,,,,,,,,,,,,,,,,,,,,,,,,,,,,,,,,,,,,,,,,,,,,,,,,,,,,,,,,,,,,,,,,,,,,,,,,,,,,,,,,,,,,,,,,,,,,,,,,,,,,,,,,,,
,,5f80a6f92dac9e105a84b405,2024-02-18_20h14.18.421,kallum_motion_pilot,2023.2.2,Win32,144.9275362,5f80a6f92dac9e105a84b405,65d2b6c8f2eece985d8e374c,65d2b96fcf2bb0e35ac16fef,0.0371,0.0372,1,66,228,83,1,sixeight,,,,,,,,,,,,,,,,,,,,,,,,,,,,,,,,,,,,,,,,,,,,,,,,,,,,,,,,,,,,,,,,,,,,,,,,,,,,,,,,,,,,,,,,,,,,,,,,,,,,,,,,,,,,,,,,,,,,,,,,,,,,,,,,,,,,,,,,,
,,5f80a6f92dac9e105a84b405,2024-02-18_20h14.18.421,kallum_motion_pilot,2023.2.2,Win32,144.9275362,5f80a6f92dac9e105a84b405,65d2b6c8f2eece985d8e374c,65d2b96fcf2bb0e35ac16fef,0.0372,0.0372,1,67,229,141,1,seveneight,,,,,,,,,,,,,,,,,,,,,,,,,,,,,,,,,,,,,,,,,,,,,,,,,,,,,,,,,,,,,,,,,,,,,,,,,,,,,,,,,,,,,,,,,,,,,,,,,,,,,,,,,,,,,,,,,,,,,,,,,,,,,,,,,,,,,,,,,
,,5f80a6f92dac9e105a84b405,2024-02-18_20h14.18.421,kallum_motion_pilot,2023.2.2,Win32,144.9275362,5f80a6f92dac9e105a84b405,65d2b6c8f2eece985d8e374c,65d2b96fcf2bb0e35ac16fef,0.0372,0.0373,1,68,230,56,1,onetwo,,,,,,,,,,,,,,,,,,,,,,,,,,,,,,,,,,,,,,,,,,,,,,,,,,,,,,,,,,,,,,,,,,,,,,,,,,,,,,,,,,,,,,,,,,,,,,,,,,,,,,,,,,,,,,,,,,,,,,,,,,,,,,,,,,,,,,,,,
,,5f80a6f92dac9e105a84b405,2024-02-18_20h14.18.421,kallum_motion_pilot,2023.2.2,Win32,144.9275362,5f80a6f92dac9e105a84b405,65d2b6c8f2eece985d8e374c,65d2b96fcf2bb0e35ac16fef,0.0373,0.0374,1,69,231,157,1,seveneight,,,,,,,,,,,,,,,,,,,,,,,,,,,,,,,,,,,,,,,,,,,,,,,,,,,,,,,,,,,,,,,,,,,,,,,,,,,,,,,,,,,,,,,,,,,,,,,,,,,,,,,,,,,,,,,,,,,,,,,,,,,,,,,,,,,,,,,,,
,,5f80a6f92dac9e105a84b405,2024-02-18_20h14.18.421,kallum_motion_pilot,2023.2.2,Win32,144.9275362,5f80a6f92dac9e105a84b405,65d2b6c8f2eece985d8e374c,65d2b96fcf2bb0e35ac16fef,0.0374,0.0374,1,70,232,148,1,sevenfive,,,,,,,,,,,,,,,,,,,,,,,,,,,,,,,,,,,,,,,,,,,,,,,,,,,,,,,,,,,,,,,,,,,,,,,,,,,,,,,,,,,,,,,,,,,,,,,,,,,,,,,,,,,,,,,,,,,,,,,,,,,,,,,,,,,,,,,,,
,,5f80a6f92dac9e105a84b405,2024-02-18_20h14.18.421,kallum_motion_pilot,2023.2.2,Win32,144.9275362,5f80a6f92dac9e105a84b405,65d2b6c8f2eece985d8e374c,65d2b96fcf2bb0e35ac16fef,0.0375,0.0375,1,71,233,147,1,sixeight,,,,,,,,,,,,,,,,,,,,,,,,,,,,,,,,,,,,,,,,,,,,,,,,,,,,,,,,,,,,,,,,,,,,,,,,,,,,,,,,,,,,,,,,,,,,,,,,,,,,,,,,,,,,,,,,,,,,,,,,,,,,,,,,,,,,,,,,,
,,5f80a6f92dac9e105a84b405,2024-02-18_20h14.18.421,kallum_motion_pilot,2023.2.2,Win32,144.9275362,5f80a6f92dac9e105a84b405,65d2b6c8f2eece985d8e374c,65d2b96fcf2bb0e35ac16fef,0.0375,0.0375,1,72,234,123,1,sixeight,,,,,,,,,,,,,,,,,,,,,,,,,,,,,,,,,,,,,,,,,,,,,,,,,,,,,,,,,,,,,,,,,,,,,,,,,,,,,,,,,,,,,,,,,,,,,,,,,,,,,,,,,,,,,,,,,,,,,,,,,,,,,,,,,,,,,,,,,
,,5f80a6f92dac9e105a84b405,2024-02-18_20h14.18.421,kallum_motion_pilot,2023.2.2,Win32,144.9275362,5f80a6f92dac9e105a84b405,65d2b6c8f2eece985d8e374c,65d2b96fcf2bb0e35ac16fef,0.0376,0.0376,1,73,235,133,1,seveneight,,,,,,,,,,,,,,,,,,,,,,,,,,,,,,,,,,,,,,,,,,,,,,,,,,,,,,,,,,,,,,,,,,,,,,,,,,,,,,,,,,,,,,,,,,,,,,,,,,,,,,,,,,,,,,,,,,,,,,,,,,,,,,,,,,,,,,,,,
,,5f80a6f92dac9e105a84b405,2024-02-18_20h14.18.421,kallum_motion_pilot,2023.2.2,Win32,144.9275362,5f80a6f92dac9e105a84b405,65d2b6c8f2eece985d8e374c,65d2b96fcf2bb0e35ac16fef,0.0376,0.0376,1,74,236,22,1,fourtwo,,,,,,,,,,,,,,,,,,,,,,,,,,,,,,,,,,,,,,,,,,,,,,,,,,,,,,,,,,,,,,,,,,,,,,,,,,,,,,,,,,,,,,,,,,,,,,,,,,,,,,,,,,,,,,,,,,,,,,,,,,,,,,,,,,,,,,,,,
,,5f80a6f92dac9e105a84b405,2024-02-18_20h14.18.421,kallum_motion_pilot,2023.2.2,Win32,144.9275362,5f80a6f92dac9e105a84b405,65d2b6c8f2eece985d8e374c,65d2b96fcf2bb0e35ac16fef,0.0377,0.0377,1,75,237,105,1,fiveseven,,,,,,,,,,,,,,,,,,,,,,,,,,,,,,,,,,,,,,,,,,,,,,,,,,,,,,,,,,,,,,,,,,,,,,,,,,,,,,,,,,,,,,,,,,,,,,,,,,,,,,,,,,,,,,,,,,,,,,,,,,,,,,,,,,,,,,,,,
,,5f80a6f92dac9e105a84b405,2024-02-18_20h14.18.421,kallum_motion_pilot,2023.2.2,Win32,144.9275362,5f80a6f92dac9e105a84b405,65d2b6c8f2eece985d8e374c,65d2b96fcf2bb0e35ac16fef,0.0378,0.0378,1,76,238,18,1,twoone,,,,,,,,,,,,,,,,,,,,,,,,,,,,,,,,,,,,,,,,,,,,,,,,,,,,,,,,,,,,,,,,,,,,,,,,,,,,,,,,,,,,,,,,,,,,,,,,,,,,,,,,,,,,,,,,,,,,,,,,,,,,,,,,,,,,,,,,,
,,5f80a6f92dac9e105a84b405,2024-02-18_20h14.18.421,kallum_motion_pilot,2023.2.2,Win32,144.9275362,5f80a6f92dac9e105a84b405,65d2b6c8f2eece985d8e374c,65d2b96fcf2bb0e35ac16fef,0.0378,0.0378,1,77,239,55,1,fourthree,,,,,,,,,,,,,,,,,,,,,,,,,,,,,,,,,,,,,,,,,,,,,,,,,,,,,,,,,,,,,,,,,,,,,,,,,,,,,,,,,,,,,,,,,,,,,,,,,,,,,,,,,,,,,,,,,,,,,,,,,,,,,,,,,,,,,,,,,
,,5f80a6f92dac9e105a84b405,2024-02-18_20h14.18.421,kallum_motion_pilot,2023.2.2,Win32,144.9275362,5f80a6f92dac9e105a84b405,65d2b6c8f2eece985d8e374c,65d2b96fcf2bb0e35ac16fef,0.0378,0.0378,1,78,240,121,1,fiveseven,,,,,,,,,,,,,,,,,,,,,,,,,,,,,,,,,,,,,,,,,,,,,,,,,,,,,,,,,,,,,,,,,,,,,,,,,,,,,,,,,,,,,,,,,,,,,,,,,,,,,,,,,,,,,,,,,,,,,,,,,,,,,,,,,,,,,,,,,
,,5f80a6f92dac9e105a84b405,2024-02-18_20h14.18.421,kallum_motion_pilot,2023.2.2,Win32,144.9275362,5f80a6f92dac9e105a84b405,65d2b6c8f2eece985d8e374c,65d2b96fcf2bb0e35ac16fef,0.0378,0.0379,1,79,241,47,1,fourthree,,,,,,,,,,,,,,,,,,,,,,,,,,,,,,,,,,,,,,,,,,,,,,,,,,,,,,,,,,,,,,,,,,,,,,,,,,,,,,,,,,,,,,,,,,,,,,,,,,,,,,,,,,,,,,,,,,,,,,,,,,,,,,,,,,,,,,,,,
,,5f80a6f92dac9e105a84b405,2024-02-18_20h14.18.421,kallum_motion_pilot,2023.2.2,Win32,144.9275362,5f80a6f92dac9e105a84b405,65d2b6c8f2eece985d8e374c,65d2b96fcf2bb0e35ac16fef,0.038,0.038,1,80,242,151,1,eightseven,,,,,,,,,,,,,,,,,,,,,,,,,,,,,,,,,,,,,,,,,,,,,,,,,,,,,,,,,,,,,,,,,,,,,,,,,,,,,,,,,,,,,,,,,,,,,,,,,,,,,,,,,,,,,,,,,,,,,,,,,,,,,,,,,,,,,,,,,
,,5f80a6f92dac9e105a84b405,2024-02-18_20h14.18.421,kallum_motion_pilot,2023.2.2,Win32,144.9275362,5f80a6f92dac9e105a84b405,65d2b6c8f2eece985d8e374c,65d2b96fcf2bb0e35ac16fef,0.038,0.038,1,81,243,100,1,sevenfive,,,,,,,,,,,,,,,,,,,,,,,,,,,,,,,,,,,,,,,,,,,,,,,,,,,,,,,,,,,,,,,,,,,,,,,,,,,,,,,,,,,,,,,,,,,,,,,,,,,,,,,,,,,,,,,,,,,,,,,,,,,,,,,,,,,,,,,,,
,,5f80a6f92dac9e105a84b405,2024-02-18_20h14.18.421,kallum_motion_pilot,2023.2.2,Win32,144.9275362,5f80a6f92dac9e105a84b405,65d2b6c8f2eece985d8e374c,65d2b96fcf2bb0e35ac16fef,0.038,0.0381,1,82,244,92,1,sevenfive,,,,,,,,,,,,,,,,,,,,,,,,,,,,,,,,,,,,,,,,,,,,,,,,,,,,,,,,,,,,,,,,,,,,,,,,,,,,,,,,,,,,,,,,,,,,,,,,,,,,,,,,,,,,,,,,,,,,,,,,,,,,,,,,,,,,,,,,,
,,5f80a6f92dac9e105a84b405,2024-02-18_20h14.18.421,kallum_motion_pilot,2023.2.2,Win32,144.9275362,5f80a6f92dac9e105a84b405,65d2b6c8f2eece985d8e374c,65d2b96fcf2bb0e35ac16fef,0.0381,0.0382,1,83,245,158,1,eightsix,,,,,,,,,,,,,,,,,,,,,,,,,,,,,,,,,,,,,,,,,,,,,,,,,,,,,,,,,,,,,,,,,,,,,,,,,,,,,,,,,,,,,,,,,,,,,,,,,,,,,,,,,,,,,,,,,,,,,,,,,,,,,,,,,,,,,,,,,
,,5f80a6f92dac9e105a84b405,2024-02-18_20h14.18.421,kallum_motion_pilot,2023.2.2,Win32,144.9275362,5f80a6f92dac9e105a84b405,65d2b6c8f2eece985d8e374c,65d2b96fcf2bb0e35ac16fef,0.0382,0.0382,1,84,246,4,1,threeone,,,,,,,,,,,,,,,,,,,,,,,,,,,,,,,,,,,,,,,,,,,,,,,,,,,,,,,,,,,,,,,,,,,,,,,,,,,,,,,,,,,,,,,,,,,,,,,,,,,,,,,,,,,,,,,,,,,,,,,,,,,,,,,,,,,,,,,,,
,,5f80a6f92dac9e105a84b405,2024-02-18_20h14.18.421,kallum_motion_pilot,2023.2.2,Win32,144.9275362,5f80a6f92dac9e105a84b405,65d2b6c8f2eece985d8e374c,65d2b96fcf2bb0e35ac16fef,0.0382,0.0382,1,85,247,94,1,eightsix,,,,,,,,,,,,,,,,,,,,,,,,,,,,,,,,,,,,,,,,,,,,,,,,,,,,,,,,,,,,,,,,,,,,,,,,,,,,,,,,,,,,,,,,,,,,,,,,,,,,,,,,,,,,,,,,,,,,,,,,,,,,,,,,,,,,,,,,,
,,5f80a6f92dac9e105a84b405,2024-02-18_20h14.18.421,kallum_motion_pilot,2023.2.2,Win32,144.9275362,5f80a6f92dac9e105a84b405,65d2b6c8f2eece985d8e374c,65d2b96fcf2bb0e35ac16fef,0.0382,0.0383,1,86,248,79,1,eightseven,,,,,,,,,,,,,,,,,,,,,,,,,,,,,,,,,,,,,,,,,,,,,,,,,,,,,,,,,,,,,,,,,,,,,,,,,,,,,,,,,,,,,,,,,,,,,,,,,,,,,,,,,,,,,,,,,,,,,,,,,,,,,,,,,,,,,,,,,
,,5f80a6f92dac9e105a84b405,2024-02-18_20h14.18.421,kallum_motion_pilot,2023.2.2,Win32,144.9275362,5f80a6f92dac9e105a84b405,65d2b6c8f2eece985d8e374c,65d2b96fcf2bb0e35ac16fef,0.0383,0.0384,1,87,249,137,1,fiveseven,,,,,,,,,,,,,,,,,,,,,,,,,,,,,,,,,,,,,,,,,,,,,,,,,,,,,,,,,,,,,,,,,,,,,,,,,,,,,,,,,,,,,,,,,,,,,,,,,,,,,,,,,,,,,,,,,,,,,,,,,,,,,,,,,,,,,,,,,
,,5f80a6f92dac9e105a84b405,2024-02-18_20h14.18.421,kallum_motion_pilot,2023.2.2,Win32,144.9275362,5f80a6f92dac9e105a84b405,65d2b6c8f2eece985d8e374c,65d2b96fcf2bb0e35ac16fef,0.0384,0.0384,1,88,250,70,1,fourtwo,,,,,,,,,,,,,,,,,,,,,,,,,,,,,,,,,,,,,,,,,,,,,,,,,,,,,,,,,,,,,,,,,,,,,,,,,,,,,,,,,,,,,,,,,,,,,,,,,,,,,,,,,,,,,,,,,,,,,,,,,,,,,,,,,,,,,,,,,
,,5f80a6f92dac9e105a84b405,2024-02-18_20h14.18.421,kallum_motion_pilot,2023.2.2,Win32,144.9275362,5f80a6f92dac9e105a84b405,65d2b6c8f2eece985d8e374c,65d2b96fcf2bb0e35ac16fef,0.0385,0.0385,1,89,251,144,1,fivesix,,,,,,,,,,,,,,,,,,,,,,,,,,,,,,,,,,,,,,,,,,,,,,,,,,,,,,,,,,,,,,,,,,,,,,,,,,,,,,,,,,,,,,,,,,,,,,,,,,,,,,,,,,,,,,,,,,,,,,,,,,,,,,,,,,,,,,,,,
,,5f80a6f92dac9e105a84b405,2024-02-18_20h14.18.421,kallum_motion_pilot,2023.2.2,Win32,144.9275362,5f80a6f92dac9e105a84b405,65d2b6c8f2eece985d8e374c,65d2b96fcf2bb0e35ac16fef,0.0385,0.0385,1,90,252,82,1,sixfive,,,,,,,,,,,,,,,,,,,,,,,,,,,,,,,,,,,,,,,,,,,,,,,,,,,,,,,,,,,,,,,,,,,,,,,,,,,,,,,,,,,,,,,,,,,,,,,,,,,,,,,,,,,,,,,,,,,,,,,,,,,,,,,,,,,,,,,,,
,,5f80a6f92dac9e105a84b405,2024-02-18_20h14.18.421,kallum_motion_pilot,2023.2.2,Win32,144.9275362,5f80a6f92dac9e105a84b405,65d2b6c8f2eece985d8e374c,65d2b96fcf2bb0e35ac16fef,0.0386,0.0386,1,91,253,26,1,twoone,,,,,,,,,,,,,,,,,,,,,,,,,,,,,,,,,,,,,,,,,,,,,,,,,,,,,,,,,,,,,,,,,,,,,,,,,,,,,,,,,,,,,,,,,,,,,,,,,,,,,,,,,,,,,,,,,,,,,,,,,,,,,,,,,,,,,,,,,
,,5f80a6f92dac9e105a84b405,2024-02-18_20h14.18.421,kallum_motion_pilot,2023.2.2,Win32,144.9275362,5f80a6f92dac9e105a84b405,65d2b6c8f2eece985d8e374c,65d2b96fcf2bb0e35ac16fef,0.0386,0.0386,1,92,254,11,1,twofour,,,,,,,,,,,,,,,,,,,,,,,,,,,,,,,,,,,,,,,,,,,,,,,,,,,,,,,,,,,,,,,,,,,,,,,,,,,,,,,,,,,,,,,,,,,,,,,,,,,,,,,,,,,,,,,,,,,,,,,,,,,,,,,,,,,,,,,,,
,,5f80a6f92dac9e105a84b405,2024-02-18_20h14.18.421,kallum_motion_pilot,2023.2.2,Win32,144.9275362,5f80a6f92dac9e105a84b405,65d2b6c8f2eece985d8e374c,65d2b96fcf2bb0e35ac16fef,0.0387,0.0387,1,93,255,114,1,sixfive,,,,,,,,,,,,,,,,,,,,,,,,,,,,,,,,,,,,,,,,,,,,,,,,,,,,,,,,,,,,,,,,,,,,,,,,,,,,,,,,,,,,,,,,,,,,,,,,,,,,,,,,,,,,,,,,,,,,,,,,,,,,,,,,,,,,,,,,,
,,5f80a6f92dac9e105a84b405,2024-02-18_20h14.18.421,kallum_motion_pilot,2023.2.2,Win32,144.9275362,5f80a6f92dac9e105a84b405,65d2b6c8f2eece985d8e374c,65d2b96fcf2bb0e35ac16fef,0.0387,0.0388,1,94,256,134,1,eightsix,,,,,,,,,,,,,,,,,,,,,,,,,,,,,,,,,,,,,,,,,,,,,,,,,,,,,,,,,,,,,,,,,,,,,,,,,,,,,,,,,,,,,,,,,,,,,,,,,,,,,,,,,,,,,,,,,,,,,,,,,,,,,,,,,,,,,,,,,
,,5f80a6f92dac9e105a84b405,2024-02-18_20h14.18.421,kallum_motion_pilot,2023.2.2,Win32,144.9275362,5f80a6f92dac9e105a84b405,65d2b6c8f2eece985d8e374c,65d2b96fcf2bb0e35ac16fef,0.0389,0.0389,1,95,257,122,1,sixfive,,,,,,,,,,,,,,,,,,,,,,,,,,,,,,,,,,,,,,,,,,,,,,,,,,,,,,,,,,,,,,,,,,,,,,,,,,,,,,,,,,,,,,,,,,,,,,,,,,,,,,,,,,,,,,,,,,,,,,,,,,,,,,,,,,,,,,,,,
,,5f80a6f92dac9e105a84b405,2024-02-18_20h14.18.421,kallum_motion_pilot,2023.2.2,Win32,144.9275362,5f80a6f92dac9e105a84b405,65d2b6c8f2eece985d8e374c,65d2b96fcf2bb0e35ac16fef,0.0389,0.0389,1,96,258,78,1,fourtwo,,,,,,,,,,,,,,,,,,,,,,,,,,,,,,,,,,,,,,,,,,,,,,,,,,,,,,,,,,,,,,,,,,,,,,,,,,,,,,,,,,,,,,,,,,,,,,,,,,,,,,,,,,,,,,,,,,,,,,,,,,,,,,,,,,,,,,,,,
,,5f80a6f92dac9e105a84b405,2024-02-18_20h14.18.421,kallum_motion_pilot,2023.2.2,Win32,144.9275362,5f80a6f92dac9e105a84b405,65d2b6c8f2eece985d8e374c,65d2b96fcf2bb0e35ac16fef,0.0389,0.0389,1,97,259,156,1,sevenfive,,,,,,,,,,,,,,,,,,,,,,,,,,,,,,,,,,,,,,,,,,,,,,,,,,,,,,,,,,,,,,,,,,,,,,,,,,,,,,,,,,,,,,,,,,,,,,,,,,,,,,,,,,,,,,,,,,,,,,,,,,,,,,,,,,,,,,,,,
,,5f80a6f92dac9e105a84b405,2024-02-18_20h14.18.421,kallum_motion_pilot,2023.2.2,Win32,144.9275362,5f80a6f92dac9e105a84b405,65d2b6c8f2eece985d8e374c,65d2b96fcf2bb0e35ac16fef,0.0389,0.039,1,98,260,13,1,threefour,,,,,,,,,,,,,,,,,,,,,,,,,,,,,,,,,,,,,,,,,,,,,,,,,,,,,,,,,,,,,,,,,,,,,,,,,,,,,,,,,,,,,,,,,,,,,,,,,,,,,,,,,,,,,,,,,,,,,,,,,,,,,,,,,,,,,,,,,
,,5f80a6f92dac9e105a84b405,2024-02-18_20h14.18.421,kallum_motion_pilot,2023.2.2,Win32,144.9275362,5f80a6f92dac9e105a84b405,65d2b6c8f2eece985d8e374c,65d2b96fcf2bb0e35ac16fef,0.039,0.039,1,99,261,77,1,threefour,,,,,,,,,,,,,,,,,,,,,,,,,,,,,,,,,,,,,,,,,,,,,,,,,,,,,,,,,,,,,,,,,,,,,,,,,,,,,,,,,,,,,,,,,,,,,,,,,,,,,,,,,,,,,,,,,,,,,,,,,,,,,,,,,,,,,,,,,
,,5f80a6f92dac9e105a84b405,2024-02-18_20h14.18.421,kallum_motion_pilot,2023.2.2,Win32,144.9275362,5f80a6f92dac9e105a84b405,65d2b6c8f2eece985d8e374c,65d2b96fcf2bb0e35ac16fef,0.0391,0.0391,1,100,262,65,1,onethree,,,,,,,,,,,,,,,,,,,,,,,,,,,,,,,,,,,,,,,,,,,,,,,,,,,,,,,,,,,,,,,,,,,,,,,,,,,,,,,,,,,,,,,,,,,,,,,,,,,,,,,,,,,,,,,,,,,,,,,,,,,,,,,,,,,,,,,,,
,,5f80a6f92dac9e105a84b405,2024-02-18_20h14.18.421,kallum_motion_pilot,2023.2.2,Win32,144.9275362,5f80a6f92dac9e105a84b405,65d2b6c8f2eece985d8e374c,65d2b96fcf2bb0e35ac16fef,0.0392,0.0392,1,101,263,71,1,fourthree,,,,,,,,,,,,,,,,,,,,,,,,,,,,,,,,,,,,,,,,,,,,,,,,,,,,,,,,,,,,,,,,,,,,,,,,,,,,,,,,,,,,,,,,,,,,,,,,,,,,,,,,,,,,,,,,,,,,,,,,,,,,,,,,,,,,,,,,,
,,5f80a6f92dac9e105a84b405,2024-02-18_20h14.18.421,kallum_motion_pilot,2023.2.2,Win32,144.9275362,5f80a6f92dac9e105a84b405,65d2b6c8f2eece985d8e374c,65d2b96fcf2bb0e35ac16fef,0.0393,0.0393,1,102,264,81,1,fiveseven,,,,,,,,,,,,,,,,,,,,,,,,,,,,,,,,,,,,,,,,,,,,,,,,,,,,,,,,,,,,,,,,,,,,,,,,,,,,,,,,,,,,,,,,,,,,,,,,,,,,,,,,,,,,,,,,,,,,,,,,,,,,,,,,,,,,,,,,,
,,5f80a6f92dac9e105a84b405,2024-02-18_20h14.18.421,kallum_motion_pilot,2023.2.2,Win32,144.9275362,5f80a6f92dac9e105a84b405,65d2b6c8f2eece985d8e374c,65d2b96fcf2bb0e35ac16fef,0.0393,0.0394,1,103,265,43,1,twofour,,,,,,,,,,,,,,,,,,,,,,,,,,,,,,,,,,,,,,,,,,,,,,,,,,,,,,,,,,,,,,,,,,,,,,,,,,,,,,,,,,,,,,,,,,,,,,,,,,,,,,,,,,,,,,,,,,,,,,,,,,,,,,,,,,,,,,,,,
,,5f80a6f92dac9e105a84b405,2024-02-18_20h14.18.421,kallum_motion_pilot,2023.2.2,Win32,144.9275362,5f80a6f92dac9e105a84b405,65d2b6c8f2eece985d8e374c,65d2b96fcf2bb0e35ac16fef,0.0394,0.0395,1,104,266,14,1,fourtwo,,,,,,,,,,,,,,,,,,,,,,,,,,,,,,,,,,,,,,,,,,,,,,,,,,,,,,,,,,,,,,,,,,,,,,,,,,,,,,,,,,,,,,,,,,,,,,,,,,,,,,,,,,,,,,,,,,,,,,,,,,,,,,,,,,,,,,,,,
,,5f80a6f92dac9e105a84b405,2024-02-18_20h14.18.421,kallum_motion_pilot,2023.2.2,Win32,144.9275362,5f80a6f92dac9e105a84b405,65d2b6c8f2eece985d8e374c,65d2b96fcf2bb0e35ac16fef,0.0395,0.0395,1,105,267,153,1,fiveseven,,,,,,,,,,,,,,,,,,,,,,,,,,,,,,,,,,,,,,,,,,,,,,,,,,,,,,,,,,,,,,,,,,,,,,,,,,,,,,,,,,,,,,,,,,,,,,,,,,,,,,,,,,,,,,,,,,,,,,,,,,,,,,,,,,,,,,,,,
,,5f80a6f92dac9e105a84b405,2024-02-18_20h14.18.421,kallum_motion_pilot,2023.2.2,Win32,144.9275362,5f80a6f92dac9e105a84b405,65d2b6c8f2eece985d8e374c,65d2b96fcf2bb0e35ac16fef,0.0395,0.0396,1,106,268,32,1,onetwo,,,,,,,,,,,,,,,,,,,,,,,,,,,,,,,,,,,,,,,,,,,,,,,,,,,,,,,,,,,,,,,,,,,,,,,,,,,,,,,,,,,,,,,,,,,,,,,,,,,,,,,,,,,,,,,,,,,,,,,,,,,,,,,,,,,,,,,,,
,,5f80a6f92dac9e105a84b405,2024-02-18_20h14.18.421,kallum_motion_pilot,2023.2.2,Win32,144.9275362,5f80a6f92dac9e105a84b405,65d2b6c8f2eece985d8e374c,65d2b96fcf2bb0e35ac16fef,0.0396,0.0396,1,107,269,80,1,fivesix,,,,,,,,,,,,,,,,,,,,,,,,,,,,,,,,,,,,,,,,,,,,,,,,,,,,,,,,,,,,,,,,,,,,,,,,,,,,,,,,,,,,,,,,,,,,,,,,,,,,,,,,,,,,,,,,,,,,,,,,,,,,,,,,,,,,,,,,,
,,5f80a6f92dac9e105a84b405,2024-02-18_20h14.18.421,kallum_motion_pilot,2023.2.2,Win32,144.9275362,5f80a6f92dac9e105a84b405,65d2b6c8f2eece985d8e374c,65d2b96fcf2bb0e35ac16fef,0.0396,0.0397,1,108,270,20,1,threeone,,,,,,,,,,,,,,,,,,,,,,,,,,,,,,,,,,,,,,,,,,,,,,,,,,,,,,,,,,,,,,,,,,,,,,,,,,,,,,,,,,,,,,,,,,,,,,,,,,,,,,,,,,,,,,,,,,,,,,,,,,,,,,,,,,,,,,,,,
,,5f80a6f92dac9e105a84b405,2024-02-18_20h14.18.421,kallum_motion_pilot,2023.2.2,Win32,144.9275362,5f80a6f92dac9e105a84b405,65d2b6c8f2eece985d8e374c,65d2b96fcf2bb0e35ac16fef,0.0397,0.0397,1,109,271,149,1,seveneight,,,,,,,,,,,,,,,,,,,,,,,,,,,,,,,,,,,,,,,,,,,,,,,,,,,,,,,,,,,,,,,,,,,,,,,,,,,,,,,,,,,,,,,,,,,,,,,,,,,,,,,,,,,,,,,,,,,,,,,,,,,,,,,,,,,,,,,,,
,,5f80a6f92dac9e105a84b405,2024-02-18_20h14.18.421,kallum_motion_pilot,2023.2.2,Win32,144.9275362,5f80a6f92dac9e105a84b405,65d2b6c8f2eece985d8e374c,65d2b96fcf2bb0e35ac16fef,0.0398,0.0398,1,110,272,113,1,fiveseven,,,,,,,,,,,,,,,,,,,,,,,,,,,,,,,,,,,,,,,,,,,,,,,,,,,,,,,,,,,,,,,,,,,,,,,,,,,,,,,,,,,,,,,,,,,,,,,,,,,,,,,,,,,,,,,,,,,,,,,,,,,,,,,,,,,,,,,,,
,,5f80a6f92dac9e105a84b405,2024-02-18_20h14.18.421,kallum_motion_pilot,2023.2.2,Win32,144.9275362,5f80a6f92dac9e105a84b405,65d2b6c8f2eece985d8e374c,65d2b96fcf2bb0e35ac16fef,0.0398,0.0399,1,111,273,10,1,twoone,,,,,,,,,,,,,,,,,,,,,,,,,,,,,,,,,,,,,,,,,,,,,,,,,,,,,,,,,,,,,,,,,,,,,,,,,,,,,,,,,,,,,,,,,,,,,,,,,,,,,,,,,,,,,,,,,,,,,,,,,,,,,,,,,,,,,,,,,
,,5f80a6f92dac9e105a84b405,2024-02-18_20h14.18.421,kallum_motion_pilot,2023.2.2,Win32,144.9275362,5f80a6f92dac9e105a84b405,65d2b6c8f2eece985d8e374c,65d2b96fcf2bb0e35ac16fef,0.0399,0.0399,1,112,274,27,1,twofour,,,,,,,,,,,,,,,,,,,,,,,,,,,,,,,,,,,,,,,,,,,,,,,,,,,,,,,,,,,,,,,,,,,,,,,,,,,,,,,,,,,,,,,,,,,,,,,,,,,,,,,,,,,,,,,,,,,,,,,,,,,,,,,,,,,,,,,,,
,,5f80a6f92dac9e105a84b405,2024-02-18_20h14.18.421,kallum_motion_pilot,2023.2.2,Win32,144.9275362,5f80a6f92dac9e105a84b405,65d2b6c8f2eece985d8e374c,65d2b96fcf2bb0e35ac16fef,0.04,0.04,1,113,275,38,1,fourtwo,,,,,,,,,,,,,,,,,,,,,,,,,,,,,,,,,,,,,,,,,,,,,,,,,,,,,,,,,,,,,,,,,,,,,,,,,,,,,,,,,,,,,,,,,,,,,,,,,,,,,,,,,,,,,,,,,,,,,,,,,,,,,,,,,,,,,,,,,
,,5f80a6f92dac9e105a84b405,2024-02-18_20h14.18.421,kallum_motion_pilot,2023.2.2,Win32,144.9275362,5f80a6f92dac9e105a84b405,65d2b6c8f2eece985d8e374c,65d2b96fcf2bb0e35ac16fef,0.04,0.04,1,114,276,142,1,eightsix,,,,,,,,,,,,,,,,,,,,,,,,,,,,,,,,,,,,,,,,,,,,,,,,,,,,,,,,,,,,,,,,,,,,,,,,,,,,,,,,,,,,,,,,,,,,,,,,,,,,,,,,,,,,,,,,,,,,,,,,,,,,,,,,,,,,,,,,,
,,5f80a6f92dac9e105a84b405,2024-02-18_20h14.18.421,kallum_motion_pilot,2023.2.2,Win32,144.9275362,5f80a6f92dac9e105a84b405,65d2b6c8f2eece985d8e374c,65d2b96fcf2bb0e35ac16fef,0.0401,0.0401,1,115,277,73,1,onethree,,,,,,,,,,,,,,,,,,,,,,,,,,,,,,,,,,,,,,,,,,,,,,,,,,,,,,,,,,,,,,,,,,,,,,,,,,,,,,,,,,,,,,,,,,,,,,,,,,,,,,,,,,,,,,,,,,,,,,,,,,,,,,,,,,,,,,,,,
