startup.started,startup.stopped,Prolific ID*,date,expName,psychopyVersion,OS,frameRate,participant,study_id,session,stimpositions.started,stimpositions.stopped,hardcoded_stimulus_positions.thisRepN,hardcoded_stimulus_positions.thisTrialN,hardcoded_stimulus_positions.thisN,hardcoded_stimulus_positions.thisIndex,hardcoded_stimulus_positions.ran,StimulusPos,stimorientation.started,stimorientation.stopped,prac_stimorientation_import_loop.thisRepN,prac_stimorientation_import_loop.thisTrialN,prac_stimorientation_import_loop.thisN,prac_stimorientation_import_loop.thisIndex,prac_stimorientation_import_loop.ran,Stimorientation,welcome_instr.started,welcome_instr.stopped,key_resp.keys,key_resp.rt,key_resp.duration,response_steppedout_1.started,response_steppedout_1.stopped,key_resp_20.keys,key_resp_20.rt,key_resp_20.duration,response_steppedout_2.started,response_steppedout_2.stopped,key_resp_19.keys,key_resp_19.rt,key_resp_19.duration,stim_response_instr.started,stim_response_instr.stopped,key_resp_15.keys,key_resp_15.rt,key_resp_15.duration,direction_instr_2.started,direction_instr_2.stopped,key_resp_9.keys,key_resp_9.rt,key_resp_9.duration,instr_prac.started,instr_prac.stopped,key_resp_10.keys,key_resp_10.rt,key_resp_10.duration,Stim1_display_prac.started,Stim1_display_prac.stopped,Ecc,Circle1_ori,Circle2_ori,response_prac.started,similarity,response_time,response_prac.stopped,mouse_5.x,mouse_5.y,mouse_5.leftButton,mouse_5.midButton,mouse_5.rightButton,mouse_5.clicked_name,responseprac_feedback.started,responseprac_feedback.stopped,summary2_prac.started,summary2_prac.stopped,mouse_6.x,mouse_6.y,mouse_6.leftButton,mouse_6.midButton,mouse_6.rightButton,mouse_6.clicked_name,duringprac.thisRepN,duringprac.thisTrialN,duringprac.thisN,duringprac.thisIndex,duringprac.ran,begin.started,begin.stopped,key_resp_22.keys,key_resp_22.rt,key_resp_22.duration,Stim1_display.started,Stim1_display.stopped,circle1_ori,circle2_ori,circle1_SF,circle2_SF,response.started,response.stopped,mouse.x,mouse.y,mouse.leftButton,mouse.midButton,mouse.rightButton,mouse.clicked_name,trialnumber,double_pass.thisRepN,double_pass.thisTrialN,double_pass.thisN,double_pass.thisIndex,double_pass.ran,double_pass.order,main_trial.thisRepN,main_trial.thisTrialN,main_trial.thisN,main_trial.thisIndex,main_trial.ran,main_trial.order,Trial_Counter,Catch,Frequencies,response_2.started,response_2.stopped,mouse_2.x,mouse_2.y,mouse_2.leftButton,mouse_2.midButton,mouse_2.rightButton,mouse_2.clicked_name,special_trial.started,special_trial.stopped,catch_1.started,catch_1.stopped,mouse_3.x,mouse_3.y,mouse_3.leftButton,mouse_3.midButton,mouse_3.rightButton,catchresponse,catchnumber,response_time_catch,response_sum.started,response_sum.stopped,mouse_11.x,mouse_11.y,mouse_11.leftButton,mouse_11.midButton,mouse_11.rightButton,flip_presentation_sequence_for_double_pass.started,flip_presentation_sequence_for_double_pass.stopped,goodbye.started,goodbye.stopped,key_resp_3.keys,key_resp_3.rt,key_resp_3.duration
0.0003,0.0004,5f823a9879e10536650a3d81,2024-02-22_03h18.36.907,kallum_motion_pilot,2023.2.2,Win32,12.65822785,5f823a9879e10536650a3d81,65d6bb0e977760de756971f7,65d6bce6972c1d2144b7f4c8,,,,,,,,,,,,,,,,,,,,,,,,,,,,,,,,,,,,,,,,,,,,,,,,,,,,,,,,,,,,,,,,,,,,,,,,,,,,,,,,,,,,,,,,,,,,,,,,,,,,,,,,,,,,,,,,,,,,,,,,,,,,,,,,,,,,,,,,,,,,,,,,,
,,5f823a9879e10536650a3d81,2024-02-22_03h18.36.907,kallum_motion_pilot,2023.2.2,Win32,12.65822785,5f823a9879e10536650a3d81,65d6bb0e977760de756971f7,65d6bce6972c1d2144b7f4c8,0.0196,0.0197,0,0,0,7,1,fourthree,,,,,,,,,,,,,,,,,,,,,,,,,,,,,,,,,,,,,,,,,,,,,,,,,,,,,,,,,,,,,,,,,,,,,,,,,,,,,,,,,,,,,,,,,,,,,,,,,,,,,,,,,,,,,,,,,,,,,,,,,,,,,,,,,,,,,,,,,
,,5f823a9879e10536650a3d81,2024-02-22_03h18.36.907,kallum_motion_pilot,2023.2.2,Win32,12.65822785,5f823a9879e10536650a3d81,65d6bb0e977760de756971f7,65d6bce6972c1d2144b7f4c8,0.0198,0.0198,0,1,1,75,1,twofour,,,,,,,,,,,,,,,,,,,,,,,,,,,,,,,,,,,,,,,,,,,,,,,,,,,,,,,,,,,,,,,,,,,,,,,,,,,,,,,,,,,,,,,,,,,,,,,,,,,,,,,,,,,,,,,,,,,,,,,,,,,,,,,,,,,,,,,,,
,,5f823a9879e10536650a3d81,2024-02-22_03h18.36.907,kallum_motion_pilot,2023.2.2,Win32,12.65822785,5f823a9879e10536650a3d81,65d6bb0e977760de756971f7,65d6bce6972c1d2144b7f4c8,0.0199,0.0199,0,2,2,138,1,sixfive,,,,,,,,,,,,,,,,,,,,,,,,,,,,,,,,,,,,,,,,,,,,,,,,,,,,,,,,,,,,,,,,,,,,,,,,,,,,,,,,,,,,,,,,,,,,,,,,,,,,,,,,,,,,,,,,,,,,,,,,,,,,,,,,,,,,,,,,,
,,5f823a9879e10536650a3d81,2024-02-22_03h18.36.907,kallum_motion_pilot,2023.2.2,Win32,12.65822785,5f823a9879e10536650a3d81,65d6bb0e977760de756971f7,65d6bce6972c1d2144b7f4c8,0.02,0.0201,0,3,3,150,1,eightsix,,,,,,,,,,,,,,,,,,,,,,,,,,,,,,,,,,,,,,,,,,,,,,,,,,,,,,,,,,,,,,,,,,,,,,,,,,,,,,,,,,,,,,,,,,,,,,,,,,,,,,,,,,,,,,,,,,,,,,,,,,,,,,,,,,,,,,,,,
,,5f823a9879e10536650a3d81,2024-02-22_03h18.36.907,kallum_motion_pilot,2023.2.2,Win32,12.65822785,5f823a9879e10536650a3d81,65d6bb0e977760de756971f7,65d6bce6972c1d2144b7f4c8,0.0201,0.0201,0,4,4,27,1,twofour,,,,,,,,,,,,,,,,,,,,,,,,,,,,,,,,,,,,,,,,,,,,,,,,,,,,,,,,,,,,,,,,,,,,,,,,,,,,,,,,,,,,,,,,,,,,,,,,,,,,,,,,,,,,,,,,,,,,,,,,,,,,,,,,,,,,,,,,,
,,5f823a9879e10536650a3d81,2024-02-22_03h18.36.907,kallum_motion_pilot,2023.2.2,Win32,12.65822785,5f823a9879e10536650a3d81,65d6bb0e977760de756971f7,65d6bce6972c1d2144b7f4c8,0.0202,0.0202,0,5,5,144,1,fivesix,,,,,,,,,,,,,,,,,,,,,,,,,,,,,,,,,,,,,,,,,,,,,,,,,,,,,,,,,,,,,,,,,,,,,,,,,,,,,,,,,,,,,,,,,,,,,,,,,,,,,,,,,,,,,,,,,,,,,,,,,,,,,,,,,,,,,,,,,
,,5f823a9879e10536650a3d81,2024-02-22_03h18.36.907,kallum_motion_pilot,2023.2.2,Win32,12.65822785,5f823a9879e10536650a3d81,65d6bb0e977760de756971f7,65d6bce6972c1d2144b7f4c8,0.0203,0.0203,0,6,6,82,1,sixfive,,,,,,,,,,,,,,,,,,,,,,,,,,,,,,,,,,,,,,,,,,,,,,,,,,,,,,,,,,,,,,,,,,,,,,,,,,,,,,,,,,,,,,,,,,,,,,,,,,,,,,,,,,,,,,,,,,,,,,,,,,,,,,,,,,,,,,,,,
,,5f823a9879e10536650a3d81,2024-02-22_03h18.36.907,kallum_motion_pilot,2023.2.2,Win32,12.65822785,5f823a9879e10536650a3d81,65d6bb0e977760de756971f7,65d6bce6972c1d2144b7f4c8,0.0203,0.0203,0,7,7,98,1,sixfive,,,,,,,,,,,,,,,,,,,,,,,,,,,,,,,,,,,,,,,,,,,,,,,,,,,,,,,,,,,,,,,,,,,,,,,,,,,,,,,,,,,,,,,,,,,,,,,,,,,,,,,,,,,,,,,,,,,,,,,,,,,,,,,,,,,,,,,,,
,,5f823a9879e10536650a3d81,2024-02-22_03h18.36.907,kallum_motion_pilot,2023.2.2,Win32,12.65822785,5f823a9879e10536650a3d81,65d6bb0e977760de756971f7,65d6bce6972c1d2144b7f4c8,0.0204,0.0204,0,8,8,79,1,eightseven,,,,,,,,,,,,,,,,,,,,,,,,,,,,,,,,,,,,,,,,,,,,,,,,,,,,,,,,,,,,,,,,,,,,,,,,,,,,,,,,,,,,,,,,,,,,,,,,,,,,,,,,,,,,,,,,,,,,,,,,,,,,,,,,,,,,,,,,,
,,5f823a9879e10536650a3d81,2024-02-22_03h18.36.907,kallum_motion_pilot,2023.2.2,Win32,12.65822785,5f823a9879e10536650a3d81,65d6bb0e977760de756971f7,65d6bce6972c1d2144b7f4c8,0.0206,0.0206,0,9,9,109,1,seveneight,,,,,,,,,,,,,,,,,,,,,,,,,,,,,,,,,,,,,,,,,,,,,,,,,,,,,,,,,,,,,,,,,,,,,,,,,,,,,,,,,,,,,,,,,,,,,,,,,,,,,,,,,,,,,,,,,,,,,,,,,,,,,,,,,,,,,,,,,
,,5f823a9879e10536650a3d81,2024-02-22_03h18.36.907,kallum_motion_pilot,2023.2.2,Win32,12.65822785,5f823a9879e10536650a3d81,65d6bb0e977760de756971f7,65d6bce6972c1d2144b7f4c8,0.0206,0.0207,0,10,10,68,1,threeone,,,,,,,,,,,,,,,,,,,,,,,,,,,,,,,,,,,,,,,,,,,,,,,,,,,,,,,,,,,,,,,,,,,,,,,,,,,,,,,,,,,,,,,,,,,,,,,,,,,,,,,,,,,,,,,,,,,,,,,,,,,,,,,,,,,,,,,,,
,,5f823a9879e10536650a3d81,2024-02-22_03h18.36.907,kallum_motion_pilot,2023.2.2,Win32,12.65822785,5f823a9879e10536650a3d81,65d6bb0e977760de756971f7,65d6bce6972c1d2144b7f4c8,0.0207,0.0207,0,11,11,36,1,threeone,,,,,,,,,,,,,,,,,,,,,,,,,,,,,,,,,,,,,,,,,,,,,,,,,,,,,,,,,,,,,,,,,,,,,,,,,,,,,,,,,,,,,,,,,,,,,,,,,,,,,,,,,,,,,,,,,,,,,,,,,,,,,,,,,,,,,,,,,
,,5f823a9879e10536650a3d81,2024-02-22_03h18.36.907,kallum_motion_pilot,2023.2.2,Win32,12.65822785,5f823a9879e10536650a3d81,65d6bb0e977760de756971f7,65d6bce6972c1d2144b7f4c8,0.0207,0.0207,0,12,12,43,1,twofour,,,,,,,,,,,,,,,,,,,,,,,,,,,,,,,,,,,,,,,,,,,,,,,,,,,,,,,,,,,,,,,,,,,,,,,,,,,,,,,,,,,,,,,,,,,,,,,,,,,,,,,,,,,,,,,,,,,,,,,,,,,,,,,,,,,,,,,,,
,,5f823a9879e10536650a3d81,2024-02-22_03h18.36.907,kallum_motion_pilot,2023.2.2,Win32,12.65822785,5f823a9879e10536650a3d81,65d6bb0e977760de756971f7,65d6bce6972c1d2144b7f4c8,0.0208,0.0209,0,13,13,66,1,twoone,,,,,,,,,,,,,,,,,,,,,,,,,,,,,,,,,,,,,,,,,,,,,,,,,,,,,,,,,,,,,,,,,,,,,,,,,,,,,,,,,,,,,,,,,,,,,,,,,,,,,,,,,,,,,,,,,,,,,,,,,,,,,,,,,,,,,,,,,
,,5f823a9879e10536650a3d81,2024-02-22_03h18.36.907,kallum_motion_pilot,2023.2.2,Win32,12.65822785,5f823a9879e10536650a3d81,65d6bb0e977760de756971f7,65d6bce6972c1d2144b7f4c8,0.0209,0.0209,0,14,14,84,1,sevenfive,,,,,,,,,,,,,,,,,,,,,,,,,,,,,,,,,,,,,,,,,,,,,,,,,,,,,,,,,,,,,,,,,,,,,,,,,,,,,,,,,,,,,,,,,,,,,,,,,,,,,,,,,,,,,,,,,,,,,,,,,,,,,,,,,,,,,,,,,
,,5f823a9879e10536650a3d81,2024-02-22_03h18.36.907,kallum_motion_pilot,2023.2.2,Win32,12.65822785,5f823a9879e10536650a3d81,65d6bb0e977760de756971f7,65d6bce6972c1d2144b7f4c8,0.0209,0.0209,0,15,15,91,1,sixeight,,,,,,,,,,,,,,,,,,,,,,,,,,,,,,,,,,,,,,,,,,,,,,,,,,,,,,,,,,,,,,,,,,,,,,,,,,,,,,,,,,,,,,,,,,,,,,,,,,,,,,,,,,,,,,,,,,,,,,,,,,,,,,,,,,,,,,,,,
,,5f823a9879e10536650a3d81,2024-02-22_03h18.36.907,kallum_motion_pilot,2023.2.2,Win32,12.65822785,5f823a9879e10536650a3d81,65d6bb0e977760de756971f7,65d6bce6972c1d2144b7f4c8,0.021,0.021,0,16,16,67,1,twofour,,,,,,,,,,,,,,,,,,,,,,,,,,,,,,,,,,,,,,,,,,,,,,,,,,,,,,,,,,,,,,,,,,,,,,,,,,,,,,,,,,,,,,,,,,,,,,,,,,,,,,,,,,,,,,,,,,,,,,,,,,,,,,,,,,,,,,,,,
,,5f823a9879e10536650a3d81,2024-02-22_03h18.36.907,kallum_motion_pilot,2023.2.2,Win32,12.65822785,5f823a9879e10536650a3d81,65d6bb0e977760de756971f7,65d6bce6972c1d2144b7f4c8,0.021,0.021,0,17,17,63,1,fourthree,,,,,,,,,,,,,,,,,,,,,,,,,,,,,,,,,,,,,,,,,,,,,,,,,,,,,,,,,,,,,,,,,,,,,,,,,,,,,,,,,,,,,,,,,,,,,,,,,,,,,,,,,,,,,,,,,,,,,,,,,,,,,,,,,,,,,,,,,
,,5f823a9879e10536650a3d81,2024-02-22_03h18.36.907,kallum_motion_pilot,2023.2.2,Win32,12.65822785,5f823a9879e10536650a3d81,65d6bb0e977760de756971f7,65d6bce6972c1d2144b7f4c8,0.0211,0.0211,0,18,18,114,1,sixfive,,,,,,,,,,,,,,,,,,,,,,,,,,,,,,,,,,,,,,,,,,,,,,,,,,,,,,,,,,,,,,,,,,,,,,,,,,,,,,,,,,,,,,,,,,,,,,,,,,,,,,,,,,,,,,,,,,,,,,,,,,,,,,,,,,,,,,,,,
,,5f823a9879e10536650a3d81,2024-02-22_03h18.36.907,kallum_motion_pilot,2023.2.2,Win32,12.65822785,5f823a9879e10536650a3d81,65d6bb0e977760de756971f7,65d6bce6972c1d2144b7f4c8,0.0211,0.0211,0,19,19,148,1,sevenfive,,,,,,,,,,,,,,,,,,,,,,,,,,,,,,,,,,,,,,,,,,,,,,,,,,,,,,,,,,,,,,,,,,,,,,,,,,,,,,,,,,,,,,,,,,,,,,,,,,,,,,,,,,,,,,,,,,,,,,,,,,,,,,,,,,,,,,,,,
,,5f823a9879e10536650a3d81,2024-02-22_03h18.36.907,kallum_motion_pilot,2023.2.2,Win32,12.65822785,5f823a9879e10536650a3d81,65d6bb0e977760de756971f7,65d6bce6972c1d2144b7f4c8,0.0212,0.0212,0,20,20,12,1,threeone,,,,,,,,,,,,,,,,,,,,,,,,,,,,,,,,,,,,,,,,,,,,,,,,,,,,,,,,,,,,,,,,,,,,,,,,,,,,,,,,,,,,,,,,,,,,,,,,,,,,,,,,,,,,,,,,,,,,,,,,,,,,,,,,,,,,,,,,,
,,5f823a9879e10536650a3d81,2024-02-22_03h18.36.907,kallum_motion_pilot,2023.2.2,Win32,12.65822785,5f823a9879e10536650a3d81,65d6bb0e977760de756971f7,65d6bce6972c1d2144b7f4c8,0.0213,0.0213,0,21,21,81,1,fiveseven,,,,,,,,,,,,,,,,,,,,,,,,,,,,,,,,,,,,,,,,,,,,,,,,,,,,,,,,,,,,,,,,,,,,,,,,,,,,,,,,,,,,,,,,,,,,,,,,,,,,,,,,,,,,,,,,,,,,,,,,,,,,,,,,,,,,,,,,,
,,5f823a9879e10536650a3d81,2024-02-22_03h18.36.907,kallum_motion_pilot,2023.2.2,Win32,12.65822785,5f823a9879e10536650a3d81,65d6bb0e977760de756971f7,65d6bce6972c1d2144b7f4c8,0.0213,0.0213,0,22,22,89,1,fiveseven,,,,,,,,,,,,,,,,,,,,,,,,,,,,,,,,,,,,,,,,,,,,,,,,,,,,,,,,,,,,,,,,,,,,,,,,,,,,,,,,,,,,,,,,,,,,,,,,,,,,,,,,,,,,,,,,,,,,,,,,,,,,,,,,,,,,,,,,,
,,5f823a9879e10536650a3d81,2024-02-22_03h18.36.907,kallum_motion_pilot,2023.2.2,Win32,12.65822785,5f823a9879e10536650a3d81,65d6bb0e977760de756971f7,65d6bce6972c1d2144b7f4c8,0.0214,0.0214,0,23,23,131,1,sixeight,,,,,,,,,,,,,,,,,,,,,,,,,,,,,,,,,,,,,,,,,,,,,,,,,,,,,,,,,,,,,,,,,,,,,,,,,,,,,,,,,,,,,,,,,,,,,,,,,,,,,,,,,,,,,,,,,,,,,,,,,,,,,,,,,,,,,,,,,
,,5f823a9879e10536650a3d81,2024-02-22_03h18.36.907,kallum_motion_pilot,2023.2.2,Win32,12.65822785,5f823a9879e10536650a3d81,65d6bb0e977760de756971f7,65d6bce6972c1d2144b7f4c8,0.0214,0.0215,0,24,24,33,1,onethree,,,,,,,,,,,,,,,,,,,,,,,,,,,,,,,,,,,,,,,,,,,,,,,,,,,,,,,,,,,,,,,,,,,,,,,,,,,,,,,,,,,,,,,,,,,,,,,,,,,,,,,,,,,,,,,,,,,,,,,,,,,,,,,,,,,,,,,,,
,,5f823a9879e10536650a3d81,2024-02-22_03h18.36.907,kallum_motion_pilot,2023.2.2,Win32,12.65822785,5f823a9879e10536650a3d81,65d6bb0e977760de756971f7,65d6bce6972c1d2144b7f4c8,0.0215,0.0216,0,25,25,139,1,sixeight,,,,,,,,,,,,,,,,,,,,,,,,,,,,,,,,,,,,,,,,,,,,,,,,,,,,,,,,,,,,,,,,,,,,,,,,,,,,,,,,,,,,,,,,,,,,,,,,,,,,,,,,,,,,,,,,,,,,,,,,,,,,,,,,,,,,,,,,,
,,5f823a9879e10536650a3d81,2024-02-22_03h18.36.907,kallum_motion_pilot,2023.2.2,Win32,12.65822785,5f823a9879e10536650a3d81,65d6bb0e977760de756971f7,65d6bce6972c1d2144b7f4c8,0.0216,0.0216,0,26,26,132,1,sevenfive,,,,,,,,,,,,,,,,,,,,,,,,,,,,,,,,,,,,,,,,,,,,,,,,,,,,,,,,,,,,,,,,,,,,,,,,,,,,,,,,,,,,,,,,,,,,,,,,,,,,,,,,,,,,,,,,,,,,,,,,,,,,,,,,,,,,,,,,,
,,5f823a9879e10536650a3d81,2024-02-22_03h18.36.907,kallum_motion_pilot,2023.2.2,Win32,12.65822785,5f823a9879e10536650a3d81,65d6bb0e977760de756971f7,65d6bce6972c1d2144b7f4c8,0.0216,0.0217,0,27,27,93,1,seveneight,,,,,,,,,,,,,,,,,,,,,,,,,,,,,,,,,,,,,,,,,,,,,,,,,,,,,,,,,,,,,,,,,,,,,,,,,,,,,,,,,,,,,,,,,,,,,,,,,,,,,,,,,,,,,,,,,,,,,,,,,,,,,,,,,,,,,,,,,
,,5f823a9879e10536650a3d81,2024-02-22_03h18.36.907,kallum_motion_pilot,2023.2.2,Win32,12.65822785,5f823a9879e10536650a3d81,65d6bb0e977760de756971f7,65d6bce6972c1d2144b7f4c8,0.0217,0.0217,0,28,28,135,1,eightseven,,,,,,,,,,,,,,,,,,,,,,,,,,,,,,,,,,,,,,,,,,,,,,,,,,,,,,,,,,,,,,,,,,,,,,,,,,,,,,,,,,,,,,,,,,,,,,,,,,,,,,,,,,,,,,,,,,,,,,,,,,,,,,,,,,,,,,,,,
,,5f823a9879e10536650a3d81,2024-02-22_03h18.36.907,kallum_motion_pilot,2023.2.2,Win32,12.65822785,5f823a9879e10536650a3d81,65d6bb0e977760de756971f7,65d6bce6972c1d2144b7f4c8,0.0218,0.0218,0,29,29,25,1,onethree,,,,,,,,,,,,,,,,,,,,,,,,,,,,,,,,,,,,,,,,,,,,,,,,,,,,,,,,,,,,,,,,,,,,,,,,,,,,,,,,,,,,,,,,,,,,,,,,,,,,,,,,,,,,,,,,,,,,,,,,,,,,,,,,,,,,,,,,,
,,5f823a9879e10536650a3d81,2024-02-22_03h18.36.907,kallum_motion_pilot,2023.2.2,Win32,12.65822785,5f823a9879e10536650a3d81,65d6bb0e977760de756971f7,65d6bce6972c1d2144b7f4c8,0.0219,0.0219,0,30,30,18,1,twoone,,,,,,,,,,,,,,,,,,,,,,,,,,,,,,,,,,,,,,,,,,,,,,,,,,,,,,,,,,,,,,,,,,,,,,,,,,,,,,,,,,,,,,,,,,,,,,,,,,,,,,,,,,,,,,,,,,,,,,,,,,,,,,,,,,,,,,,,,
,,5f823a9879e10536650a3d81,2024-02-22_03h18.36.907,kallum_motion_pilot,2023.2.2,Win32,12.65822785,5f823a9879e10536650a3d81,65d6bb0e977760de756971f7,65d6bce6972c1d2144b7f4c8,0.022,0.022,0,31,31,53,1,threefour,,,,,,,,,,,,,,,,,,,,,,,,,,,,,,,,,,,,,,,,,,,,,,,,,,,,,,,,,,,,,,,,,,,,,,,,,,,,,,,,,,,,,,,,,,,,,,,,,,,,,,,,,,,,,,,,,,,,,,,,,,,,,,,,,,,,,,,,,
,,5f823a9879e10536650a3d81,2024-02-22_03h18.36.907,kallum_motion_pilot,2023.2.2,Win32,12.65822785,5f823a9879e10536650a3d81,65d6bb0e977760de756971f7,65d6bce6972c1d2144b7f4c8,0.0221,0.0221,0,32,32,134,1,eightsix,,,,,,,,,,,,,,,,,,,,,,,,,,,,,,,,,,,,,,,,,,,,,,,,,,,,,,,,,,,,,,,,,,,,,,,,,,,,,,,,,,,,,,,,,,,,,,,,,,,,,,,,,,,,,,,,,,,,,,,,,,,,,,,,,,,,,,,,,
,,5f823a9879e10536650a3d81,2024-02-22_03h18.36.907,kallum_motion_pilot,2023.2.2,Win32,12.65822785,5f823a9879e10536650a3d81,65d6bb0e977760de756971f7,65d6bce6972c1d2144b7f4c8,0.0221,0.0221,0,33,33,5,1,threefour,,,,,,,,,,,,,,,,,,,,,,,,,,,,,,,,,,,,,,,,,,,,,,,,,,,,,,,,,,,,,,,,,,,,,,,,,,,,,,,,,,,,,,,,,,,,,,,,,,,,,,,,,,,,,,,,,,,,,,,,,,,,,,,,,,,,,,,,,
,,5f823a9879e10536650a3d81,2024-02-22_03h18.36.907,kallum_motion_pilot,2023.2.2,Win32,12.65822785,5f823a9879e10536650a3d81,65d6bb0e977760de756971f7,65d6bce6972c1d2144b7f4c8,0.0222,0.0222,0,34,34,142,1,eightsix,,,,,,,,,,,,,,,,,,,,,,,,,,,,,,,,,,,,,,,,,,,,,,,,,,,,,,,,,,,,,,,,,,,,,,,,,,,,,,,,,,,,,,,,,,,,,,,,,,,,,,,,,,,,,,,,,,,,,,,,,,,,,,,,,,,,,,,,,
,,5f823a9879e10536650a3d81,2024-02-22_03h18.36.907,kallum_motion_pilot,2023.2.2,Win32,12.65822785,5f823a9879e10536650a3d81,65d6bb0e977760de756971f7,65d6bce6972c1d2144b7f4c8,0.0222,0.0222,0,35,35,140,1,sevenfive,,,,,,,,,,,,,,,,,,,,,,,,,,,,,,,,,,,,,,,,,,,,,,,,,,,,,,,,,,,,,,,,,,,,,,,,,,,,,,,,,,,,,,,,,,,,,,,,,,,,,,,,,,,,,,,,,,,,,,,,,,,,,,,,,,,,,,,,,
,,5f823a9879e10536650a3d81,2024-02-22_03h18.36.907,kallum_motion_pilot,2023.2.2,Win32,12.65822785,5f823a9879e10536650a3d81,65d6bb0e977760de756971f7,65d6bce6972c1d2144b7f4c8,0.0223,0.0223,0,36,36,62,1,fourtwo,,,,,,,,,,,,,,,,,,,,,,,,,,,,,,,,,,,,,,,,,,,,,,,,,,,,,,,,,,,,,,,,,,,,,,,,,,,,,,,,,,,,,,,,,,,,,,,,,,,,,,,,,,,,,,,,,,,,,,,,,,,,,,,,,,,,,,,,,
,,5f823a9879e10536650a3d81,2024-02-22_03h18.36.907,kallum_motion_pilot,2023.2.2,Win32,12.65822785,5f823a9879e10536650a3d81,65d6bb0e977760de756971f7,65d6bce6972c1d2144b7f4c8,0.0225,0.0225,0,37,37,61,1,threefour,,,,,,,,,,,,,,,,,,,,,,,,,,,,,,,,,,,,,,,,,,,,,,,,,,,,,,,,,,,,,,,,,,,,,,,,,,,,,,,,,,,,,,,,,,,,,,,,,,,,,,,,,,,,,,,,,,,,,,,,,,,,,,,,,,,,,,,,,
,,5f823a9879e10536650a3d81,2024-02-22_03h18.36.907,kallum_motion_pilot,2023.2.2,Win32,12.65822785,5f823a9879e10536650a3d81,65d6bb0e977760de756971f7,65d6bce6972c1d2144b7f4c8,0.0225,0.0225,0,38,38,3,1,twofour,,,,,,,,,,,,,,,,,,,,,,,,,,,,,,,,,,,,,,,,,,,,,,,,,,,,,,,,,,,,,,,,,,,,,,,,,,,,,,,,,,,,,,,,,,,,,,,,,,,,,,,,,,,,,,,,,,,,,,,,,,,,,,,,,,,,,,,,,
,,5f823a9879e10536650a3d81,2024-02-22_03h18.36.907,kallum_motion_pilot,2023.2.2,Win32,12.65822785,5f823a9879e10536650a3d81,65d6bb0e977760de756971f7,65d6bce6972c1d2144b7f4c8,0.0226,0.0226,0,39,39,74,1,twoone,,,,,,,,,,,,,,,,,,,,,,,,,,,,,,,,,,,,,,,,,,,,,,,,,,,,,,,,,,,,,,,,,,,,,,,,,,,,,,,,,,,,,,,,,,,,,,,,,,,,,,,,,,,,,,,,,,,,,,,,,,,,,,,,,,,,,,,,,
,,5f823a9879e10536650a3d81,2024-02-22_03h18.36.907,kallum_motion_pilot,2023.2.2,Win32,12.65822785,5f823a9879e10536650a3d81,65d6bb0e977760de756971f7,65d6bce6972c1d2144b7f4c8,0.0227,0.0227,0,40,40,103,1,eightseven,,,,,,,,,,,,,,,,,,,,,,,,,,,,,,,,,,,,,,,,,,,,,,,,,,,,,,,,,,,,,,,,,,,,,,,,,,,,,,,,,,,,,,,,,,,,,,,,,,,,,,,,,,,,,,,,,,,,,,,,,,,,,,,,,,,,,,,,,
,,5f823a9879e10536650a3d81,2024-02-22_03h18.36.907,kallum_motion_pilot,2023.2.2,Win32,12.65822785,5f823a9879e10536650a3d81,65d6bb0e977760de756971f7,65d6bce6972c1d2144b7f4c8,0.0227,0.0228,0,41,41,2,1,twoone,,,,,,,,,,,,,,,,,,,,,,,,,,,,,,,,,,,,,,,,,,,,,,,,,,,,,,,,,,,,,,,,,,,,,,,,,,,,,,,,,,,,,,,,,,,,,,,,,,,,,,,,,,,,,,,,,,,,,,,,,,,,,,,,,,,,,,,,,
,,5f823a9879e10536650a3d81,2024-02-22_03h18.36.907,kallum_motion_pilot,2023.2.2,Win32,12.65822785,5f823a9879e10536650a3d81,65d6bb0e977760de756971f7,65d6bce6972c1d2144b7f4c8,0.0228,0.0228,0,42,42,55,1,fourthree,,,,,,,,,,,,,,,,,,,,,,,,,,,,,,,,,,,,,,,,,,,,,,,,,,,,,,,,,,,,,,,,,,,,,,,,,,,,,,,,,,,,,,,,,,,,,,,,,,,,,,,,,,,,,,,,,,,,,,,,,,,,,,,,,,,,,,,,,
,,5f823a9879e10536650a3d81,2024-02-22_03h18.36.907,kallum_motion_pilot,2023.2.2,Win32,12.65822785,5f823a9879e10536650a3d81,65d6bb0e977760de756971f7,65d6bce6972c1d2144b7f4c8,0.0229,0.0229,0,43,43,83,1,sixeight,,,,,,,,,,,,,,,,,,,,,,,,,,,,,,,,,,,,,,,,,,,,,,,,,,,,,,,,,,,,,,,,,,,,,,,,,,,,,,,,,,,,,,,,,,,,,,,,,,,,,,,,,,,,,,,,,,,,,,,,,,,,,,,,,,,,,,,,,
,,5f823a9879e10536650a3d81,2024-02-22_03h18.36.907,kallum_motion_pilot,2023.2.2,Win32,12.65822785,5f823a9879e10536650a3d81,65d6bb0e977760de756971f7,65d6bce6972c1d2144b7f4c8,0.0229,0.0229,0,44,44,160,1,fivesix,,,,,,,,,,,,,,,,,,,,,,,,,,,,,,,,,,,,,,,,,,,,,,,,,,,,,,,,,,,,,,,,,,,,,,,,,,,,,,,,,,,,,,,,,,,,,,,,,,,,,,,,,,,,,,,,,,,,,,,,,,,,,,,,,,,,,,,,,
,,5f823a9879e10536650a3d81,2024-02-22_03h18.36.907,kallum_motion_pilot,2023.2.2,Win32,12.65822785,5f823a9879e10536650a3d81,65d6bb0e977760de756971f7,65d6bce6972c1d2144b7f4c8,0.023,0.0231,0,45,45,107,1,sixeight,,,,,,,,,,,,,,,,,,,,,,,,,,,,,,,,,,,,,,,,,,,,,,,,,,,,,,,,,,,,,,,,,,,,,,,,,,,,,,,,,,,,,,,,,,,,,,,,,,,,,,,,,,,,,,,,,,,,,,,,,,,,,,,,,,,,,,,,,
,,5f823a9879e10536650a3d81,2024-02-22_03h18.36.907,kallum_motion_pilot,2023.2.2,Win32,12.65822785,5f823a9879e10536650a3d81,65d6bb0e977760de756971f7,65d6bce6972c1d2144b7f4c8,0.0231,0.0231,0,46,46,99,1,sixeight,,,,,,,,,,,,,,,,,,,,,,,,,,,,,,,,,,,,,,,,,,,,,,,,,,,,,,,,,,,,,,,,,,,,,,,,,,,,,,,,,,,,,,,,,,,,,,,,,,,,,,,,,,,,,,,,,,,,,,,,,,,,,,,,,,,,,,,,,
,,5f823a9879e10536650a3d81,2024-02-22_03h18.36.907,kallum_motion_pilot,2023.2.2,Win32,12.65822785,5f823a9879e10536650a3d81,65d6bb0e977760de756971f7,65d6bce6972c1d2144b7f4c8,0.0232,0.0232,0,47,47,87,1,eightseven,,,,,,,,,,,,,,,,,,,,,,,,,,,,,,,,,,,,,,,,,,,,,,,,,,,,,,,,,,,,,,,,,,,,,,,,,,,,,,,,,,,,,,,,,,,,,,,,,,,,,,,,,,,,,,,,,,,,,,,,,,,,,,,,,,,,,,,,,
,,5f823a9879e10536650a3d81,2024-02-22_03h18.36.907,kallum_motion_pilot,2023.2.2,Win32,12.65822785,5f823a9879e10536650a3d81,65d6bb0e977760de756971f7,65d6bce6972c1d2144b7f4c8,0.0232,0.0232,0,48,48,92,1,sevenfive,,,,,,,,,,,,,,,,,,,,,,,,,,,,,,,,,,,,,,,,,,,,,,,,,,,,,,,,,,,,,,,,,,,,,,,,,,,,,,,,,,,,,,,,,,,,,,,,,,,,,,,,,,,,,,,,,,,,,,,,,,,,,,,,,,,,,,,,,
,,5f823a9879e10536650a3d81,2024-02-22_03h18.36.907,kallum_motion_pilot,2023.2.2,Win32,12.65822785,5f823a9879e10536650a3d81,65d6bb0e977760de756971f7,65d6bce6972c1d2144b7f4c8,0.0233,0.0233,0,49,49,32,1,onetwo,,,,,,,,,,,,,,,,,,,,,,,,,,,,,,,,,,,,,,,,,,,,,,,,,,,,,,,,,,,,,,,,,,,,,,,,,,,,,,,,,,,,,,,,,,,,,,,,,,,,,,,,,,,,,,,,,,,,,,,,,,,,,,,,,,,,,,,,,
,,5f823a9879e10536650a3d81,2024-02-22_03h18.36.907,kallum_motion_pilot,2023.2.2,Win32,12.65822785,5f823a9879e10536650a3d81,65d6bb0e977760de756971f7,65d6bce6972c1d2144b7f4c8,0.0234,0.0234,0,50,50,23,1,fourthree,,,,,,,,,,,,,,,,,,,,,,,,,,,,,,,,,,,,,,,,,,,,,,,,,,,,,,,,,,,,,,,,,,,,,,,,,,,,,,,,,,,,,,,,,,,,,,,,,,,,,,,,,,,,,,,,,,,,,,,,,,,,,,,,,,,,,,,,,
,,5f823a9879e10536650a3d81,2024-02-22_03h18.36.907,kallum_motion_pilot,2023.2.2,Win32,12.65822785,5f823a9879e10536650a3d81,65d6bb0e977760de756971f7,65d6bce6972c1d2144b7f4c8,0.0234,0.0234,0,51,51,47,1,fourthree,,,,,,,,,,,,,,,,,,,,,,,,,,,,,,,,,,,,,,,,,,,,,,,,,,,,,,,,,,,,,,,,,,,,,,,,,,,,,,,,,,,,,,,,,,,,,,,,,,,,,,,,,,,,,,,,,,,,,,,,,,,,,,,,,,,,,,,,,
,,5f823a9879e10536650a3d81,2024-02-22_03h18.36.907,kallum_motion_pilot,2023.2.2,Win32,12.65822785,5f823a9879e10536650a3d81,65d6bb0e977760de756971f7,65d6bce6972c1d2144b7f4c8,0.0235,0.0235,0,52,52,145,1,fiveseven,,,,,,,,,,,,,,,,,,,,,,,,,,,,,,,,,,,,,,,,,,,,,,,,,,,,,,,,,,,,,,,,,,,,,,,,,,,,,,,,,,,,,,,,,,,,,,,,,,,,,,,,,,,,,,,,,,,,,,,,,,,,,,,,,,,,,,,,,
,,5f823a9879e10536650a3d81,2024-02-22_03h18.36.907,kallum_motion_pilot,2023.2.2,Win32,12.65822785,5f823a9879e10536650a3d81,65d6bb0e977760de756971f7,65d6bce6972c1d2144b7f4c8,0.0235,0.0236,0,53,53,113,1,fiveseven,,,,,,,,,,,,,,,,,,,,,,,,,,,,,,,,,,,,,,,,,,,,,,,,,,,,,,,,,,,,,,,,,,,,,,,,,,,,,,,,,,,,,,,,,,,,,,,,,,,,,,,,,,,,,,,,,,,,,,,,,,,,,,,,,,,,,,,,,
,,5f823a9879e10536650a3d81,2024-02-22_03h18.36.907,kallum_motion_pilot,2023.2.2,Win32,12.65822785,5f823a9879e10536650a3d81,65d6bb0e977760de756971f7,65d6bce6972c1d2144b7f4c8,0.0236,0.0237,0,54,54,9,1,onethree,,,,,,,,,,,,,,,,,,,,,,,,,,,,,,,,,,,,,,,,,,,,,,,,,,,,,,,,,,,,,,,,,,,,,,,,,,,,,,,,,,,,,,,,,,,,,,,,,,,,,,,,,,,,,,,,,,,,,,,,,,,,,,,,,,,,,,,,,
,,5f823a9879e10536650a3d81,2024-02-22_03h18.36.907,kallum_motion_pilot,2023.2.2,Win32,12.65822785,5f823a9879e10536650a3d81,65d6bb0e977760de756971f7,65d6bce6972c1d2144b7f4c8,0.0237,0.0237,0,55,55,50,1,twoone,,,,,,,,,,,,,,,,,,,,,,,,,,,,,,,,,,,,,,,,,,,,,,,,,,,,,,,,,,,,,,,,,,,,,,,,,,,,,,,,,,,,,,,,,,,,,,,,,,,,,,,,,,,,,,,,,,,,,,,,,,,,,,,,,,,,,,,,,
,,5f823a9879e10536650a3d81,2024-02-22_03h18.36.907,kallum_motion_pilot,2023.2.2,Win32,12.65822785,5f823a9879e10536650a3d81,65d6bb0e977760de756971f7,65d6bce6972c1d2144b7f4c8,0.0237,0.0237,0,56,56,70,1,fourtwo,,,,,,,,,,,,,,,,,,,,,,,,,,,,,,,,,,,,,,,,,,,,,,,,,,,,,,,,,,,,,,,,,,,,,,,,,,,,,,,,,,,,,,,,,,,,,,,,,,,,,,,,,,,,,,,,,,,,,,,,,,,,,,,,,,,,,,,,,
,,5f823a9879e10536650a3d81,2024-02-22_03h18.36.907,kallum_motion_pilot,2023.2.2,Win32,12.65822785,5f823a9879e10536650a3d81,65d6bb0e977760de756971f7,65d6bce6972c1d2144b7f4c8,0.0238,0.0238,0,57,57,77,1,threefour,,,,,,,,,,,,,,,,,,,,,,,,,,,,,,,,,,,,,,,,,,,,,,,,,,,,,,,,,,,,,,,,,,,,,,,,,,,,,,,,,,,,,,,,,,,,,,,,,,,,,,,,,,,,,,,,,,,,,,,,,,,,,,,,,,,,,,,,,
,,5f823a9879e10536650a3d81,2024-02-22_03h18.36.907,kallum_motion_pilot,2023.2.2,Win32,12.65822785,5f823a9879e10536650a3d81,65d6bb0e977760de756971f7,65d6bce6972c1d2144b7f4c8,0.0238,0.0238,0,58,58,48,1,onetwo,,,,,,,,,,,,,,,,,,,,,,,,,,,,,,,,,,,,,,,,,,,,,,,,,,,,,,,,,,,,,,,,,,,,,,,,,,,,,,,,,,,,,,,,,,,,,,,,,,,,,,,,,,,,,,,,,,,,,,,,,,,,,,,,,,,,,,,,,
,,5f823a9879e10536650a3d81,2024-02-22_03h18.36.907,kallum_motion_pilot,2023.2.2,Win32,12.65822785,5f823a9879e10536650a3d81,65d6bb0e977760de756971f7,65d6bce6972c1d2144b7f4c8,0.0239,0.024,0,59,59,127,1,eightseven,,,,,,,,,,,,,,,,,,,,,,,,,,,,,,,,,,,,,,,,,,,,,,,,,,,,,,,,,,,,,,,,,,,,,,,,,,,,,,,,,,,,,,,,,,,,,,,,,,,,,,,,,,,,,,,,,,,,,,,,,,,,,,,,,,,,,,,,,
,,5f823a9879e10536650a3d81,2024-02-22_03h18.36.907,kallum_motion_pilot,2023.2.2,Win32,12.65822785,5f823a9879e10536650a3d81,65d6bb0e977760de756971f7,65d6bce6972c1d2144b7f4c8,0.024,0.024,0,60,60,41,1,onethree,,,,,,,,,,,,,,,,,,,,,,,,,,,,,,,,,,,,,,,,,,,,,,,,,,,,,,,,,,,,,,,,,,,,,,,,,,,,,,,,,,,,,,,,,,,,,,,,,,,,,,,,,,,,,,,,,,,,,,,,,,,,,,,,,,,,,,,,,
,,5f823a9879e10536650a3d81,2024-02-22_03h18.36.907,kallum_motion_pilot,2023.2.2,Win32,12.65822785,5f823a9879e10536650a3d81,65d6bb0e977760de756971f7,65d6bce6972c1d2144b7f4c8,0.0241,0.0241,0,61,61,10,1,twoone,,,,,,,,,,,,,,,,,,,,,,,,,,,,,,,,,,,,,,,,,,,,,,,,,,,,,,,,,,,,,,,,,,,,,,,,,,,,,,,,,,,,,,,,,,,,,,,,,,,,,,,,,,,,,,,,,,,,,,,,,,,,,,,,,,,,,,,,,
,,5f823a9879e10536650a3d81,2024-02-22_03h18.36.907,kallum_motion_pilot,2023.2.2,Win32,12.65822785,5f823a9879e10536650a3d81,65d6bb0e977760de756971f7,65d6bce6972c1d2144b7f4c8,0.0242,0.0242,0,62,62,49,1,onethree,,,,,,,,,,,,,,,,,,,,,,,,,,,,,,,,,,,,,,,,,,,,,,,,,,,,,,,,,,,,,,,,,,,,,,,,,,,,,,,,,,,,,,,,,,,,,,,,,,,,,,,,,,,,,,,,,,,,,,,,,,,,,,,,,,,,,,,,,
,,5f823a9879e10536650a3d81,2024-02-22_03h18.36.907,kallum_motion_pilot,2023.2.2,Win32,12.65822785,5f823a9879e10536650a3d81,65d6bb0e977760de756971f7,65d6bce6972c1d2144b7f4c8,0.0243,0.0243,0,63,63,156,1,sevenfive,,,,,,,,,,,,,,,,,,,,,,,,,,,,,,,,,,,,,,,,,,,,,,,,,,,,,,,,,,,,,,,,,,,,,,,,,,,,,,,,,,,,,,,,,,,,,,,,,,,,,,,,,,,,,,,,,,,,,,,,,,,,,,,,,,,,,,,,,
,,5f823a9879e10536650a3d81,2024-02-22_03h18.36.907,kallum_motion_pilot,2023.2.2,Win32,12.65822785,5f823a9879e10536650a3d81,65d6bb0e977760de756971f7,65d6bce6972c1d2144b7f4c8,0.0245,0.0245,0,64,64,56,1,onetwo,,,,,,,,,,,,,,,,,,,,,,,,,,,,,,,,,,,,,,,,,,,,,,,,,,,,,,,,,,,,,,,,,,,,,,,,,,,,,,,,,,,,,,,,,,,,,,,,,,,,,,,,,,,,,,,,,,,,,,,,,,,,,,,,,,,,,,,,,
,,5f823a9879e10536650a3d81,2024-02-22_03h18.36.907,kallum_motion_pilot,2023.2.2,Win32,12.65822785,5f823a9879e10536650a3d81,65d6bb0e977760de756971f7,65d6bce6972c1d2144b7f4c8,0.0246,0.0247,0,65,65,39,1,fourthree,,,,,,,,,,,,,,,,,,,,,,,,,,,,,,,,,,,,,,,,,,,,,,,,,,,,,,,,,,,,,,,,,,,,,,,,,,,,,,,,,,,,,,,,,,,,,,,,,,,,,,,,,,,,,,,,,,,,,,,,,,,,,,,,,,,,,,,,,
,,5f823a9879e10536650a3d81,2024-02-22_03h18.36.907,kallum_motion_pilot,2023.2.2,Win32,12.65822785,5f823a9879e10536650a3d81,65d6bb0e977760de756971f7,65d6bce6972c1d2144b7f4c8,0.0247,0.0248,0,66,66,121,1,fiveseven,,,,,,,,,,,,,,,,,,,,,,,,,,,,,,,,,,,,,,,,,,,,,,,,,,,,,,,,,,,,,,,,,,,,,,,,,,,,,,,,,,,,,,,,,,,,,,,,,,,,,,,,,,,,,,,,,,,,,,,,,,,,,,,,,,,,,,,,,
,,5f823a9879e10536650a3d81,2024-02-22_03h18.36.907,kallum_motion_pilot,2023.2.2,Win32,12.65822785,5f823a9879e10536650a3d81,65d6bb0e977760de756971f7,65d6bce6972c1d2144b7f4c8,0.0249,0.0249,0,67,67,128,1,fivesix,,,,,,,,,,,,,,,,,,,,,,,,,,,,,,,,,,,,,,,,,,,,,,,,,,,,,,,,,,,,,,,,,,,,,,,,,,,,,,,,,,,,,,,,,,,,,,,,,,,,,,,,,,,,,,,,,,,,,,,,,,,,,,,,,,,,,,,,,
,,5f823a9879e10536650a3d81,2024-02-22_03h18.36.907,kallum_motion_pilot,2023.2.2,Win32,12.65822785,5f823a9879e10536650a3d81,65d6bb0e977760de756971f7,65d6bce6972c1d2144b7f4c8,0.025,0.0251,0,68,68,158,1,eightsix,,,,,,,,,,,,,,,,,,,,,,,,,,,,,,,,,,,,,,,,,,,,,,,,,,,,,,,,,,,,,,,,,,,,,,,,,,,,,,,,,,,,,,,,,,,,,,,,,,,,,,,,,,,,,,,,,,,,,,,,,,,,,,,,,,,,,,,,,
,,5f823a9879e10536650a3d81,2024-02-22_03h18.36.907,kallum_motion_pilot,2023.2.2,Win32,12.65822785,5f823a9879e10536650a3d81,65d6bb0e977760de756971f7,65d6bce6972c1d2144b7f4c8,0.0251,0.0252,0,69,69,51,1,twofour,,,,,,,,,,,,,,,,,,,,,,,,,,,,,,,,,,,,,,,,,,,,,,,,,,,,,,,,,,,,,,,,,,,,,,,,,,,,,,,,,,,,,,,,,,,,,,,,,,,,,,,,,,,,,,,,,,,,,,,,,,,,,,,,,,,,,,,,,
,,5f823a9879e10536650a3d81,2024-02-22_03h18.36.907,kallum_motion_pilot,2023.2.2,Win32,12.65822785,5f823a9879e10536650a3d81,65d6bb0e977760de756971f7,65d6bce6972c1d2144b7f4c8,0.0253,0.0253,0,70,70,54,1,fourtwo,,,,,,,,,,,,,,,,,,,,,,,,,,,,,,,,,,,,,,,,,,,,,,,,,,,,,,,,,,,,,,,,,,,,,,,,,,,,,,,,,,,,,,,,,,,,,,,,,,,,,,,,,,,,,,,,,,,,,,,,,,,,,,,,,,,,,,,,,
,,5f823a9879e10536650a3d81,2024-02-22_03h18.36.907,kallum_motion_pilot,2023.2.2,Win32,12.65822785,5f823a9879e10536650a3d81,65d6bb0e977760de756971f7,65d6bce6972c1d2144b7f4c8,0.0254,0.0254,0,71,71,88,1,fivesix,,,,,,,,,,,,,,,,,,,,,,,,,,,,,,,,,,,,,,,,,,,,,,,,,,,,,,,,,,,,,,,,,,,,,,,,,,,,,,,,,,,,,,,,,,,,,,,,,,,,,,,,,,,,,,,,,,,,,,,,,,,,,,,,,,,,,,,,,
,,5f823a9879e10536650a3d81,2024-02-22_03h18.36.907,kallum_motion_pilot,2023.2.2,Win32,12.65822785,5f823a9879e10536650a3d81,65d6bb0e977760de756971f7,65d6bce6972c1d2144b7f4c8,0.0255,0.0255,0,72,72,152,1,fivesix,,,,,,,,,,,,,,,,,,,,,,,,,,,,,,,,,,,,,,,,,,,,,,,,,,,,,,,,,,,,,,,,,,,,,,,,,,,,,,,,,,,,,,,,,,,,,,,,,,,,,,,,,,,,,,,,,,,,,,,,,,,,,,,,,,,,,,,,,
,,5f823a9879e10536650a3d81,2024-02-22_03h18.36.907,kallum_motion_pilot,2023.2.2,Win32,12.65822785,5f823a9879e10536650a3d81,65d6bb0e977760de756971f7,65d6bce6972c1d2144b7f4c8,0.0257,0.0257,0,73,73,118,1,eightsix,,,,,,,,,,,,,,,,,,,,,,,,,,,,,,,,,,,,,,,,,,,,,,,,,,,,,,,,,,,,,,,,,,,,,,,,,,,,,,,,,,,,,,,,,,,,,,,,,,,,,,,,,,,,,,,,,,,,,,,,,,,,,,,,,,,,,,,,,
,,5f823a9879e10536650a3d81,2024-02-22_03h18.36.907,kallum_motion_pilot,2023.2.2,Win32,12.65822785,5f823a9879e10536650a3d81,65d6bb0e977760de756971f7,65d6bce6972c1d2144b7f4c8,0.0257,0.0258,0,74,74,143,1,eightseven,,,,,,,,,,,,,,,,,,,,,,,,,,,,,,,,,,,,,,,,,,,,,,,,,,,,,,,,,,,,,,,,,,,,,,,,,,,,,,,,,,,,,,,,,,,,,,,,,,,,,,,,,,,,,,,,,,,,,,,,,,,,,,,,,,,,,,,,,
,,5f823a9879e10536650a3d81,2024-02-22_03h18.36.907,kallum_motion_pilot,2023.2.2,Win32,12.65822785,5f823a9879e10536650a3d81,65d6bb0e977760de756971f7,65d6bce6972c1d2144b7f4c8,0.0259,0.0259,0,75,75,80,1,fivesix,,,,,,,,,,,,,,,,,,,,,,,,,,,,,,,,,,,,,,,,,,,,,,,,,,,,,,,,,,,,,,,,,,,,,,,,,,,,,,,,,,,,,,,,,,,,,,,,,,,,,,,,,,,,,,,,,,,,,,,,,,,,,,,,,,,,,,,,,
,,5f823a9879e10536650a3d81,2024-02-22_03h18.36.907,kallum_motion_pilot,2023.2.2,Win32,12.65822785,5f823a9879e10536650a3d81,65d6bb0e977760de756971f7,65d6bce6972c1d2144b7f4c8,0.026,0.026,0,76,76,69,1,threefour,,,,,,,,,,,,,,,,,,,,,,,,,,,,,,,,,,,,,,,,,,,,,,,,,,,,,,,,,,,,,,,,,,,,,,,,,,,,,,,,,,,,,,,,,,,,,,,,,,,,,,,,,,,,,,,,,,,,,,,,,,,,,,,,,,,,,,,,,
,,5f823a9879e10536650a3d81,2024-02-22_03h18.36.907,kallum_motion_pilot,2023.2.2,Win32,12.65822785,5f823a9879e10536650a3d81,65d6bb0e977760de756971f7,65d6bce6972c1d2144b7f4c8,0.0261,0.0261,0,77,77,85,1,seveneight,,,,,,,,,,,,,,,,,,,,,,,,,,,,,,,,,,,,,,,,,,,,,,,,,,,,,,,,,,,,,,,,,,,,,,,,,,,,,,,,,,,,,,,,,,,,,,,,,,,,,,,,,,,,,,,,,,,,,,,,,,,,,,,,,,,,,,,,,
,,5f823a9879e10536650a3d81,2024-02-22_03h18.36.907,kallum_motion_pilot,2023.2.2,Win32,12.65822785,5f823a9879e10536650a3d81,65d6bb0e977760de756971f7,65d6bce6972c1d2144b7f4c8,0.0262,0.0263,0,78,78,137,1,fiveseven,,,,,,,,,,,,,,,,,,,,,,,,,,,,,,,,,,,,,,,,,,,,,,,,,,,,,,,,,,,,,,,,,,,,,,,,,,,,,,,,,,,,,,,,,,,,,,,,,,,,,,,,,,,,,,,,,,,,,,,,,,,,,,,,,,,,,,,,,
,,5f823a9879e10536650a3d81,2024-02-22_03h18.36.907,kallum_motion_pilot,2023.2.2,Win32,12.65822785,5f823a9879e10536650a3d81,65d6bb0e977760de756971f7,65d6bce6972c1d2144b7f4c8,0.0264,0.0264,0,79,79,0,1,onetwo,,,,,,,,,,,,,,,,,,,,,,,,,,,,,,,,,,,,,,,,,,,,,,,,,,,,,,,,,,,,,,,,,,,,,,,,,,,,,,,,,,,,,,,,,,,,,,,,,,,,,,,,,,,,,,,,,,,,,,,,,,,,,,,,,,,,,,,,,
,,5f823a9879e10536650a3d81,2024-02-22_03h18.36.907,kallum_motion_pilot,2023.2.2,Win32,12.65822785,5f823a9879e10536650a3d81,65d6bb0e977760de756971f7,65d6bce6972c1d2144b7f4c8,0.0265,0.0265,0,80,80,60,1,threeone,,,,,,,,,,,,,,,,,,,,,,,,,,,,,,,,,,,,,,,,,,,,,,,,,,,,,,,,,,,,,,,,,,,,,,,,,,,,,,,,,,,,,,,,,,,,,,,,,,,,,,,,,,,,,,,,,,,,,,,,,,,,,,,,,,,,,,,,,
,,5f823a9879e10536650a3d81,2024-02-22_03h18.36.907,kallum_motion_pilot,2023.2.2,Win32,12.65822785,5f823a9879e10536650a3d81,65d6bb0e977760de756971f7,65d6bce6972c1d2144b7f4c8,0.0266,0.0266,0,81,81,65,1,onethree,,,,,,,,,,,,,,,,,,,,,,,,,,,,,,,,,,,,,,,,,,,,,,,,,,,,,,,,,,,,,,,,,,,,,,,,,,,,,,,,,,,,,,,,,,,,,,,,,,,,,,,,,,,,,,,,,,,,,,,,,,,,,,,,,,,,,,,,,
,,5f823a9879e10536650a3d81,2024-02-22_03h18.36.907,kallum_motion_pilot,2023.2.2,Win32,12.65822785,5f823a9879e10536650a3d81,65d6bb0e977760de756971f7,65d6bce6972c1d2144b7f4c8,0.0267,0.0268,0,82,82,149,1,seveneight,,,,,,,,,,,,,,,,,,,,,,,,,,,,,,,,,,,,,,,,,,,,,,,,,,,,,,,,,,,,,,,,,,,,,,,,,,,,,,,,,,,,,,,,,,,,,,,,,,,,,,,,,,,,,,,,,,,,,,,,,,,,,,,,,,,,,,,,,
,,5f823a9879e10536650a3d81,2024-02-22_03h18.36.907,kallum_motion_pilot,2023.2.2,Win32,12.65822785,5f823a9879e10536650a3d81,65d6bb0e977760de756971f7,65d6bce6972c1d2144b7f4c8,0.0268,0.0268,0,83,83,58,1,twoone,,,,,,,,,,,,,,,,,,,,,,,,,,,,,,,,,,,,,,,,,,,,,,,,,,,,,,,,,,,,,,,,,,,,,,,,,,,,,,,,,,,,,,,,,,,,,,,,,,,,,,,,,,,,,,,,,,,,,,,,,,,,,,,,,,,,,,,,,
,,5f823a9879e10536650a3d81,2024-02-22_03h18.36.907,kallum_motion_pilot,2023.2.2,Win32,12.65822785,5f823a9879e10536650a3d81,65d6bb0e977760de756971f7,65d6bce6972c1d2144b7f4c8,0.0269,0.0269,0,84,84,1,1,onethree,,,,,,,,,,,,,,,,,,,,,,,,,,,,,,,,,,,,,,,,,,,,,,,,,,,,,,,,,,,,,,,,,,,,,,,,,,,,,,,,,,,,,,,,,,,,,,,,,,,,,,,,,,,,,,,,,,,,,,,,,,,,,,,,,,,,,,,,,
,,5f823a9879e10536650a3d81,2024-02-22_03h18.36.907,kallum_motion_pilot,2023.2.2,Win32,12.65822785,5f823a9879e10536650a3d81,65d6bb0e977760de756971f7,65d6bce6972c1d2144b7f4c8,0.027,0.027,0,85,85,116,1,sevenfive,,,,,,,,,,,,,,,,,,,,,,,,,,,,,,,,,,,,,,,,,,,,,,,,,,,,,,,,,,,,,,,,,,,,,,,,,,,,,,,,,,,,,,,,,,,,,,,,,,,,,,,,,,,,,,,,,,,,,,,,,,,,,,,,,,,,,,,,,
,,5f823a9879e10536650a3d81,2024-02-22_03h18.36.907,kallum_motion_pilot,2023.2.2,Win32,12.65822785,5f823a9879e10536650a3d81,65d6bb0e977760de756971f7,65d6bce6972c1d2144b7f4c8,0.0271,0.0271,0,86,86,15,1,fourthree,,,,,,,,,,,,,,,,,,,,,,,,,,,,,,,,,,,,,,,,,,,,,,,,,,,,,,,,,,,,,,,,,,,,,,,,,,,,,,,,,,,,,,,,,,,,,,,,,,,,,,,,,,,,,,,,,,,,,,,,,,,,,,,,,,,,,,,,,
,,5f823a9879e10536650a3d81,2024-02-22_03h18.36.907,kallum_motion_pilot,2023.2.2,Win32,12.65822785,5f823a9879e10536650a3d81,65d6bb0e977760de756971f7,65d6bce6972c1d2144b7f4c8,0.0272,0.0272,0,87,87,76,1,threeone,,,,,,,,,,,,,,,,,,,,,,,,,,,,,,,,,,,,,,,,,,,,,,,,,,,,,,,,,,,,,,,,,,,,,,,,,,,,,,,,,,,,,,,,,,,,,,,,,,,,,,,,,,,,,,,,,,,,,,,,,,,,,,,,,,,,,,,,,
,,5f823a9879e10536650a3d81,2024-02-22_03h18.36.907,kallum_motion_pilot,2023.2.2,Win32,12.65822785,5f823a9879e10536650a3d81,65d6bb0e977760de756971f7,65d6bce6972c1d2144b7f4c8,0.0273,0.0273,0,88,88,112,1,fivesix,,,,,,,,,,,,,,,,,,,,,,,,,,,,,,,,,,,,,,,,,,,,,,,,,,,,,,,,,,,,,,,,,,,,,,,,,,,,,,,,,,,,,,,,,,,,,,,,,,,,,,,,,,,,,,,,,,,,,,,,,,,,,,,,,,,,,,,,,
,,5f823a9879e10536650a3d81,2024-02-22_03h18.36.907,kallum_motion_pilot,2023.2.2,Win32,12.65822785,5f823a9879e10536650a3d81,65d6bb0e977760de756971f7,65d6bce6972c1d2144b7f4c8,0.0274,0.0274,0,89,89,108,1,sevenfive,,,,,,,,,,,,,,,,,,,,,,,,,,,,,,,,,,,,,,,,,,,,,,,,,,,,,,,,,,,,,,,,,,,,,,,,,,,,,,,,,,,,,,,,,,,,,,,,,,,,,,,,,,,,,,,,,,,,,,,,,,,,,,,,,,,,,,,,,
,,5f823a9879e10536650a3d81,2024-02-22_03h18.36.907,kallum_motion_pilot,2023.2.2,Win32,12.65822785,5f823a9879e10536650a3d81,65d6bb0e977760de756971f7,65d6bce6972c1d2144b7f4c8,0.0275,0.0275,0,90,90,155,1,sixeight,,,,,,,,,,,,,,,,,,,,,,,,,,,,,,,,,,,,,,,,,,,,,,,,,,,,,,,,,,,,,,,,,,,,,,,,,,,,,,,,,,,,,,,,,,,,,,,,,,,,,,,,,,,,,,,,,,,,,,,,,,,,,,,,,,,,,,,,,
,,5f823a9879e10536650a3d81,2024-02-22_03h18.36.907,kallum_motion_pilot,2023.2.2,Win32,12.65822785,5f823a9879e10536650a3d81,65d6bb0e977760de756971f7,65d6bce6972c1d2144b7f4c8,0.0276,0.0276,0,91,91,101,1,seveneight,,,,,,,,,,,,,,,,,,,,,,,,,,,,,,,,,,,,,,,,,,,,,,,,,,,,,,,,,,,,,,,,,,,,,,,,,,,,,,,,,,,,,,,,,,,,,,,,,,,,,,,,,,,,,,,,,,,,,,,,,,,,,,,,,,,,,,,,,
,,5f823a9879e10536650a3d81,2024-02-22_03h18.36.907,kallum_motion_pilot,2023.2.2,Win32,12.65822785,5f823a9879e10536650a3d81,65d6bb0e977760de756971f7,65d6bce6972c1d2144b7f4c8,0.0276,0.0277,0,92,92,119,1,eightseven,,,,,,,,,,,,,,,,,,,,,,,,,,,,,,,,,,,,,,,,,,,,,,,,,,,,,,,,,,,,,,,,,,,,,,,,,,,,,,,,,,,,,,,,,,,,,,,,,,,,,,,,,,,,,,,,,,,,,,,,,,,,,,,,,,,,,,,,,
,,5f823a9879e10536650a3d81,2024-02-22_03h18.36.907,kallum_motion_pilot,2023.2.2,Win32,12.65822785,5f823a9879e10536650a3d81,65d6bb0e977760de756971f7,65d6bce6972c1d2144b7f4c8,0.0278,0.0278,0,93,93,94,1,eightsix,,,,,,,,,,,,,,,,,,,,,,,,,,,,,,,,,,,,,,,,,,,,,,,,,,,,,,,,,,,,,,,,,,,,,,,,,,,,,,,,,,,,,,,,,,,,,,,,,,,,,,,,,,,,,,,,,,,,,,,,,,,,,,,,,,,,,,,,,
,,5f823a9879e10536650a3d81,2024-02-22_03h18.36.907,kallum_motion_pilot,2023.2.2,Win32,12.65822785,5f823a9879e10536650a3d81,65d6bb0e977760de756971f7,65d6bce6972c1d2144b7f4c8,0.0278,0.0279,0,94,94,126,1,eightsix,,,,,,,,,,,,,,,,,,,,,,,,,,,,,,,,,,,,,,,,,,,,,,,,,,,,,,,,,,,,,,,,,,,,,,,,,,,,,,,,,,,,,,,,,,,,,,,,,,,,,,,,,,,,,,,,,,,,,,,,,,,,,,,,,,,,,,,,,
,,5f823a9879e10536650a3d81,2024-02-22_03h18.36.907,kallum_motion_pilot,2023.2.2,Win32,12.65822785,5f823a9879e10536650a3d81,65d6bb0e977760de756971f7,65d6bce6972c1d2144b7f4c8,0.028,0.028,0,95,95,21,1,threefour,,,,,,,,,,,,,,,,,,,,,,,,,,,,,,,,,,,,,,,,,,,,,,,,,,,,,,,,,,,,,,,,,,,,,,,,,,,,,,,,,,,,,,,,,,,,,,,,,,,,,,,,,,,,,,,,,,,,,,,,,,,,,,,,,,,,,,,,,
,,5f823a9879e10536650a3d81,2024-02-22_03h18.36.907,kallum_motion_pilot,2023.2.2,Win32,12.65822785,5f823a9879e10536650a3d81,65d6bb0e977760de756971f7,65d6bce6972c1d2144b7f4c8,0.028,0.028,0,96,96,111,1,eightseven,,,,,,,,,,,,,,,,,,,,,,,,,,,,,,,,,,,,,,,,,,,,,,,,,,,,,,,,,,,,,,,,,,,,,,,,,,,,,,,,,,,,,,,,,,,,,,,,,,,,,,,,,,,,,,,,,,,,,,,,,,,,,,,,,,,,,,,,,
,,5f823a9879e10536650a3d81,2024-02-22_03h18.36.907,kallum_motion_pilot,2023.2.2,Win32,12.65822785,5f823a9879e10536650a3d81,65d6bb0e977760de756971f7,65d6bce6972c1d2144b7f4c8,0.0281,0.0282,0,97,97,35,1,twofour,,,,,,,,,,,,,,,,,,,,,,,,,,,,,,,,,,,,,,,,,,,,,,,,,,,,,,,,,,,,,,,,,,,,,,,,,,,,,,,,,,,,,,,,,,,,,,,,,,,,,,,,,,,,,,,,,,,,,,,,,,,,,,,,,,,,,,,,,
,,5f823a9879e10536650a3d81,2024-02-22_03h18.36.907,kallum_motion_pilot,2023.2.2,Win32,12.65822785,5f823a9879e10536650a3d81,65d6bb0e977760de756971f7,65d6bce6972c1d2144b7f4c8,0.0282,0.0282,0,98,98,40,1,onetwo,,,,,,,,,,,,,,,,,,,,,,,,,,,,,,,,,,,,,,,,,,,,,,,,,,,,,,,,,,,,,,,,,,,,,,,,,,,,,,,,,,,,,,,,,,,,,,,,,,,,,,,,,,,,,,,,,,,,,,,,,,,,,,,,,,,,,,,,,
,,5f823a9879e10536650a3d81,2024-02-22_03h18.36.907,kallum_motion_pilot,2023.2.2,Win32,12.65822785,5f823a9879e10536650a3d81,65d6bb0e977760de756971f7,65d6bce6972c1d2144b7f4c8,0.0283,0.0283,0,99,99,72,1,onetwo,,,,,,,,,,,,,,,,,,,,,,,,,,,,,,,,,,,,,,,,,,,,,,,,,,,,,,,,,,,,,,,,,,,,,,,,,,,,,,,,,,,,,,,,,,,,,,,,,,,,,,,,,,,,,,,,,,,,,,,,,,,,,,,,,,,,,,,,,
,,5f823a9879e10536650a3d81,2024-02-22_03h18.36.907,kallum_motion_pilot,2023.2.2,Win32,12.65822785,5f823a9879e10536650a3d81,65d6bb0e977760de756971f7,65d6bce6972c1d2144b7f4c8,0.0284,0.0284,0,100,100,13,1,threefour,,,,,,,,,,,,,,,,,,,,,,,,,,,,,,,,,,,,,,,,,,,,,,,,,,,,,,,,,,,,,,,,,,,,,,,,,,,,,,,,,,,,,,,,,,,,,,,,,,,,,,,,,,,,,,,,,,,,,,,,,,,,,,,,,,,,,,,,,
,,5f823a9879e10536650a3d81,2024-02-22_03h18.36.907,kallum_motion_pilot,2023.2.2,Win32,12.65822785,5f823a9879e10536650a3d81,65d6bb0e977760de756971f7,65d6bce6972c1d2144b7f4c8,0.0286,0.0286,0,101,101,26,1,twoone,,,,,,,,,,,,,,,,,,,,,,,,,,,,,,,,,,,,,,,,,,,,,,,,,,,,,,,,,,,,,,,,,,,,,,,,,,,,,,,,,,,,,,,,,,,,,,,,,,,,,,,,,,,,,,,,,,,,,,,,,,,,,,,,,,,,,,,,,
,,5f823a9879e10536650a3d81,2024-02-22_03h18.36.907,kallum_motion_pilot,2023.2.2,Win32,12.65822785,5f823a9879e10536650a3d81,65d6bb0e977760de756971f7,65d6bce6972c1d2144b7f4c8,0.0286,0.0286,0,102,102,95,1,eightseven,,,,,,,,,,,,,,,,,,,,,,,,,,,,,,,,,,,,,,,,,,,,,,,,,,,,,,,,,,,,,,,,,,,,,,,,,,,,,,,,,,,,,,,,,,,,,,,,,,,,,,,,,,,,,,,,,,,,,,,,,,,,,,,,,,,,,,,,,
,,5f823a9879e10536650a3d81,2024-02-22_03h18.36.907,kallum_motion_pilot,2023.2.2,Win32,12.65822785,5f823a9879e10536650a3d81,65d6bb0e977760de756971f7,65d6bce6972c1d2144b7f4c8,0.0287,0.0287,0,103,103,71,1,fourthree,,,,,,,,,,,,,,,,,,,,,,,,,,,,,,,,,,,,,,,,,,,,,,,,,,,,,,,,,,,,,,,,,,,,,,,,,,,,,,,,,,,,,,,,,,,,,,,,,,,,,,,,,,,,,,,,,,,,,,,,,,,,,,,,,,,,,,,,,
,,5f823a9879e10536650a3d81,2024-02-22_03h18.36.907,kallum_motion_pilot,2023.2.2,Win32,12.65822785,5f823a9879e10536650a3d81,65d6bb0e977760de756971f7,65d6bce6972c1d2144b7f4c8,0.0288,0.0289,0,104,104,90,1,sixfive,,,,,,,,,,,,,,,,,,,,,,,,,,,,,,,,,,,,,,,,,,,,,,,,,,,,,,,,,,,,,,,,,,,,,,,,,,,,,,,,,,,,,,,,,,,,,,,,,,,,,,,,,,,,,,,,,,,,,,,,,,,,,,,,,,,,,,,,,
,,5f823a9879e10536650a3d81,2024-02-22_03h18.36.907,kallum_motion_pilot,2023.2.2,Win32,12.65822785,5f823a9879e10536650a3d81,65d6bb0e977760de756971f7,65d6bce6972c1d2144b7f4c8,0.0289,0.0289,0,105,105,52,1,threeone,,,,,,,,,,,,,,,,,,,,,,,,,,,,,,,,,,,,,,,,,,,,,,,,,,,,,,,,,,,,,,,,,,,,,,,,,,,,,,,,,,,,,,,,,,,,,,,,,,,,,,,,,,,,,,,,,,,,,,,,,,,,,,,,,,,,,,,,,
,,5f823a9879e10536650a3d81,2024-02-22_03h18.36.907,kallum_motion_pilot,2023.2.2,Win32,12.65822785,5f823a9879e10536650a3d81,65d6bb0e977760de756971f7,65d6bce6972c1d2144b7f4c8,0.029,0.029,0,106,106,159,1,eightseven,,,,,,,,,,,,,,,,,,,,,,,,,,,,,,,,,,,,,,,,,,,,,,,,,,,,,,,,,,,,,,,,,,,,,,,,,,,,,,,,,,,,,,,,,,,,,,,,,,,,,,,,,,,,,,,,,,,,,,,,,,,,,,,,,,,,,,,,,
,,5f823a9879e10536650a3d81,2024-02-22_03h18.36.907,kallum_motion_pilot,2023.2.2,Win32,12.65822785,5f823a9879e10536650a3d81,65d6bb0e977760de756971f7,65d6bce6972c1d2144b7f4c8,0.029,0.0291,0,107,107,78,1,fourtwo,,,,,,,,,,,,,,,,,,,,,,,,,,,,,,,,,,,,,,,,,,,,,,,,,,,,,,,,,,,,,,,,,,,,,,,,,,,,,,,,,,,,,,,,,,,,,,,,,,,,,,,,,,,,,,,,,,,,,,,,,,,,,,,,,,,,,,,,,
,,5f823a9879e10536650a3d81,2024-02-22_03h18.36.907,kallum_motion_pilot,2023.2.2,Win32,12.65822785,5f823a9879e10536650a3d81,65d6bb0e977760de756971f7,65d6bce6972c1d2144b7f4c8,0.0292,0.0292,0,108,108,64,1,onetwo,,,,,,,,,,,,,,,,,,,,,,,,,,,,,,,,,,,,,,,,,,,,,,,,,,,,,,,,,,,,,,,,,,,,,,,,,,,,,,,,,,,,,,,,,,,,,,,,,,,,,,,,,,,,,,,,,,,,,,,,,,,,,,,,,,,,,,,,,
,,5f823a9879e10536650a3d81,2024-02-22_03h18.36.907,kallum_motion_pilot,2023.2.2,Win32,12.65822785,5f823a9879e10536650a3d81,65d6bb0e977760de756971f7,65d6bce6972c1d2144b7f4c8,0.0293,0.0293,0,109,109,104,1,fivesix,,,,,,,,,,,,,,,,,,,,,,,,,,,,,,,,,,,,,,,,,,,,,,,,,,,,,,,,,,,,,,,,,,,,,,,,,,,,,,,,,,,,,,,,,,,,,,,,,,,,,,,,,,,,,,,,,,,,,,,,,,,,,,,,,,,,,,,,,
,,5f823a9879e10536650a3d81,2024-02-22_03h18.36.907,kallum_motion_pilot,2023.2.2,Win32,12.65822785,5f823a9879e10536650a3d81,65d6bb0e977760de756971f7,65d6bce6972c1d2144b7f4c8,0.0294,0.0294,0,110,110,11,1,twofour,,,,,,,,,,,,,,,,,,,,,,,,,,,,,,,,,,,,,,,,,,,,,,,,,,,,,,,,,,,,,,,,,,,,,,,,,,,,,,,,,,,,,,,,,,,,,,,,,,,,,,,,,,,,,,,,,,,,,,,,,,,,,,,,,,,,,,,,,
,,5f823a9879e10536650a3d81,2024-02-22_03h18.36.907,kallum_motion_pilot,2023.2.2,Win32,12.65822785,5f823a9879e10536650a3d81,65d6bb0e977760de756971f7,65d6bce6972c1d2144b7f4c8,0.0294,0.0294,0,111,111,44,1,threeone,,,,,,,,,,,,,,,,,,,,,,,,,,,,,,,,,,,,,,,,,,,,,,,,,,,,,,,,,,,,,,,,,,,,,,,,,,,,,,,,,,,,,,,,,,,,,,,,,,,,,,,,,,,,,,,,,,,,,,,,,,,,,,,,,,,,,,,,,
,,5f823a9879e10536650a3d81,2024-02-22_03h18.36.907,kallum_motion_pilot,2023.2.2,Win32,12.65822785,5f823a9879e10536650a3d81,65d6bb0e977760de756971f7,65d6bce6972c1d2144b7f4c8,0.0295,0.0295,0,112,112,147,1,sixeight,,,,,,,,,,,,,,,,,,,,,,,,,,,,,,,,,,,,,,,,,,,,,,,,,,,,,,,,,,,,,,,,,,,,,,,,,,,,,,,,,,,,,,,,,,,,,,,,,,,,,,,,,,,,,,,,,,,,,,,,,,,,,,,,,,,,,,,,,
,,5f823a9879e10536650a3d81,2024-02-22_03h18.36.907,kallum_motion_pilot,2023.2.2,Win32,12.65822785,5f823a9879e10536650a3d81,65d6bb0e977760de756971f7,65d6bce6972c1d2144b7f4c8,0.0296,0.0296,0,113,113,31,1,fourthree,,,,,,,,,,,,,,,,,,,,,,,,,,,,,,,,,,,,,,,,,,,,,,,,,,,,,,,,,,,,,,,,,,,,,,,,,,,,,,,,,,,,,,,,,,,,,,,,,,,,,,,,,,,,,,,,,,,,,,,,,,,,,,,,,,,,,,,,,
,,5f823a9879e10536650a3d81,2024-02-22_03h18.36.907,kallum_motion_pilot,2023.2.2,Win32,12.65822785,5f823a9879e10536650a3d81,65d6bb0e977760de756971f7,65d6bce6972c1d2144b7f4c8,0.0298,0.0298,0,114,114,34,1,twoone,,,,,,,,,,,,,,,,,,,,,,,,,,,,,,,,,,,,,,,,,,,,,,,,,,,,,,,,,,,,,,,,,,,,,,,,,,,,,,,,,,,,,,,,,,,,,,,,,,,,,,,,,,,,,,,,,,,,,,,,,,,,,,,,,,,,,,,,,
,,5f823a9879e10536650a3d81,2024-02-22_03h18.36.907,kallum_motion_pilot,2023.2.2,Win32,12.65822785,5f823a9879e10536650a3d81,65d6bb0e977760de756971f7,65d6bce6972c1d2144b7f4c8,0.0299,0.0299,0,115,115,115,1,sixeight,,,,,,,,,,,,,,,,,,,,,,,,,,,,,,,,,,,,,,,,,,,,,,,,,,,,,,,,,,,,,,,,,,,,,,,,,,,,,,,,,,,,,,,,,,,,,,,,,,,,,,,,,,,,,,,,,,,,,,,,,,,,,,,,,,,,,,,,,
,,5f823a9879e10536650a3d81,2024-02-22_03h18.36.907,kallum_motion_pilot,2023.2.2,Win32,12.65822785,5f823a9879e10536650a3d81,65d6bb0e977760de756971f7,65d6bce6972c1d2144b7f4c8,0.0299,0.03,0,116,116,45,1,threefour,,,,,,,,,,,,,,,,,,,,,,,,,,,,,,,,,,,,,,,,,,,,,,,,,,,,,,,,,,,,,,,,,,,,,,,,,,,,,,,,,,,,,,,,,,,,,,,,,,,,,,,,,,,,,,,,,,,,,,,,,,,,,,,,,,,,,,,,,
,,5f823a9879e10536650a3d81,2024-02-22_03h18.36.907,kallum_motion_pilot,2023.2.2,Win32,12.65822785,5f823a9879e10536650a3d81,65d6bb0e977760de756971f7,65d6bce6972c1d2144b7f4c8,0.03,0.03,0,117,117,141,1,seveneight,,,,,,,,,,,,,,,,,,,,,,,,,,,,,,,,,,,,,,,,,,,,,,,,,,,,,,,,,,,,,,,,,,,,,,,,,,,,,,,,,,,,,,,,,,,,,,,,,,,,,,,,,,,,,,,,,,,,,,,,,,,,,,,,,,,,,,,,,
,,5f823a9879e10536650a3d81,2024-02-22_03h18.36.907,kallum_motion_pilot,2023.2.2,Win32,12.65822785,5f823a9879e10536650a3d81,65d6bb0e977760de756971f7,65d6bce6972c1d2144b7f4c8,0.0301,0.0302,0,118,118,30,1,fourtwo,,,,,,,,,,,,,,,,,,,,,,,,,,,,,,,,,,,,,,,,,,,,,,,,,,,,,,,,,,,,,,,,,,,,,,,,,,,,,,,,,,,,,,,,,,,,,,,,,,,,,,,,,,,,,,,,,,,,,,,,,,,,,,,,,,,,,,,,,
,,5f823a9879e10536650a3d81,2024-02-22_03h18.36.907,kallum_motion_pilot,2023.2.2,Win32,12.65822785,5f823a9879e10536650a3d81,65d6bb0e977760de756971f7,65d6bce6972c1d2144b7f4c8,0.0302,0.0303,0,119,119,123,1,sixeight,,,,,,,,,,,,,,,,,,,,,,,,,,,,,,,,,,,,,,,,,,,,,,,,,,,,,,,,,,,,,,,,,,,,,,,,,,,,,,,,,,,,,,,,,,,,,,,,,,,,,,,,,,,,,,,,,,,,,,,,,,,,,,,,,,,,,,,,,
,,5f823a9879e10536650a3d81,2024-02-22_03h18.36.907,kallum_motion_pilot,2023.2.2,Win32,12.65822785,5f823a9879e10536650a3d81,65d6bb0e977760de756971f7,65d6bce6972c1d2144b7f4c8,0.0304,0.0304,0,120,120,154,1,sixfive,,,,,,,,,,,,,,,,,,,,,,,,,,,,,,,,,,,,,,,,,,,,,,,,,,,,,,,,,,,,,,,,,,,,,,,,,,,,,,,,,,,,,,,,,,,,,,,,,,,,,,,,,,,,,,,,,,,,,,,,,,,,,,,,,,,,,,,,,
,,5f823a9879e10536650a3d81,2024-02-22_03h18.36.907,kallum_motion_pilot,2023.2.2,Win32,12.65822785,5f823a9879e10536650a3d81,65d6bb0e977760de756971f7,65d6bce6972c1d2144b7f4c8,0.0305,0.0305,0,121,121,38,1,fourtwo,,,,,,,,,,,,,,,,,,,,,,,,,,,,,,,,,,,,,,,,,,,,,,,,,,,,,,,,,,,,,,,,,,,,,,,,,,,,,,,,,,,,,,,,,,,,,,,,,,,,,,,,,,,,,,,,,,,,,,,,,,,,,,,,,,,,,,,,,
,,5f823a9879e10536650a3d81,2024-02-22_03h18.36.907,kallum_motion_pilot,2023.2.2,Win32,12.65822785,5f823a9879e10536650a3d81,65d6bb0e977760de756971f7,65d6bce6972c1d2144b7f4c8,0.0306,0.0307,0,122,122,37,1,threefour,,,,,,,,,,,,,,,,,,,,,,,,,,,,,,,,,,,,,,,,,,,,,,,,,,,,,,,,,,,,,,,,,,,,,,,,,,,,,,,,,,,,,,,,,,,,,,,,,,,,,,,,,,,,,,,,,,,,,,,,,,,,,,,,,,,,,,,,,
,,5f823a9879e10536650a3d81,2024-02-22_03h18.36.907,kallum_motion_pilot,2023.2.2,Win32,12.65822785,5f823a9879e10536650a3d81,65d6bb0e977760de756971f7,65d6bce6972c1d2144b7f4c8,0.0308,0.0308,0,123,123,130,1,sixfive,,,,,,,,,,,,,,,,,,,,,,,,,,,,,,,,,,,,,,,,,,,,,,,,,,,,,,,,,,,,,,,,,,,,,,,,,,,,,,,,,,,,,,,,,,,,,,,,,,,,,,,,,,,,,,,,,,,,,,,,,,,,,,,,,,,,,,,,,
,,5f823a9879e10536650a3d81,2024-02-22_03h18.36.907,kallum_motion_pilot,2023.2.2,Win32,12.65822785,5f823a9879e10536650a3d81,65d6bb0e977760de756971f7,65d6bce6972c1d2144b7f4c8,0.0309,0.0309,0,124,124,22,1,fourtwo,,,,,,,,,,,,,,,,,,,,,,,,,,,,,,,,,,,,,,,,,,,,,,,,,,,,,,,,,,,,,,,,,,,,,,,,,,,,,,,,,,,,,,,,,,,,,,,,,,,,,,,,,,,,,,,,,,,,,,,,,,,,,,,,,,,,,,,,,
,,5f823a9879e10536650a3d81,2024-02-22_03h18.36.907,kallum_motion_pilot,2023.2.2,Win32,12.65822785,5f823a9879e10536650a3d81,65d6bb0e977760de756971f7,65d6bce6972c1d2144b7f4c8,0.031,0.0311,0,125,125,46,1,fourtwo,,,,,,,,,,,,,,,,,,,,,,,,,,,,,,,,,,,,,,,,,,,,,,,,,,,,,,,,,,,,,,,,,,,,,,,,,,,,,,,,,,,,,,,,,,,,,,,,,,,,,,,,,,,,,,,,,,,,,,,,,,,,,,,,,,,,,,,,,
,,5f823a9879e10536650a3d81,2024-02-22_03h18.36.907,kallum_motion_pilot,2023.2.2,Win32,12.65822785,5f823a9879e10536650a3d81,65d6bb0e977760de756971f7,65d6bce6972c1d2144b7f4c8,0.0311,0.0311,0,126,126,105,1,fiveseven,,,,,,,,,,,,,,,,,,,,,,,,,,,,,,,,,,,,,,,,,,,,,,,,,,,,,,,,,,,,,,,,,,,,,,,,,,,,,,,,,,,,,,,,,,,,,,,,,,,,,,,,,,,,,,,,,,,,,,,,,,,,,,,,,,,,,,,,,
,,5f823a9879e10536650a3d81,2024-02-22_03h18.36.907,kallum_motion_pilot,2023.2.2,Win32,12.65822785,5f823a9879e10536650a3d81,65d6bb0e977760de756971f7,65d6bce6972c1d2144b7f4c8,0.0312,0.0313,0,127,127,19,1,twofour,,,,,,,,,,,,,,,,,,,,,,,,,,,,,,,,,,,,,,,,,,,,,,,,,,,,,,,,,,,,,,,,,,,,,,,,,,,,,,,,,,,,,,,,,,,,,,,,,,,,,,,,,,,,,,,,,,,,,,,,,,,,,,,,,,,,,,,,,
,,5f823a9879e10536650a3d81,2024-02-22_03h18.36.907,kallum_motion_pilot,2023.2.2,Win32,12.65822785,5f823a9879e10536650a3d81,65d6bb0e977760de756971f7,65d6bce6972c1d2144b7f4c8,0.0314,0.0314,0,128,128,146,1,sixfive,,,,,,,,,,,,,,,,,,,,,,,,,,,,,,,,,,,,,,,,,,,,,,,,,,,,,,,,,,,,,,,,,,,,,,,,,,,,,,,,,,,,,,,,,,,,,,,,,,,,,,,,,,,,,,,,,,,,,,,,,,,,,,,,,,,,,,,,,
,,5f823a9879e10536650a3d81,2024-02-22_03h18.36.907,kallum_motion_pilot,2023.2.2,Win32,12.65822785,5f823a9879e10536650a3d81,65d6bb0e977760de756971f7,65d6bce6972c1d2144b7f4c8,0.0315,0.0315,0,129,129,4,1,threeone,,,,,,,,,,,,,,,,,,,,,,,,,,,,,,,,,,,,,,,,,,,,,,,,,,,,,,,,,,,,,,,,,,,,,,,,,,,,,,,,,,,,,,,,,,,,,,,,,,,,,,,,,,,,,,,,,,,,,,,,,,,,,,,,,,,,,,,,,
,,5f823a9879e10536650a3d81,2024-02-22_03h18.36.907,kallum_motion_pilot,2023.2.2,Win32,12.65822785,5f823a9879e10536650a3d81,65d6bb0e977760de756971f7,65d6bce6972c1d2144b7f4c8,0.0316,0.0317,0,130,130,102,1,eightsix,,,,,,,,,,,,,,,,,,,,,,,,,,,,,,,,,,,,,,,,,,,,,,,,,,,,,,,,,,,,,,,,,,,,,,,,,,,,,,,,,,,,,,,,,,,,,,,,,,,,,,,,,,,,,,,,,,,,,,,,,,,,,,,,,,,,,,,,,
,,5f823a9879e10536650a3d81,2024-02-22_03h18.36.907,kallum_motion_pilot,2023.2.2,Win32,12.65822785,5f823a9879e10536650a3d81,65d6bb0e977760de756971f7,65d6bce6972c1d2144b7f4c8,0.0318,0.0318,0,131,131,73,1,onethree,,,,,,,,,,,,,,,,,,,,,,,,,,,,,,,,,,,,,,,,,,,,,,,,,,,,,,,,,,,,,,,,,,,,,,,,,,,,,,,,,,,,,,,,,,,,,,,,,,,,,,,,,,,,,,,,,,,,,,,,,,,,,,,,,,,,,,,,,
,,5f823a9879e10536650a3d81,2024-02-22_03h18.36.907,kallum_motion_pilot,2023.2.2,Win32,12.65822785,5f823a9879e10536650a3d81,65d6bb0e977760de756971f7,65d6bce6972c1d2144b7f4c8,0.0319,0.0319,0,132,132,42,1,twoone,,,,,,,,,,,,,,,,,,,,,,,,,,,,,,,,,,,,,,,,,,,,,,,,,,,,,,,,,,,,,,,,,,,,,,,,,,,,,,,,,,,,,,,,,,,,,,,,,,,,,,,,,,,,,,,,,,,,,,,,,,,,,,,,,,,,,,,,,
,,5f823a9879e10536650a3d81,2024-02-22_03h18.36.907,kallum_motion_pilot,2023.2.2,Win32,12.65822785,5f823a9879e10536650a3d81,65d6bb0e977760de756971f7,65d6bce6972c1d2144b7f4c8,0.032,0.0321,0,133,133,117,1,seveneight,,,,,,,,,,,,,,,,,,,,,,,,,,,,,,,,,,,,,,,,,,,,,,,,,,,,,,,,,,,,,,,,,,,,,,,,,,,,,,,,,,,,,,,,,,,,,,,,,,,,,,,,,,,,,,,,,,,,,,,,,,,,,,,,,,,,,,,,,
,,5f823a9879e10536650a3d81,2024-02-22_03h18.36.907,kallum_motion_pilot,2023.2.2,Win32,12.65822785,5f823a9879e10536650a3d81,65d6bb0e977760de756971f7,65d6bce6972c1d2144b7f4c8,0.0322,0.0322,0,134,134,157,1,seveneight,,,,,,,,,,,,,,,,,,,,,,,,,,,,,,,,,,,,,,,,,,,,,,,,,,,,,,,,,,,,,,,,,,,,,,,,,,,,,,,,,,,,,,,,,,,,,,,,,,,,,,,,,,,,,,,,,,,,,,,,,,,,,,,,,,,,,,,,,
,,5f823a9879e10536650a3d81,2024-02-22_03h18.36.907,kallum_motion_pilot,2023.2.2,Win32,12.65822785,5f823a9879e10536650a3d81,65d6bb0e977760de756971f7,65d6bce6972c1d2144b7f4c8,0.0323,0.0323,0,135,135,133,1,seveneight,,,,,,,,,,,,,,,,,,,,,,,,,,,,,,,,,,,,,,,,,,,,,,,,,,,,,,,,,,,,,,,,,,,,,,,,,,,,,,,,,,,,,,,,,,,,,,,,,,,,,,,,,,,,,,,,,,,,,,,,,,,,,,,,,,,,,,,,,
,,5f823a9879e10536650a3d81,2024-02-22_03h18.36.907,kallum_motion_pilot,2023.2.2,Win32,12.65822785,5f823a9879e10536650a3d81,65d6bb0e977760de756971f7,65d6bce6972c1d2144b7f4c8,0.0325,0.0325,0,136,136,17,1,onethree,,,,,,,,,,,,,,,,,,,,,,,,,,,,,,,,,,,,,,,,,,,,,,,,,,,,,,,,,,,,,,,,,,,,,,,,,,,,,,,,,,,,,,,,,,,,,,,,,,,,,,,,,,,,,,,,,,,,,,,,,,,,,,,,,,,,,,,,,
,,5f823a9879e10536650a3d81,2024-02-22_03h18.36.907,kallum_motion_pilot,2023.2.2,Win32,12.65822785,5f823a9879e10536650a3d81,65d6bb0e977760de756971f7,65d6bce6972c1d2144b7f4c8,0.0326,0.0326,0,137,137,110,1,eightsix,,,,,,,,,,,,,,,,,,,,,,,,,,,,,,,,,,,,,,,,,,,,,,,,,,,,,,,,,,,,,,,,,,,,,,,,,,,,,,,,,,,,,,,,,,,,,,,,,,,,,,,,,,,,,,,,,,,,,,,,,,,,,,,,,,,,,,,,,
,,5f823a9879e10536650a3d81,2024-02-22_03h18.36.907,kallum_motion_pilot,2023.2.2,Win32,12.65822785,5f823a9879e10536650a3d81,65d6bb0e977760de756971f7,65d6bce6972c1d2144b7f4c8,0.0327,0.0328,0,138,138,96,1,fivesix,,,,,,,,,,,,,,,,,,,,,,,,,,,,,,,,,,,,,,,,,,,,,,,,,,,,,,,,,,,,,,,,,,,,,,,,,,,,,,,,,,,,,,,,,,,,,,,,,,,,,,,,,,,,,,,,,,,,,,,,,,,,,,,,,,,,,,,,,
,,5f823a9879e10536650a3d81,2024-02-22_03h18.36.907,kallum_motion_pilot,2023.2.2,Win32,12.65822785,5f823a9879e10536650a3d81,65d6bb0e977760de756971f7,65d6bce6972c1d2144b7f4c8,0.0329,0.0329,0,139,139,151,1,eightseven,,,,,,,,,,,,,,,,,,,,,,,,,,,,,,,,,,,,,,,,,,,,,,,,,,,,,,,,,,,,,,,,,,,,,,,,,,,,,,,,,,,,,,,,,,,,,,,,,,,,,,,,,,,,,,,,,,,,,,,,,,,,,,,,,,,,,,,,,
,,5f823a9879e10536650a3d81,2024-02-22_03h18.36.907,kallum_motion_pilot,2023.2.2,Win32,12.65822785,5f823a9879e10536650a3d81,65d6bb0e977760de756971f7,65d6bce6972c1d2144b7f4c8,0.033,0.033,0,140,140,120,1,fivesix,,,,,,,,,,,,,,,,,,,,,,,,,,,,,,,,,,,,,,,,,,,,,,,,,,,,,,,,,,,,,,,,,,,,,,,,,,,,,,,,,,,,,,,,,,,,,,,,,,,,,,,,,,,,,,,,,,,,,,,,,,,,,,,,,,,,,,,,,
,,5f823a9879e10536650a3d81,2024-02-22_03h18.36.907,kallum_motion_pilot,2023.2.2,Win32,12.65822785,5f823a9879e10536650a3d81,65d6bb0e977760de756971f7,65d6bce6972c1d2144b7f4c8,0.0332,0.0332,0,141,141,125,1,seveneight,,,,,,,,,,,,,,,,,,,,,,,,,,,,,,,,,,,,,,,,,,,,,,,,,,,,,,,,,,,,,,,,,,,,,,,,,,,,,,,,,,,,,,,,,,,,,,,,,,,,,,,,,,,,,,,,,,,,,,,,,,,,,,,,,,,,,,,,,
,,5f823a9879e10536650a3d81,2024-02-22_03h18.36.907,kallum_motion_pilot,2023.2.2,Win32,12.65822785,5f823a9879e10536650a3d81,65d6bb0e977760de756971f7,65d6bce6972c1d2144b7f4c8,0.0333,0.0334,0,142,142,14,1,fourtwo,,,,,,,,,,,,,,,,,,,,,,,,,,,,,,,,,,,,,,,,,,,,,,,,,,,,,,,,,,,,,,,,,,,,,,,,,,,,,,,,,,,,,,,,,,,,,,,,,,,,,,,,,,,,,,,,,,,,,,,,,,,,,,,,,,,,,,,,,
,,5f823a9879e10536650a3d81,2024-02-22_03h18.36.907,kallum_motion_pilot,2023.2.2,Win32,12.65822785,5f823a9879e10536650a3d81,65d6bb0e977760de756971f7,65d6bce6972c1d2144b7f4c8,0.0334,0.0335,0,143,143,97,1,fiveseven,,,,,,,,,,,,,,,,,,,,,,,,,,,,,,,,,,,,,,,,,,,,,,,,,,,,,,,,,,,,,,,,,,,,,,,,,,,,,,,,,,,,,,,,,,,,,,,,,,,,,,,,,,,,,,,,,,,,,,,,,,,,,,,,,,,,,,,,,
,,5f823a9879e10536650a3d81,2024-02-22_03h18.36.907,kallum_motion_pilot,2023.2.2,Win32,12.65822785,5f823a9879e10536650a3d81,65d6bb0e977760de756971f7,65d6bce6972c1d2144b7f4c8,0.0336,0.0336,0,144,144,86,1,eightsix,,,,,,,,,,,,,,,,,,,,,,,,,,,,,,,,,,,,,,,,,,,,,,,,,,,,,,,,,,,,,,,,,,,,,,,,,,,,,,,,,,,,,,,,,,,,,,,,,,,,,,,,,,,,,,,,,,,,,,,,,,,,,,,,,,,,,,,,,
,,5f823a9879e10536650a3d81,2024-02-22_03h18.36.907,kallum_motion_pilot,2023.2.2,Win32,12.65822785,5f823a9879e10536650a3d81,65d6bb0e977760de756971f7,65d6bce6972c1d2144b7f4c8,0.0337,0.0338,0,145,145,6,1,fourtwo,,,,,,,,,,,,,,,,,,,,,,,,,,,,,,,,,,,,,,,,,,,,,,,,,,,,,,,,,,,,,,,,,,,,,,,,,,,,,,,,,,,,,,,,,,,,,,,,,,,,,,,,,,,,,,,,,,,,,,,,,,,,,,,,,,,,,,,,,
,,5f823a9879e10536650a3d81,2024-02-22_03h18.36.907,kallum_motion_pilot,2023.2.2,Win32,12.65822785,5f823a9879e10536650a3d81,65d6bb0e977760de756971f7,65d6bce6972c1d2144b7f4c8,0.0339,0.0339,0,146,146,100,1,sevenfive,,,,,,,,,,,,,,,,,,,,,,,,,,,,,,,,,,,,,,,,,,,,,,,,,,,,,,,,,,,,,,,,,,,,,,,,,,,,,,,,,,,,,,,,,,,,,,,,,,,,,,,,,,,,,,,,,,,,,,,,,,,,,,,,,,,,,,,,,
,,5f823a9879e10536650a3d81,2024-02-22_03h18.36.907,kallum_motion_pilot,2023.2.2,Win32,12.65822785,5f823a9879e10536650a3d81,65d6bb0e977760de756971f7,65d6bce6972c1d2144b7f4c8,0.0341,0.0341,0,147,147,153,1,fiveseven,,,,,,,,,,,,,,,,,,,,,,,,,,,,,,,,,,,,,,,,,,,,,,,,,,,,,,,,,,,,,,,,,,,,,,,,,,,,,,,,,,,,,,,,,,,,,,,,,,,,,,,,,,,,,,,,,,,,,,,,,,,,,,,,,,,,,,,,,
,,5f823a9879e10536650a3d81,2024-02-22_03h18.36.907,kallum_motion_pilot,2023.2.2,Win32,12.65822785,5f823a9879e10536650a3d81,65d6bb0e977760de756971f7,65d6bce6972c1d2144b7f4c8,0.0341,0.0342,0,148,148,8,1,onetwo,,,,,,,,,,,,,,,,,,,,,,,,,,,,,,,,,,,,,,,,,,,,,,,,,,,,,,,,,,,,,,,,,,,,,,,,,,,,,,,,,,,,,,,,,,,,,,,,,,,,,,,,,,,,,,,,,,,,,,,,,,,,,,,,,,,,,,,,,
,,5f823a9879e10536650a3d81,2024-02-22_03h18.36.907,kallum_motion_pilot,2023.2.2,Win32,12.65822785,5f823a9879e10536650a3d81,65d6bb0e977760de756971f7,65d6bce6972c1d2144b7f4c8,0.0343,0.0344,0,149,149,28,1,threeone,,,,,,,,,,,,,,,,,,,,,,,,,,,,,,,,,,,,,,,,,,,,,,,,,,,,,,,,,,,,,,,,,,,,,,,,,,,,,,,,,,,,,,,,,,,,,,,,,,,,,,,,,,,,,,,,,,,,,,,,,,,,,,,,,,,,,,,,,
,,5f823a9879e10536650a3d81,2024-02-22_03h18.36.907,kallum_motion_pilot,2023.2.2,Win32,12.65822785,5f823a9879e10536650a3d81,65d6bb0e977760de756971f7,65d6bce6972c1d2144b7f4c8,0.0345,0.0345,0,150,150,24,1,onetwo,,,,,,,,,,,,,,,,,,,,,,,,,,,,,,,,,,,,,,,,,,,,,,,,,,,,,,,,,,,,,,,,,,,,,,,,,,,,,,,,,,,,,,,,,,,,,,,,,,,,,,,,,,,,,,,,,,,,,,,,,,,,,,,,,,,,,,,,,
,,5f823a9879e10536650a3d81,2024-02-22_03h18.36.907,kallum_motion_pilot,2023.2.2,Win32,12.65822785,5f823a9879e10536650a3d81,65d6bb0e977760de756971f7,65d6bce6972c1d2144b7f4c8,0.0346,0.0347,0,151,151,16,1,onetwo,,,,,,,,,,,,,,,,,,,,,,,,,,,,,,,,,,,,,,,,,,,,,,,,,,,,,,,,,,,,,,,,,,,,,,,,,,,,,,,,,,,,,,,,,,,,,,,,,,,,,,,,,,,,,,,,,,,,,,,,,,,,,,,,,,,,,,,,,
,,5f823a9879e10536650a3d81,2024-02-22_03h18.36.907,kallum_motion_pilot,2023.2.2,Win32,12.65822785,5f823a9879e10536650a3d81,65d6bb0e977760de756971f7,65d6bce6972c1d2144b7f4c8,0.0348,0.0348,0,152,152,57,1,onethree,,,,,,,,,,,,,,,,,,,,,,,,,,,,,,,,,,,,,,,,,,,,,,,,,,,,,,,,,,,,,,,,,,,,,,,,,,,,,,,,,,,,,,,,,,,,,,,,,,,,,,,,,,,,,,,,,,,,,,,,,,,,,,,,,,,,,,,,,
,,5f823a9879e10536650a3d81,2024-02-22_03h18.36.907,kallum_motion_pilot,2023.2.2,Win32,12.65822785,5f823a9879e10536650a3d81,65d6bb0e977760de756971f7,65d6bce6972c1d2144b7f4c8,0.0348,0.0349,0,153,153,161,1,fiveseven,,,,,,,,,,,,,,,,,,,,,,,,,,,,,,,,,,,,,,,,,,,,,,,,,,,,,,,,,,,,,,,,,,,,,,,,,,,,,,,,,,,,,,,,,,,,,,,,,,,,,,,,,,,,,,,,,,,,,,,,,,,,,,,,,,,,,,,,,
,,5f823a9879e10536650a3d81,2024-02-22_03h18.36.907,kallum_motion_pilot,2023.2.2,Win32,12.65822785,5f823a9879e10536650a3d81,65d6bb0e977760de756971f7,65d6bce6972c1d2144b7f4c8,0.035,0.035,0,154,154,29,1,threefour,,,,,,,,,,,,,,,,,,,,,,,,,,,,,,,,,,,,,,,,,,,,,,,,,,,,,,,,,,,,,,,,,,,,,,,,,,,,,,,,,,,,,,,,,,,,,,,,,,,,,,,,,,,,,,,,,,,,,,,,,,,,,,,,,,,,,,,,,
,,5f823a9879e10536650a3d81,2024-02-22_03h18.36.907,kallum_motion_pilot,2023.2.2,Win32,12.65822785,5f823a9879e10536650a3d81,65d6bb0e977760de756971f7,65d6bce6972c1d2144b7f4c8,0.0351,0.0351,0,155,155,124,1,sevenfive,,,,,,,,,,,,,,,,,,,,,,,,,,,,,,,,,,,,,,,,,,,,,,,,,,,,,,,,,,,,,,,,,,,,,,,,,,,,,,,,,,,,,,,,,,,,,,,,,,,,,,,,,,,,,,,,,,,,,,,,,,,,,,,,,,,,,,,,,
,,5f823a9879e10536650a3d81,2024-02-22_03h18.36.907,kallum_motion_pilot,2023.2.2,Win32,12.65822785,5f823a9879e10536650a3d81,65d6bb0e977760de756971f7,65d6bce6972c1d2144b7f4c8,0.0352,0.0352,0,156,156,106,1,sixfive,,,,,,,,,,,,,,,,,,,,,,,,,,,,,,,,,,,,,,,,,,,,,,,,,,,,,,,,,,,,,,,,,,,,,,,,,,,,,,,,,,,,,,,,,,,,,,,,,,,,,,,,,,,,,,,,,,,,,,,,,,,,,,,,,,,,,,,,,
,,5f823a9879e10536650a3d81,2024-02-22_03h18.36.907,kallum_motion_pilot,2023.2.2,Win32,12.65822785,5f823a9879e10536650a3d81,65d6bb0e977760de756971f7,65d6bce6972c1d2144b7f4c8,0.0353,0.0353,0,157,157,20,1,threeone,,,,,,,,,,,,,,,,,,,,,,,,,,,,,,,,,,,,,,,,,,,,,,,,,,,,,,,,,,,,,,,,,,,,,,,,,,,,,,,,,,,,,,,,,,,,,,,,,,,,,,,,,,,,,,,,,,,,,,,,,,,,,,,,,,,,,,,,,
,,5f823a9879e10536650a3d81,2024-02-22_03h18.36.907,kallum_motion_pilot,2023.2.2,Win32,12.65822785,5f823a9879e10536650a3d81,65d6bb0e977760de756971f7,65d6bce6972c1d2144b7f4c8,0.0353,0.0354,0,158,158,129,1,fiveseven,,,,,,,,,,,,,,,,,,,,,,,,,,,,,,,,,,,,,,,,,,,,,,,,,,,,,,,,,,,,,,,,,,,,,,,,,,,,,,,,,,,,,,,,,,,,,,,,,,,,,,,,,,,,,,,,,,,,,,,,,,,,,,,,,,,,,,,,,
,,5f823a9879e10536650a3d81,2024-02-22_03h18.36.907,kallum_motion_pilot,2023.2.2,Win32,12.65822785,5f823a9879e10536650a3d81,65d6bb0e977760de756971f7,65d6bce6972c1d2144b7f4c8,0.0354,0.0355,0,159,159,122,1,sixfive,,,,,,,,,,,,,,,,,,,,,,,,,,,,,,,,,,,,,,,,,,,,,,,,,,,,,,,,,,,,,,,,,,,,,,,,,,,,,,,,,,,,,,,,,,,,,,,,,,,,,,,,,,,,,,,,,,,,,,,,,,,,,,,,,,,,,,,,,
,,5f823a9879e10536650a3d81,2024-02-22_03h18.36.907,kallum_motion_pilot,2023.2.2,Win32,12.65822785,5f823a9879e10536650a3d81,65d6bb0e977760de756971f7,65d6bce6972c1d2144b7f4c8,0.0355,0.0356,0,160,160,136,1,fivesix,,,,,,,,,,,,,,,,,,,,,,,,,,,,,,,,,,,,,,,,,,,,,,,,,,,,,,,,,,,,,,,,,,,,,,,,,,,,,,,,,,,,,,,,,,,,,,,,,,,,,,,,,,,,,,,,,,,,,,,,,,,,,,,,,,,,,,,,,
,,5f823a9879e10536650a3d81,2024-02-22_03h18.36.907,kallum_motion_pilot,2023.2.2,Win32,12.65822785,5f823a9879e10536650a3d81,65d6bb0e977760de756971f7,65d6bce6972c1d2144b7f4c8,0.0357,0.0357,0,161,161,59,1,twofour,,,,,,,,,,,,,,,,,,,,,,,,,,,,,,,,,,,,,,,,,,,,,,,,,,,,,,,,,,,,,,,,,,,,,,,,,,,,,,,,,,,,,,,,,,,,,,,,,,,,,,,,,,,,,,,,,,,,,,,,,,,,,,,,,,,,,,,,,
,,5f823a9879e10536650a3d81,2024-02-22_03h18.36.907,kallum_motion_pilot,2023.2.2,Win32,12.65822785,5f823a9879e10536650a3d81,65d6bb0e977760de756971f7,65d6bce6972c1d2144b7f4c8,0.0358,0.0358,1,0,162,11,1,twofour,,,,,,,,,,,,,,,,,,,,,,,,,,,,,,,,,,,,,,,,,,,,,,,,,,,,,,,,,,,,,,,,,,,,,,,,,,,,,,,,,,,,,,,,,,,,,,,,,,,,,,,,,,,,,,,,,,,,,,,,,,,,,,,,,,,,,,,,,
,,5f823a9879e10536650a3d81,2024-02-22_03h18.36.907,kallum_motion_pilot,2023.2.2,Win32,12.65822785,5f823a9879e10536650a3d81,65d6bb0e977760de756971f7,65d6bce6972c1d2144b7f4c8,0.0358,0.0359,1,1,163,16,1,onetwo,,,,,,,,,,,,,,,,,,,,,,,,,,,,,,,,,,,,,,,,,,,,,,,,,,,,,,,,,,,,,,,,,,,,,,,,,,,,,,,,,,,,,,,,,,,,,,,,,,,,,,,,,,,,,,,,,,,,,,,,,,,,,,,,,,,,,,,,,
,,5f823a9879e10536650a3d81,2024-02-22_03h18.36.907,kallum_motion_pilot,2023.2.2,Win32,12.65822785,5f823a9879e10536650a3d81,65d6bb0e977760de756971f7,65d6bce6972c1d2144b7f4c8,0.036,0.036,1,2,164,106,1,sixfive,,,,,,,,,,,,,,,,,,,,,,,,,,,,,,,,,,,,,,,,,,,,,,,,,,,,,,,,,,,,,,,,,,,,,,,,,,,,,,,,,,,,,,,,,,,,,,,,,,,,,,,,,,,,,,,,,,,,,,,,,,,,,,,,,,,,,,,,,
,,5f823a9879e10536650a3d81,2024-02-22_03h18.36.907,kallum_motion_pilot,2023.2.2,Win32,12.65822785,5f823a9879e10536650a3d81,65d6bb0e977760de756971f7,65d6bce6972c1d2144b7f4c8,0.0361,0.0362,1,3,165,129,1,fiveseven,,,,,,,,,,,,,,,,,,,,,,,,,,,,,,,,,,,,,,,,,,,,,,,,,,,,,,,,,,,,,,,,,,,,,,,,,,,,,,,,,,,,,,,,,,,,,,,,,,,,,,,,,,,,,,,,,,,,,,,,,,,,,,,,,,,,,,,,,
,,5f823a9879e10536650a3d81,2024-02-22_03h18.36.907,kallum_motion_pilot,2023.2.2,Win32,12.65822785,5f823a9879e10536650a3d81,65d6bb0e977760de756971f7,65d6bce6972c1d2144b7f4c8,0.0363,0.0363,1,4,166,28,1,threeone,,,,,,,,,,,,,,,,,,,,,,,,,,,,,,,,,,,,,,,,,,,,,,,,,,,,,,,,,,,,,,,,,,,,,,,,,,,,,,,,,,,,,,,,,,,,,,,,,,,,,,,,,,,,,,,,,,,,,,,,,,,,,,,,,,,,,,,,,
,,5f823a9879e10536650a3d81,2024-02-22_03h18.36.907,kallum_motion_pilot,2023.2.2,Win32,12.65822785,5f823a9879e10536650a3d81,65d6bb0e977760de756971f7,65d6bce6972c1d2144b7f4c8,0.0363,0.0364,1,5,167,7,1,fourthree,,,,,,,,,,,,,,,,,,,,,,,,,,,,,,,,,,,,,,,,,,,,,,,,,,,,,,,,,,,,,,,,,,,,,,,,,,,,,,,,,,,,,,,,,,,,,,,,,,,,,,,,,,,,,,,,,,,,,,,,,,,,,,,,,,,,,,,,,
,,5f823a9879e10536650a3d81,2024-02-22_03h18.36.907,kallum_motion_pilot,2023.2.2,Win32,12.65822785,5f823a9879e10536650a3d81,65d6bb0e977760de756971f7,65d6bce6972c1d2144b7f4c8,0.0365,0.0365,1,6,168,45,1,threefour,,,,,,,,,,,,,,,,,,,,,,,,,,,,,,,,,,,,,,,,,,,,,,,,,,,,,,,,,,,,,,,,,,,,,,,,,,,,,,,,,,,,,,,,,,,,,,,,,,,,,,,,,,,,,,,,,,,,,,,,,,,,,,,,,,,,,,,,,
,,5f823a9879e10536650a3d81,2024-02-22_03h18.36.907,kallum_motion_pilot,2023.2.2,Win32,12.65822785,5f823a9879e10536650a3d81,65d6bb0e977760de756971f7,65d6bce6972c1d2144b7f4c8,0.0366,0.0366,1,7,169,13,1,threefour,,,,,,,,,,,,,,,,,,,,,,,,,,,,,,,,,,,,,,,,,,,,,,,,,,,,,,,,,,,,,,,,,,,,,,,,,,,,,,,,,,,,,,,,,,,,,,,,,,,,,,,,,,,,,,,,,,,,,,,,,,,,,,,,,,,,,,,,,
,,5f823a9879e10536650a3d81,2024-02-22_03h18.36.907,kallum_motion_pilot,2023.2.2,Win32,12.65822785,5f823a9879e10536650a3d81,65d6bb0e977760de756971f7,65d6bce6972c1d2144b7f4c8,0.0367,0.0367,1,8,170,103,1,eightseven,,,,,,,,,,,,,,,,,,,,,,,,,,,,,,,,,,,,,,,,,,,,,,,,,,,,,,,,,,,,,,,,,,,,,,,,,,,,,,,,,,,,,,,,,,,,,,,,,,,,,,,,,,,,,,,,,,,,,,,,,,,,,,,,,,,,,,,,,
,,5f823a9879e10536650a3d81,2024-02-22_03h18.36.907,kallum_motion_pilot,2023.2.2,Win32,12.65822785,5f823a9879e10536650a3d81,65d6bb0e977760de756971f7,65d6bce6972c1d2144b7f4c8,0.0368,0.0368,1,9,171,77,1,threefour,,,,,,,,,,,,,,,,,,,,,,,,,,,,,,,,,,,,,,,,,,,,,,,,,,,,,,,,,,,,,,,,,,,,,,,,,,,,,,,,,,,,,,,,,,,,,,,,,,,,,,,,,,,,,,,,,,,,,,,,,,,,,,,,,,,,,,,,,
,,5f823a9879e10536650a3d81,2024-02-22_03h18.36.907,kallum_motion_pilot,2023.2.2,Win32,12.65822785,5f823a9879e10536650a3d81,65d6bb0e977760de756971f7,65d6bce6972c1d2144b7f4c8,0.0369,0.0369,1,10,172,30,1,fourtwo,,,,,,,,,,,,,,,,,,,,,,,,,,,,,,,,,,,,,,,,,,,,,,,,,,,,,,,,,,,,,,,,,,,,,,,,,,,,,,,,,,,,,,,,,,,,,,,,,,,,,,,,,,,,,,,,,,,,,,,,,,,,,,,,,,,,,,,,,
,,5f823a9879e10536650a3d81,2024-02-22_03h18.36.907,kallum_motion_pilot,2023.2.2,Win32,12.65822785,5f823a9879e10536650a3d81,65d6bb0e977760de756971f7,65d6bce6972c1d2144b7f4c8,0.037,0.037,1,11,173,97,1,fiveseven,,,,,,,,,,,,,,,,,,,,,,,,,,,,,,,,,,,,,,,,,,,,,,,,,,,,,,,,,,,,,,,,,,,,,,,,,,,,,,,,,,,,,,,,,,,,,,,,,,,,,,,,,,,,,,,,,,,,,,,,,,,,,,,,,,,,,,,,,
,,5f823a9879e10536650a3d81,2024-02-22_03h18.36.907,kallum_motion_pilot,2023.2.2,Win32,12.65822785,5f823a9879e10536650a3d81,65d6bb0e977760de756971f7,65d6bce6972c1d2144b7f4c8,0.0371,0.0372,1,12,174,99,1,sixeight,,,,,,,,,,,,,,,,,,,,,,,,,,,,,,,,,,,,,,,,,,,,,,,,,,,,,,,,,,,,,,,,,,,,,,,,,,,,,,,,,,,,,,,,,,,,,,,,,,,,,,,,,,,,,,,,,,,,,,,,,,,,,,,,,,,,,,,,,
,,5f823a9879e10536650a3d81,2024-02-22_03h18.36.907,kallum_motion_pilot,2023.2.2,Win32,12.65822785,5f823a9879e10536650a3d81,65d6bb0e977760de756971f7,65d6bce6972c1d2144b7f4c8,0.0372,0.0372,1,13,175,35,1,twofour,,,,,,,,,,,,,,,,,,,,,,,,,,,,,,,,,,,,,,,,,,,,,,,,,,,,,,,,,,,,,,,,,,,,,,,,,,,,,,,,,,,,,,,,,,,,,,,,,,,,,,,,,,,,,,,,,,,,,,,,,,,,,,,,,,,,,,,,,
,,5f823a9879e10536650a3d81,2024-02-22_03h18.36.907,kallum_motion_pilot,2023.2.2,Win32,12.65822785,5f823a9879e10536650a3d81,65d6bb0e977760de756971f7,65d6bce6972c1d2144b7f4c8,0.0372,0.0373,1,14,176,12,1,threeone,,,,,,,,,,,,,,,,,,,,,,,,,,,,,,,,,,,,,,,,,,,,,,,,,,,,,,,,,,,,,,,,,,,,,,,,,,,,,,,,,,,,,,,,,,,,,,,,,,,,,,,,,,,,,,,,,,,,,,,,,,,,,,,,,,,,,,,,,
,,5f823a9879e10536650a3d81,2024-02-22_03h18.36.907,kallum_motion_pilot,2023.2.2,Win32,12.65822785,5f823a9879e10536650a3d81,65d6bb0e977760de756971f7,65d6bce6972c1d2144b7f4c8,0.0373,0.0374,1,15,177,125,1,seveneight,,,,,,,,,,,,,,,,,,,,,,,,,,,,,,,,,,,,,,,,,,,,,,,,,,,,,,,,,,,,,,,,,,,,,,,,,,,,,,,,,,,,,,,,,,,,,,,,,,,,,,,,,,,,,,,,,,,,,,,,,,,,,,,,,,,,,,,,,
,,5f823a9879e10536650a3d81,2024-02-22_03h18.36.907,kallum_motion_pilot,2023.2.2,Win32,12.65822785,5f823a9879e10536650a3d81,65d6bb0e977760de756971f7,65d6bce6972c1d2144b7f4c8,0.0375,0.0375,1,16,178,3,1,twofour,,,,,,,,,,,,,,,,,,,,,,,,,,,,,,,,,,,,,,,,,,,,,,,,,,,,,,,,,,,,,,,,,,,,,,,,,,,,,,,,,,,,,,,,,,,,,,,,,,,,,,,,,,,,,,,,,,,,,,,,,,,,,,,,,,,,,,,,,
,,5f823a9879e10536650a3d81,2024-02-22_03h18.36.907,kallum_motion_pilot,2023.2.2,Win32,12.65822785,5f823a9879e10536650a3d81,65d6bb0e977760de756971f7,65d6bce6972c1d2144b7f4c8,0.0375,0.0376,1,17,179,151,1,eightseven,,,,,,,,,,,,,,,,,,,,,,,,,,,,,,,,,,,,,,,,,,,,,,,,,,,,,,,,,,,,,,,,,,,,,,,,,,,,,,,,,,,,,,,,,,,,,,,,,,,,,,,,,,,,,,,,,,,,,,,,,,,,,,,,,,,,,,,,,
,,5f823a9879e10536650a3d81,2024-02-22_03h18.36.907,kallum_motion_pilot,2023.2.2,Win32,12.65822785,5f823a9879e10536650a3d81,65d6bb0e977760de756971f7,65d6bce6972c1d2144b7f4c8,0.0377,0.0377,1,18,180,86,1,eightsix,,,,,,,,,,,,,,,,,,,,,,,,,,,,,,,,,,,,,,,,,,,,,,,,,,,,,,,,,,,,,,,,,,,,,,,,,,,,,,,,,,,,,,,,,,,,,,,,,,,,,,,,,,,,,,,,,,,,,,,,,,,,,,,,,,,,,,,,,
,,5f823a9879e10536650a3d81,2024-02-22_03h18.36.907,kallum_motion_pilot,2023.2.2,Win32,12.65822785,5f823a9879e10536650a3d81,65d6bb0e977760de756971f7,65d6bce6972c1d2144b7f4c8,0.0378,0.0378,1,19,181,78,1,fourtwo,,,,,,,,,,,,,,,,,,,,,,,,,,,,,,,,,,,,,,,,,,,,,,,,,,,,,,,,,,,,,,,,,,,,,,,,,,,,,,,,,,,,,,,,,,,,,,,,,,,,,,,,,,,,,,,,,,,,,,,,,,,,,,,,,,,,,,,,,
,,5f823a9879e10536650a3d81,2024-02-22_03h18.36.907,kallum_motion_pilot,2023.2.2,Win32,12.65822785,5f823a9879e10536650a3d81,65d6bb0e977760de756971f7,65d6bce6972c1d2144b7f4c8,0.0378,0.0379,1,20,182,9,1,onethree,,,,,,,,,,,,,,,,,,,,,,,,,,,,,,,,,,,,,,,,,,,,,,,,,,,,,,,,,,,,,,,,,,,,,,,,,,,,,,,,,,,,,,,,,,,,,,,,,,,,,,,,,,,,,,,,,,,,,,,,,,,,,,,,,,,,,,,,,
,,5f823a9879e10536650a3d81,2024-02-22_03h18.36.907,kallum_motion_pilot,2023.2.2,Win32,12.65822785,5f823a9879e10536650a3d81,65d6bb0e977760de756971f7,65d6bce6972c1d2144b7f4c8,0.038,0.038,1,21,183,49,1,onethree,,,,,,,,,,,,,,,,,,,,,,,,,,,,,,,,,,,,,,,,,,,,,,,,,,,,,,,,,,,,,,,,,,,,,,,,,,,,,,,,,,,,,,,,,,,,,,,,,,,,,,,,,,,,,,,,,,,,,,,,,,,,,,,,,,,,,,,,,
,,5f823a9879e10536650a3d81,2024-02-22_03h18.36.907,kallum_motion_pilot,2023.2.2,Win32,12.65822785,5f823a9879e10536650a3d81,65d6bb0e977760de756971f7,65d6bce6972c1d2144b7f4c8,0.0381,0.0381,1,22,184,60,1,threeone,,,,,,,,,,,,,,,,,,,,,,,,,,,,,,,,,,,,,,,,,,,,,,,,,,,,,,,,,,,,,,,,,,,,,,,,,,,,,,,,,,,,,,,,,,,,,,,,,,,,,,,,,,,,,,,,,,,,,,,,,,,,,,,,,,,,,,,,,
,,5f823a9879e10536650a3d81,2024-02-22_03h18.36.907,kallum_motion_pilot,2023.2.2,Win32,12.65822785,5f823a9879e10536650a3d81,65d6bb0e977760de756971f7,65d6bce6972c1d2144b7f4c8,0.0381,0.0382,1,23,185,20,1,threeone,,,,,,,,,,,,,,,,,,,,,,,,,,,,,,,,,,,,,,,,,,,,,,,,,,,,,,,,,,,,,,,,,,,,,,,,,,,,,,,,,,,,,,,,,,,,,,,,,,,,,,,,,,,,,,,,,,,,,,,,,,,,,,,,,,,,,,,,,
,,5f823a9879e10536650a3d81,2024-02-22_03h18.36.907,kallum_motion_pilot,2023.2.2,Win32,12.65822785,5f823a9879e10536650a3d81,65d6bb0e977760de756971f7,65d6bce6972c1d2144b7f4c8,0.0382,0.0383,1,24,186,5,1,threefour,,,,,,,,,,,,,,,,,,,,,,,,,,,,,,,,,,,,,,,,,,,,,,,,,,,,,,,,,,,,,,,,,,,,,,,,,,,,,,,,,,,,,,,,,,,,,,,,,,,,,,,,,,,,,,,,,,,,,,,,,,,,,,,,,,,,,,,,,
,,5f823a9879e10536650a3d81,2024-02-22_03h18.36.907,kallum_motion_pilot,2023.2.2,Win32,12.65822785,5f823a9879e10536650a3d81,65d6bb0e977760de756971f7,65d6bce6972c1d2144b7f4c8,0.0384,0.0384,1,25,187,155,1,sixeight,,,,,,,,,,,,,,,,,,,,,,,,,,,,,,,,,,,,,,,,,,,,,,,,,,,,,,,,,,,,,,,,,,,,,,,,,,,,,,,,,,,,,,,,,,,,,,,,,,,,,,,,,,,,,,,,,,,,,,,,,,,,,,,,,,,,,,,,,
,,5f823a9879e10536650a3d81,2024-02-22_03h18.36.907,kallum_motion_pilot,2023.2.2,Win32,12.65822785,5f823a9879e10536650a3d81,65d6bb0e977760de756971f7,65d6bce6972c1d2144b7f4c8,0.0384,0.0385,1,26,188,26,1,twoone,,,,,,,,,,,,,,,,,,,,,,,,,,,,,,,,,,,,,,,,,,,,,,,,,,,,,,,,,,,,,,,,,,,,,,,,,,,,,,,,,,,,,,,,,,,,,,,,,,,,,,,,,,,,,,,,,,,,,,,,,,,,,,,,,,,,,,,,,
,,5f823a9879e10536650a3d81,2024-02-22_03h18.36.907,kallum_motion_pilot,2023.2.2,Win32,12.65822785,5f823a9879e10536650a3d81,65d6bb0e977760de756971f7,65d6bce6972c1d2144b7f4c8,0.0386,0.0386,1,27,189,105,1,fiveseven,,,,,,,,,,,,,,,,,,,,,,,,,,,,,,,,,,,,,,,,,,,,,,,,,,,,,,,,,,,,,,,,,,,,,,,,,,,,,,,,,,,,,,,,,,,,,,,,,,,,,,,,,,,,,,,,,,,,,,,,,,,,,,,,,,,,,,,,,
,,5f823a9879e10536650a3d81,2024-02-22_03h18.36.907,kallum_motion_pilot,2023.2.2,Win32,12.65822785,5f823a9879e10536650a3d81,65d6bb0e977760de756971f7,65d6bce6972c1d2144b7f4c8,0.0386,0.0386,1,28,190,127,1,eightseven,,,,,,,,,,,,,,,,,,,,,,,,,,,,,,,,,,,,,,,,,,,,,,,,,,,,,,,,,,,,,,,,,,,,,,,,,,,,,,,,,,,,,,,,,,,,,,,,,,,,,,,,,,,,,,,,,,,,,,,,,,,,,,,,,,,,,,,,,
,,5f823a9879e10536650a3d81,2024-02-22_03h18.36.907,kallum_motion_pilot,2023.2.2,Win32,12.65822785,5f823a9879e10536650a3d81,65d6bb0e977760de756971f7,65d6bce6972c1d2144b7f4c8,0.0387,0.0388,1,29,191,36,1,threeone,,,,,,,,,,,,,,,,,,,,,,,,,,,,,,,,,,,,,,,,,,,,,,,,,,,,,,,,,,,,,,,,,,,,,,,,,,,,,,,,,,,,,,,,,,,,,,,,,,,,,,,,,,,,,,,,,,,,,,,,,,,,,,,,,,,,,,,,,
,,5f823a9879e10536650a3d81,2024-02-22_03h18.36.907,kallum_motion_pilot,2023.2.2,Win32,12.65822785,5f823a9879e10536650a3d81,65d6bb0e977760de756971f7,65d6bce6972c1d2144b7f4c8,0.0388,0.0388,1,30,192,41,1,onethree,,,,,,,,,,,,,,,,,,,,,,,,,,,,,,,,,,,,,,,,,,,,,,,,,,,,,,,,,,,,,,,,,,,,,,,,,,,,,,,,,,,,,,,,,,,,,,,,,,,,,,,,,,,,,,,,,,,,,,,,,,,,,,,,,,,,,,,,,
,,5f823a9879e10536650a3d81,2024-02-22_03h18.36.907,kallum_motion_pilot,2023.2.2,Win32,12.65822785,5f823a9879e10536650a3d81,65d6bb0e977760de756971f7,65d6bce6972c1d2144b7f4c8,0.0388,0.0389,1,31,193,152,1,fivesix,,,,,,,,,,,,,,,,,,,,,,,,,,,,,,,,,,,,,,,,,,,,,,,,,,,,,,,,,,,,,,,,,,,,,,,,,,,,,,,,,,,,,,,,,,,,,,,,,,,,,,,,,,,,,,,,,,,,,,,,,,,,,,,,,,,,,,,,,
,,5f823a9879e10536650a3d81,2024-02-22_03h18.36.907,kallum_motion_pilot,2023.2.2,Win32,12.65822785,5f823a9879e10536650a3d81,65d6bb0e977760de756971f7,65d6bce6972c1d2144b7f4c8,0.039,0.039,1,32,194,50,1,twoone,,,,,,,,,,,,,,,,,,,,,,,,,,,,,,,,,,,,,,,,,,,,,,,,,,,,,,,,,,,,,,,,,,,,,,,,,,,,,,,,,,,,,,,,,,,,,,,,,,,,,,,,,,,,,,,,,,,,,,,,,,,,,,,,,,,,,,,,,
,,5f823a9879e10536650a3d81,2024-02-22_03h18.36.907,kallum_motion_pilot,2023.2.2,Win32,12.65822785,5f823a9879e10536650a3d81,65d6bb0e977760de756971f7,65d6bce6972c1d2144b7f4c8,0.0391,0.0391,1,33,195,158,1,eightsix,,,,,,,,,,,,,,,,,,,,,,,,,,,,,,,,,,,,,,,,,,,,,,,,,,,,,,,,,,,,,,,,,,,,,,,,,,,,,,,,,,,,,,,,,,,,,,,,,,,,,,,,,,,,,,,,,,,,,,,,,,,,,,,,,,,,,,,,,
,,5f823a9879e10536650a3d81,2024-02-22_03h18.36.907,kallum_motion_pilot,2023.2.2,Win32,12.65822785,5f823a9879e10536650a3d81,65d6bb0e977760de756971f7,65d6bce6972c1d2144b7f4c8,0.0391,0.0392,1,34,196,32,1,onetwo,,,,,,,,,,,,,,,,,,,,,,,,,,,,,,,,,,,,,,,,,,,,,,,,,,,,,,,,,,,,,,,,,,,,,,,,,,,,,,,,,,,,,,,,,,,,,,,,,,,,,,,,,,,,,,,,,,,,,,,,,,,,,,,,,,,,,,,,,
,,5f823a9879e10536650a3d81,2024-02-22_03h18.36.907,kallum_motion_pilot,2023.2.2,Win32,12.65822785,5f823a9879e10536650a3d81,65d6bb0e977760de756971f7,65d6bce6972c1d2144b7f4c8,0.0393,0.0393,1,35,197,53,1,threefour,,,,,,,,,,,,,,,,,,,,,,,,,,,,,,,,,,,,,,,,,,,,,,,,,,,,,,,,,,,,,,,,,,,,,,,,,,,,,,,,,,,,,,,,,,,,,,,,,,,,,,,,,,,,,,,,,,,,,,,,,,,,,,,,,,,,,,,,,
,,5f823a9879e10536650a3d81,2024-02-22_03h18.36.907,kallum_motion_pilot,2023.2.2,Win32,12.65822785,5f823a9879e10536650a3d81,65d6bb0e977760de756971f7,65d6bce6972c1d2144b7f4c8,0.0393,0.0394,1,36,198,102,1,eightsix,,,,,,,,,,,,,,,,,,,,,,,,,,,,,,,,,,,,,,,,,,,,,,,,,,,,,,,,,,,,,,,,,,,,,,,,,,,,,,,,,,,,,,,,,,,,,,,,,,,,,,,,,,,,,,,,,,,,,,,,,,,,,,,,,,,,,,,,,
,,5f823a9879e10536650a3d81,2024-02-22_03h18.36.907,kallum_motion_pilot,2023.2.2,Win32,12.65822785,5f823a9879e10536650a3d81,65d6bb0e977760de756971f7,65d6bce6972c1d2144b7f4c8,0.0394,0.0395,1,37,199,85,1,seveneight,,,,,,,,,,,,,,,,,,,,,,,,,,,,,,,,,,,,,,,,,,,,,,,,,,,,,,,,,,,,,,,,,,,,,,,,,,,,,,,,,,,,,,,,,,,,,,,,,,,,,,,,,,,,,,,,,,,,,,,,,,,,,,,,,,,,,,,,,
,,5f823a9879e10536650a3d81,2024-02-22_03h18.36.907,kallum_motion_pilot,2023.2.2,Win32,12.65822785,5f823a9879e10536650a3d81,65d6bb0e977760de756971f7,65d6bce6972c1d2144b7f4c8,0.0396,0.0396,1,38,200,133,1,seveneight,,,,,,,,,,,,,,,,,,,,,,,,,,,,,,,,,,,,,,,,,,,,,,,,,,,,,,,,,,,,,,,,,,,,,,,,,,,,,,,,,,,,,,,,,,,,,,,,,,,,,,,,,,,,,,,,,,,,,,,,,,,,,,,,,,,,,,,,,
,,5f823a9879e10536650a3d81,2024-02-22_03h18.36.907,kallum_motion_pilot,2023.2.2,Win32,12.65822785,5f823a9879e10536650a3d81,65d6bb0e977760de756971f7,65d6bce6972c1d2144b7f4c8,0.0396,0.0396,1,39,201,55,1,fourthree,,,,,,,,,,,,,,,,,,,,,,,,,,,,,,,,,,,,,,,,,,,,,,,,,,,,,,,,,,,,,,,,,,,,,,,,,,,,,,,,,,,,,,,,,,,,,,,,,,,,,,,,,,,,,,,,,,,,,,,,,,,,,,,,,,,,,,,,,
,,5f823a9879e10536650a3d81,2024-02-22_03h18.36.907,kallum_motion_pilot,2023.2.2,Win32,12.65822785,5f823a9879e10536650a3d81,65d6bb0e977760de756971f7,65d6bce6972c1d2144b7f4c8,0.0397,0.0398,1,40,202,138,1,sixfive,,,,,,,,,,,,,,,,,,,,,,,,,,,,,,,,,,,,,,,,,,,,,,,,,,,,,,,,,,,,,,,,,,,,,,,,,,,,,,,,,,,,,,,,,,,,,,,,,,,,,,,,,,,,,,,,,,,,,,,,,,,,,,,,,,,,,,,,,
,,5f823a9879e10536650a3d81,2024-02-22_03h18.36.907,kallum_motion_pilot,2023.2.2,Win32,12.65822785,5f823a9879e10536650a3d81,65d6bb0e977760de756971f7,65d6bce6972c1d2144b7f4c8,0.0398,0.0398,1,41,203,8,1,onetwo,,,,,,,,,,,,,,,,,,,,,,,,,,,,,,,,,,,,,,,,,,,,,,,,,,,,,,,,,,,,,,,,,,,,,,,,,,,,,,,,,,,,,,,,,,,,,,,,,,,,,,,,,,,,,,,,,,,,,,,,,,,,,,,,,,,,,,,,,
,,5f823a9879e10536650a3d81,2024-02-22_03h18.36.907,kallum_motion_pilot,2023.2.2,Win32,12.65822785,5f823a9879e10536650a3d81,65d6bb0e977760de756971f7,65d6bce6972c1d2144b7f4c8,0.0399,0.0399,1,42,204,95,1,eightseven,,,,,,,,,,,,,,,,,,,,,,,,,,,,,,,,,,,,,,,,,,,,,,,,,,,,,,,,,,,,,,,,,,,,,,,,,,,,,,,,,,,,,,,,,,,,,,,,,,,,,,,,,,,,,,,,,,,,,,,,,,,,,,,,,,,,,,,,,
,,5f823a9879e10536650a3d81,2024-02-22_03h18.36.907,kallum_motion_pilot,2023.2.2,Win32,12.65822785,5f823a9879e10536650a3d81,65d6bb0e977760de756971f7,65d6bce6972c1d2144b7f4c8,0.0399,0.04,1,43,205,141,1,seveneight,,,,,,,,,,,,,,,,,,,,,,,,,,,,,,,,,,,,,,,,,,,,,,,,,,,,,,,,,,,,,,,,,,,,,,,,,,,,,,,,,,,,,,,,,,,,,,,,,,,,,,,,,,,,,,,,,,,,,,,,,,,,,,,,,,,,,,,,,
,,5f823a9879e10536650a3d81,2024-02-22_03h18.36.907,kallum_motion_pilot,2023.2.2,Win32,12.65822785,5f823a9879e10536650a3d81,65d6bb0e977760de756971f7,65d6bce6972c1d2144b7f4c8,0.0401,0.0401,1,44,206,57,1,onethree,,,,,,,,,,,,,,,,,,,,,,,,,,,,,,,,,,,,,,,,,,,,,,,,,,,,,,,,,,,,,,,,,,,,,,,,,,,,,,,,,,,,,,,,,,,,,,,,,,,,,,,,,,,,,,,,,,,,,,,,,,,,,,,,,,,,,,,,,
,,5f823a9879e10536650a3d81,2024-02-22_03h18.36.907,kallum_motion_pilot,2023.2.2,Win32,12.65822785,5f823a9879e10536650a3d81,65d6bb0e977760de756971f7,65d6bce6972c1d2144b7f4c8,0.0401,0.0401,1,45,207,23,1,fourthree,,,,,,,,,,,,,,,,,,,,,,,,,,,,,,,,,,,,,,,,,,,,,,,,,,,,,,,,,,,,,,,,,,,,,,,,,,,,,,,,,,,,,,,,,,,,,,,,,,,,,,,,,,,,,,,,,,,,,,,,,,,,,,,,,,,,,,,,,
,,5f823a9879e10536650a3d81,2024-02-22_03h18.36.907,kallum_motion_pilot,2023.2.2,Win32,12.65822785,5f823a9879e10536650a3d81,65d6bb0e977760de756971f7,65d6bce6972c1d2144b7f4c8,0.0402,0.0402,1,46,208,73,1,onethree,,,,,,,,,,,,,,,,,,,,,,,,,,,,,,,,,,,,,,,,,,,,,,,,,,,,,,,,,,,,,,,,,,,,,,,,,,,,,,,,,,,,,,,,,,,,,,,,,,,,,,,,,,,,,,,,,,,,,,,,,,,,,,,,,,,,,,,,,
,,5f823a9879e10536650a3d81,2024-02-22_03h18.36.907,kallum_motion_pilot,2023.2.2,Win32,12.65822785,5f823a9879e10536650a3d81,65d6bb0e977760de756971f7,65d6bce6972c1d2144b7f4c8,0.0403,0.0403,1,47,209,34,1,twoone,,,,,,,,,,,,,,,,,,,,,,,,,,,,,,,,,,,,,,,,,,,,,,,,,,,,,,,,,,,,,,,,,,,,,,,,,,,,,,,,,,,,,,,,,,,,,,,,,,,,,,,,,,,,,,,,,,,,,,,,,,,,,,,,,,,,,,,,,
,,5f823a9879e10536650a3d81,2024-02-22_03h18.36.907,kallum_motion_pilot,2023.2.2,Win32,12.65822785,5f823a9879e10536650a3d81,65d6bb0e977760de756971f7,65d6bce6972c1d2144b7f4c8,0.0403,0.0404,1,48,210,89,1,fiveseven,,,,,,,,,,,,,,,,,,,,,,,,,,,,,,,,,,,,,,,,,,,,,,,,,,,,,,,,,,,,,,,,,,,,,,,,,,,,,,,,,,,,,,,,,,,,,,,,,,,,,,,,,,,,,,,,,,,,,,,,,,,,,,,,,,,,,,,,,
,,5f823a9879e10536650a3d81,2024-02-22_03h18.36.907,kallum_motion_pilot,2023.2.2,Win32,12.65822785,5f823a9879e10536650a3d81,65d6bb0e977760de756971f7,65d6bce6972c1d2144b7f4c8,0.0405,0.0405,1,49,211,144,1,fivesix,,,,,,,,,,,,,,,,,,,,,,,,,,,,,,,,,,,,,,,,,,,,,,,,,,,,,,,,,,,,,,,,,,,,,,,,,,,,,,,,,,,,,,,,,,,,,,,,,,,,,,,,,,,,,,,,,,,,,,,,,,,,,,,,,,,,,,,,,
,,5f823a9879e10536650a3d81,2024-02-22_03h18.36.907,kallum_motion_pilot,2023.2.2,Win32,12.65822785,5f823a9879e10536650a3d81,65d6bb0e977760de756971f7,65d6bce6972c1d2144b7f4c8,0.0407,0.0407,1,50,212,119,1,eightseven,,,,,,,,,,,,,,,,,,,,,,,,,,,,,,,,,,,,,,,,,,,,,,,,,,,,,,,,,,,,,,,,,,,,,,,,,,,,,,,,,,,,,,,,,,,,,,,,,,,,,,,,,,,,,,,,,,,,,,,,,,,,,,,,,,,,,,,,,
,,5f823a9879e10536650a3d81,2024-02-22_03h18.36.907,kallum_motion_pilot,2023.2.2,Win32,12.65822785,5f823a9879e10536650a3d81,65d6bb0e977760de756971f7,65d6bce6972c1d2144b7f4c8,0.0407,0.0408,1,51,213,147,1,sixeight,,,,,,,,,,,,,,,,,,,,,,,,,,,,,,,,,,,,,,,,,,,,,,,,,,,,,,,,,,,,,,,,,,,,,,,,,,,,,,,,,,,,,,,,,,,,,,,,,,,,,,,,,,,,,,,,,,,,,,,,,,,,,,,,,,,,,,,,,
,,5f823a9879e10536650a3d81,2024-02-22_03h18.36.907,kallum_motion_pilot,2023.2.2,Win32,12.65822785,5f823a9879e10536650a3d81,65d6bb0e977760de756971f7,65d6bce6972c1d2144b7f4c8,0.0409,0.0409,1,52,214,52,1,threeone,,,,,,,,,,,,,,,,,,,,,,,,,,,,,,,,,,,,,,,,,,,,,,,,,,,,,,,,,,,,,,,,,,,,,,,,,,,,,,,,,,,,,,,,,,,,,,,,,,,,,,,,,,,,,,,,,,,,,,,,,,,,,,,,,,,,,,,,,
,,5f823a9879e10536650a3d81,2024-02-22_03h18.36.907,kallum_motion_pilot,2023.2.2,Win32,12.65822785,5f823a9879e10536650a3d81,65d6bb0e977760de756971f7,65d6bce6972c1d2144b7f4c8,0.0409,0.041,1,53,215,67,1,twofour,,,,,,,,,,,,,,,,,,,,,,,,,,,,,,,,,,,,,,,,,,,,,,,,,,,,,,,,,,,,,,,,,,,,,,,,,,,,,,,,,,,,,,,,,,,,,,,,,,,,,,,,,,,,,,,,,,,,,,,,,,,,,,,,,,,,,,,,,
,,5f823a9879e10536650a3d81,2024-02-22_03h18.36.907,kallum_motion_pilot,2023.2.2,Win32,12.65822785,5f823a9879e10536650a3d81,65d6bb0e977760de756971f7,65d6bce6972c1d2144b7f4c8,0.041,0.0412,1,54,216,113,1,fiveseven,,,,,,,,,,,,,,,,,,,,,,,,,,,,,,,,,,,,,,,,,,,,,,,,,,,,,,,,,,,,,,,,,,,,,,,,,,,,,,,,,,,,,,,,,,,,,,,,,,,,,,,,,,,,,,,,,,,,,,,,,,,,,,,,,,,,,,,,,
,,5f823a9879e10536650a3d81,2024-02-22_03h18.36.907,kallum_motion_pilot,2023.2.2,Win32,12.65822785,5f823a9879e10536650a3d81,65d6bb0e977760de756971f7,65d6bce6972c1d2144b7f4c8,0.0412,0.0412,1,55,217,71,1,fourthree,,,,,,,,,,,,,,,,,,,,,,,,,,,,,,,,,,,,,,,,,,,,,,,,,,,,,,,,,,,,,,,,,,,,,,,,,,,,,,,,,,,,,,,,,,,,,,,,,,,,,,,,,,,,,,,,,,,,,,,,,,,,,,,,,,,,,,,,,
,,5f823a9879e10536650a3d81,2024-02-22_03h18.36.907,kallum_motion_pilot,2023.2.2,Win32,12.65822785,5f823a9879e10536650a3d81,65d6bb0e977760de756971f7,65d6bce6972c1d2144b7f4c8,0.0413,0.0413,1,56,218,10,1,twoone,,,,,,,,,,,,,,,,,,,,,,,,,,,,,,,,,,,,,,,,,,,,,,,,,,,,,,,,,,,,,,,,,,,,,,,,,,,,,,,,,,,,,,,,,,,,,,,,,,,,,,,,,,,,,,,,,,,,,,,,,,,,,,,,,,,,,,,,,
,,5f823a9879e10536650a3d81,2024-02-22_03h18.36.907,kallum_motion_pilot,2023.2.2,Win32,12.65822785,5f823a9879e10536650a3d81,65d6bb0e977760de756971f7,65d6bce6972c1d2144b7f4c8,0.0414,0.0415,1,57,219,91,1,sixeight,,,,,,,,,,,,,,,,,,,,,,,,,,,,,,,,,,,,,,,,,,,,,,,,,,,,,,,,,,,,,,,,,,,,,,,,,,,,,,,,,,,,,,,,,,,,,,,,,,,,,,,,,,,,,,,,,,,,,,,,,,,,,,,,,,,,,,,,,
,,5f823a9879e10536650a3d81,2024-02-22_03h18.36.907,kallum_motion_pilot,2023.2.2,Win32,12.65822785,5f823a9879e10536650a3d81,65d6bb0e977760de756971f7,65d6bce6972c1d2144b7f4c8,0.0415,0.0415,1,58,220,81,1,fiveseven,,,,,,,,,,,,,,,,,,,,,,,,,,,,,,,,,,,,,,,,,,,,,,,,,,,,,,,,,,,,,,,,,,,,,,,,,,,,,,,,,,,,,,,,,,,,,,,,,,,,,,,,,,,,,,,,,,,,,,,,,,,,,,,,,,,,,,,,,
,,5f823a9879e10536650a3d81,2024-02-22_03h18.36.907,kallum_motion_pilot,2023.2.2,Win32,12.65822785,5f823a9879e10536650a3d81,65d6bb0e977760de756971f7,65d6bce6972c1d2144b7f4c8,0.0415,0.0416,1,59,221,136,1,fivesix,,,,,,,,,,,,,,,,,,,,,,,,,,,,,,,,,,,,,,,,,,,,,,,,,,,,,,,,,,,,,,,,,,,,,,,,,,,,,,,,,,,,,,,,,,,,,,,,,,,,,,,,,,,,,,,,,,,,,,,,,,,,,,,,,,,,,,,,,
,,5f823a9879e10536650a3d81,2024-02-22_03h18.36.907,kallum_motion_pilot,2023.2.2,Win32,12.65822785,5f823a9879e10536650a3d81,65d6bb0e977760de756971f7,65d6bce6972c1d2144b7f4c8,0.0416,0.0417,1,60,222,94,1,eightsix,,,,,,,,,,,,,,,,,,,,,,,,,,,,,,,,,,,,,,,,,,,,,,,,,,,,,,,,,,,,,,,,,,,,,,,,,,,,,,,,,,,,,,,,,,,,,,,,,,,,,,,,,,,,,,,,,,,,,,,,,,,,,,,,,,,,,,,,,
,,5f823a9879e10536650a3d81,2024-02-22_03h18.36.907,kallum_motion_pilot,2023.2.2,Win32,12.65822785,5f823a9879e10536650a3d81,65d6bb0e977760de756971f7,65d6bce6972c1d2144b7f4c8,0.0417,0.0418,1,61,223,40,1,onetwo,,,,,,,,,,,,,,,,,,,,,,,,,,,,,,,,,,,,,,,,,,,,,,,,,,,,,,,,,,,,,,,,,,,,,,,,,,,,,,,,,,,,,,,,,,,,,,,,,,,,,,,,,,,,,,,,,,,,,,,,,,,,,,,,,,,,,,,,,
,,5f823a9879e10536650a3d81,2024-02-22_03h18.36.907,kallum_motion_pilot,2023.2.2,Win32,12.65822785,5f823a9879e10536650a3d81,65d6bb0e977760de756971f7,65d6bce6972c1d2144b7f4c8,0.0419,0.0419,1,62,224,75,1,twofour,,,,,,,,,,,,,,,,,,,,,,,,,,,,,,,,,,,,,,,,,,,,,,,,,,,,,,,,,,,,,,,,,,,,,,,,,,,,,,,,,,,,,,,,,,,,,,,,,,,,,,,,,,,,,,,,,,,,,,,,,,,,,,,,,,,,,,,,,
,,5f823a9879e10536650a3d81,2024-02-22_03h18.36.907,kallum_motion_pilot,2023.2.2,Win32,12.65822785,5f823a9879e10536650a3d81,65d6bb0e977760de756971f7,65d6bce6972c1d2144b7f4c8,0.042,0.042,1,63,225,54,1,fourtwo,,,,,,,,,,,,,,,,,,,,,,,,,,,,,,,,,,,,,,,,,,,,,,,,,,,,,,,,,,,,,,,,,,,,,,,,,,,,,,,,,,,,,,,,,,,,,,,,,,,,,,,,,,,,,,,,,,,,,,,,,,,,,,,,,,,,,,,,,
,,5f823a9879e10536650a3d81,2024-02-22_03h18.36.907,kallum_motion_pilot,2023.2.2,Win32,12.65822785,5f823a9879e10536650a3d81,65d6bb0e977760de756971f7,65d6bce6972c1d2144b7f4c8,0.0421,0.0421,1,64,226,112,1,fivesix,,,,,,,,,,,,,,,,,,,,,,,,,,,,,,,,,,,,,,,,,,,,,,,,,,,,,,,,,,,,,,,,,,,,,,,,,,,,,,,,,,,,,,,,,,,,,,,,,,,,,,,,,,,,,,,,,,,,,,,,,,,,,,,,,,,,,,,,,
,,5f823a9879e10536650a3d81,2024-02-22_03h18.36.907,kallum_motion_pilot,2023.2.2,Win32,12.65822785,5f823a9879e10536650a3d81,65d6bb0e977760de756971f7,65d6bce6972c1d2144b7f4c8,0.0423,0.0423,1,65,227,25,1,onethree,,,,,,,,,,,,,,,,,,,,,,,,,,,,,,,,,,,,,,,,,,,,,,,,,,,,,,,,,,,,,,,,,,,,,,,,,,,,,,,,,,,,,,,,,,,,,,,,,,,,,,,,,,,,,,,,,,,,,,,,,,,,,,,,,,,,,,,,,
,,5f823a9879e10536650a3d81,2024-02-22_03h18.36.907,kallum_motion_pilot,2023.2.2,Win32,12.65822785,5f823a9879e10536650a3d81,65d6bb0e977760de756971f7,65d6bce6972c1d2144b7f4c8,0.0424,0.0424,1,66,228,132,1,sevenfive,,,,,,,,,,,,,,,,,,,,,,,,,,,,,,,,,,,,,,,,,,,,,,,,,,,,,,,,,,,,,,,,,,,,,,,,,,,,,,,,,,,,,,,,,,,,,,,,,,,,,,,,,,,,,,,,,,,,,,,,,,,,,,,,,,,,,,,,,
,,5f823a9879e10536650a3d81,2024-02-22_03h18.36.907,kallum_motion_pilot,2023.2.2,Win32,12.65822785,5f823a9879e10536650a3d81,65d6bb0e977760de756971f7,65d6bce6972c1d2144b7f4c8,0.0424,0.0425,1,67,229,98,1,sixfive,,,,,,,,,,,,,,,,,,,,,,,,,,,,,,,,,,,,,,,,,,,,,,,,,,,,,,,,,,,,,,,,,,,,,,,,,,,,,,,,,,,,,,,,,,,,,,,,,,,,,,,,,,,,,,,,,,,,,,,,,,,,,,,,,,,,,,,,,
,,5f823a9879e10536650a3d81,2024-02-22_03h18.36.907,kallum_motion_pilot,2023.2.2,Win32,12.65822785,5f823a9879e10536650a3d81,65d6bb0e977760de756971f7,65d6bce6972c1d2144b7f4c8,0.0426,0.0427,1,68,230,159,1,eightseven,,,,,,,,,,,,,,,,,,,,,,,,,,,,,,,,,,,,,,,,,,,,,,,,,,,,,,,,,,,,,,,,,,,,,,,,,,,,,,,,,,,,,,,,,,,,,,,,,,,,,,,,,,,,,,,,,,,,,,,,,,,,,,,,,,,,,,,,,
,,5f823a9879e10536650a3d81,2024-02-22_03h18.36.907,kallum_motion_pilot,2023.2.2,Win32,12.65822785,5f823a9879e10536650a3d81,65d6bb0e977760de756971f7,65d6bce6972c1d2144b7f4c8,0.0427,0.0427,1,69,231,65,1,onethree,,,,,,,,,,,,,,,,,,,,,,,,,,,,,,,,,,,,,,,,,,,,,,,,,,,,,,,,,,,,,,,,,,,,,,,,,,,,,,,,,,,,,,,,,,,,,,,,,,,,,,,,,,,,,,,,,,,,,,,,,,,,,,,,,,,,,,,,,
,,5f823a9879e10536650a3d81,2024-02-22_03h18.36.907,kallum_motion_pilot,2023.2.2,Win32,12.65822785,5f823a9879e10536650a3d81,65d6bb0e977760de756971f7,65d6bce6972c1d2144b7f4c8,0.0428,0.0429,1,70,232,37,1,threefour,,,,,,,,,,,,,,,,,,,,,,,,,,,,,,,,,,,,,,,,,,,,,,,,,,,,,,,,,,,,,,,,,,,,,,,,,,,,,,,,,,,,,,,,,,,,,,,,,,,,,,,,,,,,,,,,,,,,,,,,,,,,,,,,,,,,,,,,,
,,5f823a9879e10536650a3d81,2024-02-22_03h18.36.907,kallum_motion_pilot,2023.2.2,Win32,12.65822785,5f823a9879e10536650a3d81,65d6bb0e977760de756971f7,65d6bce6972c1d2144b7f4c8,0.043,0.043,1,71,233,48,1,onetwo,,,,,,,,,,,,,,,,,,,,,,,,,,,,,,,,,,,,,,,,,,,,,,,,,,,,,,,,,,,,,,,,,,,,,,,,,,,,,,,,,,,,,,,,,,,,,,,,,,,,,,,,,,,,,,,,,,,,,,,,,,,,,,,,,,,,,,,,,
,,5f823a9879e10536650a3d81,2024-02-22_03h18.36.907,kallum_motion_pilot,2023.2.2,Win32,12.65822785,5f823a9879e10536650a3d81,65d6bb0e977760de756971f7,65d6bce6972c1d2144b7f4c8,0.0432,0.0432,1,72,234,93,1,seveneight,,,,,,,,,,,,,,,,,,,,,,,,,,,,,,,,,,,,,,,,,,,,,,,,,,,,,,,,,,,,,,,,,,,,,,,,,,,,,,,,,,,,,,,,,,,,,,,,,,,,,,,,,,,,,,,,,,,,,,,,,,,,,,,,,,,,,,,,,
,,5f823a9879e10536650a3d81,2024-02-22_03h18.36.907,kallum_motion_pilot,2023.2.2,Win32,12.65822785,5f823a9879e10536650a3d81,65d6bb0e977760de756971f7,65d6bce6972c1d2144b7f4c8,0.0433,0.0433,1,73,235,29,1,threefour,,,,,,,,,,,,,,,,,,,,,,,,,,,,,,,,,,,,,,,,,,,,,,,,,,,,,,,,,,,,,,,,,,,,,,,,,,,,,,,,,,,,,,,,,,,,,,,,,,,,,,,,,,,,,,,,,,,,,,,,,,,,,,,,,,,,,,,,,
,,5f823a9879e10536650a3d81,2024-02-22_03h18.36.907,kallum_motion_pilot,2023.2.2,Win32,12.65822785,5f823a9879e10536650a3d81,65d6bb0e977760de756971f7,65d6bce6972c1d2144b7f4c8,0.0434,0.0435,1,74,236,111,1,eightseven,,,,,,,,,,,,,,,,,,,,,,,,,,,,,,,,,,,,,,,,,,,,,,,,,,,,,,,,,,,,,,,,,,,,,,,,,,,,,,,,,,,,,,,,,,,,,,,,,,,,,,,,,,,,,,,,,,,,,,,,,,,,,,,,,,,,,,,,,
,,5f823a9879e10536650a3d81,2024-02-22_03h18.36.907,kallum_motion_pilot,2023.2.2,Win32,12.65822785,5f823a9879e10536650a3d81,65d6bb0e977760de756971f7,65d6bce6972c1d2144b7f4c8,0.0436,0.0437,1,75,237,107,1,sixeight,,,,,,,,,,,,,,,,,,,,,,,,,,,,,,,,,,,,,,,,,,,,,,,,,,,,,,,,,,,,,,,,,,,,,,,,,,,,,,,,,,,,,,,,,,,,,,,,,,,,,,,,,,,,,,,,,,,,,,,,,,,,,,,,,,,,,,,,,
,,5f823a9879e10536650a3d81,2024-02-22_03h18.36.907,kallum_motion_pilot,2023.2.2,Win32,12.65822785,5f823a9879e10536650a3d81,65d6bb0e977760de756971f7,65d6bce6972c1d2144b7f4c8,0.0438,0.0438,1,76,238,145,1,fiveseven,,,,,,,,,,,,,,,,,,,,,,,,,,,,,,,,,,,,,,,,,,,,,,,,,,,,,,,,,,,,,,,,,,,,,,,,,,,,,,,,,,,,,,,,,,,,,,,,,,,,,,,,,,,,,,,,,,,,,,,,,,,,,,,,,,,,,,,,,
,,5f823a9879e10536650a3d81,2024-02-22_03h18.36.907,kallum_motion_pilot,2023.2.2,Win32,12.65822785,5f823a9879e10536650a3d81,65d6bb0e977760de756971f7,65d6bce6972c1d2144b7f4c8,0.0439,0.0439,1,77,239,39,1,fourthree,,,,,,,,,,,,,,,,,,,,,,,,,,,,,,,,,,,,,,,,,,,,,,,,,,,,,,,,,,,,,,,,,,,,,,,,,,,,,,,,,,,,,,,,,,,,,,,,,,,,,,,,,,,,,,,,,,,,,,,,,,,,,,,,,,,,,,,,,
,,5f823a9879e10536650a3d81,2024-02-22_03h18.36.907,kallum_motion_pilot,2023.2.2,Win32,12.65822785,5f823a9879e10536650a3d81,65d6bb0e977760de756971f7,65d6bce6972c1d2144b7f4c8,0.0441,0.0441,1,78,240,42,1,twoone,,,,,,,,,,,,,,,,,,,,,,,,,,,,,,,,,,,,,,,,,,,,,,,,,,,,,,,,,,,,,,,,,,,,,,,,,,,,,,,,,,,,,,,,,,,,,,,,,,,,,,,,,,,,,,,,,,,,,,,,,,,,,,,,,,,,,,,,,
,,5f823a9879e10536650a3d81,2024-02-22_03h18.36.907,kallum_motion_pilot,2023.2.2,Win32,12.65822785,5f823a9879e10536650a3d81,65d6bb0e977760de756971f7,65d6bce6972c1d2144b7f4c8,0.0442,0.0443,1,79,241,2,1,twoone,,,,,,,,,,,,,,,,,,,,,,,,,,,,,,,,,,,,,,,,,,,,,,,,,,,,,,,,,,,,,,,,,,,,,,,,,,,,,,,,,,,,,,,,,,,,,,,,,,,,,,,,,,,,,,,,,,,,,,,,,,,,,,,,,,,,,,,,,
,,5f823a9879e10536650a3d81,2024-02-22_03h18.36.907,kallum_motion_pilot,2023.2.2,Win32,12.65822785,5f823a9879e10536650a3d81,65d6bb0e977760de756971f7,65d6bce6972c1d2144b7f4c8,0.0444,0.0444,1,80,242,46,1,fourtwo,,,,,,,,,,,,,,,,,,,,,,,,,,,,,,,,,,,,,,,,,,,,,,,,,,,,,,,,,,,,,,,,,,,,,,,,,,,,,,,,,,,,,,,,,,,,,,,,,,,,,,,,,,,,,,,,,,,,,,,,,,,,,,,,,,,,,,,,,
,,5f823a9879e10536650a3d81,2024-02-22_03h18.36.907,kallum_motion_pilot,2023.2.2,Win32,12.65822785,5f823a9879e10536650a3d81,65d6bb0e977760de756971f7,65d6bce6972c1d2144b7f4c8,0.0445,0.0446,1,81,243,31,1,fourthree,,,,,,,,,,,,,,,,,,,,,,,,,,,,,,,,,,,,,,,,,,,,,,,,,,,,,,,,,,,,,,,,,,,,,,,,,,,,,,,,,,,,,,,,,,,,,,,,,,,,,,,,,,,,,,,,,,,,,,,,,,,,,,,,,,,,,,,,,
,,5f823a9879e10536650a3d81,2024-02-22_03h18.36.907,kallum_motion_pilot,2023.2.2,Win32,12.65822785,5f823a9879e10536650a3d81,65d6bb0e977760de756971f7,65d6bce6972c1d2144b7f4c8,0.0447,0.0447,1,82,244,66,1,twoone,,,,,,,,,,,,,,,,,,,,,,,,,,,,,,,,,,,,,,,,,,,,,,,,,,,,,,,,,,,,,,,,,,,,,,,,,,,,,,,,,,,,,,,,,,,,,,,,,,,,,,,,,,,,,,,,,,,,,,,,,,,,,,,,,,,,,,,,,
,,5f823a9879e10536650a3d81,2024-02-22_03h18.36.907,kallum_motion_pilot,2023.2.2,Win32,12.65822785,5f823a9879e10536650a3d81,65d6bb0e977760de756971f7,65d6bce6972c1d2144b7f4c8,0.0449,0.0449,1,83,245,108,1,sevenfive,,,,,,,,,,,,,,,,,,,,,,,,,,,,,,,,,,,,,,,,,,,,,,,,,,,,,,,,,,,,,,,,,,,,,,,,,,,,,,,,,,,,,,,,,,,,,,,,,,,,,,,,,,,,,,,,,,,,,,,,,,,,,,,,,,,,,,,,,
,,5f823a9879e10536650a3d81,2024-02-22_03h18.36.907,kallum_motion_pilot,2023.2.2,Win32,12.65822785,5f823a9879e10536650a3d81,65d6bb0e977760de756971f7,65d6bce6972c1d2144b7f4c8,0.045,0.0451,1,84,246,84,1,sevenfive,,,,,,,,,,,,,,,,,,,,,,,,,,,,,,,,,,,,,,,,,,,,,,,,,,,,,,,,,,,,,,,,,,,,,,,,,,,,,,,,,,,,,,,,,,,,,,,,,,,,,,,,,,,,,,,,,,,,,,,,,,,,,,,,,,,,,,,,,
,,5f823a9879e10536650a3d81,2024-02-22_03h18.36.907,kallum_motion_pilot,2023.2.2,Win32,12.65822785,5f823a9879e10536650a3d81,65d6bb0e977760de756971f7,65d6bce6972c1d2144b7f4c8,0.0452,0.0452,1,85,247,17,1,onethree,,,,,,,,,,,,,,,,,,,,,,,,,,,,,,,,,,,,,,,,,,,,,,,,,,,,,,,,,,,,,,,,,,,,,,,,,,,,,,,,,,,,,,,,,,,,,,,,,,,,,,,,,,,,,,,,,,,,,,,,,,,,,,,,,,,,,,,,,
,,5f823a9879e10536650a3d81,2024-02-22_03h18.36.907,kallum_motion_pilot,2023.2.2,Win32,12.65822785,5f823a9879e10536650a3d81,65d6bb0e977760de756971f7,65d6bce6972c1d2144b7f4c8,0.0453,0.0454,1,86,248,47,1,fourthree,,,,,,,,,,,,,,,,,,,,,,,,,,,,,,,,,,,,,,,,,,,,,,,,,,,,,,,,,,,,,,,,,,,,,,,,,,,,,,,,,,,,,,,,,,,,,,,,,,,,,,,,,,,,,,,,,,,,,,,,,,,,,,,,,,,,,,,,,
,,5f823a9879e10536650a3d81,2024-02-22_03h18.36.907,kallum_motion_pilot,2023.2.2,Win32,12.65822785,5f823a9879e10536650a3d81,65d6bb0e977760de756971f7,65d6bce6972c1d2144b7f4c8,0.0455,0.0456,1,87,249,69,1,threefour,,,,,,,,,,,,,,,,,,,,,,,,,,,,,,,,,,,,,,,,,,,,,,,,,,,,,,,,,,,,,,,,,,,,,,,,,,,,,,,,,,,,,,,,,,,,,,,,,,,,,,,,,,,,,,,,,,,,,,,,,,,,,,,,,,,,,,,,,
,,5f823a9879e10536650a3d81,2024-02-22_03h18.36.907,kallum_motion_pilot,2023.2.2,Win32,12.65822785,5f823a9879e10536650a3d81,65d6bb0e977760de756971f7,65d6bce6972c1d2144b7f4c8,0.0456,0.0457,1,88,250,143,1,eightseven,,,,,,,,,,,,,,,,,,,,,,,,,,,,,,,,,,,,,,,,,,,,,,,,,,,,,,,,,,,,,,,,,,,,,,,,,,,,,,,,,,,,,,,,,,,,,,,,,,,,,,,,,,,,,,,,,,,,,,,,,,,,,,,,,,,,,,,,,
,,5f823a9879e10536650a3d81,2024-02-22_03h18.36.907,kallum_motion_pilot,2023.2.2,Win32,12.65822785,5f823a9879e10536650a3d81,65d6bb0e977760de756971f7,65d6bce6972c1d2144b7f4c8,0.0458,0.0459,1,89,251,100,1,sevenfive,,,,,,,,,,,,,,,,,,,,,,,,,,,,,,,,,,,,,,,,,,,,,,,,,,,,,,,,,,,,,,,,,,,,,,,,,,,,,,,,,,,,,,,,,,,,,,,,,,,,,,,,,,,,,,,,,,,,,,,,,,,,,,,,,,,,,,,,,
,,5f823a9879e10536650a3d81,2024-02-22_03h18.36.907,kallum_motion_pilot,2023.2.2,Win32,12.65822785,5f823a9879e10536650a3d81,65d6bb0e977760de756971f7,65d6bce6972c1d2144b7f4c8,0.046,0.0461,1,90,252,19,1,twofour,,,,,,,,,,,,,,,,,,,,,,,,,,,,,,,,,,,,,,,,,,,,,,,,,,,,,,,,,,,,,,,,,,,,,,,,,,,,,,,,,,,,,,,,,,,,,,,,,,,,,,,,,,,,,,,,,,,,,,,,,,,,,,,,,,,,,,,,,
,,5f823a9879e10536650a3d81,2024-02-22_03h18.36.907,kallum_motion_pilot,2023.2.2,Win32,12.65822785,5f823a9879e10536650a3d81,65d6bb0e977760de756971f7,65d6bce6972c1d2144b7f4c8,0.0462,0.0462,1,91,253,4,1,threeone,,,,,,,,,,,,,,,,,,,,,,,,,,,,,,,,,,,,,,,,,,,,,,,,,,,,,,,,,,,,,,,,,,,,,,,,,,,,,,,,,,,,,,,,,,,,,,,,,,,,,,,,,,,,,,,,,,,,,,,,,,,,,,,,,,,,,,,,,
,,5f823a9879e10536650a3d81,2024-02-22_03h18.36.907,kallum_motion_pilot,2023.2.2,Win32,12.65822785,5f823a9879e10536650a3d81,65d6bb0e977760de756971f7,65d6bce6972c1d2144b7f4c8,0.0463,0.0464,1,92,254,24,1,onetwo,,,,,,,,,,,,,,,,,,,,,,,,,,,,,,,,,,,,,,,,,,,,,,,,,,,,,,,,,,,,,,,,,,,,,,,,,,,,,,,,,,,,,,,,,,,,,,,,,,,,,,,,,,,,,,,,,,,,,,,,,,,,,,,,,,,,,,,,,
,,5f823a9879e10536650a3d81,2024-02-22_03h18.36.907,kallum_motion_pilot,2023.2.2,Win32,12.65822785,5f823a9879e10536650a3d81,65d6bb0e977760de756971f7,65d6bce6972c1d2144b7f4c8,0.0465,0.0466,1,93,255,21,1,threefour,,,,,,,,,,,,,,,,,,,,,,,,,,,,,,,,,,,,,,,,,,,,,,,,,,,,,,,,,,,,,,,,,,,,,,,,,,,,,,,,,,,,,,,,,,,,,,,,,,,,,,,,,,,,,,,,,,,,,,,,,,,,,,,,,,,,,,,,,
,,5f823a9879e10536650a3d81,2024-02-22_03h18.36.907,kallum_motion_pilot,2023.2.2,Win32,12.65822785,5f823a9879e10536650a3d81,65d6bb0e977760de756971f7,65d6bce6972c1d2144b7f4c8,0.0467,0.0468,1,94,256,161,1,fiveseven,,,,,,,,,,,,,,,,,,,,,,,,,,,,,,,,,,,,,,,,,,,,,,,,,,,,,,,,,,,,,,,,,,,,,,,,,,,,,,,,,,,,,,,,,,,,,,,,,,,,,,,,,,,,,,,,,,,,,,,,,,,,,,,,,,,,,,,,,
,,5f823a9879e10536650a3d81,2024-02-22_03h18.36.907,kallum_motion_pilot,2023.2.2,Win32,12.65822785,5f823a9879e10536650a3d81,65d6bb0e977760de756971f7,65d6bce6972c1d2144b7f4c8,0.0468,0.0469,1,95,257,87,1,eightseven,,,,,,,,,,,,,,,,,,,,,,,,,,,,,,,,,,,,,,,,,,,,,,,,,,,,,,,,,,,,,,,,,,,,,,,,,,,,,,,,,,,,,,,,,,,,,,,,,,,,,,,,,,,,,,,,,,,,,,,,,,,,,,,,,,,,,,,,,
,,5f823a9879e10536650a3d81,2024-02-22_03h18.36.907,kallum_motion_pilot,2023.2.2,Win32,12.65822785,5f823a9879e10536650a3d81,65d6bb0e977760de756971f7,65d6bce6972c1d2144b7f4c8,0.0469,0.047,1,96,258,79,1,eightseven,,,,,,,,,,,,,,,,,,,,,,,,,,,,,,,,,,,,,,,,,,,,,,,,,,,,,,,,,,,,,,,,,,,,,,,,,,,,,,,,,,,,,,,,,,,,,,,,,,,,,,,,,,,,,,,,,,,,,,,,,,,,,,,,,,,,,,,,,
,,5f823a9879e10536650a3d81,2024-02-22_03h18.36.907,kallum_motion_pilot,2023.2.2,Win32,12.65822785,5f823a9879e10536650a3d81,65d6bb0e977760de756971f7,65d6bce6972c1d2144b7f4c8,0.047,0.0471,1,97,259,80,1,fivesix,,,,,,,,,,,,,,,,,,,,,,,,,,,,,,,,,,,,,,,,,,,,,,,,,,,,,,,,,,,,,,,,,,,,,,,,,,,,,,,,,,,,,,,,,,,,,,,,,,,,,,,,,,,,,,,,,,,,,,,,,,,,,,,,,,,,,,,,,
,,5f823a9879e10536650a3d81,2024-02-22_03h18.36.907,kallum_motion_pilot,2023.2.2,Win32,12.65822785,5f823a9879e10536650a3d81,65d6bb0e977760de756971f7,65d6bce6972c1d2144b7f4c8,0.0471,0.0472,1,98,260,128,1,fivesix,,,,,,,,,,,,,,,,,,,,,,,,,,,,,,,,,,,,,,,,,,,,,,,,,,,,,,,,,,,,,,,,,,,,,,,,,,,,,,,,,,,,,,,,,,,,,,,,,,,,,,,,,,,,,,,,,,,,,,,,,,,,,,,,,,,,,,,,,
,,5f823a9879e10536650a3d81,2024-02-22_03h18.36.907,kallum_motion_pilot,2023.2.2,Win32,12.65822785,5f823a9879e10536650a3d81,65d6bb0e977760de756971f7,65d6bce6972c1d2144b7f4c8,0.0472,0.0472,1,99,261,70,1,fourtwo,,,,,,,,,,,,,,,,,,,,,,,,,,,,,,,,,,,,,,,,,,,,,,,,,,,,,,,,,,,,,,,,,,,,,,,,,,,,,,,,,,,,,,,,,,,,,,,,,,,,,,,,,,,,,,,,,,,,,,,,,,,,,,,,,,,,,,,,,
,,5f823a9879e10536650a3d81,2024-02-22_03h18.36.907,kallum_motion_pilot,2023.2.2,Win32,12.65822785,5f823a9879e10536650a3d81,65d6bb0e977760de756971f7,65d6bce6972c1d2144b7f4c8,0.0473,0.0473,1,100,262,14,1,fourtwo,,,,,,,,,,,,,,,,,,,,,,,,,,,,,,,,,,,,,,,,,,,,,,,,,,,,,,,,,,,,,,,,,,,,,,,,,,,,,,,,,,,,,,,,,,,,,,,,,,,,,,,,,,,,,,,,,,,,,,,,,,,,,,,,,,,,,,,,,
,,5f823a9879e10536650a3d81,2024-02-22_03h18.36.907,kallum_motion_pilot,2023.2.2,Win32,12.65822785,5f823a9879e10536650a3d81,65d6bb0e977760de756971f7,65d6bce6972c1d2144b7f4c8,0.0474,0.0475,1,101,263,156,1,sevenfive,,,,,,,,,,,,,,,,,,,,,,,,,,,,,,,,,,,,,,,,,,,,,,,,,,,,,,,,,,,,,,,,,,,,,,,,,,,,,,,,,,,,,,,,,,,,,,,,,,,,,,,,,,,,,,,,,,,,,,,,,,,,,,,,,,,,,,,,,
,,5f823a9879e10536650a3d81,2024-02-22_03h18.36.907,kallum_motion_pilot,2023.2.2,Win32,12.65822785,5f823a9879e10536650a3d81,65d6bb0e977760de756971f7,65d6bce6972c1d2144b7f4c8,0.0476,0.0476,1,102,264,63,1,fourthree,,,,,,,,,,,,,,,,,,,,,,,,,,,,,,,,,,,,,,,,,,,,,,,,,,,,,,,,,,,,,,,,,,,,,,,,,,,,,,,,,,,,,,,,,,,,,,,,,,,,,,,,,,,,,,,,,,,,,,,,,,,,,,,,,,,,,,,,,
,,5f823a9879e10536650a3d81,2024-02-22_03h18.36.907,kallum_motion_pilot,2023.2.2,Win32,12.65822785,5f823a9879e10536650a3d81,65d6bb0e977760de756971f7,65d6bce6972c1d2144b7f4c8,0.0477,0.0478,1,103,265,139,1,sixeight,,,,,,,,,,,,,,,,,,,,,,,,,,,,,,,,,,,,,,,,,,,,,,,,,,,,,,,,,,,,,,,,,,,,,,,,,,,,,,,,,,,,,,,,,,,,,,,,,,,,,,,,,,,,,,,,,,,,,,,,,,,,,,,,,,,,,,,,,
,,5f823a9879e10536650a3d81,2024-02-22_03h18.36.907,kallum_motion_pilot,2023.2.2,Win32,12.65822785,5f823a9879e10536650a3d81,65d6bb0e977760de756971f7,65d6bce6972c1d2144b7f4c8,0.0478,0.0478,1,104,266,58,1,twoone,,,,,,,,,,,,,,,,,,,,,,,,,,,,,,,,,,,,,,,,,,,,,,,,,,,,,,,,,,,,,,,,,,,,,,,,,,,,,,,,,,,,,,,,,,,,,,,,,,,,,,,,,,,,,,,,,,,,,,,,,,,,,,,,,,,,,,,,,
,,5f823a9879e10536650a3d81,2024-02-22_03h18.36.907,kallum_motion_pilot,2023.2.2,Win32,12.65822785,5f823a9879e10536650a3d81,65d6bb0e977760de756971f7,65d6bce6972c1d2144b7f4c8,0.0479,0.0479,1,105,267,160,1,fivesix,,,,,,,,,,,,,,,,,,,,,,,,,,,,,,,,,,,,,,,,,,,,,,,,,,,,,,,,,,,,,,,,,,,,,,,,,,,,,,,,,,,,,,,,,,,,,,,,,,,,,,,,,,,,,,,,,,,,,,,,,,,,,,,,,,,,,,,,,
,,5f823a9879e10536650a3d81,2024-02-22_03h18.36.907,kallum_motion_pilot,2023.2.2,Win32,12.65822785,5f823a9879e10536650a3d81,65d6bb0e977760de756971f7,65d6bce6972c1d2144b7f4c8,0.048,0.048,1,106,268,15,1,fourthree,,,,,,,,,,,,,,,,,,,,,,,,,,,,,,,,,,,,,,,,,,,,,,,,,,,,,,,,,,,,,,,,,,,,,,,,,,,,,,,,,,,,,,,,,,,,,,,,,,,,,,,,,,,,,,,,,,,,,,,,,,,,,,,,,,,,,,,,,
,,5f823a9879e10536650a3d81,2024-02-22_03h18.36.907,kallum_motion_pilot,2023.2.2,Win32,12.65822785,5f823a9879e10536650a3d81,65d6bb0e977760de756971f7,65d6bce6972c1d2144b7f4c8,0.0481,0.0482,1,107,269,123,1,sixeight,,,,,,,,,,,,,,,,,,,,,,,,,,,,,,,,,,,,,,,,,,,,,,,,,,,,,,,,,,,,,,,,,,,,,,,,,,,,,,,,,,,,,,,,,,,,,,,,,,,,,,,,,,,,,,,,,,,,,,,,,,,,,,,,,,,,,,,,,
,,5f823a9879e10536650a3d81,2024-02-22_03h18.36.907,kallum_motion_pilot,2023.2.2,Win32,12.65822785,5f823a9879e10536650a3d81,65d6bb0e977760de756971f7,65d6bce6972c1d2144b7f4c8,0.0483,0.0484,1,108,270,122,1,sixfive,,,,,,,,,,,,,,,,,,,,,,,,,,,,,,,,,,,,,,,,,,,,,,,,,,,,,,,,,,,,,,,,,,,,,,,,,,,,,,,,,,,,,,,,,,,,,,,,,,,,,,,,,,,,,,,,,,,,,,,,,,,,,,,,,,,,,,,,,
,,5f823a9879e10536650a3d81,2024-02-22_03h18.36.907,kallum_motion_pilot,2023.2.2,Win32,12.65822785,5f823a9879e10536650a3d81,65d6bb0e977760de756971f7,65d6bce6972c1d2144b7f4c8,0.0484,0.0485,1,109,271,22,1,fourtwo,,,,,,,,,,,,,,,,,,,,,,,,,,,,,,,,,,,,,,,,,,,,,,,,,,,,,,,,,,,,,,,,,,,,,,,,,,,,,,,,,,,,,,,,,,,,,,,,,,,,,,,,,,,,,,,,,,,,,,,,,,,,,,,,,,,,,,,,,
,,5f823a9879e10536650a3d81,2024-02-22_03h18.36.907,kallum_motion_pilot,2023.2.2,Win32,12.65822785,5f823a9879e10536650a3d81,65d6bb0e977760de756971f7,65d6bce6972c1d2144b7f4c8,0.0486,0.0487,1,110,272,74,1,twoone,,,,,,,,,,,,,,,,,,,,,,,,,,,,,,,,,,,,,,,,,,,,,,,,,,,,,,,,,,,,,,,,,,,,,,,,,,,,,,,,,,,,,,,,,,,,,,,,,,,,,,,,,,,,,,,,,,,,,,,,,,,,,,,,,,,,,,,,,
,,5f823a9879e10536650a3d81,2024-02-22_03h18.36.907,kallum_motion_pilot,2023.2.2,Win32,12.65822785,5f823a9879e10536650a3d81,65d6bb0e977760de756971f7,65d6bce6972c1d2144b7f4c8,0.0487,0.0488,1,111,273,72,1,onetwo,,,,,,,,,,,,,,,,,,,,,,,,,,,,,,,,,,,,,,,,,,,,,,,,,,,,,,,,,,,,,,,,,,,,,,,,,,,,,,,,,,,,,,,,,,,,,,,,,,,,,,,,,,,,,,,,,,,,,,,,,,,,,,,,,,,,,,,,,
,,5f823a9879e10536650a3d81,2024-02-22_03h18.36.907,kallum_motion_pilot,2023.2.2,Win32,12.65822785,5f823a9879e10536650a3d81,65d6bb0e977760de756971f7,65d6bce6972c1d2144b7f4c8,0.0489,0.0489,1,112,274,150,1,eightsix,,,,,,,,,,,,,,,,,,,,,,,,,,,,,,,,,,,,,,,,,,,,,,,,,,,,,,,,,,,,,,,,,,,,,,,,,,,,,,,,,,,,,,,,,,,,,,,,,,,,,,,,,,,,,,,,,,,,,,,,,,,,,,,,,,,,,,,,,
,,5f823a9879e10536650a3d81,2024-02-22_03h18.36.907,kallum_motion_pilot,2023.2.2,Win32,12.65822785,5f823a9879e10536650a3d81,65d6bb0e977760de756971f7,65d6bce6972c1d2144b7f4c8,0.049,0.049,1,113,275,116,1,sevenfive,,,,,,,,,,,,,,,,,,,,,,,,,,,,,,,,,,,,,,,,,,,,,,,,,,,,,,,,,,,,,,,,,,,,,,,,,,,,,,,,,,,,,,,,,,,,,,,,,,,,,,,,,,,,,,,,,,,,,,,,,,,,,,,,,,,,,,,,,
,,5f823a9879e10536650a3d81,2024-02-22_03h18.36.907,kallum_motion_pilot,2023.2.2,Win32,12.65822785,5f823a9879e10536650a3d81,65d6bb0e977760de756971f7,65d6bce6972c1d2144b7f4c8,0.0491,0.0491,1,114,276,135,1,eightseven,,,,,,,,,,,,,,,,,,,,,,,,,,,,,,,,,,,,,,,,,,,,,,,,,,,,,,,,,,,,,,,,,,,,,,,,,,,,,,,,,,,,,,,,,,,,,,,,,,,,,,,,,,,,,,,,,,,,,,,,,,,,,,,,,,,,,,,,,
,,5f823a9879e10536650a3d81,2024-02-22_03h18.36.907,kallum_motion_pilot,2023.2.2,Win32,12.65822785,5f823a9879e10536650a3d81,65d6bb0e977760de756971f7,65d6bce6972c1d2144b7f4c8,0.0492,0.0493,1,115,277,33,1,onethree,,,,,,,,,,,,,,,,,,,,,,,,,,,,,,,,,,,,,,,,,,,,,,,,,,,,,,,,,,,,,,,,,,,,,,,,,,,,,,,,,,,,,,,,,,,,,,,,,,,,,,,,,,,,,,,,,,,,,,,,,,,,,,,,,,,,,,,,,
