startup.started,startup.stopped,Prolific ID*,date,expName,psychopyVersion,OS,frameRate,participant,study_id,session,stimpositions.started,stimpositions.stopped,hardcoded_stimulus_positions.thisRepN,hardcoded_stimulus_positions.thisTrialN,hardcoded_stimulus_positions.thisN,hardcoded_stimulus_positions.thisIndex,hardcoded_stimulus_positions.ran,StimulusPos,stimorientation.started,stimorientation.stopped,prac_stimorientation_import_loop.thisRepN,prac_stimorientation_import_loop.thisTrialN,prac_stimorientation_import_loop.thisN,prac_stimorientation_import_loop.thisIndex,prac_stimorientation_import_loop.ran,Stimorientation,welcome_instr.started,welcome_instr.stopped,key_resp.keys,key_resp.rt,key_resp.duration,response_steppedout_1.started,response_steppedout_1.stopped,key_resp_20.keys,key_resp_20.rt,key_resp_20.duration,response_steppedout_2.started,response_steppedout_2.stopped,key_resp_19.keys,key_resp_19.rt,key_resp_19.duration,stim_response_instr.started,stim_response_instr.stopped,key_resp_15.keys,key_resp_15.rt,key_resp_15.duration,direction_instr_2.started,direction_instr_2.stopped,key_resp_9.keys,key_resp_9.rt,key_resp_9.duration,instr_prac.started,instr_prac.stopped,key_resp_10.keys,key_resp_10.rt,key_resp_10.duration,Stim1_display_prac.started,Stim1_display_prac.stopped,Ecc,Circle1_ori,Circle2_ori,response_prac.started,similarity,response_time,response_prac.stopped,mouse_5.x,mouse_5.y,mouse_5.leftButton,mouse_5.midButton,mouse_5.rightButton,mouse_5.clicked_name,responseprac_feedback.started,responseprac_feedback.stopped,summary2_prac.started,summary2_prac.stopped,mouse_6.x,mouse_6.y,mouse_6.leftButton,mouse_6.midButton,mouse_6.rightButton,mouse_6.clicked_name,duringprac.thisRepN,duringprac.thisTrialN,duringprac.thisN,duringprac.thisIndex,duringprac.ran,begin.started,begin.stopped,key_resp_22.keys,key_resp_22.rt,key_resp_22.duration,Stim1_display.started,Stim1_display.stopped,circle1_ori,circle2_ori,circle1_SF,circle2_SF,response.started,response.stopped,mouse.x,mouse.y,mouse.leftButton,mouse.midButton,mouse.rightButton,mouse.clicked_name,trialnumber,double_pass.thisRepN,double_pass.thisTrialN,double_pass.thisN,double_pass.thisIndex,double_pass.ran,double_pass.order,main_trial.thisRepN,main_trial.thisTrialN,main_trial.thisN,main_trial.thisIndex,main_trial.ran,main_trial.order,Trial_Counter,Catch,Frequencies,response_2.started,response_2.stopped,mouse_2.x,mouse_2.y,mouse_2.leftButton,mouse_2.midButton,mouse_2.rightButton,mouse_2.clicked_name,special_trial.started,special_trial.stopped,catch_1.started,catch_1.stopped,mouse_3.x,mouse_3.y,mouse_3.leftButton,mouse_3.midButton,mouse_3.rightButton,catchresponse,catchnumber,response_time_catch,response_sum.started,response_sum.stopped,mouse_11.x,mouse_11.y,mouse_11.leftButton,mouse_11.midButton,mouse_11.rightButton,flip_presentation_sequence_for_double_pass.started,flip_presentation_sequence_for_double_pass.stopped,goodbye.started,goodbye.stopped,key_resp_3.keys,key_resp_3.rt,key_resp_3.duration
0.0015,0.0022,5f95155d7ae37e0009ed42ac,2024-02-18_20h15.45.348,kallum_motion_pilot,2023.2.2,Win32,39.95046143,5f95155d7ae37e0009ed42ac,65d2b6c8f2eece985d8e374c,65d2b985d0ce9e3d3e18c4e2,,,,,,,,,,,,,,,,,,,,,,,,,,,,,,,,,,,,,,,,,,,,,,,,,,,,,,,,,,,,,,,,,,,,,,,,,,,,,,,,,,,,,,,,,,,,,,,,,,,,,,,,,,,,,,,,,,,,,,,,,,,,,,,,,,,,,,,,,,,,,,,,,
,,5f95155d7ae37e0009ed42ac,2024-02-18_20h15.45.348,kallum_motion_pilot,2023.2.2,Win32,39.95046143,5f95155d7ae37e0009ed42ac,65d2b6c8f2eece985d8e374c,65d2b985d0ce9e3d3e18c4e2,0.1222,0.1227,0,0,0,99,1,sixeight,,,,,,,,,,,,,,,,,,,,,,,,,,,,,,,,,,,,,,,,,,,,,,,,,,,,,,,,,,,,,,,,,,,,,,,,,,,,,,,,,,,,,,,,,,,,,,,,,,,,,,,,,,,,,,,,,,,,,,,,,,,,,,,,,,,,,,,,,
,,5f95155d7ae37e0009ed42ac,2024-02-18_20h15.45.348,kallum_motion_pilot,2023.2.2,Win32,39.95046143,5f95155d7ae37e0009ed42ac,65d2b6c8f2eece985d8e374c,65d2b985d0ce9e3d3e18c4e2,0.1235,0.1236,0,1,1,58,1,twoone,,,,,,,,,,,,,,,,,,,,,,,,,,,,,,,,,,,,,,,,,,,,,,,,,,,,,,,,,,,,,,,,,,,,,,,,,,,,,,,,,,,,,,,,,,,,,,,,,,,,,,,,,,,,,,,,,,,,,,,,,,,,,,,,,,,,,,,,,
,,5f95155d7ae37e0009ed42ac,2024-02-18_20h15.45.348,kallum_motion_pilot,2023.2.2,Win32,39.95046143,5f95155d7ae37e0009ed42ac,65d2b6c8f2eece985d8e374c,65d2b985d0ce9e3d3e18c4e2,0.1241,0.1243,0,2,2,34,1,twoone,,,,,,,,,,,,,,,,,,,,,,,,,,,,,,,,,,,,,,,,,,,,,,,,,,,,,,,,,,,,,,,,,,,,,,,,,,,,,,,,,,,,,,,,,,,,,,,,,,,,,,,,,,,,,,,,,,,,,,,,,,,,,,,,,,,,,,,,,
,,5f95155d7ae37e0009ed42ac,2024-02-18_20h15.45.348,kallum_motion_pilot,2023.2.2,Win32,39.95046143,5f95155d7ae37e0009ed42ac,65d2b6c8f2eece985d8e374c,65d2b985d0ce9e3d3e18c4e2,0.1248,0.1249,0,3,3,119,1,eightseven,,,,,,,,,,,,,,,,,,,,,,,,,,,,,,,,,,,,,,,,,,,,,,,,,,,,,,,,,,,,,,,,,,,,,,,,,,,,,,,,,,,,,,,,,,,,,,,,,,,,,,,,,,,,,,,,,,,,,,,,,,,,,,,,,,,,,,,,,
,,5f95155d7ae37e0009ed42ac,2024-02-18_20h15.45.348,kallum_motion_pilot,2023.2.2,Win32,39.95046143,5f95155d7ae37e0009ed42ac,65d2b6c8f2eece985d8e374c,65d2b985d0ce9e3d3e18c4e2,0.1255,0.1256,0,4,4,124,1,sevenfive,,,,,,,,,,,,,,,,,,,,,,,,,,,,,,,,,,,,,,,,,,,,,,,,,,,,,,,,,,,,,,,,,,,,,,,,,,,,,,,,,,,,,,,,,,,,,,,,,,,,,,,,,,,,,,,,,,,,,,,,,,,,,,,,,,,,,,,,,
,,5f95155d7ae37e0009ed42ac,2024-02-18_20h15.45.348,kallum_motion_pilot,2023.2.2,Win32,39.95046143,5f95155d7ae37e0009ed42ac,65d2b6c8f2eece985d8e374c,65d2b985d0ce9e3d3e18c4e2,0.1262,0.1263,0,5,5,3,1,twofour,,,,,,,,,,,,,,,,,,,,,,,,,,,,,,,,,,,,,,,,,,,,,,,,,,,,,,,,,,,,,,,,,,,,,,,,,,,,,,,,,,,,,,,,,,,,,,,,,,,,,,,,,,,,,,,,,,,,,,,,,,,,,,,,,,,,,,,,,
,,5f95155d7ae37e0009ed42ac,2024-02-18_20h15.45.348,kallum_motion_pilot,2023.2.2,Win32,39.95046143,5f95155d7ae37e0009ed42ac,65d2b6c8f2eece985d8e374c,65d2b985d0ce9e3d3e18c4e2,0.1268,0.1268,0,6,6,154,1,sixfive,,,,,,,,,,,,,,,,,,,,,,,,,,,,,,,,,,,,,,,,,,,,,,,,,,,,,,,,,,,,,,,,,,,,,,,,,,,,,,,,,,,,,,,,,,,,,,,,,,,,,,,,,,,,,,,,,,,,,,,,,,,,,,,,,,,,,,,,,
,,5f95155d7ae37e0009ed42ac,2024-02-18_20h15.45.348,kallum_motion_pilot,2023.2.2,Win32,39.95046143,5f95155d7ae37e0009ed42ac,65d2b6c8f2eece985d8e374c,65d2b985d0ce9e3d3e18c4e2,0.1273,0.1274,0,7,7,48,1,onetwo,,,,,,,,,,,,,,,,,,,,,,,,,,,,,,,,,,,,,,,,,,,,,,,,,,,,,,,,,,,,,,,,,,,,,,,,,,,,,,,,,,,,,,,,,,,,,,,,,,,,,,,,,,,,,,,,,,,,,,,,,,,,,,,,,,,,,,,,,
,,5f95155d7ae37e0009ed42ac,2024-02-18_20h15.45.348,kallum_motion_pilot,2023.2.2,Win32,39.95046143,5f95155d7ae37e0009ed42ac,65d2b6c8f2eece985d8e374c,65d2b985d0ce9e3d3e18c4e2,0.1278,0.1281,0,8,8,134,1,eightsix,,,,,,,,,,,,,,,,,,,,,,,,,,,,,,,,,,,,,,,,,,,,,,,,,,,,,,,,,,,,,,,,,,,,,,,,,,,,,,,,,,,,,,,,,,,,,,,,,,,,,,,,,,,,,,,,,,,,,,,,,,,,,,,,,,,,,,,,,
,,5f95155d7ae37e0009ed42ac,2024-02-18_20h15.45.348,kallum_motion_pilot,2023.2.2,Win32,39.95046143,5f95155d7ae37e0009ed42ac,65d2b6c8f2eece985d8e374c,65d2b985d0ce9e3d3e18c4e2,0.1284,0.1285,0,9,9,50,1,twoone,,,,,,,,,,,,,,,,,,,,,,,,,,,,,,,,,,,,,,,,,,,,,,,,,,,,,,,,,,,,,,,,,,,,,,,,,,,,,,,,,,,,,,,,,,,,,,,,,,,,,,,,,,,,,,,,,,,,,,,,,,,,,,,,,,,,,,,,,
,,5f95155d7ae37e0009ed42ac,2024-02-18_20h15.45.348,kallum_motion_pilot,2023.2.2,Win32,39.95046143,5f95155d7ae37e0009ed42ac,65d2b6c8f2eece985d8e374c,65d2b985d0ce9e3d3e18c4e2,0.1289,0.129,0,10,10,89,1,fiveseven,,,,,,,,,,,,,,,,,,,,,,,,,,,,,,,,,,,,,,,,,,,,,,,,,,,,,,,,,,,,,,,,,,,,,,,,,,,,,,,,,,,,,,,,,,,,,,,,,,,,,,,,,,,,,,,,,,,,,,,,,,,,,,,,,,,,,,,,,
,,5f95155d7ae37e0009ed42ac,2024-02-18_20h15.45.348,kallum_motion_pilot,2023.2.2,Win32,39.95046143,5f95155d7ae37e0009ed42ac,65d2b6c8f2eece985d8e374c,65d2b985d0ce9e3d3e18c4e2,0.1293,0.1295,0,11,11,116,1,sevenfive,,,,,,,,,,,,,,,,,,,,,,,,,,,,,,,,,,,,,,,,,,,,,,,,,,,,,,,,,,,,,,,,,,,,,,,,,,,,,,,,,,,,,,,,,,,,,,,,,,,,,,,,,,,,,,,,,,,,,,,,,,,,,,,,,,,,,,,,,
,,5f95155d7ae37e0009ed42ac,2024-02-18_20h15.45.348,kallum_motion_pilot,2023.2.2,Win32,39.95046143,5f95155d7ae37e0009ed42ac,65d2b6c8f2eece985d8e374c,65d2b985d0ce9e3d3e18c4e2,0.1298,0.1299,0,12,12,46,1,fourtwo,,,,,,,,,,,,,,,,,,,,,,,,,,,,,,,,,,,,,,,,,,,,,,,,,,,,,,,,,,,,,,,,,,,,,,,,,,,,,,,,,,,,,,,,,,,,,,,,,,,,,,,,,,,,,,,,,,,,,,,,,,,,,,,,,,,,,,,,,
,,5f95155d7ae37e0009ed42ac,2024-02-18_20h15.45.348,kallum_motion_pilot,2023.2.2,Win32,39.95046143,5f95155d7ae37e0009ed42ac,65d2b6c8f2eece985d8e374c,65d2b985d0ce9e3d3e18c4e2,0.1303,0.1303,0,13,13,60,1,threeone,,,,,,,,,,,,,,,,,,,,,,,,,,,,,,,,,,,,,,,,,,,,,,,,,,,,,,,,,,,,,,,,,,,,,,,,,,,,,,,,,,,,,,,,,,,,,,,,,,,,,,,,,,,,,,,,,,,,,,,,,,,,,,,,,,,,,,,,,
,,5f95155d7ae37e0009ed42ac,2024-02-18_20h15.45.348,kallum_motion_pilot,2023.2.2,Win32,39.95046143,5f95155d7ae37e0009ed42ac,65d2b6c8f2eece985d8e374c,65d2b985d0ce9e3d3e18c4e2,0.1308,0.1309,0,14,14,47,1,fourthree,,,,,,,,,,,,,,,,,,,,,,,,,,,,,,,,,,,,,,,,,,,,,,,,,,,,,,,,,,,,,,,,,,,,,,,,,,,,,,,,,,,,,,,,,,,,,,,,,,,,,,,,,,,,,,,,,,,,,,,,,,,,,,,,,,,,,,,,,
,,5f95155d7ae37e0009ed42ac,2024-02-18_20h15.45.348,kallum_motion_pilot,2023.2.2,Win32,39.95046143,5f95155d7ae37e0009ed42ac,65d2b6c8f2eece985d8e374c,65d2b985d0ce9e3d3e18c4e2,0.1312,0.1314,0,15,15,42,1,twoone,,,,,,,,,,,,,,,,,,,,,,,,,,,,,,,,,,,,,,,,,,,,,,,,,,,,,,,,,,,,,,,,,,,,,,,,,,,,,,,,,,,,,,,,,,,,,,,,,,,,,,,,,,,,,,,,,,,,,,,,,,,,,,,,,,,,,,,,,
,,5f95155d7ae37e0009ed42ac,2024-02-18_20h15.45.348,kallum_motion_pilot,2023.2.2,Win32,39.95046143,5f95155d7ae37e0009ed42ac,65d2b6c8f2eece985d8e374c,65d2b985d0ce9e3d3e18c4e2,0.1317,0.1318,0,16,16,90,1,sixfive,,,,,,,,,,,,,,,,,,,,,,,,,,,,,,,,,,,,,,,,,,,,,,,,,,,,,,,,,,,,,,,,,,,,,,,,,,,,,,,,,,,,,,,,,,,,,,,,,,,,,,,,,,,,,,,,,,,,,,,,,,,,,,,,,,,,,,,,,
,,5f95155d7ae37e0009ed42ac,2024-02-18_20h15.45.348,kallum_motion_pilot,2023.2.2,Win32,39.95046143,5f95155d7ae37e0009ed42ac,65d2b6c8f2eece985d8e374c,65d2b985d0ce9e3d3e18c4e2,0.1321,0.1322,0,17,17,49,1,onethree,,,,,,,,,,,,,,,,,,,,,,,,,,,,,,,,,,,,,,,,,,,,,,,,,,,,,,,,,,,,,,,,,,,,,,,,,,,,,,,,,,,,,,,,,,,,,,,,,,,,,,,,,,,,,,,,,,,,,,,,,,,,,,,,,,,,,,,,,
,,5f95155d7ae37e0009ed42ac,2024-02-18_20h15.45.348,kallum_motion_pilot,2023.2.2,Win32,39.95046143,5f95155d7ae37e0009ed42ac,65d2b6c8f2eece985d8e374c,65d2b985d0ce9e3d3e18c4e2,0.1325,0.1327,0,18,18,38,1,fourtwo,,,,,,,,,,,,,,,,,,,,,,,,,,,,,,,,,,,,,,,,,,,,,,,,,,,,,,,,,,,,,,,,,,,,,,,,,,,,,,,,,,,,,,,,,,,,,,,,,,,,,,,,,,,,,,,,,,,,,,,,,,,,,,,,,,,,,,,,,
,,5f95155d7ae37e0009ed42ac,2024-02-18_20h15.45.348,kallum_motion_pilot,2023.2.2,Win32,39.95046143,5f95155d7ae37e0009ed42ac,65d2b6c8f2eece985d8e374c,65d2b985d0ce9e3d3e18c4e2,0.133,0.1331,0,19,19,98,1,sixfive,,,,,,,,,,,,,,,,,,,,,,,,,,,,,,,,,,,,,,,,,,,,,,,,,,,,,,,,,,,,,,,,,,,,,,,,,,,,,,,,,,,,,,,,,,,,,,,,,,,,,,,,,,,,,,,,,,,,,,,,,,,,,,,,,,,,,,,,,
,,5f95155d7ae37e0009ed42ac,2024-02-18_20h15.45.348,kallum_motion_pilot,2023.2.2,Win32,39.95046143,5f95155d7ae37e0009ed42ac,65d2b6c8f2eece985d8e374c,65d2b985d0ce9e3d3e18c4e2,0.1335,0.1336,0,20,20,103,1,eightseven,,,,,,,,,,,,,,,,,,,,,,,,,,,,,,,,,,,,,,,,,,,,,,,,,,,,,,,,,,,,,,,,,,,,,,,,,,,,,,,,,,,,,,,,,,,,,,,,,,,,,,,,,,,,,,,,,,,,,,,,,,,,,,,,,,,,,,,,,
,,5f95155d7ae37e0009ed42ac,2024-02-18_20h15.45.348,kallum_motion_pilot,2023.2.2,Win32,39.95046143,5f95155d7ae37e0009ed42ac,65d2b6c8f2eece985d8e374c,65d2b985d0ce9e3d3e18c4e2,0.1339,0.134,0,21,21,93,1,seveneight,,,,,,,,,,,,,,,,,,,,,,,,,,,,,,,,,,,,,,,,,,,,,,,,,,,,,,,,,,,,,,,,,,,,,,,,,,,,,,,,,,,,,,,,,,,,,,,,,,,,,,,,,,,,,,,,,,,,,,,,,,,,,,,,,,,,,,,,,
,,5f95155d7ae37e0009ed42ac,2024-02-18_20h15.45.348,kallum_motion_pilot,2023.2.2,Win32,39.95046143,5f95155d7ae37e0009ed42ac,65d2b6c8f2eece985d8e374c,65d2b985d0ce9e3d3e18c4e2,0.1343,0.1344,0,22,22,24,1,onetwo,,,,,,,,,,,,,,,,,,,,,,,,,,,,,,,,,,,,,,,,,,,,,,,,,,,,,,,,,,,,,,,,,,,,,,,,,,,,,,,,,,,,,,,,,,,,,,,,,,,,,,,,,,,,,,,,,,,,,,,,,,,,,,,,,,,,,,,,,
,,5f95155d7ae37e0009ed42ac,2024-02-18_20h15.45.348,kallum_motion_pilot,2023.2.2,Win32,39.95046143,5f95155d7ae37e0009ed42ac,65d2b6c8f2eece985d8e374c,65d2b985d0ce9e3d3e18c4e2,0.1349,0.135,0,23,23,75,1,twofour,,,,,,,,,,,,,,,,,,,,,,,,,,,,,,,,,,,,,,,,,,,,,,,,,,,,,,,,,,,,,,,,,,,,,,,,,,,,,,,,,,,,,,,,,,,,,,,,,,,,,,,,,,,,,,,,,,,,,,,,,,,,,,,,,,,,,,,,,
,,5f95155d7ae37e0009ed42ac,2024-02-18_20h15.45.348,kallum_motion_pilot,2023.2.2,Win32,39.95046143,5f95155d7ae37e0009ed42ac,65d2b6c8f2eece985d8e374c,65d2b985d0ce9e3d3e18c4e2,0.1355,0.1358,0,24,24,159,1,eightseven,,,,,,,,,,,,,,,,,,,,,,,,,,,,,,,,,,,,,,,,,,,,,,,,,,,,,,,,,,,,,,,,,,,,,,,,,,,,,,,,,,,,,,,,,,,,,,,,,,,,,,,,,,,,,,,,,,,,,,,,,,,,,,,,,,,,,,,,,
,,5f95155d7ae37e0009ed42ac,2024-02-18_20h15.45.348,kallum_motion_pilot,2023.2.2,Win32,39.95046143,5f95155d7ae37e0009ed42ac,65d2b6c8f2eece985d8e374c,65d2b985d0ce9e3d3e18c4e2,0.1362,0.1363,0,25,25,107,1,sixeight,,,,,,,,,,,,,,,,,,,,,,,,,,,,,,,,,,,,,,,,,,,,,,,,,,,,,,,,,,,,,,,,,,,,,,,,,,,,,,,,,,,,,,,,,,,,,,,,,,,,,,,,,,,,,,,,,,,,,,,,,,,,,,,,,,,,,,,,,
,,5f95155d7ae37e0009ed42ac,2024-02-18_20h15.45.348,kallum_motion_pilot,2023.2.2,Win32,39.95046143,5f95155d7ae37e0009ed42ac,65d2b6c8f2eece985d8e374c,65d2b985d0ce9e3d3e18c4e2,0.1368,0.1369,0,26,26,55,1,fourthree,,,,,,,,,,,,,,,,,,,,,,,,,,,,,,,,,,,,,,,,,,,,,,,,,,,,,,,,,,,,,,,,,,,,,,,,,,,,,,,,,,,,,,,,,,,,,,,,,,,,,,,,,,,,,,,,,,,,,,,,,,,,,,,,,,,,,,,,,
,,5f95155d7ae37e0009ed42ac,2024-02-18_20h15.45.348,kallum_motion_pilot,2023.2.2,Win32,39.95046143,5f95155d7ae37e0009ed42ac,65d2b6c8f2eece985d8e374c,65d2b985d0ce9e3d3e18c4e2,0.1374,0.1375,0,27,27,161,1,fiveseven,,,,,,,,,,,,,,,,,,,,,,,,,,,,,,,,,,,,,,,,,,,,,,,,,,,,,,,,,,,,,,,,,,,,,,,,,,,,,,,,,,,,,,,,,,,,,,,,,,,,,,,,,,,,,,,,,,,,,,,,,,,,,,,,,,,,,,,,,
,,5f95155d7ae37e0009ed42ac,2024-02-18_20h15.45.348,kallum_motion_pilot,2023.2.2,Win32,39.95046143,5f95155d7ae37e0009ed42ac,65d2b6c8f2eece985d8e374c,65d2b985d0ce9e3d3e18c4e2,0.1379,0.138,0,28,28,152,1,fivesix,,,,,,,,,,,,,,,,,,,,,,,,,,,,,,,,,,,,,,,,,,,,,,,,,,,,,,,,,,,,,,,,,,,,,,,,,,,,,,,,,,,,,,,,,,,,,,,,,,,,,,,,,,,,,,,,,,,,,,,,,,,,,,,,,,,,,,,,,
,,5f95155d7ae37e0009ed42ac,2024-02-18_20h15.45.348,kallum_motion_pilot,2023.2.2,Win32,39.95046143,5f95155d7ae37e0009ed42ac,65d2b6c8f2eece985d8e374c,65d2b985d0ce9e3d3e18c4e2,0.1383,0.1385,0,29,29,10,1,twoone,,,,,,,,,,,,,,,,,,,,,,,,,,,,,,,,,,,,,,,,,,,,,,,,,,,,,,,,,,,,,,,,,,,,,,,,,,,,,,,,,,,,,,,,,,,,,,,,,,,,,,,,,,,,,,,,,,,,,,,,,,,,,,,,,,,,,,,,,
,,5f95155d7ae37e0009ed42ac,2024-02-18_20h15.45.348,kallum_motion_pilot,2023.2.2,Win32,39.95046143,5f95155d7ae37e0009ed42ac,65d2b6c8f2eece985d8e374c,65d2b985d0ce9e3d3e18c4e2,0.1388,0.139,0,30,30,19,1,twofour,,,,,,,,,,,,,,,,,,,,,,,,,,,,,,,,,,,,,,,,,,,,,,,,,,,,,,,,,,,,,,,,,,,,,,,,,,,,,,,,,,,,,,,,,,,,,,,,,,,,,,,,,,,,,,,,,,,,,,,,,,,,,,,,,,,,,,,,,
,,5f95155d7ae37e0009ed42ac,2024-02-18_20h15.45.348,kallum_motion_pilot,2023.2.2,Win32,39.95046143,5f95155d7ae37e0009ed42ac,65d2b6c8f2eece985d8e374c,65d2b985d0ce9e3d3e18c4e2,0.1394,0.1395,0,31,31,118,1,eightsix,,,,,,,,,,,,,,,,,,,,,,,,,,,,,,,,,,,,,,,,,,,,,,,,,,,,,,,,,,,,,,,,,,,,,,,,,,,,,,,,,,,,,,,,,,,,,,,,,,,,,,,,,,,,,,,,,,,,,,,,,,,,,,,,,,,,,,,,,
,,5f95155d7ae37e0009ed42ac,2024-02-18_20h15.45.348,kallum_motion_pilot,2023.2.2,Win32,39.95046143,5f95155d7ae37e0009ed42ac,65d2b6c8f2eece985d8e374c,65d2b985d0ce9e3d3e18c4e2,0.14,0.1401,0,32,32,16,1,onetwo,,,,,,,,,,,,,,,,,,,,,,,,,,,,,,,,,,,,,,,,,,,,,,,,,,,,,,,,,,,,,,,,,,,,,,,,,,,,,,,,,,,,,,,,,,,,,,,,,,,,,,,,,,,,,,,,,,,,,,,,,,,,,,,,,,,,,,,,,
,,5f95155d7ae37e0009ed42ac,2024-02-18_20h15.45.348,kallum_motion_pilot,2023.2.2,Win32,39.95046143,5f95155d7ae37e0009ed42ac,65d2b6c8f2eece985d8e374c,65d2b985d0ce9e3d3e18c4e2,0.1405,0.1406,0,33,33,127,1,eightseven,,,,,,,,,,,,,,,,,,,,,,,,,,,,,,,,,,,,,,,,,,,,,,,,,,,,,,,,,,,,,,,,,,,,,,,,,,,,,,,,,,,,,,,,,,,,,,,,,,,,,,,,,,,,,,,,,,,,,,,,,,,,,,,,,,,,,,,,,
,,5f95155d7ae37e0009ed42ac,2024-02-18_20h15.45.348,kallum_motion_pilot,2023.2.2,Win32,39.95046143,5f95155d7ae37e0009ed42ac,65d2b6c8f2eece985d8e374c,65d2b985d0ce9e3d3e18c4e2,0.1411,0.1411,0,34,34,109,1,seveneight,,,,,,,,,,,,,,,,,,,,,,,,,,,,,,,,,,,,,,,,,,,,,,,,,,,,,,,,,,,,,,,,,,,,,,,,,,,,,,,,,,,,,,,,,,,,,,,,,,,,,,,,,,,,,,,,,,,,,,,,,,,,,,,,,,,,,,,,,
,,5f95155d7ae37e0009ed42ac,2024-02-18_20h15.45.348,kallum_motion_pilot,2023.2.2,Win32,39.95046143,5f95155d7ae37e0009ed42ac,65d2b6c8f2eece985d8e374c,65d2b985d0ce9e3d3e18c4e2,0.1416,0.1418,0,35,35,102,1,eightsix,,,,,,,,,,,,,,,,,,,,,,,,,,,,,,,,,,,,,,,,,,,,,,,,,,,,,,,,,,,,,,,,,,,,,,,,,,,,,,,,,,,,,,,,,,,,,,,,,,,,,,,,,,,,,,,,,,,,,,,,,,,,,,,,,,,,,,,,,
,,5f95155d7ae37e0009ed42ac,2024-02-18_20h15.45.348,kallum_motion_pilot,2023.2.2,Win32,39.95046143,5f95155d7ae37e0009ed42ac,65d2b6c8f2eece985d8e374c,65d2b985d0ce9e3d3e18c4e2,0.1422,0.1423,0,36,36,137,1,fiveseven,,,,,,,,,,,,,,,,,,,,,,,,,,,,,,,,,,,,,,,,,,,,,,,,,,,,,,,,,,,,,,,,,,,,,,,,,,,,,,,,,,,,,,,,,,,,,,,,,,,,,,,,,,,,,,,,,,,,,,,,,,,,,,,,,,,,,,,,,
,,5f95155d7ae37e0009ed42ac,2024-02-18_20h15.45.348,kallum_motion_pilot,2023.2.2,Win32,39.95046143,5f95155d7ae37e0009ed42ac,65d2b6c8f2eece985d8e374c,65d2b985d0ce9e3d3e18c4e2,0.1427,0.1428,0,37,37,27,1,twofour,,,,,,,,,,,,,,,,,,,,,,,,,,,,,,,,,,,,,,,,,,,,,,,,,,,,,,,,,,,,,,,,,,,,,,,,,,,,,,,,,,,,,,,,,,,,,,,,,,,,,,,,,,,,,,,,,,,,,,,,,,,,,,,,,,,,,,,,,
,,5f95155d7ae37e0009ed42ac,2024-02-18_20h15.45.348,kallum_motion_pilot,2023.2.2,Win32,39.95046143,5f95155d7ae37e0009ed42ac,65d2b6c8f2eece985d8e374c,65d2b985d0ce9e3d3e18c4e2,0.1432,0.1433,0,38,38,84,1,sevenfive,,,,,,,,,,,,,,,,,,,,,,,,,,,,,,,,,,,,,,,,,,,,,,,,,,,,,,,,,,,,,,,,,,,,,,,,,,,,,,,,,,,,,,,,,,,,,,,,,,,,,,,,,,,,,,,,,,,,,,,,,,,,,,,,,,,,,,,,,
,,5f95155d7ae37e0009ed42ac,2024-02-18_20h15.45.348,kallum_motion_pilot,2023.2.2,Win32,39.95046143,5f95155d7ae37e0009ed42ac,65d2b6c8f2eece985d8e374c,65d2b985d0ce9e3d3e18c4e2,0.1437,0.1438,0,39,39,83,1,sixeight,,,,,,,,,,,,,,,,,,,,,,,,,,,,,,,,,,,,,,,,,,,,,,,,,,,,,,,,,,,,,,,,,,,,,,,,,,,,,,,,,,,,,,,,,,,,,,,,,,,,,,,,,,,,,,,,,,,,,,,,,,,,,,,,,,,,,,,,,
,,5f95155d7ae37e0009ed42ac,2024-02-18_20h15.45.348,kallum_motion_pilot,2023.2.2,Win32,39.95046143,5f95155d7ae37e0009ed42ac,65d2b6c8f2eece985d8e374c,65d2b985d0ce9e3d3e18c4e2,0.1442,0.1443,0,40,40,22,1,fourtwo,,,,,,,,,,,,,,,,,,,,,,,,,,,,,,,,,,,,,,,,,,,,,,,,,,,,,,,,,,,,,,,,,,,,,,,,,,,,,,,,,,,,,,,,,,,,,,,,,,,,,,,,,,,,,,,,,,,,,,,,,,,,,,,,,,,,,,,,,
,,5f95155d7ae37e0009ed42ac,2024-02-18_20h15.45.348,kallum_motion_pilot,2023.2.2,Win32,39.95046143,5f95155d7ae37e0009ed42ac,65d2b6c8f2eece985d8e374c,65d2b985d0ce9e3d3e18c4e2,0.1448,0.1448,0,41,41,20,1,threeone,,,,,,,,,,,,,,,,,,,,,,,,,,,,,,,,,,,,,,,,,,,,,,,,,,,,,,,,,,,,,,,,,,,,,,,,,,,,,,,,,,,,,,,,,,,,,,,,,,,,,,,,,,,,,,,,,,,,,,,,,,,,,,,,,,,,,,,,,
,,5f95155d7ae37e0009ed42ac,2024-02-18_20h15.45.348,kallum_motion_pilot,2023.2.2,Win32,39.95046143,5f95155d7ae37e0009ed42ac,65d2b6c8f2eece985d8e374c,65d2b985d0ce9e3d3e18c4e2,0.1452,0.1454,0,42,42,136,1,fivesix,,,,,,,,,,,,,,,,,,,,,,,,,,,,,,,,,,,,,,,,,,,,,,,,,,,,,,,,,,,,,,,,,,,,,,,,,,,,,,,,,,,,,,,,,,,,,,,,,,,,,,,,,,,,,,,,,,,,,,,,,,,,,,,,,,,,,,,,,
,,5f95155d7ae37e0009ed42ac,2024-02-18_20h15.45.348,kallum_motion_pilot,2023.2.2,Win32,39.95046143,5f95155d7ae37e0009ed42ac,65d2b6c8f2eece985d8e374c,65d2b985d0ce9e3d3e18c4e2,0.1457,0.1458,0,43,43,80,1,fivesix,,,,,,,,,,,,,,,,,,,,,,,,,,,,,,,,,,,,,,,,,,,,,,,,,,,,,,,,,,,,,,,,,,,,,,,,,,,,,,,,,,,,,,,,,,,,,,,,,,,,,,,,,,,,,,,,,,,,,,,,,,,,,,,,,,,,,,,,,
,,5f95155d7ae37e0009ed42ac,2024-02-18_20h15.45.348,kallum_motion_pilot,2023.2.2,Win32,39.95046143,5f95155d7ae37e0009ed42ac,65d2b6c8f2eece985d8e374c,65d2b985d0ce9e3d3e18c4e2,0.1461,0.1463,0,44,44,6,1,fourtwo,,,,,,,,,,,,,,,,,,,,,,,,,,,,,,,,,,,,,,,,,,,,,,,,,,,,,,,,,,,,,,,,,,,,,,,,,,,,,,,,,,,,,,,,,,,,,,,,,,,,,,,,,,,,,,,,,,,,,,,,,,,,,,,,,,,,,,,,,
,,5f95155d7ae37e0009ed42ac,2024-02-18_20h15.45.348,kallum_motion_pilot,2023.2.2,Win32,39.95046143,5f95155d7ae37e0009ed42ac,65d2b6c8f2eece985d8e374c,65d2b985d0ce9e3d3e18c4e2,0.1466,0.1467,0,45,45,64,1,onetwo,,,,,,,,,,,,,,,,,,,,,,,,,,,,,,,,,,,,,,,,,,,,,,,,,,,,,,,,,,,,,,,,,,,,,,,,,,,,,,,,,,,,,,,,,,,,,,,,,,,,,,,,,,,,,,,,,,,,,,,,,,,,,,,,,,,,,,,,,
,,5f95155d7ae37e0009ed42ac,2024-02-18_20h15.45.348,kallum_motion_pilot,2023.2.2,Win32,39.95046143,5f95155d7ae37e0009ed42ac,65d2b6c8f2eece985d8e374c,65d2b985d0ce9e3d3e18c4e2,0.1471,0.1472,0,46,46,21,1,threefour,,,,,,,,,,,,,,,,,,,,,,,,,,,,,,,,,,,,,,,,,,,,,,,,,,,,,,,,,,,,,,,,,,,,,,,,,,,,,,,,,,,,,,,,,,,,,,,,,,,,,,,,,,,,,,,,,,,,,,,,,,,,,,,,,,,,,,,,,
,,5f95155d7ae37e0009ed42ac,2024-02-18_20h15.45.348,kallum_motion_pilot,2023.2.2,Win32,39.95046143,5f95155d7ae37e0009ed42ac,65d2b6c8f2eece985d8e374c,65d2b985d0ce9e3d3e18c4e2,0.1474,0.1476,0,47,47,142,1,eightsix,,,,,,,,,,,,,,,,,,,,,,,,,,,,,,,,,,,,,,,,,,,,,,,,,,,,,,,,,,,,,,,,,,,,,,,,,,,,,,,,,,,,,,,,,,,,,,,,,,,,,,,,,,,,,,,,,,,,,,,,,,,,,,,,,,,,,,,,,
,,5f95155d7ae37e0009ed42ac,2024-02-18_20h15.45.348,kallum_motion_pilot,2023.2.2,Win32,39.95046143,5f95155d7ae37e0009ed42ac,65d2b6c8f2eece985d8e374c,65d2b985d0ce9e3d3e18c4e2,0.1479,0.1481,0,48,48,53,1,threefour,,,,,,,,,,,,,,,,,,,,,,,,,,,,,,,,,,,,,,,,,,,,,,,,,,,,,,,,,,,,,,,,,,,,,,,,,,,,,,,,,,,,,,,,,,,,,,,,,,,,,,,,,,,,,,,,,,,,,,,,,,,,,,,,,,,,,,,,,
,,5f95155d7ae37e0009ed42ac,2024-02-18_20h15.45.348,kallum_motion_pilot,2023.2.2,Win32,39.95046143,5f95155d7ae37e0009ed42ac,65d2b6c8f2eece985d8e374c,65d2b985d0ce9e3d3e18c4e2,0.1483,0.1485,0,49,49,67,1,twofour,,,,,,,,,,,,,,,,,,,,,,,,,,,,,,,,,,,,,,,,,,,,,,,,,,,,,,,,,,,,,,,,,,,,,,,,,,,,,,,,,,,,,,,,,,,,,,,,,,,,,,,,,,,,,,,,,,,,,,,,,,,,,,,,,,,,,,,,,
,,5f95155d7ae37e0009ed42ac,2024-02-18_20h15.45.348,kallum_motion_pilot,2023.2.2,Win32,39.95046143,5f95155d7ae37e0009ed42ac,65d2b6c8f2eece985d8e374c,65d2b985d0ce9e3d3e18c4e2,0.1489,0.1489,0,50,50,8,1,onetwo,,,,,,,,,,,,,,,,,,,,,,,,,,,,,,,,,,,,,,,,,,,,,,,,,,,,,,,,,,,,,,,,,,,,,,,,,,,,,,,,,,,,,,,,,,,,,,,,,,,,,,,,,,,,,,,,,,,,,,,,,,,,,,,,,,,,,,,,,
,,5f95155d7ae37e0009ed42ac,2024-02-18_20h15.45.348,kallum_motion_pilot,2023.2.2,Win32,39.95046143,5f95155d7ae37e0009ed42ac,65d2b6c8f2eece985d8e374c,65d2b985d0ce9e3d3e18c4e2,0.1492,0.1494,0,51,51,115,1,sixeight,,,,,,,,,,,,,,,,,,,,,,,,,,,,,,,,,,,,,,,,,,,,,,,,,,,,,,,,,,,,,,,,,,,,,,,,,,,,,,,,,,,,,,,,,,,,,,,,,,,,,,,,,,,,,,,,,,,,,,,,,,,,,,,,,,,,,,,,,
,,5f95155d7ae37e0009ed42ac,2024-02-18_20h15.45.348,kallum_motion_pilot,2023.2.2,Win32,39.95046143,5f95155d7ae37e0009ed42ac,65d2b6c8f2eece985d8e374c,65d2b985d0ce9e3d3e18c4e2,0.1498,0.15,0,52,52,56,1,onetwo,,,,,,,,,,,,,,,,,,,,,,,,,,,,,,,,,,,,,,,,,,,,,,,,,,,,,,,,,,,,,,,,,,,,,,,,,,,,,,,,,,,,,,,,,,,,,,,,,,,,,,,,,,,,,,,,,,,,,,,,,,,,,,,,,,,,,,,,,
,,5f95155d7ae37e0009ed42ac,2024-02-18_20h15.45.348,kallum_motion_pilot,2023.2.2,Win32,39.95046143,5f95155d7ae37e0009ed42ac,65d2b6c8f2eece985d8e374c,65d2b985d0ce9e3d3e18c4e2,0.1503,0.1504,0,53,53,121,1,fiveseven,,,,,,,,,,,,,,,,,,,,,,,,,,,,,,,,,,,,,,,,,,,,,,,,,,,,,,,,,,,,,,,,,,,,,,,,,,,,,,,,,,,,,,,,,,,,,,,,,,,,,,,,,,,,,,,,,,,,,,,,,,,,,,,,,,,,,,,,,
,,5f95155d7ae37e0009ed42ac,2024-02-18_20h15.45.348,kallum_motion_pilot,2023.2.2,Win32,39.95046143,5f95155d7ae37e0009ed42ac,65d2b6c8f2eece985d8e374c,65d2b985d0ce9e3d3e18c4e2,0.1507,0.1509,0,54,54,138,1,sixfive,,,,,,,,,,,,,,,,,,,,,,,,,,,,,,,,,,,,,,,,,,,,,,,,,,,,,,,,,,,,,,,,,,,,,,,,,,,,,,,,,,,,,,,,,,,,,,,,,,,,,,,,,,,,,,,,,,,,,,,,,,,,,,,,,,,,,,,,,
,,5f95155d7ae37e0009ed42ac,2024-02-18_20h15.45.348,kallum_motion_pilot,2023.2.2,Win32,39.95046143,5f95155d7ae37e0009ed42ac,65d2b6c8f2eece985d8e374c,65d2b985d0ce9e3d3e18c4e2,0.1512,0.1513,0,55,55,15,1,fourthree,,,,,,,,,,,,,,,,,,,,,,,,,,,,,,,,,,,,,,,,,,,,,,,,,,,,,,,,,,,,,,,,,,,,,,,,,,,,,,,,,,,,,,,,,,,,,,,,,,,,,,,,,,,,,,,,,,,,,,,,,,,,,,,,,,,,,,,,,
,,5f95155d7ae37e0009ed42ac,2024-02-18_20h15.45.348,kallum_motion_pilot,2023.2.2,Win32,39.95046143,5f95155d7ae37e0009ed42ac,65d2b6c8f2eece985d8e374c,65d2b985d0ce9e3d3e18c4e2,0.1516,0.1518,0,56,56,1,1,onethree,,,,,,,,,,,,,,,,,,,,,,,,,,,,,,,,,,,,,,,,,,,,,,,,,,,,,,,,,,,,,,,,,,,,,,,,,,,,,,,,,,,,,,,,,,,,,,,,,,,,,,,,,,,,,,,,,,,,,,,,,,,,,,,,,,,,,,,,,
,,5f95155d7ae37e0009ed42ac,2024-02-18_20h15.45.348,kallum_motion_pilot,2023.2.2,Win32,39.95046143,5f95155d7ae37e0009ed42ac,65d2b6c8f2eece985d8e374c,65d2b985d0ce9e3d3e18c4e2,0.1521,0.1522,0,57,57,5,1,threefour,,,,,,,,,,,,,,,,,,,,,,,,,,,,,,,,,,,,,,,,,,,,,,,,,,,,,,,,,,,,,,,,,,,,,,,,,,,,,,,,,,,,,,,,,,,,,,,,,,,,,,,,,,,,,,,,,,,,,,,,,,,,,,,,,,,,,,,,,
,,5f95155d7ae37e0009ed42ac,2024-02-18_20h15.45.348,kallum_motion_pilot,2023.2.2,Win32,39.95046143,5f95155d7ae37e0009ed42ac,65d2b6c8f2eece985d8e374c,65d2b985d0ce9e3d3e18c4e2,0.1526,0.1527,0,58,58,0,1,onetwo,,,,,,,,,,,,,,,,,,,,,,,,,,,,,,,,,,,,,,,,,,,,,,,,,,,,,,,,,,,,,,,,,,,,,,,,,,,,,,,,,,,,,,,,,,,,,,,,,,,,,,,,,,,,,,,,,,,,,,,,,,,,,,,,,,,,,,,,,
,,5f95155d7ae37e0009ed42ac,2024-02-18_20h15.45.348,kallum_motion_pilot,2023.2.2,Win32,39.95046143,5f95155d7ae37e0009ed42ac,65d2b6c8f2eece985d8e374c,65d2b985d0ce9e3d3e18c4e2,0.1531,0.1533,0,59,59,72,1,onetwo,,,,,,,,,,,,,,,,,,,,,,,,,,,,,,,,,,,,,,,,,,,,,,,,,,,,,,,,,,,,,,,,,,,,,,,,,,,,,,,,,,,,,,,,,,,,,,,,,,,,,,,,,,,,,,,,,,,,,,,,,,,,,,,,,,,,,,,,,
,,5f95155d7ae37e0009ed42ac,2024-02-18_20h15.45.348,kallum_motion_pilot,2023.2.2,Win32,39.95046143,5f95155d7ae37e0009ed42ac,65d2b6c8f2eece985d8e374c,65d2b985d0ce9e3d3e18c4e2,0.1536,0.1538,0,60,60,73,1,onethree,,,,,,,,,,,,,,,,,,,,,,,,,,,,,,,,,,,,,,,,,,,,,,,,,,,,,,,,,,,,,,,,,,,,,,,,,,,,,,,,,,,,,,,,,,,,,,,,,,,,,,,,,,,,,,,,,,,,,,,,,,,,,,,,,,,,,,,,,
,,5f95155d7ae37e0009ed42ac,2024-02-18_20h15.45.348,kallum_motion_pilot,2023.2.2,Win32,39.95046143,5f95155d7ae37e0009ed42ac,65d2b6c8f2eece985d8e374c,65d2b985d0ce9e3d3e18c4e2,0.1542,0.1544,0,61,61,144,1,fivesix,,,,,,,,,,,,,,,,,,,,,,,,,,,,,,,,,,,,,,,,,,,,,,,,,,,,,,,,,,,,,,,,,,,,,,,,,,,,,,,,,,,,,,,,,,,,,,,,,,,,,,,,,,,,,,,,,,,,,,,,,,,,,,,,,,,,,,,,,
,,5f95155d7ae37e0009ed42ac,2024-02-18_20h15.45.348,kallum_motion_pilot,2023.2.2,Win32,39.95046143,5f95155d7ae37e0009ed42ac,65d2b6c8f2eece985d8e374c,65d2b985d0ce9e3d3e18c4e2,0.1547,0.1549,0,62,62,68,1,threeone,,,,,,,,,,,,,,,,,,,,,,,,,,,,,,,,,,,,,,,,,,,,,,,,,,,,,,,,,,,,,,,,,,,,,,,,,,,,,,,,,,,,,,,,,,,,,,,,,,,,,,,,,,,,,,,,,,,,,,,,,,,,,,,,,,,,,,,,,
,,5f95155d7ae37e0009ed42ac,2024-02-18_20h15.45.348,kallum_motion_pilot,2023.2.2,Win32,39.95046143,5f95155d7ae37e0009ed42ac,65d2b6c8f2eece985d8e374c,65d2b985d0ce9e3d3e18c4e2,0.1554,0.1556,0,63,63,151,1,eightseven,,,,,,,,,,,,,,,,,,,,,,,,,,,,,,,,,,,,,,,,,,,,,,,,,,,,,,,,,,,,,,,,,,,,,,,,,,,,,,,,,,,,,,,,,,,,,,,,,,,,,,,,,,,,,,,,,,,,,,,,,,,,,,,,,,,,,,,,,
,,5f95155d7ae37e0009ed42ac,2024-02-18_20h15.45.348,kallum_motion_pilot,2023.2.2,Win32,39.95046143,5f95155d7ae37e0009ed42ac,65d2b6c8f2eece985d8e374c,65d2b985d0ce9e3d3e18c4e2,0.1561,0.1563,0,64,64,78,1,fourtwo,,,,,,,,,,,,,,,,,,,,,,,,,,,,,,,,,,,,,,,,,,,,,,,,,,,,,,,,,,,,,,,,,,,,,,,,,,,,,,,,,,,,,,,,,,,,,,,,,,,,,,,,,,,,,,,,,,,,,,,,,,,,,,,,,,,,,,,,,
,,5f95155d7ae37e0009ed42ac,2024-02-18_20h15.45.348,kallum_motion_pilot,2023.2.2,Win32,39.95046143,5f95155d7ae37e0009ed42ac,65d2b6c8f2eece985d8e374c,65d2b985d0ce9e3d3e18c4e2,0.1568,0.1571,0,65,65,101,1,seveneight,,,,,,,,,,,,,,,,,,,,,,,,,,,,,,,,,,,,,,,,,,,,,,,,,,,,,,,,,,,,,,,,,,,,,,,,,,,,,,,,,,,,,,,,,,,,,,,,,,,,,,,,,,,,,,,,,,,,,,,,,,,,,,,,,,,,,,,,,
,,5f95155d7ae37e0009ed42ac,2024-02-18_20h15.45.348,kallum_motion_pilot,2023.2.2,Win32,39.95046143,5f95155d7ae37e0009ed42ac,65d2b6c8f2eece985d8e374c,65d2b985d0ce9e3d3e18c4e2,0.1575,0.1577,0,66,66,113,1,fiveseven,,,,,,,,,,,,,,,,,,,,,,,,,,,,,,,,,,,,,,,,,,,,,,,,,,,,,,,,,,,,,,,,,,,,,,,,,,,,,,,,,,,,,,,,,,,,,,,,,,,,,,,,,,,,,,,,,,,,,,,,,,,,,,,,,,,,,,,,,
,,5f95155d7ae37e0009ed42ac,2024-02-18_20h15.45.348,kallum_motion_pilot,2023.2.2,Win32,39.95046143,5f95155d7ae37e0009ed42ac,65d2b6c8f2eece985d8e374c,65d2b985d0ce9e3d3e18c4e2,0.158,0.1582,0,67,67,17,1,onethree,,,,,,,,,,,,,,,,,,,,,,,,,,,,,,,,,,,,,,,,,,,,,,,,,,,,,,,,,,,,,,,,,,,,,,,,,,,,,,,,,,,,,,,,,,,,,,,,,,,,,,,,,,,,,,,,,,,,,,,,,,,,,,,,,,,,,,,,,
,,5f95155d7ae37e0009ed42ac,2024-02-18_20h15.45.348,kallum_motion_pilot,2023.2.2,Win32,39.95046143,5f95155d7ae37e0009ed42ac,65d2b6c8f2eece985d8e374c,65d2b985d0ce9e3d3e18c4e2,0.1587,0.1589,0,68,68,26,1,twoone,,,,,,,,,,,,,,,,,,,,,,,,,,,,,,,,,,,,,,,,,,,,,,,,,,,,,,,,,,,,,,,,,,,,,,,,,,,,,,,,,,,,,,,,,,,,,,,,,,,,,,,,,,,,,,,,,,,,,,,,,,,,,,,,,,,,,,,,,
,,5f95155d7ae37e0009ed42ac,2024-02-18_20h15.45.348,kallum_motion_pilot,2023.2.2,Win32,39.95046143,5f95155d7ae37e0009ed42ac,65d2b6c8f2eece985d8e374c,65d2b985d0ce9e3d3e18c4e2,0.1594,0.1595,0,69,69,132,1,sevenfive,,,,,,,,,,,,,,,,,,,,,,,,,,,,,,,,,,,,,,,,,,,,,,,,,,,,,,,,,,,,,,,,,,,,,,,,,,,,,,,,,,,,,,,,,,,,,,,,,,,,,,,,,,,,,,,,,,,,,,,,,,,,,,,,,,,,,,,,,
,,5f95155d7ae37e0009ed42ac,2024-02-18_20h15.45.348,kallum_motion_pilot,2023.2.2,Win32,39.95046143,5f95155d7ae37e0009ed42ac,65d2b6c8f2eece985d8e374c,65d2b985d0ce9e3d3e18c4e2,0.16,0.1603,0,70,70,129,1,fiveseven,,,,,,,,,,,,,,,,,,,,,,,,,,,,,,,,,,,,,,,,,,,,,,,,,,,,,,,,,,,,,,,,,,,,,,,,,,,,,,,,,,,,,,,,,,,,,,,,,,,,,,,,,,,,,,,,,,,,,,,,,,,,,,,,,,,,,,,,,
,,5f95155d7ae37e0009ed42ac,2024-02-18_20h15.45.348,kallum_motion_pilot,2023.2.2,Win32,39.95046143,5f95155d7ae37e0009ed42ac,65d2b6c8f2eece985d8e374c,65d2b985d0ce9e3d3e18c4e2,0.1612,0.1614,0,71,71,120,1,fivesix,,,,,,,,,,,,,,,,,,,,,,,,,,,,,,,,,,,,,,,,,,,,,,,,,,,,,,,,,,,,,,,,,,,,,,,,,,,,,,,,,,,,,,,,,,,,,,,,,,,,,,,,,,,,,,,,,,,,,,,,,,,,,,,,,,,,,,,,,
,,5f95155d7ae37e0009ed42ac,2024-02-18_20h15.45.348,kallum_motion_pilot,2023.2.2,Win32,39.95046143,5f95155d7ae37e0009ed42ac,65d2b6c8f2eece985d8e374c,65d2b985d0ce9e3d3e18c4e2,0.1631,0.1633,0,72,72,13,1,threefour,,,,,,,,,,,,,,,,,,,,,,,,,,,,,,,,,,,,,,,,,,,,,,,,,,,,,,,,,,,,,,,,,,,,,,,,,,,,,,,,,,,,,,,,,,,,,,,,,,,,,,,,,,,,,,,,,,,,,,,,,,,,,,,,,,,,,,,,,
,,5f95155d7ae37e0009ed42ac,2024-02-18_20h15.45.348,kallum_motion_pilot,2023.2.2,Win32,39.95046143,5f95155d7ae37e0009ed42ac,65d2b6c8f2eece985d8e374c,65d2b985d0ce9e3d3e18c4e2,0.1637,0.164,0,73,73,125,1,seveneight,,,,,,,,,,,,,,,,,,,,,,,,,,,,,,,,,,,,,,,,,,,,,,,,,,,,,,,,,,,,,,,,,,,,,,,,,,,,,,,,,,,,,,,,,,,,,,,,,,,,,,,,,,,,,,,,,,,,,,,,,,,,,,,,,,,,,,,,,
,,5f95155d7ae37e0009ed42ac,2024-02-18_20h15.45.348,kallum_motion_pilot,2023.2.2,Win32,39.95046143,5f95155d7ae37e0009ed42ac,65d2b6c8f2eece985d8e374c,65d2b985d0ce9e3d3e18c4e2,0.1646,0.1647,0,74,74,77,1,threefour,,,,,,,,,,,,,,,,,,,,,,,,,,,,,,,,,,,,,,,,,,,,,,,,,,,,,,,,,,,,,,,,,,,,,,,,,,,,,,,,,,,,,,,,,,,,,,,,,,,,,,,,,,,,,,,,,,,,,,,,,,,,,,,,,,,,,,,,,
,,5f95155d7ae37e0009ed42ac,2024-02-18_20h15.45.348,kallum_motion_pilot,2023.2.2,Win32,39.95046143,5f95155d7ae37e0009ed42ac,65d2b6c8f2eece985d8e374c,65d2b985d0ce9e3d3e18c4e2,0.1651,0.1653,0,75,75,143,1,eightseven,,,,,,,,,,,,,,,,,,,,,,,,,,,,,,,,,,,,,,,,,,,,,,,,,,,,,,,,,,,,,,,,,,,,,,,,,,,,,,,,,,,,,,,,,,,,,,,,,,,,,,,,,,,,,,,,,,,,,,,,,,,,,,,,,,,,,,,,,
,,5f95155d7ae37e0009ed42ac,2024-02-18_20h15.45.348,kallum_motion_pilot,2023.2.2,Win32,39.95046143,5f95155d7ae37e0009ed42ac,65d2b6c8f2eece985d8e374c,65d2b985d0ce9e3d3e18c4e2,0.1657,0.1659,0,76,76,33,1,onethree,,,,,,,,,,,,,,,,,,,,,,,,,,,,,,,,,,,,,,,,,,,,,,,,,,,,,,,,,,,,,,,,,,,,,,,,,,,,,,,,,,,,,,,,,,,,,,,,,,,,,,,,,,,,,,,,,,,,,,,,,,,,,,,,,,,,,,,,,
,,5f95155d7ae37e0009ed42ac,2024-02-18_20h15.45.348,kallum_motion_pilot,2023.2.2,Win32,39.95046143,5f95155d7ae37e0009ed42ac,65d2b6c8f2eece985d8e374c,65d2b985d0ce9e3d3e18c4e2,0.1662,0.1664,0,77,77,95,1,eightseven,,,,,,,,,,,,,,,,,,,,,,,,,,,,,,,,,,,,,,,,,,,,,,,,,,,,,,,,,,,,,,,,,,,,,,,,,,,,,,,,,,,,,,,,,,,,,,,,,,,,,,,,,,,,,,,,,,,,,,,,,,,,,,,,,,,,,,,,,
,,5f95155d7ae37e0009ed42ac,2024-02-18_20h15.45.348,kallum_motion_pilot,2023.2.2,Win32,39.95046143,5f95155d7ae37e0009ed42ac,65d2b6c8f2eece985d8e374c,65d2b985d0ce9e3d3e18c4e2,0.1668,0.1669,0,78,78,30,1,fourtwo,,,,,,,,,,,,,,,,,,,,,,,,,,,,,,,,,,,,,,,,,,,,,,,,,,,,,,,,,,,,,,,,,,,,,,,,,,,,,,,,,,,,,,,,,,,,,,,,,,,,,,,,,,,,,,,,,,,,,,,,,,,,,,,,,,,,,,,,,
,,5f95155d7ae37e0009ed42ac,2024-02-18_20h15.45.348,kallum_motion_pilot,2023.2.2,Win32,39.95046143,5f95155d7ae37e0009ed42ac,65d2b6c8f2eece985d8e374c,65d2b985d0ce9e3d3e18c4e2,0.1673,0.1674,0,79,79,69,1,threefour,,,,,,,,,,,,,,,,,,,,,,,,,,,,,,,,,,,,,,,,,,,,,,,,,,,,,,,,,,,,,,,,,,,,,,,,,,,,,,,,,,,,,,,,,,,,,,,,,,,,,,,,,,,,,,,,,,,,,,,,,,,,,,,,,,,,,,,,,
,,5f95155d7ae37e0009ed42ac,2024-02-18_20h15.45.348,kallum_motion_pilot,2023.2.2,Win32,39.95046143,5f95155d7ae37e0009ed42ac,65d2b6c8f2eece985d8e374c,65d2b985d0ce9e3d3e18c4e2,0.1699,0.1701,0,80,80,32,1,onetwo,,,,,,,,,,,,,,,,,,,,,,,,,,,,,,,,,,,,,,,,,,,,,,,,,,,,,,,,,,,,,,,,,,,,,,,,,,,,,,,,,,,,,,,,,,,,,,,,,,,,,,,,,,,,,,,,,,,,,,,,,,,,,,,,,,,,,,,,,
,,5f95155d7ae37e0009ed42ac,2024-02-18_20h15.45.348,kallum_motion_pilot,2023.2.2,Win32,39.95046143,5f95155d7ae37e0009ed42ac,65d2b6c8f2eece985d8e374c,65d2b985d0ce9e3d3e18c4e2,0.1705,0.1707,0,81,81,85,1,seveneight,,,,,,,,,,,,,,,,,,,,,,,,,,,,,,,,,,,,,,,,,,,,,,,,,,,,,,,,,,,,,,,,,,,,,,,,,,,,,,,,,,,,,,,,,,,,,,,,,,,,,,,,,,,,,,,,,,,,,,,,,,,,,,,,,,,,,,,,,
,,5f95155d7ae37e0009ed42ac,2024-02-18_20h15.45.348,kallum_motion_pilot,2023.2.2,Win32,39.95046143,5f95155d7ae37e0009ed42ac,65d2b6c8f2eece985d8e374c,65d2b985d0ce9e3d3e18c4e2,0.171,0.1712,0,82,82,140,1,sevenfive,,,,,,,,,,,,,,,,,,,,,,,,,,,,,,,,,,,,,,,,,,,,,,,,,,,,,,,,,,,,,,,,,,,,,,,,,,,,,,,,,,,,,,,,,,,,,,,,,,,,,,,,,,,,,,,,,,,,,,,,,,,,,,,,,,,,,,,,,
,,5f95155d7ae37e0009ed42ac,2024-02-18_20h15.45.348,kallum_motion_pilot,2023.2.2,Win32,39.95046143,5f95155d7ae37e0009ed42ac,65d2b6c8f2eece985d8e374c,65d2b985d0ce9e3d3e18c4e2,0.1717,0.1719,0,83,83,44,1,threeone,,,,,,,,,,,,,,,,,,,,,,,,,,,,,,,,,,,,,,,,,,,,,,,,,,,,,,,,,,,,,,,,,,,,,,,,,,,,,,,,,,,,,,,,,,,,,,,,,,,,,,,,,,,,,,,,,,,,,,,,,,,,,,,,,,,,,,,,,
,,5f95155d7ae37e0009ed42ac,2024-02-18_20h15.45.348,kallum_motion_pilot,2023.2.2,Win32,39.95046143,5f95155d7ae37e0009ed42ac,65d2b6c8f2eece985d8e374c,65d2b985d0ce9e3d3e18c4e2,0.1722,0.1725,0,84,84,94,1,eightsix,,,,,,,,,,,,,,,,,,,,,,,,,,,,,,,,,,,,,,,,,,,,,,,,,,,,,,,,,,,,,,,,,,,,,,,,,,,,,,,,,,,,,,,,,,,,,,,,,,,,,,,,,,,,,,,,,,,,,,,,,,,,,,,,,,,,,,,,,
,,5f95155d7ae37e0009ed42ac,2024-02-18_20h15.45.348,kallum_motion_pilot,2023.2.2,Win32,39.95046143,5f95155d7ae37e0009ed42ac,65d2b6c8f2eece985d8e374c,65d2b985d0ce9e3d3e18c4e2,0.1728,0.1731,0,85,85,106,1,sixfive,,,,,,,,,,,,,,,,,,,,,,,,,,,,,,,,,,,,,,,,,,,,,,,,,,,,,,,,,,,,,,,,,,,,,,,,,,,,,,,,,,,,,,,,,,,,,,,,,,,,,,,,,,,,,,,,,,,,,,,,,,,,,,,,,,,,,,,,,
,,5f95155d7ae37e0009ed42ac,2024-02-18_20h15.45.348,kallum_motion_pilot,2023.2.2,Win32,39.95046143,5f95155d7ae37e0009ed42ac,65d2b6c8f2eece985d8e374c,65d2b985d0ce9e3d3e18c4e2,0.1735,0.1739,0,86,86,112,1,fivesix,,,,,,,,,,,,,,,,,,,,,,,,,,,,,,,,,,,,,,,,,,,,,,,,,,,,,,,,,,,,,,,,,,,,,,,,,,,,,,,,,,,,,,,,,,,,,,,,,,,,,,,,,,,,,,,,,,,,,,,,,,,,,,,,,,,,,,,,,
,,5f95155d7ae37e0009ed42ac,2024-02-18_20h15.45.348,kallum_motion_pilot,2023.2.2,Win32,39.95046143,5f95155d7ae37e0009ed42ac,65d2b6c8f2eece985d8e374c,65d2b985d0ce9e3d3e18c4e2,0.1743,0.1745,0,87,87,145,1,fiveseven,,,,,,,,,,,,,,,,,,,,,,,,,,,,,,,,,,,,,,,,,,,,,,,,,,,,,,,,,,,,,,,,,,,,,,,,,,,,,,,,,,,,,,,,,,,,,,,,,,,,,,,,,,,,,,,,,,,,,,,,,,,,,,,,,,,,,,,,,
,,5f95155d7ae37e0009ed42ac,2024-02-18_20h15.45.348,kallum_motion_pilot,2023.2.2,Win32,39.95046143,5f95155d7ae37e0009ed42ac,65d2b6c8f2eece985d8e374c,65d2b985d0ce9e3d3e18c4e2,0.1749,0.1751,0,88,88,59,1,twofour,,,,,,,,,,,,,,,,,,,,,,,,,,,,,,,,,,,,,,,,,,,,,,,,,,,,,,,,,,,,,,,,,,,,,,,,,,,,,,,,,,,,,,,,,,,,,,,,,,,,,,,,,,,,,,,,,,,,,,,,,,,,,,,,,,,,,,,,,
,,5f95155d7ae37e0009ed42ac,2024-02-18_20h15.45.348,kallum_motion_pilot,2023.2.2,Win32,39.95046143,5f95155d7ae37e0009ed42ac,65d2b6c8f2eece985d8e374c,65d2b985d0ce9e3d3e18c4e2,0.1756,0.1757,0,89,89,23,1,fourthree,,,,,,,,,,,,,,,,,,,,,,,,,,,,,,,,,,,,,,,,,,,,,,,,,,,,,,,,,,,,,,,,,,,,,,,,,,,,,,,,,,,,,,,,,,,,,,,,,,,,,,,,,,,,,,,,,,,,,,,,,,,,,,,,,,,,,,,,,
,,5f95155d7ae37e0009ed42ac,2024-02-18_20h15.45.348,kallum_motion_pilot,2023.2.2,Win32,39.95046143,5f95155d7ae37e0009ed42ac,65d2b6c8f2eece985d8e374c,65d2b985d0ce9e3d3e18c4e2,0.1761,0.1764,0,90,90,29,1,threefour,,,,,,,,,,,,,,,,,,,,,,,,,,,,,,,,,,,,,,,,,,,,,,,,,,,,,,,,,,,,,,,,,,,,,,,,,,,,,,,,,,,,,,,,,,,,,,,,,,,,,,,,,,,,,,,,,,,,,,,,,,,,,,,,,,,,,,,,,
,,5f95155d7ae37e0009ed42ac,2024-02-18_20h15.45.348,kallum_motion_pilot,2023.2.2,Win32,39.95046143,5f95155d7ae37e0009ed42ac,65d2b6c8f2eece985d8e374c,65d2b985d0ce9e3d3e18c4e2,0.1767,0.1768,0,91,91,91,1,sixeight,,,,,,,,,,,,,,,,,,,,,,,,,,,,,,,,,,,,,,,,,,,,,,,,,,,,,,,,,,,,,,,,,,,,,,,,,,,,,,,,,,,,,,,,,,,,,,,,,,,,,,,,,,,,,,,,,,,,,,,,,,,,,,,,,,,,,,,,,
,,5f95155d7ae37e0009ed42ac,2024-02-18_20h15.45.348,kallum_motion_pilot,2023.2.2,Win32,39.95046143,5f95155d7ae37e0009ed42ac,65d2b6c8f2eece985d8e374c,65d2b985d0ce9e3d3e18c4e2,0.1771,0.1773,0,92,92,160,1,fivesix,,,,,,,,,,,,,,,,,,,,,,,,,,,,,,,,,,,,,,,,,,,,,,,,,,,,,,,,,,,,,,,,,,,,,,,,,,,,,,,,,,,,,,,,,,,,,,,,,,,,,,,,,,,,,,,,,,,,,,,,,,,,,,,,,,,,,,,,,
,,5f95155d7ae37e0009ed42ac,2024-02-18_20h15.45.348,kallum_motion_pilot,2023.2.2,Win32,39.95046143,5f95155d7ae37e0009ed42ac,65d2b6c8f2eece985d8e374c,65d2b985d0ce9e3d3e18c4e2,0.1778,0.178,0,93,93,9,1,onethree,,,,,,,,,,,,,,,,,,,,,,,,,,,,,,,,,,,,,,,,,,,,,,,,,,,,,,,,,,,,,,,,,,,,,,,,,,,,,,,,,,,,,,,,,,,,,,,,,,,,,,,,,,,,,,,,,,,,,,,,,,,,,,,,,,,,,,,,,
,,5f95155d7ae37e0009ed42ac,2024-02-18_20h15.45.348,kallum_motion_pilot,2023.2.2,Win32,39.95046143,5f95155d7ae37e0009ed42ac,65d2b6c8f2eece985d8e374c,65d2b985d0ce9e3d3e18c4e2,0.1782,0.1785,0,94,94,108,1,sevenfive,,,,,,,,,,,,,,,,,,,,,,,,,,,,,,,,,,,,,,,,,,,,,,,,,,,,,,,,,,,,,,,,,,,,,,,,,,,,,,,,,,,,,,,,,,,,,,,,,,,,,,,,,,,,,,,,,,,,,,,,,,,,,,,,,,,,,,,,,
,,5f95155d7ae37e0009ed42ac,2024-02-18_20h15.45.348,kallum_motion_pilot,2023.2.2,Win32,39.95046143,5f95155d7ae37e0009ed42ac,65d2b6c8f2eece985d8e374c,65d2b985d0ce9e3d3e18c4e2,0.1787,0.179,0,95,95,81,1,fiveseven,,,,,,,,,,,,,,,,,,,,,,,,,,,,,,,,,,,,,,,,,,,,,,,,,,,,,,,,,,,,,,,,,,,,,,,,,,,,,,,,,,,,,,,,,,,,,,,,,,,,,,,,,,,,,,,,,,,,,,,,,,,,,,,,,,,,,,,,,
,,5f95155d7ae37e0009ed42ac,2024-02-18_20h15.45.348,kallum_motion_pilot,2023.2.2,Win32,39.95046143,5f95155d7ae37e0009ed42ac,65d2b6c8f2eece985d8e374c,65d2b985d0ce9e3d3e18c4e2,0.1792,0.1794,0,96,96,87,1,eightseven,,,,,,,,,,,,,,,,,,,,,,,,,,,,,,,,,,,,,,,,,,,,,,,,,,,,,,,,,,,,,,,,,,,,,,,,,,,,,,,,,,,,,,,,,,,,,,,,,,,,,,,,,,,,,,,,,,,,,,,,,,,,,,,,,,,,,,,,,
,,5f95155d7ae37e0009ed42ac,2024-02-18_20h15.45.348,kallum_motion_pilot,2023.2.2,Win32,39.95046143,5f95155d7ae37e0009ed42ac,65d2b6c8f2eece985d8e374c,65d2b985d0ce9e3d3e18c4e2,0.1798,0.18,0,97,97,66,1,twoone,,,,,,,,,,,,,,,,,,,,,,,,,,,,,,,,,,,,,,,,,,,,,,,,,,,,,,,,,,,,,,,,,,,,,,,,,,,,,,,,,,,,,,,,,,,,,,,,,,,,,,,,,,,,,,,,,,,,,,,,,,,,,,,,,,,,,,,,,
,,5f95155d7ae37e0009ed42ac,2024-02-18_20h15.45.348,kallum_motion_pilot,2023.2.2,Win32,39.95046143,5f95155d7ae37e0009ed42ac,65d2b6c8f2eece985d8e374c,65d2b985d0ce9e3d3e18c4e2,0.1802,0.1804,0,98,98,139,1,sixeight,,,,,,,,,,,,,,,,,,,,,,,,,,,,,,,,,,,,,,,,,,,,,,,,,,,,,,,,,,,,,,,,,,,,,,,,,,,,,,,,,,,,,,,,,,,,,,,,,,,,,,,,,,,,,,,,,,,,,,,,,,,,,,,,,,,,,,,,,
,,5f95155d7ae37e0009ed42ac,2024-02-18_20h15.45.348,kallum_motion_pilot,2023.2.2,Win32,39.95046143,5f95155d7ae37e0009ed42ac,65d2b6c8f2eece985d8e374c,65d2b985d0ce9e3d3e18c4e2,0.1808,0.1809,0,99,99,117,1,seveneight,,,,,,,,,,,,,,,,,,,,,,,,,,,,,,,,,,,,,,,,,,,,,,,,,,,,,,,,,,,,,,,,,,,,,,,,,,,,,,,,,,,,,,,,,,,,,,,,,,,,,,,,,,,,,,,,,,,,,,,,,,,,,,,,,,,,,,,,,
,,5f95155d7ae37e0009ed42ac,2024-02-18_20h15.45.348,kallum_motion_pilot,2023.2.2,Win32,39.95046143,5f95155d7ae37e0009ed42ac,65d2b6c8f2eece985d8e374c,65d2b985d0ce9e3d3e18c4e2,0.1813,0.1814,0,100,100,126,1,eightsix,,,,,,,,,,,,,,,,,,,,,,,,,,,,,,,,,,,,,,,,,,,,,,,,,,,,,,,,,,,,,,,,,,,,,,,,,,,,,,,,,,,,,,,,,,,,,,,,,,,,,,,,,,,,,,,,,,,,,,,,,,,,,,,,,,,,,,,,,
,,5f95155d7ae37e0009ed42ac,2024-02-18_20h15.45.348,kallum_motion_pilot,2023.2.2,Win32,39.95046143,5f95155d7ae37e0009ed42ac,65d2b6c8f2eece985d8e374c,65d2b985d0ce9e3d3e18c4e2,0.1817,0.1819,0,101,101,150,1,eightsix,,,,,,,,,,,,,,,,,,,,,,,,,,,,,,,,,,,,,,,,,,,,,,,,,,,,,,,,,,,,,,,,,,,,,,,,,,,,,,,,,,,,,,,,,,,,,,,,,,,,,,,,,,,,,,,,,,,,,,,,,,,,,,,,,,,,,,,,,
,,5f95155d7ae37e0009ed42ac,2024-02-18_20h15.45.348,kallum_motion_pilot,2023.2.2,Win32,39.95046143,5f95155d7ae37e0009ed42ac,65d2b6c8f2eece985d8e374c,65d2b985d0ce9e3d3e18c4e2,0.1822,0.1824,0,102,102,123,1,sixeight,,,,,,,,,,,,,,,,,,,,,,,,,,,,,,,,,,,,,,,,,,,,,,,,,,,,,,,,,,,,,,,,,,,,,,,,,,,,,,,,,,,,,,,,,,,,,,,,,,,,,,,,,,,,,,,,,,,,,,,,,,,,,,,,,,,,,,,,,
,,5f95155d7ae37e0009ed42ac,2024-02-18_20h15.45.348,kallum_motion_pilot,2023.2.2,Win32,39.95046143,5f95155d7ae37e0009ed42ac,65d2b6c8f2eece985d8e374c,65d2b985d0ce9e3d3e18c4e2,0.1827,0.1828,0,103,103,100,1,sevenfive,,,,,,,,,,,,,,,,,,,,,,,,,,,,,,,,,,,,,,,,,,,,,,,,,,,,,,,,,,,,,,,,,,,,,,,,,,,,,,,,,,,,,,,,,,,,,,,,,,,,,,,,,,,,,,,,,,,,,,,,,,,,,,,,,,,,,,,,,
,,5f95155d7ae37e0009ed42ac,2024-02-18_20h15.45.348,kallum_motion_pilot,2023.2.2,Win32,39.95046143,5f95155d7ae37e0009ed42ac,65d2b6c8f2eece985d8e374c,65d2b985d0ce9e3d3e18c4e2,0.1832,0.1833,0,104,104,155,1,sixeight,,,,,,,,,,,,,,,,,,,,,,,,,,,,,,,,,,,,,,,,,,,,,,,,,,,,,,,,,,,,,,,,,,,,,,,,,,,,,,,,,,,,,,,,,,,,,,,,,,,,,,,,,,,,,,,,,,,,,,,,,,,,,,,,,,,,,,,,,
,,5f95155d7ae37e0009ed42ac,2024-02-18_20h15.45.348,kallum_motion_pilot,2023.2.2,Win32,39.95046143,5f95155d7ae37e0009ed42ac,65d2b6c8f2eece985d8e374c,65d2b985d0ce9e3d3e18c4e2,0.1836,0.1839,0,105,105,146,1,sixfive,,,,,,,,,,,,,,,,,,,,,,,,,,,,,,,,,,,,,,,,,,,,,,,,,,,,,,,,,,,,,,,,,,,,,,,,,,,,,,,,,,,,,,,,,,,,,,,,,,,,,,,,,,,,,,,,,,,,,,,,,,,,,,,,,,,,,,,,,
,,5f95155d7ae37e0009ed42ac,2024-02-18_20h15.45.348,kallum_motion_pilot,2023.2.2,Win32,39.95046143,5f95155d7ae37e0009ed42ac,65d2b6c8f2eece985d8e374c,65d2b985d0ce9e3d3e18c4e2,0.1842,0.1844,0,106,106,88,1,fivesix,,,,,,,,,,,,,,,,,,,,,,,,,,,,,,,,,,,,,,,,,,,,,,,,,,,,,,,,,,,,,,,,,,,,,,,,,,,,,,,,,,,,,,,,,,,,,,,,,,,,,,,,,,,,,,,,,,,,,,,,,,,,,,,,,,,,,,,,,
,,5f95155d7ae37e0009ed42ac,2024-02-18_20h15.45.348,kallum_motion_pilot,2023.2.2,Win32,39.95046143,5f95155d7ae37e0009ed42ac,65d2b6c8f2eece985d8e374c,65d2b985d0ce9e3d3e18c4e2,0.1846,0.1848,0,107,107,61,1,threefour,,,,,,,,,,,,,,,,,,,,,,,,,,,,,,,,,,,,,,,,,,,,,,,,,,,,,,,,,,,,,,,,,,,,,,,,,,,,,,,,,,,,,,,,,,,,,,,,,,,,,,,,,,,,,,,,,,,,,,,,,,,,,,,,,,,,,,,,,
,,5f95155d7ae37e0009ed42ac,2024-02-18_20h15.45.348,kallum_motion_pilot,2023.2.2,Win32,39.95046143,5f95155d7ae37e0009ed42ac,65d2b6c8f2eece985d8e374c,65d2b985d0ce9e3d3e18c4e2,0.1851,0.1855,0,108,108,2,1,twoone,,,,,,,,,,,,,,,,,,,,,,,,,,,,,,,,,,,,,,,,,,,,,,,,,,,,,,,,,,,,,,,,,,,,,,,,,,,,,,,,,,,,,,,,,,,,,,,,,,,,,,,,,,,,,,,,,,,,,,,,,,,,,,,,,,,,,,,,,
,,5f95155d7ae37e0009ed42ac,2024-02-18_20h15.45.348,kallum_motion_pilot,2023.2.2,Win32,39.95046143,5f95155d7ae37e0009ed42ac,65d2b6c8f2eece985d8e374c,65d2b985d0ce9e3d3e18c4e2,0.1861,0.1864,0,109,109,97,1,fiveseven,,,,,,,,,,,,,,,,,,,,,,,,,,,,,,,,,,,,,,,,,,,,,,,,,,,,,,,,,,,,,,,,,,,,,,,,,,,,,,,,,,,,,,,,,,,,,,,,,,,,,,,,,,,,,,,,,,,,,,,,,,,,,,,,,,,,,,,,,
,,5f95155d7ae37e0009ed42ac,2024-02-18_20h15.45.348,kallum_motion_pilot,2023.2.2,Win32,39.95046143,5f95155d7ae37e0009ed42ac,65d2b6c8f2eece985d8e374c,65d2b985d0ce9e3d3e18c4e2,0.1869,0.1872,0,110,110,149,1,seveneight,,,,,,,,,,,,,,,,,,,,,,,,,,,,,,,,,,,,,,,,,,,,,,,,,,,,,,,,,,,,,,,,,,,,,,,,,,,,,,,,,,,,,,,,,,,,,,,,,,,,,,,,,,,,,,,,,,,,,,,,,,,,,,,,,,,,,,,,,
,,5f95155d7ae37e0009ed42ac,2024-02-18_20h15.45.348,kallum_motion_pilot,2023.2.2,Win32,39.95046143,5f95155d7ae37e0009ed42ac,65d2b6c8f2eece985d8e374c,65d2b985d0ce9e3d3e18c4e2,0.1877,0.188,0,111,111,141,1,seveneight,,,,,,,,,,,,,,,,,,,,,,,,,,,,,,,,,,,,,,,,,,,,,,,,,,,,,,,,,,,,,,,,,,,,,,,,,,,,,,,,,,,,,,,,,,,,,,,,,,,,,,,,,,,,,,,,,,,,,,,,,,,,,,,,,,,,,,,,,
,,5f95155d7ae37e0009ed42ac,2024-02-18_20h15.45.348,kallum_motion_pilot,2023.2.2,Win32,39.95046143,5f95155d7ae37e0009ed42ac,65d2b6c8f2eece985d8e374c,65d2b985d0ce9e3d3e18c4e2,0.1884,0.1885,0,112,112,51,1,twofour,,,,,,,,,,,,,,,,,,,,,,,,,,,,,,,,,,,,,,,,,,,,,,,,,,,,,,,,,,,,,,,,,,,,,,,,,,,,,,,,,,,,,,,,,,,,,,,,,,,,,,,,,,,,,,,,,,,,,,,,,,,,,,,,,,,,,,,,,
,,5f95155d7ae37e0009ed42ac,2024-02-18_20h15.45.348,kallum_motion_pilot,2023.2.2,Win32,39.95046143,5f95155d7ae37e0009ed42ac,65d2b6c8f2eece985d8e374c,65d2b985d0ce9e3d3e18c4e2,0.1889,0.1891,0,113,113,14,1,fourtwo,,,,,,,,,,,,,,,,,,,,,,,,,,,,,,,,,,,,,,,,,,,,,,,,,,,,,,,,,,,,,,,,,,,,,,,,,,,,,,,,,,,,,,,,,,,,,,,,,,,,,,,,,,,,,,,,,,,,,,,,,,,,,,,,,,,,,,,,,
,,5f95155d7ae37e0009ed42ac,2024-02-18_20h15.45.348,kallum_motion_pilot,2023.2.2,Win32,39.95046143,5f95155d7ae37e0009ed42ac,65d2b6c8f2eece985d8e374c,65d2b985d0ce9e3d3e18c4e2,0.1895,0.1897,0,114,114,37,1,threefour,,,,,,,,,,,,,,,,,,,,,,,,,,,,,,,,,,,,,,,,,,,,,,,,,,,,,,,,,,,,,,,,,,,,,,,,,,,,,,,,,,,,,,,,,,,,,,,,,,,,,,,,,,,,,,,,,,,,,,,,,,,,,,,,,,,,,,,,,
,,5f95155d7ae37e0009ed42ac,2024-02-18_20h15.45.348,kallum_motion_pilot,2023.2.2,Win32,39.95046143,5f95155d7ae37e0009ed42ac,65d2b6c8f2eece985d8e374c,65d2b985d0ce9e3d3e18c4e2,0.19,0.1902,0,115,115,96,1,fivesix,,,,,,,,,,,,,,,,,,,,,,,,,,,,,,,,,,,,,,,,,,,,,,,,,,,,,,,,,,,,,,,,,,,,,,,,,,,,,,,,,,,,,,,,,,,,,,,,,,,,,,,,,,,,,,,,,,,,,,,,,,,,,,,,,,,,,,,,,
,,5f95155d7ae37e0009ed42ac,2024-02-18_20h15.45.348,kallum_motion_pilot,2023.2.2,Win32,39.95046143,5f95155d7ae37e0009ed42ac,65d2b6c8f2eece985d8e374c,65d2b985d0ce9e3d3e18c4e2,0.1904,0.1906,0,116,116,40,1,onetwo,,,,,,,,,,,,,,,,,,,,,,,,,,,,,,,,,,,,,,,,,,,,,,,,,,,,,,,,,,,,,,,,,,,,,,,,,,,,,,,,,,,,,,,,,,,,,,,,,,,,,,,,,,,,,,,,,,,,,,,,,,,,,,,,,,,,,,,,,
,,5f95155d7ae37e0009ed42ac,2024-02-18_20h15.45.348,kallum_motion_pilot,2023.2.2,Win32,39.95046143,5f95155d7ae37e0009ed42ac,65d2b6c8f2eece985d8e374c,65d2b985d0ce9e3d3e18c4e2,0.1909,0.191,0,117,117,122,1,sixfive,,,,,,,,,,,,,,,,,,,,,,,,,,,,,,,,,,,,,,,,,,,,,,,,,,,,,,,,,,,,,,,,,,,,,,,,,,,,,,,,,,,,,,,,,,,,,,,,,,,,,,,,,,,,,,,,,,,,,,,,,,,,,,,,,,,,,,,,,
,,5f95155d7ae37e0009ed42ac,2024-02-18_20h15.45.348,kallum_motion_pilot,2023.2.2,Win32,39.95046143,5f95155d7ae37e0009ed42ac,65d2b6c8f2eece985d8e374c,65d2b985d0ce9e3d3e18c4e2,0.1914,0.1916,0,118,118,110,1,eightsix,,,,,,,,,,,,,,,,,,,,,,,,,,,,,,,,,,,,,,,,,,,,,,,,,,,,,,,,,,,,,,,,,,,,,,,,,,,,,,,,,,,,,,,,,,,,,,,,,,,,,,,,,,,,,,,,,,,,,,,,,,,,,,,,,,,,,,,,,
,,5f95155d7ae37e0009ed42ac,2024-02-18_20h15.45.348,kallum_motion_pilot,2023.2.2,Win32,39.95046143,5f95155d7ae37e0009ed42ac,65d2b6c8f2eece985d8e374c,65d2b985d0ce9e3d3e18c4e2,0.1919,0.192,0,119,119,104,1,fivesix,,,,,,,,,,,,,,,,,,,,,,,,,,,,,,,,,,,,,,,,,,,,,,,,,,,,,,,,,,,,,,,,,,,,,,,,,,,,,,,,,,,,,,,,,,,,,,,,,,,,,,,,,,,,,,,,,,,,,,,,,,,,,,,,,,,,,,,,,
,,5f95155d7ae37e0009ed42ac,2024-02-18_20h15.45.348,kallum_motion_pilot,2023.2.2,Win32,39.95046143,5f95155d7ae37e0009ed42ac,65d2b6c8f2eece985d8e374c,65d2b985d0ce9e3d3e18c4e2,0.1923,0.1924,0,120,120,45,1,threefour,,,,,,,,,,,,,,,,,,,,,,,,,,,,,,,,,,,,,,,,,,,,,,,,,,,,,,,,,,,,,,,,,,,,,,,,,,,,,,,,,,,,,,,,,,,,,,,,,,,,,,,,,,,,,,,,,,,,,,,,,,,,,,,,,,,,,,,,,
,,5f95155d7ae37e0009ed42ac,2024-02-18_20h15.45.348,kallum_motion_pilot,2023.2.2,Win32,39.95046143,5f95155d7ae37e0009ed42ac,65d2b6c8f2eece985d8e374c,65d2b985d0ce9e3d3e18c4e2,0.1927,0.1929,0,121,121,52,1,threeone,,,,,,,,,,,,,,,,,,,,,,,,,,,,,,,,,,,,,,,,,,,,,,,,,,,,,,,,,,,,,,,,,,,,,,,,,,,,,,,,,,,,,,,,,,,,,,,,,,,,,,,,,,,,,,,,,,,,,,,,,,,,,,,,,,,,,,,,,
,,5f95155d7ae37e0009ed42ac,2024-02-18_20h15.45.348,kallum_motion_pilot,2023.2.2,Win32,39.95046143,5f95155d7ae37e0009ed42ac,65d2b6c8f2eece985d8e374c,65d2b985d0ce9e3d3e18c4e2,0.1932,0.1933,0,122,122,35,1,twofour,,,,,,,,,,,,,,,,,,,,,,,,,,,,,,,,,,,,,,,,,,,,,,,,,,,,,,,,,,,,,,,,,,,,,,,,,,,,,,,,,,,,,,,,,,,,,,,,,,,,,,,,,,,,,,,,,,,,,,,,,,,,,,,,,,,,,,,,,
,,5f95155d7ae37e0009ed42ac,2024-02-18_20h15.45.348,kallum_motion_pilot,2023.2.2,Win32,39.95046143,5f95155d7ae37e0009ed42ac,65d2b6c8f2eece985d8e374c,65d2b985d0ce9e3d3e18c4e2,0.1937,0.1939,0,123,123,43,1,twofour,,,,,,,,,,,,,,,,,,,,,,,,,,,,,,,,,,,,,,,,,,,,,,,,,,,,,,,,,,,,,,,,,,,,,,,,,,,,,,,,,,,,,,,,,,,,,,,,,,,,,,,,,,,,,,,,,,,,,,,,,,,,,,,,,,,,,,,,,
,,5f95155d7ae37e0009ed42ac,2024-02-18_20h15.45.348,kallum_motion_pilot,2023.2.2,Win32,39.95046143,5f95155d7ae37e0009ed42ac,65d2b6c8f2eece985d8e374c,65d2b985d0ce9e3d3e18c4e2,0.1942,0.1943,0,124,124,92,1,sevenfive,,,,,,,,,,,,,,,,,,,,,,,,,,,,,,,,,,,,,,,,,,,,,,,,,,,,,,,,,,,,,,,,,,,,,,,,,,,,,,,,,,,,,,,,,,,,,,,,,,,,,,,,,,,,,,,,,,,,,,,,,,,,,,,,,,,,,,,,,
,,5f95155d7ae37e0009ed42ac,2024-02-18_20h15.45.348,kallum_motion_pilot,2023.2.2,Win32,39.95046143,5f95155d7ae37e0009ed42ac,65d2b6c8f2eece985d8e374c,65d2b985d0ce9e3d3e18c4e2,0.1946,0.1947,0,125,125,158,1,eightsix,,,,,,,,,,,,,,,,,,,,,,,,,,,,,,,,,,,,,,,,,,,,,,,,,,,,,,,,,,,,,,,,,,,,,,,,,,,,,,,,,,,,,,,,,,,,,,,,,,,,,,,,,,,,,,,,,,,,,,,,,,,,,,,,,,,,,,,,,
,,5f95155d7ae37e0009ed42ac,2024-02-18_20h15.45.348,kallum_motion_pilot,2023.2.2,Win32,39.95046143,5f95155d7ae37e0009ed42ac,65d2b6c8f2eece985d8e374c,65d2b985d0ce9e3d3e18c4e2,0.1951,0.1952,0,126,126,79,1,eightseven,,,,,,,,,,,,,,,,,,,,,,,,,,,,,,,,,,,,,,,,,,,,,,,,,,,,,,,,,,,,,,,,,,,,,,,,,,,,,,,,,,,,,,,,,,,,,,,,,,,,,,,,,,,,,,,,,,,,,,,,,,,,,,,,,,,,,,,,,
,,5f95155d7ae37e0009ed42ac,2024-02-18_20h15.45.348,kallum_motion_pilot,2023.2.2,Win32,39.95046143,5f95155d7ae37e0009ed42ac,65d2b6c8f2eece985d8e374c,65d2b985d0ce9e3d3e18c4e2,0.1955,0.1957,0,127,127,62,1,fourtwo,,,,,,,,,,,,,,,,,,,,,,,,,,,,,,,,,,,,,,,,,,,,,,,,,,,,,,,,,,,,,,,,,,,,,,,,,,,,,,,,,,,,,,,,,,,,,,,,,,,,,,,,,,,,,,,,,,,,,,,,,,,,,,,,,,,,,,,,,
,,5f95155d7ae37e0009ed42ac,2024-02-18_20h15.45.348,kallum_motion_pilot,2023.2.2,Win32,39.95046143,5f95155d7ae37e0009ed42ac,65d2b6c8f2eece985d8e374c,65d2b985d0ce9e3d3e18c4e2,0.1959,0.1961,0,128,128,148,1,sevenfive,,,,,,,,,,,,,,,,,,,,,,,,,,,,,,,,,,,,,,,,,,,,,,,,,,,,,,,,,,,,,,,,,,,,,,,,,,,,,,,,,,,,,,,,,,,,,,,,,,,,,,,,,,,,,,,,,,,,,,,,,,,,,,,,,,,,,,,,,
,,5f95155d7ae37e0009ed42ac,2024-02-18_20h15.45.348,kallum_motion_pilot,2023.2.2,Win32,39.95046143,5f95155d7ae37e0009ed42ac,65d2b6c8f2eece985d8e374c,65d2b985d0ce9e3d3e18c4e2,0.1966,0.1969,0,129,129,25,1,onethree,,,,,,,,,,,,,,,,,,,,,,,,,,,,,,,,,,,,,,,,,,,,,,,,,,,,,,,,,,,,,,,,,,,,,,,,,,,,,,,,,,,,,,,,,,,,,,,,,,,,,,,,,,,,,,,,,,,,,,,,,,,,,,,,,,,,,,,,,
,,5f95155d7ae37e0009ed42ac,2024-02-18_20h15.45.348,kallum_motion_pilot,2023.2.2,Win32,39.95046143,5f95155d7ae37e0009ed42ac,65d2b6c8f2eece985d8e374c,65d2b985d0ce9e3d3e18c4e2,0.1972,0.1974,0,130,130,156,1,sevenfive,,,,,,,,,,,,,,,,,,,,,,,,,,,,,,,,,,,,,,,,,,,,,,,,,,,,,,,,,,,,,,,,,,,,,,,,,,,,,,,,,,,,,,,,,,,,,,,,,,,,,,,,,,,,,,,,,,,,,,,,,,,,,,,,,,,,,,,,,
,,5f95155d7ae37e0009ed42ac,2024-02-18_20h15.45.348,kallum_motion_pilot,2023.2.2,Win32,39.95046143,5f95155d7ae37e0009ed42ac,65d2b6c8f2eece985d8e374c,65d2b985d0ce9e3d3e18c4e2,0.1978,0.198,0,131,131,111,1,eightseven,,,,,,,,,,,,,,,,,,,,,,,,,,,,,,,,,,,,,,,,,,,,,,,,,,,,,,,,,,,,,,,,,,,,,,,,,,,,,,,,,,,,,,,,,,,,,,,,,,,,,,,,,,,,,,,,,,,,,,,,,,,,,,,,,,,,,,,,,
,,5f95155d7ae37e0009ed42ac,2024-02-18_20h15.45.348,kallum_motion_pilot,2023.2.2,Win32,39.95046143,5f95155d7ae37e0009ed42ac,65d2b6c8f2eece985d8e374c,65d2b985d0ce9e3d3e18c4e2,0.1984,0.1987,0,132,132,57,1,onethree,,,,,,,,,,,,,,,,,,,,,,,,,,,,,,,,,,,,,,,,,,,,,,,,,,,,,,,,,,,,,,,,,,,,,,,,,,,,,,,,,,,,,,,,,,,,,,,,,,,,,,,,,,,,,,,,,,,,,,,,,,,,,,,,,,,,,,,,,
,,5f95155d7ae37e0009ed42ac,2024-02-18_20h15.45.348,kallum_motion_pilot,2023.2.2,Win32,39.95046143,5f95155d7ae37e0009ed42ac,65d2b6c8f2eece985d8e374c,65d2b985d0ce9e3d3e18c4e2,0.1992,0.1994,0,133,133,82,1,sixfive,,,,,,,,,,,,,,,,,,,,,,,,,,,,,,,,,,,,,,,,,,,,,,,,,,,,,,,,,,,,,,,,,,,,,,,,,,,,,,,,,,,,,,,,,,,,,,,,,,,,,,,,,,,,,,,,,,,,,,,,,,,,,,,,,,,,,,,,,
,,5f95155d7ae37e0009ed42ac,2024-02-18_20h15.45.348,kallum_motion_pilot,2023.2.2,Win32,39.95046143,5f95155d7ae37e0009ed42ac,65d2b6c8f2eece985d8e374c,65d2b985d0ce9e3d3e18c4e2,0.1997,0.1999,0,134,134,130,1,sixfive,,,,,,,,,,,,,,,,,,,,,,,,,,,,,,,,,,,,,,,,,,,,,,,,,,,,,,,,,,,,,,,,,,,,,,,,,,,,,,,,,,,,,,,,,,,,,,,,,,,,,,,,,,,,,,,,,,,,,,,,,,,,,,,,,,,,,,,,,
,,5f95155d7ae37e0009ed42ac,2024-02-18_20h15.45.348,kallum_motion_pilot,2023.2.2,Win32,39.95046143,5f95155d7ae37e0009ed42ac,65d2b6c8f2eece985d8e374c,65d2b985d0ce9e3d3e18c4e2,0.2004,0.2007,0,135,135,63,1,fourthree,,,,,,,,,,,,,,,,,,,,,,,,,,,,,,,,,,,,,,,,,,,,,,,,,,,,,,,,,,,,,,,,,,,,,,,,,,,,,,,,,,,,,,,,,,,,,,,,,,,,,,,,,,,,,,,,,,,,,,,,,,,,,,,,,,,,,,,,,
,,5f95155d7ae37e0009ed42ac,2024-02-18_20h15.45.348,kallum_motion_pilot,2023.2.2,Win32,39.95046143,5f95155d7ae37e0009ed42ac,65d2b6c8f2eece985d8e374c,65d2b985d0ce9e3d3e18c4e2,0.2013,0.2016,0,136,136,31,1,fourthree,,,,,,,,,,,,,,,,,,,,,,,,,,,,,,,,,,,,,,,,,,,,,,,,,,,,,,,,,,,,,,,,,,,,,,,,,,,,,,,,,,,,,,,,,,,,,,,,,,,,,,,,,,,,,,,,,,,,,,,,,,,,,,,,,,,,,,,,,
,,5f95155d7ae37e0009ed42ac,2024-02-18_20h15.45.348,kallum_motion_pilot,2023.2.2,Win32,39.95046143,5f95155d7ae37e0009ed42ac,65d2b6c8f2eece985d8e374c,65d2b985d0ce9e3d3e18c4e2,0.2022,0.2025,0,137,137,7,1,fourthree,,,,,,,,,,,,,,,,,,,,,,,,,,,,,,,,,,,,,,,,,,,,,,,,,,,,,,,,,,,,,,,,,,,,,,,,,,,,,,,,,,,,,,,,,,,,,,,,,,,,,,,,,,,,,,,,,,,,,,,,,,,,,,,,,,,,,,,,,
,,5f95155d7ae37e0009ed42ac,2024-02-18_20h15.45.348,kallum_motion_pilot,2023.2.2,Win32,39.95046143,5f95155d7ae37e0009ed42ac,65d2b6c8f2eece985d8e374c,65d2b985d0ce9e3d3e18c4e2,0.2028,0.2033,0,138,138,71,1,fourthree,,,,,,,,,,,,,,,,,,,,,,,,,,,,,,,,,,,,,,,,,,,,,,,,,,,,,,,,,,,,,,,,,,,,,,,,,,,,,,,,,,,,,,,,,,,,,,,,,,,,,,,,,,,,,,,,,,,,,,,,,,,,,,,,,,,,,,,,,
,,5f95155d7ae37e0009ed42ac,2024-02-18_20h15.45.348,kallum_motion_pilot,2023.2.2,Win32,39.95046143,5f95155d7ae37e0009ed42ac,65d2b6c8f2eece985d8e374c,65d2b985d0ce9e3d3e18c4e2,0.2037,0.204,0,139,139,41,1,onethree,,,,,,,,,,,,,,,,,,,,,,,,,,,,,,,,,,,,,,,,,,,,,,,,,,,,,,,,,,,,,,,,,,,,,,,,,,,,,,,,,,,,,,,,,,,,,,,,,,,,,,,,,,,,,,,,,,,,,,,,,,,,,,,,,,,,,,,,,
,,5f95155d7ae37e0009ed42ac,2024-02-18_20h15.45.348,kallum_motion_pilot,2023.2.2,Win32,39.95046143,5f95155d7ae37e0009ed42ac,65d2b6c8f2eece985d8e374c,65d2b985d0ce9e3d3e18c4e2,0.2046,0.2048,0,140,140,39,1,fourthree,,,,,,,,,,,,,,,,,,,,,,,,,,,,,,,,,,,,,,,,,,,,,,,,,,,,,,,,,,,,,,,,,,,,,,,,,,,,,,,,,,,,,,,,,,,,,,,,,,,,,,,,,,,,,,,,,,,,,,,,,,,,,,,,,,,,,,,,,
,,5f95155d7ae37e0009ed42ac,2024-02-18_20h15.45.348,kallum_motion_pilot,2023.2.2,Win32,39.95046143,5f95155d7ae37e0009ed42ac,65d2b6c8f2eece985d8e374c,65d2b985d0ce9e3d3e18c4e2,0.2051,0.2053,0,141,141,18,1,twoone,,,,,,,,,,,,,,,,,,,,,,,,,,,,,,,,,,,,,,,,,,,,,,,,,,,,,,,,,,,,,,,,,,,,,,,,,,,,,,,,,,,,,,,,,,,,,,,,,,,,,,,,,,,,,,,,,,,,,,,,,,,,,,,,,,,,,,,,,
,,5f95155d7ae37e0009ed42ac,2024-02-18_20h15.45.348,kallum_motion_pilot,2023.2.2,Win32,39.95046143,5f95155d7ae37e0009ed42ac,65d2b6c8f2eece985d8e374c,65d2b985d0ce9e3d3e18c4e2,0.2059,0.2062,0,142,142,11,1,twofour,,,,,,,,,,,,,,,,,,,,,,,,,,,,,,,,,,,,,,,,,,,,,,,,,,,,,,,,,,,,,,,,,,,,,,,,,,,,,,,,,,,,,,,,,,,,,,,,,,,,,,,,,,,,,,,,,,,,,,,,,,,,,,,,,,,,,,,,,
,,5f95155d7ae37e0009ed42ac,2024-02-18_20h15.45.348,kallum_motion_pilot,2023.2.2,Win32,39.95046143,5f95155d7ae37e0009ed42ac,65d2b6c8f2eece985d8e374c,65d2b985d0ce9e3d3e18c4e2,0.2066,0.2068,0,143,143,135,1,eightseven,,,,,,,,,,,,,,,,,,,,,,,,,,,,,,,,,,,,,,,,,,,,,,,,,,,,,,,,,,,,,,,,,,,,,,,,,,,,,,,,,,,,,,,,,,,,,,,,,,,,,,,,,,,,,,,,,,,,,,,,,,,,,,,,,,,,,,,,,
,,5f95155d7ae37e0009ed42ac,2024-02-18_20h15.45.348,kallum_motion_pilot,2023.2.2,Win32,39.95046143,5f95155d7ae37e0009ed42ac,65d2b6c8f2eece985d8e374c,65d2b985d0ce9e3d3e18c4e2,0.2071,0.2073,0,144,144,153,1,fiveseven,,,,,,,,,,,,,,,,,,,,,,,,,,,,,,,,,,,,,,,,,,,,,,,,,,,,,,,,,,,,,,,,,,,,,,,,,,,,,,,,,,,,,,,,,,,,,,,,,,,,,,,,,,,,,,,,,,,,,,,,,,,,,,,,,,,,,,,,,
,,5f95155d7ae37e0009ed42ac,2024-02-18_20h15.45.348,kallum_motion_pilot,2023.2.2,Win32,39.95046143,5f95155d7ae37e0009ed42ac,65d2b6c8f2eece985d8e374c,65d2b985d0ce9e3d3e18c4e2,0.2077,0.2079,0,145,145,133,1,seveneight,,,,,,,,,,,,,,,,,,,,,,,,,,,,,,,,,,,,,,,,,,,,,,,,,,,,,,,,,,,,,,,,,,,,,,,,,,,,,,,,,,,,,,,,,,,,,,,,,,,,,,,,,,,,,,,,,,,,,,,,,,,,,,,,,,,,,,,,,
,,5f95155d7ae37e0009ed42ac,2024-02-18_20h15.45.348,kallum_motion_pilot,2023.2.2,Win32,39.95046143,5f95155d7ae37e0009ed42ac,65d2b6c8f2eece985d8e374c,65d2b985d0ce9e3d3e18c4e2,0.2082,0.2083,0,146,146,70,1,fourtwo,,,,,,,,,,,,,,,,,,,,,,,,,,,,,,,,,,,,,,,,,,,,,,,,,,,,,,,,,,,,,,,,,,,,,,,,,,,,,,,,,,,,,,,,,,,,,,,,,,,,,,,,,,,,,,,,,,,,,,,,,,,,,,,,,,,,,,,,,
,,5f95155d7ae37e0009ed42ac,2024-02-18_20h15.45.348,kallum_motion_pilot,2023.2.2,Win32,39.95046143,5f95155d7ae37e0009ed42ac,65d2b6c8f2eece985d8e374c,65d2b985d0ce9e3d3e18c4e2,0.2089,0.209,0,147,147,4,1,threeone,,,,,,,,,,,,,,,,,,,,,,,,,,,,,,,,,,,,,,,,,,,,,,,,,,,,,,,,,,,,,,,,,,,,,,,,,,,,,,,,,,,,,,,,,,,,,,,,,,,,,,,,,,,,,,,,,,,,,,,,,,,,,,,,,,,,,,,,,
,,5f95155d7ae37e0009ed42ac,2024-02-18_20h15.45.348,kallum_motion_pilot,2023.2.2,Win32,39.95046143,5f95155d7ae37e0009ed42ac,65d2b6c8f2eece985d8e374c,65d2b985d0ce9e3d3e18c4e2,0.2094,0.2095,0,148,148,86,1,eightsix,,,,,,,,,,,,,,,,,,,,,,,,,,,,,,,,,,,,,,,,,,,,,,,,,,,,,,,,,,,,,,,,,,,,,,,,,,,,,,,,,,,,,,,,,,,,,,,,,,,,,,,,,,,,,,,,,,,,,,,,,,,,,,,,,,,,,,,,,
,,5f95155d7ae37e0009ed42ac,2024-02-18_20h15.45.348,kallum_motion_pilot,2023.2.2,Win32,39.95046143,5f95155d7ae37e0009ed42ac,65d2b6c8f2eece985d8e374c,65d2b985d0ce9e3d3e18c4e2,0.2099,0.2102,0,149,149,12,1,threeone,,,,,,,,,,,,,,,,,,,,,,,,,,,,,,,,,,,,,,,,,,,,,,,,,,,,,,,,,,,,,,,,,,,,,,,,,,,,,,,,,,,,,,,,,,,,,,,,,,,,,,,,,,,,,,,,,,,,,,,,,,,,,,,,,,,,,,,,,
,,5f95155d7ae37e0009ed42ac,2024-02-18_20h15.45.348,kallum_motion_pilot,2023.2.2,Win32,39.95046143,5f95155d7ae37e0009ed42ac,65d2b6c8f2eece985d8e374c,65d2b985d0ce9e3d3e18c4e2,0.2105,0.2107,0,150,150,105,1,fiveseven,,,,,,,,,,,,,,,,,,,,,,,,,,,,,,,,,,,,,,,,,,,,,,,,,,,,,,,,,,,,,,,,,,,,,,,,,,,,,,,,,,,,,,,,,,,,,,,,,,,,,,,,,,,,,,,,,,,,,,,,,,,,,,,,,,,,,,,,,
,,5f95155d7ae37e0009ed42ac,2024-02-18_20h15.45.348,kallum_motion_pilot,2023.2.2,Win32,39.95046143,5f95155d7ae37e0009ed42ac,65d2b6c8f2eece985d8e374c,65d2b985d0ce9e3d3e18c4e2,0.211,0.2112,0,151,151,157,1,seveneight,,,,,,,,,,,,,,,,,,,,,,,,,,,,,,,,,,,,,,,,,,,,,,,,,,,,,,,,,,,,,,,,,,,,,,,,,,,,,,,,,,,,,,,,,,,,,,,,,,,,,,,,,,,,,,,,,,,,,,,,,,,,,,,,,,,,,,,,,
,,5f95155d7ae37e0009ed42ac,2024-02-18_20h15.45.348,kallum_motion_pilot,2023.2.2,Win32,39.95046143,5f95155d7ae37e0009ed42ac,65d2b6c8f2eece985d8e374c,65d2b985d0ce9e3d3e18c4e2,0.2115,0.2117,0,152,152,65,1,onethree,,,,,,,,,,,,,,,,,,,,,,,,,,,,,,,,,,,,,,,,,,,,,,,,,,,,,,,,,,,,,,,,,,,,,,,,,,,,,,,,,,,,,,,,,,,,,,,,,,,,,,,,,,,,,,,,,,,,,,,,,,,,,,,,,,,,,,,,,
,,5f95155d7ae37e0009ed42ac,2024-02-18_20h15.45.348,kallum_motion_pilot,2023.2.2,Win32,39.95046143,5f95155d7ae37e0009ed42ac,65d2b6c8f2eece985d8e374c,65d2b985d0ce9e3d3e18c4e2,0.212,0.2121,0,153,153,74,1,twoone,,,,,,,,,,,,,,,,,,,,,,,,,,,,,,,,,,,,,,,,,,,,,,,,,,,,,,,,,,,,,,,,,,,,,,,,,,,,,,,,,,,,,,,,,,,,,,,,,,,,,,,,,,,,,,,,,,,,,,,,,,,,,,,,,,,,,,,,,
,,5f95155d7ae37e0009ed42ac,2024-02-18_20h15.45.348,kallum_motion_pilot,2023.2.2,Win32,39.95046143,5f95155d7ae37e0009ed42ac,65d2b6c8f2eece985d8e374c,65d2b985d0ce9e3d3e18c4e2,0.2124,0.2126,0,154,154,147,1,sixeight,,,,,,,,,,,,,,,,,,,,,,,,,,,,,,,,,,,,,,,,,,,,,,,,,,,,,,,,,,,,,,,,,,,,,,,,,,,,,,,,,,,,,,,,,,,,,,,,,,,,,,,,,,,,,,,,,,,,,,,,,,,,,,,,,,,,,,,,,
,,5f95155d7ae37e0009ed42ac,2024-02-18_20h15.45.348,kallum_motion_pilot,2023.2.2,Win32,39.95046143,5f95155d7ae37e0009ed42ac,65d2b6c8f2eece985d8e374c,65d2b985d0ce9e3d3e18c4e2,0.2129,0.2131,0,155,155,54,1,fourtwo,,,,,,,,,,,,,,,,,,,,,,,,,,,,,,,,,,,,,,,,,,,,,,,,,,,,,,,,,,,,,,,,,,,,,,,,,,,,,,,,,,,,,,,,,,,,,,,,,,,,,,,,,,,,,,,,,,,,,,,,,,,,,,,,,,,,,,,,,
,,5f95155d7ae37e0009ed42ac,2024-02-18_20h15.45.348,kallum_motion_pilot,2023.2.2,Win32,39.95046143,5f95155d7ae37e0009ed42ac,65d2b6c8f2eece985d8e374c,65d2b985d0ce9e3d3e18c4e2,0.2133,0.2134,0,156,156,76,1,threeone,,,,,,,,,,,,,,,,,,,,,,,,,,,,,,,,,,,,,,,,,,,,,,,,,,,,,,,,,,,,,,,,,,,,,,,,,,,,,,,,,,,,,,,,,,,,,,,,,,,,,,,,,,,,,,,,,,,,,,,,,,,,,,,,,,,,,,,,,
,,5f95155d7ae37e0009ed42ac,2024-02-18_20h15.45.348,kallum_motion_pilot,2023.2.2,Win32,39.95046143,5f95155d7ae37e0009ed42ac,65d2b6c8f2eece985d8e374c,65d2b985d0ce9e3d3e18c4e2,0.2139,0.2142,0,157,157,36,1,threeone,,,,,,,,,,,,,,,,,,,,,,,,,,,,,,,,,,,,,,,,,,,,,,,,,,,,,,,,,,,,,,,,,,,,,,,,,,,,,,,,,,,,,,,,,,,,,,,,,,,,,,,,,,,,,,,,,,,,,,,,,,,,,,,,,,,,,,,,,
,,5f95155d7ae37e0009ed42ac,2024-02-18_20h15.45.348,kallum_motion_pilot,2023.2.2,Win32,39.95046143,5f95155d7ae37e0009ed42ac,65d2b6c8f2eece985d8e374c,65d2b985d0ce9e3d3e18c4e2,0.2145,0.2148,0,158,158,131,1,sixeight,,,,,,,,,,,,,,,,,,,,,,,,,,,,,,,,,,,,,,,,,,,,,,,,,,,,,,,,,,,,,,,,,,,,,,,,,,,,,,,,,,,,,,,,,,,,,,,,,,,,,,,,,,,,,,,,,,,,,,,,,,,,,,,,,,,,,,,,,
,,5f95155d7ae37e0009ed42ac,2024-02-18_20h15.45.348,kallum_motion_pilot,2023.2.2,Win32,39.95046143,5f95155d7ae37e0009ed42ac,65d2b6c8f2eece985d8e374c,65d2b985d0ce9e3d3e18c4e2,0.2152,0.2154,0,159,159,128,1,fivesix,,,,,,,,,,,,,,,,,,,,,,,,,,,,,,,,,,,,,,,,,,,,,,,,,,,,,,,,,,,,,,,,,,,,,,,,,,,,,,,,,,,,,,,,,,,,,,,,,,,,,,,,,,,,,,,,,,,,,,,,,,,,,,,,,,,,,,,,,
,,5f95155d7ae37e0009ed42ac,2024-02-18_20h15.45.348,kallum_motion_pilot,2023.2.2,Win32,39.95046143,5f95155d7ae37e0009ed42ac,65d2b6c8f2eece985d8e374c,65d2b985d0ce9e3d3e18c4e2,0.2159,0.216,0,160,160,114,1,sixfive,,,,,,,,,,,,,,,,,,,,,,,,,,,,,,,,,,,,,,,,,,,,,,,,,,,,,,,,,,,,,,,,,,,,,,,,,,,,,,,,,,,,,,,,,,,,,,,,,,,,,,,,,,,,,,,,,,,,,,,,,,,,,,,,,,,,,,,,,
,,5f95155d7ae37e0009ed42ac,2024-02-18_20h15.45.348,kallum_motion_pilot,2023.2.2,Win32,39.95046143,5f95155d7ae37e0009ed42ac,65d2b6c8f2eece985d8e374c,65d2b985d0ce9e3d3e18c4e2,0.2163,0.2165,0,161,161,28,1,threeone,,,,,,,,,,,,,,,,,,,,,,,,,,,,,,,,,,,,,,,,,,,,,,,,,,,,,,,,,,,,,,,,,,,,,,,,,,,,,,,,,,,,,,,,,,,,,,,,,,,,,,,,,,,,,,,,,,,,,,,,,,,,,,,,,,,,,,,,,
,,5f95155d7ae37e0009ed42ac,2024-02-18_20h15.45.348,kallum_motion_pilot,2023.2.2,Win32,39.95046143,5f95155d7ae37e0009ed42ac,65d2b6c8f2eece985d8e374c,65d2b985d0ce9e3d3e18c4e2,0.2168,0.217,1,0,162,113,1,fiveseven,,,,,,,,,,,,,,,,,,,,,,,,,,,,,,,,,,,,,,,,,,,,,,,,,,,,,,,,,,,,,,,,,,,,,,,,,,,,,,,,,,,,,,,,,,,,,,,,,,,,,,,,,,,,,,,,,,,,,,,,,,,,,,,,,,,,,,,,,
,,5f95155d7ae37e0009ed42ac,2024-02-18_20h15.45.348,kallum_motion_pilot,2023.2.2,Win32,39.95046143,5f95155d7ae37e0009ed42ac,65d2b6c8f2eece985d8e374c,65d2b985d0ce9e3d3e18c4e2,0.2173,0.2175,1,1,163,98,1,sixfive,,,,,,,,,,,,,,,,,,,,,,,,,,,,,,,,,,,,,,,,,,,,,,,,,,,,,,,,,,,,,,,,,,,,,,,,,,,,,,,,,,,,,,,,,,,,,,,,,,,,,,,,,,,,,,,,,,,,,,,,,,,,,,,,,,,,,,,,,
,,5f95155d7ae37e0009ed42ac,2024-02-18_20h15.45.348,kallum_motion_pilot,2023.2.2,Win32,39.95046143,5f95155d7ae37e0009ed42ac,65d2b6c8f2eece985d8e374c,65d2b985d0ce9e3d3e18c4e2,0.2178,0.2181,1,2,164,120,1,fivesix,,,,,,,,,,,,,,,,,,,,,,,,,,,,,,,,,,,,,,,,,,,,,,,,,,,,,,,,,,,,,,,,,,,,,,,,,,,,,,,,,,,,,,,,,,,,,,,,,,,,,,,,,,,,,,,,,,,,,,,,,,,,,,,,,,,,,,,,,
,,5f95155d7ae37e0009ed42ac,2024-02-18_20h15.45.348,kallum_motion_pilot,2023.2.2,Win32,39.95046143,5f95155d7ae37e0009ed42ac,65d2b6c8f2eece985d8e374c,65d2b985d0ce9e3d3e18c4e2,0.2183,0.2186,1,3,165,151,1,eightseven,,,,,,,,,,,,,,,,,,,,,,,,,,,,,,,,,,,,,,,,,,,,,,,,,,,,,,,,,,,,,,,,,,,,,,,,,,,,,,,,,,,,,,,,,,,,,,,,,,,,,,,,,,,,,,,,,,,,,,,,,,,,,,,,,,,,,,,,,
,,5f95155d7ae37e0009ed42ac,2024-02-18_20h15.45.348,kallum_motion_pilot,2023.2.2,Win32,39.95046143,5f95155d7ae37e0009ed42ac,65d2b6c8f2eece985d8e374c,65d2b985d0ce9e3d3e18c4e2,0.2189,0.219,1,4,166,22,1,fourtwo,,,,,,,,,,,,,,,,,,,,,,,,,,,,,,,,,,,,,,,,,,,,,,,,,,,,,,,,,,,,,,,,,,,,,,,,,,,,,,,,,,,,,,,,,,,,,,,,,,,,,,,,,,,,,,,,,,,,,,,,,,,,,,,,,,,,,,,,,
,,5f95155d7ae37e0009ed42ac,2024-02-18_20h15.45.348,kallum_motion_pilot,2023.2.2,Win32,39.95046143,5f95155d7ae37e0009ed42ac,65d2b6c8f2eece985d8e374c,65d2b985d0ce9e3d3e18c4e2,0.2193,0.2195,1,5,167,104,1,fivesix,,,,,,,,,,,,,,,,,,,,,,,,,,,,,,,,,,,,,,,,,,,,,,,,,,,,,,,,,,,,,,,,,,,,,,,,,,,,,,,,,,,,,,,,,,,,,,,,,,,,,,,,,,,,,,,,,,,,,,,,,,,,,,,,,,,,,,,,,
,,5f95155d7ae37e0009ed42ac,2024-02-18_20h15.45.348,kallum_motion_pilot,2023.2.2,Win32,39.95046143,5f95155d7ae37e0009ed42ac,65d2b6c8f2eece985d8e374c,65d2b985d0ce9e3d3e18c4e2,0.2198,0.22,1,6,168,127,1,eightseven,,,,,,,,,,,,,,,,,,,,,,,,,,,,,,,,,,,,,,,,,,,,,,,,,,,,,,,,,,,,,,,,,,,,,,,,,,,,,,,,,,,,,,,,,,,,,,,,,,,,,,,,,,,,,,,,,,,,,,,,,,,,,,,,,,,,,,,,,
,,5f95155d7ae37e0009ed42ac,2024-02-18_20h15.45.348,kallum_motion_pilot,2023.2.2,Win32,39.95046143,5f95155d7ae37e0009ed42ac,65d2b6c8f2eece985d8e374c,65d2b985d0ce9e3d3e18c4e2,0.2203,0.2205,1,7,169,128,1,fivesix,,,,,,,,,,,,,,,,,,,,,,,,,,,,,,,,,,,,,,,,,,,,,,,,,,,,,,,,,,,,,,,,,,,,,,,,,,,,,,,,,,,,,,,,,,,,,,,,,,,,,,,,,,,,,,,,,,,,,,,,,,,,,,,,,,,,,,,,,
,,5f95155d7ae37e0009ed42ac,2024-02-18_20h15.45.348,kallum_motion_pilot,2023.2.2,Win32,39.95046143,5f95155d7ae37e0009ed42ac,65d2b6c8f2eece985d8e374c,65d2b985d0ce9e3d3e18c4e2,0.2208,0.2212,1,8,170,87,1,eightseven,,,,,,,,,,,,,,,,,,,,,,,,,,,,,,,,,,,,,,,,,,,,,,,,,,,,,,,,,,,,,,,,,,,,,,,,,,,,,,,,,,,,,,,,,,,,,,,,,,,,,,,,,,,,,,,,,,,,,,,,,,,,,,,,,,,,,,,,,
,,5f95155d7ae37e0009ed42ac,2024-02-18_20h15.45.348,kallum_motion_pilot,2023.2.2,Win32,39.95046143,5f95155d7ae37e0009ed42ac,65d2b6c8f2eece985d8e374c,65d2b985d0ce9e3d3e18c4e2,0.2216,0.2218,1,9,171,147,1,sixeight,,,,,,,,,,,,,,,,,,,,,,,,,,,,,,,,,,,,,,,,,,,,,,,,,,,,,,,,,,,,,,,,,,,,,,,,,,,,,,,,,,,,,,,,,,,,,,,,,,,,,,,,,,,,,,,,,,,,,,,,,,,,,,,,,,,,,,,,,
,,5f95155d7ae37e0009ed42ac,2024-02-18_20h15.45.348,kallum_motion_pilot,2023.2.2,Win32,39.95046143,5f95155d7ae37e0009ed42ac,65d2b6c8f2eece985d8e374c,65d2b985d0ce9e3d3e18c4e2,0.2221,0.2223,1,10,172,115,1,sixeight,,,,,,,,,,,,,,,,,,,,,,,,,,,,,,,,,,,,,,,,,,,,,,,,,,,,,,,,,,,,,,,,,,,,,,,,,,,,,,,,,,,,,,,,,,,,,,,,,,,,,,,,,,,,,,,,,,,,,,,,,,,,,,,,,,,,,,,,,
,,5f95155d7ae37e0009ed42ac,2024-02-18_20h15.45.348,kallum_motion_pilot,2023.2.2,Win32,39.95046143,5f95155d7ae37e0009ed42ac,65d2b6c8f2eece985d8e374c,65d2b985d0ce9e3d3e18c4e2,0.2225,0.2229,1,11,173,114,1,sixfive,,,,,,,,,,,,,,,,,,,,,,,,,,,,,,,,,,,,,,,,,,,,,,,,,,,,,,,,,,,,,,,,,,,,,,,,,,,,,,,,,,,,,,,,,,,,,,,,,,,,,,,,,,,,,,,,,,,,,,,,,,,,,,,,,,,,,,,,,
,,5f95155d7ae37e0009ed42ac,2024-02-18_20h15.45.348,kallum_motion_pilot,2023.2.2,Win32,39.95046143,5f95155d7ae37e0009ed42ac,65d2b6c8f2eece985d8e374c,65d2b985d0ce9e3d3e18c4e2,0.2235,0.2237,1,12,174,36,1,threeone,,,,,,,,,,,,,,,,,,,,,,,,,,,,,,,,,,,,,,,,,,,,,,,,,,,,,,,,,,,,,,,,,,,,,,,,,,,,,,,,,,,,,,,,,,,,,,,,,,,,,,,,,,,,,,,,,,,,,,,,,,,,,,,,,,,,,,,,,
,,5f95155d7ae37e0009ed42ac,2024-02-18_20h15.45.348,kallum_motion_pilot,2023.2.2,Win32,39.95046143,5f95155d7ae37e0009ed42ac,65d2b6c8f2eece985d8e374c,65d2b985d0ce9e3d3e18c4e2,0.224,0.2242,1,13,175,105,1,fiveseven,,,,,,,,,,,,,,,,,,,,,,,,,,,,,,,,,,,,,,,,,,,,,,,,,,,,,,,,,,,,,,,,,,,,,,,,,,,,,,,,,,,,,,,,,,,,,,,,,,,,,,,,,,,,,,,,,,,,,,,,,,,,,,,,,,,,,,,,,
,,5f95155d7ae37e0009ed42ac,2024-02-18_20h15.45.348,kallum_motion_pilot,2023.2.2,Win32,39.95046143,5f95155d7ae37e0009ed42ac,65d2b6c8f2eece985d8e374c,65d2b985d0ce9e3d3e18c4e2,0.2246,0.2248,1,14,176,62,1,fourtwo,,,,,,,,,,,,,,,,,,,,,,,,,,,,,,,,,,,,,,,,,,,,,,,,,,,,,,,,,,,,,,,,,,,,,,,,,,,,,,,,,,,,,,,,,,,,,,,,,,,,,,,,,,,,,,,,,,,,,,,,,,,,,,,,,,,,,,,,,
,,5f95155d7ae37e0009ed42ac,2024-02-18_20h15.45.348,kallum_motion_pilot,2023.2.2,Win32,39.95046143,5f95155d7ae37e0009ed42ac,65d2b6c8f2eece985d8e374c,65d2b985d0ce9e3d3e18c4e2,0.2253,0.2255,1,15,177,24,1,onetwo,,,,,,,,,,,,,,,,,,,,,,,,,,,,,,,,,,,,,,,,,,,,,,,,,,,,,,,,,,,,,,,,,,,,,,,,,,,,,,,,,,,,,,,,,,,,,,,,,,,,,,,,,,,,,,,,,,,,,,,,,,,,,,,,,,,,,,,,,
,,5f95155d7ae37e0009ed42ac,2024-02-18_20h15.45.348,kallum_motion_pilot,2023.2.2,Win32,39.95046143,5f95155d7ae37e0009ed42ac,65d2b6c8f2eece985d8e374c,65d2b985d0ce9e3d3e18c4e2,0.2258,0.226,1,16,178,88,1,fivesix,,,,,,,,,,,,,,,,,,,,,,,,,,,,,,,,,,,,,,,,,,,,,,,,,,,,,,,,,,,,,,,,,,,,,,,,,,,,,,,,,,,,,,,,,,,,,,,,,,,,,,,,,,,,,,,,,,,,,,,,,,,,,,,,,,,,,,,,,
,,5f95155d7ae37e0009ed42ac,2024-02-18_20h15.45.348,kallum_motion_pilot,2023.2.2,Win32,39.95046143,5f95155d7ae37e0009ed42ac,65d2b6c8f2eece985d8e374c,65d2b985d0ce9e3d3e18c4e2,0.2264,0.2265,1,17,179,74,1,twoone,,,,,,,,,,,,,,,,,,,,,,,,,,,,,,,,,,,,,,,,,,,,,,,,,,,,,,,,,,,,,,,,,,,,,,,,,,,,,,,,,,,,,,,,,,,,,,,,,,,,,,,,,,,,,,,,,,,,,,,,,,,,,,,,,,,,,,,,,
,,5f95155d7ae37e0009ed42ac,2024-02-18_20h15.45.348,kallum_motion_pilot,2023.2.2,Win32,39.95046143,5f95155d7ae37e0009ed42ac,65d2b6c8f2eece985d8e374c,65d2b985d0ce9e3d3e18c4e2,0.2269,0.2271,1,18,180,45,1,threefour,,,,,,,,,,,,,,,,,,,,,,,,,,,,,,,,,,,,,,,,,,,,,,,,,,,,,,,,,,,,,,,,,,,,,,,,,,,,,,,,,,,,,,,,,,,,,,,,,,,,,,,,,,,,,,,,,,,,,,,,,,,,,,,,,,,,,,,,,
,,5f95155d7ae37e0009ed42ac,2024-02-18_20h15.45.348,kallum_motion_pilot,2023.2.2,Win32,39.95046143,5f95155d7ae37e0009ed42ac,65d2b6c8f2eece985d8e374c,65d2b985d0ce9e3d3e18c4e2,0.2274,0.2276,1,19,181,68,1,threeone,,,,,,,,,,,,,,,,,,,,,,,,,,,,,,,,,,,,,,,,,,,,,,,,,,,,,,,,,,,,,,,,,,,,,,,,,,,,,,,,,,,,,,,,,,,,,,,,,,,,,,,,,,,,,,,,,,,,,,,,,,,,,,,,,,,,,,,,,
,,5f95155d7ae37e0009ed42ac,2024-02-18_20h15.45.348,kallum_motion_pilot,2023.2.2,Win32,39.95046143,5f95155d7ae37e0009ed42ac,65d2b6c8f2eece985d8e374c,65d2b985d0ce9e3d3e18c4e2,0.2279,0.2282,1,20,182,94,1,eightsix,,,,,,,,,,,,,,,,,,,,,,,,,,,,,,,,,,,,,,,,,,,,,,,,,,,,,,,,,,,,,,,,,,,,,,,,,,,,,,,,,,,,,,,,,,,,,,,,,,,,,,,,,,,,,,,,,,,,,,,,,,,,,,,,,,,,,,,,,
,,5f95155d7ae37e0009ed42ac,2024-02-18_20h15.45.348,kallum_motion_pilot,2023.2.2,Win32,39.95046143,5f95155d7ae37e0009ed42ac,65d2b6c8f2eece985d8e374c,65d2b985d0ce9e3d3e18c4e2,0.2285,0.2287,1,21,183,28,1,threeone,,,,,,,,,,,,,,,,,,,,,,,,,,,,,,,,,,,,,,,,,,,,,,,,,,,,,,,,,,,,,,,,,,,,,,,,,,,,,,,,,,,,,,,,,,,,,,,,,,,,,,,,,,,,,,,,,,,,,,,,,,,,,,,,,,,,,,,,,
,,5f95155d7ae37e0009ed42ac,2024-02-18_20h15.45.348,kallum_motion_pilot,2023.2.2,Win32,39.95046143,5f95155d7ae37e0009ed42ac,65d2b6c8f2eece985d8e374c,65d2b985d0ce9e3d3e18c4e2,0.229,0.2292,1,22,184,109,1,seveneight,,,,,,,,,,,,,,,,,,,,,,,,,,,,,,,,,,,,,,,,,,,,,,,,,,,,,,,,,,,,,,,,,,,,,,,,,,,,,,,,,,,,,,,,,,,,,,,,,,,,,,,,,,,,,,,,,,,,,,,,,,,,,,,,,,,,,,,,,
,,5f95155d7ae37e0009ed42ac,2024-02-18_20h15.45.348,kallum_motion_pilot,2023.2.2,Win32,39.95046143,5f95155d7ae37e0009ed42ac,65d2b6c8f2eece985d8e374c,65d2b985d0ce9e3d3e18c4e2,0.2295,0.2297,1,23,185,137,1,fiveseven,,,,,,,,,,,,,,,,,,,,,,,,,,,,,,,,,,,,,,,,,,,,,,,,,,,,,,,,,,,,,,,,,,,,,,,,,,,,,,,,,,,,,,,,,,,,,,,,,,,,,,,,,,,,,,,,,,,,,,,,,,,,,,,,,,,,,,,,,
,,5f95155d7ae37e0009ed42ac,2024-02-18_20h15.45.348,kallum_motion_pilot,2023.2.2,Win32,39.95046143,5f95155d7ae37e0009ed42ac,65d2b6c8f2eece985d8e374c,65d2b985d0ce9e3d3e18c4e2,0.2299,0.2301,1,24,186,54,1,fourtwo,,,,,,,,,,,,,,,,,,,,,,,,,,,,,,,,,,,,,,,,,,,,,,,,,,,,,,,,,,,,,,,,,,,,,,,,,,,,,,,,,,,,,,,,,,,,,,,,,,,,,,,,,,,,,,,,,,,,,,,,,,,,,,,,,,,,,,,,,
,,5f95155d7ae37e0009ed42ac,2024-02-18_20h15.45.348,kallum_motion_pilot,2023.2.2,Win32,39.95046143,5f95155d7ae37e0009ed42ac,65d2b6c8f2eece985d8e374c,65d2b985d0ce9e3d3e18c4e2,0.2303,0.2305,1,25,187,71,1,fourthree,,,,,,,,,,,,,,,,,,,,,,,,,,,,,,,,,,,,,,,,,,,,,,,,,,,,,,,,,,,,,,,,,,,,,,,,,,,,,,,,,,,,,,,,,,,,,,,,,,,,,,,,,,,,,,,,,,,,,,,,,,,,,,,,,,,,,,,,,
,,5f95155d7ae37e0009ed42ac,2024-02-18_20h15.45.348,kallum_motion_pilot,2023.2.2,Win32,39.95046143,5f95155d7ae37e0009ed42ac,65d2b6c8f2eece985d8e374c,65d2b985d0ce9e3d3e18c4e2,0.2308,0.2309,1,26,188,110,1,eightsix,,,,,,,,,,,,,,,,,,,,,,,,,,,,,,,,,,,,,,,,,,,,,,,,,,,,,,,,,,,,,,,,,,,,,,,,,,,,,,,,,,,,,,,,,,,,,,,,,,,,,,,,,,,,,,,,,,,,,,,,,,,,,,,,,,,,,,,,,
,,5f95155d7ae37e0009ed42ac,2024-02-18_20h15.45.348,kallum_motion_pilot,2023.2.2,Win32,39.95046143,5f95155d7ae37e0009ed42ac,65d2b6c8f2eece985d8e374c,65d2b985d0ce9e3d3e18c4e2,0.2312,0.2314,1,27,189,153,1,fiveseven,,,,,,,,,,,,,,,,,,,,,,,,,,,,,,,,,,,,,,,,,,,,,,,,,,,,,,,,,,,,,,,,,,,,,,,,,,,,,,,,,,,,,,,,,,,,,,,,,,,,,,,,,,,,,,,,,,,,,,,,,,,,,,,,,,,,,,,,,
,,5f95155d7ae37e0009ed42ac,2024-02-18_20h15.45.348,kallum_motion_pilot,2023.2.2,Win32,39.95046143,5f95155d7ae37e0009ed42ac,65d2b6c8f2eece985d8e374c,65d2b985d0ce9e3d3e18c4e2,0.2316,0.2319,1,28,190,50,1,twoone,,,,,,,,,,,,,,,,,,,,,,,,,,,,,,,,,,,,,,,,,,,,,,,,,,,,,,,,,,,,,,,,,,,,,,,,,,,,,,,,,,,,,,,,,,,,,,,,,,,,,,,,,,,,,,,,,,,,,,,,,,,,,,,,,,,,,,,,,
,,5f95155d7ae37e0009ed42ac,2024-02-18_20h15.45.348,kallum_motion_pilot,2023.2.2,Win32,39.95046143,5f95155d7ae37e0009ed42ac,65d2b6c8f2eece985d8e374c,65d2b985d0ce9e3d3e18c4e2,0.2321,0.2323,1,29,191,118,1,eightsix,,,,,,,,,,,,,,,,,,,,,,,,,,,,,,,,,,,,,,,,,,,,,,,,,,,,,,,,,,,,,,,,,,,,,,,,,,,,,,,,,,,,,,,,,,,,,,,,,,,,,,,,,,,,,,,,,,,,,,,,,,,,,,,,,,,,,,,,,
,,5f95155d7ae37e0009ed42ac,2024-02-18_20h15.45.348,kallum_motion_pilot,2023.2.2,Win32,39.95046143,5f95155d7ae37e0009ed42ac,65d2b6c8f2eece985d8e374c,65d2b985d0ce9e3d3e18c4e2,0.2325,0.2328,1,30,192,76,1,threeone,,,,,,,,,,,,,,,,,,,,,,,,,,,,,,,,,,,,,,,,,,,,,,,,,,,,,,,,,,,,,,,,,,,,,,,,,,,,,,,,,,,,,,,,,,,,,,,,,,,,,,,,,,,,,,,,,,,,,,,,,,,,,,,,,,,,,,,,,
,,5f95155d7ae37e0009ed42ac,2024-02-18_20h15.45.348,kallum_motion_pilot,2023.2.2,Win32,39.95046143,5f95155d7ae37e0009ed42ac,65d2b6c8f2eece985d8e374c,65d2b985d0ce9e3d3e18c4e2,0.233,0.2332,1,31,193,64,1,onetwo,,,,,,,,,,,,,,,,,,,,,,,,,,,,,,,,,,,,,,,,,,,,,,,,,,,,,,,,,,,,,,,,,,,,,,,,,,,,,,,,,,,,,,,,,,,,,,,,,,,,,,,,,,,,,,,,,,,,,,,,,,,,,,,,,,,,,,,,,
,,5f95155d7ae37e0009ed42ac,2024-02-18_20h15.45.348,kallum_motion_pilot,2023.2.2,Win32,39.95046143,5f95155d7ae37e0009ed42ac,65d2b6c8f2eece985d8e374c,65d2b985d0ce9e3d3e18c4e2,0.2334,0.2336,1,32,194,48,1,onetwo,,,,,,,,,,,,,,,,,,,,,,,,,,,,,,,,,,,,,,,,,,,,,,,,,,,,,,,,,,,,,,,,,,,,,,,,,,,,,,,,,,,,,,,,,,,,,,,,,,,,,,,,,,,,,,,,,,,,,,,,,,,,,,,,,,,,,,,,,
,,5f95155d7ae37e0009ed42ac,2024-02-18_20h15.45.348,kallum_motion_pilot,2023.2.2,Win32,39.95046143,5f95155d7ae37e0009ed42ac,65d2b6c8f2eece985d8e374c,65d2b985d0ce9e3d3e18c4e2,0.2339,0.2342,1,33,195,158,1,eightsix,,,,,,,,,,,,,,,,,,,,,,,,,,,,,,,,,,,,,,,,,,,,,,,,,,,,,,,,,,,,,,,,,,,,,,,,,,,,,,,,,,,,,,,,,,,,,,,,,,,,,,,,,,,,,,,,,,,,,,,,,,,,,,,,,,,,,,,,,
,,5f95155d7ae37e0009ed42ac,2024-02-18_20h15.45.348,kallum_motion_pilot,2023.2.2,Win32,39.95046143,5f95155d7ae37e0009ed42ac,65d2b6c8f2eece985d8e374c,65d2b985d0ce9e3d3e18c4e2,0.2344,0.2347,1,34,196,33,1,onethree,,,,,,,,,,,,,,,,,,,,,,,,,,,,,,,,,,,,,,,,,,,,,,,,,,,,,,,,,,,,,,,,,,,,,,,,,,,,,,,,,,,,,,,,,,,,,,,,,,,,,,,,,,,,,,,,,,,,,,,,,,,,,,,,,,,,,,,,,
,,5f95155d7ae37e0009ed42ac,2024-02-18_20h15.45.348,kallum_motion_pilot,2023.2.2,Win32,39.95046143,5f95155d7ae37e0009ed42ac,65d2b6c8f2eece985d8e374c,65d2b985d0ce9e3d3e18c4e2,0.235,0.2353,1,35,197,52,1,threeone,,,,,,,,,,,,,,,,,,,,,,,,,,,,,,,,,,,,,,,,,,,,,,,,,,,,,,,,,,,,,,,,,,,,,,,,,,,,,,,,,,,,,,,,,,,,,,,,,,,,,,,,,,,,,,,,,,,,,,,,,,,,,,,,,,,,,,,,,
,,5f95155d7ae37e0009ed42ac,2024-02-18_20h15.45.348,kallum_motion_pilot,2023.2.2,Win32,39.95046143,5f95155d7ae37e0009ed42ac,65d2b6c8f2eece985d8e374c,65d2b985d0ce9e3d3e18c4e2,0.2357,0.2359,1,36,198,72,1,onetwo,,,,,,,,,,,,,,,,,,,,,,,,,,,,,,,,,,,,,,,,,,,,,,,,,,,,,,,,,,,,,,,,,,,,,,,,,,,,,,,,,,,,,,,,,,,,,,,,,,,,,,,,,,,,,,,,,,,,,,,,,,,,,,,,,,,,,,,,,
,,5f95155d7ae37e0009ed42ac,2024-02-18_20h15.45.348,kallum_motion_pilot,2023.2.2,Win32,39.95046143,5f95155d7ae37e0009ed42ac,65d2b6c8f2eece985d8e374c,65d2b985d0ce9e3d3e18c4e2,0.2361,0.2364,1,37,199,13,1,threefour,,,,,,,,,,,,,,,,,,,,,,,,,,,,,,,,,,,,,,,,,,,,,,,,,,,,,,,,,,,,,,,,,,,,,,,,,,,,,,,,,,,,,,,,,,,,,,,,,,,,,,,,,,,,,,,,,,,,,,,,,,,,,,,,,,,,,,,,,
,,5f95155d7ae37e0009ed42ac,2024-02-18_20h15.45.348,kallum_motion_pilot,2023.2.2,Win32,39.95046143,5f95155d7ae37e0009ed42ac,65d2b6c8f2eece985d8e374c,65d2b985d0ce9e3d3e18c4e2,0.2366,0.2368,1,38,200,95,1,eightseven,,,,,,,,,,,,,,,,,,,,,,,,,,,,,,,,,,,,,,,,,,,,,,,,,,,,,,,,,,,,,,,,,,,,,,,,,,,,,,,,,,,,,,,,,,,,,,,,,,,,,,,,,,,,,,,,,,,,,,,,,,,,,,,,,,,,,,,,,
,,5f95155d7ae37e0009ed42ac,2024-02-18_20h15.45.348,kallum_motion_pilot,2023.2.2,Win32,39.95046143,5f95155d7ae37e0009ed42ac,65d2b6c8f2eece985d8e374c,65d2b985d0ce9e3d3e18c4e2,0.2371,0.2373,1,39,201,6,1,fourtwo,,,,,,,,,,,,,,,,,,,,,,,,,,,,,,,,,,,,,,,,,,,,,,,,,,,,,,,,,,,,,,,,,,,,,,,,,,,,,,,,,,,,,,,,,,,,,,,,,,,,,,,,,,,,,,,,,,,,,,,,,,,,,,,,,,,,,,,,,
,,5f95155d7ae37e0009ed42ac,2024-02-18_20h15.45.348,kallum_motion_pilot,2023.2.2,Win32,39.95046143,5f95155d7ae37e0009ed42ac,65d2b6c8f2eece985d8e374c,65d2b985d0ce9e3d3e18c4e2,0.2376,0.2378,1,40,202,18,1,twoone,,,,,,,,,,,,,,,,,,,,,,,,,,,,,,,,,,,,,,,,,,,,,,,,,,,,,,,,,,,,,,,,,,,,,,,,,,,,,,,,,,,,,,,,,,,,,,,,,,,,,,,,,,,,,,,,,,,,,,,,,,,,,,,,,,,,,,,,,
,,5f95155d7ae37e0009ed42ac,2024-02-18_20h15.45.348,kallum_motion_pilot,2023.2.2,Win32,39.95046143,5f95155d7ae37e0009ed42ac,65d2b6c8f2eece985d8e374c,65d2b985d0ce9e3d3e18c4e2,0.238,0.2382,1,41,203,37,1,threefour,,,,,,,,,,,,,,,,,,,,,,,,,,,,,,,,,,,,,,,,,,,,,,,,,,,,,,,,,,,,,,,,,,,,,,,,,,,,,,,,,,,,,,,,,,,,,,,,,,,,,,,,,,,,,,,,,,,,,,,,,,,,,,,,,,,,,,,,,
,,5f95155d7ae37e0009ed42ac,2024-02-18_20h15.45.348,kallum_motion_pilot,2023.2.2,Win32,39.95046143,5f95155d7ae37e0009ed42ac,65d2b6c8f2eece985d8e374c,65d2b985d0ce9e3d3e18c4e2,0.2385,0.2387,1,42,204,66,1,twoone,,,,,,,,,,,,,,,,,,,,,,,,,,,,,,,,,,,,,,,,,,,,,,,,,,,,,,,,,,,,,,,,,,,,,,,,,,,,,,,,,,,,,,,,,,,,,,,,,,,,,,,,,,,,,,,,,,,,,,,,,,,,,,,,,,,,,,,,,
,,5f95155d7ae37e0009ed42ac,2024-02-18_20h15.45.348,kallum_motion_pilot,2023.2.2,Win32,39.95046143,5f95155d7ae37e0009ed42ac,65d2b6c8f2eece985d8e374c,65d2b985d0ce9e3d3e18c4e2,0.2391,0.2393,1,43,205,129,1,fiveseven,,,,,,,,,,,,,,,,,,,,,,,,,,,,,,,,,,,,,,,,,,,,,,,,,,,,,,,,,,,,,,,,,,,,,,,,,,,,,,,,,,,,,,,,,,,,,,,,,,,,,,,,,,,,,,,,,,,,,,,,,,,,,,,,,,,,,,,,,
,,5f95155d7ae37e0009ed42ac,2024-02-18_20h15.45.348,kallum_motion_pilot,2023.2.2,Win32,39.95046143,5f95155d7ae37e0009ed42ac,65d2b6c8f2eece985d8e374c,65d2b985d0ce9e3d3e18c4e2,0.2396,0.2398,1,44,206,84,1,sevenfive,,,,,,,,,,,,,,,,,,,,,,,,,,,,,,,,,,,,,,,,,,,,,,,,,,,,,,,,,,,,,,,,,,,,,,,,,,,,,,,,,,,,,,,,,,,,,,,,,,,,,,,,,,,,,,,,,,,,,,,,,,,,,,,,,,,,,,,,,
,,5f95155d7ae37e0009ed42ac,2024-02-18_20h15.45.348,kallum_motion_pilot,2023.2.2,Win32,39.95046143,5f95155d7ae37e0009ed42ac,65d2b6c8f2eece985d8e374c,65d2b985d0ce9e3d3e18c4e2,0.24,0.2402,1,45,207,61,1,threefour,,,,,,,,,,,,,,,,,,,,,,,,,,,,,,,,,,,,,,,,,,,,,,,,,,,,,,,,,,,,,,,,,,,,,,,,,,,,,,,,,,,,,,,,,,,,,,,,,,,,,,,,,,,,,,,,,,,,,,,,,,,,,,,,,,,,,,,,,
,,5f95155d7ae37e0009ed42ac,2024-02-18_20h15.45.348,kallum_motion_pilot,2023.2.2,Win32,39.95046143,5f95155d7ae37e0009ed42ac,65d2b6c8f2eece985d8e374c,65d2b985d0ce9e3d3e18c4e2,0.2404,0.2405,1,46,208,124,1,sevenfive,,,,,,,,,,,,,,,,,,,,,,,,,,,,,,,,,,,,,,,,,,,,,,,,,,,,,,,,,,,,,,,,,,,,,,,,,,,,,,,,,,,,,,,,,,,,,,,,,,,,,,,,,,,,,,,,,,,,,,,,,,,,,,,,,,,,,,,,,
,,5f95155d7ae37e0009ed42ac,2024-02-18_20h15.45.348,kallum_motion_pilot,2023.2.2,Win32,39.95046143,5f95155d7ae37e0009ed42ac,65d2b6c8f2eece985d8e374c,65d2b985d0ce9e3d3e18c4e2,0.2407,0.241,1,47,209,78,1,fourtwo,,,,,,,,,,,,,,,,,,,,,,,,,,,,,,,,,,,,,,,,,,,,,,,,,,,,,,,,,,,,,,,,,,,,,,,,,,,,,,,,,,,,,,,,,,,,,,,,,,,,,,,,,,,,,,,,,,,,,,,,,,,,,,,,,,,,,,,,,
,,5f95155d7ae37e0009ed42ac,2024-02-18_20h15.45.348,kallum_motion_pilot,2023.2.2,Win32,39.95046143,5f95155d7ae37e0009ed42ac,65d2b6c8f2eece985d8e374c,65d2b985d0ce9e3d3e18c4e2,0.2412,0.2414,1,48,210,141,1,seveneight,,,,,,,,,,,,,,,,,,,,,,,,,,,,,,,,,,,,,,,,,,,,,,,,,,,,,,,,,,,,,,,,,,,,,,,,,,,,,,,,,,,,,,,,,,,,,,,,,,,,,,,,,,,,,,,,,,,,,,,,,,,,,,,,,,,,,,,,,
,,5f95155d7ae37e0009ed42ac,2024-02-18_20h15.45.348,kallum_motion_pilot,2023.2.2,Win32,39.95046143,5f95155d7ae37e0009ed42ac,65d2b6c8f2eece985d8e374c,65d2b985d0ce9e3d3e18c4e2,0.2416,0.2418,1,49,211,5,1,threefour,,,,,,,,,,,,,,,,,,,,,,,,,,,,,,,,,,,,,,,,,,,,,,,,,,,,,,,,,,,,,,,,,,,,,,,,,,,,,,,,,,,,,,,,,,,,,,,,,,,,,,,,,,,,,,,,,,,,,,,,,,,,,,,,,,,,,,,,,
,,5f95155d7ae37e0009ed42ac,2024-02-18_20h15.45.348,kallum_motion_pilot,2023.2.2,Win32,39.95046143,5f95155d7ae37e0009ed42ac,65d2b6c8f2eece985d8e374c,65d2b985d0ce9e3d3e18c4e2,0.242,0.2422,1,50,212,27,1,twofour,,,,,,,,,,,,,,,,,,,,,,,,,,,,,,,,,,,,,,,,,,,,,,,,,,,,,,,,,,,,,,,,,,,,,,,,,,,,,,,,,,,,,,,,,,,,,,,,,,,,,,,,,,,,,,,,,,,,,,,,,,,,,,,,,,,,,,,,,
,,5f95155d7ae37e0009ed42ac,2024-02-18_20h15.45.348,kallum_motion_pilot,2023.2.2,Win32,39.95046143,5f95155d7ae37e0009ed42ac,65d2b6c8f2eece985d8e374c,65d2b985d0ce9e3d3e18c4e2,0.2424,0.2426,1,51,213,34,1,twoone,,,,,,,,,,,,,,,,,,,,,,,,,,,,,,,,,,,,,,,,,,,,,,,,,,,,,,,,,,,,,,,,,,,,,,,,,,,,,,,,,,,,,,,,,,,,,,,,,,,,,,,,,,,,,,,,,,,,,,,,,,,,,,,,,,,,,,,,,
,,5f95155d7ae37e0009ed42ac,2024-02-18_20h15.45.348,kallum_motion_pilot,2023.2.2,Win32,39.95046143,5f95155d7ae37e0009ed42ac,65d2b6c8f2eece985d8e374c,65d2b985d0ce9e3d3e18c4e2,0.2428,0.243,1,52,214,57,1,onethree,,,,,,,,,,,,,,,,,,,,,,,,,,,,,,,,,,,,,,,,,,,,,,,,,,,,,,,,,,,,,,,,,,,,,,,,,,,,,,,,,,,,,,,,,,,,,,,,,,,,,,,,,,,,,,,,,,,,,,,,,,,,,,,,,,,,,,,,,
,,5f95155d7ae37e0009ed42ac,2024-02-18_20h15.45.348,kallum_motion_pilot,2023.2.2,Win32,39.95046143,5f95155d7ae37e0009ed42ac,65d2b6c8f2eece985d8e374c,65d2b985d0ce9e3d3e18c4e2,0.2432,0.2433,1,53,215,154,1,sixfive,,,,,,,,,,,,,,,,,,,,,,,,,,,,,,,,,,,,,,,,,,,,,,,,,,,,,,,,,,,,,,,,,,,,,,,,,,,,,,,,,,,,,,,,,,,,,,,,,,,,,,,,,,,,,,,,,,,,,,,,,,,,,,,,,,,,,,,,,
,,5f95155d7ae37e0009ed42ac,2024-02-18_20h15.45.348,kallum_motion_pilot,2023.2.2,Win32,39.95046143,5f95155d7ae37e0009ed42ac,65d2b6c8f2eece985d8e374c,65d2b985d0ce9e3d3e18c4e2,0.2436,0.2437,1,54,216,79,1,eightseven,,,,,,,,,,,,,,,,,,,,,,,,,,,,,,,,,,,,,,,,,,,,,,,,,,,,,,,,,,,,,,,,,,,,,,,,,,,,,,,,,,,,,,,,,,,,,,,,,,,,,,,,,,,,,,,,,,,,,,,,,,,,,,,,,,,,,,,,,
,,5f95155d7ae37e0009ed42ac,2024-02-18_20h15.45.348,kallum_motion_pilot,2023.2.2,Win32,39.95046143,5f95155d7ae37e0009ed42ac,65d2b6c8f2eece985d8e374c,65d2b985d0ce9e3d3e18c4e2,0.2439,0.2442,1,55,217,117,1,seveneight,,,,,,,,,,,,,,,,,,,,,,,,,,,,,,,,,,,,,,,,,,,,,,,,,,,,,,,,,,,,,,,,,,,,,,,,,,,,,,,,,,,,,,,,,,,,,,,,,,,,,,,,,,,,,,,,,,,,,,,,,,,,,,,,,,,,,,,,,
,,5f95155d7ae37e0009ed42ac,2024-02-18_20h15.45.348,kallum_motion_pilot,2023.2.2,Win32,39.95046143,5f95155d7ae37e0009ed42ac,65d2b6c8f2eece985d8e374c,65d2b985d0ce9e3d3e18c4e2,0.2444,0.2445,1,56,218,30,1,fourtwo,,,,,,,,,,,,,,,,,,,,,,,,,,,,,,,,,,,,,,,,,,,,,,,,,,,,,,,,,,,,,,,,,,,,,,,,,,,,,,,,,,,,,,,,,,,,,,,,,,,,,,,,,,,,,,,,,,,,,,,,,,,,,,,,,,,,,,,,,
,,5f95155d7ae37e0009ed42ac,2024-02-18_20h15.45.348,kallum_motion_pilot,2023.2.2,Win32,39.95046143,5f95155d7ae37e0009ed42ac,65d2b6c8f2eece985d8e374c,65d2b985d0ce9e3d3e18c4e2,0.2447,0.2449,1,57,219,99,1,sixeight,,,,,,,,,,,,,,,,,,,,,,,,,,,,,,,,,,,,,,,,,,,,,,,,,,,,,,,,,,,,,,,,,,,,,,,,,,,,,,,,,,,,,,,,,,,,,,,,,,,,,,,,,,,,,,,,,,,,,,,,,,,,,,,,,,,,,,,,,
,,5f95155d7ae37e0009ed42ac,2024-02-18_20h15.45.348,kallum_motion_pilot,2023.2.2,Win32,39.95046143,5f95155d7ae37e0009ed42ac,65d2b6c8f2eece985d8e374c,65d2b985d0ce9e3d3e18c4e2,0.2452,0.2454,1,58,220,32,1,onetwo,,,,,,,,,,,,,,,,,,,,,,,,,,,,,,,,,,,,,,,,,,,,,,,,,,,,,,,,,,,,,,,,,,,,,,,,,,,,,,,,,,,,,,,,,,,,,,,,,,,,,,,,,,,,,,,,,,,,,,,,,,,,,,,,,,,,,,,,,
,,5f95155d7ae37e0009ed42ac,2024-02-18_20h15.45.348,kallum_motion_pilot,2023.2.2,Win32,39.95046143,5f95155d7ae37e0009ed42ac,65d2b6c8f2eece985d8e374c,65d2b985d0ce9e3d3e18c4e2,0.2458,0.2459,1,59,221,41,1,onethree,,,,,,,,,,,,,,,,,,,,,,,,,,,,,,,,,,,,,,,,,,,,,,,,,,,,,,,,,,,,,,,,,,,,,,,,,,,,,,,,,,,,,,,,,,,,,,,,,,,,,,,,,,,,,,,,,,,,,,,,,,,,,,,,,,,,,,,,,
,,5f95155d7ae37e0009ed42ac,2024-02-18_20h15.45.348,kallum_motion_pilot,2023.2.2,Win32,39.95046143,5f95155d7ae37e0009ed42ac,65d2b6c8f2eece985d8e374c,65d2b985d0ce9e3d3e18c4e2,0.2462,0.2464,1,60,222,146,1,sixfive,,,,,,,,,,,,,,,,,,,,,,,,,,,,,,,,,,,,,,,,,,,,,,,,,,,,,,,,,,,,,,,,,,,,,,,,,,,,,,,,,,,,,,,,,,,,,,,,,,,,,,,,,,,,,,,,,,,,,,,,,,,,,,,,,,,,,,,,,
,,5f95155d7ae37e0009ed42ac,2024-02-18_20h15.45.348,kallum_motion_pilot,2023.2.2,Win32,39.95046143,5f95155d7ae37e0009ed42ac,65d2b6c8f2eece985d8e374c,65d2b985d0ce9e3d3e18c4e2,0.2468,0.247,1,61,223,69,1,threefour,,,,,,,,,,,,,,,,,,,,,,,,,,,,,,,,,,,,,,,,,,,,,,,,,,,,,,,,,,,,,,,,,,,,,,,,,,,,,,,,,,,,,,,,,,,,,,,,,,,,,,,,,,,,,,,,,,,,,,,,,,,,,,,,,,,,,,,,,
,,5f95155d7ae37e0009ed42ac,2024-02-18_20h15.45.348,kallum_motion_pilot,2023.2.2,Win32,39.95046143,5f95155d7ae37e0009ed42ac,65d2b6c8f2eece985d8e374c,65d2b985d0ce9e3d3e18c4e2,0.2472,0.2475,1,62,224,39,1,fourthree,,,,,,,,,,,,,,,,,,,,,,,,,,,,,,,,,,,,,,,,,,,,,,,,,,,,,,,,,,,,,,,,,,,,,,,,,,,,,,,,,,,,,,,,,,,,,,,,,,,,,,,,,,,,,,,,,,,,,,,,,,,,,,,,,,,,,,,,,
,,5f95155d7ae37e0009ed42ac,2024-02-18_20h15.45.348,kallum_motion_pilot,2023.2.2,Win32,39.95046143,5f95155d7ae37e0009ed42ac,65d2b6c8f2eece985d8e374c,65d2b985d0ce9e3d3e18c4e2,0.2478,0.248,1,63,225,131,1,sixeight,,,,,,,,,,,,,,,,,,,,,,,,,,,,,,,,,,,,,,,,,,,,,,,,,,,,,,,,,,,,,,,,,,,,,,,,,,,,,,,,,,,,,,,,,,,,,,,,,,,,,,,,,,,,,,,,,,,,,,,,,,,,,,,,,,,,,,,,,
,,5f95155d7ae37e0009ed42ac,2024-02-18_20h15.45.348,kallum_motion_pilot,2023.2.2,Win32,39.95046143,5f95155d7ae37e0009ed42ac,65d2b6c8f2eece985d8e374c,65d2b985d0ce9e3d3e18c4e2,0.2482,0.2485,1,64,226,159,1,eightseven,,,,,,,,,,,,,,,,,,,,,,,,,,,,,,,,,,,,,,,,,,,,,,,,,,,,,,,,,,,,,,,,,,,,,,,,,,,,,,,,,,,,,,,,,,,,,,,,,,,,,,,,,,,,,,,,,,,,,,,,,,,,,,,,,,,,,,,,,
,,5f95155d7ae37e0009ed42ac,2024-02-18_20h15.45.348,kallum_motion_pilot,2023.2.2,Win32,39.95046143,5f95155d7ae37e0009ed42ac,65d2b6c8f2eece985d8e374c,65d2b985d0ce9e3d3e18c4e2,0.2487,0.249,1,65,227,23,1,fourthree,,,,,,,,,,,,,,,,,,,,,,,,,,,,,,,,,,,,,,,,,,,,,,,,,,,,,,,,,,,,,,,,,,,,,,,,,,,,,,,,,,,,,,,,,,,,,,,,,,,,,,,,,,,,,,,,,,,,,,,,,,,,,,,,,,,,,,,,,
,,5f95155d7ae37e0009ed42ac,2024-02-18_20h15.45.348,kallum_motion_pilot,2023.2.2,Win32,39.95046143,5f95155d7ae37e0009ed42ac,65d2b6c8f2eece985d8e374c,65d2b985d0ce9e3d3e18c4e2,0.2493,0.2495,1,66,228,155,1,sixeight,,,,,,,,,,,,,,,,,,,,,,,,,,,,,,,,,,,,,,,,,,,,,,,,,,,,,,,,,,,,,,,,,,,,,,,,,,,,,,,,,,,,,,,,,,,,,,,,,,,,,,,,,,,,,,,,,,,,,,,,,,,,,,,,,,,,,,,,,
,,5f95155d7ae37e0009ed42ac,2024-02-18_20h15.45.348,kallum_motion_pilot,2023.2.2,Win32,39.95046143,5f95155d7ae37e0009ed42ac,65d2b6c8f2eece985d8e374c,65d2b985d0ce9e3d3e18c4e2,0.2498,0.25,1,67,229,149,1,seveneight,,,,,,,,,,,,,,,,,,,,,,,,,,,,,,,,,,,,,,,,,,,,,,,,,,,,,,,,,,,,,,,,,,,,,,,,,,,,,,,,,,,,,,,,,,,,,,,,,,,,,,,,,,,,,,,,,,,,,,,,,,,,,,,,,,,,,,,,,
,,5f95155d7ae37e0009ed42ac,2024-02-18_20h15.45.348,kallum_motion_pilot,2023.2.2,Win32,39.95046143,5f95155d7ae37e0009ed42ac,65d2b6c8f2eece985d8e374c,65d2b985d0ce9e3d3e18c4e2,0.2503,0.2505,1,68,230,140,1,sevenfive,,,,,,,,,,,,,,,,,,,,,,,,,,,,,,,,,,,,,,,,,,,,,,,,,,,,,,,,,,,,,,,,,,,,,,,,,,,,,,,,,,,,,,,,,,,,,,,,,,,,,,,,,,,,,,,,,,,,,,,,,,,,,,,,,,,,,,,,,
,,5f95155d7ae37e0009ed42ac,2024-02-18_20h15.45.348,kallum_motion_pilot,2023.2.2,Win32,39.95046143,5f95155d7ae37e0009ed42ac,65d2b6c8f2eece985d8e374c,65d2b985d0ce9e3d3e18c4e2,0.2508,0.2511,1,69,231,133,1,seveneight,,,,,,,,,,,,,,,,,,,,,,,,,,,,,,,,,,,,,,,,,,,,,,,,,,,,,,,,,,,,,,,,,,,,,,,,,,,,,,,,,,,,,,,,,,,,,,,,,,,,,,,,,,,,,,,,,,,,,,,,,,,,,,,,,,,,,,,,,
,,5f95155d7ae37e0009ed42ac,2024-02-18_20h15.45.348,kallum_motion_pilot,2023.2.2,Win32,39.95046143,5f95155d7ae37e0009ed42ac,65d2b6c8f2eece985d8e374c,65d2b985d0ce9e3d3e18c4e2,0.2515,0.2517,1,70,232,12,1,threeone,,,,,,,,,,,,,,,,,,,,,,,,,,,,,,,,,,,,,,,,,,,,,,,,,,,,,,,,,,,,,,,,,,,,,,,,,,,,,,,,,,,,,,,,,,,,,,,,,,,,,,,,,,,,,,,,,,,,,,,,,,,,,,,,,,,,,,,,,
,,5f95155d7ae37e0009ed42ac,2024-02-18_20h15.45.348,kallum_motion_pilot,2023.2.2,Win32,39.95046143,5f95155d7ae37e0009ed42ac,65d2b6c8f2eece985d8e374c,65d2b985d0ce9e3d3e18c4e2,0.252,0.2522,1,71,233,139,1,sixeight,,,,,,,,,,,,,,,,,,,,,,,,,,,,,,,,,,,,,,,,,,,,,,,,,,,,,,,,,,,,,,,,,,,,,,,,,,,,,,,,,,,,,,,,,,,,,,,,,,,,,,,,,,,,,,,,,,,,,,,,,,,,,,,,,,,,,,,,,
,,5f95155d7ae37e0009ed42ac,2024-02-18_20h15.45.348,kallum_motion_pilot,2023.2.2,Win32,39.95046143,5f95155d7ae37e0009ed42ac,65d2b6c8f2eece985d8e374c,65d2b985d0ce9e3d3e18c4e2,0.2524,0.2528,1,72,234,29,1,threefour,,,,,,,,,,,,,,,,,,,,,,,,,,,,,,,,,,,,,,,,,,,,,,,,,,,,,,,,,,,,,,,,,,,,,,,,,,,,,,,,,,,,,,,,,,,,,,,,,,,,,,,,,,,,,,,,,,,,,,,,,,,,,,,,,,,,,,,,,
,,5f95155d7ae37e0009ed42ac,2024-02-18_20h15.45.348,kallum_motion_pilot,2023.2.2,Win32,39.95046143,5f95155d7ae37e0009ed42ac,65d2b6c8f2eece985d8e374c,65d2b985d0ce9e3d3e18c4e2,0.253,0.2533,1,73,235,55,1,fourthree,,,,,,,,,,,,,,,,,,,,,,,,,,,,,,,,,,,,,,,,,,,,,,,,,,,,,,,,,,,,,,,,,,,,,,,,,,,,,,,,,,,,,,,,,,,,,,,,,,,,,,,,,,,,,,,,,,,,,,,,,,,,,,,,,,,,,,,,,
,,5f95155d7ae37e0009ed42ac,2024-02-18_20h15.45.348,kallum_motion_pilot,2023.2.2,Win32,39.95046143,5f95155d7ae37e0009ed42ac,65d2b6c8f2eece985d8e374c,65d2b985d0ce9e3d3e18c4e2,0.2535,0.2538,1,74,236,123,1,sixeight,,,,,,,,,,,,,,,,,,,,,,,,,,,,,,,,,,,,,,,,,,,,,,,,,,,,,,,,,,,,,,,,,,,,,,,,,,,,,,,,,,,,,,,,,,,,,,,,,,,,,,,,,,,,,,,,,,,,,,,,,,,,,,,,,,,,,,,,,
,,5f95155d7ae37e0009ed42ac,2024-02-18_20h15.45.348,kallum_motion_pilot,2023.2.2,Win32,39.95046143,5f95155d7ae37e0009ed42ac,65d2b6c8f2eece985d8e374c,65d2b985d0ce9e3d3e18c4e2,0.254,0.2542,1,75,237,20,1,threeone,,,,,,,,,,,,,,,,,,,,,,,,,,,,,,,,,,,,,,,,,,,,,,,,,,,,,,,,,,,,,,,,,,,,,,,,,,,,,,,,,,,,,,,,,,,,,,,,,,,,,,,,,,,,,,,,,,,,,,,,,,,,,,,,,,,,,,,,,
,,5f95155d7ae37e0009ed42ac,2024-02-18_20h15.45.348,kallum_motion_pilot,2023.2.2,Win32,39.95046143,5f95155d7ae37e0009ed42ac,65d2b6c8f2eece985d8e374c,65d2b985d0ce9e3d3e18c4e2,0.2545,0.2547,1,76,238,111,1,eightseven,,,,,,,,,,,,,,,,,,,,,,,,,,,,,,,,,,,,,,,,,,,,,,,,,,,,,,,,,,,,,,,,,,,,,,,,,,,,,,,,,,,,,,,,,,,,,,,,,,,,,,,,,,,,,,,,,,,,,,,,,,,,,,,,,,,,,,,,,
,,5f95155d7ae37e0009ed42ac,2024-02-18_20h15.45.348,kallum_motion_pilot,2023.2.2,Win32,39.95046143,5f95155d7ae37e0009ed42ac,65d2b6c8f2eece985d8e374c,65d2b985d0ce9e3d3e18c4e2,0.255,0.2552,1,77,239,145,1,fiveseven,,,,,,,,,,,,,,,,,,,,,,,,,,,,,,,,,,,,,,,,,,,,,,,,,,,,,,,,,,,,,,,,,,,,,,,,,,,,,,,,,,,,,,,,,,,,,,,,,,,,,,,,,,,,,,,,,,,,,,,,,,,,,,,,,,,,,,,,,
,,5f95155d7ae37e0009ed42ac,2024-02-18_20h15.45.348,kallum_motion_pilot,2023.2.2,Win32,39.95046143,5f95155d7ae37e0009ed42ac,65d2b6c8f2eece985d8e374c,65d2b985d0ce9e3d3e18c4e2,0.2576,0.2579,1,78,240,9,1,onethree,,,,,,,,,,,,,,,,,,,,,,,,,,,,,,,,,,,,,,,,,,,,,,,,,,,,,,,,,,,,,,,,,,,,,,,,,,,,,,,,,,,,,,,,,,,,,,,,,,,,,,,,,,,,,,,,,,,,,,,,,,,,,,,,,,,,,,,,,
,,5f95155d7ae37e0009ed42ac,2024-02-18_20h15.45.348,kallum_motion_pilot,2023.2.2,Win32,39.95046143,5f95155d7ae37e0009ed42ac,65d2b6c8f2eece985d8e374c,65d2b985d0ce9e3d3e18c4e2,0.2583,0.2586,1,79,241,44,1,threeone,,,,,,,,,,,,,,,,,,,,,,,,,,,,,,,,,,,,,,,,,,,,,,,,,,,,,,,,,,,,,,,,,,,,,,,,,,,,,,,,,,,,,,,,,,,,,,,,,,,,,,,,,,,,,,,,,,,,,,,,,,,,,,,,,,,,,,,,,
,,5f95155d7ae37e0009ed42ac,2024-02-18_20h15.45.348,kallum_motion_pilot,2023.2.2,Win32,39.95046143,5f95155d7ae37e0009ed42ac,65d2b6c8f2eece985d8e374c,65d2b985d0ce9e3d3e18c4e2,0.2588,0.2591,1,80,242,116,1,sevenfive,,,,,,,,,,,,,,,,,,,,,,,,,,,,,,,,,,,,,,,,,,,,,,,,,,,,,,,,,,,,,,,,,,,,,,,,,,,,,,,,,,,,,,,,,,,,,,,,,,,,,,,,,,,,,,,,,,,,,,,,,,,,,,,,,,,,,,,,,
,,5f95155d7ae37e0009ed42ac,2024-02-18_20h15.45.348,kallum_motion_pilot,2023.2.2,Win32,39.95046143,5f95155d7ae37e0009ed42ac,65d2b6c8f2eece985d8e374c,65d2b985d0ce9e3d3e18c4e2,0.2593,0.2596,1,81,243,102,1,eightsix,,,,,,,,,,,,,,,,,,,,,,,,,,,,,,,,,,,,,,,,,,,,,,,,,,,,,,,,,,,,,,,,,,,,,,,,,,,,,,,,,,,,,,,,,,,,,,,,,,,,,,,,,,,,,,,,,,,,,,,,,,,,,,,,,,,,,,,,,
,,5f95155d7ae37e0009ed42ac,2024-02-18_20h15.45.348,kallum_motion_pilot,2023.2.2,Win32,39.95046143,5f95155d7ae37e0009ed42ac,65d2b6c8f2eece985d8e374c,65d2b985d0ce9e3d3e18c4e2,0.26,0.2603,1,82,244,142,1,eightsix,,,,,,,,,,,,,,,,,,,,,,,,,,,,,,,,,,,,,,,,,,,,,,,,,,,,,,,,,,,,,,,,,,,,,,,,,,,,,,,,,,,,,,,,,,,,,,,,,,,,,,,,,,,,,,,,,,,,,,,,,,,,,,,,,,,,,,,,,
,,5f95155d7ae37e0009ed42ac,2024-02-18_20h15.45.348,kallum_motion_pilot,2023.2.2,Win32,39.95046143,5f95155d7ae37e0009ed42ac,65d2b6c8f2eece985d8e374c,65d2b985d0ce9e3d3e18c4e2,0.2608,0.2611,1,83,245,107,1,sixeight,,,,,,,,,,,,,,,,,,,,,,,,,,,,,,,,,,,,,,,,,,,,,,,,,,,,,,,,,,,,,,,,,,,,,,,,,,,,,,,,,,,,,,,,,,,,,,,,,,,,,,,,,,,,,,,,,,,,,,,,,,,,,,,,,,,,,,,,,
,,5f95155d7ae37e0009ed42ac,2024-02-18_20h15.45.348,kallum_motion_pilot,2023.2.2,Win32,39.95046143,5f95155d7ae37e0009ed42ac,65d2b6c8f2eece985d8e374c,65d2b985d0ce9e3d3e18c4e2,0.2614,0.2617,1,84,246,150,1,eightsix,,,,,,,,,,,,,,,,,,,,,,,,,,,,,,,,,,,,,,,,,,,,,,,,,,,,,,,,,,,,,,,,,,,,,,,,,,,,,,,,,,,,,,,,,,,,,,,,,,,,,,,,,,,,,,,,,,,,,,,,,,,,,,,,,,,,,,,,,
,,5f95155d7ae37e0009ed42ac,2024-02-18_20h15.45.348,kallum_motion_pilot,2023.2.2,Win32,39.95046143,5f95155d7ae37e0009ed42ac,65d2b6c8f2eece985d8e374c,65d2b985d0ce9e3d3e18c4e2,0.2621,0.2623,1,85,247,4,1,threeone,,,,,,,,,,,,,,,,,,,,,,,,,,,,,,,,,,,,,,,,,,,,,,,,,,,,,,,,,,,,,,,,,,,,,,,,,,,,,,,,,,,,,,,,,,,,,,,,,,,,,,,,,,,,,,,,,,,,,,,,,,,,,,,,,,,,,,,,,
,,5f95155d7ae37e0009ed42ac,2024-02-18_20h15.45.348,kallum_motion_pilot,2023.2.2,Win32,39.95046143,5f95155d7ae37e0009ed42ac,65d2b6c8f2eece985d8e374c,65d2b985d0ce9e3d3e18c4e2,0.2627,0.263,1,86,248,3,1,twofour,,,,,,,,,,,,,,,,,,,,,,,,,,,,,,,,,,,,,,,,,,,,,,,,,,,,,,,,,,,,,,,,,,,,,,,,,,,,,,,,,,,,,,,,,,,,,,,,,,,,,,,,,,,,,,,,,,,,,,,,,,,,,,,,,,,,,,,,,
,,5f95155d7ae37e0009ed42ac,2024-02-18_20h15.45.348,kallum_motion_pilot,2023.2.2,Win32,39.95046143,5f95155d7ae37e0009ed42ac,65d2b6c8f2eece985d8e374c,65d2b985d0ce9e3d3e18c4e2,0.2633,0.2635,1,87,249,8,1,onetwo,,,,,,,,,,,,,,,,,,,,,,,,,,,,,,,,,,,,,,,,,,,,,,,,,,,,,,,,,,,,,,,,,,,,,,,,,,,,,,,,,,,,,,,,,,,,,,,,,,,,,,,,,,,,,,,,,,,,,,,,,,,,,,,,,,,,,,,,,
,,5f95155d7ae37e0009ed42ac,2024-02-18_20h15.45.348,kallum_motion_pilot,2023.2.2,Win32,39.95046143,5f95155d7ae37e0009ed42ac,65d2b6c8f2eece985d8e374c,65d2b985d0ce9e3d3e18c4e2,0.2637,0.264,1,88,250,63,1,fourthree,,,,,,,,,,,,,,,,,,,,,,,,,,,,,,,,,,,,,,,,,,,,,,,,,,,,,,,,,,,,,,,,,,,,,,,,,,,,,,,,,,,,,,,,,,,,,,,,,,,,,,,,,,,,,,,,,,,,,,,,,,,,,,,,,,,,,,,,,
,,5f95155d7ae37e0009ed42ac,2024-02-18_20h15.45.348,kallum_motion_pilot,2023.2.2,Win32,39.95046143,5f95155d7ae37e0009ed42ac,65d2b6c8f2eece985d8e374c,65d2b985d0ce9e3d3e18c4e2,0.2642,0.2644,1,89,251,156,1,sevenfive,,,,,,,,,,,,,,,,,,,,,,,,,,,,,,,,,,,,,,,,,,,,,,,,,,,,,,,,,,,,,,,,,,,,,,,,,,,,,,,,,,,,,,,,,,,,,,,,,,,,,,,,,,,,,,,,,,,,,,,,,,,,,,,,,,,,,,,,,
,,5f95155d7ae37e0009ed42ac,2024-02-18_20h15.45.348,kallum_motion_pilot,2023.2.2,Win32,39.95046143,5f95155d7ae37e0009ed42ac,65d2b6c8f2eece985d8e374c,65d2b985d0ce9e3d3e18c4e2,0.2647,0.2649,1,90,252,11,1,twofour,,,,,,,,,,,,,,,,,,,,,,,,,,,,,,,,,,,,,,,,,,,,,,,,,,,,,,,,,,,,,,,,,,,,,,,,,,,,,,,,,,,,,,,,,,,,,,,,,,,,,,,,,,,,,,,,,,,,,,,,,,,,,,,,,,,,,,,,,
,,5f95155d7ae37e0009ed42ac,2024-02-18_20h15.45.348,kallum_motion_pilot,2023.2.2,Win32,39.95046143,5f95155d7ae37e0009ed42ac,65d2b6c8f2eece985d8e374c,65d2b985d0ce9e3d3e18c4e2,0.2652,0.2655,1,91,253,135,1,eightseven,,,,,,,,,,,,,,,,,,,,,,,,,,,,,,,,,,,,,,,,,,,,,,,,,,,,,,,,,,,,,,,,,,,,,,,,,,,,,,,,,,,,,,,,,,,,,,,,,,,,,,,,,,,,,,,,,,,,,,,,,,,,,,,,,,,,,,,,,
,,5f95155d7ae37e0009ed42ac,2024-02-18_20h15.45.348,kallum_motion_pilot,2023.2.2,Win32,39.95046143,5f95155d7ae37e0009ed42ac,65d2b6c8f2eece985d8e374c,65d2b985d0ce9e3d3e18c4e2,0.2658,0.266,1,92,254,126,1,eightsix,,,,,,,,,,,,,,,,,,,,,,,,,,,,,,,,,,,,,,,,,,,,,,,,,,,,,,,,,,,,,,,,,,,,,,,,,,,,,,,,,,,,,,,,,,,,,,,,,,,,,,,,,,,,,,,,,,,,,,,,,,,,,,,,,,,,,,,,,
,,5f95155d7ae37e0009ed42ac,2024-02-18_20h15.45.348,kallum_motion_pilot,2023.2.2,Win32,39.95046143,5f95155d7ae37e0009ed42ac,65d2b6c8f2eece985d8e374c,65d2b985d0ce9e3d3e18c4e2,0.2662,0.2664,1,93,255,53,1,threefour,,,,,,,,,,,,,,,,,,,,,,,,,,,,,,,,,,,,,,,,,,,,,,,,,,,,,,,,,,,,,,,,,,,,,,,,,,,,,,,,,,,,,,,,,,,,,,,,,,,,,,,,,,,,,,,,,,,,,,,,,,,,,,,,,,,,,,,,,
,,5f95155d7ae37e0009ed42ac,2024-02-18_20h15.45.348,kallum_motion_pilot,2023.2.2,Win32,39.95046143,5f95155d7ae37e0009ed42ac,65d2b6c8f2eece985d8e374c,65d2b985d0ce9e3d3e18c4e2,0.2667,0.2669,1,94,256,143,1,eightseven,,,,,,,,,,,,,,,,,,,,,,,,,,,,,,,,,,,,,,,,,,,,,,,,,,,,,,,,,,,,,,,,,,,,,,,,,,,,,,,,,,,,,,,,,,,,,,,,,,,,,,,,,,,,,,,,,,,,,,,,,,,,,,,,,,,,,,,,,
,,5f95155d7ae37e0009ed42ac,2024-02-18_20h15.45.348,kallum_motion_pilot,2023.2.2,Win32,39.95046143,5f95155d7ae37e0009ed42ac,65d2b6c8f2eece985d8e374c,65d2b985d0ce9e3d3e18c4e2,0.2672,0.2674,1,95,257,91,1,sixeight,,,,,,,,,,,,,,,,,,,,,,,,,,,,,,,,,,,,,,,,,,,,,,,,,,,,,,,,,,,,,,,,,,,,,,,,,,,,,,,,,,,,,,,,,,,,,,,,,,,,,,,,,,,,,,,,,,,,,,,,,,,,,,,,,,,,,,,,,
,,5f95155d7ae37e0009ed42ac,2024-02-18_20h15.45.348,kallum_motion_pilot,2023.2.2,Win32,39.95046143,5f95155d7ae37e0009ed42ac,65d2b6c8f2eece985d8e374c,65d2b985d0ce9e3d3e18c4e2,0.2676,0.2678,1,96,258,67,1,twofour,,,,,,,,,,,,,,,,,,,,,,,,,,,,,,,,,,,,,,,,,,,,,,,,,,,,,,,,,,,,,,,,,,,,,,,,,,,,,,,,,,,,,,,,,,,,,,,,,,,,,,,,,,,,,,,,,,,,,,,,,,,,,,,,,,,,,,,,,
,,5f95155d7ae37e0009ed42ac,2024-02-18_20h15.45.348,kallum_motion_pilot,2023.2.2,Win32,39.95046143,5f95155d7ae37e0009ed42ac,65d2b6c8f2eece985d8e374c,65d2b985d0ce9e3d3e18c4e2,0.2681,0.2683,1,97,259,16,1,onetwo,,,,,,,,,,,,,,,,,,,,,,,,,,,,,,,,,,,,,,,,,,,,,,,,,,,,,,,,,,,,,,,,,,,,,,,,,,,,,,,,,,,,,,,,,,,,,,,,,,,,,,,,,,,,,,,,,,,,,,,,,,,,,,,,,,,,,,,,,
,,5f95155d7ae37e0009ed42ac,2024-02-18_20h15.45.348,kallum_motion_pilot,2023.2.2,Win32,39.95046143,5f95155d7ae37e0009ed42ac,65d2b6c8f2eece985d8e374c,65d2b985d0ce9e3d3e18c4e2,0.2686,0.2688,1,98,260,46,1,fourtwo,,,,,,,,,,,,,,,,,,,,,,,,,,,,,,,,,,,,,,,,,,,,,,,,,,,,,,,,,,,,,,,,,,,,,,,,,,,,,,,,,,,,,,,,,,,,,,,,,,,,,,,,,,,,,,,,,,,,,,,,,,,,,,,,,,,,,,,,,
,,5f95155d7ae37e0009ed42ac,2024-02-18_20h15.45.348,kallum_motion_pilot,2023.2.2,Win32,39.95046143,5f95155d7ae37e0009ed42ac,65d2b6c8f2eece985d8e374c,65d2b985d0ce9e3d3e18c4e2,0.2691,0.2693,1,99,261,92,1,sevenfive,,,,,,,,,,,,,,,,,,,,,,,,,,,,,,,,,,,,,,,,,,,,,,,,,,,,,,,,,,,,,,,,,,,,,,,,,,,,,,,,,,,,,,,,,,,,,,,,,,,,,,,,,,,,,,,,,,,,,,,,,,,,,,,,,,,,,,,,,
,,5f95155d7ae37e0009ed42ac,2024-02-18_20h15.45.348,kallum_motion_pilot,2023.2.2,Win32,39.95046143,5f95155d7ae37e0009ed42ac,65d2b6c8f2eece985d8e374c,65d2b985d0ce9e3d3e18c4e2,0.2698,0.2701,1,100,262,93,1,seveneight,,,,,,,,,,,,,,,,,,,,,,,,,,,,,,,,,,,,,,,,,,,,,,,,,,,,,,,,,,,,,,,,,,,,,,,,,,,,,,,,,,,,,,,,,,,,,,,,,,,,,,,,,,,,,,,,,,,,,,,,,,,,,,,,,,,,,,,,,
,,5f95155d7ae37e0009ed42ac,2024-02-18_20h15.45.348,kallum_motion_pilot,2023.2.2,Win32,39.95046143,5f95155d7ae37e0009ed42ac,65d2b6c8f2eece985d8e374c,65d2b985d0ce9e3d3e18c4e2,0.2706,0.2709,1,101,263,10,1,twoone,,,,,,,,,,,,,,,,,,,,,,,,,,,,,,,,,,,,,,,,,,,,,,,,,,,,,,,,,,,,,,,,,,,,,,,,,,,,,,,,,,,,,,,,,,,,,,,,,,,,,,,,,,,,,,,,,,,,,,,,,,,,,,,,,,,,,,,,,
,,5f95155d7ae37e0009ed42ac,2024-02-18_20h15.45.348,kallum_motion_pilot,2023.2.2,Win32,39.95046143,5f95155d7ae37e0009ed42ac,65d2b6c8f2eece985d8e374c,65d2b985d0ce9e3d3e18c4e2,0.2712,0.2714,1,102,264,15,1,fourthree,,,,,,,,,,,,,,,,,,,,,,,,,,,,,,,,,,,,,,,,,,,,,,,,,,,,,,,,,,,,,,,,,,,,,,,,,,,,,,,,,,,,,,,,,,,,,,,,,,,,,,,,,,,,,,,,,,,,,,,,,,,,,,,,,,,,,,,,,
,,5f95155d7ae37e0009ed42ac,2024-02-18_20h15.45.348,kallum_motion_pilot,2023.2.2,Win32,39.95046143,5f95155d7ae37e0009ed42ac,65d2b6c8f2eece985d8e374c,65d2b985d0ce9e3d3e18c4e2,0.2717,0.2719,1,103,265,51,1,twofour,,,,,,,,,,,,,,,,,,,,,,,,,,,,,,,,,,,,,,,,,,,,,,,,,,,,,,,,,,,,,,,,,,,,,,,,,,,,,,,,,,,,,,,,,,,,,,,,,,,,,,,,,,,,,,,,,,,,,,,,,,,,,,,,,,,,,,,,,
,,5f95155d7ae37e0009ed42ac,2024-02-18_20h15.45.348,kallum_motion_pilot,2023.2.2,Win32,39.95046143,5f95155d7ae37e0009ed42ac,65d2b6c8f2eece985d8e374c,65d2b985d0ce9e3d3e18c4e2,0.2722,0.2726,1,104,266,86,1,eightsix,,,,,,,,,,,,,,,,,,,,,,,,,,,,,,,,,,,,,,,,,,,,,,,,,,,,,,,,,,,,,,,,,,,,,,,,,,,,,,,,,,,,,,,,,,,,,,,,,,,,,,,,,,,,,,,,,,,,,,,,,,,,,,,,,,,,,,,,,
,,5f95155d7ae37e0009ed42ac,2024-02-18_20h15.45.348,kallum_motion_pilot,2023.2.2,Win32,39.95046143,5f95155d7ae37e0009ed42ac,65d2b6c8f2eece985d8e374c,65d2b985d0ce9e3d3e18c4e2,0.273,0.2733,1,105,267,103,1,eightseven,,,,,,,,,,,,,,,,,,,,,,,,,,,,,,,,,,,,,,,,,,,,,,,,,,,,,,,,,,,,,,,,,,,,,,,,,,,,,,,,,,,,,,,,,,,,,,,,,,,,,,,,,,,,,,,,,,,,,,,,,,,,,,,,,,,,,,,,,
,,5f95155d7ae37e0009ed42ac,2024-02-18_20h15.45.348,kallum_motion_pilot,2023.2.2,Win32,39.95046143,5f95155d7ae37e0009ed42ac,65d2b6c8f2eece985d8e374c,65d2b985d0ce9e3d3e18c4e2,0.2736,0.2739,1,106,268,106,1,sixfive,,,,,,,,,,,,,,,,,,,,,,,,,,,,,,,,,,,,,,,,,,,,,,,,,,,,,,,,,,,,,,,,,,,,,,,,,,,,,,,,,,,,,,,,,,,,,,,,,,,,,,,,,,,,,,,,,,,,,,,,,,,,,,,,,,,,,,,,,
,,5f95155d7ae37e0009ed42ac,2024-02-18_20h15.45.348,kallum_motion_pilot,2023.2.2,Win32,39.95046143,5f95155d7ae37e0009ed42ac,65d2b6c8f2eece985d8e374c,65d2b985d0ce9e3d3e18c4e2,0.2742,0.2745,1,107,269,42,1,twoone,,,,,,,,,,,,,,,,,,,,,,,,,,,,,,,,,,,,,,,,,,,,,,,,,,,,,,,,,,,,,,,,,,,,,,,,,,,,,,,,,,,,,,,,,,,,,,,,,,,,,,,,,,,,,,,,,,,,,,,,,,,,,,,,,,,,,,,,,
,,5f95155d7ae37e0009ed42ac,2024-02-18_20h15.45.348,kallum_motion_pilot,2023.2.2,Win32,39.95046143,5f95155d7ae37e0009ed42ac,65d2b6c8f2eece985d8e374c,65d2b985d0ce9e3d3e18c4e2,0.2748,0.2751,1,108,270,75,1,twofour,,,,,,,,,,,,,,,,,,,,,,,,,,,,,,,,,,,,,,,,,,,,,,,,,,,,,,,,,,,,,,,,,,,,,,,,,,,,,,,,,,,,,,,,,,,,,,,,,,,,,,,,,,,,,,,,,,,,,,,,,,,,,,,,,,,,,,,,,
,,5f95155d7ae37e0009ed42ac,2024-02-18_20h15.45.348,kallum_motion_pilot,2023.2.2,Win32,39.95046143,5f95155d7ae37e0009ed42ac,65d2b6c8f2eece985d8e374c,65d2b985d0ce9e3d3e18c4e2,0.2754,0.2756,1,109,271,144,1,fivesix,,,,,,,,,,,,,,,,,,,,,,,,,,,,,,,,,,,,,,,,,,,,,,,,,,,,,,,,,,,,,,,,,,,,,,,,,,,,,,,,,,,,,,,,,,,,,,,,,,,,,,,,,,,,,,,,,,,,,,,,,,,,,,,,,,,,,,,,,
,,5f95155d7ae37e0009ed42ac,2024-02-18_20h15.45.348,kallum_motion_pilot,2023.2.2,Win32,39.95046143,5f95155d7ae37e0009ed42ac,65d2b6c8f2eece985d8e374c,65d2b985d0ce9e3d3e18c4e2,0.2759,0.2762,1,110,272,38,1,fourtwo,,,,,,,,,,,,,,,,,,,,,,,,,,,,,,,,,,,,,,,,,,,,,,,,,,,,,,,,,,,,,,,,,,,,,,,,,,,,,,,,,,,,,,,,,,,,,,,,,,,,,,,,,,,,,,,,,,,,,,,,,,,,,,,,,,,,,,,,,
,,5f95155d7ae37e0009ed42ac,2024-02-18_20h15.45.348,kallum_motion_pilot,2023.2.2,Win32,39.95046143,5f95155d7ae37e0009ed42ac,65d2b6c8f2eece985d8e374c,65d2b985d0ce9e3d3e18c4e2,0.2764,0.2767,1,111,273,130,1,sixfive,,,,,,,,,,,,,,,,,,,,,,,,,,,,,,,,,,,,,,,,,,,,,,,,,,,,,,,,,,,,,,,,,,,,,,,,,,,,,,,,,,,,,,,,,,,,,,,,,,,,,,,,,,,,,,,,,,,,,,,,,,,,,,,,,,,,,,,,,
,,5f95155d7ae37e0009ed42ac,2024-02-18_20h15.45.348,kallum_motion_pilot,2023.2.2,Win32,39.95046143,5f95155d7ae37e0009ed42ac,65d2b6c8f2eece985d8e374c,65d2b985d0ce9e3d3e18c4e2,0.277,0.2772,1,112,274,160,1,fivesix,,,,,,,,,,,,,,,,,,,,,,,,,,,,,,,,,,,,,,,,,,,,,,,,,,,,,,,,,,,,,,,,,,,,,,,,,,,,,,,,,,,,,,,,,,,,,,,,,,,,,,,,,,,,,,,,,,,,,,,,,,,,,,,,,,,,,,,,,
,,5f95155d7ae37e0009ed42ac,2024-02-18_20h15.45.348,kallum_motion_pilot,2023.2.2,Win32,39.95046143,5f95155d7ae37e0009ed42ac,65d2b6c8f2eece985d8e374c,65d2b985d0ce9e3d3e18c4e2,0.2775,0.2777,1,113,275,121,1,fiveseven,,,,,,,,,,,,,,,,,,,,,,,,,,,,,,,,,,,,,,,,,,,,,,,,,,,,,,,,,,,,,,,,,,,,,,,,,,,,,,,,,,,,,,,,,,,,,,,,,,,,,,,,,,,,,,,,,,,,,,,,,,,,,,,,,,,,,,,,,
,,5f95155d7ae37e0009ed42ac,2024-02-18_20h15.45.348,kallum_motion_pilot,2023.2.2,Win32,39.95046143,5f95155d7ae37e0009ed42ac,65d2b6c8f2eece985d8e374c,65d2b985d0ce9e3d3e18c4e2,0.278,0.2782,1,114,276,35,1,twofour,,,,,,,,,,,,,,,,,,,,,,,,,,,,,,,,,,,,,,,,,,,,,,,,,,,,,,,,,,,,,,,,,,,,,,,,,,,,,,,,,,,,,,,,,,,,,,,,,,,,,,,,,,,,,,,,,,,,,,,,,,,,,,,,,,,,,,,,,
,,5f95155d7ae37e0009ed42ac,2024-02-18_20h15.45.348,kallum_motion_pilot,2023.2.2,Win32,39.95046143,5f95155d7ae37e0009ed42ac,65d2b6c8f2eece985d8e374c,65d2b985d0ce9e3d3e18c4e2,0.2785,0.2788,1,115,277,60,1,threeone,,,,,,,,,,,,,,,,,,,,,,,,,,,,,,,,,,,,,,,,,,,,,,,,,,,,,,,,,,,,,,,,,,,,,,,,,,,,,,,,,,,,,,,,,,,,,,,,,,,,,,,,,,,,,,,,,,,,,,,,,,,,,,,,,,,,,,,,,
