startup.started,startup.stopped,Prolific ID*,date,expName,psychopyVersion,OS,frameRate,participant,study_id,session,stimpositions.started,stimpositions.stopped,hardcoded_stimulus_positions.thisRepN,hardcoded_stimulus_positions.thisTrialN,hardcoded_stimulus_positions.thisN,hardcoded_stimulus_positions.thisIndex,hardcoded_stimulus_positions.ran,StimulusPos,stimorientation.started,stimorientation.stopped,prac_stimorientation_import_loop.thisRepN,prac_stimorientation_import_loop.thisTrialN,prac_stimorientation_import_loop.thisN,prac_stimorientation_import_loop.thisIndex,prac_stimorientation_import_loop.ran,Stimorientation,welcome_instr.started,welcome_instr.stopped,key_resp.keys,key_resp.rt,key_resp.duration,response_steppedout_1.started,response_steppedout_1.stopped,key_resp_20.keys,key_resp_20.rt,key_resp_20.duration,response_steppedout_2.started,response_steppedout_2.stopped,key_resp_19.keys,key_resp_19.rt,key_resp_19.duration,stim_response_instr.started,stim_response_instr.stopped,key_resp_15.keys,key_resp_15.rt,key_resp_15.duration,direction_instr_2.started,direction_instr_2.stopped,key_resp_9.keys,key_resp_9.rt,key_resp_9.duration,instr_prac.started,instr_prac.stopped,key_resp_10.keys,key_resp_10.rt,key_resp_10.duration,Stim1_display_prac.started,Stim1_display_prac.stopped,Ecc,Circle1_ori,Circle2_ori,response_prac.started,similarity,response_time,response_prac.stopped,mouse_5.x,mouse_5.y,mouse_5.leftButton,mouse_5.midButton,mouse_5.rightButton,mouse_5.clicked_name,responseprac_feedback.started,responseprac_feedback.stopped,summary2_prac.started,summary2_prac.stopped,mouse_6.x,mouse_6.y,mouse_6.leftButton,mouse_6.midButton,mouse_6.rightButton,mouse_6.clicked_name,duringprac.thisRepN,duringprac.thisTrialN,duringprac.thisN,duringprac.thisIndex,duringprac.ran,begin.started,begin.stopped,key_resp_22.keys,key_resp_22.rt,key_resp_22.duration,Stim1_display.started,Stim1_display.stopped,circle1_ori,circle2_ori,circle1_SF,circle2_SF,response.started,response.stopped,mouse.x,mouse.y,mouse.leftButton,mouse.midButton,mouse.rightButton,mouse.clicked_name,trialnumber,double_pass.thisRepN,double_pass.thisTrialN,double_pass.thisN,double_pass.thisIndex,double_pass.ran,double_pass.order,main_trial.thisRepN,main_trial.thisTrialN,main_trial.thisN,main_trial.thisIndex,main_trial.ran,main_trial.order,Trial_Counter,Catch,Frequencies,response_2.started,response_2.stopped,mouse_2.x,mouse_2.y,mouse_2.leftButton,mouse_2.midButton,mouse_2.rightButton,mouse_2.clicked_name,special_trial.started,special_trial.stopped,catch_1.started,catch_1.stopped,mouse_3.x,mouse_3.y,mouse_3.leftButton,mouse_3.midButton,mouse_3.rightButton,catchresponse,catchnumber,response_time_catch,response_sum.started,response_sum.stopped,mouse_11.x,mouse_11.y,mouse_11.leftButton,mouse_11.midButton,mouse_11.rightButton,flip_presentation_sequence_for_double_pass.started,flip_presentation_sequence_for_double_pass.stopped,goodbye.started,goodbye.stopped,key_resp_3.keys,key_resp_3.rt,key_resp_3.duration
0.001,0.0012,5fa08f46762c290fca55ec9f,2024-02-19_02h12.33.456,kallum_motion_pilot,2023.2.2,Win32,19.96007984,5fa08f46762c290fca55ec9f,65d2b6c8f2eece985d8e374c,65d2b8f6fe7a391178aea35c,,,,,,,,,,,,,,,,,,,,,,,,,,,,,,,,,,,,,,,,,,,,,,,,,,,,,,,,,,,,,,,,,,,,,,,,,,,,,,,,,,,,,,,,,,,,,,,,,,,,,,,,,,,,,,,,,,,,,,,,,,,,,,,,,,,,,,,,,,,,,,,,,
,,5fa08f46762c290fca55ec9f,2024-02-19_02h12.33.456,kallum_motion_pilot,2023.2.2,Win32,19.96007984,5fa08f46762c290fca55ec9f,65d2b6c8f2eece985d8e374c,65d2b8f6fe7a391178aea35c,0.0889,0.0893,0,0,0,130,1,sixfive,,,,,,,,,,,,,,,,,,,,,,,,,,,,,,,,,,,,,,,,,,,,,,,,,,,,,,,,,,,,,,,,,,,,,,,,,,,,,,,,,,,,,,,,,,,,,,,,,,,,,,,,,,,,,,,,,,,,,,,,,,,,,,,,,,,,,,,,,
,,5fa08f46762c290fca55ec9f,2024-02-19_02h12.33.456,kallum_motion_pilot,2023.2.2,Win32,19.96007984,5fa08f46762c290fca55ec9f,65d2b6c8f2eece985d8e374c,65d2b8f6fe7a391178aea35c,0.09,0.0902,0,1,1,96,1,fivesix,,,,,,,,,,,,,,,,,,,,,,,,,,,,,,,,,,,,,,,,,,,,,,,,,,,,,,,,,,,,,,,,,,,,,,,,,,,,,,,,,,,,,,,,,,,,,,,,,,,,,,,,,,,,,,,,,,,,,,,,,,,,,,,,,,,,,,,,,
,,5fa08f46762c290fca55ec9f,2024-02-19_02h12.33.456,kallum_motion_pilot,2023.2.2,Win32,19.96007984,5fa08f46762c290fca55ec9f,65d2b6c8f2eece985d8e374c,65d2b8f6fe7a391178aea35c,0.0906,0.0908,0,2,2,159,1,eightseven,,,,,,,,,,,,,,,,,,,,,,,,,,,,,,,,,,,,,,,,,,,,,,,,,,,,,,,,,,,,,,,,,,,,,,,,,,,,,,,,,,,,,,,,,,,,,,,,,,,,,,,,,,,,,,,,,,,,,,,,,,,,,,,,,,,,,,,,,
,,5fa08f46762c290fca55ec9f,2024-02-19_02h12.33.456,kallum_motion_pilot,2023.2.2,Win32,19.96007984,5fa08f46762c290fca55ec9f,65d2b6c8f2eece985d8e374c,65d2b8f6fe7a391178aea35c,0.0912,0.0913,0,3,3,70,1,fourtwo,,,,,,,,,,,,,,,,,,,,,,,,,,,,,,,,,,,,,,,,,,,,,,,,,,,,,,,,,,,,,,,,,,,,,,,,,,,,,,,,,,,,,,,,,,,,,,,,,,,,,,,,,,,,,,,,,,,,,,,,,,,,,,,,,,,,,,,,,
,,5fa08f46762c290fca55ec9f,2024-02-19_02h12.33.456,kallum_motion_pilot,2023.2.2,Win32,19.96007984,5fa08f46762c290fca55ec9f,65d2b6c8f2eece985d8e374c,65d2b8f6fe7a391178aea35c,0.0918,0.092,0,4,4,41,1,onethree,,,,,,,,,,,,,,,,,,,,,,,,,,,,,,,,,,,,,,,,,,,,,,,,,,,,,,,,,,,,,,,,,,,,,,,,,,,,,,,,,,,,,,,,,,,,,,,,,,,,,,,,,,,,,,,,,,,,,,,,,,,,,,,,,,,,,,,,,
,,5fa08f46762c290fca55ec9f,2024-02-19_02h12.33.456,kallum_motion_pilot,2023.2.2,Win32,19.96007984,5fa08f46762c290fca55ec9f,65d2b6c8f2eece985d8e374c,65d2b8f6fe7a391178aea35c,0.0924,0.0925,0,5,5,137,1,fiveseven,,,,,,,,,,,,,,,,,,,,,,,,,,,,,,,,,,,,,,,,,,,,,,,,,,,,,,,,,,,,,,,,,,,,,,,,,,,,,,,,,,,,,,,,,,,,,,,,,,,,,,,,,,,,,,,,,,,,,,,,,,,,,,,,,,,,,,,,,
,,5fa08f46762c290fca55ec9f,2024-02-19_02h12.33.456,kallum_motion_pilot,2023.2.2,Win32,19.96007984,5fa08f46762c290fca55ec9f,65d2b6c8f2eece985d8e374c,65d2b8f6fe7a391178aea35c,0.0928,0.093,0,6,6,58,1,twoone,,,,,,,,,,,,,,,,,,,,,,,,,,,,,,,,,,,,,,,,,,,,,,,,,,,,,,,,,,,,,,,,,,,,,,,,,,,,,,,,,,,,,,,,,,,,,,,,,,,,,,,,,,,,,,,,,,,,,,,,,,,,,,,,,,,,,,,,,
,,5fa08f46762c290fca55ec9f,2024-02-19_02h12.33.456,kallum_motion_pilot,2023.2.2,Win32,19.96007984,5fa08f46762c290fca55ec9f,65d2b6c8f2eece985d8e374c,65d2b8f6fe7a391178aea35c,0.0934,0.0935,0,7,7,47,1,fourthree,,,,,,,,,,,,,,,,,,,,,,,,,,,,,,,,,,,,,,,,,,,,,,,,,,,,,,,,,,,,,,,,,,,,,,,,,,,,,,,,,,,,,,,,,,,,,,,,,,,,,,,,,,,,,,,,,,,,,,,,,,,,,,,,,,,,,,,,,
,,5fa08f46762c290fca55ec9f,2024-02-19_02h12.33.456,kallum_motion_pilot,2023.2.2,Win32,19.96007984,5fa08f46762c290fca55ec9f,65d2b6c8f2eece985d8e374c,65d2b8f6fe7a391178aea35c,0.0939,0.0941,0,8,8,8,1,onetwo,,,,,,,,,,,,,,,,,,,,,,,,,,,,,,,,,,,,,,,,,,,,,,,,,,,,,,,,,,,,,,,,,,,,,,,,,,,,,,,,,,,,,,,,,,,,,,,,,,,,,,,,,,,,,,,,,,,,,,,,,,,,,,,,,,,,,,,,,
,,5fa08f46762c290fca55ec9f,2024-02-19_02h12.33.456,kallum_motion_pilot,2023.2.2,Win32,19.96007984,5fa08f46762c290fca55ec9f,65d2b6c8f2eece985d8e374c,65d2b8f6fe7a391178aea35c,0.0944,0.0946,0,9,9,2,1,twoone,,,,,,,,,,,,,,,,,,,,,,,,,,,,,,,,,,,,,,,,,,,,,,,,,,,,,,,,,,,,,,,,,,,,,,,,,,,,,,,,,,,,,,,,,,,,,,,,,,,,,,,,,,,,,,,,,,,,,,,,,,,,,,,,,,,,,,,,,
,,5fa08f46762c290fca55ec9f,2024-02-19_02h12.33.456,kallum_motion_pilot,2023.2.2,Win32,19.96007984,5fa08f46762c290fca55ec9f,65d2b6c8f2eece985d8e374c,65d2b8f6fe7a391178aea35c,0.095,0.0951,0,10,10,95,1,eightseven,,,,,,,,,,,,,,,,,,,,,,,,,,,,,,,,,,,,,,,,,,,,,,,,,,,,,,,,,,,,,,,,,,,,,,,,,,,,,,,,,,,,,,,,,,,,,,,,,,,,,,,,,,,,,,,,,,,,,,,,,,,,,,,,,,,,,,,,,
,,5fa08f46762c290fca55ec9f,2024-02-19_02h12.33.456,kallum_motion_pilot,2023.2.2,Win32,19.96007984,5fa08f46762c290fca55ec9f,65d2b6c8f2eece985d8e374c,65d2b8f6fe7a391178aea35c,0.0954,0.0956,0,11,11,53,1,threefour,,,,,,,,,,,,,,,,,,,,,,,,,,,,,,,,,,,,,,,,,,,,,,,,,,,,,,,,,,,,,,,,,,,,,,,,,,,,,,,,,,,,,,,,,,,,,,,,,,,,,,,,,,,,,,,,,,,,,,,,,,,,,,,,,,,,,,,,,
,,5fa08f46762c290fca55ec9f,2024-02-19_02h12.33.456,kallum_motion_pilot,2023.2.2,Win32,19.96007984,5fa08f46762c290fca55ec9f,65d2b6c8f2eece985d8e374c,65d2b8f6fe7a391178aea35c,0.0961,0.0968,0,12,12,134,1,eightsix,,,,,,,,,,,,,,,,,,,,,,,,,,,,,,,,,,,,,,,,,,,,,,,,,,,,,,,,,,,,,,,,,,,,,,,,,,,,,,,,,,,,,,,,,,,,,,,,,,,,,,,,,,,,,,,,,,,,,,,,,,,,,,,,,,,,,,,,,
,,5fa08f46762c290fca55ec9f,2024-02-19_02h12.33.456,kallum_motion_pilot,2023.2.2,Win32,19.96007984,5fa08f46762c290fca55ec9f,65d2b6c8f2eece985d8e374c,65d2b8f6fe7a391178aea35c,0.0972,0.0973,0,13,13,33,1,onethree,,,,,,,,,,,,,,,,,,,,,,,,,,,,,,,,,,,,,,,,,,,,,,,,,,,,,,,,,,,,,,,,,,,,,,,,,,,,,,,,,,,,,,,,,,,,,,,,,,,,,,,,,,,,,,,,,,,,,,,,,,,,,,,,,,,,,,,,,
,,5fa08f46762c290fca55ec9f,2024-02-19_02h12.33.456,kallum_motion_pilot,2023.2.2,Win32,19.96007984,5fa08f46762c290fca55ec9f,65d2b6c8f2eece985d8e374c,65d2b8f6fe7a391178aea35c,0.0976,0.0978,0,14,14,120,1,fivesix,,,,,,,,,,,,,,,,,,,,,,,,,,,,,,,,,,,,,,,,,,,,,,,,,,,,,,,,,,,,,,,,,,,,,,,,,,,,,,,,,,,,,,,,,,,,,,,,,,,,,,,,,,,,,,,,,,,,,,,,,,,,,,,,,,,,,,,,,
,,5fa08f46762c290fca55ec9f,2024-02-19_02h12.33.456,kallum_motion_pilot,2023.2.2,Win32,19.96007984,5fa08f46762c290fca55ec9f,65d2b6c8f2eece985d8e374c,65d2b8f6fe7a391178aea35c,0.0981,0.0984,0,15,15,103,1,eightseven,,,,,,,,,,,,,,,,,,,,,,,,,,,,,,,,,,,,,,,,,,,,,,,,,,,,,,,,,,,,,,,,,,,,,,,,,,,,,,,,,,,,,,,,,,,,,,,,,,,,,,,,,,,,,,,,,,,,,,,,,,,,,,,,,,,,,,,,,
,,5fa08f46762c290fca55ec9f,2024-02-19_02h12.33.456,kallum_motion_pilot,2023.2.2,Win32,19.96007984,5fa08f46762c290fca55ec9f,65d2b6c8f2eece985d8e374c,65d2b8f6fe7a391178aea35c,0.0986,0.0988,0,16,16,57,1,onethree,,,,,,,,,,,,,,,,,,,,,,,,,,,,,,,,,,,,,,,,,,,,,,,,,,,,,,,,,,,,,,,,,,,,,,,,,,,,,,,,,,,,,,,,,,,,,,,,,,,,,,,,,,,,,,,,,,,,,,,,,,,,,,,,,,,,,,,,,
,,5fa08f46762c290fca55ec9f,2024-02-19_02h12.33.456,kallum_motion_pilot,2023.2.2,Win32,19.96007984,5fa08f46762c290fca55ec9f,65d2b6c8f2eece985d8e374c,65d2b8f6fe7a391178aea35c,0.099,0.0992,0,17,17,61,1,threefour,,,,,,,,,,,,,,,,,,,,,,,,,,,,,,,,,,,,,,,,,,,,,,,,,,,,,,,,,,,,,,,,,,,,,,,,,,,,,,,,,,,,,,,,,,,,,,,,,,,,,,,,,,,,,,,,,,,,,,,,,,,,,,,,,,,,,,,,,
,,5fa08f46762c290fca55ec9f,2024-02-19_02h12.33.456,kallum_motion_pilot,2023.2.2,Win32,19.96007984,5fa08f46762c290fca55ec9f,65d2b6c8f2eece985d8e374c,65d2b8f6fe7a391178aea35c,0.0995,0.0997,0,18,18,136,1,fivesix,,,,,,,,,,,,,,,,,,,,,,,,,,,,,,,,,,,,,,,,,,,,,,,,,,,,,,,,,,,,,,,,,,,,,,,,,,,,,,,,,,,,,,,,,,,,,,,,,,,,,,,,,,,,,,,,,,,,,,,,,,,,,,,,,,,,,,,,,
,,5fa08f46762c290fca55ec9f,2024-02-19_02h12.33.456,kallum_motion_pilot,2023.2.2,Win32,19.96007984,5fa08f46762c290fca55ec9f,65d2b6c8f2eece985d8e374c,65d2b8f6fe7a391178aea35c,0.0999,0.1002,0,19,19,116,1,sevenfive,,,,,,,,,,,,,,,,,,,,,,,,,,,,,,,,,,,,,,,,,,,,,,,,,,,,,,,,,,,,,,,,,,,,,,,,,,,,,,,,,,,,,,,,,,,,,,,,,,,,,,,,,,,,,,,,,,,,,,,,,,,,,,,,,,,,,,,,,
,,5fa08f46762c290fca55ec9f,2024-02-19_02h12.33.456,kallum_motion_pilot,2023.2.2,Win32,19.96007984,5fa08f46762c290fca55ec9f,65d2b6c8f2eece985d8e374c,65d2b8f6fe7a391178aea35c,0.1005,0.1007,0,20,20,104,1,fivesix,,,,,,,,,,,,,,,,,,,,,,,,,,,,,,,,,,,,,,,,,,,,,,,,,,,,,,,,,,,,,,,,,,,,,,,,,,,,,,,,,,,,,,,,,,,,,,,,,,,,,,,,,,,,,,,,,,,,,,,,,,,,,,,,,,,,,,,,,
,,5fa08f46762c290fca55ec9f,2024-02-19_02h12.33.456,kallum_motion_pilot,2023.2.2,Win32,19.96007984,5fa08f46762c290fca55ec9f,65d2b6c8f2eece985d8e374c,65d2b8f6fe7a391178aea35c,0.101,0.1011,0,21,21,74,1,twoone,,,,,,,,,,,,,,,,,,,,,,,,,,,,,,,,,,,,,,,,,,,,,,,,,,,,,,,,,,,,,,,,,,,,,,,,,,,,,,,,,,,,,,,,,,,,,,,,,,,,,,,,,,,,,,,,,,,,,,,,,,,,,,,,,,,,,,,,,
,,5fa08f46762c290fca55ec9f,2024-02-19_02h12.33.456,kallum_motion_pilot,2023.2.2,Win32,19.96007984,5fa08f46762c290fca55ec9f,65d2b6c8f2eece985d8e374c,65d2b8f6fe7a391178aea35c,0.1014,0.1016,0,22,22,13,1,threefour,,,,,,,,,,,,,,,,,,,,,,,,,,,,,,,,,,,,,,,,,,,,,,,,,,,,,,,,,,,,,,,,,,,,,,,,,,,,,,,,,,,,,,,,,,,,,,,,,,,,,,,,,,,,,,,,,,,,,,,,,,,,,,,,,,,,,,,,,
,,5fa08f46762c290fca55ec9f,2024-02-19_02h12.33.456,kallum_motion_pilot,2023.2.2,Win32,19.96007984,5fa08f46762c290fca55ec9f,65d2b6c8f2eece985d8e374c,65d2b8f6fe7a391178aea35c,0.1019,0.1024,0,23,23,107,1,sixeight,,,,,,,,,,,,,,,,,,,,,,,,,,,,,,,,,,,,,,,,,,,,,,,,,,,,,,,,,,,,,,,,,,,,,,,,,,,,,,,,,,,,,,,,,,,,,,,,,,,,,,,,,,,,,,,,,,,,,,,,,,,,,,,,,,,,,,,,,
,,5fa08f46762c290fca55ec9f,2024-02-19_02h12.33.456,kallum_motion_pilot,2023.2.2,Win32,19.96007984,5fa08f46762c290fca55ec9f,65d2b6c8f2eece985d8e374c,65d2b8f6fe7a391178aea35c,0.1029,0.103,0,24,24,131,1,sixeight,,,,,,,,,,,,,,,,,,,,,,,,,,,,,,,,,,,,,,,,,,,,,,,,,,,,,,,,,,,,,,,,,,,,,,,,,,,,,,,,,,,,,,,,,,,,,,,,,,,,,,,,,,,,,,,,,,,,,,,,,,,,,,,,,,,,,,,,,
,,5fa08f46762c290fca55ec9f,2024-02-19_02h12.33.456,kallum_motion_pilot,2023.2.2,Win32,19.96007984,5fa08f46762c290fca55ec9f,65d2b6c8f2eece985d8e374c,65d2b8f6fe7a391178aea35c,0.1033,0.1036,0,25,25,23,1,fourthree,,,,,,,,,,,,,,,,,,,,,,,,,,,,,,,,,,,,,,,,,,,,,,,,,,,,,,,,,,,,,,,,,,,,,,,,,,,,,,,,,,,,,,,,,,,,,,,,,,,,,,,,,,,,,,,,,,,,,,,,,,,,,,,,,,,,,,,,,
,,5fa08f46762c290fca55ec9f,2024-02-19_02h12.33.456,kallum_motion_pilot,2023.2.2,Win32,19.96007984,5fa08f46762c290fca55ec9f,65d2b6c8f2eece985d8e374c,65d2b8f6fe7a391178aea35c,0.104,0.1042,0,26,26,50,1,twoone,,,,,,,,,,,,,,,,,,,,,,,,,,,,,,,,,,,,,,,,,,,,,,,,,,,,,,,,,,,,,,,,,,,,,,,,,,,,,,,,,,,,,,,,,,,,,,,,,,,,,,,,,,,,,,,,,,,,,,,,,,,,,,,,,,,,,,,,,
,,5fa08f46762c290fca55ec9f,2024-02-19_02h12.33.456,kallum_motion_pilot,2023.2.2,Win32,19.96007984,5fa08f46762c290fca55ec9f,65d2b6c8f2eece985d8e374c,65d2b8f6fe7a391178aea35c,0.1047,0.1051,0,27,27,59,1,twofour,,,,,,,,,,,,,,,,,,,,,,,,,,,,,,,,,,,,,,,,,,,,,,,,,,,,,,,,,,,,,,,,,,,,,,,,,,,,,,,,,,,,,,,,,,,,,,,,,,,,,,,,,,,,,,,,,,,,,,,,,,,,,,,,,,,,,,,,,
,,5fa08f46762c290fca55ec9f,2024-02-19_02h12.33.456,kallum_motion_pilot,2023.2.2,Win32,19.96007984,5fa08f46762c290fca55ec9f,65d2b6c8f2eece985d8e374c,65d2b8f6fe7a391178aea35c,0.1056,0.1078,0,28,28,143,1,eightseven,,,,,,,,,,,,,,,,,,,,,,,,,,,,,,,,,,,,,,,,,,,,,,,,,,,,,,,,,,,,,,,,,,,,,,,,,,,,,,,,,,,,,,,,,,,,,,,,,,,,,,,,,,,,,,,,,,,,,,,,,,,,,,,,,,,,,,,,,
,,5fa08f46762c290fca55ec9f,2024-02-19_02h12.33.456,kallum_motion_pilot,2023.2.2,Win32,19.96007984,5fa08f46762c290fca55ec9f,65d2b6c8f2eece985d8e374c,65d2b8f6fe7a391178aea35c,0.1083,0.1083,0,29,29,44,1,threeone,,,,,,,,,,,,,,,,,,,,,,,,,,,,,,,,,,,,,,,,,,,,,,,,,,,,,,,,,,,,,,,,,,,,,,,,,,,,,,,,,,,,,,,,,,,,,,,,,,,,,,,,,,,,,,,,,,,,,,,,,,,,,,,,,,,,,,,,,
,,5fa08f46762c290fca55ec9f,2024-02-19_02h12.33.456,kallum_motion_pilot,2023.2.2,Win32,19.96007984,5fa08f46762c290fca55ec9f,65d2b6c8f2eece985d8e374c,65d2b8f6fe7a391178aea35c,0.1087,0.1089,0,30,30,48,1,onetwo,,,,,,,,,,,,,,,,,,,,,,,,,,,,,,,,,,,,,,,,,,,,,,,,,,,,,,,,,,,,,,,,,,,,,,,,,,,,,,,,,,,,,,,,,,,,,,,,,,,,,,,,,,,,,,,,,,,,,,,,,,,,,,,,,,,,,,,,,
,,5fa08f46762c290fca55ec9f,2024-02-19_02h12.33.456,kallum_motion_pilot,2023.2.2,Win32,19.96007984,5fa08f46762c290fca55ec9f,65d2b6c8f2eece985d8e374c,65d2b8f6fe7a391178aea35c,0.1092,0.1093,0,31,31,153,1,fiveseven,,,,,,,,,,,,,,,,,,,,,,,,,,,,,,,,,,,,,,,,,,,,,,,,,,,,,,,,,,,,,,,,,,,,,,,,,,,,,,,,,,,,,,,,,,,,,,,,,,,,,,,,,,,,,,,,,,,,,,,,,,,,,,,,,,,,,,,,,
,,5fa08f46762c290fca55ec9f,2024-02-19_02h12.33.456,kallum_motion_pilot,2023.2.2,Win32,19.96007984,5fa08f46762c290fca55ec9f,65d2b6c8f2eece985d8e374c,65d2b8f6fe7a391178aea35c,0.1096,0.1098,0,32,32,124,1,sevenfive,,,,,,,,,,,,,,,,,,,,,,,,,,,,,,,,,,,,,,,,,,,,,,,,,,,,,,,,,,,,,,,,,,,,,,,,,,,,,,,,,,,,,,,,,,,,,,,,,,,,,,,,,,,,,,,,,,,,,,,,,,,,,,,,,,,,,,,,,
,,5fa08f46762c290fca55ec9f,2024-02-19_02h12.33.456,kallum_motion_pilot,2023.2.2,Win32,19.96007984,5fa08f46762c290fca55ec9f,65d2b6c8f2eece985d8e374c,65d2b8f6fe7a391178aea35c,0.11,0.1103,0,33,33,119,1,eightseven,,,,,,,,,,,,,,,,,,,,,,,,,,,,,,,,,,,,,,,,,,,,,,,,,,,,,,,,,,,,,,,,,,,,,,,,,,,,,,,,,,,,,,,,,,,,,,,,,,,,,,,,,,,,,,,,,,,,,,,,,,,,,,,,,,,,,,,,,
,,5fa08f46762c290fca55ec9f,2024-02-19_02h12.33.456,kallum_motion_pilot,2023.2.2,Win32,19.96007984,5fa08f46762c290fca55ec9f,65d2b6c8f2eece985d8e374c,65d2b8f6fe7a391178aea35c,0.1105,0.1107,0,34,34,77,1,threefour,,,,,,,,,,,,,,,,,,,,,,,,,,,,,,,,,,,,,,,,,,,,,,,,,,,,,,,,,,,,,,,,,,,,,,,,,,,,,,,,,,,,,,,,,,,,,,,,,,,,,,,,,,,,,,,,,,,,,,,,,,,,,,,,,,,,,,,,,
,,5fa08f46762c290fca55ec9f,2024-02-19_02h12.33.456,kallum_motion_pilot,2023.2.2,Win32,19.96007984,5fa08f46762c290fca55ec9f,65d2b6c8f2eece985d8e374c,65d2b8f6fe7a391178aea35c,0.111,0.1112,0,35,35,16,1,onetwo,,,,,,,,,,,,,,,,,,,,,,,,,,,,,,,,,,,,,,,,,,,,,,,,,,,,,,,,,,,,,,,,,,,,,,,,,,,,,,,,,,,,,,,,,,,,,,,,,,,,,,,,,,,,,,,,,,,,,,,,,,,,,,,,,,,,,,,,,
,,5fa08f46762c290fca55ec9f,2024-02-19_02h12.33.456,kallum_motion_pilot,2023.2.2,Win32,19.96007984,5fa08f46762c290fca55ec9f,65d2b6c8f2eece985d8e374c,65d2b8f6fe7a391178aea35c,0.1114,0.1117,0,36,36,149,1,seveneight,,,,,,,,,,,,,,,,,,,,,,,,,,,,,,,,,,,,,,,,,,,,,,,,,,,,,,,,,,,,,,,,,,,,,,,,,,,,,,,,,,,,,,,,,,,,,,,,,,,,,,,,,,,,,,,,,,,,,,,,,,,,,,,,,,,,,,,,,
,,5fa08f46762c290fca55ec9f,2024-02-19_02h12.33.456,kallum_motion_pilot,2023.2.2,Win32,19.96007984,5fa08f46762c290fca55ec9f,65d2b6c8f2eece985d8e374c,65d2b8f6fe7a391178aea35c,0.1119,0.1121,0,37,37,14,1,fourtwo,,,,,,,,,,,,,,,,,,,,,,,,,,,,,,,,,,,,,,,,,,,,,,,,,,,,,,,,,,,,,,,,,,,,,,,,,,,,,,,,,,,,,,,,,,,,,,,,,,,,,,,,,,,,,,,,,,,,,,,,,,,,,,,,,,,,,,,,,
,,5fa08f46762c290fca55ec9f,2024-02-19_02h12.33.456,kallum_motion_pilot,2023.2.2,Win32,19.96007984,5fa08f46762c290fca55ec9f,65d2b6c8f2eece985d8e374c,65d2b8f6fe7a391178aea35c,0.1123,0.1125,0,38,38,51,1,twofour,,,,,,,,,,,,,,,,,,,,,,,,,,,,,,,,,,,,,,,,,,,,,,,,,,,,,,,,,,,,,,,,,,,,,,,,,,,,,,,,,,,,,,,,,,,,,,,,,,,,,,,,,,,,,,,,,,,,,,,,,,,,,,,,,,,,,,,,,
,,5fa08f46762c290fca55ec9f,2024-02-19_02h12.33.456,kallum_motion_pilot,2023.2.2,Win32,19.96007984,5fa08f46762c290fca55ec9f,65d2b6c8f2eece985d8e374c,65d2b8f6fe7a391178aea35c,0.1128,0.113,0,39,39,101,1,seveneight,,,,,,,,,,,,,,,,,,,,,,,,,,,,,,,,,,,,,,,,,,,,,,,,,,,,,,,,,,,,,,,,,,,,,,,,,,,,,,,,,,,,,,,,,,,,,,,,,,,,,,,,,,,,,,,,,,,,,,,,,,,,,,,,,,,,,,,,,
,,5fa08f46762c290fca55ec9f,2024-02-19_02h12.33.456,kallum_motion_pilot,2023.2.2,Win32,19.96007984,5fa08f46762c290fca55ec9f,65d2b6c8f2eece985d8e374c,65d2b8f6fe7a391178aea35c,0.1132,0.1134,0,40,40,52,1,threeone,,,,,,,,,,,,,,,,,,,,,,,,,,,,,,,,,,,,,,,,,,,,,,,,,,,,,,,,,,,,,,,,,,,,,,,,,,,,,,,,,,,,,,,,,,,,,,,,,,,,,,,,,,,,,,,,,,,,,,,,,,,,,,,,,,,,,,,,,
,,5fa08f46762c290fca55ec9f,2024-02-19_02h12.33.456,kallum_motion_pilot,2023.2.2,Win32,19.96007984,5fa08f46762c290fca55ec9f,65d2b6c8f2eece985d8e374c,65d2b8f6fe7a391178aea35c,0.1136,0.1138,0,41,41,18,1,twoone,,,,,,,,,,,,,,,,,,,,,,,,,,,,,,,,,,,,,,,,,,,,,,,,,,,,,,,,,,,,,,,,,,,,,,,,,,,,,,,,,,,,,,,,,,,,,,,,,,,,,,,,,,,,,,,,,,,,,,,,,,,,,,,,,,,,,,,,,
,,5fa08f46762c290fca55ec9f,2024-02-19_02h12.33.456,kallum_motion_pilot,2023.2.2,Win32,19.96007984,5fa08f46762c290fca55ec9f,65d2b6c8f2eece985d8e374c,65d2b8f6fe7a391178aea35c,0.114,0.1142,0,42,42,86,1,eightsix,,,,,,,,,,,,,,,,,,,,,,,,,,,,,,,,,,,,,,,,,,,,,,,,,,,,,,,,,,,,,,,,,,,,,,,,,,,,,,,,,,,,,,,,,,,,,,,,,,,,,,,,,,,,,,,,,,,,,,,,,,,,,,,,,,,,,,,,,
,,5fa08f46762c290fca55ec9f,2024-02-19_02h12.33.456,kallum_motion_pilot,2023.2.2,Win32,19.96007984,5fa08f46762c290fca55ec9f,65d2b6c8f2eece985d8e374c,65d2b8f6fe7a391178aea35c,0.1145,0.1147,0,43,43,139,1,sixeight,,,,,,,,,,,,,,,,,,,,,,,,,,,,,,,,,,,,,,,,,,,,,,,,,,,,,,,,,,,,,,,,,,,,,,,,,,,,,,,,,,,,,,,,,,,,,,,,,,,,,,,,,,,,,,,,,,,,,,,,,,,,,,,,,,,,,,,,,
,,5fa08f46762c290fca55ec9f,2024-02-19_02h12.33.456,kallum_motion_pilot,2023.2.2,Win32,19.96007984,5fa08f46762c290fca55ec9f,65d2b6c8f2eece985d8e374c,65d2b8f6fe7a391178aea35c,0.1149,0.1151,0,44,44,128,1,fivesix,,,,,,,,,,,,,,,,,,,,,,,,,,,,,,,,,,,,,,,,,,,,,,,,,,,,,,,,,,,,,,,,,,,,,,,,,,,,,,,,,,,,,,,,,,,,,,,,,,,,,,,,,,,,,,,,,,,,,,,,,,,,,,,,,,,,,,,,,
,,5fa08f46762c290fca55ec9f,2024-02-19_02h12.33.456,kallum_motion_pilot,2023.2.2,Win32,19.96007984,5fa08f46762c290fca55ec9f,65d2b6c8f2eece985d8e374c,65d2b8f6fe7a391178aea35c,0.1153,0.1155,0,45,45,34,1,twoone,,,,,,,,,,,,,,,,,,,,,,,,,,,,,,,,,,,,,,,,,,,,,,,,,,,,,,,,,,,,,,,,,,,,,,,,,,,,,,,,,,,,,,,,,,,,,,,,,,,,,,,,,,,,,,,,,,,,,,,,,,,,,,,,,,,,,,,,,
,,5fa08f46762c290fca55ec9f,2024-02-19_02h12.33.456,kallum_motion_pilot,2023.2.2,Win32,19.96007984,5fa08f46762c290fca55ec9f,65d2b6c8f2eece985d8e374c,65d2b8f6fe7a391178aea35c,0.116,0.1163,0,46,46,31,1,fourthree,,,,,,,,,,,,,,,,,,,,,,,,,,,,,,,,,,,,,,,,,,,,,,,,,,,,,,,,,,,,,,,,,,,,,,,,,,,,,,,,,,,,,,,,,,,,,,,,,,,,,,,,,,,,,,,,,,,,,,,,,,,,,,,,,,,,,,,,,
,,5fa08f46762c290fca55ec9f,2024-02-19_02h12.33.456,kallum_motion_pilot,2023.2.2,Win32,19.96007984,5fa08f46762c290fca55ec9f,65d2b6c8f2eece985d8e374c,65d2b8f6fe7a391178aea35c,0.1172,0.1173,0,47,47,111,1,eightseven,,,,,,,,,,,,,,,,,,,,,,,,,,,,,,,,,,,,,,,,,,,,,,,,,,,,,,,,,,,,,,,,,,,,,,,,,,,,,,,,,,,,,,,,,,,,,,,,,,,,,,,,,,,,,,,,,,,,,,,,,,,,,,,,,,,,,,,,,
,,5fa08f46762c290fca55ec9f,2024-02-19_02h12.33.456,kallum_motion_pilot,2023.2.2,Win32,19.96007984,5fa08f46762c290fca55ec9f,65d2b6c8f2eece985d8e374c,65d2b8f6fe7a391178aea35c,0.1176,0.1178,0,48,48,102,1,eightsix,,,,,,,,,,,,,,,,,,,,,,,,,,,,,,,,,,,,,,,,,,,,,,,,,,,,,,,,,,,,,,,,,,,,,,,,,,,,,,,,,,,,,,,,,,,,,,,,,,,,,,,,,,,,,,,,,,,,,,,,,,,,,,,,,,,,,,,,,
,,5fa08f46762c290fca55ec9f,2024-02-19_02h12.33.456,kallum_motion_pilot,2023.2.2,Win32,19.96007984,5fa08f46762c290fca55ec9f,65d2b6c8f2eece985d8e374c,65d2b8f6fe7a391178aea35c,0.1181,0.1222,0,49,49,65,1,onethree,,,,,,,,,,,,,,,,,,,,,,,,,,,,,,,,,,,,,,,,,,,,,,,,,,,,,,,,,,,,,,,,,,,,,,,,,,,,,,,,,,,,,,,,,,,,,,,,,,,,,,,,,,,,,,,,,,,,,,,,,,,,,,,,,,,,,,,,,
,,5fa08f46762c290fca55ec9f,2024-02-19_02h12.33.456,kallum_motion_pilot,2023.2.2,Win32,19.96007984,5fa08f46762c290fca55ec9f,65d2b6c8f2eece985d8e374c,65d2b8f6fe7a391178aea35c,0.1236,0.124,0,50,50,79,1,eightseven,,,,,,,,,,,,,,,,,,,,,,,,,,,,,,,,,,,,,,,,,,,,,,,,,,,,,,,,,,,,,,,,,,,,,,,,,,,,,,,,,,,,,,,,,,,,,,,,,,,,,,,,,,,,,,,,,,,,,,,,,,,,,,,,,,,,,,,,,
,,5fa08f46762c290fca55ec9f,2024-02-19_02h12.33.456,kallum_motion_pilot,2023.2.2,Win32,19.96007984,5fa08f46762c290fca55ec9f,65d2b6c8f2eece985d8e374c,65d2b8f6fe7a391178aea35c,0.1247,0.1253,0,51,51,35,1,twofour,,,,,,,,,,,,,,,,,,,,,,,,,,,,,,,,,,,,,,,,,,,,,,,,,,,,,,,,,,,,,,,,,,,,,,,,,,,,,,,,,,,,,,,,,,,,,,,,,,,,,,,,,,,,,,,,,,,,,,,,,,,,,,,,,,,,,,,,,
,,5fa08f46762c290fca55ec9f,2024-02-19_02h12.33.456,kallum_motion_pilot,2023.2.2,Win32,19.96007984,5fa08f46762c290fca55ec9f,65d2b6c8f2eece985d8e374c,65d2b8f6fe7a391178aea35c,0.126,0.1263,0,52,52,92,1,sevenfive,,,,,,,,,,,,,,,,,,,,,,,,,,,,,,,,,,,,,,,,,,,,,,,,,,,,,,,,,,,,,,,,,,,,,,,,,,,,,,,,,,,,,,,,,,,,,,,,,,,,,,,,,,,,,,,,,,,,,,,,,,,,,,,,,,,,,,,,,
,,5fa08f46762c290fca55ec9f,2024-02-19_02h12.33.456,kallum_motion_pilot,2023.2.2,Win32,19.96007984,5fa08f46762c290fca55ec9f,65d2b6c8f2eece985d8e374c,65d2b8f6fe7a391178aea35c,0.1273,0.1274,0,53,53,43,1,twofour,,,,,,,,,,,,,,,,,,,,,,,,,,,,,,,,,,,,,,,,,,,,,,,,,,,,,,,,,,,,,,,,,,,,,,,,,,,,,,,,,,,,,,,,,,,,,,,,,,,,,,,,,,,,,,,,,,,,,,,,,,,,,,,,,,,,,,,,,
,,5fa08f46762c290fca55ec9f,2024-02-19_02h12.33.456,kallum_motion_pilot,2023.2.2,Win32,19.96007984,5fa08f46762c290fca55ec9f,65d2b6c8f2eece985d8e374c,65d2b8f6fe7a391178aea35c,0.1277,0.128,0,54,54,93,1,seveneight,,,,,,,,,,,,,,,,,,,,,,,,,,,,,,,,,,,,,,,,,,,,,,,,,,,,,,,,,,,,,,,,,,,,,,,,,,,,,,,,,,,,,,,,,,,,,,,,,,,,,,,,,,,,,,,,,,,,,,,,,,,,,,,,,,,,,,,,,
,,5fa08f46762c290fca55ec9f,2024-02-19_02h12.33.456,kallum_motion_pilot,2023.2.2,Win32,19.96007984,5fa08f46762c290fca55ec9f,65d2b6c8f2eece985d8e374c,65d2b8f6fe7a391178aea35c,0.1283,0.1285,0,55,55,110,1,eightsix,,,,,,,,,,,,,,,,,,,,,,,,,,,,,,,,,,,,,,,,,,,,,,,,,,,,,,,,,,,,,,,,,,,,,,,,,,,,,,,,,,,,,,,,,,,,,,,,,,,,,,,,,,,,,,,,,,,,,,,,,,,,,,,,,,,,,,,,,
,,5fa08f46762c290fca55ec9f,2024-02-19_02h12.33.456,kallum_motion_pilot,2023.2.2,Win32,19.96007984,5fa08f46762c290fca55ec9f,65d2b6c8f2eece985d8e374c,65d2b8f6fe7a391178aea35c,0.1301,0.1304,0,56,56,27,1,twofour,,,,,,,,,,,,,,,,,,,,,,,,,,,,,,,,,,,,,,,,,,,,,,,,,,,,,,,,,,,,,,,,,,,,,,,,,,,,,,,,,,,,,,,,,,,,,,,,,,,,,,,,,,,,,,,,,,,,,,,,,,,,,,,,,,,,,,,,,
,,5fa08f46762c290fca55ec9f,2024-02-19_02h12.33.456,kallum_motion_pilot,2023.2.2,Win32,19.96007984,5fa08f46762c290fca55ec9f,65d2b6c8f2eece985d8e374c,65d2b8f6fe7a391178aea35c,0.1307,0.1309,0,57,57,30,1,fourtwo,,,,,,,,,,,,,,,,,,,,,,,,,,,,,,,,,,,,,,,,,,,,,,,,,,,,,,,,,,,,,,,,,,,,,,,,,,,,,,,,,,,,,,,,,,,,,,,,,,,,,,,,,,,,,,,,,,,,,,,,,,,,,,,,,,,,,,,,,
,,5fa08f46762c290fca55ec9f,2024-02-19_02h12.33.456,kallum_motion_pilot,2023.2.2,Win32,19.96007984,5fa08f46762c290fca55ec9f,65d2b6c8f2eece985d8e374c,65d2b8f6fe7a391178aea35c,0.1311,0.1313,0,58,58,10,1,twoone,,,,,,,,,,,,,,,,,,,,,,,,,,,,,,,,,,,,,,,,,,,,,,,,,,,,,,,,,,,,,,,,,,,,,,,,,,,,,,,,,,,,,,,,,,,,,,,,,,,,,,,,,,,,,,,,,,,,,,,,,,,,,,,,,,,,,,,,,
,,5fa08f46762c290fca55ec9f,2024-02-19_02h12.33.456,kallum_motion_pilot,2023.2.2,Win32,19.96007984,5fa08f46762c290fca55ec9f,65d2b6c8f2eece985d8e374c,65d2b8f6fe7a391178aea35c,0.1316,0.1318,0,59,59,90,1,sixfive,,,,,,,,,,,,,,,,,,,,,,,,,,,,,,,,,,,,,,,,,,,,,,,,,,,,,,,,,,,,,,,,,,,,,,,,,,,,,,,,,,,,,,,,,,,,,,,,,,,,,,,,,,,,,,,,,,,,,,,,,,,,,,,,,,,,,,,,,
,,5fa08f46762c290fca55ec9f,2024-02-19_02h12.33.456,kallum_motion_pilot,2023.2.2,Win32,19.96007984,5fa08f46762c290fca55ec9f,65d2b6c8f2eece985d8e374c,65d2b8f6fe7a391178aea35c,0.1319,0.1321,0,60,60,129,1,fiveseven,,,,,,,,,,,,,,,,,,,,,,,,,,,,,,,,,,,,,,,,,,,,,,,,,,,,,,,,,,,,,,,,,,,,,,,,,,,,,,,,,,,,,,,,,,,,,,,,,,,,,,,,,,,,,,,,,,,,,,,,,,,,,,,,,,,,,,,,,
,,5fa08f46762c290fca55ec9f,2024-02-19_02h12.33.456,kallum_motion_pilot,2023.2.2,Win32,19.96007984,5fa08f46762c290fca55ec9f,65d2b6c8f2eece985d8e374c,65d2b8f6fe7a391178aea35c,0.1324,0.1326,0,61,61,32,1,onetwo,,,,,,,,,,,,,,,,,,,,,,,,,,,,,,,,,,,,,,,,,,,,,,,,,,,,,,,,,,,,,,,,,,,,,,,,,,,,,,,,,,,,,,,,,,,,,,,,,,,,,,,,,,,,,,,,,,,,,,,,,,,,,,,,,,,,,,,,,
,,5fa08f46762c290fca55ec9f,2024-02-19_02h12.33.456,kallum_motion_pilot,2023.2.2,Win32,19.96007984,5fa08f46762c290fca55ec9f,65d2b6c8f2eece985d8e374c,65d2b8f6fe7a391178aea35c,0.1329,0.133,0,62,62,5,1,threefour,,,,,,,,,,,,,,,,,,,,,,,,,,,,,,,,,,,,,,,,,,,,,,,,,,,,,,,,,,,,,,,,,,,,,,,,,,,,,,,,,,,,,,,,,,,,,,,,,,,,,,,,,,,,,,,,,,,,,,,,,,,,,,,,,,,,,,,,,
,,5fa08f46762c290fca55ec9f,2024-02-19_02h12.33.456,kallum_motion_pilot,2023.2.2,Win32,19.96007984,5fa08f46762c290fca55ec9f,65d2b6c8f2eece985d8e374c,65d2b8f6fe7a391178aea35c,0.1333,0.1336,0,63,63,78,1,fourtwo,,,,,,,,,,,,,,,,,,,,,,,,,,,,,,,,,,,,,,,,,,,,,,,,,,,,,,,,,,,,,,,,,,,,,,,,,,,,,,,,,,,,,,,,,,,,,,,,,,,,,,,,,,,,,,,,,,,,,,,,,,,,,,,,,,,,,,,,,
,,5fa08f46762c290fca55ec9f,2024-02-19_02h12.33.456,kallum_motion_pilot,2023.2.2,Win32,19.96007984,5fa08f46762c290fca55ec9f,65d2b6c8f2eece985d8e374c,65d2b8f6fe7a391178aea35c,0.1338,0.134,0,64,64,152,1,fivesix,,,,,,,,,,,,,,,,,,,,,,,,,,,,,,,,,,,,,,,,,,,,,,,,,,,,,,,,,,,,,,,,,,,,,,,,,,,,,,,,,,,,,,,,,,,,,,,,,,,,,,,,,,,,,,,,,,,,,,,,,,,,,,,,,,,,,,,,,
,,5fa08f46762c290fca55ec9f,2024-02-19_02h12.33.456,kallum_motion_pilot,2023.2.2,Win32,19.96007984,5fa08f46762c290fca55ec9f,65d2b6c8f2eece985d8e374c,65d2b8f6fe7a391178aea35c,0.1342,0.1344,0,65,65,127,1,eightseven,,,,,,,,,,,,,,,,,,,,,,,,,,,,,,,,,,,,,,,,,,,,,,,,,,,,,,,,,,,,,,,,,,,,,,,,,,,,,,,,,,,,,,,,,,,,,,,,,,,,,,,,,,,,,,,,,,,,,,,,,,,,,,,,,,,,,,,,,
,,5fa08f46762c290fca55ec9f,2024-02-19_02h12.33.456,kallum_motion_pilot,2023.2.2,Win32,19.96007984,5fa08f46762c290fca55ec9f,65d2b6c8f2eece985d8e374c,65d2b8f6fe7a391178aea35c,0.1348,0.1349,0,66,66,19,1,twofour,,,,,,,,,,,,,,,,,,,,,,,,,,,,,,,,,,,,,,,,,,,,,,,,,,,,,,,,,,,,,,,,,,,,,,,,,,,,,,,,,,,,,,,,,,,,,,,,,,,,,,,,,,,,,,,,,,,,,,,,,,,,,,,,,,,,,,,,,
,,5fa08f46762c290fca55ec9f,2024-02-19_02h12.33.456,kallum_motion_pilot,2023.2.2,Win32,19.96007984,5fa08f46762c290fca55ec9f,65d2b6c8f2eece985d8e374c,65d2b8f6fe7a391178aea35c,0.1351,0.1356,0,67,67,100,1,sevenfive,,,,,,,,,,,,,,,,,,,,,,,,,,,,,,,,,,,,,,,,,,,,,,,,,,,,,,,,,,,,,,,,,,,,,,,,,,,,,,,,,,,,,,,,,,,,,,,,,,,,,,,,,,,,,,,,,,,,,,,,,,,,,,,,,,,,,,,,,
,,5fa08f46762c290fca55ec9f,2024-02-19_02h12.33.456,kallum_motion_pilot,2023.2.2,Win32,19.96007984,5fa08f46762c290fca55ec9f,65d2b6c8f2eece985d8e374c,65d2b8f6fe7a391178aea35c,0.1361,0.1364,0,68,68,83,1,sixeight,,,,,,,,,,,,,,,,,,,,,,,,,,,,,,,,,,,,,,,,,,,,,,,,,,,,,,,,,,,,,,,,,,,,,,,,,,,,,,,,,,,,,,,,,,,,,,,,,,,,,,,,,,,,,,,,,,,,,,,,,,,,,,,,,,,,,,,,,
,,5fa08f46762c290fca55ec9f,2024-02-19_02h12.33.456,kallum_motion_pilot,2023.2.2,Win32,19.96007984,5fa08f46762c290fca55ec9f,65d2b6c8f2eece985d8e374c,65d2b8f6fe7a391178aea35c,0.1371,0.1372,0,69,69,15,1,fourthree,,,,,,,,,,,,,,,,,,,,,,,,,,,,,,,,,,,,,,,,,,,,,,,,,,,,,,,,,,,,,,,,,,,,,,,,,,,,,,,,,,,,,,,,,,,,,,,,,,,,,,,,,,,,,,,,,,,,,,,,,,,,,,,,,,,,,,,,,
,,5fa08f46762c290fca55ec9f,2024-02-19_02h12.33.456,kallum_motion_pilot,2023.2.2,Win32,19.96007984,5fa08f46762c290fca55ec9f,65d2b6c8f2eece985d8e374c,65d2b8f6fe7a391178aea35c,0.1376,0.1377,0,70,70,82,1,sixfive,,,,,,,,,,,,,,,,,,,,,,,,,,,,,,,,,,,,,,,,,,,,,,,,,,,,,,,,,,,,,,,,,,,,,,,,,,,,,,,,,,,,,,,,,,,,,,,,,,,,,,,,,,,,,,,,,,,,,,,,,,,,,,,,,,,,,,,,,
,,5fa08f46762c290fca55ec9f,2024-02-19_02h12.33.456,kallum_motion_pilot,2023.2.2,Win32,19.96007984,5fa08f46762c290fca55ec9f,65d2b6c8f2eece985d8e374c,65d2b8f6fe7a391178aea35c,0.1382,0.1383,0,71,71,126,1,eightsix,,,,,,,,,,,,,,,,,,,,,,,,,,,,,,,,,,,,,,,,,,,,,,,,,,,,,,,,,,,,,,,,,,,,,,,,,,,,,,,,,,,,,,,,,,,,,,,,,,,,,,,,,,,,,,,,,,,,,,,,,,,,,,,,,,,,,,,,,
,,5fa08f46762c290fca55ec9f,2024-02-19_02h12.33.456,kallum_motion_pilot,2023.2.2,Win32,19.96007984,5fa08f46762c290fca55ec9f,65d2b6c8f2eece985d8e374c,65d2b8f6fe7a391178aea35c,0.139,0.1394,0,72,72,62,1,fourtwo,,,,,,,,,,,,,,,,,,,,,,,,,,,,,,,,,,,,,,,,,,,,,,,,,,,,,,,,,,,,,,,,,,,,,,,,,,,,,,,,,,,,,,,,,,,,,,,,,,,,,,,,,,,,,,,,,,,,,,,,,,,,,,,,,,,,,,,,,
,,5fa08f46762c290fca55ec9f,2024-02-19_02h12.33.456,kallum_motion_pilot,2023.2.2,Win32,19.96007984,5fa08f46762c290fca55ec9f,65d2b6c8f2eece985d8e374c,65d2b8f6fe7a391178aea35c,0.1399,0.1402,0,73,73,141,1,seveneight,,,,,,,,,,,,,,,,,,,,,,,,,,,,,,,,,,,,,,,,,,,,,,,,,,,,,,,,,,,,,,,,,,,,,,,,,,,,,,,,,,,,,,,,,,,,,,,,,,,,,,,,,,,,,,,,,,,,,,,,,,,,,,,,,,,,,,,,,
,,5fa08f46762c290fca55ec9f,2024-02-19_02h12.33.456,kallum_motion_pilot,2023.2.2,Win32,19.96007984,5fa08f46762c290fca55ec9f,65d2b6c8f2eece985d8e374c,65d2b8f6fe7a391178aea35c,0.141,0.1413,0,74,74,29,1,threefour,,,,,,,,,,,,,,,,,,,,,,,,,,,,,,,,,,,,,,,,,,,,,,,,,,,,,,,,,,,,,,,,,,,,,,,,,,,,,,,,,,,,,,,,,,,,,,,,,,,,,,,,,,,,,,,,,,,,,,,,,,,,,,,,,,,,,,,,,
,,5fa08f46762c290fca55ec9f,2024-02-19_02h12.33.456,kallum_motion_pilot,2023.2.2,Win32,19.96007984,5fa08f46762c290fca55ec9f,65d2b6c8f2eece985d8e374c,65d2b8f6fe7a391178aea35c,0.1416,0.1418,0,75,75,56,1,onetwo,,,,,,,,,,,,,,,,,,,,,,,,,,,,,,,,,,,,,,,,,,,,,,,,,,,,,,,,,,,,,,,,,,,,,,,,,,,,,,,,,,,,,,,,,,,,,,,,,,,,,,,,,,,,,,,,,,,,,,,,,,,,,,,,,,,,,,,,,
,,5fa08f46762c290fca55ec9f,2024-02-19_02h12.33.456,kallum_motion_pilot,2023.2.2,Win32,19.96007984,5fa08f46762c290fca55ec9f,65d2b6c8f2eece985d8e374c,65d2b8f6fe7a391178aea35c,0.1421,0.1423,0,76,76,20,1,threeone,,,,,,,,,,,,,,,,,,,,,,,,,,,,,,,,,,,,,,,,,,,,,,,,,,,,,,,,,,,,,,,,,,,,,,,,,,,,,,,,,,,,,,,,,,,,,,,,,,,,,,,,,,,,,,,,,,,,,,,,,,,,,,,,,,,,,,,,,
,,5fa08f46762c290fca55ec9f,2024-02-19_02h12.33.456,kallum_motion_pilot,2023.2.2,Win32,19.96007984,5fa08f46762c290fca55ec9f,65d2b6c8f2eece985d8e374c,65d2b8f6fe7a391178aea35c,0.1426,0.1428,0,77,77,161,1,fiveseven,,,,,,,,,,,,,,,,,,,,,,,,,,,,,,,,,,,,,,,,,,,,,,,,,,,,,,,,,,,,,,,,,,,,,,,,,,,,,,,,,,,,,,,,,,,,,,,,,,,,,,,,,,,,,,,,,,,,,,,,,,,,,,,,,,,,,,,,,
,,5fa08f46762c290fca55ec9f,2024-02-19_02h12.33.456,kallum_motion_pilot,2023.2.2,Win32,19.96007984,5fa08f46762c290fca55ec9f,65d2b6c8f2eece985d8e374c,65d2b8f6fe7a391178aea35c,0.143,0.1432,0,78,78,87,1,eightseven,,,,,,,,,,,,,,,,,,,,,,,,,,,,,,,,,,,,,,,,,,,,,,,,,,,,,,,,,,,,,,,,,,,,,,,,,,,,,,,,,,,,,,,,,,,,,,,,,,,,,,,,,,,,,,,,,,,,,,,,,,,,,,,,,,,,,,,,,
,,5fa08f46762c290fca55ec9f,2024-02-19_02h12.33.456,kallum_motion_pilot,2023.2.2,Win32,19.96007984,5fa08f46762c290fca55ec9f,65d2b6c8f2eece985d8e374c,65d2b8f6fe7a391178aea35c,0.1434,0.1436,0,79,79,155,1,sixeight,,,,,,,,,,,,,,,,,,,,,,,,,,,,,,,,,,,,,,,,,,,,,,,,,,,,,,,,,,,,,,,,,,,,,,,,,,,,,,,,,,,,,,,,,,,,,,,,,,,,,,,,,,,,,,,,,,,,,,,,,,,,,,,,,,,,,,,,,
,,5fa08f46762c290fca55ec9f,2024-02-19_02h12.33.456,kallum_motion_pilot,2023.2.2,Win32,19.96007984,5fa08f46762c290fca55ec9f,65d2b6c8f2eece985d8e374c,65d2b8f6fe7a391178aea35c,0.1439,0.1441,0,80,80,73,1,onethree,,,,,,,,,,,,,,,,,,,,,,,,,,,,,,,,,,,,,,,,,,,,,,,,,,,,,,,,,,,,,,,,,,,,,,,,,,,,,,,,,,,,,,,,,,,,,,,,,,,,,,,,,,,,,,,,,,,,,,,,,,,,,,,,,,,,,,,,,
,,5fa08f46762c290fca55ec9f,2024-02-19_02h12.33.456,kallum_motion_pilot,2023.2.2,Win32,19.96007984,5fa08f46762c290fca55ec9f,65d2b6c8f2eece985d8e374c,65d2b8f6fe7a391178aea35c,0.1443,0.1445,0,81,81,154,1,sixfive,,,,,,,,,,,,,,,,,,,,,,,,,,,,,,,,,,,,,,,,,,,,,,,,,,,,,,,,,,,,,,,,,,,,,,,,,,,,,,,,,,,,,,,,,,,,,,,,,,,,,,,,,,,,,,,,,,,,,,,,,,,,,,,,,,,,,,,,,
,,5fa08f46762c290fca55ec9f,2024-02-19_02h12.33.456,kallum_motion_pilot,2023.2.2,Win32,19.96007984,5fa08f46762c290fca55ec9f,65d2b6c8f2eece985d8e374c,65d2b8f6fe7a391178aea35c,0.1448,0.145,0,82,82,140,1,sevenfive,,,,,,,,,,,,,,,,,,,,,,,,,,,,,,,,,,,,,,,,,,,,,,,,,,,,,,,,,,,,,,,,,,,,,,,,,,,,,,,,,,,,,,,,,,,,,,,,,,,,,,,,,,,,,,,,,,,,,,,,,,,,,,,,,,,,,,,,,
,,5fa08f46762c290fca55ec9f,2024-02-19_02h12.33.456,kallum_motion_pilot,2023.2.2,Win32,19.96007984,5fa08f46762c290fca55ec9f,65d2b6c8f2eece985d8e374c,65d2b8f6fe7a391178aea35c,0.1452,0.1455,0,83,83,125,1,seveneight,,,,,,,,,,,,,,,,,,,,,,,,,,,,,,,,,,,,,,,,,,,,,,,,,,,,,,,,,,,,,,,,,,,,,,,,,,,,,,,,,,,,,,,,,,,,,,,,,,,,,,,,,,,,,,,,,,,,,,,,,,,,,,,,,,,,,,,,,
,,5fa08f46762c290fca55ec9f,2024-02-19_02h12.33.456,kallum_motion_pilot,2023.2.2,Win32,19.96007984,5fa08f46762c290fca55ec9f,65d2b6c8f2eece985d8e374c,65d2b8f6fe7a391178aea35c,0.1456,0.1461,0,84,84,85,1,seveneight,,,,,,,,,,,,,,,,,,,,,,,,,,,,,,,,,,,,,,,,,,,,,,,,,,,,,,,,,,,,,,,,,,,,,,,,,,,,,,,,,,,,,,,,,,,,,,,,,,,,,,,,,,,,,,,,,,,,,,,,,,,,,,,,,,,,,,,,,
,,5fa08f46762c290fca55ec9f,2024-02-19_02h12.33.456,kallum_motion_pilot,2023.2.2,Win32,19.96007984,5fa08f46762c290fca55ec9f,65d2b6c8f2eece985d8e374c,65d2b8f6fe7a391178aea35c,0.1472,0.1473,0,85,85,89,1,fiveseven,,,,,,,,,,,,,,,,,,,,,,,,,,,,,,,,,,,,,,,,,,,,,,,,,,,,,,,,,,,,,,,,,,,,,,,,,,,,,,,,,,,,,,,,,,,,,,,,,,,,,,,,,,,,,,,,,,,,,,,,,,,,,,,,,,,,,,,,,
,,5fa08f46762c290fca55ec9f,2024-02-19_02h12.33.456,kallum_motion_pilot,2023.2.2,Win32,19.96007984,5fa08f46762c290fca55ec9f,65d2b6c8f2eece985d8e374c,65d2b8f6fe7a391178aea35c,0.1476,0.1478,0,86,86,147,1,sixeight,,,,,,,,,,,,,,,,,,,,,,,,,,,,,,,,,,,,,,,,,,,,,,,,,,,,,,,,,,,,,,,,,,,,,,,,,,,,,,,,,,,,,,,,,,,,,,,,,,,,,,,,,,,,,,,,,,,,,,,,,,,,,,,,,,,,,,,,,
,,5fa08f46762c290fca55ec9f,2024-02-19_02h12.33.456,kallum_motion_pilot,2023.2.2,Win32,19.96007984,5fa08f46762c290fca55ec9f,65d2b6c8f2eece985d8e374c,65d2b8f6fe7a391178aea35c,0.1481,0.1482,0,87,87,26,1,twoone,,,,,,,,,,,,,,,,,,,,,,,,,,,,,,,,,,,,,,,,,,,,,,,,,,,,,,,,,,,,,,,,,,,,,,,,,,,,,,,,,,,,,,,,,,,,,,,,,,,,,,,,,,,,,,,,,,,,,,,,,,,,,,,,,,,,,,,,,
,,5fa08f46762c290fca55ec9f,2024-02-19_02h12.33.456,kallum_motion_pilot,2023.2.2,Win32,19.96007984,5fa08f46762c290fca55ec9f,65d2b6c8f2eece985d8e374c,65d2b8f6fe7a391178aea35c,0.1485,0.1487,0,88,88,67,1,twofour,,,,,,,,,,,,,,,,,,,,,,,,,,,,,,,,,,,,,,,,,,,,,,,,,,,,,,,,,,,,,,,,,,,,,,,,,,,,,,,,,,,,,,,,,,,,,,,,,,,,,,,,,,,,,,,,,,,,,,,,,,,,,,,,,,,,,,,,,
,,5fa08f46762c290fca55ec9f,2024-02-19_02h12.33.456,kallum_motion_pilot,2023.2.2,Win32,19.96007984,5fa08f46762c290fca55ec9f,65d2b6c8f2eece985d8e374c,65d2b8f6fe7a391178aea35c,0.1489,0.1492,0,89,89,36,1,threeone,,,,,,,,,,,,,,,,,,,,,,,,,,,,,,,,,,,,,,,,,,,,,,,,,,,,,,,,,,,,,,,,,,,,,,,,,,,,,,,,,,,,,,,,,,,,,,,,,,,,,,,,,,,,,,,,,,,,,,,,,,,,,,,,,,,,,,,,,
,,5fa08f46762c290fca55ec9f,2024-02-19_02h12.33.456,kallum_motion_pilot,2023.2.2,Win32,19.96007984,5fa08f46762c290fca55ec9f,65d2b6c8f2eece985d8e374c,65d2b8f6fe7a391178aea35c,0.1494,0.1496,0,90,90,88,1,fivesix,,,,,,,,,,,,,,,,,,,,,,,,,,,,,,,,,,,,,,,,,,,,,,,,,,,,,,,,,,,,,,,,,,,,,,,,,,,,,,,,,,,,,,,,,,,,,,,,,,,,,,,,,,,,,,,,,,,,,,,,,,,,,,,,,,,,,,,,,
,,5fa08f46762c290fca55ec9f,2024-02-19_02h12.33.456,kallum_motion_pilot,2023.2.2,Win32,19.96007984,5fa08f46762c290fca55ec9f,65d2b6c8f2eece985d8e374c,65d2b8f6fe7a391178aea35c,0.1499,0.1501,0,91,91,156,1,sevenfive,,,,,,,,,,,,,,,,,,,,,,,,,,,,,,,,,,,,,,,,,,,,,,,,,,,,,,,,,,,,,,,,,,,,,,,,,,,,,,,,,,,,,,,,,,,,,,,,,,,,,,,,,,,,,,,,,,,,,,,,,,,,,,,,,,,,,,,,,
,,5fa08f46762c290fca55ec9f,2024-02-19_02h12.33.456,kallum_motion_pilot,2023.2.2,Win32,19.96007984,5fa08f46762c290fca55ec9f,65d2b6c8f2eece985d8e374c,65d2b8f6fe7a391178aea35c,0.1503,0.1505,0,92,92,94,1,eightsix,,,,,,,,,,,,,,,,,,,,,,,,,,,,,,,,,,,,,,,,,,,,,,,,,,,,,,,,,,,,,,,,,,,,,,,,,,,,,,,,,,,,,,,,,,,,,,,,,,,,,,,,,,,,,,,,,,,,,,,,,,,,,,,,,,,,,,,,,
,,5fa08f46762c290fca55ec9f,2024-02-19_02h12.33.456,kallum_motion_pilot,2023.2.2,Win32,19.96007984,5fa08f46762c290fca55ec9f,65d2b6c8f2eece985d8e374c,65d2b8f6fe7a391178aea35c,0.1507,0.151,0,93,93,151,1,eightseven,,,,,,,,,,,,,,,,,,,,,,,,,,,,,,,,,,,,,,,,,,,,,,,,,,,,,,,,,,,,,,,,,,,,,,,,,,,,,,,,,,,,,,,,,,,,,,,,,,,,,,,,,,,,,,,,,,,,,,,,,,,,,,,,,,,,,,,,,
,,5fa08f46762c290fca55ec9f,2024-02-19_02h12.33.456,kallum_motion_pilot,2023.2.2,Win32,19.96007984,5fa08f46762c290fca55ec9f,65d2b6c8f2eece985d8e374c,65d2b8f6fe7a391178aea35c,0.1512,0.1514,0,94,94,135,1,eightseven,,,,,,,,,,,,,,,,,,,,,,,,,,,,,,,,,,,,,,,,,,,,,,,,,,,,,,,,,,,,,,,,,,,,,,,,,,,,,,,,,,,,,,,,,,,,,,,,,,,,,,,,,,,,,,,,,,,,,,,,,,,,,,,,,,,,,,,,,
,,5fa08f46762c290fca55ec9f,2024-02-19_02h12.33.456,kallum_motion_pilot,2023.2.2,Win32,19.96007984,5fa08f46762c290fca55ec9f,65d2b6c8f2eece985d8e374c,65d2b8f6fe7a391178aea35c,0.1517,0.1523,0,95,95,122,1,sixfive,,,,,,,,,,,,,,,,,,,,,,,,,,,,,,,,,,,,,,,,,,,,,,,,,,,,,,,,,,,,,,,,,,,,,,,,,,,,,,,,,,,,,,,,,,,,,,,,,,,,,,,,,,,,,,,,,,,,,,,,,,,,,,,,,,,,,,,,,
,,5fa08f46762c290fca55ec9f,2024-02-19_02h12.33.456,kallum_motion_pilot,2023.2.2,Win32,19.96007984,5fa08f46762c290fca55ec9f,65d2b6c8f2eece985d8e374c,65d2b8f6fe7a391178aea35c,0.1529,0.1533,0,96,96,75,1,twofour,,,,,,,,,,,,,,,,,,,,,,,,,,,,,,,,,,,,,,,,,,,,,,,,,,,,,,,,,,,,,,,,,,,,,,,,,,,,,,,,,,,,,,,,,,,,,,,,,,,,,,,,,,,,,,,,,,,,,,,,,,,,,,,,,,,,,,,,,
,,5fa08f46762c290fca55ec9f,2024-02-19_02h12.33.456,kallum_motion_pilot,2023.2.2,Win32,19.96007984,5fa08f46762c290fca55ec9f,65d2b6c8f2eece985d8e374c,65d2b8f6fe7a391178aea35c,0.1537,0.1538,0,97,97,97,1,fiveseven,,,,,,,,,,,,,,,,,,,,,,,,,,,,,,,,,,,,,,,,,,,,,,,,,,,,,,,,,,,,,,,,,,,,,,,,,,,,,,,,,,,,,,,,,,,,,,,,,,,,,,,,,,,,,,,,,,,,,,,,,,,,,,,,,,,,,,,,,
,,5fa08f46762c290fca55ec9f,2024-02-19_02h12.33.456,kallum_motion_pilot,2023.2.2,Win32,19.96007984,5fa08f46762c290fca55ec9f,65d2b6c8f2eece985d8e374c,65d2b8f6fe7a391178aea35c,0.1541,0.1543,0,98,98,106,1,sixfive,,,,,,,,,,,,,,,,,,,,,,,,,,,,,,,,,,,,,,,,,,,,,,,,,,,,,,,,,,,,,,,,,,,,,,,,,,,,,,,,,,,,,,,,,,,,,,,,,,,,,,,,,,,,,,,,,,,,,,,,,,,,,,,,,,,,,,,,,
,,5fa08f46762c290fca55ec9f,2024-02-19_02h12.33.456,kallum_motion_pilot,2023.2.2,Win32,19.96007984,5fa08f46762c290fca55ec9f,65d2b6c8f2eece985d8e374c,65d2b8f6fe7a391178aea35c,0.1545,0.1547,0,99,99,28,1,threeone,,,,,,,,,,,,,,,,,,,,,,,,,,,,,,,,,,,,,,,,,,,,,,,,,,,,,,,,,,,,,,,,,,,,,,,,,,,,,,,,,,,,,,,,,,,,,,,,,,,,,,,,,,,,,,,,,,,,,,,,,,,,,,,,,,,,,,,,,
,,5fa08f46762c290fca55ec9f,2024-02-19_02h12.33.456,kallum_motion_pilot,2023.2.2,Win32,19.96007984,5fa08f46762c290fca55ec9f,65d2b6c8f2eece985d8e374c,65d2b8f6fe7a391178aea35c,0.1551,0.1552,0,100,100,112,1,fivesix,,,,,,,,,,,,,,,,,,,,,,,,,,,,,,,,,,,,,,,,,,,,,,,,,,,,,,,,,,,,,,,,,,,,,,,,,,,,,,,,,,,,,,,,,,,,,,,,,,,,,,,,,,,,,,,,,,,,,,,,,,,,,,,,,,,,,,,,,
,,5fa08f46762c290fca55ec9f,2024-02-19_02h12.33.456,kallum_motion_pilot,2023.2.2,Win32,19.96007984,5fa08f46762c290fca55ec9f,65d2b6c8f2eece985d8e374c,65d2b8f6fe7a391178aea35c,0.1555,0.1557,0,101,101,7,1,fourthree,,,,,,,,,,,,,,,,,,,,,,,,,,,,,,,,,,,,,,,,,,,,,,,,,,,,,,,,,,,,,,,,,,,,,,,,,,,,,,,,,,,,,,,,,,,,,,,,,,,,,,,,,,,,,,,,,,,,,,,,,,,,,,,,,,,,,,,,,
,,5fa08f46762c290fca55ec9f,2024-02-19_02h12.33.456,kallum_motion_pilot,2023.2.2,Win32,19.96007984,5fa08f46762c290fca55ec9f,65d2b6c8f2eece985d8e374c,65d2b8f6fe7a391178aea35c,0.1563,0.1568,0,102,102,68,1,threeone,,,,,,,,,,,,,,,,,,,,,,,,,,,,,,,,,,,,,,,,,,,,,,,,,,,,,,,,,,,,,,,,,,,,,,,,,,,,,,,,,,,,,,,,,,,,,,,,,,,,,,,,,,,,,,,,,,,,,,,,,,,,,,,,,,,,,,,,,
,,5fa08f46762c290fca55ec9f,2024-02-19_02h12.33.456,kallum_motion_pilot,2023.2.2,Win32,19.96007984,5fa08f46762c290fca55ec9f,65d2b6c8f2eece985d8e374c,65d2b8f6fe7a391178aea35c,0.1572,0.1574,0,103,103,39,1,fourthree,,,,,,,,,,,,,,,,,,,,,,,,,,,,,,,,,,,,,,,,,,,,,,,,,,,,,,,,,,,,,,,,,,,,,,,,,,,,,,,,,,,,,,,,,,,,,,,,,,,,,,,,,,,,,,,,,,,,,,,,,,,,,,,,,,,,,,,,,
,,5fa08f46762c290fca55ec9f,2024-02-19_02h12.33.456,kallum_motion_pilot,2023.2.2,Win32,19.96007984,5fa08f46762c290fca55ec9f,65d2b6c8f2eece985d8e374c,65d2b8f6fe7a391178aea35c,0.158,0.1581,0,104,104,17,1,onethree,,,,,,,,,,,,,,,,,,,,,,,,,,,,,,,,,,,,,,,,,,,,,,,,,,,,,,,,,,,,,,,,,,,,,,,,,,,,,,,,,,,,,,,,,,,,,,,,,,,,,,,,,,,,,,,,,,,,,,,,,,,,,,,,,,,,,,,,,
,,5fa08f46762c290fca55ec9f,2024-02-19_02h12.33.456,kallum_motion_pilot,2023.2.2,Win32,19.96007984,5fa08f46762c290fca55ec9f,65d2b6c8f2eece985d8e374c,65d2b8f6fe7a391178aea35c,0.1584,0.1588,0,105,105,115,1,sixeight,,,,,,,,,,,,,,,,,,,,,,,,,,,,,,,,,,,,,,,,,,,,,,,,,,,,,,,,,,,,,,,,,,,,,,,,,,,,,,,,,,,,,,,,,,,,,,,,,,,,,,,,,,,,,,,,,,,,,,,,,,,,,,,,,,,,,,,,,
,,5fa08f46762c290fca55ec9f,2024-02-19_02h12.33.456,kallum_motion_pilot,2023.2.2,Win32,19.96007984,5fa08f46762c290fca55ec9f,65d2b6c8f2eece985d8e374c,65d2b8f6fe7a391178aea35c,0.159,0.1593,0,106,106,142,1,eightsix,,,,,,,,,,,,,,,,,,,,,,,,,,,,,,,,,,,,,,,,,,,,,,,,,,,,,,,,,,,,,,,,,,,,,,,,,,,,,,,,,,,,,,,,,,,,,,,,,,,,,,,,,,,,,,,,,,,,,,,,,,,,,,,,,,,,,,,,,
,,5fa08f46762c290fca55ec9f,2024-02-19_02h12.33.456,kallum_motion_pilot,2023.2.2,Win32,19.96007984,5fa08f46762c290fca55ec9f,65d2b6c8f2eece985d8e374c,65d2b8f6fe7a391178aea35c,0.1596,0.1597,0,107,107,99,1,sixeight,,,,,,,,,,,,,,,,,,,,,,,,,,,,,,,,,,,,,,,,,,,,,,,,,,,,,,,,,,,,,,,,,,,,,,,,,,,,,,,,,,,,,,,,,,,,,,,,,,,,,,,,,,,,,,,,,,,,,,,,,,,,,,,,,,,,,,,,,
,,5fa08f46762c290fca55ec9f,2024-02-19_02h12.33.456,kallum_motion_pilot,2023.2.2,Win32,19.96007984,5fa08f46762c290fca55ec9f,65d2b6c8f2eece985d8e374c,65d2b8f6fe7a391178aea35c,0.1601,0.1602,0,108,108,22,1,fourtwo,,,,,,,,,,,,,,,,,,,,,,,,,,,,,,,,,,,,,,,,,,,,,,,,,,,,,,,,,,,,,,,,,,,,,,,,,,,,,,,,,,,,,,,,,,,,,,,,,,,,,,,,,,,,,,,,,,,,,,,,,,,,,,,,,,,,,,,,,
,,5fa08f46762c290fca55ec9f,2024-02-19_02h12.33.456,kallum_motion_pilot,2023.2.2,Win32,19.96007984,5fa08f46762c290fca55ec9f,65d2b6c8f2eece985d8e374c,65d2b8f6fe7a391178aea35c,0.1605,0.1606,0,109,109,1,1,onethree,,,,,,,,,,,,,,,,,,,,,,,,,,,,,,,,,,,,,,,,,,,,,,,,,,,,,,,,,,,,,,,,,,,,,,,,,,,,,,,,,,,,,,,,,,,,,,,,,,,,,,,,,,,,,,,,,,,,,,,,,,,,,,,,,,,,,,,,,
,,5fa08f46762c290fca55ec9f,2024-02-19_02h12.33.456,kallum_motion_pilot,2023.2.2,Win32,19.96007984,5fa08f46762c290fca55ec9f,65d2b6c8f2eece985d8e374c,65d2b8f6fe7a391178aea35c,0.1609,0.1611,0,110,110,109,1,seveneight,,,,,,,,,,,,,,,,,,,,,,,,,,,,,,,,,,,,,,,,,,,,,,,,,,,,,,,,,,,,,,,,,,,,,,,,,,,,,,,,,,,,,,,,,,,,,,,,,,,,,,,,,,,,,,,,,,,,,,,,,,,,,,,,,,,,,,,,,
,,5fa08f46762c290fca55ec9f,2024-02-19_02h12.33.456,kallum_motion_pilot,2023.2.2,Win32,19.96007984,5fa08f46762c290fca55ec9f,65d2b6c8f2eece985d8e374c,65d2b8f6fe7a391178aea35c,0.1614,0.1616,0,111,111,160,1,fivesix,,,,,,,,,,,,,,,,,,,,,,,,,,,,,,,,,,,,,,,,,,,,,,,,,,,,,,,,,,,,,,,,,,,,,,,,,,,,,,,,,,,,,,,,,,,,,,,,,,,,,,,,,,,,,,,,,,,,,,,,,,,,,,,,,,,,,,,,,
,,5fa08f46762c290fca55ec9f,2024-02-19_02h12.33.456,kallum_motion_pilot,2023.2.2,Win32,19.96007984,5fa08f46762c290fca55ec9f,65d2b6c8f2eece985d8e374c,65d2b8f6fe7a391178aea35c,0.1618,0.162,0,112,112,25,1,onethree,,,,,,,,,,,,,,,,,,,,,,,,,,,,,,,,,,,,,,,,,,,,,,,,,,,,,,,,,,,,,,,,,,,,,,,,,,,,,,,,,,,,,,,,,,,,,,,,,,,,,,,,,,,,,,,,,,,,,,,,,,,,,,,,,,,,,,,,,
,,5fa08f46762c290fca55ec9f,2024-02-19_02h12.33.456,kallum_motion_pilot,2023.2.2,Win32,19.96007984,5fa08f46762c290fca55ec9f,65d2b6c8f2eece985d8e374c,65d2b8f6fe7a391178aea35c,0.1623,0.1625,0,113,113,148,1,sevenfive,,,,,,,,,,,,,,,,,,,,,,,,,,,,,,,,,,,,,,,,,,,,,,,,,,,,,,,,,,,,,,,,,,,,,,,,,,,,,,,,,,,,,,,,,,,,,,,,,,,,,,,,,,,,,,,,,,,,,,,,,,,,,,,,,,,,,,,,,
,,5fa08f46762c290fca55ec9f,2024-02-19_02h12.33.456,kallum_motion_pilot,2023.2.2,Win32,19.96007984,5fa08f46762c290fca55ec9f,65d2b6c8f2eece985d8e374c,65d2b8f6fe7a391178aea35c,0.1627,0.1629,0,114,114,145,1,fiveseven,,,,,,,,,,,,,,,,,,,,,,,,,,,,,,,,,,,,,,,,,,,,,,,,,,,,,,,,,,,,,,,,,,,,,,,,,,,,,,,,,,,,,,,,,,,,,,,,,,,,,,,,,,,,,,,,,,,,,,,,,,,,,,,,,,,,,,,,,
,,5fa08f46762c290fca55ec9f,2024-02-19_02h12.33.456,kallum_motion_pilot,2023.2.2,Win32,19.96007984,5fa08f46762c290fca55ec9f,65d2b6c8f2eece985d8e374c,65d2b8f6fe7a391178aea35c,0.1632,0.1634,0,115,115,144,1,fivesix,,,,,,,,,,,,,,,,,,,,,,,,,,,,,,,,,,,,,,,,,,,,,,,,,,,,,,,,,,,,,,,,,,,,,,,,,,,,,,,,,,,,,,,,,,,,,,,,,,,,,,,,,,,,,,,,,,,,,,,,,,,,,,,,,,,,,,,,,
,,5fa08f46762c290fca55ec9f,2024-02-19_02h12.33.456,kallum_motion_pilot,2023.2.2,Win32,19.96007984,5fa08f46762c290fca55ec9f,65d2b6c8f2eece985d8e374c,65d2b8f6fe7a391178aea35c,0.1636,0.1638,0,116,116,63,1,fourthree,,,,,,,,,,,,,,,,,,,,,,,,,,,,,,,,,,,,,,,,,,,,,,,,,,,,,,,,,,,,,,,,,,,,,,,,,,,,,,,,,,,,,,,,,,,,,,,,,,,,,,,,,,,,,,,,,,,,,,,,,,,,,,,,,,,,,,,,,
,,5fa08f46762c290fca55ec9f,2024-02-19_02h12.33.456,kallum_motion_pilot,2023.2.2,Win32,19.96007984,5fa08f46762c290fca55ec9f,65d2b6c8f2eece985d8e374c,65d2b8f6fe7a391178aea35c,0.1641,0.1643,0,117,117,157,1,seveneight,,,,,,,,,,,,,,,,,,,,,,,,,,,,,,,,,,,,,,,,,,,,,,,,,,,,,,,,,,,,,,,,,,,,,,,,,,,,,,,,,,,,,,,,,,,,,,,,,,,,,,,,,,,,,,,,,,,,,,,,,,,,,,,,,,,,,,,,,
,,5fa08f46762c290fca55ec9f,2024-02-19_02h12.33.456,kallum_motion_pilot,2023.2.2,Win32,19.96007984,5fa08f46762c290fca55ec9f,65d2b6c8f2eece985d8e374c,65d2b8f6fe7a391178aea35c,0.1646,0.1647,0,118,118,40,1,onetwo,,,,,,,,,,,,,,,,,,,,,,,,,,,,,,,,,,,,,,,,,,,,,,,,,,,,,,,,,,,,,,,,,,,,,,,,,,,,,,,,,,,,,,,,,,,,,,,,,,,,,,,,,,,,,,,,,,,,,,,,,,,,,,,,,,,,,,,,,
,,5fa08f46762c290fca55ec9f,2024-02-19_02h12.33.456,kallum_motion_pilot,2023.2.2,Win32,19.96007984,5fa08f46762c290fca55ec9f,65d2b6c8f2eece985d8e374c,65d2b8f6fe7a391178aea35c,0.165,0.1652,0,119,119,37,1,threefour,,,,,,,,,,,,,,,,,,,,,,,,,,,,,,,,,,,,,,,,,,,,,,,,,,,,,,,,,,,,,,,,,,,,,,,,,,,,,,,,,,,,,,,,,,,,,,,,,,,,,,,,,,,,,,,,,,,,,,,,,,,,,,,,,,,,,,,,,
,,5fa08f46762c290fca55ec9f,2024-02-19_02h12.33.456,kallum_motion_pilot,2023.2.2,Win32,19.96007984,5fa08f46762c290fca55ec9f,65d2b6c8f2eece985d8e374c,65d2b8f6fe7a391178aea35c,0.1654,0.1656,0,120,120,24,1,onetwo,,,,,,,,,,,,,,,,,,,,,,,,,,,,,,,,,,,,,,,,,,,,,,,,,,,,,,,,,,,,,,,,,,,,,,,,,,,,,,,,,,,,,,,,,,,,,,,,,,,,,,,,,,,,,,,,,,,,,,,,,,,,,,,,,,,,,,,,,
,,5fa08f46762c290fca55ec9f,2024-02-19_02h12.33.456,kallum_motion_pilot,2023.2.2,Win32,19.96007984,5fa08f46762c290fca55ec9f,65d2b6c8f2eece985d8e374c,65d2b8f6fe7a391178aea35c,0.1663,0.1671,0,121,121,91,1,sixeight,,,,,,,,,,,,,,,,,,,,,,,,,,,,,,,,,,,,,,,,,,,,,,,,,,,,,,,,,,,,,,,,,,,,,,,,,,,,,,,,,,,,,,,,,,,,,,,,,,,,,,,,,,,,,,,,,,,,,,,,,,,,,,,,,,,,,,,,,
,,5fa08f46762c290fca55ec9f,2024-02-19_02h12.33.456,kallum_motion_pilot,2023.2.2,Win32,19.96007984,5fa08f46762c290fca55ec9f,65d2b6c8f2eece985d8e374c,65d2b8f6fe7a391178aea35c,0.1675,0.1676,0,122,122,21,1,threefour,,,,,,,,,,,,,,,,,,,,,,,,,,,,,,,,,,,,,,,,,,,,,,,,,,,,,,,,,,,,,,,,,,,,,,,,,,,,,,,,,,,,,,,,,,,,,,,,,,,,,,,,,,,,,,,,,,,,,,,,,,,,,,,,,,,,,,,,,
,,5fa08f46762c290fca55ec9f,2024-02-19_02h12.33.456,kallum_motion_pilot,2023.2.2,Win32,19.96007984,5fa08f46762c290fca55ec9f,65d2b6c8f2eece985d8e374c,65d2b8f6fe7a391178aea35c,0.1681,0.1683,0,123,123,80,1,fivesix,,,,,,,,,,,,,,,,,,,,,,,,,,,,,,,,,,,,,,,,,,,,,,,,,,,,,,,,,,,,,,,,,,,,,,,,,,,,,,,,,,,,,,,,,,,,,,,,,,,,,,,,,,,,,,,,,,,,,,,,,,,,,,,,,,,,,,,,,
,,5fa08f46762c290fca55ec9f,2024-02-19_02h12.33.456,kallum_motion_pilot,2023.2.2,Win32,19.96007984,5fa08f46762c290fca55ec9f,65d2b6c8f2eece985d8e374c,65d2b8f6fe7a391178aea35c,0.169,0.1773,0,124,124,150,1,eightsix,,,,,,,,,,,,,,,,,,,,,,,,,,,,,,,,,,,,,,,,,,,,,,,,,,,,,,,,,,,,,,,,,,,,,,,,,,,,,,,,,,,,,,,,,,,,,,,,,,,,,,,,,,,,,,,,,,,,,,,,,,,,,,,,,,,,,,,,,
,,5fa08f46762c290fca55ec9f,2024-02-19_02h12.33.456,kallum_motion_pilot,2023.2.2,Win32,19.96007984,5fa08f46762c290fca55ec9f,65d2b6c8f2eece985d8e374c,65d2b8f6fe7a391178aea35c,0.1782,0.1785,0,125,125,114,1,sixfive,,,,,,,,,,,,,,,,,,,,,,,,,,,,,,,,,,,,,,,,,,,,,,,,,,,,,,,,,,,,,,,,,,,,,,,,,,,,,,,,,,,,,,,,,,,,,,,,,,,,,,,,,,,,,,,,,,,,,,,,,,,,,,,,,,,,,,,,,
,,5fa08f46762c290fca55ec9f,2024-02-19_02h12.33.456,kallum_motion_pilot,2023.2.2,Win32,19.96007984,5fa08f46762c290fca55ec9f,65d2b6c8f2eece985d8e374c,65d2b8f6fe7a391178aea35c,0.1789,0.1792,0,126,126,123,1,sixeight,,,,,,,,,,,,,,,,,,,,,,,,,,,,,,,,,,,,,,,,,,,,,,,,,,,,,,,,,,,,,,,,,,,,,,,,,,,,,,,,,,,,,,,,,,,,,,,,,,,,,,,,,,,,,,,,,,,,,,,,,,,,,,,,,,,,,,,,,
,,5fa08f46762c290fca55ec9f,2024-02-19_02h12.33.456,kallum_motion_pilot,2023.2.2,Win32,19.96007984,5fa08f46762c290fca55ec9f,65d2b6c8f2eece985d8e374c,65d2b8f6fe7a391178aea35c,0.1795,0.1797,0,127,127,38,1,fourtwo,,,,,,,,,,,,,,,,,,,,,,,,,,,,,,,,,,,,,,,,,,,,,,,,,,,,,,,,,,,,,,,,,,,,,,,,,,,,,,,,,,,,,,,,,,,,,,,,,,,,,,,,,,,,,,,,,,,,,,,,,,,,,,,,,,,,,,,,,
,,5fa08f46762c290fca55ec9f,2024-02-19_02h12.33.456,kallum_motion_pilot,2023.2.2,Win32,19.96007984,5fa08f46762c290fca55ec9f,65d2b6c8f2eece985d8e374c,65d2b8f6fe7a391178aea35c,0.18,0.1802,0,128,128,11,1,twofour,,,,,,,,,,,,,,,,,,,,,,,,,,,,,,,,,,,,,,,,,,,,,,,,,,,,,,,,,,,,,,,,,,,,,,,,,,,,,,,,,,,,,,,,,,,,,,,,,,,,,,,,,,,,,,,,,,,,,,,,,,,,,,,,,,,,,,,,,
,,5fa08f46762c290fca55ec9f,2024-02-19_02h12.33.456,kallum_motion_pilot,2023.2.2,Win32,19.96007984,5fa08f46762c290fca55ec9f,65d2b6c8f2eece985d8e374c,65d2b8f6fe7a391178aea35c,0.1804,0.1807,0,129,129,54,1,fourtwo,,,,,,,,,,,,,,,,,,,,,,,,,,,,,,,,,,,,,,,,,,,,,,,,,,,,,,,,,,,,,,,,,,,,,,,,,,,,,,,,,,,,,,,,,,,,,,,,,,,,,,,,,,,,,,,,,,,,,,,,,,,,,,,,,,,,,,,,,
,,5fa08f46762c290fca55ec9f,2024-02-19_02h12.33.456,kallum_motion_pilot,2023.2.2,Win32,19.96007984,5fa08f46762c290fca55ec9f,65d2b6c8f2eece985d8e374c,65d2b8f6fe7a391178aea35c,0.1809,0.181,0,130,130,45,1,threefour,,,,,,,,,,,,,,,,,,,,,,,,,,,,,,,,,,,,,,,,,,,,,,,,,,,,,,,,,,,,,,,,,,,,,,,,,,,,,,,,,,,,,,,,,,,,,,,,,,,,,,,,,,,,,,,,,,,,,,,,,,,,,,,,,,,,,,,,,
,,5fa08f46762c290fca55ec9f,2024-02-19_02h12.33.456,kallum_motion_pilot,2023.2.2,Win32,19.96007984,5fa08f46762c290fca55ec9f,65d2b6c8f2eece985d8e374c,65d2b8f6fe7a391178aea35c,0.1814,0.1815,0,131,131,146,1,sixfive,,,,,,,,,,,,,,,,,,,,,,,,,,,,,,,,,,,,,,,,,,,,,,,,,,,,,,,,,,,,,,,,,,,,,,,,,,,,,,,,,,,,,,,,,,,,,,,,,,,,,,,,,,,,,,,,,,,,,,,,,,,,,,,,,,,,,,,,,
,,5fa08f46762c290fca55ec9f,2024-02-19_02h12.33.456,kallum_motion_pilot,2023.2.2,Win32,19.96007984,5fa08f46762c290fca55ec9f,65d2b6c8f2eece985d8e374c,65d2b8f6fe7a391178aea35c,0.1818,0.1821,0,132,132,12,1,threeone,,,,,,,,,,,,,,,,,,,,,,,,,,,,,,,,,,,,,,,,,,,,,,,,,,,,,,,,,,,,,,,,,,,,,,,,,,,,,,,,,,,,,,,,,,,,,,,,,,,,,,,,,,,,,,,,,,,,,,,,,,,,,,,,,,,,,,,,,
,,5fa08f46762c290fca55ec9f,2024-02-19_02h12.33.456,kallum_motion_pilot,2023.2.2,Win32,19.96007984,5fa08f46762c290fca55ec9f,65d2b6c8f2eece985d8e374c,65d2b8f6fe7a391178aea35c,0.1823,0.1825,0,133,133,76,1,threeone,,,,,,,,,,,,,,,,,,,,,,,,,,,,,,,,,,,,,,,,,,,,,,,,,,,,,,,,,,,,,,,,,,,,,,,,,,,,,,,,,,,,,,,,,,,,,,,,,,,,,,,,,,,,,,,,,,,,,,,,,,,,,,,,,,,,,,,,,
,,5fa08f46762c290fca55ec9f,2024-02-19_02h12.33.456,kallum_motion_pilot,2023.2.2,Win32,19.96007984,5fa08f46762c290fca55ec9f,65d2b6c8f2eece985d8e374c,65d2b8f6fe7a391178aea35c,0.1827,0.183,0,134,134,64,1,onetwo,,,,,,,,,,,,,,,,,,,,,,,,,,,,,,,,,,,,,,,,,,,,,,,,,,,,,,,,,,,,,,,,,,,,,,,,,,,,,,,,,,,,,,,,,,,,,,,,,,,,,,,,,,,,,,,,,,,,,,,,,,,,,,,,,,,,,,,,,
,,5fa08f46762c290fca55ec9f,2024-02-19_02h12.33.456,kallum_motion_pilot,2023.2.2,Win32,19.96007984,5fa08f46762c290fca55ec9f,65d2b6c8f2eece985d8e374c,65d2b8f6fe7a391178aea35c,0.1832,0.1834,0,135,135,66,1,twoone,,,,,,,,,,,,,,,,,,,,,,,,,,,,,,,,,,,,,,,,,,,,,,,,,,,,,,,,,,,,,,,,,,,,,,,,,,,,,,,,,,,,,,,,,,,,,,,,,,,,,,,,,,,,,,,,,,,,,,,,,,,,,,,,,,,,,,,,,
,,5fa08f46762c290fca55ec9f,2024-02-19_02h12.33.456,kallum_motion_pilot,2023.2.2,Win32,19.96007984,5fa08f46762c290fca55ec9f,65d2b6c8f2eece985d8e374c,65d2b8f6fe7a391178aea35c,0.1837,0.1839,0,136,136,72,1,onetwo,,,,,,,,,,,,,,,,,,,,,,,,,,,,,,,,,,,,,,,,,,,,,,,,,,,,,,,,,,,,,,,,,,,,,,,,,,,,,,,,,,,,,,,,,,,,,,,,,,,,,,,,,,,,,,,,,,,,,,,,,,,,,,,,,,,,,,,,,
,,5fa08f46762c290fca55ec9f,2024-02-19_02h12.33.456,kallum_motion_pilot,2023.2.2,Win32,19.96007984,5fa08f46762c290fca55ec9f,65d2b6c8f2eece985d8e374c,65d2b8f6fe7a391178aea35c,0.1842,0.1844,0,137,137,98,1,sixfive,,,,,,,,,,,,,,,,,,,,,,,,,,,,,,,,,,,,,,,,,,,,,,,,,,,,,,,,,,,,,,,,,,,,,,,,,,,,,,,,,,,,,,,,,,,,,,,,,,,,,,,,,,,,,,,,,,,,,,,,,,,,,,,,,,,,,,,,,
,,5fa08f46762c290fca55ec9f,2024-02-19_02h12.33.456,kallum_motion_pilot,2023.2.2,Win32,19.96007984,5fa08f46762c290fca55ec9f,65d2b6c8f2eece985d8e374c,65d2b8f6fe7a391178aea35c,0.1847,0.1849,0,138,138,69,1,threefour,,,,,,,,,,,,,,,,,,,,,,,,,,,,,,,,,,,,,,,,,,,,,,,,,,,,,,,,,,,,,,,,,,,,,,,,,,,,,,,,,,,,,,,,,,,,,,,,,,,,,,,,,,,,,,,,,,,,,,,,,,,,,,,,,,,,,,,,,
,,5fa08f46762c290fca55ec9f,2024-02-19_02h12.33.456,kallum_motion_pilot,2023.2.2,Win32,19.96007984,5fa08f46762c290fca55ec9f,65d2b6c8f2eece985d8e374c,65d2b8f6fe7a391178aea35c,0.1855,0.1862,0,139,139,84,1,sevenfive,,,,,,,,,,,,,,,,,,,,,,,,,,,,,,,,,,,,,,,,,,,,,,,,,,,,,,,,,,,,,,,,,,,,,,,,,,,,,,,,,,,,,,,,,,,,,,,,,,,,,,,,,,,,,,,,,,,,,,,,,,,,,,,,,,,,,,,,,
,,5fa08f46762c290fca55ec9f,2024-02-19_02h12.33.456,kallum_motion_pilot,2023.2.2,Win32,19.96007984,5fa08f46762c290fca55ec9f,65d2b6c8f2eece985d8e374c,65d2b8f6fe7a391178aea35c,0.1872,0.1876,0,140,140,138,1,sixfive,,,,,,,,,,,,,,,,,,,,,,,,,,,,,,,,,,,,,,,,,,,,,,,,,,,,,,,,,,,,,,,,,,,,,,,,,,,,,,,,,,,,,,,,,,,,,,,,,,,,,,,,,,,,,,,,,,,,,,,,,,,,,,,,,,,,,,,,,
,,5fa08f46762c290fca55ec9f,2024-02-19_02h12.33.456,kallum_motion_pilot,2023.2.2,Win32,19.96007984,5fa08f46762c290fca55ec9f,65d2b6c8f2eece985d8e374c,65d2b8f6fe7a391178aea35c,0.1879,0.1883,0,141,141,6,1,fourtwo,,,,,,,,,,,,,,,,,,,,,,,,,,,,,,,,,,,,,,,,,,,,,,,,,,,,,,,,,,,,,,,,,,,,,,,,,,,,,,,,,,,,,,,,,,,,,,,,,,,,,,,,,,,,,,,,,,,,,,,,,,,,,,,,,,,,,,,,,
,,5fa08f46762c290fca55ec9f,2024-02-19_02h12.33.456,kallum_motion_pilot,2023.2.2,Win32,19.96007984,5fa08f46762c290fca55ec9f,65d2b6c8f2eece985d8e374c,65d2b8f6fe7a391178aea35c,0.1886,0.1887,0,142,142,4,1,threeone,,,,,,,,,,,,,,,,,,,,,,,,,,,,,,,,,,,,,,,,,,,,,,,,,,,,,,,,,,,,,,,,,,,,,,,,,,,,,,,,,,,,,,,,,,,,,,,,,,,,,,,,,,,,,,,,,,,,,,,,,,,,,,,,,,,,,,,,,
,,5fa08f46762c290fca55ec9f,2024-02-19_02h12.33.456,kallum_motion_pilot,2023.2.2,Win32,19.96007984,5fa08f46762c290fca55ec9f,65d2b6c8f2eece985d8e374c,65d2b8f6fe7a391178aea35c,0.189,0.1892,0,143,143,60,1,threeone,,,,,,,,,,,,,,,,,,,,,,,,,,,,,,,,,,,,,,,,,,,,,,,,,,,,,,,,,,,,,,,,,,,,,,,,,,,,,,,,,,,,,,,,,,,,,,,,,,,,,,,,,,,,,,,,,,,,,,,,,,,,,,,,,,,,,,,,,
,,5fa08f46762c290fca55ec9f,2024-02-19_02h12.33.456,kallum_motion_pilot,2023.2.2,Win32,19.96007984,5fa08f46762c290fca55ec9f,65d2b6c8f2eece985d8e374c,65d2b8f6fe7a391178aea35c,0.1894,0.1897,0,144,144,0,1,onetwo,,,,,,,,,,,,,,,,,,,,,,,,,,,,,,,,,,,,,,,,,,,,,,,,,,,,,,,,,,,,,,,,,,,,,,,,,,,,,,,,,,,,,,,,,,,,,,,,,,,,,,,,,,,,,,,,,,,,,,,,,,,,,,,,,,,,,,,,,
,,5fa08f46762c290fca55ec9f,2024-02-19_02h12.33.456,kallum_motion_pilot,2023.2.2,Win32,19.96007984,5fa08f46762c290fca55ec9f,65d2b6c8f2eece985d8e374c,65d2b8f6fe7a391178aea35c,0.1899,0.1903,0,145,145,81,1,fiveseven,,,,,,,,,,,,,,,,,,,,,,,,,,,,,,,,,,,,,,,,,,,,,,,,,,,,,,,,,,,,,,,,,,,,,,,,,,,,,,,,,,,,,,,,,,,,,,,,,,,,,,,,,,,,,,,,,,,,,,,,,,,,,,,,,,,,,,,,,
,,5fa08f46762c290fca55ec9f,2024-02-19_02h12.33.456,kallum_motion_pilot,2023.2.2,Win32,19.96007984,5fa08f46762c290fca55ec9f,65d2b6c8f2eece985d8e374c,65d2b8f6fe7a391178aea35c,0.1904,0.1907,0,146,146,71,1,fourthree,,,,,,,,,,,,,,,,,,,,,,,,,,,,,,,,,,,,,,,,,,,,,,,,,,,,,,,,,,,,,,,,,,,,,,,,,,,,,,,,,,,,,,,,,,,,,,,,,,,,,,,,,,,,,,,,,,,,,,,,,,,,,,,,,,,,,,,,,
,,5fa08f46762c290fca55ec9f,2024-02-19_02h12.33.456,kallum_motion_pilot,2023.2.2,Win32,19.96007984,5fa08f46762c290fca55ec9f,65d2b6c8f2eece985d8e374c,65d2b8f6fe7a391178aea35c,0.1933,0.1934,0,147,147,3,1,twofour,,,,,,,,,,,,,,,,,,,,,,,,,,,,,,,,,,,,,,,,,,,,,,,,,,,,,,,,,,,,,,,,,,,,,,,,,,,,,,,,,,,,,,,,,,,,,,,,,,,,,,,,,,,,,,,,,,,,,,,,,,,,,,,,,,,,,,,,,
,,5fa08f46762c290fca55ec9f,2024-02-19_02h12.33.456,kallum_motion_pilot,2023.2.2,Win32,19.96007984,5fa08f46762c290fca55ec9f,65d2b6c8f2eece985d8e374c,65d2b8f6fe7a391178aea35c,0.1937,0.1939,0,148,148,108,1,sevenfive,,,,,,,,,,,,,,,,,,,,,,,,,,,,,,,,,,,,,,,,,,,,,,,,,,,,,,,,,,,,,,,,,,,,,,,,,,,,,,,,,,,,,,,,,,,,,,,,,,,,,,,,,,,,,,,,,,,,,,,,,,,,,,,,,,,,,,,,,
,,5fa08f46762c290fca55ec9f,2024-02-19_02h12.33.456,kallum_motion_pilot,2023.2.2,Win32,19.96007984,5fa08f46762c290fca55ec9f,65d2b6c8f2eece985d8e374c,65d2b8f6fe7a391178aea35c,0.1942,0.1944,0,149,149,132,1,sevenfive,,,,,,,,,,,,,,,,,,,,,,,,,,,,,,,,,,,,,,,,,,,,,,,,,,,,,,,,,,,,,,,,,,,,,,,,,,,,,,,,,,,,,,,,,,,,,,,,,,,,,,,,,,,,,,,,,,,,,,,,,,,,,,,,,,,,,,,,,
,,5fa08f46762c290fca55ec9f,2024-02-19_02h12.33.456,kallum_motion_pilot,2023.2.2,Win32,19.96007984,5fa08f46762c290fca55ec9f,65d2b6c8f2eece985d8e374c,65d2b8f6fe7a391178aea35c,0.1947,0.1949,0,150,150,55,1,fourthree,,,,,,,,,,,,,,,,,,,,,,,,,,,,,,,,,,,,,,,,,,,,,,,,,,,,,,,,,,,,,,,,,,,,,,,,,,,,,,,,,,,,,,,,,,,,,,,,,,,,,,,,,,,,,,,,,,,,,,,,,,,,,,,,,,,,,,,,,
,,5fa08f46762c290fca55ec9f,2024-02-19_02h12.33.456,kallum_motion_pilot,2023.2.2,Win32,19.96007984,5fa08f46762c290fca55ec9f,65d2b6c8f2eece985d8e374c,65d2b8f6fe7a391178aea35c,0.1952,0.1954,0,151,151,49,1,onethree,,,,,,,,,,,,,,,,,,,,,,,,,,,,,,,,,,,,,,,,,,,,,,,,,,,,,,,,,,,,,,,,,,,,,,,,,,,,,,,,,,,,,,,,,,,,,,,,,,,,,,,,,,,,,,,,,,,,,,,,,,,,,,,,,,,,,,,,,
,,5fa08f46762c290fca55ec9f,2024-02-19_02h12.33.456,kallum_motion_pilot,2023.2.2,Win32,19.96007984,5fa08f46762c290fca55ec9f,65d2b6c8f2eece985d8e374c,65d2b8f6fe7a391178aea35c,0.1958,0.1962,0,152,152,9,1,onethree,,,,,,,,,,,,,,,,,,,,,,,,,,,,,,,,,,,,,,,,,,,,,,,,,,,,,,,,,,,,,,,,,,,,,,,,,,,,,,,,,,,,,,,,,,,,,,,,,,,,,,,,,,,,,,,,,,,,,,,,,,,,,,,,,,,,,,,,,
,,5fa08f46762c290fca55ec9f,2024-02-19_02h12.33.456,kallum_motion_pilot,2023.2.2,Win32,19.96007984,5fa08f46762c290fca55ec9f,65d2b6c8f2eece985d8e374c,65d2b8f6fe7a391178aea35c,0.1969,0.1971,0,153,153,46,1,fourtwo,,,,,,,,,,,,,,,,,,,,,,,,,,,,,,,,,,,,,,,,,,,,,,,,,,,,,,,,,,,,,,,,,,,,,,,,,,,,,,,,,,,,,,,,,,,,,,,,,,,,,,,,,,,,,,,,,,,,,,,,,,,,,,,,,,,,,,,,,
,,5fa08f46762c290fca55ec9f,2024-02-19_02h12.33.456,kallum_motion_pilot,2023.2.2,Win32,19.96007984,5fa08f46762c290fca55ec9f,65d2b6c8f2eece985d8e374c,65d2b8f6fe7a391178aea35c,0.1974,0.1976,0,154,154,158,1,eightsix,,,,,,,,,,,,,,,,,,,,,,,,,,,,,,,,,,,,,,,,,,,,,,,,,,,,,,,,,,,,,,,,,,,,,,,,,,,,,,,,,,,,,,,,,,,,,,,,,,,,,,,,,,,,,,,,,,,,,,,,,,,,,,,,,,,,,,,,,
,,5fa08f46762c290fca55ec9f,2024-02-19_02h12.33.456,kallum_motion_pilot,2023.2.2,Win32,19.96007984,5fa08f46762c290fca55ec9f,65d2b6c8f2eece985d8e374c,65d2b8f6fe7a391178aea35c,0.1978,0.198,0,155,155,121,1,fiveseven,,,,,,,,,,,,,,,,,,,,,,,,,,,,,,,,,,,,,,,,,,,,,,,,,,,,,,,,,,,,,,,,,,,,,,,,,,,,,,,,,,,,,,,,,,,,,,,,,,,,,,,,,,,,,,,,,,,,,,,,,,,,,,,,,,,,,,,,,
,,5fa08f46762c290fca55ec9f,2024-02-19_02h12.33.456,kallum_motion_pilot,2023.2.2,Win32,19.96007984,5fa08f46762c290fca55ec9f,65d2b6c8f2eece985d8e374c,65d2b8f6fe7a391178aea35c,0.1983,0.1985,0,156,156,105,1,fiveseven,,,,,,,,,,,,,,,,,,,,,,,,,,,,,,,,,,,,,,,,,,,,,,,,,,,,,,,,,,,,,,,,,,,,,,,,,,,,,,,,,,,,,,,,,,,,,,,,,,,,,,,,,,,,,,,,,,,,,,,,,,,,,,,,,,,,,,,,,
,,5fa08f46762c290fca55ec9f,2024-02-19_02h12.33.456,kallum_motion_pilot,2023.2.2,Win32,19.96007984,5fa08f46762c290fca55ec9f,65d2b6c8f2eece985d8e374c,65d2b8f6fe7a391178aea35c,0.1988,0.199,0,157,157,133,1,seveneight,,,,,,,,,,,,,,,,,,,,,,,,,,,,,,,,,,,,,,,,,,,,,,,,,,,,,,,,,,,,,,,,,,,,,,,,,,,,,,,,,,,,,,,,,,,,,,,,,,,,,,,,,,,,,,,,,,,,,,,,,,,,,,,,,,,,,,,,,
,,5fa08f46762c290fca55ec9f,2024-02-19_02h12.33.456,kallum_motion_pilot,2023.2.2,Win32,19.96007984,5fa08f46762c290fca55ec9f,65d2b6c8f2eece985d8e374c,65d2b8f6fe7a391178aea35c,0.1993,0.1995,0,158,158,113,1,fiveseven,,,,,,,,,,,,,,,,,,,,,,,,,,,,,,,,,,,,,,,,,,,,,,,,,,,,,,,,,,,,,,,,,,,,,,,,,,,,,,,,,,,,,,,,,,,,,,,,,,,,,,,,,,,,,,,,,,,,,,,,,,,,,,,,,,,,,,,,,
,,5fa08f46762c290fca55ec9f,2024-02-19_02h12.33.456,kallum_motion_pilot,2023.2.2,Win32,19.96007984,5fa08f46762c290fca55ec9f,65d2b6c8f2eece985d8e374c,65d2b8f6fe7a391178aea35c,0.1997,0.1999,0,159,159,42,1,twoone,,,,,,,,,,,,,,,,,,,,,,,,,,,,,,,,,,,,,,,,,,,,,,,,,,,,,,,,,,,,,,,,,,,,,,,,,,,,,,,,,,,,,,,,,,,,,,,,,,,,,,,,,,,,,,,,,,,,,,,,,,,,,,,,,,,,,,,,,
,,5fa08f46762c290fca55ec9f,2024-02-19_02h12.33.456,kallum_motion_pilot,2023.2.2,Win32,19.96007984,5fa08f46762c290fca55ec9f,65d2b6c8f2eece985d8e374c,65d2b8f6fe7a391178aea35c,0.2002,0.2005,0,160,160,118,1,eightsix,,,,,,,,,,,,,,,,,,,,,,,,,,,,,,,,,,,,,,,,,,,,,,,,,,,,,,,,,,,,,,,,,,,,,,,,,,,,,,,,,,,,,,,,,,,,,,,,,,,,,,,,,,,,,,,,,,,,,,,,,,,,,,,,,,,,,,,,,
,,5fa08f46762c290fca55ec9f,2024-02-19_02h12.33.456,kallum_motion_pilot,2023.2.2,Win32,19.96007984,5fa08f46762c290fca55ec9f,65d2b6c8f2eece985d8e374c,65d2b8f6fe7a391178aea35c,0.2007,0.2009,0,161,161,117,1,seveneight,,,,,,,,,,,,,,,,,,,,,,,,,,,,,,,,,,,,,,,,,,,,,,,,,,,,,,,,,,,,,,,,,,,,,,,,,,,,,,,,,,,,,,,,,,,,,,,,,,,,,,,,,,,,,,,,,,,,,,,,,,,,,,,,,,,,,,,,,
,,5fa08f46762c290fca55ec9f,2024-02-19_02h12.33.456,kallum_motion_pilot,2023.2.2,Win32,19.96007984,5fa08f46762c290fca55ec9f,65d2b6c8f2eece985d8e374c,65d2b8f6fe7a391178aea35c,0.2012,0.2014,1,0,162,120,1,fivesix,,,,,,,,,,,,,,,,,,,,,,,,,,,,,,,,,,,,,,,,,,,,,,,,,,,,,,,,,,,,,,,,,,,,,,,,,,,,,,,,,,,,,,,,,,,,,,,,,,,,,,,,,,,,,,,,,,,,,,,,,,,,,,,,,,,,,,,,,
,,5fa08f46762c290fca55ec9f,2024-02-19_02h12.33.456,kallum_motion_pilot,2023.2.2,Win32,19.96007984,5fa08f46762c290fca55ec9f,65d2b6c8f2eece985d8e374c,65d2b8f6fe7a391178aea35c,0.2018,0.2024,1,1,163,160,1,fivesix,,,,,,,,,,,,,,,,,,,,,,,,,,,,,,,,,,,,,,,,,,,,,,,,,,,,,,,,,,,,,,,,,,,,,,,,,,,,,,,,,,,,,,,,,,,,,,,,,,,,,,,,,,,,,,,,,,,,,,,,,,,,,,,,,,,,,,,,,
,,5fa08f46762c290fca55ec9f,2024-02-19_02h12.33.456,kallum_motion_pilot,2023.2.2,Win32,19.96007984,5fa08f46762c290fca55ec9f,65d2b6c8f2eece985d8e374c,65d2b8f6fe7a391178aea35c,0.2029,0.2032,1,2,164,86,1,eightsix,,,,,,,,,,,,,,,,,,,,,,,,,,,,,,,,,,,,,,,,,,,,,,,,,,,,,,,,,,,,,,,,,,,,,,,,,,,,,,,,,,,,,,,,,,,,,,,,,,,,,,,,,,,,,,,,,,,,,,,,,,,,,,,,,,,,,,,,,
,,5fa08f46762c290fca55ec9f,2024-02-19_02h12.33.456,kallum_motion_pilot,2023.2.2,Win32,19.96007984,5fa08f46762c290fca55ec9f,65d2b6c8f2eece985d8e374c,65d2b8f6fe7a391178aea35c,0.2036,0.204,1,3,165,68,1,threeone,,,,,,,,,,,,,,,,,,,,,,,,,,,,,,,,,,,,,,,,,,,,,,,,,,,,,,,,,,,,,,,,,,,,,,,,,,,,,,,,,,,,,,,,,,,,,,,,,,,,,,,,,,,,,,,,,,,,,,,,,,,,,,,,,,,,,,,,,
,,5fa08f46762c290fca55ec9f,2024-02-19_02h12.33.456,kallum_motion_pilot,2023.2.2,Win32,19.96007984,5fa08f46762c290fca55ec9f,65d2b6c8f2eece985d8e374c,65d2b8f6fe7a391178aea35c,0.2045,0.2047,1,4,166,48,1,onetwo,,,,,,,,,,,,,,,,,,,,,,,,,,,,,,,,,,,,,,,,,,,,,,,,,,,,,,,,,,,,,,,,,,,,,,,,,,,,,,,,,,,,,,,,,,,,,,,,,,,,,,,,,,,,,,,,,,,,,,,,,,,,,,,,,,,,,,,,,
,,5fa08f46762c290fca55ec9f,2024-02-19_02h12.33.456,kallum_motion_pilot,2023.2.2,Win32,19.96007984,5fa08f46762c290fca55ec9f,65d2b6c8f2eece985d8e374c,65d2b8f6fe7a391178aea35c,0.2051,0.2054,1,5,167,159,1,eightseven,,,,,,,,,,,,,,,,,,,,,,,,,,,,,,,,,,,,,,,,,,,,,,,,,,,,,,,,,,,,,,,,,,,,,,,,,,,,,,,,,,,,,,,,,,,,,,,,,,,,,,,,,,,,,,,,,,,,,,,,,,,,,,,,,,,,,,,,,
,,5fa08f46762c290fca55ec9f,2024-02-19_02h12.33.456,kallum_motion_pilot,2023.2.2,Win32,19.96007984,5fa08f46762c290fca55ec9f,65d2b6c8f2eece985d8e374c,65d2b8f6fe7a391178aea35c,0.2077,0.2088,1,6,168,50,1,twoone,,,,,,,,,,,,,,,,,,,,,,,,,,,,,,,,,,,,,,,,,,,,,,,,,,,,,,,,,,,,,,,,,,,,,,,,,,,,,,,,,,,,,,,,,,,,,,,,,,,,,,,,,,,,,,,,,,,,,,,,,,,,,,,,,,,,,,,,,
,,5fa08f46762c290fca55ec9f,2024-02-19_02h12.33.456,kallum_motion_pilot,2023.2.2,Win32,19.96007984,5fa08f46762c290fca55ec9f,65d2b6c8f2eece985d8e374c,65d2b8f6fe7a391178aea35c,0.2093,0.2096,1,7,169,118,1,eightsix,,,,,,,,,,,,,,,,,,,,,,,,,,,,,,,,,,,,,,,,,,,,,,,,,,,,,,,,,,,,,,,,,,,,,,,,,,,,,,,,,,,,,,,,,,,,,,,,,,,,,,,,,,,,,,,,,,,,,,,,,,,,,,,,,,,,,,,,,
,,5fa08f46762c290fca55ec9f,2024-02-19_02h12.33.456,kallum_motion_pilot,2023.2.2,Win32,19.96007984,5fa08f46762c290fca55ec9f,65d2b6c8f2eece985d8e374c,65d2b8f6fe7a391178aea35c,0.21,0.2101,1,8,170,156,1,sevenfive,,,,,,,,,,,,,,,,,,,,,,,,,,,,,,,,,,,,,,,,,,,,,,,,,,,,,,,,,,,,,,,,,,,,,,,,,,,,,,,,,,,,,,,,,,,,,,,,,,,,,,,,,,,,,,,,,,,,,,,,,,,,,,,,,,,,,,,,,
,,5fa08f46762c290fca55ec9f,2024-02-19_02h12.33.456,kallum_motion_pilot,2023.2.2,Win32,19.96007984,5fa08f46762c290fca55ec9f,65d2b6c8f2eece985d8e374c,65d2b8f6fe7a391178aea35c,0.2105,0.2107,1,9,171,42,1,twoone,,,,,,,,,,,,,,,,,,,,,,,,,,,,,,,,,,,,,,,,,,,,,,,,,,,,,,,,,,,,,,,,,,,,,,,,,,,,,,,,,,,,,,,,,,,,,,,,,,,,,,,,,,,,,,,,,,,,,,,,,,,,,,,,,,,,,,,,,
,,5fa08f46762c290fca55ec9f,2024-02-19_02h12.33.456,kallum_motion_pilot,2023.2.2,Win32,19.96007984,5fa08f46762c290fca55ec9f,65d2b6c8f2eece985d8e374c,65d2b8f6fe7a391178aea35c,0.2109,0.2112,1,10,172,89,1,fiveseven,,,,,,,,,,,,,,,,,,,,,,,,,,,,,,,,,,,,,,,,,,,,,,,,,,,,,,,,,,,,,,,,,,,,,,,,,,,,,,,,,,,,,,,,,,,,,,,,,,,,,,,,,,,,,,,,,,,,,,,,,,,,,,,,,,,,,,,,,
,,5fa08f46762c290fca55ec9f,2024-02-19_02h12.33.456,kallum_motion_pilot,2023.2.2,Win32,19.96007984,5fa08f46762c290fca55ec9f,65d2b6c8f2eece985d8e374c,65d2b8f6fe7a391178aea35c,0.2115,0.2117,1,11,173,35,1,twofour,,,,,,,,,,,,,,,,,,,,,,,,,,,,,,,,,,,,,,,,,,,,,,,,,,,,,,,,,,,,,,,,,,,,,,,,,,,,,,,,,,,,,,,,,,,,,,,,,,,,,,,,,,,,,,,,,,,,,,,,,,,,,,,,,,,,,,,,,
,,5fa08f46762c290fca55ec9f,2024-02-19_02h12.33.456,kallum_motion_pilot,2023.2.2,Win32,19.96007984,5fa08f46762c290fca55ec9f,65d2b6c8f2eece985d8e374c,65d2b8f6fe7a391178aea35c,0.212,0.2122,1,12,174,36,1,threeone,,,,,,,,,,,,,,,,,,,,,,,,,,,,,,,,,,,,,,,,,,,,,,,,,,,,,,,,,,,,,,,,,,,,,,,,,,,,,,,,,,,,,,,,,,,,,,,,,,,,,,,,,,,,,,,,,,,,,,,,,,,,,,,,,,,,,,,,,
,,5fa08f46762c290fca55ec9f,2024-02-19_02h12.33.456,kallum_motion_pilot,2023.2.2,Win32,19.96007984,5fa08f46762c290fca55ec9f,65d2b6c8f2eece985d8e374c,65d2b8f6fe7a391178aea35c,0.2124,0.2127,1,13,175,61,1,threefour,,,,,,,,,,,,,,,,,,,,,,,,,,,,,,,,,,,,,,,,,,,,,,,,,,,,,,,,,,,,,,,,,,,,,,,,,,,,,,,,,,,,,,,,,,,,,,,,,,,,,,,,,,,,,,,,,,,,,,,,,,,,,,,,,,,,,,,,,
,,5fa08f46762c290fca55ec9f,2024-02-19_02h12.33.456,kallum_motion_pilot,2023.2.2,Win32,19.96007984,5fa08f46762c290fca55ec9f,65d2b6c8f2eece985d8e374c,65d2b8f6fe7a391178aea35c,0.2129,0.2132,1,14,176,84,1,sevenfive,,,,,,,,,,,,,,,,,,,,,,,,,,,,,,,,,,,,,,,,,,,,,,,,,,,,,,,,,,,,,,,,,,,,,,,,,,,,,,,,,,,,,,,,,,,,,,,,,,,,,,,,,,,,,,,,,,,,,,,,,,,,,,,,,,,,,,,,,
,,5fa08f46762c290fca55ec9f,2024-02-19_02h12.33.456,kallum_motion_pilot,2023.2.2,Win32,19.96007984,5fa08f46762c290fca55ec9f,65d2b6c8f2eece985d8e374c,65d2b8f6fe7a391178aea35c,0.2134,0.2136,1,15,177,47,1,fourthree,,,,,,,,,,,,,,,,,,,,,,,,,,,,,,,,,,,,,,,,,,,,,,,,,,,,,,,,,,,,,,,,,,,,,,,,,,,,,,,,,,,,,,,,,,,,,,,,,,,,,,,,,,,,,,,,,,,,,,,,,,,,,,,,,,,,,,,,,
,,5fa08f46762c290fca55ec9f,2024-02-19_02h12.33.456,kallum_motion_pilot,2023.2.2,Win32,19.96007984,5fa08f46762c290fca55ec9f,65d2b6c8f2eece985d8e374c,65d2b8f6fe7a391178aea35c,0.2139,0.2141,1,16,178,131,1,sixeight,,,,,,,,,,,,,,,,,,,,,,,,,,,,,,,,,,,,,,,,,,,,,,,,,,,,,,,,,,,,,,,,,,,,,,,,,,,,,,,,,,,,,,,,,,,,,,,,,,,,,,,,,,,,,,,,,,,,,,,,,,,,,,,,,,,,,,,,,
,,5fa08f46762c290fca55ec9f,2024-02-19_02h12.33.456,kallum_motion_pilot,2023.2.2,Win32,19.96007984,5fa08f46762c290fca55ec9f,65d2b6c8f2eece985d8e374c,65d2b8f6fe7a391178aea35c,0.2143,0.2148,1,17,179,110,1,eightsix,,,,,,,,,,,,,,,,,,,,,,,,,,,,,,,,,,,,,,,,,,,,,,,,,,,,,,,,,,,,,,,,,,,,,,,,,,,,,,,,,,,,,,,,,,,,,,,,,,,,,,,,,,,,,,,,,,,,,,,,,,,,,,,,,,,,,,,,,
,,5fa08f46762c290fca55ec9f,2024-02-19_02h12.33.456,kallum_motion_pilot,2023.2.2,Win32,19.96007984,5fa08f46762c290fca55ec9f,65d2b6c8f2eece985d8e374c,65d2b8f6fe7a391178aea35c,0.2151,0.2153,1,18,180,125,1,seveneight,,,,,,,,,,,,,,,,,,,,,,,,,,,,,,,,,,,,,,,,,,,,,,,,,,,,,,,,,,,,,,,,,,,,,,,,,,,,,,,,,,,,,,,,,,,,,,,,,,,,,,,,,,,,,,,,,,,,,,,,,,,,,,,,,,,,,,,,,
,,5fa08f46762c290fca55ec9f,2024-02-19_02h12.33.456,kallum_motion_pilot,2023.2.2,Win32,19.96007984,5fa08f46762c290fca55ec9f,65d2b6c8f2eece985d8e374c,65d2b8f6fe7a391178aea35c,0.2156,0.2161,1,19,181,103,1,eightseven,,,,,,,,,,,,,,,,,,,,,,,,,,,,,,,,,,,,,,,,,,,,,,,,,,,,,,,,,,,,,,,,,,,,,,,,,,,,,,,,,,,,,,,,,,,,,,,,,,,,,,,,,,,,,,,,,,,,,,,,,,,,,,,,,,,,,,,,,
,,5fa08f46762c290fca55ec9f,2024-02-19_02h12.33.456,kallum_motion_pilot,2023.2.2,Win32,19.96007984,5fa08f46762c290fca55ec9f,65d2b6c8f2eece985d8e374c,65d2b8f6fe7a391178aea35c,0.2164,0.2172,1,20,182,15,1,fourthree,,,,,,,,,,,,,,,,,,,,,,,,,,,,,,,,,,,,,,,,,,,,,,,,,,,,,,,,,,,,,,,,,,,,,,,,,,,,,,,,,,,,,,,,,,,,,,,,,,,,,,,,,,,,,,,,,,,,,,,,,,,,,,,,,,,,,,,,,
,,5fa08f46762c290fca55ec9f,2024-02-19_02h12.33.456,kallum_motion_pilot,2023.2.2,Win32,19.96007984,5fa08f46762c290fca55ec9f,65d2b6c8f2eece985d8e374c,65d2b8f6fe7a391178aea35c,0.2175,0.2177,1,21,183,90,1,sixfive,,,,,,,,,,,,,,,,,,,,,,,,,,,,,,,,,,,,,,,,,,,,,,,,,,,,,,,,,,,,,,,,,,,,,,,,,,,,,,,,,,,,,,,,,,,,,,,,,,,,,,,,,,,,,,,,,,,,,,,,,,,,,,,,,,,,,,,,,
,,5fa08f46762c290fca55ec9f,2024-02-19_02h12.33.456,kallum_motion_pilot,2023.2.2,Win32,19.96007984,5fa08f46762c290fca55ec9f,65d2b6c8f2eece985d8e374c,65d2b8f6fe7a391178aea35c,0.218,0.2183,1,22,184,146,1,sixfive,,,,,,,,,,,,,,,,,,,,,,,,,,,,,,,,,,,,,,,,,,,,,,,,,,,,,,,,,,,,,,,,,,,,,,,,,,,,,,,,,,,,,,,,,,,,,,,,,,,,,,,,,,,,,,,,,,,,,,,,,,,,,,,,,,,,,,,,,
,,5fa08f46762c290fca55ec9f,2024-02-19_02h12.33.456,kallum_motion_pilot,2023.2.2,Win32,19.96007984,5fa08f46762c290fca55ec9f,65d2b6c8f2eece985d8e374c,65d2b8f6fe7a391178aea35c,0.2187,0.2192,1,23,185,38,1,fourtwo,,,,,,,,,,,,,,,,,,,,,,,,,,,,,,,,,,,,,,,,,,,,,,,,,,,,,,,,,,,,,,,,,,,,,,,,,,,,,,,,,,,,,,,,,,,,,,,,,,,,,,,,,,,,,,,,,,,,,,,,,,,,,,,,,,,,,,,,,
,,5fa08f46762c290fca55ec9f,2024-02-19_02h12.33.456,kallum_motion_pilot,2023.2.2,Win32,19.96007984,5fa08f46762c290fca55ec9f,65d2b6c8f2eece985d8e374c,65d2b8f6fe7a391178aea35c,0.2197,0.2202,1,24,186,106,1,sixfive,,,,,,,,,,,,,,,,,,,,,,,,,,,,,,,,,,,,,,,,,,,,,,,,,,,,,,,,,,,,,,,,,,,,,,,,,,,,,,,,,,,,,,,,,,,,,,,,,,,,,,,,,,,,,,,,,,,,,,,,,,,,,,,,,,,,,,,,,
,,5fa08f46762c290fca55ec9f,2024-02-19_02h12.33.456,kallum_motion_pilot,2023.2.2,Win32,19.96007984,5fa08f46762c290fca55ec9f,65d2b6c8f2eece985d8e374c,65d2b8f6fe7a391178aea35c,0.2204,0.2207,1,25,187,30,1,fourtwo,,,,,,,,,,,,,,,,,,,,,,,,,,,,,,,,,,,,,,,,,,,,,,,,,,,,,,,,,,,,,,,,,,,,,,,,,,,,,,,,,,,,,,,,,,,,,,,,,,,,,,,,,,,,,,,,,,,,,,,,,,,,,,,,,,,,,,,,,
,,5fa08f46762c290fca55ec9f,2024-02-19_02h12.33.456,kallum_motion_pilot,2023.2.2,Win32,19.96007984,5fa08f46762c290fca55ec9f,65d2b6c8f2eece985d8e374c,65d2b8f6fe7a391178aea35c,0.2209,0.2211,1,26,188,17,1,onethree,,,,,,,,,,,,,,,,,,,,,,,,,,,,,,,,,,,,,,,,,,,,,,,,,,,,,,,,,,,,,,,,,,,,,,,,,,,,,,,,,,,,,,,,,,,,,,,,,,,,,,,,,,,,,,,,,,,,,,,,,,,,,,,,,,,,,,,,,
,,5fa08f46762c290fca55ec9f,2024-02-19_02h12.33.456,kallum_motion_pilot,2023.2.2,Win32,19.96007984,5fa08f46762c290fca55ec9f,65d2b6c8f2eece985d8e374c,65d2b8f6fe7a391178aea35c,0.2214,0.2216,1,27,189,150,1,eightsix,,,,,,,,,,,,,,,,,,,,,,,,,,,,,,,,,,,,,,,,,,,,,,,,,,,,,,,,,,,,,,,,,,,,,,,,,,,,,,,,,,,,,,,,,,,,,,,,,,,,,,,,,,,,,,,,,,,,,,,,,,,,,,,,,,,,,,,,,
,,5fa08f46762c290fca55ec9f,2024-02-19_02h12.33.456,kallum_motion_pilot,2023.2.2,Win32,19.96007984,5fa08f46762c290fca55ec9f,65d2b6c8f2eece985d8e374c,65d2b8f6fe7a391178aea35c,0.222,0.2224,1,28,190,114,1,sixfive,,,,,,,,,,,,,,,,,,,,,,,,,,,,,,,,,,,,,,,,,,,,,,,,,,,,,,,,,,,,,,,,,,,,,,,,,,,,,,,,,,,,,,,,,,,,,,,,,,,,,,,,,,,,,,,,,,,,,,,,,,,,,,,,,,,,,,,,,
,,5fa08f46762c290fca55ec9f,2024-02-19_02h12.33.456,kallum_motion_pilot,2023.2.2,Win32,19.96007984,5fa08f46762c290fca55ec9f,65d2b6c8f2eece985d8e374c,65d2b8f6fe7a391178aea35c,0.2273,0.2278,1,29,191,32,1,onetwo,,,,,,,,,,,,,,,,,,,,,,,,,,,,,,,,,,,,,,,,,,,,,,,,,,,,,,,,,,,,,,,,,,,,,,,,,,,,,,,,,,,,,,,,,,,,,,,,,,,,,,,,,,,,,,,,,,,,,,,,,,,,,,,,,,,,,,,,,
,,5fa08f46762c290fca55ec9f,2024-02-19_02h12.33.456,kallum_motion_pilot,2023.2.2,Win32,19.96007984,5fa08f46762c290fca55ec9f,65d2b6c8f2eece985d8e374c,65d2b8f6fe7a391178aea35c,0.2283,0.2286,1,30,192,92,1,sevenfive,,,,,,,,,,,,,,,,,,,,,,,,,,,,,,,,,,,,,,,,,,,,,,,,,,,,,,,,,,,,,,,,,,,,,,,,,,,,,,,,,,,,,,,,,,,,,,,,,,,,,,,,,,,,,,,,,,,,,,,,,,,,,,,,,,,,,,,,,
,,5fa08f46762c290fca55ec9f,2024-02-19_02h12.33.456,kallum_motion_pilot,2023.2.2,Win32,19.96007984,5fa08f46762c290fca55ec9f,65d2b6c8f2eece985d8e374c,65d2b8f6fe7a391178aea35c,0.2289,0.2291,1,31,193,24,1,onetwo,,,,,,,,,,,,,,,,,,,,,,,,,,,,,,,,,,,,,,,,,,,,,,,,,,,,,,,,,,,,,,,,,,,,,,,,,,,,,,,,,,,,,,,,,,,,,,,,,,,,,,,,,,,,,,,,,,,,,,,,,,,,,,,,,,,,,,,,,
,,5fa08f46762c290fca55ec9f,2024-02-19_02h12.33.456,kallum_motion_pilot,2023.2.2,Win32,19.96007984,5fa08f46762c290fca55ec9f,65d2b6c8f2eece985d8e374c,65d2b8f6fe7a391178aea35c,0.2294,0.2296,1,32,194,9,1,onethree,,,,,,,,,,,,,,,,,,,,,,,,,,,,,,,,,,,,,,,,,,,,,,,,,,,,,,,,,,,,,,,,,,,,,,,,,,,,,,,,,,,,,,,,,,,,,,,,,,,,,,,,,,,,,,,,,,,,,,,,,,,,,,,,,,,,,,,,,
,,5fa08f46762c290fca55ec9f,2024-02-19_02h12.33.456,kallum_motion_pilot,2023.2.2,Win32,19.96007984,5fa08f46762c290fca55ec9f,65d2b6c8f2eece985d8e374c,65d2b8f6fe7a391178aea35c,0.2299,0.2301,1,33,195,85,1,seveneight,,,,,,,,,,,,,,,,,,,,,,,,,,,,,,,,,,,,,,,,,,,,,,,,,,,,,,,,,,,,,,,,,,,,,,,,,,,,,,,,,,,,,,,,,,,,,,,,,,,,,,,,,,,,,,,,,,,,,,,,,,,,,,,,,,,,,,,,,
,,5fa08f46762c290fca55ec9f,2024-02-19_02h12.33.456,kallum_motion_pilot,2023.2.2,Win32,19.96007984,5fa08f46762c290fca55ec9f,65d2b6c8f2eece985d8e374c,65d2b8f6fe7a391178aea35c,0.2304,0.2305,1,34,196,63,1,fourthree,,,,,,,,,,,,,,,,,,,,,,,,,,,,,,,,,,,,,,,,,,,,,,,,,,,,,,,,,,,,,,,,,,,,,,,,,,,,,,,,,,,,,,,,,,,,,,,,,,,,,,,,,,,,,,,,,,,,,,,,,,,,,,,,,,,,,,,,,
,,5fa08f46762c290fca55ec9f,2024-02-19_02h12.33.456,kallum_motion_pilot,2023.2.2,Win32,19.96007984,5fa08f46762c290fca55ec9f,65d2b6c8f2eece985d8e374c,65d2b8f6fe7a391178aea35c,0.2309,0.231,1,35,197,94,1,eightsix,,,,,,,,,,,,,,,,,,,,,,,,,,,,,,,,,,,,,,,,,,,,,,,,,,,,,,,,,,,,,,,,,,,,,,,,,,,,,,,,,,,,,,,,,,,,,,,,,,,,,,,,,,,,,,,,,,,,,,,,,,,,,,,,,,,,,,,,,
,,5fa08f46762c290fca55ec9f,2024-02-19_02h12.33.456,kallum_motion_pilot,2023.2.2,Win32,19.96007984,5fa08f46762c290fca55ec9f,65d2b6c8f2eece985d8e374c,65d2b8f6fe7a391178aea35c,0.2316,0.2317,1,36,198,2,1,twoone,,,,,,,,,,,,,,,,,,,,,,,,,,,,,,,,,,,,,,,,,,,,,,,,,,,,,,,,,,,,,,,,,,,,,,,,,,,,,,,,,,,,,,,,,,,,,,,,,,,,,,,,,,,,,,,,,,,,,,,,,,,,,,,,,,,,,,,,,
,,5fa08f46762c290fca55ec9f,2024-02-19_02h12.33.456,kallum_motion_pilot,2023.2.2,Win32,19.96007984,5fa08f46762c290fca55ec9f,65d2b6c8f2eece985d8e374c,65d2b8f6fe7a391178aea35c,0.2321,0.2323,1,37,199,149,1,seveneight,,,,,,,,,,,,,,,,,,,,,,,,,,,,,,,,,,,,,,,,,,,,,,,,,,,,,,,,,,,,,,,,,,,,,,,,,,,,,,,,,,,,,,,,,,,,,,,,,,,,,,,,,,,,,,,,,,,,,,,,,,,,,,,,,,,,,,,,,
,,5fa08f46762c290fca55ec9f,2024-02-19_02h12.33.456,kallum_motion_pilot,2023.2.2,Win32,19.96007984,5fa08f46762c290fca55ec9f,65d2b6c8f2eece985d8e374c,65d2b8f6fe7a391178aea35c,0.2325,0.2328,1,38,200,136,1,fivesix,,,,,,,,,,,,,,,,,,,,,,,,,,,,,,,,,,,,,,,,,,,,,,,,,,,,,,,,,,,,,,,,,,,,,,,,,,,,,,,,,,,,,,,,,,,,,,,,,,,,,,,,,,,,,,,,,,,,,,,,,,,,,,,,,,,,,,,,,
,,5fa08f46762c290fca55ec9f,2024-02-19_02h12.33.456,kallum_motion_pilot,2023.2.2,Win32,19.96007984,5fa08f46762c290fca55ec9f,65d2b6c8f2eece985d8e374c,65d2b8f6fe7a391178aea35c,0.2331,0.2333,1,39,201,52,1,threeone,,,,,,,,,,,,,,,,,,,,,,,,,,,,,,,,,,,,,,,,,,,,,,,,,,,,,,,,,,,,,,,,,,,,,,,,,,,,,,,,,,,,,,,,,,,,,,,,,,,,,,,,,,,,,,,,,,,,,,,,,,,,,,,,,,,,,,,,,
,,5fa08f46762c290fca55ec9f,2024-02-19_02h12.33.456,kallum_motion_pilot,2023.2.2,Win32,19.96007984,5fa08f46762c290fca55ec9f,65d2b6c8f2eece985d8e374c,65d2b8f6fe7a391178aea35c,0.2337,0.2339,1,40,202,37,1,threefour,,,,,,,,,,,,,,,,,,,,,,,,,,,,,,,,,,,,,,,,,,,,,,,,,,,,,,,,,,,,,,,,,,,,,,,,,,,,,,,,,,,,,,,,,,,,,,,,,,,,,,,,,,,,,,,,,,,,,,,,,,,,,,,,,,,,,,,,,
,,5fa08f46762c290fca55ec9f,2024-02-19_02h12.33.456,kallum_motion_pilot,2023.2.2,Win32,19.96007984,5fa08f46762c290fca55ec9f,65d2b6c8f2eece985d8e374c,65d2b8f6fe7a391178aea35c,0.2342,0.2344,1,41,203,154,1,sixfive,,,,,,,,,,,,,,,,,,,,,,,,,,,,,,,,,,,,,,,,,,,,,,,,,,,,,,,,,,,,,,,,,,,,,,,,,,,,,,,,,,,,,,,,,,,,,,,,,,,,,,,,,,,,,,,,,,,,,,,,,,,,,,,,,,,,,,,,,
,,5fa08f46762c290fca55ec9f,2024-02-19_02h12.33.456,kallum_motion_pilot,2023.2.2,Win32,19.96007984,5fa08f46762c290fca55ec9f,65d2b6c8f2eece985d8e374c,65d2b8f6fe7a391178aea35c,0.2346,0.235,1,42,204,145,1,fiveseven,,,,,,,,,,,,,,,,,,,,,,,,,,,,,,,,,,,,,,,,,,,,,,,,,,,,,,,,,,,,,,,,,,,,,,,,,,,,,,,,,,,,,,,,,,,,,,,,,,,,,,,,,,,,,,,,,,,,,,,,,,,,,,,,,,,,,,,,,
,,5fa08f46762c290fca55ec9f,2024-02-19_02h12.33.456,kallum_motion_pilot,2023.2.2,Win32,19.96007984,5fa08f46762c290fca55ec9f,65d2b6c8f2eece985d8e374c,65d2b8f6fe7a391178aea35c,0.2406,0.2409,1,43,205,138,1,sixfive,,,,,,,,,,,,,,,,,,,,,,,,,,,,,,,,,,,,,,,,,,,,,,,,,,,,,,,,,,,,,,,,,,,,,,,,,,,,,,,,,,,,,,,,,,,,,,,,,,,,,,,,,,,,,,,,,,,,,,,,,,,,,,,,,,,,,,,,,
,,5fa08f46762c290fca55ec9f,2024-02-19_02h12.33.456,kallum_motion_pilot,2023.2.2,Win32,19.96007984,5fa08f46762c290fca55ec9f,65d2b6c8f2eece985d8e374c,65d2b8f6fe7a391178aea35c,0.2412,0.2415,1,44,206,161,1,fiveseven,,,,,,,,,,,,,,,,,,,,,,,,,,,,,,,,,,,,,,,,,,,,,,,,,,,,,,,,,,,,,,,,,,,,,,,,,,,,,,,,,,,,,,,,,,,,,,,,,,,,,,,,,,,,,,,,,,,,,,,,,,,,,,,,,,,,,,,,,
,,5fa08f46762c290fca55ec9f,2024-02-19_02h12.33.456,kallum_motion_pilot,2023.2.2,Win32,19.96007984,5fa08f46762c290fca55ec9f,65d2b6c8f2eece985d8e374c,65d2b8f6fe7a391178aea35c,0.2417,0.2419,1,45,207,44,1,threeone,,,,,,,,,,,,,,,,,,,,,,,,,,,,,,,,,,,,,,,,,,,,,,,,,,,,,,,,,,,,,,,,,,,,,,,,,,,,,,,,,,,,,,,,,,,,,,,,,,,,,,,,,,,,,,,,,,,,,,,,,,,,,,,,,,,,,,,,,
,,5fa08f46762c290fca55ec9f,2024-02-19_02h12.33.456,kallum_motion_pilot,2023.2.2,Win32,19.96007984,5fa08f46762c290fca55ec9f,65d2b6c8f2eece985d8e374c,65d2b8f6fe7a391178aea35c,0.2422,0.2424,1,46,208,107,1,sixeight,,,,,,,,,,,,,,,,,,,,,,,,,,,,,,,,,,,,,,,,,,,,,,,,,,,,,,,,,,,,,,,,,,,,,,,,,,,,,,,,,,,,,,,,,,,,,,,,,,,,,,,,,,,,,,,,,,,,,,,,,,,,,,,,,,,,,,,,,
,,5fa08f46762c290fca55ec9f,2024-02-19_02h12.33.456,kallum_motion_pilot,2023.2.2,Win32,19.96007984,5fa08f46762c290fca55ec9f,65d2b6c8f2eece985d8e374c,65d2b8f6fe7a391178aea35c,0.2427,0.243,1,47,209,18,1,twoone,,,,,,,,,,,,,,,,,,,,,,,,,,,,,,,,,,,,,,,,,,,,,,,,,,,,,,,,,,,,,,,,,,,,,,,,,,,,,,,,,,,,,,,,,,,,,,,,,,,,,,,,,,,,,,,,,,,,,,,,,,,,,,,,,,,,,,,,,
,,5fa08f46762c290fca55ec9f,2024-02-19_02h12.33.456,kallum_motion_pilot,2023.2.2,Win32,19.96007984,5fa08f46762c290fca55ec9f,65d2b6c8f2eece985d8e374c,65d2b8f6fe7a391178aea35c,0.2433,0.2435,1,48,210,116,1,sevenfive,,,,,,,,,,,,,,,,,,,,,,,,,,,,,,,,,,,,,,,,,,,,,,,,,,,,,,,,,,,,,,,,,,,,,,,,,,,,,,,,,,,,,,,,,,,,,,,,,,,,,,,,,,,,,,,,,,,,,,,,,,,,,,,,,,,,,,,,,
,,5fa08f46762c290fca55ec9f,2024-02-19_02h12.33.456,kallum_motion_pilot,2023.2.2,Win32,19.96007984,5fa08f46762c290fca55ec9f,65d2b6c8f2eece985d8e374c,65d2b8f6fe7a391178aea35c,0.2437,0.244,1,49,211,67,1,twofour,,,,,,,,,,,,,,,,,,,,,,,,,,,,,,,,,,,,,,,,,,,,,,,,,,,,,,,,,,,,,,,,,,,,,,,,,,,,,,,,,,,,,,,,,,,,,,,,,,,,,,,,,,,,,,,,,,,,,,,,,,,,,,,,,,,,,,,,,
,,5fa08f46762c290fca55ec9f,2024-02-19_02h12.33.456,kallum_motion_pilot,2023.2.2,Win32,19.96007984,5fa08f46762c290fca55ec9f,65d2b6c8f2eece985d8e374c,65d2b8f6fe7a391178aea35c,0.2443,0.2445,1,50,212,20,1,threeone,,,,,,,,,,,,,,,,,,,,,,,,,,,,,,,,,,,,,,,,,,,,,,,,,,,,,,,,,,,,,,,,,,,,,,,,,,,,,,,,,,,,,,,,,,,,,,,,,,,,,,,,,,,,,,,,,,,,,,,,,,,,,,,,,,,,,,,,,
,,5fa08f46762c290fca55ec9f,2024-02-19_02h12.33.456,kallum_motion_pilot,2023.2.2,Win32,19.96007984,5fa08f46762c290fca55ec9f,65d2b6c8f2eece985d8e374c,65d2b8f6fe7a391178aea35c,0.2448,0.245,1,51,213,128,1,fivesix,,,,,,,,,,,,,,,,,,,,,,,,,,,,,,,,,,,,,,,,,,,,,,,,,,,,,,,,,,,,,,,,,,,,,,,,,,,,,,,,,,,,,,,,,,,,,,,,,,,,,,,,,,,,,,,,,,,,,,,,,,,,,,,,,,,,,,,,,
,,5fa08f46762c290fca55ec9f,2024-02-19_02h12.33.456,kallum_motion_pilot,2023.2.2,Win32,19.96007984,5fa08f46762c290fca55ec9f,65d2b6c8f2eece985d8e374c,65d2b8f6fe7a391178aea35c,0.2453,0.2456,1,52,214,7,1,fourthree,,,,,,,,,,,,,,,,,,,,,,,,,,,,,,,,,,,,,,,,,,,,,,,,,,,,,,,,,,,,,,,,,,,,,,,,,,,,,,,,,,,,,,,,,,,,,,,,,,,,,,,,,,,,,,,,,,,,,,,,,,,,,,,,,,,,,,,,,
,,5fa08f46762c290fca55ec9f,2024-02-19_02h12.33.456,kallum_motion_pilot,2023.2.2,Win32,19.96007984,5fa08f46762c290fca55ec9f,65d2b6c8f2eece985d8e374c,65d2b8f6fe7a391178aea35c,0.2461,0.2471,1,53,215,43,1,twofour,,,,,,,,,,,,,,,,,,,,,,,,,,,,,,,,,,,,,,,,,,,,,,,,,,,,,,,,,,,,,,,,,,,,,,,,,,,,,,,,,,,,,,,,,,,,,,,,,,,,,,,,,,,,,,,,,,,,,,,,,,,,,,,,,,,,,,,,,
,,5fa08f46762c290fca55ec9f,2024-02-19_02h12.33.456,kallum_motion_pilot,2023.2.2,Win32,19.96007984,5fa08f46762c290fca55ec9f,65d2b6c8f2eece985d8e374c,65d2b8f6fe7a391178aea35c,0.2475,0.2477,1,54,216,19,1,twofour,,,,,,,,,,,,,,,,,,,,,,,,,,,,,,,,,,,,,,,,,,,,,,,,,,,,,,,,,,,,,,,,,,,,,,,,,,,,,,,,,,,,,,,,,,,,,,,,,,,,,,,,,,,,,,,,,,,,,,,,,,,,,,,,,,,,,,,,,
,,5fa08f46762c290fca55ec9f,2024-02-19_02h12.33.456,kallum_motion_pilot,2023.2.2,Win32,19.96007984,5fa08f46762c290fca55ec9f,65d2b6c8f2eece985d8e374c,65d2b8f6fe7a391178aea35c,0.2481,0.2483,1,55,217,23,1,fourthree,,,,,,,,,,,,,,,,,,,,,,,,,,,,,,,,,,,,,,,,,,,,,,,,,,,,,,,,,,,,,,,,,,,,,,,,,,,,,,,,,,,,,,,,,,,,,,,,,,,,,,,,,,,,,,,,,,,,,,,,,,,,,,,,,,,,,,,,,
,,5fa08f46762c290fca55ec9f,2024-02-19_02h12.33.456,kallum_motion_pilot,2023.2.2,Win32,19.96007984,5fa08f46762c290fca55ec9f,65d2b6c8f2eece985d8e374c,65d2b8f6fe7a391178aea35c,0.2486,0.2488,1,56,218,112,1,fivesix,,,,,,,,,,,,,,,,,,,,,,,,,,,,,,,,,,,,,,,,,,,,,,,,,,,,,,,,,,,,,,,,,,,,,,,,,,,,,,,,,,,,,,,,,,,,,,,,,,,,,,,,,,,,,,,,,,,,,,,,,,,,,,,,,,,,,,,,,
,,5fa08f46762c290fca55ec9f,2024-02-19_02h12.33.456,kallum_motion_pilot,2023.2.2,Win32,19.96007984,5fa08f46762c290fca55ec9f,65d2b6c8f2eece985d8e374c,65d2b8f6fe7a391178aea35c,0.2491,0.2493,1,57,219,70,1,fourtwo,,,,,,,,,,,,,,,,,,,,,,,,,,,,,,,,,,,,,,,,,,,,,,,,,,,,,,,,,,,,,,,,,,,,,,,,,,,,,,,,,,,,,,,,,,,,,,,,,,,,,,,,,,,,,,,,,,,,,,,,,,,,,,,,,,,,,,,,,
,,5fa08f46762c290fca55ec9f,2024-02-19_02h12.33.456,kallum_motion_pilot,2023.2.2,Win32,19.96007984,5fa08f46762c290fca55ec9f,65d2b6c8f2eece985d8e374c,65d2b8f6fe7a391178aea35c,0.2497,0.2499,1,58,220,76,1,threeone,,,,,,,,,,,,,,,,,,,,,,,,,,,,,,,,,,,,,,,,,,,,,,,,,,,,,,,,,,,,,,,,,,,,,,,,,,,,,,,,,,,,,,,,,,,,,,,,,,,,,,,,,,,,,,,,,,,,,,,,,,,,,,,,,,,,,,,,,
,,5fa08f46762c290fca55ec9f,2024-02-19_02h12.33.456,kallum_motion_pilot,2023.2.2,Win32,19.96007984,5fa08f46762c290fca55ec9f,65d2b6c8f2eece985d8e374c,65d2b8f6fe7a391178aea35c,0.2502,0.2504,1,59,221,73,1,onethree,,,,,,,,,,,,,,,,,,,,,,,,,,,,,,,,,,,,,,,,,,,,,,,,,,,,,,,,,,,,,,,,,,,,,,,,,,,,,,,,,,,,,,,,,,,,,,,,,,,,,,,,,,,,,,,,,,,,,,,,,,,,,,,,,,,,,,,,,
,,5fa08f46762c290fca55ec9f,2024-02-19_02h12.33.456,kallum_motion_pilot,2023.2.2,Win32,19.96007984,5fa08f46762c290fca55ec9f,65d2b6c8f2eece985d8e374c,65d2b8f6fe7a391178aea35c,0.2508,0.251,1,60,222,21,1,threefour,,,,,,,,,,,,,,,,,,,,,,,,,,,,,,,,,,,,,,,,,,,,,,,,,,,,,,,,,,,,,,,,,,,,,,,,,,,,,,,,,,,,,,,,,,,,,,,,,,,,,,,,,,,,,,,,,,,,,,,,,,,,,,,,,,,,,,,,,
,,5fa08f46762c290fca55ec9f,2024-02-19_02h12.33.456,kallum_motion_pilot,2023.2.2,Win32,19.96007984,5fa08f46762c290fca55ec9f,65d2b6c8f2eece985d8e374c,65d2b8f6fe7a391178aea35c,0.2513,0.2515,1,61,223,28,1,threeone,,,,,,,,,,,,,,,,,,,,,,,,,,,,,,,,,,,,,,,,,,,,,,,,,,,,,,,,,,,,,,,,,,,,,,,,,,,,,,,,,,,,,,,,,,,,,,,,,,,,,,,,,,,,,,,,,,,,,,,,,,,,,,,,,,,,,,,,,
,,5fa08f46762c290fca55ec9f,2024-02-19_02h12.33.456,kallum_motion_pilot,2023.2.2,Win32,19.96007984,5fa08f46762c290fca55ec9f,65d2b6c8f2eece985d8e374c,65d2b8f6fe7a391178aea35c,0.2547,0.2552,1,62,224,29,1,threefour,,,,,,,,,,,,,,,,,,,,,,,,,,,,,,,,,,,,,,,,,,,,,,,,,,,,,,,,,,,,,,,,,,,,,,,,,,,,,,,,,,,,,,,,,,,,,,,,,,,,,,,,,,,,,,,,,,,,,,,,,,,,,,,,,,,,,,,,,
,,5fa08f46762c290fca55ec9f,2024-02-19_02h12.33.456,kallum_motion_pilot,2023.2.2,Win32,19.96007984,5fa08f46762c290fca55ec9f,65d2b6c8f2eece985d8e374c,65d2b8f6fe7a391178aea35c,0.2556,0.2563,1,63,225,53,1,threefour,,,,,,,,,,,,,,,,,,,,,,,,,,,,,,,,,,,,,,,,,,,,,,,,,,,,,,,,,,,,,,,,,,,,,,,,,,,,,,,,,,,,,,,,,,,,,,,,,,,,,,,,,,,,,,,,,,,,,,,,,,,,,,,,,,,,,,,,,
,,5fa08f46762c290fca55ec9f,2024-02-19_02h12.33.456,kallum_motion_pilot,2023.2.2,Win32,19.96007984,5fa08f46762c290fca55ec9f,65d2b6c8f2eece985d8e374c,65d2b8f6fe7a391178aea35c,0.2571,0.2576,1,64,226,113,1,fiveseven,,,,,,,,,,,,,,,,,,,,,,,,,,,,,,,,,,,,,,,,,,,,,,,,,,,,,,,,,,,,,,,,,,,,,,,,,,,,,,,,,,,,,,,,,,,,,,,,,,,,,,,,,,,,,,,,,,,,,,,,,,,,,,,,,,,,,,,,,
,,5fa08f46762c290fca55ec9f,2024-02-19_02h12.33.456,kallum_motion_pilot,2023.2.2,Win32,19.96007984,5fa08f46762c290fca55ec9f,65d2b6c8f2eece985d8e374c,65d2b8f6fe7a391178aea35c,0.258,0.2585,1,65,227,55,1,fourthree,,,,,,,,,,,,,,,,,,,,,,,,,,,,,,,,,,,,,,,,,,,,,,,,,,,,,,,,,,,,,,,,,,,,,,,,,,,,,,,,,,,,,,,,,,,,,,,,,,,,,,,,,,,,,,,,,,,,,,,,,,,,,,,,,,,,,,,,,
,,5fa08f46762c290fca55ec9f,2024-02-19_02h12.33.456,kallum_motion_pilot,2023.2.2,Win32,19.96007984,5fa08f46762c290fca55ec9f,65d2b6c8f2eece985d8e374c,65d2b8f6fe7a391178aea35c,0.2588,0.2591,1,66,228,56,1,onetwo,,,,,,,,,,,,,,,,,,,,,,,,,,,,,,,,,,,,,,,,,,,,,,,,,,,,,,,,,,,,,,,,,,,,,,,,,,,,,,,,,,,,,,,,,,,,,,,,,,,,,,,,,,,,,,,,,,,,,,,,,,,,,,,,,,,,,,,,,
,,5fa08f46762c290fca55ec9f,2024-02-19_02h12.33.456,kallum_motion_pilot,2023.2.2,Win32,19.96007984,5fa08f46762c290fca55ec9f,65d2b6c8f2eece985d8e374c,65d2b8f6fe7a391178aea35c,0.2594,0.2597,1,67,229,0,1,onetwo,,,,,,,,,,,,,,,,,,,,,,,,,,,,,,,,,,,,,,,,,,,,,,,,,,,,,,,,,,,,,,,,,,,,,,,,,,,,,,,,,,,,,,,,,,,,,,,,,,,,,,,,,,,,,,,,,,,,,,,,,,,,,,,,,,,,,,,,,
,,5fa08f46762c290fca55ec9f,2024-02-19_02h12.33.456,kallum_motion_pilot,2023.2.2,Win32,19.96007984,5fa08f46762c290fca55ec9f,65d2b6c8f2eece985d8e374c,65d2b8f6fe7a391178aea35c,0.2601,0.2602,1,68,230,16,1,onetwo,,,,,,,,,,,,,,,,,,,,,,,,,,,,,,,,,,,,,,,,,,,,,,,,,,,,,,,,,,,,,,,,,,,,,,,,,,,,,,,,,,,,,,,,,,,,,,,,,,,,,,,,,,,,,,,,,,,,,,,,,,,,,,,,,,,,,,,,,
,,5fa08f46762c290fca55ec9f,2024-02-19_02h12.33.456,kallum_motion_pilot,2023.2.2,Win32,19.96007984,5fa08f46762c290fca55ec9f,65d2b6c8f2eece985d8e374c,65d2b8f6fe7a391178aea35c,0.2605,0.2608,1,69,231,104,1,fivesix,,,,,,,,,,,,,,,,,,,,,,,,,,,,,,,,,,,,,,,,,,,,,,,,,,,,,,,,,,,,,,,,,,,,,,,,,,,,,,,,,,,,,,,,,,,,,,,,,,,,,,,,,,,,,,,,,,,,,,,,,,,,,,,,,,,,,,,,,
,,5fa08f46762c290fca55ec9f,2024-02-19_02h12.33.456,kallum_motion_pilot,2023.2.2,Win32,19.96007984,5fa08f46762c290fca55ec9f,65d2b6c8f2eece985d8e374c,65d2b8f6fe7a391178aea35c,0.2613,0.2615,1,70,232,74,1,twoone,,,,,,,,,,,,,,,,,,,,,,,,,,,,,,,,,,,,,,,,,,,,,,,,,,,,,,,,,,,,,,,,,,,,,,,,,,,,,,,,,,,,,,,,,,,,,,,,,,,,,,,,,,,,,,,,,,,,,,,,,,,,,,,,,,,,,,,,,
,,5fa08f46762c290fca55ec9f,2024-02-19_02h12.33.456,kallum_motion_pilot,2023.2.2,Win32,19.96007984,5fa08f46762c290fca55ec9f,65d2b6c8f2eece985d8e374c,65d2b8f6fe7a391178aea35c,0.2618,0.262,1,71,233,121,1,fiveseven,,,,,,,,,,,,,,,,,,,,,,,,,,,,,,,,,,,,,,,,,,,,,,,,,,,,,,,,,,,,,,,,,,,,,,,,,,,,,,,,,,,,,,,,,,,,,,,,,,,,,,,,,,,,,,,,,,,,,,,,,,,,,,,,,,,,,,,,,
,,5fa08f46762c290fca55ec9f,2024-02-19_02h12.33.456,kallum_motion_pilot,2023.2.2,Win32,19.96007984,5fa08f46762c290fca55ec9f,65d2b6c8f2eece985d8e374c,65d2b8f6fe7a391178aea35c,0.2623,0.2625,1,72,234,95,1,eightseven,,,,,,,,,,,,,,,,,,,,,,,,,,,,,,,,,,,,,,,,,,,,,,,,,,,,,,,,,,,,,,,,,,,,,,,,,,,,,,,,,,,,,,,,,,,,,,,,,,,,,,,,,,,,,,,,,,,,,,,,,,,,,,,,,,,,,,,,,
,,5fa08f46762c290fca55ec9f,2024-02-19_02h12.33.456,kallum_motion_pilot,2023.2.2,Win32,19.96007984,5fa08f46762c290fca55ec9f,65d2b6c8f2eece985d8e374c,65d2b8f6fe7a391178aea35c,0.2628,0.263,1,73,235,141,1,seveneight,,,,,,,,,,,,,,,,,,,,,,,,,,,,,,,,,,,,,,,,,,,,,,,,,,,,,,,,,,,,,,,,,,,,,,,,,,,,,,,,,,,,,,,,,,,,,,,,,,,,,,,,,,,,,,,,,,,,,,,,,,,,,,,,,,,,,,,,,
,,5fa08f46762c290fca55ec9f,2024-02-19_02h12.33.456,kallum_motion_pilot,2023.2.2,Win32,19.96007984,5fa08f46762c290fca55ec9f,65d2b6c8f2eece985d8e374c,65d2b8f6fe7a391178aea35c,0.2633,0.2635,1,74,236,1,1,onethree,,,,,,,,,,,,,,,,,,,,,,,,,,,,,,,,,,,,,,,,,,,,,,,,,,,,,,,,,,,,,,,,,,,,,,,,,,,,,,,,,,,,,,,,,,,,,,,,,,,,,,,,,,,,,,,,,,,,,,,,,,,,,,,,,,,,,,,,,
,,5fa08f46762c290fca55ec9f,2024-02-19_02h12.33.456,kallum_motion_pilot,2023.2.2,Win32,19.96007984,5fa08f46762c290fca55ec9f,65d2b6c8f2eece985d8e374c,65d2b8f6fe7a391178aea35c,0.2638,0.264,1,75,237,157,1,seveneight,,,,,,,,,,,,,,,,,,,,,,,,,,,,,,,,,,,,,,,,,,,,,,,,,,,,,,,,,,,,,,,,,,,,,,,,,,,,,,,,,,,,,,,,,,,,,,,,,,,,,,,,,,,,,,,,,,,,,,,,,,,,,,,,,,,,,,,,,
,,5fa08f46762c290fca55ec9f,2024-02-19_02h12.33.456,kallum_motion_pilot,2023.2.2,Win32,19.96007984,5fa08f46762c290fca55ec9f,65d2b6c8f2eece985d8e374c,65d2b8f6fe7a391178aea35c,0.2643,0.2646,1,76,238,87,1,eightseven,,,,,,,,,,,,,,,,,,,,,,,,,,,,,,,,,,,,,,,,,,,,,,,,,,,,,,,,,,,,,,,,,,,,,,,,,,,,,,,,,,,,,,,,,,,,,,,,,,,,,,,,,,,,,,,,,,,,,,,,,,,,,,,,,,,,,,,,,
,,5fa08f46762c290fca55ec9f,2024-02-19_02h12.33.456,kallum_motion_pilot,2023.2.2,Win32,19.96007984,5fa08f46762c290fca55ec9f,65d2b6c8f2eece985d8e374c,65d2b8f6fe7a391178aea35c,0.2649,0.2652,1,77,239,99,1,sixeight,,,,,,,,,,,,,,,,,,,,,,,,,,,,,,,,,,,,,,,,,,,,,,,,,,,,,,,,,,,,,,,,,,,,,,,,,,,,,,,,,,,,,,,,,,,,,,,,,,,,,,,,,,,,,,,,,,,,,,,,,,,,,,,,,,,,,,,,,
,,5fa08f46762c290fca55ec9f,2024-02-19_02h12.33.456,kallum_motion_pilot,2023.2.2,Win32,19.96007984,5fa08f46762c290fca55ec9f,65d2b6c8f2eece985d8e374c,65d2b8f6fe7a391178aea35c,0.2655,0.2659,1,78,240,41,1,onethree,,,,,,,,,,,,,,,,,,,,,,,,,,,,,,,,,,,,,,,,,,,,,,,,,,,,,,,,,,,,,,,,,,,,,,,,,,,,,,,,,,,,,,,,,,,,,,,,,,,,,,,,,,,,,,,,,,,,,,,,,,,,,,,,,,,,,,,,,
,,5fa08f46762c290fca55ec9f,2024-02-19_02h12.33.456,kallum_motion_pilot,2023.2.2,Win32,19.96007984,5fa08f46762c290fca55ec9f,65d2b6c8f2eece985d8e374c,65d2b8f6fe7a391178aea35c,0.2663,0.2672,1,79,241,80,1,fivesix,,,,,,,,,,,,,,,,,,,,,,,,,,,,,,,,,,,,,,,,,,,,,,,,,,,,,,,,,,,,,,,,,,,,,,,,,,,,,,,,,,,,,,,,,,,,,,,,,,,,,,,,,,,,,,,,,,,,,,,,,,,,,,,,,,,,,,,,,
,,5fa08f46762c290fca55ec9f,2024-02-19_02h12.33.456,kallum_motion_pilot,2023.2.2,Win32,19.96007984,5fa08f46762c290fca55ec9f,65d2b6c8f2eece985d8e374c,65d2b8f6fe7a391178aea35c,0.2676,0.2678,1,80,242,102,1,eightsix,,,,,,,,,,,,,,,,,,,,,,,,,,,,,,,,,,,,,,,,,,,,,,,,,,,,,,,,,,,,,,,,,,,,,,,,,,,,,,,,,,,,,,,,,,,,,,,,,,,,,,,,,,,,,,,,,,,,,,,,,,,,,,,,,,,,,,,,,
,,5fa08f46762c290fca55ec9f,2024-02-19_02h12.33.456,kallum_motion_pilot,2023.2.2,Win32,19.96007984,5fa08f46762c290fca55ec9f,65d2b6c8f2eece985d8e374c,65d2b8f6fe7a391178aea35c,0.2682,0.2683,1,81,243,135,1,eightseven,,,,,,,,,,,,,,,,,,,,,,,,,,,,,,,,,,,,,,,,,,,,,,,,,,,,,,,,,,,,,,,,,,,,,,,,,,,,,,,,,,,,,,,,,,,,,,,,,,,,,,,,,,,,,,,,,,,,,,,,,,,,,,,,,,,,,,,,,
,,5fa08f46762c290fca55ec9f,2024-02-19_02h12.33.456,kallum_motion_pilot,2023.2.2,Win32,19.96007984,5fa08f46762c290fca55ec9f,65d2b6c8f2eece985d8e374c,65d2b8f6fe7a391178aea35c,0.2726,0.2728,1,82,244,93,1,seveneight,,,,,,,,,,,,,,,,,,,,,,,,,,,,,,,,,,,,,,,,,,,,,,,,,,,,,,,,,,,,,,,,,,,,,,,,,,,,,,,,,,,,,,,,,,,,,,,,,,,,,,,,,,,,,,,,,,,,,,,,,,,,,,,,,,,,,,,,,
,,5fa08f46762c290fca55ec9f,2024-02-19_02h12.33.456,kallum_motion_pilot,2023.2.2,Win32,19.96007984,5fa08f46762c290fca55ec9f,65d2b6c8f2eece985d8e374c,65d2b8f6fe7a391178aea35c,0.2733,0.2736,1,83,245,49,1,onethree,,,,,,,,,,,,,,,,,,,,,,,,,,,,,,,,,,,,,,,,,,,,,,,,,,,,,,,,,,,,,,,,,,,,,,,,,,,,,,,,,,,,,,,,,,,,,,,,,,,,,,,,,,,,,,,,,,,,,,,,,,,,,,,,,,,,,,,,,
,,5fa08f46762c290fca55ec9f,2024-02-19_02h12.33.456,kallum_motion_pilot,2023.2.2,Win32,19.96007984,5fa08f46762c290fca55ec9f,65d2b6c8f2eece985d8e374c,65d2b8f6fe7a391178aea35c,0.2739,0.2741,1,84,246,137,1,fiveseven,,,,,,,,,,,,,,,,,,,,,,,,,,,,,,,,,,,,,,,,,,,,,,,,,,,,,,,,,,,,,,,,,,,,,,,,,,,,,,,,,,,,,,,,,,,,,,,,,,,,,,,,,,,,,,,,,,,,,,,,,,,,,,,,,,,,,,,,,
,,5fa08f46762c290fca55ec9f,2024-02-19_02h12.33.456,kallum_motion_pilot,2023.2.2,Win32,19.96007984,5fa08f46762c290fca55ec9f,65d2b6c8f2eece985d8e374c,65d2b8f6fe7a391178aea35c,0.2745,0.2749,1,85,247,142,1,eightsix,,,,,,,,,,,,,,,,,,,,,,,,,,,,,,,,,,,,,,,,,,,,,,,,,,,,,,,,,,,,,,,,,,,,,,,,,,,,,,,,,,,,,,,,,,,,,,,,,,,,,,,,,,,,,,,,,,,,,,,,,,,,,,,,,,,,,,,,,
,,5fa08f46762c290fca55ec9f,2024-02-19_02h12.33.456,kallum_motion_pilot,2023.2.2,Win32,19.96007984,5fa08f46762c290fca55ec9f,65d2b6c8f2eece985d8e374c,65d2b8f6fe7a391178aea35c,0.2751,0.2754,1,86,248,123,1,sixeight,,,,,,,,,,,,,,,,,,,,,,,,,,,,,,,,,,,,,,,,,,,,,,,,,,,,,,,,,,,,,,,,,,,,,,,,,,,,,,,,,,,,,,,,,,,,,,,,,,,,,,,,,,,,,,,,,,,,,,,,,,,,,,,,,,,,,,,,,
,,5fa08f46762c290fca55ec9f,2024-02-19_02h12.33.456,kallum_motion_pilot,2023.2.2,Win32,19.96007984,5fa08f46762c290fca55ec9f,65d2b6c8f2eece985d8e374c,65d2b8f6fe7a391178aea35c,0.2757,0.2763,1,87,249,65,1,onethree,,,,,,,,,,,,,,,,,,,,,,,,,,,,,,,,,,,,,,,,,,,,,,,,,,,,,,,,,,,,,,,,,,,,,,,,,,,,,,,,,,,,,,,,,,,,,,,,,,,,,,,,,,,,,,,,,,,,,,,,,,,,,,,,,,,,,,,,,
,,5fa08f46762c290fca55ec9f,2024-02-19_02h12.33.456,kallum_motion_pilot,2023.2.2,Win32,19.96007984,5fa08f46762c290fca55ec9f,65d2b6c8f2eece985d8e374c,65d2b8f6fe7a391178aea35c,0.2771,0.2777,1,88,250,139,1,sixeight,,,,,,,,,,,,,,,,,,,,,,,,,,,,,,,,,,,,,,,,,,,,,,,,,,,,,,,,,,,,,,,,,,,,,,,,,,,,,,,,,,,,,,,,,,,,,,,,,,,,,,,,,,,,,,,,,,,,,,,,,,,,,,,,,,,,,,,,,
,,5fa08f46762c290fca55ec9f,2024-02-19_02h12.33.456,kallum_motion_pilot,2023.2.2,Win32,19.96007984,5fa08f46762c290fca55ec9f,65d2b6c8f2eece985d8e374c,65d2b8f6fe7a391178aea35c,0.2781,0.2783,1,89,251,158,1,eightsix,,,,,,,,,,,,,,,,,,,,,,,,,,,,,,,,,,,,,,,,,,,,,,,,,,,,,,,,,,,,,,,,,,,,,,,,,,,,,,,,,,,,,,,,,,,,,,,,,,,,,,,,,,,,,,,,,,,,,,,,,,,,,,,,,,,,,,,,,
,,5fa08f46762c290fca55ec9f,2024-02-19_02h12.33.456,kallum_motion_pilot,2023.2.2,Win32,19.96007984,5fa08f46762c290fca55ec9f,65d2b6c8f2eece985d8e374c,65d2b8f6fe7a391178aea35c,0.2786,0.2789,1,90,252,144,1,fivesix,,,,,,,,,,,,,,,,,,,,,,,,,,,,,,,,,,,,,,,,,,,,,,,,,,,,,,,,,,,,,,,,,,,,,,,,,,,,,,,,,,,,,,,,,,,,,,,,,,,,,,,,,,,,,,,,,,,,,,,,,,,,,,,,,,,,,,,,,
,,5fa08f46762c290fca55ec9f,2024-02-19_02h12.33.456,kallum_motion_pilot,2023.2.2,Win32,19.96007984,5fa08f46762c290fca55ec9f,65d2b6c8f2eece985d8e374c,65d2b8f6fe7a391178aea35c,0.2793,0.2796,1,91,253,133,1,seveneight,,,,,,,,,,,,,,,,,,,,,,,,,,,,,,,,,,,,,,,,,,,,,,,,,,,,,,,,,,,,,,,,,,,,,,,,,,,,,,,,,,,,,,,,,,,,,,,,,,,,,,,,,,,,,,,,,,,,,,,,,,,,,,,,,,,,,,,,,
,,5fa08f46762c290fca55ec9f,2024-02-19_02h12.33.456,kallum_motion_pilot,2023.2.2,Win32,19.96007984,5fa08f46762c290fca55ec9f,65d2b6c8f2eece985d8e374c,65d2b8f6fe7a391178aea35c,0.2798,0.2802,1,92,254,132,1,sevenfive,,,,,,,,,,,,,,,,,,,,,,,,,,,,,,,,,,,,,,,,,,,,,,,,,,,,,,,,,,,,,,,,,,,,,,,,,,,,,,,,,,,,,,,,,,,,,,,,,,,,,,,,,,,,,,,,,,,,,,,,,,,,,,,,,,,,,,,,,
,,5fa08f46762c290fca55ec9f,2024-02-19_02h12.33.456,kallum_motion_pilot,2023.2.2,Win32,19.96007984,5fa08f46762c290fca55ec9f,65d2b6c8f2eece985d8e374c,65d2b8f6fe7a391178aea35c,0.2808,0.281,1,93,255,4,1,threeone,,,,,,,,,,,,,,,,,,,,,,,,,,,,,,,,,,,,,,,,,,,,,,,,,,,,,,,,,,,,,,,,,,,,,,,,,,,,,,,,,,,,,,,,,,,,,,,,,,,,,,,,,,,,,,,,,,,,,,,,,,,,,,,,,,,,,,,,,
,,5fa08f46762c290fca55ec9f,2024-02-19_02h12.33.456,kallum_motion_pilot,2023.2.2,Win32,19.96007984,5fa08f46762c290fca55ec9f,65d2b6c8f2eece985d8e374c,65d2b8f6fe7a391178aea35c,0.2813,0.2818,1,94,256,22,1,fourtwo,,,,,,,,,,,,,,,,,,,,,,,,,,,,,,,,,,,,,,,,,,,,,,,,,,,,,,,,,,,,,,,,,,,,,,,,,,,,,,,,,,,,,,,,,,,,,,,,,,,,,,,,,,,,,,,,,,,,,,,,,,,,,,,,,,,,,,,,,
,,5fa08f46762c290fca55ec9f,2024-02-19_02h12.33.456,kallum_motion_pilot,2023.2.2,Win32,19.96007984,5fa08f46762c290fca55ec9f,65d2b6c8f2eece985d8e374c,65d2b8f6fe7a391178aea35c,0.282,0.2822,1,95,257,3,1,twofour,,,,,,,,,,,,,,,,,,,,,,,,,,,,,,,,,,,,,,,,,,,,,,,,,,,,,,,,,,,,,,,,,,,,,,,,,,,,,,,,,,,,,,,,,,,,,,,,,,,,,,,,,,,,,,,,,,,,,,,,,,,,,,,,,,,,,,,,,
,,5fa08f46762c290fca55ec9f,2024-02-19_02h12.33.456,kallum_motion_pilot,2023.2.2,Win32,19.96007984,5fa08f46762c290fca55ec9f,65d2b6c8f2eece985d8e374c,65d2b8f6fe7a391178aea35c,0.2826,0.2828,1,96,258,46,1,fourtwo,,,,,,,,,,,,,,,,,,,,,,,,,,,,,,,,,,,,,,,,,,,,,,,,,,,,,,,,,,,,,,,,,,,,,,,,,,,,,,,,,,,,,,,,,,,,,,,,,,,,,,,,,,,,,,,,,,,,,,,,,,,,,,,,,,,,,,,,,
,,5fa08f46762c290fca55ec9f,2024-02-19_02h12.33.456,kallum_motion_pilot,2023.2.2,Win32,19.96007984,5fa08f46762c290fca55ec9f,65d2b6c8f2eece985d8e374c,65d2b8f6fe7a391178aea35c,0.2831,0.2834,1,97,259,54,1,fourtwo,,,,,,,,,,,,,,,,,,,,,,,,,,,,,,,,,,,,,,,,,,,,,,,,,,,,,,,,,,,,,,,,,,,,,,,,,,,,,,,,,,,,,,,,,,,,,,,,,,,,,,,,,,,,,,,,,,,,,,,,,,,,,,,,,,,,,,,,,
,,5fa08f46762c290fca55ec9f,2024-02-19_02h12.33.456,kallum_motion_pilot,2023.2.2,Win32,19.96007984,5fa08f46762c290fca55ec9f,65d2b6c8f2eece985d8e374c,65d2b8f6fe7a391178aea35c,0.2836,0.2839,1,98,260,111,1,eightseven,,,,,,,,,,,,,,,,,,,,,,,,,,,,,,,,,,,,,,,,,,,,,,,,,,,,,,,,,,,,,,,,,,,,,,,,,,,,,,,,,,,,,,,,,,,,,,,,,,,,,,,,,,,,,,,,,,,,,,,,,,,,,,,,,,,,,,,,,
,,5fa08f46762c290fca55ec9f,2024-02-19_02h12.33.456,kallum_motion_pilot,2023.2.2,Win32,19.96007984,5fa08f46762c290fca55ec9f,65d2b6c8f2eece985d8e374c,65d2b8f6fe7a391178aea35c,0.2842,0.2845,1,99,261,82,1,sixfive,,,,,,,,,,,,,,,,,,,,,,,,,,,,,,,,,,,,,,,,,,,,,,,,,,,,,,,,,,,,,,,,,,,,,,,,,,,,,,,,,,,,,,,,,,,,,,,,,,,,,,,,,,,,,,,,,,,,,,,,,,,,,,,,,,,,,,,,,
,,5fa08f46762c290fca55ec9f,2024-02-19_02h12.33.456,kallum_motion_pilot,2023.2.2,Win32,19.96007984,5fa08f46762c290fca55ec9f,65d2b6c8f2eece985d8e374c,65d2b8f6fe7a391178aea35c,0.285,0.2882,1,100,262,98,1,sixfive,,,,,,,,,,,,,,,,,,,,,,,,,,,,,,,,,,,,,,,,,,,,,,,,,,,,,,,,,,,,,,,,,,,,,,,,,,,,,,,,,,,,,,,,,,,,,,,,,,,,,,,,,,,,,,,,,,,,,,,,,,,,,,,,,,,,,,,,,
,,5fa08f46762c290fca55ec9f,2024-02-19_02h12.33.456,kallum_motion_pilot,2023.2.2,Win32,19.96007984,5fa08f46762c290fca55ec9f,65d2b6c8f2eece985d8e374c,65d2b8f6fe7a391178aea35c,0.2892,0.2895,1,101,263,51,1,twofour,,,,,,,,,,,,,,,,,,,,,,,,,,,,,,,,,,,,,,,,,,,,,,,,,,,,,,,,,,,,,,,,,,,,,,,,,,,,,,,,,,,,,,,,,,,,,,,,,,,,,,,,,,,,,,,,,,,,,,,,,,,,,,,,,,,,,,,,,
,,5fa08f46762c290fca55ec9f,2024-02-19_02h12.33.456,kallum_motion_pilot,2023.2.2,Win32,19.96007984,5fa08f46762c290fca55ec9f,65d2b6c8f2eece985d8e374c,65d2b8f6fe7a391178aea35c,0.2899,0.2901,1,102,264,147,1,sixeight,,,,,,,,,,,,,,,,,,,,,,,,,,,,,,,,,,,,,,,,,,,,,,,,,,,,,,,,,,,,,,,,,,,,,,,,,,,,,,,,,,,,,,,,,,,,,,,,,,,,,,,,,,,,,,,,,,,,,,,,,,,,,,,,,,,,,,,,,
,,5fa08f46762c290fca55ec9f,2024-02-19_02h12.33.456,kallum_motion_pilot,2023.2.2,Win32,19.96007984,5fa08f46762c290fca55ec9f,65d2b6c8f2eece985d8e374c,65d2b8f6fe7a391178aea35c,0.2905,0.2907,1,103,265,11,1,twofour,,,,,,,,,,,,,,,,,,,,,,,,,,,,,,,,,,,,,,,,,,,,,,,,,,,,,,,,,,,,,,,,,,,,,,,,,,,,,,,,,,,,,,,,,,,,,,,,,,,,,,,,,,,,,,,,,,,,,,,,,,,,,,,,,,,,,,,,,
,,5fa08f46762c290fca55ec9f,2024-02-19_02h12.33.456,kallum_motion_pilot,2023.2.2,Win32,19.96007984,5fa08f46762c290fca55ec9f,65d2b6c8f2eece985d8e374c,65d2b8f6fe7a391178aea35c,0.291,0.2913,1,104,266,140,1,sevenfive,,,,,,,,,,,,,,,,,,,,,,,,,,,,,,,,,,,,,,,,,,,,,,,,,,,,,,,,,,,,,,,,,,,,,,,,,,,,,,,,,,,,,,,,,,,,,,,,,,,,,,,,,,,,,,,,,,,,,,,,,,,,,,,,,,,,,,,,,
,,5fa08f46762c290fca55ec9f,2024-02-19_02h12.33.456,kallum_motion_pilot,2023.2.2,Win32,19.96007984,5fa08f46762c290fca55ec9f,65d2b6c8f2eece985d8e374c,65d2b8f6fe7a391178aea35c,0.2915,0.2919,1,105,267,88,1,fivesix,,,,,,,,,,,,,,,,,,,,,,,,,,,,,,,,,,,,,,,,,,,,,,,,,,,,,,,,,,,,,,,,,,,,,,,,,,,,,,,,,,,,,,,,,,,,,,,,,,,,,,,,,,,,,,,,,,,,,,,,,,,,,,,,,,,,,,,,,
,,5fa08f46762c290fca55ec9f,2024-02-19_02h12.33.456,kallum_motion_pilot,2023.2.2,Win32,19.96007984,5fa08f46762c290fca55ec9f,65d2b6c8f2eece985d8e374c,65d2b8f6fe7a391178aea35c,0.2921,0.2924,1,106,268,13,1,threefour,,,,,,,,,,,,,,,,,,,,,,,,,,,,,,,,,,,,,,,,,,,,,,,,,,,,,,,,,,,,,,,,,,,,,,,,,,,,,,,,,,,,,,,,,,,,,,,,,,,,,,,,,,,,,,,,,,,,,,,,,,,,,,,,,,,,,,,,,
,,5fa08f46762c290fca55ec9f,2024-02-19_02h12.33.456,kallum_motion_pilot,2023.2.2,Win32,19.96007984,5fa08f46762c290fca55ec9f,65d2b6c8f2eece985d8e374c,65d2b8f6fe7a391178aea35c,0.2927,0.2929,1,107,269,66,1,twoone,,,,,,,,,,,,,,,,,,,,,,,,,,,,,,,,,,,,,,,,,,,,,,,,,,,,,,,,,,,,,,,,,,,,,,,,,,,,,,,,,,,,,,,,,,,,,,,,,,,,,,,,,,,,,,,,,,,,,,,,,,,,,,,,,,,,,,,,,
,,5fa08f46762c290fca55ec9f,2024-02-19_02h12.33.456,kallum_motion_pilot,2023.2.2,Win32,19.96007984,5fa08f46762c290fca55ec9f,65d2b6c8f2eece985d8e374c,65d2b8f6fe7a391178aea35c,0.2932,0.2934,1,108,270,155,1,sixeight,,,,,,,,,,,,,,,,,,,,,,,,,,,,,,,,,,,,,,,,,,,,,,,,,,,,,,,,,,,,,,,,,,,,,,,,,,,,,,,,,,,,,,,,,,,,,,,,,,,,,,,,,,,,,,,,,,,,,,,,,,,,,,,,,,,,,,,,,
,,5fa08f46762c290fca55ec9f,2024-02-19_02h12.33.456,kallum_motion_pilot,2023.2.2,Win32,19.96007984,5fa08f46762c290fca55ec9f,65d2b6c8f2eece985d8e374c,65d2b8f6fe7a391178aea35c,0.2937,0.294,1,109,271,126,1,eightsix,,,,,,,,,,,,,,,,,,,,,,,,,,,,,,,,,,,,,,,,,,,,,,,,,,,,,,,,,,,,,,,,,,,,,,,,,,,,,,,,,,,,,,,,,,,,,,,,,,,,,,,,,,,,,,,,,,,,,,,,,,,,,,,,,,,,,,,,,
,,5fa08f46762c290fca55ec9f,2024-02-19_02h12.33.456,kallum_motion_pilot,2023.2.2,Win32,19.96007984,5fa08f46762c290fca55ec9f,65d2b6c8f2eece985d8e374c,65d2b8f6fe7a391178aea35c,0.2943,0.2946,1,110,272,122,1,sixfive,,,,,,,,,,,,,,,,,,,,,,,,,,,,,,,,,,,,,,,,,,,,,,,,,,,,,,,,,,,,,,,,,,,,,,,,,,,,,,,,,,,,,,,,,,,,,,,,,,,,,,,,,,,,,,,,,,,,,,,,,,,,,,,,,,,,,,,,,
,,5fa08f46762c290fca55ec9f,2024-02-19_02h12.33.456,kallum_motion_pilot,2023.2.2,Win32,19.96007984,5fa08f46762c290fca55ec9f,65d2b6c8f2eece985d8e374c,65d2b8f6fe7a391178aea35c,0.2953,0.2955,1,111,273,78,1,fourtwo,,,,,,,,,,,,,,,,,,,,,,,,,,,,,,,,,,,,,,,,,,,,,,,,,,,,,,,,,,,,,,,,,,,,,,,,,,,,,,,,,,,,,,,,,,,,,,,,,,,,,,,,,,,,,,,,,,,,,,,,,,,,,,,,,,,,,,,,,
,,5fa08f46762c290fca55ec9f,2024-02-19_02h12.33.456,kallum_motion_pilot,2023.2.2,Win32,19.96007984,5fa08f46762c290fca55ec9f,65d2b6c8f2eece985d8e374c,65d2b8f6fe7a391178aea35c,0.2961,0.2968,1,112,274,100,1,sevenfive,,,,,,,,,,,,,,,,,,,,,,,,,,,,,,,,,,,,,,,,,,,,,,,,,,,,,,,,,,,,,,,,,,,,,,,,,,,,,,,,,,,,,,,,,,,,,,,,,,,,,,,,,,,,,,,,,,,,,,,,,,,,,,,,,,,,,,,,,
,,5fa08f46762c290fca55ec9f,2024-02-19_02h12.33.456,kallum_motion_pilot,2023.2.2,Win32,19.96007984,5fa08f46762c290fca55ec9f,65d2b6c8f2eece985d8e374c,65d2b8f6fe7a391178aea35c,0.2972,0.2975,1,113,275,5,1,threefour,,,,,,,,,,,,,,,,,,,,,,,,,,,,,,,,,,,,,,,,,,,,,,,,,,,,,,,,,,,,,,,,,,,,,,,,,,,,,,,,,,,,,,,,,,,,,,,,,,,,,,,,,,,,,,,,,,,,,,,,,,,,,,,,,,,,,,,,,
,,5fa08f46762c290fca55ec9f,2024-02-19_02h12.33.456,kallum_motion_pilot,2023.2.2,Win32,19.96007984,5fa08f46762c290fca55ec9f,65d2b6c8f2eece985d8e374c,65d2b8f6fe7a391178aea35c,0.2979,0.2983,1,114,276,14,1,fourtwo,,,,,,,,,,,,,,,,,,,,,,,,,,,,,,,,,,,,,,,,,,,,,,,,,,,,,,,,,,,,,,,,,,,,,,,,,,,,,,,,,,,,,,,,,,,,,,,,,,,,,,,,,,,,,,,,,,,,,,,,,,,,,,,,,,,,,,,,,
,,5fa08f46762c290fca55ec9f,2024-02-19_02h12.33.456,kallum_motion_pilot,2023.2.2,Win32,19.96007984,5fa08f46762c290fca55ec9f,65d2b6c8f2eece985d8e374c,65d2b8f6fe7a391178aea35c,0.2986,0.2989,1,115,277,79,1,eightseven,,,,,,,,,,,,,,,,,,,,,,,,,,,,,,,,,,,,,,,,,,,,,,,,,,,,,,,,,,,,,,,,,,,,,,,,,,,,,,,,,,,,,,,,,,,,,,,,,,,,,,,,,,,,,,,,,,,,,,,,,,,,,,,,,,,,,,,,,
