startup.started,startup.stopped,Prolific ID*,date,expName,psychopyVersion,OS,frameRate,participant,study_id,session,stimpositions.started,stimpositions.stopped,hardcoded_stimulus_positions.thisRepN,hardcoded_stimulus_positions.thisTrialN,hardcoded_stimulus_positions.thisN,hardcoded_stimulus_positions.thisIndex,hardcoded_stimulus_positions.ran,StimulusPos,stimorientation.started,stimorientation.stopped,prac_stimorientation_import_loop.thisRepN,prac_stimorientation_import_loop.thisTrialN,prac_stimorientation_import_loop.thisN,prac_stimorientation_import_loop.thisIndex,prac_stimorientation_import_loop.ran,Stimorientation,welcome_instr.started,welcome_instr.stopped,key_resp.keys,key_resp.rt,key_resp.duration,response_steppedout_1.started,response_steppedout_1.stopped,key_resp_20.keys,key_resp_20.rt,key_resp_20.duration,response_steppedout_2.started,response_steppedout_2.stopped,key_resp_19.keys,key_resp_19.rt,key_resp_19.duration,stim_response_instr.started,stim_response_instr.stopped,key_resp_15.keys,key_resp_15.rt,key_resp_15.duration,direction_instr_2.started,direction_instr_2.stopped,key_resp_9.keys,key_resp_9.rt,key_resp_9.duration,instr_prac.started,instr_prac.stopped,key_resp_10.keys,key_resp_10.rt,key_resp_10.duration,Stim1_display_prac.started,Stim1_display_prac.stopped,Ecc,Circle1_ori,Circle2_ori,response_prac.started,similarity,response_time,response_prac.stopped,mouse_5.x,mouse_5.y,mouse_5.leftButton,mouse_5.midButton,mouse_5.rightButton,mouse_5.clicked_name,responseprac_feedback.started,responseprac_feedback.stopped,summary2_prac.started,summary2_prac.stopped,mouse_6.x,mouse_6.y,mouse_6.leftButton,mouse_6.midButton,mouse_6.rightButton,mouse_6.clicked_name,duringprac.thisRepN,duringprac.thisTrialN,duringprac.thisN,duringprac.thisIndex,duringprac.ran,begin.started,begin.stopped,key_resp_22.keys,key_resp_22.rt,key_resp_22.duration,Stim1_display.started,Stim1_display.stopped,circle1_ori,circle2_ori,circle1_SF,circle2_SF,response.started,response.stopped,mouse.x,mouse.y,mouse.leftButton,mouse.midButton,mouse.rightButton,mouse.clicked_name,trialnumber,double_pass.thisRepN,double_pass.thisTrialN,double_pass.thisN,double_pass.thisIndex,double_pass.ran,double_pass.order,main_trial.thisRepN,main_trial.thisTrialN,main_trial.thisN,main_trial.thisIndex,main_trial.ran,main_trial.order,Trial_Counter,Catch,Frequencies,response_2.started,response_2.stopped,mouse_2.x,mouse_2.y,mouse_2.leftButton,mouse_2.midButton,mouse_2.rightButton,mouse_2.clicked_name,special_trial.started,special_trial.stopped,catch_1.started,catch_1.stopped,mouse_3.x,mouse_3.y,mouse_3.leftButton,mouse_3.midButton,mouse_3.rightButton,catchresponse,catchnumber,response_time_catch,response_sum.started,response_sum.stopped,mouse_11.x,mouse_11.y,mouse_11.leftButton,mouse_11.midButton,mouse_11.rightButton,flip_presentation_sequence_for_double_pass.started,flip_presentation_sequence_for_double_pass.stopped,goodbye.started,goodbye.stopped,key_resp_3.keys,key_resp_3.rt,key_resp_3.duration
0.0003,0.0003,5fac2995bbe58415e0ac6a1e,2024-02-22_04h29.54.863,kallum_motion_pilot,2023.2.2,Win32,28.8184438,5fac2995bbe58415e0ac6a1e,65d6bb0e977760de756971f7,65d6bec2ab610f7bb580d5c4,,,,,,,,,,,,,,,,,,,,,,,,,,,,,,,,,,,,,,,,,,,,,,,,,,,,,,,,,,,,,,,,,,,,,,,,,,,,,,,,,,,,,,,,,,,,,,,,,,,,,,,,,,,,,,,,,,,,,,,,,,,,,,,,,,,,,,,,,,,,,,,,,
,,5fac2995bbe58415e0ac6a1e,2024-02-22_04h29.54.863,kallum_motion_pilot,2023.2.2,Win32,28.8184438,5fac2995bbe58415e0ac6a1e,65d6bb0e977760de756971f7,65d6bec2ab610f7bb580d5c4,0.0121,0.0122,0,0,0,30,1,fourtwo,,,,,,,,,,,,,,,,,,,,,,,,,,,,,,,,,,,,,,,,,,,,,,,,,,,,,,,,,,,,,,,,,,,,,,,,,,,,,,,,,,,,,,,,,,,,,,,,,,,,,,,,,,,,,,,,,,,,,,,,,,,,,,,,,,,,,,,,,
,,5fac2995bbe58415e0ac6a1e,2024-02-22_04h29.54.863,kallum_motion_pilot,2023.2.2,Win32,28.8184438,5fac2995bbe58415e0ac6a1e,65d6bb0e977760de756971f7,65d6bec2ab610f7bb580d5c4,0.0123,0.0123,0,1,1,72,1,onetwo,,,,,,,,,,,,,,,,,,,,,,,,,,,,,,,,,,,,,,,,,,,,,,,,,,,,,,,,,,,,,,,,,,,,,,,,,,,,,,,,,,,,,,,,,,,,,,,,,,,,,,,,,,,,,,,,,,,,,,,,,,,,,,,,,,,,,,,,,
,,5fac2995bbe58415e0ac6a1e,2024-02-22_04h29.54.863,kallum_motion_pilot,2023.2.2,Win32,28.8184438,5fac2995bbe58415e0ac6a1e,65d6bb0e977760de756971f7,65d6bec2ab610f7bb580d5c4,0.0124,0.0124,0,2,2,139,1,sixeight,,,,,,,,,,,,,,,,,,,,,,,,,,,,,,,,,,,,,,,,,,,,,,,,,,,,,,,,,,,,,,,,,,,,,,,,,,,,,,,,,,,,,,,,,,,,,,,,,,,,,,,,,,,,,,,,,,,,,,,,,,,,,,,,,,,,,,,,,
,,5fac2995bbe58415e0ac6a1e,2024-02-22_04h29.54.863,kallum_motion_pilot,2023.2.2,Win32,28.8184438,5fac2995bbe58415e0ac6a1e,65d6bb0e977760de756971f7,65d6bec2ab610f7bb580d5c4,0.0125,0.0125,0,3,3,111,1,eightseven,,,,,,,,,,,,,,,,,,,,,,,,,,,,,,,,,,,,,,,,,,,,,,,,,,,,,,,,,,,,,,,,,,,,,,,,,,,,,,,,,,,,,,,,,,,,,,,,,,,,,,,,,,,,,,,,,,,,,,,,,,,,,,,,,,,,,,,,,
,,5fac2995bbe58415e0ac6a1e,2024-02-22_04h29.54.863,kallum_motion_pilot,2023.2.2,Win32,28.8184438,5fac2995bbe58415e0ac6a1e,65d6bb0e977760de756971f7,65d6bec2ab610f7bb580d5c4,0.0125,0.0125,0,4,4,110,1,eightsix,,,,,,,,,,,,,,,,,,,,,,,,,,,,,,,,,,,,,,,,,,,,,,,,,,,,,,,,,,,,,,,,,,,,,,,,,,,,,,,,,,,,,,,,,,,,,,,,,,,,,,,,,,,,,,,,,,,,,,,,,,,,,,,,,,,,,,,,,
,,5fac2995bbe58415e0ac6a1e,2024-02-22_04h29.54.863,kallum_motion_pilot,2023.2.2,Win32,28.8184438,5fac2995bbe58415e0ac6a1e,65d6bb0e977760de756971f7,65d6bec2ab610f7bb580d5c4,0.0126,0.0126,0,5,5,15,1,fourthree,,,,,,,,,,,,,,,,,,,,,,,,,,,,,,,,,,,,,,,,,,,,,,,,,,,,,,,,,,,,,,,,,,,,,,,,,,,,,,,,,,,,,,,,,,,,,,,,,,,,,,,,,,,,,,,,,,,,,,,,,,,,,,,,,,,,,,,,,
,,5fac2995bbe58415e0ac6a1e,2024-02-22_04h29.54.863,kallum_motion_pilot,2023.2.2,Win32,28.8184438,5fac2995bbe58415e0ac6a1e,65d6bb0e977760de756971f7,65d6bec2ab610f7bb580d5c4,0.0126,0.0126,0,6,6,133,1,seveneight,,,,,,,,,,,,,,,,,,,,,,,,,,,,,,,,,,,,,,,,,,,,,,,,,,,,,,,,,,,,,,,,,,,,,,,,,,,,,,,,,,,,,,,,,,,,,,,,,,,,,,,,,,,,,,,,,,,,,,,,,,,,,,,,,,,,,,,,,
,,5fac2995bbe58415e0ac6a1e,2024-02-22_04h29.54.863,kallum_motion_pilot,2023.2.2,Win32,28.8184438,5fac2995bbe58415e0ac6a1e,65d6bb0e977760de756971f7,65d6bec2ab610f7bb580d5c4,0.0126,0.0126,0,7,7,95,1,eightseven,,,,,,,,,,,,,,,,,,,,,,,,,,,,,,,,,,,,,,,,,,,,,,,,,,,,,,,,,,,,,,,,,,,,,,,,,,,,,,,,,,,,,,,,,,,,,,,,,,,,,,,,,,,,,,,,,,,,,,,,,,,,,,,,,,,,,,,,,
,,5fac2995bbe58415e0ac6a1e,2024-02-22_04h29.54.863,kallum_motion_pilot,2023.2.2,Win32,28.8184438,5fac2995bbe58415e0ac6a1e,65d6bb0e977760de756971f7,65d6bec2ab610f7bb580d5c4,0.0126,0.0126,0,8,8,137,1,fiveseven,,,,,,,,,,,,,,,,,,,,,,,,,,,,,,,,,,,,,,,,,,,,,,,,,,,,,,,,,,,,,,,,,,,,,,,,,,,,,,,,,,,,,,,,,,,,,,,,,,,,,,,,,,,,,,,,,,,,,,,,,,,,,,,,,,,,,,,,,
,,5fac2995bbe58415e0ac6a1e,2024-02-22_04h29.54.863,kallum_motion_pilot,2023.2.2,Win32,28.8184438,5fac2995bbe58415e0ac6a1e,65d6bb0e977760de756971f7,65d6bec2ab610f7bb580d5c4,0.0127,0.0127,0,9,9,84,1,sevenfive,,,,,,,,,,,,,,,,,,,,,,,,,,,,,,,,,,,,,,,,,,,,,,,,,,,,,,,,,,,,,,,,,,,,,,,,,,,,,,,,,,,,,,,,,,,,,,,,,,,,,,,,,,,,,,,,,,,,,,,,,,,,,,,,,,,,,,,,,
,,5fac2995bbe58415e0ac6a1e,2024-02-22_04h29.54.863,kallum_motion_pilot,2023.2.2,Win32,28.8184438,5fac2995bbe58415e0ac6a1e,65d6bb0e977760de756971f7,65d6bec2ab610f7bb580d5c4,0.0127,0.0127,0,10,10,68,1,threeone,,,,,,,,,,,,,,,,,,,,,,,,,,,,,,,,,,,,,,,,,,,,,,,,,,,,,,,,,,,,,,,,,,,,,,,,,,,,,,,,,,,,,,,,,,,,,,,,,,,,,,,,,,,,,,,,,,,,,,,,,,,,,,,,,,,,,,,,,
,,5fac2995bbe58415e0ac6a1e,2024-02-22_04h29.54.863,kallum_motion_pilot,2023.2.2,Win32,28.8184438,5fac2995bbe58415e0ac6a1e,65d6bb0e977760de756971f7,65d6bec2ab610f7bb580d5c4,0.0128,0.0128,0,11,11,125,1,seveneight,,,,,,,,,,,,,,,,,,,,,,,,,,,,,,,,,,,,,,,,,,,,,,,,,,,,,,,,,,,,,,,,,,,,,,,,,,,,,,,,,,,,,,,,,,,,,,,,,,,,,,,,,,,,,,,,,,,,,,,,,,,,,,,,,,,,,,,,,
,,5fac2995bbe58415e0ac6a1e,2024-02-22_04h29.54.863,kallum_motion_pilot,2023.2.2,Win32,28.8184438,5fac2995bbe58415e0ac6a1e,65d6bb0e977760de756971f7,65d6bec2ab610f7bb580d5c4,0.0128,0.0128,0,12,12,156,1,sevenfive,,,,,,,,,,,,,,,,,,,,,,,,,,,,,,,,,,,,,,,,,,,,,,,,,,,,,,,,,,,,,,,,,,,,,,,,,,,,,,,,,,,,,,,,,,,,,,,,,,,,,,,,,,,,,,,,,,,,,,,,,,,,,,,,,,,,,,,,,
,,5fac2995bbe58415e0ac6a1e,2024-02-22_04h29.54.863,kallum_motion_pilot,2023.2.2,Win32,28.8184438,5fac2995bbe58415e0ac6a1e,65d6bb0e977760de756971f7,65d6bec2ab610f7bb580d5c4,0.0128,0.0128,0,13,13,138,1,sixfive,,,,,,,,,,,,,,,,,,,,,,,,,,,,,,,,,,,,,,,,,,,,,,,,,,,,,,,,,,,,,,,,,,,,,,,,,,,,,,,,,,,,,,,,,,,,,,,,,,,,,,,,,,,,,,,,,,,,,,,,,,,,,,,,,,,,,,,,,
,,5fac2995bbe58415e0ac6a1e,2024-02-22_04h29.54.863,kallum_motion_pilot,2023.2.2,Win32,28.8184438,5fac2995bbe58415e0ac6a1e,65d6bb0e977760de756971f7,65d6bec2ab610f7bb580d5c4,0.0128,0.0128,0,14,14,93,1,seveneight,,,,,,,,,,,,,,,,,,,,,,,,,,,,,,,,,,,,,,,,,,,,,,,,,,,,,,,,,,,,,,,,,,,,,,,,,,,,,,,,,,,,,,,,,,,,,,,,,,,,,,,,,,,,,,,,,,,,,,,,,,,,,,,,,,,,,,,,,
,,5fac2995bbe58415e0ac6a1e,2024-02-22_04h29.54.863,kallum_motion_pilot,2023.2.2,Win32,28.8184438,5fac2995bbe58415e0ac6a1e,65d6bb0e977760de756971f7,65d6bec2ab610f7bb580d5c4,0.0129,0.0129,0,15,15,92,1,sevenfive,,,,,,,,,,,,,,,,,,,,,,,,,,,,,,,,,,,,,,,,,,,,,,,,,,,,,,,,,,,,,,,,,,,,,,,,,,,,,,,,,,,,,,,,,,,,,,,,,,,,,,,,,,,,,,,,,,,,,,,,,,,,,,,,,,,,,,,,,
,,5fac2995bbe58415e0ac6a1e,2024-02-22_04h29.54.863,kallum_motion_pilot,2023.2.2,Win32,28.8184438,5fac2995bbe58415e0ac6a1e,65d6bb0e977760de756971f7,65d6bec2ab610f7bb580d5c4,0.0129,0.0129,0,16,16,141,1,seveneight,,,,,,,,,,,,,,,,,,,,,,,,,,,,,,,,,,,,,,,,,,,,,,,,,,,,,,,,,,,,,,,,,,,,,,,,,,,,,,,,,,,,,,,,,,,,,,,,,,,,,,,,,,,,,,,,,,,,,,,,,,,,,,,,,,,,,,,,,
,,5fac2995bbe58415e0ac6a1e,2024-02-22_04h29.54.863,kallum_motion_pilot,2023.2.2,Win32,28.8184438,5fac2995bbe58415e0ac6a1e,65d6bb0e977760de756971f7,65d6bec2ab610f7bb580d5c4,0.0129,0.0129,0,17,17,112,1,fivesix,,,,,,,,,,,,,,,,,,,,,,,,,,,,,,,,,,,,,,,,,,,,,,,,,,,,,,,,,,,,,,,,,,,,,,,,,,,,,,,,,,,,,,,,,,,,,,,,,,,,,,,,,,,,,,,,,,,,,,,,,,,,,,,,,,,,,,,,,
,,5fac2995bbe58415e0ac6a1e,2024-02-22_04h29.54.863,kallum_motion_pilot,2023.2.2,Win32,28.8184438,5fac2995bbe58415e0ac6a1e,65d6bb0e977760de756971f7,65d6bec2ab610f7bb580d5c4,0.013,0.013,0,18,18,116,1,sevenfive,,,,,,,,,,,,,,,,,,,,,,,,,,,,,,,,,,,,,,,,,,,,,,,,,,,,,,,,,,,,,,,,,,,,,,,,,,,,,,,,,,,,,,,,,,,,,,,,,,,,,,,,,,,,,,,,,,,,,,,,,,,,,,,,,,,,,,,,,
,,5fac2995bbe58415e0ac6a1e,2024-02-22_04h29.54.863,kallum_motion_pilot,2023.2.2,Win32,28.8184438,5fac2995bbe58415e0ac6a1e,65d6bb0e977760de756971f7,65d6bec2ab610f7bb580d5c4,0.013,0.013,0,19,19,94,1,eightsix,,,,,,,,,,,,,,,,,,,,,,,,,,,,,,,,,,,,,,,,,,,,,,,,,,,,,,,,,,,,,,,,,,,,,,,,,,,,,,,,,,,,,,,,,,,,,,,,,,,,,,,,,,,,,,,,,,,,,,,,,,,,,,,,,,,,,,,,,
,,5fac2995bbe58415e0ac6a1e,2024-02-22_04h29.54.863,kallum_motion_pilot,2023.2.2,Win32,28.8184438,5fac2995bbe58415e0ac6a1e,65d6bb0e977760de756971f7,65d6bec2ab610f7bb580d5c4,0.0131,0.0131,0,20,20,57,1,onethree,,,,,,,,,,,,,,,,,,,,,,,,,,,,,,,,,,,,,,,,,,,,,,,,,,,,,,,,,,,,,,,,,,,,,,,,,,,,,,,,,,,,,,,,,,,,,,,,,,,,,,,,,,,,,,,,,,,,,,,,,,,,,,,,,,,,,,,,,
,,5fac2995bbe58415e0ac6a1e,2024-02-22_04h29.54.863,kallum_motion_pilot,2023.2.2,Win32,28.8184438,5fac2995bbe58415e0ac6a1e,65d6bb0e977760de756971f7,65d6bec2ab610f7bb580d5c4,0.0131,0.0132,0,21,21,101,1,seveneight,,,,,,,,,,,,,,,,,,,,,,,,,,,,,,,,,,,,,,,,,,,,,,,,,,,,,,,,,,,,,,,,,,,,,,,,,,,,,,,,,,,,,,,,,,,,,,,,,,,,,,,,,,,,,,,,,,,,,,,,,,,,,,,,,,,,,,,,,
,,5fac2995bbe58415e0ac6a1e,2024-02-22_04h29.54.863,kallum_motion_pilot,2023.2.2,Win32,28.8184438,5fac2995bbe58415e0ac6a1e,65d6bb0e977760de756971f7,65d6bec2ab610f7bb580d5c4,0.0133,0.0133,0,22,22,158,1,eightsix,,,,,,,,,,,,,,,,,,,,,,,,,,,,,,,,,,,,,,,,,,,,,,,,,,,,,,,,,,,,,,,,,,,,,,,,,,,,,,,,,,,,,,,,,,,,,,,,,,,,,,,,,,,,,,,,,,,,,,,,,,,,,,,,,,,,,,,,,
,,5fac2995bbe58415e0ac6a1e,2024-02-22_04h29.54.863,kallum_motion_pilot,2023.2.2,Win32,28.8184438,5fac2995bbe58415e0ac6a1e,65d6bb0e977760de756971f7,65d6bec2ab610f7bb580d5c4,0.0133,0.0133,0,23,23,24,1,onetwo,,,,,,,,,,,,,,,,,,,,,,,,,,,,,,,,,,,,,,,,,,,,,,,,,,,,,,,,,,,,,,,,,,,,,,,,,,,,,,,,,,,,,,,,,,,,,,,,,,,,,,,,,,,,,,,,,,,,,,,,,,,,,,,,,,,,,,,,,
,,5fac2995bbe58415e0ac6a1e,2024-02-22_04h29.54.863,kallum_motion_pilot,2023.2.2,Win32,28.8184438,5fac2995bbe58415e0ac6a1e,65d6bb0e977760de756971f7,65d6bec2ab610f7bb580d5c4,0.0133,0.0133,0,24,24,150,1,eightsix,,,,,,,,,,,,,,,,,,,,,,,,,,,,,,,,,,,,,,,,,,,,,,,,,,,,,,,,,,,,,,,,,,,,,,,,,,,,,,,,,,,,,,,,,,,,,,,,,,,,,,,,,,,,,,,,,,,,,,,,,,,,,,,,,,,,,,,,,
,,5fac2995bbe58415e0ac6a1e,2024-02-22_04h29.54.863,kallum_motion_pilot,2023.2.2,Win32,28.8184438,5fac2995bbe58415e0ac6a1e,65d6bb0e977760de756971f7,65d6bec2ab610f7bb580d5c4,0.0134,0.0134,0,25,25,62,1,fourtwo,,,,,,,,,,,,,,,,,,,,,,,,,,,,,,,,,,,,,,,,,,,,,,,,,,,,,,,,,,,,,,,,,,,,,,,,,,,,,,,,,,,,,,,,,,,,,,,,,,,,,,,,,,,,,,,,,,,,,,,,,,,,,,,,,,,,,,,,,
,,5fac2995bbe58415e0ac6a1e,2024-02-22_04h29.54.863,kallum_motion_pilot,2023.2.2,Win32,28.8184438,5fac2995bbe58415e0ac6a1e,65d6bb0e977760de756971f7,65d6bec2ab610f7bb580d5c4,0.0134,0.0134,0,26,26,85,1,seveneight,,,,,,,,,,,,,,,,,,,,,,,,,,,,,,,,,,,,,,,,,,,,,,,,,,,,,,,,,,,,,,,,,,,,,,,,,,,,,,,,,,,,,,,,,,,,,,,,,,,,,,,,,,,,,,,,,,,,,,,,,,,,,,,,,,,,,,,,,
,,5fac2995bbe58415e0ac6a1e,2024-02-22_04h29.54.863,kallum_motion_pilot,2023.2.2,Win32,28.8184438,5fac2995bbe58415e0ac6a1e,65d6bb0e977760de756971f7,65d6bec2ab610f7bb580d5c4,0.0134,0.0135,0,27,27,105,1,fiveseven,,,,,,,,,,,,,,,,,,,,,,,,,,,,,,,,,,,,,,,,,,,,,,,,,,,,,,,,,,,,,,,,,,,,,,,,,,,,,,,,,,,,,,,,,,,,,,,,,,,,,,,,,,,,,,,,,,,,,,,,,,,,,,,,,,,,,,,,,
,,5fac2995bbe58415e0ac6a1e,2024-02-22_04h29.54.863,kallum_motion_pilot,2023.2.2,Win32,28.8184438,5fac2995bbe58415e0ac6a1e,65d6bb0e977760de756971f7,65d6bec2ab610f7bb580d5c4,0.0135,0.0136,0,28,28,118,1,eightsix,,,,,,,,,,,,,,,,,,,,,,,,,,,,,,,,,,,,,,,,,,,,,,,,,,,,,,,,,,,,,,,,,,,,,,,,,,,,,,,,,,,,,,,,,,,,,,,,,,,,,,,,,,,,,,,,,,,,,,,,,,,,,,,,,,,,,,,,,
,,5fac2995bbe58415e0ac6a1e,2024-02-22_04h29.54.863,kallum_motion_pilot,2023.2.2,Win32,28.8184438,5fac2995bbe58415e0ac6a1e,65d6bb0e977760de756971f7,65d6bec2ab610f7bb580d5c4,0.0136,0.0136,0,29,29,114,1,sixfive,,,,,,,,,,,,,,,,,,,,,,,,,,,,,,,,,,,,,,,,,,,,,,,,,,,,,,,,,,,,,,,,,,,,,,,,,,,,,,,,,,,,,,,,,,,,,,,,,,,,,,,,,,,,,,,,,,,,,,,,,,,,,,,,,,,,,,,,,
,,5fac2995bbe58415e0ac6a1e,2024-02-22_04h29.54.863,kallum_motion_pilot,2023.2.2,Win32,28.8184438,5fac2995bbe58415e0ac6a1e,65d6bb0e977760de756971f7,65d6bec2ab610f7bb580d5c4,0.0137,0.0137,0,30,30,153,1,fiveseven,,,,,,,,,,,,,,,,,,,,,,,,,,,,,,,,,,,,,,,,,,,,,,,,,,,,,,,,,,,,,,,,,,,,,,,,,,,,,,,,,,,,,,,,,,,,,,,,,,,,,,,,,,,,,,,,,,,,,,,,,,,,,,,,,,,,,,,,,
,,5fac2995bbe58415e0ac6a1e,2024-02-22_04h29.54.863,kallum_motion_pilot,2023.2.2,Win32,28.8184438,5fac2995bbe58415e0ac6a1e,65d6bb0e977760de756971f7,65d6bec2ab610f7bb580d5c4,0.0137,0.0137,0,31,31,32,1,onetwo,,,,,,,,,,,,,,,,,,,,,,,,,,,,,,,,,,,,,,,,,,,,,,,,,,,,,,,,,,,,,,,,,,,,,,,,,,,,,,,,,,,,,,,,,,,,,,,,,,,,,,,,,,,,,,,,,,,,,,,,,,,,,,,,,,,,,,,,,
,,5fac2995bbe58415e0ac6a1e,2024-02-22_04h29.54.863,kallum_motion_pilot,2023.2.2,Win32,28.8184438,5fac2995bbe58415e0ac6a1e,65d6bb0e977760de756971f7,65d6bec2ab610f7bb580d5c4,0.0137,0.0137,0,32,32,77,1,threefour,,,,,,,,,,,,,,,,,,,,,,,,,,,,,,,,,,,,,,,,,,,,,,,,,,,,,,,,,,,,,,,,,,,,,,,,,,,,,,,,,,,,,,,,,,,,,,,,,,,,,,,,,,,,,,,,,,,,,,,,,,,,,,,,,,,,,,,,,
,,5fac2995bbe58415e0ac6a1e,2024-02-22_04h29.54.863,kallum_motion_pilot,2023.2.2,Win32,28.8184438,5fac2995bbe58415e0ac6a1e,65d6bb0e977760de756971f7,65d6bec2ab610f7bb580d5c4,0.0137,0.0137,0,33,33,120,1,fivesix,,,,,,,,,,,,,,,,,,,,,,,,,,,,,,,,,,,,,,,,,,,,,,,,,,,,,,,,,,,,,,,,,,,,,,,,,,,,,,,,,,,,,,,,,,,,,,,,,,,,,,,,,,,,,,,,,,,,,,,,,,,,,,,,,,,,,,,,,
,,5fac2995bbe58415e0ac6a1e,2024-02-22_04h29.54.863,kallum_motion_pilot,2023.2.2,Win32,28.8184438,5fac2995bbe58415e0ac6a1e,65d6bb0e977760de756971f7,65d6bec2ab610f7bb580d5c4,0.0138,0.0138,0,34,34,56,1,onetwo,,,,,,,,,,,,,,,,,,,,,,,,,,,,,,,,,,,,,,,,,,,,,,,,,,,,,,,,,,,,,,,,,,,,,,,,,,,,,,,,,,,,,,,,,,,,,,,,,,,,,,,,,,,,,,,,,,,,,,,,,,,,,,,,,,,,,,,,,
,,5fac2995bbe58415e0ac6a1e,2024-02-22_04h29.54.863,kallum_motion_pilot,2023.2.2,Win32,28.8184438,5fac2995bbe58415e0ac6a1e,65d6bb0e977760de756971f7,65d6bec2ab610f7bb580d5c4,0.0138,0.0138,0,35,35,124,1,sevenfive,,,,,,,,,,,,,,,,,,,,,,,,,,,,,,,,,,,,,,,,,,,,,,,,,,,,,,,,,,,,,,,,,,,,,,,,,,,,,,,,,,,,,,,,,,,,,,,,,,,,,,,,,,,,,,,,,,,,,,,,,,,,,,,,,,,,,,,,,
,,5fac2995bbe58415e0ac6a1e,2024-02-22_04h29.54.863,kallum_motion_pilot,2023.2.2,Win32,28.8184438,5fac2995bbe58415e0ac6a1e,65d6bb0e977760de756971f7,65d6bec2ab610f7bb580d5c4,0.0138,0.0138,0,36,36,27,1,twofour,,,,,,,,,,,,,,,,,,,,,,,,,,,,,,,,,,,,,,,,,,,,,,,,,,,,,,,,,,,,,,,,,,,,,,,,,,,,,,,,,,,,,,,,,,,,,,,,,,,,,,,,,,,,,,,,,,,,,,,,,,,,,,,,,,,,,,,,,
,,5fac2995bbe58415e0ac6a1e,2024-02-22_04h29.54.863,kallum_motion_pilot,2023.2.2,Win32,28.8184438,5fac2995bbe58415e0ac6a1e,65d6bb0e977760de756971f7,65d6bec2ab610f7bb580d5c4,0.0139,0.0139,0,37,37,44,1,threeone,,,,,,,,,,,,,,,,,,,,,,,,,,,,,,,,,,,,,,,,,,,,,,,,,,,,,,,,,,,,,,,,,,,,,,,,,,,,,,,,,,,,,,,,,,,,,,,,,,,,,,,,,,,,,,,,,,,,,,,,,,,,,,,,,,,,,,,,,
,,5fac2995bbe58415e0ac6a1e,2024-02-22_04h29.54.863,kallum_motion_pilot,2023.2.2,Win32,28.8184438,5fac2995bbe58415e0ac6a1e,65d6bb0e977760de756971f7,65d6bec2ab610f7bb580d5c4,0.0139,0.0139,0,38,38,96,1,fivesix,,,,,,,,,,,,,,,,,,,,,,,,,,,,,,,,,,,,,,,,,,,,,,,,,,,,,,,,,,,,,,,,,,,,,,,,,,,,,,,,,,,,,,,,,,,,,,,,,,,,,,,,,,,,,,,,,,,,,,,,,,,,,,,,,,,,,,,,,
,,5fac2995bbe58415e0ac6a1e,2024-02-22_04h29.54.863,kallum_motion_pilot,2023.2.2,Win32,28.8184438,5fac2995bbe58415e0ac6a1e,65d6bb0e977760de756971f7,65d6bec2ab610f7bb580d5c4,0.0139,0.0139,0,39,39,113,1,fiveseven,,,,,,,,,,,,,,,,,,,,,,,,,,,,,,,,,,,,,,,,,,,,,,,,,,,,,,,,,,,,,,,,,,,,,,,,,,,,,,,,,,,,,,,,,,,,,,,,,,,,,,,,,,,,,,,,,,,,,,,,,,,,,,,,,,,,,,,,,
,,5fac2995bbe58415e0ac6a1e,2024-02-22_04h29.54.863,kallum_motion_pilot,2023.2.2,Win32,28.8184438,5fac2995bbe58415e0ac6a1e,65d6bb0e977760de756971f7,65d6bec2ab610f7bb580d5c4,0.0139,0.0139,0,40,40,49,1,onethree,,,,,,,,,,,,,,,,,,,,,,,,,,,,,,,,,,,,,,,,,,,,,,,,,,,,,,,,,,,,,,,,,,,,,,,,,,,,,,,,,,,,,,,,,,,,,,,,,,,,,,,,,,,,,,,,,,,,,,,,,,,,,,,,,,,,,,,,,
,,5fac2995bbe58415e0ac6a1e,2024-02-22_04h29.54.863,kallum_motion_pilot,2023.2.2,Win32,28.8184438,5fac2995bbe58415e0ac6a1e,65d6bb0e977760de756971f7,65d6bec2ab610f7bb580d5c4,0.014,0.014,0,41,41,144,1,fivesix,,,,,,,,,,,,,,,,,,,,,,,,,,,,,,,,,,,,,,,,,,,,,,,,,,,,,,,,,,,,,,,,,,,,,,,,,,,,,,,,,,,,,,,,,,,,,,,,,,,,,,,,,,,,,,,,,,,,,,,,,,,,,,,,,,,,,,,,,
,,5fac2995bbe58415e0ac6a1e,2024-02-22_04h29.54.863,kallum_motion_pilot,2023.2.2,Win32,28.8184438,5fac2995bbe58415e0ac6a1e,65d6bb0e977760de756971f7,65d6bec2ab610f7bb580d5c4,0.0141,0.0141,0,42,42,40,1,onetwo,,,,,,,,,,,,,,,,,,,,,,,,,,,,,,,,,,,,,,,,,,,,,,,,,,,,,,,,,,,,,,,,,,,,,,,,,,,,,,,,,,,,,,,,,,,,,,,,,,,,,,,,,,,,,,,,,,,,,,,,,,,,,,,,,,,,,,,,,
,,5fac2995bbe58415e0ac6a1e,2024-02-22_04h29.54.863,kallum_motion_pilot,2023.2.2,Win32,28.8184438,5fac2995bbe58415e0ac6a1e,65d6bb0e977760de756971f7,65d6bec2ab610f7bb580d5c4,0.0141,0.0141,0,43,43,52,1,threeone,,,,,,,,,,,,,,,,,,,,,,,,,,,,,,,,,,,,,,,,,,,,,,,,,,,,,,,,,,,,,,,,,,,,,,,,,,,,,,,,,,,,,,,,,,,,,,,,,,,,,,,,,,,,,,,,,,,,,,,,,,,,,,,,,,,,,,,,,
,,5fac2995bbe58415e0ac6a1e,2024-02-22_04h29.54.863,kallum_motion_pilot,2023.2.2,Win32,28.8184438,5fac2995bbe58415e0ac6a1e,65d6bb0e977760de756971f7,65d6bec2ab610f7bb580d5c4,0.0141,0.0141,0,44,44,65,1,onethree,,,,,,,,,,,,,,,,,,,,,,,,,,,,,,,,,,,,,,,,,,,,,,,,,,,,,,,,,,,,,,,,,,,,,,,,,,,,,,,,,,,,,,,,,,,,,,,,,,,,,,,,,,,,,,,,,,,,,,,,,,,,,,,,,,,,,,,,,
,,5fac2995bbe58415e0ac6a1e,2024-02-22_04h29.54.863,kallum_motion_pilot,2023.2.2,Win32,28.8184438,5fac2995bbe58415e0ac6a1e,65d6bb0e977760de756971f7,65d6bec2ab610f7bb580d5c4,0.0141,0.0141,0,45,45,130,1,sixfive,,,,,,,,,,,,,,,,,,,,,,,,,,,,,,,,,,,,,,,,,,,,,,,,,,,,,,,,,,,,,,,,,,,,,,,,,,,,,,,,,,,,,,,,,,,,,,,,,,,,,,,,,,,,,,,,,,,,,,,,,,,,,,,,,,,,,,,,,
,,5fac2995bbe58415e0ac6a1e,2024-02-22_04h29.54.863,kallum_motion_pilot,2023.2.2,Win32,28.8184438,5fac2995bbe58415e0ac6a1e,65d6bb0e977760de756971f7,65d6bec2ab610f7bb580d5c4,0.0141,0.0141,0,46,46,21,1,threefour,,,,,,,,,,,,,,,,,,,,,,,,,,,,,,,,,,,,,,,,,,,,,,,,,,,,,,,,,,,,,,,,,,,,,,,,,,,,,,,,,,,,,,,,,,,,,,,,,,,,,,,,,,,,,,,,,,,,,,,,,,,,,,,,,,,,,,,,,
,,5fac2995bbe58415e0ac6a1e,2024-02-22_04h29.54.863,kallum_motion_pilot,2023.2.2,Win32,28.8184438,5fac2995bbe58415e0ac6a1e,65d6bb0e977760de756971f7,65d6bec2ab610f7bb580d5c4,0.0142,0.0142,0,47,47,160,1,fivesix,,,,,,,,,,,,,,,,,,,,,,,,,,,,,,,,,,,,,,,,,,,,,,,,,,,,,,,,,,,,,,,,,,,,,,,,,,,,,,,,,,,,,,,,,,,,,,,,,,,,,,,,,,,,,,,,,,,,,,,,,,,,,,,,,,,,,,,,,
,,5fac2995bbe58415e0ac6a1e,2024-02-22_04h29.54.863,kallum_motion_pilot,2023.2.2,Win32,28.8184438,5fac2995bbe58415e0ac6a1e,65d6bb0e977760de756971f7,65d6bec2ab610f7bb580d5c4,0.0142,0.0142,0,48,48,145,1,fiveseven,,,,,,,,,,,,,,,,,,,,,,,,,,,,,,,,,,,,,,,,,,,,,,,,,,,,,,,,,,,,,,,,,,,,,,,,,,,,,,,,,,,,,,,,,,,,,,,,,,,,,,,,,,,,,,,,,,,,,,,,,,,,,,,,,,,,,,,,,
,,5fac2995bbe58415e0ac6a1e,2024-02-22_04h29.54.863,kallum_motion_pilot,2023.2.2,Win32,28.8184438,5fac2995bbe58415e0ac6a1e,65d6bb0e977760de756971f7,65d6bec2ab610f7bb580d5c4,0.0142,0.0142,0,49,49,109,1,seveneight,,,,,,,,,,,,,,,,,,,,,,,,,,,,,,,,,,,,,,,,,,,,,,,,,,,,,,,,,,,,,,,,,,,,,,,,,,,,,,,,,,,,,,,,,,,,,,,,,,,,,,,,,,,,,,,,,,,,,,,,,,,,,,,,,,,,,,,,,
,,5fac2995bbe58415e0ac6a1e,2024-02-22_04h29.54.863,kallum_motion_pilot,2023.2.2,Win32,28.8184438,5fac2995bbe58415e0ac6a1e,65d6bb0e977760de756971f7,65d6bec2ab610f7bb580d5c4,0.0143,0.0143,0,50,50,108,1,sevenfive,,,,,,,,,,,,,,,,,,,,,,,,,,,,,,,,,,,,,,,,,,,,,,,,,,,,,,,,,,,,,,,,,,,,,,,,,,,,,,,,,,,,,,,,,,,,,,,,,,,,,,,,,,,,,,,,,,,,,,,,,,,,,,,,,,,,,,,,,
,,5fac2995bbe58415e0ac6a1e,2024-02-22_04h29.54.863,kallum_motion_pilot,2023.2.2,Win32,28.8184438,5fac2995bbe58415e0ac6a1e,65d6bb0e977760de756971f7,65d6bec2ab610f7bb580d5c4,0.0144,0.0144,0,51,51,71,1,fourthree,,,,,,,,,,,,,,,,,,,,,,,,,,,,,,,,,,,,,,,,,,,,,,,,,,,,,,,,,,,,,,,,,,,,,,,,,,,,,,,,,,,,,,,,,,,,,,,,,,,,,,,,,,,,,,,,,,,,,,,,,,,,,,,,,,,,,,,,,
,,5fac2995bbe58415e0ac6a1e,2024-02-22_04h29.54.863,kallum_motion_pilot,2023.2.2,Win32,28.8184438,5fac2995bbe58415e0ac6a1e,65d6bb0e977760de756971f7,65d6bec2ab610f7bb580d5c4,0.0144,0.0144,0,52,52,70,1,fourtwo,,,,,,,,,,,,,,,,,,,,,,,,,,,,,,,,,,,,,,,,,,,,,,,,,,,,,,,,,,,,,,,,,,,,,,,,,,,,,,,,,,,,,,,,,,,,,,,,,,,,,,,,,,,,,,,,,,,,,,,,,,,,,,,,,,,,,,,,,
,,5fac2995bbe58415e0ac6a1e,2024-02-22_04h29.54.863,kallum_motion_pilot,2023.2.2,Win32,28.8184438,5fac2995bbe58415e0ac6a1e,65d6bb0e977760de756971f7,65d6bec2ab610f7bb580d5c4,0.0144,0.0144,0,53,53,10,1,twoone,,,,,,,,,,,,,,,,,,,,,,,,,,,,,,,,,,,,,,,,,,,,,,,,,,,,,,,,,,,,,,,,,,,,,,,,,,,,,,,,,,,,,,,,,,,,,,,,,,,,,,,,,,,,,,,,,,,,,,,,,,,,,,,,,,,,,,,,,
,,5fac2995bbe58415e0ac6a1e,2024-02-22_04h29.54.863,kallum_motion_pilot,2023.2.2,Win32,28.8184438,5fac2995bbe58415e0ac6a1e,65d6bb0e977760de756971f7,65d6bec2ab610f7bb580d5c4,0.0144,0.0144,0,54,54,154,1,sixfive,,,,,,,,,,,,,,,,,,,,,,,,,,,,,,,,,,,,,,,,,,,,,,,,,,,,,,,,,,,,,,,,,,,,,,,,,,,,,,,,,,,,,,,,,,,,,,,,,,,,,,,,,,,,,,,,,,,,,,,,,,,,,,,,,,,,,,,,,
,,5fac2995bbe58415e0ac6a1e,2024-02-22_04h29.54.863,kallum_motion_pilot,2023.2.2,Win32,28.8184438,5fac2995bbe58415e0ac6a1e,65d6bb0e977760de756971f7,65d6bec2ab610f7bb580d5c4,0.0144,0.0145,0,55,55,80,1,fivesix,,,,,,,,,,,,,,,,,,,,,,,,,,,,,,,,,,,,,,,,,,,,,,,,,,,,,,,,,,,,,,,,,,,,,,,,,,,,,,,,,,,,,,,,,,,,,,,,,,,,,,,,,,,,,,,,,,,,,,,,,,,,,,,,,,,,,,,,,
,,5fac2995bbe58415e0ac6a1e,2024-02-22_04h29.54.863,kallum_motion_pilot,2023.2.2,Win32,28.8184438,5fac2995bbe58415e0ac6a1e,65d6bb0e977760de756971f7,65d6bec2ab610f7bb580d5c4,0.0145,0.0145,0,56,56,5,1,threefour,,,,,,,,,,,,,,,,,,,,,,,,,,,,,,,,,,,,,,,,,,,,,,,,,,,,,,,,,,,,,,,,,,,,,,,,,,,,,,,,,,,,,,,,,,,,,,,,,,,,,,,,,,,,,,,,,,,,,,,,,,,,,,,,,,,,,,,,,
,,5fac2995bbe58415e0ac6a1e,2024-02-22_04h29.54.863,kallum_motion_pilot,2023.2.2,Win32,28.8184438,5fac2995bbe58415e0ac6a1e,65d6bb0e977760de756971f7,65d6bec2ab610f7bb580d5c4,0.0145,0.0145,0,57,57,117,1,seveneight,,,,,,,,,,,,,,,,,,,,,,,,,,,,,,,,,,,,,,,,,,,,,,,,,,,,,,,,,,,,,,,,,,,,,,,,,,,,,,,,,,,,,,,,,,,,,,,,,,,,,,,,,,,,,,,,,,,,,,,,,,,,,,,,,,,,,,,,,
,,5fac2995bbe58415e0ac6a1e,2024-02-22_04h29.54.863,kallum_motion_pilot,2023.2.2,Win32,28.8184438,5fac2995bbe58415e0ac6a1e,65d6bb0e977760de756971f7,65d6bec2ab610f7bb580d5c4,0.0146,0.0146,0,58,58,75,1,twofour,,,,,,,,,,,,,,,,,,,,,,,,,,,,,,,,,,,,,,,,,,,,,,,,,,,,,,,,,,,,,,,,,,,,,,,,,,,,,,,,,,,,,,,,,,,,,,,,,,,,,,,,,,,,,,,,,,,,,,,,,,,,,,,,,,,,,,,,,
,,5fac2995bbe58415e0ac6a1e,2024-02-22_04h29.54.863,kallum_motion_pilot,2023.2.2,Win32,28.8184438,5fac2995bbe58415e0ac6a1e,65d6bb0e977760de756971f7,65d6bec2ab610f7bb580d5c4,0.0146,0.0146,0,59,59,36,1,threeone,,,,,,,,,,,,,,,,,,,,,,,,,,,,,,,,,,,,,,,,,,,,,,,,,,,,,,,,,,,,,,,,,,,,,,,,,,,,,,,,,,,,,,,,,,,,,,,,,,,,,,,,,,,,,,,,,,,,,,,,,,,,,,,,,,,,,,,,,
,,5fac2995bbe58415e0ac6a1e,2024-02-22_04h29.54.863,kallum_motion_pilot,2023.2.2,Win32,28.8184438,5fac2995bbe58415e0ac6a1e,65d6bb0e977760de756971f7,65d6bec2ab610f7bb580d5c4,0.0146,0.0146,0,60,60,142,1,eightsix,,,,,,,,,,,,,,,,,,,,,,,,,,,,,,,,,,,,,,,,,,,,,,,,,,,,,,,,,,,,,,,,,,,,,,,,,,,,,,,,,,,,,,,,,,,,,,,,,,,,,,,,,,,,,,,,,,,,,,,,,,,,,,,,,,,,,,,,,
,,5fac2995bbe58415e0ac6a1e,2024-02-22_04h29.54.863,kallum_motion_pilot,2023.2.2,Win32,28.8184438,5fac2995bbe58415e0ac6a1e,65d6bb0e977760de756971f7,65d6bec2ab610f7bb580d5c4,0.0146,0.0147,0,61,61,11,1,twofour,,,,,,,,,,,,,,,,,,,,,,,,,,,,,,,,,,,,,,,,,,,,,,,,,,,,,,,,,,,,,,,,,,,,,,,,,,,,,,,,,,,,,,,,,,,,,,,,,,,,,,,,,,,,,,,,,,,,,,,,,,,,,,,,,,,,,,,,,
,,5fac2995bbe58415e0ac6a1e,2024-02-22_04h29.54.863,kallum_motion_pilot,2023.2.2,Win32,28.8184438,5fac2995bbe58415e0ac6a1e,65d6bb0e977760de756971f7,65d6bec2ab610f7bb580d5c4,0.0148,0.0148,0,62,62,2,1,twoone,,,,,,,,,,,,,,,,,,,,,,,,,,,,,,,,,,,,,,,,,,,,,,,,,,,,,,,,,,,,,,,,,,,,,,,,,,,,,,,,,,,,,,,,,,,,,,,,,,,,,,,,,,,,,,,,,,,,,,,,,,,,,,,,,,,,,,,,,
,,5fac2995bbe58415e0ac6a1e,2024-02-22_04h29.54.863,kallum_motion_pilot,2023.2.2,Win32,28.8184438,5fac2995bbe58415e0ac6a1e,65d6bb0e977760de756971f7,65d6bec2ab610f7bb580d5c4,0.0148,0.0148,0,63,63,143,1,eightseven,,,,,,,,,,,,,,,,,,,,,,,,,,,,,,,,,,,,,,,,,,,,,,,,,,,,,,,,,,,,,,,,,,,,,,,,,,,,,,,,,,,,,,,,,,,,,,,,,,,,,,,,,,,,,,,,,,,,,,,,,,,,,,,,,,,,,,,,,
,,5fac2995bbe58415e0ac6a1e,2024-02-22_04h29.54.863,kallum_motion_pilot,2023.2.2,Win32,28.8184438,5fac2995bbe58415e0ac6a1e,65d6bb0e977760de756971f7,65d6bec2ab610f7bb580d5c4,0.0148,0.0148,0,64,64,131,1,sixeight,,,,,,,,,,,,,,,,,,,,,,,,,,,,,,,,,,,,,,,,,,,,,,,,,,,,,,,,,,,,,,,,,,,,,,,,,,,,,,,,,,,,,,,,,,,,,,,,,,,,,,,,,,,,,,,,,,,,,,,,,,,,,,,,,,,,,,,,,
,,5fac2995bbe58415e0ac6a1e,2024-02-22_04h29.54.863,kallum_motion_pilot,2023.2.2,Win32,28.8184438,5fac2995bbe58415e0ac6a1e,65d6bb0e977760de756971f7,65d6bec2ab610f7bb580d5c4,0.0148,0.0149,0,65,65,43,1,twofour,,,,,,,,,,,,,,,,,,,,,,,,,,,,,,,,,,,,,,,,,,,,,,,,,,,,,,,,,,,,,,,,,,,,,,,,,,,,,,,,,,,,,,,,,,,,,,,,,,,,,,,,,,,,,,,,,,,,,,,,,,,,,,,,,,,,,,,,,
,,5fac2995bbe58415e0ac6a1e,2024-02-22_04h29.54.863,kallum_motion_pilot,2023.2.2,Win32,28.8184438,5fac2995bbe58415e0ac6a1e,65d6bb0e977760de756971f7,65d6bec2ab610f7bb580d5c4,0.0149,0.0149,0,66,66,67,1,twofour,,,,,,,,,,,,,,,,,,,,,,,,,,,,,,,,,,,,,,,,,,,,,,,,,,,,,,,,,,,,,,,,,,,,,,,,,,,,,,,,,,,,,,,,,,,,,,,,,,,,,,,,,,,,,,,,,,,,,,,,,,,,,,,,,,,,,,,,,
,,5fac2995bbe58415e0ac6a1e,2024-02-22_04h29.54.863,kallum_motion_pilot,2023.2.2,Win32,28.8184438,5fac2995bbe58415e0ac6a1e,65d6bb0e977760de756971f7,65d6bec2ab610f7bb580d5c4,0.0149,0.0149,0,67,67,6,1,fourtwo,,,,,,,,,,,,,,,,,,,,,,,,,,,,,,,,,,,,,,,,,,,,,,,,,,,,,,,,,,,,,,,,,,,,,,,,,,,,,,,,,,,,,,,,,,,,,,,,,,,,,,,,,,,,,,,,,,,,,,,,,,,,,,,,,,,,,,,,,
,,5fac2995bbe58415e0ac6a1e,2024-02-22_04h29.54.863,kallum_motion_pilot,2023.2.2,Win32,28.8184438,5fac2995bbe58415e0ac6a1e,65d6bb0e977760de756971f7,65d6bec2ab610f7bb580d5c4,0.0149,0.015,0,68,68,29,1,threefour,,,,,,,,,,,,,,,,,,,,,,,,,,,,,,,,,,,,,,,,,,,,,,,,,,,,,,,,,,,,,,,,,,,,,,,,,,,,,,,,,,,,,,,,,,,,,,,,,,,,,,,,,,,,,,,,,,,,,,,,,,,,,,,,,,,,,,,,,
,,5fac2995bbe58415e0ac6a1e,2024-02-22_04h29.54.863,kallum_motion_pilot,2023.2.2,Win32,28.8184438,5fac2995bbe58415e0ac6a1e,65d6bb0e977760de756971f7,65d6bec2ab610f7bb580d5c4,0.0151,0.0151,0,69,69,69,1,threefour,,,,,,,,,,,,,,,,,,,,,,,,,,,,,,,,,,,,,,,,,,,,,,,,,,,,,,,,,,,,,,,,,,,,,,,,,,,,,,,,,,,,,,,,,,,,,,,,,,,,,,,,,,,,,,,,,,,,,,,,,,,,,,,,,,,,,,,,,
,,5fac2995bbe58415e0ac6a1e,2024-02-22_04h29.54.863,kallum_motion_pilot,2023.2.2,Win32,28.8184438,5fac2995bbe58415e0ac6a1e,65d6bb0e977760de756971f7,65d6bec2ab610f7bb580d5c4,0.0152,0.0152,0,70,70,26,1,twoone,,,,,,,,,,,,,,,,,,,,,,,,,,,,,,,,,,,,,,,,,,,,,,,,,,,,,,,,,,,,,,,,,,,,,,,,,,,,,,,,,,,,,,,,,,,,,,,,,,,,,,,,,,,,,,,,,,,,,,,,,,,,,,,,,,,,,,,,,
,,5fac2995bbe58415e0ac6a1e,2024-02-22_04h29.54.863,kallum_motion_pilot,2023.2.2,Win32,28.8184438,5fac2995bbe58415e0ac6a1e,65d6bb0e977760de756971f7,65d6bec2ab610f7bb580d5c4,0.0152,0.0153,0,71,71,47,1,fourthree,,,,,,,,,,,,,,,,,,,,,,,,,,,,,,,,,,,,,,,,,,,,,,,,,,,,,,,,,,,,,,,,,,,,,,,,,,,,,,,,,,,,,,,,,,,,,,,,,,,,,,,,,,,,,,,,,,,,,,,,,,,,,,,,,,,,,,,,,
,,5fac2995bbe58415e0ac6a1e,2024-02-22_04h29.54.863,kallum_motion_pilot,2023.2.2,Win32,28.8184438,5fac2995bbe58415e0ac6a1e,65d6bb0e977760de756971f7,65d6bec2ab610f7bb580d5c4,0.0153,0.0153,0,72,72,63,1,fourthree,,,,,,,,,,,,,,,,,,,,,,,,,,,,,,,,,,,,,,,,,,,,,,,,,,,,,,,,,,,,,,,,,,,,,,,,,,,,,,,,,,,,,,,,,,,,,,,,,,,,,,,,,,,,,,,,,,,,,,,,,,,,,,,,,,,,,,,,,
,,5fac2995bbe58415e0ac6a1e,2024-02-22_04h29.54.863,kallum_motion_pilot,2023.2.2,Win32,28.8184438,5fac2995bbe58415e0ac6a1e,65d6bb0e977760de756971f7,65d6bec2ab610f7bb580d5c4,0.0153,0.0153,0,73,73,61,1,threefour,,,,,,,,,,,,,,,,,,,,,,,,,,,,,,,,,,,,,,,,,,,,,,,,,,,,,,,,,,,,,,,,,,,,,,,,,,,,,,,,,,,,,,,,,,,,,,,,,,,,,,,,,,,,,,,,,,,,,,,,,,,,,,,,,,,,,,,,,
,,5fac2995bbe58415e0ac6a1e,2024-02-22_04h29.54.863,kallum_motion_pilot,2023.2.2,Win32,28.8184438,5fac2995bbe58415e0ac6a1e,65d6bb0e977760de756971f7,65d6bec2ab610f7bb580d5c4,0.0153,0.0153,0,74,74,146,1,sixfive,,,,,,,,,,,,,,,,,,,,,,,,,,,,,,,,,,,,,,,,,,,,,,,,,,,,,,,,,,,,,,,,,,,,,,,,,,,,,,,,,,,,,,,,,,,,,,,,,,,,,,,,,,,,,,,,,,,,,,,,,,,,,,,,,,,,,,,,,
,,5fac2995bbe58415e0ac6a1e,2024-02-22_04h29.54.863,kallum_motion_pilot,2023.2.2,Win32,28.8184438,5fac2995bbe58415e0ac6a1e,65d6bb0e977760de756971f7,65d6bec2ab610f7bb580d5c4,0.0153,0.0153,0,75,75,55,1,fourthree,,,,,,,,,,,,,,,,,,,,,,,,,,,,,,,,,,,,,,,,,,,,,,,,,,,,,,,,,,,,,,,,,,,,,,,,,,,,,,,,,,,,,,,,,,,,,,,,,,,,,,,,,,,,,,,,,,,,,,,,,,,,,,,,,,,,,,,,,
,,5fac2995bbe58415e0ac6a1e,2024-02-22_04h29.54.863,kallum_motion_pilot,2023.2.2,Win32,28.8184438,5fac2995bbe58415e0ac6a1e,65d6bb0e977760de756971f7,65d6bec2ab610f7bb580d5c4,0.0154,0.0154,0,76,76,9,1,onethree,,,,,,,,,,,,,,,,,,,,,,,,,,,,,,,,,,,,,,,,,,,,,,,,,,,,,,,,,,,,,,,,,,,,,,,,,,,,,,,,,,,,,,,,,,,,,,,,,,,,,,,,,,,,,,,,,,,,,,,,,,,,,,,,,,,,,,,,,
,,5fac2995bbe58415e0ac6a1e,2024-02-22_04h29.54.863,kallum_motion_pilot,2023.2.2,Win32,28.8184438,5fac2995bbe58415e0ac6a1e,65d6bb0e977760de756971f7,65d6bec2ab610f7bb580d5c4,0.0154,0.0154,0,77,77,8,1,onetwo,,,,,,,,,,,,,,,,,,,,,,,,,,,,,,,,,,,,,,,,,,,,,,,,,,,,,,,,,,,,,,,,,,,,,,,,,,,,,,,,,,,,,,,,,,,,,,,,,,,,,,,,,,,,,,,,,,,,,,,,,,,,,,,,,,,,,,,,,
,,5fac2995bbe58415e0ac6a1e,2024-02-22_04h29.54.863,kallum_motion_pilot,2023.2.2,Win32,28.8184438,5fac2995bbe58415e0ac6a1e,65d6bb0e977760de756971f7,65d6bec2ab610f7bb580d5c4,0.0154,0.0155,0,78,78,90,1,sixfive,,,,,,,,,,,,,,,,,,,,,,,,,,,,,,,,,,,,,,,,,,,,,,,,,,,,,,,,,,,,,,,,,,,,,,,,,,,,,,,,,,,,,,,,,,,,,,,,,,,,,,,,,,,,,,,,,,,,,,,,,,,,,,,,,,,,,,,,,
,,5fac2995bbe58415e0ac6a1e,2024-02-22_04h29.54.863,kallum_motion_pilot,2023.2.2,Win32,28.8184438,5fac2995bbe58415e0ac6a1e,65d6bb0e977760de756971f7,65d6bec2ab610f7bb580d5c4,0.0155,0.0155,0,79,79,53,1,threefour,,,,,,,,,,,,,,,,,,,,,,,,,,,,,,,,,,,,,,,,,,,,,,,,,,,,,,,,,,,,,,,,,,,,,,,,,,,,,,,,,,,,,,,,,,,,,,,,,,,,,,,,,,,,,,,,,,,,,,,,,,,,,,,,,,,,,,,,,
,,5fac2995bbe58415e0ac6a1e,2024-02-22_04h29.54.863,kallum_motion_pilot,2023.2.2,Win32,28.8184438,5fac2995bbe58415e0ac6a1e,65d6bb0e977760de756971f7,65d6bec2ab610f7bb580d5c4,0.0155,0.0155,0,80,80,152,1,fivesix,,,,,,,,,,,,,,,,,,,,,,,,,,,,,,,,,,,,,,,,,,,,,,,,,,,,,,,,,,,,,,,,,,,,,,,,,,,,,,,,,,,,,,,,,,,,,,,,,,,,,,,,,,,,,,,,,,,,,,,,,,,,,,,,,,,,,,,,,
,,5fac2995bbe58415e0ac6a1e,2024-02-22_04h29.54.863,kallum_motion_pilot,2023.2.2,Win32,28.8184438,5fac2995bbe58415e0ac6a1e,65d6bb0e977760de756971f7,65d6bec2ab610f7bb580d5c4,0.0155,0.0156,0,81,81,123,1,sixeight,,,,,,,,,,,,,,,,,,,,,,,,,,,,,,,,,,,,,,,,,,,,,,,,,,,,,,,,,,,,,,,,,,,,,,,,,,,,,,,,,,,,,,,,,,,,,,,,,,,,,,,,,,,,,,,,,,,,,,,,,,,,,,,,,,,,,,,,,
,,5fac2995bbe58415e0ac6a1e,2024-02-22_04h29.54.863,kallum_motion_pilot,2023.2.2,Win32,28.8184438,5fac2995bbe58415e0ac6a1e,65d6bb0e977760de756971f7,65d6bec2ab610f7bb580d5c4,0.0156,0.0156,0,82,82,122,1,sixfive,,,,,,,,,,,,,,,,,,,,,,,,,,,,,,,,,,,,,,,,,,,,,,,,,,,,,,,,,,,,,,,,,,,,,,,,,,,,,,,,,,,,,,,,,,,,,,,,,,,,,,,,,,,,,,,,,,,,,,,,,,,,,,,,,,,,,,,,,
,,5fac2995bbe58415e0ac6a1e,2024-02-22_04h29.54.863,kallum_motion_pilot,2023.2.2,Win32,28.8184438,5fac2995bbe58415e0ac6a1e,65d6bb0e977760de756971f7,65d6bec2ab610f7bb580d5c4,0.0156,0.0156,0,83,83,54,1,fourtwo,,,,,,,,,,,,,,,,,,,,,,,,,,,,,,,,,,,,,,,,,,,,,,,,,,,,,,,,,,,,,,,,,,,,,,,,,,,,,,,,,,,,,,,,,,,,,,,,,,,,,,,,,,,,,,,,,,,,,,,,,,,,,,,,,,,,,,,,,
,,5fac2995bbe58415e0ac6a1e,2024-02-22_04h29.54.863,kallum_motion_pilot,2023.2.2,Win32,28.8184438,5fac2995bbe58415e0ac6a1e,65d6bb0e977760de756971f7,65d6bec2ab610f7bb580d5c4,0.0157,0.0157,0,84,84,45,1,threefour,,,,,,,,,,,,,,,,,,,,,,,,,,,,,,,,,,,,,,,,,,,,,,,,,,,,,,,,,,,,,,,,,,,,,,,,,,,,,,,,,,,,,,,,,,,,,,,,,,,,,,,,,,,,,,,,,,,,,,,,,,,,,,,,,,,,,,,,,
,,5fac2995bbe58415e0ac6a1e,2024-02-22_04h29.54.863,kallum_motion_pilot,2023.2.2,Win32,28.8184438,5fac2995bbe58415e0ac6a1e,65d6bb0e977760de756971f7,65d6bec2ab610f7bb580d5c4,0.0157,0.0157,0,85,85,132,1,sevenfive,,,,,,,,,,,,,,,,,,,,,,,,,,,,,,,,,,,,,,,,,,,,,,,,,,,,,,,,,,,,,,,,,,,,,,,,,,,,,,,,,,,,,,,,,,,,,,,,,,,,,,,,,,,,,,,,,,,,,,,,,,,,,,,,,,,,,,,,,
,,5fac2995bbe58415e0ac6a1e,2024-02-22_04h29.54.863,kallum_motion_pilot,2023.2.2,Win32,28.8184438,5fac2995bbe58415e0ac6a1e,65d6bb0e977760de756971f7,65d6bec2ab610f7bb580d5c4,0.0158,0.0158,0,86,86,81,1,fiveseven,,,,,,,,,,,,,,,,,,,,,,,,,,,,,,,,,,,,,,,,,,,,,,,,,,,,,,,,,,,,,,,,,,,,,,,,,,,,,,,,,,,,,,,,,,,,,,,,,,,,,,,,,,,,,,,,,,,,,,,,,,,,,,,,,,,,,,,,,
,,5fac2995bbe58415e0ac6a1e,2024-02-22_04h29.54.863,kallum_motion_pilot,2023.2.2,Win32,28.8184438,5fac2995bbe58415e0ac6a1e,65d6bb0e977760de756971f7,65d6bec2ab610f7bb580d5c4,0.0158,0.0158,0,87,87,97,1,fiveseven,,,,,,,,,,,,,,,,,,,,,,,,,,,,,,,,,,,,,,,,,,,,,,,,,,,,,,,,,,,,,,,,,,,,,,,,,,,,,,,,,,,,,,,,,,,,,,,,,,,,,,,,,,,,,,,,,,,,,,,,,,,,,,,,,,,,,,,,,
,,5fac2995bbe58415e0ac6a1e,2024-02-22_04h29.54.863,kallum_motion_pilot,2023.2.2,Win32,28.8184438,5fac2995bbe58415e0ac6a1e,65d6bb0e977760de756971f7,65d6bec2ab610f7bb580d5c4,0.0159,0.0159,0,88,88,83,1,sixeight,,,,,,,,,,,,,,,,,,,,,,,,,,,,,,,,,,,,,,,,,,,,,,,,,,,,,,,,,,,,,,,,,,,,,,,,,,,,,,,,,,,,,,,,,,,,,,,,,,,,,,,,,,,,,,,,,,,,,,,,,,,,,,,,,,,,,,,,,
,,5fac2995bbe58415e0ac6a1e,2024-02-22_04h29.54.863,kallum_motion_pilot,2023.2.2,Win32,28.8184438,5fac2995bbe58415e0ac6a1e,65d6bb0e977760de756971f7,65d6bec2ab610f7bb580d5c4,0.0159,0.0159,0,89,89,102,1,eightsix,,,,,,,,,,,,,,,,,,,,,,,,,,,,,,,,,,,,,,,,,,,,,,,,,,,,,,,,,,,,,,,,,,,,,,,,,,,,,,,,,,,,,,,,,,,,,,,,,,,,,,,,,,,,,,,,,,,,,,,,,,,,,,,,,,,,,,,,,
,,5fac2995bbe58415e0ac6a1e,2024-02-22_04h29.54.863,kallum_motion_pilot,2023.2.2,Win32,28.8184438,5fac2995bbe58415e0ac6a1e,65d6bb0e977760de756971f7,65d6bec2ab610f7bb580d5c4,0.0159,0.0159,0,90,90,17,1,onethree,,,,,,,,,,,,,,,,,,,,,,,,,,,,,,,,,,,,,,,,,,,,,,,,,,,,,,,,,,,,,,,,,,,,,,,,,,,,,,,,,,,,,,,,,,,,,,,,,,,,,,,,,,,,,,,,,,,,,,,,,,,,,,,,,,,,,,,,,
,,5fac2995bbe58415e0ac6a1e,2024-02-22_04h29.54.863,kallum_motion_pilot,2023.2.2,Win32,28.8184438,5fac2995bbe58415e0ac6a1e,65d6bb0e977760de756971f7,65d6bec2ab610f7bb580d5c4,0.0159,0.016,0,91,91,37,1,threefour,,,,,,,,,,,,,,,,,,,,,,,,,,,,,,,,,,,,,,,,,,,,,,,,,,,,,,,,,,,,,,,,,,,,,,,,,,,,,,,,,,,,,,,,,,,,,,,,,,,,,,,,,,,,,,,,,,,,,,,,,,,,,,,,,,,,,,,,,
,,5fac2995bbe58415e0ac6a1e,2024-02-22_04h29.54.863,kallum_motion_pilot,2023.2.2,Win32,28.8184438,5fac2995bbe58415e0ac6a1e,65d6bb0e977760de756971f7,65d6bec2ab610f7bb580d5c4,0.016,0.016,0,92,92,129,1,fiveseven,,,,,,,,,,,,,,,,,,,,,,,,,,,,,,,,,,,,,,,,,,,,,,,,,,,,,,,,,,,,,,,,,,,,,,,,,,,,,,,,,,,,,,,,,,,,,,,,,,,,,,,,,,,,,,,,,,,,,,,,,,,,,,,,,,,,,,,,,
,,5fac2995bbe58415e0ac6a1e,2024-02-22_04h29.54.863,kallum_motion_pilot,2023.2.2,Win32,28.8184438,5fac2995bbe58415e0ac6a1e,65d6bb0e977760de756971f7,65d6bec2ab610f7bb580d5c4,0.0161,0.0161,0,93,93,89,1,fiveseven,,,,,,,,,,,,,,,,,,,,,,,,,,,,,,,,,,,,,,,,,,,,,,,,,,,,,,,,,,,,,,,,,,,,,,,,,,,,,,,,,,,,,,,,,,,,,,,,,,,,,,,,,,,,,,,,,,,,,,,,,,,,,,,,,,,,,,,,,
,,5fac2995bbe58415e0ac6a1e,2024-02-22_04h29.54.863,kallum_motion_pilot,2023.2.2,Win32,28.8184438,5fac2995bbe58415e0ac6a1e,65d6bb0e977760de756971f7,65d6bec2ab610f7bb580d5c4,0.0161,0.0161,0,94,94,88,1,fivesix,,,,,,,,,,,,,,,,,,,,,,,,,,,,,,,,,,,,,,,,,,,,,,,,,,,,,,,,,,,,,,,,,,,,,,,,,,,,,,,,,,,,,,,,,,,,,,,,,,,,,,,,,,,,,,,,,,,,,,,,,,,,,,,,,,,,,,,,,
,,5fac2995bbe58415e0ac6a1e,2024-02-22_04h29.54.863,kallum_motion_pilot,2023.2.2,Win32,28.8184438,5fac2995bbe58415e0ac6a1e,65d6bb0e977760de756971f7,65d6bec2ab610f7bb580d5c4,0.0161,0.0161,0,95,95,126,1,eightsix,,,,,,,,,,,,,,,,,,,,,,,,,,,,,,,,,,,,,,,,,,,,,,,,,,,,,,,,,,,,,,,,,,,,,,,,,,,,,,,,,,,,,,,,,,,,,,,,,,,,,,,,,,,,,,,,,,,,,,,,,,,,,,,,,,,,,,,,,
,,5fac2995bbe58415e0ac6a1e,2024-02-22_04h29.54.863,kallum_motion_pilot,2023.2.2,Win32,28.8184438,5fac2995bbe58415e0ac6a1e,65d6bb0e977760de756971f7,65d6bec2ab610f7bb580d5c4,0.0161,0.0161,0,96,96,161,1,fiveseven,,,,,,,,,,,,,,,,,,,,,,,,,,,,,,,,,,,,,,,,,,,,,,,,,,,,,,,,,,,,,,,,,,,,,,,,,,,,,,,,,,,,,,,,,,,,,,,,,,,,,,,,,,,,,,,,,,,,,,,,,,,,,,,,,,,,,,,,,
,,5fac2995bbe58415e0ac6a1e,2024-02-22_04h29.54.863,kallum_motion_pilot,2023.2.2,Win32,28.8184438,5fac2995bbe58415e0ac6a1e,65d6bb0e977760de756971f7,65d6bec2ab610f7bb580d5c4,0.0162,0.0162,0,97,97,25,1,onethree,,,,,,,,,,,,,,,,,,,,,,,,,,,,,,,,,,,,,,,,,,,,,,,,,,,,,,,,,,,,,,,,,,,,,,,,,,,,,,,,,,,,,,,,,,,,,,,,,,,,,,,,,,,,,,,,,,,,,,,,,,,,,,,,,,,,,,,,,
,,5fac2995bbe58415e0ac6a1e,2024-02-22_04h29.54.863,kallum_motion_pilot,2023.2.2,Win32,28.8184438,5fac2995bbe58415e0ac6a1e,65d6bb0e977760de756971f7,65d6bec2ab610f7bb580d5c4,0.0163,0.0163,0,98,98,16,1,onetwo,,,,,,,,,,,,,,,,,,,,,,,,,,,,,,,,,,,,,,,,,,,,,,,,,,,,,,,,,,,,,,,,,,,,,,,,,,,,,,,,,,,,,,,,,,,,,,,,,,,,,,,,,,,,,,,,,,,,,,,,,,,,,,,,,,,,,,,,,
,,5fac2995bbe58415e0ac6a1e,2024-02-22_04h29.54.863,kallum_motion_pilot,2023.2.2,Win32,28.8184438,5fac2995bbe58415e0ac6a1e,65d6bb0e977760de756971f7,65d6bec2ab610f7bb580d5c4,0.0164,0.0164,0,99,99,119,1,eightseven,,,,,,,,,,,,,,,,,,,,,,,,,,,,,,,,,,,,,,,,,,,,,,,,,,,,,,,,,,,,,,,,,,,,,,,,,,,,,,,,,,,,,,,,,,,,,,,,,,,,,,,,,,,,,,,,,,,,,,,,,,,,,,,,,,,,,,,,,
,,5fac2995bbe58415e0ac6a1e,2024-02-22_04h29.54.863,kallum_motion_pilot,2023.2.2,Win32,28.8184438,5fac2995bbe58415e0ac6a1e,65d6bb0e977760de756971f7,65d6bec2ab610f7bb580d5c4,0.0164,0.0164,0,100,100,50,1,twoone,,,,,,,,,,,,,,,,,,,,,,,,,,,,,,,,,,,,,,,,,,,,,,,,,,,,,,,,,,,,,,,,,,,,,,,,,,,,,,,,,,,,,,,,,,,,,,,,,,,,,,,,,,,,,,,,,,,,,,,,,,,,,,,,,,,,,,,,,
,,5fac2995bbe58415e0ac6a1e,2024-02-22_04h29.54.863,kallum_motion_pilot,2023.2.2,Win32,28.8184438,5fac2995bbe58415e0ac6a1e,65d6bb0e977760de756971f7,65d6bec2ab610f7bb580d5c4,0.0164,0.0165,0,101,101,39,1,fourthree,,,,,,,,,,,,,,,,,,,,,,,,,,,,,,,,,,,,,,,,,,,,,,,,,,,,,,,,,,,,,,,,,,,,,,,,,,,,,,,,,,,,,,,,,,,,,,,,,,,,,,,,,,,,,,,,,,,,,,,,,,,,,,,,,,,,,,,,,
,,5fac2995bbe58415e0ac6a1e,2024-02-22_04h29.54.863,kallum_motion_pilot,2023.2.2,Win32,28.8184438,5fac2995bbe58415e0ac6a1e,65d6bb0e977760de756971f7,65d6bec2ab610f7bb580d5c4,0.0165,0.0165,0,102,102,155,1,sixeight,,,,,,,,,,,,,,,,,,,,,,,,,,,,,,,,,,,,,,,,,,,,,,,,,,,,,,,,,,,,,,,,,,,,,,,,,,,,,,,,,,,,,,,,,,,,,,,,,,,,,,,,,,,,,,,,,,,,,,,,,,,,,,,,,,,,,,,,,
,,5fac2995bbe58415e0ac6a1e,2024-02-22_04h29.54.863,kallum_motion_pilot,2023.2.2,Win32,28.8184438,5fac2995bbe58415e0ac6a1e,65d6bb0e977760de756971f7,65d6bec2ab610f7bb580d5c4,0.0166,0.0166,0,103,103,87,1,eightseven,,,,,,,,,,,,,,,,,,,,,,,,,,,,,,,,,,,,,,,,,,,,,,,,,,,,,,,,,,,,,,,,,,,,,,,,,,,,,,,,,,,,,,,,,,,,,,,,,,,,,,,,,,,,,,,,,,,,,,,,,,,,,,,,,,,,,,,,,
,,5fac2995bbe58415e0ac6a1e,2024-02-22_04h29.54.863,kallum_motion_pilot,2023.2.2,Win32,28.8184438,5fac2995bbe58415e0ac6a1e,65d6bb0e977760de756971f7,65d6bec2ab610f7bb580d5c4,0.0166,0.0166,0,104,104,76,1,threeone,,,,,,,,,,,,,,,,,,,,,,,,,,,,,,,,,,,,,,,,,,,,,,,,,,,,,,,,,,,,,,,,,,,,,,,,,,,,,,,,,,,,,,,,,,,,,,,,,,,,,,,,,,,,,,,,,,,,,,,,,,,,,,,,,,,,,,,,,
,,5fac2995bbe58415e0ac6a1e,2024-02-22_04h29.54.863,kallum_motion_pilot,2023.2.2,Win32,28.8184438,5fac2995bbe58415e0ac6a1e,65d6bb0e977760de756971f7,65d6bec2ab610f7bb580d5c4,0.0167,0.0167,0,105,105,59,1,twofour,,,,,,,,,,,,,,,,,,,,,,,,,,,,,,,,,,,,,,,,,,,,,,,,,,,,,,,,,,,,,,,,,,,,,,,,,,,,,,,,,,,,,,,,,,,,,,,,,,,,,,,,,,,,,,,,,,,,,,,,,,,,,,,,,,,,,,,,,
,,5fac2995bbe58415e0ac6a1e,2024-02-22_04h29.54.863,kallum_motion_pilot,2023.2.2,Win32,28.8184438,5fac2995bbe58415e0ac6a1e,65d6bb0e977760de756971f7,65d6bec2ab610f7bb580d5c4,0.0167,0.0167,0,106,106,23,1,fourthree,,,,,,,,,,,,,,,,,,,,,,,,,,,,,,,,,,,,,,,,,,,,,,,,,,,,,,,,,,,,,,,,,,,,,,,,,,,,,,,,,,,,,,,,,,,,,,,,,,,,,,,,,,,,,,,,,,,,,,,,,,,,,,,,,,,,,,,,,
,,5fac2995bbe58415e0ac6a1e,2024-02-22_04h29.54.863,kallum_motion_pilot,2023.2.2,Win32,28.8184438,5fac2995bbe58415e0ac6a1e,65d6bb0e977760de756971f7,65d6bec2ab610f7bb580d5c4,0.0167,0.0168,0,107,107,41,1,onethree,,,,,,,,,,,,,,,,,,,,,,,,,,,,,,,,,,,,,,,,,,,,,,,,,,,,,,,,,,,,,,,,,,,,,,,,,,,,,,,,,,,,,,,,,,,,,,,,,,,,,,,,,,,,,,,,,,,,,,,,,,,,,,,,,,,,,,,,,
,,5fac2995bbe58415e0ac6a1e,2024-02-22_04h29.54.863,kallum_motion_pilot,2023.2.2,Win32,28.8184438,5fac2995bbe58415e0ac6a1e,65d6bb0e977760de756971f7,65d6bec2ab610f7bb580d5c4,0.0168,0.0168,0,108,108,38,1,fourtwo,,,,,,,,,,,,,,,,,,,,,,,,,,,,,,,,,,,,,,,,,,,,,,,,,,,,,,,,,,,,,,,,,,,,,,,,,,,,,,,,,,,,,,,,,,,,,,,,,,,,,,,,,,,,,,,,,,,,,,,,,,,,,,,,,,,,,,,,,
,,5fac2995bbe58415e0ac6a1e,2024-02-22_04h29.54.863,kallum_motion_pilot,2023.2.2,Win32,28.8184438,5fac2995bbe58415e0ac6a1e,65d6bb0e977760de756971f7,65d6bec2ab610f7bb580d5c4,0.0168,0.0168,0,109,109,128,1,fivesix,,,,,,,,,,,,,,,,,,,,,,,,,,,,,,,,,,,,,,,,,,,,,,,,,,,,,,,,,,,,,,,,,,,,,,,,,,,,,,,,,,,,,,,,,,,,,,,,,,,,,,,,,,,,,,,,,,,,,,,,,,,,,,,,,,,,,,,,,
,,5fac2995bbe58415e0ac6a1e,2024-02-22_04h29.54.863,kallum_motion_pilot,2023.2.2,Win32,28.8184438,5fac2995bbe58415e0ac6a1e,65d6bb0e977760de756971f7,65d6bec2ab610f7bb580d5c4,0.0168,0.0168,0,110,110,86,1,eightsix,,,,,,,,,,,,,,,,,,,,,,,,,,,,,,,,,,,,,,,,,,,,,,,,,,,,,,,,,,,,,,,,,,,,,,,,,,,,,,,,,,,,,,,,,,,,,,,,,,,,,,,,,,,,,,,,,,,,,,,,,,,,,,,,,,,,,,,,,
,,5fac2995bbe58415e0ac6a1e,2024-02-22_04h29.54.863,kallum_motion_pilot,2023.2.2,Win32,28.8184438,5fac2995bbe58415e0ac6a1e,65d6bb0e977760de756971f7,65d6bec2ab610f7bb580d5c4,0.0169,0.0169,0,111,111,74,1,twoone,,,,,,,,,,,,,,,,,,,,,,,,,,,,,,,,,,,,,,,,,,,,,,,,,,,,,,,,,,,,,,,,,,,,,,,,,,,,,,,,,,,,,,,,,,,,,,,,,,,,,,,,,,,,,,,,,,,,,,,,,,,,,,,,,,,,,,,,,
,,5fac2995bbe58415e0ac6a1e,2024-02-22_04h29.54.863,kallum_motion_pilot,2023.2.2,Win32,28.8184438,5fac2995bbe58415e0ac6a1e,65d6bb0e977760de756971f7,65d6bec2ab610f7bb580d5c4,0.0169,0.0169,0,112,112,48,1,onetwo,,,,,,,,,,,,,,,,,,,,,,,,,,,,,,,,,,,,,,,,,,,,,,,,,,,,,,,,,,,,,,,,,,,,,,,,,,,,,,,,,,,,,,,,,,,,,,,,,,,,,,,,,,,,,,,,,,,,,,,,,,,,,,,,,,,,,,,,,
,,5fac2995bbe58415e0ac6a1e,2024-02-22_04h29.54.863,kallum_motion_pilot,2023.2.2,Win32,28.8184438,5fac2995bbe58415e0ac6a1e,65d6bb0e977760de756971f7,65d6bec2ab610f7bb580d5c4,0.017,0.017,0,113,113,127,1,eightseven,,,,,,,,,,,,,,,,,,,,,,,,,,,,,,,,,,,,,,,,,,,,,,,,,,,,,,,,,,,,,,,,,,,,,,,,,,,,,,,,,,,,,,,,,,,,,,,,,,,,,,,,,,,,,,,,,,,,,,,,,,,,,,,,,,,,,,,,,
,,5fac2995bbe58415e0ac6a1e,2024-02-22_04h29.54.863,kallum_motion_pilot,2023.2.2,Win32,28.8184438,5fac2995bbe58415e0ac6a1e,65d6bb0e977760de756971f7,65d6bec2ab610f7bb580d5c4,0.0171,0.0171,0,114,114,33,1,onethree,,,,,,,,,,,,,,,,,,,,,,,,,,,,,,,,,,,,,,,,,,,,,,,,,,,,,,,,,,,,,,,,,,,,,,,,,,,,,,,,,,,,,,,,,,,,,,,,,,,,,,,,,,,,,,,,,,,,,,,,,,,,,,,,,,,,,,,,,
,,5fac2995bbe58415e0ac6a1e,2024-02-22_04h29.54.863,kallum_motion_pilot,2023.2.2,Win32,28.8184438,5fac2995bbe58415e0ac6a1e,65d6bb0e977760de756971f7,65d6bec2ab610f7bb580d5c4,0.0171,0.0171,0,115,115,99,1,sixeight,,,,,,,,,,,,,,,,,,,,,,,,,,,,,,,,,,,,,,,,,,,,,,,,,,,,,,,,,,,,,,,,,,,,,,,,,,,,,,,,,,,,,,,,,,,,,,,,,,,,,,,,,,,,,,,,,,,,,,,,,,,,,,,,,,,,,,,,,
,,5fac2995bbe58415e0ac6a1e,2024-02-22_04h29.54.863,kallum_motion_pilot,2023.2.2,Win32,28.8184438,5fac2995bbe58415e0ac6a1e,65d6bb0e977760de756971f7,65d6bec2ab610f7bb580d5c4,0.0172,0.0172,0,116,116,18,1,twoone,,,,,,,,,,,,,,,,,,,,,,,,,,,,,,,,,,,,,,,,,,,,,,,,,,,,,,,,,,,,,,,,,,,,,,,,,,,,,,,,,,,,,,,,,,,,,,,,,,,,,,,,,,,,,,,,,,,,,,,,,,,,,,,,,,,,,,,,,
,,5fac2995bbe58415e0ac6a1e,2024-02-22_04h29.54.863,kallum_motion_pilot,2023.2.2,Win32,28.8184438,5fac2995bbe58415e0ac6a1e,65d6bb0e977760de756971f7,65d6bec2ab610f7bb580d5c4,0.0172,0.0172,0,117,117,149,1,seveneight,,,,,,,,,,,,,,,,,,,,,,,,,,,,,,,,,,,,,,,,,,,,,,,,,,,,,,,,,,,,,,,,,,,,,,,,,,,,,,,,,,,,,,,,,,,,,,,,,,,,,,,,,,,,,,,,,,,,,,,,,,,,,,,,,,,,,,,,,
,,5fac2995bbe58415e0ac6a1e,2024-02-22_04h29.54.863,kallum_motion_pilot,2023.2.2,Win32,28.8184438,5fac2995bbe58415e0ac6a1e,65d6bb0e977760de756971f7,65d6bec2ab610f7bb580d5c4,0.0173,0.0173,0,118,118,106,1,sixfive,,,,,,,,,,,,,,,,,,,,,,,,,,,,,,,,,,,,,,,,,,,,,,,,,,,,,,,,,,,,,,,,,,,,,,,,,,,,,,,,,,,,,,,,,,,,,,,,,,,,,,,,,,,,,,,,,,,,,,,,,,,,,,,,,,,,,,,,,
,,5fac2995bbe58415e0ac6a1e,2024-02-22_04h29.54.863,kallum_motion_pilot,2023.2.2,Win32,28.8184438,5fac2995bbe58415e0ac6a1e,65d6bb0e977760de756971f7,65d6bec2ab610f7bb580d5c4,0.0173,0.0174,0,119,119,140,1,sevenfive,,,,,,,,,,,,,,,,,,,,,,,,,,,,,,,,,,,,,,,,,,,,,,,,,,,,,,,,,,,,,,,,,,,,,,,,,,,,,,,,,,,,,,,,,,,,,,,,,,,,,,,,,,,,,,,,,,,,,,,,,,,,,,,,,,,,,,,,,
,,5fac2995bbe58415e0ac6a1e,2024-02-22_04h29.54.863,kallum_motion_pilot,2023.2.2,Win32,28.8184438,5fac2995bbe58415e0ac6a1e,65d6bb0e977760de756971f7,65d6bec2ab610f7bb580d5c4,0.0174,0.0174,0,120,120,78,1,fourtwo,,,,,,,,,,,,,,,,,,,,,,,,,,,,,,,,,,,,,,,,,,,,,,,,,,,,,,,,,,,,,,,,,,,,,,,,,,,,,,,,,,,,,,,,,,,,,,,,,,,,,,,,,,,,,,,,,,,,,,,,,,,,,,,,,,,,,,,,,
,,5fac2995bbe58415e0ac6a1e,2024-02-22_04h29.54.863,kallum_motion_pilot,2023.2.2,Win32,28.8184438,5fac2995bbe58415e0ac6a1e,65d6bb0e977760de756971f7,65d6bec2ab610f7bb580d5c4,0.0175,0.0175,0,121,121,82,1,sixfive,,,,,,,,,,,,,,,,,,,,,,,,,,,,,,,,,,,,,,,,,,,,,,,,,,,,,,,,,,,,,,,,,,,,,,,,,,,,,,,,,,,,,,,,,,,,,,,,,,,,,,,,,,,,,,,,,,,,,,,,,,,,,,,,,,,,,,,,,
,,5fac2995bbe58415e0ac6a1e,2024-02-22_04h29.54.863,kallum_motion_pilot,2023.2.2,Win32,28.8184438,5fac2995bbe58415e0ac6a1e,65d6bb0e977760de756971f7,65d6bec2ab610f7bb580d5c4,0.0175,0.0175,0,122,122,7,1,fourthree,,,,,,,,,,,,,,,,,,,,,,,,,,,,,,,,,,,,,,,,,,,,,,,,,,,,,,,,,,,,,,,,,,,,,,,,,,,,,,,,,,,,,,,,,,,,,,,,,,,,,,,,,,,,,,,,,,,,,,,,,,,,,,,,,,,,,,,,,
,,5fac2995bbe58415e0ac6a1e,2024-02-22_04h29.54.863,kallum_motion_pilot,2023.2.2,Win32,28.8184438,5fac2995bbe58415e0ac6a1e,65d6bb0e977760de756971f7,65d6bec2ab610f7bb580d5c4,0.0176,0.0176,0,123,123,100,1,sevenfive,,,,,,,,,,,,,,,,,,,,,,,,,,,,,,,,,,,,,,,,,,,,,,,,,,,,,,,,,,,,,,,,,,,,,,,,,,,,,,,,,,,,,,,,,,,,,,,,,,,,,,,,,,,,,,,,,,,,,,,,,,,,,,,,,,,,,,,,,
,,5fac2995bbe58415e0ac6a1e,2024-02-22_04h29.54.863,kallum_motion_pilot,2023.2.2,Win32,28.8184438,5fac2995bbe58415e0ac6a1e,65d6bb0e977760de756971f7,65d6bec2ab610f7bb580d5c4,0.0176,0.0176,0,124,124,35,1,twofour,,,,,,,,,,,,,,,,,,,,,,,,,,,,,,,,,,,,,,,,,,,,,,,,,,,,,,,,,,,,,,,,,,,,,,,,,,,,,,,,,,,,,,,,,,,,,,,,,,,,,,,,,,,,,,,,,,,,,,,,,,,,,,,,,,,,,,,,,
,,5fac2995bbe58415e0ac6a1e,2024-02-22_04h29.54.863,kallum_motion_pilot,2023.2.2,Win32,28.8184438,5fac2995bbe58415e0ac6a1e,65d6bb0e977760de756971f7,65d6bec2ab610f7bb580d5c4,0.0177,0.0177,0,125,125,121,1,fiveseven,,,,,,,,,,,,,,,,,,,,,,,,,,,,,,,,,,,,,,,,,,,,,,,,,,,,,,,,,,,,,,,,,,,,,,,,,,,,,,,,,,,,,,,,,,,,,,,,,,,,,,,,,,,,,,,,,,,,,,,,,,,,,,,,,,,,,,,,,
,,5fac2995bbe58415e0ac6a1e,2024-02-22_04h29.54.863,kallum_motion_pilot,2023.2.2,Win32,28.8184438,5fac2995bbe58415e0ac6a1e,65d6bb0e977760de756971f7,65d6bec2ab610f7bb580d5c4,0.0177,0.0178,0,126,126,107,1,sixeight,,,,,,,,,,,,,,,,,,,,,,,,,,,,,,,,,,,,,,,,,,,,,,,,,,,,,,,,,,,,,,,,,,,,,,,,,,,,,,,,,,,,,,,,,,,,,,,,,,,,,,,,,,,,,,,,,,,,,,,,,,,,,,,,,,,,,,,,,
,,5fac2995bbe58415e0ac6a1e,2024-02-22_04h29.54.863,kallum_motion_pilot,2023.2.2,Win32,28.8184438,5fac2995bbe58415e0ac6a1e,65d6bb0e977760de756971f7,65d6bec2ab610f7bb580d5c4,0.0178,0.0178,0,127,127,60,1,threeone,,,,,,,,,,,,,,,,,,,,,,,,,,,,,,,,,,,,,,,,,,,,,,,,,,,,,,,,,,,,,,,,,,,,,,,,,,,,,,,,,,,,,,,,,,,,,,,,,,,,,,,,,,,,,,,,,,,,,,,,,,,,,,,,,,,,,,,,,
,,5fac2995bbe58415e0ac6a1e,2024-02-22_04h29.54.863,kallum_motion_pilot,2023.2.2,Win32,28.8184438,5fac2995bbe58415e0ac6a1e,65d6bb0e977760de756971f7,65d6bec2ab610f7bb580d5c4,0.0179,0.0179,0,128,128,28,1,threeone,,,,,,,,,,,,,,,,,,,,,,,,,,,,,,,,,,,,,,,,,,,,,,,,,,,,,,,,,,,,,,,,,,,,,,,,,,,,,,,,,,,,,,,,,,,,,,,,,,,,,,,,,,,,,,,,,,,,,,,,,,,,,,,,,,,,,,,,,
,,5fac2995bbe58415e0ac6a1e,2024-02-22_04h29.54.863,kallum_motion_pilot,2023.2.2,Win32,28.8184438,5fac2995bbe58415e0ac6a1e,65d6bb0e977760de756971f7,65d6bec2ab610f7bb580d5c4,0.0179,0.0179,0,129,129,0,1,onetwo,,,,,,,,,,,,,,,,,,,,,,,,,,,,,,,,,,,,,,,,,,,,,,,,,,,,,,,,,,,,,,,,,,,,,,,,,,,,,,,,,,,,,,,,,,,,,,,,,,,,,,,,,,,,,,,,,,,,,,,,,,,,,,,,,,,,,,,,,
,,5fac2995bbe58415e0ac6a1e,2024-02-22_04h29.54.863,kallum_motion_pilot,2023.2.2,Win32,28.8184438,5fac2995bbe58415e0ac6a1e,65d6bb0e977760de756971f7,65d6bec2ab610f7bb580d5c4,0.018,0.018,0,130,130,148,1,sevenfive,,,,,,,,,,,,,,,,,,,,,,,,,,,,,,,,,,,,,,,,,,,,,,,,,,,,,,,,,,,,,,,,,,,,,,,,,,,,,,,,,,,,,,,,,,,,,,,,,,,,,,,,,,,,,,,,,,,,,,,,,,,,,,,,,,,,,,,,,
,,5fac2995bbe58415e0ac6a1e,2024-02-22_04h29.54.863,kallum_motion_pilot,2023.2.2,Win32,28.8184438,5fac2995bbe58415e0ac6a1e,65d6bb0e977760de756971f7,65d6bec2ab610f7bb580d5c4,0.0181,0.0181,0,131,131,157,1,seveneight,,,,,,,,,,,,,,,,,,,,,,,,,,,,,,,,,,,,,,,,,,,,,,,,,,,,,,,,,,,,,,,,,,,,,,,,,,,,,,,,,,,,,,,,,,,,,,,,,,,,,,,,,,,,,,,,,,,,,,,,,,,,,,,,,,,,,,,,,
,,5fac2995bbe58415e0ac6a1e,2024-02-22_04h29.54.863,kallum_motion_pilot,2023.2.2,Win32,28.8184438,5fac2995bbe58415e0ac6a1e,65d6bb0e977760de756971f7,65d6bec2ab610f7bb580d5c4,0.0181,0.0181,0,132,132,98,1,sixfive,,,,,,,,,,,,,,,,,,,,,,,,,,,,,,,,,,,,,,,,,,,,,,,,,,,,,,,,,,,,,,,,,,,,,,,,,,,,,,,,,,,,,,,,,,,,,,,,,,,,,,,,,,,,,,,,,,,,,,,,,,,,,,,,,,,,,,,,,
,,5fac2995bbe58415e0ac6a1e,2024-02-22_04h29.54.863,kallum_motion_pilot,2023.2.2,Win32,28.8184438,5fac2995bbe58415e0ac6a1e,65d6bb0e977760de756971f7,65d6bec2ab610f7bb580d5c4,0.0181,0.0183,0,133,133,104,1,fivesix,,,,,,,,,,,,,,,,,,,,,,,,,,,,,,,,,,,,,,,,,,,,,,,,,,,,,,,,,,,,,,,,,,,,,,,,,,,,,,,,,,,,,,,,,,,,,,,,,,,,,,,,,,,,,,,,,,,,,,,,,,,,,,,,,,,,,,,,,
,,5fac2995bbe58415e0ac6a1e,2024-02-22_04h29.54.863,kallum_motion_pilot,2023.2.2,Win32,28.8184438,5fac2995bbe58415e0ac6a1e,65d6bb0e977760de756971f7,65d6bec2ab610f7bb580d5c4,0.0187,0.0187,0,134,134,64,1,onetwo,,,,,,,,,,,,,,,,,,,,,,,,,,,,,,,,,,,,,,,,,,,,,,,,,,,,,,,,,,,,,,,,,,,,,,,,,,,,,,,,,,,,,,,,,,,,,,,,,,,,,,,,,,,,,,,,,,,,,,,,,,,,,,,,,,,,,,,,,
,,5fac2995bbe58415e0ac6a1e,2024-02-22_04h29.54.863,kallum_motion_pilot,2023.2.2,Win32,28.8184438,5fac2995bbe58415e0ac6a1e,65d6bb0e977760de756971f7,65d6bec2ab610f7bb580d5c4,0.0187,0.0187,0,135,135,3,1,twofour,,,,,,,,,,,,,,,,,,,,,,,,,,,,,,,,,,,,,,,,,,,,,,,,,,,,,,,,,,,,,,,,,,,,,,,,,,,,,,,,,,,,,,,,,,,,,,,,,,,,,,,,,,,,,,,,,,,,,,,,,,,,,,,,,,,,,,,,,
,,5fac2995bbe58415e0ac6a1e,2024-02-22_04h29.54.863,kallum_motion_pilot,2023.2.2,Win32,28.8184438,5fac2995bbe58415e0ac6a1e,65d6bb0e977760de756971f7,65d6bec2ab610f7bb580d5c4,0.0187,0.0188,0,136,136,46,1,fourtwo,,,,,,,,,,,,,,,,,,,,,,,,,,,,,,,,,,,,,,,,,,,,,,,,,,,,,,,,,,,,,,,,,,,,,,,,,,,,,,,,,,,,,,,,,,,,,,,,,,,,,,,,,,,,,,,,,,,,,,,,,,,,,,,,,,,,,,,,,
,,5fac2995bbe58415e0ac6a1e,2024-02-22_04h29.54.863,kallum_motion_pilot,2023.2.2,Win32,28.8184438,5fac2995bbe58415e0ac6a1e,65d6bb0e977760de756971f7,65d6bec2ab610f7bb580d5c4,0.0189,0.0189,0,137,137,91,1,sixeight,,,,,,,,,,,,,,,,,,,,,,,,,,,,,,,,,,,,,,,,,,,,,,,,,,,,,,,,,,,,,,,,,,,,,,,,,,,,,,,,,,,,,,,,,,,,,,,,,,,,,,,,,,,,,,,,,,,,,,,,,,,,,,,,,,,,,,,,,
,,5fac2995bbe58415e0ac6a1e,2024-02-22_04h29.54.863,kallum_motion_pilot,2023.2.2,Win32,28.8184438,5fac2995bbe58415e0ac6a1e,65d6bb0e977760de756971f7,65d6bec2ab610f7bb580d5c4,0.0189,0.0189,0,138,138,66,1,twoone,,,,,,,,,,,,,,,,,,,,,,,,,,,,,,,,,,,,,,,,,,,,,,,,,,,,,,,,,,,,,,,,,,,,,,,,,,,,,,,,,,,,,,,,,,,,,,,,,,,,,,,,,,,,,,,,,,,,,,,,,,,,,,,,,,,,,,,,,
,,5fac2995bbe58415e0ac6a1e,2024-02-22_04h29.54.863,kallum_motion_pilot,2023.2.2,Win32,28.8184438,5fac2995bbe58415e0ac6a1e,65d6bb0e977760de756971f7,65d6bec2ab610f7bb580d5c4,0.0189,0.0189,0,139,139,147,1,sixeight,,,,,,,,,,,,,,,,,,,,,,,,,,,,,,,,,,,,,,,,,,,,,,,,,,,,,,,,,,,,,,,,,,,,,,,,,,,,,,,,,,,,,,,,,,,,,,,,,,,,,,,,,,,,,,,,,,,,,,,,,,,,,,,,,,,,,,,,,
,,5fac2995bbe58415e0ac6a1e,2024-02-22_04h29.54.863,kallum_motion_pilot,2023.2.2,Win32,28.8184438,5fac2995bbe58415e0ac6a1e,65d6bb0e977760de756971f7,65d6bec2ab610f7bb580d5c4,0.0189,0.0189,0,140,140,12,1,threeone,,,,,,,,,,,,,,,,,,,,,,,,,,,,,,,,,,,,,,,,,,,,,,,,,,,,,,,,,,,,,,,,,,,,,,,,,,,,,,,,,,,,,,,,,,,,,,,,,,,,,,,,,,,,,,,,,,,,,,,,,,,,,,,,,,,,,,,,,
,,5fac2995bbe58415e0ac6a1e,2024-02-22_04h29.54.863,kallum_motion_pilot,2023.2.2,Win32,28.8184438,5fac2995bbe58415e0ac6a1e,65d6bb0e977760de756971f7,65d6bec2ab610f7bb580d5c4,0.0189,0.019,0,141,141,73,1,onethree,,,,,,,,,,,,,,,,,,,,,,,,,,,,,,,,,,,,,,,,,,,,,,,,,,,,,,,,,,,,,,,,,,,,,,,,,,,,,,,,,,,,,,,,,,,,,,,,,,,,,,,,,,,,,,,,,,,,,,,,,,,,,,,,,,,,,,,,,
,,5fac2995bbe58415e0ac6a1e,2024-02-22_04h29.54.863,kallum_motion_pilot,2023.2.2,Win32,28.8184438,5fac2995bbe58415e0ac6a1e,65d6bb0e977760de756971f7,65d6bec2ab610f7bb580d5c4,0.0191,0.0191,0,142,142,31,1,fourthree,,,,,,,,,,,,,,,,,,,,,,,,,,,,,,,,,,,,,,,,,,,,,,,,,,,,,,,,,,,,,,,,,,,,,,,,,,,,,,,,,,,,,,,,,,,,,,,,,,,,,,,,,,,,,,,,,,,,,,,,,,,,,,,,,,,,,,,,,
,,5fac2995bbe58415e0ac6a1e,2024-02-22_04h29.54.863,kallum_motion_pilot,2023.2.2,Win32,28.8184438,5fac2995bbe58415e0ac6a1e,65d6bb0e977760de756971f7,65d6bec2ab610f7bb580d5c4,0.0191,0.0191,0,143,143,1,1,onethree,,,,,,,,,,,,,,,,,,,,,,,,,,,,,,,,,,,,,,,,,,,,,,,,,,,,,,,,,,,,,,,,,,,,,,,,,,,,,,,,,,,,,,,,,,,,,,,,,,,,,,,,,,,,,,,,,,,,,,,,,,,,,,,,,,,,,,,,,
,,5fac2995bbe58415e0ac6a1e,2024-02-22_04h29.54.863,kallum_motion_pilot,2023.2.2,Win32,28.8184438,5fac2995bbe58415e0ac6a1e,65d6bb0e977760de756971f7,65d6bec2ab610f7bb580d5c4,0.0191,0.0192,0,144,144,135,1,eightseven,,,,,,,,,,,,,,,,,,,,,,,,,,,,,,,,,,,,,,,,,,,,,,,,,,,,,,,,,,,,,,,,,,,,,,,,,,,,,,,,,,,,,,,,,,,,,,,,,,,,,,,,,,,,,,,,,,,,,,,,,,,,,,,,,,,,,,,,,
,,5fac2995bbe58415e0ac6a1e,2024-02-22_04h29.54.863,kallum_motion_pilot,2023.2.2,Win32,28.8184438,5fac2995bbe58415e0ac6a1e,65d6bb0e977760de756971f7,65d6bec2ab610f7bb580d5c4,0.0192,0.0192,0,145,145,51,1,twofour,,,,,,,,,,,,,,,,,,,,,,,,,,,,,,,,,,,,,,,,,,,,,,,,,,,,,,,,,,,,,,,,,,,,,,,,,,,,,,,,,,,,,,,,,,,,,,,,,,,,,,,,,,,,,,,,,,,,,,,,,,,,,,,,,,,,,,,,,
,,5fac2995bbe58415e0ac6a1e,2024-02-22_04h29.54.863,kallum_motion_pilot,2023.2.2,Win32,28.8184438,5fac2995bbe58415e0ac6a1e,65d6bb0e977760de756971f7,65d6bec2ab610f7bb580d5c4,0.0193,0.0193,0,146,146,79,1,eightseven,,,,,,,,,,,,,,,,,,,,,,,,,,,,,,,,,,,,,,,,,,,,,,,,,,,,,,,,,,,,,,,,,,,,,,,,,,,,,,,,,,,,,,,,,,,,,,,,,,,,,,,,,,,,,,,,,,,,,,,,,,,,,,,,,,,,,,,,,
,,5fac2995bbe58415e0ac6a1e,2024-02-22_04h29.54.863,kallum_motion_pilot,2023.2.2,Win32,28.8184438,5fac2995bbe58415e0ac6a1e,65d6bb0e977760de756971f7,65d6bec2ab610f7bb580d5c4,0.0193,0.0193,0,147,147,34,1,twoone,,,,,,,,,,,,,,,,,,,,,,,,,,,,,,,,,,,,,,,,,,,,,,,,,,,,,,,,,,,,,,,,,,,,,,,,,,,,,,,,,,,,,,,,,,,,,,,,,,,,,,,,,,,,,,,,,,,,,,,,,,,,,,,,,,,,,,,,,
,,5fac2995bbe58415e0ac6a1e,2024-02-22_04h29.54.863,kallum_motion_pilot,2023.2.2,Win32,28.8184438,5fac2995bbe58415e0ac6a1e,65d6bb0e977760de756971f7,65d6bec2ab610f7bb580d5c4,0.0194,0.0194,0,148,148,22,1,fourtwo,,,,,,,,,,,,,,,,,,,,,,,,,,,,,,,,,,,,,,,,,,,,,,,,,,,,,,,,,,,,,,,,,,,,,,,,,,,,,,,,,,,,,,,,,,,,,,,,,,,,,,,,,,,,,,,,,,,,,,,,,,,,,,,,,,,,,,,,,
,,5fac2995bbe58415e0ac6a1e,2024-02-22_04h29.54.863,kallum_motion_pilot,2023.2.2,Win32,28.8184438,5fac2995bbe58415e0ac6a1e,65d6bb0e977760de756971f7,65d6bec2ab610f7bb580d5c4,0.0194,0.0194,0,149,149,14,1,fourtwo,,,,,,,,,,,,,,,,,,,,,,,,,,,,,,,,,,,,,,,,,,,,,,,,,,,,,,,,,,,,,,,,,,,,,,,,,,,,,,,,,,,,,,,,,,,,,,,,,,,,,,,,,,,,,,,,,,,,,,,,,,,,,,,,,,,,,,,,,
,,5fac2995bbe58415e0ac6a1e,2024-02-22_04h29.54.863,kallum_motion_pilot,2023.2.2,Win32,28.8184438,5fac2995bbe58415e0ac6a1e,65d6bb0e977760de756971f7,65d6bec2ab610f7bb580d5c4,0.0194,0.0194,0,150,150,58,1,twoone,,,,,,,,,,,,,,,,,,,,,,,,,,,,,,,,,,,,,,,,,,,,,,,,,,,,,,,,,,,,,,,,,,,,,,,,,,,,,,,,,,,,,,,,,,,,,,,,,,,,,,,,,,,,,,,,,,,,,,,,,,,,,,,,,,,,,,,,,
,,5fac2995bbe58415e0ac6a1e,2024-02-22_04h29.54.863,kallum_motion_pilot,2023.2.2,Win32,28.8184438,5fac2995bbe58415e0ac6a1e,65d6bb0e977760de756971f7,65d6bec2ab610f7bb580d5c4,0.0194,0.0195,0,151,151,115,1,sixeight,,,,,,,,,,,,,,,,,,,,,,,,,,,,,,,,,,,,,,,,,,,,,,,,,,,,,,,,,,,,,,,,,,,,,,,,,,,,,,,,,,,,,,,,,,,,,,,,,,,,,,,,,,,,,,,,,,,,,,,,,,,,,,,,,,,,,,,,,
,,5fac2995bbe58415e0ac6a1e,2024-02-22_04h29.54.863,kallum_motion_pilot,2023.2.2,Win32,28.8184438,5fac2995bbe58415e0ac6a1e,65d6bb0e977760de756971f7,65d6bec2ab610f7bb580d5c4,0.0195,0.0195,0,152,152,42,1,twoone,,,,,,,,,,,,,,,,,,,,,,,,,,,,,,,,,,,,,,,,,,,,,,,,,,,,,,,,,,,,,,,,,,,,,,,,,,,,,,,,,,,,,,,,,,,,,,,,,,,,,,,,,,,,,,,,,,,,,,,,,,,,,,,,,,,,,,,,,
,,5fac2995bbe58415e0ac6a1e,2024-02-22_04h29.54.863,kallum_motion_pilot,2023.2.2,Win32,28.8184438,5fac2995bbe58415e0ac6a1e,65d6bb0e977760de756971f7,65d6bec2ab610f7bb580d5c4,0.0195,0.0195,0,153,153,103,1,eightseven,,,,,,,,,,,,,,,,,,,,,,,,,,,,,,,,,,,,,,,,,,,,,,,,,,,,,,,,,,,,,,,,,,,,,,,,,,,,,,,,,,,,,,,,,,,,,,,,,,,,,,,,,,,,,,,,,,,,,,,,,,,,,,,,,,,,,,,,,
,,5fac2995bbe58415e0ac6a1e,2024-02-22_04h29.54.863,kallum_motion_pilot,2023.2.2,Win32,28.8184438,5fac2995bbe58415e0ac6a1e,65d6bb0e977760de756971f7,65d6bec2ab610f7bb580d5c4,0.0195,0.0196,0,154,154,20,1,threeone,,,,,,,,,,,,,,,,,,,,,,,,,,,,,,,,,,,,,,,,,,,,,,,,,,,,,,,,,,,,,,,,,,,,,,,,,,,,,,,,,,,,,,,,,,,,,,,,,,,,,,,,,,,,,,,,,,,,,,,,,,,,,,,,,,,,,,,,,
,,5fac2995bbe58415e0ac6a1e,2024-02-22_04h29.54.863,kallum_motion_pilot,2023.2.2,Win32,28.8184438,5fac2995bbe58415e0ac6a1e,65d6bb0e977760de756971f7,65d6bec2ab610f7bb580d5c4,0.0196,0.0196,0,155,155,4,1,threeone,,,,,,,,,,,,,,,,,,,,,,,,,,,,,,,,,,,,,,,,,,,,,,,,,,,,,,,,,,,,,,,,,,,,,,,,,,,,,,,,,,,,,,,,,,,,,,,,,,,,,,,,,,,,,,,,,,,,,,,,,,,,,,,,,,,,,,,,,
,,5fac2995bbe58415e0ac6a1e,2024-02-22_04h29.54.863,kallum_motion_pilot,2023.2.2,Win32,28.8184438,5fac2995bbe58415e0ac6a1e,65d6bb0e977760de756971f7,65d6bec2ab610f7bb580d5c4,0.0196,0.0196,0,156,156,134,1,eightsix,,,,,,,,,,,,,,,,,,,,,,,,,,,,,,,,,,,,,,,,,,,,,,,,,,,,,,,,,,,,,,,,,,,,,,,,,,,,,,,,,,,,,,,,,,,,,,,,,,,,,,,,,,,,,,,,,,,,,,,,,,,,,,,,,,,,,,,,,
,,5fac2995bbe58415e0ac6a1e,2024-02-22_04h29.54.863,kallum_motion_pilot,2023.2.2,Win32,28.8184438,5fac2995bbe58415e0ac6a1e,65d6bb0e977760de756971f7,65d6bec2ab610f7bb580d5c4,0.0197,0.0197,0,157,157,136,1,fivesix,,,,,,,,,,,,,,,,,,,,,,,,,,,,,,,,,,,,,,,,,,,,,,,,,,,,,,,,,,,,,,,,,,,,,,,,,,,,,,,,,,,,,,,,,,,,,,,,,,,,,,,,,,,,,,,,,,,,,,,,,,,,,,,,,,,,,,,,,
,,5fac2995bbe58415e0ac6a1e,2024-02-22_04h29.54.863,kallum_motion_pilot,2023.2.2,Win32,28.8184438,5fac2995bbe58415e0ac6a1e,65d6bb0e977760de756971f7,65d6bec2ab610f7bb580d5c4,0.0197,0.0198,0,158,158,151,1,eightseven,,,,,,,,,,,,,,,,,,,,,,,,,,,,,,,,,,,,,,,,,,,,,,,,,,,,,,,,,,,,,,,,,,,,,,,,,,,,,,,,,,,,,,,,,,,,,,,,,,,,,,,,,,,,,,,,,,,,,,,,,,,,,,,,,,,,,,,,,
,,5fac2995bbe58415e0ac6a1e,2024-02-22_04h29.54.863,kallum_motion_pilot,2023.2.2,Win32,28.8184438,5fac2995bbe58415e0ac6a1e,65d6bb0e977760de756971f7,65d6bec2ab610f7bb580d5c4,0.0198,0.0198,0,159,159,13,1,threefour,,,,,,,,,,,,,,,,,,,,,,,,,,,,,,,,,,,,,,,,,,,,,,,,,,,,,,,,,,,,,,,,,,,,,,,,,,,,,,,,,,,,,,,,,,,,,,,,,,,,,,,,,,,,,,,,,,,,,,,,,,,,,,,,,,,,,,,,,
,,5fac2995bbe58415e0ac6a1e,2024-02-22_04h29.54.863,kallum_motion_pilot,2023.2.2,Win32,28.8184438,5fac2995bbe58415e0ac6a1e,65d6bb0e977760de756971f7,65d6bec2ab610f7bb580d5c4,0.0199,0.0199,0,160,160,19,1,twofour,,,,,,,,,,,,,,,,,,,,,,,,,,,,,,,,,,,,,,,,,,,,,,,,,,,,,,,,,,,,,,,,,,,,,,,,,,,,,,,,,,,,,,,,,,,,,,,,,,,,,,,,,,,,,,,,,,,,,,,,,,,,,,,,,,,,,,,,,
,,5fac2995bbe58415e0ac6a1e,2024-02-22_04h29.54.863,kallum_motion_pilot,2023.2.2,Win32,28.8184438,5fac2995bbe58415e0ac6a1e,65d6bb0e977760de756971f7,65d6bec2ab610f7bb580d5c4,0.0199,0.0199,0,161,161,159,1,eightseven,,,,,,,,,,,,,,,,,,,,,,,,,,,,,,,,,,,,,,,,,,,,,,,,,,,,,,,,,,,,,,,,,,,,,,,,,,,,,,,,,,,,,,,,,,,,,,,,,,,,,,,,,,,,,,,,,,,,,,,,,,,,,,,,,,,,,,,,,
,,5fac2995bbe58415e0ac6a1e,2024-02-22_04h29.54.863,kallum_motion_pilot,2023.2.2,Win32,28.8184438,5fac2995bbe58415e0ac6a1e,65d6bb0e977760de756971f7,65d6bec2ab610f7bb580d5c4,0.0199,0.0199,1,0,162,13,1,threefour,,,,,,,,,,,,,,,,,,,,,,,,,,,,,,,,,,,,,,,,,,,,,,,,,,,,,,,,,,,,,,,,,,,,,,,,,,,,,,,,,,,,,,,,,,,,,,,,,,,,,,,,,,,,,,,,,,,,,,,,,,,,,,,,,,,,,,,,,
,,5fac2995bbe58415e0ac6a1e,2024-02-22_04h29.54.863,kallum_motion_pilot,2023.2.2,Win32,28.8184438,5fac2995bbe58415e0ac6a1e,65d6bb0e977760de756971f7,65d6bec2ab610f7bb580d5c4,0.02,0.02,1,1,163,126,1,eightsix,,,,,,,,,,,,,,,,,,,,,,,,,,,,,,,,,,,,,,,,,,,,,,,,,,,,,,,,,,,,,,,,,,,,,,,,,,,,,,,,,,,,,,,,,,,,,,,,,,,,,,,,,,,,,,,,,,,,,,,,,,,,,,,,,,,,,,,,,
,,5fac2995bbe58415e0ac6a1e,2024-02-22_04h29.54.863,kallum_motion_pilot,2023.2.2,Win32,28.8184438,5fac2995bbe58415e0ac6a1e,65d6bb0e977760de756971f7,65d6bec2ab610f7bb580d5c4,0.02,0.02,1,2,164,59,1,twofour,,,,,,,,,,,,,,,,,,,,,,,,,,,,,,,,,,,,,,,,,,,,,,,,,,,,,,,,,,,,,,,,,,,,,,,,,,,,,,,,,,,,,,,,,,,,,,,,,,,,,,,,,,,,,,,,,,,,,,,,,,,,,,,,,,,,,,,,,
,,5fac2995bbe58415e0ac6a1e,2024-02-22_04h29.54.863,kallum_motion_pilot,2023.2.2,Win32,28.8184438,5fac2995bbe58415e0ac6a1e,65d6bb0e977760de756971f7,65d6bec2ab610f7bb580d5c4,0.0201,0.0201,1,3,165,35,1,twofour,,,,,,,,,,,,,,,,,,,,,,,,,,,,,,,,,,,,,,,,,,,,,,,,,,,,,,,,,,,,,,,,,,,,,,,,,,,,,,,,,,,,,,,,,,,,,,,,,,,,,,,,,,,,,,,,,,,,,,,,,,,,,,,,,,,,,,,,,
,,5fac2995bbe58415e0ac6a1e,2024-02-22_04h29.54.863,kallum_motion_pilot,2023.2.2,Win32,28.8184438,5fac2995bbe58415e0ac6a1e,65d6bb0e977760de756971f7,65d6bec2ab610f7bb580d5c4,0.0201,0.0201,1,4,166,64,1,onetwo,,,,,,,,,,,,,,,,,,,,,,,,,,,,,,,,,,,,,,,,,,,,,,,,,,,,,,,,,,,,,,,,,,,,,,,,,,,,,,,,,,,,,,,,,,,,,,,,,,,,,,,,,,,,,,,,,,,,,,,,,,,,,,,,,,,,,,,,,
,,5fac2995bbe58415e0ac6a1e,2024-02-22_04h29.54.863,kallum_motion_pilot,2023.2.2,Win32,28.8184438,5fac2995bbe58415e0ac6a1e,65d6bb0e977760de756971f7,65d6bec2ab610f7bb580d5c4,0.0202,0.0202,1,5,167,28,1,threeone,,,,,,,,,,,,,,,,,,,,,,,,,,,,,,,,,,,,,,,,,,,,,,,,,,,,,,,,,,,,,,,,,,,,,,,,,,,,,,,,,,,,,,,,,,,,,,,,,,,,,,,,,,,,,,,,,,,,,,,,,,,,,,,,,,,,,,,,,
,,5fac2995bbe58415e0ac6a1e,2024-02-22_04h29.54.863,kallum_motion_pilot,2023.2.2,Win32,28.8184438,5fac2995bbe58415e0ac6a1e,65d6bb0e977760de756971f7,65d6bec2ab610f7bb580d5c4,0.0203,0.0203,1,6,168,39,1,fourthree,,,,,,,,,,,,,,,,,,,,,,,,,,,,,,,,,,,,,,,,,,,,,,,,,,,,,,,,,,,,,,,,,,,,,,,,,,,,,,,,,,,,,,,,,,,,,,,,,,,,,,,,,,,,,,,,,,,,,,,,,,,,,,,,,,,,,,,,,
,,5fac2995bbe58415e0ac6a1e,2024-02-22_04h29.54.863,kallum_motion_pilot,2023.2.2,Win32,28.8184438,5fac2995bbe58415e0ac6a1e,65d6bb0e977760de756971f7,65d6bec2ab610f7bb580d5c4,0.0204,0.0204,1,7,169,21,1,threefour,,,,,,,,,,,,,,,,,,,,,,,,,,,,,,,,,,,,,,,,,,,,,,,,,,,,,,,,,,,,,,,,,,,,,,,,,,,,,,,,,,,,,,,,,,,,,,,,,,,,,,,,,,,,,,,,,,,,,,,,,,,,,,,,,,,,,,,,,
,,5fac2995bbe58415e0ac6a1e,2024-02-22_04h29.54.863,kallum_motion_pilot,2023.2.2,Win32,28.8184438,5fac2995bbe58415e0ac6a1e,65d6bb0e977760de756971f7,65d6bec2ab610f7bb580d5c4,0.0204,0.0204,1,8,170,66,1,twoone,,,,,,,,,,,,,,,,,,,,,,,,,,,,,,,,,,,,,,,,,,,,,,,,,,,,,,,,,,,,,,,,,,,,,,,,,,,,,,,,,,,,,,,,,,,,,,,,,,,,,,,,,,,,,,,,,,,,,,,,,,,,,,,,,,,,,,,,,
,,5fac2995bbe58415e0ac6a1e,2024-02-22_04h29.54.863,kallum_motion_pilot,2023.2.2,Win32,28.8184438,5fac2995bbe58415e0ac6a1e,65d6bb0e977760de756971f7,65d6bec2ab610f7bb580d5c4,0.0205,0.0205,1,9,171,96,1,fivesix,,,,,,,,,,,,,,,,,,,,,,,,,,,,,,,,,,,,,,,,,,,,,,,,,,,,,,,,,,,,,,,,,,,,,,,,,,,,,,,,,,,,,,,,,,,,,,,,,,,,,,,,,,,,,,,,,,,,,,,,,,,,,,,,,,,,,,,,,
,,5fac2995bbe58415e0ac6a1e,2024-02-22_04h29.54.863,kallum_motion_pilot,2023.2.2,Win32,28.8184438,5fac2995bbe58415e0ac6a1e,65d6bb0e977760de756971f7,65d6bec2ab610f7bb580d5c4,0.0205,0.0205,1,10,172,135,1,eightseven,,,,,,,,,,,,,,,,,,,,,,,,,,,,,,,,,,,,,,,,,,,,,,,,,,,,,,,,,,,,,,,,,,,,,,,,,,,,,,,,,,,,,,,,,,,,,,,,,,,,,,,,,,,,,,,,,,,,,,,,,,,,,,,,,,,,,,,,,
,,5fac2995bbe58415e0ac6a1e,2024-02-22_04h29.54.863,kallum_motion_pilot,2023.2.2,Win32,28.8184438,5fac2995bbe58415e0ac6a1e,65d6bb0e977760de756971f7,65d6bec2ab610f7bb580d5c4,0.0206,0.0206,1,11,173,3,1,twofour,,,,,,,,,,,,,,,,,,,,,,,,,,,,,,,,,,,,,,,,,,,,,,,,,,,,,,,,,,,,,,,,,,,,,,,,,,,,,,,,,,,,,,,,,,,,,,,,,,,,,,,,,,,,,,,,,,,,,,,,,,,,,,,,,,,,,,,,,
,,5fac2995bbe58415e0ac6a1e,2024-02-22_04h29.54.863,kallum_motion_pilot,2023.2.2,Win32,28.8184438,5fac2995bbe58415e0ac6a1e,65d6bb0e977760de756971f7,65d6bec2ab610f7bb580d5c4,0.0206,0.0206,1,12,174,143,1,eightseven,,,,,,,,,,,,,,,,,,,,,,,,,,,,,,,,,,,,,,,,,,,,,,,,,,,,,,,,,,,,,,,,,,,,,,,,,,,,,,,,,,,,,,,,,,,,,,,,,,,,,,,,,,,,,,,,,,,,,,,,,,,,,,,,,,,,,,,,,
,,5fac2995bbe58415e0ac6a1e,2024-02-22_04h29.54.863,kallum_motion_pilot,2023.2.2,Win32,28.8184438,5fac2995bbe58415e0ac6a1e,65d6bb0e977760de756971f7,65d6bec2ab610f7bb580d5c4,0.0206,0.0206,1,13,175,120,1,fivesix,,,,,,,,,,,,,,,,,,,,,,,,,,,,,,,,,,,,,,,,,,,,,,,,,,,,,,,,,,,,,,,,,,,,,,,,,,,,,,,,,,,,,,,,,,,,,,,,,,,,,,,,,,,,,,,,,,,,,,,,,,,,,,,,,,,,,,,,,
,,5fac2995bbe58415e0ac6a1e,2024-02-22_04h29.54.863,kallum_motion_pilot,2023.2.2,Win32,28.8184438,5fac2995bbe58415e0ac6a1e,65d6bb0e977760de756971f7,65d6bec2ab610f7bb580d5c4,0.0207,0.0207,1,14,176,24,1,onetwo,,,,,,,,,,,,,,,,,,,,,,,,,,,,,,,,,,,,,,,,,,,,,,,,,,,,,,,,,,,,,,,,,,,,,,,,,,,,,,,,,,,,,,,,,,,,,,,,,,,,,,,,,,,,,,,,,,,,,,,,,,,,,,,,,,,,,,,,,
,,5fac2995bbe58415e0ac6a1e,2024-02-22_04h29.54.863,kallum_motion_pilot,2023.2.2,Win32,28.8184438,5fac2995bbe58415e0ac6a1e,65d6bb0e977760de756971f7,65d6bec2ab610f7bb580d5c4,0.0207,0.0208,1,15,177,148,1,sevenfive,,,,,,,,,,,,,,,,,,,,,,,,,,,,,,,,,,,,,,,,,,,,,,,,,,,,,,,,,,,,,,,,,,,,,,,,,,,,,,,,,,,,,,,,,,,,,,,,,,,,,,,,,,,,,,,,,,,,,,,,,,,,,,,,,,,,,,,,,
,,5fac2995bbe58415e0ac6a1e,2024-02-22_04h29.54.863,kallum_motion_pilot,2023.2.2,Win32,28.8184438,5fac2995bbe58415e0ac6a1e,65d6bb0e977760de756971f7,65d6bec2ab610f7bb580d5c4,0.0208,0.0209,1,16,178,122,1,sixfive,,,,,,,,,,,,,,,,,,,,,,,,,,,,,,,,,,,,,,,,,,,,,,,,,,,,,,,,,,,,,,,,,,,,,,,,,,,,,,,,,,,,,,,,,,,,,,,,,,,,,,,,,,,,,,,,,,,,,,,,,,,,,,,,,,,,,,,,,
,,5fac2995bbe58415e0ac6a1e,2024-02-22_04h29.54.863,kallum_motion_pilot,2023.2.2,Win32,28.8184438,5fac2995bbe58415e0ac6a1e,65d6bb0e977760de756971f7,65d6bec2ab610f7bb580d5c4,0.0209,0.0209,1,17,179,55,1,fourthree,,,,,,,,,,,,,,,,,,,,,,,,,,,,,,,,,,,,,,,,,,,,,,,,,,,,,,,,,,,,,,,,,,,,,,,,,,,,,,,,,,,,,,,,,,,,,,,,,,,,,,,,,,,,,,,,,,,,,,,,,,,,,,,,,,,,,,,,,
,,5fac2995bbe58415e0ac6a1e,2024-02-22_04h29.54.863,kallum_motion_pilot,2023.2.2,Win32,28.8184438,5fac2995bbe58415e0ac6a1e,65d6bb0e977760de756971f7,65d6bec2ab610f7bb580d5c4,0.0209,0.0209,1,18,180,119,1,eightseven,,,,,,,,,,,,,,,,,,,,,,,,,,,,,,,,,,,,,,,,,,,,,,,,,,,,,,,,,,,,,,,,,,,,,,,,,,,,,,,,,,,,,,,,,,,,,,,,,,,,,,,,,,,,,,,,,,,,,,,,,,,,,,,,,,,,,,,,,
,,5fac2995bbe58415e0ac6a1e,2024-02-22_04h29.54.863,kallum_motion_pilot,2023.2.2,Win32,28.8184438,5fac2995bbe58415e0ac6a1e,65d6bb0e977760de756971f7,65d6bec2ab610f7bb580d5c4,0.021,0.021,1,19,181,22,1,fourtwo,,,,,,,,,,,,,,,,,,,,,,,,,,,,,,,,,,,,,,,,,,,,,,,,,,,,,,,,,,,,,,,,,,,,,,,,,,,,,,,,,,,,,,,,,,,,,,,,,,,,,,,,,,,,,,,,,,,,,,,,,,,,,,,,,,,,,,,,,
,,5fac2995bbe58415e0ac6a1e,2024-02-22_04h29.54.863,kallum_motion_pilot,2023.2.2,Win32,28.8184438,5fac2995bbe58415e0ac6a1e,65d6bb0e977760de756971f7,65d6bec2ab610f7bb580d5c4,0.021,0.0211,1,20,182,14,1,fourtwo,,,,,,,,,,,,,,,,,,,,,,,,,,,,,,,,,,,,,,,,,,,,,,,,,,,,,,,,,,,,,,,,,,,,,,,,,,,,,,,,,,,,,,,,,,,,,,,,,,,,,,,,,,,,,,,,,,,,,,,,,,,,,,,,,,,,,,,,,
,,5fac2995bbe58415e0ac6a1e,2024-02-22_04h29.54.863,kallum_motion_pilot,2023.2.2,Win32,28.8184438,5fac2995bbe58415e0ac6a1e,65d6bb0e977760de756971f7,65d6bec2ab610f7bb580d5c4,0.0211,0.0211,1,21,183,94,1,eightsix,,,,,,,,,,,,,,,,,,,,,,,,,,,,,,,,,,,,,,,,,,,,,,,,,,,,,,,,,,,,,,,,,,,,,,,,,,,,,,,,,,,,,,,,,,,,,,,,,,,,,,,,,,,,,,,,,,,,,,,,,,,,,,,,,,,,,,,,,
,,5fac2995bbe58415e0ac6a1e,2024-02-22_04h29.54.863,kallum_motion_pilot,2023.2.2,Win32,28.8184438,5fac2995bbe58415e0ac6a1e,65d6bb0e977760de756971f7,65d6bec2ab610f7bb580d5c4,0.0211,0.0211,1,22,184,25,1,onethree,,,,,,,,,,,,,,,,,,,,,,,,,,,,,,,,,,,,,,,,,,,,,,,,,,,,,,,,,,,,,,,,,,,,,,,,,,,,,,,,,,,,,,,,,,,,,,,,,,,,,,,,,,,,,,,,,,,,,,,,,,,,,,,,,,,,,,,,,
,,5fac2995bbe58415e0ac6a1e,2024-02-22_04h29.54.863,kallum_motion_pilot,2023.2.2,Win32,28.8184438,5fac2995bbe58415e0ac6a1e,65d6bb0e977760de756971f7,65d6bec2ab610f7bb580d5c4,0.0212,0.0212,1,23,185,54,1,fourtwo,,,,,,,,,,,,,,,,,,,,,,,,,,,,,,,,,,,,,,,,,,,,,,,,,,,,,,,,,,,,,,,,,,,,,,,,,,,,,,,,,,,,,,,,,,,,,,,,,,,,,,,,,,,,,,,,,,,,,,,,,,,,,,,,,,,,,,,,,
,,5fac2995bbe58415e0ac6a1e,2024-02-22_04h29.54.863,kallum_motion_pilot,2023.2.2,Win32,28.8184438,5fac2995bbe58415e0ac6a1e,65d6bb0e977760de756971f7,65d6bec2ab610f7bb580d5c4,0.0212,0.0212,1,24,186,115,1,sixeight,,,,,,,,,,,,,,,,,,,,,,,,,,,,,,,,,,,,,,,,,,,,,,,,,,,,,,,,,,,,,,,,,,,,,,,,,,,,,,,,,,,,,,,,,,,,,,,,,,,,,,,,,,,,,,,,,,,,,,,,,,,,,,,,,,,,,,,,,
,,5fac2995bbe58415e0ac6a1e,2024-02-22_04h29.54.863,kallum_motion_pilot,2023.2.2,Win32,28.8184438,5fac2995bbe58415e0ac6a1e,65d6bb0e977760de756971f7,65d6bec2ab610f7bb580d5c4,0.0212,0.0212,1,25,187,69,1,threefour,,,,,,,,,,,,,,,,,,,,,,,,,,,,,,,,,,,,,,,,,,,,,,,,,,,,,,,,,,,,,,,,,,,,,,,,,,,,,,,,,,,,,,,,,,,,,,,,,,,,,,,,,,,,,,,,,,,,,,,,,,,,,,,,,,,,,,,,,
,,5fac2995bbe58415e0ac6a1e,2024-02-22_04h29.54.863,kallum_motion_pilot,2023.2.2,Win32,28.8184438,5fac2995bbe58415e0ac6a1e,65d6bb0e977760de756971f7,65d6bec2ab610f7bb580d5c4,0.0213,0.0213,1,26,188,84,1,sevenfive,,,,,,,,,,,,,,,,,,,,,,,,,,,,,,,,,,,,,,,,,,,,,,,,,,,,,,,,,,,,,,,,,,,,,,,,,,,,,,,,,,,,,,,,,,,,,,,,,,,,,,,,,,,,,,,,,,,,,,,,,,,,,,,,,,,,,,,,,
,,5fac2995bbe58415e0ac6a1e,2024-02-22_04h29.54.863,kallum_motion_pilot,2023.2.2,Win32,28.8184438,5fac2995bbe58415e0ac6a1e,65d6bb0e977760de756971f7,65d6bec2ab610f7bb580d5c4,0.0213,0.0214,1,27,189,33,1,onethree,,,,,,,,,,,,,,,,,,,,,,,,,,,,,,,,,,,,,,,,,,,,,,,,,,,,,,,,,,,,,,,,,,,,,,,,,,,,,,,,,,,,,,,,,,,,,,,,,,,,,,,,,,,,,,,,,,,,,,,,,,,,,,,,,,,,,,,,,
,,5fac2995bbe58415e0ac6a1e,2024-02-22_04h29.54.863,kallum_motion_pilot,2023.2.2,Win32,28.8184438,5fac2995bbe58415e0ac6a1e,65d6bb0e977760de756971f7,65d6bec2ab610f7bb580d5c4,0.0214,0.0214,1,28,190,156,1,sevenfive,,,,,,,,,,,,,,,,,,,,,,,,,,,,,,,,,,,,,,,,,,,,,,,,,,,,,,,,,,,,,,,,,,,,,,,,,,,,,,,,,,,,,,,,,,,,,,,,,,,,,,,,,,,,,,,,,,,,,,,,,,,,,,,,,,,,,,,,,
,,5fac2995bbe58415e0ac6a1e,2024-02-22_04h29.54.863,kallum_motion_pilot,2023.2.2,Win32,28.8184438,5fac2995bbe58415e0ac6a1e,65d6bb0e977760de756971f7,65d6bec2ab610f7bb580d5c4,0.0215,0.0215,1,29,191,114,1,sixfive,,,,,,,,,,,,,,,,,,,,,,,,,,,,,,,,,,,,,,,,,,,,,,,,,,,,,,,,,,,,,,,,,,,,,,,,,,,,,,,,,,,,,,,,,,,,,,,,,,,,,,,,,,,,,,,,,,,,,,,,,,,,,,,,,,,,,,,,,
,,5fac2995bbe58415e0ac6a1e,2024-02-22_04h29.54.863,kallum_motion_pilot,2023.2.2,Win32,28.8184438,5fac2995bbe58415e0ac6a1e,65d6bb0e977760de756971f7,65d6bec2ab610f7bb580d5c4,0.0215,0.0216,1,30,192,102,1,eightsix,,,,,,,,,,,,,,,,,,,,,,,,,,,,,,,,,,,,,,,,,,,,,,,,,,,,,,,,,,,,,,,,,,,,,,,,,,,,,,,,,,,,,,,,,,,,,,,,,,,,,,,,,,,,,,,,,,,,,,,,,,,,,,,,,,,,,,,,,
,,5fac2995bbe58415e0ac6a1e,2024-02-22_04h29.54.863,kallum_motion_pilot,2023.2.2,Win32,28.8184438,5fac2995bbe58415e0ac6a1e,65d6bb0e977760de756971f7,65d6bec2ab610f7bb580d5c4,0.0216,0.0216,1,31,193,161,1,fiveseven,,,,,,,,,,,,,,,,,,,,,,,,,,,,,,,,,,,,,,,,,,,,,,,,,,,,,,,,,,,,,,,,,,,,,,,,,,,,,,,,,,,,,,,,,,,,,,,,,,,,,,,,,,,,,,,,,,,,,,,,,,,,,,,,,,,,,,,,,
,,5fac2995bbe58415e0ac6a1e,2024-02-22_04h29.54.863,kallum_motion_pilot,2023.2.2,Win32,28.8184438,5fac2995bbe58415e0ac6a1e,65d6bb0e977760de756971f7,65d6bec2ab610f7bb580d5c4,0.0217,0.0217,1,32,194,26,1,twoone,,,,,,,,,,,,,,,,,,,,,,,,,,,,,,,,,,,,,,,,,,,,,,,,,,,,,,,,,,,,,,,,,,,,,,,,,,,,,,,,,,,,,,,,,,,,,,,,,,,,,,,,,,,,,,,,,,,,,,,,,,,,,,,,,,,,,,,,,
,,5fac2995bbe58415e0ac6a1e,2024-02-22_04h29.54.863,kallum_motion_pilot,2023.2.2,Win32,28.8184438,5fac2995bbe58415e0ac6a1e,65d6bb0e977760de756971f7,65d6bec2ab610f7bb580d5c4,0.0217,0.0217,1,33,195,98,1,sixfive,,,,,,,,,,,,,,,,,,,,,,,,,,,,,,,,,,,,,,,,,,,,,,,,,,,,,,,,,,,,,,,,,,,,,,,,,,,,,,,,,,,,,,,,,,,,,,,,,,,,,,,,,,,,,,,,,,,,,,,,,,,,,,,,,,,,,,,,,
,,5fac2995bbe58415e0ac6a1e,2024-02-22_04h29.54.863,kallum_motion_pilot,2023.2.2,Win32,28.8184438,5fac2995bbe58415e0ac6a1e,65d6bb0e977760de756971f7,65d6bec2ab610f7bb580d5c4,0.0217,0.0217,1,34,196,134,1,eightsix,,,,,,,,,,,,,,,,,,,,,,,,,,,,,,,,,,,,,,,,,,,,,,,,,,,,,,,,,,,,,,,,,,,,,,,,,,,,,,,,,,,,,,,,,,,,,,,,,,,,,,,,,,,,,,,,,,,,,,,,,,,,,,,,,,,,,,,,,
,,5fac2995bbe58415e0ac6a1e,2024-02-22_04h29.54.863,kallum_motion_pilot,2023.2.2,Win32,28.8184438,5fac2995bbe58415e0ac6a1e,65d6bb0e977760de756971f7,65d6bec2ab610f7bb580d5c4,0.0218,0.0218,1,35,197,110,1,eightsix,,,,,,,,,,,,,,,,,,,,,,,,,,,,,,,,,,,,,,,,,,,,,,,,,,,,,,,,,,,,,,,,,,,,,,,,,,,,,,,,,,,,,,,,,,,,,,,,,,,,,,,,,,,,,,,,,,,,,,,,,,,,,,,,,,,,,,,,,
,,5fac2995bbe58415e0ac6a1e,2024-02-22_04h29.54.863,kallum_motion_pilot,2023.2.2,Win32,28.8184438,5fac2995bbe58415e0ac6a1e,65d6bb0e977760de756971f7,65d6bec2ab610f7bb580d5c4,0.0218,0.0218,1,36,198,118,1,eightsix,,,,,,,,,,,,,,,,,,,,,,,,,,,,,,,,,,,,,,,,,,,,,,,,,,,,,,,,,,,,,,,,,,,,,,,,,,,,,,,,,,,,,,,,,,,,,,,,,,,,,,,,,,,,,,,,,,,,,,,,,,,,,,,,,,,,,,,,,
,,5fac2995bbe58415e0ac6a1e,2024-02-22_04h29.54.863,kallum_motion_pilot,2023.2.2,Win32,28.8184438,5fac2995bbe58415e0ac6a1e,65d6bb0e977760de756971f7,65d6bec2ab610f7bb580d5c4,0.0219,0.0219,1,37,199,106,1,sixfive,,,,,,,,,,,,,,,,,,,,,,,,,,,,,,,,,,,,,,,,,,,,,,,,,,,,,,,,,,,,,,,,,,,,,,,,,,,,,,,,,,,,,,,,,,,,,,,,,,,,,,,,,,,,,,,,,,,,,,,,,,,,,,,,,,,,,,,,,
,,5fac2995bbe58415e0ac6a1e,2024-02-22_04h29.54.863,kallum_motion_pilot,2023.2.2,Win32,28.8184438,5fac2995bbe58415e0ac6a1e,65d6bb0e977760de756971f7,65d6bec2ab610f7bb580d5c4,0.0219,0.022,1,38,200,137,1,fiveseven,,,,,,,,,,,,,,,,,,,,,,,,,,,,,,,,,,,,,,,,,,,,,,,,,,,,,,,,,,,,,,,,,,,,,,,,,,,,,,,,,,,,,,,,,,,,,,,,,,,,,,,,,,,,,,,,,,,,,,,,,,,,,,,,,,,,,,,,,
,,5fac2995bbe58415e0ac6a1e,2024-02-22_04h29.54.863,kallum_motion_pilot,2023.2.2,Win32,28.8184438,5fac2995bbe58415e0ac6a1e,65d6bb0e977760de756971f7,65d6bec2ab610f7bb580d5c4,0.022,0.022,1,39,201,8,1,onetwo,,,,,,,,,,,,,,,,,,,,,,,,,,,,,,,,,,,,,,,,,,,,,,,,,,,,,,,,,,,,,,,,,,,,,,,,,,,,,,,,,,,,,,,,,,,,,,,,,,,,,,,,,,,,,,,,,,,,,,,,,,,,,,,,,,,,,,,,,
,,5fac2995bbe58415e0ac6a1e,2024-02-22_04h29.54.863,kallum_motion_pilot,2023.2.2,Win32,28.8184438,5fac2995bbe58415e0ac6a1e,65d6bb0e977760de756971f7,65d6bec2ab610f7bb580d5c4,0.0221,0.0221,1,40,202,104,1,fivesix,,,,,,,,,,,,,,,,,,,,,,,,,,,,,,,,,,,,,,,,,,,,,,,,,,,,,,,,,,,,,,,,,,,,,,,,,,,,,,,,,,,,,,,,,,,,,,,,,,,,,,,,,,,,,,,,,,,,,,,,,,,,,,,,,,,,,,,,,
,,5fac2995bbe58415e0ac6a1e,2024-02-22_04h29.54.863,kallum_motion_pilot,2023.2.2,Win32,28.8184438,5fac2995bbe58415e0ac6a1e,65d6bb0e977760de756971f7,65d6bec2ab610f7bb580d5c4,0.0221,0.0221,1,41,203,128,1,fivesix,,,,,,,,,,,,,,,,,,,,,,,,,,,,,,,,,,,,,,,,,,,,,,,,,,,,,,,,,,,,,,,,,,,,,,,,,,,,,,,,,,,,,,,,,,,,,,,,,,,,,,,,,,,,,,,,,,,,,,,,,,,,,,,,,,,,,,,,,
,,5fac2995bbe58415e0ac6a1e,2024-02-22_04h29.54.863,kallum_motion_pilot,2023.2.2,Win32,28.8184438,5fac2995bbe58415e0ac6a1e,65d6bb0e977760de756971f7,65d6bec2ab610f7bb580d5c4,0.0222,0.0222,1,42,204,132,1,sevenfive,,,,,,,,,,,,,,,,,,,,,,,,,,,,,,,,,,,,,,,,,,,,,,,,,,,,,,,,,,,,,,,,,,,,,,,,,,,,,,,,,,,,,,,,,,,,,,,,,,,,,,,,,,,,,,,,,,,,,,,,,,,,,,,,,,,,,,,,,
,,5fac2995bbe58415e0ac6a1e,2024-02-22_04h29.54.863,kallum_motion_pilot,2023.2.2,Win32,28.8184438,5fac2995bbe58415e0ac6a1e,65d6bb0e977760de756971f7,65d6bec2ab610f7bb580d5c4,0.0222,0.0223,1,43,205,46,1,fourtwo,,,,,,,,,,,,,,,,,,,,,,,,,,,,,,,,,,,,,,,,,,,,,,,,,,,,,,,,,,,,,,,,,,,,,,,,,,,,,,,,,,,,,,,,,,,,,,,,,,,,,,,,,,,,,,,,,,,,,,,,,,,,,,,,,,,,,,,,,
,,5fac2995bbe58415e0ac6a1e,2024-02-22_04h29.54.863,kallum_motion_pilot,2023.2.2,Win32,28.8184438,5fac2995bbe58415e0ac6a1e,65d6bb0e977760de756971f7,65d6bec2ab610f7bb580d5c4,0.0223,0.0223,1,44,206,140,1,sevenfive,,,,,,,,,,,,,,,,,,,,,,,,,,,,,,,,,,,,,,,,,,,,,,,,,,,,,,,,,,,,,,,,,,,,,,,,,,,,,,,,,,,,,,,,,,,,,,,,,,,,,,,,,,,,,,,,,,,,,,,,,,,,,,,,,,,,,,,,,
,,5fac2995bbe58415e0ac6a1e,2024-02-22_04h29.54.863,kallum_motion_pilot,2023.2.2,Win32,28.8184438,5fac2995bbe58415e0ac6a1e,65d6bb0e977760de756971f7,65d6bec2ab610f7bb580d5c4,0.0223,0.0223,1,45,207,72,1,onetwo,,,,,,,,,,,,,,,,,,,,,,,,,,,,,,,,,,,,,,,,,,,,,,,,,,,,,,,,,,,,,,,,,,,,,,,,,,,,,,,,,,,,,,,,,,,,,,,,,,,,,,,,,,,,,,,,,,,,,,,,,,,,,,,,,,,,,,,,,
,,5fac2995bbe58415e0ac6a1e,2024-02-22_04h29.54.863,kallum_motion_pilot,2023.2.2,Win32,28.8184438,5fac2995bbe58415e0ac6a1e,65d6bb0e977760de756971f7,65d6bec2ab610f7bb580d5c4,0.0223,0.0224,1,46,208,75,1,twofour,,,,,,,,,,,,,,,,,,,,,,,,,,,,,,,,,,,,,,,,,,,,,,,,,,,,,,,,,,,,,,,,,,,,,,,,,,,,,,,,,,,,,,,,,,,,,,,,,,,,,,,,,,,,,,,,,,,,,,,,,,,,,,,,,,,,,,,,,
,,5fac2995bbe58415e0ac6a1e,2024-02-22_04h29.54.863,kallum_motion_pilot,2023.2.2,Win32,28.8184438,5fac2995bbe58415e0ac6a1e,65d6bb0e977760de756971f7,65d6bec2ab610f7bb580d5c4,0.0224,0.0224,1,47,209,129,1,fiveseven,,,,,,,,,,,,,,,,,,,,,,,,,,,,,,,,,,,,,,,,,,,,,,,,,,,,,,,,,,,,,,,,,,,,,,,,,,,,,,,,,,,,,,,,,,,,,,,,,,,,,,,,,,,,,,,,,,,,,,,,,,,,,,,,,,,,,,,,,
,,5fac2995bbe58415e0ac6a1e,2024-02-22_04h29.54.863,kallum_motion_pilot,2023.2.2,Win32,28.8184438,5fac2995bbe58415e0ac6a1e,65d6bb0e977760de756971f7,65d6bec2ab610f7bb580d5c4,0.0224,0.0224,1,48,210,41,1,onethree,,,,,,,,,,,,,,,,,,,,,,,,,,,,,,,,,,,,,,,,,,,,,,,,,,,,,,,,,,,,,,,,,,,,,,,,,,,,,,,,,,,,,,,,,,,,,,,,,,,,,,,,,,,,,,,,,,,,,,,,,,,,,,,,,,,,,,,,,
,,5fac2995bbe58415e0ac6a1e,2024-02-22_04h29.54.863,kallum_motion_pilot,2023.2.2,Win32,28.8184438,5fac2995bbe58415e0ac6a1e,65d6bb0e977760de756971f7,65d6bec2ab610f7bb580d5c4,0.0225,0.0226,1,49,211,37,1,threefour,,,,,,,,,,,,,,,,,,,,,,,,,,,,,,,,,,,,,,,,,,,,,,,,,,,,,,,,,,,,,,,,,,,,,,,,,,,,,,,,,,,,,,,,,,,,,,,,,,,,,,,,,,,,,,,,,,,,,,,,,,,,,,,,,,,,,,,,,
,,5fac2995bbe58415e0ac6a1e,2024-02-22_04h29.54.863,kallum_motion_pilot,2023.2.2,Win32,28.8184438,5fac2995bbe58415e0ac6a1e,65d6bb0e977760de756971f7,65d6bec2ab610f7bb580d5c4,0.0226,0.0226,1,50,212,9,1,onethree,,,,,,,,,,,,,,,,,,,,,,,,,,,,,,,,,,,,,,,,,,,,,,,,,,,,,,,,,,,,,,,,,,,,,,,,,,,,,,,,,,,,,,,,,,,,,,,,,,,,,,,,,,,,,,,,,,,,,,,,,,,,,,,,,,,,,,,,,
,,5fac2995bbe58415e0ac6a1e,2024-02-22_04h29.54.863,kallum_motion_pilot,2023.2.2,Win32,28.8184438,5fac2995bbe58415e0ac6a1e,65d6bb0e977760de756971f7,65d6bec2ab610f7bb580d5c4,0.0226,0.0226,1,51,213,6,1,fourtwo,,,,,,,,,,,,,,,,,,,,,,,,,,,,,,,,,,,,,,,,,,,,,,,,,,,,,,,,,,,,,,,,,,,,,,,,,,,,,,,,,,,,,,,,,,,,,,,,,,,,,,,,,,,,,,,,,,,,,,,,,,,,,,,,,,,,,,,,,
,,5fac2995bbe58415e0ac6a1e,2024-02-22_04h29.54.863,kallum_motion_pilot,2023.2.2,Win32,28.8184438,5fac2995bbe58415e0ac6a1e,65d6bb0e977760de756971f7,65d6bec2ab610f7bb580d5c4,0.0226,0.0226,1,52,214,149,1,seveneight,,,,,,,,,,,,,,,,,,,,,,,,,,,,,,,,,,,,,,,,,,,,,,,,,,,,,,,,,,,,,,,,,,,,,,,,,,,,,,,,,,,,,,,,,,,,,,,,,,,,,,,,,,,,,,,,,,,,,,,,,,,,,,,,,,,,,,,,,
,,5fac2995bbe58415e0ac6a1e,2024-02-22_04h29.54.863,kallum_motion_pilot,2023.2.2,Win32,28.8184438,5fac2995bbe58415e0ac6a1e,65d6bb0e977760de756971f7,65d6bec2ab610f7bb580d5c4,0.0227,0.0228,1,53,215,70,1,fourtwo,,,,,,,,,,,,,,,,,,,,,,,,,,,,,,,,,,,,,,,,,,,,,,,,,,,,,,,,,,,,,,,,,,,,,,,,,,,,,,,,,,,,,,,,,,,,,,,,,,,,,,,,,,,,,,,,,,,,,,,,,,,,,,,,,,,,,,,,,
,,5fac2995bbe58415e0ac6a1e,2024-02-22_04h29.54.863,kallum_motion_pilot,2023.2.2,Win32,28.8184438,5fac2995bbe58415e0ac6a1e,65d6bb0e977760de756971f7,65d6bec2ab610f7bb580d5c4,0.0228,0.0228,1,54,216,142,1,eightsix,,,,,,,,,,,,,,,,,,,,,,,,,,,,,,,,,,,,,,,,,,,,,,,,,,,,,,,,,,,,,,,,,,,,,,,,,,,,,,,,,,,,,,,,,,,,,,,,,,,,,,,,,,,,,,,,,,,,,,,,,,,,,,,,,,,,,,,,,
,,5fac2995bbe58415e0ac6a1e,2024-02-22_04h29.54.863,kallum_motion_pilot,2023.2.2,Win32,28.8184438,5fac2995bbe58415e0ac6a1e,65d6bb0e977760de756971f7,65d6bec2ab610f7bb580d5c4,0.0228,0.0229,1,55,217,78,1,fourtwo,,,,,,,,,,,,,,,,,,,,,,,,,,,,,,,,,,,,,,,,,,,,,,,,,,,,,,,,,,,,,,,,,,,,,,,,,,,,,,,,,,,,,,,,,,,,,,,,,,,,,,,,,,,,,,,,,,,,,,,,,,,,,,,,,,,,,,,,,
,,5fac2995bbe58415e0ac6a1e,2024-02-22_04h29.54.863,kallum_motion_pilot,2023.2.2,Win32,28.8184438,5fac2995bbe58415e0ac6a1e,65d6bb0e977760de756971f7,65d6bec2ab610f7bb580d5c4,0.0229,0.0229,1,56,218,77,1,threefour,,,,,,,,,,,,,,,,,,,,,,,,,,,,,,,,,,,,,,,,,,,,,,,,,,,,,,,,,,,,,,,,,,,,,,,,,,,,,,,,,,,,,,,,,,,,,,,,,,,,,,,,,,,,,,,,,,,,,,,,,,,,,,,,,,,,,,,,,
,,5fac2995bbe58415e0ac6a1e,2024-02-22_04h29.54.863,kallum_motion_pilot,2023.2.2,Win32,28.8184438,5fac2995bbe58415e0ac6a1e,65d6bb0e977760de756971f7,65d6bec2ab610f7bb580d5c4,0.0229,0.0229,1,57,219,32,1,onetwo,,,,,,,,,,,,,,,,,,,,,,,,,,,,,,,,,,,,,,,,,,,,,,,,,,,,,,,,,,,,,,,,,,,,,,,,,,,,,,,,,,,,,,,,,,,,,,,,,,,,,,,,,,,,,,,,,,,,,,,,,,,,,,,,,,,,,,,,,
,,5fac2995bbe58415e0ac6a1e,2024-02-22_04h29.54.863,kallum_motion_pilot,2023.2.2,Win32,28.8184438,5fac2995bbe58415e0ac6a1e,65d6bb0e977760de756971f7,65d6bec2ab610f7bb580d5c4,0.023,0.023,1,58,220,136,1,fivesix,,,,,,,,,,,,,,,,,,,,,,,,,,,,,,,,,,,,,,,,,,,,,,,,,,,,,,,,,,,,,,,,,,,,,,,,,,,,,,,,,,,,,,,,,,,,,,,,,,,,,,,,,,,,,,,,,,,,,,,,,,,,,,,,,,,,,,,,,
,,5fac2995bbe58415e0ac6a1e,2024-02-22_04h29.54.863,kallum_motion_pilot,2023.2.2,Win32,28.8184438,5fac2995bbe58415e0ac6a1e,65d6bb0e977760de756971f7,65d6bec2ab610f7bb580d5c4,0.023,0.023,1,59,221,56,1,onetwo,,,,,,,,,,,,,,,,,,,,,,,,,,,,,,,,,,,,,,,,,,,,,,,,,,,,,,,,,,,,,,,,,,,,,,,,,,,,,,,,,,,,,,,,,,,,,,,,,,,,,,,,,,,,,,,,,,,,,,,,,,,,,,,,,,,,,,,,,
,,5fac2995bbe58415e0ac6a1e,2024-02-22_04h29.54.863,kallum_motion_pilot,2023.2.2,Win32,28.8184438,5fac2995bbe58415e0ac6a1e,65d6bb0e977760de756971f7,65d6bec2ab610f7bb580d5c4,0.023,0.0231,1,60,222,20,1,threeone,,,,,,,,,,,,,,,,,,,,,,,,,,,,,,,,,,,,,,,,,,,,,,,,,,,,,,,,,,,,,,,,,,,,,,,,,,,,,,,,,,,,,,,,,,,,,,,,,,,,,,,,,,,,,,,,,,,,,,,,,,,,,,,,,,,,,,,,,
,,5fac2995bbe58415e0ac6a1e,2024-02-22_04h29.54.863,kallum_motion_pilot,2023.2.2,Win32,28.8184438,5fac2995bbe58415e0ac6a1e,65d6bb0e977760de756971f7,65d6bec2ab610f7bb580d5c4,0.0232,0.0232,1,61,223,5,1,threefour,,,,,,,,,,,,,,,,,,,,,,,,,,,,,,,,,,,,,,,,,,,,,,,,,,,,,,,,,,,,,,,,,,,,,,,,,,,,,,,,,,,,,,,,,,,,,,,,,,,,,,,,,,,,,,,,,,,,,,,,,,,,,,,,,,,,,,,,,
,,5fac2995bbe58415e0ac6a1e,2024-02-22_04h29.54.863,kallum_motion_pilot,2023.2.2,Win32,28.8184438,5fac2995bbe58415e0ac6a1e,65d6bb0e977760de756971f7,65d6bec2ab610f7bb580d5c4,0.0232,0.0232,1,62,224,16,1,onetwo,,,,,,,,,,,,,,,,,,,,,,,,,,,,,,,,,,,,,,,,,,,,,,,,,,,,,,,,,,,,,,,,,,,,,,,,,,,,,,,,,,,,,,,,,,,,,,,,,,,,,,,,,,,,,,,,,,,,,,,,,,,,,,,,,,,,,,,,,
,,5fac2995bbe58415e0ac6a1e,2024-02-22_04h29.54.863,kallum_motion_pilot,2023.2.2,Win32,28.8184438,5fac2995bbe58415e0ac6a1e,65d6bb0e977760de756971f7,65d6bec2ab610f7bb580d5c4,0.0232,0.0232,1,63,225,147,1,sixeight,,,,,,,,,,,,,,,,,,,,,,,,,,,,,,,,,,,,,,,,,,,,,,,,,,,,,,,,,,,,,,,,,,,,,,,,,,,,,,,,,,,,,,,,,,,,,,,,,,,,,,,,,,,,,,,,,,,,,,,,,,,,,,,,,,,,,,,,,
,,5fac2995bbe58415e0ac6a1e,2024-02-22_04h29.54.863,kallum_motion_pilot,2023.2.2,Win32,28.8184438,5fac2995bbe58415e0ac6a1e,65d6bb0e977760de756971f7,65d6bec2ab610f7bb580d5c4,0.0233,0.0233,1,64,226,81,1,fiveseven,,,,,,,,,,,,,,,,,,,,,,,,,,,,,,,,,,,,,,,,,,,,,,,,,,,,,,,,,,,,,,,,,,,,,,,,,,,,,,,,,,,,,,,,,,,,,,,,,,,,,,,,,,,,,,,,,,,,,,,,,,,,,,,,,,,,,,,,,
,,5fac2995bbe58415e0ac6a1e,2024-02-22_04h29.54.863,kallum_motion_pilot,2023.2.2,Win32,28.8184438,5fac2995bbe58415e0ac6a1e,65d6bb0e977760de756971f7,65d6bec2ab610f7bb580d5c4,0.0233,0.0233,1,65,227,0,1,onetwo,,,,,,,,,,,,,,,,,,,,,,,,,,,,,,,,,,,,,,,,,,,,,,,,,,,,,,,,,,,,,,,,,,,,,,,,,,,,,,,,,,,,,,,,,,,,,,,,,,,,,,,,,,,,,,,,,,,,,,,,,,,,,,,,,,,,,,,,,
,,5fac2995bbe58415e0ac6a1e,2024-02-22_04h29.54.863,kallum_motion_pilot,2023.2.2,Win32,28.8184438,5fac2995bbe58415e0ac6a1e,65d6bb0e977760de756971f7,65d6bec2ab610f7bb580d5c4,0.0234,0.0234,1,66,228,87,1,eightseven,,,,,,,,,,,,,,,,,,,,,,,,,,,,,,,,,,,,,,,,,,,,,,,,,,,,,,,,,,,,,,,,,,,,,,,,,,,,,,,,,,,,,,,,,,,,,,,,,,,,,,,,,,,,,,,,,,,,,,,,,,,,,,,,,,,,,,,,,
,,5fac2995bbe58415e0ac6a1e,2024-02-22_04h29.54.863,kallum_motion_pilot,2023.2.2,Win32,28.8184438,5fac2995bbe58415e0ac6a1e,65d6bb0e977760de756971f7,65d6bec2ab610f7bb580d5c4,0.0235,0.0235,1,67,229,71,1,fourthree,,,,,,,,,,,,,,,,,,,,,,,,,,,,,,,,,,,,,,,,,,,,,,,,,,,,,,,,,,,,,,,,,,,,,,,,,,,,,,,,,,,,,,,,,,,,,,,,,,,,,,,,,,,,,,,,,,,,,,,,,,,,,,,,,,,,,,,,,
,,5fac2995bbe58415e0ac6a1e,2024-02-22_04h29.54.863,kallum_motion_pilot,2023.2.2,Win32,28.8184438,5fac2995bbe58415e0ac6a1e,65d6bb0e977760de756971f7,65d6bec2ab610f7bb580d5c4,0.0235,0.0236,1,68,230,125,1,seveneight,,,,,,,,,,,,,,,,,,,,,,,,,,,,,,,,,,,,,,,,,,,,,,,,,,,,,,,,,,,,,,,,,,,,,,,,,,,,,,,,,,,,,,,,,,,,,,,,,,,,,,,,,,,,,,,,,,,,,,,,,,,,,,,,,,,,,,,,,
,,5fac2995bbe58415e0ac6a1e,2024-02-22_04h29.54.863,kallum_motion_pilot,2023.2.2,Win32,28.8184438,5fac2995bbe58415e0ac6a1e,65d6bb0e977760de756971f7,65d6bec2ab610f7bb580d5c4,0.0236,0.0236,1,69,231,85,1,seveneight,,,,,,,,,,,,,,,,,,,,,,,,,,,,,,,,,,,,,,,,,,,,,,,,,,,,,,,,,,,,,,,,,,,,,,,,,,,,,,,,,,,,,,,,,,,,,,,,,,,,,,,,,,,,,,,,,,,,,,,,,,,,,,,,,,,,,,,,,
,,5fac2995bbe58415e0ac6a1e,2024-02-22_04h29.54.863,kallum_motion_pilot,2023.2.2,Win32,28.8184438,5fac2995bbe58415e0ac6a1e,65d6bb0e977760de756971f7,65d6bec2ab610f7bb580d5c4,0.0236,0.0236,1,70,232,123,1,sixeight,,,,,,,,,,,,,,,,,,,,,,,,,,,,,,,,,,,,,,,,,,,,,,,,,,,,,,,,,,,,,,,,,,,,,,,,,,,,,,,,,,,,,,,,,,,,,,,,,,,,,,,,,,,,,,,,,,,,,,,,,,,,,,,,,,,,,,,,,
,,5fac2995bbe58415e0ac6a1e,2024-02-22_04h29.54.863,kallum_motion_pilot,2023.2.2,Win32,28.8184438,5fac2995bbe58415e0ac6a1e,65d6bb0e977760de756971f7,65d6bec2ab610f7bb580d5c4,0.0236,0.0236,1,71,233,12,1,threeone,,,,,,,,,,,,,,,,,,,,,,,,,,,,,,,,,,,,,,,,,,,,,,,,,,,,,,,,,,,,,,,,,,,,,,,,,,,,,,,,,,,,,,,,,,,,,,,,,,,,,,,,,,,,,,,,,,,,,,,,,,,,,,,,,,,,,,,,,
,,5fac2995bbe58415e0ac6a1e,2024-02-22_04h29.54.863,kallum_motion_pilot,2023.2.2,Win32,28.8184438,5fac2995bbe58415e0ac6a1e,65d6bb0e977760de756971f7,65d6bec2ab610f7bb580d5c4,0.0237,0.0238,1,72,234,52,1,threeone,,,,,,,,,,,,,,,,,,,,,,,,,,,,,,,,,,,,,,,,,,,,,,,,,,,,,,,,,,,,,,,,,,,,,,,,,,,,,,,,,,,,,,,,,,,,,,,,,,,,,,,,,,,,,,,,,,,,,,,,,,,,,,,,,,,,,,,,,
,,5fac2995bbe58415e0ac6a1e,2024-02-22_04h29.54.863,kallum_motion_pilot,2023.2.2,Win32,28.8184438,5fac2995bbe58415e0ac6a1e,65d6bb0e977760de756971f7,65d6bec2ab610f7bb580d5c4,0.0238,0.0238,1,73,235,93,1,seveneight,,,,,,,,,,,,,,,,,,,,,,,,,,,,,,,,,,,,,,,,,,,,,,,,,,,,,,,,,,,,,,,,,,,,,,,,,,,,,,,,,,,,,,,,,,,,,,,,,,,,,,,,,,,,,,,,,,,,,,,,,,,,,,,,,,,,,,,,,
,,5fac2995bbe58415e0ac6a1e,2024-02-22_04h29.54.863,kallum_motion_pilot,2023.2.2,Win32,28.8184438,5fac2995bbe58415e0ac6a1e,65d6bb0e977760de756971f7,65d6bec2ab610f7bb580d5c4,0.0238,0.0238,1,74,236,159,1,eightseven,,,,,,,,,,,,,,,,,,,,,,,,,,,,,,,,,,,,,,,,,,,,,,,,,,,,,,,,,,,,,,,,,,,,,,,,,,,,,,,,,,,,,,,,,,,,,,,,,,,,,,,,,,,,,,,,,,,,,,,,,,,,,,,,,,,,,,,,,
,,5fac2995bbe58415e0ac6a1e,2024-02-22_04h29.54.863,kallum_motion_pilot,2023.2.2,Win32,28.8184438,5fac2995bbe58415e0ac6a1e,65d6bb0e977760de756971f7,65d6bec2ab610f7bb580d5c4,0.0239,0.0239,1,75,237,63,1,fourthree,,,,,,,,,,,,,,,,,,,,,,,,,,,,,,,,,,,,,,,,,,,,,,,,,,,,,,,,,,,,,,,,,,,,,,,,,,,,,,,,,,,,,,,,,,,,,,,,,,,,,,,,,,,,,,,,,,,,,,,,,,,,,,,,,,,,,,,,,
,,5fac2995bbe58415e0ac6a1e,2024-02-22_04h29.54.863,kallum_motion_pilot,2023.2.2,Win32,28.8184438,5fac2995bbe58415e0ac6a1e,65d6bb0e977760de756971f7,65d6bec2ab610f7bb580d5c4,0.0239,0.0239,1,76,238,141,1,seveneight,,,,,,,,,,,,,,,,,,,,,,,,,,,,,,,,,,,,,,,,,,,,,,,,,,,,,,,,,,,,,,,,,,,,,,,,,,,,,,,,,,,,,,,,,,,,,,,,,,,,,,,,,,,,,,,,,,,,,,,,,,,,,,,,,,,,,,,,,
,,5fac2995bbe58415e0ac6a1e,2024-02-22_04h29.54.863,kallum_motion_pilot,2023.2.2,Win32,28.8184438,5fac2995bbe58415e0ac6a1e,65d6bb0e977760de756971f7,65d6bec2ab610f7bb580d5c4,0.024,0.0241,1,77,239,154,1,sixfive,,,,,,,,,,,,,,,,,,,,,,,,,,,,,,,,,,,,,,,,,,,,,,,,,,,,,,,,,,,,,,,,,,,,,,,,,,,,,,,,,,,,,,,,,,,,,,,,,,,,,,,,,,,,,,,,,,,,,,,,,,,,,,,,,,,,,,,,,
,,5fac2995bbe58415e0ac6a1e,2024-02-22_04h29.54.863,kallum_motion_pilot,2023.2.2,Win32,28.8184438,5fac2995bbe58415e0ac6a1e,65d6bb0e977760de756971f7,65d6bec2ab610f7bb580d5c4,0.0241,0.0241,1,78,240,89,1,fiveseven,,,,,,,,,,,,,,,,,,,,,,,,,,,,,,,,,,,,,,,,,,,,,,,,,,,,,,,,,,,,,,,,,,,,,,,,,,,,,,,,,,,,,,,,,,,,,,,,,,,,,,,,,,,,,,,,,,,,,,,,,,,,,,,,,,,,,,,,,
,,5fac2995bbe58415e0ac6a1e,2024-02-22_04h29.54.863,kallum_motion_pilot,2023.2.2,Win32,28.8184438,5fac2995bbe58415e0ac6a1e,65d6bb0e977760de756971f7,65d6bec2ab610f7bb580d5c4,0.0242,0.0242,1,79,241,15,1,fourthree,,,,,,,,,,,,,,,,,,,,,,,,,,,,,,,,,,,,,,,,,,,,,,,,,,,,,,,,,,,,,,,,,,,,,,,,,,,,,,,,,,,,,,,,,,,,,,,,,,,,,,,,,,,,,,,,,,,,,,,,,,,,,,,,,,,,,,,,,
,,5fac2995bbe58415e0ac6a1e,2024-02-22_04h29.54.863,kallum_motion_pilot,2023.2.2,Win32,28.8184438,5fac2995bbe58415e0ac6a1e,65d6bb0e977760de756971f7,65d6bec2ab610f7bb580d5c4,0.0242,0.0242,1,80,242,83,1,sixeight,,,,,,,,,,,,,,,,,,,,,,,,,,,,,,,,,,,,,,,,,,,,,,,,,,,,,,,,,,,,,,,,,,,,,,,,,,,,,,,,,,,,,,,,,,,,,,,,,,,,,,,,,,,,,,,,,,,,,,,,,,,,,,,,,,,,,,,,,
,,5fac2995bbe58415e0ac6a1e,2024-02-22_04h29.54.863,kallum_motion_pilot,2023.2.2,Win32,28.8184438,5fac2995bbe58415e0ac6a1e,65d6bb0e977760de756971f7,65d6bec2ab610f7bb580d5c4,0.0243,0.0243,1,81,243,47,1,fourthree,,,,,,,,,,,,,,,,,,,,,,,,,,,,,,,,,,,,,,,,,,,,,,,,,,,,,,,,,,,,,,,,,,,,,,,,,,,,,,,,,,,,,,,,,,,,,,,,,,,,,,,,,,,,,,,,,,,,,,,,,,,,,,,,,,,,,,,,,
,,5fac2995bbe58415e0ac6a1e,2024-02-22_04h29.54.863,kallum_motion_pilot,2023.2.2,Win32,28.8184438,5fac2995bbe58415e0ac6a1e,65d6bb0e977760de756971f7,65d6bec2ab610f7bb580d5c4,0.0244,0.0244,1,82,244,50,1,twoone,,,,,,,,,,,,,,,,,,,,,,,,,,,,,,,,,,,,,,,,,,,,,,,,,,,,,,,,,,,,,,,,,,,,,,,,,,,,,,,,,,,,,,,,,,,,,,,,,,,,,,,,,,,,,,,,,,,,,,,,,,,,,,,,,,,,,,,,,
,,5fac2995bbe58415e0ac6a1e,2024-02-22_04h29.54.863,kallum_motion_pilot,2023.2.2,Win32,28.8184438,5fac2995bbe58415e0ac6a1e,65d6bb0e977760de756971f7,65d6bec2ab610f7bb580d5c4,0.0244,0.0245,1,83,245,29,1,threefour,,,,,,,,,,,,,,,,,,,,,,,,,,,,,,,,,,,,,,,,,,,,,,,,,,,,,,,,,,,,,,,,,,,,,,,,,,,,,,,,,,,,,,,,,,,,,,,,,,,,,,,,,,,,,,,,,,,,,,,,,,,,,,,,,,,,,,,,,
,,5fac2995bbe58415e0ac6a1e,2024-02-22_04h29.54.863,kallum_motion_pilot,2023.2.2,Win32,28.8184438,5fac2995bbe58415e0ac6a1e,65d6bb0e977760de756971f7,65d6bec2ab610f7bb580d5c4,0.0245,0.0245,1,84,246,92,1,sevenfive,,,,,,,,,,,,,,,,,,,,,,,,,,,,,,,,,,,,,,,,,,,,,,,,,,,,,,,,,,,,,,,,,,,,,,,,,,,,,,,,,,,,,,,,,,,,,,,,,,,,,,,,,,,,,,,,,,,,,,,,,,,,,,,,,,,,,,,,,
,,5fac2995bbe58415e0ac6a1e,2024-02-22_04h29.54.863,kallum_motion_pilot,2023.2.2,Win32,28.8184438,5fac2995bbe58415e0ac6a1e,65d6bb0e977760de756971f7,65d6bec2ab610f7bb580d5c4,0.0246,0.0246,1,85,247,42,1,twoone,,,,,,,,,,,,,,,,,,,,,,,,,,,,,,,,,,,,,,,,,,,,,,,,,,,,,,,,,,,,,,,,,,,,,,,,,,,,,,,,,,,,,,,,,,,,,,,,,,,,,,,,,,,,,,,,,,,,,,,,,,,,,,,,,,,,,,,,,
,,5fac2995bbe58415e0ac6a1e,2024-02-22_04h29.54.863,kallum_motion_pilot,2023.2.2,Win32,28.8184438,5fac2995bbe58415e0ac6a1e,65d6bb0e977760de756971f7,65d6bec2ab610f7bb580d5c4,0.0246,0.0246,1,86,248,19,1,twofour,,,,,,,,,,,,,,,,,,,,,,,,,,,,,,,,,,,,,,,,,,,,,,,,,,,,,,,,,,,,,,,,,,,,,,,,,,,,,,,,,,,,,,,,,,,,,,,,,,,,,,,,,,,,,,,,,,,,,,,,,,,,,,,,,,,,,,,,,
,,5fac2995bbe58415e0ac6a1e,2024-02-22_04h29.54.863,kallum_motion_pilot,2023.2.2,Win32,28.8184438,5fac2995bbe58415e0ac6a1e,65d6bb0e977760de756971f7,65d6bec2ab610f7bb580d5c4,0.0247,0.0247,1,87,249,23,1,fourthree,,,,,,,,,,,,,,,,,,,,,,,,,,,,,,,,,,,,,,,,,,,,,,,,,,,,,,,,,,,,,,,,,,,,,,,,,,,,,,,,,,,,,,,,,,,,,,,,,,,,,,,,,,,,,,,,,,,,,,,,,,,,,,,,,,,,,,,,,
,,5fac2995bbe58415e0ac6a1e,2024-02-22_04h29.54.863,kallum_motion_pilot,2023.2.2,Win32,28.8184438,5fac2995bbe58415e0ac6a1e,65d6bb0e977760de756971f7,65d6bec2ab610f7bb580d5c4,0.0247,0.0248,1,88,250,44,1,threeone,,,,,,,,,,,,,,,,,,,,,,,,,,,,,,,,,,,,,,,,,,,,,,,,,,,,,,,,,,,,,,,,,,,,,,,,,,,,,,,,,,,,,,,,,,,,,,,,,,,,,,,,,,,,,,,,,,,,,,,,,,,,,,,,,,,,,,,,,
,,5fac2995bbe58415e0ac6a1e,2024-02-22_04h29.54.863,kallum_motion_pilot,2023.2.2,Win32,28.8184438,5fac2995bbe58415e0ac6a1e,65d6bb0e977760de756971f7,65d6bec2ab610f7bb580d5c4,0.0248,0.0249,1,89,251,34,1,twoone,,,,,,,,,,,,,,,,,,,,,,,,,,,,,,,,,,,,,,,,,,,,,,,,,,,,,,,,,,,,,,,,,,,,,,,,,,,,,,,,,,,,,,,,,,,,,,,,,,,,,,,,,,,,,,,,,,,,,,,,,,,,,,,,,,,,,,,,,
,,5fac2995bbe58415e0ac6a1e,2024-02-22_04h29.54.863,kallum_motion_pilot,2023.2.2,Win32,28.8184438,5fac2995bbe58415e0ac6a1e,65d6bb0e977760de756971f7,65d6bec2ab610f7bb580d5c4,0.0249,0.0249,1,90,252,82,1,sixfive,,,,,,,,,,,,,,,,,,,,,,,,,,,,,,,,,,,,,,,,,,,,,,,,,,,,,,,,,,,,,,,,,,,,,,,,,,,,,,,,,,,,,,,,,,,,,,,,,,,,,,,,,,,,,,,,,,,,,,,,,,,,,,,,,,,,,,,,,
,,5fac2995bbe58415e0ac6a1e,2024-02-22_04h29.54.863,kallum_motion_pilot,2023.2.2,Win32,28.8184438,5fac2995bbe58415e0ac6a1e,65d6bb0e977760de756971f7,65d6bec2ab610f7bb580d5c4,0.0249,0.0249,1,91,253,108,1,sevenfive,,,,,,,,,,,,,,,,,,,,,,,,,,,,,,,,,,,,,,,,,,,,,,,,,,,,,,,,,,,,,,,,,,,,,,,,,,,,,,,,,,,,,,,,,,,,,,,,,,,,,,,,,,,,,,,,,,,,,,,,,,,,,,,,,,,,,,,,,
,,5fac2995bbe58415e0ac6a1e,2024-02-22_04h29.54.863,kallum_motion_pilot,2023.2.2,Win32,28.8184438,5fac2995bbe58415e0ac6a1e,65d6bb0e977760de756971f7,65d6bec2ab610f7bb580d5c4,0.0249,0.025,1,92,254,160,1,fivesix,,,,,,,,,,,,,,,,,,,,,,,,,,,,,,,,,,,,,,,,,,,,,,,,,,,,,,,,,,,,,,,,,,,,,,,,,,,,,,,,,,,,,,,,,,,,,,,,,,,,,,,,,,,,,,,,,,,,,,,,,,,,,,,,,,,,,,,,,
,,5fac2995bbe58415e0ac6a1e,2024-02-22_04h29.54.863,kallum_motion_pilot,2023.2.2,Win32,28.8184438,5fac2995bbe58415e0ac6a1e,65d6bb0e977760de756971f7,65d6bec2ab610f7bb580d5c4,0.0251,0.0251,1,93,255,88,1,fivesix,,,,,,,,,,,,,,,,,,,,,,,,,,,,,,,,,,,,,,,,,,,,,,,,,,,,,,,,,,,,,,,,,,,,,,,,,,,,,,,,,,,,,,,,,,,,,,,,,,,,,,,,,,,,,,,,,,,,,,,,,,,,,,,,,,,,,,,,,
,,5fac2995bbe58415e0ac6a1e,2024-02-22_04h29.54.863,kallum_motion_pilot,2023.2.2,Win32,28.8184438,5fac2995bbe58415e0ac6a1e,65d6bb0e977760de756971f7,65d6bec2ab610f7bb580d5c4,0.0252,0.0252,1,94,256,109,1,seveneight,,,,,,,,,,,,,,,,,,,,,,,,,,,,,,,,,,,,,,,,,,,,,,,,,,,,,,,,,,,,,,,,,,,,,,,,,,,,,,,,,,,,,,,,,,,,,,,,,,,,,,,,,,,,,,,,,,,,,,,,,,,,,,,,,,,,,,,,,
,,5fac2995bbe58415e0ac6a1e,2024-02-22_04h29.54.863,kallum_motion_pilot,2023.2.2,Win32,28.8184438,5fac2995bbe58415e0ac6a1e,65d6bb0e977760de756971f7,65d6bec2ab610f7bb580d5c4,0.0253,0.0253,1,95,257,145,1,fiveseven,,,,,,,,,,,,,,,,,,,,,,,,,,,,,,,,,,,,,,,,,,,,,,,,,,,,,,,,,,,,,,,,,,,,,,,,,,,,,,,,,,,,,,,,,,,,,,,,,,,,,,,,,,,,,,,,,,,,,,,,,,,,,,,,,,,,,,,,,
,,5fac2995bbe58415e0ac6a1e,2024-02-22_04h29.54.863,kallum_motion_pilot,2023.2.2,Win32,28.8184438,5fac2995bbe58415e0ac6a1e,65d6bb0e977760de756971f7,65d6bec2ab610f7bb580d5c4,0.0253,0.0254,1,96,258,139,1,sixeight,,,,,,,,,,,,,,,,,,,,,,,,,,,,,,,,,,,,,,,,,,,,,,,,,,,,,,,,,,,,,,,,,,,,,,,,,,,,,,,,,,,,,,,,,,,,,,,,,,,,,,,,,,,,,,,,,,,,,,,,,,,,,,,,,,,,,,,,,
,,5fac2995bbe58415e0ac6a1e,2024-02-22_04h29.54.863,kallum_motion_pilot,2023.2.2,Win32,28.8184438,5fac2995bbe58415e0ac6a1e,65d6bb0e977760de756971f7,65d6bec2ab610f7bb580d5c4,0.0254,0.0255,1,97,259,76,1,threeone,,,,,,,,,,,,,,,,,,,,,,,,,,,,,,,,,,,,,,,,,,,,,,,,,,,,,,,,,,,,,,,,,,,,,,,,,,,,,,,,,,,,,,,,,,,,,,,,,,,,,,,,,,,,,,,,,,,,,,,,,,,,,,,,,,,,,,,,,
,,5fac2995bbe58415e0ac6a1e,2024-02-22_04h29.54.863,kallum_motion_pilot,2023.2.2,Win32,28.8184438,5fac2995bbe58415e0ac6a1e,65d6bb0e977760de756971f7,65d6bec2ab610f7bb580d5c4,0.0255,0.0255,1,98,260,40,1,onetwo,,,,,,,,,,,,,,,,,,,,,,,,,,,,,,,,,,,,,,,,,,,,,,,,,,,,,,,,,,,,,,,,,,,,,,,,,,,,,,,,,,,,,,,,,,,,,,,,,,,,,,,,,,,,,,,,,,,,,,,,,,,,,,,,,,,,,,,,,
,,5fac2995bbe58415e0ac6a1e,2024-02-22_04h29.54.863,kallum_motion_pilot,2023.2.2,Win32,28.8184438,5fac2995bbe58415e0ac6a1e,65d6bb0e977760de756971f7,65d6bec2ab610f7bb580d5c4,0.0255,0.0255,1,99,261,51,1,twofour,,,,,,,,,,,,,,,,,,,,,,,,,,,,,,,,,,,,,,,,,,,,,,,,,,,,,,,,,,,,,,,,,,,,,,,,,,,,,,,,,,,,,,,,,,,,,,,,,,,,,,,,,,,,,,,,,,,,,,,,,,,,,,,,,,,,,,,,,
,,5fac2995bbe58415e0ac6a1e,2024-02-22_04h29.54.863,kallum_motion_pilot,2023.2.2,Win32,28.8184438,5fac2995bbe58415e0ac6a1e,65d6bb0e977760de756971f7,65d6bec2ab610f7bb580d5c4,0.0255,0.0256,1,100,262,48,1,onetwo,,,,,,,,,,,,,,,,,,,,,,,,,,,,,,,,,,,,,,,,,,,,,,,,,,,,,,,,,,,,,,,,,,,,,,,,,,,,,,,,,,,,,,,,,,,,,,,,,,,,,,,,,,,,,,,,,,,,,,,,,,,,,,,,,,,,,,,,,
,,5fac2995bbe58415e0ac6a1e,2024-02-22_04h29.54.863,kallum_motion_pilot,2023.2.2,Win32,28.8184438,5fac2995bbe58415e0ac6a1e,65d6bb0e977760de756971f7,65d6bec2ab610f7bb580d5c4,0.0257,0.0257,1,101,263,100,1,sevenfive,,,,,,,,,,,,,,,,,,,,,,,,,,,,,,,,,,,,,,,,,,,,,,,,,,,,,,,,,,,,,,,,,,,,,,,,,,,,,,,,,,,,,,,,,,,,,,,,,,,,,,,,,,,,,,,,,,,,,,,,,,,,,,,,,,,,,,,,,
,,5fac2995bbe58415e0ac6a1e,2024-02-22_04h29.54.863,kallum_motion_pilot,2023.2.2,Win32,28.8184438,5fac2995bbe58415e0ac6a1e,65d6bb0e977760de756971f7,65d6bec2ab610f7bb580d5c4,0.0257,0.0257,1,102,264,103,1,eightseven,,,,,,,,,,,,,,,,,,,,,,,,,,,,,,,,,,,,,,,,,,,,,,,,,,,,,,,,,,,,,,,,,,,,,,,,,,,,,,,,,,,,,,,,,,,,,,,,,,,,,,,,,,,,,,,,,,,,,,,,,,,,,,,,,,,,,,,,,
,,5fac2995bbe58415e0ac6a1e,2024-02-22_04h29.54.863,kallum_motion_pilot,2023.2.2,Win32,28.8184438,5fac2995bbe58415e0ac6a1e,65d6bb0e977760de756971f7,65d6bec2ab610f7bb580d5c4,0.0257,0.0258,1,103,265,97,1,fiveseven,,,,,,,,,,,,,,,,,,,,,,,,,,,,,,,,,,,,,,,,,,,,,,,,,,,,,,,,,,,,,,,,,,,,,,,,,,,,,,,,,,,,,,,,,,,,,,,,,,,,,,,,,,,,,,,,,,,,,,,,,,,,,,,,,,,,,,,,,
,,5fac2995bbe58415e0ac6a1e,2024-02-22_04h29.54.863,kallum_motion_pilot,2023.2.2,Win32,28.8184438,5fac2995bbe58415e0ac6a1e,65d6bb0e977760de756971f7,65d6bec2ab610f7bb580d5c4,0.0258,0.0258,1,104,266,151,1,eightseven,,,,,,,,,,,,,,,,,,,,,,,,,,,,,,,,,,,,,,,,,,,,,,,,,,,,,,,,,,,,,,,,,,,,,,,,,,,,,,,,,,,,,,,,,,,,,,,,,,,,,,,,,,,,,,,,,,,,,,,,,,,,,,,,,,,,,,,,,
,,5fac2995bbe58415e0ac6a1e,2024-02-22_04h29.54.863,kallum_motion_pilot,2023.2.2,Win32,28.8184438,5fac2995bbe58415e0ac6a1e,65d6bb0e977760de756971f7,65d6bec2ab610f7bb580d5c4,0.0259,0.0259,1,105,267,155,1,sixeight,,,,,,,,,,,,,,,,,,,,,,,,,,,,,,,,,,,,,,,,,,,,,,,,,,,,,,,,,,,,,,,,,,,,,,,,,,,,,,,,,,,,,,,,,,,,,,,,,,,,,,,,,,,,,,,,,,,,,,,,,,,,,,,,,,,,,,,,,
,,5fac2995bbe58415e0ac6a1e,2024-02-22_04h29.54.863,kallum_motion_pilot,2023.2.2,Win32,28.8184438,5fac2995bbe58415e0ac6a1e,65d6bb0e977760de756971f7,65d6bec2ab610f7bb580d5c4,0.0259,0.026,1,106,268,18,1,twoone,,,,,,,,,,,,,,,,,,,,,,,,,,,,,,,,,,,,,,,,,,,,,,,,,,,,,,,,,,,,,,,,,,,,,,,,,,,,,,,,,,,,,,,,,,,,,,,,,,,,,,,,,,,,,,,,,,,,,,,,,,,,,,,,,,,,,,,,,
,,5fac2995bbe58415e0ac6a1e,2024-02-22_04h29.54.863,kallum_motion_pilot,2023.2.2,Win32,28.8184438,5fac2995bbe58415e0ac6a1e,65d6bb0e977760de756971f7,65d6bec2ab610f7bb580d5c4,0.026,0.0261,1,107,269,144,1,fivesix,,,,,,,,,,,,,,,,,,,,,,,,,,,,,,,,,,,,,,,,,,,,,,,,,,,,,,,,,,,,,,,,,,,,,,,,,,,,,,,,,,,,,,,,,,,,,,,,,,,,,,,,,,,,,,,,,,,,,,,,,,,,,,,,,,,,,,,,,
,,5fac2995bbe58415e0ac6a1e,2024-02-22_04h29.54.863,kallum_motion_pilot,2023.2.2,Win32,28.8184438,5fac2995bbe58415e0ac6a1e,65d6bb0e977760de756971f7,65d6bec2ab610f7bb580d5c4,0.0261,0.0261,1,108,270,124,1,sevenfive,,,,,,,,,,,,,,,,,,,,,,,,,,,,,,,,,,,,,,,,,,,,,,,,,,,,,,,,,,,,,,,,,,,,,,,,,,,,,,,,,,,,,,,,,,,,,,,,,,,,,,,,,,,,,,,,,,,,,,,,,,,,,,,,,,,,,,,,,
,,5fac2995bbe58415e0ac6a1e,2024-02-22_04h29.54.863,kallum_motion_pilot,2023.2.2,Win32,28.8184438,5fac2995bbe58415e0ac6a1e,65d6bb0e977760de756971f7,65d6bec2ab610f7bb580d5c4,0.0262,0.0263,1,109,271,45,1,threefour,,,,,,,,,,,,,,,,,,,,,,,,,,,,,,,,,,,,,,,,,,,,,,,,,,,,,,,,,,,,,,,,,,,,,,,,,,,,,,,,,,,,,,,,,,,,,,,,,,,,,,,,,,,,,,,,,,,,,,,,,,,,,,,,,,,,,,,,,
,,5fac2995bbe58415e0ac6a1e,2024-02-22_04h29.54.863,kallum_motion_pilot,2023.2.2,Win32,28.8184438,5fac2995bbe58415e0ac6a1e,65d6bb0e977760de756971f7,65d6bec2ab610f7bb580d5c4,0.0263,0.0263,1,110,272,57,1,onethree,,,,,,,,,,,,,,,,,,,,,,,,,,,,,,,,,,,,,,,,,,,,,,,,,,,,,,,,,,,,,,,,,,,,,,,,,,,,,,,,,,,,,,,,,,,,,,,,,,,,,,,,,,,,,,,,,,,,,,,,,,,,,,,,,,,,,,,,,
,,5fac2995bbe58415e0ac6a1e,2024-02-22_04h29.54.863,kallum_motion_pilot,2023.2.2,Win32,28.8184438,5fac2995bbe58415e0ac6a1e,65d6bb0e977760de756971f7,65d6bec2ab610f7bb580d5c4,0.0263,0.0263,1,111,273,107,1,sixeight,,,,,,,,,,,,,,,,,,,,,,,,,,,,,,,,,,,,,,,,,,,,,,,,,,,,,,,,,,,,,,,,,,,,,,,,,,,,,,,,,,,,,,,,,,,,,,,,,,,,,,,,,,,,,,,,,,,,,,,,,,,,,,,,,,,,,,,,,
,,5fac2995bbe58415e0ac6a1e,2024-02-22_04h29.54.863,kallum_motion_pilot,2023.2.2,Win32,28.8184438,5fac2995bbe58415e0ac6a1e,65d6bb0e977760de756971f7,65d6bec2ab610f7bb580d5c4,0.0264,0.0264,1,112,274,152,1,fivesix,,,,,,,,,,,,,,,,,,,,,,,,,,,,,,,,,,,,,,,,,,,,,,,,,,,,,,,,,,,,,,,,,,,,,,,,,,,,,,,,,,,,,,,,,,,,,,,,,,,,,,,,,,,,,,,,,,,,,,,,,,,,,,,,,,,,,,,,,
,,5fac2995bbe58415e0ac6a1e,2024-02-22_04h29.54.863,kallum_motion_pilot,2023.2.2,Win32,28.8184438,5fac2995bbe58415e0ac6a1e,65d6bb0e977760de756971f7,65d6bec2ab610f7bb580d5c4,0.0264,0.0264,1,113,275,116,1,sevenfive,,,,,,,,,,,,,,,,,,,,,,,,,,,,,,,,,,,,,,,,,,,,,,,,,,,,,,,,,,,,,,,,,,,,,,,,,,,,,,,,,,,,,,,,,,,,,,,,,,,,,,,,,,,,,,,,,,,,,,,,,,,,,,,,,,,,,,,,,
,,5fac2995bbe58415e0ac6a1e,2024-02-22_04h29.54.863,kallum_motion_pilot,2023.2.2,Win32,28.8184438,5fac2995bbe58415e0ac6a1e,65d6bb0e977760de756971f7,65d6bec2ab610f7bb580d5c4,0.0265,0.0265,1,114,276,43,1,twofour,,,,,,,,,,,,,,,,,,,,,,,,,,,,,,,,,,,,,,,,,,,,,,,,,,,,,,,,,,,,,,,,,,,,,,,,,,,,,,,,,,,,,,,,,,,,,,,,,,,,,,,,,,,,,,,,,,,,,,,,,,,,,,,,,,,,,,,,,
,,5fac2995bbe58415e0ac6a1e,2024-02-22_04h29.54.863,kallum_motion_pilot,2023.2.2,Win32,28.8184438,5fac2995bbe58415e0ac6a1e,65d6bb0e977760de756971f7,65d6bec2ab610f7bb580d5c4,0.0265,0.0265,1,115,277,36,1,threeone,,,,,,,,,,,,,,,,,,,,,,,,,,,,,,,,,,,,,,,,,,,,,,,,,,,,,,,,,,,,,,,,,,,,,,,,,,,,,,,,,,,,,,,,,,,,,,,,,,,,,,,,,,,,,,,,,,,,,,,,,,,,,,,,,,,,,,,,,
,,5fac2995bbe58415e0ac6a1e,2024-02-22_04h29.54.863,kallum_motion_pilot,2023.2.2,Win32,28.8184438,5fac2995bbe58415e0ac6a1e,65d6bb0e977760de756971f7,65d6bec2ab610f7bb580d5c4,0.0266,0.0267,1,116,278,60,1,threeone,,,,,,,,,,,,,,,,,,,,,,,,,,,,,,,,,,,,,,,,,,,,,,,,,,,,,,,,,,,,,,,,,,,,,,,,,,,,,,,,,,,,,,,,,,,,,,,,,,,,,,,,,,,,,,,,,,,,,,,,,,,,,,,,,,,,,,,,,
