startup.started,startup.stopped,Prolific ID*,date,expName,psychopyVersion,OS,frameRate,participant,study_id,session,stimpositions.started,stimpositions.stopped,hardcoded_stimulus_positions.thisRepN,hardcoded_stimulus_positions.thisTrialN,hardcoded_stimulus_positions.thisN,hardcoded_stimulus_positions.thisIndex,hardcoded_stimulus_positions.ran,StimulusPos,stimorientation.started,stimorientation.stopped,prac_stimorientation_import_loop.thisRepN,prac_stimorientation_import_loop.thisTrialN,prac_stimorientation_import_loop.thisN,prac_stimorientation_import_loop.thisIndex,prac_stimorientation_import_loop.ran,Stimorientation,welcome_instr.started,welcome_instr.stopped,key_resp.keys,key_resp.rt,key_resp.duration,response_steppedout_1.started,response_steppedout_1.stopped,key_resp_20.keys,key_resp_20.rt,key_resp_20.duration,response_steppedout_2.started,response_steppedout_2.stopped,key_resp_19.keys,key_resp_19.rt,key_resp_19.duration,stim_response_instr.started,stim_response_instr.stopped,key_resp_15.keys,key_resp_15.rt,key_resp_15.duration,direction_instr_2.started,direction_instr_2.stopped,key_resp_9.keys,key_resp_9.rt,key_resp_9.duration,instr_prac.started,instr_prac.stopped,key_resp_10.keys,key_resp_10.rt,key_resp_10.duration,Stim1_display_prac.started,Stim1_display_prac.stopped,Ecc,Circle1_ori,Circle2_ori,response_prac.started,similarity,response_time,response_prac.stopped,mouse_5.x,mouse_5.y,mouse_5.leftButton,mouse_5.midButton,mouse_5.rightButton,mouse_5.clicked_name,responseprac_feedback.started,responseprac_feedback.stopped,summary2_prac.started,summary2_prac.stopped,mouse_6.x,mouse_6.y,mouse_6.leftButton,mouse_6.midButton,mouse_6.rightButton,mouse_6.clicked_name,duringprac.thisRepN,duringprac.thisTrialN,duringprac.thisN,duringprac.thisIndex,duringprac.ran,begin.started,begin.stopped,key_resp_22.keys,key_resp_22.rt,key_resp_22.duration,Stim1_display.started,Stim1_display.stopped,circle1_ori,circle2_ori,circle1_SF,circle2_SF,response.started,response.stopped,mouse.x,mouse.y,mouse.leftButton,mouse.midButton,mouse.rightButton,mouse.clicked_name,trialnumber,double_pass.thisRepN,double_pass.thisTrialN,double_pass.thisN,double_pass.thisIndex,double_pass.ran,double_pass.order,main_trial.thisRepN,main_trial.thisTrialN,main_trial.thisN,main_trial.thisIndex,main_trial.ran,main_trial.order,Trial_Counter,Catch,Frequencies,response_2.started,response_2.stopped,mouse_2.x,mouse_2.y,mouse_2.leftButton,mouse_2.midButton,mouse_2.rightButton,mouse_2.clicked_name,special_trial.started,special_trial.stopped,catch_1.started,catch_1.stopped,mouse_3.x,mouse_3.y,mouse_3.leftButton,mouse_3.midButton,mouse_3.rightButton,catchresponse,catchnumber,response_time_catch,response_sum.started,response_sum.stopped,mouse_11.x,mouse_11.y,mouse_11.leftButton,mouse_11.midButton,mouse_11.rightButton,flip_presentation_sequence_for_double_pass.started,flip_presentation_sequence_for_double_pass.stopped,goodbye.started,goodbye.stopped,key_resp_3.keys,key_resp_3.rt,key_resp_3.duration
0.0003,0.0004,5fb82557efe4a54f452f74e8,2024-02-19_03h06.54.393,kallum_motion_pilot,2023.2.2,Win32,59.88023952,5fb82557efe4a54f452f74e8,65d2b6c8f2eece985d8e374c,65d2b79fd007f5631ea92ffa,,,,,,,,,,,,,,,,,,,,,,,,,,,,,,,,,,,,,,,,,,,,,,,,,,,,,,,,,,,,,,,,,,,,,,,,,,,,,,,,,,,,,,,,,,,,,,,,,,,,,,,,,,,,,,,,,,,,,,,,,,,,,,,,,,,,,,,,,,,,,,,,,
,,5fb82557efe4a54f452f74e8,2024-02-19_03h06.54.393,kallum_motion_pilot,2023.2.2,Win32,59.88023952,5fb82557efe4a54f452f74e8,65d2b6c8f2eece985d8e374c,65d2b79fd007f5631ea92ffa,0.0207,0.0209,0,0,0,69,1,threefour,,,,,,,,,,,,,,,,,,,,,,,,,,,,,,,,,,,,,,,,,,,,,,,,,,,,,,,,,,,,,,,,,,,,,,,,,,,,,,,,,,,,,,,,,,,,,,,,,,,,,,,,,,,,,,,,,,,,,,,,,,,,,,,,,,,,,,,,,
,,5fb82557efe4a54f452f74e8,2024-02-19_03h06.54.393,kallum_motion_pilot,2023.2.2,Win32,59.88023952,5fb82557efe4a54f452f74e8,65d2b6c8f2eece985d8e374c,65d2b79fd007f5631ea92ffa,0.0213,0.0213,0,1,1,101,1,seveneight,,,,,,,,,,,,,,,,,,,,,,,,,,,,,,,,,,,,,,,,,,,,,,,,,,,,,,,,,,,,,,,,,,,,,,,,,,,,,,,,,,,,,,,,,,,,,,,,,,,,,,,,,,,,,,,,,,,,,,,,,,,,,,,,,,,,,,,,,
,,5fb82557efe4a54f452f74e8,2024-02-19_03h06.54.393,kallum_motion_pilot,2023.2.2,Win32,59.88023952,5fb82557efe4a54f452f74e8,65d2b6c8f2eece985d8e374c,65d2b79fd007f5631ea92ffa,0.0215,0.0215,0,2,2,6,1,fourtwo,,,,,,,,,,,,,,,,,,,,,,,,,,,,,,,,,,,,,,,,,,,,,,,,,,,,,,,,,,,,,,,,,,,,,,,,,,,,,,,,,,,,,,,,,,,,,,,,,,,,,,,,,,,,,,,,,,,,,,,,,,,,,,,,,,,,,,,,,
,,5fb82557efe4a54f452f74e8,2024-02-19_03h06.54.393,kallum_motion_pilot,2023.2.2,Win32,59.88023952,5fb82557efe4a54f452f74e8,65d2b6c8f2eece985d8e374c,65d2b79fd007f5631ea92ffa,0.0215,0.0215,0,3,3,1,1,onethree,,,,,,,,,,,,,,,,,,,,,,,,,,,,,,,,,,,,,,,,,,,,,,,,,,,,,,,,,,,,,,,,,,,,,,,,,,,,,,,,,,,,,,,,,,,,,,,,,,,,,,,,,,,,,,,,,,,,,,,,,,,,,,,,,,,,,,,,,
,,5fb82557efe4a54f452f74e8,2024-02-19_03h06.54.393,kallum_motion_pilot,2023.2.2,Win32,59.88023952,5fb82557efe4a54f452f74e8,65d2b6c8f2eece985d8e374c,65d2b79fd007f5631ea92ffa,0.0226,0.0226,0,4,4,95,1,eightseven,,,,,,,,,,,,,,,,,,,,,,,,,,,,,,,,,,,,,,,,,,,,,,,,,,,,,,,,,,,,,,,,,,,,,,,,,,,,,,,,,,,,,,,,,,,,,,,,,,,,,,,,,,,,,,,,,,,,,,,,,,,,,,,,,,,,,,,,,
,,5fb82557efe4a54f452f74e8,2024-02-19_03h06.54.393,kallum_motion_pilot,2023.2.2,Win32,59.88023952,5fb82557efe4a54f452f74e8,65d2b6c8f2eece985d8e374c,65d2b79fd007f5631ea92ffa,0.0227,0.0227,0,5,5,145,1,fiveseven,,,,,,,,,,,,,,,,,,,,,,,,,,,,,,,,,,,,,,,,,,,,,,,,,,,,,,,,,,,,,,,,,,,,,,,,,,,,,,,,,,,,,,,,,,,,,,,,,,,,,,,,,,,,,,,,,,,,,,,,,,,,,,,,,,,,,,,,,
,,5fb82557efe4a54f452f74e8,2024-02-19_03h06.54.393,kallum_motion_pilot,2023.2.2,Win32,59.88023952,5fb82557efe4a54f452f74e8,65d2b6c8f2eece985d8e374c,65d2b79fd007f5631ea92ffa,0.0228,0.0228,0,6,6,47,1,fourthree,,,,,,,,,,,,,,,,,,,,,,,,,,,,,,,,,,,,,,,,,,,,,,,,,,,,,,,,,,,,,,,,,,,,,,,,,,,,,,,,,,,,,,,,,,,,,,,,,,,,,,,,,,,,,,,,,,,,,,,,,,,,,,,,,,,,,,,,,
,,5fb82557efe4a54f452f74e8,2024-02-19_03h06.54.393,kallum_motion_pilot,2023.2.2,Win32,59.88023952,5fb82557efe4a54f452f74e8,65d2b6c8f2eece985d8e374c,65d2b79fd007f5631ea92ffa,0.0228,0.0228,0,7,7,78,1,fourtwo,,,,,,,,,,,,,,,,,,,,,,,,,,,,,,,,,,,,,,,,,,,,,,,,,,,,,,,,,,,,,,,,,,,,,,,,,,,,,,,,,,,,,,,,,,,,,,,,,,,,,,,,,,,,,,,,,,,,,,,,,,,,,,,,,,,,,,,,,
,,5fb82557efe4a54f452f74e8,2024-02-19_03h06.54.393,kallum_motion_pilot,2023.2.2,Win32,59.88023952,5fb82557efe4a54f452f74e8,65d2b6c8f2eece985d8e374c,65d2b79fd007f5631ea92ffa,0.023,0.023,0,8,8,143,1,eightseven,,,,,,,,,,,,,,,,,,,,,,,,,,,,,,,,,,,,,,,,,,,,,,,,,,,,,,,,,,,,,,,,,,,,,,,,,,,,,,,,,,,,,,,,,,,,,,,,,,,,,,,,,,,,,,,,,,,,,,,,,,,,,,,,,,,,,,,,,
,,5fb82557efe4a54f452f74e8,2024-02-19_03h06.54.393,kallum_motion_pilot,2023.2.2,Win32,59.88023952,5fb82557efe4a54f452f74e8,65d2b6c8f2eece985d8e374c,65d2b79fd007f5631ea92ffa,0.0233,0.0233,0,9,9,44,1,threeone,,,,,,,,,,,,,,,,,,,,,,,,,,,,,,,,,,,,,,,,,,,,,,,,,,,,,,,,,,,,,,,,,,,,,,,,,,,,,,,,,,,,,,,,,,,,,,,,,,,,,,,,,,,,,,,,,,,,,,,,,,,,,,,,,,,,,,,,,
,,5fb82557efe4a54f452f74e8,2024-02-19_03h06.54.393,kallum_motion_pilot,2023.2.2,Win32,59.88023952,5fb82557efe4a54f452f74e8,65d2b6c8f2eece985d8e374c,65d2b79fd007f5631ea92ffa,0.0234,0.0234,0,10,10,85,1,seveneight,,,,,,,,,,,,,,,,,,,,,,,,,,,,,,,,,,,,,,,,,,,,,,,,,,,,,,,,,,,,,,,,,,,,,,,,,,,,,,,,,,,,,,,,,,,,,,,,,,,,,,,,,,,,,,,,,,,,,,,,,,,,,,,,,,,,,,,,,
,,5fb82557efe4a54f452f74e8,2024-02-19_03h06.54.393,kallum_motion_pilot,2023.2.2,Win32,59.88023952,5fb82557efe4a54f452f74e8,65d2b6c8f2eece985d8e374c,65d2b79fd007f5631ea92ffa,0.0235,0.0235,0,11,11,155,1,sixeight,,,,,,,,,,,,,,,,,,,,,,,,,,,,,,,,,,,,,,,,,,,,,,,,,,,,,,,,,,,,,,,,,,,,,,,,,,,,,,,,,,,,,,,,,,,,,,,,,,,,,,,,,,,,,,,,,,,,,,,,,,,,,,,,,,,,,,,,,
,,5fb82557efe4a54f452f74e8,2024-02-19_03h06.54.393,kallum_motion_pilot,2023.2.2,Win32,59.88023952,5fb82557efe4a54f452f74e8,65d2b6c8f2eece985d8e374c,65d2b79fd007f5631ea92ffa,0.0236,0.0236,0,12,12,159,1,eightseven,,,,,,,,,,,,,,,,,,,,,,,,,,,,,,,,,,,,,,,,,,,,,,,,,,,,,,,,,,,,,,,,,,,,,,,,,,,,,,,,,,,,,,,,,,,,,,,,,,,,,,,,,,,,,,,,,,,,,,,,,,,,,,,,,,,,,,,,,
,,5fb82557efe4a54f452f74e8,2024-02-19_03h06.54.393,kallum_motion_pilot,2023.2.2,Win32,59.88023952,5fb82557efe4a54f452f74e8,65d2b6c8f2eece985d8e374c,65d2b79fd007f5631ea92ffa,0.0236,0.0236,0,13,13,81,1,fiveseven,,,,,,,,,,,,,,,,,,,,,,,,,,,,,,,,,,,,,,,,,,,,,,,,,,,,,,,,,,,,,,,,,,,,,,,,,,,,,,,,,,,,,,,,,,,,,,,,,,,,,,,,,,,,,,,,,,,,,,,,,,,,,,,,,,,,,,,,,
,,5fb82557efe4a54f452f74e8,2024-02-19_03h06.54.393,kallum_motion_pilot,2023.2.2,Win32,59.88023952,5fb82557efe4a54f452f74e8,65d2b6c8f2eece985d8e374c,65d2b79fd007f5631ea92ffa,0.0236,0.0236,0,14,14,86,1,eightsix,,,,,,,,,,,,,,,,,,,,,,,,,,,,,,,,,,,,,,,,,,,,,,,,,,,,,,,,,,,,,,,,,,,,,,,,,,,,,,,,,,,,,,,,,,,,,,,,,,,,,,,,,,,,,,,,,,,,,,,,,,,,,,,,,,,,,,,,,
,,5fb82557efe4a54f452f74e8,2024-02-19_03h06.54.393,kallum_motion_pilot,2023.2.2,Win32,59.88023952,5fb82557efe4a54f452f74e8,65d2b6c8f2eece985d8e374c,65d2b79fd007f5631ea92ffa,0.0236,0.0236,0,15,15,70,1,fourtwo,,,,,,,,,,,,,,,,,,,,,,,,,,,,,,,,,,,,,,,,,,,,,,,,,,,,,,,,,,,,,,,,,,,,,,,,,,,,,,,,,,,,,,,,,,,,,,,,,,,,,,,,,,,,,,,,,,,,,,,,,,,,,,,,,,,,,,,,,
,,5fb82557efe4a54f452f74e8,2024-02-19_03h06.54.393,kallum_motion_pilot,2023.2.2,Win32,59.88023952,5fb82557efe4a54f452f74e8,65d2b6c8f2eece985d8e374c,65d2b79fd007f5631ea92ffa,0.0236,0.0237,0,16,16,2,1,twoone,,,,,,,,,,,,,,,,,,,,,,,,,,,,,,,,,,,,,,,,,,,,,,,,,,,,,,,,,,,,,,,,,,,,,,,,,,,,,,,,,,,,,,,,,,,,,,,,,,,,,,,,,,,,,,,,,,,,,,,,,,,,,,,,,,,,,,,,,
,,5fb82557efe4a54f452f74e8,2024-02-19_03h06.54.393,kallum_motion_pilot,2023.2.2,Win32,59.88023952,5fb82557efe4a54f452f74e8,65d2b6c8f2eece985d8e374c,65d2b79fd007f5631ea92ffa,0.0237,0.0237,0,17,17,91,1,sixeight,,,,,,,,,,,,,,,,,,,,,,,,,,,,,,,,,,,,,,,,,,,,,,,,,,,,,,,,,,,,,,,,,,,,,,,,,,,,,,,,,,,,,,,,,,,,,,,,,,,,,,,,,,,,,,,,,,,,,,,,,,,,,,,,,,,,,,,,,
,,5fb82557efe4a54f452f74e8,2024-02-19_03h06.54.393,kallum_motion_pilot,2023.2.2,Win32,59.88023952,5fb82557efe4a54f452f74e8,65d2b6c8f2eece985d8e374c,65d2b79fd007f5631ea92ffa,0.0238,0.0238,0,18,18,50,1,twoone,,,,,,,,,,,,,,,,,,,,,,,,,,,,,,,,,,,,,,,,,,,,,,,,,,,,,,,,,,,,,,,,,,,,,,,,,,,,,,,,,,,,,,,,,,,,,,,,,,,,,,,,,,,,,,,,,,,,,,,,,,,,,,,,,,,,,,,,,
,,5fb82557efe4a54f452f74e8,2024-02-19_03h06.54.393,kallum_motion_pilot,2023.2.2,Win32,59.88023952,5fb82557efe4a54f452f74e8,65d2b6c8f2eece985d8e374c,65d2b79fd007f5631ea92ffa,0.0238,0.0238,0,19,19,158,1,eightsix,,,,,,,,,,,,,,,,,,,,,,,,,,,,,,,,,,,,,,,,,,,,,,,,,,,,,,,,,,,,,,,,,,,,,,,,,,,,,,,,,,,,,,,,,,,,,,,,,,,,,,,,,,,,,,,,,,,,,,,,,,,,,,,,,,,,,,,,,
,,5fb82557efe4a54f452f74e8,2024-02-19_03h06.54.393,kallum_motion_pilot,2023.2.2,Win32,59.88023952,5fb82557efe4a54f452f74e8,65d2b6c8f2eece985d8e374c,65d2b79fd007f5631ea92ffa,0.0239,0.0239,0,20,20,146,1,sixfive,,,,,,,,,,,,,,,,,,,,,,,,,,,,,,,,,,,,,,,,,,,,,,,,,,,,,,,,,,,,,,,,,,,,,,,,,,,,,,,,,,,,,,,,,,,,,,,,,,,,,,,,,,,,,,,,,,,,,,,,,,,,,,,,,,,,,,,,,
,,5fb82557efe4a54f452f74e8,2024-02-19_03h06.54.393,kallum_motion_pilot,2023.2.2,Win32,59.88023952,5fb82557efe4a54f452f74e8,65d2b6c8f2eece985d8e374c,65d2b79fd007f5631ea92ffa,0.0239,0.0239,0,21,21,56,1,onetwo,,,,,,,,,,,,,,,,,,,,,,,,,,,,,,,,,,,,,,,,,,,,,,,,,,,,,,,,,,,,,,,,,,,,,,,,,,,,,,,,,,,,,,,,,,,,,,,,,,,,,,,,,,,,,,,,,,,,,,,,,,,,,,,,,,,,,,,,,
,,5fb82557efe4a54f452f74e8,2024-02-19_03h06.54.393,kallum_motion_pilot,2023.2.2,Win32,59.88023952,5fb82557efe4a54f452f74e8,65d2b6c8f2eece985d8e374c,65d2b79fd007f5631ea92ffa,0.024,0.024,0,22,22,29,1,threefour,,,,,,,,,,,,,,,,,,,,,,,,,,,,,,,,,,,,,,,,,,,,,,,,,,,,,,,,,,,,,,,,,,,,,,,,,,,,,,,,,,,,,,,,,,,,,,,,,,,,,,,,,,,,,,,,,,,,,,,,,,,,,,,,,,,,,,,,,
,,5fb82557efe4a54f452f74e8,2024-02-19_03h06.54.393,kallum_motion_pilot,2023.2.2,Win32,59.88023952,5fb82557efe4a54f452f74e8,65d2b6c8f2eece985d8e374c,65d2b79fd007f5631ea92ffa,0.024,0.024,0,23,23,139,1,sixeight,,,,,,,,,,,,,,,,,,,,,,,,,,,,,,,,,,,,,,,,,,,,,,,,,,,,,,,,,,,,,,,,,,,,,,,,,,,,,,,,,,,,,,,,,,,,,,,,,,,,,,,,,,,,,,,,,,,,,,,,,,,,,,,,,,,,,,,,,
,,5fb82557efe4a54f452f74e8,2024-02-19_03h06.54.393,kallum_motion_pilot,2023.2.2,Win32,59.88023952,5fb82557efe4a54f452f74e8,65d2b6c8f2eece985d8e374c,65d2b79fd007f5631ea92ffa,0.0241,0.0241,0,24,24,34,1,twoone,,,,,,,,,,,,,,,,,,,,,,,,,,,,,,,,,,,,,,,,,,,,,,,,,,,,,,,,,,,,,,,,,,,,,,,,,,,,,,,,,,,,,,,,,,,,,,,,,,,,,,,,,,,,,,,,,,,,,,,,,,,,,,,,,,,,,,,,,
,,5fb82557efe4a54f452f74e8,2024-02-19_03h06.54.393,kallum_motion_pilot,2023.2.2,Win32,59.88023952,5fb82557efe4a54f452f74e8,65d2b6c8f2eece985d8e374c,65d2b79fd007f5631ea92ffa,0.0241,0.0242,0,25,25,76,1,threeone,,,,,,,,,,,,,,,,,,,,,,,,,,,,,,,,,,,,,,,,,,,,,,,,,,,,,,,,,,,,,,,,,,,,,,,,,,,,,,,,,,,,,,,,,,,,,,,,,,,,,,,,,,,,,,,,,,,,,,,,,,,,,,,,,,,,,,,,,
,,5fb82557efe4a54f452f74e8,2024-02-19_03h06.54.393,kallum_motion_pilot,2023.2.2,Win32,59.88023952,5fb82557efe4a54f452f74e8,65d2b6c8f2eece985d8e374c,65d2b79fd007f5631ea92ffa,0.0242,0.0242,0,26,26,148,1,sevenfive,,,,,,,,,,,,,,,,,,,,,,,,,,,,,,,,,,,,,,,,,,,,,,,,,,,,,,,,,,,,,,,,,,,,,,,,,,,,,,,,,,,,,,,,,,,,,,,,,,,,,,,,,,,,,,,,,,,,,,,,,,,,,,,,,,,,,,,,,
,,5fb82557efe4a54f452f74e8,2024-02-19_03h06.54.393,kallum_motion_pilot,2023.2.2,Win32,59.88023952,5fb82557efe4a54f452f74e8,65d2b6c8f2eece985d8e374c,65d2b79fd007f5631ea92ffa,0.0242,0.0242,0,27,27,3,1,twofour,,,,,,,,,,,,,,,,,,,,,,,,,,,,,,,,,,,,,,,,,,,,,,,,,,,,,,,,,,,,,,,,,,,,,,,,,,,,,,,,,,,,,,,,,,,,,,,,,,,,,,,,,,,,,,,,,,,,,,,,,,,,,,,,,,,,,,,,,
,,5fb82557efe4a54f452f74e8,2024-02-19_03h06.54.393,kallum_motion_pilot,2023.2.2,Win32,59.88023952,5fb82557efe4a54f452f74e8,65d2b6c8f2eece985d8e374c,65d2b79fd007f5631ea92ffa,0.0242,0.0243,0,28,28,128,1,fivesix,,,,,,,,,,,,,,,,,,,,,,,,,,,,,,,,,,,,,,,,,,,,,,,,,,,,,,,,,,,,,,,,,,,,,,,,,,,,,,,,,,,,,,,,,,,,,,,,,,,,,,,,,,,,,,,,,,,,,,,,,,,,,,,,,,,,,,,,,
,,5fb82557efe4a54f452f74e8,2024-02-19_03h06.54.393,kallum_motion_pilot,2023.2.2,Win32,59.88023952,5fb82557efe4a54f452f74e8,65d2b6c8f2eece985d8e374c,65d2b79fd007f5631ea92ffa,0.0244,0.0244,0,29,29,30,1,fourtwo,,,,,,,,,,,,,,,,,,,,,,,,,,,,,,,,,,,,,,,,,,,,,,,,,,,,,,,,,,,,,,,,,,,,,,,,,,,,,,,,,,,,,,,,,,,,,,,,,,,,,,,,,,,,,,,,,,,,,,,,,,,,,,,,,,,,,,,,,
,,5fb82557efe4a54f452f74e8,2024-02-19_03h06.54.393,kallum_motion_pilot,2023.2.2,Win32,59.88023952,5fb82557efe4a54f452f74e8,65d2b6c8f2eece985d8e374c,65d2b79fd007f5631ea92ffa,0.0244,0.0244,0,30,30,59,1,twofour,,,,,,,,,,,,,,,,,,,,,,,,,,,,,,,,,,,,,,,,,,,,,,,,,,,,,,,,,,,,,,,,,,,,,,,,,,,,,,,,,,,,,,,,,,,,,,,,,,,,,,,,,,,,,,,,,,,,,,,,,,,,,,,,,,,,,,,,,
,,5fb82557efe4a54f452f74e8,2024-02-19_03h06.54.393,kallum_motion_pilot,2023.2.2,Win32,59.88023952,5fb82557efe4a54f452f74e8,65d2b6c8f2eece985d8e374c,65d2b79fd007f5631ea92ffa,0.0244,0.0245,0,31,31,135,1,eightseven,,,,,,,,,,,,,,,,,,,,,,,,,,,,,,,,,,,,,,,,,,,,,,,,,,,,,,,,,,,,,,,,,,,,,,,,,,,,,,,,,,,,,,,,,,,,,,,,,,,,,,,,,,,,,,,,,,,,,,,,,,,,,,,,,,,,,,,,,
,,5fb82557efe4a54f452f74e8,2024-02-19_03h06.54.393,kallum_motion_pilot,2023.2.2,Win32,59.88023952,5fb82557efe4a54f452f74e8,65d2b6c8f2eece985d8e374c,65d2b79fd007f5631ea92ffa,0.0245,0.0245,0,32,32,37,1,threefour,,,,,,,,,,,,,,,,,,,,,,,,,,,,,,,,,,,,,,,,,,,,,,,,,,,,,,,,,,,,,,,,,,,,,,,,,,,,,,,,,,,,,,,,,,,,,,,,,,,,,,,,,,,,,,,,,,,,,,,,,,,,,,,,,,,,,,,,,
,,5fb82557efe4a54f452f74e8,2024-02-19_03h06.54.393,kallum_motion_pilot,2023.2.2,Win32,59.88023952,5fb82557efe4a54f452f74e8,65d2b6c8f2eece985d8e374c,65d2b79fd007f5631ea92ffa,0.0245,0.0245,0,33,33,144,1,fivesix,,,,,,,,,,,,,,,,,,,,,,,,,,,,,,,,,,,,,,,,,,,,,,,,,,,,,,,,,,,,,,,,,,,,,,,,,,,,,,,,,,,,,,,,,,,,,,,,,,,,,,,,,,,,,,,,,,,,,,,,,,,,,,,,,,,,,,,,,
,,5fb82557efe4a54f452f74e8,2024-02-19_03h06.54.393,kallum_motion_pilot,2023.2.2,Win32,59.88023952,5fb82557efe4a54f452f74e8,65d2b6c8f2eece985d8e374c,65d2b79fd007f5631ea92ffa,0.0246,0.0246,0,34,34,71,1,fourthree,,,,,,,,,,,,,,,,,,,,,,,,,,,,,,,,,,,,,,,,,,,,,,,,,,,,,,,,,,,,,,,,,,,,,,,,,,,,,,,,,,,,,,,,,,,,,,,,,,,,,,,,,,,,,,,,,,,,,,,,,,,,,,,,,,,,,,,,,
,,5fb82557efe4a54f452f74e8,2024-02-19_03h06.54.393,kallum_motion_pilot,2023.2.2,Win32,59.88023952,5fb82557efe4a54f452f74e8,65d2b6c8f2eece985d8e374c,65d2b79fd007f5631ea92ffa,0.0247,0.0247,0,35,35,150,1,eightsix,,,,,,,,,,,,,,,,,,,,,,,,,,,,,,,,,,,,,,,,,,,,,,,,,,,,,,,,,,,,,,,,,,,,,,,,,,,,,,,,,,,,,,,,,,,,,,,,,,,,,,,,,,,,,,,,,,,,,,,,,,,,,,,,,,,,,,,,,
,,5fb82557efe4a54f452f74e8,2024-02-19_03h06.54.393,kallum_motion_pilot,2023.2.2,Win32,59.88023952,5fb82557efe4a54f452f74e8,65d2b6c8f2eece985d8e374c,65d2b79fd007f5631ea92ffa,0.0248,0.0248,0,36,36,119,1,eightseven,,,,,,,,,,,,,,,,,,,,,,,,,,,,,,,,,,,,,,,,,,,,,,,,,,,,,,,,,,,,,,,,,,,,,,,,,,,,,,,,,,,,,,,,,,,,,,,,,,,,,,,,,,,,,,,,,,,,,,,,,,,,,,,,,,,,,,,,,
,,5fb82557efe4a54f452f74e8,2024-02-19_03h06.54.393,kallum_motion_pilot,2023.2.2,Win32,59.88023952,5fb82557efe4a54f452f74e8,65d2b6c8f2eece985d8e374c,65d2b79fd007f5631ea92ffa,0.0248,0.0248,0,37,37,123,1,sixeight,,,,,,,,,,,,,,,,,,,,,,,,,,,,,,,,,,,,,,,,,,,,,,,,,,,,,,,,,,,,,,,,,,,,,,,,,,,,,,,,,,,,,,,,,,,,,,,,,,,,,,,,,,,,,,,,,,,,,,,,,,,,,,,,,,,,,,,,,
,,5fb82557efe4a54f452f74e8,2024-02-19_03h06.54.393,kallum_motion_pilot,2023.2.2,Win32,59.88023952,5fb82557efe4a54f452f74e8,65d2b6c8f2eece985d8e374c,65d2b79fd007f5631ea92ffa,0.0249,0.0249,0,38,38,64,1,onetwo,,,,,,,,,,,,,,,,,,,,,,,,,,,,,,,,,,,,,,,,,,,,,,,,,,,,,,,,,,,,,,,,,,,,,,,,,,,,,,,,,,,,,,,,,,,,,,,,,,,,,,,,,,,,,,,,,,,,,,,,,,,,,,,,,,,,,,,,,
,,5fb82557efe4a54f452f74e8,2024-02-19_03h06.54.393,kallum_motion_pilot,2023.2.2,Win32,59.88023952,5fb82557efe4a54f452f74e8,65d2b6c8f2eece985d8e374c,65d2b79fd007f5631ea92ffa,0.0249,0.0249,0,39,39,79,1,eightseven,,,,,,,,,,,,,,,,,,,,,,,,,,,,,,,,,,,,,,,,,,,,,,,,,,,,,,,,,,,,,,,,,,,,,,,,,,,,,,,,,,,,,,,,,,,,,,,,,,,,,,,,,,,,,,,,,,,,,,,,,,,,,,,,,,,,,,,,,
,,5fb82557efe4a54f452f74e8,2024-02-19_03h06.54.393,kallum_motion_pilot,2023.2.2,Win32,59.88023952,5fb82557efe4a54f452f74e8,65d2b6c8f2eece985d8e374c,65d2b79fd007f5631ea92ffa,0.025,0.025,0,40,40,41,1,onethree,,,,,,,,,,,,,,,,,,,,,,,,,,,,,,,,,,,,,,,,,,,,,,,,,,,,,,,,,,,,,,,,,,,,,,,,,,,,,,,,,,,,,,,,,,,,,,,,,,,,,,,,,,,,,,,,,,,,,,,,,,,,,,,,,,,,,,,,,
,,5fb82557efe4a54f452f74e8,2024-02-19_03h06.54.393,kallum_motion_pilot,2023.2.2,Win32,59.88023952,5fb82557efe4a54f452f74e8,65d2b6c8f2eece985d8e374c,65d2b79fd007f5631ea92ffa,0.025,0.025,0,41,41,157,1,seveneight,,,,,,,,,,,,,,,,,,,,,,,,,,,,,,,,,,,,,,,,,,,,,,,,,,,,,,,,,,,,,,,,,,,,,,,,,,,,,,,,,,,,,,,,,,,,,,,,,,,,,,,,,,,,,,,,,,,,,,,,,,,,,,,,,,,,,,,,,
,,5fb82557efe4a54f452f74e8,2024-02-19_03h06.54.393,kallum_motion_pilot,2023.2.2,Win32,59.88023952,5fb82557efe4a54f452f74e8,65d2b6c8f2eece985d8e374c,65d2b79fd007f5631ea92ffa,0.0251,0.0251,0,42,42,90,1,sixfive,,,,,,,,,,,,,,,,,,,,,,,,,,,,,,,,,,,,,,,,,,,,,,,,,,,,,,,,,,,,,,,,,,,,,,,,,,,,,,,,,,,,,,,,,,,,,,,,,,,,,,,,,,,,,,,,,,,,,,,,,,,,,,,,,,,,,,,,,
,,5fb82557efe4a54f452f74e8,2024-02-19_03h06.54.393,kallum_motion_pilot,2023.2.2,Win32,59.88023952,5fb82557efe4a54f452f74e8,65d2b6c8f2eece985d8e374c,65d2b79fd007f5631ea92ffa,0.0251,0.0251,0,43,43,10,1,twoone,,,,,,,,,,,,,,,,,,,,,,,,,,,,,,,,,,,,,,,,,,,,,,,,,,,,,,,,,,,,,,,,,,,,,,,,,,,,,,,,,,,,,,,,,,,,,,,,,,,,,,,,,,,,,,,,,,,,,,,,,,,,,,,,,,,,,,,,,
,,5fb82557efe4a54f452f74e8,2024-02-19_03h06.54.393,kallum_motion_pilot,2023.2.2,Win32,59.88023952,5fb82557efe4a54f452f74e8,65d2b6c8f2eece985d8e374c,65d2b79fd007f5631ea92ffa,0.0252,0.0252,0,44,44,63,1,fourthree,,,,,,,,,,,,,,,,,,,,,,,,,,,,,,,,,,,,,,,,,,,,,,,,,,,,,,,,,,,,,,,,,,,,,,,,,,,,,,,,,,,,,,,,,,,,,,,,,,,,,,,,,,,,,,,,,,,,,,,,,,,,,,,,,,,,,,,,,
,,5fb82557efe4a54f452f74e8,2024-02-19_03h06.54.393,kallum_motion_pilot,2023.2.2,Win32,59.88023952,5fb82557efe4a54f452f74e8,65d2b6c8f2eece985d8e374c,65d2b79fd007f5631ea92ffa,0.0252,0.0253,0,45,45,97,1,fiveseven,,,,,,,,,,,,,,,,,,,,,,,,,,,,,,,,,,,,,,,,,,,,,,,,,,,,,,,,,,,,,,,,,,,,,,,,,,,,,,,,,,,,,,,,,,,,,,,,,,,,,,,,,,,,,,,,,,,,,,,,,,,,,,,,,,,,,,,,,
,,5fb82557efe4a54f452f74e8,2024-02-19_03h06.54.393,kallum_motion_pilot,2023.2.2,Win32,59.88023952,5fb82557efe4a54f452f74e8,65d2b6c8f2eece985d8e374c,65d2b79fd007f5631ea92ffa,0.0253,0.0253,0,46,46,88,1,fivesix,,,,,,,,,,,,,,,,,,,,,,,,,,,,,,,,,,,,,,,,,,,,,,,,,,,,,,,,,,,,,,,,,,,,,,,,,,,,,,,,,,,,,,,,,,,,,,,,,,,,,,,,,,,,,,,,,,,,,,,,,,,,,,,,,,,,,,,,,
,,5fb82557efe4a54f452f74e8,2024-02-19_03h06.54.393,kallum_motion_pilot,2023.2.2,Win32,59.88023952,5fb82557efe4a54f452f74e8,65d2b6c8f2eece985d8e374c,65d2b79fd007f5631ea92ffa,0.0253,0.0253,0,47,47,110,1,eightsix,,,,,,,,,,,,,,,,,,,,,,,,,,,,,,,,,,,,,,,,,,,,,,,,,,,,,,,,,,,,,,,,,,,,,,,,,,,,,,,,,,,,,,,,,,,,,,,,,,,,,,,,,,,,,,,,,,,,,,,,,,,,,,,,,,,,,,,,,
,,5fb82557efe4a54f452f74e8,2024-02-19_03h06.54.393,kallum_motion_pilot,2023.2.2,Win32,59.88023952,5fb82557efe4a54f452f74e8,65d2b6c8f2eece985d8e374c,65d2b79fd007f5631ea92ffa,0.0254,0.0254,0,48,48,140,1,sevenfive,,,,,,,,,,,,,,,,,,,,,,,,,,,,,,,,,,,,,,,,,,,,,,,,,,,,,,,,,,,,,,,,,,,,,,,,,,,,,,,,,,,,,,,,,,,,,,,,,,,,,,,,,,,,,,,,,,,,,,,,,,,,,,,,,,,,,,,,,
,,5fb82557efe4a54f452f74e8,2024-02-19_03h06.54.393,kallum_motion_pilot,2023.2.2,Win32,59.88023952,5fb82557efe4a54f452f74e8,65d2b6c8f2eece985d8e374c,65d2b79fd007f5631ea92ffa,0.0255,0.0255,0,49,49,26,1,twoone,,,,,,,,,,,,,,,,,,,,,,,,,,,,,,,,,,,,,,,,,,,,,,,,,,,,,,,,,,,,,,,,,,,,,,,,,,,,,,,,,,,,,,,,,,,,,,,,,,,,,,,,,,,,,,,,,,,,,,,,,,,,,,,,,,,,,,,,,
,,5fb82557efe4a54f452f74e8,2024-02-19_03h06.54.393,kallum_motion_pilot,2023.2.2,Win32,59.88023952,5fb82557efe4a54f452f74e8,65d2b6c8f2eece985d8e374c,65d2b79fd007f5631ea92ffa,0.0255,0.0255,0,50,50,53,1,threefour,,,,,,,,,,,,,,,,,,,,,,,,,,,,,,,,,,,,,,,,,,,,,,,,,,,,,,,,,,,,,,,,,,,,,,,,,,,,,,,,,,,,,,,,,,,,,,,,,,,,,,,,,,,,,,,,,,,,,,,,,,,,,,,,,,,,,,,,,
,,5fb82557efe4a54f452f74e8,2024-02-19_03h06.54.393,kallum_motion_pilot,2023.2.2,Win32,59.88023952,5fb82557efe4a54f452f74e8,65d2b6c8f2eece985d8e374c,65d2b79fd007f5631ea92ffa,0.0256,0.0256,0,51,51,124,1,sevenfive,,,,,,,,,,,,,,,,,,,,,,,,,,,,,,,,,,,,,,,,,,,,,,,,,,,,,,,,,,,,,,,,,,,,,,,,,,,,,,,,,,,,,,,,,,,,,,,,,,,,,,,,,,,,,,,,,,,,,,,,,,,,,,,,,,,,,,,,,
,,5fb82557efe4a54f452f74e8,2024-02-19_03h06.54.393,kallum_motion_pilot,2023.2.2,Win32,59.88023952,5fb82557efe4a54f452f74e8,65d2b6c8f2eece985d8e374c,65d2b79fd007f5631ea92ffa,0.0256,0.0256,0,52,52,96,1,fivesix,,,,,,,,,,,,,,,,,,,,,,,,,,,,,,,,,,,,,,,,,,,,,,,,,,,,,,,,,,,,,,,,,,,,,,,,,,,,,,,,,,,,,,,,,,,,,,,,,,,,,,,,,,,,,,,,,,,,,,,,,,,,,,,,,,,,,,,,,
,,5fb82557efe4a54f452f74e8,2024-02-19_03h06.54.393,kallum_motion_pilot,2023.2.2,Win32,59.88023952,5fb82557efe4a54f452f74e8,65d2b6c8f2eece985d8e374c,65d2b79fd007f5631ea92ffa,0.0256,0.0257,0,53,53,21,1,threefour,,,,,,,,,,,,,,,,,,,,,,,,,,,,,,,,,,,,,,,,,,,,,,,,,,,,,,,,,,,,,,,,,,,,,,,,,,,,,,,,,,,,,,,,,,,,,,,,,,,,,,,,,,,,,,,,,,,,,,,,,,,,,,,,,,,,,,,,,
,,5fb82557efe4a54f452f74e8,2024-02-19_03h06.54.393,kallum_motion_pilot,2023.2.2,Win32,59.88023952,5fb82557efe4a54f452f74e8,65d2b6c8f2eece985d8e374c,65d2b79fd007f5631ea92ffa,0.0258,0.0258,0,54,54,62,1,fourtwo,,,,,,,,,,,,,,,,,,,,,,,,,,,,,,,,,,,,,,,,,,,,,,,,,,,,,,,,,,,,,,,,,,,,,,,,,,,,,,,,,,,,,,,,,,,,,,,,,,,,,,,,,,,,,,,,,,,,,,,,,,,,,,,,,,,,,,,,,
,,5fb82557efe4a54f452f74e8,2024-02-19_03h06.54.393,kallum_motion_pilot,2023.2.2,Win32,59.88023952,5fb82557efe4a54f452f74e8,65d2b6c8f2eece985d8e374c,65d2b79fd007f5631ea92ffa,0.0258,0.0258,0,55,55,80,1,fivesix,,,,,,,,,,,,,,,,,,,,,,,,,,,,,,,,,,,,,,,,,,,,,,,,,,,,,,,,,,,,,,,,,,,,,,,,,,,,,,,,,,,,,,,,,,,,,,,,,,,,,,,,,,,,,,,,,,,,,,,,,,,,,,,,,,,,,,,,,
,,5fb82557efe4a54f452f74e8,2024-02-19_03h06.54.393,kallum_motion_pilot,2023.2.2,Win32,59.88023952,5fb82557efe4a54f452f74e8,65d2b6c8f2eece985d8e374c,65d2b79fd007f5631ea92ffa,0.0259,0.026,0,56,56,117,1,seveneight,,,,,,,,,,,,,,,,,,,,,,,,,,,,,,,,,,,,,,,,,,,,,,,,,,,,,,,,,,,,,,,,,,,,,,,,,,,,,,,,,,,,,,,,,,,,,,,,,,,,,,,,,,,,,,,,,,,,,,,,,,,,,,,,,,,,,,,,,
,,5fb82557efe4a54f452f74e8,2024-02-19_03h06.54.393,kallum_motion_pilot,2023.2.2,Win32,59.88023952,5fb82557efe4a54f452f74e8,65d2b6c8f2eece985d8e374c,65d2b79fd007f5631ea92ffa,0.0261,0.0261,0,57,57,142,1,eightsix,,,,,,,,,,,,,,,,,,,,,,,,,,,,,,,,,,,,,,,,,,,,,,,,,,,,,,,,,,,,,,,,,,,,,,,,,,,,,,,,,,,,,,,,,,,,,,,,,,,,,,,,,,,,,,,,,,,,,,,,,,,,,,,,,,,,,,,,,
,,5fb82557efe4a54f452f74e8,2024-02-19_03h06.54.393,kallum_motion_pilot,2023.2.2,Win32,59.88023952,5fb82557efe4a54f452f74e8,65d2b6c8f2eece985d8e374c,65d2b79fd007f5631ea92ffa,0.0262,0.0262,0,58,58,147,1,sixeight,,,,,,,,,,,,,,,,,,,,,,,,,,,,,,,,,,,,,,,,,,,,,,,,,,,,,,,,,,,,,,,,,,,,,,,,,,,,,,,,,,,,,,,,,,,,,,,,,,,,,,,,,,,,,,,,,,,,,,,,,,,,,,,,,,,,,,,,,
,,5fb82557efe4a54f452f74e8,2024-02-19_03h06.54.393,kallum_motion_pilot,2023.2.2,Win32,59.88023952,5fb82557efe4a54f452f74e8,65d2b6c8f2eece985d8e374c,65d2b79fd007f5631ea92ffa,0.0263,0.0263,0,59,59,133,1,seveneight,,,,,,,,,,,,,,,,,,,,,,,,,,,,,,,,,,,,,,,,,,,,,,,,,,,,,,,,,,,,,,,,,,,,,,,,,,,,,,,,,,,,,,,,,,,,,,,,,,,,,,,,,,,,,,,,,,,,,,,,,,,,,,,,,,,,,,,,,
,,5fb82557efe4a54f452f74e8,2024-02-19_03h06.54.393,kallum_motion_pilot,2023.2.2,Win32,59.88023952,5fb82557efe4a54f452f74e8,65d2b6c8f2eece985d8e374c,65d2b79fd007f5631ea92ffa,0.0263,0.0264,0,60,60,92,1,sevenfive,,,,,,,,,,,,,,,,,,,,,,,,,,,,,,,,,,,,,,,,,,,,,,,,,,,,,,,,,,,,,,,,,,,,,,,,,,,,,,,,,,,,,,,,,,,,,,,,,,,,,,,,,,,,,,,,,,,,,,,,,,,,,,,,,,,,,,,,,
,,5fb82557efe4a54f452f74e8,2024-02-19_03h06.54.393,kallum_motion_pilot,2023.2.2,Win32,59.88023952,5fb82557efe4a54f452f74e8,65d2b6c8f2eece985d8e374c,65d2b79fd007f5631ea92ffa,0.0264,0.0264,0,61,61,99,1,sixeight,,,,,,,,,,,,,,,,,,,,,,,,,,,,,,,,,,,,,,,,,,,,,,,,,,,,,,,,,,,,,,,,,,,,,,,,,,,,,,,,,,,,,,,,,,,,,,,,,,,,,,,,,,,,,,,,,,,,,,,,,,,,,,,,,,,,,,,,,
,,5fb82557efe4a54f452f74e8,2024-02-19_03h06.54.393,kallum_motion_pilot,2023.2.2,Win32,59.88023952,5fb82557efe4a54f452f74e8,65d2b6c8f2eece985d8e374c,65d2b79fd007f5631ea92ffa,0.0265,0.0265,0,62,62,9,1,onethree,,,,,,,,,,,,,,,,,,,,,,,,,,,,,,,,,,,,,,,,,,,,,,,,,,,,,,,,,,,,,,,,,,,,,,,,,,,,,,,,,,,,,,,,,,,,,,,,,,,,,,,,,,,,,,,,,,,,,,,,,,,,,,,,,,,,,,,,,
,,5fb82557efe4a54f452f74e8,2024-02-19_03h06.54.393,kallum_motion_pilot,2023.2.2,Win32,59.88023952,5fb82557efe4a54f452f74e8,65d2b6c8f2eece985d8e374c,65d2b79fd007f5631ea92ffa,0.0265,0.0265,0,63,63,118,1,eightsix,,,,,,,,,,,,,,,,,,,,,,,,,,,,,,,,,,,,,,,,,,,,,,,,,,,,,,,,,,,,,,,,,,,,,,,,,,,,,,,,,,,,,,,,,,,,,,,,,,,,,,,,,,,,,,,,,,,,,,,,,,,,,,,,,,,,,,,,,
,,5fb82557efe4a54f452f74e8,2024-02-19_03h06.54.393,kallum_motion_pilot,2023.2.2,Win32,59.88023952,5fb82557efe4a54f452f74e8,65d2b6c8f2eece985d8e374c,65d2b79fd007f5631ea92ffa,0.0266,0.0266,0,64,64,28,1,threeone,,,,,,,,,,,,,,,,,,,,,,,,,,,,,,,,,,,,,,,,,,,,,,,,,,,,,,,,,,,,,,,,,,,,,,,,,,,,,,,,,,,,,,,,,,,,,,,,,,,,,,,,,,,,,,,,,,,,,,,,,,,,,,,,,,,,,,,,,
,,5fb82557efe4a54f452f74e8,2024-02-19_03h06.54.393,kallum_motion_pilot,2023.2.2,Win32,59.88023952,5fb82557efe4a54f452f74e8,65d2b6c8f2eece985d8e374c,65d2b79fd007f5631ea92ffa,0.0267,0.0267,0,65,65,103,1,eightseven,,,,,,,,,,,,,,,,,,,,,,,,,,,,,,,,,,,,,,,,,,,,,,,,,,,,,,,,,,,,,,,,,,,,,,,,,,,,,,,,,,,,,,,,,,,,,,,,,,,,,,,,,,,,,,,,,,,,,,,,,,,,,,,,,,,,,,,,,
,,5fb82557efe4a54f452f74e8,2024-02-19_03h06.54.393,kallum_motion_pilot,2023.2.2,Win32,59.88023952,5fb82557efe4a54f452f74e8,65d2b6c8f2eece985d8e374c,65d2b79fd007f5631ea92ffa,0.0267,0.0267,0,66,66,58,1,twoone,,,,,,,,,,,,,,,,,,,,,,,,,,,,,,,,,,,,,,,,,,,,,,,,,,,,,,,,,,,,,,,,,,,,,,,,,,,,,,,,,,,,,,,,,,,,,,,,,,,,,,,,,,,,,,,,,,,,,,,,,,,,,,,,,,,,,,,,,
,,5fb82557efe4a54f452f74e8,2024-02-19_03h06.54.393,kallum_motion_pilot,2023.2.2,Win32,59.88023952,5fb82557efe4a54f452f74e8,65d2b6c8f2eece985d8e374c,65d2b79fd007f5631ea92ffa,0.0268,0.0268,0,67,67,40,1,onetwo,,,,,,,,,,,,,,,,,,,,,,,,,,,,,,,,,,,,,,,,,,,,,,,,,,,,,,,,,,,,,,,,,,,,,,,,,,,,,,,,,,,,,,,,,,,,,,,,,,,,,,,,,,,,,,,,,,,,,,,,,,,,,,,,,,,,,,,,,
,,5fb82557efe4a54f452f74e8,2024-02-19_03h06.54.393,kallum_motion_pilot,2023.2.2,Win32,59.88023952,5fb82557efe4a54f452f74e8,65d2b6c8f2eece985d8e374c,65d2b79fd007f5631ea92ffa,0.0268,0.0269,0,68,68,13,1,threefour,,,,,,,,,,,,,,,,,,,,,,,,,,,,,,,,,,,,,,,,,,,,,,,,,,,,,,,,,,,,,,,,,,,,,,,,,,,,,,,,,,,,,,,,,,,,,,,,,,,,,,,,,,,,,,,,,,,,,,,,,,,,,,,,,,,,,,,,,
,,5fb82557efe4a54f452f74e8,2024-02-19_03h06.54.393,kallum_motion_pilot,2023.2.2,Win32,59.88023952,5fb82557efe4a54f452f74e8,65d2b6c8f2eece985d8e374c,65d2b79fd007f5631ea92ffa,0.027,0.027,0,69,69,153,1,fiveseven,,,,,,,,,,,,,,,,,,,,,,,,,,,,,,,,,,,,,,,,,,,,,,,,,,,,,,,,,,,,,,,,,,,,,,,,,,,,,,,,,,,,,,,,,,,,,,,,,,,,,,,,,,,,,,,,,,,,,,,,,,,,,,,,,,,,,,,,,
,,5fb82557efe4a54f452f74e8,2024-02-19_03h06.54.393,kallum_motion_pilot,2023.2.2,Win32,59.88023952,5fb82557efe4a54f452f74e8,65d2b6c8f2eece985d8e374c,65d2b79fd007f5631ea92ffa,0.027,0.027,0,70,70,141,1,seveneight,,,,,,,,,,,,,,,,,,,,,,,,,,,,,,,,,,,,,,,,,,,,,,,,,,,,,,,,,,,,,,,,,,,,,,,,,,,,,,,,,,,,,,,,,,,,,,,,,,,,,,,,,,,,,,,,,,,,,,,,,,,,,,,,,,,,,,,,,
,,5fb82557efe4a54f452f74e8,2024-02-19_03h06.54.393,kallum_motion_pilot,2023.2.2,Win32,59.88023952,5fb82557efe4a54f452f74e8,65d2b6c8f2eece985d8e374c,65d2b79fd007f5631ea92ffa,0.0271,0.0271,0,71,71,25,1,onethree,,,,,,,,,,,,,,,,,,,,,,,,,,,,,,,,,,,,,,,,,,,,,,,,,,,,,,,,,,,,,,,,,,,,,,,,,,,,,,,,,,,,,,,,,,,,,,,,,,,,,,,,,,,,,,,,,,,,,,,,,,,,,,,,,,,,,,,,,
,,5fb82557efe4a54f452f74e8,2024-02-19_03h06.54.393,kallum_motion_pilot,2023.2.2,Win32,59.88023952,5fb82557efe4a54f452f74e8,65d2b6c8f2eece985d8e374c,65d2b79fd007f5631ea92ffa,0.0271,0.0272,0,72,72,52,1,threeone,,,,,,,,,,,,,,,,,,,,,,,,,,,,,,,,,,,,,,,,,,,,,,,,,,,,,,,,,,,,,,,,,,,,,,,,,,,,,,,,,,,,,,,,,,,,,,,,,,,,,,,,,,,,,,,,,,,,,,,,,,,,,,,,,,,,,,,,,
,,5fb82557efe4a54f452f74e8,2024-02-19_03h06.54.393,kallum_motion_pilot,2023.2.2,Win32,59.88023952,5fb82557efe4a54f452f74e8,65d2b6c8f2eece985d8e374c,65d2b79fd007f5631ea92ffa,0.0272,0.0272,0,73,73,136,1,fivesix,,,,,,,,,,,,,,,,,,,,,,,,,,,,,,,,,,,,,,,,,,,,,,,,,,,,,,,,,,,,,,,,,,,,,,,,,,,,,,,,,,,,,,,,,,,,,,,,,,,,,,,,,,,,,,,,,,,,,,,,,,,,,,,,,,,,,,,,,
,,5fb82557efe4a54f452f74e8,2024-02-19_03h06.54.393,kallum_motion_pilot,2023.2.2,Win32,59.88023952,5fb82557efe4a54f452f74e8,65d2b6c8f2eece985d8e374c,65d2b79fd007f5631ea92ffa,0.0272,0.0273,0,74,74,20,1,threeone,,,,,,,,,,,,,,,,,,,,,,,,,,,,,,,,,,,,,,,,,,,,,,,,,,,,,,,,,,,,,,,,,,,,,,,,,,,,,,,,,,,,,,,,,,,,,,,,,,,,,,,,,,,,,,,,,,,,,,,,,,,,,,,,,,,,,,,,,
,,5fb82557efe4a54f452f74e8,2024-02-19_03h06.54.393,kallum_motion_pilot,2023.2.2,Win32,59.88023952,5fb82557efe4a54f452f74e8,65d2b6c8f2eece985d8e374c,65d2b79fd007f5631ea92ffa,0.0273,0.0273,0,75,75,75,1,twofour,,,,,,,,,,,,,,,,,,,,,,,,,,,,,,,,,,,,,,,,,,,,,,,,,,,,,,,,,,,,,,,,,,,,,,,,,,,,,,,,,,,,,,,,,,,,,,,,,,,,,,,,,,,,,,,,,,,,,,,,,,,,,,,,,,,,,,,,,
,,5fb82557efe4a54f452f74e8,2024-02-19_03h06.54.393,kallum_motion_pilot,2023.2.2,Win32,59.88023952,5fb82557efe4a54f452f74e8,65d2b6c8f2eece985d8e374c,65d2b79fd007f5631ea92ffa,0.0274,0.0274,0,76,76,121,1,fiveseven,,,,,,,,,,,,,,,,,,,,,,,,,,,,,,,,,,,,,,,,,,,,,,,,,,,,,,,,,,,,,,,,,,,,,,,,,,,,,,,,,,,,,,,,,,,,,,,,,,,,,,,,,,,,,,,,,,,,,,,,,,,,,,,,,,,,,,,,,
,,5fb82557efe4a54f452f74e8,2024-02-19_03h06.54.393,kallum_motion_pilot,2023.2.2,Win32,59.88023952,5fb82557efe4a54f452f74e8,65d2b6c8f2eece985d8e374c,65d2b79fd007f5631ea92ffa,0.0275,0.0275,0,77,77,38,1,fourtwo,,,,,,,,,,,,,,,,,,,,,,,,,,,,,,,,,,,,,,,,,,,,,,,,,,,,,,,,,,,,,,,,,,,,,,,,,,,,,,,,,,,,,,,,,,,,,,,,,,,,,,,,,,,,,,,,,,,,,,,,,,,,,,,,,,,,,,,,,
,,5fb82557efe4a54f452f74e8,2024-02-19_03h06.54.393,kallum_motion_pilot,2023.2.2,Win32,59.88023952,5fb82557efe4a54f452f74e8,65d2b6c8f2eece985d8e374c,65d2b79fd007f5631ea92ffa,0.0277,0.0278,0,78,78,8,1,onetwo,,,,,,,,,,,,,,,,,,,,,,,,,,,,,,,,,,,,,,,,,,,,,,,,,,,,,,,,,,,,,,,,,,,,,,,,,,,,,,,,,,,,,,,,,,,,,,,,,,,,,,,,,,,,,,,,,,,,,,,,,,,,,,,,,,,,,,,,,
,,5fb82557efe4a54f452f74e8,2024-02-19_03h06.54.393,kallum_motion_pilot,2023.2.2,Win32,59.88023952,5fb82557efe4a54f452f74e8,65d2b6c8f2eece985d8e374c,65d2b79fd007f5631ea92ffa,0.0279,0.0279,0,79,79,68,1,threeone,,,,,,,,,,,,,,,,,,,,,,,,,,,,,,,,,,,,,,,,,,,,,,,,,,,,,,,,,,,,,,,,,,,,,,,,,,,,,,,,,,,,,,,,,,,,,,,,,,,,,,,,,,,,,,,,,,,,,,,,,,,,,,,,,,,,,,,,,
,,5fb82557efe4a54f452f74e8,2024-02-19_03h06.54.393,kallum_motion_pilot,2023.2.2,Win32,59.88023952,5fb82557efe4a54f452f74e8,65d2b6c8f2eece985d8e374c,65d2b79fd007f5631ea92ffa,0.028,0.028,0,80,80,18,1,twoone,,,,,,,,,,,,,,,,,,,,,,,,,,,,,,,,,,,,,,,,,,,,,,,,,,,,,,,,,,,,,,,,,,,,,,,,,,,,,,,,,,,,,,,,,,,,,,,,,,,,,,,,,,,,,,,,,,,,,,,,,,,,,,,,,,,,,,,,,
,,5fb82557efe4a54f452f74e8,2024-02-19_03h06.54.393,kallum_motion_pilot,2023.2.2,Win32,59.88023952,5fb82557efe4a54f452f74e8,65d2b6c8f2eece985d8e374c,65d2b79fd007f5631ea92ffa,0.0281,0.0281,0,81,81,72,1,onetwo,,,,,,,,,,,,,,,,,,,,,,,,,,,,,,,,,,,,,,,,,,,,,,,,,,,,,,,,,,,,,,,,,,,,,,,,,,,,,,,,,,,,,,,,,,,,,,,,,,,,,,,,,,,,,,,,,,,,,,,,,,,,,,,,,,,,,,,,,
,,5fb82557efe4a54f452f74e8,2024-02-19_03h06.54.393,kallum_motion_pilot,2023.2.2,Win32,59.88023952,5fb82557efe4a54f452f74e8,65d2b6c8f2eece985d8e374c,65d2b79fd007f5631ea92ffa,0.0282,0.0282,0,82,82,120,1,fivesix,,,,,,,,,,,,,,,,,,,,,,,,,,,,,,,,,,,,,,,,,,,,,,,,,,,,,,,,,,,,,,,,,,,,,,,,,,,,,,,,,,,,,,,,,,,,,,,,,,,,,,,,,,,,,,,,,,,,,,,,,,,,,,,,,,,,,,,,,
,,5fb82557efe4a54f452f74e8,2024-02-19_03h06.54.393,kallum_motion_pilot,2023.2.2,Win32,59.88023952,5fb82557efe4a54f452f74e8,65d2b6c8f2eece985d8e374c,65d2b79fd007f5631ea92ffa,0.0283,0.0283,0,83,83,4,1,threeone,,,,,,,,,,,,,,,,,,,,,,,,,,,,,,,,,,,,,,,,,,,,,,,,,,,,,,,,,,,,,,,,,,,,,,,,,,,,,,,,,,,,,,,,,,,,,,,,,,,,,,,,,,,,,,,,,,,,,,,,,,,,,,,,,,,,,,,,,
,,5fb82557efe4a54f452f74e8,2024-02-19_03h06.54.393,kallum_motion_pilot,2023.2.2,Win32,59.88023952,5fb82557efe4a54f452f74e8,65d2b6c8f2eece985d8e374c,65d2b79fd007f5631ea92ffa,0.0284,0.0284,0,84,84,19,1,twofour,,,,,,,,,,,,,,,,,,,,,,,,,,,,,,,,,,,,,,,,,,,,,,,,,,,,,,,,,,,,,,,,,,,,,,,,,,,,,,,,,,,,,,,,,,,,,,,,,,,,,,,,,,,,,,,,,,,,,,,,,,,,,,,,,,,,,,,,,
,,5fb82557efe4a54f452f74e8,2024-02-19_03h06.54.393,kallum_motion_pilot,2023.2.2,Win32,59.88023952,5fb82557efe4a54f452f74e8,65d2b6c8f2eece985d8e374c,65d2b79fd007f5631ea92ffa,0.0284,0.0285,0,85,85,132,1,sevenfive,,,,,,,,,,,,,,,,,,,,,,,,,,,,,,,,,,,,,,,,,,,,,,,,,,,,,,,,,,,,,,,,,,,,,,,,,,,,,,,,,,,,,,,,,,,,,,,,,,,,,,,,,,,,,,,,,,,,,,,,,,,,,,,,,,,,,,,,,
,,5fb82557efe4a54f452f74e8,2024-02-19_03h06.54.393,kallum_motion_pilot,2023.2.2,Win32,59.88023952,5fb82557efe4a54f452f74e8,65d2b6c8f2eece985d8e374c,65d2b79fd007f5631ea92ffa,0.0285,0.0285,0,86,86,51,1,twofour,,,,,,,,,,,,,,,,,,,,,,,,,,,,,,,,,,,,,,,,,,,,,,,,,,,,,,,,,,,,,,,,,,,,,,,,,,,,,,,,,,,,,,,,,,,,,,,,,,,,,,,,,,,,,,,,,,,,,,,,,,,,,,,,,,,,,,,,,
,,5fb82557efe4a54f452f74e8,2024-02-19_03h06.54.393,kallum_motion_pilot,2023.2.2,Win32,59.88023952,5fb82557efe4a54f452f74e8,65d2b6c8f2eece985d8e374c,65d2b79fd007f5631ea92ffa,0.0286,0.0286,0,87,87,14,1,fourtwo,,,,,,,,,,,,,,,,,,,,,,,,,,,,,,,,,,,,,,,,,,,,,,,,,,,,,,,,,,,,,,,,,,,,,,,,,,,,,,,,,,,,,,,,,,,,,,,,,,,,,,,,,,,,,,,,,,,,,,,,,,,,,,,,,,,,,,,,,
,,5fb82557efe4a54f452f74e8,2024-02-19_03h06.54.393,kallum_motion_pilot,2023.2.2,Win32,59.88023952,5fb82557efe4a54f452f74e8,65d2b6c8f2eece985d8e374c,65d2b79fd007f5631ea92ffa,0.0286,0.0286,0,88,88,61,1,threefour,,,,,,,,,,,,,,,,,,,,,,,,,,,,,,,,,,,,,,,,,,,,,,,,,,,,,,,,,,,,,,,,,,,,,,,,,,,,,,,,,,,,,,,,,,,,,,,,,,,,,,,,,,,,,,,,,,,,,,,,,,,,,,,,,,,,,,,,,
,,5fb82557efe4a54f452f74e8,2024-02-19_03h06.54.393,kallum_motion_pilot,2023.2.2,Win32,59.88023952,5fb82557efe4a54f452f74e8,65d2b6c8f2eece985d8e374c,65d2b79fd007f5631ea92ffa,0.0287,0.0288,0,89,89,152,1,fivesix,,,,,,,,,,,,,,,,,,,,,,,,,,,,,,,,,,,,,,,,,,,,,,,,,,,,,,,,,,,,,,,,,,,,,,,,,,,,,,,,,,,,,,,,,,,,,,,,,,,,,,,,,,,,,,,,,,,,,,,,,,,,,,,,,,,,,,,,,
,,5fb82557efe4a54f452f74e8,2024-02-19_03h06.54.393,kallum_motion_pilot,2023.2.2,Win32,59.88023952,5fb82557efe4a54f452f74e8,65d2b6c8f2eece985d8e374c,65d2b79fd007f5631ea92ffa,0.0288,0.0288,0,90,90,7,1,fourthree,,,,,,,,,,,,,,,,,,,,,,,,,,,,,,,,,,,,,,,,,,,,,,,,,,,,,,,,,,,,,,,,,,,,,,,,,,,,,,,,,,,,,,,,,,,,,,,,,,,,,,,,,,,,,,,,,,,,,,,,,,,,,,,,,,,,,,,,,
,,5fb82557efe4a54f452f74e8,2024-02-19_03h06.54.393,kallum_motion_pilot,2023.2.2,Win32,59.88023952,5fb82557efe4a54f452f74e8,65d2b6c8f2eece985d8e374c,65d2b79fd007f5631ea92ffa,0.0289,0.0289,0,91,91,39,1,fourthree,,,,,,,,,,,,,,,,,,,,,,,,,,,,,,,,,,,,,,,,,,,,,,,,,,,,,,,,,,,,,,,,,,,,,,,,,,,,,,,,,,,,,,,,,,,,,,,,,,,,,,,,,,,,,,,,,,,,,,,,,,,,,,,,,,,,,,,,,
,,5fb82557efe4a54f452f74e8,2024-02-19_03h06.54.393,kallum_motion_pilot,2023.2.2,Win32,59.88023952,5fb82557efe4a54f452f74e8,65d2b6c8f2eece985d8e374c,65d2b79fd007f5631ea92ffa,0.0289,0.0291,0,92,92,60,1,threeone,,,,,,,,,,,,,,,,,,,,,,,,,,,,,,,,,,,,,,,,,,,,,,,,,,,,,,,,,,,,,,,,,,,,,,,,,,,,,,,,,,,,,,,,,,,,,,,,,,,,,,,,,,,,,,,,,,,,,,,,,,,,,,,,,,,,,,,,,
,,5fb82557efe4a54f452f74e8,2024-02-19_03h06.54.393,kallum_motion_pilot,2023.2.2,Win32,59.88023952,5fb82557efe4a54f452f74e8,65d2b6c8f2eece985d8e374c,65d2b79fd007f5631ea92ffa,0.0291,0.0293,0,93,93,127,1,eightseven,,,,,,,,,,,,,,,,,,,,,,,,,,,,,,,,,,,,,,,,,,,,,,,,,,,,,,,,,,,,,,,,,,,,,,,,,,,,,,,,,,,,,,,,,,,,,,,,,,,,,,,,,,,,,,,,,,,,,,,,,,,,,,,,,,,,,,,,,
,,5fb82557efe4a54f452f74e8,2024-02-19_03h06.54.393,kallum_motion_pilot,2023.2.2,Win32,59.88023952,5fb82557efe4a54f452f74e8,65d2b6c8f2eece985d8e374c,65d2b79fd007f5631ea92ffa,0.0293,0.0293,0,94,94,154,1,sixfive,,,,,,,,,,,,,,,,,,,,,,,,,,,,,,,,,,,,,,,,,,,,,,,,,,,,,,,,,,,,,,,,,,,,,,,,,,,,,,,,,,,,,,,,,,,,,,,,,,,,,,,,,,,,,,,,,,,,,,,,,,,,,,,,,,,,,,,,,
,,5fb82557efe4a54f452f74e8,2024-02-19_03h06.54.393,kallum_motion_pilot,2023.2.2,Win32,59.88023952,5fb82557efe4a54f452f74e8,65d2b6c8f2eece985d8e374c,65d2b79fd007f5631ea92ffa,0.0294,0.0294,0,95,95,122,1,sixfive,,,,,,,,,,,,,,,,,,,,,,,,,,,,,,,,,,,,,,,,,,,,,,,,,,,,,,,,,,,,,,,,,,,,,,,,,,,,,,,,,,,,,,,,,,,,,,,,,,,,,,,,,,,,,,,,,,,,,,,,,,,,,,,,,,,,,,,,,
,,5fb82557efe4a54f452f74e8,2024-02-19_03h06.54.393,kallum_motion_pilot,2023.2.2,Win32,59.88023952,5fb82557efe4a54f452f74e8,65d2b6c8f2eece985d8e374c,65d2b79fd007f5631ea92ffa,0.0296,0.0297,0,96,96,74,1,twoone,,,,,,,,,,,,,,,,,,,,,,,,,,,,,,,,,,,,,,,,,,,,,,,,,,,,,,,,,,,,,,,,,,,,,,,,,,,,,,,,,,,,,,,,,,,,,,,,,,,,,,,,,,,,,,,,,,,,,,,,,,,,,,,,,,,,,,,,,
,,5fb82557efe4a54f452f74e8,2024-02-19_03h06.54.393,kallum_motion_pilot,2023.2.2,Win32,59.88023952,5fb82557efe4a54f452f74e8,65d2b6c8f2eece985d8e374c,65d2b79fd007f5631ea92ffa,0.0297,0.0298,0,97,97,82,1,sixfive,,,,,,,,,,,,,,,,,,,,,,,,,,,,,,,,,,,,,,,,,,,,,,,,,,,,,,,,,,,,,,,,,,,,,,,,,,,,,,,,,,,,,,,,,,,,,,,,,,,,,,,,,,,,,,,,,,,,,,,,,,,,,,,,,,,,,,,,,
,,5fb82557efe4a54f452f74e8,2024-02-19_03h06.54.393,kallum_motion_pilot,2023.2.2,Win32,59.88023952,5fb82557efe4a54f452f74e8,65d2b6c8f2eece985d8e374c,65d2b79fd007f5631ea92ffa,0.0298,0.0298,0,98,98,49,1,onethree,,,,,,,,,,,,,,,,,,,,,,,,,,,,,,,,,,,,,,,,,,,,,,,,,,,,,,,,,,,,,,,,,,,,,,,,,,,,,,,,,,,,,,,,,,,,,,,,,,,,,,,,,,,,,,,,,,,,,,,,,,,,,,,,,,,,,,,,,
,,5fb82557efe4a54f452f74e8,2024-02-19_03h06.54.393,kallum_motion_pilot,2023.2.2,Win32,59.88023952,5fb82557efe4a54f452f74e8,65d2b6c8f2eece985d8e374c,65d2b79fd007f5631ea92ffa,0.0299,0.0299,0,99,99,24,1,onetwo,,,,,,,,,,,,,,,,,,,,,,,,,,,,,,,,,,,,,,,,,,,,,,,,,,,,,,,,,,,,,,,,,,,,,,,,,,,,,,,,,,,,,,,,,,,,,,,,,,,,,,,,,,,,,,,,,,,,,,,,,,,,,,,,,,,,,,,,,
,,5fb82557efe4a54f452f74e8,2024-02-19_03h06.54.393,kallum_motion_pilot,2023.2.2,Win32,59.88023952,5fb82557efe4a54f452f74e8,65d2b6c8f2eece985d8e374c,65d2b79fd007f5631ea92ffa,0.0299,0.0299,0,100,100,160,1,fivesix,,,,,,,,,,,,,,,,,,,,,,,,,,,,,,,,,,,,,,,,,,,,,,,,,,,,,,,,,,,,,,,,,,,,,,,,,,,,,,,,,,,,,,,,,,,,,,,,,,,,,,,,,,,,,,,,,,,,,,,,,,,,,,,,,,,,,,,,,
,,5fb82557efe4a54f452f74e8,2024-02-19_03h06.54.393,kallum_motion_pilot,2023.2.2,Win32,59.88023952,5fb82557efe4a54f452f74e8,65d2b6c8f2eece985d8e374c,65d2b79fd007f5631ea92ffa,0.03,0.0301,0,101,101,89,1,fiveseven,,,,,,,,,,,,,,,,,,,,,,,,,,,,,,,,,,,,,,,,,,,,,,,,,,,,,,,,,,,,,,,,,,,,,,,,,,,,,,,,,,,,,,,,,,,,,,,,,,,,,,,,,,,,,,,,,,,,,,,,,,,,,,,,,,,,,,,,,
,,5fb82557efe4a54f452f74e8,2024-02-19_03h06.54.393,kallum_motion_pilot,2023.2.2,Win32,59.88023952,5fb82557efe4a54f452f74e8,65d2b6c8f2eece985d8e374c,65d2b79fd007f5631ea92ffa,0.0301,0.0301,0,102,102,83,1,sixeight,,,,,,,,,,,,,,,,,,,,,,,,,,,,,,,,,,,,,,,,,,,,,,,,,,,,,,,,,,,,,,,,,,,,,,,,,,,,,,,,,,,,,,,,,,,,,,,,,,,,,,,,,,,,,,,,,,,,,,,,,,,,,,,,,,,,,,,,,
,,5fb82557efe4a54f452f74e8,2024-02-19_03h06.54.393,kallum_motion_pilot,2023.2.2,Win32,59.88023952,5fb82557efe4a54f452f74e8,65d2b6c8f2eece985d8e374c,65d2b79fd007f5631ea92ffa,0.0301,0.0301,0,103,103,16,1,onetwo,,,,,,,,,,,,,,,,,,,,,,,,,,,,,,,,,,,,,,,,,,,,,,,,,,,,,,,,,,,,,,,,,,,,,,,,,,,,,,,,,,,,,,,,,,,,,,,,,,,,,,,,,,,,,,,,,,,,,,,,,,,,,,,,,,,,,,,,,
,,5fb82557efe4a54f452f74e8,2024-02-19_03h06.54.393,kallum_motion_pilot,2023.2.2,Win32,59.88023952,5fb82557efe4a54f452f74e8,65d2b6c8f2eece985d8e374c,65d2b79fd007f5631ea92ffa,0.0302,0.0303,0,104,104,116,1,sevenfive,,,,,,,,,,,,,,,,,,,,,,,,,,,,,,,,,,,,,,,,,,,,,,,,,,,,,,,,,,,,,,,,,,,,,,,,,,,,,,,,,,,,,,,,,,,,,,,,,,,,,,,,,,,,,,,,,,,,,,,,,,,,,,,,,,,,,,,,,
,,5fb82557efe4a54f452f74e8,2024-02-19_03h06.54.393,kallum_motion_pilot,2023.2.2,Win32,59.88023952,5fb82557efe4a54f452f74e8,65d2b6c8f2eece985d8e374c,65d2b79fd007f5631ea92ffa,0.0303,0.0303,0,105,105,35,1,twofour,,,,,,,,,,,,,,,,,,,,,,,,,,,,,,,,,,,,,,,,,,,,,,,,,,,,,,,,,,,,,,,,,,,,,,,,,,,,,,,,,,,,,,,,,,,,,,,,,,,,,,,,,,,,,,,,,,,,,,,,,,,,,,,,,,,,,,,,,
,,5fb82557efe4a54f452f74e8,2024-02-19_03h06.54.393,kallum_motion_pilot,2023.2.2,Win32,59.88023952,5fb82557efe4a54f452f74e8,65d2b6c8f2eece985d8e374c,65d2b79fd007f5631ea92ffa,0.0304,0.0305,0,106,106,138,1,sixfive,,,,,,,,,,,,,,,,,,,,,,,,,,,,,,,,,,,,,,,,,,,,,,,,,,,,,,,,,,,,,,,,,,,,,,,,,,,,,,,,,,,,,,,,,,,,,,,,,,,,,,,,,,,,,,,,,,,,,,,,,,,,,,,,,,,,,,,,,
,,5fb82557efe4a54f452f74e8,2024-02-19_03h06.54.393,kallum_motion_pilot,2023.2.2,Win32,59.88023952,5fb82557efe4a54f452f74e8,65d2b6c8f2eece985d8e374c,65d2b79fd007f5631ea92ffa,0.0305,0.0305,0,107,107,130,1,sixfive,,,,,,,,,,,,,,,,,,,,,,,,,,,,,,,,,,,,,,,,,,,,,,,,,,,,,,,,,,,,,,,,,,,,,,,,,,,,,,,,,,,,,,,,,,,,,,,,,,,,,,,,,,,,,,,,,,,,,,,,,,,,,,,,,,,,,,,,,
,,5fb82557efe4a54f452f74e8,2024-02-19_03h06.54.393,kallum_motion_pilot,2023.2.2,Win32,59.88023952,5fb82557efe4a54f452f74e8,65d2b6c8f2eece985d8e374c,65d2b79fd007f5631ea92ffa,0.0306,0.0307,0,108,108,126,1,eightsix,,,,,,,,,,,,,,,,,,,,,,,,,,,,,,,,,,,,,,,,,,,,,,,,,,,,,,,,,,,,,,,,,,,,,,,,,,,,,,,,,,,,,,,,,,,,,,,,,,,,,,,,,,,,,,,,,,,,,,,,,,,,,,,,,,,,,,,,,
,,5fb82557efe4a54f452f74e8,2024-02-19_03h06.54.393,kallum_motion_pilot,2023.2.2,Win32,59.88023952,5fb82557efe4a54f452f74e8,65d2b6c8f2eece985d8e374c,65d2b79fd007f5631ea92ffa,0.0308,0.0308,0,109,109,32,1,onetwo,,,,,,,,,,,,,,,,,,,,,,,,,,,,,,,,,,,,,,,,,,,,,,,,,,,,,,,,,,,,,,,,,,,,,,,,,,,,,,,,,,,,,,,,,,,,,,,,,,,,,,,,,,,,,,,,,,,,,,,,,,,,,,,,,,,,,,,,,
,,5fb82557efe4a54f452f74e8,2024-02-19_03h06.54.393,kallum_motion_pilot,2023.2.2,Win32,59.88023952,5fb82557efe4a54f452f74e8,65d2b6c8f2eece985d8e374c,65d2b79fd007f5631ea92ffa,0.0308,0.0308,0,110,110,98,1,sixfive,,,,,,,,,,,,,,,,,,,,,,,,,,,,,,,,,,,,,,,,,,,,,,,,,,,,,,,,,,,,,,,,,,,,,,,,,,,,,,,,,,,,,,,,,,,,,,,,,,,,,,,,,,,,,,,,,,,,,,,,,,,,,,,,,,,,,,,,,
,,5fb82557efe4a54f452f74e8,2024-02-19_03h06.54.393,kallum_motion_pilot,2023.2.2,Win32,59.88023952,5fb82557efe4a54f452f74e8,65d2b6c8f2eece985d8e374c,65d2b79fd007f5631ea92ffa,0.0309,0.0309,0,111,111,42,1,twoone,,,,,,,,,,,,,,,,,,,,,,,,,,,,,,,,,,,,,,,,,,,,,,,,,,,,,,,,,,,,,,,,,,,,,,,,,,,,,,,,,,,,,,,,,,,,,,,,,,,,,,,,,,,,,,,,,,,,,,,,,,,,,,,,,,,,,,,,,
,,5fb82557efe4a54f452f74e8,2024-02-19_03h06.54.393,kallum_motion_pilot,2023.2.2,Win32,59.88023952,5fb82557efe4a54f452f74e8,65d2b6c8f2eece985d8e374c,65d2b79fd007f5631ea92ffa,0.0309,0.031,0,112,112,107,1,sixeight,,,,,,,,,,,,,,,,,,,,,,,,,,,,,,,,,,,,,,,,,,,,,,,,,,,,,,,,,,,,,,,,,,,,,,,,,,,,,,,,,,,,,,,,,,,,,,,,,,,,,,,,,,,,,,,,,,,,,,,,,,,,,,,,,,,,,,,,,
,,5fb82557efe4a54f452f74e8,2024-02-19_03h06.54.393,kallum_motion_pilot,2023.2.2,Win32,59.88023952,5fb82557efe4a54f452f74e8,65d2b6c8f2eece985d8e374c,65d2b79fd007f5631ea92ffa,0.0311,0.0311,0,113,113,161,1,fiveseven,,,,,,,,,,,,,,,,,,,,,,,,,,,,,,,,,,,,,,,,,,,,,,,,,,,,,,,,,,,,,,,,,,,,,,,,,,,,,,,,,,,,,,,,,,,,,,,,,,,,,,,,,,,,,,,,,,,,,,,,,,,,,,,,,,,,,,,,,
,,5fb82557efe4a54f452f74e8,2024-02-19_03h06.54.393,kallum_motion_pilot,2023.2.2,Win32,59.88023952,5fb82557efe4a54f452f74e8,65d2b6c8f2eece985d8e374c,65d2b79fd007f5631ea92ffa,0.0311,0.0311,0,114,114,100,1,sevenfive,,,,,,,,,,,,,,,,,,,,,,,,,,,,,,,,,,,,,,,,,,,,,,,,,,,,,,,,,,,,,,,,,,,,,,,,,,,,,,,,,,,,,,,,,,,,,,,,,,,,,,,,,,,,,,,,,,,,,,,,,,,,,,,,,,,,,,,,,
,,5fb82557efe4a54f452f74e8,2024-02-19_03h06.54.393,kallum_motion_pilot,2023.2.2,Win32,59.88023952,5fb82557efe4a54f452f74e8,65d2b6c8f2eece985d8e374c,65d2b79fd007f5631ea92ffa,0.0311,0.0312,0,115,115,67,1,twofour,,,,,,,,,,,,,,,,,,,,,,,,,,,,,,,,,,,,,,,,,,,,,,,,,,,,,,,,,,,,,,,,,,,,,,,,,,,,,,,,,,,,,,,,,,,,,,,,,,,,,,,,,,,,,,,,,,,,,,,,,,,,,,,,,,,,,,,,,
,,5fb82557efe4a54f452f74e8,2024-02-19_03h06.54.393,kallum_motion_pilot,2023.2.2,Win32,59.88023952,5fb82557efe4a54f452f74e8,65d2b6c8f2eece985d8e374c,65d2b79fd007f5631ea92ffa,0.0312,0.0312,0,116,116,15,1,fourthree,,,,,,,,,,,,,,,,,,,,,,,,,,,,,,,,,,,,,,,,,,,,,,,,,,,,,,,,,,,,,,,,,,,,,,,,,,,,,,,,,,,,,,,,,,,,,,,,,,,,,,,,,,,,,,,,,,,,,,,,,,,,,,,,,,,,,,,,,
,,5fb82557efe4a54f452f74e8,2024-02-19_03h06.54.393,kallum_motion_pilot,2023.2.2,Win32,59.88023952,5fb82557efe4a54f452f74e8,65d2b6c8f2eece985d8e374c,65d2b79fd007f5631ea92ffa,0.0314,0.0314,0,117,117,112,1,fivesix,,,,,,,,,,,,,,,,,,,,,,,,,,,,,,,,,,,,,,,,,,,,,,,,,,,,,,,,,,,,,,,,,,,,,,,,,,,,,,,,,,,,,,,,,,,,,,,,,,,,,,,,,,,,,,,,,,,,,,,,,,,,,,,,,,,,,,,,,
,,5fb82557efe4a54f452f74e8,2024-02-19_03h06.54.393,kallum_motion_pilot,2023.2.2,Win32,59.88023952,5fb82557efe4a54f452f74e8,65d2b6c8f2eece985d8e374c,65d2b79fd007f5631ea92ffa,0.0314,0.0314,0,118,118,77,1,threefour,,,,,,,,,,,,,,,,,,,,,,,,,,,,,,,,,,,,,,,,,,,,,,,,,,,,,,,,,,,,,,,,,,,,,,,,,,,,,,,,,,,,,,,,,,,,,,,,,,,,,,,,,,,,,,,,,,,,,,,,,,,,,,,,,,,,,,,,,
,,5fb82557efe4a54f452f74e8,2024-02-19_03h06.54.393,kallum_motion_pilot,2023.2.2,Win32,59.88023952,5fb82557efe4a54f452f74e8,65d2b6c8f2eece985d8e374c,65d2b79fd007f5631ea92ffa,0.0314,0.0315,0,119,119,11,1,twofour,,,,,,,,,,,,,,,,,,,,,,,,,,,,,,,,,,,,,,,,,,,,,,,,,,,,,,,,,,,,,,,,,,,,,,,,,,,,,,,,,,,,,,,,,,,,,,,,,,,,,,,,,,,,,,,,,,,,,,,,,,,,,,,,,,,,,,,,,
,,5fb82557efe4a54f452f74e8,2024-02-19_03h06.54.393,kallum_motion_pilot,2023.2.2,Win32,59.88023952,5fb82557efe4a54f452f74e8,65d2b6c8f2eece985d8e374c,65d2b79fd007f5631ea92ffa,0.0316,0.0316,0,120,120,113,1,fiveseven,,,,,,,,,,,,,,,,,,,,,,,,,,,,,,,,,,,,,,,,,,,,,,,,,,,,,,,,,,,,,,,,,,,,,,,,,,,,,,,,,,,,,,,,,,,,,,,,,,,,,,,,,,,,,,,,,,,,,,,,,,,,,,,,,,,,,,,,,
,,5fb82557efe4a54f452f74e8,2024-02-19_03h06.54.393,kallum_motion_pilot,2023.2.2,Win32,59.88023952,5fb82557efe4a54f452f74e8,65d2b6c8f2eece985d8e374c,65d2b79fd007f5631ea92ffa,0.0316,0.0317,0,121,121,48,1,onetwo,,,,,,,,,,,,,,,,,,,,,,,,,,,,,,,,,,,,,,,,,,,,,,,,,,,,,,,,,,,,,,,,,,,,,,,,,,,,,,,,,,,,,,,,,,,,,,,,,,,,,,,,,,,,,,,,,,,,,,,,,,,,,,,,,,,,,,,,,
,,5fb82557efe4a54f452f74e8,2024-02-19_03h06.54.393,kallum_motion_pilot,2023.2.2,Win32,59.88023952,5fb82557efe4a54f452f74e8,65d2b6c8f2eece985d8e374c,65d2b79fd007f5631ea92ffa,0.0318,0.0318,0,122,122,22,1,fourtwo,,,,,,,,,,,,,,,,,,,,,,,,,,,,,,,,,,,,,,,,,,,,,,,,,,,,,,,,,,,,,,,,,,,,,,,,,,,,,,,,,,,,,,,,,,,,,,,,,,,,,,,,,,,,,,,,,,,,,,,,,,,,,,,,,,,,,,,,,
,,5fb82557efe4a54f452f74e8,2024-02-19_03h06.54.393,kallum_motion_pilot,2023.2.2,Win32,59.88023952,5fb82557efe4a54f452f74e8,65d2b6c8f2eece985d8e374c,65d2b79fd007f5631ea92ffa,0.0318,0.0319,0,123,123,105,1,fiveseven,,,,,,,,,,,,,,,,,,,,,,,,,,,,,,,,,,,,,,,,,,,,,,,,,,,,,,,,,,,,,,,,,,,,,,,,,,,,,,,,,,,,,,,,,,,,,,,,,,,,,,,,,,,,,,,,,,,,,,,,,,,,,,,,,,,,,,,,,
,,5fb82557efe4a54f452f74e8,2024-02-19_03h06.54.393,kallum_motion_pilot,2023.2.2,Win32,59.88023952,5fb82557efe4a54f452f74e8,65d2b6c8f2eece985d8e374c,65d2b79fd007f5631ea92ffa,0.0319,0.0319,0,124,124,111,1,eightseven,,,,,,,,,,,,,,,,,,,,,,,,,,,,,,,,,,,,,,,,,,,,,,,,,,,,,,,,,,,,,,,,,,,,,,,,,,,,,,,,,,,,,,,,,,,,,,,,,,,,,,,,,,,,,,,,,,,,,,,,,,,,,,,,,,,,,,,,,
,,5fb82557efe4a54f452f74e8,2024-02-19_03h06.54.393,kallum_motion_pilot,2023.2.2,Win32,59.88023952,5fb82557efe4a54f452f74e8,65d2b6c8f2eece985d8e374c,65d2b79fd007f5631ea92ffa,0.032,0.032,0,125,125,108,1,sevenfive,,,,,,,,,,,,,,,,,,,,,,,,,,,,,,,,,,,,,,,,,,,,,,,,,,,,,,,,,,,,,,,,,,,,,,,,,,,,,,,,,,,,,,,,,,,,,,,,,,,,,,,,,,,,,,,,,,,,,,,,,,,,,,,,,,,,,,,,,
,,5fb82557efe4a54f452f74e8,2024-02-19_03h06.54.393,kallum_motion_pilot,2023.2.2,Win32,59.88023952,5fb82557efe4a54f452f74e8,65d2b6c8f2eece985d8e374c,65d2b79fd007f5631ea92ffa,0.032,0.0321,0,126,126,45,1,threefour,,,,,,,,,,,,,,,,,,,,,,,,,,,,,,,,,,,,,,,,,,,,,,,,,,,,,,,,,,,,,,,,,,,,,,,,,,,,,,,,,,,,,,,,,,,,,,,,,,,,,,,,,,,,,,,,,,,,,,,,,,,,,,,,,,,,,,,,,
,,5fb82557efe4a54f452f74e8,2024-02-19_03h06.54.393,kallum_motion_pilot,2023.2.2,Win32,59.88023952,5fb82557efe4a54f452f74e8,65d2b6c8f2eece985d8e374c,65d2b79fd007f5631ea92ffa,0.0321,0.0321,0,127,127,12,1,threeone,,,,,,,,,,,,,,,,,,,,,,,,,,,,,,,,,,,,,,,,,,,,,,,,,,,,,,,,,,,,,,,,,,,,,,,,,,,,,,,,,,,,,,,,,,,,,,,,,,,,,,,,,,,,,,,,,,,,,,,,,,,,,,,,,,,,,,,,,
,,5fb82557efe4a54f452f74e8,2024-02-19_03h06.54.393,kallum_motion_pilot,2023.2.2,Win32,59.88023952,5fb82557efe4a54f452f74e8,65d2b6c8f2eece985d8e374c,65d2b79fd007f5631ea92ffa,0.0322,0.0322,0,128,128,106,1,sixfive,,,,,,,,,,,,,,,,,,,,,,,,,,,,,,,,,,,,,,,,,,,,,,,,,,,,,,,,,,,,,,,,,,,,,,,,,,,,,,,,,,,,,,,,,,,,,,,,,,,,,,,,,,,,,,,,,,,,,,,,,,,,,,,,,,,,,,,,,
,,5fb82557efe4a54f452f74e8,2024-02-19_03h06.54.393,kallum_motion_pilot,2023.2.2,Win32,59.88023952,5fb82557efe4a54f452f74e8,65d2b6c8f2eece985d8e374c,65d2b79fd007f5631ea92ffa,0.0323,0.0324,0,129,129,131,1,sixeight,,,,,,,,,,,,,,,,,,,,,,,,,,,,,,,,,,,,,,,,,,,,,,,,,,,,,,,,,,,,,,,,,,,,,,,,,,,,,,,,,,,,,,,,,,,,,,,,,,,,,,,,,,,,,,,,,,,,,,,,,,,,,,,,,,,,,,,,,
,,5fb82557efe4a54f452f74e8,2024-02-19_03h06.54.393,kallum_motion_pilot,2023.2.2,Win32,59.88023952,5fb82557efe4a54f452f74e8,65d2b6c8f2eece985d8e374c,65d2b79fd007f5631ea92ffa,0.0324,0.0326,0,130,130,149,1,seveneight,,,,,,,,,,,,,,,,,,,,,,,,,,,,,,,,,,,,,,,,,,,,,,,,,,,,,,,,,,,,,,,,,,,,,,,,,,,,,,,,,,,,,,,,,,,,,,,,,,,,,,,,,,,,,,,,,,,,,,,,,,,,,,,,,,,,,,,,,
,,5fb82557efe4a54f452f74e8,2024-02-19_03h06.54.393,kallum_motion_pilot,2023.2.2,Win32,59.88023952,5fb82557efe4a54f452f74e8,65d2b6c8f2eece985d8e374c,65d2b79fd007f5631ea92ffa,0.0327,0.0327,0,131,131,27,1,twofour,,,,,,,,,,,,,,,,,,,,,,,,,,,,,,,,,,,,,,,,,,,,,,,,,,,,,,,,,,,,,,,,,,,,,,,,,,,,,,,,,,,,,,,,,,,,,,,,,,,,,,,,,,,,,,,,,,,,,,,,,,,,,,,,,,,,,,,,,
,,5fb82557efe4a54f452f74e8,2024-02-19_03h06.54.393,kallum_motion_pilot,2023.2.2,Win32,59.88023952,5fb82557efe4a54f452f74e8,65d2b6c8f2eece985d8e374c,65d2b79fd007f5631ea92ffa,0.0327,0.0328,0,132,132,151,1,eightseven,,,,,,,,,,,,,,,,,,,,,,,,,,,,,,,,,,,,,,,,,,,,,,,,,,,,,,,,,,,,,,,,,,,,,,,,,,,,,,,,,,,,,,,,,,,,,,,,,,,,,,,,,,,,,,,,,,,,,,,,,,,,,,,,,,,,,,,,,
,,5fb82557efe4a54f452f74e8,2024-02-19_03h06.54.393,kallum_motion_pilot,2023.2.2,Win32,59.88023952,5fb82557efe4a54f452f74e8,65d2b6c8f2eece985d8e374c,65d2b79fd007f5631ea92ffa,0.0328,0.0328,0,133,133,137,1,fiveseven,,,,,,,,,,,,,,,,,,,,,,,,,,,,,,,,,,,,,,,,,,,,,,,,,,,,,,,,,,,,,,,,,,,,,,,,,,,,,,,,,,,,,,,,,,,,,,,,,,,,,,,,,,,,,,,,,,,,,,,,,,,,,,,,,,,,,,,,,
,,5fb82557efe4a54f452f74e8,2024-02-19_03h06.54.393,kallum_motion_pilot,2023.2.2,Win32,59.88023952,5fb82557efe4a54f452f74e8,65d2b6c8f2eece985d8e374c,65d2b79fd007f5631ea92ffa,0.0329,0.0329,0,134,134,46,1,fourtwo,,,,,,,,,,,,,,,,,,,,,,,,,,,,,,,,,,,,,,,,,,,,,,,,,,,,,,,,,,,,,,,,,,,,,,,,,,,,,,,,,,,,,,,,,,,,,,,,,,,,,,,,,,,,,,,,,,,,,,,,,,,,,,,,,,,,,,,,,
,,5fb82557efe4a54f452f74e8,2024-02-19_03h06.54.393,kallum_motion_pilot,2023.2.2,Win32,59.88023952,5fb82557efe4a54f452f74e8,65d2b6c8f2eece985d8e374c,65d2b79fd007f5631ea92ffa,0.0329,0.033,0,135,135,23,1,fourthree,,,,,,,,,,,,,,,,,,,,,,,,,,,,,,,,,,,,,,,,,,,,,,,,,,,,,,,,,,,,,,,,,,,,,,,,,,,,,,,,,,,,,,,,,,,,,,,,,,,,,,,,,,,,,,,,,,,,,,,,,,,,,,,,,,,,,,,,,
,,5fb82557efe4a54f452f74e8,2024-02-19_03h06.54.393,kallum_motion_pilot,2023.2.2,Win32,59.88023952,5fb82557efe4a54f452f74e8,65d2b6c8f2eece985d8e374c,65d2b79fd007f5631ea92ffa,0.0331,0.0331,0,136,136,43,1,twofour,,,,,,,,,,,,,,,,,,,,,,,,,,,,,,,,,,,,,,,,,,,,,,,,,,,,,,,,,,,,,,,,,,,,,,,,,,,,,,,,,,,,,,,,,,,,,,,,,,,,,,,,,,,,,,,,,,,,,,,,,,,,,,,,,,,,,,,,,
,,5fb82557efe4a54f452f74e8,2024-02-19_03h06.54.393,kallum_motion_pilot,2023.2.2,Win32,59.88023952,5fb82557efe4a54f452f74e8,65d2b6c8f2eece985d8e374c,65d2b79fd007f5631ea92ffa,0.0331,0.0331,0,137,137,17,1,onethree,,,,,,,,,,,,,,,,,,,,,,,,,,,,,,,,,,,,,,,,,,,,,,,,,,,,,,,,,,,,,,,,,,,,,,,,,,,,,,,,,,,,,,,,,,,,,,,,,,,,,,,,,,,,,,,,,,,,,,,,,,,,,,,,,,,,,,,,,
,,5fb82557efe4a54f452f74e8,2024-02-19_03h06.54.393,kallum_motion_pilot,2023.2.2,Win32,59.88023952,5fb82557efe4a54f452f74e8,65d2b6c8f2eece985d8e374c,65d2b79fd007f5631ea92ffa,0.0332,0.0333,0,138,138,73,1,onethree,,,,,,,,,,,,,,,,,,,,,,,,,,,,,,,,,,,,,,,,,,,,,,,,,,,,,,,,,,,,,,,,,,,,,,,,,,,,,,,,,,,,,,,,,,,,,,,,,,,,,,,,,,,,,,,,,,,,,,,,,,,,,,,,,,,,,,,,,
,,5fb82557efe4a54f452f74e8,2024-02-19_03h06.54.393,kallum_motion_pilot,2023.2.2,Win32,59.88023952,5fb82557efe4a54f452f74e8,65d2b6c8f2eece985d8e374c,65d2b79fd007f5631ea92ffa,0.0334,0.0334,0,139,139,114,1,sixfive,,,,,,,,,,,,,,,,,,,,,,,,,,,,,,,,,,,,,,,,,,,,,,,,,,,,,,,,,,,,,,,,,,,,,,,,,,,,,,,,,,,,,,,,,,,,,,,,,,,,,,,,,,,,,,,,,,,,,,,,,,,,,,,,,,,,,,,,,
,,5fb82557efe4a54f452f74e8,2024-02-19_03h06.54.393,kallum_motion_pilot,2023.2.2,Win32,59.88023952,5fb82557efe4a54f452f74e8,65d2b6c8f2eece985d8e374c,65d2b79fd007f5631ea92ffa,0.0336,0.0336,0,140,140,0,1,onetwo,,,,,,,,,,,,,,,,,,,,,,,,,,,,,,,,,,,,,,,,,,,,,,,,,,,,,,,,,,,,,,,,,,,,,,,,,,,,,,,,,,,,,,,,,,,,,,,,,,,,,,,,,,,,,,,,,,,,,,,,,,,,,,,,,,,,,,,,,
,,5fb82557efe4a54f452f74e8,2024-02-19_03h06.54.393,kallum_motion_pilot,2023.2.2,Win32,59.88023952,5fb82557efe4a54f452f74e8,65d2b6c8f2eece985d8e374c,65d2b79fd007f5631ea92ffa,0.0336,0.0336,0,141,141,84,1,sevenfive,,,,,,,,,,,,,,,,,,,,,,,,,,,,,,,,,,,,,,,,,,,,,,,,,,,,,,,,,,,,,,,,,,,,,,,,,,,,,,,,,,,,,,,,,,,,,,,,,,,,,,,,,,,,,,,,,,,,,,,,,,,,,,,,,,,,,,,,,
,,5fb82557efe4a54f452f74e8,2024-02-19_03h06.54.393,kallum_motion_pilot,2023.2.2,Win32,59.88023952,5fb82557efe4a54f452f74e8,65d2b6c8f2eece985d8e374c,65d2b79fd007f5631ea92ffa,0.0337,0.0338,0,142,142,156,1,sevenfive,,,,,,,,,,,,,,,,,,,,,,,,,,,,,,,,,,,,,,,,,,,,,,,,,,,,,,,,,,,,,,,,,,,,,,,,,,,,,,,,,,,,,,,,,,,,,,,,,,,,,,,,,,,,,,,,,,,,,,,,,,,,,,,,,,,,,,,,,
,,5fb82557efe4a54f452f74e8,2024-02-19_03h06.54.393,kallum_motion_pilot,2023.2.2,Win32,59.88023952,5fb82557efe4a54f452f74e8,65d2b6c8f2eece985d8e374c,65d2b79fd007f5631ea92ffa,0.0338,0.0339,0,143,143,66,1,twoone,,,,,,,,,,,,,,,,,,,,,,,,,,,,,,,,,,,,,,,,,,,,,,,,,,,,,,,,,,,,,,,,,,,,,,,,,,,,,,,,,,,,,,,,,,,,,,,,,,,,,,,,,,,,,,,,,,,,,,,,,,,,,,,,,,,,,,,,,
,,5fb82557efe4a54f452f74e8,2024-02-19_03h06.54.393,kallum_motion_pilot,2023.2.2,Win32,59.88023952,5fb82557efe4a54f452f74e8,65d2b6c8f2eece985d8e374c,65d2b79fd007f5631ea92ffa,0.0339,0.0339,0,144,144,5,1,threefour,,,,,,,,,,,,,,,,,,,,,,,,,,,,,,,,,,,,,,,,,,,,,,,,,,,,,,,,,,,,,,,,,,,,,,,,,,,,,,,,,,,,,,,,,,,,,,,,,,,,,,,,,,,,,,,,,,,,,,,,,,,,,,,,,,,,,,,,,
,,5fb82557efe4a54f452f74e8,2024-02-19_03h06.54.393,kallum_motion_pilot,2023.2.2,Win32,59.88023952,5fb82557efe4a54f452f74e8,65d2b6c8f2eece985d8e374c,65d2b79fd007f5631ea92ffa,0.0339,0.0341,0,145,145,55,1,fourthree,,,,,,,,,,,,,,,,,,,,,,,,,,,,,,,,,,,,,,,,,,,,,,,,,,,,,,,,,,,,,,,,,,,,,,,,,,,,,,,,,,,,,,,,,,,,,,,,,,,,,,,,,,,,,,,,,,,,,,,,,,,,,,,,,,,,,,,,,
,,5fb82557efe4a54f452f74e8,2024-02-19_03h06.54.393,kallum_motion_pilot,2023.2.2,Win32,59.88023952,5fb82557efe4a54f452f74e8,65d2b6c8f2eece985d8e374c,65d2b79fd007f5631ea92ffa,0.0341,0.0341,0,146,146,102,1,eightsix,,,,,,,,,,,,,,,,,,,,,,,,,,,,,,,,,,,,,,,,,,,,,,,,,,,,,,,,,,,,,,,,,,,,,,,,,,,,,,,,,,,,,,,,,,,,,,,,,,,,,,,,,,,,,,,,,,,,,,,,,,,,,,,,,,,,,,,,,
,,5fb82557efe4a54f452f74e8,2024-02-19_03h06.54.393,kallum_motion_pilot,2023.2.2,Win32,59.88023952,5fb82557efe4a54f452f74e8,65d2b6c8f2eece985d8e374c,65d2b79fd007f5631ea92ffa,0.0342,0.0342,0,147,147,115,1,sixeight,,,,,,,,,,,,,,,,,,,,,,,,,,,,,,,,,,,,,,,,,,,,,,,,,,,,,,,,,,,,,,,,,,,,,,,,,,,,,,,,,,,,,,,,,,,,,,,,,,,,,,,,,,,,,,,,,,,,,,,,,,,,,,,,,,,,,,,,,
,,5fb82557efe4a54f452f74e8,2024-02-19_03h06.54.393,kallum_motion_pilot,2023.2.2,Win32,59.88023952,5fb82557efe4a54f452f74e8,65d2b6c8f2eece985d8e374c,65d2b79fd007f5631ea92ffa,0.0342,0.0344,0,148,148,104,1,fivesix,,,,,,,,,,,,,,,,,,,,,,,,,,,,,,,,,,,,,,,,,,,,,,,,,,,,,,,,,,,,,,,,,,,,,,,,,,,,,,,,,,,,,,,,,,,,,,,,,,,,,,,,,,,,,,,,,,,,,,,,,,,,,,,,,,,,,,,,,
,,5fb82557efe4a54f452f74e8,2024-02-19_03h06.54.393,kallum_motion_pilot,2023.2.2,Win32,59.88023952,5fb82557efe4a54f452f74e8,65d2b6c8f2eece985d8e374c,65d2b79fd007f5631ea92ffa,0.0344,0.0344,0,149,149,134,1,eightsix,,,,,,,,,,,,,,,,,,,,,,,,,,,,,,,,,,,,,,,,,,,,,,,,,,,,,,,,,,,,,,,,,,,,,,,,,,,,,,,,,,,,,,,,,,,,,,,,,,,,,,,,,,,,,,,,,,,,,,,,,,,,,,,,,,,,,,,,,
,,5fb82557efe4a54f452f74e8,2024-02-19_03h06.54.393,kallum_motion_pilot,2023.2.2,Win32,59.88023952,5fb82557efe4a54f452f74e8,65d2b6c8f2eece985d8e374c,65d2b79fd007f5631ea92ffa,0.0345,0.0345,0,150,150,109,1,seveneight,,,,,,,,,,,,,,,,,,,,,,,,,,,,,,,,,,,,,,,,,,,,,,,,,,,,,,,,,,,,,,,,,,,,,,,,,,,,,,,,,,,,,,,,,,,,,,,,,,,,,,,,,,,,,,,,,,,,,,,,,,,,,,,,,,,,,,,,,
,,5fb82557efe4a54f452f74e8,2024-02-19_03h06.54.393,kallum_motion_pilot,2023.2.2,Win32,59.88023952,5fb82557efe4a54f452f74e8,65d2b6c8f2eece985d8e374c,65d2b79fd007f5631ea92ffa,0.0346,0.0346,0,151,151,87,1,eightseven,,,,,,,,,,,,,,,,,,,,,,,,,,,,,,,,,,,,,,,,,,,,,,,,,,,,,,,,,,,,,,,,,,,,,,,,,,,,,,,,,,,,,,,,,,,,,,,,,,,,,,,,,,,,,,,,,,,,,,,,,,,,,,,,,,,,,,,,,
,,5fb82557efe4a54f452f74e8,2024-02-19_03h06.54.393,kallum_motion_pilot,2023.2.2,Win32,59.88023952,5fb82557efe4a54f452f74e8,65d2b6c8f2eece985d8e374c,65d2b79fd007f5631ea92ffa,0.0346,0.0347,0,152,152,31,1,fourthree,,,,,,,,,,,,,,,,,,,,,,,,,,,,,,,,,,,,,,,,,,,,,,,,,,,,,,,,,,,,,,,,,,,,,,,,,,,,,,,,,,,,,,,,,,,,,,,,,,,,,,,,,,,,,,,,,,,,,,,,,,,,,,,,,,,,,,,,,
,,5fb82557efe4a54f452f74e8,2024-02-19_03h06.54.393,kallum_motion_pilot,2023.2.2,Win32,59.88023952,5fb82557efe4a54f452f74e8,65d2b6c8f2eece985d8e374c,65d2b79fd007f5631ea92ffa,0.0347,0.0347,0,153,153,57,1,onethree,,,,,,,,,,,,,,,,,,,,,,,,,,,,,,,,,,,,,,,,,,,,,,,,,,,,,,,,,,,,,,,,,,,,,,,,,,,,,,,,,,,,,,,,,,,,,,,,,,,,,,,,,,,,,,,,,,,,,,,,,,,,,,,,,,,,,,,,,
,,5fb82557efe4a54f452f74e8,2024-02-19_03h06.54.393,kallum_motion_pilot,2023.2.2,Win32,59.88023952,5fb82557efe4a54f452f74e8,65d2b6c8f2eece985d8e374c,65d2b79fd007f5631ea92ffa,0.0348,0.0348,0,154,154,94,1,eightsix,,,,,,,,,,,,,,,,,,,,,,,,,,,,,,,,,,,,,,,,,,,,,,,,,,,,,,,,,,,,,,,,,,,,,,,,,,,,,,,,,,,,,,,,,,,,,,,,,,,,,,,,,,,,,,,,,,,,,,,,,,,,,,,,,,,,,,,,,
,,5fb82557efe4a54f452f74e8,2024-02-19_03h06.54.393,kallum_motion_pilot,2023.2.2,Win32,59.88023952,5fb82557efe4a54f452f74e8,65d2b6c8f2eece985d8e374c,65d2b79fd007f5631ea92ffa,0.0348,0.0349,0,155,155,54,1,fourtwo,,,,,,,,,,,,,,,,,,,,,,,,,,,,,,,,,,,,,,,,,,,,,,,,,,,,,,,,,,,,,,,,,,,,,,,,,,,,,,,,,,,,,,,,,,,,,,,,,,,,,,,,,,,,,,,,,,,,,,,,,,,,,,,,,,,,,,,,,
,,5fb82557efe4a54f452f74e8,2024-02-19_03h06.54.393,kallum_motion_pilot,2023.2.2,Win32,59.88023952,5fb82557efe4a54f452f74e8,65d2b6c8f2eece985d8e374c,65d2b79fd007f5631ea92ffa,0.035,0.035,0,156,156,125,1,seveneight,,,,,,,,,,,,,,,,,,,,,,,,,,,,,,,,,,,,,,,,,,,,,,,,,,,,,,,,,,,,,,,,,,,,,,,,,,,,,,,,,,,,,,,,,,,,,,,,,,,,,,,,,,,,,,,,,,,,,,,,,,,,,,,,,,,,,,,,,
,,5fb82557efe4a54f452f74e8,2024-02-19_03h06.54.393,kallum_motion_pilot,2023.2.2,Win32,59.88023952,5fb82557efe4a54f452f74e8,65d2b6c8f2eece985d8e374c,65d2b79fd007f5631ea92ffa,0.0351,0.0351,0,157,157,65,1,onethree,,,,,,,,,,,,,,,,,,,,,,,,,,,,,,,,,,,,,,,,,,,,,,,,,,,,,,,,,,,,,,,,,,,,,,,,,,,,,,,,,,,,,,,,,,,,,,,,,,,,,,,,,,,,,,,,,,,,,,,,,,,,,,,,,,,,,,,,,
,,5fb82557efe4a54f452f74e8,2024-02-19_03h06.54.393,kallum_motion_pilot,2023.2.2,Win32,59.88023952,5fb82557efe4a54f452f74e8,65d2b6c8f2eece985d8e374c,65d2b79fd007f5631ea92ffa,0.0351,0.0351,0,158,158,36,1,threeone,,,,,,,,,,,,,,,,,,,,,,,,,,,,,,,,,,,,,,,,,,,,,,,,,,,,,,,,,,,,,,,,,,,,,,,,,,,,,,,,,,,,,,,,,,,,,,,,,,,,,,,,,,,,,,,,,,,,,,,,,,,,,,,,,,,,,,,,,
,,5fb82557efe4a54f452f74e8,2024-02-19_03h06.54.393,kallum_motion_pilot,2023.2.2,Win32,59.88023952,5fb82557efe4a54f452f74e8,65d2b6c8f2eece985d8e374c,65d2b79fd007f5631ea92ffa,0.0352,0.0353,0,159,159,93,1,seveneight,,,,,,,,,,,,,,,,,,,,,,,,,,,,,,,,,,,,,,,,,,,,,,,,,,,,,,,,,,,,,,,,,,,,,,,,,,,,,,,,,,,,,,,,,,,,,,,,,,,,,,,,,,,,,,,,,,,,,,,,,,,,,,,,,,,,,,,,,
,,5fb82557efe4a54f452f74e8,2024-02-19_03h06.54.393,kallum_motion_pilot,2023.2.2,Win32,59.88023952,5fb82557efe4a54f452f74e8,65d2b6c8f2eece985d8e374c,65d2b79fd007f5631ea92ffa,0.0353,0.0353,0,160,160,33,1,onethree,,,,,,,,,,,,,,,,,,,,,,,,,,,,,,,,,,,,,,,,,,,,,,,,,,,,,,,,,,,,,,,,,,,,,,,,,,,,,,,,,,,,,,,,,,,,,,,,,,,,,,,,,,,,,,,,,,,,,,,,,,,,,,,,,,,,,,,,,
,,5fb82557efe4a54f452f74e8,2024-02-19_03h06.54.393,kallum_motion_pilot,2023.2.2,Win32,59.88023952,5fb82557efe4a54f452f74e8,65d2b6c8f2eece985d8e374c,65d2b79fd007f5631ea92ffa,0.0353,0.0354,0,161,161,129,1,fiveseven,,,,,,,,,,,,,,,,,,,,,,,,,,,,,,,,,,,,,,,,,,,,,,,,,,,,,,,,,,,,,,,,,,,,,,,,,,,,,,,,,,,,,,,,,,,,,,,,,,,,,,,,,,,,,,,,,,,,,,,,,,,,,,,,,,,,,,,,,
,,5fb82557efe4a54f452f74e8,2024-02-19_03h06.54.393,kallum_motion_pilot,2023.2.2,Win32,59.88023952,5fb82557efe4a54f452f74e8,65d2b6c8f2eece985d8e374c,65d2b79fd007f5631ea92ffa,0.0355,0.0355,1,0,162,29,1,threefour,,,,,,,,,,,,,,,,,,,,,,,,,,,,,,,,,,,,,,,,,,,,,,,,,,,,,,,,,,,,,,,,,,,,,,,,,,,,,,,,,,,,,,,,,,,,,,,,,,,,,,,,,,,,,,,,,,,,,,,,,,,,,,,,,,,,,,,,,
,,5fb82557efe4a54f452f74e8,2024-02-19_03h06.54.393,kallum_motion_pilot,2023.2.2,Win32,59.88023952,5fb82557efe4a54f452f74e8,65d2b6c8f2eece985d8e374c,65d2b79fd007f5631ea92ffa,0.0356,0.0356,1,1,163,80,1,fivesix,,,,,,,,,,,,,,,,,,,,,,,,,,,,,,,,,,,,,,,,,,,,,,,,,,,,,,,,,,,,,,,,,,,,,,,,,,,,,,,,,,,,,,,,,,,,,,,,,,,,,,,,,,,,,,,,,,,,,,,,,,,,,,,,,,,,,,,,,
,,5fb82557efe4a54f452f74e8,2024-02-19_03h06.54.393,kallum_motion_pilot,2023.2.2,Win32,59.88023952,5fb82557efe4a54f452f74e8,65d2b6c8f2eece985d8e374c,65d2b79fd007f5631ea92ffa,0.0357,0.0357,1,2,164,99,1,sixeight,,,,,,,,,,,,,,,,,,,,,,,,,,,,,,,,,,,,,,,,,,,,,,,,,,,,,,,,,,,,,,,,,,,,,,,,,,,,,,,,,,,,,,,,,,,,,,,,,,,,,,,,,,,,,,,,,,,,,,,,,,,,,,,,,,,,,,,,,
,,5fb82557efe4a54f452f74e8,2024-02-19_03h06.54.393,kallum_motion_pilot,2023.2.2,Win32,59.88023952,5fb82557efe4a54f452f74e8,65d2b6c8f2eece985d8e374c,65d2b79fd007f5631ea92ffa,0.0357,0.0358,1,3,165,87,1,eightseven,,,,,,,,,,,,,,,,,,,,,,,,,,,,,,,,,,,,,,,,,,,,,,,,,,,,,,,,,,,,,,,,,,,,,,,,,,,,,,,,,,,,,,,,,,,,,,,,,,,,,,,,,,,,,,,,,,,,,,,,,,,,,,,,,,,,,,,,,
,,5fb82557efe4a54f452f74e8,2024-02-19_03h06.54.393,kallum_motion_pilot,2023.2.2,Win32,59.88023952,5fb82557efe4a54f452f74e8,65d2b6c8f2eece985d8e374c,65d2b79fd007f5631ea92ffa,0.0358,0.0358,1,4,166,85,1,seveneight,,,,,,,,,,,,,,,,,,,,,,,,,,,,,,,,,,,,,,,,,,,,,,,,,,,,,,,,,,,,,,,,,,,,,,,,,,,,,,,,,,,,,,,,,,,,,,,,,,,,,,,,,,,,,,,,,,,,,,,,,,,,,,,,,,,,,,,,,
,,5fb82557efe4a54f452f74e8,2024-02-19_03h06.54.393,kallum_motion_pilot,2023.2.2,Win32,59.88023952,5fb82557efe4a54f452f74e8,65d2b6c8f2eece985d8e374c,65d2b79fd007f5631ea92ffa,0.036,0.036,1,5,167,117,1,seveneight,,,,,,,,,,,,,,,,,,,,,,,,,,,,,,,,,,,,,,,,,,,,,,,,,,,,,,,,,,,,,,,,,,,,,,,,,,,,,,,,,,,,,,,,,,,,,,,,,,,,,,,,,,,,,,,,,,,,,,,,,,,,,,,,,,,,,,,,,
,,5fb82557efe4a54f452f74e8,2024-02-19_03h06.54.393,kallum_motion_pilot,2023.2.2,Win32,59.88023952,5fb82557efe4a54f452f74e8,65d2b6c8f2eece985d8e374c,65d2b79fd007f5631ea92ffa,0.036,0.036,1,6,168,25,1,onethree,,,,,,,,,,,,,,,,,,,,,,,,,,,,,,,,,,,,,,,,,,,,,,,,,,,,,,,,,,,,,,,,,,,,,,,,,,,,,,,,,,,,,,,,,,,,,,,,,,,,,,,,,,,,,,,,,,,,,,,,,,,,,,,,,,,,,,,,,
,,5fb82557efe4a54f452f74e8,2024-02-19_03h06.54.393,kallum_motion_pilot,2023.2.2,Win32,59.88023952,5fb82557efe4a54f452f74e8,65d2b6c8f2eece985d8e374c,65d2b79fd007f5631ea92ffa,0.0361,0.0361,1,7,169,84,1,sevenfive,,,,,,,,,,,,,,,,,,,,,,,,,,,,,,,,,,,,,,,,,,,,,,,,,,,,,,,,,,,,,,,,,,,,,,,,,,,,,,,,,,,,,,,,,,,,,,,,,,,,,,,,,,,,,,,,,,,,,,,,,,,,,,,,,,,,,,,,,
,,5fb82557efe4a54f452f74e8,2024-02-19_03h06.54.393,kallum_motion_pilot,2023.2.2,Win32,59.88023952,5fb82557efe4a54f452f74e8,65d2b6c8f2eece985d8e374c,65d2b79fd007f5631ea92ffa,0.0362,0.0362,1,8,170,39,1,fourthree,,,,,,,,,,,,,,,,,,,,,,,,,,,,,,,,,,,,,,,,,,,,,,,,,,,,,,,,,,,,,,,,,,,,,,,,,,,,,,,,,,,,,,,,,,,,,,,,,,,,,,,,,,,,,,,,,,,,,,,,,,,,,,,,,,,,,,,,,
,,5fb82557efe4a54f452f74e8,2024-02-19_03h06.54.393,kallum_motion_pilot,2023.2.2,Win32,59.88023952,5fb82557efe4a54f452f74e8,65d2b6c8f2eece985d8e374c,65d2b79fd007f5631ea92ffa,0.0363,0.0363,1,9,171,41,1,onethree,,,,,,,,,,,,,,,,,,,,,,,,,,,,,,,,,,,,,,,,,,,,,,,,,,,,,,,,,,,,,,,,,,,,,,,,,,,,,,,,,,,,,,,,,,,,,,,,,,,,,,,,,,,,,,,,,,,,,,,,,,,,,,,,,,,,,,,,,
,,5fb82557efe4a54f452f74e8,2024-02-19_03h06.54.393,kallum_motion_pilot,2023.2.2,Win32,59.88023952,5fb82557efe4a54f452f74e8,65d2b6c8f2eece985d8e374c,65d2b79fd007f5631ea92ffa,0.0364,0.0364,1,10,172,161,1,fiveseven,,,,,,,,,,,,,,,,,,,,,,,,,,,,,,,,,,,,,,,,,,,,,,,,,,,,,,,,,,,,,,,,,,,,,,,,,,,,,,,,,,,,,,,,,,,,,,,,,,,,,,,,,,,,,,,,,,,,,,,,,,,,,,,,,,,,,,,,,
,,5fb82557efe4a54f452f74e8,2024-02-19_03h06.54.393,kallum_motion_pilot,2023.2.2,Win32,59.88023952,5fb82557efe4a54f452f74e8,65d2b6c8f2eece985d8e374c,65d2b79fd007f5631ea92ffa,0.0364,0.0364,1,11,173,116,1,sevenfive,,,,,,,,,,,,,,,,,,,,,,,,,,,,,,,,,,,,,,,,,,,,,,,,,,,,,,,,,,,,,,,,,,,,,,,,,,,,,,,,,,,,,,,,,,,,,,,,,,,,,,,,,,,,,,,,,,,,,,,,,,,,,,,,,,,,,,,,,
,,5fb82557efe4a54f452f74e8,2024-02-19_03h06.54.393,kallum_motion_pilot,2023.2.2,Win32,59.88023952,5fb82557efe4a54f452f74e8,65d2b6c8f2eece985d8e374c,65d2b79fd007f5631ea92ffa,0.0365,0.0366,1,12,174,92,1,sevenfive,,,,,,,,,,,,,,,,,,,,,,,,,,,,,,,,,,,,,,,,,,,,,,,,,,,,,,,,,,,,,,,,,,,,,,,,,,,,,,,,,,,,,,,,,,,,,,,,,,,,,,,,,,,,,,,,,,,,,,,,,,,,,,,,,,,,,,,,,
,,5fb82557efe4a54f452f74e8,2024-02-19_03h06.54.393,kallum_motion_pilot,2023.2.2,Win32,59.88023952,5fb82557efe4a54f452f74e8,65d2b6c8f2eece985d8e374c,65d2b79fd007f5631ea92ffa,0.0366,0.0366,1,13,175,24,1,onetwo,,,,,,,,,,,,,,,,,,,,,,,,,,,,,,,,,,,,,,,,,,,,,,,,,,,,,,,,,,,,,,,,,,,,,,,,,,,,,,,,,,,,,,,,,,,,,,,,,,,,,,,,,,,,,,,,,,,,,,,,,,,,,,,,,,,,,,,,,
,,5fb82557efe4a54f452f74e8,2024-02-19_03h06.54.393,kallum_motion_pilot,2023.2.2,Win32,59.88023952,5fb82557efe4a54f452f74e8,65d2b6c8f2eece985d8e374c,65d2b79fd007f5631ea92ffa,0.0367,0.0368,1,14,176,9,1,onethree,,,,,,,,,,,,,,,,,,,,,,,,,,,,,,,,,,,,,,,,,,,,,,,,,,,,,,,,,,,,,,,,,,,,,,,,,,,,,,,,,,,,,,,,,,,,,,,,,,,,,,,,,,,,,,,,,,,,,,,,,,,,,,,,,,,,,,,,,
,,5fb82557efe4a54f452f74e8,2024-02-19_03h06.54.393,kallum_motion_pilot,2023.2.2,Win32,59.88023952,5fb82557efe4a54f452f74e8,65d2b6c8f2eece985d8e374c,65d2b79fd007f5631ea92ffa,0.0368,0.0368,1,15,177,36,1,threeone,,,,,,,,,,,,,,,,,,,,,,,,,,,,,,,,,,,,,,,,,,,,,,,,,,,,,,,,,,,,,,,,,,,,,,,,,,,,,,,,,,,,,,,,,,,,,,,,,,,,,,,,,,,,,,,,,,,,,,,,,,,,,,,,,,,,,,,,,
,,5fb82557efe4a54f452f74e8,2024-02-19_03h06.54.393,kallum_motion_pilot,2023.2.2,Win32,59.88023952,5fb82557efe4a54f452f74e8,65d2b6c8f2eece985d8e374c,65d2b79fd007f5631ea92ffa,0.0369,0.037,1,16,178,111,1,eightseven,,,,,,,,,,,,,,,,,,,,,,,,,,,,,,,,,,,,,,,,,,,,,,,,,,,,,,,,,,,,,,,,,,,,,,,,,,,,,,,,,,,,,,,,,,,,,,,,,,,,,,,,,,,,,,,,,,,,,,,,,,,,,,,,,,,,,,,,,
,,5fb82557efe4a54f452f74e8,2024-02-19_03h06.54.393,kallum_motion_pilot,2023.2.2,Win32,59.88023952,5fb82557efe4a54f452f74e8,65d2b6c8f2eece985d8e374c,65d2b79fd007f5631ea92ffa,0.0375,0.0375,1,17,179,31,1,fourthree,,,,,,,,,,,,,,,,,,,,,,,,,,,,,,,,,,,,,,,,,,,,,,,,,,,,,,,,,,,,,,,,,,,,,,,,,,,,,,,,,,,,,,,,,,,,,,,,,,,,,,,,,,,,,,,,,,,,,,,,,,,,,,,,,,,,,,,,,
,,5fb82557efe4a54f452f74e8,2024-02-19_03h06.54.393,kallum_motion_pilot,2023.2.2,Win32,59.88023952,5fb82557efe4a54f452f74e8,65d2b6c8f2eece985d8e374c,65d2b79fd007f5631ea92ffa,0.0377,0.0377,1,18,180,140,1,sevenfive,,,,,,,,,,,,,,,,,,,,,,,,,,,,,,,,,,,,,,,,,,,,,,,,,,,,,,,,,,,,,,,,,,,,,,,,,,,,,,,,,,,,,,,,,,,,,,,,,,,,,,,,,,,,,,,,,,,,,,,,,,,,,,,,,,,,,,,,,
,,5fb82557efe4a54f452f74e8,2024-02-19_03h06.54.393,kallum_motion_pilot,2023.2.2,Win32,59.88023952,5fb82557efe4a54f452f74e8,65d2b6c8f2eece985d8e374c,65d2b79fd007f5631ea92ffa,0.0377,0.0377,1,19,181,113,1,fiveseven,,,,,,,,,,,,,,,,,,,,,,,,,,,,,,,,,,,,,,,,,,,,,,,,,,,,,,,,,,,,,,,,,,,,,,,,,,,,,,,,,,,,,,,,,,,,,,,,,,,,,,,,,,,,,,,,,,,,,,,,,,,,,,,,,,,,,,,,,
,,5fb82557efe4a54f452f74e8,2024-02-19_03h06.54.393,kallum_motion_pilot,2023.2.2,Win32,59.88023952,5fb82557efe4a54f452f74e8,65d2b6c8f2eece985d8e374c,65d2b79fd007f5631ea92ffa,0.0378,0.0378,1,20,182,96,1,fivesix,,,,,,,,,,,,,,,,,,,,,,,,,,,,,,,,,,,,,,,,,,,,,,,,,,,,,,,,,,,,,,,,,,,,,,,,,,,,,,,,,,,,,,,,,,,,,,,,,,,,,,,,,,,,,,,,,,,,,,,,,,,,,,,,,,,,,,,,,
,,5fb82557efe4a54f452f74e8,2024-02-19_03h06.54.393,kallum_motion_pilot,2023.2.2,Win32,59.88023952,5fb82557efe4a54f452f74e8,65d2b6c8f2eece985d8e374c,65d2b79fd007f5631ea92ffa,0.0379,0.0379,1,21,183,115,1,sixeight,,,,,,,,,,,,,,,,,,,,,,,,,,,,,,,,,,,,,,,,,,,,,,,,,,,,,,,,,,,,,,,,,,,,,,,,,,,,,,,,,,,,,,,,,,,,,,,,,,,,,,,,,,,,,,,,,,,,,,,,,,,,,,,,,,,,,,,,,
,,5fb82557efe4a54f452f74e8,2024-02-19_03h06.54.393,kallum_motion_pilot,2023.2.2,Win32,59.88023952,5fb82557efe4a54f452f74e8,65d2b6c8f2eece985d8e374c,65d2b79fd007f5631ea92ffa,0.038,0.038,1,22,184,137,1,fiveseven,,,,,,,,,,,,,,,,,,,,,,,,,,,,,,,,,,,,,,,,,,,,,,,,,,,,,,,,,,,,,,,,,,,,,,,,,,,,,,,,,,,,,,,,,,,,,,,,,,,,,,,,,,,,,,,,,,,,,,,,,,,,,,,,,,,,,,,,,
,,5fb82557efe4a54f452f74e8,2024-02-19_03h06.54.393,kallum_motion_pilot,2023.2.2,Win32,59.88023952,5fb82557efe4a54f452f74e8,65d2b6c8f2eece985d8e374c,65d2b79fd007f5631ea92ffa,0.0381,0.0381,1,23,185,98,1,sixfive,,,,,,,,,,,,,,,,,,,,,,,,,,,,,,,,,,,,,,,,,,,,,,,,,,,,,,,,,,,,,,,,,,,,,,,,,,,,,,,,,,,,,,,,,,,,,,,,,,,,,,,,,,,,,,,,,,,,,,,,,,,,,,,,,,,,,,,,,
,,5fb82557efe4a54f452f74e8,2024-02-19_03h06.54.393,kallum_motion_pilot,2023.2.2,Win32,59.88023952,5fb82557efe4a54f452f74e8,65d2b6c8f2eece985d8e374c,65d2b79fd007f5631ea92ffa,0.0382,0.0382,1,24,186,13,1,threefour,,,,,,,,,,,,,,,,,,,,,,,,,,,,,,,,,,,,,,,,,,,,,,,,,,,,,,,,,,,,,,,,,,,,,,,,,,,,,,,,,,,,,,,,,,,,,,,,,,,,,,,,,,,,,,,,,,,,,,,,,,,,,,,,,,,,,,,,,
,,5fb82557efe4a54f452f74e8,2024-02-19_03h06.54.393,kallum_motion_pilot,2023.2.2,Win32,59.88023952,5fb82557efe4a54f452f74e8,65d2b6c8f2eece985d8e374c,65d2b79fd007f5631ea92ffa,0.0383,0.0383,1,25,187,42,1,twoone,,,,,,,,,,,,,,,,,,,,,,,,,,,,,,,,,,,,,,,,,,,,,,,,,,,,,,,,,,,,,,,,,,,,,,,,,,,,,,,,,,,,,,,,,,,,,,,,,,,,,,,,,,,,,,,,,,,,,,,,,,,,,,,,,,,,,,,,,
,,5fb82557efe4a54f452f74e8,2024-02-19_03h06.54.393,kallum_motion_pilot,2023.2.2,Win32,59.88023952,5fb82557efe4a54f452f74e8,65d2b6c8f2eece985d8e374c,65d2b79fd007f5631ea92ffa,0.0384,0.0384,1,26,188,18,1,twoone,,,,,,,,,,,,,,,,,,,,,,,,,,,,,,,,,,,,,,,,,,,,,,,,,,,,,,,,,,,,,,,,,,,,,,,,,,,,,,,,,,,,,,,,,,,,,,,,,,,,,,,,,,,,,,,,,,,,,,,,,,,,,,,,,,,,,,,,,
,,5fb82557efe4a54f452f74e8,2024-02-19_03h06.54.393,kallum_motion_pilot,2023.2.2,Win32,59.88023952,5fb82557efe4a54f452f74e8,65d2b6c8f2eece985d8e374c,65d2b79fd007f5631ea92ffa,0.0384,0.0385,1,27,189,74,1,twoone,,,,,,,,,,,,,,,,,,,,,,,,,,,,,,,,,,,,,,,,,,,,,,,,,,,,,,,,,,,,,,,,,,,,,,,,,,,,,,,,,,,,,,,,,,,,,,,,,,,,,,,,,,,,,,,,,,,,,,,,,,,,,,,,,,,,,,,,,
,,5fb82557efe4a54f452f74e8,2024-02-19_03h06.54.393,kallum_motion_pilot,2023.2.2,Win32,59.88023952,5fb82557efe4a54f452f74e8,65d2b6c8f2eece985d8e374c,65d2b79fd007f5631ea92ffa,0.0386,0.0386,1,28,190,20,1,threeone,,,,,,,,,,,,,,,,,,,,,,,,,,,,,,,,,,,,,,,,,,,,,,,,,,,,,,,,,,,,,,,,,,,,,,,,,,,,,,,,,,,,,,,,,,,,,,,,,,,,,,,,,,,,,,,,,,,,,,,,,,,,,,,,,,,,,,,,,
,,5fb82557efe4a54f452f74e8,2024-02-19_03h06.54.393,kallum_motion_pilot,2023.2.2,Win32,59.88023952,5fb82557efe4a54f452f74e8,65d2b6c8f2eece985d8e374c,65d2b79fd007f5631ea92ffa,0.0387,0.0387,1,29,191,53,1,threefour,,,,,,,,,,,,,,,,,,,,,,,,,,,,,,,,,,,,,,,,,,,,,,,,,,,,,,,,,,,,,,,,,,,,,,,,,,,,,,,,,,,,,,,,,,,,,,,,,,,,,,,,,,,,,,,,,,,,,,,,,,,,,,,,,,,,,,,,,
,,5fb82557efe4a54f452f74e8,2024-02-19_03h06.54.393,kallum_motion_pilot,2023.2.2,Win32,59.88023952,5fb82557efe4a54f452f74e8,65d2b6c8f2eece985d8e374c,65d2b79fd007f5631ea92ffa,0.0387,0.0388,1,30,192,17,1,onethree,,,,,,,,,,,,,,,,,,,,,,,,,,,,,,,,,,,,,,,,,,,,,,,,,,,,,,,,,,,,,,,,,,,,,,,,,,,,,,,,,,,,,,,,,,,,,,,,,,,,,,,,,,,,,,,,,,,,,,,,,,,,,,,,,,,,,,,,,
,,5fb82557efe4a54f452f74e8,2024-02-19_03h06.54.393,kallum_motion_pilot,2023.2.2,Win32,59.88023952,5fb82557efe4a54f452f74e8,65d2b6c8f2eece985d8e374c,65d2b79fd007f5631ea92ffa,0.0389,0.0389,1,31,193,4,1,threeone,,,,,,,,,,,,,,,,,,,,,,,,,,,,,,,,,,,,,,,,,,,,,,,,,,,,,,,,,,,,,,,,,,,,,,,,,,,,,,,,,,,,,,,,,,,,,,,,,,,,,,,,,,,,,,,,,,,,,,,,,,,,,,,,,,,,,,,,,
,,5fb82557efe4a54f452f74e8,2024-02-19_03h06.54.393,kallum_motion_pilot,2023.2.2,Win32,59.88023952,5fb82557efe4a54f452f74e8,65d2b6c8f2eece985d8e374c,65d2b79fd007f5631ea92ffa,0.0389,0.039,1,32,194,67,1,twofour,,,,,,,,,,,,,,,,,,,,,,,,,,,,,,,,,,,,,,,,,,,,,,,,,,,,,,,,,,,,,,,,,,,,,,,,,,,,,,,,,,,,,,,,,,,,,,,,,,,,,,,,,,,,,,,,,,,,,,,,,,,,,,,,,,,,,,,,,
,,5fb82557efe4a54f452f74e8,2024-02-19_03h06.54.393,kallum_motion_pilot,2023.2.2,Win32,59.88023952,5fb82557efe4a54f452f74e8,65d2b6c8f2eece985d8e374c,65d2b79fd007f5631ea92ffa,0.039,0.0391,1,33,195,54,1,fourtwo,,,,,,,,,,,,,,,,,,,,,,,,,,,,,,,,,,,,,,,,,,,,,,,,,,,,,,,,,,,,,,,,,,,,,,,,,,,,,,,,,,,,,,,,,,,,,,,,,,,,,,,,,,,,,,,,,,,,,,,,,,,,,,,,,,,,,,,,,
,,5fb82557efe4a54f452f74e8,2024-02-19_03h06.54.393,kallum_motion_pilot,2023.2.2,Win32,59.88023952,5fb82557efe4a54f452f74e8,65d2b6c8f2eece985d8e374c,65d2b79fd007f5631ea92ffa,0.0391,0.0392,1,34,196,10,1,twoone,,,,,,,,,,,,,,,,,,,,,,,,,,,,,,,,,,,,,,,,,,,,,,,,,,,,,,,,,,,,,,,,,,,,,,,,,,,,,,,,,,,,,,,,,,,,,,,,,,,,,,,,,,,,,,,,,,,,,,,,,,,,,,,,,,,,,,,,,
,,5fb82557efe4a54f452f74e8,2024-02-19_03h06.54.393,kallum_motion_pilot,2023.2.2,Win32,59.88023952,5fb82557efe4a54f452f74e8,65d2b6c8f2eece985d8e374c,65d2b79fd007f5631ea92ffa,0.0393,0.0393,1,35,197,12,1,threeone,,,,,,,,,,,,,,,,,,,,,,,,,,,,,,,,,,,,,,,,,,,,,,,,,,,,,,,,,,,,,,,,,,,,,,,,,,,,,,,,,,,,,,,,,,,,,,,,,,,,,,,,,,,,,,,,,,,,,,,,,,,,,,,,,,,,,,,,,
,,5fb82557efe4a54f452f74e8,2024-02-19_03h06.54.393,kallum_motion_pilot,2023.2.2,Win32,59.88023952,5fb82557efe4a54f452f74e8,65d2b6c8f2eece985d8e374c,65d2b79fd007f5631ea92ffa,0.0393,0.0394,1,36,198,148,1,sevenfive,,,,,,,,,,,,,,,,,,,,,,,,,,,,,,,,,,,,,,,,,,,,,,,,,,,,,,,,,,,,,,,,,,,,,,,,,,,,,,,,,,,,,,,,,,,,,,,,,,,,,,,,,,,,,,,,,,,,,,,,,,,,,,,,,,,,,,,,,
,,5fb82557efe4a54f452f74e8,2024-02-19_03h06.54.393,kallum_motion_pilot,2023.2.2,Win32,59.88023952,5fb82557efe4a54f452f74e8,65d2b6c8f2eece985d8e374c,65d2b79fd007f5631ea92ffa,0.0394,0.0396,1,37,199,81,1,fiveseven,,,,,,,,,,,,,,,,,,,,,,,,,,,,,,,,,,,,,,,,,,,,,,,,,,,,,,,,,,,,,,,,,,,,,,,,,,,,,,,,,,,,,,,,,,,,,,,,,,,,,,,,,,,,,,,,,,,,,,,,,,,,,,,,,,,,,,,,,
,,5fb82557efe4a54f452f74e8,2024-02-19_03h06.54.393,kallum_motion_pilot,2023.2.2,Win32,59.88023952,5fb82557efe4a54f452f74e8,65d2b6c8f2eece985d8e374c,65d2b79fd007f5631ea92ffa,0.0396,0.0396,1,38,200,40,1,onetwo,,,,,,,,,,,,,,,,,,,,,,,,,,,,,,,,,,,,,,,,,,,,,,,,,,,,,,,,,,,,,,,,,,,,,,,,,,,,,,,,,,,,,,,,,,,,,,,,,,,,,,,,,,,,,,,,,,,,,,,,,,,,,,,,,,,,,,,,,
,,5fb82557efe4a54f452f74e8,2024-02-19_03h06.54.393,kallum_motion_pilot,2023.2.2,Win32,59.88023952,5fb82557efe4a54f452f74e8,65d2b6c8f2eece985d8e374c,65d2b79fd007f5631ea92ffa,0.0397,0.0397,1,39,201,5,1,threefour,,,,,,,,,,,,,,,,,,,,,,,,,,,,,,,,,,,,,,,,,,,,,,,,,,,,,,,,,,,,,,,,,,,,,,,,,,,,,,,,,,,,,,,,,,,,,,,,,,,,,,,,,,,,,,,,,,,,,,,,,,,,,,,,,,,,,,,,,
,,5fb82557efe4a54f452f74e8,2024-02-19_03h06.54.393,kallum_motion_pilot,2023.2.2,Win32,59.88023952,5fb82557efe4a54f452f74e8,65d2b6c8f2eece985d8e374c,65d2b79fd007f5631ea92ffa,0.0398,0.0398,1,40,202,3,1,twofour,,,,,,,,,,,,,,,,,,,,,,,,,,,,,,,,,,,,,,,,,,,,,,,,,,,,,,,,,,,,,,,,,,,,,,,,,,,,,,,,,,,,,,,,,,,,,,,,,,,,,,,,,,,,,,,,,,,,,,,,,,,,,,,,,,,,,,,,,
,,5fb82557efe4a54f452f74e8,2024-02-19_03h06.54.393,kallum_motion_pilot,2023.2.2,Win32,59.88023952,5fb82557efe4a54f452f74e8,65d2b6c8f2eece985d8e374c,65d2b79fd007f5631ea92ffa,0.0398,0.0398,1,41,203,34,1,twoone,,,,,,,,,,,,,,,,,,,,,,,,,,,,,,,,,,,,,,,,,,,,,,,,,,,,,,,,,,,,,,,,,,,,,,,,,,,,,,,,,,,,,,,,,,,,,,,,,,,,,,,,,,,,,,,,,,,,,,,,,,,,,,,,,,,,,,,,,
,,5fb82557efe4a54f452f74e8,2024-02-19_03h06.54.393,kallum_motion_pilot,2023.2.2,Win32,59.88023952,5fb82557efe4a54f452f74e8,65d2b6c8f2eece985d8e374c,65d2b79fd007f5631ea92ffa,0.0399,0.0399,1,42,204,23,1,fourthree,,,,,,,,,,,,,,,,,,,,,,,,,,,,,,,,,,,,,,,,,,,,,,,,,,,,,,,,,,,,,,,,,,,,,,,,,,,,,,,,,,,,,,,,,,,,,,,,,,,,,,,,,,,,,,,,,,,,,,,,,,,,,,,,,,,,,,,,,
,,5fb82557efe4a54f452f74e8,2024-02-19_03h06.54.393,kallum_motion_pilot,2023.2.2,Win32,59.88023952,5fb82557efe4a54f452f74e8,65d2b6c8f2eece985d8e374c,65d2b79fd007f5631ea92ffa,0.04,0.0401,1,43,205,128,1,fivesix,,,,,,,,,,,,,,,,,,,,,,,,,,,,,,,,,,,,,,,,,,,,,,,,,,,,,,,,,,,,,,,,,,,,,,,,,,,,,,,,,,,,,,,,,,,,,,,,,,,,,,,,,,,,,,,,,,,,,,,,,,,,,,,,,,,,,,,,,
,,5fb82557efe4a54f452f74e8,2024-02-19_03h06.54.393,kallum_motion_pilot,2023.2.2,Win32,59.88023952,5fb82557efe4a54f452f74e8,65d2b6c8f2eece985d8e374c,65d2b79fd007f5631ea92ffa,0.0401,0.0401,1,44,206,73,1,onethree,,,,,,,,,,,,,,,,,,,,,,,,,,,,,,,,,,,,,,,,,,,,,,,,,,,,,,,,,,,,,,,,,,,,,,,,,,,,,,,,,,,,,,,,,,,,,,,,,,,,,,,,,,,,,,,,,,,,,,,,,,,,,,,,,,,,,,,,,
,,5fb82557efe4a54f452f74e8,2024-02-19_03h06.54.393,kallum_motion_pilot,2023.2.2,Win32,59.88023952,5fb82557efe4a54f452f74e8,65d2b6c8f2eece985d8e374c,65d2b79fd007f5631ea92ffa,0.0402,0.0402,1,45,207,56,1,onetwo,,,,,,,,,,,,,,,,,,,,,,,,,,,,,,,,,,,,,,,,,,,,,,,,,,,,,,,,,,,,,,,,,,,,,,,,,,,,,,,,,,,,,,,,,,,,,,,,,,,,,,,,,,,,,,,,,,,,,,,,,,,,,,,,,,,,,,,,,
,,5fb82557efe4a54f452f74e8,2024-02-19_03h06.54.393,kallum_motion_pilot,2023.2.2,Win32,59.88023952,5fb82557efe4a54f452f74e8,65d2b6c8f2eece985d8e374c,65d2b79fd007f5631ea92ffa,0.0403,0.0403,1,46,208,135,1,eightseven,,,,,,,,,,,,,,,,,,,,,,,,,,,,,,,,,,,,,,,,,,,,,,,,,,,,,,,,,,,,,,,,,,,,,,,,,,,,,,,,,,,,,,,,,,,,,,,,,,,,,,,,,,,,,,,,,,,,,,,,,,,,,,,,,,,,,,,,,
,,5fb82557efe4a54f452f74e8,2024-02-19_03h06.54.393,kallum_motion_pilot,2023.2.2,Win32,59.88023952,5fb82557efe4a54f452f74e8,65d2b6c8f2eece985d8e374c,65d2b79fd007f5631ea92ffa,0.0403,0.0404,1,47,209,58,1,twoone,,,,,,,,,,,,,,,,,,,,,,,,,,,,,,,,,,,,,,,,,,,,,,,,,,,,,,,,,,,,,,,,,,,,,,,,,,,,,,,,,,,,,,,,,,,,,,,,,,,,,,,,,,,,,,,,,,,,,,,,,,,,,,,,,,,,,,,,,
,,5fb82557efe4a54f452f74e8,2024-02-19_03h06.54.393,kallum_motion_pilot,2023.2.2,Win32,59.88023952,5fb82557efe4a54f452f74e8,65d2b6c8f2eece985d8e374c,65d2b79fd007f5631ea92ffa,0.0405,0.0405,1,48,210,129,1,fiveseven,,,,,,,,,,,,,,,,,,,,,,,,,,,,,,,,,,,,,,,,,,,,,,,,,,,,,,,,,,,,,,,,,,,,,,,,,,,,,,,,,,,,,,,,,,,,,,,,,,,,,,,,,,,,,,,,,,,,,,,,,,,,,,,,,,,,,,,,,
,,5fb82557efe4a54f452f74e8,2024-02-19_03h06.54.393,kallum_motion_pilot,2023.2.2,Win32,59.88023952,5fb82557efe4a54f452f74e8,65d2b6c8f2eece985d8e374c,65d2b79fd007f5631ea92ffa,0.0405,0.0406,1,49,211,71,1,fourthree,,,,,,,,,,,,,,,,,,,,,,,,,,,,,,,,,,,,,,,,,,,,,,,,,,,,,,,,,,,,,,,,,,,,,,,,,,,,,,,,,,,,,,,,,,,,,,,,,,,,,,,,,,,,,,,,,,,,,,,,,,,,,,,,,,,,,,,,,
,,5fb82557efe4a54f452f74e8,2024-02-19_03h06.54.393,kallum_motion_pilot,2023.2.2,Win32,59.88023952,5fb82557efe4a54f452f74e8,65d2b6c8f2eece985d8e374c,65d2b79fd007f5631ea92ffa,0.0407,0.0407,1,50,212,134,1,eightsix,,,,,,,,,,,,,,,,,,,,,,,,,,,,,,,,,,,,,,,,,,,,,,,,,,,,,,,,,,,,,,,,,,,,,,,,,,,,,,,,,,,,,,,,,,,,,,,,,,,,,,,,,,,,,,,,,,,,,,,,,,,,,,,,,,,,,,,,,
,,5fb82557efe4a54f452f74e8,2024-02-19_03h06.54.393,kallum_motion_pilot,2023.2.2,Win32,59.88023952,5fb82557efe4a54f452f74e8,65d2b6c8f2eece985d8e374c,65d2b79fd007f5631ea92ffa,0.0407,0.0407,1,51,213,26,1,twoone,,,,,,,,,,,,,,,,,,,,,,,,,,,,,,,,,,,,,,,,,,,,,,,,,,,,,,,,,,,,,,,,,,,,,,,,,,,,,,,,,,,,,,,,,,,,,,,,,,,,,,,,,,,,,,,,,,,,,,,,,,,,,,,,,,,,,,,,,
,,5fb82557efe4a54f452f74e8,2024-02-19_03h06.54.393,kallum_motion_pilot,2023.2.2,Win32,59.88023952,5fb82557efe4a54f452f74e8,65d2b6c8f2eece985d8e374c,65d2b79fd007f5631ea92ffa,0.0408,0.0409,1,52,214,88,1,fivesix,,,,,,,,,,,,,,,,,,,,,,,,,,,,,,,,,,,,,,,,,,,,,,,,,,,,,,,,,,,,,,,,,,,,,,,,,,,,,,,,,,,,,,,,,,,,,,,,,,,,,,,,,,,,,,,,,,,,,,,,,,,,,,,,,,,,,,,,,
,,5fb82557efe4a54f452f74e8,2024-02-19_03h06.54.393,kallum_motion_pilot,2023.2.2,Win32,59.88023952,5fb82557efe4a54f452f74e8,65d2b6c8f2eece985d8e374c,65d2b79fd007f5631ea92ffa,0.0409,0.041,1,53,215,130,1,sixfive,,,,,,,,,,,,,,,,,,,,,,,,,,,,,,,,,,,,,,,,,,,,,,,,,,,,,,,,,,,,,,,,,,,,,,,,,,,,,,,,,,,,,,,,,,,,,,,,,,,,,,,,,,,,,,,,,,,,,,,,,,,,,,,,,,,,,,,,,
,,5fb82557efe4a54f452f74e8,2024-02-19_03h06.54.393,kallum_motion_pilot,2023.2.2,Win32,59.88023952,5fb82557efe4a54f452f74e8,65d2b6c8f2eece985d8e374c,65d2b79fd007f5631ea92ffa,0.0411,0.0411,1,54,216,156,1,sevenfive,,,,,,,,,,,,,,,,,,,,,,,,,,,,,,,,,,,,,,,,,,,,,,,,,,,,,,,,,,,,,,,,,,,,,,,,,,,,,,,,,,,,,,,,,,,,,,,,,,,,,,,,,,,,,,,,,,,,,,,,,,,,,,,,,,,,,,,,,
,,5fb82557efe4a54f452f74e8,2024-02-19_03h06.54.393,kallum_motion_pilot,2023.2.2,Win32,59.88023952,5fb82557efe4a54f452f74e8,65d2b6c8f2eece985d8e374c,65d2b79fd007f5631ea92ffa,0.0412,0.0413,1,55,217,104,1,fivesix,,,,,,,,,,,,,,,,,,,,,,,,,,,,,,,,,,,,,,,,,,,,,,,,,,,,,,,,,,,,,,,,,,,,,,,,,,,,,,,,,,,,,,,,,,,,,,,,,,,,,,,,,,,,,,,,,,,,,,,,,,,,,,,,,,,,,,,,,
,,5fb82557efe4a54f452f74e8,2024-02-19_03h06.54.393,kallum_motion_pilot,2023.2.2,Win32,59.88023952,5fb82557efe4a54f452f74e8,65d2b6c8f2eece985d8e374c,65d2b79fd007f5631ea92ffa,0.0413,0.0414,1,56,218,100,1,sevenfive,,,,,,,,,,,,,,,,,,,,,,,,,,,,,,,,,,,,,,,,,,,,,,,,,,,,,,,,,,,,,,,,,,,,,,,,,,,,,,,,,,,,,,,,,,,,,,,,,,,,,,,,,,,,,,,,,,,,,,,,,,,,,,,,,,,,,,,,,
,,5fb82557efe4a54f452f74e8,2024-02-19_03h06.54.393,kallum_motion_pilot,2023.2.2,Win32,59.88023952,5fb82557efe4a54f452f74e8,65d2b6c8f2eece985d8e374c,65d2b79fd007f5631ea92ffa,0.0414,0.0415,1,57,219,144,1,fivesix,,,,,,,,,,,,,,,,,,,,,,,,,,,,,,,,,,,,,,,,,,,,,,,,,,,,,,,,,,,,,,,,,,,,,,,,,,,,,,,,,,,,,,,,,,,,,,,,,,,,,,,,,,,,,,,,,,,,,,,,,,,,,,,,,,,,,,,,,
,,5fb82557efe4a54f452f74e8,2024-02-19_03h06.54.393,kallum_motion_pilot,2023.2.2,Win32,59.88023952,5fb82557efe4a54f452f74e8,65d2b6c8f2eece985d8e374c,65d2b79fd007f5631ea92ffa,0.0415,0.0415,1,58,220,97,1,fiveseven,,,,,,,,,,,,,,,,,,,,,,,,,,,,,,,,,,,,,,,,,,,,,,,,,,,,,,,,,,,,,,,,,,,,,,,,,,,,,,,,,,,,,,,,,,,,,,,,,,,,,,,,,,,,,,,,,,,,,,,,,,,,,,,,,,,,,,,,,
,,5fb82557efe4a54f452f74e8,2024-02-19_03h06.54.393,kallum_motion_pilot,2023.2.2,Win32,59.88023952,5fb82557efe4a54f452f74e8,65d2b6c8f2eece985d8e374c,65d2b79fd007f5631ea92ffa,0.0416,0.0417,1,59,221,48,1,onetwo,,,,,,,,,,,,,,,,,,,,,,,,,,,,,,,,,,,,,,,,,,,,,,,,,,,,,,,,,,,,,,,,,,,,,,,,,,,,,,,,,,,,,,,,,,,,,,,,,,,,,,,,,,,,,,,,,,,,,,,,,,,,,,,,,,,,,,,,,
,,5fb82557efe4a54f452f74e8,2024-02-19_03h06.54.393,kallum_motion_pilot,2023.2.2,Win32,59.88023952,5fb82557efe4a54f452f74e8,65d2b6c8f2eece985d8e374c,65d2b79fd007f5631ea92ffa,0.0417,0.0417,1,60,222,19,1,twofour,,,,,,,,,,,,,,,,,,,,,,,,,,,,,,,,,,,,,,,,,,,,,,,,,,,,,,,,,,,,,,,,,,,,,,,,,,,,,,,,,,,,,,,,,,,,,,,,,,,,,,,,,,,,,,,,,,,,,,,,,,,,,,,,,,,,,,,,,
,,5fb82557efe4a54f452f74e8,2024-02-19_03h06.54.393,kallum_motion_pilot,2023.2.2,Win32,59.88023952,5fb82557efe4a54f452f74e8,65d2b6c8f2eece985d8e374c,65d2b79fd007f5631ea92ffa,0.0418,0.0418,1,61,223,66,1,twoone,,,,,,,,,,,,,,,,,,,,,,,,,,,,,,,,,,,,,,,,,,,,,,,,,,,,,,,,,,,,,,,,,,,,,,,,,,,,,,,,,,,,,,,,,,,,,,,,,,,,,,,,,,,,,,,,,,,,,,,,,,,,,,,,,,,,,,,,,
,,5fb82557efe4a54f452f74e8,2024-02-19_03h06.54.393,kallum_motion_pilot,2023.2.2,Win32,59.88023952,5fb82557efe4a54f452f74e8,65d2b6c8f2eece985d8e374c,65d2b79fd007f5631ea92ffa,0.0419,0.042,1,62,224,133,1,seveneight,,,,,,,,,,,,,,,,,,,,,,,,,,,,,,,,,,,,,,,,,,,,,,,,,,,,,,,,,,,,,,,,,,,,,,,,,,,,,,,,,,,,,,,,,,,,,,,,,,,,,,,,,,,,,,,,,,,,,,,,,,,,,,,,,,,,,,,,,
,,5fb82557efe4a54f452f74e8,2024-02-19_03h06.54.393,kallum_motion_pilot,2023.2.2,Win32,59.88023952,5fb82557efe4a54f452f74e8,65d2b6c8f2eece985d8e374c,65d2b79fd007f5631ea92ffa,0.0421,0.0421,1,63,225,143,1,eightseven,,,,,,,,,,,,,,,,,,,,,,,,,,,,,,,,,,,,,,,,,,,,,,,,,,,,,,,,,,,,,,,,,,,,,,,,,,,,,,,,,,,,,,,,,,,,,,,,,,,,,,,,,,,,,,,,,,,,,,,,,,,,,,,,,,,,,,,,,
,,5fb82557efe4a54f452f74e8,2024-02-19_03h06.54.393,kallum_motion_pilot,2023.2.2,Win32,59.88023952,5fb82557efe4a54f452f74e8,65d2b6c8f2eece985d8e374c,65d2b79fd007f5631ea92ffa,0.0421,0.0422,1,64,226,64,1,onetwo,,,,,,,,,,,,,,,,,,,,,,,,,,,,,,,,,,,,,,,,,,,,,,,,,,,,,,,,,,,,,,,,,,,,,,,,,,,,,,,,,,,,,,,,,,,,,,,,,,,,,,,,,,,,,,,,,,,,,,,,,,,,,,,,,,,,,,,,,
,,5fb82557efe4a54f452f74e8,2024-02-19_03h06.54.393,kallum_motion_pilot,2023.2.2,Win32,59.88023952,5fb82557efe4a54f452f74e8,65d2b6c8f2eece985d8e374c,65d2b79fd007f5631ea92ffa,0.0422,0.0424,1,65,227,33,1,onethree,,,,,,,,,,,,,,,,,,,,,,,,,,,,,,,,,,,,,,,,,,,,,,,,,,,,,,,,,,,,,,,,,,,,,,,,,,,,,,,,,,,,,,,,,,,,,,,,,,,,,,,,,,,,,,,,,,,,,,,,,,,,,,,,,,,,,,,,,
,,5fb82557efe4a54f452f74e8,2024-02-19_03h06.54.393,kallum_motion_pilot,2023.2.2,Win32,59.88023952,5fb82557efe4a54f452f74e8,65d2b6c8f2eece985d8e374c,65d2b79fd007f5631ea92ffa,0.0424,0.0424,1,66,228,107,1,sixeight,,,,,,,,,,,,,,,,,,,,,,,,,,,,,,,,,,,,,,,,,,,,,,,,,,,,,,,,,,,,,,,,,,,,,,,,,,,,,,,,,,,,,,,,,,,,,,,,,,,,,,,,,,,,,,,,,,,,,,,,,,,,,,,,,,,,,,,,,
,,5fb82557efe4a54f452f74e8,2024-02-19_03h06.54.393,kallum_motion_pilot,2023.2.2,Win32,59.88023952,5fb82557efe4a54f452f74e8,65d2b6c8f2eece985d8e374c,65d2b79fd007f5631ea92ffa,0.0424,0.0425,1,67,229,154,1,sixfive,,,,,,,,,,,,,,,,,,,,,,,,,,,,,,,,,,,,,,,,,,,,,,,,,,,,,,,,,,,,,,,,,,,,,,,,,,,,,,,,,,,,,,,,,,,,,,,,,,,,,,,,,,,,,,,,,,,,,,,,,,,,,,,,,,,,,,,,,
,,5fb82557efe4a54f452f74e8,2024-02-19_03h06.54.393,kallum_motion_pilot,2023.2.2,Win32,59.88023952,5fb82557efe4a54f452f74e8,65d2b6c8f2eece985d8e374c,65d2b79fd007f5631ea92ffa,0.0425,0.0425,1,68,230,147,1,sixeight,,,,,,,,,,,,,,,,,,,,,,,,,,,,,,,,,,,,,,,,,,,,,,,,,,,,,,,,,,,,,,,,,,,,,,,,,,,,,,,,,,,,,,,,,,,,,,,,,,,,,,,,,,,,,,,,,,,,,,,,,,,,,,,,,,,,,,,,,
,,5fb82557efe4a54f452f74e8,2024-02-19_03h06.54.393,kallum_motion_pilot,2023.2.2,Win32,59.88023952,5fb82557efe4a54f452f74e8,65d2b6c8f2eece985d8e374c,65d2b79fd007f5631ea92ffa,0.0426,0.0426,1,69,231,63,1,fourthree,,,,,,,,,,,,,,,,,,,,,,,,,,,,,,,,,,,,,,,,,,,,,,,,,,,,,,,,,,,,,,,,,,,,,,,,,,,,,,,,,,,,,,,,,,,,,,,,,,,,,,,,,,,,,,,,,,,,,,,,,,,,,,,,,,,,,,,,,
,,5fb82557efe4a54f452f74e8,2024-02-19_03h06.54.393,kallum_motion_pilot,2023.2.2,Win32,59.88023952,5fb82557efe4a54f452f74e8,65d2b6c8f2eece985d8e374c,65d2b79fd007f5631ea92ffa,0.0427,0.0428,1,70,232,94,1,eightsix,,,,,,,,,,,,,,,,,,,,,,,,,,,,,,,,,,,,,,,,,,,,,,,,,,,,,,,,,,,,,,,,,,,,,,,,,,,,,,,,,,,,,,,,,,,,,,,,,,,,,,,,,,,,,,,,,,,,,,,,,,,,,,,,,,,,,,,,,
,,5fb82557efe4a54f452f74e8,2024-02-19_03h06.54.393,kallum_motion_pilot,2023.2.2,Win32,59.88023952,5fb82557efe4a54f452f74e8,65d2b6c8f2eece985d8e374c,65d2b79fd007f5631ea92ffa,0.0428,0.0428,1,71,233,125,1,seveneight,,,,,,,,,,,,,,,,,,,,,,,,,,,,,,,,,,,,,,,,,,,,,,,,,,,,,,,,,,,,,,,,,,,,,,,,,,,,,,,,,,,,,,,,,,,,,,,,,,,,,,,,,,,,,,,,,,,,,,,,,,,,,,,,,,,,,,,,,
,,5fb82557efe4a54f452f74e8,2024-02-19_03h06.54.393,kallum_motion_pilot,2023.2.2,Win32,59.88023952,5fb82557efe4a54f452f74e8,65d2b6c8f2eece985d8e374c,65d2b79fd007f5631ea92ffa,0.0428,0.0428,1,72,234,89,1,fiveseven,,,,,,,,,,,,,,,,,,,,,,,,,,,,,,,,,,,,,,,,,,,,,,,,,,,,,,,,,,,,,,,,,,,,,,,,,,,,,,,,,,,,,,,,,,,,,,,,,,,,,,,,,,,,,,,,,,,,,,,,,,,,,,,,,,,,,,,,,
,,5fb82557efe4a54f452f74e8,2024-02-19_03h06.54.393,kallum_motion_pilot,2023.2.2,Win32,59.88023952,5fb82557efe4a54f452f74e8,65d2b6c8f2eece985d8e374c,65d2b79fd007f5631ea92ffa,0.0429,0.0429,1,73,235,108,1,sevenfive,,,,,,,,,,,,,,,,,,,,,,,,,,,,,,,,,,,,,,,,,,,,,,,,,,,,,,,,,,,,,,,,,,,,,,,,,,,,,,,,,,,,,,,,,,,,,,,,,,,,,,,,,,,,,,,,,,,,,,,,,,,,,,,,,,,,,,,,,
,,5fb82557efe4a54f452f74e8,2024-02-19_03h06.54.393,kallum_motion_pilot,2023.2.2,Win32,59.88023952,5fb82557efe4a54f452f74e8,65d2b6c8f2eece985d8e374c,65d2b79fd007f5631ea92ffa,0.043,0.0431,1,74,236,101,1,seveneight,,,,,,,,,,,,,,,,,,,,,,,,,,,,,,,,,,,,,,,,,,,,,,,,,,,,,,,,,,,,,,,,,,,,,,,,,,,,,,,,,,,,,,,,,,,,,,,,,,,,,,,,,,,,,,,,,,,,,,,,,,,,,,,,,,,,,,,,,
,,5fb82557efe4a54f452f74e8,2024-02-19_03h06.54.393,kallum_motion_pilot,2023.2.2,Win32,59.88023952,5fb82557efe4a54f452f74e8,65d2b6c8f2eece985d8e374c,65d2b79fd007f5631ea92ffa,0.0432,0.0432,1,75,237,16,1,onetwo,,,,,,,,,,,,,,,,,,,,,,,,,,,,,,,,,,,,,,,,,,,,,,,,,,,,,,,,,,,,,,,,,,,,,,,,,,,,,,,,,,,,,,,,,,,,,,,,,,,,,,,,,,,,,,,,,,,,,,,,,,,,,,,,,,,,,,,,,
,,5fb82557efe4a54f452f74e8,2024-02-19_03h06.54.393,kallum_motion_pilot,2023.2.2,Win32,59.88023952,5fb82557efe4a54f452f74e8,65d2b6c8f2eece985d8e374c,65d2b79fd007f5631ea92ffa,0.0432,0.0432,1,76,238,158,1,eightsix,,,,,,,,,,,,,,,,,,,,,,,,,,,,,,,,,,,,,,,,,,,,,,,,,,,,,,,,,,,,,,,,,,,,,,,,,,,,,,,,,,,,,,,,,,,,,,,,,,,,,,,,,,,,,,,,,,,,,,,,,,,,,,,,,,,,,,,,,
,,5fb82557efe4a54f452f74e8,2024-02-19_03h06.54.393,kallum_motion_pilot,2023.2.2,Win32,59.88023952,5fb82557efe4a54f452f74e8,65d2b6c8f2eece985d8e374c,65d2b79fd007f5631ea92ffa,0.0433,0.0434,1,77,239,61,1,threefour,,,,,,,,,,,,,,,,,,,,,,,,,,,,,,,,,,,,,,,,,,,,,,,,,,,,,,,,,,,,,,,,,,,,,,,,,,,,,,,,,,,,,,,,,,,,,,,,,,,,,,,,,,,,,,,,,,,,,,,,,,,,,,,,,,,,,,,,,
,,5fb82557efe4a54f452f74e8,2024-02-19_03h06.54.393,kallum_motion_pilot,2023.2.2,Win32,59.88023952,5fb82557efe4a54f452f74e8,65d2b6c8f2eece985d8e374c,65d2b79fd007f5631ea92ffa,0.0434,0.0435,1,78,240,57,1,onethree,,,,,,,,,,,,,,,,,,,,,,,,,,,,,,,,,,,,,,,,,,,,,,,,,,,,,,,,,,,,,,,,,,,,,,,,,,,,,,,,,,,,,,,,,,,,,,,,,,,,,,,,,,,,,,,,,,,,,,,,,,,,,,,,,,,,,,,,,
,,5fb82557efe4a54f452f74e8,2024-02-19_03h06.54.393,kallum_motion_pilot,2023.2.2,Win32,59.88023952,5fb82557efe4a54f452f74e8,65d2b6c8f2eece985d8e374c,65d2b79fd007f5631ea92ffa,0.0435,0.0436,1,79,241,146,1,sixfive,,,,,,,,,,,,,,,,,,,,,,,,,,,,,,,,,,,,,,,,,,,,,,,,,,,,,,,,,,,,,,,,,,,,,,,,,,,,,,,,,,,,,,,,,,,,,,,,,,,,,,,,,,,,,,,,,,,,,,,,,,,,,,,,,,,,,,,,,
,,5fb82557efe4a54f452f74e8,2024-02-19_03h06.54.393,kallum_motion_pilot,2023.2.2,Win32,59.88023952,5fb82557efe4a54f452f74e8,65d2b6c8f2eece985d8e374c,65d2b79fd007f5631ea92ffa,0.0436,0.0436,1,80,242,68,1,threeone,,,,,,,,,,,,,,,,,,,,,,,,,,,,,,,,,,,,,,,,,,,,,,,,,,,,,,,,,,,,,,,,,,,,,,,,,,,,,,,,,,,,,,,,,,,,,,,,,,,,,,,,,,,,,,,,,,,,,,,,,,,,,,,,,,,,,,,,,
,,5fb82557efe4a54f452f74e8,2024-02-19_03h06.54.393,kallum_motion_pilot,2023.2.2,Win32,59.88023952,5fb82557efe4a54f452f74e8,65d2b6c8f2eece985d8e374c,65d2b79fd007f5631ea92ffa,0.0437,0.0438,1,81,243,62,1,fourtwo,,,,,,,,,,,,,,,,,,,,,,,,,,,,,,,,,,,,,,,,,,,,,,,,,,,,,,,,,,,,,,,,,,,,,,,,,,,,,,,,,,,,,,,,,,,,,,,,,,,,,,,,,,,,,,,,,,,,,,,,,,,,,,,,,,,,,,,,,
,,5fb82557efe4a54f452f74e8,2024-02-19_03h06.54.393,kallum_motion_pilot,2023.2.2,Win32,59.88023952,5fb82557efe4a54f452f74e8,65d2b6c8f2eece985d8e374c,65d2b79fd007f5631ea92ffa,0.0438,0.0439,1,82,244,60,1,threeone,,,,,,,,,,,,,,,,,,,,,,,,,,,,,,,,,,,,,,,,,,,,,,,,,,,,,,,,,,,,,,,,,,,,,,,,,,,,,,,,,,,,,,,,,,,,,,,,,,,,,,,,,,,,,,,,,,,,,,,,,,,,,,,,,,,,,,,,,
,,5fb82557efe4a54f452f74e8,2024-02-19_03h06.54.393,kallum_motion_pilot,2023.2.2,Win32,59.88023952,5fb82557efe4a54f452f74e8,65d2b6c8f2eece985d8e374c,65d2b79fd007f5631ea92ffa,0.0439,0.0439,1,83,245,45,1,threefour,,,,,,,,,,,,,,,,,,,,,,,,,,,,,,,,,,,,,,,,,,,,,,,,,,,,,,,,,,,,,,,,,,,,,,,,,,,,,,,,,,,,,,,,,,,,,,,,,,,,,,,,,,,,,,,,,,,,,,,,,,,,,,,,,,,,,,,,,
,,5fb82557efe4a54f452f74e8,2024-02-19_03h06.54.393,kallum_motion_pilot,2023.2.2,Win32,59.88023952,5fb82557efe4a54f452f74e8,65d2b6c8f2eece985d8e374c,65d2b79fd007f5631ea92ffa,0.0439,0.044,1,84,246,11,1,twofour,,,,,,,,,,,,,,,,,,,,,,,,,,,,,,,,,,,,,,,,,,,,,,,,,,,,,,,,,,,,,,,,,,,,,,,,,,,,,,,,,,,,,,,,,,,,,,,,,,,,,,,,,,,,,,,,,,,,,,,,,,,,,,,,,,,,,,,,,
,,5fb82557efe4a54f452f74e8,2024-02-19_03h06.54.393,kallum_motion_pilot,2023.2.2,Win32,59.88023952,5fb82557efe4a54f452f74e8,65d2b6c8f2eece985d8e374c,65d2b79fd007f5631ea92ffa,0.044,0.0442,1,85,247,2,1,twoone,,,,,,,,,,,,,,,,,,,,,,,,,,,,,,,,,,,,,,,,,,,,,,,,,,,,,,,,,,,,,,,,,,,,,,,,,,,,,,,,,,,,,,,,,,,,,,,,,,,,,,,,,,,,,,,,,,,,,,,,,,,,,,,,,,,,,,,,,
,,5fb82557efe4a54f452f74e8,2024-02-19_03h06.54.393,kallum_motion_pilot,2023.2.2,Win32,59.88023952,5fb82557efe4a54f452f74e8,65d2b6c8f2eece985d8e374c,65d2b79fd007f5631ea92ffa,0.0442,0.0443,1,86,248,93,1,seveneight,,,,,,,,,,,,,,,,,,,,,,,,,,,,,,,,,,,,,,,,,,,,,,,,,,,,,,,,,,,,,,,,,,,,,,,,,,,,,,,,,,,,,,,,,,,,,,,,,,,,,,,,,,,,,,,,,,,,,,,,,,,,,,,,,,,,,,,,,
,,5fb82557efe4a54f452f74e8,2024-02-19_03h06.54.393,kallum_motion_pilot,2023.2.2,Win32,59.88023952,5fb82557efe4a54f452f74e8,65d2b6c8f2eece985d8e374c,65d2b79fd007f5631ea92ffa,0.0445,0.0445,1,87,249,79,1,eightseven,,,,,,,,,,,,,,,,,,,,,,,,,,,,,,,,,,,,,,,,,,,,,,,,,,,,,,,,,,,,,,,,,,,,,,,,,,,,,,,,,,,,,,,,,,,,,,,,,,,,,,,,,,,,,,,,,,,,,,,,,,,,,,,,,,,,,,,,,
,,5fb82557efe4a54f452f74e8,2024-02-19_03h06.54.393,kallum_motion_pilot,2023.2.2,Win32,59.88023952,5fb82557efe4a54f452f74e8,65d2b6c8f2eece985d8e374c,65d2b79fd007f5631ea92ffa,0.0445,0.0446,1,88,250,49,1,onethree,,,,,,,,,,,,,,,,,,,,,,,,,,,,,,,,,,,,,,,,,,,,,,,,,,,,,,,,,,,,,,,,,,,,,,,,,,,,,,,,,,,,,,,,,,,,,,,,,,,,,,,,,,,,,,,,,,,,,,,,,,,,,,,,,,,,,,,,,
,,5fb82557efe4a54f452f74e8,2024-02-19_03h06.54.393,kallum_motion_pilot,2023.2.2,Win32,59.88023952,5fb82557efe4a54f452f74e8,65d2b6c8f2eece985d8e374c,65d2b79fd007f5631ea92ffa,0.0447,0.0447,1,89,251,155,1,sixeight,,,,,,,,,,,,,,,,,,,,,,,,,,,,,,,,,,,,,,,,,,,,,,,,,,,,,,,,,,,,,,,,,,,,,,,,,,,,,,,,,,,,,,,,,,,,,,,,,,,,,,,,,,,,,,,,,,,,,,,,,,,,,,,,,,,,,,,,,
,,5fb82557efe4a54f452f74e8,2024-02-19_03h06.54.393,kallum_motion_pilot,2023.2.2,Win32,59.88023952,5fb82557efe4a54f452f74e8,65d2b6c8f2eece985d8e374c,65d2b79fd007f5631ea92ffa,0.0449,0.0449,1,90,252,46,1,fourtwo,,,,,,,,,,,,,,,,,,,,,,,,,,,,,,,,,,,,,,,,,,,,,,,,,,,,,,,,,,,,,,,,,,,,,,,,,,,,,,,,,,,,,,,,,,,,,,,,,,,,,,,,,,,,,,,,,,,,,,,,,,,,,,,,,,,,,,,,,
,,5fb82557efe4a54f452f74e8,2024-02-19_03h06.54.393,kallum_motion_pilot,2023.2.2,Win32,59.88023952,5fb82557efe4a54f452f74e8,65d2b6c8f2eece985d8e374c,65d2b79fd007f5631ea92ffa,0.045,0.045,1,91,253,114,1,sixfive,,,,,,,,,,,,,,,,,,,,,,,,,,,,,,,,,,,,,,,,,,,,,,,,,,,,,,,,,,,,,,,,,,,,,,,,,,,,,,,,,,,,,,,,,,,,,,,,,,,,,,,,,,,,,,,,,,,,,,,,,,,,,,,,,,,,,,,,,
,,5fb82557efe4a54f452f74e8,2024-02-19_03h06.54.393,kallum_motion_pilot,2023.2.2,Win32,59.88023952,5fb82557efe4a54f452f74e8,65d2b6c8f2eece985d8e374c,65d2b79fd007f5631ea92ffa,0.0451,0.0452,1,92,254,38,1,fourtwo,,,,,,,,,,,,,,,,,,,,,,,,,,,,,,,,,,,,,,,,,,,,,,,,,,,,,,,,,,,,,,,,,,,,,,,,,,,,,,,,,,,,,,,,,,,,,,,,,,,,,,,,,,,,,,,,,,,,,,,,,,,,,,,,,,,,,,,,,
,,5fb82557efe4a54f452f74e8,2024-02-19_03h06.54.393,kallum_motion_pilot,2023.2.2,Win32,59.88023952,5fb82557efe4a54f452f74e8,65d2b6c8f2eece985d8e374c,65d2b79fd007f5631ea92ffa,0.0453,0.0454,1,93,255,65,1,onethree,,,,,,,,,,,,,,,,,,,,,,,,,,,,,,,,,,,,,,,,,,,,,,,,,,,,,,,,,,,,,,,,,,,,,,,,,,,,,,,,,,,,,,,,,,,,,,,,,,,,,,,,,,,,,,,,,,,,,,,,,,,,,,,,,,,,,,,,,
,,5fb82557efe4a54f452f74e8,2024-02-19_03h06.54.393,kallum_motion_pilot,2023.2.2,Win32,59.88023952,5fb82557efe4a54f452f74e8,65d2b6c8f2eece985d8e374c,65d2b79fd007f5631ea92ffa,0.0454,0.0455,1,94,256,119,1,eightseven,,,,,,,,,,,,,,,,,,,,,,,,,,,,,,,,,,,,,,,,,,,,,,,,,,,,,,,,,,,,,,,,,,,,,,,,,,,,,,,,,,,,,,,,,,,,,,,,,,,,,,,,,,,,,,,,,,,,,,,,,,,,,,,,,,,,,,,,,
,,5fb82557efe4a54f452f74e8,2024-02-19_03h06.54.393,kallum_motion_pilot,2023.2.2,Win32,59.88023952,5fb82557efe4a54f452f74e8,65d2b6c8f2eece985d8e374c,65d2b79fd007f5631ea92ffa,0.0455,0.0456,1,95,257,122,1,sixfive,,,,,,,,,,,,,,,,,,,,,,,,,,,,,,,,,,,,,,,,,,,,,,,,,,,,,,,,,,,,,,,,,,,,,,,,,,,,,,,,,,,,,,,,,,,,,,,,,,,,,,,,,,,,,,,,,,,,,,,,,,,,,,,,,,,,,,,,,
,,5fb82557efe4a54f452f74e8,2024-02-19_03h06.54.393,kallum_motion_pilot,2023.2.2,Win32,59.88023952,5fb82557efe4a54f452f74e8,65d2b6c8f2eece985d8e374c,65d2b79fd007f5631ea92ffa,0.0457,0.0458,1,96,258,123,1,sixeight,,,,,,,,,,,,,,,,,,,,,,,,,,,,,,,,,,,,,,,,,,,,,,,,,,,,,,,,,,,,,,,,,,,,,,,,,,,,,,,,,,,,,,,,,,,,,,,,,,,,,,,,,,,,,,,,,,,,,,,,,,,,,,,,,,,,,,,,,
,,5fb82557efe4a54f452f74e8,2024-02-19_03h06.54.393,kallum_motion_pilot,2023.2.2,Win32,59.88023952,5fb82557efe4a54f452f74e8,65d2b6c8f2eece985d8e374c,65d2b79fd007f5631ea92ffa,0.0459,0.0459,1,97,259,136,1,fivesix,,,,,,,,,,,,,,,,,,,,,,,,,,,,,,,,,,,,,,,,,,,,,,,,,,,,,,,,,,,,,,,,,,,,,,,,,,,,,,,,,,,,,,,,,,,,,,,,,,,,,,,,,,,,,,,,,,,,,,,,,,,,,,,,,,,,,,,,,
,,5fb82557efe4a54f452f74e8,2024-02-19_03h06.54.393,kallum_motion_pilot,2023.2.2,Win32,59.88023952,5fb82557efe4a54f452f74e8,65d2b6c8f2eece985d8e374c,65d2b79fd007f5631ea92ffa,0.046,0.0461,1,98,260,37,1,threefour,,,,,,,,,,,,,,,,,,,,,,,,,,,,,,,,,,,,,,,,,,,,,,,,,,,,,,,,,,,,,,,,,,,,,,,,,,,,,,,,,,,,,,,,,,,,,,,,,,,,,,,,,,,,,,,,,,,,,,,,,,,,,,,,,,,,,,,,,
,,5fb82557efe4a54f452f74e8,2024-02-19_03h06.54.393,kallum_motion_pilot,2023.2.2,Win32,59.88023952,5fb82557efe4a54f452f74e8,65d2b6c8f2eece985d8e374c,65d2b79fd007f5631ea92ffa,0.0462,0.0465,1,99,261,120,1,fivesix,,,,,,,,,,,,,,,,,,,,,,,,,,,,,,,,,,,,,,,,,,,,,,,,,,,,,,,,,,,,,,,,,,,,,,,,,,,,,,,,,,,,,,,,,,,,,,,,,,,,,,,,,,,,,,,,,,,,,,,,,,,,,,,,,,,,,,,,,
,,5fb82557efe4a54f452f74e8,2024-02-19_03h06.54.393,kallum_motion_pilot,2023.2.2,Win32,59.88023952,5fb82557efe4a54f452f74e8,65d2b6c8f2eece985d8e374c,65d2b79fd007f5631ea92ffa,0.0467,0.0468,1,100,262,112,1,fivesix,,,,,,,,,,,,,,,,,,,,,,,,,,,,,,,,,,,,,,,,,,,,,,,,,,,,,,,,,,,,,,,,,,,,,,,,,,,,,,,,,,,,,,,,,,,,,,,,,,,,,,,,,,,,,,,,,,,,,,,,,,,,,,,,,,,,,,,,,
,,5fb82557efe4a54f452f74e8,2024-02-19_03h06.54.393,kallum_motion_pilot,2023.2.2,Win32,59.88023952,5fb82557efe4a54f452f74e8,65d2b6c8f2eece985d8e374c,65d2b79fd007f5631ea92ffa,0.0468,0.047,1,101,263,0,1,onetwo,,,,,,,,,,,,,,,,,,,,,,,,,,,,,,,,,,,,,,,,,,,,,,,,,,,,,,,,,,,,,,,,,,,,,,,,,,,,,,,,,,,,,,,,,,,,,,,,,,,,,,,,,,,,,,,,,,,,,,,,,,,,,,,,,,,,,,,,,
,,5fb82557efe4a54f452f74e8,2024-02-19_03h06.54.393,kallum_motion_pilot,2023.2.2,Win32,59.88023952,5fb82557efe4a54f452f74e8,65d2b6c8f2eece985d8e374c,65d2b79fd007f5631ea92ffa,0.0471,0.0472,1,102,264,7,1,fourthree,,,,,,,,,,,,,,,,,,,,,,,,,,,,,,,,,,,,,,,,,,,,,,,,,,,,,,,,,,,,,,,,,,,,,,,,,,,,,,,,,,,,,,,,,,,,,,,,,,,,,,,,,,,,,,,,,,,,,,,,,,,,,,,,,,,,,,,,,
,,5fb82557efe4a54f452f74e8,2024-02-19_03h06.54.393,kallum_motion_pilot,2023.2.2,Win32,59.88023952,5fb82557efe4a54f452f74e8,65d2b6c8f2eece985d8e374c,65d2b79fd007f5631ea92ffa,0.0473,0.0474,1,103,265,132,1,sevenfive,,,,,,,,,,,,,,,,,,,,,,,,,,,,,,,,,,,,,,,,,,,,,,,,,,,,,,,,,,,,,,,,,,,,,,,,,,,,,,,,,,,,,,,,,,,,,,,,,,,,,,,,,,,,,,,,,,,,,,,,,,,,,,,,,,,,,,,,,
,,5fb82557efe4a54f452f74e8,2024-02-19_03h06.54.393,kallum_motion_pilot,2023.2.2,Win32,59.88023952,5fb82557efe4a54f452f74e8,65d2b6c8f2eece985d8e374c,65d2b79fd007f5631ea92ffa,0.0475,0.0476,1,104,266,50,1,twoone,,,,,,,,,,,,,,,,,,,,,,,,,,,,,,,,,,,,,,,,,,,,,,,,,,,,,,,,,,,,,,,,,,,,,,,,,,,,,,,,,,,,,,,,,,,,,,,,,,,,,,,,,,,,,,,,,,,,,,,,,,,,,,,,,,,,,,,,,
,,5fb82557efe4a54f452f74e8,2024-02-19_03h06.54.393,kallum_motion_pilot,2023.2.2,Win32,59.88023952,5fb82557efe4a54f452f74e8,65d2b6c8f2eece985d8e374c,65d2b79fd007f5631ea92ffa,0.0476,0.0477,1,105,267,15,1,fourthree,,,,,,,,,,,,,,,,,,,,,,,,,,,,,,,,,,,,,,,,,,,,,,,,,,,,,,,,,,,,,,,,,,,,,,,,,,,,,,,,,,,,,,,,,,,,,,,,,,,,,,,,,,,,,,,,,,,,,,,,,,,,,,,,,,,,,,,,,
,,5fb82557efe4a54f452f74e8,2024-02-19_03h06.54.393,kallum_motion_pilot,2023.2.2,Win32,59.88023952,5fb82557efe4a54f452f74e8,65d2b6c8f2eece985d8e374c,65d2b79fd007f5631ea92ffa,0.0477,0.0477,1,106,268,90,1,sixfive,,,,,,,,,,,,,,,,,,,,,,,,,,,,,,,,,,,,,,,,,,,,,,,,,,,,,,,,,,,,,,,,,,,,,,,,,,,,,,,,,,,,,,,,,,,,,,,,,,,,,,,,,,,,,,,,,,,,,,,,,,,,,,,,,,,,,,,,,
,,5fb82557efe4a54f452f74e8,2024-02-19_03h06.54.393,kallum_motion_pilot,2023.2.2,Win32,59.88023952,5fb82557efe4a54f452f74e8,65d2b6c8f2eece985d8e374c,65d2b79fd007f5631ea92ffa,0.0478,0.0479,1,107,269,44,1,threeone,,,,,,,,,,,,,,,,,,,,,,,,,,,,,,,,,,,,,,,,,,,,,,,,,,,,,,,,,,,,,,,,,,,,,,,,,,,,,,,,,,,,,,,,,,,,,,,,,,,,,,,,,,,,,,,,,,,,,,,,,,,,,,,,,,,,,,,,,
,,5fb82557efe4a54f452f74e8,2024-02-19_03h06.54.393,kallum_motion_pilot,2023.2.2,Win32,59.88023952,5fb82557efe4a54f452f74e8,65d2b6c8f2eece985d8e374c,65d2b79fd007f5631ea92ffa,0.048,0.0481,1,108,270,126,1,eightsix,,,,,,,,,,,,,,,,,,,,,,,,,,,,,,,,,,,,,,,,,,,,,,,,,,,,,,,,,,,,,,,,,,,,,,,,,,,,,,,,,,,,,,,,,,,,,,,,,,,,,,,,,,,,,,,,,,,,,,,,,,,,,,,,,,,,,,,,,
,,5fb82557efe4a54f452f74e8,2024-02-19_03h06.54.393,kallum_motion_pilot,2023.2.2,Win32,59.88023952,5fb82557efe4a54f452f74e8,65d2b6c8f2eece985d8e374c,65d2b79fd007f5631ea92ffa,0.0481,0.0482,1,109,271,127,1,eightseven,,,,,,,,,,,,,,,,,,,,,,,,,,,,,,,,,,,,,,,,,,,,,,,,,,,,,,,,,,,,,,,,,,,,,,,,,,,,,,,,,,,,,,,,,,,,,,,,,,,,,,,,,,,,,,,,,,,,,,,,,,,,,,,,,,,,,,,,,
,,5fb82557efe4a54f452f74e8,2024-02-19_03h06.54.393,kallum_motion_pilot,2023.2.2,Win32,59.88023952,5fb82557efe4a54f452f74e8,65d2b6c8f2eece985d8e374c,65d2b79fd007f5631ea92ffa,0.0483,0.0484,1,110,272,145,1,fiveseven,,,,,,,,,,,,,,,,,,,,,,,,,,,,,,,,,,,,,,,,,,,,,,,,,,,,,,,,,,,,,,,,,,,,,,,,,,,,,,,,,,,,,,,,,,,,,,,,,,,,,,,,,,,,,,,,,,,,,,,,,,,,,,,,,,,,,,,,,
,,5fb82557efe4a54f452f74e8,2024-02-19_03h06.54.393,kallum_motion_pilot,2023.2.2,Win32,59.88023952,5fb82557efe4a54f452f74e8,65d2b6c8f2eece985d8e374c,65d2b79fd007f5631ea92ffa,0.0484,0.0485,1,111,273,82,1,sixfive,,,,,,,,,,,,,,,,,,,,,,,,,,,,,,,,,,,,,,,,,,,,,,,,,,,,,,,,,,,,,,,,,,,,,,,,,,,,,,,,,,,,,,,,,,,,,,,,,,,,,,,,,,,,,,,,,,,,,,,,,,,,,,,,,,,,,,,,,
,,5fb82557efe4a54f452f74e8,2024-02-19_03h06.54.393,kallum_motion_pilot,2023.2.2,Win32,59.88023952,5fb82557efe4a54f452f74e8,65d2b6c8f2eece985d8e374c,65d2b79fd007f5631ea92ffa,0.0485,0.0486,1,112,274,124,1,sevenfive,,,,,,,,,,,,,,,,,,,,,,,,,,,,,,,,,,,,,,,,,,,,,,,,,,,,,,,,,,,,,,,,,,,,,,,,,,,,,,,,,,,,,,,,,,,,,,,,,,,,,,,,,,,,,,,,,,,,,,,,,,,,,,,,,,,,,,,,,
,,5fb82557efe4a54f452f74e8,2024-02-19_03h06.54.393,kallum_motion_pilot,2023.2.2,Win32,59.88023952,5fb82557efe4a54f452f74e8,65d2b6c8f2eece985d8e374c,65d2b79fd007f5631ea92ffa,0.0487,0.0487,1,113,275,47,1,fourthree,,,,,,,,,,,,,,,,,,,,,,,,,,,,,,,,,,,,,,,,,,,,,,,,,,,,,,,,,,,,,,,,,,,,,,,,,,,,,,,,,,,,,,,,,,,,,,,,,,,,,,,,,,,,,,,,,,,,,,,,,,,,,,,,,,,,,,,,,
,,5fb82557efe4a54f452f74e8,2024-02-19_03h06.54.393,kallum_motion_pilot,2023.2.2,Win32,59.88023952,5fb82557efe4a54f452f74e8,65d2b6c8f2eece985d8e374c,65d2b79fd007f5631ea92ffa,0.0487,0.0488,1,114,276,138,1,sixfive,,,,,,,,,,,,,,,,,,,,,,,,,,,,,,,,,,,,,,,,,,,,,,,,,,,,,,,,,,,,,,,,,,,,,,,,,,,,,,,,,,,,,,,,,,,,,,,,,,,,,,,,,,,,,,,,,,,,,,,,,,,,,,,,,,,,,,,,,
,,5fb82557efe4a54f452f74e8,2024-02-19_03h06.54.393,kallum_motion_pilot,2023.2.2,Win32,59.88023952,5fb82557efe4a54f452f74e8,65d2b6c8f2eece985d8e374c,65d2b79fd007f5631ea92ffa,0.0489,0.0489,1,115,277,110,1,eightsix,,,,,,,,,,,,,,,,,,,,,,,,,,,,,,,,,,,,,,,,,,,,,,,,,,,,,,,,,,,,,,,,,,,,,,,,,,,,,,,,,,,,,,,,,,,,,,,,,,,,,,,,,,,,,,,,,,,,,,,,,,,,,,,,,,,,,,,,,
