startup.started,startup.stopped,Prolific ID*,date,expName,psychopyVersion,OS,frameRate,participant,study_id,session,stimpositions.started,stimpositions.stopped,hardcoded_stimulus_positions.thisRepN,hardcoded_stimulus_positions.thisTrialN,hardcoded_stimulus_positions.thisN,hardcoded_stimulus_positions.thisIndex,hardcoded_stimulus_positions.ran,StimulusPos,stimorientation.started,stimorientation.stopped,prac_stimorientation_import_loop.thisRepN,prac_stimorientation_import_loop.thisTrialN,prac_stimorientation_import_loop.thisN,prac_stimorientation_import_loop.thisIndex,prac_stimorientation_import_loop.ran,Stimorientation,welcome_instr.started,welcome_instr.stopped,key_resp.keys,key_resp.rt,key_resp.duration,response_steppedout_1.started,response_steppedout_1.stopped,key_resp_20.keys,key_resp_20.rt,key_resp_20.duration,response_steppedout_2.started,response_steppedout_2.stopped,key_resp_19.keys,key_resp_19.rt,key_resp_19.duration,stim_response_instr.started,stim_response_instr.stopped,key_resp_15.keys,key_resp_15.rt,key_resp_15.duration,direction_instr_2.started,direction_instr_2.stopped,key_resp_9.keys,key_resp_9.rt,key_resp_9.duration,instr_prac.started,instr_prac.stopped,key_resp_10.keys,key_resp_10.rt,key_resp_10.duration,Stim1_display_prac.started,Stim1_display_prac.stopped,Ecc,Circle1_ori,Circle2_ori,response_prac.started,similarity,response_time,response_prac.stopped,mouse_5.x,mouse_5.y,mouse_5.leftButton,mouse_5.midButton,mouse_5.rightButton,mouse_5.clicked_name,responseprac_feedback.started,responseprac_feedback.stopped,summary2_prac.started,summary2_prac.stopped,mouse_6.x,mouse_6.y,mouse_6.leftButton,mouse_6.midButton,mouse_6.rightButton,mouse_6.clicked_name,duringprac.thisRepN,duringprac.thisTrialN,duringprac.thisN,duringprac.thisIndex,duringprac.ran,begin.started,begin.stopped,key_resp_22.keys,key_resp_22.rt,key_resp_22.duration,Stim1_display.started,Stim1_display.stopped,circle1_ori,circle2_ori,circle1_SF,circle2_SF,response.started,response.stopped,mouse.x,mouse.y,mouse.leftButton,mouse.midButton,mouse.rightButton,mouse.clicked_name,trialnumber,double_pass.thisRepN,double_pass.thisTrialN,double_pass.thisN,double_pass.thisIndex,double_pass.ran,double_pass.order,main_trial.thisRepN,main_trial.thisTrialN,main_trial.thisN,main_trial.thisIndex,main_trial.ran,main_trial.order,Trial_Counter,Catch,Frequencies,response_2.started,response_2.stopped,mouse_2.x,mouse_2.y,mouse_2.leftButton,mouse_2.midButton,mouse_2.rightButton,mouse_2.clicked_name,special_trial.started,special_trial.stopped,catch_1.started,catch_1.stopped,mouse_3.x,mouse_3.y,mouse_3.leftButton,mouse_3.midButton,mouse_3.rightButton,catchresponse,catchnumber,response_time_catch,response_sum.started,response_sum.stopped,mouse_11.x,mouse_11.y,mouse_11.leftButton,mouse_11.midButton,mouse_11.rightButton,flip_presentation_sequence_for_double_pass.started,flip_presentation_sequence_for_double_pass.stopped,goodbye.started,goodbye.stopped,key_resp_3.keys,key_resp_3.rt,key_resp_3.duration
0.0002,0.0003,5fe02160c274b392183266aa,2024-02-19_02h13.56.499,kallum_motion_pilot,2023.2.2,Win32,161.2903226,5fe02160c274b392183266aa,65d2b6c8f2eece985d8e374c,65d2b95a0b64bbe7b18e2688,,,,,,,,,,,,,,,,,,,,,,,,,,,,,,,,,,,,,,,,,,,,,,,,,,,,,,,,,,,,,,,,,,,,,,,,,,,,,,,,,,,,,,,,,,,,,,,,,,,,,,,,,,,,,,,,,,,,,,,,,,,,,,,,,,,,,,,,,,,,,,,,,
,,5fe02160c274b392183266aa,2024-02-19_02h13.56.499,kallum_motion_pilot,2023.2.2,Win32,161.2903226,5fe02160c274b392183266aa,65d2b6c8f2eece985d8e374c,65d2b95a0b64bbe7b18e2688,0.0225,0.0226,0,0,0,34,1,twoone,,,,,,,,,,,,,,,,,,,,,,,,,,,,,,,,,,,,,,,,,,,,,,,,,,,,,,,,,,,,,,,,,,,,,,,,,,,,,,,,,,,,,,,,,,,,,,,,,,,,,,,,,,,,,,,,,,,,,,,,,,,,,,,,,,,,,,,,,
,,5fe02160c274b392183266aa,2024-02-19_02h13.56.499,kallum_motion_pilot,2023.2.2,Win32,161.2903226,5fe02160c274b392183266aa,65d2b6c8f2eece985d8e374c,65d2b95a0b64bbe7b18e2688,0.0228,0.0228,0,1,1,27,1,twofour,,,,,,,,,,,,,,,,,,,,,,,,,,,,,,,,,,,,,,,,,,,,,,,,,,,,,,,,,,,,,,,,,,,,,,,,,,,,,,,,,,,,,,,,,,,,,,,,,,,,,,,,,,,,,,,,,,,,,,,,,,,,,,,,,,,,,,,,,
,,5fe02160c274b392183266aa,2024-02-19_02h13.56.499,kallum_motion_pilot,2023.2.2,Win32,161.2903226,5fe02160c274b392183266aa,65d2b6c8f2eece985d8e374c,65d2b95a0b64bbe7b18e2688,0.0229,0.0229,0,2,2,98,1,sixfive,,,,,,,,,,,,,,,,,,,,,,,,,,,,,,,,,,,,,,,,,,,,,,,,,,,,,,,,,,,,,,,,,,,,,,,,,,,,,,,,,,,,,,,,,,,,,,,,,,,,,,,,,,,,,,,,,,,,,,,,,,,,,,,,,,,,,,,,,
,,5fe02160c274b392183266aa,2024-02-19_02h13.56.499,kallum_motion_pilot,2023.2.2,Win32,161.2903226,5fe02160c274b392183266aa,65d2b6c8f2eece985d8e374c,65d2b95a0b64bbe7b18e2688,0.023,0.0231,0,3,3,8,1,onetwo,,,,,,,,,,,,,,,,,,,,,,,,,,,,,,,,,,,,,,,,,,,,,,,,,,,,,,,,,,,,,,,,,,,,,,,,,,,,,,,,,,,,,,,,,,,,,,,,,,,,,,,,,,,,,,,,,,,,,,,,,,,,,,,,,,,,,,,,,
,,5fe02160c274b392183266aa,2024-02-19_02h13.56.499,kallum_motion_pilot,2023.2.2,Win32,161.2903226,5fe02160c274b392183266aa,65d2b6c8f2eece985d8e374c,65d2b95a0b64bbe7b18e2688,0.0231,0.0232,0,4,4,16,1,onetwo,,,,,,,,,,,,,,,,,,,,,,,,,,,,,,,,,,,,,,,,,,,,,,,,,,,,,,,,,,,,,,,,,,,,,,,,,,,,,,,,,,,,,,,,,,,,,,,,,,,,,,,,,,,,,,,,,,,,,,,,,,,,,,,,,,,,,,,,,
,,5fe02160c274b392183266aa,2024-02-19_02h13.56.499,kallum_motion_pilot,2023.2.2,Win32,161.2903226,5fe02160c274b392183266aa,65d2b6c8f2eece985d8e374c,65d2b95a0b64bbe7b18e2688,0.0233,0.0233,0,5,5,67,1,twofour,,,,,,,,,,,,,,,,,,,,,,,,,,,,,,,,,,,,,,,,,,,,,,,,,,,,,,,,,,,,,,,,,,,,,,,,,,,,,,,,,,,,,,,,,,,,,,,,,,,,,,,,,,,,,,,,,,,,,,,,,,,,,,,,,,,,,,,,,
,,5fe02160c274b392183266aa,2024-02-19_02h13.56.499,kallum_motion_pilot,2023.2.2,Win32,161.2903226,5fe02160c274b392183266aa,65d2b6c8f2eece985d8e374c,65d2b95a0b64bbe7b18e2688,0.0234,0.0234,0,6,6,138,1,sixfive,,,,,,,,,,,,,,,,,,,,,,,,,,,,,,,,,,,,,,,,,,,,,,,,,,,,,,,,,,,,,,,,,,,,,,,,,,,,,,,,,,,,,,,,,,,,,,,,,,,,,,,,,,,,,,,,,,,,,,,,,,,,,,,,,,,,,,,,,
,,5fe02160c274b392183266aa,2024-02-19_02h13.56.499,kallum_motion_pilot,2023.2.2,Win32,161.2903226,5fe02160c274b392183266aa,65d2b6c8f2eece985d8e374c,65d2b95a0b64bbe7b18e2688,0.0234,0.0234,0,7,7,157,1,seveneight,,,,,,,,,,,,,,,,,,,,,,,,,,,,,,,,,,,,,,,,,,,,,,,,,,,,,,,,,,,,,,,,,,,,,,,,,,,,,,,,,,,,,,,,,,,,,,,,,,,,,,,,,,,,,,,,,,,,,,,,,,,,,,,,,,,,,,,,,
,,5fe02160c274b392183266aa,2024-02-19_02h13.56.499,kallum_motion_pilot,2023.2.2,Win32,161.2903226,5fe02160c274b392183266aa,65d2b6c8f2eece985d8e374c,65d2b95a0b64bbe7b18e2688,0.0236,0.0236,0,8,8,45,1,threefour,,,,,,,,,,,,,,,,,,,,,,,,,,,,,,,,,,,,,,,,,,,,,,,,,,,,,,,,,,,,,,,,,,,,,,,,,,,,,,,,,,,,,,,,,,,,,,,,,,,,,,,,,,,,,,,,,,,,,,,,,,,,,,,,,,,,,,,,,
,,5fe02160c274b392183266aa,2024-02-19_02h13.56.499,kallum_motion_pilot,2023.2.2,Win32,161.2903226,5fe02160c274b392183266aa,65d2b6c8f2eece985d8e374c,65d2b95a0b64bbe7b18e2688,0.0237,0.0237,0,9,9,30,1,fourtwo,,,,,,,,,,,,,,,,,,,,,,,,,,,,,,,,,,,,,,,,,,,,,,,,,,,,,,,,,,,,,,,,,,,,,,,,,,,,,,,,,,,,,,,,,,,,,,,,,,,,,,,,,,,,,,,,,,,,,,,,,,,,,,,,,,,,,,,,,
,,5fe02160c274b392183266aa,2024-02-19_02h13.56.499,kallum_motion_pilot,2023.2.2,Win32,161.2903226,5fe02160c274b392183266aa,65d2b6c8f2eece985d8e374c,65d2b95a0b64bbe7b18e2688,0.0238,0.0238,0,10,10,13,1,threefour,,,,,,,,,,,,,,,,,,,,,,,,,,,,,,,,,,,,,,,,,,,,,,,,,,,,,,,,,,,,,,,,,,,,,,,,,,,,,,,,,,,,,,,,,,,,,,,,,,,,,,,,,,,,,,,,,,,,,,,,,,,,,,,,,,,,,,,,,
,,5fe02160c274b392183266aa,2024-02-19_02h13.56.499,kallum_motion_pilot,2023.2.2,Win32,161.2903226,5fe02160c274b392183266aa,65d2b6c8f2eece985d8e374c,65d2b95a0b64bbe7b18e2688,0.0239,0.0239,0,11,11,113,1,fiveseven,,,,,,,,,,,,,,,,,,,,,,,,,,,,,,,,,,,,,,,,,,,,,,,,,,,,,,,,,,,,,,,,,,,,,,,,,,,,,,,,,,,,,,,,,,,,,,,,,,,,,,,,,,,,,,,,,,,,,,,,,,,,,,,,,,,,,,,,,
,,5fe02160c274b392183266aa,2024-02-19_02h13.56.499,kallum_motion_pilot,2023.2.2,Win32,161.2903226,5fe02160c274b392183266aa,65d2b6c8f2eece985d8e374c,65d2b95a0b64bbe7b18e2688,0.024,0.0241,0,12,12,141,1,seveneight,,,,,,,,,,,,,,,,,,,,,,,,,,,,,,,,,,,,,,,,,,,,,,,,,,,,,,,,,,,,,,,,,,,,,,,,,,,,,,,,,,,,,,,,,,,,,,,,,,,,,,,,,,,,,,,,,,,,,,,,,,,,,,,,,,,,,,,,,
,,5fe02160c274b392183266aa,2024-02-19_02h13.56.499,kallum_motion_pilot,2023.2.2,Win32,161.2903226,5fe02160c274b392183266aa,65d2b6c8f2eece985d8e374c,65d2b95a0b64bbe7b18e2688,0.0242,0.0242,0,13,13,68,1,threeone,,,,,,,,,,,,,,,,,,,,,,,,,,,,,,,,,,,,,,,,,,,,,,,,,,,,,,,,,,,,,,,,,,,,,,,,,,,,,,,,,,,,,,,,,,,,,,,,,,,,,,,,,,,,,,,,,,,,,,,,,,,,,,,,,,,,,,,,,
,,5fe02160c274b392183266aa,2024-02-19_02h13.56.499,kallum_motion_pilot,2023.2.2,Win32,161.2903226,5fe02160c274b392183266aa,65d2b6c8f2eece985d8e374c,65d2b95a0b64bbe7b18e2688,0.0242,0.0243,0,14,14,52,1,threeone,,,,,,,,,,,,,,,,,,,,,,,,,,,,,,,,,,,,,,,,,,,,,,,,,,,,,,,,,,,,,,,,,,,,,,,,,,,,,,,,,,,,,,,,,,,,,,,,,,,,,,,,,,,,,,,,,,,,,,,,,,,,,,,,,,,,,,,,,
,,5fe02160c274b392183266aa,2024-02-19_02h13.56.499,kallum_motion_pilot,2023.2.2,Win32,161.2903226,5fe02160c274b392183266aa,65d2b6c8f2eece985d8e374c,65d2b95a0b64bbe7b18e2688,0.0243,0.0243,0,15,15,119,1,eightseven,,,,,,,,,,,,,,,,,,,,,,,,,,,,,,,,,,,,,,,,,,,,,,,,,,,,,,,,,,,,,,,,,,,,,,,,,,,,,,,,,,,,,,,,,,,,,,,,,,,,,,,,,,,,,,,,,,,,,,,,,,,,,,,,,,,,,,,,,
,,5fe02160c274b392183266aa,2024-02-19_02h13.56.499,kallum_motion_pilot,2023.2.2,Win32,161.2903226,5fe02160c274b392183266aa,65d2b6c8f2eece985d8e374c,65d2b95a0b64bbe7b18e2688,0.0244,0.0244,0,16,16,78,1,fourtwo,,,,,,,,,,,,,,,,,,,,,,,,,,,,,,,,,,,,,,,,,,,,,,,,,,,,,,,,,,,,,,,,,,,,,,,,,,,,,,,,,,,,,,,,,,,,,,,,,,,,,,,,,,,,,,,,,,,,,,,,,,,,,,,,,,,,,,,,,
,,5fe02160c274b392183266aa,2024-02-19_02h13.56.499,kallum_motion_pilot,2023.2.2,Win32,161.2903226,5fe02160c274b392183266aa,65d2b6c8f2eece985d8e374c,65d2b95a0b64bbe7b18e2688,0.0245,0.0245,0,17,17,93,1,seveneight,,,,,,,,,,,,,,,,,,,,,,,,,,,,,,,,,,,,,,,,,,,,,,,,,,,,,,,,,,,,,,,,,,,,,,,,,,,,,,,,,,,,,,,,,,,,,,,,,,,,,,,,,,,,,,,,,,,,,,,,,,,,,,,,,,,,,,,,,
,,5fe02160c274b392183266aa,2024-02-19_02h13.56.499,kallum_motion_pilot,2023.2.2,Win32,161.2903226,5fe02160c274b392183266aa,65d2b6c8f2eece985d8e374c,65d2b95a0b64bbe7b18e2688,0.0246,0.0246,0,18,18,80,1,fivesix,,,,,,,,,,,,,,,,,,,,,,,,,,,,,,,,,,,,,,,,,,,,,,,,,,,,,,,,,,,,,,,,,,,,,,,,,,,,,,,,,,,,,,,,,,,,,,,,,,,,,,,,,,,,,,,,,,,,,,,,,,,,,,,,,,,,,,,,,
,,5fe02160c274b392183266aa,2024-02-19_02h13.56.499,kallum_motion_pilot,2023.2.2,Win32,161.2903226,5fe02160c274b392183266aa,65d2b6c8f2eece985d8e374c,65d2b95a0b64bbe7b18e2688,0.0246,0.0247,0,19,19,92,1,sevenfive,,,,,,,,,,,,,,,,,,,,,,,,,,,,,,,,,,,,,,,,,,,,,,,,,,,,,,,,,,,,,,,,,,,,,,,,,,,,,,,,,,,,,,,,,,,,,,,,,,,,,,,,,,,,,,,,,,,,,,,,,,,,,,,,,,,,,,,,,
,,5fe02160c274b392183266aa,2024-02-19_02h13.56.499,kallum_motion_pilot,2023.2.2,Win32,161.2903226,5fe02160c274b392183266aa,65d2b6c8f2eece985d8e374c,65d2b95a0b64bbe7b18e2688,0.0248,0.0248,0,20,20,66,1,twoone,,,,,,,,,,,,,,,,,,,,,,,,,,,,,,,,,,,,,,,,,,,,,,,,,,,,,,,,,,,,,,,,,,,,,,,,,,,,,,,,,,,,,,,,,,,,,,,,,,,,,,,,,,,,,,,,,,,,,,,,,,,,,,,,,,,,,,,,,
,,5fe02160c274b392183266aa,2024-02-19_02h13.56.499,kallum_motion_pilot,2023.2.2,Win32,161.2903226,5fe02160c274b392183266aa,65d2b6c8f2eece985d8e374c,65d2b95a0b64bbe7b18e2688,0.0249,0.0249,0,21,21,51,1,twofour,,,,,,,,,,,,,,,,,,,,,,,,,,,,,,,,,,,,,,,,,,,,,,,,,,,,,,,,,,,,,,,,,,,,,,,,,,,,,,,,,,,,,,,,,,,,,,,,,,,,,,,,,,,,,,,,,,,,,,,,,,,,,,,,,,,,,,,,,
,,5fe02160c274b392183266aa,2024-02-19_02h13.56.499,kallum_motion_pilot,2023.2.2,Win32,161.2903226,5fe02160c274b392183266aa,65d2b6c8f2eece985d8e374c,65d2b95a0b64bbe7b18e2688,0.0249,0.025,0,22,22,21,1,threefour,,,,,,,,,,,,,,,,,,,,,,,,,,,,,,,,,,,,,,,,,,,,,,,,,,,,,,,,,,,,,,,,,,,,,,,,,,,,,,,,,,,,,,,,,,,,,,,,,,,,,,,,,,,,,,,,,,,,,,,,,,,,,,,,,,,,,,,,,
,,5fe02160c274b392183266aa,2024-02-19_02h13.56.499,kallum_motion_pilot,2023.2.2,Win32,161.2903226,5fe02160c274b392183266aa,65d2b6c8f2eece985d8e374c,65d2b95a0b64bbe7b18e2688,0.025,0.0251,0,23,23,23,1,fourthree,,,,,,,,,,,,,,,,,,,,,,,,,,,,,,,,,,,,,,,,,,,,,,,,,,,,,,,,,,,,,,,,,,,,,,,,,,,,,,,,,,,,,,,,,,,,,,,,,,,,,,,,,,,,,,,,,,,,,,,,,,,,,,,,,,,,,,,,,
,,5fe02160c274b392183266aa,2024-02-19_02h13.56.499,kallum_motion_pilot,2023.2.2,Win32,161.2903226,5fe02160c274b392183266aa,65d2b6c8f2eece985d8e374c,65d2b95a0b64bbe7b18e2688,0.0252,0.0252,0,24,24,7,1,fourthree,,,,,,,,,,,,,,,,,,,,,,,,,,,,,,,,,,,,,,,,,,,,,,,,,,,,,,,,,,,,,,,,,,,,,,,,,,,,,,,,,,,,,,,,,,,,,,,,,,,,,,,,,,,,,,,,,,,,,,,,,,,,,,,,,,,,,,,,,
,,5fe02160c274b392183266aa,2024-02-19_02h13.56.499,kallum_motion_pilot,2023.2.2,Win32,161.2903226,5fe02160c274b392183266aa,65d2b6c8f2eece985d8e374c,65d2b95a0b64bbe7b18e2688,0.0253,0.0253,0,25,25,58,1,twoone,,,,,,,,,,,,,,,,,,,,,,,,,,,,,,,,,,,,,,,,,,,,,,,,,,,,,,,,,,,,,,,,,,,,,,,,,,,,,,,,,,,,,,,,,,,,,,,,,,,,,,,,,,,,,,,,,,,,,,,,,,,,,,,,,,,,,,,,,
,,5fe02160c274b392183266aa,2024-02-19_02h13.56.499,kallum_motion_pilot,2023.2.2,Win32,161.2903226,5fe02160c274b392183266aa,65d2b6c8f2eece985d8e374c,65d2b95a0b64bbe7b18e2688,0.0254,0.0254,0,26,26,63,1,fourthree,,,,,,,,,,,,,,,,,,,,,,,,,,,,,,,,,,,,,,,,,,,,,,,,,,,,,,,,,,,,,,,,,,,,,,,,,,,,,,,,,,,,,,,,,,,,,,,,,,,,,,,,,,,,,,,,,,,,,,,,,,,,,,,,,,,,,,,,,
,,5fe02160c274b392183266aa,2024-02-19_02h13.56.499,kallum_motion_pilot,2023.2.2,Win32,161.2903226,5fe02160c274b392183266aa,65d2b6c8f2eece985d8e374c,65d2b95a0b64bbe7b18e2688,0.0255,0.0255,0,27,27,108,1,sevenfive,,,,,,,,,,,,,,,,,,,,,,,,,,,,,,,,,,,,,,,,,,,,,,,,,,,,,,,,,,,,,,,,,,,,,,,,,,,,,,,,,,,,,,,,,,,,,,,,,,,,,,,,,,,,,,,,,,,,,,,,,,,,,,,,,,,,,,,,,
,,5fe02160c274b392183266aa,2024-02-19_02h13.56.499,kallum_motion_pilot,2023.2.2,Win32,161.2903226,5fe02160c274b392183266aa,65d2b6c8f2eece985d8e374c,65d2b95a0b64bbe7b18e2688,0.0256,0.0256,0,28,28,31,1,fourthree,,,,,,,,,,,,,,,,,,,,,,,,,,,,,,,,,,,,,,,,,,,,,,,,,,,,,,,,,,,,,,,,,,,,,,,,,,,,,,,,,,,,,,,,,,,,,,,,,,,,,,,,,,,,,,,,,,,,,,,,,,,,,,,,,,,,,,,,,
,,5fe02160c274b392183266aa,2024-02-19_02h13.56.499,kallum_motion_pilot,2023.2.2,Win32,161.2903226,5fe02160c274b392183266aa,65d2b6c8f2eece985d8e374c,65d2b95a0b64bbe7b18e2688,0.0257,0.0257,0,29,29,137,1,fiveseven,,,,,,,,,,,,,,,,,,,,,,,,,,,,,,,,,,,,,,,,,,,,,,,,,,,,,,,,,,,,,,,,,,,,,,,,,,,,,,,,,,,,,,,,,,,,,,,,,,,,,,,,,,,,,,,,,,,,,,,,,,,,,,,,,,,,,,,,,
,,5fe02160c274b392183266aa,2024-02-19_02h13.56.499,kallum_motion_pilot,2023.2.2,Win32,161.2903226,5fe02160c274b392183266aa,65d2b6c8f2eece985d8e374c,65d2b95a0b64bbe7b18e2688,0.0258,0.0259,0,30,30,100,1,sevenfive,,,,,,,,,,,,,,,,,,,,,,,,,,,,,,,,,,,,,,,,,,,,,,,,,,,,,,,,,,,,,,,,,,,,,,,,,,,,,,,,,,,,,,,,,,,,,,,,,,,,,,,,,,,,,,,,,,,,,,,,,,,,,,,,,,,,,,,,,
,,5fe02160c274b392183266aa,2024-02-19_02h13.56.499,kallum_motion_pilot,2023.2.2,Win32,161.2903226,5fe02160c274b392183266aa,65d2b6c8f2eece985d8e374c,65d2b95a0b64bbe7b18e2688,0.0259,0.0259,0,31,31,4,1,threeone,,,,,,,,,,,,,,,,,,,,,,,,,,,,,,,,,,,,,,,,,,,,,,,,,,,,,,,,,,,,,,,,,,,,,,,,,,,,,,,,,,,,,,,,,,,,,,,,,,,,,,,,,,,,,,,,,,,,,,,,,,,,,,,,,,,,,,,,,
,,5fe02160c274b392183266aa,2024-02-19_02h13.56.499,kallum_motion_pilot,2023.2.2,Win32,161.2903226,5fe02160c274b392183266aa,65d2b6c8f2eece985d8e374c,65d2b95a0b64bbe7b18e2688,0.026,0.0261,0,32,32,150,1,eightsix,,,,,,,,,,,,,,,,,,,,,,,,,,,,,,,,,,,,,,,,,,,,,,,,,,,,,,,,,,,,,,,,,,,,,,,,,,,,,,,,,,,,,,,,,,,,,,,,,,,,,,,,,,,,,,,,,,,,,,,,,,,,,,,,,,,,,,,,,
,,5fe02160c274b392183266aa,2024-02-19_02h13.56.499,kallum_motion_pilot,2023.2.2,Win32,161.2903226,5fe02160c274b392183266aa,65d2b6c8f2eece985d8e374c,65d2b95a0b64bbe7b18e2688,0.0263,0.0263,0,33,33,154,1,sixfive,,,,,,,,,,,,,,,,,,,,,,,,,,,,,,,,,,,,,,,,,,,,,,,,,,,,,,,,,,,,,,,,,,,,,,,,,,,,,,,,,,,,,,,,,,,,,,,,,,,,,,,,,,,,,,,,,,,,,,,,,,,,,,,,,,,,,,,,,
,,5fe02160c274b392183266aa,2024-02-19_02h13.56.499,kallum_motion_pilot,2023.2.2,Win32,161.2903226,5fe02160c274b392183266aa,65d2b6c8f2eece985d8e374c,65d2b95a0b64bbe7b18e2688,0.0264,0.0265,0,34,34,126,1,eightsix,,,,,,,,,,,,,,,,,,,,,,,,,,,,,,,,,,,,,,,,,,,,,,,,,,,,,,,,,,,,,,,,,,,,,,,,,,,,,,,,,,,,,,,,,,,,,,,,,,,,,,,,,,,,,,,,,,,,,,,,,,,,,,,,,,,,,,,,,
,,5fe02160c274b392183266aa,2024-02-19_02h13.56.499,kallum_motion_pilot,2023.2.2,Win32,161.2903226,5fe02160c274b392183266aa,65d2b6c8f2eece985d8e374c,65d2b95a0b64bbe7b18e2688,0.0265,0.0266,0,35,35,87,1,eightseven,,,,,,,,,,,,,,,,,,,,,,,,,,,,,,,,,,,,,,,,,,,,,,,,,,,,,,,,,,,,,,,,,,,,,,,,,,,,,,,,,,,,,,,,,,,,,,,,,,,,,,,,,,,,,,,,,,,,,,,,,,,,,,,,,,,,,,,,,
,,5fe02160c274b392183266aa,2024-02-19_02h13.56.499,kallum_motion_pilot,2023.2.2,Win32,161.2903226,5fe02160c274b392183266aa,65d2b6c8f2eece985d8e374c,65d2b95a0b64bbe7b18e2688,0.0266,0.0267,0,36,36,106,1,sixfive,,,,,,,,,,,,,,,,,,,,,,,,,,,,,,,,,,,,,,,,,,,,,,,,,,,,,,,,,,,,,,,,,,,,,,,,,,,,,,,,,,,,,,,,,,,,,,,,,,,,,,,,,,,,,,,,,,,,,,,,,,,,,,,,,,,,,,,,,
,,5fe02160c274b392183266aa,2024-02-19_02h13.56.499,kallum_motion_pilot,2023.2.2,Win32,161.2903226,5fe02160c274b392183266aa,65d2b6c8f2eece985d8e374c,65d2b95a0b64bbe7b18e2688,0.0268,0.0268,0,37,37,127,1,eightseven,,,,,,,,,,,,,,,,,,,,,,,,,,,,,,,,,,,,,,,,,,,,,,,,,,,,,,,,,,,,,,,,,,,,,,,,,,,,,,,,,,,,,,,,,,,,,,,,,,,,,,,,,,,,,,,,,,,,,,,,,,,,,,,,,,,,,,,,,
,,5fe02160c274b392183266aa,2024-02-19_02h13.56.499,kallum_motion_pilot,2023.2.2,Win32,161.2903226,5fe02160c274b392183266aa,65d2b6c8f2eece985d8e374c,65d2b95a0b64bbe7b18e2688,0.0268,0.0269,0,38,38,20,1,threeone,,,,,,,,,,,,,,,,,,,,,,,,,,,,,,,,,,,,,,,,,,,,,,,,,,,,,,,,,,,,,,,,,,,,,,,,,,,,,,,,,,,,,,,,,,,,,,,,,,,,,,,,,,,,,,,,,,,,,,,,,,,,,,,,,,,,,,,,,
,,5fe02160c274b392183266aa,2024-02-19_02h13.56.499,kallum_motion_pilot,2023.2.2,Win32,161.2903226,5fe02160c274b392183266aa,65d2b6c8f2eece985d8e374c,65d2b95a0b64bbe7b18e2688,0.027,0.0271,0,39,39,42,1,twoone,,,,,,,,,,,,,,,,,,,,,,,,,,,,,,,,,,,,,,,,,,,,,,,,,,,,,,,,,,,,,,,,,,,,,,,,,,,,,,,,,,,,,,,,,,,,,,,,,,,,,,,,,,,,,,,,,,,,,,,,,,,,,,,,,,,,,,,,,
,,5fe02160c274b392183266aa,2024-02-19_02h13.56.499,kallum_motion_pilot,2023.2.2,Win32,161.2903226,5fe02160c274b392183266aa,65d2b6c8f2eece985d8e374c,65d2b95a0b64bbe7b18e2688,0.0271,0.0272,0,40,40,152,1,fivesix,,,,,,,,,,,,,,,,,,,,,,,,,,,,,,,,,,,,,,,,,,,,,,,,,,,,,,,,,,,,,,,,,,,,,,,,,,,,,,,,,,,,,,,,,,,,,,,,,,,,,,,,,,,,,,,,,,,,,,,,,,,,,,,,,,,,,,,,,
,,5fe02160c274b392183266aa,2024-02-19_02h13.56.499,kallum_motion_pilot,2023.2.2,Win32,161.2903226,5fe02160c274b392183266aa,65d2b6c8f2eece985d8e374c,65d2b95a0b64bbe7b18e2688,0.0273,0.0273,0,41,41,50,1,twoone,,,,,,,,,,,,,,,,,,,,,,,,,,,,,,,,,,,,,,,,,,,,,,,,,,,,,,,,,,,,,,,,,,,,,,,,,,,,,,,,,,,,,,,,,,,,,,,,,,,,,,,,,,,,,,,,,,,,,,,,,,,,,,,,,,,,,,,,,
,,5fe02160c274b392183266aa,2024-02-19_02h13.56.499,kallum_motion_pilot,2023.2.2,Win32,161.2903226,5fe02160c274b392183266aa,65d2b6c8f2eece985d8e374c,65d2b95a0b64bbe7b18e2688,0.0274,0.0274,0,42,42,62,1,fourtwo,,,,,,,,,,,,,,,,,,,,,,,,,,,,,,,,,,,,,,,,,,,,,,,,,,,,,,,,,,,,,,,,,,,,,,,,,,,,,,,,,,,,,,,,,,,,,,,,,,,,,,,,,,,,,,,,,,,,,,,,,,,,,,,,,,,,,,,,,
,,5fe02160c274b392183266aa,2024-02-19_02h13.56.499,kallum_motion_pilot,2023.2.2,Win32,161.2903226,5fe02160c274b392183266aa,65d2b6c8f2eece985d8e374c,65d2b95a0b64bbe7b18e2688,0.0275,0.0275,0,43,43,14,1,fourtwo,,,,,,,,,,,,,,,,,,,,,,,,,,,,,,,,,,,,,,,,,,,,,,,,,,,,,,,,,,,,,,,,,,,,,,,,,,,,,,,,,,,,,,,,,,,,,,,,,,,,,,,,,,,,,,,,,,,,,,,,,,,,,,,,,,,,,,,,,
,,5fe02160c274b392183266aa,2024-02-19_02h13.56.499,kallum_motion_pilot,2023.2.2,Win32,161.2903226,5fe02160c274b392183266aa,65d2b6c8f2eece985d8e374c,65d2b95a0b64bbe7b18e2688,0.0276,0.0276,0,44,44,56,1,onetwo,,,,,,,,,,,,,,,,,,,,,,,,,,,,,,,,,,,,,,,,,,,,,,,,,,,,,,,,,,,,,,,,,,,,,,,,,,,,,,,,,,,,,,,,,,,,,,,,,,,,,,,,,,,,,,,,,,,,,,,,,,,,,,,,,,,,,,,,,
,,5fe02160c274b392183266aa,2024-02-19_02h13.56.499,kallum_motion_pilot,2023.2.2,Win32,161.2903226,5fe02160c274b392183266aa,65d2b6c8f2eece985d8e374c,65d2b95a0b64bbe7b18e2688,0.0277,0.0277,0,45,45,88,1,fivesix,,,,,,,,,,,,,,,,,,,,,,,,,,,,,,,,,,,,,,,,,,,,,,,,,,,,,,,,,,,,,,,,,,,,,,,,,,,,,,,,,,,,,,,,,,,,,,,,,,,,,,,,,,,,,,,,,,,,,,,,,,,,,,,,,,,,,,,,,
,,5fe02160c274b392183266aa,2024-02-19_02h13.56.499,kallum_motion_pilot,2023.2.2,Win32,161.2903226,5fe02160c274b392183266aa,65d2b6c8f2eece985d8e374c,65d2b95a0b64bbe7b18e2688,0.0278,0.0278,0,46,46,102,1,eightsix,,,,,,,,,,,,,,,,,,,,,,,,,,,,,,,,,,,,,,,,,,,,,,,,,,,,,,,,,,,,,,,,,,,,,,,,,,,,,,,,,,,,,,,,,,,,,,,,,,,,,,,,,,,,,,,,,,,,,,,,,,,,,,,,,,,,,,,,,
,,5fe02160c274b392183266aa,2024-02-19_02h13.56.499,kallum_motion_pilot,2023.2.2,Win32,161.2903226,5fe02160c274b392183266aa,65d2b6c8f2eece985d8e374c,65d2b95a0b64bbe7b18e2688,0.0278,0.0279,0,47,47,158,1,eightsix,,,,,,,,,,,,,,,,,,,,,,,,,,,,,,,,,,,,,,,,,,,,,,,,,,,,,,,,,,,,,,,,,,,,,,,,,,,,,,,,,,,,,,,,,,,,,,,,,,,,,,,,,,,,,,,,,,,,,,,,,,,,,,,,,,,,,,,,,
,,5fe02160c274b392183266aa,2024-02-19_02h13.56.499,kallum_motion_pilot,2023.2.2,Win32,161.2903226,5fe02160c274b392183266aa,65d2b6c8f2eece985d8e374c,65d2b95a0b64bbe7b18e2688,0.028,0.028,0,48,48,65,1,onethree,,,,,,,,,,,,,,,,,,,,,,,,,,,,,,,,,,,,,,,,,,,,,,,,,,,,,,,,,,,,,,,,,,,,,,,,,,,,,,,,,,,,,,,,,,,,,,,,,,,,,,,,,,,,,,,,,,,,,,,,,,,,,,,,,,,,,,,,,
,,5fe02160c274b392183266aa,2024-02-19_02h13.56.499,kallum_motion_pilot,2023.2.2,Win32,161.2903226,5fe02160c274b392183266aa,65d2b6c8f2eece985d8e374c,65d2b95a0b64bbe7b18e2688,0.0281,0.0281,0,49,49,54,1,fourtwo,,,,,,,,,,,,,,,,,,,,,,,,,,,,,,,,,,,,,,,,,,,,,,,,,,,,,,,,,,,,,,,,,,,,,,,,,,,,,,,,,,,,,,,,,,,,,,,,,,,,,,,,,,,,,,,,,,,,,,,,,,,,,,,,,,,,,,,,,
,,5fe02160c274b392183266aa,2024-02-19_02h13.56.499,kallum_motion_pilot,2023.2.2,Win32,161.2903226,5fe02160c274b392183266aa,65d2b6c8f2eece985d8e374c,65d2b95a0b64bbe7b18e2688,0.0282,0.0283,0,50,50,114,1,sixfive,,,,,,,,,,,,,,,,,,,,,,,,,,,,,,,,,,,,,,,,,,,,,,,,,,,,,,,,,,,,,,,,,,,,,,,,,,,,,,,,,,,,,,,,,,,,,,,,,,,,,,,,,,,,,,,,,,,,,,,,,,,,,,,,,,,,,,,,,
,,5fe02160c274b392183266aa,2024-02-19_02h13.56.499,kallum_motion_pilot,2023.2.2,Win32,161.2903226,5fe02160c274b392183266aa,65d2b6c8f2eece985d8e374c,65d2b95a0b64bbe7b18e2688,0.0283,0.0283,0,51,51,41,1,onethree,,,,,,,,,,,,,,,,,,,,,,,,,,,,,,,,,,,,,,,,,,,,,,,,,,,,,,,,,,,,,,,,,,,,,,,,,,,,,,,,,,,,,,,,,,,,,,,,,,,,,,,,,,,,,,,,,,,,,,,,,,,,,,,,,,,,,,,,,
,,5fe02160c274b392183266aa,2024-02-19_02h13.56.499,kallum_motion_pilot,2023.2.2,Win32,161.2903226,5fe02160c274b392183266aa,65d2b6c8f2eece985d8e374c,65d2b95a0b64bbe7b18e2688,0.0284,0.0284,0,52,52,3,1,twofour,,,,,,,,,,,,,,,,,,,,,,,,,,,,,,,,,,,,,,,,,,,,,,,,,,,,,,,,,,,,,,,,,,,,,,,,,,,,,,,,,,,,,,,,,,,,,,,,,,,,,,,,,,,,,,,,,,,,,,,,,,,,,,,,,,,,,,,,,
,,5fe02160c274b392183266aa,2024-02-19_02h13.56.499,kallum_motion_pilot,2023.2.2,Win32,161.2903226,5fe02160c274b392183266aa,65d2b6c8f2eece985d8e374c,65d2b95a0b64bbe7b18e2688,0.0286,0.0286,0,53,53,36,1,threeone,,,,,,,,,,,,,,,,,,,,,,,,,,,,,,,,,,,,,,,,,,,,,,,,,,,,,,,,,,,,,,,,,,,,,,,,,,,,,,,,,,,,,,,,,,,,,,,,,,,,,,,,,,,,,,,,,,,,,,,,,,,,,,,,,,,,,,,,,
,,5fe02160c274b392183266aa,2024-02-19_02h13.56.499,kallum_motion_pilot,2023.2.2,Win32,161.2903226,5fe02160c274b392183266aa,65d2b6c8f2eece985d8e374c,65d2b95a0b64bbe7b18e2688,0.0286,0.0286,0,54,54,79,1,eightseven,,,,,,,,,,,,,,,,,,,,,,,,,,,,,,,,,,,,,,,,,,,,,,,,,,,,,,,,,,,,,,,,,,,,,,,,,,,,,,,,,,,,,,,,,,,,,,,,,,,,,,,,,,,,,,,,,,,,,,,,,,,,,,,,,,,,,,,,,
,,5fe02160c274b392183266aa,2024-02-19_02h13.56.499,kallum_motion_pilot,2023.2.2,Win32,161.2903226,5fe02160c274b392183266aa,65d2b6c8f2eece985d8e374c,65d2b95a0b64bbe7b18e2688,0.0287,0.0288,0,55,55,159,1,eightseven,,,,,,,,,,,,,,,,,,,,,,,,,,,,,,,,,,,,,,,,,,,,,,,,,,,,,,,,,,,,,,,,,,,,,,,,,,,,,,,,,,,,,,,,,,,,,,,,,,,,,,,,,,,,,,,,,,,,,,,,,,,,,,,,,,,,,,,,,
,,5fe02160c274b392183266aa,2024-02-19_02h13.56.499,kallum_motion_pilot,2023.2.2,Win32,161.2903226,5fe02160c274b392183266aa,65d2b6c8f2eece985d8e374c,65d2b95a0b64bbe7b18e2688,0.0288,0.0288,0,56,56,144,1,fivesix,,,,,,,,,,,,,,,,,,,,,,,,,,,,,,,,,,,,,,,,,,,,,,,,,,,,,,,,,,,,,,,,,,,,,,,,,,,,,,,,,,,,,,,,,,,,,,,,,,,,,,,,,,,,,,,,,,,,,,,,,,,,,,,,,,,,,,,,,
,,5fe02160c274b392183266aa,2024-02-19_02h13.56.499,kallum_motion_pilot,2023.2.2,Win32,161.2903226,5fe02160c274b392183266aa,65d2b6c8f2eece985d8e374c,65d2b95a0b64bbe7b18e2688,0.029,0.029,0,57,57,139,1,sixeight,,,,,,,,,,,,,,,,,,,,,,,,,,,,,,,,,,,,,,,,,,,,,,,,,,,,,,,,,,,,,,,,,,,,,,,,,,,,,,,,,,,,,,,,,,,,,,,,,,,,,,,,,,,,,,,,,,,,,,,,,,,,,,,,,,,,,,,,,
,,5fe02160c274b392183266aa,2024-02-19_02h13.56.499,kallum_motion_pilot,2023.2.2,Win32,161.2903226,5fe02160c274b392183266aa,65d2b6c8f2eece985d8e374c,65d2b95a0b64bbe7b18e2688,0.029,0.0291,0,58,58,104,1,fivesix,,,,,,,,,,,,,,,,,,,,,,,,,,,,,,,,,,,,,,,,,,,,,,,,,,,,,,,,,,,,,,,,,,,,,,,,,,,,,,,,,,,,,,,,,,,,,,,,,,,,,,,,,,,,,,,,,,,,,,,,,,,,,,,,,,,,,,,,,
,,5fe02160c274b392183266aa,2024-02-19_02h13.56.499,kallum_motion_pilot,2023.2.2,Win32,161.2903226,5fe02160c274b392183266aa,65d2b6c8f2eece985d8e374c,65d2b95a0b64bbe7b18e2688,0.0292,0.0292,0,59,59,6,1,fourtwo,,,,,,,,,,,,,,,,,,,,,,,,,,,,,,,,,,,,,,,,,,,,,,,,,,,,,,,,,,,,,,,,,,,,,,,,,,,,,,,,,,,,,,,,,,,,,,,,,,,,,,,,,,,,,,,,,,,,,,,,,,,,,,,,,,,,,,,,,
,,5fe02160c274b392183266aa,2024-02-19_02h13.56.499,kallum_motion_pilot,2023.2.2,Win32,161.2903226,5fe02160c274b392183266aa,65d2b6c8f2eece985d8e374c,65d2b95a0b64bbe7b18e2688,0.0292,0.0292,0,60,60,71,1,fourthree,,,,,,,,,,,,,,,,,,,,,,,,,,,,,,,,,,,,,,,,,,,,,,,,,,,,,,,,,,,,,,,,,,,,,,,,,,,,,,,,,,,,,,,,,,,,,,,,,,,,,,,,,,,,,,,,,,,,,,,,,,,,,,,,,,,,,,,,,
,,5fe02160c274b392183266aa,2024-02-19_02h13.56.499,kallum_motion_pilot,2023.2.2,Win32,161.2903226,5fe02160c274b392183266aa,65d2b6c8f2eece985d8e374c,65d2b95a0b64bbe7b18e2688,0.0293,0.0294,0,61,61,97,1,fiveseven,,,,,,,,,,,,,,,,,,,,,,,,,,,,,,,,,,,,,,,,,,,,,,,,,,,,,,,,,,,,,,,,,,,,,,,,,,,,,,,,,,,,,,,,,,,,,,,,,,,,,,,,,,,,,,,,,,,,,,,,,,,,,,,,,,,,,,,,,
,,5fe02160c274b392183266aa,2024-02-19_02h13.56.499,kallum_motion_pilot,2023.2.2,Win32,161.2903226,5fe02160c274b392183266aa,65d2b6c8f2eece985d8e374c,65d2b95a0b64bbe7b18e2688,0.0294,0.0295,0,62,62,145,1,fiveseven,,,,,,,,,,,,,,,,,,,,,,,,,,,,,,,,,,,,,,,,,,,,,,,,,,,,,,,,,,,,,,,,,,,,,,,,,,,,,,,,,,,,,,,,,,,,,,,,,,,,,,,,,,,,,,,,,,,,,,,,,,,,,,,,,,,,,,,,,
,,5fe02160c274b392183266aa,2024-02-19_02h13.56.499,kallum_motion_pilot,2023.2.2,Win32,161.2903226,5fe02160c274b392183266aa,65d2b6c8f2eece985d8e374c,65d2b95a0b64bbe7b18e2688,0.0296,0.0296,0,63,63,101,1,seveneight,,,,,,,,,,,,,,,,,,,,,,,,,,,,,,,,,,,,,,,,,,,,,,,,,,,,,,,,,,,,,,,,,,,,,,,,,,,,,,,,,,,,,,,,,,,,,,,,,,,,,,,,,,,,,,,,,,,,,,,,,,,,,,,,,,,,,,,,,
,,5fe02160c274b392183266aa,2024-02-19_02h13.56.499,kallum_motion_pilot,2023.2.2,Win32,161.2903226,5fe02160c274b392183266aa,65d2b6c8f2eece985d8e374c,65d2b95a0b64bbe7b18e2688,0.0297,0.0297,0,64,64,46,1,fourtwo,,,,,,,,,,,,,,,,,,,,,,,,,,,,,,,,,,,,,,,,,,,,,,,,,,,,,,,,,,,,,,,,,,,,,,,,,,,,,,,,,,,,,,,,,,,,,,,,,,,,,,,,,,,,,,,,,,,,,,,,,,,,,,,,,,,,,,,,,
,,5fe02160c274b392183266aa,2024-02-19_02h13.56.499,kallum_motion_pilot,2023.2.2,Win32,161.2903226,5fe02160c274b392183266aa,65d2b6c8f2eece985d8e374c,65d2b95a0b64bbe7b18e2688,0.0299,0.0299,0,65,65,118,1,eightsix,,,,,,,,,,,,,,,,,,,,,,,,,,,,,,,,,,,,,,,,,,,,,,,,,,,,,,,,,,,,,,,,,,,,,,,,,,,,,,,,,,,,,,,,,,,,,,,,,,,,,,,,,,,,,,,,,,,,,,,,,,,,,,,,,,,,,,,,,
,,5fe02160c274b392183266aa,2024-02-19_02h13.56.499,kallum_motion_pilot,2023.2.2,Win32,161.2903226,5fe02160c274b392183266aa,65d2b6c8f2eece985d8e374c,65d2b95a0b64bbe7b18e2688,0.0299,0.0299,0,66,66,55,1,fourthree,,,,,,,,,,,,,,,,,,,,,,,,,,,,,,,,,,,,,,,,,,,,,,,,,,,,,,,,,,,,,,,,,,,,,,,,,,,,,,,,,,,,,,,,,,,,,,,,,,,,,,,,,,,,,,,,,,,,,,,,,,,,,,,,,,,,,,,,,
,,5fe02160c274b392183266aa,2024-02-19_02h13.56.499,kallum_motion_pilot,2023.2.2,Win32,161.2903226,5fe02160c274b392183266aa,65d2b6c8f2eece985d8e374c,65d2b95a0b64bbe7b18e2688,0.0301,0.0301,0,67,67,35,1,twofour,,,,,,,,,,,,,,,,,,,,,,,,,,,,,,,,,,,,,,,,,,,,,,,,,,,,,,,,,,,,,,,,,,,,,,,,,,,,,,,,,,,,,,,,,,,,,,,,,,,,,,,,,,,,,,,,,,,,,,,,,,,,,,,,,,,,,,,,,
,,5fe02160c274b392183266aa,2024-02-19_02h13.56.499,kallum_motion_pilot,2023.2.2,Win32,161.2903226,5fe02160c274b392183266aa,65d2b6c8f2eece985d8e374c,65d2b95a0b64bbe7b18e2688,0.0302,0.0303,0,68,68,29,1,threefour,,,,,,,,,,,,,,,,,,,,,,,,,,,,,,,,,,,,,,,,,,,,,,,,,,,,,,,,,,,,,,,,,,,,,,,,,,,,,,,,,,,,,,,,,,,,,,,,,,,,,,,,,,,,,,,,,,,,,,,,,,,,,,,,,,,,,,,,,
,,5fe02160c274b392183266aa,2024-02-19_02h13.56.499,kallum_motion_pilot,2023.2.2,Win32,161.2903226,5fe02160c274b392183266aa,65d2b6c8f2eece985d8e374c,65d2b95a0b64bbe7b18e2688,0.0303,0.0304,0,69,69,130,1,sixfive,,,,,,,,,,,,,,,,,,,,,,,,,,,,,,,,,,,,,,,,,,,,,,,,,,,,,,,,,,,,,,,,,,,,,,,,,,,,,,,,,,,,,,,,,,,,,,,,,,,,,,,,,,,,,,,,,,,,,,,,,,,,,,,,,,,,,,,,,
,,5fe02160c274b392183266aa,2024-02-19_02h13.56.499,kallum_motion_pilot,2023.2.2,Win32,161.2903226,5fe02160c274b392183266aa,65d2b6c8f2eece985d8e374c,65d2b95a0b64bbe7b18e2688,0.0304,0.0305,0,70,70,128,1,fivesix,,,,,,,,,,,,,,,,,,,,,,,,,,,,,,,,,,,,,,,,,,,,,,,,,,,,,,,,,,,,,,,,,,,,,,,,,,,,,,,,,,,,,,,,,,,,,,,,,,,,,,,,,,,,,,,,,,,,,,,,,,,,,,,,,,,,,,,,,
,,5fe02160c274b392183266aa,2024-02-19_02h13.56.499,kallum_motion_pilot,2023.2.2,Win32,161.2903226,5fe02160c274b392183266aa,65d2b6c8f2eece985d8e374c,65d2b95a0b64bbe7b18e2688,0.0306,0.0306,0,71,71,151,1,eightseven,,,,,,,,,,,,,,,,,,,,,,,,,,,,,,,,,,,,,,,,,,,,,,,,,,,,,,,,,,,,,,,,,,,,,,,,,,,,,,,,,,,,,,,,,,,,,,,,,,,,,,,,,,,,,,,,,,,,,,,,,,,,,,,,,,,,,,,,,
,,5fe02160c274b392183266aa,2024-02-19_02h13.56.499,kallum_motion_pilot,2023.2.2,Win32,161.2903226,5fe02160c274b392183266aa,65d2b6c8f2eece985d8e374c,65d2b95a0b64bbe7b18e2688,0.0308,0.0308,0,72,72,40,1,onetwo,,,,,,,,,,,,,,,,,,,,,,,,,,,,,,,,,,,,,,,,,,,,,,,,,,,,,,,,,,,,,,,,,,,,,,,,,,,,,,,,,,,,,,,,,,,,,,,,,,,,,,,,,,,,,,,,,,,,,,,,,,,,,,,,,,,,,,,,,
,,5fe02160c274b392183266aa,2024-02-19_02h13.56.499,kallum_motion_pilot,2023.2.2,Win32,161.2903226,5fe02160c274b392183266aa,65d2b6c8f2eece985d8e374c,65d2b95a0b64bbe7b18e2688,0.0309,0.031,0,73,73,133,1,seveneight,,,,,,,,,,,,,,,,,,,,,,,,,,,,,,,,,,,,,,,,,,,,,,,,,,,,,,,,,,,,,,,,,,,,,,,,,,,,,,,,,,,,,,,,,,,,,,,,,,,,,,,,,,,,,,,,,,,,,,,,,,,,,,,,,,,,,,,,,
,,5fe02160c274b392183266aa,2024-02-19_02h13.56.499,kallum_motion_pilot,2023.2.2,Win32,161.2903226,5fe02160c274b392183266aa,65d2b6c8f2eece985d8e374c,65d2b95a0b64bbe7b18e2688,0.0312,0.0312,0,74,74,12,1,threeone,,,,,,,,,,,,,,,,,,,,,,,,,,,,,,,,,,,,,,,,,,,,,,,,,,,,,,,,,,,,,,,,,,,,,,,,,,,,,,,,,,,,,,,,,,,,,,,,,,,,,,,,,,,,,,,,,,,,,,,,,,,,,,,,,,,,,,,,,
,,5fe02160c274b392183266aa,2024-02-19_02h13.56.499,kallum_motion_pilot,2023.2.2,Win32,161.2903226,5fe02160c274b392183266aa,65d2b6c8f2eece985d8e374c,65d2b95a0b64bbe7b18e2688,0.0313,0.0313,0,75,75,90,1,sixfive,,,,,,,,,,,,,,,,,,,,,,,,,,,,,,,,,,,,,,,,,,,,,,,,,,,,,,,,,,,,,,,,,,,,,,,,,,,,,,,,,,,,,,,,,,,,,,,,,,,,,,,,,,,,,,,,,,,,,,,,,,,,,,,,,,,,,,,,,
,,5fe02160c274b392183266aa,2024-02-19_02h13.56.499,kallum_motion_pilot,2023.2.2,Win32,161.2903226,5fe02160c274b392183266aa,65d2b6c8f2eece985d8e374c,65d2b95a0b64bbe7b18e2688,0.0313,0.0315,0,76,76,61,1,threefour,,,,,,,,,,,,,,,,,,,,,,,,,,,,,,,,,,,,,,,,,,,,,,,,,,,,,,,,,,,,,,,,,,,,,,,,,,,,,,,,,,,,,,,,,,,,,,,,,,,,,,,,,,,,,,,,,,,,,,,,,,,,,,,,,,,,,,,,,
,,5fe02160c274b392183266aa,2024-02-19_02h13.56.499,kallum_motion_pilot,2023.2.2,Win32,161.2903226,5fe02160c274b392183266aa,65d2b6c8f2eece985d8e374c,65d2b95a0b64bbe7b18e2688,0.0315,0.0315,0,77,77,105,1,fiveseven,,,,,,,,,,,,,,,,,,,,,,,,,,,,,,,,,,,,,,,,,,,,,,,,,,,,,,,,,,,,,,,,,,,,,,,,,,,,,,,,,,,,,,,,,,,,,,,,,,,,,,,,,,,,,,,,,,,,,,,,,,,,,,,,,,,,,,,,,
,,5fe02160c274b392183266aa,2024-02-19_02h13.56.499,kallum_motion_pilot,2023.2.2,Win32,161.2903226,5fe02160c274b392183266aa,65d2b6c8f2eece985d8e374c,65d2b95a0b64bbe7b18e2688,0.0316,0.0317,0,78,78,85,1,seveneight,,,,,,,,,,,,,,,,,,,,,,,,,,,,,,,,,,,,,,,,,,,,,,,,,,,,,,,,,,,,,,,,,,,,,,,,,,,,,,,,,,,,,,,,,,,,,,,,,,,,,,,,,,,,,,,,,,,,,,,,,,,,,,,,,,,,,,,,,
,,5fe02160c274b392183266aa,2024-02-19_02h13.56.499,kallum_motion_pilot,2023.2.2,Win32,161.2903226,5fe02160c274b392183266aa,65d2b6c8f2eece985d8e374c,65d2b95a0b64bbe7b18e2688,0.0317,0.0318,0,79,79,161,1,fiveseven,,,,,,,,,,,,,,,,,,,,,,,,,,,,,,,,,,,,,,,,,,,,,,,,,,,,,,,,,,,,,,,,,,,,,,,,,,,,,,,,,,,,,,,,,,,,,,,,,,,,,,,,,,,,,,,,,,,,,,,,,,,,,,,,,,,,,,,,,
,,5fe02160c274b392183266aa,2024-02-19_02h13.56.499,kallum_motion_pilot,2023.2.2,Win32,161.2903226,5fe02160c274b392183266aa,65d2b6c8f2eece985d8e374c,65d2b95a0b64bbe7b18e2688,0.0319,0.032,0,80,80,82,1,sixfive,,,,,,,,,,,,,,,,,,,,,,,,,,,,,,,,,,,,,,,,,,,,,,,,,,,,,,,,,,,,,,,,,,,,,,,,,,,,,,,,,,,,,,,,,,,,,,,,,,,,,,,,,,,,,,,,,,,,,,,,,,,,,,,,,,,,,,,,,
,,5fe02160c274b392183266aa,2024-02-19_02h13.56.499,kallum_motion_pilot,2023.2.2,Win32,161.2903226,5fe02160c274b392183266aa,65d2b6c8f2eece985d8e374c,65d2b95a0b64bbe7b18e2688,0.032,0.0321,0,81,81,117,1,seveneight,,,,,,,,,,,,,,,,,,,,,,,,,,,,,,,,,,,,,,,,,,,,,,,,,,,,,,,,,,,,,,,,,,,,,,,,,,,,,,,,,,,,,,,,,,,,,,,,,,,,,,,,,,,,,,,,,,,,,,,,,,,,,,,,,,,,,,,,,
,,5fe02160c274b392183266aa,2024-02-19_02h13.56.499,kallum_motion_pilot,2023.2.2,Win32,161.2903226,5fe02160c274b392183266aa,65d2b6c8f2eece985d8e374c,65d2b95a0b64bbe7b18e2688,0.0321,0.0321,0,82,82,110,1,eightsix,,,,,,,,,,,,,,,,,,,,,,,,,,,,,,,,,,,,,,,,,,,,,,,,,,,,,,,,,,,,,,,,,,,,,,,,,,,,,,,,,,,,,,,,,,,,,,,,,,,,,,,,,,,,,,,,,,,,,,,,,,,,,,,,,,,,,,,,,
,,5fe02160c274b392183266aa,2024-02-19_02h13.56.499,kallum_motion_pilot,2023.2.2,Win32,161.2903226,5fe02160c274b392183266aa,65d2b6c8f2eece985d8e374c,65d2b95a0b64bbe7b18e2688,0.0322,0.0323,0,83,83,134,1,eightsix,,,,,,,,,,,,,,,,,,,,,,,,,,,,,,,,,,,,,,,,,,,,,,,,,,,,,,,,,,,,,,,,,,,,,,,,,,,,,,,,,,,,,,,,,,,,,,,,,,,,,,,,,,,,,,,,,,,,,,,,,,,,,,,,,,,,,,,,,
,,5fe02160c274b392183266aa,2024-02-19_02h13.56.499,kallum_motion_pilot,2023.2.2,Win32,161.2903226,5fe02160c274b392183266aa,65d2b6c8f2eece985d8e374c,65d2b95a0b64bbe7b18e2688,0.0323,0.0324,0,84,84,155,1,sixeight,,,,,,,,,,,,,,,,,,,,,,,,,,,,,,,,,,,,,,,,,,,,,,,,,,,,,,,,,,,,,,,,,,,,,,,,,,,,,,,,,,,,,,,,,,,,,,,,,,,,,,,,,,,,,,,,,,,,,,,,,,,,,,,,,,,,,,,,,
,,5fe02160c274b392183266aa,2024-02-19_02h13.56.499,kallum_motion_pilot,2023.2.2,Win32,161.2903226,5fe02160c274b392183266aa,65d2b6c8f2eece985d8e374c,65d2b95a0b64bbe7b18e2688,0.0324,0.0325,0,85,85,9,1,onethree,,,,,,,,,,,,,,,,,,,,,,,,,,,,,,,,,,,,,,,,,,,,,,,,,,,,,,,,,,,,,,,,,,,,,,,,,,,,,,,,,,,,,,,,,,,,,,,,,,,,,,,,,,,,,,,,,,,,,,,,,,,,,,,,,,,,,,,,,
,,5fe02160c274b392183266aa,2024-02-19_02h13.56.499,kallum_motion_pilot,2023.2.2,Win32,161.2903226,5fe02160c274b392183266aa,65d2b6c8f2eece985d8e374c,65d2b95a0b64bbe7b18e2688,0.0326,0.0326,0,86,86,111,1,eightseven,,,,,,,,,,,,,,,,,,,,,,,,,,,,,,,,,,,,,,,,,,,,,,,,,,,,,,,,,,,,,,,,,,,,,,,,,,,,,,,,,,,,,,,,,,,,,,,,,,,,,,,,,,,,,,,,,,,,,,,,,,,,,,,,,,,,,,,,,
,,5fe02160c274b392183266aa,2024-02-19_02h13.56.499,kallum_motion_pilot,2023.2.2,Win32,161.2903226,5fe02160c274b392183266aa,65d2b6c8f2eece985d8e374c,65d2b95a0b64bbe7b18e2688,0.0327,0.0329,0,87,87,28,1,threeone,,,,,,,,,,,,,,,,,,,,,,,,,,,,,,,,,,,,,,,,,,,,,,,,,,,,,,,,,,,,,,,,,,,,,,,,,,,,,,,,,,,,,,,,,,,,,,,,,,,,,,,,,,,,,,,,,,,,,,,,,,,,,,,,,,,,,,,,,
,,5fe02160c274b392183266aa,2024-02-19_02h13.56.499,kallum_motion_pilot,2023.2.2,Win32,161.2903226,5fe02160c274b392183266aa,65d2b6c8f2eece985d8e374c,65d2b95a0b64bbe7b18e2688,0.0329,0.033,0,88,88,121,1,fiveseven,,,,,,,,,,,,,,,,,,,,,,,,,,,,,,,,,,,,,,,,,,,,,,,,,,,,,,,,,,,,,,,,,,,,,,,,,,,,,,,,,,,,,,,,,,,,,,,,,,,,,,,,,,,,,,,,,,,,,,,,,,,,,,,,,,,,,,,,,
,,5fe02160c274b392183266aa,2024-02-19_02h13.56.499,kallum_motion_pilot,2023.2.2,Win32,161.2903226,5fe02160c274b392183266aa,65d2b6c8f2eece985d8e374c,65d2b95a0b64bbe7b18e2688,0.033,0.0331,0,89,89,19,1,twofour,,,,,,,,,,,,,,,,,,,,,,,,,,,,,,,,,,,,,,,,,,,,,,,,,,,,,,,,,,,,,,,,,,,,,,,,,,,,,,,,,,,,,,,,,,,,,,,,,,,,,,,,,,,,,,,,,,,,,,,,,,,,,,,,,,,,,,,,,
,,5fe02160c274b392183266aa,2024-02-19_02h13.56.499,kallum_motion_pilot,2023.2.2,Win32,161.2903226,5fe02160c274b392183266aa,65d2b6c8f2eece985d8e374c,65d2b95a0b64bbe7b18e2688,0.0332,0.0332,0,90,90,44,1,threeone,,,,,,,,,,,,,,,,,,,,,,,,,,,,,,,,,,,,,,,,,,,,,,,,,,,,,,,,,,,,,,,,,,,,,,,,,,,,,,,,,,,,,,,,,,,,,,,,,,,,,,,,,,,,,,,,,,,,,,,,,,,,,,,,,,,,,,,,,
,,5fe02160c274b392183266aa,2024-02-19_02h13.56.499,kallum_motion_pilot,2023.2.2,Win32,161.2903226,5fe02160c274b392183266aa,65d2b6c8f2eece985d8e374c,65d2b95a0b64bbe7b18e2688,0.0333,0.0334,0,91,91,123,1,sixeight,,,,,,,,,,,,,,,,,,,,,,,,,,,,,,,,,,,,,,,,,,,,,,,,,,,,,,,,,,,,,,,,,,,,,,,,,,,,,,,,,,,,,,,,,,,,,,,,,,,,,,,,,,,,,,,,,,,,,,,,,,,,,,,,,,,,,,,,,
,,5fe02160c274b392183266aa,2024-02-19_02h13.56.499,kallum_motion_pilot,2023.2.2,Win32,161.2903226,5fe02160c274b392183266aa,65d2b6c8f2eece985d8e374c,65d2b95a0b64bbe7b18e2688,0.0334,0.0334,0,92,92,39,1,fourthree,,,,,,,,,,,,,,,,,,,,,,,,,,,,,,,,,,,,,,,,,,,,,,,,,,,,,,,,,,,,,,,,,,,,,,,,,,,,,,,,,,,,,,,,,,,,,,,,,,,,,,,,,,,,,,,,,,,,,,,,,,,,,,,,,,,,,,,,,
,,5fe02160c274b392183266aa,2024-02-19_02h13.56.499,kallum_motion_pilot,2023.2.2,Win32,161.2903226,5fe02160c274b392183266aa,65d2b6c8f2eece985d8e374c,65d2b95a0b64bbe7b18e2688,0.0335,0.0335,0,93,93,76,1,threeone,,,,,,,,,,,,,,,,,,,,,,,,,,,,,,,,,,,,,,,,,,,,,,,,,,,,,,,,,,,,,,,,,,,,,,,,,,,,,,,,,,,,,,,,,,,,,,,,,,,,,,,,,,,,,,,,,,,,,,,,,,,,,,,,,,,,,,,,,
,,5fe02160c274b392183266aa,2024-02-19_02h13.56.499,kallum_motion_pilot,2023.2.2,Win32,161.2903226,5fe02160c274b392183266aa,65d2b6c8f2eece985d8e374c,65d2b95a0b64bbe7b18e2688,0.0336,0.0336,0,94,94,142,1,eightsix,,,,,,,,,,,,,,,,,,,,,,,,,,,,,,,,,,,,,,,,,,,,,,,,,,,,,,,,,,,,,,,,,,,,,,,,,,,,,,,,,,,,,,,,,,,,,,,,,,,,,,,,,,,,,,,,,,,,,,,,,,,,,,,,,,,,,,,,,
,,5fe02160c274b392183266aa,2024-02-19_02h13.56.499,kallum_motion_pilot,2023.2.2,Win32,161.2903226,5fe02160c274b392183266aa,65d2b6c8f2eece985d8e374c,65d2b95a0b64bbe7b18e2688,0.0337,0.0337,0,95,95,153,1,fiveseven,,,,,,,,,,,,,,,,,,,,,,,,,,,,,,,,,,,,,,,,,,,,,,,,,,,,,,,,,,,,,,,,,,,,,,,,,,,,,,,,,,,,,,,,,,,,,,,,,,,,,,,,,,,,,,,,,,,,,,,,,,,,,,,,,,,,,,,,,
,,5fe02160c274b392183266aa,2024-02-19_02h13.56.499,kallum_motion_pilot,2023.2.2,Win32,161.2903226,5fe02160c274b392183266aa,65d2b6c8f2eece985d8e374c,65d2b95a0b64bbe7b18e2688,0.0338,0.0339,0,96,96,149,1,seveneight,,,,,,,,,,,,,,,,,,,,,,,,,,,,,,,,,,,,,,,,,,,,,,,,,,,,,,,,,,,,,,,,,,,,,,,,,,,,,,,,,,,,,,,,,,,,,,,,,,,,,,,,,,,,,,,,,,,,,,,,,,,,,,,,,,,,,,,,,
,,5fe02160c274b392183266aa,2024-02-19_02h13.56.499,kallum_motion_pilot,2023.2.2,Win32,161.2903226,5fe02160c274b392183266aa,65d2b6c8f2eece985d8e374c,65d2b95a0b64bbe7b18e2688,0.0339,0.034,0,97,97,2,1,twoone,,,,,,,,,,,,,,,,,,,,,,,,,,,,,,,,,,,,,,,,,,,,,,,,,,,,,,,,,,,,,,,,,,,,,,,,,,,,,,,,,,,,,,,,,,,,,,,,,,,,,,,,,,,,,,,,,,,,,,,,,,,,,,,,,,,,,,,,,
,,5fe02160c274b392183266aa,2024-02-19_02h13.56.499,kallum_motion_pilot,2023.2.2,Win32,161.2903226,5fe02160c274b392183266aa,65d2b6c8f2eece985d8e374c,65d2b95a0b64bbe7b18e2688,0.034,0.0341,0,98,98,73,1,onethree,,,,,,,,,,,,,,,,,,,,,,,,,,,,,,,,,,,,,,,,,,,,,,,,,,,,,,,,,,,,,,,,,,,,,,,,,,,,,,,,,,,,,,,,,,,,,,,,,,,,,,,,,,,,,,,,,,,,,,,,,,,,,,,,,,,,,,,,,
,,5fe02160c274b392183266aa,2024-02-19_02h13.56.499,kallum_motion_pilot,2023.2.2,Win32,161.2903226,5fe02160c274b392183266aa,65d2b6c8f2eece985d8e374c,65d2b95a0b64bbe7b18e2688,0.0342,0.0342,0,99,99,43,1,twofour,,,,,,,,,,,,,,,,,,,,,,,,,,,,,,,,,,,,,,,,,,,,,,,,,,,,,,,,,,,,,,,,,,,,,,,,,,,,,,,,,,,,,,,,,,,,,,,,,,,,,,,,,,,,,,,,,,,,,,,,,,,,,,,,,,,,,,,,,
,,5fe02160c274b392183266aa,2024-02-19_02h13.56.499,kallum_motion_pilot,2023.2.2,Win32,161.2903226,5fe02160c274b392183266aa,65d2b6c8f2eece985d8e374c,65d2b95a0b64bbe7b18e2688,0.0343,0.0343,0,100,100,125,1,seveneight,,,,,,,,,,,,,,,,,,,,,,,,,,,,,,,,,,,,,,,,,,,,,,,,,,,,,,,,,,,,,,,,,,,,,,,,,,,,,,,,,,,,,,,,,,,,,,,,,,,,,,,,,,,,,,,,,,,,,,,,,,,,,,,,,,,,,,,,,
,,5fe02160c274b392183266aa,2024-02-19_02h13.56.499,kallum_motion_pilot,2023.2.2,Win32,161.2903226,5fe02160c274b392183266aa,65d2b6c8f2eece985d8e374c,65d2b95a0b64bbe7b18e2688,0.0344,0.0344,0,101,101,69,1,threefour,,,,,,,,,,,,,,,,,,,,,,,,,,,,,,,,,,,,,,,,,,,,,,,,,,,,,,,,,,,,,,,,,,,,,,,,,,,,,,,,,,,,,,,,,,,,,,,,,,,,,,,,,,,,,,,,,,,,,,,,,,,,,,,,,,,,,,,,,
,,5fe02160c274b392183266aa,2024-02-19_02h13.56.499,kallum_motion_pilot,2023.2.2,Win32,161.2903226,5fe02160c274b392183266aa,65d2b6c8f2eece985d8e374c,65d2b95a0b64bbe7b18e2688,0.0345,0.0345,0,102,102,47,1,fourthree,,,,,,,,,,,,,,,,,,,,,,,,,,,,,,,,,,,,,,,,,,,,,,,,,,,,,,,,,,,,,,,,,,,,,,,,,,,,,,,,,,,,,,,,,,,,,,,,,,,,,,,,,,,,,,,,,,,,,,,,,,,,,,,,,,,,,,,,,
,,5fe02160c274b392183266aa,2024-02-19_02h13.56.499,kallum_motion_pilot,2023.2.2,Win32,161.2903226,5fe02160c274b392183266aa,65d2b6c8f2eece985d8e374c,65d2b95a0b64bbe7b18e2688,0.0346,0.0346,0,103,103,129,1,fiveseven,,,,,,,,,,,,,,,,,,,,,,,,,,,,,,,,,,,,,,,,,,,,,,,,,,,,,,,,,,,,,,,,,,,,,,,,,,,,,,,,,,,,,,,,,,,,,,,,,,,,,,,,,,,,,,,,,,,,,,,,,,,,,,,,,,,,,,,,,
,,5fe02160c274b392183266aa,2024-02-19_02h13.56.499,kallum_motion_pilot,2023.2.2,Win32,161.2903226,5fe02160c274b392183266aa,65d2b6c8f2eece985d8e374c,65d2b95a0b64bbe7b18e2688,0.0347,0.0348,0,104,104,60,1,threeone,,,,,,,,,,,,,,,,,,,,,,,,,,,,,,,,,,,,,,,,,,,,,,,,,,,,,,,,,,,,,,,,,,,,,,,,,,,,,,,,,,,,,,,,,,,,,,,,,,,,,,,,,,,,,,,,,,,,,,,,,,,,,,,,,,,,,,,,,
,,5fe02160c274b392183266aa,2024-02-19_02h13.56.499,kallum_motion_pilot,2023.2.2,Win32,161.2903226,5fe02160c274b392183266aa,65d2b6c8f2eece985d8e374c,65d2b95a0b64bbe7b18e2688,0.0348,0.0349,0,105,105,38,1,fourtwo,,,,,,,,,,,,,,,,,,,,,,,,,,,,,,,,,,,,,,,,,,,,,,,,,,,,,,,,,,,,,,,,,,,,,,,,,,,,,,,,,,,,,,,,,,,,,,,,,,,,,,,,,,,,,,,,,,,,,,,,,,,,,,,,,,,,,,,,,
,,5fe02160c274b392183266aa,2024-02-19_02h13.56.499,kallum_motion_pilot,2023.2.2,Win32,161.2903226,5fe02160c274b392183266aa,65d2b6c8f2eece985d8e374c,65d2b95a0b64bbe7b18e2688,0.0349,0.0349,0,106,106,22,1,fourtwo,,,,,,,,,,,,,,,,,,,,,,,,,,,,,,,,,,,,,,,,,,,,,,,,,,,,,,,,,,,,,,,,,,,,,,,,,,,,,,,,,,,,,,,,,,,,,,,,,,,,,,,,,,,,,,,,,,,,,,,,,,,,,,,,,,,,,,,,,
,,5fe02160c274b392183266aa,2024-02-19_02h13.56.499,kallum_motion_pilot,2023.2.2,Win32,161.2903226,5fe02160c274b392183266aa,65d2b6c8f2eece985d8e374c,65d2b95a0b64bbe7b18e2688,0.035,0.035,0,107,107,53,1,threefour,,,,,,,,,,,,,,,,,,,,,,,,,,,,,,,,,,,,,,,,,,,,,,,,,,,,,,,,,,,,,,,,,,,,,,,,,,,,,,,,,,,,,,,,,,,,,,,,,,,,,,,,,,,,,,,,,,,,,,,,,,,,,,,,,,,,,,,,,
,,5fe02160c274b392183266aa,2024-02-19_02h13.56.499,kallum_motion_pilot,2023.2.2,Win32,161.2903226,5fe02160c274b392183266aa,65d2b6c8f2eece985d8e374c,65d2b95a0b64bbe7b18e2688,0.0351,0.0351,0,108,108,72,1,onetwo,,,,,,,,,,,,,,,,,,,,,,,,,,,,,,,,,,,,,,,,,,,,,,,,,,,,,,,,,,,,,,,,,,,,,,,,,,,,,,,,,,,,,,,,,,,,,,,,,,,,,,,,,,,,,,,,,,,,,,,,,,,,,,,,,,,,,,,,,
,,5fe02160c274b392183266aa,2024-02-19_02h13.56.499,kallum_motion_pilot,2023.2.2,Win32,161.2903226,5fe02160c274b392183266aa,65d2b6c8f2eece985d8e374c,65d2b95a0b64bbe7b18e2688,0.0353,0.0353,0,109,109,109,1,seveneight,,,,,,,,,,,,,,,,,,,,,,,,,,,,,,,,,,,,,,,,,,,,,,,,,,,,,,,,,,,,,,,,,,,,,,,,,,,,,,,,,,,,,,,,,,,,,,,,,,,,,,,,,,,,,,,,,,,,,,,,,,,,,,,,,,,,,,,,,
,,5fe02160c274b392183266aa,2024-02-19_02h13.56.499,kallum_motion_pilot,2023.2.2,Win32,161.2903226,5fe02160c274b392183266aa,65d2b6c8f2eece985d8e374c,65d2b95a0b64bbe7b18e2688,0.0353,0.0354,0,110,110,148,1,sevenfive,,,,,,,,,,,,,,,,,,,,,,,,,,,,,,,,,,,,,,,,,,,,,,,,,,,,,,,,,,,,,,,,,,,,,,,,,,,,,,,,,,,,,,,,,,,,,,,,,,,,,,,,,,,,,,,,,,,,,,,,,,,,,,,,,,,,,,,,,
,,5fe02160c274b392183266aa,2024-02-19_02h13.56.499,kallum_motion_pilot,2023.2.2,Win32,161.2903226,5fe02160c274b392183266aa,65d2b6c8f2eece985d8e374c,65d2b95a0b64bbe7b18e2688,0.0354,0.0355,0,111,111,140,1,sevenfive,,,,,,,,,,,,,,,,,,,,,,,,,,,,,,,,,,,,,,,,,,,,,,,,,,,,,,,,,,,,,,,,,,,,,,,,,,,,,,,,,,,,,,,,,,,,,,,,,,,,,,,,,,,,,,,,,,,,,,,,,,,,,,,,,,,,,,,,,
,,5fe02160c274b392183266aa,2024-02-19_02h13.56.499,kallum_motion_pilot,2023.2.2,Win32,161.2903226,5fe02160c274b392183266aa,65d2b6c8f2eece985d8e374c,65d2b95a0b64bbe7b18e2688,0.0356,0.0356,0,112,112,33,1,onethree,,,,,,,,,,,,,,,,,,,,,,,,,,,,,,,,,,,,,,,,,,,,,,,,,,,,,,,,,,,,,,,,,,,,,,,,,,,,,,,,,,,,,,,,,,,,,,,,,,,,,,,,,,,,,,,,,,,,,,,,,,,,,,,,,,,,,,,,,
,,5fe02160c274b392183266aa,2024-02-19_02h13.56.499,kallum_motion_pilot,2023.2.2,Win32,161.2903226,5fe02160c274b392183266aa,65d2b6c8f2eece985d8e374c,65d2b95a0b64bbe7b18e2688,0.0356,0.0358,0,113,113,86,1,eightsix,,,,,,,,,,,,,,,,,,,,,,,,,,,,,,,,,,,,,,,,,,,,,,,,,,,,,,,,,,,,,,,,,,,,,,,,,,,,,,,,,,,,,,,,,,,,,,,,,,,,,,,,,,,,,,,,,,,,,,,,,,,,,,,,,,,,,,,,,
,,5fe02160c274b392183266aa,2024-02-19_02h13.56.499,kallum_motion_pilot,2023.2.2,Win32,161.2903226,5fe02160c274b392183266aa,65d2b6c8f2eece985d8e374c,65d2b95a0b64bbe7b18e2688,0.0358,0.0359,0,114,114,32,1,onetwo,,,,,,,,,,,,,,,,,,,,,,,,,,,,,,,,,,,,,,,,,,,,,,,,,,,,,,,,,,,,,,,,,,,,,,,,,,,,,,,,,,,,,,,,,,,,,,,,,,,,,,,,,,,,,,,,,,,,,,,,,,,,,,,,,,,,,,,,,
,,5fe02160c274b392183266aa,2024-02-19_02h13.56.499,kallum_motion_pilot,2023.2.2,Win32,161.2903226,5fe02160c274b392183266aa,65d2b6c8f2eece985d8e374c,65d2b95a0b64bbe7b18e2688,0.0359,0.0359,0,115,115,83,1,sixeight,,,,,,,,,,,,,,,,,,,,,,,,,,,,,,,,,,,,,,,,,,,,,,,,,,,,,,,,,,,,,,,,,,,,,,,,,,,,,,,,,,,,,,,,,,,,,,,,,,,,,,,,,,,,,,,,,,,,,,,,,,,,,,,,,,,,,,,,,
,,5fe02160c274b392183266aa,2024-02-19_02h13.56.499,kallum_motion_pilot,2023.2.2,Win32,161.2903226,5fe02160c274b392183266aa,65d2b6c8f2eece985d8e374c,65d2b95a0b64bbe7b18e2688,0.036,0.0361,0,116,116,147,1,sixeight,,,,,,,,,,,,,,,,,,,,,,,,,,,,,,,,,,,,,,,,,,,,,,,,,,,,,,,,,,,,,,,,,,,,,,,,,,,,,,,,,,,,,,,,,,,,,,,,,,,,,,,,,,,,,,,,,,,,,,,,,,,,,,,,,,,,,,,,,
,,5fe02160c274b392183266aa,2024-02-19_02h13.56.499,kallum_motion_pilot,2023.2.2,Win32,161.2903226,5fe02160c274b392183266aa,65d2b6c8f2eece985d8e374c,65d2b95a0b64bbe7b18e2688,0.0361,0.0361,0,117,117,116,1,sevenfive,,,,,,,,,,,,,,,,,,,,,,,,,,,,,,,,,,,,,,,,,,,,,,,,,,,,,,,,,,,,,,,,,,,,,,,,,,,,,,,,,,,,,,,,,,,,,,,,,,,,,,,,,,,,,,,,,,,,,,,,,,,,,,,,,,,,,,,,,
,,5fe02160c274b392183266aa,2024-02-19_02h13.56.499,kallum_motion_pilot,2023.2.2,Win32,161.2903226,5fe02160c274b392183266aa,65d2b6c8f2eece985d8e374c,65d2b95a0b64bbe7b18e2688,0.0362,0.0362,0,118,118,57,1,onethree,,,,,,,,,,,,,,,,,,,,,,,,,,,,,,,,,,,,,,,,,,,,,,,,,,,,,,,,,,,,,,,,,,,,,,,,,,,,,,,,,,,,,,,,,,,,,,,,,,,,,,,,,,,,,,,,,,,,,,,,,,,,,,,,,,,,,,,,,
,,5fe02160c274b392183266aa,2024-02-19_02h13.56.499,kallum_motion_pilot,2023.2.2,Win32,161.2903226,5fe02160c274b392183266aa,65d2b6c8f2eece985d8e374c,65d2b95a0b64bbe7b18e2688,0.0363,0.0364,0,119,119,1,1,onethree,,,,,,,,,,,,,,,,,,,,,,,,,,,,,,,,,,,,,,,,,,,,,,,,,,,,,,,,,,,,,,,,,,,,,,,,,,,,,,,,,,,,,,,,,,,,,,,,,,,,,,,,,,,,,,,,,,,,,,,,,,,,,,,,,,,,,,,,,
,,5fe02160c274b392183266aa,2024-02-19_02h13.56.499,kallum_motion_pilot,2023.2.2,Win32,161.2903226,5fe02160c274b392183266aa,65d2b6c8f2eece985d8e374c,65d2b95a0b64bbe7b18e2688,0.0364,0.0365,0,120,120,131,1,sixeight,,,,,,,,,,,,,,,,,,,,,,,,,,,,,,,,,,,,,,,,,,,,,,,,,,,,,,,,,,,,,,,,,,,,,,,,,,,,,,,,,,,,,,,,,,,,,,,,,,,,,,,,,,,,,,,,,,,,,,,,,,,,,,,,,,,,,,,,,
,,5fe02160c274b392183266aa,2024-02-19_02h13.56.499,kallum_motion_pilot,2023.2.2,Win32,161.2903226,5fe02160c274b392183266aa,65d2b6c8f2eece985d8e374c,65d2b95a0b64bbe7b18e2688,0.0366,0.0366,0,121,121,15,1,fourthree,,,,,,,,,,,,,,,,,,,,,,,,,,,,,,,,,,,,,,,,,,,,,,,,,,,,,,,,,,,,,,,,,,,,,,,,,,,,,,,,,,,,,,,,,,,,,,,,,,,,,,,,,,,,,,,,,,,,,,,,,,,,,,,,,,,,,,,,,
,,5fe02160c274b392183266aa,2024-02-19_02h13.56.499,kallum_motion_pilot,2023.2.2,Win32,161.2903226,5fe02160c274b392183266aa,65d2b6c8f2eece985d8e374c,65d2b95a0b64bbe7b18e2688,0.0366,0.0366,0,122,122,124,1,sevenfive,,,,,,,,,,,,,,,,,,,,,,,,,,,,,,,,,,,,,,,,,,,,,,,,,,,,,,,,,,,,,,,,,,,,,,,,,,,,,,,,,,,,,,,,,,,,,,,,,,,,,,,,,,,,,,,,,,,,,,,,,,,,,,,,,,,,,,,,,
,,5fe02160c274b392183266aa,2024-02-19_02h13.56.499,kallum_motion_pilot,2023.2.2,Win32,161.2903226,5fe02160c274b392183266aa,65d2b6c8f2eece985d8e374c,65d2b95a0b64bbe7b18e2688,0.0367,0.0368,0,123,123,11,1,twofour,,,,,,,,,,,,,,,,,,,,,,,,,,,,,,,,,,,,,,,,,,,,,,,,,,,,,,,,,,,,,,,,,,,,,,,,,,,,,,,,,,,,,,,,,,,,,,,,,,,,,,,,,,,,,,,,,,,,,,,,,,,,,,,,,,,,,,,,,
,,5fe02160c274b392183266aa,2024-02-19_02h13.56.499,kallum_motion_pilot,2023.2.2,Win32,161.2903226,5fe02160c274b392183266aa,65d2b6c8f2eece985d8e374c,65d2b95a0b64bbe7b18e2688,0.037,0.0371,0,124,124,143,1,eightseven,,,,,,,,,,,,,,,,,,,,,,,,,,,,,,,,,,,,,,,,,,,,,,,,,,,,,,,,,,,,,,,,,,,,,,,,,,,,,,,,,,,,,,,,,,,,,,,,,,,,,,,,,,,,,,,,,,,,,,,,,,,,,,,,,,,,,,,,,
,,5fe02160c274b392183266aa,2024-02-19_02h13.56.499,kallum_motion_pilot,2023.2.2,Win32,161.2903226,5fe02160c274b392183266aa,65d2b6c8f2eece985d8e374c,65d2b95a0b64bbe7b18e2688,0.0372,0.0372,0,125,125,75,1,twofour,,,,,,,,,,,,,,,,,,,,,,,,,,,,,,,,,,,,,,,,,,,,,,,,,,,,,,,,,,,,,,,,,,,,,,,,,,,,,,,,,,,,,,,,,,,,,,,,,,,,,,,,,,,,,,,,,,,,,,,,,,,,,,,,,,,,,,,,,
,,5fe02160c274b392183266aa,2024-02-19_02h13.56.499,kallum_motion_pilot,2023.2.2,Win32,161.2903226,5fe02160c274b392183266aa,65d2b6c8f2eece985d8e374c,65d2b95a0b64bbe7b18e2688,0.0373,0.0374,0,126,126,59,1,twofour,,,,,,,,,,,,,,,,,,,,,,,,,,,,,,,,,,,,,,,,,,,,,,,,,,,,,,,,,,,,,,,,,,,,,,,,,,,,,,,,,,,,,,,,,,,,,,,,,,,,,,,,,,,,,,,,,,,,,,,,,,,,,,,,,,,,,,,,,
,,5fe02160c274b392183266aa,2024-02-19_02h13.56.499,kallum_motion_pilot,2023.2.2,Win32,161.2903226,5fe02160c274b392183266aa,65d2b6c8f2eece985d8e374c,65d2b95a0b64bbe7b18e2688,0.0374,0.0375,0,127,127,17,1,onethree,,,,,,,,,,,,,,,,,,,,,,,,,,,,,,,,,,,,,,,,,,,,,,,,,,,,,,,,,,,,,,,,,,,,,,,,,,,,,,,,,,,,,,,,,,,,,,,,,,,,,,,,,,,,,,,,,,,,,,,,,,,,,,,,,,,,,,,,,
,,5fe02160c274b392183266aa,2024-02-19_02h13.56.499,kallum_motion_pilot,2023.2.2,Win32,161.2903226,5fe02160c274b392183266aa,65d2b6c8f2eece985d8e374c,65d2b95a0b64bbe7b18e2688,0.0376,0.0376,0,128,128,136,1,fivesix,,,,,,,,,,,,,,,,,,,,,,,,,,,,,,,,,,,,,,,,,,,,,,,,,,,,,,,,,,,,,,,,,,,,,,,,,,,,,,,,,,,,,,,,,,,,,,,,,,,,,,,,,,,,,,,,,,,,,,,,,,,,,,,,,,,,,,,,,
,,5fe02160c274b392183266aa,2024-02-19_02h13.56.499,kallum_motion_pilot,2023.2.2,Win32,161.2903226,5fe02160c274b392183266aa,65d2b6c8f2eece985d8e374c,65d2b95a0b64bbe7b18e2688,0.0377,0.0377,0,129,129,37,1,threefour,,,,,,,,,,,,,,,,,,,,,,,,,,,,,,,,,,,,,,,,,,,,,,,,,,,,,,,,,,,,,,,,,,,,,,,,,,,,,,,,,,,,,,,,,,,,,,,,,,,,,,,,,,,,,,,,,,,,,,,,,,,,,,,,,,,,,,,,,
,,5fe02160c274b392183266aa,2024-02-19_02h13.56.499,kallum_motion_pilot,2023.2.2,Win32,161.2903226,5fe02160c274b392183266aa,65d2b6c8f2eece985d8e374c,65d2b95a0b64bbe7b18e2688,0.0378,0.0379,0,130,130,74,1,twoone,,,,,,,,,,,,,,,,,,,,,,,,,,,,,,,,,,,,,,,,,,,,,,,,,,,,,,,,,,,,,,,,,,,,,,,,,,,,,,,,,,,,,,,,,,,,,,,,,,,,,,,,,,,,,,,,,,,,,,,,,,,,,,,,,,,,,,,,,
,,5fe02160c274b392183266aa,2024-02-19_02h13.56.499,kallum_motion_pilot,2023.2.2,Win32,161.2903226,5fe02160c274b392183266aa,65d2b6c8f2eece985d8e374c,65d2b95a0b64bbe7b18e2688,0.038,0.038,0,131,131,18,1,twoone,,,,,,,,,,,,,,,,,,,,,,,,,,,,,,,,,,,,,,,,,,,,,,,,,,,,,,,,,,,,,,,,,,,,,,,,,,,,,,,,,,,,,,,,,,,,,,,,,,,,,,,,,,,,,,,,,,,,,,,,,,,,,,,,,,,,,,,,,
,,5fe02160c274b392183266aa,2024-02-19_02h13.56.499,kallum_motion_pilot,2023.2.2,Win32,161.2903226,5fe02160c274b392183266aa,65d2b6c8f2eece985d8e374c,65d2b95a0b64bbe7b18e2688,0.038,0.0381,0,132,132,115,1,sixeight,,,,,,,,,,,,,,,,,,,,,,,,,,,,,,,,,,,,,,,,,,,,,,,,,,,,,,,,,,,,,,,,,,,,,,,,,,,,,,,,,,,,,,,,,,,,,,,,,,,,,,,,,,,,,,,,,,,,,,,,,,,,,,,,,,,,,,,,,
,,5fe02160c274b392183266aa,2024-02-19_02h13.56.499,kallum_motion_pilot,2023.2.2,Win32,161.2903226,5fe02160c274b392183266aa,65d2b6c8f2eece985d8e374c,65d2b95a0b64bbe7b18e2688,0.0382,0.0382,0,133,133,5,1,threefour,,,,,,,,,,,,,,,,,,,,,,,,,,,,,,,,,,,,,,,,,,,,,,,,,,,,,,,,,,,,,,,,,,,,,,,,,,,,,,,,,,,,,,,,,,,,,,,,,,,,,,,,,,,,,,,,,,,,,,,,,,,,,,,,,,,,,,,,,
,,5fe02160c274b392183266aa,2024-02-19_02h13.56.499,kallum_motion_pilot,2023.2.2,Win32,161.2903226,5fe02160c274b392183266aa,65d2b6c8f2eece985d8e374c,65d2b95a0b64bbe7b18e2688,0.0383,0.0383,0,134,134,120,1,fivesix,,,,,,,,,,,,,,,,,,,,,,,,,,,,,,,,,,,,,,,,,,,,,,,,,,,,,,,,,,,,,,,,,,,,,,,,,,,,,,,,,,,,,,,,,,,,,,,,,,,,,,,,,,,,,,,,,,,,,,,,,,,,,,,,,,,,,,,,,
,,5fe02160c274b392183266aa,2024-02-19_02h13.56.499,kallum_motion_pilot,2023.2.2,Win32,161.2903226,5fe02160c274b392183266aa,65d2b6c8f2eece985d8e374c,65d2b95a0b64bbe7b18e2688,0.0385,0.0385,0,135,135,89,1,fiveseven,,,,,,,,,,,,,,,,,,,,,,,,,,,,,,,,,,,,,,,,,,,,,,,,,,,,,,,,,,,,,,,,,,,,,,,,,,,,,,,,,,,,,,,,,,,,,,,,,,,,,,,,,,,,,,,,,,,,,,,,,,,,,,,,,,,,,,,,,
,,5fe02160c274b392183266aa,2024-02-19_02h13.56.499,kallum_motion_pilot,2023.2.2,Win32,161.2903226,5fe02160c274b392183266aa,65d2b6c8f2eece985d8e374c,65d2b95a0b64bbe7b18e2688,0.0385,0.0386,0,136,136,132,1,sevenfive,,,,,,,,,,,,,,,,,,,,,,,,,,,,,,,,,,,,,,,,,,,,,,,,,,,,,,,,,,,,,,,,,,,,,,,,,,,,,,,,,,,,,,,,,,,,,,,,,,,,,,,,,,,,,,,,,,,,,,,,,,,,,,,,,,,,,,,,,
,,5fe02160c274b392183266aa,2024-02-19_02h13.56.499,kallum_motion_pilot,2023.2.2,Win32,161.2903226,5fe02160c274b392183266aa,65d2b6c8f2eece985d8e374c,65d2b95a0b64bbe7b18e2688,0.0387,0.0388,0,137,137,77,1,threefour,,,,,,,,,,,,,,,,,,,,,,,,,,,,,,,,,,,,,,,,,,,,,,,,,,,,,,,,,,,,,,,,,,,,,,,,,,,,,,,,,,,,,,,,,,,,,,,,,,,,,,,,,,,,,,,,,,,,,,,,,,,,,,,,,,,,,,,,,
,,5fe02160c274b392183266aa,2024-02-19_02h13.56.499,kallum_motion_pilot,2023.2.2,Win32,161.2903226,5fe02160c274b392183266aa,65d2b6c8f2eece985d8e374c,65d2b95a0b64bbe7b18e2688,0.0388,0.0389,0,138,138,95,1,eightseven,,,,,,,,,,,,,,,,,,,,,,,,,,,,,,,,,,,,,,,,,,,,,,,,,,,,,,,,,,,,,,,,,,,,,,,,,,,,,,,,,,,,,,,,,,,,,,,,,,,,,,,,,,,,,,,,,,,,,,,,,,,,,,,,,,,,,,,,,
,,5fe02160c274b392183266aa,2024-02-19_02h13.56.499,kallum_motion_pilot,2023.2.2,Win32,161.2903226,5fe02160c274b392183266aa,65d2b6c8f2eece985d8e374c,65d2b95a0b64bbe7b18e2688,0.0389,0.0389,0,139,139,91,1,sixeight,,,,,,,,,,,,,,,,,,,,,,,,,,,,,,,,,,,,,,,,,,,,,,,,,,,,,,,,,,,,,,,,,,,,,,,,,,,,,,,,,,,,,,,,,,,,,,,,,,,,,,,,,,,,,,,,,,,,,,,,,,,,,,,,,,,,,,,,,
,,5fe02160c274b392183266aa,2024-02-19_02h13.56.499,kallum_motion_pilot,2023.2.2,Win32,161.2903226,5fe02160c274b392183266aa,65d2b6c8f2eece985d8e374c,65d2b95a0b64bbe7b18e2688,0.039,0.039,0,140,140,96,1,fivesix,,,,,,,,,,,,,,,,,,,,,,,,,,,,,,,,,,,,,,,,,,,,,,,,,,,,,,,,,,,,,,,,,,,,,,,,,,,,,,,,,,,,,,,,,,,,,,,,,,,,,,,,,,,,,,,,,,,,,,,,,,,,,,,,,,,,,,,,,
,,5fe02160c274b392183266aa,2024-02-19_02h13.56.499,kallum_motion_pilot,2023.2.2,Win32,161.2903226,5fe02160c274b392183266aa,65d2b6c8f2eece985d8e374c,65d2b95a0b64bbe7b18e2688,0.0391,0.0393,0,141,141,10,1,twoone,,,,,,,,,,,,,,,,,,,,,,,,,,,,,,,,,,,,,,,,,,,,,,,,,,,,,,,,,,,,,,,,,,,,,,,,,,,,,,,,,,,,,,,,,,,,,,,,,,,,,,,,,,,,,,,,,,,,,,,,,,,,,,,,,,,,,,,,,
,,5fe02160c274b392183266aa,2024-02-19_02h13.56.499,kallum_motion_pilot,2023.2.2,Win32,161.2903226,5fe02160c274b392183266aa,65d2b6c8f2eece985d8e374c,65d2b95a0b64bbe7b18e2688,0.0393,0.0393,0,142,142,84,1,sevenfive,,,,,,,,,,,,,,,,,,,,,,,,,,,,,,,,,,,,,,,,,,,,,,,,,,,,,,,,,,,,,,,,,,,,,,,,,,,,,,,,,,,,,,,,,,,,,,,,,,,,,,,,,,,,,,,,,,,,,,,,,,,,,,,,,,,,,,,,,
,,5fe02160c274b392183266aa,2024-02-19_02h13.56.499,kallum_motion_pilot,2023.2.2,Win32,161.2903226,5fe02160c274b392183266aa,65d2b6c8f2eece985d8e374c,65d2b95a0b64bbe7b18e2688,0.0394,0.0394,0,143,143,94,1,eightsix,,,,,,,,,,,,,,,,,,,,,,,,,,,,,,,,,,,,,,,,,,,,,,,,,,,,,,,,,,,,,,,,,,,,,,,,,,,,,,,,,,,,,,,,,,,,,,,,,,,,,,,,,,,,,,,,,,,,,,,,,,,,,,,,,,,,,,,,,
,,5fe02160c274b392183266aa,2024-02-19_02h13.56.499,kallum_motion_pilot,2023.2.2,Win32,161.2903226,5fe02160c274b392183266aa,65d2b6c8f2eece985d8e374c,65d2b95a0b64bbe7b18e2688,0.0395,0.0395,0,144,144,48,1,onetwo,,,,,,,,,,,,,,,,,,,,,,,,,,,,,,,,,,,,,,,,,,,,,,,,,,,,,,,,,,,,,,,,,,,,,,,,,,,,,,,,,,,,,,,,,,,,,,,,,,,,,,,,,,,,,,,,,,,,,,,,,,,,,,,,,,,,,,,,,
,,5fe02160c274b392183266aa,2024-02-19_02h13.56.499,kallum_motion_pilot,2023.2.2,Win32,161.2903226,5fe02160c274b392183266aa,65d2b6c8f2eece985d8e374c,65d2b95a0b64bbe7b18e2688,0.0397,0.0397,0,145,145,70,1,fourtwo,,,,,,,,,,,,,,,,,,,,,,,,,,,,,,,,,,,,,,,,,,,,,,,,,,,,,,,,,,,,,,,,,,,,,,,,,,,,,,,,,,,,,,,,,,,,,,,,,,,,,,,,,,,,,,,,,,,,,,,,,,,,,,,,,,,,,,,,,
,,5fe02160c274b392183266aa,2024-02-19_02h13.56.499,kallum_motion_pilot,2023.2.2,Win32,161.2903226,5fe02160c274b392183266aa,65d2b6c8f2eece985d8e374c,65d2b95a0b64bbe7b18e2688,0.0398,0.0398,0,146,146,107,1,sixeight,,,,,,,,,,,,,,,,,,,,,,,,,,,,,,,,,,,,,,,,,,,,,,,,,,,,,,,,,,,,,,,,,,,,,,,,,,,,,,,,,,,,,,,,,,,,,,,,,,,,,,,,,,,,,,,,,,,,,,,,,,,,,,,,,,,,,,,,,
,,5fe02160c274b392183266aa,2024-02-19_02h13.56.499,kallum_motion_pilot,2023.2.2,Win32,161.2903226,5fe02160c274b392183266aa,65d2b6c8f2eece985d8e374c,65d2b95a0b64bbe7b18e2688,0.0399,0.04,0,147,147,81,1,fiveseven,,,,,,,,,,,,,,,,,,,,,,,,,,,,,,,,,,,,,,,,,,,,,,,,,,,,,,,,,,,,,,,,,,,,,,,,,,,,,,,,,,,,,,,,,,,,,,,,,,,,,,,,,,,,,,,,,,,,,,,,,,,,,,,,,,,,,,,,,
,,5fe02160c274b392183266aa,2024-02-19_02h13.56.499,kallum_motion_pilot,2023.2.2,Win32,161.2903226,5fe02160c274b392183266aa,65d2b6c8f2eece985d8e374c,65d2b95a0b64bbe7b18e2688,0.0401,0.0401,0,148,148,0,1,onetwo,,,,,,,,,,,,,,,,,,,,,,,,,,,,,,,,,,,,,,,,,,,,,,,,,,,,,,,,,,,,,,,,,,,,,,,,,,,,,,,,,,,,,,,,,,,,,,,,,,,,,,,,,,,,,,,,,,,,,,,,,,,,,,,,,,,,,,,,,
,,5fe02160c274b392183266aa,2024-02-19_02h13.56.499,kallum_motion_pilot,2023.2.2,Win32,161.2903226,5fe02160c274b392183266aa,65d2b6c8f2eece985d8e374c,65d2b95a0b64bbe7b18e2688,0.0402,0.0403,0,149,149,99,1,sixeight,,,,,,,,,,,,,,,,,,,,,,,,,,,,,,,,,,,,,,,,,,,,,,,,,,,,,,,,,,,,,,,,,,,,,,,,,,,,,,,,,,,,,,,,,,,,,,,,,,,,,,,,,,,,,,,,,,,,,,,,,,,,,,,,,,,,,,,,,
,,5fe02160c274b392183266aa,2024-02-19_02h13.56.499,kallum_motion_pilot,2023.2.2,Win32,161.2903226,5fe02160c274b392183266aa,65d2b6c8f2eece985d8e374c,65d2b95a0b64bbe7b18e2688,0.0414,0.0415,0,150,150,24,1,onetwo,,,,,,,,,,,,,,,,,,,,,,,,,,,,,,,,,,,,,,,,,,,,,,,,,,,,,,,,,,,,,,,,,,,,,,,,,,,,,,,,,,,,,,,,,,,,,,,,,,,,,,,,,,,,,,,,,,,,,,,,,,,,,,,,,,,,,,,,,
,,5fe02160c274b392183266aa,2024-02-19_02h13.56.499,kallum_motion_pilot,2023.2.2,Win32,161.2903226,5fe02160c274b392183266aa,65d2b6c8f2eece985d8e374c,65d2b95a0b64bbe7b18e2688,0.0415,0.0416,0,151,151,112,1,fivesix,,,,,,,,,,,,,,,,,,,,,,,,,,,,,,,,,,,,,,,,,,,,,,,,,,,,,,,,,,,,,,,,,,,,,,,,,,,,,,,,,,,,,,,,,,,,,,,,,,,,,,,,,,,,,,,,,,,,,,,,,,,,,,,,,,,,,,,,,
,,5fe02160c274b392183266aa,2024-02-19_02h13.56.499,kallum_motion_pilot,2023.2.2,Win32,161.2903226,5fe02160c274b392183266aa,65d2b6c8f2eece985d8e374c,65d2b95a0b64bbe7b18e2688,0.0417,0.0417,0,152,152,64,1,onetwo,,,,,,,,,,,,,,,,,,,,,,,,,,,,,,,,,,,,,,,,,,,,,,,,,,,,,,,,,,,,,,,,,,,,,,,,,,,,,,,,,,,,,,,,,,,,,,,,,,,,,,,,,,,,,,,,,,,,,,,,,,,,,,,,,,,,,,,,,
,,5fe02160c274b392183266aa,2024-02-19_02h13.56.499,kallum_motion_pilot,2023.2.2,Win32,161.2903226,5fe02160c274b392183266aa,65d2b6c8f2eece985d8e374c,65d2b95a0b64bbe7b18e2688,0.0419,0.0419,0,153,153,135,1,eightseven,,,,,,,,,,,,,,,,,,,,,,,,,,,,,,,,,,,,,,,,,,,,,,,,,,,,,,,,,,,,,,,,,,,,,,,,,,,,,,,,,,,,,,,,,,,,,,,,,,,,,,,,,,,,,,,,,,,,,,,,,,,,,,,,,,,,,,,,,
,,5fe02160c274b392183266aa,2024-02-19_02h13.56.499,kallum_motion_pilot,2023.2.2,Win32,161.2903226,5fe02160c274b392183266aa,65d2b6c8f2eece985d8e374c,65d2b95a0b64bbe7b18e2688,0.0419,0.042,0,154,154,146,1,sixfive,,,,,,,,,,,,,,,,,,,,,,,,,,,,,,,,,,,,,,,,,,,,,,,,,,,,,,,,,,,,,,,,,,,,,,,,,,,,,,,,,,,,,,,,,,,,,,,,,,,,,,,,,,,,,,,,,,,,,,,,,,,,,,,,,,,,,,,,,
,,5fe02160c274b392183266aa,2024-02-19_02h13.56.499,kallum_motion_pilot,2023.2.2,Win32,161.2903226,5fe02160c274b392183266aa,65d2b6c8f2eece985d8e374c,65d2b95a0b64bbe7b18e2688,0.042,0.0421,0,155,155,49,1,onethree,,,,,,,,,,,,,,,,,,,,,,,,,,,,,,,,,,,,,,,,,,,,,,,,,,,,,,,,,,,,,,,,,,,,,,,,,,,,,,,,,,,,,,,,,,,,,,,,,,,,,,,,,,,,,,,,,,,,,,,,,,,,,,,,,,,,,,,,,
,,5fe02160c274b392183266aa,2024-02-19_02h13.56.499,kallum_motion_pilot,2023.2.2,Win32,161.2903226,5fe02160c274b392183266aa,65d2b6c8f2eece985d8e374c,65d2b95a0b64bbe7b18e2688,0.0422,0.0424,0,156,156,156,1,sevenfive,,,,,,,,,,,,,,,,,,,,,,,,,,,,,,,,,,,,,,,,,,,,,,,,,,,,,,,,,,,,,,,,,,,,,,,,,,,,,,,,,,,,,,,,,,,,,,,,,,,,,,,,,,,,,,,,,,,,,,,,,,,,,,,,,,,,,,,,,
,,5fe02160c274b392183266aa,2024-02-19_02h13.56.499,kallum_motion_pilot,2023.2.2,Win32,161.2903226,5fe02160c274b392183266aa,65d2b6c8f2eece985d8e374c,65d2b95a0b64bbe7b18e2688,0.0427,0.0428,0,157,157,26,1,twoone,,,,,,,,,,,,,,,,,,,,,,,,,,,,,,,,,,,,,,,,,,,,,,,,,,,,,,,,,,,,,,,,,,,,,,,,,,,,,,,,,,,,,,,,,,,,,,,,,,,,,,,,,,,,,,,,,,,,,,,,,,,,,,,,,,,,,,,,,
,,5fe02160c274b392183266aa,2024-02-19_02h13.56.499,kallum_motion_pilot,2023.2.2,Win32,161.2903226,5fe02160c274b392183266aa,65d2b6c8f2eece985d8e374c,65d2b95a0b64bbe7b18e2688,0.0429,0.043,0,158,158,122,1,sixfive,,,,,,,,,,,,,,,,,,,,,,,,,,,,,,,,,,,,,,,,,,,,,,,,,,,,,,,,,,,,,,,,,,,,,,,,,,,,,,,,,,,,,,,,,,,,,,,,,,,,,,,,,,,,,,,,,,,,,,,,,,,,,,,,,,,,,,,,,
,,5fe02160c274b392183266aa,2024-02-19_02h13.56.499,kallum_motion_pilot,2023.2.2,Win32,161.2903226,5fe02160c274b392183266aa,65d2b6c8f2eece985d8e374c,65d2b95a0b64bbe7b18e2688,0.043,0.0431,0,159,159,25,1,onethree,,,,,,,,,,,,,,,,,,,,,,,,,,,,,,,,,,,,,,,,,,,,,,,,,,,,,,,,,,,,,,,,,,,,,,,,,,,,,,,,,,,,,,,,,,,,,,,,,,,,,,,,,,,,,,,,,,,,,,,,,,,,,,,,,,,,,,,,,
,,5fe02160c274b392183266aa,2024-02-19_02h13.56.499,kallum_motion_pilot,2023.2.2,Win32,161.2903226,5fe02160c274b392183266aa,65d2b6c8f2eece985d8e374c,65d2b95a0b64bbe7b18e2688,0.0432,0.0433,0,160,160,103,1,eightseven,,,,,,,,,,,,,,,,,,,,,,,,,,,,,,,,,,,,,,,,,,,,,,,,,,,,,,,,,,,,,,,,,,,,,,,,,,,,,,,,,,,,,,,,,,,,,,,,,,,,,,,,,,,,,,,,,,,,,,,,,,,,,,,,,,,,,,,,,
,,5fe02160c274b392183266aa,2024-02-19_02h13.56.499,kallum_motion_pilot,2023.2.2,Win32,161.2903226,5fe02160c274b392183266aa,65d2b6c8f2eece985d8e374c,65d2b95a0b64bbe7b18e2688,0.0433,0.0434,0,161,161,160,1,fivesix,,,,,,,,,,,,,,,,,,,,,,,,,,,,,,,,,,,,,,,,,,,,,,,,,,,,,,,,,,,,,,,,,,,,,,,,,,,,,,,,,,,,,,,,,,,,,,,,,,,,,,,,,,,,,,,,,,,,,,,,,,,,,,,,,,,,,,,,,
,,5fe02160c274b392183266aa,2024-02-19_02h13.56.499,kallum_motion_pilot,2023.2.2,Win32,161.2903226,5fe02160c274b392183266aa,65d2b6c8f2eece985d8e374c,65d2b95a0b64bbe7b18e2688,0.0435,0.0436,1,0,162,33,1,onethree,,,,,,,,,,,,,,,,,,,,,,,,,,,,,,,,,,,,,,,,,,,,,,,,,,,,,,,,,,,,,,,,,,,,,,,,,,,,,,,,,,,,,,,,,,,,,,,,,,,,,,,,,,,,,,,,,,,,,,,,,,,,,,,,,,,,,,,,,
,,5fe02160c274b392183266aa,2024-02-19_02h13.56.499,kallum_motion_pilot,2023.2.2,Win32,161.2903226,5fe02160c274b392183266aa,65d2b6c8f2eece985d8e374c,65d2b95a0b64bbe7b18e2688,0.0437,0.0437,1,1,163,111,1,eightseven,,,,,,,,,,,,,,,,,,,,,,,,,,,,,,,,,,,,,,,,,,,,,,,,,,,,,,,,,,,,,,,,,,,,,,,,,,,,,,,,,,,,,,,,,,,,,,,,,,,,,,,,,,,,,,,,,,,,,,,,,,,,,,,,,,,,,,,,,
,,5fe02160c274b392183266aa,2024-02-19_02h13.56.499,kallum_motion_pilot,2023.2.2,Win32,161.2903226,5fe02160c274b392183266aa,65d2b6c8f2eece985d8e374c,65d2b95a0b64bbe7b18e2688,0.0437,0.0439,1,2,164,53,1,threefour,,,,,,,,,,,,,,,,,,,,,,,,,,,,,,,,,,,,,,,,,,,,,,,,,,,,,,,,,,,,,,,,,,,,,,,,,,,,,,,,,,,,,,,,,,,,,,,,,,,,,,,,,,,,,,,,,,,,,,,,,,,,,,,,,,,,,,,,,
,,5fe02160c274b392183266aa,2024-02-19_02h13.56.499,kallum_motion_pilot,2023.2.2,Win32,161.2903226,5fe02160c274b392183266aa,65d2b6c8f2eece985d8e374c,65d2b95a0b64bbe7b18e2688,0.0439,0.044,1,3,165,91,1,sixeight,,,,,,,,,,,,,,,,,,,,,,,,,,,,,,,,,,,,,,,,,,,,,,,,,,,,,,,,,,,,,,,,,,,,,,,,,,,,,,,,,,,,,,,,,,,,,,,,,,,,,,,,,,,,,,,,,,,,,,,,,,,,,,,,,,,,,,,,,
,,5fe02160c274b392183266aa,2024-02-19_02h13.56.499,kallum_motion_pilot,2023.2.2,Win32,161.2903226,5fe02160c274b392183266aa,65d2b6c8f2eece985d8e374c,65d2b95a0b64bbe7b18e2688,0.0441,0.0442,1,4,166,50,1,twoone,,,,,,,,,,,,,,,,,,,,,,,,,,,,,,,,,,,,,,,,,,,,,,,,,,,,,,,,,,,,,,,,,,,,,,,,,,,,,,,,,,,,,,,,,,,,,,,,,,,,,,,,,,,,,,,,,,,,,,,,,,,,,,,,,,,,,,,,,
,,5fe02160c274b392183266aa,2024-02-19_02h13.56.499,kallum_motion_pilot,2023.2.2,Win32,161.2903226,5fe02160c274b392183266aa,65d2b6c8f2eece985d8e374c,65d2b95a0b64bbe7b18e2688,0.0443,0.0443,1,5,167,64,1,onetwo,,,,,,,,,,,,,,,,,,,,,,,,,,,,,,,,,,,,,,,,,,,,,,,,,,,,,,,,,,,,,,,,,,,,,,,,,,,,,,,,,,,,,,,,,,,,,,,,,,,,,,,,,,,,,,,,,,,,,,,,,,,,,,,,,,,,,,,,,
,,5fe02160c274b392183266aa,2024-02-19_02h13.56.499,kallum_motion_pilot,2023.2.2,Win32,161.2903226,5fe02160c274b392183266aa,65d2b6c8f2eece985d8e374c,65d2b95a0b64bbe7b18e2688,0.0444,0.0444,1,6,168,71,1,fourthree,,,,,,,,,,,,,,,,,,,,,,,,,,,,,,,,,,,,,,,,,,,,,,,,,,,,,,,,,,,,,,,,,,,,,,,,,,,,,,,,,,,,,,,,,,,,,,,,,,,,,,,,,,,,,,,,,,,,,,,,,,,,,,,,,,,,,,,,,
,,5fe02160c274b392183266aa,2024-02-19_02h13.56.499,kallum_motion_pilot,2023.2.2,Win32,161.2903226,5fe02160c274b392183266aa,65d2b6c8f2eece985d8e374c,65d2b95a0b64bbe7b18e2688,0.0445,0.0445,1,7,169,83,1,sixeight,,,,,,,,,,,,,,,,,,,,,,,,,,,,,,,,,,,,,,,,,,,,,,,,,,,,,,,,,,,,,,,,,,,,,,,,,,,,,,,,,,,,,,,,,,,,,,,,,,,,,,,,,,,,,,,,,,,,,,,,,,,,,,,,,,,,,,,,,
,,5fe02160c274b392183266aa,2024-02-19_02h13.56.499,kallum_motion_pilot,2023.2.2,Win32,161.2903226,5fe02160c274b392183266aa,65d2b6c8f2eece985d8e374c,65d2b95a0b64bbe7b18e2688,0.0447,0.0448,1,8,170,94,1,eightsix,,,,,,,,,,,,,,,,,,,,,,,,,,,,,,,,,,,,,,,,,,,,,,,,,,,,,,,,,,,,,,,,,,,,,,,,,,,,,,,,,,,,,,,,,,,,,,,,,,,,,,,,,,,,,,,,,,,,,,,,,,,,,,,,,,,,,,,,,
,,5fe02160c274b392183266aa,2024-02-19_02h13.56.499,kallum_motion_pilot,2023.2.2,Win32,161.2903226,5fe02160c274b392183266aa,65d2b6c8f2eece985d8e374c,65d2b95a0b64bbe7b18e2688,0.0449,0.0449,1,9,171,86,1,eightsix,,,,,,,,,,,,,,,,,,,,,,,,,,,,,,,,,,,,,,,,,,,,,,,,,,,,,,,,,,,,,,,,,,,,,,,,,,,,,,,,,,,,,,,,,,,,,,,,,,,,,,,,,,,,,,,,,,,,,,,,,,,,,,,,,,,,,,,,,
,,5fe02160c274b392183266aa,2024-02-19_02h13.56.499,kallum_motion_pilot,2023.2.2,Win32,161.2903226,5fe02160c274b392183266aa,65d2b6c8f2eece985d8e374c,65d2b95a0b64bbe7b18e2688,0.045,0.045,1,10,172,140,1,sevenfive,,,,,,,,,,,,,,,,,,,,,,,,,,,,,,,,,,,,,,,,,,,,,,,,,,,,,,,,,,,,,,,,,,,,,,,,,,,,,,,,,,,,,,,,,,,,,,,,,,,,,,,,,,,,,,,,,,,,,,,,,,,,,,,,,,,,,,,,,
,,5fe02160c274b392183266aa,2024-02-19_02h13.56.499,kallum_motion_pilot,2023.2.2,Win32,161.2903226,5fe02160c274b392183266aa,65d2b6c8f2eece985d8e374c,65d2b95a0b64bbe7b18e2688,0.0451,0.0452,1,11,173,85,1,seveneight,,,,,,,,,,,,,,,,,,,,,,,,,,,,,,,,,,,,,,,,,,,,,,,,,,,,,,,,,,,,,,,,,,,,,,,,,,,,,,,,,,,,,,,,,,,,,,,,,,,,,,,,,,,,,,,,,,,,,,,,,,,,,,,,,,,,,,,,,
,,5fe02160c274b392183266aa,2024-02-19_02h13.56.499,kallum_motion_pilot,2023.2.2,Win32,161.2903226,5fe02160c274b392183266aa,65d2b6c8f2eece985d8e374c,65d2b95a0b64bbe7b18e2688,0.0452,0.0454,1,12,174,134,1,eightsix,,,,,,,,,,,,,,,,,,,,,,,,,,,,,,,,,,,,,,,,,,,,,,,,,,,,,,,,,,,,,,,,,,,,,,,,,,,,,,,,,,,,,,,,,,,,,,,,,,,,,,,,,,,,,,,,,,,,,,,,,,,,,,,,,,,,,,,,,
,,5fe02160c274b392183266aa,2024-02-19_02h13.56.499,kallum_motion_pilot,2023.2.2,Win32,161.2903226,5fe02160c274b392183266aa,65d2b6c8f2eece985d8e374c,65d2b95a0b64bbe7b18e2688,0.0454,0.0454,1,13,175,18,1,twoone,,,,,,,,,,,,,,,,,,,,,,,,,,,,,,,,,,,,,,,,,,,,,,,,,,,,,,,,,,,,,,,,,,,,,,,,,,,,,,,,,,,,,,,,,,,,,,,,,,,,,,,,,,,,,,,,,,,,,,,,,,,,,,,,,,,,,,,,,
,,5fe02160c274b392183266aa,2024-02-19_02h13.56.499,kallum_motion_pilot,2023.2.2,Win32,161.2903226,5fe02160c274b392183266aa,65d2b6c8f2eece985d8e374c,65d2b95a0b64bbe7b18e2688,0.0456,0.0456,1,14,176,56,1,onetwo,,,,,,,,,,,,,,,,,,,,,,,,,,,,,,,,,,,,,,,,,,,,,,,,,,,,,,,,,,,,,,,,,,,,,,,,,,,,,,,,,,,,,,,,,,,,,,,,,,,,,,,,,,,,,,,,,,,,,,,,,,,,,,,,,,,,,,,,,
,,5fe02160c274b392183266aa,2024-02-19_02h13.56.499,kallum_motion_pilot,2023.2.2,Win32,161.2903226,5fe02160c274b392183266aa,65d2b6c8f2eece985d8e374c,65d2b95a0b64bbe7b18e2688,0.0457,0.0458,1,15,177,16,1,onetwo,,,,,,,,,,,,,,,,,,,,,,,,,,,,,,,,,,,,,,,,,,,,,,,,,,,,,,,,,,,,,,,,,,,,,,,,,,,,,,,,,,,,,,,,,,,,,,,,,,,,,,,,,,,,,,,,,,,,,,,,,,,,,,,,,,,,,,,,,
,,5fe02160c274b392183266aa,2024-02-19_02h13.56.499,kallum_motion_pilot,2023.2.2,Win32,161.2903226,5fe02160c274b392183266aa,65d2b6c8f2eece985d8e374c,65d2b95a0b64bbe7b18e2688,0.0458,0.0459,1,16,178,77,1,threefour,,,,,,,,,,,,,,,,,,,,,,,,,,,,,,,,,,,,,,,,,,,,,,,,,,,,,,,,,,,,,,,,,,,,,,,,,,,,,,,,,,,,,,,,,,,,,,,,,,,,,,,,,,,,,,,,,,,,,,,,,,,,,,,,,,,,,,,,,
,,5fe02160c274b392183266aa,2024-02-19_02h13.56.499,kallum_motion_pilot,2023.2.2,Win32,161.2903226,5fe02160c274b392183266aa,65d2b6c8f2eece985d8e374c,65d2b95a0b64bbe7b18e2688,0.046,0.0461,1,17,179,102,1,eightsix,,,,,,,,,,,,,,,,,,,,,,,,,,,,,,,,,,,,,,,,,,,,,,,,,,,,,,,,,,,,,,,,,,,,,,,,,,,,,,,,,,,,,,,,,,,,,,,,,,,,,,,,,,,,,,,,,,,,,,,,,,,,,,,,,,,,,,,,,
,,5fe02160c274b392183266aa,2024-02-19_02h13.56.499,kallum_motion_pilot,2023.2.2,Win32,161.2903226,5fe02160c274b392183266aa,65d2b6c8f2eece985d8e374c,65d2b95a0b64bbe7b18e2688,0.0461,0.0462,1,18,180,57,1,onethree,,,,,,,,,,,,,,,,,,,,,,,,,,,,,,,,,,,,,,,,,,,,,,,,,,,,,,,,,,,,,,,,,,,,,,,,,,,,,,,,,,,,,,,,,,,,,,,,,,,,,,,,,,,,,,,,,,,,,,,,,,,,,,,,,,,,,,,,,
,,5fe02160c274b392183266aa,2024-02-19_02h13.56.499,kallum_motion_pilot,2023.2.2,Win32,161.2903226,5fe02160c274b392183266aa,65d2b6c8f2eece985d8e374c,65d2b95a0b64bbe7b18e2688,0.0462,0.0464,1,19,181,115,1,sixeight,,,,,,,,,,,,,,,,,,,,,,,,,,,,,,,,,,,,,,,,,,,,,,,,,,,,,,,,,,,,,,,,,,,,,,,,,,,,,,,,,,,,,,,,,,,,,,,,,,,,,,,,,,,,,,,,,,,,,,,,,,,,,,,,,,,,,,,,,
,,5fe02160c274b392183266aa,2024-02-19_02h13.56.499,kallum_motion_pilot,2023.2.2,Win32,161.2903226,5fe02160c274b392183266aa,65d2b6c8f2eece985d8e374c,65d2b95a0b64bbe7b18e2688,0.0465,0.0465,1,20,182,29,1,threefour,,,,,,,,,,,,,,,,,,,,,,,,,,,,,,,,,,,,,,,,,,,,,,,,,,,,,,,,,,,,,,,,,,,,,,,,,,,,,,,,,,,,,,,,,,,,,,,,,,,,,,,,,,,,,,,,,,,,,,,,,,,,,,,,,,,,,,,,,
,,5fe02160c274b392183266aa,2024-02-19_02h13.56.499,kallum_motion_pilot,2023.2.2,Win32,161.2903226,5fe02160c274b392183266aa,65d2b6c8f2eece985d8e374c,65d2b95a0b64bbe7b18e2688,0.0465,0.0467,1,21,183,161,1,fiveseven,,,,,,,,,,,,,,,,,,,,,,,,,,,,,,,,,,,,,,,,,,,,,,,,,,,,,,,,,,,,,,,,,,,,,,,,,,,,,,,,,,,,,,,,,,,,,,,,,,,,,,,,,,,,,,,,,,,,,,,,,,,,,,,,,,,,,,,,,
,,5fe02160c274b392183266aa,2024-02-19_02h13.56.499,kallum_motion_pilot,2023.2.2,Win32,161.2903226,5fe02160c274b392183266aa,65d2b6c8f2eece985d8e374c,65d2b95a0b64bbe7b18e2688,0.0467,0.0468,1,22,184,41,1,onethree,,,,,,,,,,,,,,,,,,,,,,,,,,,,,,,,,,,,,,,,,,,,,,,,,,,,,,,,,,,,,,,,,,,,,,,,,,,,,,,,,,,,,,,,,,,,,,,,,,,,,,,,,,,,,,,,,,,,,,,,,,,,,,,,,,,,,,,,,
,,5fe02160c274b392183266aa,2024-02-19_02h13.56.499,kallum_motion_pilot,2023.2.2,Win32,161.2903226,5fe02160c274b392183266aa,65d2b6c8f2eece985d8e374c,65d2b95a0b64bbe7b18e2688,0.0469,0.0469,1,23,185,155,1,sixeight,,,,,,,,,,,,,,,,,,,,,,,,,,,,,,,,,,,,,,,,,,,,,,,,,,,,,,,,,,,,,,,,,,,,,,,,,,,,,,,,,,,,,,,,,,,,,,,,,,,,,,,,,,,,,,,,,,,,,,,,,,,,,,,,,,,,,,,,,
,,5fe02160c274b392183266aa,2024-02-19_02h13.56.499,kallum_motion_pilot,2023.2.2,Win32,161.2903226,5fe02160c274b392183266aa,65d2b6c8f2eece985d8e374c,65d2b95a0b64bbe7b18e2688,0.047,0.0471,1,24,186,128,1,fivesix,,,,,,,,,,,,,,,,,,,,,,,,,,,,,,,,,,,,,,,,,,,,,,,,,,,,,,,,,,,,,,,,,,,,,,,,,,,,,,,,,,,,,,,,,,,,,,,,,,,,,,,,,,,,,,,,,,,,,,,,,,,,,,,,,,,,,,,,,
,,5fe02160c274b392183266aa,2024-02-19_02h13.56.499,kallum_motion_pilot,2023.2.2,Win32,161.2903226,5fe02160c274b392183266aa,65d2b6c8f2eece985d8e374c,65d2b95a0b64bbe7b18e2688,0.0472,0.0472,1,25,187,34,1,twoone,,,,,,,,,,,,,,,,,,,,,,,,,,,,,,,,,,,,,,,,,,,,,,,,,,,,,,,,,,,,,,,,,,,,,,,,,,,,,,,,,,,,,,,,,,,,,,,,,,,,,,,,,,,,,,,,,,,,,,,,,,,,,,,,,,,,,,,,,
,,5fe02160c274b392183266aa,2024-02-19_02h13.56.499,kallum_motion_pilot,2023.2.2,Win32,161.2903226,5fe02160c274b392183266aa,65d2b6c8f2eece985d8e374c,65d2b95a0b64bbe7b18e2688,0.0473,0.0474,1,26,188,125,1,seveneight,,,,,,,,,,,,,,,,,,,,,,,,,,,,,,,,,,,,,,,,,,,,,,,,,,,,,,,,,,,,,,,,,,,,,,,,,,,,,,,,,,,,,,,,,,,,,,,,,,,,,,,,,,,,,,,,,,,,,,,,,,,,,,,,,,,,,,,,,
,,5fe02160c274b392183266aa,2024-02-19_02h13.56.499,kallum_motion_pilot,2023.2.2,Win32,161.2903226,5fe02160c274b392183266aa,65d2b6c8f2eece985d8e374c,65d2b95a0b64bbe7b18e2688,0.0475,0.0476,1,27,189,3,1,twofour,,,,,,,,,,,,,,,,,,,,,,,,,,,,,,,,,,,,,,,,,,,,,,,,,,,,,,,,,,,,,,,,,,,,,,,,,,,,,,,,,,,,,,,,,,,,,,,,,,,,,,,,,,,,,,,,,,,,,,,,,,,,,,,,,,,,,,,,,
,,5fe02160c274b392183266aa,2024-02-19_02h13.56.499,kallum_motion_pilot,2023.2.2,Win32,161.2903226,5fe02160c274b392183266aa,65d2b6c8f2eece985d8e374c,65d2b95a0b64bbe7b18e2688,0.0476,0.0477,1,28,190,39,1,fourthree,,,,,,,,,,,,,,,,,,,,,,,,,,,,,,,,,,,,,,,,,,,,,,,,,,,,,,,,,,,,,,,,,,,,,,,,,,,,,,,,,,,,,,,,,,,,,,,,,,,,,,,,,,,,,,,,,,,,,,,,,,,,,,,,,,,,,,,,,
,,5fe02160c274b392183266aa,2024-02-19_02h13.56.499,kallum_motion_pilot,2023.2.2,Win32,161.2903226,5fe02160c274b392183266aa,65d2b6c8f2eece985d8e374c,65d2b95a0b64bbe7b18e2688,0.0478,0.0479,1,29,191,110,1,eightsix,,,,,,,,,,,,,,,,,,,,,,,,,,,,,,,,,,,,,,,,,,,,,,,,,,,,,,,,,,,,,,,,,,,,,,,,,,,,,,,,,,,,,,,,,,,,,,,,,,,,,,,,,,,,,,,,,,,,,,,,,,,,,,,,,,,,,,,,,
,,5fe02160c274b392183266aa,2024-02-19_02h13.56.499,kallum_motion_pilot,2023.2.2,Win32,161.2903226,5fe02160c274b392183266aa,65d2b6c8f2eece985d8e374c,65d2b95a0b64bbe7b18e2688,0.0479,0.0479,1,30,192,14,1,fourtwo,,,,,,,,,,,,,,,,,,,,,,,,,,,,,,,,,,,,,,,,,,,,,,,,,,,,,,,,,,,,,,,,,,,,,,,,,,,,,,,,,,,,,,,,,,,,,,,,,,,,,,,,,,,,,,,,,,,,,,,,,,,,,,,,,,,,,,,,,
,,5fe02160c274b392183266aa,2024-02-19_02h13.56.499,kallum_motion_pilot,2023.2.2,Win32,161.2903226,5fe02160c274b392183266aa,65d2b6c8f2eece985d8e374c,65d2b95a0b64bbe7b18e2688,0.0481,0.0481,1,31,193,126,1,eightsix,,,,,,,,,,,,,,,,,,,,,,,,,,,,,,,,,,,,,,,,,,,,,,,,,,,,,,,,,,,,,,,,,,,,,,,,,,,,,,,,,,,,,,,,,,,,,,,,,,,,,,,,,,,,,,,,,,,,,,,,,,,,,,,,,,,,,,,,,
,,5fe02160c274b392183266aa,2024-02-19_02h13.56.499,kallum_motion_pilot,2023.2.2,Win32,161.2903226,5fe02160c274b392183266aa,65d2b6c8f2eece985d8e374c,65d2b95a0b64bbe7b18e2688,0.0482,0.0483,1,32,194,121,1,fiveseven,,,,,,,,,,,,,,,,,,,,,,,,,,,,,,,,,,,,,,,,,,,,,,,,,,,,,,,,,,,,,,,,,,,,,,,,,,,,,,,,,,,,,,,,,,,,,,,,,,,,,,,,,,,,,,,,,,,,,,,,,,,,,,,,,,,,,,,,,
,,5fe02160c274b392183266aa,2024-02-19_02h13.56.499,kallum_motion_pilot,2023.2.2,Win32,161.2903226,5fe02160c274b392183266aa,65d2b6c8f2eece985d8e374c,65d2b95a0b64bbe7b18e2688,0.0483,0.0484,1,33,195,145,1,fiveseven,,,,,,,,,,,,,,,,,,,,,,,,,,,,,,,,,,,,,,,,,,,,,,,,,,,,,,,,,,,,,,,,,,,,,,,,,,,,,,,,,,,,,,,,,,,,,,,,,,,,,,,,,,,,,,,,,,,,,,,,,,,,,,,,,,,,,,,,,
,,5fe02160c274b392183266aa,2024-02-19_02h13.56.499,kallum_motion_pilot,2023.2.2,Win32,161.2903226,5fe02160c274b392183266aa,65d2b6c8f2eece985d8e374c,65d2b95a0b64bbe7b18e2688,0.0485,0.0486,1,34,196,150,1,eightsix,,,,,,,,,,,,,,,,,,,,,,,,,,,,,,,,,,,,,,,,,,,,,,,,,,,,,,,,,,,,,,,,,,,,,,,,,,,,,,,,,,,,,,,,,,,,,,,,,,,,,,,,,,,,,,,,,,,,,,,,,,,,,,,,,,,,,,,,,
,,5fe02160c274b392183266aa,2024-02-19_02h13.56.499,kallum_motion_pilot,2023.2.2,Win32,161.2903226,5fe02160c274b392183266aa,65d2b6c8f2eece985d8e374c,65d2b95a0b64bbe7b18e2688,0.0486,0.0487,1,35,197,73,1,onethree,,,,,,,,,,,,,,,,,,,,,,,,,,,,,,,,,,,,,,,,,,,,,,,,,,,,,,,,,,,,,,,,,,,,,,,,,,,,,,,,,,,,,,,,,,,,,,,,,,,,,,,,,,,,,,,,,,,,,,,,,,,,,,,,,,,,,,,,,
,,5fe02160c274b392183266aa,2024-02-19_02h13.56.499,kallum_motion_pilot,2023.2.2,Win32,161.2903226,5fe02160c274b392183266aa,65d2b6c8f2eece985d8e374c,65d2b95a0b64bbe7b18e2688,0.0488,0.0489,1,36,198,25,1,onethree,,,,,,,,,,,,,,,,,,,,,,,,,,,,,,,,,,,,,,,,,,,,,,,,,,,,,,,,,,,,,,,,,,,,,,,,,,,,,,,,,,,,,,,,,,,,,,,,,,,,,,,,,,,,,,,,,,,,,,,,,,,,,,,,,,,,,,,,,
,,5fe02160c274b392183266aa,2024-02-19_02h13.56.499,kallum_motion_pilot,2023.2.2,Win32,161.2903226,5fe02160c274b392183266aa,65d2b6c8f2eece985d8e374c,65d2b95a0b64bbe7b18e2688,0.049,0.049,1,37,199,19,1,twofour,,,,,,,,,,,,,,,,,,,,,,,,,,,,,,,,,,,,,,,,,,,,,,,,,,,,,,,,,,,,,,,,,,,,,,,,,,,,,,,,,,,,,,,,,,,,,,,,,,,,,,,,,,,,,,,,,,,,,,,,,,,,,,,,,,,,,,,,,
,,5fe02160c274b392183266aa,2024-02-19_02h13.56.499,kallum_motion_pilot,2023.2.2,Win32,161.2903226,5fe02160c274b392183266aa,65d2b6c8f2eece985d8e374c,65d2b95a0b64bbe7b18e2688,0.0491,0.0491,1,38,200,68,1,threeone,,,,,,,,,,,,,,,,,,,,,,,,,,,,,,,,,,,,,,,,,,,,,,,,,,,,,,,,,,,,,,,,,,,,,,,,,,,,,,,,,,,,,,,,,,,,,,,,,,,,,,,,,,,,,,,,,,,,,,,,,,,,,,,,,,,,,,,,,
,,5fe02160c274b392183266aa,2024-02-19_02h13.56.499,kallum_motion_pilot,2023.2.2,Win32,161.2903226,5fe02160c274b392183266aa,65d2b6c8f2eece985d8e374c,65d2b95a0b64bbe7b18e2688,0.0493,0.0494,1,39,201,124,1,sevenfive,,,,,,,,,,,,,,,,,,,,,,,,,,,,,,,,,,,,,,,,,,,,,,,,,,,,,,,,,,,,,,,,,,,,,,,,,,,,,,,,,,,,,,,,,,,,,,,,,,,,,,,,,,,,,,,,,,,,,,,,,,,,,,,,,,,,,,,,,
,,5fe02160c274b392183266aa,2024-02-19_02h13.56.499,kallum_motion_pilot,2023.2.2,Win32,161.2903226,5fe02160c274b392183266aa,65d2b6c8f2eece985d8e374c,65d2b95a0b64bbe7b18e2688,0.0495,0.0495,1,40,202,84,1,sevenfive,,,,,,,,,,,,,,,,,,,,,,,,,,,,,,,,,,,,,,,,,,,,,,,,,,,,,,,,,,,,,,,,,,,,,,,,,,,,,,,,,,,,,,,,,,,,,,,,,,,,,,,,,,,,,,,,,,,,,,,,,,,,,,,,,,,,,,,,,
,,5fe02160c274b392183266aa,2024-02-19_02h13.56.499,kallum_motion_pilot,2023.2.2,Win32,161.2903226,5fe02160c274b392183266aa,65d2b6c8f2eece985d8e374c,65d2b95a0b64bbe7b18e2688,0.0496,0.0497,1,41,203,130,1,sixfive,,,,,,,,,,,,,,,,,,,,,,,,,,,,,,,,,,,,,,,,,,,,,,,,,,,,,,,,,,,,,,,,,,,,,,,,,,,,,,,,,,,,,,,,,,,,,,,,,,,,,,,,,,,,,,,,,,,,,,,,,,,,,,,,,,,,,,,,,
,,5fe02160c274b392183266aa,2024-02-19_02h13.56.499,kallum_motion_pilot,2023.2.2,Win32,161.2903226,5fe02160c274b392183266aa,65d2b6c8f2eece985d8e374c,65d2b95a0b64bbe7b18e2688,0.0497,0.0498,1,42,204,157,1,seveneight,,,,,,,,,,,,,,,,,,,,,,,,,,,,,,,,,,,,,,,,,,,,,,,,,,,,,,,,,,,,,,,,,,,,,,,,,,,,,,,,,,,,,,,,,,,,,,,,,,,,,,,,,,,,,,,,,,,,,,,,,,,,,,,,,,,,,,,,,
,,5fe02160c274b392183266aa,2024-02-19_02h13.56.499,kallum_motion_pilot,2023.2.2,Win32,161.2903226,5fe02160c274b392183266aa,65d2b6c8f2eece985d8e374c,65d2b95a0b64bbe7b18e2688,0.05,0.0501,1,43,205,146,1,sixfive,,,,,,,,,,,,,,,,,,,,,,,,,,,,,,,,,,,,,,,,,,,,,,,,,,,,,,,,,,,,,,,,,,,,,,,,,,,,,,,,,,,,,,,,,,,,,,,,,,,,,,,,,,,,,,,,,,,,,,,,,,,,,,,,,,,,,,,,,
,,5fe02160c274b392183266aa,2024-02-19_02h13.56.499,kallum_motion_pilot,2023.2.2,Win32,161.2903226,5fe02160c274b392183266aa,65d2b6c8f2eece985d8e374c,65d2b95a0b64bbe7b18e2688,0.0502,0.0502,1,44,206,89,1,fiveseven,,,,,,,,,,,,,,,,,,,,,,,,,,,,,,,,,,,,,,,,,,,,,,,,,,,,,,,,,,,,,,,,,,,,,,,,,,,,,,,,,,,,,,,,,,,,,,,,,,,,,,,,,,,,,,,,,,,,,,,,,,,,,,,,,,,,,,,,,
,,5fe02160c274b392183266aa,2024-02-19_02h13.56.499,kallum_motion_pilot,2023.2.2,Win32,161.2903226,5fe02160c274b392183266aa,65d2b6c8f2eece985d8e374c,65d2b95a0b64bbe7b18e2688,0.0503,0.0503,1,45,207,159,1,eightseven,,,,,,,,,,,,,,,,,,,,,,,,,,,,,,,,,,,,,,,,,,,,,,,,,,,,,,,,,,,,,,,,,,,,,,,,,,,,,,,,,,,,,,,,,,,,,,,,,,,,,,,,,,,,,,,,,,,,,,,,,,,,,,,,,,,,,,,,,
,,5fe02160c274b392183266aa,2024-02-19_02h13.56.499,kallum_motion_pilot,2023.2.2,Win32,161.2903226,5fe02160c274b392183266aa,65d2b6c8f2eece985d8e374c,65d2b95a0b64bbe7b18e2688,0.0504,0.0505,1,46,208,76,1,threeone,,,,,,,,,,,,,,,,,,,,,,,,,,,,,,,,,,,,,,,,,,,,,,,,,,,,,,,,,,,,,,,,,,,,,,,,,,,,,,,,,,,,,,,,,,,,,,,,,,,,,,,,,,,,,,,,,,,,,,,,,,,,,,,,,,,,,,,,,
,,5fe02160c274b392183266aa,2024-02-19_02h13.56.499,kallum_motion_pilot,2023.2.2,Win32,161.2903226,5fe02160c274b392183266aa,65d2b6c8f2eece985d8e374c,65d2b95a0b64bbe7b18e2688,0.0506,0.0507,1,47,209,63,1,fourthree,,,,,,,,,,,,,,,,,,,,,,,,,,,,,,,,,,,,,,,,,,,,,,,,,,,,,,,,,,,,,,,,,,,,,,,,,,,,,,,,,,,,,,,,,,,,,,,,,,,,,,,,,,,,,,,,,,,,,,,,,,,,,,,,,,,,,,,,,
,,5fe02160c274b392183266aa,2024-02-19_02h13.56.499,kallum_motion_pilot,2023.2.2,Win32,161.2903226,5fe02160c274b392183266aa,65d2b6c8f2eece985d8e374c,65d2b95a0b64bbe7b18e2688,0.0508,0.0509,1,48,210,42,1,twoone,,,,,,,,,,,,,,,,,,,,,,,,,,,,,,,,,,,,,,,,,,,,,,,,,,,,,,,,,,,,,,,,,,,,,,,,,,,,,,,,,,,,,,,,,,,,,,,,,,,,,,,,,,,,,,,,,,,,,,,,,,,,,,,,,,,,,,,,,
,,5fe02160c274b392183266aa,2024-02-19_02h13.56.499,kallum_motion_pilot,2023.2.2,Win32,161.2903226,5fe02160c274b392183266aa,65d2b6c8f2eece985d8e374c,65d2b95a0b64bbe7b18e2688,0.0509,0.0511,1,49,211,32,1,onetwo,,,,,,,,,,,,,,,,,,,,,,,,,,,,,,,,,,,,,,,,,,,,,,,,,,,,,,,,,,,,,,,,,,,,,,,,,,,,,,,,,,,,,,,,,,,,,,,,,,,,,,,,,,,,,,,,,,,,,,,,,,,,,,,,,,,,,,,,,
,,5fe02160c274b392183266aa,2024-02-19_02h13.56.499,kallum_motion_pilot,2023.2.2,Win32,161.2903226,5fe02160c274b392183266aa,65d2b6c8f2eece985d8e374c,65d2b95a0b64bbe7b18e2688,0.0511,0.0512,1,50,212,24,1,onetwo,,,,,,,,,,,,,,,,,,,,,,,,,,,,,,,,,,,,,,,,,,,,,,,,,,,,,,,,,,,,,,,,,,,,,,,,,,,,,,,,,,,,,,,,,,,,,,,,,,,,,,,,,,,,,,,,,,,,,,,,,,,,,,,,,,,,,,,,,
,,5fe02160c274b392183266aa,2024-02-19_02h13.56.499,kallum_motion_pilot,2023.2.2,Win32,161.2903226,5fe02160c274b392183266aa,65d2b6c8f2eece985d8e374c,65d2b95a0b64bbe7b18e2688,0.0513,0.0514,1,51,213,80,1,fivesix,,,,,,,,,,,,,,,,,,,,,,,,,,,,,,,,,,,,,,,,,,,,,,,,,,,,,,,,,,,,,,,,,,,,,,,,,,,,,,,,,,,,,,,,,,,,,,,,,,,,,,,,,,,,,,,,,,,,,,,,,,,,,,,,,,,,,,,,,
,,5fe02160c274b392183266aa,2024-02-19_02h13.56.499,kallum_motion_pilot,2023.2.2,Win32,161.2903226,5fe02160c274b392183266aa,65d2b6c8f2eece985d8e374c,65d2b95a0b64bbe7b18e2688,0.0515,0.0516,1,52,214,28,1,threeone,,,,,,,,,,,,,,,,,,,,,,,,,,,,,,,,,,,,,,,,,,,,,,,,,,,,,,,,,,,,,,,,,,,,,,,,,,,,,,,,,,,,,,,,,,,,,,,,,,,,,,,,,,,,,,,,,,,,,,,,,,,,,,,,,,,,,,,,,
,,5fe02160c274b392183266aa,2024-02-19_02h13.56.499,kallum_motion_pilot,2023.2.2,Win32,161.2903226,5fe02160c274b392183266aa,65d2b6c8f2eece985d8e374c,65d2b95a0b64bbe7b18e2688,0.0516,0.0517,1,53,215,75,1,twofour,,,,,,,,,,,,,,,,,,,,,,,,,,,,,,,,,,,,,,,,,,,,,,,,,,,,,,,,,,,,,,,,,,,,,,,,,,,,,,,,,,,,,,,,,,,,,,,,,,,,,,,,,,,,,,,,,,,,,,,,,,,,,,,,,,,,,,,,,
,,5fe02160c274b392183266aa,2024-02-19_02h13.56.499,kallum_motion_pilot,2023.2.2,Win32,161.2903226,5fe02160c274b392183266aa,65d2b6c8f2eece985d8e374c,65d2b95a0b64bbe7b18e2688,0.0518,0.0518,1,54,216,103,1,eightseven,,,,,,,,,,,,,,,,,,,,,,,,,,,,,,,,,,,,,,,,,,,,,,,,,,,,,,,,,,,,,,,,,,,,,,,,,,,,,,,,,,,,,,,,,,,,,,,,,,,,,,,,,,,,,,,,,,,,,,,,,,,,,,,,,,,,,,,,,
,,5fe02160c274b392183266aa,2024-02-19_02h13.56.499,kallum_motion_pilot,2023.2.2,Win32,161.2903226,5fe02160c274b392183266aa,65d2b6c8f2eece985d8e374c,65d2b95a0b64bbe7b18e2688,0.0519,0.0519,1,55,217,98,1,sixfive,,,,,,,,,,,,,,,,,,,,,,,,,,,,,,,,,,,,,,,,,,,,,,,,,,,,,,,,,,,,,,,,,,,,,,,,,,,,,,,,,,,,,,,,,,,,,,,,,,,,,,,,,,,,,,,,,,,,,,,,,,,,,,,,,,,,,,,,,
,,5fe02160c274b392183266aa,2024-02-19_02h13.56.499,kallum_motion_pilot,2023.2.2,Win32,161.2903226,5fe02160c274b392183266aa,65d2b6c8f2eece985d8e374c,65d2b95a0b64bbe7b18e2688,0.0521,0.0521,1,56,218,55,1,fourthree,,,,,,,,,,,,,,,,,,,,,,,,,,,,,,,,,,,,,,,,,,,,,,,,,,,,,,,,,,,,,,,,,,,,,,,,,,,,,,,,,,,,,,,,,,,,,,,,,,,,,,,,,,,,,,,,,,,,,,,,,,,,,,,,,,,,,,,,,
,,5fe02160c274b392183266aa,2024-02-19_02h13.56.499,kallum_motion_pilot,2023.2.2,Win32,161.2903226,5fe02160c274b392183266aa,65d2b6c8f2eece985d8e374c,65d2b95a0b64bbe7b18e2688,0.0522,0.0523,1,57,219,15,1,fourthree,,,,,,,,,,,,,,,,,,,,,,,,,,,,,,,,,,,,,,,,,,,,,,,,,,,,,,,,,,,,,,,,,,,,,,,,,,,,,,,,,,,,,,,,,,,,,,,,,,,,,,,,,,,,,,,,,,,,,,,,,,,,,,,,,,,,,,,,,
,,5fe02160c274b392183266aa,2024-02-19_02h13.56.499,kallum_motion_pilot,2023.2.2,Win32,161.2903226,5fe02160c274b392183266aa,65d2b6c8f2eece985d8e374c,65d2b95a0b64bbe7b18e2688,0.0523,0.0525,1,58,220,139,1,sixeight,,,,,,,,,,,,,,,,,,,,,,,,,,,,,,,,,,,,,,,,,,,,,,,,,,,,,,,,,,,,,,,,,,,,,,,,,,,,,,,,,,,,,,,,,,,,,,,,,,,,,,,,,,,,,,,,,,,,,,,,,,,,,,,,,,,,,,,,,
,,5fe02160c274b392183266aa,2024-02-19_02h13.56.499,kallum_motion_pilot,2023.2.2,Win32,161.2903226,5fe02160c274b392183266aa,65d2b6c8f2eece985d8e374c,65d2b95a0b64bbe7b18e2688,0.0525,0.0526,1,59,221,156,1,sevenfive,,,,,,,,,,,,,,,,,,,,,,,,,,,,,,,,,,,,,,,,,,,,,,,,,,,,,,,,,,,,,,,,,,,,,,,,,,,,,,,,,,,,,,,,,,,,,,,,,,,,,,,,,,,,,,,,,,,,,,,,,,,,,,,,,,,,,,,,,
,,5fe02160c274b392183266aa,2024-02-19_02h13.56.499,kallum_motion_pilot,2023.2.2,Win32,161.2903226,5fe02160c274b392183266aa,65d2b6c8f2eece985d8e374c,65d2b95a0b64bbe7b18e2688,0.0526,0.0527,1,60,222,82,1,sixfive,,,,,,,,,,,,,,,,,,,,,,,,,,,,,,,,,,,,,,,,,,,,,,,,,,,,,,,,,,,,,,,,,,,,,,,,,,,,,,,,,,,,,,,,,,,,,,,,,,,,,,,,,,,,,,,,,,,,,,,,,,,,,,,,,,,,,,,,,
,,5fe02160c274b392183266aa,2024-02-19_02h13.56.499,kallum_motion_pilot,2023.2.2,Win32,161.2903226,5fe02160c274b392183266aa,65d2b6c8f2eece985d8e374c,65d2b95a0b64bbe7b18e2688,0.0528,0.0529,1,61,223,22,1,fourtwo,,,,,,,,,,,,,,,,,,,,,,,,,,,,,,,,,,,,,,,,,,,,,,,,,,,,,,,,,,,,,,,,,,,,,,,,,,,,,,,,,,,,,,,,,,,,,,,,,,,,,,,,,,,,,,,,,,,,,,,,,,,,,,,,,,,,,,,,,
,,5fe02160c274b392183266aa,2024-02-19_02h13.56.499,kallum_motion_pilot,2023.2.2,Win32,161.2903226,5fe02160c274b392183266aa,65d2b6c8f2eece985d8e374c,65d2b95a0b64bbe7b18e2688,0.053,0.0531,1,62,224,36,1,threeone,,,,,,,,,,,,,,,,,,,,,,,,,,,,,,,,,,,,,,,,,,,,,,,,,,,,,,,,,,,,,,,,,,,,,,,,,,,,,,,,,,,,,,,,,,,,,,,,,,,,,,,,,,,,,,,,,,,,,,,,,,,,,,,,,,,,,,,,,
,,5fe02160c274b392183266aa,2024-02-19_02h13.56.499,kallum_motion_pilot,2023.2.2,Win32,161.2903226,5fe02160c274b392183266aa,65d2b6c8f2eece985d8e374c,65d2b95a0b64bbe7b18e2688,0.0532,0.0532,1,63,225,31,1,fourthree,,,,,,,,,,,,,,,,,,,,,,,,,,,,,,,,,,,,,,,,,,,,,,,,,,,,,,,,,,,,,,,,,,,,,,,,,,,,,,,,,,,,,,,,,,,,,,,,,,,,,,,,,,,,,,,,,,,,,,,,,,,,,,,,,,,,,,,,,
,,5fe02160c274b392183266aa,2024-02-19_02h13.56.499,kallum_motion_pilot,2023.2.2,Win32,161.2903226,5fe02160c274b392183266aa,65d2b6c8f2eece985d8e374c,65d2b95a0b64bbe7b18e2688,0.0533,0.0534,1,64,226,61,1,threefour,,,,,,,,,,,,,,,,,,,,,,,,,,,,,,,,,,,,,,,,,,,,,,,,,,,,,,,,,,,,,,,,,,,,,,,,,,,,,,,,,,,,,,,,,,,,,,,,,,,,,,,,,,,,,,,,,,,,,,,,,,,,,,,,,,,,,,,,,
,,5fe02160c274b392183266aa,2024-02-19_02h13.56.499,kallum_motion_pilot,2023.2.2,Win32,161.2903226,5fe02160c274b392183266aa,65d2b6c8f2eece985d8e374c,65d2b95a0b64bbe7b18e2688,0.0535,0.0536,1,65,227,2,1,twoone,,,,,,,,,,,,,,,,,,,,,,,,,,,,,,,,,,,,,,,,,,,,,,,,,,,,,,,,,,,,,,,,,,,,,,,,,,,,,,,,,,,,,,,,,,,,,,,,,,,,,,,,,,,,,,,,,,,,,,,,,,,,,,,,,,,,,,,,,
,,5fe02160c274b392183266aa,2024-02-19_02h13.56.499,kallum_motion_pilot,2023.2.2,Win32,161.2903226,5fe02160c274b392183266aa,65d2b6c8f2eece985d8e374c,65d2b95a0b64bbe7b18e2688,0.0537,0.0538,1,66,228,44,1,threeone,,,,,,,,,,,,,,,,,,,,,,,,,,,,,,,,,,,,,,,,,,,,,,,,,,,,,,,,,,,,,,,,,,,,,,,,,,,,,,,,,,,,,,,,,,,,,,,,,,,,,,,,,,,,,,,,,,,,,,,,,,,,,,,,,,,,,,,,,
,,5fe02160c274b392183266aa,2024-02-19_02h13.56.499,kallum_motion_pilot,2023.2.2,Win32,161.2903226,5fe02160c274b392183266aa,65d2b6c8f2eece985d8e374c,65d2b95a0b64bbe7b18e2688,0.0539,0.0539,1,67,229,90,1,sixfive,,,,,,,,,,,,,,,,,,,,,,,,,,,,,,,,,,,,,,,,,,,,,,,,,,,,,,,,,,,,,,,,,,,,,,,,,,,,,,,,,,,,,,,,,,,,,,,,,,,,,,,,,,,,,,,,,,,,,,,,,,,,,,,,,,,,,,,,,
,,5fe02160c274b392183266aa,2024-02-19_02h13.56.499,kallum_motion_pilot,2023.2.2,Win32,161.2903226,5fe02160c274b392183266aa,65d2b6c8f2eece985d8e374c,65d2b95a0b64bbe7b18e2688,0.054,0.0541,1,68,230,38,1,fourtwo,,,,,,,,,,,,,,,,,,,,,,,,,,,,,,,,,,,,,,,,,,,,,,,,,,,,,,,,,,,,,,,,,,,,,,,,,,,,,,,,,,,,,,,,,,,,,,,,,,,,,,,,,,,,,,,,,,,,,,,,,,,,,,,,,,,,,,,,,
,,5fe02160c274b392183266aa,2024-02-19_02h13.56.499,kallum_motion_pilot,2023.2.2,Win32,161.2903226,5fe02160c274b392183266aa,65d2b6c8f2eece985d8e374c,65d2b95a0b64bbe7b18e2688,0.0542,0.0542,1,69,231,74,1,twoone,,,,,,,,,,,,,,,,,,,,,,,,,,,,,,,,,,,,,,,,,,,,,,,,,,,,,,,,,,,,,,,,,,,,,,,,,,,,,,,,,,,,,,,,,,,,,,,,,,,,,,,,,,,,,,,,,,,,,,,,,,,,,,,,,,,,,,,,,
,,5fe02160c274b392183266aa,2024-02-19_02h13.56.499,kallum_motion_pilot,2023.2.2,Win32,161.2903226,5fe02160c274b392183266aa,65d2b6c8f2eece985d8e374c,65d2b95a0b64bbe7b18e2688,0.0543,0.0544,1,70,232,149,1,seveneight,,,,,,,,,,,,,,,,,,,,,,,,,,,,,,,,,,,,,,,,,,,,,,,,,,,,,,,,,,,,,,,,,,,,,,,,,,,,,,,,,,,,,,,,,,,,,,,,,,,,,,,,,,,,,,,,,,,,,,,,,,,,,,,,,,,,,,,,,
,,5fe02160c274b392183266aa,2024-02-19_02h13.56.499,kallum_motion_pilot,2023.2.2,Win32,161.2903226,5fe02160c274b392183266aa,65d2b6c8f2eece985d8e374c,65d2b95a0b64bbe7b18e2688,0.0545,0.0546,1,71,233,66,1,twoone,,,,,,,,,,,,,,,,,,,,,,,,,,,,,,,,,,,,,,,,,,,,,,,,,,,,,,,,,,,,,,,,,,,,,,,,,,,,,,,,,,,,,,,,,,,,,,,,,,,,,,,,,,,,,,,,,,,,,,,,,,,,,,,,,,,,,,,,,
,,5fe02160c274b392183266aa,2024-02-19_02h13.56.499,kallum_motion_pilot,2023.2.2,Win32,161.2903226,5fe02160c274b392183266aa,65d2b6c8f2eece985d8e374c,65d2b95a0b64bbe7b18e2688,0.0546,0.0547,1,72,234,78,1,fourtwo,,,,,,,,,,,,,,,,,,,,,,,,,,,,,,,,,,,,,,,,,,,,,,,,,,,,,,,,,,,,,,,,,,,,,,,,,,,,,,,,,,,,,,,,,,,,,,,,,,,,,,,,,,,,,,,,,,,,,,,,,,,,,,,,,,,,,,,,,
,,5fe02160c274b392183266aa,2024-02-19_02h13.56.499,kallum_motion_pilot,2023.2.2,Win32,161.2903226,5fe02160c274b392183266aa,65d2b6c8f2eece985d8e374c,65d2b95a0b64bbe7b18e2688,0.0549,0.0551,1,73,235,147,1,sixeight,,,,,,,,,,,,,,,,,,,,,,,,,,,,,,,,,,,,,,,,,,,,,,,,,,,,,,,,,,,,,,,,,,,,,,,,,,,,,,,,,,,,,,,,,,,,,,,,,,,,,,,,,,,,,,,,,,,,,,,,,,,,,,,,,,,,,,,,,
,,5fe02160c274b392183266aa,2024-02-19_02h13.56.499,kallum_motion_pilot,2023.2.2,Win32,161.2903226,5fe02160c274b392183266aa,65d2b6c8f2eece985d8e374c,65d2b95a0b64bbe7b18e2688,0.0551,0.0552,1,74,236,93,1,seveneight,,,,,,,,,,,,,,,,,,,,,,,,,,,,,,,,,,,,,,,,,,,,,,,,,,,,,,,,,,,,,,,,,,,,,,,,,,,,,,,,,,,,,,,,,,,,,,,,,,,,,,,,,,,,,,,,,,,,,,,,,,,,,,,,,,,,,,,,,
,,5fe02160c274b392183266aa,2024-02-19_02h13.56.499,kallum_motion_pilot,2023.2.2,Win32,161.2903226,5fe02160c274b392183266aa,65d2b6c8f2eece985d8e374c,65d2b95a0b64bbe7b18e2688,0.0553,0.0554,1,75,237,154,1,sixfive,,,,,,,,,,,,,,,,,,,,,,,,,,,,,,,,,,,,,,,,,,,,,,,,,,,,,,,,,,,,,,,,,,,,,,,,,,,,,,,,,,,,,,,,,,,,,,,,,,,,,,,,,,,,,,,,,,,,,,,,,,,,,,,,,,,,,,,,,
,,5fe02160c274b392183266aa,2024-02-19_02h13.56.499,kallum_motion_pilot,2023.2.2,Win32,161.2903226,5fe02160c274b392183266aa,65d2b6c8f2eece985d8e374c,65d2b95a0b64bbe7b18e2688,0.0555,0.0555,1,76,238,12,1,threeone,,,,,,,,,,,,,,,,,,,,,,,,,,,,,,,,,,,,,,,,,,,,,,,,,,,,,,,,,,,,,,,,,,,,,,,,,,,,,,,,,,,,,,,,,,,,,,,,,,,,,,,,,,,,,,,,,,,,,,,,,,,,,,,,,,,,,,,,,
,,5fe02160c274b392183266aa,2024-02-19_02h13.56.499,kallum_motion_pilot,2023.2.2,Win32,161.2903226,5fe02160c274b392183266aa,65d2b6c8f2eece985d8e374c,65d2b95a0b64bbe7b18e2688,0.0557,0.0557,1,77,239,81,1,fiveseven,,,,,,,,,,,,,,,,,,,,,,,,,,,,,,,,,,,,,,,,,,,,,,,,,,,,,,,,,,,,,,,,,,,,,,,,,,,,,,,,,,,,,,,,,,,,,,,,,,,,,,,,,,,,,,,,,,,,,,,,,,,,,,,,,,,,,,,,,
,,5fe02160c274b392183266aa,2024-02-19_02h13.56.499,kallum_motion_pilot,2023.2.2,Win32,161.2903226,5fe02160c274b392183266aa,65d2b6c8f2eece985d8e374c,65d2b95a0b64bbe7b18e2688,0.0558,0.0559,1,78,240,108,1,sevenfive,,,,,,,,,,,,,,,,,,,,,,,,,,,,,,,,,,,,,,,,,,,,,,,,,,,,,,,,,,,,,,,,,,,,,,,,,,,,,,,,,,,,,,,,,,,,,,,,,,,,,,,,,,,,,,,,,,,,,,,,,,,,,,,,,,,,,,,,,
,,5fe02160c274b392183266aa,2024-02-19_02h13.56.499,kallum_motion_pilot,2023.2.2,Win32,161.2903226,5fe02160c274b392183266aa,65d2b6c8f2eece985d8e374c,65d2b95a0b64bbe7b18e2688,0.0559,0.056,1,79,241,48,1,onetwo,,,,,,,,,,,,,,,,,,,,,,,,,,,,,,,,,,,,,,,,,,,,,,,,,,,,,,,,,,,,,,,,,,,,,,,,,,,,,,,,,,,,,,,,,,,,,,,,,,,,,,,,,,,,,,,,,,,,,,,,,,,,,,,,,,,,,,,,,
,,5fe02160c274b392183266aa,2024-02-19_02h13.56.499,kallum_motion_pilot,2023.2.2,Win32,161.2903226,5fe02160c274b392183266aa,65d2b6c8f2eece985d8e374c,65d2b95a0b64bbe7b18e2688,0.0561,0.0562,1,80,242,21,1,threefour,,,,,,,,,,,,,,,,,,,,,,,,,,,,,,,,,,,,,,,,,,,,,,,,,,,,,,,,,,,,,,,,,,,,,,,,,,,,,,,,,,,,,,,,,,,,,,,,,,,,,,,,,,,,,,,,,,,,,,,,,,,,,,,,,,,,,,,,,
,,5fe02160c274b392183266aa,2024-02-19_02h13.56.499,kallum_motion_pilot,2023.2.2,Win32,161.2903226,5fe02160c274b392183266aa,65d2b6c8f2eece985d8e374c,65d2b95a0b64bbe7b18e2688,0.0562,0.0563,1,81,243,30,1,fourtwo,,,,,,,,,,,,,,,,,,,,,,,,,,,,,,,,,,,,,,,,,,,,,,,,,,,,,,,,,,,,,,,,,,,,,,,,,,,,,,,,,,,,,,,,,,,,,,,,,,,,,,,,,,,,,,,,,,,,,,,,,,,,,,,,,,,,,,,,,
,,5fe02160c274b392183266aa,2024-02-19_02h13.56.499,kallum_motion_pilot,2023.2.2,Win32,161.2903226,5fe02160c274b392183266aa,65d2b6c8f2eece985d8e374c,65d2b95a0b64bbe7b18e2688,0.0564,0.0565,1,82,244,0,1,onetwo,,,,,,,,,,,,,,,,,,,,,,,,,,,,,,,,,,,,,,,,,,,,,,,,,,,,,,,,,,,,,,,,,,,,,,,,,,,,,,,,,,,,,,,,,,,,,,,,,,,,,,,,,,,,,,,,,,,,,,,,,,,,,,,,,,,,,,,,,
,,5fe02160c274b392183266aa,2024-02-19_02h13.56.499,kallum_motion_pilot,2023.2.2,Win32,161.2903226,5fe02160c274b392183266aa,65d2b6c8f2eece985d8e374c,65d2b95a0b64bbe7b18e2688,0.0566,0.0566,1,83,245,160,1,fivesix,,,,,,,,,,,,,,,,,,,,,,,,,,,,,,,,,,,,,,,,,,,,,,,,,,,,,,,,,,,,,,,,,,,,,,,,,,,,,,,,,,,,,,,,,,,,,,,,,,,,,,,,,,,,,,,,,,,,,,,,,,,,,,,,,,,,,,,,,
,,5fe02160c274b392183266aa,2024-02-19_02h13.56.499,kallum_motion_pilot,2023.2.2,Win32,161.2903226,5fe02160c274b392183266aa,65d2b6c8f2eece985d8e374c,65d2b95a0b64bbe7b18e2688,0.0566,0.0568,1,84,246,45,1,threefour,,,,,,,,,,,,,,,,,,,,,,,,,,,,,,,,,,,,,,,,,,,,,,,,,,,,,,,,,,,,,,,,,,,,,,,,,,,,,,,,,,,,,,,,,,,,,,,,,,,,,,,,,,,,,,,,,,,,,,,,,,,,,,,,,,,,,,,,,
,,5fe02160c274b392183266aa,2024-02-19_02h13.56.499,kallum_motion_pilot,2023.2.2,Win32,161.2903226,5fe02160c274b392183266aa,65d2b6c8f2eece985d8e374c,65d2b95a0b64bbe7b18e2688,0.0568,0.0569,1,85,247,8,1,onetwo,,,,,,,,,,,,,,,,,,,,,,,,,,,,,,,,,,,,,,,,,,,,,,,,,,,,,,,,,,,,,,,,,,,,,,,,,,,,,,,,,,,,,,,,,,,,,,,,,,,,,,,,,,,,,,,,,,,,,,,,,,,,,,,,,,,,,,,,,
,,5fe02160c274b392183266aa,2024-02-19_02h13.56.499,kallum_motion_pilot,2023.2.2,Win32,161.2903226,5fe02160c274b392183266aa,65d2b6c8f2eece985d8e374c,65d2b95a0b64bbe7b18e2688,0.0569,0.0571,1,86,248,67,1,twofour,,,,,,,,,,,,,,,,,,,,,,,,,,,,,,,,,,,,,,,,,,,,,,,,,,,,,,,,,,,,,,,,,,,,,,,,,,,,,,,,,,,,,,,,,,,,,,,,,,,,,,,,,,,,,,,,,,,,,,,,,,,,,,,,,,,,,,,,,
,,5fe02160c274b392183266aa,2024-02-19_02h13.56.499,kallum_motion_pilot,2023.2.2,Win32,161.2903226,5fe02160c274b392183266aa,65d2b6c8f2eece985d8e374c,65d2b95a0b64bbe7b18e2688,0.0571,0.0572,1,87,249,26,1,twoone,,,,,,,,,,,,,,,,,,,,,,,,,,,,,,,,,,,,,,,,,,,,,,,,,,,,,,,,,,,,,,,,,,,,,,,,,,,,,,,,,,,,,,,,,,,,,,,,,,,,,,,,,,,,,,,,,,,,,,,,,,,,,,,,,,,,,,,,,
,,5fe02160c274b392183266aa,2024-02-19_02h13.56.499,kallum_motion_pilot,2023.2.2,Win32,161.2903226,5fe02160c274b392183266aa,65d2b6c8f2eece985d8e374c,65d2b95a0b64bbe7b18e2688,0.0572,0.0573,1,88,250,51,1,twofour,,,,,,,,,,,,,,,,,,,,,,,,,,,,,,,,,,,,,,,,,,,,,,,,,,,,,,,,,,,,,,,,,,,,,,,,,,,,,,,,,,,,,,,,,,,,,,,,,,,,,,,,,,,,,,,,,,,,,,,,,,,,,,,,,,,,,,,,,
,,5fe02160c274b392183266aa,2024-02-19_02h13.56.499,kallum_motion_pilot,2023.2.2,Win32,161.2903226,5fe02160c274b392183266aa,65d2b6c8f2eece985d8e374c,65d2b95a0b64bbe7b18e2688,0.0574,0.0575,1,89,251,62,1,fourtwo,,,,,,,,,,,,,,,,,,,,,,,,,,,,,,,,,,,,,,,,,,,,,,,,,,,,,,,,,,,,,,,,,,,,,,,,,,,,,,,,,,,,,,,,,,,,,,,,,,,,,,,,,,,,,,,,,,,,,,,,,,,,,,,,,,,,,,,,,
,,5fe02160c274b392183266aa,2024-02-19_02h13.56.499,kallum_motion_pilot,2023.2.2,Win32,161.2903226,5fe02160c274b392183266aa,65d2b6c8f2eece985d8e374c,65d2b95a0b64bbe7b18e2688,0.0575,0.0576,1,90,252,70,1,fourtwo,,,,,,,,,,,,,,,,,,,,,,,,,,,,,,,,,,,,,,,,,,,,,,,,,,,,,,,,,,,,,,,,,,,,,,,,,,,,,,,,,,,,,,,,,,,,,,,,,,,,,,,,,,,,,,,,,,,,,,,,,,,,,,,,,,,,,,,,,
,,5fe02160c274b392183266aa,2024-02-19_02h13.56.499,kallum_motion_pilot,2023.2.2,Win32,161.2903226,5fe02160c274b392183266aa,65d2b6c8f2eece985d8e374c,65d2b95a0b64bbe7b18e2688,0.0577,0.0578,1,91,253,105,1,fiveseven,,,,,,,,,,,,,,,,,,,,,,,,,,,,,,,,,,,,,,,,,,,,,,,,,,,,,,,,,,,,,,,,,,,,,,,,,,,,,,,,,,,,,,,,,,,,,,,,,,,,,,,,,,,,,,,,,,,,,,,,,,,,,,,,,,,,,,,,,
,,5fe02160c274b392183266aa,2024-02-19_02h13.56.499,kallum_motion_pilot,2023.2.2,Win32,161.2903226,5fe02160c274b392183266aa,65d2b6c8f2eece985d8e374c,65d2b95a0b64bbe7b18e2688,0.0578,0.0579,1,92,254,99,1,sixeight,,,,,,,,,,,,,,,,,,,,,,,,,,,,,,,,,,,,,,,,,,,,,,,,,,,,,,,,,,,,,,,,,,,,,,,,,,,,,,,,,,,,,,,,,,,,,,,,,,,,,,,,,,,,,,,,,,,,,,,,,,,,,,,,,,,,,,,,,
,,5fe02160c274b392183266aa,2024-02-19_02h13.56.499,kallum_motion_pilot,2023.2.2,Win32,161.2903226,5fe02160c274b392183266aa,65d2b6c8f2eece985d8e374c,65d2b95a0b64bbe7b18e2688,0.058,0.0581,1,93,255,135,1,eightseven,,,,,,,,,,,,,,,,,,,,,,,,,,,,,,,,,,,,,,,,,,,,,,,,,,,,,,,,,,,,,,,,,,,,,,,,,,,,,,,,,,,,,,,,,,,,,,,,,,,,,,,,,,,,,,,,,,,,,,,,,,,,,,,,,,,,,,,,,
,,5fe02160c274b392183266aa,2024-02-19_02h13.56.499,kallum_motion_pilot,2023.2.2,Win32,161.2903226,5fe02160c274b392183266aa,65d2b6c8f2eece985d8e374c,65d2b95a0b64bbe7b18e2688,0.0582,0.0583,1,94,256,117,1,seveneight,,,,,,,,,,,,,,,,,,,,,,,,,,,,,,,,,,,,,,,,,,,,,,,,,,,,,,,,,,,,,,,,,,,,,,,,,,,,,,,,,,,,,,,,,,,,,,,,,,,,,,,,,,,,,,,,,,,,,,,,,,,,,,,,,,,,,,,,,
,,5fe02160c274b392183266aa,2024-02-19_02h13.56.499,kallum_motion_pilot,2023.2.2,Win32,161.2903226,5fe02160c274b392183266aa,65d2b6c8f2eece985d8e374c,65d2b95a0b64bbe7b18e2688,0.0583,0.0584,1,95,257,129,1,fiveseven,,,,,,,,,,,,,,,,,,,,,,,,,,,,,,,,,,,,,,,,,,,,,,,,,,,,,,,,,,,,,,,,,,,,,,,,,,,,,,,,,,,,,,,,,,,,,,,,,,,,,,,,,,,,,,,,,,,,,,,,,,,,,,,,,,,,,,,,,
,,5fe02160c274b392183266aa,2024-02-19_02h13.56.499,kallum_motion_pilot,2023.2.2,Win32,161.2903226,5fe02160c274b392183266aa,65d2b6c8f2eece985d8e374c,65d2b95a0b64bbe7b18e2688,0.0585,0.0585,1,96,258,120,1,fivesix,,,,,,,,,,,,,,,,,,,,,,,,,,,,,,,,,,,,,,,,,,,,,,,,,,,,,,,,,,,,,,,,,,,,,,,,,,,,,,,,,,,,,,,,,,,,,,,,,,,,,,,,,,,,,,,,,,,,,,,,,,,,,,,,,,,,,,,,,
,,5fe02160c274b392183266aa,2024-02-19_02h13.56.499,kallum_motion_pilot,2023.2.2,Win32,161.2903226,5fe02160c274b392183266aa,65d2b6c8f2eece985d8e374c,65d2b95a0b64bbe7b18e2688,0.0586,0.0587,1,97,259,143,1,eightseven,,,,,,,,,,,,,,,,,,,,,,,,,,,,,,,,,,,,,,,,,,,,,,,,,,,,,,,,,,,,,,,,,,,,,,,,,,,,,,,,,,,,,,,,,,,,,,,,,,,,,,,,,,,,,,,,,,,,,,,,,,,,,,,,,,,,,,,,,
,,5fe02160c274b392183266aa,2024-02-19_02h13.56.499,kallum_motion_pilot,2023.2.2,Win32,161.2903226,5fe02160c274b392183266aa,65d2b6c8f2eece985d8e374c,65d2b95a0b64bbe7b18e2688,0.0587,0.0589,1,98,260,49,1,onethree,,,,,,,,,,,,,,,,,,,,,,,,,,,,,,,,,,,,,,,,,,,,,,,,,,,,,,,,,,,,,,,,,,,,,,,,,,,,,,,,,,,,,,,,,,,,,,,,,,,,,,,,,,,,,,,,,,,,,,,,,,,,,,,,,,,,,,,,,
,,5fe02160c274b392183266aa,2024-02-19_02h13.56.499,kallum_motion_pilot,2023.2.2,Win32,161.2903226,5fe02160c274b392183266aa,65d2b6c8f2eece985d8e374c,65d2b95a0b64bbe7b18e2688,0.059,0.0591,1,99,261,13,1,threefour,,,,,,,,,,,,,,,,,,,,,,,,,,,,,,,,,,,,,,,,,,,,,,,,,,,,,,,,,,,,,,,,,,,,,,,,,,,,,,,,,,,,,,,,,,,,,,,,,,,,,,,,,,,,,,,,,,,,,,,,,,,,,,,,,,,,,,,,,
,,5fe02160c274b392183266aa,2024-02-19_02h13.56.499,kallum_motion_pilot,2023.2.2,Win32,161.2903226,5fe02160c274b392183266aa,65d2b6c8f2eece985d8e374c,65d2b95a0b64bbe7b18e2688,0.0591,0.0592,1,100,262,47,1,fourthree,,,,,,,,,,,,,,,,,,,,,,,,,,,,,,,,,,,,,,,,,,,,,,,,,,,,,,,,,,,,,,,,,,,,,,,,,,,,,,,,,,,,,,,,,,,,,,,,,,,,,,,,,,,,,,,,,,,,,,,,,,,,,,,,,,,,,,,,,
,,5fe02160c274b392183266aa,2024-02-19_02h13.56.499,kallum_motion_pilot,2023.2.2,Win32,161.2903226,5fe02160c274b392183266aa,65d2b6c8f2eece985d8e374c,65d2b95a0b64bbe7b18e2688,0.0592,0.0593,1,101,263,106,1,sixfive,,,,,,,,,,,,,,,,,,,,,,,,,,,,,,,,,,,,,,,,,,,,,,,,,,,,,,,,,,,,,,,,,,,,,,,,,,,,,,,,,,,,,,,,,,,,,,,,,,,,,,,,,,,,,,,,,,,,,,,,,,,,,,,,,,,,,,,,,
,,5fe02160c274b392183266aa,2024-02-19_02h13.56.499,kallum_motion_pilot,2023.2.2,Win32,161.2903226,5fe02160c274b392183266aa,65d2b6c8f2eece985d8e374c,65d2b95a0b64bbe7b18e2688,0.0594,0.0595,1,102,264,136,1,fivesix,,,,,,,,,,,,,,,,,,,,,,,,,,,,,,,,,,,,,,,,,,,,,,,,,,,,,,,,,,,,,,,,,,,,,,,,,,,,,,,,,,,,,,,,,,,,,,,,,,,,,,,,,,,,,,,,,,,,,,,,,,,,,,,,,,,,,,,,,
,,5fe02160c274b392183266aa,2024-02-19_02h13.56.499,kallum_motion_pilot,2023.2.2,Win32,161.2903226,5fe02160c274b392183266aa,65d2b6c8f2eece985d8e374c,65d2b95a0b64bbe7b18e2688,0.0596,0.0597,1,103,265,122,1,sixfive,,,,,,,,,,,,,,,,,,,,,,,,,,,,,,,,,,,,,,,,,,,,,,,,,,,,,,,,,,,,,,,,,,,,,,,,,,,,,,,,,,,,,,,,,,,,,,,,,,,,,,,,,,,,,,,,,,,,,,,,,,,,,,,,,,,,,,,,,
,,5fe02160c274b392183266aa,2024-02-19_02h13.56.499,kallum_motion_pilot,2023.2.2,Win32,161.2903226,5fe02160c274b392183266aa,65d2b6c8f2eece985d8e374c,65d2b95a0b64bbe7b18e2688,0.0598,0.06,1,104,266,133,1,seveneight,,,,,,,,,,,,,,,,,,,,,,,,,,,,,,,,,,,,,,,,,,,,,,,,,,,,,,,,,,,,,,,,,,,,,,,,,,,,,,,,,,,,,,,,,,,,,,,,,,,,,,,,,,,,,,,,,,,,,,,,,,,,,,,,,,,,,,,,,
,,5fe02160c274b392183266aa,2024-02-19_02h13.56.499,kallum_motion_pilot,2023.2.2,Win32,161.2903226,5fe02160c274b392183266aa,65d2b6c8f2eece985d8e374c,65d2b95a0b64bbe7b18e2688,0.0602,0.0602,1,105,267,112,1,fivesix,,,,,,,,,,,,,,,,,,,,,,,,,,,,,,,,,,,,,,,,,,,,,,,,,,,,,,,,,,,,,,,,,,,,,,,,,,,,,,,,,,,,,,,,,,,,,,,,,,,,,,,,,,,,,,,,,,,,,,,,,,,,,,,,,,,,,,,,,
,,5fe02160c274b392183266aa,2024-02-19_02h13.56.499,kallum_motion_pilot,2023.2.2,Win32,161.2903226,5fe02160c274b392183266aa,65d2b6c8f2eece985d8e374c,65d2b95a0b64bbe7b18e2688,0.0603,0.0604,1,106,268,114,1,sixfive,,,,,,,,,,,,,,,,,,,,,,,,,,,,,,,,,,,,,,,,,,,,,,,,,,,,,,,,,,,,,,,,,,,,,,,,,,,,,,,,,,,,,,,,,,,,,,,,,,,,,,,,,,,,,,,,,,,,,,,,,,,,,,,,,,,,,,,,,
,,5fe02160c274b392183266aa,2024-02-19_02h13.56.499,kallum_motion_pilot,2023.2.2,Win32,161.2903226,5fe02160c274b392183266aa,65d2b6c8f2eece985d8e374c,65d2b95a0b64bbe7b18e2688,0.0605,0.0606,1,107,269,69,1,threefour,,,,,,,,,,,,,,,,,,,,,,,,,,,,,,,,,,,,,,,,,,,,,,,,,,,,,,,,,,,,,,,,,,,,,,,,,,,,,,,,,,,,,,,,,,,,,,,,,,,,,,,,,,,,,,,,,,,,,,,,,,,,,,,,,,,,,,,,,
,,5fe02160c274b392183266aa,2024-02-19_02h13.56.499,kallum_motion_pilot,2023.2.2,Win32,161.2903226,5fe02160c274b392183266aa,65d2b6c8f2eece985d8e374c,65d2b95a0b64bbe7b18e2688,0.0606,0.0607,1,108,270,119,1,eightseven,,,,,,,,,,,,,,,,,,,,,,,,,,,,,,,,,,,,,,,,,,,,,,,,,,,,,,,,,,,,,,,,,,,,,,,,,,,,,,,,,,,,,,,,,,,,,,,,,,,,,,,,,,,,,,,,,,,,,,,,,,,,,,,,,,,,,,,,,
,,5fe02160c274b392183266aa,2024-02-19_02h13.56.499,kallum_motion_pilot,2023.2.2,Win32,161.2903226,5fe02160c274b392183266aa,65d2b6c8f2eece985d8e374c,65d2b95a0b64bbe7b18e2688,0.0608,0.0609,1,109,271,6,1,fourtwo,,,,,,,,,,,,,,,,,,,,,,,,,,,,,,,,,,,,,,,,,,,,,,,,,,,,,,,,,,,,,,,,,,,,,,,,,,,,,,,,,,,,,,,,,,,,,,,,,,,,,,,,,,,,,,,,,,,,,,,,,,,,,,,,,,,,,,,,,
,,5fe02160c274b392183266aa,2024-02-19_02h13.56.499,kallum_motion_pilot,2023.2.2,Win32,161.2903226,5fe02160c274b392183266aa,65d2b6c8f2eece985d8e374c,65d2b95a0b64bbe7b18e2688,0.061,0.0611,1,110,272,40,1,onetwo,,,,,,,,,,,,,,,,,,,,,,,,,,,,,,,,,,,,,,,,,,,,,,,,,,,,,,,,,,,,,,,,,,,,,,,,,,,,,,,,,,,,,,,,,,,,,,,,,,,,,,,,,,,,,,,,,,,,,,,,,,,,,,,,,,,,,,,,,
,,5fe02160c274b392183266aa,2024-02-19_02h13.56.499,kallum_motion_pilot,2023.2.2,Win32,161.2903226,5fe02160c274b392183266aa,65d2b6c8f2eece985d8e374c,65d2b95a0b64bbe7b18e2688,0.0612,0.0612,1,111,273,97,1,fiveseven,,,,,,,,,,,,,,,,,,,,,,,,,,,,,,,,,,,,,,,,,,,,,,,,,,,,,,,,,,,,,,,,,,,,,,,,,,,,,,,,,,,,,,,,,,,,,,,,,,,,,,,,,,,,,,,,,,,,,,,,,,,,,,,,,,,,,,,,,
,,5fe02160c274b392183266aa,2024-02-19_02h13.56.499,kallum_motion_pilot,2023.2.2,Win32,161.2903226,5fe02160c274b392183266aa,65d2b6c8f2eece985d8e374c,65d2b95a0b64bbe7b18e2688,0.0613,0.0614,1,112,274,20,1,threeone,,,,,,,,,,,,,,,,,,,,,,,,,,,,,,,,,,,,,,,,,,,,,,,,,,,,,,,,,,,,,,,,,,,,,,,,,,,,,,,,,,,,,,,,,,,,,,,,,,,,,,,,,,,,,,,,,,,,,,,,,,,,,,,,,,,,,,,,,
,,5fe02160c274b392183266aa,2024-02-19_02h13.56.499,kallum_motion_pilot,2023.2.2,Win32,161.2903226,5fe02160c274b392183266aa,65d2b6c8f2eece985d8e374c,65d2b95a0b64bbe7b18e2688,0.0615,0.0616,1,113,275,46,1,fourtwo,,,,,,,,,,,,,,,,,,,,,,,,,,,,,,,,,,,,,,,,,,,,,,,,,,,,,,,,,,,,,,,,,,,,,,,,,,,,,,,,,,,,,,,,,,,,,,,,,,,,,,,,,,,,,,,,,,,,,,,,,,,,,,,,,,,,,,,,,
,,5fe02160c274b392183266aa,2024-02-19_02h13.56.499,kallum_motion_pilot,2023.2.2,Win32,161.2903226,5fe02160c274b392183266aa,65d2b6c8f2eece985d8e374c,65d2b95a0b64bbe7b18e2688,0.0616,0.0617,1,114,276,101,1,seveneight,,,,,,,,,,,,,,,,,,,,,,,,,,,,,,,,,,,,,,,,,,,,,,,,,,,,,,,,,,,,,,,,,,,,,,,,,,,,,,,,,,,,,,,,,,,,,,,,,,,,,,,,,,,,,,,,,,,,,,,,,,,,,,,,,,,,,,,,,
,,5fe02160c274b392183266aa,2024-02-19_02h13.56.499,kallum_motion_pilot,2023.2.2,Win32,161.2903226,5fe02160c274b392183266aa,65d2b6c8f2eece985d8e374c,65d2b95a0b64bbe7b18e2688,0.0618,0.0618,1,115,277,118,1,eightsix,,,,,,,,,,,,,,,,,,,,,,,,,,,,,,,,,,,,,,,,,,,,,,,,,,,,,,,,,,,,,,,,,,,,,,,,,,,,,,,,,,,,,,,,,,,,,,,,,,,,,,,,,,,,,,,,,,,,,,,,,,,,,,,,,,,,,,,,,
