startup.started,startup.stopped,Prolific ID*,date,expName,psychopyVersion,OS,frameRate,participant,study_id,session,stimpositions.started,stimpositions.stopped,hardcoded_stimulus_positions.thisRepN,hardcoded_stimulus_positions.thisTrialN,hardcoded_stimulus_positions.thisN,hardcoded_stimulus_positions.thisIndex,hardcoded_stimulus_positions.ran,StimulusPos,stimorientation.started,stimorientation.stopped,prac_stimorientation_import_loop.thisRepN,prac_stimorientation_import_loop.thisTrialN,prac_stimorientation_import_loop.thisN,prac_stimorientation_import_loop.thisIndex,prac_stimorientation_import_loop.ran,Stimorientation,welcome_instr.started,welcome_instr.stopped,key_resp.keys,key_resp.rt,key_resp.duration,response_steppedout_1.started,response_steppedout_1.stopped,key_resp_20.keys,key_resp_20.rt,key_resp_20.duration,response_steppedout_2.started,response_steppedout_2.stopped,key_resp_19.keys,key_resp_19.rt,key_resp_19.duration,stim_response_instr.started,stim_response_instr.stopped,key_resp_15.keys,key_resp_15.rt,key_resp_15.duration,direction_instr_2.started,direction_instr_2.stopped,key_resp_9.keys,key_resp_9.rt,key_resp_9.duration,instr_prac.started,instr_prac.stopped,key_resp_10.keys,key_resp_10.rt,key_resp_10.duration,Stim1_display_prac.started,Stim1_display_prac.stopped,Ecc,Circle1_ori,Circle2_ori,response_prac.started,similarity,response_time,response_prac.stopped,mouse_5.x,mouse_5.y,mouse_5.leftButton,mouse_5.midButton,mouse_5.rightButton,mouse_5.clicked_name,responseprac_feedback.started,responseprac_feedback.stopped,summary2_prac.started,summary2_prac.stopped,mouse_6.x,mouse_6.y,mouse_6.leftButton,mouse_6.midButton,mouse_6.rightButton,mouse_6.clicked_name,duringprac.thisRepN,duringprac.thisTrialN,duringprac.thisN,duringprac.thisIndex,duringprac.ran,begin.started,begin.stopped,key_resp_22.keys,key_resp_22.rt,key_resp_22.duration,Stim1_display.started,Stim1_display.stopped,circle1_ori,circle2_ori,circle1_SF,circle2_SF,response.started,response.stopped,mouse.x,mouse.y,mouse.leftButton,mouse.midButton,mouse.rightButton,mouse.clicked_name,trialnumber,double_pass.thisRepN,double_pass.thisTrialN,double_pass.thisN,double_pass.thisIndex,double_pass.ran,double_pass.order,main_trial.thisRepN,main_trial.thisTrialN,main_trial.thisN,main_trial.thisIndex,main_trial.ran,main_trial.order,Trial_Counter,Catch,Frequencies,response_2.started,response_2.stopped,mouse_2.x,mouse_2.y,mouse_2.leftButton,mouse_2.midButton,mouse_2.rightButton,mouse_2.clicked_name,special_trial.started,special_trial.stopped,catch_1.started,catch_1.stopped,mouse_3.x,mouse_3.y,mouse_3.leftButton,mouse_3.midButton,mouse_3.rightButton,catchresponse,catchnumber,response_time_catch,response_sum.started,response_sum.stopped,mouse_11.x,mouse_11.y,mouse_11.leftButton,mouse_11.midButton,mouse_11.rightButton,flip_presentation_sequence_for_double_pass.started,flip_presentation_sequence_for_double_pass.stopped,goodbye.started,goodbye.stopped,key_resp_3.keys,key_resp_3.rt,key_resp_3.duration
0.0004,0.0007,5ff265688f62107122f931f2,2024-02-21_22h03.34.959,kallum_motion_pilot,2023.2.2,Linux x86_64,59.84082341,5ff265688f62107122f931f2,65d6bb0e977760de756971f7,65d6bef20a464a429d9a9174,,,,,,,,,,,,,,,,,,,,,,,,,,,,,,,,,,,,,,,,,,,,,,,,,,,,,,,,,,,,,,,,,,,,,,,,,,,,,,,,,,,,,,,,,,,,,,,,,,,,,,,,,,,,,,,,,,,,,,,,,,,,,,,,,,,,,,,,,,,,,,,,,
,,5ff265688f62107122f931f2,2024-02-21_22h03.34.959,kallum_motion_pilot,2023.2.2,Linux x86_64,59.84082341,5ff265688f62107122f931f2,65d6bb0e977760de756971f7,65d6bef20a464a429d9a9174,0.0298,0.03,0,0,0,52,1,threeone,,,,,,,,,,,,,,,,,,,,,,,,,,,,,,,,,,,,,,,,,,,,,,,,,,,,,,,,,,,,,,,,,,,,,,,,,,,,,,,,,,,,,,,,,,,,,,,,,,,,,,,,,,,,,,,,,,,,,,,,,,,,,,,,,,,,,,,,,
,,5ff265688f62107122f931f2,2024-02-21_22h03.34.959,kallum_motion_pilot,2023.2.2,Linux x86_64,59.84082341,5ff265688f62107122f931f2,65d6bb0e977760de756971f7,65d6bef20a464a429d9a9174,0.0302,0.0303,0,1,1,135,1,eightseven,,,,,,,,,,,,,,,,,,,,,,,,,,,,,,,,,,,,,,,,,,,,,,,,,,,,,,,,,,,,,,,,,,,,,,,,,,,,,,,,,,,,,,,,,,,,,,,,,,,,,,,,,,,,,,,,,,,,,,,,,,,,,,,,,,,,,,,,,
,,5ff265688f62107122f931f2,2024-02-21_22h03.34.959,kallum_motion_pilot,2023.2.2,Linux x86_64,59.84082341,5ff265688f62107122f931f2,65d6bb0e977760de756971f7,65d6bef20a464a429d9a9174,0.0305,0.0305,0,2,2,127,1,eightseven,,,,,,,,,,,,,,,,,,,,,,,,,,,,,,,,,,,,,,,,,,,,,,,,,,,,,,,,,,,,,,,,,,,,,,,,,,,,,,,,,,,,,,,,,,,,,,,,,,,,,,,,,,,,,,,,,,,,,,,,,,,,,,,,,,,,,,,,,
,,5ff265688f62107122f931f2,2024-02-21_22h03.34.959,kallum_motion_pilot,2023.2.2,Linux x86_64,59.84082341,5ff265688f62107122f931f2,65d6bb0e977760de756971f7,65d6bef20a464a429d9a9174,0.0307,0.0308,0,3,3,106,1,sixfive,,,,,,,,,,,,,,,,,,,,,,,,,,,,,,,,,,,,,,,,,,,,,,,,,,,,,,,,,,,,,,,,,,,,,,,,,,,,,,,,,,,,,,,,,,,,,,,,,,,,,,,,,,,,,,,,,,,,,,,,,,,,,,,,,,,,,,,,,
,,5ff265688f62107122f931f2,2024-02-21_22h03.34.959,kallum_motion_pilot,2023.2.2,Linux x86_64,59.84082341,5ff265688f62107122f931f2,65d6bb0e977760de756971f7,65d6bef20a464a429d9a9174,0.0309,0.0309,0,4,4,149,1,seveneight,,,,,,,,,,,,,,,,,,,,,,,,,,,,,,,,,,,,,,,,,,,,,,,,,,,,,,,,,,,,,,,,,,,,,,,,,,,,,,,,,,,,,,,,,,,,,,,,,,,,,,,,,,,,,,,,,,,,,,,,,,,,,,,,,,,,,,,,,
,,5ff265688f62107122f931f2,2024-02-21_22h03.34.959,kallum_motion_pilot,2023.2.2,Linux x86_64,59.84082341,5ff265688f62107122f931f2,65d6bb0e977760de756971f7,65d6bef20a464a429d9a9174,0.0311,0.0311,0,5,5,155,1,sixeight,,,,,,,,,,,,,,,,,,,,,,,,,,,,,,,,,,,,,,,,,,,,,,,,,,,,,,,,,,,,,,,,,,,,,,,,,,,,,,,,,,,,,,,,,,,,,,,,,,,,,,,,,,,,,,,,,,,,,,,,,,,,,,,,,,,,,,,,,
,,5ff265688f62107122f931f2,2024-02-21_22h03.34.959,kallum_motion_pilot,2023.2.2,Linux x86_64,59.84082341,5ff265688f62107122f931f2,65d6bb0e977760de756971f7,65d6bef20a464a429d9a9174,0.0313,0.0313,0,6,6,137,1,fiveseven,,,,,,,,,,,,,,,,,,,,,,,,,,,,,,,,,,,,,,,,,,,,,,,,,,,,,,,,,,,,,,,,,,,,,,,,,,,,,,,,,,,,,,,,,,,,,,,,,,,,,,,,,,,,,,,,,,,,,,,,,,,,,,,,,,,,,,,,,
,,5ff265688f62107122f931f2,2024-02-21_22h03.34.959,kallum_motion_pilot,2023.2.2,Linux x86_64,59.84082341,5ff265688f62107122f931f2,65d6bb0e977760de756971f7,65d6bef20a464a429d9a9174,0.0314,0.0315,0,7,7,57,1,onethree,,,,,,,,,,,,,,,,,,,,,,,,,,,,,,,,,,,,,,,,,,,,,,,,,,,,,,,,,,,,,,,,,,,,,,,,,,,,,,,,,,,,,,,,,,,,,,,,,,,,,,,,,,,,,,,,,,,,,,,,,,,,,,,,,,,,,,,,,
,,5ff265688f62107122f931f2,2024-02-21_22h03.34.959,kallum_motion_pilot,2023.2.2,Linux x86_64,59.84082341,5ff265688f62107122f931f2,65d6bb0e977760de756971f7,65d6bef20a464a429d9a9174,0.0318,0.0318,0,8,8,105,1,fiveseven,,,,,,,,,,,,,,,,,,,,,,,,,,,,,,,,,,,,,,,,,,,,,,,,,,,,,,,,,,,,,,,,,,,,,,,,,,,,,,,,,,,,,,,,,,,,,,,,,,,,,,,,,,,,,,,,,,,,,,,,,,,,,,,,,,,,,,,,,
,,5ff265688f62107122f931f2,2024-02-21_22h03.34.959,kallum_motion_pilot,2023.2.2,Linux x86_64,59.84082341,5ff265688f62107122f931f2,65d6bb0e977760de756971f7,65d6bef20a464a429d9a9174,0.0319,0.032,0,9,9,30,1,fourtwo,,,,,,,,,,,,,,,,,,,,,,,,,,,,,,,,,,,,,,,,,,,,,,,,,,,,,,,,,,,,,,,,,,,,,,,,,,,,,,,,,,,,,,,,,,,,,,,,,,,,,,,,,,,,,,,,,,,,,,,,,,,,,,,,,,,,,,,,,
,,5ff265688f62107122f931f2,2024-02-21_22h03.34.959,kallum_motion_pilot,2023.2.2,Linux x86_64,59.84082341,5ff265688f62107122f931f2,65d6bb0e977760de756971f7,65d6bef20a464a429d9a9174,0.0321,0.0321,0,10,10,9,1,onethree,,,,,,,,,,,,,,,,,,,,,,,,,,,,,,,,,,,,,,,,,,,,,,,,,,,,,,,,,,,,,,,,,,,,,,,,,,,,,,,,,,,,,,,,,,,,,,,,,,,,,,,,,,,,,,,,,,,,,,,,,,,,,,,,,,,,,,,,,
,,5ff265688f62107122f931f2,2024-02-21_22h03.34.959,kallum_motion_pilot,2023.2.2,Linux x86_64,59.84082341,5ff265688f62107122f931f2,65d6bb0e977760de756971f7,65d6bef20a464a429d9a9174,0.0322,0.0322,0,11,11,56,1,onetwo,,,,,,,,,,,,,,,,,,,,,,,,,,,,,,,,,,,,,,,,,,,,,,,,,,,,,,,,,,,,,,,,,,,,,,,,,,,,,,,,,,,,,,,,,,,,,,,,,,,,,,,,,,,,,,,,,,,,,,,,,,,,,,,,,,,,,,,,,
,,5ff265688f62107122f931f2,2024-02-21_22h03.34.959,kallum_motion_pilot,2023.2.2,Linux x86_64,59.84082341,5ff265688f62107122f931f2,65d6bb0e977760de756971f7,65d6bef20a464a429d9a9174,0.0324,0.0324,0,12,12,86,1,eightsix,,,,,,,,,,,,,,,,,,,,,,,,,,,,,,,,,,,,,,,,,,,,,,,,,,,,,,,,,,,,,,,,,,,,,,,,,,,,,,,,,,,,,,,,,,,,,,,,,,,,,,,,,,,,,,,,,,,,,,,,,,,,,,,,,,,,,,,,,
,,5ff265688f62107122f931f2,2024-02-21_22h03.34.959,kallum_motion_pilot,2023.2.2,Linux x86_64,59.84082341,5ff265688f62107122f931f2,65d6bb0e977760de756971f7,65d6bef20a464a429d9a9174,0.0326,0.0326,0,13,13,109,1,seveneight,,,,,,,,,,,,,,,,,,,,,,,,,,,,,,,,,,,,,,,,,,,,,,,,,,,,,,,,,,,,,,,,,,,,,,,,,,,,,,,,,,,,,,,,,,,,,,,,,,,,,,,,,,,,,,,,,,,,,,,,,,,,,,,,,,,,,,,,,
,,5ff265688f62107122f931f2,2024-02-21_22h03.34.959,kallum_motion_pilot,2023.2.2,Linux x86_64,59.84082341,5ff265688f62107122f931f2,65d6bb0e977760de756971f7,65d6bef20a464a429d9a9174,0.0327,0.0328,0,14,14,44,1,threeone,,,,,,,,,,,,,,,,,,,,,,,,,,,,,,,,,,,,,,,,,,,,,,,,,,,,,,,,,,,,,,,,,,,,,,,,,,,,,,,,,,,,,,,,,,,,,,,,,,,,,,,,,,,,,,,,,,,,,,,,,,,,,,,,,,,,,,,,,
,,5ff265688f62107122f931f2,2024-02-21_22h03.34.959,kallum_motion_pilot,2023.2.2,Linux x86_64,59.84082341,5ff265688f62107122f931f2,65d6bb0e977760de756971f7,65d6bef20a464a429d9a9174,0.0329,0.0329,0,15,15,148,1,sevenfive,,,,,,,,,,,,,,,,,,,,,,,,,,,,,,,,,,,,,,,,,,,,,,,,,,,,,,,,,,,,,,,,,,,,,,,,,,,,,,,,,,,,,,,,,,,,,,,,,,,,,,,,,,,,,,,,,,,,,,,,,,,,,,,,,,,,,,,,,
,,5ff265688f62107122f931f2,2024-02-21_22h03.34.959,kallum_motion_pilot,2023.2.2,Linux x86_64,59.84082341,5ff265688f62107122f931f2,65d6bb0e977760de756971f7,65d6bef20a464a429d9a9174,0.033,0.0331,0,16,16,99,1,sixeight,,,,,,,,,,,,,,,,,,,,,,,,,,,,,,,,,,,,,,,,,,,,,,,,,,,,,,,,,,,,,,,,,,,,,,,,,,,,,,,,,,,,,,,,,,,,,,,,,,,,,,,,,,,,,,,,,,,,,,,,,,,,,,,,,,,,,,,,,
,,5ff265688f62107122f931f2,2024-02-21_22h03.34.959,kallum_motion_pilot,2023.2.2,Linux x86_64,59.84082341,5ff265688f62107122f931f2,65d6bb0e977760de756971f7,65d6bef20a464a429d9a9174,0.0332,0.0332,0,17,17,83,1,sixeight,,,,,,,,,,,,,,,,,,,,,,,,,,,,,,,,,,,,,,,,,,,,,,,,,,,,,,,,,,,,,,,,,,,,,,,,,,,,,,,,,,,,,,,,,,,,,,,,,,,,,,,,,,,,,,,,,,,,,,,,,,,,,,,,,,,,,,,,,
,,5ff265688f62107122f931f2,2024-02-21_22h03.34.959,kallum_motion_pilot,2023.2.2,Linux x86_64,59.84082341,5ff265688f62107122f931f2,65d6bb0e977760de756971f7,65d6bef20a464a429d9a9174,0.0333,0.0334,0,18,18,75,1,twofour,,,,,,,,,,,,,,,,,,,,,,,,,,,,,,,,,,,,,,,,,,,,,,,,,,,,,,,,,,,,,,,,,,,,,,,,,,,,,,,,,,,,,,,,,,,,,,,,,,,,,,,,,,,,,,,,,,,,,,,,,,,,,,,,,,,,,,,,,
,,5ff265688f62107122f931f2,2024-02-21_22h03.34.959,kallum_motion_pilot,2023.2.2,Linux x86_64,59.84082341,5ff265688f62107122f931f2,65d6bb0e977760de756971f7,65d6bef20a464a429d9a9174,0.0335,0.0335,0,19,19,138,1,sixfive,,,,,,,,,,,,,,,,,,,,,,,,,,,,,,,,,,,,,,,,,,,,,,,,,,,,,,,,,,,,,,,,,,,,,,,,,,,,,,,,,,,,,,,,,,,,,,,,,,,,,,,,,,,,,,,,,,,,,,,,,,,,,,,,,,,,,,,,,
,,5ff265688f62107122f931f2,2024-02-21_22h03.34.959,kallum_motion_pilot,2023.2.2,Linux x86_64,59.84082341,5ff265688f62107122f931f2,65d6bb0e977760de756971f7,65d6bef20a464a429d9a9174,0.0336,0.0336,0,20,20,2,1,twoone,,,,,,,,,,,,,,,,,,,,,,,,,,,,,,,,,,,,,,,,,,,,,,,,,,,,,,,,,,,,,,,,,,,,,,,,,,,,,,,,,,,,,,,,,,,,,,,,,,,,,,,,,,,,,,,,,,,,,,,,,,,,,,,,,,,,,,,,,
,,5ff265688f62107122f931f2,2024-02-21_22h03.34.959,kallum_motion_pilot,2023.2.2,Linux x86_64,59.84082341,5ff265688f62107122f931f2,65d6bb0e977760de756971f7,65d6bef20a464a429d9a9174,0.0338,0.0338,0,21,21,24,1,onetwo,,,,,,,,,,,,,,,,,,,,,,,,,,,,,,,,,,,,,,,,,,,,,,,,,,,,,,,,,,,,,,,,,,,,,,,,,,,,,,,,,,,,,,,,,,,,,,,,,,,,,,,,,,,,,,,,,,,,,,,,,,,,,,,,,,,,,,,,,
,,5ff265688f62107122f931f2,2024-02-21_22h03.34.959,kallum_motion_pilot,2023.2.2,Linux x86_64,59.84082341,5ff265688f62107122f931f2,65d6bb0e977760de756971f7,65d6bef20a464a429d9a9174,0.0339,0.034,0,22,22,35,1,twofour,,,,,,,,,,,,,,,,,,,,,,,,,,,,,,,,,,,,,,,,,,,,,,,,,,,,,,,,,,,,,,,,,,,,,,,,,,,,,,,,,,,,,,,,,,,,,,,,,,,,,,,,,,,,,,,,,,,,,,,,,,,,,,,,,,,,,,,,,
,,5ff265688f62107122f931f2,2024-02-21_22h03.34.959,kallum_motion_pilot,2023.2.2,Linux x86_64,59.84082341,5ff265688f62107122f931f2,65d6bb0e977760de756971f7,65d6bef20a464a429d9a9174,0.0341,0.0341,0,23,23,150,1,eightsix,,,,,,,,,,,,,,,,,,,,,,,,,,,,,,,,,,,,,,,,,,,,,,,,,,,,,,,,,,,,,,,,,,,,,,,,,,,,,,,,,,,,,,,,,,,,,,,,,,,,,,,,,,,,,,,,,,,,,,,,,,,,,,,,,,,,,,,,,
,,5ff265688f62107122f931f2,2024-02-21_22h03.34.959,kallum_motion_pilot,2023.2.2,Linux x86_64,59.84082341,5ff265688f62107122f931f2,65d6bb0e977760de756971f7,65d6bef20a464a429d9a9174,0.0342,0.0344,0,24,24,72,1,onetwo,,,,,,,,,,,,,,,,,,,,,,,,,,,,,,,,,,,,,,,,,,,,,,,,,,,,,,,,,,,,,,,,,,,,,,,,,,,,,,,,,,,,,,,,,,,,,,,,,,,,,,,,,,,,,,,,,,,,,,,,,,,,,,,,,,,,,,,,,
,,5ff265688f62107122f931f2,2024-02-21_22h03.34.959,kallum_motion_pilot,2023.2.2,Linux x86_64,59.84082341,5ff265688f62107122f931f2,65d6bb0e977760de756971f7,65d6bef20a464a429d9a9174,0.0344,0.0344,0,25,25,89,1,fiveseven,,,,,,,,,,,,,,,,,,,,,,,,,,,,,,,,,,,,,,,,,,,,,,,,,,,,,,,,,,,,,,,,,,,,,,,,,,,,,,,,,,,,,,,,,,,,,,,,,,,,,,,,,,,,,,,,,,,,,,,,,,,,,,,,,,,,,,,,,
,,5ff265688f62107122f931f2,2024-02-21_22h03.34.959,kallum_motion_pilot,2023.2.2,Linux x86_64,59.84082341,5ff265688f62107122f931f2,65d6bb0e977760de756971f7,65d6bef20a464a429d9a9174,0.0346,0.0346,0,26,26,120,1,fivesix,,,,,,,,,,,,,,,,,,,,,,,,,,,,,,,,,,,,,,,,,,,,,,,,,,,,,,,,,,,,,,,,,,,,,,,,,,,,,,,,,,,,,,,,,,,,,,,,,,,,,,,,,,,,,,,,,,,,,,,,,,,,,,,,,,,,,,,,,
,,5ff265688f62107122f931f2,2024-02-21_22h03.34.959,kallum_motion_pilot,2023.2.2,Linux x86_64,59.84082341,5ff265688f62107122f931f2,65d6bb0e977760de756971f7,65d6bef20a464a429d9a9174,0.0347,0.0348,0,27,27,146,1,sixfive,,,,,,,,,,,,,,,,,,,,,,,,,,,,,,,,,,,,,,,,,,,,,,,,,,,,,,,,,,,,,,,,,,,,,,,,,,,,,,,,,,,,,,,,,,,,,,,,,,,,,,,,,,,,,,,,,,,,,,,,,,,,,,,,,,,,,,,,,
,,5ff265688f62107122f931f2,2024-02-21_22h03.34.959,kallum_motion_pilot,2023.2.2,Linux x86_64,59.84082341,5ff265688f62107122f931f2,65d6bb0e977760de756971f7,65d6bef20a464a429d9a9174,0.0349,0.0349,0,28,28,82,1,sixfive,,,,,,,,,,,,,,,,,,,,,,,,,,,,,,,,,,,,,,,,,,,,,,,,,,,,,,,,,,,,,,,,,,,,,,,,,,,,,,,,,,,,,,,,,,,,,,,,,,,,,,,,,,,,,,,,,,,,,,,,,,,,,,,,,,,,,,,,,
,,5ff265688f62107122f931f2,2024-02-21_22h03.34.959,kallum_motion_pilot,2023.2.2,Linux x86_64,59.84082341,5ff265688f62107122f931f2,65d6bb0e977760de756971f7,65d6bef20a464a429d9a9174,0.0351,0.0351,0,29,29,134,1,eightsix,,,,,,,,,,,,,,,,,,,,,,,,,,,,,,,,,,,,,,,,,,,,,,,,,,,,,,,,,,,,,,,,,,,,,,,,,,,,,,,,,,,,,,,,,,,,,,,,,,,,,,,,,,,,,,,,,,,,,,,,,,,,,,,,,,,,,,,,,
,,5ff265688f62107122f931f2,2024-02-21_22h03.34.959,kallum_motion_pilot,2023.2.2,Linux x86_64,59.84082341,5ff265688f62107122f931f2,65d6bb0e977760de756971f7,65d6bef20a464a429d9a9174,0.0352,0.0353,0,30,30,128,1,fivesix,,,,,,,,,,,,,,,,,,,,,,,,,,,,,,,,,,,,,,,,,,,,,,,,,,,,,,,,,,,,,,,,,,,,,,,,,,,,,,,,,,,,,,,,,,,,,,,,,,,,,,,,,,,,,,,,,,,,,,,,,,,,,,,,,,,,,,,,,
,,5ff265688f62107122f931f2,2024-02-21_22h03.34.959,kallum_motion_pilot,2023.2.2,Linux x86_64,59.84082341,5ff265688f62107122f931f2,65d6bb0e977760de756971f7,65d6bef20a464a429d9a9174,0.0354,0.0355,0,31,31,42,1,twoone,,,,,,,,,,,,,,,,,,,,,,,,,,,,,,,,,,,,,,,,,,,,,,,,,,,,,,,,,,,,,,,,,,,,,,,,,,,,,,,,,,,,,,,,,,,,,,,,,,,,,,,,,,,,,,,,,,,,,,,,,,,,,,,,,,,,,,,,,
,,5ff265688f62107122f931f2,2024-02-21_22h03.34.959,kallum_motion_pilot,2023.2.2,Linux x86_64,59.84082341,5ff265688f62107122f931f2,65d6bb0e977760de756971f7,65d6bef20a464a429d9a9174,0.0355,0.0355,0,32,32,78,1,fourtwo,,,,,,,,,,,,,,,,,,,,,,,,,,,,,,,,,,,,,,,,,,,,,,,,,,,,,,,,,,,,,,,,,,,,,,,,,,,,,,,,,,,,,,,,,,,,,,,,,,,,,,,,,,,,,,,,,,,,,,,,,,,,,,,,,,,,,,,,,
,,5ff265688f62107122f931f2,2024-02-21_22h03.34.959,kallum_motion_pilot,2023.2.2,Linux x86_64,59.84082341,5ff265688f62107122f931f2,65d6bb0e977760de756971f7,65d6bef20a464a429d9a9174,0.0357,0.0357,0,33,33,43,1,twofour,,,,,,,,,,,,,,,,,,,,,,,,,,,,,,,,,,,,,,,,,,,,,,,,,,,,,,,,,,,,,,,,,,,,,,,,,,,,,,,,,,,,,,,,,,,,,,,,,,,,,,,,,,,,,,,,,,,,,,,,,,,,,,,,,,,,,,,,,
,,5ff265688f62107122f931f2,2024-02-21_22h03.34.959,kallum_motion_pilot,2023.2.2,Linux x86_64,59.84082341,5ff265688f62107122f931f2,65d6bb0e977760de756971f7,65d6bef20a464a429d9a9174,0.0358,0.0359,0,34,34,113,1,fiveseven,,,,,,,,,,,,,,,,,,,,,,,,,,,,,,,,,,,,,,,,,,,,,,,,,,,,,,,,,,,,,,,,,,,,,,,,,,,,,,,,,,,,,,,,,,,,,,,,,,,,,,,,,,,,,,,,,,,,,,,,,,,,,,,,,,,,,,,,,
,,5ff265688f62107122f931f2,2024-02-21_22h03.34.959,kallum_motion_pilot,2023.2.2,Linux x86_64,59.84082341,5ff265688f62107122f931f2,65d6bb0e977760de756971f7,65d6bef20a464a429d9a9174,0.0372,0.0372,0,35,35,159,1,eightseven,,,,,,,,,,,,,,,,,,,,,,,,,,,,,,,,,,,,,,,,,,,,,,,,,,,,,,,,,,,,,,,,,,,,,,,,,,,,,,,,,,,,,,,,,,,,,,,,,,,,,,,,,,,,,,,,,,,,,,,,,,,,,,,,,,,,,,,,,
,,5ff265688f62107122f931f2,2024-02-21_22h03.34.959,kallum_motion_pilot,2023.2.2,Linux x86_64,59.84082341,5ff265688f62107122f931f2,65d6bb0e977760de756971f7,65d6bef20a464a429d9a9174,0.0374,0.0374,0,36,36,64,1,onetwo,,,,,,,,,,,,,,,,,,,,,,,,,,,,,,,,,,,,,,,,,,,,,,,,,,,,,,,,,,,,,,,,,,,,,,,,,,,,,,,,,,,,,,,,,,,,,,,,,,,,,,,,,,,,,,,,,,,,,,,,,,,,,,,,,,,,,,,,,
,,5ff265688f62107122f931f2,2024-02-21_22h03.34.959,kallum_motion_pilot,2023.2.2,Linux x86_64,59.84082341,5ff265688f62107122f931f2,65d6bb0e977760de756971f7,65d6bef20a464a429d9a9174,0.0376,0.0376,0,37,37,130,1,sixfive,,,,,,,,,,,,,,,,,,,,,,,,,,,,,,,,,,,,,,,,,,,,,,,,,,,,,,,,,,,,,,,,,,,,,,,,,,,,,,,,,,,,,,,,,,,,,,,,,,,,,,,,,,,,,,,,,,,,,,,,,,,,,,,,,,,,,,,,,
,,5ff265688f62107122f931f2,2024-02-21_22h03.34.959,kallum_motion_pilot,2023.2.2,Linux x86_64,59.84082341,5ff265688f62107122f931f2,65d6bb0e977760de756971f7,65d6bef20a464a429d9a9174,0.0377,0.0377,0,38,38,90,1,sixfive,,,,,,,,,,,,,,,,,,,,,,,,,,,,,,,,,,,,,,,,,,,,,,,,,,,,,,,,,,,,,,,,,,,,,,,,,,,,,,,,,,,,,,,,,,,,,,,,,,,,,,,,,,,,,,,,,,,,,,,,,,,,,,,,,,,,,,,,,
,,5ff265688f62107122f931f2,2024-02-21_22h03.34.959,kallum_motion_pilot,2023.2.2,Linux x86_64,59.84082341,5ff265688f62107122f931f2,65d6bb0e977760de756971f7,65d6bef20a464a429d9a9174,0.0378,0.0379,0,39,39,11,1,twofour,,,,,,,,,,,,,,,,,,,,,,,,,,,,,,,,,,,,,,,,,,,,,,,,,,,,,,,,,,,,,,,,,,,,,,,,,,,,,,,,,,,,,,,,,,,,,,,,,,,,,,,,,,,,,,,,,,,,,,,,,,,,,,,,,,,,,,,,,
,,5ff265688f62107122f931f2,2024-02-21_22h03.34.959,kallum_motion_pilot,2023.2.2,Linux x86_64,59.84082341,5ff265688f62107122f931f2,65d6bb0e977760de756971f7,65d6bef20a464a429d9a9174,0.038,0.0381,0,40,40,92,1,sevenfive,,,,,,,,,,,,,,,,,,,,,,,,,,,,,,,,,,,,,,,,,,,,,,,,,,,,,,,,,,,,,,,,,,,,,,,,,,,,,,,,,,,,,,,,,,,,,,,,,,,,,,,,,,,,,,,,,,,,,,,,,,,,,,,,,,,,,,,,,
,,5ff265688f62107122f931f2,2024-02-21_22h03.34.959,kallum_motion_pilot,2023.2.2,Linux x86_64,59.84082341,5ff265688f62107122f931f2,65d6bb0e977760de756971f7,65d6bef20a464a429d9a9174,0.0381,0.0382,0,41,41,69,1,threefour,,,,,,,,,,,,,,,,,,,,,,,,,,,,,,,,,,,,,,,,,,,,,,,,,,,,,,,,,,,,,,,,,,,,,,,,,,,,,,,,,,,,,,,,,,,,,,,,,,,,,,,,,,,,,,,,,,,,,,,,,,,,,,,,,,,,,,,,,
,,5ff265688f62107122f931f2,2024-02-21_22h03.34.959,kallum_motion_pilot,2023.2.2,Linux x86_64,59.84082341,5ff265688f62107122f931f2,65d6bb0e977760de756971f7,65d6bef20a464a429d9a9174,0.0383,0.0384,0,42,42,101,1,seveneight,,,,,,,,,,,,,,,,,,,,,,,,,,,,,,,,,,,,,,,,,,,,,,,,,,,,,,,,,,,,,,,,,,,,,,,,,,,,,,,,,,,,,,,,,,,,,,,,,,,,,,,,,,,,,,,,,,,,,,,,,,,,,,,,,,,,,,,,,
,,5ff265688f62107122f931f2,2024-02-21_22h03.34.959,kallum_motion_pilot,2023.2.2,Linux x86_64,59.84082341,5ff265688f62107122f931f2,65d6bb0e977760de756971f7,65d6bef20a464a429d9a9174,0.0385,0.0385,0,43,43,145,1,fiveseven,,,,,,,,,,,,,,,,,,,,,,,,,,,,,,,,,,,,,,,,,,,,,,,,,,,,,,,,,,,,,,,,,,,,,,,,,,,,,,,,,,,,,,,,,,,,,,,,,,,,,,,,,,,,,,,,,,,,,,,,,,,,,,,,,,,,,,,,,
,,5ff265688f62107122f931f2,2024-02-21_22h03.34.959,kallum_motion_pilot,2023.2.2,Linux x86_64,59.84082341,5ff265688f62107122f931f2,65d6bb0e977760de756971f7,65d6bef20a464a429d9a9174,0.0386,0.0387,0,44,44,19,1,twofour,,,,,,,,,,,,,,,,,,,,,,,,,,,,,,,,,,,,,,,,,,,,,,,,,,,,,,,,,,,,,,,,,,,,,,,,,,,,,,,,,,,,,,,,,,,,,,,,,,,,,,,,,,,,,,,,,,,,,,,,,,,,,,,,,,,,,,,,,
,,5ff265688f62107122f931f2,2024-02-21_22h03.34.959,kallum_motion_pilot,2023.2.2,Linux x86_64,59.84082341,5ff265688f62107122f931f2,65d6bb0e977760de756971f7,65d6bef20a464a429d9a9174,0.0388,0.0389,0,45,45,54,1,fourtwo,,,,,,,,,,,,,,,,,,,,,,,,,,,,,,,,,,,,,,,,,,,,,,,,,,,,,,,,,,,,,,,,,,,,,,,,,,,,,,,,,,,,,,,,,,,,,,,,,,,,,,,,,,,,,,,,,,,,,,,,,,,,,,,,,,,,,,,,,
,,5ff265688f62107122f931f2,2024-02-21_22h03.34.959,kallum_motion_pilot,2023.2.2,Linux x86_64,59.84082341,5ff265688f62107122f931f2,65d6bb0e977760de756971f7,65d6bef20a464a429d9a9174,0.039,0.039,0,46,46,112,1,fivesix,,,,,,,,,,,,,,,,,,,,,,,,,,,,,,,,,,,,,,,,,,,,,,,,,,,,,,,,,,,,,,,,,,,,,,,,,,,,,,,,,,,,,,,,,,,,,,,,,,,,,,,,,,,,,,,,,,,,,,,,,,,,,,,,,,,,,,,,,
,,5ff265688f62107122f931f2,2024-02-21_22h03.34.959,kallum_motion_pilot,2023.2.2,Linux x86_64,59.84082341,5ff265688f62107122f931f2,65d6bb0e977760de756971f7,65d6bef20a464a429d9a9174,0.0391,0.0392,0,47,47,158,1,eightsix,,,,,,,,,,,,,,,,,,,,,,,,,,,,,,,,,,,,,,,,,,,,,,,,,,,,,,,,,,,,,,,,,,,,,,,,,,,,,,,,,,,,,,,,,,,,,,,,,,,,,,,,,,,,,,,,,,,,,,,,,,,,,,,,,,,,,,,,,
,,5ff265688f62107122f931f2,2024-02-21_22h03.34.959,kallum_motion_pilot,2023.2.2,Linux x86_64,59.84082341,5ff265688f62107122f931f2,65d6bb0e977760de756971f7,65d6bef20a464a429d9a9174,0.0393,0.0393,0,48,48,111,1,eightseven,,,,,,,,,,,,,,,,,,,,,,,,,,,,,,,,,,,,,,,,,,,,,,,,,,,,,,,,,,,,,,,,,,,,,,,,,,,,,,,,,,,,,,,,,,,,,,,,,,,,,,,,,,,,,,,,,,,,,,,,,,,,,,,,,,,,,,,,,
,,5ff265688f62107122f931f2,2024-02-21_22h03.34.959,kallum_motion_pilot,2023.2.2,Linux x86_64,59.84082341,5ff265688f62107122f931f2,65d6bb0e977760de756971f7,65d6bef20a464a429d9a9174,0.0395,0.0396,0,49,49,3,1,twofour,,,,,,,,,,,,,,,,,,,,,,,,,,,,,,,,,,,,,,,,,,,,,,,,,,,,,,,,,,,,,,,,,,,,,,,,,,,,,,,,,,,,,,,,,,,,,,,,,,,,,,,,,,,,,,,,,,,,,,,,,,,,,,,,,,,,,,,,,
,,5ff265688f62107122f931f2,2024-02-21_22h03.34.959,kallum_motion_pilot,2023.2.2,Linux x86_64,59.84082341,5ff265688f62107122f931f2,65d6bb0e977760de756971f7,65d6bef20a464a429d9a9174,0.0397,0.0397,0,50,50,25,1,onethree,,,,,,,,,,,,,,,,,,,,,,,,,,,,,,,,,,,,,,,,,,,,,,,,,,,,,,,,,,,,,,,,,,,,,,,,,,,,,,,,,,,,,,,,,,,,,,,,,,,,,,,,,,,,,,,,,,,,,,,,,,,,,,,,,,,,,,,,,
,,5ff265688f62107122f931f2,2024-02-21_22h03.34.959,kallum_motion_pilot,2023.2.2,Linux x86_64,59.84082341,5ff265688f62107122f931f2,65d6bb0e977760de756971f7,65d6bef20a464a429d9a9174,0.0398,0.0398,0,51,51,61,1,threefour,,,,,,,,,,,,,,,,,,,,,,,,,,,,,,,,,,,,,,,,,,,,,,,,,,,,,,,,,,,,,,,,,,,,,,,,,,,,,,,,,,,,,,,,,,,,,,,,,,,,,,,,,,,,,,,,,,,,,,,,,,,,,,,,,,,,,,,,,
,,5ff265688f62107122f931f2,2024-02-21_22h03.34.959,kallum_motion_pilot,2023.2.2,Linux x86_64,59.84082341,5ff265688f62107122f931f2,65d6bb0e977760de756971f7,65d6bef20a464a429d9a9174,0.04,0.04,0,52,52,115,1,sixeight,,,,,,,,,,,,,,,,,,,,,,,,,,,,,,,,,,,,,,,,,,,,,,,,,,,,,,,,,,,,,,,,,,,,,,,,,,,,,,,,,,,,,,,,,,,,,,,,,,,,,,,,,,,,,,,,,,,,,,,,,,,,,,,,,,,,,,,,,
,,5ff265688f62107122f931f2,2024-02-21_22h03.34.959,kallum_motion_pilot,2023.2.2,Linux x86_64,59.84082341,5ff265688f62107122f931f2,65d6bb0e977760de756971f7,65d6bef20a464a429d9a9174,0.0402,0.0402,0,53,53,63,1,fourthree,,,,,,,,,,,,,,,,,,,,,,,,,,,,,,,,,,,,,,,,,,,,,,,,,,,,,,,,,,,,,,,,,,,,,,,,,,,,,,,,,,,,,,,,,,,,,,,,,,,,,,,,,,,,,,,,,,,,,,,,,,,,,,,,,,,,,,,,,
,,5ff265688f62107122f931f2,2024-02-21_22h03.34.959,kallum_motion_pilot,2023.2.2,Linux x86_64,59.84082341,5ff265688f62107122f931f2,65d6bb0e977760de756971f7,65d6bef20a464a429d9a9174,0.0403,0.0404,0,54,54,27,1,twofour,,,,,,,,,,,,,,,,,,,,,,,,,,,,,,,,,,,,,,,,,,,,,,,,,,,,,,,,,,,,,,,,,,,,,,,,,,,,,,,,,,,,,,,,,,,,,,,,,,,,,,,,,,,,,,,,,,,,,,,,,,,,,,,,,,,,,,,,,
,,5ff265688f62107122f931f2,2024-02-21_22h03.34.959,kallum_motion_pilot,2023.2.2,Linux x86_64,59.84082341,5ff265688f62107122f931f2,65d6bb0e977760de756971f7,65d6bef20a464a429d9a9174,0.0404,0.0405,0,55,55,129,1,fiveseven,,,,,,,,,,,,,,,,,,,,,,,,,,,,,,,,,,,,,,,,,,,,,,,,,,,,,,,,,,,,,,,,,,,,,,,,,,,,,,,,,,,,,,,,,,,,,,,,,,,,,,,,,,,,,,,,,,,,,,,,,,,,,,,,,,,,,,,,,
,,5ff265688f62107122f931f2,2024-02-21_22h03.34.959,kallum_motion_pilot,2023.2.2,Linux x86_64,59.84082341,5ff265688f62107122f931f2,65d6bb0e977760de756971f7,65d6bef20a464a429d9a9174,0.0406,0.0406,0,56,56,4,1,threeone,,,,,,,,,,,,,,,,,,,,,,,,,,,,,,,,,,,,,,,,,,,,,,,,,,,,,,,,,,,,,,,,,,,,,,,,,,,,,,,,,,,,,,,,,,,,,,,,,,,,,,,,,,,,,,,,,,,,,,,,,,,,,,,,,,,,,,,,,
,,5ff265688f62107122f931f2,2024-02-21_22h03.34.959,kallum_motion_pilot,2023.2.2,Linux x86_64,59.84082341,5ff265688f62107122f931f2,65d6bb0e977760de756971f7,65d6bef20a464a429d9a9174,0.0408,0.0409,0,57,57,131,1,sixeight,,,,,,,,,,,,,,,,,,,,,,,,,,,,,,,,,,,,,,,,,,,,,,,,,,,,,,,,,,,,,,,,,,,,,,,,,,,,,,,,,,,,,,,,,,,,,,,,,,,,,,,,,,,,,,,,,,,,,,,,,,,,,,,,,,,,,,,,,
,,5ff265688f62107122f931f2,2024-02-21_22h03.34.959,kallum_motion_pilot,2023.2.2,Linux x86_64,59.84082341,5ff265688f62107122f931f2,65d6bb0e977760de756971f7,65d6bef20a464a429d9a9174,0.0409,0.041,0,58,58,71,1,fourthree,,,,,,,,,,,,,,,,,,,,,,,,,,,,,,,,,,,,,,,,,,,,,,,,,,,,,,,,,,,,,,,,,,,,,,,,,,,,,,,,,,,,,,,,,,,,,,,,,,,,,,,,,,,,,,,,,,,,,,,,,,,,,,,,,,,,,,,,,
,,5ff265688f62107122f931f2,2024-02-21_22h03.34.959,kallum_motion_pilot,2023.2.2,Linux x86_64,59.84082341,5ff265688f62107122f931f2,65d6bb0e977760de756971f7,65d6bef20a464a429d9a9174,0.0412,0.0412,0,59,59,85,1,seveneight,,,,,,,,,,,,,,,,,,,,,,,,,,,,,,,,,,,,,,,,,,,,,,,,,,,,,,,,,,,,,,,,,,,,,,,,,,,,,,,,,,,,,,,,,,,,,,,,,,,,,,,,,,,,,,,,,,,,,,,,,,,,,,,,,,,,,,,,,
,,5ff265688f62107122f931f2,2024-02-21_22h03.34.959,kallum_motion_pilot,2023.2.2,Linux x86_64,59.84082341,5ff265688f62107122f931f2,65d6bb0e977760de756971f7,65d6bef20a464a429d9a9174,0.0413,0.0413,0,60,60,46,1,fourtwo,,,,,,,,,,,,,,,,,,,,,,,,,,,,,,,,,,,,,,,,,,,,,,,,,,,,,,,,,,,,,,,,,,,,,,,,,,,,,,,,,,,,,,,,,,,,,,,,,,,,,,,,,,,,,,,,,,,,,,,,,,,,,,,,,,,,,,,,,
,,5ff265688f62107122f931f2,2024-02-21_22h03.34.959,kallum_motion_pilot,2023.2.2,Linux x86_64,59.84082341,5ff265688f62107122f931f2,65d6bb0e977760de756971f7,65d6bef20a464a429d9a9174,0.0415,0.0415,0,61,61,81,1,fiveseven,,,,,,,,,,,,,,,,,,,,,,,,,,,,,,,,,,,,,,,,,,,,,,,,,,,,,,,,,,,,,,,,,,,,,,,,,,,,,,,,,,,,,,,,,,,,,,,,,,,,,,,,,,,,,,,,,,,,,,,,,,,,,,,,,,,,,,,,,
,,5ff265688f62107122f931f2,2024-02-21_22h03.34.959,kallum_motion_pilot,2023.2.2,Linux x86_64,59.84082341,5ff265688f62107122f931f2,65d6bb0e977760de756971f7,65d6bef20a464a429d9a9174,0.0416,0.0417,0,62,62,28,1,threeone,,,,,,,,,,,,,,,,,,,,,,,,,,,,,,,,,,,,,,,,,,,,,,,,,,,,,,,,,,,,,,,,,,,,,,,,,,,,,,,,,,,,,,,,,,,,,,,,,,,,,,,,,,,,,,,,,,,,,,,,,,,,,,,,,,,,,,,,,
,,5ff265688f62107122f931f2,2024-02-21_22h03.34.959,kallum_motion_pilot,2023.2.2,Linux x86_64,59.84082341,5ff265688f62107122f931f2,65d6bb0e977760de756971f7,65d6bef20a464a429d9a9174,0.0418,0.0419,0,63,63,26,1,twoone,,,,,,,,,,,,,,,,,,,,,,,,,,,,,,,,,,,,,,,,,,,,,,,,,,,,,,,,,,,,,,,,,,,,,,,,,,,,,,,,,,,,,,,,,,,,,,,,,,,,,,,,,,,,,,,,,,,,,,,,,,,,,,,,,,,,,,,,,
,,5ff265688f62107122f931f2,2024-02-21_22h03.34.959,kallum_motion_pilot,2023.2.2,Linux x86_64,59.84082341,5ff265688f62107122f931f2,65d6bb0e977760de756971f7,65d6bef20a464a429d9a9174,0.042,0.042,0,64,64,157,1,seveneight,,,,,,,,,,,,,,,,,,,,,,,,,,,,,,,,,,,,,,,,,,,,,,,,,,,,,,,,,,,,,,,,,,,,,,,,,,,,,,,,,,,,,,,,,,,,,,,,,,,,,,,,,,,,,,,,,,,,,,,,,,,,,,,,,,,,,,,,,
,,5ff265688f62107122f931f2,2024-02-21_22h03.34.959,kallum_motion_pilot,2023.2.2,Linux x86_64,59.84082341,5ff265688f62107122f931f2,65d6bb0e977760de756971f7,65d6bef20a464a429d9a9174,0.0422,0.0423,0,65,65,50,1,twoone,,,,,,,,,,,,,,,,,,,,,,,,,,,,,,,,,,,,,,,,,,,,,,,,,,,,,,,,,,,,,,,,,,,,,,,,,,,,,,,,,,,,,,,,,,,,,,,,,,,,,,,,,,,,,,,,,,,,,,,,,,,,,,,,,,,,,,,,,
,,5ff265688f62107122f931f2,2024-02-21_22h03.34.959,kallum_motion_pilot,2023.2.2,Linux x86_64,59.84082341,5ff265688f62107122f931f2,65d6bb0e977760de756971f7,65d6bef20a464a429d9a9174,0.0423,0.0424,0,66,66,39,1,fourthree,,,,,,,,,,,,,,,,,,,,,,,,,,,,,,,,,,,,,,,,,,,,,,,,,,,,,,,,,,,,,,,,,,,,,,,,,,,,,,,,,,,,,,,,,,,,,,,,,,,,,,,,,,,,,,,,,,,,,,,,,,,,,,,,,,,,,,,,,
,,5ff265688f62107122f931f2,2024-02-21_22h03.34.959,kallum_motion_pilot,2023.2.2,Linux x86_64,59.84082341,5ff265688f62107122f931f2,65d6bb0e977760de756971f7,65d6bef20a464a429d9a9174,0.0426,0.0426,0,67,67,117,1,seveneight,,,,,,,,,,,,,,,,,,,,,,,,,,,,,,,,,,,,,,,,,,,,,,,,,,,,,,,,,,,,,,,,,,,,,,,,,,,,,,,,,,,,,,,,,,,,,,,,,,,,,,,,,,,,,,,,,,,,,,,,,,,,,,,,,,,,,,,,,
,,5ff265688f62107122f931f2,2024-02-21_22h03.34.959,kallum_motion_pilot,2023.2.2,Linux x86_64,59.84082341,5ff265688f62107122f931f2,65d6bb0e977760de756971f7,65d6bef20a464a429d9a9174,0.0427,0.0427,0,68,68,16,1,onetwo,,,,,,,,,,,,,,,,,,,,,,,,,,,,,,,,,,,,,,,,,,,,,,,,,,,,,,,,,,,,,,,,,,,,,,,,,,,,,,,,,,,,,,,,,,,,,,,,,,,,,,,,,,,,,,,,,,,,,,,,,,,,,,,,,,,,,,,,,
,,5ff265688f62107122f931f2,2024-02-21_22h03.34.959,kallum_motion_pilot,2023.2.2,Linux x86_64,59.84082341,5ff265688f62107122f931f2,65d6bb0e977760de756971f7,65d6bef20a464a429d9a9174,0.0429,0.043,0,69,69,136,1,fivesix,,,,,,,,,,,,,,,,,,,,,,,,,,,,,,,,,,,,,,,,,,,,,,,,,,,,,,,,,,,,,,,,,,,,,,,,,,,,,,,,,,,,,,,,,,,,,,,,,,,,,,,,,,,,,,,,,,,,,,,,,,,,,,,,,,,,,,,,,
,,5ff265688f62107122f931f2,2024-02-21_22h03.34.959,kallum_motion_pilot,2023.2.2,Linux x86_64,59.84082341,5ff265688f62107122f931f2,65d6bb0e977760de756971f7,65d6bef20a464a429d9a9174,0.0431,0.0431,0,70,70,38,1,fourtwo,,,,,,,,,,,,,,,,,,,,,,,,,,,,,,,,,,,,,,,,,,,,,,,,,,,,,,,,,,,,,,,,,,,,,,,,,,,,,,,,,,,,,,,,,,,,,,,,,,,,,,,,,,,,,,,,,,,,,,,,,,,,,,,,,,,,,,,,,
,,5ff265688f62107122f931f2,2024-02-21_22h03.34.959,kallum_motion_pilot,2023.2.2,Linux x86_64,59.84082341,5ff265688f62107122f931f2,65d6bb0e977760de756971f7,65d6bef20a464a429d9a9174,0.0432,0.0433,0,71,71,140,1,sevenfive,,,,,,,,,,,,,,,,,,,,,,,,,,,,,,,,,,,,,,,,,,,,,,,,,,,,,,,,,,,,,,,,,,,,,,,,,,,,,,,,,,,,,,,,,,,,,,,,,,,,,,,,,,,,,,,,,,,,,,,,,,,,,,,,,,,,,,,,,
,,5ff265688f62107122f931f2,2024-02-21_22h03.34.959,kallum_motion_pilot,2023.2.2,Linux x86_64,59.84082341,5ff265688f62107122f931f2,65d6bb0e977760de756971f7,65d6bef20a464a429d9a9174,0.0435,0.0435,0,72,72,119,1,eightseven,,,,,,,,,,,,,,,,,,,,,,,,,,,,,,,,,,,,,,,,,,,,,,,,,,,,,,,,,,,,,,,,,,,,,,,,,,,,,,,,,,,,,,,,,,,,,,,,,,,,,,,,,,,,,,,,,,,,,,,,,,,,,,,,,,,,,,,,,
,,5ff265688f62107122f931f2,2024-02-21_22h03.34.959,kallum_motion_pilot,2023.2.2,Linux x86_64,59.84082341,5ff265688f62107122f931f2,65d6bb0e977760de756971f7,65d6bef20a464a429d9a9174,0.0436,0.0436,0,73,73,10,1,twoone,,,,,,,,,,,,,,,,,,,,,,,,,,,,,,,,,,,,,,,,,,,,,,,,,,,,,,,,,,,,,,,,,,,,,,,,,,,,,,,,,,,,,,,,,,,,,,,,,,,,,,,,,,,,,,,,,,,,,,,,,,,,,,,,,,,,,,,,,
,,5ff265688f62107122f931f2,2024-02-21_22h03.34.959,kallum_motion_pilot,2023.2.2,Linux x86_64,59.84082341,5ff265688f62107122f931f2,65d6bb0e977760de756971f7,65d6bef20a464a429d9a9174,0.0438,0.0438,0,74,74,21,1,threefour,,,,,,,,,,,,,,,,,,,,,,,,,,,,,,,,,,,,,,,,,,,,,,,,,,,,,,,,,,,,,,,,,,,,,,,,,,,,,,,,,,,,,,,,,,,,,,,,,,,,,,,,,,,,,,,,,,,,,,,,,,,,,,,,,,,,,,,,,
,,5ff265688f62107122f931f2,2024-02-21_22h03.34.959,kallum_motion_pilot,2023.2.2,Linux x86_64,59.84082341,5ff265688f62107122f931f2,65d6bb0e977760de756971f7,65d6bef20a464a429d9a9174,0.044,0.0441,0,75,75,96,1,fivesix,,,,,,,,,,,,,,,,,,,,,,,,,,,,,,,,,,,,,,,,,,,,,,,,,,,,,,,,,,,,,,,,,,,,,,,,,,,,,,,,,,,,,,,,,,,,,,,,,,,,,,,,,,,,,,,,,,,,,,,,,,,,,,,,,,,,,,,,,
,,5ff265688f62107122f931f2,2024-02-21_22h03.34.959,kallum_motion_pilot,2023.2.2,Linux x86_64,59.84082341,5ff265688f62107122f931f2,65d6bb0e977760de756971f7,65d6bef20a464a429d9a9174,0.0442,0.0442,0,76,76,123,1,sixeight,,,,,,,,,,,,,,,,,,,,,,,,,,,,,,,,,,,,,,,,,,,,,,,,,,,,,,,,,,,,,,,,,,,,,,,,,,,,,,,,,,,,,,,,,,,,,,,,,,,,,,,,,,,,,,,,,,,,,,,,,,,,,,,,,,,,,,,,,
,,5ff265688f62107122f931f2,2024-02-21_22h03.34.959,kallum_motion_pilot,2023.2.2,Linux x86_64,59.84082341,5ff265688f62107122f931f2,65d6bb0e977760de756971f7,65d6bef20a464a429d9a9174,0.0443,0.0444,0,77,77,13,1,threefour,,,,,,,,,,,,,,,,,,,,,,,,,,,,,,,,,,,,,,,,,,,,,,,,,,,,,,,,,,,,,,,,,,,,,,,,,,,,,,,,,,,,,,,,,,,,,,,,,,,,,,,,,,,,,,,,,,,,,,,,,,,,,,,,,,,,,,,,,
,,5ff265688f62107122f931f2,2024-02-21_22h03.34.959,kallum_motion_pilot,2023.2.2,Linux x86_64,59.84082341,5ff265688f62107122f931f2,65d6bb0e977760de756971f7,65d6bef20a464a429d9a9174,0.0445,0.0446,0,78,78,139,1,sixeight,,,,,,,,,,,,,,,,,,,,,,,,,,,,,,,,,,,,,,,,,,,,,,,,,,,,,,,,,,,,,,,,,,,,,,,,,,,,,,,,,,,,,,,,,,,,,,,,,,,,,,,,,,,,,,,,,,,,,,,,,,,,,,,,,,,,,,,,,
,,5ff265688f62107122f931f2,2024-02-21_22h03.34.959,kallum_motion_pilot,2023.2.2,Linux x86_64,59.84082341,5ff265688f62107122f931f2,65d6bb0e977760de756971f7,65d6bef20a464a429d9a9174,0.0447,0.0447,0,79,79,53,1,threefour,,,,,,,,,,,,,,,,,,,,,,,,,,,,,,,,,,,,,,,,,,,,,,,,,,,,,,,,,,,,,,,,,,,,,,,,,,,,,,,,,,,,,,,,,,,,,,,,,,,,,,,,,,,,,,,,,,,,,,,,,,,,,,,,,,,,,,,,,
,,5ff265688f62107122f931f2,2024-02-21_22h03.34.959,kallum_motion_pilot,2023.2.2,Linux x86_64,59.84082341,5ff265688f62107122f931f2,65d6bb0e977760de756971f7,65d6bef20a464a429d9a9174,0.0448,0.045,0,80,80,141,1,seveneight,,,,,,,,,,,,,,,,,,,,,,,,,,,,,,,,,,,,,,,,,,,,,,,,,,,,,,,,,,,,,,,,,,,,,,,,,,,,,,,,,,,,,,,,,,,,,,,,,,,,,,,,,,,,,,,,,,,,,,,,,,,,,,,,,,,,,,,,,
,,5ff265688f62107122f931f2,2024-02-21_22h03.34.959,kallum_motion_pilot,2023.2.2,Linux x86_64,59.84082341,5ff265688f62107122f931f2,65d6bb0e977760de756971f7,65d6bef20a464a429d9a9174,0.045,0.0451,0,81,81,68,1,threeone,,,,,,,,,,,,,,,,,,,,,,,,,,,,,,,,,,,,,,,,,,,,,,,,,,,,,,,,,,,,,,,,,,,,,,,,,,,,,,,,,,,,,,,,,,,,,,,,,,,,,,,,,,,,,,,,,,,,,,,,,,,,,,,,,,,,,,,,,
,,5ff265688f62107122f931f2,2024-02-21_22h03.34.959,kallum_motion_pilot,2023.2.2,Linux x86_64,59.84082341,5ff265688f62107122f931f2,65d6bb0e977760de756971f7,65d6bef20a464a429d9a9174,0.0452,0.0452,0,82,82,20,1,threeone,,,,,,,,,,,,,,,,,,,,,,,,,,,,,,,,,,,,,,,,,,,,,,,,,,,,,,,,,,,,,,,,,,,,,,,,,,,,,,,,,,,,,,,,,,,,,,,,,,,,,,,,,,,,,,,,,,,,,,,,,,,,,,,,,,,,,,,,,
,,5ff265688f62107122f931f2,2024-02-21_22h03.34.959,kallum_motion_pilot,2023.2.2,Linux x86_64,59.84082341,5ff265688f62107122f931f2,65d6bb0e977760de756971f7,65d6bef20a464a429d9a9174,0.0454,0.0454,0,83,83,22,1,fourtwo,,,,,,,,,,,,,,,,,,,,,,,,,,,,,,,,,,,,,,,,,,,,,,,,,,,,,,,,,,,,,,,,,,,,,,,,,,,,,,,,,,,,,,,,,,,,,,,,,,,,,,,,,,,,,,,,,,,,,,,,,,,,,,,,,,,,,,,,,
,,5ff265688f62107122f931f2,2024-02-21_22h03.34.959,kallum_motion_pilot,2023.2.2,Linux x86_64,59.84082341,5ff265688f62107122f931f2,65d6bb0e977760de756971f7,65d6bef20a464a429d9a9174,0.0456,0.0456,0,84,84,15,1,fourthree,,,,,,,,,,,,,,,,,,,,,,,,,,,,,,,,,,,,,,,,,,,,,,,,,,,,,,,,,,,,,,,,,,,,,,,,,,,,,,,,,,,,,,,,,,,,,,,,,,,,,,,,,,,,,,,,,,,,,,,,,,,,,,,,,,,,,,,,,
,,5ff265688f62107122f931f2,2024-02-21_22h03.34.959,kallum_motion_pilot,2023.2.2,Linux x86_64,59.84082341,5ff265688f62107122f931f2,65d6bb0e977760de756971f7,65d6bef20a464a429d9a9174,0.0457,0.0458,0,85,85,62,1,fourtwo,,,,,,,,,,,,,,,,,,,,,,,,,,,,,,,,,,,,,,,,,,,,,,,,,,,,,,,,,,,,,,,,,,,,,,,,,,,,,,,,,,,,,,,,,,,,,,,,,,,,,,,,,,,,,,,,,,,,,,,,,,,,,,,,,,,,,,,,,
,,5ff265688f62107122f931f2,2024-02-21_22h03.34.959,kallum_motion_pilot,2023.2.2,Linux x86_64,59.84082341,5ff265688f62107122f931f2,65d6bb0e977760de756971f7,65d6bef20a464a429d9a9174,0.0459,0.046,0,86,86,65,1,onethree,,,,,,,,,,,,,,,,,,,,,,,,,,,,,,,,,,,,,,,,,,,,,,,,,,,,,,,,,,,,,,,,,,,,,,,,,,,,,,,,,,,,,,,,,,,,,,,,,,,,,,,,,,,,,,,,,,,,,,,,,,,,,,,,,,,,,,,,,
,,5ff265688f62107122f931f2,2024-02-21_22h03.34.959,kallum_motion_pilot,2023.2.2,Linux x86_64,59.84082341,5ff265688f62107122f931f2,65d6bb0e977760de756971f7,65d6bef20a464a429d9a9174,0.046,0.0461,0,87,87,125,1,seveneight,,,,,,,,,,,,,,,,,,,,,,,,,,,,,,,,,,,,,,,,,,,,,,,,,,,,,,,,,,,,,,,,,,,,,,,,,,,,,,,,,,,,,,,,,,,,,,,,,,,,,,,,,,,,,,,,,,,,,,,,,,,,,,,,,,,,,,,,,
,,5ff265688f62107122f931f2,2024-02-21_22h03.34.959,kallum_motion_pilot,2023.2.2,Linux x86_64,59.84082341,5ff265688f62107122f931f2,65d6bb0e977760de756971f7,65d6bef20a464a429d9a9174,0.0462,0.0464,0,88,88,1,1,onethree,,,,,,,,,,,,,,,,,,,,,,,,,,,,,,,,,,,,,,,,,,,,,,,,,,,,,,,,,,,,,,,,,,,,,,,,,,,,,,,,,,,,,,,,,,,,,,,,,,,,,,,,,,,,,,,,,,,,,,,,,,,,,,,,,,,,,,,,,
,,5ff265688f62107122f931f2,2024-02-21_22h03.34.959,kallum_motion_pilot,2023.2.2,Linux x86_64,59.84082341,5ff265688f62107122f931f2,65d6bb0e977760de756971f7,65d6bef20a464a429d9a9174,0.0465,0.0465,0,89,89,29,1,threefour,,,,,,,,,,,,,,,,,,,,,,,,,,,,,,,,,,,,,,,,,,,,,,,,,,,,,,,,,,,,,,,,,,,,,,,,,,,,,,,,,,,,,,,,,,,,,,,,,,,,,,,,,,,,,,,,,,,,,,,,,,,,,,,,,,,,,,,,,
,,5ff265688f62107122f931f2,2024-02-21_22h03.34.959,kallum_motion_pilot,2023.2.2,Linux x86_64,59.84082341,5ff265688f62107122f931f2,65d6bb0e977760de756971f7,65d6bef20a464a429d9a9174,0.0466,0.0466,0,90,90,95,1,eightseven,,,,,,,,,,,,,,,,,,,,,,,,,,,,,,,,,,,,,,,,,,,,,,,,,,,,,,,,,,,,,,,,,,,,,,,,,,,,,,,,,,,,,,,,,,,,,,,,,,,,,,,,,,,,,,,,,,,,,,,,,,,,,,,,,,,,,,,,,
,,5ff265688f62107122f931f2,2024-02-21_22h03.34.959,kallum_motion_pilot,2023.2.2,Linux x86_64,59.84082341,5ff265688f62107122f931f2,65d6bb0e977760de756971f7,65d6bef20a464a429d9a9174,0.0467,0.0468,0,91,91,76,1,threeone,,,,,,,,,,,,,,,,,,,,,,,,,,,,,,,,,,,,,,,,,,,,,,,,,,,,,,,,,,,,,,,,,,,,,,,,,,,,,,,,,,,,,,,,,,,,,,,,,,,,,,,,,,,,,,,,,,,,,,,,,,,,,,,,,,,,,,,,,
,,5ff265688f62107122f931f2,2024-02-21_22h03.34.959,kallum_motion_pilot,2023.2.2,Linux x86_64,59.84082341,5ff265688f62107122f931f2,65d6bb0e977760de756971f7,65d6bef20a464a429d9a9174,0.047,0.047,0,92,92,77,1,threefour,,,,,,,,,,,,,,,,,,,,,,,,,,,,,,,,,,,,,,,,,,,,,,,,,,,,,,,,,,,,,,,,,,,,,,,,,,,,,,,,,,,,,,,,,,,,,,,,,,,,,,,,,,,,,,,,,,,,,,,,,,,,,,,,,,,,,,,,,
,,5ff265688f62107122f931f2,2024-02-21_22h03.34.959,kallum_motion_pilot,2023.2.2,Linux x86_64,59.84082341,5ff265688f62107122f931f2,65d6bb0e977760de756971f7,65d6bef20a464a429d9a9174,0.0471,0.0472,0,93,93,122,1,sixfive,,,,,,,,,,,,,,,,,,,,,,,,,,,,,,,,,,,,,,,,,,,,,,,,,,,,,,,,,,,,,,,,,,,,,,,,,,,,,,,,,,,,,,,,,,,,,,,,,,,,,,,,,,,,,,,,,,,,,,,,,,,,,,,,,,,,,,,,,
,,5ff265688f62107122f931f2,2024-02-21_22h03.34.959,kallum_motion_pilot,2023.2.2,Linux x86_64,59.84082341,5ff265688f62107122f931f2,65d6bb0e977760de756971f7,65d6bef20a464a429d9a9174,0.0473,0.0474,0,94,94,36,1,threeone,,,,,,,,,,,,,,,,,,,,,,,,,,,,,,,,,,,,,,,,,,,,,,,,,,,,,,,,,,,,,,,,,,,,,,,,,,,,,,,,,,,,,,,,,,,,,,,,,,,,,,,,,,,,,,,,,,,,,,,,,,,,,,,,,,,,,,,,,
,,5ff265688f62107122f931f2,2024-02-21_22h03.34.959,kallum_motion_pilot,2023.2.2,Linux x86_64,59.84082341,5ff265688f62107122f931f2,65d6bb0e977760de756971f7,65d6bef20a464a429d9a9174,0.0475,0.0476,0,95,95,48,1,onetwo,,,,,,,,,,,,,,,,,,,,,,,,,,,,,,,,,,,,,,,,,,,,,,,,,,,,,,,,,,,,,,,,,,,,,,,,,,,,,,,,,,,,,,,,,,,,,,,,,,,,,,,,,,,,,,,,,,,,,,,,,,,,,,,,,,,,,,,,,
,,5ff265688f62107122f931f2,2024-02-21_22h03.34.959,kallum_motion_pilot,2023.2.2,Linux x86_64,59.84082341,5ff265688f62107122f931f2,65d6bb0e977760de756971f7,65d6bef20a464a429d9a9174,0.0477,0.0477,0,96,96,161,1,fiveseven,,,,,,,,,,,,,,,,,,,,,,,,,,,,,,,,,,,,,,,,,,,,,,,,,,,,,,,,,,,,,,,,,,,,,,,,,,,,,,,,,,,,,,,,,,,,,,,,,,,,,,,,,,,,,,,,,,,,,,,,,,,,,,,,,,,,,,,,,
,,5ff265688f62107122f931f2,2024-02-21_22h03.34.959,kallum_motion_pilot,2023.2.2,Linux x86_64,59.84082341,5ff265688f62107122f931f2,65d6bb0e977760de756971f7,65d6bef20a464a429d9a9174,0.0479,0.0479,0,97,97,126,1,eightsix,,,,,,,,,,,,,,,,,,,,,,,,,,,,,,,,,,,,,,,,,,,,,,,,,,,,,,,,,,,,,,,,,,,,,,,,,,,,,,,,,,,,,,,,,,,,,,,,,,,,,,,,,,,,,,,,,,,,,,,,,,,,,,,,,,,,,,,,,
,,5ff265688f62107122f931f2,2024-02-21_22h03.34.959,kallum_motion_pilot,2023.2.2,Linux x86_64,59.84082341,5ff265688f62107122f931f2,65d6bb0e977760de756971f7,65d6bef20a464a429d9a9174,0.048,0.0481,0,98,98,17,1,onethree,,,,,,,,,,,,,,,,,,,,,,,,,,,,,,,,,,,,,,,,,,,,,,,,,,,,,,,,,,,,,,,,,,,,,,,,,,,,,,,,,,,,,,,,,,,,,,,,,,,,,,,,,,,,,,,,,,,,,,,,,,,,,,,,,,,,,,,,,
,,5ff265688f62107122f931f2,2024-02-21_22h03.34.959,kallum_motion_pilot,2023.2.2,Linux x86_64,59.84082341,5ff265688f62107122f931f2,65d6bb0e977760de756971f7,65d6bef20a464a429d9a9174,0.0482,0.0482,0,99,99,91,1,sixeight,,,,,,,,,,,,,,,,,,,,,,,,,,,,,,,,,,,,,,,,,,,,,,,,,,,,,,,,,,,,,,,,,,,,,,,,,,,,,,,,,,,,,,,,,,,,,,,,,,,,,,,,,,,,,,,,,,,,,,,,,,,,,,,,,,,,,,,,,
,,5ff265688f62107122f931f2,2024-02-21_22h03.34.959,kallum_motion_pilot,2023.2.2,Linux x86_64,59.84082341,5ff265688f62107122f931f2,65d6bb0e977760de756971f7,65d6bef20a464a429d9a9174,0.0484,0.0484,0,100,100,70,1,fourtwo,,,,,,,,,,,,,,,,,,,,,,,,,,,,,,,,,,,,,,,,,,,,,,,,,,,,,,,,,,,,,,,,,,,,,,,,,,,,,,,,,,,,,,,,,,,,,,,,,,,,,,,,,,,,,,,,,,,,,,,,,,,,,,,,,,,,,,,,,
,,5ff265688f62107122f931f2,2024-02-21_22h03.34.959,kallum_motion_pilot,2023.2.2,Linux x86_64,59.84082341,5ff265688f62107122f931f2,65d6bb0e977760de756971f7,65d6bef20a464a429d9a9174,0.0486,0.0486,0,101,101,88,1,fivesix,,,,,,,,,,,,,,,,,,,,,,,,,,,,,,,,,,,,,,,,,,,,,,,,,,,,,,,,,,,,,,,,,,,,,,,,,,,,,,,,,,,,,,,,,,,,,,,,,,,,,,,,,,,,,,,,,,,,,,,,,,,,,,,,,,,,,,,,,
,,5ff265688f62107122f931f2,2024-02-21_22h03.34.959,kallum_motion_pilot,2023.2.2,Linux x86_64,59.84082341,5ff265688f62107122f931f2,65d6bb0e977760de756971f7,65d6bef20a464a429d9a9174,0.0487,0.0489,0,102,102,147,1,sixeight,,,,,,,,,,,,,,,,,,,,,,,,,,,,,,,,,,,,,,,,,,,,,,,,,,,,,,,,,,,,,,,,,,,,,,,,,,,,,,,,,,,,,,,,,,,,,,,,,,,,,,,,,,,,,,,,,,,,,,,,,,,,,,,,,,,,,,,,,
,,5ff265688f62107122f931f2,2024-02-21_22h03.34.959,kallum_motion_pilot,2023.2.2,Linux x86_64,59.84082341,5ff265688f62107122f931f2,65d6bb0e977760de756971f7,65d6bef20a464a429d9a9174,0.049,0.049,0,103,103,5,1,threefour,,,,,,,,,,,,,,,,,,,,,,,,,,,,,,,,,,,,,,,,,,,,,,,,,,,,,,,,,,,,,,,,,,,,,,,,,,,,,,,,,,,,,,,,,,,,,,,,,,,,,,,,,,,,,,,,,,,,,,,,,,,,,,,,,,,,,,,,,
,,5ff265688f62107122f931f2,2024-02-21_22h03.34.959,kallum_motion_pilot,2023.2.2,Linux x86_64,59.84082341,5ff265688f62107122f931f2,65d6bb0e977760de756971f7,65d6bef20a464a429d9a9174,0.0497,0.0499,0,104,104,144,1,fivesix,,,,,,,,,,,,,,,,,,,,,,,,,,,,,,,,,,,,,,,,,,,,,,,,,,,,,,,,,,,,,,,,,,,,,,,,,,,,,,,,,,,,,,,,,,,,,,,,,,,,,,,,,,,,,,,,,,,,,,,,,,,,,,,,,,,,,,,,,
,,5ff265688f62107122f931f2,2024-02-21_22h03.34.959,kallum_motion_pilot,2023.2.2,Linux x86_64,59.84082341,5ff265688f62107122f931f2,65d6bb0e977760de756971f7,65d6bef20a464a429d9a9174,0.05,0.05,0,105,105,49,1,onethree,,,,,,,,,,,,,,,,,,,,,,,,,,,,,,,,,,,,,,,,,,,,,,,,,,,,,,,,,,,,,,,,,,,,,,,,,,,,,,,,,,,,,,,,,,,,,,,,,,,,,,,,,,,,,,,,,,,,,,,,,,,,,,,,,,,,,,,,,
,,5ff265688f62107122f931f2,2024-02-21_22h03.34.959,kallum_motion_pilot,2023.2.2,Linux x86_64,59.84082341,5ff265688f62107122f931f2,65d6bb0e977760de756971f7,65d6bef20a464a429d9a9174,0.0502,0.0502,0,106,106,60,1,threeone,,,,,,,,,,,,,,,,,,,,,,,,,,,,,,,,,,,,,,,,,,,,,,,,,,,,,,,,,,,,,,,,,,,,,,,,,,,,,,,,,,,,,,,,,,,,,,,,,,,,,,,,,,,,,,,,,,,,,,,,,,,,,,,,,,,,,,,,,
,,5ff265688f62107122f931f2,2024-02-21_22h03.34.959,kallum_motion_pilot,2023.2.2,Linux x86_64,59.84082341,5ff265688f62107122f931f2,65d6bb0e977760de756971f7,65d6bef20a464a429d9a9174,0.0503,0.0504,0,107,107,116,1,sevenfive,,,,,,,,,,,,,,,,,,,,,,,,,,,,,,,,,,,,,,,,,,,,,,,,,,,,,,,,,,,,,,,,,,,,,,,,,,,,,,,,,,,,,,,,,,,,,,,,,,,,,,,,,,,,,,,,,,,,,,,,,,,,,,,,,,,,,,,,,
,,5ff265688f62107122f931f2,2024-02-21_22h03.34.959,kallum_motion_pilot,2023.2.2,Linux x86_64,59.84082341,5ff265688f62107122f931f2,65d6bb0e977760de756971f7,65d6bef20a464a429d9a9174,0.0505,0.0506,0,108,108,73,1,onethree,,,,,,,,,,,,,,,,,,,,,,,,,,,,,,,,,,,,,,,,,,,,,,,,,,,,,,,,,,,,,,,,,,,,,,,,,,,,,,,,,,,,,,,,,,,,,,,,,,,,,,,,,,,,,,,,,,,,,,,,,,,,,,,,,,,,,,,,,
,,5ff265688f62107122f931f2,2024-02-21_22h03.34.959,kallum_motion_pilot,2023.2.2,Linux x86_64,59.84082341,5ff265688f62107122f931f2,65d6bb0e977760de756971f7,65d6bef20a464a429d9a9174,0.0507,0.0508,0,109,109,93,1,seveneight,,,,,,,,,,,,,,,,,,,,,,,,,,,,,,,,,,,,,,,,,,,,,,,,,,,,,,,,,,,,,,,,,,,,,,,,,,,,,,,,,,,,,,,,,,,,,,,,,,,,,,,,,,,,,,,,,,,,,,,,,,,,,,,,,,,,,,,,,
,,5ff265688f62107122f931f2,2024-02-21_22h03.34.959,kallum_motion_pilot,2023.2.2,Linux x86_64,59.84082341,5ff265688f62107122f931f2,65d6bb0e977760de756971f7,65d6bef20a464a429d9a9174,0.0509,0.0509,0,110,110,97,1,fiveseven,,,,,,,,,,,,,,,,,,,,,,,,,,,,,,,,,,,,,,,,,,,,,,,,,,,,,,,,,,,,,,,,,,,,,,,,,,,,,,,,,,,,,,,,,,,,,,,,,,,,,,,,,,,,,,,,,,,,,,,,,,,,,,,,,,,,,,,,,
,,5ff265688f62107122f931f2,2024-02-21_22h03.34.959,kallum_motion_pilot,2023.2.2,Linux x86_64,59.84082341,5ff265688f62107122f931f2,65d6bb0e977760de756971f7,65d6bef20a464a429d9a9174,0.0511,0.0512,0,111,111,114,1,sixfive,,,,,,,,,,,,,,,,,,,,,,,,,,,,,,,,,,,,,,,,,,,,,,,,,,,,,,,,,,,,,,,,,,,,,,,,,,,,,,,,,,,,,,,,,,,,,,,,,,,,,,,,,,,,,,,,,,,,,,,,,,,,,,,,,,,,,,,,,
,,5ff265688f62107122f931f2,2024-02-21_22h03.34.959,kallum_motion_pilot,2023.2.2,Linux x86_64,59.84082341,5ff265688f62107122f931f2,65d6bb0e977760de756971f7,65d6bef20a464a429d9a9174,0.0512,0.0513,0,112,112,87,1,eightseven,,,,,,,,,,,,,,,,,,,,,,,,,,,,,,,,,,,,,,,,,,,,,,,,,,,,,,,,,,,,,,,,,,,,,,,,,,,,,,,,,,,,,,,,,,,,,,,,,,,,,,,,,,,,,,,,,,,,,,,,,,,,,,,,,,,,,,,,,
,,5ff265688f62107122f931f2,2024-02-21_22h03.34.959,kallum_motion_pilot,2023.2.2,Linux x86_64,59.84082341,5ff265688f62107122f931f2,65d6bb0e977760de756971f7,65d6bef20a464a429d9a9174,0.0515,0.0515,0,113,113,32,1,onetwo,,,,,,,,,,,,,,,,,,,,,,,,,,,,,,,,,,,,,,,,,,,,,,,,,,,,,,,,,,,,,,,,,,,,,,,,,,,,,,,,,,,,,,,,,,,,,,,,,,,,,,,,,,,,,,,,,,,,,,,,,,,,,,,,,,,,,,,,,
,,5ff265688f62107122f931f2,2024-02-21_22h03.34.959,kallum_motion_pilot,2023.2.2,Linux x86_64,59.84082341,5ff265688f62107122f931f2,65d6bb0e977760de756971f7,65d6bef20a464a429d9a9174,0.0516,0.0517,0,114,114,124,1,sevenfive,,,,,,,,,,,,,,,,,,,,,,,,,,,,,,,,,,,,,,,,,,,,,,,,,,,,,,,,,,,,,,,,,,,,,,,,,,,,,,,,,,,,,,,,,,,,,,,,,,,,,,,,,,,,,,,,,,,,,,,,,,,,,,,,,,,,,,,,,
,,5ff265688f62107122f931f2,2024-02-21_22h03.34.959,kallum_motion_pilot,2023.2.2,Linux x86_64,59.84082341,5ff265688f62107122f931f2,65d6bb0e977760de756971f7,65d6bef20a464a429d9a9174,0.0518,0.0519,0,115,115,102,1,eightsix,,,,,,,,,,,,,,,,,,,,,,,,,,,,,,,,,,,,,,,,,,,,,,,,,,,,,,,,,,,,,,,,,,,,,,,,,,,,,,,,,,,,,,,,,,,,,,,,,,,,,,,,,,,,,,,,,,,,,,,,,,,,,,,,,,,,,,,,,
,,5ff265688f62107122f931f2,2024-02-21_22h03.34.959,kallum_motion_pilot,2023.2.2,Linux x86_64,59.84082341,5ff265688f62107122f931f2,65d6bb0e977760de756971f7,65d6bef20a464a429d9a9174,0.052,0.0521,0,116,116,151,1,eightseven,,,,,,,,,,,,,,,,,,,,,,,,,,,,,,,,,,,,,,,,,,,,,,,,,,,,,,,,,,,,,,,,,,,,,,,,,,,,,,,,,,,,,,,,,,,,,,,,,,,,,,,,,,,,,,,,,,,,,,,,,,,,,,,,,,,,,,,,,
,,5ff265688f62107122f931f2,2024-02-21_22h03.34.959,kallum_motion_pilot,2023.2.2,Linux x86_64,59.84082341,5ff265688f62107122f931f2,65d6bb0e977760de756971f7,65d6bef20a464a429d9a9174,0.0522,0.0523,0,117,117,23,1,fourthree,,,,,,,,,,,,,,,,,,,,,,,,,,,,,,,,,,,,,,,,,,,,,,,,,,,,,,,,,,,,,,,,,,,,,,,,,,,,,,,,,,,,,,,,,,,,,,,,,,,,,,,,,,,,,,,,,,,,,,,,,,,,,,,,,,,,,,,,,
,,5ff265688f62107122f931f2,2024-02-21_22h03.34.959,kallum_motion_pilot,2023.2.2,Linux x86_64,59.84082341,5ff265688f62107122f931f2,65d6bb0e977760de756971f7,65d6bef20a464a429d9a9174,0.0524,0.0524,0,118,118,58,1,twoone,,,,,,,,,,,,,,,,,,,,,,,,,,,,,,,,,,,,,,,,,,,,,,,,,,,,,,,,,,,,,,,,,,,,,,,,,,,,,,,,,,,,,,,,,,,,,,,,,,,,,,,,,,,,,,,,,,,,,,,,,,,,,,,,,,,,,,,,,
,,5ff265688f62107122f931f2,2024-02-21_22h03.34.959,kallum_motion_pilot,2023.2.2,Linux x86_64,59.84082341,5ff265688f62107122f931f2,65d6bb0e977760de756971f7,65d6bef20a464a429d9a9174,0.0526,0.0526,0,119,119,118,1,eightsix,,,,,,,,,,,,,,,,,,,,,,,,,,,,,,,,,,,,,,,,,,,,,,,,,,,,,,,,,,,,,,,,,,,,,,,,,,,,,,,,,,,,,,,,,,,,,,,,,,,,,,,,,,,,,,,,,,,,,,,,,,,,,,,,,,,,,,,,,
,,5ff265688f62107122f931f2,2024-02-21_22h03.34.959,kallum_motion_pilot,2023.2.2,Linux x86_64,59.84082341,5ff265688f62107122f931f2,65d6bb0e977760de756971f7,65d6bef20a464a429d9a9174,0.0528,0.0529,0,120,120,7,1,fourthree,,,,,,,,,,,,,,,,,,,,,,,,,,,,,,,,,,,,,,,,,,,,,,,,,,,,,,,,,,,,,,,,,,,,,,,,,,,,,,,,,,,,,,,,,,,,,,,,,,,,,,,,,,,,,,,,,,,,,,,,,,,,,,,,,,,,,,,,,
,,5ff265688f62107122f931f2,2024-02-21_22h03.34.959,kallum_motion_pilot,2023.2.2,Linux x86_64,59.84082341,5ff265688f62107122f931f2,65d6bb0e977760de756971f7,65d6bef20a464a429d9a9174,0.0529,0.053,0,121,121,45,1,threefour,,,,,,,,,,,,,,,,,,,,,,,,,,,,,,,,,,,,,,,,,,,,,,,,,,,,,,,,,,,,,,,,,,,,,,,,,,,,,,,,,,,,,,,,,,,,,,,,,,,,,,,,,,,,,,,,,,,,,,,,,,,,,,,,,,,,,,,,,
,,5ff265688f62107122f931f2,2024-02-21_22h03.34.959,kallum_motion_pilot,2023.2.2,Linux x86_64,59.84082341,5ff265688f62107122f931f2,65d6bb0e977760de756971f7,65d6bef20a464a429d9a9174,0.0531,0.0533,0,122,122,110,1,eightsix,,,,,,,,,,,,,,,,,,,,,,,,,,,,,,,,,,,,,,,,,,,,,,,,,,,,,,,,,,,,,,,,,,,,,,,,,,,,,,,,,,,,,,,,,,,,,,,,,,,,,,,,,,,,,,,,,,,,,,,,,,,,,,,,,,,,,,,,,
,,5ff265688f62107122f931f2,2024-02-21_22h03.34.959,kallum_motion_pilot,2023.2.2,Linux x86_64,59.84082341,5ff265688f62107122f931f2,65d6bb0e977760de756971f7,65d6bef20a464a429d9a9174,0.0534,0.0535,0,123,123,160,1,fivesix,,,,,,,,,,,,,,,,,,,,,,,,,,,,,,,,,,,,,,,,,,,,,,,,,,,,,,,,,,,,,,,,,,,,,,,,,,,,,,,,,,,,,,,,,,,,,,,,,,,,,,,,,,,,,,,,,,,,,,,,,,,,,,,,,,,,,,,,,
,,5ff265688f62107122f931f2,2024-02-21_22h03.34.959,kallum_motion_pilot,2023.2.2,Linux x86_64,59.84082341,5ff265688f62107122f931f2,65d6bb0e977760de756971f7,65d6bef20a464a429d9a9174,0.0535,0.0537,0,124,124,40,1,onetwo,,,,,,,,,,,,,,,,,,,,,,,,,,,,,,,,,,,,,,,,,,,,,,,,,,,,,,,,,,,,,,,,,,,,,,,,,,,,,,,,,,,,,,,,,,,,,,,,,,,,,,,,,,,,,,,,,,,,,,,,,,,,,,,,,,,,,,,,,
,,5ff265688f62107122f931f2,2024-02-21_22h03.34.959,kallum_motion_pilot,2023.2.2,Linux x86_64,59.84082341,5ff265688f62107122f931f2,65d6bb0e977760de756971f7,65d6bef20a464a429d9a9174,0.0538,0.0539,0,125,125,37,1,threefour,,,,,,,,,,,,,,,,,,,,,,,,,,,,,,,,,,,,,,,,,,,,,,,,,,,,,,,,,,,,,,,,,,,,,,,,,,,,,,,,,,,,,,,,,,,,,,,,,,,,,,,,,,,,,,,,,,,,,,,,,,,,,,,,,,,,,,,,,
,,5ff265688f62107122f931f2,2024-02-21_22h03.34.959,kallum_motion_pilot,2023.2.2,Linux x86_64,59.84082341,5ff265688f62107122f931f2,65d6bb0e977760de756971f7,65d6bef20a464a429d9a9174,0.0541,0.0542,0,126,126,8,1,onetwo,,,,,,,,,,,,,,,,,,,,,,,,,,,,,,,,,,,,,,,,,,,,,,,,,,,,,,,,,,,,,,,,,,,,,,,,,,,,,,,,,,,,,,,,,,,,,,,,,,,,,,,,,,,,,,,,,,,,,,,,,,,,,,,,,,,,,,,,,
,,5ff265688f62107122f931f2,2024-02-21_22h03.34.959,kallum_motion_pilot,2023.2.2,Linux x86_64,59.84082341,5ff265688f62107122f931f2,65d6bb0e977760de756971f7,65d6bef20a464a429d9a9174,0.0543,0.0544,0,127,127,103,1,eightseven,,,,,,,,,,,,,,,,,,,,,,,,,,,,,,,,,,,,,,,,,,,,,,,,,,,,,,,,,,,,,,,,,,,,,,,,,,,,,,,,,,,,,,,,,,,,,,,,,,,,,,,,,,,,,,,,,,,,,,,,,,,,,,,,,,,,,,,,,
,,5ff265688f62107122f931f2,2024-02-21_22h03.34.959,kallum_motion_pilot,2023.2.2,Linux x86_64,59.84082341,5ff265688f62107122f931f2,65d6bb0e977760de756971f7,65d6bef20a464a429d9a9174,0.0546,0.0546,0,128,128,18,1,twoone,,,,,,,,,,,,,,,,,,,,,,,,,,,,,,,,,,,,,,,,,,,,,,,,,,,,,,,,,,,,,,,,,,,,,,,,,,,,,,,,,,,,,,,,,,,,,,,,,,,,,,,,,,,,,,,,,,,,,,,,,,,,,,,,,,,,,,,,,
,,5ff265688f62107122f931f2,2024-02-21_22h03.34.959,kallum_motion_pilot,2023.2.2,Linux x86_64,59.84082341,5ff265688f62107122f931f2,65d6bb0e977760de756971f7,65d6bef20a464a429d9a9174,0.0548,0.0549,0,129,129,94,1,eightsix,,,,,,,,,,,,,,,,,,,,,,,,,,,,,,,,,,,,,,,,,,,,,,,,,,,,,,,,,,,,,,,,,,,,,,,,,,,,,,,,,,,,,,,,,,,,,,,,,,,,,,,,,,,,,,,,,,,,,,,,,,,,,,,,,,,,,,,,,
,,5ff265688f62107122f931f2,2024-02-21_22h03.34.959,kallum_motion_pilot,2023.2.2,Linux x86_64,59.84082341,5ff265688f62107122f931f2,65d6bb0e977760de756971f7,65d6bef20a464a429d9a9174,0.0549,0.055,0,130,130,104,1,fivesix,,,,,,,,,,,,,,,,,,,,,,,,,,,,,,,,,,,,,,,,,,,,,,,,,,,,,,,,,,,,,,,,,,,,,,,,,,,,,,,,,,,,,,,,,,,,,,,,,,,,,,,,,,,,,,,,,,,,,,,,,,,,,,,,,,,,,,,,,
,,5ff265688f62107122f931f2,2024-02-21_22h03.34.959,kallum_motion_pilot,2023.2.2,Linux x86_64,59.84082341,5ff265688f62107122f931f2,65d6bb0e977760de756971f7,65d6bef20a464a429d9a9174,0.0551,0.0552,0,131,131,34,1,twoone,,,,,,,,,,,,,,,,,,,,,,,,,,,,,,,,,,,,,,,,,,,,,,,,,,,,,,,,,,,,,,,,,,,,,,,,,,,,,,,,,,,,,,,,,,,,,,,,,,,,,,,,,,,,,,,,,,,,,,,,,,,,,,,,,,,,,,,,,
,,5ff265688f62107122f931f2,2024-02-21_22h03.34.959,kallum_motion_pilot,2023.2.2,Linux x86_64,59.84082341,5ff265688f62107122f931f2,65d6bb0e977760de756971f7,65d6bef20a464a429d9a9174,0.0553,0.0554,0,132,132,0,1,onetwo,,,,,,,,,,,,,,,,,,,,,,,,,,,,,,,,,,,,,,,,,,,,,,,,,,,,,,,,,,,,,,,,,,,,,,,,,,,,,,,,,,,,,,,,,,,,,,,,,,,,,,,,,,,,,,,,,,,,,,,,,,,,,,,,,,,,,,,,,
,,5ff265688f62107122f931f2,2024-02-21_22h03.34.959,kallum_motion_pilot,2023.2.2,Linux x86_64,59.84082341,5ff265688f62107122f931f2,65d6bb0e977760de756971f7,65d6bef20a464a429d9a9174,0.0555,0.0556,0,133,133,121,1,fiveseven,,,,,,,,,,,,,,,,,,,,,,,,,,,,,,,,,,,,,,,,,,,,,,,,,,,,,,,,,,,,,,,,,,,,,,,,,,,,,,,,,,,,,,,,,,,,,,,,,,,,,,,,,,,,,,,,,,,,,,,,,,,,,,,,,,,,,,,,,
,,5ff265688f62107122f931f2,2024-02-21_22h03.34.959,kallum_motion_pilot,2023.2.2,Linux x86_64,59.84082341,5ff265688f62107122f931f2,65d6bb0e977760de756971f7,65d6bef20a464a429d9a9174,0.0557,0.0558,0,134,134,12,1,threeone,,,,,,,,,,,,,,,,,,,,,,,,,,,,,,,,,,,,,,,,,,,,,,,,,,,,,,,,,,,,,,,,,,,,,,,,,,,,,,,,,,,,,,,,,,,,,,,,,,,,,,,,,,,,,,,,,,,,,,,,,,,,,,,,,,,,,,,,,
,,5ff265688f62107122f931f2,2024-02-21_22h03.34.959,kallum_motion_pilot,2023.2.2,Linux x86_64,59.84082341,5ff265688f62107122f931f2,65d6bb0e977760de756971f7,65d6bef20a464a429d9a9174,0.0559,0.056,0,135,135,156,1,sevenfive,,,,,,,,,,,,,,,,,,,,,,,,,,,,,,,,,,,,,,,,,,,,,,,,,,,,,,,,,,,,,,,,,,,,,,,,,,,,,,,,,,,,,,,,,,,,,,,,,,,,,,,,,,,,,,,,,,,,,,,,,,,,,,,,,,,,,,,,,
,,5ff265688f62107122f931f2,2024-02-21_22h03.34.959,kallum_motion_pilot,2023.2.2,Linux x86_64,59.84082341,5ff265688f62107122f931f2,65d6bb0e977760de756971f7,65d6bef20a464a429d9a9174,0.056,0.0562,0,136,136,80,1,fivesix,,,,,,,,,,,,,,,,,,,,,,,,,,,,,,,,,,,,,,,,,,,,,,,,,,,,,,,,,,,,,,,,,,,,,,,,,,,,,,,,,,,,,,,,,,,,,,,,,,,,,,,,,,,,,,,,,,,,,,,,,,,,,,,,,,,,,,,,,
,,5ff265688f62107122f931f2,2024-02-21_22h03.34.959,kallum_motion_pilot,2023.2.2,Linux x86_64,59.84082341,5ff265688f62107122f931f2,65d6bb0e977760de756971f7,65d6bef20a464a429d9a9174,0.0562,0.0564,0,137,137,55,1,fourthree,,,,,,,,,,,,,,,,,,,,,,,,,,,,,,,,,,,,,,,,,,,,,,,,,,,,,,,,,,,,,,,,,,,,,,,,,,,,,,,,,,,,,,,,,,,,,,,,,,,,,,,,,,,,,,,,,,,,,,,,,,,,,,,,,,,,,,,,,
,,5ff265688f62107122f931f2,2024-02-21_22h03.34.959,kallum_motion_pilot,2023.2.2,Linux x86_64,59.84082341,5ff265688f62107122f931f2,65d6bb0e977760de756971f7,65d6bef20a464a429d9a9174,0.0564,0.0565,0,138,138,74,1,twoone,,,,,,,,,,,,,,,,,,,,,,,,,,,,,,,,,,,,,,,,,,,,,,,,,,,,,,,,,,,,,,,,,,,,,,,,,,,,,,,,,,,,,,,,,,,,,,,,,,,,,,,,,,,,,,,,,,,,,,,,,,,,,,,,,,,,,,,,,
,,5ff265688f62107122f931f2,2024-02-21_22h03.34.959,kallum_motion_pilot,2023.2.2,Linux x86_64,59.84082341,5ff265688f62107122f931f2,65d6bb0e977760de756971f7,65d6bef20a464a429d9a9174,0.0566,0.0567,0,139,139,154,1,sixfive,,,,,,,,,,,,,,,,,,,,,,,,,,,,,,,,,,,,,,,,,,,,,,,,,,,,,,,,,,,,,,,,,,,,,,,,,,,,,,,,,,,,,,,,,,,,,,,,,,,,,,,,,,,,,,,,,,,,,,,,,,,,,,,,,,,,,,,,,
,,5ff265688f62107122f931f2,2024-02-21_22h03.34.959,kallum_motion_pilot,2023.2.2,Linux x86_64,59.84082341,5ff265688f62107122f931f2,65d6bb0e977760de756971f7,65d6bef20a464a429d9a9174,0.0569,0.0569,0,140,140,66,1,twoone,,,,,,,,,,,,,,,,,,,,,,,,,,,,,,,,,,,,,,,,,,,,,,,,,,,,,,,,,,,,,,,,,,,,,,,,,,,,,,,,,,,,,,,,,,,,,,,,,,,,,,,,,,,,,,,,,,,,,,,,,,,,,,,,,,,,,,,,,
,,5ff265688f62107122f931f2,2024-02-21_22h03.34.959,kallum_motion_pilot,2023.2.2,Linux x86_64,59.84082341,5ff265688f62107122f931f2,65d6bb0e977760de756971f7,65d6bef20a464a429d9a9174,0.057,0.0571,0,141,141,51,1,twofour,,,,,,,,,,,,,,,,,,,,,,,,,,,,,,,,,,,,,,,,,,,,,,,,,,,,,,,,,,,,,,,,,,,,,,,,,,,,,,,,,,,,,,,,,,,,,,,,,,,,,,,,,,,,,,,,,,,,,,,,,,,,,,,,,,,,,,,,,
,,5ff265688f62107122f931f2,2024-02-21_22h03.34.959,kallum_motion_pilot,2023.2.2,Linux x86_64,59.84082341,5ff265688f62107122f931f2,65d6bb0e977760de756971f7,65d6bef20a464a429d9a9174,0.0572,0.0573,0,142,142,79,1,eightseven,,,,,,,,,,,,,,,,,,,,,,,,,,,,,,,,,,,,,,,,,,,,,,,,,,,,,,,,,,,,,,,,,,,,,,,,,,,,,,,,,,,,,,,,,,,,,,,,,,,,,,,,,,,,,,,,,,,,,,,,,,,,,,,,,,,,,,,,,
,,5ff265688f62107122f931f2,2024-02-21_22h03.34.959,kallum_motion_pilot,2023.2.2,Linux x86_64,59.84082341,5ff265688f62107122f931f2,65d6bb0e977760de756971f7,65d6bef20a464a429d9a9174,0.0574,0.0574,0,143,143,132,1,sevenfive,,,,,,,,,,,,,,,,,,,,,,,,,,,,,,,,,,,,,,,,,,,,,,,,,,,,,,,,,,,,,,,,,,,,,,,,,,,,,,,,,,,,,,,,,,,,,,,,,,,,,,,,,,,,,,,,,,,,,,,,,,,,,,,,,,,,,,,,,
,,5ff265688f62107122f931f2,2024-02-21_22h03.34.959,kallum_motion_pilot,2023.2.2,Linux x86_64,59.84082341,5ff265688f62107122f931f2,65d6bb0e977760de756971f7,65d6bef20a464a429d9a9174,0.0575,0.0576,0,144,144,108,1,sevenfive,,,,,,,,,,,,,,,,,,,,,,,,,,,,,,,,,,,,,,,,,,,,,,,,,,,,,,,,,,,,,,,,,,,,,,,,,,,,,,,,,,,,,,,,,,,,,,,,,,,,,,,,,,,,,,,,,,,,,,,,,,,,,,,,,,,,,,,,,
,,5ff265688f62107122f931f2,2024-02-21_22h03.34.959,kallum_motion_pilot,2023.2.2,Linux x86_64,59.84082341,5ff265688f62107122f931f2,65d6bb0e977760de756971f7,65d6bef20a464a429d9a9174,0.0577,0.0579,0,145,145,143,1,eightseven,,,,,,,,,,,,,,,,,,,,,,,,,,,,,,,,,,,,,,,,,,,,,,,,,,,,,,,,,,,,,,,,,,,,,,,,,,,,,,,,,,,,,,,,,,,,,,,,,,,,,,,,,,,,,,,,,,,,,,,,,,,,,,,,,,,,,,,,,
,,5ff265688f62107122f931f2,2024-02-21_22h03.34.959,kallum_motion_pilot,2023.2.2,Linux x86_64,59.84082341,5ff265688f62107122f931f2,65d6bb0e977760de756971f7,65d6bef20a464a429d9a9174,0.058,0.0581,0,146,146,59,1,twofour,,,,,,,,,,,,,,,,,,,,,,,,,,,,,,,,,,,,,,,,,,,,,,,,,,,,,,,,,,,,,,,,,,,,,,,,,,,,,,,,,,,,,,,,,,,,,,,,,,,,,,,,,,,,,,,,,,,,,,,,,,,,,,,,,,,,,,,,,
,,5ff265688f62107122f931f2,2024-02-21_22h03.34.959,kallum_motion_pilot,2023.2.2,Linux x86_64,59.84082341,5ff265688f62107122f931f2,65d6bb0e977760de756971f7,65d6bef20a464a429d9a9174,0.0582,0.0583,0,147,147,14,1,fourtwo,,,,,,,,,,,,,,,,,,,,,,,,,,,,,,,,,,,,,,,,,,,,,,,,,,,,,,,,,,,,,,,,,,,,,,,,,,,,,,,,,,,,,,,,,,,,,,,,,,,,,,,,,,,,,,,,,,,,,,,,,,,,,,,,,,,,,,,,,
,,5ff265688f62107122f931f2,2024-02-21_22h03.34.959,kallum_motion_pilot,2023.2.2,Linux x86_64,59.84082341,5ff265688f62107122f931f2,65d6bb0e977760de756971f7,65d6bef20a464a429d9a9174,0.0584,0.0585,0,148,148,67,1,twofour,,,,,,,,,,,,,,,,,,,,,,,,,,,,,,,,,,,,,,,,,,,,,,,,,,,,,,,,,,,,,,,,,,,,,,,,,,,,,,,,,,,,,,,,,,,,,,,,,,,,,,,,,,,,,,,,,,,,,,,,,,,,,,,,,,,,,,,,,
,,5ff265688f62107122f931f2,2024-02-21_22h03.34.959,kallum_motion_pilot,2023.2.2,Linux x86_64,59.84082341,5ff265688f62107122f931f2,65d6bb0e977760de756971f7,65d6bef20a464a429d9a9174,0.0586,0.0587,0,149,149,152,1,fivesix,,,,,,,,,,,,,,,,,,,,,,,,,,,,,,,,,,,,,,,,,,,,,,,,,,,,,,,,,,,,,,,,,,,,,,,,,,,,,,,,,,,,,,,,,,,,,,,,,,,,,,,,,,,,,,,,,,,,,,,,,,,,,,,,,,,,,,,,,
,,5ff265688f62107122f931f2,2024-02-21_22h03.34.959,kallum_motion_pilot,2023.2.2,Linux x86_64,59.84082341,5ff265688f62107122f931f2,65d6bb0e977760de756971f7,65d6bef20a464a429d9a9174,0.0587,0.0588,0,150,150,100,1,sevenfive,,,,,,,,,,,,,,,,,,,,,,,,,,,,,,,,,,,,,,,,,,,,,,,,,,,,,,,,,,,,,,,,,,,,,,,,,,,,,,,,,,,,,,,,,,,,,,,,,,,,,,,,,,,,,,,,,,,,,,,,,,,,,,,,,,,,,,,,,
,,5ff265688f62107122f931f2,2024-02-21_22h03.34.959,kallum_motion_pilot,2023.2.2,Linux x86_64,59.84082341,5ff265688f62107122f931f2,65d6bb0e977760de756971f7,65d6bef20a464a429d9a9174,0.059,0.059,0,151,151,31,1,fourthree,,,,,,,,,,,,,,,,,,,,,,,,,,,,,,,,,,,,,,,,,,,,,,,,,,,,,,,,,,,,,,,,,,,,,,,,,,,,,,,,,,,,,,,,,,,,,,,,,,,,,,,,,,,,,,,,,,,,,,,,,,,,,,,,,,,,,,,,,
,,5ff265688f62107122f931f2,2024-02-21_22h03.34.959,kallum_motion_pilot,2023.2.2,Linux x86_64,59.84082341,5ff265688f62107122f931f2,65d6bb0e977760de756971f7,65d6bef20a464a429d9a9174,0.0592,0.0592,0,152,152,142,1,eightsix,,,,,,,,,,,,,,,,,,,,,,,,,,,,,,,,,,,,,,,,,,,,,,,,,,,,,,,,,,,,,,,,,,,,,,,,,,,,,,,,,,,,,,,,,,,,,,,,,,,,,,,,,,,,,,,,,,,,,,,,,,,,,,,,,,,,,,,,,
,,5ff265688f62107122f931f2,2024-02-21_22h03.34.959,kallum_motion_pilot,2023.2.2,Linux x86_64,59.84082341,5ff265688f62107122f931f2,65d6bb0e977760de756971f7,65d6bef20a464a429d9a9174,0.0593,0.0594,0,153,153,153,1,fiveseven,,,,,,,,,,,,,,,,,,,,,,,,,,,,,,,,,,,,,,,,,,,,,,,,,,,,,,,,,,,,,,,,,,,,,,,,,,,,,,,,,,,,,,,,,,,,,,,,,,,,,,,,,,,,,,,,,,,,,,,,,,,,,,,,,,,,,,,,,
,,5ff265688f62107122f931f2,2024-02-21_22h03.34.959,kallum_motion_pilot,2023.2.2,Linux x86_64,59.84082341,5ff265688f62107122f931f2,65d6bb0e977760de756971f7,65d6bef20a464a429d9a9174,0.0595,0.0596,0,154,154,107,1,sixeight,,,,,,,,,,,,,,,,,,,,,,,,,,,,,,,,,,,,,,,,,,,,,,,,,,,,,,,,,,,,,,,,,,,,,,,,,,,,,,,,,,,,,,,,,,,,,,,,,,,,,,,,,,,,,,,,,,,,,,,,,,,,,,,,,,,,,,,,,
,,5ff265688f62107122f931f2,2024-02-21_22h03.34.959,kallum_motion_pilot,2023.2.2,Linux x86_64,59.84082341,5ff265688f62107122f931f2,65d6bb0e977760de756971f7,65d6bef20a464a429d9a9174,0.0597,0.0598,0,155,155,6,1,fourtwo,,,,,,,,,,,,,,,,,,,,,,,,,,,,,,,,,,,,,,,,,,,,,,,,,,,,,,,,,,,,,,,,,,,,,,,,,,,,,,,,,,,,,,,,,,,,,,,,,,,,,,,,,,,,,,,,,,,,,,,,,,,,,,,,,,,,,,,,,
,,5ff265688f62107122f931f2,2024-02-21_22h03.34.959,kallum_motion_pilot,2023.2.2,Linux x86_64,59.84082341,5ff265688f62107122f931f2,65d6bb0e977760de756971f7,65d6bef20a464a429d9a9174,0.0599,0.06,0,156,156,33,1,onethree,,,,,,,,,,,,,,,,,,,,,,,,,,,,,,,,,,,,,,,,,,,,,,,,,,,,,,,,,,,,,,,,,,,,,,,,,,,,,,,,,,,,,,,,,,,,,,,,,,,,,,,,,,,,,,,,,,,,,,,,,,,,,,,,,,,,,,,,,
,,5ff265688f62107122f931f2,2024-02-21_22h03.34.959,kallum_motion_pilot,2023.2.2,Linux x86_64,59.84082341,5ff265688f62107122f931f2,65d6bb0e977760de756971f7,65d6bef20a464a429d9a9174,0.0601,0.0602,0,157,157,47,1,fourthree,,,,,,,,,,,,,,,,,,,,,,,,,,,,,,,,,,,,,,,,,,,,,,,,,,,,,,,,,,,,,,,,,,,,,,,,,,,,,,,,,,,,,,,,,,,,,,,,,,,,,,,,,,,,,,,,,,,,,,,,,,,,,,,,,,,,,,,,,
,,5ff265688f62107122f931f2,2024-02-21_22h03.34.959,kallum_motion_pilot,2023.2.2,Linux x86_64,59.84082341,5ff265688f62107122f931f2,65d6bb0e977760de756971f7,65d6bef20a464a429d9a9174,0.0603,0.0604,0,158,158,98,1,sixfive,,,,,,,,,,,,,,,,,,,,,,,,,,,,,,,,,,,,,,,,,,,,,,,,,,,,,,,,,,,,,,,,,,,,,,,,,,,,,,,,,,,,,,,,,,,,,,,,,,,,,,,,,,,,,,,,,,,,,,,,,,,,,,,,,,,,,,,,,
,,5ff265688f62107122f931f2,2024-02-21_22h03.34.959,kallum_motion_pilot,2023.2.2,Linux x86_64,59.84082341,5ff265688f62107122f931f2,65d6bb0e977760de756971f7,65d6bef20a464a429d9a9174,0.0605,0.0606,0,159,159,133,1,seveneight,,,,,,,,,,,,,,,,,,,,,,,,,,,,,,,,,,,,,,,,,,,,,,,,,,,,,,,,,,,,,,,,,,,,,,,,,,,,,,,,,,,,,,,,,,,,,,,,,,,,,,,,,,,,,,,,,,,,,,,,,,,,,,,,,,,,,,,,,
,,5ff265688f62107122f931f2,2024-02-21_22h03.34.959,kallum_motion_pilot,2023.2.2,Linux x86_64,59.84082341,5ff265688f62107122f931f2,65d6bb0e977760de756971f7,65d6bef20a464a429d9a9174,0.0606,0.0608,0,160,160,41,1,onethree,,,,,,,,,,,,,,,,,,,,,,,,,,,,,,,,,,,,,,,,,,,,,,,,,,,,,,,,,,,,,,,,,,,,,,,,,,,,,,,,,,,,,,,,,,,,,,,,,,,,,,,,,,,,,,,,,,,,,,,,,,,,,,,,,,,,,,,,,
,,5ff265688f62107122f931f2,2024-02-21_22h03.34.959,kallum_motion_pilot,2023.2.2,Linux x86_64,59.84082341,5ff265688f62107122f931f2,65d6bb0e977760de756971f7,65d6bef20a464a429d9a9174,0.0609,0.061,0,161,161,84,1,sevenfive,,,,,,,,,,,,,,,,,,,,,,,,,,,,,,,,,,,,,,,,,,,,,,,,,,,,,,,,,,,,,,,,,,,,,,,,,,,,,,,,,,,,,,,,,,,,,,,,,,,,,,,,,,,,,,,,,,,,,,,,,,,,,,,,,,,,,,,,,
,,5ff265688f62107122f931f2,2024-02-21_22h03.34.959,kallum_motion_pilot,2023.2.2,Linux x86_64,59.84082341,5ff265688f62107122f931f2,65d6bb0e977760de756971f7,65d6bef20a464a429d9a9174,0.0611,0.0612,1,0,162,141,1,seveneight,,,,,,,,,,,,,,,,,,,,,,,,,,,,,,,,,,,,,,,,,,,,,,,,,,,,,,,,,,,,,,,,,,,,,,,,,,,,,,,,,,,,,,,,,,,,,,,,,,,,,,,,,,,,,,,,,,,,,,,,,,,,,,,,,,,,,,,,,
,,5ff265688f62107122f931f2,2024-02-21_22h03.34.959,kallum_motion_pilot,2023.2.2,Linux x86_64,59.84082341,5ff265688f62107122f931f2,65d6bb0e977760de756971f7,65d6bef20a464a429d9a9174,0.0614,0.0614,1,1,163,94,1,eightsix,,,,,,,,,,,,,,,,,,,,,,,,,,,,,,,,,,,,,,,,,,,,,,,,,,,,,,,,,,,,,,,,,,,,,,,,,,,,,,,,,,,,,,,,,,,,,,,,,,,,,,,,,,,,,,,,,,,,,,,,,,,,,,,,,,,,,,,,,
,,5ff265688f62107122f931f2,2024-02-21_22h03.34.959,kallum_motion_pilot,2023.2.2,Linux x86_64,59.84082341,5ff265688f62107122f931f2,65d6bb0e977760de756971f7,65d6bef20a464a429d9a9174,0.0615,0.0616,1,2,164,78,1,fourtwo,,,,,,,,,,,,,,,,,,,,,,,,,,,,,,,,,,,,,,,,,,,,,,,,,,,,,,,,,,,,,,,,,,,,,,,,,,,,,,,,,,,,,,,,,,,,,,,,,,,,,,,,,,,,,,,,,,,,,,,,,,,,,,,,,,,,,,,,,
,,5ff265688f62107122f931f2,2024-02-21_22h03.34.959,kallum_motion_pilot,2023.2.2,Linux x86_64,59.84082341,5ff265688f62107122f931f2,65d6bb0e977760de756971f7,65d6bef20a464a429d9a9174,0.0617,0.0618,1,3,165,134,1,eightsix,,,,,,,,,,,,,,,,,,,,,,,,,,,,,,,,,,,,,,,,,,,,,,,,,,,,,,,,,,,,,,,,,,,,,,,,,,,,,,,,,,,,,,,,,,,,,,,,,,,,,,,,,,,,,,,,,,,,,,,,,,,,,,,,,,,,,,,,,
,,5ff265688f62107122f931f2,2024-02-21_22h03.34.959,kallum_motion_pilot,2023.2.2,Linux x86_64,59.84082341,5ff265688f62107122f931f2,65d6bb0e977760de756971f7,65d6bef20a464a429d9a9174,0.0619,0.062,1,4,166,106,1,sixfive,,,,,,,,,,,,,,,,,,,,,,,,,,,,,,,,,,,,,,,,,,,,,,,,,,,,,,,,,,,,,,,,,,,,,,,,,,,,,,,,,,,,,,,,,,,,,,,,,,,,,,,,,,,,,,,,,,,,,,,,,,,,,,,,,,,,,,,,,
,,5ff265688f62107122f931f2,2024-02-21_22h03.34.959,kallum_motion_pilot,2023.2.2,Linux x86_64,59.84082341,5ff265688f62107122f931f2,65d6bb0e977760de756971f7,65d6bef20a464a429d9a9174,0.0621,0.0622,1,5,167,88,1,fivesix,,,,,,,,,,,,,,,,,,,,,,,,,,,,,,,,,,,,,,,,,,,,,,,,,,,,,,,,,,,,,,,,,,,,,,,,,,,,,,,,,,,,,,,,,,,,,,,,,,,,,,,,,,,,,,,,,,,,,,,,,,,,,,,,,,,,,,,,,
,,5ff265688f62107122f931f2,2024-02-21_22h03.34.959,kallum_motion_pilot,2023.2.2,Linux x86_64,59.84082341,5ff265688f62107122f931f2,65d6bb0e977760de756971f7,65d6bef20a464a429d9a9174,0.0623,0.0624,1,6,168,102,1,eightsix,,,,,,,,,,,,,,,,,,,,,,,,,,,,,,,,,,,,,,,,,,,,,,,,,,,,,,,,,,,,,,,,,,,,,,,,,,,,,,,,,,,,,,,,,,,,,,,,,,,,,,,,,,,,,,,,,,,,,,,,,,,,,,,,,,,,,,,,,
,,5ff265688f62107122f931f2,2024-02-21_22h03.34.959,kallum_motion_pilot,2023.2.2,Linux x86_64,59.84082341,5ff265688f62107122f931f2,65d6bb0e977760de756971f7,65d6bef20a464a429d9a9174,0.0625,0.0625,1,7,169,87,1,eightseven,,,,,,,,,,,,,,,,,,,,,,,,,,,,,,,,,,,,,,,,,,,,,,,,,,,,,,,,,,,,,,,,,,,,,,,,,,,,,,,,,,,,,,,,,,,,,,,,,,,,,,,,,,,,,,,,,,,,,,,,,,,,,,,,,,,,,,,,,
,,5ff265688f62107122f931f2,2024-02-21_22h03.34.959,kallum_motion_pilot,2023.2.2,Linux x86_64,59.84082341,5ff265688f62107122f931f2,65d6bb0e977760de756971f7,65d6bef20a464a429d9a9174,0.0627,0.0628,1,8,170,1,1,onethree,,,,,,,,,,,,,,,,,,,,,,,,,,,,,,,,,,,,,,,,,,,,,,,,,,,,,,,,,,,,,,,,,,,,,,,,,,,,,,,,,,,,,,,,,,,,,,,,,,,,,,,,,,,,,,,,,,,,,,,,,,,,,,,,,,,,,,,,,
,,5ff265688f62107122f931f2,2024-02-21_22h03.34.959,kallum_motion_pilot,2023.2.2,Linux x86_64,59.84082341,5ff265688f62107122f931f2,65d6bb0e977760de756971f7,65d6bef20a464a429d9a9174,0.0629,0.0629,1,9,171,153,1,fiveseven,,,,,,,,,,,,,,,,,,,,,,,,,,,,,,,,,,,,,,,,,,,,,,,,,,,,,,,,,,,,,,,,,,,,,,,,,,,,,,,,,,,,,,,,,,,,,,,,,,,,,,,,,,,,,,,,,,,,,,,,,,,,,,,,,,,,,,,,,
,,5ff265688f62107122f931f2,2024-02-21_22h03.34.959,kallum_motion_pilot,2023.2.2,Linux x86_64,59.84082341,5ff265688f62107122f931f2,65d6bb0e977760de756971f7,65d6bef20a464a429d9a9174,0.063,0.0632,1,10,172,118,1,eightsix,,,,,,,,,,,,,,,,,,,,,,,,,,,,,,,,,,,,,,,,,,,,,,,,,,,,,,,,,,,,,,,,,,,,,,,,,,,,,,,,,,,,,,,,,,,,,,,,,,,,,,,,,,,,,,,,,,,,,,,,,,,,,,,,,,,,,,,,,
,,5ff265688f62107122f931f2,2024-02-21_22h03.34.959,kallum_motion_pilot,2023.2.2,Linux x86_64,59.84082341,5ff265688f62107122f931f2,65d6bb0e977760de756971f7,65d6bef20a464a429d9a9174,0.0633,0.0633,1,11,173,19,1,twofour,,,,,,,,,,,,,,,,,,,,,,,,,,,,,,,,,,,,,,,,,,,,,,,,,,,,,,,,,,,,,,,,,,,,,,,,,,,,,,,,,,,,,,,,,,,,,,,,,,,,,,,,,,,,,,,,,,,,,,,,,,,,,,,,,,,,,,,,,
,,5ff265688f62107122f931f2,2024-02-21_22h03.34.959,kallum_motion_pilot,2023.2.2,Linux x86_64,59.84082341,5ff265688f62107122f931f2,65d6bb0e977760de756971f7,65d6bef20a464a429d9a9174,0.0635,0.0636,1,12,174,62,1,fourtwo,,,,,,,,,,,,,,,,,,,,,,,,,,,,,,,,,,,,,,,,,,,,,,,,,,,,,,,,,,,,,,,,,,,,,,,,,,,,,,,,,,,,,,,,,,,,,,,,,,,,,,,,,,,,,,,,,,,,,,,,,,,,,,,,,,,,,,,,,
,,5ff265688f62107122f931f2,2024-02-21_22h03.34.959,kallum_motion_pilot,2023.2.2,Linux x86_64,59.84082341,5ff265688f62107122f931f2,65d6bb0e977760de756971f7,65d6bef20a464a429d9a9174,0.0637,0.0638,1,13,175,3,1,twofour,,,,,,,,,,,,,,,,,,,,,,,,,,,,,,,,,,,,,,,,,,,,,,,,,,,,,,,,,,,,,,,,,,,,,,,,,,,,,,,,,,,,,,,,,,,,,,,,,,,,,,,,,,,,,,,,,,,,,,,,,,,,,,,,,,,,,,,,,
,,5ff265688f62107122f931f2,2024-02-21_22h03.34.959,kallum_motion_pilot,2023.2.2,Linux x86_64,59.84082341,5ff265688f62107122f931f2,65d6bb0e977760de756971f7,65d6bef20a464a429d9a9174,0.0638,0.064,1,14,176,11,1,twofour,,,,,,,,,,,,,,,,,,,,,,,,,,,,,,,,,,,,,,,,,,,,,,,,,,,,,,,,,,,,,,,,,,,,,,,,,,,,,,,,,,,,,,,,,,,,,,,,,,,,,,,,,,,,,,,,,,,,,,,,,,,,,,,,,,,,,,,,,
,,5ff265688f62107122f931f2,2024-02-21_22h03.34.959,kallum_motion_pilot,2023.2.2,Linux x86_64,59.84082341,5ff265688f62107122f931f2,65d6bb0e977760de756971f7,65d6bef20a464a429d9a9174,0.0641,0.0642,1,15,177,20,1,threeone,,,,,,,,,,,,,,,,,,,,,,,,,,,,,,,,,,,,,,,,,,,,,,,,,,,,,,,,,,,,,,,,,,,,,,,,,,,,,,,,,,,,,,,,,,,,,,,,,,,,,,,,,,,,,,,,,,,,,,,,,,,,,,,,,,,,,,,,,
,,5ff265688f62107122f931f2,2024-02-21_22h03.34.959,kallum_motion_pilot,2023.2.2,Linux x86_64,59.84082341,5ff265688f62107122f931f2,65d6bb0e977760de756971f7,65d6bef20a464a429d9a9174,0.0643,0.0644,1,16,178,137,1,fiveseven,,,,,,,,,,,,,,,,,,,,,,,,,,,,,,,,,,,,,,,,,,,,,,,,,,,,,,,,,,,,,,,,,,,,,,,,,,,,,,,,,,,,,,,,,,,,,,,,,,,,,,,,,,,,,,,,,,,,,,,,,,,,,,,,,,,,,,,,,
,,5ff265688f62107122f931f2,2024-02-21_22h03.34.959,kallum_motion_pilot,2023.2.2,Linux x86_64,59.84082341,5ff265688f62107122f931f2,65d6bb0e977760de756971f7,65d6bef20a464a429d9a9174,0.0644,0.0645,1,17,179,104,1,fivesix,,,,,,,,,,,,,,,,,,,,,,,,,,,,,,,,,,,,,,,,,,,,,,,,,,,,,,,,,,,,,,,,,,,,,,,,,,,,,,,,,,,,,,,,,,,,,,,,,,,,,,,,,,,,,,,,,,,,,,,,,,,,,,,,,,,,,,,,,
,,5ff265688f62107122f931f2,2024-02-21_22h03.34.959,kallum_motion_pilot,2023.2.2,Linux x86_64,59.84082341,5ff265688f62107122f931f2,65d6bb0e977760de756971f7,65d6bef20a464a429d9a9174,0.0647,0.0648,1,18,180,91,1,sixeight,,,,,,,,,,,,,,,,,,,,,,,,,,,,,,,,,,,,,,,,,,,,,,,,,,,,,,,,,,,,,,,,,,,,,,,,,,,,,,,,,,,,,,,,,,,,,,,,,,,,,,,,,,,,,,,,,,,,,,,,,,,,,,,,,,,,,,,,,
,,5ff265688f62107122f931f2,2024-02-21_22h03.34.959,kallum_motion_pilot,2023.2.2,Linux x86_64,59.84082341,5ff265688f62107122f931f2,65d6bb0e977760de756971f7,65d6bef20a464a429d9a9174,0.0649,0.065,1,19,181,68,1,threeone,,,,,,,,,,,,,,,,,,,,,,,,,,,,,,,,,,,,,,,,,,,,,,,,,,,,,,,,,,,,,,,,,,,,,,,,,,,,,,,,,,,,,,,,,,,,,,,,,,,,,,,,,,,,,,,,,,,,,,,,,,,,,,,,,,,,,,,,,
,,5ff265688f62107122f931f2,2024-02-21_22h03.34.959,kallum_motion_pilot,2023.2.2,Linux x86_64,59.84082341,5ff265688f62107122f931f2,65d6bb0e977760de756971f7,65d6bef20a464a429d9a9174,0.0651,0.0652,1,20,182,59,1,twofour,,,,,,,,,,,,,,,,,,,,,,,,,,,,,,,,,,,,,,,,,,,,,,,,,,,,,,,,,,,,,,,,,,,,,,,,,,,,,,,,,,,,,,,,,,,,,,,,,,,,,,,,,,,,,,,,,,,,,,,,,,,,,,,,,,,,,,,,,
,,5ff265688f62107122f931f2,2024-02-21_22h03.34.959,kallum_motion_pilot,2023.2.2,Linux x86_64,59.84082341,5ff265688f62107122f931f2,65d6bb0e977760de756971f7,65d6bef20a464a429d9a9174,0.0653,0.0654,1,21,183,38,1,fourtwo,,,,,,,,,,,,,,,,,,,,,,,,,,,,,,,,,,,,,,,,,,,,,,,,,,,,,,,,,,,,,,,,,,,,,,,,,,,,,,,,,,,,,,,,,,,,,,,,,,,,,,,,,,,,,,,,,,,,,,,,,,,,,,,,,,,,,,,,,
,,5ff265688f62107122f931f2,2024-02-21_22h03.34.959,kallum_motion_pilot,2023.2.2,Linux x86_64,59.84082341,5ff265688f62107122f931f2,65d6bb0e977760de756971f7,65d6bef20a464a429d9a9174,0.0655,0.0656,1,22,184,149,1,seveneight,,,,,,,,,,,,,,,,,,,,,,,,,,,,,,,,,,,,,,,,,,,,,,,,,,,,,,,,,,,,,,,,,,,,,,,,,,,,,,,,,,,,,,,,,,,,,,,,,,,,,,,,,,,,,,,,,,,,,,,,,,,,,,,,,,,,,,,,,
,,5ff265688f62107122f931f2,2024-02-21_22h03.34.959,kallum_motion_pilot,2023.2.2,Linux x86_64,59.84082341,5ff265688f62107122f931f2,65d6bb0e977760de756971f7,65d6bef20a464a429d9a9174,0.0657,0.0658,1,23,185,46,1,fourtwo,,,,,,,,,,,,,,,,,,,,,,,,,,,,,,,,,,,,,,,,,,,,,,,,,,,,,,,,,,,,,,,,,,,,,,,,,,,,,,,,,,,,,,,,,,,,,,,,,,,,,,,,,,,,,,,,,,,,,,,,,,,,,,,,,,,,,,,,,
,,5ff265688f62107122f931f2,2024-02-21_22h03.34.959,kallum_motion_pilot,2023.2.2,Linux x86_64,59.84082341,5ff265688f62107122f931f2,65d6bb0e977760de756971f7,65d6bef20a464a429d9a9174,0.0659,0.066,1,24,186,49,1,onethree,,,,,,,,,,,,,,,,,,,,,,,,,,,,,,,,,,,,,,,,,,,,,,,,,,,,,,,,,,,,,,,,,,,,,,,,,,,,,,,,,,,,,,,,,,,,,,,,,,,,,,,,,,,,,,,,,,,,,,,,,,,,,,,,,,,,,,,,,
,,5ff265688f62107122f931f2,2024-02-21_22h03.34.959,kallum_motion_pilot,2023.2.2,Linux x86_64,59.84082341,5ff265688f62107122f931f2,65d6bb0e977760de756971f7,65d6bef20a464a429d9a9174,0.0662,0.0662,1,25,187,61,1,threefour,,,,,,,,,,,,,,,,,,,,,,,,,,,,,,,,,,,,,,,,,,,,,,,,,,,,,,,,,,,,,,,,,,,,,,,,,,,,,,,,,,,,,,,,,,,,,,,,,,,,,,,,,,,,,,,,,,,,,,,,,,,,,,,,,,,,,,,,,
,,5ff265688f62107122f931f2,2024-02-21_22h03.34.959,kallum_motion_pilot,2023.2.2,Linux x86_64,59.84082341,5ff265688f62107122f931f2,65d6bb0e977760de756971f7,65d6bef20a464a429d9a9174,0.0663,0.0664,1,26,188,107,1,sixeight,,,,,,,,,,,,,,,,,,,,,,,,,,,,,,,,,,,,,,,,,,,,,,,,,,,,,,,,,,,,,,,,,,,,,,,,,,,,,,,,,,,,,,,,,,,,,,,,,,,,,,,,,,,,,,,,,,,,,,,,,,,,,,,,,,,,,,,,,
,,5ff265688f62107122f931f2,2024-02-21_22h03.34.959,kallum_motion_pilot,2023.2.2,Linux x86_64,59.84082341,5ff265688f62107122f931f2,65d6bb0e977760de756971f7,65d6bef20a464a429d9a9174,0.0665,0.0666,1,27,189,100,1,sevenfive,,,,,,,,,,,,,,,,,,,,,,,,,,,,,,,,,,,,,,,,,,,,,,,,,,,,,,,,,,,,,,,,,,,,,,,,,,,,,,,,,,,,,,,,,,,,,,,,,,,,,,,,,,,,,,,,,,,,,,,,,,,,,,,,,,,,,,,,,
,,5ff265688f62107122f931f2,2024-02-21_22h03.34.959,kallum_motion_pilot,2023.2.2,Linux x86_64,59.84082341,5ff265688f62107122f931f2,65d6bb0e977760de756971f7,65d6bef20a464a429d9a9174,0.0668,0.0668,1,28,190,108,1,sevenfive,,,,,,,,,,,,,,,,,,,,,,,,,,,,,,,,,,,,,,,,,,,,,,,,,,,,,,,,,,,,,,,,,,,,,,,,,,,,,,,,,,,,,,,,,,,,,,,,,,,,,,,,,,,,,,,,,,,,,,,,,,,,,,,,,,,,,,,,,
,,5ff265688f62107122f931f2,2024-02-21_22h03.34.959,kallum_motion_pilot,2023.2.2,Linux x86_64,59.84082341,5ff265688f62107122f931f2,65d6bb0e977760de756971f7,65d6bef20a464a429d9a9174,0.067,0.067,1,29,191,101,1,seveneight,,,,,,,,,,,,,,,,,,,,,,,,,,,,,,,,,,,,,,,,,,,,,,,,,,,,,,,,,,,,,,,,,,,,,,,,,,,,,,,,,,,,,,,,,,,,,,,,,,,,,,,,,,,,,,,,,,,,,,,,,,,,,,,,,,,,,,,,,
,,5ff265688f62107122f931f2,2024-02-21_22h03.34.959,kallum_motion_pilot,2023.2.2,Linux x86_64,59.84082341,5ff265688f62107122f931f2,65d6bb0e977760de756971f7,65d6bef20a464a429d9a9174,0.0671,0.0672,1,30,192,13,1,threefour,,,,,,,,,,,,,,,,,,,,,,,,,,,,,,,,,,,,,,,,,,,,,,,,,,,,,,,,,,,,,,,,,,,,,,,,,,,,,,,,,,,,,,,,,,,,,,,,,,,,,,,,,,,,,,,,,,,,,,,,,,,,,,,,,,,,,,,,,
,,5ff265688f62107122f931f2,2024-02-21_22h03.34.959,kallum_motion_pilot,2023.2.2,Linux x86_64,59.84082341,5ff265688f62107122f931f2,65d6bb0e977760de756971f7,65d6bef20a464a429d9a9174,0.0673,0.0675,1,31,193,84,1,sevenfive,,,,,,,,,,,,,,,,,,,,,,,,,,,,,,,,,,,,,,,,,,,,,,,,,,,,,,,,,,,,,,,,,,,,,,,,,,,,,,,,,,,,,,,,,,,,,,,,,,,,,,,,,,,,,,,,,,,,,,,,,,,,,,,,,,,,,,,,,
,,5ff265688f62107122f931f2,2024-02-21_22h03.34.959,kallum_motion_pilot,2023.2.2,Linux x86_64,59.84082341,5ff265688f62107122f931f2,65d6bb0e977760de756971f7,65d6bef20a464a429d9a9174,0.0677,0.0678,1,32,194,21,1,threefour,,,,,,,,,,,,,,,,,,,,,,,,,,,,,,,,,,,,,,,,,,,,,,,,,,,,,,,,,,,,,,,,,,,,,,,,,,,,,,,,,,,,,,,,,,,,,,,,,,,,,,,,,,,,,,,,,,,,,,,,,,,,,,,,,,,,,,,,,
,,5ff265688f62107122f931f2,2024-02-21_22h03.34.959,kallum_motion_pilot,2023.2.2,Linux x86_64,59.84082341,5ff265688f62107122f931f2,65d6bb0e977760de756971f7,65d6bef20a464a429d9a9174,0.068,0.0681,1,33,195,105,1,fiveseven,,,,,,,,,,,,,,,,,,,,,,,,,,,,,,,,,,,,,,,,,,,,,,,,,,,,,,,,,,,,,,,,,,,,,,,,,,,,,,,,,,,,,,,,,,,,,,,,,,,,,,,,,,,,,,,,,,,,,,,,,,,,,,,,,,,,,,,,,
,,5ff265688f62107122f931f2,2024-02-21_22h03.34.959,kallum_motion_pilot,2023.2.2,Linux x86_64,59.84082341,5ff265688f62107122f931f2,65d6bb0e977760de756971f7,65d6bef20a464a429d9a9174,0.0684,0.0685,1,34,196,132,1,sevenfive,,,,,,,,,,,,,,,,,,,,,,,,,,,,,,,,,,,,,,,,,,,,,,,,,,,,,,,,,,,,,,,,,,,,,,,,,,,,,,,,,,,,,,,,,,,,,,,,,,,,,,,,,,,,,,,,,,,,,,,,,,,,,,,,,,,,,,,,,
,,5ff265688f62107122f931f2,2024-02-21_22h03.34.959,kallum_motion_pilot,2023.2.2,Linux x86_64,59.84082341,5ff265688f62107122f931f2,65d6bb0e977760de756971f7,65d6bef20a464a429d9a9174,0.0687,0.0688,1,35,197,22,1,fourtwo,,,,,,,,,,,,,,,,,,,,,,,,,,,,,,,,,,,,,,,,,,,,,,,,,,,,,,,,,,,,,,,,,,,,,,,,,,,,,,,,,,,,,,,,,,,,,,,,,,,,,,,,,,,,,,,,,,,,,,,,,,,,,,,,,,,,,,,,,
,,5ff265688f62107122f931f2,2024-02-21_22h03.34.959,kallum_motion_pilot,2023.2.2,Linux x86_64,59.84082341,5ff265688f62107122f931f2,65d6bb0e977760de756971f7,65d6bef20a464a429d9a9174,0.069,0.0692,1,36,198,73,1,onethree,,,,,,,,,,,,,,,,,,,,,,,,,,,,,,,,,,,,,,,,,,,,,,,,,,,,,,,,,,,,,,,,,,,,,,,,,,,,,,,,,,,,,,,,,,,,,,,,,,,,,,,,,,,,,,,,,,,,,,,,,,,,,,,,,,,,,,,,,
,,5ff265688f62107122f931f2,2024-02-21_22h03.34.959,kallum_motion_pilot,2023.2.2,Linux x86_64,59.84082341,5ff265688f62107122f931f2,65d6bb0e977760de756971f7,65d6bef20a464a429d9a9174,0.0693,0.0694,1,37,199,9,1,onethree,,,,,,,,,,,,,,,,,,,,,,,,,,,,,,,,,,,,,,,,,,,,,,,,,,,,,,,,,,,,,,,,,,,,,,,,,,,,,,,,,,,,,,,,,,,,,,,,,,,,,,,,,,,,,,,,,,,,,,,,,,,,,,,,,,,,,,,,,
,,5ff265688f62107122f931f2,2024-02-21_22h03.34.959,kallum_motion_pilot,2023.2.2,Linux x86_64,59.84082341,5ff265688f62107122f931f2,65d6bb0e977760de756971f7,65d6bef20a464a429d9a9174,0.0695,0.0696,1,38,200,154,1,sixfive,,,,,,,,,,,,,,,,,,,,,,,,,,,,,,,,,,,,,,,,,,,,,,,,,,,,,,,,,,,,,,,,,,,,,,,,,,,,,,,,,,,,,,,,,,,,,,,,,,,,,,,,,,,,,,,,,,,,,,,,,,,,,,,,,,,,,,,,,
,,5ff265688f62107122f931f2,2024-02-21_22h03.34.959,kallum_motion_pilot,2023.2.2,Linux x86_64,59.84082341,5ff265688f62107122f931f2,65d6bb0e977760de756971f7,65d6bef20a464a429d9a9174,0.0697,0.0698,1,39,201,72,1,onetwo,,,,,,,,,,,,,,,,,,,,,,,,,,,,,,,,,,,,,,,,,,,,,,,,,,,,,,,,,,,,,,,,,,,,,,,,,,,,,,,,,,,,,,,,,,,,,,,,,,,,,,,,,,,,,,,,,,,,,,,,,,,,,,,,,,,,,,,,,
,,5ff265688f62107122f931f2,2024-02-21_22h03.34.959,kallum_motion_pilot,2023.2.2,Linux x86_64,59.84082341,5ff265688f62107122f931f2,65d6bb0e977760de756971f7,65d6bef20a464a429d9a9174,0.07,0.07,1,40,202,43,1,twofour,,,,,,,,,,,,,,,,,,,,,,,,,,,,,,,,,,,,,,,,,,,,,,,,,,,,,,,,,,,,,,,,,,,,,,,,,,,,,,,,,,,,,,,,,,,,,,,,,,,,,,,,,,,,,,,,,,,,,,,,,,,,,,,,,,,,,,,,,
,,5ff265688f62107122f931f2,2024-02-21_22h03.34.959,kallum_motion_pilot,2023.2.2,Linux x86_64,59.84082341,5ff265688f62107122f931f2,65d6bb0e977760de756971f7,65d6bef20a464a429d9a9174,0.0705,0.0705,1,41,203,58,1,twoone,,,,,,,,,,,,,,,,,,,,,,,,,,,,,,,,,,,,,,,,,,,,,,,,,,,,,,,,,,,,,,,,,,,,,,,,,,,,,,,,,,,,,,,,,,,,,,,,,,,,,,,,,,,,,,,,,,,,,,,,,,,,,,,,,,,,,,,,,
,,5ff265688f62107122f931f2,2024-02-21_22h03.34.959,kallum_motion_pilot,2023.2.2,Linux x86_64,59.84082341,5ff265688f62107122f931f2,65d6bb0e977760de756971f7,65d6bef20a464a429d9a9174,0.0707,0.0708,1,42,204,41,1,onethree,,,,,,,,,,,,,,,,,,,,,,,,,,,,,,,,,,,,,,,,,,,,,,,,,,,,,,,,,,,,,,,,,,,,,,,,,,,,,,,,,,,,,,,,,,,,,,,,,,,,,,,,,,,,,,,,,,,,,,,,,,,,,,,,,,,,,,,,,
,,5ff265688f62107122f931f2,2024-02-21_22h03.34.959,kallum_motion_pilot,2023.2.2,Linux x86_64,59.84082341,5ff265688f62107122f931f2,65d6bb0e977760de756971f7,65d6bef20a464a429d9a9174,0.0709,0.0711,1,43,205,157,1,seveneight,,,,,,,,,,,,,,,,,,,,,,,,,,,,,,,,,,,,,,,,,,,,,,,,,,,,,,,,,,,,,,,,,,,,,,,,,,,,,,,,,,,,,,,,,,,,,,,,,,,,,,,,,,,,,,,,,,,,,,,,,,,,,,,,,,,,,,,,,
,,5ff265688f62107122f931f2,2024-02-21_22h03.34.959,kallum_motion_pilot,2023.2.2,Linux x86_64,59.84082341,5ff265688f62107122f931f2,65d6bb0e977760de756971f7,65d6bef20a464a429d9a9174,0.0712,0.0713,1,44,206,53,1,threefour,,,,,,,,,,,,,,,,,,,,,,,,,,,,,,,,,,,,,,,,,,,,,,,,,,,,,,,,,,,,,,,,,,,,,,,,,,,,,,,,,,,,,,,,,,,,,,,,,,,,,,,,,,,,,,,,,,,,,,,,,,,,,,,,,,,,,,,,,
,,5ff265688f62107122f931f2,2024-02-21_22h03.34.959,kallum_motion_pilot,2023.2.2,Linux x86_64,59.84082341,5ff265688f62107122f931f2,65d6bb0e977760de756971f7,65d6bef20a464a429d9a9174,0.0714,0.0716,1,45,207,113,1,fiveseven,,,,,,,,,,,,,,,,,,,,,,,,,,,,,,,,,,,,,,,,,,,,,,,,,,,,,,,,,,,,,,,,,,,,,,,,,,,,,,,,,,,,,,,,,,,,,,,,,,,,,,,,,,,,,,,,,,,,,,,,,,,,,,,,,,,,,,,,,
,,5ff265688f62107122f931f2,2024-02-21_22h03.34.959,kallum_motion_pilot,2023.2.2,Linux x86_64,59.84082341,5ff265688f62107122f931f2,65d6bb0e977760de756971f7,65d6bef20a464a429d9a9174,0.0717,0.0719,1,46,208,158,1,eightsix,,,,,,,,,,,,,,,,,,,,,,,,,,,,,,,,,,,,,,,,,,,,,,,,,,,,,,,,,,,,,,,,,,,,,,,,,,,,,,,,,,,,,,,,,,,,,,,,,,,,,,,,,,,,,,,,,,,,,,,,,,,,,,,,,,,,,,,,,
,,5ff265688f62107122f931f2,2024-02-21_22h03.34.959,kallum_motion_pilot,2023.2.2,Linux x86_64,59.84082341,5ff265688f62107122f931f2,65d6bb0e977760de756971f7,65d6bef20a464a429d9a9174,0.072,0.0721,1,47,209,60,1,threeone,,,,,,,,,,,,,,,,,,,,,,,,,,,,,,,,,,,,,,,,,,,,,,,,,,,,,,,,,,,,,,,,,,,,,,,,,,,,,,,,,,,,,,,,,,,,,,,,,,,,,,,,,,,,,,,,,,,,,,,,,,,,,,,,,,,,,,,,,
,,5ff265688f62107122f931f2,2024-02-21_22h03.34.959,kallum_motion_pilot,2023.2.2,Linux x86_64,59.84082341,5ff265688f62107122f931f2,65d6bb0e977760de756971f7,65d6bef20a464a429d9a9174,0.0722,0.0723,1,48,210,24,1,onetwo,,,,,,,,,,,,,,,,,,,,,,,,,,,,,,,,,,,,,,,,,,,,,,,,,,,,,,,,,,,,,,,,,,,,,,,,,,,,,,,,,,,,,,,,,,,,,,,,,,,,,,,,,,,,,,,,,,,,,,,,,,,,,,,,,,,,,,,,,
,,5ff265688f62107122f931f2,2024-02-21_22h03.34.959,kallum_motion_pilot,2023.2.2,Linux x86_64,59.84082341,5ff265688f62107122f931f2,65d6bb0e977760de756971f7,65d6bef20a464a429d9a9174,0.0725,0.0726,1,49,211,70,1,fourtwo,,,,,,,,,,,,,,,,,,,,,,,,,,,,,,,,,,,,,,,,,,,,,,,,,,,,,,,,,,,,,,,,,,,,,,,,,,,,,,,,,,,,,,,,,,,,,,,,,,,,,,,,,,,,,,,,,,,,,,,,,,,,,,,,,,,,,,,,,
,,5ff265688f62107122f931f2,2024-02-21_22h03.34.959,kallum_motion_pilot,2023.2.2,Linux x86_64,59.84082341,5ff265688f62107122f931f2,65d6bb0e977760de756971f7,65d6bef20a464a429d9a9174,0.0728,0.0728,1,50,212,0,1,onetwo,,,,,,,,,,,,,,,,,,,,,,,,,,,,,,,,,,,,,,,,,,,,,,,,,,,,,,,,,,,,,,,,,,,,,,,,,,,,,,,,,,,,,,,,,,,,,,,,,,,,,,,,,,,,,,,,,,,,,,,,,,,,,,,,,,,,,,,,,
,,5ff265688f62107122f931f2,2024-02-21_22h03.34.959,kallum_motion_pilot,2023.2.2,Linux x86_64,59.84082341,5ff265688f62107122f931f2,65d6bb0e977760de756971f7,65d6bef20a464a429d9a9174,0.073,0.0731,1,51,213,2,1,twoone,,,,,,,,,,,,,,,,,,,,,,,,,,,,,,,,,,,,,,,,,,,,,,,,,,,,,,,,,,,,,,,,,,,,,,,,,,,,,,,,,,,,,,,,,,,,,,,,,,,,,,,,,,,,,,,,,,,,,,,,,,,,,,,,,,,,,,,,,
,,5ff265688f62107122f931f2,2024-02-21_22h03.34.959,kallum_motion_pilot,2023.2.2,Linux x86_64,59.84082341,5ff265688f62107122f931f2,65d6bb0e977760de756971f7,65d6bef20a464a429d9a9174,0.0732,0.0734,1,52,214,82,1,sixfive,,,,,,,,,,,,,,,,,,,,,,,,,,,,,,,,,,,,,,,,,,,,,,,,,,,,,,,,,,,,,,,,,,,,,,,,,,,,,,,,,,,,,,,,,,,,,,,,,,,,,,,,,,,,,,,,,,,,,,,,,,,,,,,,,,,,,,,,,
,,5ff265688f62107122f931f2,2024-02-21_22h03.34.959,kallum_motion_pilot,2023.2.2,Linux x86_64,59.84082341,5ff265688f62107122f931f2,65d6bb0e977760de756971f7,65d6bef20a464a429d9a9174,0.0735,0.0736,1,53,215,138,1,sixfive,,,,,,,,,,,,,,,,,,,,,,,,,,,,,,,,,,,,,,,,,,,,,,,,,,,,,,,,,,,,,,,,,,,,,,,,,,,,,,,,,,,,,,,,,,,,,,,,,,,,,,,,,,,,,,,,,,,,,,,,,,,,,,,,,,,,,,,,,
,,5ff265688f62107122f931f2,2024-02-21_22h03.34.959,kallum_motion_pilot,2023.2.2,Linux x86_64,59.84082341,5ff265688f62107122f931f2,65d6bb0e977760de756971f7,65d6bef20a464a429d9a9174,0.0738,0.0739,1,54,216,96,1,fivesix,,,,,,,,,,,,,,,,,,,,,,,,,,,,,,,,,,,,,,,,,,,,,,,,,,,,,,,,,,,,,,,,,,,,,,,,,,,,,,,,,,,,,,,,,,,,,,,,,,,,,,,,,,,,,,,,,,,,,,,,,,,,,,,,,,,,,,,,,
,,5ff265688f62107122f931f2,2024-02-21_22h03.34.959,kallum_motion_pilot,2023.2.2,Linux x86_64,59.84082341,5ff265688f62107122f931f2,65d6bb0e977760de756971f7,65d6bef20a464a429d9a9174,0.0741,0.0742,1,55,217,143,1,eightseven,,,,,,,,,,,,,,,,,,,,,,,,,,,,,,,,,,,,,,,,,,,,,,,,,,,,,,,,,,,,,,,,,,,,,,,,,,,,,,,,,,,,,,,,,,,,,,,,,,,,,,,,,,,,,,,,,,,,,,,,,,,,,,,,,,,,,,,,,
,,5ff265688f62107122f931f2,2024-02-21_22h03.34.959,kallum_motion_pilot,2023.2.2,Linux x86_64,59.84082341,5ff265688f62107122f931f2,65d6bb0e977760de756971f7,65d6bef20a464a429d9a9174,0.0743,0.0744,1,56,218,31,1,fourthree,,,,,,,,,,,,,,,,,,,,,,,,,,,,,,,,,,,,,,,,,,,,,,,,,,,,,,,,,,,,,,,,,,,,,,,,,,,,,,,,,,,,,,,,,,,,,,,,,,,,,,,,,,,,,,,,,,,,,,,,,,,,,,,,,,,,,,,,,
,,5ff265688f62107122f931f2,2024-02-21_22h03.34.959,kallum_motion_pilot,2023.2.2,Linux x86_64,59.84082341,5ff265688f62107122f931f2,65d6bb0e977760de756971f7,65d6bef20a464a429d9a9174,0.0745,0.0746,1,57,219,85,1,seveneight,,,,,,,,,,,,,,,,,,,,,,,,,,,,,,,,,,,,,,,,,,,,,,,,,,,,,,,,,,,,,,,,,,,,,,,,,,,,,,,,,,,,,,,,,,,,,,,,,,,,,,,,,,,,,,,,,,,,,,,,,,,,,,,,,,,,,,,,,
,,5ff265688f62107122f931f2,2024-02-21_22h03.34.959,kallum_motion_pilot,2023.2.2,Linux x86_64,59.84082341,5ff265688f62107122f931f2,65d6bb0e977760de756971f7,65d6bef20a464a429d9a9174,0.0748,0.0749,1,58,220,8,1,onetwo,,,,,,,,,,,,,,,,,,,,,,,,,,,,,,,,,,,,,,,,,,,,,,,,,,,,,,,,,,,,,,,,,,,,,,,,,,,,,,,,,,,,,,,,,,,,,,,,,,,,,,,,,,,,,,,,,,,,,,,,,,,,,,,,,,,,,,,,,
,,5ff265688f62107122f931f2,2024-02-21_22h03.34.959,kallum_motion_pilot,2023.2.2,Linux x86_64,59.84082341,5ff265688f62107122f931f2,65d6bb0e977760de756971f7,65d6bef20a464a429d9a9174,0.0751,0.0753,1,59,221,152,1,fivesix,,,,,,,,,,,,,,,,,,,,,,,,,,,,,,,,,,,,,,,,,,,,,,,,,,,,,,,,,,,,,,,,,,,,,,,,,,,,,,,,,,,,,,,,,,,,,,,,,,,,,,,,,,,,,,,,,,,,,,,,,,,,,,,,,,,,,,,,,
,,5ff265688f62107122f931f2,2024-02-21_22h03.34.959,kallum_motion_pilot,2023.2.2,Linux x86_64,59.84082341,5ff265688f62107122f931f2,65d6bb0e977760de756971f7,65d6bef20a464a429d9a9174,0.0755,0.0756,1,60,222,56,1,onetwo,,,,,,,,,,,,,,,,,,,,,,,,,,,,,,,,,,,,,,,,,,,,,,,,,,,,,,,,,,,,,,,,,,,,,,,,,,,,,,,,,,,,,,,,,,,,,,,,,,,,,,,,,,,,,,,,,,,,,,,,,,,,,,,,,,,,,,,,,
,,5ff265688f62107122f931f2,2024-02-21_22h03.34.959,kallum_motion_pilot,2023.2.2,Linux x86_64,59.84082341,5ff265688f62107122f931f2,65d6bb0e977760de756971f7,65d6bef20a464a429d9a9174,0.0757,0.0759,1,61,223,127,1,eightseven,,,,,,,,,,,,,,,,,,,,,,,,,,,,,,,,,,,,,,,,,,,,,,,,,,,,,,,,,,,,,,,,,,,,,,,,,,,,,,,,,,,,,,,,,,,,,,,,,,,,,,,,,,,,,,,,,,,,,,,,,,,,,,,,,,,,,,,,,
,,5ff265688f62107122f931f2,2024-02-21_22h03.34.959,kallum_motion_pilot,2023.2.2,Linux x86_64,59.84082341,5ff265688f62107122f931f2,65d6bb0e977760de756971f7,65d6bef20a464a429d9a9174,0.076,0.0762,1,62,224,129,1,fiveseven,,,,,,,,,,,,,,,,,,,,,,,,,,,,,,,,,,,,,,,,,,,,,,,,,,,,,,,,,,,,,,,,,,,,,,,,,,,,,,,,,,,,,,,,,,,,,,,,,,,,,,,,,,,,,,,,,,,,,,,,,,,,,,,,,,,,,,,,,
,,5ff265688f62107122f931f2,2024-02-21_22h03.34.959,kallum_motion_pilot,2023.2.2,Linux x86_64,59.84082341,5ff265688f62107122f931f2,65d6bb0e977760de756971f7,65d6bef20a464a429d9a9174,0.0764,0.0765,1,63,225,34,1,twoone,,,,,,,,,,,,,,,,,,,,,,,,,,,,,,,,,,,,,,,,,,,,,,,,,,,,,,,,,,,,,,,,,,,,,,,,,,,,,,,,,,,,,,,,,,,,,,,,,,,,,,,,,,,,,,,,,,,,,,,,,,,,,,,,,,,,,,,,,
,,5ff265688f62107122f931f2,2024-02-21_22h03.34.959,kallum_motion_pilot,2023.2.2,Linux x86_64,59.84082341,5ff265688f62107122f931f2,65d6bb0e977760de756971f7,65d6bef20a464a429d9a9174,0.0767,0.0768,1,64,226,116,1,sevenfive,,,,,,,,,,,,,,,,,,,,,,,,,,,,,,,,,,,,,,,,,,,,,,,,,,,,,,,,,,,,,,,,,,,,,,,,,,,,,,,,,,,,,,,,,,,,,,,,,,,,,,,,,,,,,,,,,,,,,,,,,,,,,,,,,,,,,,,,,
,,5ff265688f62107122f931f2,2024-02-21_22h03.34.959,kallum_motion_pilot,2023.2.2,Linux x86_64,59.84082341,5ff265688f62107122f931f2,65d6bb0e977760de756971f7,65d6bef20a464a429d9a9174,0.0771,0.0772,1,65,227,109,1,seveneight,,,,,,,,,,,,,,,,,,,,,,,,,,,,,,,,,,,,,,,,,,,,,,,,,,,,,,,,,,,,,,,,,,,,,,,,,,,,,,,,,,,,,,,,,,,,,,,,,,,,,,,,,,,,,,,,,,,,,,,,,,,,,,,,,,,,,,,,,
,,5ff265688f62107122f931f2,2024-02-21_22h03.34.959,kallum_motion_pilot,2023.2.2,Linux x86_64,59.84082341,5ff265688f62107122f931f2,65d6bb0e977760de756971f7,65d6bef20a464a429d9a9174,0.0774,0.0775,1,66,228,142,1,eightsix,,,,,,,,,,,,,,,,,,,,,,,,,,,,,,,,,,,,,,,,,,,,,,,,,,,,,,,,,,,,,,,,,,,,,,,,,,,,,,,,,,,,,,,,,,,,,,,,,,,,,,,,,,,,,,,,,,,,,,,,,,,,,,,,,,,,,,,,,
,,5ff265688f62107122f931f2,2024-02-21_22h03.34.959,kallum_motion_pilot,2023.2.2,Linux x86_64,59.84082341,5ff265688f62107122f931f2,65d6bb0e977760de756971f7,65d6bef20a464a429d9a9174,0.0777,0.0778,1,67,229,90,1,sixfive,,,,,,,,,,,,,,,,,,,,,,,,,,,,,,,,,,,,,,,,,,,,,,,,,,,,,,,,,,,,,,,,,,,,,,,,,,,,,,,,,,,,,,,,,,,,,,,,,,,,,,,,,,,,,,,,,,,,,,,,,,,,,,,,,,,,,,,,,
,,5ff265688f62107122f931f2,2024-02-21_22h03.34.959,kallum_motion_pilot,2023.2.2,Linux x86_64,59.84082341,5ff265688f62107122f931f2,65d6bb0e977760de756971f7,65d6bef20a464a429d9a9174,0.078,0.0781,1,68,230,139,1,sixeight,,,,,,,,,,,,,,,,,,,,,,,,,,,,,,,,,,,,,,,,,,,,,,,,,,,,,,,,,,,,,,,,,,,,,,,,,,,,,,,,,,,,,,,,,,,,,,,,,,,,,,,,,,,,,,,,,,,,,,,,,,,,,,,,,,,,,,,,,
,,5ff265688f62107122f931f2,2024-02-21_22h03.34.959,kallum_motion_pilot,2023.2.2,Linux x86_64,59.84082341,5ff265688f62107122f931f2,65d6bb0e977760de756971f7,65d6bef20a464a429d9a9174,0.0783,0.0785,1,69,231,42,1,twoone,,,,,,,,,,,,,,,,,,,,,,,,,,,,,,,,,,,,,,,,,,,,,,,,,,,,,,,,,,,,,,,,,,,,,,,,,,,,,,,,,,,,,,,,,,,,,,,,,,,,,,,,,,,,,,,,,,,,,,,,,,,,,,,,,,,,,,,,,
,,5ff265688f62107122f931f2,2024-02-21_22h03.34.959,kallum_motion_pilot,2023.2.2,Linux x86_64,59.84082341,5ff265688f62107122f931f2,65d6bb0e977760de756971f7,65d6bef20a464a429d9a9174,0.0786,0.0787,1,70,232,52,1,threeone,,,,,,,,,,,,,,,,,,,,,,,,,,,,,,,,,,,,,,,,,,,,,,,,,,,,,,,,,,,,,,,,,,,,,,,,,,,,,,,,,,,,,,,,,,,,,,,,,,,,,,,,,,,,,,,,,,,,,,,,,,,,,,,,,,,,,,,,,
,,5ff265688f62107122f931f2,2024-02-21_22h03.34.959,kallum_motion_pilot,2023.2.2,Linux x86_64,59.84082341,5ff265688f62107122f931f2,65d6bb0e977760de756971f7,65d6bef20a464a429d9a9174,0.0789,0.0791,1,71,233,155,1,sixeight,,,,,,,,,,,,,,,,,,,,,,,,,,,,,,,,,,,,,,,,,,,,,,,,,,,,,,,,,,,,,,,,,,,,,,,,,,,,,,,,,,,,,,,,,,,,,,,,,,,,,,,,,,,,,,,,,,,,,,,,,,,,,,,,,,,,,,,,,
,,5ff265688f62107122f931f2,2024-02-21_22h03.34.959,kallum_motion_pilot,2023.2.2,Linux x86_64,59.84082341,5ff265688f62107122f931f2,65d6bb0e977760de756971f7,65d6bef20a464a429d9a9174,0.0793,0.0794,1,72,234,136,1,fivesix,,,,,,,,,,,,,,,,,,,,,,,,,,,,,,,,,,,,,,,,,,,,,,,,,,,,,,,,,,,,,,,,,,,,,,,,,,,,,,,,,,,,,,,,,,,,,,,,,,,,,,,,,,,,,,,,,,,,,,,,,,,,,,,,,,,,,,,,,
,,5ff265688f62107122f931f2,2024-02-21_22h03.34.959,kallum_motion_pilot,2023.2.2,Linux x86_64,59.84082341,5ff265688f62107122f931f2,65d6bb0e977760de756971f7,65d6bef20a464a429d9a9174,0.0796,0.0797,1,73,235,17,1,onethree,,,,,,,,,,,,,,,,,,,,,,,,,,,,,,,,,,,,,,,,,,,,,,,,,,,,,,,,,,,,,,,,,,,,,,,,,,,,,,,,,,,,,,,,,,,,,,,,,,,,,,,,,,,,,,,,,,,,,,,,,,,,,,,,,,,,,,,,,
,,5ff265688f62107122f931f2,2024-02-21_22h03.34.959,kallum_motion_pilot,2023.2.2,Linux x86_64,59.84082341,5ff265688f62107122f931f2,65d6bb0e977760de756971f7,65d6bef20a464a429d9a9174,0.0798,0.08,1,74,236,99,1,sixeight,,,,,,,,,,,,,,,,,,,,,,,,,,,,,,,,,,,,,,,,,,,,,,,,,,,,,,,,,,,,,,,,,,,,,,,,,,,,,,,,,,,,,,,,,,,,,,,,,,,,,,,,,,,,,,,,,,,,,,,,,,,,,,,,,,,,,,,,,
,,5ff265688f62107122f931f2,2024-02-21_22h03.34.959,kallum_motion_pilot,2023.2.2,Linux x86_64,59.84082341,5ff265688f62107122f931f2,65d6bb0e977760de756971f7,65d6bef20a464a429d9a9174,0.0802,0.0803,1,75,237,5,1,threefour,,,,,,,,,,,,,,,,,,,,,,,,,,,,,,,,,,,,,,,,,,,,,,,,,,,,,,,,,,,,,,,,,,,,,,,,,,,,,,,,,,,,,,,,,,,,,,,,,,,,,,,,,,,,,,,,,,,,,,,,,,,,,,,,,,,,,,,,,
,,5ff265688f62107122f931f2,2024-02-21_22h03.34.959,kallum_motion_pilot,2023.2.2,Linux x86_64,59.84082341,5ff265688f62107122f931f2,65d6bb0e977760de756971f7,65d6bef20a464a429d9a9174,0.0805,0.0807,1,76,238,160,1,fivesix,,,,,,,,,,,,,,,,,,,,,,,,,,,,,,,,,,,,,,,,,,,,,,,,,,,,,,,,,,,,,,,,,,,,,,,,,,,,,,,,,,,,,,,,,,,,,,,,,,,,,,,,,,,,,,,,,,,,,,,,,,,,,,,,,,,,,,,,,
,,5ff265688f62107122f931f2,2024-02-21_22h03.34.959,kallum_motion_pilot,2023.2.2,Linux x86_64,59.84082341,5ff265688f62107122f931f2,65d6bb0e977760de756971f7,65d6bef20a464a429d9a9174,0.0808,0.0809,1,77,239,115,1,sixeight,,,,,,,,,,,,,,,,,,,,,,,,,,,,,,,,,,,,,,,,,,,,,,,,,,,,,,,,,,,,,,,,,,,,,,,,,,,,,,,,,,,,,,,,,,,,,,,,,,,,,,,,,,,,,,,,,,,,,,,,,,,,,,,,,,,,,,,,,
,,5ff265688f62107122f931f2,2024-02-21_22h03.34.959,kallum_motion_pilot,2023.2.2,Linux x86_64,59.84082341,5ff265688f62107122f931f2,65d6bb0e977760de756971f7,65d6bef20a464a429d9a9174,0.0811,0.0812,1,78,240,4,1,threeone,,,,,,,,,,,,,,,,,,,,,,,,,,,,,,,,,,,,,,,,,,,,,,,,,,,,,,,,,,,,,,,,,,,,,,,,,,,,,,,,,,,,,,,,,,,,,,,,,,,,,,,,,,,,,,,,,,,,,,,,,,,,,,,,,,,,,,,,,
,,5ff265688f62107122f931f2,2024-02-21_22h03.34.959,kallum_motion_pilot,2023.2.2,Linux x86_64,59.84082341,5ff265688f62107122f931f2,65d6bb0e977760de756971f7,65d6bef20a464a429d9a9174,0.0814,0.0816,1,79,241,40,1,onetwo,,,,,,,,,,,,,,,,,,,,,,,,,,,,,,,,,,,,,,,,,,,,,,,,,,,,,,,,,,,,,,,,,,,,,,,,,,,,,,,,,,,,,,,,,,,,,,,,,,,,,,,,,,,,,,,,,,,,,,,,,,,,,,,,,,,,,,,,,
,,5ff265688f62107122f931f2,2024-02-21_22h03.34.959,kallum_motion_pilot,2023.2.2,Linux x86_64,59.84082341,5ff265688f62107122f931f2,65d6bb0e977760de756971f7,65d6bef20a464a429d9a9174,0.0817,0.0818,1,80,242,18,1,twoone,,,,,,,,,,,,,,,,,,,,,,,,,,,,,,,,,,,,,,,,,,,,,,,,,,,,,,,,,,,,,,,,,,,,,,,,,,,,,,,,,,,,,,,,,,,,,,,,,,,,,,,,,,,,,,,,,,,,,,,,,,,,,,,,,,,,,,,,,
,,5ff265688f62107122f931f2,2024-02-21_22h03.34.959,kallum_motion_pilot,2023.2.2,Linux x86_64,59.84082341,5ff265688f62107122f931f2,65d6bb0e977760de756971f7,65d6bef20a464a429d9a9174,0.082,0.0821,1,81,243,63,1,fourthree,,,,,,,,,,,,,,,,,,,,,,,,,,,,,,,,,,,,,,,,,,,,,,,,,,,,,,,,,,,,,,,,,,,,,,,,,,,,,,,,,,,,,,,,,,,,,,,,,,,,,,,,,,,,,,,,,,,,,,,,,,,,,,,,,,,,,,,,,
,,5ff265688f62107122f931f2,2024-02-21_22h03.34.959,kallum_motion_pilot,2023.2.2,Linux x86_64,59.84082341,5ff265688f62107122f931f2,65d6bb0e977760de756971f7,65d6bef20a464a429d9a9174,0.0823,0.0825,1,82,244,15,1,fourthree,,,,,,,,,,,,,,,,,,,,,,,,,,,,,,,,,,,,,,,,,,,,,,,,,,,,,,,,,,,,,,,,,,,,,,,,,,,,,,,,,,,,,,,,,,,,,,,,,,,,,,,,,,,,,,,,,,,,,,,,,,,,,,,,,,,,,,,,,
,,5ff265688f62107122f931f2,2024-02-21_22h03.34.959,kallum_motion_pilot,2023.2.2,Linux x86_64,59.84082341,5ff265688f62107122f931f2,65d6bb0e977760de756971f7,65d6bef20a464a429d9a9174,0.0827,0.0828,1,83,245,30,1,fourtwo,,,,,,,,,,,,,,,,,,,,,,,,,,,,,,,,,,,,,,,,,,,,,,,,,,,,,,,,,,,,,,,,,,,,,,,,,,,,,,,,,,,,,,,,,,,,,,,,,,,,,,,,,,,,,,,,,,,,,,,,,,,,,,,,,,,,,,,,,
,,5ff265688f62107122f931f2,2024-02-21_22h03.34.959,kallum_motion_pilot,2023.2.2,Linux x86_64,59.84082341,5ff265688f62107122f931f2,65d6bb0e977760de756971f7,65d6bef20a464a429d9a9174,0.083,0.0831,1,84,246,144,1,fivesix,,,,,,,,,,,,,,,,,,,,,,,,,,,,,,,,,,,,,,,,,,,,,,,,,,,,,,,,,,,,,,,,,,,,,,,,,,,,,,,,,,,,,,,,,,,,,,,,,,,,,,,,,,,,,,,,,,,,,,,,,,,,,,,,,,,,,,,,,
,,5ff265688f62107122f931f2,2024-02-21_22h03.34.959,kallum_motion_pilot,2023.2.2,Linux x86_64,59.84082341,5ff265688f62107122f931f2,65d6bb0e977760de756971f7,65d6bef20a464a429d9a9174,0.0833,0.0834,1,85,247,103,1,eightseven,,,,,,,,,,,,,,,,,,,,,,,,,,,,,,,,,,,,,,,,,,,,,,,,,,,,,,,,,,,,,,,,,,,,,,,,,,,,,,,,,,,,,,,,,,,,,,,,,,,,,,,,,,,,,,,,,,,,,,,,,,,,,,,,,,,,,,,,,
,,5ff265688f62107122f931f2,2024-02-21_22h03.34.959,kallum_motion_pilot,2023.2.2,Linux x86_64,59.84082341,5ff265688f62107122f931f2,65d6bb0e977760de756971f7,65d6bef20a464a429d9a9174,0.0836,0.0837,1,86,248,123,1,sixeight,,,,,,,,,,,,,,,,,,,,,,,,,,,,,,,,,,,,,,,,,,,,,,,,,,,,,,,,,,,,,,,,,,,,,,,,,,,,,,,,,,,,,,,,,,,,,,,,,,,,,,,,,,,,,,,,,,,,,,,,,,,,,,,,,,,,,,,,,
,,5ff265688f62107122f931f2,2024-02-21_22h03.34.959,kallum_motion_pilot,2023.2.2,Linux x86_64,59.84082341,5ff265688f62107122f931f2,65d6bb0e977760de756971f7,65d6bef20a464a429d9a9174,0.0839,0.084,1,87,249,122,1,sixfive,,,,,,,,,,,,,,,,,,,,,,,,,,,,,,,,,,,,,,,,,,,,,,,,,,,,,,,,,,,,,,,,,,,,,,,,,,,,,,,,,,,,,,,,,,,,,,,,,,,,,,,,,,,,,,,,,,,,,,,,,,,,,,,,,,,,,,,,,
,,5ff265688f62107122f931f2,2024-02-21_22h03.34.959,kallum_motion_pilot,2023.2.2,Linux x86_64,59.84082341,5ff265688f62107122f931f2,65d6bb0e977760de756971f7,65d6bef20a464a429d9a9174,0.0842,0.0843,1,88,250,14,1,fourtwo,,,,,,,,,,,,,,,,,,,,,,,,,,,,,,,,,,,,,,,,,,,,,,,,,,,,,,,,,,,,,,,,,,,,,,,,,,,,,,,,,,,,,,,,,,,,,,,,,,,,,,,,,,,,,,,,,,,,,,,,,,,,,,,,,,,,,,,,,
,,5ff265688f62107122f931f2,2024-02-21_22h03.34.959,kallum_motion_pilot,2023.2.2,Linux x86_64,59.84082341,5ff265688f62107122f931f2,65d6bb0e977760de756971f7,65d6bef20a464a429d9a9174,0.0845,0.0846,1,89,251,133,1,seveneight,,,,,,,,,,,,,,,,,,,,,,,,,,,,,,,,,,,,,,,,,,,,,,,,,,,,,,,,,,,,,,,,,,,,,,,,,,,,,,,,,,,,,,,,,,,,,,,,,,,,,,,,,,,,,,,,,,,,,,,,,,,,,,,,,,,,,,,,,
,,5ff265688f62107122f931f2,2024-02-21_22h03.34.959,kallum_motion_pilot,2023.2.2,Linux x86_64,59.84082341,5ff265688f62107122f931f2,65d6bb0e977760de756971f7,65d6bef20a464a429d9a9174,0.0848,0.085,1,90,252,55,1,fourthree,,,,,,,,,,,,,,,,,,,,,,,,,,,,,,,,,,,,,,,,,,,,,,,,,,,,,,,,,,,,,,,,,,,,,,,,,,,,,,,,,,,,,,,,,,,,,,,,,,,,,,,,,,,,,,,,,,,,,,,,,,,,,,,,,,,,,,,,,
,,5ff265688f62107122f931f2,2024-02-21_22h03.34.959,kallum_motion_pilot,2023.2.2,Linux x86_64,59.84082341,5ff265688f62107122f931f2,65d6bb0e977760de756971f7,65d6bef20a464a429d9a9174,0.0851,0.0853,1,91,253,147,1,sixeight,,,,,,,,,,,,,,,,,,,,,,,,,,,,,,,,,,,,,,,,,,,,,,,,,,,,,,,,,,,,,,,,,,,,,,,,,,,,,,,,,,,,,,,,,,,,,,,,,,,,,,,,,,,,,,,,,,,,,,,,,,,,,,,,,,,,,,,,,
,,5ff265688f62107122f931f2,2024-02-21_22h03.34.959,kallum_motion_pilot,2023.2.2,Linux x86_64,59.84082341,5ff265688f62107122f931f2,65d6bb0e977760de756971f7,65d6bef20a464a429d9a9174,0.0854,0.0856,1,92,254,65,1,onethree,,,,,,,,,,,,,,,,,,,,,,,,,,,,,,,,,,,,,,,,,,,,,,,,,,,,,,,,,,,,,,,,,,,,,,,,,,,,,,,,,,,,,,,,,,,,,,,,,,,,,,,,,,,,,,,,,,,,,,,,,,,,,,,,,,,,,,,,,
,,5ff265688f62107122f931f2,2024-02-21_22h03.34.959,kallum_motion_pilot,2023.2.2,Linux x86_64,59.84082341,5ff265688f62107122f931f2,65d6bb0e977760de756971f7,65d6bef20a464a429d9a9174,0.0858,0.0859,1,93,255,64,1,onetwo,,,,,,,,,,,,,,,,,,,,,,,,,,,,,,,,,,,,,,,,,,,,,,,,,,,,,,,,,,,,,,,,,,,,,,,,,,,,,,,,,,,,,,,,,,,,,,,,,,,,,,,,,,,,,,,,,,,,,,,,,,,,,,,,,,,,,,,,,
,,5ff265688f62107122f931f2,2024-02-21_22h03.34.959,kallum_motion_pilot,2023.2.2,Linux x86_64,59.84082341,5ff265688f62107122f931f2,65d6bb0e977760de756971f7,65d6bef20a464a429d9a9174,0.0861,0.0863,1,94,256,161,1,fiveseven,,,,,,,,,,,,,,,,,,,,,,,,,,,,,,,,,,,,,,,,,,,,,,,,,,,,,,,,,,,,,,,,,,,,,,,,,,,,,,,,,,,,,,,,,,,,,,,,,,,,,,,,,,,,,,,,,,,,,,,,,,,,,,,,,,,,,,,,,
,,5ff265688f62107122f931f2,2024-02-21_22h03.34.959,kallum_motion_pilot,2023.2.2,Linux x86_64,59.84082341,5ff265688f62107122f931f2,65d6bb0e977760de756971f7,65d6bef20a464a429d9a9174,0.0864,0.0865,1,95,257,121,1,fiveseven,,,,,,,,,,,,,,,,,,,,,,,,,,,,,,,,,,,,,,,,,,,,,,,,,,,,,,,,,,,,,,,,,,,,,,,,,,,,,,,,,,,,,,,,,,,,,,,,,,,,,,,,,,,,,,,,,,,,,,,,,,,,,,,,,,,,,,,,,
,,5ff265688f62107122f931f2,2024-02-21_22h03.34.959,kallum_motion_pilot,2023.2.2,Linux x86_64,59.84082341,5ff265688f62107122f931f2,65d6bb0e977760de756971f7,65d6bef20a464a429d9a9174,0.0866,0.0867,1,96,258,45,1,threefour,,,,,,,,,,,,,,,,,,,,,,,,,,,,,,,,,,,,,,,,,,,,,,,,,,,,,,,,,,,,,,,,,,,,,,,,,,,,,,,,,,,,,,,,,,,,,,,,,,,,,,,,,,,,,,,,,,,,,,,,,,,,,,,,,,,,,,,,,
,,5ff265688f62107122f931f2,2024-02-21_22h03.34.959,kallum_motion_pilot,2023.2.2,Linux x86_64,59.84082341,5ff265688f62107122f931f2,65d6bb0e977760de756971f7,65d6bef20a464a429d9a9174,0.0868,0.0869,1,97,259,126,1,eightsix,,,,,,,,,,,,,,,,,,,,,,,,,,,,,,,,,,,,,,,,,,,,,,,,,,,,,,,,,,,,,,,,,,,,,,,,,,,,,,,,,,,,,,,,,,,,,,,,,,,,,,,,,,,,,,,,,,,,,,,,,,,,,,,,,,,,,,,,,
,,5ff265688f62107122f931f2,2024-02-21_22h03.34.959,kallum_motion_pilot,2023.2.2,Linux x86_64,59.84082341,5ff265688f62107122f931f2,65d6bb0e977760de756971f7,65d6bef20a464a429d9a9174,0.087,0.0871,1,98,260,37,1,threefour,,,,,,,,,,,,,,,,,,,,,,,,,,,,,,,,,,,,,,,,,,,,,,,,,,,,,,,,,,,,,,,,,,,,,,,,,,,,,,,,,,,,,,,,,,,,,,,,,,,,,,,,,,,,,,,,,,,,,,,,,,,,,,,,,,,,,,,,,
,,5ff265688f62107122f931f2,2024-02-21_22h03.34.959,kallum_motion_pilot,2023.2.2,Linux x86_64,59.84082341,5ff265688f62107122f931f2,65d6bb0e977760de756971f7,65d6bef20a464a429d9a9174,0.0873,0.0874,1,99,261,81,1,fiveseven,,,,,,,,,,,,,,,,,,,,,,,,,,,,,,,,,,,,,,,,,,,,,,,,,,,,,,,,,,,,,,,,,,,,,,,,,,,,,,,,,,,,,,,,,,,,,,,,,,,,,,,,,,,,,,,,,,,,,,,,,,,,,,,,,,,,,,,,,
,,5ff265688f62107122f931f2,2024-02-21_22h03.34.959,kallum_motion_pilot,2023.2.2,Linux x86_64,59.84082341,5ff265688f62107122f931f2,65d6bb0e977760de756971f7,65d6bef20a464a429d9a9174,0.0876,0.0877,1,100,262,66,1,twoone,,,,,,,,,,,,,,,,,,,,,,,,,,,,,,,,,,,,,,,,,,,,,,,,,,,,,,,,,,,,,,,,,,,,,,,,,,,,,,,,,,,,,,,,,,,,,,,,,,,,,,,,,,,,,,,,,,,,,,,,,,,,,,,,,,,,,,,,,
,,5ff265688f62107122f931f2,2024-02-21_22h03.34.959,kallum_motion_pilot,2023.2.2,Linux x86_64,59.84082341,5ff265688f62107122f931f2,65d6bb0e977760de756971f7,65d6bef20a464a429d9a9174,0.0878,0.088,1,101,263,33,1,onethree,,,,,,,,,,,,,,,,,,,,,,,,,,,,,,,,,,,,,,,,,,,,,,,,,,,,,,,,,,,,,,,,,,,,,,,,,,,,,,,,,,,,,,,,,,,,,,,,,,,,,,,,,,,,,,,,,,,,,,,,,,,,,,,,,,,,,,,,,
,,5ff265688f62107122f931f2,2024-02-21_22h03.34.959,kallum_motion_pilot,2023.2.2,Linux x86_64,59.84082341,5ff265688f62107122f931f2,65d6bb0e977760de756971f7,65d6bef20a464a429d9a9174,0.0881,0.0882,1,102,264,110,1,eightsix,,,,,,,,,,,,,,,,,,,,,,,,,,,,,,,,,,,,,,,,,,,,,,,,,,,,,,,,,,,,,,,,,,,,,,,,,,,,,,,,,,,,,,,,,,,,,,,,,,,,,,,,,,,,,,,,,,,,,,,,,,,,,,,,,,,,,,,,,
,,5ff265688f62107122f931f2,2024-02-21_22h03.34.959,kallum_motion_pilot,2023.2.2,Linux x86_64,59.84082341,5ff265688f62107122f931f2,65d6bb0e977760de756971f7,65d6bef20a464a429d9a9174,0.0884,0.0886,1,103,265,32,1,onetwo,,,,,,,,,,,,,,,,,,,,,,,,,,,,,,,,,,,,,,,,,,,,,,,,,,,,,,,,,,,,,,,,,,,,,,,,,,,,,,,,,,,,,,,,,,,,,,,,,,,,,,,,,,,,,,,,,,,,,,,,,,,,,,,,,,,,,,,,,
,,5ff265688f62107122f931f2,2024-02-21_22h03.34.959,kallum_motion_pilot,2023.2.2,Linux x86_64,59.84082341,5ff265688f62107122f931f2,65d6bb0e977760de756971f7,65d6bef20a464a429d9a9174,0.0886,0.0888,1,104,266,12,1,threeone,,,,,,,,,,,,,,,,,,,,,,,,,,,,,,,,,,,,,,,,,,,,,,,,,,,,,,,,,,,,,,,,,,,,,,,,,,,,,,,,,,,,,,,,,,,,,,,,,,,,,,,,,,,,,,,,,,,,,,,,,,,,,,,,,,,,,,,,,
,,5ff265688f62107122f931f2,2024-02-21_22h03.34.959,kallum_motion_pilot,2023.2.2,Linux x86_64,59.84082341,5ff265688f62107122f931f2,65d6bb0e977760de756971f7,65d6bef20a464a429d9a9174,0.0889,0.089,1,105,267,97,1,fiveseven,,,,,,,,,,,,,,,,,,,,,,,,,,,,,,,,,,,,,,,,,,,,,,,,,,,,,,,,,,,,,,,,,,,,,,,,,,,,,,,,,,,,,,,,,,,,,,,,,,,,,,,,,,,,,,,,,,,,,,,,,,,,,,,,,,,,,,,,,
,,5ff265688f62107122f931f2,2024-02-21_22h03.34.959,kallum_motion_pilot,2023.2.2,Linux x86_64,59.84082341,5ff265688f62107122f931f2,65d6bb0e977760de756971f7,65d6bef20a464a429d9a9174,0.0891,0.0892,1,106,268,98,1,sixfive,,,,,,,,,,,,,,,,,,,,,,,,,,,,,,,,,,,,,,,,,,,,,,,,,,,,,,,,,,,,,,,,,,,,,,,,,,,,,,,,,,,,,,,,,,,,,,,,,,,,,,,,,,,,,,,,,,,,,,,,,,,,,,,,,,,,,,,,,
,,5ff265688f62107122f931f2,2024-02-21_22h03.34.959,kallum_motion_pilot,2023.2.2,Linux x86_64,59.84082341,5ff265688f62107122f931f2,65d6bb0e977760de756971f7,65d6bef20a464a429d9a9174,0.0894,0.0895,1,107,269,135,1,eightseven,,,,,,,,,,,,,,,,,,,,,,,,,,,,,,,,,,,,,,,,,,,,,,,,,,,,,,,,,,,,,,,,,,,,,,,,,,,,,,,,,,,,,,,,,,,,,,,,,,,,,,,,,,,,,,,,,,,,,,,,,,,,,,,,,,,,,,,,,
,,5ff265688f62107122f931f2,2024-02-21_22h03.34.959,kallum_motion_pilot,2023.2.2,Linux x86_64,59.84082341,5ff265688f62107122f931f2,65d6bb0e977760de756971f7,65d6bef20a464a429d9a9174,0.0896,0.0897,1,108,270,47,1,fourthree,,,,,,,,,,,,,,,,,,,,,,,,,,,,,,,,,,,,,,,,,,,,,,,,,,,,,,,,,,,,,,,,,,,,,,,,,,,,,,,,,,,,,,,,,,,,,,,,,,,,,,,,,,,,,,,,,,,,,,,,,,,,,,,,,,,,,,,,,
,,5ff265688f62107122f931f2,2024-02-21_22h03.34.959,kallum_motion_pilot,2023.2.2,Linux x86_64,59.84082341,5ff265688f62107122f931f2,65d6bb0e977760de756971f7,65d6bef20a464a429d9a9174,0.0898,0.09,1,109,271,69,1,threefour,,,,,,,,,,,,,,,,,,,,,,,,,,,,,,,,,,,,,,,,,,,,,,,,,,,,,,,,,,,,,,,,,,,,,,,,,,,,,,,,,,,,,,,,,,,,,,,,,,,,,,,,,,,,,,,,,,,,,,,,,,,,,,,,,,,,,,,,,
,,5ff265688f62107122f931f2,2024-02-21_22h03.34.959,kallum_motion_pilot,2023.2.2,Linux x86_64,59.84082341,5ff265688f62107122f931f2,65d6bb0e977760de756971f7,65d6bef20a464a429d9a9174,0.0901,0.0902,1,110,272,51,1,twofour,,,,,,,,,,,,,,,,,,,,,,,,,,,,,,,,,,,,,,,,,,,,,,,,,,,,,,,,,,,,,,,,,,,,,,,,,,,,,,,,,,,,,,,,,,,,,,,,,,,,,,,,,,,,,,,,,,,,,,,,,,,,,,,,,,,,,,,,,
