startup.started,startup.stopped,Prolific ID*,date,expName,psychopyVersion,OS,frameRate,participant,study_id,session,stimpositions.started,stimpositions.stopped,hardcoded_stimulus_positions.thisRepN,hardcoded_stimulus_positions.thisTrialN,hardcoded_stimulus_positions.thisN,hardcoded_stimulus_positions.thisIndex,hardcoded_stimulus_positions.ran,StimulusPos,stimorientation.started,stimorientation.stopped,prac_stimorientation_import_loop.thisRepN,prac_stimorientation_import_loop.thisTrialN,prac_stimorientation_import_loop.thisN,prac_stimorientation_import_loop.thisIndex,prac_stimorientation_import_loop.ran,Stimorientation,welcome_instr.started,welcome_instr.stopped,key_resp.keys,key_resp.rt,key_resp.duration,response_steppedout_1.started,response_steppedout_1.stopped,key_resp_20.keys,key_resp_20.rt,key_resp_20.duration,response_steppedout_2.started,response_steppedout_2.stopped,key_resp_19.keys,key_resp_19.rt,key_resp_19.duration,stim_response_instr.started,stim_response_instr.stopped,key_resp_15.keys,key_resp_15.rt,key_resp_15.duration,direction_instr_2.started,direction_instr_2.stopped,key_resp_9.keys,key_resp_9.rt,key_resp_9.duration,instr_prac.started,instr_prac.stopped,key_resp_10.keys,key_resp_10.rt,key_resp_10.duration,Stim1_display_prac.started,Stim1_display_prac.stopped,Ecc,Circle1_ori,Circle2_ori,response_prac.started,similarity,response_time,response_prac.stopped,mouse_5.x,mouse_5.y,mouse_5.leftButton,mouse_5.midButton,mouse_5.rightButton,mouse_5.clicked_name,responseprac_feedback.started,responseprac_feedback.stopped,summary2_prac.started,summary2_prac.stopped,mouse_6.x,mouse_6.y,mouse_6.leftButton,mouse_6.midButton,mouse_6.rightButton,mouse_6.clicked_name,duringprac.thisRepN,duringprac.thisTrialN,duringprac.thisN,duringprac.thisIndex,duringprac.ran,begin.started,begin.stopped,key_resp_22.keys,key_resp_22.rt,key_resp_22.duration,Stim1_display.started,Stim1_display.stopped,circle1_ori,circle2_ori,circle1_SF,circle2_SF,response.started,response.stopped,mouse.x,mouse.y,mouse.leftButton,mouse.midButton,mouse.rightButton,mouse.clicked_name,trialnumber,double_pass.thisRepN,double_pass.thisTrialN,double_pass.thisN,double_pass.thisIndex,double_pass.ran,double_pass.order,main_trial.thisRepN,main_trial.thisTrialN,main_trial.thisN,main_trial.thisIndex,main_trial.ran,main_trial.order,Trial_Counter,Catch,Frequencies,response_2.started,response_2.stopped,mouse_2.x,mouse_2.y,mouse_2.leftButton,mouse_2.midButton,mouse_2.rightButton,mouse_2.clicked_name,special_trial.started,special_trial.stopped,catch_1.started,catch_1.stopped,mouse_3.x,mouse_3.y,mouse_3.leftButton,mouse_3.midButton,mouse_3.rightButton,catchresponse,catchnumber,response_time_catch,response_sum.started,response_sum.stopped,mouse_11.x,mouse_11.y,mouse_11.leftButton,mouse_11.midButton,mouse_11.rightButton,flip_presentation_sequence_for_double_pass.started,flip_presentation_sequence_for_double_pass.stopped,goodbye.started,goodbye.stopped,key_resp_3.keys,key_resp_3.rt,key_resp_3.duration
0.0006,0.0008,65d6bb0e977760de756971f7,2024-02-22_05h45.48.070,kallum_motion_pilot,2023.2.2,Win32,59.88023952,60087e9189ddb34b79b08be5,65d6bb0e977760de756971f7,65d6d0186cbfc377f68bf130,,,,,,,,,,,,,,,,,,,,,,,,,,,,,,,,,,,,,,,,,,,,,,,,,,,,,,,,,,,,,,,,,,,,,,,,,,,,,,,,,,,,,,,,,,,,,,,,,,,,,,,,,,,,,,,,,,,,,,,,,,,,,,,,,,,,,,,,,,,,,,,,,
,,65d6bb0e977760de756971f7,2024-02-22_05h45.48.070,kallum_motion_pilot,2023.2.2,Win32,59.88023952,60087e9189ddb34b79b08be5,65d6bb0e977760de756971f7,65d6d0186cbfc377f68bf130,0.0336,0.0338,0,0,0,83,1,sixeight,,,,,,,,,,,,,,,,,,,,,,,,,,,,,,,,,,,,,,,,,,,,,,,,,,,,,,,,,,,,,,,,,,,,,,,,,,,,,,,,,,,,,,,,,,,,,,,,,,,,,,,,,,,,,,,,,,,,,,,,,,,,,,,,,,,,,,,,,
,,65d6bb0e977760de756971f7,2024-02-22_05h45.48.070,kallum_motion_pilot,2023.2.2,Win32,59.88023952,60087e9189ddb34b79b08be5,65d6bb0e977760de756971f7,65d6d0186cbfc377f68bf130,0.0342,0.0342,0,1,1,17,1,onethree,,,,,,,,,,,,,,,,,,,,,,,,,,,,,,,,,,,,,,,,,,,,,,,,,,,,,,,,,,,,,,,,,,,,,,,,,,,,,,,,,,,,,,,,,,,,,,,,,,,,,,,,,,,,,,,,,,,,,,,,,,,,,,,,,,,,,,,,,
,,65d6bb0e977760de756971f7,2024-02-22_05h45.48.070,kallum_motion_pilot,2023.2.2,Win32,59.88023952,60087e9189ddb34b79b08be5,65d6bb0e977760de756971f7,65d6d0186cbfc377f68bf130,0.0344,0.0344,0,2,2,99,1,sixeight,,,,,,,,,,,,,,,,,,,,,,,,,,,,,,,,,,,,,,,,,,,,,,,,,,,,,,,,,,,,,,,,,,,,,,,,,,,,,,,,,,,,,,,,,,,,,,,,,,,,,,,,,,,,,,,,,,,,,,,,,,,,,,,,,,,,,,,,,
,,65d6bb0e977760de756971f7,2024-02-22_05h45.48.070,kallum_motion_pilot,2023.2.2,Win32,59.88023952,60087e9189ddb34b79b08be5,65d6bb0e977760de756971f7,65d6d0186cbfc377f68bf130,0.0346,0.0346,0,3,3,144,1,fivesix,,,,,,,,,,,,,,,,,,,,,,,,,,,,,,,,,,,,,,,,,,,,,,,,,,,,,,,,,,,,,,,,,,,,,,,,,,,,,,,,,,,,,,,,,,,,,,,,,,,,,,,,,,,,,,,,,,,,,,,,,,,,,,,,,,,,,,,,,
,,65d6bb0e977760de756971f7,2024-02-22_05h45.48.070,kallum_motion_pilot,2023.2.2,Win32,59.88023952,60087e9189ddb34b79b08be5,65d6bb0e977760de756971f7,65d6d0186cbfc377f68bf130,0.0348,0.0349,0,4,4,102,1,eightsix,,,,,,,,,,,,,,,,,,,,,,,,,,,,,,,,,,,,,,,,,,,,,,,,,,,,,,,,,,,,,,,,,,,,,,,,,,,,,,,,,,,,,,,,,,,,,,,,,,,,,,,,,,,,,,,,,,,,,,,,,,,,,,,,,,,,,,,,,
,,65d6bb0e977760de756971f7,2024-02-22_05h45.48.070,kallum_motion_pilot,2023.2.2,Win32,59.88023952,60087e9189ddb34b79b08be5,65d6bb0e977760de756971f7,65d6d0186cbfc377f68bf130,0.0349,0.035,0,5,5,161,1,fiveseven,,,,,,,,,,,,,,,,,,,,,,,,,,,,,,,,,,,,,,,,,,,,,,,,,,,,,,,,,,,,,,,,,,,,,,,,,,,,,,,,,,,,,,,,,,,,,,,,,,,,,,,,,,,,,,,,,,,,,,,,,,,,,,,,,,,,,,,,,
,,65d6bb0e977760de756971f7,2024-02-22_05h45.48.070,kallum_motion_pilot,2023.2.2,Win32,59.88023952,60087e9189ddb34b79b08be5,65d6bb0e977760de756971f7,65d6d0186cbfc377f68bf130,0.0351,0.0351,0,6,6,93,1,seveneight,,,,,,,,,,,,,,,,,,,,,,,,,,,,,,,,,,,,,,,,,,,,,,,,,,,,,,,,,,,,,,,,,,,,,,,,,,,,,,,,,,,,,,,,,,,,,,,,,,,,,,,,,,,,,,,,,,,,,,,,,,,,,,,,,,,,,,,,,
,,65d6bb0e977760de756971f7,2024-02-22_05h45.48.070,kallum_motion_pilot,2023.2.2,Win32,59.88023952,60087e9189ddb34b79b08be5,65d6bb0e977760de756971f7,65d6d0186cbfc377f68bf130,0.0353,0.0353,0,7,7,132,1,sevenfive,,,,,,,,,,,,,,,,,,,,,,,,,,,,,,,,,,,,,,,,,,,,,,,,,,,,,,,,,,,,,,,,,,,,,,,,,,,,,,,,,,,,,,,,,,,,,,,,,,,,,,,,,,,,,,,,,,,,,,,,,,,,,,,,,,,,,,,,,
,,65d6bb0e977760de756971f7,2024-02-22_05h45.48.070,kallum_motion_pilot,2023.2.2,Win32,59.88023952,60087e9189ddb34b79b08be5,65d6bb0e977760de756971f7,65d6d0186cbfc377f68bf130,0.0355,0.0355,0,8,8,55,1,fourthree,,,,,,,,,,,,,,,,,,,,,,,,,,,,,,,,,,,,,,,,,,,,,,,,,,,,,,,,,,,,,,,,,,,,,,,,,,,,,,,,,,,,,,,,,,,,,,,,,,,,,,,,,,,,,,,,,,,,,,,,,,,,,,,,,,,,,,,,,
,,65d6bb0e977760de756971f7,2024-02-22_05h45.48.070,kallum_motion_pilot,2023.2.2,Win32,59.88023952,60087e9189ddb34b79b08be5,65d6bb0e977760de756971f7,65d6d0186cbfc377f68bf130,0.0357,0.0358,0,9,9,110,1,eightsix,,,,,,,,,,,,,,,,,,,,,,,,,,,,,,,,,,,,,,,,,,,,,,,,,,,,,,,,,,,,,,,,,,,,,,,,,,,,,,,,,,,,,,,,,,,,,,,,,,,,,,,,,,,,,,,,,,,,,,,,,,,,,,,,,,,,,,,,,
,,65d6bb0e977760de756971f7,2024-02-22_05h45.48.070,kallum_motion_pilot,2023.2.2,Win32,59.88023952,60087e9189ddb34b79b08be5,65d6bb0e977760de756971f7,65d6d0186cbfc377f68bf130,0.0359,0.0359,0,10,10,105,1,fiveseven,,,,,,,,,,,,,,,,,,,,,,,,,,,,,,,,,,,,,,,,,,,,,,,,,,,,,,,,,,,,,,,,,,,,,,,,,,,,,,,,,,,,,,,,,,,,,,,,,,,,,,,,,,,,,,,,,,,,,,,,,,,,,,,,,,,,,,,,,
,,65d6bb0e977760de756971f7,2024-02-22_05h45.48.070,kallum_motion_pilot,2023.2.2,Win32,59.88023952,60087e9189ddb34b79b08be5,65d6bb0e977760de756971f7,65d6d0186cbfc377f68bf130,0.036,0.036,0,11,11,122,1,sixfive,,,,,,,,,,,,,,,,,,,,,,,,,,,,,,,,,,,,,,,,,,,,,,,,,,,,,,,,,,,,,,,,,,,,,,,,,,,,,,,,,,,,,,,,,,,,,,,,,,,,,,,,,,,,,,,,,,,,,,,,,,,,,,,,,,,,,,,,,
,,65d6bb0e977760de756971f7,2024-02-22_05h45.48.070,kallum_motion_pilot,2023.2.2,Win32,59.88023952,60087e9189ddb34b79b08be5,65d6bb0e977760de756971f7,65d6d0186cbfc377f68bf130,0.0362,0.0362,0,12,12,22,1,fourtwo,,,,,,,,,,,,,,,,,,,,,,,,,,,,,,,,,,,,,,,,,,,,,,,,,,,,,,,,,,,,,,,,,,,,,,,,,,,,,,,,,,,,,,,,,,,,,,,,,,,,,,,,,,,,,,,,,,,,,,,,,,,,,,,,,,,,,,,,,
,,65d6bb0e977760de756971f7,2024-02-22_05h45.48.070,kallum_motion_pilot,2023.2.2,Win32,59.88023952,60087e9189ddb34b79b08be5,65d6bb0e977760de756971f7,65d6d0186cbfc377f68bf130,0.0363,0.0363,0,13,13,1,1,onethree,,,,,,,,,,,,,,,,,,,,,,,,,,,,,,,,,,,,,,,,,,,,,,,,,,,,,,,,,,,,,,,,,,,,,,,,,,,,,,,,,,,,,,,,,,,,,,,,,,,,,,,,,,,,,,,,,,,,,,,,,,,,,,,,,,,,,,,,,
,,65d6bb0e977760de756971f7,2024-02-22_05h45.48.070,kallum_motion_pilot,2023.2.2,Win32,59.88023952,60087e9189ddb34b79b08be5,65d6bb0e977760de756971f7,65d6d0186cbfc377f68bf130,0.0365,0.0365,0,14,14,3,1,twofour,,,,,,,,,,,,,,,,,,,,,,,,,,,,,,,,,,,,,,,,,,,,,,,,,,,,,,,,,,,,,,,,,,,,,,,,,,,,,,,,,,,,,,,,,,,,,,,,,,,,,,,,,,,,,,,,,,,,,,,,,,,,,,,,,,,,,,,,,
,,65d6bb0e977760de756971f7,2024-02-22_05h45.48.070,kallum_motion_pilot,2023.2.2,Win32,59.88023952,60087e9189ddb34b79b08be5,65d6bb0e977760de756971f7,65d6d0186cbfc377f68bf130,0.0366,0.0366,0,15,15,84,1,sevenfive,,,,,,,,,,,,,,,,,,,,,,,,,,,,,,,,,,,,,,,,,,,,,,,,,,,,,,,,,,,,,,,,,,,,,,,,,,,,,,,,,,,,,,,,,,,,,,,,,,,,,,,,,,,,,,,,,,,,,,,,,,,,,,,,,,,,,,,,,
,,65d6bb0e977760de756971f7,2024-02-22_05h45.48.070,kallum_motion_pilot,2023.2.2,Win32,59.88023952,60087e9189ddb34b79b08be5,65d6bb0e977760de756971f7,65d6d0186cbfc377f68bf130,0.0367,0.0368,0,16,16,40,1,onetwo,,,,,,,,,,,,,,,,,,,,,,,,,,,,,,,,,,,,,,,,,,,,,,,,,,,,,,,,,,,,,,,,,,,,,,,,,,,,,,,,,,,,,,,,,,,,,,,,,,,,,,,,,,,,,,,,,,,,,,,,,,,,,,,,,,,,,,,,,
,,65d6bb0e977760de756971f7,2024-02-22_05h45.48.070,kallum_motion_pilot,2023.2.2,Win32,59.88023952,60087e9189ddb34b79b08be5,65d6bb0e977760de756971f7,65d6d0186cbfc377f68bf130,0.0368,0.0369,0,17,17,2,1,twoone,,,,,,,,,,,,,,,,,,,,,,,,,,,,,,,,,,,,,,,,,,,,,,,,,,,,,,,,,,,,,,,,,,,,,,,,,,,,,,,,,,,,,,,,,,,,,,,,,,,,,,,,,,,,,,,,,,,,,,,,,,,,,,,,,,,,,,,,,
,,65d6bb0e977760de756971f7,2024-02-22_05h45.48.070,kallum_motion_pilot,2023.2.2,Win32,59.88023952,60087e9189ddb34b79b08be5,65d6bb0e977760de756971f7,65d6d0186cbfc377f68bf130,0.037,0.037,0,18,18,123,1,sixeight,,,,,,,,,,,,,,,,,,,,,,,,,,,,,,,,,,,,,,,,,,,,,,,,,,,,,,,,,,,,,,,,,,,,,,,,,,,,,,,,,,,,,,,,,,,,,,,,,,,,,,,,,,,,,,,,,,,,,,,,,,,,,,,,,,,,,,,,,
,,65d6bb0e977760de756971f7,2024-02-22_05h45.48.070,kallum_motion_pilot,2023.2.2,Win32,59.88023952,60087e9189ddb34b79b08be5,65d6bb0e977760de756971f7,65d6d0186cbfc377f68bf130,0.0372,0.0372,0,19,19,5,1,threefour,,,,,,,,,,,,,,,,,,,,,,,,,,,,,,,,,,,,,,,,,,,,,,,,,,,,,,,,,,,,,,,,,,,,,,,,,,,,,,,,,,,,,,,,,,,,,,,,,,,,,,,,,,,,,,,,,,,,,,,,,,,,,,,,,,,,,,,,,
,,65d6bb0e977760de756971f7,2024-02-22_05h45.48.070,kallum_motion_pilot,2023.2.2,Win32,59.88023952,60087e9189ddb34b79b08be5,65d6bb0e977760de756971f7,65d6d0186cbfc377f68bf130,0.0373,0.0374,0,20,20,112,1,fivesix,,,,,,,,,,,,,,,,,,,,,,,,,,,,,,,,,,,,,,,,,,,,,,,,,,,,,,,,,,,,,,,,,,,,,,,,,,,,,,,,,,,,,,,,,,,,,,,,,,,,,,,,,,,,,,,,,,,,,,,,,,,,,,,,,,,,,,,,,
,,65d6bb0e977760de756971f7,2024-02-22_05h45.48.070,kallum_motion_pilot,2023.2.2,Win32,59.88023952,60087e9189ddb34b79b08be5,65d6bb0e977760de756971f7,65d6d0186cbfc377f68bf130,0.0375,0.0375,0,21,21,147,1,sixeight,,,,,,,,,,,,,,,,,,,,,,,,,,,,,,,,,,,,,,,,,,,,,,,,,,,,,,,,,,,,,,,,,,,,,,,,,,,,,,,,,,,,,,,,,,,,,,,,,,,,,,,,,,,,,,,,,,,,,,,,,,,,,,,,,,,,,,,,,
,,65d6bb0e977760de756971f7,2024-02-22_05h45.48.070,kallum_motion_pilot,2023.2.2,Win32,59.88023952,60087e9189ddb34b79b08be5,65d6bb0e977760de756971f7,65d6d0186cbfc377f68bf130,0.0376,0.0377,0,22,22,24,1,onetwo,,,,,,,,,,,,,,,,,,,,,,,,,,,,,,,,,,,,,,,,,,,,,,,,,,,,,,,,,,,,,,,,,,,,,,,,,,,,,,,,,,,,,,,,,,,,,,,,,,,,,,,,,,,,,,,,,,,,,,,,,,,,,,,,,,,,,,,,,
,,65d6bb0e977760de756971f7,2024-02-22_05h45.48.070,kallum_motion_pilot,2023.2.2,Win32,59.88023952,60087e9189ddb34b79b08be5,65d6bb0e977760de756971f7,65d6d0186cbfc377f68bf130,0.0379,0.038,0,23,23,48,1,onetwo,,,,,,,,,,,,,,,,,,,,,,,,,,,,,,,,,,,,,,,,,,,,,,,,,,,,,,,,,,,,,,,,,,,,,,,,,,,,,,,,,,,,,,,,,,,,,,,,,,,,,,,,,,,,,,,,,,,,,,,,,,,,,,,,,,,,,,,,,
,,65d6bb0e977760de756971f7,2024-02-22_05h45.48.070,kallum_motion_pilot,2023.2.2,Win32,59.88023952,60087e9189ddb34b79b08be5,65d6bb0e977760de756971f7,65d6d0186cbfc377f68bf130,0.0381,0.0381,0,24,24,41,1,onethree,,,,,,,,,,,,,,,,,,,,,,,,,,,,,,,,,,,,,,,,,,,,,,,,,,,,,,,,,,,,,,,,,,,,,,,,,,,,,,,,,,,,,,,,,,,,,,,,,,,,,,,,,,,,,,,,,,,,,,,,,,,,,,,,,,,,,,,,,
,,65d6bb0e977760de756971f7,2024-02-22_05h45.48.070,kallum_motion_pilot,2023.2.2,Win32,59.88023952,60087e9189ddb34b79b08be5,65d6bb0e977760de756971f7,65d6d0186cbfc377f68bf130,0.0383,0.0383,0,25,25,148,1,sevenfive,,,,,,,,,,,,,,,,,,,,,,,,,,,,,,,,,,,,,,,,,,,,,,,,,,,,,,,,,,,,,,,,,,,,,,,,,,,,,,,,,,,,,,,,,,,,,,,,,,,,,,,,,,,,,,,,,,,,,,,,,,,,,,,,,,,,,,,,,
,,65d6bb0e977760de756971f7,2024-02-22_05h45.48.070,kallum_motion_pilot,2023.2.2,Win32,59.88023952,60087e9189ddb34b79b08be5,65d6bb0e977760de756971f7,65d6d0186cbfc377f68bf130,0.0384,0.0385,0,26,26,49,1,onethree,,,,,,,,,,,,,,,,,,,,,,,,,,,,,,,,,,,,,,,,,,,,,,,,,,,,,,,,,,,,,,,,,,,,,,,,,,,,,,,,,,,,,,,,,,,,,,,,,,,,,,,,,,,,,,,,,,,,,,,,,,,,,,,,,,,,,,,,,
,,65d6bb0e977760de756971f7,2024-02-22_05h45.48.070,kallum_motion_pilot,2023.2.2,Win32,59.88023952,60087e9189ddb34b79b08be5,65d6bb0e977760de756971f7,65d6d0186cbfc377f68bf130,0.0386,0.0386,0,27,27,137,1,fiveseven,,,,,,,,,,,,,,,,,,,,,,,,,,,,,,,,,,,,,,,,,,,,,,,,,,,,,,,,,,,,,,,,,,,,,,,,,,,,,,,,,,,,,,,,,,,,,,,,,,,,,,,,,,,,,,,,,,,,,,,,,,,,,,,,,,,,,,,,,
,,65d6bb0e977760de756971f7,2024-02-22_05h45.48.070,kallum_motion_pilot,2023.2.2,Win32,59.88023952,60087e9189ddb34b79b08be5,65d6bb0e977760de756971f7,65d6d0186cbfc377f68bf130,0.0387,0.0388,0,28,28,77,1,threefour,,,,,,,,,,,,,,,,,,,,,,,,,,,,,,,,,,,,,,,,,,,,,,,,,,,,,,,,,,,,,,,,,,,,,,,,,,,,,,,,,,,,,,,,,,,,,,,,,,,,,,,,,,,,,,,,,,,,,,,,,,,,,,,,,,,,,,,,,
,,65d6bb0e977760de756971f7,2024-02-22_05h45.48.070,kallum_motion_pilot,2023.2.2,Win32,59.88023952,60087e9189ddb34b79b08be5,65d6bb0e977760de756971f7,65d6d0186cbfc377f68bf130,0.0389,0.0389,0,29,29,62,1,fourtwo,,,,,,,,,,,,,,,,,,,,,,,,,,,,,,,,,,,,,,,,,,,,,,,,,,,,,,,,,,,,,,,,,,,,,,,,,,,,,,,,,,,,,,,,,,,,,,,,,,,,,,,,,,,,,,,,,,,,,,,,,,,,,,,,,,,,,,,,,
,,65d6bb0e977760de756971f7,2024-02-22_05h45.48.070,kallum_motion_pilot,2023.2.2,Win32,59.88023952,60087e9189ddb34b79b08be5,65d6bb0e977760de756971f7,65d6d0186cbfc377f68bf130,0.0391,0.0391,0,30,30,14,1,fourtwo,,,,,,,,,,,,,,,,,,,,,,,,,,,,,,,,,,,,,,,,,,,,,,,,,,,,,,,,,,,,,,,,,,,,,,,,,,,,,,,,,,,,,,,,,,,,,,,,,,,,,,,,,,,,,,,,,,,,,,,,,,,,,,,,,,,,,,,,,
,,65d6bb0e977760de756971f7,2024-02-22_05h45.48.070,kallum_motion_pilot,2023.2.2,Win32,59.88023952,60087e9189ddb34b79b08be5,65d6bb0e977760de756971f7,65d6d0186cbfc377f68bf130,0.0391,0.0392,0,31,31,42,1,twoone,,,,,,,,,,,,,,,,,,,,,,,,,,,,,,,,,,,,,,,,,,,,,,,,,,,,,,,,,,,,,,,,,,,,,,,,,,,,,,,,,,,,,,,,,,,,,,,,,,,,,,,,,,,,,,,,,,,,,,,,,,,,,,,,,,,,,,,,,
,,65d6bb0e977760de756971f7,2024-02-22_05h45.48.070,kallum_motion_pilot,2023.2.2,Win32,59.88023952,60087e9189ddb34b79b08be5,65d6bb0e977760de756971f7,65d6d0186cbfc377f68bf130,0.0393,0.0394,0,32,32,53,1,threefour,,,,,,,,,,,,,,,,,,,,,,,,,,,,,,,,,,,,,,,,,,,,,,,,,,,,,,,,,,,,,,,,,,,,,,,,,,,,,,,,,,,,,,,,,,,,,,,,,,,,,,,,,,,,,,,,,,,,,,,,,,,,,,,,,,,,,,,,,
,,65d6bb0e977760de756971f7,2024-02-22_05h45.48.070,kallum_motion_pilot,2023.2.2,Win32,59.88023952,60087e9189ddb34b79b08be5,65d6bb0e977760de756971f7,65d6d0186cbfc377f68bf130,0.0395,0.0395,0,33,33,151,1,eightseven,,,,,,,,,,,,,,,,,,,,,,,,,,,,,,,,,,,,,,,,,,,,,,,,,,,,,,,,,,,,,,,,,,,,,,,,,,,,,,,,,,,,,,,,,,,,,,,,,,,,,,,,,,,,,,,,,,,,,,,,,,,,,,,,,,,,,,,,,
,,65d6bb0e977760de756971f7,2024-02-22_05h45.48.070,kallum_motion_pilot,2023.2.2,Win32,59.88023952,60087e9189ddb34b79b08be5,65d6bb0e977760de756971f7,65d6d0186cbfc377f68bf130,0.0396,0.0397,0,34,34,51,1,twofour,,,,,,,,,,,,,,,,,,,,,,,,,,,,,,,,,,,,,,,,,,,,,,,,,,,,,,,,,,,,,,,,,,,,,,,,,,,,,,,,,,,,,,,,,,,,,,,,,,,,,,,,,,,,,,,,,,,,,,,,,,,,,,,,,,,,,,,,,
,,65d6bb0e977760de756971f7,2024-02-22_05h45.48.070,kallum_motion_pilot,2023.2.2,Win32,59.88023952,60087e9189ddb34b79b08be5,65d6bb0e977760de756971f7,65d6d0186cbfc377f68bf130,0.0398,0.0399,0,35,35,7,1,fourthree,,,,,,,,,,,,,,,,,,,,,,,,,,,,,,,,,,,,,,,,,,,,,,,,,,,,,,,,,,,,,,,,,,,,,,,,,,,,,,,,,,,,,,,,,,,,,,,,,,,,,,,,,,,,,,,,,,,,,,,,,,,,,,,,,,,,,,,,,
,,65d6bb0e977760de756971f7,2024-02-22_05h45.48.070,kallum_motion_pilot,2023.2.2,Win32,59.88023952,60087e9189ddb34b79b08be5,65d6bb0e977760de756971f7,65d6d0186cbfc377f68bf130,0.04,0.04,0,36,36,140,1,sevenfive,,,,,,,,,,,,,,,,,,,,,,,,,,,,,,,,,,,,,,,,,,,,,,,,,,,,,,,,,,,,,,,,,,,,,,,,,,,,,,,,,,,,,,,,,,,,,,,,,,,,,,,,,,,,,,,,,,,,,,,,,,,,,,,,,,,,,,,,,
,,65d6bb0e977760de756971f7,2024-02-22_05h45.48.070,kallum_motion_pilot,2023.2.2,Win32,59.88023952,60087e9189ddb34b79b08be5,65d6bb0e977760de756971f7,65d6d0186cbfc377f68bf130,0.0401,0.0401,0,37,37,19,1,twofour,,,,,,,,,,,,,,,,,,,,,,,,,,,,,,,,,,,,,,,,,,,,,,,,,,,,,,,,,,,,,,,,,,,,,,,,,,,,,,,,,,,,,,,,,,,,,,,,,,,,,,,,,,,,,,,,,,,,,,,,,,,,,,,,,,,,,,,,,
,,65d6bb0e977760de756971f7,2024-02-22_05h45.48.070,kallum_motion_pilot,2023.2.2,Win32,59.88023952,60087e9189ddb34b79b08be5,65d6bb0e977760de756971f7,65d6d0186cbfc377f68bf130,0.0403,0.0404,0,38,38,6,1,fourtwo,,,,,,,,,,,,,,,,,,,,,,,,,,,,,,,,,,,,,,,,,,,,,,,,,,,,,,,,,,,,,,,,,,,,,,,,,,,,,,,,,,,,,,,,,,,,,,,,,,,,,,,,,,,,,,,,,,,,,,,,,,,,,,,,,,,,,,,,,
,,65d6bb0e977760de756971f7,2024-02-22_05h45.48.070,kallum_motion_pilot,2023.2.2,Win32,59.88023952,60087e9189ddb34b79b08be5,65d6bb0e977760de756971f7,65d6d0186cbfc377f68bf130,0.0406,0.0406,0,39,39,103,1,eightseven,,,,,,,,,,,,,,,,,,,,,,,,,,,,,,,,,,,,,,,,,,,,,,,,,,,,,,,,,,,,,,,,,,,,,,,,,,,,,,,,,,,,,,,,,,,,,,,,,,,,,,,,,,,,,,,,,,,,,,,,,,,,,,,,,,,,,,,,,
,,65d6bb0e977760de756971f7,2024-02-22_05h45.48.070,kallum_motion_pilot,2023.2.2,Win32,59.88023952,60087e9189ddb34b79b08be5,65d6bb0e977760de756971f7,65d6d0186cbfc377f68bf130,0.0409,0.0409,0,40,40,15,1,fourthree,,,,,,,,,,,,,,,,,,,,,,,,,,,,,,,,,,,,,,,,,,,,,,,,,,,,,,,,,,,,,,,,,,,,,,,,,,,,,,,,,,,,,,,,,,,,,,,,,,,,,,,,,,,,,,,,,,,,,,,,,,,,,,,,,,,,,,,,,
,,65d6bb0e977760de756971f7,2024-02-22_05h45.48.070,kallum_motion_pilot,2023.2.2,Win32,59.88023952,60087e9189ddb34b79b08be5,65d6bb0e977760de756971f7,65d6d0186cbfc377f68bf130,0.041,0.0411,0,41,41,109,1,seveneight,,,,,,,,,,,,,,,,,,,,,,,,,,,,,,,,,,,,,,,,,,,,,,,,,,,,,,,,,,,,,,,,,,,,,,,,,,,,,,,,,,,,,,,,,,,,,,,,,,,,,,,,,,,,,,,,,,,,,,,,,,,,,,,,,,,,,,,,,
,,65d6bb0e977760de756971f7,2024-02-22_05h45.48.070,kallum_motion_pilot,2023.2.2,Win32,59.88023952,60087e9189ddb34b79b08be5,65d6bb0e977760de756971f7,65d6d0186cbfc377f68bf130,0.0413,0.0414,0,42,42,154,1,sixfive,,,,,,,,,,,,,,,,,,,,,,,,,,,,,,,,,,,,,,,,,,,,,,,,,,,,,,,,,,,,,,,,,,,,,,,,,,,,,,,,,,,,,,,,,,,,,,,,,,,,,,,,,,,,,,,,,,,,,,,,,,,,,,,,,,,,,,,,,
,,65d6bb0e977760de756971f7,2024-02-22_05h45.48.070,kallum_motion_pilot,2023.2.2,Win32,59.88023952,60087e9189ddb34b79b08be5,65d6bb0e977760de756971f7,65d6d0186cbfc377f68bf130,0.0415,0.0417,0,43,43,59,1,twofour,,,,,,,,,,,,,,,,,,,,,,,,,,,,,,,,,,,,,,,,,,,,,,,,,,,,,,,,,,,,,,,,,,,,,,,,,,,,,,,,,,,,,,,,,,,,,,,,,,,,,,,,,,,,,,,,,,,,,,,,,,,,,,,,,,,,,,,,,
,,65d6bb0e977760de756971f7,2024-02-22_05h45.48.070,kallum_motion_pilot,2023.2.2,Win32,59.88023952,60087e9189ddb34b79b08be5,65d6bb0e977760de756971f7,65d6d0186cbfc377f68bf130,0.0419,0.0419,0,44,44,57,1,onethree,,,,,,,,,,,,,,,,,,,,,,,,,,,,,,,,,,,,,,,,,,,,,,,,,,,,,,,,,,,,,,,,,,,,,,,,,,,,,,,,,,,,,,,,,,,,,,,,,,,,,,,,,,,,,,,,,,,,,,,,,,,,,,,,,,,,,,,,,
,,65d6bb0e977760de756971f7,2024-02-22_05h45.48.070,kallum_motion_pilot,2023.2.2,Win32,59.88023952,60087e9189ddb34b79b08be5,65d6bb0e977760de756971f7,65d6d0186cbfc377f68bf130,0.0421,0.0421,0,45,45,114,1,sixfive,,,,,,,,,,,,,,,,,,,,,,,,,,,,,,,,,,,,,,,,,,,,,,,,,,,,,,,,,,,,,,,,,,,,,,,,,,,,,,,,,,,,,,,,,,,,,,,,,,,,,,,,,,,,,,,,,,,,,,,,,,,,,,,,,,,,,,,,,
,,65d6bb0e977760de756971f7,2024-02-22_05h45.48.070,kallum_motion_pilot,2023.2.2,Win32,59.88023952,60087e9189ddb34b79b08be5,65d6bb0e977760de756971f7,65d6d0186cbfc377f68bf130,0.0422,0.0423,0,46,46,86,1,eightsix,,,,,,,,,,,,,,,,,,,,,,,,,,,,,,,,,,,,,,,,,,,,,,,,,,,,,,,,,,,,,,,,,,,,,,,,,,,,,,,,,,,,,,,,,,,,,,,,,,,,,,,,,,,,,,,,,,,,,,,,,,,,,,,,,,,,,,,,,
,,65d6bb0e977760de756971f7,2024-02-22_05h45.48.070,kallum_motion_pilot,2023.2.2,Win32,59.88023952,60087e9189ddb34b79b08be5,65d6bb0e977760de756971f7,65d6d0186cbfc377f68bf130,0.0423,0.0424,0,47,47,46,1,fourtwo,,,,,,,,,,,,,,,,,,,,,,,,,,,,,,,,,,,,,,,,,,,,,,,,,,,,,,,,,,,,,,,,,,,,,,,,,,,,,,,,,,,,,,,,,,,,,,,,,,,,,,,,,,,,,,,,,,,,,,,,,,,,,,,,,,,,,,,,,
,,65d6bb0e977760de756971f7,2024-02-22_05h45.48.070,kallum_motion_pilot,2023.2.2,Win32,59.88023952,60087e9189ddb34b79b08be5,65d6bb0e977760de756971f7,65d6d0186cbfc377f68bf130,0.0425,0.0426,0,48,48,27,1,twofour,,,,,,,,,,,,,,,,,,,,,,,,,,,,,,,,,,,,,,,,,,,,,,,,,,,,,,,,,,,,,,,,,,,,,,,,,,,,,,,,,,,,,,,,,,,,,,,,,,,,,,,,,,,,,,,,,,,,,,,,,,,,,,,,,,,,,,,,,
,,65d6bb0e977760de756971f7,2024-02-22_05h45.48.070,kallum_motion_pilot,2023.2.2,Win32,59.88023952,60087e9189ddb34b79b08be5,65d6bb0e977760de756971f7,65d6d0186cbfc377f68bf130,0.0427,0.0427,0,49,49,152,1,fivesix,,,,,,,,,,,,,,,,,,,,,,,,,,,,,,,,,,,,,,,,,,,,,,,,,,,,,,,,,,,,,,,,,,,,,,,,,,,,,,,,,,,,,,,,,,,,,,,,,,,,,,,,,,,,,,,,,,,,,,,,,,,,,,,,,,,,,,,,,
,,65d6bb0e977760de756971f7,2024-02-22_05h45.48.070,kallum_motion_pilot,2023.2.2,Win32,59.88023952,60087e9189ddb34b79b08be5,65d6bb0e977760de756971f7,65d6d0186cbfc377f68bf130,0.0428,0.0429,0,50,50,9,1,onethree,,,,,,,,,,,,,,,,,,,,,,,,,,,,,,,,,,,,,,,,,,,,,,,,,,,,,,,,,,,,,,,,,,,,,,,,,,,,,,,,,,,,,,,,,,,,,,,,,,,,,,,,,,,,,,,,,,,,,,,,,,,,,,,,,,,,,,,,,
,,65d6bb0e977760de756971f7,2024-02-22_05h45.48.070,kallum_motion_pilot,2023.2.2,Win32,59.88023952,60087e9189ddb34b79b08be5,65d6bb0e977760de756971f7,65d6d0186cbfc377f68bf130,0.043,0.043,0,51,51,34,1,twoone,,,,,,,,,,,,,,,,,,,,,,,,,,,,,,,,,,,,,,,,,,,,,,,,,,,,,,,,,,,,,,,,,,,,,,,,,,,,,,,,,,,,,,,,,,,,,,,,,,,,,,,,,,,,,,,,,,,,,,,,,,,,,,,,,,,,,,,,,
,,65d6bb0e977760de756971f7,2024-02-22_05h45.48.070,kallum_motion_pilot,2023.2.2,Win32,59.88023952,60087e9189ddb34b79b08be5,65d6bb0e977760de756971f7,65d6d0186cbfc377f68bf130,0.0431,0.0432,0,52,52,54,1,fourtwo,,,,,,,,,,,,,,,,,,,,,,,,,,,,,,,,,,,,,,,,,,,,,,,,,,,,,,,,,,,,,,,,,,,,,,,,,,,,,,,,,,,,,,,,,,,,,,,,,,,,,,,,,,,,,,,,,,,,,,,,,,,,,,,,,,,,,,,,,
,,65d6bb0e977760de756971f7,2024-02-22_05h45.48.070,kallum_motion_pilot,2023.2.2,Win32,59.88023952,60087e9189ddb34b79b08be5,65d6bb0e977760de756971f7,65d6d0186cbfc377f68bf130,0.0432,0.0433,0,53,53,52,1,threeone,,,,,,,,,,,,,,,,,,,,,,,,,,,,,,,,,,,,,,,,,,,,,,,,,,,,,,,,,,,,,,,,,,,,,,,,,,,,,,,,,,,,,,,,,,,,,,,,,,,,,,,,,,,,,,,,,,,,,,,,,,,,,,,,,,,,,,,,,
,,65d6bb0e977760de756971f7,2024-02-22_05h45.48.070,kallum_motion_pilot,2023.2.2,Win32,59.88023952,60087e9189ddb34b79b08be5,65d6bb0e977760de756971f7,65d6d0186cbfc377f68bf130,0.0434,0.0435,0,54,54,31,1,fourthree,,,,,,,,,,,,,,,,,,,,,,,,,,,,,,,,,,,,,,,,,,,,,,,,,,,,,,,,,,,,,,,,,,,,,,,,,,,,,,,,,,,,,,,,,,,,,,,,,,,,,,,,,,,,,,,,,,,,,,,,,,,,,,,,,,,,,,,,,
,,65d6bb0e977760de756971f7,2024-02-22_05h45.48.070,kallum_motion_pilot,2023.2.2,Win32,59.88023952,60087e9189ddb34b79b08be5,65d6bb0e977760de756971f7,65d6d0186cbfc377f68bf130,0.0446,0.0446,0,55,55,149,1,seveneight,,,,,,,,,,,,,,,,,,,,,,,,,,,,,,,,,,,,,,,,,,,,,,,,,,,,,,,,,,,,,,,,,,,,,,,,,,,,,,,,,,,,,,,,,,,,,,,,,,,,,,,,,,,,,,,,,,,,,,,,,,,,,,,,,,,,,,,,,
,,65d6bb0e977760de756971f7,2024-02-22_05h45.48.070,kallum_motion_pilot,2023.2.2,Win32,59.88023952,60087e9189ddb34b79b08be5,65d6bb0e977760de756971f7,65d6d0186cbfc377f68bf130,0.0447,0.0448,0,56,56,8,1,onetwo,,,,,,,,,,,,,,,,,,,,,,,,,,,,,,,,,,,,,,,,,,,,,,,,,,,,,,,,,,,,,,,,,,,,,,,,,,,,,,,,,,,,,,,,,,,,,,,,,,,,,,,,,,,,,,,,,,,,,,,,,,,,,,,,,,,,,,,,,
,,65d6bb0e977760de756971f7,2024-02-22_05h45.48.070,kallum_motion_pilot,2023.2.2,Win32,59.88023952,60087e9189ddb34b79b08be5,65d6bb0e977760de756971f7,65d6d0186cbfc377f68bf130,0.0449,0.0449,0,57,57,141,1,seveneight,,,,,,,,,,,,,,,,,,,,,,,,,,,,,,,,,,,,,,,,,,,,,,,,,,,,,,,,,,,,,,,,,,,,,,,,,,,,,,,,,,,,,,,,,,,,,,,,,,,,,,,,,,,,,,,,,,,,,,,,,,,,,,,,,,,,,,,,,
,,65d6bb0e977760de756971f7,2024-02-22_05h45.48.070,kallum_motion_pilot,2023.2.2,Win32,59.88023952,60087e9189ddb34b79b08be5,65d6bb0e977760de756971f7,65d6d0186cbfc377f68bf130,0.0452,0.0452,0,58,58,20,1,threeone,,,,,,,,,,,,,,,,,,,,,,,,,,,,,,,,,,,,,,,,,,,,,,,,,,,,,,,,,,,,,,,,,,,,,,,,,,,,,,,,,,,,,,,,,,,,,,,,,,,,,,,,,,,,,,,,,,,,,,,,,,,,,,,,,,,,,,,,,
,,65d6bb0e977760de756971f7,2024-02-22_05h45.48.070,kallum_motion_pilot,2023.2.2,Win32,59.88023952,60087e9189ddb34b79b08be5,65d6bb0e977760de756971f7,65d6d0186cbfc377f68bf130,0.0453,0.0454,0,59,59,82,1,sixfive,,,,,,,,,,,,,,,,,,,,,,,,,,,,,,,,,,,,,,,,,,,,,,,,,,,,,,,,,,,,,,,,,,,,,,,,,,,,,,,,,,,,,,,,,,,,,,,,,,,,,,,,,,,,,,,,,,,,,,,,,,,,,,,,,,,,,,,,,
,,65d6bb0e977760de756971f7,2024-02-22_05h45.48.070,kallum_motion_pilot,2023.2.2,Win32,59.88023952,60087e9189ddb34b79b08be5,65d6bb0e977760de756971f7,65d6d0186cbfc377f68bf130,0.0455,0.0456,0,60,60,33,1,onethree,,,,,,,,,,,,,,,,,,,,,,,,,,,,,,,,,,,,,,,,,,,,,,,,,,,,,,,,,,,,,,,,,,,,,,,,,,,,,,,,,,,,,,,,,,,,,,,,,,,,,,,,,,,,,,,,,,,,,,,,,,,,,,,,,,,,,,,,,
,,65d6bb0e977760de756971f7,2024-02-22_05h45.48.070,kallum_motion_pilot,2023.2.2,Win32,59.88023952,60087e9189ddb34b79b08be5,65d6bb0e977760de756971f7,65d6d0186cbfc377f68bf130,0.0457,0.0457,0,61,61,90,1,sixfive,,,,,,,,,,,,,,,,,,,,,,,,,,,,,,,,,,,,,,,,,,,,,,,,,,,,,,,,,,,,,,,,,,,,,,,,,,,,,,,,,,,,,,,,,,,,,,,,,,,,,,,,,,,,,,,,,,,,,,,,,,,,,,,,,,,,,,,,,
,,65d6bb0e977760de756971f7,2024-02-22_05h45.48.070,kallum_motion_pilot,2023.2.2,Win32,59.88023952,60087e9189ddb34b79b08be5,65d6bb0e977760de756971f7,65d6d0186cbfc377f68bf130,0.0458,0.0458,0,62,62,10,1,twoone,,,,,,,,,,,,,,,,,,,,,,,,,,,,,,,,,,,,,,,,,,,,,,,,,,,,,,,,,,,,,,,,,,,,,,,,,,,,,,,,,,,,,,,,,,,,,,,,,,,,,,,,,,,,,,,,,,,,,,,,,,,,,,,,,,,,,,,,,
,,65d6bb0e977760de756971f7,2024-02-22_05h45.48.070,kallum_motion_pilot,2023.2.2,Win32,59.88023952,60087e9189ddb34b79b08be5,65d6bb0e977760de756971f7,65d6d0186cbfc377f68bf130,0.046,0.046,0,63,63,127,1,eightseven,,,,,,,,,,,,,,,,,,,,,,,,,,,,,,,,,,,,,,,,,,,,,,,,,,,,,,,,,,,,,,,,,,,,,,,,,,,,,,,,,,,,,,,,,,,,,,,,,,,,,,,,,,,,,,,,,,,,,,,,,,,,,,,,,,,,,,,,,
,,65d6bb0e977760de756971f7,2024-02-22_05h45.48.070,kallum_motion_pilot,2023.2.2,Win32,59.88023952,60087e9189ddb34b79b08be5,65d6bb0e977760de756971f7,65d6d0186cbfc377f68bf130,0.0461,0.0462,0,64,64,135,1,eightseven,,,,,,,,,,,,,,,,,,,,,,,,,,,,,,,,,,,,,,,,,,,,,,,,,,,,,,,,,,,,,,,,,,,,,,,,,,,,,,,,,,,,,,,,,,,,,,,,,,,,,,,,,,,,,,,,,,,,,,,,,,,,,,,,,,,,,,,,,
,,65d6bb0e977760de756971f7,2024-02-22_05h45.48.070,kallum_motion_pilot,2023.2.2,Win32,59.88023952,60087e9189ddb34b79b08be5,65d6bb0e977760de756971f7,65d6d0186cbfc377f68bf130,0.0463,0.0464,0,65,65,44,1,threeone,,,,,,,,,,,,,,,,,,,,,,,,,,,,,,,,,,,,,,,,,,,,,,,,,,,,,,,,,,,,,,,,,,,,,,,,,,,,,,,,,,,,,,,,,,,,,,,,,,,,,,,,,,,,,,,,,,,,,,,,,,,,,,,,,,,,,,,,,
,,65d6bb0e977760de756971f7,2024-02-22_05h45.48.070,kallum_motion_pilot,2023.2.2,Win32,59.88023952,60087e9189ddb34b79b08be5,65d6bb0e977760de756971f7,65d6d0186cbfc377f68bf130,0.0465,0.0465,0,66,66,146,1,sixfive,,,,,,,,,,,,,,,,,,,,,,,,,,,,,,,,,,,,,,,,,,,,,,,,,,,,,,,,,,,,,,,,,,,,,,,,,,,,,,,,,,,,,,,,,,,,,,,,,,,,,,,,,,,,,,,,,,,,,,,,,,,,,,,,,,,,,,,,,
,,65d6bb0e977760de756971f7,2024-02-22_05h45.48.070,kallum_motion_pilot,2023.2.2,Win32,59.88023952,60087e9189ddb34b79b08be5,65d6bb0e977760de756971f7,65d6d0186cbfc377f68bf130,0.0467,0.0468,0,67,67,69,1,threefour,,,,,,,,,,,,,,,,,,,,,,,,,,,,,,,,,,,,,,,,,,,,,,,,,,,,,,,,,,,,,,,,,,,,,,,,,,,,,,,,,,,,,,,,,,,,,,,,,,,,,,,,,,,,,,,,,,,,,,,,,,,,,,,,,,,,,,,,,
,,65d6bb0e977760de756971f7,2024-02-22_05h45.48.070,kallum_motion_pilot,2023.2.2,Win32,59.88023952,60087e9189ddb34b79b08be5,65d6bb0e977760de756971f7,65d6d0186cbfc377f68bf130,0.0468,0.0469,0,68,68,38,1,fourtwo,,,,,,,,,,,,,,,,,,,,,,,,,,,,,,,,,,,,,,,,,,,,,,,,,,,,,,,,,,,,,,,,,,,,,,,,,,,,,,,,,,,,,,,,,,,,,,,,,,,,,,,,,,,,,,,,,,,,,,,,,,,,,,,,,,,,,,,,,
,,65d6bb0e977760de756971f7,2024-02-22_05h45.48.070,kallum_motion_pilot,2023.2.2,Win32,59.88023952,60087e9189ddb34b79b08be5,65d6bb0e977760de756971f7,65d6d0186cbfc377f68bf130,0.047,0.047,0,69,69,111,1,eightseven,,,,,,,,,,,,,,,,,,,,,,,,,,,,,,,,,,,,,,,,,,,,,,,,,,,,,,,,,,,,,,,,,,,,,,,,,,,,,,,,,,,,,,,,,,,,,,,,,,,,,,,,,,,,,,,,,,,,,,,,,,,,,,,,,,,,,,,,,
,,65d6bb0e977760de756971f7,2024-02-22_05h45.48.070,kallum_motion_pilot,2023.2.2,Win32,59.88023952,60087e9189ddb34b79b08be5,65d6bb0e977760de756971f7,65d6d0186cbfc377f68bf130,0.0472,0.0472,0,70,70,37,1,threefour,,,,,,,,,,,,,,,,,,,,,,,,,,,,,,,,,,,,,,,,,,,,,,,,,,,,,,,,,,,,,,,,,,,,,,,,,,,,,,,,,,,,,,,,,,,,,,,,,,,,,,,,,,,,,,,,,,,,,,,,,,,,,,,,,,,,,,,,,
,,65d6bb0e977760de756971f7,2024-02-22_05h45.48.070,kallum_motion_pilot,2023.2.2,Win32,59.88023952,60087e9189ddb34b79b08be5,65d6bb0e977760de756971f7,65d6d0186cbfc377f68bf130,0.0474,0.0474,0,71,71,11,1,twofour,,,,,,,,,,,,,,,,,,,,,,,,,,,,,,,,,,,,,,,,,,,,,,,,,,,,,,,,,,,,,,,,,,,,,,,,,,,,,,,,,,,,,,,,,,,,,,,,,,,,,,,,,,,,,,,,,,,,,,,,,,,,,,,,,,,,,,,,,
,,65d6bb0e977760de756971f7,2024-02-22_05h45.48.070,kallum_motion_pilot,2023.2.2,Win32,59.88023952,60087e9189ddb34b79b08be5,65d6bb0e977760de756971f7,65d6d0186cbfc377f68bf130,0.0475,0.0475,0,72,72,65,1,onethree,,,,,,,,,,,,,,,,,,,,,,,,,,,,,,,,,,,,,,,,,,,,,,,,,,,,,,,,,,,,,,,,,,,,,,,,,,,,,,,,,,,,,,,,,,,,,,,,,,,,,,,,,,,,,,,,,,,,,,,,,,,,,,,,,,,,,,,,,
,,65d6bb0e977760de756971f7,2024-02-22_05h45.48.070,kallum_motion_pilot,2023.2.2,Win32,59.88023952,60087e9189ddb34b79b08be5,65d6bb0e977760de756971f7,65d6d0186cbfc377f68bf130,0.0476,0.0477,0,73,73,159,1,eightseven,,,,,,,,,,,,,,,,,,,,,,,,,,,,,,,,,,,,,,,,,,,,,,,,,,,,,,,,,,,,,,,,,,,,,,,,,,,,,,,,,,,,,,,,,,,,,,,,,,,,,,,,,,,,,,,,,,,,,,,,,,,,,,,,,,,,,,,,,
,,65d6bb0e977760de756971f7,2024-02-22_05h45.48.070,kallum_motion_pilot,2023.2.2,Win32,59.88023952,60087e9189ddb34b79b08be5,65d6bb0e977760de756971f7,65d6d0186cbfc377f68bf130,0.0478,0.0478,0,74,74,70,1,fourtwo,,,,,,,,,,,,,,,,,,,,,,,,,,,,,,,,,,,,,,,,,,,,,,,,,,,,,,,,,,,,,,,,,,,,,,,,,,,,,,,,,,,,,,,,,,,,,,,,,,,,,,,,,,,,,,,,,,,,,,,,,,,,,,,,,,,,,,,,,
,,65d6bb0e977760de756971f7,2024-02-22_05h45.48.070,kallum_motion_pilot,2023.2.2,Win32,59.88023952,60087e9189ddb34b79b08be5,65d6bb0e977760de756971f7,65d6d0186cbfc377f68bf130,0.048,0.048,0,75,75,91,1,sixeight,,,,,,,,,,,,,,,,,,,,,,,,,,,,,,,,,,,,,,,,,,,,,,,,,,,,,,,,,,,,,,,,,,,,,,,,,,,,,,,,,,,,,,,,,,,,,,,,,,,,,,,,,,,,,,,,,,,,,,,,,,,,,,,,,,,,,,,,,
,,65d6bb0e977760de756971f7,2024-02-22_05h45.48.070,kallum_motion_pilot,2023.2.2,Win32,59.88023952,60087e9189ddb34b79b08be5,65d6bb0e977760de756971f7,65d6d0186cbfc377f68bf130,0.0482,0.0482,0,76,76,32,1,onetwo,,,,,,,,,,,,,,,,,,,,,,,,,,,,,,,,,,,,,,,,,,,,,,,,,,,,,,,,,,,,,,,,,,,,,,,,,,,,,,,,,,,,,,,,,,,,,,,,,,,,,,,,,,,,,,,,,,,,,,,,,,,,,,,,,,,,,,,,,
,,65d6bb0e977760de756971f7,2024-02-22_05h45.48.070,kallum_motion_pilot,2023.2.2,Win32,59.88023952,60087e9189ddb34b79b08be5,65d6bb0e977760de756971f7,65d6d0186cbfc377f68bf130,0.0483,0.0484,0,77,77,88,1,fivesix,,,,,,,,,,,,,,,,,,,,,,,,,,,,,,,,,,,,,,,,,,,,,,,,,,,,,,,,,,,,,,,,,,,,,,,,,,,,,,,,,,,,,,,,,,,,,,,,,,,,,,,,,,,,,,,,,,,,,,,,,,,,,,,,,,,,,,,,,
,,65d6bb0e977760de756971f7,2024-02-22_05h45.48.070,kallum_motion_pilot,2023.2.2,Win32,59.88023952,60087e9189ddb34b79b08be5,65d6bb0e977760de756971f7,65d6d0186cbfc377f68bf130,0.0485,0.0486,0,78,78,136,1,fivesix,,,,,,,,,,,,,,,,,,,,,,,,,,,,,,,,,,,,,,,,,,,,,,,,,,,,,,,,,,,,,,,,,,,,,,,,,,,,,,,,,,,,,,,,,,,,,,,,,,,,,,,,,,,,,,,,,,,,,,,,,,,,,,,,,,,,,,,,,
,,65d6bb0e977760de756971f7,2024-02-22_05h45.48.070,kallum_motion_pilot,2023.2.2,Win32,59.88023952,60087e9189ddb34b79b08be5,65d6bb0e977760de756971f7,65d6d0186cbfc377f68bf130,0.0487,0.0487,0,79,79,66,1,twoone,,,,,,,,,,,,,,,,,,,,,,,,,,,,,,,,,,,,,,,,,,,,,,,,,,,,,,,,,,,,,,,,,,,,,,,,,,,,,,,,,,,,,,,,,,,,,,,,,,,,,,,,,,,,,,,,,,,,,,,,,,,,,,,,,,,,,,,,,
,,65d6bb0e977760de756971f7,2024-02-22_05h45.48.070,kallum_motion_pilot,2023.2.2,Win32,59.88023952,60087e9189ddb34b79b08be5,65d6bb0e977760de756971f7,65d6d0186cbfc377f68bf130,0.0488,0.0488,0,80,80,133,1,seveneight,,,,,,,,,,,,,,,,,,,,,,,,,,,,,,,,,,,,,,,,,,,,,,,,,,,,,,,,,,,,,,,,,,,,,,,,,,,,,,,,,,,,,,,,,,,,,,,,,,,,,,,,,,,,,,,,,,,,,,,,,,,,,,,,,,,,,,,,,
,,65d6bb0e977760de756971f7,2024-02-22_05h45.48.070,kallum_motion_pilot,2023.2.2,Win32,59.88023952,60087e9189ddb34b79b08be5,65d6bb0e977760de756971f7,65d6d0186cbfc377f68bf130,0.049,0.049,0,81,81,142,1,eightsix,,,,,,,,,,,,,,,,,,,,,,,,,,,,,,,,,,,,,,,,,,,,,,,,,,,,,,,,,,,,,,,,,,,,,,,,,,,,,,,,,,,,,,,,,,,,,,,,,,,,,,,,,,,,,,,,,,,,,,,,,,,,,,,,,,,,,,,,,
,,65d6bb0e977760de756971f7,2024-02-22_05h45.48.070,kallum_motion_pilot,2023.2.2,Win32,59.88023952,60087e9189ddb34b79b08be5,65d6bb0e977760de756971f7,65d6d0186cbfc377f68bf130,0.0491,0.0492,0,82,82,96,1,fivesix,,,,,,,,,,,,,,,,,,,,,,,,,,,,,,,,,,,,,,,,,,,,,,,,,,,,,,,,,,,,,,,,,,,,,,,,,,,,,,,,,,,,,,,,,,,,,,,,,,,,,,,,,,,,,,,,,,,,,,,,,,,,,,,,,,,,,,,,,
,,65d6bb0e977760de756971f7,2024-02-22_05h45.48.070,kallum_motion_pilot,2023.2.2,Win32,59.88023952,60087e9189ddb34b79b08be5,65d6bb0e977760de756971f7,65d6d0186cbfc377f68bf130,0.0493,0.0493,0,83,83,45,1,threefour,,,,,,,,,,,,,,,,,,,,,,,,,,,,,,,,,,,,,,,,,,,,,,,,,,,,,,,,,,,,,,,,,,,,,,,,,,,,,,,,,,,,,,,,,,,,,,,,,,,,,,,,,,,,,,,,,,,,,,,,,,,,,,,,,,,,,,,,,
,,65d6bb0e977760de756971f7,2024-02-22_05h45.48.070,kallum_motion_pilot,2023.2.2,Win32,59.88023952,60087e9189ddb34b79b08be5,65d6bb0e977760de756971f7,65d6d0186cbfc377f68bf130,0.0494,0.0495,0,84,84,92,1,sevenfive,,,,,,,,,,,,,,,,,,,,,,,,,,,,,,,,,,,,,,,,,,,,,,,,,,,,,,,,,,,,,,,,,,,,,,,,,,,,,,,,,,,,,,,,,,,,,,,,,,,,,,,,,,,,,,,,,,,,,,,,,,,,,,,,,,,,,,,,,
,,65d6bb0e977760de756971f7,2024-02-22_05h45.48.070,kallum_motion_pilot,2023.2.2,Win32,59.88023952,60087e9189ddb34b79b08be5,65d6bb0e977760de756971f7,65d6d0186cbfc377f68bf130,0.0496,0.0497,0,85,85,158,1,eightsix,,,,,,,,,,,,,,,,,,,,,,,,,,,,,,,,,,,,,,,,,,,,,,,,,,,,,,,,,,,,,,,,,,,,,,,,,,,,,,,,,,,,,,,,,,,,,,,,,,,,,,,,,,,,,,,,,,,,,,,,,,,,,,,,,,,,,,,,,
,,65d6bb0e977760de756971f7,2024-02-22_05h45.48.070,kallum_motion_pilot,2023.2.2,Win32,59.88023952,60087e9189ddb34b79b08be5,65d6bb0e977760de756971f7,65d6d0186cbfc377f68bf130,0.0498,0.0498,0,86,86,73,1,onethree,,,,,,,,,,,,,,,,,,,,,,,,,,,,,,,,,,,,,,,,,,,,,,,,,,,,,,,,,,,,,,,,,,,,,,,,,,,,,,,,,,,,,,,,,,,,,,,,,,,,,,,,,,,,,,,,,,,,,,,,,,,,,,,,,,,,,,,,,
,,65d6bb0e977760de756971f7,2024-02-22_05h45.48.070,kallum_motion_pilot,2023.2.2,Win32,59.88023952,60087e9189ddb34b79b08be5,65d6bb0e977760de756971f7,65d6d0186cbfc377f68bf130,0.05,0.05,0,87,87,155,1,sixeight,,,,,,,,,,,,,,,,,,,,,,,,,,,,,,,,,,,,,,,,,,,,,,,,,,,,,,,,,,,,,,,,,,,,,,,,,,,,,,,,,,,,,,,,,,,,,,,,,,,,,,,,,,,,,,,,,,,,,,,,,,,,,,,,,,,,,,,,,
,,65d6bb0e977760de756971f7,2024-02-22_05h45.48.070,kallum_motion_pilot,2023.2.2,Win32,59.88023952,60087e9189ddb34b79b08be5,65d6bb0e977760de756971f7,65d6d0186cbfc377f68bf130,0.0501,0.0501,0,88,88,81,1,fiveseven,,,,,,,,,,,,,,,,,,,,,,,,,,,,,,,,,,,,,,,,,,,,,,,,,,,,,,,,,,,,,,,,,,,,,,,,,,,,,,,,,,,,,,,,,,,,,,,,,,,,,,,,,,,,,,,,,,,,,,,,,,,,,,,,,,,,,,,,,
,,65d6bb0e977760de756971f7,2024-02-22_05h45.48.070,kallum_motion_pilot,2023.2.2,Win32,59.88023952,60087e9189ddb34b79b08be5,65d6bb0e977760de756971f7,65d6d0186cbfc377f68bf130,0.0503,0.0504,0,89,89,134,1,eightsix,,,,,,,,,,,,,,,,,,,,,,,,,,,,,,,,,,,,,,,,,,,,,,,,,,,,,,,,,,,,,,,,,,,,,,,,,,,,,,,,,,,,,,,,,,,,,,,,,,,,,,,,,,,,,,,,,,,,,,,,,,,,,,,,,,,,,,,,,
,,65d6bb0e977760de756971f7,2024-02-22_05h45.48.070,kallum_motion_pilot,2023.2.2,Win32,59.88023952,60087e9189ddb34b79b08be5,65d6bb0e977760de756971f7,65d6d0186cbfc377f68bf130,0.0504,0.0505,0,90,90,71,1,fourthree,,,,,,,,,,,,,,,,,,,,,,,,,,,,,,,,,,,,,,,,,,,,,,,,,,,,,,,,,,,,,,,,,,,,,,,,,,,,,,,,,,,,,,,,,,,,,,,,,,,,,,,,,,,,,,,,,,,,,,,,,,,,,,,,,,,,,,,,,
,,65d6bb0e977760de756971f7,2024-02-22_05h45.48.070,kallum_motion_pilot,2023.2.2,Win32,59.88023952,60087e9189ddb34b79b08be5,65d6bb0e977760de756971f7,65d6d0186cbfc377f68bf130,0.0507,0.0507,0,91,91,67,1,twofour,,,,,,,,,,,,,,,,,,,,,,,,,,,,,,,,,,,,,,,,,,,,,,,,,,,,,,,,,,,,,,,,,,,,,,,,,,,,,,,,,,,,,,,,,,,,,,,,,,,,,,,,,,,,,,,,,,,,,,,,,,,,,,,,,,,,,,,,,
,,65d6bb0e977760de756971f7,2024-02-22_05h45.48.070,kallum_motion_pilot,2023.2.2,Win32,59.88023952,60087e9189ddb34b79b08be5,65d6bb0e977760de756971f7,65d6d0186cbfc377f68bf130,0.0508,0.0508,0,92,92,23,1,fourthree,,,,,,,,,,,,,,,,,,,,,,,,,,,,,,,,,,,,,,,,,,,,,,,,,,,,,,,,,,,,,,,,,,,,,,,,,,,,,,,,,,,,,,,,,,,,,,,,,,,,,,,,,,,,,,,,,,,,,,,,,,,,,,,,,,,,,,,,,
,,65d6bb0e977760de756971f7,2024-02-22_05h45.48.070,kallum_motion_pilot,2023.2.2,Win32,59.88023952,60087e9189ddb34b79b08be5,65d6bb0e977760de756971f7,65d6d0186cbfc377f68bf130,0.0509,0.051,0,93,93,121,1,fiveseven,,,,,,,,,,,,,,,,,,,,,,,,,,,,,,,,,,,,,,,,,,,,,,,,,,,,,,,,,,,,,,,,,,,,,,,,,,,,,,,,,,,,,,,,,,,,,,,,,,,,,,,,,,,,,,,,,,,,,,,,,,,,,,,,,,,,,,,,,
,,65d6bb0e977760de756971f7,2024-02-22_05h45.48.070,kallum_motion_pilot,2023.2.2,Win32,59.88023952,60087e9189ddb34b79b08be5,65d6bb0e977760de756971f7,65d6d0186cbfc377f68bf130,0.0511,0.0512,0,94,94,74,1,twoone,,,,,,,,,,,,,,,,,,,,,,,,,,,,,,,,,,,,,,,,,,,,,,,,,,,,,,,,,,,,,,,,,,,,,,,,,,,,,,,,,,,,,,,,,,,,,,,,,,,,,,,,,,,,,,,,,,,,,,,,,,,,,,,,,,,,,,,,,
,,65d6bb0e977760de756971f7,2024-02-22_05h45.48.070,kallum_motion_pilot,2023.2.2,Win32,59.88023952,60087e9189ddb34b79b08be5,65d6bb0e977760de756971f7,65d6d0186cbfc377f68bf130,0.0513,0.0514,0,95,95,76,1,threeone,,,,,,,,,,,,,,,,,,,,,,,,,,,,,,,,,,,,,,,,,,,,,,,,,,,,,,,,,,,,,,,,,,,,,,,,,,,,,,,,,,,,,,,,,,,,,,,,,,,,,,,,,,,,,,,,,,,,,,,,,,,,,,,,,,,,,,,,,
,,65d6bb0e977760de756971f7,2024-02-22_05h45.48.070,kallum_motion_pilot,2023.2.2,Win32,59.88023952,60087e9189ddb34b79b08be5,65d6bb0e977760de756971f7,65d6d0186cbfc377f68bf130,0.0515,0.0515,0,96,96,68,1,threeone,,,,,,,,,,,,,,,,,,,,,,,,,,,,,,,,,,,,,,,,,,,,,,,,,,,,,,,,,,,,,,,,,,,,,,,,,,,,,,,,,,,,,,,,,,,,,,,,,,,,,,,,,,,,,,,,,,,,,,,,,,,,,,,,,,,,,,,,,
,,65d6bb0e977760de756971f7,2024-02-22_05h45.48.070,kallum_motion_pilot,2023.2.2,Win32,59.88023952,60087e9189ddb34b79b08be5,65d6bb0e977760de756971f7,65d6d0186cbfc377f68bf130,0.0517,0.0517,0,97,97,117,1,seveneight,,,,,,,,,,,,,,,,,,,,,,,,,,,,,,,,,,,,,,,,,,,,,,,,,,,,,,,,,,,,,,,,,,,,,,,,,,,,,,,,,,,,,,,,,,,,,,,,,,,,,,,,,,,,,,,,,,,,,,,,,,,,,,,,,,,,,,,,,
,,65d6bb0e977760de756971f7,2024-02-22_05h45.48.070,kallum_motion_pilot,2023.2.2,Win32,59.88023952,60087e9189ddb34b79b08be5,65d6bb0e977760de756971f7,65d6d0186cbfc377f68bf130,0.0518,0.0519,0,98,98,97,1,fiveseven,,,,,,,,,,,,,,,,,,,,,,,,,,,,,,,,,,,,,,,,,,,,,,,,,,,,,,,,,,,,,,,,,,,,,,,,,,,,,,,,,,,,,,,,,,,,,,,,,,,,,,,,,,,,,,,,,,,,,,,,,,,,,,,,,,,,,,,,,
,,65d6bb0e977760de756971f7,2024-02-22_05h45.48.070,kallum_motion_pilot,2023.2.2,Win32,59.88023952,60087e9189ddb34b79b08be5,65d6bb0e977760de756971f7,65d6d0186cbfc377f68bf130,0.052,0.052,0,99,99,80,1,fivesix,,,,,,,,,,,,,,,,,,,,,,,,,,,,,,,,,,,,,,,,,,,,,,,,,,,,,,,,,,,,,,,,,,,,,,,,,,,,,,,,,,,,,,,,,,,,,,,,,,,,,,,,,,,,,,,,,,,,,,,,,,,,,,,,,,,,,,,,,
,,65d6bb0e977760de756971f7,2024-02-22_05h45.48.070,kallum_motion_pilot,2023.2.2,Win32,59.88023952,60087e9189ddb34b79b08be5,65d6bb0e977760de756971f7,65d6d0186cbfc377f68bf130,0.0522,0.0522,0,100,100,43,1,twofour,,,,,,,,,,,,,,,,,,,,,,,,,,,,,,,,,,,,,,,,,,,,,,,,,,,,,,,,,,,,,,,,,,,,,,,,,,,,,,,,,,,,,,,,,,,,,,,,,,,,,,,,,,,,,,,,,,,,,,,,,,,,,,,,,,,,,,,,,
,,65d6bb0e977760de756971f7,2024-02-22_05h45.48.070,kallum_motion_pilot,2023.2.2,Win32,59.88023952,60087e9189ddb34b79b08be5,65d6bb0e977760de756971f7,65d6d0186cbfc377f68bf130,0.0523,0.0524,0,101,101,145,1,fiveseven,,,,,,,,,,,,,,,,,,,,,,,,,,,,,,,,,,,,,,,,,,,,,,,,,,,,,,,,,,,,,,,,,,,,,,,,,,,,,,,,,,,,,,,,,,,,,,,,,,,,,,,,,,,,,,,,,,,,,,,,,,,,,,,,,,,,,,,,,
,,65d6bb0e977760de756971f7,2024-02-22_05h45.48.070,kallum_motion_pilot,2023.2.2,Win32,59.88023952,60087e9189ddb34b79b08be5,65d6bb0e977760de756971f7,65d6d0186cbfc377f68bf130,0.0525,0.0526,0,102,102,113,1,fiveseven,,,,,,,,,,,,,,,,,,,,,,,,,,,,,,,,,,,,,,,,,,,,,,,,,,,,,,,,,,,,,,,,,,,,,,,,,,,,,,,,,,,,,,,,,,,,,,,,,,,,,,,,,,,,,,,,,,,,,,,,,,,,,,,,,,,,,,,,,
,,65d6bb0e977760de756971f7,2024-02-22_05h45.48.070,kallum_motion_pilot,2023.2.2,Win32,59.88023952,60087e9189ddb34b79b08be5,65d6bb0e977760de756971f7,65d6d0186cbfc377f68bf130,0.0526,0.0527,0,103,103,131,1,sixeight,,,,,,,,,,,,,,,,,,,,,,,,,,,,,,,,,,,,,,,,,,,,,,,,,,,,,,,,,,,,,,,,,,,,,,,,,,,,,,,,,,,,,,,,,,,,,,,,,,,,,,,,,,,,,,,,,,,,,,,,,,,,,,,,,,,,,,,,,
,,65d6bb0e977760de756971f7,2024-02-22_05h45.48.070,kallum_motion_pilot,2023.2.2,Win32,59.88023952,60087e9189ddb34b79b08be5,65d6bb0e977760de756971f7,65d6d0186cbfc377f68bf130,0.0529,0.0529,0,104,104,50,1,twoone,,,,,,,,,,,,,,,,,,,,,,,,,,,,,,,,,,,,,,,,,,,,,,,,,,,,,,,,,,,,,,,,,,,,,,,,,,,,,,,,,,,,,,,,,,,,,,,,,,,,,,,,,,,,,,,,,,,,,,,,,,,,,,,,,,,,,,,,,
,,65d6bb0e977760de756971f7,2024-02-22_05h45.48.070,kallum_motion_pilot,2023.2.2,Win32,59.88023952,60087e9189ddb34b79b08be5,65d6bb0e977760de756971f7,65d6d0186cbfc377f68bf130,0.053,0.0531,0,105,105,18,1,twoone,,,,,,,,,,,,,,,,,,,,,,,,,,,,,,,,,,,,,,,,,,,,,,,,,,,,,,,,,,,,,,,,,,,,,,,,,,,,,,,,,,,,,,,,,,,,,,,,,,,,,,,,,,,,,,,,,,,,,,,,,,,,,,,,,,,,,,,,,
,,65d6bb0e977760de756971f7,2024-02-22_05h45.48.070,kallum_motion_pilot,2023.2.2,Win32,59.88023952,60087e9189ddb34b79b08be5,65d6bb0e977760de756971f7,65d6d0186cbfc377f68bf130,0.0532,0.0533,0,106,106,72,1,onetwo,,,,,,,,,,,,,,,,,,,,,,,,,,,,,,,,,,,,,,,,,,,,,,,,,,,,,,,,,,,,,,,,,,,,,,,,,,,,,,,,,,,,,,,,,,,,,,,,,,,,,,,,,,,,,,,,,,,,,,,,,,,,,,,,,,,,,,,,,
,,65d6bb0e977760de756971f7,2024-02-22_05h45.48.070,kallum_motion_pilot,2023.2.2,Win32,59.88023952,60087e9189ddb34b79b08be5,65d6bb0e977760de756971f7,65d6d0186cbfc377f68bf130,0.0534,0.0534,0,107,107,28,1,threeone,,,,,,,,,,,,,,,,,,,,,,,,,,,,,,,,,,,,,,,,,,,,,,,,,,,,,,,,,,,,,,,,,,,,,,,,,,,,,,,,,,,,,,,,,,,,,,,,,,,,,,,,,,,,,,,,,,,,,,,,,,,,,,,,,,,,,,,,,
,,65d6bb0e977760de756971f7,2024-02-22_05h45.48.070,kallum_motion_pilot,2023.2.2,Win32,59.88023952,60087e9189ddb34b79b08be5,65d6bb0e977760de756971f7,65d6d0186cbfc377f68bf130,0.0535,0.0536,0,108,108,119,1,eightseven,,,,,,,,,,,,,,,,,,,,,,,,,,,,,,,,,,,,,,,,,,,,,,,,,,,,,,,,,,,,,,,,,,,,,,,,,,,,,,,,,,,,,,,,,,,,,,,,,,,,,,,,,,,,,,,,,,,,,,,,,,,,,,,,,,,,,,,,,
,,65d6bb0e977760de756971f7,2024-02-22_05h45.48.070,kallum_motion_pilot,2023.2.2,Win32,59.88023952,60087e9189ddb34b79b08be5,65d6bb0e977760de756971f7,65d6d0186cbfc377f68bf130,0.0537,0.0537,0,109,109,78,1,fourtwo,,,,,,,,,,,,,,,,,,,,,,,,,,,,,,,,,,,,,,,,,,,,,,,,,,,,,,,,,,,,,,,,,,,,,,,,,,,,,,,,,,,,,,,,,,,,,,,,,,,,,,,,,,,,,,,,,,,,,,,,,,,,,,,,,,,,,,,,,
,,65d6bb0e977760de756971f7,2024-02-22_05h45.48.070,kallum_motion_pilot,2023.2.2,Win32,59.88023952,60087e9189ddb34b79b08be5,65d6bb0e977760de756971f7,65d6d0186cbfc377f68bf130,0.0539,0.0539,0,110,110,25,1,onethree,,,,,,,,,,,,,,,,,,,,,,,,,,,,,,,,,,,,,,,,,,,,,,,,,,,,,,,,,,,,,,,,,,,,,,,,,,,,,,,,,,,,,,,,,,,,,,,,,,,,,,,,,,,,,,,,,,,,,,,,,,,,,,,,,,,,,,,,,
,,65d6bb0e977760de756971f7,2024-02-22_05h45.48.070,kallum_motion_pilot,2023.2.2,Win32,59.88023952,60087e9189ddb34b79b08be5,65d6bb0e977760de756971f7,65d6d0186cbfc377f68bf130,0.054,0.0541,0,111,111,75,1,twofour,,,,,,,,,,,,,,,,,,,,,,,,,,,,,,,,,,,,,,,,,,,,,,,,,,,,,,,,,,,,,,,,,,,,,,,,,,,,,,,,,,,,,,,,,,,,,,,,,,,,,,,,,,,,,,,,,,,,,,,,,,,,,,,,,,,,,,,,,
,,65d6bb0e977760de756971f7,2024-02-22_05h45.48.070,kallum_motion_pilot,2023.2.2,Win32,59.88023952,60087e9189ddb34b79b08be5,65d6bb0e977760de756971f7,65d6d0186cbfc377f68bf130,0.0543,0.0543,0,112,112,160,1,fivesix,,,,,,,,,,,,,,,,,,,,,,,,,,,,,,,,,,,,,,,,,,,,,,,,,,,,,,,,,,,,,,,,,,,,,,,,,,,,,,,,,,,,,,,,,,,,,,,,,,,,,,,,,,,,,,,,,,,,,,,,,,,,,,,,,,,,,,,,,
,,65d6bb0e977760de756971f7,2024-02-22_05h45.48.070,kallum_motion_pilot,2023.2.2,Win32,59.88023952,60087e9189ddb34b79b08be5,65d6bb0e977760de756971f7,65d6d0186cbfc377f68bf130,0.0543,0.0544,0,113,113,60,1,threeone,,,,,,,,,,,,,,,,,,,,,,,,,,,,,,,,,,,,,,,,,,,,,,,,,,,,,,,,,,,,,,,,,,,,,,,,,,,,,,,,,,,,,,,,,,,,,,,,,,,,,,,,,,,,,,,,,,,,,,,,,,,,,,,,,,,,,,,,,
,,65d6bb0e977760de756971f7,2024-02-22_05h45.48.070,kallum_motion_pilot,2023.2.2,Win32,59.88023952,60087e9189ddb34b79b08be5,65d6bb0e977760de756971f7,65d6d0186cbfc377f68bf130,0.0546,0.0546,0,114,114,13,1,threefour,,,,,,,,,,,,,,,,,,,,,,,,,,,,,,,,,,,,,,,,,,,,,,,,,,,,,,,,,,,,,,,,,,,,,,,,,,,,,,,,,,,,,,,,,,,,,,,,,,,,,,,,,,,,,,,,,,,,,,,,,,,,,,,,,,,,,,,,,
,,65d6bb0e977760de756971f7,2024-02-22_05h45.48.070,kallum_motion_pilot,2023.2.2,Win32,59.88023952,60087e9189ddb34b79b08be5,65d6bb0e977760de756971f7,65d6d0186cbfc377f68bf130,0.0548,0.0548,0,115,115,4,1,threeone,,,,,,,,,,,,,,,,,,,,,,,,,,,,,,,,,,,,,,,,,,,,,,,,,,,,,,,,,,,,,,,,,,,,,,,,,,,,,,,,,,,,,,,,,,,,,,,,,,,,,,,,,,,,,,,,,,,,,,,,,,,,,,,,,,,,,,,,,
,,65d6bb0e977760de756971f7,2024-02-22_05h45.48.070,kallum_motion_pilot,2023.2.2,Win32,59.88023952,60087e9189ddb34b79b08be5,65d6bb0e977760de756971f7,65d6d0186cbfc377f68bf130,0.0549,0.0549,0,116,116,143,1,eightseven,,,,,,,,,,,,,,,,,,,,,,,,,,,,,,,,,,,,,,,,,,,,,,,,,,,,,,,,,,,,,,,,,,,,,,,,,,,,,,,,,,,,,,,,,,,,,,,,,,,,,,,,,,,,,,,,,,,,,,,,,,,,,,,,,,,,,,,,,
,,65d6bb0e977760de756971f7,2024-02-22_05h45.48.070,kallum_motion_pilot,2023.2.2,Win32,59.88023952,60087e9189ddb34b79b08be5,65d6bb0e977760de756971f7,65d6d0186cbfc377f68bf130,0.0551,0.0552,0,117,117,94,1,eightsix,,,,,,,,,,,,,,,,,,,,,,,,,,,,,,,,,,,,,,,,,,,,,,,,,,,,,,,,,,,,,,,,,,,,,,,,,,,,,,,,,,,,,,,,,,,,,,,,,,,,,,,,,,,,,,,,,,,,,,,,,,,,,,,,,,,,,,,,,
,,65d6bb0e977760de756971f7,2024-02-22_05h45.48.070,kallum_motion_pilot,2023.2.2,Win32,59.88023952,60087e9189ddb34b79b08be5,65d6bb0e977760de756971f7,65d6d0186cbfc377f68bf130,0.0553,0.0553,0,118,118,106,1,sixfive,,,,,,,,,,,,,,,,,,,,,,,,,,,,,,,,,,,,,,,,,,,,,,,,,,,,,,,,,,,,,,,,,,,,,,,,,,,,,,,,,,,,,,,,,,,,,,,,,,,,,,,,,,,,,,,,,,,,,,,,,,,,,,,,,,,,,,,,,
,,65d6bb0e977760de756971f7,2024-02-22_05h45.48.070,kallum_motion_pilot,2023.2.2,Win32,59.88023952,60087e9189ddb34b79b08be5,65d6bb0e977760de756971f7,65d6d0186cbfc377f68bf130,0.0554,0.0554,0,119,119,58,1,twoone,,,,,,,,,,,,,,,,,,,,,,,,,,,,,,,,,,,,,,,,,,,,,,,,,,,,,,,,,,,,,,,,,,,,,,,,,,,,,,,,,,,,,,,,,,,,,,,,,,,,,,,,,,,,,,,,,,,,,,,,,,,,,,,,,,,,,,,,,
,,65d6bb0e977760de756971f7,2024-02-22_05h45.48.070,kallum_motion_pilot,2023.2.2,Win32,59.88023952,60087e9189ddb34b79b08be5,65d6bb0e977760de756971f7,65d6d0186cbfc377f68bf130,0.0555,0.0556,0,120,120,87,1,eightseven,,,,,,,,,,,,,,,,,,,,,,,,,,,,,,,,,,,,,,,,,,,,,,,,,,,,,,,,,,,,,,,,,,,,,,,,,,,,,,,,,,,,,,,,,,,,,,,,,,,,,,,,,,,,,,,,,,,,,,,,,,,,,,,,,,,,,,,,,
,,65d6bb0e977760de756971f7,2024-02-22_05h45.48.070,kallum_motion_pilot,2023.2.2,Win32,59.88023952,60087e9189ddb34b79b08be5,65d6bb0e977760de756971f7,65d6d0186cbfc377f68bf130,0.0557,0.0558,0,121,121,157,1,seveneight,,,,,,,,,,,,,,,,,,,,,,,,,,,,,,,,,,,,,,,,,,,,,,,,,,,,,,,,,,,,,,,,,,,,,,,,,,,,,,,,,,,,,,,,,,,,,,,,,,,,,,,,,,,,,,,,,,,,,,,,,,,,,,,,,,,,,,,,,
,,65d6bb0e977760de756971f7,2024-02-22_05h45.48.070,kallum_motion_pilot,2023.2.2,Win32,59.88023952,60087e9189ddb34b79b08be5,65d6bb0e977760de756971f7,65d6d0186cbfc377f68bf130,0.0559,0.0559,0,122,122,98,1,sixfive,,,,,,,,,,,,,,,,,,,,,,,,,,,,,,,,,,,,,,,,,,,,,,,,,,,,,,,,,,,,,,,,,,,,,,,,,,,,,,,,,,,,,,,,,,,,,,,,,,,,,,,,,,,,,,,,,,,,,,,,,,,,,,,,,,,,,,,,,
,,65d6bb0e977760de756971f7,2024-02-22_05h45.48.070,kallum_motion_pilot,2023.2.2,Win32,59.88023952,60087e9189ddb34b79b08be5,65d6bb0e977760de756971f7,65d6d0186cbfc377f68bf130,0.056,0.0561,0,123,123,35,1,twofour,,,,,,,,,,,,,,,,,,,,,,,,,,,,,,,,,,,,,,,,,,,,,,,,,,,,,,,,,,,,,,,,,,,,,,,,,,,,,,,,,,,,,,,,,,,,,,,,,,,,,,,,,,,,,,,,,,,,,,,,,,,,,,,,,,,,,,,,,
,,65d6bb0e977760de756971f7,2024-02-22_05h45.48.070,kallum_motion_pilot,2023.2.2,Win32,59.88023952,60087e9189ddb34b79b08be5,65d6bb0e977760de756971f7,65d6d0186cbfc377f68bf130,0.0562,0.0564,0,124,124,95,1,eightseven,,,,,,,,,,,,,,,,,,,,,,,,,,,,,,,,,,,,,,,,,,,,,,,,,,,,,,,,,,,,,,,,,,,,,,,,,,,,,,,,,,,,,,,,,,,,,,,,,,,,,,,,,,,,,,,,,,,,,,,,,,,,,,,,,,,,,,,,,
,,65d6bb0e977760de756971f7,2024-02-22_05h45.48.070,kallum_motion_pilot,2023.2.2,Win32,59.88023952,60087e9189ddb34b79b08be5,65d6bb0e977760de756971f7,65d6d0186cbfc377f68bf130,0.0564,0.0565,0,125,125,36,1,threeone,,,,,,,,,,,,,,,,,,,,,,,,,,,,,,,,,,,,,,,,,,,,,,,,,,,,,,,,,,,,,,,,,,,,,,,,,,,,,,,,,,,,,,,,,,,,,,,,,,,,,,,,,,,,,,,,,,,,,,,,,,,,,,,,,,,,,,,,,
,,65d6bb0e977760de756971f7,2024-02-22_05h45.48.070,kallum_motion_pilot,2023.2.2,Win32,59.88023952,60087e9189ddb34b79b08be5,65d6bb0e977760de756971f7,65d6d0186cbfc377f68bf130,0.0566,0.0566,0,126,126,129,1,fiveseven,,,,,,,,,,,,,,,,,,,,,,,,,,,,,,,,,,,,,,,,,,,,,,,,,,,,,,,,,,,,,,,,,,,,,,,,,,,,,,,,,,,,,,,,,,,,,,,,,,,,,,,,,,,,,,,,,,,,,,,,,,,,,,,,,,,,,,,,,
,,65d6bb0e977760de756971f7,2024-02-22_05h45.48.070,kallum_motion_pilot,2023.2.2,Win32,59.88023952,60087e9189ddb34b79b08be5,65d6bb0e977760de756971f7,65d6d0186cbfc377f68bf130,0.0569,0.057,0,127,127,29,1,threefour,,,,,,,,,,,,,,,,,,,,,,,,,,,,,,,,,,,,,,,,,,,,,,,,,,,,,,,,,,,,,,,,,,,,,,,,,,,,,,,,,,,,,,,,,,,,,,,,,,,,,,,,,,,,,,,,,,,,,,,,,,,,,,,,,,,,,,,,,
,,65d6bb0e977760de756971f7,2024-02-22_05h45.48.070,kallum_motion_pilot,2023.2.2,Win32,59.88023952,60087e9189ddb34b79b08be5,65d6bb0e977760de756971f7,65d6d0186cbfc377f68bf130,0.0572,0.0573,0,128,128,21,1,threefour,,,,,,,,,,,,,,,,,,,,,,,,,,,,,,,,,,,,,,,,,,,,,,,,,,,,,,,,,,,,,,,,,,,,,,,,,,,,,,,,,,,,,,,,,,,,,,,,,,,,,,,,,,,,,,,,,,,,,,,,,,,,,,,,,,,,,,,,,
,,65d6bb0e977760de756971f7,2024-02-22_05h45.48.070,kallum_motion_pilot,2023.2.2,Win32,59.88023952,60087e9189ddb34b79b08be5,65d6bb0e977760de756971f7,65d6d0186cbfc377f68bf130,0.0574,0.0575,0,129,129,30,1,fourtwo,,,,,,,,,,,,,,,,,,,,,,,,,,,,,,,,,,,,,,,,,,,,,,,,,,,,,,,,,,,,,,,,,,,,,,,,,,,,,,,,,,,,,,,,,,,,,,,,,,,,,,,,,,,,,,,,,,,,,,,,,,,,,,,,,,,,,,,,,
,,65d6bb0e977760de756971f7,2024-02-22_05h45.48.070,kallum_motion_pilot,2023.2.2,Win32,59.88023952,60087e9189ddb34b79b08be5,65d6bb0e977760de756971f7,65d6d0186cbfc377f68bf130,0.0577,0.0578,0,130,130,120,1,fivesix,,,,,,,,,,,,,,,,,,,,,,,,,,,,,,,,,,,,,,,,,,,,,,,,,,,,,,,,,,,,,,,,,,,,,,,,,,,,,,,,,,,,,,,,,,,,,,,,,,,,,,,,,,,,,,,,,,,,,,,,,,,,,,,,,,,,,,,,,
,,65d6bb0e977760de756971f7,2024-02-22_05h45.48.070,kallum_motion_pilot,2023.2.2,Win32,59.88023952,60087e9189ddb34b79b08be5,65d6bb0e977760de756971f7,65d6d0186cbfc377f68bf130,0.0579,0.0581,0,131,131,85,1,seveneight,,,,,,,,,,,,,,,,,,,,,,,,,,,,,,,,,,,,,,,,,,,,,,,,,,,,,,,,,,,,,,,,,,,,,,,,,,,,,,,,,,,,,,,,,,,,,,,,,,,,,,,,,,,,,,,,,,,,,,,,,,,,,,,,,,,,,,,,,
,,65d6bb0e977760de756971f7,2024-02-22_05h45.48.070,kallum_motion_pilot,2023.2.2,Win32,59.88023952,60087e9189ddb34b79b08be5,65d6bb0e977760de756971f7,65d6d0186cbfc377f68bf130,0.0583,0.0585,0,132,132,138,1,sixfive,,,,,,,,,,,,,,,,,,,,,,,,,,,,,,,,,,,,,,,,,,,,,,,,,,,,,,,,,,,,,,,,,,,,,,,,,,,,,,,,,,,,,,,,,,,,,,,,,,,,,,,,,,,,,,,,,,,,,,,,,,,,,,,,,,,,,,,,,
,,65d6bb0e977760de756971f7,2024-02-22_05h45.48.070,kallum_motion_pilot,2023.2.2,Win32,59.88023952,60087e9189ddb34b79b08be5,65d6bb0e977760de756971f7,65d6d0186cbfc377f68bf130,0.0586,0.0586,0,133,133,118,1,eightsix,,,,,,,,,,,,,,,,,,,,,,,,,,,,,,,,,,,,,,,,,,,,,,,,,,,,,,,,,,,,,,,,,,,,,,,,,,,,,,,,,,,,,,,,,,,,,,,,,,,,,,,,,,,,,,,,,,,,,,,,,,,,,,,,,,,,,,,,,
,,65d6bb0e977760de756971f7,2024-02-22_05h45.48.070,kallum_motion_pilot,2023.2.2,Win32,59.88023952,60087e9189ddb34b79b08be5,65d6bb0e977760de756971f7,65d6d0186cbfc377f68bf130,0.0587,0.0589,0,134,134,89,1,fiveseven,,,,,,,,,,,,,,,,,,,,,,,,,,,,,,,,,,,,,,,,,,,,,,,,,,,,,,,,,,,,,,,,,,,,,,,,,,,,,,,,,,,,,,,,,,,,,,,,,,,,,,,,,,,,,,,,,,,,,,,,,,,,,,,,,,,,,,,,,
,,65d6bb0e977760de756971f7,2024-02-22_05h45.48.070,kallum_motion_pilot,2023.2.2,Win32,59.88023952,60087e9189ddb34b79b08be5,65d6bb0e977760de756971f7,65d6d0186cbfc377f68bf130,0.0589,0.059,0,135,135,116,1,sevenfive,,,,,,,,,,,,,,,,,,,,,,,,,,,,,,,,,,,,,,,,,,,,,,,,,,,,,,,,,,,,,,,,,,,,,,,,,,,,,,,,,,,,,,,,,,,,,,,,,,,,,,,,,,,,,,,,,,,,,,,,,,,,,,,,,,,,,,,,,
,,65d6bb0e977760de756971f7,2024-02-22_05h45.48.070,kallum_motion_pilot,2023.2.2,Win32,59.88023952,60087e9189ddb34b79b08be5,65d6bb0e977760de756971f7,65d6d0186cbfc377f68bf130,0.0591,0.0592,0,136,136,39,1,fourthree,,,,,,,,,,,,,,,,,,,,,,,,,,,,,,,,,,,,,,,,,,,,,,,,,,,,,,,,,,,,,,,,,,,,,,,,,,,,,,,,,,,,,,,,,,,,,,,,,,,,,,,,,,,,,,,,,,,,,,,,,,,,,,,,,,,,,,,,,
,,65d6bb0e977760de756971f7,2024-02-22_05h45.48.070,kallum_motion_pilot,2023.2.2,Win32,59.88023952,60087e9189ddb34b79b08be5,65d6bb0e977760de756971f7,65d6d0186cbfc377f68bf130,0.0593,0.0593,0,137,137,156,1,sevenfive,,,,,,,,,,,,,,,,,,,,,,,,,,,,,,,,,,,,,,,,,,,,,,,,,,,,,,,,,,,,,,,,,,,,,,,,,,,,,,,,,,,,,,,,,,,,,,,,,,,,,,,,,,,,,,,,,,,,,,,,,,,,,,,,,,,,,,,,,
,,65d6bb0e977760de756971f7,2024-02-22_05h45.48.070,kallum_motion_pilot,2023.2.2,Win32,59.88023952,60087e9189ddb34b79b08be5,65d6bb0e977760de756971f7,65d6d0186cbfc377f68bf130,0.0594,0.0595,0,138,138,63,1,fourthree,,,,,,,,,,,,,,,,,,,,,,,,,,,,,,,,,,,,,,,,,,,,,,,,,,,,,,,,,,,,,,,,,,,,,,,,,,,,,,,,,,,,,,,,,,,,,,,,,,,,,,,,,,,,,,,,,,,,,,,,,,,,,,,,,,,,,,,,,
,,65d6bb0e977760de756971f7,2024-02-22_05h45.48.070,kallum_motion_pilot,2023.2.2,Win32,59.88023952,60087e9189ddb34b79b08be5,65d6bb0e977760de756971f7,65d6d0186cbfc377f68bf130,0.0604,0.0605,0,139,139,100,1,sevenfive,,,,,,,,,,,,,,,,,,,,,,,,,,,,,,,,,,,,,,,,,,,,,,,,,,,,,,,,,,,,,,,,,,,,,,,,,,,,,,,,,,,,,,,,,,,,,,,,,,,,,,,,,,,,,,,,,,,,,,,,,,,,,,,,,,,,,,,,,
,,65d6bb0e977760de756971f7,2024-02-22_05h45.48.070,kallum_motion_pilot,2023.2.2,Win32,59.88023952,60087e9189ddb34b79b08be5,65d6bb0e977760de756971f7,65d6d0186cbfc377f68bf130,0.0606,0.0606,0,140,140,64,1,onetwo,,,,,,,,,,,,,,,,,,,,,,,,,,,,,,,,,,,,,,,,,,,,,,,,,,,,,,,,,,,,,,,,,,,,,,,,,,,,,,,,,,,,,,,,,,,,,,,,,,,,,,,,,,,,,,,,,,,,,,,,,,,,,,,,,,,,,,,,,
,,65d6bb0e977760de756971f7,2024-02-22_05h45.48.070,kallum_motion_pilot,2023.2.2,Win32,59.88023952,60087e9189ddb34b79b08be5,65d6bb0e977760de756971f7,65d6d0186cbfc377f68bf130,0.0608,0.0609,0,141,141,130,1,sixfive,,,,,,,,,,,,,,,,,,,,,,,,,,,,,,,,,,,,,,,,,,,,,,,,,,,,,,,,,,,,,,,,,,,,,,,,,,,,,,,,,,,,,,,,,,,,,,,,,,,,,,,,,,,,,,,,,,,,,,,,,,,,,,,,,,,,,,,,,
,,65d6bb0e977760de756971f7,2024-02-22_05h45.48.070,kallum_motion_pilot,2023.2.2,Win32,59.88023952,60087e9189ddb34b79b08be5,65d6bb0e977760de756971f7,65d6d0186cbfc377f68bf130,0.061,0.061,0,142,142,107,1,sixeight,,,,,,,,,,,,,,,,,,,,,,,,,,,,,,,,,,,,,,,,,,,,,,,,,,,,,,,,,,,,,,,,,,,,,,,,,,,,,,,,,,,,,,,,,,,,,,,,,,,,,,,,,,,,,,,,,,,,,,,,,,,,,,,,,,,,,,,,,
,,65d6bb0e977760de756971f7,2024-02-22_05h45.48.070,kallum_motion_pilot,2023.2.2,Win32,59.88023952,60087e9189ddb34b79b08be5,65d6bb0e977760de756971f7,65d6d0186cbfc377f68bf130,0.0612,0.0612,0,143,143,125,1,seveneight,,,,,,,,,,,,,,,,,,,,,,,,,,,,,,,,,,,,,,,,,,,,,,,,,,,,,,,,,,,,,,,,,,,,,,,,,,,,,,,,,,,,,,,,,,,,,,,,,,,,,,,,,,,,,,,,,,,,,,,,,,,,,,,,,,,,,,,,,
,,65d6bb0e977760de756971f7,2024-02-22_05h45.48.070,kallum_motion_pilot,2023.2.2,Win32,59.88023952,60087e9189ddb34b79b08be5,65d6bb0e977760de756971f7,65d6d0186cbfc377f68bf130,0.0614,0.0614,0,144,144,108,1,sevenfive,,,,,,,,,,,,,,,,,,,,,,,,,,,,,,,,,,,,,,,,,,,,,,,,,,,,,,,,,,,,,,,,,,,,,,,,,,,,,,,,,,,,,,,,,,,,,,,,,,,,,,,,,,,,,,,,,,,,,,,,,,,,,,,,,,,,,,,,,
,,65d6bb0e977760de756971f7,2024-02-22_05h45.48.070,kallum_motion_pilot,2023.2.2,Win32,59.88023952,60087e9189ddb34b79b08be5,65d6bb0e977760de756971f7,65d6d0186cbfc377f68bf130,0.0615,0.0616,0,145,145,47,1,fourthree,,,,,,,,,,,,,,,,,,,,,,,,,,,,,,,,,,,,,,,,,,,,,,,,,,,,,,,,,,,,,,,,,,,,,,,,,,,,,,,,,,,,,,,,,,,,,,,,,,,,,,,,,,,,,,,,,,,,,,,,,,,,,,,,,,,,,,,,,
,,65d6bb0e977760de756971f7,2024-02-22_05h45.48.070,kallum_motion_pilot,2023.2.2,Win32,59.88023952,60087e9189ddb34b79b08be5,65d6bb0e977760de756971f7,65d6d0186cbfc377f68bf130,0.0617,0.0618,0,146,146,150,1,eightsix,,,,,,,,,,,,,,,,,,,,,,,,,,,,,,,,,,,,,,,,,,,,,,,,,,,,,,,,,,,,,,,,,,,,,,,,,,,,,,,,,,,,,,,,,,,,,,,,,,,,,,,,,,,,,,,,,,,,,,,,,,,,,,,,,,,,,,,,,
,,65d6bb0e977760de756971f7,2024-02-22_05h45.48.070,kallum_motion_pilot,2023.2.2,Win32,59.88023952,60087e9189ddb34b79b08be5,65d6bb0e977760de756971f7,65d6d0186cbfc377f68bf130,0.0619,0.062,0,147,147,153,1,fiveseven,,,,,,,,,,,,,,,,,,,,,,,,,,,,,,,,,,,,,,,,,,,,,,,,,,,,,,,,,,,,,,,,,,,,,,,,,,,,,,,,,,,,,,,,,,,,,,,,,,,,,,,,,,,,,,,,,,,,,,,,,,,,,,,,,,,,,,,,,
,,65d6bb0e977760de756971f7,2024-02-22_05h45.48.070,kallum_motion_pilot,2023.2.2,Win32,59.88023952,60087e9189ddb34b79b08be5,65d6bb0e977760de756971f7,65d6d0186cbfc377f68bf130,0.0621,0.0622,0,148,148,126,1,eightsix,,,,,,,,,,,,,,,,,,,,,,,,,,,,,,,,,,,,,,,,,,,,,,,,,,,,,,,,,,,,,,,,,,,,,,,,,,,,,,,,,,,,,,,,,,,,,,,,,,,,,,,,,,,,,,,,,,,,,,,,,,,,,,,,,,,,,,,,,
,,65d6bb0e977760de756971f7,2024-02-22_05h45.48.070,kallum_motion_pilot,2023.2.2,Win32,59.88023952,60087e9189ddb34b79b08be5,65d6bb0e977760de756971f7,65d6d0186cbfc377f68bf130,0.0622,0.0624,0,149,149,104,1,fivesix,,,,,,,,,,,,,,,,,,,,,,,,,,,,,,,,,,,,,,,,,,,,,,,,,,,,,,,,,,,,,,,,,,,,,,,,,,,,,,,,,,,,,,,,,,,,,,,,,,,,,,,,,,,,,,,,,,,,,,,,,,,,,,,,,,,,,,,,,
,,65d6bb0e977760de756971f7,2024-02-22_05h45.48.070,kallum_motion_pilot,2023.2.2,Win32,59.88023952,60087e9189ddb34b79b08be5,65d6bb0e977760de756971f7,65d6d0186cbfc377f68bf130,0.0625,0.0625,0,150,150,61,1,threefour,,,,,,,,,,,,,,,,,,,,,,,,,,,,,,,,,,,,,,,,,,,,,,,,,,,,,,,,,,,,,,,,,,,,,,,,,,,,,,,,,,,,,,,,,,,,,,,,,,,,,,,,,,,,,,,,,,,,,,,,,,,,,,,,,,,,,,,,,
,,65d6bb0e977760de756971f7,2024-02-22_05h45.48.070,kallum_motion_pilot,2023.2.2,Win32,59.88023952,60087e9189ddb34b79b08be5,65d6bb0e977760de756971f7,65d6d0186cbfc377f68bf130,0.0627,0.0627,0,151,151,0,1,onetwo,,,,,,,,,,,,,,,,,,,,,,,,,,,,,,,,,,,,,,,,,,,,,,,,,,,,,,,,,,,,,,,,,,,,,,,,,,,,,,,,,,,,,,,,,,,,,,,,,,,,,,,,,,,,,,,,,,,,,,,,,,,,,,,,,,,,,,,,,
,,65d6bb0e977760de756971f7,2024-02-22_05h45.48.070,kallum_motion_pilot,2023.2.2,Win32,59.88023952,60087e9189ddb34b79b08be5,65d6bb0e977760de756971f7,65d6d0186cbfc377f68bf130,0.0628,0.0629,0,152,152,16,1,onetwo,,,,,,,,,,,,,,,,,,,,,,,,,,,,,,,,,,,,,,,,,,,,,,,,,,,,,,,,,,,,,,,,,,,,,,,,,,,,,,,,,,,,,,,,,,,,,,,,,,,,,,,,,,,,,,,,,,,,,,,,,,,,,,,,,,,,,,,,,
,,65d6bb0e977760de756971f7,2024-02-22_05h45.48.070,kallum_motion_pilot,2023.2.2,Win32,59.88023952,60087e9189ddb34b79b08be5,65d6bb0e977760de756971f7,65d6d0186cbfc377f68bf130,0.063,0.0631,0,153,153,128,1,fivesix,,,,,,,,,,,,,,,,,,,,,,,,,,,,,,,,,,,,,,,,,,,,,,,,,,,,,,,,,,,,,,,,,,,,,,,,,,,,,,,,,,,,,,,,,,,,,,,,,,,,,,,,,,,,,,,,,,,,,,,,,,,,,,,,,,,,,,,,,
,,65d6bb0e977760de756971f7,2024-02-22_05h45.48.070,kallum_motion_pilot,2023.2.2,Win32,59.88023952,60087e9189ddb34b79b08be5,65d6bb0e977760de756971f7,65d6d0186cbfc377f68bf130,0.0632,0.0633,0,154,154,12,1,threeone,,,,,,,,,,,,,,,,,,,,,,,,,,,,,,,,,,,,,,,,,,,,,,,,,,,,,,,,,,,,,,,,,,,,,,,,,,,,,,,,,,,,,,,,,,,,,,,,,,,,,,,,,,,,,,,,,,,,,,,,,,,,,,,,,,,,,,,,,
,,65d6bb0e977760de756971f7,2024-02-22_05h45.48.070,kallum_motion_pilot,2023.2.2,Win32,59.88023952,60087e9189ddb34b79b08be5,65d6bb0e977760de756971f7,65d6d0186cbfc377f68bf130,0.0633,0.0634,0,155,155,56,1,onetwo,,,,,,,,,,,,,,,,,,,,,,,,,,,,,,,,,,,,,,,,,,,,,,,,,,,,,,,,,,,,,,,,,,,,,,,,,,,,,,,,,,,,,,,,,,,,,,,,,,,,,,,,,,,,,,,,,,,,,,,,,,,,,,,,,,,,,,,,,
,,65d6bb0e977760de756971f7,2024-02-22_05h45.48.070,kallum_motion_pilot,2023.2.2,Win32,59.88023952,60087e9189ddb34b79b08be5,65d6bb0e977760de756971f7,65d6d0186cbfc377f68bf130,0.0635,0.0636,0,156,156,124,1,sevenfive,,,,,,,,,,,,,,,,,,,,,,,,,,,,,,,,,,,,,,,,,,,,,,,,,,,,,,,,,,,,,,,,,,,,,,,,,,,,,,,,,,,,,,,,,,,,,,,,,,,,,,,,,,,,,,,,,,,,,,,,,,,,,,,,,,,,,,,,,
,,65d6bb0e977760de756971f7,2024-02-22_05h45.48.070,kallum_motion_pilot,2023.2.2,Win32,59.88023952,60087e9189ddb34b79b08be5,65d6bb0e977760de756971f7,65d6d0186cbfc377f68bf130,0.0638,0.0638,0,157,157,79,1,eightseven,,,,,,,,,,,,,,,,,,,,,,,,,,,,,,,,,,,,,,,,,,,,,,,,,,,,,,,,,,,,,,,,,,,,,,,,,,,,,,,,,,,,,,,,,,,,,,,,,,,,,,,,,,,,,,,,,,,,,,,,,,,,,,,,,,,,,,,,,
,,65d6bb0e977760de756971f7,2024-02-22_05h45.48.070,kallum_motion_pilot,2023.2.2,Win32,59.88023952,60087e9189ddb34b79b08be5,65d6bb0e977760de756971f7,65d6d0186cbfc377f68bf130,0.0639,0.064,0,158,158,115,1,sixeight,,,,,,,,,,,,,,,,,,,,,,,,,,,,,,,,,,,,,,,,,,,,,,,,,,,,,,,,,,,,,,,,,,,,,,,,,,,,,,,,,,,,,,,,,,,,,,,,,,,,,,,,,,,,,,,,,,,,,,,,,,,,,,,,,,,,,,,,,
,,65d6bb0e977760de756971f7,2024-02-22_05h45.48.070,kallum_motion_pilot,2023.2.2,Win32,59.88023952,60087e9189ddb34b79b08be5,65d6bb0e977760de756971f7,65d6d0186cbfc377f68bf130,0.064,0.0641,0,159,159,26,1,twoone,,,,,,,,,,,,,,,,,,,,,,,,,,,,,,,,,,,,,,,,,,,,,,,,,,,,,,,,,,,,,,,,,,,,,,,,,,,,,,,,,,,,,,,,,,,,,,,,,,,,,,,,,,,,,,,,,,,,,,,,,,,,,,,,,,,,,,,,,
,,65d6bb0e977760de756971f7,2024-02-22_05h45.48.070,kallum_motion_pilot,2023.2.2,Win32,59.88023952,60087e9189ddb34b79b08be5,65d6bb0e977760de756971f7,65d6d0186cbfc377f68bf130,0.0643,0.0643,0,160,160,139,1,sixeight,,,,,,,,,,,,,,,,,,,,,,,,,,,,,,,,,,,,,,,,,,,,,,,,,,,,,,,,,,,,,,,,,,,,,,,,,,,,,,,,,,,,,,,,,,,,,,,,,,,,,,,,,,,,,,,,,,,,,,,,,,,,,,,,,,,,,,,,,
,,65d6bb0e977760de756971f7,2024-02-22_05h45.48.070,kallum_motion_pilot,2023.2.2,Win32,59.88023952,60087e9189ddb34b79b08be5,65d6bb0e977760de756971f7,65d6d0186cbfc377f68bf130,0.0645,0.0645,0,161,161,101,1,seveneight,,,,,,,,,,,,,,,,,,,,,,,,,,,,,,,,,,,,,,,,,,,,,,,,,,,,,,,,,,,,,,,,,,,,,,,,,,,,,,,,,,,,,,,,,,,,,,,,,,,,,,,,,,,,,,,,,,,,,,,,,,,,,,,,,,,,,,,,,
,,65d6bb0e977760de756971f7,2024-02-22_05h45.48.070,kallum_motion_pilot,2023.2.2,Win32,59.88023952,60087e9189ddb34b79b08be5,65d6bb0e977760de756971f7,65d6d0186cbfc377f68bf130,0.0646,0.0648,1,0,162,30,1,fourtwo,,,,,,,,,,,,,,,,,,,,,,,,,,,,,,,,,,,,,,,,,,,,,,,,,,,,,,,,,,,,,,,,,,,,,,,,,,,,,,,,,,,,,,,,,,,,,,,,,,,,,,,,,,,,,,,,,,,,,,,,,,,,,,,,,,,,,,,,,
,,65d6bb0e977760de756971f7,2024-02-22_05h45.48.070,kallum_motion_pilot,2023.2.2,Win32,59.88023952,60087e9189ddb34b79b08be5,65d6bb0e977760de756971f7,65d6d0186cbfc377f68bf130,0.0649,0.065,1,1,163,10,1,twoone,,,,,,,,,,,,,,,,,,,,,,,,,,,,,,,,,,,,,,,,,,,,,,,,,,,,,,,,,,,,,,,,,,,,,,,,,,,,,,,,,,,,,,,,,,,,,,,,,,,,,,,,,,,,,,,,,,,,,,,,,,,,,,,,,,,,,,,,,
,,65d6bb0e977760de756971f7,2024-02-22_05h45.48.070,kallum_motion_pilot,2023.2.2,Win32,59.88023952,60087e9189ddb34b79b08be5,65d6bb0e977760de756971f7,65d6d0186cbfc377f68bf130,0.065,0.0652,1,2,164,126,1,eightsix,,,,,,,,,,,,,,,,,,,,,,,,,,,,,,,,,,,,,,,,,,,,,,,,,,,,,,,,,,,,,,,,,,,,,,,,,,,,,,,,,,,,,,,,,,,,,,,,,,,,,,,,,,,,,,,,,,,,,,,,,,,,,,,,,,,,,,,,,
,,65d6bb0e977760de756971f7,2024-02-22_05h45.48.070,kallum_motion_pilot,2023.2.2,Win32,59.88023952,60087e9189ddb34b79b08be5,65d6bb0e977760de756971f7,65d6d0186cbfc377f68bf130,0.0652,0.0653,1,3,165,101,1,seveneight,,,,,,,,,,,,,,,,,,,,,,,,,,,,,,,,,,,,,,,,,,,,,,,,,,,,,,,,,,,,,,,,,,,,,,,,,,,,,,,,,,,,,,,,,,,,,,,,,,,,,,,,,,,,,,,,,,,,,,,,,,,,,,,,,,,,,,,,,
,,65d6bb0e977760de756971f7,2024-02-22_05h45.48.070,kallum_motion_pilot,2023.2.2,Win32,59.88023952,60087e9189ddb34b79b08be5,65d6bb0e977760de756971f7,65d6d0186cbfc377f68bf130,0.0654,0.0655,1,4,166,0,1,onetwo,,,,,,,,,,,,,,,,,,,,,,,,,,,,,,,,,,,,,,,,,,,,,,,,,,,,,,,,,,,,,,,,,,,,,,,,,,,,,,,,,,,,,,,,,,,,,,,,,,,,,,,,,,,,,,,,,,,,,,,,,,,,,,,,,,,,,,,,,
,,65d6bb0e977760de756971f7,2024-02-22_05h45.48.070,kallum_motion_pilot,2023.2.2,Win32,59.88023952,60087e9189ddb34b79b08be5,65d6bb0e977760de756971f7,65d6d0186cbfc377f68bf130,0.0656,0.0657,1,5,167,16,1,onetwo,,,,,,,,,,,,,,,,,,,,,,,,,,,,,,,,,,,,,,,,,,,,,,,,,,,,,,,,,,,,,,,,,,,,,,,,,,,,,,,,,,,,,,,,,,,,,,,,,,,,,,,,,,,,,,,,,,,,,,,,,,,,,,,,,,,,,,,,,
,,65d6bb0e977760de756971f7,2024-02-22_05h45.48.070,kallum_motion_pilot,2023.2.2,Win32,59.88023952,60087e9189ddb34b79b08be5,65d6bb0e977760de756971f7,65d6d0186cbfc377f68bf130,0.0657,0.0658,1,6,168,57,1,onethree,,,,,,,,,,,,,,,,,,,,,,,,,,,,,,,,,,,,,,,,,,,,,,,,,,,,,,,,,,,,,,,,,,,,,,,,,,,,,,,,,,,,,,,,,,,,,,,,,,,,,,,,,,,,,,,,,,,,,,,,,,,,,,,,,,,,,,,,,
,,65d6bb0e977760de756971f7,2024-02-22_05h45.48.070,kallum_motion_pilot,2023.2.2,Win32,59.88023952,60087e9189ddb34b79b08be5,65d6bb0e977760de756971f7,65d6d0186cbfc377f68bf130,0.0659,0.066,1,7,169,8,1,onetwo,,,,,,,,,,,,,,,,,,,,,,,,,,,,,,,,,,,,,,,,,,,,,,,,,,,,,,,,,,,,,,,,,,,,,,,,,,,,,,,,,,,,,,,,,,,,,,,,,,,,,,,,,,,,,,,,,,,,,,,,,,,,,,,,,,,,,,,,,
,,65d6bb0e977760de756971f7,2024-02-22_05h45.48.070,kallum_motion_pilot,2023.2.2,Win32,59.88023952,60087e9189ddb34b79b08be5,65d6bb0e977760de756971f7,65d6d0186cbfc377f68bf130,0.0661,0.0662,1,8,170,23,1,fourthree,,,,,,,,,,,,,,,,,,,,,,,,,,,,,,,,,,,,,,,,,,,,,,,,,,,,,,,,,,,,,,,,,,,,,,,,,,,,,,,,,,,,,,,,,,,,,,,,,,,,,,,,,,,,,,,,,,,,,,,,,,,,,,,,,,,,,,,,,
,,65d6bb0e977760de756971f7,2024-02-22_05h45.48.070,kallum_motion_pilot,2023.2.2,Win32,59.88023952,60087e9189ddb34b79b08be5,65d6bb0e977760de756971f7,65d6d0186cbfc377f68bf130,0.0663,0.0664,1,9,171,105,1,fiveseven,,,,,,,,,,,,,,,,,,,,,,,,,,,,,,,,,,,,,,,,,,,,,,,,,,,,,,,,,,,,,,,,,,,,,,,,,,,,,,,,,,,,,,,,,,,,,,,,,,,,,,,,,,,,,,,,,,,,,,,,,,,,,,,,,,,,,,,,,
,,65d6bb0e977760de756971f7,2024-02-22_05h45.48.070,kallum_motion_pilot,2023.2.2,Win32,59.88023952,60087e9189ddb34b79b08be5,65d6bb0e977760de756971f7,65d6d0186cbfc377f68bf130,0.0665,0.0665,1,10,172,109,1,seveneight,,,,,,,,,,,,,,,,,,,,,,,,,,,,,,,,,,,,,,,,,,,,,,,,,,,,,,,,,,,,,,,,,,,,,,,,,,,,,,,,,,,,,,,,,,,,,,,,,,,,,,,,,,,,,,,,,,,,,,,,,,,,,,,,,,,,,,,,,
,,65d6bb0e977760de756971f7,2024-02-22_05h45.48.070,kallum_motion_pilot,2023.2.2,Win32,59.88023952,60087e9189ddb34b79b08be5,65d6bb0e977760de756971f7,65d6d0186cbfc377f68bf130,0.0667,0.0668,1,11,173,58,1,twoone,,,,,,,,,,,,,,,,,,,,,,,,,,,,,,,,,,,,,,,,,,,,,,,,,,,,,,,,,,,,,,,,,,,,,,,,,,,,,,,,,,,,,,,,,,,,,,,,,,,,,,,,,,,,,,,,,,,,,,,,,,,,,,,,,,,,,,,,,
,,65d6bb0e977760de756971f7,2024-02-22_05h45.48.070,kallum_motion_pilot,2023.2.2,Win32,59.88023952,60087e9189ddb34b79b08be5,65d6bb0e977760de756971f7,65d6d0186cbfc377f68bf130,0.0668,0.0669,1,12,174,53,1,threefour,,,,,,,,,,,,,,,,,,,,,,,,,,,,,,,,,,,,,,,,,,,,,,,,,,,,,,,,,,,,,,,,,,,,,,,,,,,,,,,,,,,,,,,,,,,,,,,,,,,,,,,,,,,,,,,,,,,,,,,,,,,,,,,,,,,,,,,,,
,,65d6bb0e977760de756971f7,2024-02-22_05h45.48.070,kallum_motion_pilot,2023.2.2,Win32,59.88023952,60087e9189ddb34b79b08be5,65d6bb0e977760de756971f7,65d6d0186cbfc377f68bf130,0.067,0.0671,1,13,175,52,1,threeone,,,,,,,,,,,,,,,,,,,,,,,,,,,,,,,,,,,,,,,,,,,,,,,,,,,,,,,,,,,,,,,,,,,,,,,,,,,,,,,,,,,,,,,,,,,,,,,,,,,,,,,,,,,,,,,,,,,,,,,,,,,,,,,,,,,,,,,,,
,,65d6bb0e977760de756971f7,2024-02-22_05h45.48.070,kallum_motion_pilot,2023.2.2,Win32,59.88023952,60087e9189ddb34b79b08be5,65d6bb0e977760de756971f7,65d6d0186cbfc377f68bf130,0.0672,0.0673,1,14,176,2,1,twoone,,,,,,,,,,,,,,,,,,,,,,,,,,,,,,,,,,,,,,,,,,,,,,,,,,,,,,,,,,,,,,,,,,,,,,,,,,,,,,,,,,,,,,,,,,,,,,,,,,,,,,,,,,,,,,,,,,,,,,,,,,,,,,,,,,,,,,,,,
,,65d6bb0e977760de756971f7,2024-02-22_05h45.48.070,kallum_motion_pilot,2023.2.2,Win32,59.88023952,60087e9189ddb34b79b08be5,65d6bb0e977760de756971f7,65d6d0186cbfc377f68bf130,0.0674,0.0675,1,15,177,147,1,sixeight,,,,,,,,,,,,,,,,,,,,,,,,,,,,,,,,,,,,,,,,,,,,,,,,,,,,,,,,,,,,,,,,,,,,,,,,,,,,,,,,,,,,,,,,,,,,,,,,,,,,,,,,,,,,,,,,,,,,,,,,,,,,,,,,,,,,,,,,,
,,65d6bb0e977760de756971f7,2024-02-22_05h45.48.070,kallum_motion_pilot,2023.2.2,Win32,59.88023952,60087e9189ddb34b79b08be5,65d6bb0e977760de756971f7,65d6d0186cbfc377f68bf130,0.0676,0.0677,1,16,178,134,1,eightsix,,,,,,,,,,,,,,,,,,,,,,,,,,,,,,,,,,,,,,,,,,,,,,,,,,,,,,,,,,,,,,,,,,,,,,,,,,,,,,,,,,,,,,,,,,,,,,,,,,,,,,,,,,,,,,,,,,,,,,,,,,,,,,,,,,,,,,,,,
,,65d6bb0e977760de756971f7,2024-02-22_05h45.48.070,kallum_motion_pilot,2023.2.2,Win32,59.88023952,60087e9189ddb34b79b08be5,65d6bb0e977760de756971f7,65d6d0186cbfc377f68bf130,0.0677,0.0678,1,17,179,77,1,threefour,,,,,,,,,,,,,,,,,,,,,,,,,,,,,,,,,,,,,,,,,,,,,,,,,,,,,,,,,,,,,,,,,,,,,,,,,,,,,,,,,,,,,,,,,,,,,,,,,,,,,,,,,,,,,,,,,,,,,,,,,,,,,,,,,,,,,,,,,
,,65d6bb0e977760de756971f7,2024-02-22_05h45.48.070,kallum_motion_pilot,2023.2.2,Win32,59.88023952,60087e9189ddb34b79b08be5,65d6bb0e977760de756971f7,65d6d0186cbfc377f68bf130,0.068,0.068,1,18,180,76,1,threeone,,,,,,,,,,,,,,,,,,,,,,,,,,,,,,,,,,,,,,,,,,,,,,,,,,,,,,,,,,,,,,,,,,,,,,,,,,,,,,,,,,,,,,,,,,,,,,,,,,,,,,,,,,,,,,,,,,,,,,,,,,,,,,,,,,,,,,,,,
,,65d6bb0e977760de756971f7,2024-02-22_05h45.48.070,kallum_motion_pilot,2023.2.2,Win32,59.88023952,60087e9189ddb34b79b08be5,65d6bb0e977760de756971f7,65d6d0186cbfc377f68bf130,0.0682,0.0682,1,19,181,128,1,fivesix,,,,,,,,,,,,,,,,,,,,,,,,,,,,,,,,,,,,,,,,,,,,,,,,,,,,,,,,,,,,,,,,,,,,,,,,,,,,,,,,,,,,,,,,,,,,,,,,,,,,,,,,,,,,,,,,,,,,,,,,,,,,,,,,,,,,,,,,,
,,65d6bb0e977760de756971f7,2024-02-22_05h45.48.070,kallum_motion_pilot,2023.2.2,Win32,59.88023952,60087e9189ddb34b79b08be5,65d6bb0e977760de756971f7,65d6d0186cbfc377f68bf130,0.0684,0.0684,1,20,182,38,1,fourtwo,,,,,,,,,,,,,,,,,,,,,,,,,,,,,,,,,,,,,,,,,,,,,,,,,,,,,,,,,,,,,,,,,,,,,,,,,,,,,,,,,,,,,,,,,,,,,,,,,,,,,,,,,,,,,,,,,,,,,,,,,,,,,,,,,,,,,,,,,
,,65d6bb0e977760de756971f7,2024-02-22_05h45.48.070,kallum_motion_pilot,2023.2.2,Win32,59.88023952,60087e9189ddb34b79b08be5,65d6bb0e977760de756971f7,65d6d0186cbfc377f68bf130,0.0685,0.0686,1,21,183,27,1,twofour,,,,,,,,,,,,,,,,,,,,,,,,,,,,,,,,,,,,,,,,,,,,,,,,,,,,,,,,,,,,,,,,,,,,,,,,,,,,,,,,,,,,,,,,,,,,,,,,,,,,,,,,,,,,,,,,,,,,,,,,,,,,,,,,,,,,,,,,,
,,65d6bb0e977760de756971f7,2024-02-22_05h45.48.070,kallum_motion_pilot,2023.2.2,Win32,59.88023952,60087e9189ddb34b79b08be5,65d6bb0e977760de756971f7,65d6d0186cbfc377f68bf130,0.0688,0.0688,1,22,184,116,1,sevenfive,,,,,,,,,,,,,,,,,,,,,,,,,,,,,,,,,,,,,,,,,,,,,,,,,,,,,,,,,,,,,,,,,,,,,,,,,,,,,,,,,,,,,,,,,,,,,,,,,,,,,,,,,,,,,,,,,,,,,,,,,,,,,,,,,,,,,,,,,
,,65d6bb0e977760de756971f7,2024-02-22_05h45.48.070,kallum_motion_pilot,2023.2.2,Win32,59.88023952,60087e9189ddb34b79b08be5,65d6bb0e977760de756971f7,65d6d0186cbfc377f68bf130,0.069,0.069,1,23,185,83,1,sixeight,,,,,,,,,,,,,,,,,,,,,,,,,,,,,,,,,,,,,,,,,,,,,,,,,,,,,,,,,,,,,,,,,,,,,,,,,,,,,,,,,,,,,,,,,,,,,,,,,,,,,,,,,,,,,,,,,,,,,,,,,,,,,,,,,,,,,,,,,
,,65d6bb0e977760de756971f7,2024-02-22_05h45.48.070,kallum_motion_pilot,2023.2.2,Win32,59.88023952,60087e9189ddb34b79b08be5,65d6bb0e977760de756971f7,65d6d0186cbfc377f68bf130,0.0691,0.0693,1,24,186,22,1,fourtwo,,,,,,,,,,,,,,,,,,,,,,,,,,,,,,,,,,,,,,,,,,,,,,,,,,,,,,,,,,,,,,,,,,,,,,,,,,,,,,,,,,,,,,,,,,,,,,,,,,,,,,,,,,,,,,,,,,,,,,,,,,,,,,,,,,,,,,,,,
,,65d6bb0e977760de756971f7,2024-02-22_05h45.48.070,kallum_motion_pilot,2023.2.2,Win32,59.88023952,60087e9189ddb34b79b08be5,65d6bb0e977760de756971f7,65d6d0186cbfc377f68bf130,0.0693,0.0694,1,25,187,65,1,onethree,,,,,,,,,,,,,,,,,,,,,,,,,,,,,,,,,,,,,,,,,,,,,,,,,,,,,,,,,,,,,,,,,,,,,,,,,,,,,,,,,,,,,,,,,,,,,,,,,,,,,,,,,,,,,,,,,,,,,,,,,,,,,,,,,,,,,,,,,
,,65d6bb0e977760de756971f7,2024-02-22_05h45.48.070,kallum_motion_pilot,2023.2.2,Win32,59.88023952,60087e9189ddb34b79b08be5,65d6bb0e977760de756971f7,65d6d0186cbfc377f68bf130,0.0695,0.0696,1,26,188,144,1,fivesix,,,,,,,,,,,,,,,,,,,,,,,,,,,,,,,,,,,,,,,,,,,,,,,,,,,,,,,,,,,,,,,,,,,,,,,,,,,,,,,,,,,,,,,,,,,,,,,,,,,,,,,,,,,,,,,,,,,,,,,,,,,,,,,,,,,,,,,,,
,,65d6bb0e977760de756971f7,2024-02-22_05h45.48.070,kallum_motion_pilot,2023.2.2,Win32,59.88023952,60087e9189ddb34b79b08be5,65d6bb0e977760de756971f7,65d6d0186cbfc377f68bf130,0.0697,0.0698,1,27,189,121,1,fiveseven,,,,,,,,,,,,,,,,,,,,,,,,,,,,,,,,,,,,,,,,,,,,,,,,,,,,,,,,,,,,,,,,,,,,,,,,,,,,,,,,,,,,,,,,,,,,,,,,,,,,,,,,,,,,,,,,,,,,,,,,,,,,,,,,,,,,,,,,,
,,65d6bb0e977760de756971f7,2024-02-22_05h45.48.070,kallum_motion_pilot,2023.2.2,Win32,59.88023952,60087e9189ddb34b79b08be5,65d6bb0e977760de756971f7,65d6d0186cbfc377f68bf130,0.0699,0.07,1,28,190,92,1,sevenfive,,,,,,,,,,,,,,,,,,,,,,,,,,,,,,,,,,,,,,,,,,,,,,,,,,,,,,,,,,,,,,,,,,,,,,,,,,,,,,,,,,,,,,,,,,,,,,,,,,,,,,,,,,,,,,,,,,,,,,,,,,,,,,,,,,,,,,,,,
,,65d6bb0e977760de756971f7,2024-02-22_05h45.48.070,kallum_motion_pilot,2023.2.2,Win32,59.88023952,60087e9189ddb34b79b08be5,65d6bb0e977760de756971f7,65d6d0186cbfc377f68bf130,0.0701,0.0701,1,29,191,94,1,eightsix,,,,,,,,,,,,,,,,,,,,,,,,,,,,,,,,,,,,,,,,,,,,,,,,,,,,,,,,,,,,,,,,,,,,,,,,,,,,,,,,,,,,,,,,,,,,,,,,,,,,,,,,,,,,,,,,,,,,,,,,,,,,,,,,,,,,,,,,,
,,65d6bb0e977760de756971f7,2024-02-22_05h45.48.070,kallum_motion_pilot,2023.2.2,Win32,59.88023952,60087e9189ddb34b79b08be5,65d6bb0e977760de756971f7,65d6d0186cbfc377f68bf130,0.0703,0.0704,1,30,192,81,1,fiveseven,,,,,,,,,,,,,,,,,,,,,,,,,,,,,,,,,,,,,,,,,,,,,,,,,,,,,,,,,,,,,,,,,,,,,,,,,,,,,,,,,,,,,,,,,,,,,,,,,,,,,,,,,,,,,,,,,,,,,,,,,,,,,,,,,,,,,,,,,
,,65d6bb0e977760de756971f7,2024-02-22_05h45.48.070,kallum_motion_pilot,2023.2.2,Win32,59.88023952,60087e9189ddb34b79b08be5,65d6bb0e977760de756971f7,65d6d0186cbfc377f68bf130,0.0704,0.0705,1,31,193,71,1,fourthree,,,,,,,,,,,,,,,,,,,,,,,,,,,,,,,,,,,,,,,,,,,,,,,,,,,,,,,,,,,,,,,,,,,,,,,,,,,,,,,,,,,,,,,,,,,,,,,,,,,,,,,,,,,,,,,,,,,,,,,,,,,,,,,,,,,,,,,,,
,,65d6bb0e977760de756971f7,2024-02-22_05h45.48.070,kallum_motion_pilot,2023.2.2,Win32,59.88023952,60087e9189ddb34b79b08be5,65d6bb0e977760de756971f7,65d6d0186cbfc377f68bf130,0.0707,0.0707,1,32,194,82,1,sixfive,,,,,,,,,,,,,,,,,,,,,,,,,,,,,,,,,,,,,,,,,,,,,,,,,,,,,,,,,,,,,,,,,,,,,,,,,,,,,,,,,,,,,,,,,,,,,,,,,,,,,,,,,,,,,,,,,,,,,,,,,,,,,,,,,,,,,,,,,
,,65d6bb0e977760de756971f7,2024-02-22_05h45.48.070,kallum_motion_pilot,2023.2.2,Win32,59.88023952,60087e9189ddb34b79b08be5,65d6bb0e977760de756971f7,65d6d0186cbfc377f68bf130,0.0708,0.0709,1,33,195,69,1,threefour,,,,,,,,,,,,,,,,,,,,,,,,,,,,,,,,,,,,,,,,,,,,,,,,,,,,,,,,,,,,,,,,,,,,,,,,,,,,,,,,,,,,,,,,,,,,,,,,,,,,,,,,,,,,,,,,,,,,,,,,,,,,,,,,,,,,,,,,,
,,65d6bb0e977760de756971f7,2024-02-22_05h45.48.070,kallum_motion_pilot,2023.2.2,Win32,59.88023952,60087e9189ddb34b79b08be5,65d6bb0e977760de756971f7,65d6d0186cbfc377f68bf130,0.071,0.0711,1,34,196,4,1,threeone,,,,,,,,,,,,,,,,,,,,,,,,,,,,,,,,,,,,,,,,,,,,,,,,,,,,,,,,,,,,,,,,,,,,,,,,,,,,,,,,,,,,,,,,,,,,,,,,,,,,,,,,,,,,,,,,,,,,,,,,,,,,,,,,,,,,,,,,,
,,65d6bb0e977760de756971f7,2024-02-22_05h45.48.070,kallum_motion_pilot,2023.2.2,Win32,59.88023952,60087e9189ddb34b79b08be5,65d6bb0e977760de756971f7,65d6d0186cbfc377f68bf130,0.0713,0.0714,1,35,197,160,1,fivesix,,,,,,,,,,,,,,,,,,,,,,,,,,,,,,,,,,,,,,,,,,,,,,,,,,,,,,,,,,,,,,,,,,,,,,,,,,,,,,,,,,,,,,,,,,,,,,,,,,,,,,,,,,,,,,,,,,,,,,,,,,,,,,,,,,,,,,,,,
,,65d6bb0e977760de756971f7,2024-02-22_05h45.48.070,kallum_motion_pilot,2023.2.2,Win32,59.88023952,60087e9189ddb34b79b08be5,65d6bb0e977760de756971f7,65d6d0186cbfc377f68bf130,0.0715,0.0716,1,36,198,74,1,twoone,,,,,,,,,,,,,,,,,,,,,,,,,,,,,,,,,,,,,,,,,,,,,,,,,,,,,,,,,,,,,,,,,,,,,,,,,,,,,,,,,,,,,,,,,,,,,,,,,,,,,,,,,,,,,,,,,,,,,,,,,,,,,,,,,,,,,,,,,
,,65d6bb0e977760de756971f7,2024-02-22_05h45.48.070,kallum_motion_pilot,2023.2.2,Win32,59.88023952,60087e9189ddb34b79b08be5,65d6bb0e977760de756971f7,65d6d0186cbfc377f68bf130,0.0716,0.0718,1,37,199,140,1,sevenfive,,,,,,,,,,,,,,,,,,,,,,,,,,,,,,,,,,,,,,,,,,,,,,,,,,,,,,,,,,,,,,,,,,,,,,,,,,,,,,,,,,,,,,,,,,,,,,,,,,,,,,,,,,,,,,,,,,,,,,,,,,,,,,,,,,,,,,,,,
,,65d6bb0e977760de756971f7,2024-02-22_05h45.48.070,kallum_motion_pilot,2023.2.2,Win32,59.88023952,60087e9189ddb34b79b08be5,65d6bb0e977760de756971f7,65d6d0186cbfc377f68bf130,0.0718,0.0719,1,38,200,127,1,eightseven,,,,,,,,,,,,,,,,,,,,,,,,,,,,,,,,,,,,,,,,,,,,,,,,,,,,,,,,,,,,,,,,,,,,,,,,,,,,,,,,,,,,,,,,,,,,,,,,,,,,,,,,,,,,,,,,,,,,,,,,,,,,,,,,,,,,,,,,,
,,65d6bb0e977760de756971f7,2024-02-22_05h45.48.070,kallum_motion_pilot,2023.2.2,Win32,59.88023952,60087e9189ddb34b79b08be5,65d6bb0e977760de756971f7,65d6d0186cbfc377f68bf130,0.0721,0.0721,1,39,201,1,1,onethree,,,,,,,,,,,,,,,,,,,,,,,,,,,,,,,,,,,,,,,,,,,,,,,,,,,,,,,,,,,,,,,,,,,,,,,,,,,,,,,,,,,,,,,,,,,,,,,,,,,,,,,,,,,,,,,,,,,,,,,,,,,,,,,,,,,,,,,,,
,,65d6bb0e977760de756971f7,2024-02-22_05h45.48.070,kallum_motion_pilot,2023.2.2,Win32,59.88023952,60087e9189ddb34b79b08be5,65d6bb0e977760de756971f7,65d6d0186cbfc377f68bf130,0.0723,0.0723,1,40,202,120,1,fivesix,,,,,,,,,,,,,,,,,,,,,,,,,,,,,,,,,,,,,,,,,,,,,,,,,,,,,,,,,,,,,,,,,,,,,,,,,,,,,,,,,,,,,,,,,,,,,,,,,,,,,,,,,,,,,,,,,,,,,,,,,,,,,,,,,,,,,,,,,
,,65d6bb0e977760de756971f7,2024-02-22_05h45.48.070,kallum_motion_pilot,2023.2.2,Win32,59.88023952,60087e9189ddb34b79b08be5,65d6bb0e977760de756971f7,65d6d0186cbfc377f68bf130,0.0724,0.0725,1,41,203,122,1,sixfive,,,,,,,,,,,,,,,,,,,,,,,,,,,,,,,,,,,,,,,,,,,,,,,,,,,,,,,,,,,,,,,,,,,,,,,,,,,,,,,,,,,,,,,,,,,,,,,,,,,,,,,,,,,,,,,,,,,,,,,,,,,,,,,,,,,,,,,,,
,,65d6bb0e977760de756971f7,2024-02-22_05h45.48.070,kallum_motion_pilot,2023.2.2,Win32,59.88023952,60087e9189ddb34b79b08be5,65d6bb0e977760de756971f7,65d6d0186cbfc377f68bf130,0.0726,0.0727,1,42,204,7,1,fourthree,,,,,,,,,,,,,,,,,,,,,,,,,,,,,,,,,,,,,,,,,,,,,,,,,,,,,,,,,,,,,,,,,,,,,,,,,,,,,,,,,,,,,,,,,,,,,,,,,,,,,,,,,,,,,,,,,,,,,,,,,,,,,,,,,,,,,,,,,
,,65d6bb0e977760de756971f7,2024-02-22_05h45.48.070,kallum_motion_pilot,2023.2.2,Win32,59.88023952,60087e9189ddb34b79b08be5,65d6bb0e977760de756971f7,65d6d0186cbfc377f68bf130,0.0728,0.0729,1,43,205,88,1,fivesix,,,,,,,,,,,,,,,,,,,,,,,,,,,,,,,,,,,,,,,,,,,,,,,,,,,,,,,,,,,,,,,,,,,,,,,,,,,,,,,,,,,,,,,,,,,,,,,,,,,,,,,,,,,,,,,,,,,,,,,,,,,,,,,,,,,,,,,,,
,,65d6bb0e977760de756971f7,2024-02-22_05h45.48.070,kallum_motion_pilot,2023.2.2,Win32,59.88023952,60087e9189ddb34b79b08be5,65d6bb0e977760de756971f7,65d6d0186cbfc377f68bf130,0.073,0.0731,1,44,206,72,1,onetwo,,,,,,,,,,,,,,,,,,,,,,,,,,,,,,,,,,,,,,,,,,,,,,,,,,,,,,,,,,,,,,,,,,,,,,,,,,,,,,,,,,,,,,,,,,,,,,,,,,,,,,,,,,,,,,,,,,,,,,,,,,,,,,,,,,,,,,,,,
,,65d6bb0e977760de756971f7,2024-02-22_05h45.48.070,kallum_motion_pilot,2023.2.2,Win32,59.88023952,60087e9189ddb34b79b08be5,65d6bb0e977760de756971f7,65d6d0186cbfc377f68bf130,0.0732,0.0733,1,45,207,73,1,onethree,,,,,,,,,,,,,,,,,,,,,,,,,,,,,,,,,,,,,,,,,,,,,,,,,,,,,,,,,,,,,,,,,,,,,,,,,,,,,,,,,,,,,,,,,,,,,,,,,,,,,,,,,,,,,,,,,,,,,,,,,,,,,,,,,,,,,,,,,
,,65d6bb0e977760de756971f7,2024-02-22_05h45.48.070,kallum_motion_pilot,2023.2.2,Win32,59.88023952,60087e9189ddb34b79b08be5,65d6bb0e977760de756971f7,65d6d0186cbfc377f68bf130,0.0734,0.0734,1,46,208,157,1,seveneight,,,,,,,,,,,,,,,,,,,,,,,,,,,,,,,,,,,,,,,,,,,,,,,,,,,,,,,,,,,,,,,,,,,,,,,,,,,,,,,,,,,,,,,,,,,,,,,,,,,,,,,,,,,,,,,,,,,,,,,,,,,,,,,,,,,,,,,,,
,,65d6bb0e977760de756971f7,2024-02-22_05h45.48.070,kallum_motion_pilot,2023.2.2,Win32,59.88023952,60087e9189ddb34b79b08be5,65d6bb0e977760de756971f7,65d6d0186cbfc377f68bf130,0.0736,0.0737,1,47,209,62,1,fourtwo,,,,,,,,,,,,,,,,,,,,,,,,,,,,,,,,,,,,,,,,,,,,,,,,,,,,,,,,,,,,,,,,,,,,,,,,,,,,,,,,,,,,,,,,,,,,,,,,,,,,,,,,,,,,,,,,,,,,,,,,,,,,,,,,,,,,,,,,,
,,65d6bb0e977760de756971f7,2024-02-22_05h45.48.070,kallum_motion_pilot,2023.2.2,Win32,59.88023952,60087e9189ddb34b79b08be5,65d6bb0e977760de756971f7,65d6d0186cbfc377f68bf130,0.0738,0.0739,1,48,210,26,1,twoone,,,,,,,,,,,,,,,,,,,,,,,,,,,,,,,,,,,,,,,,,,,,,,,,,,,,,,,,,,,,,,,,,,,,,,,,,,,,,,,,,,,,,,,,,,,,,,,,,,,,,,,,,,,,,,,,,,,,,,,,,,,,,,,,,,,,,,,,,
,,65d6bb0e977760de756971f7,2024-02-22_05h45.48.070,kallum_motion_pilot,2023.2.2,Win32,59.88023952,60087e9189ddb34b79b08be5,65d6bb0e977760de756971f7,65d6d0186cbfc377f68bf130,0.0741,0.0742,1,49,211,154,1,sixfive,,,,,,,,,,,,,,,,,,,,,,,,,,,,,,,,,,,,,,,,,,,,,,,,,,,,,,,,,,,,,,,,,,,,,,,,,,,,,,,,,,,,,,,,,,,,,,,,,,,,,,,,,,,,,,,,,,,,,,,,,,,,,,,,,,,,,,,,,
,,65d6bb0e977760de756971f7,2024-02-22_05h45.48.070,kallum_motion_pilot,2023.2.2,Win32,59.88023952,60087e9189ddb34b79b08be5,65d6bb0e977760de756971f7,65d6d0186cbfc377f68bf130,0.0744,0.0745,1,50,212,148,1,sevenfive,,,,,,,,,,,,,,,,,,,,,,,,,,,,,,,,,,,,,,,,,,,,,,,,,,,,,,,,,,,,,,,,,,,,,,,,,,,,,,,,,,,,,,,,,,,,,,,,,,,,,,,,,,,,,,,,,,,,,,,,,,,,,,,,,,,,,,,,,
,,65d6bb0e977760de756971f7,2024-02-22_05h45.48.070,kallum_motion_pilot,2023.2.2,Win32,59.88023952,60087e9189ddb34b79b08be5,65d6bb0e977760de756971f7,65d6d0186cbfc377f68bf130,0.0747,0.0749,1,51,213,152,1,fivesix,,,,,,,,,,,,,,,,,,,,,,,,,,,,,,,,,,,,,,,,,,,,,,,,,,,,,,,,,,,,,,,,,,,,,,,,,,,,,,,,,,,,,,,,,,,,,,,,,,,,,,,,,,,,,,,,,,,,,,,,,,,,,,,,,,,,,,,,,
,,65d6bb0e977760de756971f7,2024-02-22_05h45.48.070,kallum_motion_pilot,2023.2.2,Win32,59.88023952,60087e9189ddb34b79b08be5,65d6bb0e977760de756971f7,65d6d0186cbfc377f68bf130,0.075,0.0751,1,52,214,15,1,fourthree,,,,,,,,,,,,,,,,,,,,,,,,,,,,,,,,,,,,,,,,,,,,,,,,,,,,,,,,,,,,,,,,,,,,,,,,,,,,,,,,,,,,,,,,,,,,,,,,,,,,,,,,,,,,,,,,,,,,,,,,,,,,,,,,,,,,,,,,,
,,65d6bb0e977760de756971f7,2024-02-22_05h45.48.070,kallum_motion_pilot,2023.2.2,Win32,59.88023952,60087e9189ddb34b79b08be5,65d6bb0e977760de756971f7,65d6d0186cbfc377f68bf130,0.0753,0.0754,1,53,215,138,1,sixfive,,,,,,,,,,,,,,,,,,,,,,,,,,,,,,,,,,,,,,,,,,,,,,,,,,,,,,,,,,,,,,,,,,,,,,,,,,,,,,,,,,,,,,,,,,,,,,,,,,,,,,,,,,,,,,,,,,,,,,,,,,,,,,,,,,,,,,,,,
,,65d6bb0e977760de756971f7,2024-02-22_05h45.48.070,kallum_motion_pilot,2023.2.2,Win32,59.88023952,60087e9189ddb34b79b08be5,65d6bb0e977760de756971f7,65d6d0186cbfc377f68bf130,0.0755,0.0756,1,54,216,48,1,onetwo,,,,,,,,,,,,,,,,,,,,,,,,,,,,,,,,,,,,,,,,,,,,,,,,,,,,,,,,,,,,,,,,,,,,,,,,,,,,,,,,,,,,,,,,,,,,,,,,,,,,,,,,,,,,,,,,,,,,,,,,,,,,,,,,,,,,,,,,,
,,65d6bb0e977760de756971f7,2024-02-22_05h45.48.070,kallum_motion_pilot,2023.2.2,Win32,59.88023952,60087e9189ddb34b79b08be5,65d6bb0e977760de756971f7,65d6d0186cbfc377f68bf130,0.0756,0.0758,1,55,217,98,1,sixfive,,,,,,,,,,,,,,,,,,,,,,,,,,,,,,,,,,,,,,,,,,,,,,,,,,,,,,,,,,,,,,,,,,,,,,,,,,,,,,,,,,,,,,,,,,,,,,,,,,,,,,,,,,,,,,,,,,,,,,,,,,,,,,,,,,,,,,,,,
,,65d6bb0e977760de756971f7,2024-02-22_05h45.48.070,kallum_motion_pilot,2023.2.2,Win32,59.88023952,60087e9189ddb34b79b08be5,65d6bb0e977760de756971f7,65d6d0186cbfc377f68bf130,0.0758,0.0759,1,56,218,21,1,threefour,,,,,,,,,,,,,,,,,,,,,,,,,,,,,,,,,,,,,,,,,,,,,,,,,,,,,,,,,,,,,,,,,,,,,,,,,,,,,,,,,,,,,,,,,,,,,,,,,,,,,,,,,,,,,,,,,,,,,,,,,,,,,,,,,,,,,,,,,
,,65d6bb0e977760de756971f7,2024-02-22_05h45.48.070,kallum_motion_pilot,2023.2.2,Win32,59.88023952,60087e9189ddb34b79b08be5,65d6bb0e977760de756971f7,65d6d0186cbfc377f68bf130,0.076,0.0762,1,57,219,6,1,fourtwo,,,,,,,,,,,,,,,,,,,,,,,,,,,,,,,,,,,,,,,,,,,,,,,,,,,,,,,,,,,,,,,,,,,,,,,,,,,,,,,,,,,,,,,,,,,,,,,,,,,,,,,,,,,,,,,,,,,,,,,,,,,,,,,,,,,,,,,,,
,,65d6bb0e977760de756971f7,2024-02-22_05h45.48.070,kallum_motion_pilot,2023.2.2,Win32,59.88023952,60087e9189ddb34b79b08be5,65d6bb0e977760de756971f7,65d6d0186cbfc377f68bf130,0.0762,0.0763,1,58,220,25,1,onethree,,,,,,,,,,,,,,,,,,,,,,,,,,,,,,,,,,,,,,,,,,,,,,,,,,,,,,,,,,,,,,,,,,,,,,,,,,,,,,,,,,,,,,,,,,,,,,,,,,,,,,,,,,,,,,,,,,,,,,,,,,,,,,,,,,,,,,,,,
,,65d6bb0e977760de756971f7,2024-02-22_05h45.48.070,kallum_motion_pilot,2023.2.2,Win32,59.88023952,60087e9189ddb34b79b08be5,65d6bb0e977760de756971f7,65d6d0186cbfc377f68bf130,0.0764,0.0765,1,59,221,141,1,seveneight,,,,,,,,,,,,,,,,,,,,,,,,,,,,,,,,,,,,,,,,,,,,,,,,,,,,,,,,,,,,,,,,,,,,,,,,,,,,,,,,,,,,,,,,,,,,,,,,,,,,,,,,,,,,,,,,,,,,,,,,,,,,,,,,,,,,,,,,,
,,65d6bb0e977760de756971f7,2024-02-22_05h45.48.070,kallum_motion_pilot,2023.2.2,Win32,59.88023952,60087e9189ddb34b79b08be5,65d6bb0e977760de756971f7,65d6d0186cbfc377f68bf130,0.0766,0.0767,1,60,222,114,1,sixfive,,,,,,,,,,,,,,,,,,,,,,,,,,,,,,,,,,,,,,,,,,,,,,,,,,,,,,,,,,,,,,,,,,,,,,,,,,,,,,,,,,,,,,,,,,,,,,,,,,,,,,,,,,,,,,,,,,,,,,,,,,,,,,,,,,,,,,,,,
,,65d6bb0e977760de756971f7,2024-02-22_05h45.48.070,kallum_motion_pilot,2023.2.2,Win32,59.88023952,60087e9189ddb34b79b08be5,65d6bb0e977760de756971f7,65d6d0186cbfc377f68bf130,0.0768,0.0769,1,61,223,118,1,eightsix,,,,,,,,,,,,,,,,,,,,,,,,,,,,,,,,,,,,,,,,,,,,,,,,,,,,,,,,,,,,,,,,,,,,,,,,,,,,,,,,,,,,,,,,,,,,,,,,,,,,,,,,,,,,,,,,,,,,,,,,,,,,,,,,,,,,,,,,,
,,65d6bb0e977760de756971f7,2024-02-22_05h45.48.070,kallum_motion_pilot,2023.2.2,Win32,59.88023952,60087e9189ddb34b79b08be5,65d6bb0e977760de756971f7,65d6d0186cbfc377f68bf130,0.077,0.0772,1,62,224,159,1,eightseven,,,,,,,,,,,,,,,,,,,,,,,,,,,,,,,,,,,,,,,,,,,,,,,,,,,,,,,,,,,,,,,,,,,,,,,,,,,,,,,,,,,,,,,,,,,,,,,,,,,,,,,,,,,,,,,,,,,,,,,,,,,,,,,,,,,,,,,,,
,,65d6bb0e977760de756971f7,2024-02-22_05h45.48.070,kallum_motion_pilot,2023.2.2,Win32,59.88023952,60087e9189ddb34b79b08be5,65d6bb0e977760de756971f7,65d6d0186cbfc377f68bf130,0.0773,0.0773,1,63,225,146,1,sixfive,,,,,,,,,,,,,,,,,,,,,,,,,,,,,,,,,,,,,,,,,,,,,,,,,,,,,,,,,,,,,,,,,,,,,,,,,,,,,,,,,,,,,,,,,,,,,,,,,,,,,,,,,,,,,,,,,,,,,,,,,,,,,,,,,,,,,,,,,
,,65d6bb0e977760de756971f7,2024-02-22_05h45.48.070,kallum_motion_pilot,2023.2.2,Win32,59.88023952,60087e9189ddb34b79b08be5,65d6bb0e977760de756971f7,65d6d0186cbfc377f68bf130,0.0775,0.0775,1,64,226,119,1,eightseven,,,,,,,,,,,,,,,,,,,,,,,,,,,,,,,,,,,,,,,,,,,,,,,,,,,,,,,,,,,,,,,,,,,,,,,,,,,,,,,,,,,,,,,,,,,,,,,,,,,,,,,,,,,,,,,,,,,,,,,,,,,,,,,,,,,,,,,,,
,,65d6bb0e977760de756971f7,2024-02-22_05h45.48.070,kallum_motion_pilot,2023.2.2,Win32,59.88023952,60087e9189ddb34b79b08be5,65d6bb0e977760de756971f7,65d6d0186cbfc377f68bf130,0.0777,0.0777,1,65,227,95,1,eightseven,,,,,,,,,,,,,,,,,,,,,,,,,,,,,,,,,,,,,,,,,,,,,,,,,,,,,,,,,,,,,,,,,,,,,,,,,,,,,,,,,,,,,,,,,,,,,,,,,,,,,,,,,,,,,,,,,,,,,,,,,,,,,,,,,,,,,,,,,
,,65d6bb0e977760de756971f7,2024-02-22_05h45.48.070,kallum_motion_pilot,2023.2.2,Win32,59.88023952,60087e9189ddb34b79b08be5,65d6bb0e977760de756971f7,65d6d0186cbfc377f68bf130,0.0779,0.078,1,66,228,155,1,sixeight,,,,,,,,,,,,,,,,,,,,,,,,,,,,,,,,,,,,,,,,,,,,,,,,,,,,,,,,,,,,,,,,,,,,,,,,,,,,,,,,,,,,,,,,,,,,,,,,,,,,,,,,,,,,,,,,,,,,,,,,,,,,,,,,,,,,,,,,,
,,65d6bb0e977760de756971f7,2024-02-22_05h45.48.070,kallum_motion_pilot,2023.2.2,Win32,59.88023952,60087e9189ddb34b79b08be5,65d6bb0e977760de756971f7,65d6d0186cbfc377f68bf130,0.0781,0.0782,1,67,229,17,1,onethree,,,,,,,,,,,,,,,,,,,,,,,,,,,,,,,,,,,,,,,,,,,,,,,,,,,,,,,,,,,,,,,,,,,,,,,,,,,,,,,,,,,,,,,,,,,,,,,,,,,,,,,,,,,,,,,,,,,,,,,,,,,,,,,,,,,,,,,,,
,,65d6bb0e977760de756971f7,2024-02-22_05h45.48.070,kallum_motion_pilot,2023.2.2,Win32,59.88023952,60087e9189ddb34b79b08be5,65d6bb0e977760de756971f7,65d6d0186cbfc377f68bf130,0.0783,0.0784,1,68,230,145,1,fiveseven,,,,,,,,,,,,,,,,,,,,,,,,,,,,,,,,,,,,,,,,,,,,,,,,,,,,,,,,,,,,,,,,,,,,,,,,,,,,,,,,,,,,,,,,,,,,,,,,,,,,,,,,,,,,,,,,,,,,,,,,,,,,,,,,,,,,,,,,,
,,65d6bb0e977760de756971f7,2024-02-22_05h45.48.070,kallum_motion_pilot,2023.2.2,Win32,59.88023952,60087e9189ddb34b79b08be5,65d6bb0e977760de756971f7,65d6d0186cbfc377f68bf130,0.0785,0.0786,1,69,231,117,1,seveneight,,,,,,,,,,,,,,,,,,,,,,,,,,,,,,,,,,,,,,,,,,,,,,,,,,,,,,,,,,,,,,,,,,,,,,,,,,,,,,,,,,,,,,,,,,,,,,,,,,,,,,,,,,,,,,,,,,,,,,,,,,,,,,,,,,,,,,,,,
,,65d6bb0e977760de756971f7,2024-02-22_05h45.48.070,kallum_motion_pilot,2023.2.2,Win32,59.88023952,60087e9189ddb34b79b08be5,65d6bb0e977760de756971f7,65d6d0186cbfc377f68bf130,0.0787,0.0788,1,70,232,40,1,onetwo,,,,,,,,,,,,,,,,,,,,,,,,,,,,,,,,,,,,,,,,,,,,,,,,,,,,,,,,,,,,,,,,,,,,,,,,,,,,,,,,,,,,,,,,,,,,,,,,,,,,,,,,,,,,,,,,,,,,,,,,,,,,,,,,,,,,,,,,,
,,65d6bb0e977760de756971f7,2024-02-22_05h45.48.070,kallum_motion_pilot,2023.2.2,Win32,59.88023952,60087e9189ddb34b79b08be5,65d6bb0e977760de756971f7,65d6d0186cbfc377f68bf130,0.0789,0.079,1,71,233,55,1,fourthree,,,,,,,,,,,,,,,,,,,,,,,,,,,,,,,,,,,,,,,,,,,,,,,,,,,,,,,,,,,,,,,,,,,,,,,,,,,,,,,,,,,,,,,,,,,,,,,,,,,,,,,,,,,,,,,,,,,,,,,,,,,,,,,,,,,,,,,,,
,,65d6bb0e977760de756971f7,2024-02-22_05h45.48.070,kallum_motion_pilot,2023.2.2,Win32,59.88023952,60087e9189ddb34b79b08be5,65d6bb0e977760de756971f7,65d6d0186cbfc377f68bf130,0.0791,0.0792,1,72,234,45,1,threefour,,,,,,,,,,,,,,,,,,,,,,,,,,,,,,,,,,,,,,,,,,,,,,,,,,,,,,,,,,,,,,,,,,,,,,,,,,,,,,,,,,,,,,,,,,,,,,,,,,,,,,,,,,,,,,,,,,,,,,,,,,,,,,,,,,,,,,,,,
,,65d6bb0e977760de756971f7,2024-02-22_05h45.48.070,kallum_motion_pilot,2023.2.2,Win32,59.88023952,60087e9189ddb34b79b08be5,65d6bb0e977760de756971f7,65d6d0186cbfc377f68bf130,0.0793,0.0795,1,73,235,66,1,twoone,,,,,,,,,,,,,,,,,,,,,,,,,,,,,,,,,,,,,,,,,,,,,,,,,,,,,,,,,,,,,,,,,,,,,,,,,,,,,,,,,,,,,,,,,,,,,,,,,,,,,,,,,,,,,,,,,,,,,,,,,,,,,,,,,,,,,,,,,
,,65d6bb0e977760de756971f7,2024-02-22_05h45.48.070,kallum_motion_pilot,2023.2.2,Win32,59.88023952,60087e9189ddb34b79b08be5,65d6bb0e977760de756971f7,65d6d0186cbfc377f68bf130,0.0795,0.0797,1,74,236,3,1,twofour,,,,,,,,,,,,,,,,,,,,,,,,,,,,,,,,,,,,,,,,,,,,,,,,,,,,,,,,,,,,,,,,,,,,,,,,,,,,,,,,,,,,,,,,,,,,,,,,,,,,,,,,,,,,,,,,,,,,,,,,,,,,,,,,,,,,,,,,,
,,65d6bb0e977760de756971f7,2024-02-22_05h45.48.070,kallum_motion_pilot,2023.2.2,Win32,59.88023952,60087e9189ddb34b79b08be5,65d6bb0e977760de756971f7,65d6d0186cbfc377f68bf130,0.0798,0.0799,1,75,237,153,1,fiveseven,,,,,,,,,,,,,,,,,,,,,,,,,,,,,,,,,,,,,,,,,,,,,,,,,,,,,,,,,,,,,,,,,,,,,,,,,,,,,,,,,,,,,,,,,,,,,,,,,,,,,,,,,,,,,,,,,,,,,,,,,,,,,,,,,,,,,,,,,
,,65d6bb0e977760de756971f7,2024-02-22_05h45.48.070,kallum_motion_pilot,2023.2.2,Win32,59.88023952,60087e9189ddb34b79b08be5,65d6bb0e977760de756971f7,65d6d0186cbfc377f68bf130,0.08,0.08,1,76,238,70,1,fourtwo,,,,,,,,,,,,,,,,,,,,,,,,,,,,,,,,,,,,,,,,,,,,,,,,,,,,,,,,,,,,,,,,,,,,,,,,,,,,,,,,,,,,,,,,,,,,,,,,,,,,,,,,,,,,,,,,,,,,,,,,,,,,,,,,,,,,,,,,,
,,65d6bb0e977760de756971f7,2024-02-22_05h45.48.070,kallum_motion_pilot,2023.2.2,Win32,59.88023952,60087e9189ddb34b79b08be5,65d6bb0e977760de756971f7,65d6d0186cbfc377f68bf130,0.0802,0.0803,1,77,239,143,1,eightseven,,,,,,,,,,,,,,,,,,,,,,,,,,,,,,,,,,,,,,,,,,,,,,,,,,,,,,,,,,,,,,,,,,,,,,,,,,,,,,,,,,,,,,,,,,,,,,,,,,,,,,,,,,,,,,,,,,,,,,,,,,,,,,,,,,,,,,,,,
,,65d6bb0e977760de756971f7,2024-02-22_05h45.48.070,kallum_motion_pilot,2023.2.2,Win32,59.88023952,60087e9189ddb34b79b08be5,65d6bb0e977760de756971f7,65d6d0186cbfc377f68bf130,0.0803,0.0805,1,78,240,103,1,eightseven,,,,,,,,,,,,,,,,,,,,,,,,,,,,,,,,,,,,,,,,,,,,,,,,,,,,,,,,,,,,,,,,,,,,,,,,,,,,,,,,,,,,,,,,,,,,,,,,,,,,,,,,,,,,,,,,,,,,,,,,,,,,,,,,,,,,,,,,,
,,65d6bb0e977760de756971f7,2024-02-22_05h45.48.070,kallum_motion_pilot,2023.2.2,Win32,59.88023952,60087e9189ddb34b79b08be5,65d6bb0e977760de756971f7,65d6d0186cbfc377f68bf130,0.0806,0.081,1,79,241,110,1,eightsix,,,,,,,,,,,,,,,,,,,,,,,,,,,,,,,,,,,,,,,,,,,,,,,,,,,,,,,,,,,,,,,,,,,,,,,,,,,,,,,,,,,,,,,,,,,,,,,,,,,,,,,,,,,,,,,,,,,,,,,,,,,,,,,,,,,,,,,,,
,,65d6bb0e977760de756971f7,2024-02-22_05h45.48.070,kallum_motion_pilot,2023.2.2,Win32,59.88023952,60087e9189ddb34b79b08be5,65d6bb0e977760de756971f7,65d6d0186cbfc377f68bf130,0.0812,0.0812,1,80,242,11,1,twofour,,,,,,,,,,,,,,,,,,,,,,,,,,,,,,,,,,,,,,,,,,,,,,,,,,,,,,,,,,,,,,,,,,,,,,,,,,,,,,,,,,,,,,,,,,,,,,,,,,,,,,,,,,,,,,,,,,,,,,,,,,,,,,,,,,,,,,,,,
,,65d6bb0e977760de756971f7,2024-02-22_05h45.48.070,kallum_motion_pilot,2023.2.2,Win32,59.88023952,60087e9189ddb34b79b08be5,65d6bb0e977760de756971f7,65d6d0186cbfc377f68bf130,0.0813,0.0814,1,81,243,47,1,fourthree,,,,,,,,,,,,,,,,,,,,,,,,,,,,,,,,,,,,,,,,,,,,,,,,,,,,,,,,,,,,,,,,,,,,,,,,,,,,,,,,,,,,,,,,,,,,,,,,,,,,,,,,,,,,,,,,,,,,,,,,,,,,,,,,,,,,,,,,,
,,65d6bb0e977760de756971f7,2024-02-22_05h45.48.070,kallum_motion_pilot,2023.2.2,Win32,59.88023952,60087e9189ddb34b79b08be5,65d6bb0e977760de756971f7,65d6d0186cbfc377f68bf130,0.0816,0.0816,1,82,244,108,1,sevenfive,,,,,,,,,,,,,,,,,,,,,,,,,,,,,,,,,,,,,,,,,,,,,,,,,,,,,,,,,,,,,,,,,,,,,,,,,,,,,,,,,,,,,,,,,,,,,,,,,,,,,,,,,,,,,,,,,,,,,,,,,,,,,,,,,,,,,,,,,
,,65d6bb0e977760de756971f7,2024-02-22_05h45.48.070,kallum_motion_pilot,2023.2.2,Win32,59.88023952,60087e9189ddb34b79b08be5,65d6bb0e977760de756971f7,65d6d0186cbfc377f68bf130,0.0817,0.0818,1,83,245,102,1,eightsix,,,,,,,,,,,,,,,,,,,,,,,,,,,,,,,,,,,,,,,,,,,,,,,,,,,,,,,,,,,,,,,,,,,,,,,,,,,,,,,,,,,,,,,,,,,,,,,,,,,,,,,,,,,,,,,,,,,,,,,,,,,,,,,,,,,,,,,,,
,,65d6bb0e977760de756971f7,2024-02-22_05h45.48.070,kallum_motion_pilot,2023.2.2,Win32,59.88023952,60087e9189ddb34b79b08be5,65d6bb0e977760de756971f7,65d6d0186cbfc377f68bf130,0.0819,0.082,1,84,246,13,1,threefour,,,,,,,,,,,,,,,,,,,,,,,,,,,,,,,,,,,,,,,,,,,,,,,,,,,,,,,,,,,,,,,,,,,,,,,,,,,,,,,,,,,,,,,,,,,,,,,,,,,,,,,,,,,,,,,,,,,,,,,,,,,,,,,,,,,,,,,,,
,,65d6bb0e977760de756971f7,2024-02-22_05h45.48.070,kallum_motion_pilot,2023.2.2,Win32,59.88023952,60087e9189ddb34b79b08be5,65d6bb0e977760de756971f7,65d6d0186cbfc377f68bf130,0.0821,0.0822,1,85,247,125,1,seveneight,,,,,,,,,,,,,,,,,,,,,,,,,,,,,,,,,,,,,,,,,,,,,,,,,,,,,,,,,,,,,,,,,,,,,,,,,,,,,,,,,,,,,,,,,,,,,,,,,,,,,,,,,,,,,,,,,,,,,,,,,,,,,,,,,,,,,,,,,
,,65d6bb0e977760de756971f7,2024-02-22_05h45.48.070,kallum_motion_pilot,2023.2.2,Win32,59.88023952,60087e9189ddb34b79b08be5,65d6bb0e977760de756971f7,65d6d0186cbfc377f68bf130,0.0823,0.0824,1,86,248,33,1,onethree,,,,,,,,,,,,,,,,,,,,,,,,,,,,,,,,,,,,,,,,,,,,,,,,,,,,,,,,,,,,,,,,,,,,,,,,,,,,,,,,,,,,,,,,,,,,,,,,,,,,,,,,,,,,,,,,,,,,,,,,,,,,,,,,,,,,,,,,,
,,65d6bb0e977760de756971f7,2024-02-22_05h45.48.070,kallum_motion_pilot,2023.2.2,Win32,59.88023952,60087e9189ddb34b79b08be5,65d6bb0e977760de756971f7,65d6d0186cbfc377f68bf130,0.0825,0.0826,1,87,249,12,1,threeone,,,,,,,,,,,,,,,,,,,,,,,,,,,,,,,,,,,,,,,,,,,,,,,,,,,,,,,,,,,,,,,,,,,,,,,,,,,,,,,,,,,,,,,,,,,,,,,,,,,,,,,,,,,,,,,,,,,,,,,,,,,,,,,,,,,,,,,,,
,,65d6bb0e977760de756971f7,2024-02-22_05h45.48.070,kallum_motion_pilot,2023.2.2,Win32,59.88023952,60087e9189ddb34b79b08be5,65d6bb0e977760de756971f7,65d6d0186cbfc377f68bf130,0.0827,0.0828,1,88,250,135,1,eightseven,,,,,,,,,,,,,,,,,,,,,,,,,,,,,,,,,,,,,,,,,,,,,,,,,,,,,,,,,,,,,,,,,,,,,,,,,,,,,,,,,,,,,,,,,,,,,,,,,,,,,,,,,,,,,,,,,,,,,,,,,,,,,,,,,,,,,,,,,
,,65d6bb0e977760de756971f7,2024-02-22_05h45.48.070,kallum_motion_pilot,2023.2.2,Win32,59.88023952,60087e9189ddb34b79b08be5,65d6bb0e977760de756971f7,65d6d0186cbfc377f68bf130,0.0829,0.083,1,89,251,24,1,onetwo,,,,,,,,,,,,,,,,,,,,,,,,,,,,,,,,,,,,,,,,,,,,,,,,,,,,,,,,,,,,,,,,,,,,,,,,,,,,,,,,,,,,,,,,,,,,,,,,,,,,,,,,,,,,,,,,,,,,,,,,,,,,,,,,,,,,,,,,,
,,65d6bb0e977760de756971f7,2024-02-22_05h45.48.070,kallum_motion_pilot,2023.2.2,Win32,59.88023952,60087e9189ddb34b79b08be5,65d6bb0e977760de756971f7,65d6d0186cbfc377f68bf130,0.0831,0.0832,1,90,252,31,1,fourthree,,,,,,,,,,,,,,,,,,,,,,,,,,,,,,,,,,,,,,,,,,,,,,,,,,,,,,,,,,,,,,,,,,,,,,,,,,,,,,,,,,,,,,,,,,,,,,,,,,,,,,,,,,,,,,,,,,,,,,,,,,,,,,,,,,,,,,,,,
,,65d6bb0e977760de756971f7,2024-02-22_05h45.48.070,kallum_motion_pilot,2023.2.2,Win32,59.88023952,60087e9189ddb34b79b08be5,65d6bb0e977760de756971f7,65d6d0186cbfc377f68bf130,0.0833,0.0834,1,91,253,130,1,sixfive,,,,,,,,,,,,,,,,,,,,,,,,,,,,,,,,,,,,,,,,,,,,,,,,,,,,,,,,,,,,,,,,,,,,,,,,,,,,,,,,,,,,,,,,,,,,,,,,,,,,,,,,,,,,,,,,,,,,,,,,,,,,,,,,,,,,,,,,,
,,65d6bb0e977760de756971f7,2024-02-22_05h45.48.070,kallum_motion_pilot,2023.2.2,Win32,59.88023952,60087e9189ddb34b79b08be5,65d6bb0e977760de756971f7,65d6d0186cbfc377f68bf130,0.0835,0.0836,1,92,254,41,1,onethree,,,,,,,,,,,,,,,,,,,,,,,,,,,,,,,,,,,,,,,,,,,,,,,,,,,,,,,,,,,,,,,,,,,,,,,,,,,,,,,,,,,,,,,,,,,,,,,,,,,,,,,,,,,,,,,,,,,,,,,,,,,,,,,,,,,,,,,,,
,,65d6bb0e977760de756971f7,2024-02-22_05h45.48.070,kallum_motion_pilot,2023.2.2,Win32,59.88023952,60087e9189ddb34b79b08be5,65d6bb0e977760de756971f7,65d6d0186cbfc377f68bf130,0.0838,0.0839,1,93,255,14,1,fourtwo,,,,,,,,,,,,,,,,,,,,,,,,,,,,,,,,,,,,,,,,,,,,,,,,,,,,,,,,,,,,,,,,,,,,,,,,,,,,,,,,,,,,,,,,,,,,,,,,,,,,,,,,,,,,,,,,,,,,,,,,,,,,,,,,,,,,,,,,,
,,65d6bb0e977760de756971f7,2024-02-22_05h45.48.070,kallum_motion_pilot,2023.2.2,Win32,59.88023952,60087e9189ddb34b79b08be5,65d6bb0e977760de756971f7,65d6d0186cbfc377f68bf130,0.084,0.0841,1,94,256,20,1,threeone,,,,,,,,,,,,,,,,,,,,,,,,,,,,,,,,,,,,,,,,,,,,,,,,,,,,,,,,,,,,,,,,,,,,,,,,,,,,,,,,,,,,,,,,,,,,,,,,,,,,,,,,,,,,,,,,,,,,,,,,,,,,,,,,,,,,,,,,,
,,65d6bb0e977760de756971f7,2024-02-22_05h45.48.070,kallum_motion_pilot,2023.2.2,Win32,59.88023952,60087e9189ddb34b79b08be5,65d6bb0e977760de756971f7,65d6d0186cbfc377f68bf130,0.0842,0.0843,1,95,257,34,1,twoone,,,,,,,,,,,,,,,,,,,,,,,,,,,,,,,,,,,,,,,,,,,,,,,,,,,,,,,,,,,,,,,,,,,,,,,,,,,,,,,,,,,,,,,,,,,,,,,,,,,,,,,,,,,,,,,,,,,,,,,,,,,,,,,,,,,,,,,,,
,,65d6bb0e977760de756971f7,2024-02-22_05h45.48.070,kallum_motion_pilot,2023.2.2,Win32,59.88023952,60087e9189ddb34b79b08be5,65d6bb0e977760de756971f7,65d6d0186cbfc377f68bf130,0.0844,0.0845,1,96,258,54,1,fourtwo,,,,,,,,,,,,,,,,,,,,,,,,,,,,,,,,,,,,,,,,,,,,,,,,,,,,,,,,,,,,,,,,,,,,,,,,,,,,,,,,,,,,,,,,,,,,,,,,,,,,,,,,,,,,,,,,,,,,,,,,,,,,,,,,,,,,,,,,,
,,65d6bb0e977760de756971f7,2024-02-22_05h45.48.070,kallum_motion_pilot,2023.2.2,Win32,59.88023952,60087e9189ddb34b79b08be5,65d6bb0e977760de756971f7,65d6d0186cbfc377f68bf130,0.0846,0.0847,1,97,259,59,1,twofour,,,,,,,,,,,,,,,,,,,,,,,,,,,,,,,,,,,,,,,,,,,,,,,,,,,,,,,,,,,,,,,,,,,,,,,,,,,,,,,,,,,,,,,,,,,,,,,,,,,,,,,,,,,,,,,,,,,,,,,,,,,,,,,,,,,,,,,,,
,,65d6bb0e977760de756971f7,2024-02-22_05h45.48.070,kallum_motion_pilot,2023.2.2,Win32,59.88023952,60087e9189ddb34b79b08be5,65d6bb0e977760de756971f7,65d6d0186cbfc377f68bf130,0.0848,0.0849,1,98,260,18,1,twoone,,,,,,,,,,,,,,,,,,,,,,,,,,,,,,,,,,,,,,,,,,,,,,,,,,,,,,,,,,,,,,,,,,,,,,,,,,,,,,,,,,,,,,,,,,,,,,,,,,,,,,,,,,,,,,,,,,,,,,,,,,,,,,,,,,,,,,,,,
,,65d6bb0e977760de756971f7,2024-02-22_05h45.48.070,kallum_motion_pilot,2023.2.2,Win32,59.88023952,60087e9189ddb34b79b08be5,65d6bb0e977760de756971f7,65d6d0186cbfc377f68bf130,0.0851,0.0851,1,99,261,35,1,twofour,,,,,,,,,,,,,,,,,,,,,,,,,,,,,,,,,,,,,,,,,,,,,,,,,,,,,,,,,,,,,,,,,,,,,,,,,,,,,,,,,,,,,,,,,,,,,,,,,,,,,,,,,,,,,,,,,,,,,,,,,,,,,,,,,,,,,,,,,
,,65d6bb0e977760de756971f7,2024-02-22_05h45.48.070,kallum_motion_pilot,2023.2.2,Win32,59.88023952,60087e9189ddb34b79b08be5,65d6bb0e977760de756971f7,65d6d0186cbfc377f68bf130,0.0853,0.0854,1,100,262,151,1,eightseven,,,,,,,,,,,,,,,,,,,,,,,,,,,,,,,,,,,,,,,,,,,,,,,,,,,,,,,,,,,,,,,,,,,,,,,,,,,,,,,,,,,,,,,,,,,,,,,,,,,,,,,,,,,,,,,,,,,,,,,,,,,,,,,,,,,,,,,,,
,,65d6bb0e977760de756971f7,2024-02-22_05h45.48.070,kallum_motion_pilot,2023.2.2,Win32,59.88023952,60087e9189ddb34b79b08be5,65d6bb0e977760de756971f7,65d6d0186cbfc377f68bf130,0.0855,0.0855,1,101,263,29,1,threefour,,,,,,,,,,,,,,,,,,,,,,,,,,,,,,,,,,,,,,,,,,,,,,,,,,,,,,,,,,,,,,,,,,,,,,,,,,,,,,,,,,,,,,,,,,,,,,,,,,,,,,,,,,,,,,,,,,,,,,,,,,,,,,,,,,,,,,,,,
,,65d6bb0e977760de756971f7,2024-02-22_05h45.48.070,kallum_motion_pilot,2023.2.2,Win32,59.88023952,60087e9189ddb34b79b08be5,65d6bb0e977760de756971f7,65d6d0186cbfc377f68bf130,0.0857,0.0859,1,102,264,131,1,sixeight,,,,,,,,,,,,,,,,,,,,,,,,,,,,,,,,,,,,,,,,,,,,,,,,,,,,,,,,,,,,,,,,,,,,,,,,,,,,,,,,,,,,,,,,,,,,,,,,,,,,,,,,,,,,,,,,,,,,,,,,,,,,,,,,,,,,,,,,,
,,65d6bb0e977760de756971f7,2024-02-22_05h45.48.070,kallum_motion_pilot,2023.2.2,Win32,59.88023952,60087e9189ddb34b79b08be5,65d6bb0e977760de756971f7,65d6d0186cbfc377f68bf130,0.086,0.0861,1,103,265,133,1,seveneight,,,,,,,,,,,,,,,,,,,,,,,,,,,,,,,,,,,,,,,,,,,,,,,,,,,,,,,,,,,,,,,,,,,,,,,,,,,,,,,,,,,,,,,,,,,,,,,,,,,,,,,,,,,,,,,,,,,,,,,,,,,,,,,,,,,,,,,,,
,,65d6bb0e977760de756971f7,2024-02-22_05h45.48.070,kallum_motion_pilot,2023.2.2,Win32,59.88023952,60087e9189ddb34b79b08be5,65d6bb0e977760de756971f7,65d6d0186cbfc377f68bf130,0.0862,0.0864,1,104,266,44,1,threeone,,,,,,,,,,,,,,,,,,,,,,,,,,,,,,,,,,,,,,,,,,,,,,,,,,,,,,,,,,,,,,,,,,,,,,,,,,,,,,,,,,,,,,,,,,,,,,,,,,,,,,,,,,,,,,,,,,,,,,,,,,,,,,,,,,,,,,,,,
,,65d6bb0e977760de756971f7,2024-02-22_05h45.48.070,kallum_motion_pilot,2023.2.2,Win32,59.88023952,60087e9189ddb34b79b08be5,65d6bb0e977760de756971f7,65d6d0186cbfc377f68bf130,0.0865,0.0867,1,105,267,28,1,threeone,,,,,,,,,,,,,,,,,,,,,,,,,,,,,,,,,,,,,,,,,,,,,,,,,,,,,,,,,,,,,,,,,,,,,,,,,,,,,,,,,,,,,,,,,,,,,,,,,,,,,,,,,,,,,,,,,,,,,,,,,,,,,,,,,,,,,,,,,
,,65d6bb0e977760de756971f7,2024-02-22_05h45.48.070,kallum_motion_pilot,2023.2.2,Win32,59.88023952,60087e9189ddb34b79b08be5,65d6bb0e977760de756971f7,65d6d0186cbfc377f68bf130,0.0868,0.087,1,106,268,124,1,sevenfive,,,,,,,,,,,,,,,,,,,,,,,,,,,,,,,,,,,,,,,,,,,,,,,,,,,,,,,,,,,,,,,,,,,,,,,,,,,,,,,,,,,,,,,,,,,,,,,,,,,,,,,,,,,,,,,,,,,,,,,,,,,,,,,,,,,,,,,,,
,,65d6bb0e977760de756971f7,2024-02-22_05h45.48.070,kallum_motion_pilot,2023.2.2,Win32,59.88023952,60087e9189ddb34b79b08be5,65d6bb0e977760de756971f7,65d6d0186cbfc377f68bf130,0.0872,0.0873,1,107,269,93,1,seveneight,,,,,,,,,,,,,,,,,,,,,,,,,,,,,,,,,,,,,,,,,,,,,,,,,,,,,,,,,,,,,,,,,,,,,,,,,,,,,,,,,,,,,,,,,,,,,,,,,,,,,,,,,,,,,,,,,,,,,,,,,,,,,,,,,,,,,,,,,
,,65d6bb0e977760de756971f7,2024-02-22_05h45.48.070,kallum_motion_pilot,2023.2.2,Win32,59.88023952,60087e9189ddb34b79b08be5,65d6bb0e977760de756971f7,65d6d0186cbfc377f68bf130,0.0875,0.0877,1,108,270,137,1,fiveseven,,,,,,,,,,,,,,,,,,,,,,,,,,,,,,,,,,,,,,,,,,,,,,,,,,,,,,,,,,,,,,,,,,,,,,,,,,,,,,,,,,,,,,,,,,,,,,,,,,,,,,,,,,,,,,,,,,,,,,,,,,,,,,,,,,,,,,,,,
,,65d6bb0e977760de756971f7,2024-02-22_05h45.48.070,kallum_motion_pilot,2023.2.2,Win32,59.88023952,60087e9189ddb34b79b08be5,65d6bb0e977760de756971f7,65d6d0186cbfc377f68bf130,0.0878,0.088,1,109,271,86,1,eightsix,,,,,,,,,,,,,,,,,,,,,,,,,,,,,,,,,,,,,,,,,,,,,,,,,,,,,,,,,,,,,,,,,,,,,,,,,,,,,,,,,,,,,,,,,,,,,,,,,,,,,,,,,,,,,,,,,,,,,,,,,,,,,,,,,,,,,,,,,
,,65d6bb0e977760de756971f7,2024-02-22_05h45.48.070,kallum_motion_pilot,2023.2.2,Win32,59.88023952,60087e9189ddb34b79b08be5,65d6bb0e977760de756971f7,65d6d0186cbfc377f68bf130,0.0881,0.0884,1,110,272,85,1,seveneight,,,,,,,,,,,,,,,,,,,,,,,,,,,,,,,,,,,,,,,,,,,,,,,,,,,,,,,,,,,,,,,,,,,,,,,,,,,,,,,,,,,,,,,,,,,,,,,,,,,,,,,,,,,,,,,,,,,,,,,,,,,,,,,,,,,,,,,,,
,,65d6bb0e977760de756971f7,2024-02-22_05h45.48.070,kallum_motion_pilot,2023.2.2,Win32,59.88023952,60087e9189ddb34b79b08be5,65d6bb0e977760de756971f7,65d6d0186cbfc377f68bf130,0.0885,0.0886,1,111,273,80,1,fivesix,,,,,,,,,,,,,,,,,,,,,,,,,,,,,,,,,,,,,,,,,,,,,,,,,,,,,,,,,,,,,,,,,,,,,,,,,,,,,,,,,,,,,,,,,,,,,,,,,,,,,,,,,,,,,,,,,,,,,,,,,,,,,,,,,,,,,,,,,
,,65d6bb0e977760de756971f7,2024-02-22_05h45.48.070,kallum_motion_pilot,2023.2.2,Win32,59.88023952,60087e9189ddb34b79b08be5,65d6bb0e977760de756971f7,65d6d0186cbfc377f68bf130,0.0888,0.089,1,112,274,51,1,twofour,,,,,,,,,,,,,,,,,,,,,,,,,,,,,,,,,,,,,,,,,,,,,,,,,,,,,,,,,,,,,,,,,,,,,,,,,,,,,,,,,,,,,,,,,,,,,,,,,,,,,,,,,,,,,,,,,,,,,,,,,,,,,,,,,,,,,,,,,
,,65d6bb0e977760de756971f7,2024-02-22_05h45.48.070,kallum_motion_pilot,2023.2.2,Win32,59.88023952,60087e9189ddb34b79b08be5,65d6bb0e977760de756971f7,65d6d0186cbfc377f68bf130,0.0891,0.0893,1,113,275,42,1,twoone,,,,,,,,,,,,,,,,,,,,,,,,,,,,,,,,,,,,,,,,,,,,,,,,,,,,,,,,,,,,,,,,,,,,,,,,,,,,,,,,,,,,,,,,,,,,,,,,,,,,,,,,,,,,,,,,,,,,,,,,,,,,,,,,,,,,,,,,,
,,65d6bb0e977760de756971f7,2024-02-22_05h45.48.070,kallum_motion_pilot,2023.2.2,Win32,59.88023952,60087e9189ddb34b79b08be5,65d6bb0e977760de756971f7,65d6d0186cbfc377f68bf130,0.0895,0.0896,1,114,276,142,1,eightsix,,,,,,,,,,,,,,,,,,,,,,,,,,,,,,,,,,,,,,,,,,,,,,,,,,,,,,,,,,,,,,,,,,,,,,,,,,,,,,,,,,,,,,,,,,,,,,,,,,,,,,,,,,,,,,,,,,,,,,,,,,,,,,,,,,,,,,,,,
,,65d6bb0e977760de756971f7,2024-02-22_05h45.48.070,kallum_motion_pilot,2023.2.2,Win32,59.88023952,60087e9189ddb34b79b08be5,65d6bb0e977760de756971f7,65d6d0186cbfc377f68bf130,0.0899,0.09,1,115,277,32,1,onetwo,,,,,,,,,,,,,,,,,,,,,,,,,,,,,,,,,,,,,,,,,,,,,,,,,,,,,,,,,,,,,,,,,,,,,,,,,,,,,,,,,,,,,,,,,,,,,,,,,,,,,,,,,,,,,,,,,,,,,,,,,,,,,,,,,,,,,,,,,
