startup.started,startup.stopped,Prolific ID*,date,expName,psychopyVersion,OS,frameRate,participant,study_id,session,stimpositions.started,stimpositions.stopped,hardcoded_stimulus_positions.thisRepN,hardcoded_stimulus_positions.thisTrialN,hardcoded_stimulus_positions.thisN,hardcoded_stimulus_positions.thisIndex,hardcoded_stimulus_positions.ran,StimulusPos,stimorientation.started,stimorientation.stopped,prac_stimorientation_import_loop.thisRepN,prac_stimorientation_import_loop.thisTrialN,prac_stimorientation_import_loop.thisN,prac_stimorientation_import_loop.thisIndex,prac_stimorientation_import_loop.ran,Stimorientation,welcome_instr.started,welcome_instr.stopped,key_resp.keys,key_resp.rt,key_resp.duration,response_steppedout_1.started,response_steppedout_1.stopped,key_resp_20.keys,key_resp_20.rt,key_resp_20.duration,response_steppedout_2.started,response_steppedout_2.stopped,key_resp_19.keys,key_resp_19.rt,key_resp_19.duration,stim_response_instr.started,stim_response_instr.stopped,key_resp_15.keys,key_resp_15.rt,key_resp_15.duration,direction_instr_2.started,direction_instr_2.stopped,key_resp_9.keys,key_resp_9.rt,key_resp_9.duration,instr_prac.started,instr_prac.stopped,key_resp_10.keys,key_resp_10.rt,key_resp_10.duration,Stim1_display_prac.started,Stim1_display_prac.stopped,Ecc,Circle1_ori,Circle2_ori,response_prac.started,similarity,response_time,response_prac.stopped,mouse_5.x,mouse_5.y,mouse_5.leftButton,mouse_5.midButton,mouse_5.rightButton,mouse_5.clicked_name,responseprac_feedback.started,responseprac_feedback.stopped,summary2_prac.started,summary2_prac.stopped,mouse_6.x,mouse_6.y,mouse_6.leftButton,mouse_6.midButton,mouse_6.rightButton,mouse_6.clicked_name,duringprac.thisRepN,duringprac.thisTrialN,duringprac.thisN,duringprac.thisIndex,duringprac.ran,begin.started,begin.stopped,key_resp_22.keys,key_resp_22.rt,key_resp_22.duration,Stim1_display.started,Stim1_display.stopped,circle1_ori,circle2_ori,circle1_SF,circle2_SF,response.started,response.stopped,mouse.x,mouse.y,mouse.leftButton,mouse.midButton,mouse.rightButton,mouse.clicked_name,trialnumber,double_pass.thisRepN,double_pass.thisTrialN,double_pass.thisN,double_pass.thisIndex,double_pass.ran,double_pass.order,main_trial.thisRepN,main_trial.thisTrialN,main_trial.thisN,main_trial.thisIndex,main_trial.ran,main_trial.order,Trial_Counter,Catch,Frequencies,response_2.started,response_2.stopped,mouse_2.x,mouse_2.y,mouse_2.leftButton,mouse_2.midButton,mouse_2.rightButton,mouse_2.clicked_name,special_trial.started,special_trial.stopped,catch_1.started,catch_1.stopped,mouse_3.x,mouse_3.y,mouse_3.leftButton,mouse_3.midButton,mouse_3.rightButton,catchresponse,catchnumber,response_time_catch,response_sum.started,response_sum.stopped,mouse_11.x,mouse_11.y,mouse_11.leftButton,mouse_11.midButton,mouse_11.rightButton,flip_presentation_sequence_for_double_pass.started,flip_presentation_sequence_for_double_pass.stopped,goodbye.started,goodbye.stopped,key_resp_3.keys,key_resp_3.rt,key_resp_3.duration
0.0002,0.0003,600916bb92179b5ecc406460,2024-02-18_20h13.15.308,kallum_motion_pilot,2023.2.2,Win32,74.62686567,600916bb92179b5ecc406460,65d2b6c8f2eece985d8e374c,65d2b9244c64ef8f4bd15951,,,,,,,,,,,,,,,,,,,,,,,,,,,,,,,,,,,,,,,,,,,,,,,,,,,,,,,,,,,,,,,,,,,,,,,,,,,,,,,,,,,,,,,,,,,,,,,,,,,,,,,,,,,,,,,,,,,,,,,,,,,,,,,,,,,,,,,,,,,,,,,,,
,,600916bb92179b5ecc406460,2024-02-18_20h13.15.308,kallum_motion_pilot,2023.2.2,Win32,74.62686567,600916bb92179b5ecc406460,65d2b6c8f2eece985d8e374c,65d2b9244c64ef8f4bd15951,0.0183,0.0185,0,0,0,110,1,eightsix,,,,,,,,,,,,,,,,,,,,,,,,,,,,,,,,,,,,,,,,,,,,,,,,,,,,,,,,,,,,,,,,,,,,,,,,,,,,,,,,,,,,,,,,,,,,,,,,,,,,,,,,,,,,,,,,,,,,,,,,,,,,,,,,,,,,,,,,,
,,600916bb92179b5ecc406460,2024-02-18_20h13.15.308,kallum_motion_pilot,2023.2.2,Win32,74.62686567,600916bb92179b5ecc406460,65d2b6c8f2eece985d8e374c,65d2b9244c64ef8f4bd15951,0.0187,0.0188,0,1,1,47,1,fourthree,,,,,,,,,,,,,,,,,,,,,,,,,,,,,,,,,,,,,,,,,,,,,,,,,,,,,,,,,,,,,,,,,,,,,,,,,,,,,,,,,,,,,,,,,,,,,,,,,,,,,,,,,,,,,,,,,,,,,,,,,,,,,,,,,,,,,,,,,
,,600916bb92179b5ecc406460,2024-02-18_20h13.15.308,kallum_motion_pilot,2023.2.2,Win32,74.62686567,600916bb92179b5ecc406460,65d2b6c8f2eece985d8e374c,65d2b9244c64ef8f4bd15951,0.019,0.019,0,2,2,92,1,sevenfive,,,,,,,,,,,,,,,,,,,,,,,,,,,,,,,,,,,,,,,,,,,,,,,,,,,,,,,,,,,,,,,,,,,,,,,,,,,,,,,,,,,,,,,,,,,,,,,,,,,,,,,,,,,,,,,,,,,,,,,,,,,,,,,,,,,,,,,,,
,,600916bb92179b5ecc406460,2024-02-18_20h13.15.308,kallum_motion_pilot,2023.2.2,Win32,74.62686567,600916bb92179b5ecc406460,65d2b6c8f2eece985d8e374c,65d2b9244c64ef8f4bd15951,0.0191,0.0191,0,3,3,16,1,onetwo,,,,,,,,,,,,,,,,,,,,,,,,,,,,,,,,,,,,,,,,,,,,,,,,,,,,,,,,,,,,,,,,,,,,,,,,,,,,,,,,,,,,,,,,,,,,,,,,,,,,,,,,,,,,,,,,,,,,,,,,,,,,,,,,,,,,,,,,,
,,600916bb92179b5ecc406460,2024-02-18_20h13.15.308,kallum_motion_pilot,2023.2.2,Win32,74.62686567,600916bb92179b5ecc406460,65d2b6c8f2eece985d8e374c,65d2b9244c64ef8f4bd15951,0.0192,0.0193,0,4,4,34,1,twoone,,,,,,,,,,,,,,,,,,,,,,,,,,,,,,,,,,,,,,,,,,,,,,,,,,,,,,,,,,,,,,,,,,,,,,,,,,,,,,,,,,,,,,,,,,,,,,,,,,,,,,,,,,,,,,,,,,,,,,,,,,,,,,,,,,,,,,,,,
,,600916bb92179b5ecc406460,2024-02-18_20h13.15.308,kallum_motion_pilot,2023.2.2,Win32,74.62686567,600916bb92179b5ecc406460,65d2b6c8f2eece985d8e374c,65d2b9244c64ef8f4bd15951,0.0193,0.0194,0,5,5,100,1,sevenfive,,,,,,,,,,,,,,,,,,,,,,,,,,,,,,,,,,,,,,,,,,,,,,,,,,,,,,,,,,,,,,,,,,,,,,,,,,,,,,,,,,,,,,,,,,,,,,,,,,,,,,,,,,,,,,,,,,,,,,,,,,,,,,,,,,,,,,,,,
,,600916bb92179b5ecc406460,2024-02-18_20h13.15.308,kallum_motion_pilot,2023.2.2,Win32,74.62686567,600916bb92179b5ecc406460,65d2b6c8f2eece985d8e374c,65d2b9244c64ef8f4bd15951,0.0195,0.0196,0,6,6,146,1,sixfive,,,,,,,,,,,,,,,,,,,,,,,,,,,,,,,,,,,,,,,,,,,,,,,,,,,,,,,,,,,,,,,,,,,,,,,,,,,,,,,,,,,,,,,,,,,,,,,,,,,,,,,,,,,,,,,,,,,,,,,,,,,,,,,,,,,,,,,,,
,,600916bb92179b5ecc406460,2024-02-18_20h13.15.308,kallum_motion_pilot,2023.2.2,Win32,74.62686567,600916bb92179b5ecc406460,65d2b6c8f2eece985d8e374c,65d2b9244c64ef8f4bd15951,0.0196,0.0197,0,7,7,21,1,threefour,,,,,,,,,,,,,,,,,,,,,,,,,,,,,,,,,,,,,,,,,,,,,,,,,,,,,,,,,,,,,,,,,,,,,,,,,,,,,,,,,,,,,,,,,,,,,,,,,,,,,,,,,,,,,,,,,,,,,,,,,,,,,,,,,,,,,,,,,
,,600916bb92179b5ecc406460,2024-02-18_20h13.15.308,kallum_motion_pilot,2023.2.2,Win32,74.62686567,600916bb92179b5ecc406460,65d2b6c8f2eece985d8e374c,65d2b9244c64ef8f4bd15951,0.0199,0.0199,0,8,8,69,1,threefour,,,,,,,,,,,,,,,,,,,,,,,,,,,,,,,,,,,,,,,,,,,,,,,,,,,,,,,,,,,,,,,,,,,,,,,,,,,,,,,,,,,,,,,,,,,,,,,,,,,,,,,,,,,,,,,,,,,,,,,,,,,,,,,,,,,,,,,,,
,,600916bb92179b5ecc406460,2024-02-18_20h13.15.308,kallum_motion_pilot,2023.2.2,Win32,74.62686567,600916bb92179b5ecc406460,65d2b6c8f2eece985d8e374c,65d2b9244c64ef8f4bd15951,0.02,0.02,0,9,9,101,1,seveneight,,,,,,,,,,,,,,,,,,,,,,,,,,,,,,,,,,,,,,,,,,,,,,,,,,,,,,,,,,,,,,,,,,,,,,,,,,,,,,,,,,,,,,,,,,,,,,,,,,,,,,,,,,,,,,,,,,,,,,,,,,,,,,,,,,,,,,,,,
,,600916bb92179b5ecc406460,2024-02-18_20h13.15.308,kallum_motion_pilot,2023.2.2,Win32,74.62686567,600916bb92179b5ecc406460,65d2b6c8f2eece985d8e374c,65d2b9244c64ef8f4bd15951,0.0201,0.0202,0,10,10,97,1,fiveseven,,,,,,,,,,,,,,,,,,,,,,,,,,,,,,,,,,,,,,,,,,,,,,,,,,,,,,,,,,,,,,,,,,,,,,,,,,,,,,,,,,,,,,,,,,,,,,,,,,,,,,,,,,,,,,,,,,,,,,,,,,,,,,,,,,,,,,,,,
,,600916bb92179b5ecc406460,2024-02-18_20h13.15.308,kallum_motion_pilot,2023.2.2,Win32,74.62686567,600916bb92179b5ecc406460,65d2b6c8f2eece985d8e374c,65d2b9244c64ef8f4bd15951,0.0203,0.0203,0,11,11,10,1,twoone,,,,,,,,,,,,,,,,,,,,,,,,,,,,,,,,,,,,,,,,,,,,,,,,,,,,,,,,,,,,,,,,,,,,,,,,,,,,,,,,,,,,,,,,,,,,,,,,,,,,,,,,,,,,,,,,,,,,,,,,,,,,,,,,,,,,,,,,,
,,600916bb92179b5ecc406460,2024-02-18_20h13.15.308,kallum_motion_pilot,2023.2.2,Win32,74.62686567,600916bb92179b5ecc406460,65d2b6c8f2eece985d8e374c,65d2b9244c64ef8f4bd15951,0.0205,0.0206,0,12,12,108,1,sevenfive,,,,,,,,,,,,,,,,,,,,,,,,,,,,,,,,,,,,,,,,,,,,,,,,,,,,,,,,,,,,,,,,,,,,,,,,,,,,,,,,,,,,,,,,,,,,,,,,,,,,,,,,,,,,,,,,,,,,,,,,,,,,,,,,,,,,,,,,,
,,600916bb92179b5ecc406460,2024-02-18_20h13.15.308,kallum_motion_pilot,2023.2.2,Win32,74.62686567,600916bb92179b5ecc406460,65d2b6c8f2eece985d8e374c,65d2b9244c64ef8f4bd15951,0.0207,0.0208,0,13,13,98,1,sixfive,,,,,,,,,,,,,,,,,,,,,,,,,,,,,,,,,,,,,,,,,,,,,,,,,,,,,,,,,,,,,,,,,,,,,,,,,,,,,,,,,,,,,,,,,,,,,,,,,,,,,,,,,,,,,,,,,,,,,,,,,,,,,,,,,,,,,,,,,
,,600916bb92179b5ecc406460,2024-02-18_20h13.15.308,kallum_motion_pilot,2023.2.2,Win32,74.62686567,600916bb92179b5ecc406460,65d2b6c8f2eece985d8e374c,65d2b9244c64ef8f4bd15951,0.0209,0.0209,0,14,14,137,1,fiveseven,,,,,,,,,,,,,,,,,,,,,,,,,,,,,,,,,,,,,,,,,,,,,,,,,,,,,,,,,,,,,,,,,,,,,,,,,,,,,,,,,,,,,,,,,,,,,,,,,,,,,,,,,,,,,,,,,,,,,,,,,,,,,,,,,,,,,,,,,
,,600916bb92179b5ecc406460,2024-02-18_20h13.15.308,kallum_motion_pilot,2023.2.2,Win32,74.62686567,600916bb92179b5ecc406460,65d2b6c8f2eece985d8e374c,65d2b9244c64ef8f4bd15951,0.021,0.0211,0,15,15,118,1,eightsix,,,,,,,,,,,,,,,,,,,,,,,,,,,,,,,,,,,,,,,,,,,,,,,,,,,,,,,,,,,,,,,,,,,,,,,,,,,,,,,,,,,,,,,,,,,,,,,,,,,,,,,,,,,,,,,,,,,,,,,,,,,,,,,,,,,,,,,,,
,,600916bb92179b5ecc406460,2024-02-18_20h13.15.308,kallum_motion_pilot,2023.2.2,Win32,74.62686567,600916bb92179b5ecc406460,65d2b6c8f2eece985d8e374c,65d2b9244c64ef8f4bd15951,0.0212,0.0213,0,16,16,11,1,twofour,,,,,,,,,,,,,,,,,,,,,,,,,,,,,,,,,,,,,,,,,,,,,,,,,,,,,,,,,,,,,,,,,,,,,,,,,,,,,,,,,,,,,,,,,,,,,,,,,,,,,,,,,,,,,,,,,,,,,,,,,,,,,,,,,,,,,,,,,
,,600916bb92179b5ecc406460,2024-02-18_20h13.15.308,kallum_motion_pilot,2023.2.2,Win32,74.62686567,600916bb92179b5ecc406460,65d2b6c8f2eece985d8e374c,65d2b9244c64ef8f4bd15951,0.0213,0.0214,0,17,17,107,1,sixeight,,,,,,,,,,,,,,,,,,,,,,,,,,,,,,,,,,,,,,,,,,,,,,,,,,,,,,,,,,,,,,,,,,,,,,,,,,,,,,,,,,,,,,,,,,,,,,,,,,,,,,,,,,,,,,,,,,,,,,,,,,,,,,,,,,,,,,,,,
,,600916bb92179b5ecc406460,2024-02-18_20h13.15.308,kallum_motion_pilot,2023.2.2,Win32,74.62686567,600916bb92179b5ecc406460,65d2b6c8f2eece985d8e374c,65d2b9244c64ef8f4bd15951,0.0215,0.0215,0,18,18,126,1,eightsix,,,,,,,,,,,,,,,,,,,,,,,,,,,,,,,,,,,,,,,,,,,,,,,,,,,,,,,,,,,,,,,,,,,,,,,,,,,,,,,,,,,,,,,,,,,,,,,,,,,,,,,,,,,,,,,,,,,,,,,,,,,,,,,,,,,,,,,,,
,,600916bb92179b5ecc406460,2024-02-18_20h13.15.308,kallum_motion_pilot,2023.2.2,Win32,74.62686567,600916bb92179b5ecc406460,65d2b6c8f2eece985d8e374c,65d2b9244c64ef8f4bd15951,0.0216,0.0216,0,19,19,90,1,sixfive,,,,,,,,,,,,,,,,,,,,,,,,,,,,,,,,,,,,,,,,,,,,,,,,,,,,,,,,,,,,,,,,,,,,,,,,,,,,,,,,,,,,,,,,,,,,,,,,,,,,,,,,,,,,,,,,,,,,,,,,,,,,,,,,,,,,,,,,,
,,600916bb92179b5ecc406460,2024-02-18_20h13.15.308,kallum_motion_pilot,2023.2.2,Win32,74.62686567,600916bb92179b5ecc406460,65d2b6c8f2eece985d8e374c,65d2b9244c64ef8f4bd15951,0.0218,0.0218,0,20,20,53,1,threefour,,,,,,,,,,,,,,,,,,,,,,,,,,,,,,,,,,,,,,,,,,,,,,,,,,,,,,,,,,,,,,,,,,,,,,,,,,,,,,,,,,,,,,,,,,,,,,,,,,,,,,,,,,,,,,,,,,,,,,,,,,,,,,,,,,,,,,,,,
,,600916bb92179b5ecc406460,2024-02-18_20h13.15.308,kallum_motion_pilot,2023.2.2,Win32,74.62686567,600916bb92179b5ecc406460,65d2b6c8f2eece985d8e374c,65d2b9244c64ef8f4bd15951,0.0218,0.0219,0,21,21,102,1,eightsix,,,,,,,,,,,,,,,,,,,,,,,,,,,,,,,,,,,,,,,,,,,,,,,,,,,,,,,,,,,,,,,,,,,,,,,,,,,,,,,,,,,,,,,,,,,,,,,,,,,,,,,,,,,,,,,,,,,,,,,,,,,,,,,,,,,,,,,,,
,,600916bb92179b5ecc406460,2024-02-18_20h13.15.308,kallum_motion_pilot,2023.2.2,Win32,74.62686567,600916bb92179b5ecc406460,65d2b6c8f2eece985d8e374c,65d2b9244c64ef8f4bd15951,0.0221,0.0221,0,22,22,31,1,fourthree,,,,,,,,,,,,,,,,,,,,,,,,,,,,,,,,,,,,,,,,,,,,,,,,,,,,,,,,,,,,,,,,,,,,,,,,,,,,,,,,,,,,,,,,,,,,,,,,,,,,,,,,,,,,,,,,,,,,,,,,,,,,,,,,,,,,,,,,,
,,600916bb92179b5ecc406460,2024-02-18_20h13.15.308,kallum_motion_pilot,2023.2.2,Win32,74.62686567,600916bb92179b5ecc406460,65d2b6c8f2eece985d8e374c,65d2b9244c64ef8f4bd15951,0.0221,0.0222,0,23,23,26,1,twoone,,,,,,,,,,,,,,,,,,,,,,,,,,,,,,,,,,,,,,,,,,,,,,,,,,,,,,,,,,,,,,,,,,,,,,,,,,,,,,,,,,,,,,,,,,,,,,,,,,,,,,,,,,,,,,,,,,,,,,,,,,,,,,,,,,,,,,,,,
,,600916bb92179b5ecc406460,2024-02-18_20h13.15.308,kallum_motion_pilot,2023.2.2,Win32,74.62686567,600916bb92179b5ecc406460,65d2b6c8f2eece985d8e374c,65d2b9244c64ef8f4bd15951,0.0223,0.0223,0,24,24,29,1,threefour,,,,,,,,,,,,,,,,,,,,,,,,,,,,,,,,,,,,,,,,,,,,,,,,,,,,,,,,,,,,,,,,,,,,,,,,,,,,,,,,,,,,,,,,,,,,,,,,,,,,,,,,,,,,,,,,,,,,,,,,,,,,,,,,,,,,,,,,,
,,600916bb92179b5ecc406460,2024-02-18_20h13.15.308,kallum_motion_pilot,2023.2.2,Win32,74.62686567,600916bb92179b5ecc406460,65d2b6c8f2eece985d8e374c,65d2b9244c64ef8f4bd15951,0.0224,0.0224,0,25,25,145,1,fiveseven,,,,,,,,,,,,,,,,,,,,,,,,,,,,,,,,,,,,,,,,,,,,,,,,,,,,,,,,,,,,,,,,,,,,,,,,,,,,,,,,,,,,,,,,,,,,,,,,,,,,,,,,,,,,,,,,,,,,,,,,,,,,,,,,,,,,,,,,,
,,600916bb92179b5ecc406460,2024-02-18_20h13.15.308,kallum_motion_pilot,2023.2.2,Win32,74.62686567,600916bb92179b5ecc406460,65d2b6c8f2eece985d8e374c,65d2b9244c64ef8f4bd15951,0.0225,0.0225,0,26,26,70,1,fourtwo,,,,,,,,,,,,,,,,,,,,,,,,,,,,,,,,,,,,,,,,,,,,,,,,,,,,,,,,,,,,,,,,,,,,,,,,,,,,,,,,,,,,,,,,,,,,,,,,,,,,,,,,,,,,,,,,,,,,,,,,,,,,,,,,,,,,,,,,,
,,600916bb92179b5ecc406460,2024-02-18_20h13.15.308,kallum_motion_pilot,2023.2.2,Win32,74.62686567,600916bb92179b5ecc406460,65d2b6c8f2eece985d8e374c,65d2b9244c64ef8f4bd15951,0.0226,0.0226,0,27,27,149,1,seveneight,,,,,,,,,,,,,,,,,,,,,,,,,,,,,,,,,,,,,,,,,,,,,,,,,,,,,,,,,,,,,,,,,,,,,,,,,,,,,,,,,,,,,,,,,,,,,,,,,,,,,,,,,,,,,,,,,,,,,,,,,,,,,,,,,,,,,,,,,
,,600916bb92179b5ecc406460,2024-02-18_20h13.15.308,kallum_motion_pilot,2023.2.2,Win32,74.62686567,600916bb92179b5ecc406460,65d2b6c8f2eece985d8e374c,65d2b9244c64ef8f4bd15951,0.0228,0.0228,0,28,28,5,1,threefour,,,,,,,,,,,,,,,,,,,,,,,,,,,,,,,,,,,,,,,,,,,,,,,,,,,,,,,,,,,,,,,,,,,,,,,,,,,,,,,,,,,,,,,,,,,,,,,,,,,,,,,,,,,,,,,,,,,,,,,,,,,,,,,,,,,,,,,,,
,,600916bb92179b5ecc406460,2024-02-18_20h13.15.308,kallum_motion_pilot,2023.2.2,Win32,74.62686567,600916bb92179b5ecc406460,65d2b6c8f2eece985d8e374c,65d2b9244c64ef8f4bd15951,0.0229,0.023,0,29,29,153,1,fiveseven,,,,,,,,,,,,,,,,,,,,,,,,,,,,,,,,,,,,,,,,,,,,,,,,,,,,,,,,,,,,,,,,,,,,,,,,,,,,,,,,,,,,,,,,,,,,,,,,,,,,,,,,,,,,,,,,,,,,,,,,,,,,,,,,,,,,,,,,,
,,600916bb92179b5ecc406460,2024-02-18_20h13.15.308,kallum_motion_pilot,2023.2.2,Win32,74.62686567,600916bb92179b5ecc406460,65d2b6c8f2eece985d8e374c,65d2b9244c64ef8f4bd15951,0.023,0.0231,0,30,30,37,1,threefour,,,,,,,,,,,,,,,,,,,,,,,,,,,,,,,,,,,,,,,,,,,,,,,,,,,,,,,,,,,,,,,,,,,,,,,,,,,,,,,,,,,,,,,,,,,,,,,,,,,,,,,,,,,,,,,,,,,,,,,,,,,,,,,,,,,,,,,,,
,,600916bb92179b5ecc406460,2024-02-18_20h13.15.308,kallum_motion_pilot,2023.2.2,Win32,74.62686567,600916bb92179b5ecc406460,65d2b6c8f2eece985d8e374c,65d2b9244c64ef8f4bd15951,0.0232,0.0232,0,31,31,99,1,sixeight,,,,,,,,,,,,,,,,,,,,,,,,,,,,,,,,,,,,,,,,,,,,,,,,,,,,,,,,,,,,,,,,,,,,,,,,,,,,,,,,,,,,,,,,,,,,,,,,,,,,,,,,,,,,,,,,,,,,,,,,,,,,,,,,,,,,,,,,,
,,600916bb92179b5ecc406460,2024-02-18_20h13.15.308,kallum_motion_pilot,2023.2.2,Win32,74.62686567,600916bb92179b5ecc406460,65d2b6c8f2eece985d8e374c,65d2b9244c64ef8f4bd15951,0.0233,0.0233,0,32,32,2,1,twoone,,,,,,,,,,,,,,,,,,,,,,,,,,,,,,,,,,,,,,,,,,,,,,,,,,,,,,,,,,,,,,,,,,,,,,,,,,,,,,,,,,,,,,,,,,,,,,,,,,,,,,,,,,,,,,,,,,,,,,,,,,,,,,,,,,,,,,,,,
,,600916bb92179b5ecc406460,2024-02-18_20h13.15.308,kallum_motion_pilot,2023.2.2,Win32,74.62686567,600916bb92179b5ecc406460,65d2b6c8f2eece985d8e374c,65d2b9244c64ef8f4bd15951,0.0235,0.0235,0,33,33,115,1,sixeight,,,,,,,,,,,,,,,,,,,,,,,,,,,,,,,,,,,,,,,,,,,,,,,,,,,,,,,,,,,,,,,,,,,,,,,,,,,,,,,,,,,,,,,,,,,,,,,,,,,,,,,,,,,,,,,,,,,,,,,,,,,,,,,,,,,,,,,,,
,,600916bb92179b5ecc406460,2024-02-18_20h13.15.308,kallum_motion_pilot,2023.2.2,Win32,74.62686567,600916bb92179b5ecc406460,65d2b6c8f2eece985d8e374c,65d2b9244c64ef8f4bd15951,0.0236,0.0236,0,34,34,124,1,sevenfive,,,,,,,,,,,,,,,,,,,,,,,,,,,,,,,,,,,,,,,,,,,,,,,,,,,,,,,,,,,,,,,,,,,,,,,,,,,,,,,,,,,,,,,,,,,,,,,,,,,,,,,,,,,,,,,,,,,,,,,,,,,,,,,,,,,,,,,,,
,,600916bb92179b5ecc406460,2024-02-18_20h13.15.308,kallum_motion_pilot,2023.2.2,Win32,74.62686567,600916bb92179b5ecc406460,65d2b6c8f2eece985d8e374c,65d2b9244c64ef8f4bd15951,0.0237,0.0237,0,35,35,119,1,eightseven,,,,,,,,,,,,,,,,,,,,,,,,,,,,,,,,,,,,,,,,,,,,,,,,,,,,,,,,,,,,,,,,,,,,,,,,,,,,,,,,,,,,,,,,,,,,,,,,,,,,,,,,,,,,,,,,,,,,,,,,,,,,,,,,,,,,,,,,,
,,600916bb92179b5ecc406460,2024-02-18_20h13.15.308,kallum_motion_pilot,2023.2.2,Win32,74.62686567,600916bb92179b5ecc406460,65d2b6c8f2eece985d8e374c,65d2b9244c64ef8f4bd15951,0.0239,0.0239,0,36,36,20,1,threeone,,,,,,,,,,,,,,,,,,,,,,,,,,,,,,,,,,,,,,,,,,,,,,,,,,,,,,,,,,,,,,,,,,,,,,,,,,,,,,,,,,,,,,,,,,,,,,,,,,,,,,,,,,,,,,,,,,,,,,,,,,,,,,,,,,,,,,,,,
,,600916bb92179b5ecc406460,2024-02-18_20h13.15.308,kallum_motion_pilot,2023.2.2,Win32,74.62686567,600916bb92179b5ecc406460,65d2b6c8f2eece985d8e374c,65d2b9244c64ef8f4bd15951,0.024,0.024,0,37,37,132,1,sevenfive,,,,,,,,,,,,,,,,,,,,,,,,,,,,,,,,,,,,,,,,,,,,,,,,,,,,,,,,,,,,,,,,,,,,,,,,,,,,,,,,,,,,,,,,,,,,,,,,,,,,,,,,,,,,,,,,,,,,,,,,,,,,,,,,,,,,,,,,,
,,600916bb92179b5ecc406460,2024-02-18_20h13.15.308,kallum_motion_pilot,2023.2.2,Win32,74.62686567,600916bb92179b5ecc406460,65d2b6c8f2eece985d8e374c,65d2b9244c64ef8f4bd15951,0.0241,0.0241,0,38,38,39,1,fourthree,,,,,,,,,,,,,,,,,,,,,,,,,,,,,,,,,,,,,,,,,,,,,,,,,,,,,,,,,,,,,,,,,,,,,,,,,,,,,,,,,,,,,,,,,,,,,,,,,,,,,,,,,,,,,,,,,,,,,,,,,,,,,,,,,,,,,,,,,
,,600916bb92179b5ecc406460,2024-02-18_20h13.15.308,kallum_motion_pilot,2023.2.2,Win32,74.62686567,600916bb92179b5ecc406460,65d2b6c8f2eece985d8e374c,65d2b9244c64ef8f4bd15951,0.0242,0.0242,0,39,39,114,1,sixfive,,,,,,,,,,,,,,,,,,,,,,,,,,,,,,,,,,,,,,,,,,,,,,,,,,,,,,,,,,,,,,,,,,,,,,,,,,,,,,,,,,,,,,,,,,,,,,,,,,,,,,,,,,,,,,,,,,,,,,,,,,,,,,,,,,,,,,,,,
,,600916bb92179b5ecc406460,2024-02-18_20h13.15.308,kallum_motion_pilot,2023.2.2,Win32,74.62686567,600916bb92179b5ecc406460,65d2b6c8f2eece985d8e374c,65d2b9244c64ef8f4bd15951,0.0244,0.0244,0,40,40,27,1,twofour,,,,,,,,,,,,,,,,,,,,,,,,,,,,,,,,,,,,,,,,,,,,,,,,,,,,,,,,,,,,,,,,,,,,,,,,,,,,,,,,,,,,,,,,,,,,,,,,,,,,,,,,,,,,,,,,,,,,,,,,,,,,,,,,,,,,,,,,,
,,600916bb92179b5ecc406460,2024-02-18_20h13.15.308,kallum_motion_pilot,2023.2.2,Win32,74.62686567,600916bb92179b5ecc406460,65d2b6c8f2eece985d8e374c,65d2b9244c64ef8f4bd15951,0.0245,0.0245,0,41,41,65,1,onethree,,,,,,,,,,,,,,,,,,,,,,,,,,,,,,,,,,,,,,,,,,,,,,,,,,,,,,,,,,,,,,,,,,,,,,,,,,,,,,,,,,,,,,,,,,,,,,,,,,,,,,,,,,,,,,,,,,,,,,,,,,,,,,,,,,,,,,,,,
,,600916bb92179b5ecc406460,2024-02-18_20h13.15.308,kallum_motion_pilot,2023.2.2,Win32,74.62686567,600916bb92179b5ecc406460,65d2b6c8f2eece985d8e374c,65d2b9244c64ef8f4bd15951,0.0246,0.0246,0,42,42,0,1,onetwo,,,,,,,,,,,,,,,,,,,,,,,,,,,,,,,,,,,,,,,,,,,,,,,,,,,,,,,,,,,,,,,,,,,,,,,,,,,,,,,,,,,,,,,,,,,,,,,,,,,,,,,,,,,,,,,,,,,,,,,,,,,,,,,,,,,,,,,,,
,,600916bb92179b5ecc406460,2024-02-18_20h13.15.308,kallum_motion_pilot,2023.2.2,Win32,74.62686567,600916bb92179b5ecc406460,65d2b6c8f2eece985d8e374c,65d2b9244c64ef8f4bd15951,0.0248,0.0248,0,43,43,161,1,fiveseven,,,,,,,,,,,,,,,,,,,,,,,,,,,,,,,,,,,,,,,,,,,,,,,,,,,,,,,,,,,,,,,,,,,,,,,,,,,,,,,,,,,,,,,,,,,,,,,,,,,,,,,,,,,,,,,,,,,,,,,,,,,,,,,,,,,,,,,,,
,,600916bb92179b5ecc406460,2024-02-18_20h13.15.308,kallum_motion_pilot,2023.2.2,Win32,74.62686567,600916bb92179b5ecc406460,65d2b6c8f2eece985d8e374c,65d2b9244c64ef8f4bd15951,0.0249,0.0249,0,44,44,60,1,threeone,,,,,,,,,,,,,,,,,,,,,,,,,,,,,,,,,,,,,,,,,,,,,,,,,,,,,,,,,,,,,,,,,,,,,,,,,,,,,,,,,,,,,,,,,,,,,,,,,,,,,,,,,,,,,,,,,,,,,,,,,,,,,,,,,,,,,,,,,
,,600916bb92179b5ecc406460,2024-02-18_20h13.15.308,kallum_motion_pilot,2023.2.2,Win32,74.62686567,600916bb92179b5ecc406460,65d2b6c8f2eece985d8e374c,65d2b9244c64ef8f4bd15951,0.025,0.0251,0,45,45,111,1,eightseven,,,,,,,,,,,,,,,,,,,,,,,,,,,,,,,,,,,,,,,,,,,,,,,,,,,,,,,,,,,,,,,,,,,,,,,,,,,,,,,,,,,,,,,,,,,,,,,,,,,,,,,,,,,,,,,,,,,,,,,,,,,,,,,,,,,,,,,,,
,,600916bb92179b5ecc406460,2024-02-18_20h13.15.308,kallum_motion_pilot,2023.2.2,Win32,74.62686567,600916bb92179b5ecc406460,65d2b6c8f2eece985d8e374c,65d2b9244c64ef8f4bd15951,0.0252,0.0252,0,46,46,23,1,fourthree,,,,,,,,,,,,,,,,,,,,,,,,,,,,,,,,,,,,,,,,,,,,,,,,,,,,,,,,,,,,,,,,,,,,,,,,,,,,,,,,,,,,,,,,,,,,,,,,,,,,,,,,,,,,,,,,,,,,,,,,,,,,,,,,,,,,,,,,,
,,600916bb92179b5ecc406460,2024-02-18_20h13.15.308,kallum_motion_pilot,2023.2.2,Win32,74.62686567,600916bb92179b5ecc406460,65d2b6c8f2eece985d8e374c,65d2b9244c64ef8f4bd15951,0.0252,0.0253,0,47,47,154,1,sixfive,,,,,,,,,,,,,,,,,,,,,,,,,,,,,,,,,,,,,,,,,,,,,,,,,,,,,,,,,,,,,,,,,,,,,,,,,,,,,,,,,,,,,,,,,,,,,,,,,,,,,,,,,,,,,,,,,,,,,,,,,,,,,,,,,,,,,,,,,
,,600916bb92179b5ecc406460,2024-02-18_20h13.15.308,kallum_motion_pilot,2023.2.2,Win32,74.62686567,600916bb92179b5ecc406460,65d2b6c8f2eece985d8e374c,65d2b9244c64ef8f4bd15951,0.0254,0.0254,0,48,48,133,1,seveneight,,,,,,,,,,,,,,,,,,,,,,,,,,,,,,,,,,,,,,,,,,,,,,,,,,,,,,,,,,,,,,,,,,,,,,,,,,,,,,,,,,,,,,,,,,,,,,,,,,,,,,,,,,,,,,,,,,,,,,,,,,,,,,,,,,,,,,,,,
,,600916bb92179b5ecc406460,2024-02-18_20h13.15.308,kallum_motion_pilot,2023.2.2,Win32,74.62686567,600916bb92179b5ecc406460,65d2b6c8f2eece985d8e374c,65d2b9244c64ef8f4bd15951,0.0256,0.0256,0,49,49,160,1,fivesix,,,,,,,,,,,,,,,,,,,,,,,,,,,,,,,,,,,,,,,,,,,,,,,,,,,,,,,,,,,,,,,,,,,,,,,,,,,,,,,,,,,,,,,,,,,,,,,,,,,,,,,,,,,,,,,,,,,,,,,,,,,,,,,,,,,,,,,,,
,,600916bb92179b5ecc406460,2024-02-18_20h13.15.308,kallum_motion_pilot,2023.2.2,Win32,74.62686567,600916bb92179b5ecc406460,65d2b6c8f2eece985d8e374c,65d2b9244c64ef8f4bd15951,0.0256,0.0258,0,50,50,52,1,threeone,,,,,,,,,,,,,,,,,,,,,,,,,,,,,,,,,,,,,,,,,,,,,,,,,,,,,,,,,,,,,,,,,,,,,,,,,,,,,,,,,,,,,,,,,,,,,,,,,,,,,,,,,,,,,,,,,,,,,,,,,,,,,,,,,,,,,,,,,
,,600916bb92179b5ecc406460,2024-02-18_20h13.15.308,kallum_motion_pilot,2023.2.2,Win32,74.62686567,600916bb92179b5ecc406460,65d2b6c8f2eece985d8e374c,65d2b9244c64ef8f4bd15951,0.0258,0.0258,0,51,51,122,1,sixfive,,,,,,,,,,,,,,,,,,,,,,,,,,,,,,,,,,,,,,,,,,,,,,,,,,,,,,,,,,,,,,,,,,,,,,,,,,,,,,,,,,,,,,,,,,,,,,,,,,,,,,,,,,,,,,,,,,,,,,,,,,,,,,,,,,,,,,,,,
,,600916bb92179b5ecc406460,2024-02-18_20h13.15.308,kallum_motion_pilot,2023.2.2,Win32,74.62686567,600916bb92179b5ecc406460,65d2b6c8f2eece985d8e374c,65d2b9244c64ef8f4bd15951,0.0259,0.026,0,52,52,12,1,threeone,,,,,,,,,,,,,,,,,,,,,,,,,,,,,,,,,,,,,,,,,,,,,,,,,,,,,,,,,,,,,,,,,,,,,,,,,,,,,,,,,,,,,,,,,,,,,,,,,,,,,,,,,,,,,,,,,,,,,,,,,,,,,,,,,,,,,,,,,
,,600916bb92179b5ecc406460,2024-02-18_20h13.15.308,kallum_motion_pilot,2023.2.2,Win32,74.62686567,600916bb92179b5ecc406460,65d2b6c8f2eece985d8e374c,65d2b9244c64ef8f4bd15951,0.0261,0.0261,0,53,53,25,1,onethree,,,,,,,,,,,,,,,,,,,,,,,,,,,,,,,,,,,,,,,,,,,,,,,,,,,,,,,,,,,,,,,,,,,,,,,,,,,,,,,,,,,,,,,,,,,,,,,,,,,,,,,,,,,,,,,,,,,,,,,,,,,,,,,,,,,,,,,,,
,,600916bb92179b5ecc406460,2024-02-18_20h13.15.308,kallum_motion_pilot,2023.2.2,Win32,74.62686567,600916bb92179b5ecc406460,65d2b6c8f2eece985d8e374c,65d2b9244c64ef8f4bd15951,0.0262,0.0262,0,54,54,123,1,sixeight,,,,,,,,,,,,,,,,,,,,,,,,,,,,,,,,,,,,,,,,,,,,,,,,,,,,,,,,,,,,,,,,,,,,,,,,,,,,,,,,,,,,,,,,,,,,,,,,,,,,,,,,,,,,,,,,,,,,,,,,,,,,,,,,,,,,,,,,,
,,600916bb92179b5ecc406460,2024-02-18_20h13.15.308,kallum_motion_pilot,2023.2.2,Win32,74.62686567,600916bb92179b5ecc406460,65d2b6c8f2eece985d8e374c,65d2b9244c64ef8f4bd15951,0.0263,0.0264,0,55,55,14,1,fourtwo,,,,,,,,,,,,,,,,,,,,,,,,,,,,,,,,,,,,,,,,,,,,,,,,,,,,,,,,,,,,,,,,,,,,,,,,,,,,,,,,,,,,,,,,,,,,,,,,,,,,,,,,,,,,,,,,,,,,,,,,,,,,,,,,,,,,,,,,,
,,600916bb92179b5ecc406460,2024-02-18_20h13.15.308,kallum_motion_pilot,2023.2.2,Win32,74.62686567,600916bb92179b5ecc406460,65d2b6c8f2eece985d8e374c,65d2b9244c64ef8f4bd15951,0.0265,0.0265,0,56,56,94,1,eightsix,,,,,,,,,,,,,,,,,,,,,,,,,,,,,,,,,,,,,,,,,,,,,,,,,,,,,,,,,,,,,,,,,,,,,,,,,,,,,,,,,,,,,,,,,,,,,,,,,,,,,,,,,,,,,,,,,,,,,,,,,,,,,,,,,,,,,,,,,
,,600916bb92179b5ecc406460,2024-02-18_20h13.15.308,kallum_motion_pilot,2023.2.2,Win32,74.62686567,600916bb92179b5ecc406460,65d2b6c8f2eece985d8e374c,65d2b9244c64ef8f4bd15951,0.0275,0.0276,0,57,57,105,1,fiveseven,,,,,,,,,,,,,,,,,,,,,,,,,,,,,,,,,,,,,,,,,,,,,,,,,,,,,,,,,,,,,,,,,,,,,,,,,,,,,,,,,,,,,,,,,,,,,,,,,,,,,,,,,,,,,,,,,,,,,,,,,,,,,,,,,,,,,,,,,
,,600916bb92179b5ecc406460,2024-02-18_20h13.15.308,kallum_motion_pilot,2023.2.2,Win32,74.62686567,600916bb92179b5ecc406460,65d2b6c8f2eece985d8e374c,65d2b9244c64ef8f4bd15951,0.0277,0.0277,0,58,58,96,1,fivesix,,,,,,,,,,,,,,,,,,,,,,,,,,,,,,,,,,,,,,,,,,,,,,,,,,,,,,,,,,,,,,,,,,,,,,,,,,,,,,,,,,,,,,,,,,,,,,,,,,,,,,,,,,,,,,,,,,,,,,,,,,,,,,,,,,,,,,,,,
,,600916bb92179b5ecc406460,2024-02-18_20h13.15.308,kallum_motion_pilot,2023.2.2,Win32,74.62686567,600916bb92179b5ecc406460,65d2b6c8f2eece985d8e374c,65d2b9244c64ef8f4bd15951,0.0278,0.0278,0,59,59,88,1,fivesix,,,,,,,,,,,,,,,,,,,,,,,,,,,,,,,,,,,,,,,,,,,,,,,,,,,,,,,,,,,,,,,,,,,,,,,,,,,,,,,,,,,,,,,,,,,,,,,,,,,,,,,,,,,,,,,,,,,,,,,,,,,,,,,,,,,,,,,,,
,,600916bb92179b5ecc406460,2024-02-18_20h13.15.308,kallum_motion_pilot,2023.2.2,Win32,74.62686567,600916bb92179b5ecc406460,65d2b6c8f2eece985d8e374c,65d2b9244c64ef8f4bd15951,0.028,0.0281,0,60,60,125,1,seveneight,,,,,,,,,,,,,,,,,,,,,,,,,,,,,,,,,,,,,,,,,,,,,,,,,,,,,,,,,,,,,,,,,,,,,,,,,,,,,,,,,,,,,,,,,,,,,,,,,,,,,,,,,,,,,,,,,,,,,,,,,,,,,,,,,,,,,,,,,
,,600916bb92179b5ecc406460,2024-02-18_20h13.15.308,kallum_motion_pilot,2023.2.2,Win32,74.62686567,600916bb92179b5ecc406460,65d2b6c8f2eece985d8e374c,65d2b9244c64ef8f4bd15951,0.0282,0.0283,0,61,61,74,1,twoone,,,,,,,,,,,,,,,,,,,,,,,,,,,,,,,,,,,,,,,,,,,,,,,,,,,,,,,,,,,,,,,,,,,,,,,,,,,,,,,,,,,,,,,,,,,,,,,,,,,,,,,,,,,,,,,,,,,,,,,,,,,,,,,,,,,,,,,,,
,,600916bb92179b5ecc406460,2024-02-18_20h13.15.308,kallum_motion_pilot,2023.2.2,Win32,74.62686567,600916bb92179b5ecc406460,65d2b6c8f2eece985d8e374c,65d2b9244c64ef8f4bd15951,0.0284,0.0285,0,62,62,117,1,seveneight,,,,,,,,,,,,,,,,,,,,,,,,,,,,,,,,,,,,,,,,,,,,,,,,,,,,,,,,,,,,,,,,,,,,,,,,,,,,,,,,,,,,,,,,,,,,,,,,,,,,,,,,,,,,,,,,,,,,,,,,,,,,,,,,,,,,,,,,,
,,600916bb92179b5ecc406460,2024-02-18_20h13.15.308,kallum_motion_pilot,2023.2.2,Win32,74.62686567,600916bb92179b5ecc406460,65d2b6c8f2eece985d8e374c,65d2b9244c64ef8f4bd15951,0.0287,0.0288,0,63,63,62,1,fourtwo,,,,,,,,,,,,,,,,,,,,,,,,,,,,,,,,,,,,,,,,,,,,,,,,,,,,,,,,,,,,,,,,,,,,,,,,,,,,,,,,,,,,,,,,,,,,,,,,,,,,,,,,,,,,,,,,,,,,,,,,,,,,,,,,,,,,,,,,,
,,600916bb92179b5ecc406460,2024-02-18_20h13.15.308,kallum_motion_pilot,2023.2.2,Win32,74.62686567,600916bb92179b5ecc406460,65d2b6c8f2eece985d8e374c,65d2b9244c64ef8f4bd15951,0.0289,0.029,0,64,64,45,1,threefour,,,,,,,,,,,,,,,,,,,,,,,,,,,,,,,,,,,,,,,,,,,,,,,,,,,,,,,,,,,,,,,,,,,,,,,,,,,,,,,,,,,,,,,,,,,,,,,,,,,,,,,,,,,,,,,,,,,,,,,,,,,,,,,,,,,,,,,,,
,,600916bb92179b5ecc406460,2024-02-18_20h13.15.308,kallum_motion_pilot,2023.2.2,Win32,74.62686567,600916bb92179b5ecc406460,65d2b6c8f2eece985d8e374c,65d2b9244c64ef8f4bd15951,0.0291,0.0292,0,65,65,55,1,fourthree,,,,,,,,,,,,,,,,,,,,,,,,,,,,,,,,,,,,,,,,,,,,,,,,,,,,,,,,,,,,,,,,,,,,,,,,,,,,,,,,,,,,,,,,,,,,,,,,,,,,,,,,,,,,,,,,,,,,,,,,,,,,,,,,,,,,,,,,,
,,600916bb92179b5ecc406460,2024-02-18_20h13.15.308,kallum_motion_pilot,2023.2.2,Win32,74.62686567,600916bb92179b5ecc406460,65d2b6c8f2eece985d8e374c,65d2b9244c64ef8f4bd15951,0.0293,0.0293,0,66,66,129,1,fiveseven,,,,,,,,,,,,,,,,,,,,,,,,,,,,,,,,,,,,,,,,,,,,,,,,,,,,,,,,,,,,,,,,,,,,,,,,,,,,,,,,,,,,,,,,,,,,,,,,,,,,,,,,,,,,,,,,,,,,,,,,,,,,,,,,,,,,,,,,,
,,600916bb92179b5ecc406460,2024-02-18_20h13.15.308,kallum_motion_pilot,2023.2.2,Win32,74.62686567,600916bb92179b5ecc406460,65d2b6c8f2eece985d8e374c,65d2b9244c64ef8f4bd15951,0.0294,0.0295,0,67,67,144,1,fivesix,,,,,,,,,,,,,,,,,,,,,,,,,,,,,,,,,,,,,,,,,,,,,,,,,,,,,,,,,,,,,,,,,,,,,,,,,,,,,,,,,,,,,,,,,,,,,,,,,,,,,,,,,,,,,,,,,,,,,,,,,,,,,,,,,,,,,,,,,
,,600916bb92179b5ecc406460,2024-02-18_20h13.15.308,kallum_motion_pilot,2023.2.2,Win32,74.62686567,600916bb92179b5ecc406460,65d2b6c8f2eece985d8e374c,65d2b9244c64ef8f4bd15951,0.0296,0.0296,0,68,68,130,1,sixfive,,,,,,,,,,,,,,,,,,,,,,,,,,,,,,,,,,,,,,,,,,,,,,,,,,,,,,,,,,,,,,,,,,,,,,,,,,,,,,,,,,,,,,,,,,,,,,,,,,,,,,,,,,,,,,,,,,,,,,,,,,,,,,,,,,,,,,,,,
,,600916bb92179b5ecc406460,2024-02-18_20h13.15.308,kallum_motion_pilot,2023.2.2,Win32,74.62686567,600916bb92179b5ecc406460,65d2b6c8f2eece985d8e374c,65d2b9244c64ef8f4bd15951,0.0297,0.0298,0,69,69,33,1,onethree,,,,,,,,,,,,,,,,,,,,,,,,,,,,,,,,,,,,,,,,,,,,,,,,,,,,,,,,,,,,,,,,,,,,,,,,,,,,,,,,,,,,,,,,,,,,,,,,,,,,,,,,,,,,,,,,,,,,,,,,,,,,,,,,,,,,,,,,,
,,600916bb92179b5ecc406460,2024-02-18_20h13.15.308,kallum_motion_pilot,2023.2.2,Win32,74.62686567,600916bb92179b5ecc406460,65d2b6c8f2eece985d8e374c,65d2b9244c64ef8f4bd15951,0.0298,0.0299,0,70,70,148,1,sevenfive,,,,,,,,,,,,,,,,,,,,,,,,,,,,,,,,,,,,,,,,,,,,,,,,,,,,,,,,,,,,,,,,,,,,,,,,,,,,,,,,,,,,,,,,,,,,,,,,,,,,,,,,,,,,,,,,,,,,,,,,,,,,,,,,,,,,,,,,,
,,600916bb92179b5ecc406460,2024-02-18_20h13.15.308,kallum_motion_pilot,2023.2.2,Win32,74.62686567,600916bb92179b5ecc406460,65d2b6c8f2eece985d8e374c,65d2b9244c64ef8f4bd15951,0.03,0.0301,0,71,71,4,1,threeone,,,,,,,,,,,,,,,,,,,,,,,,,,,,,,,,,,,,,,,,,,,,,,,,,,,,,,,,,,,,,,,,,,,,,,,,,,,,,,,,,,,,,,,,,,,,,,,,,,,,,,,,,,,,,,,,,,,,,,,,,,,,,,,,,,,,,,,,,
,,600916bb92179b5ecc406460,2024-02-18_20h13.15.308,kallum_motion_pilot,2023.2.2,Win32,74.62686567,600916bb92179b5ecc406460,65d2b6c8f2eece985d8e374c,65d2b9244c64ef8f4bd15951,0.0302,0.0302,0,72,72,121,1,fiveseven,,,,,,,,,,,,,,,,,,,,,,,,,,,,,,,,,,,,,,,,,,,,,,,,,,,,,,,,,,,,,,,,,,,,,,,,,,,,,,,,,,,,,,,,,,,,,,,,,,,,,,,,,,,,,,,,,,,,,,,,,,,,,,,,,,,,,,,,,
,,600916bb92179b5ecc406460,2024-02-18_20h13.15.308,kallum_motion_pilot,2023.2.2,Win32,74.62686567,600916bb92179b5ecc406460,65d2b6c8f2eece985d8e374c,65d2b9244c64ef8f4bd15951,0.0303,0.0303,0,73,73,159,1,eightseven,,,,,,,,,,,,,,,,,,,,,,,,,,,,,,,,,,,,,,,,,,,,,,,,,,,,,,,,,,,,,,,,,,,,,,,,,,,,,,,,,,,,,,,,,,,,,,,,,,,,,,,,,,,,,,,,,,,,,,,,,,,,,,,,,,,,,,,,,
,,600916bb92179b5ecc406460,2024-02-18_20h13.15.308,kallum_motion_pilot,2023.2.2,Win32,74.62686567,600916bb92179b5ecc406460,65d2b6c8f2eece985d8e374c,65d2b9244c64ef8f4bd15951,0.0304,0.0304,0,74,74,84,1,sevenfive,,,,,,,,,,,,,,,,,,,,,,,,,,,,,,,,,,,,,,,,,,,,,,,,,,,,,,,,,,,,,,,,,,,,,,,,,,,,,,,,,,,,,,,,,,,,,,,,,,,,,,,,,,,,,,,,,,,,,,,,,,,,,,,,,,,,,,,,,
,,600916bb92179b5ecc406460,2024-02-18_20h13.15.308,kallum_motion_pilot,2023.2.2,Win32,74.62686567,600916bb92179b5ecc406460,65d2b6c8f2eece985d8e374c,65d2b9244c64ef8f4bd15951,0.0306,0.0306,0,75,75,147,1,sixeight,,,,,,,,,,,,,,,,,,,,,,,,,,,,,,,,,,,,,,,,,,,,,,,,,,,,,,,,,,,,,,,,,,,,,,,,,,,,,,,,,,,,,,,,,,,,,,,,,,,,,,,,,,,,,,,,,,,,,,,,,,,,,,,,,,,,,,,,,
,,600916bb92179b5ecc406460,2024-02-18_20h13.15.308,kallum_motion_pilot,2023.2.2,Win32,74.62686567,600916bb92179b5ecc406460,65d2b6c8f2eece985d8e374c,65d2b9244c64ef8f4bd15951,0.0307,0.0307,0,76,76,35,1,twofour,,,,,,,,,,,,,,,,,,,,,,,,,,,,,,,,,,,,,,,,,,,,,,,,,,,,,,,,,,,,,,,,,,,,,,,,,,,,,,,,,,,,,,,,,,,,,,,,,,,,,,,,,,,,,,,,,,,,,,,,,,,,,,,,,,,,,,,,,
,,600916bb92179b5ecc406460,2024-02-18_20h13.15.308,kallum_motion_pilot,2023.2.2,Win32,74.62686567,600916bb92179b5ecc406460,65d2b6c8f2eece985d8e374c,65d2b9244c64ef8f4bd15951,0.0308,0.0308,0,77,77,106,1,sixfive,,,,,,,,,,,,,,,,,,,,,,,,,,,,,,,,,,,,,,,,,,,,,,,,,,,,,,,,,,,,,,,,,,,,,,,,,,,,,,,,,,,,,,,,,,,,,,,,,,,,,,,,,,,,,,,,,,,,,,,,,,,,,,,,,,,,,,,,,
,,600916bb92179b5ecc406460,2024-02-18_20h13.15.308,kallum_motion_pilot,2023.2.2,Win32,74.62686567,600916bb92179b5ecc406460,65d2b6c8f2eece985d8e374c,65d2b9244c64ef8f4bd15951,0.031,0.031,0,78,78,19,1,twofour,,,,,,,,,,,,,,,,,,,,,,,,,,,,,,,,,,,,,,,,,,,,,,,,,,,,,,,,,,,,,,,,,,,,,,,,,,,,,,,,,,,,,,,,,,,,,,,,,,,,,,,,,,,,,,,,,,,,,,,,,,,,,,,,,,,,,,,,,
,,600916bb92179b5ecc406460,2024-02-18_20h13.15.308,kallum_motion_pilot,2023.2.2,Win32,74.62686567,600916bb92179b5ecc406460,65d2b6c8f2eece985d8e374c,65d2b9244c64ef8f4bd15951,0.0311,0.0311,0,79,79,66,1,twoone,,,,,,,,,,,,,,,,,,,,,,,,,,,,,,,,,,,,,,,,,,,,,,,,,,,,,,,,,,,,,,,,,,,,,,,,,,,,,,,,,,,,,,,,,,,,,,,,,,,,,,,,,,,,,,,,,,,,,,,,,,,,,,,,,,,,,,,,,
,,600916bb92179b5ecc406460,2024-02-18_20h13.15.308,kallum_motion_pilot,2023.2.2,Win32,74.62686567,600916bb92179b5ecc406460,65d2b6c8f2eece985d8e374c,65d2b9244c64ef8f4bd15951,0.0313,0.0313,0,80,80,86,1,eightsix,,,,,,,,,,,,,,,,,,,,,,,,,,,,,,,,,,,,,,,,,,,,,,,,,,,,,,,,,,,,,,,,,,,,,,,,,,,,,,,,,,,,,,,,,,,,,,,,,,,,,,,,,,,,,,,,,,,,,,,,,,,,,,,,,,,,,,,,,
,,600916bb92179b5ecc406460,2024-02-18_20h13.15.308,kallum_motion_pilot,2023.2.2,Win32,74.62686567,600916bb92179b5ecc406460,65d2b6c8f2eece985d8e374c,65d2b9244c64ef8f4bd15951,0.0313,0.0314,0,81,81,104,1,fivesix,,,,,,,,,,,,,,,,,,,,,,,,,,,,,,,,,,,,,,,,,,,,,,,,,,,,,,,,,,,,,,,,,,,,,,,,,,,,,,,,,,,,,,,,,,,,,,,,,,,,,,,,,,,,,,,,,,,,,,,,,,,,,,,,,,,,,,,,,
,,600916bb92179b5ecc406460,2024-02-18_20h13.15.308,kallum_motion_pilot,2023.2.2,Win32,74.62686567,600916bb92179b5ecc406460,65d2b6c8f2eece985d8e374c,65d2b9244c64ef8f4bd15951,0.0314,0.0315,0,82,82,127,1,eightseven,,,,,,,,,,,,,,,,,,,,,,,,,,,,,,,,,,,,,,,,,,,,,,,,,,,,,,,,,,,,,,,,,,,,,,,,,,,,,,,,,,,,,,,,,,,,,,,,,,,,,,,,,,,,,,,,,,,,,,,,,,,,,,,,,,,,,,,,,
,,600916bb92179b5ecc406460,2024-02-18_20h13.15.308,kallum_motion_pilot,2023.2.2,Win32,74.62686567,600916bb92179b5ecc406460,65d2b6c8f2eece985d8e374c,65d2b9244c64ef8f4bd15951,0.0316,0.0316,0,83,83,54,1,fourtwo,,,,,,,,,,,,,,,,,,,,,,,,,,,,,,,,,,,,,,,,,,,,,,,,,,,,,,,,,,,,,,,,,,,,,,,,,,,,,,,,,,,,,,,,,,,,,,,,,,,,,,,,,,,,,,,,,,,,,,,,,,,,,,,,,,,,,,,,,
,,600916bb92179b5ecc406460,2024-02-18_20h13.15.308,kallum_motion_pilot,2023.2.2,Win32,74.62686567,600916bb92179b5ecc406460,65d2b6c8f2eece985d8e374c,65d2b9244c64ef8f4bd15951,0.0318,0.0319,0,84,84,95,1,eightseven,,,,,,,,,,,,,,,,,,,,,,,,,,,,,,,,,,,,,,,,,,,,,,,,,,,,,,,,,,,,,,,,,,,,,,,,,,,,,,,,,,,,,,,,,,,,,,,,,,,,,,,,,,,,,,,,,,,,,,,,,,,,,,,,,,,,,,,,,
,,600916bb92179b5ecc406460,2024-02-18_20h13.15.308,kallum_motion_pilot,2023.2.2,Win32,74.62686567,600916bb92179b5ecc406460,65d2b6c8f2eece985d8e374c,65d2b9244c64ef8f4bd15951,0.0319,0.032,0,85,85,141,1,seveneight,,,,,,,,,,,,,,,,,,,,,,,,,,,,,,,,,,,,,,,,,,,,,,,,,,,,,,,,,,,,,,,,,,,,,,,,,,,,,,,,,,,,,,,,,,,,,,,,,,,,,,,,,,,,,,,,,,,,,,,,,,,,,,,,,,,,,,,,,
,,600916bb92179b5ecc406460,2024-02-18_20h13.15.308,kallum_motion_pilot,2023.2.2,Win32,74.62686567,600916bb92179b5ecc406460,65d2b6c8f2eece985d8e374c,65d2b9244c64ef8f4bd15951,0.0321,0.0321,0,86,86,77,1,threefour,,,,,,,,,,,,,,,,,,,,,,,,,,,,,,,,,,,,,,,,,,,,,,,,,,,,,,,,,,,,,,,,,,,,,,,,,,,,,,,,,,,,,,,,,,,,,,,,,,,,,,,,,,,,,,,,,,,,,,,,,,,,,,,,,,,,,,,,,
,,600916bb92179b5ecc406460,2024-02-18_20h13.15.308,kallum_motion_pilot,2023.2.2,Win32,74.62686567,600916bb92179b5ecc406460,65d2b6c8f2eece985d8e374c,65d2b9244c64ef8f4bd15951,0.0322,0.0322,0,87,87,42,1,twoone,,,,,,,,,,,,,,,,,,,,,,,,,,,,,,,,,,,,,,,,,,,,,,,,,,,,,,,,,,,,,,,,,,,,,,,,,,,,,,,,,,,,,,,,,,,,,,,,,,,,,,,,,,,,,,,,,,,,,,,,,,,,,,,,,,,,,,,,,
,,600916bb92179b5ecc406460,2024-02-18_20h13.15.308,kallum_motion_pilot,2023.2.2,Win32,74.62686567,600916bb92179b5ecc406460,65d2b6c8f2eece985d8e374c,65d2b9244c64ef8f4bd15951,0.0323,0.0323,0,88,88,89,1,fiveseven,,,,,,,,,,,,,,,,,,,,,,,,,,,,,,,,,,,,,,,,,,,,,,,,,,,,,,,,,,,,,,,,,,,,,,,,,,,,,,,,,,,,,,,,,,,,,,,,,,,,,,,,,,,,,,,,,,,,,,,,,,,,,,,,,,,,,,,,,
,,600916bb92179b5ecc406460,2024-02-18_20h13.15.308,kallum_motion_pilot,2023.2.2,Win32,74.62686567,600916bb92179b5ecc406460,65d2b6c8f2eece985d8e374c,65d2b9244c64ef8f4bd15951,0.0324,0.0324,0,89,89,143,1,eightseven,,,,,,,,,,,,,,,,,,,,,,,,,,,,,,,,,,,,,,,,,,,,,,,,,,,,,,,,,,,,,,,,,,,,,,,,,,,,,,,,,,,,,,,,,,,,,,,,,,,,,,,,,,,,,,,,,,,,,,,,,,,,,,,,,,,,,,,,,
,,600916bb92179b5ecc406460,2024-02-18_20h13.15.308,kallum_motion_pilot,2023.2.2,Win32,74.62686567,600916bb92179b5ecc406460,65d2b6c8f2eece985d8e374c,65d2b9244c64ef8f4bd15951,0.0326,0.0326,0,90,90,15,1,fourthree,,,,,,,,,,,,,,,,,,,,,,,,,,,,,,,,,,,,,,,,,,,,,,,,,,,,,,,,,,,,,,,,,,,,,,,,,,,,,,,,,,,,,,,,,,,,,,,,,,,,,,,,,,,,,,,,,,,,,,,,,,,,,,,,,,,,,,,,,
,,600916bb92179b5ecc406460,2024-02-18_20h13.15.308,kallum_motion_pilot,2023.2.2,Win32,74.62686567,600916bb92179b5ecc406460,65d2b6c8f2eece985d8e374c,65d2b9244c64ef8f4bd15951,0.0327,0.0327,0,91,91,1,1,onethree,,,,,,,,,,,,,,,,,,,,,,,,,,,,,,,,,,,,,,,,,,,,,,,,,,,,,,,,,,,,,,,,,,,,,,,,,,,,,,,,,,,,,,,,,,,,,,,,,,,,,,,,,,,,,,,,,,,,,,,,,,,,,,,,,,,,,,,,,
,,600916bb92179b5ecc406460,2024-02-18_20h13.15.308,kallum_motion_pilot,2023.2.2,Win32,74.62686567,600916bb92179b5ecc406460,65d2b6c8f2eece985d8e374c,65d2b9244c64ef8f4bd15951,0.0329,0.0329,0,92,92,158,1,eightsix,,,,,,,,,,,,,,,,,,,,,,,,,,,,,,,,,,,,,,,,,,,,,,,,,,,,,,,,,,,,,,,,,,,,,,,,,,,,,,,,,,,,,,,,,,,,,,,,,,,,,,,,,,,,,,,,,,,,,,,,,,,,,,,,,,,,,,,,,
,,600916bb92179b5ecc406460,2024-02-18_20h13.15.308,kallum_motion_pilot,2023.2.2,Win32,74.62686567,600916bb92179b5ecc406460,65d2b6c8f2eece985d8e374c,65d2b9244c64ef8f4bd15951,0.0329,0.033,0,93,93,9,1,onethree,,,,,,,,,,,,,,,,,,,,,,,,,,,,,,,,,,,,,,,,,,,,,,,,,,,,,,,,,,,,,,,,,,,,,,,,,,,,,,,,,,,,,,,,,,,,,,,,,,,,,,,,,,,,,,,,,,,,,,,,,,,,,,,,,,,,,,,,,
,,600916bb92179b5ecc406460,2024-02-18_20h13.15.308,kallum_motion_pilot,2023.2.2,Win32,74.62686567,600916bb92179b5ecc406460,65d2b6c8f2eece985d8e374c,65d2b9244c64ef8f4bd15951,0.0331,0.0331,0,94,94,91,1,sixeight,,,,,,,,,,,,,,,,,,,,,,,,,,,,,,,,,,,,,,,,,,,,,,,,,,,,,,,,,,,,,,,,,,,,,,,,,,,,,,,,,,,,,,,,,,,,,,,,,,,,,,,,,,,,,,,,,,,,,,,,,,,,,,,,,,,,,,,,,
,,600916bb92179b5ecc406460,2024-02-18_20h13.15.308,kallum_motion_pilot,2023.2.2,Win32,74.62686567,600916bb92179b5ecc406460,65d2b6c8f2eece985d8e374c,65d2b9244c64ef8f4bd15951,0.0332,0.0333,0,95,95,57,1,onethree,,,,,,,,,,,,,,,,,,,,,,,,,,,,,,,,,,,,,,,,,,,,,,,,,,,,,,,,,,,,,,,,,,,,,,,,,,,,,,,,,,,,,,,,,,,,,,,,,,,,,,,,,,,,,,,,,,,,,,,,,,,,,,,,,,,,,,,,,
,,600916bb92179b5ecc406460,2024-02-18_20h13.15.308,kallum_motion_pilot,2023.2.2,Win32,74.62686567,600916bb92179b5ecc406460,65d2b6c8f2eece985d8e374c,65d2b9244c64ef8f4bd15951,0.0334,0.0334,0,96,96,46,1,fourtwo,,,,,,,,,,,,,,,,,,,,,,,,,,,,,,,,,,,,,,,,,,,,,,,,,,,,,,,,,,,,,,,,,,,,,,,,,,,,,,,,,,,,,,,,,,,,,,,,,,,,,,,,,,,,,,,,,,,,,,,,,,,,,,,,,,,,,,,,,
,,600916bb92179b5ecc406460,2024-02-18_20h13.15.308,kallum_motion_pilot,2023.2.2,Win32,74.62686567,600916bb92179b5ecc406460,65d2b6c8f2eece985d8e374c,65d2b9244c64ef8f4bd15951,0.0335,0.0335,0,97,97,83,1,sixeight,,,,,,,,,,,,,,,,,,,,,,,,,,,,,,,,,,,,,,,,,,,,,,,,,,,,,,,,,,,,,,,,,,,,,,,,,,,,,,,,,,,,,,,,,,,,,,,,,,,,,,,,,,,,,,,,,,,,,,,,,,,,,,,,,,,,,,,,,
,,600916bb92179b5ecc406460,2024-02-18_20h13.15.308,kallum_motion_pilot,2023.2.2,Win32,74.62686567,600916bb92179b5ecc406460,65d2b6c8f2eece985d8e374c,65d2b9244c64ef8f4bd15951,0.0336,0.0337,0,98,98,63,1,fourthree,,,,,,,,,,,,,,,,,,,,,,,,,,,,,,,,,,,,,,,,,,,,,,,,,,,,,,,,,,,,,,,,,,,,,,,,,,,,,,,,,,,,,,,,,,,,,,,,,,,,,,,,,,,,,,,,,,,,,,,,,,,,,,,,,,,,,,,,,
,,600916bb92179b5ecc406460,2024-02-18_20h13.15.308,kallum_motion_pilot,2023.2.2,Win32,74.62686567,600916bb92179b5ecc406460,65d2b6c8f2eece985d8e374c,65d2b9244c64ef8f4bd15951,0.0337,0.0339,0,99,99,135,1,eightseven,,,,,,,,,,,,,,,,,,,,,,,,,,,,,,,,,,,,,,,,,,,,,,,,,,,,,,,,,,,,,,,,,,,,,,,,,,,,,,,,,,,,,,,,,,,,,,,,,,,,,,,,,,,,,,,,,,,,,,,,,,,,,,,,,,,,,,,,,
,,600916bb92179b5ecc406460,2024-02-18_20h13.15.308,kallum_motion_pilot,2023.2.2,Win32,74.62686567,600916bb92179b5ecc406460,65d2b6c8f2eece985d8e374c,65d2b9244c64ef8f4bd15951,0.0339,0.0339,0,100,100,80,1,fivesix,,,,,,,,,,,,,,,,,,,,,,,,,,,,,,,,,,,,,,,,,,,,,,,,,,,,,,,,,,,,,,,,,,,,,,,,,,,,,,,,,,,,,,,,,,,,,,,,,,,,,,,,,,,,,,,,,,,,,,,,,,,,,,,,,,,,,,,,,
,,600916bb92179b5ecc406460,2024-02-18_20h13.15.308,kallum_motion_pilot,2023.2.2,Win32,74.62686567,600916bb92179b5ecc406460,65d2b6c8f2eece985d8e374c,65d2b9244c64ef8f4bd15951,0.0341,0.0341,0,101,101,139,1,sixeight,,,,,,,,,,,,,,,,,,,,,,,,,,,,,,,,,,,,,,,,,,,,,,,,,,,,,,,,,,,,,,,,,,,,,,,,,,,,,,,,,,,,,,,,,,,,,,,,,,,,,,,,,,,,,,,,,,,,,,,,,,,,,,,,,,,,,,,,,
,,600916bb92179b5ecc406460,2024-02-18_20h13.15.308,kallum_motion_pilot,2023.2.2,Win32,74.62686567,600916bb92179b5ecc406460,65d2b6c8f2eece985d8e374c,65d2b9244c64ef8f4bd15951,0.0342,0.0342,0,102,102,28,1,threeone,,,,,,,,,,,,,,,,,,,,,,,,,,,,,,,,,,,,,,,,,,,,,,,,,,,,,,,,,,,,,,,,,,,,,,,,,,,,,,,,,,,,,,,,,,,,,,,,,,,,,,,,,,,,,,,,,,,,,,,,,,,,,,,,,,,,,,,,,
,,600916bb92179b5ecc406460,2024-02-18_20h13.15.308,kallum_motion_pilot,2023.2.2,Win32,74.62686567,600916bb92179b5ecc406460,65d2b6c8f2eece985d8e374c,65d2b9244c64ef8f4bd15951,0.0343,0.0343,0,103,103,128,1,fivesix,,,,,,,,,,,,,,,,,,,,,,,,,,,,,,,,,,,,,,,,,,,,,,,,,,,,,,,,,,,,,,,,,,,,,,,,,,,,,,,,,,,,,,,,,,,,,,,,,,,,,,,,,,,,,,,,,,,,,,,,,,,,,,,,,,,,,,,,,
,,600916bb92179b5ecc406460,2024-02-18_20h13.15.308,kallum_motion_pilot,2023.2.2,Win32,74.62686567,600916bb92179b5ecc406460,65d2b6c8f2eece985d8e374c,65d2b9244c64ef8f4bd15951,0.0345,0.0345,0,104,104,76,1,threeone,,,,,,,,,,,,,,,,,,,,,,,,,,,,,,,,,,,,,,,,,,,,,,,,,,,,,,,,,,,,,,,,,,,,,,,,,,,,,,,,,,,,,,,,,,,,,,,,,,,,,,,,,,,,,,,,,,,,,,,,,,,,,,,,,,,,,,,,,
,,600916bb92179b5ecc406460,2024-02-18_20h13.15.308,kallum_motion_pilot,2023.2.2,Win32,74.62686567,600916bb92179b5ecc406460,65d2b6c8f2eece985d8e374c,65d2b9244c64ef8f4bd15951,0.0346,0.0347,0,105,105,7,1,fourthree,,,,,,,,,,,,,,,,,,,,,,,,,,,,,,,,,,,,,,,,,,,,,,,,,,,,,,,,,,,,,,,,,,,,,,,,,,,,,,,,,,,,,,,,,,,,,,,,,,,,,,,,,,,,,,,,,,,,,,,,,,,,,,,,,,,,,,,,,
,,600916bb92179b5ecc406460,2024-02-18_20h13.15.308,kallum_motion_pilot,2023.2.2,Win32,74.62686567,600916bb92179b5ecc406460,65d2b6c8f2eece985d8e374c,65d2b9244c64ef8f4bd15951,0.0347,0.0348,0,106,106,48,1,onetwo,,,,,,,,,,,,,,,,,,,,,,,,,,,,,,,,,,,,,,,,,,,,,,,,,,,,,,,,,,,,,,,,,,,,,,,,,,,,,,,,,,,,,,,,,,,,,,,,,,,,,,,,,,,,,,,,,,,,,,,,,,,,,,,,,,,,,,,,,
,,600916bb92179b5ecc406460,2024-02-18_20h13.15.308,kallum_motion_pilot,2023.2.2,Win32,74.62686567,600916bb92179b5ecc406460,65d2b6c8f2eece985d8e374c,65d2b9244c64ef8f4bd15951,0.0348,0.0349,0,107,107,113,1,fiveseven,,,,,,,,,,,,,,,,,,,,,,,,,,,,,,,,,,,,,,,,,,,,,,,,,,,,,,,,,,,,,,,,,,,,,,,,,,,,,,,,,,,,,,,,,,,,,,,,,,,,,,,,,,,,,,,,,,,,,,,,,,,,,,,,,,,,,,,,,
,,600916bb92179b5ecc406460,2024-02-18_20h13.15.308,kallum_motion_pilot,2023.2.2,Win32,74.62686567,600916bb92179b5ecc406460,65d2b6c8f2eece985d8e374c,65d2b9244c64ef8f4bd15951,0.035,0.035,0,108,108,51,1,twofour,,,,,,,,,,,,,,,,,,,,,,,,,,,,,,,,,,,,,,,,,,,,,,,,,,,,,,,,,,,,,,,,,,,,,,,,,,,,,,,,,,,,,,,,,,,,,,,,,,,,,,,,,,,,,,,,,,,,,,,,,,,,,,,,,,,,,,,,,
,,600916bb92179b5ecc406460,2024-02-18_20h13.15.308,kallum_motion_pilot,2023.2.2,Win32,74.62686567,600916bb92179b5ecc406460,65d2b6c8f2eece985d8e374c,65d2b9244c64ef8f4bd15951,0.0352,0.0352,0,109,109,56,1,onetwo,,,,,,,,,,,,,,,,,,,,,,,,,,,,,,,,,,,,,,,,,,,,,,,,,,,,,,,,,,,,,,,,,,,,,,,,,,,,,,,,,,,,,,,,,,,,,,,,,,,,,,,,,,,,,,,,,,,,,,,,,,,,,,,,,,,,,,,,,
,,600916bb92179b5ecc406460,2024-02-18_20h13.15.308,kallum_motion_pilot,2023.2.2,Win32,74.62686567,600916bb92179b5ecc406460,65d2b6c8f2eece985d8e374c,65d2b9244c64ef8f4bd15951,0.0353,0.0353,0,110,110,13,1,threefour,,,,,,,,,,,,,,,,,,,,,,,,,,,,,,,,,,,,,,,,,,,,,,,,,,,,,,,,,,,,,,,,,,,,,,,,,,,,,,,,,,,,,,,,,,,,,,,,,,,,,,,,,,,,,,,,,,,,,,,,,,,,,,,,,,,,,,,,,
,,600916bb92179b5ecc406460,2024-02-18_20h13.15.308,kallum_motion_pilot,2023.2.2,Win32,74.62686567,600916bb92179b5ecc406460,65d2b6c8f2eece985d8e374c,65d2b9244c64ef8f4bd15951,0.0354,0.0374,0,111,111,120,1,fivesix,,,,,,,,,,,,,,,,,,,,,,,,,,,,,,,,,,,,,,,,,,,,,,,,,,,,,,,,,,,,,,,,,,,,,,,,,,,,,,,,,,,,,,,,,,,,,,,,,,,,,,,,,,,,,,,,,,,,,,,,,,,,,,,,,,,,,,,,,
,,600916bb92179b5ecc406460,2024-02-18_20h13.15.308,kallum_motion_pilot,2023.2.2,Win32,74.62686567,600916bb92179b5ecc406460,65d2b6c8f2eece985d8e374c,65d2b9244c64ef8f4bd15951,0.0376,0.0376,0,112,112,81,1,fiveseven,,,,,,,,,,,,,,,,,,,,,,,,,,,,,,,,,,,,,,,,,,,,,,,,,,,,,,,,,,,,,,,,,,,,,,,,,,,,,,,,,,,,,,,,,,,,,,,,,,,,,,,,,,,,,,,,,,,,,,,,,,,,,,,,,,,,,,,,,
,,600916bb92179b5ecc406460,2024-02-18_20h13.15.308,kallum_motion_pilot,2023.2.2,Win32,74.62686567,600916bb92179b5ecc406460,65d2b6c8f2eece985d8e374c,65d2b9244c64ef8f4bd15951,0.0377,0.0378,0,113,113,134,1,eightsix,,,,,,,,,,,,,,,,,,,,,,,,,,,,,,,,,,,,,,,,,,,,,,,,,,,,,,,,,,,,,,,,,,,,,,,,,,,,,,,,,,,,,,,,,,,,,,,,,,,,,,,,,,,,,,,,,,,,,,,,,,,,,,,,,,,,,,,,,
,,600916bb92179b5ecc406460,2024-02-18_20h13.15.308,kallum_motion_pilot,2023.2.2,Win32,74.62686567,600916bb92179b5ecc406460,65d2b6c8f2eece985d8e374c,65d2b9244c64ef8f4bd15951,0.0378,0.0379,0,114,114,142,1,eightsix,,,,,,,,,,,,,,,,,,,,,,,,,,,,,,,,,,,,,,,,,,,,,,,,,,,,,,,,,,,,,,,,,,,,,,,,,,,,,,,,,,,,,,,,,,,,,,,,,,,,,,,,,,,,,,,,,,,,,,,,,,,,,,,,,,,,,,,,,
,,600916bb92179b5ecc406460,2024-02-18_20h13.15.308,kallum_motion_pilot,2023.2.2,Win32,74.62686567,600916bb92179b5ecc406460,65d2b6c8f2eece985d8e374c,65d2b9244c64ef8f4bd15951,0.0379,0.038,0,115,115,24,1,onetwo,,,,,,,,,,,,,,,,,,,,,,,,,,,,,,,,,,,,,,,,,,,,,,,,,,,,,,,,,,,,,,,,,,,,,,,,,,,,,,,,,,,,,,,,,,,,,,,,,,,,,,,,,,,,,,,,,,,,,,,,,,,,,,,,,,,,,,,,,
,,600916bb92179b5ecc406460,2024-02-18_20h13.15.308,kallum_motion_pilot,2023.2.2,Win32,74.62686567,600916bb92179b5ecc406460,65d2b6c8f2eece985d8e374c,65d2b9244c64ef8f4bd15951,0.0381,0.0381,0,116,116,156,1,sevenfive,,,,,,,,,,,,,,,,,,,,,,,,,,,,,,,,,,,,,,,,,,,,,,,,,,,,,,,,,,,,,,,,,,,,,,,,,,,,,,,,,,,,,,,,,,,,,,,,,,,,,,,,,,,,,,,,,,,,,,,,,,,,,,,,,,,,,,,,,
,,600916bb92179b5ecc406460,2024-02-18_20h13.15.308,kallum_motion_pilot,2023.2.2,Win32,74.62686567,600916bb92179b5ecc406460,65d2b6c8f2eece985d8e374c,65d2b9244c64ef8f4bd15951,0.0382,0.0382,0,117,117,18,1,twoone,,,,,,,,,,,,,,,,,,,,,,,,,,,,,,,,,,,,,,,,,,,,,,,,,,,,,,,,,,,,,,,,,,,,,,,,,,,,,,,,,,,,,,,,,,,,,,,,,,,,,,,,,,,,,,,,,,,,,,,,,,,,,,,,,,,,,,,,,
,,600916bb92179b5ecc406460,2024-02-18_20h13.15.308,kallum_motion_pilot,2023.2.2,Win32,74.62686567,600916bb92179b5ecc406460,65d2b6c8f2eece985d8e374c,65d2b9244c64ef8f4bd15951,0.0383,0.0383,0,118,118,44,1,threeone,,,,,,,,,,,,,,,,,,,,,,,,,,,,,,,,,,,,,,,,,,,,,,,,,,,,,,,,,,,,,,,,,,,,,,,,,,,,,,,,,,,,,,,,,,,,,,,,,,,,,,,,,,,,,,,,,,,,,,,,,,,,,,,,,,,,,,,,,
,,600916bb92179b5ecc406460,2024-02-18_20h13.15.308,kallum_motion_pilot,2023.2.2,Win32,74.62686567,600916bb92179b5ecc406460,65d2b6c8f2eece985d8e374c,65d2b9244c64ef8f4bd15951,0.0384,0.0384,0,119,119,61,1,threefour,,,,,,,,,,,,,,,,,,,,,,,,,,,,,,,,,,,,,,,,,,,,,,,,,,,,,,,,,,,,,,,,,,,,,,,,,,,,,,,,,,,,,,,,,,,,,,,,,,,,,,,,,,,,,,,,,,,,,,,,,,,,,,,,,,,,,,,,,
,,600916bb92179b5ecc406460,2024-02-18_20h13.15.308,kallum_motion_pilot,2023.2.2,Win32,74.62686567,600916bb92179b5ecc406460,65d2b6c8f2eece985d8e374c,65d2b9244c64ef8f4bd15951,0.0385,0.0385,0,120,120,140,1,sevenfive,,,,,,,,,,,,,,,,,,,,,,,,,,,,,,,,,,,,,,,,,,,,,,,,,,,,,,,,,,,,,,,,,,,,,,,,,,,,,,,,,,,,,,,,,,,,,,,,,,,,,,,,,,,,,,,,,,,,,,,,,,,,,,,,,,,,,,,,,
,,600916bb92179b5ecc406460,2024-02-18_20h13.15.308,kallum_motion_pilot,2023.2.2,Win32,74.62686567,600916bb92179b5ecc406460,65d2b6c8f2eece985d8e374c,65d2b9244c64ef8f4bd15951,0.0386,0.0386,0,121,121,71,1,fourthree,,,,,,,,,,,,,,,,,,,,,,,,,,,,,,,,,,,,,,,,,,,,,,,,,,,,,,,,,,,,,,,,,,,,,,,,,,,,,,,,,,,,,,,,,,,,,,,,,,,,,,,,,,,,,,,,,,,,,,,,,,,,,,,,,,,,,,,,,
,,600916bb92179b5ecc406460,2024-02-18_20h13.15.308,kallum_motion_pilot,2023.2.2,Win32,74.62686567,600916bb92179b5ecc406460,65d2b6c8f2eece985d8e374c,65d2b9244c64ef8f4bd15951,0.0387,0.0388,0,122,122,49,1,onethree,,,,,,,,,,,,,,,,,,,,,,,,,,,,,,,,,,,,,,,,,,,,,,,,,,,,,,,,,,,,,,,,,,,,,,,,,,,,,,,,,,,,,,,,,,,,,,,,,,,,,,,,,,,,,,,,,,,,,,,,,,,,,,,,,,,,,,,,,
,,600916bb92179b5ecc406460,2024-02-18_20h13.15.308,kallum_motion_pilot,2023.2.2,Win32,74.62686567,600916bb92179b5ecc406460,65d2b6c8f2eece985d8e374c,65d2b9244c64ef8f4bd15951,0.0388,0.0388,0,123,123,75,1,twofour,,,,,,,,,,,,,,,,,,,,,,,,,,,,,,,,,,,,,,,,,,,,,,,,,,,,,,,,,,,,,,,,,,,,,,,,,,,,,,,,,,,,,,,,,,,,,,,,,,,,,,,,,,,,,,,,,,,,,,,,,,,,,,,,,,,,,,,,,
,,600916bb92179b5ecc406460,2024-02-18_20h13.15.308,kallum_motion_pilot,2023.2.2,Win32,74.62686567,600916bb92179b5ecc406460,65d2b6c8f2eece985d8e374c,65d2b9244c64ef8f4bd15951,0.0389,0.0389,0,124,124,109,1,seveneight,,,,,,,,,,,,,,,,,,,,,,,,,,,,,,,,,,,,,,,,,,,,,,,,,,,,,,,,,,,,,,,,,,,,,,,,,,,,,,,,,,,,,,,,,,,,,,,,,,,,,,,,,,,,,,,,,,,,,,,,,,,,,,,,,,,,,,,,,
,,600916bb92179b5ecc406460,2024-02-18_20h13.15.308,kallum_motion_pilot,2023.2.2,Win32,74.62686567,600916bb92179b5ecc406460,65d2b6c8f2eece985d8e374c,65d2b9244c64ef8f4bd15951,0.0389,0.039,0,125,125,85,1,seveneight,,,,,,,,,,,,,,,,,,,,,,,,,,,,,,,,,,,,,,,,,,,,,,,,,,,,,,,,,,,,,,,,,,,,,,,,,,,,,,,,,,,,,,,,,,,,,,,,,,,,,,,,,,,,,,,,,,,,,,,,,,,,,,,,,,,,,,,,,
,,600916bb92179b5ecc406460,2024-02-18_20h13.15.308,kallum_motion_pilot,2023.2.2,Win32,74.62686567,600916bb92179b5ecc406460,65d2b6c8f2eece985d8e374c,65d2b9244c64ef8f4bd15951,0.039,0.0391,0,126,126,6,1,fourtwo,,,,,,,,,,,,,,,,,,,,,,,,,,,,,,,,,,,,,,,,,,,,,,,,,,,,,,,,,,,,,,,,,,,,,,,,,,,,,,,,,,,,,,,,,,,,,,,,,,,,,,,,,,,,,,,,,,,,,,,,,,,,,,,,,,,,,,,,,
,,600916bb92179b5ecc406460,2024-02-18_20h13.15.308,kallum_motion_pilot,2023.2.2,Win32,74.62686567,600916bb92179b5ecc406460,65d2b6c8f2eece985d8e374c,65d2b9244c64ef8f4bd15951,0.0392,0.0392,0,127,127,116,1,sevenfive,,,,,,,,,,,,,,,,,,,,,,,,,,,,,,,,,,,,,,,,,,,,,,,,,,,,,,,,,,,,,,,,,,,,,,,,,,,,,,,,,,,,,,,,,,,,,,,,,,,,,,,,,,,,,,,,,,,,,,,,,,,,,,,,,,,,,,,,,
,,600916bb92179b5ecc406460,2024-02-18_20h13.15.308,kallum_motion_pilot,2023.2.2,Win32,74.62686567,600916bb92179b5ecc406460,65d2b6c8f2eece985d8e374c,65d2b9244c64ef8f4bd15951,0.0392,0.0393,0,128,128,43,1,twofour,,,,,,,,,,,,,,,,,,,,,,,,,,,,,,,,,,,,,,,,,,,,,,,,,,,,,,,,,,,,,,,,,,,,,,,,,,,,,,,,,,,,,,,,,,,,,,,,,,,,,,,,,,,,,,,,,,,,,,,,,,,,,,,,,,,,,,,,,
,,600916bb92179b5ecc406460,2024-02-18_20h13.15.308,kallum_motion_pilot,2023.2.2,Win32,74.62686567,600916bb92179b5ecc406460,65d2b6c8f2eece985d8e374c,65d2b9244c64ef8f4bd15951,0.0393,0.0394,0,129,129,112,1,fivesix,,,,,,,,,,,,,,,,,,,,,,,,,,,,,,,,,,,,,,,,,,,,,,,,,,,,,,,,,,,,,,,,,,,,,,,,,,,,,,,,,,,,,,,,,,,,,,,,,,,,,,,,,,,,,,,,,,,,,,,,,,,,,,,,,,,,,,,,,
,,600916bb92179b5ecc406460,2024-02-18_20h13.15.308,kallum_motion_pilot,2023.2.2,Win32,74.62686567,600916bb92179b5ecc406460,65d2b6c8f2eece985d8e374c,65d2b9244c64ef8f4bd15951,0.0395,0.0395,0,130,130,152,1,fivesix,,,,,,,,,,,,,,,,,,,,,,,,,,,,,,,,,,,,,,,,,,,,,,,,,,,,,,,,,,,,,,,,,,,,,,,,,,,,,,,,,,,,,,,,,,,,,,,,,,,,,,,,,,,,,,,,,,,,,,,,,,,,,,,,,,,,,,,,,
,,600916bb92179b5ecc406460,2024-02-18_20h13.15.308,kallum_motion_pilot,2023.2.2,Win32,74.62686567,600916bb92179b5ecc406460,65d2b6c8f2eece985d8e374c,65d2b9244c64ef8f4bd15951,0.0395,0.0395,0,131,131,40,1,onetwo,,,,,,,,,,,,,,,,,,,,,,,,,,,,,,,,,,,,,,,,,,,,,,,,,,,,,,,,,,,,,,,,,,,,,,,,,,,,,,,,,,,,,,,,,,,,,,,,,,,,,,,,,,,,,,,,,,,,,,,,,,,,,,,,,,,,,,,,,
,,600916bb92179b5ecc406460,2024-02-18_20h13.15.308,kallum_motion_pilot,2023.2.2,Win32,74.62686567,600916bb92179b5ecc406460,65d2b6c8f2eece985d8e374c,65d2b9244c64ef8f4bd15951,0.0397,0.0397,0,132,132,41,1,onethree,,,,,,,,,,,,,,,,,,,,,,,,,,,,,,,,,,,,,,,,,,,,,,,,,,,,,,,,,,,,,,,,,,,,,,,,,,,,,,,,,,,,,,,,,,,,,,,,,,,,,,,,,,,,,,,,,,,,,,,,,,,,,,,,,,,,,,,,,
,,600916bb92179b5ecc406460,2024-02-18_20h13.15.308,kallum_motion_pilot,2023.2.2,Win32,74.62686567,600916bb92179b5ecc406460,65d2b6c8f2eece985d8e374c,65d2b9244c64ef8f4bd15951,0.0397,0.0398,0,133,133,64,1,onetwo,,,,,,,,,,,,,,,,,,,,,,,,,,,,,,,,,,,,,,,,,,,,,,,,,,,,,,,,,,,,,,,,,,,,,,,,,,,,,,,,,,,,,,,,,,,,,,,,,,,,,,,,,,,,,,,,,,,,,,,,,,,,,,,,,,,,,,,,,
,,600916bb92179b5ecc406460,2024-02-18_20h13.15.308,kallum_motion_pilot,2023.2.2,Win32,74.62686567,600916bb92179b5ecc406460,65d2b6c8f2eece985d8e374c,65d2b9244c64ef8f4bd15951,0.0398,0.0399,0,134,134,157,1,seveneight,,,,,,,,,,,,,,,,,,,,,,,,,,,,,,,,,,,,,,,,,,,,,,,,,,,,,,,,,,,,,,,,,,,,,,,,,,,,,,,,,,,,,,,,,,,,,,,,,,,,,,,,,,,,,,,,,,,,,,,,,,,,,,,,,,,,,,,,,
,,600916bb92179b5ecc406460,2024-02-18_20h13.15.308,kallum_motion_pilot,2023.2.2,Win32,74.62686567,600916bb92179b5ecc406460,65d2b6c8f2eece985d8e374c,65d2b9244c64ef8f4bd15951,0.0399,0.0399,0,135,135,78,1,fourtwo,,,,,,,,,,,,,,,,,,,,,,,,,,,,,,,,,,,,,,,,,,,,,,,,,,,,,,,,,,,,,,,,,,,,,,,,,,,,,,,,,,,,,,,,,,,,,,,,,,,,,,,,,,,,,,,,,,,,,,,,,,,,,,,,,,,,,,,,,
,,600916bb92179b5ecc406460,2024-02-18_20h13.15.308,kallum_motion_pilot,2023.2.2,Win32,74.62686567,600916bb92179b5ecc406460,65d2b6c8f2eece985d8e374c,65d2b9244c64ef8f4bd15951,0.04,0.04,0,136,136,68,1,threeone,,,,,,,,,,,,,,,,,,,,,,,,,,,,,,,,,,,,,,,,,,,,,,,,,,,,,,,,,,,,,,,,,,,,,,,,,,,,,,,,,,,,,,,,,,,,,,,,,,,,,,,,,,,,,,,,,,,,,,,,,,,,,,,,,,,,,,,,,
,,600916bb92179b5ecc406460,2024-02-18_20h13.15.308,kallum_motion_pilot,2023.2.2,Win32,74.62686567,600916bb92179b5ecc406460,65d2b6c8f2eece985d8e374c,65d2b9244c64ef8f4bd15951,0.04,0.0401,0,137,137,151,1,eightseven,,,,,,,,,,,,,,,,,,,,,,,,,,,,,,,,,,,,,,,,,,,,,,,,,,,,,,,,,,,,,,,,,,,,,,,,,,,,,,,,,,,,,,,,,,,,,,,,,,,,,,,,,,,,,,,,,,,,,,,,,,,,,,,,,,,,,,,,,
,,600916bb92179b5ecc406460,2024-02-18_20h13.15.308,kallum_motion_pilot,2023.2.2,Win32,74.62686567,600916bb92179b5ecc406460,65d2b6c8f2eece985d8e374c,65d2b9244c64ef8f4bd15951,0.0401,0.0402,0,138,138,82,1,sixfive,,,,,,,,,,,,,,,,,,,,,,,,,,,,,,,,,,,,,,,,,,,,,,,,,,,,,,,,,,,,,,,,,,,,,,,,,,,,,,,,,,,,,,,,,,,,,,,,,,,,,,,,,,,,,,,,,,,,,,,,,,,,,,,,,,,,,,,,,
,,600916bb92179b5ecc406460,2024-02-18_20h13.15.308,kallum_motion_pilot,2023.2.2,Win32,74.62686567,600916bb92179b5ecc406460,65d2b6c8f2eece985d8e374c,65d2b9244c64ef8f4bd15951,0.0402,0.0403,0,139,139,79,1,eightseven,,,,,,,,,,,,,,,,,,,,,,,,,,,,,,,,,,,,,,,,,,,,,,,,,,,,,,,,,,,,,,,,,,,,,,,,,,,,,,,,,,,,,,,,,,,,,,,,,,,,,,,,,,,,,,,,,,,,,,,,,,,,,,,,,,,,,,,,,
,,600916bb92179b5ecc406460,2024-02-18_20h13.15.308,kallum_motion_pilot,2023.2.2,Win32,74.62686567,600916bb92179b5ecc406460,65d2b6c8f2eece985d8e374c,65d2b9244c64ef8f4bd15951,0.0403,0.0404,0,140,140,8,1,onetwo,,,,,,,,,,,,,,,,,,,,,,,,,,,,,,,,,,,,,,,,,,,,,,,,,,,,,,,,,,,,,,,,,,,,,,,,,,,,,,,,,,,,,,,,,,,,,,,,,,,,,,,,,,,,,,,,,,,,,,,,,,,,,,,,,,,,,,,,,
,,600916bb92179b5ecc406460,2024-02-18_20h13.15.308,kallum_motion_pilot,2023.2.2,Win32,74.62686567,600916bb92179b5ecc406460,65d2b6c8f2eece985d8e374c,65d2b9244c64ef8f4bd15951,0.0404,0.0405,0,141,141,22,1,fourtwo,,,,,,,,,,,,,,,,,,,,,,,,,,,,,,,,,,,,,,,,,,,,,,,,,,,,,,,,,,,,,,,,,,,,,,,,,,,,,,,,,,,,,,,,,,,,,,,,,,,,,,,,,,,,,,,,,,,,,,,,,,,,,,,,,,,,,,,,,
,,600916bb92179b5ecc406460,2024-02-18_20h13.15.308,kallum_motion_pilot,2023.2.2,Win32,74.62686567,600916bb92179b5ecc406460,65d2b6c8f2eece985d8e374c,65d2b9244c64ef8f4bd15951,0.0406,0.0406,0,142,142,150,1,eightsix,,,,,,,,,,,,,,,,,,,,,,,,,,,,,,,,,,,,,,,,,,,,,,,,,,,,,,,,,,,,,,,,,,,,,,,,,,,,,,,,,,,,,,,,,,,,,,,,,,,,,,,,,,,,,,,,,,,,,,,,,,,,,,,,,,,,,,,,,
,,600916bb92179b5ecc406460,2024-02-18_20h13.15.308,kallum_motion_pilot,2023.2.2,Win32,74.62686567,600916bb92179b5ecc406460,65d2b6c8f2eece985d8e374c,65d2b9244c64ef8f4bd15951,0.0406,0.0407,0,143,143,136,1,fivesix,,,,,,,,,,,,,,,,,,,,,,,,,,,,,,,,,,,,,,,,,,,,,,,,,,,,,,,,,,,,,,,,,,,,,,,,,,,,,,,,,,,,,,,,,,,,,,,,,,,,,,,,,,,,,,,,,,,,,,,,,,,,,,,,,,,,,,,,,
,,600916bb92179b5ecc406460,2024-02-18_20h13.15.308,kallum_motion_pilot,2023.2.2,Win32,74.62686567,600916bb92179b5ecc406460,65d2b6c8f2eece985d8e374c,65d2b9244c64ef8f4bd15951,0.0407,0.0407,0,144,144,138,1,sixfive,,,,,,,,,,,,,,,,,,,,,,,,,,,,,,,,,,,,,,,,,,,,,,,,,,,,,,,,,,,,,,,,,,,,,,,,,,,,,,,,,,,,,,,,,,,,,,,,,,,,,,,,,,,,,,,,,,,,,,,,,,,,,,,,,,,,,,,,,
,,600916bb92179b5ecc406460,2024-02-18_20h13.15.308,kallum_motion_pilot,2023.2.2,Win32,74.62686567,600916bb92179b5ecc406460,65d2b6c8f2eece985d8e374c,65d2b9244c64ef8f4bd15951,0.0408,0.0409,0,145,145,87,1,eightseven,,,,,,,,,,,,,,,,,,,,,,,,,,,,,,,,,,,,,,,,,,,,,,,,,,,,,,,,,,,,,,,,,,,,,,,,,,,,,,,,,,,,,,,,,,,,,,,,,,,,,,,,,,,,,,,,,,,,,,,,,,,,,,,,,,,,,,,,,
,,600916bb92179b5ecc406460,2024-02-18_20h13.15.308,kallum_motion_pilot,2023.2.2,Win32,74.62686567,600916bb92179b5ecc406460,65d2b6c8f2eece985d8e374c,65d2b9244c64ef8f4bd15951,0.0409,0.041,0,146,146,155,1,sixeight,,,,,,,,,,,,,,,,,,,,,,,,,,,,,,,,,,,,,,,,,,,,,,,,,,,,,,,,,,,,,,,,,,,,,,,,,,,,,,,,,,,,,,,,,,,,,,,,,,,,,,,,,,,,,,,,,,,,,,,,,,,,,,,,,,,,,,,,,
,,600916bb92179b5ecc406460,2024-02-18_20h13.15.308,kallum_motion_pilot,2023.2.2,Win32,74.62686567,600916bb92179b5ecc406460,65d2b6c8f2eece985d8e374c,65d2b9244c64ef8f4bd15951,0.041,0.0411,0,147,147,59,1,twofour,,,,,,,,,,,,,,,,,,,,,,,,,,,,,,,,,,,,,,,,,,,,,,,,,,,,,,,,,,,,,,,,,,,,,,,,,,,,,,,,,,,,,,,,,,,,,,,,,,,,,,,,,,,,,,,,,,,,,,,,,,,,,,,,,,,,,,,,,
,,600916bb92179b5ecc406460,2024-02-18_20h13.15.308,kallum_motion_pilot,2023.2.2,Win32,74.62686567,600916bb92179b5ecc406460,65d2b6c8f2eece985d8e374c,65d2b9244c64ef8f4bd15951,0.0411,0.0412,0,148,148,73,1,onethree,,,,,,,,,,,,,,,,,,,,,,,,,,,,,,,,,,,,,,,,,,,,,,,,,,,,,,,,,,,,,,,,,,,,,,,,,,,,,,,,,,,,,,,,,,,,,,,,,,,,,,,,,,,,,,,,,,,,,,,,,,,,,,,,,,,,,,,,,
,,600916bb92179b5ecc406460,2024-02-18_20h13.15.308,kallum_motion_pilot,2023.2.2,Win32,74.62686567,600916bb92179b5ecc406460,65d2b6c8f2eece985d8e374c,65d2b9244c64ef8f4bd15951,0.0412,0.0413,0,149,149,50,1,twoone,,,,,,,,,,,,,,,,,,,,,,,,,,,,,,,,,,,,,,,,,,,,,,,,,,,,,,,,,,,,,,,,,,,,,,,,,,,,,,,,,,,,,,,,,,,,,,,,,,,,,,,,,,,,,,,,,,,,,,,,,,,,,,,,,,,,,,,,,
,,600916bb92179b5ecc406460,2024-02-18_20h13.15.308,kallum_motion_pilot,2023.2.2,Win32,74.62686567,600916bb92179b5ecc406460,65d2b6c8f2eece985d8e374c,65d2b9244c64ef8f4bd15951,0.0414,0.0414,0,150,150,58,1,twoone,,,,,,,,,,,,,,,,,,,,,,,,,,,,,,,,,,,,,,,,,,,,,,,,,,,,,,,,,,,,,,,,,,,,,,,,,,,,,,,,,,,,,,,,,,,,,,,,,,,,,,,,,,,,,,,,,,,,,,,,,,,,,,,,,,,,,,,,,
,,600916bb92179b5ecc406460,2024-02-18_20h13.15.308,kallum_motion_pilot,2023.2.2,Win32,74.62686567,600916bb92179b5ecc406460,65d2b6c8f2eece985d8e374c,65d2b9244c64ef8f4bd15951,0.0416,0.0416,0,151,151,67,1,twofour,,,,,,,,,,,,,,,,,,,,,,,,,,,,,,,,,,,,,,,,,,,,,,,,,,,,,,,,,,,,,,,,,,,,,,,,,,,,,,,,,,,,,,,,,,,,,,,,,,,,,,,,,,,,,,,,,,,,,,,,,,,,,,,,,,,,,,,,,
,,600916bb92179b5ecc406460,2024-02-18_20h13.15.308,kallum_motion_pilot,2023.2.2,Win32,74.62686567,600916bb92179b5ecc406460,65d2b6c8f2eece985d8e374c,65d2b9244c64ef8f4bd15951,0.0416,0.0417,0,152,152,93,1,seveneight,,,,,,,,,,,,,,,,,,,,,,,,,,,,,,,,,,,,,,,,,,,,,,,,,,,,,,,,,,,,,,,,,,,,,,,,,,,,,,,,,,,,,,,,,,,,,,,,,,,,,,,,,,,,,,,,,,,,,,,,,,,,,,,,,,,,,,,,,
,,600916bb92179b5ecc406460,2024-02-18_20h13.15.308,kallum_motion_pilot,2023.2.2,Win32,74.62686567,600916bb92179b5ecc406460,65d2b6c8f2eece985d8e374c,65d2b9244c64ef8f4bd15951,0.0418,0.0419,0,153,153,30,1,fourtwo,,,,,,,,,,,,,,,,,,,,,,,,,,,,,,,,,,,,,,,,,,,,,,,,,,,,,,,,,,,,,,,,,,,,,,,,,,,,,,,,,,,,,,,,,,,,,,,,,,,,,,,,,,,,,,,,,,,,,,,,,,,,,,,,,,,,,,,,,
,,600916bb92179b5ecc406460,2024-02-18_20h13.15.308,kallum_motion_pilot,2023.2.2,Win32,74.62686567,600916bb92179b5ecc406460,65d2b6c8f2eece985d8e374c,65d2b9244c64ef8f4bd15951,0.0419,0.042,0,154,154,103,1,eightseven,,,,,,,,,,,,,,,,,,,,,,,,,,,,,,,,,,,,,,,,,,,,,,,,,,,,,,,,,,,,,,,,,,,,,,,,,,,,,,,,,,,,,,,,,,,,,,,,,,,,,,,,,,,,,,,,,,,,,,,,,,,,,,,,,,,,,,,,,
,,600916bb92179b5ecc406460,2024-02-18_20h13.15.308,kallum_motion_pilot,2023.2.2,Win32,74.62686567,600916bb92179b5ecc406460,65d2b6c8f2eece985d8e374c,65d2b9244c64ef8f4bd15951,0.0421,0.0422,0,155,155,36,1,threeone,,,,,,,,,,,,,,,,,,,,,,,,,,,,,,,,,,,,,,,,,,,,,,,,,,,,,,,,,,,,,,,,,,,,,,,,,,,,,,,,,,,,,,,,,,,,,,,,,,,,,,,,,,,,,,,,,,,,,,,,,,,,,,,,,,,,,,,,,
,,600916bb92179b5ecc406460,2024-02-18_20h13.15.308,kallum_motion_pilot,2023.2.2,Win32,74.62686567,600916bb92179b5ecc406460,65d2b6c8f2eece985d8e374c,65d2b9244c64ef8f4bd15951,0.0423,0.0423,0,156,156,32,1,onetwo,,,,,,,,,,,,,,,,,,,,,,,,,,,,,,,,,,,,,,,,,,,,,,,,,,,,,,,,,,,,,,,,,,,,,,,,,,,,,,,,,,,,,,,,,,,,,,,,,,,,,,,,,,,,,,,,,,,,,,,,,,,,,,,,,,,,,,,,,
,,600916bb92179b5ecc406460,2024-02-18_20h13.15.308,kallum_motion_pilot,2023.2.2,Win32,74.62686567,600916bb92179b5ecc406460,65d2b6c8f2eece985d8e374c,65d2b9244c64ef8f4bd15951,0.0425,0.0425,0,157,157,38,1,fourtwo,,,,,,,,,,,,,,,,,,,,,,,,,,,,,,,,,,,,,,,,,,,,,,,,,,,,,,,,,,,,,,,,,,,,,,,,,,,,,,,,,,,,,,,,,,,,,,,,,,,,,,,,,,,,,,,,,,,,,,,,,,,,,,,,,,,,,,,,,
,,600916bb92179b5ecc406460,2024-02-18_20h13.15.308,kallum_motion_pilot,2023.2.2,Win32,74.62686567,600916bb92179b5ecc406460,65d2b6c8f2eece985d8e374c,65d2b9244c64ef8f4bd15951,0.0426,0.0426,0,158,158,72,1,onetwo,,,,,,,,,,,,,,,,,,,,,,,,,,,,,,,,,,,,,,,,,,,,,,,,,,,,,,,,,,,,,,,,,,,,,,,,,,,,,,,,,,,,,,,,,,,,,,,,,,,,,,,,,,,,,,,,,,,,,,,,,,,,,,,,,,,,,,,,,
,,600916bb92179b5ecc406460,2024-02-18_20h13.15.308,kallum_motion_pilot,2023.2.2,Win32,74.62686567,600916bb92179b5ecc406460,65d2b6c8f2eece985d8e374c,65d2b9244c64ef8f4bd15951,0.0426,0.0427,0,159,159,131,1,sixeight,,,,,,,,,,,,,,,,,,,,,,,,,,,,,,,,,,,,,,,,,,,,,,,,,,,,,,,,,,,,,,,,,,,,,,,,,,,,,,,,,,,,,,,,,,,,,,,,,,,,,,,,,,,,,,,,,,,,,,,,,,,,,,,,,,,,,,,,,
,,600916bb92179b5ecc406460,2024-02-18_20h13.15.308,kallum_motion_pilot,2023.2.2,Win32,74.62686567,600916bb92179b5ecc406460,65d2b6c8f2eece985d8e374c,65d2b9244c64ef8f4bd15951,0.0427,0.0428,0,160,160,3,1,twofour,,,,,,,,,,,,,,,,,,,,,,,,,,,,,,,,,,,,,,,,,,,,,,,,,,,,,,,,,,,,,,,,,,,,,,,,,,,,,,,,,,,,,,,,,,,,,,,,,,,,,,,,,,,,,,,,,,,,,,,,,,,,,,,,,,,,,,,,,
,,600916bb92179b5ecc406460,2024-02-18_20h13.15.308,kallum_motion_pilot,2023.2.2,Win32,74.62686567,600916bb92179b5ecc406460,65d2b6c8f2eece985d8e374c,65d2b9244c64ef8f4bd15951,0.0428,0.0429,0,161,161,17,1,onethree,,,,,,,,,,,,,,,,,,,,,,,,,,,,,,,,,,,,,,,,,,,,,,,,,,,,,,,,,,,,,,,,,,,,,,,,,,,,,,,,,,,,,,,,,,,,,,,,,,,,,,,,,,,,,,,,,,,,,,,,,,,,,,,,,,,,,,,,,
,,600916bb92179b5ecc406460,2024-02-18_20h13.15.308,kallum_motion_pilot,2023.2.2,Win32,74.62686567,600916bb92179b5ecc406460,65d2b6c8f2eece985d8e374c,65d2b9244c64ef8f4bd15951,0.0429,0.0431,1,0,162,5,1,threefour,,,,,,,,,,,,,,,,,,,,,,,,,,,,,,,,,,,,,,,,,,,,,,,,,,,,,,,,,,,,,,,,,,,,,,,,,,,,,,,,,,,,,,,,,,,,,,,,,,,,,,,,,,,,,,,,,,,,,,,,,,,,,,,,,,,,,,,,,
,,600916bb92179b5ecc406460,2024-02-18_20h13.15.308,kallum_motion_pilot,2023.2.2,Win32,74.62686567,600916bb92179b5ecc406460,65d2b6c8f2eece985d8e374c,65d2b9244c64ef8f4bd15951,0.0431,0.0432,1,1,163,105,1,fiveseven,,,,,,,,,,,,,,,,,,,,,,,,,,,,,,,,,,,,,,,,,,,,,,,,,,,,,,,,,,,,,,,,,,,,,,,,,,,,,,,,,,,,,,,,,,,,,,,,,,,,,,,,,,,,,,,,,,,,,,,,,,,,,,,,,,,,,,,,,
,,600916bb92179b5ecc406460,2024-02-18_20h13.15.308,kallum_motion_pilot,2023.2.2,Win32,74.62686567,600916bb92179b5ecc406460,65d2b6c8f2eece985d8e374c,65d2b9244c64ef8f4bd15951,0.0432,0.0432,1,2,164,84,1,sevenfive,,,,,,,,,,,,,,,,,,,,,,,,,,,,,,,,,,,,,,,,,,,,,,,,,,,,,,,,,,,,,,,,,,,,,,,,,,,,,,,,,,,,,,,,,,,,,,,,,,,,,,,,,,,,,,,,,,,,,,,,,,,,,,,,,,,,,,,,,
,,600916bb92179b5ecc406460,2024-02-18_20h13.15.308,kallum_motion_pilot,2023.2.2,Win32,74.62686567,600916bb92179b5ecc406460,65d2b6c8f2eece985d8e374c,65d2b9244c64ef8f4bd15951,0.0433,0.0433,1,3,165,54,1,fourtwo,,,,,,,,,,,,,,,,,,,,,,,,,,,,,,,,,,,,,,,,,,,,,,,,,,,,,,,,,,,,,,,,,,,,,,,,,,,,,,,,,,,,,,,,,,,,,,,,,,,,,,,,,,,,,,,,,,,,,,,,,,,,,,,,,,,,,,,,,
,,600916bb92179b5ecc406460,2024-02-18_20h13.15.308,kallum_motion_pilot,2023.2.2,Win32,74.62686567,600916bb92179b5ecc406460,65d2b6c8f2eece985d8e374c,65d2b9244c64ef8f4bd15951,0.0434,0.0435,1,4,166,128,1,fivesix,,,,,,,,,,,,,,,,,,,,,,,,,,,,,,,,,,,,,,,,,,,,,,,,,,,,,,,,,,,,,,,,,,,,,,,,,,,,,,,,,,,,,,,,,,,,,,,,,,,,,,,,,,,,,,,,,,,,,,,,,,,,,,,,,,,,,,,,,
,,600916bb92179b5ecc406460,2024-02-18_20h13.15.308,kallum_motion_pilot,2023.2.2,Win32,74.62686567,600916bb92179b5ecc406460,65d2b6c8f2eece985d8e374c,65d2b9244c64ef8f4bd15951,0.0435,0.0436,1,5,167,101,1,seveneight,,,,,,,,,,,,,,,,,,,,,,,,,,,,,,,,,,,,,,,,,,,,,,,,,,,,,,,,,,,,,,,,,,,,,,,,,,,,,,,,,,,,,,,,,,,,,,,,,,,,,,,,,,,,,,,,,,,,,,,,,,,,,,,,,,,,,,,,,
,,600916bb92179b5ecc406460,2024-02-18_20h13.15.308,kallum_motion_pilot,2023.2.2,Win32,74.62686567,600916bb92179b5ecc406460,65d2b6c8f2eece985d8e374c,65d2b9244c64ef8f4bd15951,0.0436,0.0437,1,6,168,20,1,threeone,,,,,,,,,,,,,,,,,,,,,,,,,,,,,,,,,,,,,,,,,,,,,,,,,,,,,,,,,,,,,,,,,,,,,,,,,,,,,,,,,,,,,,,,,,,,,,,,,,,,,,,,,,,,,,,,,,,,,,,,,,,,,,,,,,,,,,,,,
,,600916bb92179b5ecc406460,2024-02-18_20h13.15.308,kallum_motion_pilot,2023.2.2,Win32,74.62686567,600916bb92179b5ecc406460,65d2b6c8f2eece985d8e374c,65d2b9244c64ef8f4bd15951,0.0437,0.0437,1,7,169,8,1,onetwo,,,,,,,,,,,,,,,,,,,,,,,,,,,,,,,,,,,,,,,,,,,,,,,,,,,,,,,,,,,,,,,,,,,,,,,,,,,,,,,,,,,,,,,,,,,,,,,,,,,,,,,,,,,,,,,,,,,,,,,,,,,,,,,,,,,,,,,,,
,,600916bb92179b5ecc406460,2024-02-18_20h13.15.308,kallum_motion_pilot,2023.2.2,Win32,74.62686567,600916bb92179b5ecc406460,65d2b6c8f2eece985d8e374c,65d2b9244c64ef8f4bd15951,0.0438,0.0439,1,8,170,35,1,twofour,,,,,,,,,,,,,,,,,,,,,,,,,,,,,,,,,,,,,,,,,,,,,,,,,,,,,,,,,,,,,,,,,,,,,,,,,,,,,,,,,,,,,,,,,,,,,,,,,,,,,,,,,,,,,,,,,,,,,,,,,,,,,,,,,,,,,,,,,
,,600916bb92179b5ecc406460,2024-02-18_20h13.15.308,kallum_motion_pilot,2023.2.2,Win32,74.62686567,600916bb92179b5ecc406460,65d2b6c8f2eece985d8e374c,65d2b9244c64ef8f4bd15951,0.0439,0.0439,1,9,171,55,1,fourthree,,,,,,,,,,,,,,,,,,,,,,,,,,,,,,,,,,,,,,,,,,,,,,,,,,,,,,,,,,,,,,,,,,,,,,,,,,,,,,,,,,,,,,,,,,,,,,,,,,,,,,,,,,,,,,,,,,,,,,,,,,,,,,,,,,,,,,,,,
,,600916bb92179b5ecc406460,2024-02-18_20h13.15.308,kallum_motion_pilot,2023.2.2,Win32,74.62686567,600916bb92179b5ecc406460,65d2b6c8f2eece985d8e374c,65d2b9244c64ef8f4bd15951,0.0439,0.044,1,10,172,160,1,fivesix,,,,,,,,,,,,,,,,,,,,,,,,,,,,,,,,,,,,,,,,,,,,,,,,,,,,,,,,,,,,,,,,,,,,,,,,,,,,,,,,,,,,,,,,,,,,,,,,,,,,,,,,,,,,,,,,,,,,,,,,,,,,,,,,,,,,,,,,,
,,600916bb92179b5ecc406460,2024-02-18_20h13.15.308,kallum_motion_pilot,2023.2.2,Win32,74.62686567,600916bb92179b5ecc406460,65d2b6c8f2eece985d8e374c,65d2b9244c64ef8f4bd15951,0.0441,0.0441,1,11,173,127,1,eightseven,,,,,,,,,,,,,,,,,,,,,,,,,,,,,,,,,,,,,,,,,,,,,,,,,,,,,,,,,,,,,,,,,,,,,,,,,,,,,,,,,,,,,,,,,,,,,,,,,,,,,,,,,,,,,,,,,,,,,,,,,,,,,,,,,,,,,,,,,
,,600916bb92179b5ecc406460,2024-02-18_20h13.15.308,kallum_motion_pilot,2023.2.2,Win32,74.62686567,600916bb92179b5ecc406460,65d2b6c8f2eece985d8e374c,65d2b9244c64ef8f4bd15951,0.0441,0.0442,1,12,174,74,1,twoone,,,,,,,,,,,,,,,,,,,,,,,,,,,,,,,,,,,,,,,,,,,,,,,,,,,,,,,,,,,,,,,,,,,,,,,,,,,,,,,,,,,,,,,,,,,,,,,,,,,,,,,,,,,,,,,,,,,,,,,,,,,,,,,,,,,,,,,,,
,,600916bb92179b5ecc406460,2024-02-18_20h13.15.308,kallum_motion_pilot,2023.2.2,Win32,74.62686567,600916bb92179b5ecc406460,65d2b6c8f2eece985d8e374c,65d2b9244c64ef8f4bd15951,0.0443,0.0443,1,13,175,117,1,seveneight,,,,,,,,,,,,,,,,,,,,,,,,,,,,,,,,,,,,,,,,,,,,,,,,,,,,,,,,,,,,,,,,,,,,,,,,,,,,,,,,,,,,,,,,,,,,,,,,,,,,,,,,,,,,,,,,,,,,,,,,,,,,,,,,,,,,,,,,,
,,600916bb92179b5ecc406460,2024-02-18_20h13.15.308,kallum_motion_pilot,2023.2.2,Win32,74.62686567,600916bb92179b5ecc406460,65d2b6c8f2eece985d8e374c,65d2b9244c64ef8f4bd15951,0.0444,0.0444,1,14,176,78,1,fourtwo,,,,,,,,,,,,,,,,,,,,,,,,,,,,,,,,,,,,,,,,,,,,,,,,,,,,,,,,,,,,,,,,,,,,,,,,,,,,,,,,,,,,,,,,,,,,,,,,,,,,,,,,,,,,,,,,,,,,,,,,,,,,,,,,,,,,,,,,,
,,600916bb92179b5ecc406460,2024-02-18_20h13.15.308,kallum_motion_pilot,2023.2.2,Win32,74.62686567,600916bb92179b5ecc406460,65d2b6c8f2eece985d8e374c,65d2b9244c64ef8f4bd15951,0.0445,0.0445,1,15,177,138,1,sixfive,,,,,,,,,,,,,,,,,,,,,,,,,,,,,,,,,,,,,,,,,,,,,,,,,,,,,,,,,,,,,,,,,,,,,,,,,,,,,,,,,,,,,,,,,,,,,,,,,,,,,,,,,,,,,,,,,,,,,,,,,,,,,,,,,,,,,,,,,
,,600916bb92179b5ecc406460,2024-02-18_20h13.15.308,kallum_motion_pilot,2023.2.2,Win32,74.62686567,600916bb92179b5ecc406460,65d2b6c8f2eece985d8e374c,65d2b9244c64ef8f4bd15951,0.0446,0.0446,1,16,178,115,1,sixeight,,,,,,,,,,,,,,,,,,,,,,,,,,,,,,,,,,,,,,,,,,,,,,,,,,,,,,,,,,,,,,,,,,,,,,,,,,,,,,,,,,,,,,,,,,,,,,,,,,,,,,,,,,,,,,,,,,,,,,,,,,,,,,,,,,,,,,,,,
,,600916bb92179b5ecc406460,2024-02-18_20h13.15.308,kallum_motion_pilot,2023.2.2,Win32,74.62686567,600916bb92179b5ecc406460,65d2b6c8f2eece985d8e374c,65d2b9244c64ef8f4bd15951,0.0447,0.0447,1,17,179,7,1,fourthree,,,,,,,,,,,,,,,,,,,,,,,,,,,,,,,,,,,,,,,,,,,,,,,,,,,,,,,,,,,,,,,,,,,,,,,,,,,,,,,,,,,,,,,,,,,,,,,,,,,,,,,,,,,,,,,,,,,,,,,,,,,,,,,,,,,,,,,,,
,,600916bb92179b5ecc406460,2024-02-18_20h13.15.308,kallum_motion_pilot,2023.2.2,Win32,74.62686567,600916bb92179b5ecc406460,65d2b6c8f2eece985d8e374c,65d2b9244c64ef8f4bd15951,0.0447,0.0448,1,18,180,99,1,sixeight,,,,,,,,,,,,,,,,,,,,,,,,,,,,,,,,,,,,,,,,,,,,,,,,,,,,,,,,,,,,,,,,,,,,,,,,,,,,,,,,,,,,,,,,,,,,,,,,,,,,,,,,,,,,,,,,,,,,,,,,,,,,,,,,,,,,,,,,,
,,600916bb92179b5ecc406460,2024-02-18_20h13.15.308,kallum_motion_pilot,2023.2.2,Win32,74.62686567,600916bb92179b5ecc406460,65d2b6c8f2eece985d8e374c,65d2b9244c64ef8f4bd15951,0.0449,0.0449,1,19,181,125,1,seveneight,,,,,,,,,,,,,,,,,,,,,,,,,,,,,,,,,,,,,,,,,,,,,,,,,,,,,,,,,,,,,,,,,,,,,,,,,,,,,,,,,,,,,,,,,,,,,,,,,,,,,,,,,,,,,,,,,,,,,,,,,,,,,,,,,,,,,,,,,
,,600916bb92179b5ecc406460,2024-02-18_20h13.15.308,kallum_motion_pilot,2023.2.2,Win32,74.62686567,600916bb92179b5ecc406460,65d2b6c8f2eece985d8e374c,65d2b9244c64ef8f4bd15951,0.045,0.045,1,20,182,59,1,twofour,,,,,,,,,,,,,,,,,,,,,,,,,,,,,,,,,,,,,,,,,,,,,,,,,,,,,,,,,,,,,,,,,,,,,,,,,,,,,,,,,,,,,,,,,,,,,,,,,,,,,,,,,,,,,,,,,,,,,,,,,,,,,,,,,,,,,,,,,
,,600916bb92179b5ecc406460,2024-02-18_20h13.15.308,kallum_motion_pilot,2023.2.2,Win32,74.62686567,600916bb92179b5ecc406460,65d2b6c8f2eece985d8e374c,65d2b9244c64ef8f4bd15951,0.0451,0.0451,1,21,183,70,1,fourtwo,,,,,,,,,,,,,,,,,,,,,,,,,,,,,,,,,,,,,,,,,,,,,,,,,,,,,,,,,,,,,,,,,,,,,,,,,,,,,,,,,,,,,,,,,,,,,,,,,,,,,,,,,,,,,,,,,,,,,,,,,,,,,,,,,,,,,,,,,
,,600916bb92179b5ecc406460,2024-02-18_20h13.15.308,kallum_motion_pilot,2023.2.2,Win32,74.62686567,600916bb92179b5ecc406460,65d2b6c8f2eece985d8e374c,65d2b9244c64ef8f4bd15951,0.0452,0.0452,1,22,184,22,1,fourtwo,,,,,,,,,,,,,,,,,,,,,,,,,,,,,,,,,,,,,,,,,,,,,,,,,,,,,,,,,,,,,,,,,,,,,,,,,,,,,,,,,,,,,,,,,,,,,,,,,,,,,,,,,,,,,,,,,,,,,,,,,,,,,,,,,,,,,,,,,
,,600916bb92179b5ecc406460,2024-02-18_20h13.15.308,kallum_motion_pilot,2023.2.2,Win32,74.62686567,600916bb92179b5ecc406460,65d2b6c8f2eece985d8e374c,65d2b9244c64ef8f4bd15951,0.0453,0.0453,1,23,185,87,1,eightseven,,,,,,,,,,,,,,,,,,,,,,,,,,,,,,,,,,,,,,,,,,,,,,,,,,,,,,,,,,,,,,,,,,,,,,,,,,,,,,,,,,,,,,,,,,,,,,,,,,,,,,,,,,,,,,,,,,,,,,,,,,,,,,,,,,,,,,,,,
,,600916bb92179b5ecc406460,2024-02-18_20h13.15.308,kallum_motion_pilot,2023.2.2,Win32,74.62686567,600916bb92179b5ecc406460,65d2b6c8f2eece985d8e374c,65d2b9244c64ef8f4bd15951,0.0454,0.0454,1,24,186,96,1,fivesix,,,,,,,,,,,,,,,,,,,,,,,,,,,,,,,,,,,,,,,,,,,,,,,,,,,,,,,,,,,,,,,,,,,,,,,,,,,,,,,,,,,,,,,,,,,,,,,,,,,,,,,,,,,,,,,,,,,,,,,,,,,,,,,,,,,,,,,,,
,,600916bb92179b5ecc406460,2024-02-18_20h13.15.308,kallum_motion_pilot,2023.2.2,Win32,74.62686567,600916bb92179b5ecc406460,65d2b6c8f2eece985d8e374c,65d2b9244c64ef8f4bd15951,0.0455,0.0455,1,25,187,3,1,twofour,,,,,,,,,,,,,,,,,,,,,,,,,,,,,,,,,,,,,,,,,,,,,,,,,,,,,,,,,,,,,,,,,,,,,,,,,,,,,,,,,,,,,,,,,,,,,,,,,,,,,,,,,,,,,,,,,,,,,,,,,,,,,,,,,,,,,,,,,
,,600916bb92179b5ecc406460,2024-02-18_20h13.15.308,kallum_motion_pilot,2023.2.2,Win32,74.62686567,600916bb92179b5ecc406460,65d2b6c8f2eece985d8e374c,65d2b9244c64ef8f4bd15951,0.0455,0.0457,1,26,188,132,1,sevenfive,,,,,,,,,,,,,,,,,,,,,,,,,,,,,,,,,,,,,,,,,,,,,,,,,,,,,,,,,,,,,,,,,,,,,,,,,,,,,,,,,,,,,,,,,,,,,,,,,,,,,,,,,,,,,,,,,,,,,,,,,,,,,,,,,,,,,,,,,
,,600916bb92179b5ecc406460,2024-02-18_20h13.15.308,kallum_motion_pilot,2023.2.2,Win32,74.62686567,600916bb92179b5ecc406460,65d2b6c8f2eece985d8e374c,65d2b9244c64ef8f4bd15951,0.0457,0.0458,1,27,189,141,1,seveneight,,,,,,,,,,,,,,,,,,,,,,,,,,,,,,,,,,,,,,,,,,,,,,,,,,,,,,,,,,,,,,,,,,,,,,,,,,,,,,,,,,,,,,,,,,,,,,,,,,,,,,,,,,,,,,,,,,,,,,,,,,,,,,,,,,,,,,,,,
,,600916bb92179b5ecc406460,2024-02-18_20h13.15.308,kallum_motion_pilot,2023.2.2,Win32,74.62686567,600916bb92179b5ecc406460,65d2b6c8f2eece985d8e374c,65d2b9244c64ef8f4bd15951,0.0458,0.0459,1,28,190,135,1,eightseven,,,,,,,,,,,,,,,,,,,,,,,,,,,,,,,,,,,,,,,,,,,,,,,,,,,,,,,,,,,,,,,,,,,,,,,,,,,,,,,,,,,,,,,,,,,,,,,,,,,,,,,,,,,,,,,,,,,,,,,,,,,,,,,,,,,,,,,,,
,,600916bb92179b5ecc406460,2024-02-18_20h13.15.308,kallum_motion_pilot,2023.2.2,Win32,74.62686567,600916bb92179b5ecc406460,65d2b6c8f2eece985d8e374c,65d2b9244c64ef8f4bd15951,0.0459,0.046,1,29,191,56,1,onetwo,,,,,,,,,,,,,,,,,,,,,,,,,,,,,,,,,,,,,,,,,,,,,,,,,,,,,,,,,,,,,,,,,,,,,,,,,,,,,,,,,,,,,,,,,,,,,,,,,,,,,,,,,,,,,,,,,,,,,,,,,,,,,,,,,,,,,,,,,
,,600916bb92179b5ecc406460,2024-02-18_20h13.15.308,kallum_motion_pilot,2023.2.2,Win32,74.62686567,600916bb92179b5ecc406460,65d2b6c8f2eece985d8e374c,65d2b9244c64ef8f4bd15951,0.046,0.0461,1,30,192,144,1,fivesix,,,,,,,,,,,,,,,,,,,,,,,,,,,,,,,,,,,,,,,,,,,,,,,,,,,,,,,,,,,,,,,,,,,,,,,,,,,,,,,,,,,,,,,,,,,,,,,,,,,,,,,,,,,,,,,,,,,,,,,,,,,,,,,,,,,,,,,,,
,,600916bb92179b5ecc406460,2024-02-18_20h13.15.308,kallum_motion_pilot,2023.2.2,Win32,74.62686567,600916bb92179b5ecc406460,65d2b6c8f2eece985d8e374c,65d2b9244c64ef8f4bd15951,0.0461,0.0461,1,31,193,64,1,onetwo,,,,,,,,,,,,,,,,,,,,,,,,,,,,,,,,,,,,,,,,,,,,,,,,,,,,,,,,,,,,,,,,,,,,,,,,,,,,,,,,,,,,,,,,,,,,,,,,,,,,,,,,,,,,,,,,,,,,,,,,,,,,,,,,,,,,,,,,,
,,600916bb92179b5ecc406460,2024-02-18_20h13.15.308,kallum_motion_pilot,2023.2.2,Win32,74.62686567,600916bb92179b5ecc406460,65d2b6c8f2eece985d8e374c,65d2b9244c64ef8f4bd15951,0.0462,0.0463,1,32,194,150,1,eightsix,,,,,,,,,,,,,,,,,,,,,,,,,,,,,,,,,,,,,,,,,,,,,,,,,,,,,,,,,,,,,,,,,,,,,,,,,,,,,,,,,,,,,,,,,,,,,,,,,,,,,,,,,,,,,,,,,,,,,,,,,,,,,,,,,,,,,,,,,
,,600916bb92179b5ecc406460,2024-02-18_20h13.15.308,kallum_motion_pilot,2023.2.2,Win32,74.62686567,600916bb92179b5ecc406460,65d2b6c8f2eece985d8e374c,65d2b9244c64ef8f4bd15951,0.0463,0.0464,1,33,195,30,1,fourtwo,,,,,,,,,,,,,,,,,,,,,,,,,,,,,,,,,,,,,,,,,,,,,,,,,,,,,,,,,,,,,,,,,,,,,,,,,,,,,,,,,,,,,,,,,,,,,,,,,,,,,,,,,,,,,,,,,,,,,,,,,,,,,,,,,,,,,,,,,
,,600916bb92179b5ecc406460,2024-02-18_20h13.15.308,kallum_motion_pilot,2023.2.2,Win32,74.62686567,600916bb92179b5ecc406460,65d2b6c8f2eece985d8e374c,65d2b9244c64ef8f4bd15951,0.0464,0.0465,1,34,196,148,1,sevenfive,,,,,,,,,,,,,,,,,,,,,,,,,,,,,,,,,,,,,,,,,,,,,,,,,,,,,,,,,,,,,,,,,,,,,,,,,,,,,,,,,,,,,,,,,,,,,,,,,,,,,,,,,,,,,,,,,,,,,,,,,,,,,,,,,,,,,,,,,
,,600916bb92179b5ecc406460,2024-02-18_20h13.15.308,kallum_motion_pilot,2023.2.2,Win32,74.62686567,600916bb92179b5ecc406460,65d2b6c8f2eece985d8e374c,65d2b9244c64ef8f4bd15951,0.0465,0.0466,1,35,197,71,1,fourthree,,,,,,,,,,,,,,,,,,,,,,,,,,,,,,,,,,,,,,,,,,,,,,,,,,,,,,,,,,,,,,,,,,,,,,,,,,,,,,,,,,,,,,,,,,,,,,,,,,,,,,,,,,,,,,,,,,,,,,,,,,,,,,,,,,,,,,,,,
,,600916bb92179b5ecc406460,2024-02-18_20h13.15.308,kallum_motion_pilot,2023.2.2,Win32,74.62686567,600916bb92179b5ecc406460,65d2b6c8f2eece985d8e374c,65d2b9244c64ef8f4bd15951,0.0466,0.0467,1,36,198,12,1,threeone,,,,,,,,,,,,,,,,,,,,,,,,,,,,,,,,,,,,,,,,,,,,,,,,,,,,,,,,,,,,,,,,,,,,,,,,,,,,,,,,,,,,,,,,,,,,,,,,,,,,,,,,,,,,,,,,,,,,,,,,,,,,,,,,,,,,,,,,,
,,600916bb92179b5ecc406460,2024-02-18_20h13.15.308,kallum_motion_pilot,2023.2.2,Win32,74.62686567,600916bb92179b5ecc406460,65d2b6c8f2eece985d8e374c,65d2b9244c64ef8f4bd15951,0.0467,0.0468,1,37,199,58,1,twoone,,,,,,,,,,,,,,,,,,,,,,,,,,,,,,,,,,,,,,,,,,,,,,,,,,,,,,,,,,,,,,,,,,,,,,,,,,,,,,,,,,,,,,,,,,,,,,,,,,,,,,,,,,,,,,,,,,,,,,,,,,,,,,,,,,,,,,,,,
,,600916bb92179b5ecc406460,2024-02-18_20h13.15.308,kallum_motion_pilot,2023.2.2,Win32,74.62686567,600916bb92179b5ecc406460,65d2b6c8f2eece985d8e374c,65d2b9244c64ef8f4bd15951,0.0468,0.0469,1,38,200,48,1,onetwo,,,,,,,,,,,,,,,,,,,,,,,,,,,,,,,,,,,,,,,,,,,,,,,,,,,,,,,,,,,,,,,,,,,,,,,,,,,,,,,,,,,,,,,,,,,,,,,,,,,,,,,,,,,,,,,,,,,,,,,,,,,,,,,,,,,,,,,,,
,,600916bb92179b5ecc406460,2024-02-18_20h13.15.308,kallum_motion_pilot,2023.2.2,Win32,74.62686567,600916bb92179b5ecc406460,65d2b6c8f2eece985d8e374c,65d2b9244c64ef8f4bd15951,0.047,0.047,1,39,201,28,1,threeone,,,,,,,,,,,,,,,,,,,,,,,,,,,,,,,,,,,,,,,,,,,,,,,,,,,,,,,,,,,,,,,,,,,,,,,,,,,,,,,,,,,,,,,,,,,,,,,,,,,,,,,,,,,,,,,,,,,,,,,,,,,,,,,,,,,,,,,,,
,,600916bb92179b5ecc406460,2024-02-18_20h13.15.308,kallum_motion_pilot,2023.2.2,Win32,74.62686567,600916bb92179b5ecc406460,65d2b6c8f2eece985d8e374c,65d2b9244c64ef8f4bd15951,0.0471,0.0471,1,40,202,121,1,fiveseven,,,,,,,,,,,,,,,,,,,,,,,,,,,,,,,,,,,,,,,,,,,,,,,,,,,,,,,,,,,,,,,,,,,,,,,,,,,,,,,,,,,,,,,,,,,,,,,,,,,,,,,,,,,,,,,,,,,,,,,,,,,,,,,,,,,,,,,,,
,,600916bb92179b5ecc406460,2024-02-18_20h13.15.308,kallum_motion_pilot,2023.2.2,Win32,74.62686567,600916bb92179b5ecc406460,65d2b6c8f2eece985d8e374c,65d2b9244c64ef8f4bd15951,0.0472,0.0472,1,41,203,19,1,twofour,,,,,,,,,,,,,,,,,,,,,,,,,,,,,,,,,,,,,,,,,,,,,,,,,,,,,,,,,,,,,,,,,,,,,,,,,,,,,,,,,,,,,,,,,,,,,,,,,,,,,,,,,,,,,,,,,,,,,,,,,,,,,,,,,,,,,,,,,
,,600916bb92179b5ecc406460,2024-02-18_20h13.15.308,kallum_motion_pilot,2023.2.2,Win32,74.62686567,600916bb92179b5ecc406460,65d2b6c8f2eece985d8e374c,65d2b9244c64ef8f4bd15951,0.0472,0.0472,1,42,204,27,1,twofour,,,,,,,,,,,,,,,,,,,,,,,,,,,,,,,,,,,,,,,,,,,,,,,,,,,,,,,,,,,,,,,,,,,,,,,,,,,,,,,,,,,,,,,,,,,,,,,,,,,,,,,,,,,,,,,,,,,,,,,,,,,,,,,,,,,,,,,,,
,,600916bb92179b5ecc406460,2024-02-18_20h13.15.308,kallum_motion_pilot,2023.2.2,Win32,74.62686567,600916bb92179b5ecc406460,65d2b6c8f2eece985d8e374c,65d2b9244c64ef8f4bd15951,0.0473,0.0474,1,43,205,158,1,eightsix,,,,,,,,,,,,,,,,,,,,,,,,,,,,,,,,,,,,,,,,,,,,,,,,,,,,,,,,,,,,,,,,,,,,,,,,,,,,,,,,,,,,,,,,,,,,,,,,,,,,,,,,,,,,,,,,,,,,,,,,,,,,,,,,,,,,,,,,,
,,600916bb92179b5ecc406460,2024-02-18_20h13.15.308,kallum_motion_pilot,2023.2.2,Win32,74.62686567,600916bb92179b5ecc406460,65d2b6c8f2eece985d8e374c,65d2b9244c64ef8f4bd15951,0.0475,0.0475,1,44,206,4,1,threeone,,,,,,,,,,,,,,,,,,,,,,,,,,,,,,,,,,,,,,,,,,,,,,,,,,,,,,,,,,,,,,,,,,,,,,,,,,,,,,,,,,,,,,,,,,,,,,,,,,,,,,,,,,,,,,,,,,,,,,,,,,,,,,,,,,,,,,,,,
,,600916bb92179b5ecc406460,2024-02-18_20h13.15.308,kallum_motion_pilot,2023.2.2,Win32,74.62686567,600916bb92179b5ecc406460,65d2b6c8f2eece985d8e374c,65d2b9244c64ef8f4bd15951,0.0475,0.0476,1,45,207,137,1,fiveseven,,,,,,,,,,,,,,,,,,,,,,,,,,,,,,,,,,,,,,,,,,,,,,,,,,,,,,,,,,,,,,,,,,,,,,,,,,,,,,,,,,,,,,,,,,,,,,,,,,,,,,,,,,,,,,,,,,,,,,,,,,,,,,,,,,,,,,,,,
,,600916bb92179b5ecc406460,2024-02-18_20h13.15.308,kallum_motion_pilot,2023.2.2,Win32,74.62686567,600916bb92179b5ecc406460,65d2b6c8f2eece985d8e374c,65d2b9244c64ef8f4bd15951,0.0476,0.0477,1,46,208,131,1,sixeight,,,,,,,,,,,,,,,,,,,,,,,,,,,,,,,,,,,,,,,,,,,,,,,,,,,,,,,,,,,,,,,,,,,,,,,,,,,,,,,,,,,,,,,,,,,,,,,,,,,,,,,,,,,,,,,,,,,,,,,,,,,,,,,,,,,,,,,,,
,,600916bb92179b5ecc406460,2024-02-18_20h13.15.308,kallum_motion_pilot,2023.2.2,Win32,74.62686567,600916bb92179b5ecc406460,65d2b6c8f2eece985d8e374c,65d2b9244c64ef8f4bd15951,0.0477,0.0478,1,47,209,53,1,threefour,,,,,,,,,,,,,,,,,,,,,,,,,,,,,,,,,,,,,,,,,,,,,,,,,,,,,,,,,,,,,,,,,,,,,,,,,,,,,,,,,,,,,,,,,,,,,,,,,,,,,,,,,,,,,,,,,,,,,,,,,,,,,,,,,,,,,,,,,
,,600916bb92179b5ecc406460,2024-02-18_20h13.15.308,kallum_motion_pilot,2023.2.2,Win32,74.62686567,600916bb92179b5ecc406460,65d2b6c8f2eece985d8e374c,65d2b9244c64ef8f4bd15951,0.0478,0.0479,1,48,210,120,1,fivesix,,,,,,,,,,,,,,,,,,,,,,,,,,,,,,,,,,,,,,,,,,,,,,,,,,,,,,,,,,,,,,,,,,,,,,,,,,,,,,,,,,,,,,,,,,,,,,,,,,,,,,,,,,,,,,,,,,,,,,,,,,,,,,,,,,,,,,,,,
,,600916bb92179b5ecc406460,2024-02-18_20h13.15.308,kallum_motion_pilot,2023.2.2,Win32,74.62686567,600916bb92179b5ecc406460,65d2b6c8f2eece985d8e374c,65d2b9244c64ef8f4bd15951,0.0479,0.0481,1,49,211,157,1,seveneight,,,,,,,,,,,,,,,,,,,,,,,,,,,,,,,,,,,,,,,,,,,,,,,,,,,,,,,,,,,,,,,,,,,,,,,,,,,,,,,,,,,,,,,,,,,,,,,,,,,,,,,,,,,,,,,,,,,,,,,,,,,,,,,,,,,,,,,,,
,,600916bb92179b5ecc406460,2024-02-18_20h13.15.308,kallum_motion_pilot,2023.2.2,Win32,74.62686567,600916bb92179b5ecc406460,65d2b6c8f2eece985d8e374c,65d2b9244c64ef8f4bd15951,0.0481,0.0481,1,50,212,32,1,onetwo,,,,,,,,,,,,,,,,,,,,,,,,,,,,,,,,,,,,,,,,,,,,,,,,,,,,,,,,,,,,,,,,,,,,,,,,,,,,,,,,,,,,,,,,,,,,,,,,,,,,,,,,,,,,,,,,,,,,,,,,,,,,,,,,,,,,,,,,,
,,600916bb92179b5ecc406460,2024-02-18_20h13.15.308,kallum_motion_pilot,2023.2.2,Win32,74.62686567,600916bb92179b5ecc406460,65d2b6c8f2eece985d8e374c,65d2b9244c64ef8f4bd15951,0.0482,0.0482,1,51,213,97,1,fiveseven,,,,,,,,,,,,,,,,,,,,,,,,,,,,,,,,,,,,,,,,,,,,,,,,,,,,,,,,,,,,,,,,,,,,,,,,,,,,,,,,,,,,,,,,,,,,,,,,,,,,,,,,,,,,,,,,,,,,,,,,,,,,,,,,,,,,,,,,,
,,600916bb92179b5ecc406460,2024-02-18_20h13.15.308,kallum_motion_pilot,2023.2.2,Win32,74.62686567,600916bb92179b5ecc406460,65d2b6c8f2eece985d8e374c,65d2b9244c64ef8f4bd15951,0.0483,0.0483,1,52,214,139,1,sixeight,,,,,,,,,,,,,,,,,,,,,,,,,,,,,,,,,,,,,,,,,,,,,,,,,,,,,,,,,,,,,,,,,,,,,,,,,,,,,,,,,,,,,,,,,,,,,,,,,,,,,,,,,,,,,,,,,,,,,,,,,,,,,,,,,,,,,,,,,
,,600916bb92179b5ecc406460,2024-02-18_20h13.15.308,kallum_motion_pilot,2023.2.2,Win32,74.62686567,600916bb92179b5ecc406460,65d2b6c8f2eece985d8e374c,65d2b9244c64ef8f4bd15951,0.0484,0.0484,1,53,215,107,1,sixeight,,,,,,,,,,,,,,,,,,,,,,,,,,,,,,,,,,,,,,,,,,,,,,,,,,,,,,,,,,,,,,,,,,,,,,,,,,,,,,,,,,,,,,,,,,,,,,,,,,,,,,,,,,,,,,,,,,,,,,,,,,,,,,,,,,,,,,,,,
,,600916bb92179b5ecc406460,2024-02-18_20h13.15.308,kallum_motion_pilot,2023.2.2,Win32,74.62686567,600916bb92179b5ecc406460,65d2b6c8f2eece985d8e374c,65d2b9244c64ef8f4bd15951,0.0485,0.0485,1,54,216,110,1,eightsix,,,,,,,,,,,,,,,,,,,,,,,,,,,,,,,,,,,,,,,,,,,,,,,,,,,,,,,,,,,,,,,,,,,,,,,,,,,,,,,,,,,,,,,,,,,,,,,,,,,,,,,,,,,,,,,,,,,,,,,,,,,,,,,,,,,,,,,,,
,,600916bb92179b5ecc406460,2024-02-18_20h13.15.308,kallum_motion_pilot,2023.2.2,Win32,74.62686567,600916bb92179b5ecc406460,65d2b6c8f2eece985d8e374c,65d2b9244c64ef8f4bd15951,0.0486,0.0487,1,55,217,77,1,threefour,,,,,,,,,,,,,,,,,,,,,,,,,,,,,,,,,,,,,,,,,,,,,,,,,,,,,,,,,,,,,,,,,,,,,,,,,,,,,,,,,,,,,,,,,,,,,,,,,,,,,,,,,,,,,,,,,,,,,,,,,,,,,,,,,,,,,,,,,
,,600916bb92179b5ecc406460,2024-02-18_20h13.15.308,kallum_motion_pilot,2023.2.2,Win32,74.62686567,600916bb92179b5ecc406460,65d2b6c8f2eece985d8e374c,65d2b9244c64ef8f4bd15951,0.0487,0.0487,1,56,218,122,1,sixfive,,,,,,,,,,,,,,,,,,,,,,,,,,,,,,,,,,,,,,,,,,,,,,,,,,,,,,,,,,,,,,,,,,,,,,,,,,,,,,,,,,,,,,,,,,,,,,,,,,,,,,,,,,,,,,,,,,,,,,,,,,,,,,,,,,,,,,,,,
,,600916bb92179b5ecc406460,2024-02-18_20h13.15.308,kallum_motion_pilot,2023.2.2,Win32,74.62686567,600916bb92179b5ecc406460,65d2b6c8f2eece985d8e374c,65d2b9244c64ef8f4bd15951,0.0488,0.0488,1,57,219,161,1,fiveseven,,,,,,,,,,,,,,,,,,,,,,,,,,,,,,,,,,,,,,,,,,,,,,,,,,,,,,,,,,,,,,,,,,,,,,,,,,,,,,,,,,,,,,,,,,,,,,,,,,,,,,,,,,,,,,,,,,,,,,,,,,,,,,,,,,,,,,,,,
,,600916bb92179b5ecc406460,2024-02-18_20h13.15.308,kallum_motion_pilot,2023.2.2,Win32,74.62686567,600916bb92179b5ecc406460,65d2b6c8f2eece985d8e374c,65d2b9244c64ef8f4bd15951,0.0488,0.0489,1,58,220,155,1,sixeight,,,,,,,,,,,,,,,,,,,,,,,,,,,,,,,,,,,,,,,,,,,,,,,,,,,,,,,,,,,,,,,,,,,,,,,,,,,,,,,,,,,,,,,,,,,,,,,,,,,,,,,,,,,,,,,,,,,,,,,,,,,,,,,,,,,,,,,,,
,,600916bb92179b5ecc406460,2024-02-18_20h13.15.308,kallum_motion_pilot,2023.2.2,Win32,74.62686567,600916bb92179b5ecc406460,65d2b6c8f2eece985d8e374c,65d2b9244c64ef8f4bd15951,0.049,0.0491,1,59,221,44,1,threeone,,,,,,,,,,,,,,,,,,,,,,,,,,,,,,,,,,,,,,,,,,,,,,,,,,,,,,,,,,,,,,,,,,,,,,,,,,,,,,,,,,,,,,,,,,,,,,,,,,,,,,,,,,,,,,,,,,,,,,,,,,,,,,,,,,,,,,,,,
,,600916bb92179b5ecc406460,2024-02-18_20h13.15.308,kallum_motion_pilot,2023.2.2,Win32,74.62686567,600916bb92179b5ecc406460,65d2b6c8f2eece985d8e374c,65d2b9244c64ef8f4bd15951,0.0491,0.0491,1,60,222,16,1,onetwo,,,,,,,,,,,,,,,,,,,,,,,,,,,,,,,,,,,,,,,,,,,,,,,,,,,,,,,,,,,,,,,,,,,,,,,,,,,,,,,,,,,,,,,,,,,,,,,,,,,,,,,,,,,,,,,,,,,,,,,,,,,,,,,,,,,,,,,,,
,,600916bb92179b5ecc406460,2024-02-18_20h13.15.308,kallum_motion_pilot,2023.2.2,Win32,74.62686567,600916bb92179b5ecc406460,65d2b6c8f2eece985d8e374c,65d2b9244c64ef8f4bd15951,0.0492,0.0493,1,61,223,47,1,fourthree,,,,,,,,,,,,,,,,,,,,,,,,,,,,,,,,,,,,,,,,,,,,,,,,,,,,,,,,,,,,,,,,,,,,,,,,,,,,,,,,,,,,,,,,,,,,,,,,,,,,,,,,,,,,,,,,,,,,,,,,,,,,,,,,,,,,,,,,,
,,600916bb92179b5ecc406460,2024-02-18_20h13.15.308,kallum_motion_pilot,2023.2.2,Win32,74.62686567,600916bb92179b5ecc406460,65d2b6c8f2eece985d8e374c,65d2b9244c64ef8f4bd15951,0.0493,0.0493,1,62,224,159,1,eightseven,,,,,,,,,,,,,,,,,,,,,,,,,,,,,,,,,,,,,,,,,,,,,,,,,,,,,,,,,,,,,,,,,,,,,,,,,,,,,,,,,,,,,,,,,,,,,,,,,,,,,,,,,,,,,,,,,,,,,,,,,,,,,,,,,,,,,,,,,
,,600916bb92179b5ecc406460,2024-02-18_20h13.15.308,kallum_motion_pilot,2023.2.2,Win32,74.62686567,600916bb92179b5ecc406460,65d2b6c8f2eece985d8e374c,65d2b9244c64ef8f4bd15951,0.0494,0.0495,1,63,225,88,1,fivesix,,,,,,,,,,,,,,,,,,,,,,,,,,,,,,,,,,,,,,,,,,,,,,,,,,,,,,,,,,,,,,,,,,,,,,,,,,,,,,,,,,,,,,,,,,,,,,,,,,,,,,,,,,,,,,,,,,,,,,,,,,,,,,,,,,,,,,,,,
,,600916bb92179b5ecc406460,2024-02-18_20h13.15.308,kallum_motion_pilot,2023.2.2,Win32,74.62686567,600916bb92179b5ecc406460,65d2b6c8f2eece985d8e374c,65d2b9244c64ef8f4bd15951,0.0496,0.0496,1,64,226,17,1,onethree,,,,,,,,,,,,,,,,,,,,,,,,,,,,,,,,,,,,,,,,,,,,,,,,,,,,,,,,,,,,,,,,,,,,,,,,,,,,,,,,,,,,,,,,,,,,,,,,,,,,,,,,,,,,,,,,,,,,,,,,,,,,,,,,,,,,,,,,,
,,600916bb92179b5ecc406460,2024-02-18_20h13.15.308,kallum_motion_pilot,2023.2.2,Win32,74.62686567,600916bb92179b5ecc406460,65d2b6c8f2eece985d8e374c,65d2b9244c64ef8f4bd15951,0.0496,0.0497,1,65,227,79,1,eightseven,,,,,,,,,,,,,,,,,,,,,,,,,,,,,,,,,,,,,,,,,,,,,,,,,,,,,,,,,,,,,,,,,,,,,,,,,,,,,,,,,,,,,,,,,,,,,,,,,,,,,,,,,,,,,,,,,,,,,,,,,,,,,,,,,,,,,,,,,
,,600916bb92179b5ecc406460,2024-02-18_20h13.15.308,kallum_motion_pilot,2023.2.2,Win32,74.62686567,600916bb92179b5ecc406460,65d2b6c8f2eece985d8e374c,65d2b9244c64ef8f4bd15951,0.0497,0.0498,1,66,228,108,1,sevenfive,,,,,,,,,,,,,,,,,,,,,,,,,,,,,,,,,,,,,,,,,,,,,,,,,,,,,,,,,,,,,,,,,,,,,,,,,,,,,,,,,,,,,,,,,,,,,,,,,,,,,,,,,,,,,,,,,,,,,,,,,,,,,,,,,,,,,,,,,
,,600916bb92179b5ecc406460,2024-02-18_20h13.15.308,kallum_motion_pilot,2023.2.2,Win32,74.62686567,600916bb92179b5ecc406460,65d2b6c8f2eece985d8e374c,65d2b9244c64ef8f4bd15951,0.0498,0.0499,1,67,229,114,1,sixfive,,,,,,,,,,,,,,,,,,,,,,,,,,,,,,,,,,,,,,,,,,,,,,,,,,,,,,,,,,,,,,,,,,,,,,,,,,,,,,,,,,,,,,,,,,,,,,,,,,,,,,,,,,,,,,,,,,,,,,,,,,,,,,,,,,,,,,,,,
,,600916bb92179b5ecc406460,2024-02-18_20h13.15.308,kallum_motion_pilot,2023.2.2,Win32,74.62686567,600916bb92179b5ecc406460,65d2b6c8f2eece985d8e374c,65d2b9244c64ef8f4bd15951,0.05,0.05,1,68,230,37,1,threefour,,,,,,,,,,,,,,,,,,,,,,,,,,,,,,,,,,,,,,,,,,,,,,,,,,,,,,,,,,,,,,,,,,,,,,,,,,,,,,,,,,,,,,,,,,,,,,,,,,,,,,,,,,,,,,,,,,,,,,,,,,,,,,,,,,,,,,,,,
,,600916bb92179b5ecc406460,2024-02-18_20h13.15.308,kallum_motion_pilot,2023.2.2,Win32,74.62686567,600916bb92179b5ecc406460,65d2b6c8f2eece985d8e374c,65d2b9244c64ef8f4bd15951,0.0501,0.0501,1,69,231,130,1,sixfive,,,,,,,,,,,,,,,,,,,,,,,,,,,,,,,,,,,,,,,,,,,,,,,,,,,,,,,,,,,,,,,,,,,,,,,,,,,,,,,,,,,,,,,,,,,,,,,,,,,,,,,,,,,,,,,,,,,,,,,,,,,,,,,,,,,,,,,,,
,,600916bb92179b5ecc406460,2024-02-18_20h13.15.308,kallum_motion_pilot,2023.2.2,Win32,74.62686567,600916bb92179b5ecc406460,65d2b6c8f2eece985d8e374c,65d2b9244c64ef8f4bd15951,0.0502,0.0502,1,70,232,140,1,sevenfive,,,,,,,,,,,,,,,,,,,,,,,,,,,,,,,,,,,,,,,,,,,,,,,,,,,,,,,,,,,,,,,,,,,,,,,,,,,,,,,,,,,,,,,,,,,,,,,,,,,,,,,,,,,,,,,,,,,,,,,,,,,,,,,,,,,,,,,,,
,,600916bb92179b5ecc406460,2024-02-18_20h13.15.308,kallum_motion_pilot,2023.2.2,Win32,74.62686567,600916bb92179b5ecc406460,65d2b6c8f2eece985d8e374c,65d2b9244c64ef8f4bd15951,0.0503,0.0503,1,71,233,23,1,fourthree,,,,,,,,,,,,,,,,,,,,,,,,,,,,,,,,,,,,,,,,,,,,,,,,,,,,,,,,,,,,,,,,,,,,,,,,,,,,,,,,,,,,,,,,,,,,,,,,,,,,,,,,,,,,,,,,,,,,,,,,,,,,,,,,,,,,,,,,,
,,600916bb92179b5ecc406460,2024-02-18_20h13.15.308,kallum_motion_pilot,2023.2.2,Win32,74.62686567,600916bb92179b5ecc406460,65d2b6c8f2eece985d8e374c,65d2b9244c64ef8f4bd15951,0.0504,0.0505,1,72,234,57,1,onethree,,,,,,,,,,,,,,,,,,,,,,,,,,,,,,,,,,,,,,,,,,,,,,,,,,,,,,,,,,,,,,,,,,,,,,,,,,,,,,,,,,,,,,,,,,,,,,,,,,,,,,,,,,,,,,,,,,,,,,,,,,,,,,,,,,,,,,,,,
,,600916bb92179b5ecc406460,2024-02-18_20h13.15.308,kallum_motion_pilot,2023.2.2,Win32,74.62686567,600916bb92179b5ecc406460,65d2b6c8f2eece985d8e374c,65d2b9244c64ef8f4bd15951,0.0505,0.0505,1,73,235,33,1,onethree,,,,,,,,,,,,,,,,,,,,,,,,,,,,,,,,,,,,,,,,,,,,,,,,,,,,,,,,,,,,,,,,,,,,,,,,,,,,,,,,,,,,,,,,,,,,,,,,,,,,,,,,,,,,,,,,,,,,,,,,,,,,,,,,,,,,,,,,,
,,600916bb92179b5ecc406460,2024-02-18_20h13.15.308,kallum_motion_pilot,2023.2.2,Win32,74.62686567,600916bb92179b5ecc406460,65d2b6c8f2eece985d8e374c,65d2b9244c64ef8f4bd15951,0.0506,0.0506,1,74,236,76,1,threeone,,,,,,,,,,,,,,,,,,,,,,,,,,,,,,,,,,,,,,,,,,,,,,,,,,,,,,,,,,,,,,,,,,,,,,,,,,,,,,,,,,,,,,,,,,,,,,,,,,,,,,,,,,,,,,,,,,,,,,,,,,,,,,,,,,,,,,,,,
,,600916bb92179b5ecc406460,2024-02-18_20h13.15.308,kallum_motion_pilot,2023.2.2,Win32,74.62686567,600916bb92179b5ecc406460,65d2b6c8f2eece985d8e374c,65d2b9244c64ef8f4bd15951,0.0507,0.0507,1,75,237,103,1,eightseven,,,,,,,,,,,,,,,,,,,,,,,,,,,,,,,,,,,,,,,,,,,,,,,,,,,,,,,,,,,,,,,,,,,,,,,,,,,,,,,,,,,,,,,,,,,,,,,,,,,,,,,,,,,,,,,,,,,,,,,,,,,,,,,,,,,,,,,,,
,,600916bb92179b5ecc406460,2024-02-18_20h13.15.308,kallum_motion_pilot,2023.2.2,Win32,74.62686567,600916bb92179b5ecc406460,65d2b6c8f2eece985d8e374c,65d2b9244c64ef8f4bd15951,0.0508,0.0508,1,76,238,61,1,threefour,,,,,,,,,,,,,,,,,,,,,,,,,,,,,,,,,,,,,,,,,,,,,,,,,,,,,,,,,,,,,,,,,,,,,,,,,,,,,,,,,,,,,,,,,,,,,,,,,,,,,,,,,,,,,,,,,,,,,,,,,,,,,,,,,,,,,,,,,
,,600916bb92179b5ecc406460,2024-02-18_20h13.15.308,kallum_motion_pilot,2023.2.2,Win32,74.62686567,600916bb92179b5ecc406460,65d2b6c8f2eece985d8e374c,65d2b9244c64ef8f4bd15951,0.051,0.051,1,77,239,9,1,onethree,,,,,,,,,,,,,,,,,,,,,,,,,,,,,,,,,,,,,,,,,,,,,,,,,,,,,,,,,,,,,,,,,,,,,,,,,,,,,,,,,,,,,,,,,,,,,,,,,,,,,,,,,,,,,,,,,,,,,,,,,,,,,,,,,,,,,,,,,
,,600916bb92179b5ecc406460,2024-02-18_20h13.15.308,kallum_motion_pilot,2023.2.2,Win32,74.62686567,600916bb92179b5ecc406460,65d2b6c8f2eece985d8e374c,65d2b9244c64ef8f4bd15951,0.051,0.051,1,78,240,136,1,fivesix,,,,,,,,,,,,,,,,,,,,,,,,,,,,,,,,,,,,,,,,,,,,,,,,,,,,,,,,,,,,,,,,,,,,,,,,,,,,,,,,,,,,,,,,,,,,,,,,,,,,,,,,,,,,,,,,,,,,,,,,,,,,,,,,,,,,,,,,,
,,600916bb92179b5ecc406460,2024-02-18_20h13.15.308,kallum_motion_pilot,2023.2.2,Win32,74.62686567,600916bb92179b5ecc406460,65d2b6c8f2eece985d8e374c,65d2b9244c64ef8f4bd15951,0.0511,0.0512,1,79,241,151,1,eightseven,,,,,,,,,,,,,,,,,,,,,,,,,,,,,,,,,,,,,,,,,,,,,,,,,,,,,,,,,,,,,,,,,,,,,,,,,,,,,,,,,,,,,,,,,,,,,,,,,,,,,,,,,,,,,,,,,,,,,,,,,,,,,,,,,,,,,,,,,
,,600916bb92179b5ecc406460,2024-02-18_20h13.15.308,kallum_motion_pilot,2023.2.2,Win32,74.62686567,600916bb92179b5ecc406460,65d2b6c8f2eece985d8e374c,65d2b9244c64ef8f4bd15951,0.0513,0.0514,1,80,242,72,1,onetwo,,,,,,,,,,,,,,,,,,,,,,,,,,,,,,,,,,,,,,,,,,,,,,,,,,,,,,,,,,,,,,,,,,,,,,,,,,,,,,,,,,,,,,,,,,,,,,,,,,,,,,,,,,,,,,,,,,,,,,,,,,,,,,,,,,,,,,,,,
,,600916bb92179b5ecc406460,2024-02-18_20h13.15.308,kallum_motion_pilot,2023.2.2,Win32,74.62686567,600916bb92179b5ecc406460,65d2b6c8f2eece985d8e374c,65d2b9244c64ef8f4bd15951,0.0514,0.0515,1,81,243,102,1,eightsix,,,,,,,,,,,,,,,,,,,,,,,,,,,,,,,,,,,,,,,,,,,,,,,,,,,,,,,,,,,,,,,,,,,,,,,,,,,,,,,,,,,,,,,,,,,,,,,,,,,,,,,,,,,,,,,,,,,,,,,,,,,,,,,,,,,,,,,,,
,,600916bb92179b5ecc406460,2024-02-18_20h13.15.308,kallum_motion_pilot,2023.2.2,Win32,74.62686567,600916bb92179b5ecc406460,65d2b6c8f2eece985d8e374c,65d2b9244c64ef8f4bd15951,0.0515,0.0516,1,82,244,80,1,fivesix,,,,,,,,,,,,,,,,,,,,,,,,,,,,,,,,,,,,,,,,,,,,,,,,,,,,,,,,,,,,,,,,,,,,,,,,,,,,,,,,,,,,,,,,,,,,,,,,,,,,,,,,,,,,,,,,,,,,,,,,,,,,,,,,,,,,,,,,,
,,600916bb92179b5ecc406460,2024-02-18_20h13.15.308,kallum_motion_pilot,2023.2.2,Win32,74.62686567,600916bb92179b5ecc406460,65d2b6c8f2eece985d8e374c,65d2b9244c64ef8f4bd15951,0.0516,0.0517,1,83,245,10,1,twoone,,,,,,,,,,,,,,,,,,,,,,,,,,,,,,,,,,,,,,,,,,,,,,,,,,,,,,,,,,,,,,,,,,,,,,,,,,,,,,,,,,,,,,,,,,,,,,,,,,,,,,,,,,,,,,,,,,,,,,,,,,,,,,,,,,,,,,,,,
,,600916bb92179b5ecc406460,2024-02-18_20h13.15.308,kallum_motion_pilot,2023.2.2,Win32,74.62686567,600916bb92179b5ecc406460,65d2b6c8f2eece985d8e374c,65d2b9244c64ef8f4bd15951,0.0518,0.0518,1,84,246,95,1,eightseven,,,,,,,,,,,,,,,,,,,,,,,,,,,,,,,,,,,,,,,,,,,,,,,,,,,,,,,,,,,,,,,,,,,,,,,,,,,,,,,,,,,,,,,,,,,,,,,,,,,,,,,,,,,,,,,,,,,,,,,,,,,,,,,,,,,,,,,,,
,,600916bb92179b5ecc406460,2024-02-18_20h13.15.308,kallum_motion_pilot,2023.2.2,Win32,74.62686567,600916bb92179b5ecc406460,65d2b6c8f2eece985d8e374c,65d2b9244c64ef8f4bd15951,0.0519,0.052,1,85,247,42,1,twoone,,,,,,,,,,,,,,,,,,,,,,,,,,,,,,,,,,,,,,,,,,,,,,,,,,,,,,,,,,,,,,,,,,,,,,,,,,,,,,,,,,,,,,,,,,,,,,,,,,,,,,,,,,,,,,,,,,,,,,,,,,,,,,,,,,,,,,,,,
,,600916bb92179b5ecc406460,2024-02-18_20h13.15.308,kallum_motion_pilot,2023.2.2,Win32,74.62686567,600916bb92179b5ecc406460,65d2b6c8f2eece985d8e374c,65d2b9244c64ef8f4bd15951,0.052,0.052,1,86,248,142,1,eightsix,,,,,,,,,,,,,,,,,,,,,,,,,,,,,,,,,,,,,,,,,,,,,,,,,,,,,,,,,,,,,,,,,,,,,,,,,,,,,,,,,,,,,,,,,,,,,,,,,,,,,,,,,,,,,,,,,,,,,,,,,,,,,,,,,,,,,,,,,
,,600916bb92179b5ecc406460,2024-02-18_20h13.15.308,kallum_motion_pilot,2023.2.2,Win32,74.62686567,600916bb92179b5ecc406460,65d2b6c8f2eece985d8e374c,65d2b9244c64ef8f4bd15951,0.0521,0.0521,1,87,249,0,1,onetwo,,,,,,,,,,,,,,,,,,,,,,,,,,,,,,,,,,,,,,,,,,,,,,,,,,,,,,,,,,,,,,,,,,,,,,,,,,,,,,,,,,,,,,,,,,,,,,,,,,,,,,,,,,,,,,,,,,,,,,,,,,,,,,,,,,,,,,,,,
,,600916bb92179b5ecc406460,2024-02-18_20h13.15.308,kallum_motion_pilot,2023.2.2,Win32,74.62686567,600916bb92179b5ecc406460,65d2b6c8f2eece985d8e374c,65d2b9244c64ef8f4bd15951,0.0522,0.0523,1,88,250,67,1,twofour,,,,,,,,,,,,,,,,,,,,,,,,,,,,,,,,,,,,,,,,,,,,,,,,,,,,,,,,,,,,,,,,,,,,,,,,,,,,,,,,,,,,,,,,,,,,,,,,,,,,,,,,,,,,,,,,,,,,,,,,,,,,,,,,,,,,,,,,,
,,600916bb92179b5ecc406460,2024-02-18_20h13.15.308,kallum_motion_pilot,2023.2.2,Win32,74.62686567,600916bb92179b5ecc406460,65d2b6c8f2eece985d8e374c,65d2b9244c64ef8f4bd15951,0.0523,0.0524,1,89,251,100,1,sevenfive,,,,,,,,,,,,,,,,,,,,,,,,,,,,,,,,,,,,,,,,,,,,,,,,,,,,,,,,,,,,,,,,,,,,,,,,,,,,,,,,,,,,,,,,,,,,,,,,,,,,,,,,,,,,,,,,,,,,,,,,,,,,,,,,,,,,,,,,,
,,600916bb92179b5ecc406460,2024-02-18_20h13.15.308,kallum_motion_pilot,2023.2.2,Win32,74.62686567,600916bb92179b5ecc406460,65d2b6c8f2eece985d8e374c,65d2b9244c64ef8f4bd15951,0.0525,0.0525,1,90,252,112,1,fivesix,,,,,,,,,,,,,,,,,,,,,,,,,,,,,,,,,,,,,,,,,,,,,,,,,,,,,,,,,,,,,,,,,,,,,,,,,,,,,,,,,,,,,,,,,,,,,,,,,,,,,,,,,,,,,,,,,,,,,,,,,,,,,,,,,,,,,,,,,
,,600916bb92179b5ecc406460,2024-02-18_20h13.15.308,kallum_motion_pilot,2023.2.2,Win32,74.62686567,600916bb92179b5ecc406460,65d2b6c8f2eece985d8e374c,65d2b9244c64ef8f4bd15951,0.0525,0.0527,1,91,253,147,1,sixeight,,,,,,,,,,,,,,,,,,,,,,,,,,,,,,,,,,,,,,,,,,,,,,,,,,,,,,,,,,,,,,,,,,,,,,,,,,,,,,,,,,,,,,,,,,,,,,,,,,,,,,,,,,,,,,,,,,,,,,,,,,,,,,,,,,,,,,,,,
,,600916bb92179b5ecc406460,2024-02-18_20h13.15.308,kallum_motion_pilot,2023.2.2,Win32,74.62686567,600916bb92179b5ecc406460,65d2b6c8f2eece985d8e374c,65d2b9244c64ef8f4bd15951,0.0527,0.0527,1,92,254,43,1,twofour,,,,,,,,,,,,,,,,,,,,,,,,,,,,,,,,,,,,,,,,,,,,,,,,,,,,,,,,,,,,,,,,,,,,,,,,,,,,,,,,,,,,,,,,,,,,,,,,,,,,,,,,,,,,,,,,,,,,,,,,,,,,,,,,,,,,,,,,,
,,600916bb92179b5ecc406460,2024-02-18_20h13.15.308,kallum_motion_pilot,2023.2.2,Win32,74.62686567,600916bb92179b5ecc406460,65d2b6c8f2eece985d8e374c,65d2b9244c64ef8f4bd15951,0.0528,0.0529,1,93,255,24,1,onetwo,,,,,,,,,,,,,,,,,,,,,,,,,,,,,,,,,,,,,,,,,,,,,,,,,,,,,,,,,,,,,,,,,,,,,,,,,,,,,,,,,,,,,,,,,,,,,,,,,,,,,,,,,,,,,,,,,,,,,,,,,,,,,,,,,,,,,,,,,
,,600916bb92179b5ecc406460,2024-02-18_20h13.15.308,kallum_motion_pilot,2023.2.2,Win32,74.62686567,600916bb92179b5ecc406460,65d2b6c8f2eece985d8e374c,65d2b9244c64ef8f4bd15951,0.0529,0.053,1,94,256,25,1,onethree,,,,,,,,,,,,,,,,,,,,,,,,,,,,,,,,,,,,,,,,,,,,,,,,,,,,,,,,,,,,,,,,,,,,,,,,,,,,,,,,,,,,,,,,,,,,,,,,,,,,,,,,,,,,,,,,,,,,,,,,,,,,,,,,,,,,,,,,,
,,600916bb92179b5ecc406460,2024-02-18_20h13.15.308,kallum_motion_pilot,2023.2.2,Win32,74.62686567,600916bb92179b5ecc406460,65d2b6c8f2eece985d8e374c,65d2b9244c64ef8f4bd15951,0.053,0.0531,1,95,257,89,1,fiveseven,,,,,,,,,,,,,,,,,,,,,,,,,,,,,,,,,,,,,,,,,,,,,,,,,,,,,,,,,,,,,,,,,,,,,,,,,,,,,,,,,,,,,,,,,,,,,,,,,,,,,,,,,,,,,,,,,,,,,,,,,,,,,,,,,,,,,,,,,
,,600916bb92179b5ecc406460,2024-02-18_20h13.15.308,kallum_motion_pilot,2023.2.2,Win32,74.62686567,600916bb92179b5ecc406460,65d2b6c8f2eece985d8e374c,65d2b9244c64ef8f4bd15951,0.0531,0.0532,1,96,258,126,1,eightsix,,,,,,,,,,,,,,,,,,,,,,,,,,,,,,,,,,,,,,,,,,,,,,,,,,,,,,,,,,,,,,,,,,,,,,,,,,,,,,,,,,,,,,,,,,,,,,,,,,,,,,,,,,,,,,,,,,,,,,,,,,,,,,,,,,,,,,,,,
,,600916bb92179b5ecc406460,2024-02-18_20h13.15.308,kallum_motion_pilot,2023.2.2,Win32,74.62686567,600916bb92179b5ecc406460,65d2b6c8f2eece985d8e374c,65d2b9244c64ef8f4bd15951,0.0532,0.0533,1,97,259,86,1,eightsix,,,,,,,,,,,,,,,,,,,,,,,,,,,,,,,,,,,,,,,,,,,,,,,,,,,,,,,,,,,,,,,,,,,,,,,,,,,,,,,,,,,,,,,,,,,,,,,,,,,,,,,,,,,,,,,,,,,,,,,,,,,,,,,,,,,,,,,,,
,,600916bb92179b5ecc406460,2024-02-18_20h13.15.308,kallum_motion_pilot,2023.2.2,Win32,74.62686567,600916bb92179b5ecc406460,65d2b6c8f2eece985d8e374c,65d2b9244c64ef8f4bd15951,0.0534,0.0534,1,98,260,118,1,eightsix,,,,,,,,,,,,,,,,,,,,,,,,,,,,,,,,,,,,,,,,,,,,,,,,,,,,,,,,,,,,,,,,,,,,,,,,,,,,,,,,,,,,,,,,,,,,,,,,,,,,,,,,,,,,,,,,,,,,,,,,,,,,,,,,,,,,,,,,,
,,600916bb92179b5ecc406460,2024-02-18_20h13.15.308,kallum_motion_pilot,2023.2.2,Win32,74.62686567,600916bb92179b5ecc406460,65d2b6c8f2eece985d8e374c,65d2b9244c64ef8f4bd15951,0.0535,0.0536,1,99,261,66,1,twoone,,,,,,,,,,,,,,,,,,,,,,,,,,,,,,,,,,,,,,,,,,,,,,,,,,,,,,,,,,,,,,,,,,,,,,,,,,,,,,,,,,,,,,,,,,,,,,,,,,,,,,,,,,,,,,,,,,,,,,,,,,,,,,,,,,,,,,,,,
,,600916bb92179b5ecc406460,2024-02-18_20h13.15.308,kallum_motion_pilot,2023.2.2,Win32,74.62686567,600916bb92179b5ecc406460,65d2b6c8f2eece985d8e374c,65d2b9244c64ef8f4bd15951,0.0536,0.0537,1,100,262,90,1,sixfive,,,,,,,,,,,,,,,,,,,,,,,,,,,,,,,,,,,,,,,,,,,,,,,,,,,,,,,,,,,,,,,,,,,,,,,,,,,,,,,,,,,,,,,,,,,,,,,,,,,,,,,,,,,,,,,,,,,,,,,,,,,,,,,,,,,,,,,,,
,,600916bb92179b5ecc406460,2024-02-18_20h13.15.308,kallum_motion_pilot,2023.2.2,Win32,74.62686567,600916bb92179b5ecc406460,65d2b6c8f2eece985d8e374c,65d2b9244c64ef8f4bd15951,0.0537,0.0538,1,101,263,98,1,sixfive,,,,,,,,,,,,,,,,,,,,,,,,,,,,,,,,,,,,,,,,,,,,,,,,,,,,,,,,,,,,,,,,,,,,,,,,,,,,,,,,,,,,,,,,,,,,,,,,,,,,,,,,,,,,,,,,,,,,,,,,,,,,,,,,,,,,,,,,,
,,600916bb92179b5ecc406460,2024-02-18_20h13.15.308,kallum_motion_pilot,2023.2.2,Win32,74.62686567,600916bb92179b5ecc406460,65d2b6c8f2eece985d8e374c,65d2b9244c64ef8f4bd15951,0.0539,0.054,1,102,264,123,1,sixeight,,,,,,,,,,,,,,,,,,,,,,,,,,,,,,,,,,,,,,,,,,,,,,,,,,,,,,,,,,,,,,,,,,,,,,,,,,,,,,,,,,,,,,,,,,,,,,,,,,,,,,,,,,,,,,,,,,,,,,,,,,,,,,,,,,,,,,,,,
,,600916bb92179b5ecc406460,2024-02-18_20h13.15.308,kallum_motion_pilot,2023.2.2,Win32,74.62686567,600916bb92179b5ecc406460,65d2b6c8f2eece985d8e374c,65d2b9244c64ef8f4bd15951,0.054,0.0541,1,103,265,62,1,fourtwo,,,,,,,,,,,,,,,,,,,,,,,,,,,,,,,,,,,,,,,,,,,,,,,,,,,,,,,,,,,,,,,,,,,,,,,,,,,,,,,,,,,,,,,,,,,,,,,,,,,,,,,,,,,,,,,,,,,,,,,,,,,,,,,,,,,,,,,,,
,,600916bb92179b5ecc406460,2024-02-18_20h13.15.308,kallum_motion_pilot,2023.2.2,Win32,74.62686567,600916bb92179b5ecc406460,65d2b6c8f2eece985d8e374c,65d2b9244c64ef8f4bd15951,0.0541,0.0542,1,104,266,50,1,twoone,,,,,,,,,,,,,,,,,,,,,,,,,,,,,,,,,,,,,,,,,,,,,,,,,,,,,,,,,,,,,,,,,,,,,,,,,,,,,,,,,,,,,,,,,,,,,,,,,,,,,,,,,,,,,,,,,,,,,,,,,,,,,,,,,,,,,,,,,
,,600916bb92179b5ecc406460,2024-02-18_20h13.15.308,kallum_motion_pilot,2023.2.2,Win32,74.62686567,600916bb92179b5ecc406460,65d2b6c8f2eece985d8e374c,65d2b9244c64ef8f4bd15951,0.0542,0.0543,1,105,267,1,1,onethree,,,,,,,,,,,,,,,,,,,,,,,,,,,,,,,,,,,,,,,,,,,,,,,,,,,,,,,,,,,,,,,,,,,,,,,,,,,,,,,,,,,,,,,,,,,,,,,,,,,,,,,,,,,,,,,,,,,,,,,,,,,,,,,,,,,,,,,,,
,,600916bb92179b5ecc406460,2024-02-18_20h13.15.308,kallum_motion_pilot,2023.2.2,Win32,74.62686567,600916bb92179b5ecc406460,65d2b6c8f2eece985d8e374c,65d2b9244c64ef8f4bd15951,0.0544,0.0545,1,106,268,36,1,threeone,,,,,,,,,,,,,,,,,,,,,,,,,,,,,,,,,,,,,,,,,,,,,,,,,,,,,,,,,,,,,,,,,,,,,,,,,,,,,,,,,,,,,,,,,,,,,,,,,,,,,,,,,,,,,,,,,,,,,,,,,,,,,,,,,,,,,,,,,
,,600916bb92179b5ecc406460,2024-02-18_20h13.15.308,kallum_motion_pilot,2023.2.2,Win32,74.62686567,600916bb92179b5ecc406460,65d2b6c8f2eece985d8e374c,65d2b9244c64ef8f4bd15951,0.0545,0.0546,1,107,269,73,1,onethree,,,,,,,,,,,,,,,,,,,,,,,,,,,,,,,,,,,,,,,,,,,,,,,,,,,,,,,,,,,,,,,,,,,,,,,,,,,,,,,,,,,,,,,,,,,,,,,,,,,,,,,,,,,,,,,,,,,,,,,,,,,,,,,,,,,,,,,,,
,,600916bb92179b5ecc406460,2024-02-18_20h13.15.308,kallum_motion_pilot,2023.2.2,Win32,74.62686567,600916bb92179b5ecc406460,65d2b6c8f2eece985d8e374c,65d2b9244c64ef8f4bd15951,0.0547,0.0548,1,108,270,145,1,fiveseven,,,,,,,,,,,,,,,,,,,,,,,,,,,,,,,,,,,,,,,,,,,,,,,,,,,,,,,,,,,,,,,,,,,,,,,,,,,,,,,,,,,,,,,,,,,,,,,,,,,,,,,,,,,,,,,,,,,,,,,,,,,,,,,,,,,,,,,,,
,,600916bb92179b5ecc406460,2024-02-18_20h13.15.308,kallum_motion_pilot,2023.2.2,Win32,74.62686567,600916bb92179b5ecc406460,65d2b6c8f2eece985d8e374c,65d2b9244c64ef8f4bd15951,0.0549,0.055,1,109,271,40,1,onetwo,,,,,,,,,,,,,,,,,,,,,,,,,,,,,,,,,,,,,,,,,,,,,,,,,,,,,,,,,,,,,,,,,,,,,,,,,,,,,,,,,,,,,,,,,,,,,,,,,,,,,,,,,,,,,,,,,,,,,,,,,,,,,,,,,,,,,,,,,
,,600916bb92179b5ecc406460,2024-02-18_20h13.15.308,kallum_motion_pilot,2023.2.2,Win32,74.62686567,600916bb92179b5ecc406460,65d2b6c8f2eece985d8e374c,65d2b9244c64ef8f4bd15951,0.0551,0.0552,1,110,272,34,1,twoone,,,,,,,,,,,,,,,,,,,,,,,,,,,,,,,,,,,,,,,,,,,,,,,,,,,,,,,,,,,,,,,,,,,,,,,,,,,,,,,,,,,,,,,,,,,,,,,,,,,,,,,,,,,,,,,,,,,,,,,,,,,,,,,,,,,,,,,,,
,,600916bb92179b5ecc406460,2024-02-18_20h13.15.308,kallum_motion_pilot,2023.2.2,Win32,74.62686567,600916bb92179b5ecc406460,65d2b6c8f2eece985d8e374c,65d2b9244c64ef8f4bd15951,0.0552,0.0554,1,111,273,51,1,twofour,,,,,,,,,,,,,,,,,,,,,,,,,,,,,,,,,,,,,,,,,,,,,,,,,,,,,,,,,,,,,,,,,,,,,,,,,,,,,,,,,,,,,,,,,,,,,,,,,,,,,,,,,,,,,,,,,,,,,,,,,,,,,,,,,,,,,,,,,
,,600916bb92179b5ecc406460,2024-02-18_20h13.15.308,kallum_motion_pilot,2023.2.2,Win32,74.62686567,600916bb92179b5ecc406460,65d2b6c8f2eece985d8e374c,65d2b9244c64ef8f4bd15951,0.0554,0.0555,1,112,274,14,1,fourtwo,,,,,,,,,,,,,,,,,,,,,,,,,,,,,,,,,,,,,,,,,,,,,,,,,,,,,,,,,,,,,,,,,,,,,,,,,,,,,,,,,,,,,,,,,,,,,,,,,,,,,,,,,,,,,,,,,,,,,,,,,,,,,,,,,,,,,,,,,
,,600916bb92179b5ecc406460,2024-02-18_20h13.15.308,kallum_motion_pilot,2023.2.2,Win32,74.62686567,600916bb92179b5ecc406460,65d2b6c8f2eece985d8e374c,65d2b9244c64ef8f4bd15951,0.0556,0.0557,1,113,275,92,1,sevenfive,,,,,,,,,,,,,,,,,,,,,,,,,,,,,,,,,,,,,,,,,,,,,,,,,,,,,,,,,,,,,,,,,,,,,,,,,,,,,,,,,,,,,,,,,,,,,,,,,,,,,,,,,,,,,,,,,,,,,,,,,,,,,,,,,,,,,,,,,
,,600916bb92179b5ecc406460,2024-02-18_20h13.15.308,kallum_motion_pilot,2023.2.2,Win32,74.62686567,600916bb92179b5ecc406460,65d2b6c8f2eece985d8e374c,65d2b9244c64ef8f4bd15951,0.0558,0.0559,1,114,276,149,1,seveneight,,,,,,,,,,,,,,,,,,,,,,,,,,,,,,,,,,,,,,,,,,,,,,,,,,,,,,,,,,,,,,,,,,,,,,,,,,,,,,,,,,,,,,,,,,,,,,,,,,,,,,,,,,,,,,,,,,,,,,,,,,,,,,,,,,,,,,,,,
,,600916bb92179b5ecc406460,2024-02-18_20h13.15.308,kallum_motion_pilot,2023.2.2,Win32,74.62686567,600916bb92179b5ecc406460,65d2b6c8f2eece985d8e374c,65d2b9244c64ef8f4bd15951,0.0559,0.056,1,115,277,38,1,fourtwo,,,,,,,,,,,,,,,,,,,,,,,,,,,,,,,,,,,,,,,,,,,,,,,,,,,,,,,,,,,,,,,,,,,,,,,,,,,,,,,,,,,,,,,,,,,,,,,,,,,,,,,,,,,,,,,,,,,,,,,,,,,,,,,,,,,,,,,,,
