startup.started,startup.stopped,Prolific ID*,date,expName,psychopyVersion,OS,frameRate,participant,study_id,session,stimpositions.started,stimpositions.stopped,hardcoded_stimulus_positions.thisRepN,hardcoded_stimulus_positions.thisTrialN,hardcoded_stimulus_positions.thisN,hardcoded_stimulus_positions.thisIndex,hardcoded_stimulus_positions.ran,StimulusPos,stimorientation.started,stimorientation.stopped,prac_stimorientation_import_loop.thisRepN,prac_stimorientation_import_loop.thisTrialN,prac_stimorientation_import_loop.thisN,prac_stimorientation_import_loop.thisIndex,prac_stimorientation_import_loop.ran,Stimorientation,welcome_instr.started,welcome_instr.stopped,key_resp.keys,key_resp.rt,key_resp.duration,response_steppedout_1.started,response_steppedout_1.stopped,key_resp_20.keys,key_resp_20.rt,key_resp_20.duration,response_steppedout_2.started,response_steppedout_2.stopped,key_resp_19.keys,key_resp_19.rt,key_resp_19.duration,stim_response_instr.started,stim_response_instr.stopped,key_resp_15.keys,key_resp_15.rt,key_resp_15.duration,direction_instr_2.started,direction_instr_2.stopped,key_resp_9.keys,key_resp_9.rt,key_resp_9.duration,instr_prac.started,instr_prac.stopped,key_resp_10.keys,key_resp_10.rt,key_resp_10.duration,Stim1_display_prac.started,Stim1_display_prac.stopped,Ecc,Circle1_ori,Circle2_ori,response_prac.started,similarity,response_time,response_prac.stopped,mouse_5.x,mouse_5.y,mouse_5.leftButton,mouse_5.midButton,mouse_5.rightButton,mouse_5.clicked_name,responseprac_feedback.started,responseprac_feedback.stopped,summary2_prac.started,summary2_prac.stopped,mouse_6.x,mouse_6.y,mouse_6.leftButton,mouse_6.midButton,mouse_6.rightButton,mouse_6.clicked_name,duringprac.thisRepN,duringprac.thisTrialN,duringprac.thisN,duringprac.thisIndex,duringprac.ran,begin.started,begin.stopped,key_resp_22.keys,key_resp_22.rt,key_resp_22.duration,Stim1_display.started,Stim1_display.stopped,circle1_ori,circle2_ori,circle1_SF,circle2_SF,response.started,response.stopped,mouse.x,mouse.y,mouse.leftButton,mouse.midButton,mouse.rightButton,mouse.clicked_name,trialnumber,double_pass.thisRepN,double_pass.thisTrialN,double_pass.thisN,double_pass.thisIndex,double_pass.ran,double_pass.order,main_trial.thisRepN,main_trial.thisTrialN,main_trial.thisN,main_trial.thisIndex,main_trial.ran,main_trial.order,Trial_Counter,Catch,Frequencies,response_2.started,response_2.stopped,mouse_2.x,mouse_2.y,mouse_2.leftButton,mouse_2.midButton,mouse_2.rightButton,mouse_2.clicked_name,special_trial.started,special_trial.stopped,catch_1.started,catch_1.stopped,mouse_3.x,mouse_3.y,mouse_3.leftButton,mouse_3.midButton,mouse_3.rightButton,catchresponse,catchnumber,response_time_catch,response_sum.started,response_sum.stopped,mouse_11.x,mouse_11.y,mouse_11.leftButton,mouse_11.midButton,mouse_11.rightButton,flip_presentation_sequence_for_double_pass.started,flip_presentation_sequence_for_double_pass.stopped,goodbye.started,goodbye.stopped,key_resp_3.keys,key_resp_3.rt,key_resp_3.duration
0.0003,0.0004,601857c3c3f5ce0c3e5fb913,2024-02-18_20h17.21.577,kallum_motion_pilot,2023.2.2,Win32,163.9344262,601857c3c3f5ce0c3e5fb913,65d2b6c8f2eece985d8e374c,65d2b9360b64bbe7b18e2682,,,,,,,,,,,,,,,,,,,,,,,,,,,,,,,,,,,,,,,,,,,,,,,,,,,,,,,,,,,,,,,,,,,,,,,,,,,,,,,,,,,,,,,,,,,,,,,,,,,,,,,,,,,,,,,,,,,,,,,,,,,,,,,,,,,,,,,,,,,,,,,,,
,,601857c3c3f5ce0c3e5fb913,2024-02-18_20h17.21.577,kallum_motion_pilot,2023.2.2,Win32,163.9344262,601857c3c3f5ce0c3e5fb913,65d2b6c8f2eece985d8e374c,65d2b9360b64bbe7b18e2682,0.0145,0.0146,0,0,0,44,1,threeone,,,,,,,,,,,,,,,,,,,,,,,,,,,,,,,,,,,,,,,,,,,,,,,,,,,,,,,,,,,,,,,,,,,,,,,,,,,,,,,,,,,,,,,,,,,,,,,,,,,,,,,,,,,,,,,,,,,,,,,,,,,,,,,,,,,,,,,,,
,,601857c3c3f5ce0c3e5fb913,2024-02-18_20h17.21.577,kallum_motion_pilot,2023.2.2,Win32,163.9344262,601857c3c3f5ce0c3e5fb913,65d2b6c8f2eece985d8e374c,65d2b9360b64bbe7b18e2682,0.0148,0.0148,0,1,1,58,1,twoone,,,,,,,,,,,,,,,,,,,,,,,,,,,,,,,,,,,,,,,,,,,,,,,,,,,,,,,,,,,,,,,,,,,,,,,,,,,,,,,,,,,,,,,,,,,,,,,,,,,,,,,,,,,,,,,,,,,,,,,,,,,,,,,,,,,,,,,,,
,,601857c3c3f5ce0c3e5fb913,2024-02-18_20h17.21.577,kallum_motion_pilot,2023.2.2,Win32,163.9344262,601857c3c3f5ce0c3e5fb913,65d2b6c8f2eece985d8e374c,65d2b9360b64bbe7b18e2682,0.0149,0.0149,0,2,2,28,1,threeone,,,,,,,,,,,,,,,,,,,,,,,,,,,,,,,,,,,,,,,,,,,,,,,,,,,,,,,,,,,,,,,,,,,,,,,,,,,,,,,,,,,,,,,,,,,,,,,,,,,,,,,,,,,,,,,,,,,,,,,,,,,,,,,,,,,,,,,,,
,,601857c3c3f5ce0c3e5fb913,2024-02-18_20h17.21.577,kallum_motion_pilot,2023.2.2,Win32,163.9344262,601857c3c3f5ce0c3e5fb913,65d2b6c8f2eece985d8e374c,65d2b9360b64bbe7b18e2682,0.015,0.015,0,3,3,78,1,fourtwo,,,,,,,,,,,,,,,,,,,,,,,,,,,,,,,,,,,,,,,,,,,,,,,,,,,,,,,,,,,,,,,,,,,,,,,,,,,,,,,,,,,,,,,,,,,,,,,,,,,,,,,,,,,,,,,,,,,,,,,,,,,,,,,,,,,,,,,,,
,,601857c3c3f5ce0c3e5fb913,2024-02-18_20h17.21.577,kallum_motion_pilot,2023.2.2,Win32,163.9344262,601857c3c3f5ce0c3e5fb913,65d2b6c8f2eece985d8e374c,65d2b9360b64bbe7b18e2682,0.0151,0.0151,0,4,4,15,1,fourthree,,,,,,,,,,,,,,,,,,,,,,,,,,,,,,,,,,,,,,,,,,,,,,,,,,,,,,,,,,,,,,,,,,,,,,,,,,,,,,,,,,,,,,,,,,,,,,,,,,,,,,,,,,,,,,,,,,,,,,,,,,,,,,,,,,,,,,,,,
,,601857c3c3f5ce0c3e5fb913,2024-02-18_20h17.21.577,kallum_motion_pilot,2023.2.2,Win32,163.9344262,601857c3c3f5ce0c3e5fb913,65d2b6c8f2eece985d8e374c,65d2b9360b64bbe7b18e2682,0.0152,0.0152,0,5,5,89,1,fiveseven,,,,,,,,,,,,,,,,,,,,,,,,,,,,,,,,,,,,,,,,,,,,,,,,,,,,,,,,,,,,,,,,,,,,,,,,,,,,,,,,,,,,,,,,,,,,,,,,,,,,,,,,,,,,,,,,,,,,,,,,,,,,,,,,,,,,,,,,,
,,601857c3c3f5ce0c3e5fb913,2024-02-18_20h17.21.577,kallum_motion_pilot,2023.2.2,Win32,163.9344262,601857c3c3f5ce0c3e5fb913,65d2b6c8f2eece985d8e374c,65d2b9360b64bbe7b18e2682,0.0152,0.0152,0,6,6,146,1,sixfive,,,,,,,,,,,,,,,,,,,,,,,,,,,,,,,,,,,,,,,,,,,,,,,,,,,,,,,,,,,,,,,,,,,,,,,,,,,,,,,,,,,,,,,,,,,,,,,,,,,,,,,,,,,,,,,,,,,,,,,,,,,,,,,,,,,,,,,,,
,,601857c3c3f5ce0c3e5fb913,2024-02-18_20h17.21.577,kallum_motion_pilot,2023.2.2,Win32,163.9344262,601857c3c3f5ce0c3e5fb913,65d2b6c8f2eece985d8e374c,65d2b9360b64bbe7b18e2682,0.0153,0.0153,0,7,7,72,1,onetwo,,,,,,,,,,,,,,,,,,,,,,,,,,,,,,,,,,,,,,,,,,,,,,,,,,,,,,,,,,,,,,,,,,,,,,,,,,,,,,,,,,,,,,,,,,,,,,,,,,,,,,,,,,,,,,,,,,,,,,,,,,,,,,,,,,,,,,,,,
,,601857c3c3f5ce0c3e5fb913,2024-02-18_20h17.21.577,kallum_motion_pilot,2023.2.2,Win32,163.9344262,601857c3c3f5ce0c3e5fb913,65d2b6c8f2eece985d8e374c,65d2b9360b64bbe7b18e2682,0.0154,0.0154,0,8,8,49,1,onethree,,,,,,,,,,,,,,,,,,,,,,,,,,,,,,,,,,,,,,,,,,,,,,,,,,,,,,,,,,,,,,,,,,,,,,,,,,,,,,,,,,,,,,,,,,,,,,,,,,,,,,,,,,,,,,,,,,,,,,,,,,,,,,,,,,,,,,,,,
,,601857c3c3f5ce0c3e5fb913,2024-02-18_20h17.21.577,kallum_motion_pilot,2023.2.2,Win32,163.9344262,601857c3c3f5ce0c3e5fb913,65d2b6c8f2eece985d8e374c,65d2b9360b64bbe7b18e2682,0.0154,0.0155,0,9,9,104,1,fivesix,,,,,,,,,,,,,,,,,,,,,,,,,,,,,,,,,,,,,,,,,,,,,,,,,,,,,,,,,,,,,,,,,,,,,,,,,,,,,,,,,,,,,,,,,,,,,,,,,,,,,,,,,,,,,,,,,,,,,,,,,,,,,,,,,,,,,,,,,
,,601857c3c3f5ce0c3e5fb913,2024-02-18_20h17.21.577,kallum_motion_pilot,2023.2.2,Win32,163.9344262,601857c3c3f5ce0c3e5fb913,65d2b6c8f2eece985d8e374c,65d2b9360b64bbe7b18e2682,0.0155,0.0155,0,10,10,43,1,twofour,,,,,,,,,,,,,,,,,,,,,,,,,,,,,,,,,,,,,,,,,,,,,,,,,,,,,,,,,,,,,,,,,,,,,,,,,,,,,,,,,,,,,,,,,,,,,,,,,,,,,,,,,,,,,,,,,,,,,,,,,,,,,,,,,,,,,,,,,
,,601857c3c3f5ce0c3e5fb913,2024-02-18_20h17.21.577,kallum_motion_pilot,2023.2.2,Win32,163.9344262,601857c3c3f5ce0c3e5fb913,65d2b6c8f2eece985d8e374c,65d2b9360b64bbe7b18e2682,0.0157,0.0157,0,11,11,150,1,eightsix,,,,,,,,,,,,,,,,,,,,,,,,,,,,,,,,,,,,,,,,,,,,,,,,,,,,,,,,,,,,,,,,,,,,,,,,,,,,,,,,,,,,,,,,,,,,,,,,,,,,,,,,,,,,,,,,,,,,,,,,,,,,,,,,,,,,,,,,,
,,601857c3c3f5ce0c3e5fb913,2024-02-18_20h17.21.577,kallum_motion_pilot,2023.2.2,Win32,163.9344262,601857c3c3f5ce0c3e5fb913,65d2b6c8f2eece985d8e374c,65d2b9360b64bbe7b18e2682,0.0157,0.0157,0,12,12,132,1,sevenfive,,,,,,,,,,,,,,,,,,,,,,,,,,,,,,,,,,,,,,,,,,,,,,,,,,,,,,,,,,,,,,,,,,,,,,,,,,,,,,,,,,,,,,,,,,,,,,,,,,,,,,,,,,,,,,,,,,,,,,,,,,,,,,,,,,,,,,,,,
,,601857c3c3f5ce0c3e5fb913,2024-02-18_20h17.21.577,kallum_motion_pilot,2023.2.2,Win32,163.9344262,601857c3c3f5ce0c3e5fb913,65d2b6c8f2eece985d8e374c,65d2b9360b64bbe7b18e2682,0.0157,0.0157,0,13,13,119,1,eightseven,,,,,,,,,,,,,,,,,,,,,,,,,,,,,,,,,,,,,,,,,,,,,,,,,,,,,,,,,,,,,,,,,,,,,,,,,,,,,,,,,,,,,,,,,,,,,,,,,,,,,,,,,,,,,,,,,,,,,,,,,,,,,,,,,,,,,,,,,
,,601857c3c3f5ce0c3e5fb913,2024-02-18_20h17.21.577,kallum_motion_pilot,2023.2.2,Win32,163.9344262,601857c3c3f5ce0c3e5fb913,65d2b6c8f2eece985d8e374c,65d2b9360b64bbe7b18e2682,0.0158,0.0158,0,14,14,94,1,eightsix,,,,,,,,,,,,,,,,,,,,,,,,,,,,,,,,,,,,,,,,,,,,,,,,,,,,,,,,,,,,,,,,,,,,,,,,,,,,,,,,,,,,,,,,,,,,,,,,,,,,,,,,,,,,,,,,,,,,,,,,,,,,,,,,,,,,,,,,,
,,601857c3c3f5ce0c3e5fb913,2024-02-18_20h17.21.577,kallum_motion_pilot,2023.2.2,Win32,163.9344262,601857c3c3f5ce0c3e5fb913,65d2b6c8f2eece985d8e374c,65d2b9360b64bbe7b18e2682,0.0159,0.0159,0,15,15,123,1,sixeight,,,,,,,,,,,,,,,,,,,,,,,,,,,,,,,,,,,,,,,,,,,,,,,,,,,,,,,,,,,,,,,,,,,,,,,,,,,,,,,,,,,,,,,,,,,,,,,,,,,,,,,,,,,,,,,,,,,,,,,,,,,,,,,,,,,,,,,,,
,,601857c3c3f5ce0c3e5fb913,2024-02-18_20h17.21.577,kallum_motion_pilot,2023.2.2,Win32,163.9344262,601857c3c3f5ce0c3e5fb913,65d2b6c8f2eece985d8e374c,65d2b9360b64bbe7b18e2682,0.0159,0.0159,0,16,16,77,1,threefour,,,,,,,,,,,,,,,,,,,,,,,,,,,,,,,,,,,,,,,,,,,,,,,,,,,,,,,,,,,,,,,,,,,,,,,,,,,,,,,,,,,,,,,,,,,,,,,,,,,,,,,,,,,,,,,,,,,,,,,,,,,,,,,,,,,,,,,,,
,,601857c3c3f5ce0c3e5fb913,2024-02-18_20h17.21.577,kallum_motion_pilot,2023.2.2,Win32,163.9344262,601857c3c3f5ce0c3e5fb913,65d2b6c8f2eece985d8e374c,65d2b9360b64bbe7b18e2682,0.0159,0.0159,0,17,17,37,1,threefour,,,,,,,,,,,,,,,,,,,,,,,,,,,,,,,,,,,,,,,,,,,,,,,,,,,,,,,,,,,,,,,,,,,,,,,,,,,,,,,,,,,,,,,,,,,,,,,,,,,,,,,,,,,,,,,,,,,,,,,,,,,,,,,,,,,,,,,,,
,,601857c3c3f5ce0c3e5fb913,2024-02-18_20h17.21.577,kallum_motion_pilot,2023.2.2,Win32,163.9344262,601857c3c3f5ce0c3e5fb913,65d2b6c8f2eece985d8e374c,65d2b9360b64bbe7b18e2682,0.016,0.016,0,18,18,64,1,onetwo,,,,,,,,,,,,,,,,,,,,,,,,,,,,,,,,,,,,,,,,,,,,,,,,,,,,,,,,,,,,,,,,,,,,,,,,,,,,,,,,,,,,,,,,,,,,,,,,,,,,,,,,,,,,,,,,,,,,,,,,,,,,,,,,,,,,,,,,,
,,601857c3c3f5ce0c3e5fb913,2024-02-18_20h17.21.577,kallum_motion_pilot,2023.2.2,Win32,163.9344262,601857c3c3f5ce0c3e5fb913,65d2b6c8f2eece985d8e374c,65d2b9360b64bbe7b18e2682,0.016,0.016,0,19,19,79,1,eightseven,,,,,,,,,,,,,,,,,,,,,,,,,,,,,,,,,,,,,,,,,,,,,,,,,,,,,,,,,,,,,,,,,,,,,,,,,,,,,,,,,,,,,,,,,,,,,,,,,,,,,,,,,,,,,,,,,,,,,,,,,,,,,,,,,,,,,,,,,
,,601857c3c3f5ce0c3e5fb913,2024-02-18_20h17.21.577,kallum_motion_pilot,2023.2.2,Win32,163.9344262,601857c3c3f5ce0c3e5fb913,65d2b6c8f2eece985d8e374c,65d2b9360b64bbe7b18e2682,0.0161,0.0161,0,20,20,32,1,onetwo,,,,,,,,,,,,,,,,,,,,,,,,,,,,,,,,,,,,,,,,,,,,,,,,,,,,,,,,,,,,,,,,,,,,,,,,,,,,,,,,,,,,,,,,,,,,,,,,,,,,,,,,,,,,,,,,,,,,,,,,,,,,,,,,,,,,,,,,,
,,601857c3c3f5ce0c3e5fb913,2024-02-18_20h17.21.577,kallum_motion_pilot,2023.2.2,Win32,163.9344262,601857c3c3f5ce0c3e5fb913,65d2b6c8f2eece985d8e374c,65d2b9360b64bbe7b18e2682,0.0161,0.0161,0,21,21,116,1,sevenfive,,,,,,,,,,,,,,,,,,,,,,,,,,,,,,,,,,,,,,,,,,,,,,,,,,,,,,,,,,,,,,,,,,,,,,,,,,,,,,,,,,,,,,,,,,,,,,,,,,,,,,,,,,,,,,,,,,,,,,,,,,,,,,,,,,,,,,,,,
,,601857c3c3f5ce0c3e5fb913,2024-02-18_20h17.21.577,kallum_motion_pilot,2023.2.2,Win32,163.9344262,601857c3c3f5ce0c3e5fb913,65d2b6c8f2eece985d8e374c,65d2b9360b64bbe7b18e2682,0.0162,0.0162,0,22,22,51,1,twofour,,,,,,,,,,,,,,,,,,,,,,,,,,,,,,,,,,,,,,,,,,,,,,,,,,,,,,,,,,,,,,,,,,,,,,,,,,,,,,,,,,,,,,,,,,,,,,,,,,,,,,,,,,,,,,,,,,,,,,,,,,,,,,,,,,,,,,,,,
,,601857c3c3f5ce0c3e5fb913,2024-02-18_20h17.21.577,kallum_motion_pilot,2023.2.2,Win32,163.9344262,601857c3c3f5ce0c3e5fb913,65d2b6c8f2eece985d8e374c,65d2b9360b64bbe7b18e2682,0.0162,0.0163,0,23,23,86,1,eightsix,,,,,,,,,,,,,,,,,,,,,,,,,,,,,,,,,,,,,,,,,,,,,,,,,,,,,,,,,,,,,,,,,,,,,,,,,,,,,,,,,,,,,,,,,,,,,,,,,,,,,,,,,,,,,,,,,,,,,,,,,,,,,,,,,,,,,,,,,
,,601857c3c3f5ce0c3e5fb913,2024-02-18_20h17.21.577,kallum_motion_pilot,2023.2.2,Win32,163.9344262,601857c3c3f5ce0c3e5fb913,65d2b6c8f2eece985d8e374c,65d2b9360b64bbe7b18e2682,0.0163,0.0163,0,24,24,133,1,seveneight,,,,,,,,,,,,,,,,,,,,,,,,,,,,,,,,,,,,,,,,,,,,,,,,,,,,,,,,,,,,,,,,,,,,,,,,,,,,,,,,,,,,,,,,,,,,,,,,,,,,,,,,,,,,,,,,,,,,,,,,,,,,,,,,,,,,,,,,,
,,601857c3c3f5ce0c3e5fb913,2024-02-18_20h17.21.577,kallum_motion_pilot,2023.2.2,Win32,163.9344262,601857c3c3f5ce0c3e5fb913,65d2b6c8f2eece985d8e374c,65d2b9360b64bbe7b18e2682,0.0163,0.0164,0,25,25,85,1,seveneight,,,,,,,,,,,,,,,,,,,,,,,,,,,,,,,,,,,,,,,,,,,,,,,,,,,,,,,,,,,,,,,,,,,,,,,,,,,,,,,,,,,,,,,,,,,,,,,,,,,,,,,,,,,,,,,,,,,,,,,,,,,,,,,,,,,,,,,,,
,,601857c3c3f5ce0c3e5fb913,2024-02-18_20h17.21.577,kallum_motion_pilot,2023.2.2,Win32,163.9344262,601857c3c3f5ce0c3e5fb913,65d2b6c8f2eece985d8e374c,65d2b9360b64bbe7b18e2682,0.0165,0.0165,0,26,26,88,1,fivesix,,,,,,,,,,,,,,,,,,,,,,,,,,,,,,,,,,,,,,,,,,,,,,,,,,,,,,,,,,,,,,,,,,,,,,,,,,,,,,,,,,,,,,,,,,,,,,,,,,,,,,,,,,,,,,,,,,,,,,,,,,,,,,,,,,,,,,,,,
,,601857c3c3f5ce0c3e5fb913,2024-02-18_20h17.21.577,kallum_motion_pilot,2023.2.2,Win32,163.9344262,601857c3c3f5ce0c3e5fb913,65d2b6c8f2eece985d8e374c,65d2b9360b64bbe7b18e2682,0.0165,0.0165,0,27,27,3,1,twofour,,,,,,,,,,,,,,,,,,,,,,,,,,,,,,,,,,,,,,,,,,,,,,,,,,,,,,,,,,,,,,,,,,,,,,,,,,,,,,,,,,,,,,,,,,,,,,,,,,,,,,,,,,,,,,,,,,,,,,,,,,,,,,,,,,,,,,,,,
,,601857c3c3f5ce0c3e5fb913,2024-02-18_20h17.21.577,kallum_motion_pilot,2023.2.2,Win32,163.9344262,601857c3c3f5ce0c3e5fb913,65d2b6c8f2eece985d8e374c,65d2b9360b64bbe7b18e2682,0.0166,0.0166,0,28,28,33,1,onethree,,,,,,,,,,,,,,,,,,,,,,,,,,,,,,,,,,,,,,,,,,,,,,,,,,,,,,,,,,,,,,,,,,,,,,,,,,,,,,,,,,,,,,,,,,,,,,,,,,,,,,,,,,,,,,,,,,,,,,,,,,,,,,,,,,,,,,,,,
,,601857c3c3f5ce0c3e5fb913,2024-02-18_20h17.21.577,kallum_motion_pilot,2023.2.2,Win32,163.9344262,601857c3c3f5ce0c3e5fb913,65d2b6c8f2eece985d8e374c,65d2b9360b64bbe7b18e2682,0.0166,0.0166,0,29,29,142,1,eightsix,,,,,,,,,,,,,,,,,,,,,,,,,,,,,,,,,,,,,,,,,,,,,,,,,,,,,,,,,,,,,,,,,,,,,,,,,,,,,,,,,,,,,,,,,,,,,,,,,,,,,,,,,,,,,,,,,,,,,,,,,,,,,,,,,,,,,,,,,
,,601857c3c3f5ce0c3e5fb913,2024-02-18_20h17.21.577,kallum_motion_pilot,2023.2.2,Win32,163.9344262,601857c3c3f5ce0c3e5fb913,65d2b6c8f2eece985d8e374c,65d2b9360b64bbe7b18e2682,0.0166,0.0167,0,30,30,18,1,twoone,,,,,,,,,,,,,,,,,,,,,,,,,,,,,,,,,,,,,,,,,,,,,,,,,,,,,,,,,,,,,,,,,,,,,,,,,,,,,,,,,,,,,,,,,,,,,,,,,,,,,,,,,,,,,,,,,,,,,,,,,,,,,,,,,,,,,,,,,
,,601857c3c3f5ce0c3e5fb913,2024-02-18_20h17.21.577,kallum_motion_pilot,2023.2.2,Win32,163.9344262,601857c3c3f5ce0c3e5fb913,65d2b6c8f2eece985d8e374c,65d2b9360b64bbe7b18e2682,0.0167,0.0168,0,31,31,112,1,fivesix,,,,,,,,,,,,,,,,,,,,,,,,,,,,,,,,,,,,,,,,,,,,,,,,,,,,,,,,,,,,,,,,,,,,,,,,,,,,,,,,,,,,,,,,,,,,,,,,,,,,,,,,,,,,,,,,,,,,,,,,,,,,,,,,,,,,,,,,,
,,601857c3c3f5ce0c3e5fb913,2024-02-18_20h17.21.577,kallum_motion_pilot,2023.2.2,Win32,163.9344262,601857c3c3f5ce0c3e5fb913,65d2b6c8f2eece985d8e374c,65d2b9360b64bbe7b18e2682,0.0168,0.0168,0,32,32,155,1,sixeight,,,,,,,,,,,,,,,,,,,,,,,,,,,,,,,,,,,,,,,,,,,,,,,,,,,,,,,,,,,,,,,,,,,,,,,,,,,,,,,,,,,,,,,,,,,,,,,,,,,,,,,,,,,,,,,,,,,,,,,,,,,,,,,,,,,,,,,,,
,,601857c3c3f5ce0c3e5fb913,2024-02-18_20h17.21.577,kallum_motion_pilot,2023.2.2,Win32,163.9344262,601857c3c3f5ce0c3e5fb913,65d2b6c8f2eece985d8e374c,65d2b9360b64bbe7b18e2682,0.0168,0.0168,0,33,33,26,1,twoone,,,,,,,,,,,,,,,,,,,,,,,,,,,,,,,,,,,,,,,,,,,,,,,,,,,,,,,,,,,,,,,,,,,,,,,,,,,,,,,,,,,,,,,,,,,,,,,,,,,,,,,,,,,,,,,,,,,,,,,,,,,,,,,,,,,,,,,,,
,,601857c3c3f5ce0c3e5fb913,2024-02-18_20h17.21.577,kallum_motion_pilot,2023.2.2,Win32,163.9344262,601857c3c3f5ce0c3e5fb913,65d2b6c8f2eece985d8e374c,65d2b9360b64bbe7b18e2682,0.0169,0.0169,0,34,34,8,1,onetwo,,,,,,,,,,,,,,,,,,,,,,,,,,,,,,,,,,,,,,,,,,,,,,,,,,,,,,,,,,,,,,,,,,,,,,,,,,,,,,,,,,,,,,,,,,,,,,,,,,,,,,,,,,,,,,,,,,,,,,,,,,,,,,,,,,,,,,,,,
,,601857c3c3f5ce0c3e5fb913,2024-02-18_20h17.21.577,kallum_motion_pilot,2023.2.2,Win32,163.9344262,601857c3c3f5ce0c3e5fb913,65d2b6c8f2eece985d8e374c,65d2b9360b64bbe7b18e2682,0.0169,0.0169,0,35,35,134,1,eightsix,,,,,,,,,,,,,,,,,,,,,,,,,,,,,,,,,,,,,,,,,,,,,,,,,,,,,,,,,,,,,,,,,,,,,,,,,,,,,,,,,,,,,,,,,,,,,,,,,,,,,,,,,,,,,,,,,,,,,,,,,,,,,,,,,,,,,,,,,
,,601857c3c3f5ce0c3e5fb913,2024-02-18_20h17.21.577,kallum_motion_pilot,2023.2.2,Win32,163.9344262,601857c3c3f5ce0c3e5fb913,65d2b6c8f2eece985d8e374c,65d2b9360b64bbe7b18e2682,0.0169,0.017,0,36,36,71,1,fourthree,,,,,,,,,,,,,,,,,,,,,,,,,,,,,,,,,,,,,,,,,,,,,,,,,,,,,,,,,,,,,,,,,,,,,,,,,,,,,,,,,,,,,,,,,,,,,,,,,,,,,,,,,,,,,,,,,,,,,,,,,,,,,,,,,,,,,,,,,
,,601857c3c3f5ce0c3e5fb913,2024-02-18_20h17.21.577,kallum_motion_pilot,2023.2.2,Win32,163.9344262,601857c3c3f5ce0c3e5fb913,65d2b6c8f2eece985d8e374c,65d2b9360b64bbe7b18e2682,0.017,0.017,0,37,37,151,1,eightseven,,,,,,,,,,,,,,,,,,,,,,,,,,,,,,,,,,,,,,,,,,,,,,,,,,,,,,,,,,,,,,,,,,,,,,,,,,,,,,,,,,,,,,,,,,,,,,,,,,,,,,,,,,,,,,,,,,,,,,,,,,,,,,,,,,,,,,,,,
,,601857c3c3f5ce0c3e5fb913,2024-02-18_20h17.21.577,kallum_motion_pilot,2023.2.2,Win32,163.9344262,601857c3c3f5ce0c3e5fb913,65d2b6c8f2eece985d8e374c,65d2b9360b64bbe7b18e2682,0.0171,0.0171,0,38,38,145,1,fiveseven,,,,,,,,,,,,,,,,,,,,,,,,,,,,,,,,,,,,,,,,,,,,,,,,,,,,,,,,,,,,,,,,,,,,,,,,,,,,,,,,,,,,,,,,,,,,,,,,,,,,,,,,,,,,,,,,,,,,,,,,,,,,,,,,,,,,,,,,,
,,601857c3c3f5ce0c3e5fb913,2024-02-18_20h17.21.577,kallum_motion_pilot,2023.2.2,Win32,163.9344262,601857c3c3f5ce0c3e5fb913,65d2b6c8f2eece985d8e374c,65d2b9360b64bbe7b18e2682,0.0171,0.0171,0,39,39,47,1,fourthree,,,,,,,,,,,,,,,,,,,,,,,,,,,,,,,,,,,,,,,,,,,,,,,,,,,,,,,,,,,,,,,,,,,,,,,,,,,,,,,,,,,,,,,,,,,,,,,,,,,,,,,,,,,,,,,,,,,,,,,,,,,,,,,,,,,,,,,,,
,,601857c3c3f5ce0c3e5fb913,2024-02-18_20h17.21.577,kallum_motion_pilot,2023.2.2,Win32,163.9344262,601857c3c3f5ce0c3e5fb913,65d2b6c8f2eece985d8e374c,65d2b9360b64bbe7b18e2682,0.0171,0.0172,0,40,40,73,1,onethree,,,,,,,,,,,,,,,,,,,,,,,,,,,,,,,,,,,,,,,,,,,,,,,,,,,,,,,,,,,,,,,,,,,,,,,,,,,,,,,,,,,,,,,,,,,,,,,,,,,,,,,,,,,,,,,,,,,,,,,,,,,,,,,,,,,,,,,,,
,,601857c3c3f5ce0c3e5fb913,2024-02-18_20h17.21.577,kallum_motion_pilot,2023.2.2,Win32,163.9344262,601857c3c3f5ce0c3e5fb913,65d2b6c8f2eece985d8e374c,65d2b9360b64bbe7b18e2682,0.0172,0.0172,0,41,41,92,1,sevenfive,,,,,,,,,,,,,,,,,,,,,,,,,,,,,,,,,,,,,,,,,,,,,,,,,,,,,,,,,,,,,,,,,,,,,,,,,,,,,,,,,,,,,,,,,,,,,,,,,,,,,,,,,,,,,,,,,,,,,,,,,,,,,,,,,,,,,,,,,
,,601857c3c3f5ce0c3e5fb913,2024-02-18_20h17.21.577,kallum_motion_pilot,2023.2.2,Win32,163.9344262,601857c3c3f5ce0c3e5fb913,65d2b6c8f2eece985d8e374c,65d2b9360b64bbe7b18e2682,0.0173,0.0174,0,42,42,2,1,twoone,,,,,,,,,,,,,,,,,,,,,,,,,,,,,,,,,,,,,,,,,,,,,,,,,,,,,,,,,,,,,,,,,,,,,,,,,,,,,,,,,,,,,,,,,,,,,,,,,,,,,,,,,,,,,,,,,,,,,,,,,,,,,,,,,,,,,,,,,
,,601857c3c3f5ce0c3e5fb913,2024-02-18_20h17.21.577,kallum_motion_pilot,2023.2.2,Win32,163.9344262,601857c3c3f5ce0c3e5fb913,65d2b6c8f2eece985d8e374c,65d2b9360b64bbe7b18e2682,0.0174,0.0174,0,43,43,108,1,sevenfive,,,,,,,,,,,,,,,,,,,,,,,,,,,,,,,,,,,,,,,,,,,,,,,,,,,,,,,,,,,,,,,,,,,,,,,,,,,,,,,,,,,,,,,,,,,,,,,,,,,,,,,,,,,,,,,,,,,,,,,,,,,,,,,,,,,,,,,,,
,,601857c3c3f5ce0c3e5fb913,2024-02-18_20h17.21.577,kallum_motion_pilot,2023.2.2,Win32,163.9344262,601857c3c3f5ce0c3e5fb913,65d2b6c8f2eece985d8e374c,65d2b9360b64bbe7b18e2682,0.0174,0.0174,0,44,44,69,1,threefour,,,,,,,,,,,,,,,,,,,,,,,,,,,,,,,,,,,,,,,,,,,,,,,,,,,,,,,,,,,,,,,,,,,,,,,,,,,,,,,,,,,,,,,,,,,,,,,,,,,,,,,,,,,,,,,,,,,,,,,,,,,,,,,,,,,,,,,,,
,,601857c3c3f5ce0c3e5fb913,2024-02-18_20h17.21.577,kallum_motion_pilot,2023.2.2,Win32,163.9344262,601857c3c3f5ce0c3e5fb913,65d2b6c8f2eece985d8e374c,65d2b9360b64bbe7b18e2682,0.0174,0.0174,0,45,45,115,1,sixeight,,,,,,,,,,,,,,,,,,,,,,,,,,,,,,,,,,,,,,,,,,,,,,,,,,,,,,,,,,,,,,,,,,,,,,,,,,,,,,,,,,,,,,,,,,,,,,,,,,,,,,,,,,,,,,,,,,,,,,,,,,,,,,,,,,,,,,,,,
,,601857c3c3f5ce0c3e5fb913,2024-02-18_20h17.21.577,kallum_motion_pilot,2023.2.2,Win32,163.9344262,601857c3c3f5ce0c3e5fb913,65d2b6c8f2eece985d8e374c,65d2b9360b64bbe7b18e2682,0.0175,0.0175,0,46,46,127,1,eightseven,,,,,,,,,,,,,,,,,,,,,,,,,,,,,,,,,,,,,,,,,,,,,,,,,,,,,,,,,,,,,,,,,,,,,,,,,,,,,,,,,,,,,,,,,,,,,,,,,,,,,,,,,,,,,,,,,,,,,,,,,,,,,,,,,,,,,,,,,
,,601857c3c3f5ce0c3e5fb913,2024-02-18_20h17.21.577,kallum_motion_pilot,2023.2.2,Win32,163.9344262,601857c3c3f5ce0c3e5fb913,65d2b6c8f2eece985d8e374c,65d2b9360b64bbe7b18e2682,0.0176,0.0176,0,47,47,42,1,twoone,,,,,,,,,,,,,,,,,,,,,,,,,,,,,,,,,,,,,,,,,,,,,,,,,,,,,,,,,,,,,,,,,,,,,,,,,,,,,,,,,,,,,,,,,,,,,,,,,,,,,,,,,,,,,,,,,,,,,,,,,,,,,,,,,,,,,,,,,
,,601857c3c3f5ce0c3e5fb913,2024-02-18_20h17.21.577,kallum_motion_pilot,2023.2.2,Win32,163.9344262,601857c3c3f5ce0c3e5fb913,65d2b6c8f2eece985d8e374c,65d2b9360b64bbe7b18e2682,0.0176,0.0177,0,48,48,117,1,seveneight,,,,,,,,,,,,,,,,,,,,,,,,,,,,,,,,,,,,,,,,,,,,,,,,,,,,,,,,,,,,,,,,,,,,,,,,,,,,,,,,,,,,,,,,,,,,,,,,,,,,,,,,,,,,,,,,,,,,,,,,,,,,,,,,,,,,,,,,,
,,601857c3c3f5ce0c3e5fb913,2024-02-18_20h17.21.577,kallum_motion_pilot,2023.2.2,Win32,163.9344262,601857c3c3f5ce0c3e5fb913,65d2b6c8f2eece985d8e374c,65d2b9360b64bbe7b18e2682,0.0177,0.0177,0,49,49,125,1,seveneight,,,,,,,,,,,,,,,,,,,,,,,,,,,,,,,,,,,,,,,,,,,,,,,,,,,,,,,,,,,,,,,,,,,,,,,,,,,,,,,,,,,,,,,,,,,,,,,,,,,,,,,,,,,,,,,,,,,,,,,,,,,,,,,,,,,,,,,,,
,,601857c3c3f5ce0c3e5fb913,2024-02-18_20h17.21.577,kallum_motion_pilot,2023.2.2,Win32,163.9344262,601857c3c3f5ce0c3e5fb913,65d2b6c8f2eece985d8e374c,65d2b9360b64bbe7b18e2682,0.0177,0.0178,0,50,50,120,1,fivesix,,,,,,,,,,,,,,,,,,,,,,,,,,,,,,,,,,,,,,,,,,,,,,,,,,,,,,,,,,,,,,,,,,,,,,,,,,,,,,,,,,,,,,,,,,,,,,,,,,,,,,,,,,,,,,,,,,,,,,,,,,,,,,,,,,,,,,,,,
,,601857c3c3f5ce0c3e5fb913,2024-02-18_20h17.21.577,kallum_motion_pilot,2023.2.2,Win32,163.9344262,601857c3c3f5ce0c3e5fb913,65d2b6c8f2eece985d8e374c,65d2b9360b64bbe7b18e2682,0.0178,0.0178,0,51,51,87,1,eightseven,,,,,,,,,,,,,,,,,,,,,,,,,,,,,,,,,,,,,,,,,,,,,,,,,,,,,,,,,,,,,,,,,,,,,,,,,,,,,,,,,,,,,,,,,,,,,,,,,,,,,,,,,,,,,,,,,,,,,,,,,,,,,,,,,,,,,,,,,
,,601857c3c3f5ce0c3e5fb913,2024-02-18_20h17.21.577,kallum_motion_pilot,2023.2.2,Win32,163.9344262,601857c3c3f5ce0c3e5fb913,65d2b6c8f2eece985d8e374c,65d2b9360b64bbe7b18e2682,0.0179,0.0179,0,52,52,60,1,threeone,,,,,,,,,,,,,,,,,,,,,,,,,,,,,,,,,,,,,,,,,,,,,,,,,,,,,,,,,,,,,,,,,,,,,,,,,,,,,,,,,,,,,,,,,,,,,,,,,,,,,,,,,,,,,,,,,,,,,,,,,,,,,,,,,,,,,,,,,
,,601857c3c3f5ce0c3e5fb913,2024-02-18_20h17.21.577,kallum_motion_pilot,2023.2.2,Win32,163.9344262,601857c3c3f5ce0c3e5fb913,65d2b6c8f2eece985d8e374c,65d2b9360b64bbe7b18e2682,0.0179,0.0179,0,53,53,154,1,sixfive,,,,,,,,,,,,,,,,,,,,,,,,,,,,,,,,,,,,,,,,,,,,,,,,,,,,,,,,,,,,,,,,,,,,,,,,,,,,,,,,,,,,,,,,,,,,,,,,,,,,,,,,,,,,,,,,,,,,,,,,,,,,,,,,,,,,,,,,,
,,601857c3c3f5ce0c3e5fb913,2024-02-18_20h17.21.577,kallum_motion_pilot,2023.2.2,Win32,163.9344262,601857c3c3f5ce0c3e5fb913,65d2b6c8f2eece985d8e374c,65d2b9360b64bbe7b18e2682,0.0179,0.0179,0,54,54,84,1,sevenfive,,,,,,,,,,,,,,,,,,,,,,,,,,,,,,,,,,,,,,,,,,,,,,,,,,,,,,,,,,,,,,,,,,,,,,,,,,,,,,,,,,,,,,,,,,,,,,,,,,,,,,,,,,,,,,,,,,,,,,,,,,,,,,,,,,,,,,,,,
,,601857c3c3f5ce0c3e5fb913,2024-02-18_20h17.21.577,kallum_motion_pilot,2023.2.2,Win32,163.9344262,601857c3c3f5ce0c3e5fb913,65d2b6c8f2eece985d8e374c,65d2b9360b64bbe7b18e2682,0.018,0.018,0,55,55,103,1,eightseven,,,,,,,,,,,,,,,,,,,,,,,,,,,,,,,,,,,,,,,,,,,,,,,,,,,,,,,,,,,,,,,,,,,,,,,,,,,,,,,,,,,,,,,,,,,,,,,,,,,,,,,,,,,,,,,,,,,,,,,,,,,,,,,,,,,,,,,,,
,,601857c3c3f5ce0c3e5fb913,2024-02-18_20h17.21.577,kallum_motion_pilot,2023.2.2,Win32,163.9344262,601857c3c3f5ce0c3e5fb913,65d2b6c8f2eece985d8e374c,65d2b9360b64bbe7b18e2682,0.018,0.0181,0,56,56,22,1,fourtwo,,,,,,,,,,,,,,,,,,,,,,,,,,,,,,,,,,,,,,,,,,,,,,,,,,,,,,,,,,,,,,,,,,,,,,,,,,,,,,,,,,,,,,,,,,,,,,,,,,,,,,,,,,,,,,,,,,,,,,,,,,,,,,,,,,,,,,,,,
,,601857c3c3f5ce0c3e5fb913,2024-02-18_20h17.21.577,kallum_motion_pilot,2023.2.2,Win32,163.9344262,601857c3c3f5ce0c3e5fb913,65d2b6c8f2eece985d8e374c,65d2b9360b64bbe7b18e2682,0.0181,0.0181,0,57,57,74,1,twoone,,,,,,,,,,,,,,,,,,,,,,,,,,,,,,,,,,,,,,,,,,,,,,,,,,,,,,,,,,,,,,,,,,,,,,,,,,,,,,,,,,,,,,,,,,,,,,,,,,,,,,,,,,,,,,,,,,,,,,,,,,,,,,,,,,,,,,,,,
,,601857c3c3f5ce0c3e5fb913,2024-02-18_20h17.21.577,kallum_motion_pilot,2023.2.2,Win32,163.9344262,601857c3c3f5ce0c3e5fb913,65d2b6c8f2eece985d8e374c,65d2b9360b64bbe7b18e2682,0.0181,0.0182,0,58,58,62,1,fourtwo,,,,,,,,,,,,,,,,,,,,,,,,,,,,,,,,,,,,,,,,,,,,,,,,,,,,,,,,,,,,,,,,,,,,,,,,,,,,,,,,,,,,,,,,,,,,,,,,,,,,,,,,,,,,,,,,,,,,,,,,,,,,,,,,,,,,,,,,,
,,601857c3c3f5ce0c3e5fb913,2024-02-18_20h17.21.577,kallum_motion_pilot,2023.2.2,Win32,163.9344262,601857c3c3f5ce0c3e5fb913,65d2b6c8f2eece985d8e374c,65d2b9360b64bbe7b18e2682,0.0182,0.0183,0,59,59,137,1,fiveseven,,,,,,,,,,,,,,,,,,,,,,,,,,,,,,,,,,,,,,,,,,,,,,,,,,,,,,,,,,,,,,,,,,,,,,,,,,,,,,,,,,,,,,,,,,,,,,,,,,,,,,,,,,,,,,,,,,,,,,,,,,,,,,,,,,,,,,,,,
,,601857c3c3f5ce0c3e5fb913,2024-02-18_20h17.21.577,kallum_motion_pilot,2023.2.2,Win32,163.9344262,601857c3c3f5ce0c3e5fb913,65d2b6c8f2eece985d8e374c,65d2b9360b64bbe7b18e2682,0.0183,0.0184,0,60,60,121,1,fiveseven,,,,,,,,,,,,,,,,,,,,,,,,,,,,,,,,,,,,,,,,,,,,,,,,,,,,,,,,,,,,,,,,,,,,,,,,,,,,,,,,,,,,,,,,,,,,,,,,,,,,,,,,,,,,,,,,,,,,,,,,,,,,,,,,,,,,,,,,,
,,601857c3c3f5ce0c3e5fb913,2024-02-18_20h17.21.577,kallum_motion_pilot,2023.2.2,Win32,163.9344262,601857c3c3f5ce0c3e5fb913,65d2b6c8f2eece985d8e374c,65d2b9360b64bbe7b18e2682,0.0184,0.0184,0,61,61,45,1,threefour,,,,,,,,,,,,,,,,,,,,,,,,,,,,,,,,,,,,,,,,,,,,,,,,,,,,,,,,,,,,,,,,,,,,,,,,,,,,,,,,,,,,,,,,,,,,,,,,,,,,,,,,,,,,,,,,,,,,,,,,,,,,,,,,,,,,,,,,,
,,601857c3c3f5ce0c3e5fb913,2024-02-18_20h17.21.577,kallum_motion_pilot,2023.2.2,Win32,163.9344262,601857c3c3f5ce0c3e5fb913,65d2b6c8f2eece985d8e374c,65d2b9360b64bbe7b18e2682,0.0184,0.0184,0,62,62,41,1,onethree,,,,,,,,,,,,,,,,,,,,,,,,,,,,,,,,,,,,,,,,,,,,,,,,,,,,,,,,,,,,,,,,,,,,,,,,,,,,,,,,,,,,,,,,,,,,,,,,,,,,,,,,,,,,,,,,,,,,,,,,,,,,,,,,,,,,,,,,,
,,601857c3c3f5ce0c3e5fb913,2024-02-18_20h17.21.577,kallum_motion_pilot,2023.2.2,Win32,163.9344262,601857c3c3f5ce0c3e5fb913,65d2b6c8f2eece985d8e374c,65d2b9360b64bbe7b18e2682,0.0185,0.0185,0,63,63,20,1,threeone,,,,,,,,,,,,,,,,,,,,,,,,,,,,,,,,,,,,,,,,,,,,,,,,,,,,,,,,,,,,,,,,,,,,,,,,,,,,,,,,,,,,,,,,,,,,,,,,,,,,,,,,,,,,,,,,,,,,,,,,,,,,,,,,,,,,,,,,,
,,601857c3c3f5ce0c3e5fb913,2024-02-18_20h17.21.577,kallum_motion_pilot,2023.2.2,Win32,163.9344262,601857c3c3f5ce0c3e5fb913,65d2b6c8f2eece985d8e374c,65d2b9360b64bbe7b18e2682,0.0186,0.0186,0,64,64,106,1,sixfive,,,,,,,,,,,,,,,,,,,,,,,,,,,,,,,,,,,,,,,,,,,,,,,,,,,,,,,,,,,,,,,,,,,,,,,,,,,,,,,,,,,,,,,,,,,,,,,,,,,,,,,,,,,,,,,,,,,,,,,,,,,,,,,,,,,,,,,,,
,,601857c3c3f5ce0c3e5fb913,2024-02-18_20h17.21.577,kallum_motion_pilot,2023.2.2,Win32,163.9344262,601857c3c3f5ce0c3e5fb913,65d2b6c8f2eece985d8e374c,65d2b9360b64bbe7b18e2682,0.0187,0.0187,0,65,65,111,1,eightseven,,,,,,,,,,,,,,,,,,,,,,,,,,,,,,,,,,,,,,,,,,,,,,,,,,,,,,,,,,,,,,,,,,,,,,,,,,,,,,,,,,,,,,,,,,,,,,,,,,,,,,,,,,,,,,,,,,,,,,,,,,,,,,,,,,,,,,,,,
,,601857c3c3f5ce0c3e5fb913,2024-02-18_20h17.21.577,kallum_motion_pilot,2023.2.2,Win32,163.9344262,601857c3c3f5ce0c3e5fb913,65d2b6c8f2eece985d8e374c,65d2b9360b64bbe7b18e2682,0.0187,0.0188,0,66,66,12,1,threeone,,,,,,,,,,,,,,,,,,,,,,,,,,,,,,,,,,,,,,,,,,,,,,,,,,,,,,,,,,,,,,,,,,,,,,,,,,,,,,,,,,,,,,,,,,,,,,,,,,,,,,,,,,,,,,,,,,,,,,,,,,,,,,,,,,,,,,,,,
,,601857c3c3f5ce0c3e5fb913,2024-02-18_20h17.21.577,kallum_motion_pilot,2023.2.2,Win32,163.9344262,601857c3c3f5ce0c3e5fb913,65d2b6c8f2eece985d8e374c,65d2b9360b64bbe7b18e2682,0.0188,0.0188,0,67,67,70,1,fourtwo,,,,,,,,,,,,,,,,,,,,,,,,,,,,,,,,,,,,,,,,,,,,,,,,,,,,,,,,,,,,,,,,,,,,,,,,,,,,,,,,,,,,,,,,,,,,,,,,,,,,,,,,,,,,,,,,,,,,,,,,,,,,,,,,,,,,,,,,,
,,601857c3c3f5ce0c3e5fb913,2024-02-18_20h17.21.577,kallum_motion_pilot,2023.2.2,Win32,163.9344262,601857c3c3f5ce0c3e5fb913,65d2b6c8f2eece985d8e374c,65d2b9360b64bbe7b18e2682,0.0188,0.0188,0,68,68,65,1,onethree,,,,,,,,,,,,,,,,,,,,,,,,,,,,,,,,,,,,,,,,,,,,,,,,,,,,,,,,,,,,,,,,,,,,,,,,,,,,,,,,,,,,,,,,,,,,,,,,,,,,,,,,,,,,,,,,,,,,,,,,,,,,,,,,,,,,,,,,,
,,601857c3c3f5ce0c3e5fb913,2024-02-18_20h17.21.577,kallum_motion_pilot,2023.2.2,Win32,163.9344262,601857c3c3f5ce0c3e5fb913,65d2b6c8f2eece985d8e374c,65d2b9360b64bbe7b18e2682,0.0189,0.0189,0,69,69,5,1,threefour,,,,,,,,,,,,,,,,,,,,,,,,,,,,,,,,,,,,,,,,,,,,,,,,,,,,,,,,,,,,,,,,,,,,,,,,,,,,,,,,,,,,,,,,,,,,,,,,,,,,,,,,,,,,,,,,,,,,,,,,,,,,,,,,,,,,,,,,,
,,601857c3c3f5ce0c3e5fb913,2024-02-18_20h17.21.577,kallum_motion_pilot,2023.2.2,Win32,163.9344262,601857c3c3f5ce0c3e5fb913,65d2b6c8f2eece985d8e374c,65d2b9360b64bbe7b18e2682,0.019,0.019,0,70,70,36,1,threeone,,,,,,,,,,,,,,,,,,,,,,,,,,,,,,,,,,,,,,,,,,,,,,,,,,,,,,,,,,,,,,,,,,,,,,,,,,,,,,,,,,,,,,,,,,,,,,,,,,,,,,,,,,,,,,,,,,,,,,,,,,,,,,,,,,,,,,,,,
,,601857c3c3f5ce0c3e5fb913,2024-02-18_20h17.21.577,kallum_motion_pilot,2023.2.2,Win32,163.9344262,601857c3c3f5ce0c3e5fb913,65d2b6c8f2eece985d8e374c,65d2b9360b64bbe7b18e2682,0.019,0.019,0,71,71,34,1,twoone,,,,,,,,,,,,,,,,,,,,,,,,,,,,,,,,,,,,,,,,,,,,,,,,,,,,,,,,,,,,,,,,,,,,,,,,,,,,,,,,,,,,,,,,,,,,,,,,,,,,,,,,,,,,,,,,,,,,,,,,,,,,,,,,,,,,,,,,,
,,601857c3c3f5ce0c3e5fb913,2024-02-18_20h17.21.577,kallum_motion_pilot,2023.2.2,Win32,163.9344262,601857c3c3f5ce0c3e5fb913,65d2b6c8f2eece985d8e374c,65d2b9360b64bbe7b18e2682,0.019,0.0191,0,72,72,141,1,seveneight,,,,,,,,,,,,,,,,,,,,,,,,,,,,,,,,,,,,,,,,,,,,,,,,,,,,,,,,,,,,,,,,,,,,,,,,,,,,,,,,,,,,,,,,,,,,,,,,,,,,,,,,,,,,,,,,,,,,,,,,,,,,,,,,,,,,,,,,,
,,601857c3c3f5ce0c3e5fb913,2024-02-18_20h17.21.577,kallum_motion_pilot,2023.2.2,Win32,163.9344262,601857c3c3f5ce0c3e5fb913,65d2b6c8f2eece985d8e374c,65d2b9360b64bbe7b18e2682,0.0191,0.0191,0,73,73,7,1,fourthree,,,,,,,,,,,,,,,,,,,,,,,,,,,,,,,,,,,,,,,,,,,,,,,,,,,,,,,,,,,,,,,,,,,,,,,,,,,,,,,,,,,,,,,,,,,,,,,,,,,,,,,,,,,,,,,,,,,,,,,,,,,,,,,,,,,,,,,,,
,,601857c3c3f5ce0c3e5fb913,2024-02-18_20h17.21.577,kallum_motion_pilot,2023.2.2,Win32,163.9344262,601857c3c3f5ce0c3e5fb913,65d2b6c8f2eece985d8e374c,65d2b9360b64bbe7b18e2682,0.0192,0.0192,0,74,74,161,1,fiveseven,,,,,,,,,,,,,,,,,,,,,,,,,,,,,,,,,,,,,,,,,,,,,,,,,,,,,,,,,,,,,,,,,,,,,,,,,,,,,,,,,,,,,,,,,,,,,,,,,,,,,,,,,,,,,,,,,,,,,,,,,,,,,,,,,,,,,,,,,
,,601857c3c3f5ce0c3e5fb913,2024-02-18_20h17.21.577,kallum_motion_pilot,2023.2.2,Win32,163.9344262,601857c3c3f5ce0c3e5fb913,65d2b6c8f2eece985d8e374c,65d2b9360b64bbe7b18e2682,0.0192,0.0193,0,75,75,76,1,threeone,,,,,,,,,,,,,,,,,,,,,,,,,,,,,,,,,,,,,,,,,,,,,,,,,,,,,,,,,,,,,,,,,,,,,,,,,,,,,,,,,,,,,,,,,,,,,,,,,,,,,,,,,,,,,,,,,,,,,,,,,,,,,,,,,,,,,,,,,
,,601857c3c3f5ce0c3e5fb913,2024-02-18_20h17.21.577,kallum_motion_pilot,2023.2.2,Win32,163.9344262,601857c3c3f5ce0c3e5fb913,65d2b6c8f2eece985d8e374c,65d2b9360b64bbe7b18e2682,0.0193,0.0193,0,76,76,105,1,fiveseven,,,,,,,,,,,,,,,,,,,,,,,,,,,,,,,,,,,,,,,,,,,,,,,,,,,,,,,,,,,,,,,,,,,,,,,,,,,,,,,,,,,,,,,,,,,,,,,,,,,,,,,,,,,,,,,,,,,,,,,,,,,,,,,,,,,,,,,,,
,,601857c3c3f5ce0c3e5fb913,2024-02-18_20h17.21.577,kallum_motion_pilot,2023.2.2,Win32,163.9344262,601857c3c3f5ce0c3e5fb913,65d2b6c8f2eece985d8e374c,65d2b9360b64bbe7b18e2682,0.0194,0.0194,0,77,77,25,1,onethree,,,,,,,,,,,,,,,,,,,,,,,,,,,,,,,,,,,,,,,,,,,,,,,,,,,,,,,,,,,,,,,,,,,,,,,,,,,,,,,,,,,,,,,,,,,,,,,,,,,,,,,,,,,,,,,,,,,,,,,,,,,,,,,,,,,,,,,,,
,,601857c3c3f5ce0c3e5fb913,2024-02-18_20h17.21.577,kallum_motion_pilot,2023.2.2,Win32,163.9344262,601857c3c3f5ce0c3e5fb913,65d2b6c8f2eece985d8e374c,65d2b9360b64bbe7b18e2682,0.0195,0.0195,0,78,78,39,1,fourthree,,,,,,,,,,,,,,,,,,,,,,,,,,,,,,,,,,,,,,,,,,,,,,,,,,,,,,,,,,,,,,,,,,,,,,,,,,,,,,,,,,,,,,,,,,,,,,,,,,,,,,,,,,,,,,,,,,,,,,,,,,,,,,,,,,,,,,,,,
,,601857c3c3f5ce0c3e5fb913,2024-02-18_20h17.21.577,kallum_motion_pilot,2023.2.2,Win32,163.9344262,601857c3c3f5ce0c3e5fb913,65d2b6c8f2eece985d8e374c,65d2b9360b64bbe7b18e2682,0.0195,0.0195,0,79,79,53,1,threefour,,,,,,,,,,,,,,,,,,,,,,,,,,,,,,,,,,,,,,,,,,,,,,,,,,,,,,,,,,,,,,,,,,,,,,,,,,,,,,,,,,,,,,,,,,,,,,,,,,,,,,,,,,,,,,,,,,,,,,,,,,,,,,,,,,,,,,,,,
,,601857c3c3f5ce0c3e5fb913,2024-02-18_20h17.21.577,kallum_motion_pilot,2023.2.2,Win32,163.9344262,601857c3c3f5ce0c3e5fb913,65d2b6c8f2eece985d8e374c,65d2b9360b64bbe7b18e2682,0.0196,0.0196,0,80,80,68,1,threeone,,,,,,,,,,,,,,,,,,,,,,,,,,,,,,,,,,,,,,,,,,,,,,,,,,,,,,,,,,,,,,,,,,,,,,,,,,,,,,,,,,,,,,,,,,,,,,,,,,,,,,,,,,,,,,,,,,,,,,,,,,,,,,,,,,,,,,,,,
,,601857c3c3f5ce0c3e5fb913,2024-02-18_20h17.21.577,kallum_motion_pilot,2023.2.2,Win32,163.9344262,601857c3c3f5ce0c3e5fb913,65d2b6c8f2eece985d8e374c,65d2b9360b64bbe7b18e2682,0.0197,0.0197,0,81,81,50,1,twoone,,,,,,,,,,,,,,,,,,,,,,,,,,,,,,,,,,,,,,,,,,,,,,,,,,,,,,,,,,,,,,,,,,,,,,,,,,,,,,,,,,,,,,,,,,,,,,,,,,,,,,,,,,,,,,,,,,,,,,,,,,,,,,,,,,,,,,,,,
,,601857c3c3f5ce0c3e5fb913,2024-02-18_20h17.21.577,kallum_motion_pilot,2023.2.2,Win32,163.9344262,601857c3c3f5ce0c3e5fb913,65d2b6c8f2eece985d8e374c,65d2b9360b64bbe7b18e2682,0.0198,0.0198,0,82,82,24,1,onetwo,,,,,,,,,,,,,,,,,,,,,,,,,,,,,,,,,,,,,,,,,,,,,,,,,,,,,,,,,,,,,,,,,,,,,,,,,,,,,,,,,,,,,,,,,,,,,,,,,,,,,,,,,,,,,,,,,,,,,,,,,,,,,,,,,,,,,,,,,
,,601857c3c3f5ce0c3e5fb913,2024-02-18_20h17.21.577,kallum_motion_pilot,2023.2.2,Win32,163.9344262,601857c3c3f5ce0c3e5fb913,65d2b6c8f2eece985d8e374c,65d2b9360b64bbe7b18e2682,0.0198,0.0198,0,83,83,46,1,fourtwo,,,,,,,,,,,,,,,,,,,,,,,,,,,,,,,,,,,,,,,,,,,,,,,,,,,,,,,,,,,,,,,,,,,,,,,,,,,,,,,,,,,,,,,,,,,,,,,,,,,,,,,,,,,,,,,,,,,,,,,,,,,,,,,,,,,,,,,,,
,,601857c3c3f5ce0c3e5fb913,2024-02-18_20h17.21.577,kallum_motion_pilot,2023.2.2,Win32,163.9344262,601857c3c3f5ce0c3e5fb913,65d2b6c8f2eece985d8e374c,65d2b9360b64bbe7b18e2682,0.0199,0.0199,0,84,84,138,1,sixfive,,,,,,,,,,,,,,,,,,,,,,,,,,,,,,,,,,,,,,,,,,,,,,,,,,,,,,,,,,,,,,,,,,,,,,,,,,,,,,,,,,,,,,,,,,,,,,,,,,,,,,,,,,,,,,,,,,,,,,,,,,,,,,,,,,,,,,,,,
,,601857c3c3f5ce0c3e5fb913,2024-02-18_20h17.21.577,kallum_motion_pilot,2023.2.2,Win32,163.9344262,601857c3c3f5ce0c3e5fb913,65d2b6c8f2eece985d8e374c,65d2b9360b64bbe7b18e2682,0.0199,0.0199,0,85,85,38,1,fourtwo,,,,,,,,,,,,,,,,,,,,,,,,,,,,,,,,,,,,,,,,,,,,,,,,,,,,,,,,,,,,,,,,,,,,,,,,,,,,,,,,,,,,,,,,,,,,,,,,,,,,,,,,,,,,,,,,,,,,,,,,,,,,,,,,,,,,,,,,,
,,601857c3c3f5ce0c3e5fb913,2024-02-18_20h17.21.577,kallum_motion_pilot,2023.2.2,Win32,163.9344262,601857c3c3f5ce0c3e5fb913,65d2b6c8f2eece985d8e374c,65d2b9360b64bbe7b18e2682,0.02,0.0201,0,86,86,0,1,onetwo,,,,,,,,,,,,,,,,,,,,,,,,,,,,,,,,,,,,,,,,,,,,,,,,,,,,,,,,,,,,,,,,,,,,,,,,,,,,,,,,,,,,,,,,,,,,,,,,,,,,,,,,,,,,,,,,,,,,,,,,,,,,,,,,,,,,,,,,,
,,601857c3c3f5ce0c3e5fb913,2024-02-18_20h17.21.577,kallum_motion_pilot,2023.2.2,Win32,163.9344262,601857c3c3f5ce0c3e5fb913,65d2b6c8f2eece985d8e374c,65d2b9360b64bbe7b18e2682,0.0201,0.0201,0,87,87,14,1,fourtwo,,,,,,,,,,,,,,,,,,,,,,,,,,,,,,,,,,,,,,,,,,,,,,,,,,,,,,,,,,,,,,,,,,,,,,,,,,,,,,,,,,,,,,,,,,,,,,,,,,,,,,,,,,,,,,,,,,,,,,,,,,,,,,,,,,,,,,,,,
,,601857c3c3f5ce0c3e5fb913,2024-02-18_20h17.21.577,kallum_motion_pilot,2023.2.2,Win32,163.9344262,601857c3c3f5ce0c3e5fb913,65d2b6c8f2eece985d8e374c,65d2b9360b64bbe7b18e2682,0.0201,0.0201,0,88,88,139,1,sixeight,,,,,,,,,,,,,,,,,,,,,,,,,,,,,,,,,,,,,,,,,,,,,,,,,,,,,,,,,,,,,,,,,,,,,,,,,,,,,,,,,,,,,,,,,,,,,,,,,,,,,,,,,,,,,,,,,,,,,,,,,,,,,,,,,,,,,,,,,
,,601857c3c3f5ce0c3e5fb913,2024-02-18_20h17.21.577,kallum_motion_pilot,2023.2.2,Win32,163.9344262,601857c3c3f5ce0c3e5fb913,65d2b6c8f2eece985d8e374c,65d2b9360b64bbe7b18e2682,0.0202,0.0202,0,89,89,55,1,fourthree,,,,,,,,,,,,,,,,,,,,,,,,,,,,,,,,,,,,,,,,,,,,,,,,,,,,,,,,,,,,,,,,,,,,,,,,,,,,,,,,,,,,,,,,,,,,,,,,,,,,,,,,,,,,,,,,,,,,,,,,,,,,,,,,,,,,,,,,,
,,601857c3c3f5ce0c3e5fb913,2024-02-18_20h17.21.577,kallum_motion_pilot,2023.2.2,Win32,163.9344262,601857c3c3f5ce0c3e5fb913,65d2b6c8f2eece985d8e374c,65d2b9360b64bbe7b18e2682,0.0203,0.0203,0,90,90,96,1,fivesix,,,,,,,,,,,,,,,,,,,,,,,,,,,,,,,,,,,,,,,,,,,,,,,,,,,,,,,,,,,,,,,,,,,,,,,,,,,,,,,,,,,,,,,,,,,,,,,,,,,,,,,,,,,,,,,,,,,,,,,,,,,,,,,,,,,,,,,,,
,,601857c3c3f5ce0c3e5fb913,2024-02-18_20h17.21.577,kallum_motion_pilot,2023.2.2,Win32,163.9344262,601857c3c3f5ce0c3e5fb913,65d2b6c8f2eece985d8e374c,65d2b9360b64bbe7b18e2682,0.0203,0.0203,0,91,91,140,1,sevenfive,,,,,,,,,,,,,,,,,,,,,,,,,,,,,,,,,,,,,,,,,,,,,,,,,,,,,,,,,,,,,,,,,,,,,,,,,,,,,,,,,,,,,,,,,,,,,,,,,,,,,,,,,,,,,,,,,,,,,,,,,,,,,,,,,,,,,,,,,
,,601857c3c3f5ce0c3e5fb913,2024-02-18_20h17.21.577,kallum_motion_pilot,2023.2.2,Win32,163.9344262,601857c3c3f5ce0c3e5fb913,65d2b6c8f2eece985d8e374c,65d2b9360b64bbe7b18e2682,0.0203,0.0204,0,92,92,83,1,sixeight,,,,,,,,,,,,,,,,,,,,,,,,,,,,,,,,,,,,,,,,,,,,,,,,,,,,,,,,,,,,,,,,,,,,,,,,,,,,,,,,,,,,,,,,,,,,,,,,,,,,,,,,,,,,,,,,,,,,,,,,,,,,,,,,,,,,,,,,,
,,601857c3c3f5ce0c3e5fb913,2024-02-18_20h17.21.577,kallum_motion_pilot,2023.2.2,Win32,163.9344262,601857c3c3f5ce0c3e5fb913,65d2b6c8f2eece985d8e374c,65d2b9360b64bbe7b18e2682,0.0204,0.0205,0,93,93,110,1,eightsix,,,,,,,,,,,,,,,,,,,,,,,,,,,,,,,,,,,,,,,,,,,,,,,,,,,,,,,,,,,,,,,,,,,,,,,,,,,,,,,,,,,,,,,,,,,,,,,,,,,,,,,,,,,,,,,,,,,,,,,,,,,,,,,,,,,,,,,,,
,,601857c3c3f5ce0c3e5fb913,2024-02-18_20h17.21.577,kallum_motion_pilot,2023.2.2,Win32,163.9344262,601857c3c3f5ce0c3e5fb913,65d2b6c8f2eece985d8e374c,65d2b9360b64bbe7b18e2682,0.0205,0.0206,0,94,94,56,1,onetwo,,,,,,,,,,,,,,,,,,,,,,,,,,,,,,,,,,,,,,,,,,,,,,,,,,,,,,,,,,,,,,,,,,,,,,,,,,,,,,,,,,,,,,,,,,,,,,,,,,,,,,,,,,,,,,,,,,,,,,,,,,,,,,,,,,,,,,,,,
,,601857c3c3f5ce0c3e5fb913,2024-02-18_20h17.21.577,kallum_motion_pilot,2023.2.2,Win32,163.9344262,601857c3c3f5ce0c3e5fb913,65d2b6c8f2eece985d8e374c,65d2b9360b64bbe7b18e2682,0.0206,0.0206,0,95,95,48,1,onetwo,,,,,,,,,,,,,,,,,,,,,,,,,,,,,,,,,,,,,,,,,,,,,,,,,,,,,,,,,,,,,,,,,,,,,,,,,,,,,,,,,,,,,,,,,,,,,,,,,,,,,,,,,,,,,,,,,,,,,,,,,,,,,,,,,,,,,,,,,
,,601857c3c3f5ce0c3e5fb913,2024-02-18_20h17.21.577,kallum_motion_pilot,2023.2.2,Win32,163.9344262,601857c3c3f5ce0c3e5fb913,65d2b6c8f2eece985d8e374c,65d2b9360b64bbe7b18e2682,0.0206,0.0206,0,96,96,157,1,seveneight,,,,,,,,,,,,,,,,,,,,,,,,,,,,,,,,,,,,,,,,,,,,,,,,,,,,,,,,,,,,,,,,,,,,,,,,,,,,,,,,,,,,,,,,,,,,,,,,,,,,,,,,,,,,,,,,,,,,,,,,,,,,,,,,,,,,,,,,,
,,601857c3c3f5ce0c3e5fb913,2024-02-18_20h17.21.577,kallum_motion_pilot,2023.2.2,Win32,163.9344262,601857c3c3f5ce0c3e5fb913,65d2b6c8f2eece985d8e374c,65d2b9360b64bbe7b18e2682,0.0207,0.0207,0,97,97,147,1,sixeight,,,,,,,,,,,,,,,,,,,,,,,,,,,,,,,,,,,,,,,,,,,,,,,,,,,,,,,,,,,,,,,,,,,,,,,,,,,,,,,,,,,,,,,,,,,,,,,,,,,,,,,,,,,,,,,,,,,,,,,,,,,,,,,,,,,,,,,,,
,,601857c3c3f5ce0c3e5fb913,2024-02-18_20h17.21.577,kallum_motion_pilot,2023.2.2,Win32,163.9344262,601857c3c3f5ce0c3e5fb913,65d2b6c8f2eece985d8e374c,65d2b9360b64bbe7b18e2682,0.0208,0.0208,0,98,98,149,1,seveneight,,,,,,,,,,,,,,,,,,,,,,,,,,,,,,,,,,,,,,,,,,,,,,,,,,,,,,,,,,,,,,,,,,,,,,,,,,,,,,,,,,,,,,,,,,,,,,,,,,,,,,,,,,,,,,,,,,,,,,,,,,,,,,,,,,,,,,,,,
,,601857c3c3f5ce0c3e5fb913,2024-02-18_20h17.21.577,kallum_motion_pilot,2023.2.2,Win32,163.9344262,601857c3c3f5ce0c3e5fb913,65d2b6c8f2eece985d8e374c,65d2b9360b64bbe7b18e2682,0.0208,0.0208,0,99,99,40,1,onetwo,,,,,,,,,,,,,,,,,,,,,,,,,,,,,,,,,,,,,,,,,,,,,,,,,,,,,,,,,,,,,,,,,,,,,,,,,,,,,,,,,,,,,,,,,,,,,,,,,,,,,,,,,,,,,,,,,,,,,,,,,,,,,,,,,,,,,,,,,
,,601857c3c3f5ce0c3e5fb913,2024-02-18_20h17.21.577,kallum_motion_pilot,2023.2.2,Win32,163.9344262,601857c3c3f5ce0c3e5fb913,65d2b6c8f2eece985d8e374c,65d2b9360b64bbe7b18e2682,0.0209,0.0209,0,100,100,66,1,twoone,,,,,,,,,,,,,,,,,,,,,,,,,,,,,,,,,,,,,,,,,,,,,,,,,,,,,,,,,,,,,,,,,,,,,,,,,,,,,,,,,,,,,,,,,,,,,,,,,,,,,,,,,,,,,,,,,,,,,,,,,,,,,,,,,,,,,,,,,
,,601857c3c3f5ce0c3e5fb913,2024-02-18_20h17.21.577,kallum_motion_pilot,2023.2.2,Win32,163.9344262,601857c3c3f5ce0c3e5fb913,65d2b6c8f2eece985d8e374c,65d2b9360b64bbe7b18e2682,0.021,0.021,0,101,101,11,1,twofour,,,,,,,,,,,,,,,,,,,,,,,,,,,,,,,,,,,,,,,,,,,,,,,,,,,,,,,,,,,,,,,,,,,,,,,,,,,,,,,,,,,,,,,,,,,,,,,,,,,,,,,,,,,,,,,,,,,,,,,,,,,,,,,,,,,,,,,,,
,,601857c3c3f5ce0c3e5fb913,2024-02-18_20h17.21.577,kallum_motion_pilot,2023.2.2,Win32,163.9344262,601857c3c3f5ce0c3e5fb913,65d2b6c8f2eece985d8e374c,65d2b9360b64bbe7b18e2682,0.021,0.021,0,102,102,156,1,sevenfive,,,,,,,,,,,,,,,,,,,,,,,,,,,,,,,,,,,,,,,,,,,,,,,,,,,,,,,,,,,,,,,,,,,,,,,,,,,,,,,,,,,,,,,,,,,,,,,,,,,,,,,,,,,,,,,,,,,,,,,,,,,,,,,,,,,,,,,,,
,,601857c3c3f5ce0c3e5fb913,2024-02-18_20h17.21.577,kallum_motion_pilot,2023.2.2,Win32,163.9344262,601857c3c3f5ce0c3e5fb913,65d2b6c8f2eece985d8e374c,65d2b9360b64bbe7b18e2682,0.0211,0.0211,0,103,103,129,1,fiveseven,,,,,,,,,,,,,,,,,,,,,,,,,,,,,,,,,,,,,,,,,,,,,,,,,,,,,,,,,,,,,,,,,,,,,,,,,,,,,,,,,,,,,,,,,,,,,,,,,,,,,,,,,,,,,,,,,,,,,,,,,,,,,,,,,,,,,,,,,
,,601857c3c3f5ce0c3e5fb913,2024-02-18_20h17.21.577,kallum_motion_pilot,2023.2.2,Win32,163.9344262,601857c3c3f5ce0c3e5fb913,65d2b6c8f2eece985d8e374c,65d2b9360b64bbe7b18e2682,0.0212,0.0212,0,104,104,100,1,sevenfive,,,,,,,,,,,,,,,,,,,,,,,,,,,,,,,,,,,,,,,,,,,,,,,,,,,,,,,,,,,,,,,,,,,,,,,,,,,,,,,,,,,,,,,,,,,,,,,,,,,,,,,,,,,,,,,,,,,,,,,,,,,,,,,,,,,,,,,,,
,,601857c3c3f5ce0c3e5fb913,2024-02-18_20h17.21.577,kallum_motion_pilot,2023.2.2,Win32,163.9344262,601857c3c3f5ce0c3e5fb913,65d2b6c8f2eece985d8e374c,65d2b9360b64bbe7b18e2682,0.0212,0.0212,0,105,105,107,1,sixeight,,,,,,,,,,,,,,,,,,,,,,,,,,,,,,,,,,,,,,,,,,,,,,,,,,,,,,,,,,,,,,,,,,,,,,,,,,,,,,,,,,,,,,,,,,,,,,,,,,,,,,,,,,,,,,,,,,,,,,,,,,,,,,,,,,,,,,,,,
,,601857c3c3f5ce0c3e5fb913,2024-02-18_20h17.21.577,kallum_motion_pilot,2023.2.2,Win32,163.9344262,601857c3c3f5ce0c3e5fb913,65d2b6c8f2eece985d8e374c,65d2b9360b64bbe7b18e2682,0.0213,0.0213,0,106,106,23,1,fourthree,,,,,,,,,,,,,,,,,,,,,,,,,,,,,,,,,,,,,,,,,,,,,,,,,,,,,,,,,,,,,,,,,,,,,,,,,,,,,,,,,,,,,,,,,,,,,,,,,,,,,,,,,,,,,,,,,,,,,,,,,,,,,,,,,,,,,,,,,
,,601857c3c3f5ce0c3e5fb913,2024-02-18_20h17.21.577,kallum_motion_pilot,2023.2.2,Win32,163.9344262,601857c3c3f5ce0c3e5fb913,65d2b6c8f2eece985d8e374c,65d2b9360b64bbe7b18e2682,0.0213,0.0214,0,107,107,98,1,sixfive,,,,,,,,,,,,,,,,,,,,,,,,,,,,,,,,,,,,,,,,,,,,,,,,,,,,,,,,,,,,,,,,,,,,,,,,,,,,,,,,,,,,,,,,,,,,,,,,,,,,,,,,,,,,,,,,,,,,,,,,,,,,,,,,,,,,,,,,,
,,601857c3c3f5ce0c3e5fb913,2024-02-18_20h17.21.577,kallum_motion_pilot,2023.2.2,Win32,163.9344262,601857c3c3f5ce0c3e5fb913,65d2b6c8f2eece985d8e374c,65d2b9360b64bbe7b18e2682,0.0214,0.0214,0,108,108,90,1,sixfive,,,,,,,,,,,,,,,,,,,,,,,,,,,,,,,,,,,,,,,,,,,,,,,,,,,,,,,,,,,,,,,,,,,,,,,,,,,,,,,,,,,,,,,,,,,,,,,,,,,,,,,,,,,,,,,,,,,,,,,,,,,,,,,,,,,,,,,,,
,,601857c3c3f5ce0c3e5fb913,2024-02-18_20h17.21.577,kallum_motion_pilot,2023.2.2,Win32,163.9344262,601857c3c3f5ce0c3e5fb913,65d2b6c8f2eece985d8e374c,65d2b9360b64bbe7b18e2682,0.0215,0.0215,0,109,109,10,1,twoone,,,,,,,,,,,,,,,,,,,,,,,,,,,,,,,,,,,,,,,,,,,,,,,,,,,,,,,,,,,,,,,,,,,,,,,,,,,,,,,,,,,,,,,,,,,,,,,,,,,,,,,,,,,,,,,,,,,,,,,,,,,,,,,,,,,,,,,,,
,,601857c3c3f5ce0c3e5fb913,2024-02-18_20h17.21.577,kallum_motion_pilot,2023.2.2,Win32,163.9344262,601857c3c3f5ce0c3e5fb913,65d2b6c8f2eece985d8e374c,65d2b9360b64bbe7b18e2682,0.0216,0.0216,0,110,110,81,1,fiveseven,,,,,,,,,,,,,,,,,,,,,,,,,,,,,,,,,,,,,,,,,,,,,,,,,,,,,,,,,,,,,,,,,,,,,,,,,,,,,,,,,,,,,,,,,,,,,,,,,,,,,,,,,,,,,,,,,,,,,,,,,,,,,,,,,,,,,,,,,
,,601857c3c3f5ce0c3e5fb913,2024-02-18_20h17.21.577,kallum_motion_pilot,2023.2.2,Win32,163.9344262,601857c3c3f5ce0c3e5fb913,65d2b6c8f2eece985d8e374c,65d2b9360b64bbe7b18e2682,0.0216,0.0217,0,111,111,109,1,seveneight,,,,,,,,,,,,,,,,,,,,,,,,,,,,,,,,,,,,,,,,,,,,,,,,,,,,,,,,,,,,,,,,,,,,,,,,,,,,,,,,,,,,,,,,,,,,,,,,,,,,,,,,,,,,,,,,,,,,,,,,,,,,,,,,,,,,,,,,,
,,601857c3c3f5ce0c3e5fb913,2024-02-18_20h17.21.577,kallum_motion_pilot,2023.2.2,Win32,163.9344262,601857c3c3f5ce0c3e5fb913,65d2b6c8f2eece985d8e374c,65d2b9360b64bbe7b18e2682,0.0217,0.0218,0,112,112,82,1,sixfive,,,,,,,,,,,,,,,,,,,,,,,,,,,,,,,,,,,,,,,,,,,,,,,,,,,,,,,,,,,,,,,,,,,,,,,,,,,,,,,,,,,,,,,,,,,,,,,,,,,,,,,,,,,,,,,,,,,,,,,,,,,,,,,,,,,,,,,,,
,,601857c3c3f5ce0c3e5fb913,2024-02-18_20h17.21.577,kallum_motion_pilot,2023.2.2,Win32,163.9344262,601857c3c3f5ce0c3e5fb913,65d2b6c8f2eece985d8e374c,65d2b9360b64bbe7b18e2682,0.0218,0.0218,0,113,113,52,1,threeone,,,,,,,,,,,,,,,,,,,,,,,,,,,,,,,,,,,,,,,,,,,,,,,,,,,,,,,,,,,,,,,,,,,,,,,,,,,,,,,,,,,,,,,,,,,,,,,,,,,,,,,,,,,,,,,,,,,,,,,,,,,,,,,,,,,,,,,,,
,,601857c3c3f5ce0c3e5fb913,2024-02-18_20h17.21.577,kallum_motion_pilot,2023.2.2,Win32,163.9344262,601857c3c3f5ce0c3e5fb913,65d2b6c8f2eece985d8e374c,65d2b9360b64bbe7b18e2682,0.0218,0.0218,0,114,114,159,1,eightseven,,,,,,,,,,,,,,,,,,,,,,,,,,,,,,,,,,,,,,,,,,,,,,,,,,,,,,,,,,,,,,,,,,,,,,,,,,,,,,,,,,,,,,,,,,,,,,,,,,,,,,,,,,,,,,,,,,,,,,,,,,,,,,,,,,,,,,,,,
,,601857c3c3f5ce0c3e5fb913,2024-02-18_20h17.21.577,kallum_motion_pilot,2023.2.2,Win32,163.9344262,601857c3c3f5ce0c3e5fb913,65d2b6c8f2eece985d8e374c,65d2b9360b64bbe7b18e2682,0.0218,0.0219,0,115,115,99,1,sixeight,,,,,,,,,,,,,,,,,,,,,,,,,,,,,,,,,,,,,,,,,,,,,,,,,,,,,,,,,,,,,,,,,,,,,,,,,,,,,,,,,,,,,,,,,,,,,,,,,,,,,,,,,,,,,,,,,,,,,,,,,,,,,,,,,,,,,,,,,
,,601857c3c3f5ce0c3e5fb913,2024-02-18_20h17.21.577,kallum_motion_pilot,2023.2.2,Win32,163.9344262,601857c3c3f5ce0c3e5fb913,65d2b6c8f2eece985d8e374c,65d2b9360b64bbe7b18e2682,0.0219,0.022,0,116,116,9,1,onethree,,,,,,,,,,,,,,,,,,,,,,,,,,,,,,,,,,,,,,,,,,,,,,,,,,,,,,,,,,,,,,,,,,,,,,,,,,,,,,,,,,,,,,,,,,,,,,,,,,,,,,,,,,,,,,,,,,,,,,,,,,,,,,,,,,,,,,,,,
,,601857c3c3f5ce0c3e5fb913,2024-02-18_20h17.21.577,kallum_motion_pilot,2023.2.2,Win32,163.9344262,601857c3c3f5ce0c3e5fb913,65d2b6c8f2eece985d8e374c,65d2b9360b64bbe7b18e2682,0.022,0.0221,0,117,117,124,1,sevenfive,,,,,,,,,,,,,,,,,,,,,,,,,,,,,,,,,,,,,,,,,,,,,,,,,,,,,,,,,,,,,,,,,,,,,,,,,,,,,,,,,,,,,,,,,,,,,,,,,,,,,,,,,,,,,,,,,,,,,,,,,,,,,,,,,,,,,,,,,
,,601857c3c3f5ce0c3e5fb913,2024-02-18_20h17.21.577,kallum_motion_pilot,2023.2.2,Win32,163.9344262,601857c3c3f5ce0c3e5fb913,65d2b6c8f2eece985d8e374c,65d2b9360b64bbe7b18e2682,0.0221,0.0221,0,118,118,144,1,fivesix,,,,,,,,,,,,,,,,,,,,,,,,,,,,,,,,,,,,,,,,,,,,,,,,,,,,,,,,,,,,,,,,,,,,,,,,,,,,,,,,,,,,,,,,,,,,,,,,,,,,,,,,,,,,,,,,,,,,,,,,,,,,,,,,,,,,,,,,,
,,601857c3c3f5ce0c3e5fb913,2024-02-18_20h17.21.577,kallum_motion_pilot,2023.2.2,Win32,163.9344262,601857c3c3f5ce0c3e5fb913,65d2b6c8f2eece985d8e374c,65d2b9360b64bbe7b18e2682,0.0222,0.0222,0,119,119,63,1,fourthree,,,,,,,,,,,,,,,,,,,,,,,,,,,,,,,,,,,,,,,,,,,,,,,,,,,,,,,,,,,,,,,,,,,,,,,,,,,,,,,,,,,,,,,,,,,,,,,,,,,,,,,,,,,,,,,,,,,,,,,,,,,,,,,,,,,,,,,,,
,,601857c3c3f5ce0c3e5fb913,2024-02-18_20h17.21.577,kallum_motion_pilot,2023.2.2,Win32,163.9344262,601857c3c3f5ce0c3e5fb913,65d2b6c8f2eece985d8e374c,65d2b9360b64bbe7b18e2682,0.0222,0.0222,0,120,120,54,1,fourtwo,,,,,,,,,,,,,,,,,,,,,,,,,,,,,,,,,,,,,,,,,,,,,,,,,,,,,,,,,,,,,,,,,,,,,,,,,,,,,,,,,,,,,,,,,,,,,,,,,,,,,,,,,,,,,,,,,,,,,,,,,,,,,,,,,,,,,,,,,
,,601857c3c3f5ce0c3e5fb913,2024-02-18_20h17.21.577,kallum_motion_pilot,2023.2.2,Win32,163.9344262,601857c3c3f5ce0c3e5fb913,65d2b6c8f2eece985d8e374c,65d2b9360b64bbe7b18e2682,0.0223,0.0223,0,121,121,67,1,twofour,,,,,,,,,,,,,,,,,,,,,,,,,,,,,,,,,,,,,,,,,,,,,,,,,,,,,,,,,,,,,,,,,,,,,,,,,,,,,,,,,,,,,,,,,,,,,,,,,,,,,,,,,,,,,,,,,,,,,,,,,,,,,,,,,,,,,,,,,
,,601857c3c3f5ce0c3e5fb913,2024-02-18_20h17.21.577,kallum_motion_pilot,2023.2.2,Win32,163.9344262,601857c3c3f5ce0c3e5fb913,65d2b6c8f2eece985d8e374c,65d2b9360b64bbe7b18e2682,0.0223,0.0223,0,122,122,130,1,sixfive,,,,,,,,,,,,,,,,,,,,,,,,,,,,,,,,,,,,,,,,,,,,,,,,,,,,,,,,,,,,,,,,,,,,,,,,,,,,,,,,,,,,,,,,,,,,,,,,,,,,,,,,,,,,,,,,,,,,,,,,,,,,,,,,,,,,,,,,,
,,601857c3c3f5ce0c3e5fb913,2024-02-18_20h17.21.577,kallum_motion_pilot,2023.2.2,Win32,163.9344262,601857c3c3f5ce0c3e5fb913,65d2b6c8f2eece985d8e374c,65d2b9360b64bbe7b18e2682,0.0224,0.0224,0,123,123,160,1,fivesix,,,,,,,,,,,,,,,,,,,,,,,,,,,,,,,,,,,,,,,,,,,,,,,,,,,,,,,,,,,,,,,,,,,,,,,,,,,,,,,,,,,,,,,,,,,,,,,,,,,,,,,,,,,,,,,,,,,,,,,,,,,,,,,,,,,,,,,,,
,,601857c3c3f5ce0c3e5fb913,2024-02-18_20h17.21.577,kallum_motion_pilot,2023.2.2,Win32,163.9344262,601857c3c3f5ce0c3e5fb913,65d2b6c8f2eece985d8e374c,65d2b9360b64bbe7b18e2682,0.0225,0.0226,0,124,124,6,1,fourtwo,,,,,,,,,,,,,,,,,,,,,,,,,,,,,,,,,,,,,,,,,,,,,,,,,,,,,,,,,,,,,,,,,,,,,,,,,,,,,,,,,,,,,,,,,,,,,,,,,,,,,,,,,,,,,,,,,,,,,,,,,,,,,,,,,,,,,,,,,
,,601857c3c3f5ce0c3e5fb913,2024-02-18_20h17.21.577,kallum_motion_pilot,2023.2.2,Win32,163.9344262,601857c3c3f5ce0c3e5fb913,65d2b6c8f2eece985d8e374c,65d2b9360b64bbe7b18e2682,0.0226,0.0226,0,125,125,131,1,sixeight,,,,,,,,,,,,,,,,,,,,,,,,,,,,,,,,,,,,,,,,,,,,,,,,,,,,,,,,,,,,,,,,,,,,,,,,,,,,,,,,,,,,,,,,,,,,,,,,,,,,,,,,,,,,,,,,,,,,,,,,,,,,,,,,,,,,,,,,,
,,601857c3c3f5ce0c3e5fb913,2024-02-18_20h17.21.577,kallum_motion_pilot,2023.2.2,Win32,163.9344262,601857c3c3f5ce0c3e5fb913,65d2b6c8f2eece985d8e374c,65d2b9360b64bbe7b18e2682,0.0227,0.0227,0,126,126,75,1,twofour,,,,,,,,,,,,,,,,,,,,,,,,,,,,,,,,,,,,,,,,,,,,,,,,,,,,,,,,,,,,,,,,,,,,,,,,,,,,,,,,,,,,,,,,,,,,,,,,,,,,,,,,,,,,,,,,,,,,,,,,,,,,,,,,,,,,,,,,,
,,601857c3c3f5ce0c3e5fb913,2024-02-18_20h17.21.577,kallum_motion_pilot,2023.2.2,Win32,163.9344262,601857c3c3f5ce0c3e5fb913,65d2b6c8f2eece985d8e374c,65d2b9360b64bbe7b18e2682,0.0227,0.0227,0,127,127,91,1,sixeight,,,,,,,,,,,,,,,,,,,,,,,,,,,,,,,,,,,,,,,,,,,,,,,,,,,,,,,,,,,,,,,,,,,,,,,,,,,,,,,,,,,,,,,,,,,,,,,,,,,,,,,,,,,,,,,,,,,,,,,,,,,,,,,,,,,,,,,,,
,,601857c3c3f5ce0c3e5fb913,2024-02-18_20h17.21.577,kallum_motion_pilot,2023.2.2,Win32,163.9344262,601857c3c3f5ce0c3e5fb913,65d2b6c8f2eece985d8e374c,65d2b9360b64bbe7b18e2682,0.0228,0.0228,0,128,128,152,1,fivesix,,,,,,,,,,,,,,,,,,,,,,,,,,,,,,,,,,,,,,,,,,,,,,,,,,,,,,,,,,,,,,,,,,,,,,,,,,,,,,,,,,,,,,,,,,,,,,,,,,,,,,,,,,,,,,,,,,,,,,,,,,,,,,,,,,,,,,,,,
,,601857c3c3f5ce0c3e5fb913,2024-02-18_20h17.21.577,kallum_motion_pilot,2023.2.2,Win32,163.9344262,601857c3c3f5ce0c3e5fb913,65d2b6c8f2eece985d8e374c,65d2b9360b64bbe7b18e2682,0.0228,0.0229,0,129,129,13,1,threefour,,,,,,,,,,,,,,,,,,,,,,,,,,,,,,,,,,,,,,,,,,,,,,,,,,,,,,,,,,,,,,,,,,,,,,,,,,,,,,,,,,,,,,,,,,,,,,,,,,,,,,,,,,,,,,,,,,,,,,,,,,,,,,,,,,,,,,,,,
,,601857c3c3f5ce0c3e5fb913,2024-02-18_20h17.21.577,kallum_motion_pilot,2023.2.2,Win32,163.9344262,601857c3c3f5ce0c3e5fb913,65d2b6c8f2eece985d8e374c,65d2b9360b64bbe7b18e2682,0.023,0.023,0,130,130,80,1,fivesix,,,,,,,,,,,,,,,,,,,,,,,,,,,,,,,,,,,,,,,,,,,,,,,,,,,,,,,,,,,,,,,,,,,,,,,,,,,,,,,,,,,,,,,,,,,,,,,,,,,,,,,,,,,,,,,,,,,,,,,,,,,,,,,,,,,,,,,,,
,,601857c3c3f5ce0c3e5fb913,2024-02-18_20h17.21.577,kallum_motion_pilot,2023.2.2,Win32,163.9344262,601857c3c3f5ce0c3e5fb913,65d2b6c8f2eece985d8e374c,65d2b9360b64bbe7b18e2682,0.023,0.0231,0,131,131,4,1,threeone,,,,,,,,,,,,,,,,,,,,,,,,,,,,,,,,,,,,,,,,,,,,,,,,,,,,,,,,,,,,,,,,,,,,,,,,,,,,,,,,,,,,,,,,,,,,,,,,,,,,,,,,,,,,,,,,,,,,,,,,,,,,,,,,,,,,,,,,,
,,601857c3c3f5ce0c3e5fb913,2024-02-18_20h17.21.577,kallum_motion_pilot,2023.2.2,Win32,163.9344262,601857c3c3f5ce0c3e5fb913,65d2b6c8f2eece985d8e374c,65d2b9360b64bbe7b18e2682,0.0231,0.0232,0,132,132,61,1,threefour,,,,,,,,,,,,,,,,,,,,,,,,,,,,,,,,,,,,,,,,,,,,,,,,,,,,,,,,,,,,,,,,,,,,,,,,,,,,,,,,,,,,,,,,,,,,,,,,,,,,,,,,,,,,,,,,,,,,,,,,,,,,,,,,,,,,,,,,,
,,601857c3c3f5ce0c3e5fb913,2024-02-18_20h17.21.577,kallum_motion_pilot,2023.2.2,Win32,163.9344262,601857c3c3f5ce0c3e5fb913,65d2b6c8f2eece985d8e374c,65d2b9360b64bbe7b18e2682,0.0232,0.0232,0,133,133,113,1,fiveseven,,,,,,,,,,,,,,,,,,,,,,,,,,,,,,,,,,,,,,,,,,,,,,,,,,,,,,,,,,,,,,,,,,,,,,,,,,,,,,,,,,,,,,,,,,,,,,,,,,,,,,,,,,,,,,,,,,,,,,,,,,,,,,,,,,,,,,,,,
,,601857c3c3f5ce0c3e5fb913,2024-02-18_20h17.21.577,kallum_motion_pilot,2023.2.2,Win32,163.9344262,601857c3c3f5ce0c3e5fb913,65d2b6c8f2eece985d8e374c,65d2b9360b64bbe7b18e2682,0.0233,0.0233,0,134,134,35,1,twofour,,,,,,,,,,,,,,,,,,,,,,,,,,,,,,,,,,,,,,,,,,,,,,,,,,,,,,,,,,,,,,,,,,,,,,,,,,,,,,,,,,,,,,,,,,,,,,,,,,,,,,,,,,,,,,,,,,,,,,,,,,,,,,,,,,,,,,,,,
,,601857c3c3f5ce0c3e5fb913,2024-02-18_20h17.21.577,kallum_motion_pilot,2023.2.2,Win32,163.9344262,601857c3c3f5ce0c3e5fb913,65d2b6c8f2eece985d8e374c,65d2b9360b64bbe7b18e2682,0.0233,0.0233,0,135,135,57,1,onethree,,,,,,,,,,,,,,,,,,,,,,,,,,,,,,,,,,,,,,,,,,,,,,,,,,,,,,,,,,,,,,,,,,,,,,,,,,,,,,,,,,,,,,,,,,,,,,,,,,,,,,,,,,,,,,,,,,,,,,,,,,,,,,,,,,,,,,,,,
,,601857c3c3f5ce0c3e5fb913,2024-02-18_20h17.21.577,kallum_motion_pilot,2023.2.2,Win32,163.9344262,601857c3c3f5ce0c3e5fb913,65d2b6c8f2eece985d8e374c,65d2b9360b64bbe7b18e2682,0.0233,0.0234,0,136,136,118,1,eightsix,,,,,,,,,,,,,,,,,,,,,,,,,,,,,,,,,,,,,,,,,,,,,,,,,,,,,,,,,,,,,,,,,,,,,,,,,,,,,,,,,,,,,,,,,,,,,,,,,,,,,,,,,,,,,,,,,,,,,,,,,,,,,,,,,,,,,,,,,
,,601857c3c3f5ce0c3e5fb913,2024-02-18_20h17.21.577,kallum_motion_pilot,2023.2.2,Win32,163.9344262,601857c3c3f5ce0c3e5fb913,65d2b6c8f2eece985d8e374c,65d2b9360b64bbe7b18e2682,0.0234,0.0234,0,137,137,158,1,eightsix,,,,,,,,,,,,,,,,,,,,,,,,,,,,,,,,,,,,,,,,,,,,,,,,,,,,,,,,,,,,,,,,,,,,,,,,,,,,,,,,,,,,,,,,,,,,,,,,,,,,,,,,,,,,,,,,,,,,,,,,,,,,,,,,,,,,,,,,,
,,601857c3c3f5ce0c3e5fb913,2024-02-18_20h17.21.577,kallum_motion_pilot,2023.2.2,Win32,163.9344262,601857c3c3f5ce0c3e5fb913,65d2b6c8f2eece985d8e374c,65d2b9360b64bbe7b18e2682,0.0235,0.0235,0,138,138,21,1,threefour,,,,,,,,,,,,,,,,,,,,,,,,,,,,,,,,,,,,,,,,,,,,,,,,,,,,,,,,,,,,,,,,,,,,,,,,,,,,,,,,,,,,,,,,,,,,,,,,,,,,,,,,,,,,,,,,,,,,,,,,,,,,,,,,,,,,,,,,,
,,601857c3c3f5ce0c3e5fb913,2024-02-18_20h17.21.577,kallum_motion_pilot,2023.2.2,Win32,163.9344262,601857c3c3f5ce0c3e5fb913,65d2b6c8f2eece985d8e374c,65d2b9360b64bbe7b18e2682,0.0235,0.0236,0,139,139,102,1,eightsix,,,,,,,,,,,,,,,,,,,,,,,,,,,,,,,,,,,,,,,,,,,,,,,,,,,,,,,,,,,,,,,,,,,,,,,,,,,,,,,,,,,,,,,,,,,,,,,,,,,,,,,,,,,,,,,,,,,,,,,,,,,,,,,,,,,,,,,,,
,,601857c3c3f5ce0c3e5fb913,2024-02-18_20h17.21.577,kallum_motion_pilot,2023.2.2,Win32,163.9344262,601857c3c3f5ce0c3e5fb913,65d2b6c8f2eece985d8e374c,65d2b9360b64bbe7b18e2682,0.0236,0.0237,0,140,140,27,1,twofour,,,,,,,,,,,,,,,,,,,,,,,,,,,,,,,,,,,,,,,,,,,,,,,,,,,,,,,,,,,,,,,,,,,,,,,,,,,,,,,,,,,,,,,,,,,,,,,,,,,,,,,,,,,,,,,,,,,,,,,,,,,,,,,,,,,,,,,,,
,,601857c3c3f5ce0c3e5fb913,2024-02-18_20h17.21.577,kallum_motion_pilot,2023.2.2,Win32,163.9344262,601857c3c3f5ce0c3e5fb913,65d2b6c8f2eece985d8e374c,65d2b9360b64bbe7b18e2682,0.0237,0.0238,0,141,141,128,1,fivesix,,,,,,,,,,,,,,,,,,,,,,,,,,,,,,,,,,,,,,,,,,,,,,,,,,,,,,,,,,,,,,,,,,,,,,,,,,,,,,,,,,,,,,,,,,,,,,,,,,,,,,,,,,,,,,,,,,,,,,,,,,,,,,,,,,,,,,,,,
,,601857c3c3f5ce0c3e5fb913,2024-02-18_20h17.21.577,kallum_motion_pilot,2023.2.2,Win32,163.9344262,601857c3c3f5ce0c3e5fb913,65d2b6c8f2eece985d8e374c,65d2b9360b64bbe7b18e2682,0.0238,0.0238,0,142,142,30,1,fourtwo,,,,,,,,,,,,,,,,,,,,,,,,,,,,,,,,,,,,,,,,,,,,,,,,,,,,,,,,,,,,,,,,,,,,,,,,,,,,,,,,,,,,,,,,,,,,,,,,,,,,,,,,,,,,,,,,,,,,,,,,,,,,,,,,,,,,,,,,,
,,601857c3c3f5ce0c3e5fb913,2024-02-18_20h17.21.577,kallum_motion_pilot,2023.2.2,Win32,163.9344262,601857c3c3f5ce0c3e5fb913,65d2b6c8f2eece985d8e374c,65d2b9360b64bbe7b18e2682,0.0239,0.0239,0,143,143,143,1,eightseven,,,,,,,,,,,,,,,,,,,,,,,,,,,,,,,,,,,,,,,,,,,,,,,,,,,,,,,,,,,,,,,,,,,,,,,,,,,,,,,,,,,,,,,,,,,,,,,,,,,,,,,,,,,,,,,,,,,,,,,,,,,,,,,,,,,,,,,,,
,,601857c3c3f5ce0c3e5fb913,2024-02-18_20h17.21.577,kallum_motion_pilot,2023.2.2,Win32,163.9344262,601857c3c3f5ce0c3e5fb913,65d2b6c8f2eece985d8e374c,65d2b9360b64bbe7b18e2682,0.0239,0.0239,0,144,144,97,1,fiveseven,,,,,,,,,,,,,,,,,,,,,,,,,,,,,,,,,,,,,,,,,,,,,,,,,,,,,,,,,,,,,,,,,,,,,,,,,,,,,,,,,,,,,,,,,,,,,,,,,,,,,,,,,,,,,,,,,,,,,,,,,,,,,,,,,,,,,,,,,
,,601857c3c3f5ce0c3e5fb913,2024-02-18_20h17.21.577,kallum_motion_pilot,2023.2.2,Win32,163.9344262,601857c3c3f5ce0c3e5fb913,65d2b6c8f2eece985d8e374c,65d2b9360b64bbe7b18e2682,0.024,0.024,0,145,145,95,1,eightseven,,,,,,,,,,,,,,,,,,,,,,,,,,,,,,,,,,,,,,,,,,,,,,,,,,,,,,,,,,,,,,,,,,,,,,,,,,,,,,,,,,,,,,,,,,,,,,,,,,,,,,,,,,,,,,,,,,,,,,,,,,,,,,,,,,,,,,,,,
,,601857c3c3f5ce0c3e5fb913,2024-02-18_20h17.21.577,kallum_motion_pilot,2023.2.2,Win32,163.9344262,601857c3c3f5ce0c3e5fb913,65d2b6c8f2eece985d8e374c,65d2b9360b64bbe7b18e2682,0.0241,0.0241,0,146,146,59,1,twofour,,,,,,,,,,,,,,,,,,,,,,,,,,,,,,,,,,,,,,,,,,,,,,,,,,,,,,,,,,,,,,,,,,,,,,,,,,,,,,,,,,,,,,,,,,,,,,,,,,,,,,,,,,,,,,,,,,,,,,,,,,,,,,,,,,,,,,,,,
,,601857c3c3f5ce0c3e5fb913,2024-02-18_20h17.21.577,kallum_motion_pilot,2023.2.2,Win32,163.9344262,601857c3c3f5ce0c3e5fb913,65d2b6c8f2eece985d8e374c,65d2b9360b64bbe7b18e2682,0.0241,0.0242,0,147,147,1,1,onethree,,,,,,,,,,,,,,,,,,,,,,,,,,,,,,,,,,,,,,,,,,,,,,,,,,,,,,,,,,,,,,,,,,,,,,,,,,,,,,,,,,,,,,,,,,,,,,,,,,,,,,,,,,,,,,,,,,,,,,,,,,,,,,,,,,,,,,,,,
,,601857c3c3f5ce0c3e5fb913,2024-02-18_20h17.21.577,kallum_motion_pilot,2023.2.2,Win32,163.9344262,601857c3c3f5ce0c3e5fb913,65d2b6c8f2eece985d8e374c,65d2b9360b64bbe7b18e2682,0.0242,0.0242,0,148,148,31,1,fourthree,,,,,,,,,,,,,,,,,,,,,,,,,,,,,,,,,,,,,,,,,,,,,,,,,,,,,,,,,,,,,,,,,,,,,,,,,,,,,,,,,,,,,,,,,,,,,,,,,,,,,,,,,,,,,,,,,,,,,,,,,,,,,,,,,,,,,,,,,
,,601857c3c3f5ce0c3e5fb913,2024-02-18_20h17.21.577,kallum_motion_pilot,2023.2.2,Win32,163.9344262,601857c3c3f5ce0c3e5fb913,65d2b6c8f2eece985d8e374c,65d2b9360b64bbe7b18e2682,0.0243,0.0243,0,149,149,126,1,eightsix,,,,,,,,,,,,,,,,,,,,,,,,,,,,,,,,,,,,,,,,,,,,,,,,,,,,,,,,,,,,,,,,,,,,,,,,,,,,,,,,,,,,,,,,,,,,,,,,,,,,,,,,,,,,,,,,,,,,,,,,,,,,,,,,,,,,,,,,,
,,601857c3c3f5ce0c3e5fb913,2024-02-18_20h17.21.577,kallum_motion_pilot,2023.2.2,Win32,163.9344262,601857c3c3f5ce0c3e5fb913,65d2b6c8f2eece985d8e374c,65d2b9360b64bbe7b18e2682,0.0243,0.0244,0,150,150,136,1,fivesix,,,,,,,,,,,,,,,,,,,,,,,,,,,,,,,,,,,,,,,,,,,,,,,,,,,,,,,,,,,,,,,,,,,,,,,,,,,,,,,,,,,,,,,,,,,,,,,,,,,,,,,,,,,,,,,,,,,,,,,,,,,,,,,,,,,,,,,,,
,,601857c3c3f5ce0c3e5fb913,2024-02-18_20h17.21.577,kallum_motion_pilot,2023.2.2,Win32,163.9344262,601857c3c3f5ce0c3e5fb913,65d2b6c8f2eece985d8e374c,65d2b9360b64bbe7b18e2682,0.0244,0.0244,0,151,151,135,1,eightseven,,,,,,,,,,,,,,,,,,,,,,,,,,,,,,,,,,,,,,,,,,,,,,,,,,,,,,,,,,,,,,,,,,,,,,,,,,,,,,,,,,,,,,,,,,,,,,,,,,,,,,,,,,,,,,,,,,,,,,,,,,,,,,,,,,,,,,,,,
,,601857c3c3f5ce0c3e5fb913,2024-02-18_20h17.21.577,kallum_motion_pilot,2023.2.2,Win32,163.9344262,601857c3c3f5ce0c3e5fb913,65d2b6c8f2eece985d8e374c,65d2b9360b64bbe7b18e2682,0.0245,0.0245,0,152,152,153,1,fiveseven,,,,,,,,,,,,,,,,,,,,,,,,,,,,,,,,,,,,,,,,,,,,,,,,,,,,,,,,,,,,,,,,,,,,,,,,,,,,,,,,,,,,,,,,,,,,,,,,,,,,,,,,,,,,,,,,,,,,,,,,,,,,,,,,,,,,,,,,,
,,601857c3c3f5ce0c3e5fb913,2024-02-18_20h17.21.577,kallum_motion_pilot,2023.2.2,Win32,163.9344262,601857c3c3f5ce0c3e5fb913,65d2b6c8f2eece985d8e374c,65d2b9360b64bbe7b18e2682,0.0245,0.0246,0,153,153,29,1,threefour,,,,,,,,,,,,,,,,,,,,,,,,,,,,,,,,,,,,,,,,,,,,,,,,,,,,,,,,,,,,,,,,,,,,,,,,,,,,,,,,,,,,,,,,,,,,,,,,,,,,,,,,,,,,,,,,,,,,,,,,,,,,,,,,,,,,,,,,,
,,601857c3c3f5ce0c3e5fb913,2024-02-18_20h17.21.577,kallum_motion_pilot,2023.2.2,Win32,163.9344262,601857c3c3f5ce0c3e5fb913,65d2b6c8f2eece985d8e374c,65d2b9360b64bbe7b18e2682,0.0246,0.0246,0,154,154,122,1,sixfive,,,,,,,,,,,,,,,,,,,,,,,,,,,,,,,,,,,,,,,,,,,,,,,,,,,,,,,,,,,,,,,,,,,,,,,,,,,,,,,,,,,,,,,,,,,,,,,,,,,,,,,,,,,,,,,,,,,,,,,,,,,,,,,,,,,,,,,,,
,,601857c3c3f5ce0c3e5fb913,2024-02-18_20h17.21.577,kallum_motion_pilot,2023.2.2,Win32,163.9344262,601857c3c3f5ce0c3e5fb913,65d2b6c8f2eece985d8e374c,65d2b9360b64bbe7b18e2682,0.0247,0.0247,0,155,155,19,1,twofour,,,,,,,,,,,,,,,,,,,,,,,,,,,,,,,,,,,,,,,,,,,,,,,,,,,,,,,,,,,,,,,,,,,,,,,,,,,,,,,,,,,,,,,,,,,,,,,,,,,,,,,,,,,,,,,,,,,,,,,,,,,,,,,,,,,,,,,,,
,,601857c3c3f5ce0c3e5fb913,2024-02-18_20h17.21.577,kallum_motion_pilot,2023.2.2,Win32,163.9344262,601857c3c3f5ce0c3e5fb913,65d2b6c8f2eece985d8e374c,65d2b9360b64bbe7b18e2682,0.0247,0.0248,0,156,156,148,1,sevenfive,,,,,,,,,,,,,,,,,,,,,,,,,,,,,,,,,,,,,,,,,,,,,,,,,,,,,,,,,,,,,,,,,,,,,,,,,,,,,,,,,,,,,,,,,,,,,,,,,,,,,,,,,,,,,,,,,,,,,,,,,,,,,,,,,,,,,,,,,
,,601857c3c3f5ce0c3e5fb913,2024-02-18_20h17.21.577,kallum_motion_pilot,2023.2.2,Win32,163.9344262,601857c3c3f5ce0c3e5fb913,65d2b6c8f2eece985d8e374c,65d2b9360b64bbe7b18e2682,0.0248,0.0248,0,157,157,101,1,seveneight,,,,,,,,,,,,,,,,,,,,,,,,,,,,,,,,,,,,,,,,,,,,,,,,,,,,,,,,,,,,,,,,,,,,,,,,,,,,,,,,,,,,,,,,,,,,,,,,,,,,,,,,,,,,,,,,,,,,,,,,,,,,,,,,,,,,,,,,,
,,601857c3c3f5ce0c3e5fb913,2024-02-18_20h17.21.577,kallum_motion_pilot,2023.2.2,Win32,163.9344262,601857c3c3f5ce0c3e5fb913,65d2b6c8f2eece985d8e374c,65d2b9360b64bbe7b18e2682,0.0249,0.025,0,158,158,16,1,onetwo,,,,,,,,,,,,,,,,,,,,,,,,,,,,,,,,,,,,,,,,,,,,,,,,,,,,,,,,,,,,,,,,,,,,,,,,,,,,,,,,,,,,,,,,,,,,,,,,,,,,,,,,,,,,,,,,,,,,,,,,,,,,,,,,,,,,,,,,,
,,601857c3c3f5ce0c3e5fb913,2024-02-18_20h17.21.577,kallum_motion_pilot,2023.2.2,Win32,163.9344262,601857c3c3f5ce0c3e5fb913,65d2b6c8f2eece985d8e374c,65d2b9360b64bbe7b18e2682,0.025,0.025,0,159,159,93,1,seveneight,,,,,,,,,,,,,,,,,,,,,,,,,,,,,,,,,,,,,,,,,,,,,,,,,,,,,,,,,,,,,,,,,,,,,,,,,,,,,,,,,,,,,,,,,,,,,,,,,,,,,,,,,,,,,,,,,,,,,,,,,,,,,,,,,,,,,,,,,
,,601857c3c3f5ce0c3e5fb913,2024-02-18_20h17.21.577,kallum_motion_pilot,2023.2.2,Win32,163.9344262,601857c3c3f5ce0c3e5fb913,65d2b6c8f2eece985d8e374c,65d2b9360b64bbe7b18e2682,0.025,0.0251,0,160,160,17,1,onethree,,,,,,,,,,,,,,,,,,,,,,,,,,,,,,,,,,,,,,,,,,,,,,,,,,,,,,,,,,,,,,,,,,,,,,,,,,,,,,,,,,,,,,,,,,,,,,,,,,,,,,,,,,,,,,,,,,,,,,,,,,,,,,,,,,,,,,,,,
,,601857c3c3f5ce0c3e5fb913,2024-02-18_20h17.21.577,kallum_motion_pilot,2023.2.2,Win32,163.9344262,601857c3c3f5ce0c3e5fb913,65d2b6c8f2eece985d8e374c,65d2b9360b64bbe7b18e2682,0.0252,0.0252,0,161,161,114,1,sixfive,,,,,,,,,,,,,,,,,,,,,,,,,,,,,,,,,,,,,,,,,,,,,,,,,,,,,,,,,,,,,,,,,,,,,,,,,,,,,,,,,,,,,,,,,,,,,,,,,,,,,,,,,,,,,,,,,,,,,,,,,,,,,,,,,,,,,,,,,
,,601857c3c3f5ce0c3e5fb913,2024-02-18_20h17.21.577,kallum_motion_pilot,2023.2.2,Win32,163.9344262,601857c3c3f5ce0c3e5fb913,65d2b6c8f2eece985d8e374c,65d2b9360b64bbe7b18e2682,0.0253,0.0253,1,0,162,57,1,onethree,,,,,,,,,,,,,,,,,,,,,,,,,,,,,,,,,,,,,,,,,,,,,,,,,,,,,,,,,,,,,,,,,,,,,,,,,,,,,,,,,,,,,,,,,,,,,,,,,,,,,,,,,,,,,,,,,,,,,,,,,,,,,,,,,,,,,,,,,
,,601857c3c3f5ce0c3e5fb913,2024-02-18_20h17.21.577,kallum_motion_pilot,2023.2.2,Win32,163.9344262,601857c3c3f5ce0c3e5fb913,65d2b6c8f2eece985d8e374c,65d2b9360b64bbe7b18e2682,0.0254,0.0254,1,1,163,52,1,threeone,,,,,,,,,,,,,,,,,,,,,,,,,,,,,,,,,,,,,,,,,,,,,,,,,,,,,,,,,,,,,,,,,,,,,,,,,,,,,,,,,,,,,,,,,,,,,,,,,,,,,,,,,,,,,,,,,,,,,,,,,,,,,,,,,,,,,,,,,
,,601857c3c3f5ce0c3e5fb913,2024-02-18_20h17.21.577,kallum_motion_pilot,2023.2.2,Win32,163.9344262,601857c3c3f5ce0c3e5fb913,65d2b6c8f2eece985d8e374c,65d2b9360b64bbe7b18e2682,0.0255,0.0255,1,2,164,126,1,eightsix,,,,,,,,,,,,,,,,,,,,,,,,,,,,,,,,,,,,,,,,,,,,,,,,,,,,,,,,,,,,,,,,,,,,,,,,,,,,,,,,,,,,,,,,,,,,,,,,,,,,,,,,,,,,,,,,,,,,,,,,,,,,,,,,,,,,,,,,,
,,601857c3c3f5ce0c3e5fb913,2024-02-18_20h17.21.577,kallum_motion_pilot,2023.2.2,Win32,163.9344262,601857c3c3f5ce0c3e5fb913,65d2b6c8f2eece985d8e374c,65d2b9360b64bbe7b18e2682,0.0255,0.0256,1,3,165,34,1,twoone,,,,,,,,,,,,,,,,,,,,,,,,,,,,,,,,,,,,,,,,,,,,,,,,,,,,,,,,,,,,,,,,,,,,,,,,,,,,,,,,,,,,,,,,,,,,,,,,,,,,,,,,,,,,,,,,,,,,,,,,,,,,,,,,,,,,,,,,,
,,601857c3c3f5ce0c3e5fb913,2024-02-18_20h17.21.577,kallum_motion_pilot,2023.2.2,Win32,163.9344262,601857c3c3f5ce0c3e5fb913,65d2b6c8f2eece985d8e374c,65d2b9360b64bbe7b18e2682,0.0256,0.0256,1,4,166,131,1,sixeight,,,,,,,,,,,,,,,,,,,,,,,,,,,,,,,,,,,,,,,,,,,,,,,,,,,,,,,,,,,,,,,,,,,,,,,,,,,,,,,,,,,,,,,,,,,,,,,,,,,,,,,,,,,,,,,,,,,,,,,,,,,,,,,,,,,,,,,,,
,,601857c3c3f5ce0c3e5fb913,2024-02-18_20h17.21.577,kallum_motion_pilot,2023.2.2,Win32,163.9344262,601857c3c3f5ce0c3e5fb913,65d2b6c8f2eece985d8e374c,65d2b9360b64bbe7b18e2682,0.0257,0.0257,1,5,167,41,1,onethree,,,,,,,,,,,,,,,,,,,,,,,,,,,,,,,,,,,,,,,,,,,,,,,,,,,,,,,,,,,,,,,,,,,,,,,,,,,,,,,,,,,,,,,,,,,,,,,,,,,,,,,,,,,,,,,,,,,,,,,,,,,,,,,,,,,,,,,,,
,,601857c3c3f5ce0c3e5fb913,2024-02-18_20h17.21.577,kallum_motion_pilot,2023.2.2,Win32,163.9344262,601857c3c3f5ce0c3e5fb913,65d2b6c8f2eece985d8e374c,65d2b9360b64bbe7b18e2682,0.0258,0.0258,1,6,168,30,1,fourtwo,,,,,,,,,,,,,,,,,,,,,,,,,,,,,,,,,,,,,,,,,,,,,,,,,,,,,,,,,,,,,,,,,,,,,,,,,,,,,,,,,,,,,,,,,,,,,,,,,,,,,,,,,,,,,,,,,,,,,,,,,,,,,,,,,,,,,,,,,
,,601857c3c3f5ce0c3e5fb913,2024-02-18_20h17.21.577,kallum_motion_pilot,2023.2.2,Win32,163.9344262,601857c3c3f5ce0c3e5fb913,65d2b6c8f2eece985d8e374c,65d2b9360b64bbe7b18e2682,0.0258,0.0259,1,7,169,49,1,onethree,,,,,,,,,,,,,,,,,,,,,,,,,,,,,,,,,,,,,,,,,,,,,,,,,,,,,,,,,,,,,,,,,,,,,,,,,,,,,,,,,,,,,,,,,,,,,,,,,,,,,,,,,,,,,,,,,,,,,,,,,,,,,,,,,,,,,,,,,
,,601857c3c3f5ce0c3e5fb913,2024-02-18_20h17.21.577,kallum_motion_pilot,2023.2.2,Win32,163.9344262,601857c3c3f5ce0c3e5fb913,65d2b6c8f2eece985d8e374c,65d2b9360b64bbe7b18e2682,0.0259,0.0259,1,8,170,18,1,twoone,,,,,,,,,,,,,,,,,,,,,,,,,,,,,,,,,,,,,,,,,,,,,,,,,,,,,,,,,,,,,,,,,,,,,,,,,,,,,,,,,,,,,,,,,,,,,,,,,,,,,,,,,,,,,,,,,,,,,,,,,,,,,,,,,,,,,,,,,
,,601857c3c3f5ce0c3e5fb913,2024-02-18_20h17.21.577,kallum_motion_pilot,2023.2.2,Win32,163.9344262,601857c3c3f5ce0c3e5fb913,65d2b6c8f2eece985d8e374c,65d2b9360b64bbe7b18e2682,0.026,0.026,1,9,171,123,1,sixeight,,,,,,,,,,,,,,,,,,,,,,,,,,,,,,,,,,,,,,,,,,,,,,,,,,,,,,,,,,,,,,,,,,,,,,,,,,,,,,,,,,,,,,,,,,,,,,,,,,,,,,,,,,,,,,,,,,,,,,,,,,,,,,,,,,,,,,,,,
,,601857c3c3f5ce0c3e5fb913,2024-02-18_20h17.21.577,kallum_motion_pilot,2023.2.2,Win32,163.9344262,601857c3c3f5ce0c3e5fb913,65d2b6c8f2eece985d8e374c,65d2b9360b64bbe7b18e2682,0.0261,0.0261,1,10,172,127,1,eightseven,,,,,,,,,,,,,,,,,,,,,,,,,,,,,,,,,,,,,,,,,,,,,,,,,,,,,,,,,,,,,,,,,,,,,,,,,,,,,,,,,,,,,,,,,,,,,,,,,,,,,,,,,,,,,,,,,,,,,,,,,,,,,,,,,,,,,,,,,
,,601857c3c3f5ce0c3e5fb913,2024-02-18_20h17.21.577,kallum_motion_pilot,2023.2.2,Win32,163.9344262,601857c3c3f5ce0c3e5fb913,65d2b6c8f2eece985d8e374c,65d2b9360b64bbe7b18e2682,0.0261,0.0261,1,11,173,149,1,seveneight,,,,,,,,,,,,,,,,,,,,,,,,,,,,,,,,,,,,,,,,,,,,,,,,,,,,,,,,,,,,,,,,,,,,,,,,,,,,,,,,,,,,,,,,,,,,,,,,,,,,,,,,,,,,,,,,,,,,,,,,,,,,,,,,,,,,,,,,,
,,601857c3c3f5ce0c3e5fb913,2024-02-18_20h17.21.577,kallum_motion_pilot,2023.2.2,Win32,163.9344262,601857c3c3f5ce0c3e5fb913,65d2b6c8f2eece985d8e374c,65d2b9360b64bbe7b18e2682,0.0262,0.0262,1,12,174,13,1,threefour,,,,,,,,,,,,,,,,,,,,,,,,,,,,,,,,,,,,,,,,,,,,,,,,,,,,,,,,,,,,,,,,,,,,,,,,,,,,,,,,,,,,,,,,,,,,,,,,,,,,,,,,,,,,,,,,,,,,,,,,,,,,,,,,,,,,,,,,,
,,601857c3c3f5ce0c3e5fb913,2024-02-18_20h17.21.577,kallum_motion_pilot,2023.2.2,Win32,163.9344262,601857c3c3f5ce0c3e5fb913,65d2b6c8f2eece985d8e374c,65d2b9360b64bbe7b18e2682,0.0262,0.0262,1,13,175,157,1,seveneight,,,,,,,,,,,,,,,,,,,,,,,,,,,,,,,,,,,,,,,,,,,,,,,,,,,,,,,,,,,,,,,,,,,,,,,,,,,,,,,,,,,,,,,,,,,,,,,,,,,,,,,,,,,,,,,,,,,,,,,,,,,,,,,,,,,,,,,,,
,,601857c3c3f5ce0c3e5fb913,2024-02-18_20h17.21.577,kallum_motion_pilot,2023.2.2,Win32,163.9344262,601857c3c3f5ce0c3e5fb913,65d2b6c8f2eece985d8e374c,65d2b9360b64bbe7b18e2682,0.0263,0.0264,1,14,176,58,1,twoone,,,,,,,,,,,,,,,,,,,,,,,,,,,,,,,,,,,,,,,,,,,,,,,,,,,,,,,,,,,,,,,,,,,,,,,,,,,,,,,,,,,,,,,,,,,,,,,,,,,,,,,,,,,,,,,,,,,,,,,,,,,,,,,,,,,,,,,,,
,,601857c3c3f5ce0c3e5fb913,2024-02-18_20h17.21.577,kallum_motion_pilot,2023.2.2,Win32,163.9344262,601857c3c3f5ce0c3e5fb913,65d2b6c8f2eece985d8e374c,65d2b9360b64bbe7b18e2682,0.0264,0.0264,1,15,177,65,1,onethree,,,,,,,,,,,,,,,,,,,,,,,,,,,,,,,,,,,,,,,,,,,,,,,,,,,,,,,,,,,,,,,,,,,,,,,,,,,,,,,,,,,,,,,,,,,,,,,,,,,,,,,,,,,,,,,,,,,,,,,,,,,,,,,,,,,,,,,,,
,,601857c3c3f5ce0c3e5fb913,2024-02-18_20h17.21.577,kallum_motion_pilot,2023.2.2,Win32,163.9344262,601857c3c3f5ce0c3e5fb913,65d2b6c8f2eece985d8e374c,65d2b9360b64bbe7b18e2682,0.0265,0.0265,1,16,178,32,1,onetwo,,,,,,,,,,,,,,,,,,,,,,,,,,,,,,,,,,,,,,,,,,,,,,,,,,,,,,,,,,,,,,,,,,,,,,,,,,,,,,,,,,,,,,,,,,,,,,,,,,,,,,,,,,,,,,,,,,,,,,,,,,,,,,,,,,,,,,,,,
,,601857c3c3f5ce0c3e5fb913,2024-02-18_20h17.21.577,kallum_motion_pilot,2023.2.2,Win32,163.9344262,601857c3c3f5ce0c3e5fb913,65d2b6c8f2eece985d8e374c,65d2b9360b64bbe7b18e2682,0.0266,0.0266,1,17,179,53,1,threefour,,,,,,,,,,,,,,,,,,,,,,,,,,,,,,,,,,,,,,,,,,,,,,,,,,,,,,,,,,,,,,,,,,,,,,,,,,,,,,,,,,,,,,,,,,,,,,,,,,,,,,,,,,,,,,,,,,,,,,,,,,,,,,,,,,,,,,,,,
,,601857c3c3f5ce0c3e5fb913,2024-02-18_20h17.21.577,kallum_motion_pilot,2023.2.2,Win32,163.9344262,601857c3c3f5ce0c3e5fb913,65d2b6c8f2eece985d8e374c,65d2b9360b64bbe7b18e2682,0.0266,0.0267,1,18,180,101,1,seveneight,,,,,,,,,,,,,,,,,,,,,,,,,,,,,,,,,,,,,,,,,,,,,,,,,,,,,,,,,,,,,,,,,,,,,,,,,,,,,,,,,,,,,,,,,,,,,,,,,,,,,,,,,,,,,,,,,,,,,,,,,,,,,,,,,,,,,,,,,
,,601857c3c3f5ce0c3e5fb913,2024-02-18_20h17.21.577,kallum_motion_pilot,2023.2.2,Win32,163.9344262,601857c3c3f5ce0c3e5fb913,65d2b6c8f2eece985d8e374c,65d2b9360b64bbe7b18e2682,0.0267,0.0268,1,19,181,10,1,twoone,,,,,,,,,,,,,,,,,,,,,,,,,,,,,,,,,,,,,,,,,,,,,,,,,,,,,,,,,,,,,,,,,,,,,,,,,,,,,,,,,,,,,,,,,,,,,,,,,,,,,,,,,,,,,,,,,,,,,,,,,,,,,,,,,,,,,,,,,
,,601857c3c3f5ce0c3e5fb913,2024-02-18_20h17.21.577,kallum_motion_pilot,2023.2.2,Win32,163.9344262,601857c3c3f5ce0c3e5fb913,65d2b6c8f2eece985d8e374c,65d2b9360b64bbe7b18e2682,0.0268,0.0268,1,20,182,16,1,onetwo,,,,,,,,,,,,,,,,,,,,,,,,,,,,,,,,,,,,,,,,,,,,,,,,,,,,,,,,,,,,,,,,,,,,,,,,,,,,,,,,,,,,,,,,,,,,,,,,,,,,,,,,,,,,,,,,,,,,,,,,,,,,,,,,,,,,,,,,,
,,601857c3c3f5ce0c3e5fb913,2024-02-18_20h17.21.577,kallum_motion_pilot,2023.2.2,Win32,163.9344262,601857c3c3f5ce0c3e5fb913,65d2b6c8f2eece985d8e374c,65d2b9360b64bbe7b18e2682,0.0269,0.0269,1,21,183,104,1,fivesix,,,,,,,,,,,,,,,,,,,,,,,,,,,,,,,,,,,,,,,,,,,,,,,,,,,,,,,,,,,,,,,,,,,,,,,,,,,,,,,,,,,,,,,,,,,,,,,,,,,,,,,,,,,,,,,,,,,,,,,,,,,,,,,,,,,,,,,,,
,,601857c3c3f5ce0c3e5fb913,2024-02-18_20h17.21.577,kallum_motion_pilot,2023.2.2,Win32,163.9344262,601857c3c3f5ce0c3e5fb913,65d2b6c8f2eece985d8e374c,65d2b9360b64bbe7b18e2682,0.027,0.027,1,22,184,56,1,onetwo,,,,,,,,,,,,,,,,,,,,,,,,,,,,,,,,,,,,,,,,,,,,,,,,,,,,,,,,,,,,,,,,,,,,,,,,,,,,,,,,,,,,,,,,,,,,,,,,,,,,,,,,,,,,,,,,,,,,,,,,,,,,,,,,,,,,,,,,,
,,601857c3c3f5ce0c3e5fb913,2024-02-18_20h17.21.577,kallum_motion_pilot,2023.2.2,Win32,163.9344262,601857c3c3f5ce0c3e5fb913,65d2b6c8f2eece985d8e374c,65d2b9360b64bbe7b18e2682,0.027,0.027,1,23,185,35,1,twofour,,,,,,,,,,,,,,,,,,,,,,,,,,,,,,,,,,,,,,,,,,,,,,,,,,,,,,,,,,,,,,,,,,,,,,,,,,,,,,,,,,,,,,,,,,,,,,,,,,,,,,,,,,,,,,,,,,,,,,,,,,,,,,,,,,,,,,,,,
,,601857c3c3f5ce0c3e5fb913,2024-02-18_20h17.21.577,kallum_motion_pilot,2023.2.2,Win32,163.9344262,601857c3c3f5ce0c3e5fb913,65d2b6c8f2eece985d8e374c,65d2b9360b64bbe7b18e2682,0.0271,0.0271,1,24,186,146,1,sixfive,,,,,,,,,,,,,,,,,,,,,,,,,,,,,,,,,,,,,,,,,,,,,,,,,,,,,,,,,,,,,,,,,,,,,,,,,,,,,,,,,,,,,,,,,,,,,,,,,,,,,,,,,,,,,,,,,,,,,,,,,,,,,,,,,,,,,,,,,
,,601857c3c3f5ce0c3e5fb913,2024-02-18_20h17.21.577,kallum_motion_pilot,2023.2.2,Win32,163.9344262,601857c3c3f5ce0c3e5fb913,65d2b6c8f2eece985d8e374c,65d2b9360b64bbe7b18e2682,0.0272,0.0273,1,25,187,124,1,sevenfive,,,,,,,,,,,,,,,,,,,,,,,,,,,,,,,,,,,,,,,,,,,,,,,,,,,,,,,,,,,,,,,,,,,,,,,,,,,,,,,,,,,,,,,,,,,,,,,,,,,,,,,,,,,,,,,,,,,,,,,,,,,,,,,,,,,,,,,,,
,,601857c3c3f5ce0c3e5fb913,2024-02-18_20h17.21.577,kallum_motion_pilot,2023.2.2,Win32,163.9344262,601857c3c3f5ce0c3e5fb913,65d2b6c8f2eece985d8e374c,65d2b9360b64bbe7b18e2682,0.0273,0.0273,1,26,188,9,1,onethree,,,,,,,,,,,,,,,,,,,,,,,,,,,,,,,,,,,,,,,,,,,,,,,,,,,,,,,,,,,,,,,,,,,,,,,,,,,,,,,,,,,,,,,,,,,,,,,,,,,,,,,,,,,,,,,,,,,,,,,,,,,,,,,,,,,,,,,,,
,,601857c3c3f5ce0c3e5fb913,2024-02-18_20h17.21.577,kallum_motion_pilot,2023.2.2,Win32,163.9344262,601857c3c3f5ce0c3e5fb913,65d2b6c8f2eece985d8e374c,65d2b9360b64bbe7b18e2682,0.0274,0.0274,1,27,189,134,1,eightsix,,,,,,,,,,,,,,,,,,,,,,,,,,,,,,,,,,,,,,,,,,,,,,,,,,,,,,,,,,,,,,,,,,,,,,,,,,,,,,,,,,,,,,,,,,,,,,,,,,,,,,,,,,,,,,,,,,,,,,,,,,,,,,,,,,,,,,,,,
,,601857c3c3f5ce0c3e5fb913,2024-02-18_20h17.21.577,kallum_motion_pilot,2023.2.2,Win32,163.9344262,601857c3c3f5ce0c3e5fb913,65d2b6c8f2eece985d8e374c,65d2b9360b64bbe7b18e2682,0.0274,0.0275,1,28,190,158,1,eightsix,,,,,,,,,,,,,,,,,,,,,,,,,,,,,,,,,,,,,,,,,,,,,,,,,,,,,,,,,,,,,,,,,,,,,,,,,,,,,,,,,,,,,,,,,,,,,,,,,,,,,,,,,,,,,,,,,,,,,,,,,,,,,,,,,,,,,,,,,
,,601857c3c3f5ce0c3e5fb913,2024-02-18_20h17.21.577,kallum_motion_pilot,2023.2.2,Win32,163.9344262,601857c3c3f5ce0c3e5fb913,65d2b6c8f2eece985d8e374c,65d2b9360b64bbe7b18e2682,0.0275,0.0275,1,29,191,3,1,twofour,,,,,,,,,,,,,,,,,,,,,,,,,,,,,,,,,,,,,,,,,,,,,,,,,,,,,,,,,,,,,,,,,,,,,,,,,,,,,,,,,,,,,,,,,,,,,,,,,,,,,,,,,,,,,,,,,,,,,,,,,,,,,,,,,,,,,,,,,
,,601857c3c3f5ce0c3e5fb913,2024-02-18_20h17.21.577,kallum_motion_pilot,2023.2.2,Win32,163.9344262,601857c3c3f5ce0c3e5fb913,65d2b6c8f2eece985d8e374c,65d2b9360b64bbe7b18e2682,0.0276,0.0276,1,30,192,153,1,fiveseven,,,,,,,,,,,,,,,,,,,,,,,,,,,,,,,,,,,,,,,,,,,,,,,,,,,,,,,,,,,,,,,,,,,,,,,,,,,,,,,,,,,,,,,,,,,,,,,,,,,,,,,,,,,,,,,,,,,,,,,,,,,,,,,,,,,,,,,,,
,,601857c3c3f5ce0c3e5fb913,2024-02-18_20h17.21.577,kallum_motion_pilot,2023.2.2,Win32,163.9344262,601857c3c3f5ce0c3e5fb913,65d2b6c8f2eece985d8e374c,65d2b9360b64bbe7b18e2682,0.0276,0.0277,1,31,193,140,1,sevenfive,,,,,,,,,,,,,,,,,,,,,,,,,,,,,,,,,,,,,,,,,,,,,,,,,,,,,,,,,,,,,,,,,,,,,,,,,,,,,,,,,,,,,,,,,,,,,,,,,,,,,,,,,,,,,,,,,,,,,,,,,,,,,,,,,,,,,,,,,
,,601857c3c3f5ce0c3e5fb913,2024-02-18_20h17.21.577,kallum_motion_pilot,2023.2.2,Win32,163.9344262,601857c3c3f5ce0c3e5fb913,65d2b6c8f2eece985d8e374c,65d2b9360b64bbe7b18e2682,0.0277,0.0278,1,32,194,42,1,twoone,,,,,,,,,,,,,,,,,,,,,,,,,,,,,,,,,,,,,,,,,,,,,,,,,,,,,,,,,,,,,,,,,,,,,,,,,,,,,,,,,,,,,,,,,,,,,,,,,,,,,,,,,,,,,,,,,,,,,,,,,,,,,,,,,,,,,,,,,
,,601857c3c3f5ce0c3e5fb913,2024-02-18_20h17.21.577,kallum_motion_pilot,2023.2.2,Win32,163.9344262,601857c3c3f5ce0c3e5fb913,65d2b6c8f2eece985d8e374c,65d2b9360b64bbe7b18e2682,0.0278,0.0278,1,33,195,96,1,fivesix,,,,,,,,,,,,,,,,,,,,,,,,,,,,,,,,,,,,,,,,,,,,,,,,,,,,,,,,,,,,,,,,,,,,,,,,,,,,,,,,,,,,,,,,,,,,,,,,,,,,,,,,,,,,,,,,,,,,,,,,,,,,,,,,,,,,,,,,,
,,601857c3c3f5ce0c3e5fb913,2024-02-18_20h17.21.577,kallum_motion_pilot,2023.2.2,Win32,163.9344262,601857c3c3f5ce0c3e5fb913,65d2b6c8f2eece985d8e374c,65d2b9360b64bbe7b18e2682,0.0279,0.028,1,34,196,160,1,fivesix,,,,,,,,,,,,,,,,,,,,,,,,,,,,,,,,,,,,,,,,,,,,,,,,,,,,,,,,,,,,,,,,,,,,,,,,,,,,,,,,,,,,,,,,,,,,,,,,,,,,,,,,,,,,,,,,,,,,,,,,,,,,,,,,,,,,,,,,,
,,601857c3c3f5ce0c3e5fb913,2024-02-18_20h17.21.577,kallum_motion_pilot,2023.2.2,Win32,163.9344262,601857c3c3f5ce0c3e5fb913,65d2b6c8f2eece985d8e374c,65d2b9360b64bbe7b18e2682,0.028,0.028,1,35,197,128,1,fivesix,,,,,,,,,,,,,,,,,,,,,,,,,,,,,,,,,,,,,,,,,,,,,,,,,,,,,,,,,,,,,,,,,,,,,,,,,,,,,,,,,,,,,,,,,,,,,,,,,,,,,,,,,,,,,,,,,,,,,,,,,,,,,,,,,,,,,,,,,
,,601857c3c3f5ce0c3e5fb913,2024-02-18_20h17.21.577,kallum_motion_pilot,2023.2.2,Win32,163.9344262,601857c3c3f5ce0c3e5fb913,65d2b6c8f2eece985d8e374c,65d2b9360b64bbe7b18e2682,0.028,0.0281,1,36,198,132,1,sevenfive,,,,,,,,,,,,,,,,,,,,,,,,,,,,,,,,,,,,,,,,,,,,,,,,,,,,,,,,,,,,,,,,,,,,,,,,,,,,,,,,,,,,,,,,,,,,,,,,,,,,,,,,,,,,,,,,,,,,,,,,,,,,,,,,,,,,,,,,,
,,601857c3c3f5ce0c3e5fb913,2024-02-18_20h17.21.577,kallum_motion_pilot,2023.2.2,Win32,163.9344262,601857c3c3f5ce0c3e5fb913,65d2b6c8f2eece985d8e374c,65d2b9360b64bbe7b18e2682,0.0282,0.0282,1,37,199,37,1,threefour,,,,,,,,,,,,,,,,,,,,,,,,,,,,,,,,,,,,,,,,,,,,,,,,,,,,,,,,,,,,,,,,,,,,,,,,,,,,,,,,,,,,,,,,,,,,,,,,,,,,,,,,,,,,,,,,,,,,,,,,,,,,,,,,,,,,,,,,,
,,601857c3c3f5ce0c3e5fb913,2024-02-18_20h17.21.577,kallum_motion_pilot,2023.2.2,Win32,163.9344262,601857c3c3f5ce0c3e5fb913,65d2b6c8f2eece985d8e374c,65d2b9360b64bbe7b18e2682,0.0282,0.0283,1,38,200,61,1,threefour,,,,,,,,,,,,,,,,,,,,,,,,,,,,,,,,,,,,,,,,,,,,,,,,,,,,,,,,,,,,,,,,,,,,,,,,,,,,,,,,,,,,,,,,,,,,,,,,,,,,,,,,,,,,,,,,,,,,,,,,,,,,,,,,,,,,,,,,,
,,601857c3c3f5ce0c3e5fb913,2024-02-18_20h17.21.577,kallum_motion_pilot,2023.2.2,Win32,163.9344262,601857c3c3f5ce0c3e5fb913,65d2b6c8f2eece985d8e374c,65d2b9360b64bbe7b18e2682,0.0283,0.0283,1,39,201,76,1,threeone,,,,,,,,,,,,,,,,,,,,,,,,,,,,,,,,,,,,,,,,,,,,,,,,,,,,,,,,,,,,,,,,,,,,,,,,,,,,,,,,,,,,,,,,,,,,,,,,,,,,,,,,,,,,,,,,,,,,,,,,,,,,,,,,,,,,,,,,,
,,601857c3c3f5ce0c3e5fb913,2024-02-18_20h17.21.577,kallum_motion_pilot,2023.2.2,Win32,163.9344262,601857c3c3f5ce0c3e5fb913,65d2b6c8f2eece985d8e374c,65d2b9360b64bbe7b18e2682,0.0284,0.0284,1,40,202,119,1,eightseven,,,,,,,,,,,,,,,,,,,,,,,,,,,,,,,,,,,,,,,,,,,,,,,,,,,,,,,,,,,,,,,,,,,,,,,,,,,,,,,,,,,,,,,,,,,,,,,,,,,,,,,,,,,,,,,,,,,,,,,,,,,,,,,,,,,,,,,,,
,,601857c3c3f5ce0c3e5fb913,2024-02-18_20h17.21.577,kallum_motion_pilot,2023.2.2,Win32,163.9344262,601857c3c3f5ce0c3e5fb913,65d2b6c8f2eece985d8e374c,65d2b9360b64bbe7b18e2682,0.0285,0.0285,1,41,203,136,1,fivesix,,,,,,,,,,,,,,,,,,,,,,,,,,,,,,,,,,,,,,,,,,,,,,,,,,,,,,,,,,,,,,,,,,,,,,,,,,,,,,,,,,,,,,,,,,,,,,,,,,,,,,,,,,,,,,,,,,,,,,,,,,,,,,,,,,,,,,,,,
,,601857c3c3f5ce0c3e5fb913,2024-02-18_20h17.21.577,kallum_motion_pilot,2023.2.2,Win32,163.9344262,601857c3c3f5ce0c3e5fb913,65d2b6c8f2eece985d8e374c,65d2b9360b64bbe7b18e2682,0.0285,0.0285,1,42,204,133,1,seveneight,,,,,,,,,,,,,,,,,,,,,,,,,,,,,,,,,,,,,,,,,,,,,,,,,,,,,,,,,,,,,,,,,,,,,,,,,,,,,,,,,,,,,,,,,,,,,,,,,,,,,,,,,,,,,,,,,,,,,,,,,,,,,,,,,,,,,,,,,
,,601857c3c3f5ce0c3e5fb913,2024-02-18_20h17.21.577,kallum_motion_pilot,2023.2.2,Win32,163.9344262,601857c3c3f5ce0c3e5fb913,65d2b6c8f2eece985d8e374c,65d2b9360b64bbe7b18e2682,0.0286,0.0286,1,43,205,77,1,threefour,,,,,,,,,,,,,,,,,,,,,,,,,,,,,,,,,,,,,,,,,,,,,,,,,,,,,,,,,,,,,,,,,,,,,,,,,,,,,,,,,,,,,,,,,,,,,,,,,,,,,,,,,,,,,,,,,,,,,,,,,,,,,,,,,,,,,,,,,
,,601857c3c3f5ce0c3e5fb913,2024-02-18_20h17.21.577,kallum_motion_pilot,2023.2.2,Win32,163.9344262,601857c3c3f5ce0c3e5fb913,65d2b6c8f2eece985d8e374c,65d2b9360b64bbe7b18e2682,0.0287,0.0287,1,44,206,70,1,fourtwo,,,,,,,,,,,,,,,,,,,,,,,,,,,,,,,,,,,,,,,,,,,,,,,,,,,,,,,,,,,,,,,,,,,,,,,,,,,,,,,,,,,,,,,,,,,,,,,,,,,,,,,,,,,,,,,,,,,,,,,,,,,,,,,,,,,,,,,,,
,,601857c3c3f5ce0c3e5fb913,2024-02-18_20h17.21.577,kallum_motion_pilot,2023.2.2,Win32,163.9344262,601857c3c3f5ce0c3e5fb913,65d2b6c8f2eece985d8e374c,65d2b9360b64bbe7b18e2682,0.0288,0.0288,1,45,207,59,1,twofour,,,,,,,,,,,,,,,,,,,,,,,,,,,,,,,,,,,,,,,,,,,,,,,,,,,,,,,,,,,,,,,,,,,,,,,,,,,,,,,,,,,,,,,,,,,,,,,,,,,,,,,,,,,,,,,,,,,,,,,,,,,,,,,,,,,,,,,,,
,,601857c3c3f5ce0c3e5fb913,2024-02-18_20h17.21.577,kallum_motion_pilot,2023.2.2,Win32,163.9344262,601857c3c3f5ce0c3e5fb913,65d2b6c8f2eece985d8e374c,65d2b9360b64bbe7b18e2682,0.0289,0.0289,1,46,208,112,1,fivesix,,,,,,,,,,,,,,,,,,,,,,,,,,,,,,,,,,,,,,,,,,,,,,,,,,,,,,,,,,,,,,,,,,,,,,,,,,,,,,,,,,,,,,,,,,,,,,,,,,,,,,,,,,,,,,,,,,,,,,,,,,,,,,,,,,,,,,,,,
,,601857c3c3f5ce0c3e5fb913,2024-02-18_20h17.21.577,kallum_motion_pilot,2023.2.2,Win32,163.9344262,601857c3c3f5ce0c3e5fb913,65d2b6c8f2eece985d8e374c,65d2b9360b64bbe7b18e2682,0.0289,0.029,1,47,209,36,1,threeone,,,,,,,,,,,,,,,,,,,,,,,,,,,,,,,,,,,,,,,,,,,,,,,,,,,,,,,,,,,,,,,,,,,,,,,,,,,,,,,,,,,,,,,,,,,,,,,,,,,,,,,,,,,,,,,,,,,,,,,,,,,,,,,,,,,,,,,,,
,,601857c3c3f5ce0c3e5fb913,2024-02-18_20h17.21.577,kallum_motion_pilot,2023.2.2,Win32,163.9344262,601857c3c3f5ce0c3e5fb913,65d2b6c8f2eece985d8e374c,65d2b9360b64bbe7b18e2682,0.029,0.0291,1,48,210,120,1,fivesix,,,,,,,,,,,,,,,,,,,,,,,,,,,,,,,,,,,,,,,,,,,,,,,,,,,,,,,,,,,,,,,,,,,,,,,,,,,,,,,,,,,,,,,,,,,,,,,,,,,,,,,,,,,,,,,,,,,,,,,,,,,,,,,,,,,,,,,,,
,,601857c3c3f5ce0c3e5fb913,2024-02-18_20h17.21.577,kallum_motion_pilot,2023.2.2,Win32,163.9344262,601857c3c3f5ce0c3e5fb913,65d2b6c8f2eece985d8e374c,65d2b9360b64bbe7b18e2682,0.0291,0.0291,1,49,211,45,1,threefour,,,,,,,,,,,,,,,,,,,,,,,,,,,,,,,,,,,,,,,,,,,,,,,,,,,,,,,,,,,,,,,,,,,,,,,,,,,,,,,,,,,,,,,,,,,,,,,,,,,,,,,,,,,,,,,,,,,,,,,,,,,,,,,,,,,,,,,,,
,,601857c3c3f5ce0c3e5fb913,2024-02-18_20h17.21.577,kallum_motion_pilot,2023.2.2,Win32,163.9344262,601857c3c3f5ce0c3e5fb913,65d2b6c8f2eece985d8e374c,65d2b9360b64bbe7b18e2682,0.0292,0.0292,1,50,212,82,1,sixfive,,,,,,,,,,,,,,,,,,,,,,,,,,,,,,,,,,,,,,,,,,,,,,,,,,,,,,,,,,,,,,,,,,,,,,,,,,,,,,,,,,,,,,,,,,,,,,,,,,,,,,,,,,,,,,,,,,,,,,,,,,,,,,,,,,,,,,,,,
,,601857c3c3f5ce0c3e5fb913,2024-02-18_20h17.21.577,kallum_motion_pilot,2023.2.2,Win32,163.9344262,601857c3c3f5ce0c3e5fb913,65d2b6c8f2eece985d8e374c,65d2b9360b64bbe7b18e2682,0.0292,0.0293,1,51,213,97,1,fiveseven,,,,,,,,,,,,,,,,,,,,,,,,,,,,,,,,,,,,,,,,,,,,,,,,,,,,,,,,,,,,,,,,,,,,,,,,,,,,,,,,,,,,,,,,,,,,,,,,,,,,,,,,,,,,,,,,,,,,,,,,,,,,,,,,,,,,,,,,,
,,601857c3c3f5ce0c3e5fb913,2024-02-18_20h17.21.577,kallum_motion_pilot,2023.2.2,Win32,163.9344262,601857c3c3f5ce0c3e5fb913,65d2b6c8f2eece985d8e374c,65d2b9360b64bbe7b18e2682,0.0293,0.0293,1,52,214,84,1,sevenfive,,,,,,,,,,,,,,,,,,,,,,,,,,,,,,,,,,,,,,,,,,,,,,,,,,,,,,,,,,,,,,,,,,,,,,,,,,,,,,,,,,,,,,,,,,,,,,,,,,,,,,,,,,,,,,,,,,,,,,,,,,,,,,,,,,,,,,,,,
,,601857c3c3f5ce0c3e5fb913,2024-02-18_20h17.21.577,kallum_motion_pilot,2023.2.2,Win32,163.9344262,601857c3c3f5ce0c3e5fb913,65d2b6c8f2eece985d8e374c,65d2b9360b64bbe7b18e2682,0.0294,0.0294,1,53,215,71,1,fourthree,,,,,,,,,,,,,,,,,,,,,,,,,,,,,,,,,,,,,,,,,,,,,,,,,,,,,,,,,,,,,,,,,,,,,,,,,,,,,,,,,,,,,,,,,,,,,,,,,,,,,,,,,,,,,,,,,,,,,,,,,,,,,,,,,,,,,,,,,
,,601857c3c3f5ce0c3e5fb913,2024-02-18_20h17.21.577,kallum_motion_pilot,2023.2.2,Win32,163.9344262,601857c3c3f5ce0c3e5fb913,65d2b6c8f2eece985d8e374c,65d2b9360b64bbe7b18e2682,0.0294,0.0295,1,54,216,48,1,onetwo,,,,,,,,,,,,,,,,,,,,,,,,,,,,,,,,,,,,,,,,,,,,,,,,,,,,,,,,,,,,,,,,,,,,,,,,,,,,,,,,,,,,,,,,,,,,,,,,,,,,,,,,,,,,,,,,,,,,,,,,,,,,,,,,,,,,,,,,,
,,601857c3c3f5ce0c3e5fb913,2024-02-18_20h17.21.577,kallum_motion_pilot,2023.2.2,Win32,163.9344262,601857c3c3f5ce0c3e5fb913,65d2b6c8f2eece985d8e374c,65d2b9360b64bbe7b18e2682,0.0296,0.0296,1,55,217,139,1,sixeight,,,,,,,,,,,,,,,,,,,,,,,,,,,,,,,,,,,,,,,,,,,,,,,,,,,,,,,,,,,,,,,,,,,,,,,,,,,,,,,,,,,,,,,,,,,,,,,,,,,,,,,,,,,,,,,,,,,,,,,,,,,,,,,,,,,,,,,,,
,,601857c3c3f5ce0c3e5fb913,2024-02-18_20h17.21.577,kallum_motion_pilot,2023.2.2,Win32,163.9344262,601857c3c3f5ce0c3e5fb913,65d2b6c8f2eece985d8e374c,65d2b9360b64bbe7b18e2682,0.0296,0.0297,1,56,218,80,1,fivesix,,,,,,,,,,,,,,,,,,,,,,,,,,,,,,,,,,,,,,,,,,,,,,,,,,,,,,,,,,,,,,,,,,,,,,,,,,,,,,,,,,,,,,,,,,,,,,,,,,,,,,,,,,,,,,,,,,,,,,,,,,,,,,,,,,,,,,,,,
,,601857c3c3f5ce0c3e5fb913,2024-02-18_20h17.21.577,kallum_motion_pilot,2023.2.2,Win32,163.9344262,601857c3c3f5ce0c3e5fb913,65d2b6c8f2eece985d8e374c,65d2b9360b64bbe7b18e2682,0.0297,0.0297,1,57,219,72,1,onetwo,,,,,,,,,,,,,,,,,,,,,,,,,,,,,,,,,,,,,,,,,,,,,,,,,,,,,,,,,,,,,,,,,,,,,,,,,,,,,,,,,,,,,,,,,,,,,,,,,,,,,,,,,,,,,,,,,,,,,,,,,,,,,,,,,,,,,,,,,
,,601857c3c3f5ce0c3e5fb913,2024-02-18_20h17.21.577,kallum_motion_pilot,2023.2.2,Win32,163.9344262,601857c3c3f5ce0c3e5fb913,65d2b6c8f2eece985d8e374c,65d2b9360b64bbe7b18e2682,0.0297,0.0298,1,58,220,143,1,eightseven,,,,,,,,,,,,,,,,,,,,,,,,,,,,,,,,,,,,,,,,,,,,,,,,,,,,,,,,,,,,,,,,,,,,,,,,,,,,,,,,,,,,,,,,,,,,,,,,,,,,,,,,,,,,,,,,,,,,,,,,,,,,,,,,,,,,,,,,,
,,601857c3c3f5ce0c3e5fb913,2024-02-18_20h17.21.577,kallum_motion_pilot,2023.2.2,Win32,163.9344262,601857c3c3f5ce0c3e5fb913,65d2b6c8f2eece985d8e374c,65d2b9360b64bbe7b18e2682,0.0298,0.0299,1,59,221,92,1,sevenfive,,,,,,,,,,,,,,,,,,,,,,,,,,,,,,,,,,,,,,,,,,,,,,,,,,,,,,,,,,,,,,,,,,,,,,,,,,,,,,,,,,,,,,,,,,,,,,,,,,,,,,,,,,,,,,,,,,,,,,,,,,,,,,,,,,,,,,,,,
,,601857c3c3f5ce0c3e5fb913,2024-02-18_20h17.21.577,kallum_motion_pilot,2023.2.2,Win32,163.9344262,601857c3c3f5ce0c3e5fb913,65d2b6c8f2eece985d8e374c,65d2b9360b64bbe7b18e2682,0.0299,0.03,1,60,222,145,1,fiveseven,,,,,,,,,,,,,,,,,,,,,,,,,,,,,,,,,,,,,,,,,,,,,,,,,,,,,,,,,,,,,,,,,,,,,,,,,,,,,,,,,,,,,,,,,,,,,,,,,,,,,,,,,,,,,,,,,,,,,,,,,,,,,,,,,,,,,,,,,
,,601857c3c3f5ce0c3e5fb913,2024-02-18_20h17.21.577,kallum_motion_pilot,2023.2.2,Win32,163.9344262,601857c3c3f5ce0c3e5fb913,65d2b6c8f2eece985d8e374c,65d2b9360b64bbe7b18e2682,0.03,0.03,1,61,223,68,1,threeone,,,,,,,,,,,,,,,,,,,,,,,,,,,,,,,,,,,,,,,,,,,,,,,,,,,,,,,,,,,,,,,,,,,,,,,,,,,,,,,,,,,,,,,,,,,,,,,,,,,,,,,,,,,,,,,,,,,,,,,,,,,,,,,,,,,,,,,,,
,,601857c3c3f5ce0c3e5fb913,2024-02-18_20h17.21.577,kallum_motion_pilot,2023.2.2,Win32,163.9344262,601857c3c3f5ce0c3e5fb913,65d2b6c8f2eece985d8e374c,65d2b9360b64bbe7b18e2682,0.0301,0.0301,1,62,224,8,1,onetwo,,,,,,,,,,,,,,,,,,,,,,,,,,,,,,,,,,,,,,,,,,,,,,,,,,,,,,,,,,,,,,,,,,,,,,,,,,,,,,,,,,,,,,,,,,,,,,,,,,,,,,,,,,,,,,,,,,,,,,,,,,,,,,,,,,,,,,,,,
,,601857c3c3f5ce0c3e5fb913,2024-02-18_20h17.21.577,kallum_motion_pilot,2023.2.2,Win32,163.9344262,601857c3c3f5ce0c3e5fb913,65d2b6c8f2eece985d8e374c,65d2b9360b64bbe7b18e2682,0.0301,0.0302,1,63,225,91,1,sixeight,,,,,,,,,,,,,,,,,,,,,,,,,,,,,,,,,,,,,,,,,,,,,,,,,,,,,,,,,,,,,,,,,,,,,,,,,,,,,,,,,,,,,,,,,,,,,,,,,,,,,,,,,,,,,,,,,,,,,,,,,,,,,,,,,,,,,,,,,
,,601857c3c3f5ce0c3e5fb913,2024-02-18_20h17.21.577,kallum_motion_pilot,2023.2.2,Win32,163.9344262,601857c3c3f5ce0c3e5fb913,65d2b6c8f2eece985d8e374c,65d2b9360b64bbe7b18e2682,0.0302,0.0303,1,64,226,87,1,eightseven,,,,,,,,,,,,,,,,,,,,,,,,,,,,,,,,,,,,,,,,,,,,,,,,,,,,,,,,,,,,,,,,,,,,,,,,,,,,,,,,,,,,,,,,,,,,,,,,,,,,,,,,,,,,,,,,,,,,,,,,,,,,,,,,,,,,,,,,,
,,601857c3c3f5ce0c3e5fb913,2024-02-18_20h17.21.577,kallum_motion_pilot,2023.2.2,Win32,163.9344262,601857c3c3f5ce0c3e5fb913,65d2b6c8f2eece985d8e374c,65d2b9360b64bbe7b18e2682,0.0303,0.0304,1,65,227,125,1,seveneight,,,,,,,,,,,,,,,,,,,,,,,,,,,,,,,,,,,,,,,,,,,,,,,,,,,,,,,,,,,,,,,,,,,,,,,,,,,,,,,,,,,,,,,,,,,,,,,,,,,,,,,,,,,,,,,,,,,,,,,,,,,,,,,,,,,,,,,,,
,,601857c3c3f5ce0c3e5fb913,2024-02-18_20h17.21.577,kallum_motion_pilot,2023.2.2,Win32,163.9344262,601857c3c3f5ce0c3e5fb913,65d2b6c8f2eece985d8e374c,65d2b9360b64bbe7b18e2682,0.0304,0.0304,1,66,228,121,1,fiveseven,,,,,,,,,,,,,,,,,,,,,,,,,,,,,,,,,,,,,,,,,,,,,,,,,,,,,,,,,,,,,,,,,,,,,,,,,,,,,,,,,,,,,,,,,,,,,,,,,,,,,,,,,,,,,,,,,,,,,,,,,,,,,,,,,,,,,,,,,
,,601857c3c3f5ce0c3e5fb913,2024-02-18_20h17.21.577,kallum_motion_pilot,2023.2.2,Win32,163.9344262,601857c3c3f5ce0c3e5fb913,65d2b6c8f2eece985d8e374c,65d2b9360b64bbe7b18e2682,0.0305,0.0306,1,67,229,85,1,seveneight,,,,,,,,,,,,,,,,,,,,,,,,,,,,,,,,,,,,,,,,,,,,,,,,,,,,,,,,,,,,,,,,,,,,,,,,,,,,,,,,,,,,,,,,,,,,,,,,,,,,,,,,,,,,,,,,,,,,,,,,,,,,,,,,,,,,,,,,,
,,601857c3c3f5ce0c3e5fb913,2024-02-18_20h17.21.577,kallum_motion_pilot,2023.2.2,Win32,163.9344262,601857c3c3f5ce0c3e5fb913,65d2b6c8f2eece985d8e374c,65d2b9360b64bbe7b18e2682,0.0306,0.0306,1,68,230,154,1,sixfive,,,,,,,,,,,,,,,,,,,,,,,,,,,,,,,,,,,,,,,,,,,,,,,,,,,,,,,,,,,,,,,,,,,,,,,,,,,,,,,,,,,,,,,,,,,,,,,,,,,,,,,,,,,,,,,,,,,,,,,,,,,,,,,,,,,,,,,,,
,,601857c3c3f5ce0c3e5fb913,2024-02-18_20h17.21.577,kallum_motion_pilot,2023.2.2,Win32,163.9344262,601857c3c3f5ce0c3e5fb913,65d2b6c8f2eece985d8e374c,65d2b9360b64bbe7b18e2682,0.0306,0.0307,1,69,231,26,1,twoone,,,,,,,,,,,,,,,,,,,,,,,,,,,,,,,,,,,,,,,,,,,,,,,,,,,,,,,,,,,,,,,,,,,,,,,,,,,,,,,,,,,,,,,,,,,,,,,,,,,,,,,,,,,,,,,,,,,,,,,,,,,,,,,,,,,,,,,,,
,,601857c3c3f5ce0c3e5fb913,2024-02-18_20h17.21.577,kallum_motion_pilot,2023.2.2,Win32,163.9344262,601857c3c3f5ce0c3e5fb913,65d2b6c8f2eece985d8e374c,65d2b9360b64bbe7b18e2682,0.0307,0.0307,1,70,232,89,1,fiveseven,,,,,,,,,,,,,,,,,,,,,,,,,,,,,,,,,,,,,,,,,,,,,,,,,,,,,,,,,,,,,,,,,,,,,,,,,,,,,,,,,,,,,,,,,,,,,,,,,,,,,,,,,,,,,,,,,,,,,,,,,,,,,,,,,,,,,,,,,
,,601857c3c3f5ce0c3e5fb913,2024-02-18_20h17.21.577,kallum_motion_pilot,2023.2.2,Win32,163.9344262,601857c3c3f5ce0c3e5fb913,65d2b6c8f2eece985d8e374c,65d2b9360b64bbe7b18e2682,0.0309,0.0309,1,71,233,83,1,sixeight,,,,,,,,,,,,,,,,,,,,,,,,,,,,,,,,,,,,,,,,,,,,,,,,,,,,,,,,,,,,,,,,,,,,,,,,,,,,,,,,,,,,,,,,,,,,,,,,,,,,,,,,,,,,,,,,,,,,,,,,,,,,,,,,,,,,,,,,,
,,601857c3c3f5ce0c3e5fb913,2024-02-18_20h17.21.577,kallum_motion_pilot,2023.2.2,Win32,163.9344262,601857c3c3f5ce0c3e5fb913,65d2b6c8f2eece985d8e374c,65d2b9360b64bbe7b18e2682,0.0309,0.0309,1,72,234,115,1,sixeight,,,,,,,,,,,,,,,,,,,,,,,,,,,,,,,,,,,,,,,,,,,,,,,,,,,,,,,,,,,,,,,,,,,,,,,,,,,,,,,,,,,,,,,,,,,,,,,,,,,,,,,,,,,,,,,,,,,,,,,,,,,,,,,,,,,,,,,,,
,,601857c3c3f5ce0c3e5fb913,2024-02-18_20h17.21.577,kallum_motion_pilot,2023.2.2,Win32,163.9344262,601857c3c3f5ce0c3e5fb913,65d2b6c8f2eece985d8e374c,65d2b9360b64bbe7b18e2682,0.031,0.031,1,73,235,106,1,sixfive,,,,,,,,,,,,,,,,,,,,,,,,,,,,,,,,,,,,,,,,,,,,,,,,,,,,,,,,,,,,,,,,,,,,,,,,,,,,,,,,,,,,,,,,,,,,,,,,,,,,,,,,,,,,,,,,,,,,,,,,,,,,,,,,,,,,,,,,,
,,601857c3c3f5ce0c3e5fb913,2024-02-18_20h17.21.577,kallum_motion_pilot,2023.2.2,Win32,163.9344262,601857c3c3f5ce0c3e5fb913,65d2b6c8f2eece985d8e374c,65d2b9360b64bbe7b18e2682,0.0311,0.0311,1,74,236,109,1,seveneight,,,,,,,,,,,,,,,,,,,,,,,,,,,,,,,,,,,,,,,,,,,,,,,,,,,,,,,,,,,,,,,,,,,,,,,,,,,,,,,,,,,,,,,,,,,,,,,,,,,,,,,,,,,,,,,,,,,,,,,,,,,,,,,,,,,,,,,,,
,,601857c3c3f5ce0c3e5fb913,2024-02-18_20h17.21.577,kallum_motion_pilot,2023.2.2,Win32,163.9344262,601857c3c3f5ce0c3e5fb913,65d2b6c8f2eece985d8e374c,65d2b9360b64bbe7b18e2682,0.0312,0.0312,1,75,237,129,1,fiveseven,,,,,,,,,,,,,,,,,,,,,,,,,,,,,,,,,,,,,,,,,,,,,,,,,,,,,,,,,,,,,,,,,,,,,,,,,,,,,,,,,,,,,,,,,,,,,,,,,,,,,,,,,,,,,,,,,,,,,,,,,,,,,,,,,,,,,,,,,
,,601857c3c3f5ce0c3e5fb913,2024-02-18_20h17.21.577,kallum_motion_pilot,2023.2.2,Win32,163.9344262,601857c3c3f5ce0c3e5fb913,65d2b6c8f2eece985d8e374c,65d2b9360b64bbe7b18e2682,0.0312,0.0313,1,76,238,54,1,fourtwo,,,,,,,,,,,,,,,,,,,,,,,,,,,,,,,,,,,,,,,,,,,,,,,,,,,,,,,,,,,,,,,,,,,,,,,,,,,,,,,,,,,,,,,,,,,,,,,,,,,,,,,,,,,,,,,,,,,,,,,,,,,,,,,,,,,,,,,,,
,,601857c3c3f5ce0c3e5fb913,2024-02-18_20h17.21.577,kallum_motion_pilot,2023.2.2,Win32,163.9344262,601857c3c3f5ce0c3e5fb913,65d2b6c8f2eece985d8e374c,65d2b9360b64bbe7b18e2682,0.0314,0.0314,1,77,239,44,1,threeone,,,,,,,,,,,,,,,,,,,,,,,,,,,,,,,,,,,,,,,,,,,,,,,,,,,,,,,,,,,,,,,,,,,,,,,,,,,,,,,,,,,,,,,,,,,,,,,,,,,,,,,,,,,,,,,,,,,,,,,,,,,,,,,,,,,,,,,,,
,,601857c3c3f5ce0c3e5fb913,2024-02-18_20h17.21.577,kallum_motion_pilot,2023.2.2,Win32,163.9344262,601857c3c3f5ce0c3e5fb913,65d2b6c8f2eece985d8e374c,65d2b9360b64bbe7b18e2682,0.0314,0.0315,1,78,240,23,1,fourthree,,,,,,,,,,,,,,,,,,,,,,,,,,,,,,,,,,,,,,,,,,,,,,,,,,,,,,,,,,,,,,,,,,,,,,,,,,,,,,,,,,,,,,,,,,,,,,,,,,,,,,,,,,,,,,,,,,,,,,,,,,,,,,,,,,,,,,,,,
,,601857c3c3f5ce0c3e5fb913,2024-02-18_20h17.21.577,kallum_motion_pilot,2023.2.2,Win32,163.9344262,601857c3c3f5ce0c3e5fb913,65d2b6c8f2eece985d8e374c,65d2b9360b64bbe7b18e2682,0.0315,0.0316,1,79,241,19,1,twofour,,,,,,,,,,,,,,,,,,,,,,,,,,,,,,,,,,,,,,,,,,,,,,,,,,,,,,,,,,,,,,,,,,,,,,,,,,,,,,,,,,,,,,,,,,,,,,,,,,,,,,,,,,,,,,,,,,,,,,,,,,,,,,,,,,,,,,,,,
,,601857c3c3f5ce0c3e5fb913,2024-02-18_20h17.21.577,kallum_motion_pilot,2023.2.2,Win32,163.9344262,601857c3c3f5ce0c3e5fb913,65d2b6c8f2eece985d8e374c,65d2b9360b64bbe7b18e2682,0.0316,0.0317,1,80,242,148,1,sevenfive,,,,,,,,,,,,,,,,,,,,,,,,,,,,,,,,,,,,,,,,,,,,,,,,,,,,,,,,,,,,,,,,,,,,,,,,,,,,,,,,,,,,,,,,,,,,,,,,,,,,,,,,,,,,,,,,,,,,,,,,,,,,,,,,,,,,,,,,,
,,601857c3c3f5ce0c3e5fb913,2024-02-18_20h17.21.577,kallum_motion_pilot,2023.2.2,Win32,163.9344262,601857c3c3f5ce0c3e5fb913,65d2b6c8f2eece985d8e374c,65d2b9360b64bbe7b18e2682,0.0318,0.0318,1,81,243,64,1,onetwo,,,,,,,,,,,,,,,,,,,,,,,,,,,,,,,,,,,,,,,,,,,,,,,,,,,,,,,,,,,,,,,,,,,,,,,,,,,,,,,,,,,,,,,,,,,,,,,,,,,,,,,,,,,,,,,,,,,,,,,,,,,,,,,,,,,,,,,,,
,,601857c3c3f5ce0c3e5fb913,2024-02-18_20h17.21.577,kallum_motion_pilot,2023.2.2,Win32,163.9344262,601857c3c3f5ce0c3e5fb913,65d2b6c8f2eece985d8e374c,65d2b9360b64bbe7b18e2682,0.0318,0.0318,1,82,244,62,1,fourtwo,,,,,,,,,,,,,,,,,,,,,,,,,,,,,,,,,,,,,,,,,,,,,,,,,,,,,,,,,,,,,,,,,,,,,,,,,,,,,,,,,,,,,,,,,,,,,,,,,,,,,,,,,,,,,,,,,,,,,,,,,,,,,,,,,,,,,,,,,
,,601857c3c3f5ce0c3e5fb913,2024-02-18_20h17.21.577,kallum_motion_pilot,2023.2.2,Win32,163.9344262,601857c3c3f5ce0c3e5fb913,65d2b6c8f2eece985d8e374c,65d2b9360b64bbe7b18e2682,0.0319,0.0319,1,83,245,81,1,fiveseven,,,,,,,,,,,,,,,,,,,,,,,,,,,,,,,,,,,,,,,,,,,,,,,,,,,,,,,,,,,,,,,,,,,,,,,,,,,,,,,,,,,,,,,,,,,,,,,,,,,,,,,,,,,,,,,,,,,,,,,,,,,,,,,,,,,,,,,,,
,,601857c3c3f5ce0c3e5fb913,2024-02-18_20h17.21.577,kallum_motion_pilot,2023.2.2,Win32,163.9344262,601857c3c3f5ce0c3e5fb913,65d2b6c8f2eece985d8e374c,65d2b9360b64bbe7b18e2682,0.032,0.032,1,84,246,1,1,onethree,,,,,,,,,,,,,,,,,,,,,,,,,,,,,,,,,,,,,,,,,,,,,,,,,,,,,,,,,,,,,,,,,,,,,,,,,,,,,,,,,,,,,,,,,,,,,,,,,,,,,,,,,,,,,,,,,,,,,,,,,,,,,,,,,,,,,,,,,
,,601857c3c3f5ce0c3e5fb913,2024-02-18_20h17.21.577,kallum_motion_pilot,2023.2.2,Win32,163.9344262,601857c3c3f5ce0c3e5fb913,65d2b6c8f2eece985d8e374c,65d2b9360b64bbe7b18e2682,0.032,0.0321,1,85,247,14,1,fourtwo,,,,,,,,,,,,,,,,,,,,,,,,,,,,,,,,,,,,,,,,,,,,,,,,,,,,,,,,,,,,,,,,,,,,,,,,,,,,,,,,,,,,,,,,,,,,,,,,,,,,,,,,,,,,,,,,,,,,,,,,,,,,,,,,,,,,,,,,,
,,601857c3c3f5ce0c3e5fb913,2024-02-18_20h17.21.577,kallum_motion_pilot,2023.2.2,Win32,163.9344262,601857c3c3f5ce0c3e5fb913,65d2b6c8f2eece985d8e374c,65d2b9360b64bbe7b18e2682,0.0321,0.0321,1,86,248,152,1,fivesix,,,,,,,,,,,,,,,,,,,,,,,,,,,,,,,,,,,,,,,,,,,,,,,,,,,,,,,,,,,,,,,,,,,,,,,,,,,,,,,,,,,,,,,,,,,,,,,,,,,,,,,,,,,,,,,,,,,,,,,,,,,,,,,,,,,,,,,,,
,,601857c3c3f5ce0c3e5fb913,2024-02-18_20h17.21.577,kallum_motion_pilot,2023.2.2,Win32,163.9344262,601857c3c3f5ce0c3e5fb913,65d2b6c8f2eece985d8e374c,65d2b9360b64bbe7b18e2682,0.0322,0.0323,1,87,249,88,1,fivesix,,,,,,,,,,,,,,,,,,,,,,,,,,,,,,,,,,,,,,,,,,,,,,,,,,,,,,,,,,,,,,,,,,,,,,,,,,,,,,,,,,,,,,,,,,,,,,,,,,,,,,,,,,,,,,,,,,,,,,,,,,,,,,,,,,,,,,,,,
,,601857c3c3f5ce0c3e5fb913,2024-02-18_20h17.21.577,kallum_motion_pilot,2023.2.2,Win32,163.9344262,601857c3c3f5ce0c3e5fb913,65d2b6c8f2eece985d8e374c,65d2b9360b64bbe7b18e2682,0.0323,0.0323,1,88,250,38,1,fourtwo,,,,,,,,,,,,,,,,,,,,,,,,,,,,,,,,,,,,,,,,,,,,,,,,,,,,,,,,,,,,,,,,,,,,,,,,,,,,,,,,,,,,,,,,,,,,,,,,,,,,,,,,,,,,,,,,,,,,,,,,,,,,,,,,,,,,,,,,,
,,601857c3c3f5ce0c3e5fb913,2024-02-18_20h17.21.577,kallum_motion_pilot,2023.2.2,Win32,163.9344262,601857c3c3f5ce0c3e5fb913,65d2b6c8f2eece985d8e374c,65d2b9360b64bbe7b18e2682,0.0324,0.0324,1,89,251,67,1,twofour,,,,,,,,,,,,,,,,,,,,,,,,,,,,,,,,,,,,,,,,,,,,,,,,,,,,,,,,,,,,,,,,,,,,,,,,,,,,,,,,,,,,,,,,,,,,,,,,,,,,,,,,,,,,,,,,,,,,,,,,,,,,,,,,,,,,,,,,,
,,601857c3c3f5ce0c3e5fb913,2024-02-18_20h17.21.577,kallum_motion_pilot,2023.2.2,Win32,163.9344262,601857c3c3f5ce0c3e5fb913,65d2b6c8f2eece985d8e374c,65d2b9360b64bbe7b18e2682,0.0324,0.0325,1,90,252,98,1,sixfive,,,,,,,,,,,,,,,,,,,,,,,,,,,,,,,,,,,,,,,,,,,,,,,,,,,,,,,,,,,,,,,,,,,,,,,,,,,,,,,,,,,,,,,,,,,,,,,,,,,,,,,,,,,,,,,,,,,,,,,,,,,,,,,,,,,,,,,,,
,,601857c3c3f5ce0c3e5fb913,2024-02-18_20h17.21.577,kallum_motion_pilot,2023.2.2,Win32,163.9344262,601857c3c3f5ce0c3e5fb913,65d2b6c8f2eece985d8e374c,65d2b9360b64bbe7b18e2682,0.0325,0.0326,1,91,253,93,1,seveneight,,,,,,,,,,,,,,,,,,,,,,,,,,,,,,,,,,,,,,,,,,,,,,,,,,,,,,,,,,,,,,,,,,,,,,,,,,,,,,,,,,,,,,,,,,,,,,,,,,,,,,,,,,,,,,,,,,,,,,,,,,,,,,,,,,,,,,,,,
,,601857c3c3f5ce0c3e5fb913,2024-02-18_20h17.21.577,kallum_motion_pilot,2023.2.2,Win32,163.9344262,601857c3c3f5ce0c3e5fb913,65d2b6c8f2eece985d8e374c,65d2b9360b64bbe7b18e2682,0.0327,0.0327,1,92,254,5,1,threefour,,,,,,,,,,,,,,,,,,,,,,,,,,,,,,,,,,,,,,,,,,,,,,,,,,,,,,,,,,,,,,,,,,,,,,,,,,,,,,,,,,,,,,,,,,,,,,,,,,,,,,,,,,,,,,,,,,,,,,,,,,,,,,,,,,,,,,,,,
,,601857c3c3f5ce0c3e5fb913,2024-02-18_20h17.21.577,kallum_motion_pilot,2023.2.2,Win32,163.9344262,601857c3c3f5ce0c3e5fb913,65d2b6c8f2eece985d8e374c,65d2b9360b64bbe7b18e2682,0.0328,0.0328,1,93,255,69,1,threefour,,,,,,,,,,,,,,,,,,,,,,,,,,,,,,,,,,,,,,,,,,,,,,,,,,,,,,,,,,,,,,,,,,,,,,,,,,,,,,,,,,,,,,,,,,,,,,,,,,,,,,,,,,,,,,,,,,,,,,,,,,,,,,,,,,,,,,,,,
,,601857c3c3f5ce0c3e5fb913,2024-02-18_20h17.21.577,kallum_motion_pilot,2023.2.2,Win32,163.9344262,601857c3c3f5ce0c3e5fb913,65d2b6c8f2eece985d8e374c,65d2b9360b64bbe7b18e2682,0.0329,0.0329,1,94,256,74,1,twoone,,,,,,,,,,,,,,,,,,,,,,,,,,,,,,,,,,,,,,,,,,,,,,,,,,,,,,,,,,,,,,,,,,,,,,,,,,,,,,,,,,,,,,,,,,,,,,,,,,,,,,,,,,,,,,,,,,,,,,,,,,,,,,,,,,,,,,,,,
,,601857c3c3f5ce0c3e5fb913,2024-02-18_20h17.21.577,kallum_motion_pilot,2023.2.2,Win32,163.9344262,601857c3c3f5ce0c3e5fb913,65d2b6c8f2eece985d8e374c,65d2b9360b64bbe7b18e2682,0.0329,0.033,1,95,257,28,1,threeone,,,,,,,,,,,,,,,,,,,,,,,,,,,,,,,,,,,,,,,,,,,,,,,,,,,,,,,,,,,,,,,,,,,,,,,,,,,,,,,,,,,,,,,,,,,,,,,,,,,,,,,,,,,,,,,,,,,,,,,,,,,,,,,,,,,,,,,,,
,,601857c3c3f5ce0c3e5fb913,2024-02-18_20h17.21.577,kallum_motion_pilot,2023.2.2,Win32,163.9344262,601857c3c3f5ce0c3e5fb913,65d2b6c8f2eece985d8e374c,65d2b9360b64bbe7b18e2682,0.033,0.0331,1,96,258,25,1,onethree,,,,,,,,,,,,,,,,,,,,,,,,,,,,,,,,,,,,,,,,,,,,,,,,,,,,,,,,,,,,,,,,,,,,,,,,,,,,,,,,,,,,,,,,,,,,,,,,,,,,,,,,,,,,,,,,,,,,,,,,,,,,,,,,,,,,,,,,,
,,601857c3c3f5ce0c3e5fb913,2024-02-18_20h17.21.577,kallum_motion_pilot,2023.2.2,Win32,163.9344262,601857c3c3f5ce0c3e5fb913,65d2b6c8f2eece985d8e374c,65d2b9360b64bbe7b18e2682,0.0331,0.0331,1,97,259,39,1,fourthree,,,,,,,,,,,,,,,,,,,,,,,,,,,,,,,,,,,,,,,,,,,,,,,,,,,,,,,,,,,,,,,,,,,,,,,,,,,,,,,,,,,,,,,,,,,,,,,,,,,,,,,,,,,,,,,,,,,,,,,,,,,,,,,,,,,,,,,,,
,,601857c3c3f5ce0c3e5fb913,2024-02-18_20h17.21.577,kallum_motion_pilot,2023.2.2,Win32,163.9344262,601857c3c3f5ce0c3e5fb913,65d2b6c8f2eece985d8e374c,65d2b9360b64bbe7b18e2682,0.0332,0.0333,1,98,260,55,1,fourthree,,,,,,,,,,,,,,,,,,,,,,,,,,,,,,,,,,,,,,,,,,,,,,,,,,,,,,,,,,,,,,,,,,,,,,,,,,,,,,,,,,,,,,,,,,,,,,,,,,,,,,,,,,,,,,,,,,,,,,,,,,,,,,,,,,,,,,,,,
,,601857c3c3f5ce0c3e5fb913,2024-02-18_20h17.21.577,kallum_motion_pilot,2023.2.2,Win32,163.9344262,601857c3c3f5ce0c3e5fb913,65d2b6c8f2eece985d8e374c,65d2b9360b64bbe7b18e2682,0.0333,0.0333,1,99,261,107,1,sixeight,,,,,,,,,,,,,,,,,,,,,,,,,,,,,,,,,,,,,,,,,,,,,,,,,,,,,,,,,,,,,,,,,,,,,,,,,,,,,,,,,,,,,,,,,,,,,,,,,,,,,,,,,,,,,,,,,,,,,,,,,,,,,,,,,,,,,,,,,
,,601857c3c3f5ce0c3e5fb913,2024-02-18_20h17.21.577,kallum_motion_pilot,2023.2.2,Win32,163.9344262,601857c3c3f5ce0c3e5fb913,65d2b6c8f2eece985d8e374c,65d2b9360b64bbe7b18e2682,0.0333,0.0334,1,100,262,24,1,onetwo,,,,,,,,,,,,,,,,,,,,,,,,,,,,,,,,,,,,,,,,,,,,,,,,,,,,,,,,,,,,,,,,,,,,,,,,,,,,,,,,,,,,,,,,,,,,,,,,,,,,,,,,,,,,,,,,,,,,,,,,,,,,,,,,,,,,,,,,,
,,601857c3c3f5ce0c3e5fb913,2024-02-18_20h17.21.577,kallum_motion_pilot,2023.2.2,Win32,163.9344262,601857c3c3f5ce0c3e5fb913,65d2b6c8f2eece985d8e374c,65d2b9360b64bbe7b18e2682,0.0334,0.0335,1,101,263,108,1,sevenfive,,,,,,,,,,,,,,,,,,,,,,,,,,,,,,,,,,,,,,,,,,,,,,,,,,,,,,,,,,,,,,,,,,,,,,,,,,,,,,,,,,,,,,,,,,,,,,,,,,,,,,,,,,,,,,,,,,,,,,,,,,,,,,,,,,,,,,,,,
,,601857c3c3f5ce0c3e5fb913,2024-02-18_20h17.21.577,kallum_motion_pilot,2023.2.2,Win32,163.9344262,601857c3c3f5ce0c3e5fb913,65d2b6c8f2eece985d8e374c,65d2b9360b64bbe7b18e2682,0.0335,0.0336,1,102,264,103,1,eightseven,,,,,,,,,,,,,,,,,,,,,,,,,,,,,,,,,,,,,,,,,,,,,,,,,,,,,,,,,,,,,,,,,,,,,,,,,,,,,,,,,,,,,,,,,,,,,,,,,,,,,,,,,,,,,,,,,,,,,,,,,,,,,,,,,,,,,,,,,
,,601857c3c3f5ce0c3e5fb913,2024-02-18_20h17.21.577,kallum_motion_pilot,2023.2.2,Win32,163.9344262,601857c3c3f5ce0c3e5fb913,65d2b6c8f2eece985d8e374c,65d2b9360b64bbe7b18e2682,0.0337,0.0337,1,103,265,90,1,sixfive,,,,,,,,,,,,,,,,,,,,,,,,,,,,,,,,,,,,,,,,,,,,,,,,,,,,,,,,,,,,,,,,,,,,,,,,,,,,,,,,,,,,,,,,,,,,,,,,,,,,,,,,,,,,,,,,,,,,,,,,,,,,,,,,,,,,,,,,,
,,601857c3c3f5ce0c3e5fb913,2024-02-18_20h17.21.577,kallum_motion_pilot,2023.2.2,Win32,163.9344262,601857c3c3f5ce0c3e5fb913,65d2b6c8f2eece985d8e374c,65d2b9360b64bbe7b18e2682,0.0338,0.0338,1,104,266,86,1,eightsix,,,,,,,,,,,,,,,,,,,,,,,,,,,,,,,,,,,,,,,,,,,,,,,,,,,,,,,,,,,,,,,,,,,,,,,,,,,,,,,,,,,,,,,,,,,,,,,,,,,,,,,,,,,,,,,,,,,,,,,,,,,,,,,,,,,,,,,,,
,,601857c3c3f5ce0c3e5fb913,2024-02-18_20h17.21.577,kallum_motion_pilot,2023.2.2,Win32,163.9344262,601857c3c3f5ce0c3e5fb913,65d2b6c8f2eece985d8e374c,65d2b9360b64bbe7b18e2682,0.0338,0.0339,1,105,267,43,1,twofour,,,,,,,,,,,,,,,,,,,,,,,,,,,,,,,,,,,,,,,,,,,,,,,,,,,,,,,,,,,,,,,,,,,,,,,,,,,,,,,,,,,,,,,,,,,,,,,,,,,,,,,,,,,,,,,,,,,,,,,,,,,,,,,,,,,,,,,,,
,,601857c3c3f5ce0c3e5fb913,2024-02-18_20h17.21.577,kallum_motion_pilot,2023.2.2,Win32,163.9344262,601857c3c3f5ce0c3e5fb913,65d2b6c8f2eece985d8e374c,65d2b9360b64bbe7b18e2682,0.0339,0.034,1,106,268,12,1,threeone,,,,,,,,,,,,,,,,,,,,,,,,,,,,,,,,,,,,,,,,,,,,,,,,,,,,,,,,,,,,,,,,,,,,,,,,,,,,,,,,,,,,,,,,,,,,,,,,,,,,,,,,,,,,,,,,,,,,,,,,,,,,,,,,,,,,,,,,,
,,601857c3c3f5ce0c3e5fb913,2024-02-18_20h17.21.577,kallum_motion_pilot,2023.2.2,Win32,163.9344262,601857c3c3f5ce0c3e5fb913,65d2b6c8f2eece985d8e374c,65d2b9360b64bbe7b18e2682,0.034,0.034,1,107,269,63,1,fourthree,,,,,,,,,,,,,,,,,,,,,,,,,,,,,,,,,,,,,,,,,,,,,,,,,,,,,,,,,,,,,,,,,,,,,,,,,,,,,,,,,,,,,,,,,,,,,,,,,,,,,,,,,,,,,,,,,,,,,,,,,,,,,,,,,,,,,,,,,
,,601857c3c3f5ce0c3e5fb913,2024-02-18_20h17.21.577,kallum_motion_pilot,2023.2.2,Win32,163.9344262,601857c3c3f5ce0c3e5fb913,65d2b6c8f2eece985d8e374c,65d2b9360b64bbe7b18e2682,0.034,0.0341,1,108,270,79,1,eightseven,,,,,,,,,,,,,,,,,,,,,,,,,,,,,,,,,,,,,,,,,,,,,,,,,,,,,,,,,,,,,,,,,,,,,,,,,,,,,,,,,,,,,,,,,,,,,,,,,,,,,,,,,,,,,,,,,,,,,,,,,,,,,,,,,,,,,,,,,
,,601857c3c3f5ce0c3e5fb913,2024-02-18_20h17.21.577,kallum_motion_pilot,2023.2.2,Win32,163.9344262,601857c3c3f5ce0c3e5fb913,65d2b6c8f2eece985d8e374c,65d2b9360b64bbe7b18e2682,0.0342,0.0342,1,109,271,147,1,sixeight,,,,,,,,,,,,,,,,,,,,,,,,,,,,,,,,,,,,,,,,,,,,,,,,,,,,,,,,,,,,,,,,,,,,,,,,,,,,,,,,,,,,,,,,,,,,,,,,,,,,,,,,,,,,,,,,,,,,,,,,,,,,,,,,,,,,,,,,,
,,601857c3c3f5ce0c3e5fb913,2024-02-18_20h17.21.577,kallum_motion_pilot,2023.2.2,Win32,163.9344262,601857c3c3f5ce0c3e5fb913,65d2b6c8f2eece985d8e374c,65d2b9360b64bbe7b18e2682,0.0343,0.0343,1,110,272,156,1,sevenfive,,,,,,,,,,,,,,,,,,,,,,,,,,,,,,,,,,,,,,,,,,,,,,,,,,,,,,,,,,,,,,,,,,,,,,,,,,,,,,,,,,,,,,,,,,,,,,,,,,,,,,,,,,,,,,,,,,,,,,,,,,,,,,,,,,,,,,,,,
,,601857c3c3f5ce0c3e5fb913,2024-02-18_20h17.21.577,kallum_motion_pilot,2023.2.2,Win32,163.9344262,601857c3c3f5ce0c3e5fb913,65d2b6c8f2eece985d8e374c,65d2b9360b64bbe7b18e2682,0.0343,0.0344,1,111,273,15,1,fourthree,,,,,,,,,,,,,,,,,,,,,,,,,,,,,,,,,,,,,,,,,,,,,,,,,,,,,,,,,,,,,,,,,,,,,,,,,,,,,,,,,,,,,,,,,,,,,,,,,,,,,,,,,,,,,,,,,,,,,,,,,,,,,,,,,,,,,,,,,
,,601857c3c3f5ce0c3e5fb913,2024-02-18_20h17.21.577,kallum_motion_pilot,2023.2.2,Win32,163.9344262,601857c3c3f5ce0c3e5fb913,65d2b6c8f2eece985d8e374c,65d2b9360b64bbe7b18e2682,0.0345,0.0345,1,112,274,135,1,eightseven,,,,,,,,,,,,,,,,,,,,,,,,,,,,,,,,,,,,,,,,,,,,,,,,,,,,,,,,,,,,,,,,,,,,,,,,,,,,,,,,,,,,,,,,,,,,,,,,,,,,,,,,,,,,,,,,,,,,,,,,,,,,,,,,,,,,,,,,,
,,601857c3c3f5ce0c3e5fb913,2024-02-18_20h17.21.577,kallum_motion_pilot,2023.2.2,Win32,163.9344262,601857c3c3f5ce0c3e5fb913,65d2b6c8f2eece985d8e374c,65d2b9360b64bbe7b18e2682,0.0345,0.0345,1,113,275,40,1,onetwo,,,,,,,,,,,,,,,,,,,,,,,,,,,,,,,,,,,,,,,,,,,,,,,,,,,,,,,,,,,,,,,,,,,,,,,,,,,,,,,,,,,,,,,,,,,,,,,,,,,,,,,,,,,,,,,,,,,,,,,,,,,,,,,,,,,,,,,,,
,,601857c3c3f5ce0c3e5fb913,2024-02-18_20h17.21.577,kallum_motion_pilot,2023.2.2,Win32,163.9344262,601857c3c3f5ce0c3e5fb913,65d2b6c8f2eece985d8e374c,65d2b9360b64bbe7b18e2682,0.0346,0.0347,1,114,276,130,1,sixfive,,,,,,,,,,,,,,,,,,,,,,,,,,,,,,,,,,,,,,,,,,,,,,,,,,,,,,,,,,,,,,,,,,,,,,,,,,,,,,,,,,,,,,,,,,,,,,,,,,,,,,,,,,,,,,,,,,,,,,,,,,,,,,,,,,,,,,,,,
,,601857c3c3f5ce0c3e5fb913,2024-02-18_20h17.21.577,kallum_motion_pilot,2023.2.2,Win32,163.9344262,601857c3c3f5ce0c3e5fb913,65d2b6c8f2eece985d8e374c,65d2b9360b64bbe7b18e2682,0.0347,0.0347,1,115,277,51,1,twofour,,,,,,,,,,,,,,,,,,,,,,,,,,,,,,,,,,,,,,,,,,,,,,,,,,,,,,,,,,,,,,,,,,,,,,,,,,,,,,,,,,,,,,,,,,,,,,,,,,,,,,,,,,,,,,,,,,,,,,,,,,,,,,,,,,,,,,,,,
