startup.started,startup.stopped,Prolific ID*,date,expName,psychopyVersion,OS,frameRate,participant,study_id,session,stimpositions.started,stimpositions.stopped,hardcoded_stimulus_positions.thisRepN,hardcoded_stimulus_positions.thisTrialN,hardcoded_stimulus_positions.thisN,hardcoded_stimulus_positions.thisIndex,hardcoded_stimulus_positions.ran,StimulusPos,stimorientation.started,stimorientation.stopped,prac_stimorientation_import_loop.thisRepN,prac_stimorientation_import_loop.thisTrialN,prac_stimorientation_import_loop.thisN,prac_stimorientation_import_loop.thisIndex,prac_stimorientation_import_loop.ran,Stimorientation,welcome_instr.started,welcome_instr.stopped,key_resp.keys,key_resp.rt,key_resp.duration,response_steppedout_1.started,response_steppedout_1.stopped,key_resp_20.keys,key_resp_20.rt,key_resp_20.duration,response_steppedout_2.started,response_steppedout_2.stopped,key_resp_19.keys,key_resp_19.rt,key_resp_19.duration,stim_response_instr.started,stim_response_instr.stopped,key_resp_15.keys,key_resp_15.rt,key_resp_15.duration,direction_instr_2.started,direction_instr_2.stopped,key_resp_9.keys,key_resp_9.rt,key_resp_9.duration,instr_prac.started,instr_prac.stopped,key_resp_10.keys,key_resp_10.rt,key_resp_10.duration,Stim1_display_prac.started,Stim1_display_prac.stopped,Ecc,Circle1_ori,Circle2_ori,response_prac.started,similarity,response_time,response_prac.stopped,mouse_5.x,mouse_5.y,mouse_5.leftButton,mouse_5.midButton,mouse_5.rightButton,mouse_5.clicked_name,responseprac_feedback.started,responseprac_feedback.stopped,summary2_prac.started,summary2_prac.stopped,mouse_6.x,mouse_6.y,mouse_6.leftButton,mouse_6.midButton,mouse_6.rightButton,mouse_6.clicked_name,duringprac.thisRepN,duringprac.thisTrialN,duringprac.thisN,duringprac.thisIndex,duringprac.ran,begin.started,begin.stopped,key_resp_22.keys,key_resp_22.rt,key_resp_22.duration,Stim1_display.started,Stim1_display.stopped,circle1_ori,circle2_ori,circle1_SF,circle2_SF,response.started,response.stopped,mouse.x,mouse.y,mouse.leftButton,mouse.midButton,mouse.rightButton,mouse.clicked_name,trialnumber,double_pass.thisRepN,double_pass.thisTrialN,double_pass.thisN,double_pass.thisIndex,double_pass.ran,double_pass.order,main_trial.thisRepN,main_trial.thisTrialN,main_trial.thisN,main_trial.thisIndex,main_trial.ran,main_trial.order,Trial_Counter,Catch,Frequencies,response_2.started,response_2.stopped,mouse_2.x,mouse_2.y,mouse_2.leftButton,mouse_2.midButton,mouse_2.rightButton,mouse_2.clicked_name,special_trial.started,special_trial.stopped,catch_1.started,catch_1.stopped,mouse_3.x,mouse_3.y,mouse_3.leftButton,mouse_3.midButton,mouse_3.rightButton,catchresponse,catchnumber,response_time_catch,response_sum.started,response_sum.stopped,mouse_11.x,mouse_11.y,mouse_11.leftButton,mouse_11.midButton,mouse_11.rightButton,flip_presentation_sequence_for_double_pass.started,flip_presentation_sequence_for_double_pass.stopped,goodbye.started,goodbye.stopped,key_resp_3.keys,key_resp_3.rt,key_resp_3.duration
0.0002,0.0002,60196480480c1403e32285a8,2024-02-22_07h00.54.464,kallum_motion_pilot,2023.2.2,Win32,59.88023952,60196480480c1403e32285a8,65d6bb0e977760de756971f7,65d6d4d7431f118201ca1cbb,,,,,,,,,,,,,,,,,,,,,,,,,,,,,,,,,,,,,,,,,,,,,,,,,,,,,,,,,,,,,,,,,,,,,,,,,,,,,,,,,,,,,,,,,,,,,,,,,,,,,,,,,,,,,,,,,,,,,,,,,,,,,,,,,,,,,,,,,,,,,,,,,
,,60196480480c1403e32285a8,2024-02-22_07h00.54.464,kallum_motion_pilot,2023.2.2,Win32,59.88023952,60196480480c1403e32285a8,65d6bb0e977760de756971f7,65d6d4d7431f118201ca1cbb,0.012,0.0121,0,0,0,88,1,fivesix,,,,,,,,,,,,,,,,,,,,,,,,,,,,,,,,,,,,,,,,,,,,,,,,,,,,,,,,,,,,,,,,,,,,,,,,,,,,,,,,,,,,,,,,,,,,,,,,,,,,,,,,,,,,,,,,,,,,,,,,,,,,,,,,,,,,,,,,,
,,60196480480c1403e32285a8,2024-02-22_07h00.54.464,kallum_motion_pilot,2023.2.2,Win32,59.88023952,60196480480c1403e32285a8,65d6bb0e977760de756971f7,65d6d4d7431f118201ca1cbb,0.0122,0.0122,0,1,1,85,1,seveneight,,,,,,,,,,,,,,,,,,,,,,,,,,,,,,,,,,,,,,,,,,,,,,,,,,,,,,,,,,,,,,,,,,,,,,,,,,,,,,,,,,,,,,,,,,,,,,,,,,,,,,,,,,,,,,,,,,,,,,,,,,,,,,,,,,,,,,,,,
,,60196480480c1403e32285a8,2024-02-22_07h00.54.464,kallum_motion_pilot,2023.2.2,Win32,59.88023952,60196480480c1403e32285a8,65d6bb0e977760de756971f7,65d6d4d7431f118201ca1cbb,0.0123,0.0123,0,2,2,160,1,fivesix,,,,,,,,,,,,,,,,,,,,,,,,,,,,,,,,,,,,,,,,,,,,,,,,,,,,,,,,,,,,,,,,,,,,,,,,,,,,,,,,,,,,,,,,,,,,,,,,,,,,,,,,,,,,,,,,,,,,,,,,,,,,,,,,,,,,,,,,,
,,60196480480c1403e32285a8,2024-02-22_07h00.54.464,kallum_motion_pilot,2023.2.2,Win32,59.88023952,60196480480c1403e32285a8,65d6bb0e977760de756971f7,65d6d4d7431f118201ca1cbb,0.0124,0.0124,0,3,3,0,1,onetwo,,,,,,,,,,,,,,,,,,,,,,,,,,,,,,,,,,,,,,,,,,,,,,,,,,,,,,,,,,,,,,,,,,,,,,,,,,,,,,,,,,,,,,,,,,,,,,,,,,,,,,,,,,,,,,,,,,,,,,,,,,,,,,,,,,,,,,,,,
,,60196480480c1403e32285a8,2024-02-22_07h00.54.464,kallum_motion_pilot,2023.2.2,Win32,59.88023952,60196480480c1403e32285a8,65d6bb0e977760de756971f7,65d6d4d7431f118201ca1cbb,0.0124,0.0124,0,4,4,64,1,onetwo,,,,,,,,,,,,,,,,,,,,,,,,,,,,,,,,,,,,,,,,,,,,,,,,,,,,,,,,,,,,,,,,,,,,,,,,,,,,,,,,,,,,,,,,,,,,,,,,,,,,,,,,,,,,,,,,,,,,,,,,,,,,,,,,,,,,,,,,,
,,60196480480c1403e32285a8,2024-02-22_07h00.54.464,kallum_motion_pilot,2023.2.2,Win32,59.88023952,60196480480c1403e32285a8,65d6bb0e977760de756971f7,65d6d4d7431f118201ca1cbb,0.0125,0.0125,0,5,5,120,1,fivesix,,,,,,,,,,,,,,,,,,,,,,,,,,,,,,,,,,,,,,,,,,,,,,,,,,,,,,,,,,,,,,,,,,,,,,,,,,,,,,,,,,,,,,,,,,,,,,,,,,,,,,,,,,,,,,,,,,,,,,,,,,,,,,,,,,,,,,,,,
,,60196480480c1403e32285a8,2024-02-22_07h00.54.464,kallum_motion_pilot,2023.2.2,Win32,59.88023952,60196480480c1403e32285a8,65d6bb0e977760de756971f7,65d6d4d7431f118201ca1cbb,0.0126,0.0126,0,6,6,39,1,fourthree,,,,,,,,,,,,,,,,,,,,,,,,,,,,,,,,,,,,,,,,,,,,,,,,,,,,,,,,,,,,,,,,,,,,,,,,,,,,,,,,,,,,,,,,,,,,,,,,,,,,,,,,,,,,,,,,,,,,,,,,,,,,,,,,,,,,,,,,,
,,60196480480c1403e32285a8,2024-02-22_07h00.54.464,kallum_motion_pilot,2023.2.2,Win32,59.88023952,60196480480c1403e32285a8,65d6bb0e977760de756971f7,65d6d4d7431f118201ca1cbb,0.0126,0.0126,0,7,7,117,1,seveneight,,,,,,,,,,,,,,,,,,,,,,,,,,,,,,,,,,,,,,,,,,,,,,,,,,,,,,,,,,,,,,,,,,,,,,,,,,,,,,,,,,,,,,,,,,,,,,,,,,,,,,,,,,,,,,,,,,,,,,,,,,,,,,,,,,,,,,,,,
,,60196480480c1403e32285a8,2024-02-22_07h00.54.464,kallum_motion_pilot,2023.2.2,Win32,59.88023952,60196480480c1403e32285a8,65d6bb0e977760de756971f7,65d6d4d7431f118201ca1cbb,0.0127,0.0127,0,8,8,148,1,sevenfive,,,,,,,,,,,,,,,,,,,,,,,,,,,,,,,,,,,,,,,,,,,,,,,,,,,,,,,,,,,,,,,,,,,,,,,,,,,,,,,,,,,,,,,,,,,,,,,,,,,,,,,,,,,,,,,,,,,,,,,,,,,,,,,,,,,,,,,,,
,,60196480480c1403e32285a8,2024-02-22_07h00.54.464,kallum_motion_pilot,2023.2.2,Win32,59.88023952,60196480480c1403e32285a8,65d6bb0e977760de756971f7,65d6d4d7431f118201ca1cbb,0.0128,0.0128,0,9,9,68,1,threeone,,,,,,,,,,,,,,,,,,,,,,,,,,,,,,,,,,,,,,,,,,,,,,,,,,,,,,,,,,,,,,,,,,,,,,,,,,,,,,,,,,,,,,,,,,,,,,,,,,,,,,,,,,,,,,,,,,,,,,,,,,,,,,,,,,,,,,,,,
,,60196480480c1403e32285a8,2024-02-22_07h00.54.464,kallum_motion_pilot,2023.2.2,Win32,59.88023952,60196480480c1403e32285a8,65d6bb0e977760de756971f7,65d6d4d7431f118201ca1cbb,0.0128,0.0128,0,10,10,56,1,onetwo,,,,,,,,,,,,,,,,,,,,,,,,,,,,,,,,,,,,,,,,,,,,,,,,,,,,,,,,,,,,,,,,,,,,,,,,,,,,,,,,,,,,,,,,,,,,,,,,,,,,,,,,,,,,,,,,,,,,,,,,,,,,,,,,,,,,,,,,,
,,60196480480c1403e32285a8,2024-02-22_07h00.54.464,kallum_motion_pilot,2023.2.2,Win32,59.88023952,60196480480c1403e32285a8,65d6bb0e977760de756971f7,65d6d4d7431f118201ca1cbb,0.0128,0.0129,0,11,11,23,1,fourthree,,,,,,,,,,,,,,,,,,,,,,,,,,,,,,,,,,,,,,,,,,,,,,,,,,,,,,,,,,,,,,,,,,,,,,,,,,,,,,,,,,,,,,,,,,,,,,,,,,,,,,,,,,,,,,,,,,,,,,,,,,,,,,,,,,,,,,,,,
,,60196480480c1403e32285a8,2024-02-22_07h00.54.464,kallum_motion_pilot,2023.2.2,Win32,59.88023952,60196480480c1403e32285a8,65d6bb0e977760de756971f7,65d6d4d7431f118201ca1cbb,0.0129,0.0129,0,12,12,22,1,fourtwo,,,,,,,,,,,,,,,,,,,,,,,,,,,,,,,,,,,,,,,,,,,,,,,,,,,,,,,,,,,,,,,,,,,,,,,,,,,,,,,,,,,,,,,,,,,,,,,,,,,,,,,,,,,,,,,,,,,,,,,,,,,,,,,,,,,,,,,,,
,,60196480480c1403e32285a8,2024-02-22_07h00.54.464,kallum_motion_pilot,2023.2.2,Win32,59.88023952,60196480480c1403e32285a8,65d6bb0e977760de756971f7,65d6d4d7431f118201ca1cbb,0.013,0.013,0,13,13,32,1,onetwo,,,,,,,,,,,,,,,,,,,,,,,,,,,,,,,,,,,,,,,,,,,,,,,,,,,,,,,,,,,,,,,,,,,,,,,,,,,,,,,,,,,,,,,,,,,,,,,,,,,,,,,,,,,,,,,,,,,,,,,,,,,,,,,,,,,,,,,,,
,,60196480480c1403e32285a8,2024-02-22_07h00.54.464,kallum_motion_pilot,2023.2.2,Win32,59.88023952,60196480480c1403e32285a8,65d6bb0e977760de756971f7,65d6d4d7431f118201ca1cbb,0.0131,0.0131,0,14,14,118,1,eightsix,,,,,,,,,,,,,,,,,,,,,,,,,,,,,,,,,,,,,,,,,,,,,,,,,,,,,,,,,,,,,,,,,,,,,,,,,,,,,,,,,,,,,,,,,,,,,,,,,,,,,,,,,,,,,,,,,,,,,,,,,,,,,,,,,,,,,,,,,
,,60196480480c1403e32285a8,2024-02-22_07h00.54.464,kallum_motion_pilot,2023.2.2,Win32,59.88023952,60196480480c1403e32285a8,65d6bb0e977760de756971f7,65d6d4d7431f118201ca1cbb,0.0131,0.0131,0,15,15,44,1,threeone,,,,,,,,,,,,,,,,,,,,,,,,,,,,,,,,,,,,,,,,,,,,,,,,,,,,,,,,,,,,,,,,,,,,,,,,,,,,,,,,,,,,,,,,,,,,,,,,,,,,,,,,,,,,,,,,,,,,,,,,,,,,,,,,,,,,,,,,,
,,60196480480c1403e32285a8,2024-02-22_07h00.54.464,kallum_motion_pilot,2023.2.2,Win32,59.88023952,60196480480c1403e32285a8,65d6bb0e977760de756971f7,65d6d4d7431f118201ca1cbb,0.0132,0.0132,0,16,16,86,1,eightsix,,,,,,,,,,,,,,,,,,,,,,,,,,,,,,,,,,,,,,,,,,,,,,,,,,,,,,,,,,,,,,,,,,,,,,,,,,,,,,,,,,,,,,,,,,,,,,,,,,,,,,,,,,,,,,,,,,,,,,,,,,,,,,,,,,,,,,,,,
,,60196480480c1403e32285a8,2024-02-22_07h00.54.464,kallum_motion_pilot,2023.2.2,Win32,59.88023952,60196480480c1403e32285a8,65d6bb0e977760de756971f7,65d6d4d7431f118201ca1cbb,0.0132,0.0132,0,17,17,34,1,twoone,,,,,,,,,,,,,,,,,,,,,,,,,,,,,,,,,,,,,,,,,,,,,,,,,,,,,,,,,,,,,,,,,,,,,,,,,,,,,,,,,,,,,,,,,,,,,,,,,,,,,,,,,,,,,,,,,,,,,,,,,,,,,,,,,,,,,,,,,
,,60196480480c1403e32285a8,2024-02-22_07h00.54.464,kallum_motion_pilot,2023.2.2,Win32,59.88023952,60196480480c1403e32285a8,65d6bb0e977760de756971f7,65d6d4d7431f118201ca1cbb,0.0132,0.0132,0,18,18,157,1,seveneight,,,,,,,,,,,,,,,,,,,,,,,,,,,,,,,,,,,,,,,,,,,,,,,,,,,,,,,,,,,,,,,,,,,,,,,,,,,,,,,,,,,,,,,,,,,,,,,,,,,,,,,,,,,,,,,,,,,,,,,,,,,,,,,,,,,,,,,,,
,,60196480480c1403e32285a8,2024-02-22_07h00.54.464,kallum_motion_pilot,2023.2.2,Win32,59.88023952,60196480480c1403e32285a8,65d6bb0e977760de756971f7,65d6d4d7431f118201ca1cbb,0.0132,0.0132,0,19,19,67,1,twofour,,,,,,,,,,,,,,,,,,,,,,,,,,,,,,,,,,,,,,,,,,,,,,,,,,,,,,,,,,,,,,,,,,,,,,,,,,,,,,,,,,,,,,,,,,,,,,,,,,,,,,,,,,,,,,,,,,,,,,,,,,,,,,,,,,,,,,,,,
,,60196480480c1403e32285a8,2024-02-22_07h00.54.464,kallum_motion_pilot,2023.2.2,Win32,59.88023952,60196480480c1403e32285a8,65d6bb0e977760de756971f7,65d6d4d7431f118201ca1cbb,0.0134,0.0134,0,20,20,122,1,sixfive,,,,,,,,,,,,,,,,,,,,,,,,,,,,,,,,,,,,,,,,,,,,,,,,,,,,,,,,,,,,,,,,,,,,,,,,,,,,,,,,,,,,,,,,,,,,,,,,,,,,,,,,,,,,,,,,,,,,,,,,,,,,,,,,,,,,,,,,,
,,60196480480c1403e32285a8,2024-02-22_07h00.54.464,kallum_motion_pilot,2023.2.2,Win32,59.88023952,60196480480c1403e32285a8,65d6bb0e977760de756971f7,65d6d4d7431f118201ca1cbb,0.0134,0.0134,0,21,21,92,1,sevenfive,,,,,,,,,,,,,,,,,,,,,,,,,,,,,,,,,,,,,,,,,,,,,,,,,,,,,,,,,,,,,,,,,,,,,,,,,,,,,,,,,,,,,,,,,,,,,,,,,,,,,,,,,,,,,,,,,,,,,,,,,,,,,,,,,,,,,,,,,
,,60196480480c1403e32285a8,2024-02-22_07h00.54.464,kallum_motion_pilot,2023.2.2,Win32,59.88023952,60196480480c1403e32285a8,65d6bb0e977760de756971f7,65d6d4d7431f118201ca1cbb,0.0141,0.0141,0,22,22,48,1,onetwo,,,,,,,,,,,,,,,,,,,,,,,,,,,,,,,,,,,,,,,,,,,,,,,,,,,,,,,,,,,,,,,,,,,,,,,,,,,,,,,,,,,,,,,,,,,,,,,,,,,,,,,,,,,,,,,,,,,,,,,,,,,,,,,,,,,,,,,,,
,,60196480480c1403e32285a8,2024-02-22_07h00.54.464,kallum_motion_pilot,2023.2.2,Win32,59.88023952,60196480480c1403e32285a8,65d6bb0e977760de756971f7,65d6d4d7431f118201ca1cbb,0.0141,0.0141,0,23,23,72,1,onetwo,,,,,,,,,,,,,,,,,,,,,,,,,,,,,,,,,,,,,,,,,,,,,,,,,,,,,,,,,,,,,,,,,,,,,,,,,,,,,,,,,,,,,,,,,,,,,,,,,,,,,,,,,,,,,,,,,,,,,,,,,,,,,,,,,,,,,,,,,
,,60196480480c1403e32285a8,2024-02-22_07h00.54.464,kallum_motion_pilot,2023.2.2,Win32,59.88023952,60196480480c1403e32285a8,65d6bb0e977760de756971f7,65d6d4d7431f118201ca1cbb,0.0141,0.0141,0,24,24,30,1,fourtwo,,,,,,,,,,,,,,,,,,,,,,,,,,,,,,,,,,,,,,,,,,,,,,,,,,,,,,,,,,,,,,,,,,,,,,,,,,,,,,,,,,,,,,,,,,,,,,,,,,,,,,,,,,,,,,,,,,,,,,,,,,,,,,,,,,,,,,,,,
,,60196480480c1403e32285a8,2024-02-22_07h00.54.464,kallum_motion_pilot,2023.2.2,Win32,59.88023952,60196480480c1403e32285a8,65d6bb0e977760de756971f7,65d6d4d7431f118201ca1cbb,0.0142,0.0142,0,25,25,66,1,twoone,,,,,,,,,,,,,,,,,,,,,,,,,,,,,,,,,,,,,,,,,,,,,,,,,,,,,,,,,,,,,,,,,,,,,,,,,,,,,,,,,,,,,,,,,,,,,,,,,,,,,,,,,,,,,,,,,,,,,,,,,,,,,,,,,,,,,,,,,
,,60196480480c1403e32285a8,2024-02-22_07h00.54.464,kallum_motion_pilot,2023.2.2,Win32,59.88023952,60196480480c1403e32285a8,65d6bb0e977760de756971f7,65d6d4d7431f118201ca1cbb,0.0142,0.0143,0,26,26,154,1,sixfive,,,,,,,,,,,,,,,,,,,,,,,,,,,,,,,,,,,,,,,,,,,,,,,,,,,,,,,,,,,,,,,,,,,,,,,,,,,,,,,,,,,,,,,,,,,,,,,,,,,,,,,,,,,,,,,,,,,,,,,,,,,,,,,,,,,,,,,,,
,,60196480480c1403e32285a8,2024-02-22_07h00.54.464,kallum_motion_pilot,2023.2.2,Win32,59.88023952,60196480480c1403e32285a8,65d6bb0e977760de756971f7,65d6d4d7431f118201ca1cbb,0.0143,0.0143,0,27,27,11,1,twofour,,,,,,,,,,,,,,,,,,,,,,,,,,,,,,,,,,,,,,,,,,,,,,,,,,,,,,,,,,,,,,,,,,,,,,,,,,,,,,,,,,,,,,,,,,,,,,,,,,,,,,,,,,,,,,,,,,,,,,,,,,,,,,,,,,,,,,,,,
,,60196480480c1403e32285a8,2024-02-22_07h00.54.464,kallum_motion_pilot,2023.2.2,Win32,59.88023952,60196480480c1403e32285a8,65d6bb0e977760de756971f7,65d6d4d7431f118201ca1cbb,0.0143,0.0143,0,28,28,38,1,fourtwo,,,,,,,,,,,,,,,,,,,,,,,,,,,,,,,,,,,,,,,,,,,,,,,,,,,,,,,,,,,,,,,,,,,,,,,,,,,,,,,,,,,,,,,,,,,,,,,,,,,,,,,,,,,,,,,,,,,,,,,,,,,,,,,,,,,,,,,,,
,,60196480480c1403e32285a8,2024-02-22_07h00.54.464,kallum_motion_pilot,2023.2.2,Win32,59.88023952,60196480480c1403e32285a8,65d6bb0e977760de756971f7,65d6d4d7431f118201ca1cbb,0.0143,0.0144,0,29,29,140,1,sevenfive,,,,,,,,,,,,,,,,,,,,,,,,,,,,,,,,,,,,,,,,,,,,,,,,,,,,,,,,,,,,,,,,,,,,,,,,,,,,,,,,,,,,,,,,,,,,,,,,,,,,,,,,,,,,,,,,,,,,,,,,,,,,,,,,,,,,,,,,,
,,60196480480c1403e32285a8,2024-02-22_07h00.54.464,kallum_motion_pilot,2023.2.2,Win32,59.88023952,60196480480c1403e32285a8,65d6bb0e977760de756971f7,65d6d4d7431f118201ca1cbb,0.0144,0.0144,0,30,30,139,1,sixeight,,,,,,,,,,,,,,,,,,,,,,,,,,,,,,,,,,,,,,,,,,,,,,,,,,,,,,,,,,,,,,,,,,,,,,,,,,,,,,,,,,,,,,,,,,,,,,,,,,,,,,,,,,,,,,,,,,,,,,,,,,,,,,,,,,,,,,,,,
,,60196480480c1403e32285a8,2024-02-22_07h00.54.464,kallum_motion_pilot,2023.2.2,Win32,59.88023952,60196480480c1403e32285a8,65d6bb0e977760de756971f7,65d6d4d7431f118201ca1cbb,0.0144,0.0144,0,31,31,35,1,twofour,,,,,,,,,,,,,,,,,,,,,,,,,,,,,,,,,,,,,,,,,,,,,,,,,,,,,,,,,,,,,,,,,,,,,,,,,,,,,,,,,,,,,,,,,,,,,,,,,,,,,,,,,,,,,,,,,,,,,,,,,,,,,,,,,,,,,,,,,
,,60196480480c1403e32285a8,2024-02-22_07h00.54.464,kallum_motion_pilot,2023.2.2,Win32,59.88023952,60196480480c1403e32285a8,65d6bb0e977760de756971f7,65d6d4d7431f118201ca1cbb,0.0145,0.0146,0,32,32,119,1,eightseven,,,,,,,,,,,,,,,,,,,,,,,,,,,,,,,,,,,,,,,,,,,,,,,,,,,,,,,,,,,,,,,,,,,,,,,,,,,,,,,,,,,,,,,,,,,,,,,,,,,,,,,,,,,,,,,,,,,,,,,,,,,,,,,,,,,,,,,,,
,,60196480480c1403e32285a8,2024-02-22_07h00.54.464,kallum_motion_pilot,2023.2.2,Win32,59.88023952,60196480480c1403e32285a8,65d6bb0e977760de756971f7,65d6d4d7431f118201ca1cbb,0.0146,0.0146,0,33,33,73,1,onethree,,,,,,,,,,,,,,,,,,,,,,,,,,,,,,,,,,,,,,,,,,,,,,,,,,,,,,,,,,,,,,,,,,,,,,,,,,,,,,,,,,,,,,,,,,,,,,,,,,,,,,,,,,,,,,,,,,,,,,,,,,,,,,,,,,,,,,,,,
,,60196480480c1403e32285a8,2024-02-22_07h00.54.464,kallum_motion_pilot,2023.2.2,Win32,59.88023952,60196480480c1403e32285a8,65d6bb0e977760de756971f7,65d6d4d7431f118201ca1cbb,0.0146,0.0146,0,34,34,53,1,threefour,,,,,,,,,,,,,,,,,,,,,,,,,,,,,,,,,,,,,,,,,,,,,,,,,,,,,,,,,,,,,,,,,,,,,,,,,,,,,,,,,,,,,,,,,,,,,,,,,,,,,,,,,,,,,,,,,,,,,,,,,,,,,,,,,,,,,,,,,
,,60196480480c1403e32285a8,2024-02-22_07h00.54.464,kallum_motion_pilot,2023.2.2,Win32,59.88023952,60196480480c1403e32285a8,65d6bb0e977760de756971f7,65d6d4d7431f118201ca1cbb,0.0147,0.0147,0,35,35,146,1,sixfive,,,,,,,,,,,,,,,,,,,,,,,,,,,,,,,,,,,,,,,,,,,,,,,,,,,,,,,,,,,,,,,,,,,,,,,,,,,,,,,,,,,,,,,,,,,,,,,,,,,,,,,,,,,,,,,,,,,,,,,,,,,,,,,,,,,,,,,,,
,,60196480480c1403e32285a8,2024-02-22_07h00.54.464,kallum_motion_pilot,2023.2.2,Win32,59.88023952,60196480480c1403e32285a8,65d6bb0e977760de756971f7,65d6d4d7431f118201ca1cbb,0.0147,0.0147,0,36,36,97,1,fiveseven,,,,,,,,,,,,,,,,,,,,,,,,,,,,,,,,,,,,,,,,,,,,,,,,,,,,,,,,,,,,,,,,,,,,,,,,,,,,,,,,,,,,,,,,,,,,,,,,,,,,,,,,,,,,,,,,,,,,,,,,,,,,,,,,,,,,,,,,,
,,60196480480c1403e32285a8,2024-02-22_07h00.54.464,kallum_motion_pilot,2023.2.2,Win32,59.88023952,60196480480c1403e32285a8,65d6bb0e977760de756971f7,65d6d4d7431f118201ca1cbb,0.0148,0.0148,0,37,37,100,1,sevenfive,,,,,,,,,,,,,,,,,,,,,,,,,,,,,,,,,,,,,,,,,,,,,,,,,,,,,,,,,,,,,,,,,,,,,,,,,,,,,,,,,,,,,,,,,,,,,,,,,,,,,,,,,,,,,,,,,,,,,,,,,,,,,,,,,,,,,,,,,
,,60196480480c1403e32285a8,2024-02-22_07h00.54.464,kallum_motion_pilot,2023.2.2,Win32,59.88023952,60196480480c1403e32285a8,65d6bb0e977760de756971f7,65d6d4d7431f118201ca1cbb,0.0148,0.0148,0,38,38,80,1,fivesix,,,,,,,,,,,,,,,,,,,,,,,,,,,,,,,,,,,,,,,,,,,,,,,,,,,,,,,,,,,,,,,,,,,,,,,,,,,,,,,,,,,,,,,,,,,,,,,,,,,,,,,,,,,,,,,,,,,,,,,,,,,,,,,,,,,,,,,,,
,,60196480480c1403e32285a8,2024-02-22_07h00.54.464,kallum_motion_pilot,2023.2.2,Win32,59.88023952,60196480480c1403e32285a8,65d6bb0e977760de756971f7,65d6d4d7431f118201ca1cbb,0.0148,0.0148,0,39,39,33,1,onethree,,,,,,,,,,,,,,,,,,,,,,,,,,,,,,,,,,,,,,,,,,,,,,,,,,,,,,,,,,,,,,,,,,,,,,,,,,,,,,,,,,,,,,,,,,,,,,,,,,,,,,,,,,,,,,,,,,,,,,,,,,,,,,,,,,,,,,,,,
,,60196480480c1403e32285a8,2024-02-22_07h00.54.464,kallum_motion_pilot,2023.2.2,Win32,59.88023952,60196480480c1403e32285a8,65d6bb0e977760de756971f7,65d6d4d7431f118201ca1cbb,0.0149,0.0149,0,40,40,144,1,fivesix,,,,,,,,,,,,,,,,,,,,,,,,,,,,,,,,,,,,,,,,,,,,,,,,,,,,,,,,,,,,,,,,,,,,,,,,,,,,,,,,,,,,,,,,,,,,,,,,,,,,,,,,,,,,,,,,,,,,,,,,,,,,,,,,,,,,,,,,,
,,60196480480c1403e32285a8,2024-02-22_07h00.54.464,kallum_motion_pilot,2023.2.2,Win32,59.88023952,60196480480c1403e32285a8,65d6bb0e977760de756971f7,65d6d4d7431f118201ca1cbb,0.015,0.015,0,41,41,60,1,threeone,,,,,,,,,,,,,,,,,,,,,,,,,,,,,,,,,,,,,,,,,,,,,,,,,,,,,,,,,,,,,,,,,,,,,,,,,,,,,,,,,,,,,,,,,,,,,,,,,,,,,,,,,,,,,,,,,,,,,,,,,,,,,,,,,,,,,,,,,
,,60196480480c1403e32285a8,2024-02-22_07h00.54.464,kallum_motion_pilot,2023.2.2,Win32,59.88023952,60196480480c1403e32285a8,65d6bb0e977760de756971f7,65d6d4d7431f118201ca1cbb,0.015,0.015,0,42,42,70,1,fourtwo,,,,,,,,,,,,,,,,,,,,,,,,,,,,,,,,,,,,,,,,,,,,,,,,,,,,,,,,,,,,,,,,,,,,,,,,,,,,,,,,,,,,,,,,,,,,,,,,,,,,,,,,,,,,,,,,,,,,,,,,,,,,,,,,,,,,,,,,,
,,60196480480c1403e32285a8,2024-02-22_07h00.54.464,kallum_motion_pilot,2023.2.2,Win32,59.88023952,60196480480c1403e32285a8,65d6bb0e977760de756971f7,65d6d4d7431f118201ca1cbb,0.015,0.015,0,43,43,129,1,fiveseven,,,,,,,,,,,,,,,,,,,,,,,,,,,,,,,,,,,,,,,,,,,,,,,,,,,,,,,,,,,,,,,,,,,,,,,,,,,,,,,,,,,,,,,,,,,,,,,,,,,,,,,,,,,,,,,,,,,,,,,,,,,,,,,,,,,,,,,,,
,,60196480480c1403e32285a8,2024-02-22_07h00.54.464,kallum_motion_pilot,2023.2.2,Win32,59.88023952,60196480480c1403e32285a8,65d6bb0e977760de756971f7,65d6d4d7431f118201ca1cbb,0.0151,0.0151,0,44,44,83,1,sixeight,,,,,,,,,,,,,,,,,,,,,,,,,,,,,,,,,,,,,,,,,,,,,,,,,,,,,,,,,,,,,,,,,,,,,,,,,,,,,,,,,,,,,,,,,,,,,,,,,,,,,,,,,,,,,,,,,,,,,,,,,,,,,,,,,,,,,,,,,
,,60196480480c1403e32285a8,2024-02-22_07h00.54.464,kallum_motion_pilot,2023.2.2,Win32,59.88023952,60196480480c1403e32285a8,65d6bb0e977760de756971f7,65d6d4d7431f118201ca1cbb,0.0152,0.0152,0,45,45,17,1,onethree,,,,,,,,,,,,,,,,,,,,,,,,,,,,,,,,,,,,,,,,,,,,,,,,,,,,,,,,,,,,,,,,,,,,,,,,,,,,,,,,,,,,,,,,,,,,,,,,,,,,,,,,,,,,,,,,,,,,,,,,,,,,,,,,,,,,,,,,,
,,60196480480c1403e32285a8,2024-02-22_07h00.54.464,kallum_motion_pilot,2023.2.2,Win32,59.88023952,60196480480c1403e32285a8,65d6bb0e977760de756971f7,65d6d4d7431f118201ca1cbb,0.0152,0.0152,0,46,46,142,1,eightsix,,,,,,,,,,,,,,,,,,,,,,,,,,,,,,,,,,,,,,,,,,,,,,,,,,,,,,,,,,,,,,,,,,,,,,,,,,,,,,,,,,,,,,,,,,,,,,,,,,,,,,,,,,,,,,,,,,,,,,,,,,,,,,,,,,,,,,,,,
,,60196480480c1403e32285a8,2024-02-22_07h00.54.464,kallum_motion_pilot,2023.2.2,Win32,59.88023952,60196480480c1403e32285a8,65d6bb0e977760de756971f7,65d6d4d7431f118201ca1cbb,0.0153,0.0153,0,47,47,9,1,onethree,,,,,,,,,,,,,,,,,,,,,,,,,,,,,,,,,,,,,,,,,,,,,,,,,,,,,,,,,,,,,,,,,,,,,,,,,,,,,,,,,,,,,,,,,,,,,,,,,,,,,,,,,,,,,,,,,,,,,,,,,,,,,,,,,,,,,,,,,
,,60196480480c1403e32285a8,2024-02-22_07h00.54.464,kallum_motion_pilot,2023.2.2,Win32,59.88023952,60196480480c1403e32285a8,65d6bb0e977760de756971f7,65d6d4d7431f118201ca1cbb,0.0153,0.0153,0,48,48,65,1,onethree,,,,,,,,,,,,,,,,,,,,,,,,,,,,,,,,,,,,,,,,,,,,,,,,,,,,,,,,,,,,,,,,,,,,,,,,,,,,,,,,,,,,,,,,,,,,,,,,,,,,,,,,,,,,,,,,,,,,,,,,,,,,,,,,,,,,,,,,,
,,60196480480c1403e32285a8,2024-02-22_07h00.54.464,kallum_motion_pilot,2023.2.2,Win32,59.88023952,60196480480c1403e32285a8,65d6bb0e977760de756971f7,65d6d4d7431f118201ca1cbb,0.0154,0.0154,0,49,49,145,1,fiveseven,,,,,,,,,,,,,,,,,,,,,,,,,,,,,,,,,,,,,,,,,,,,,,,,,,,,,,,,,,,,,,,,,,,,,,,,,,,,,,,,,,,,,,,,,,,,,,,,,,,,,,,,,,,,,,,,,,,,,,,,,,,,,,,,,,,,,,,,,
,,60196480480c1403e32285a8,2024-02-22_07h00.54.464,kallum_motion_pilot,2023.2.2,Win32,59.88023952,60196480480c1403e32285a8,65d6bb0e977760de756971f7,65d6d4d7431f118201ca1cbb,0.0154,0.0154,0,50,50,82,1,sixfive,,,,,,,,,,,,,,,,,,,,,,,,,,,,,,,,,,,,,,,,,,,,,,,,,,,,,,,,,,,,,,,,,,,,,,,,,,,,,,,,,,,,,,,,,,,,,,,,,,,,,,,,,,,,,,,,,,,,,,,,,,,,,,,,,,,,,,,,,
,,60196480480c1403e32285a8,2024-02-22_07h00.54.464,kallum_motion_pilot,2023.2.2,Win32,59.88023952,60196480480c1403e32285a8,65d6bb0e977760de756971f7,65d6d4d7431f118201ca1cbb,0.0154,0.0154,0,51,51,161,1,fiveseven,,,,,,,,,,,,,,,,,,,,,,,,,,,,,,,,,,,,,,,,,,,,,,,,,,,,,,,,,,,,,,,,,,,,,,,,,,,,,,,,,,,,,,,,,,,,,,,,,,,,,,,,,,,,,,,,,,,,,,,,,,,,,,,,,,,,,,,,,
,,60196480480c1403e32285a8,2024-02-22_07h00.54.464,kallum_motion_pilot,2023.2.2,Win32,59.88023952,60196480480c1403e32285a8,65d6bb0e977760de756971f7,65d6d4d7431f118201ca1cbb,0.0155,0.0155,0,52,52,114,1,sixfive,,,,,,,,,,,,,,,,,,,,,,,,,,,,,,,,,,,,,,,,,,,,,,,,,,,,,,,,,,,,,,,,,,,,,,,,,,,,,,,,,,,,,,,,,,,,,,,,,,,,,,,,,,,,,,,,,,,,,,,,,,,,,,,,,,,,,,,,,
,,60196480480c1403e32285a8,2024-02-22_07h00.54.464,kallum_motion_pilot,2023.2.2,Win32,59.88023952,60196480480c1403e32285a8,65d6bb0e977760de756971f7,65d6d4d7431f118201ca1cbb,0.0155,0.0155,0,53,53,90,1,sixfive,,,,,,,,,,,,,,,,,,,,,,,,,,,,,,,,,,,,,,,,,,,,,,,,,,,,,,,,,,,,,,,,,,,,,,,,,,,,,,,,,,,,,,,,,,,,,,,,,,,,,,,,,,,,,,,,,,,,,,,,,,,,,,,,,,,,,,,,,
,,60196480480c1403e32285a8,2024-02-22_07h00.54.464,kallum_motion_pilot,2023.2.2,Win32,59.88023952,60196480480c1403e32285a8,65d6bb0e977760de756971f7,65d6d4d7431f118201ca1cbb,0.0156,0.0156,0,54,54,77,1,threefour,,,,,,,,,,,,,,,,,,,,,,,,,,,,,,,,,,,,,,,,,,,,,,,,,,,,,,,,,,,,,,,,,,,,,,,,,,,,,,,,,,,,,,,,,,,,,,,,,,,,,,,,,,,,,,,,,,,,,,,,,,,,,,,,,,,,,,,,,
,,60196480480c1403e32285a8,2024-02-22_07h00.54.464,kallum_motion_pilot,2023.2.2,Win32,59.88023952,60196480480c1403e32285a8,65d6bb0e977760de756971f7,65d6d4d7431f118201ca1cbb,0.0157,0.0157,0,55,55,24,1,onetwo,,,,,,,,,,,,,,,,,,,,,,,,,,,,,,,,,,,,,,,,,,,,,,,,,,,,,,,,,,,,,,,,,,,,,,,,,,,,,,,,,,,,,,,,,,,,,,,,,,,,,,,,,,,,,,,,,,,,,,,,,,,,,,,,,,,,,,,,,
,,60196480480c1403e32285a8,2024-02-22_07h00.54.464,kallum_motion_pilot,2023.2.2,Win32,59.88023952,60196480480c1403e32285a8,65d6bb0e977760de756971f7,65d6d4d7431f118201ca1cbb,0.0157,0.0157,0,56,56,5,1,threefour,,,,,,,,,,,,,,,,,,,,,,,,,,,,,,,,,,,,,,,,,,,,,,,,,,,,,,,,,,,,,,,,,,,,,,,,,,,,,,,,,,,,,,,,,,,,,,,,,,,,,,,,,,,,,,,,,,,,,,,,,,,,,,,,,,,,,,,,,
,,60196480480c1403e32285a8,2024-02-22_07h00.54.464,kallum_motion_pilot,2023.2.2,Win32,59.88023952,60196480480c1403e32285a8,65d6bb0e977760de756971f7,65d6d4d7431f118201ca1cbb,0.0157,0.0157,0,57,57,94,1,eightsix,,,,,,,,,,,,,,,,,,,,,,,,,,,,,,,,,,,,,,,,,,,,,,,,,,,,,,,,,,,,,,,,,,,,,,,,,,,,,,,,,,,,,,,,,,,,,,,,,,,,,,,,,,,,,,,,,,,,,,,,,,,,,,,,,,,,,,,,,
,,60196480480c1403e32285a8,2024-02-22_07h00.54.464,kallum_motion_pilot,2023.2.2,Win32,59.88023952,60196480480c1403e32285a8,65d6bb0e977760de756971f7,65d6d4d7431f118201ca1cbb,0.0158,0.0158,0,58,58,115,1,sixeight,,,,,,,,,,,,,,,,,,,,,,,,,,,,,,,,,,,,,,,,,,,,,,,,,,,,,,,,,,,,,,,,,,,,,,,,,,,,,,,,,,,,,,,,,,,,,,,,,,,,,,,,,,,,,,,,,,,,,,,,,,,,,,,,,,,,,,,,,
,,60196480480c1403e32285a8,2024-02-22_07h00.54.464,kallum_motion_pilot,2023.2.2,Win32,59.88023952,60196480480c1403e32285a8,65d6bb0e977760de756971f7,65d6d4d7431f118201ca1cbb,0.0159,0.0159,0,59,59,110,1,eightsix,,,,,,,,,,,,,,,,,,,,,,,,,,,,,,,,,,,,,,,,,,,,,,,,,,,,,,,,,,,,,,,,,,,,,,,,,,,,,,,,,,,,,,,,,,,,,,,,,,,,,,,,,,,,,,,,,,,,,,,,,,,,,,,,,,,,,,,,,
,,60196480480c1403e32285a8,2024-02-22_07h00.54.464,kallum_motion_pilot,2023.2.2,Win32,59.88023952,60196480480c1403e32285a8,65d6bb0e977760de756971f7,65d6d4d7431f118201ca1cbb,0.0159,0.0159,0,60,60,16,1,onetwo,,,,,,,,,,,,,,,,,,,,,,,,,,,,,,,,,,,,,,,,,,,,,,,,,,,,,,,,,,,,,,,,,,,,,,,,,,,,,,,,,,,,,,,,,,,,,,,,,,,,,,,,,,,,,,,,,,,,,,,,,,,,,,,,,,,,,,,,,
,,60196480480c1403e32285a8,2024-02-22_07h00.54.464,kallum_motion_pilot,2023.2.2,Win32,59.88023952,60196480480c1403e32285a8,65d6bb0e977760de756971f7,65d6d4d7431f118201ca1cbb,0.016,0.016,0,61,61,59,1,twofour,,,,,,,,,,,,,,,,,,,,,,,,,,,,,,,,,,,,,,,,,,,,,,,,,,,,,,,,,,,,,,,,,,,,,,,,,,,,,,,,,,,,,,,,,,,,,,,,,,,,,,,,,,,,,,,,,,,,,,,,,,,,,,,,,,,,,,,,,
,,60196480480c1403e32285a8,2024-02-22_07h00.54.464,kallum_motion_pilot,2023.2.2,Win32,59.88023952,60196480480c1403e32285a8,65d6bb0e977760de756971f7,65d6d4d7431f118201ca1cbb,0.016,0.016,0,62,62,109,1,seveneight,,,,,,,,,,,,,,,,,,,,,,,,,,,,,,,,,,,,,,,,,,,,,,,,,,,,,,,,,,,,,,,,,,,,,,,,,,,,,,,,,,,,,,,,,,,,,,,,,,,,,,,,,,,,,,,,,,,,,,,,,,,,,,,,,,,,,,,,,
,,60196480480c1403e32285a8,2024-02-22_07h00.54.464,kallum_motion_pilot,2023.2.2,Win32,59.88023952,60196480480c1403e32285a8,65d6bb0e977760de756971f7,65d6d4d7431f118201ca1cbb,0.0161,0.0161,0,63,63,49,1,onethree,,,,,,,,,,,,,,,,,,,,,,,,,,,,,,,,,,,,,,,,,,,,,,,,,,,,,,,,,,,,,,,,,,,,,,,,,,,,,,,,,,,,,,,,,,,,,,,,,,,,,,,,,,,,,,,,,,,,,,,,,,,,,,,,,,,,,,,,,
,,60196480480c1403e32285a8,2024-02-22_07h00.54.464,kallum_motion_pilot,2023.2.2,Win32,59.88023952,60196480480c1403e32285a8,65d6bb0e977760de756971f7,65d6d4d7431f118201ca1cbb,0.0161,0.0161,0,64,64,3,1,twofour,,,,,,,,,,,,,,,,,,,,,,,,,,,,,,,,,,,,,,,,,,,,,,,,,,,,,,,,,,,,,,,,,,,,,,,,,,,,,,,,,,,,,,,,,,,,,,,,,,,,,,,,,,,,,,,,,,,,,,,,,,,,,,,,,,,,,,,,,
,,60196480480c1403e32285a8,2024-02-22_07h00.54.464,kallum_motion_pilot,2023.2.2,Win32,59.88023952,60196480480c1403e32285a8,65d6bb0e977760de756971f7,65d6d4d7431f118201ca1cbb,0.0162,0.0162,0,65,65,74,1,twoone,,,,,,,,,,,,,,,,,,,,,,,,,,,,,,,,,,,,,,,,,,,,,,,,,,,,,,,,,,,,,,,,,,,,,,,,,,,,,,,,,,,,,,,,,,,,,,,,,,,,,,,,,,,,,,,,,,,,,,,,,,,,,,,,,,,,,,,,,
,,60196480480c1403e32285a8,2024-02-22_07h00.54.464,kallum_motion_pilot,2023.2.2,Win32,59.88023952,60196480480c1403e32285a8,65d6bb0e977760de756971f7,65d6d4d7431f118201ca1cbb,0.0162,0.0162,0,66,66,36,1,threeone,,,,,,,,,,,,,,,,,,,,,,,,,,,,,,,,,,,,,,,,,,,,,,,,,,,,,,,,,,,,,,,,,,,,,,,,,,,,,,,,,,,,,,,,,,,,,,,,,,,,,,,,,,,,,,,,,,,,,,,,,,,,,,,,,,,,,,,,,
,,60196480480c1403e32285a8,2024-02-22_07h00.54.464,kallum_motion_pilot,2023.2.2,Win32,59.88023952,60196480480c1403e32285a8,65d6bb0e977760de756971f7,65d6d4d7431f118201ca1cbb,0.0163,0.0163,0,67,67,107,1,sixeight,,,,,,,,,,,,,,,,,,,,,,,,,,,,,,,,,,,,,,,,,,,,,,,,,,,,,,,,,,,,,,,,,,,,,,,,,,,,,,,,,,,,,,,,,,,,,,,,,,,,,,,,,,,,,,,,,,,,,,,,,,,,,,,,,,,,,,,,,
,,60196480480c1403e32285a8,2024-02-22_07h00.54.464,kallum_motion_pilot,2023.2.2,Win32,59.88023952,60196480480c1403e32285a8,65d6bb0e977760de756971f7,65d6d4d7431f118201ca1cbb,0.0163,0.0163,0,68,68,15,1,fourthree,,,,,,,,,,,,,,,,,,,,,,,,,,,,,,,,,,,,,,,,,,,,,,,,,,,,,,,,,,,,,,,,,,,,,,,,,,,,,,,,,,,,,,,,,,,,,,,,,,,,,,,,,,,,,,,,,,,,,,,,,,,,,,,,,,,,,,,,,
,,60196480480c1403e32285a8,2024-02-22_07h00.54.464,kallum_motion_pilot,2023.2.2,Win32,59.88023952,60196480480c1403e32285a8,65d6bb0e977760de756971f7,65d6d4d7431f118201ca1cbb,0.0164,0.0164,0,69,69,62,1,fourtwo,,,,,,,,,,,,,,,,,,,,,,,,,,,,,,,,,,,,,,,,,,,,,,,,,,,,,,,,,,,,,,,,,,,,,,,,,,,,,,,,,,,,,,,,,,,,,,,,,,,,,,,,,,,,,,,,,,,,,,,,,,,,,,,,,,,,,,,,,
,,60196480480c1403e32285a8,2024-02-22_07h00.54.464,kallum_motion_pilot,2023.2.2,Win32,59.88023952,60196480480c1403e32285a8,65d6bb0e977760de756971f7,65d6d4d7431f118201ca1cbb,0.0164,0.0164,0,70,70,79,1,eightseven,,,,,,,,,,,,,,,,,,,,,,,,,,,,,,,,,,,,,,,,,,,,,,,,,,,,,,,,,,,,,,,,,,,,,,,,,,,,,,,,,,,,,,,,,,,,,,,,,,,,,,,,,,,,,,,,,,,,,,,,,,,,,,,,,,,,,,,,,
,,60196480480c1403e32285a8,2024-02-22_07h00.54.464,kallum_motion_pilot,2023.2.2,Win32,59.88023952,60196480480c1403e32285a8,65d6bb0e977760de756971f7,65d6d4d7431f118201ca1cbb,0.0165,0.0165,0,71,71,78,1,fourtwo,,,,,,,,,,,,,,,,,,,,,,,,,,,,,,,,,,,,,,,,,,,,,,,,,,,,,,,,,,,,,,,,,,,,,,,,,,,,,,,,,,,,,,,,,,,,,,,,,,,,,,,,,,,,,,,,,,,,,,,,,,,,,,,,,,,,,,,,,
,,60196480480c1403e32285a8,2024-02-22_07h00.54.464,kallum_motion_pilot,2023.2.2,Win32,59.88023952,60196480480c1403e32285a8,65d6bb0e977760de756971f7,65d6d4d7431f118201ca1cbb,0.0166,0.0166,0,72,72,128,1,fivesix,,,,,,,,,,,,,,,,,,,,,,,,,,,,,,,,,,,,,,,,,,,,,,,,,,,,,,,,,,,,,,,,,,,,,,,,,,,,,,,,,,,,,,,,,,,,,,,,,,,,,,,,,,,,,,,,,,,,,,,,,,,,,,,,,,,,,,,,,
,,60196480480c1403e32285a8,2024-02-22_07h00.54.464,kallum_motion_pilot,2023.2.2,Win32,59.88023952,60196480480c1403e32285a8,65d6bb0e977760de756971f7,65d6d4d7431f118201ca1cbb,0.0166,0.0167,0,73,73,103,1,eightseven,,,,,,,,,,,,,,,,,,,,,,,,,,,,,,,,,,,,,,,,,,,,,,,,,,,,,,,,,,,,,,,,,,,,,,,,,,,,,,,,,,,,,,,,,,,,,,,,,,,,,,,,,,,,,,,,,,,,,,,,,,,,,,,,,,,,,,,,,
,,60196480480c1403e32285a8,2024-02-22_07h00.54.464,kallum_motion_pilot,2023.2.2,Win32,59.88023952,60196480480c1403e32285a8,65d6bb0e977760de756971f7,65d6d4d7431f118201ca1cbb,0.0167,0.0167,0,74,74,76,1,threeone,,,,,,,,,,,,,,,,,,,,,,,,,,,,,,,,,,,,,,,,,,,,,,,,,,,,,,,,,,,,,,,,,,,,,,,,,,,,,,,,,,,,,,,,,,,,,,,,,,,,,,,,,,,,,,,,,,,,,,,,,,,,,,,,,,,,,,,,,
,,60196480480c1403e32285a8,2024-02-22_07h00.54.464,kallum_motion_pilot,2023.2.2,Win32,59.88023952,60196480480c1403e32285a8,65d6bb0e977760de756971f7,65d6d4d7431f118201ca1cbb,0.0167,0.0167,0,75,75,46,1,fourtwo,,,,,,,,,,,,,,,,,,,,,,,,,,,,,,,,,,,,,,,,,,,,,,,,,,,,,,,,,,,,,,,,,,,,,,,,,,,,,,,,,,,,,,,,,,,,,,,,,,,,,,,,,,,,,,,,,,,,,,,,,,,,,,,,,,,,,,,,,
,,60196480480c1403e32285a8,2024-02-22_07h00.54.464,kallum_motion_pilot,2023.2.2,Win32,59.88023952,60196480480c1403e32285a8,65d6bb0e977760de756971f7,65d6d4d7431f118201ca1cbb,0.0167,0.0167,0,76,76,26,1,twoone,,,,,,,,,,,,,,,,,,,,,,,,,,,,,,,,,,,,,,,,,,,,,,,,,,,,,,,,,,,,,,,,,,,,,,,,,,,,,,,,,,,,,,,,,,,,,,,,,,,,,,,,,,,,,,,,,,,,,,,,,,,,,,,,,,,,,,,,,
,,60196480480c1403e32285a8,2024-02-22_07h00.54.464,kallum_motion_pilot,2023.2.2,Win32,59.88023952,60196480480c1403e32285a8,65d6bb0e977760de756971f7,65d6d4d7431f118201ca1cbb,0.0168,0.0168,0,77,77,63,1,fourthree,,,,,,,,,,,,,,,,,,,,,,,,,,,,,,,,,,,,,,,,,,,,,,,,,,,,,,,,,,,,,,,,,,,,,,,,,,,,,,,,,,,,,,,,,,,,,,,,,,,,,,,,,,,,,,,,,,,,,,,,,,,,,,,,,,,,,,,,,
,,60196480480c1403e32285a8,2024-02-22_07h00.54.464,kallum_motion_pilot,2023.2.2,Win32,59.88023952,60196480480c1403e32285a8,65d6bb0e977760de756971f7,65d6d4d7431f118201ca1cbb,0.0169,0.0169,0,78,78,104,1,fivesix,,,,,,,,,,,,,,,,,,,,,,,,,,,,,,,,,,,,,,,,,,,,,,,,,,,,,,,,,,,,,,,,,,,,,,,,,,,,,,,,,,,,,,,,,,,,,,,,,,,,,,,,,,,,,,,,,,,,,,,,,,,,,,,,,,,,,,,,,
,,60196480480c1403e32285a8,2024-02-22_07h00.54.464,kallum_motion_pilot,2023.2.2,Win32,59.88023952,60196480480c1403e32285a8,65d6bb0e977760de756971f7,65d6d4d7431f118201ca1cbb,0.0169,0.0169,0,79,79,8,1,onetwo,,,,,,,,,,,,,,,,,,,,,,,,,,,,,,,,,,,,,,,,,,,,,,,,,,,,,,,,,,,,,,,,,,,,,,,,,,,,,,,,,,,,,,,,,,,,,,,,,,,,,,,,,,,,,,,,,,,,,,,,,,,,,,,,,,,,,,,,,
,,60196480480c1403e32285a8,2024-02-22_07h00.54.464,kallum_motion_pilot,2023.2.2,Win32,59.88023952,60196480480c1403e32285a8,65d6bb0e977760de756971f7,65d6d4d7431f118201ca1cbb,0.0169,0.017,0,80,80,137,1,fiveseven,,,,,,,,,,,,,,,,,,,,,,,,,,,,,,,,,,,,,,,,,,,,,,,,,,,,,,,,,,,,,,,,,,,,,,,,,,,,,,,,,,,,,,,,,,,,,,,,,,,,,,,,,,,,,,,,,,,,,,,,,,,,,,,,,,,,,,,,,
,,60196480480c1403e32285a8,2024-02-22_07h00.54.464,kallum_motion_pilot,2023.2.2,Win32,59.88023952,60196480480c1403e32285a8,65d6bb0e977760de756971f7,65d6d4d7431f118201ca1cbb,0.017,0.017,0,81,81,141,1,seveneight,,,,,,,,,,,,,,,,,,,,,,,,,,,,,,,,,,,,,,,,,,,,,,,,,,,,,,,,,,,,,,,,,,,,,,,,,,,,,,,,,,,,,,,,,,,,,,,,,,,,,,,,,,,,,,,,,,,,,,,,,,,,,,,,,,,,,,,,,
,,60196480480c1403e32285a8,2024-02-22_07h00.54.464,kallum_motion_pilot,2023.2.2,Win32,59.88023952,60196480480c1403e32285a8,65d6bb0e977760de756971f7,65d6d4d7431f118201ca1cbb,0.0171,0.0171,0,82,82,101,1,seveneight,,,,,,,,,,,,,,,,,,,,,,,,,,,,,,,,,,,,,,,,,,,,,,,,,,,,,,,,,,,,,,,,,,,,,,,,,,,,,,,,,,,,,,,,,,,,,,,,,,,,,,,,,,,,,,,,,,,,,,,,,,,,,,,,,,,,,,,,,
,,60196480480c1403e32285a8,2024-02-22_07h00.54.464,kallum_motion_pilot,2023.2.2,Win32,59.88023952,60196480480c1403e32285a8,65d6bb0e977760de756971f7,65d6d4d7431f118201ca1cbb,0.0171,0.0171,0,83,83,151,1,eightseven,,,,,,,,,,,,,,,,,,,,,,,,,,,,,,,,,,,,,,,,,,,,,,,,,,,,,,,,,,,,,,,,,,,,,,,,,,,,,,,,,,,,,,,,,,,,,,,,,,,,,,,,,,,,,,,,,,,,,,,,,,,,,,,,,,,,,,,,,
,,60196480480c1403e32285a8,2024-02-22_07h00.54.464,kallum_motion_pilot,2023.2.2,Win32,59.88023952,60196480480c1403e32285a8,65d6bb0e977760de756971f7,65d6d4d7431f118201ca1cbb,0.0171,0.0172,0,84,84,133,1,seveneight,,,,,,,,,,,,,,,,,,,,,,,,,,,,,,,,,,,,,,,,,,,,,,,,,,,,,,,,,,,,,,,,,,,,,,,,,,,,,,,,,,,,,,,,,,,,,,,,,,,,,,,,,,,,,,,,,,,,,,,,,,,,,,,,,,,,,,,,,
,,60196480480c1403e32285a8,2024-02-22_07h00.54.464,kallum_motion_pilot,2023.2.2,Win32,59.88023952,60196480480c1403e32285a8,65d6bb0e977760de756971f7,65d6d4d7431f118201ca1cbb,0.0172,0.0172,0,85,85,28,1,threeone,,,,,,,,,,,,,,,,,,,,,,,,,,,,,,,,,,,,,,,,,,,,,,,,,,,,,,,,,,,,,,,,,,,,,,,,,,,,,,,,,,,,,,,,,,,,,,,,,,,,,,,,,,,,,,,,,,,,,,,,,,,,,,,,,,,,,,,,,
,,60196480480c1403e32285a8,2024-02-22_07h00.54.464,kallum_motion_pilot,2023.2.2,Win32,59.88023952,60196480480c1403e32285a8,65d6bb0e977760de756971f7,65d6d4d7431f118201ca1cbb,0.0172,0.0173,0,86,86,6,1,fourtwo,,,,,,,,,,,,,,,,,,,,,,,,,,,,,,,,,,,,,,,,,,,,,,,,,,,,,,,,,,,,,,,,,,,,,,,,,,,,,,,,,,,,,,,,,,,,,,,,,,,,,,,,,,,,,,,,,,,,,,,,,,,,,,,,,,,,,,,,,
,,60196480480c1403e32285a8,2024-02-22_07h00.54.464,kallum_motion_pilot,2023.2.2,Win32,59.88023952,60196480480c1403e32285a8,65d6bb0e977760de756971f7,65d6d4d7431f118201ca1cbb,0.0173,0.0174,0,87,87,155,1,sixeight,,,,,,,,,,,,,,,,,,,,,,,,,,,,,,,,,,,,,,,,,,,,,,,,,,,,,,,,,,,,,,,,,,,,,,,,,,,,,,,,,,,,,,,,,,,,,,,,,,,,,,,,,,,,,,,,,,,,,,,,,,,,,,,,,,,,,,,,,
,,60196480480c1403e32285a8,2024-02-22_07h00.54.464,kallum_motion_pilot,2023.2.2,Win32,59.88023952,60196480480c1403e32285a8,65d6bb0e977760de756971f7,65d6d4d7431f118201ca1cbb,0.0174,0.0174,0,88,88,19,1,twofour,,,,,,,,,,,,,,,,,,,,,,,,,,,,,,,,,,,,,,,,,,,,,,,,,,,,,,,,,,,,,,,,,,,,,,,,,,,,,,,,,,,,,,,,,,,,,,,,,,,,,,,,,,,,,,,,,,,,,,,,,,,,,,,,,,,,,,,,,
,,60196480480c1403e32285a8,2024-02-22_07h00.54.464,kallum_motion_pilot,2023.2.2,Win32,59.88023952,60196480480c1403e32285a8,65d6bb0e977760de756971f7,65d6d4d7431f118201ca1cbb,0.0174,0.0175,0,89,89,21,1,threefour,,,,,,,,,,,,,,,,,,,,,,,,,,,,,,,,,,,,,,,,,,,,,,,,,,,,,,,,,,,,,,,,,,,,,,,,,,,,,,,,,,,,,,,,,,,,,,,,,,,,,,,,,,,,,,,,,,,,,,,,,,,,,,,,,,,,,,,,,
,,60196480480c1403e32285a8,2024-02-22_07h00.54.464,kallum_motion_pilot,2023.2.2,Win32,59.88023952,60196480480c1403e32285a8,65d6bb0e977760de756971f7,65d6d4d7431f118201ca1cbb,0.0175,0.0175,0,90,90,20,1,threeone,,,,,,,,,,,,,,,,,,,,,,,,,,,,,,,,,,,,,,,,,,,,,,,,,,,,,,,,,,,,,,,,,,,,,,,,,,,,,,,,,,,,,,,,,,,,,,,,,,,,,,,,,,,,,,,,,,,,,,,,,,,,,,,,,,,,,,,,,
,,60196480480c1403e32285a8,2024-02-22_07h00.54.464,kallum_motion_pilot,2023.2.2,Win32,59.88023952,60196480480c1403e32285a8,65d6bb0e977760de756971f7,65d6d4d7431f118201ca1cbb,0.0175,0.0175,0,91,91,40,1,onetwo,,,,,,,,,,,,,,,,,,,,,,,,,,,,,,,,,,,,,,,,,,,,,,,,,,,,,,,,,,,,,,,,,,,,,,,,,,,,,,,,,,,,,,,,,,,,,,,,,,,,,,,,,,,,,,,,,,,,,,,,,,,,,,,,,,,,,,,,,
,,60196480480c1403e32285a8,2024-02-22_07h00.54.464,kallum_motion_pilot,2023.2.2,Win32,59.88023952,60196480480c1403e32285a8,65d6bb0e977760de756971f7,65d6d4d7431f118201ca1cbb,0.0176,0.0176,0,92,92,127,1,eightseven,,,,,,,,,,,,,,,,,,,,,,,,,,,,,,,,,,,,,,,,,,,,,,,,,,,,,,,,,,,,,,,,,,,,,,,,,,,,,,,,,,,,,,,,,,,,,,,,,,,,,,,,,,,,,,,,,,,,,,,,,,,,,,,,,,,,,,,,,
,,60196480480c1403e32285a8,2024-02-22_07h00.54.464,kallum_motion_pilot,2023.2.2,Win32,59.88023952,60196480480c1403e32285a8,65d6bb0e977760de756971f7,65d6d4d7431f118201ca1cbb,0.0177,0.0177,0,93,93,102,1,eightsix,,,,,,,,,,,,,,,,,,,,,,,,,,,,,,,,,,,,,,,,,,,,,,,,,,,,,,,,,,,,,,,,,,,,,,,,,,,,,,,,,,,,,,,,,,,,,,,,,,,,,,,,,,,,,,,,,,,,,,,,,,,,,,,,,,,,,,,,,
,,60196480480c1403e32285a8,2024-02-22_07h00.54.464,kallum_motion_pilot,2023.2.2,Win32,59.88023952,60196480480c1403e32285a8,65d6bb0e977760de756971f7,65d6d4d7431f118201ca1cbb,0.0178,0.0178,0,94,94,106,1,sixfive,,,,,,,,,,,,,,,,,,,,,,,,,,,,,,,,,,,,,,,,,,,,,,,,,,,,,,,,,,,,,,,,,,,,,,,,,,,,,,,,,,,,,,,,,,,,,,,,,,,,,,,,,,,,,,,,,,,,,,,,,,,,,,,,,,,,,,,,,
,,60196480480c1403e32285a8,2024-02-22_07h00.54.464,kallum_motion_pilot,2023.2.2,Win32,59.88023952,60196480480c1403e32285a8,65d6bb0e977760de756971f7,65d6d4d7431f118201ca1cbb,0.0178,0.0178,0,95,95,116,1,sevenfive,,,,,,,,,,,,,,,,,,,,,,,,,,,,,,,,,,,,,,,,,,,,,,,,,,,,,,,,,,,,,,,,,,,,,,,,,,,,,,,,,,,,,,,,,,,,,,,,,,,,,,,,,,,,,,,,,,,,,,,,,,,,,,,,,,,,,,,,,
,,60196480480c1403e32285a8,2024-02-22_07h00.54.464,kallum_motion_pilot,2023.2.2,Win32,59.88023952,60196480480c1403e32285a8,65d6bb0e977760de756971f7,65d6d4d7431f118201ca1cbb,0.0178,0.0178,0,96,96,152,1,fivesix,,,,,,,,,,,,,,,,,,,,,,,,,,,,,,,,,,,,,,,,,,,,,,,,,,,,,,,,,,,,,,,,,,,,,,,,,,,,,,,,,,,,,,,,,,,,,,,,,,,,,,,,,,,,,,,,,,,,,,,,,,,,,,,,,,,,,,,,,
,,60196480480c1403e32285a8,2024-02-22_07h00.54.464,kallum_motion_pilot,2023.2.2,Win32,59.88023952,60196480480c1403e32285a8,65d6bb0e977760de756971f7,65d6d4d7431f118201ca1cbb,0.0179,0.0179,0,97,97,43,1,twofour,,,,,,,,,,,,,,,,,,,,,,,,,,,,,,,,,,,,,,,,,,,,,,,,,,,,,,,,,,,,,,,,,,,,,,,,,,,,,,,,,,,,,,,,,,,,,,,,,,,,,,,,,,,,,,,,,,,,,,,,,,,,,,,,,,,,,,,,,
,,60196480480c1403e32285a8,2024-02-22_07h00.54.464,kallum_motion_pilot,2023.2.2,Win32,59.88023952,60196480480c1403e32285a8,65d6bb0e977760de756971f7,65d6d4d7431f118201ca1cbb,0.0179,0.0179,0,98,98,61,1,threefour,,,,,,,,,,,,,,,,,,,,,,,,,,,,,,,,,,,,,,,,,,,,,,,,,,,,,,,,,,,,,,,,,,,,,,,,,,,,,,,,,,,,,,,,,,,,,,,,,,,,,,,,,,,,,,,,,,,,,,,,,,,,,,,,,,,,,,,,,
,,60196480480c1403e32285a8,2024-02-22_07h00.54.464,kallum_motion_pilot,2023.2.2,Win32,59.88023952,60196480480c1403e32285a8,65d6bb0e977760de756971f7,65d6d4d7431f118201ca1cbb,0.0179,0.018,0,99,99,13,1,threefour,,,,,,,,,,,,,,,,,,,,,,,,,,,,,,,,,,,,,,,,,,,,,,,,,,,,,,,,,,,,,,,,,,,,,,,,,,,,,,,,,,,,,,,,,,,,,,,,,,,,,,,,,,,,,,,,,,,,,,,,,,,,,,,,,,,,,,,,,
,,60196480480c1403e32285a8,2024-02-22_07h00.54.464,kallum_motion_pilot,2023.2.2,Win32,59.88023952,60196480480c1403e32285a8,65d6bb0e977760de756971f7,65d6d4d7431f118201ca1cbb,0.018,0.0181,0,100,100,27,1,twofour,,,,,,,,,,,,,,,,,,,,,,,,,,,,,,,,,,,,,,,,,,,,,,,,,,,,,,,,,,,,,,,,,,,,,,,,,,,,,,,,,,,,,,,,,,,,,,,,,,,,,,,,,,,,,,,,,,,,,,,,,,,,,,,,,,,,,,,,,
,,60196480480c1403e32285a8,2024-02-22_07h00.54.464,kallum_motion_pilot,2023.2.2,Win32,59.88023952,60196480480c1403e32285a8,65d6bb0e977760de756971f7,65d6d4d7431f118201ca1cbb,0.0181,0.0181,0,101,101,125,1,seveneight,,,,,,,,,,,,,,,,,,,,,,,,,,,,,,,,,,,,,,,,,,,,,,,,,,,,,,,,,,,,,,,,,,,,,,,,,,,,,,,,,,,,,,,,,,,,,,,,,,,,,,,,,,,,,,,,,,,,,,,,,,,,,,,,,,,,,,,,,
,,60196480480c1403e32285a8,2024-02-22_07h00.54.464,kallum_motion_pilot,2023.2.2,Win32,59.88023952,60196480480c1403e32285a8,65d6bb0e977760de756971f7,65d6d4d7431f118201ca1cbb,0.0181,0.0182,0,102,102,159,1,eightseven,,,,,,,,,,,,,,,,,,,,,,,,,,,,,,,,,,,,,,,,,,,,,,,,,,,,,,,,,,,,,,,,,,,,,,,,,,,,,,,,,,,,,,,,,,,,,,,,,,,,,,,,,,,,,,,,,,,,,,,,,,,,,,,,,,,,,,,,,
,,60196480480c1403e32285a8,2024-02-22_07h00.54.464,kallum_motion_pilot,2023.2.2,Win32,59.88023952,60196480480c1403e32285a8,65d6bb0e977760de756971f7,65d6d4d7431f118201ca1cbb,0.0182,0.0182,0,103,103,54,1,fourtwo,,,,,,,,,,,,,,,,,,,,,,,,,,,,,,,,,,,,,,,,,,,,,,,,,,,,,,,,,,,,,,,,,,,,,,,,,,,,,,,,,,,,,,,,,,,,,,,,,,,,,,,,,,,,,,,,,,,,,,,,,,,,,,,,,,,,,,,,,
,,60196480480c1403e32285a8,2024-02-22_07h00.54.464,kallum_motion_pilot,2023.2.2,Win32,59.88023952,60196480480c1403e32285a8,65d6bb0e977760de756971f7,65d6d4d7431f118201ca1cbb,0.0183,0.0183,0,104,104,50,1,twoone,,,,,,,,,,,,,,,,,,,,,,,,,,,,,,,,,,,,,,,,,,,,,,,,,,,,,,,,,,,,,,,,,,,,,,,,,,,,,,,,,,,,,,,,,,,,,,,,,,,,,,,,,,,,,,,,,,,,,,,,,,,,,,,,,,,,,,,,,
,,60196480480c1403e32285a8,2024-02-22_07h00.54.464,kallum_motion_pilot,2023.2.2,Win32,59.88023952,60196480480c1403e32285a8,65d6bb0e977760de756971f7,65d6d4d7431f118201ca1cbb,0.0184,0.0184,0,105,105,45,1,threefour,,,,,,,,,,,,,,,,,,,,,,,,,,,,,,,,,,,,,,,,,,,,,,,,,,,,,,,,,,,,,,,,,,,,,,,,,,,,,,,,,,,,,,,,,,,,,,,,,,,,,,,,,,,,,,,,,,,,,,,,,,,,,,,,,,,,,,,,,
,,60196480480c1403e32285a8,2024-02-22_07h00.54.464,kallum_motion_pilot,2023.2.2,Win32,59.88023952,60196480480c1403e32285a8,65d6bb0e977760de756971f7,65d6d4d7431f118201ca1cbb,0.0184,0.0184,0,106,106,138,1,sixfive,,,,,,,,,,,,,,,,,,,,,,,,,,,,,,,,,,,,,,,,,,,,,,,,,,,,,,,,,,,,,,,,,,,,,,,,,,,,,,,,,,,,,,,,,,,,,,,,,,,,,,,,,,,,,,,,,,,,,,,,,,,,,,,,,,,,,,,,,
,,60196480480c1403e32285a8,2024-02-22_07h00.54.464,kallum_motion_pilot,2023.2.2,Win32,59.88023952,60196480480c1403e32285a8,65d6bb0e977760de756971f7,65d6d4d7431f118201ca1cbb,0.0184,0.0185,0,107,107,25,1,onethree,,,,,,,,,,,,,,,,,,,,,,,,,,,,,,,,,,,,,,,,,,,,,,,,,,,,,,,,,,,,,,,,,,,,,,,,,,,,,,,,,,,,,,,,,,,,,,,,,,,,,,,,,,,,,,,,,,,,,,,,,,,,,,,,,,,,,,,,,
,,60196480480c1403e32285a8,2024-02-22_07h00.54.464,kallum_motion_pilot,2023.2.2,Win32,59.88023952,60196480480c1403e32285a8,65d6bb0e977760de756971f7,65d6d4d7431f118201ca1cbb,0.0185,0.0185,0,108,108,130,1,sixfive,,,,,,,,,,,,,,,,,,,,,,,,,,,,,,,,,,,,,,,,,,,,,,,,,,,,,,,,,,,,,,,,,,,,,,,,,,,,,,,,,,,,,,,,,,,,,,,,,,,,,,,,,,,,,,,,,,,,,,,,,,,,,,,,,,,,,,,,,
,,60196480480c1403e32285a8,2024-02-22_07h00.54.464,kallum_motion_pilot,2023.2.2,Win32,59.88023952,60196480480c1403e32285a8,65d6bb0e977760de756971f7,65d6d4d7431f118201ca1cbb,0.0186,0.0186,0,109,109,89,1,fiveseven,,,,,,,,,,,,,,,,,,,,,,,,,,,,,,,,,,,,,,,,,,,,,,,,,,,,,,,,,,,,,,,,,,,,,,,,,,,,,,,,,,,,,,,,,,,,,,,,,,,,,,,,,,,,,,,,,,,,,,,,,,,,,,,,,,,,,,,,,
,,60196480480c1403e32285a8,2024-02-22_07h00.54.464,kallum_motion_pilot,2023.2.2,Win32,59.88023952,60196480480c1403e32285a8,65d6bb0e977760de756971f7,65d6d4d7431f118201ca1cbb,0.0186,0.0186,0,110,110,121,1,fiveseven,,,,,,,,,,,,,,,,,,,,,,,,,,,,,,,,,,,,,,,,,,,,,,,,,,,,,,,,,,,,,,,,,,,,,,,,,,,,,,,,,,,,,,,,,,,,,,,,,,,,,,,,,,,,,,,,,,,,,,,,,,,,,,,,,,,,,,,,,
,,60196480480c1403e32285a8,2024-02-22_07h00.54.464,kallum_motion_pilot,2023.2.2,Win32,59.88023952,60196480480c1403e32285a8,65d6bb0e977760de756971f7,65d6d4d7431f118201ca1cbb,0.0187,0.0187,0,111,111,149,1,seveneight,,,,,,,,,,,,,,,,,,,,,,,,,,,,,,,,,,,,,,,,,,,,,,,,,,,,,,,,,,,,,,,,,,,,,,,,,,,,,,,,,,,,,,,,,,,,,,,,,,,,,,,,,,,,,,,,,,,,,,,,,,,,,,,,,,,,,,,,,
,,60196480480c1403e32285a8,2024-02-22_07h00.54.464,kallum_motion_pilot,2023.2.2,Win32,59.88023952,60196480480c1403e32285a8,65d6bb0e977760de756971f7,65d6d4d7431f118201ca1cbb,0.0187,0.0187,0,112,112,99,1,sixeight,,,,,,,,,,,,,,,,,,,,,,,,,,,,,,,,,,,,,,,,,,,,,,,,,,,,,,,,,,,,,,,,,,,,,,,,,,,,,,,,,,,,,,,,,,,,,,,,,,,,,,,,,,,,,,,,,,,,,,,,,,,,,,,,,,,,,,,,,
,,60196480480c1403e32285a8,2024-02-22_07h00.54.464,kallum_motion_pilot,2023.2.2,Win32,59.88023952,60196480480c1403e32285a8,65d6bb0e977760de756971f7,65d6d4d7431f118201ca1cbb,0.0188,0.0188,0,113,113,84,1,sevenfive,,,,,,,,,,,,,,,,,,,,,,,,,,,,,,,,,,,,,,,,,,,,,,,,,,,,,,,,,,,,,,,,,,,,,,,,,,,,,,,,,,,,,,,,,,,,,,,,,,,,,,,,,,,,,,,,,,,,,,,,,,,,,,,,,,,,,,,,,
,,60196480480c1403e32285a8,2024-02-22_07h00.54.464,kallum_motion_pilot,2023.2.2,Win32,59.88023952,60196480480c1403e32285a8,65d6bb0e977760de756971f7,65d6d4d7431f118201ca1cbb,0.0189,0.0189,0,114,114,96,1,fivesix,,,,,,,,,,,,,,,,,,,,,,,,,,,,,,,,,,,,,,,,,,,,,,,,,,,,,,,,,,,,,,,,,,,,,,,,,,,,,,,,,,,,,,,,,,,,,,,,,,,,,,,,,,,,,,,,,,,,,,,,,,,,,,,,,,,,,,,,,
,,60196480480c1403e32285a8,2024-02-22_07h00.54.464,kallum_motion_pilot,2023.2.2,Win32,59.88023952,60196480480c1403e32285a8,65d6bb0e977760de756971f7,65d6d4d7431f118201ca1cbb,0.0189,0.0189,0,115,115,55,1,fourthree,,,,,,,,,,,,,,,,,,,,,,,,,,,,,,,,,,,,,,,,,,,,,,,,,,,,,,,,,,,,,,,,,,,,,,,,,,,,,,,,,,,,,,,,,,,,,,,,,,,,,,,,,,,,,,,,,,,,,,,,,,,,,,,,,,,,,,,,,
,,60196480480c1403e32285a8,2024-02-22_07h00.54.464,kallum_motion_pilot,2023.2.2,Win32,59.88023952,60196480480c1403e32285a8,65d6bb0e977760de756971f7,65d6d4d7431f118201ca1cbb,0.0189,0.019,0,116,116,147,1,sixeight,,,,,,,,,,,,,,,,,,,,,,,,,,,,,,,,,,,,,,,,,,,,,,,,,,,,,,,,,,,,,,,,,,,,,,,,,,,,,,,,,,,,,,,,,,,,,,,,,,,,,,,,,,,,,,,,,,,,,,,,,,,,,,,,,,,,,,,,,
,,60196480480c1403e32285a8,2024-02-22_07h00.54.464,kallum_motion_pilot,2023.2.2,Win32,59.88023952,60196480480c1403e32285a8,65d6bb0e977760de756971f7,65d6d4d7431f118201ca1cbb,0.019,0.019,0,117,117,123,1,sixeight,,,,,,,,,,,,,,,,,,,,,,,,,,,,,,,,,,,,,,,,,,,,,,,,,,,,,,,,,,,,,,,,,,,,,,,,,,,,,,,,,,,,,,,,,,,,,,,,,,,,,,,,,,,,,,,,,,,,,,,,,,,,,,,,,,,,,,,,,
,,60196480480c1403e32285a8,2024-02-22_07h00.54.464,kallum_motion_pilot,2023.2.2,Win32,59.88023952,60196480480c1403e32285a8,65d6bb0e977760de756971f7,65d6d4d7431f118201ca1cbb,0.0191,0.0191,0,118,118,1,1,onethree,,,,,,,,,,,,,,,,,,,,,,,,,,,,,,,,,,,,,,,,,,,,,,,,,,,,,,,,,,,,,,,,,,,,,,,,,,,,,,,,,,,,,,,,,,,,,,,,,,,,,,,,,,,,,,,,,,,,,,,,,,,,,,,,,,,,,,,,,
,,60196480480c1403e32285a8,2024-02-22_07h00.54.464,kallum_motion_pilot,2023.2.2,Win32,59.88023952,60196480480c1403e32285a8,65d6bb0e977760de756971f7,65d6d4d7431f118201ca1cbb,0.0192,0.0192,0,119,119,31,1,fourthree,,,,,,,,,,,,,,,,,,,,,,,,,,,,,,,,,,,,,,,,,,,,,,,,,,,,,,,,,,,,,,,,,,,,,,,,,,,,,,,,,,,,,,,,,,,,,,,,,,,,,,,,,,,,,,,,,,,,,,,,,,,,,,,,,,,,,,,,,
,,60196480480c1403e32285a8,2024-02-22_07h00.54.464,kallum_motion_pilot,2023.2.2,Win32,59.88023952,60196480480c1403e32285a8,65d6bb0e977760de756971f7,65d6d4d7431f118201ca1cbb,0.0192,0.0192,0,120,120,52,1,threeone,,,,,,,,,,,,,,,,,,,,,,,,,,,,,,,,,,,,,,,,,,,,,,,,,,,,,,,,,,,,,,,,,,,,,,,,,,,,,,,,,,,,,,,,,,,,,,,,,,,,,,,,,,,,,,,,,,,,,,,,,,,,,,,,,,,,,,,,,
,,60196480480c1403e32285a8,2024-02-22_07h00.54.464,kallum_motion_pilot,2023.2.2,Win32,59.88023952,60196480480c1403e32285a8,65d6bb0e977760de756971f7,65d6d4d7431f118201ca1cbb,0.0192,0.0193,0,121,121,29,1,threefour,,,,,,,,,,,,,,,,,,,,,,,,,,,,,,,,,,,,,,,,,,,,,,,,,,,,,,,,,,,,,,,,,,,,,,,,,,,,,,,,,,,,,,,,,,,,,,,,,,,,,,,,,,,,,,,,,,,,,,,,,,,,,,,,,,,,,,,,,
,,60196480480c1403e32285a8,2024-02-22_07h00.54.464,kallum_motion_pilot,2023.2.2,Win32,59.88023952,60196480480c1403e32285a8,65d6bb0e977760de756971f7,65d6d4d7431f118201ca1cbb,0.0193,0.0194,0,122,122,58,1,twoone,,,,,,,,,,,,,,,,,,,,,,,,,,,,,,,,,,,,,,,,,,,,,,,,,,,,,,,,,,,,,,,,,,,,,,,,,,,,,,,,,,,,,,,,,,,,,,,,,,,,,,,,,,,,,,,,,,,,,,,,,,,,,,,,,,,,,,,,,
,,60196480480c1403e32285a8,2024-02-22_07h00.54.464,kallum_motion_pilot,2023.2.2,Win32,59.88023952,60196480480c1403e32285a8,65d6bb0e977760de756971f7,65d6d4d7431f118201ca1cbb,0.0194,0.0194,0,123,123,150,1,eightsix,,,,,,,,,,,,,,,,,,,,,,,,,,,,,,,,,,,,,,,,,,,,,,,,,,,,,,,,,,,,,,,,,,,,,,,,,,,,,,,,,,,,,,,,,,,,,,,,,,,,,,,,,,,,,,,,,,,,,,,,,,,,,,,,,,,,,,,,,
,,60196480480c1403e32285a8,2024-02-22_07h00.54.464,kallum_motion_pilot,2023.2.2,Win32,59.88023952,60196480480c1403e32285a8,65d6bb0e977760de756971f7,65d6d4d7431f118201ca1cbb,0.0195,0.0195,0,124,124,131,1,sixeight,,,,,,,,,,,,,,,,,,,,,,,,,,,,,,,,,,,,,,,,,,,,,,,,,,,,,,,,,,,,,,,,,,,,,,,,,,,,,,,,,,,,,,,,,,,,,,,,,,,,,,,,,,,,,,,,,,,,,,,,,,,,,,,,,,,,,,,,,
,,60196480480c1403e32285a8,2024-02-22_07h00.54.464,kallum_motion_pilot,2023.2.2,Win32,59.88023952,60196480480c1403e32285a8,65d6bb0e977760de756971f7,65d6d4d7431f118201ca1cbb,0.0195,0.0195,0,125,125,75,1,twofour,,,,,,,,,,,,,,,,,,,,,,,,,,,,,,,,,,,,,,,,,,,,,,,,,,,,,,,,,,,,,,,,,,,,,,,,,,,,,,,,,,,,,,,,,,,,,,,,,,,,,,,,,,,,,,,,,,,,,,,,,,,,,,,,,,,,,,,,,
,,60196480480c1403e32285a8,2024-02-22_07h00.54.464,kallum_motion_pilot,2023.2.2,Win32,59.88023952,60196480480c1403e32285a8,65d6bb0e977760de756971f7,65d6d4d7431f118201ca1cbb,0.0196,0.0196,0,126,126,113,1,fiveseven,,,,,,,,,,,,,,,,,,,,,,,,,,,,,,,,,,,,,,,,,,,,,,,,,,,,,,,,,,,,,,,,,,,,,,,,,,,,,,,,,,,,,,,,,,,,,,,,,,,,,,,,,,,,,,,,,,,,,,,,,,,,,,,,,,,,,,,,,
,,60196480480c1403e32285a8,2024-02-22_07h00.54.464,kallum_motion_pilot,2023.2.2,Win32,59.88023952,60196480480c1403e32285a8,65d6bb0e977760de756971f7,65d6d4d7431f118201ca1cbb,0.0196,0.0196,0,127,127,51,1,twofour,,,,,,,,,,,,,,,,,,,,,,,,,,,,,,,,,,,,,,,,,,,,,,,,,,,,,,,,,,,,,,,,,,,,,,,,,,,,,,,,,,,,,,,,,,,,,,,,,,,,,,,,,,,,,,,,,,,,,,,,,,,,,,,,,,,,,,,,,
,,60196480480c1403e32285a8,2024-02-22_07h00.54.464,kallum_motion_pilot,2023.2.2,Win32,59.88023952,60196480480c1403e32285a8,65d6bb0e977760de756971f7,65d6d4d7431f118201ca1cbb,0.0197,0.0197,0,128,128,95,1,eightseven,,,,,,,,,,,,,,,,,,,,,,,,,,,,,,,,,,,,,,,,,,,,,,,,,,,,,,,,,,,,,,,,,,,,,,,,,,,,,,,,,,,,,,,,,,,,,,,,,,,,,,,,,,,,,,,,,,,,,,,,,,,,,,,,,,,,,,,,,
,,60196480480c1403e32285a8,2024-02-22_07h00.54.464,kallum_motion_pilot,2023.2.2,Win32,59.88023952,60196480480c1403e32285a8,65d6bb0e977760de756971f7,65d6d4d7431f118201ca1cbb,0.0198,0.0198,0,129,129,41,1,onethree,,,,,,,,,,,,,,,,,,,,,,,,,,,,,,,,,,,,,,,,,,,,,,,,,,,,,,,,,,,,,,,,,,,,,,,,,,,,,,,,,,,,,,,,,,,,,,,,,,,,,,,,,,,,,,,,,,,,,,,,,,,,,,,,,,,,,,,,,
,,60196480480c1403e32285a8,2024-02-22_07h00.54.464,kallum_motion_pilot,2023.2.2,Win32,59.88023952,60196480480c1403e32285a8,65d6bb0e977760de756971f7,65d6d4d7431f118201ca1cbb,0.0198,0.0198,0,130,130,18,1,twoone,,,,,,,,,,,,,,,,,,,,,,,,,,,,,,,,,,,,,,,,,,,,,,,,,,,,,,,,,,,,,,,,,,,,,,,,,,,,,,,,,,,,,,,,,,,,,,,,,,,,,,,,,,,,,,,,,,,,,,,,,,,,,,,,,,,,,,,,,
,,60196480480c1403e32285a8,2024-02-22_07h00.54.464,kallum_motion_pilot,2023.2.2,Win32,59.88023952,60196480480c1403e32285a8,65d6bb0e977760de756971f7,65d6d4d7431f118201ca1cbb,0.0199,0.0199,0,131,131,112,1,fivesix,,,,,,,,,,,,,,,,,,,,,,,,,,,,,,,,,,,,,,,,,,,,,,,,,,,,,,,,,,,,,,,,,,,,,,,,,,,,,,,,,,,,,,,,,,,,,,,,,,,,,,,,,,,,,,,,,,,,,,,,,,,,,,,,,,,,,,,,,
,,60196480480c1403e32285a8,2024-02-22_07h00.54.464,kallum_motion_pilot,2023.2.2,Win32,59.88023952,60196480480c1403e32285a8,65d6bb0e977760de756971f7,65d6d4d7431f118201ca1cbb,0.02,0.02,0,132,132,7,1,fourthree,,,,,,,,,,,,,,,,,,,,,,,,,,,,,,,,,,,,,,,,,,,,,,,,,,,,,,,,,,,,,,,,,,,,,,,,,,,,,,,,,,,,,,,,,,,,,,,,,,,,,,,,,,,,,,,,,,,,,,,,,,,,,,,,,,,,,,,,,
,,60196480480c1403e32285a8,2024-02-22_07h00.54.464,kallum_motion_pilot,2023.2.2,Win32,59.88023952,60196480480c1403e32285a8,65d6bb0e977760de756971f7,65d6d4d7431f118201ca1cbb,0.02,0.02,0,133,133,126,1,eightsix,,,,,,,,,,,,,,,,,,,,,,,,,,,,,,,,,,,,,,,,,,,,,,,,,,,,,,,,,,,,,,,,,,,,,,,,,,,,,,,,,,,,,,,,,,,,,,,,,,,,,,,,,,,,,,,,,,,,,,,,,,,,,,,,,,,,,,,,,
,,60196480480c1403e32285a8,2024-02-22_07h00.54.464,kallum_motion_pilot,2023.2.2,Win32,59.88023952,60196480480c1403e32285a8,65d6bb0e977760de756971f7,65d6d4d7431f118201ca1cbb,0.02,0.0201,0,134,134,143,1,eightseven,,,,,,,,,,,,,,,,,,,,,,,,,,,,,,,,,,,,,,,,,,,,,,,,,,,,,,,,,,,,,,,,,,,,,,,,,,,,,,,,,,,,,,,,,,,,,,,,,,,,,,,,,,,,,,,,,,,,,,,,,,,,,,,,,,,,,,,,,
,,60196480480c1403e32285a8,2024-02-22_07h00.54.464,kallum_motion_pilot,2023.2.2,Win32,59.88023952,60196480480c1403e32285a8,65d6bb0e977760de756971f7,65d6d4d7431f118201ca1cbb,0.0201,0.0201,0,135,135,10,1,twoone,,,,,,,,,,,,,,,,,,,,,,,,,,,,,,,,,,,,,,,,,,,,,,,,,,,,,,,,,,,,,,,,,,,,,,,,,,,,,,,,,,,,,,,,,,,,,,,,,,,,,,,,,,,,,,,,,,,,,,,,,,,,,,,,,,,,,,,,,
,,60196480480c1403e32285a8,2024-02-22_07h00.54.464,kallum_motion_pilot,2023.2.2,Win32,59.88023952,60196480480c1403e32285a8,65d6bb0e977760de756971f7,65d6d4d7431f118201ca1cbb,0.0202,0.0202,0,136,136,132,1,sevenfive,,,,,,,,,,,,,,,,,,,,,,,,,,,,,,,,,,,,,,,,,,,,,,,,,,,,,,,,,,,,,,,,,,,,,,,,,,,,,,,,,,,,,,,,,,,,,,,,,,,,,,,,,,,,,,,,,,,,,,,,,,,,,,,,,,,,,,,,,
,,60196480480c1403e32285a8,2024-02-22_07h00.54.464,kallum_motion_pilot,2023.2.2,Win32,59.88023952,60196480480c1403e32285a8,65d6bb0e977760de756971f7,65d6d4d7431f118201ca1cbb,0.0202,0.0203,0,137,137,134,1,eightsix,,,,,,,,,,,,,,,,,,,,,,,,,,,,,,,,,,,,,,,,,,,,,,,,,,,,,,,,,,,,,,,,,,,,,,,,,,,,,,,,,,,,,,,,,,,,,,,,,,,,,,,,,,,,,,,,,,,,,,,,,,,,,,,,,,,,,,,,,
,,60196480480c1403e32285a8,2024-02-22_07h00.54.464,kallum_motion_pilot,2023.2.2,Win32,59.88023952,60196480480c1403e32285a8,65d6bb0e977760de756971f7,65d6d4d7431f118201ca1cbb,0.0203,0.0203,0,138,138,136,1,fivesix,,,,,,,,,,,,,,,,,,,,,,,,,,,,,,,,,,,,,,,,,,,,,,,,,,,,,,,,,,,,,,,,,,,,,,,,,,,,,,,,,,,,,,,,,,,,,,,,,,,,,,,,,,,,,,,,,,,,,,,,,,,,,,,,,,,,,,,,,
,,60196480480c1403e32285a8,2024-02-22_07h00.54.464,kallum_motion_pilot,2023.2.2,Win32,59.88023952,60196480480c1403e32285a8,65d6bb0e977760de756971f7,65d6d4d7431f118201ca1cbb,0.0204,0.0205,0,139,139,2,1,twoone,,,,,,,,,,,,,,,,,,,,,,,,,,,,,,,,,,,,,,,,,,,,,,,,,,,,,,,,,,,,,,,,,,,,,,,,,,,,,,,,,,,,,,,,,,,,,,,,,,,,,,,,,,,,,,,,,,,,,,,,,,,,,,,,,,,,,,,,,
,,60196480480c1403e32285a8,2024-02-22_07h00.54.464,kallum_motion_pilot,2023.2.2,Win32,59.88023952,60196480480c1403e32285a8,65d6bb0e977760de756971f7,65d6d4d7431f118201ca1cbb,0.0205,0.0205,0,140,140,12,1,threeone,,,,,,,,,,,,,,,,,,,,,,,,,,,,,,,,,,,,,,,,,,,,,,,,,,,,,,,,,,,,,,,,,,,,,,,,,,,,,,,,,,,,,,,,,,,,,,,,,,,,,,,,,,,,,,,,,,,,,,,,,,,,,,,,,,,,,,,,,
,,60196480480c1403e32285a8,2024-02-22_07h00.54.464,kallum_motion_pilot,2023.2.2,Win32,59.88023952,60196480480c1403e32285a8,65d6bb0e977760de756971f7,65d6d4d7431f118201ca1cbb,0.0206,0.0206,0,141,141,156,1,sevenfive,,,,,,,,,,,,,,,,,,,,,,,,,,,,,,,,,,,,,,,,,,,,,,,,,,,,,,,,,,,,,,,,,,,,,,,,,,,,,,,,,,,,,,,,,,,,,,,,,,,,,,,,,,,,,,,,,,,,,,,,,,,,,,,,,,,,,,,,,
,,60196480480c1403e32285a8,2024-02-22_07h00.54.464,kallum_motion_pilot,2023.2.2,Win32,59.88023952,60196480480c1403e32285a8,65d6bb0e977760de756971f7,65d6d4d7431f118201ca1cbb,0.0206,0.0207,0,142,142,91,1,sixeight,,,,,,,,,,,,,,,,,,,,,,,,,,,,,,,,,,,,,,,,,,,,,,,,,,,,,,,,,,,,,,,,,,,,,,,,,,,,,,,,,,,,,,,,,,,,,,,,,,,,,,,,,,,,,,,,,,,,,,,,,,,,,,,,,,,,,,,,,
,,60196480480c1403e32285a8,2024-02-22_07h00.54.464,kallum_motion_pilot,2023.2.2,Win32,59.88023952,60196480480c1403e32285a8,65d6bb0e977760de756971f7,65d6d4d7431f118201ca1cbb,0.0207,0.0207,0,143,143,69,1,threefour,,,,,,,,,,,,,,,,,,,,,,,,,,,,,,,,,,,,,,,,,,,,,,,,,,,,,,,,,,,,,,,,,,,,,,,,,,,,,,,,,,,,,,,,,,,,,,,,,,,,,,,,,,,,,,,,,,,,,,,,,,,,,,,,,,,,,,,,,
,,60196480480c1403e32285a8,2024-02-22_07h00.54.464,kallum_motion_pilot,2023.2.2,Win32,59.88023952,60196480480c1403e32285a8,65d6bb0e977760de756971f7,65d6d4d7431f118201ca1cbb,0.0208,0.0208,0,144,144,108,1,sevenfive,,,,,,,,,,,,,,,,,,,,,,,,,,,,,,,,,,,,,,,,,,,,,,,,,,,,,,,,,,,,,,,,,,,,,,,,,,,,,,,,,,,,,,,,,,,,,,,,,,,,,,,,,,,,,,,,,,,,,,,,,,,,,,,,,,,,,,,,,
,,60196480480c1403e32285a8,2024-02-22_07h00.54.464,kallum_motion_pilot,2023.2.2,Win32,59.88023952,60196480480c1403e32285a8,65d6bb0e977760de756971f7,65d6d4d7431f118201ca1cbb,0.0208,0.0209,0,145,145,4,1,threeone,,,,,,,,,,,,,,,,,,,,,,,,,,,,,,,,,,,,,,,,,,,,,,,,,,,,,,,,,,,,,,,,,,,,,,,,,,,,,,,,,,,,,,,,,,,,,,,,,,,,,,,,,,,,,,,,,,,,,,,,,,,,,,,,,,,,,,,,,
,,60196480480c1403e32285a8,2024-02-22_07h00.54.464,kallum_motion_pilot,2023.2.2,Win32,59.88023952,60196480480c1403e32285a8,65d6bb0e977760de756971f7,65d6d4d7431f118201ca1cbb,0.021,0.021,0,146,146,81,1,fiveseven,,,,,,,,,,,,,,,,,,,,,,,,,,,,,,,,,,,,,,,,,,,,,,,,,,,,,,,,,,,,,,,,,,,,,,,,,,,,,,,,,,,,,,,,,,,,,,,,,,,,,,,,,,,,,,,,,,,,,,,,,,,,,,,,,,,,,,,,,
,,60196480480c1403e32285a8,2024-02-22_07h00.54.464,kallum_motion_pilot,2023.2.2,Win32,59.88023952,60196480480c1403e32285a8,65d6bb0e977760de756971f7,65d6d4d7431f118201ca1cbb,0.021,0.021,0,147,147,105,1,fiveseven,,,,,,,,,,,,,,,,,,,,,,,,,,,,,,,,,,,,,,,,,,,,,,,,,,,,,,,,,,,,,,,,,,,,,,,,,,,,,,,,,,,,,,,,,,,,,,,,,,,,,,,,,,,,,,,,,,,,,,,,,,,,,,,,,,,,,,,,,
,,60196480480c1403e32285a8,2024-02-22_07h00.54.464,kallum_motion_pilot,2023.2.2,Win32,59.88023952,60196480480c1403e32285a8,65d6bb0e977760de756971f7,65d6d4d7431f118201ca1cbb,0.0211,0.0212,0,148,148,158,1,eightsix,,,,,,,,,,,,,,,,,,,,,,,,,,,,,,,,,,,,,,,,,,,,,,,,,,,,,,,,,,,,,,,,,,,,,,,,,,,,,,,,,,,,,,,,,,,,,,,,,,,,,,,,,,,,,,,,,,,,,,,,,,,,,,,,,,,,,,,,,
,,60196480480c1403e32285a8,2024-02-22_07h00.54.464,kallum_motion_pilot,2023.2.2,Win32,59.88023952,60196480480c1403e32285a8,65d6bb0e977760de756971f7,65d6d4d7431f118201ca1cbb,0.0212,0.0212,0,149,149,71,1,fourthree,,,,,,,,,,,,,,,,,,,,,,,,,,,,,,,,,,,,,,,,,,,,,,,,,,,,,,,,,,,,,,,,,,,,,,,,,,,,,,,,,,,,,,,,,,,,,,,,,,,,,,,,,,,,,,,,,,,,,,,,,,,,,,,,,,,,,,,,,
,,60196480480c1403e32285a8,2024-02-22_07h00.54.464,kallum_motion_pilot,2023.2.2,Win32,59.88023952,60196480480c1403e32285a8,65d6bb0e977760de756971f7,65d6d4d7431f118201ca1cbb,0.0212,0.0212,0,150,150,93,1,seveneight,,,,,,,,,,,,,,,,,,,,,,,,,,,,,,,,,,,,,,,,,,,,,,,,,,,,,,,,,,,,,,,,,,,,,,,,,,,,,,,,,,,,,,,,,,,,,,,,,,,,,,,,,,,,,,,,,,,,,,,,,,,,,,,,,,,,,,,,,
,,60196480480c1403e32285a8,2024-02-22_07h00.54.464,kallum_motion_pilot,2023.2.2,Win32,59.88023952,60196480480c1403e32285a8,65d6bb0e977760de756971f7,65d6d4d7431f118201ca1cbb,0.0213,0.0214,0,151,151,14,1,fourtwo,,,,,,,,,,,,,,,,,,,,,,,,,,,,,,,,,,,,,,,,,,,,,,,,,,,,,,,,,,,,,,,,,,,,,,,,,,,,,,,,,,,,,,,,,,,,,,,,,,,,,,,,,,,,,,,,,,,,,,,,,,,,,,,,,,,,,,,,,
,,60196480480c1403e32285a8,2024-02-22_07h00.54.464,kallum_motion_pilot,2023.2.2,Win32,59.88023952,60196480480c1403e32285a8,65d6bb0e977760de756971f7,65d6d4d7431f118201ca1cbb,0.0214,0.0214,0,152,152,42,1,twoone,,,,,,,,,,,,,,,,,,,,,,,,,,,,,,,,,,,,,,,,,,,,,,,,,,,,,,,,,,,,,,,,,,,,,,,,,,,,,,,,,,,,,,,,,,,,,,,,,,,,,,,,,,,,,,,,,,,,,,,,,,,,,,,,,,,,,,,,,
,,60196480480c1403e32285a8,2024-02-22_07h00.54.464,kallum_motion_pilot,2023.2.2,Win32,59.88023952,60196480480c1403e32285a8,65d6bb0e977760de756971f7,65d6d4d7431f118201ca1cbb,0.0215,0.0215,0,153,153,124,1,sevenfive,,,,,,,,,,,,,,,,,,,,,,,,,,,,,,,,,,,,,,,,,,,,,,,,,,,,,,,,,,,,,,,,,,,,,,,,,,,,,,,,,,,,,,,,,,,,,,,,,,,,,,,,,,,,,,,,,,,,,,,,,,,,,,,,,,,,,,,,,
,,60196480480c1403e32285a8,2024-02-22_07h00.54.464,kallum_motion_pilot,2023.2.2,Win32,59.88023952,60196480480c1403e32285a8,65d6bb0e977760de756971f7,65d6d4d7431f118201ca1cbb,0.0215,0.0216,0,154,154,87,1,eightseven,,,,,,,,,,,,,,,,,,,,,,,,,,,,,,,,,,,,,,,,,,,,,,,,,,,,,,,,,,,,,,,,,,,,,,,,,,,,,,,,,,,,,,,,,,,,,,,,,,,,,,,,,,,,,,,,,,,,,,,,,,,,,,,,,,,,,,,,,
,,60196480480c1403e32285a8,2024-02-22_07h00.54.464,kallum_motion_pilot,2023.2.2,Win32,59.88023952,60196480480c1403e32285a8,65d6bb0e977760de756971f7,65d6d4d7431f118201ca1cbb,0.0216,0.0216,0,155,155,153,1,fiveseven,,,,,,,,,,,,,,,,,,,,,,,,,,,,,,,,,,,,,,,,,,,,,,,,,,,,,,,,,,,,,,,,,,,,,,,,,,,,,,,,,,,,,,,,,,,,,,,,,,,,,,,,,,,,,,,,,,,,,,,,,,,,,,,,,,,,,,,,,
,,60196480480c1403e32285a8,2024-02-22_07h00.54.464,kallum_motion_pilot,2023.2.2,Win32,59.88023952,60196480480c1403e32285a8,65d6bb0e977760de756971f7,65d6d4d7431f118201ca1cbb,0.0216,0.0217,0,156,156,111,1,eightseven,,,,,,,,,,,,,,,,,,,,,,,,,,,,,,,,,,,,,,,,,,,,,,,,,,,,,,,,,,,,,,,,,,,,,,,,,,,,,,,,,,,,,,,,,,,,,,,,,,,,,,,,,,,,,,,,,,,,,,,,,,,,,,,,,,,,,,,,,
,,60196480480c1403e32285a8,2024-02-22_07h00.54.464,kallum_motion_pilot,2023.2.2,Win32,59.88023952,60196480480c1403e32285a8,65d6bb0e977760de756971f7,65d6d4d7431f118201ca1cbb,0.0217,0.0217,0,157,157,98,1,sixfive,,,,,,,,,,,,,,,,,,,,,,,,,,,,,,,,,,,,,,,,,,,,,,,,,,,,,,,,,,,,,,,,,,,,,,,,,,,,,,,,,,,,,,,,,,,,,,,,,,,,,,,,,,,,,,,,,,,,,,,,,,,,,,,,,,,,,,,,,
,,60196480480c1403e32285a8,2024-02-22_07h00.54.464,kallum_motion_pilot,2023.2.2,Win32,59.88023952,60196480480c1403e32285a8,65d6bb0e977760de756971f7,65d6d4d7431f118201ca1cbb,0.0218,0.0218,0,158,158,47,1,fourthree,,,,,,,,,,,,,,,,,,,,,,,,,,,,,,,,,,,,,,,,,,,,,,,,,,,,,,,,,,,,,,,,,,,,,,,,,,,,,,,,,,,,,,,,,,,,,,,,,,,,,,,,,,,,,,,,,,,,,,,,,,,,,,,,,,,,,,,,,
,,60196480480c1403e32285a8,2024-02-22_07h00.54.464,kallum_motion_pilot,2023.2.2,Win32,59.88023952,60196480480c1403e32285a8,65d6bb0e977760de756971f7,65d6d4d7431f118201ca1cbb,0.0218,0.0218,0,159,159,57,1,onethree,,,,,,,,,,,,,,,,,,,,,,,,,,,,,,,,,,,,,,,,,,,,,,,,,,,,,,,,,,,,,,,,,,,,,,,,,,,,,,,,,,,,,,,,,,,,,,,,,,,,,,,,,,,,,,,,,,,,,,,,,,,,,,,,,,,,,,,,,
,,60196480480c1403e32285a8,2024-02-22_07h00.54.464,kallum_motion_pilot,2023.2.2,Win32,59.88023952,60196480480c1403e32285a8,65d6bb0e977760de756971f7,65d6d4d7431f118201ca1cbb,0.0219,0.0219,0,160,160,37,1,threefour,,,,,,,,,,,,,,,,,,,,,,,,,,,,,,,,,,,,,,,,,,,,,,,,,,,,,,,,,,,,,,,,,,,,,,,,,,,,,,,,,,,,,,,,,,,,,,,,,,,,,,,,,,,,,,,,,,,,,,,,,,,,,,,,,,,,,,,,,
,,60196480480c1403e32285a8,2024-02-22_07h00.54.464,kallum_motion_pilot,2023.2.2,Win32,59.88023952,60196480480c1403e32285a8,65d6bb0e977760de756971f7,65d6d4d7431f118201ca1cbb,0.022,0.022,0,161,161,135,1,eightseven,,,,,,,,,,,,,,,,,,,,,,,,,,,,,,,,,,,,,,,,,,,,,,,,,,,,,,,,,,,,,,,,,,,,,,,,,,,,,,,,,,,,,,,,,,,,,,,,,,,,,,,,,,,,,,,,,,,,,,,,,,,,,,,,,,,,,,,,,
,,60196480480c1403e32285a8,2024-02-22_07h00.54.464,kallum_motion_pilot,2023.2.2,Win32,59.88023952,60196480480c1403e32285a8,65d6bb0e977760de756971f7,65d6d4d7431f118201ca1cbb,0.022,0.022,1,0,162,153,1,fiveseven,,,,,,,,,,,,,,,,,,,,,,,,,,,,,,,,,,,,,,,,,,,,,,,,,,,,,,,,,,,,,,,,,,,,,,,,,,,,,,,,,,,,,,,,,,,,,,,,,,,,,,,,,,,,,,,,,,,,,,,,,,,,,,,,,,,,,,,,,
,,60196480480c1403e32285a8,2024-02-22_07h00.54.464,kallum_motion_pilot,2023.2.2,Win32,59.88023952,60196480480c1403e32285a8,65d6bb0e977760de756971f7,65d6d4d7431f118201ca1cbb,0.0221,0.0221,1,1,163,60,1,threeone,,,,,,,,,,,,,,,,,,,,,,,,,,,,,,,,,,,,,,,,,,,,,,,,,,,,,,,,,,,,,,,,,,,,,,,,,,,,,,,,,,,,,,,,,,,,,,,,,,,,,,,,,,,,,,,,,,,,,,,,,,,,,,,,,,,,,,,,,
,,60196480480c1403e32285a8,2024-02-22_07h00.54.464,kallum_motion_pilot,2023.2.2,Win32,59.88023952,60196480480c1403e32285a8,65d6bb0e977760de756971f7,65d6d4d7431f118201ca1cbb,0.0221,0.0222,1,2,164,141,1,seveneight,,,,,,,,,,,,,,,,,,,,,,,,,,,,,,,,,,,,,,,,,,,,,,,,,,,,,,,,,,,,,,,,,,,,,,,,,,,,,,,,,,,,,,,,,,,,,,,,,,,,,,,,,,,,,,,,,,,,,,,,,,,,,,,,,,,,,,,,,
,,60196480480c1403e32285a8,2024-02-22_07h00.54.464,kallum_motion_pilot,2023.2.2,Win32,59.88023952,60196480480c1403e32285a8,65d6bb0e977760de756971f7,65d6d4d7431f118201ca1cbb,0.0222,0.0222,1,3,165,42,1,twoone,,,,,,,,,,,,,,,,,,,,,,,,,,,,,,,,,,,,,,,,,,,,,,,,,,,,,,,,,,,,,,,,,,,,,,,,,,,,,,,,,,,,,,,,,,,,,,,,,,,,,,,,,,,,,,,,,,,,,,,,,,,,,,,,,,,,,,,,,
,,60196480480c1403e32285a8,2024-02-22_07h00.54.464,kallum_motion_pilot,2023.2.2,Win32,59.88023952,60196480480c1403e32285a8,65d6bb0e977760de756971f7,65d6d4d7431f118201ca1cbb,0.0223,0.0223,1,4,166,50,1,twoone,,,,,,,,,,,,,,,,,,,,,,,,,,,,,,,,,,,,,,,,,,,,,,,,,,,,,,,,,,,,,,,,,,,,,,,,,,,,,,,,,,,,,,,,,,,,,,,,,,,,,,,,,,,,,,,,,,,,,,,,,,,,,,,,,,,,,,,,,
,,60196480480c1403e32285a8,2024-02-22_07h00.54.464,kallum_motion_pilot,2023.2.2,Win32,59.88023952,60196480480c1403e32285a8,65d6bb0e977760de756971f7,65d6d4d7431f118201ca1cbb,0.0224,0.0224,1,5,167,67,1,twofour,,,,,,,,,,,,,,,,,,,,,,,,,,,,,,,,,,,,,,,,,,,,,,,,,,,,,,,,,,,,,,,,,,,,,,,,,,,,,,,,,,,,,,,,,,,,,,,,,,,,,,,,,,,,,,,,,,,,,,,,,,,,,,,,,,,,,,,,,
,,60196480480c1403e32285a8,2024-02-22_07h00.54.464,kallum_motion_pilot,2023.2.2,Win32,59.88023952,60196480480c1403e32285a8,65d6bb0e977760de756971f7,65d6d4d7431f118201ca1cbb,0.0224,0.0224,1,6,168,4,1,threeone,,,,,,,,,,,,,,,,,,,,,,,,,,,,,,,,,,,,,,,,,,,,,,,,,,,,,,,,,,,,,,,,,,,,,,,,,,,,,,,,,,,,,,,,,,,,,,,,,,,,,,,,,,,,,,,,,,,,,,,,,,,,,,,,,,,,,,,,,
,,60196480480c1403e32285a8,2024-02-22_07h00.54.464,kallum_motion_pilot,2023.2.2,Win32,59.88023952,60196480480c1403e32285a8,65d6bb0e977760de756971f7,65d6d4d7431f118201ca1cbb,0.0225,0.0226,1,7,169,130,1,sixfive,,,,,,,,,,,,,,,,,,,,,,,,,,,,,,,,,,,,,,,,,,,,,,,,,,,,,,,,,,,,,,,,,,,,,,,,,,,,,,,,,,,,,,,,,,,,,,,,,,,,,,,,,,,,,,,,,,,,,,,,,,,,,,,,,,,,,,,,,
,,60196480480c1403e32285a8,2024-02-22_07h00.54.464,kallum_motion_pilot,2023.2.2,Win32,59.88023952,60196480480c1403e32285a8,65d6bb0e977760de756971f7,65d6d4d7431f118201ca1cbb,0.0226,0.0226,1,8,170,11,1,twofour,,,,,,,,,,,,,,,,,,,,,,,,,,,,,,,,,,,,,,,,,,,,,,,,,,,,,,,,,,,,,,,,,,,,,,,,,,,,,,,,,,,,,,,,,,,,,,,,,,,,,,,,,,,,,,,,,,,,,,,,,,,,,,,,,,,,,,,,,
,,60196480480c1403e32285a8,2024-02-22_07h00.54.464,kallum_motion_pilot,2023.2.2,Win32,59.88023952,60196480480c1403e32285a8,65d6bb0e977760de756971f7,65d6d4d7431f118201ca1cbb,0.0227,0.0227,1,9,171,115,1,sixeight,,,,,,,,,,,,,,,,,,,,,,,,,,,,,,,,,,,,,,,,,,,,,,,,,,,,,,,,,,,,,,,,,,,,,,,,,,,,,,,,,,,,,,,,,,,,,,,,,,,,,,,,,,,,,,,,,,,,,,,,,,,,,,,,,,,,,,,,,
,,60196480480c1403e32285a8,2024-02-22_07h00.54.464,kallum_motion_pilot,2023.2.2,Win32,59.88023952,60196480480c1403e32285a8,65d6bb0e977760de756971f7,65d6d4d7431f118201ca1cbb,0.0227,0.0227,1,10,172,103,1,eightseven,,,,,,,,,,,,,,,,,,,,,,,,,,,,,,,,,,,,,,,,,,,,,,,,,,,,,,,,,,,,,,,,,,,,,,,,,,,,,,,,,,,,,,,,,,,,,,,,,,,,,,,,,,,,,,,,,,,,,,,,,,,,,,,,,,,,,,,,,
,,60196480480c1403e32285a8,2024-02-22_07h00.54.464,kallum_motion_pilot,2023.2.2,Win32,59.88023952,60196480480c1403e32285a8,65d6bb0e977760de756971f7,65d6d4d7431f118201ca1cbb,0.0228,0.0228,1,11,173,118,1,eightsix,,,,,,,,,,,,,,,,,,,,,,,,,,,,,,,,,,,,,,,,,,,,,,,,,,,,,,,,,,,,,,,,,,,,,,,,,,,,,,,,,,,,,,,,,,,,,,,,,,,,,,,,,,,,,,,,,,,,,,,,,,,,,,,,,,,,,,,,,
,,60196480480c1403e32285a8,2024-02-22_07h00.54.464,kallum_motion_pilot,2023.2.2,Win32,59.88023952,60196480480c1403e32285a8,65d6bb0e977760de756971f7,65d6d4d7431f118201ca1cbb,0.0228,0.0229,1,12,174,86,1,eightsix,,,,,,,,,,,,,,,,,,,,,,,,,,,,,,,,,,,,,,,,,,,,,,,,,,,,,,,,,,,,,,,,,,,,,,,,,,,,,,,,,,,,,,,,,,,,,,,,,,,,,,,,,,,,,,,,,,,,,,,,,,,,,,,,,,,,,,,,,
,,60196480480c1403e32285a8,2024-02-22_07h00.54.464,kallum_motion_pilot,2023.2.2,Win32,59.88023952,60196480480c1403e32285a8,65d6bb0e977760de756971f7,65d6d4d7431f118201ca1cbb,0.0229,0.0229,1,13,175,23,1,fourthree,,,,,,,,,,,,,,,,,,,,,,,,,,,,,,,,,,,,,,,,,,,,,,,,,,,,,,,,,,,,,,,,,,,,,,,,,,,,,,,,,,,,,,,,,,,,,,,,,,,,,,,,,,,,,,,,,,,,,,,,,,,,,,,,,,,,,,,,,
,,60196480480c1403e32285a8,2024-02-22_07h00.54.464,kallum_motion_pilot,2023.2.2,Win32,59.88023952,60196480480c1403e32285a8,65d6bb0e977760de756971f7,65d6d4d7431f118201ca1cbb,0.0229,0.0229,1,14,176,151,1,eightseven,,,,,,,,,,,,,,,,,,,,,,,,,,,,,,,,,,,,,,,,,,,,,,,,,,,,,,,,,,,,,,,,,,,,,,,,,,,,,,,,,,,,,,,,,,,,,,,,,,,,,,,,,,,,,,,,,,,,,,,,,,,,,,,,,,,,,,,,,
,,60196480480c1403e32285a8,2024-02-22_07h00.54.464,kallum_motion_pilot,2023.2.2,Win32,59.88023952,60196480480c1403e32285a8,65d6bb0e977760de756971f7,65d6d4d7431f118201ca1cbb,0.0235,0.0236,1,15,177,144,1,fivesix,,,,,,,,,,,,,,,,,,,,,,,,,,,,,,,,,,,,,,,,,,,,,,,,,,,,,,,,,,,,,,,,,,,,,,,,,,,,,,,,,,,,,,,,,,,,,,,,,,,,,,,,,,,,,,,,,,,,,,,,,,,,,,,,,,,,,,,,,
,,60196480480c1403e32285a8,2024-02-22_07h00.54.464,kallum_motion_pilot,2023.2.2,Win32,59.88023952,60196480480c1403e32285a8,65d6bb0e977760de756971f7,65d6d4d7431f118201ca1cbb,0.0236,0.0237,1,16,178,61,1,threefour,,,,,,,,,,,,,,,,,,,,,,,,,,,,,,,,,,,,,,,,,,,,,,,,,,,,,,,,,,,,,,,,,,,,,,,,,,,,,,,,,,,,,,,,,,,,,,,,,,,,,,,,,,,,,,,,,,,,,,,,,,,,,,,,,,,,,,,,,
,,60196480480c1403e32285a8,2024-02-22_07h00.54.464,kallum_motion_pilot,2023.2.2,Win32,59.88023952,60196480480c1403e32285a8,65d6bb0e977760de756971f7,65d6d4d7431f118201ca1cbb,0.0237,0.0237,1,17,179,24,1,onetwo,,,,,,,,,,,,,,,,,,,,,,,,,,,,,,,,,,,,,,,,,,,,,,,,,,,,,,,,,,,,,,,,,,,,,,,,,,,,,,,,,,,,,,,,,,,,,,,,,,,,,,,,,,,,,,,,,,,,,,,,,,,,,,,,,,,,,,,,,
,,60196480480c1403e32285a8,2024-02-22_07h00.54.464,kallum_motion_pilot,2023.2.2,Win32,59.88023952,60196480480c1403e32285a8,65d6bb0e977760de756971f7,65d6d4d7431f118201ca1cbb,0.0238,0.0238,1,18,180,87,1,eightseven,,,,,,,,,,,,,,,,,,,,,,,,,,,,,,,,,,,,,,,,,,,,,,,,,,,,,,,,,,,,,,,,,,,,,,,,,,,,,,,,,,,,,,,,,,,,,,,,,,,,,,,,,,,,,,,,,,,,,,,,,,,,,,,,,,,,,,,,,
,,60196480480c1403e32285a8,2024-02-22_07h00.54.464,kallum_motion_pilot,2023.2.2,Win32,59.88023952,60196480480c1403e32285a8,65d6bb0e977760de756971f7,65d6d4d7431f118201ca1cbb,0.0238,0.0239,1,19,181,157,1,seveneight,,,,,,,,,,,,,,,,,,,,,,,,,,,,,,,,,,,,,,,,,,,,,,,,,,,,,,,,,,,,,,,,,,,,,,,,,,,,,,,,,,,,,,,,,,,,,,,,,,,,,,,,,,,,,,,,,,,,,,,,,,,,,,,,,,,,,,,,,
,,60196480480c1403e32285a8,2024-02-22_07h00.54.464,kallum_motion_pilot,2023.2.2,Win32,59.88023952,60196480480c1403e32285a8,65d6bb0e977760de756971f7,65d6d4d7431f118201ca1cbb,0.0239,0.0239,1,20,182,148,1,sevenfive,,,,,,,,,,,,,,,,,,,,,,,,,,,,,,,,,,,,,,,,,,,,,,,,,,,,,,,,,,,,,,,,,,,,,,,,,,,,,,,,,,,,,,,,,,,,,,,,,,,,,,,,,,,,,,,,,,,,,,,,,,,,,,,,,,,,,,,,,
,,60196480480c1403e32285a8,2024-02-22_07h00.54.464,kallum_motion_pilot,2023.2.2,Win32,59.88023952,60196480480c1403e32285a8,65d6bb0e977760de756971f7,65d6d4d7431f118201ca1cbb,0.0239,0.0239,1,21,183,69,1,threefour,,,,,,,,,,,,,,,,,,,,,,,,,,,,,,,,,,,,,,,,,,,,,,,,,,,,,,,,,,,,,,,,,,,,,,,,,,,,,,,,,,,,,,,,,,,,,,,,,,,,,,,,,,,,,,,,,,,,,,,,,,,,,,,,,,,,,,,,,
,,60196480480c1403e32285a8,2024-02-22_07h00.54.464,kallum_motion_pilot,2023.2.2,Win32,59.88023952,60196480480c1403e32285a8,65d6bb0e977760de756971f7,65d6d4d7431f118201ca1cbb,0.024,0.024,1,22,184,9,1,onethree,,,,,,,,,,,,,,,,,,,,,,,,,,,,,,,,,,,,,,,,,,,,,,,,,,,,,,,,,,,,,,,,,,,,,,,,,,,,,,,,,,,,,,,,,,,,,,,,,,,,,,,,,,,,,,,,,,,,,,,,,,,,,,,,,,,,,,,,,
,,60196480480c1403e32285a8,2024-02-22_07h00.54.464,kallum_motion_pilot,2023.2.2,Win32,59.88023952,60196480480c1403e32285a8,65d6bb0e977760de756971f7,65d6d4d7431f118201ca1cbb,0.024,0.0241,1,23,185,55,1,fourthree,,,,,,,,,,,,,,,,,,,,,,,,,,,,,,,,,,,,,,,,,,,,,,,,,,,,,,,,,,,,,,,,,,,,,,,,,,,,,,,,,,,,,,,,,,,,,,,,,,,,,,,,,,,,,,,,,,,,,,,,,,,,,,,,,,,,,,,,,
,,60196480480c1403e32285a8,2024-02-22_07h00.54.464,kallum_motion_pilot,2023.2.2,Win32,59.88023952,60196480480c1403e32285a8,65d6bb0e977760de756971f7,65d6d4d7431f118201ca1cbb,0.0241,0.0242,1,24,186,96,1,fivesix,,,,,,,,,,,,,,,,,,,,,,,,,,,,,,,,,,,,,,,,,,,,,,,,,,,,,,,,,,,,,,,,,,,,,,,,,,,,,,,,,,,,,,,,,,,,,,,,,,,,,,,,,,,,,,,,,,,,,,,,,,,,,,,,,,,,,,,,,
,,60196480480c1403e32285a8,2024-02-22_07h00.54.464,kallum_motion_pilot,2023.2.2,Win32,59.88023952,60196480480c1403e32285a8,65d6bb0e977760de756971f7,65d6d4d7431f118201ca1cbb,0.0242,0.0242,1,25,187,99,1,sixeight,,,,,,,,,,,,,,,,,,,,,,,,,,,,,,,,,,,,,,,,,,,,,,,,,,,,,,,,,,,,,,,,,,,,,,,,,,,,,,,,,,,,,,,,,,,,,,,,,,,,,,,,,,,,,,,,,,,,,,,,,,,,,,,,,,,,,,,,,
,,60196480480c1403e32285a8,2024-02-22_07h00.54.464,kallum_motion_pilot,2023.2.2,Win32,59.88023952,60196480480c1403e32285a8,65d6bb0e977760de756971f7,65d6d4d7431f118201ca1cbb,0.0243,0.0243,1,26,188,147,1,sixeight,,,,,,,,,,,,,,,,,,,,,,,,,,,,,,,,,,,,,,,,,,,,,,,,,,,,,,,,,,,,,,,,,,,,,,,,,,,,,,,,,,,,,,,,,,,,,,,,,,,,,,,,,,,,,,,,,,,,,,,,,,,,,,,,,,,,,,,,,
,,60196480480c1403e32285a8,2024-02-22_07h00.54.464,kallum_motion_pilot,2023.2.2,Win32,59.88023952,60196480480c1403e32285a8,65d6bb0e977760de756971f7,65d6d4d7431f118201ca1cbb,0.0243,0.0244,1,27,189,72,1,onetwo,,,,,,,,,,,,,,,,,,,,,,,,,,,,,,,,,,,,,,,,,,,,,,,,,,,,,,,,,,,,,,,,,,,,,,,,,,,,,,,,,,,,,,,,,,,,,,,,,,,,,,,,,,,,,,,,,,,,,,,,,,,,,,,,,,,,,,,,,
,,60196480480c1403e32285a8,2024-02-22_07h00.54.464,kallum_motion_pilot,2023.2.2,Win32,59.88023952,60196480480c1403e32285a8,65d6bb0e977760de756971f7,65d6d4d7431f118201ca1cbb,0.0245,0.0245,1,28,190,25,1,onethree,,,,,,,,,,,,,,,,,,,,,,,,,,,,,,,,,,,,,,,,,,,,,,,,,,,,,,,,,,,,,,,,,,,,,,,,,,,,,,,,,,,,,,,,,,,,,,,,,,,,,,,,,,,,,,,,,,,,,,,,,,,,,,,,,,,,,,,,,
,,60196480480c1403e32285a8,2024-02-22_07h00.54.464,kallum_motion_pilot,2023.2.2,Win32,59.88023952,60196480480c1403e32285a8,65d6bb0e977760de756971f7,65d6d4d7431f118201ca1cbb,0.0245,0.0245,1,29,191,64,1,onetwo,,,,,,,,,,,,,,,,,,,,,,,,,,,,,,,,,,,,,,,,,,,,,,,,,,,,,,,,,,,,,,,,,,,,,,,,,,,,,,,,,,,,,,,,,,,,,,,,,,,,,,,,,,,,,,,,,,,,,,,,,,,,,,,,,,,,,,,,,
,,60196480480c1403e32285a8,2024-02-22_07h00.54.464,kallum_motion_pilot,2023.2.2,Win32,59.88023952,60196480480c1403e32285a8,65d6bb0e977760de756971f7,65d6d4d7431f118201ca1cbb,0.0246,0.0246,1,30,192,133,1,seveneight,,,,,,,,,,,,,,,,,,,,,,,,,,,,,,,,,,,,,,,,,,,,,,,,,,,,,,,,,,,,,,,,,,,,,,,,,,,,,,,,,,,,,,,,,,,,,,,,,,,,,,,,,,,,,,,,,,,,,,,,,,,,,,,,,,,,,,,,,
,,60196480480c1403e32285a8,2024-02-22_07h00.54.464,kallum_motion_pilot,2023.2.2,Win32,59.88023952,60196480480c1403e32285a8,65d6bb0e977760de756971f7,65d6d4d7431f118201ca1cbb,0.0246,0.0246,1,31,193,8,1,onetwo,,,,,,,,,,,,,,,,,,,,,,,,,,,,,,,,,,,,,,,,,,,,,,,,,,,,,,,,,,,,,,,,,,,,,,,,,,,,,,,,,,,,,,,,,,,,,,,,,,,,,,,,,,,,,,,,,,,,,,,,,,,,,,,,,,,,,,,,,
,,60196480480c1403e32285a8,2024-02-22_07h00.54.464,kallum_motion_pilot,2023.2.2,Win32,59.88023952,60196480480c1403e32285a8,65d6bb0e977760de756971f7,65d6d4d7431f118201ca1cbb,0.0247,0.0247,1,32,194,28,1,threeone,,,,,,,,,,,,,,,,,,,,,,,,,,,,,,,,,,,,,,,,,,,,,,,,,,,,,,,,,,,,,,,,,,,,,,,,,,,,,,,,,,,,,,,,,,,,,,,,,,,,,,,,,,,,,,,,,,,,,,,,,,,,,,,,,,,,,,,,,
,,60196480480c1403e32285a8,2024-02-22_07h00.54.464,kallum_motion_pilot,2023.2.2,Win32,59.88023952,60196480480c1403e32285a8,65d6bb0e977760de756971f7,65d6d4d7431f118201ca1cbb,0.0248,0.0248,1,33,195,104,1,fivesix,,,,,,,,,,,,,,,,,,,,,,,,,,,,,,,,,,,,,,,,,,,,,,,,,,,,,,,,,,,,,,,,,,,,,,,,,,,,,,,,,,,,,,,,,,,,,,,,,,,,,,,,,,,,,,,,,,,,,,,,,,,,,,,,,,,,,,,,,
,,60196480480c1403e32285a8,2024-02-22_07h00.54.464,kallum_motion_pilot,2023.2.2,Win32,59.88023952,60196480480c1403e32285a8,65d6bb0e977760de756971f7,65d6d4d7431f118201ca1cbb,0.0249,0.0249,1,34,196,135,1,eightseven,,,,,,,,,,,,,,,,,,,,,,,,,,,,,,,,,,,,,,,,,,,,,,,,,,,,,,,,,,,,,,,,,,,,,,,,,,,,,,,,,,,,,,,,,,,,,,,,,,,,,,,,,,,,,,,,,,,,,,,,,,,,,,,,,,,,,,,,,
,,60196480480c1403e32285a8,2024-02-22_07h00.54.464,kallum_motion_pilot,2023.2.2,Win32,59.88023952,60196480480c1403e32285a8,65d6bb0e977760de756971f7,65d6d4d7431f118201ca1cbb,0.0249,0.0249,1,35,197,39,1,fourthree,,,,,,,,,,,,,,,,,,,,,,,,,,,,,,,,,,,,,,,,,,,,,,,,,,,,,,,,,,,,,,,,,,,,,,,,,,,,,,,,,,,,,,,,,,,,,,,,,,,,,,,,,,,,,,,,,,,,,,,,,,,,,,,,,,,,,,,,,
,,60196480480c1403e32285a8,2024-02-22_07h00.54.464,kallum_motion_pilot,2023.2.2,Win32,59.88023952,60196480480c1403e32285a8,65d6bb0e977760de756971f7,65d6d4d7431f118201ca1cbb,0.025,0.025,1,36,198,161,1,fiveseven,,,,,,,,,,,,,,,,,,,,,,,,,,,,,,,,,,,,,,,,,,,,,,,,,,,,,,,,,,,,,,,,,,,,,,,,,,,,,,,,,,,,,,,,,,,,,,,,,,,,,,,,,,,,,,,,,,,,,,,,,,,,,,,,,,,,,,,,,
,,60196480480c1403e32285a8,2024-02-22_07h00.54.464,kallum_motion_pilot,2023.2.2,Win32,59.88023952,60196480480c1403e32285a8,65d6bb0e977760de756971f7,65d6d4d7431f118201ca1cbb,0.0251,0.0252,1,37,199,155,1,sixeight,,,,,,,,,,,,,,,,,,,,,,,,,,,,,,,,,,,,,,,,,,,,,,,,,,,,,,,,,,,,,,,,,,,,,,,,,,,,,,,,,,,,,,,,,,,,,,,,,,,,,,,,,,,,,,,,,,,,,,,,,,,,,,,,,,,,,,,,,
,,60196480480c1403e32285a8,2024-02-22_07h00.54.464,kallum_motion_pilot,2023.2.2,Win32,59.88023952,60196480480c1403e32285a8,65d6bb0e977760de756971f7,65d6d4d7431f118201ca1cbb,0.0252,0.0252,1,38,200,117,1,seveneight,,,,,,,,,,,,,,,,,,,,,,,,,,,,,,,,,,,,,,,,,,,,,,,,,,,,,,,,,,,,,,,,,,,,,,,,,,,,,,,,,,,,,,,,,,,,,,,,,,,,,,,,,,,,,,,,,,,,,,,,,,,,,,,,,,,,,,,,,
,,60196480480c1403e32285a8,2024-02-22_07h00.54.464,kallum_motion_pilot,2023.2.2,Win32,59.88023952,60196480480c1403e32285a8,65d6bb0e977760de756971f7,65d6d4d7431f118201ca1cbb,0.0253,0.0253,1,39,201,140,1,sevenfive,,,,,,,,,,,,,,,,,,,,,,,,,,,,,,,,,,,,,,,,,,,,,,,,,,,,,,,,,,,,,,,,,,,,,,,,,,,,,,,,,,,,,,,,,,,,,,,,,,,,,,,,,,,,,,,,,,,,,,,,,,,,,,,,,,,,,,,,,
,,60196480480c1403e32285a8,2024-02-22_07h00.54.464,kallum_motion_pilot,2023.2.2,Win32,59.88023952,60196480480c1403e32285a8,65d6bb0e977760de756971f7,65d6d4d7431f118201ca1cbb,0.0253,0.0254,1,40,202,106,1,sixfive,,,,,,,,,,,,,,,,,,,,,,,,,,,,,,,,,,,,,,,,,,,,,,,,,,,,,,,,,,,,,,,,,,,,,,,,,,,,,,,,,,,,,,,,,,,,,,,,,,,,,,,,,,,,,,,,,,,,,,,,,,,,,,,,,,,,,,,,,
,,60196480480c1403e32285a8,2024-02-22_07h00.54.464,kallum_motion_pilot,2023.2.2,Win32,59.88023952,60196480480c1403e32285a8,65d6bb0e977760de756971f7,65d6d4d7431f118201ca1cbb,0.0254,0.0254,1,41,203,146,1,sixfive,,,,,,,,,,,,,,,,,,,,,,,,,,,,,,,,,,,,,,,,,,,,,,,,,,,,,,,,,,,,,,,,,,,,,,,,,,,,,,,,,,,,,,,,,,,,,,,,,,,,,,,,,,,,,,,,,,,,,,,,,,,,,,,,,,,,,,,,,
,,60196480480c1403e32285a8,2024-02-22_07h00.54.464,kallum_motion_pilot,2023.2.2,Win32,59.88023952,60196480480c1403e32285a8,65d6bb0e977760de756971f7,65d6d4d7431f118201ca1cbb,0.0255,0.0256,1,42,204,35,1,twofour,,,,,,,,,,,,,,,,,,,,,,,,,,,,,,,,,,,,,,,,,,,,,,,,,,,,,,,,,,,,,,,,,,,,,,,,,,,,,,,,,,,,,,,,,,,,,,,,,,,,,,,,,,,,,,,,,,,,,,,,,,,,,,,,,,,,,,,,,
,,60196480480c1403e32285a8,2024-02-22_07h00.54.464,kallum_motion_pilot,2023.2.2,Win32,59.88023952,60196480480c1403e32285a8,65d6bb0e977760de756971f7,65d6d4d7431f118201ca1cbb,0.0256,0.0256,1,43,205,20,1,threeone,,,,,,,,,,,,,,,,,,,,,,,,,,,,,,,,,,,,,,,,,,,,,,,,,,,,,,,,,,,,,,,,,,,,,,,,,,,,,,,,,,,,,,,,,,,,,,,,,,,,,,,,,,,,,,,,,,,,,,,,,,,,,,,,,,,,,,,,,
,,60196480480c1403e32285a8,2024-02-22_07h00.54.464,kallum_motion_pilot,2023.2.2,Win32,59.88023952,60196480480c1403e32285a8,65d6bb0e977760de756971f7,65d6d4d7431f118201ca1cbb,0.0256,0.0256,1,44,206,122,1,sixfive,,,,,,,,,,,,,,,,,,,,,,,,,,,,,,,,,,,,,,,,,,,,,,,,,,,,,,,,,,,,,,,,,,,,,,,,,,,,,,,,,,,,,,,,,,,,,,,,,,,,,,,,,,,,,,,,,,,,,,,,,,,,,,,,,,,,,,,,,
,,60196480480c1403e32285a8,2024-02-22_07h00.54.464,kallum_motion_pilot,2023.2.2,Win32,59.88023952,60196480480c1403e32285a8,65d6bb0e977760de756971f7,65d6d4d7431f118201ca1cbb,0.0257,0.0257,1,45,207,116,1,sevenfive,,,,,,,,,,,,,,,,,,,,,,,,,,,,,,,,,,,,,,,,,,,,,,,,,,,,,,,,,,,,,,,,,,,,,,,,,,,,,,,,,,,,,,,,,,,,,,,,,,,,,,,,,,,,,,,,,,,,,,,,,,,,,,,,,,,,,,,,,
,,60196480480c1403e32285a8,2024-02-22_07h00.54.464,kallum_motion_pilot,2023.2.2,Win32,59.88023952,60196480480c1403e32285a8,65d6bb0e977760de756971f7,65d6d4d7431f118201ca1cbb,0.0257,0.0259,1,46,208,76,1,threeone,,,,,,,,,,,,,,,,,,,,,,,,,,,,,,,,,,,,,,,,,,,,,,,,,,,,,,,,,,,,,,,,,,,,,,,,,,,,,,,,,,,,,,,,,,,,,,,,,,,,,,,,,,,,,,,,,,,,,,,,,,,,,,,,,,,,,,,,,
,,60196480480c1403e32285a8,2024-02-22_07h00.54.464,kallum_motion_pilot,2023.2.2,Win32,59.88023952,60196480480c1403e32285a8,65d6bb0e977760de756971f7,65d6d4d7431f118201ca1cbb,0.0259,0.0259,1,47,209,102,1,eightsix,,,,,,,,,,,,,,,,,,,,,,,,,,,,,,,,,,,,,,,,,,,,,,,,,,,,,,,,,,,,,,,,,,,,,,,,,,,,,,,,,,,,,,,,,,,,,,,,,,,,,,,,,,,,,,,,,,,,,,,,,,,,,,,,,,,,,,,,,
,,60196480480c1403e32285a8,2024-02-22_07h00.54.464,kallum_motion_pilot,2023.2.2,Win32,59.88023952,60196480480c1403e32285a8,65d6bb0e977760de756971f7,65d6d4d7431f118201ca1cbb,0.0259,0.026,1,48,210,46,1,fourtwo,,,,,,,,,,,,,,,,,,,,,,,,,,,,,,,,,,,,,,,,,,,,,,,,,,,,,,,,,,,,,,,,,,,,,,,,,,,,,,,,,,,,,,,,,,,,,,,,,,,,,,,,,,,,,,,,,,,,,,,,,,,,,,,,,,,,,,,,,
,,60196480480c1403e32285a8,2024-02-22_07h00.54.464,kallum_motion_pilot,2023.2.2,Win32,59.88023952,60196480480c1403e32285a8,65d6bb0e977760de756971f7,65d6d4d7431f118201ca1cbb,0.026,0.026,1,49,211,139,1,sixeight,,,,,,,,,,,,,,,,,,,,,,,,,,,,,,,,,,,,,,,,,,,,,,,,,,,,,,,,,,,,,,,,,,,,,,,,,,,,,,,,,,,,,,,,,,,,,,,,,,,,,,,,,,,,,,,,,,,,,,,,,,,,,,,,,,,,,,,,,
,,60196480480c1403e32285a8,2024-02-22_07h00.54.464,kallum_motion_pilot,2023.2.2,Win32,59.88023952,60196480480c1403e32285a8,65d6bb0e977760de756971f7,65d6d4d7431f118201ca1cbb,0.0261,0.0261,1,50,212,56,1,onetwo,,,,,,,,,,,,,,,,,,,,,,,,,,,,,,,,,,,,,,,,,,,,,,,,,,,,,,,,,,,,,,,,,,,,,,,,,,,,,,,,,,,,,,,,,,,,,,,,,,,,,,,,,,,,,,,,,,,,,,,,,,,,,,,,,,,,,,,,,
,,60196480480c1403e32285a8,2024-02-22_07h00.54.464,kallum_motion_pilot,2023.2.2,Win32,59.88023952,60196480480c1403e32285a8,65d6bb0e977760de756971f7,65d6d4d7431f118201ca1cbb,0.0261,0.0261,1,51,213,101,1,seveneight,,,,,,,,,,,,,,,,,,,,,,,,,,,,,,,,,,,,,,,,,,,,,,,,,,,,,,,,,,,,,,,,,,,,,,,,,,,,,,,,,,,,,,,,,,,,,,,,,,,,,,,,,,,,,,,,,,,,,,,,,,,,,,,,,,,,,,,,,
,,60196480480c1403e32285a8,2024-02-22_07h00.54.464,kallum_motion_pilot,2023.2.2,Win32,59.88023952,60196480480c1403e32285a8,65d6bb0e977760de756971f7,65d6d4d7431f118201ca1cbb,0.0262,0.0262,1,52,214,94,1,eightsix,,,,,,,,,,,,,,,,,,,,,,,,,,,,,,,,,,,,,,,,,,,,,,,,,,,,,,,,,,,,,,,,,,,,,,,,,,,,,,,,,,,,,,,,,,,,,,,,,,,,,,,,,,,,,,,,,,,,,,,,,,,,,,,,,,,,,,,,,
,,60196480480c1403e32285a8,2024-02-22_07h00.54.464,kallum_motion_pilot,2023.2.2,Win32,59.88023952,60196480480c1403e32285a8,65d6bb0e977760de756971f7,65d6d4d7431f118201ca1cbb,0.0263,0.0264,1,53,215,3,1,twofour,,,,,,,,,,,,,,,,,,,,,,,,,,,,,,,,,,,,,,,,,,,,,,,,,,,,,,,,,,,,,,,,,,,,,,,,,,,,,,,,,,,,,,,,,,,,,,,,,,,,,,,,,,,,,,,,,,,,,,,,,,,,,,,,,,,,,,,,,
,,60196480480c1403e32285a8,2024-02-22_07h00.54.464,kallum_motion_pilot,2023.2.2,Win32,59.88023952,60196480480c1403e32285a8,65d6bb0e977760de756971f7,65d6d4d7431f118201ca1cbb,0.0264,0.0264,1,54,216,75,1,twofour,,,,,,,,,,,,,,,,,,,,,,,,,,,,,,,,,,,,,,,,,,,,,,,,,,,,,,,,,,,,,,,,,,,,,,,,,,,,,,,,,,,,,,,,,,,,,,,,,,,,,,,,,,,,,,,,,,,,,,,,,,,,,,,,,,,,,,,,,
,,60196480480c1403e32285a8,2024-02-22_07h00.54.464,kallum_motion_pilot,2023.2.2,Win32,59.88023952,60196480480c1403e32285a8,65d6bb0e977760de756971f7,65d6d4d7431f118201ca1cbb,0.0264,0.0265,1,55,217,27,1,twofour,,,,,,,,,,,,,,,,,,,,,,,,,,,,,,,,,,,,,,,,,,,,,,,,,,,,,,,,,,,,,,,,,,,,,,,,,,,,,,,,,,,,,,,,,,,,,,,,,,,,,,,,,,,,,,,,,,,,,,,,,,,,,,,,,,,,,,,,,
,,60196480480c1403e32285a8,2024-02-22_07h00.54.464,kallum_motion_pilot,2023.2.2,Win32,59.88023952,60196480480c1403e32285a8,65d6bb0e977760de756971f7,65d6d4d7431f118201ca1cbb,0.0265,0.0265,1,56,218,29,1,threefour,,,,,,,,,,,,,,,,,,,,,,,,,,,,,,,,,,,,,,,,,,,,,,,,,,,,,,,,,,,,,,,,,,,,,,,,,,,,,,,,,,,,,,,,,,,,,,,,,,,,,,,,,,,,,,,,,,,,,,,,,,,,,,,,,,,,,,,,,
,,60196480480c1403e32285a8,2024-02-22_07h00.54.464,kallum_motion_pilot,2023.2.2,Win32,59.88023952,60196480480c1403e32285a8,65d6bb0e977760de756971f7,65d6d4d7431f118201ca1cbb,0.0265,0.0265,1,57,219,13,1,threefour,,,,,,,,,,,,,,,,,,,,,,,,,,,,,,,,,,,,,,,,,,,,,,,,,,,,,,,,,,,,,,,,,,,,,,,,,,,,,,,,,,,,,,,,,,,,,,,,,,,,,,,,,,,,,,,,,,,,,,,,,,,,,,,,,,,,,,,,,
,,60196480480c1403e32285a8,2024-02-22_07h00.54.464,kallum_motion_pilot,2023.2.2,Win32,59.88023952,60196480480c1403e32285a8,65d6bb0e977760de756971f7,65d6d4d7431f118201ca1cbb,0.0266,0.0266,1,58,220,58,1,twoone,,,,,,,,,,,,,,,,,,,,,,,,,,,,,,,,,,,,,,,,,,,,,,,,,,,,,,,,,,,,,,,,,,,,,,,,,,,,,,,,,,,,,,,,,,,,,,,,,,,,,,,,,,,,,,,,,,,,,,,,,,,,,,,,,,,,,,,,,
,,60196480480c1403e32285a8,2024-02-22_07h00.54.464,kallum_motion_pilot,2023.2.2,Win32,59.88023952,60196480480c1403e32285a8,65d6bb0e977760de756971f7,65d6d4d7431f118201ca1cbb,0.0266,0.0267,1,59,221,142,1,eightsix,,,,,,,,,,,,,,,,,,,,,,,,,,,,,,,,,,,,,,,,,,,,,,,,,,,,,,,,,,,,,,,,,,,,,,,,,,,,,,,,,,,,,,,,,,,,,,,,,,,,,,,,,,,,,,,,,,,,,,,,,,,,,,,,,,,,,,,,,
,,60196480480c1403e32285a8,2024-02-22_07h00.54.464,kallum_motion_pilot,2023.2.2,Win32,59.88023952,60196480480c1403e32285a8,65d6bb0e977760de756971f7,65d6d4d7431f118201ca1cbb,0.0268,0.0268,1,60,222,57,1,onethree,,,,,,,,,,,,,,,,,,,,,,,,,,,,,,,,,,,,,,,,,,,,,,,,,,,,,,,,,,,,,,,,,,,,,,,,,,,,,,,,,,,,,,,,,,,,,,,,,,,,,,,,,,,,,,,,,,,,,,,,,,,,,,,,,,,,,,,,,
,,60196480480c1403e32285a8,2024-02-22_07h00.54.464,kallum_motion_pilot,2023.2.2,Win32,59.88023952,60196480480c1403e32285a8,65d6bb0e977760de756971f7,65d6d4d7431f118201ca1cbb,0.0268,0.0268,1,61,223,89,1,fiveseven,,,,,,,,,,,,,,,,,,,,,,,,,,,,,,,,,,,,,,,,,,,,,,,,,,,,,,,,,,,,,,,,,,,,,,,,,,,,,,,,,,,,,,,,,,,,,,,,,,,,,,,,,,,,,,,,,,,,,,,,,,,,,,,,,,,,,,,,,
,,60196480480c1403e32285a8,2024-02-22_07h00.54.464,kallum_motion_pilot,2023.2.2,Win32,59.88023952,60196480480c1403e32285a8,65d6bb0e977760de756971f7,65d6d4d7431f118201ca1cbb,0.0269,0.0269,1,62,224,132,1,sevenfive,,,,,,,,,,,,,,,,,,,,,,,,,,,,,,,,,,,,,,,,,,,,,,,,,,,,,,,,,,,,,,,,,,,,,,,,,,,,,,,,,,,,,,,,,,,,,,,,,,,,,,,,,,,,,,,,,,,,,,,,,,,,,,,,,,,,,,,,,
,,60196480480c1403e32285a8,2024-02-22_07h00.54.464,kallum_motion_pilot,2023.2.2,Win32,59.88023952,60196480480c1403e32285a8,65d6bb0e977760de756971f7,65d6d4d7431f118201ca1cbb,0.0269,0.0269,1,63,225,49,1,onethree,,,,,,,,,,,,,,,,,,,,,,,,,,,,,,,,,,,,,,,,,,,,,,,,,,,,,,,,,,,,,,,,,,,,,,,,,,,,,,,,,,,,,,,,,,,,,,,,,,,,,,,,,,,,,,,,,,,,,,,,,,,,,,,,,,,,,,,,,
,,60196480480c1403e32285a8,2024-02-22_07h00.54.464,kallum_motion_pilot,2023.2.2,Win32,59.88023952,60196480480c1403e32285a8,65d6bb0e977760de756971f7,65d6d4d7431f118201ca1cbb,0.027,0.027,1,64,226,0,1,onetwo,,,,,,,,,,,,,,,,,,,,,,,,,,,,,,,,,,,,,,,,,,,,,,,,,,,,,,,,,,,,,,,,,,,,,,,,,,,,,,,,,,,,,,,,,,,,,,,,,,,,,,,,,,,,,,,,,,,,,,,,,,,,,,,,,,,,,,,,,
,,60196480480c1403e32285a8,2024-02-22_07h00.54.464,kallum_motion_pilot,2023.2.2,Win32,59.88023952,60196480480c1403e32285a8,65d6bb0e977760de756971f7,65d6d4d7431f118201ca1cbb,0.0271,0.0271,1,65,227,128,1,fivesix,,,,,,,,,,,,,,,,,,,,,,,,,,,,,,,,,,,,,,,,,,,,,,,,,,,,,,,,,,,,,,,,,,,,,,,,,,,,,,,,,,,,,,,,,,,,,,,,,,,,,,,,,,,,,,,,,,,,,,,,,,,,,,,,,,,,,,,,,
,,60196480480c1403e32285a8,2024-02-22_07h00.54.464,kallum_motion_pilot,2023.2.2,Win32,59.88023952,60196480480c1403e32285a8,65d6bb0e977760de756971f7,65d6d4d7431f118201ca1cbb,0.0272,0.0272,1,66,228,30,1,fourtwo,,,,,,,,,,,,,,,,,,,,,,,,,,,,,,,,,,,,,,,,,,,,,,,,,,,,,,,,,,,,,,,,,,,,,,,,,,,,,,,,,,,,,,,,,,,,,,,,,,,,,,,,,,,,,,,,,,,,,,,,,,,,,,,,,,,,,,,,,
,,60196480480c1403e32285a8,2024-02-22_07h00.54.464,kallum_motion_pilot,2023.2.2,Win32,59.88023952,60196480480c1403e32285a8,65d6bb0e977760de756971f7,65d6d4d7431f118201ca1cbb,0.0272,0.0272,1,67,229,22,1,fourtwo,,,,,,,,,,,,,,,,,,,,,,,,,,,,,,,,,,,,,,,,,,,,,,,,,,,,,,,,,,,,,,,,,,,,,,,,,,,,,,,,,,,,,,,,,,,,,,,,,,,,,,,,,,,,,,,,,,,,,,,,,,,,,,,,,,,,,,,,,
,,60196480480c1403e32285a8,2024-02-22_07h00.54.464,kallum_motion_pilot,2023.2.2,Win32,59.88023952,60196480480c1403e32285a8,65d6bb0e977760de756971f7,65d6d4d7431f118201ca1cbb,0.0272,0.0273,1,68,230,110,1,eightsix,,,,,,,,,,,,,,,,,,,,,,,,,,,,,,,,,,,,,,,,,,,,,,,,,,,,,,,,,,,,,,,,,,,,,,,,,,,,,,,,,,,,,,,,,,,,,,,,,,,,,,,,,,,,,,,,,,,,,,,,,,,,,,,,,,,,,,,,,
,,60196480480c1403e32285a8,2024-02-22_07h00.54.464,kallum_motion_pilot,2023.2.2,Win32,59.88023952,60196480480c1403e32285a8,65d6bb0e977760de756971f7,65d6d4d7431f118201ca1cbb,0.0273,0.0274,1,69,231,34,1,twoone,,,,,,,,,,,,,,,,,,,,,,,,,,,,,,,,,,,,,,,,,,,,,,,,,,,,,,,,,,,,,,,,,,,,,,,,,,,,,,,,,,,,,,,,,,,,,,,,,,,,,,,,,,,,,,,,,,,,,,,,,,,,,,,,,,,,,,,,,
,,60196480480c1403e32285a8,2024-02-22_07h00.54.464,kallum_motion_pilot,2023.2.2,Win32,59.88023952,60196480480c1403e32285a8,65d6bb0e977760de756971f7,65d6d4d7431f118201ca1cbb,0.0274,0.0274,1,70,232,137,1,fiveseven,,,,,,,,,,,,,,,,,,,,,,,,,,,,,,,,,,,,,,,,,,,,,,,,,,,,,,,,,,,,,,,,,,,,,,,,,,,,,,,,,,,,,,,,,,,,,,,,,,,,,,,,,,,,,,,,,,,,,,,,,,,,,,,,,,,,,,,,,
,,60196480480c1403e32285a8,2024-02-22_07h00.54.464,kallum_motion_pilot,2023.2.2,Win32,59.88023952,60196480480c1403e32285a8,65d6bb0e977760de756971f7,65d6d4d7431f118201ca1cbb,0.0275,0.0275,1,71,233,10,1,twoone,,,,,,,,,,,,,,,,,,,,,,,,,,,,,,,,,,,,,,,,,,,,,,,,,,,,,,,,,,,,,,,,,,,,,,,,,,,,,,,,,,,,,,,,,,,,,,,,,,,,,,,,,,,,,,,,,,,,,,,,,,,,,,,,,,,,,,,,,
,,60196480480c1403e32285a8,2024-02-22_07h00.54.464,kallum_motion_pilot,2023.2.2,Win32,59.88023952,60196480480c1403e32285a8,65d6bb0e977760de756971f7,65d6d4d7431f118201ca1cbb,0.0275,0.0276,1,72,234,91,1,sixeight,,,,,,,,,,,,,,,,,,,,,,,,,,,,,,,,,,,,,,,,,,,,,,,,,,,,,,,,,,,,,,,,,,,,,,,,,,,,,,,,,,,,,,,,,,,,,,,,,,,,,,,,,,,,,,,,,,,,,,,,,,,,,,,,,,,,,,,,,
,,60196480480c1403e32285a8,2024-02-22_07h00.54.464,kallum_motion_pilot,2023.2.2,Win32,59.88023952,60196480480c1403e32285a8,65d6bb0e977760de756971f7,65d6d4d7431f118201ca1cbb,0.0276,0.0277,1,73,235,109,1,seveneight,,,,,,,,,,,,,,,,,,,,,,,,,,,,,,,,,,,,,,,,,,,,,,,,,,,,,,,,,,,,,,,,,,,,,,,,,,,,,,,,,,,,,,,,,,,,,,,,,,,,,,,,,,,,,,,,,,,,,,,,,,,,,,,,,,,,,,,,,
,,60196480480c1403e32285a8,2024-02-22_07h00.54.464,kallum_motion_pilot,2023.2.2,Win32,59.88023952,60196480480c1403e32285a8,65d6bb0e977760de756971f7,65d6d4d7431f118201ca1cbb,0.0277,0.0277,1,74,236,59,1,twofour,,,,,,,,,,,,,,,,,,,,,,,,,,,,,,,,,,,,,,,,,,,,,,,,,,,,,,,,,,,,,,,,,,,,,,,,,,,,,,,,,,,,,,,,,,,,,,,,,,,,,,,,,,,,,,,,,,,,,,,,,,,,,,,,,,,,,,,,,
,,60196480480c1403e32285a8,2024-02-22_07h00.54.464,kallum_motion_pilot,2023.2.2,Win32,59.88023952,60196480480c1403e32285a8,65d6bb0e977760de756971f7,65d6d4d7431f118201ca1cbb,0.0278,0.0278,1,75,237,54,1,fourtwo,,,,,,,,,,,,,,,,,,,,,,,,,,,,,,,,,,,,,,,,,,,,,,,,,,,,,,,,,,,,,,,,,,,,,,,,,,,,,,,,,,,,,,,,,,,,,,,,,,,,,,,,,,,,,,,,,,,,,,,,,,,,,,,,,,,,,,,,,
,,60196480480c1403e32285a8,2024-02-22_07h00.54.464,kallum_motion_pilot,2023.2.2,Win32,59.88023952,60196480480c1403e32285a8,65d6bb0e977760de756971f7,65d6d4d7431f118201ca1cbb,0.0278,0.0278,1,76,238,120,1,fivesix,,,,,,,,,,,,,,,,,,,,,,,,,,,,,,,,,,,,,,,,,,,,,,,,,,,,,,,,,,,,,,,,,,,,,,,,,,,,,,,,,,,,,,,,,,,,,,,,,,,,,,,,,,,,,,,,,,,,,,,,,,,,,,,,,,,,,,,,,
,,60196480480c1403e32285a8,2024-02-22_07h00.54.464,kallum_motion_pilot,2023.2.2,Win32,59.88023952,60196480480c1403e32285a8,65d6bb0e977760de756971f7,65d6d4d7431f118201ca1cbb,0.0278,0.028,1,77,239,107,1,sixeight,,,,,,,,,,,,,,,,,,,,,,,,,,,,,,,,,,,,,,,,,,,,,,,,,,,,,,,,,,,,,,,,,,,,,,,,,,,,,,,,,,,,,,,,,,,,,,,,,,,,,,,,,,,,,,,,,,,,,,,,,,,,,,,,,,,,,,,,,
,,60196480480c1403e32285a8,2024-02-22_07h00.54.464,kallum_motion_pilot,2023.2.2,Win32,59.88023952,60196480480c1403e32285a8,65d6bb0e977760de756971f7,65d6d4d7431f118201ca1cbb,0.028,0.028,1,78,240,88,1,fivesix,,,,,,,,,,,,,,,,,,,,,,,,,,,,,,,,,,,,,,,,,,,,,,,,,,,,,,,,,,,,,,,,,,,,,,,,,,,,,,,,,,,,,,,,,,,,,,,,,,,,,,,,,,,,,,,,,,,,,,,,,,,,,,,,,,,,,,,,,
,,60196480480c1403e32285a8,2024-02-22_07h00.54.464,kallum_motion_pilot,2023.2.2,Win32,59.88023952,60196480480c1403e32285a8,65d6bb0e977760de756971f7,65d6d4d7431f118201ca1cbb,0.0281,0.0281,1,79,241,32,1,onetwo,,,,,,,,,,,,,,,,,,,,,,,,,,,,,,,,,,,,,,,,,,,,,,,,,,,,,,,,,,,,,,,,,,,,,,,,,,,,,,,,,,,,,,,,,,,,,,,,,,,,,,,,,,,,,,,,,,,,,,,,,,,,,,,,,,,,,,,,,
,,60196480480c1403e32285a8,2024-02-22_07h00.54.464,kallum_motion_pilot,2023.2.2,Win32,59.88023952,60196480480c1403e32285a8,65d6bb0e977760de756971f7,65d6d4d7431f118201ca1cbb,0.0281,0.0281,1,80,242,152,1,fivesix,,,,,,,,,,,,,,,,,,,,,,,,,,,,,,,,,,,,,,,,,,,,,,,,,,,,,,,,,,,,,,,,,,,,,,,,,,,,,,,,,,,,,,,,,,,,,,,,,,,,,,,,,,,,,,,,,,,,,,,,,,,,,,,,,,,,,,,,,
,,60196480480c1403e32285a8,2024-02-22_07h00.54.464,kallum_motion_pilot,2023.2.2,Win32,59.88023952,60196480480c1403e32285a8,65d6bb0e977760de756971f7,65d6d4d7431f118201ca1cbb,0.0281,0.0281,1,81,243,38,1,fourtwo,,,,,,,,,,,,,,,,,,,,,,,,,,,,,,,,,,,,,,,,,,,,,,,,,,,,,,,,,,,,,,,,,,,,,,,,,,,,,,,,,,,,,,,,,,,,,,,,,,,,,,,,,,,,,,,,,,,,,,,,,,,,,,,,,,,,,,,,,
,,60196480480c1403e32285a8,2024-02-22_07h00.54.464,kallum_motion_pilot,2023.2.2,Win32,59.88023952,60196480480c1403e32285a8,65d6bb0e977760de756971f7,65d6d4d7431f118201ca1cbb,0.0282,0.0282,1,82,244,2,1,twoone,,,,,,,,,,,,,,,,,,,,,,,,,,,,,,,,,,,,,,,,,,,,,,,,,,,,,,,,,,,,,,,,,,,,,,,,,,,,,,,,,,,,,,,,,,,,,,,,,,,,,,,,,,,,,,,,,,,,,,,,,,,,,,,,,,,,,,,,,
,,60196480480c1403e32285a8,2024-02-22_07h00.54.464,kallum_motion_pilot,2023.2.2,Win32,59.88023952,60196480480c1403e32285a8,65d6bb0e977760de756971f7,65d6d4d7431f118201ca1cbb,0.0283,0.0283,1,83,245,154,1,sixfive,,,,,,,,,,,,,,,,,,,,,,,,,,,,,,,,,,,,,,,,,,,,,,,,,,,,,,,,,,,,,,,,,,,,,,,,,,,,,,,,,,,,,,,,,,,,,,,,,,,,,,,,,,,,,,,,,,,,,,,,,,,,,,,,,,,,,,,,,
,,60196480480c1403e32285a8,2024-02-22_07h00.54.464,kallum_motion_pilot,2023.2.2,Win32,59.88023952,60196480480c1403e32285a8,65d6bb0e977760de756971f7,65d6d4d7431f118201ca1cbb,0.0283,0.0284,1,84,246,134,1,eightsix,,,,,,,,,,,,,,,,,,,,,,,,,,,,,,,,,,,,,,,,,,,,,,,,,,,,,,,,,,,,,,,,,,,,,,,,,,,,,,,,,,,,,,,,,,,,,,,,,,,,,,,,,,,,,,,,,,,,,,,,,,,,,,,,,,,,,,,,,
,,60196480480c1403e32285a8,2024-02-22_07h00.54.464,kallum_motion_pilot,2023.2.2,Win32,59.88023952,60196480480c1403e32285a8,65d6bb0e977760de756971f7,65d6d4d7431f118201ca1cbb,0.0284,0.0285,1,85,247,100,1,sevenfive,,,,,,,,,,,,,,,,,,,,,,,,,,,,,,,,,,,,,,,,,,,,,,,,,,,,,,,,,,,,,,,,,,,,,,,,,,,,,,,,,,,,,,,,,,,,,,,,,,,,,,,,,,,,,,,,,,,,,,,,,,,,,,,,,,,,,,,,,
,,60196480480c1403e32285a8,2024-02-22_07h00.54.464,kallum_motion_pilot,2023.2.2,Win32,59.88023952,60196480480c1403e32285a8,65d6bb0e977760de756971f7,65d6d4d7431f118201ca1cbb,0.0285,0.0285,1,86,248,158,1,eightsix,,,,,,,,,,,,,,,,,,,,,,,,,,,,,,,,,,,,,,,,,,,,,,,,,,,,,,,,,,,,,,,,,,,,,,,,,,,,,,,,,,,,,,,,,,,,,,,,,,,,,,,,,,,,,,,,,,,,,,,,,,,,,,,,,,,,,,,,,
,,60196480480c1403e32285a8,2024-02-22_07h00.54.464,kallum_motion_pilot,2023.2.2,Win32,59.88023952,60196480480c1403e32285a8,65d6bb0e977760de756971f7,65d6d4d7431f118201ca1cbb,0.0286,0.0286,1,87,249,74,1,twoone,,,,,,,,,,,,,,,,,,,,,,,,,,,,,,,,,,,,,,,,,,,,,,,,,,,,,,,,,,,,,,,,,,,,,,,,,,,,,,,,,,,,,,,,,,,,,,,,,,,,,,,,,,,,,,,,,,,,,,,,,,,,,,,,,,,,,,,,,
,,60196480480c1403e32285a8,2024-02-22_07h00.54.464,kallum_motion_pilot,2023.2.2,Win32,59.88023952,60196480480c1403e32285a8,65d6bb0e977760de756971f7,65d6d4d7431f118201ca1cbb,0.0286,0.0286,1,88,250,143,1,eightseven,,,,,,,,,,,,,,,,,,,,,,,,,,,,,,,,,,,,,,,,,,,,,,,,,,,,,,,,,,,,,,,,,,,,,,,,,,,,,,,,,,,,,,,,,,,,,,,,,,,,,,,,,,,,,,,,,,,,,,,,,,,,,,,,,,,,,,,,,
,,60196480480c1403e32285a8,2024-02-22_07h00.54.464,kallum_motion_pilot,2023.2.2,Win32,59.88023952,60196480480c1403e32285a8,65d6bb0e977760de756971f7,65d6d4d7431f118201ca1cbb,0.0287,0.0288,1,89,251,131,1,sixeight,,,,,,,,,,,,,,,,,,,,,,,,,,,,,,,,,,,,,,,,,,,,,,,,,,,,,,,,,,,,,,,,,,,,,,,,,,,,,,,,,,,,,,,,,,,,,,,,,,,,,,,,,,,,,,,,,,,,,,,,,,,,,,,,,,,,,,,,,
,,60196480480c1403e32285a8,2024-02-22_07h00.54.464,kallum_motion_pilot,2023.2.2,Win32,59.88023952,60196480480c1403e32285a8,65d6bb0e977760de756971f7,65d6d4d7431f118201ca1cbb,0.0288,0.0288,1,90,252,40,1,onetwo,,,,,,,,,,,,,,,,,,,,,,,,,,,,,,,,,,,,,,,,,,,,,,,,,,,,,,,,,,,,,,,,,,,,,,,,,,,,,,,,,,,,,,,,,,,,,,,,,,,,,,,,,,,,,,,,,,,,,,,,,,,,,,,,,,,,,,,,,
,,60196480480c1403e32285a8,2024-02-22_07h00.54.464,kallum_motion_pilot,2023.2.2,Win32,59.88023952,60196480480c1403e32285a8,65d6bb0e977760de756971f7,65d6d4d7431f118201ca1cbb,0.0288,0.0288,1,91,253,85,1,seveneight,,,,,,,,,,,,,,,,,,,,,,,,,,,,,,,,,,,,,,,,,,,,,,,,,,,,,,,,,,,,,,,,,,,,,,,,,,,,,,,,,,,,,,,,,,,,,,,,,,,,,,,,,,,,,,,,,,,,,,,,,,,,,,,,,,,,,,,,,
,,60196480480c1403e32285a8,2024-02-22_07h00.54.464,kallum_motion_pilot,2023.2.2,Win32,59.88023952,60196480480c1403e32285a8,65d6bb0e977760de756971f7,65d6d4d7431f118201ca1cbb,0.0288,0.0289,1,92,254,127,1,eightseven,,,,,,,,,,,,,,,,,,,,,,,,,,,,,,,,,,,,,,,,,,,,,,,,,,,,,,,,,,,,,,,,,,,,,,,,,,,,,,,,,,,,,,,,,,,,,,,,,,,,,,,,,,,,,,,,,,,,,,,,,,,,,,,,,,,,,,,,,
,,60196480480c1403e32285a8,2024-02-22_07h00.54.464,kallum_motion_pilot,2023.2.2,Win32,59.88023952,60196480480c1403e32285a8,65d6bb0e977760de756971f7,65d6d4d7431f118201ca1cbb,0.029,0.029,1,93,255,97,1,fiveseven,,,,,,,,,,,,,,,,,,,,,,,,,,,,,,,,,,,,,,,,,,,,,,,,,,,,,,,,,,,,,,,,,,,,,,,,,,,,,,,,,,,,,,,,,,,,,,,,,,,,,,,,,,,,,,,,,,,,,,,,,,,,,,,,,,,,,,,,,
,,60196480480c1403e32285a8,2024-02-22_07h00.54.464,kallum_motion_pilot,2023.2.2,Win32,59.88023952,60196480480c1403e32285a8,65d6bb0e977760de756971f7,65d6d4d7431f118201ca1cbb,0.0291,0.0291,1,94,256,19,1,twofour,,,,,,,,,,,,,,,,,,,,,,,,,,,,,,,,,,,,,,,,,,,,,,,,,,,,,,,,,,,,,,,,,,,,,,,,,,,,,,,,,,,,,,,,,,,,,,,,,,,,,,,,,,,,,,,,,,,,,,,,,,,,,,,,,,,,,,,,,
,,60196480480c1403e32285a8,2024-02-22_07h00.54.464,kallum_motion_pilot,2023.2.2,Win32,59.88023952,60196480480c1403e32285a8,65d6bb0e977760de756971f7,65d6d4d7431f118201ca1cbb,0.0291,0.0292,1,95,257,47,1,fourthree,,,,,,,,,,,,,,,,,,,,,,,,,,,,,,,,,,,,,,,,,,,,,,,,,,,,,,,,,,,,,,,,,,,,,,,,,,,,,,,,,,,,,,,,,,,,,,,,,,,,,,,,,,,,,,,,,,,,,,,,,,,,,,,,,,,,,,,,,
,,60196480480c1403e32285a8,2024-02-22_07h00.54.464,kallum_motion_pilot,2023.2.2,Win32,59.88023952,60196480480c1403e32285a8,65d6bb0e977760de756971f7,65d6d4d7431f118201ca1cbb,0.0292,0.0292,1,96,258,53,1,threefour,,,,,,,,,,,,,,,,,,,,,,,,,,,,,,,,,,,,,,,,,,,,,,,,,,,,,,,,,,,,,,,,,,,,,,,,,,,,,,,,,,,,,,,,,,,,,,,,,,,,,,,,,,,,,,,,,,,,,,,,,,,,,,,,,,,,,,,,,
,,60196480480c1403e32285a8,2024-02-22_07h00.54.464,kallum_motion_pilot,2023.2.2,Win32,59.88023952,60196480480c1403e32285a8,65d6bb0e977760de756971f7,65d6d4d7431f118201ca1cbb,0.0293,0.0293,1,97,259,105,1,fiveseven,,,,,,,,,,,,,,,,,,,,,,,,,,,,,,,,,,,,,,,,,,,,,,,,,,,,,,,,,,,,,,,,,,,,,,,,,,,,,,,,,,,,,,,,,,,,,,,,,,,,,,,,,,,,,,,,,,,,,,,,,,,,,,,,,,,,,,,,,
,,60196480480c1403e32285a8,2024-02-22_07h00.54.464,kallum_motion_pilot,2023.2.2,Win32,59.88023952,60196480480c1403e32285a8,65d6bb0e977760de756971f7,65d6d4d7431f118201ca1cbb,0.0293,0.0294,1,98,260,113,1,fiveseven,,,,,,,,,,,,,,,,,,,,,,,,,,,,,,,,,,,,,,,,,,,,,,,,,,,,,,,,,,,,,,,,,,,,,,,,,,,,,,,,,,,,,,,,,,,,,,,,,,,,,,,,,,,,,,,,,,,,,,,,,,,,,,,,,,,,,,,,,
,,60196480480c1403e32285a8,2024-02-22_07h00.54.464,kallum_motion_pilot,2023.2.2,Win32,59.88023952,60196480480c1403e32285a8,65d6bb0e977760de756971f7,65d6d4d7431f118201ca1cbb,0.0295,0.0295,1,99,261,95,1,eightseven,,,,,,,,,,,,,,,,,,,,,,,,,,,,,,,,,,,,,,,,,,,,,,,,,,,,,,,,,,,,,,,,,,,,,,,,,,,,,,,,,,,,,,,,,,,,,,,,,,,,,,,,,,,,,,,,,,,,,,,,,,,,,,,,,,,,,,,,,
,,60196480480c1403e32285a8,2024-02-22_07h00.54.464,kallum_motion_pilot,2023.2.2,Win32,59.88023952,60196480480c1403e32285a8,65d6bb0e977760de756971f7,65d6d4d7431f118201ca1cbb,0.0296,0.0296,1,100,262,48,1,onetwo,,,,,,,,,,,,,,,,,,,,,,,,,,,,,,,,,,,,,,,,,,,,,,,,,,,,,,,,,,,,,,,,,,,,,,,,,,,,,,,,,,,,,,,,,,,,,,,,,,,,,,,,,,,,,,,,,,,,,,,,,,,,,,,,,,,,,,,,,
,,60196480480c1403e32285a8,2024-02-22_07h00.54.464,kallum_motion_pilot,2023.2.2,Win32,59.88023952,60196480480c1403e32285a8,65d6bb0e977760de756971f7,65d6d4d7431f118201ca1cbb,0.0296,0.0296,1,101,263,79,1,eightseven,,,,,,,,,,,,,,,,,,,,,,,,,,,,,,,,,,,,,,,,,,,,,,,,,,,,,,,,,,,,,,,,,,,,,,,,,,,,,,,,,,,,,,,,,,,,,,,,,,,,,,,,,,,,,,,,,,,,,,,,,,,,,,,,,,,,,,,,,
,,60196480480c1403e32285a8,2024-02-22_07h00.54.464,kallum_motion_pilot,2023.2.2,Win32,59.88023952,60196480480c1403e32285a8,65d6bb0e977760de756971f7,65d6d4d7431f118201ca1cbb,0.0297,0.0297,1,102,264,92,1,sevenfive,,,,,,,,,,,,,,,,,,,,,,,,,,,,,,,,,,,,,,,,,,,,,,,,,,,,,,,,,,,,,,,,,,,,,,,,,,,,,,,,,,,,,,,,,,,,,,,,,,,,,,,,,,,,,,,,,,,,,,,,,,,,,,,,,,,,,,,,,
,,60196480480c1403e32285a8,2024-02-22_07h00.54.464,kallum_motion_pilot,2023.2.2,Win32,59.88023952,60196480480c1403e32285a8,65d6bb0e977760de756971f7,65d6d4d7431f118201ca1cbb,0.0297,0.0299,1,103,265,93,1,seveneight,,,,,,,,,,,,,,,,,,,,,,,,,,,,,,,,,,,,,,,,,,,,,,,,,,,,,,,,,,,,,,,,,,,,,,,,,,,,,,,,,,,,,,,,,,,,,,,,,,,,,,,,,,,,,,,,,,,,,,,,,,,,,,,,,,,,,,,,,
,,60196480480c1403e32285a8,2024-02-22_07h00.54.464,kallum_motion_pilot,2023.2.2,Win32,59.88023952,60196480480c1403e32285a8,65d6bb0e977760de756971f7,65d6d4d7431f118201ca1cbb,0.0299,0.0299,1,104,266,43,1,twofour,,,,,,,,,,,,,,,,,,,,,,,,,,,,,,,,,,,,,,,,,,,,,,,,,,,,,,,,,,,,,,,,,,,,,,,,,,,,,,,,,,,,,,,,,,,,,,,,,,,,,,,,,,,,,,,,,,,,,,,,,,,,,,,,,,,,,,,,,
,,60196480480c1403e32285a8,2024-02-22_07h00.54.464,kallum_motion_pilot,2023.2.2,Win32,59.88023952,60196480480c1403e32285a8,65d6bb0e977760de756971f7,65d6d4d7431f118201ca1cbb,0.03,0.03,1,105,267,82,1,sixfive,,,,,,,,,,,,,,,,,,,,,,,,,,,,,,,,,,,,,,,,,,,,,,,,,,,,,,,,,,,,,,,,,,,,,,,,,,,,,,,,,,,,,,,,,,,,,,,,,,,,,,,,,,,,,,,,,,,,,,,,,,,,,,,,,,,,,,,,,
,,60196480480c1403e32285a8,2024-02-22_07h00.54.464,kallum_motion_pilot,2023.2.2,Win32,59.88023952,60196480480c1403e32285a8,65d6bb0e977760de756971f7,65d6d4d7431f118201ca1cbb,0.0301,0.0301,1,106,268,121,1,fiveseven,,,,,,,,,,,,,,,,,,,,,,,,,,,,,,,,,,,,,,,,,,,,,,,,,,,,,,,,,,,,,,,,,,,,,,,,,,,,,,,,,,,,,,,,,,,,,,,,,,,,,,,,,,,,,,,,,,,,,,,,,,,,,,,,,,,,,,,,,
,,60196480480c1403e32285a8,2024-02-22_07h00.54.464,kallum_motion_pilot,2023.2.2,Win32,59.88023952,60196480480c1403e32285a8,65d6bb0e977760de756971f7,65d6d4d7431f118201ca1cbb,0.0301,0.0301,1,107,269,81,1,fiveseven,,,,,,,,,,,,,,,,,,,,,,,,,,,,,,,,,,,,,,,,,,,,,,,,,,,,,,,,,,,,,,,,,,,,,,,,,,,,,,,,,,,,,,,,,,,,,,,,,,,,,,,,,,,,,,,,,,,,,,,,,,,,,,,,,,,,,,,,,
,,60196480480c1403e32285a8,2024-02-22_07h00.54.464,kallum_motion_pilot,2023.2.2,Win32,59.88023952,60196480480c1403e32285a8,65d6bb0e977760de756971f7,65d6d4d7431f118201ca1cbb,0.0302,0.0302,1,108,270,37,1,threefour,,,,,,,,,,,,,,,,,,,,,,,,,,,,,,,,,,,,,,,,,,,,,,,,,,,,,,,,,,,,,,,,,,,,,,,,,,,,,,,,,,,,,,,,,,,,,,,,,,,,,,,,,,,,,,,,,,,,,,,,,,,,,,,,,,,,,,,,,
,,60196480480c1403e32285a8,2024-02-22_07h00.54.464,kallum_motion_pilot,2023.2.2,Win32,59.88023952,60196480480c1403e32285a8,65d6bb0e977760de756971f7,65d6d4d7431f118201ca1cbb,0.0302,0.0302,1,109,271,51,1,twofour,,,,,,,,,,,,,,,,,,,,,,,,,,,,,,,,,,,,,,,,,,,,,,,,,,,,,,,,,,,,,,,,,,,,,,,,,,,,,,,,,,,,,,,,,,,,,,,,,,,,,,,,,,,,,,,,,,,,,,,,,,,,,,,,,,,,,,,,,
,,60196480480c1403e32285a8,2024-02-22_07h00.54.464,kallum_motion_pilot,2023.2.2,Win32,59.88023952,60196480480c1403e32285a8,65d6bb0e977760de756971f7,65d6d4d7431f118201ca1cbb,0.0303,0.0304,1,110,272,124,1,sevenfive,,,,,,,,,,,,,,,,,,,,,,,,,,,,,,,,,,,,,,,,,,,,,,,,,,,,,,,,,,,,,,,,,,,,,,,,,,,,,,,,,,,,,,,,,,,,,,,,,,,,,,,,,,,,,,,,,,,,,,,,,,,,,,,,,,,,,,,,,
,,60196480480c1403e32285a8,2024-02-22_07h00.54.464,kallum_motion_pilot,2023.2.2,Win32,59.88023952,60196480480c1403e32285a8,65d6bb0e977760de756971f7,65d6d4d7431f118201ca1cbb,0.0304,0.0304,1,111,273,5,1,threefour,,,,,,,,,,,,,,,,,,,,,,,,,,,,,,,,,,,,,,,,,,,,,,,,,,,,,,,,,,,,,,,,,,,,,,,,,,,,,,,,,,,,,,,,,,,,,,,,,,,,,,,,,,,,,,,,,,,,,,,,,,,,,,,,,,,,,,,,,
,,60196480480c1403e32285a8,2024-02-22_07h00.54.464,kallum_motion_pilot,2023.2.2,Win32,59.88023952,60196480480c1403e32285a8,65d6bb0e977760de756971f7,65d6d4d7431f118201ca1cbb,0.0305,0.0305,1,112,274,73,1,onethree,,,,,,,,,,,,,,,,,,,,,,,,,,,,,,,,,,,,,,,,,,,,,,,,,,,,,,,,,,,,,,,,,,,,,,,,,,,,,,,,,,,,,,,,,,,,,,,,,,,,,,,,,,,,,,,,,,,,,,,,,,,,,,,,,,,,,,,,,
,,60196480480c1403e32285a8,2024-02-22_07h00.54.464,kallum_motion_pilot,2023.2.2,Win32,59.88023952,60196480480c1403e32285a8,65d6bb0e977760de756971f7,65d6d4d7431f118201ca1cbb,0.0305,0.0305,1,113,275,111,1,eightseven,,,,,,,,,,,,,,,,,,,,,,,,,,,,,,,,,,,,,,,,,,,,,,,,,,,,,,,,,,,,,,,,,,,,,,,,,,,,,,,,,,,,,,,,,,,,,,,,,,,,,,,,,,,,,,,,,,,,,,,,,,,,,,,,,,,,,,,,,
,,60196480480c1403e32285a8,2024-02-22_07h00.54.464,kallum_motion_pilot,2023.2.2,Win32,59.88023952,60196480480c1403e32285a8,65d6bb0e977760de756971f7,65d6d4d7431f118201ca1cbb,0.0305,0.0306,1,114,276,33,1,onethree,,,,,,,,,,,,,,,,,,,,,,,,,,,,,,,,,,,,,,,,,,,,,,,,,,,,,,,,,,,,,,,,,,,,,,,,,,,,,,,,,,,,,,,,,,,,,,,,,,,,,,,,,,,,,,,,,,,,,,,,,,,,,,,,,,,,,,,,,
,,60196480480c1403e32285a8,2024-02-22_07h00.54.464,kallum_motion_pilot,2023.2.2,Win32,59.88023952,60196480480c1403e32285a8,65d6bb0e977760de756971f7,65d6d4d7431f118201ca1cbb,0.0307,0.0307,1,115,277,78,1,fourtwo,,,,,,,,,,,,,,,,,,,,,,,,,,,,,,,,,,,,,,,,,,,,,,,,,,,,,,,,,,,,,,,,,,,,,,,,,,,,,,,,,,,,,,,,,,,,,,,,,,,,,,,,,,,,,,,,,,,,,,,,,,,,,,,,,,,,,,,,,
