startup.started,startup.stopped,Prolific ID*,date,expName,psychopyVersion,OS,frameRate,participant,study_id,session,stimpositions.started,stimpositions.stopped,hardcoded_stimulus_positions.thisRepN,hardcoded_stimulus_positions.thisTrialN,hardcoded_stimulus_positions.thisN,hardcoded_stimulus_positions.thisIndex,hardcoded_stimulus_positions.ran,StimulusPos,stimorientation.started,stimorientation.stopped,prac_stimorientation_import_loop.thisRepN,prac_stimorientation_import_loop.thisTrialN,prac_stimorientation_import_loop.thisN,prac_stimorientation_import_loop.thisIndex,prac_stimorientation_import_loop.ran,Stimorientation,welcome_instr.started,welcome_instr.stopped,key_resp.keys,key_resp.rt,key_resp.duration,response_steppedout_1.started,response_steppedout_1.stopped,key_resp_20.keys,key_resp_20.rt,key_resp_20.duration,response_steppedout_2.started,response_steppedout_2.stopped,key_resp_19.keys,key_resp_19.rt,key_resp_19.duration,stim_response_instr.started,stim_response_instr.stopped,key_resp_15.keys,key_resp_15.rt,key_resp_15.duration,direction_instr_2.started,direction_instr_2.stopped,key_resp_9.keys,key_resp_9.rt,key_resp_9.duration,instr_prac.started,instr_prac.stopped,key_resp_10.keys,key_resp_10.rt,key_resp_10.duration,Stim1_display_prac.started,Stim1_display_prac.stopped,Ecc,Circle1_ori,Circle2_ori,response_prac.started,similarity,response_time,response_prac.stopped,mouse_5.x,mouse_5.y,mouse_5.leftButton,mouse_5.midButton,mouse_5.rightButton,mouse_5.clicked_name,responseprac_feedback.started,responseprac_feedback.stopped,summary2_prac.started,summary2_prac.stopped,mouse_6.x,mouse_6.y,mouse_6.leftButton,mouse_6.midButton,mouse_6.rightButton,mouse_6.clicked_name,duringprac.thisRepN,duringprac.thisTrialN,duringprac.thisN,duringprac.thisIndex,duringprac.ran,begin.started,begin.stopped,key_resp_22.keys,key_resp_22.rt,key_resp_22.duration,Stim1_display.started,Stim1_display.stopped,circle1_ori,circle2_ori,circle1_SF,circle2_SF,response.started,response.stopped,mouse.x,mouse.y,mouse.leftButton,mouse.midButton,mouse.rightButton,mouse.clicked_name,trialnumber,double_pass.thisRepN,double_pass.thisTrialN,double_pass.thisN,double_pass.thisIndex,double_pass.ran,double_pass.order,main_trial.thisRepN,main_trial.thisTrialN,main_trial.thisN,main_trial.thisIndex,main_trial.ran,main_trial.order,Trial_Counter,Catch,Frequencies,response_2.started,response_2.stopped,mouse_2.x,mouse_2.y,mouse_2.leftButton,mouse_2.midButton,mouse_2.rightButton,mouse_2.clicked_name,special_trial.started,special_trial.stopped,catch_1.started,catch_1.stopped,mouse_3.x,mouse_3.y,mouse_3.leftButton,mouse_3.midButton,mouse_3.rightButton,catchresponse,catchnumber,response_time_catch,response_sum.started,response_sum.stopped,mouse_11.x,mouse_11.y,mouse_11.leftButton,mouse_11.midButton,mouse_11.rightButton,flip_presentation_sequence_for_double_pass.started,flip_presentation_sequence_for_double_pass.stopped,goodbye.started,goodbye.stopped,key_resp_3.keys,key_resp_3.rt,key_resp_3.duration
0.001,0.0011,601e093a31a2902413e15c08,2024-02-19_02h12.58.293,kallum_motion_pilot,2023.2.2,Win32,60.60606061,601e093a31a2902413e15c08,65d2b6c8f2eece985d8e374c,65d2b885d007f5631ea9300f,,,,,,,,,,,,,,,,,,,,,,,,,,,,,,,,,,,,,,,,,,,,,,,,,,,,,,,,,,,,,,,,,,,,,,,,,,,,,,,,,,,,,,,,,,,,,,,,,,,,,,,,,,,,,,,,,,,,,,,,,,,,,,,,,,,,,,,,,,,,,,,,,
,,601e093a31a2902413e15c08,2024-02-19_02h12.58.293,kallum_motion_pilot,2023.2.2,Win32,60.60606061,601e093a31a2902413e15c08,65d2b6c8f2eece985d8e374c,65d2b885d007f5631ea9300f,0.024,0.0242,0,0,0,130,1,sixfive,,,,,,,,,,,,,,,,,,,,,,,,,,,,,,,,,,,,,,,,,,,,,,,,,,,,,,,,,,,,,,,,,,,,,,,,,,,,,,,,,,,,,,,,,,,,,,,,,,,,,,,,,,,,,,,,,,,,,,,,,,,,,,,,,,,,,,,,,
,,601e093a31a2902413e15c08,2024-02-19_02h12.58.293,kallum_motion_pilot,2023.2.2,Win32,60.60606061,601e093a31a2902413e15c08,65d2b6c8f2eece985d8e374c,65d2b885d007f5631ea9300f,0.0245,0.0245,0,1,1,17,1,onethree,,,,,,,,,,,,,,,,,,,,,,,,,,,,,,,,,,,,,,,,,,,,,,,,,,,,,,,,,,,,,,,,,,,,,,,,,,,,,,,,,,,,,,,,,,,,,,,,,,,,,,,,,,,,,,,,,,,,,,,,,,,,,,,,,,,,,,,,,
,,601e093a31a2902413e15c08,2024-02-19_02h12.58.293,kallum_motion_pilot,2023.2.2,Win32,60.60606061,601e093a31a2902413e15c08,65d2b6c8f2eece985d8e374c,65d2b885d007f5631ea9300f,0.0246,0.0246,0,2,2,112,1,fivesix,,,,,,,,,,,,,,,,,,,,,,,,,,,,,,,,,,,,,,,,,,,,,,,,,,,,,,,,,,,,,,,,,,,,,,,,,,,,,,,,,,,,,,,,,,,,,,,,,,,,,,,,,,,,,,,,,,,,,,,,,,,,,,,,,,,,,,,,,
,,601e093a31a2902413e15c08,2024-02-19_02h12.58.293,kallum_motion_pilot,2023.2.2,Win32,60.60606061,601e093a31a2902413e15c08,65d2b6c8f2eece985d8e374c,65d2b885d007f5631ea9300f,0.0248,0.0249,0,3,3,25,1,onethree,,,,,,,,,,,,,,,,,,,,,,,,,,,,,,,,,,,,,,,,,,,,,,,,,,,,,,,,,,,,,,,,,,,,,,,,,,,,,,,,,,,,,,,,,,,,,,,,,,,,,,,,,,,,,,,,,,,,,,,,,,,,,,,,,,,,,,,,,
,,601e093a31a2902413e15c08,2024-02-19_02h12.58.293,kallum_motion_pilot,2023.2.2,Win32,60.60606061,601e093a31a2902413e15c08,65d2b6c8f2eece985d8e374c,65d2b885d007f5631ea9300f,0.0251,0.0251,0,4,4,23,1,fourthree,,,,,,,,,,,,,,,,,,,,,,,,,,,,,,,,,,,,,,,,,,,,,,,,,,,,,,,,,,,,,,,,,,,,,,,,,,,,,,,,,,,,,,,,,,,,,,,,,,,,,,,,,,,,,,,,,,,,,,,,,,,,,,,,,,,,,,,,,
,,601e093a31a2902413e15c08,2024-02-19_02h12.58.293,kallum_motion_pilot,2023.2.2,Win32,60.60606061,601e093a31a2902413e15c08,65d2b6c8f2eece985d8e374c,65d2b885d007f5631ea9300f,0.0253,0.0253,0,5,5,152,1,fivesix,,,,,,,,,,,,,,,,,,,,,,,,,,,,,,,,,,,,,,,,,,,,,,,,,,,,,,,,,,,,,,,,,,,,,,,,,,,,,,,,,,,,,,,,,,,,,,,,,,,,,,,,,,,,,,,,,,,,,,,,,,,,,,,,,,,,,,,,,
,,601e093a31a2902413e15c08,2024-02-19_02h12.58.293,kallum_motion_pilot,2023.2.2,Win32,60.60606061,601e093a31a2902413e15c08,65d2b6c8f2eece985d8e374c,65d2b885d007f5631ea9300f,0.0254,0.0255,0,6,6,35,1,twofour,,,,,,,,,,,,,,,,,,,,,,,,,,,,,,,,,,,,,,,,,,,,,,,,,,,,,,,,,,,,,,,,,,,,,,,,,,,,,,,,,,,,,,,,,,,,,,,,,,,,,,,,,,,,,,,,,,,,,,,,,,,,,,,,,,,,,,,,,
,,601e093a31a2902413e15c08,2024-02-19_02h12.58.293,kallum_motion_pilot,2023.2.2,Win32,60.60606061,601e093a31a2902413e15c08,65d2b6c8f2eece985d8e374c,65d2b885d007f5631ea9300f,0.0256,0.0256,0,7,7,42,1,twoone,,,,,,,,,,,,,,,,,,,,,,,,,,,,,,,,,,,,,,,,,,,,,,,,,,,,,,,,,,,,,,,,,,,,,,,,,,,,,,,,,,,,,,,,,,,,,,,,,,,,,,,,,,,,,,,,,,,,,,,,,,,,,,,,,,,,,,,,,
,,601e093a31a2902413e15c08,2024-02-19_02h12.58.293,kallum_motion_pilot,2023.2.2,Win32,60.60606061,601e093a31a2902413e15c08,65d2b6c8f2eece985d8e374c,65d2b885d007f5631ea9300f,0.0259,0.026,0,8,8,154,1,sixfive,,,,,,,,,,,,,,,,,,,,,,,,,,,,,,,,,,,,,,,,,,,,,,,,,,,,,,,,,,,,,,,,,,,,,,,,,,,,,,,,,,,,,,,,,,,,,,,,,,,,,,,,,,,,,,,,,,,,,,,,,,,,,,,,,,,,,,,,,
,,601e093a31a2902413e15c08,2024-02-19_02h12.58.293,kallum_motion_pilot,2023.2.2,Win32,60.60606061,601e093a31a2902413e15c08,65d2b6c8f2eece985d8e374c,65d2b885d007f5631ea9300f,0.0264,0.0265,0,9,9,94,1,eightsix,,,,,,,,,,,,,,,,,,,,,,,,,,,,,,,,,,,,,,,,,,,,,,,,,,,,,,,,,,,,,,,,,,,,,,,,,,,,,,,,,,,,,,,,,,,,,,,,,,,,,,,,,,,,,,,,,,,,,,,,,,,,,,,,,,,,,,,,,
,,601e093a31a2902413e15c08,2024-02-19_02h12.58.293,kallum_motion_pilot,2023.2.2,Win32,60.60606061,601e093a31a2902413e15c08,65d2b6c8f2eece985d8e374c,65d2b885d007f5631ea9300f,0.0266,0.0266,0,10,10,138,1,sixfive,,,,,,,,,,,,,,,,,,,,,,,,,,,,,,,,,,,,,,,,,,,,,,,,,,,,,,,,,,,,,,,,,,,,,,,,,,,,,,,,,,,,,,,,,,,,,,,,,,,,,,,,,,,,,,,,,,,,,,,,,,,,,,,,,,,,,,,,,
,,601e093a31a2902413e15c08,2024-02-19_02h12.58.293,kallum_motion_pilot,2023.2.2,Win32,60.60606061,601e093a31a2902413e15c08,65d2b6c8f2eece985d8e374c,65d2b885d007f5631ea9300f,0.0269,0.0269,0,11,11,1,1,onethree,,,,,,,,,,,,,,,,,,,,,,,,,,,,,,,,,,,,,,,,,,,,,,,,,,,,,,,,,,,,,,,,,,,,,,,,,,,,,,,,,,,,,,,,,,,,,,,,,,,,,,,,,,,,,,,,,,,,,,,,,,,,,,,,,,,,,,,,,
,,601e093a31a2902413e15c08,2024-02-19_02h12.58.293,kallum_motion_pilot,2023.2.2,Win32,60.60606061,601e093a31a2902413e15c08,65d2b6c8f2eece985d8e374c,65d2b885d007f5631ea9300f,0.0271,0.0271,0,12,12,123,1,sixeight,,,,,,,,,,,,,,,,,,,,,,,,,,,,,,,,,,,,,,,,,,,,,,,,,,,,,,,,,,,,,,,,,,,,,,,,,,,,,,,,,,,,,,,,,,,,,,,,,,,,,,,,,,,,,,,,,,,,,,,,,,,,,,,,,,,,,,,,,
,,601e093a31a2902413e15c08,2024-02-19_02h12.58.293,kallum_motion_pilot,2023.2.2,Win32,60.60606061,601e093a31a2902413e15c08,65d2b6c8f2eece985d8e374c,65d2b885d007f5631ea9300f,0.0273,0.0273,0,13,13,69,1,threefour,,,,,,,,,,,,,,,,,,,,,,,,,,,,,,,,,,,,,,,,,,,,,,,,,,,,,,,,,,,,,,,,,,,,,,,,,,,,,,,,,,,,,,,,,,,,,,,,,,,,,,,,,,,,,,,,,,,,,,,,,,,,,,,,,,,,,,,,,
,,601e093a31a2902413e15c08,2024-02-19_02h12.58.293,kallum_motion_pilot,2023.2.2,Win32,60.60606061,601e093a31a2902413e15c08,65d2b6c8f2eece985d8e374c,65d2b885d007f5631ea9300f,0.0276,0.0276,0,14,14,76,1,threeone,,,,,,,,,,,,,,,,,,,,,,,,,,,,,,,,,,,,,,,,,,,,,,,,,,,,,,,,,,,,,,,,,,,,,,,,,,,,,,,,,,,,,,,,,,,,,,,,,,,,,,,,,,,,,,,,,,,,,,,,,,,,,,,,,,,,,,,,,
,,601e093a31a2902413e15c08,2024-02-19_02h12.58.293,kallum_motion_pilot,2023.2.2,Win32,60.60606061,601e093a31a2902413e15c08,65d2b6c8f2eece985d8e374c,65d2b885d007f5631ea9300f,0.0278,0.0279,0,15,15,143,1,eightseven,,,,,,,,,,,,,,,,,,,,,,,,,,,,,,,,,,,,,,,,,,,,,,,,,,,,,,,,,,,,,,,,,,,,,,,,,,,,,,,,,,,,,,,,,,,,,,,,,,,,,,,,,,,,,,,,,,,,,,,,,,,,,,,,,,,,,,,,,
,,601e093a31a2902413e15c08,2024-02-19_02h12.58.293,kallum_motion_pilot,2023.2.2,Win32,60.60606061,601e093a31a2902413e15c08,65d2b6c8f2eece985d8e374c,65d2b885d007f5631ea9300f,0.028,0.028,0,16,16,10,1,twoone,,,,,,,,,,,,,,,,,,,,,,,,,,,,,,,,,,,,,,,,,,,,,,,,,,,,,,,,,,,,,,,,,,,,,,,,,,,,,,,,,,,,,,,,,,,,,,,,,,,,,,,,,,,,,,,,,,,,,,,,,,,,,,,,,,,,,,,,,
,,601e093a31a2902413e15c08,2024-02-19_02h12.58.293,kallum_motion_pilot,2023.2.2,Win32,60.60606061,601e093a31a2902413e15c08,65d2b6c8f2eece985d8e374c,65d2b885d007f5631ea9300f,0.0281,0.0281,0,17,17,77,1,threefour,,,,,,,,,,,,,,,,,,,,,,,,,,,,,,,,,,,,,,,,,,,,,,,,,,,,,,,,,,,,,,,,,,,,,,,,,,,,,,,,,,,,,,,,,,,,,,,,,,,,,,,,,,,,,,,,,,,,,,,,,,,,,,,,,,,,,,,,,
,,601e093a31a2902413e15c08,2024-02-19_02h12.58.293,kallum_motion_pilot,2023.2.2,Win32,60.60606061,601e093a31a2902413e15c08,65d2b6c8f2eece985d8e374c,65d2b885d007f5631ea9300f,0.0283,0.0284,0,18,18,153,1,fiveseven,,,,,,,,,,,,,,,,,,,,,,,,,,,,,,,,,,,,,,,,,,,,,,,,,,,,,,,,,,,,,,,,,,,,,,,,,,,,,,,,,,,,,,,,,,,,,,,,,,,,,,,,,,,,,,,,,,,,,,,,,,,,,,,,,,,,,,,,,
,,601e093a31a2902413e15c08,2024-02-19_02h12.58.293,kallum_motion_pilot,2023.2.2,Win32,60.60606061,601e093a31a2902413e15c08,65d2b6c8f2eece985d8e374c,65d2b885d007f5631ea9300f,0.0285,0.0285,0,19,19,20,1,threeone,,,,,,,,,,,,,,,,,,,,,,,,,,,,,,,,,,,,,,,,,,,,,,,,,,,,,,,,,,,,,,,,,,,,,,,,,,,,,,,,,,,,,,,,,,,,,,,,,,,,,,,,,,,,,,,,,,,,,,,,,,,,,,,,,,,,,,,,,
,,601e093a31a2902413e15c08,2024-02-19_02h12.58.293,kallum_motion_pilot,2023.2.2,Win32,60.60606061,601e093a31a2902413e15c08,65d2b6c8f2eece985d8e374c,65d2b885d007f5631ea9300f,0.0287,0.0287,0,20,20,78,1,fourtwo,,,,,,,,,,,,,,,,,,,,,,,,,,,,,,,,,,,,,,,,,,,,,,,,,,,,,,,,,,,,,,,,,,,,,,,,,,,,,,,,,,,,,,,,,,,,,,,,,,,,,,,,,,,,,,,,,,,,,,,,,,,,,,,,,,,,,,,,,
,,601e093a31a2902413e15c08,2024-02-19_02h12.58.293,kallum_motion_pilot,2023.2.2,Win32,60.60606061,601e093a31a2902413e15c08,65d2b6c8f2eece985d8e374c,65d2b885d007f5631ea9300f,0.0288,0.0289,0,21,21,33,1,onethree,,,,,,,,,,,,,,,,,,,,,,,,,,,,,,,,,,,,,,,,,,,,,,,,,,,,,,,,,,,,,,,,,,,,,,,,,,,,,,,,,,,,,,,,,,,,,,,,,,,,,,,,,,,,,,,,,,,,,,,,,,,,,,,,,,,,,,,,,
,,601e093a31a2902413e15c08,2024-02-19_02h12.58.293,kallum_motion_pilot,2023.2.2,Win32,60.60606061,601e093a31a2902413e15c08,65d2b6c8f2eece985d8e374c,65d2b885d007f5631ea9300f,0.029,0.0291,0,22,22,84,1,sevenfive,,,,,,,,,,,,,,,,,,,,,,,,,,,,,,,,,,,,,,,,,,,,,,,,,,,,,,,,,,,,,,,,,,,,,,,,,,,,,,,,,,,,,,,,,,,,,,,,,,,,,,,,,,,,,,,,,,,,,,,,,,,,,,,,,,,,,,,,,
,,601e093a31a2902413e15c08,2024-02-19_02h12.58.293,kallum_motion_pilot,2023.2.2,Win32,60.60606061,601e093a31a2902413e15c08,65d2b6c8f2eece985d8e374c,65d2b885d007f5631ea9300f,0.0291,0.0292,0,23,23,9,1,onethree,,,,,,,,,,,,,,,,,,,,,,,,,,,,,,,,,,,,,,,,,,,,,,,,,,,,,,,,,,,,,,,,,,,,,,,,,,,,,,,,,,,,,,,,,,,,,,,,,,,,,,,,,,,,,,,,,,,,,,,,,,,,,,,,,,,,,,,,,
,,601e093a31a2902413e15c08,2024-02-19_02h12.58.293,kallum_motion_pilot,2023.2.2,Win32,60.60606061,601e093a31a2902413e15c08,65d2b6c8f2eece985d8e374c,65d2b885d007f5631ea9300f,0.0294,0.0295,0,24,24,103,1,eightseven,,,,,,,,,,,,,,,,,,,,,,,,,,,,,,,,,,,,,,,,,,,,,,,,,,,,,,,,,,,,,,,,,,,,,,,,,,,,,,,,,,,,,,,,,,,,,,,,,,,,,,,,,,,,,,,,,,,,,,,,,,,,,,,,,,,,,,,,,
,,601e093a31a2902413e15c08,2024-02-19_02h12.58.293,kallum_motion_pilot,2023.2.2,Win32,60.60606061,601e093a31a2902413e15c08,65d2b6c8f2eece985d8e374c,65d2b885d007f5631ea9300f,0.0296,0.0296,0,25,25,59,1,twofour,,,,,,,,,,,,,,,,,,,,,,,,,,,,,,,,,,,,,,,,,,,,,,,,,,,,,,,,,,,,,,,,,,,,,,,,,,,,,,,,,,,,,,,,,,,,,,,,,,,,,,,,,,,,,,,,,,,,,,,,,,,,,,,,,,,,,,,,,
,,601e093a31a2902413e15c08,2024-02-19_02h12.58.293,kallum_motion_pilot,2023.2.2,Win32,60.60606061,601e093a31a2902413e15c08,65d2b6c8f2eece985d8e374c,65d2b885d007f5631ea9300f,0.0298,0.0299,0,26,26,108,1,sevenfive,,,,,,,,,,,,,,,,,,,,,,,,,,,,,,,,,,,,,,,,,,,,,,,,,,,,,,,,,,,,,,,,,,,,,,,,,,,,,,,,,,,,,,,,,,,,,,,,,,,,,,,,,,,,,,,,,,,,,,,,,,,,,,,,,,,,,,,,,
,,601e093a31a2902413e15c08,2024-02-19_02h12.58.293,kallum_motion_pilot,2023.2.2,Win32,60.60606061,601e093a31a2902413e15c08,65d2b6c8f2eece985d8e374c,65d2b885d007f5631ea9300f,0.03,0.03,0,27,27,41,1,onethree,,,,,,,,,,,,,,,,,,,,,,,,,,,,,,,,,,,,,,,,,,,,,,,,,,,,,,,,,,,,,,,,,,,,,,,,,,,,,,,,,,,,,,,,,,,,,,,,,,,,,,,,,,,,,,,,,,,,,,,,,,,,,,,,,,,,,,,,,
,,601e093a31a2902413e15c08,2024-02-19_02h12.58.293,kallum_motion_pilot,2023.2.2,Win32,60.60606061,601e093a31a2902413e15c08,65d2b6c8f2eece985d8e374c,65d2b885d007f5631ea9300f,0.0302,0.0303,0,28,28,11,1,twofour,,,,,,,,,,,,,,,,,,,,,,,,,,,,,,,,,,,,,,,,,,,,,,,,,,,,,,,,,,,,,,,,,,,,,,,,,,,,,,,,,,,,,,,,,,,,,,,,,,,,,,,,,,,,,,,,,,,,,,,,,,,,,,,,,,,,,,,,,
,,601e093a31a2902413e15c08,2024-02-19_02h12.58.293,kallum_motion_pilot,2023.2.2,Win32,60.60606061,601e093a31a2902413e15c08,65d2b6c8f2eece985d8e374c,65d2b885d007f5631ea9300f,0.0304,0.0305,0,29,29,120,1,fivesix,,,,,,,,,,,,,,,,,,,,,,,,,,,,,,,,,,,,,,,,,,,,,,,,,,,,,,,,,,,,,,,,,,,,,,,,,,,,,,,,,,,,,,,,,,,,,,,,,,,,,,,,,,,,,,,,,,,,,,,,,,,,,,,,,,,,,,,,,
,,601e093a31a2902413e15c08,2024-02-19_02h12.58.293,kallum_motion_pilot,2023.2.2,Win32,60.60606061,601e093a31a2902413e15c08,65d2b6c8f2eece985d8e374c,65d2b885d007f5631ea9300f,0.0306,0.0306,0,30,30,22,1,fourtwo,,,,,,,,,,,,,,,,,,,,,,,,,,,,,,,,,,,,,,,,,,,,,,,,,,,,,,,,,,,,,,,,,,,,,,,,,,,,,,,,,,,,,,,,,,,,,,,,,,,,,,,,,,,,,,,,,,,,,,,,,,,,,,,,,,,,,,,,,
,,601e093a31a2902413e15c08,2024-02-19_02h12.58.293,kallum_motion_pilot,2023.2.2,Win32,60.60606061,601e093a31a2902413e15c08,65d2b6c8f2eece985d8e374c,65d2b885d007f5631ea9300f,0.0308,0.0308,0,31,31,47,1,fourthree,,,,,,,,,,,,,,,,,,,,,,,,,,,,,,,,,,,,,,,,,,,,,,,,,,,,,,,,,,,,,,,,,,,,,,,,,,,,,,,,,,,,,,,,,,,,,,,,,,,,,,,,,,,,,,,,,,,,,,,,,,,,,,,,,,,,,,,,,
,,601e093a31a2902413e15c08,2024-02-19_02h12.58.293,kallum_motion_pilot,2023.2.2,Win32,60.60606061,601e093a31a2902413e15c08,65d2b6c8f2eece985d8e374c,65d2b885d007f5631ea9300f,0.0309,0.0309,0,32,32,8,1,onetwo,,,,,,,,,,,,,,,,,,,,,,,,,,,,,,,,,,,,,,,,,,,,,,,,,,,,,,,,,,,,,,,,,,,,,,,,,,,,,,,,,,,,,,,,,,,,,,,,,,,,,,,,,,,,,,,,,,,,,,,,,,,,,,,,,,,,,,,,,
,,601e093a31a2902413e15c08,2024-02-19_02h12.58.293,kallum_motion_pilot,2023.2.2,Win32,60.60606061,601e093a31a2902413e15c08,65d2b6c8f2eece985d8e374c,65d2b885d007f5631ea9300f,0.0311,0.0311,0,33,33,93,1,seveneight,,,,,,,,,,,,,,,,,,,,,,,,,,,,,,,,,,,,,,,,,,,,,,,,,,,,,,,,,,,,,,,,,,,,,,,,,,,,,,,,,,,,,,,,,,,,,,,,,,,,,,,,,,,,,,,,,,,,,,,,,,,,,,,,,,,,,,,,,
,,601e093a31a2902413e15c08,2024-02-19_02h12.58.293,kallum_motion_pilot,2023.2.2,Win32,60.60606061,601e093a31a2902413e15c08,65d2b6c8f2eece985d8e374c,65d2b885d007f5631ea9300f,0.0313,0.0314,0,34,34,40,1,onetwo,,,,,,,,,,,,,,,,,,,,,,,,,,,,,,,,,,,,,,,,,,,,,,,,,,,,,,,,,,,,,,,,,,,,,,,,,,,,,,,,,,,,,,,,,,,,,,,,,,,,,,,,,,,,,,,,,,,,,,,,,,,,,,,,,,,,,,,,,
,,601e093a31a2902413e15c08,2024-02-19_02h12.58.293,kallum_motion_pilot,2023.2.2,Win32,60.60606061,601e093a31a2902413e15c08,65d2b6c8f2eece985d8e374c,65d2b885d007f5631ea9300f,0.0315,0.0315,0,35,35,28,1,threeone,,,,,,,,,,,,,,,,,,,,,,,,,,,,,,,,,,,,,,,,,,,,,,,,,,,,,,,,,,,,,,,,,,,,,,,,,,,,,,,,,,,,,,,,,,,,,,,,,,,,,,,,,,,,,,,,,,,,,,,,,,,,,,,,,,,,,,,,,
,,601e093a31a2902413e15c08,2024-02-19_02h12.58.293,kallum_motion_pilot,2023.2.2,Win32,60.60606061,601e093a31a2902413e15c08,65d2b6c8f2eece985d8e374c,65d2b885d007f5631ea9300f,0.0317,0.0317,0,36,36,116,1,sevenfive,,,,,,,,,,,,,,,,,,,,,,,,,,,,,,,,,,,,,,,,,,,,,,,,,,,,,,,,,,,,,,,,,,,,,,,,,,,,,,,,,,,,,,,,,,,,,,,,,,,,,,,,,,,,,,,,,,,,,,,,,,,,,,,,,,,,,,,,,
,,601e093a31a2902413e15c08,2024-02-19_02h12.58.293,kallum_motion_pilot,2023.2.2,Win32,60.60606061,601e093a31a2902413e15c08,65d2b6c8f2eece985d8e374c,65d2b885d007f5631ea9300f,0.0319,0.0319,0,37,37,18,1,twoone,,,,,,,,,,,,,,,,,,,,,,,,,,,,,,,,,,,,,,,,,,,,,,,,,,,,,,,,,,,,,,,,,,,,,,,,,,,,,,,,,,,,,,,,,,,,,,,,,,,,,,,,,,,,,,,,,,,,,,,,,,,,,,,,,,,,,,,,,
,,601e093a31a2902413e15c08,2024-02-19_02h12.58.293,kallum_motion_pilot,2023.2.2,Win32,60.60606061,601e093a31a2902413e15c08,65d2b6c8f2eece985d8e374c,65d2b885d007f5631ea9300f,0.0321,0.0321,0,38,38,83,1,sixeight,,,,,,,,,,,,,,,,,,,,,,,,,,,,,,,,,,,,,,,,,,,,,,,,,,,,,,,,,,,,,,,,,,,,,,,,,,,,,,,,,,,,,,,,,,,,,,,,,,,,,,,,,,,,,,,,,,,,,,,,,,,,,,,,,,,,,,,,,
,,601e093a31a2902413e15c08,2024-02-19_02h12.58.293,kallum_motion_pilot,2023.2.2,Win32,60.60606061,601e093a31a2902413e15c08,65d2b6c8f2eece985d8e374c,65d2b885d007f5631ea9300f,0.0324,0.0324,0,39,39,6,1,fourtwo,,,,,,,,,,,,,,,,,,,,,,,,,,,,,,,,,,,,,,,,,,,,,,,,,,,,,,,,,,,,,,,,,,,,,,,,,,,,,,,,,,,,,,,,,,,,,,,,,,,,,,,,,,,,,,,,,,,,,,,,,,,,,,,,,,,,,,,,,
,,601e093a31a2902413e15c08,2024-02-19_02h12.58.293,kallum_motion_pilot,2023.2.2,Win32,60.60606061,601e093a31a2902413e15c08,65d2b6c8f2eece985d8e374c,65d2b885d007f5631ea9300f,0.0325,0.0326,0,40,40,95,1,eightseven,,,,,,,,,,,,,,,,,,,,,,,,,,,,,,,,,,,,,,,,,,,,,,,,,,,,,,,,,,,,,,,,,,,,,,,,,,,,,,,,,,,,,,,,,,,,,,,,,,,,,,,,,,,,,,,,,,,,,,,,,,,,,,,,,,,,,,,,,
,,601e093a31a2902413e15c08,2024-02-19_02h12.58.293,kallum_motion_pilot,2023.2.2,Win32,60.60606061,601e093a31a2902413e15c08,65d2b6c8f2eece985d8e374c,65d2b885d007f5631ea9300f,0.0327,0.0328,0,41,41,27,1,twofour,,,,,,,,,,,,,,,,,,,,,,,,,,,,,,,,,,,,,,,,,,,,,,,,,,,,,,,,,,,,,,,,,,,,,,,,,,,,,,,,,,,,,,,,,,,,,,,,,,,,,,,,,,,,,,,,,,,,,,,,,,,,,,,,,,,,,,,,,
,,601e093a31a2902413e15c08,2024-02-19_02h12.58.293,kallum_motion_pilot,2023.2.2,Win32,60.60606061,601e093a31a2902413e15c08,65d2b6c8f2eece985d8e374c,65d2b885d007f5631ea9300f,0.0329,0.0329,0,42,42,155,1,sixeight,,,,,,,,,,,,,,,,,,,,,,,,,,,,,,,,,,,,,,,,,,,,,,,,,,,,,,,,,,,,,,,,,,,,,,,,,,,,,,,,,,,,,,,,,,,,,,,,,,,,,,,,,,,,,,,,,,,,,,,,,,,,,,,,,,,,,,,,,
,,601e093a31a2902413e15c08,2024-02-19_02h12.58.293,kallum_motion_pilot,2023.2.2,Win32,60.60606061,601e093a31a2902413e15c08,65d2b6c8f2eece985d8e374c,65d2b885d007f5631ea9300f,0.0331,0.0331,0,43,43,24,1,onetwo,,,,,,,,,,,,,,,,,,,,,,,,,,,,,,,,,,,,,,,,,,,,,,,,,,,,,,,,,,,,,,,,,,,,,,,,,,,,,,,,,,,,,,,,,,,,,,,,,,,,,,,,,,,,,,,,,,,,,,,,,,,,,,,,,,,,,,,,,
,,601e093a31a2902413e15c08,2024-02-19_02h12.58.293,kallum_motion_pilot,2023.2.2,Win32,60.60606061,601e093a31a2902413e15c08,65d2b6c8f2eece985d8e374c,65d2b885d007f5631ea9300f,0.0331,0.0333,0,44,44,66,1,twoone,,,,,,,,,,,,,,,,,,,,,,,,,,,,,,,,,,,,,,,,,,,,,,,,,,,,,,,,,,,,,,,,,,,,,,,,,,,,,,,,,,,,,,,,,,,,,,,,,,,,,,,,,,,,,,,,,,,,,,,,,,,,,,,,,,,,,,,,,
,,601e093a31a2902413e15c08,2024-02-19_02h12.58.293,kallum_motion_pilot,2023.2.2,Win32,60.60606061,601e093a31a2902413e15c08,65d2b6c8f2eece985d8e374c,65d2b885d007f5631ea9300f,0.0333,0.0333,0,45,45,128,1,fivesix,,,,,,,,,,,,,,,,,,,,,,,,,,,,,,,,,,,,,,,,,,,,,,,,,,,,,,,,,,,,,,,,,,,,,,,,,,,,,,,,,,,,,,,,,,,,,,,,,,,,,,,,,,,,,,,,,,,,,,,,,,,,,,,,,,,,,,,,,
,,601e093a31a2902413e15c08,2024-02-19_02h12.58.293,kallum_motion_pilot,2023.2.2,Win32,60.60606061,601e093a31a2902413e15c08,65d2b6c8f2eece985d8e374c,65d2b885d007f5631ea9300f,0.0335,0.0335,0,46,46,156,1,sevenfive,,,,,,,,,,,,,,,,,,,,,,,,,,,,,,,,,,,,,,,,,,,,,,,,,,,,,,,,,,,,,,,,,,,,,,,,,,,,,,,,,,,,,,,,,,,,,,,,,,,,,,,,,,,,,,,,,,,,,,,,,,,,,,,,,,,,,,,,,
,,601e093a31a2902413e15c08,2024-02-19_02h12.58.293,kallum_motion_pilot,2023.2.2,Win32,60.60606061,601e093a31a2902413e15c08,65d2b6c8f2eece985d8e374c,65d2b885d007f5631ea9300f,0.0336,0.0336,0,47,47,125,1,seveneight,,,,,,,,,,,,,,,,,,,,,,,,,,,,,,,,,,,,,,,,,,,,,,,,,,,,,,,,,,,,,,,,,,,,,,,,,,,,,,,,,,,,,,,,,,,,,,,,,,,,,,,,,,,,,,,,,,,,,,,,,,,,,,,,,,,,,,,,,
,,601e093a31a2902413e15c08,2024-02-19_02h12.58.293,kallum_motion_pilot,2023.2.2,Win32,60.60606061,601e093a31a2902413e15c08,65d2b6c8f2eece985d8e374c,65d2b885d007f5631ea9300f,0.0343,0.0343,0,48,48,119,1,eightseven,,,,,,,,,,,,,,,,,,,,,,,,,,,,,,,,,,,,,,,,,,,,,,,,,,,,,,,,,,,,,,,,,,,,,,,,,,,,,,,,,,,,,,,,,,,,,,,,,,,,,,,,,,,,,,,,,,,,,,,,,,,,,,,,,,,,,,,,,
,,601e093a31a2902413e15c08,2024-02-19_02h12.58.293,kallum_motion_pilot,2023.2.2,Win32,60.60606061,601e093a31a2902413e15c08,65d2b6c8f2eece985d8e374c,65d2b885d007f5631ea9300f,0.0345,0.0345,0,49,49,151,1,eightseven,,,,,,,,,,,,,,,,,,,,,,,,,,,,,,,,,,,,,,,,,,,,,,,,,,,,,,,,,,,,,,,,,,,,,,,,,,,,,,,,,,,,,,,,,,,,,,,,,,,,,,,,,,,,,,,,,,,,,,,,,,,,,,,,,,,,,,,,,
,,601e093a31a2902413e15c08,2024-02-19_02h12.58.293,kallum_motion_pilot,2023.2.2,Win32,60.60606061,601e093a31a2902413e15c08,65d2b6c8f2eece985d8e374c,65d2b885d007f5631ea9300f,0.0346,0.0347,0,50,50,101,1,seveneight,,,,,,,,,,,,,,,,,,,,,,,,,,,,,,,,,,,,,,,,,,,,,,,,,,,,,,,,,,,,,,,,,,,,,,,,,,,,,,,,,,,,,,,,,,,,,,,,,,,,,,,,,,,,,,,,,,,,,,,,,,,,,,,,,,,,,,,,,
,,601e093a31a2902413e15c08,2024-02-19_02h12.58.293,kallum_motion_pilot,2023.2.2,Win32,60.60606061,601e093a31a2902413e15c08,65d2b6c8f2eece985d8e374c,65d2b885d007f5631ea9300f,0.0347,0.0347,0,51,51,161,1,fiveseven,,,,,,,,,,,,,,,,,,,,,,,,,,,,,,,,,,,,,,,,,,,,,,,,,,,,,,,,,,,,,,,,,,,,,,,,,,,,,,,,,,,,,,,,,,,,,,,,,,,,,,,,,,,,,,,,,,,,,,,,,,,,,,,,,,,,,,,,,
,,601e093a31a2902413e15c08,2024-02-19_02h12.58.293,kallum_motion_pilot,2023.2.2,Win32,60.60606061,601e093a31a2902413e15c08,65d2b6c8f2eece985d8e374c,65d2b885d007f5631ea9300f,0.0348,0.0348,0,52,52,118,1,eightsix,,,,,,,,,,,,,,,,,,,,,,,,,,,,,,,,,,,,,,,,,,,,,,,,,,,,,,,,,,,,,,,,,,,,,,,,,,,,,,,,,,,,,,,,,,,,,,,,,,,,,,,,,,,,,,,,,,,,,,,,,,,,,,,,,,,,,,,,,
,,601e093a31a2902413e15c08,2024-02-19_02h12.58.293,kallum_motion_pilot,2023.2.2,Win32,60.60606061,601e093a31a2902413e15c08,65d2b6c8f2eece985d8e374c,65d2b885d007f5631ea9300f,0.0349,0.0349,0,53,53,98,1,sixfive,,,,,,,,,,,,,,,,,,,,,,,,,,,,,,,,,,,,,,,,,,,,,,,,,,,,,,,,,,,,,,,,,,,,,,,,,,,,,,,,,,,,,,,,,,,,,,,,,,,,,,,,,,,,,,,,,,,,,,,,,,,,,,,,,,,,,,,,,
,,601e093a31a2902413e15c08,2024-02-19_02h12.58.293,kallum_motion_pilot,2023.2.2,Win32,60.60606061,601e093a31a2902413e15c08,65d2b6c8f2eece985d8e374c,65d2b885d007f5631ea9300f,0.0351,0.0351,0,54,54,117,1,seveneight,,,,,,,,,,,,,,,,,,,,,,,,,,,,,,,,,,,,,,,,,,,,,,,,,,,,,,,,,,,,,,,,,,,,,,,,,,,,,,,,,,,,,,,,,,,,,,,,,,,,,,,,,,,,,,,,,,,,,,,,,,,,,,,,,,,,,,,,,
,,601e093a31a2902413e15c08,2024-02-19_02h12.58.293,kallum_motion_pilot,2023.2.2,Win32,60.60606061,601e093a31a2902413e15c08,65d2b6c8f2eece985d8e374c,65d2b885d007f5631ea9300f,0.0351,0.0351,0,55,55,5,1,threefour,,,,,,,,,,,,,,,,,,,,,,,,,,,,,,,,,,,,,,,,,,,,,,,,,,,,,,,,,,,,,,,,,,,,,,,,,,,,,,,,,,,,,,,,,,,,,,,,,,,,,,,,,,,,,,,,,,,,,,,,,,,,,,,,,,,,,,,,,
,,601e093a31a2902413e15c08,2024-02-19_02h12.58.293,kallum_motion_pilot,2023.2.2,Win32,60.60606061,601e093a31a2902413e15c08,65d2b6c8f2eece985d8e374c,65d2b885d007f5631ea9300f,0.0352,0.0352,0,56,56,132,1,sevenfive,,,,,,,,,,,,,,,,,,,,,,,,,,,,,,,,,,,,,,,,,,,,,,,,,,,,,,,,,,,,,,,,,,,,,,,,,,,,,,,,,,,,,,,,,,,,,,,,,,,,,,,,,,,,,,,,,,,,,,,,,,,,,,,,,,,,,,,,,
,,601e093a31a2902413e15c08,2024-02-19_02h12.58.293,kallum_motion_pilot,2023.2.2,Win32,60.60606061,601e093a31a2902413e15c08,65d2b6c8f2eece985d8e374c,65d2b885d007f5631ea9300f,0.0353,0.0353,0,57,57,107,1,sixeight,,,,,,,,,,,,,,,,,,,,,,,,,,,,,,,,,,,,,,,,,,,,,,,,,,,,,,,,,,,,,,,,,,,,,,,,,,,,,,,,,,,,,,,,,,,,,,,,,,,,,,,,,,,,,,,,,,,,,,,,,,,,,,,,,,,,,,,,,
,,601e093a31a2902413e15c08,2024-02-19_02h12.58.293,kallum_motion_pilot,2023.2.2,Win32,60.60606061,601e093a31a2902413e15c08,65d2b6c8f2eece985d8e374c,65d2b885d007f5631ea9300f,0.0355,0.0355,0,58,58,141,1,seveneight,,,,,,,,,,,,,,,,,,,,,,,,,,,,,,,,,,,,,,,,,,,,,,,,,,,,,,,,,,,,,,,,,,,,,,,,,,,,,,,,,,,,,,,,,,,,,,,,,,,,,,,,,,,,,,,,,,,,,,,,,,,,,,,,,,,,,,,,,
,,601e093a31a2902413e15c08,2024-02-19_02h12.58.293,kallum_motion_pilot,2023.2.2,Win32,60.60606061,601e093a31a2902413e15c08,65d2b6c8f2eece985d8e374c,65d2b885d007f5631ea9300f,0.0355,0.0356,0,59,59,37,1,threefour,,,,,,,,,,,,,,,,,,,,,,,,,,,,,,,,,,,,,,,,,,,,,,,,,,,,,,,,,,,,,,,,,,,,,,,,,,,,,,,,,,,,,,,,,,,,,,,,,,,,,,,,,,,,,,,,,,,,,,,,,,,,,,,,,,,,,,,,,
,,601e093a31a2902413e15c08,2024-02-19_02h12.58.293,kallum_motion_pilot,2023.2.2,Win32,60.60606061,601e093a31a2902413e15c08,65d2b6c8f2eece985d8e374c,65d2b885d007f5631ea9300f,0.0357,0.0357,0,60,60,135,1,eightseven,,,,,,,,,,,,,,,,,,,,,,,,,,,,,,,,,,,,,,,,,,,,,,,,,,,,,,,,,,,,,,,,,,,,,,,,,,,,,,,,,,,,,,,,,,,,,,,,,,,,,,,,,,,,,,,,,,,,,,,,,,,,,,,,,,,,,,,,,
,,601e093a31a2902413e15c08,2024-02-19_02h12.58.293,kallum_motion_pilot,2023.2.2,Win32,60.60606061,601e093a31a2902413e15c08,65d2b6c8f2eece985d8e374c,65d2b885d007f5631ea9300f,0.0358,0.0358,0,61,61,63,1,fourthree,,,,,,,,,,,,,,,,,,,,,,,,,,,,,,,,,,,,,,,,,,,,,,,,,,,,,,,,,,,,,,,,,,,,,,,,,,,,,,,,,,,,,,,,,,,,,,,,,,,,,,,,,,,,,,,,,,,,,,,,,,,,,,,,,,,,,,,,,
,,601e093a31a2902413e15c08,2024-02-19_02h12.58.293,kallum_motion_pilot,2023.2.2,Win32,60.60606061,601e093a31a2902413e15c08,65d2b6c8f2eece985d8e374c,65d2b885d007f5631ea9300f,0.0359,0.0359,0,62,62,60,1,threeone,,,,,,,,,,,,,,,,,,,,,,,,,,,,,,,,,,,,,,,,,,,,,,,,,,,,,,,,,,,,,,,,,,,,,,,,,,,,,,,,,,,,,,,,,,,,,,,,,,,,,,,,,,,,,,,,,,,,,,,,,,,,,,,,,,,,,,,,,
,,601e093a31a2902413e15c08,2024-02-19_02h12.58.293,kallum_motion_pilot,2023.2.2,Win32,60.60606061,601e093a31a2902413e15c08,65d2b6c8f2eece985d8e374c,65d2b885d007f5631ea9300f,0.036,0.036,0,63,63,134,1,eightsix,,,,,,,,,,,,,,,,,,,,,,,,,,,,,,,,,,,,,,,,,,,,,,,,,,,,,,,,,,,,,,,,,,,,,,,,,,,,,,,,,,,,,,,,,,,,,,,,,,,,,,,,,,,,,,,,,,,,,,,,,,,,,,,,,,,,,,,,,
,,601e093a31a2902413e15c08,2024-02-19_02h12.58.293,kallum_motion_pilot,2023.2.2,Win32,60.60606061,601e093a31a2902413e15c08,65d2b6c8f2eece985d8e374c,65d2b885d007f5631ea9300f,0.0362,0.0362,0,64,64,56,1,onetwo,,,,,,,,,,,,,,,,,,,,,,,,,,,,,,,,,,,,,,,,,,,,,,,,,,,,,,,,,,,,,,,,,,,,,,,,,,,,,,,,,,,,,,,,,,,,,,,,,,,,,,,,,,,,,,,,,,,,,,,,,,,,,,,,,,,,,,,,,
,,601e093a31a2902413e15c08,2024-02-19_02h12.58.293,kallum_motion_pilot,2023.2.2,Win32,60.60606061,601e093a31a2902413e15c08,65d2b6c8f2eece985d8e374c,65d2b885d007f5631ea9300f,0.0363,0.0364,0,65,65,16,1,onetwo,,,,,,,,,,,,,,,,,,,,,,,,,,,,,,,,,,,,,,,,,,,,,,,,,,,,,,,,,,,,,,,,,,,,,,,,,,,,,,,,,,,,,,,,,,,,,,,,,,,,,,,,,,,,,,,,,,,,,,,,,,,,,,,,,,,,,,,,,
,,601e093a31a2902413e15c08,2024-02-19_02h12.58.293,kallum_motion_pilot,2023.2.2,Win32,60.60606061,601e093a31a2902413e15c08,65d2b6c8f2eece985d8e374c,65d2b885d007f5631ea9300f,0.0365,0.0365,0,66,66,85,1,seveneight,,,,,,,,,,,,,,,,,,,,,,,,,,,,,,,,,,,,,,,,,,,,,,,,,,,,,,,,,,,,,,,,,,,,,,,,,,,,,,,,,,,,,,,,,,,,,,,,,,,,,,,,,,,,,,,,,,,,,,,,,,,,,,,,,,,,,,,,,
,,601e093a31a2902413e15c08,2024-02-19_02h12.58.293,kallum_motion_pilot,2023.2.2,Win32,60.60606061,601e093a31a2902413e15c08,65d2b6c8f2eece985d8e374c,65d2b885d007f5631ea9300f,0.0366,0.0366,0,67,67,30,1,fourtwo,,,,,,,,,,,,,,,,,,,,,,,,,,,,,,,,,,,,,,,,,,,,,,,,,,,,,,,,,,,,,,,,,,,,,,,,,,,,,,,,,,,,,,,,,,,,,,,,,,,,,,,,,,,,,,,,,,,,,,,,,,,,,,,,,,,,,,,,,
,,601e093a31a2902413e15c08,2024-02-19_02h12.58.293,kallum_motion_pilot,2023.2.2,Win32,60.60606061,601e093a31a2902413e15c08,65d2b6c8f2eece985d8e374c,65d2b885d007f5631ea9300f,0.0367,0.0367,0,68,68,75,1,twofour,,,,,,,,,,,,,,,,,,,,,,,,,,,,,,,,,,,,,,,,,,,,,,,,,,,,,,,,,,,,,,,,,,,,,,,,,,,,,,,,,,,,,,,,,,,,,,,,,,,,,,,,,,,,,,,,,,,,,,,,,,,,,,,,,,,,,,,,,
,,601e093a31a2902413e15c08,2024-02-19_02h12.58.293,kallum_motion_pilot,2023.2.2,Win32,60.60606061,601e093a31a2902413e15c08,65d2b6c8f2eece985d8e374c,65d2b885d007f5631ea9300f,0.0368,0.0368,0,69,69,136,1,fivesix,,,,,,,,,,,,,,,,,,,,,,,,,,,,,,,,,,,,,,,,,,,,,,,,,,,,,,,,,,,,,,,,,,,,,,,,,,,,,,,,,,,,,,,,,,,,,,,,,,,,,,,,,,,,,,,,,,,,,,,,,,,,,,,,,,,,,,,,,
,,601e093a31a2902413e15c08,2024-02-19_02h12.58.293,kallum_motion_pilot,2023.2.2,Win32,60.60606061,601e093a31a2902413e15c08,65d2b6c8f2eece985d8e374c,65d2b885d007f5631ea9300f,0.037,0.037,0,70,70,45,1,threefour,,,,,,,,,,,,,,,,,,,,,,,,,,,,,,,,,,,,,,,,,,,,,,,,,,,,,,,,,,,,,,,,,,,,,,,,,,,,,,,,,,,,,,,,,,,,,,,,,,,,,,,,,,,,,,,,,,,,,,,,,,,,,,,,,,,,,,,,,
,,601e093a31a2902413e15c08,2024-02-19_02h12.58.293,kallum_motion_pilot,2023.2.2,Win32,60.60606061,601e093a31a2902413e15c08,65d2b6c8f2eece985d8e374c,65d2b885d007f5631ea9300f,0.037,0.0371,0,71,71,51,1,twofour,,,,,,,,,,,,,,,,,,,,,,,,,,,,,,,,,,,,,,,,,,,,,,,,,,,,,,,,,,,,,,,,,,,,,,,,,,,,,,,,,,,,,,,,,,,,,,,,,,,,,,,,,,,,,,,,,,,,,,,,,,,,,,,,,,,,,,,,,
,,601e093a31a2902413e15c08,2024-02-19_02h12.58.293,kallum_motion_pilot,2023.2.2,Win32,60.60606061,601e093a31a2902413e15c08,65d2b6c8f2eece985d8e374c,65d2b885d007f5631ea9300f,0.0372,0.0372,0,72,72,145,1,fiveseven,,,,,,,,,,,,,,,,,,,,,,,,,,,,,,,,,,,,,,,,,,,,,,,,,,,,,,,,,,,,,,,,,,,,,,,,,,,,,,,,,,,,,,,,,,,,,,,,,,,,,,,,,,,,,,,,,,,,,,,,,,,,,,,,,,,,,,,,,
,,601e093a31a2902413e15c08,2024-02-19_02h12.58.293,kallum_motion_pilot,2023.2.2,Win32,60.60606061,601e093a31a2902413e15c08,65d2b6c8f2eece985d8e374c,65d2b885d007f5631ea9300f,0.0373,0.0373,0,73,73,62,1,fourtwo,,,,,,,,,,,,,,,,,,,,,,,,,,,,,,,,,,,,,,,,,,,,,,,,,,,,,,,,,,,,,,,,,,,,,,,,,,,,,,,,,,,,,,,,,,,,,,,,,,,,,,,,,,,,,,,,,,,,,,,,,,,,,,,,,,,,,,,,,
,,601e093a31a2902413e15c08,2024-02-19_02h12.58.293,kallum_motion_pilot,2023.2.2,Win32,60.60606061,601e093a31a2902413e15c08,65d2b6c8f2eece985d8e374c,65d2b885d007f5631ea9300f,0.0374,0.0374,0,74,74,68,1,threeone,,,,,,,,,,,,,,,,,,,,,,,,,,,,,,,,,,,,,,,,,,,,,,,,,,,,,,,,,,,,,,,,,,,,,,,,,,,,,,,,,,,,,,,,,,,,,,,,,,,,,,,,,,,,,,,,,,,,,,,,,,,,,,,,,,,,,,,,,
,,601e093a31a2902413e15c08,2024-02-19_02h12.58.293,kallum_motion_pilot,2023.2.2,Win32,60.60606061,601e093a31a2902413e15c08,65d2b6c8f2eece985d8e374c,65d2b885d007f5631ea9300f,0.0374,0.0375,0,75,75,13,1,threefour,,,,,,,,,,,,,,,,,,,,,,,,,,,,,,,,,,,,,,,,,,,,,,,,,,,,,,,,,,,,,,,,,,,,,,,,,,,,,,,,,,,,,,,,,,,,,,,,,,,,,,,,,,,,,,,,,,,,,,,,,,,,,,,,,,,,,,,,,
,,601e093a31a2902413e15c08,2024-02-19_02h12.58.293,kallum_motion_pilot,2023.2.2,Win32,60.60606061,601e093a31a2902413e15c08,65d2b6c8f2eece985d8e374c,65d2b885d007f5631ea9300f,0.0375,0.0376,0,76,76,80,1,fivesix,,,,,,,,,,,,,,,,,,,,,,,,,,,,,,,,,,,,,,,,,,,,,,,,,,,,,,,,,,,,,,,,,,,,,,,,,,,,,,,,,,,,,,,,,,,,,,,,,,,,,,,,,,,,,,,,,,,,,,,,,,,,,,,,,,,,,,,,,
,,601e093a31a2902413e15c08,2024-02-19_02h12.58.293,kallum_motion_pilot,2023.2.2,Win32,60.60606061,601e093a31a2902413e15c08,65d2b6c8f2eece985d8e374c,65d2b885d007f5631ea9300f,0.0377,0.0377,0,77,77,36,1,threeone,,,,,,,,,,,,,,,,,,,,,,,,,,,,,,,,,,,,,,,,,,,,,,,,,,,,,,,,,,,,,,,,,,,,,,,,,,,,,,,,,,,,,,,,,,,,,,,,,,,,,,,,,,,,,,,,,,,,,,,,,,,,,,,,,,,,,,,,,
,,601e093a31a2902413e15c08,2024-02-19_02h12.58.293,kallum_motion_pilot,2023.2.2,Win32,60.60606061,601e093a31a2902413e15c08,65d2b6c8f2eece985d8e374c,65d2b885d007f5631ea9300f,0.0378,0.0378,0,78,78,48,1,onetwo,,,,,,,,,,,,,,,,,,,,,,,,,,,,,,,,,,,,,,,,,,,,,,,,,,,,,,,,,,,,,,,,,,,,,,,,,,,,,,,,,,,,,,,,,,,,,,,,,,,,,,,,,,,,,,,,,,,,,,,,,,,,,,,,,,,,,,,,,
,,601e093a31a2902413e15c08,2024-02-19_02h12.58.293,kallum_motion_pilot,2023.2.2,Win32,60.60606061,601e093a31a2902413e15c08,65d2b6c8f2eece985d8e374c,65d2b885d007f5631ea9300f,0.0379,0.0379,0,79,79,55,1,fourthree,,,,,,,,,,,,,,,,,,,,,,,,,,,,,,,,,,,,,,,,,,,,,,,,,,,,,,,,,,,,,,,,,,,,,,,,,,,,,,,,,,,,,,,,,,,,,,,,,,,,,,,,,,,,,,,,,,,,,,,,,,,,,,,,,,,,,,,,,
,,601e093a31a2902413e15c08,2024-02-19_02h12.58.293,kallum_motion_pilot,2023.2.2,Win32,60.60606061,601e093a31a2902413e15c08,65d2b6c8f2eece985d8e374c,65d2b885d007f5631ea9300f,0.038,0.038,0,80,80,100,1,sevenfive,,,,,,,,,,,,,,,,,,,,,,,,,,,,,,,,,,,,,,,,,,,,,,,,,,,,,,,,,,,,,,,,,,,,,,,,,,,,,,,,,,,,,,,,,,,,,,,,,,,,,,,,,,,,,,,,,,,,,,,,,,,,,,,,,,,,,,,,,
,,601e093a31a2902413e15c08,2024-02-19_02h12.58.293,kallum_motion_pilot,2023.2.2,Win32,60.60606061,601e093a31a2902413e15c08,65d2b6c8f2eece985d8e374c,65d2b885d007f5631ea9300f,0.038,0.0381,0,81,81,87,1,eightseven,,,,,,,,,,,,,,,,,,,,,,,,,,,,,,,,,,,,,,,,,,,,,,,,,,,,,,,,,,,,,,,,,,,,,,,,,,,,,,,,,,,,,,,,,,,,,,,,,,,,,,,,,,,,,,,,,,,,,,,,,,,,,,,,,,,,,,,,,
,,601e093a31a2902413e15c08,2024-02-19_02h12.58.293,kallum_motion_pilot,2023.2.2,Win32,60.60606061,601e093a31a2902413e15c08,65d2b6c8f2eece985d8e374c,65d2b885d007f5631ea9300f,0.0382,0.0382,0,82,82,144,1,fivesix,,,,,,,,,,,,,,,,,,,,,,,,,,,,,,,,,,,,,,,,,,,,,,,,,,,,,,,,,,,,,,,,,,,,,,,,,,,,,,,,,,,,,,,,,,,,,,,,,,,,,,,,,,,,,,,,,,,,,,,,,,,,,,,,,,,,,,,,,
,,601e093a31a2902413e15c08,2024-02-19_02h12.58.293,kallum_motion_pilot,2023.2.2,Win32,60.60606061,601e093a31a2902413e15c08,65d2b6c8f2eece985d8e374c,65d2b885d007f5631ea9300f,0.0383,0.0383,0,83,83,67,1,twofour,,,,,,,,,,,,,,,,,,,,,,,,,,,,,,,,,,,,,,,,,,,,,,,,,,,,,,,,,,,,,,,,,,,,,,,,,,,,,,,,,,,,,,,,,,,,,,,,,,,,,,,,,,,,,,,,,,,,,,,,,,,,,,,,,,,,,,,,,
,,601e093a31a2902413e15c08,2024-02-19_02h12.58.293,kallum_motion_pilot,2023.2.2,Win32,60.60606061,601e093a31a2902413e15c08,65d2b6c8f2eece985d8e374c,65d2b885d007f5631ea9300f,0.0383,0.0383,0,84,84,158,1,eightsix,,,,,,,,,,,,,,,,,,,,,,,,,,,,,,,,,,,,,,,,,,,,,,,,,,,,,,,,,,,,,,,,,,,,,,,,,,,,,,,,,,,,,,,,,,,,,,,,,,,,,,,,,,,,,,,,,,,,,,,,,,,,,,,,,,,,,,,,,
,,601e093a31a2902413e15c08,2024-02-19_02h12.58.293,kallum_motion_pilot,2023.2.2,Win32,60.60606061,601e093a31a2902413e15c08,65d2b6c8f2eece985d8e374c,65d2b885d007f5631ea9300f,0.0385,0.0385,0,85,85,146,1,sixfive,,,,,,,,,,,,,,,,,,,,,,,,,,,,,,,,,,,,,,,,,,,,,,,,,,,,,,,,,,,,,,,,,,,,,,,,,,,,,,,,,,,,,,,,,,,,,,,,,,,,,,,,,,,,,,,,,,,,,,,,,,,,,,,,,,,,,,,,,
,,601e093a31a2902413e15c08,2024-02-19_02h12.58.293,kallum_motion_pilot,2023.2.2,Win32,60.60606061,601e093a31a2902413e15c08,65d2b6c8f2eece985d8e374c,65d2b885d007f5631ea9300f,0.0386,0.0386,0,86,86,114,1,sixfive,,,,,,,,,,,,,,,,,,,,,,,,,,,,,,,,,,,,,,,,,,,,,,,,,,,,,,,,,,,,,,,,,,,,,,,,,,,,,,,,,,,,,,,,,,,,,,,,,,,,,,,,,,,,,,,,,,,,,,,,,,,,,,,,,,,,,,,,,
,,601e093a31a2902413e15c08,2024-02-19_02h12.58.293,kallum_motion_pilot,2023.2.2,Win32,60.60606061,601e093a31a2902413e15c08,65d2b6c8f2eece985d8e374c,65d2b885d007f5631ea9300f,0.0386,0.0386,0,87,87,7,1,fourthree,,,,,,,,,,,,,,,,,,,,,,,,,,,,,,,,,,,,,,,,,,,,,,,,,,,,,,,,,,,,,,,,,,,,,,,,,,,,,,,,,,,,,,,,,,,,,,,,,,,,,,,,,,,,,,,,,,,,,,,,,,,,,,,,,,,,,,,,,
,,601e093a31a2902413e15c08,2024-02-19_02h12.58.293,kallum_motion_pilot,2023.2.2,Win32,60.60606061,601e093a31a2902413e15c08,65d2b6c8f2eece985d8e374c,65d2b885d007f5631ea9300f,0.0387,0.0388,0,88,88,121,1,fiveseven,,,,,,,,,,,,,,,,,,,,,,,,,,,,,,,,,,,,,,,,,,,,,,,,,,,,,,,,,,,,,,,,,,,,,,,,,,,,,,,,,,,,,,,,,,,,,,,,,,,,,,,,,,,,,,,,,,,,,,,,,,,,,,,,,,,,,,,,,
,,601e093a31a2902413e15c08,2024-02-19_02h12.58.293,kallum_motion_pilot,2023.2.2,Win32,60.60606061,601e093a31a2902413e15c08,65d2b6c8f2eece985d8e374c,65d2b885d007f5631ea9300f,0.0389,0.0389,0,89,89,3,1,twofour,,,,,,,,,,,,,,,,,,,,,,,,,,,,,,,,,,,,,,,,,,,,,,,,,,,,,,,,,,,,,,,,,,,,,,,,,,,,,,,,,,,,,,,,,,,,,,,,,,,,,,,,,,,,,,,,,,,,,,,,,,,,,,,,,,,,,,,,,
,,601e093a31a2902413e15c08,2024-02-19_02h12.58.293,kallum_motion_pilot,2023.2.2,Win32,60.60606061,601e093a31a2902413e15c08,65d2b6c8f2eece985d8e374c,65d2b885d007f5631ea9300f,0.0389,0.039,0,90,90,44,1,threeone,,,,,,,,,,,,,,,,,,,,,,,,,,,,,,,,,,,,,,,,,,,,,,,,,,,,,,,,,,,,,,,,,,,,,,,,,,,,,,,,,,,,,,,,,,,,,,,,,,,,,,,,,,,,,,,,,,,,,,,,,,,,,,,,,,,,,,,,,
,,601e093a31a2902413e15c08,2024-02-19_02h12.58.293,kallum_motion_pilot,2023.2.2,Win32,60.60606061,601e093a31a2902413e15c08,65d2b6c8f2eece985d8e374c,65d2b885d007f5631ea9300f,0.0391,0.0391,0,91,91,102,1,eightsix,,,,,,,,,,,,,,,,,,,,,,,,,,,,,,,,,,,,,,,,,,,,,,,,,,,,,,,,,,,,,,,,,,,,,,,,,,,,,,,,,,,,,,,,,,,,,,,,,,,,,,,,,,,,,,,,,,,,,,,,,,,,,,,,,,,,,,,,,
,,601e093a31a2902413e15c08,2024-02-19_02h12.58.293,kallum_motion_pilot,2023.2.2,Win32,60.60606061,601e093a31a2902413e15c08,65d2b6c8f2eece985d8e374c,65d2b885d007f5631ea9300f,0.0391,0.0392,0,92,92,111,1,eightseven,,,,,,,,,,,,,,,,,,,,,,,,,,,,,,,,,,,,,,,,,,,,,,,,,,,,,,,,,,,,,,,,,,,,,,,,,,,,,,,,,,,,,,,,,,,,,,,,,,,,,,,,,,,,,,,,,,,,,,,,,,,,,,,,,,,,,,,,,
,,601e093a31a2902413e15c08,2024-02-19_02h12.58.293,kallum_motion_pilot,2023.2.2,Win32,60.60606061,601e093a31a2902413e15c08,65d2b6c8f2eece985d8e374c,65d2b885d007f5631ea9300f,0.0393,0.0393,0,93,93,74,1,twoone,,,,,,,,,,,,,,,,,,,,,,,,,,,,,,,,,,,,,,,,,,,,,,,,,,,,,,,,,,,,,,,,,,,,,,,,,,,,,,,,,,,,,,,,,,,,,,,,,,,,,,,,,,,,,,,,,,,,,,,,,,,,,,,,,,,,,,,,,
,,601e093a31a2902413e15c08,2024-02-19_02h12.58.293,kallum_motion_pilot,2023.2.2,Win32,60.60606061,601e093a31a2902413e15c08,65d2b6c8f2eece985d8e374c,65d2b885d007f5631ea9300f,0.0394,0.0394,0,94,94,109,1,seveneight,,,,,,,,,,,,,,,,,,,,,,,,,,,,,,,,,,,,,,,,,,,,,,,,,,,,,,,,,,,,,,,,,,,,,,,,,,,,,,,,,,,,,,,,,,,,,,,,,,,,,,,,,,,,,,,,,,,,,,,,,,,,,,,,,,,,,,,,,
,,601e093a31a2902413e15c08,2024-02-19_02h12.58.293,kallum_motion_pilot,2023.2.2,Win32,60.60606061,601e093a31a2902413e15c08,65d2b6c8f2eece985d8e374c,65d2b885d007f5631ea9300f,0.0395,0.0395,0,95,95,148,1,sevenfive,,,,,,,,,,,,,,,,,,,,,,,,,,,,,,,,,,,,,,,,,,,,,,,,,,,,,,,,,,,,,,,,,,,,,,,,,,,,,,,,,,,,,,,,,,,,,,,,,,,,,,,,,,,,,,,,,,,,,,,,,,,,,,,,,,,,,,,,,
,,601e093a31a2902413e15c08,2024-02-19_02h12.58.293,kallum_motion_pilot,2023.2.2,Win32,60.60606061,601e093a31a2902413e15c08,65d2b6c8f2eece985d8e374c,65d2b885d007f5631ea9300f,0.0396,0.0396,0,96,96,72,1,onetwo,,,,,,,,,,,,,,,,,,,,,,,,,,,,,,,,,,,,,,,,,,,,,,,,,,,,,,,,,,,,,,,,,,,,,,,,,,,,,,,,,,,,,,,,,,,,,,,,,,,,,,,,,,,,,,,,,,,,,,,,,,,,,,,,,,,,,,,,,
,,601e093a31a2902413e15c08,2024-02-19_02h12.58.293,kallum_motion_pilot,2023.2.2,Win32,60.60606061,601e093a31a2902413e15c08,65d2b6c8f2eece985d8e374c,65d2b885d007f5631ea9300f,0.0396,0.0397,0,97,97,54,1,fourtwo,,,,,,,,,,,,,,,,,,,,,,,,,,,,,,,,,,,,,,,,,,,,,,,,,,,,,,,,,,,,,,,,,,,,,,,,,,,,,,,,,,,,,,,,,,,,,,,,,,,,,,,,,,,,,,,,,,,,,,,,,,,,,,,,,,,,,,,,,
,,601e093a31a2902413e15c08,2024-02-19_02h12.58.293,kallum_motion_pilot,2023.2.2,Win32,60.60606061,601e093a31a2902413e15c08,65d2b6c8f2eece985d8e374c,65d2b885d007f5631ea9300f,0.0398,0.0398,0,98,98,124,1,sevenfive,,,,,,,,,,,,,,,,,,,,,,,,,,,,,,,,,,,,,,,,,,,,,,,,,,,,,,,,,,,,,,,,,,,,,,,,,,,,,,,,,,,,,,,,,,,,,,,,,,,,,,,,,,,,,,,,,,,,,,,,,,,,,,,,,,,,,,,,,
,,601e093a31a2902413e15c08,2024-02-19_02h12.58.293,kallum_motion_pilot,2023.2.2,Win32,60.60606061,601e093a31a2902413e15c08,65d2b6c8f2eece985d8e374c,65d2b885d007f5631ea9300f,0.0398,0.0398,0,99,99,46,1,fourtwo,,,,,,,,,,,,,,,,,,,,,,,,,,,,,,,,,,,,,,,,,,,,,,,,,,,,,,,,,,,,,,,,,,,,,,,,,,,,,,,,,,,,,,,,,,,,,,,,,,,,,,,,,,,,,,,,,,,,,,,,,,,,,,,,,,,,,,,,,
,,601e093a31a2902413e15c08,2024-02-19_02h12.58.293,kallum_motion_pilot,2023.2.2,Win32,60.60606061,601e093a31a2902413e15c08,65d2b6c8f2eece985d8e374c,65d2b885d007f5631ea9300f,0.0399,0.04,0,100,100,2,1,twoone,,,,,,,,,,,,,,,,,,,,,,,,,,,,,,,,,,,,,,,,,,,,,,,,,,,,,,,,,,,,,,,,,,,,,,,,,,,,,,,,,,,,,,,,,,,,,,,,,,,,,,,,,,,,,,,,,,,,,,,,,,,,,,,,,,,,,,,,,
,,601e093a31a2902413e15c08,2024-02-19_02h12.58.293,kallum_motion_pilot,2023.2.2,Win32,60.60606061,601e093a31a2902413e15c08,65d2b6c8f2eece985d8e374c,65d2b885d007f5631ea9300f,0.0401,0.0401,0,101,101,137,1,fiveseven,,,,,,,,,,,,,,,,,,,,,,,,,,,,,,,,,,,,,,,,,,,,,,,,,,,,,,,,,,,,,,,,,,,,,,,,,,,,,,,,,,,,,,,,,,,,,,,,,,,,,,,,,,,,,,,,,,,,,,,,,,,,,,,,,,,,,,,,,
,,601e093a31a2902413e15c08,2024-02-19_02h12.58.293,kallum_motion_pilot,2023.2.2,Win32,60.60606061,601e093a31a2902413e15c08,65d2b6c8f2eece985d8e374c,65d2b885d007f5631ea9300f,0.0402,0.0402,0,102,102,65,1,onethree,,,,,,,,,,,,,,,,,,,,,,,,,,,,,,,,,,,,,,,,,,,,,,,,,,,,,,,,,,,,,,,,,,,,,,,,,,,,,,,,,,,,,,,,,,,,,,,,,,,,,,,,,,,,,,,,,,,,,,,,,,,,,,,,,,,,,,,,,
,,601e093a31a2902413e15c08,2024-02-19_02h12.58.293,kallum_motion_pilot,2023.2.2,Win32,60.60606061,601e093a31a2902413e15c08,65d2b6c8f2eece985d8e374c,65d2b885d007f5631ea9300f,0.0402,0.0403,0,103,103,61,1,threefour,,,,,,,,,,,,,,,,,,,,,,,,,,,,,,,,,,,,,,,,,,,,,,,,,,,,,,,,,,,,,,,,,,,,,,,,,,,,,,,,,,,,,,,,,,,,,,,,,,,,,,,,,,,,,,,,,,,,,,,,,,,,,,,,,,,,,,,,,
,,601e093a31a2902413e15c08,2024-02-19_02h12.58.293,kallum_motion_pilot,2023.2.2,Win32,60.60606061,601e093a31a2902413e15c08,65d2b6c8f2eece985d8e374c,65d2b885d007f5631ea9300f,0.0404,0.0404,0,104,104,43,1,twofour,,,,,,,,,,,,,,,,,,,,,,,,,,,,,,,,,,,,,,,,,,,,,,,,,,,,,,,,,,,,,,,,,,,,,,,,,,,,,,,,,,,,,,,,,,,,,,,,,,,,,,,,,,,,,,,,,,,,,,,,,,,,,,,,,,,,,,,,,
,,601e093a31a2902413e15c08,2024-02-19_02h12.58.293,kallum_motion_pilot,2023.2.2,Win32,60.60606061,601e093a31a2902413e15c08,65d2b6c8f2eece985d8e374c,65d2b885d007f5631ea9300f,0.0405,0.0405,0,105,105,147,1,sixeight,,,,,,,,,,,,,,,,,,,,,,,,,,,,,,,,,,,,,,,,,,,,,,,,,,,,,,,,,,,,,,,,,,,,,,,,,,,,,,,,,,,,,,,,,,,,,,,,,,,,,,,,,,,,,,,,,,,,,,,,,,,,,,,,,,,,,,,,,
,,601e093a31a2902413e15c08,2024-02-19_02h12.58.293,kallum_motion_pilot,2023.2.2,Win32,60.60606061,601e093a31a2902413e15c08,65d2b6c8f2eece985d8e374c,65d2b885d007f5631ea9300f,0.0406,0.0407,0,106,106,89,1,fiveseven,,,,,,,,,,,,,,,,,,,,,,,,,,,,,,,,,,,,,,,,,,,,,,,,,,,,,,,,,,,,,,,,,,,,,,,,,,,,,,,,,,,,,,,,,,,,,,,,,,,,,,,,,,,,,,,,,,,,,,,,,,,,,,,,,,,,,,,,,
,,601e093a31a2902413e15c08,2024-02-19_02h12.58.293,kallum_motion_pilot,2023.2.2,Win32,60.60606061,601e093a31a2902413e15c08,65d2b6c8f2eece985d8e374c,65d2b885d007f5631ea9300f,0.0407,0.0407,0,107,107,160,1,fivesix,,,,,,,,,,,,,,,,,,,,,,,,,,,,,,,,,,,,,,,,,,,,,,,,,,,,,,,,,,,,,,,,,,,,,,,,,,,,,,,,,,,,,,,,,,,,,,,,,,,,,,,,,,,,,,,,,,,,,,,,,,,,,,,,,,,,,,,,,
,,601e093a31a2902413e15c08,2024-02-19_02h12.58.293,kallum_motion_pilot,2023.2.2,Win32,60.60606061,601e093a31a2902413e15c08,65d2b6c8f2eece985d8e374c,65d2b885d007f5631ea9300f,0.0408,0.0408,0,108,108,113,1,fiveseven,,,,,,,,,,,,,,,,,,,,,,,,,,,,,,,,,,,,,,,,,,,,,,,,,,,,,,,,,,,,,,,,,,,,,,,,,,,,,,,,,,,,,,,,,,,,,,,,,,,,,,,,,,,,,,,,,,,,,,,,,,,,,,,,,,,,,,,,,
,,601e093a31a2902413e15c08,2024-02-19_02h12.58.293,kallum_motion_pilot,2023.2.2,Win32,60.60606061,601e093a31a2902413e15c08,65d2b6c8f2eece985d8e374c,65d2b885d007f5631ea9300f,0.0409,0.0409,0,109,109,90,1,sixfive,,,,,,,,,,,,,,,,,,,,,,,,,,,,,,,,,,,,,,,,,,,,,,,,,,,,,,,,,,,,,,,,,,,,,,,,,,,,,,,,,,,,,,,,,,,,,,,,,,,,,,,,,,,,,,,,,,,,,,,,,,,,,,,,,,,,,,,,,
,,601e093a31a2902413e15c08,2024-02-19_02h12.58.293,kallum_motion_pilot,2023.2.2,Win32,60.60606061,601e093a31a2902413e15c08,65d2b6c8f2eece985d8e374c,65d2b885d007f5631ea9300f,0.041,0.0411,0,110,110,110,1,eightsix,,,,,,,,,,,,,,,,,,,,,,,,,,,,,,,,,,,,,,,,,,,,,,,,,,,,,,,,,,,,,,,,,,,,,,,,,,,,,,,,,,,,,,,,,,,,,,,,,,,,,,,,,,,,,,,,,,,,,,,,,,,,,,,,,,,,,,,,,
,,601e093a31a2902413e15c08,2024-02-19_02h12.58.293,kallum_motion_pilot,2023.2.2,Win32,60.60606061,601e093a31a2902413e15c08,65d2b6c8f2eece985d8e374c,65d2b885d007f5631ea9300f,0.0411,0.0411,0,111,111,29,1,threefour,,,,,,,,,,,,,,,,,,,,,,,,,,,,,,,,,,,,,,,,,,,,,,,,,,,,,,,,,,,,,,,,,,,,,,,,,,,,,,,,,,,,,,,,,,,,,,,,,,,,,,,,,,,,,,,,,,,,,,,,,,,,,,,,,,,,,,,,,
,,601e093a31a2902413e15c08,2024-02-19_02h12.58.293,kallum_motion_pilot,2023.2.2,Win32,60.60606061,601e093a31a2902413e15c08,65d2b6c8f2eece985d8e374c,65d2b885d007f5631ea9300f,0.0412,0.0412,0,112,112,127,1,eightseven,,,,,,,,,,,,,,,,,,,,,,,,,,,,,,,,,,,,,,,,,,,,,,,,,,,,,,,,,,,,,,,,,,,,,,,,,,,,,,,,,,,,,,,,,,,,,,,,,,,,,,,,,,,,,,,,,,,,,,,,,,,,,,,,,,,,,,,,,
,,601e093a31a2902413e15c08,2024-02-19_02h12.58.293,kallum_motion_pilot,2023.2.2,Win32,60.60606061,601e093a31a2902413e15c08,65d2b6c8f2eece985d8e374c,65d2b885d007f5631ea9300f,0.0413,0.0414,0,113,113,15,1,fourthree,,,,,,,,,,,,,,,,,,,,,,,,,,,,,,,,,,,,,,,,,,,,,,,,,,,,,,,,,,,,,,,,,,,,,,,,,,,,,,,,,,,,,,,,,,,,,,,,,,,,,,,,,,,,,,,,,,,,,,,,,,,,,,,,,,,,,,,,,
,,601e093a31a2902413e15c08,2024-02-19_02h12.58.293,kallum_motion_pilot,2023.2.2,Win32,60.60606061,601e093a31a2902413e15c08,65d2b6c8f2eece985d8e374c,65d2b885d007f5631ea9300f,0.0414,0.0415,0,114,114,12,1,threeone,,,,,,,,,,,,,,,,,,,,,,,,,,,,,,,,,,,,,,,,,,,,,,,,,,,,,,,,,,,,,,,,,,,,,,,,,,,,,,,,,,,,,,,,,,,,,,,,,,,,,,,,,,,,,,,,,,,,,,,,,,,,,,,,,,,,,,,,,
,,601e093a31a2902413e15c08,2024-02-19_02h12.58.293,kallum_motion_pilot,2023.2.2,Win32,60.60606061,601e093a31a2902413e15c08,65d2b6c8f2eece985d8e374c,65d2b885d007f5631ea9300f,0.0415,0.0415,0,115,115,140,1,sevenfive,,,,,,,,,,,,,,,,,,,,,,,,,,,,,,,,,,,,,,,,,,,,,,,,,,,,,,,,,,,,,,,,,,,,,,,,,,,,,,,,,,,,,,,,,,,,,,,,,,,,,,,,,,,,,,,,,,,,,,,,,,,,,,,,,,,,,,,,,
,,601e093a31a2902413e15c08,2024-02-19_02h12.58.293,kallum_motion_pilot,2023.2.2,Win32,60.60606061,601e093a31a2902413e15c08,65d2b6c8f2eece985d8e374c,65d2b885d007f5631ea9300f,0.0416,0.0417,0,116,116,150,1,eightsix,,,,,,,,,,,,,,,,,,,,,,,,,,,,,,,,,,,,,,,,,,,,,,,,,,,,,,,,,,,,,,,,,,,,,,,,,,,,,,,,,,,,,,,,,,,,,,,,,,,,,,,,,,,,,,,,,,,,,,,,,,,,,,,,,,,,,,,,,
,,601e093a31a2902413e15c08,2024-02-19_02h12.58.293,kallum_motion_pilot,2023.2.2,Win32,60.60606061,601e093a31a2902413e15c08,65d2b6c8f2eece985d8e374c,65d2b885d007f5631ea9300f,0.0417,0.0418,0,117,117,115,1,sixeight,,,,,,,,,,,,,,,,,,,,,,,,,,,,,,,,,,,,,,,,,,,,,,,,,,,,,,,,,,,,,,,,,,,,,,,,,,,,,,,,,,,,,,,,,,,,,,,,,,,,,,,,,,,,,,,,,,,,,,,,,,,,,,,,,,,,,,,,,
,,601e093a31a2902413e15c08,2024-02-19_02h12.58.293,kallum_motion_pilot,2023.2.2,Win32,60.60606061,601e093a31a2902413e15c08,65d2b6c8f2eece985d8e374c,65d2b885d007f5631ea9300f,0.0419,0.042,0,118,118,88,1,fivesix,,,,,,,,,,,,,,,,,,,,,,,,,,,,,,,,,,,,,,,,,,,,,,,,,,,,,,,,,,,,,,,,,,,,,,,,,,,,,,,,,,,,,,,,,,,,,,,,,,,,,,,,,,,,,,,,,,,,,,,,,,,,,,,,,,,,,,,,,
,,601e093a31a2902413e15c08,2024-02-19_02h12.58.293,kallum_motion_pilot,2023.2.2,Win32,60.60606061,601e093a31a2902413e15c08,65d2b6c8f2eece985d8e374c,65d2b885d007f5631ea9300f,0.0421,0.0422,0,119,119,105,1,fiveseven,,,,,,,,,,,,,,,,,,,,,,,,,,,,,,,,,,,,,,,,,,,,,,,,,,,,,,,,,,,,,,,,,,,,,,,,,,,,,,,,,,,,,,,,,,,,,,,,,,,,,,,,,,,,,,,,,,,,,,,,,,,,,,,,,,,,,,,,,
,,601e093a31a2902413e15c08,2024-02-19_02h12.58.293,kallum_motion_pilot,2023.2.2,Win32,60.60606061,601e093a31a2902413e15c08,65d2b6c8f2eece985d8e374c,65d2b885d007f5631ea9300f,0.0423,0.0424,0,120,120,129,1,fiveseven,,,,,,,,,,,,,,,,,,,,,,,,,,,,,,,,,,,,,,,,,,,,,,,,,,,,,,,,,,,,,,,,,,,,,,,,,,,,,,,,,,,,,,,,,,,,,,,,,,,,,,,,,,,,,,,,,,,,,,,,,,,,,,,,,,,,,,,,,
,,601e093a31a2902413e15c08,2024-02-19_02h12.58.293,kallum_motion_pilot,2023.2.2,Win32,60.60606061,601e093a31a2902413e15c08,65d2b6c8f2eece985d8e374c,65d2b885d007f5631ea9300f,0.0425,0.0425,0,121,121,34,1,twoone,,,,,,,,,,,,,,,,,,,,,,,,,,,,,,,,,,,,,,,,,,,,,,,,,,,,,,,,,,,,,,,,,,,,,,,,,,,,,,,,,,,,,,,,,,,,,,,,,,,,,,,,,,,,,,,,,,,,,,,,,,,,,,,,,,,,,,,,,
,,601e093a31a2902413e15c08,2024-02-19_02h12.58.293,kallum_motion_pilot,2023.2.2,Win32,60.60606061,601e093a31a2902413e15c08,65d2b6c8f2eece985d8e374c,65d2b885d007f5631ea9300f,0.0426,0.0428,0,122,122,73,1,onethree,,,,,,,,,,,,,,,,,,,,,,,,,,,,,,,,,,,,,,,,,,,,,,,,,,,,,,,,,,,,,,,,,,,,,,,,,,,,,,,,,,,,,,,,,,,,,,,,,,,,,,,,,,,,,,,,,,,,,,,,,,,,,,,,,,,,,,,,,
,,601e093a31a2902413e15c08,2024-02-19_02h12.58.293,kallum_motion_pilot,2023.2.2,Win32,60.60606061,601e093a31a2902413e15c08,65d2b6c8f2eece985d8e374c,65d2b885d007f5631ea9300f,0.043,0.043,0,123,123,58,1,twoone,,,,,,,,,,,,,,,,,,,,,,,,,,,,,,,,,,,,,,,,,,,,,,,,,,,,,,,,,,,,,,,,,,,,,,,,,,,,,,,,,,,,,,,,,,,,,,,,,,,,,,,,,,,,,,,,,,,,,,,,,,,,,,,,,,,,,,,,,
,,601e093a31a2902413e15c08,2024-02-19_02h12.58.293,kallum_motion_pilot,2023.2.2,Win32,60.60606061,601e093a31a2902413e15c08,65d2b6c8f2eece985d8e374c,65d2b885d007f5631ea9300f,0.0432,0.0432,0,124,124,86,1,eightsix,,,,,,,,,,,,,,,,,,,,,,,,,,,,,,,,,,,,,,,,,,,,,,,,,,,,,,,,,,,,,,,,,,,,,,,,,,,,,,,,,,,,,,,,,,,,,,,,,,,,,,,,,,,,,,,,,,,,,,,,,,,,,,,,,,,,,,,,,
,,601e093a31a2902413e15c08,2024-02-19_02h12.58.293,kallum_motion_pilot,2023.2.2,Win32,60.60606061,601e093a31a2902413e15c08,65d2b6c8f2eece985d8e374c,65d2b885d007f5631ea9300f,0.0434,0.0435,0,125,125,52,1,threeone,,,,,,,,,,,,,,,,,,,,,,,,,,,,,,,,,,,,,,,,,,,,,,,,,,,,,,,,,,,,,,,,,,,,,,,,,,,,,,,,,,,,,,,,,,,,,,,,,,,,,,,,,,,,,,,,,,,,,,,,,,,,,,,,,,,,,,,,,
,,601e093a31a2902413e15c08,2024-02-19_02h12.58.293,kallum_motion_pilot,2023.2.2,Win32,60.60606061,601e093a31a2902413e15c08,65d2b6c8f2eece985d8e374c,65d2b885d007f5631ea9300f,0.0436,0.0437,0,126,126,70,1,fourtwo,,,,,,,,,,,,,,,,,,,,,,,,,,,,,,,,,,,,,,,,,,,,,,,,,,,,,,,,,,,,,,,,,,,,,,,,,,,,,,,,,,,,,,,,,,,,,,,,,,,,,,,,,,,,,,,,,,,,,,,,,,,,,,,,,,,,,,,,,
,,601e093a31a2902413e15c08,2024-02-19_02h12.58.293,kallum_motion_pilot,2023.2.2,Win32,60.60606061,601e093a31a2902413e15c08,65d2b6c8f2eece985d8e374c,65d2b885d007f5631ea9300f,0.0438,0.0439,0,127,127,149,1,seveneight,,,,,,,,,,,,,,,,,,,,,,,,,,,,,,,,,,,,,,,,,,,,,,,,,,,,,,,,,,,,,,,,,,,,,,,,,,,,,,,,,,,,,,,,,,,,,,,,,,,,,,,,,,,,,,,,,,,,,,,,,,,,,,,,,,,,,,,,,
,,601e093a31a2902413e15c08,2024-02-19_02h12.58.293,kallum_motion_pilot,2023.2.2,Win32,60.60606061,601e093a31a2902413e15c08,65d2b6c8f2eece985d8e374c,65d2b885d007f5631ea9300f,0.044,0.0442,0,128,128,19,1,twofour,,,,,,,,,,,,,,,,,,,,,,,,,,,,,,,,,,,,,,,,,,,,,,,,,,,,,,,,,,,,,,,,,,,,,,,,,,,,,,,,,,,,,,,,,,,,,,,,,,,,,,,,,,,,,,,,,,,,,,,,,,,,,,,,,,,,,,,,,
,,601e093a31a2902413e15c08,2024-02-19_02h12.58.293,kallum_motion_pilot,2023.2.2,Win32,60.60606061,601e093a31a2902413e15c08,65d2b6c8f2eece985d8e374c,65d2b885d007f5631ea9300f,0.0442,0.0444,0,129,129,104,1,fivesix,,,,,,,,,,,,,,,,,,,,,,,,,,,,,,,,,,,,,,,,,,,,,,,,,,,,,,,,,,,,,,,,,,,,,,,,,,,,,,,,,,,,,,,,,,,,,,,,,,,,,,,,,,,,,,,,,,,,,,,,,,,,,,,,,,,,,,,,,
,,601e093a31a2902413e15c08,2024-02-19_02h12.58.293,kallum_motion_pilot,2023.2.2,Win32,60.60606061,601e093a31a2902413e15c08,65d2b6c8f2eece985d8e374c,65d2b885d007f5631ea9300f,0.0445,0.0446,0,130,130,21,1,threefour,,,,,,,,,,,,,,,,,,,,,,,,,,,,,,,,,,,,,,,,,,,,,,,,,,,,,,,,,,,,,,,,,,,,,,,,,,,,,,,,,,,,,,,,,,,,,,,,,,,,,,,,,,,,,,,,,,,,,,,,,,,,,,,,,,,,,,,,,
,,601e093a31a2902413e15c08,2024-02-19_02h12.58.293,kallum_motion_pilot,2023.2.2,Win32,60.60606061,601e093a31a2902413e15c08,65d2b6c8f2eece985d8e374c,65d2b885d007f5631ea9300f,0.0447,0.0448,0,131,131,39,1,fourthree,,,,,,,,,,,,,,,,,,,,,,,,,,,,,,,,,,,,,,,,,,,,,,,,,,,,,,,,,,,,,,,,,,,,,,,,,,,,,,,,,,,,,,,,,,,,,,,,,,,,,,,,,,,,,,,,,,,,,,,,,,,,,,,,,,,,,,,,,
,,601e093a31a2902413e15c08,2024-02-19_02h12.58.293,kallum_motion_pilot,2023.2.2,Win32,60.60606061,601e093a31a2902413e15c08,65d2b6c8f2eece985d8e374c,65d2b885d007f5631ea9300f,0.0449,0.0449,0,132,132,139,1,sixeight,,,,,,,,,,,,,,,,,,,,,,,,,,,,,,,,,,,,,,,,,,,,,,,,,,,,,,,,,,,,,,,,,,,,,,,,,,,,,,,,,,,,,,,,,,,,,,,,,,,,,,,,,,,,,,,,,,,,,,,,,,,,,,,,,,,,,,,,,
,,601e093a31a2902413e15c08,2024-02-19_02h12.58.293,kallum_motion_pilot,2023.2.2,Win32,60.60606061,601e093a31a2902413e15c08,65d2b6c8f2eece985d8e374c,65d2b885d007f5631ea9300f,0.045,0.045,0,133,133,32,1,onetwo,,,,,,,,,,,,,,,,,,,,,,,,,,,,,,,,,,,,,,,,,,,,,,,,,,,,,,,,,,,,,,,,,,,,,,,,,,,,,,,,,,,,,,,,,,,,,,,,,,,,,,,,,,,,,,,,,,,,,,,,,,,,,,,,,,,,,,,,,
,,601e093a31a2902413e15c08,2024-02-19_02h12.58.293,kallum_motion_pilot,2023.2.2,Win32,60.60606061,601e093a31a2902413e15c08,65d2b6c8f2eece985d8e374c,65d2b885d007f5631ea9300f,0.045,0.0451,0,134,134,106,1,sixfive,,,,,,,,,,,,,,,,,,,,,,,,,,,,,,,,,,,,,,,,,,,,,,,,,,,,,,,,,,,,,,,,,,,,,,,,,,,,,,,,,,,,,,,,,,,,,,,,,,,,,,,,,,,,,,,,,,,,,,,,,,,,,,,,,,,,,,,,,
,,601e093a31a2902413e15c08,2024-02-19_02h12.58.293,kallum_motion_pilot,2023.2.2,Win32,60.60606061,601e093a31a2902413e15c08,65d2b6c8f2eece985d8e374c,65d2b885d007f5631ea9300f,0.0452,0.0452,0,135,135,96,1,fivesix,,,,,,,,,,,,,,,,,,,,,,,,,,,,,,,,,,,,,,,,,,,,,,,,,,,,,,,,,,,,,,,,,,,,,,,,,,,,,,,,,,,,,,,,,,,,,,,,,,,,,,,,,,,,,,,,,,,,,,,,,,,,,,,,,,,,,,,,,
,,601e093a31a2902413e15c08,2024-02-19_02h12.58.293,kallum_motion_pilot,2023.2.2,Win32,60.60606061,601e093a31a2902413e15c08,65d2b6c8f2eece985d8e374c,65d2b885d007f5631ea9300f,0.0453,0.0453,0,136,136,92,1,sevenfive,,,,,,,,,,,,,,,,,,,,,,,,,,,,,,,,,,,,,,,,,,,,,,,,,,,,,,,,,,,,,,,,,,,,,,,,,,,,,,,,,,,,,,,,,,,,,,,,,,,,,,,,,,,,,,,,,,,,,,,,,,,,,,,,,,,,,,,,,
,,601e093a31a2902413e15c08,2024-02-19_02h12.58.293,kallum_motion_pilot,2023.2.2,Win32,60.60606061,601e093a31a2902413e15c08,65d2b6c8f2eece985d8e374c,65d2b885d007f5631ea9300f,0.0454,0.0455,0,137,137,50,1,twoone,,,,,,,,,,,,,,,,,,,,,,,,,,,,,,,,,,,,,,,,,,,,,,,,,,,,,,,,,,,,,,,,,,,,,,,,,,,,,,,,,,,,,,,,,,,,,,,,,,,,,,,,,,,,,,,,,,,,,,,,,,,,,,,,,,,,,,,,,
,,601e093a31a2902413e15c08,2024-02-19_02h12.58.293,kallum_motion_pilot,2023.2.2,Win32,60.60606061,601e093a31a2902413e15c08,65d2b6c8f2eece985d8e374c,65d2b885d007f5631ea9300f,0.0456,0.0456,0,138,138,126,1,eightsix,,,,,,,,,,,,,,,,,,,,,,,,,,,,,,,,,,,,,,,,,,,,,,,,,,,,,,,,,,,,,,,,,,,,,,,,,,,,,,,,,,,,,,,,,,,,,,,,,,,,,,,,,,,,,,,,,,,,,,,,,,,,,,,,,,,,,,,,,
,,601e093a31a2902413e15c08,2024-02-19_02h12.58.293,kallum_motion_pilot,2023.2.2,Win32,60.60606061,601e093a31a2902413e15c08,65d2b6c8f2eece985d8e374c,65d2b885d007f5631ea9300f,0.0457,0.0458,0,139,139,49,1,onethree,,,,,,,,,,,,,,,,,,,,,,,,,,,,,,,,,,,,,,,,,,,,,,,,,,,,,,,,,,,,,,,,,,,,,,,,,,,,,,,,,,,,,,,,,,,,,,,,,,,,,,,,,,,,,,,,,,,,,,,,,,,,,,,,,,,,,,,,,
,,601e093a31a2902413e15c08,2024-02-19_02h12.58.293,kallum_motion_pilot,2023.2.2,Win32,60.60606061,601e093a31a2902413e15c08,65d2b6c8f2eece985d8e374c,65d2b885d007f5631ea9300f,0.0458,0.0459,0,140,140,81,1,fiveseven,,,,,,,,,,,,,,,,,,,,,,,,,,,,,,,,,,,,,,,,,,,,,,,,,,,,,,,,,,,,,,,,,,,,,,,,,,,,,,,,,,,,,,,,,,,,,,,,,,,,,,,,,,,,,,,,,,,,,,,,,,,,,,,,,,,,,,,,,
,,601e093a31a2902413e15c08,2024-02-19_02h12.58.293,kallum_motion_pilot,2023.2.2,Win32,60.60606061,601e093a31a2902413e15c08,65d2b6c8f2eece985d8e374c,65d2b885d007f5631ea9300f,0.0459,0.046,0,141,141,159,1,eightseven,,,,,,,,,,,,,,,,,,,,,,,,,,,,,,,,,,,,,,,,,,,,,,,,,,,,,,,,,,,,,,,,,,,,,,,,,,,,,,,,,,,,,,,,,,,,,,,,,,,,,,,,,,,,,,,,,,,,,,,,,,,,,,,,,,,,,,,,,
,,601e093a31a2902413e15c08,2024-02-19_02h12.58.293,kallum_motion_pilot,2023.2.2,Win32,60.60606061,601e093a31a2902413e15c08,65d2b6c8f2eece985d8e374c,65d2b885d007f5631ea9300f,0.0461,0.0462,0,142,142,64,1,onetwo,,,,,,,,,,,,,,,,,,,,,,,,,,,,,,,,,,,,,,,,,,,,,,,,,,,,,,,,,,,,,,,,,,,,,,,,,,,,,,,,,,,,,,,,,,,,,,,,,,,,,,,,,,,,,,,,,,,,,,,,,,,,,,,,,,,,,,,,,
,,601e093a31a2902413e15c08,2024-02-19_02h12.58.293,kallum_motion_pilot,2023.2.2,Win32,60.60606061,601e093a31a2902413e15c08,65d2b6c8f2eece985d8e374c,65d2b885d007f5631ea9300f,0.0464,0.0464,0,143,143,131,1,sixeight,,,,,,,,,,,,,,,,,,,,,,,,,,,,,,,,,,,,,,,,,,,,,,,,,,,,,,,,,,,,,,,,,,,,,,,,,,,,,,,,,,,,,,,,,,,,,,,,,,,,,,,,,,,,,,,,,,,,,,,,,,,,,,,,,,,,,,,,,
,,601e093a31a2902413e15c08,2024-02-19_02h12.58.293,kallum_motion_pilot,2023.2.2,Win32,60.60606061,601e093a31a2902413e15c08,65d2b6c8f2eece985d8e374c,65d2b885d007f5631ea9300f,0.0464,0.0465,0,144,144,91,1,sixeight,,,,,,,,,,,,,,,,,,,,,,,,,,,,,,,,,,,,,,,,,,,,,,,,,,,,,,,,,,,,,,,,,,,,,,,,,,,,,,,,,,,,,,,,,,,,,,,,,,,,,,,,,,,,,,,,,,,,,,,,,,,,,,,,,,,,,,,,,
,,601e093a31a2902413e15c08,2024-02-19_02h12.58.293,kallum_motion_pilot,2023.2.2,Win32,60.60606061,601e093a31a2902413e15c08,65d2b6c8f2eece985d8e374c,65d2b885d007f5631ea9300f,0.0465,0.0466,0,145,145,57,1,onethree,,,,,,,,,,,,,,,,,,,,,,,,,,,,,,,,,,,,,,,,,,,,,,,,,,,,,,,,,,,,,,,,,,,,,,,,,,,,,,,,,,,,,,,,,,,,,,,,,,,,,,,,,,,,,,,,,,,,,,,,,,,,,,,,,,,,,,,,,
,,601e093a31a2902413e15c08,2024-02-19_02h12.58.293,kallum_motion_pilot,2023.2.2,Win32,60.60606061,601e093a31a2902413e15c08,65d2b6c8f2eece985d8e374c,65d2b885d007f5631ea9300f,0.0467,0.0467,0,146,146,31,1,fourthree,,,,,,,,,,,,,,,,,,,,,,,,,,,,,,,,,,,,,,,,,,,,,,,,,,,,,,,,,,,,,,,,,,,,,,,,,,,,,,,,,,,,,,,,,,,,,,,,,,,,,,,,,,,,,,,,,,,,,,,,,,,,,,,,,,,,,,,,,
,,601e093a31a2902413e15c08,2024-02-19_02h12.58.293,kallum_motion_pilot,2023.2.2,Win32,60.60606061,601e093a31a2902413e15c08,65d2b6c8f2eece985d8e374c,65d2b885d007f5631ea9300f,0.0468,0.0468,0,147,147,0,1,onetwo,,,,,,,,,,,,,,,,,,,,,,,,,,,,,,,,,,,,,,,,,,,,,,,,,,,,,,,,,,,,,,,,,,,,,,,,,,,,,,,,,,,,,,,,,,,,,,,,,,,,,,,,,,,,,,,,,,,,,,,,,,,,,,,,,,,,,,,,,
,,601e093a31a2902413e15c08,2024-02-19_02h12.58.293,kallum_motion_pilot,2023.2.2,Win32,60.60606061,601e093a31a2902413e15c08,65d2b6c8f2eece985d8e374c,65d2b885d007f5631ea9300f,0.0469,0.0469,0,148,148,157,1,seveneight,,,,,,,,,,,,,,,,,,,,,,,,,,,,,,,,,,,,,,,,,,,,,,,,,,,,,,,,,,,,,,,,,,,,,,,,,,,,,,,,,,,,,,,,,,,,,,,,,,,,,,,,,,,,,,,,,,,,,,,,,,,,,,,,,,,,,,,,,
,,601e093a31a2902413e15c08,2024-02-19_02h12.58.293,kallum_motion_pilot,2023.2.2,Win32,60.60606061,601e093a31a2902413e15c08,65d2b6c8f2eece985d8e374c,65d2b885d007f5631ea9300f,0.047,0.0471,0,149,149,71,1,fourthree,,,,,,,,,,,,,,,,,,,,,,,,,,,,,,,,,,,,,,,,,,,,,,,,,,,,,,,,,,,,,,,,,,,,,,,,,,,,,,,,,,,,,,,,,,,,,,,,,,,,,,,,,,,,,,,,,,,,,,,,,,,,,,,,,,,,,,,,,
,,601e093a31a2902413e15c08,2024-02-19_02h12.58.293,kallum_motion_pilot,2023.2.2,Win32,60.60606061,601e093a31a2902413e15c08,65d2b6c8f2eece985d8e374c,65d2b885d007f5631ea9300f,0.0471,0.0473,0,150,150,4,1,threeone,,,,,,,,,,,,,,,,,,,,,,,,,,,,,,,,,,,,,,,,,,,,,,,,,,,,,,,,,,,,,,,,,,,,,,,,,,,,,,,,,,,,,,,,,,,,,,,,,,,,,,,,,,,,,,,,,,,,,,,,,,,,,,,,,,,,,,,,,
,,601e093a31a2902413e15c08,2024-02-19_02h12.58.293,kallum_motion_pilot,2023.2.2,Win32,60.60606061,601e093a31a2902413e15c08,65d2b6c8f2eece985d8e374c,65d2b885d007f5631ea9300f,0.0474,0.0475,0,151,151,53,1,threefour,,,,,,,,,,,,,,,,,,,,,,,,,,,,,,,,,,,,,,,,,,,,,,,,,,,,,,,,,,,,,,,,,,,,,,,,,,,,,,,,,,,,,,,,,,,,,,,,,,,,,,,,,,,,,,,,,,,,,,,,,,,,,,,,,,,,,,,,,
,,601e093a31a2902413e15c08,2024-02-19_02h12.58.293,kallum_motion_pilot,2023.2.2,Win32,60.60606061,601e093a31a2902413e15c08,65d2b6c8f2eece985d8e374c,65d2b885d007f5631ea9300f,0.0478,0.0479,0,152,152,97,1,fiveseven,,,,,,,,,,,,,,,,,,,,,,,,,,,,,,,,,,,,,,,,,,,,,,,,,,,,,,,,,,,,,,,,,,,,,,,,,,,,,,,,,,,,,,,,,,,,,,,,,,,,,,,,,,,,,,,,,,,,,,,,,,,,,,,,,,,,,,,,,
,,601e093a31a2902413e15c08,2024-02-19_02h12.58.293,kallum_motion_pilot,2023.2.2,Win32,60.60606061,601e093a31a2902413e15c08,65d2b6c8f2eece985d8e374c,65d2b885d007f5631ea9300f,0.0481,0.0482,0,153,153,142,1,eightsix,,,,,,,,,,,,,,,,,,,,,,,,,,,,,,,,,,,,,,,,,,,,,,,,,,,,,,,,,,,,,,,,,,,,,,,,,,,,,,,,,,,,,,,,,,,,,,,,,,,,,,,,,,,,,,,,,,,,,,,,,,,,,,,,,,,,,,,,,
,,601e093a31a2902413e15c08,2024-02-19_02h12.58.293,kallum_motion_pilot,2023.2.2,Win32,60.60606061,601e093a31a2902413e15c08,65d2b6c8f2eece985d8e374c,65d2b885d007f5631ea9300f,0.0484,0.0486,0,154,154,133,1,seveneight,,,,,,,,,,,,,,,,,,,,,,,,,,,,,,,,,,,,,,,,,,,,,,,,,,,,,,,,,,,,,,,,,,,,,,,,,,,,,,,,,,,,,,,,,,,,,,,,,,,,,,,,,,,,,,,,,,,,,,,,,,,,,,,,,,,,,,,,,
,,601e093a31a2902413e15c08,2024-02-19_02h12.58.293,kallum_motion_pilot,2023.2.2,Win32,60.60606061,601e093a31a2902413e15c08,65d2b6c8f2eece985d8e374c,65d2b885d007f5631ea9300f,0.0487,0.0488,0,155,155,82,1,sixfive,,,,,,,,,,,,,,,,,,,,,,,,,,,,,,,,,,,,,,,,,,,,,,,,,,,,,,,,,,,,,,,,,,,,,,,,,,,,,,,,,,,,,,,,,,,,,,,,,,,,,,,,,,,,,,,,,,,,,,,,,,,,,,,,,,,,,,,,,
,,601e093a31a2902413e15c08,2024-02-19_02h12.58.293,kallum_motion_pilot,2023.2.2,Win32,60.60606061,601e093a31a2902413e15c08,65d2b6c8f2eece985d8e374c,65d2b885d007f5631ea9300f,0.0489,0.049,0,156,156,122,1,sixfive,,,,,,,,,,,,,,,,,,,,,,,,,,,,,,,,,,,,,,,,,,,,,,,,,,,,,,,,,,,,,,,,,,,,,,,,,,,,,,,,,,,,,,,,,,,,,,,,,,,,,,,,,,,,,,,,,,,,,,,,,,,,,,,,,,,,,,,,,
,,601e093a31a2902413e15c08,2024-02-19_02h12.58.293,kallum_motion_pilot,2023.2.2,Win32,60.60606061,601e093a31a2902413e15c08,65d2b6c8f2eece985d8e374c,65d2b885d007f5631ea9300f,0.0491,0.0492,0,157,157,14,1,fourtwo,,,,,,,,,,,,,,,,,,,,,,,,,,,,,,,,,,,,,,,,,,,,,,,,,,,,,,,,,,,,,,,,,,,,,,,,,,,,,,,,,,,,,,,,,,,,,,,,,,,,,,,,,,,,,,,,,,,,,,,,,,,,,,,,,,,,,,,,,
,,601e093a31a2902413e15c08,2024-02-19_02h12.58.293,kallum_motion_pilot,2023.2.2,Win32,60.60606061,601e093a31a2902413e15c08,65d2b6c8f2eece985d8e374c,65d2b885d007f5631ea9300f,0.0493,0.0494,0,158,158,79,1,eightseven,,,,,,,,,,,,,,,,,,,,,,,,,,,,,,,,,,,,,,,,,,,,,,,,,,,,,,,,,,,,,,,,,,,,,,,,,,,,,,,,,,,,,,,,,,,,,,,,,,,,,,,,,,,,,,,,,,,,,,,,,,,,,,,,,,,,,,,,,
,,601e093a31a2902413e15c08,2024-02-19_02h12.58.293,kallum_motion_pilot,2023.2.2,Win32,60.60606061,601e093a31a2902413e15c08,65d2b6c8f2eece985d8e374c,65d2b885d007f5631ea9300f,0.0496,0.0497,0,159,159,26,1,twoone,,,,,,,,,,,,,,,,,,,,,,,,,,,,,,,,,,,,,,,,,,,,,,,,,,,,,,,,,,,,,,,,,,,,,,,,,,,,,,,,,,,,,,,,,,,,,,,,,,,,,,,,,,,,,,,,,,,,,,,,,,,,,,,,,,,,,,,,,
,,601e093a31a2902413e15c08,2024-02-19_02h12.58.293,kallum_motion_pilot,2023.2.2,Win32,60.60606061,601e093a31a2902413e15c08,65d2b6c8f2eece985d8e374c,65d2b885d007f5631ea9300f,0.0499,0.0499,0,160,160,99,1,sixeight,,,,,,,,,,,,,,,,,,,,,,,,,,,,,,,,,,,,,,,,,,,,,,,,,,,,,,,,,,,,,,,,,,,,,,,,,,,,,,,,,,,,,,,,,,,,,,,,,,,,,,,,,,,,,,,,,,,,,,,,,,,,,,,,,,,,,,,,,
,,601e093a31a2902413e15c08,2024-02-19_02h12.58.293,kallum_motion_pilot,2023.2.2,Win32,60.60606061,601e093a31a2902413e15c08,65d2b6c8f2eece985d8e374c,65d2b885d007f5631ea9300f,0.05,0.0501,0,161,161,38,1,fourtwo,,,,,,,,,,,,,,,,,,,,,,,,,,,,,,,,,,,,,,,,,,,,,,,,,,,,,,,,,,,,,,,,,,,,,,,,,,,,,,,,,,,,,,,,,,,,,,,,,,,,,,,,,,,,,,,,,,,,,,,,,,,,,,,,,,,,,,,,,
,,601e093a31a2902413e15c08,2024-02-19_02h12.58.293,kallum_motion_pilot,2023.2.2,Win32,60.60606061,601e093a31a2902413e15c08,65d2b6c8f2eece985d8e374c,65d2b885d007f5631ea9300f,0.0502,0.0502,1,0,162,13,1,threefour,,,,,,,,,,,,,,,,,,,,,,,,,,,,,,,,,,,,,,,,,,,,,,,,,,,,,,,,,,,,,,,,,,,,,,,,,,,,,,,,,,,,,,,,,,,,,,,,,,,,,,,,,,,,,,,,,,,,,,,,,,,,,,,,,,,,,,,,,
,,601e093a31a2902413e15c08,2024-02-19_02h12.58.293,kallum_motion_pilot,2023.2.2,Win32,60.60606061,601e093a31a2902413e15c08,65d2b6c8f2eece985d8e374c,65d2b885d007f5631ea9300f,0.0505,0.0506,1,1,163,89,1,fiveseven,,,,,,,,,,,,,,,,,,,,,,,,,,,,,,,,,,,,,,,,,,,,,,,,,,,,,,,,,,,,,,,,,,,,,,,,,,,,,,,,,,,,,,,,,,,,,,,,,,,,,,,,,,,,,,,,,,,,,,,,,,,,,,,,,,,,,,,,,
,,601e093a31a2902413e15c08,2024-02-19_02h12.58.293,kallum_motion_pilot,2023.2.2,Win32,60.60606061,601e093a31a2902413e15c08,65d2b6c8f2eece985d8e374c,65d2b885d007f5631ea9300f,0.0507,0.0509,1,2,164,73,1,onethree,,,,,,,,,,,,,,,,,,,,,,,,,,,,,,,,,,,,,,,,,,,,,,,,,,,,,,,,,,,,,,,,,,,,,,,,,,,,,,,,,,,,,,,,,,,,,,,,,,,,,,,,,,,,,,,,,,,,,,,,,,,,,,,,,,,,,,,,,
,,601e093a31a2902413e15c08,2024-02-19_02h12.58.293,kallum_motion_pilot,2023.2.2,Win32,60.60606061,601e093a31a2902413e15c08,65d2b6c8f2eece985d8e374c,65d2b885d007f5631ea9300f,0.0509,0.051,1,3,165,26,1,twoone,,,,,,,,,,,,,,,,,,,,,,,,,,,,,,,,,,,,,,,,,,,,,,,,,,,,,,,,,,,,,,,,,,,,,,,,,,,,,,,,,,,,,,,,,,,,,,,,,,,,,,,,,,,,,,,,,,,,,,,,,,,,,,,,,,,,,,,,,
,,601e093a31a2902413e15c08,2024-02-19_02h12.58.293,kallum_motion_pilot,2023.2.2,Win32,60.60606061,601e093a31a2902413e15c08,65d2b6c8f2eece985d8e374c,65d2b885d007f5631ea9300f,0.0511,0.0512,1,4,166,48,1,onetwo,,,,,,,,,,,,,,,,,,,,,,,,,,,,,,,,,,,,,,,,,,,,,,,,,,,,,,,,,,,,,,,,,,,,,,,,,,,,,,,,,,,,,,,,,,,,,,,,,,,,,,,,,,,,,,,,,,,,,,,,,,,,,,,,,,,,,,,,,
,,601e093a31a2902413e15c08,2024-02-19_02h12.58.293,kallum_motion_pilot,2023.2.2,Win32,60.60606061,601e093a31a2902413e15c08,65d2b6c8f2eece985d8e374c,65d2b885d007f5631ea9300f,0.0513,0.0513,1,5,167,161,1,fiveseven,,,,,,,,,,,,,,,,,,,,,,,,,,,,,,,,,,,,,,,,,,,,,,,,,,,,,,,,,,,,,,,,,,,,,,,,,,,,,,,,,,,,,,,,,,,,,,,,,,,,,,,,,,,,,,,,,,,,,,,,,,,,,,,,,,,,,,,,,
,,601e093a31a2902413e15c08,2024-02-19_02h12.58.293,kallum_motion_pilot,2023.2.2,Win32,60.60606061,601e093a31a2902413e15c08,65d2b6c8f2eece985d8e374c,65d2b885d007f5631ea9300f,0.0514,0.0516,1,6,168,27,1,twofour,,,,,,,,,,,,,,,,,,,,,,,,,,,,,,,,,,,,,,,,,,,,,,,,,,,,,,,,,,,,,,,,,,,,,,,,,,,,,,,,,,,,,,,,,,,,,,,,,,,,,,,,,,,,,,,,,,,,,,,,,,,,,,,,,,,,,,,,,
,,601e093a31a2902413e15c08,2024-02-19_02h12.58.293,kallum_motion_pilot,2023.2.2,Win32,60.60606061,601e093a31a2902413e15c08,65d2b6c8f2eece985d8e374c,65d2b885d007f5631ea9300f,0.0517,0.0518,1,7,169,38,1,fourtwo,,,,,,,,,,,,,,,,,,,,,,,,,,,,,,,,,,,,,,,,,,,,,,,,,,,,,,,,,,,,,,,,,,,,,,,,,,,,,,,,,,,,,,,,,,,,,,,,,,,,,,,,,,,,,,,,,,,,,,,,,,,,,,,,,,,,,,,,,
,,601e093a31a2902413e15c08,2024-02-19_02h12.58.293,kallum_motion_pilot,2023.2.2,Win32,60.60606061,601e093a31a2902413e15c08,65d2b6c8f2eece985d8e374c,65d2b885d007f5631ea9300f,0.0519,0.052,1,8,170,42,1,twoone,,,,,,,,,,,,,,,,,,,,,,,,,,,,,,,,,,,,,,,,,,,,,,,,,,,,,,,,,,,,,,,,,,,,,,,,,,,,,,,,,,,,,,,,,,,,,,,,,,,,,,,,,,,,,,,,,,,,,,,,,,,,,,,,,,,,,,,,,
,,601e093a31a2902413e15c08,2024-02-19_02h12.58.293,kallum_motion_pilot,2023.2.2,Win32,60.60606061,601e093a31a2902413e15c08,65d2b6c8f2eece985d8e374c,65d2b885d007f5631ea9300f,0.0521,0.0521,1,9,171,115,1,sixeight,,,,,,,,,,,,,,,,,,,,,,,,,,,,,,,,,,,,,,,,,,,,,,,,,,,,,,,,,,,,,,,,,,,,,,,,,,,,,,,,,,,,,,,,,,,,,,,,,,,,,,,,,,,,,,,,,,,,,,,,,,,,,,,,,,,,,,,,,
,,601e093a31a2902413e15c08,2024-02-19_02h12.58.293,kallum_motion_pilot,2023.2.2,Win32,60.60606061,601e093a31a2902413e15c08,65d2b6c8f2eece985d8e374c,65d2b885d007f5631ea9300f,0.0522,0.0523,1,10,172,145,1,fiveseven,,,,,,,,,,,,,,,,,,,,,,,,,,,,,,,,,,,,,,,,,,,,,,,,,,,,,,,,,,,,,,,,,,,,,,,,,,,,,,,,,,,,,,,,,,,,,,,,,,,,,,,,,,,,,,,,,,,,,,,,,,,,,,,,,,,,,,,,,
,,601e093a31a2902413e15c08,2024-02-19_02h12.58.293,kallum_motion_pilot,2023.2.2,Win32,60.60606061,601e093a31a2902413e15c08,65d2b6c8f2eece985d8e374c,65d2b885d007f5631ea9300f,0.0525,0.0525,1,11,173,5,1,threefour,,,,,,,,,,,,,,,,,,,,,,,,,,,,,,,,,,,,,,,,,,,,,,,,,,,,,,,,,,,,,,,,,,,,,,,,,,,,,,,,,,,,,,,,,,,,,,,,,,,,,,,,,,,,,,,,,,,,,,,,,,,,,,,,,,,,,,,,,
,,601e093a31a2902413e15c08,2024-02-19_02h12.58.293,kallum_motion_pilot,2023.2.2,Win32,60.60606061,601e093a31a2902413e15c08,65d2b6c8f2eece985d8e374c,65d2b885d007f5631ea9300f,0.0526,0.0527,1,12,174,151,1,eightseven,,,,,,,,,,,,,,,,,,,,,,,,,,,,,,,,,,,,,,,,,,,,,,,,,,,,,,,,,,,,,,,,,,,,,,,,,,,,,,,,,,,,,,,,,,,,,,,,,,,,,,,,,,,,,,,,,,,,,,,,,,,,,,,,,,,,,,,,,
,,601e093a31a2902413e15c08,2024-02-19_02h12.58.293,kallum_motion_pilot,2023.2.2,Win32,60.60606061,601e093a31a2902413e15c08,65d2b6c8f2eece985d8e374c,65d2b885d007f5631ea9300f,0.0527,0.0528,1,13,175,23,1,fourthree,,,,,,,,,,,,,,,,,,,,,,,,,,,,,,,,,,,,,,,,,,,,,,,,,,,,,,,,,,,,,,,,,,,,,,,,,,,,,,,,,,,,,,,,,,,,,,,,,,,,,,,,,,,,,,,,,,,,,,,,,,,,,,,,,,,,,,,,,
,,601e093a31a2902413e15c08,2024-02-19_02h12.58.293,kallum_motion_pilot,2023.2.2,Win32,60.60606061,601e093a31a2902413e15c08,65d2b6c8f2eece985d8e374c,65d2b885d007f5631ea9300f,0.0529,0.053,1,14,176,6,1,fourtwo,,,,,,,,,,,,,,,,,,,,,,,,,,,,,,,,,,,,,,,,,,,,,,,,,,,,,,,,,,,,,,,,,,,,,,,,,,,,,,,,,,,,,,,,,,,,,,,,,,,,,,,,,,,,,,,,,,,,,,,,,,,,,,,,,,,,,,,,,
,,601e093a31a2902413e15c08,2024-02-19_02h12.58.293,kallum_motion_pilot,2023.2.2,Win32,60.60606061,601e093a31a2902413e15c08,65d2b6c8f2eece985d8e374c,65d2b885d007f5631ea9300f,0.0531,0.0532,1,15,177,109,1,seveneight,,,,,,,,,,,,,,,,,,,,,,,,,,,,,,,,,,,,,,,,,,,,,,,,,,,,,,,,,,,,,,,,,,,,,,,,,,,,,,,,,,,,,,,,,,,,,,,,,,,,,,,,,,,,,,,,,,,,,,,,,,,,,,,,,,,,,,,,,
,,601e093a31a2902413e15c08,2024-02-19_02h12.58.293,kallum_motion_pilot,2023.2.2,Win32,60.60606061,601e093a31a2902413e15c08,65d2b6c8f2eece985d8e374c,65d2b885d007f5631ea9300f,0.0533,0.0534,1,16,178,94,1,eightsix,,,,,,,,,,,,,,,,,,,,,,,,,,,,,,,,,,,,,,,,,,,,,,,,,,,,,,,,,,,,,,,,,,,,,,,,,,,,,,,,,,,,,,,,,,,,,,,,,,,,,,,,,,,,,,,,,,,,,,,,,,,,,,,,,,,,,,,,,
,,601e093a31a2902413e15c08,2024-02-19_02h12.58.293,kallum_motion_pilot,2023.2.2,Win32,60.60606061,601e093a31a2902413e15c08,65d2b6c8f2eece985d8e374c,65d2b885d007f5631ea9300f,0.0535,0.0536,1,17,179,12,1,threeone,,,,,,,,,,,,,,,,,,,,,,,,,,,,,,,,,,,,,,,,,,,,,,,,,,,,,,,,,,,,,,,,,,,,,,,,,,,,,,,,,,,,,,,,,,,,,,,,,,,,,,,,,,,,,,,,,,,,,,,,,,,,,,,,,,,,,,,,,
,,601e093a31a2902413e15c08,2024-02-19_02h12.58.293,kallum_motion_pilot,2023.2.2,Win32,60.60606061,601e093a31a2902413e15c08,65d2b6c8f2eece985d8e374c,65d2b885d007f5631ea9300f,0.0537,0.0537,1,18,180,25,1,onethree,,,,,,,,,,,,,,,,,,,,,,,,,,,,,,,,,,,,,,,,,,,,,,,,,,,,,,,,,,,,,,,,,,,,,,,,,,,,,,,,,,,,,,,,,,,,,,,,,,,,,,,,,,,,,,,,,,,,,,,,,,,,,,,,,,,,,,,,,
,,601e093a31a2902413e15c08,2024-02-19_02h12.58.293,kallum_motion_pilot,2023.2.2,Win32,60.60606061,601e093a31a2902413e15c08,65d2b6c8f2eece985d8e374c,65d2b885d007f5631ea9300f,0.0538,0.0539,1,19,181,70,1,fourtwo,,,,,,,,,,,,,,,,,,,,,,,,,,,,,,,,,,,,,,,,,,,,,,,,,,,,,,,,,,,,,,,,,,,,,,,,,,,,,,,,,,,,,,,,,,,,,,,,,,,,,,,,,,,,,,,,,,,,,,,,,,,,,,,,,,,,,,,,,
,,601e093a31a2902413e15c08,2024-02-19_02h12.58.293,kallum_motion_pilot,2023.2.2,Win32,60.60606061,601e093a31a2902413e15c08,65d2b6c8f2eece985d8e374c,65d2b885d007f5631ea9300f,0.054,0.0542,1,20,182,136,1,fivesix,,,,,,,,,,,,,,,,,,,,,,,,,,,,,,,,,,,,,,,,,,,,,,,,,,,,,,,,,,,,,,,,,,,,,,,,,,,,,,,,,,,,,,,,,,,,,,,,,,,,,,,,,,,,,,,,,,,,,,,,,,,,,,,,,,,,,,,,,
,,601e093a31a2902413e15c08,2024-02-19_02h12.58.293,kallum_motion_pilot,2023.2.2,Win32,60.60606061,601e093a31a2902413e15c08,65d2b6c8f2eece985d8e374c,65d2b885d007f5631ea9300f,0.0542,0.0543,1,21,183,100,1,sevenfive,,,,,,,,,,,,,,,,,,,,,,,,,,,,,,,,,,,,,,,,,,,,,,,,,,,,,,,,,,,,,,,,,,,,,,,,,,,,,,,,,,,,,,,,,,,,,,,,,,,,,,,,,,,,,,,,,,,,,,,,,,,,,,,,,,,,,,,,,
,,601e093a31a2902413e15c08,2024-02-19_02h12.58.293,kallum_motion_pilot,2023.2.2,Win32,60.60606061,601e093a31a2902413e15c08,65d2b6c8f2eece985d8e374c,65d2b885d007f5631ea9300f,0.0544,0.0545,1,22,184,125,1,seveneight,,,,,,,,,,,,,,,,,,,,,,,,,,,,,,,,,,,,,,,,,,,,,,,,,,,,,,,,,,,,,,,,,,,,,,,,,,,,,,,,,,,,,,,,,,,,,,,,,,,,,,,,,,,,,,,,,,,,,,,,,,,,,,,,,,,,,,,,,
,,601e093a31a2902413e15c08,2024-02-19_02h12.58.293,kallum_motion_pilot,2023.2.2,Win32,60.60606061,601e093a31a2902413e15c08,65d2b6c8f2eece985d8e374c,65d2b885d007f5631ea9300f,0.0546,0.0547,1,23,185,87,1,eightseven,,,,,,,,,,,,,,,,,,,,,,,,,,,,,,,,,,,,,,,,,,,,,,,,,,,,,,,,,,,,,,,,,,,,,,,,,,,,,,,,,,,,,,,,,,,,,,,,,,,,,,,,,,,,,,,,,,,,,,,,,,,,,,,,,,,,,,,,,
,,601e093a31a2902413e15c08,2024-02-19_02h12.58.293,kallum_motion_pilot,2023.2.2,Win32,60.60606061,601e093a31a2902413e15c08,65d2b6c8f2eece985d8e374c,65d2b885d007f5631ea9300f,0.0548,0.0549,1,24,186,15,1,fourthree,,,,,,,,,,,,,,,,,,,,,,,,,,,,,,,,,,,,,,,,,,,,,,,,,,,,,,,,,,,,,,,,,,,,,,,,,,,,,,,,,,,,,,,,,,,,,,,,,,,,,,,,,,,,,,,,,,,,,,,,,,,,,,,,,,,,,,,,,
,,601e093a31a2902413e15c08,2024-02-19_02h12.58.293,kallum_motion_pilot,2023.2.2,Win32,60.60606061,601e093a31a2902413e15c08,65d2b6c8f2eece985d8e374c,65d2b885d007f5631ea9300f,0.055,0.0551,1,25,187,22,1,fourtwo,,,,,,,,,,,,,,,,,,,,,,,,,,,,,,,,,,,,,,,,,,,,,,,,,,,,,,,,,,,,,,,,,,,,,,,,,,,,,,,,,,,,,,,,,,,,,,,,,,,,,,,,,,,,,,,,,,,,,,,,,,,,,,,,,,,,,,,,,
,,601e093a31a2902413e15c08,2024-02-19_02h12.58.293,kallum_motion_pilot,2023.2.2,Win32,60.60606061,601e093a31a2902413e15c08,65d2b6c8f2eece985d8e374c,65d2b885d007f5631ea9300f,0.0552,0.0553,1,26,188,156,1,sevenfive,,,,,,,,,,,,,,,,,,,,,,,,,,,,,,,,,,,,,,,,,,,,,,,,,,,,,,,,,,,,,,,,,,,,,,,,,,,,,,,,,,,,,,,,,,,,,,,,,,,,,,,,,,,,,,,,,,,,,,,,,,,,,,,,,,,,,,,,,
,,601e093a31a2902413e15c08,2024-02-19_02h12.58.293,kallum_motion_pilot,2023.2.2,Win32,60.60606061,601e093a31a2902413e15c08,65d2b6c8f2eece985d8e374c,65d2b885d007f5631ea9300f,0.0554,0.0554,1,27,189,154,1,sixfive,,,,,,,,,,,,,,,,,,,,,,,,,,,,,,,,,,,,,,,,,,,,,,,,,,,,,,,,,,,,,,,,,,,,,,,,,,,,,,,,,,,,,,,,,,,,,,,,,,,,,,,,,,,,,,,,,,,,,,,,,,,,,,,,,,,,,,,,,
,,601e093a31a2902413e15c08,2024-02-19_02h12.58.293,kallum_motion_pilot,2023.2.2,Win32,60.60606061,601e093a31a2902413e15c08,65d2b6c8f2eece985d8e374c,65d2b885d007f5631ea9300f,0.0556,0.0557,1,28,190,16,1,onetwo,,,,,,,,,,,,,,,,,,,,,,,,,,,,,,,,,,,,,,,,,,,,,,,,,,,,,,,,,,,,,,,,,,,,,,,,,,,,,,,,,,,,,,,,,,,,,,,,,,,,,,,,,,,,,,,,,,,,,,,,,,,,,,,,,,,,,,,,,
,,601e093a31a2902413e15c08,2024-02-19_02h12.58.293,kallum_motion_pilot,2023.2.2,Win32,60.60606061,601e093a31a2902413e15c08,65d2b6c8f2eece985d8e374c,65d2b885d007f5631ea9300f,0.0557,0.0559,1,29,191,80,1,fivesix,,,,,,,,,,,,,,,,,,,,,,,,,,,,,,,,,,,,,,,,,,,,,,,,,,,,,,,,,,,,,,,,,,,,,,,,,,,,,,,,,,,,,,,,,,,,,,,,,,,,,,,,,,,,,,,,,,,,,,,,,,,,,,,,,,,,,,,,,
,,601e093a31a2902413e15c08,2024-02-19_02h12.58.293,kallum_motion_pilot,2023.2.2,Win32,60.60606061,601e093a31a2902413e15c08,65d2b6c8f2eece985d8e374c,65d2b885d007f5631ea9300f,0.0559,0.056,1,30,192,107,1,sixeight,,,,,,,,,,,,,,,,,,,,,,,,,,,,,,,,,,,,,,,,,,,,,,,,,,,,,,,,,,,,,,,,,,,,,,,,,,,,,,,,,,,,,,,,,,,,,,,,,,,,,,,,,,,,,,,,,,,,,,,,,,,,,,,,,,,,,,,,,
,,601e093a31a2902413e15c08,2024-02-19_02h12.58.293,kallum_motion_pilot,2023.2.2,Win32,60.60606061,601e093a31a2902413e15c08,65d2b6c8f2eece985d8e374c,65d2b885d007f5631ea9300f,0.0561,0.0562,1,31,193,67,1,twofour,,,,,,,,,,,,,,,,,,,,,,,,,,,,,,,,,,,,,,,,,,,,,,,,,,,,,,,,,,,,,,,,,,,,,,,,,,,,,,,,,,,,,,,,,,,,,,,,,,,,,,,,,,,,,,,,,,,,,,,,,,,,,,,,,,,,,,,,,
,,601e093a31a2902413e15c08,2024-02-19_02h12.58.293,kallum_motion_pilot,2023.2.2,Win32,60.60606061,601e093a31a2902413e15c08,65d2b6c8f2eece985d8e374c,65d2b885d007f5631ea9300f,0.0563,0.0564,1,32,194,88,1,fivesix,,,,,,,,,,,,,,,,,,,,,,,,,,,,,,,,,,,,,,,,,,,,,,,,,,,,,,,,,,,,,,,,,,,,,,,,,,,,,,,,,,,,,,,,,,,,,,,,,,,,,,,,,,,,,,,,,,,,,,,,,,,,,,,,,,,,,,,,,
,,601e093a31a2902413e15c08,2024-02-19_02h12.58.293,kallum_motion_pilot,2023.2.2,Win32,60.60606061,601e093a31a2902413e15c08,65d2b6c8f2eece985d8e374c,65d2b885d007f5631ea9300f,0.0565,0.0566,1,33,195,149,1,seveneight,,,,,,,,,,,,,,,,,,,,,,,,,,,,,,,,,,,,,,,,,,,,,,,,,,,,,,,,,,,,,,,,,,,,,,,,,,,,,,,,,,,,,,,,,,,,,,,,,,,,,,,,,,,,,,,,,,,,,,,,,,,,,,,,,,,,,,,,,
,,601e093a31a2902413e15c08,2024-02-19_02h12.58.293,kallum_motion_pilot,2023.2.2,Win32,60.60606061,601e093a31a2902413e15c08,65d2b6c8f2eece985d8e374c,65d2b885d007f5631ea9300f,0.0566,0.0567,1,34,196,101,1,seveneight,,,,,,,,,,,,,,,,,,,,,,,,,,,,,,,,,,,,,,,,,,,,,,,,,,,,,,,,,,,,,,,,,,,,,,,,,,,,,,,,,,,,,,,,,,,,,,,,,,,,,,,,,,,,,,,,,,,,,,,,,,,,,,,,,,,,,,,,,
,,601e093a31a2902413e15c08,2024-02-19_02h12.58.293,kallum_motion_pilot,2023.2.2,Win32,60.60606061,601e093a31a2902413e15c08,65d2b6c8f2eece985d8e374c,65d2b885d007f5631ea9300f,0.0568,0.0568,1,35,197,51,1,twofour,,,,,,,,,,,,,,,,,,,,,,,,,,,,,,,,,,,,,,,,,,,,,,,,,,,,,,,,,,,,,,,,,,,,,,,,,,,,,,,,,,,,,,,,,,,,,,,,,,,,,,,,,,,,,,,,,,,,,,,,,,,,,,,,,,,,,,,,,
,,601e093a31a2902413e15c08,2024-02-19_02h12.58.293,kallum_motion_pilot,2023.2.2,Win32,60.60606061,601e093a31a2902413e15c08,65d2b6c8f2eece985d8e374c,65d2b885d007f5631ea9300f,0.057,0.057,1,36,198,138,1,sixfive,,,,,,,,,,,,,,,,,,,,,,,,,,,,,,,,,,,,,,,,,,,,,,,,,,,,,,,,,,,,,,,,,,,,,,,,,,,,,,,,,,,,,,,,,,,,,,,,,,,,,,,,,,,,,,,,,,,,,,,,,,,,,,,,,,,,,,,,,
,,601e093a31a2902413e15c08,2024-02-19_02h12.58.293,kallum_motion_pilot,2023.2.2,Win32,60.60606061,601e093a31a2902413e15c08,65d2b6c8f2eece985d8e374c,65d2b885d007f5631ea9300f,0.0571,0.0572,1,37,199,106,1,sixfive,,,,,,,,,,,,,,,,,,,,,,,,,,,,,,,,,,,,,,,,,,,,,,,,,,,,,,,,,,,,,,,,,,,,,,,,,,,,,,,,,,,,,,,,,,,,,,,,,,,,,,,,,,,,,,,,,,,,,,,,,,,,,,,,,,,,,,,,,
,,601e093a31a2902413e15c08,2024-02-19_02h12.58.293,kallum_motion_pilot,2023.2.2,Win32,60.60606061,601e093a31a2902413e15c08,65d2b6c8f2eece985d8e374c,65d2b885d007f5631ea9300f,0.0573,0.0573,1,38,200,62,1,fourtwo,,,,,,,,,,,,,,,,,,,,,,,,,,,,,,,,,,,,,,,,,,,,,,,,,,,,,,,,,,,,,,,,,,,,,,,,,,,,,,,,,,,,,,,,,,,,,,,,,,,,,,,,,,,,,,,,,,,,,,,,,,,,,,,,,,,,,,,,,
,,601e093a31a2902413e15c08,2024-02-19_02h12.58.293,kallum_motion_pilot,2023.2.2,Win32,60.60606061,601e093a31a2902413e15c08,65d2b6c8f2eece985d8e374c,65d2b885d007f5631ea9300f,0.0574,0.0575,1,39,201,40,1,onetwo,,,,,,,,,,,,,,,,,,,,,,,,,,,,,,,,,,,,,,,,,,,,,,,,,,,,,,,,,,,,,,,,,,,,,,,,,,,,,,,,,,,,,,,,,,,,,,,,,,,,,,,,,,,,,,,,,,,,,,,,,,,,,,,,,,,,,,,,,
,,601e093a31a2902413e15c08,2024-02-19_02h12.58.293,kallum_motion_pilot,2023.2.2,Win32,60.60606061,601e093a31a2902413e15c08,65d2b6c8f2eece985d8e374c,65d2b885d007f5631ea9300f,0.0575,0.0576,1,40,202,81,1,fiveseven,,,,,,,,,,,,,,,,,,,,,,,,,,,,,,,,,,,,,,,,,,,,,,,,,,,,,,,,,,,,,,,,,,,,,,,,,,,,,,,,,,,,,,,,,,,,,,,,,,,,,,,,,,,,,,,,,,,,,,,,,,,,,,,,,,,,,,,,,
,,601e093a31a2902413e15c08,2024-02-19_02h12.58.293,kallum_motion_pilot,2023.2.2,Win32,60.60606061,601e093a31a2902413e15c08,65d2b6c8f2eece985d8e374c,65d2b885d007f5631ea9300f,0.0576,0.0577,1,41,203,111,1,eightseven,,,,,,,,,,,,,,,,,,,,,,,,,,,,,,,,,,,,,,,,,,,,,,,,,,,,,,,,,,,,,,,,,,,,,,,,,,,,,,,,,,,,,,,,,,,,,,,,,,,,,,,,,,,,,,,,,,,,,,,,,,,,,,,,,,,,,,,,,
,,601e093a31a2902413e15c08,2024-02-19_02h12.58.293,kallum_motion_pilot,2023.2.2,Win32,60.60606061,601e093a31a2902413e15c08,65d2b6c8f2eece985d8e374c,65d2b885d007f5631ea9300f,0.0577,0.0579,1,42,204,69,1,threefour,,,,,,,,,,,,,,,,,,,,,,,,,,,,,,,,,,,,,,,,,,,,,,,,,,,,,,,,,,,,,,,,,,,,,,,,,,,,,,,,,,,,,,,,,,,,,,,,,,,,,,,,,,,,,,,,,,,,,,,,,,,,,,,,,,,,,,,,,
,,601e093a31a2902413e15c08,2024-02-19_02h12.58.293,kallum_motion_pilot,2023.2.2,Win32,60.60606061,601e093a31a2902413e15c08,65d2b6c8f2eece985d8e374c,65d2b885d007f5631ea9300f,0.0579,0.0579,1,43,205,96,1,fivesix,,,,,,,,,,,,,,,,,,,,,,,,,,,,,,,,,,,,,,,,,,,,,,,,,,,,,,,,,,,,,,,,,,,,,,,,,,,,,,,,,,,,,,,,,,,,,,,,,,,,,,,,,,,,,,,,,,,,,,,,,,,,,,,,,,,,,,,,,
,,601e093a31a2902413e15c08,2024-02-19_02h12.58.293,kallum_motion_pilot,2023.2.2,Win32,60.60606061,601e093a31a2902413e15c08,65d2b6c8f2eece985d8e374c,65d2b885d007f5631ea9300f,0.058,0.0581,1,44,206,150,1,eightsix,,,,,,,,,,,,,,,,,,,,,,,,,,,,,,,,,,,,,,,,,,,,,,,,,,,,,,,,,,,,,,,,,,,,,,,,,,,,,,,,,,,,,,,,,,,,,,,,,,,,,,,,,,,,,,,,,,,,,,,,,,,,,,,,,,,,,,,,,
,,601e093a31a2902413e15c08,2024-02-19_02h12.58.293,kallum_motion_pilot,2023.2.2,Win32,60.60606061,601e093a31a2902413e15c08,65d2b6c8f2eece985d8e374c,65d2b885d007f5631ea9300f,0.0582,0.0582,1,45,207,147,1,sixeight,,,,,,,,,,,,,,,,,,,,,,,,,,,,,,,,,,,,,,,,,,,,,,,,,,,,,,,,,,,,,,,,,,,,,,,,,,,,,,,,,,,,,,,,,,,,,,,,,,,,,,,,,,,,,,,,,,,,,,,,,,,,,,,,,,,,,,,,,
,,601e093a31a2902413e15c08,2024-02-19_02h12.58.293,kallum_motion_pilot,2023.2.2,Win32,60.60606061,601e093a31a2902413e15c08,65d2b6c8f2eece985d8e374c,65d2b885d007f5631ea9300f,0.0583,0.0584,1,46,208,43,1,twofour,,,,,,,,,,,,,,,,,,,,,,,,,,,,,,,,,,,,,,,,,,,,,,,,,,,,,,,,,,,,,,,,,,,,,,,,,,,,,,,,,,,,,,,,,,,,,,,,,,,,,,,,,,,,,,,,,,,,,,,,,,,,,,,,,,,,,,,,,
,,601e093a31a2902413e15c08,2024-02-19_02h12.58.293,kallum_motion_pilot,2023.2.2,Win32,60.60606061,601e093a31a2902413e15c08,65d2b6c8f2eece985d8e374c,65d2b885d007f5631ea9300f,0.0585,0.0586,1,47,209,84,1,sevenfive,,,,,,,,,,,,,,,,,,,,,,,,,,,,,,,,,,,,,,,,,,,,,,,,,,,,,,,,,,,,,,,,,,,,,,,,,,,,,,,,,,,,,,,,,,,,,,,,,,,,,,,,,,,,,,,,,,,,,,,,,,,,,,,,,,,,,,,,,
,,601e093a31a2902413e15c08,2024-02-19_02h12.58.293,kallum_motion_pilot,2023.2.2,Win32,60.60606061,601e093a31a2902413e15c08,65d2b6c8f2eece985d8e374c,65d2b885d007f5631ea9300f,0.0588,0.0589,1,48,210,95,1,eightseven,,,,,,,,,,,,,,,,,,,,,,,,,,,,,,,,,,,,,,,,,,,,,,,,,,,,,,,,,,,,,,,,,,,,,,,,,,,,,,,,,,,,,,,,,,,,,,,,,,,,,,,,,,,,,,,,,,,,,,,,,,,,,,,,,,,,,,,,,
,,601e093a31a2902413e15c08,2024-02-19_02h12.58.293,kallum_motion_pilot,2023.2.2,Win32,60.60606061,601e093a31a2902413e15c08,65d2b6c8f2eece985d8e374c,65d2b885d007f5631ea9300f,0.059,0.0592,1,49,211,90,1,sixfive,,,,,,,,,,,,,,,,,,,,,,,,,,,,,,,,,,,,,,,,,,,,,,,,,,,,,,,,,,,,,,,,,,,,,,,,,,,,,,,,,,,,,,,,,,,,,,,,,,,,,,,,,,,,,,,,,,,,,,,,,,,,,,,,,,,,,,,,,
,,601e093a31a2902413e15c08,2024-02-19_02h12.58.293,kallum_motion_pilot,2023.2.2,Win32,60.60606061,601e093a31a2902413e15c08,65d2b6c8f2eece985d8e374c,65d2b885d007f5631ea9300f,0.0593,0.0594,1,50,212,50,1,twoone,,,,,,,,,,,,,,,,,,,,,,,,,,,,,,,,,,,,,,,,,,,,,,,,,,,,,,,,,,,,,,,,,,,,,,,,,,,,,,,,,,,,,,,,,,,,,,,,,,,,,,,,,,,,,,,,,,,,,,,,,,,,,,,,,,,,,,,,,
,,601e093a31a2902413e15c08,2024-02-19_02h12.58.293,kallum_motion_pilot,2023.2.2,Win32,60.60606061,601e093a31a2902413e15c08,65d2b6c8f2eece985d8e374c,65d2b885d007f5631ea9300f,0.0595,0.0596,1,51,213,53,1,threefour,,,,,,,,,,,,,,,,,,,,,,,,,,,,,,,,,,,,,,,,,,,,,,,,,,,,,,,,,,,,,,,,,,,,,,,,,,,,,,,,,,,,,,,,,,,,,,,,,,,,,,,,,,,,,,,,,,,,,,,,,,,,,,,,,,,,,,,,,
,,601e093a31a2902413e15c08,2024-02-19_02h12.58.293,kallum_motion_pilot,2023.2.2,Win32,60.60606061,601e093a31a2902413e15c08,65d2b6c8f2eece985d8e374c,65d2b885d007f5631ea9300f,0.0597,0.0598,1,52,214,159,1,eightseven,,,,,,,,,,,,,,,,,,,,,,,,,,,,,,,,,,,,,,,,,,,,,,,,,,,,,,,,,,,,,,,,,,,,,,,,,,,,,,,,,,,,,,,,,,,,,,,,,,,,,,,,,,,,,,,,,,,,,,,,,,,,,,,,,,,,,,,,,
,,601e093a31a2902413e15c08,2024-02-19_02h12.58.293,kallum_motion_pilot,2023.2.2,Win32,60.60606061,601e093a31a2902413e15c08,65d2b6c8f2eece985d8e374c,65d2b885d007f5631ea9300f,0.0599,0.06,1,53,215,79,1,eightseven,,,,,,,,,,,,,,,,,,,,,,,,,,,,,,,,,,,,,,,,,,,,,,,,,,,,,,,,,,,,,,,,,,,,,,,,,,,,,,,,,,,,,,,,,,,,,,,,,,,,,,,,,,,,,,,,,,,,,,,,,,,,,,,,,,,,,,,,,
,,601e093a31a2902413e15c08,2024-02-19_02h12.58.293,kallum_motion_pilot,2023.2.2,Win32,60.60606061,601e093a31a2902413e15c08,65d2b6c8f2eece985d8e374c,65d2b885d007f5631ea9300f,0.0601,0.0602,1,54,216,55,1,fourthree,,,,,,,,,,,,,,,,,,,,,,,,,,,,,,,,,,,,,,,,,,,,,,,,,,,,,,,,,,,,,,,,,,,,,,,,,,,,,,,,,,,,,,,,,,,,,,,,,,,,,,,,,,,,,,,,,,,,,,,,,,,,,,,,,,,,,,,,,
,,601e093a31a2902413e15c08,2024-02-19_02h12.58.293,kallum_motion_pilot,2023.2.2,Win32,60.60606061,601e093a31a2902413e15c08,65d2b6c8f2eece985d8e374c,65d2b885d007f5631ea9300f,0.0603,0.0603,1,55,217,140,1,sevenfive,,,,,,,,,,,,,,,,,,,,,,,,,,,,,,,,,,,,,,,,,,,,,,,,,,,,,,,,,,,,,,,,,,,,,,,,,,,,,,,,,,,,,,,,,,,,,,,,,,,,,,,,,,,,,,,,,,,,,,,,,,,,,,,,,,,,,,,,,
,,601e093a31a2902413e15c08,2024-02-19_02h12.58.293,kallum_motion_pilot,2023.2.2,Win32,60.60606061,601e093a31a2902413e15c08,65d2b6c8f2eece985d8e374c,65d2b885d007f5631ea9300f,0.0604,0.0604,1,56,218,20,1,threeone,,,,,,,,,,,,,,,,,,,,,,,,,,,,,,,,,,,,,,,,,,,,,,,,,,,,,,,,,,,,,,,,,,,,,,,,,,,,,,,,,,,,,,,,,,,,,,,,,,,,,,,,,,,,,,,,,,,,,,,,,,,,,,,,,,,,,,,,,
,,601e093a31a2902413e15c08,2024-02-19_02h12.58.293,kallum_motion_pilot,2023.2.2,Win32,60.60606061,601e093a31a2902413e15c08,65d2b6c8f2eece985d8e374c,65d2b885d007f5631ea9300f,0.0605,0.0606,1,57,219,75,1,twofour,,,,,,,,,,,,,,,,,,,,,,,,,,,,,,,,,,,,,,,,,,,,,,,,,,,,,,,,,,,,,,,,,,,,,,,,,,,,,,,,,,,,,,,,,,,,,,,,,,,,,,,,,,,,,,,,,,,,,,,,,,,,,,,,,,,,,,,,,
,,601e093a31a2902413e15c08,2024-02-19_02h12.58.293,kallum_motion_pilot,2023.2.2,Win32,60.60606061,601e093a31a2902413e15c08,65d2b6c8f2eece985d8e374c,65d2b885d007f5631ea9300f,0.0607,0.0607,1,58,220,28,1,threeone,,,,,,,,,,,,,,,,,,,,,,,,,,,,,,,,,,,,,,,,,,,,,,,,,,,,,,,,,,,,,,,,,,,,,,,,,,,,,,,,,,,,,,,,,,,,,,,,,,,,,,,,,,,,,,,,,,,,,,,,,,,,,,,,,,,,,,,,,
,,601e093a31a2902413e15c08,2024-02-19_02h12.58.293,kallum_motion_pilot,2023.2.2,Win32,60.60606061,601e093a31a2902413e15c08,65d2b6c8f2eece985d8e374c,65d2b885d007f5631ea9300f,0.0608,0.0609,1,59,221,155,1,sixeight,,,,,,,,,,,,,,,,,,,,,,,,,,,,,,,,,,,,,,,,,,,,,,,,,,,,,,,,,,,,,,,,,,,,,,,,,,,,,,,,,,,,,,,,,,,,,,,,,,,,,,,,,,,,,,,,,,,,,,,,,,,,,,,,,,,,,,,,,
,,601e093a31a2902413e15c08,2024-02-19_02h12.58.293,kallum_motion_pilot,2023.2.2,Win32,60.60606061,601e093a31a2902413e15c08,65d2b6c8f2eece985d8e374c,65d2b885d007f5631ea9300f,0.0609,0.061,1,60,222,132,1,sevenfive,,,,,,,,,,,,,,,,,,,,,,,,,,,,,,,,,,,,,,,,,,,,,,,,,,,,,,,,,,,,,,,,,,,,,,,,,,,,,,,,,,,,,,,,,,,,,,,,,,,,,,,,,,,,,,,,,,,,,,,,,,,,,,,,,,,,,,,,,
,,601e093a31a2902413e15c08,2024-02-19_02h12.58.293,kallum_motion_pilot,2023.2.2,Win32,60.60606061,601e093a31a2902413e15c08,65d2b6c8f2eece985d8e374c,65d2b885d007f5631ea9300f,0.0611,0.0612,1,61,223,93,1,seveneight,,,,,,,,,,,,,,,,,,,,,,,,,,,,,,,,,,,,,,,,,,,,,,,,,,,,,,,,,,,,,,,,,,,,,,,,,,,,,,,,,,,,,,,,,,,,,,,,,,,,,,,,,,,,,,,,,,,,,,,,,,,,,,,,,,,,,,,,,
,,601e093a31a2902413e15c08,2024-02-19_02h12.58.293,kallum_motion_pilot,2023.2.2,Win32,60.60606061,601e093a31a2902413e15c08,65d2b6c8f2eece985d8e374c,65d2b885d007f5631ea9300f,0.0616,0.0617,1,62,224,102,1,eightsix,,,,,,,,,,,,,,,,,,,,,,,,,,,,,,,,,,,,,,,,,,,,,,,,,,,,,,,,,,,,,,,,,,,,,,,,,,,,,,,,,,,,,,,,,,,,,,,,,,,,,,,,,,,,,,,,,,,,,,,,,,,,,,,,,,,,,,,,,
,,601e093a31a2902413e15c08,2024-02-19_02h12.58.293,kallum_motion_pilot,2023.2.2,Win32,60.60606061,601e093a31a2902413e15c08,65d2b6c8f2eece985d8e374c,65d2b885d007f5631ea9300f,0.0618,0.0619,1,63,225,33,1,onethree,,,,,,,,,,,,,,,,,,,,,,,,,,,,,,,,,,,,,,,,,,,,,,,,,,,,,,,,,,,,,,,,,,,,,,,,,,,,,,,,,,,,,,,,,,,,,,,,,,,,,,,,,,,,,,,,,,,,,,,,,,,,,,,,,,,,,,,,,
,,601e093a31a2902413e15c08,2024-02-19_02h12.58.293,kallum_motion_pilot,2023.2.2,Win32,60.60606061,601e093a31a2902413e15c08,65d2b6c8f2eece985d8e374c,65d2b885d007f5631ea9300f,0.062,0.062,1,64,226,127,1,eightseven,,,,,,,,,,,,,,,,,,,,,,,,,,,,,,,,,,,,,,,,,,,,,,,,,,,,,,,,,,,,,,,,,,,,,,,,,,,,,,,,,,,,,,,,,,,,,,,,,,,,,,,,,,,,,,,,,,,,,,,,,,,,,,,,,,,,,,,,,
,,601e093a31a2902413e15c08,2024-02-19_02h12.58.293,kallum_motion_pilot,2023.2.2,Win32,60.60606061,601e093a31a2902413e15c08,65d2b6c8f2eece985d8e374c,65d2b885d007f5631ea9300f,0.0621,0.0622,1,65,227,19,1,twofour,,,,,,,,,,,,,,,,,,,,,,,,,,,,,,,,,,,,,,,,,,,,,,,,,,,,,,,,,,,,,,,,,,,,,,,,,,,,,,,,,,,,,,,,,,,,,,,,,,,,,,,,,,,,,,,,,,,,,,,,,,,,,,,,,,,,,,,,,
,,601e093a31a2902413e15c08,2024-02-19_02h12.58.293,kallum_motion_pilot,2023.2.2,Win32,60.60606061,601e093a31a2902413e15c08,65d2b6c8f2eece985d8e374c,65d2b885d007f5631ea9300f,0.0623,0.0623,1,66,228,105,1,fiveseven,,,,,,,,,,,,,,,,,,,,,,,,,,,,,,,,,,,,,,,,,,,,,,,,,,,,,,,,,,,,,,,,,,,,,,,,,,,,,,,,,,,,,,,,,,,,,,,,,,,,,,,,,,,,,,,,,,,,,,,,,,,,,,,,,,,,,,,,,
,,601e093a31a2902413e15c08,2024-02-19_02h12.58.293,kallum_motion_pilot,2023.2.2,Win32,60.60606061,601e093a31a2902413e15c08,65d2b6c8f2eece985d8e374c,65d2b885d007f5631ea9300f,0.0624,0.0624,1,67,229,119,1,eightseven,,,,,,,,,,,,,,,,,,,,,,,,,,,,,,,,,,,,,,,,,,,,,,,,,,,,,,,,,,,,,,,,,,,,,,,,,,,,,,,,,,,,,,,,,,,,,,,,,,,,,,,,,,,,,,,,,,,,,,,,,,,,,,,,,,,,,,,,,
,,601e093a31a2902413e15c08,2024-02-19_02h12.58.293,kallum_motion_pilot,2023.2.2,Win32,60.60606061,601e093a31a2902413e15c08,65d2b6c8f2eece985d8e374c,65d2b885d007f5631ea9300f,0.0626,0.0627,1,68,230,65,1,onethree,,,,,,,,,,,,,,,,,,,,,,,,,,,,,,,,,,,,,,,,,,,,,,,,,,,,,,,,,,,,,,,,,,,,,,,,,,,,,,,,,,,,,,,,,,,,,,,,,,,,,,,,,,,,,,,,,,,,,,,,,,,,,,,,,,,,,,,,,
,,601e093a31a2902413e15c08,2024-02-19_02h12.58.293,kallum_motion_pilot,2023.2.2,Win32,60.60606061,601e093a31a2902413e15c08,65d2b6c8f2eece985d8e374c,65d2b885d007f5631ea9300f,0.0628,0.0628,1,69,231,137,1,fiveseven,,,,,,,,,,,,,,,,,,,,,,,,,,,,,,,,,,,,,,,,,,,,,,,,,,,,,,,,,,,,,,,,,,,,,,,,,,,,,,,,,,,,,,,,,,,,,,,,,,,,,,,,,,,,,,,,,,,,,,,,,,,,,,,,,,,,,,,,,
,,601e093a31a2902413e15c08,2024-02-19_02h12.58.293,kallum_motion_pilot,2023.2.2,Win32,60.60606061,601e093a31a2902413e15c08,65d2b6c8f2eece985d8e374c,65d2b885d007f5631ea9300f,0.0629,0.0629,1,70,232,121,1,fiveseven,,,,,,,,,,,,,,,,,,,,,,,,,,,,,,,,,,,,,,,,,,,,,,,,,,,,,,,,,,,,,,,,,,,,,,,,,,,,,,,,,,,,,,,,,,,,,,,,,,,,,,,,,,,,,,,,,,,,,,,,,,,,,,,,,,,,,,,,,
,,601e093a31a2902413e15c08,2024-02-19_02h12.58.293,kallum_motion_pilot,2023.2.2,Win32,60.60606061,601e093a31a2902413e15c08,65d2b6c8f2eece985d8e374c,65d2b885d007f5631ea9300f,0.063,0.063,1,71,233,77,1,threefour,,,,,,,,,,,,,,,,,,,,,,,,,,,,,,,,,,,,,,,,,,,,,,,,,,,,,,,,,,,,,,,,,,,,,,,,,,,,,,,,,,,,,,,,,,,,,,,,,,,,,,,,,,,,,,,,,,,,,,,,,,,,,,,,,,,,,,,,,
,,601e093a31a2902413e15c08,2024-02-19_02h12.58.293,kallum_motion_pilot,2023.2.2,Win32,60.60606061,601e093a31a2902413e15c08,65d2b6c8f2eece985d8e374c,65d2b885d007f5631ea9300f,0.0631,0.0632,1,72,234,47,1,fourthree,,,,,,,,,,,,,,,,,,,,,,,,,,,,,,,,,,,,,,,,,,,,,,,,,,,,,,,,,,,,,,,,,,,,,,,,,,,,,,,,,,,,,,,,,,,,,,,,,,,,,,,,,,,,,,,,,,,,,,,,,,,,,,,,,,,,,,,,,
,,601e093a31a2902413e15c08,2024-02-19_02h12.58.293,kallum_motion_pilot,2023.2.2,Win32,60.60606061,601e093a31a2902413e15c08,65d2b6c8f2eece985d8e374c,65d2b885d007f5631ea9300f,0.0632,0.0633,1,73,235,152,1,fivesix,,,,,,,,,,,,,,,,,,,,,,,,,,,,,,,,,,,,,,,,,,,,,,,,,,,,,,,,,,,,,,,,,,,,,,,,,,,,,,,,,,,,,,,,,,,,,,,,,,,,,,,,,,,,,,,,,,,,,,,,,,,,,,,,,,,,,,,,,
,,601e093a31a2902413e15c08,2024-02-19_02h12.58.293,kallum_motion_pilot,2023.2.2,Win32,60.60606061,601e093a31a2902413e15c08,65d2b6c8f2eece985d8e374c,65d2b885d007f5631ea9300f,0.0634,0.0634,1,74,236,2,1,twoone,,,,,,,,,,,,,,,,,,,,,,,,,,,,,,,,,,,,,,,,,,,,,,,,,,,,,,,,,,,,,,,,,,,,,,,,,,,,,,,,,,,,,,,,,,,,,,,,,,,,,,,,,,,,,,,,,,,,,,,,,,,,,,,,,,,,,,,,,
,,601e093a31a2902413e15c08,2024-02-19_02h12.58.293,kallum_motion_pilot,2023.2.2,Win32,60.60606061,601e093a31a2902413e15c08,65d2b6c8f2eece985d8e374c,65d2b885d007f5631ea9300f,0.0635,0.0636,1,75,237,144,1,fivesix,,,,,,,,,,,,,,,,,,,,,,,,,,,,,,,,,,,,,,,,,,,,,,,,,,,,,,,,,,,,,,,,,,,,,,,,,,,,,,,,,,,,,,,,,,,,,,,,,,,,,,,,,,,,,,,,,,,,,,,,,,,,,,,,,,,,,,,,,
,,601e093a31a2902413e15c08,2024-02-19_02h12.58.293,kallum_motion_pilot,2023.2.2,Win32,60.60606061,601e093a31a2902413e15c08,65d2b6c8f2eece985d8e374c,65d2b885d007f5631ea9300f,0.0637,0.0637,1,76,238,9,1,onethree,,,,,,,,,,,,,,,,,,,,,,,,,,,,,,,,,,,,,,,,,,,,,,,,,,,,,,,,,,,,,,,,,,,,,,,,,,,,,,,,,,,,,,,,,,,,,,,,,,,,,,,,,,,,,,,,,,,,,,,,,,,,,,,,,,,,,,,,,
,,601e093a31a2902413e15c08,2024-02-19_02h12.58.293,kallum_motion_pilot,2023.2.2,Win32,60.60606061,601e093a31a2902413e15c08,65d2b6c8f2eece985d8e374c,65d2b885d007f5631ea9300f,0.0638,0.0638,1,77,239,14,1,fourtwo,,,,,,,,,,,,,,,,,,,,,,,,,,,,,,,,,,,,,,,,,,,,,,,,,,,,,,,,,,,,,,,,,,,,,,,,,,,,,,,,,,,,,,,,,,,,,,,,,,,,,,,,,,,,,,,,,,,,,,,,,,,,,,,,,,,,,,,,,
,,601e093a31a2902413e15c08,2024-02-19_02h12.58.293,kallum_motion_pilot,2023.2.2,Win32,60.60606061,601e093a31a2902413e15c08,65d2b6c8f2eece985d8e374c,65d2b885d007f5631ea9300f,0.064,0.064,1,78,240,97,1,fiveseven,,,,,,,,,,,,,,,,,,,,,,,,,,,,,,,,,,,,,,,,,,,,,,,,,,,,,,,,,,,,,,,,,,,,,,,,,,,,,,,,,,,,,,,,,,,,,,,,,,,,,,,,,,,,,,,,,,,,,,,,,,,,,,,,,,,,,,,,,
,,601e093a31a2902413e15c08,2024-02-19_02h12.58.293,kallum_motion_pilot,2023.2.2,Win32,60.60606061,601e093a31a2902413e15c08,65d2b6c8f2eece985d8e374c,65d2b885d007f5631ea9300f,0.0641,0.0643,1,79,241,98,1,sixfive,,,,,,,,,,,,,,,,,,,,,,,,,,,,,,,,,,,,,,,,,,,,,,,,,,,,,,,,,,,,,,,,,,,,,,,,,,,,,,,,,,,,,,,,,,,,,,,,,,,,,,,,,,,,,,,,,,,,,,,,,,,,,,,,,,,,,,,,,
,,601e093a31a2902413e15c08,2024-02-19_02h12.58.293,kallum_motion_pilot,2023.2.2,Win32,60.60606061,601e093a31a2902413e15c08,65d2b6c8f2eece985d8e374c,65d2b885d007f5631ea9300f,0.0645,0.0646,1,80,242,124,1,sevenfive,,,,,,,,,,,,,,,,,,,,,,,,,,,,,,,,,,,,,,,,,,,,,,,,,,,,,,,,,,,,,,,,,,,,,,,,,,,,,,,,,,,,,,,,,,,,,,,,,,,,,,,,,,,,,,,,,,,,,,,,,,,,,,,,,,,,,,,,,
,,601e093a31a2902413e15c08,2024-02-19_02h12.58.293,kallum_motion_pilot,2023.2.2,Win32,60.60606061,601e093a31a2902413e15c08,65d2b6c8f2eece985d8e374c,65d2b885d007f5631ea9300f,0.0649,0.065,1,81,243,146,1,sixfive,,,,,,,,,,,,,,,,,,,,,,,,,,,,,,,,,,,,,,,,,,,,,,,,,,,,,,,,,,,,,,,,,,,,,,,,,,,,,,,,,,,,,,,,,,,,,,,,,,,,,,,,,,,,,,,,,,,,,,,,,,,,,,,,,,,,,,,,,
,,601e093a31a2902413e15c08,2024-02-19_02h12.58.293,kallum_motion_pilot,2023.2.2,Win32,60.60606061,601e093a31a2902413e15c08,65d2b6c8f2eece985d8e374c,65d2b885d007f5631ea9300f,0.0651,0.0652,1,82,244,44,1,threeone,,,,,,,,,,,,,,,,,,,,,,,,,,,,,,,,,,,,,,,,,,,,,,,,,,,,,,,,,,,,,,,,,,,,,,,,,,,,,,,,,,,,,,,,,,,,,,,,,,,,,,,,,,,,,,,,,,,,,,,,,,,,,,,,,,,,,,,,,
,,601e093a31a2902413e15c08,2024-02-19_02h12.58.293,kallum_motion_pilot,2023.2.2,Win32,60.60606061,601e093a31a2902413e15c08,65d2b6c8f2eece985d8e374c,65d2b885d007f5631ea9300f,0.0653,0.0654,1,83,245,134,1,eightsix,,,,,,,,,,,,,,,,,,,,,,,,,,,,,,,,,,,,,,,,,,,,,,,,,,,,,,,,,,,,,,,,,,,,,,,,,,,,,,,,,,,,,,,,,,,,,,,,,,,,,,,,,,,,,,,,,,,,,,,,,,,,,,,,,,,,,,,,,
,,601e093a31a2902413e15c08,2024-02-19_02h12.58.293,kallum_motion_pilot,2023.2.2,Win32,60.60606061,601e093a31a2902413e15c08,65d2b6c8f2eece985d8e374c,65d2b885d007f5631ea9300f,0.0656,0.0657,1,84,246,59,1,twofour,,,,,,,,,,,,,,,,,,,,,,,,,,,,,,,,,,,,,,,,,,,,,,,,,,,,,,,,,,,,,,,,,,,,,,,,,,,,,,,,,,,,,,,,,,,,,,,,,,,,,,,,,,,,,,,,,,,,,,,,,,,,,,,,,,,,,,,,,
,,601e093a31a2902413e15c08,2024-02-19_02h12.58.293,kallum_motion_pilot,2023.2.2,Win32,60.60606061,601e093a31a2902413e15c08,65d2b6c8f2eece985d8e374c,65d2b885d007f5631ea9300f,0.0657,0.0658,1,85,247,116,1,sevenfive,,,,,,,,,,,,,,,,,,,,,,,,,,,,,,,,,,,,,,,,,,,,,,,,,,,,,,,,,,,,,,,,,,,,,,,,,,,,,,,,,,,,,,,,,,,,,,,,,,,,,,,,,,,,,,,,,,,,,,,,,,,,,,,,,,,,,,,,,
,,601e093a31a2902413e15c08,2024-02-19_02h12.58.293,kallum_motion_pilot,2023.2.2,Win32,60.60606061,601e093a31a2902413e15c08,65d2b6c8f2eece985d8e374c,65d2b885d007f5631ea9300f,0.066,0.0661,1,86,248,36,1,threeone,,,,,,,,,,,,,,,,,,,,,,,,,,,,,,,,,,,,,,,,,,,,,,,,,,,,,,,,,,,,,,,,,,,,,,,,,,,,,,,,,,,,,,,,,,,,,,,,,,,,,,,,,,,,,,,,,,,,,,,,,,,,,,,,,,,,,,,,,
,,601e093a31a2902413e15c08,2024-02-19_02h12.58.293,kallum_motion_pilot,2023.2.2,Win32,60.60606061,601e093a31a2902413e15c08,65d2b6c8f2eece985d8e374c,65d2b885d007f5631ea9300f,0.0663,0.0663,1,87,249,71,1,fourthree,,,,,,,,,,,,,,,,,,,,,,,,,,,,,,,,,,,,,,,,,,,,,,,,,,,,,,,,,,,,,,,,,,,,,,,,,,,,,,,,,,,,,,,,,,,,,,,,,,,,,,,,,,,,,,,,,,,,,,,,,,,,,,,,,,,,,,,,,
,,601e093a31a2902413e15c08,2024-02-19_02h12.58.293,kallum_motion_pilot,2023.2.2,Win32,60.60606061,601e093a31a2902413e15c08,65d2b6c8f2eece985d8e374c,65d2b885d007f5631ea9300f,0.0665,0.0666,1,88,250,112,1,fivesix,,,,,,,,,,,,,,,,,,,,,,,,,,,,,,,,,,,,,,,,,,,,,,,,,,,,,,,,,,,,,,,,,,,,,,,,,,,,,,,,,,,,,,,,,,,,,,,,,,,,,,,,,,,,,,,,,,,,,,,,,,,,,,,,,,,,,,,,,
,,601e093a31a2902413e15c08,2024-02-19_02h12.58.293,kallum_motion_pilot,2023.2.2,Win32,60.60606061,601e093a31a2902413e15c08,65d2b6c8f2eece985d8e374c,65d2b885d007f5631ea9300f,0.0667,0.0668,1,89,251,21,1,threefour,,,,,,,,,,,,,,,,,,,,,,,,,,,,,,,,,,,,,,,,,,,,,,,,,,,,,,,,,,,,,,,,,,,,,,,,,,,,,,,,,,,,,,,,,,,,,,,,,,,,,,,,,,,,,,,,,,,,,,,,,,,,,,,,,,,,,,,,,
,,601e093a31a2902413e15c08,2024-02-19_02h12.58.293,kallum_motion_pilot,2023.2.2,Win32,60.60606061,601e093a31a2902413e15c08,65d2b6c8f2eece985d8e374c,65d2b885d007f5631ea9300f,0.0669,0.0671,1,90,252,18,1,twoone,,,,,,,,,,,,,,,,,,,,,,,,,,,,,,,,,,,,,,,,,,,,,,,,,,,,,,,,,,,,,,,,,,,,,,,,,,,,,,,,,,,,,,,,,,,,,,,,,,,,,,,,,,,,,,,,,,,,,,,,,,,,,,,,,,,,,,,,,
,,601e093a31a2902413e15c08,2024-02-19_02h12.58.293,kallum_motion_pilot,2023.2.2,Win32,60.60606061,601e093a31a2902413e15c08,65d2b6c8f2eece985d8e374c,65d2b885d007f5631ea9300f,0.0672,0.0673,1,91,253,108,1,sevenfive,,,,,,,,,,,,,,,,,,,,,,,,,,,,,,,,,,,,,,,,,,,,,,,,,,,,,,,,,,,,,,,,,,,,,,,,,,,,,,,,,,,,,,,,,,,,,,,,,,,,,,,,,,,,,,,,,,,,,,,,,,,,,,,,,,,,,,,,,
,,601e093a31a2902413e15c08,2024-02-19_02h12.58.293,kallum_motion_pilot,2023.2.2,Win32,60.60606061,601e093a31a2902413e15c08,65d2b6c8f2eece985d8e374c,65d2b885d007f5631ea9300f,0.0674,0.0675,1,92,254,128,1,fivesix,,,,,,,,,,,,,,,,,,,,,,,,,,,,,,,,,,,,,,,,,,,,,,,,,,,,,,,,,,,,,,,,,,,,,,,,,,,,,,,,,,,,,,,,,,,,,,,,,,,,,,,,,,,,,,,,,,,,,,,,,,,,,,,,,,,,,,,,,
,,601e093a31a2902413e15c08,2024-02-19_02h12.58.293,kallum_motion_pilot,2023.2.2,Win32,60.60606061,601e093a31a2902413e15c08,65d2b6c8f2eece985d8e374c,65d2b885d007f5631ea9300f,0.0676,0.0678,1,93,255,83,1,sixeight,,,,,,,,,,,,,,,,,,,,,,,,,,,,,,,,,,,,,,,,,,,,,,,,,,,,,,,,,,,,,,,,,,,,,,,,,,,,,,,,,,,,,,,,,,,,,,,,,,,,,,,,,,,,,,,,,,,,,,,,,,,,,,,,,,,,,,,,,
,,601e093a31a2902413e15c08,2024-02-19_02h12.58.293,kallum_motion_pilot,2023.2.2,Win32,60.60606061,601e093a31a2902413e15c08,65d2b6c8f2eece985d8e374c,65d2b885d007f5631ea9300f,0.0679,0.068,1,94,256,68,1,threeone,,,,,,,,,,,,,,,,,,,,,,,,,,,,,,,,,,,,,,,,,,,,,,,,,,,,,,,,,,,,,,,,,,,,,,,,,,,,,,,,,,,,,,,,,,,,,,,,,,,,,,,,,,,,,,,,,,,,,,,,,,,,,,,,,,,,,,,,,
,,601e093a31a2902413e15c08,2024-02-19_02h12.58.293,kallum_motion_pilot,2023.2.2,Win32,60.60606061,601e093a31a2902413e15c08,65d2b6c8f2eece985d8e374c,65d2b885d007f5631ea9300f,0.0681,0.0682,1,95,257,34,1,twoone,,,,,,,,,,,,,,,,,,,,,,,,,,,,,,,,,,,,,,,,,,,,,,,,,,,,,,,,,,,,,,,,,,,,,,,,,,,,,,,,,,,,,,,,,,,,,,,,,,,,,,,,,,,,,,,,,,,,,,,,,,,,,,,,,,,,,,,,,
,,601e093a31a2902413e15c08,2024-02-19_02h12.58.293,kallum_motion_pilot,2023.2.2,Win32,60.60606061,601e093a31a2902413e15c08,65d2b6c8f2eece985d8e374c,65d2b885d007f5631ea9300f,0.0683,0.0684,1,96,258,143,1,eightseven,,,,,,,,,,,,,,,,,,,,,,,,,,,,,,,,,,,,,,,,,,,,,,,,,,,,,,,,,,,,,,,,,,,,,,,,,,,,,,,,,,,,,,,,,,,,,,,,,,,,,,,,,,,,,,,,,,,,,,,,,,,,,,,,,,,,,,,,,
,,601e093a31a2902413e15c08,2024-02-19_02h12.58.293,kallum_motion_pilot,2023.2.2,Win32,60.60606061,601e093a31a2902413e15c08,65d2b6c8f2eece985d8e374c,65d2b885d007f5631ea9300f,0.0685,0.0686,1,97,259,148,1,sevenfive,,,,,,,,,,,,,,,,,,,,,,,,,,,,,,,,,,,,,,,,,,,,,,,,,,,,,,,,,,,,,,,,,,,,,,,,,,,,,,,,,,,,,,,,,,,,,,,,,,,,,,,,,,,,,,,,,,,,,,,,,,,,,,,,,,,,,,,,,
,,601e093a31a2902413e15c08,2024-02-19_02h12.58.293,kallum_motion_pilot,2023.2.2,Win32,60.60606061,601e093a31a2902413e15c08,65d2b6c8f2eece985d8e374c,65d2b885d007f5631ea9300f,0.0688,0.0688,1,98,260,72,1,onetwo,,,,,,,,,,,,,,,,,,,,,,,,,,,,,,,,,,,,,,,,,,,,,,,,,,,,,,,,,,,,,,,,,,,,,,,,,,,,,,,,,,,,,,,,,,,,,,,,,,,,,,,,,,,,,,,,,,,,,,,,,,,,,,,,,,,,,,,,,
,,601e093a31a2902413e15c08,2024-02-19_02h12.58.293,kallum_motion_pilot,2023.2.2,Win32,60.60606061,601e093a31a2902413e15c08,65d2b6c8f2eece985d8e374c,65d2b885d007f5631ea9300f,0.069,0.069,1,99,261,46,1,fourtwo,,,,,,,,,,,,,,,,,,,,,,,,,,,,,,,,,,,,,,,,,,,,,,,,,,,,,,,,,,,,,,,,,,,,,,,,,,,,,,,,,,,,,,,,,,,,,,,,,,,,,,,,,,,,,,,,,,,,,,,,,,,,,,,,,,,,,,,,,
,,601e093a31a2902413e15c08,2024-02-19_02h12.58.293,kallum_motion_pilot,2023.2.2,Win32,60.60606061,601e093a31a2902413e15c08,65d2b6c8f2eece985d8e374c,65d2b885d007f5631ea9300f,0.0692,0.0693,1,100,262,103,1,eightseven,,,,,,,,,,,,,,,,,,,,,,,,,,,,,,,,,,,,,,,,,,,,,,,,,,,,,,,,,,,,,,,,,,,,,,,,,,,,,,,,,,,,,,,,,,,,,,,,,,,,,,,,,,,,,,,,,,,,,,,,,,,,,,,,,,,,,,,,,
,,601e093a31a2902413e15c08,2024-02-19_02h12.58.293,kallum_motion_pilot,2023.2.2,Win32,60.60606061,601e093a31a2902413e15c08,65d2b6c8f2eece985d8e374c,65d2b885d007f5631ea9300f,0.0693,0.0695,1,101,263,31,1,fourthree,,,,,,,,,,,,,,,,,,,,,,,,,,,,,,,,,,,,,,,,,,,,,,,,,,,,,,,,,,,,,,,,,,,,,,,,,,,,,,,,,,,,,,,,,,,,,,,,,,,,,,,,,,,,,,,,,,,,,,,,,,,,,,,,,,,,,,,,,
,,601e093a31a2902413e15c08,2024-02-19_02h12.58.293,kallum_motion_pilot,2023.2.2,Win32,60.60606061,601e093a31a2902413e15c08,65d2b6c8f2eece985d8e374c,65d2b885d007f5631ea9300f,0.0695,0.0697,1,102,264,122,1,sixfive,,,,,,,,,,,,,,,,,,,,,,,,,,,,,,,,,,,,,,,,,,,,,,,,,,,,,,,,,,,,,,,,,,,,,,,,,,,,,,,,,,,,,,,,,,,,,,,,,,,,,,,,,,,,,,,,,,,,,,,,,,,,,,,,,,,,,,,,,
,,601e093a31a2902413e15c08,2024-02-19_02h12.58.293,kallum_motion_pilot,2023.2.2,Win32,60.60606061,601e093a31a2902413e15c08,65d2b6c8f2eece985d8e374c,65d2b885d007f5631ea9300f,0.0697,0.0699,1,103,265,52,1,threeone,,,,,,,,,,,,,,,,,,,,,,,,,,,,,,,,,,,,,,,,,,,,,,,,,,,,,,,,,,,,,,,,,,,,,,,,,,,,,,,,,,,,,,,,,,,,,,,,,,,,,,,,,,,,,,,,,,,,,,,,,,,,,,,,,,,,,,,,,
,,601e093a31a2902413e15c08,2024-02-19_02h12.58.293,kallum_motion_pilot,2023.2.2,Win32,60.60606061,601e093a31a2902413e15c08,65d2b6c8f2eece985d8e374c,65d2b885d007f5631ea9300f,0.0699,0.07,1,104,266,39,1,fourthree,,,,,,,,,,,,,,,,,,,,,,,,,,,,,,,,,,,,,,,,,,,,,,,,,,,,,,,,,,,,,,,,,,,,,,,,,,,,,,,,,,,,,,,,,,,,,,,,,,,,,,,,,,,,,,,,,,,,,,,,,,,,,,,,,,,,,,,,,
,,601e093a31a2902413e15c08,2024-02-19_02h12.58.293,kallum_motion_pilot,2023.2.2,Win32,60.60606061,601e093a31a2902413e15c08,65d2b6c8f2eece985d8e374c,65d2b885d007f5631ea9300f,0.07,0.0701,1,105,267,78,1,fourtwo,,,,,,,,,,,,,,,,,,,,,,,,,,,,,,,,,,,,,,,,,,,,,,,,,,,,,,,,,,,,,,,,,,,,,,,,,,,,,,,,,,,,,,,,,,,,,,,,,,,,,,,,,,,,,,,,,,,,,,,,,,,,,,,,,,,,,,,,,
,,601e093a31a2902413e15c08,2024-02-19_02h12.58.293,kallum_motion_pilot,2023.2.2,Win32,60.60606061,601e093a31a2902413e15c08,65d2b6c8f2eece985d8e374c,65d2b885d007f5631ea9300f,0.0702,0.0703,1,106,268,61,1,threefour,,,,,,,,,,,,,,,,,,,,,,,,,,,,,,,,,,,,,,,,,,,,,,,,,,,,,,,,,,,,,,,,,,,,,,,,,,,,,,,,,,,,,,,,,,,,,,,,,,,,,,,,,,,,,,,,,,,,,,,,,,,,,,,,,,,,,,,,,
,,601e093a31a2902413e15c08,2024-02-19_02h12.58.293,kallum_motion_pilot,2023.2.2,Win32,60.60606061,601e093a31a2902413e15c08,65d2b6c8f2eece985d8e374c,65d2b885d007f5631ea9300f,0.0703,0.0704,1,107,269,49,1,onethree,,,,,,,,,,,,,,,,,,,,,,,,,,,,,,,,,,,,,,,,,,,,,,,,,,,,,,,,,,,,,,,,,,,,,,,,,,,,,,,,,,,,,,,,,,,,,,,,,,,,,,,,,,,,,,,,,,,,,,,,,,,,,,,,,,,,,,,,,
,,601e093a31a2902413e15c08,2024-02-19_02h12.58.293,kallum_motion_pilot,2023.2.2,Win32,60.60606061,601e093a31a2902413e15c08,65d2b6c8f2eece985d8e374c,65d2b885d007f5631ea9300f,0.0705,0.0705,1,108,270,142,1,eightsix,,,,,,,,,,,,,,,,,,,,,,,,,,,,,,,,,,,,,,,,,,,,,,,,,,,,,,,,,,,,,,,,,,,,,,,,,,,,,,,,,,,,,,,,,,,,,,,,,,,,,,,,,,,,,,,,,,,,,,,,,,,,,,,,,,,,,,,,,
,,601e093a31a2902413e15c08,2024-02-19_02h12.58.293,kallum_motion_pilot,2023.2.2,Win32,60.60606061,601e093a31a2902413e15c08,65d2b6c8f2eece985d8e374c,65d2b885d007f5631ea9300f,0.0706,0.0706,1,109,271,37,1,threefour,,,,,,,,,,,,,,,,,,,,,,,,,,,,,,,,,,,,,,,,,,,,,,,,,,,,,,,,,,,,,,,,,,,,,,,,,,,,,,,,,,,,,,,,,,,,,,,,,,,,,,,,,,,,,,,,,,,,,,,,,,,,,,,,,,,,,,,,,
,,601e093a31a2902413e15c08,2024-02-19_02h12.58.293,kallum_motion_pilot,2023.2.2,Win32,60.60606061,601e093a31a2902413e15c08,65d2b6c8f2eece985d8e374c,65d2b885d007f5631ea9300f,0.0707,0.0708,1,110,272,58,1,twoone,,,,,,,,,,,,,,,,,,,,,,,,,,,,,,,,,,,,,,,,,,,,,,,,,,,,,,,,,,,,,,,,,,,,,,,,,,,,,,,,,,,,,,,,,,,,,,,,,,,,,,,,,,,,,,,,,,,,,,,,,,,,,,,,,,,,,,,,,
,,601e093a31a2902413e15c08,2024-02-19_02h12.58.293,kallum_motion_pilot,2023.2.2,Win32,60.60606061,601e093a31a2902413e15c08,65d2b6c8f2eece985d8e374c,65d2b885d007f5631ea9300f,0.0709,0.0709,1,111,273,45,1,threefour,,,,,,,,,,,,,,,,,,,,,,,,,,,,,,,,,,,,,,,,,,,,,,,,,,,,,,,,,,,,,,,,,,,,,,,,,,,,,,,,,,,,,,,,,,,,,,,,,,,,,,,,,,,,,,,,,,,,,,,,,,,,,,,,,,,,,,,,,
,,601e093a31a2902413e15c08,2024-02-19_02h12.58.293,kallum_motion_pilot,2023.2.2,Win32,60.60606061,601e093a31a2902413e15c08,65d2b6c8f2eece985d8e374c,65d2b885d007f5631ea9300f,0.0711,0.0711,1,112,274,92,1,sevenfive,,,,,,,,,,,,,,,,,,,,,,,,,,,,,,,,,,,,,,,,,,,,,,,,,,,,,,,,,,,,,,,,,,,,,,,,,,,,,,,,,,,,,,,,,,,,,,,,,,,,,,,,,,,,,,,,,,,,,,,,,,,,,,,,,,,,,,,,,
,,601e093a31a2902413e15c08,2024-02-19_02h12.58.293,kallum_motion_pilot,2023.2.2,Win32,60.60606061,601e093a31a2902413e15c08,65d2b6c8f2eece985d8e374c,65d2b885d007f5631ea9300f,0.0711,0.0712,1,113,275,85,1,seveneight,,,,,,,,,,,,,,,,,,,,,,,,,,,,,,,,,,,,,,,,,,,,,,,,,,,,,,,,,,,,,,,,,,,,,,,,,,,,,,,,,,,,,,,,,,,,,,,,,,,,,,,,,,,,,,,,,,,,,,,,,,,,,,,,,,,,,,,,,
,,601e093a31a2902413e15c08,2024-02-19_02h12.58.293,kallum_motion_pilot,2023.2.2,Win32,60.60606061,601e093a31a2902413e15c08,65d2b6c8f2eece985d8e374c,65d2b885d007f5631ea9300f,0.0713,0.0714,1,114,276,3,1,twofour,,,,,,,,,,,,,,,,,,,,,,,,,,,,,,,,,,,,,,,,,,,,,,,,,,,,,,,,,,,,,,,,,,,,,,,,,,,,,,,,,,,,,,,,,,,,,,,,,,,,,,,,,,,,,,,,,,,,,,,,,,,,,,,,,,,,,,,,,
,,601e093a31a2902413e15c08,2024-02-19_02h12.58.293,kallum_motion_pilot,2023.2.2,Win32,60.60606061,601e093a31a2902413e15c08,65d2b6c8f2eece985d8e374c,65d2b885d007f5631ea9300f,0.0715,0.0716,1,115,277,66,1,twoone,,,,,,,,,,,,,,,,,,,,,,,,,,,,,,,,,,,,,,,,,,,,,,,,,,,,,,,,,,,,,,,,,,,,,,,,,,,,,,,,,,,,,,,,,,,,,,,,,,,,,,,,,,,,,,,,,,,,,,,,,,,,,,,,,,,,,,,,,
