startup.started,startup.stopped,Prolific ID*,date,expName,psychopyVersion,OS,frameRate,participant,study_id,session,stimpositions.started,stimpositions.stopped,hardcoded_stimulus_positions.thisRepN,hardcoded_stimulus_positions.thisTrialN,hardcoded_stimulus_positions.thisN,hardcoded_stimulus_positions.thisIndex,hardcoded_stimulus_positions.ran,StimulusPos,stimorientation.started,stimorientation.stopped,prac_stimorientation_import_loop.thisRepN,prac_stimorientation_import_loop.thisTrialN,prac_stimorientation_import_loop.thisN,prac_stimorientation_import_loop.thisIndex,prac_stimorientation_import_loop.ran,Stimorientation,welcome_instr.started,welcome_instr.stopped,key_resp.keys,key_resp.rt,key_resp.duration,response_steppedout_1.started,response_steppedout_1.stopped,key_resp_20.keys,key_resp_20.rt,key_resp_20.duration,response_steppedout_2.started,response_steppedout_2.stopped,key_resp_19.keys,key_resp_19.rt,key_resp_19.duration,stim_response_instr.started,stim_response_instr.stopped,key_resp_15.keys,key_resp_15.rt,key_resp_15.duration,direction_instr_2.started,direction_instr_2.stopped,key_resp_9.keys,key_resp_9.rt,key_resp_9.duration,instr_prac.started,instr_prac.stopped,key_resp_10.keys,key_resp_10.rt,key_resp_10.duration,Stim1_display_prac.started,Stim1_display_prac.stopped,Ecc,Circle1_ori,Circle2_ori,response_prac.started,similarity,response_time,response_prac.stopped,mouse_5.x,mouse_5.y,mouse_5.leftButton,mouse_5.midButton,mouse_5.rightButton,mouse_5.clicked_name,responseprac_feedback.started,responseprac_feedback.stopped,summary2_prac.started,summary2_prac.stopped,mouse_6.x,mouse_6.y,mouse_6.leftButton,mouse_6.midButton,mouse_6.rightButton,mouse_6.clicked_name,duringprac.thisRepN,duringprac.thisTrialN,duringprac.thisN,duringprac.thisIndex,duringprac.ran,begin.started,begin.stopped,key_resp_22.keys,key_resp_22.rt,key_resp_22.duration,Stim1_display.started,Stim1_display.stopped,circle1_ori,circle2_ori,circle1_SF,circle2_SF,response.started,response.stopped,mouse.x,mouse.y,mouse.leftButton,mouse.midButton,mouse.rightButton,mouse.clicked_name,trialnumber,double_pass.thisRepN,double_pass.thisTrialN,double_pass.thisN,double_pass.thisIndex,double_pass.ran,double_pass.order,main_trial.thisRepN,main_trial.thisTrialN,main_trial.thisN,main_trial.thisIndex,main_trial.ran,main_trial.order,Trial_Counter,Catch,Frequencies,response_2.started,response_2.stopped,mouse_2.x,mouse_2.y,mouse_2.leftButton,mouse_2.midButton,mouse_2.rightButton,mouse_2.clicked_name,special_trial.started,special_trial.stopped,catch_1.started,catch_1.stopped,mouse_3.x,mouse_3.y,mouse_3.leftButton,mouse_3.midButton,mouse_3.rightButton,catchresponse,catchnumber,response_time_catch,response_sum.started,response_sum.stopped,mouse_11.x,mouse_11.y,mouse_11.leftButton,mouse_11.midButton,mouse_11.rightButton,flip_presentation_sequence_for_double_pass.started,flip_presentation_sequence_for_double_pass.stopped,goodbye.started,goodbye.stopped,key_resp_3.keys,key_resp_3.rt,key_resp_3.duration
0,0,60317e6dc44c7f0fdfc91e66,2024-02-19_10h17.27.548,kallum_motion_pilot,2023.2.2,Win32,58.82352941,60317e6dc44c7f0fdfc91e66,65d2b6c8f2eece985d8e374c,65d2ba0ff2cdb579bb1760fb,,,,,,,,,,,,,,,,,,,,,,,,,,,,,,,,,,,,,,,,,,,,,,,,,,,,,,,,,,,,,,,,,,,,,,,,,,,,,,,,,,,,,,,,,,,,,,,,,,,,,,,,,,,,,,,,,,,,,,,,,,,,,,,,,,,,,,,,,,,,,,,,,
,,60317e6dc44c7f0fdfc91e66,2024-02-19_10h17.27.548,kallum_motion_pilot,2023.2.2,Win32,58.82352941,60317e6dc44c7f0fdfc91e66,65d2b6c8f2eece985d8e374c,65d2ba0ff2cdb579bb1760fb,0.023,0.023,0,0,0,143,1,eightseven,,,,,,,,,,,,,,,,,,,,,,,,,,,,,,,,,,,,,,,,,,,,,,,,,,,,,,,,,,,,,,,,,,,,,,,,,,,,,,,,,,,,,,,,,,,,,,,,,,,,,,,,,,,,,,,,,,,,,,,,,,,,,,,,,,,,,,,,,
,,60317e6dc44c7f0fdfc91e66,2024-02-19_10h17.27.548,kallum_motion_pilot,2023.2.2,Win32,58.82352941,60317e6dc44c7f0fdfc91e66,65d2b6c8f2eece985d8e374c,65d2ba0ff2cdb579bb1760fb,0.023,0.023,0,1,1,138,1,sixfive,,,,,,,,,,,,,,,,,,,,,,,,,,,,,,,,,,,,,,,,,,,,,,,,,,,,,,,,,,,,,,,,,,,,,,,,,,,,,,,,,,,,,,,,,,,,,,,,,,,,,,,,,,,,,,,,,,,,,,,,,,,,,,,,,,,,,,,,,
,,60317e6dc44c7f0fdfc91e66,2024-02-19_10h17.27.548,kallum_motion_pilot,2023.2.2,Win32,58.82352941,60317e6dc44c7f0fdfc91e66,65d2b6c8f2eece985d8e374c,65d2ba0ff2cdb579bb1760fb,0.024,0.024,0,2,2,2,1,twoone,,,,,,,,,,,,,,,,,,,,,,,,,,,,,,,,,,,,,,,,,,,,,,,,,,,,,,,,,,,,,,,,,,,,,,,,,,,,,,,,,,,,,,,,,,,,,,,,,,,,,,,,,,,,,,,,,,,,,,,,,,,,,,,,,,,,,,,,,
,,60317e6dc44c7f0fdfc91e66,2024-02-19_10h17.27.548,kallum_motion_pilot,2023.2.2,Win32,58.82352941,60317e6dc44c7f0fdfc91e66,65d2b6c8f2eece985d8e374c,65d2ba0ff2cdb579bb1760fb,0.024,0.024,0,3,3,78,1,fourtwo,,,,,,,,,,,,,,,,,,,,,,,,,,,,,,,,,,,,,,,,,,,,,,,,,,,,,,,,,,,,,,,,,,,,,,,,,,,,,,,,,,,,,,,,,,,,,,,,,,,,,,,,,,,,,,,,,,,,,,,,,,,,,,,,,,,,,,,,,
,,60317e6dc44c7f0fdfc91e66,2024-02-19_10h17.27.548,kallum_motion_pilot,2023.2.2,Win32,58.82352941,60317e6dc44c7f0fdfc91e66,65d2b6c8f2eece985d8e374c,65d2ba0ff2cdb579bb1760fb,0.024,0.024,0,4,4,132,1,sevenfive,,,,,,,,,,,,,,,,,,,,,,,,,,,,,,,,,,,,,,,,,,,,,,,,,,,,,,,,,,,,,,,,,,,,,,,,,,,,,,,,,,,,,,,,,,,,,,,,,,,,,,,,,,,,,,,,,,,,,,,,,,,,,,,,,,,,,,,,,
,,60317e6dc44c7f0fdfc91e66,2024-02-19_10h17.27.548,kallum_motion_pilot,2023.2.2,Win32,58.82352941,60317e6dc44c7f0fdfc91e66,65d2b6c8f2eece985d8e374c,65d2ba0ff2cdb579bb1760fb,0.024,0.024,0,5,5,147,1,sixeight,,,,,,,,,,,,,,,,,,,,,,,,,,,,,,,,,,,,,,,,,,,,,,,,,,,,,,,,,,,,,,,,,,,,,,,,,,,,,,,,,,,,,,,,,,,,,,,,,,,,,,,,,,,,,,,,,,,,,,,,,,,,,,,,,,,,,,,,,
,,60317e6dc44c7f0fdfc91e66,2024-02-19_10h17.27.548,kallum_motion_pilot,2023.2.2,Win32,58.82352941,60317e6dc44c7f0fdfc91e66,65d2b6c8f2eece985d8e374c,65d2ba0ff2cdb579bb1760fb,0.024,0.024,0,6,6,79,1,eightseven,,,,,,,,,,,,,,,,,,,,,,,,,,,,,,,,,,,,,,,,,,,,,,,,,,,,,,,,,,,,,,,,,,,,,,,,,,,,,,,,,,,,,,,,,,,,,,,,,,,,,,,,,,,,,,,,,,,,,,,,,,,,,,,,,,,,,,,,,
,,60317e6dc44c7f0fdfc91e66,2024-02-19_10h17.27.548,kallum_motion_pilot,2023.2.2,Win32,58.82352941,60317e6dc44c7f0fdfc91e66,65d2b6c8f2eece985d8e374c,65d2ba0ff2cdb579bb1760fb,0.024,0.024,0,7,7,36,1,threeone,,,,,,,,,,,,,,,,,,,,,,,,,,,,,,,,,,,,,,,,,,,,,,,,,,,,,,,,,,,,,,,,,,,,,,,,,,,,,,,,,,,,,,,,,,,,,,,,,,,,,,,,,,,,,,,,,,,,,,,,,,,,,,,,,,,,,,,,,
,,60317e6dc44c7f0fdfc91e66,2024-02-19_10h17.27.548,kallum_motion_pilot,2023.2.2,Win32,58.82352941,60317e6dc44c7f0fdfc91e66,65d2b6c8f2eece985d8e374c,65d2ba0ff2cdb579bb1760fb,0.024,0.024,0,8,8,3,1,twofour,,,,,,,,,,,,,,,,,,,,,,,,,,,,,,,,,,,,,,,,,,,,,,,,,,,,,,,,,,,,,,,,,,,,,,,,,,,,,,,,,,,,,,,,,,,,,,,,,,,,,,,,,,,,,,,,,,,,,,,,,,,,,,,,,,,,,,,,,
,,60317e6dc44c7f0fdfc91e66,2024-02-19_10h17.27.548,kallum_motion_pilot,2023.2.2,Win32,58.82352941,60317e6dc44c7f0fdfc91e66,65d2b6c8f2eece985d8e374c,65d2ba0ff2cdb579bb1760fb,0.024,0.024,0,9,9,128,1,fivesix,,,,,,,,,,,,,,,,,,,,,,,,,,,,,,,,,,,,,,,,,,,,,,,,,,,,,,,,,,,,,,,,,,,,,,,,,,,,,,,,,,,,,,,,,,,,,,,,,,,,,,,,,,,,,,,,,,,,,,,,,,,,,,,,,,,,,,,,,
,,60317e6dc44c7f0fdfc91e66,2024-02-19_10h17.27.548,kallum_motion_pilot,2023.2.2,Win32,58.82352941,60317e6dc44c7f0fdfc91e66,65d2b6c8f2eece985d8e374c,65d2ba0ff2cdb579bb1760fb,0.024,0.024,0,10,10,57,1,onethree,,,,,,,,,,,,,,,,,,,,,,,,,,,,,,,,,,,,,,,,,,,,,,,,,,,,,,,,,,,,,,,,,,,,,,,,,,,,,,,,,,,,,,,,,,,,,,,,,,,,,,,,,,,,,,,,,,,,,,,,,,,,,,,,,,,,,,,,,
,,60317e6dc44c7f0fdfc91e66,2024-02-19_10h17.27.548,kallum_motion_pilot,2023.2.2,Win32,58.82352941,60317e6dc44c7f0fdfc91e66,65d2b6c8f2eece985d8e374c,65d2ba0ff2cdb579bb1760fb,0.025,0.025,0,11,11,102,1,eightsix,,,,,,,,,,,,,,,,,,,,,,,,,,,,,,,,,,,,,,,,,,,,,,,,,,,,,,,,,,,,,,,,,,,,,,,,,,,,,,,,,,,,,,,,,,,,,,,,,,,,,,,,,,,,,,,,,,,,,,,,,,,,,,,,,,,,,,,,,
,,60317e6dc44c7f0fdfc91e66,2024-02-19_10h17.27.548,kallum_motion_pilot,2023.2.2,Win32,58.82352941,60317e6dc44c7f0fdfc91e66,65d2b6c8f2eece985d8e374c,65d2ba0ff2cdb579bb1760fb,0.025,0.025,0,12,12,30,1,fourtwo,,,,,,,,,,,,,,,,,,,,,,,,,,,,,,,,,,,,,,,,,,,,,,,,,,,,,,,,,,,,,,,,,,,,,,,,,,,,,,,,,,,,,,,,,,,,,,,,,,,,,,,,,,,,,,,,,,,,,,,,,,,,,,,,,,,,,,,,,
,,60317e6dc44c7f0fdfc91e66,2024-02-19_10h17.27.548,kallum_motion_pilot,2023.2.2,Win32,58.82352941,60317e6dc44c7f0fdfc91e66,65d2b6c8f2eece985d8e374c,65d2ba0ff2cdb579bb1760fb,0.025,0.025,0,13,13,111,1,eightseven,,,,,,,,,,,,,,,,,,,,,,,,,,,,,,,,,,,,,,,,,,,,,,,,,,,,,,,,,,,,,,,,,,,,,,,,,,,,,,,,,,,,,,,,,,,,,,,,,,,,,,,,,,,,,,,,,,,,,,,,,,,,,,,,,,,,,,,,,
,,60317e6dc44c7f0fdfc91e66,2024-02-19_10h17.27.548,kallum_motion_pilot,2023.2.2,Win32,58.82352941,60317e6dc44c7f0fdfc91e66,65d2b6c8f2eece985d8e374c,65d2ba0ff2cdb579bb1760fb,0.026,0.026,0,14,14,59,1,twofour,,,,,,,,,,,,,,,,,,,,,,,,,,,,,,,,,,,,,,,,,,,,,,,,,,,,,,,,,,,,,,,,,,,,,,,,,,,,,,,,,,,,,,,,,,,,,,,,,,,,,,,,,,,,,,,,,,,,,,,,,,,,,,,,,,,,,,,,,
,,60317e6dc44c7f0fdfc91e66,2024-02-19_10h17.27.548,kallum_motion_pilot,2023.2.2,Win32,58.82352941,60317e6dc44c7f0fdfc91e66,65d2b6c8f2eece985d8e374c,65d2ba0ff2cdb579bb1760fb,0.026,0.026,0,15,15,22,1,fourtwo,,,,,,,,,,,,,,,,,,,,,,,,,,,,,,,,,,,,,,,,,,,,,,,,,,,,,,,,,,,,,,,,,,,,,,,,,,,,,,,,,,,,,,,,,,,,,,,,,,,,,,,,,,,,,,,,,,,,,,,,,,,,,,,,,,,,,,,,,
,,60317e6dc44c7f0fdfc91e66,2024-02-19_10h17.27.548,kallum_motion_pilot,2023.2.2,Win32,58.82352941,60317e6dc44c7f0fdfc91e66,65d2b6c8f2eece985d8e374c,65d2ba0ff2cdb579bb1760fb,0.026,0.026,0,16,16,156,1,sevenfive,,,,,,,,,,,,,,,,,,,,,,,,,,,,,,,,,,,,,,,,,,,,,,,,,,,,,,,,,,,,,,,,,,,,,,,,,,,,,,,,,,,,,,,,,,,,,,,,,,,,,,,,,,,,,,,,,,,,,,,,,,,,,,,,,,,,,,,,,
,,60317e6dc44c7f0fdfc91e66,2024-02-19_10h17.27.548,kallum_motion_pilot,2023.2.2,Win32,58.82352941,60317e6dc44c7f0fdfc91e66,65d2b6c8f2eece985d8e374c,65d2ba0ff2cdb579bb1760fb,0.026,0.026,0,17,17,105,1,fiveseven,,,,,,,,,,,,,,,,,,,,,,,,,,,,,,,,,,,,,,,,,,,,,,,,,,,,,,,,,,,,,,,,,,,,,,,,,,,,,,,,,,,,,,,,,,,,,,,,,,,,,,,,,,,,,,,,,,,,,,,,,,,,,,,,,,,,,,,,,
,,60317e6dc44c7f0fdfc91e66,2024-02-19_10h17.27.548,kallum_motion_pilot,2023.2.2,Win32,58.82352941,60317e6dc44c7f0fdfc91e66,65d2b6c8f2eece985d8e374c,65d2ba0ff2cdb579bb1760fb,0.026,0.026,0,18,18,44,1,threeone,,,,,,,,,,,,,,,,,,,,,,,,,,,,,,,,,,,,,,,,,,,,,,,,,,,,,,,,,,,,,,,,,,,,,,,,,,,,,,,,,,,,,,,,,,,,,,,,,,,,,,,,,,,,,,,,,,,,,,,,,,,,,,,,,,,,,,,,,
,,60317e6dc44c7f0fdfc91e66,2024-02-19_10h17.27.548,kallum_motion_pilot,2023.2.2,Win32,58.82352941,60317e6dc44c7f0fdfc91e66,65d2b6c8f2eece985d8e374c,65d2ba0ff2cdb579bb1760fb,0.026,0.026,0,19,19,5,1,threefour,,,,,,,,,,,,,,,,,,,,,,,,,,,,,,,,,,,,,,,,,,,,,,,,,,,,,,,,,,,,,,,,,,,,,,,,,,,,,,,,,,,,,,,,,,,,,,,,,,,,,,,,,,,,,,,,,,,,,,,,,,,,,,,,,,,,,,,,,
,,60317e6dc44c7f0fdfc91e66,2024-02-19_10h17.27.548,kallum_motion_pilot,2023.2.2,Win32,58.82352941,60317e6dc44c7f0fdfc91e66,65d2b6c8f2eece985d8e374c,65d2ba0ff2cdb579bb1760fb,0.026,0.026,0,20,20,56,1,onetwo,,,,,,,,,,,,,,,,,,,,,,,,,,,,,,,,,,,,,,,,,,,,,,,,,,,,,,,,,,,,,,,,,,,,,,,,,,,,,,,,,,,,,,,,,,,,,,,,,,,,,,,,,,,,,,,,,,,,,,,,,,,,,,,,,,,,,,,,,
,,60317e6dc44c7f0fdfc91e66,2024-02-19_10h17.27.548,kallum_motion_pilot,2023.2.2,Win32,58.82352941,60317e6dc44c7f0fdfc91e66,65d2b6c8f2eece985d8e374c,65d2ba0ff2cdb579bb1760fb,0.026,0.026,0,21,21,107,1,sixeight,,,,,,,,,,,,,,,,,,,,,,,,,,,,,,,,,,,,,,,,,,,,,,,,,,,,,,,,,,,,,,,,,,,,,,,,,,,,,,,,,,,,,,,,,,,,,,,,,,,,,,,,,,,,,,,,,,,,,,,,,,,,,,,,,,,,,,,,,
,,60317e6dc44c7f0fdfc91e66,2024-02-19_10h17.27.548,kallum_motion_pilot,2023.2.2,Win32,58.82352941,60317e6dc44c7f0fdfc91e66,65d2b6c8f2eece985d8e374c,65d2ba0ff2cdb579bb1760fb,0.026,0.026,0,22,22,43,1,twofour,,,,,,,,,,,,,,,,,,,,,,,,,,,,,,,,,,,,,,,,,,,,,,,,,,,,,,,,,,,,,,,,,,,,,,,,,,,,,,,,,,,,,,,,,,,,,,,,,,,,,,,,,,,,,,,,,,,,,,,,,,,,,,,,,,,,,,,,,
,,60317e6dc44c7f0fdfc91e66,2024-02-19_10h17.27.548,kallum_motion_pilot,2023.2.2,Win32,58.82352941,60317e6dc44c7f0fdfc91e66,65d2b6c8f2eece985d8e374c,65d2ba0ff2cdb579bb1760fb,0.026,0.026,0,23,23,62,1,fourtwo,,,,,,,,,,,,,,,,,,,,,,,,,,,,,,,,,,,,,,,,,,,,,,,,,,,,,,,,,,,,,,,,,,,,,,,,,,,,,,,,,,,,,,,,,,,,,,,,,,,,,,,,,,,,,,,,,,,,,,,,,,,,,,,,,,,,,,,,,
,,60317e6dc44c7f0fdfc91e66,2024-02-19_10h17.27.548,kallum_motion_pilot,2023.2.2,Win32,58.82352941,60317e6dc44c7f0fdfc91e66,65d2b6c8f2eece985d8e374c,65d2ba0ff2cdb579bb1760fb,0.026,0.026,0,24,24,151,1,eightseven,,,,,,,,,,,,,,,,,,,,,,,,,,,,,,,,,,,,,,,,,,,,,,,,,,,,,,,,,,,,,,,,,,,,,,,,,,,,,,,,,,,,,,,,,,,,,,,,,,,,,,,,,,,,,,,,,,,,,,,,,,,,,,,,,,,,,,,,,
,,60317e6dc44c7f0fdfc91e66,2024-02-19_10h17.27.548,kallum_motion_pilot,2023.2.2,Win32,58.82352941,60317e6dc44c7f0fdfc91e66,65d2b6c8f2eece985d8e374c,65d2ba0ff2cdb579bb1760fb,0.026,0.026,0,25,25,45,1,threefour,,,,,,,,,,,,,,,,,,,,,,,,,,,,,,,,,,,,,,,,,,,,,,,,,,,,,,,,,,,,,,,,,,,,,,,,,,,,,,,,,,,,,,,,,,,,,,,,,,,,,,,,,,,,,,,,,,,,,,,,,,,,,,,,,,,,,,,,,
,,60317e6dc44c7f0fdfc91e66,2024-02-19_10h17.27.548,kallum_motion_pilot,2023.2.2,Win32,58.82352941,60317e6dc44c7f0fdfc91e66,65d2b6c8f2eece985d8e374c,65d2ba0ff2cdb579bb1760fb,0.026,0.026,0,26,26,37,1,threefour,,,,,,,,,,,,,,,,,,,,,,,,,,,,,,,,,,,,,,,,,,,,,,,,,,,,,,,,,,,,,,,,,,,,,,,,,,,,,,,,,,,,,,,,,,,,,,,,,,,,,,,,,,,,,,,,,,,,,,,,,,,,,,,,,,,,,,,,,
,,60317e6dc44c7f0fdfc91e66,2024-02-19_10h17.27.548,kallum_motion_pilot,2023.2.2,Win32,58.82352941,60317e6dc44c7f0fdfc91e66,65d2b6c8f2eece985d8e374c,65d2ba0ff2cdb579bb1760fb,0.026,0.026,0,27,27,9,1,onethree,,,,,,,,,,,,,,,,,,,,,,,,,,,,,,,,,,,,,,,,,,,,,,,,,,,,,,,,,,,,,,,,,,,,,,,,,,,,,,,,,,,,,,,,,,,,,,,,,,,,,,,,,,,,,,,,,,,,,,,,,,,,,,,,,,,,,,,,,
,,60317e6dc44c7f0fdfc91e66,2024-02-19_10h17.27.548,kallum_motion_pilot,2023.2.2,Win32,58.82352941,60317e6dc44c7f0fdfc91e66,65d2b6c8f2eece985d8e374c,65d2ba0ff2cdb579bb1760fb,0.026,0.026,0,28,28,144,1,fivesix,,,,,,,,,,,,,,,,,,,,,,,,,,,,,,,,,,,,,,,,,,,,,,,,,,,,,,,,,,,,,,,,,,,,,,,,,,,,,,,,,,,,,,,,,,,,,,,,,,,,,,,,,,,,,,,,,,,,,,,,,,,,,,,,,,,,,,,,,
,,60317e6dc44c7f0fdfc91e66,2024-02-19_10h17.27.548,kallum_motion_pilot,2023.2.2,Win32,58.82352941,60317e6dc44c7f0fdfc91e66,65d2b6c8f2eece985d8e374c,65d2ba0ff2cdb579bb1760fb,0.026,0.026,0,29,29,8,1,onetwo,,,,,,,,,,,,,,,,,,,,,,,,,,,,,,,,,,,,,,,,,,,,,,,,,,,,,,,,,,,,,,,,,,,,,,,,,,,,,,,,,,,,,,,,,,,,,,,,,,,,,,,,,,,,,,,,,,,,,,,,,,,,,,,,,,,,,,,,,
,,60317e6dc44c7f0fdfc91e66,2024-02-19_10h17.27.548,kallum_motion_pilot,2023.2.2,Win32,58.82352941,60317e6dc44c7f0fdfc91e66,65d2b6c8f2eece985d8e374c,65d2ba0ff2cdb579bb1760fb,0.026,0.027,0,30,30,54,1,fourtwo,,,,,,,,,,,,,,,,,,,,,,,,,,,,,,,,,,,,,,,,,,,,,,,,,,,,,,,,,,,,,,,,,,,,,,,,,,,,,,,,,,,,,,,,,,,,,,,,,,,,,,,,,,,,,,,,,,,,,,,,,,,,,,,,,,,,,,,,,
,,60317e6dc44c7f0fdfc91e66,2024-02-19_10h17.27.548,kallum_motion_pilot,2023.2.2,Win32,58.82352941,60317e6dc44c7f0fdfc91e66,65d2b6c8f2eece985d8e374c,65d2ba0ff2cdb579bb1760fb,0.027,0.027,0,31,31,91,1,sixeight,,,,,,,,,,,,,,,,,,,,,,,,,,,,,,,,,,,,,,,,,,,,,,,,,,,,,,,,,,,,,,,,,,,,,,,,,,,,,,,,,,,,,,,,,,,,,,,,,,,,,,,,,,,,,,,,,,,,,,,,,,,,,,,,,,,,,,,,,
,,60317e6dc44c7f0fdfc91e66,2024-02-19_10h17.27.548,kallum_motion_pilot,2023.2.2,Win32,58.82352941,60317e6dc44c7f0fdfc91e66,65d2b6c8f2eece985d8e374c,65d2ba0ff2cdb579bb1760fb,0.027,0.027,0,32,32,35,1,twofour,,,,,,,,,,,,,,,,,,,,,,,,,,,,,,,,,,,,,,,,,,,,,,,,,,,,,,,,,,,,,,,,,,,,,,,,,,,,,,,,,,,,,,,,,,,,,,,,,,,,,,,,,,,,,,,,,,,,,,,,,,,,,,,,,,,,,,,,,
,,60317e6dc44c7f0fdfc91e66,2024-02-19_10h17.27.548,kallum_motion_pilot,2023.2.2,Win32,58.82352941,60317e6dc44c7f0fdfc91e66,65d2b6c8f2eece985d8e374c,65d2ba0ff2cdb579bb1760fb,0.027,0.027,0,33,33,70,1,fourtwo,,,,,,,,,,,,,,,,,,,,,,,,,,,,,,,,,,,,,,,,,,,,,,,,,,,,,,,,,,,,,,,,,,,,,,,,,,,,,,,,,,,,,,,,,,,,,,,,,,,,,,,,,,,,,,,,,,,,,,,,,,,,,,,,,,,,,,,,,
,,60317e6dc44c7f0fdfc91e66,2024-02-19_10h17.27.548,kallum_motion_pilot,2023.2.2,Win32,58.82352941,60317e6dc44c7f0fdfc91e66,65d2b6c8f2eece985d8e374c,65d2ba0ff2cdb579bb1760fb,0.027,0.027,0,34,34,117,1,seveneight,,,,,,,,,,,,,,,,,,,,,,,,,,,,,,,,,,,,,,,,,,,,,,,,,,,,,,,,,,,,,,,,,,,,,,,,,,,,,,,,,,,,,,,,,,,,,,,,,,,,,,,,,,,,,,,,,,,,,,,,,,,,,,,,,,,,,,,,,
,,60317e6dc44c7f0fdfc91e66,2024-02-19_10h17.27.548,kallum_motion_pilot,2023.2.2,Win32,58.82352941,60317e6dc44c7f0fdfc91e66,65d2b6c8f2eece985d8e374c,65d2ba0ff2cdb579bb1760fb,0.027,0.027,0,35,35,134,1,eightsix,,,,,,,,,,,,,,,,,,,,,,,,,,,,,,,,,,,,,,,,,,,,,,,,,,,,,,,,,,,,,,,,,,,,,,,,,,,,,,,,,,,,,,,,,,,,,,,,,,,,,,,,,,,,,,,,,,,,,,,,,,,,,,,,,,,,,,,,,
,,60317e6dc44c7f0fdfc91e66,2024-02-19_10h17.27.548,kallum_motion_pilot,2023.2.2,Win32,58.82352941,60317e6dc44c7f0fdfc91e66,65d2b6c8f2eece985d8e374c,65d2ba0ff2cdb579bb1760fb,0.027,0.027,0,36,36,123,1,sixeight,,,,,,,,,,,,,,,,,,,,,,,,,,,,,,,,,,,,,,,,,,,,,,,,,,,,,,,,,,,,,,,,,,,,,,,,,,,,,,,,,,,,,,,,,,,,,,,,,,,,,,,,,,,,,,,,,,,,,,,,,,,,,,,,,,,,,,,,,
,,60317e6dc44c7f0fdfc91e66,2024-02-19_10h17.27.548,kallum_motion_pilot,2023.2.2,Win32,58.82352941,60317e6dc44c7f0fdfc91e66,65d2b6c8f2eece985d8e374c,65d2ba0ff2cdb579bb1760fb,0.027,0.027,0,37,37,140,1,sevenfive,,,,,,,,,,,,,,,,,,,,,,,,,,,,,,,,,,,,,,,,,,,,,,,,,,,,,,,,,,,,,,,,,,,,,,,,,,,,,,,,,,,,,,,,,,,,,,,,,,,,,,,,,,,,,,,,,,,,,,,,,,,,,,,,,,,,,,,,,
,,60317e6dc44c7f0fdfc91e66,2024-02-19_10h17.27.548,kallum_motion_pilot,2023.2.2,Win32,58.82352941,60317e6dc44c7f0fdfc91e66,65d2b6c8f2eece985d8e374c,65d2ba0ff2cdb579bb1760fb,0.027,0.027,0,38,38,121,1,fiveseven,,,,,,,,,,,,,,,,,,,,,,,,,,,,,,,,,,,,,,,,,,,,,,,,,,,,,,,,,,,,,,,,,,,,,,,,,,,,,,,,,,,,,,,,,,,,,,,,,,,,,,,,,,,,,,,,,,,,,,,,,,,,,,,,,,,,,,,,,
,,60317e6dc44c7f0fdfc91e66,2024-02-19_10h17.27.548,kallum_motion_pilot,2023.2.2,Win32,58.82352941,60317e6dc44c7f0fdfc91e66,65d2b6c8f2eece985d8e374c,65d2ba0ff2cdb579bb1760fb,0.027,0.027,0,39,39,67,1,twofour,,,,,,,,,,,,,,,,,,,,,,,,,,,,,,,,,,,,,,,,,,,,,,,,,,,,,,,,,,,,,,,,,,,,,,,,,,,,,,,,,,,,,,,,,,,,,,,,,,,,,,,,,,,,,,,,,,,,,,,,,,,,,,,,,,,,,,,,,
,,60317e6dc44c7f0fdfc91e66,2024-02-19_10h17.27.548,kallum_motion_pilot,2023.2.2,Win32,58.82352941,60317e6dc44c7f0fdfc91e66,65d2b6c8f2eece985d8e374c,65d2ba0ff2cdb579bb1760fb,0.027,0.027,0,40,40,50,1,twoone,,,,,,,,,,,,,,,,,,,,,,,,,,,,,,,,,,,,,,,,,,,,,,,,,,,,,,,,,,,,,,,,,,,,,,,,,,,,,,,,,,,,,,,,,,,,,,,,,,,,,,,,,,,,,,,,,,,,,,,,,,,,,,,,,,,,,,,,,
,,60317e6dc44c7f0fdfc91e66,2024-02-19_10h17.27.548,kallum_motion_pilot,2023.2.2,Win32,58.82352941,60317e6dc44c7f0fdfc91e66,65d2b6c8f2eece985d8e374c,65d2ba0ff2cdb579bb1760fb,0.027,0.027,0,41,41,4,1,threeone,,,,,,,,,,,,,,,,,,,,,,,,,,,,,,,,,,,,,,,,,,,,,,,,,,,,,,,,,,,,,,,,,,,,,,,,,,,,,,,,,,,,,,,,,,,,,,,,,,,,,,,,,,,,,,,,,,,,,,,,,,,,,,,,,,,,,,,,,
,,60317e6dc44c7f0fdfc91e66,2024-02-19_10h17.27.548,kallum_motion_pilot,2023.2.2,Win32,58.82352941,60317e6dc44c7f0fdfc91e66,65d2b6c8f2eece985d8e374c,65d2ba0ff2cdb579bb1760fb,0.027,0.027,0,42,42,53,1,threefour,,,,,,,,,,,,,,,,,,,,,,,,,,,,,,,,,,,,,,,,,,,,,,,,,,,,,,,,,,,,,,,,,,,,,,,,,,,,,,,,,,,,,,,,,,,,,,,,,,,,,,,,,,,,,,,,,,,,,,,,,,,,,,,,,,,,,,,,,
,,60317e6dc44c7f0fdfc91e66,2024-02-19_10h17.27.548,kallum_motion_pilot,2023.2.2,Win32,58.82352941,60317e6dc44c7f0fdfc91e66,65d2b6c8f2eece985d8e374c,65d2ba0ff2cdb579bb1760fb,0.027,0.027,0,43,43,124,1,sevenfive,,,,,,,,,,,,,,,,,,,,,,,,,,,,,,,,,,,,,,,,,,,,,,,,,,,,,,,,,,,,,,,,,,,,,,,,,,,,,,,,,,,,,,,,,,,,,,,,,,,,,,,,,,,,,,,,,,,,,,,,,,,,,,,,,,,,,,,,,
,,60317e6dc44c7f0fdfc91e66,2024-02-19_10h17.27.548,kallum_motion_pilot,2023.2.2,Win32,58.82352941,60317e6dc44c7f0fdfc91e66,65d2b6c8f2eece985d8e374c,65d2ba0ff2cdb579bb1760fb,0.028,0.028,0,44,44,42,1,twoone,,,,,,,,,,,,,,,,,,,,,,,,,,,,,,,,,,,,,,,,,,,,,,,,,,,,,,,,,,,,,,,,,,,,,,,,,,,,,,,,,,,,,,,,,,,,,,,,,,,,,,,,,,,,,,,,,,,,,,,,,,,,,,,,,,,,,,,,,
,,60317e6dc44c7f0fdfc91e66,2024-02-19_10h17.27.548,kallum_motion_pilot,2023.2.2,Win32,58.82352941,60317e6dc44c7f0fdfc91e66,65d2b6c8f2eece985d8e374c,65d2ba0ff2cdb579bb1760fb,0.028,0.028,0,45,45,125,1,seveneight,,,,,,,,,,,,,,,,,,,,,,,,,,,,,,,,,,,,,,,,,,,,,,,,,,,,,,,,,,,,,,,,,,,,,,,,,,,,,,,,,,,,,,,,,,,,,,,,,,,,,,,,,,,,,,,,,,,,,,,,,,,,,,,,,,,,,,,,,
,,60317e6dc44c7f0fdfc91e66,2024-02-19_10h17.27.548,kallum_motion_pilot,2023.2.2,Win32,58.82352941,60317e6dc44c7f0fdfc91e66,65d2b6c8f2eece985d8e374c,65d2ba0ff2cdb579bb1760fb,0.028,0.028,0,46,46,15,1,fourthree,,,,,,,,,,,,,,,,,,,,,,,,,,,,,,,,,,,,,,,,,,,,,,,,,,,,,,,,,,,,,,,,,,,,,,,,,,,,,,,,,,,,,,,,,,,,,,,,,,,,,,,,,,,,,,,,,,,,,,,,,,,,,,,,,,,,,,,,,
,,60317e6dc44c7f0fdfc91e66,2024-02-19_10h17.27.548,kallum_motion_pilot,2023.2.2,Win32,58.82352941,60317e6dc44c7f0fdfc91e66,65d2b6c8f2eece985d8e374c,65d2ba0ff2cdb579bb1760fb,0.028,0.028,0,47,47,131,1,sixeight,,,,,,,,,,,,,,,,,,,,,,,,,,,,,,,,,,,,,,,,,,,,,,,,,,,,,,,,,,,,,,,,,,,,,,,,,,,,,,,,,,,,,,,,,,,,,,,,,,,,,,,,,,,,,,,,,,,,,,,,,,,,,,,,,,,,,,,,,
,,60317e6dc44c7f0fdfc91e66,2024-02-19_10h17.27.548,kallum_motion_pilot,2023.2.2,Win32,58.82352941,60317e6dc44c7f0fdfc91e66,65d2b6c8f2eece985d8e374c,65d2ba0ff2cdb579bb1760fb,0.029,0.029,0,48,48,39,1,fourthree,,,,,,,,,,,,,,,,,,,,,,,,,,,,,,,,,,,,,,,,,,,,,,,,,,,,,,,,,,,,,,,,,,,,,,,,,,,,,,,,,,,,,,,,,,,,,,,,,,,,,,,,,,,,,,,,,,,,,,,,,,,,,,,,,,,,,,,,,
,,60317e6dc44c7f0fdfc91e66,2024-02-19_10h17.27.548,kallum_motion_pilot,2023.2.2,Win32,58.82352941,60317e6dc44c7f0fdfc91e66,65d2b6c8f2eece985d8e374c,65d2ba0ff2cdb579bb1760fb,0.029,0.029,0,49,49,29,1,threefour,,,,,,,,,,,,,,,,,,,,,,,,,,,,,,,,,,,,,,,,,,,,,,,,,,,,,,,,,,,,,,,,,,,,,,,,,,,,,,,,,,,,,,,,,,,,,,,,,,,,,,,,,,,,,,,,,,,,,,,,,,,,,,,,,,,,,,,,,
,,60317e6dc44c7f0fdfc91e66,2024-02-19_10h17.27.548,kallum_motion_pilot,2023.2.2,Win32,58.82352941,60317e6dc44c7f0fdfc91e66,65d2b6c8f2eece985d8e374c,65d2ba0ff2cdb579bb1760fb,0.029,0.029,0,50,50,66,1,twoone,,,,,,,,,,,,,,,,,,,,,,,,,,,,,,,,,,,,,,,,,,,,,,,,,,,,,,,,,,,,,,,,,,,,,,,,,,,,,,,,,,,,,,,,,,,,,,,,,,,,,,,,,,,,,,,,,,,,,,,,,,,,,,,,,,,,,,,,,
,,60317e6dc44c7f0fdfc91e66,2024-02-19_10h17.27.548,kallum_motion_pilot,2023.2.2,Win32,58.82352941,60317e6dc44c7f0fdfc91e66,65d2b6c8f2eece985d8e374c,65d2ba0ff2cdb579bb1760fb,0.029,0.029,0,51,51,51,1,twofour,,,,,,,,,,,,,,,,,,,,,,,,,,,,,,,,,,,,,,,,,,,,,,,,,,,,,,,,,,,,,,,,,,,,,,,,,,,,,,,,,,,,,,,,,,,,,,,,,,,,,,,,,,,,,,,,,,,,,,,,,,,,,,,,,,,,,,,,,
,,60317e6dc44c7f0fdfc91e66,2024-02-19_10h17.27.548,kallum_motion_pilot,2023.2.2,Win32,58.82352941,60317e6dc44c7f0fdfc91e66,65d2b6c8f2eece985d8e374c,65d2ba0ff2cdb579bb1760fb,0.029,0.029,0,52,52,16,1,onetwo,,,,,,,,,,,,,,,,,,,,,,,,,,,,,,,,,,,,,,,,,,,,,,,,,,,,,,,,,,,,,,,,,,,,,,,,,,,,,,,,,,,,,,,,,,,,,,,,,,,,,,,,,,,,,,,,,,,,,,,,,,,,,,,,,,,,,,,,,
,,60317e6dc44c7f0fdfc91e66,2024-02-19_10h17.27.548,kallum_motion_pilot,2023.2.2,Win32,58.82352941,60317e6dc44c7f0fdfc91e66,65d2b6c8f2eece985d8e374c,65d2ba0ff2cdb579bb1760fb,0.029,0.029,0,53,53,58,1,twoone,,,,,,,,,,,,,,,,,,,,,,,,,,,,,,,,,,,,,,,,,,,,,,,,,,,,,,,,,,,,,,,,,,,,,,,,,,,,,,,,,,,,,,,,,,,,,,,,,,,,,,,,,,,,,,,,,,,,,,,,,,,,,,,,,,,,,,,,,
,,60317e6dc44c7f0fdfc91e66,2024-02-19_10h17.27.548,kallum_motion_pilot,2023.2.2,Win32,58.82352941,60317e6dc44c7f0fdfc91e66,65d2b6c8f2eece985d8e374c,65d2ba0ff2cdb579bb1760fb,0.029,0.029,0,54,54,1,1,onethree,,,,,,,,,,,,,,,,,,,,,,,,,,,,,,,,,,,,,,,,,,,,,,,,,,,,,,,,,,,,,,,,,,,,,,,,,,,,,,,,,,,,,,,,,,,,,,,,,,,,,,,,,,,,,,,,,,,,,,,,,,,,,,,,,,,,,,,,,
,,60317e6dc44c7f0fdfc91e66,2024-02-19_10h17.27.548,kallum_motion_pilot,2023.2.2,Win32,58.82352941,60317e6dc44c7f0fdfc91e66,65d2b6c8f2eece985d8e374c,65d2ba0ff2cdb579bb1760fb,0.029,0.029,0,55,55,160,1,fivesix,,,,,,,,,,,,,,,,,,,,,,,,,,,,,,,,,,,,,,,,,,,,,,,,,,,,,,,,,,,,,,,,,,,,,,,,,,,,,,,,,,,,,,,,,,,,,,,,,,,,,,,,,,,,,,,,,,,,,,,,,,,,,,,,,,,,,,,,,
,,60317e6dc44c7f0fdfc91e66,2024-02-19_10h17.27.548,kallum_motion_pilot,2023.2.2,Win32,58.82352941,60317e6dc44c7f0fdfc91e66,65d2b6c8f2eece985d8e374c,65d2ba0ff2cdb579bb1760fb,0.029,0.029,0,56,56,21,1,threefour,,,,,,,,,,,,,,,,,,,,,,,,,,,,,,,,,,,,,,,,,,,,,,,,,,,,,,,,,,,,,,,,,,,,,,,,,,,,,,,,,,,,,,,,,,,,,,,,,,,,,,,,,,,,,,,,,,,,,,,,,,,,,,,,,,,,,,,,,
,,60317e6dc44c7f0fdfc91e66,2024-02-19_10h17.27.548,kallum_motion_pilot,2023.2.2,Win32,58.82352941,60317e6dc44c7f0fdfc91e66,65d2b6c8f2eece985d8e374c,65d2ba0ff2cdb579bb1760fb,0.029,0.029,0,57,57,47,1,fourthree,,,,,,,,,,,,,,,,,,,,,,,,,,,,,,,,,,,,,,,,,,,,,,,,,,,,,,,,,,,,,,,,,,,,,,,,,,,,,,,,,,,,,,,,,,,,,,,,,,,,,,,,,,,,,,,,,,,,,,,,,,,,,,,,,,,,,,,,,
,,60317e6dc44c7f0fdfc91e66,2024-02-19_10h17.27.548,kallum_motion_pilot,2023.2.2,Win32,58.82352941,60317e6dc44c7f0fdfc91e66,65d2b6c8f2eece985d8e374c,65d2ba0ff2cdb579bb1760fb,0.029,0.029,0,58,58,99,1,sixeight,,,,,,,,,,,,,,,,,,,,,,,,,,,,,,,,,,,,,,,,,,,,,,,,,,,,,,,,,,,,,,,,,,,,,,,,,,,,,,,,,,,,,,,,,,,,,,,,,,,,,,,,,,,,,,,,,,,,,,,,,,,,,,,,,,,,,,,,,
,,60317e6dc44c7f0fdfc91e66,2024-02-19_10h17.27.548,kallum_motion_pilot,2023.2.2,Win32,58.82352941,60317e6dc44c7f0fdfc91e66,65d2b6c8f2eece985d8e374c,65d2ba0ff2cdb579bb1760fb,0.029,0.029,0,59,59,106,1,sixfive,,,,,,,,,,,,,,,,,,,,,,,,,,,,,,,,,,,,,,,,,,,,,,,,,,,,,,,,,,,,,,,,,,,,,,,,,,,,,,,,,,,,,,,,,,,,,,,,,,,,,,,,,,,,,,,,,,,,,,,,,,,,,,,,,,,,,,,,,
,,60317e6dc44c7f0fdfc91e66,2024-02-19_10h17.27.548,kallum_motion_pilot,2023.2.2,Win32,58.82352941,60317e6dc44c7f0fdfc91e66,65d2b6c8f2eece985d8e374c,65d2ba0ff2cdb579bb1760fb,0.029,0.029,0,60,60,130,1,sixfive,,,,,,,,,,,,,,,,,,,,,,,,,,,,,,,,,,,,,,,,,,,,,,,,,,,,,,,,,,,,,,,,,,,,,,,,,,,,,,,,,,,,,,,,,,,,,,,,,,,,,,,,,,,,,,,,,,,,,,,,,,,,,,,,,,,,,,,,,
,,60317e6dc44c7f0fdfc91e66,2024-02-19_10h17.27.548,kallum_motion_pilot,2023.2.2,Win32,58.82352941,60317e6dc44c7f0fdfc91e66,65d2b6c8f2eece985d8e374c,65d2ba0ff2cdb579bb1760fb,0.029,0.029,0,61,61,84,1,sevenfive,,,,,,,,,,,,,,,,,,,,,,,,,,,,,,,,,,,,,,,,,,,,,,,,,,,,,,,,,,,,,,,,,,,,,,,,,,,,,,,,,,,,,,,,,,,,,,,,,,,,,,,,,,,,,,,,,,,,,,,,,,,,,,,,,,,,,,,,,
,,60317e6dc44c7f0fdfc91e66,2024-02-19_10h17.27.548,kallum_motion_pilot,2023.2.2,Win32,58.82352941,60317e6dc44c7f0fdfc91e66,65d2b6c8f2eece985d8e374c,65d2ba0ff2cdb579bb1760fb,0.029,0.029,0,62,62,92,1,sevenfive,,,,,,,,,,,,,,,,,,,,,,,,,,,,,,,,,,,,,,,,,,,,,,,,,,,,,,,,,,,,,,,,,,,,,,,,,,,,,,,,,,,,,,,,,,,,,,,,,,,,,,,,,,,,,,,,,,,,,,,,,,,,,,,,,,,,,,,,,
,,60317e6dc44c7f0fdfc91e66,2024-02-19_10h17.27.548,kallum_motion_pilot,2023.2.2,Win32,58.82352941,60317e6dc44c7f0fdfc91e66,65d2b6c8f2eece985d8e374c,65d2ba0ff2cdb579bb1760fb,0.029,0.029,0,63,63,46,1,fourtwo,,,,,,,,,,,,,,,,,,,,,,,,,,,,,,,,,,,,,,,,,,,,,,,,,,,,,,,,,,,,,,,,,,,,,,,,,,,,,,,,,,,,,,,,,,,,,,,,,,,,,,,,,,,,,,,,,,,,,,,,,,,,,,,,,,,,,,,,,
,,60317e6dc44c7f0fdfc91e66,2024-02-19_10h17.27.548,kallum_motion_pilot,2023.2.2,Win32,58.82352941,60317e6dc44c7f0fdfc91e66,65d2b6c8f2eece985d8e374c,65d2ba0ff2cdb579bb1760fb,0.029,0.029,0,64,64,145,1,fiveseven,,,,,,,,,,,,,,,,,,,,,,,,,,,,,,,,,,,,,,,,,,,,,,,,,,,,,,,,,,,,,,,,,,,,,,,,,,,,,,,,,,,,,,,,,,,,,,,,,,,,,,,,,,,,,,,,,,,,,,,,,,,,,,,,,,,,,,,,,
,,60317e6dc44c7f0fdfc91e66,2024-02-19_10h17.27.548,kallum_motion_pilot,2023.2.2,Win32,58.82352941,60317e6dc44c7f0fdfc91e66,65d2b6c8f2eece985d8e374c,65d2ba0ff2cdb579bb1760fb,0.029,0.029,0,65,65,135,1,eightseven,,,,,,,,,,,,,,,,,,,,,,,,,,,,,,,,,,,,,,,,,,,,,,,,,,,,,,,,,,,,,,,,,,,,,,,,,,,,,,,,,,,,,,,,,,,,,,,,,,,,,,,,,,,,,,,,,,,,,,,,,,,,,,,,,,,,,,,,,
,,60317e6dc44c7f0fdfc91e66,2024-02-19_10h17.27.548,kallum_motion_pilot,2023.2.2,Win32,58.82352941,60317e6dc44c7f0fdfc91e66,65d2b6c8f2eece985d8e374c,65d2ba0ff2cdb579bb1760fb,0.03,0.03,0,66,66,137,1,fiveseven,,,,,,,,,,,,,,,,,,,,,,,,,,,,,,,,,,,,,,,,,,,,,,,,,,,,,,,,,,,,,,,,,,,,,,,,,,,,,,,,,,,,,,,,,,,,,,,,,,,,,,,,,,,,,,,,,,,,,,,,,,,,,,,,,,,,,,,,,
,,60317e6dc44c7f0fdfc91e66,2024-02-19_10h17.27.548,kallum_motion_pilot,2023.2.2,Win32,58.82352941,60317e6dc44c7f0fdfc91e66,65d2b6c8f2eece985d8e374c,65d2ba0ff2cdb579bb1760fb,0.03,0.03,0,67,67,108,1,sevenfive,,,,,,,,,,,,,,,,,,,,,,,,,,,,,,,,,,,,,,,,,,,,,,,,,,,,,,,,,,,,,,,,,,,,,,,,,,,,,,,,,,,,,,,,,,,,,,,,,,,,,,,,,,,,,,,,,,,,,,,,,,,,,,,,,,,,,,,,,
,,60317e6dc44c7f0fdfc91e66,2024-02-19_10h17.27.548,kallum_motion_pilot,2023.2.2,Win32,58.82352941,60317e6dc44c7f0fdfc91e66,65d2b6c8f2eece985d8e374c,65d2ba0ff2cdb579bb1760fb,0.03,0.03,0,68,68,83,1,sixeight,,,,,,,,,,,,,,,,,,,,,,,,,,,,,,,,,,,,,,,,,,,,,,,,,,,,,,,,,,,,,,,,,,,,,,,,,,,,,,,,,,,,,,,,,,,,,,,,,,,,,,,,,,,,,,,,,,,,,,,,,,,,,,,,,,,,,,,,,
,,60317e6dc44c7f0fdfc91e66,2024-02-19_10h17.27.548,kallum_motion_pilot,2023.2.2,Win32,58.82352941,60317e6dc44c7f0fdfc91e66,65d2b6c8f2eece985d8e374c,65d2ba0ff2cdb579bb1760fb,0.031,0.031,0,69,69,0,1,onetwo,,,,,,,,,,,,,,,,,,,,,,,,,,,,,,,,,,,,,,,,,,,,,,,,,,,,,,,,,,,,,,,,,,,,,,,,,,,,,,,,,,,,,,,,,,,,,,,,,,,,,,,,,,,,,,,,,,,,,,,,,,,,,,,,,,,,,,,,,
,,60317e6dc44c7f0fdfc91e66,2024-02-19_10h17.27.548,kallum_motion_pilot,2023.2.2,Win32,58.82352941,60317e6dc44c7f0fdfc91e66,65d2b6c8f2eece985d8e374c,65d2ba0ff2cdb579bb1760fb,0.031,0.031,0,70,70,63,1,fourthree,,,,,,,,,,,,,,,,,,,,,,,,,,,,,,,,,,,,,,,,,,,,,,,,,,,,,,,,,,,,,,,,,,,,,,,,,,,,,,,,,,,,,,,,,,,,,,,,,,,,,,,,,,,,,,,,,,,,,,,,,,,,,,,,,,,,,,,,,
,,60317e6dc44c7f0fdfc91e66,2024-02-19_10h17.27.548,kallum_motion_pilot,2023.2.2,Win32,58.82352941,60317e6dc44c7f0fdfc91e66,65d2b6c8f2eece985d8e374c,65d2ba0ff2cdb579bb1760fb,0.031,0.031,0,71,71,110,1,eightsix,,,,,,,,,,,,,,,,,,,,,,,,,,,,,,,,,,,,,,,,,,,,,,,,,,,,,,,,,,,,,,,,,,,,,,,,,,,,,,,,,,,,,,,,,,,,,,,,,,,,,,,,,,,,,,,,,,,,,,,,,,,,,,,,,,,,,,,,,
,,60317e6dc44c7f0fdfc91e66,2024-02-19_10h17.27.548,kallum_motion_pilot,2023.2.2,Win32,58.82352941,60317e6dc44c7f0fdfc91e66,65d2b6c8f2eece985d8e374c,65d2ba0ff2cdb579bb1760fb,0.031,0.031,0,72,72,154,1,sixfive,,,,,,,,,,,,,,,,,,,,,,,,,,,,,,,,,,,,,,,,,,,,,,,,,,,,,,,,,,,,,,,,,,,,,,,,,,,,,,,,,,,,,,,,,,,,,,,,,,,,,,,,,,,,,,,,,,,,,,,,,,,,,,,,,,,,,,,,,
,,60317e6dc44c7f0fdfc91e66,2024-02-19_10h17.27.548,kallum_motion_pilot,2023.2.2,Win32,58.82352941,60317e6dc44c7f0fdfc91e66,65d2b6c8f2eece985d8e374c,65d2ba0ff2cdb579bb1760fb,0.031,0.031,0,73,73,153,1,fiveseven,,,,,,,,,,,,,,,,,,,,,,,,,,,,,,,,,,,,,,,,,,,,,,,,,,,,,,,,,,,,,,,,,,,,,,,,,,,,,,,,,,,,,,,,,,,,,,,,,,,,,,,,,,,,,,,,,,,,,,,,,,,,,,,,,,,,,,,,,
,,60317e6dc44c7f0fdfc91e66,2024-02-19_10h17.27.548,kallum_motion_pilot,2023.2.2,Win32,58.82352941,60317e6dc44c7f0fdfc91e66,65d2b6c8f2eece985d8e374c,65d2ba0ff2cdb579bb1760fb,0.031,0.031,0,74,74,49,1,onethree,,,,,,,,,,,,,,,,,,,,,,,,,,,,,,,,,,,,,,,,,,,,,,,,,,,,,,,,,,,,,,,,,,,,,,,,,,,,,,,,,,,,,,,,,,,,,,,,,,,,,,,,,,,,,,,,,,,,,,,,,,,,,,,,,,,,,,,,,
,,60317e6dc44c7f0fdfc91e66,2024-02-19_10h17.27.548,kallum_motion_pilot,2023.2.2,Win32,58.82352941,60317e6dc44c7f0fdfc91e66,65d2b6c8f2eece985d8e374c,65d2ba0ff2cdb579bb1760fb,0.031,0.031,0,75,75,96,1,fivesix,,,,,,,,,,,,,,,,,,,,,,,,,,,,,,,,,,,,,,,,,,,,,,,,,,,,,,,,,,,,,,,,,,,,,,,,,,,,,,,,,,,,,,,,,,,,,,,,,,,,,,,,,,,,,,,,,,,,,,,,,,,,,,,,,,,,,,,,,
,,60317e6dc44c7f0fdfc91e66,2024-02-19_10h17.27.548,kallum_motion_pilot,2023.2.2,Win32,58.82352941,60317e6dc44c7f0fdfc91e66,65d2b6c8f2eece985d8e374c,65d2ba0ff2cdb579bb1760fb,0.031,0.031,0,76,76,89,1,fiveseven,,,,,,,,,,,,,,,,,,,,,,,,,,,,,,,,,,,,,,,,,,,,,,,,,,,,,,,,,,,,,,,,,,,,,,,,,,,,,,,,,,,,,,,,,,,,,,,,,,,,,,,,,,,,,,,,,,,,,,,,,,,,,,,,,,,,,,,,,
,,60317e6dc44c7f0fdfc91e66,2024-02-19_10h17.27.548,kallum_motion_pilot,2023.2.2,Win32,58.82352941,60317e6dc44c7f0fdfc91e66,65d2b6c8f2eece985d8e374c,65d2ba0ff2cdb579bb1760fb,0.031,0.031,0,77,77,152,1,fivesix,,,,,,,,,,,,,,,,,,,,,,,,,,,,,,,,,,,,,,,,,,,,,,,,,,,,,,,,,,,,,,,,,,,,,,,,,,,,,,,,,,,,,,,,,,,,,,,,,,,,,,,,,,,,,,,,,,,,,,,,,,,,,,,,,,,,,,,,,
,,60317e6dc44c7f0fdfc91e66,2024-02-19_10h17.27.548,kallum_motion_pilot,2023.2.2,Win32,58.82352941,60317e6dc44c7f0fdfc91e66,65d2b6c8f2eece985d8e374c,65d2ba0ff2cdb579bb1760fb,0.031,0.031,0,78,78,55,1,fourthree,,,,,,,,,,,,,,,,,,,,,,,,,,,,,,,,,,,,,,,,,,,,,,,,,,,,,,,,,,,,,,,,,,,,,,,,,,,,,,,,,,,,,,,,,,,,,,,,,,,,,,,,,,,,,,,,,,,,,,,,,,,,,,,,,,,,,,,,,
,,60317e6dc44c7f0fdfc91e66,2024-02-19_10h17.27.548,kallum_motion_pilot,2023.2.2,Win32,58.82352941,60317e6dc44c7f0fdfc91e66,65d2b6c8f2eece985d8e374c,65d2ba0ff2cdb579bb1760fb,0.031,0.031,0,79,79,159,1,eightseven,,,,,,,,,,,,,,,,,,,,,,,,,,,,,,,,,,,,,,,,,,,,,,,,,,,,,,,,,,,,,,,,,,,,,,,,,,,,,,,,,,,,,,,,,,,,,,,,,,,,,,,,,,,,,,,,,,,,,,,,,,,,,,,,,,,,,,,,,
,,60317e6dc44c7f0fdfc91e66,2024-02-19_10h17.27.548,kallum_motion_pilot,2023.2.2,Win32,58.82352941,60317e6dc44c7f0fdfc91e66,65d2b6c8f2eece985d8e374c,65d2ba0ff2cdb579bb1760fb,0.031,0.031,0,80,80,77,1,threefour,,,,,,,,,,,,,,,,,,,,,,,,,,,,,,,,,,,,,,,,,,,,,,,,,,,,,,,,,,,,,,,,,,,,,,,,,,,,,,,,,,,,,,,,,,,,,,,,,,,,,,,,,,,,,,,,,,,,,,,,,,,,,,,,,,,,,,,,,
,,60317e6dc44c7f0fdfc91e66,2024-02-19_10h17.27.548,kallum_motion_pilot,2023.2.2,Win32,58.82352941,60317e6dc44c7f0fdfc91e66,65d2b6c8f2eece985d8e374c,65d2ba0ff2cdb579bb1760fb,0.032,0.032,0,81,81,74,1,twoone,,,,,,,,,,,,,,,,,,,,,,,,,,,,,,,,,,,,,,,,,,,,,,,,,,,,,,,,,,,,,,,,,,,,,,,,,,,,,,,,,,,,,,,,,,,,,,,,,,,,,,,,,,,,,,,,,,,,,,,,,,,,,,,,,,,,,,,,,
,,60317e6dc44c7f0fdfc91e66,2024-02-19_10h17.27.548,kallum_motion_pilot,2023.2.2,Win32,58.82352941,60317e6dc44c7f0fdfc91e66,65d2b6c8f2eece985d8e374c,65d2ba0ff2cdb579bb1760fb,0.032,0.032,0,82,82,69,1,threefour,,,,,,,,,,,,,,,,,,,,,,,,,,,,,,,,,,,,,,,,,,,,,,,,,,,,,,,,,,,,,,,,,,,,,,,,,,,,,,,,,,,,,,,,,,,,,,,,,,,,,,,,,,,,,,,,,,,,,,,,,,,,,,,,,,,,,,,,,
,,60317e6dc44c7f0fdfc91e66,2024-02-19_10h17.27.548,kallum_motion_pilot,2023.2.2,Win32,58.82352941,60317e6dc44c7f0fdfc91e66,65d2b6c8f2eece985d8e374c,65d2ba0ff2cdb579bb1760fb,0.032,0.032,0,83,83,136,1,fivesix,,,,,,,,,,,,,,,,,,,,,,,,,,,,,,,,,,,,,,,,,,,,,,,,,,,,,,,,,,,,,,,,,,,,,,,,,,,,,,,,,,,,,,,,,,,,,,,,,,,,,,,,,,,,,,,,,,,,,,,,,,,,,,,,,,,,,,,,,
,,60317e6dc44c7f0fdfc91e66,2024-02-19_10h17.27.548,kallum_motion_pilot,2023.2.2,Win32,58.82352941,60317e6dc44c7f0fdfc91e66,65d2b6c8f2eece985d8e374c,65d2ba0ff2cdb579bb1760fb,0.032,0.032,0,84,84,52,1,threeone,,,,,,,,,,,,,,,,,,,,,,,,,,,,,,,,,,,,,,,,,,,,,,,,,,,,,,,,,,,,,,,,,,,,,,,,,,,,,,,,,,,,,,,,,,,,,,,,,,,,,,,,,,,,,,,,,,,,,,,,,,,,,,,,,,,,,,,,,
,,60317e6dc44c7f0fdfc91e66,2024-02-19_10h17.27.548,kallum_motion_pilot,2023.2.2,Win32,58.82352941,60317e6dc44c7f0fdfc91e66,65d2b6c8f2eece985d8e374c,65d2ba0ff2cdb579bb1760fb,0.032,0.032,0,85,85,155,1,sixeight,,,,,,,,,,,,,,,,,,,,,,,,,,,,,,,,,,,,,,,,,,,,,,,,,,,,,,,,,,,,,,,,,,,,,,,,,,,,,,,,,,,,,,,,,,,,,,,,,,,,,,,,,,,,,,,,,,,,,,,,,,,,,,,,,,,,,,,,,
,,60317e6dc44c7f0fdfc91e66,2024-02-19_10h17.27.548,kallum_motion_pilot,2023.2.2,Win32,58.82352941,60317e6dc44c7f0fdfc91e66,65d2b6c8f2eece985d8e374c,65d2ba0ff2cdb579bb1760fb,0.032,0.032,0,86,86,101,1,seveneight,,,,,,,,,,,,,,,,,,,,,,,,,,,,,,,,,,,,,,,,,,,,,,,,,,,,,,,,,,,,,,,,,,,,,,,,,,,,,,,,,,,,,,,,,,,,,,,,,,,,,,,,,,,,,,,,,,,,,,,,,,,,,,,,,,,,,,,,,
,,60317e6dc44c7f0fdfc91e66,2024-02-19_10h17.27.548,kallum_motion_pilot,2023.2.2,Win32,58.82352941,60317e6dc44c7f0fdfc91e66,65d2b6c8f2eece985d8e374c,65d2ba0ff2cdb579bb1760fb,0.032,0.032,0,87,87,113,1,fiveseven,,,,,,,,,,,,,,,,,,,,,,,,,,,,,,,,,,,,,,,,,,,,,,,,,,,,,,,,,,,,,,,,,,,,,,,,,,,,,,,,,,,,,,,,,,,,,,,,,,,,,,,,,,,,,,,,,,,,,,,,,,,,,,,,,,,,,,,,,
,,60317e6dc44c7f0fdfc91e66,2024-02-19_10h17.27.548,kallum_motion_pilot,2023.2.2,Win32,58.82352941,60317e6dc44c7f0fdfc91e66,65d2b6c8f2eece985d8e374c,65d2ba0ff2cdb579bb1760fb,0.032,0.032,0,88,88,33,1,onethree,,,,,,,,,,,,,,,,,,,,,,,,,,,,,,,,,,,,,,,,,,,,,,,,,,,,,,,,,,,,,,,,,,,,,,,,,,,,,,,,,,,,,,,,,,,,,,,,,,,,,,,,,,,,,,,,,,,,,,,,,,,,,,,,,,,,,,,,,
,,60317e6dc44c7f0fdfc91e66,2024-02-19_10h17.27.548,kallum_motion_pilot,2023.2.2,Win32,58.82352941,60317e6dc44c7f0fdfc91e66,65d2b6c8f2eece985d8e374c,65d2ba0ff2cdb579bb1760fb,0.032,0.032,0,89,89,142,1,eightsix,,,,,,,,,,,,,,,,,,,,,,,,,,,,,,,,,,,,,,,,,,,,,,,,,,,,,,,,,,,,,,,,,,,,,,,,,,,,,,,,,,,,,,,,,,,,,,,,,,,,,,,,,,,,,,,,,,,,,,,,,,,,,,,,,,,,,,,,,
,,60317e6dc44c7f0fdfc91e66,2024-02-19_10h17.27.548,kallum_motion_pilot,2023.2.2,Win32,58.82352941,60317e6dc44c7f0fdfc91e66,65d2b6c8f2eece985d8e374c,65d2ba0ff2cdb579bb1760fb,0.032,0.032,0,90,90,150,1,eightsix,,,,,,,,,,,,,,,,,,,,,,,,,,,,,,,,,,,,,,,,,,,,,,,,,,,,,,,,,,,,,,,,,,,,,,,,,,,,,,,,,,,,,,,,,,,,,,,,,,,,,,,,,,,,,,,,,,,,,,,,,,,,,,,,,,,,,,,,,
,,60317e6dc44c7f0fdfc91e66,2024-02-19_10h17.27.548,kallum_motion_pilot,2023.2.2,Win32,58.82352941,60317e6dc44c7f0fdfc91e66,65d2b6c8f2eece985d8e374c,65d2ba0ff2cdb579bb1760fb,0.032,0.032,0,91,91,88,1,fivesix,,,,,,,,,,,,,,,,,,,,,,,,,,,,,,,,,,,,,,,,,,,,,,,,,,,,,,,,,,,,,,,,,,,,,,,,,,,,,,,,,,,,,,,,,,,,,,,,,,,,,,,,,,,,,,,,,,,,,,,,,,,,,,,,,,,,,,,,,
,,60317e6dc44c7f0fdfc91e66,2024-02-19_10h17.27.548,kallum_motion_pilot,2023.2.2,Win32,58.82352941,60317e6dc44c7f0fdfc91e66,65d2b6c8f2eece985d8e374c,65d2ba0ff2cdb579bb1760fb,0.033,0.033,0,92,92,95,1,eightseven,,,,,,,,,,,,,,,,,,,,,,,,,,,,,,,,,,,,,,,,,,,,,,,,,,,,,,,,,,,,,,,,,,,,,,,,,,,,,,,,,,,,,,,,,,,,,,,,,,,,,,,,,,,,,,,,,,,,,,,,,,,,,,,,,,,,,,,,,
,,60317e6dc44c7f0fdfc91e66,2024-02-19_10h17.27.548,kallum_motion_pilot,2023.2.2,Win32,58.82352941,60317e6dc44c7f0fdfc91e66,65d2b6c8f2eece985d8e374c,65d2ba0ff2cdb579bb1760fb,0.033,0.033,0,93,93,12,1,threeone,,,,,,,,,,,,,,,,,,,,,,,,,,,,,,,,,,,,,,,,,,,,,,,,,,,,,,,,,,,,,,,,,,,,,,,,,,,,,,,,,,,,,,,,,,,,,,,,,,,,,,,,,,,,,,,,,,,,,,,,,,,,,,,,,,,,,,,,,
,,60317e6dc44c7f0fdfc91e66,2024-02-19_10h17.27.548,kallum_motion_pilot,2023.2.2,Win32,58.82352941,60317e6dc44c7f0fdfc91e66,65d2b6c8f2eece985d8e374c,65d2ba0ff2cdb579bb1760fb,0.033,0.033,0,94,94,112,1,fivesix,,,,,,,,,,,,,,,,,,,,,,,,,,,,,,,,,,,,,,,,,,,,,,,,,,,,,,,,,,,,,,,,,,,,,,,,,,,,,,,,,,,,,,,,,,,,,,,,,,,,,,,,,,,,,,,,,,,,,,,,,,,,,,,,,,,,,,,,,
,,60317e6dc44c7f0fdfc91e66,2024-02-19_10h17.27.548,kallum_motion_pilot,2023.2.2,Win32,58.82352941,60317e6dc44c7f0fdfc91e66,65d2b6c8f2eece985d8e374c,65d2ba0ff2cdb579bb1760fb,0.033,0.033,0,95,95,68,1,threeone,,,,,,,,,,,,,,,,,,,,,,,,,,,,,,,,,,,,,,,,,,,,,,,,,,,,,,,,,,,,,,,,,,,,,,,,,,,,,,,,,,,,,,,,,,,,,,,,,,,,,,,,,,,,,,,,,,,,,,,,,,,,,,,,,,,,,,,,,
,,60317e6dc44c7f0fdfc91e66,2024-02-19_10h17.27.548,kallum_motion_pilot,2023.2.2,Win32,58.82352941,60317e6dc44c7f0fdfc91e66,65d2b6c8f2eece985d8e374c,65d2ba0ff2cdb579bb1760fb,0.033,0.033,0,96,96,48,1,onetwo,,,,,,,,,,,,,,,,,,,,,,,,,,,,,,,,,,,,,,,,,,,,,,,,,,,,,,,,,,,,,,,,,,,,,,,,,,,,,,,,,,,,,,,,,,,,,,,,,,,,,,,,,,,,,,,,,,,,,,,,,,,,,,,,,,,,,,,,,
,,60317e6dc44c7f0fdfc91e66,2024-02-19_10h17.27.548,kallum_motion_pilot,2023.2.2,Win32,58.82352941,60317e6dc44c7f0fdfc91e66,65d2b6c8f2eece985d8e374c,65d2ba0ff2cdb579bb1760fb,0.033,0.033,0,97,97,80,1,fivesix,,,,,,,,,,,,,,,,,,,,,,,,,,,,,,,,,,,,,,,,,,,,,,,,,,,,,,,,,,,,,,,,,,,,,,,,,,,,,,,,,,,,,,,,,,,,,,,,,,,,,,,,,,,,,,,,,,,,,,,,,,,,,,,,,,,,,,,,,
,,60317e6dc44c7f0fdfc91e66,2024-02-19_10h17.27.548,kallum_motion_pilot,2023.2.2,Win32,58.82352941,60317e6dc44c7f0fdfc91e66,65d2b6c8f2eece985d8e374c,65d2ba0ff2cdb579bb1760fb,0.033,0.033,0,98,98,32,1,onetwo,,,,,,,,,,,,,,,,,,,,,,,,,,,,,,,,,,,,,,,,,,,,,,,,,,,,,,,,,,,,,,,,,,,,,,,,,,,,,,,,,,,,,,,,,,,,,,,,,,,,,,,,,,,,,,,,,,,,,,,,,,,,,,,,,,,,,,,,,
,,60317e6dc44c7f0fdfc91e66,2024-02-19_10h17.27.548,kallum_motion_pilot,2023.2.2,Win32,58.82352941,60317e6dc44c7f0fdfc91e66,65d2b6c8f2eece985d8e374c,65d2ba0ff2cdb579bb1760fb,0.033,0.033,0,99,99,31,1,fourthree,,,,,,,,,,,,,,,,,,,,,,,,,,,,,,,,,,,,,,,,,,,,,,,,,,,,,,,,,,,,,,,,,,,,,,,,,,,,,,,,,,,,,,,,,,,,,,,,,,,,,,,,,,,,,,,,,,,,,,,,,,,,,,,,,,,,,,,,,
,,60317e6dc44c7f0fdfc91e66,2024-02-19_10h17.27.548,kallum_motion_pilot,2023.2.2,Win32,58.82352941,60317e6dc44c7f0fdfc91e66,65d2b6c8f2eece985d8e374c,65d2ba0ff2cdb579bb1760fb,0.033,0.033,0,100,100,11,1,twofour,,,,,,,,,,,,,,,,,,,,,,,,,,,,,,,,,,,,,,,,,,,,,,,,,,,,,,,,,,,,,,,,,,,,,,,,,,,,,,,,,,,,,,,,,,,,,,,,,,,,,,,,,,,,,,,,,,,,,,,,,,,,,,,,,,,,,,,,,
,,60317e6dc44c7f0fdfc91e66,2024-02-19_10h17.27.548,kallum_motion_pilot,2023.2.2,Win32,58.82352941,60317e6dc44c7f0fdfc91e66,65d2b6c8f2eece985d8e374c,65d2ba0ff2cdb579bb1760fb,0.033,0.033,0,101,101,20,1,threeone,,,,,,,,,,,,,,,,,,,,,,,,,,,,,,,,,,,,,,,,,,,,,,,,,,,,,,,,,,,,,,,,,,,,,,,,,,,,,,,,,,,,,,,,,,,,,,,,,,,,,,,,,,,,,,,,,,,,,,,,,,,,,,,,,,,,,,,,,
,,60317e6dc44c7f0fdfc91e66,2024-02-19_10h17.27.548,kallum_motion_pilot,2023.2.2,Win32,58.82352941,60317e6dc44c7f0fdfc91e66,65d2b6c8f2eece985d8e374c,65d2ba0ff2cdb579bb1760fb,0.033,0.033,0,102,102,115,1,sixeight,,,,,,,,,,,,,,,,,,,,,,,,,,,,,,,,,,,,,,,,,,,,,,,,,,,,,,,,,,,,,,,,,,,,,,,,,,,,,,,,,,,,,,,,,,,,,,,,,,,,,,,,,,,,,,,,,,,,,,,,,,,,,,,,,,,,,,,,,
,,60317e6dc44c7f0fdfc91e66,2024-02-19_10h17.27.548,kallum_motion_pilot,2023.2.2,Win32,58.82352941,60317e6dc44c7f0fdfc91e66,65d2b6c8f2eece985d8e374c,65d2ba0ff2cdb579bb1760fb,0.033,0.033,0,103,103,72,1,onetwo,,,,,,,,,,,,,,,,,,,,,,,,,,,,,,,,,,,,,,,,,,,,,,,,,,,,,,,,,,,,,,,,,,,,,,,,,,,,,,,,,,,,,,,,,,,,,,,,,,,,,,,,,,,,,,,,,,,,,,,,,,,,,,,,,,,,,,,,,
,,60317e6dc44c7f0fdfc91e66,2024-02-19_10h17.27.548,kallum_motion_pilot,2023.2.2,Win32,58.82352941,60317e6dc44c7f0fdfc91e66,65d2b6c8f2eece985d8e374c,65d2ba0ff2cdb579bb1760fb,0.033,0.033,0,104,104,158,1,eightsix,,,,,,,,,,,,,,,,,,,,,,,,,,,,,,,,,,,,,,,,,,,,,,,,,,,,,,,,,,,,,,,,,,,,,,,,,,,,,,,,,,,,,,,,,,,,,,,,,,,,,,,,,,,,,,,,,,,,,,,,,,,,,,,,,,,,,,,,,
,,60317e6dc44c7f0fdfc91e66,2024-02-19_10h17.27.548,kallum_motion_pilot,2023.2.2,Win32,58.82352941,60317e6dc44c7f0fdfc91e66,65d2b6c8f2eece985d8e374c,65d2ba0ff2cdb579bb1760fb,0.033,0.033,0,105,105,146,1,sixfive,,,,,,,,,,,,,,,,,,,,,,,,,,,,,,,,,,,,,,,,,,,,,,,,,,,,,,,,,,,,,,,,,,,,,,,,,,,,,,,,,,,,,,,,,,,,,,,,,,,,,,,,,,,,,,,,,,,,,,,,,,,,,,,,,,,,,,,,,
,,60317e6dc44c7f0fdfc91e66,2024-02-19_10h17.27.548,kallum_motion_pilot,2023.2.2,Win32,58.82352941,60317e6dc44c7f0fdfc91e66,65d2b6c8f2eece985d8e374c,65d2ba0ff2cdb579bb1760fb,0.033,0.033,0,106,106,149,1,seveneight,,,,,,,,,,,,,,,,,,,,,,,,,,,,,,,,,,,,,,,,,,,,,,,,,,,,,,,,,,,,,,,,,,,,,,,,,,,,,,,,,,,,,,,,,,,,,,,,,,,,,,,,,,,,,,,,,,,,,,,,,,,,,,,,,,,,,,,,,
,,60317e6dc44c7f0fdfc91e66,2024-02-19_10h17.27.548,kallum_motion_pilot,2023.2.2,Win32,58.82352941,60317e6dc44c7f0fdfc91e66,65d2b6c8f2eece985d8e374c,65d2ba0ff2cdb579bb1760fb,0.034,0.034,0,107,107,71,1,fourthree,,,,,,,,,,,,,,,,,,,,,,,,,,,,,,,,,,,,,,,,,,,,,,,,,,,,,,,,,,,,,,,,,,,,,,,,,,,,,,,,,,,,,,,,,,,,,,,,,,,,,,,,,,,,,,,,,,,,,,,,,,,,,,,,,,,,,,,,,
,,60317e6dc44c7f0fdfc91e66,2024-02-19_10h17.27.548,kallum_motion_pilot,2023.2.2,Win32,58.82352941,60317e6dc44c7f0fdfc91e66,65d2b6c8f2eece985d8e374c,65d2ba0ff2cdb579bb1760fb,0.034,0.034,0,108,108,40,1,onetwo,,,,,,,,,,,,,,,,,,,,,,,,,,,,,,,,,,,,,,,,,,,,,,,,,,,,,,,,,,,,,,,,,,,,,,,,,,,,,,,,,,,,,,,,,,,,,,,,,,,,,,,,,,,,,,,,,,,,,,,,,,,,,,,,,,,,,,,,,
,,60317e6dc44c7f0fdfc91e66,2024-02-19_10h17.27.548,kallum_motion_pilot,2023.2.2,Win32,58.82352941,60317e6dc44c7f0fdfc91e66,65d2b6c8f2eece985d8e374c,65d2ba0ff2cdb579bb1760fb,0.034,0.034,0,109,109,64,1,onetwo,,,,,,,,,,,,,,,,,,,,,,,,,,,,,,,,,,,,,,,,,,,,,,,,,,,,,,,,,,,,,,,,,,,,,,,,,,,,,,,,,,,,,,,,,,,,,,,,,,,,,,,,,,,,,,,,,,,,,,,,,,,,,,,,,,,,,,,,,
,,60317e6dc44c7f0fdfc91e66,2024-02-19_10h17.27.548,kallum_motion_pilot,2023.2.2,Win32,58.82352941,60317e6dc44c7f0fdfc91e66,65d2b6c8f2eece985d8e374c,65d2ba0ff2cdb579bb1760fb,0.034,0.034,0,110,110,27,1,twofour,,,,,,,,,,,,,,,,,,,,,,,,,,,,,,,,,,,,,,,,,,,,,,,,,,,,,,,,,,,,,,,,,,,,,,,,,,,,,,,,,,,,,,,,,,,,,,,,,,,,,,,,,,,,,,,,,,,,,,,,,,,,,,,,,,,,,,,,,
,,60317e6dc44c7f0fdfc91e66,2024-02-19_10h17.27.548,kallum_motion_pilot,2023.2.2,Win32,58.82352941,60317e6dc44c7f0fdfc91e66,65d2b6c8f2eece985d8e374c,65d2ba0ff2cdb579bb1760fb,0.034,0.034,0,111,111,127,1,eightseven,,,,,,,,,,,,,,,,,,,,,,,,,,,,,,,,,,,,,,,,,,,,,,,,,,,,,,,,,,,,,,,,,,,,,,,,,,,,,,,,,,,,,,,,,,,,,,,,,,,,,,,,,,,,,,,,,,,,,,,,,,,,,,,,,,,,,,,,,
,,60317e6dc44c7f0fdfc91e66,2024-02-19_10h17.27.548,kallum_motion_pilot,2023.2.2,Win32,58.82352941,60317e6dc44c7f0fdfc91e66,65d2b6c8f2eece985d8e374c,65d2ba0ff2cdb579bb1760fb,0.034,0.034,0,112,112,93,1,seveneight,,,,,,,,,,,,,,,,,,,,,,,,,,,,,,,,,,,,,,,,,,,,,,,,,,,,,,,,,,,,,,,,,,,,,,,,,,,,,,,,,,,,,,,,,,,,,,,,,,,,,,,,,,,,,,,,,,,,,,,,,,,,,,,,,,,,,,,,,
,,60317e6dc44c7f0fdfc91e66,2024-02-19_10h17.27.548,kallum_motion_pilot,2023.2.2,Win32,58.82352941,60317e6dc44c7f0fdfc91e66,65d2b6c8f2eece985d8e374c,65d2ba0ff2cdb579bb1760fb,0.034,0.034,0,113,113,120,1,fivesix,,,,,,,,,,,,,,,,,,,,,,,,,,,,,,,,,,,,,,,,,,,,,,,,,,,,,,,,,,,,,,,,,,,,,,,,,,,,,,,,,,,,,,,,,,,,,,,,,,,,,,,,,,,,,,,,,,,,,,,,,,,,,,,,,,,,,,,,,
,,60317e6dc44c7f0fdfc91e66,2024-02-19_10h17.27.548,kallum_motion_pilot,2023.2.2,Win32,58.82352941,60317e6dc44c7f0fdfc91e66,65d2b6c8f2eece985d8e374c,65d2ba0ff2cdb579bb1760fb,0.034,0.034,0,114,114,109,1,seveneight,,,,,,,,,,,,,,,,,,,,,,,,,,,,,,,,,,,,,,,,,,,,,,,,,,,,,,,,,,,,,,,,,,,,,,,,,,,,,,,,,,,,,,,,,,,,,,,,,,,,,,,,,,,,,,,,,,,,,,,,,,,,,,,,,,,,,,,,,
,,60317e6dc44c7f0fdfc91e66,2024-02-19_10h17.27.548,kallum_motion_pilot,2023.2.2,Win32,58.82352941,60317e6dc44c7f0fdfc91e66,65d2b6c8f2eece985d8e374c,65d2ba0ff2cdb579bb1760fb,0.034,0.034,0,115,115,133,1,seveneight,,,,,,,,,,,,,,,,,,,,,,,,,,,,,,,,,,,,,,,,,,,,,,,,,,,,,,,,,,,,,,,,,,,,,,,,,,,,,,,,,,,,,,,,,,,,,,,,,,,,,,,,,,,,,,,,,,,,,,,,,,,,,,,,,,,,,,,,,
,,60317e6dc44c7f0fdfc91e66,2024-02-19_10h17.27.548,kallum_motion_pilot,2023.2.2,Win32,58.82352941,60317e6dc44c7f0fdfc91e66,65d2b6c8f2eece985d8e374c,65d2ba0ff2cdb579bb1760fb,0.035,0.035,0,116,116,100,1,sevenfive,,,,,,,,,,,,,,,,,,,,,,,,,,,,,,,,,,,,,,,,,,,,,,,,,,,,,,,,,,,,,,,,,,,,,,,,,,,,,,,,,,,,,,,,,,,,,,,,,,,,,,,,,,,,,,,,,,,,,,,,,,,,,,,,,,,,,,,,,
,,60317e6dc44c7f0fdfc91e66,2024-02-19_10h17.27.548,kallum_motion_pilot,2023.2.2,Win32,58.82352941,60317e6dc44c7f0fdfc91e66,65d2b6c8f2eece985d8e374c,65d2ba0ff2cdb579bb1760fb,0.035,0.035,0,117,117,10,1,twoone,,,,,,,,,,,,,,,,,,,,,,,,,,,,,,,,,,,,,,,,,,,,,,,,,,,,,,,,,,,,,,,,,,,,,,,,,,,,,,,,,,,,,,,,,,,,,,,,,,,,,,,,,,,,,,,,,,,,,,,,,,,,,,,,,,,,,,,,,
,,60317e6dc44c7f0fdfc91e66,2024-02-19_10h17.27.548,kallum_motion_pilot,2023.2.2,Win32,58.82352941,60317e6dc44c7f0fdfc91e66,65d2b6c8f2eece985d8e374c,65d2ba0ff2cdb579bb1760fb,0.035,0.035,0,118,118,28,1,threeone,,,,,,,,,,,,,,,,,,,,,,,,,,,,,,,,,,,,,,,,,,,,,,,,,,,,,,,,,,,,,,,,,,,,,,,,,,,,,,,,,,,,,,,,,,,,,,,,,,,,,,,,,,,,,,,,,,,,,,,,,,,,,,,,,,,,,,,,,
,,60317e6dc44c7f0fdfc91e66,2024-02-19_10h17.27.548,kallum_motion_pilot,2023.2.2,Win32,58.82352941,60317e6dc44c7f0fdfc91e66,65d2b6c8f2eece985d8e374c,65d2ba0ff2cdb579bb1760fb,0.035,0.036,0,119,119,41,1,onethree,,,,,,,,,,,,,,,,,,,,,,,,,,,,,,,,,,,,,,,,,,,,,,,,,,,,,,,,,,,,,,,,,,,,,,,,,,,,,,,,,,,,,,,,,,,,,,,,,,,,,,,,,,,,,,,,,,,,,,,,,,,,,,,,,,,,,,,,,
,,60317e6dc44c7f0fdfc91e66,2024-02-19_10h17.27.548,kallum_motion_pilot,2023.2.2,Win32,58.82352941,60317e6dc44c7f0fdfc91e66,65d2b6c8f2eece985d8e374c,65d2ba0ff2cdb579bb1760fb,0.036,0.036,0,120,120,86,1,eightsix,,,,,,,,,,,,,,,,,,,,,,,,,,,,,,,,,,,,,,,,,,,,,,,,,,,,,,,,,,,,,,,,,,,,,,,,,,,,,,,,,,,,,,,,,,,,,,,,,,,,,,,,,,,,,,,,,,,,,,,,,,,,,,,,,,,,,,,,,
,,60317e6dc44c7f0fdfc91e66,2024-02-19_10h17.27.548,kallum_motion_pilot,2023.2.2,Win32,58.82352941,60317e6dc44c7f0fdfc91e66,65d2b6c8f2eece985d8e374c,65d2ba0ff2cdb579bb1760fb,0.036,0.036,0,121,121,19,1,twofour,,,,,,,,,,,,,,,,,,,,,,,,,,,,,,,,,,,,,,,,,,,,,,,,,,,,,,,,,,,,,,,,,,,,,,,,,,,,,,,,,,,,,,,,,,,,,,,,,,,,,,,,,,,,,,,,,,,,,,,,,,,,,,,,,,,,,,,,,
,,60317e6dc44c7f0fdfc91e66,2024-02-19_10h17.27.548,kallum_motion_pilot,2023.2.2,Win32,58.82352941,60317e6dc44c7f0fdfc91e66,65d2b6c8f2eece985d8e374c,65d2ba0ff2cdb579bb1760fb,0.036,0.036,0,122,122,119,1,eightseven,,,,,,,,,,,,,,,,,,,,,,,,,,,,,,,,,,,,,,,,,,,,,,,,,,,,,,,,,,,,,,,,,,,,,,,,,,,,,,,,,,,,,,,,,,,,,,,,,,,,,,,,,,,,,,,,,,,,,,,,,,,,,,,,,,,,,,,,,
,,60317e6dc44c7f0fdfc91e66,2024-02-19_10h17.27.548,kallum_motion_pilot,2023.2.2,Win32,58.82352941,60317e6dc44c7f0fdfc91e66,65d2b6c8f2eece985d8e374c,65d2ba0ff2cdb579bb1760fb,0.036,0.036,0,123,123,81,1,fiveseven,,,,,,,,,,,,,,,,,,,,,,,,,,,,,,,,,,,,,,,,,,,,,,,,,,,,,,,,,,,,,,,,,,,,,,,,,,,,,,,,,,,,,,,,,,,,,,,,,,,,,,,,,,,,,,,,,,,,,,,,,,,,,,,,,,,,,,,,,
,,60317e6dc44c7f0fdfc91e66,2024-02-19_10h17.27.548,kallum_motion_pilot,2023.2.2,Win32,58.82352941,60317e6dc44c7f0fdfc91e66,65d2b6c8f2eece985d8e374c,65d2ba0ff2cdb579bb1760fb,0.036,0.036,0,124,124,129,1,fiveseven,,,,,,,,,,,,,,,,,,,,,,,,,,,,,,,,,,,,,,,,,,,,,,,,,,,,,,,,,,,,,,,,,,,,,,,,,,,,,,,,,,,,,,,,,,,,,,,,,,,,,,,,,,,,,,,,,,,,,,,,,,,,,,,,,,,,,,,,,
,,60317e6dc44c7f0fdfc91e66,2024-02-19_10h17.27.548,kallum_motion_pilot,2023.2.2,Win32,58.82352941,60317e6dc44c7f0fdfc91e66,65d2b6c8f2eece985d8e374c,65d2ba0ff2cdb579bb1760fb,0.036,0.036,0,125,125,25,1,onethree,,,,,,,,,,,,,,,,,,,,,,,,,,,,,,,,,,,,,,,,,,,,,,,,,,,,,,,,,,,,,,,,,,,,,,,,,,,,,,,,,,,,,,,,,,,,,,,,,,,,,,,,,,,,,,,,,,,,,,,,,,,,,,,,,,,,,,,,,
,,60317e6dc44c7f0fdfc91e66,2024-02-19_10h17.27.548,kallum_motion_pilot,2023.2.2,Win32,58.82352941,60317e6dc44c7f0fdfc91e66,65d2b6c8f2eece985d8e374c,65d2ba0ff2cdb579bb1760fb,0.036,0.036,0,126,126,61,1,threefour,,,,,,,,,,,,,,,,,,,,,,,,,,,,,,,,,,,,,,,,,,,,,,,,,,,,,,,,,,,,,,,,,,,,,,,,,,,,,,,,,,,,,,,,,,,,,,,,,,,,,,,,,,,,,,,,,,,,,,,,,,,,,,,,,,,,,,,,,
,,60317e6dc44c7f0fdfc91e66,2024-02-19_10h17.27.548,kallum_motion_pilot,2023.2.2,Win32,58.82352941,60317e6dc44c7f0fdfc91e66,65d2b6c8f2eece985d8e374c,65d2ba0ff2cdb579bb1760fb,0.036,0.036,0,127,127,73,1,onethree,,,,,,,,,,,,,,,,,,,,,,,,,,,,,,,,,,,,,,,,,,,,,,,,,,,,,,,,,,,,,,,,,,,,,,,,,,,,,,,,,,,,,,,,,,,,,,,,,,,,,,,,,,,,,,,,,,,,,,,,,,,,,,,,,,,,,,,,,
,,60317e6dc44c7f0fdfc91e66,2024-02-19_10h17.27.548,kallum_motion_pilot,2023.2.2,Win32,58.82352941,60317e6dc44c7f0fdfc91e66,65d2b6c8f2eece985d8e374c,65d2ba0ff2cdb579bb1760fb,0.036,0.036,0,128,128,23,1,fourthree,,,,,,,,,,,,,,,,,,,,,,,,,,,,,,,,,,,,,,,,,,,,,,,,,,,,,,,,,,,,,,,,,,,,,,,,,,,,,,,,,,,,,,,,,,,,,,,,,,,,,,,,,,,,,,,,,,,,,,,,,,,,,,,,,,,,,,,,,
,,60317e6dc44c7f0fdfc91e66,2024-02-19_10h17.27.548,kallum_motion_pilot,2023.2.2,Win32,58.82352941,60317e6dc44c7f0fdfc91e66,65d2b6c8f2eece985d8e374c,65d2ba0ff2cdb579bb1760fb,0.036,0.036,0,129,129,114,1,sixfive,,,,,,,,,,,,,,,,,,,,,,,,,,,,,,,,,,,,,,,,,,,,,,,,,,,,,,,,,,,,,,,,,,,,,,,,,,,,,,,,,,,,,,,,,,,,,,,,,,,,,,,,,,,,,,,,,,,,,,,,,,,,,,,,,,,,,,,,,
,,60317e6dc44c7f0fdfc91e66,2024-02-19_10h17.27.548,kallum_motion_pilot,2023.2.2,Win32,58.82352941,60317e6dc44c7f0fdfc91e66,65d2b6c8f2eece985d8e374c,65d2ba0ff2cdb579bb1760fb,0.036,0.036,0,130,130,94,1,eightsix,,,,,,,,,,,,,,,,,,,,,,,,,,,,,,,,,,,,,,,,,,,,,,,,,,,,,,,,,,,,,,,,,,,,,,,,,,,,,,,,,,,,,,,,,,,,,,,,,,,,,,,,,,,,,,,,,,,,,,,,,,,,,,,,,,,,,,,,,
,,60317e6dc44c7f0fdfc91e66,2024-02-19_10h17.27.548,kallum_motion_pilot,2023.2.2,Win32,58.82352941,60317e6dc44c7f0fdfc91e66,65d2b6c8f2eece985d8e374c,65d2ba0ff2cdb579bb1760fb,0.036,0.036,0,131,131,87,1,eightseven,,,,,,,,,,,,,,,,,,,,,,,,,,,,,,,,,,,,,,,,,,,,,,,,,,,,,,,,,,,,,,,,,,,,,,,,,,,,,,,,,,,,,,,,,,,,,,,,,,,,,,,,,,,,,,,,,,,,,,,,,,,,,,,,,,,,,,,,,
,,60317e6dc44c7f0fdfc91e66,2024-02-19_10h17.27.548,kallum_motion_pilot,2023.2.2,Win32,58.82352941,60317e6dc44c7f0fdfc91e66,65d2b6c8f2eece985d8e374c,65d2ba0ff2cdb579bb1760fb,0.036,0.036,0,132,132,161,1,fiveseven,,,,,,,,,,,,,,,,,,,,,,,,,,,,,,,,,,,,,,,,,,,,,,,,,,,,,,,,,,,,,,,,,,,,,,,,,,,,,,,,,,,,,,,,,,,,,,,,,,,,,,,,,,,,,,,,,,,,,,,,,,,,,,,,,,,,,,,,,
,,60317e6dc44c7f0fdfc91e66,2024-02-19_10h17.27.548,kallum_motion_pilot,2023.2.2,Win32,58.82352941,60317e6dc44c7f0fdfc91e66,65d2b6c8f2eece985d8e374c,65d2ba0ff2cdb579bb1760fb,0.037,0.037,0,133,133,60,1,threeone,,,,,,,,,,,,,,,,,,,,,,,,,,,,,,,,,,,,,,,,,,,,,,,,,,,,,,,,,,,,,,,,,,,,,,,,,,,,,,,,,,,,,,,,,,,,,,,,,,,,,,,,,,,,,,,,,,,,,,,,,,,,,,,,,,,,,,,,,
,,60317e6dc44c7f0fdfc91e66,2024-02-19_10h17.27.548,kallum_motion_pilot,2023.2.2,Win32,58.82352941,60317e6dc44c7f0fdfc91e66,65d2b6c8f2eece985d8e374c,65d2ba0ff2cdb579bb1760fb,0.037,0.037,0,134,134,116,1,sevenfive,,,,,,,,,,,,,,,,,,,,,,,,,,,,,,,,,,,,,,,,,,,,,,,,,,,,,,,,,,,,,,,,,,,,,,,,,,,,,,,,,,,,,,,,,,,,,,,,,,,,,,,,,,,,,,,,,,,,,,,,,,,,,,,,,,,,,,,,,
,,60317e6dc44c7f0fdfc91e66,2024-02-19_10h17.27.548,kallum_motion_pilot,2023.2.2,Win32,58.82352941,60317e6dc44c7f0fdfc91e66,65d2b6c8f2eece985d8e374c,65d2ba0ff2cdb579bb1760fb,0.037,0.037,0,135,135,6,1,fourtwo,,,,,,,,,,,,,,,,,,,,,,,,,,,,,,,,,,,,,,,,,,,,,,,,,,,,,,,,,,,,,,,,,,,,,,,,,,,,,,,,,,,,,,,,,,,,,,,,,,,,,,,,,,,,,,,,,,,,,,,,,,,,,,,,,,,,,,,,,
,,60317e6dc44c7f0fdfc91e66,2024-02-19_10h17.27.548,kallum_motion_pilot,2023.2.2,Win32,58.82352941,60317e6dc44c7f0fdfc91e66,65d2b6c8f2eece985d8e374c,65d2ba0ff2cdb579bb1760fb,0.037,0.037,0,136,136,97,1,fiveseven,,,,,,,,,,,,,,,,,,,,,,,,,,,,,,,,,,,,,,,,,,,,,,,,,,,,,,,,,,,,,,,,,,,,,,,,,,,,,,,,,,,,,,,,,,,,,,,,,,,,,,,,,,,,,,,,,,,,,,,,,,,,,,,,,,,,,,,,,
,,60317e6dc44c7f0fdfc91e66,2024-02-19_10h17.27.548,kallum_motion_pilot,2023.2.2,Win32,58.82352941,60317e6dc44c7f0fdfc91e66,65d2b6c8f2eece985d8e374c,65d2ba0ff2cdb579bb1760fb,0.037,0.037,0,137,137,118,1,eightsix,,,,,,,,,,,,,,,,,,,,,,,,,,,,,,,,,,,,,,,,,,,,,,,,,,,,,,,,,,,,,,,,,,,,,,,,,,,,,,,,,,,,,,,,,,,,,,,,,,,,,,,,,,,,,,,,,,,,,,,,,,,,,,,,,,,,,,,,,
,,60317e6dc44c7f0fdfc91e66,2024-02-19_10h17.27.548,kallum_motion_pilot,2023.2.2,Win32,58.82352941,60317e6dc44c7f0fdfc91e66,65d2b6c8f2eece985d8e374c,65d2ba0ff2cdb579bb1760fb,0.037,0.038,0,138,138,90,1,sixfive,,,,,,,,,,,,,,,,,,,,,,,,,,,,,,,,,,,,,,,,,,,,,,,,,,,,,,,,,,,,,,,,,,,,,,,,,,,,,,,,,,,,,,,,,,,,,,,,,,,,,,,,,,,,,,,,,,,,,,,,,,,,,,,,,,,,,,,,,
,,60317e6dc44c7f0fdfc91e66,2024-02-19_10h17.27.548,kallum_motion_pilot,2023.2.2,Win32,58.82352941,60317e6dc44c7f0fdfc91e66,65d2b6c8f2eece985d8e374c,65d2ba0ff2cdb579bb1760fb,0.038,0.038,0,139,139,148,1,sevenfive,,,,,,,,,,,,,,,,,,,,,,,,,,,,,,,,,,,,,,,,,,,,,,,,,,,,,,,,,,,,,,,,,,,,,,,,,,,,,,,,,,,,,,,,,,,,,,,,,,,,,,,,,,,,,,,,,,,,,,,,,,,,,,,,,,,,,,,,,
,,60317e6dc44c7f0fdfc91e66,2024-02-19_10h17.27.548,kallum_motion_pilot,2023.2.2,Win32,58.82352941,60317e6dc44c7f0fdfc91e66,65d2b6c8f2eece985d8e374c,65d2ba0ff2cdb579bb1760fb,0.038,0.038,0,140,140,17,1,onethree,,,,,,,,,,,,,,,,,,,,,,,,,,,,,,,,,,,,,,,,,,,,,,,,,,,,,,,,,,,,,,,,,,,,,,,,,,,,,,,,,,,,,,,,,,,,,,,,,,,,,,,,,,,,,,,,,,,,,,,,,,,,,,,,,,,,,,,,,
,,60317e6dc44c7f0fdfc91e66,2024-02-19_10h17.27.548,kallum_motion_pilot,2023.2.2,Win32,58.82352941,60317e6dc44c7f0fdfc91e66,65d2b6c8f2eece985d8e374c,65d2ba0ff2cdb579bb1760fb,0.038,0.038,0,141,141,7,1,fourthree,,,,,,,,,,,,,,,,,,,,,,,,,,,,,,,,,,,,,,,,,,,,,,,,,,,,,,,,,,,,,,,,,,,,,,,,,,,,,,,,,,,,,,,,,,,,,,,,,,,,,,,,,,,,,,,,,,,,,,,,,,,,,,,,,,,,,,,,,
,,60317e6dc44c7f0fdfc91e66,2024-02-19_10h17.27.548,kallum_motion_pilot,2023.2.2,Win32,58.82352941,60317e6dc44c7f0fdfc91e66,65d2b6c8f2eece985d8e374c,65d2ba0ff2cdb579bb1760fb,0.038,0.038,0,142,142,13,1,threefour,,,,,,,,,,,,,,,,,,,,,,,,,,,,,,,,,,,,,,,,,,,,,,,,,,,,,,,,,,,,,,,,,,,,,,,,,,,,,,,,,,,,,,,,,,,,,,,,,,,,,,,,,,,,,,,,,,,,,,,,,,,,,,,,,,,,,,,,,
,,60317e6dc44c7f0fdfc91e66,2024-02-19_10h17.27.548,kallum_motion_pilot,2023.2.2,Win32,58.82352941,60317e6dc44c7f0fdfc91e66,65d2b6c8f2eece985d8e374c,65d2ba0ff2cdb579bb1760fb,0.038,0.038,0,143,143,104,1,fivesix,,,,,,,,,,,,,,,,,,,,,,,,,,,,,,,,,,,,,,,,,,,,,,,,,,,,,,,,,,,,,,,,,,,,,,,,,,,,,,,,,,,,,,,,,,,,,,,,,,,,,,,,,,,,,,,,,,,,,,,,,,,,,,,,,,,,,,,,,
,,60317e6dc44c7f0fdfc91e66,2024-02-19_10h17.27.548,kallum_motion_pilot,2023.2.2,Win32,58.82352941,60317e6dc44c7f0fdfc91e66,65d2b6c8f2eece985d8e374c,65d2ba0ff2cdb579bb1760fb,0.038,0.038,0,144,144,126,1,eightsix,,,,,,,,,,,,,,,,,,,,,,,,,,,,,,,,,,,,,,,,,,,,,,,,,,,,,,,,,,,,,,,,,,,,,,,,,,,,,,,,,,,,,,,,,,,,,,,,,,,,,,,,,,,,,,,,,,,,,,,,,,,,,,,,,,,,,,,,,
,,60317e6dc44c7f0fdfc91e66,2024-02-19_10h17.27.548,kallum_motion_pilot,2023.2.2,Win32,58.82352941,60317e6dc44c7f0fdfc91e66,65d2b6c8f2eece985d8e374c,65d2ba0ff2cdb579bb1760fb,0.038,0.038,0,145,145,75,1,twofour,,,,,,,,,,,,,,,,,,,,,,,,,,,,,,,,,,,,,,,,,,,,,,,,,,,,,,,,,,,,,,,,,,,,,,,,,,,,,,,,,,,,,,,,,,,,,,,,,,,,,,,,,,,,,,,,,,,,,,,,,,,,,,,,,,,,,,,,,
,,60317e6dc44c7f0fdfc91e66,2024-02-19_10h17.27.548,kallum_motion_pilot,2023.2.2,Win32,58.82352941,60317e6dc44c7f0fdfc91e66,65d2b6c8f2eece985d8e374c,65d2ba0ff2cdb579bb1760fb,0.038,0.038,0,146,146,18,1,twoone,,,,,,,,,,,,,,,,,,,,,,,,,,,,,,,,,,,,,,,,,,,,,,,,,,,,,,,,,,,,,,,,,,,,,,,,,,,,,,,,,,,,,,,,,,,,,,,,,,,,,,,,,,,,,,,,,,,,,,,,,,,,,,,,,,,,,,,,,
,,60317e6dc44c7f0fdfc91e66,2024-02-19_10h17.27.548,kallum_motion_pilot,2023.2.2,Win32,58.82352941,60317e6dc44c7f0fdfc91e66,65d2b6c8f2eece985d8e374c,65d2ba0ff2cdb579bb1760fb,0.038,0.038,0,147,147,24,1,onetwo,,,,,,,,,,,,,,,,,,,,,,,,,,,,,,,,,,,,,,,,,,,,,,,,,,,,,,,,,,,,,,,,,,,,,,,,,,,,,,,,,,,,,,,,,,,,,,,,,,,,,,,,,,,,,,,,,,,,,,,,,,,,,,,,,,,,,,,,,
,,60317e6dc44c7f0fdfc91e66,2024-02-19_10h17.27.548,kallum_motion_pilot,2023.2.2,Win32,58.82352941,60317e6dc44c7f0fdfc91e66,65d2b6c8f2eece985d8e374c,65d2ba0ff2cdb579bb1760fb,0.038,0.038,0,148,148,122,1,sixfive,,,,,,,,,,,,,,,,,,,,,,,,,,,,,,,,,,,,,,,,,,,,,,,,,,,,,,,,,,,,,,,,,,,,,,,,,,,,,,,,,,,,,,,,,,,,,,,,,,,,,,,,,,,,,,,,,,,,,,,,,,,,,,,,,,,,,,,,,
,,60317e6dc44c7f0fdfc91e66,2024-02-19_10h17.27.548,kallum_motion_pilot,2023.2.2,Win32,58.82352941,60317e6dc44c7f0fdfc91e66,65d2b6c8f2eece985d8e374c,65d2ba0ff2cdb579bb1760fb,0.038,0.039,0,149,149,85,1,seveneight,,,,,,,,,,,,,,,,,,,,,,,,,,,,,,,,,,,,,,,,,,,,,,,,,,,,,,,,,,,,,,,,,,,,,,,,,,,,,,,,,,,,,,,,,,,,,,,,,,,,,,,,,,,,,,,,,,,,,,,,,,,,,,,,,,,,,,,,,
,,60317e6dc44c7f0fdfc91e66,2024-02-19_10h17.27.548,kallum_motion_pilot,2023.2.2,Win32,58.82352941,60317e6dc44c7f0fdfc91e66,65d2b6c8f2eece985d8e374c,65d2ba0ff2cdb579bb1760fb,0.039,0.039,0,150,150,26,1,twoone,,,,,,,,,,,,,,,,,,,,,,,,,,,,,,,,,,,,,,,,,,,,,,,,,,,,,,,,,,,,,,,,,,,,,,,,,,,,,,,,,,,,,,,,,,,,,,,,,,,,,,,,,,,,,,,,,,,,,,,,,,,,,,,,,,,,,,,,,
,,60317e6dc44c7f0fdfc91e66,2024-02-19_10h17.27.548,kallum_motion_pilot,2023.2.2,Win32,58.82352941,60317e6dc44c7f0fdfc91e66,65d2b6c8f2eece985d8e374c,65d2ba0ff2cdb579bb1760fb,0.039,0.039,0,151,151,98,1,sixfive,,,,,,,,,,,,,,,,,,,,,,,,,,,,,,,,,,,,,,,,,,,,,,,,,,,,,,,,,,,,,,,,,,,,,,,,,,,,,,,,,,,,,,,,,,,,,,,,,,,,,,,,,,,,,,,,,,,,,,,,,,,,,,,,,,,,,,,,,
,,60317e6dc44c7f0fdfc91e66,2024-02-19_10h17.27.548,kallum_motion_pilot,2023.2.2,Win32,58.82352941,60317e6dc44c7f0fdfc91e66,65d2b6c8f2eece985d8e374c,65d2ba0ff2cdb579bb1760fb,0.039,0.039,0,152,152,82,1,sixfive,,,,,,,,,,,,,,,,,,,,,,,,,,,,,,,,,,,,,,,,,,,,,,,,,,,,,,,,,,,,,,,,,,,,,,,,,,,,,,,,,,,,,,,,,,,,,,,,,,,,,,,,,,,,,,,,,,,,,,,,,,,,,,,,,,,,,,,,,
,,60317e6dc44c7f0fdfc91e66,2024-02-19_10h17.27.548,kallum_motion_pilot,2023.2.2,Win32,58.82352941,60317e6dc44c7f0fdfc91e66,65d2b6c8f2eece985d8e374c,65d2ba0ff2cdb579bb1760fb,0.039,0.039,0,153,153,139,1,sixeight,,,,,,,,,,,,,,,,,,,,,,,,,,,,,,,,,,,,,,,,,,,,,,,,,,,,,,,,,,,,,,,,,,,,,,,,,,,,,,,,,,,,,,,,,,,,,,,,,,,,,,,,,,,,,,,,,,,,,,,,,,,,,,,,,,,,,,,,,
,,60317e6dc44c7f0fdfc91e66,2024-02-19_10h17.27.548,kallum_motion_pilot,2023.2.2,Win32,58.82352941,60317e6dc44c7f0fdfc91e66,65d2b6c8f2eece985d8e374c,65d2ba0ff2cdb579bb1760fb,0.039,0.039,0,154,154,34,1,twoone,,,,,,,,,,,,,,,,,,,,,,,,,,,,,,,,,,,,,,,,,,,,,,,,,,,,,,,,,,,,,,,,,,,,,,,,,,,,,,,,,,,,,,,,,,,,,,,,,,,,,,,,,,,,,,,,,,,,,,,,,,,,,,,,,,,,,,,,,
,,60317e6dc44c7f0fdfc91e66,2024-02-19_10h17.27.548,kallum_motion_pilot,2023.2.2,Win32,58.82352941,60317e6dc44c7f0fdfc91e66,65d2b6c8f2eece985d8e374c,65d2ba0ff2cdb579bb1760fb,0.039,0.039,0,155,155,157,1,seveneight,,,,,,,,,,,,,,,,,,,,,,,,,,,,,,,,,,,,,,,,,,,,,,,,,,,,,,,,,,,,,,,,,,,,,,,,,,,,,,,,,,,,,,,,,,,,,,,,,,,,,,,,,,,,,,,,,,,,,,,,,,,,,,,,,,,,,,,,,
,,60317e6dc44c7f0fdfc91e66,2024-02-19_10h17.27.548,kallum_motion_pilot,2023.2.2,Win32,58.82352941,60317e6dc44c7f0fdfc91e66,65d2b6c8f2eece985d8e374c,65d2ba0ff2cdb579bb1760fb,0.039,0.039,0,156,156,65,1,onethree,,,,,,,,,,,,,,,,,,,,,,,,,,,,,,,,,,,,,,,,,,,,,,,,,,,,,,,,,,,,,,,,,,,,,,,,,,,,,,,,,,,,,,,,,,,,,,,,,,,,,,,,,,,,,,,,,,,,,,,,,,,,,,,,,,,,,,,,,
,,60317e6dc44c7f0fdfc91e66,2024-02-19_10h17.27.548,kallum_motion_pilot,2023.2.2,Win32,58.82352941,60317e6dc44c7f0fdfc91e66,65d2b6c8f2eece985d8e374c,65d2ba0ff2cdb579bb1760fb,0.039,0.04,0,157,157,38,1,fourtwo,,,,,,,,,,,,,,,,,,,,,,,,,,,,,,,,,,,,,,,,,,,,,,,,,,,,,,,,,,,,,,,,,,,,,,,,,,,,,,,,,,,,,,,,,,,,,,,,,,,,,,,,,,,,,,,,,,,,,,,,,,,,,,,,,,,,,,,,,
,,60317e6dc44c7f0fdfc91e66,2024-02-19_10h17.27.548,kallum_motion_pilot,2023.2.2,Win32,58.82352941,60317e6dc44c7f0fdfc91e66,65d2b6c8f2eece985d8e374c,65d2ba0ff2cdb579bb1760fb,0.04,0.04,0,158,158,103,1,eightseven,,,,,,,,,,,,,,,,,,,,,,,,,,,,,,,,,,,,,,,,,,,,,,,,,,,,,,,,,,,,,,,,,,,,,,,,,,,,,,,,,,,,,,,,,,,,,,,,,,,,,,,,,,,,,,,,,,,,,,,,,,,,,,,,,,,,,,,,,
,,60317e6dc44c7f0fdfc91e66,2024-02-19_10h17.27.548,kallum_motion_pilot,2023.2.2,Win32,58.82352941,60317e6dc44c7f0fdfc91e66,65d2b6c8f2eece985d8e374c,65d2ba0ff2cdb579bb1760fb,0.04,0.04,0,159,159,141,1,seveneight,,,,,,,,,,,,,,,,,,,,,,,,,,,,,,,,,,,,,,,,,,,,,,,,,,,,,,,,,,,,,,,,,,,,,,,,,,,,,,,,,,,,,,,,,,,,,,,,,,,,,,,,,,,,,,,,,,,,,,,,,,,,,,,,,,,,,,,,,
,,60317e6dc44c7f0fdfc91e66,2024-02-19_10h17.27.548,kallum_motion_pilot,2023.2.2,Win32,58.82352941,60317e6dc44c7f0fdfc91e66,65d2b6c8f2eece985d8e374c,65d2ba0ff2cdb579bb1760fb,0.04,0.04,0,160,160,76,1,threeone,,,,,,,,,,,,,,,,,,,,,,,,,,,,,,,,,,,,,,,,,,,,,,,,,,,,,,,,,,,,,,,,,,,,,,,,,,,,,,,,,,,,,,,,,,,,,,,,,,,,,,,,,,,,,,,,,,,,,,,,,,,,,,,,,,,,,,,,,
,,60317e6dc44c7f0fdfc91e66,2024-02-19_10h17.27.548,kallum_motion_pilot,2023.2.2,Win32,58.82352941,60317e6dc44c7f0fdfc91e66,65d2b6c8f2eece985d8e374c,65d2ba0ff2cdb579bb1760fb,0.04,0.04,0,161,161,14,1,fourtwo,,,,,,,,,,,,,,,,,,,,,,,,,,,,,,,,,,,,,,,,,,,,,,,,,,,,,,,,,,,,,,,,,,,,,,,,,,,,,,,,,,,,,,,,,,,,,,,,,,,,,,,,,,,,,,,,,,,,,,,,,,,,,,,,,,,,,,,,,
,,60317e6dc44c7f0fdfc91e66,2024-02-19_10h17.27.548,kallum_motion_pilot,2023.2.2,Win32,58.82352941,60317e6dc44c7f0fdfc91e66,65d2b6c8f2eece985d8e374c,65d2ba0ff2cdb579bb1760fb,0.04,0.04,1,0,162,69,1,threefour,,,,,,,,,,,,,,,,,,,,,,,,,,,,,,,,,,,,,,,,,,,,,,,,,,,,,,,,,,,,,,,,,,,,,,,,,,,,,,,,,,,,,,,,,,,,,,,,,,,,,,,,,,,,,,,,,,,,,,,,,,,,,,,,,,,,,,,,,
,,60317e6dc44c7f0fdfc91e66,2024-02-19_10h17.27.548,kallum_motion_pilot,2023.2.2,Win32,58.82352941,60317e6dc44c7f0fdfc91e66,65d2b6c8f2eece985d8e374c,65d2ba0ff2cdb579bb1760fb,0.04,0.04,1,1,163,118,1,eightsix,,,,,,,,,,,,,,,,,,,,,,,,,,,,,,,,,,,,,,,,,,,,,,,,,,,,,,,,,,,,,,,,,,,,,,,,,,,,,,,,,,,,,,,,,,,,,,,,,,,,,,,,,,,,,,,,,,,,,,,,,,,,,,,,,,,,,,,,,
,,60317e6dc44c7f0fdfc91e66,2024-02-19_10h17.27.548,kallum_motion_pilot,2023.2.2,Win32,58.82352941,60317e6dc44c7f0fdfc91e66,65d2b6c8f2eece985d8e374c,65d2ba0ff2cdb579bb1760fb,0.04,0.04,1,2,164,154,1,sixfive,,,,,,,,,,,,,,,,,,,,,,,,,,,,,,,,,,,,,,,,,,,,,,,,,,,,,,,,,,,,,,,,,,,,,,,,,,,,,,,,,,,,,,,,,,,,,,,,,,,,,,,,,,,,,,,,,,,,,,,,,,,,,,,,,,,,,,,,,
,,60317e6dc44c7f0fdfc91e66,2024-02-19_10h17.27.548,kallum_motion_pilot,2023.2.2,Win32,58.82352941,60317e6dc44c7f0fdfc91e66,65d2b6c8f2eece985d8e374c,65d2ba0ff2cdb579bb1760fb,0.04,0.04,1,3,165,66,1,twoone,,,,,,,,,,,,,,,,,,,,,,,,,,,,,,,,,,,,,,,,,,,,,,,,,,,,,,,,,,,,,,,,,,,,,,,,,,,,,,,,,,,,,,,,,,,,,,,,,,,,,,,,,,,,,,,,,,,,,,,,,,,,,,,,,,,,,,,,,
,,60317e6dc44c7f0fdfc91e66,2024-02-19_10h17.27.548,kallum_motion_pilot,2023.2.2,Win32,58.82352941,60317e6dc44c7f0fdfc91e66,65d2b6c8f2eece985d8e374c,65d2ba0ff2cdb579bb1760fb,0.04,0.04,1,4,166,132,1,sevenfive,,,,,,,,,,,,,,,,,,,,,,,,,,,,,,,,,,,,,,,,,,,,,,,,,,,,,,,,,,,,,,,,,,,,,,,,,,,,,,,,,,,,,,,,,,,,,,,,,,,,,,,,,,,,,,,,,,,,,,,,,,,,,,,,,,,,,,,,,
,,60317e6dc44c7f0fdfc91e66,2024-02-19_10h17.27.548,kallum_motion_pilot,2023.2.2,Win32,58.82352941,60317e6dc44c7f0fdfc91e66,65d2b6c8f2eece985d8e374c,65d2ba0ff2cdb579bb1760fb,0.041,0.041,1,5,167,105,1,fiveseven,,,,,,,,,,,,,,,,,,,,,,,,,,,,,,,,,,,,,,,,,,,,,,,,,,,,,,,,,,,,,,,,,,,,,,,,,,,,,,,,,,,,,,,,,,,,,,,,,,,,,,,,,,,,,,,,,,,,,,,,,,,,,,,,,,,,,,,,,
,,60317e6dc44c7f0fdfc91e66,2024-02-19_10h17.27.548,kallum_motion_pilot,2023.2.2,Win32,58.82352941,60317e6dc44c7f0fdfc91e66,65d2b6c8f2eece985d8e374c,65d2ba0ff2cdb579bb1760fb,0.041,0.041,1,6,168,138,1,sixfive,,,,,,,,,,,,,,,,,,,,,,,,,,,,,,,,,,,,,,,,,,,,,,,,,,,,,,,,,,,,,,,,,,,,,,,,,,,,,,,,,,,,,,,,,,,,,,,,,,,,,,,,,,,,,,,,,,,,,,,,,,,,,,,,,,,,,,,,,
,,60317e6dc44c7f0fdfc91e66,2024-02-19_10h17.27.548,kallum_motion_pilot,2023.2.2,Win32,58.82352941,60317e6dc44c7f0fdfc91e66,65d2b6c8f2eece985d8e374c,65d2ba0ff2cdb579bb1760fb,0.041,0.041,1,7,169,16,1,onetwo,,,,,,,,,,,,,,,,,,,,,,,,,,,,,,,,,,,,,,,,,,,,,,,,,,,,,,,,,,,,,,,,,,,,,,,,,,,,,,,,,,,,,,,,,,,,,,,,,,,,,,,,,,,,,,,,,,,,,,,,,,,,,,,,,,,,,,,,,
,,60317e6dc44c7f0fdfc91e66,2024-02-19_10h17.27.548,kallum_motion_pilot,2023.2.2,Win32,58.82352941,60317e6dc44c7f0fdfc91e66,65d2b6c8f2eece985d8e374c,65d2ba0ff2cdb579bb1760fb,0.041,0.041,1,8,170,33,1,onethree,,,,,,,,,,,,,,,,,,,,,,,,,,,,,,,,,,,,,,,,,,,,,,,,,,,,,,,,,,,,,,,,,,,,,,,,,,,,,,,,,,,,,,,,,,,,,,,,,,,,,,,,,,,,,,,,,,,,,,,,,,,,,,,,,,,,,,,,,
,,60317e6dc44c7f0fdfc91e66,2024-02-19_10h17.27.548,kallum_motion_pilot,2023.2.2,Win32,58.82352941,60317e6dc44c7f0fdfc91e66,65d2b6c8f2eece985d8e374c,65d2ba0ff2cdb579bb1760fb,0.041,0.041,1,9,171,89,1,fiveseven,,,,,,,,,,,,,,,,,,,,,,,,,,,,,,,,,,,,,,,,,,,,,,,,,,,,,,,,,,,,,,,,,,,,,,,,,,,,,,,,,,,,,,,,,,,,,,,,,,,,,,,,,,,,,,,,,,,,,,,,,,,,,,,,,,,,,,,,,
,,60317e6dc44c7f0fdfc91e66,2024-02-19_10h17.27.548,kallum_motion_pilot,2023.2.2,Win32,58.82352941,60317e6dc44c7f0fdfc91e66,65d2b6c8f2eece985d8e374c,65d2ba0ff2cdb579bb1760fb,0.041,0.041,1,10,172,76,1,threeone,,,,,,,,,,,,,,,,,,,,,,,,,,,,,,,,,,,,,,,,,,,,,,,,,,,,,,,,,,,,,,,,,,,,,,,,,,,,,,,,,,,,,,,,,,,,,,,,,,,,,,,,,,,,,,,,,,,,,,,,,,,,,,,,,,,,,,,,,
,,60317e6dc44c7f0fdfc91e66,2024-02-19_10h17.27.548,kallum_motion_pilot,2023.2.2,Win32,58.82352941,60317e6dc44c7f0fdfc91e66,65d2b6c8f2eece985d8e374c,65d2ba0ff2cdb579bb1760fb,0.041,0.041,1,11,173,121,1,fiveseven,,,,,,,,,,,,,,,,,,,,,,,,,,,,,,,,,,,,,,,,,,,,,,,,,,,,,,,,,,,,,,,,,,,,,,,,,,,,,,,,,,,,,,,,,,,,,,,,,,,,,,,,,,,,,,,,,,,,,,,,,,,,,,,,,,,,,,,,,
,,60317e6dc44c7f0fdfc91e66,2024-02-19_10h17.27.548,kallum_motion_pilot,2023.2.2,Win32,58.82352941,60317e6dc44c7f0fdfc91e66,65d2b6c8f2eece985d8e374c,65d2ba0ff2cdb579bb1760fb,0.041,0.041,1,12,174,36,1,threeone,,,,,,,,,,,,,,,,,,,,,,,,,,,,,,,,,,,,,,,,,,,,,,,,,,,,,,,,,,,,,,,,,,,,,,,,,,,,,,,,,,,,,,,,,,,,,,,,,,,,,,,,,,,,,,,,,,,,,,,,,,,,,,,,,,,,,,,,,
,,60317e6dc44c7f0fdfc91e66,2024-02-19_10h17.27.548,kallum_motion_pilot,2023.2.2,Win32,58.82352941,60317e6dc44c7f0fdfc91e66,65d2b6c8f2eece985d8e374c,65d2ba0ff2cdb579bb1760fb,0.041,0.041,1,13,175,30,1,fourtwo,,,,,,,,,,,,,,,,,,,,,,,,,,,,,,,,,,,,,,,,,,,,,,,,,,,,,,,,,,,,,,,,,,,,,,,,,,,,,,,,,,,,,,,,,,,,,,,,,,,,,,,,,,,,,,,,,,,,,,,,,,,,,,,,,,,,,,,,,
,,60317e6dc44c7f0fdfc91e66,2024-02-19_10h17.27.548,kallum_motion_pilot,2023.2.2,Win32,58.82352941,60317e6dc44c7f0fdfc91e66,65d2b6c8f2eece985d8e374c,65d2ba0ff2cdb579bb1760fb,0.041,0.041,1,14,176,47,1,fourthree,,,,,,,,,,,,,,,,,,,,,,,,,,,,,,,,,,,,,,,,,,,,,,,,,,,,,,,,,,,,,,,,,,,,,,,,,,,,,,,,,,,,,,,,,,,,,,,,,,,,,,,,,,,,,,,,,,,,,,,,,,,,,,,,,,,,,,,,,
,,60317e6dc44c7f0fdfc91e66,2024-02-19_10h17.27.548,kallum_motion_pilot,2023.2.2,Win32,58.82352941,60317e6dc44c7f0fdfc91e66,65d2b6c8f2eece985d8e374c,65d2ba0ff2cdb579bb1760fb,0.041,0.042,1,15,177,106,1,sixfive,,,,,,,,,,,,,,,,,,,,,,,,,,,,,,,,,,,,,,,,,,,,,,,,,,,,,,,,,,,,,,,,,,,,,,,,,,,,,,,,,,,,,,,,,,,,,,,,,,,,,,,,,,,,,,,,,,,,,,,,,,,,,,,,,,,,,,,,,
,,60317e6dc44c7f0fdfc91e66,2024-02-19_10h17.27.548,kallum_motion_pilot,2023.2.2,Win32,58.82352941,60317e6dc44c7f0fdfc91e66,65d2b6c8f2eece985d8e374c,65d2ba0ff2cdb579bb1760fb,0.042,0.042,1,16,178,65,1,onethree,,,,,,,,,,,,,,,,,,,,,,,,,,,,,,,,,,,,,,,,,,,,,,,,,,,,,,,,,,,,,,,,,,,,,,,,,,,,,,,,,,,,,,,,,,,,,,,,,,,,,,,,,,,,,,,,,,,,,,,,,,,,,,,,,,,,,,,,,
,,60317e6dc44c7f0fdfc91e66,2024-02-19_10h17.27.548,kallum_motion_pilot,2023.2.2,Win32,58.82352941,60317e6dc44c7f0fdfc91e66,65d2b6c8f2eece985d8e374c,65d2ba0ff2cdb579bb1760fb,0.042,0.042,1,17,179,144,1,fivesix,,,,,,,,,,,,,,,,,,,,,,,,,,,,,,,,,,,,,,,,,,,,,,,,,,,,,,,,,,,,,,,,,,,,,,,,,,,,,,,,,,,,,,,,,,,,,,,,,,,,,,,,,,,,,,,,,,,,,,,,,,,,,,,,,,,,,,,,,
,,60317e6dc44c7f0fdfc91e66,2024-02-19_10h17.27.548,kallum_motion_pilot,2023.2.2,Win32,58.82352941,60317e6dc44c7f0fdfc91e66,65d2b6c8f2eece985d8e374c,65d2ba0ff2cdb579bb1760fb,0.042,0.042,1,18,180,3,1,twofour,,,,,,,,,,,,,,,,,,,,,,,,,,,,,,,,,,,,,,,,,,,,,,,,,,,,,,,,,,,,,,,,,,,,,,,,,,,,,,,,,,,,,,,,,,,,,,,,,,,,,,,,,,,,,,,,,,,,,,,,,,,,,,,,,,,,,,,,,
,,60317e6dc44c7f0fdfc91e66,2024-02-19_10h17.27.548,kallum_motion_pilot,2023.2.2,Win32,58.82352941,60317e6dc44c7f0fdfc91e66,65d2b6c8f2eece985d8e374c,65d2ba0ff2cdb579bb1760fb,0.042,0.042,1,19,181,17,1,onethree,,,,,,,,,,,,,,,,,,,,,,,,,,,,,,,,,,,,,,,,,,,,,,,,,,,,,,,,,,,,,,,,,,,,,,,,,,,,,,,,,,,,,,,,,,,,,,,,,,,,,,,,,,,,,,,,,,,,,,,,,,,,,,,,,,,,,,,,,
,,60317e6dc44c7f0fdfc91e66,2024-02-19_10h17.27.548,kallum_motion_pilot,2023.2.2,Win32,58.82352941,60317e6dc44c7f0fdfc91e66,65d2b6c8f2eece985d8e374c,65d2ba0ff2cdb579bb1760fb,0.042,0.042,1,20,182,49,1,onethree,,,,,,,,,,,,,,,,,,,,,,,,,,,,,,,,,,,,,,,,,,,,,,,,,,,,,,,,,,,,,,,,,,,,,,,,,,,,,,,,,,,,,,,,,,,,,,,,,,,,,,,,,,,,,,,,,,,,,,,,,,,,,,,,,,,,,,,,,
,,60317e6dc44c7f0fdfc91e66,2024-02-19_10h17.27.548,kallum_motion_pilot,2023.2.2,Win32,58.82352941,60317e6dc44c7f0fdfc91e66,65d2b6c8f2eece985d8e374c,65d2ba0ff2cdb579bb1760fb,0.042,0.042,1,21,183,86,1,eightsix,,,,,,,,,,,,,,,,,,,,,,,,,,,,,,,,,,,,,,,,,,,,,,,,,,,,,,,,,,,,,,,,,,,,,,,,,,,,,,,,,,,,,,,,,,,,,,,,,,,,,,,,,,,,,,,,,,,,,,,,,,,,,,,,,,,,,,,,,
,,60317e6dc44c7f0fdfc91e66,2024-02-19_10h17.27.548,kallum_motion_pilot,2023.2.2,Win32,58.82352941,60317e6dc44c7f0fdfc91e66,65d2b6c8f2eece985d8e374c,65d2ba0ff2cdb579bb1760fb,0.042,0.043,1,22,184,77,1,threefour,,,,,,,,,,,,,,,,,,,,,,,,,,,,,,,,,,,,,,,,,,,,,,,,,,,,,,,,,,,,,,,,,,,,,,,,,,,,,,,,,,,,,,,,,,,,,,,,,,,,,,,,,,,,,,,,,,,,,,,,,,,,,,,,,,,,,,,,,
,,60317e6dc44c7f0fdfc91e66,2024-02-19_10h17.27.548,kallum_motion_pilot,2023.2.2,Win32,58.82352941,60317e6dc44c7f0fdfc91e66,65d2b6c8f2eece985d8e374c,65d2ba0ff2cdb579bb1760fb,0.043,0.043,1,23,185,63,1,fourthree,,,,,,,,,,,,,,,,,,,,,,,,,,,,,,,,,,,,,,,,,,,,,,,,,,,,,,,,,,,,,,,,,,,,,,,,,,,,,,,,,,,,,,,,,,,,,,,,,,,,,,,,,,,,,,,,,,,,,,,,,,,,,,,,,,,,,,,,,
,,60317e6dc44c7f0fdfc91e66,2024-02-19_10h17.27.548,kallum_motion_pilot,2023.2.2,Win32,58.82352941,60317e6dc44c7f0fdfc91e66,65d2b6c8f2eece985d8e374c,65d2ba0ff2cdb579bb1760fb,0.043,0.043,1,24,186,84,1,sevenfive,,,,,,,,,,,,,,,,,,,,,,,,,,,,,,,,,,,,,,,,,,,,,,,,,,,,,,,,,,,,,,,,,,,,,,,,,,,,,,,,,,,,,,,,,,,,,,,,,,,,,,,,,,,,,,,,,,,,,,,,,,,,,,,,,,,,,,,,,
,,60317e6dc44c7f0fdfc91e66,2024-02-19_10h17.27.548,kallum_motion_pilot,2023.2.2,Win32,58.82352941,60317e6dc44c7f0fdfc91e66,65d2b6c8f2eece985d8e374c,65d2ba0ff2cdb579bb1760fb,0.043,0.043,1,25,187,139,1,sixeight,,,,,,,,,,,,,,,,,,,,,,,,,,,,,,,,,,,,,,,,,,,,,,,,,,,,,,,,,,,,,,,,,,,,,,,,,,,,,,,,,,,,,,,,,,,,,,,,,,,,,,,,,,,,,,,,,,,,,,,,,,,,,,,,,,,,,,,,,
,,60317e6dc44c7f0fdfc91e66,2024-02-19_10h17.27.548,kallum_motion_pilot,2023.2.2,Win32,58.82352941,60317e6dc44c7f0fdfc91e66,65d2b6c8f2eece985d8e374c,65d2ba0ff2cdb579bb1760fb,0.043,0.043,1,26,188,82,1,sixfive,,,,,,,,,,,,,,,,,,,,,,,,,,,,,,,,,,,,,,,,,,,,,,,,,,,,,,,,,,,,,,,,,,,,,,,,,,,,,,,,,,,,,,,,,,,,,,,,,,,,,,,,,,,,,,,,,,,,,,,,,,,,,,,,,,,,,,,,,
,,60317e6dc44c7f0fdfc91e66,2024-02-19_10h17.27.548,kallum_motion_pilot,2023.2.2,Win32,58.82352941,60317e6dc44c7f0fdfc91e66,65d2b6c8f2eece985d8e374c,65d2ba0ff2cdb579bb1760fb,0.043,0.044,1,27,189,15,1,fourthree,,,,,,,,,,,,,,,,,,,,,,,,,,,,,,,,,,,,,,,,,,,,,,,,,,,,,,,,,,,,,,,,,,,,,,,,,,,,,,,,,,,,,,,,,,,,,,,,,,,,,,,,,,,,,,,,,,,,,,,,,,,,,,,,,,,,,,,,,
,,60317e6dc44c7f0fdfc91e66,2024-02-19_10h17.27.548,kallum_motion_pilot,2023.2.2,Win32,58.82352941,60317e6dc44c7f0fdfc91e66,65d2b6c8f2eece985d8e374c,65d2ba0ff2cdb579bb1760fb,0.044,0.044,1,28,190,12,1,threeone,,,,,,,,,,,,,,,,,,,,,,,,,,,,,,,,,,,,,,,,,,,,,,,,,,,,,,,,,,,,,,,,,,,,,,,,,,,,,,,,,,,,,,,,,,,,,,,,,,,,,,,,,,,,,,,,,,,,,,,,,,,,,,,,,,,,,,,,,
,,60317e6dc44c7f0fdfc91e66,2024-02-19_10h17.27.548,kallum_motion_pilot,2023.2.2,Win32,58.82352941,60317e6dc44c7f0fdfc91e66,65d2b6c8f2eece985d8e374c,65d2ba0ff2cdb579bb1760fb,0.044,0.044,1,29,191,158,1,eightsix,,,,,,,,,,,,,,,,,,,,,,,,,,,,,,,,,,,,,,,,,,,,,,,,,,,,,,,,,,,,,,,,,,,,,,,,,,,,,,,,,,,,,,,,,,,,,,,,,,,,,,,,,,,,,,,,,,,,,,,,,,,,,,,,,,,,,,,,,
,,60317e6dc44c7f0fdfc91e66,2024-02-19_10h17.27.548,kallum_motion_pilot,2023.2.2,Win32,58.82352941,60317e6dc44c7f0fdfc91e66,65d2b6c8f2eece985d8e374c,65d2ba0ff2cdb579bb1760fb,0.044,0.044,1,30,192,126,1,eightsix,,,,,,,,,,,,,,,,,,,,,,,,,,,,,,,,,,,,,,,,,,,,,,,,,,,,,,,,,,,,,,,,,,,,,,,,,,,,,,,,,,,,,,,,,,,,,,,,,,,,,,,,,,,,,,,,,,,,,,,,,,,,,,,,,,,,,,,,,
,,60317e6dc44c7f0fdfc91e66,2024-02-19_10h17.27.548,kallum_motion_pilot,2023.2.2,Win32,58.82352941,60317e6dc44c7f0fdfc91e66,65d2b6c8f2eece985d8e374c,65d2ba0ff2cdb579bb1760fb,0.044,0.044,1,31,193,6,1,fourtwo,,,,,,,,,,,,,,,,,,,,,,,,,,,,,,,,,,,,,,,,,,,,,,,,,,,,,,,,,,,,,,,,,,,,,,,,,,,,,,,,,,,,,,,,,,,,,,,,,,,,,,,,,,,,,,,,,,,,,,,,,,,,,,,,,,,,,,,,,
,,60317e6dc44c7f0fdfc91e66,2024-02-19_10h17.27.548,kallum_motion_pilot,2023.2.2,Win32,58.82352941,60317e6dc44c7f0fdfc91e66,65d2b6c8f2eece985d8e374c,65d2ba0ff2cdb579bb1760fb,0.044,0.044,1,32,194,70,1,fourtwo,,,,,,,,,,,,,,,,,,,,,,,,,,,,,,,,,,,,,,,,,,,,,,,,,,,,,,,,,,,,,,,,,,,,,,,,,,,,,,,,,,,,,,,,,,,,,,,,,,,,,,,,,,,,,,,,,,,,,,,,,,,,,,,,,,,,,,,,,
,,60317e6dc44c7f0fdfc91e66,2024-02-19_10h17.27.548,kallum_motion_pilot,2023.2.2,Win32,58.82352941,60317e6dc44c7f0fdfc91e66,65d2b6c8f2eece985d8e374c,65d2ba0ff2cdb579bb1760fb,0.044,0.044,1,33,195,64,1,onetwo,,,,,,,,,,,,,,,,,,,,,,,,,,,,,,,,,,,,,,,,,,,,,,,,,,,,,,,,,,,,,,,,,,,,,,,,,,,,,,,,,,,,,,,,,,,,,,,,,,,,,,,,,,,,,,,,,,,,,,,,,,,,,,,,,,,,,,,,,
,,60317e6dc44c7f0fdfc91e66,2024-02-19_10h17.27.548,kallum_motion_pilot,2023.2.2,Win32,58.82352941,60317e6dc44c7f0fdfc91e66,65d2b6c8f2eece985d8e374c,65d2ba0ff2cdb579bb1760fb,0.044,0.044,1,34,196,130,1,sixfive,,,,,,,,,,,,,,,,,,,,,,,,,,,,,,,,,,,,,,,,,,,,,,,,,,,,,,,,,,,,,,,,,,,,,,,,,,,,,,,,,,,,,,,,,,,,,,,,,,,,,,,,,,,,,,,,,,,,,,,,,,,,,,,,,,,,,,,,,
,,60317e6dc44c7f0fdfc91e66,2024-02-19_10h17.27.548,kallum_motion_pilot,2023.2.2,Win32,58.82352941,60317e6dc44c7f0fdfc91e66,65d2b6c8f2eece985d8e374c,65d2ba0ff2cdb579bb1760fb,0.044,0.044,1,35,197,1,1,onethree,,,,,,,,,,,,,,,,,,,,,,,,,,,,,,,,,,,,,,,,,,,,,,,,,,,,,,,,,,,,,,,,,,,,,,,,,,,,,,,,,,,,,,,,,,,,,,,,,,,,,,,,,,,,,,,,,,,,,,,,,,,,,,,,,,,,,,,,,
,,60317e6dc44c7f0fdfc91e66,2024-02-19_10h17.27.548,kallum_motion_pilot,2023.2.2,Win32,58.82352941,60317e6dc44c7f0fdfc91e66,65d2b6c8f2eece985d8e374c,65d2ba0ff2cdb579bb1760fb,0.044,0.044,1,36,198,112,1,fivesix,,,,,,,,,,,,,,,,,,,,,,,,,,,,,,,,,,,,,,,,,,,,,,,,,,,,,,,,,,,,,,,,,,,,,,,,,,,,,,,,,,,,,,,,,,,,,,,,,,,,,,,,,,,,,,,,,,,,,,,,,,,,,,,,,,,,,,,,,
,,60317e6dc44c7f0fdfc91e66,2024-02-19_10h17.27.548,kallum_motion_pilot,2023.2.2,Win32,58.82352941,60317e6dc44c7f0fdfc91e66,65d2b6c8f2eece985d8e374c,65d2ba0ff2cdb579bb1760fb,0.044,0.044,1,37,199,136,1,fivesix,,,,,,,,,,,,,,,,,,,,,,,,,,,,,,,,,,,,,,,,,,,,,,,,,,,,,,,,,,,,,,,,,,,,,,,,,,,,,,,,,,,,,,,,,,,,,,,,,,,,,,,,,,,,,,,,,,,,,,,,,,,,,,,,,,,,,,,,,
,,60317e6dc44c7f0fdfc91e66,2024-02-19_10h17.27.548,kallum_motion_pilot,2023.2.2,Win32,58.82352941,60317e6dc44c7f0fdfc91e66,65d2b6c8f2eece985d8e374c,65d2ba0ff2cdb579bb1760fb,0.044,0.044,1,38,200,123,1,sixeight,,,,,,,,,,,,,,,,,,,,,,,,,,,,,,,,,,,,,,,,,,,,,,,,,,,,,,,,,,,,,,,,,,,,,,,,,,,,,,,,,,,,,,,,,,,,,,,,,,,,,,,,,,,,,,,,,,,,,,,,,,,,,,,,,,,,,,,,,
,,60317e6dc44c7f0fdfc91e66,2024-02-19_10h17.27.548,kallum_motion_pilot,2023.2.2,Win32,58.82352941,60317e6dc44c7f0fdfc91e66,65d2b6c8f2eece985d8e374c,65d2ba0ff2cdb579bb1760fb,0.044,0.044,1,39,201,143,1,eightseven,,,,,,,,,,,,,,,,,,,,,,,,,,,,,,,,,,,,,,,,,,,,,,,,,,,,,,,,,,,,,,,,,,,,,,,,,,,,,,,,,,,,,,,,,,,,,,,,,,,,,,,,,,,,,,,,,,,,,,,,,,,,,,,,,,,,,,,,,
,,60317e6dc44c7f0fdfc91e66,2024-02-19_10h17.27.548,kallum_motion_pilot,2023.2.2,Win32,58.82352941,60317e6dc44c7f0fdfc91e66,65d2b6c8f2eece985d8e374c,65d2ba0ff2cdb579bb1760fb,0.044,0.045,1,40,202,58,1,twoone,,,,,,,,,,,,,,,,,,,,,,,,,,,,,,,,,,,,,,,,,,,,,,,,,,,,,,,,,,,,,,,,,,,,,,,,,,,,,,,,,,,,,,,,,,,,,,,,,,,,,,,,,,,,,,,,,,,,,,,,,,,,,,,,,,,,,,,,,
,,60317e6dc44c7f0fdfc91e66,2024-02-19_10h17.27.548,kallum_motion_pilot,2023.2.2,Win32,58.82352941,60317e6dc44c7f0fdfc91e66,65d2b6c8f2eece985d8e374c,65d2ba0ff2cdb579bb1760fb,0.045,0.045,1,41,203,96,1,fivesix,,,,,,,,,,,,,,,,,,,,,,,,,,,,,,,,,,,,,,,,,,,,,,,,,,,,,,,,,,,,,,,,,,,,,,,,,,,,,,,,,,,,,,,,,,,,,,,,,,,,,,,,,,,,,,,,,,,,,,,,,,,,,,,,,,,,,,,,,
,,60317e6dc44c7f0fdfc91e66,2024-02-19_10h17.27.548,kallum_motion_pilot,2023.2.2,Win32,58.82352941,60317e6dc44c7f0fdfc91e66,65d2b6c8f2eece985d8e374c,65d2ba0ff2cdb579bb1760fb,0.045,0.045,1,42,204,95,1,eightseven,,,,,,,,,,,,,,,,,,,,,,,,,,,,,,,,,,,,,,,,,,,,,,,,,,,,,,,,,,,,,,,,,,,,,,,,,,,,,,,,,,,,,,,,,,,,,,,,,,,,,,,,,,,,,,,,,,,,,,,,,,,,,,,,,,,,,,,,,
,,60317e6dc44c7f0fdfc91e66,2024-02-19_10h17.27.548,kallum_motion_pilot,2023.2.2,Win32,58.82352941,60317e6dc44c7f0fdfc91e66,65d2b6c8f2eece985d8e374c,65d2ba0ff2cdb579bb1760fb,0.045,0.045,1,43,205,32,1,onetwo,,,,,,,,,,,,,,,,,,,,,,,,,,,,,,,,,,,,,,,,,,,,,,,,,,,,,,,,,,,,,,,,,,,,,,,,,,,,,,,,,,,,,,,,,,,,,,,,,,,,,,,,,,,,,,,,,,,,,,,,,,,,,,,,,,,,,,,,,
,,60317e6dc44c7f0fdfc91e66,2024-02-19_10h17.27.548,kallum_motion_pilot,2023.2.2,Win32,58.82352941,60317e6dc44c7f0fdfc91e66,65d2b6c8f2eece985d8e374c,65d2ba0ff2cdb579bb1760fb,0.045,0.046,1,44,206,8,1,onetwo,,,,,,,,,,,,,,,,,,,,,,,,,,,,,,,,,,,,,,,,,,,,,,,,,,,,,,,,,,,,,,,,,,,,,,,,,,,,,,,,,,,,,,,,,,,,,,,,,,,,,,,,,,,,,,,,,,,,,,,,,,,,,,,,,,,,,,,,,
,,60317e6dc44c7f0fdfc91e66,2024-02-19_10h17.27.548,kallum_motion_pilot,2023.2.2,Win32,58.82352941,60317e6dc44c7f0fdfc91e66,65d2b6c8f2eece985d8e374c,65d2ba0ff2cdb579bb1760fb,0.046,0.046,1,45,207,151,1,eightseven,,,,,,,,,,,,,,,,,,,,,,,,,,,,,,,,,,,,,,,,,,,,,,,,,,,,,,,,,,,,,,,,,,,,,,,,,,,,,,,,,,,,,,,,,,,,,,,,,,,,,,,,,,,,,,,,,,,,,,,,,,,,,,,,,,,,,,,,,
,,60317e6dc44c7f0fdfc91e66,2024-02-19_10h17.27.548,kallum_motion_pilot,2023.2.2,Win32,58.82352941,60317e6dc44c7f0fdfc91e66,65d2b6c8f2eece985d8e374c,65d2ba0ff2cdb579bb1760fb,0.046,0.046,1,46,208,88,1,fivesix,,,,,,,,,,,,,,,,,,,,,,,,,,,,,,,,,,,,,,,,,,,,,,,,,,,,,,,,,,,,,,,,,,,,,,,,,,,,,,,,,,,,,,,,,,,,,,,,,,,,,,,,,,,,,,,,,,,,,,,,,,,,,,,,,,,,,,,,,
,,60317e6dc44c7f0fdfc91e66,2024-02-19_10h17.27.548,kallum_motion_pilot,2023.2.2,Win32,58.82352941,60317e6dc44c7f0fdfc91e66,65d2b6c8f2eece985d8e374c,65d2ba0ff2cdb579bb1760fb,0.046,0.046,1,47,209,83,1,sixeight,,,,,,,,,,,,,,,,,,,,,,,,,,,,,,,,,,,,,,,,,,,,,,,,,,,,,,,,,,,,,,,,,,,,,,,,,,,,,,,,,,,,,,,,,,,,,,,,,,,,,,,,,,,,,,,,,,,,,,,,,,,,,,,,,,,,,,,,,
,,60317e6dc44c7f0fdfc91e66,2024-02-19_10h17.27.548,kallum_motion_pilot,2023.2.2,Win32,58.82352941,60317e6dc44c7f0fdfc91e66,65d2b6c8f2eece985d8e374c,65d2ba0ff2cdb579bb1760fb,0.046,0.046,1,48,210,44,1,threeone,,,,,,,,,,,,,,,,,,,,,,,,,,,,,,,,,,,,,,,,,,,,,,,,,,,,,,,,,,,,,,,,,,,,,,,,,,,,,,,,,,,,,,,,,,,,,,,,,,,,,,,,,,,,,,,,,,,,,,,,,,,,,,,,,,,,,,,,,
,,60317e6dc44c7f0fdfc91e66,2024-02-19_10h17.27.548,kallum_motion_pilot,2023.2.2,Win32,58.82352941,60317e6dc44c7f0fdfc91e66,65d2b6c8f2eece985d8e374c,65d2ba0ff2cdb579bb1760fb,0.046,0.046,1,49,211,159,1,eightseven,,,,,,,,,,,,,,,,,,,,,,,,,,,,,,,,,,,,,,,,,,,,,,,,,,,,,,,,,,,,,,,,,,,,,,,,,,,,,,,,,,,,,,,,,,,,,,,,,,,,,,,,,,,,,,,,,,,,,,,,,,,,,,,,,,,,,,,,,
,,60317e6dc44c7f0fdfc91e66,2024-02-19_10h17.27.548,kallum_motion_pilot,2023.2.2,Win32,58.82352941,60317e6dc44c7f0fdfc91e66,65d2b6c8f2eece985d8e374c,65d2ba0ff2cdb579bb1760fb,0.046,0.046,1,50,212,150,1,eightsix,,,,,,,,,,,,,,,,,,,,,,,,,,,,,,,,,,,,,,,,,,,,,,,,,,,,,,,,,,,,,,,,,,,,,,,,,,,,,,,,,,,,,,,,,,,,,,,,,,,,,,,,,,,,,,,,,,,,,,,,,,,,,,,,,,,,,,,,,
,,60317e6dc44c7f0fdfc91e66,2024-02-19_10h17.27.548,kallum_motion_pilot,2023.2.2,Win32,58.82352941,60317e6dc44c7f0fdfc91e66,65d2b6c8f2eece985d8e374c,65d2ba0ff2cdb579bb1760fb,0.046,0.046,1,51,213,91,1,sixeight,,,,,,,,,,,,,,,,,,,,,,,,,,,,,,,,,,,,,,,,,,,,,,,,,,,,,,,,,,,,,,,,,,,,,,,,,,,,,,,,,,,,,,,,,,,,,,,,,,,,,,,,,,,,,,,,,,,,,,,,,,,,,,,,,,,,,,,,,
,,60317e6dc44c7f0fdfc91e66,2024-02-19_10h17.27.548,kallum_motion_pilot,2023.2.2,Win32,58.82352941,60317e6dc44c7f0fdfc91e66,65d2b6c8f2eece985d8e374c,65d2ba0ff2cdb579bb1760fb,0.046,0.046,1,52,214,35,1,twofour,,,,,,,,,,,,,,,,,,,,,,,,,,,,,,,,,,,,,,,,,,,,,,,,,,,,,,,,,,,,,,,,,,,,,,,,,,,,,,,,,,,,,,,,,,,,,,,,,,,,,,,,,,,,,,,,,,,,,,,,,,,,,,,,,,,,,,,,,
,,60317e6dc44c7f0fdfc91e66,2024-02-19_10h17.27.548,kallum_motion_pilot,2023.2.2,Win32,58.82352941,60317e6dc44c7f0fdfc91e66,65d2b6c8f2eece985d8e374c,65d2ba0ff2cdb579bb1760fb,0.047,0.047,1,53,215,14,1,fourtwo,,,,,,,,,,,,,,,,,,,,,,,,,,,,,,,,,,,,,,,,,,,,,,,,,,,,,,,,,,,,,,,,,,,,,,,,,,,,,,,,,,,,,,,,,,,,,,,,,,,,,,,,,,,,,,,,,,,,,,,,,,,,,,,,,,,,,,,,,
,,60317e6dc44c7f0fdfc91e66,2024-02-19_10h17.27.548,kallum_motion_pilot,2023.2.2,Win32,58.82352941,60317e6dc44c7f0fdfc91e66,65d2b6c8f2eece985d8e374c,65d2ba0ff2cdb579bb1760fb,0.047,0.047,1,54,216,40,1,onetwo,,,,,,,,,,,,,,,,,,,,,,,,,,,,,,,,,,,,,,,,,,,,,,,,,,,,,,,,,,,,,,,,,,,,,,,,,,,,,,,,,,,,,,,,,,,,,,,,,,,,,,,,,,,,,,,,,,,,,,,,,,,,,,,,,,,,,,,,,
,,60317e6dc44c7f0fdfc91e66,2024-02-19_10h17.27.548,kallum_motion_pilot,2023.2.2,Win32,58.82352941,60317e6dc44c7f0fdfc91e66,65d2b6c8f2eece985d8e374c,65d2ba0ff2cdb579bb1760fb,0.047,0.047,1,55,217,97,1,fiveseven,,,,,,,,,,,,,,,,,,,,,,,,,,,,,,,,,,,,,,,,,,,,,,,,,,,,,,,,,,,,,,,,,,,,,,,,,,,,,,,,,,,,,,,,,,,,,,,,,,,,,,,,,,,,,,,,,,,,,,,,,,,,,,,,,,,,,,,,,
,,60317e6dc44c7f0fdfc91e66,2024-02-19_10h17.27.548,kallum_motion_pilot,2023.2.2,Win32,58.82352941,60317e6dc44c7f0fdfc91e66,65d2b6c8f2eece985d8e374c,65d2ba0ff2cdb579bb1760fb,0.047,0.047,1,56,218,85,1,seveneight,,,,,,,,,,,,,,,,,,,,,,,,,,,,,,,,,,,,,,,,,,,,,,,,,,,,,,,,,,,,,,,,,,,,,,,,,,,,,,,,,,,,,,,,,,,,,,,,,,,,,,,,,,,,,,,,,,,,,,,,,,,,,,,,,,,,,,,,,
,,60317e6dc44c7f0fdfc91e66,2024-02-19_10h17.27.548,kallum_motion_pilot,2023.2.2,Win32,58.82352941,60317e6dc44c7f0fdfc91e66,65d2b6c8f2eece985d8e374c,65d2ba0ff2cdb579bb1760fb,0.047,0.047,1,57,219,22,1,fourtwo,,,,,,,,,,,,,,,,,,,,,,,,,,,,,,,,,,,,,,,,,,,,,,,,,,,,,,,,,,,,,,,,,,,,,,,,,,,,,,,,,,,,,,,,,,,,,,,,,,,,,,,,,,,,,,,,,,,,,,,,,,,,,,,,,,,,,,,,,
,,60317e6dc44c7f0fdfc91e66,2024-02-19_10h17.27.548,kallum_motion_pilot,2023.2.2,Win32,58.82352941,60317e6dc44c7f0fdfc91e66,65d2b6c8f2eece985d8e374c,65d2ba0ff2cdb579bb1760fb,0.047,0.047,1,58,220,62,1,fourtwo,,,,,,,,,,,,,,,,,,,,,,,,,,,,,,,,,,,,,,,,,,,,,,,,,,,,,,,,,,,,,,,,,,,,,,,,,,,,,,,,,,,,,,,,,,,,,,,,,,,,,,,,,,,,,,,,,,,,,,,,,,,,,,,,,,,,,,,,,
,,60317e6dc44c7f0fdfc91e66,2024-02-19_10h17.27.548,kallum_motion_pilot,2023.2.2,Win32,58.82352941,60317e6dc44c7f0fdfc91e66,65d2b6c8f2eece985d8e374c,65d2ba0ff2cdb579bb1760fb,0.047,0.047,1,59,221,109,1,seveneight,,,,,,,,,,,,,,,,,,,,,,,,,,,,,,,,,,,,,,,,,,,,,,,,,,,,,,,,,,,,,,,,,,,,,,,,,,,,,,,,,,,,,,,,,,,,,,,,,,,,,,,,,,,,,,,,,,,,,,,,,,,,,,,,,,,,,,,,,
,,60317e6dc44c7f0fdfc91e66,2024-02-19_10h17.27.548,kallum_motion_pilot,2023.2.2,Win32,58.82352941,60317e6dc44c7f0fdfc91e66,65d2b6c8f2eece985d8e374c,65d2ba0ff2cdb579bb1760fb,0.047,0.047,1,60,222,147,1,sixeight,,,,,,,,,,,,,,,,,,,,,,,,,,,,,,,,,,,,,,,,,,,,,,,,,,,,,,,,,,,,,,,,,,,,,,,,,,,,,,,,,,,,,,,,,,,,,,,,,,,,,,,,,,,,,,,,,,,,,,,,,,,,,,,,,,,,,,,,,
,,60317e6dc44c7f0fdfc91e66,2024-02-19_10h17.27.548,kallum_motion_pilot,2023.2.2,Win32,58.82352941,60317e6dc44c7f0fdfc91e66,65d2b6c8f2eece985d8e374c,65d2ba0ff2cdb579bb1760fb,0.047,0.047,1,61,223,148,1,sevenfive,,,,,,,,,,,,,,,,,,,,,,,,,,,,,,,,,,,,,,,,,,,,,,,,,,,,,,,,,,,,,,,,,,,,,,,,,,,,,,,,,,,,,,,,,,,,,,,,,,,,,,,,,,,,,,,,,,,,,,,,,,,,,,,,,,,,,,,,,
,,60317e6dc44c7f0fdfc91e66,2024-02-19_10h17.27.548,kallum_motion_pilot,2023.2.2,Win32,58.82352941,60317e6dc44c7f0fdfc91e66,65d2b6c8f2eece985d8e374c,65d2ba0ff2cdb579bb1760fb,0.047,0.047,1,62,224,137,1,fiveseven,,,,,,,,,,,,,,,,,,,,,,,,,,,,,,,,,,,,,,,,,,,,,,,,,,,,,,,,,,,,,,,,,,,,,,,,,,,,,,,,,,,,,,,,,,,,,,,,,,,,,,,,,,,,,,,,,,,,,,,,,,,,,,,,,,,,,,,,,
,,60317e6dc44c7f0fdfc91e66,2024-02-19_10h17.27.548,kallum_motion_pilot,2023.2.2,Win32,58.82352941,60317e6dc44c7f0fdfc91e66,65d2b6c8f2eece985d8e374c,65d2ba0ff2cdb579bb1760fb,0.047,0.047,1,63,225,134,1,eightsix,,,,,,,,,,,,,,,,,,,,,,,,,,,,,,,,,,,,,,,,,,,,,,,,,,,,,,,,,,,,,,,,,,,,,,,,,,,,,,,,,,,,,,,,,,,,,,,,,,,,,,,,,,,,,,,,,,,,,,,,,,,,,,,,,,,,,,,,,
,,60317e6dc44c7f0fdfc91e66,2024-02-19_10h17.27.548,kallum_motion_pilot,2023.2.2,Win32,58.82352941,60317e6dc44c7f0fdfc91e66,65d2b6c8f2eece985d8e374c,65d2ba0ff2cdb579bb1760fb,0.047,0.047,1,64,226,141,1,seveneight,,,,,,,,,,,,,,,,,,,,,,,,,,,,,,,,,,,,,,,,,,,,,,,,,,,,,,,,,,,,,,,,,,,,,,,,,,,,,,,,,,,,,,,,,,,,,,,,,,,,,,,,,,,,,,,,,,,,,,,,,,,,,,,,,,,,,,,,,
,,60317e6dc44c7f0fdfc91e66,2024-02-19_10h17.27.548,kallum_motion_pilot,2023.2.2,Win32,58.82352941,60317e6dc44c7f0fdfc91e66,65d2b6c8f2eece985d8e374c,65d2ba0ff2cdb579bb1760fb,0.047,0.048,1,65,227,140,1,sevenfive,,,,,,,,,,,,,,,,,,,,,,,,,,,,,,,,,,,,,,,,,,,,,,,,,,,,,,,,,,,,,,,,,,,,,,,,,,,,,,,,,,,,,,,,,,,,,,,,,,,,,,,,,,,,,,,,,,,,,,,,,,,,,,,,,,,,,,,,,
,,60317e6dc44c7f0fdfc91e66,2024-02-19_10h17.27.548,kallum_motion_pilot,2023.2.2,Win32,58.82352941,60317e6dc44c7f0fdfc91e66,65d2b6c8f2eece985d8e374c,65d2ba0ff2cdb579bb1760fb,0.048,0.048,1,66,228,145,1,fiveseven,,,,,,,,,,,,,,,,,,,,,,,,,,,,,,,,,,,,,,,,,,,,,,,,,,,,,,,,,,,,,,,,,,,,,,,,,,,,,,,,,,,,,,,,,,,,,,,,,,,,,,,,,,,,,,,,,,,,,,,,,,,,,,,,,,,,,,,,,
,,60317e6dc44c7f0fdfc91e66,2024-02-19_10h17.27.548,kallum_motion_pilot,2023.2.2,Win32,58.82352941,60317e6dc44c7f0fdfc91e66,65d2b6c8f2eece985d8e374c,65d2ba0ff2cdb579bb1760fb,0.048,0.048,1,67,229,73,1,onethree,,,,,,,,,,,,,,,,,,,,,,,,,,,,,,,,,,,,,,,,,,,,,,,,,,,,,,,,,,,,,,,,,,,,,,,,,,,,,,,,,,,,,,,,,,,,,,,,,,,,,,,,,,,,,,,,,,,,,,,,,,,,,,,,,,,,,,,,,
,,60317e6dc44c7f0fdfc91e66,2024-02-19_10h17.27.548,kallum_motion_pilot,2023.2.2,Win32,58.82352941,60317e6dc44c7f0fdfc91e66,65d2b6c8f2eece985d8e374c,65d2ba0ff2cdb579bb1760fb,0.048,0.048,1,68,230,149,1,seveneight,,,,,,,,,,,,,,,,,,,,,,,,,,,,,,,,,,,,,,,,,,,,,,,,,,,,,,,,,,,,,,,,,,,,,,,,,,,,,,,,,,,,,,,,,,,,,,,,,,,,,,,,,,,,,,,,,,,,,,,,,,,,,,,,,,,,,,,,,
,,60317e6dc44c7f0fdfc91e66,2024-02-19_10h17.27.548,kallum_motion_pilot,2023.2.2,Win32,58.82352941,60317e6dc44c7f0fdfc91e66,65d2b6c8f2eece985d8e374c,65d2ba0ff2cdb579bb1760fb,0.048,0.048,1,69,231,104,1,fivesix,,,,,,,,,,,,,,,,,,,,,,,,,,,,,,,,,,,,,,,,,,,,,,,,,,,,,,,,,,,,,,,,,,,,,,,,,,,,,,,,,,,,,,,,,,,,,,,,,,,,,,,,,,,,,,,,,,,,,,,,,,,,,,,,,,,,,,,,,
,,60317e6dc44c7f0fdfc91e66,2024-02-19_10h17.27.548,kallum_motion_pilot,2023.2.2,Win32,58.82352941,60317e6dc44c7f0fdfc91e66,65d2b6c8f2eece985d8e374c,65d2ba0ff2cdb579bb1760fb,0.048,0.049,1,70,232,92,1,sevenfive,,,,,,,,,,,,,,,,,,,,,,,,,,,,,,,,,,,,,,,,,,,,,,,,,,,,,,,,,,,,,,,,,,,,,,,,,,,,,,,,,,,,,,,,,,,,,,,,,,,,,,,,,,,,,,,,,,,,,,,,,,,,,,,,,,,,,,,,,
,,60317e6dc44c7f0fdfc91e66,2024-02-19_10h17.27.548,kallum_motion_pilot,2023.2.2,Win32,58.82352941,60317e6dc44c7f0fdfc91e66,65d2b6c8f2eece985d8e374c,65d2ba0ff2cdb579bb1760fb,0.049,0.049,1,71,233,142,1,eightsix,,,,,,,,,,,,,,,,,,,,,,,,,,,,,,,,,,,,,,,,,,,,,,,,,,,,,,,,,,,,,,,,,,,,,,,,,,,,,,,,,,,,,,,,,,,,,,,,,,,,,,,,,,,,,,,,,,,,,,,,,,,,,,,,,,,,,,,,,
,,60317e6dc44c7f0fdfc91e66,2024-02-19_10h17.27.548,kallum_motion_pilot,2023.2.2,Win32,58.82352941,60317e6dc44c7f0fdfc91e66,65d2b6c8f2eece985d8e374c,65d2ba0ff2cdb579bb1760fb,0.049,0.049,1,72,234,38,1,fourtwo,,,,,,,,,,,,,,,,,,,,,,,,,,,,,,,,,,,,,,,,,,,,,,,,,,,,,,,,,,,,,,,,,,,,,,,,,,,,,,,,,,,,,,,,,,,,,,,,,,,,,,,,,,,,,,,,,,,,,,,,,,,,,,,,,,,,,,,,,
,,60317e6dc44c7f0fdfc91e66,2024-02-19_10h17.27.548,kallum_motion_pilot,2023.2.2,Win32,58.82352941,60317e6dc44c7f0fdfc91e66,65d2b6c8f2eece985d8e374c,65d2ba0ff2cdb579bb1760fb,0.049,0.049,1,73,235,87,1,eightseven,,,,,,,,,,,,,,,,,,,,,,,,,,,,,,,,,,,,,,,,,,,,,,,,,,,,,,,,,,,,,,,,,,,,,,,,,,,,,,,,,,,,,,,,,,,,,,,,,,,,,,,,,,,,,,,,,,,,,,,,,,,,,,,,,,,,,,,,,
,,60317e6dc44c7f0fdfc91e66,2024-02-19_10h17.27.548,kallum_motion_pilot,2023.2.2,Win32,58.82352941,60317e6dc44c7f0fdfc91e66,65d2b6c8f2eece985d8e374c,65d2ba0ff2cdb579bb1760fb,0.049,0.049,1,74,236,59,1,twofour,,,,,,,,,,,,,,,,,,,,,,,,,,,,,,,,,,,,,,,,,,,,,,,,,,,,,,,,,,,,,,,,,,,,,,,,,,,,,,,,,,,,,,,,,,,,,,,,,,,,,,,,,,,,,,,,,,,,,,,,,,,,,,,,,,,,,,,,,
,,60317e6dc44c7f0fdfc91e66,2024-02-19_10h17.27.548,kallum_motion_pilot,2023.2.2,Win32,58.82352941,60317e6dc44c7f0fdfc91e66,65d2b6c8f2eece985d8e374c,65d2ba0ff2cdb579bb1760fb,0.049,0.049,1,75,237,24,1,onetwo,,,,,,,,,,,,,,,,,,,,,,,,,,,,,,,,,,,,,,,,,,,,,,,,,,,,,,,,,,,,,,,,,,,,,,,,,,,,,,,,,,,,,,,,,,,,,,,,,,,,,,,,,,,,,,,,,,,,,,,,,,,,,,,,,,,,,,,,,
,,60317e6dc44c7f0fdfc91e66,2024-02-19_10h17.27.548,kallum_motion_pilot,2023.2.2,Win32,58.82352941,60317e6dc44c7f0fdfc91e66,65d2b6c8f2eece985d8e374c,65d2ba0ff2cdb579bb1760fb,0.049,0.049,1,76,238,41,1,onethree,,,,,,,,,,,,,,,,,,,,,,,,,,,,,,,,,,,,,,,,,,,,,,,,,,,,,,,,,,,,,,,,,,,,,,,,,,,,,,,,,,,,,,,,,,,,,,,,,,,,,,,,,,,,,,,,,,,,,,,,,,,,,,,,,,,,,,,,,
,,60317e6dc44c7f0fdfc91e66,2024-02-19_10h17.27.548,kallum_motion_pilot,2023.2.2,Win32,58.82352941,60317e6dc44c7f0fdfc91e66,65d2b6c8f2eece985d8e374c,65d2ba0ff2cdb579bb1760fb,0.049,0.049,1,77,239,4,1,threeone,,,,,,,,,,,,,,,,,,,,,,,,,,,,,,,,,,,,,,,,,,,,,,,,,,,,,,,,,,,,,,,,,,,,,,,,,,,,,,,,,,,,,,,,,,,,,,,,,,,,,,,,,,,,,,,,,,,,,,,,,,,,,,,,,,,,,,,,,
,,60317e6dc44c7f0fdfc91e66,2024-02-19_10h17.27.548,kallum_motion_pilot,2023.2.2,Win32,58.82352941,60317e6dc44c7f0fdfc91e66,65d2b6c8f2eece985d8e374c,65d2ba0ff2cdb579bb1760fb,0.049,0.049,1,78,240,119,1,eightseven,,,,,,,,,,,,,,,,,,,,,,,,,,,,,,,,,,,,,,,,,,,,,,,,,,,,,,,,,,,,,,,,,,,,,,,,,,,,,,,,,,,,,,,,,,,,,,,,,,,,,,,,,,,,,,,,,,,,,,,,,,,,,,,,,,,,,,,,,
,,60317e6dc44c7f0fdfc91e66,2024-02-19_10h17.27.548,kallum_motion_pilot,2023.2.2,Win32,58.82352941,60317e6dc44c7f0fdfc91e66,65d2b6c8f2eece985d8e374c,65d2ba0ff2cdb579bb1760fb,0.049,0.049,1,79,241,98,1,sixfive,,,,,,,,,,,,,,,,,,,,,,,,,,,,,,,,,,,,,,,,,,,,,,,,,,,,,,,,,,,,,,,,,,,,,,,,,,,,,,,,,,,,,,,,,,,,,,,,,,,,,,,,,,,,,,,,,,,,,,,,,,,,,,,,,,,,,,,,,
,,60317e6dc44c7f0fdfc91e66,2024-02-19_10h17.27.548,kallum_motion_pilot,2023.2.2,Win32,58.82352941,60317e6dc44c7f0fdfc91e66,65d2b6c8f2eece985d8e374c,65d2ba0ff2cdb579bb1760fb,0.049,0.049,1,80,242,50,1,twoone,,,,,,,,,,,,,,,,,,,,,,,,,,,,,,,,,,,,,,,,,,,,,,,,,,,,,,,,,,,,,,,,,,,,,,,,,,,,,,,,,,,,,,,,,,,,,,,,,,,,,,,,,,,,,,,,,,,,,,,,,,,,,,,,,,,,,,,,,
,,60317e6dc44c7f0fdfc91e66,2024-02-19_10h17.27.548,kallum_motion_pilot,2023.2.2,Win32,58.82352941,60317e6dc44c7f0fdfc91e66,65d2b6c8f2eece985d8e374c,65d2ba0ff2cdb579bb1760fb,0.049,0.049,1,81,243,10,1,twoone,,,,,,,,,,,,,,,,,,,,,,,,,,,,,,,,,,,,,,,,,,,,,,,,,,,,,,,,,,,,,,,,,,,,,,,,,,,,,,,,,,,,,,,,,,,,,,,,,,,,,,,,,,,,,,,,,,,,,,,,,,,,,,,,,,,,,,,,,
,,60317e6dc44c7f0fdfc91e66,2024-02-19_10h17.27.548,kallum_motion_pilot,2023.2.2,Win32,58.82352941,60317e6dc44c7f0fdfc91e66,65d2b6c8f2eece985d8e374c,65d2ba0ff2cdb579bb1760fb,0.049,0.05,1,82,244,52,1,threeone,,,,,,,,,,,,,,,,,,,,,,,,,,,,,,,,,,,,,,,,,,,,,,,,,,,,,,,,,,,,,,,,,,,,,,,,,,,,,,,,,,,,,,,,,,,,,,,,,,,,,,,,,,,,,,,,,,,,,,,,,,,,,,,,,,,,,,,,,
,,60317e6dc44c7f0fdfc91e66,2024-02-19_10h17.27.548,kallum_motion_pilot,2023.2.2,Win32,58.82352941,60317e6dc44c7f0fdfc91e66,65d2b6c8f2eece985d8e374c,65d2ba0ff2cdb579bb1760fb,0.05,0.05,1,83,245,43,1,twofour,,,,,,,,,,,,,,,,,,,,,,,,,,,,,,,,,,,,,,,,,,,,,,,,,,,,,,,,,,,,,,,,,,,,,,,,,,,,,,,,,,,,,,,,,,,,,,,,,,,,,,,,,,,,,,,,,,,,,,,,,,,,,,,,,,,,,,,,,
,,60317e6dc44c7f0fdfc91e66,2024-02-19_10h17.27.548,kallum_motion_pilot,2023.2.2,Win32,58.82352941,60317e6dc44c7f0fdfc91e66,65d2b6c8f2eece985d8e374c,65d2ba0ff2cdb579bb1760fb,0.05,0.05,1,84,246,129,1,fiveseven,,,,,,,,,,,,,,,,,,,,,,,,,,,,,,,,,,,,,,,,,,,,,,,,,,,,,,,,,,,,,,,,,,,,,,,,,,,,,,,,,,,,,,,,,,,,,,,,,,,,,,,,,,,,,,,,,,,,,,,,,,,,,,,,,,,,,,,,,
,,60317e6dc44c7f0fdfc91e66,2024-02-19_10h17.27.548,kallum_motion_pilot,2023.2.2,Win32,58.82352941,60317e6dc44c7f0fdfc91e66,65d2b6c8f2eece985d8e374c,65d2ba0ff2cdb579bb1760fb,0.05,0.05,1,85,247,110,1,eightsix,,,,,,,,,,,,,,,,,,,,,,,,,,,,,,,,,,,,,,,,,,,,,,,,,,,,,,,,,,,,,,,,,,,,,,,,,,,,,,,,,,,,,,,,,,,,,,,,,,,,,,,,,,,,,,,,,,,,,,,,,,,,,,,,,,,,,,,,,
,,60317e6dc44c7f0fdfc91e66,2024-02-19_10h17.27.548,kallum_motion_pilot,2023.2.2,Win32,58.82352941,60317e6dc44c7f0fdfc91e66,65d2b6c8f2eece985d8e374c,65d2ba0ff2cdb579bb1760fb,0.05,0.05,1,86,248,21,1,threefour,,,,,,,,,,,,,,,,,,,,,,,,,,,,,,,,,,,,,,,,,,,,,,,,,,,,,,,,,,,,,,,,,,,,,,,,,,,,,,,,,,,,,,,,,,,,,,,,,,,,,,,,,,,,,,,,,,,,,,,,,,,,,,,,,,,,,,,,,
,,60317e6dc44c7f0fdfc91e66,2024-02-19_10h17.27.548,kallum_motion_pilot,2023.2.2,Win32,58.82352941,60317e6dc44c7f0fdfc91e66,65d2b6c8f2eece985d8e374c,65d2ba0ff2cdb579bb1760fb,0.05,0.05,1,87,249,125,1,seveneight,,,,,,,,,,,,,,,,,,,,,,,,,,,,,,,,,,,,,,,,,,,,,,,,,,,,,,,,,,,,,,,,,,,,,,,,,,,,,,,,,,,,,,,,,,,,,,,,,,,,,,,,,,,,,,,,,,,,,,,,,,,,,,,,,,,,,,,,,
,,60317e6dc44c7f0fdfc91e66,2024-02-19_10h17.27.548,kallum_motion_pilot,2023.2.2,Win32,58.82352941,60317e6dc44c7f0fdfc91e66,65d2b6c8f2eece985d8e374c,65d2ba0ff2cdb579bb1760fb,0.05,0.05,1,88,250,107,1,sixeight,,,,,,,,,,,,,,,,,,,,,,,,,,,,,,,,,,,,,,,,,,,,,,,,,,,,,,,,,,,,,,,,,,,,,,,,,,,,,,,,,,,,,,,,,,,,,,,,,,,,,,,,,,,,,,,,,,,,,,,,,,,,,,,,,,,,,,,,,
,,60317e6dc44c7f0fdfc91e66,2024-02-19_10h17.27.548,kallum_motion_pilot,2023.2.2,Win32,58.82352941,60317e6dc44c7f0fdfc91e66,65d2b6c8f2eece985d8e374c,65d2ba0ff2cdb579bb1760fb,0.05,0.05,1,89,251,93,1,seveneight,,,,,,,,,,,,,,,,,,,,,,,,,,,,,,,,,,,,,,,,,,,,,,,,,,,,,,,,,,,,,,,,,,,,,,,,,,,,,,,,,,,,,,,,,,,,,,,,,,,,,,,,,,,,,,,,,,,,,,,,,,,,,,,,,,,,,,,,,
,,60317e6dc44c7f0fdfc91e66,2024-02-19_10h17.27.548,kallum_motion_pilot,2023.2.2,Win32,58.82352941,60317e6dc44c7f0fdfc91e66,65d2b6c8f2eece985d8e374c,65d2ba0ff2cdb579bb1760fb,0.05,0.05,1,90,252,135,1,eightseven,,,,,,,,,,,,,,,,,,,,,,,,,,,,,,,,,,,,,,,,,,,,,,,,,,,,,,,,,,,,,,,,,,,,,,,,,,,,,,,,,,,,,,,,,,,,,,,,,,,,,,,,,,,,,,,,,,,,,,,,,,,,,,,,,,,,,,,,,
,,60317e6dc44c7f0fdfc91e66,2024-02-19_10h17.27.548,kallum_motion_pilot,2023.2.2,Win32,58.82352941,60317e6dc44c7f0fdfc91e66,65d2b6c8f2eece985d8e374c,65d2ba0ff2cdb579bb1760fb,0.051,0.051,1,91,253,0,1,onetwo,,,,,,,,,,,,,,,,,,,,,,,,,,,,,,,,,,,,,,,,,,,,,,,,,,,,,,,,,,,,,,,,,,,,,,,,,,,,,,,,,,,,,,,,,,,,,,,,,,,,,,,,,,,,,,,,,,,,,,,,,,,,,,,,,,,,,,,,,
,,60317e6dc44c7f0fdfc91e66,2024-02-19_10h17.27.548,kallum_motion_pilot,2023.2.2,Win32,58.82352941,60317e6dc44c7f0fdfc91e66,65d2b6c8f2eece985d8e374c,65d2ba0ff2cdb579bb1760fb,0.051,0.051,1,92,254,31,1,fourthree,,,,,,,,,,,,,,,,,,,,,,,,,,,,,,,,,,,,,,,,,,,,,,,,,,,,,,,,,,,,,,,,,,,,,,,,,,,,,,,,,,,,,,,,,,,,,,,,,,,,,,,,,,,,,,,,,,,,,,,,,,,,,,,,,,,,,,,,,
,,60317e6dc44c7f0fdfc91e66,2024-02-19_10h17.27.548,kallum_motion_pilot,2023.2.2,Win32,58.82352941,60317e6dc44c7f0fdfc91e66,65d2b6c8f2eece985d8e374c,65d2ba0ff2cdb579bb1760fb,0.051,0.051,1,93,255,57,1,onethree,,,,,,,,,,,,,,,,,,,,,,,,,,,,,,,,,,,,,,,,,,,,,,,,,,,,,,,,,,,,,,,,,,,,,,,,,,,,,,,,,,,,,,,,,,,,,,,,,,,,,,,,,,,,,,,,,,,,,,,,,,,,,,,,,,,,,,,,,
,,60317e6dc44c7f0fdfc91e66,2024-02-19_10h17.27.548,kallum_motion_pilot,2023.2.2,Win32,58.82352941,60317e6dc44c7f0fdfc91e66,65d2b6c8f2eece985d8e374c,65d2ba0ff2cdb579bb1760fb,0.051,0.051,1,94,256,19,1,twofour,,,,,,,,,,,,,,,,,,,,,,,,,,,,,,,,,,,,,,,,,,,,,,,,,,,,,,,,,,,,,,,,,,,,,,,,,,,,,,,,,,,,,,,,,,,,,,,,,,,,,,,,,,,,,,,,,,,,,,,,,,,,,,,,,,,,,,,,,
,,60317e6dc44c7f0fdfc91e66,2024-02-19_10h17.27.548,kallum_motion_pilot,2023.2.2,Win32,58.82352941,60317e6dc44c7f0fdfc91e66,65d2b6c8f2eece985d8e374c,65d2ba0ff2cdb579bb1760fb,0.051,0.052,1,95,257,20,1,threeone,,,,,,,,,,,,,,,,,,,,,,,,,,,,,,,,,,,,,,,,,,,,,,,,,,,,,,,,,,,,,,,,,,,,,,,,,,,,,,,,,,,,,,,,,,,,,,,,,,,,,,,,,,,,,,,,,,,,,,,,,,,,,,,,,,,,,,,,,
,,60317e6dc44c7f0fdfc91e66,2024-02-19_10h17.27.548,kallum_motion_pilot,2023.2.2,Win32,58.82352941,60317e6dc44c7f0fdfc91e66,65d2b6c8f2eece985d8e374c,65d2ba0ff2cdb579bb1760fb,0.052,0.052,1,96,258,117,1,seveneight,,,,,,,,,,,,,,,,,,,,,,,,,,,,,,,,,,,,,,,,,,,,,,,,,,,,,,,,,,,,,,,,,,,,,,,,,,,,,,,,,,,,,,,,,,,,,,,,,,,,,,,,,,,,,,,,,,,,,,,,,,,,,,,,,,,,,,,,,
,,60317e6dc44c7f0fdfc91e66,2024-02-19_10h17.27.548,kallum_motion_pilot,2023.2.2,Win32,58.82352941,60317e6dc44c7f0fdfc91e66,65d2b6c8f2eece985d8e374c,65d2ba0ff2cdb579bb1760fb,0.052,0.052,1,97,259,29,1,threefour,,,,,,,,,,,,,,,,,,,,,,,,,,,,,,,,,,,,,,,,,,,,,,,,,,,,,,,,,,,,,,,,,,,,,,,,,,,,,,,,,,,,,,,,,,,,,,,,,,,,,,,,,,,,,,,,,,,,,,,,,,,,,,,,,,,,,,,,,
,,60317e6dc44c7f0fdfc91e66,2024-02-19_10h17.27.548,kallum_motion_pilot,2023.2.2,Win32,58.82352941,60317e6dc44c7f0fdfc91e66,65d2b6c8f2eece985d8e374c,65d2ba0ff2cdb579bb1760fb,0.052,0.052,1,98,260,120,1,fivesix,,,,,,,,,,,,,,,,,,,,,,,,,,,,,,,,,,,,,,,,,,,,,,,,,,,,,,,,,,,,,,,,,,,,,,,,,,,,,,,,,,,,,,,,,,,,,,,,,,,,,,,,,,,,,,,,,,,,,,,,,,,,,,,,,,,,,,,,,
,,60317e6dc44c7f0fdfc91e66,2024-02-19_10h17.27.548,kallum_motion_pilot,2023.2.2,Win32,58.82352941,60317e6dc44c7f0fdfc91e66,65d2b6c8f2eece985d8e374c,65d2ba0ff2cdb579bb1760fb,0.052,0.052,1,99,261,81,1,fiveseven,,,,,,,,,,,,,,,,,,,,,,,,,,,,,,,,,,,,,,,,,,,,,,,,,,,,,,,,,,,,,,,,,,,,,,,,,,,,,,,,,,,,,,,,,,,,,,,,,,,,,,,,,,,,,,,,,,,,,,,,,,,,,,,,,,,,,,,,,
,,60317e6dc44c7f0fdfc91e66,2024-02-19_10h17.27.548,kallum_motion_pilot,2023.2.2,Win32,58.82352941,60317e6dc44c7f0fdfc91e66,65d2b6c8f2eece985d8e374c,65d2ba0ff2cdb579bb1760fb,0.052,0.052,1,100,262,127,1,eightseven,,,,,,,,,,,,,,,,,,,,,,,,,,,,,,,,,,,,,,,,,,,,,,,,,,,,,,,,,,,,,,,,,,,,,,,,,,,,,,,,,,,,,,,,,,,,,,,,,,,,,,,,,,,,,,,,,,,,,,,,,,,,,,,,,,,,,,,,,
,,60317e6dc44c7f0fdfc91e66,2024-02-19_10h17.27.548,kallum_motion_pilot,2023.2.2,Win32,58.82352941,60317e6dc44c7f0fdfc91e66,65d2b6c8f2eece985d8e374c,65d2ba0ff2cdb579bb1760fb,0.052,0.052,1,101,263,75,1,twofour,,,,,,,,,,,,,,,,,,,,,,,,,,,,,,,,,,,,,,,,,,,,,,,,,,,,,,,,,,,,,,,,,,,,,,,,,,,,,,,,,,,,,,,,,,,,,,,,,,,,,,,,,,,,,,,,,,,,,,,,,,,,,,,,,,,,,,,,,
,,60317e6dc44c7f0fdfc91e66,2024-02-19_10h17.27.548,kallum_motion_pilot,2023.2.2,Win32,58.82352941,60317e6dc44c7f0fdfc91e66,65d2b6c8f2eece985d8e374c,65d2ba0ff2cdb579bb1760fb,0.052,0.052,1,102,264,2,1,twoone,,,,,,,,,,,,,,,,,,,,,,,,,,,,,,,,,,,,,,,,,,,,,,,,,,,,,,,,,,,,,,,,,,,,,,,,,,,,,,,,,,,,,,,,,,,,,,,,,,,,,,,,,,,,,,,,,,,,,,,,,,,,,,,,,,,,,,,,,
,,60317e6dc44c7f0fdfc91e66,2024-02-19_10h17.27.548,kallum_motion_pilot,2023.2.2,Win32,58.82352941,60317e6dc44c7f0fdfc91e66,65d2b6c8f2eece985d8e374c,65d2ba0ff2cdb579bb1760fb,0.052,0.052,1,103,265,9,1,onethree,,,,,,,,,,,,,,,,,,,,,,,,,,,,,,,,,,,,,,,,,,,,,,,,,,,,,,,,,,,,,,,,,,,,,,,,,,,,,,,,,,,,,,,,,,,,,,,,,,,,,,,,,,,,,,,,,,,,,,,,,,,,,,,,,,,,,,,,,
,,60317e6dc44c7f0fdfc91e66,2024-02-19_10h17.27.548,kallum_motion_pilot,2023.2.2,Win32,58.82352941,60317e6dc44c7f0fdfc91e66,65d2b6c8f2eece985d8e374c,65d2ba0ff2cdb579bb1760fb,0.052,0.052,1,104,266,48,1,onetwo,,,,,,,,,,,,,,,,,,,,,,,,,,,,,,,,,,,,,,,,,,,,,,,,,,,,,,,,,,,,,,,,,,,,,,,,,,,,,,,,,,,,,,,,,,,,,,,,,,,,,,,,,,,,,,,,,,,,,,,,,,,,,,,,,,,,,,,,,
,,60317e6dc44c7f0fdfc91e66,2024-02-19_10h17.27.548,kallum_motion_pilot,2023.2.2,Win32,58.82352941,60317e6dc44c7f0fdfc91e66,65d2b6c8f2eece985d8e374c,65d2ba0ff2cdb579bb1760fb,0.053,0.053,1,105,267,39,1,fourthree,,,,,,,,,,,,,,,,,,,,,,,,,,,,,,,,,,,,,,,,,,,,,,,,,,,,,,,,,,,,,,,,,,,,,,,,,,,,,,,,,,,,,,,,,,,,,,,,,,,,,,,,,,,,,,,,,,,,,,,,,,,,,,,,,,,,,,,,,
,,60317e6dc44c7f0fdfc91e66,2024-02-19_10h17.27.548,kallum_motion_pilot,2023.2.2,Win32,58.82352941,60317e6dc44c7f0fdfc91e66,65d2b6c8f2eece985d8e374c,65d2ba0ff2cdb579bb1760fb,0.053,0.053,1,106,268,72,1,onetwo,,,,,,,,,,,,,,,,,,,,,,,,,,,,,,,,,,,,,,,,,,,,,,,,,,,,,,,,,,,,,,,,,,,,,,,,,,,,,,,,,,,,,,,,,,,,,,,,,,,,,,,,,,,,,,,,,,,,,,,,,,,,,,,,,,,,,,,,,
,,60317e6dc44c7f0fdfc91e66,2024-02-19_10h17.27.548,kallum_motion_pilot,2023.2.2,Win32,58.82352941,60317e6dc44c7f0fdfc91e66,65d2b6c8f2eece985d8e374c,65d2ba0ff2cdb579bb1760fb,0.053,0.053,1,107,269,114,1,sixfive,,,,,,,,,,,,,,,,,,,,,,,,,,,,,,,,,,,,,,,,,,,,,,,,,,,,,,,,,,,,,,,,,,,,,,,,,,,,,,,,,,,,,,,,,,,,,,,,,,,,,,,,,,,,,,,,,,,,,,,,,,,,,,,,,,,,,,,,,
,,60317e6dc44c7f0fdfc91e66,2024-02-19_10h17.27.548,kallum_motion_pilot,2023.2.2,Win32,58.82352941,60317e6dc44c7f0fdfc91e66,65d2b6c8f2eece985d8e374c,65d2ba0ff2cdb579bb1760fb,0.053,0.053,1,108,270,115,1,sixeight,,,,,,,,,,,,,,,,,,,,,,,,,,,,,,,,,,,,,,,,,,,,,,,,,,,,,,,,,,,,,,,,,,,,,,,,,,,,,,,,,,,,,,,,,,,,,,,,,,,,,,,,,,,,,,,,,,,,,,,,,,,,,,,,,,,,,,,,,
,,60317e6dc44c7f0fdfc91e66,2024-02-19_10h17.27.548,kallum_motion_pilot,2023.2.2,Win32,58.82352941,60317e6dc44c7f0fdfc91e66,65d2b6c8f2eece985d8e374c,65d2ba0ff2cdb579bb1760fb,0.053,0.053,1,109,271,160,1,fivesix,,,,,,,,,,,,,,,,,,,,,,,,,,,,,,,,,,,,,,,,,,,,,,,,,,,,,,,,,,,,,,,,,,,,,,,,,,,,,,,,,,,,,,,,,,,,,,,,,,,,,,,,,,,,,,,,,,,,,,,,,,,,,,,,,,,,,,,,,
,,60317e6dc44c7f0fdfc91e66,2024-02-19_10h17.27.548,kallum_motion_pilot,2023.2.2,Win32,58.82352941,60317e6dc44c7f0fdfc91e66,65d2b6c8f2eece985d8e374c,65d2ba0ff2cdb579bb1760fb,0.053,0.053,1,110,272,116,1,sevenfive,,,,,,,,,,,,,,,,,,,,,,,,,,,,,,,,,,,,,,,,,,,,,,,,,,,,,,,,,,,,,,,,,,,,,,,,,,,,,,,,,,,,,,,,,,,,,,,,,,,,,,,,,,,,,,,,,,,,,,,,,,,,,,,,,,,,,,,,,
,,60317e6dc44c7f0fdfc91e66,2024-02-19_10h17.27.548,kallum_motion_pilot,2023.2.2,Win32,58.82352941,60317e6dc44c7f0fdfc91e66,65d2b6c8f2eece985d8e374c,65d2ba0ff2cdb579bb1760fb,0.053,0.053,1,111,273,133,1,seveneight,,,,,,,,,,,,,,,,,,,,,,,,,,,,,,,,,,,,,,,,,,,,,,,,,,,,,,,,,,,,,,,,,,,,,,,,,,,,,,,,,,,,,,,,,,,,,,,,,,,,,,,,,,,,,,,,,,,,,,,,,,,,,,,,,,,,,,,,,
,,60317e6dc44c7f0fdfc91e66,2024-02-19_10h17.27.548,kallum_motion_pilot,2023.2.2,Win32,58.82352941,60317e6dc44c7f0fdfc91e66,65d2b6c8f2eece985d8e374c,65d2ba0ff2cdb579bb1760fb,0.053,0.054,1,112,274,46,1,fourtwo,,,,,,,,,,,,,,,,,,,,,,,,,,,,,,,,,,,,,,,,,,,,,,,,,,,,,,,,,,,,,,,,,,,,,,,,,,,,,,,,,,,,,,,,,,,,,,,,,,,,,,,,,,,,,,,,,,,,,,,,,,,,,,,,,,,,,,,,,
,,60317e6dc44c7f0fdfc91e66,2024-02-19_10h17.27.548,kallum_motion_pilot,2023.2.2,Win32,58.82352941,60317e6dc44c7f0fdfc91e66,65d2b6c8f2eece985d8e374c,65d2ba0ff2cdb579bb1760fb,0.054,0.054,1,113,275,71,1,fourthree,,,,,,,,,,,,,,,,,,,,,,,,,,,,,,,,,,,,,,,,,,,,,,,,,,,,,,,,,,,,,,,,,,,,,,,,,,,,,,,,,,,,,,,,,,,,,,,,,,,,,,,,,,,,,,,,,,,,,,,,,,,,,,,,,,,,,,,,,
,,60317e6dc44c7f0fdfc91e66,2024-02-19_10h17.27.548,kallum_motion_pilot,2023.2.2,Win32,58.82352941,60317e6dc44c7f0fdfc91e66,65d2b6c8f2eece985d8e374c,65d2ba0ff2cdb579bb1760fb,0.054,0.054,1,114,276,28,1,threeone,,,,,,,,,,,,,,,,,,,,,,,,,,,,,,,,,,,,,,,,,,,,,,,,,,,,,,,,,,,,,,,,,,,,,,,,,,,,,,,,,,,,,,,,,,,,,,,,,,,,,,,,,,,,,,,,,,,,,,,,,,,,,,,,,,,,,,,,,
,,60317e6dc44c7f0fdfc91e66,2024-02-19_10h17.27.548,kallum_motion_pilot,2023.2.2,Win32,58.82352941,60317e6dc44c7f0fdfc91e66,65d2b6c8f2eece985d8e374c,65d2ba0ff2cdb579bb1760fb,0.054,0.054,1,115,277,45,1,threefour,,,,,,,,,,,,,,,,,,,,,,,,,,,,,,,,,,,,,,,,,,,,,,,,,,,,,,,,,,,,,,,,,,,,,,,,,,,,,,,,,,,,,,,,,,,,,,,,,,,,,,,,,,,,,,,,,,,,,,,,,,,,,,,,,,,,,,,,,
,,60317e6dc44c7f0fdfc91e66,2024-02-19_10h17.27.548,kallum_motion_pilot,2023.2.2,Win32,58.82352941,60317e6dc44c7f0fdfc91e66,65d2b6c8f2eece985d8e374c,65d2ba0ff2cdb579bb1760fb,0.055,0.055,1,116,278,152,1,fivesix,,,,,,,,,,,,,,,,,,,,,,,,,,,,,,,,,,,,,,,,,,,,,,,,,,,,,,,,,,,,,,,,,,,,,,,,,,,,,,,,,,,,,,,,,,,,,,,,,,,,,,,,,,,,,,,,,,,,,,,,,,,,,,,,,,,,,,,,,
,,60317e6dc44c7f0fdfc91e66,2024-02-19_10h17.27.548,kallum_motion_pilot,2023.2.2,Win32,58.82352941,60317e6dc44c7f0fdfc91e66,65d2b6c8f2eece985d8e374c,65d2ba0ff2cdb579bb1760fb,0.055,0.055,1,117,279,99,1,sixeight,,,,,,,,,,,,,,,,,,,,,,,,,,,,,,,,,,,,,,,,,,,,,,,,,,,,,,,,,,,,,,,,,,,,,,,,,,,,,,,,,,,,,,,,,,,,,,,,,,,,,,,,,,,,,,,,,,,,,,,,,,,,,,,,,,,,,,,,,
