startup.started,startup.stopped,Prolific ID*,date,expName,psychopyVersion,OS,frameRate,participant,study_id,session,stimpositions.started,stimpositions.stopped,hardcoded_stimulus_positions.thisRepN,hardcoded_stimulus_positions.thisTrialN,hardcoded_stimulus_positions.thisN,hardcoded_stimulus_positions.thisIndex,hardcoded_stimulus_positions.ran,StimulusPos,stimorientation.started,stimorientation.stopped,prac_stimorientation_import_loop.thisRepN,prac_stimorientation_import_loop.thisTrialN,prac_stimorientation_import_loop.thisN,prac_stimorientation_import_loop.thisIndex,prac_stimorientation_import_loop.ran,Stimorientation,welcome_instr.started,welcome_instr.stopped,key_resp.keys,key_resp.rt,key_resp.duration,response_steppedout_1.started,response_steppedout_1.stopped,key_resp_20.keys,key_resp_20.rt,key_resp_20.duration,response_steppedout_2.started,response_steppedout_2.stopped,key_resp_19.keys,key_resp_19.rt,key_resp_19.duration,stim_response_instr.started,stim_response_instr.stopped,key_resp_15.keys,key_resp_15.rt,key_resp_15.duration,direction_instr_2.started,direction_instr_2.stopped,key_resp_9.keys,key_resp_9.rt,key_resp_9.duration,instr_prac.started,instr_prac.stopped,key_resp_10.keys,key_resp_10.rt,key_resp_10.duration,Stim1_display_prac.started,Stim1_display_prac.stopped,Ecc,Circle1_ori,Circle2_ori,response_prac.started,similarity,response_time,response_prac.stopped,mouse_5.x,mouse_5.y,mouse_5.leftButton,mouse_5.midButton,mouse_5.rightButton,mouse_5.clicked_name,responseprac_feedback.started,responseprac_feedback.stopped,summary2_prac.started,summary2_prac.stopped,mouse_6.x,mouse_6.y,mouse_6.leftButton,mouse_6.midButton,mouse_6.rightButton,mouse_6.clicked_name,duringprac.thisRepN,duringprac.thisTrialN,duringprac.thisN,duringprac.thisIndex,duringprac.ran,begin.started,begin.stopped,key_resp_22.keys,key_resp_22.rt,key_resp_22.duration,Stim1_display.started,Stim1_display.stopped,circle1_ori,circle2_ori,circle1_SF,circle2_SF,response.started,response.stopped,mouse.x,mouse.y,mouse.leftButton,mouse.midButton,mouse.rightButton,mouse.clicked_name,trialnumber,double_pass.thisRepN,double_pass.thisTrialN,double_pass.thisN,double_pass.thisIndex,double_pass.ran,double_pass.order,main_trial.thisRepN,main_trial.thisTrialN,main_trial.thisN,main_trial.thisIndex,main_trial.ran,main_trial.order,Trial_Counter,Catch,Frequencies,response_2.started,response_2.stopped,mouse_2.x,mouse_2.y,mouse_2.leftButton,mouse_2.midButton,mouse_2.rightButton,mouse_2.clicked_name,special_trial.started,special_trial.stopped,catch_1.started,catch_1.stopped,mouse_3.x,mouse_3.y,mouse_3.leftButton,mouse_3.midButton,mouse_3.rightButton,catchresponse,catchnumber,response_time_catch,response_sum.started,response_sum.stopped,mouse_11.x,mouse_11.y,mouse_11.leftButton,mouse_11.midButton,mouse_11.rightButton,flip_presentation_sequence_for_double_pass.started,flip_presentation_sequence_for_double_pass.stopped,goodbye.started,goodbye.stopped,key_resp_3.keys,key_resp_3.rt,key_resp_3.duration
0.001,0.001,603fb04d42dd7c0a9398a42f,2024-02-22_00h29.07.047,kallum_motion_pilot,2023.2.2,Linux x86_64,60.09615385,603fb04d42dd7c0a9398a42f,65d6bb0e977760de756971f7,65d6bee16cbfc377f68bee76,,,,,,,,,,,,,,,,,,,,,,,,,,,,,,,,,,,,,,,,,,,,,,,,,,,,,,,,,,,,,,,,,,,,,,,,,,,,,,,,,,,,,,,,,,,,,,,,,,,,,,,,,,,,,,,,,,,,,,,,,,,,,,,,,,,,,,,,,,,,,,,,,
,,603fb04d42dd7c0a9398a42f,2024-02-22_00h29.07.047,kallum_motion_pilot,2023.2.2,Linux x86_64,60.09615385,603fb04d42dd7c0a9398a42f,65d6bb0e977760de756971f7,65d6bee16cbfc377f68bee76,0.08,0.081,0,0,0,11,1,twofour,,,,,,,,,,,,,,,,,,,,,,,,,,,,,,,,,,,,,,,,,,,,,,,,,,,,,,,,,,,,,,,,,,,,,,,,,,,,,,,,,,,,,,,,,,,,,,,,,,,,,,,,,,,,,,,,,,,,,,,,,,,,,,,,,,,,,,,,,
,,603fb04d42dd7c0a9398a42f,2024-02-22_00h29.07.047,kallum_motion_pilot,2023.2.2,Linux x86_64,60.09615385,603fb04d42dd7c0a9398a42f,65d6bb0e977760de756971f7,65d6bee16cbfc377f68bee76,0.082,0.082,0,1,1,94,1,eightsix,,,,,,,,,,,,,,,,,,,,,,,,,,,,,,,,,,,,,,,,,,,,,,,,,,,,,,,,,,,,,,,,,,,,,,,,,,,,,,,,,,,,,,,,,,,,,,,,,,,,,,,,,,,,,,,,,,,,,,,,,,,,,,,,,,,,,,,,,
,,603fb04d42dd7c0a9398a42f,2024-02-22_00h29.07.047,kallum_motion_pilot,2023.2.2,Linux x86_64,60.09615385,603fb04d42dd7c0a9398a42f,65d6bb0e977760de756971f7,65d6bee16cbfc377f68bee76,0.083,0.083,0,2,2,99,1,sixeight,,,,,,,,,,,,,,,,,,,,,,,,,,,,,,,,,,,,,,,,,,,,,,,,,,,,,,,,,,,,,,,,,,,,,,,,,,,,,,,,,,,,,,,,,,,,,,,,,,,,,,,,,,,,,,,,,,,,,,,,,,,,,,,,,,,,,,,,,
,,603fb04d42dd7c0a9398a42f,2024-02-22_00h29.07.047,kallum_motion_pilot,2023.2.2,Linux x86_64,60.09615385,603fb04d42dd7c0a9398a42f,65d6bb0e977760de756971f7,65d6bee16cbfc377f68bee76,0.083,0.083,0,3,3,28,1,threeone,,,,,,,,,,,,,,,,,,,,,,,,,,,,,,,,,,,,,,,,,,,,,,,,,,,,,,,,,,,,,,,,,,,,,,,,,,,,,,,,,,,,,,,,,,,,,,,,,,,,,,,,,,,,,,,,,,,,,,,,,,,,,,,,,,,,,,,,,
,,603fb04d42dd7c0a9398a42f,2024-02-22_00h29.07.047,kallum_motion_pilot,2023.2.2,Linux x86_64,60.09615385,603fb04d42dd7c0a9398a42f,65d6bb0e977760de756971f7,65d6bee16cbfc377f68bee76,0.084,0.084,0,4,4,55,1,fourthree,,,,,,,,,,,,,,,,,,,,,,,,,,,,,,,,,,,,,,,,,,,,,,,,,,,,,,,,,,,,,,,,,,,,,,,,,,,,,,,,,,,,,,,,,,,,,,,,,,,,,,,,,,,,,,,,,,,,,,,,,,,,,,,,,,,,,,,,,
,,603fb04d42dd7c0a9398a42f,2024-02-22_00h29.07.047,kallum_motion_pilot,2023.2.2,Linux x86_64,60.09615385,603fb04d42dd7c0a9398a42f,65d6bb0e977760de756971f7,65d6bee16cbfc377f68bee76,0.085,0.085,0,5,5,104,1,fivesix,,,,,,,,,,,,,,,,,,,,,,,,,,,,,,,,,,,,,,,,,,,,,,,,,,,,,,,,,,,,,,,,,,,,,,,,,,,,,,,,,,,,,,,,,,,,,,,,,,,,,,,,,,,,,,,,,,,,,,,,,,,,,,,,,,,,,,,,,
,,603fb04d42dd7c0a9398a42f,2024-02-22_00h29.07.047,kallum_motion_pilot,2023.2.2,Linux x86_64,60.09615385,603fb04d42dd7c0a9398a42f,65d6bb0e977760de756971f7,65d6bee16cbfc377f68bee76,0.085,0.085,0,6,6,45,1,threefour,,,,,,,,,,,,,,,,,,,,,,,,,,,,,,,,,,,,,,,,,,,,,,,,,,,,,,,,,,,,,,,,,,,,,,,,,,,,,,,,,,,,,,,,,,,,,,,,,,,,,,,,,,,,,,,,,,,,,,,,,,,,,,,,,,,,,,,,,
,,603fb04d42dd7c0a9398a42f,2024-02-22_00h29.07.047,kallum_motion_pilot,2023.2.2,Linux x86_64,60.09615385,603fb04d42dd7c0a9398a42f,65d6bb0e977760de756971f7,65d6bee16cbfc377f68bee76,0.085,0.085,0,7,7,145,1,fiveseven,,,,,,,,,,,,,,,,,,,,,,,,,,,,,,,,,,,,,,,,,,,,,,,,,,,,,,,,,,,,,,,,,,,,,,,,,,,,,,,,,,,,,,,,,,,,,,,,,,,,,,,,,,,,,,,,,,,,,,,,,,,,,,,,,,,,,,,,,
,,603fb04d42dd7c0a9398a42f,2024-02-22_00h29.07.047,kallum_motion_pilot,2023.2.2,Linux x86_64,60.09615385,603fb04d42dd7c0a9398a42f,65d6bb0e977760de756971f7,65d6bee16cbfc377f68bee76,0.086,0.086,0,8,8,156,1,sevenfive,,,,,,,,,,,,,,,,,,,,,,,,,,,,,,,,,,,,,,,,,,,,,,,,,,,,,,,,,,,,,,,,,,,,,,,,,,,,,,,,,,,,,,,,,,,,,,,,,,,,,,,,,,,,,,,,,,,,,,,,,,,,,,,,,,,,,,,,,
,,603fb04d42dd7c0a9398a42f,2024-02-22_00h29.07.047,kallum_motion_pilot,2023.2.2,Linux x86_64,60.09615385,603fb04d42dd7c0a9398a42f,65d6bb0e977760de756971f7,65d6bee16cbfc377f68bee76,0.086,0.086,0,9,9,30,1,fourtwo,,,,,,,,,,,,,,,,,,,,,,,,,,,,,,,,,,,,,,,,,,,,,,,,,,,,,,,,,,,,,,,,,,,,,,,,,,,,,,,,,,,,,,,,,,,,,,,,,,,,,,,,,,,,,,,,,,,,,,,,,,,,,,,,,,,,,,,,,
,,603fb04d42dd7c0a9398a42f,2024-02-22_00h29.07.047,kallum_motion_pilot,2023.2.2,Linux x86_64,60.09615385,603fb04d42dd7c0a9398a42f,65d6bb0e977760de756971f7,65d6bee16cbfc377f68bee76,0.086,0.086,0,10,10,107,1,sixeight,,,,,,,,,,,,,,,,,,,,,,,,,,,,,,,,,,,,,,,,,,,,,,,,,,,,,,,,,,,,,,,,,,,,,,,,,,,,,,,,,,,,,,,,,,,,,,,,,,,,,,,,,,,,,,,,,,,,,,,,,,,,,,,,,,,,,,,,,
,,603fb04d42dd7c0a9398a42f,2024-02-22_00h29.07.047,kallum_motion_pilot,2023.2.2,Linux x86_64,60.09615385,603fb04d42dd7c0a9398a42f,65d6bb0e977760de756971f7,65d6bee16cbfc377f68bee76,0.087,0.087,0,11,11,109,1,seveneight,,,,,,,,,,,,,,,,,,,,,,,,,,,,,,,,,,,,,,,,,,,,,,,,,,,,,,,,,,,,,,,,,,,,,,,,,,,,,,,,,,,,,,,,,,,,,,,,,,,,,,,,,,,,,,,,,,,,,,,,,,,,,,,,,,,,,,,,,
,,603fb04d42dd7c0a9398a42f,2024-02-22_00h29.07.047,kallum_motion_pilot,2023.2.2,Linux x86_64,60.09615385,603fb04d42dd7c0a9398a42f,65d6bb0e977760de756971f7,65d6bee16cbfc377f68bee76,0.087,0.087,0,12,12,47,1,fourthree,,,,,,,,,,,,,,,,,,,,,,,,,,,,,,,,,,,,,,,,,,,,,,,,,,,,,,,,,,,,,,,,,,,,,,,,,,,,,,,,,,,,,,,,,,,,,,,,,,,,,,,,,,,,,,,,,,,,,,,,,,,,,,,,,,,,,,,,,
,,603fb04d42dd7c0a9398a42f,2024-02-22_00h29.07.047,kallum_motion_pilot,2023.2.2,Linux x86_64,60.09615385,603fb04d42dd7c0a9398a42f,65d6bb0e977760de756971f7,65d6bee16cbfc377f68bee76,0.087,0.087,0,13,13,89,1,fiveseven,,,,,,,,,,,,,,,,,,,,,,,,,,,,,,,,,,,,,,,,,,,,,,,,,,,,,,,,,,,,,,,,,,,,,,,,,,,,,,,,,,,,,,,,,,,,,,,,,,,,,,,,,,,,,,,,,,,,,,,,,,,,,,,,,,,,,,,,,
,,603fb04d42dd7c0a9398a42f,2024-02-22_00h29.07.047,kallum_motion_pilot,2023.2.2,Linux x86_64,60.09615385,603fb04d42dd7c0a9398a42f,65d6bb0e977760de756971f7,65d6bee16cbfc377f68bee76,0.088,0.088,0,14,14,34,1,twoone,,,,,,,,,,,,,,,,,,,,,,,,,,,,,,,,,,,,,,,,,,,,,,,,,,,,,,,,,,,,,,,,,,,,,,,,,,,,,,,,,,,,,,,,,,,,,,,,,,,,,,,,,,,,,,,,,,,,,,,,,,,,,,,,,,,,,,,,,
,,603fb04d42dd7c0a9398a42f,2024-02-22_00h29.07.047,kallum_motion_pilot,2023.2.2,Linux x86_64,60.09615385,603fb04d42dd7c0a9398a42f,65d6bb0e977760de756971f7,65d6bee16cbfc377f68bee76,0.088,0.088,0,15,15,86,1,eightsix,,,,,,,,,,,,,,,,,,,,,,,,,,,,,,,,,,,,,,,,,,,,,,,,,,,,,,,,,,,,,,,,,,,,,,,,,,,,,,,,,,,,,,,,,,,,,,,,,,,,,,,,,,,,,,,,,,,,,,,,,,,,,,,,,,,,,,,,,
,,603fb04d42dd7c0a9398a42f,2024-02-22_00h29.07.047,kallum_motion_pilot,2023.2.2,Linux x86_64,60.09615385,603fb04d42dd7c0a9398a42f,65d6bb0e977760de756971f7,65d6bee16cbfc377f68bee76,0.088,0.088,0,16,16,68,1,threeone,,,,,,,,,,,,,,,,,,,,,,,,,,,,,,,,,,,,,,,,,,,,,,,,,,,,,,,,,,,,,,,,,,,,,,,,,,,,,,,,,,,,,,,,,,,,,,,,,,,,,,,,,,,,,,,,,,,,,,,,,,,,,,,,,,,,,,,,,
,,603fb04d42dd7c0a9398a42f,2024-02-22_00h29.07.047,kallum_motion_pilot,2023.2.2,Linux x86_64,60.09615385,603fb04d42dd7c0a9398a42f,65d6bb0e977760de756971f7,65d6bee16cbfc377f68bee76,0.088,0.088,0,17,17,136,1,fivesix,,,,,,,,,,,,,,,,,,,,,,,,,,,,,,,,,,,,,,,,,,,,,,,,,,,,,,,,,,,,,,,,,,,,,,,,,,,,,,,,,,,,,,,,,,,,,,,,,,,,,,,,,,,,,,,,,,,,,,,,,,,,,,,,,,,,,,,,,
,,603fb04d42dd7c0a9398a42f,2024-02-22_00h29.07.047,kallum_motion_pilot,2023.2.2,Linux x86_64,60.09615385,603fb04d42dd7c0a9398a42f,65d6bb0e977760de756971f7,65d6bee16cbfc377f68bee76,0.089,0.089,0,18,18,52,1,threeone,,,,,,,,,,,,,,,,,,,,,,,,,,,,,,,,,,,,,,,,,,,,,,,,,,,,,,,,,,,,,,,,,,,,,,,,,,,,,,,,,,,,,,,,,,,,,,,,,,,,,,,,,,,,,,,,,,,,,,,,,,,,,,,,,,,,,,,,,
,,603fb04d42dd7c0a9398a42f,2024-02-22_00h29.07.047,kallum_motion_pilot,2023.2.2,Linux x86_64,60.09615385,603fb04d42dd7c0a9398a42f,65d6bb0e977760de756971f7,65d6bee16cbfc377f68bee76,0.089,0.089,0,19,19,123,1,sixeight,,,,,,,,,,,,,,,,,,,,,,,,,,,,,,,,,,,,,,,,,,,,,,,,,,,,,,,,,,,,,,,,,,,,,,,,,,,,,,,,,,,,,,,,,,,,,,,,,,,,,,,,,,,,,,,,,,,,,,,,,,,,,,,,,,,,,,,,,
,,603fb04d42dd7c0a9398a42f,2024-02-22_00h29.07.047,kallum_motion_pilot,2023.2.2,Linux x86_64,60.09615385,603fb04d42dd7c0a9398a42f,65d6bb0e977760de756971f7,65d6bee16cbfc377f68bee76,0.089,0.089,0,20,20,49,1,onethree,,,,,,,,,,,,,,,,,,,,,,,,,,,,,,,,,,,,,,,,,,,,,,,,,,,,,,,,,,,,,,,,,,,,,,,,,,,,,,,,,,,,,,,,,,,,,,,,,,,,,,,,,,,,,,,,,,,,,,,,,,,,,,,,,,,,,,,,,
,,603fb04d42dd7c0a9398a42f,2024-02-22_00h29.07.047,kallum_motion_pilot,2023.2.2,Linux x86_64,60.09615385,603fb04d42dd7c0a9398a42f,65d6bb0e977760de756971f7,65d6bee16cbfc377f68bee76,0.09,0.091,0,21,21,35,1,twofour,,,,,,,,,,,,,,,,,,,,,,,,,,,,,,,,,,,,,,,,,,,,,,,,,,,,,,,,,,,,,,,,,,,,,,,,,,,,,,,,,,,,,,,,,,,,,,,,,,,,,,,,,,,,,,,,,,,,,,,,,,,,,,,,,,,,,,,,,
,,603fb04d42dd7c0a9398a42f,2024-02-22_00h29.07.047,kallum_motion_pilot,2023.2.2,Linux x86_64,60.09615385,603fb04d42dd7c0a9398a42f,65d6bb0e977760de756971f7,65d6bee16cbfc377f68bee76,0.091,0.091,0,22,22,141,1,seveneight,,,,,,,,,,,,,,,,,,,,,,,,,,,,,,,,,,,,,,,,,,,,,,,,,,,,,,,,,,,,,,,,,,,,,,,,,,,,,,,,,,,,,,,,,,,,,,,,,,,,,,,,,,,,,,,,,,,,,,,,,,,,,,,,,,,,,,,,,
,,603fb04d42dd7c0a9398a42f,2024-02-22_00h29.07.047,kallum_motion_pilot,2023.2.2,Linux x86_64,60.09615385,603fb04d42dd7c0a9398a42f,65d6bb0e977760de756971f7,65d6bee16cbfc377f68bee76,0.091,0.091,0,23,23,159,1,eightseven,,,,,,,,,,,,,,,,,,,,,,,,,,,,,,,,,,,,,,,,,,,,,,,,,,,,,,,,,,,,,,,,,,,,,,,,,,,,,,,,,,,,,,,,,,,,,,,,,,,,,,,,,,,,,,,,,,,,,,,,,,,,,,,,,,,,,,,,,
,,603fb04d42dd7c0a9398a42f,2024-02-22_00h29.07.047,kallum_motion_pilot,2023.2.2,Linux x86_64,60.09615385,603fb04d42dd7c0a9398a42f,65d6bb0e977760de756971f7,65d6bee16cbfc377f68bee76,0.092,0.092,0,24,24,88,1,fivesix,,,,,,,,,,,,,,,,,,,,,,,,,,,,,,,,,,,,,,,,,,,,,,,,,,,,,,,,,,,,,,,,,,,,,,,,,,,,,,,,,,,,,,,,,,,,,,,,,,,,,,,,,,,,,,,,,,,,,,,,,,,,,,,,,,,,,,,,,
,,603fb04d42dd7c0a9398a42f,2024-02-22_00h29.07.047,kallum_motion_pilot,2023.2.2,Linux x86_64,60.09615385,603fb04d42dd7c0a9398a42f,65d6bb0e977760de756971f7,65d6bee16cbfc377f68bee76,0.092,0.092,0,25,25,8,1,onetwo,,,,,,,,,,,,,,,,,,,,,,,,,,,,,,,,,,,,,,,,,,,,,,,,,,,,,,,,,,,,,,,,,,,,,,,,,,,,,,,,,,,,,,,,,,,,,,,,,,,,,,,,,,,,,,,,,,,,,,,,,,,,,,,,,,,,,,,,,
,,603fb04d42dd7c0a9398a42f,2024-02-22_00h29.07.047,kallum_motion_pilot,2023.2.2,Linux x86_64,60.09615385,603fb04d42dd7c0a9398a42f,65d6bb0e977760de756971f7,65d6bee16cbfc377f68bee76,0.092,0.092,0,26,26,0,1,onetwo,,,,,,,,,,,,,,,,,,,,,,,,,,,,,,,,,,,,,,,,,,,,,,,,,,,,,,,,,,,,,,,,,,,,,,,,,,,,,,,,,,,,,,,,,,,,,,,,,,,,,,,,,,,,,,,,,,,,,,,,,,,,,,,,,,,,,,,,,
,,603fb04d42dd7c0a9398a42f,2024-02-22_00h29.07.047,kallum_motion_pilot,2023.2.2,Linux x86_64,60.09615385,603fb04d42dd7c0a9398a42f,65d6bb0e977760de756971f7,65d6bee16cbfc377f68bee76,0.092,0.093,0,27,27,155,1,sixeight,,,,,,,,,,,,,,,,,,,,,,,,,,,,,,,,,,,,,,,,,,,,,,,,,,,,,,,,,,,,,,,,,,,,,,,,,,,,,,,,,,,,,,,,,,,,,,,,,,,,,,,,,,,,,,,,,,,,,,,,,,,,,,,,,,,,,,,,,
,,603fb04d42dd7c0a9398a42f,2024-02-22_00h29.07.047,kallum_motion_pilot,2023.2.2,Linux x86_64,60.09615385,603fb04d42dd7c0a9398a42f,65d6bb0e977760de756971f7,65d6bee16cbfc377f68bee76,0.093,0.093,0,28,28,44,1,threeone,,,,,,,,,,,,,,,,,,,,,,,,,,,,,,,,,,,,,,,,,,,,,,,,,,,,,,,,,,,,,,,,,,,,,,,,,,,,,,,,,,,,,,,,,,,,,,,,,,,,,,,,,,,,,,,,,,,,,,,,,,,,,,,,,,,,,,,,,
,,603fb04d42dd7c0a9398a42f,2024-02-22_00h29.07.047,kallum_motion_pilot,2023.2.2,Linux x86_64,60.09615385,603fb04d42dd7c0a9398a42f,65d6bb0e977760de756971f7,65d6bee16cbfc377f68bee76,0.093,0.093,0,29,29,65,1,onethree,,,,,,,,,,,,,,,,,,,,,,,,,,,,,,,,,,,,,,,,,,,,,,,,,,,,,,,,,,,,,,,,,,,,,,,,,,,,,,,,,,,,,,,,,,,,,,,,,,,,,,,,,,,,,,,,,,,,,,,,,,,,,,,,,,,,,,,,,
,,603fb04d42dd7c0a9398a42f,2024-02-22_00h29.07.047,kallum_motion_pilot,2023.2.2,Linux x86_64,60.09615385,603fb04d42dd7c0a9398a42f,65d6bb0e977760de756971f7,65d6bee16cbfc377f68bee76,0.093,0.094,0,30,30,19,1,twofour,,,,,,,,,,,,,,,,,,,,,,,,,,,,,,,,,,,,,,,,,,,,,,,,,,,,,,,,,,,,,,,,,,,,,,,,,,,,,,,,,,,,,,,,,,,,,,,,,,,,,,,,,,,,,,,,,,,,,,,,,,,,,,,,,,,,,,,,,
,,603fb04d42dd7c0a9398a42f,2024-02-22_00h29.07.047,kallum_motion_pilot,2023.2.2,Linux x86_64,60.09615385,603fb04d42dd7c0a9398a42f,65d6bb0e977760de756971f7,65d6bee16cbfc377f68bee76,0.094,0.094,0,31,31,25,1,onethree,,,,,,,,,,,,,,,,,,,,,,,,,,,,,,,,,,,,,,,,,,,,,,,,,,,,,,,,,,,,,,,,,,,,,,,,,,,,,,,,,,,,,,,,,,,,,,,,,,,,,,,,,,,,,,,,,,,,,,,,,,,,,,,,,,,,,,,,,
,,603fb04d42dd7c0a9398a42f,2024-02-22_00h29.07.047,kallum_motion_pilot,2023.2.2,Linux x86_64,60.09615385,603fb04d42dd7c0a9398a42f,65d6bb0e977760de756971f7,65d6bee16cbfc377f68bee76,0.094,0.094,0,32,32,148,1,sevenfive,,,,,,,,,,,,,,,,,,,,,,,,,,,,,,,,,,,,,,,,,,,,,,,,,,,,,,,,,,,,,,,,,,,,,,,,,,,,,,,,,,,,,,,,,,,,,,,,,,,,,,,,,,,,,,,,,,,,,,,,,,,,,,,,,,,,,,,,,
,,603fb04d42dd7c0a9398a42f,2024-02-22_00h29.07.047,kallum_motion_pilot,2023.2.2,Linux x86_64,60.09615385,603fb04d42dd7c0a9398a42f,65d6bb0e977760de756971f7,65d6bee16cbfc377f68bee76,0.095,0.095,0,33,33,38,1,fourtwo,,,,,,,,,,,,,,,,,,,,,,,,,,,,,,,,,,,,,,,,,,,,,,,,,,,,,,,,,,,,,,,,,,,,,,,,,,,,,,,,,,,,,,,,,,,,,,,,,,,,,,,,,,,,,,,,,,,,,,,,,,,,,,,,,,,,,,,,,
,,603fb04d42dd7c0a9398a42f,2024-02-22_00h29.07.047,kallum_motion_pilot,2023.2.2,Linux x86_64,60.09615385,603fb04d42dd7c0a9398a42f,65d6bb0e977760de756971f7,65d6bee16cbfc377f68bee76,0.095,0.095,0,34,34,140,1,sevenfive,,,,,,,,,,,,,,,,,,,,,,,,,,,,,,,,,,,,,,,,,,,,,,,,,,,,,,,,,,,,,,,,,,,,,,,,,,,,,,,,,,,,,,,,,,,,,,,,,,,,,,,,,,,,,,,,,,,,,,,,,,,,,,,,,,,,,,,,,
,,603fb04d42dd7c0a9398a42f,2024-02-22_00h29.07.047,kallum_motion_pilot,2023.2.2,Linux x86_64,60.09615385,603fb04d42dd7c0a9398a42f,65d6bb0e977760de756971f7,65d6bee16cbfc377f68bee76,0.095,0.095,0,35,35,125,1,seveneight,,,,,,,,,,,,,,,,,,,,,,,,,,,,,,,,,,,,,,,,,,,,,,,,,,,,,,,,,,,,,,,,,,,,,,,,,,,,,,,,,,,,,,,,,,,,,,,,,,,,,,,,,,,,,,,,,,,,,,,,,,,,,,,,,,,,,,,,,
,,603fb04d42dd7c0a9398a42f,2024-02-22_00h29.07.047,kallum_motion_pilot,2023.2.2,Linux x86_64,60.09615385,603fb04d42dd7c0a9398a42f,65d6bb0e977760de756971f7,65d6bee16cbfc377f68bee76,0.096,0.096,0,36,36,157,1,seveneight,,,,,,,,,,,,,,,,,,,,,,,,,,,,,,,,,,,,,,,,,,,,,,,,,,,,,,,,,,,,,,,,,,,,,,,,,,,,,,,,,,,,,,,,,,,,,,,,,,,,,,,,,,,,,,,,,,,,,,,,,,,,,,,,,,,,,,,,,
,,603fb04d42dd7c0a9398a42f,2024-02-22_00h29.07.047,kallum_motion_pilot,2023.2.2,Linux x86_64,60.09615385,603fb04d42dd7c0a9398a42f,65d6bb0e977760de756971f7,65d6bee16cbfc377f68bee76,0.096,0.096,0,37,37,151,1,eightseven,,,,,,,,,,,,,,,,,,,,,,,,,,,,,,,,,,,,,,,,,,,,,,,,,,,,,,,,,,,,,,,,,,,,,,,,,,,,,,,,,,,,,,,,,,,,,,,,,,,,,,,,,,,,,,,,,,,,,,,,,,,,,,,,,,,,,,,,,
,,603fb04d42dd7c0a9398a42f,2024-02-22_00h29.07.047,kallum_motion_pilot,2023.2.2,Linux x86_64,60.09615385,603fb04d42dd7c0a9398a42f,65d6bb0e977760de756971f7,65d6bee16cbfc377f68bee76,0.096,0.096,0,38,38,144,1,fivesix,,,,,,,,,,,,,,,,,,,,,,,,,,,,,,,,,,,,,,,,,,,,,,,,,,,,,,,,,,,,,,,,,,,,,,,,,,,,,,,,,,,,,,,,,,,,,,,,,,,,,,,,,,,,,,,,,,,,,,,,,,,,,,,,,,,,,,,,,
,,603fb04d42dd7c0a9398a42f,2024-02-22_00h29.07.047,kallum_motion_pilot,2023.2.2,Linux x86_64,60.09615385,603fb04d42dd7c0a9398a42f,65d6bb0e977760de756971f7,65d6bee16cbfc377f68bee76,0.097,0.097,0,39,39,46,1,fourtwo,,,,,,,,,,,,,,,,,,,,,,,,,,,,,,,,,,,,,,,,,,,,,,,,,,,,,,,,,,,,,,,,,,,,,,,,,,,,,,,,,,,,,,,,,,,,,,,,,,,,,,,,,,,,,,,,,,,,,,,,,,,,,,,,,,,,,,,,,
,,603fb04d42dd7c0a9398a42f,2024-02-22_00h29.07.047,kallum_motion_pilot,2023.2.2,Linux x86_64,60.09615385,603fb04d42dd7c0a9398a42f,65d6bb0e977760de756971f7,65d6bee16cbfc377f68bee76,0.097,0.097,0,40,40,149,1,seveneight,,,,,,,,,,,,,,,,,,,,,,,,,,,,,,,,,,,,,,,,,,,,,,,,,,,,,,,,,,,,,,,,,,,,,,,,,,,,,,,,,,,,,,,,,,,,,,,,,,,,,,,,,,,,,,,,,,,,,,,,,,,,,,,,,,,,,,,,,
,,603fb04d42dd7c0a9398a42f,2024-02-22_00h29.07.047,kallum_motion_pilot,2023.2.2,Linux x86_64,60.09615385,603fb04d42dd7c0a9398a42f,65d6bb0e977760de756971f7,65d6bee16cbfc377f68bee76,0.098,0.098,0,41,41,53,1,threefour,,,,,,,,,,,,,,,,,,,,,,,,,,,,,,,,,,,,,,,,,,,,,,,,,,,,,,,,,,,,,,,,,,,,,,,,,,,,,,,,,,,,,,,,,,,,,,,,,,,,,,,,,,,,,,,,,,,,,,,,,,,,,,,,,,,,,,,,,
,,603fb04d42dd7c0a9398a42f,2024-02-22_00h29.07.047,kallum_motion_pilot,2023.2.2,Linux x86_64,60.09615385,603fb04d42dd7c0a9398a42f,65d6bb0e977760de756971f7,65d6bee16cbfc377f68bee76,0.098,0.098,0,42,42,96,1,fivesix,,,,,,,,,,,,,,,,,,,,,,,,,,,,,,,,,,,,,,,,,,,,,,,,,,,,,,,,,,,,,,,,,,,,,,,,,,,,,,,,,,,,,,,,,,,,,,,,,,,,,,,,,,,,,,,,,,,,,,,,,,,,,,,,,,,,,,,,,
,,603fb04d42dd7c0a9398a42f,2024-02-22_00h29.07.047,kallum_motion_pilot,2023.2.2,Linux x86_64,60.09615385,603fb04d42dd7c0a9398a42f,65d6bb0e977760de756971f7,65d6bee16cbfc377f68bee76,0.098,0.098,0,43,43,143,1,eightseven,,,,,,,,,,,,,,,,,,,,,,,,,,,,,,,,,,,,,,,,,,,,,,,,,,,,,,,,,,,,,,,,,,,,,,,,,,,,,,,,,,,,,,,,,,,,,,,,,,,,,,,,,,,,,,,,,,,,,,,,,,,,,,,,,,,,,,,,,
,,603fb04d42dd7c0a9398a42f,2024-02-22_00h29.07.047,kallum_motion_pilot,2023.2.2,Linux x86_64,60.09615385,603fb04d42dd7c0a9398a42f,65d6bb0e977760de756971f7,65d6bee16cbfc377f68bee76,0.098,0.098,0,44,44,15,1,fourthree,,,,,,,,,,,,,,,,,,,,,,,,,,,,,,,,,,,,,,,,,,,,,,,,,,,,,,,,,,,,,,,,,,,,,,,,,,,,,,,,,,,,,,,,,,,,,,,,,,,,,,,,,,,,,,,,,,,,,,,,,,,,,,,,,,,,,,,,,
,,603fb04d42dd7c0a9398a42f,2024-02-22_00h29.07.047,kallum_motion_pilot,2023.2.2,Linux x86_64,60.09615385,603fb04d42dd7c0a9398a42f,65d6bb0e977760de756971f7,65d6bee16cbfc377f68bee76,0.099,0.099,0,45,45,1,1,onethree,,,,,,,,,,,,,,,,,,,,,,,,,,,,,,,,,,,,,,,,,,,,,,,,,,,,,,,,,,,,,,,,,,,,,,,,,,,,,,,,,,,,,,,,,,,,,,,,,,,,,,,,,,,,,,,,,,,,,,,,,,,,,,,,,,,,,,,,,
,,603fb04d42dd7c0a9398a42f,2024-02-22_00h29.07.047,kallum_motion_pilot,2023.2.2,Linux x86_64,60.09615385,603fb04d42dd7c0a9398a42f,65d6bb0e977760de756971f7,65d6bee16cbfc377f68bee76,0.099,0.099,0,46,46,138,1,sixfive,,,,,,,,,,,,,,,,,,,,,,,,,,,,,,,,,,,,,,,,,,,,,,,,,,,,,,,,,,,,,,,,,,,,,,,,,,,,,,,,,,,,,,,,,,,,,,,,,,,,,,,,,,,,,,,,,,,,,,,,,,,,,,,,,,,,,,,,,
,,603fb04d42dd7c0a9398a42f,2024-02-22_00h29.07.047,kallum_motion_pilot,2023.2.2,Linux x86_64,60.09615385,603fb04d42dd7c0a9398a42f,65d6bb0e977760de756971f7,65d6bee16cbfc377f68bee76,0.099,0.099,0,47,47,128,1,fivesix,,,,,,,,,,,,,,,,,,,,,,,,,,,,,,,,,,,,,,,,,,,,,,,,,,,,,,,,,,,,,,,,,,,,,,,,,,,,,,,,,,,,,,,,,,,,,,,,,,,,,,,,,,,,,,,,,,,,,,,,,,,,,,,,,,,,,,,,,
,,603fb04d42dd7c0a9398a42f,2024-02-22_00h29.07.047,kallum_motion_pilot,2023.2.2,Linux x86_64,60.09615385,603fb04d42dd7c0a9398a42f,65d6bb0e977760de756971f7,65d6bee16cbfc377f68bee76,0.099,0.099,0,48,48,112,1,fivesix,,,,,,,,,,,,,,,,,,,,,,,,,,,,,,,,,,,,,,,,,,,,,,,,,,,,,,,,,,,,,,,,,,,,,,,,,,,,,,,,,,,,,,,,,,,,,,,,,,,,,,,,,,,,,,,,,,,,,,,,,,,,,,,,,,,,,,,,,
,,603fb04d42dd7c0a9398a42f,2024-02-22_00h29.07.047,kallum_motion_pilot,2023.2.2,Linux x86_64,60.09615385,603fb04d42dd7c0a9398a42f,65d6bb0e977760de756971f7,65d6bee16cbfc377f68bee76,0.1,0.1,0,49,49,130,1,sixfive,,,,,,,,,,,,,,,,,,,,,,,,,,,,,,,,,,,,,,,,,,,,,,,,,,,,,,,,,,,,,,,,,,,,,,,,,,,,,,,,,,,,,,,,,,,,,,,,,,,,,,,,,,,,,,,,,,,,,,,,,,,,,,,,,,,,,,,,,
,,603fb04d42dd7c0a9398a42f,2024-02-22_00h29.07.047,kallum_motion_pilot,2023.2.2,Linux x86_64,60.09615385,603fb04d42dd7c0a9398a42f,65d6bb0e977760de756971f7,65d6bee16cbfc377f68bee76,0.101,0.101,0,50,50,122,1,sixfive,,,,,,,,,,,,,,,,,,,,,,,,,,,,,,,,,,,,,,,,,,,,,,,,,,,,,,,,,,,,,,,,,,,,,,,,,,,,,,,,,,,,,,,,,,,,,,,,,,,,,,,,,,,,,,,,,,,,,,,,,,,,,,,,,,,,,,,,,
,,603fb04d42dd7c0a9398a42f,2024-02-22_00h29.07.047,kallum_motion_pilot,2023.2.2,Linux x86_64,60.09615385,603fb04d42dd7c0a9398a42f,65d6bb0e977760de756971f7,65d6bee16cbfc377f68bee76,0.101,0.101,0,51,51,50,1,twoone,,,,,,,,,,,,,,,,,,,,,,,,,,,,,,,,,,,,,,,,,,,,,,,,,,,,,,,,,,,,,,,,,,,,,,,,,,,,,,,,,,,,,,,,,,,,,,,,,,,,,,,,,,,,,,,,,,,,,,,,,,,,,,,,,,,,,,,,,
,,603fb04d42dd7c0a9398a42f,2024-02-22_00h29.07.047,kallum_motion_pilot,2023.2.2,Linux x86_64,60.09615385,603fb04d42dd7c0a9398a42f,65d6bb0e977760de756971f7,65d6bee16cbfc377f68bee76,0.101,0.101,0,52,52,37,1,threefour,,,,,,,,,,,,,,,,,,,,,,,,,,,,,,,,,,,,,,,,,,,,,,,,,,,,,,,,,,,,,,,,,,,,,,,,,,,,,,,,,,,,,,,,,,,,,,,,,,,,,,,,,,,,,,,,,,,,,,,,,,,,,,,,,,,,,,,,,
,,603fb04d42dd7c0a9398a42f,2024-02-22_00h29.07.047,kallum_motion_pilot,2023.2.2,Linux x86_64,60.09615385,603fb04d42dd7c0a9398a42f,65d6bb0e977760de756971f7,65d6bee16cbfc377f68bee76,0.102,0.102,0,53,53,95,1,eightseven,,,,,,,,,,,,,,,,,,,,,,,,,,,,,,,,,,,,,,,,,,,,,,,,,,,,,,,,,,,,,,,,,,,,,,,,,,,,,,,,,,,,,,,,,,,,,,,,,,,,,,,,,,,,,,,,,,,,,,,,,,,,,,,,,,,,,,,,,
,,603fb04d42dd7c0a9398a42f,2024-02-22_00h29.07.047,kallum_motion_pilot,2023.2.2,Linux x86_64,60.09615385,603fb04d42dd7c0a9398a42f,65d6bb0e977760de756971f7,65d6bee16cbfc377f68bee76,0.102,0.102,0,54,54,64,1,onetwo,,,,,,,,,,,,,,,,,,,,,,,,,,,,,,,,,,,,,,,,,,,,,,,,,,,,,,,,,,,,,,,,,,,,,,,,,,,,,,,,,,,,,,,,,,,,,,,,,,,,,,,,,,,,,,,,,,,,,,,,,,,,,,,,,,,,,,,,,
,,603fb04d42dd7c0a9398a42f,2024-02-22_00h29.07.047,kallum_motion_pilot,2023.2.2,Linux x86_64,60.09615385,603fb04d42dd7c0a9398a42f,65d6bb0e977760de756971f7,65d6bee16cbfc377f68bee76,0.102,0.102,0,55,55,66,1,twoone,,,,,,,,,,,,,,,,,,,,,,,,,,,,,,,,,,,,,,,,,,,,,,,,,,,,,,,,,,,,,,,,,,,,,,,,,,,,,,,,,,,,,,,,,,,,,,,,,,,,,,,,,,,,,,,,,,,,,,,,,,,,,,,,,,,,,,,,,
,,603fb04d42dd7c0a9398a42f,2024-02-22_00h29.07.047,kallum_motion_pilot,2023.2.2,Linux x86_64,60.09615385,603fb04d42dd7c0a9398a42f,65d6bb0e977760de756971f7,65d6bee16cbfc377f68bee76,0.102,0.102,0,56,56,40,1,onetwo,,,,,,,,,,,,,,,,,,,,,,,,,,,,,,,,,,,,,,,,,,,,,,,,,,,,,,,,,,,,,,,,,,,,,,,,,,,,,,,,,,,,,,,,,,,,,,,,,,,,,,,,,,,,,,,,,,,,,,,,,,,,,,,,,,,,,,,,,
,,603fb04d42dd7c0a9398a42f,2024-02-22_00h29.07.047,kallum_motion_pilot,2023.2.2,Linux x86_64,60.09615385,603fb04d42dd7c0a9398a42f,65d6bb0e977760de756971f7,65d6bee16cbfc377f68bee76,0.103,0.103,0,57,57,12,1,threeone,,,,,,,,,,,,,,,,,,,,,,,,,,,,,,,,,,,,,,,,,,,,,,,,,,,,,,,,,,,,,,,,,,,,,,,,,,,,,,,,,,,,,,,,,,,,,,,,,,,,,,,,,,,,,,,,,,,,,,,,,,,,,,,,,,,,,,,,,
,,603fb04d42dd7c0a9398a42f,2024-02-22_00h29.07.047,kallum_motion_pilot,2023.2.2,Linux x86_64,60.09615385,603fb04d42dd7c0a9398a42f,65d6bb0e977760de756971f7,65d6bee16cbfc377f68bee76,0.103,0.103,0,58,58,78,1,fourtwo,,,,,,,,,,,,,,,,,,,,,,,,,,,,,,,,,,,,,,,,,,,,,,,,,,,,,,,,,,,,,,,,,,,,,,,,,,,,,,,,,,,,,,,,,,,,,,,,,,,,,,,,,,,,,,,,,,,,,,,,,,,,,,,,,,,,,,,,,
,,603fb04d42dd7c0a9398a42f,2024-02-22_00h29.07.047,kallum_motion_pilot,2023.2.2,Linux x86_64,60.09615385,603fb04d42dd7c0a9398a42f,65d6bb0e977760de756971f7,65d6bee16cbfc377f68bee76,0.103,0.103,0,59,59,90,1,sixfive,,,,,,,,,,,,,,,,,,,,,,,,,,,,,,,,,,,,,,,,,,,,,,,,,,,,,,,,,,,,,,,,,,,,,,,,,,,,,,,,,,,,,,,,,,,,,,,,,,,,,,,,,,,,,,,,,,,,,,,,,,,,,,,,,,,,,,,,,
,,603fb04d42dd7c0a9398a42f,2024-02-22_00h29.07.047,kallum_motion_pilot,2023.2.2,Linux x86_64,60.09615385,603fb04d42dd7c0a9398a42f,65d6bb0e977760de756971f7,65d6bee16cbfc377f68bee76,0.104,0.109,0,60,60,131,1,sixeight,,,,,,,,,,,,,,,,,,,,,,,,,,,,,,,,,,,,,,,,,,,,,,,,,,,,,,,,,,,,,,,,,,,,,,,,,,,,,,,,,,,,,,,,,,,,,,,,,,,,,,,,,,,,,,,,,,,,,,,,,,,,,,,,,,,,,,,,,
,,603fb04d42dd7c0a9398a42f,2024-02-22_00h29.07.047,kallum_motion_pilot,2023.2.2,Linux x86_64,60.09615385,603fb04d42dd7c0a9398a42f,65d6bb0e977760de756971f7,65d6bee16cbfc377f68bee76,0.109,0.109,0,61,61,9,1,onethree,,,,,,,,,,,,,,,,,,,,,,,,,,,,,,,,,,,,,,,,,,,,,,,,,,,,,,,,,,,,,,,,,,,,,,,,,,,,,,,,,,,,,,,,,,,,,,,,,,,,,,,,,,,,,,,,,,,,,,,,,,,,,,,,,,,,,,,,,
,,603fb04d42dd7c0a9398a42f,2024-02-22_00h29.07.047,kallum_motion_pilot,2023.2.2,Linux x86_64,60.09615385,603fb04d42dd7c0a9398a42f,65d6bb0e977760de756971f7,65d6bee16cbfc377f68bee76,0.11,0.11,0,62,62,111,1,eightseven,,,,,,,,,,,,,,,,,,,,,,,,,,,,,,,,,,,,,,,,,,,,,,,,,,,,,,,,,,,,,,,,,,,,,,,,,,,,,,,,,,,,,,,,,,,,,,,,,,,,,,,,,,,,,,,,,,,,,,,,,,,,,,,,,,,,,,,,,
,,603fb04d42dd7c0a9398a42f,2024-02-22_00h29.07.047,kallum_motion_pilot,2023.2.2,Linux x86_64,60.09615385,603fb04d42dd7c0a9398a42f,65d6bb0e977760de756971f7,65d6bee16cbfc377f68bee76,0.11,0.11,0,63,63,60,1,threeone,,,,,,,,,,,,,,,,,,,,,,,,,,,,,,,,,,,,,,,,,,,,,,,,,,,,,,,,,,,,,,,,,,,,,,,,,,,,,,,,,,,,,,,,,,,,,,,,,,,,,,,,,,,,,,,,,,,,,,,,,,,,,,,,,,,,,,,,,
,,603fb04d42dd7c0a9398a42f,2024-02-22_00h29.07.047,kallum_motion_pilot,2023.2.2,Linux x86_64,60.09615385,603fb04d42dd7c0a9398a42f,65d6bb0e977760de756971f7,65d6bee16cbfc377f68bee76,0.111,0.111,0,64,64,115,1,sixeight,,,,,,,,,,,,,,,,,,,,,,,,,,,,,,,,,,,,,,,,,,,,,,,,,,,,,,,,,,,,,,,,,,,,,,,,,,,,,,,,,,,,,,,,,,,,,,,,,,,,,,,,,,,,,,,,,,,,,,,,,,,,,,,,,,,,,,,,,
,,603fb04d42dd7c0a9398a42f,2024-02-22_00h29.07.047,kallum_motion_pilot,2023.2.2,Linux x86_64,60.09615385,603fb04d42dd7c0a9398a42f,65d6bb0e977760de756971f7,65d6bee16cbfc377f68bee76,0.111,0.111,0,65,65,147,1,sixeight,,,,,,,,,,,,,,,,,,,,,,,,,,,,,,,,,,,,,,,,,,,,,,,,,,,,,,,,,,,,,,,,,,,,,,,,,,,,,,,,,,,,,,,,,,,,,,,,,,,,,,,,,,,,,,,,,,,,,,,,,,,,,,,,,,,,,,,,,
,,603fb04d42dd7c0a9398a42f,2024-02-22_00h29.07.047,kallum_motion_pilot,2023.2.2,Linux x86_64,60.09615385,603fb04d42dd7c0a9398a42f,65d6bb0e977760de756971f7,65d6bee16cbfc377f68bee76,0.112,0.112,0,66,66,48,1,onetwo,,,,,,,,,,,,,,,,,,,,,,,,,,,,,,,,,,,,,,,,,,,,,,,,,,,,,,,,,,,,,,,,,,,,,,,,,,,,,,,,,,,,,,,,,,,,,,,,,,,,,,,,,,,,,,,,,,,,,,,,,,,,,,,,,,,,,,,,,
,,603fb04d42dd7c0a9398a42f,2024-02-22_00h29.07.047,kallum_motion_pilot,2023.2.2,Linux x86_64,60.09615385,603fb04d42dd7c0a9398a42f,65d6bb0e977760de756971f7,65d6bee16cbfc377f68bee76,0.112,0.112,0,67,67,154,1,sixfive,,,,,,,,,,,,,,,,,,,,,,,,,,,,,,,,,,,,,,,,,,,,,,,,,,,,,,,,,,,,,,,,,,,,,,,,,,,,,,,,,,,,,,,,,,,,,,,,,,,,,,,,,,,,,,,,,,,,,,,,,,,,,,,,,,,,,,,,,
,,603fb04d42dd7c0a9398a42f,2024-02-22_00h29.07.047,kallum_motion_pilot,2023.2.2,Linux x86_64,60.09615385,603fb04d42dd7c0a9398a42f,65d6bb0e977760de756971f7,65d6bee16cbfc377f68bee76,0.112,0.112,0,68,68,2,1,twoone,,,,,,,,,,,,,,,,,,,,,,,,,,,,,,,,,,,,,,,,,,,,,,,,,,,,,,,,,,,,,,,,,,,,,,,,,,,,,,,,,,,,,,,,,,,,,,,,,,,,,,,,,,,,,,,,,,,,,,,,,,,,,,,,,,,,,,,,,
,,603fb04d42dd7c0a9398a42f,2024-02-22_00h29.07.047,kallum_motion_pilot,2023.2.2,Linux x86_64,60.09615385,603fb04d42dd7c0a9398a42f,65d6bb0e977760de756971f7,65d6bee16cbfc377f68bee76,0.112,0.112,0,69,69,106,1,sixfive,,,,,,,,,,,,,,,,,,,,,,,,,,,,,,,,,,,,,,,,,,,,,,,,,,,,,,,,,,,,,,,,,,,,,,,,,,,,,,,,,,,,,,,,,,,,,,,,,,,,,,,,,,,,,,,,,,,,,,,,,,,,,,,,,,,,,,,,,
,,603fb04d42dd7c0a9398a42f,2024-02-22_00h29.07.047,kallum_motion_pilot,2023.2.2,Linux x86_64,60.09615385,603fb04d42dd7c0a9398a42f,65d6bb0e977760de756971f7,65d6bee16cbfc377f68bee76,0.113,0.113,0,70,70,56,1,onetwo,,,,,,,,,,,,,,,,,,,,,,,,,,,,,,,,,,,,,,,,,,,,,,,,,,,,,,,,,,,,,,,,,,,,,,,,,,,,,,,,,,,,,,,,,,,,,,,,,,,,,,,,,,,,,,,,,,,,,,,,,,,,,,,,,,,,,,,,,
,,603fb04d42dd7c0a9398a42f,2024-02-22_00h29.07.047,kallum_motion_pilot,2023.2.2,Linux x86_64,60.09615385,603fb04d42dd7c0a9398a42f,65d6bb0e977760de756971f7,65d6bee16cbfc377f68bee76,0.113,0.113,0,71,71,62,1,fourtwo,,,,,,,,,,,,,,,,,,,,,,,,,,,,,,,,,,,,,,,,,,,,,,,,,,,,,,,,,,,,,,,,,,,,,,,,,,,,,,,,,,,,,,,,,,,,,,,,,,,,,,,,,,,,,,,,,,,,,,,,,,,,,,,,,,,,,,,,,
,,603fb04d42dd7c0a9398a42f,2024-02-22_00h29.07.047,kallum_motion_pilot,2023.2.2,Linux x86_64,60.09615385,603fb04d42dd7c0a9398a42f,65d6bb0e977760de756971f7,65d6bee16cbfc377f68bee76,0.113,0.113,0,72,72,6,1,fourtwo,,,,,,,,,,,,,,,,,,,,,,,,,,,,,,,,,,,,,,,,,,,,,,,,,,,,,,,,,,,,,,,,,,,,,,,,,,,,,,,,,,,,,,,,,,,,,,,,,,,,,,,,,,,,,,,,,,,,,,,,,,,,,,,,,,,,,,,,,
,,603fb04d42dd7c0a9398a42f,2024-02-22_00h29.07.047,kallum_motion_pilot,2023.2.2,Linux x86_64,60.09615385,603fb04d42dd7c0a9398a42f,65d6bb0e977760de756971f7,65d6bee16cbfc377f68bee76,0.114,0.114,0,73,73,39,1,fourthree,,,,,,,,,,,,,,,,,,,,,,,,,,,,,,,,,,,,,,,,,,,,,,,,,,,,,,,,,,,,,,,,,,,,,,,,,,,,,,,,,,,,,,,,,,,,,,,,,,,,,,,,,,,,,,,,,,,,,,,,,,,,,,,,,,,,,,,,,
,,603fb04d42dd7c0a9398a42f,2024-02-22_00h29.07.047,kallum_motion_pilot,2023.2.2,Linux x86_64,60.09615385,603fb04d42dd7c0a9398a42f,65d6bb0e977760de756971f7,65d6bee16cbfc377f68bee76,0.114,0.114,0,74,74,80,1,fivesix,,,,,,,,,,,,,,,,,,,,,,,,,,,,,,,,,,,,,,,,,,,,,,,,,,,,,,,,,,,,,,,,,,,,,,,,,,,,,,,,,,,,,,,,,,,,,,,,,,,,,,,,,,,,,,,,,,,,,,,,,,,,,,,,,,,,,,,,,
,,603fb04d42dd7c0a9398a42f,2024-02-22_00h29.07.047,kallum_motion_pilot,2023.2.2,Linux x86_64,60.09615385,603fb04d42dd7c0a9398a42f,65d6bb0e977760de756971f7,65d6bee16cbfc377f68bee76,0.115,0.115,0,75,75,54,1,fourtwo,,,,,,,,,,,,,,,,,,,,,,,,,,,,,,,,,,,,,,,,,,,,,,,,,,,,,,,,,,,,,,,,,,,,,,,,,,,,,,,,,,,,,,,,,,,,,,,,,,,,,,,,,,,,,,,,,,,,,,,,,,,,,,,,,,,,,,,,,
,,603fb04d42dd7c0a9398a42f,2024-02-22_00h29.07.047,kallum_motion_pilot,2023.2.2,Linux x86_64,60.09615385,603fb04d42dd7c0a9398a42f,65d6bb0e977760de756971f7,65d6bee16cbfc377f68bee76,0.116,0.116,0,76,76,124,1,sevenfive,,,,,,,,,,,,,,,,,,,,,,,,,,,,,,,,,,,,,,,,,,,,,,,,,,,,,,,,,,,,,,,,,,,,,,,,,,,,,,,,,,,,,,,,,,,,,,,,,,,,,,,,,,,,,,,,,,,,,,,,,,,,,,,,,,,,,,,,,
,,603fb04d42dd7c0a9398a42f,2024-02-22_00h29.07.047,kallum_motion_pilot,2023.2.2,Linux x86_64,60.09615385,603fb04d42dd7c0a9398a42f,65d6bb0e977760de756971f7,65d6bee16cbfc377f68bee76,0.117,0.117,0,77,77,76,1,threeone,,,,,,,,,,,,,,,,,,,,,,,,,,,,,,,,,,,,,,,,,,,,,,,,,,,,,,,,,,,,,,,,,,,,,,,,,,,,,,,,,,,,,,,,,,,,,,,,,,,,,,,,,,,,,,,,,,,,,,,,,,,,,,,,,,,,,,,,,
,,603fb04d42dd7c0a9398a42f,2024-02-22_00h29.07.047,kallum_motion_pilot,2023.2.2,Linux x86_64,60.09615385,603fb04d42dd7c0a9398a42f,65d6bb0e977760de756971f7,65d6bee16cbfc377f68bee76,0.118,0.118,0,78,78,72,1,onetwo,,,,,,,,,,,,,,,,,,,,,,,,,,,,,,,,,,,,,,,,,,,,,,,,,,,,,,,,,,,,,,,,,,,,,,,,,,,,,,,,,,,,,,,,,,,,,,,,,,,,,,,,,,,,,,,,,,,,,,,,,,,,,,,,,,,,,,,,,
,,603fb04d42dd7c0a9398a42f,2024-02-22_00h29.07.047,kallum_motion_pilot,2023.2.2,Linux x86_64,60.09615385,603fb04d42dd7c0a9398a42f,65d6bb0e977760de756971f7,65d6bee16cbfc377f68bee76,0.118,0.118,0,79,79,83,1,sixeight,,,,,,,,,,,,,,,,,,,,,,,,,,,,,,,,,,,,,,,,,,,,,,,,,,,,,,,,,,,,,,,,,,,,,,,,,,,,,,,,,,,,,,,,,,,,,,,,,,,,,,,,,,,,,,,,,,,,,,,,,,,,,,,,,,,,,,,,,
,,603fb04d42dd7c0a9398a42f,2024-02-22_00h29.07.047,kallum_motion_pilot,2023.2.2,Linux x86_64,60.09615385,603fb04d42dd7c0a9398a42f,65d6bb0e977760de756971f7,65d6bee16cbfc377f68bee76,0.118,0.118,0,80,80,51,1,twofour,,,,,,,,,,,,,,,,,,,,,,,,,,,,,,,,,,,,,,,,,,,,,,,,,,,,,,,,,,,,,,,,,,,,,,,,,,,,,,,,,,,,,,,,,,,,,,,,,,,,,,,,,,,,,,,,,,,,,,,,,,,,,,,,,,,,,,,,,
,,603fb04d42dd7c0a9398a42f,2024-02-22_00h29.07.047,kallum_motion_pilot,2023.2.2,Linux x86_64,60.09615385,603fb04d42dd7c0a9398a42f,65d6bb0e977760de756971f7,65d6bee16cbfc377f68bee76,0.118,0.118,0,81,81,153,1,fiveseven,,,,,,,,,,,,,,,,,,,,,,,,,,,,,,,,,,,,,,,,,,,,,,,,,,,,,,,,,,,,,,,,,,,,,,,,,,,,,,,,,,,,,,,,,,,,,,,,,,,,,,,,,,,,,,,,,,,,,,,,,,,,,,,,,,,,,,,,,
,,603fb04d42dd7c0a9398a42f,2024-02-22_00h29.07.047,kallum_motion_pilot,2023.2.2,Linux x86_64,60.09615385,603fb04d42dd7c0a9398a42f,65d6bb0e977760de756971f7,65d6bee16cbfc377f68bee76,0.119,0.119,0,82,82,42,1,twoone,,,,,,,,,,,,,,,,,,,,,,,,,,,,,,,,,,,,,,,,,,,,,,,,,,,,,,,,,,,,,,,,,,,,,,,,,,,,,,,,,,,,,,,,,,,,,,,,,,,,,,,,,,,,,,,,,,,,,,,,,,,,,,,,,,,,,,,,,
,,603fb04d42dd7c0a9398a42f,2024-02-22_00h29.07.047,kallum_motion_pilot,2023.2.2,Linux x86_64,60.09615385,603fb04d42dd7c0a9398a42f,65d6bb0e977760de756971f7,65d6bee16cbfc377f68bee76,0.119,0.119,0,83,83,70,1,fourtwo,,,,,,,,,,,,,,,,,,,,,,,,,,,,,,,,,,,,,,,,,,,,,,,,,,,,,,,,,,,,,,,,,,,,,,,,,,,,,,,,,,,,,,,,,,,,,,,,,,,,,,,,,,,,,,,,,,,,,,,,,,,,,,,,,,,,,,,,,
,,603fb04d42dd7c0a9398a42f,2024-02-22_00h29.07.047,kallum_motion_pilot,2023.2.2,Linux x86_64,60.09615385,603fb04d42dd7c0a9398a42f,65d6bb0e977760de756971f7,65d6bee16cbfc377f68bee76,0.12,0.12,0,84,84,74,1,twoone,,,,,,,,,,,,,,,,,,,,,,,,,,,,,,,,,,,,,,,,,,,,,,,,,,,,,,,,,,,,,,,,,,,,,,,,,,,,,,,,,,,,,,,,,,,,,,,,,,,,,,,,,,,,,,,,,,,,,,,,,,,,,,,,,,,,,,,,,
,,603fb04d42dd7c0a9398a42f,2024-02-22_00h29.07.047,kallum_motion_pilot,2023.2.2,Linux x86_64,60.09615385,603fb04d42dd7c0a9398a42f,65d6bb0e977760de756971f7,65d6bee16cbfc377f68bee76,0.12,0.12,0,85,85,100,1,sevenfive,,,,,,,,,,,,,,,,,,,,,,,,,,,,,,,,,,,,,,,,,,,,,,,,,,,,,,,,,,,,,,,,,,,,,,,,,,,,,,,,,,,,,,,,,,,,,,,,,,,,,,,,,,,,,,,,,,,,,,,,,,,,,,,,,,,,,,,,,
,,603fb04d42dd7c0a9398a42f,2024-02-22_00h29.07.047,kallum_motion_pilot,2023.2.2,Linux x86_64,60.09615385,603fb04d42dd7c0a9398a42f,65d6bb0e977760de756971f7,65d6bee16cbfc377f68bee76,0.12,0.12,0,86,86,85,1,seveneight,,,,,,,,,,,,,,,,,,,,,,,,,,,,,,,,,,,,,,,,,,,,,,,,,,,,,,,,,,,,,,,,,,,,,,,,,,,,,,,,,,,,,,,,,,,,,,,,,,,,,,,,,,,,,,,,,,,,,,,,,,,,,,,,,,,,,,,,,
,,603fb04d42dd7c0a9398a42f,2024-02-22_00h29.07.047,kallum_motion_pilot,2023.2.2,Linux x86_64,60.09615385,603fb04d42dd7c0a9398a42f,65d6bb0e977760de756971f7,65d6bee16cbfc377f68bee76,0.12,0.12,0,87,87,4,1,threeone,,,,,,,,,,,,,,,,,,,,,,,,,,,,,,,,,,,,,,,,,,,,,,,,,,,,,,,,,,,,,,,,,,,,,,,,,,,,,,,,,,,,,,,,,,,,,,,,,,,,,,,,,,,,,,,,,,,,,,,,,,,,,,,,,,,,,,,,,
,,603fb04d42dd7c0a9398a42f,2024-02-22_00h29.07.047,kallum_motion_pilot,2023.2.2,Linux x86_64,60.09615385,603fb04d42dd7c0a9398a42f,65d6bb0e977760de756971f7,65d6bee16cbfc377f68bee76,0.121,0.121,0,88,88,119,1,eightseven,,,,,,,,,,,,,,,,,,,,,,,,,,,,,,,,,,,,,,,,,,,,,,,,,,,,,,,,,,,,,,,,,,,,,,,,,,,,,,,,,,,,,,,,,,,,,,,,,,,,,,,,,,,,,,,,,,,,,,,,,,,,,,,,,,,,,,,,,
,,603fb04d42dd7c0a9398a42f,2024-02-22_00h29.07.047,kallum_motion_pilot,2023.2.2,Linux x86_64,60.09615385,603fb04d42dd7c0a9398a42f,65d6bb0e977760de756971f7,65d6bee16cbfc377f68bee76,0.121,0.121,0,89,89,152,1,fivesix,,,,,,,,,,,,,,,,,,,,,,,,,,,,,,,,,,,,,,,,,,,,,,,,,,,,,,,,,,,,,,,,,,,,,,,,,,,,,,,,,,,,,,,,,,,,,,,,,,,,,,,,,,,,,,,,,,,,,,,,,,,,,,,,,,,,,,,,,
,,603fb04d42dd7c0a9398a42f,2024-02-22_00h29.07.047,kallum_motion_pilot,2023.2.2,Linux x86_64,60.09615385,603fb04d42dd7c0a9398a42f,65d6bb0e977760de756971f7,65d6bee16cbfc377f68bee76,0.121,0.121,0,90,90,127,1,eightseven,,,,,,,,,,,,,,,,,,,,,,,,,,,,,,,,,,,,,,,,,,,,,,,,,,,,,,,,,,,,,,,,,,,,,,,,,,,,,,,,,,,,,,,,,,,,,,,,,,,,,,,,,,,,,,,,,,,,,,,,,,,,,,,,,,,,,,,,,
,,603fb04d42dd7c0a9398a42f,2024-02-22_00h29.07.047,kallum_motion_pilot,2023.2.2,Linux x86_64,60.09615385,603fb04d42dd7c0a9398a42f,65d6bb0e977760de756971f7,65d6bee16cbfc377f68bee76,0.121,0.122,0,91,91,110,1,eightsix,,,,,,,,,,,,,,,,,,,,,,,,,,,,,,,,,,,,,,,,,,,,,,,,,,,,,,,,,,,,,,,,,,,,,,,,,,,,,,,,,,,,,,,,,,,,,,,,,,,,,,,,,,,,,,,,,,,,,,,,,,,,,,,,,,,,,,,,,
,,603fb04d42dd7c0a9398a42f,2024-02-22_00h29.07.047,kallum_motion_pilot,2023.2.2,Linux x86_64,60.09615385,603fb04d42dd7c0a9398a42f,65d6bb0e977760de756971f7,65d6bee16cbfc377f68bee76,0.122,0.122,0,92,92,20,1,threeone,,,,,,,,,,,,,,,,,,,,,,,,,,,,,,,,,,,,,,,,,,,,,,,,,,,,,,,,,,,,,,,,,,,,,,,,,,,,,,,,,,,,,,,,,,,,,,,,,,,,,,,,,,,,,,,,,,,,,,,,,,,,,,,,,,,,,,,,,
,,603fb04d42dd7c0a9398a42f,2024-02-22_00h29.07.047,kallum_motion_pilot,2023.2.2,Linux x86_64,60.09615385,603fb04d42dd7c0a9398a42f,65d6bb0e977760de756971f7,65d6bee16cbfc377f68bee76,0.122,0.123,0,93,93,41,1,onethree,,,,,,,,,,,,,,,,,,,,,,,,,,,,,,,,,,,,,,,,,,,,,,,,,,,,,,,,,,,,,,,,,,,,,,,,,,,,,,,,,,,,,,,,,,,,,,,,,,,,,,,,,,,,,,,,,,,,,,,,,,,,,,,,,,,,,,,,,
,,603fb04d42dd7c0a9398a42f,2024-02-22_00h29.07.047,kallum_motion_pilot,2023.2.2,Linux x86_64,60.09615385,603fb04d42dd7c0a9398a42f,65d6bb0e977760de756971f7,65d6bee16cbfc377f68bee76,0.123,0.123,0,94,94,84,1,sevenfive,,,,,,,,,,,,,,,,,,,,,,,,,,,,,,,,,,,,,,,,,,,,,,,,,,,,,,,,,,,,,,,,,,,,,,,,,,,,,,,,,,,,,,,,,,,,,,,,,,,,,,,,,,,,,,,,,,,,,,,,,,,,,,,,,,,,,,,,,
,,603fb04d42dd7c0a9398a42f,2024-02-22_00h29.07.047,kallum_motion_pilot,2023.2.2,Linux x86_64,60.09615385,603fb04d42dd7c0a9398a42f,65d6bb0e977760de756971f7,65d6bee16cbfc377f68bee76,0.124,0.124,0,95,95,71,1,fourthree,,,,,,,,,,,,,,,,,,,,,,,,,,,,,,,,,,,,,,,,,,,,,,,,,,,,,,,,,,,,,,,,,,,,,,,,,,,,,,,,,,,,,,,,,,,,,,,,,,,,,,,,,,,,,,,,,,,,,,,,,,,,,,,,,,,,,,,,,
,,603fb04d42dd7c0a9398a42f,2024-02-22_00h29.07.047,kallum_motion_pilot,2023.2.2,Linux x86_64,60.09615385,603fb04d42dd7c0a9398a42f,65d6bb0e977760de756971f7,65d6bee16cbfc377f68bee76,0.124,0.124,0,96,96,5,1,threefour,,,,,,,,,,,,,,,,,,,,,,,,,,,,,,,,,,,,,,,,,,,,,,,,,,,,,,,,,,,,,,,,,,,,,,,,,,,,,,,,,,,,,,,,,,,,,,,,,,,,,,,,,,,,,,,,,,,,,,,,,,,,,,,,,,,,,,,,,
,,603fb04d42dd7c0a9398a42f,2024-02-22_00h29.07.047,kallum_motion_pilot,2023.2.2,Linux x86_64,60.09615385,603fb04d42dd7c0a9398a42f,65d6bb0e977760de756971f7,65d6bee16cbfc377f68bee76,0.124,0.124,0,97,97,58,1,twoone,,,,,,,,,,,,,,,,,,,,,,,,,,,,,,,,,,,,,,,,,,,,,,,,,,,,,,,,,,,,,,,,,,,,,,,,,,,,,,,,,,,,,,,,,,,,,,,,,,,,,,,,,,,,,,,,,,,,,,,,,,,,,,,,,,,,,,,,,
,,603fb04d42dd7c0a9398a42f,2024-02-22_00h29.07.047,kallum_motion_pilot,2023.2.2,Linux x86_64,60.09615385,603fb04d42dd7c0a9398a42f,65d6bb0e977760de756971f7,65d6bee16cbfc377f68bee76,0.125,0.125,0,98,98,120,1,fivesix,,,,,,,,,,,,,,,,,,,,,,,,,,,,,,,,,,,,,,,,,,,,,,,,,,,,,,,,,,,,,,,,,,,,,,,,,,,,,,,,,,,,,,,,,,,,,,,,,,,,,,,,,,,,,,,,,,,,,,,,,,,,,,,,,,,,,,,,,
,,603fb04d42dd7c0a9398a42f,2024-02-22_00h29.07.047,kallum_motion_pilot,2023.2.2,Linux x86_64,60.09615385,603fb04d42dd7c0a9398a42f,65d6bb0e977760de756971f7,65d6bee16cbfc377f68bee76,0.126,0.126,0,99,99,133,1,seveneight,,,,,,,,,,,,,,,,,,,,,,,,,,,,,,,,,,,,,,,,,,,,,,,,,,,,,,,,,,,,,,,,,,,,,,,,,,,,,,,,,,,,,,,,,,,,,,,,,,,,,,,,,,,,,,,,,,,,,,,,,,,,,,,,,,,,,,,,,
,,603fb04d42dd7c0a9398a42f,2024-02-22_00h29.07.047,kallum_motion_pilot,2023.2.2,Linux x86_64,60.09615385,603fb04d42dd7c0a9398a42f,65d6bb0e977760de756971f7,65d6bee16cbfc377f68bee76,0.126,0.126,0,100,100,13,1,threefour,,,,,,,,,,,,,,,,,,,,,,,,,,,,,,,,,,,,,,,,,,,,,,,,,,,,,,,,,,,,,,,,,,,,,,,,,,,,,,,,,,,,,,,,,,,,,,,,,,,,,,,,,,,,,,,,,,,,,,,,,,,,,,,,,,,,,,,,,
,,603fb04d42dd7c0a9398a42f,2024-02-22_00h29.07.047,kallum_motion_pilot,2023.2.2,Linux x86_64,60.09615385,603fb04d42dd7c0a9398a42f,65d6bb0e977760de756971f7,65d6bee16cbfc377f68bee76,0.126,0.127,0,101,101,23,1,fourthree,,,,,,,,,,,,,,,,,,,,,,,,,,,,,,,,,,,,,,,,,,,,,,,,,,,,,,,,,,,,,,,,,,,,,,,,,,,,,,,,,,,,,,,,,,,,,,,,,,,,,,,,,,,,,,,,,,,,,,,,,,,,,,,,,,,,,,,,,
,,603fb04d42dd7c0a9398a42f,2024-02-22_00h29.07.047,kallum_motion_pilot,2023.2.2,Linux x86_64,60.09615385,603fb04d42dd7c0a9398a42f,65d6bb0e977760de756971f7,65d6bee16cbfc377f68bee76,0.127,0.127,0,102,102,129,1,fiveseven,,,,,,,,,,,,,,,,,,,,,,,,,,,,,,,,,,,,,,,,,,,,,,,,,,,,,,,,,,,,,,,,,,,,,,,,,,,,,,,,,,,,,,,,,,,,,,,,,,,,,,,,,,,,,,,,,,,,,,,,,,,,,,,,,,,,,,,,,
,,603fb04d42dd7c0a9398a42f,2024-02-22_00h29.07.047,kallum_motion_pilot,2023.2.2,Linux x86_64,60.09615385,603fb04d42dd7c0a9398a42f,65d6bb0e977760de756971f7,65d6bee16cbfc377f68bee76,0.127,0.127,0,103,103,29,1,threefour,,,,,,,,,,,,,,,,,,,,,,,,,,,,,,,,,,,,,,,,,,,,,,,,,,,,,,,,,,,,,,,,,,,,,,,,,,,,,,,,,,,,,,,,,,,,,,,,,,,,,,,,,,,,,,,,,,,,,,,,,,,,,,,,,,,,,,,,,
,,603fb04d42dd7c0a9398a42f,2024-02-22_00h29.07.047,kallum_motion_pilot,2023.2.2,Linux x86_64,60.09615385,603fb04d42dd7c0a9398a42f,65d6bb0e977760de756971f7,65d6bee16cbfc377f68bee76,0.127,0.127,0,104,104,137,1,fiveseven,,,,,,,,,,,,,,,,,,,,,,,,,,,,,,,,,,,,,,,,,,,,,,,,,,,,,,,,,,,,,,,,,,,,,,,,,,,,,,,,,,,,,,,,,,,,,,,,,,,,,,,,,,,,,,,,,,,,,,,,,,,,,,,,,,,,,,,,,
,,603fb04d42dd7c0a9398a42f,2024-02-22_00h29.07.047,kallum_motion_pilot,2023.2.2,Linux x86_64,60.09615385,603fb04d42dd7c0a9398a42f,65d6bb0e977760de756971f7,65d6bee16cbfc377f68bee76,0.128,0.128,0,105,105,57,1,onethree,,,,,,,,,,,,,,,,,,,,,,,,,,,,,,,,,,,,,,,,,,,,,,,,,,,,,,,,,,,,,,,,,,,,,,,,,,,,,,,,,,,,,,,,,,,,,,,,,,,,,,,,,,,,,,,,,,,,,,,,,,,,,,,,,,,,,,,,,
,,603fb04d42dd7c0a9398a42f,2024-02-22_00h29.07.047,kallum_motion_pilot,2023.2.2,Linux x86_64,60.09615385,603fb04d42dd7c0a9398a42f,65d6bb0e977760de756971f7,65d6bee16cbfc377f68bee76,0.128,0.128,0,106,106,116,1,sevenfive,,,,,,,,,,,,,,,,,,,,,,,,,,,,,,,,,,,,,,,,,,,,,,,,,,,,,,,,,,,,,,,,,,,,,,,,,,,,,,,,,,,,,,,,,,,,,,,,,,,,,,,,,,,,,,,,,,,,,,,,,,,,,,,,,,,,,,,,,
,,603fb04d42dd7c0a9398a42f,2024-02-22_00h29.07.047,kallum_motion_pilot,2023.2.2,Linux x86_64,60.09615385,603fb04d42dd7c0a9398a42f,65d6bb0e977760de756971f7,65d6bee16cbfc377f68bee76,0.128,0.128,0,107,107,3,1,twofour,,,,,,,,,,,,,,,,,,,,,,,,,,,,,,,,,,,,,,,,,,,,,,,,,,,,,,,,,,,,,,,,,,,,,,,,,,,,,,,,,,,,,,,,,,,,,,,,,,,,,,,,,,,,,,,,,,,,,,,,,,,,,,,,,,,,,,,,,
,,603fb04d42dd7c0a9398a42f,2024-02-22_00h29.07.047,kallum_motion_pilot,2023.2.2,Linux x86_64,60.09615385,603fb04d42dd7c0a9398a42f,65d6bb0e977760de756971f7,65d6bee16cbfc377f68bee76,0.129,0.129,0,108,108,21,1,threefour,,,,,,,,,,,,,,,,,,,,,,,,,,,,,,,,,,,,,,,,,,,,,,,,,,,,,,,,,,,,,,,,,,,,,,,,,,,,,,,,,,,,,,,,,,,,,,,,,,,,,,,,,,,,,,,,,,,,,,,,,,,,,,,,,,,,,,,,,
,,603fb04d42dd7c0a9398a42f,2024-02-22_00h29.07.047,kallum_motion_pilot,2023.2.2,Linux x86_64,60.09615385,603fb04d42dd7c0a9398a42f,65d6bb0e977760de756971f7,65d6bee16cbfc377f68bee76,0.129,0.129,0,109,109,113,1,fiveseven,,,,,,,,,,,,,,,,,,,,,,,,,,,,,,,,,,,,,,,,,,,,,,,,,,,,,,,,,,,,,,,,,,,,,,,,,,,,,,,,,,,,,,,,,,,,,,,,,,,,,,,,,,,,,,,,,,,,,,,,,,,,,,,,,,,,,,,,,
,,603fb04d42dd7c0a9398a42f,2024-02-22_00h29.07.047,kallum_motion_pilot,2023.2.2,Linux x86_64,60.09615385,603fb04d42dd7c0a9398a42f,65d6bb0e977760de756971f7,65d6bee16cbfc377f68bee76,0.129,0.129,0,110,110,81,1,fiveseven,,,,,,,,,,,,,,,,,,,,,,,,,,,,,,,,,,,,,,,,,,,,,,,,,,,,,,,,,,,,,,,,,,,,,,,,,,,,,,,,,,,,,,,,,,,,,,,,,,,,,,,,,,,,,,,,,,,,,,,,,,,,,,,,,,,,,,,,,
,,603fb04d42dd7c0a9398a42f,2024-02-22_00h29.07.047,kallum_motion_pilot,2023.2.2,Linux x86_64,60.09615385,603fb04d42dd7c0a9398a42f,65d6bb0e977760de756971f7,65d6bee16cbfc377f68bee76,0.129,0.129,0,111,111,63,1,fourthree,,,,,,,,,,,,,,,,,,,,,,,,,,,,,,,,,,,,,,,,,,,,,,,,,,,,,,,,,,,,,,,,,,,,,,,,,,,,,,,,,,,,,,,,,,,,,,,,,,,,,,,,,,,,,,,,,,,,,,,,,,,,,,,,,,,,,,,,,
,,603fb04d42dd7c0a9398a42f,2024-02-22_00h29.07.047,kallum_motion_pilot,2023.2.2,Linux x86_64,60.09615385,603fb04d42dd7c0a9398a42f,65d6bb0e977760de756971f7,65d6bee16cbfc377f68bee76,0.13,0.13,0,112,112,16,1,onetwo,,,,,,,,,,,,,,,,,,,,,,,,,,,,,,,,,,,,,,,,,,,,,,,,,,,,,,,,,,,,,,,,,,,,,,,,,,,,,,,,,,,,,,,,,,,,,,,,,,,,,,,,,,,,,,,,,,,,,,,,,,,,,,,,,,,,,,,,,
,,603fb04d42dd7c0a9398a42f,2024-02-22_00h29.07.047,kallum_motion_pilot,2023.2.2,Linux x86_64,60.09615385,603fb04d42dd7c0a9398a42f,65d6bb0e977760de756971f7,65d6bee16cbfc377f68bee76,0.13,0.13,0,113,113,139,1,sixeight,,,,,,,,,,,,,,,,,,,,,,,,,,,,,,,,,,,,,,,,,,,,,,,,,,,,,,,,,,,,,,,,,,,,,,,,,,,,,,,,,,,,,,,,,,,,,,,,,,,,,,,,,,,,,,,,,,,,,,,,,,,,,,,,,,,,,,,,,
,,603fb04d42dd7c0a9398a42f,2024-02-22_00h29.07.047,kallum_motion_pilot,2023.2.2,Linux x86_64,60.09615385,603fb04d42dd7c0a9398a42f,65d6bb0e977760de756971f7,65d6bee16cbfc377f68bee76,0.131,0.131,0,114,114,14,1,fourtwo,,,,,,,,,,,,,,,,,,,,,,,,,,,,,,,,,,,,,,,,,,,,,,,,,,,,,,,,,,,,,,,,,,,,,,,,,,,,,,,,,,,,,,,,,,,,,,,,,,,,,,,,,,,,,,,,,,,,,,,,,,,,,,,,,,,,,,,,,
,,603fb04d42dd7c0a9398a42f,2024-02-22_00h29.07.047,kallum_motion_pilot,2023.2.2,Linux x86_64,60.09615385,603fb04d42dd7c0a9398a42f,65d6bb0e977760de756971f7,65d6bee16cbfc377f68bee76,0.131,0.131,0,115,115,69,1,threefour,,,,,,,,,,,,,,,,,,,,,,,,,,,,,,,,,,,,,,,,,,,,,,,,,,,,,,,,,,,,,,,,,,,,,,,,,,,,,,,,,,,,,,,,,,,,,,,,,,,,,,,,,,,,,,,,,,,,,,,,,,,,,,,,,,,,,,,,,
,,603fb04d42dd7c0a9398a42f,2024-02-22_00h29.07.047,kallum_motion_pilot,2023.2.2,Linux x86_64,60.09615385,603fb04d42dd7c0a9398a42f,65d6bb0e977760de756971f7,65d6bee16cbfc377f68bee76,0.132,0.132,0,116,116,121,1,fiveseven,,,,,,,,,,,,,,,,,,,,,,,,,,,,,,,,,,,,,,,,,,,,,,,,,,,,,,,,,,,,,,,,,,,,,,,,,,,,,,,,,,,,,,,,,,,,,,,,,,,,,,,,,,,,,,,,,,,,,,,,,,,,,,,,,,,,,,,,,
,,603fb04d42dd7c0a9398a42f,2024-02-22_00h29.07.047,kallum_motion_pilot,2023.2.2,Linux x86_64,60.09615385,603fb04d42dd7c0a9398a42f,65d6bb0e977760de756971f7,65d6bee16cbfc377f68bee76,0.132,0.132,0,117,117,77,1,threefour,,,,,,,,,,,,,,,,,,,,,,,,,,,,,,,,,,,,,,,,,,,,,,,,,,,,,,,,,,,,,,,,,,,,,,,,,,,,,,,,,,,,,,,,,,,,,,,,,,,,,,,,,,,,,,,,,,,,,,,,,,,,,,,,,,,,,,,,,
,,603fb04d42dd7c0a9398a42f,2024-02-22_00h29.07.047,kallum_motion_pilot,2023.2.2,Linux x86_64,60.09615385,603fb04d42dd7c0a9398a42f,65d6bb0e977760de756971f7,65d6bee16cbfc377f68bee76,0.132,0.132,0,118,118,67,1,twofour,,,,,,,,,,,,,,,,,,,,,,,,,,,,,,,,,,,,,,,,,,,,,,,,,,,,,,,,,,,,,,,,,,,,,,,,,,,,,,,,,,,,,,,,,,,,,,,,,,,,,,,,,,,,,,,,,,,,,,,,,,,,,,,,,,,,,,,,,
,,603fb04d42dd7c0a9398a42f,2024-02-22_00h29.07.047,kallum_motion_pilot,2023.2.2,Linux x86_64,60.09615385,603fb04d42dd7c0a9398a42f,65d6bb0e977760de756971f7,65d6bee16cbfc377f68bee76,0.132,0.132,0,119,119,118,1,eightsix,,,,,,,,,,,,,,,,,,,,,,,,,,,,,,,,,,,,,,,,,,,,,,,,,,,,,,,,,,,,,,,,,,,,,,,,,,,,,,,,,,,,,,,,,,,,,,,,,,,,,,,,,,,,,,,,,,,,,,,,,,,,,,,,,,,,,,,,,
,,603fb04d42dd7c0a9398a42f,2024-02-22_00h29.07.047,kallum_motion_pilot,2023.2.2,Linux x86_64,60.09615385,603fb04d42dd7c0a9398a42f,65d6bb0e977760de756971f7,65d6bee16cbfc377f68bee76,0.133,0.133,0,120,120,126,1,eightsix,,,,,,,,,,,,,,,,,,,,,,,,,,,,,,,,,,,,,,,,,,,,,,,,,,,,,,,,,,,,,,,,,,,,,,,,,,,,,,,,,,,,,,,,,,,,,,,,,,,,,,,,,,,,,,,,,,,,,,,,,,,,,,,,,,,,,,,,,
,,603fb04d42dd7c0a9398a42f,2024-02-22_00h29.07.047,kallum_motion_pilot,2023.2.2,Linux x86_64,60.09615385,603fb04d42dd7c0a9398a42f,65d6bb0e977760de756971f7,65d6bee16cbfc377f68bee76,0.133,0.133,0,121,121,79,1,eightseven,,,,,,,,,,,,,,,,,,,,,,,,,,,,,,,,,,,,,,,,,,,,,,,,,,,,,,,,,,,,,,,,,,,,,,,,,,,,,,,,,,,,,,,,,,,,,,,,,,,,,,,,,,,,,,,,,,,,,,,,,,,,,,,,,,,,,,,,,
,,603fb04d42dd7c0a9398a42f,2024-02-22_00h29.07.047,kallum_motion_pilot,2023.2.2,Linux x86_64,60.09615385,603fb04d42dd7c0a9398a42f,65d6bb0e977760de756971f7,65d6bee16cbfc377f68bee76,0.133,0.133,0,122,122,87,1,eightseven,,,,,,,,,,,,,,,,,,,,,,,,,,,,,,,,,,,,,,,,,,,,,,,,,,,,,,,,,,,,,,,,,,,,,,,,,,,,,,,,,,,,,,,,,,,,,,,,,,,,,,,,,,,,,,,,,,,,,,,,,,,,,,,,,,,,,,,,,
,,603fb04d42dd7c0a9398a42f,2024-02-22_00h29.07.047,kallum_motion_pilot,2023.2.2,Linux x86_64,60.09615385,603fb04d42dd7c0a9398a42f,65d6bb0e977760de756971f7,65d6bee16cbfc377f68bee76,0.133,0.133,0,123,123,103,1,eightseven,,,,,,,,,,,,,,,,,,,,,,,,,,,,,,,,,,,,,,,,,,,,,,,,,,,,,,,,,,,,,,,,,,,,,,,,,,,,,,,,,,,,,,,,,,,,,,,,,,,,,,,,,,,,,,,,,,,,,,,,,,,,,,,,,,,,,,,,,
,,603fb04d42dd7c0a9398a42f,2024-02-22_00h29.07.047,kallum_motion_pilot,2023.2.2,Linux x86_64,60.09615385,603fb04d42dd7c0a9398a42f,65d6bb0e977760de756971f7,65d6bee16cbfc377f68bee76,0.134,0.134,0,124,124,132,1,sevenfive,,,,,,,,,,,,,,,,,,,,,,,,,,,,,,,,,,,,,,,,,,,,,,,,,,,,,,,,,,,,,,,,,,,,,,,,,,,,,,,,,,,,,,,,,,,,,,,,,,,,,,,,,,,,,,,,,,,,,,,,,,,,,,,,,,,,,,,,,
,,603fb04d42dd7c0a9398a42f,2024-02-22_00h29.07.047,kallum_motion_pilot,2023.2.2,Linux x86_64,60.09615385,603fb04d42dd7c0a9398a42f,65d6bb0e977760de756971f7,65d6bee16cbfc377f68bee76,0.134,0.134,0,125,125,61,1,threefour,,,,,,,,,,,,,,,,,,,,,,,,,,,,,,,,,,,,,,,,,,,,,,,,,,,,,,,,,,,,,,,,,,,,,,,,,,,,,,,,,,,,,,,,,,,,,,,,,,,,,,,,,,,,,,,,,,,,,,,,,,,,,,,,,,,,,,,,,
,,603fb04d42dd7c0a9398a42f,2024-02-22_00h29.07.047,kallum_motion_pilot,2023.2.2,Linux x86_64,60.09615385,603fb04d42dd7c0a9398a42f,65d6bb0e977760de756971f7,65d6bee16cbfc377f68bee76,0.134,0.134,0,126,126,135,1,eightseven,,,,,,,,,,,,,,,,,,,,,,,,,,,,,,,,,,,,,,,,,,,,,,,,,,,,,,,,,,,,,,,,,,,,,,,,,,,,,,,,,,,,,,,,,,,,,,,,,,,,,,,,,,,,,,,,,,,,,,,,,,,,,,,,,,,,,,,,,
,,603fb04d42dd7c0a9398a42f,2024-02-22_00h29.07.047,kallum_motion_pilot,2023.2.2,Linux x86_64,60.09615385,603fb04d42dd7c0a9398a42f,65d6bb0e977760de756971f7,65d6bee16cbfc377f68bee76,0.134,0.134,0,127,127,146,1,sixfive,,,,,,,,,,,,,,,,,,,,,,,,,,,,,,,,,,,,,,,,,,,,,,,,,,,,,,,,,,,,,,,,,,,,,,,,,,,,,,,,,,,,,,,,,,,,,,,,,,,,,,,,,,,,,,,,,,,,,,,,,,,,,,,,,,,,,,,,,
,,603fb04d42dd7c0a9398a42f,2024-02-22_00h29.07.047,kallum_motion_pilot,2023.2.2,Linux x86_64,60.09615385,603fb04d42dd7c0a9398a42f,65d6bb0e977760de756971f7,65d6bee16cbfc377f68bee76,0.135,0.135,0,128,128,27,1,twofour,,,,,,,,,,,,,,,,,,,,,,,,,,,,,,,,,,,,,,,,,,,,,,,,,,,,,,,,,,,,,,,,,,,,,,,,,,,,,,,,,,,,,,,,,,,,,,,,,,,,,,,,,,,,,,,,,,,,,,,,,,,,,,,,,,,,,,,,,
,,603fb04d42dd7c0a9398a42f,2024-02-22_00h29.07.047,kallum_motion_pilot,2023.2.2,Linux x86_64,60.09615385,603fb04d42dd7c0a9398a42f,65d6bb0e977760de756971f7,65d6bee16cbfc377f68bee76,0.135,0.135,0,129,129,102,1,eightsix,,,,,,,,,,,,,,,,,,,,,,,,,,,,,,,,,,,,,,,,,,,,,,,,,,,,,,,,,,,,,,,,,,,,,,,,,,,,,,,,,,,,,,,,,,,,,,,,,,,,,,,,,,,,,,,,,,,,,,,,,,,,,,,,,,,,,,,,,
,,603fb04d42dd7c0a9398a42f,2024-02-22_00h29.07.047,kallum_motion_pilot,2023.2.2,Linux x86_64,60.09615385,603fb04d42dd7c0a9398a42f,65d6bb0e977760de756971f7,65d6bee16cbfc377f68bee76,0.135,0.135,0,130,130,7,1,fourthree,,,,,,,,,,,,,,,,,,,,,,,,,,,,,,,,,,,,,,,,,,,,,,,,,,,,,,,,,,,,,,,,,,,,,,,,,,,,,,,,,,,,,,,,,,,,,,,,,,,,,,,,,,,,,,,,,,,,,,,,,,,,,,,,,,,,,,,,,
,,603fb04d42dd7c0a9398a42f,2024-02-22_00h29.07.047,kallum_motion_pilot,2023.2.2,Linux x86_64,60.09615385,603fb04d42dd7c0a9398a42f,65d6bb0e977760de756971f7,65d6bee16cbfc377f68bee76,0.135,0.136,0,131,131,101,1,seveneight,,,,,,,,,,,,,,,,,,,,,,,,,,,,,,,,,,,,,,,,,,,,,,,,,,,,,,,,,,,,,,,,,,,,,,,,,,,,,,,,,,,,,,,,,,,,,,,,,,,,,,,,,,,,,,,,,,,,,,,,,,,,,,,,,,,,,,,,,
,,603fb04d42dd7c0a9398a42f,2024-02-22_00h29.07.047,kallum_motion_pilot,2023.2.2,Linux x86_64,60.09615385,603fb04d42dd7c0a9398a42f,65d6bb0e977760de756971f7,65d6bee16cbfc377f68bee76,0.136,0.136,0,132,132,97,1,fiveseven,,,,,,,,,,,,,,,,,,,,,,,,,,,,,,,,,,,,,,,,,,,,,,,,,,,,,,,,,,,,,,,,,,,,,,,,,,,,,,,,,,,,,,,,,,,,,,,,,,,,,,,,,,,,,,,,,,,,,,,,,,,,,,,,,,,,,,,,,
,,603fb04d42dd7c0a9398a42f,2024-02-22_00h29.07.047,kallum_motion_pilot,2023.2.2,Linux x86_64,60.09615385,603fb04d42dd7c0a9398a42f,65d6bb0e977760de756971f7,65d6bee16cbfc377f68bee76,0.136,0.136,0,133,133,105,1,fiveseven,,,,,,,,,,,,,,,,,,,,,,,,,,,,,,,,,,,,,,,,,,,,,,,,,,,,,,,,,,,,,,,,,,,,,,,,,,,,,,,,,,,,,,,,,,,,,,,,,,,,,,,,,,,,,,,,,,,,,,,,,,,,,,,,,,,,,,,,,
,,603fb04d42dd7c0a9398a42f,2024-02-22_00h29.07.047,kallum_motion_pilot,2023.2.2,Linux x86_64,60.09615385,603fb04d42dd7c0a9398a42f,65d6bb0e977760de756971f7,65d6bee16cbfc377f68bee76,0.136,0.136,0,134,134,98,1,sixfive,,,,,,,,,,,,,,,,,,,,,,,,,,,,,,,,,,,,,,,,,,,,,,,,,,,,,,,,,,,,,,,,,,,,,,,,,,,,,,,,,,,,,,,,,,,,,,,,,,,,,,,,,,,,,,,,,,,,,,,,,,,,,,,,,,,,,,,,,
,,603fb04d42dd7c0a9398a42f,2024-02-22_00h29.07.047,kallum_motion_pilot,2023.2.2,Linux x86_64,60.09615385,603fb04d42dd7c0a9398a42f,65d6bb0e977760de756971f7,65d6bee16cbfc377f68bee76,0.136,0.136,0,135,135,26,1,twoone,,,,,,,,,,,,,,,,,,,,,,,,,,,,,,,,,,,,,,,,,,,,,,,,,,,,,,,,,,,,,,,,,,,,,,,,,,,,,,,,,,,,,,,,,,,,,,,,,,,,,,,,,,,,,,,,,,,,,,,,,,,,,,,,,,,,,,,,,
,,603fb04d42dd7c0a9398a42f,2024-02-22_00h29.07.047,kallum_motion_pilot,2023.2.2,Linux x86_64,60.09615385,603fb04d42dd7c0a9398a42f,65d6bb0e977760de756971f7,65d6bee16cbfc377f68bee76,0.137,0.137,0,136,136,10,1,twoone,,,,,,,,,,,,,,,,,,,,,,,,,,,,,,,,,,,,,,,,,,,,,,,,,,,,,,,,,,,,,,,,,,,,,,,,,,,,,,,,,,,,,,,,,,,,,,,,,,,,,,,,,,,,,,,,,,,,,,,,,,,,,,,,,,,,,,,,,
,,603fb04d42dd7c0a9398a42f,2024-02-22_00h29.07.047,kallum_motion_pilot,2023.2.2,Linux x86_64,60.09615385,603fb04d42dd7c0a9398a42f,65d6bb0e977760de756971f7,65d6bee16cbfc377f68bee76,0.137,0.137,0,137,137,108,1,sevenfive,,,,,,,,,,,,,,,,,,,,,,,,,,,,,,,,,,,,,,,,,,,,,,,,,,,,,,,,,,,,,,,,,,,,,,,,,,,,,,,,,,,,,,,,,,,,,,,,,,,,,,,,,,,,,,,,,,,,,,,,,,,,,,,,,,,,,,,,,
,,603fb04d42dd7c0a9398a42f,2024-02-22_00h29.07.047,kallum_motion_pilot,2023.2.2,Linux x86_64,60.09615385,603fb04d42dd7c0a9398a42f,65d6bb0e977760de756971f7,65d6bee16cbfc377f68bee76,0.137,0.137,0,138,138,161,1,fiveseven,,,,,,,,,,,,,,,,,,,,,,,,,,,,,,,,,,,,,,,,,,,,,,,,,,,,,,,,,,,,,,,,,,,,,,,,,,,,,,,,,,,,,,,,,,,,,,,,,,,,,,,,,,,,,,,,,,,,,,,,,,,,,,,,,,,,,,,,,
,,603fb04d42dd7c0a9398a42f,2024-02-22_00h29.07.047,kallum_motion_pilot,2023.2.2,Linux x86_64,60.09615385,603fb04d42dd7c0a9398a42f,65d6bb0e977760de756971f7,65d6bee16cbfc377f68bee76,0.137,0.137,0,139,139,91,1,sixeight,,,,,,,,,,,,,,,,,,,,,,,,,,,,,,,,,,,,,,,,,,,,,,,,,,,,,,,,,,,,,,,,,,,,,,,,,,,,,,,,,,,,,,,,,,,,,,,,,,,,,,,,,,,,,,,,,,,,,,,,,,,,,,,,,,,,,,,,,
,,603fb04d42dd7c0a9398a42f,2024-02-22_00h29.07.047,kallum_motion_pilot,2023.2.2,Linux x86_64,60.09615385,603fb04d42dd7c0a9398a42f,65d6bb0e977760de756971f7,65d6bee16cbfc377f68bee76,0.138,0.138,0,140,140,134,1,eightsix,,,,,,,,,,,,,,,,,,,,,,,,,,,,,,,,,,,,,,,,,,,,,,,,,,,,,,,,,,,,,,,,,,,,,,,,,,,,,,,,,,,,,,,,,,,,,,,,,,,,,,,,,,,,,,,,,,,,,,,,,,,,,,,,,,,,,,,,,
,,603fb04d42dd7c0a9398a42f,2024-02-22_00h29.07.047,kallum_motion_pilot,2023.2.2,Linux x86_64,60.09615385,603fb04d42dd7c0a9398a42f,65d6bb0e977760de756971f7,65d6bee16cbfc377f68bee76,0.138,0.138,0,141,141,43,1,twofour,,,,,,,,,,,,,,,,,,,,,,,,,,,,,,,,,,,,,,,,,,,,,,,,,,,,,,,,,,,,,,,,,,,,,,,,,,,,,,,,,,,,,,,,,,,,,,,,,,,,,,,,,,,,,,,,,,,,,,,,,,,,,,,,,,,,,,,,,
,,603fb04d42dd7c0a9398a42f,2024-02-22_00h29.07.047,kallum_motion_pilot,2023.2.2,Linux x86_64,60.09615385,603fb04d42dd7c0a9398a42f,65d6bb0e977760de756971f7,65d6bee16cbfc377f68bee76,0.138,0.139,0,142,142,59,1,twofour,,,,,,,,,,,,,,,,,,,,,,,,,,,,,,,,,,,,,,,,,,,,,,,,,,,,,,,,,,,,,,,,,,,,,,,,,,,,,,,,,,,,,,,,,,,,,,,,,,,,,,,,,,,,,,,,,,,,,,,,,,,,,,,,,,,,,,,,,
,,603fb04d42dd7c0a9398a42f,2024-02-22_00h29.07.047,kallum_motion_pilot,2023.2.2,Linux x86_64,60.09615385,603fb04d42dd7c0a9398a42f,65d6bb0e977760de756971f7,65d6bee16cbfc377f68bee76,0.139,0.139,0,143,143,158,1,eightsix,,,,,,,,,,,,,,,,,,,,,,,,,,,,,,,,,,,,,,,,,,,,,,,,,,,,,,,,,,,,,,,,,,,,,,,,,,,,,,,,,,,,,,,,,,,,,,,,,,,,,,,,,,,,,,,,,,,,,,,,,,,,,,,,,,,,,,,,,
,,603fb04d42dd7c0a9398a42f,2024-02-22_00h29.07.047,kallum_motion_pilot,2023.2.2,Linux x86_64,60.09615385,603fb04d42dd7c0a9398a42f,65d6bb0e977760de756971f7,65d6bee16cbfc377f68bee76,0.139,0.139,0,144,144,142,1,eightsix,,,,,,,,,,,,,,,,,,,,,,,,,,,,,,,,,,,,,,,,,,,,,,,,,,,,,,,,,,,,,,,,,,,,,,,,,,,,,,,,,,,,,,,,,,,,,,,,,,,,,,,,,,,,,,,,,,,,,,,,,,,,,,,,,,,,,,,,,
,,603fb04d42dd7c0a9398a42f,2024-02-22_00h29.07.047,kallum_motion_pilot,2023.2.2,Linux x86_64,60.09615385,603fb04d42dd7c0a9398a42f,65d6bb0e977760de756971f7,65d6bee16cbfc377f68bee76,0.139,0.139,0,145,145,117,1,seveneight,,,,,,,,,,,,,,,,,,,,,,,,,,,,,,,,,,,,,,,,,,,,,,,,,,,,,,,,,,,,,,,,,,,,,,,,,,,,,,,,,,,,,,,,,,,,,,,,,,,,,,,,,,,,,,,,,,,,,,,,,,,,,,,,,,,,,,,,,
,,603fb04d42dd7c0a9398a42f,2024-02-22_00h29.07.047,kallum_motion_pilot,2023.2.2,Linux x86_64,60.09615385,603fb04d42dd7c0a9398a42f,65d6bb0e977760de756971f7,65d6bee16cbfc377f68bee76,0.139,0.14,0,146,146,82,1,sixfive,,,,,,,,,,,,,,,,,,,,,,,,,,,,,,,,,,,,,,,,,,,,,,,,,,,,,,,,,,,,,,,,,,,,,,,,,,,,,,,,,,,,,,,,,,,,,,,,,,,,,,,,,,,,,,,,,,,,,,,,,,,,,,,,,,,,,,,,,
,,603fb04d42dd7c0a9398a42f,2024-02-22_00h29.07.047,kallum_motion_pilot,2023.2.2,Linux x86_64,60.09615385,603fb04d42dd7c0a9398a42f,65d6bb0e977760de756971f7,65d6bee16cbfc377f68bee76,0.14,0.14,0,147,147,114,1,sixfive,,,,,,,,,,,,,,,,,,,,,,,,,,,,,,,,,,,,,,,,,,,,,,,,,,,,,,,,,,,,,,,,,,,,,,,,,,,,,,,,,,,,,,,,,,,,,,,,,,,,,,,,,,,,,,,,,,,,,,,,,,,,,,,,,,,,,,,,,
,,603fb04d42dd7c0a9398a42f,2024-02-22_00h29.07.047,kallum_motion_pilot,2023.2.2,Linux x86_64,60.09615385,603fb04d42dd7c0a9398a42f,65d6bb0e977760de756971f7,65d6bee16cbfc377f68bee76,0.14,0.14,0,148,148,24,1,onetwo,,,,,,,,,,,,,,,,,,,,,,,,,,,,,,,,,,,,,,,,,,,,,,,,,,,,,,,,,,,,,,,,,,,,,,,,,,,,,,,,,,,,,,,,,,,,,,,,,,,,,,,,,,,,,,,,,,,,,,,,,,,,,,,,,,,,,,,,,
,,603fb04d42dd7c0a9398a42f,2024-02-22_00h29.07.047,kallum_motion_pilot,2023.2.2,Linux x86_64,60.09615385,603fb04d42dd7c0a9398a42f,65d6bb0e977760de756971f7,65d6bee16cbfc377f68bee76,0.14,0.14,0,149,149,17,1,onethree,,,,,,,,,,,,,,,,,,,,,,,,,,,,,,,,,,,,,,,,,,,,,,,,,,,,,,,,,,,,,,,,,,,,,,,,,,,,,,,,,,,,,,,,,,,,,,,,,,,,,,,,,,,,,,,,,,,,,,,,,,,,,,,,,,,,,,,,,
,,603fb04d42dd7c0a9398a42f,2024-02-22_00h29.07.047,kallum_motion_pilot,2023.2.2,Linux x86_64,60.09615385,603fb04d42dd7c0a9398a42f,65d6bb0e977760de756971f7,65d6bee16cbfc377f68bee76,0.14,0.14,0,150,150,22,1,fourtwo,,,,,,,,,,,,,,,,,,,,,,,,,,,,,,,,,,,,,,,,,,,,,,,,,,,,,,,,,,,,,,,,,,,,,,,,,,,,,,,,,,,,,,,,,,,,,,,,,,,,,,,,,,,,,,,,,,,,,,,,,,,,,,,,,,,,,,,,,
,,603fb04d42dd7c0a9398a42f,2024-02-22_00h29.07.047,kallum_motion_pilot,2023.2.2,Linux x86_64,60.09615385,603fb04d42dd7c0a9398a42f,65d6bb0e977760de756971f7,65d6bee16cbfc377f68bee76,0.141,0.141,0,151,151,160,1,fivesix,,,,,,,,,,,,,,,,,,,,,,,,,,,,,,,,,,,,,,,,,,,,,,,,,,,,,,,,,,,,,,,,,,,,,,,,,,,,,,,,,,,,,,,,,,,,,,,,,,,,,,,,,,,,,,,,,,,,,,,,,,,,,,,,,,,,,,,,,
,,603fb04d42dd7c0a9398a42f,2024-02-22_00h29.07.047,kallum_motion_pilot,2023.2.2,Linux x86_64,60.09615385,603fb04d42dd7c0a9398a42f,65d6bb0e977760de756971f7,65d6bee16cbfc377f68bee76,0.141,0.141,0,152,152,92,1,sevenfive,,,,,,,,,,,,,,,,,,,,,,,,,,,,,,,,,,,,,,,,,,,,,,,,,,,,,,,,,,,,,,,,,,,,,,,,,,,,,,,,,,,,,,,,,,,,,,,,,,,,,,,,,,,,,,,,,,,,,,,,,,,,,,,,,,,,,,,,,
,,603fb04d42dd7c0a9398a42f,2024-02-22_00h29.07.047,kallum_motion_pilot,2023.2.2,Linux x86_64,60.09615385,603fb04d42dd7c0a9398a42f,65d6bb0e977760de756971f7,65d6bee16cbfc377f68bee76,0.141,0.141,0,153,153,73,1,onethree,,,,,,,,,,,,,,,,,,,,,,,,,,,,,,,,,,,,,,,,,,,,,,,,,,,,,,,,,,,,,,,,,,,,,,,,,,,,,,,,,,,,,,,,,,,,,,,,,,,,,,,,,,,,,,,,,,,,,,,,,,,,,,,,,,,,,,,,,
,,603fb04d42dd7c0a9398a42f,2024-02-22_00h29.07.047,kallum_motion_pilot,2023.2.2,Linux x86_64,60.09615385,603fb04d42dd7c0a9398a42f,65d6bb0e977760de756971f7,65d6bee16cbfc377f68bee76,0.141,0.141,0,154,154,150,1,eightsix,,,,,,,,,,,,,,,,,,,,,,,,,,,,,,,,,,,,,,,,,,,,,,,,,,,,,,,,,,,,,,,,,,,,,,,,,,,,,,,,,,,,,,,,,,,,,,,,,,,,,,,,,,,,,,,,,,,,,,,,,,,,,,,,,,,,,,,,,
,,603fb04d42dd7c0a9398a42f,2024-02-22_00h29.07.047,kallum_motion_pilot,2023.2.2,Linux x86_64,60.09615385,603fb04d42dd7c0a9398a42f,65d6bb0e977760de756971f7,65d6bee16cbfc377f68bee76,0.142,0.142,0,155,155,93,1,seveneight,,,,,,,,,,,,,,,,,,,,,,,,,,,,,,,,,,,,,,,,,,,,,,,,,,,,,,,,,,,,,,,,,,,,,,,,,,,,,,,,,,,,,,,,,,,,,,,,,,,,,,,,,,,,,,,,,,,,,,,,,,,,,,,,,,,,,,,,,
,,603fb04d42dd7c0a9398a42f,2024-02-22_00h29.07.047,kallum_motion_pilot,2023.2.2,Linux x86_64,60.09615385,603fb04d42dd7c0a9398a42f,65d6bb0e977760de756971f7,65d6bee16cbfc377f68bee76,0.142,0.142,0,156,156,18,1,twoone,,,,,,,,,,,,,,,,,,,,,,,,,,,,,,,,,,,,,,,,,,,,,,,,,,,,,,,,,,,,,,,,,,,,,,,,,,,,,,,,,,,,,,,,,,,,,,,,,,,,,,,,,,,,,,,,,,,,,,,,,,,,,,,,,,,,,,,,,
,,603fb04d42dd7c0a9398a42f,2024-02-22_00h29.07.047,kallum_motion_pilot,2023.2.2,Linux x86_64,60.09615385,603fb04d42dd7c0a9398a42f,65d6bb0e977760de756971f7,65d6bee16cbfc377f68bee76,0.142,0.142,0,157,157,75,1,twofour,,,,,,,,,,,,,,,,,,,,,,,,,,,,,,,,,,,,,,,,,,,,,,,,,,,,,,,,,,,,,,,,,,,,,,,,,,,,,,,,,,,,,,,,,,,,,,,,,,,,,,,,,,,,,,,,,,,,,,,,,,,,,,,,,,,,,,,,,
,,603fb04d42dd7c0a9398a42f,2024-02-22_00h29.07.047,kallum_motion_pilot,2023.2.2,Linux x86_64,60.09615385,603fb04d42dd7c0a9398a42f,65d6bb0e977760de756971f7,65d6bee16cbfc377f68bee76,0.142,0.142,0,158,158,31,1,fourthree,,,,,,,,,,,,,,,,,,,,,,,,,,,,,,,,,,,,,,,,,,,,,,,,,,,,,,,,,,,,,,,,,,,,,,,,,,,,,,,,,,,,,,,,,,,,,,,,,,,,,,,,,,,,,,,,,,,,,,,,,,,,,,,,,,,,,,,,,
,,603fb04d42dd7c0a9398a42f,2024-02-22_00h29.07.047,kallum_motion_pilot,2023.2.2,Linux x86_64,60.09615385,603fb04d42dd7c0a9398a42f,65d6bb0e977760de756971f7,65d6bee16cbfc377f68bee76,0.143,0.143,0,159,159,36,1,threeone,,,,,,,,,,,,,,,,,,,,,,,,,,,,,,,,,,,,,,,,,,,,,,,,,,,,,,,,,,,,,,,,,,,,,,,,,,,,,,,,,,,,,,,,,,,,,,,,,,,,,,,,,,,,,,,,,,,,,,,,,,,,,,,,,,,,,,,,,
,,603fb04d42dd7c0a9398a42f,2024-02-22_00h29.07.047,kallum_motion_pilot,2023.2.2,Linux x86_64,60.09615385,603fb04d42dd7c0a9398a42f,65d6bb0e977760de756971f7,65d6bee16cbfc377f68bee76,0.143,0.143,0,160,160,33,1,onethree,,,,,,,,,,,,,,,,,,,,,,,,,,,,,,,,,,,,,,,,,,,,,,,,,,,,,,,,,,,,,,,,,,,,,,,,,,,,,,,,,,,,,,,,,,,,,,,,,,,,,,,,,,,,,,,,,,,,,,,,,,,,,,,,,,,,,,,,,
,,603fb04d42dd7c0a9398a42f,2024-02-22_00h29.07.047,kallum_motion_pilot,2023.2.2,Linux x86_64,60.09615385,603fb04d42dd7c0a9398a42f,65d6bb0e977760de756971f7,65d6bee16cbfc377f68bee76,0.143,0.143,0,161,161,32,1,onetwo,,,,,,,,,,,,,,,,,,,,,,,,,,,,,,,,,,,,,,,,,,,,,,,,,,,,,,,,,,,,,,,,,,,,,,,,,,,,,,,,,,,,,,,,,,,,,,,,,,,,,,,,,,,,,,,,,,,,,,,,,,,,,,,,,,,,,,,,,
,,603fb04d42dd7c0a9398a42f,2024-02-22_00h29.07.047,kallum_motion_pilot,2023.2.2,Linux x86_64,60.09615385,603fb04d42dd7c0a9398a42f,65d6bb0e977760de756971f7,65d6bee16cbfc377f68bee76,0.143,0.143,1,0,162,117,1,seveneight,,,,,,,,,,,,,,,,,,,,,,,,,,,,,,,,,,,,,,,,,,,,,,,,,,,,,,,,,,,,,,,,,,,,,,,,,,,,,,,,,,,,,,,,,,,,,,,,,,,,,,,,,,,,,,,,,,,,,,,,,,,,,,,,,,,,,,,,,
,,603fb04d42dd7c0a9398a42f,2024-02-22_00h29.07.047,kallum_motion_pilot,2023.2.2,Linux x86_64,60.09615385,603fb04d42dd7c0a9398a42f,65d6bb0e977760de756971f7,65d6bee16cbfc377f68bee76,0.144,0.144,1,1,163,139,1,sixeight,,,,,,,,,,,,,,,,,,,,,,,,,,,,,,,,,,,,,,,,,,,,,,,,,,,,,,,,,,,,,,,,,,,,,,,,,,,,,,,,,,,,,,,,,,,,,,,,,,,,,,,,,,,,,,,,,,,,,,,,,,,,,,,,,,,,,,,,,
,,603fb04d42dd7c0a9398a42f,2024-02-22_00h29.07.047,kallum_motion_pilot,2023.2.2,Linux x86_64,60.09615385,603fb04d42dd7c0a9398a42f,65d6bb0e977760de756971f7,65d6bee16cbfc377f68bee76,0.144,0.144,1,2,164,161,1,fiveseven,,,,,,,,,,,,,,,,,,,,,,,,,,,,,,,,,,,,,,,,,,,,,,,,,,,,,,,,,,,,,,,,,,,,,,,,,,,,,,,,,,,,,,,,,,,,,,,,,,,,,,,,,,,,,,,,,,,,,,,,,,,,,,,,,,,,,,,,,
,,603fb04d42dd7c0a9398a42f,2024-02-22_00h29.07.047,kallum_motion_pilot,2023.2.2,Linux x86_64,60.09615385,603fb04d42dd7c0a9398a42f,65d6bb0e977760de756971f7,65d6bee16cbfc377f68bee76,0.144,0.144,1,3,165,79,1,eightseven,,,,,,,,,,,,,,,,,,,,,,,,,,,,,,,,,,,,,,,,,,,,,,,,,,,,,,,,,,,,,,,,,,,,,,,,,,,,,,,,,,,,,,,,,,,,,,,,,,,,,,,,,,,,,,,,,,,,,,,,,,,,,,,,,,,,,,,,,
,,603fb04d42dd7c0a9398a42f,2024-02-22_00h29.07.047,kallum_motion_pilot,2023.2.2,Linux x86_64,60.09615385,603fb04d42dd7c0a9398a42f,65d6bb0e977760de756971f7,65d6bee16cbfc377f68bee76,0.144,0.144,1,4,166,41,1,onethree,,,,,,,,,,,,,,,,,,,,,,,,,,,,,,,,,,,,,,,,,,,,,,,,,,,,,,,,,,,,,,,,,,,,,,,,,,,,,,,,,,,,,,,,,,,,,,,,,,,,,,,,,,,,,,,,,,,,,,,,,,,,,,,,,,,,,,,,,
,,603fb04d42dd7c0a9398a42f,2024-02-22_00h29.07.047,kallum_motion_pilot,2023.2.2,Linux x86_64,60.09615385,603fb04d42dd7c0a9398a42f,65d6bb0e977760de756971f7,65d6bee16cbfc377f68bee76,0.145,0.145,1,5,167,19,1,twofour,,,,,,,,,,,,,,,,,,,,,,,,,,,,,,,,,,,,,,,,,,,,,,,,,,,,,,,,,,,,,,,,,,,,,,,,,,,,,,,,,,,,,,,,,,,,,,,,,,,,,,,,,,,,,,,,,,,,,,,,,,,,,,,,,,,,,,,,,
,,603fb04d42dd7c0a9398a42f,2024-02-22_00h29.07.047,kallum_motion_pilot,2023.2.2,Linux x86_64,60.09615385,603fb04d42dd7c0a9398a42f,65d6bb0e977760de756971f7,65d6bee16cbfc377f68bee76,0.145,0.145,1,6,168,130,1,sixfive,,,,,,,,,,,,,,,,,,,,,,,,,,,,,,,,,,,,,,,,,,,,,,,,,,,,,,,,,,,,,,,,,,,,,,,,,,,,,,,,,,,,,,,,,,,,,,,,,,,,,,,,,,,,,,,,,,,,,,,,,,,,,,,,,,,,,,,,,
,,603fb04d42dd7c0a9398a42f,2024-02-22_00h29.07.047,kallum_motion_pilot,2023.2.2,Linux x86_64,60.09615385,603fb04d42dd7c0a9398a42f,65d6bb0e977760de756971f7,65d6bee16cbfc377f68bee76,0.145,0.145,1,7,169,136,1,fivesix,,,,,,,,,,,,,,,,,,,,,,,,,,,,,,,,,,,,,,,,,,,,,,,,,,,,,,,,,,,,,,,,,,,,,,,,,,,,,,,,,,,,,,,,,,,,,,,,,,,,,,,,,,,,,,,,,,,,,,,,,,,,,,,,,,,,,,,,,
,,603fb04d42dd7c0a9398a42f,2024-02-22_00h29.07.047,kallum_motion_pilot,2023.2.2,Linux x86_64,60.09615385,603fb04d42dd7c0a9398a42f,65d6bb0e977760de756971f7,65d6bee16cbfc377f68bee76,0.145,0.146,1,8,170,145,1,fiveseven,,,,,,,,,,,,,,,,,,,,,,,,,,,,,,,,,,,,,,,,,,,,,,,,,,,,,,,,,,,,,,,,,,,,,,,,,,,,,,,,,,,,,,,,,,,,,,,,,,,,,,,,,,,,,,,,,,,,,,,,,,,,,,,,,,,,,,,,,
,,603fb04d42dd7c0a9398a42f,2024-02-22_00h29.07.047,kallum_motion_pilot,2023.2.2,Linux x86_64,60.09615385,603fb04d42dd7c0a9398a42f,65d6bb0e977760de756971f7,65d6bee16cbfc377f68bee76,0.146,0.146,1,9,171,73,1,onethree,,,,,,,,,,,,,,,,,,,,,,,,,,,,,,,,,,,,,,,,,,,,,,,,,,,,,,,,,,,,,,,,,,,,,,,,,,,,,,,,,,,,,,,,,,,,,,,,,,,,,,,,,,,,,,,,,,,,,,,,,,,,,,,,,,,,,,,,,
,,603fb04d42dd7c0a9398a42f,2024-02-22_00h29.07.047,kallum_motion_pilot,2023.2.2,Linux x86_64,60.09615385,603fb04d42dd7c0a9398a42f,65d6bb0e977760de756971f7,65d6bee16cbfc377f68bee76,0.146,0.146,1,10,172,82,1,sixfive,,,,,,,,,,,,,,,,,,,,,,,,,,,,,,,,,,,,,,,,,,,,,,,,,,,,,,,,,,,,,,,,,,,,,,,,,,,,,,,,,,,,,,,,,,,,,,,,,,,,,,,,,,,,,,,,,,,,,,,,,,,,,,,,,,,,,,,,,
,,603fb04d42dd7c0a9398a42f,2024-02-22_00h29.07.047,kallum_motion_pilot,2023.2.2,Linux x86_64,60.09615385,603fb04d42dd7c0a9398a42f,65d6bb0e977760de756971f7,65d6bee16cbfc377f68bee76,0.147,0.147,1,11,173,46,1,fourtwo,,,,,,,,,,,,,,,,,,,,,,,,,,,,,,,,,,,,,,,,,,,,,,,,,,,,,,,,,,,,,,,,,,,,,,,,,,,,,,,,,,,,,,,,,,,,,,,,,,,,,,,,,,,,,,,,,,,,,,,,,,,,,,,,,,,,,,,,,
,,603fb04d42dd7c0a9398a42f,2024-02-22_00h29.07.047,kallum_motion_pilot,2023.2.2,Linux x86_64,60.09615385,603fb04d42dd7c0a9398a42f,65d6bb0e977760de756971f7,65d6bee16cbfc377f68bee76,0.147,0.147,1,12,174,43,1,twofour,,,,,,,,,,,,,,,,,,,,,,,,,,,,,,,,,,,,,,,,,,,,,,,,,,,,,,,,,,,,,,,,,,,,,,,,,,,,,,,,,,,,,,,,,,,,,,,,,,,,,,,,,,,,,,,,,,,,,,,,,,,,,,,,,,,,,,,,,
,,603fb04d42dd7c0a9398a42f,2024-02-22_00h29.07.047,kallum_motion_pilot,2023.2.2,Linux x86_64,60.09615385,603fb04d42dd7c0a9398a42f,65d6bb0e977760de756971f7,65d6bee16cbfc377f68bee76,0.147,0.147,1,13,175,135,1,eightseven,,,,,,,,,,,,,,,,,,,,,,,,,,,,,,,,,,,,,,,,,,,,,,,,,,,,,,,,,,,,,,,,,,,,,,,,,,,,,,,,,,,,,,,,,,,,,,,,,,,,,,,,,,,,,,,,,,,,,,,,,,,,,,,,,,,,,,,,,
,,603fb04d42dd7c0a9398a42f,2024-02-22_00h29.07.047,kallum_motion_pilot,2023.2.2,Linux x86_64,60.09615385,603fb04d42dd7c0a9398a42f,65d6bb0e977760de756971f7,65d6bee16cbfc377f68bee76,0.147,0.148,1,14,176,53,1,threefour,,,,,,,,,,,,,,,,,,,,,,,,,,,,,,,,,,,,,,,,,,,,,,,,,,,,,,,,,,,,,,,,,,,,,,,,,,,,,,,,,,,,,,,,,,,,,,,,,,,,,,,,,,,,,,,,,,,,,,,,,,,,,,,,,,,,,,,,,
,,603fb04d42dd7c0a9398a42f,2024-02-22_00h29.07.047,kallum_motion_pilot,2023.2.2,Linux x86_64,60.09615385,603fb04d42dd7c0a9398a42f,65d6bb0e977760de756971f7,65d6bee16cbfc377f68bee76,0.148,0.148,1,15,177,68,1,threeone,,,,,,,,,,,,,,,,,,,,,,,,,,,,,,,,,,,,,,,,,,,,,,,,,,,,,,,,,,,,,,,,,,,,,,,,,,,,,,,,,,,,,,,,,,,,,,,,,,,,,,,,,,,,,,,,,,,,,,,,,,,,,,,,,,,,,,,,,
,,603fb04d42dd7c0a9398a42f,2024-02-22_00h29.07.047,kallum_motion_pilot,2023.2.2,Linux x86_64,60.09615385,603fb04d42dd7c0a9398a42f,65d6bb0e977760de756971f7,65d6bee16cbfc377f68bee76,0.148,0.148,1,16,178,7,1,fourthree,,,,,,,,,,,,,,,,,,,,,,,,,,,,,,,,,,,,,,,,,,,,,,,,,,,,,,,,,,,,,,,,,,,,,,,,,,,,,,,,,,,,,,,,,,,,,,,,,,,,,,,,,,,,,,,,,,,,,,,,,,,,,,,,,,,,,,,,,
,,603fb04d42dd7c0a9398a42f,2024-02-22_00h29.07.047,kallum_motion_pilot,2023.2.2,Linux x86_64,60.09615385,603fb04d42dd7c0a9398a42f,65d6bb0e977760de756971f7,65d6bee16cbfc377f68bee76,0.148,0.148,1,17,179,65,1,onethree,,,,,,,,,,,,,,,,,,,,,,,,,,,,,,,,,,,,,,,,,,,,,,,,,,,,,,,,,,,,,,,,,,,,,,,,,,,,,,,,,,,,,,,,,,,,,,,,,,,,,,,,,,,,,,,,,,,,,,,,,,,,,,,,,,,,,,,,,
,,603fb04d42dd7c0a9398a42f,2024-02-22_00h29.07.047,kallum_motion_pilot,2023.2.2,Linux x86_64,60.09615385,603fb04d42dd7c0a9398a42f,65d6bb0e977760de756971f7,65d6bee16cbfc377f68bee76,0.148,0.149,1,18,180,40,1,onetwo,,,,,,,,,,,,,,,,,,,,,,,,,,,,,,,,,,,,,,,,,,,,,,,,,,,,,,,,,,,,,,,,,,,,,,,,,,,,,,,,,,,,,,,,,,,,,,,,,,,,,,,,,,,,,,,,,,,,,,,,,,,,,,,,,,,,,,,,,
,,603fb04d42dd7c0a9398a42f,2024-02-22_00h29.07.047,kallum_motion_pilot,2023.2.2,Linux x86_64,60.09615385,603fb04d42dd7c0a9398a42f,65d6bb0e977760de756971f7,65d6bee16cbfc377f68bee76,0.149,0.149,1,19,181,94,1,eightsix,,,,,,,,,,,,,,,,,,,,,,,,,,,,,,,,,,,,,,,,,,,,,,,,,,,,,,,,,,,,,,,,,,,,,,,,,,,,,,,,,,,,,,,,,,,,,,,,,,,,,,,,,,,,,,,,,,,,,,,,,,,,,,,,,,,,,,,,,
,,603fb04d42dd7c0a9398a42f,2024-02-22_00h29.07.047,kallum_motion_pilot,2023.2.2,Linux x86_64,60.09615385,603fb04d42dd7c0a9398a42f,65d6bb0e977760de756971f7,65d6bee16cbfc377f68bee76,0.149,0.149,1,20,182,96,1,fivesix,,,,,,,,,,,,,,,,,,,,,,,,,,,,,,,,,,,,,,,,,,,,,,,,,,,,,,,,,,,,,,,,,,,,,,,,,,,,,,,,,,,,,,,,,,,,,,,,,,,,,,,,,,,,,,,,,,,,,,,,,,,,,,,,,,,,,,,,,
,,603fb04d42dd7c0a9398a42f,2024-02-22_00h29.07.047,kallum_motion_pilot,2023.2.2,Linux x86_64,60.09615385,603fb04d42dd7c0a9398a42f,65d6bb0e977760de756971f7,65d6bee16cbfc377f68bee76,0.149,0.149,1,21,183,80,1,fivesix,,,,,,,,,,,,,,,,,,,,,,,,,,,,,,,,,,,,,,,,,,,,,,,,,,,,,,,,,,,,,,,,,,,,,,,,,,,,,,,,,,,,,,,,,,,,,,,,,,,,,,,,,,,,,,,,,,,,,,,,,,,,,,,,,,,,,,,,,
,,603fb04d42dd7c0a9398a42f,2024-02-22_00h29.07.047,kallum_motion_pilot,2023.2.2,Linux x86_64,60.09615385,603fb04d42dd7c0a9398a42f,65d6bb0e977760de756971f7,65d6bee16cbfc377f68bee76,0.15,0.15,1,22,184,92,1,sevenfive,,,,,,,,,,,,,,,,,,,,,,,,,,,,,,,,,,,,,,,,,,,,,,,,,,,,,,,,,,,,,,,,,,,,,,,,,,,,,,,,,,,,,,,,,,,,,,,,,,,,,,,,,,,,,,,,,,,,,,,,,,,,,,,,,,,,,,,,,
,,603fb04d42dd7c0a9398a42f,2024-02-22_00h29.07.047,kallum_motion_pilot,2023.2.2,Linux x86_64,60.09615385,603fb04d42dd7c0a9398a42f,65d6bb0e977760de756971f7,65d6bee16cbfc377f68bee76,0.15,0.15,1,23,185,13,1,threefour,,,,,,,,,,,,,,,,,,,,,,,,,,,,,,,,,,,,,,,,,,,,,,,,,,,,,,,,,,,,,,,,,,,,,,,,,,,,,,,,,,,,,,,,,,,,,,,,,,,,,,,,,,,,,,,,,,,,,,,,,,,,,,,,,,,,,,,,,
,,603fb04d42dd7c0a9398a42f,2024-02-22_00h29.07.047,kallum_motion_pilot,2023.2.2,Linux x86_64,60.09615385,603fb04d42dd7c0a9398a42f,65d6bb0e977760de756971f7,65d6bee16cbfc377f68bee76,0.15,0.15,1,24,186,99,1,sixeight,,,,,,,,,,,,,,,,,,,,,,,,,,,,,,,,,,,,,,,,,,,,,,,,,,,,,,,,,,,,,,,,,,,,,,,,,,,,,,,,,,,,,,,,,,,,,,,,,,,,,,,,,,,,,,,,,,,,,,,,,,,,,,,,,,,,,,,,,
,,603fb04d42dd7c0a9398a42f,2024-02-22_00h29.07.047,kallum_motion_pilot,2023.2.2,Linux x86_64,60.09615385,603fb04d42dd7c0a9398a42f,65d6bb0e977760de756971f7,65d6bee16cbfc377f68bee76,0.15,0.15,1,25,187,81,1,fiveseven,,,,,,,,,,,,,,,,,,,,,,,,,,,,,,,,,,,,,,,,,,,,,,,,,,,,,,,,,,,,,,,,,,,,,,,,,,,,,,,,,,,,,,,,,,,,,,,,,,,,,,,,,,,,,,,,,,,,,,,,,,,,,,,,,,,,,,,,,
,,603fb04d42dd7c0a9398a42f,2024-02-22_00h29.07.047,kallum_motion_pilot,2023.2.2,Linux x86_64,60.09615385,603fb04d42dd7c0a9398a42f,65d6bb0e977760de756971f7,65d6bee16cbfc377f68bee76,0.151,0.151,1,26,188,126,1,eightsix,,,,,,,,,,,,,,,,,,,,,,,,,,,,,,,,,,,,,,,,,,,,,,,,,,,,,,,,,,,,,,,,,,,,,,,,,,,,,,,,,,,,,,,,,,,,,,,,,,,,,,,,,,,,,,,,,,,,,,,,,,,,,,,,,,,,,,,,,
,,603fb04d42dd7c0a9398a42f,2024-02-22_00h29.07.047,kallum_motion_pilot,2023.2.2,Linux x86_64,60.09615385,603fb04d42dd7c0a9398a42f,65d6bb0e977760de756971f7,65d6bee16cbfc377f68bee76,0.151,0.151,1,27,189,160,1,fivesix,,,,,,,,,,,,,,,,,,,,,,,,,,,,,,,,,,,,,,,,,,,,,,,,,,,,,,,,,,,,,,,,,,,,,,,,,,,,,,,,,,,,,,,,,,,,,,,,,,,,,,,,,,,,,,,,,,,,,,,,,,,,,,,,,,,,,,,,,
,,603fb04d42dd7c0a9398a42f,2024-02-22_00h29.07.047,kallum_motion_pilot,2023.2.2,Linux x86_64,60.09615385,603fb04d42dd7c0a9398a42f,65d6bb0e977760de756971f7,65d6bee16cbfc377f68bee76,0.151,0.151,1,28,190,26,1,twoone,,,,,,,,,,,,,,,,,,,,,,,,,,,,,,,,,,,,,,,,,,,,,,,,,,,,,,,,,,,,,,,,,,,,,,,,,,,,,,,,,,,,,,,,,,,,,,,,,,,,,,,,,,,,,,,,,,,,,,,,,,,,,,,,,,,,,,,,,
,,603fb04d42dd7c0a9398a42f,2024-02-22_00h29.07.047,kallum_motion_pilot,2023.2.2,Linux x86_64,60.09615385,603fb04d42dd7c0a9398a42f,65d6bb0e977760de756971f7,65d6bee16cbfc377f68bee76,0.151,0.151,1,29,191,110,1,eightsix,,,,,,,,,,,,,,,,,,,,,,,,,,,,,,,,,,,,,,,,,,,,,,,,,,,,,,,,,,,,,,,,,,,,,,,,,,,,,,,,,,,,,,,,,,,,,,,,,,,,,,,,,,,,,,,,,,,,,,,,,,,,,,,,,,,,,,,,,
,,603fb04d42dd7c0a9398a42f,2024-02-22_00h29.07.047,kallum_motion_pilot,2023.2.2,Linux x86_64,60.09615385,603fb04d42dd7c0a9398a42f,65d6bb0e977760de756971f7,65d6bee16cbfc377f68bee76,0.151,0.151,1,30,192,146,1,sixfive,,,,,,,,,,,,,,,,,,,,,,,,,,,,,,,,,,,,,,,,,,,,,,,,,,,,,,,,,,,,,,,,,,,,,,,,,,,,,,,,,,,,,,,,,,,,,,,,,,,,,,,,,,,,,,,,,,,,,,,,,,,,,,,,,,,,,,,,,
,,603fb04d42dd7c0a9398a42f,2024-02-22_00h29.07.047,kallum_motion_pilot,2023.2.2,Linux x86_64,60.09615385,603fb04d42dd7c0a9398a42f,65d6bb0e977760de756971f7,65d6bee16cbfc377f68bee76,0.151,0.151,1,31,193,100,1,sevenfive,,,,,,,,,,,,,,,,,,,,,,,,,,,,,,,,,,,,,,,,,,,,,,,,,,,,,,,,,,,,,,,,,,,,,,,,,,,,,,,,,,,,,,,,,,,,,,,,,,,,,,,,,,,,,,,,,,,,,,,,,,,,,,,,,,,,,,,,,
,,603fb04d42dd7c0a9398a42f,2024-02-22_00h29.07.047,kallum_motion_pilot,2023.2.2,Linux x86_64,60.09615385,603fb04d42dd7c0a9398a42f,65d6bb0e977760de756971f7,65d6bee16cbfc377f68bee76,0.152,0.152,1,32,194,21,1,threefour,,,,,,,,,,,,,,,,,,,,,,,,,,,,,,,,,,,,,,,,,,,,,,,,,,,,,,,,,,,,,,,,,,,,,,,,,,,,,,,,,,,,,,,,,,,,,,,,,,,,,,,,,,,,,,,,,,,,,,,,,,,,,,,,,,,,,,,,,
,,603fb04d42dd7c0a9398a42f,2024-02-22_00h29.07.047,kallum_motion_pilot,2023.2.2,Linux x86_64,60.09615385,603fb04d42dd7c0a9398a42f,65d6bb0e977760de756971f7,65d6bee16cbfc377f68bee76,0.152,0.152,1,33,195,11,1,twofour,,,,,,,,,,,,,,,,,,,,,,,,,,,,,,,,,,,,,,,,,,,,,,,,,,,,,,,,,,,,,,,,,,,,,,,,,,,,,,,,,,,,,,,,,,,,,,,,,,,,,,,,,,,,,,,,,,,,,,,,,,,,,,,,,,,,,,,,,
,,603fb04d42dd7c0a9398a42f,2024-02-22_00h29.07.047,kallum_motion_pilot,2023.2.2,Linux x86_64,60.09615385,603fb04d42dd7c0a9398a42f,65d6bb0e977760de756971f7,65d6bee16cbfc377f68bee76,0.152,0.152,1,34,196,124,1,sevenfive,,,,,,,,,,,,,,,,,,,,,,,,,,,,,,,,,,,,,,,,,,,,,,,,,,,,,,,,,,,,,,,,,,,,,,,,,,,,,,,,,,,,,,,,,,,,,,,,,,,,,,,,,,,,,,,,,,,,,,,,,,,,,,,,,,,,,,,,,
,,603fb04d42dd7c0a9398a42f,2024-02-22_00h29.07.047,kallum_motion_pilot,2023.2.2,Linux x86_64,60.09615385,603fb04d42dd7c0a9398a42f,65d6bb0e977760de756971f7,65d6bee16cbfc377f68bee76,0.152,0.152,1,35,197,87,1,eightseven,,,,,,,,,,,,,,,,,,,,,,,,,,,,,,,,,,,,,,,,,,,,,,,,,,,,,,,,,,,,,,,,,,,,,,,,,,,,,,,,,,,,,,,,,,,,,,,,,,,,,,,,,,,,,,,,,,,,,,,,,,,,,,,,,,,,,,,,,
,,603fb04d42dd7c0a9398a42f,2024-02-22_00h29.07.047,kallum_motion_pilot,2023.2.2,Linux x86_64,60.09615385,603fb04d42dd7c0a9398a42f,65d6bb0e977760de756971f7,65d6bee16cbfc377f68bee76,0.153,0.153,1,36,198,132,1,sevenfive,,,,,,,,,,,,,,,,,,,,,,,,,,,,,,,,,,,,,,,,,,,,,,,,,,,,,,,,,,,,,,,,,,,,,,,,,,,,,,,,,,,,,,,,,,,,,,,,,,,,,,,,,,,,,,,,,,,,,,,,,,,,,,,,,,,,,,,,,
,,603fb04d42dd7c0a9398a42f,2024-02-22_00h29.07.047,kallum_motion_pilot,2023.2.2,Linux x86_64,60.09615385,603fb04d42dd7c0a9398a42f,65d6bb0e977760de756971f7,65d6bee16cbfc377f68bee76,0.153,0.153,1,37,199,109,1,seveneight,,,,,,,,,,,,,,,,,,,,,,,,,,,,,,,,,,,,,,,,,,,,,,,,,,,,,,,,,,,,,,,,,,,,,,,,,,,,,,,,,,,,,,,,,,,,,,,,,,,,,,,,,,,,,,,,,,,,,,,,,,,,,,,,,,,,,,,,,
,,603fb04d42dd7c0a9398a42f,2024-02-22_00h29.07.047,kallum_motion_pilot,2023.2.2,Linux x86_64,60.09615385,603fb04d42dd7c0a9398a42f,65d6bb0e977760de756971f7,65d6bee16cbfc377f68bee76,0.154,0.154,1,38,200,77,1,threefour,,,,,,,,,,,,,,,,,,,,,,,,,,,,,,,,,,,,,,,,,,,,,,,,,,,,,,,,,,,,,,,,,,,,,,,,,,,,,,,,,,,,,,,,,,,,,,,,,,,,,,,,,,,,,,,,,,,,,,,,,,,,,,,,,,,,,,,,,
,,603fb04d42dd7c0a9398a42f,2024-02-22_00h29.07.047,kallum_motion_pilot,2023.2.2,Linux x86_64,60.09615385,603fb04d42dd7c0a9398a42f,65d6bb0e977760de756971f7,65d6bee16cbfc377f68bee76,0.155,0.155,1,39,201,50,1,twoone,,,,,,,,,,,,,,,,,,,,,,,,,,,,,,,,,,,,,,,,,,,,,,,,,,,,,,,,,,,,,,,,,,,,,,,,,,,,,,,,,,,,,,,,,,,,,,,,,,,,,,,,,,,,,,,,,,,,,,,,,,,,,,,,,,,,,,,,,
,,603fb04d42dd7c0a9398a42f,2024-02-22_00h29.07.047,kallum_motion_pilot,2023.2.2,Linux x86_64,60.09615385,603fb04d42dd7c0a9398a42f,65d6bb0e977760de756971f7,65d6bee16cbfc377f68bee76,0.155,0.155,1,40,202,15,1,fourthree,,,,,,,,,,,,,,,,,,,,,,,,,,,,,,,,,,,,,,,,,,,,,,,,,,,,,,,,,,,,,,,,,,,,,,,,,,,,,,,,,,,,,,,,,,,,,,,,,,,,,,,,,,,,,,,,,,,,,,,,,,,,,,,,,,,,,,,,,
,,603fb04d42dd7c0a9398a42f,2024-02-22_00h29.07.047,kallum_motion_pilot,2023.2.2,Linux x86_64,60.09615385,603fb04d42dd7c0a9398a42f,65d6bb0e977760de756971f7,65d6bee16cbfc377f68bee76,0.156,0.156,1,41,203,106,1,sixfive,,,,,,,,,,,,,,,,,,,,,,,,,,,,,,,,,,,,,,,,,,,,,,,,,,,,,,,,,,,,,,,,,,,,,,,,,,,,,,,,,,,,,,,,,,,,,,,,,,,,,,,,,,,,,,,,,,,,,,,,,,,,,,,,,,,,,,,,,
,,603fb04d42dd7c0a9398a42f,2024-02-22_00h29.07.047,kallum_motion_pilot,2023.2.2,Linux x86_64,60.09615385,603fb04d42dd7c0a9398a42f,65d6bb0e977760de756971f7,65d6bee16cbfc377f68bee76,0.156,0.156,1,42,204,108,1,sevenfive,,,,,,,,,,,,,,,,,,,,,,,,,,,,,,,,,,,,,,,,,,,,,,,,,,,,,,,,,,,,,,,,,,,,,,,,,,,,,,,,,,,,,,,,,,,,,,,,,,,,,,,,,,,,,,,,,,,,,,,,,,,,,,,,,,,,,,,,,
,,603fb04d42dd7c0a9398a42f,2024-02-22_00h29.07.047,kallum_motion_pilot,2023.2.2,Linux x86_64,60.09615385,603fb04d42dd7c0a9398a42f,65d6bb0e977760de756971f7,65d6bee16cbfc377f68bee76,0.156,0.156,1,43,205,113,1,fiveseven,,,,,,,,,,,,,,,,,,,,,,,,,,,,,,,,,,,,,,,,,,,,,,,,,,,,,,,,,,,,,,,,,,,,,,,,,,,,,,,,,,,,,,,,,,,,,,,,,,,,,,,,,,,,,,,,,,,,,,,,,,,,,,,,,,,,,,,,,
,,603fb04d42dd7c0a9398a42f,2024-02-22_00h29.07.047,kallum_motion_pilot,2023.2.2,Linux x86_64,60.09615385,603fb04d42dd7c0a9398a42f,65d6bb0e977760de756971f7,65d6bee16cbfc377f68bee76,0.157,0.157,1,44,206,152,1,fivesix,,,,,,,,,,,,,,,,,,,,,,,,,,,,,,,,,,,,,,,,,,,,,,,,,,,,,,,,,,,,,,,,,,,,,,,,,,,,,,,,,,,,,,,,,,,,,,,,,,,,,,,,,,,,,,,,,,,,,,,,,,,,,,,,,,,,,,,,,
,,603fb04d42dd7c0a9398a42f,2024-02-22_00h29.07.047,kallum_motion_pilot,2023.2.2,Linux x86_64,60.09615385,603fb04d42dd7c0a9398a42f,65d6bb0e977760de756971f7,65d6bee16cbfc377f68bee76,0.157,0.157,1,45,207,8,1,onetwo,,,,,,,,,,,,,,,,,,,,,,,,,,,,,,,,,,,,,,,,,,,,,,,,,,,,,,,,,,,,,,,,,,,,,,,,,,,,,,,,,,,,,,,,,,,,,,,,,,,,,,,,,,,,,,,,,,,,,,,,,,,,,,,,,,,,,,,,,
,,603fb04d42dd7c0a9398a42f,2024-02-22_00h29.07.047,kallum_motion_pilot,2023.2.2,Linux x86_64,60.09615385,603fb04d42dd7c0a9398a42f,65d6bb0e977760de756971f7,65d6bee16cbfc377f68bee76,0.157,0.157,1,46,208,52,1,threeone,,,,,,,,,,,,,,,,,,,,,,,,,,,,,,,,,,,,,,,,,,,,,,,,,,,,,,,,,,,,,,,,,,,,,,,,,,,,,,,,,,,,,,,,,,,,,,,,,,,,,,,,,,,,,,,,,,,,,,,,,,,,,,,,,,,,,,,,,
,,603fb04d42dd7c0a9398a42f,2024-02-22_00h29.07.047,kallum_motion_pilot,2023.2.2,Linux x86_64,60.09615385,603fb04d42dd7c0a9398a42f,65d6bb0e977760de756971f7,65d6bee16cbfc377f68bee76,0.157,0.157,1,47,209,137,1,fiveseven,,,,,,,,,,,,,,,,,,,,,,,,,,,,,,,,,,,,,,,,,,,,,,,,,,,,,,,,,,,,,,,,,,,,,,,,,,,,,,,,,,,,,,,,,,,,,,,,,,,,,,,,,,,,,,,,,,,,,,,,,,,,,,,,,,,,,,,,,
,,603fb04d42dd7c0a9398a42f,2024-02-22_00h29.07.047,kallum_motion_pilot,2023.2.2,Linux x86_64,60.09615385,603fb04d42dd7c0a9398a42f,65d6bb0e977760de756971f7,65d6bee16cbfc377f68bee76,0.158,0.158,1,48,210,27,1,twofour,,,,,,,,,,,,,,,,,,,,,,,,,,,,,,,,,,,,,,,,,,,,,,,,,,,,,,,,,,,,,,,,,,,,,,,,,,,,,,,,,,,,,,,,,,,,,,,,,,,,,,,,,,,,,,,,,,,,,,,,,,,,,,,,,,,,,,,,,
,,603fb04d42dd7c0a9398a42f,2024-02-22_00h29.07.047,kallum_motion_pilot,2023.2.2,Linux x86_64,60.09615385,603fb04d42dd7c0a9398a42f,65d6bb0e977760de756971f7,65d6bee16cbfc377f68bee76,0.158,0.158,1,49,211,147,1,sixeight,,,,,,,,,,,,,,,,,,,,,,,,,,,,,,,,,,,,,,,,,,,,,,,,,,,,,,,,,,,,,,,,,,,,,,,,,,,,,,,,,,,,,,,,,,,,,,,,,,,,,,,,,,,,,,,,,,,,,,,,,,,,,,,,,,,,,,,,,
,,603fb04d42dd7c0a9398a42f,2024-02-22_00h29.07.047,kallum_motion_pilot,2023.2.2,Linux x86_64,60.09615385,603fb04d42dd7c0a9398a42f,65d6bb0e977760de756971f7,65d6bee16cbfc377f68bee76,0.158,0.158,1,50,212,75,1,twofour,,,,,,,,,,,,,,,,,,,,,,,,,,,,,,,,,,,,,,,,,,,,,,,,,,,,,,,,,,,,,,,,,,,,,,,,,,,,,,,,,,,,,,,,,,,,,,,,,,,,,,,,,,,,,,,,,,,,,,,,,,,,,,,,,,,,,,,,,
,,603fb04d42dd7c0a9398a42f,2024-02-22_00h29.07.047,kallum_motion_pilot,2023.2.2,Linux x86_64,60.09615385,603fb04d42dd7c0a9398a42f,65d6bb0e977760de756971f7,65d6bee16cbfc377f68bee76,0.158,0.159,1,51,213,116,1,sevenfive,,,,,,,,,,,,,,,,,,,,,,,,,,,,,,,,,,,,,,,,,,,,,,,,,,,,,,,,,,,,,,,,,,,,,,,,,,,,,,,,,,,,,,,,,,,,,,,,,,,,,,,,,,,,,,,,,,,,,,,,,,,,,,,,,,,,,,,,,
,,603fb04d42dd7c0a9398a42f,2024-02-22_00h29.07.047,kallum_motion_pilot,2023.2.2,Linux x86_64,60.09615385,603fb04d42dd7c0a9398a42f,65d6bb0e977760de756971f7,65d6bee16cbfc377f68bee76,0.159,0.159,1,52,214,84,1,sevenfive,,,,,,,,,,,,,,,,,,,,,,,,,,,,,,,,,,,,,,,,,,,,,,,,,,,,,,,,,,,,,,,,,,,,,,,,,,,,,,,,,,,,,,,,,,,,,,,,,,,,,,,,,,,,,,,,,,,,,,,,,,,,,,,,,,,,,,,,,
,,603fb04d42dd7c0a9398a42f,2024-02-22_00h29.07.047,kallum_motion_pilot,2023.2.2,Linux x86_64,60.09615385,603fb04d42dd7c0a9398a42f,65d6bb0e977760de756971f7,65d6bee16cbfc377f68bee76,0.159,0.159,1,53,215,138,1,sixfive,,,,,,,,,,,,,,,,,,,,,,,,,,,,,,,,,,,,,,,,,,,,,,,,,,,,,,,,,,,,,,,,,,,,,,,,,,,,,,,,,,,,,,,,,,,,,,,,,,,,,,,,,,,,,,,,,,,,,,,,,,,,,,,,,,,,,,,,,
,,603fb04d42dd7c0a9398a42f,2024-02-22_00h29.07.047,kallum_motion_pilot,2023.2.2,Linux x86_64,60.09615385,603fb04d42dd7c0a9398a42f,65d6bb0e977760de756971f7,65d6bee16cbfc377f68bee76,0.159,0.159,1,54,216,142,1,eightsix,,,,,,,,,,,,,,,,,,,,,,,,,,,,,,,,,,,,,,,,,,,,,,,,,,,,,,,,,,,,,,,,,,,,,,,,,,,,,,,,,,,,,,,,,,,,,,,,,,,,,,,,,,,,,,,,,,,,,,,,,,,,,,,,,,,,,,,,,
,,603fb04d42dd7c0a9398a42f,2024-02-22_00h29.07.047,kallum_motion_pilot,2023.2.2,Linux x86_64,60.09615385,603fb04d42dd7c0a9398a42f,65d6bb0e977760de756971f7,65d6bee16cbfc377f68bee76,0.16,0.16,1,55,217,4,1,threeone,,,,,,,,,,,,,,,,,,,,,,,,,,,,,,,,,,,,,,,,,,,,,,,,,,,,,,,,,,,,,,,,,,,,,,,,,,,,,,,,,,,,,,,,,,,,,,,,,,,,,,,,,,,,,,,,,,,,,,,,,,,,,,,,,,,,,,,,,
,,603fb04d42dd7c0a9398a42f,2024-02-22_00h29.07.047,kallum_motion_pilot,2023.2.2,Linux x86_64,60.09615385,603fb04d42dd7c0a9398a42f,65d6bb0e977760de756971f7,65d6bee16cbfc377f68bee76,0.16,0.16,1,56,218,134,1,eightsix,,,,,,,,,,,,,,,,,,,,,,,,,,,,,,,,,,,,,,,,,,,,,,,,,,,,,,,,,,,,,,,,,,,,,,,,,,,,,,,,,,,,,,,,,,,,,,,,,,,,,,,,,,,,,,,,,,,,,,,,,,,,,,,,,,,,,,,,,
,,603fb04d42dd7c0a9398a42f,2024-02-22_00h29.07.047,kallum_motion_pilot,2023.2.2,Linux x86_64,60.09615385,603fb04d42dd7c0a9398a42f,65d6bb0e977760de756971f7,65d6bee16cbfc377f68bee76,0.16,0.16,1,57,219,60,1,threeone,,,,,,,,,,,,,,,,,,,,,,,,,,,,,,,,,,,,,,,,,,,,,,,,,,,,,,,,,,,,,,,,,,,,,,,,,,,,,,,,,,,,,,,,,,,,,,,,,,,,,,,,,,,,,,,,,,,,,,,,,,,,,,,,,,,,,,,,,
,,603fb04d42dd7c0a9398a42f,2024-02-22_00h29.07.047,kallum_motion_pilot,2023.2.2,Linux x86_64,60.09615385,603fb04d42dd7c0a9398a42f,65d6bb0e977760de756971f7,65d6bee16cbfc377f68bee76,0.16,0.16,1,58,220,154,1,sixfive,,,,,,,,,,,,,,,,,,,,,,,,,,,,,,,,,,,,,,,,,,,,,,,,,,,,,,,,,,,,,,,,,,,,,,,,,,,,,,,,,,,,,,,,,,,,,,,,,,,,,,,,,,,,,,,,,,,,,,,,,,,,,,,,,,,,,,,,,
,,603fb04d42dd7c0a9398a42f,2024-02-22_00h29.07.047,kallum_motion_pilot,2023.2.2,Linux x86_64,60.09615385,603fb04d42dd7c0a9398a42f,65d6bb0e977760de756971f7,65d6bee16cbfc377f68bee76,0.161,0.161,1,59,221,69,1,threefour,,,,,,,,,,,,,,,,,,,,,,,,,,,,,,,,,,,,,,,,,,,,,,,,,,,,,,,,,,,,,,,,,,,,,,,,,,,,,,,,,,,,,,,,,,,,,,,,,,,,,,,,,,,,,,,,,,,,,,,,,,,,,,,,,,,,,,,,,
,,603fb04d42dd7c0a9398a42f,2024-02-22_00h29.07.047,kallum_motion_pilot,2023.2.2,Linux x86_64,60.09615385,603fb04d42dd7c0a9398a42f,65d6bb0e977760de756971f7,65d6bee16cbfc377f68bee76,0.161,0.161,1,60,222,59,1,twofour,,,,,,,,,,,,,,,,,,,,,,,,,,,,,,,,,,,,,,,,,,,,,,,,,,,,,,,,,,,,,,,,,,,,,,,,,,,,,,,,,,,,,,,,,,,,,,,,,,,,,,,,,,,,,,,,,,,,,,,,,,,,,,,,,,,,,,,,,
,,603fb04d42dd7c0a9398a42f,2024-02-22_00h29.07.047,kallum_motion_pilot,2023.2.2,Linux x86_64,60.09615385,603fb04d42dd7c0a9398a42f,65d6bb0e977760de756971f7,65d6bee16cbfc377f68bee76,0.161,0.161,1,61,223,93,1,seveneight,,,,,,,,,,,,,,,,,,,,,,,,,,,,,,,,,,,,,,,,,,,,,,,,,,,,,,,,,,,,,,,,,,,,,,,,,,,,,,,,,,,,,,,,,,,,,,,,,,,,,,,,,,,,,,,,,,,,,,,,,,,,,,,,,,,,,,,,,
,,603fb04d42dd7c0a9398a42f,2024-02-22_00h29.07.047,kallum_motion_pilot,2023.2.2,Linux x86_64,60.09615385,603fb04d42dd7c0a9398a42f,65d6bb0e977760de756971f7,65d6bee16cbfc377f68bee76,0.161,0.163,1,62,224,32,1,onetwo,,,,,,,,,,,,,,,,,,,,,,,,,,,,,,,,,,,,,,,,,,,,,,,,,,,,,,,,,,,,,,,,,,,,,,,,,,,,,,,,,,,,,,,,,,,,,,,,,,,,,,,,,,,,,,,,,,,,,,,,,,,,,,,,,,,,,,,,,
,,603fb04d42dd7c0a9398a42f,2024-02-22_00h29.07.047,kallum_motion_pilot,2023.2.2,Linux x86_64,60.09615385,603fb04d42dd7c0a9398a42f,65d6bb0e977760de756971f7,65d6bee16cbfc377f68bee76,0.163,0.163,1,63,225,120,1,fivesix,,,,,,,,,,,,,,,,,,,,,,,,,,,,,,,,,,,,,,,,,,,,,,,,,,,,,,,,,,,,,,,,,,,,,,,,,,,,,,,,,,,,,,,,,,,,,,,,,,,,,,,,,,,,,,,,,,,,,,,,,,,,,,,,,,,,,,,,,
,,603fb04d42dd7c0a9398a42f,2024-02-22_00h29.07.047,kallum_motion_pilot,2023.2.2,Linux x86_64,60.09615385,603fb04d42dd7c0a9398a42f,65d6bb0e977760de756971f7,65d6bee16cbfc377f68bee76,0.164,0.164,1,64,226,33,1,onethree,,,,,,,,,,,,,,,,,,,,,,,,,,,,,,,,,,,,,,,,,,,,,,,,,,,,,,,,,,,,,,,,,,,,,,,,,,,,,,,,,,,,,,,,,,,,,,,,,,,,,,,,,,,,,,,,,,,,,,,,,,,,,,,,,,,,,,,,,
,,603fb04d42dd7c0a9398a42f,2024-02-22_00h29.07.047,kallum_motion_pilot,2023.2.2,Linux x86_64,60.09615385,603fb04d42dd7c0a9398a42f,65d6bb0e977760de756971f7,65d6bee16cbfc377f68bee76,0.164,0.164,1,65,227,51,1,twofour,,,,,,,,,,,,,,,,,,,,,,,,,,,,,,,,,,,,,,,,,,,,,,,,,,,,,,,,,,,,,,,,,,,,,,,,,,,,,,,,,,,,,,,,,,,,,,,,,,,,,,,,,,,,,,,,,,,,,,,,,,,,,,,,,,,,,,,,,
,,603fb04d42dd7c0a9398a42f,2024-02-22_00h29.07.047,kallum_motion_pilot,2023.2.2,Linux x86_64,60.09615385,603fb04d42dd7c0a9398a42f,65d6bb0e977760de756971f7,65d6bee16cbfc377f68bee76,0.164,0.164,1,66,228,149,1,seveneight,,,,,,,,,,,,,,,,,,,,,,,,,,,,,,,,,,,,,,,,,,,,,,,,,,,,,,,,,,,,,,,,,,,,,,,,,,,,,,,,,,,,,,,,,,,,,,,,,,,,,,,,,,,,,,,,,,,,,,,,,,,,,,,,,,,,,,,,,
,,603fb04d42dd7c0a9398a42f,2024-02-22_00h29.07.047,kallum_motion_pilot,2023.2.2,Linux x86_64,60.09615385,603fb04d42dd7c0a9398a42f,65d6bb0e977760de756971f7,65d6bee16cbfc377f68bee76,0.165,0.165,1,67,229,23,1,fourthree,,,,,,,,,,,,,,,,,,,,,,,,,,,,,,,,,,,,,,,,,,,,,,,,,,,,,,,,,,,,,,,,,,,,,,,,,,,,,,,,,,,,,,,,,,,,,,,,,,,,,,,,,,,,,,,,,,,,,,,,,,,,,,,,,,,,,,,,,
,,603fb04d42dd7c0a9398a42f,2024-02-22_00h29.07.047,kallum_motion_pilot,2023.2.2,Linux x86_64,60.09615385,603fb04d42dd7c0a9398a42f,65d6bb0e977760de756971f7,65d6bee16cbfc377f68bee76,0.165,0.165,1,68,230,5,1,threefour,,,,,,,,,,,,,,,,,,,,,,,,,,,,,,,,,,,,,,,,,,,,,,,,,,,,,,,,,,,,,,,,,,,,,,,,,,,,,,,,,,,,,,,,,,,,,,,,,,,,,,,,,,,,,,,,,,,,,,,,,,,,,,,,,,,,,,,,,
,,603fb04d42dd7c0a9398a42f,2024-02-22_00h29.07.047,kallum_motion_pilot,2023.2.2,Linux x86_64,60.09615385,603fb04d42dd7c0a9398a42f,65d6bb0e977760de756971f7,65d6bee16cbfc377f68bee76,0.166,0.166,1,69,231,90,1,sixfive,,,,,,,,,,,,,,,,,,,,,,,,,,,,,,,,,,,,,,,,,,,,,,,,,,,,,,,,,,,,,,,,,,,,,,,,,,,,,,,,,,,,,,,,,,,,,,,,,,,,,,,,,,,,,,,,,,,,,,,,,,,,,,,,,,,,,,,,,
,,603fb04d42dd7c0a9398a42f,2024-02-22_00h29.07.047,kallum_motion_pilot,2023.2.2,Linux x86_64,60.09615385,603fb04d42dd7c0a9398a42f,65d6bb0e977760de756971f7,65d6bee16cbfc377f68bee76,0.166,0.167,1,70,232,14,1,fourtwo,,,,,,,,,,,,,,,,,,,,,,,,,,,,,,,,,,,,,,,,,,,,,,,,,,,,,,,,,,,,,,,,,,,,,,,,,,,,,,,,,,,,,,,,,,,,,,,,,,,,,,,,,,,,,,,,,,,,,,,,,,,,,,,,,,,,,,,,,
,,603fb04d42dd7c0a9398a42f,2024-02-22_00h29.07.047,kallum_motion_pilot,2023.2.2,Linux x86_64,60.09615385,603fb04d42dd7c0a9398a42f,65d6bb0e977760de756971f7,65d6bee16cbfc377f68bee76,0.167,0.167,1,71,233,97,1,fiveseven,,,,,,,,,,,,,,,,,,,,,,,,,,,,,,,,,,,,,,,,,,,,,,,,,,,,,,,,,,,,,,,,,,,,,,,,,,,,,,,,,,,,,,,,,,,,,,,,,,,,,,,,,,,,,,,,,,,,,,,,,,,,,,,,,,,,,,,,,
,,603fb04d42dd7c0a9398a42f,2024-02-22_00h29.07.047,kallum_motion_pilot,2023.2.2,Linux x86_64,60.09615385,603fb04d42dd7c0a9398a42f,65d6bb0e977760de756971f7,65d6bee16cbfc377f68bee76,0.167,0.167,1,72,234,157,1,seveneight,,,,,,,,,,,,,,,,,,,,,,,,,,,,,,,,,,,,,,,,,,,,,,,,,,,,,,,,,,,,,,,,,,,,,,,,,,,,,,,,,,,,,,,,,,,,,,,,,,,,,,,,,,,,,,,,,,,,,,,,,,,,,,,,,,,,,,,,,
,,603fb04d42dd7c0a9398a42f,2024-02-22_00h29.07.047,kallum_motion_pilot,2023.2.2,Linux x86_64,60.09615385,603fb04d42dd7c0a9398a42f,65d6bb0e977760de756971f7,65d6bee16cbfc377f68bee76,0.167,0.167,1,73,235,54,1,fourtwo,,,,,,,,,,,,,,,,,,,,,,,,,,,,,,,,,,,,,,,,,,,,,,,,,,,,,,,,,,,,,,,,,,,,,,,,,,,,,,,,,,,,,,,,,,,,,,,,,,,,,,,,,,,,,,,,,,,,,,,,,,,,,,,,,,,,,,,,,
,,603fb04d42dd7c0a9398a42f,2024-02-22_00h29.07.047,kallum_motion_pilot,2023.2.2,Linux x86_64,60.09615385,603fb04d42dd7c0a9398a42f,65d6bb0e977760de756971f7,65d6bee16cbfc377f68bee76,0.167,0.167,1,74,236,61,1,threefour,,,,,,,,,,,,,,,,,,,,,,,,,,,,,,,,,,,,,,,,,,,,,,,,,,,,,,,,,,,,,,,,,,,,,,,,,,,,,,,,,,,,,,,,,,,,,,,,,,,,,,,,,,,,,,,,,,,,,,,,,,,,,,,,,,,,,,,,,
,,603fb04d42dd7c0a9398a42f,2024-02-22_00h29.07.047,kallum_motion_pilot,2023.2.2,Linux x86_64,60.09615385,603fb04d42dd7c0a9398a42f,65d6bb0e977760de756971f7,65d6bee16cbfc377f68bee76,0.167,0.167,1,75,237,107,1,sixeight,,,,,,,,,,,,,,,,,,,,,,,,,,,,,,,,,,,,,,,,,,,,,,,,,,,,,,,,,,,,,,,,,,,,,,,,,,,,,,,,,,,,,,,,,,,,,,,,,,,,,,,,,,,,,,,,,,,,,,,,,,,,,,,,,,,,,,,,,
,,603fb04d42dd7c0a9398a42f,2024-02-22_00h29.07.047,kallum_motion_pilot,2023.2.2,Linux x86_64,60.09615385,603fb04d42dd7c0a9398a42f,65d6bb0e977760de756971f7,65d6bee16cbfc377f68bee76,0.167,0.167,1,76,238,3,1,twofour,,,,,,,,,,,,,,,,,,,,,,,,,,,,,,,,,,,,,,,,,,,,,,,,,,,,,,,,,,,,,,,,,,,,,,,,,,,,,,,,,,,,,,,,,,,,,,,,,,,,,,,,,,,,,,,,,,,,,,,,,,,,,,,,,,,,,,,,,
,,603fb04d42dd7c0a9398a42f,2024-02-22_00h29.07.047,kallum_motion_pilot,2023.2.2,Linux x86_64,60.09615385,603fb04d42dd7c0a9398a42f,65d6bb0e977760de756971f7,65d6bee16cbfc377f68bee76,0.167,0.167,1,77,239,6,1,fourtwo,,,,,,,,,,,,,,,,,,,,,,,,,,,,,,,,,,,,,,,,,,,,,,,,,,,,,,,,,,,,,,,,,,,,,,,,,,,,,,,,,,,,,,,,,,,,,,,,,,,,,,,,,,,,,,,,,,,,,,,,,,,,,,,,,,,,,,,,,
,,603fb04d42dd7c0a9398a42f,2024-02-22_00h29.07.047,kallum_motion_pilot,2023.2.2,Linux x86_64,60.09615385,603fb04d42dd7c0a9398a42f,65d6bb0e977760de756971f7,65d6bee16cbfc377f68bee76,0.168,0.168,1,78,240,55,1,fourthree,,,,,,,,,,,,,,,,,,,,,,,,,,,,,,,,,,,,,,,,,,,,,,,,,,,,,,,,,,,,,,,,,,,,,,,,,,,,,,,,,,,,,,,,,,,,,,,,,,,,,,,,,,,,,,,,,,,,,,,,,,,,,,,,,,,,,,,,,
,,603fb04d42dd7c0a9398a42f,2024-02-22_00h29.07.047,kallum_motion_pilot,2023.2.2,Linux x86_64,60.09615385,603fb04d42dd7c0a9398a42f,65d6bb0e977760de756971f7,65d6bee16cbfc377f68bee76,0.168,0.168,1,79,241,105,1,fiveseven,,,,,,,,,,,,,,,,,,,,,,,,,,,,,,,,,,,,,,,,,,,,,,,,,,,,,,,,,,,,,,,,,,,,,,,,,,,,,,,,,,,,,,,,,,,,,,,,,,,,,,,,,,,,,,,,,,,,,,,,,,,,,,,,,,,,,,,,,
,,603fb04d42dd7c0a9398a42f,2024-02-22_00h29.07.047,kallum_motion_pilot,2023.2.2,Linux x86_64,60.09615385,603fb04d42dd7c0a9398a42f,65d6bb0e977760de756971f7,65d6bee16cbfc377f68bee76,0.168,0.168,1,80,242,140,1,sevenfive,,,,,,,,,,,,,,,,,,,,,,,,,,,,,,,,,,,,,,,,,,,,,,,,,,,,,,,,,,,,,,,,,,,,,,,,,,,,,,,,,,,,,,,,,,,,,,,,,,,,,,,,,,,,,,,,,,,,,,,,,,,,,,,,,,,,,,,,,
,,603fb04d42dd7c0a9398a42f,2024-02-22_00h29.07.047,kallum_motion_pilot,2023.2.2,Linux x86_64,60.09615385,603fb04d42dd7c0a9398a42f,65d6bb0e977760de756971f7,65d6bee16cbfc377f68bee76,0.168,0.168,1,81,243,64,1,onetwo,,,,,,,,,,,,,,,,,,,,,,,,,,,,,,,,,,,,,,,,,,,,,,,,,,,,,,,,,,,,,,,,,,,,,,,,,,,,,,,,,,,,,,,,,,,,,,,,,,,,,,,,,,,,,,,,,,,,,,,,,,,,,,,,,,,,,,,,,
,,603fb04d42dd7c0a9398a42f,2024-02-22_00h29.07.047,kallum_motion_pilot,2023.2.2,Linux x86_64,60.09615385,603fb04d42dd7c0a9398a42f,65d6bb0e977760de756971f7,65d6bee16cbfc377f68bee76,0.168,0.168,1,82,244,131,1,sixeight,,,,,,,,,,,,,,,,,,,,,,,,,,,,,,,,,,,,,,,,,,,,,,,,,,,,,,,,,,,,,,,,,,,,,,,,,,,,,,,,,,,,,,,,,,,,,,,,,,,,,,,,,,,,,,,,,,,,,,,,,,,,,,,,,,,,,,,,,
,,603fb04d42dd7c0a9398a42f,2024-02-22_00h29.07.047,kallum_motion_pilot,2023.2.2,Linux x86_64,60.09615385,603fb04d42dd7c0a9398a42f,65d6bb0e977760de756971f7,65d6bee16cbfc377f68bee76,0.169,0.169,1,83,245,0,1,onetwo,,,,,,,,,,,,,,,,,,,,,,,,,,,,,,,,,,,,,,,,,,,,,,,,,,,,,,,,,,,,,,,,,,,,,,,,,,,,,,,,,,,,,,,,,,,,,,,,,,,,,,,,,,,,,,,,,,,,,,,,,,,,,,,,,,,,,,,,,
,,603fb04d42dd7c0a9398a42f,2024-02-22_00h29.07.047,kallum_motion_pilot,2023.2.2,Linux x86_64,60.09615385,603fb04d42dd7c0a9398a42f,65d6bb0e977760de756971f7,65d6bee16cbfc377f68bee76,0.169,0.169,1,84,246,76,1,threeone,,,,,,,,,,,,,,,,,,,,,,,,,,,,,,,,,,,,,,,,,,,,,,,,,,,,,,,,,,,,,,,,,,,,,,,,,,,,,,,,,,,,,,,,,,,,,,,,,,,,,,,,,,,,,,,,,,,,,,,,,,,,,,,,,,,,,,,,,
,,603fb04d42dd7c0a9398a42f,2024-02-22_00h29.07.047,kallum_motion_pilot,2023.2.2,Linux x86_64,60.09615385,603fb04d42dd7c0a9398a42f,65d6bb0e977760de756971f7,65d6bee16cbfc377f68bee76,0.169,0.169,1,85,247,158,1,eightsix,,,,,,,,,,,,,,,,,,,,,,,,,,,,,,,,,,,,,,,,,,,,,,,,,,,,,,,,,,,,,,,,,,,,,,,,,,,,,,,,,,,,,,,,,,,,,,,,,,,,,,,,,,,,,,,,,,,,,,,,,,,,,,,,,,,,,,,,,
,,603fb04d42dd7c0a9398a42f,2024-02-22_00h29.07.047,kallum_motion_pilot,2023.2.2,Linux x86_64,60.09615385,603fb04d42dd7c0a9398a42f,65d6bb0e977760de756971f7,65d6bee16cbfc377f68bee76,0.169,0.169,1,86,248,36,1,threeone,,,,,,,,,,,,,,,,,,,,,,,,,,,,,,,,,,,,,,,,,,,,,,,,,,,,,,,,,,,,,,,,,,,,,,,,,,,,,,,,,,,,,,,,,,,,,,,,,,,,,,,,,,,,,,,,,,,,,,,,,,,,,,,,,,,,,,,,,
,,603fb04d42dd7c0a9398a42f,2024-02-22_00h29.07.047,kallum_motion_pilot,2023.2.2,Linux x86_64,60.09615385,603fb04d42dd7c0a9398a42f,65d6bb0e977760de756971f7,65d6bee16cbfc377f68bee76,0.17,0.17,1,87,249,114,1,sixfive,,,,,,,,,,,,,,,,,,,,,,,,,,,,,,,,,,,,,,,,,,,,,,,,,,,,,,,,,,,,,,,,,,,,,,,,,,,,,,,,,,,,,,,,,,,,,,,,,,,,,,,,,,,,,,,,,,,,,,,,,,,,,,,,,,,,,,,,,
,,603fb04d42dd7c0a9398a42f,2024-02-22_00h29.07.047,kallum_motion_pilot,2023.2.2,Linux x86_64,60.09615385,603fb04d42dd7c0a9398a42f,65d6bb0e977760de756971f7,65d6bee16cbfc377f68bee76,0.17,0.17,1,88,250,153,1,fiveseven,,,,,,,,,,,,,,,,,,,,,,,,,,,,,,,,,,,,,,,,,,,,,,,,,,,,,,,,,,,,,,,,,,,,,,,,,,,,,,,,,,,,,,,,,,,,,,,,,,,,,,,,,,,,,,,,,,,,,,,,,,,,,,,,,,,,,,,,,
,,603fb04d42dd7c0a9398a42f,2024-02-22_00h29.07.047,kallum_motion_pilot,2023.2.2,Linux x86_64,60.09615385,603fb04d42dd7c0a9398a42f,65d6bb0e977760de756971f7,65d6bee16cbfc377f68bee76,0.17,0.17,1,89,251,101,1,seveneight,,,,,,,,,,,,,,,,,,,,,,,,,,,,,,,,,,,,,,,,,,,,,,,,,,,,,,,,,,,,,,,,,,,,,,,,,,,,,,,,,,,,,,,,,,,,,,,,,,,,,,,,,,,,,,,,,,,,,,,,,,,,,,,,,,,,,,,,,
,,603fb04d42dd7c0a9398a42f,2024-02-22_00h29.07.047,kallum_motion_pilot,2023.2.2,Linux x86_64,60.09615385,603fb04d42dd7c0a9398a42f,65d6bb0e977760de756971f7,65d6bee16cbfc377f68bee76,0.171,0.171,1,90,252,127,1,eightseven,,,,,,,,,,,,,,,,,,,,,,,,,,,,,,,,,,,,,,,,,,,,,,,,,,,,,,,,,,,,,,,,,,,,,,,,,,,,,,,,,,,,,,,,,,,,,,,,,,,,,,,,,,,,,,,,,,,,,,,,,,,,,,,,,,,,,,,,,
,,603fb04d42dd7c0a9398a42f,2024-02-22_00h29.07.047,kallum_motion_pilot,2023.2.2,Linux x86_64,60.09615385,603fb04d42dd7c0a9398a42f,65d6bb0e977760de756971f7,65d6bee16cbfc377f68bee76,0.171,0.171,1,91,253,86,1,eightsix,,,,,,,,,,,,,,,,,,,,,,,,,,,,,,,,,,,,,,,,,,,,,,,,,,,,,,,,,,,,,,,,,,,,,,,,,,,,,,,,,,,,,,,,,,,,,,,,,,,,,,,,,,,,,,,,,,,,,,,,,,,,,,,,,,,,,,,,,
,,603fb04d42dd7c0a9398a42f,2024-02-22_00h29.07.047,kallum_motion_pilot,2023.2.2,Linux x86_64,60.09615385,603fb04d42dd7c0a9398a42f,65d6bb0e977760de756971f7,65d6bee16cbfc377f68bee76,0.171,0.171,1,92,254,29,1,threefour,,,,,,,,,,,,,,,,,,,,,,,,,,,,,,,,,,,,,,,,,,,,,,,,,,,,,,,,,,,,,,,,,,,,,,,,,,,,,,,,,,,,,,,,,,,,,,,,,,,,,,,,,,,,,,,,,,,,,,,,,,,,,,,,,,,,,,,,,
,,603fb04d42dd7c0a9398a42f,2024-02-22_00h29.07.047,kallum_motion_pilot,2023.2.2,Linux x86_64,60.09615385,603fb04d42dd7c0a9398a42f,65d6bb0e977760de756971f7,65d6bee16cbfc377f68bee76,0.172,0.172,1,93,255,42,1,twoone,,,,,,,,,,,,,,,,,,,,,,,,,,,,,,,,,,,,,,,,,,,,,,,,,,,,,,,,,,,,,,,,,,,,,,,,,,,,,,,,,,,,,,,,,,,,,,,,,,,,,,,,,,,,,,,,,,,,,,,,,,,,,,,,,,,,,,,,,
,,603fb04d42dd7c0a9398a42f,2024-02-22_00h29.07.047,kallum_motion_pilot,2023.2.2,Linux x86_64,60.09615385,603fb04d42dd7c0a9398a42f,65d6bb0e977760de756971f7,65d6bee16cbfc377f68bee76,0.172,0.172,1,94,256,128,1,fivesix,,,,,,,,,,,,,,,,,,,,,,,,,,,,,,,,,,,,,,,,,,,,,,,,,,,,,,,,,,,,,,,,,,,,,,,,,,,,,,,,,,,,,,,,,,,,,,,,,,,,,,,,,,,,,,,,,,,,,,,,,,,,,,,,,,,,,,,,,
,,603fb04d42dd7c0a9398a42f,2024-02-22_00h29.07.047,kallum_motion_pilot,2023.2.2,Linux x86_64,60.09615385,603fb04d42dd7c0a9398a42f,65d6bb0e977760de756971f7,65d6bee16cbfc377f68bee76,0.172,0.172,1,95,257,85,1,seveneight,,,,,,,,,,,,,,,,,,,,,,,,,,,,,,,,,,,,,,,,,,,,,,,,,,,,,,,,,,,,,,,,,,,,,,,,,,,,,,,,,,,,,,,,,,,,,,,,,,,,,,,,,,,,,,,,,,,,,,,,,,,,,,,,,,,,,,,,,
,,603fb04d42dd7c0a9398a42f,2024-02-22_00h29.07.047,kallum_motion_pilot,2023.2.2,Linux x86_64,60.09615385,603fb04d42dd7c0a9398a42f,65d6bb0e977760de756971f7,65d6bee16cbfc377f68bee76,0.172,0.172,1,96,258,9,1,onethree,,,,,,,,,,,,,,,,,,,,,,,,,,,,,,,,,,,,,,,,,,,,,,,,,,,,,,,,,,,,,,,,,,,,,,,,,,,,,,,,,,,,,,,,,,,,,,,,,,,,,,,,,,,,,,,,,,,,,,,,,,,,,,,,,,,,,,,,,
,,603fb04d42dd7c0a9398a42f,2024-02-22_00h29.07.047,kallum_motion_pilot,2023.2.2,Linux x86_64,60.09615385,603fb04d42dd7c0a9398a42f,65d6bb0e977760de756971f7,65d6bee16cbfc377f68bee76,0.173,0.173,1,97,259,72,1,onetwo,,,,,,,,,,,,,,,,,,,,,,,,,,,,,,,,,,,,,,,,,,,,,,,,,,,,,,,,,,,,,,,,,,,,,,,,,,,,,,,,,,,,,,,,,,,,,,,,,,,,,,,,,,,,,,,,,,,,,,,,,,,,,,,,,,,,,,,,,
,,603fb04d42dd7c0a9398a42f,2024-02-22_00h29.07.047,kallum_motion_pilot,2023.2.2,Linux x86_64,60.09615385,603fb04d42dd7c0a9398a42f,65d6bb0e977760de756971f7,65d6bee16cbfc377f68bee76,0.173,0.173,1,98,260,155,1,sixeight,,,,,,,,,,,,,,,,,,,,,,,,,,,,,,,,,,,,,,,,,,,,,,,,,,,,,,,,,,,,,,,,,,,,,,,,,,,,,,,,,,,,,,,,,,,,,,,,,,,,,,,,,,,,,,,,,,,,,,,,,,,,,,,,,,,,,,,,,
,,603fb04d42dd7c0a9398a42f,2024-02-22_00h29.07.047,kallum_motion_pilot,2023.2.2,Linux x86_64,60.09615385,603fb04d42dd7c0a9398a42f,65d6bb0e977760de756971f7,65d6bee16cbfc377f68bee76,0.173,0.173,1,99,261,66,1,twoone,,,,,,,,,,,,,,,,,,,,,,,,,,,,,,,,,,,,,,,,,,,,,,,,,,,,,,,,,,,,,,,,,,,,,,,,,,,,,,,,,,,,,,,,,,,,,,,,,,,,,,,,,,,,,,,,,,,,,,,,,,,,,,,,,,,,,,,,,
,,603fb04d42dd7c0a9398a42f,2024-02-22_00h29.07.047,kallum_motion_pilot,2023.2.2,Linux x86_64,60.09615385,603fb04d42dd7c0a9398a42f,65d6bb0e977760de756971f7,65d6bee16cbfc377f68bee76,0.173,0.173,1,100,262,18,1,twoone,,,,,,,,,,,,,,,,,,,,,,,,,,,,,,,,,,,,,,,,,,,,,,,,,,,,,,,,,,,,,,,,,,,,,,,,,,,,,,,,,,,,,,,,,,,,,,,,,,,,,,,,,,,,,,,,,,,,,,,,,,,,,,,,,,,,,,,,,
,,603fb04d42dd7c0a9398a42f,2024-02-22_00h29.07.047,kallum_motion_pilot,2023.2.2,Linux x86_64,60.09615385,603fb04d42dd7c0a9398a42f,65d6bb0e977760de756971f7,65d6bee16cbfc377f68bee76,0.173,0.173,1,101,263,49,1,onethree,,,,,,,,,,,,,,,,,,,,,,,,,,,,,,,,,,,,,,,,,,,,,,,,,,,,,,,,,,,,,,,,,,,,,,,,,,,,,,,,,,,,,,,,,,,,,,,,,,,,,,,,,,,,,,,,,,,,,,,,,,,,,,,,,,,,,,,,,
,,603fb04d42dd7c0a9398a42f,2024-02-22_00h29.07.047,kallum_motion_pilot,2023.2.2,Linux x86_64,60.09615385,603fb04d42dd7c0a9398a42f,65d6bb0e977760de756971f7,65d6bee16cbfc377f68bee76,0.174,0.174,1,102,264,102,1,eightsix,,,,,,,,,,,,,,,,,,,,,,,,,,,,,,,,,,,,,,,,,,,,,,,,,,,,,,,,,,,,,,,,,,,,,,,,,,,,,,,,,,,,,,,,,,,,,,,,,,,,,,,,,,,,,,,,,,,,,,,,,,,,,,,,,,,,,,,,,
,,603fb04d42dd7c0a9398a42f,2024-02-22_00h29.07.047,kallum_motion_pilot,2023.2.2,Linux x86_64,60.09615385,603fb04d42dd7c0a9398a42f,65d6bb0e977760de756971f7,65d6bee16cbfc377f68bee76,0.174,0.174,1,103,265,89,1,fiveseven,,,,,,,,,,,,,,,,,,,,,,,,,,,,,,,,,,,,,,,,,,,,,,,,,,,,,,,,,,,,,,,,,,,,,,,,,,,,,,,,,,,,,,,,,,,,,,,,,,,,,,,,,,,,,,,,,,,,,,,,,,,,,,,,,,,,,,,,,
,,603fb04d42dd7c0a9398a42f,2024-02-22_00h29.07.047,kallum_motion_pilot,2023.2.2,Linux x86_64,60.09615385,603fb04d42dd7c0a9398a42f,65d6bb0e977760de756971f7,65d6bee16cbfc377f68bee76,0.174,0.174,1,104,266,28,1,threeone,,,,,,,,,,,,,,,,,,,,,,,,,,,,,,,,,,,,,,,,,,,,,,,,,,,,,,,,,,,,,,,,,,,,,,,,,,,,,,,,,,,,,,,,,,,,,,,,,,,,,,,,,,,,,,,,,,,,,,,,,,,,,,,,,,,,,,,,,
,,603fb04d42dd7c0a9398a42f,2024-02-22_00h29.07.047,kallum_motion_pilot,2023.2.2,Linux x86_64,60.09615385,603fb04d42dd7c0a9398a42f,65d6bb0e977760de756971f7,65d6bee16cbfc377f68bee76,0.174,0.174,1,105,267,112,1,fivesix,,,,,,,,,,,,,,,,,,,,,,,,,,,,,,,,,,,,,,,,,,,,,,,,,,,,,,,,,,,,,,,,,,,,,,,,,,,,,,,,,,,,,,,,,,,,,,,,,,,,,,,,,,,,,,,,,,,,,,,,,,,,,,,,,,,,,,,,,
,,603fb04d42dd7c0a9398a42f,2024-02-22_00h29.07.047,kallum_motion_pilot,2023.2.2,Linux x86_64,60.09615385,603fb04d42dd7c0a9398a42f,65d6bb0e977760de756971f7,65d6bee16cbfc377f68bee76,0.174,0.175,1,106,268,20,1,threeone,,,,,,,,,,,,,,,,,,,,,,,,,,,,,,,,,,,,,,,,,,,,,,,,,,,,,,,,,,,,,,,,,,,,,,,,,,,,,,,,,,,,,,,,,,,,,,,,,,,,,,,,,,,,,,,,,,,,,,,,,,,,,,,,,,,,,,,,,
,,603fb04d42dd7c0a9398a42f,2024-02-22_00h29.07.047,kallum_motion_pilot,2023.2.2,Linux x86_64,60.09615385,603fb04d42dd7c0a9398a42f,65d6bb0e977760de756971f7,65d6bee16cbfc377f68bee76,0.175,0.175,1,107,269,104,1,fivesix,,,,,,,,,,,,,,,,,,,,,,,,,,,,,,,,,,,,,,,,,,,,,,,,,,,,,,,,,,,,,,,,,,,,,,,,,,,,,,,,,,,,,,,,,,,,,,,,,,,,,,,,,,,,,,,,,,,,,,,,,,,,,,,,,,,,,,,,,
,,603fb04d42dd7c0a9398a42f,2024-02-22_00h29.07.047,kallum_motion_pilot,2023.2.2,Linux x86_64,60.09615385,603fb04d42dd7c0a9398a42f,65d6bb0e977760de756971f7,65d6bee16cbfc377f68bee76,0.175,0.175,1,108,270,123,1,sixeight,,,,,,,,,,,,,,,,,,,,,,,,,,,,,,,,,,,,,,,,,,,,,,,,,,,,,,,,,,,,,,,,,,,,,,,,,,,,,,,,,,,,,,,,,,,,,,,,,,,,,,,,,,,,,,,,,,,,,,,,,,,,,,,,,,,,,,,,,
,,603fb04d42dd7c0a9398a42f,2024-02-22_00h29.07.047,kallum_motion_pilot,2023.2.2,Linux x86_64,60.09615385,603fb04d42dd7c0a9398a42f,65d6bb0e977760de756971f7,65d6bee16cbfc377f68bee76,0.175,0.175,1,109,271,16,1,onetwo,,,,,,,,,,,,,,,,,,,,,,,,,,,,,,,,,,,,,,,,,,,,,,,,,,,,,,,,,,,,,,,,,,,,,,,,,,,,,,,,,,,,,,,,,,,,,,,,,,,,,,,,,,,,,,,,,,,,,,,,,,,,,,,,,,,,,,,,,
,,603fb04d42dd7c0a9398a42f,2024-02-22_00h29.07.047,kallum_motion_pilot,2023.2.2,Linux x86_64,60.09615385,603fb04d42dd7c0a9398a42f,65d6bb0e977760de756971f7,65d6bee16cbfc377f68bee76,0.175,0.175,1,110,272,30,1,fourtwo,,,,,,,,,,,,,,,,,,,,,,,,,,,,,,,,,,,,,,,,,,,,,,,,,,,,,,,,,,,,,,,,,,,,,,,,,,,,,,,,,,,,,,,,,,,,,,,,,,,,,,,,,,,,,,,,,,,,,,,,,,,,,,,,,,,,,,,,,
,,603fb04d42dd7c0a9398a42f,2024-02-22_00h29.07.047,kallum_motion_pilot,2023.2.2,Linux x86_64,60.09615385,603fb04d42dd7c0a9398a42f,65d6bb0e977760de756971f7,65d6bee16cbfc377f68bee76,0.176,0.176,1,111,273,37,1,threefour,,,,,,,,,,,,,,,,,,,,,,,,,,,,,,,,,,,,,,,,,,,,,,,,,,,,,,,,,,,,,,,,,,,,,,,,,,,,,,,,,,,,,,,,,,,,,,,,,,,,,,,,,,,,,,,,,,,,,,,,,,,,,,,,,,,,,,,,,
