startup.started,startup.stopped,Prolific ID*,date,expName,psychopyVersion,OS,frameRate,participant,study_id,session,stimpositions.started,stimpositions.stopped,hardcoded_stimulus_positions.thisRepN,hardcoded_stimulus_positions.thisTrialN,hardcoded_stimulus_positions.thisN,hardcoded_stimulus_positions.thisIndex,hardcoded_stimulus_positions.ran,StimulusPos,stimorientation.started,stimorientation.stopped,prac_stimorientation_import_loop.thisRepN,prac_stimorientation_import_loop.thisTrialN,prac_stimorientation_import_loop.thisN,prac_stimorientation_import_loop.thisIndex,prac_stimorientation_import_loop.ran,Stimorientation,welcome_instr.started,welcome_instr.stopped,key_resp.keys,key_resp.rt,key_resp.duration,response_steppedout_1.started,response_steppedout_1.stopped,key_resp_20.keys,key_resp_20.rt,key_resp_20.duration,response_steppedout_2.started,response_steppedout_2.stopped,key_resp_19.keys,key_resp_19.rt,key_resp_19.duration,stim_response_instr.started,stim_response_instr.stopped,key_resp_15.keys,key_resp_15.rt,key_resp_15.duration,direction_instr_2.started,direction_instr_2.stopped,key_resp_9.keys,key_resp_9.rt,key_resp_9.duration,instr_prac.started,instr_prac.stopped,key_resp_10.keys,key_resp_10.rt,key_resp_10.duration,Stim1_display_prac.started,Stim1_display_prac.stopped,Ecc,Circle1_ori,Circle2_ori,response_prac.started,similarity,response_time,response_prac.stopped,mouse_5.x,mouse_5.y,mouse_5.leftButton,mouse_5.midButton,mouse_5.rightButton,mouse_5.clicked_name,responseprac_feedback.started,responseprac_feedback.stopped,summary2_prac.started,summary2_prac.stopped,mouse_6.x,mouse_6.y,mouse_6.leftButton,mouse_6.midButton,mouse_6.rightButton,mouse_6.clicked_name,duringprac.thisRepN,duringprac.thisTrialN,duringprac.thisN,duringprac.thisIndex,duringprac.ran,begin.started,begin.stopped,key_resp_22.keys,key_resp_22.rt,key_resp_22.duration,Stim1_display.started,Stim1_display.stopped,circle1_ori,circle2_ori,circle1_SF,circle2_SF,response.started,response.stopped,mouse.x,mouse.y,mouse.leftButton,mouse.midButton,mouse.rightButton,mouse.clicked_name,trialnumber,double_pass.thisRepN,double_pass.thisTrialN,double_pass.thisN,double_pass.thisIndex,double_pass.ran,double_pass.order,main_trial.thisRepN,main_trial.thisTrialN,main_trial.thisN,main_trial.thisIndex,main_trial.ran,main_trial.order,Trial_Counter,Catch,Frequencies,response_2.started,response_2.stopped,mouse_2.x,mouse_2.y,mouse_2.leftButton,mouse_2.midButton,mouse_2.rightButton,mouse_2.clicked_name,special_trial.started,special_trial.stopped,catch_1.started,catch_1.stopped,mouse_3.x,mouse_3.y,mouse_3.leftButton,mouse_3.midButton,mouse_3.rightButton,catchresponse,catchnumber,response_time_catch,response_sum.started,response_sum.stopped,mouse_11.x,mouse_11.y,mouse_11.leftButton,mouse_11.midButton,mouse_11.rightButton,flip_presentation_sequence_for_double_pass.started,flip_presentation_sequence_for_double_pass.stopped,goodbye.started,goodbye.stopped,key_resp_3.keys,key_resp_3.rt,key_resp_3.duration
0.0002,0.0003,60597f277921839bebfd40ec,2024-02-19_02h13.43.363,kallum_motion_pilot,2023.2.2,Win32,60.60606061,60597f277921839bebfd40ec,65d2b6c8f2eece985d8e374c,65d2b94070519faf7d3f00dc,,,,,,,,,,,,,,,,,,,,,,,,,,,,,,,,,,,,,,,,,,,,,,,,,,,,,,,,,,,,,,,,,,,,,,,,,,,,,,,,,,,,,,,,,,,,,,,,,,,,,,,,,,,,,,,,,,,,,,,,,,,,,,,,,,,,,,,,,,,,,,,,,
,,60597f277921839bebfd40ec,2024-02-19_02h13.43.363,kallum_motion_pilot,2023.2.2,Win32,60.60606061,60597f277921839bebfd40ec,65d2b6c8f2eece985d8e374c,65d2b94070519faf7d3f00dc,0.0137,0.0138,0,0,0,78,1,fourtwo,,,,,,,,,,,,,,,,,,,,,,,,,,,,,,,,,,,,,,,,,,,,,,,,,,,,,,,,,,,,,,,,,,,,,,,,,,,,,,,,,,,,,,,,,,,,,,,,,,,,,,,,,,,,,,,,,,,,,,,,,,,,,,,,,,,,,,,,,
,,60597f277921839bebfd40ec,2024-02-19_02h13.43.363,kallum_motion_pilot,2023.2.2,Win32,60.60606061,60597f277921839bebfd40ec,65d2b6c8f2eece985d8e374c,65d2b94070519faf7d3f00dc,0.0139,0.0139,0,1,1,118,1,eightsix,,,,,,,,,,,,,,,,,,,,,,,,,,,,,,,,,,,,,,,,,,,,,,,,,,,,,,,,,,,,,,,,,,,,,,,,,,,,,,,,,,,,,,,,,,,,,,,,,,,,,,,,,,,,,,,,,,,,,,,,,,,,,,,,,,,,,,,,,
,,60597f277921839bebfd40ec,2024-02-19_02h13.43.363,kallum_motion_pilot,2023.2.2,Win32,60.60606061,60597f277921839bebfd40ec,65d2b6c8f2eece985d8e374c,65d2b94070519faf7d3f00dc,0.014,0.014,0,2,2,55,1,fourthree,,,,,,,,,,,,,,,,,,,,,,,,,,,,,,,,,,,,,,,,,,,,,,,,,,,,,,,,,,,,,,,,,,,,,,,,,,,,,,,,,,,,,,,,,,,,,,,,,,,,,,,,,,,,,,,,,,,,,,,,,,,,,,,,,,,,,,,,,
,,60597f277921839bebfd40ec,2024-02-19_02h13.43.363,kallum_motion_pilot,2023.2.2,Win32,60.60606061,60597f277921839bebfd40ec,65d2b6c8f2eece985d8e374c,65d2b94070519faf7d3f00dc,0.0141,0.0141,0,3,3,11,1,twofour,,,,,,,,,,,,,,,,,,,,,,,,,,,,,,,,,,,,,,,,,,,,,,,,,,,,,,,,,,,,,,,,,,,,,,,,,,,,,,,,,,,,,,,,,,,,,,,,,,,,,,,,,,,,,,,,,,,,,,,,,,,,,,,,,,,,,,,,,
,,60597f277921839bebfd40ec,2024-02-19_02h13.43.363,kallum_motion_pilot,2023.2.2,Win32,60.60606061,60597f277921839bebfd40ec,65d2b6c8f2eece985d8e374c,65d2b94070519faf7d3f00dc,0.0141,0.0142,0,4,4,27,1,twofour,,,,,,,,,,,,,,,,,,,,,,,,,,,,,,,,,,,,,,,,,,,,,,,,,,,,,,,,,,,,,,,,,,,,,,,,,,,,,,,,,,,,,,,,,,,,,,,,,,,,,,,,,,,,,,,,,,,,,,,,,,,,,,,,,,,,,,,,,
,,60597f277921839bebfd40ec,2024-02-19_02h13.43.363,kallum_motion_pilot,2023.2.2,Win32,60.60606061,60597f277921839bebfd40ec,65d2b6c8f2eece985d8e374c,65d2b94070519faf7d3f00dc,0.0142,0.0142,0,5,5,24,1,onetwo,,,,,,,,,,,,,,,,,,,,,,,,,,,,,,,,,,,,,,,,,,,,,,,,,,,,,,,,,,,,,,,,,,,,,,,,,,,,,,,,,,,,,,,,,,,,,,,,,,,,,,,,,,,,,,,,,,,,,,,,,,,,,,,,,,,,,,,,,
,,60597f277921839bebfd40ec,2024-02-19_02h13.43.363,kallum_motion_pilot,2023.2.2,Win32,60.60606061,60597f277921839bebfd40ec,65d2b6c8f2eece985d8e374c,65d2b94070519faf7d3f00dc,0.0143,0.0143,0,6,6,140,1,sevenfive,,,,,,,,,,,,,,,,,,,,,,,,,,,,,,,,,,,,,,,,,,,,,,,,,,,,,,,,,,,,,,,,,,,,,,,,,,,,,,,,,,,,,,,,,,,,,,,,,,,,,,,,,,,,,,,,,,,,,,,,,,,,,,,,,,,,,,,,,
,,60597f277921839bebfd40ec,2024-02-19_02h13.43.363,kallum_motion_pilot,2023.2.2,Win32,60.60606061,60597f277921839bebfd40ec,65d2b6c8f2eece985d8e374c,65d2b94070519faf7d3f00dc,0.0144,0.0144,0,7,7,69,1,threefour,,,,,,,,,,,,,,,,,,,,,,,,,,,,,,,,,,,,,,,,,,,,,,,,,,,,,,,,,,,,,,,,,,,,,,,,,,,,,,,,,,,,,,,,,,,,,,,,,,,,,,,,,,,,,,,,,,,,,,,,,,,,,,,,,,,,,,,,,
,,60597f277921839bebfd40ec,2024-02-19_02h13.43.363,kallum_motion_pilot,2023.2.2,Win32,60.60606061,60597f277921839bebfd40ec,65d2b6c8f2eece985d8e374c,65d2b94070519faf7d3f00dc,0.0144,0.0144,0,8,8,3,1,twofour,,,,,,,,,,,,,,,,,,,,,,,,,,,,,,,,,,,,,,,,,,,,,,,,,,,,,,,,,,,,,,,,,,,,,,,,,,,,,,,,,,,,,,,,,,,,,,,,,,,,,,,,,,,,,,,,,,,,,,,,,,,,,,,,,,,,,,,,,
,,60597f277921839bebfd40ec,2024-02-19_02h13.43.363,kallum_motion_pilot,2023.2.2,Win32,60.60606061,60597f277921839bebfd40ec,65d2b6c8f2eece985d8e374c,65d2b94070519faf7d3f00dc,0.0145,0.0145,0,9,9,9,1,onethree,,,,,,,,,,,,,,,,,,,,,,,,,,,,,,,,,,,,,,,,,,,,,,,,,,,,,,,,,,,,,,,,,,,,,,,,,,,,,,,,,,,,,,,,,,,,,,,,,,,,,,,,,,,,,,,,,,,,,,,,,,,,,,,,,,,,,,,,,
,,60597f277921839bebfd40ec,2024-02-19_02h13.43.363,kallum_motion_pilot,2023.2.2,Win32,60.60606061,60597f277921839bebfd40ec,65d2b6c8f2eece985d8e374c,65d2b94070519faf7d3f00dc,0.0146,0.0146,0,10,10,43,1,twofour,,,,,,,,,,,,,,,,,,,,,,,,,,,,,,,,,,,,,,,,,,,,,,,,,,,,,,,,,,,,,,,,,,,,,,,,,,,,,,,,,,,,,,,,,,,,,,,,,,,,,,,,,,,,,,,,,,,,,,,,,,,,,,,,,,,,,,,,,
,,60597f277921839bebfd40ec,2024-02-19_02h13.43.363,kallum_motion_pilot,2023.2.2,Win32,60.60606061,60597f277921839bebfd40ec,65d2b6c8f2eece985d8e374c,65d2b94070519faf7d3f00dc,0.0147,0.0147,0,11,11,95,1,eightseven,,,,,,,,,,,,,,,,,,,,,,,,,,,,,,,,,,,,,,,,,,,,,,,,,,,,,,,,,,,,,,,,,,,,,,,,,,,,,,,,,,,,,,,,,,,,,,,,,,,,,,,,,,,,,,,,,,,,,,,,,,,,,,,,,,,,,,,,,
,,60597f277921839bebfd40ec,2024-02-19_02h13.43.363,kallum_motion_pilot,2023.2.2,Win32,60.60606061,60597f277921839bebfd40ec,65d2b6c8f2eece985d8e374c,65d2b94070519faf7d3f00dc,0.0147,0.0147,0,12,12,132,1,sevenfive,,,,,,,,,,,,,,,,,,,,,,,,,,,,,,,,,,,,,,,,,,,,,,,,,,,,,,,,,,,,,,,,,,,,,,,,,,,,,,,,,,,,,,,,,,,,,,,,,,,,,,,,,,,,,,,,,,,,,,,,,,,,,,,,,,,,,,,,,
,,60597f277921839bebfd40ec,2024-02-19_02h13.43.363,kallum_motion_pilot,2023.2.2,Win32,60.60606061,60597f277921839bebfd40ec,65d2b6c8f2eece985d8e374c,65d2b94070519faf7d3f00dc,0.0148,0.0148,0,13,13,68,1,threeone,,,,,,,,,,,,,,,,,,,,,,,,,,,,,,,,,,,,,,,,,,,,,,,,,,,,,,,,,,,,,,,,,,,,,,,,,,,,,,,,,,,,,,,,,,,,,,,,,,,,,,,,,,,,,,,,,,,,,,,,,,,,,,,,,,,,,,,,,
,,60597f277921839bebfd40ec,2024-02-19_02h13.43.363,kallum_motion_pilot,2023.2.2,Win32,60.60606061,60597f277921839bebfd40ec,65d2b6c8f2eece985d8e374c,65d2b94070519faf7d3f00dc,0.0148,0.0148,0,14,14,141,1,seveneight,,,,,,,,,,,,,,,,,,,,,,,,,,,,,,,,,,,,,,,,,,,,,,,,,,,,,,,,,,,,,,,,,,,,,,,,,,,,,,,,,,,,,,,,,,,,,,,,,,,,,,,,,,,,,,,,,,,,,,,,,,,,,,,,,,,,,,,,,
,,60597f277921839bebfd40ec,2024-02-19_02h13.43.363,kallum_motion_pilot,2023.2.2,Win32,60.60606061,60597f277921839bebfd40ec,65d2b6c8f2eece985d8e374c,65d2b94070519faf7d3f00dc,0.0149,0.0149,0,15,15,52,1,threeone,,,,,,,,,,,,,,,,,,,,,,,,,,,,,,,,,,,,,,,,,,,,,,,,,,,,,,,,,,,,,,,,,,,,,,,,,,,,,,,,,,,,,,,,,,,,,,,,,,,,,,,,,,,,,,,,,,,,,,,,,,,,,,,,,,,,,,,,,
,,60597f277921839bebfd40ec,2024-02-19_02h13.43.363,kallum_motion_pilot,2023.2.2,Win32,60.60606061,60597f277921839bebfd40ec,65d2b6c8f2eece985d8e374c,65d2b94070519faf7d3f00dc,0.0149,0.0149,0,16,16,45,1,threefour,,,,,,,,,,,,,,,,,,,,,,,,,,,,,,,,,,,,,,,,,,,,,,,,,,,,,,,,,,,,,,,,,,,,,,,,,,,,,,,,,,,,,,,,,,,,,,,,,,,,,,,,,,,,,,,,,,,,,,,,,,,,,,,,,,,,,,,,,
,,60597f277921839bebfd40ec,2024-02-19_02h13.43.363,kallum_motion_pilot,2023.2.2,Win32,60.60606061,60597f277921839bebfd40ec,65d2b6c8f2eece985d8e374c,65d2b94070519faf7d3f00dc,0.0149,0.015,0,17,17,2,1,twoone,,,,,,,,,,,,,,,,,,,,,,,,,,,,,,,,,,,,,,,,,,,,,,,,,,,,,,,,,,,,,,,,,,,,,,,,,,,,,,,,,,,,,,,,,,,,,,,,,,,,,,,,,,,,,,,,,,,,,,,,,,,,,,,,,,,,,,,,,
,,60597f277921839bebfd40ec,2024-02-19_02h13.43.363,kallum_motion_pilot,2023.2.2,Win32,60.60606061,60597f277921839bebfd40ec,65d2b6c8f2eece985d8e374c,65d2b94070519faf7d3f00dc,0.0151,0.0151,0,18,18,106,1,sixfive,,,,,,,,,,,,,,,,,,,,,,,,,,,,,,,,,,,,,,,,,,,,,,,,,,,,,,,,,,,,,,,,,,,,,,,,,,,,,,,,,,,,,,,,,,,,,,,,,,,,,,,,,,,,,,,,,,,,,,,,,,,,,,,,,,,,,,,,,
,,60597f277921839bebfd40ec,2024-02-19_02h13.43.363,kallum_motion_pilot,2023.2.2,Win32,60.60606061,60597f277921839bebfd40ec,65d2b6c8f2eece985d8e374c,65d2b94070519faf7d3f00dc,0.0151,0.0152,0,19,19,126,1,eightsix,,,,,,,,,,,,,,,,,,,,,,,,,,,,,,,,,,,,,,,,,,,,,,,,,,,,,,,,,,,,,,,,,,,,,,,,,,,,,,,,,,,,,,,,,,,,,,,,,,,,,,,,,,,,,,,,,,,,,,,,,,,,,,,,,,,,,,,,,
,,60597f277921839bebfd40ec,2024-02-19_02h13.43.363,kallum_motion_pilot,2023.2.2,Win32,60.60606061,60597f277921839bebfd40ec,65d2b6c8f2eece985d8e374c,65d2b94070519faf7d3f00dc,0.0157,0.0157,0,20,20,115,1,sixeight,,,,,,,,,,,,,,,,,,,,,,,,,,,,,,,,,,,,,,,,,,,,,,,,,,,,,,,,,,,,,,,,,,,,,,,,,,,,,,,,,,,,,,,,,,,,,,,,,,,,,,,,,,,,,,,,,,,,,,,,,,,,,,,,,,,,,,,,,
,,60597f277921839bebfd40ec,2024-02-19_02h13.43.363,kallum_motion_pilot,2023.2.2,Win32,60.60606061,60597f277921839bebfd40ec,65d2b6c8f2eece985d8e374c,65d2b94070519faf7d3f00dc,0.0158,0.0158,0,21,21,33,1,onethree,,,,,,,,,,,,,,,,,,,,,,,,,,,,,,,,,,,,,,,,,,,,,,,,,,,,,,,,,,,,,,,,,,,,,,,,,,,,,,,,,,,,,,,,,,,,,,,,,,,,,,,,,,,,,,,,,,,,,,,,,,,,,,,,,,,,,,,,,
,,60597f277921839bebfd40ec,2024-02-19_02h13.43.363,kallum_motion_pilot,2023.2.2,Win32,60.60606061,60597f277921839bebfd40ec,65d2b6c8f2eece985d8e374c,65d2b94070519faf7d3f00dc,0.0159,0.0159,0,22,22,26,1,twoone,,,,,,,,,,,,,,,,,,,,,,,,,,,,,,,,,,,,,,,,,,,,,,,,,,,,,,,,,,,,,,,,,,,,,,,,,,,,,,,,,,,,,,,,,,,,,,,,,,,,,,,,,,,,,,,,,,,,,,,,,,,,,,,,,,,,,,,,,
,,60597f277921839bebfd40ec,2024-02-19_02h13.43.363,kallum_motion_pilot,2023.2.2,Win32,60.60606061,60597f277921839bebfd40ec,65d2b6c8f2eece985d8e374c,65d2b94070519faf7d3f00dc,0.0159,0.0159,0,23,23,21,1,threefour,,,,,,,,,,,,,,,,,,,,,,,,,,,,,,,,,,,,,,,,,,,,,,,,,,,,,,,,,,,,,,,,,,,,,,,,,,,,,,,,,,,,,,,,,,,,,,,,,,,,,,,,,,,,,,,,,,,,,,,,,,,,,,,,,,,,,,,,,
,,60597f277921839bebfd40ec,2024-02-19_02h13.43.363,kallum_motion_pilot,2023.2.2,Win32,60.60606061,60597f277921839bebfd40ec,65d2b6c8f2eece985d8e374c,65d2b94070519faf7d3f00dc,0.016,0.016,0,24,24,51,1,twofour,,,,,,,,,,,,,,,,,,,,,,,,,,,,,,,,,,,,,,,,,,,,,,,,,,,,,,,,,,,,,,,,,,,,,,,,,,,,,,,,,,,,,,,,,,,,,,,,,,,,,,,,,,,,,,,,,,,,,,,,,,,,,,,,,,,,,,,,,
,,60597f277921839bebfd40ec,2024-02-19_02h13.43.363,kallum_motion_pilot,2023.2.2,Win32,60.60606061,60597f277921839bebfd40ec,65d2b6c8f2eece985d8e374c,65d2b94070519faf7d3f00dc,0.016,0.016,0,25,25,90,1,sixfive,,,,,,,,,,,,,,,,,,,,,,,,,,,,,,,,,,,,,,,,,,,,,,,,,,,,,,,,,,,,,,,,,,,,,,,,,,,,,,,,,,,,,,,,,,,,,,,,,,,,,,,,,,,,,,,,,,,,,,,,,,,,,,,,,,,,,,,,,
,,60597f277921839bebfd40ec,2024-02-19_02h13.43.363,kallum_motion_pilot,2023.2.2,Win32,60.60606061,60597f277921839bebfd40ec,65d2b6c8f2eece985d8e374c,65d2b94070519faf7d3f00dc,0.0161,0.0161,0,26,26,112,1,fivesix,,,,,,,,,,,,,,,,,,,,,,,,,,,,,,,,,,,,,,,,,,,,,,,,,,,,,,,,,,,,,,,,,,,,,,,,,,,,,,,,,,,,,,,,,,,,,,,,,,,,,,,,,,,,,,,,,,,,,,,,,,,,,,,,,,,,,,,,,
,,60597f277921839bebfd40ec,2024-02-19_02h13.43.363,kallum_motion_pilot,2023.2.2,Win32,60.60606061,60597f277921839bebfd40ec,65d2b6c8f2eece985d8e374c,65d2b94070519faf7d3f00dc,0.0162,0.0162,0,27,27,113,1,fiveseven,,,,,,,,,,,,,,,,,,,,,,,,,,,,,,,,,,,,,,,,,,,,,,,,,,,,,,,,,,,,,,,,,,,,,,,,,,,,,,,,,,,,,,,,,,,,,,,,,,,,,,,,,,,,,,,,,,,,,,,,,,,,,,,,,,,,,,,,,
,,60597f277921839bebfd40ec,2024-02-19_02h13.43.363,kallum_motion_pilot,2023.2.2,Win32,60.60606061,60597f277921839bebfd40ec,65d2b6c8f2eece985d8e374c,65d2b94070519faf7d3f00dc,0.0163,0.0163,0,28,28,131,1,sixeight,,,,,,,,,,,,,,,,,,,,,,,,,,,,,,,,,,,,,,,,,,,,,,,,,,,,,,,,,,,,,,,,,,,,,,,,,,,,,,,,,,,,,,,,,,,,,,,,,,,,,,,,,,,,,,,,,,,,,,,,,,,,,,,,,,,,,,,,,
,,60597f277921839bebfd40ec,2024-02-19_02h13.43.363,kallum_motion_pilot,2023.2.2,Win32,60.60606061,60597f277921839bebfd40ec,65d2b6c8f2eece985d8e374c,65d2b94070519faf7d3f00dc,0.0163,0.0163,0,29,29,105,1,fiveseven,,,,,,,,,,,,,,,,,,,,,,,,,,,,,,,,,,,,,,,,,,,,,,,,,,,,,,,,,,,,,,,,,,,,,,,,,,,,,,,,,,,,,,,,,,,,,,,,,,,,,,,,,,,,,,,,,,,,,,,,,,,,,,,,,,,,,,,,,
,,60597f277921839bebfd40ec,2024-02-19_02h13.43.363,kallum_motion_pilot,2023.2.2,Win32,60.60606061,60597f277921839bebfd40ec,65d2b6c8f2eece985d8e374c,65d2b94070519faf7d3f00dc,0.0163,0.0163,0,30,30,65,1,onethree,,,,,,,,,,,,,,,,,,,,,,,,,,,,,,,,,,,,,,,,,,,,,,,,,,,,,,,,,,,,,,,,,,,,,,,,,,,,,,,,,,,,,,,,,,,,,,,,,,,,,,,,,,,,,,,,,,,,,,,,,,,,,,,,,,,,,,,,,
,,60597f277921839bebfd40ec,2024-02-19_02h13.43.363,kallum_motion_pilot,2023.2.2,Win32,60.60606061,60597f277921839bebfd40ec,65d2b6c8f2eece985d8e374c,65d2b94070519faf7d3f00dc,0.0163,0.0163,0,31,31,59,1,twofour,,,,,,,,,,,,,,,,,,,,,,,,,,,,,,,,,,,,,,,,,,,,,,,,,,,,,,,,,,,,,,,,,,,,,,,,,,,,,,,,,,,,,,,,,,,,,,,,,,,,,,,,,,,,,,,,,,,,,,,,,,,,,,,,,,,,,,,,,
,,60597f277921839bebfd40ec,2024-02-19_02h13.43.363,kallum_motion_pilot,2023.2.2,Win32,60.60606061,60597f277921839bebfd40ec,65d2b6c8f2eece985d8e374c,65d2b94070519faf7d3f00dc,0.0164,0.0164,0,32,32,57,1,onethree,,,,,,,,,,,,,,,,,,,,,,,,,,,,,,,,,,,,,,,,,,,,,,,,,,,,,,,,,,,,,,,,,,,,,,,,,,,,,,,,,,,,,,,,,,,,,,,,,,,,,,,,,,,,,,,,,,,,,,,,,,,,,,,,,,,,,,,,,
,,60597f277921839bebfd40ec,2024-02-19_02h13.43.363,kallum_motion_pilot,2023.2.2,Win32,60.60606061,60597f277921839bebfd40ec,65d2b6c8f2eece985d8e374c,65d2b94070519faf7d3f00dc,0.0164,0.0165,0,33,33,97,1,fiveseven,,,,,,,,,,,,,,,,,,,,,,,,,,,,,,,,,,,,,,,,,,,,,,,,,,,,,,,,,,,,,,,,,,,,,,,,,,,,,,,,,,,,,,,,,,,,,,,,,,,,,,,,,,,,,,,,,,,,,,,,,,,,,,,,,,,,,,,,,
,,60597f277921839bebfd40ec,2024-02-19_02h13.43.363,kallum_motion_pilot,2023.2.2,Win32,60.60606061,60597f277921839bebfd40ec,65d2b6c8f2eece985d8e374c,65d2b94070519faf7d3f00dc,0.0165,0.0165,0,34,34,94,1,eightsix,,,,,,,,,,,,,,,,,,,,,,,,,,,,,,,,,,,,,,,,,,,,,,,,,,,,,,,,,,,,,,,,,,,,,,,,,,,,,,,,,,,,,,,,,,,,,,,,,,,,,,,,,,,,,,,,,,,,,,,,,,,,,,,,,,,,,,,,,
,,60597f277921839bebfd40ec,2024-02-19_02h13.43.363,kallum_motion_pilot,2023.2.2,Win32,60.60606061,60597f277921839bebfd40ec,65d2b6c8f2eece985d8e374c,65d2b94070519faf7d3f00dc,0.0166,0.0167,0,35,35,72,1,onetwo,,,,,,,,,,,,,,,,,,,,,,,,,,,,,,,,,,,,,,,,,,,,,,,,,,,,,,,,,,,,,,,,,,,,,,,,,,,,,,,,,,,,,,,,,,,,,,,,,,,,,,,,,,,,,,,,,,,,,,,,,,,,,,,,,,,,,,,,,
,,60597f277921839bebfd40ec,2024-02-19_02h13.43.363,kallum_motion_pilot,2023.2.2,Win32,60.60606061,60597f277921839bebfd40ec,65d2b6c8f2eece985d8e374c,65d2b94070519faf7d3f00dc,0.0167,0.0167,0,36,36,30,1,fourtwo,,,,,,,,,,,,,,,,,,,,,,,,,,,,,,,,,,,,,,,,,,,,,,,,,,,,,,,,,,,,,,,,,,,,,,,,,,,,,,,,,,,,,,,,,,,,,,,,,,,,,,,,,,,,,,,,,,,,,,,,,,,,,,,,,,,,,,,,,
,,60597f277921839bebfd40ec,2024-02-19_02h13.43.363,kallum_motion_pilot,2023.2.2,Win32,60.60606061,60597f277921839bebfd40ec,65d2b6c8f2eece985d8e374c,65d2b94070519faf7d3f00dc,0.0167,0.0167,0,37,37,117,1,seveneight,,,,,,,,,,,,,,,,,,,,,,,,,,,,,,,,,,,,,,,,,,,,,,,,,,,,,,,,,,,,,,,,,,,,,,,,,,,,,,,,,,,,,,,,,,,,,,,,,,,,,,,,,,,,,,,,,,,,,,,,,,,,,,,,,,,,,,,,,
,,60597f277921839bebfd40ec,2024-02-19_02h13.43.363,kallum_motion_pilot,2023.2.2,Win32,60.60606061,60597f277921839bebfd40ec,65d2b6c8f2eece985d8e374c,65d2b94070519faf7d3f00dc,0.0167,0.0167,0,38,38,135,1,eightseven,,,,,,,,,,,,,,,,,,,,,,,,,,,,,,,,,,,,,,,,,,,,,,,,,,,,,,,,,,,,,,,,,,,,,,,,,,,,,,,,,,,,,,,,,,,,,,,,,,,,,,,,,,,,,,,,,,,,,,,,,,,,,,,,,,,,,,,,,
,,60597f277921839bebfd40ec,2024-02-19_02h13.43.363,kallum_motion_pilot,2023.2.2,Win32,60.60606061,60597f277921839bebfd40ec,65d2b6c8f2eece985d8e374c,65d2b94070519faf7d3f00dc,0.0168,0.0168,0,39,39,85,1,seveneight,,,,,,,,,,,,,,,,,,,,,,,,,,,,,,,,,,,,,,,,,,,,,,,,,,,,,,,,,,,,,,,,,,,,,,,,,,,,,,,,,,,,,,,,,,,,,,,,,,,,,,,,,,,,,,,,,,,,,,,,,,,,,,,,,,,,,,,,,
,,60597f277921839bebfd40ec,2024-02-19_02h13.43.363,kallum_motion_pilot,2023.2.2,Win32,60.60606061,60597f277921839bebfd40ec,65d2b6c8f2eece985d8e374c,65d2b94070519faf7d3f00dc,0.0169,0.0169,0,40,40,46,1,fourtwo,,,,,,,,,,,,,,,,,,,,,,,,,,,,,,,,,,,,,,,,,,,,,,,,,,,,,,,,,,,,,,,,,,,,,,,,,,,,,,,,,,,,,,,,,,,,,,,,,,,,,,,,,,,,,,,,,,,,,,,,,,,,,,,,,,,,,,,,,
,,60597f277921839bebfd40ec,2024-02-19_02h13.43.363,kallum_motion_pilot,2023.2.2,Win32,60.60606061,60597f277921839bebfd40ec,65d2b6c8f2eece985d8e374c,65d2b94070519faf7d3f00dc,0.0169,0.0169,0,41,41,5,1,threefour,,,,,,,,,,,,,,,,,,,,,,,,,,,,,,,,,,,,,,,,,,,,,,,,,,,,,,,,,,,,,,,,,,,,,,,,,,,,,,,,,,,,,,,,,,,,,,,,,,,,,,,,,,,,,,,,,,,,,,,,,,,,,,,,,,,,,,,,,
,,60597f277921839bebfd40ec,2024-02-19_02h13.43.363,kallum_motion_pilot,2023.2.2,Win32,60.60606061,60597f277921839bebfd40ec,65d2b6c8f2eece985d8e374c,65d2b94070519faf7d3f00dc,0.017,0.017,0,42,42,130,1,sixfive,,,,,,,,,,,,,,,,,,,,,,,,,,,,,,,,,,,,,,,,,,,,,,,,,,,,,,,,,,,,,,,,,,,,,,,,,,,,,,,,,,,,,,,,,,,,,,,,,,,,,,,,,,,,,,,,,,,,,,,,,,,,,,,,,,,,,,,,,
,,60597f277921839bebfd40ec,2024-02-19_02h13.43.363,kallum_motion_pilot,2023.2.2,Win32,60.60606061,60597f277921839bebfd40ec,65d2b6c8f2eece985d8e374c,65d2b94070519faf7d3f00dc,0.017,0.017,0,43,43,128,1,fivesix,,,,,,,,,,,,,,,,,,,,,,,,,,,,,,,,,,,,,,,,,,,,,,,,,,,,,,,,,,,,,,,,,,,,,,,,,,,,,,,,,,,,,,,,,,,,,,,,,,,,,,,,,,,,,,,,,,,,,,,,,,,,,,,,,,,,,,,,,
,,60597f277921839bebfd40ec,2024-02-19_02h13.43.363,kallum_motion_pilot,2023.2.2,Win32,60.60606061,60597f277921839bebfd40ec,65d2b6c8f2eece985d8e374c,65d2b94070519faf7d3f00dc,0.0171,0.0171,0,44,44,86,1,eightsix,,,,,,,,,,,,,,,,,,,,,,,,,,,,,,,,,,,,,,,,,,,,,,,,,,,,,,,,,,,,,,,,,,,,,,,,,,,,,,,,,,,,,,,,,,,,,,,,,,,,,,,,,,,,,,,,,,,,,,,,,,,,,,,,,,,,,,,,,
,,60597f277921839bebfd40ec,2024-02-19_02h13.43.363,kallum_motion_pilot,2023.2.2,Win32,60.60606061,60597f277921839bebfd40ec,65d2b6c8f2eece985d8e374c,65d2b94070519faf7d3f00dc,0.0172,0.0172,0,45,45,109,1,seveneight,,,,,,,,,,,,,,,,,,,,,,,,,,,,,,,,,,,,,,,,,,,,,,,,,,,,,,,,,,,,,,,,,,,,,,,,,,,,,,,,,,,,,,,,,,,,,,,,,,,,,,,,,,,,,,,,,,,,,,,,,,,,,,,,,,,,,,,,,
,,60597f277921839bebfd40ec,2024-02-19_02h13.43.363,kallum_motion_pilot,2023.2.2,Win32,60.60606061,60597f277921839bebfd40ec,65d2b6c8f2eece985d8e374c,65d2b94070519faf7d3f00dc,0.0173,0.0173,0,46,46,149,1,seveneight,,,,,,,,,,,,,,,,,,,,,,,,,,,,,,,,,,,,,,,,,,,,,,,,,,,,,,,,,,,,,,,,,,,,,,,,,,,,,,,,,,,,,,,,,,,,,,,,,,,,,,,,,,,,,,,,,,,,,,,,,,,,,,,,,,,,,,,,,
,,60597f277921839bebfd40ec,2024-02-19_02h13.43.363,kallum_motion_pilot,2023.2.2,Win32,60.60606061,60597f277921839bebfd40ec,65d2b6c8f2eece985d8e374c,65d2b94070519faf7d3f00dc,0.0173,0.0173,0,47,47,22,1,fourtwo,,,,,,,,,,,,,,,,,,,,,,,,,,,,,,,,,,,,,,,,,,,,,,,,,,,,,,,,,,,,,,,,,,,,,,,,,,,,,,,,,,,,,,,,,,,,,,,,,,,,,,,,,,,,,,,,,,,,,,,,,,,,,,,,,,,,,,,,,
,,60597f277921839bebfd40ec,2024-02-19_02h13.43.363,kallum_motion_pilot,2023.2.2,Win32,60.60606061,60597f277921839bebfd40ec,65d2b6c8f2eece985d8e374c,65d2b94070519faf7d3f00dc,0.0174,0.0174,0,48,48,125,1,seveneight,,,,,,,,,,,,,,,,,,,,,,,,,,,,,,,,,,,,,,,,,,,,,,,,,,,,,,,,,,,,,,,,,,,,,,,,,,,,,,,,,,,,,,,,,,,,,,,,,,,,,,,,,,,,,,,,,,,,,,,,,,,,,,,,,,,,,,,,,
,,60597f277921839bebfd40ec,2024-02-19_02h13.43.363,kallum_motion_pilot,2023.2.2,Win32,60.60606061,60597f277921839bebfd40ec,65d2b6c8f2eece985d8e374c,65d2b94070519faf7d3f00dc,0.0174,0.0174,0,49,49,157,1,seveneight,,,,,,,,,,,,,,,,,,,,,,,,,,,,,,,,,,,,,,,,,,,,,,,,,,,,,,,,,,,,,,,,,,,,,,,,,,,,,,,,,,,,,,,,,,,,,,,,,,,,,,,,,,,,,,,,,,,,,,,,,,,,,,,,,,,,,,,,,
,,60597f277921839bebfd40ec,2024-02-19_02h13.43.363,kallum_motion_pilot,2023.2.2,Win32,60.60606061,60597f277921839bebfd40ec,65d2b6c8f2eece985d8e374c,65d2b94070519faf7d3f00dc,0.0174,0.0174,0,50,50,121,1,fiveseven,,,,,,,,,,,,,,,,,,,,,,,,,,,,,,,,,,,,,,,,,,,,,,,,,,,,,,,,,,,,,,,,,,,,,,,,,,,,,,,,,,,,,,,,,,,,,,,,,,,,,,,,,,,,,,,,,,,,,,,,,,,,,,,,,,,,,,,,,
,,60597f277921839bebfd40ec,2024-02-19_02h13.43.363,kallum_motion_pilot,2023.2.2,Win32,60.60606061,60597f277921839bebfd40ec,65d2b6c8f2eece985d8e374c,65d2b94070519faf7d3f00dc,0.0175,0.0175,0,51,51,87,1,eightseven,,,,,,,,,,,,,,,,,,,,,,,,,,,,,,,,,,,,,,,,,,,,,,,,,,,,,,,,,,,,,,,,,,,,,,,,,,,,,,,,,,,,,,,,,,,,,,,,,,,,,,,,,,,,,,,,,,,,,,,,,,,,,,,,,,,,,,,,,
,,60597f277921839bebfd40ec,2024-02-19_02h13.43.363,kallum_motion_pilot,2023.2.2,Win32,60.60606061,60597f277921839bebfd40ec,65d2b6c8f2eece985d8e374c,65d2b94070519faf7d3f00dc,0.0175,0.0176,0,52,52,136,1,fivesix,,,,,,,,,,,,,,,,,,,,,,,,,,,,,,,,,,,,,,,,,,,,,,,,,,,,,,,,,,,,,,,,,,,,,,,,,,,,,,,,,,,,,,,,,,,,,,,,,,,,,,,,,,,,,,,,,,,,,,,,,,,,,,,,,,,,,,,,,
,,60597f277921839bebfd40ec,2024-02-19_02h13.43.363,kallum_motion_pilot,2023.2.2,Win32,60.60606061,60597f277921839bebfd40ec,65d2b6c8f2eece985d8e374c,65d2b94070519faf7d3f00dc,0.0176,0.0177,0,53,53,122,1,sixfive,,,,,,,,,,,,,,,,,,,,,,,,,,,,,,,,,,,,,,,,,,,,,,,,,,,,,,,,,,,,,,,,,,,,,,,,,,,,,,,,,,,,,,,,,,,,,,,,,,,,,,,,,,,,,,,,,,,,,,,,,,,,,,,,,,,,,,,,,
,,60597f277921839bebfd40ec,2024-02-19_02h13.43.363,kallum_motion_pilot,2023.2.2,Win32,60.60606061,60597f277921839bebfd40ec,65d2b6c8f2eece985d8e374c,65d2b94070519faf7d3f00dc,0.0177,0.0177,0,54,54,49,1,onethree,,,,,,,,,,,,,,,,,,,,,,,,,,,,,,,,,,,,,,,,,,,,,,,,,,,,,,,,,,,,,,,,,,,,,,,,,,,,,,,,,,,,,,,,,,,,,,,,,,,,,,,,,,,,,,,,,,,,,,,,,,,,,,,,,,,,,,,,,
,,60597f277921839bebfd40ec,2024-02-19_02h13.43.363,kallum_motion_pilot,2023.2.2,Win32,60.60606061,60597f277921839bebfd40ec,65d2b6c8f2eece985d8e374c,65d2b94070519faf7d3f00dc,0.0178,0.0178,0,55,55,101,1,seveneight,,,,,,,,,,,,,,,,,,,,,,,,,,,,,,,,,,,,,,,,,,,,,,,,,,,,,,,,,,,,,,,,,,,,,,,,,,,,,,,,,,,,,,,,,,,,,,,,,,,,,,,,,,,,,,,,,,,,,,,,,,,,,,,,,,,,,,,,,
,,60597f277921839bebfd40ec,2024-02-19_02h13.43.363,kallum_motion_pilot,2023.2.2,Win32,60.60606061,60597f277921839bebfd40ec,65d2b6c8f2eece985d8e374c,65d2b94070519faf7d3f00dc,0.0178,0.0178,0,56,56,129,1,fiveseven,,,,,,,,,,,,,,,,,,,,,,,,,,,,,,,,,,,,,,,,,,,,,,,,,,,,,,,,,,,,,,,,,,,,,,,,,,,,,,,,,,,,,,,,,,,,,,,,,,,,,,,,,,,,,,,,,,,,,,,,,,,,,,,,,,,,,,,,,
,,60597f277921839bebfd40ec,2024-02-19_02h13.43.363,kallum_motion_pilot,2023.2.2,Win32,60.60606061,60597f277921839bebfd40ec,65d2b6c8f2eece985d8e374c,65d2b94070519faf7d3f00dc,0.0178,0.0178,0,57,57,83,1,sixeight,,,,,,,,,,,,,,,,,,,,,,,,,,,,,,,,,,,,,,,,,,,,,,,,,,,,,,,,,,,,,,,,,,,,,,,,,,,,,,,,,,,,,,,,,,,,,,,,,,,,,,,,,,,,,,,,,,,,,,,,,,,,,,,,,,,,,,,,,
,,60597f277921839bebfd40ec,2024-02-19_02h13.43.363,kallum_motion_pilot,2023.2.2,Win32,60.60606061,60597f277921839bebfd40ec,65d2b6c8f2eece985d8e374c,65d2b94070519faf7d3f00dc,0.0179,0.018,0,58,58,146,1,sixfive,,,,,,,,,,,,,,,,,,,,,,,,,,,,,,,,,,,,,,,,,,,,,,,,,,,,,,,,,,,,,,,,,,,,,,,,,,,,,,,,,,,,,,,,,,,,,,,,,,,,,,,,,,,,,,,,,,,,,,,,,,,,,,,,,,,,,,,,,
,,60597f277921839bebfd40ec,2024-02-19_02h13.43.363,kallum_motion_pilot,2023.2.2,Win32,60.60606061,60597f277921839bebfd40ec,65d2b6c8f2eece985d8e374c,65d2b94070519faf7d3f00dc,0.018,0.018,0,59,59,77,1,threefour,,,,,,,,,,,,,,,,,,,,,,,,,,,,,,,,,,,,,,,,,,,,,,,,,,,,,,,,,,,,,,,,,,,,,,,,,,,,,,,,,,,,,,,,,,,,,,,,,,,,,,,,,,,,,,,,,,,,,,,,,,,,,,,,,,,,,,,,,
,,60597f277921839bebfd40ec,2024-02-19_02h13.43.363,kallum_motion_pilot,2023.2.2,Win32,60.60606061,60597f277921839bebfd40ec,65d2b6c8f2eece985d8e374c,65d2b94070519faf7d3f00dc,0.018,0.0181,0,60,60,107,1,sixeight,,,,,,,,,,,,,,,,,,,,,,,,,,,,,,,,,,,,,,,,,,,,,,,,,,,,,,,,,,,,,,,,,,,,,,,,,,,,,,,,,,,,,,,,,,,,,,,,,,,,,,,,,,,,,,,,,,,,,,,,,,,,,,,,,,,,,,,,,
,,60597f277921839bebfd40ec,2024-02-19_02h13.43.363,kallum_motion_pilot,2023.2.2,Win32,60.60606061,60597f277921839bebfd40ec,65d2b6c8f2eece985d8e374c,65d2b94070519faf7d3f00dc,0.0181,0.0181,0,61,61,108,1,sevenfive,,,,,,,,,,,,,,,,,,,,,,,,,,,,,,,,,,,,,,,,,,,,,,,,,,,,,,,,,,,,,,,,,,,,,,,,,,,,,,,,,,,,,,,,,,,,,,,,,,,,,,,,,,,,,,,,,,,,,,,,,,,,,,,,,,,,,,,,,
,,60597f277921839bebfd40ec,2024-02-19_02h13.43.363,kallum_motion_pilot,2023.2.2,Win32,60.60606061,60597f277921839bebfd40ec,65d2b6c8f2eece985d8e374c,65d2b94070519faf7d3f00dc,0.0182,0.0182,0,62,62,111,1,eightseven,,,,,,,,,,,,,,,,,,,,,,,,,,,,,,,,,,,,,,,,,,,,,,,,,,,,,,,,,,,,,,,,,,,,,,,,,,,,,,,,,,,,,,,,,,,,,,,,,,,,,,,,,,,,,,,,,,,,,,,,,,,,,,,,,,,,,,,,,
,,60597f277921839bebfd40ec,2024-02-19_02h13.43.363,kallum_motion_pilot,2023.2.2,Win32,60.60606061,60597f277921839bebfd40ec,65d2b6c8f2eece985d8e374c,65d2b94070519faf7d3f00dc,0.0182,0.0182,0,63,63,23,1,fourthree,,,,,,,,,,,,,,,,,,,,,,,,,,,,,,,,,,,,,,,,,,,,,,,,,,,,,,,,,,,,,,,,,,,,,,,,,,,,,,,,,,,,,,,,,,,,,,,,,,,,,,,,,,,,,,,,,,,,,,,,,,,,,,,,,,,,,,,,,
,,60597f277921839bebfd40ec,2024-02-19_02h13.43.363,kallum_motion_pilot,2023.2.2,Win32,60.60606061,60597f277921839bebfd40ec,65d2b6c8f2eece985d8e374c,65d2b94070519faf7d3f00dc,0.0182,0.0182,0,64,64,124,1,sevenfive,,,,,,,,,,,,,,,,,,,,,,,,,,,,,,,,,,,,,,,,,,,,,,,,,,,,,,,,,,,,,,,,,,,,,,,,,,,,,,,,,,,,,,,,,,,,,,,,,,,,,,,,,,,,,,,,,,,,,,,,,,,,,,,,,,,,,,,,,
,,60597f277921839bebfd40ec,2024-02-19_02h13.43.363,kallum_motion_pilot,2023.2.2,Win32,60.60606061,60597f277921839bebfd40ec,65d2b6c8f2eece985d8e374c,65d2b94070519faf7d3f00dc,0.0183,0.0183,0,65,65,66,1,twoone,,,,,,,,,,,,,,,,,,,,,,,,,,,,,,,,,,,,,,,,,,,,,,,,,,,,,,,,,,,,,,,,,,,,,,,,,,,,,,,,,,,,,,,,,,,,,,,,,,,,,,,,,,,,,,,,,,,,,,,,,,,,,,,,,,,,,,,,,
,,60597f277921839bebfd40ec,2024-02-19_02h13.43.363,kallum_motion_pilot,2023.2.2,Win32,60.60606061,60597f277921839bebfd40ec,65d2b6c8f2eece985d8e374c,65d2b94070519faf7d3f00dc,0.0184,0.0184,0,66,66,145,1,fiveseven,,,,,,,,,,,,,,,,,,,,,,,,,,,,,,,,,,,,,,,,,,,,,,,,,,,,,,,,,,,,,,,,,,,,,,,,,,,,,,,,,,,,,,,,,,,,,,,,,,,,,,,,,,,,,,,,,,,,,,,,,,,,,,,,,,,,,,,,,
,,60597f277921839bebfd40ec,2024-02-19_02h13.43.363,kallum_motion_pilot,2023.2.2,Win32,60.60606061,60597f277921839bebfd40ec,65d2b6c8f2eece985d8e374c,65d2b94070519faf7d3f00dc,0.0184,0.0185,0,67,67,92,1,sevenfive,,,,,,,,,,,,,,,,,,,,,,,,,,,,,,,,,,,,,,,,,,,,,,,,,,,,,,,,,,,,,,,,,,,,,,,,,,,,,,,,,,,,,,,,,,,,,,,,,,,,,,,,,,,,,,,,,,,,,,,,,,,,,,,,,,,,,,,,,
,,60597f277921839bebfd40ec,2024-02-19_02h13.43.363,kallum_motion_pilot,2023.2.2,Win32,60.60606061,60597f277921839bebfd40ec,65d2b6c8f2eece985d8e374c,65d2b94070519faf7d3f00dc,0.0185,0.0185,0,68,68,150,1,eightsix,,,,,,,,,,,,,,,,,,,,,,,,,,,,,,,,,,,,,,,,,,,,,,,,,,,,,,,,,,,,,,,,,,,,,,,,,,,,,,,,,,,,,,,,,,,,,,,,,,,,,,,,,,,,,,,,,,,,,,,,,,,,,,,,,,,,,,,,,
,,60597f277921839bebfd40ec,2024-02-19_02h13.43.363,kallum_motion_pilot,2023.2.2,Win32,60.60606061,60597f277921839bebfd40ec,65d2b6c8f2eece985d8e374c,65d2b94070519faf7d3f00dc,0.0185,0.0185,0,69,69,152,1,fivesix,,,,,,,,,,,,,,,,,,,,,,,,,,,,,,,,,,,,,,,,,,,,,,,,,,,,,,,,,,,,,,,,,,,,,,,,,,,,,,,,,,,,,,,,,,,,,,,,,,,,,,,,,,,,,,,,,,,,,,,,,,,,,,,,,,,,,,,,,
,,60597f277921839bebfd40ec,2024-02-19_02h13.43.363,kallum_motion_pilot,2023.2.2,Win32,60.60606061,60597f277921839bebfd40ec,65d2b6c8f2eece985d8e374c,65d2b94070519faf7d3f00dc,0.0187,0.0187,0,70,70,50,1,twoone,,,,,,,,,,,,,,,,,,,,,,,,,,,,,,,,,,,,,,,,,,,,,,,,,,,,,,,,,,,,,,,,,,,,,,,,,,,,,,,,,,,,,,,,,,,,,,,,,,,,,,,,,,,,,,,,,,,,,,,,,,,,,,,,,,,,,,,,,
,,60597f277921839bebfd40ec,2024-02-19_02h13.43.363,kallum_motion_pilot,2023.2.2,Win32,60.60606061,60597f277921839bebfd40ec,65d2b6c8f2eece985d8e374c,65d2b94070519faf7d3f00dc,0.0187,0.0187,0,71,71,151,1,eightseven,,,,,,,,,,,,,,,,,,,,,,,,,,,,,,,,,,,,,,,,,,,,,,,,,,,,,,,,,,,,,,,,,,,,,,,,,,,,,,,,,,,,,,,,,,,,,,,,,,,,,,,,,,,,,,,,,,,,,,,,,,,,,,,,,,,,,,,,,
,,60597f277921839bebfd40ec,2024-02-19_02h13.43.363,kallum_motion_pilot,2023.2.2,Win32,60.60606061,60597f277921839bebfd40ec,65d2b6c8f2eece985d8e374c,65d2b94070519faf7d3f00dc,0.0187,0.0187,0,72,72,17,1,onethree,,,,,,,,,,,,,,,,,,,,,,,,,,,,,,,,,,,,,,,,,,,,,,,,,,,,,,,,,,,,,,,,,,,,,,,,,,,,,,,,,,,,,,,,,,,,,,,,,,,,,,,,,,,,,,,,,,,,,,,,,,,,,,,,,,,,,,,,,
,,60597f277921839bebfd40ec,2024-02-19_02h13.43.363,kallum_motion_pilot,2023.2.2,Win32,60.60606061,60597f277921839bebfd40ec,65d2b6c8f2eece985d8e374c,65d2b94070519faf7d3f00dc,0.0188,0.0189,0,73,73,25,1,onethree,,,,,,,,,,,,,,,,,,,,,,,,,,,,,,,,,,,,,,,,,,,,,,,,,,,,,,,,,,,,,,,,,,,,,,,,,,,,,,,,,,,,,,,,,,,,,,,,,,,,,,,,,,,,,,,,,,,,,,,,,,,,,,,,,,,,,,,,,
,,60597f277921839bebfd40ec,2024-02-19_02h13.43.363,kallum_motion_pilot,2023.2.2,Win32,60.60606061,60597f277921839bebfd40ec,65d2b6c8f2eece985d8e374c,65d2b94070519faf7d3f00dc,0.0189,0.0189,0,74,74,64,1,onetwo,,,,,,,,,,,,,,,,,,,,,,,,,,,,,,,,,,,,,,,,,,,,,,,,,,,,,,,,,,,,,,,,,,,,,,,,,,,,,,,,,,,,,,,,,,,,,,,,,,,,,,,,,,,,,,,,,,,,,,,,,,,,,,,,,,,,,,,,,
,,60597f277921839bebfd40ec,2024-02-19_02h13.43.363,kallum_motion_pilot,2023.2.2,Win32,60.60606061,60597f277921839bebfd40ec,65d2b6c8f2eece985d8e374c,65d2b94070519faf7d3f00dc,0.019,0.019,0,75,75,99,1,sixeight,,,,,,,,,,,,,,,,,,,,,,,,,,,,,,,,,,,,,,,,,,,,,,,,,,,,,,,,,,,,,,,,,,,,,,,,,,,,,,,,,,,,,,,,,,,,,,,,,,,,,,,,,,,,,,,,,,,,,,,,,,,,,,,,,,,,,,,,,
,,60597f277921839bebfd40ec,2024-02-19_02h13.43.363,kallum_motion_pilot,2023.2.2,Win32,60.60606061,60597f277921839bebfd40ec,65d2b6c8f2eece985d8e374c,65d2b94070519faf7d3f00dc,0.019,0.019,0,76,76,104,1,fivesix,,,,,,,,,,,,,,,,,,,,,,,,,,,,,,,,,,,,,,,,,,,,,,,,,,,,,,,,,,,,,,,,,,,,,,,,,,,,,,,,,,,,,,,,,,,,,,,,,,,,,,,,,,,,,,,,,,,,,,,,,,,,,,,,,,,,,,,,,
,,60597f277921839bebfd40ec,2024-02-19_02h13.43.363,kallum_motion_pilot,2023.2.2,Win32,60.60606061,60597f277921839bebfd40ec,65d2b6c8f2eece985d8e374c,65d2b94070519faf7d3f00dc,0.0191,0.0191,0,77,77,20,1,threeone,,,,,,,,,,,,,,,,,,,,,,,,,,,,,,,,,,,,,,,,,,,,,,,,,,,,,,,,,,,,,,,,,,,,,,,,,,,,,,,,,,,,,,,,,,,,,,,,,,,,,,,,,,,,,,,,,,,,,,,,,,,,,,,,,,,,,,,,,
,,60597f277921839bebfd40ec,2024-02-19_02h13.43.363,kallum_motion_pilot,2023.2.2,Win32,60.60606061,60597f277921839bebfd40ec,65d2b6c8f2eece985d8e374c,65d2b94070519faf7d3f00dc,0.0191,0.0192,0,78,78,82,1,sixfive,,,,,,,,,,,,,,,,,,,,,,,,,,,,,,,,,,,,,,,,,,,,,,,,,,,,,,,,,,,,,,,,,,,,,,,,,,,,,,,,,,,,,,,,,,,,,,,,,,,,,,,,,,,,,,,,,,,,,,,,,,,,,,,,,,,,,,,,,
,,60597f277921839bebfd40ec,2024-02-19_02h13.43.363,kallum_motion_pilot,2023.2.2,Win32,60.60606061,60597f277921839bebfd40ec,65d2b6c8f2eece985d8e374c,65d2b94070519faf7d3f00dc,0.0192,0.0192,0,79,79,148,1,sevenfive,,,,,,,,,,,,,,,,,,,,,,,,,,,,,,,,,,,,,,,,,,,,,,,,,,,,,,,,,,,,,,,,,,,,,,,,,,,,,,,,,,,,,,,,,,,,,,,,,,,,,,,,,,,,,,,,,,,,,,,,,,,,,,,,,,,,,,,,,
,,60597f277921839bebfd40ec,2024-02-19_02h13.43.363,kallum_motion_pilot,2023.2.2,Win32,60.60606061,60597f277921839bebfd40ec,65d2b6c8f2eece985d8e374c,65d2b94070519faf7d3f00dc,0.0192,0.0192,0,80,80,76,1,threeone,,,,,,,,,,,,,,,,,,,,,,,,,,,,,,,,,,,,,,,,,,,,,,,,,,,,,,,,,,,,,,,,,,,,,,,,,,,,,,,,,,,,,,,,,,,,,,,,,,,,,,,,,,,,,,,,,,,,,,,,,,,,,,,,,,,,,,,,,
,,60597f277921839bebfd40ec,2024-02-19_02h13.43.363,kallum_motion_pilot,2023.2.2,Win32,60.60606061,60597f277921839bebfd40ec,65d2b6c8f2eece985d8e374c,65d2b94070519faf7d3f00dc,0.0194,0.0194,0,81,81,158,1,eightsix,,,,,,,,,,,,,,,,,,,,,,,,,,,,,,,,,,,,,,,,,,,,,,,,,,,,,,,,,,,,,,,,,,,,,,,,,,,,,,,,,,,,,,,,,,,,,,,,,,,,,,,,,,,,,,,,,,,,,,,,,,,,,,,,,,,,,,,,,
,,60597f277921839bebfd40ec,2024-02-19_02h13.43.363,kallum_motion_pilot,2023.2.2,Win32,60.60606061,60597f277921839bebfd40ec,65d2b6c8f2eece985d8e374c,65d2b94070519faf7d3f00dc,0.0194,0.0194,0,82,82,123,1,sixeight,,,,,,,,,,,,,,,,,,,,,,,,,,,,,,,,,,,,,,,,,,,,,,,,,,,,,,,,,,,,,,,,,,,,,,,,,,,,,,,,,,,,,,,,,,,,,,,,,,,,,,,,,,,,,,,,,,,,,,,,,,,,,,,,,,,,,,,,,
,,60597f277921839bebfd40ec,2024-02-19_02h13.43.363,kallum_motion_pilot,2023.2.2,Win32,60.60606061,60597f277921839bebfd40ec,65d2b6c8f2eece985d8e374c,65d2b94070519faf7d3f00dc,0.0194,0.0194,0,83,83,154,1,sixfive,,,,,,,,,,,,,,,,,,,,,,,,,,,,,,,,,,,,,,,,,,,,,,,,,,,,,,,,,,,,,,,,,,,,,,,,,,,,,,,,,,,,,,,,,,,,,,,,,,,,,,,,,,,,,,,,,,,,,,,,,,,,,,,,,,,,,,,,,
,,60597f277921839bebfd40ec,2024-02-19_02h13.43.363,kallum_motion_pilot,2023.2.2,Win32,60.60606061,60597f277921839bebfd40ec,65d2b6c8f2eece985d8e374c,65d2b94070519faf7d3f00dc,0.0194,0.0195,0,84,84,119,1,eightseven,,,,,,,,,,,,,,,,,,,,,,,,,,,,,,,,,,,,,,,,,,,,,,,,,,,,,,,,,,,,,,,,,,,,,,,,,,,,,,,,,,,,,,,,,,,,,,,,,,,,,,,,,,,,,,,,,,,,,,,,,,,,,,,,,,,,,,,,,
,,60597f277921839bebfd40ec,2024-02-19_02h13.43.363,kallum_motion_pilot,2023.2.2,Win32,60.60606061,60597f277921839bebfd40ec,65d2b6c8f2eece985d8e374c,65d2b94070519faf7d3f00dc,0.0196,0.0196,0,85,85,147,1,sixeight,,,,,,,,,,,,,,,,,,,,,,,,,,,,,,,,,,,,,,,,,,,,,,,,,,,,,,,,,,,,,,,,,,,,,,,,,,,,,,,,,,,,,,,,,,,,,,,,,,,,,,,,,,,,,,,,,,,,,,,,,,,,,,,,,,,,,,,,,
,,60597f277921839bebfd40ec,2024-02-19_02h13.43.363,kallum_motion_pilot,2023.2.2,Win32,60.60606061,60597f277921839bebfd40ec,65d2b6c8f2eece985d8e374c,65d2b94070519faf7d3f00dc,0.0196,0.0196,0,86,86,103,1,eightseven,,,,,,,,,,,,,,,,,,,,,,,,,,,,,,,,,,,,,,,,,,,,,,,,,,,,,,,,,,,,,,,,,,,,,,,,,,,,,,,,,,,,,,,,,,,,,,,,,,,,,,,,,,,,,,,,,,,,,,,,,,,,,,,,,,,,,,,,,
,,60597f277921839bebfd40ec,2024-02-19_02h13.43.363,kallum_motion_pilot,2023.2.2,Win32,60.60606061,60597f277921839bebfd40ec,65d2b6c8f2eece985d8e374c,65d2b94070519faf7d3f00dc,0.0196,0.0197,0,87,87,39,1,fourthree,,,,,,,,,,,,,,,,,,,,,,,,,,,,,,,,,,,,,,,,,,,,,,,,,,,,,,,,,,,,,,,,,,,,,,,,,,,,,,,,,,,,,,,,,,,,,,,,,,,,,,,,,,,,,,,,,,,,,,,,,,,,,,,,,,,,,,,,,
,,60597f277921839bebfd40ec,2024-02-19_02h13.43.363,kallum_motion_pilot,2023.2.2,Win32,60.60606061,60597f277921839bebfd40ec,65d2b6c8f2eece985d8e374c,65d2b94070519faf7d3f00dc,0.0198,0.0198,0,88,88,40,1,onetwo,,,,,,,,,,,,,,,,,,,,,,,,,,,,,,,,,,,,,,,,,,,,,,,,,,,,,,,,,,,,,,,,,,,,,,,,,,,,,,,,,,,,,,,,,,,,,,,,,,,,,,,,,,,,,,,,,,,,,,,,,,,,,,,,,,,,,,,,,
,,60597f277921839bebfd40ec,2024-02-19_02h13.43.363,kallum_motion_pilot,2023.2.2,Win32,60.60606061,60597f277921839bebfd40ec,65d2b6c8f2eece985d8e374c,65d2b94070519faf7d3f00dc,0.0198,0.0198,0,89,89,31,1,fourthree,,,,,,,,,,,,,,,,,,,,,,,,,,,,,,,,,,,,,,,,,,,,,,,,,,,,,,,,,,,,,,,,,,,,,,,,,,,,,,,,,,,,,,,,,,,,,,,,,,,,,,,,,,,,,,,,,,,,,,,,,,,,,,,,,,,,,,,,,
,,60597f277921839bebfd40ec,2024-02-19_02h13.43.363,kallum_motion_pilot,2023.2.2,Win32,60.60606061,60597f277921839bebfd40ec,65d2b6c8f2eece985d8e374c,65d2b94070519faf7d3f00dc,0.0199,0.0199,0,90,90,6,1,fourtwo,,,,,,,,,,,,,,,,,,,,,,,,,,,,,,,,,,,,,,,,,,,,,,,,,,,,,,,,,,,,,,,,,,,,,,,,,,,,,,,,,,,,,,,,,,,,,,,,,,,,,,,,,,,,,,,,,,,,,,,,,,,,,,,,,,,,,,,,,
,,60597f277921839bebfd40ec,2024-02-19_02h13.43.363,kallum_motion_pilot,2023.2.2,Win32,60.60606061,60597f277921839bebfd40ec,65d2b6c8f2eece985d8e374c,65d2b94070519faf7d3f00dc,0.0199,0.02,0,91,91,142,1,eightsix,,,,,,,,,,,,,,,,,,,,,,,,,,,,,,,,,,,,,,,,,,,,,,,,,,,,,,,,,,,,,,,,,,,,,,,,,,,,,,,,,,,,,,,,,,,,,,,,,,,,,,,,,,,,,,,,,,,,,,,,,,,,,,,,,,,,,,,,,
,,60597f277921839bebfd40ec,2024-02-19_02h13.43.363,kallum_motion_pilot,2023.2.2,Win32,60.60606061,60597f277921839bebfd40ec,65d2b6c8f2eece985d8e374c,65d2b94070519faf7d3f00dc,0.02,0.0201,0,92,92,98,1,sixfive,,,,,,,,,,,,,,,,,,,,,,,,,,,,,,,,,,,,,,,,,,,,,,,,,,,,,,,,,,,,,,,,,,,,,,,,,,,,,,,,,,,,,,,,,,,,,,,,,,,,,,,,,,,,,,,,,,,,,,,,,,,,,,,,,,,,,,,,,
,,60597f277921839bebfd40ec,2024-02-19_02h13.43.363,kallum_motion_pilot,2023.2.2,Win32,60.60606061,60597f277921839bebfd40ec,65d2b6c8f2eece985d8e374c,65d2b94070519faf7d3f00dc,0.0201,0.0201,0,93,93,12,1,threeone,,,,,,,,,,,,,,,,,,,,,,,,,,,,,,,,,,,,,,,,,,,,,,,,,,,,,,,,,,,,,,,,,,,,,,,,,,,,,,,,,,,,,,,,,,,,,,,,,,,,,,,,,,,,,,,,,,,,,,,,,,,,,,,,,,,,,,,,,
,,60597f277921839bebfd40ec,2024-02-19_02h13.43.363,kallum_motion_pilot,2023.2.2,Win32,60.60606061,60597f277921839bebfd40ec,65d2b6c8f2eece985d8e374c,65d2b94070519faf7d3f00dc,0.0202,0.0202,0,94,94,89,1,fiveseven,,,,,,,,,,,,,,,,,,,,,,,,,,,,,,,,,,,,,,,,,,,,,,,,,,,,,,,,,,,,,,,,,,,,,,,,,,,,,,,,,,,,,,,,,,,,,,,,,,,,,,,,,,,,,,,,,,,,,,,,,,,,,,,,,,,,,,,,,
,,60597f277921839bebfd40ec,2024-02-19_02h13.43.363,kallum_motion_pilot,2023.2.2,Win32,60.60606061,60597f277921839bebfd40ec,65d2b6c8f2eece985d8e374c,65d2b94070519faf7d3f00dc,0.0202,0.0202,0,95,95,28,1,threeone,,,,,,,,,,,,,,,,,,,,,,,,,,,,,,,,,,,,,,,,,,,,,,,,,,,,,,,,,,,,,,,,,,,,,,,,,,,,,,,,,,,,,,,,,,,,,,,,,,,,,,,,,,,,,,,,,,,,,,,,,,,,,,,,,,,,,,,,,
,,60597f277921839bebfd40ec,2024-02-19_02h13.43.363,kallum_motion_pilot,2023.2.2,Win32,60.60606061,60597f277921839bebfd40ec,65d2b6c8f2eece985d8e374c,65d2b94070519faf7d3f00dc,0.0202,0.0203,0,96,96,81,1,fiveseven,,,,,,,,,,,,,,,,,,,,,,,,,,,,,,,,,,,,,,,,,,,,,,,,,,,,,,,,,,,,,,,,,,,,,,,,,,,,,,,,,,,,,,,,,,,,,,,,,,,,,,,,,,,,,,,,,,,,,,,,,,,,,,,,,,,,,,,,,
,,60597f277921839bebfd40ec,2024-02-19_02h13.43.363,kallum_motion_pilot,2023.2.2,Win32,60.60606061,60597f277921839bebfd40ec,65d2b6c8f2eece985d8e374c,65d2b94070519faf7d3f00dc,0.0203,0.0204,0,97,97,93,1,seveneight,,,,,,,,,,,,,,,,,,,,,,,,,,,,,,,,,,,,,,,,,,,,,,,,,,,,,,,,,,,,,,,,,,,,,,,,,,,,,,,,,,,,,,,,,,,,,,,,,,,,,,,,,,,,,,,,,,,,,,,,,,,,,,,,,,,,,,,,,
,,60597f277921839bebfd40ec,2024-02-19_02h13.43.363,kallum_motion_pilot,2023.2.2,Win32,60.60606061,60597f277921839bebfd40ec,65d2b6c8f2eece985d8e374c,65d2b94070519faf7d3f00dc,0.0205,0.0205,0,98,98,53,1,threefour,,,,,,,,,,,,,,,,,,,,,,,,,,,,,,,,,,,,,,,,,,,,,,,,,,,,,,,,,,,,,,,,,,,,,,,,,,,,,,,,,,,,,,,,,,,,,,,,,,,,,,,,,,,,,,,,,,,,,,,,,,,,,,,,,,,,,,,,,
,,60597f277921839bebfd40ec,2024-02-19_02h13.43.363,kallum_motion_pilot,2023.2.2,Win32,60.60606061,60597f277921839bebfd40ec,65d2b6c8f2eece985d8e374c,65d2b94070519faf7d3f00dc,0.0206,0.0207,0,99,99,29,1,threefour,,,,,,,,,,,,,,,,,,,,,,,,,,,,,,,,,,,,,,,,,,,,,,,,,,,,,,,,,,,,,,,,,,,,,,,,,,,,,,,,,,,,,,,,,,,,,,,,,,,,,,,,,,,,,,,,,,,,,,,,,,,,,,,,,,,,,,,,,
,,60597f277921839bebfd40ec,2024-02-19_02h13.43.363,kallum_motion_pilot,2023.2.2,Win32,60.60606061,60597f277921839bebfd40ec,65d2b6c8f2eece985d8e374c,65d2b94070519faf7d3f00dc,0.0207,0.0207,0,100,100,73,1,onethree,,,,,,,,,,,,,,,,,,,,,,,,,,,,,,,,,,,,,,,,,,,,,,,,,,,,,,,,,,,,,,,,,,,,,,,,,,,,,,,,,,,,,,,,,,,,,,,,,,,,,,,,,,,,,,,,,,,,,,,,,,,,,,,,,,,,,,,,,
,,60597f277921839bebfd40ec,2024-02-19_02h13.43.363,kallum_motion_pilot,2023.2.2,Win32,60.60606061,60597f277921839bebfd40ec,65d2b6c8f2eece985d8e374c,65d2b94070519faf7d3f00dc,0.0208,0.0209,0,101,101,91,1,sixeight,,,,,,,,,,,,,,,,,,,,,,,,,,,,,,,,,,,,,,,,,,,,,,,,,,,,,,,,,,,,,,,,,,,,,,,,,,,,,,,,,,,,,,,,,,,,,,,,,,,,,,,,,,,,,,,,,,,,,,,,,,,,,,,,,,,,,,,,,
,,60597f277921839bebfd40ec,2024-02-19_02h13.43.363,kallum_motion_pilot,2023.2.2,Win32,60.60606061,60597f277921839bebfd40ec,65d2b6c8f2eece985d8e374c,65d2b94070519faf7d3f00dc,0.0209,0.0209,0,102,102,54,1,fourtwo,,,,,,,,,,,,,,,,,,,,,,,,,,,,,,,,,,,,,,,,,,,,,,,,,,,,,,,,,,,,,,,,,,,,,,,,,,,,,,,,,,,,,,,,,,,,,,,,,,,,,,,,,,,,,,,,,,,,,,,,,,,,,,,,,,,,,,,,,
,,60597f277921839bebfd40ec,2024-02-19_02h13.43.363,kallum_motion_pilot,2023.2.2,Win32,60.60606061,60597f277921839bebfd40ec,65d2b6c8f2eece985d8e374c,65d2b94070519faf7d3f00dc,0.021,0.0211,0,103,103,71,1,fourthree,,,,,,,,,,,,,,,,,,,,,,,,,,,,,,,,,,,,,,,,,,,,,,,,,,,,,,,,,,,,,,,,,,,,,,,,,,,,,,,,,,,,,,,,,,,,,,,,,,,,,,,,,,,,,,,,,,,,,,,,,,,,,,,,,,,,,,,,,
,,60597f277921839bebfd40ec,2024-02-19_02h13.43.363,kallum_motion_pilot,2023.2.2,Win32,60.60606061,60597f277921839bebfd40ec,65d2b6c8f2eece985d8e374c,65d2b94070519faf7d3f00dc,0.0211,0.0211,0,104,104,127,1,eightseven,,,,,,,,,,,,,,,,,,,,,,,,,,,,,,,,,,,,,,,,,,,,,,,,,,,,,,,,,,,,,,,,,,,,,,,,,,,,,,,,,,,,,,,,,,,,,,,,,,,,,,,,,,,,,,,,,,,,,,,,,,,,,,,,,,,,,,,,,
,,60597f277921839bebfd40ec,2024-02-19_02h13.43.363,kallum_motion_pilot,2023.2.2,Win32,60.60606061,60597f277921839bebfd40ec,65d2b6c8f2eece985d8e374c,65d2b94070519faf7d3f00dc,0.0211,0.0212,0,105,105,110,1,eightsix,,,,,,,,,,,,,,,,,,,,,,,,,,,,,,,,,,,,,,,,,,,,,,,,,,,,,,,,,,,,,,,,,,,,,,,,,,,,,,,,,,,,,,,,,,,,,,,,,,,,,,,,,,,,,,,,,,,,,,,,,,,,,,,,,,,,,,,,,
,,60597f277921839bebfd40ec,2024-02-19_02h13.43.363,kallum_motion_pilot,2023.2.2,Win32,60.60606061,60597f277921839bebfd40ec,65d2b6c8f2eece985d8e374c,65d2b94070519faf7d3f00dc,0.0212,0.0212,0,106,106,62,1,fourtwo,,,,,,,,,,,,,,,,,,,,,,,,,,,,,,,,,,,,,,,,,,,,,,,,,,,,,,,,,,,,,,,,,,,,,,,,,,,,,,,,,,,,,,,,,,,,,,,,,,,,,,,,,,,,,,,,,,,,,,,,,,,,,,,,,,,,,,,,,
,,60597f277921839bebfd40ec,2024-02-19_02h13.43.363,kallum_motion_pilot,2023.2.2,Win32,60.60606061,60597f277921839bebfd40ec,65d2b6c8f2eece985d8e374c,65d2b94070519faf7d3f00dc,0.0213,0.0213,0,107,107,44,1,threeone,,,,,,,,,,,,,,,,,,,,,,,,,,,,,,,,,,,,,,,,,,,,,,,,,,,,,,,,,,,,,,,,,,,,,,,,,,,,,,,,,,,,,,,,,,,,,,,,,,,,,,,,,,,,,,,,,,,,,,,,,,,,,,,,,,,,,,,,,
,,60597f277921839bebfd40ec,2024-02-19_02h13.43.363,kallum_motion_pilot,2023.2.2,Win32,60.60606061,60597f277921839bebfd40ec,65d2b6c8f2eece985d8e374c,65d2b94070519faf7d3f00dc,0.0214,0.0215,0,108,108,60,1,threeone,,,,,,,,,,,,,,,,,,,,,,,,,,,,,,,,,,,,,,,,,,,,,,,,,,,,,,,,,,,,,,,,,,,,,,,,,,,,,,,,,,,,,,,,,,,,,,,,,,,,,,,,,,,,,,,,,,,,,,,,,,,,,,,,,,,,,,,,,
,,60597f277921839bebfd40ec,2024-02-19_02h13.43.363,kallum_motion_pilot,2023.2.2,Win32,60.60606061,60597f277921839bebfd40ec,65d2b6c8f2eece985d8e374c,65d2b94070519faf7d3f00dc,0.0215,0.0215,0,109,109,16,1,onetwo,,,,,,,,,,,,,,,,,,,,,,,,,,,,,,,,,,,,,,,,,,,,,,,,,,,,,,,,,,,,,,,,,,,,,,,,,,,,,,,,,,,,,,,,,,,,,,,,,,,,,,,,,,,,,,,,,,,,,,,,,,,,,,,,,,,,,,,,,
,,60597f277921839bebfd40ec,2024-02-19_02h13.43.363,kallum_motion_pilot,2023.2.2,Win32,60.60606061,60597f277921839bebfd40ec,65d2b6c8f2eece985d8e374c,65d2b94070519faf7d3f00dc,0.0216,0.0216,0,110,110,32,1,onetwo,,,,,,,,,,,,,,,,,,,,,,,,,,,,,,,,,,,,,,,,,,,,,,,,,,,,,,,,,,,,,,,,,,,,,,,,,,,,,,,,,,,,,,,,,,,,,,,,,,,,,,,,,,,,,,,,,,,,,,,,,,,,,,,,,,,,,,,,,
,,60597f277921839bebfd40ec,2024-02-19_02h13.43.363,kallum_motion_pilot,2023.2.2,Win32,60.60606061,60597f277921839bebfd40ec,65d2b6c8f2eece985d8e374c,65d2b94070519faf7d3f00dc,0.0216,0.0216,0,111,111,35,1,twofour,,,,,,,,,,,,,,,,,,,,,,,,,,,,,,,,,,,,,,,,,,,,,,,,,,,,,,,,,,,,,,,,,,,,,,,,,,,,,,,,,,,,,,,,,,,,,,,,,,,,,,,,,,,,,,,,,,,,,,,,,,,,,,,,,,,,,,,,,
,,60597f277921839bebfd40ec,2024-02-19_02h13.43.363,kallum_motion_pilot,2023.2.2,Win32,60.60606061,60597f277921839bebfd40ec,65d2b6c8f2eece985d8e374c,65d2b94070519faf7d3f00dc,0.0217,0.0217,0,112,112,137,1,fiveseven,,,,,,,,,,,,,,,,,,,,,,,,,,,,,,,,,,,,,,,,,,,,,,,,,,,,,,,,,,,,,,,,,,,,,,,,,,,,,,,,,,,,,,,,,,,,,,,,,,,,,,,,,,,,,,,,,,,,,,,,,,,,,,,,,,,,,,,,,
,,60597f277921839bebfd40ec,2024-02-19_02h13.43.363,kallum_motion_pilot,2023.2.2,Win32,60.60606061,60597f277921839bebfd40ec,65d2b6c8f2eece985d8e374c,65d2b94070519faf7d3f00dc,0.0217,0.0217,0,113,113,96,1,fivesix,,,,,,,,,,,,,,,,,,,,,,,,,,,,,,,,,,,,,,,,,,,,,,,,,,,,,,,,,,,,,,,,,,,,,,,,,,,,,,,,,,,,,,,,,,,,,,,,,,,,,,,,,,,,,,,,,,,,,,,,,,,,,,,,,,,,,,,,,
,,60597f277921839bebfd40ec,2024-02-19_02h13.43.363,kallum_motion_pilot,2023.2.2,Win32,60.60606061,60597f277921839bebfd40ec,65d2b6c8f2eece985d8e374c,65d2b94070519faf7d3f00dc,0.0218,0.0218,0,114,114,48,1,onetwo,,,,,,,,,,,,,,,,,,,,,,,,,,,,,,,,,,,,,,,,,,,,,,,,,,,,,,,,,,,,,,,,,,,,,,,,,,,,,,,,,,,,,,,,,,,,,,,,,,,,,,,,,,,,,,,,,,,,,,,,,,,,,,,,,,,,,,,,,
,,60597f277921839bebfd40ec,2024-02-19_02h13.43.363,kallum_motion_pilot,2023.2.2,Win32,60.60606061,60597f277921839bebfd40ec,65d2b6c8f2eece985d8e374c,65d2b94070519faf7d3f00dc,0.0219,0.0219,0,115,115,0,1,onetwo,,,,,,,,,,,,,,,,,,,,,,,,,,,,,,,,,,,,,,,,,,,,,,,,,,,,,,,,,,,,,,,,,,,,,,,,,,,,,,,,,,,,,,,,,,,,,,,,,,,,,,,,,,,,,,,,,,,,,,,,,,,,,,,,,,,,,,,,,
,,60597f277921839bebfd40ec,2024-02-19_02h13.43.363,kallum_motion_pilot,2023.2.2,Win32,60.60606061,60597f277921839bebfd40ec,65d2b6c8f2eece985d8e374c,65d2b94070519faf7d3f00dc,0.022,0.022,0,116,116,139,1,sixeight,,,,,,,,,,,,,,,,,,,,,,,,,,,,,,,,,,,,,,,,,,,,,,,,,,,,,,,,,,,,,,,,,,,,,,,,,,,,,,,,,,,,,,,,,,,,,,,,,,,,,,,,,,,,,,,,,,,,,,,,,,,,,,,,,,,,,,,,,
,,60597f277921839bebfd40ec,2024-02-19_02h13.43.363,kallum_motion_pilot,2023.2.2,Win32,60.60606061,60597f277921839bebfd40ec,65d2b6c8f2eece985d8e374c,65d2b94070519faf7d3f00dc,0.022,0.022,0,117,117,102,1,eightsix,,,,,,,,,,,,,,,,,,,,,,,,,,,,,,,,,,,,,,,,,,,,,,,,,,,,,,,,,,,,,,,,,,,,,,,,,,,,,,,,,,,,,,,,,,,,,,,,,,,,,,,,,,,,,,,,,,,,,,,,,,,,,,,,,,,,,,,,,
,,60597f277921839bebfd40ec,2024-02-19_02h13.43.363,kallum_motion_pilot,2023.2.2,Win32,60.60606061,60597f277921839bebfd40ec,65d2b6c8f2eece985d8e374c,65d2b94070519faf7d3f00dc,0.022,0.022,0,118,118,36,1,threeone,,,,,,,,,,,,,,,,,,,,,,,,,,,,,,,,,,,,,,,,,,,,,,,,,,,,,,,,,,,,,,,,,,,,,,,,,,,,,,,,,,,,,,,,,,,,,,,,,,,,,,,,,,,,,,,,,,,,,,,,,,,,,,,,,,,,,,,,,
,,60597f277921839bebfd40ec,2024-02-19_02h13.43.363,kallum_motion_pilot,2023.2.2,Win32,60.60606061,60597f277921839bebfd40ec,65d2b6c8f2eece985d8e374c,65d2b94070519faf7d3f00dc,0.0221,0.0221,0,119,119,156,1,sevenfive,,,,,,,,,,,,,,,,,,,,,,,,,,,,,,,,,,,,,,,,,,,,,,,,,,,,,,,,,,,,,,,,,,,,,,,,,,,,,,,,,,,,,,,,,,,,,,,,,,,,,,,,,,,,,,,,,,,,,,,,,,,,,,,,,,,,,,,,,
,,60597f277921839bebfd40ec,2024-02-19_02h13.43.363,kallum_motion_pilot,2023.2.2,Win32,60.60606061,60597f277921839bebfd40ec,65d2b6c8f2eece985d8e374c,65d2b94070519faf7d3f00dc,0.0221,0.0222,0,120,120,1,1,onethree,,,,,,,,,,,,,,,,,,,,,,,,,,,,,,,,,,,,,,,,,,,,,,,,,,,,,,,,,,,,,,,,,,,,,,,,,,,,,,,,,,,,,,,,,,,,,,,,,,,,,,,,,,,,,,,,,,,,,,,,,,,,,,,,,,,,,,,,,
,,60597f277921839bebfd40ec,2024-02-19_02h13.43.363,kallum_motion_pilot,2023.2.2,Win32,60.60606061,60597f277921839bebfd40ec,65d2b6c8f2eece985d8e374c,65d2b94070519faf7d3f00dc,0.0222,0.0223,0,121,121,67,1,twofour,,,,,,,,,,,,,,,,,,,,,,,,,,,,,,,,,,,,,,,,,,,,,,,,,,,,,,,,,,,,,,,,,,,,,,,,,,,,,,,,,,,,,,,,,,,,,,,,,,,,,,,,,,,,,,,,,,,,,,,,,,,,,,,,,,,,,,,,,
,,60597f277921839bebfd40ec,2024-02-19_02h13.43.363,kallum_motion_pilot,2023.2.2,Win32,60.60606061,60597f277921839bebfd40ec,65d2b6c8f2eece985d8e374c,65d2b94070519faf7d3f00dc,0.0223,0.0223,0,122,122,15,1,fourthree,,,,,,,,,,,,,,,,,,,,,,,,,,,,,,,,,,,,,,,,,,,,,,,,,,,,,,,,,,,,,,,,,,,,,,,,,,,,,,,,,,,,,,,,,,,,,,,,,,,,,,,,,,,,,,,,,,,,,,,,,,,,,,,,,,,,,,,,,
,,60597f277921839bebfd40ec,2024-02-19_02h13.43.363,kallum_motion_pilot,2023.2.2,Win32,60.60606061,60597f277921839bebfd40ec,65d2b6c8f2eece985d8e374c,65d2b94070519faf7d3f00dc,0.0224,0.0224,0,123,123,58,1,twoone,,,,,,,,,,,,,,,,,,,,,,,,,,,,,,,,,,,,,,,,,,,,,,,,,,,,,,,,,,,,,,,,,,,,,,,,,,,,,,,,,,,,,,,,,,,,,,,,,,,,,,,,,,,,,,,,,,,,,,,,,,,,,,,,,,,,,,,,,
,,60597f277921839bebfd40ec,2024-02-19_02h13.43.363,kallum_motion_pilot,2023.2.2,Win32,60.60606061,60597f277921839bebfd40ec,65d2b6c8f2eece985d8e374c,65d2b94070519faf7d3f00dc,0.0225,0.0225,0,124,124,56,1,onetwo,,,,,,,,,,,,,,,,,,,,,,,,,,,,,,,,,,,,,,,,,,,,,,,,,,,,,,,,,,,,,,,,,,,,,,,,,,,,,,,,,,,,,,,,,,,,,,,,,,,,,,,,,,,,,,,,,,,,,,,,,,,,,,,,,,,,,,,,,
,,60597f277921839bebfd40ec,2024-02-19_02h13.43.363,kallum_motion_pilot,2023.2.2,Win32,60.60606061,60597f277921839bebfd40ec,65d2b6c8f2eece985d8e374c,65d2b94070519faf7d3f00dc,0.0226,0.0226,0,125,125,8,1,onetwo,,,,,,,,,,,,,,,,,,,,,,,,,,,,,,,,,,,,,,,,,,,,,,,,,,,,,,,,,,,,,,,,,,,,,,,,,,,,,,,,,,,,,,,,,,,,,,,,,,,,,,,,,,,,,,,,,,,,,,,,,,,,,,,,,,,,,,,,,
,,60597f277921839bebfd40ec,2024-02-19_02h13.43.363,kallum_motion_pilot,2023.2.2,Win32,60.60606061,60597f277921839bebfd40ec,65d2b6c8f2eece985d8e374c,65d2b94070519faf7d3f00dc,0.0227,0.0227,0,126,126,18,1,twoone,,,,,,,,,,,,,,,,,,,,,,,,,,,,,,,,,,,,,,,,,,,,,,,,,,,,,,,,,,,,,,,,,,,,,,,,,,,,,,,,,,,,,,,,,,,,,,,,,,,,,,,,,,,,,,,,,,,,,,,,,,,,,,,,,,,,,,,,,
,,60597f277921839bebfd40ec,2024-02-19_02h13.43.363,kallum_motion_pilot,2023.2.2,Win32,60.60606061,60597f277921839bebfd40ec,65d2b6c8f2eece985d8e374c,65d2b94070519faf7d3f00dc,0.0227,0.0227,0,127,127,38,1,fourtwo,,,,,,,,,,,,,,,,,,,,,,,,,,,,,,,,,,,,,,,,,,,,,,,,,,,,,,,,,,,,,,,,,,,,,,,,,,,,,,,,,,,,,,,,,,,,,,,,,,,,,,,,,,,,,,,,,,,,,,,,,,,,,,,,,,,,,,,,,
,,60597f277921839bebfd40ec,2024-02-19_02h13.43.363,kallum_motion_pilot,2023.2.2,Win32,60.60606061,60597f277921839bebfd40ec,65d2b6c8f2eece985d8e374c,65d2b94070519faf7d3f00dc,0.0228,0.0228,0,128,128,84,1,sevenfive,,,,,,,,,,,,,,,,,,,,,,,,,,,,,,,,,,,,,,,,,,,,,,,,,,,,,,,,,,,,,,,,,,,,,,,,,,,,,,,,,,,,,,,,,,,,,,,,,,,,,,,,,,,,,,,,,,,,,,,,,,,,,,,,,,,,,,,,,
,,60597f277921839bebfd40ec,2024-02-19_02h13.43.363,kallum_motion_pilot,2023.2.2,Win32,60.60606061,60597f277921839bebfd40ec,65d2b6c8f2eece985d8e374c,65d2b94070519faf7d3f00dc,0.0229,0.0229,0,129,129,74,1,twoone,,,,,,,,,,,,,,,,,,,,,,,,,,,,,,,,,,,,,,,,,,,,,,,,,,,,,,,,,,,,,,,,,,,,,,,,,,,,,,,,,,,,,,,,,,,,,,,,,,,,,,,,,,,,,,,,,,,,,,,,,,,,,,,,,,,,,,,,,
,,60597f277921839bebfd40ec,2024-02-19_02h13.43.363,kallum_motion_pilot,2023.2.2,Win32,60.60606061,60597f277921839bebfd40ec,65d2b6c8f2eece985d8e374c,65d2b94070519faf7d3f00dc,0.023,0.023,0,130,130,19,1,twofour,,,,,,,,,,,,,,,,,,,,,,,,,,,,,,,,,,,,,,,,,,,,,,,,,,,,,,,,,,,,,,,,,,,,,,,,,,,,,,,,,,,,,,,,,,,,,,,,,,,,,,,,,,,,,,,,,,,,,,,,,,,,,,,,,,,,,,,,,
,,60597f277921839bebfd40ec,2024-02-19_02h13.43.363,kallum_motion_pilot,2023.2.2,Win32,60.60606061,60597f277921839bebfd40ec,65d2b6c8f2eece985d8e374c,65d2b94070519faf7d3f00dc,0.023,0.0231,0,131,131,61,1,threefour,,,,,,,,,,,,,,,,,,,,,,,,,,,,,,,,,,,,,,,,,,,,,,,,,,,,,,,,,,,,,,,,,,,,,,,,,,,,,,,,,,,,,,,,,,,,,,,,,,,,,,,,,,,,,,,,,,,,,,,,,,,,,,,,,,,,,,,,,
,,60597f277921839bebfd40ec,2024-02-19_02h13.43.363,kallum_motion_pilot,2023.2.2,Win32,60.60606061,60597f277921839bebfd40ec,65d2b6c8f2eece985d8e374c,65d2b94070519faf7d3f00dc,0.0231,0.0231,0,132,132,120,1,fivesix,,,,,,,,,,,,,,,,,,,,,,,,,,,,,,,,,,,,,,,,,,,,,,,,,,,,,,,,,,,,,,,,,,,,,,,,,,,,,,,,,,,,,,,,,,,,,,,,,,,,,,,,,,,,,,,,,,,,,,,,,,,,,,,,,,,,,,,,,
,,60597f277921839bebfd40ec,2024-02-19_02h13.43.363,kallum_motion_pilot,2023.2.2,Win32,60.60606061,60597f277921839bebfd40ec,65d2b6c8f2eece985d8e374c,65d2b94070519faf7d3f00dc,0.0231,0.0231,0,133,133,4,1,threeone,,,,,,,,,,,,,,,,,,,,,,,,,,,,,,,,,,,,,,,,,,,,,,,,,,,,,,,,,,,,,,,,,,,,,,,,,,,,,,,,,,,,,,,,,,,,,,,,,,,,,,,,,,,,,,,,,,,,,,,,,,,,,,,,,,,,,,,,,
,,60597f277921839bebfd40ec,2024-02-19_02h13.43.363,kallum_motion_pilot,2023.2.2,Win32,60.60606061,60597f277921839bebfd40ec,65d2b6c8f2eece985d8e374c,65d2b94070519faf7d3f00dc,0.0232,0.0232,0,134,134,155,1,sixeight,,,,,,,,,,,,,,,,,,,,,,,,,,,,,,,,,,,,,,,,,,,,,,,,,,,,,,,,,,,,,,,,,,,,,,,,,,,,,,,,,,,,,,,,,,,,,,,,,,,,,,,,,,,,,,,,,,,,,,,,,,,,,,,,,,,,,,,,,
,,60597f277921839bebfd40ec,2024-02-19_02h13.43.363,kallum_motion_pilot,2023.2.2,Win32,60.60606061,60597f277921839bebfd40ec,65d2b6c8f2eece985d8e374c,65d2b94070519faf7d3f00dc,0.0236,0.0236,0,135,135,116,1,sevenfive,,,,,,,,,,,,,,,,,,,,,,,,,,,,,,,,,,,,,,,,,,,,,,,,,,,,,,,,,,,,,,,,,,,,,,,,,,,,,,,,,,,,,,,,,,,,,,,,,,,,,,,,,,,,,,,,,,,,,,,,,,,,,,,,,,,,,,,,,
,,60597f277921839bebfd40ec,2024-02-19_02h13.43.363,kallum_motion_pilot,2023.2.2,Win32,60.60606061,60597f277921839bebfd40ec,65d2b6c8f2eece985d8e374c,65d2b94070519faf7d3f00dc,0.0236,0.0237,0,136,136,42,1,twoone,,,,,,,,,,,,,,,,,,,,,,,,,,,,,,,,,,,,,,,,,,,,,,,,,,,,,,,,,,,,,,,,,,,,,,,,,,,,,,,,,,,,,,,,,,,,,,,,,,,,,,,,,,,,,,,,,,,,,,,,,,,,,,,,,,,,,,,,,
,,60597f277921839bebfd40ec,2024-02-19_02h13.43.363,kallum_motion_pilot,2023.2.2,Win32,60.60606061,60597f277921839bebfd40ec,65d2b6c8f2eece985d8e374c,65d2b94070519faf7d3f00dc,0.0237,0.0238,0,137,137,114,1,sixfive,,,,,,,,,,,,,,,,,,,,,,,,,,,,,,,,,,,,,,,,,,,,,,,,,,,,,,,,,,,,,,,,,,,,,,,,,,,,,,,,,,,,,,,,,,,,,,,,,,,,,,,,,,,,,,,,,,,,,,,,,,,,,,,,,,,,,,,,,
,,60597f277921839bebfd40ec,2024-02-19_02h13.43.363,kallum_motion_pilot,2023.2.2,Win32,60.60606061,60597f277921839bebfd40ec,65d2b6c8f2eece985d8e374c,65d2b94070519faf7d3f00dc,0.0238,0.0238,0,138,138,143,1,eightseven,,,,,,,,,,,,,,,,,,,,,,,,,,,,,,,,,,,,,,,,,,,,,,,,,,,,,,,,,,,,,,,,,,,,,,,,,,,,,,,,,,,,,,,,,,,,,,,,,,,,,,,,,,,,,,,,,,,,,,,,,,,,,,,,,,,,,,,,,
,,60597f277921839bebfd40ec,2024-02-19_02h13.43.363,kallum_motion_pilot,2023.2.2,Win32,60.60606061,60597f277921839bebfd40ec,65d2b6c8f2eece985d8e374c,65d2b94070519faf7d3f00dc,0.0239,0.0239,0,139,139,41,1,onethree,,,,,,,,,,,,,,,,,,,,,,,,,,,,,,,,,,,,,,,,,,,,,,,,,,,,,,,,,,,,,,,,,,,,,,,,,,,,,,,,,,,,,,,,,,,,,,,,,,,,,,,,,,,,,,,,,,,,,,,,,,,,,,,,,,,,,,,,,
,,60597f277921839bebfd40ec,2024-02-19_02h13.43.363,kallum_motion_pilot,2023.2.2,Win32,60.60606061,60597f277921839bebfd40ec,65d2b6c8f2eece985d8e374c,65d2b94070519faf7d3f00dc,0.0239,0.0239,0,140,140,161,1,fiveseven,,,,,,,,,,,,,,,,,,,,,,,,,,,,,,,,,,,,,,,,,,,,,,,,,,,,,,,,,,,,,,,,,,,,,,,,,,,,,,,,,,,,,,,,,,,,,,,,,,,,,,,,,,,,,,,,,,,,,,,,,,,,,,,,,,,,,,,,,
,,60597f277921839bebfd40ec,2024-02-19_02h13.43.363,kallum_motion_pilot,2023.2.2,Win32,60.60606061,60597f277921839bebfd40ec,65d2b6c8f2eece985d8e374c,65d2b94070519faf7d3f00dc,0.024,0.0241,0,141,141,63,1,fourthree,,,,,,,,,,,,,,,,,,,,,,,,,,,,,,,,,,,,,,,,,,,,,,,,,,,,,,,,,,,,,,,,,,,,,,,,,,,,,,,,,,,,,,,,,,,,,,,,,,,,,,,,,,,,,,,,,,,,,,,,,,,,,,,,,,,,,,,,,
,,60597f277921839bebfd40ec,2024-02-19_02h13.43.363,kallum_motion_pilot,2023.2.2,Win32,60.60606061,60597f277921839bebfd40ec,65d2b6c8f2eece985d8e374c,65d2b94070519faf7d3f00dc,0.0241,0.0242,0,142,142,80,1,fivesix,,,,,,,,,,,,,,,,,,,,,,,,,,,,,,,,,,,,,,,,,,,,,,,,,,,,,,,,,,,,,,,,,,,,,,,,,,,,,,,,,,,,,,,,,,,,,,,,,,,,,,,,,,,,,,,,,,,,,,,,,,,,,,,,,,,,,,,,,
,,60597f277921839bebfd40ec,2024-02-19_02h13.43.363,kallum_motion_pilot,2023.2.2,Win32,60.60606061,60597f277921839bebfd40ec,65d2b6c8f2eece985d8e374c,65d2b94070519faf7d3f00dc,0.0242,0.0242,0,143,143,88,1,fivesix,,,,,,,,,,,,,,,,,,,,,,,,,,,,,,,,,,,,,,,,,,,,,,,,,,,,,,,,,,,,,,,,,,,,,,,,,,,,,,,,,,,,,,,,,,,,,,,,,,,,,,,,,,,,,,,,,,,,,,,,,,,,,,,,,,,,,,,,,
,,60597f277921839bebfd40ec,2024-02-19_02h13.43.363,kallum_motion_pilot,2023.2.2,Win32,60.60606061,60597f277921839bebfd40ec,65d2b6c8f2eece985d8e374c,65d2b94070519faf7d3f00dc,0.0243,0.0243,0,144,144,34,1,twoone,,,,,,,,,,,,,,,,,,,,,,,,,,,,,,,,,,,,,,,,,,,,,,,,,,,,,,,,,,,,,,,,,,,,,,,,,,,,,,,,,,,,,,,,,,,,,,,,,,,,,,,,,,,,,,,,,,,,,,,,,,,,,,,,,,,,,,,,,
,,60597f277921839bebfd40ec,2024-02-19_02h13.43.363,kallum_motion_pilot,2023.2.2,Win32,60.60606061,60597f277921839bebfd40ec,65d2b6c8f2eece985d8e374c,65d2b94070519faf7d3f00dc,0.0243,0.0243,0,145,145,134,1,eightsix,,,,,,,,,,,,,,,,,,,,,,,,,,,,,,,,,,,,,,,,,,,,,,,,,,,,,,,,,,,,,,,,,,,,,,,,,,,,,,,,,,,,,,,,,,,,,,,,,,,,,,,,,,,,,,,,,,,,,,,,,,,,,,,,,,,,,,,,,
,,60597f277921839bebfd40ec,2024-02-19_02h13.43.363,kallum_motion_pilot,2023.2.2,Win32,60.60606061,60597f277921839bebfd40ec,65d2b6c8f2eece985d8e374c,65d2b94070519faf7d3f00dc,0.0244,0.0244,0,146,146,37,1,threefour,,,,,,,,,,,,,,,,,,,,,,,,,,,,,,,,,,,,,,,,,,,,,,,,,,,,,,,,,,,,,,,,,,,,,,,,,,,,,,,,,,,,,,,,,,,,,,,,,,,,,,,,,,,,,,,,,,,,,,,,,,,,,,,,,,,,,,,,,
,,60597f277921839bebfd40ec,2024-02-19_02h13.43.363,kallum_motion_pilot,2023.2.2,Win32,60.60606061,60597f277921839bebfd40ec,65d2b6c8f2eece985d8e374c,65d2b94070519faf7d3f00dc,0.0244,0.0244,0,147,147,160,1,fivesix,,,,,,,,,,,,,,,,,,,,,,,,,,,,,,,,,,,,,,,,,,,,,,,,,,,,,,,,,,,,,,,,,,,,,,,,,,,,,,,,,,,,,,,,,,,,,,,,,,,,,,,,,,,,,,,,,,,,,,,,,,,,,,,,,,,,,,,,,
,,60597f277921839bebfd40ec,2024-02-19_02h13.43.363,kallum_motion_pilot,2023.2.2,Win32,60.60606061,60597f277921839bebfd40ec,65d2b6c8f2eece985d8e374c,65d2b94070519faf7d3f00dc,0.0245,0.0245,0,148,148,100,1,sevenfive,,,,,,,,,,,,,,,,,,,,,,,,,,,,,,,,,,,,,,,,,,,,,,,,,,,,,,,,,,,,,,,,,,,,,,,,,,,,,,,,,,,,,,,,,,,,,,,,,,,,,,,,,,,,,,,,,,,,,,,,,,,,,,,,,,,,,,,,,
,,60597f277921839bebfd40ec,2024-02-19_02h13.43.363,kallum_motion_pilot,2023.2.2,Win32,60.60606061,60597f277921839bebfd40ec,65d2b6c8f2eece985d8e374c,65d2b94070519faf7d3f00dc,0.0245,0.0246,0,149,149,79,1,eightseven,,,,,,,,,,,,,,,,,,,,,,,,,,,,,,,,,,,,,,,,,,,,,,,,,,,,,,,,,,,,,,,,,,,,,,,,,,,,,,,,,,,,,,,,,,,,,,,,,,,,,,,,,,,,,,,,,,,,,,,,,,,,,,,,,,,,,,,,,
,,60597f277921839bebfd40ec,2024-02-19_02h13.43.363,kallum_motion_pilot,2023.2.2,Win32,60.60606061,60597f277921839bebfd40ec,65d2b6c8f2eece985d8e374c,65d2b94070519faf7d3f00dc,0.0246,0.0247,0,150,150,10,1,twoone,,,,,,,,,,,,,,,,,,,,,,,,,,,,,,,,,,,,,,,,,,,,,,,,,,,,,,,,,,,,,,,,,,,,,,,,,,,,,,,,,,,,,,,,,,,,,,,,,,,,,,,,,,,,,,,,,,,,,,,,,,,,,,,,,,,,,,,,,
,,60597f277921839bebfd40ec,2024-02-19_02h13.43.363,kallum_motion_pilot,2023.2.2,Win32,60.60606061,60597f277921839bebfd40ec,65d2b6c8f2eece985d8e374c,65d2b94070519faf7d3f00dc,0.0247,0.0247,0,151,151,47,1,fourthree,,,,,,,,,,,,,,,,,,,,,,,,,,,,,,,,,,,,,,,,,,,,,,,,,,,,,,,,,,,,,,,,,,,,,,,,,,,,,,,,,,,,,,,,,,,,,,,,,,,,,,,,,,,,,,,,,,,,,,,,,,,,,,,,,,,,,,,,,
,,60597f277921839bebfd40ec,2024-02-19_02h13.43.363,kallum_motion_pilot,2023.2.2,Win32,60.60606061,60597f277921839bebfd40ec,65d2b6c8f2eece985d8e374c,65d2b94070519faf7d3f00dc,0.0248,0.0248,0,152,152,159,1,eightseven,,,,,,,,,,,,,,,,,,,,,,,,,,,,,,,,,,,,,,,,,,,,,,,,,,,,,,,,,,,,,,,,,,,,,,,,,,,,,,,,,,,,,,,,,,,,,,,,,,,,,,,,,,,,,,,,,,,,,,,,,,,,,,,,,,,,,,,,,
,,60597f277921839bebfd40ec,2024-02-19_02h13.43.363,kallum_motion_pilot,2023.2.2,Win32,60.60606061,60597f277921839bebfd40ec,65d2b6c8f2eece985d8e374c,65d2b94070519faf7d3f00dc,0.0248,0.0249,0,153,153,75,1,twofour,,,,,,,,,,,,,,,,,,,,,,,,,,,,,,,,,,,,,,,,,,,,,,,,,,,,,,,,,,,,,,,,,,,,,,,,,,,,,,,,,,,,,,,,,,,,,,,,,,,,,,,,,,,,,,,,,,,,,,,,,,,,,,,,,,,,,,,,,
,,60597f277921839bebfd40ec,2024-02-19_02h13.43.363,kallum_motion_pilot,2023.2.2,Win32,60.60606061,60597f277921839bebfd40ec,65d2b6c8f2eece985d8e374c,65d2b94070519faf7d3f00dc,0.0249,0.0249,0,154,154,153,1,fiveseven,,,,,,,,,,,,,,,,,,,,,,,,,,,,,,,,,,,,,,,,,,,,,,,,,,,,,,,,,,,,,,,,,,,,,,,,,,,,,,,,,,,,,,,,,,,,,,,,,,,,,,,,,,,,,,,,,,,,,,,,,,,,,,,,,,,,,,,,,
,,60597f277921839bebfd40ec,2024-02-19_02h13.43.363,kallum_motion_pilot,2023.2.2,Win32,60.60606061,60597f277921839bebfd40ec,65d2b6c8f2eece985d8e374c,65d2b94070519faf7d3f00dc,0.025,0.025,0,155,155,13,1,threefour,,,,,,,,,,,,,,,,,,,,,,,,,,,,,,,,,,,,,,,,,,,,,,,,,,,,,,,,,,,,,,,,,,,,,,,,,,,,,,,,,,,,,,,,,,,,,,,,,,,,,,,,,,,,,,,,,,,,,,,,,,,,,,,,,,,,,,,,,
,,60597f277921839bebfd40ec,2024-02-19_02h13.43.363,kallum_motion_pilot,2023.2.2,Win32,60.60606061,60597f277921839bebfd40ec,65d2b6c8f2eece985d8e374c,65d2b94070519faf7d3f00dc,0.025,0.0251,0,156,156,7,1,fourthree,,,,,,,,,,,,,,,,,,,,,,,,,,,,,,,,,,,,,,,,,,,,,,,,,,,,,,,,,,,,,,,,,,,,,,,,,,,,,,,,,,,,,,,,,,,,,,,,,,,,,,,,,,,,,,,,,,,,,,,,,,,,,,,,,,,,,,,,,
,,60597f277921839bebfd40ec,2024-02-19_02h13.43.363,kallum_motion_pilot,2023.2.2,Win32,60.60606061,60597f277921839bebfd40ec,65d2b6c8f2eece985d8e374c,65d2b94070519faf7d3f00dc,0.0251,0.0252,0,157,157,14,1,fourtwo,,,,,,,,,,,,,,,,,,,,,,,,,,,,,,,,,,,,,,,,,,,,,,,,,,,,,,,,,,,,,,,,,,,,,,,,,,,,,,,,,,,,,,,,,,,,,,,,,,,,,,,,,,,,,,,,,,,,,,,,,,,,,,,,,,,,,,,,,
,,60597f277921839bebfd40ec,2024-02-19_02h13.43.363,kallum_motion_pilot,2023.2.2,Win32,60.60606061,60597f277921839bebfd40ec,65d2b6c8f2eece985d8e374c,65d2b94070519faf7d3f00dc,0.0252,0.0253,0,158,158,138,1,sixfive,,,,,,,,,,,,,,,,,,,,,,,,,,,,,,,,,,,,,,,,,,,,,,,,,,,,,,,,,,,,,,,,,,,,,,,,,,,,,,,,,,,,,,,,,,,,,,,,,,,,,,,,,,,,,,,,,,,,,,,,,,,,,,,,,,,,,,,,,
,,60597f277921839bebfd40ec,2024-02-19_02h13.43.363,kallum_motion_pilot,2023.2.2,Win32,60.60606061,60597f277921839bebfd40ec,65d2b6c8f2eece985d8e374c,65d2b94070519faf7d3f00dc,0.0253,0.0253,0,159,159,133,1,seveneight,,,,,,,,,,,,,,,,,,,,,,,,,,,,,,,,,,,,,,,,,,,,,,,,,,,,,,,,,,,,,,,,,,,,,,,,,,,,,,,,,,,,,,,,,,,,,,,,,,,,,,,,,,,,,,,,,,,,,,,,,,,,,,,,,,,,,,,,,
,,60597f277921839bebfd40ec,2024-02-19_02h13.43.363,kallum_motion_pilot,2023.2.2,Win32,60.60606061,60597f277921839bebfd40ec,65d2b6c8f2eece985d8e374c,65d2b94070519faf7d3f00dc,0.0254,0.0254,0,160,160,144,1,fivesix,,,,,,,,,,,,,,,,,,,,,,,,,,,,,,,,,,,,,,,,,,,,,,,,,,,,,,,,,,,,,,,,,,,,,,,,,,,,,,,,,,,,,,,,,,,,,,,,,,,,,,,,,,,,,,,,,,,,,,,,,,,,,,,,,,,,,,,,,
,,60597f277921839bebfd40ec,2024-02-19_02h13.43.363,kallum_motion_pilot,2023.2.2,Win32,60.60606061,60597f277921839bebfd40ec,65d2b6c8f2eece985d8e374c,65d2b94070519faf7d3f00dc,0.0254,0.0254,0,161,161,70,1,fourtwo,,,,,,,,,,,,,,,,,,,,,,,,,,,,,,,,,,,,,,,,,,,,,,,,,,,,,,,,,,,,,,,,,,,,,,,,,,,,,,,,,,,,,,,,,,,,,,,,,,,,,,,,,,,,,,,,,,,,,,,,,,,,,,,,,,,,,,,,,
,,60597f277921839bebfd40ec,2024-02-19_02h13.43.363,kallum_motion_pilot,2023.2.2,Win32,60.60606061,60597f277921839bebfd40ec,65d2b6c8f2eece985d8e374c,65d2b94070519faf7d3f00dc,0.0255,0.0255,1,0,162,115,1,sixeight,,,,,,,,,,,,,,,,,,,,,,,,,,,,,,,,,,,,,,,,,,,,,,,,,,,,,,,,,,,,,,,,,,,,,,,,,,,,,,,,,,,,,,,,,,,,,,,,,,,,,,,,,,,,,,,,,,,,,,,,,,,,,,,,,,,,,,,,,
,,60597f277921839bebfd40ec,2024-02-19_02h13.43.363,kallum_motion_pilot,2023.2.2,Win32,60.60606061,60597f277921839bebfd40ec,65d2b6c8f2eece985d8e374c,65d2b94070519faf7d3f00dc,0.0255,0.0256,1,1,163,110,1,eightsix,,,,,,,,,,,,,,,,,,,,,,,,,,,,,,,,,,,,,,,,,,,,,,,,,,,,,,,,,,,,,,,,,,,,,,,,,,,,,,,,,,,,,,,,,,,,,,,,,,,,,,,,,,,,,,,,,,,,,,,,,,,,,,,,,,,,,,,,,
,,60597f277921839bebfd40ec,2024-02-19_02h13.43.363,kallum_motion_pilot,2023.2.2,Win32,60.60606061,60597f277921839bebfd40ec,65d2b6c8f2eece985d8e374c,65d2b94070519faf7d3f00dc,0.0256,0.0256,1,2,164,67,1,twofour,,,,,,,,,,,,,,,,,,,,,,,,,,,,,,,,,,,,,,,,,,,,,,,,,,,,,,,,,,,,,,,,,,,,,,,,,,,,,,,,,,,,,,,,,,,,,,,,,,,,,,,,,,,,,,,,,,,,,,,,,,,,,,,,,,,,,,,,,
,,60597f277921839bebfd40ec,2024-02-19_02h13.43.363,kallum_motion_pilot,2023.2.2,Win32,60.60606061,60597f277921839bebfd40ec,65d2b6c8f2eece985d8e374c,65d2b94070519faf7d3f00dc,0.0257,0.0258,1,3,165,12,1,threeone,,,,,,,,,,,,,,,,,,,,,,,,,,,,,,,,,,,,,,,,,,,,,,,,,,,,,,,,,,,,,,,,,,,,,,,,,,,,,,,,,,,,,,,,,,,,,,,,,,,,,,,,,,,,,,,,,,,,,,,,,,,,,,,,,,,,,,,,,
,,60597f277921839bebfd40ec,2024-02-19_02h13.43.363,kallum_motion_pilot,2023.2.2,Win32,60.60606061,60597f277921839bebfd40ec,65d2b6c8f2eece985d8e374c,65d2b94070519faf7d3f00dc,0.0258,0.0258,1,4,166,33,1,onethree,,,,,,,,,,,,,,,,,,,,,,,,,,,,,,,,,,,,,,,,,,,,,,,,,,,,,,,,,,,,,,,,,,,,,,,,,,,,,,,,,,,,,,,,,,,,,,,,,,,,,,,,,,,,,,,,,,,,,,,,,,,,,,,,,,,,,,,,,
,,60597f277921839bebfd40ec,2024-02-19_02h13.43.363,kallum_motion_pilot,2023.2.2,Win32,60.60606061,60597f277921839bebfd40ec,65d2b6c8f2eece985d8e374c,65d2b94070519faf7d3f00dc,0.0258,0.0259,1,5,167,52,1,threeone,,,,,,,,,,,,,,,,,,,,,,,,,,,,,,,,,,,,,,,,,,,,,,,,,,,,,,,,,,,,,,,,,,,,,,,,,,,,,,,,,,,,,,,,,,,,,,,,,,,,,,,,,,,,,,,,,,,,,,,,,,,,,,,,,,,,,,,,,
,,60597f277921839bebfd40ec,2024-02-19_02h13.43.363,kallum_motion_pilot,2023.2.2,Win32,60.60606061,60597f277921839bebfd40ec,65d2b6c8f2eece985d8e374c,65d2b94070519faf7d3f00dc,0.0259,0.026,1,6,168,23,1,fourthree,,,,,,,,,,,,,,,,,,,,,,,,,,,,,,,,,,,,,,,,,,,,,,,,,,,,,,,,,,,,,,,,,,,,,,,,,,,,,,,,,,,,,,,,,,,,,,,,,,,,,,,,,,,,,,,,,,,,,,,,,,,,,,,,,,,,,,,,,
,,60597f277921839bebfd40ec,2024-02-19_02h13.43.363,kallum_motion_pilot,2023.2.2,Win32,60.60606061,60597f277921839bebfd40ec,65d2b6c8f2eece985d8e374c,65d2b94070519faf7d3f00dc,0.026,0.026,1,7,169,35,1,twofour,,,,,,,,,,,,,,,,,,,,,,,,,,,,,,,,,,,,,,,,,,,,,,,,,,,,,,,,,,,,,,,,,,,,,,,,,,,,,,,,,,,,,,,,,,,,,,,,,,,,,,,,,,,,,,,,,,,,,,,,,,,,,,,,,,,,,,,,,
,,60597f277921839bebfd40ec,2024-02-19_02h13.43.363,kallum_motion_pilot,2023.2.2,Win32,60.60606061,60597f277921839bebfd40ec,65d2b6c8f2eece985d8e374c,65d2b94070519faf7d3f00dc,0.0261,0.0261,1,8,170,80,1,fivesix,,,,,,,,,,,,,,,,,,,,,,,,,,,,,,,,,,,,,,,,,,,,,,,,,,,,,,,,,,,,,,,,,,,,,,,,,,,,,,,,,,,,,,,,,,,,,,,,,,,,,,,,,,,,,,,,,,,,,,,,,,,,,,,,,,,,,,,,,
,,60597f277921839bebfd40ec,2024-02-19_02h13.43.363,kallum_motion_pilot,2023.2.2,Win32,60.60606061,60597f277921839bebfd40ec,65d2b6c8f2eece985d8e374c,65d2b94070519faf7d3f00dc,0.0262,0.0262,1,9,171,104,1,fivesix,,,,,,,,,,,,,,,,,,,,,,,,,,,,,,,,,,,,,,,,,,,,,,,,,,,,,,,,,,,,,,,,,,,,,,,,,,,,,,,,,,,,,,,,,,,,,,,,,,,,,,,,,,,,,,,,,,,,,,,,,,,,,,,,,,,,,,,,,
,,60597f277921839bebfd40ec,2024-02-19_02h13.43.363,kallum_motion_pilot,2023.2.2,Win32,60.60606061,60597f277921839bebfd40ec,65d2b6c8f2eece985d8e374c,65d2b94070519faf7d3f00dc,0.0262,0.0262,1,10,172,131,1,sixeight,,,,,,,,,,,,,,,,,,,,,,,,,,,,,,,,,,,,,,,,,,,,,,,,,,,,,,,,,,,,,,,,,,,,,,,,,,,,,,,,,,,,,,,,,,,,,,,,,,,,,,,,,,,,,,,,,,,,,,,,,,,,,,,,,,,,,,,,,
,,60597f277921839bebfd40ec,2024-02-19_02h13.43.363,kallum_motion_pilot,2023.2.2,Win32,60.60606061,60597f277921839bebfd40ec,65d2b6c8f2eece985d8e374c,65d2b94070519faf7d3f00dc,0.0262,0.0263,1,11,173,82,1,sixfive,,,,,,,,,,,,,,,,,,,,,,,,,,,,,,,,,,,,,,,,,,,,,,,,,,,,,,,,,,,,,,,,,,,,,,,,,,,,,,,,,,,,,,,,,,,,,,,,,,,,,,,,,,,,,,,,,,,,,,,,,,,,,,,,,,,,,,,,,
,,60597f277921839bebfd40ec,2024-02-19_02h13.43.363,kallum_motion_pilot,2023.2.2,Win32,60.60606061,60597f277921839bebfd40ec,65d2b6c8f2eece985d8e374c,65d2b94070519faf7d3f00dc,0.0263,0.0264,1,12,174,30,1,fourtwo,,,,,,,,,,,,,,,,,,,,,,,,,,,,,,,,,,,,,,,,,,,,,,,,,,,,,,,,,,,,,,,,,,,,,,,,,,,,,,,,,,,,,,,,,,,,,,,,,,,,,,,,,,,,,,,,,,,,,,,,,,,,,,,,,,,,,,,,,
,,60597f277921839bebfd40ec,2024-02-19_02h13.43.363,kallum_motion_pilot,2023.2.2,Win32,60.60606061,60597f277921839bebfd40ec,65d2b6c8f2eece985d8e374c,65d2b94070519faf7d3f00dc,0.0264,0.0264,1,13,175,116,1,sevenfive,,,,,,,,,,,,,,,,,,,,,,,,,,,,,,,,,,,,,,,,,,,,,,,,,,,,,,,,,,,,,,,,,,,,,,,,,,,,,,,,,,,,,,,,,,,,,,,,,,,,,,,,,,,,,,,,,,,,,,,,,,,,,,,,,,,,,,,,,
,,60597f277921839bebfd40ec,2024-02-19_02h13.43.363,kallum_motion_pilot,2023.2.2,Win32,60.60606061,60597f277921839bebfd40ec,65d2b6c8f2eece985d8e374c,65d2b94070519faf7d3f00dc,0.0265,0.0266,1,14,176,107,1,sixeight,,,,,,,,,,,,,,,,,,,,,,,,,,,,,,,,,,,,,,,,,,,,,,,,,,,,,,,,,,,,,,,,,,,,,,,,,,,,,,,,,,,,,,,,,,,,,,,,,,,,,,,,,,,,,,,,,,,,,,,,,,,,,,,,,,,,,,,,,
,,60597f277921839bebfd40ec,2024-02-19_02h13.43.363,kallum_motion_pilot,2023.2.2,Win32,60.60606061,60597f277921839bebfd40ec,65d2b6c8f2eece985d8e374c,65d2b94070519faf7d3f00dc,0.0266,0.0266,1,15,177,24,1,onetwo,,,,,,,,,,,,,,,,,,,,,,,,,,,,,,,,,,,,,,,,,,,,,,,,,,,,,,,,,,,,,,,,,,,,,,,,,,,,,,,,,,,,,,,,,,,,,,,,,,,,,,,,,,,,,,,,,,,,,,,,,,,,,,,,,,,,,,,,,
,,60597f277921839bebfd40ec,2024-02-19_02h13.43.363,kallum_motion_pilot,2023.2.2,Win32,60.60606061,60597f277921839bebfd40ec,65d2b6c8f2eece985d8e374c,65d2b94070519faf7d3f00dc,0.0267,0.0267,1,16,178,29,1,threefour,,,,,,,,,,,,,,,,,,,,,,,,,,,,,,,,,,,,,,,,,,,,,,,,,,,,,,,,,,,,,,,,,,,,,,,,,,,,,,,,,,,,,,,,,,,,,,,,,,,,,,,,,,,,,,,,,,,,,,,,,,,,,,,,,,,,,,,,,
,,60597f277921839bebfd40ec,2024-02-19_02h13.43.363,kallum_motion_pilot,2023.2.2,Win32,60.60606061,60597f277921839bebfd40ec,65d2b6c8f2eece985d8e374c,65d2b94070519faf7d3f00dc,0.0267,0.0271,1,17,179,5,1,threefour,,,,,,,,,,,,,,,,,,,,,,,,,,,,,,,,,,,,,,,,,,,,,,,,,,,,,,,,,,,,,,,,,,,,,,,,,,,,,,,,,,,,,,,,,,,,,,,,,,,,,,,,,,,,,,,,,,,,,,,,,,,,,,,,,,,,,,,,,
,,60597f277921839bebfd40ec,2024-02-19_02h13.43.363,kallum_motion_pilot,2023.2.2,Win32,60.60606061,60597f277921839bebfd40ec,65d2b6c8f2eece985d8e374c,65d2b94070519faf7d3f00dc,0.0273,0.0273,1,18,180,139,1,sixeight,,,,,,,,,,,,,,,,,,,,,,,,,,,,,,,,,,,,,,,,,,,,,,,,,,,,,,,,,,,,,,,,,,,,,,,,,,,,,,,,,,,,,,,,,,,,,,,,,,,,,,,,,,,,,,,,,,,,,,,,,,,,,,,,,,,,,,,,,
,,60597f277921839bebfd40ec,2024-02-19_02h13.43.363,kallum_motion_pilot,2023.2.2,Win32,60.60606061,60597f277921839bebfd40ec,65d2b6c8f2eece985d8e374c,65d2b94070519faf7d3f00dc,0.0273,0.0273,1,19,181,11,1,twofour,,,,,,,,,,,,,,,,,,,,,,,,,,,,,,,,,,,,,,,,,,,,,,,,,,,,,,,,,,,,,,,,,,,,,,,,,,,,,,,,,,,,,,,,,,,,,,,,,,,,,,,,,,,,,,,,,,,,,,,,,,,,,,,,,,,,,,,,,
,,60597f277921839bebfd40ec,2024-02-19_02h13.43.363,kallum_motion_pilot,2023.2.2,Win32,60.60606061,60597f277921839bebfd40ec,65d2b6c8f2eece985d8e374c,65d2b94070519faf7d3f00dc,0.0274,0.0274,1,20,182,39,1,fourthree,,,,,,,,,,,,,,,,,,,,,,,,,,,,,,,,,,,,,,,,,,,,,,,,,,,,,,,,,,,,,,,,,,,,,,,,,,,,,,,,,,,,,,,,,,,,,,,,,,,,,,,,,,,,,,,,,,,,,,,,,,,,,,,,,,,,,,,,,
,,60597f277921839bebfd40ec,2024-02-19_02h13.43.363,kallum_motion_pilot,2023.2.2,Win32,60.60606061,60597f277921839bebfd40ec,65d2b6c8f2eece985d8e374c,65d2b94070519faf7d3f00dc,0.0275,0.0276,1,21,183,103,1,eightseven,,,,,,,,,,,,,,,,,,,,,,,,,,,,,,,,,,,,,,,,,,,,,,,,,,,,,,,,,,,,,,,,,,,,,,,,,,,,,,,,,,,,,,,,,,,,,,,,,,,,,,,,,,,,,,,,,,,,,,,,,,,,,,,,,,,,,,,,,
,,60597f277921839bebfd40ec,2024-02-19_02h13.43.363,kallum_motion_pilot,2023.2.2,Win32,60.60606061,60597f277921839bebfd40ec,65d2b6c8f2eece985d8e374c,65d2b94070519faf7d3f00dc,0.0276,0.0276,1,22,184,159,1,eightseven,,,,,,,,,,,,,,,,,,,,,,,,,,,,,,,,,,,,,,,,,,,,,,,,,,,,,,,,,,,,,,,,,,,,,,,,,,,,,,,,,,,,,,,,,,,,,,,,,,,,,,,,,,,,,,,,,,,,,,,,,,,,,,,,,,,,,,,,,
,,60597f277921839bebfd40ec,2024-02-19_02h13.43.363,kallum_motion_pilot,2023.2.2,Win32,60.60606061,60597f277921839bebfd40ec,65d2b6c8f2eece985d8e374c,65d2b94070519faf7d3f00dc,0.0277,0.0277,1,23,185,124,1,sevenfive,,,,,,,,,,,,,,,,,,,,,,,,,,,,,,,,,,,,,,,,,,,,,,,,,,,,,,,,,,,,,,,,,,,,,,,,,,,,,,,,,,,,,,,,,,,,,,,,,,,,,,,,,,,,,,,,,,,,,,,,,,,,,,,,,,,,,,,,,
,,60597f277921839bebfd40ec,2024-02-19_02h13.43.363,kallum_motion_pilot,2023.2.2,Win32,60.60606061,60597f277921839bebfd40ec,65d2b6c8f2eece985d8e374c,65d2b94070519faf7d3f00dc,0.0278,0.0278,1,24,186,53,1,threefour,,,,,,,,,,,,,,,,,,,,,,,,,,,,,,,,,,,,,,,,,,,,,,,,,,,,,,,,,,,,,,,,,,,,,,,,,,,,,,,,,,,,,,,,,,,,,,,,,,,,,,,,,,,,,,,,,,,,,,,,,,,,,,,,,,,,,,,,,
,,60597f277921839bebfd40ec,2024-02-19_02h13.43.363,kallum_motion_pilot,2023.2.2,Win32,60.60606061,60597f277921839bebfd40ec,65d2b6c8f2eece985d8e374c,65d2b94070519faf7d3f00dc,0.0279,0.0279,1,25,187,154,1,sixfive,,,,,,,,,,,,,,,,,,,,,,,,,,,,,,,,,,,,,,,,,,,,,,,,,,,,,,,,,,,,,,,,,,,,,,,,,,,,,,,,,,,,,,,,,,,,,,,,,,,,,,,,,,,,,,,,,,,,,,,,,,,,,,,,,,,,,,,,,
,,60597f277921839bebfd40ec,2024-02-19_02h13.43.363,kallum_motion_pilot,2023.2.2,Win32,60.60606061,60597f277921839bebfd40ec,65d2b6c8f2eece985d8e374c,65d2b94070519faf7d3f00dc,0.0279,0.028,1,26,188,126,1,eightsix,,,,,,,,,,,,,,,,,,,,,,,,,,,,,,,,,,,,,,,,,,,,,,,,,,,,,,,,,,,,,,,,,,,,,,,,,,,,,,,,,,,,,,,,,,,,,,,,,,,,,,,,,,,,,,,,,,,,,,,,,,,,,,,,,,,,,,,,,
,,60597f277921839bebfd40ec,2024-02-19_02h13.43.363,kallum_motion_pilot,2023.2.2,Win32,60.60606061,60597f277921839bebfd40ec,65d2b6c8f2eece985d8e374c,65d2b94070519faf7d3f00dc,0.028,0.0281,1,27,189,145,1,fiveseven,,,,,,,,,,,,,,,,,,,,,,,,,,,,,,,,,,,,,,,,,,,,,,,,,,,,,,,,,,,,,,,,,,,,,,,,,,,,,,,,,,,,,,,,,,,,,,,,,,,,,,,,,,,,,,,,,,,,,,,,,,,,,,,,,,,,,,,,,
,,60597f277921839bebfd40ec,2024-02-19_02h13.43.363,kallum_motion_pilot,2023.2.2,Win32,60.60606061,60597f277921839bebfd40ec,65d2b6c8f2eece985d8e374c,65d2b94070519faf7d3f00dc,0.0281,0.0281,1,28,190,129,1,fiveseven,,,,,,,,,,,,,,,,,,,,,,,,,,,,,,,,,,,,,,,,,,,,,,,,,,,,,,,,,,,,,,,,,,,,,,,,,,,,,,,,,,,,,,,,,,,,,,,,,,,,,,,,,,,,,,,,,,,,,,,,,,,,,,,,,,,,,,,,,
,,60597f277921839bebfd40ec,2024-02-19_02h13.43.363,kallum_motion_pilot,2023.2.2,Win32,60.60606061,60597f277921839bebfd40ec,65d2b6c8f2eece985d8e374c,65d2b94070519faf7d3f00dc,0.0281,0.0281,1,29,191,7,1,fourthree,,,,,,,,,,,,,,,,,,,,,,,,,,,,,,,,,,,,,,,,,,,,,,,,,,,,,,,,,,,,,,,,,,,,,,,,,,,,,,,,,,,,,,,,,,,,,,,,,,,,,,,,,,,,,,,,,,,,,,,,,,,,,,,,,,,,,,,,,
,,60597f277921839bebfd40ec,2024-02-19_02h13.43.363,kallum_motion_pilot,2023.2.2,Win32,60.60606061,60597f277921839bebfd40ec,65d2b6c8f2eece985d8e374c,65d2b94070519faf7d3f00dc,0.0283,0.0283,1,30,192,90,1,sixfive,,,,,,,,,,,,,,,,,,,,,,,,,,,,,,,,,,,,,,,,,,,,,,,,,,,,,,,,,,,,,,,,,,,,,,,,,,,,,,,,,,,,,,,,,,,,,,,,,,,,,,,,,,,,,,,,,,,,,,,,,,,,,,,,,,,,,,,,,
,,60597f277921839bebfd40ec,2024-02-19_02h13.43.363,kallum_motion_pilot,2023.2.2,Win32,60.60606061,60597f277921839bebfd40ec,65d2b6c8f2eece985d8e374c,65d2b94070519faf7d3f00dc,0.0283,0.0283,1,31,193,89,1,fiveseven,,,,,,,,,,,,,,,,,,,,,,,,,,,,,,,,,,,,,,,,,,,,,,,,,,,,,,,,,,,,,,,,,,,,,,,,,,,,,,,,,,,,,,,,,,,,,,,,,,,,,,,,,,,,,,,,,,,,,,,,,,,,,,,,,,,,,,,,,
,,60597f277921839bebfd40ec,2024-02-19_02h13.43.363,kallum_motion_pilot,2023.2.2,Win32,60.60606061,60597f277921839bebfd40ec,65d2b6c8f2eece985d8e374c,65d2b94070519faf7d3f00dc,0.0284,0.0284,1,32,194,48,1,onetwo,,,,,,,,,,,,,,,,,,,,,,,,,,,,,,,,,,,,,,,,,,,,,,,,,,,,,,,,,,,,,,,,,,,,,,,,,,,,,,,,,,,,,,,,,,,,,,,,,,,,,,,,,,,,,,,,,,,,,,,,,,,,,,,,,,,,,,,,,
,,60597f277921839bebfd40ec,2024-02-19_02h13.43.363,kallum_motion_pilot,2023.2.2,Win32,60.60606061,60597f277921839bebfd40ec,65d2b6c8f2eece985d8e374c,65d2b94070519faf7d3f00dc,0.0284,0.0284,1,33,195,113,1,fiveseven,,,,,,,,,,,,,,,,,,,,,,,,,,,,,,,,,,,,,,,,,,,,,,,,,,,,,,,,,,,,,,,,,,,,,,,,,,,,,,,,,,,,,,,,,,,,,,,,,,,,,,,,,,,,,,,,,,,,,,,,,,,,,,,,,,,,,,,,,
,,60597f277921839bebfd40ec,2024-02-19_02h13.43.363,kallum_motion_pilot,2023.2.2,Win32,60.60606061,60597f277921839bebfd40ec,65d2b6c8f2eece985d8e374c,65d2b94070519faf7d3f00dc,0.0285,0.0286,1,34,196,144,1,fivesix,,,,,,,,,,,,,,,,,,,,,,,,,,,,,,,,,,,,,,,,,,,,,,,,,,,,,,,,,,,,,,,,,,,,,,,,,,,,,,,,,,,,,,,,,,,,,,,,,,,,,,,,,,,,,,,,,,,,,,,,,,,,,,,,,,,,,,,,,
,,60597f277921839bebfd40ec,2024-02-19_02h13.43.363,kallum_motion_pilot,2023.2.2,Win32,60.60606061,60597f277921839bebfd40ec,65d2b6c8f2eece985d8e374c,65d2b94070519faf7d3f00dc,0.0286,0.0287,1,35,197,96,1,fivesix,,,,,,,,,,,,,,,,,,,,,,,,,,,,,,,,,,,,,,,,,,,,,,,,,,,,,,,,,,,,,,,,,,,,,,,,,,,,,,,,,,,,,,,,,,,,,,,,,,,,,,,,,,,,,,,,,,,,,,,,,,,,,,,,,,,,,,,,,
,,60597f277921839bebfd40ec,2024-02-19_02h13.43.363,kallum_motion_pilot,2023.2.2,Win32,60.60606061,60597f277921839bebfd40ec,65d2b6c8f2eece985d8e374c,65d2b94070519faf7d3f00dc,0.0287,0.0288,1,36,198,31,1,fourthree,,,,,,,,,,,,,,,,,,,,,,,,,,,,,,,,,,,,,,,,,,,,,,,,,,,,,,,,,,,,,,,,,,,,,,,,,,,,,,,,,,,,,,,,,,,,,,,,,,,,,,,,,,,,,,,,,,,,,,,,,,,,,,,,,,,,,,,,,
,,60597f277921839bebfd40ec,2024-02-19_02h13.43.363,kallum_motion_pilot,2023.2.2,Win32,60.60606061,60597f277921839bebfd40ec,65d2b6c8f2eece985d8e374c,65d2b94070519faf7d3f00dc,0.0288,0.0288,1,37,199,120,1,fivesix,,,,,,,,,,,,,,,,,,,,,,,,,,,,,,,,,,,,,,,,,,,,,,,,,,,,,,,,,,,,,,,,,,,,,,,,,,,,,,,,,,,,,,,,,,,,,,,,,,,,,,,,,,,,,,,,,,,,,,,,,,,,,,,,,,,,,,,,,
,,60597f277921839bebfd40ec,2024-02-19_02h13.43.363,kallum_motion_pilot,2023.2.2,Win32,60.60606061,60597f277921839bebfd40ec,65d2b6c8f2eece985d8e374c,65d2b94070519faf7d3f00dc,0.0288,0.0289,1,38,200,32,1,onetwo,,,,,,,,,,,,,,,,,,,,,,,,,,,,,,,,,,,,,,,,,,,,,,,,,,,,,,,,,,,,,,,,,,,,,,,,,,,,,,,,,,,,,,,,,,,,,,,,,,,,,,,,,,,,,,,,,,,,,,,,,,,,,,,,,,,,,,,,,
,,60597f277921839bebfd40ec,2024-02-19_02h13.43.363,kallum_motion_pilot,2023.2.2,Win32,60.60606061,60597f277921839bebfd40ec,65d2b6c8f2eece985d8e374c,65d2b94070519faf7d3f00dc,0.0289,0.0289,1,39,201,47,1,fourthree,,,,,,,,,,,,,,,,,,,,,,,,,,,,,,,,,,,,,,,,,,,,,,,,,,,,,,,,,,,,,,,,,,,,,,,,,,,,,,,,,,,,,,,,,,,,,,,,,,,,,,,,,,,,,,,,,,,,,,,,,,,,,,,,,,,,,,,,,
,,60597f277921839bebfd40ec,2024-02-19_02h13.43.363,kallum_motion_pilot,2023.2.2,Win32,60.60606061,60597f277921839bebfd40ec,65d2b6c8f2eece985d8e374c,65d2b94070519faf7d3f00dc,0.029,0.029,1,40,202,34,1,twoone,,,,,,,,,,,,,,,,,,,,,,,,,,,,,,,,,,,,,,,,,,,,,,,,,,,,,,,,,,,,,,,,,,,,,,,,,,,,,,,,,,,,,,,,,,,,,,,,,,,,,,,,,,,,,,,,,,,,,,,,,,,,,,,,,,,,,,,,,
,,60597f277921839bebfd40ec,2024-02-19_02h13.43.363,kallum_motion_pilot,2023.2.2,Win32,60.60606061,60597f277921839bebfd40ec,65d2b6c8f2eece985d8e374c,65d2b94070519faf7d3f00dc,0.0291,0.0291,1,41,203,16,1,onetwo,,,,,,,,,,,,,,,,,,,,,,,,,,,,,,,,,,,,,,,,,,,,,,,,,,,,,,,,,,,,,,,,,,,,,,,,,,,,,,,,,,,,,,,,,,,,,,,,,,,,,,,,,,,,,,,,,,,,,,,,,,,,,,,,,,,,,,,,,
,,60597f277921839bebfd40ec,2024-02-19_02h13.43.363,kallum_motion_pilot,2023.2.2,Win32,60.60606061,60597f277921839bebfd40ec,65d2b6c8f2eece985d8e374c,65d2b94070519faf7d3f00dc,0.0291,0.0292,1,42,204,68,1,threeone,,,,,,,,,,,,,,,,,,,,,,,,,,,,,,,,,,,,,,,,,,,,,,,,,,,,,,,,,,,,,,,,,,,,,,,,,,,,,,,,,,,,,,,,,,,,,,,,,,,,,,,,,,,,,,,,,,,,,,,,,,,,,,,,,,,,,,,,,
,,60597f277921839bebfd40ec,2024-02-19_02h13.43.363,kallum_motion_pilot,2023.2.2,Win32,60.60606061,60597f277921839bebfd40ec,65d2b6c8f2eece985d8e374c,65d2b94070519faf7d3f00dc,0.0293,0.0293,1,43,205,4,1,threeone,,,,,,,,,,,,,,,,,,,,,,,,,,,,,,,,,,,,,,,,,,,,,,,,,,,,,,,,,,,,,,,,,,,,,,,,,,,,,,,,,,,,,,,,,,,,,,,,,,,,,,,,,,,,,,,,,,,,,,,,,,,,,,,,,,,,,,,,,
,,60597f277921839bebfd40ec,2024-02-19_02h13.43.363,kallum_motion_pilot,2023.2.2,Win32,60.60606061,60597f277921839bebfd40ec,65d2b6c8f2eece985d8e374c,65d2b94070519faf7d3f00dc,0.0293,0.0294,1,44,206,38,1,fourtwo,,,,,,,,,,,,,,,,,,,,,,,,,,,,,,,,,,,,,,,,,,,,,,,,,,,,,,,,,,,,,,,,,,,,,,,,,,,,,,,,,,,,,,,,,,,,,,,,,,,,,,,,,,,,,,,,,,,,,,,,,,,,,,,,,,,,,,,,,
,,60597f277921839bebfd40ec,2024-02-19_02h13.43.363,kallum_motion_pilot,2023.2.2,Win32,60.60606061,60597f277921839bebfd40ec,65d2b6c8f2eece985d8e374c,65d2b94070519faf7d3f00dc,0.0295,0.0295,1,45,207,88,1,fivesix,,,,,,,,,,,,,,,,,,,,,,,,,,,,,,,,,,,,,,,,,,,,,,,,,,,,,,,,,,,,,,,,,,,,,,,,,,,,,,,,,,,,,,,,,,,,,,,,,,,,,,,,,,,,,,,,,,,,,,,,,,,,,,,,,,,,,,,,,
,,60597f277921839bebfd40ec,2024-02-19_02h13.43.363,kallum_motion_pilot,2023.2.2,Win32,60.60606061,60597f277921839bebfd40ec,65d2b6c8f2eece985d8e374c,65d2b94070519faf7d3f00dc,0.0295,0.0295,1,46,208,46,1,fourtwo,,,,,,,,,,,,,,,,,,,,,,,,,,,,,,,,,,,,,,,,,,,,,,,,,,,,,,,,,,,,,,,,,,,,,,,,,,,,,,,,,,,,,,,,,,,,,,,,,,,,,,,,,,,,,,,,,,,,,,,,,,,,,,,,,,,,,,,,,
,,60597f277921839bebfd40ec,2024-02-19_02h13.43.363,kallum_motion_pilot,2023.2.2,Win32,60.60606061,60597f277921839bebfd40ec,65d2b6c8f2eece985d8e374c,65d2b94070519faf7d3f00dc,0.0296,0.0296,1,47,209,156,1,sevenfive,,,,,,,,,,,,,,,,,,,,,,,,,,,,,,,,,,,,,,,,,,,,,,,,,,,,,,,,,,,,,,,,,,,,,,,,,,,,,,,,,,,,,,,,,,,,,,,,,,,,,,,,,,,,,,,,,,,,,,,,,,,,,,,,,,,,,,,,,
,,60597f277921839bebfd40ec,2024-02-19_02h13.43.363,kallum_motion_pilot,2023.2.2,Win32,60.60606061,60597f277921839bebfd40ec,65d2b6c8f2eece985d8e374c,65d2b94070519faf7d3f00dc,0.0296,0.0297,1,48,210,147,1,sixeight,,,,,,,,,,,,,,,,,,,,,,,,,,,,,,,,,,,,,,,,,,,,,,,,,,,,,,,,,,,,,,,,,,,,,,,,,,,,,,,,,,,,,,,,,,,,,,,,,,,,,,,,,,,,,,,,,,,,,,,,,,,,,,,,,,,,,,,,,
,,60597f277921839bebfd40ec,2024-02-19_02h13.43.363,kallum_motion_pilot,2023.2.2,Win32,60.60606061,60597f277921839bebfd40ec,65d2b6c8f2eece985d8e374c,65d2b94070519faf7d3f00dc,0.0298,0.0298,1,49,211,142,1,eightsix,,,,,,,,,,,,,,,,,,,,,,,,,,,,,,,,,,,,,,,,,,,,,,,,,,,,,,,,,,,,,,,,,,,,,,,,,,,,,,,,,,,,,,,,,,,,,,,,,,,,,,,,,,,,,,,,,,,,,,,,,,,,,,,,,,,,,,,,,
,,60597f277921839bebfd40ec,2024-02-19_02h13.43.363,kallum_motion_pilot,2023.2.2,Win32,60.60606061,60597f277921839bebfd40ec,65d2b6c8f2eece985d8e374c,65d2b94070519faf7d3f00dc,0.0298,0.0298,1,50,212,143,1,eightseven,,,,,,,,,,,,,,,,,,,,,,,,,,,,,,,,,,,,,,,,,,,,,,,,,,,,,,,,,,,,,,,,,,,,,,,,,,,,,,,,,,,,,,,,,,,,,,,,,,,,,,,,,,,,,,,,,,,,,,,,,,,,,,,,,,,,,,,,,
,,60597f277921839bebfd40ec,2024-02-19_02h13.43.363,kallum_motion_pilot,2023.2.2,Win32,60.60606061,60597f277921839bebfd40ec,65d2b6c8f2eece985d8e374c,65d2b94070519faf7d3f00dc,0.0299,0.03,1,51,213,71,1,fourthree,,,,,,,,,,,,,,,,,,,,,,,,,,,,,,,,,,,,,,,,,,,,,,,,,,,,,,,,,,,,,,,,,,,,,,,,,,,,,,,,,,,,,,,,,,,,,,,,,,,,,,,,,,,,,,,,,,,,,,,,,,,,,,,,,,,,,,,,,
,,60597f277921839bebfd40ec,2024-02-19_02h13.43.363,kallum_motion_pilot,2023.2.2,Win32,60.60606061,60597f277921839bebfd40ec,65d2b6c8f2eece985d8e374c,65d2b94070519faf7d3f00dc,0.03,0.0301,1,52,214,146,1,sixfive,,,,,,,,,,,,,,,,,,,,,,,,,,,,,,,,,,,,,,,,,,,,,,,,,,,,,,,,,,,,,,,,,,,,,,,,,,,,,,,,,,,,,,,,,,,,,,,,,,,,,,,,,,,,,,,,,,,,,,,,,,,,,,,,,,,,,,,,,
,,60597f277921839bebfd40ec,2024-02-19_02h13.43.363,kallum_motion_pilot,2023.2.2,Win32,60.60606061,60597f277921839bebfd40ec,65d2b6c8f2eece985d8e374c,65d2b94070519faf7d3f00dc,0.0301,0.0301,1,53,215,51,1,twofour,,,,,,,,,,,,,,,,,,,,,,,,,,,,,,,,,,,,,,,,,,,,,,,,,,,,,,,,,,,,,,,,,,,,,,,,,,,,,,,,,,,,,,,,,,,,,,,,,,,,,,,,,,,,,,,,,,,,,,,,,,,,,,,,,,,,,,,,,
,,60597f277921839bebfd40ec,2024-02-19_02h13.43.363,kallum_motion_pilot,2023.2.2,Win32,60.60606061,60597f277921839bebfd40ec,65d2b6c8f2eece985d8e374c,65d2b94070519faf7d3f00dc,0.0301,0.0302,1,54,216,137,1,fiveseven,,,,,,,,,,,,,,,,,,,,,,,,,,,,,,,,,,,,,,,,,,,,,,,,,,,,,,,,,,,,,,,,,,,,,,,,,,,,,,,,,,,,,,,,,,,,,,,,,,,,,,,,,,,,,,,,,,,,,,,,,,,,,,,,,,,,,,,,,
,,60597f277921839bebfd40ec,2024-02-19_02h13.43.363,kallum_motion_pilot,2023.2.2,Win32,60.60606061,60597f277921839bebfd40ec,65d2b6c8f2eece985d8e374c,65d2b94070519faf7d3f00dc,0.0302,0.0303,1,55,217,49,1,onethree,,,,,,,,,,,,,,,,,,,,,,,,,,,,,,,,,,,,,,,,,,,,,,,,,,,,,,,,,,,,,,,,,,,,,,,,,,,,,,,,,,,,,,,,,,,,,,,,,,,,,,,,,,,,,,,,,,,,,,,,,,,,,,,,,,,,,,,,,
,,60597f277921839bebfd40ec,2024-02-19_02h13.43.363,kallum_motion_pilot,2023.2.2,Win32,60.60606061,60597f277921839bebfd40ec,65d2b6c8f2eece985d8e374c,65d2b94070519faf7d3f00dc,0.0303,0.0304,1,56,218,70,1,fourtwo,,,,,,,,,,,,,,,,,,,,,,,,,,,,,,,,,,,,,,,,,,,,,,,,,,,,,,,,,,,,,,,,,,,,,,,,,,,,,,,,,,,,,,,,,,,,,,,,,,,,,,,,,,,,,,,,,,,,,,,,,,,,,,,,,,,,,,,,,
,,60597f277921839bebfd40ec,2024-02-19_02h13.43.363,kallum_motion_pilot,2023.2.2,Win32,60.60606061,60597f277921839bebfd40ec,65d2b6c8f2eece985d8e374c,65d2b94070519faf7d3f00dc,0.0304,0.0305,1,57,219,74,1,twoone,,,,,,,,,,,,,,,,,,,,,,,,,,,,,,,,,,,,,,,,,,,,,,,,,,,,,,,,,,,,,,,,,,,,,,,,,,,,,,,,,,,,,,,,,,,,,,,,,,,,,,,,,,,,,,,,,,,,,,,,,,,,,,,,,,,,,,,,,
,,60597f277921839bebfd40ec,2024-02-19_02h13.43.363,kallum_motion_pilot,2023.2.2,Win32,60.60606061,60597f277921839bebfd40ec,65d2b6c8f2eece985d8e374c,65d2b94070519faf7d3f00dc,0.0305,0.0305,1,58,220,161,1,fiveseven,,,,,,,,,,,,,,,,,,,,,,,,,,,,,,,,,,,,,,,,,,,,,,,,,,,,,,,,,,,,,,,,,,,,,,,,,,,,,,,,,,,,,,,,,,,,,,,,,,,,,,,,,,,,,,,,,,,,,,,,,,,,,,,,,,,,,,,,,
,,60597f277921839bebfd40ec,2024-02-19_02h13.43.363,kallum_motion_pilot,2023.2.2,Win32,60.60606061,60597f277921839bebfd40ec,65d2b6c8f2eece985d8e374c,65d2b94070519faf7d3f00dc,0.0305,0.0306,1,59,221,133,1,seveneight,,,,,,,,,,,,,,,,,,,,,,,,,,,,,,,,,,,,,,,,,,,,,,,,,,,,,,,,,,,,,,,,,,,,,,,,,,,,,,,,,,,,,,,,,,,,,,,,,,,,,,,,,,,,,,,,,,,,,,,,,,,,,,,,,,,,,,,,,
,,60597f277921839bebfd40ec,2024-02-19_02h13.43.363,kallum_motion_pilot,2023.2.2,Win32,60.60606061,60597f277921839bebfd40ec,65d2b6c8f2eece985d8e374c,65d2b94070519faf7d3f00dc,0.0307,0.0307,1,60,222,63,1,fourthree,,,,,,,,,,,,,,,,,,,,,,,,,,,,,,,,,,,,,,,,,,,,,,,,,,,,,,,,,,,,,,,,,,,,,,,,,,,,,,,,,,,,,,,,,,,,,,,,,,,,,,,,,,,,,,,,,,,,,,,,,,,,,,,,,,,,,,,,,
,,60597f277921839bebfd40ec,2024-02-19_02h13.43.363,kallum_motion_pilot,2023.2.2,Win32,60.60606061,60597f277921839bebfd40ec,65d2b6c8f2eece985d8e374c,65d2b94070519faf7d3f00dc,0.0308,0.0308,1,61,223,2,1,twoone,,,,,,,,,,,,,,,,,,,,,,,,,,,,,,,,,,,,,,,,,,,,,,,,,,,,,,,,,,,,,,,,,,,,,,,,,,,,,,,,,,,,,,,,,,,,,,,,,,,,,,,,,,,,,,,,,,,,,,,,,,,,,,,,,,,,,,,,,
,,60597f277921839bebfd40ec,2024-02-19_02h13.43.363,kallum_motion_pilot,2023.2.2,Win32,60.60606061,60597f277921839bebfd40ec,65d2b6c8f2eece985d8e374c,65d2b94070519faf7d3f00dc,0.0308,0.0308,1,62,224,158,1,eightsix,,,,,,,,,,,,,,,,,,,,,,,,,,,,,,,,,,,,,,,,,,,,,,,,,,,,,,,,,,,,,,,,,,,,,,,,,,,,,,,,,,,,,,,,,,,,,,,,,,,,,,,,,,,,,,,,,,,,,,,,,,,,,,,,,,,,,,,,,
,,60597f277921839bebfd40ec,2024-02-19_02h13.43.363,kallum_motion_pilot,2023.2.2,Win32,60.60606061,60597f277921839bebfd40ec,65d2b6c8f2eece985d8e374c,65d2b94070519faf7d3f00dc,0.0309,0.0309,1,63,225,21,1,threefour,,,,,,,,,,,,,,,,,,,,,,,,,,,,,,,,,,,,,,,,,,,,,,,,,,,,,,,,,,,,,,,,,,,,,,,,,,,,,,,,,,,,,,,,,,,,,,,,,,,,,,,,,,,,,,,,,,,,,,,,,,,,,,,,,,,,,,,,,
,,60597f277921839bebfd40ec,2024-02-19_02h13.43.363,kallum_motion_pilot,2023.2.2,Win32,60.60606061,60597f277921839bebfd40ec,65d2b6c8f2eece985d8e374c,65d2b94070519faf7d3f00dc,0.031,0.031,1,64,226,130,1,sixfive,,,,,,,,,,,,,,,,,,,,,,,,,,,,,,,,,,,,,,,,,,,,,,,,,,,,,,,,,,,,,,,,,,,,,,,,,,,,,,,,,,,,,,,,,,,,,,,,,,,,,,,,,,,,,,,,,,,,,,,,,,,,,,,,,,,,,,,,,
,,60597f277921839bebfd40ec,2024-02-19_02h13.43.363,kallum_motion_pilot,2023.2.2,Win32,60.60606061,60597f277921839bebfd40ec,65d2b6c8f2eece985d8e374c,65d2b94070519faf7d3f00dc,0.0311,0.0311,1,65,227,26,1,twoone,,,,,,,,,,,,,,,,,,,,,,,,,,,,,,,,,,,,,,,,,,,,,,,,,,,,,,,,,,,,,,,,,,,,,,,,,,,,,,,,,,,,,,,,,,,,,,,,,,,,,,,,,,,,,,,,,,,,,,,,,,,,,,,,,,,,,,,,,
,,60597f277921839bebfd40ec,2024-02-19_02h13.43.363,kallum_motion_pilot,2023.2.2,Win32,60.60606061,60597f277921839bebfd40ec,65d2b6c8f2eece985d8e374c,65d2b94070519faf7d3f00dc,0.0312,0.0312,1,66,228,0,1,onetwo,,,,,,,,,,,,,,,,,,,,,,,,,,,,,,,,,,,,,,,,,,,,,,,,,,,,,,,,,,,,,,,,,,,,,,,,,,,,,,,,,,,,,,,,,,,,,,,,,,,,,,,,,,,,,,,,,,,,,,,,,,,,,,,,,,,,,,,,,
,,60597f277921839bebfd40ec,2024-02-19_02h13.43.363,kallum_motion_pilot,2023.2.2,Win32,60.60606061,60597f277921839bebfd40ec,65d2b6c8f2eece985d8e374c,65d2b94070519faf7d3f00dc,0.0312,0.0313,1,67,229,84,1,sevenfive,,,,,,,,,,,,,,,,,,,,,,,,,,,,,,,,,,,,,,,,,,,,,,,,,,,,,,,,,,,,,,,,,,,,,,,,,,,,,,,,,,,,,,,,,,,,,,,,,,,,,,,,,,,,,,,,,,,,,,,,,,,,,,,,,,,,,,,,,
,,60597f277921839bebfd40ec,2024-02-19_02h13.43.363,kallum_motion_pilot,2023.2.2,Win32,60.60606061,60597f277921839bebfd40ec,65d2b6c8f2eece985d8e374c,65d2b94070519faf7d3f00dc,0.0313,0.0314,1,68,230,73,1,onethree,,,,,,,,,,,,,,,,,,,,,,,,,,,,,,,,,,,,,,,,,,,,,,,,,,,,,,,,,,,,,,,,,,,,,,,,,,,,,,,,,,,,,,,,,,,,,,,,,,,,,,,,,,,,,,,,,,,,,,,,,,,,,,,,,,,,,,,,,
,,60597f277921839bebfd40ec,2024-02-19_02h13.43.363,kallum_motion_pilot,2023.2.2,Win32,60.60606061,60597f277921839bebfd40ec,65d2b6c8f2eece985d8e374c,65d2b94070519faf7d3f00dc,0.0314,0.0314,1,69,231,118,1,eightsix,,,,,,,,,,,,,,,,,,,,,,,,,,,,,,,,,,,,,,,,,,,,,,,,,,,,,,,,,,,,,,,,,,,,,,,,,,,,,,,,,,,,,,,,,,,,,,,,,,,,,,,,,,,,,,,,,,,,,,,,,,,,,,,,,,,,,,,,,
,,60597f277921839bebfd40ec,2024-02-19_02h13.43.363,kallum_motion_pilot,2023.2.2,Win32,60.60606061,60597f277921839bebfd40ec,65d2b6c8f2eece985d8e374c,65d2b94070519faf7d3f00dc,0.0315,0.0315,1,70,232,99,1,sixeight,,,,,,,,,,,,,,,,,,,,,,,,,,,,,,,,,,,,,,,,,,,,,,,,,,,,,,,,,,,,,,,,,,,,,,,,,,,,,,,,,,,,,,,,,,,,,,,,,,,,,,,,,,,,,,,,,,,,,,,,,,,,,,,,,,,,,,,,,
,,60597f277921839bebfd40ec,2024-02-19_02h13.43.363,kallum_motion_pilot,2023.2.2,Win32,60.60606061,60597f277921839bebfd40ec,65d2b6c8f2eece985d8e374c,65d2b94070519faf7d3f00dc,0.0315,0.0315,1,71,233,85,1,seveneight,,,,,,,,,,,,,,,,,,,,,,,,,,,,,,,,,,,,,,,,,,,,,,,,,,,,,,,,,,,,,,,,,,,,,,,,,,,,,,,,,,,,,,,,,,,,,,,,,,,,,,,,,,,,,,,,,,,,,,,,,,,,,,,,,,,,,,,,,
,,60597f277921839bebfd40ec,2024-02-19_02h13.43.363,kallum_motion_pilot,2023.2.2,Win32,60.60606061,60597f277921839bebfd40ec,65d2b6c8f2eece985d8e374c,65d2b94070519faf7d3f00dc,0.0316,0.0316,1,72,234,79,1,eightseven,,,,,,,,,,,,,,,,,,,,,,,,,,,,,,,,,,,,,,,,,,,,,,,,,,,,,,,,,,,,,,,,,,,,,,,,,,,,,,,,,,,,,,,,,,,,,,,,,,,,,,,,,,,,,,,,,,,,,,,,,,,,,,,,,,,,,,,,,
,,60597f277921839bebfd40ec,2024-02-19_02h13.43.363,kallum_motion_pilot,2023.2.2,Win32,60.60606061,60597f277921839bebfd40ec,65d2b6c8f2eece985d8e374c,65d2b94070519faf7d3f00dc,0.0317,0.0317,1,73,235,152,1,fivesix,,,,,,,,,,,,,,,,,,,,,,,,,,,,,,,,,,,,,,,,,,,,,,,,,,,,,,,,,,,,,,,,,,,,,,,,,,,,,,,,,,,,,,,,,,,,,,,,,,,,,,,,,,,,,,,,,,,,,,,,,,,,,,,,,,,,,,,,,
,,60597f277921839bebfd40ec,2024-02-19_02h13.43.363,kallum_motion_pilot,2023.2.2,Win32,60.60606061,60597f277921839bebfd40ec,65d2b6c8f2eece985d8e374c,65d2b94070519faf7d3f00dc,0.0317,0.0318,1,74,236,92,1,sevenfive,,,,,,,,,,,,,,,,,,,,,,,,,,,,,,,,,,,,,,,,,,,,,,,,,,,,,,,,,,,,,,,,,,,,,,,,,,,,,,,,,,,,,,,,,,,,,,,,,,,,,,,,,,,,,,,,,,,,,,,,,,,,,,,,,,,,,,,,,
,,60597f277921839bebfd40ec,2024-02-19_02h13.43.363,kallum_motion_pilot,2023.2.2,Win32,60.60606061,60597f277921839bebfd40ec,65d2b6c8f2eece985d8e374c,65d2b94070519faf7d3f00dc,0.0319,0.0319,1,75,237,14,1,fourtwo,,,,,,,,,,,,,,,,,,,,,,,,,,,,,,,,,,,,,,,,,,,,,,,,,,,,,,,,,,,,,,,,,,,,,,,,,,,,,,,,,,,,,,,,,,,,,,,,,,,,,,,,,,,,,,,,,,,,,,,,,,,,,,,,,,,,,,,,,
,,60597f277921839bebfd40ec,2024-02-19_02h13.43.363,kallum_motion_pilot,2023.2.2,Win32,60.60606061,60597f277921839bebfd40ec,65d2b6c8f2eece985d8e374c,65d2b94070519faf7d3f00dc,0.0319,0.032,1,76,238,41,1,onethree,,,,,,,,,,,,,,,,,,,,,,,,,,,,,,,,,,,,,,,,,,,,,,,,,,,,,,,,,,,,,,,,,,,,,,,,,,,,,,,,,,,,,,,,,,,,,,,,,,,,,,,,,,,,,,,,,,,,,,,,,,,,,,,,,,,,,,,,,
,,60597f277921839bebfd40ec,2024-02-19_02h13.43.363,kallum_motion_pilot,2023.2.2,Win32,60.60606061,60597f277921839bebfd40ec,65d2b6c8f2eece985d8e374c,65d2b94070519faf7d3f00dc,0.032,0.0321,1,77,239,58,1,twoone,,,,,,,,,,,,,,,,,,,,,,,,,,,,,,,,,,,,,,,,,,,,,,,,,,,,,,,,,,,,,,,,,,,,,,,,,,,,,,,,,,,,,,,,,,,,,,,,,,,,,,,,,,,,,,,,,,,,,,,,,,,,,,,,,,,,,,,,,
,,60597f277921839bebfd40ec,2024-02-19_02h13.43.363,kallum_motion_pilot,2023.2.2,Win32,60.60606061,60597f277921839bebfd40ec,65d2b6c8f2eece985d8e374c,65d2b94070519faf7d3f00dc,0.0321,0.0322,1,78,240,117,1,seveneight,,,,,,,,,,,,,,,,,,,,,,,,,,,,,,,,,,,,,,,,,,,,,,,,,,,,,,,,,,,,,,,,,,,,,,,,,,,,,,,,,,,,,,,,,,,,,,,,,,,,,,,,,,,,,,,,,,,,,,,,,,,,,,,,,,,,,,,,,
,,60597f277921839bebfd40ec,2024-02-19_02h13.43.363,kallum_motion_pilot,2023.2.2,Win32,60.60606061,60597f277921839bebfd40ec,65d2b6c8f2eece985d8e374c,65d2b94070519faf7d3f00dc,0.0322,0.0322,1,79,241,155,1,sixeight,,,,,,,,,,,,,,,,,,,,,,,,,,,,,,,,,,,,,,,,,,,,,,,,,,,,,,,,,,,,,,,,,,,,,,,,,,,,,,,,,,,,,,,,,,,,,,,,,,,,,,,,,,,,,,,,,,,,,,,,,,,,,,,,,,,,,,,,,
,,60597f277921839bebfd40ec,2024-02-19_02h13.43.363,kallum_motion_pilot,2023.2.2,Win32,60.60606061,60597f277921839bebfd40ec,65d2b6c8f2eece985d8e374c,65d2b94070519faf7d3f00dc,0.0323,0.0323,1,80,242,121,1,fiveseven,,,,,,,,,,,,,,,,,,,,,,,,,,,,,,,,,,,,,,,,,,,,,,,,,,,,,,,,,,,,,,,,,,,,,,,,,,,,,,,,,,,,,,,,,,,,,,,,,,,,,,,,,,,,,,,,,,,,,,,,,,,,,,,,,,,,,,,,,
,,60597f277921839bebfd40ec,2024-02-19_02h13.43.363,kallum_motion_pilot,2023.2.2,Win32,60.60606061,60597f277921839bebfd40ec,65d2b6c8f2eece985d8e374c,65d2b94070519faf7d3f00dc,0.0323,0.0324,1,81,243,42,1,twoone,,,,,,,,,,,,,,,,,,,,,,,,,,,,,,,,,,,,,,,,,,,,,,,,,,,,,,,,,,,,,,,,,,,,,,,,,,,,,,,,,,,,,,,,,,,,,,,,,,,,,,,,,,,,,,,,,,,,,,,,,,,,,,,,,,,,,,,,,
,,60597f277921839bebfd40ec,2024-02-19_02h13.43.363,kallum_motion_pilot,2023.2.2,Win32,60.60606061,60597f277921839bebfd40ec,65d2b6c8f2eece985d8e374c,65d2b94070519faf7d3f00dc,0.0324,0.0325,1,82,244,78,1,fourtwo,,,,,,,,,,,,,,,,,,,,,,,,,,,,,,,,,,,,,,,,,,,,,,,,,,,,,,,,,,,,,,,,,,,,,,,,,,,,,,,,,,,,,,,,,,,,,,,,,,,,,,,,,,,,,,,,,,,,,,,,,,,,,,,,,,,,,,,,,
,,60597f277921839bebfd40ec,2024-02-19_02h13.43.363,kallum_motion_pilot,2023.2.2,Win32,60.60606061,60597f277921839bebfd40ec,65d2b6c8f2eece985d8e374c,65d2b94070519faf7d3f00dc,0.0325,0.0325,1,83,245,66,1,twoone,,,,,,,,,,,,,,,,,,,,,,,,,,,,,,,,,,,,,,,,,,,,,,,,,,,,,,,,,,,,,,,,,,,,,,,,,,,,,,,,,,,,,,,,,,,,,,,,,,,,,,,,,,,,,,,,,,,,,,,,,,,,,,,,,,,,,,,,,
,,60597f277921839bebfd40ec,2024-02-19_02h13.43.363,kallum_motion_pilot,2023.2.2,Win32,60.60606061,60597f277921839bebfd40ec,65d2b6c8f2eece985d8e374c,65d2b94070519faf7d3f00dc,0.0326,0.0326,1,84,246,101,1,seveneight,,,,,,,,,,,,,,,,,,,,,,,,,,,,,,,,,,,,,,,,,,,,,,,,,,,,,,,,,,,,,,,,,,,,,,,,,,,,,,,,,,,,,,,,,,,,,,,,,,,,,,,,,,,,,,,,,,,,,,,,,,,,,,,,,,,,,,,,,
,,60597f277921839bebfd40ec,2024-02-19_02h13.43.363,kallum_motion_pilot,2023.2.2,Win32,60.60606061,60597f277921839bebfd40ec,65d2b6c8f2eece985d8e374c,65d2b94070519faf7d3f00dc,0.0326,0.0328,1,85,247,157,1,seveneight,,,,,,,,,,,,,,,,,,,,,,,,,,,,,,,,,,,,,,,,,,,,,,,,,,,,,,,,,,,,,,,,,,,,,,,,,,,,,,,,,,,,,,,,,,,,,,,,,,,,,,,,,,,,,,,,,,,,,,,,,,,,,,,,,,,,,,,,,
,,60597f277921839bebfd40ec,2024-02-19_02h13.43.363,kallum_motion_pilot,2023.2.2,Win32,60.60606061,60597f277921839bebfd40ec,65d2b6c8f2eece985d8e374c,65d2b94070519faf7d3f00dc,0.0328,0.0328,1,86,248,102,1,eightsix,,,,,,,,,,,,,,,,,,,,,,,,,,,,,,,,,,,,,,,,,,,,,,,,,,,,,,,,,,,,,,,,,,,,,,,,,,,,,,,,,,,,,,,,,,,,,,,,,,,,,,,,,,,,,,,,,,,,,,,,,,,,,,,,,,,,,,,,,
,,60597f277921839bebfd40ec,2024-02-19_02h13.43.363,kallum_motion_pilot,2023.2.2,Win32,60.60606061,60597f277921839bebfd40ec,65d2b6c8f2eece985d8e374c,65d2b94070519faf7d3f00dc,0.0328,0.0329,1,87,249,98,1,sixfive,,,,,,,,,,,,,,,,,,,,,,,,,,,,,,,,,,,,,,,,,,,,,,,,,,,,,,,,,,,,,,,,,,,,,,,,,,,,,,,,,,,,,,,,,,,,,,,,,,,,,,,,,,,,,,,,,,,,,,,,,,,,,,,,,,,,,,,,,
,,60597f277921839bebfd40ec,2024-02-19_02h13.43.363,kallum_motion_pilot,2023.2.2,Win32,60.60606061,60597f277921839bebfd40ec,65d2b6c8f2eece985d8e374c,65d2b94070519faf7d3f00dc,0.0329,0.033,1,88,250,17,1,onethree,,,,,,,,,,,,,,,,,,,,,,,,,,,,,,,,,,,,,,,,,,,,,,,,,,,,,,,,,,,,,,,,,,,,,,,,,,,,,,,,,,,,,,,,,,,,,,,,,,,,,,,,,,,,,,,,,,,,,,,,,,,,,,,,,,,,,,,,,
,,60597f277921839bebfd40ec,2024-02-19_02h13.43.363,kallum_motion_pilot,2023.2.2,Win32,60.60606061,60597f277921839bebfd40ec,65d2b6c8f2eece985d8e374c,65d2b94070519faf7d3f00dc,0.033,0.033,1,89,251,100,1,sevenfive,,,,,,,,,,,,,,,,,,,,,,,,,,,,,,,,,,,,,,,,,,,,,,,,,,,,,,,,,,,,,,,,,,,,,,,,,,,,,,,,,,,,,,,,,,,,,,,,,,,,,,,,,,,,,,,,,,,,,,,,,,,,,,,,,,,,,,,,,
,,60597f277921839bebfd40ec,2024-02-19_02h13.43.363,kallum_motion_pilot,2023.2.2,Win32,60.60606061,60597f277921839bebfd40ec,65d2b6c8f2eece985d8e374c,65d2b94070519faf7d3f00dc,0.033,0.0331,1,90,252,112,1,fivesix,,,,,,,,,,,,,,,,,,,,,,,,,,,,,,,,,,,,,,,,,,,,,,,,,,,,,,,,,,,,,,,,,,,,,,,,,,,,,,,,,,,,,,,,,,,,,,,,,,,,,,,,,,,,,,,,,,,,,,,,,,,,,,,,,,,,,,,,,
,,60597f277921839bebfd40ec,2024-02-19_02h13.43.363,kallum_motion_pilot,2023.2.2,Win32,60.60606061,60597f277921839bebfd40ec,65d2b6c8f2eece985d8e374c,65d2b94070519faf7d3f00dc,0.0332,0.0332,1,91,253,50,1,twoone,,,,,,,,,,,,,,,,,,,,,,,,,,,,,,,,,,,,,,,,,,,,,,,,,,,,,,,,,,,,,,,,,,,,,,,,,,,,,,,,,,,,,,,,,,,,,,,,,,,,,,,,,,,,,,,,,,,,,,,,,,,,,,,,,,,,,,,,,
,,60597f277921839bebfd40ec,2024-02-19_02h13.43.363,kallum_motion_pilot,2023.2.2,Win32,60.60606061,60597f277921839bebfd40ec,65d2b6c8f2eece985d8e374c,65d2b94070519faf7d3f00dc,0.0333,0.0333,1,92,254,57,1,onethree,,,,,,,,,,,,,,,,,,,,,,,,,,,,,,,,,,,,,,,,,,,,,,,,,,,,,,,,,,,,,,,,,,,,,,,,,,,,,,,,,,,,,,,,,,,,,,,,,,,,,,,,,,,,,,,,,,,,,,,,,,,,,,,,,,,,,,,,,
,,60597f277921839bebfd40ec,2024-02-19_02h13.43.363,kallum_motion_pilot,2023.2.2,Win32,60.60606061,60597f277921839bebfd40ec,65d2b6c8f2eece985d8e374c,65d2b94070519faf7d3f00dc,0.0333,0.0334,1,93,255,72,1,onetwo,,,,,,,,,,,,,,,,,,,,,,,,,,,,,,,,,,,,,,,,,,,,,,,,,,,,,,,,,,,,,,,,,,,,,,,,,,,,,,,,,,,,,,,,,,,,,,,,,,,,,,,,,,,,,,,,,,,,,,,,,,,,,,,,,,,,,,,,,
,,60597f277921839bebfd40ec,2024-02-19_02h13.43.363,kallum_motion_pilot,2023.2.2,Win32,60.60606061,60597f277921839bebfd40ec,65d2b6c8f2eece985d8e374c,65d2b94070519faf7d3f00dc,0.0334,0.0334,1,94,256,43,1,twofour,,,,,,,,,,,,,,,,,,,,,,,,,,,,,,,,,,,,,,,,,,,,,,,,,,,,,,,,,,,,,,,,,,,,,,,,,,,,,,,,,,,,,,,,,,,,,,,,,,,,,,,,,,,,,,,,,,,,,,,,,,,,,,,,,,,,,,,,,
,,60597f277921839bebfd40ec,2024-02-19_02h13.43.363,kallum_motion_pilot,2023.2.2,Win32,60.60606061,60597f277921839bebfd40ec,65d2b6c8f2eece985d8e374c,65d2b94070519faf7d3f00dc,0.0335,0.0336,1,95,257,86,1,eightsix,,,,,,,,,,,,,,,,,,,,,,,,,,,,,,,,,,,,,,,,,,,,,,,,,,,,,,,,,,,,,,,,,,,,,,,,,,,,,,,,,,,,,,,,,,,,,,,,,,,,,,,,,,,,,,,,,,,,,,,,,,,,,,,,,,,,,,,,,
,,60597f277921839bebfd40ec,2024-02-19_02h13.43.363,kallum_motion_pilot,2023.2.2,Win32,60.60606061,60597f277921839bebfd40ec,65d2b6c8f2eece985d8e374c,65d2b94070519faf7d3f00dc,0.0336,0.0337,1,96,258,44,1,threeone,,,,,,,,,,,,,,,,,,,,,,,,,,,,,,,,,,,,,,,,,,,,,,,,,,,,,,,,,,,,,,,,,,,,,,,,,,,,,,,,,,,,,,,,,,,,,,,,,,,,,,,,,,,,,,,,,,,,,,,,,,,,,,,,,,,,,,,,,
,,60597f277921839bebfd40ec,2024-02-19_02h13.43.363,kallum_motion_pilot,2023.2.2,Win32,60.60606061,60597f277921839bebfd40ec,65d2b6c8f2eece985d8e374c,65d2b94070519faf7d3f00dc,0.0337,0.0337,1,97,259,54,1,fourtwo,,,,,,,,,,,,,,,,,,,,,,,,,,,,,,,,,,,,,,,,,,,,,,,,,,,,,,,,,,,,,,,,,,,,,,,,,,,,,,,,,,,,,,,,,,,,,,,,,,,,,,,,,,,,,,,,,,,,,,,,,,,,,,,,,,,,,,,,,
,,60597f277921839bebfd40ec,2024-02-19_02h13.43.363,kallum_motion_pilot,2023.2.2,Win32,60.60606061,60597f277921839bebfd40ec,65d2b6c8f2eece985d8e374c,65d2b94070519faf7d3f00dc,0.0337,0.0338,1,98,260,56,1,onetwo,,,,,,,,,,,,,,,,,,,,,,,,,,,,,,,,,,,,,,,,,,,,,,,,,,,,,,,,,,,,,,,,,,,,,,,,,,,,,,,,,,,,,,,,,,,,,,,,,,,,,,,,,,,,,,,,,,,,,,,,,,,,,,,,,,,,,,,,,
,,60597f277921839bebfd40ec,2024-02-19_02h13.43.363,kallum_motion_pilot,2023.2.2,Win32,60.60606061,60597f277921839bebfd40ec,65d2b6c8f2eece985d8e374c,65d2b94070519faf7d3f00dc,0.0339,0.0339,1,99,261,136,1,fivesix,,,,,,,,,,,,,,,,,,,,,,,,,,,,,,,,,,,,,,,,,,,,,,,,,,,,,,,,,,,,,,,,,,,,,,,,,,,,,,,,,,,,,,,,,,,,,,,,,,,,,,,,,,,,,,,,,,,,,,,,,,,,,,,,,,,,,,,,,
,,60597f277921839bebfd40ec,2024-02-19_02h13.43.363,kallum_motion_pilot,2023.2.2,Win32,60.60606061,60597f277921839bebfd40ec,65d2b6c8f2eece985d8e374c,65d2b94070519faf7d3f00dc,0.0339,0.034,1,100,262,151,1,eightseven,,,,,,,,,,,,,,,,,,,,,,,,,,,,,,,,,,,,,,,,,,,,,,,,,,,,,,,,,,,,,,,,,,,,,,,,,,,,,,,,,,,,,,,,,,,,,,,,,,,,,,,,,,,,,,,,,,,,,,,,,,,,,,,,,,,,,,,,,
,,60597f277921839bebfd40ec,2024-02-19_02h13.43.363,kallum_motion_pilot,2023.2.2,Win32,60.60606061,60597f277921839bebfd40ec,65d2b6c8f2eece985d8e374c,65d2b94070519faf7d3f00dc,0.034,0.0341,1,101,263,106,1,sixfive,,,,,,,,,,,,,,,,,,,,,,,,,,,,,,,,,,,,,,,,,,,,,,,,,,,,,,,,,,,,,,,,,,,,,,,,,,,,,,,,,,,,,,,,,,,,,,,,,,,,,,,,,,,,,,,,,,,,,,,,,,,,,,,,,,,,,,,,,
,,60597f277921839bebfd40ec,2024-02-19_02h13.43.363,kallum_motion_pilot,2023.2.2,Win32,60.60606061,60597f277921839bebfd40ec,65d2b6c8f2eece985d8e374c,65d2b94070519faf7d3f00dc,0.0341,0.0341,1,102,264,128,1,fivesix,,,,,,,,,,,,,,,,,,,,,,,,,,,,,,,,,,,,,,,,,,,,,,,,,,,,,,,,,,,,,,,,,,,,,,,,,,,,,,,,,,,,,,,,,,,,,,,,,,,,,,,,,,,,,,,,,,,,,,,,,,,,,,,,,,,,,,,,,
,,60597f277921839bebfd40ec,2024-02-19_02h13.43.363,kallum_motion_pilot,2023.2.2,Win32,60.60606061,60597f277921839bebfd40ec,65d2b6c8f2eece985d8e374c,65d2b94070519faf7d3f00dc,0.0342,0.0343,1,103,265,25,1,onethree,,,,,,,,,,,,,,,,,,,,,,,,,,,,,,,,,,,,,,,,,,,,,,,,,,,,,,,,,,,,,,,,,,,,,,,,,,,,,,,,,,,,,,,,,,,,,,,,,,,,,,,,,,,,,,,,,,,,,,,,,,,,,,,,,,,,,,,,,
,,60597f277921839bebfd40ec,2024-02-19_02h13.43.363,kallum_motion_pilot,2023.2.2,Win32,60.60606061,60597f277921839bebfd40ec,65d2b6c8f2eece985d8e374c,65d2b94070519faf7d3f00dc,0.0343,0.0343,1,104,266,95,1,eightseven,,,,,,,,,,,,,,,,,,,,,,,,,,,,,,,,,,,,,,,,,,,,,,,,,,,,,,,,,,,,,,,,,,,,,,,,,,,,,,,,,,,,,,,,,,,,,,,,,,,,,,,,,,,,,,,,,,,,,,,,,,,,,,,,,,,,,,,,,
,,60597f277921839bebfd40ec,2024-02-19_02h13.43.363,kallum_motion_pilot,2023.2.2,Win32,60.60606061,60597f277921839bebfd40ec,65d2b6c8f2eece985d8e374c,65d2b94070519faf7d3f00dc,0.0344,0.0345,1,105,267,153,1,fiveseven,,,,,,,,,,,,,,,,,,,,,,,,,,,,,,,,,,,,,,,,,,,,,,,,,,,,,,,,,,,,,,,,,,,,,,,,,,,,,,,,,,,,,,,,,,,,,,,,,,,,,,,,,,,,,,,,,,,,,,,,,,,,,,,,,,,,,,,,,
,,60597f277921839bebfd40ec,2024-02-19_02h13.43.363,kallum_motion_pilot,2023.2.2,Win32,60.60606061,60597f277921839bebfd40ec,65d2b6c8f2eece985d8e374c,65d2b94070519faf7d3f00dc,0.0345,0.0346,1,106,268,138,1,sixfive,,,,,,,,,,,,,,,,,,,,,,,,,,,,,,,,,,,,,,,,,,,,,,,,,,,,,,,,,,,,,,,,,,,,,,,,,,,,,,,,,,,,,,,,,,,,,,,,,,,,,,,,,,,,,,,,,,,,,,,,,,,,,,,,,,,,,,,,,
,,60597f277921839bebfd40ec,2024-02-19_02h13.43.363,kallum_motion_pilot,2023.2.2,Win32,60.60606061,60597f277921839bebfd40ec,65d2b6c8f2eece985d8e374c,65d2b94070519faf7d3f00dc,0.0346,0.0346,1,107,269,122,1,sixfive,,,,,,,,,,,,,,,,,,,,,,,,,,,,,,,,,,,,,,,,,,,,,,,,,,,,,,,,,,,,,,,,,,,,,,,,,,,,,,,,,,,,,,,,,,,,,,,,,,,,,,,,,,,,,,,,,,,,,,,,,,,,,,,,,,,,,,,,,
,,60597f277921839bebfd40ec,2024-02-19_02h13.43.363,kallum_motion_pilot,2023.2.2,Win32,60.60606061,60597f277921839bebfd40ec,65d2b6c8f2eece985d8e374c,65d2b94070519faf7d3f00dc,0.0346,0.0347,1,108,270,149,1,seveneight,,,,,,,,,,,,,,,,,,,,,,,,,,,,,,,,,,,,,,,,,,,,,,,,,,,,,,,,,,,,,,,,,,,,,,,,,,,,,,,,,,,,,,,,,,,,,,,,,,,,,,,,,,,,,,,,,,,,,,,,,,,,,,,,,,,,,,,,,
,,60597f277921839bebfd40ec,2024-02-19_02h13.43.363,kallum_motion_pilot,2023.2.2,Win32,60.60606061,60597f277921839bebfd40ec,65d2b6c8f2eece985d8e374c,65d2b94070519faf7d3f00dc,0.0347,0.0348,1,109,271,93,1,seveneight,,,,,,,,,,,,,,,,,,,,,,,,,,,,,,,,,,,,,,,,,,,,,,,,,,,,,,,,,,,,,,,,,,,,,,,,,,,,,,,,,,,,,,,,,,,,,,,,,,,,,,,,,,,,,,,,,,,,,,,,,,,,,,,,,,,,,,,,,
,,60597f277921839bebfd40ec,2024-02-19_02h13.43.363,kallum_motion_pilot,2023.2.2,Win32,60.60606061,60597f277921839bebfd40ec,65d2b6c8f2eece985d8e374c,65d2b94070519faf7d3f00dc,0.0348,0.0348,1,110,272,37,1,threefour,,,,,,,,,,,,,,,,,,,,,,,,,,,,,,,,,,,,,,,,,,,,,,,,,,,,,,,,,,,,,,,,,,,,,,,,,,,,,,,,,,,,,,,,,,,,,,,,,,,,,,,,,,,,,,,,,,,,,,,,,,,,,,,,,,,,,,,,,
,,60597f277921839bebfd40ec,2024-02-19_02h13.43.363,kallum_motion_pilot,2023.2.2,Win32,60.60606061,60597f277921839bebfd40ec,65d2b6c8f2eece985d8e374c,65d2b94070519faf7d3f00dc,0.0349,0.0349,1,111,273,65,1,onethree,,,,,,,,,,,,,,,,,,,,,,,,,,,,,,,,,,,,,,,,,,,,,,,,,,,,,,,,,,,,,,,,,,,,,,,,,,,,,,,,,,,,,,,,,,,,,,,,,,,,,,,,,,,,,,,,,,,,,,,,,,,,,,,,,,,,,,,,,
,,60597f277921839bebfd40ec,2024-02-19_02h13.43.363,kallum_motion_pilot,2023.2.2,Win32,60.60606061,60597f277921839bebfd40ec,65d2b6c8f2eece985d8e374c,65d2b94070519faf7d3f00dc,0.035,0.035,1,112,274,109,1,seveneight,,,,,,,,,,,,,,,,,,,,,,,,,,,,,,,,,,,,,,,,,,,,,,,,,,,,,,,,,,,,,,,,,,,,,,,,,,,,,,,,,,,,,,,,,,,,,,,,,,,,,,,,,,,,,,,,,,,,,,,,,,,,,,,,,,,,,,,,,
,,60597f277921839bebfd40ec,2024-02-19_02h13.43.363,kallum_motion_pilot,2023.2.2,Win32,60.60606061,60597f277921839bebfd40ec,65d2b6c8f2eece985d8e374c,65d2b94070519faf7d3f00dc,0.0351,0.0352,1,113,275,87,1,eightseven,,,,,,,,,,,,,,,,,,,,,,,,,,,,,,,,,,,,,,,,,,,,,,,,,,,,,,,,,,,,,,,,,,,,,,,,,,,,,,,,,,,,,,,,,,,,,,,,,,,,,,,,,,,,,,,,,,,,,,,,,,,,,,,,,,,,,,,,,
,,60597f277921839bebfd40ec,2024-02-19_02h13.43.363,kallum_motion_pilot,2023.2.2,Win32,60.60606061,60597f277921839bebfd40ec,65d2b6c8f2eece985d8e374c,65d2b94070519faf7d3f00dc,0.0352,0.0352,1,114,276,10,1,twoone,,,,,,,,,,,,,,,,,,,,,,,,,,,,,,,,,,,,,,,,,,,,,,,,,,,,,,,,,,,,,,,,,,,,,,,,,,,,,,,,,,,,,,,,,,,,,,,,,,,,,,,,,,,,,,,,,,,,,,,,,,,,,,,,,,,,,,,,,
,,60597f277921839bebfd40ec,2024-02-19_02h13.43.363,kallum_motion_pilot,2023.2.2,Win32,60.60606061,60597f277921839bebfd40ec,65d2b6c8f2eece985d8e374c,65d2b94070519faf7d3f00dc,0.0352,0.0353,1,115,277,55,1,fourthree,,,,,,,,,,,,,,,,,,,,,,,,,,,,,,,,,,,,,,,,,,,,,,,,,,,,,,,,,,,,,,,,,,,,,,,,,,,,,,,,,,,,,,,,,,,,,,,,,,,,,,,,,,,,,,,,,,,,,,,,,,,,,,,,,,,,,,,,,
