startup.started,startup.stopped,Prolific ID*,date,expName,psychopyVersion,OS,frameRate,participant,study_id,session,stimpositions.started,stimpositions.stopped,hardcoded_stimulus_positions.thisRepN,hardcoded_stimulus_positions.thisTrialN,hardcoded_stimulus_positions.thisN,hardcoded_stimulus_positions.thisIndex,hardcoded_stimulus_positions.ran,StimulusPos,stimorientation.started,stimorientation.stopped,prac_stimorientation_import_loop.thisRepN,prac_stimorientation_import_loop.thisTrialN,prac_stimorientation_import_loop.thisN,prac_stimorientation_import_loop.thisIndex,prac_stimorientation_import_loop.ran,Stimorientation,welcome_instr.started,welcome_instr.stopped,key_resp.keys,key_resp.rt,key_resp.duration,response_steppedout_1.started,response_steppedout_1.stopped,key_resp_20.keys,key_resp_20.rt,key_resp_20.duration,response_steppedout_2.started,response_steppedout_2.stopped,key_resp_19.keys,key_resp_19.rt,key_resp_19.duration,stim_response_instr.started,stim_response_instr.stopped,key_resp_15.keys,key_resp_15.rt,key_resp_15.duration,direction_instr_2.started,direction_instr_2.stopped,key_resp_9.keys,key_resp_9.rt,key_resp_9.duration,instr_prac.started,instr_prac.stopped,key_resp_10.keys,key_resp_10.rt,key_resp_10.duration,Stim1_display_prac.started,Stim1_display_prac.stopped,Ecc,Circle1_ori,Circle2_ori,response_prac.started,similarity,response_time,response_prac.stopped,mouse_5.x,mouse_5.y,mouse_5.leftButton,mouse_5.midButton,mouse_5.rightButton,mouse_5.clicked_name,responseprac_feedback.started,responseprac_feedback.stopped,summary2_prac.started,summary2_prac.stopped,mouse_6.x,mouse_6.y,mouse_6.leftButton,mouse_6.midButton,mouse_6.rightButton,mouse_6.clicked_name,duringprac.thisRepN,duringprac.thisTrialN,duringprac.thisN,duringprac.thisIndex,duringprac.ran,begin.started,begin.stopped,key_resp_22.keys,key_resp_22.rt,key_resp_22.duration,Stim1_display.started,Stim1_display.stopped,circle1_ori,circle2_ori,circle1_SF,circle2_SF,response.started,response.stopped,mouse.x,mouse.y,mouse.leftButton,mouse.midButton,mouse.rightButton,mouse.clicked_name,trialnumber,double_pass.thisRepN,double_pass.thisTrialN,double_pass.thisN,double_pass.thisIndex,double_pass.ran,double_pass.order,main_trial.thisRepN,main_trial.thisTrialN,main_trial.thisN,main_trial.thisIndex,main_trial.ran,main_trial.order,Trial_Counter,Catch,Frequencies,response_2.started,response_2.stopped,mouse_2.x,mouse_2.y,mouse_2.leftButton,mouse_2.midButton,mouse_2.rightButton,mouse_2.clicked_name,special_trial.started,special_trial.stopped,catch_1.started,catch_1.stopped,mouse_3.x,mouse_3.y,mouse_3.leftButton,mouse_3.midButton,mouse_3.rightButton,catchresponse,catchnumber,response_time_catch,response_sum.started,response_sum.stopped,mouse_11.x,mouse_11.y,mouse_11.leftButton,mouse_11.midButton,mouse_11.rightButton,flip_presentation_sequence_for_double_pass.started,flip_presentation_sequence_for_double_pass.stopped,goodbye.started,goodbye.stopped,key_resp_3.keys,key_resp_3.rt,key_resp_3.duration
0.0012,0.0014,606798d5d3590d11fbd20111,2024-02-19_03h15.09.249,kallum_motion_pilot,2023.2.2,Win32,74.62686567,606798d5d3590d11fbd20111,65d2b6c8f2eece985d8e374c,65d2b98b424f1685f09383f8,,,,,,,,,,,,,,,,,,,,,,,,,,,,,,,,,,,,,,,,,,,,,,,,,,,,,,,,,,,,,,,,,,,,,,,,,,,,,,,,,,,,,,,,,,,,,,,,,,,,,,,,,,,,,,,,,,,,,,,,,,,,,,,,,,,,,,,,,,,,,,,,,
,,606798d5d3590d11fbd20111,2024-02-19_03h15.09.249,kallum_motion_pilot,2023.2.2,Win32,74.62686567,606798d5d3590d11fbd20111,65d2b6c8f2eece985d8e374c,65d2b98b424f1685f09383f8,0.0368,0.0371,0,0,0,148,1,sevenfive,,,,,,,,,,,,,,,,,,,,,,,,,,,,,,,,,,,,,,,,,,,,,,,,,,,,,,,,,,,,,,,,,,,,,,,,,,,,,,,,,,,,,,,,,,,,,,,,,,,,,,,,,,,,,,,,,,,,,,,,,,,,,,,,,,,,,,,,,
,,606798d5d3590d11fbd20111,2024-02-19_03h15.09.249,kallum_motion_pilot,2023.2.2,Win32,74.62686567,606798d5d3590d11fbd20111,65d2b6c8f2eece985d8e374c,65d2b98b424f1685f09383f8,0.0375,0.0376,0,1,1,26,1,twoone,,,,,,,,,,,,,,,,,,,,,,,,,,,,,,,,,,,,,,,,,,,,,,,,,,,,,,,,,,,,,,,,,,,,,,,,,,,,,,,,,,,,,,,,,,,,,,,,,,,,,,,,,,,,,,,,,,,,,,,,,,,,,,,,,,,,,,,,,
,,606798d5d3590d11fbd20111,2024-02-19_03h15.09.249,kallum_motion_pilot,2023.2.2,Win32,74.62686567,606798d5d3590d11fbd20111,65d2b6c8f2eece985d8e374c,65d2b98b424f1685f09383f8,0.0379,0.038,0,2,2,103,1,eightseven,,,,,,,,,,,,,,,,,,,,,,,,,,,,,,,,,,,,,,,,,,,,,,,,,,,,,,,,,,,,,,,,,,,,,,,,,,,,,,,,,,,,,,,,,,,,,,,,,,,,,,,,,,,,,,,,,,,,,,,,,,,,,,,,,,,,,,,,,
,,606798d5d3590d11fbd20111,2024-02-19_03h15.09.249,kallum_motion_pilot,2023.2.2,Win32,74.62686567,606798d5d3590d11fbd20111,65d2b6c8f2eece985d8e374c,65d2b98b424f1685f09383f8,0.0383,0.0384,0,3,3,120,1,fivesix,,,,,,,,,,,,,,,,,,,,,,,,,,,,,,,,,,,,,,,,,,,,,,,,,,,,,,,,,,,,,,,,,,,,,,,,,,,,,,,,,,,,,,,,,,,,,,,,,,,,,,,,,,,,,,,,,,,,,,,,,,,,,,,,,,,,,,,,,
,,606798d5d3590d11fbd20111,2024-02-19_03h15.09.249,kallum_motion_pilot,2023.2.2,Win32,74.62686567,606798d5d3590d11fbd20111,65d2b6c8f2eece985d8e374c,65d2b98b424f1685f09383f8,0.0385,0.0385,0,4,4,123,1,sixeight,,,,,,,,,,,,,,,,,,,,,,,,,,,,,,,,,,,,,,,,,,,,,,,,,,,,,,,,,,,,,,,,,,,,,,,,,,,,,,,,,,,,,,,,,,,,,,,,,,,,,,,,,,,,,,,,,,,,,,,,,,,,,,,,,,,,,,,,,
,,606798d5d3590d11fbd20111,2024-02-19_03h15.09.249,kallum_motion_pilot,2023.2.2,Win32,74.62686567,606798d5d3590d11fbd20111,65d2b6c8f2eece985d8e374c,65d2b98b424f1685f09383f8,0.0387,0.0387,0,5,5,51,1,twofour,,,,,,,,,,,,,,,,,,,,,,,,,,,,,,,,,,,,,,,,,,,,,,,,,,,,,,,,,,,,,,,,,,,,,,,,,,,,,,,,,,,,,,,,,,,,,,,,,,,,,,,,,,,,,,,,,,,,,,,,,,,,,,,,,,,,,,,,,
,,606798d5d3590d11fbd20111,2024-02-19_03h15.09.249,kallum_motion_pilot,2023.2.2,Win32,74.62686567,606798d5d3590d11fbd20111,65d2b6c8f2eece985d8e374c,65d2b98b424f1685f09383f8,0.0388,0.0388,0,6,6,126,1,eightsix,,,,,,,,,,,,,,,,,,,,,,,,,,,,,,,,,,,,,,,,,,,,,,,,,,,,,,,,,,,,,,,,,,,,,,,,,,,,,,,,,,,,,,,,,,,,,,,,,,,,,,,,,,,,,,,,,,,,,,,,,,,,,,,,,,,,,,,,,
,,606798d5d3590d11fbd20111,2024-02-19_03h15.09.249,kallum_motion_pilot,2023.2.2,Win32,74.62686567,606798d5d3590d11fbd20111,65d2b6c8f2eece985d8e374c,65d2b98b424f1685f09383f8,0.0388,0.0389,0,7,7,136,1,fivesix,,,,,,,,,,,,,,,,,,,,,,,,,,,,,,,,,,,,,,,,,,,,,,,,,,,,,,,,,,,,,,,,,,,,,,,,,,,,,,,,,,,,,,,,,,,,,,,,,,,,,,,,,,,,,,,,,,,,,,,,,,,,,,,,,,,,,,,,,
,,606798d5d3590d11fbd20111,2024-02-19_03h15.09.249,kallum_motion_pilot,2023.2.2,Win32,74.62686567,606798d5d3590d11fbd20111,65d2b6c8f2eece985d8e374c,65d2b98b424f1685f09383f8,0.0391,0.0392,0,8,8,52,1,threeone,,,,,,,,,,,,,,,,,,,,,,,,,,,,,,,,,,,,,,,,,,,,,,,,,,,,,,,,,,,,,,,,,,,,,,,,,,,,,,,,,,,,,,,,,,,,,,,,,,,,,,,,,,,,,,,,,,,,,,,,,,,,,,,,,,,,,,,,,
,,606798d5d3590d11fbd20111,2024-02-19_03h15.09.249,kallum_motion_pilot,2023.2.2,Win32,74.62686567,606798d5d3590d11fbd20111,65d2b6c8f2eece985d8e374c,65d2b98b424f1685f09383f8,0.0394,0.0394,0,9,9,29,1,threefour,,,,,,,,,,,,,,,,,,,,,,,,,,,,,,,,,,,,,,,,,,,,,,,,,,,,,,,,,,,,,,,,,,,,,,,,,,,,,,,,,,,,,,,,,,,,,,,,,,,,,,,,,,,,,,,,,,,,,,,,,,,,,,,,,,,,,,,,,
,,606798d5d3590d11fbd20111,2024-02-19_03h15.09.249,kallum_motion_pilot,2023.2.2,Win32,74.62686567,606798d5d3590d11fbd20111,65d2b6c8f2eece985d8e374c,65d2b98b424f1685f09383f8,0.0395,0.0396,0,10,10,50,1,twoone,,,,,,,,,,,,,,,,,,,,,,,,,,,,,,,,,,,,,,,,,,,,,,,,,,,,,,,,,,,,,,,,,,,,,,,,,,,,,,,,,,,,,,,,,,,,,,,,,,,,,,,,,,,,,,,,,,,,,,,,,,,,,,,,,,,,,,,,,
,,606798d5d3590d11fbd20111,2024-02-19_03h15.09.249,kallum_motion_pilot,2023.2.2,Win32,74.62686567,606798d5d3590d11fbd20111,65d2b6c8f2eece985d8e374c,65d2b98b424f1685f09383f8,0.0397,0.0398,0,11,11,11,1,twofour,,,,,,,,,,,,,,,,,,,,,,,,,,,,,,,,,,,,,,,,,,,,,,,,,,,,,,,,,,,,,,,,,,,,,,,,,,,,,,,,,,,,,,,,,,,,,,,,,,,,,,,,,,,,,,,,,,,,,,,,,,,,,,,,,,,,,,,,,
,,606798d5d3590d11fbd20111,2024-02-19_03h15.09.249,kallum_motion_pilot,2023.2.2,Win32,74.62686567,606798d5d3590d11fbd20111,65d2b6c8f2eece985d8e374c,65d2b98b424f1685f09383f8,0.0398,0.0399,0,12,12,33,1,onethree,,,,,,,,,,,,,,,,,,,,,,,,,,,,,,,,,,,,,,,,,,,,,,,,,,,,,,,,,,,,,,,,,,,,,,,,,,,,,,,,,,,,,,,,,,,,,,,,,,,,,,,,,,,,,,,,,,,,,,,,,,,,,,,,,,,,,,,,,
,,606798d5d3590d11fbd20111,2024-02-19_03h15.09.249,kallum_motion_pilot,2023.2.2,Win32,74.62686567,606798d5d3590d11fbd20111,65d2b6c8f2eece985d8e374c,65d2b98b424f1685f09383f8,0.0401,0.0401,0,13,13,114,1,sixfive,,,,,,,,,,,,,,,,,,,,,,,,,,,,,,,,,,,,,,,,,,,,,,,,,,,,,,,,,,,,,,,,,,,,,,,,,,,,,,,,,,,,,,,,,,,,,,,,,,,,,,,,,,,,,,,,,,,,,,,,,,,,,,,,,,,,,,,,,
,,606798d5d3590d11fbd20111,2024-02-19_03h15.09.249,kallum_motion_pilot,2023.2.2,Win32,74.62686567,606798d5d3590d11fbd20111,65d2b6c8f2eece985d8e374c,65d2b98b424f1685f09383f8,0.0401,0.0402,0,14,14,75,1,twofour,,,,,,,,,,,,,,,,,,,,,,,,,,,,,,,,,,,,,,,,,,,,,,,,,,,,,,,,,,,,,,,,,,,,,,,,,,,,,,,,,,,,,,,,,,,,,,,,,,,,,,,,,,,,,,,,,,,,,,,,,,,,,,,,,,,,,,,,,
,,606798d5d3590d11fbd20111,2024-02-19_03h15.09.249,kallum_motion_pilot,2023.2.2,Win32,74.62686567,606798d5d3590d11fbd20111,65d2b6c8f2eece985d8e374c,65d2b98b424f1685f09383f8,0.0402,0.0403,0,15,15,155,1,sixeight,,,,,,,,,,,,,,,,,,,,,,,,,,,,,,,,,,,,,,,,,,,,,,,,,,,,,,,,,,,,,,,,,,,,,,,,,,,,,,,,,,,,,,,,,,,,,,,,,,,,,,,,,,,,,,,,,,,,,,,,,,,,,,,,,,,,,,,,,
,,606798d5d3590d11fbd20111,2024-02-19_03h15.09.249,kallum_motion_pilot,2023.2.2,Win32,74.62686567,606798d5d3590d11fbd20111,65d2b6c8f2eece985d8e374c,65d2b98b424f1685f09383f8,0.0404,0.0404,0,16,16,135,1,eightseven,,,,,,,,,,,,,,,,,,,,,,,,,,,,,,,,,,,,,,,,,,,,,,,,,,,,,,,,,,,,,,,,,,,,,,,,,,,,,,,,,,,,,,,,,,,,,,,,,,,,,,,,,,,,,,,,,,,,,,,,,,,,,,,,,,,,,,,,,
,,606798d5d3590d11fbd20111,2024-02-19_03h15.09.249,kallum_motion_pilot,2023.2.2,Win32,74.62686567,606798d5d3590d11fbd20111,65d2b6c8f2eece985d8e374c,65d2b98b424f1685f09383f8,0.0406,0.0407,0,17,17,147,1,sixeight,,,,,,,,,,,,,,,,,,,,,,,,,,,,,,,,,,,,,,,,,,,,,,,,,,,,,,,,,,,,,,,,,,,,,,,,,,,,,,,,,,,,,,,,,,,,,,,,,,,,,,,,,,,,,,,,,,,,,,,,,,,,,,,,,,,,,,,,,
,,606798d5d3590d11fbd20111,2024-02-19_03h15.09.249,kallum_motion_pilot,2023.2.2,Win32,74.62686567,606798d5d3590d11fbd20111,65d2b6c8f2eece985d8e374c,65d2b98b424f1685f09383f8,0.0407,0.0408,0,18,18,58,1,twoone,,,,,,,,,,,,,,,,,,,,,,,,,,,,,,,,,,,,,,,,,,,,,,,,,,,,,,,,,,,,,,,,,,,,,,,,,,,,,,,,,,,,,,,,,,,,,,,,,,,,,,,,,,,,,,,,,,,,,,,,,,,,,,,,,,,,,,,,,
,,606798d5d3590d11fbd20111,2024-02-19_03h15.09.249,kallum_motion_pilot,2023.2.2,Win32,74.62686567,606798d5d3590d11fbd20111,65d2b6c8f2eece985d8e374c,65d2b98b424f1685f09383f8,0.0409,0.0409,0,19,19,54,1,fourtwo,,,,,,,,,,,,,,,,,,,,,,,,,,,,,,,,,,,,,,,,,,,,,,,,,,,,,,,,,,,,,,,,,,,,,,,,,,,,,,,,,,,,,,,,,,,,,,,,,,,,,,,,,,,,,,,,,,,,,,,,,,,,,,,,,,,,,,,,,
,,606798d5d3590d11fbd20111,2024-02-19_03h15.09.249,kallum_motion_pilot,2023.2.2,Win32,74.62686567,606798d5d3590d11fbd20111,65d2b6c8f2eece985d8e374c,65d2b98b424f1685f09383f8,0.041,0.041,0,20,20,71,1,fourthree,,,,,,,,,,,,,,,,,,,,,,,,,,,,,,,,,,,,,,,,,,,,,,,,,,,,,,,,,,,,,,,,,,,,,,,,,,,,,,,,,,,,,,,,,,,,,,,,,,,,,,,,,,,,,,,,,,,,,,,,,,,,,,,,,,,,,,,,,
,,606798d5d3590d11fbd20111,2024-02-19_03h15.09.249,kallum_motion_pilot,2023.2.2,Win32,74.62686567,606798d5d3590d11fbd20111,65d2b6c8f2eece985d8e374c,65d2b98b424f1685f09383f8,0.0411,0.0411,0,21,21,134,1,eightsix,,,,,,,,,,,,,,,,,,,,,,,,,,,,,,,,,,,,,,,,,,,,,,,,,,,,,,,,,,,,,,,,,,,,,,,,,,,,,,,,,,,,,,,,,,,,,,,,,,,,,,,,,,,,,,,,,,,,,,,,,,,,,,,,,,,,,,,,,
,,606798d5d3590d11fbd20111,2024-02-19_03h15.09.249,kallum_motion_pilot,2023.2.2,Win32,74.62686567,606798d5d3590d11fbd20111,65d2b6c8f2eece985d8e374c,65d2b98b424f1685f09383f8,0.0411,0.0411,0,22,22,3,1,twofour,,,,,,,,,,,,,,,,,,,,,,,,,,,,,,,,,,,,,,,,,,,,,,,,,,,,,,,,,,,,,,,,,,,,,,,,,,,,,,,,,,,,,,,,,,,,,,,,,,,,,,,,,,,,,,,,,,,,,,,,,,,,,,,,,,,,,,,,,
,,606798d5d3590d11fbd20111,2024-02-19_03h15.09.249,kallum_motion_pilot,2023.2.2,Win32,74.62686567,606798d5d3590d11fbd20111,65d2b6c8f2eece985d8e374c,65d2b98b424f1685f09383f8,0.0413,0.0413,0,23,23,154,1,sixfive,,,,,,,,,,,,,,,,,,,,,,,,,,,,,,,,,,,,,,,,,,,,,,,,,,,,,,,,,,,,,,,,,,,,,,,,,,,,,,,,,,,,,,,,,,,,,,,,,,,,,,,,,,,,,,,,,,,,,,,,,,,,,,,,,,,,,,,,,
,,606798d5d3590d11fbd20111,2024-02-19_03h15.09.249,kallum_motion_pilot,2023.2.2,Win32,74.62686567,606798d5d3590d11fbd20111,65d2b6c8f2eece985d8e374c,65d2b98b424f1685f09383f8,0.0414,0.0414,0,24,24,88,1,fivesix,,,,,,,,,,,,,,,,,,,,,,,,,,,,,,,,,,,,,,,,,,,,,,,,,,,,,,,,,,,,,,,,,,,,,,,,,,,,,,,,,,,,,,,,,,,,,,,,,,,,,,,,,,,,,,,,,,,,,,,,,,,,,,,,,,,,,,,,,
,,606798d5d3590d11fbd20111,2024-02-19_03h15.09.249,kallum_motion_pilot,2023.2.2,Win32,74.62686567,606798d5d3590d11fbd20111,65d2b6c8f2eece985d8e374c,65d2b98b424f1685f09383f8,0.0415,0.0416,0,25,25,157,1,seveneight,,,,,,,,,,,,,,,,,,,,,,,,,,,,,,,,,,,,,,,,,,,,,,,,,,,,,,,,,,,,,,,,,,,,,,,,,,,,,,,,,,,,,,,,,,,,,,,,,,,,,,,,,,,,,,,,,,,,,,,,,,,,,,,,,,,,,,,,,
,,606798d5d3590d11fbd20111,2024-02-19_03h15.09.249,kallum_motion_pilot,2023.2.2,Win32,74.62686567,606798d5d3590d11fbd20111,65d2b6c8f2eece985d8e374c,65d2b98b424f1685f09383f8,0.0417,0.0418,0,26,26,63,1,fourthree,,,,,,,,,,,,,,,,,,,,,,,,,,,,,,,,,,,,,,,,,,,,,,,,,,,,,,,,,,,,,,,,,,,,,,,,,,,,,,,,,,,,,,,,,,,,,,,,,,,,,,,,,,,,,,,,,,,,,,,,,,,,,,,,,,,,,,,,,
,,606798d5d3590d11fbd20111,2024-02-19_03h15.09.249,kallum_motion_pilot,2023.2.2,Win32,74.62686567,606798d5d3590d11fbd20111,65d2b6c8f2eece985d8e374c,65d2b98b424f1685f09383f8,0.0418,0.0419,0,27,27,159,1,eightseven,,,,,,,,,,,,,,,,,,,,,,,,,,,,,,,,,,,,,,,,,,,,,,,,,,,,,,,,,,,,,,,,,,,,,,,,,,,,,,,,,,,,,,,,,,,,,,,,,,,,,,,,,,,,,,,,,,,,,,,,,,,,,,,,,,,,,,,,,
,,606798d5d3590d11fbd20111,2024-02-19_03h15.09.249,kallum_motion_pilot,2023.2.2,Win32,74.62686567,606798d5d3590d11fbd20111,65d2b6c8f2eece985d8e374c,65d2b98b424f1685f09383f8,0.042,0.042,0,28,28,56,1,onetwo,,,,,,,,,,,,,,,,,,,,,,,,,,,,,,,,,,,,,,,,,,,,,,,,,,,,,,,,,,,,,,,,,,,,,,,,,,,,,,,,,,,,,,,,,,,,,,,,,,,,,,,,,,,,,,,,,,,,,,,,,,,,,,,,,,,,,,,,,
,,606798d5d3590d11fbd20111,2024-02-19_03h15.09.249,kallum_motion_pilot,2023.2.2,Win32,74.62686567,606798d5d3590d11fbd20111,65d2b6c8f2eece985d8e374c,65d2b98b424f1685f09383f8,0.0421,0.0421,0,29,29,90,1,sixfive,,,,,,,,,,,,,,,,,,,,,,,,,,,,,,,,,,,,,,,,,,,,,,,,,,,,,,,,,,,,,,,,,,,,,,,,,,,,,,,,,,,,,,,,,,,,,,,,,,,,,,,,,,,,,,,,,,,,,,,,,,,,,,,,,,,,,,,,,
,,606798d5d3590d11fbd20111,2024-02-19_03h15.09.249,kallum_motion_pilot,2023.2.2,Win32,74.62686567,606798d5d3590d11fbd20111,65d2b6c8f2eece985d8e374c,65d2b98b424f1685f09383f8,0.0421,0.0423,0,30,30,45,1,threefour,,,,,,,,,,,,,,,,,,,,,,,,,,,,,,,,,,,,,,,,,,,,,,,,,,,,,,,,,,,,,,,,,,,,,,,,,,,,,,,,,,,,,,,,,,,,,,,,,,,,,,,,,,,,,,,,,,,,,,,,,,,,,,,,,,,,,,,,,
,,606798d5d3590d11fbd20111,2024-02-19_03h15.09.249,kallum_motion_pilot,2023.2.2,Win32,74.62686567,606798d5d3590d11fbd20111,65d2b6c8f2eece985d8e374c,65d2b98b424f1685f09383f8,0.0423,0.0423,0,31,31,10,1,twoone,,,,,,,,,,,,,,,,,,,,,,,,,,,,,,,,,,,,,,,,,,,,,,,,,,,,,,,,,,,,,,,,,,,,,,,,,,,,,,,,,,,,,,,,,,,,,,,,,,,,,,,,,,,,,,,,,,,,,,,,,,,,,,,,,,,,,,,,,
,,606798d5d3590d11fbd20111,2024-02-19_03h15.09.249,kallum_motion_pilot,2023.2.2,Win32,74.62686567,606798d5d3590d11fbd20111,65d2b6c8f2eece985d8e374c,65d2b98b424f1685f09383f8,0.0425,0.0425,0,32,32,145,1,fiveseven,,,,,,,,,,,,,,,,,,,,,,,,,,,,,,,,,,,,,,,,,,,,,,,,,,,,,,,,,,,,,,,,,,,,,,,,,,,,,,,,,,,,,,,,,,,,,,,,,,,,,,,,,,,,,,,,,,,,,,,,,,,,,,,,,,,,,,,,,
,,606798d5d3590d11fbd20111,2024-02-19_03h15.09.249,kallum_motion_pilot,2023.2.2,Win32,74.62686567,606798d5d3590d11fbd20111,65d2b6c8f2eece985d8e374c,65d2b98b424f1685f09383f8,0.0427,0.0427,0,33,33,82,1,sixfive,,,,,,,,,,,,,,,,,,,,,,,,,,,,,,,,,,,,,,,,,,,,,,,,,,,,,,,,,,,,,,,,,,,,,,,,,,,,,,,,,,,,,,,,,,,,,,,,,,,,,,,,,,,,,,,,,,,,,,,,,,,,,,,,,,,,,,,,,
,,606798d5d3590d11fbd20111,2024-02-19_03h15.09.249,kallum_motion_pilot,2023.2.2,Win32,74.62686567,606798d5d3590d11fbd20111,65d2b6c8f2eece985d8e374c,65d2b98b424f1685f09383f8,0.0427,0.0428,0,34,34,25,1,onethree,,,,,,,,,,,,,,,,,,,,,,,,,,,,,,,,,,,,,,,,,,,,,,,,,,,,,,,,,,,,,,,,,,,,,,,,,,,,,,,,,,,,,,,,,,,,,,,,,,,,,,,,,,,,,,,,,,,,,,,,,,,,,,,,,,,,,,,,,
,,606798d5d3590d11fbd20111,2024-02-19_03h15.09.249,kallum_motion_pilot,2023.2.2,Win32,74.62686567,606798d5d3590d11fbd20111,65d2b6c8f2eece985d8e374c,65d2b98b424f1685f09383f8,0.0429,0.0429,0,35,35,34,1,twoone,,,,,,,,,,,,,,,,,,,,,,,,,,,,,,,,,,,,,,,,,,,,,,,,,,,,,,,,,,,,,,,,,,,,,,,,,,,,,,,,,,,,,,,,,,,,,,,,,,,,,,,,,,,,,,,,,,,,,,,,,,,,,,,,,,,,,,,,,
,,606798d5d3590d11fbd20111,2024-02-19_03h15.09.249,kallum_motion_pilot,2023.2.2,Win32,74.62686567,606798d5d3590d11fbd20111,65d2b6c8f2eece985d8e374c,65d2b98b424f1685f09383f8,0.043,0.043,0,36,36,105,1,fiveseven,,,,,,,,,,,,,,,,,,,,,,,,,,,,,,,,,,,,,,,,,,,,,,,,,,,,,,,,,,,,,,,,,,,,,,,,,,,,,,,,,,,,,,,,,,,,,,,,,,,,,,,,,,,,,,,,,,,,,,,,,,,,,,,,,,,,,,,,,
,,606798d5d3590d11fbd20111,2024-02-19_03h15.09.249,kallum_motion_pilot,2023.2.2,Win32,74.62686567,606798d5d3590d11fbd20111,65d2b6c8f2eece985d8e374c,65d2b98b424f1685f09383f8,0.0431,0.0431,0,37,37,24,1,onetwo,,,,,,,,,,,,,,,,,,,,,,,,,,,,,,,,,,,,,,,,,,,,,,,,,,,,,,,,,,,,,,,,,,,,,,,,,,,,,,,,,,,,,,,,,,,,,,,,,,,,,,,,,,,,,,,,,,,,,,,,,,,,,,,,,,,,,,,,,
,,606798d5d3590d11fbd20111,2024-02-19_03h15.09.249,kallum_motion_pilot,2023.2.2,Win32,74.62686567,606798d5d3590d11fbd20111,65d2b6c8f2eece985d8e374c,65d2b98b424f1685f09383f8,0.0433,0.0433,0,38,38,121,1,fiveseven,,,,,,,,,,,,,,,,,,,,,,,,,,,,,,,,,,,,,,,,,,,,,,,,,,,,,,,,,,,,,,,,,,,,,,,,,,,,,,,,,,,,,,,,,,,,,,,,,,,,,,,,,,,,,,,,,,,,,,,,,,,,,,,,,,,,,,,,,
,,606798d5d3590d11fbd20111,2024-02-19_03h15.09.249,kallum_motion_pilot,2023.2.2,Win32,74.62686567,606798d5d3590d11fbd20111,65d2b6c8f2eece985d8e374c,65d2b98b424f1685f09383f8,0.0434,0.0434,0,39,39,107,1,sixeight,,,,,,,,,,,,,,,,,,,,,,,,,,,,,,,,,,,,,,,,,,,,,,,,,,,,,,,,,,,,,,,,,,,,,,,,,,,,,,,,,,,,,,,,,,,,,,,,,,,,,,,,,,,,,,,,,,,,,,,,,,,,,,,,,,,,,,,,,
,,606798d5d3590d11fbd20111,2024-02-19_03h15.09.249,kallum_motion_pilot,2023.2.2,Win32,74.62686567,606798d5d3590d11fbd20111,65d2b6c8f2eece985d8e374c,65d2b98b424f1685f09383f8,0.0436,0.0436,0,40,40,140,1,sevenfive,,,,,,,,,,,,,,,,,,,,,,,,,,,,,,,,,,,,,,,,,,,,,,,,,,,,,,,,,,,,,,,,,,,,,,,,,,,,,,,,,,,,,,,,,,,,,,,,,,,,,,,,,,,,,,,,,,,,,,,,,,,,,,,,,,,,,,,,,
,,606798d5d3590d11fbd20111,2024-02-19_03h15.09.249,kallum_motion_pilot,2023.2.2,Win32,74.62686567,606798d5d3590d11fbd20111,65d2b6c8f2eece985d8e374c,65d2b98b424f1685f09383f8,0.0437,0.0437,0,41,41,84,1,sevenfive,,,,,,,,,,,,,,,,,,,,,,,,,,,,,,,,,,,,,,,,,,,,,,,,,,,,,,,,,,,,,,,,,,,,,,,,,,,,,,,,,,,,,,,,,,,,,,,,,,,,,,,,,,,,,,,,,,,,,,,,,,,,,,,,,,,,,,,,,
,,606798d5d3590d11fbd20111,2024-02-19_03h15.09.249,kallum_motion_pilot,2023.2.2,Win32,74.62686567,606798d5d3590d11fbd20111,65d2b6c8f2eece985d8e374c,65d2b98b424f1685f09383f8,0.0438,0.0438,0,42,42,77,1,threefour,,,,,,,,,,,,,,,,,,,,,,,,,,,,,,,,,,,,,,,,,,,,,,,,,,,,,,,,,,,,,,,,,,,,,,,,,,,,,,,,,,,,,,,,,,,,,,,,,,,,,,,,,,,,,,,,,,,,,,,,,,,,,,,,,,,,,,,,,
,,606798d5d3590d11fbd20111,2024-02-19_03h15.09.249,kallum_motion_pilot,2023.2.2,Win32,74.62686567,606798d5d3590d11fbd20111,65d2b6c8f2eece985d8e374c,65d2b98b424f1685f09383f8,0.044,0.0441,0,43,43,48,1,onetwo,,,,,,,,,,,,,,,,,,,,,,,,,,,,,,,,,,,,,,,,,,,,,,,,,,,,,,,,,,,,,,,,,,,,,,,,,,,,,,,,,,,,,,,,,,,,,,,,,,,,,,,,,,,,,,,,,,,,,,,,,,,,,,,,,,,,,,,,,
,,606798d5d3590d11fbd20111,2024-02-19_03h15.09.249,kallum_motion_pilot,2023.2.2,Win32,74.62686567,606798d5d3590d11fbd20111,65d2b6c8f2eece985d8e374c,65d2b98b424f1685f09383f8,0.0442,0.0442,0,44,44,8,1,onetwo,,,,,,,,,,,,,,,,,,,,,,,,,,,,,,,,,,,,,,,,,,,,,,,,,,,,,,,,,,,,,,,,,,,,,,,,,,,,,,,,,,,,,,,,,,,,,,,,,,,,,,,,,,,,,,,,,,,,,,,,,,,,,,,,,,,,,,,,,
,,606798d5d3590d11fbd20111,2024-02-19_03h15.09.249,kallum_motion_pilot,2023.2.2,Win32,74.62686567,606798d5d3590d11fbd20111,65d2b6c8f2eece985d8e374c,65d2b98b424f1685f09383f8,0.0444,0.0445,0,45,45,42,1,twoone,,,,,,,,,,,,,,,,,,,,,,,,,,,,,,,,,,,,,,,,,,,,,,,,,,,,,,,,,,,,,,,,,,,,,,,,,,,,,,,,,,,,,,,,,,,,,,,,,,,,,,,,,,,,,,,,,,,,,,,,,,,,,,,,,,,,,,,,,
,,606798d5d3590d11fbd20111,2024-02-19_03h15.09.249,kallum_motion_pilot,2023.2.2,Win32,74.62686567,606798d5d3590d11fbd20111,65d2b6c8f2eece985d8e374c,65d2b98b424f1685f09383f8,0.0446,0.0446,0,46,46,117,1,seveneight,,,,,,,,,,,,,,,,,,,,,,,,,,,,,,,,,,,,,,,,,,,,,,,,,,,,,,,,,,,,,,,,,,,,,,,,,,,,,,,,,,,,,,,,,,,,,,,,,,,,,,,,,,,,,,,,,,,,,,,,,,,,,,,,,,,,,,,,,
,,606798d5d3590d11fbd20111,2024-02-19_03h15.09.249,kallum_motion_pilot,2023.2.2,Win32,74.62686567,606798d5d3590d11fbd20111,65d2b6c8f2eece985d8e374c,65d2b98b424f1685f09383f8,0.0447,0.0448,0,47,47,127,1,eightseven,,,,,,,,,,,,,,,,,,,,,,,,,,,,,,,,,,,,,,,,,,,,,,,,,,,,,,,,,,,,,,,,,,,,,,,,,,,,,,,,,,,,,,,,,,,,,,,,,,,,,,,,,,,,,,,,,,,,,,,,,,,,,,,,,,,,,,,,,
,,606798d5d3590d11fbd20111,2024-02-19_03h15.09.249,kallum_motion_pilot,2023.2.2,Win32,74.62686567,606798d5d3590d11fbd20111,65d2b6c8f2eece985d8e374c,65d2b98b424f1685f09383f8,0.0448,0.0449,0,48,48,79,1,eightseven,,,,,,,,,,,,,,,,,,,,,,,,,,,,,,,,,,,,,,,,,,,,,,,,,,,,,,,,,,,,,,,,,,,,,,,,,,,,,,,,,,,,,,,,,,,,,,,,,,,,,,,,,,,,,,,,,,,,,,,,,,,,,,,,,,,,,,,,,
,,606798d5d3590d11fbd20111,2024-02-19_03h15.09.249,kallum_motion_pilot,2023.2.2,Win32,74.62686567,606798d5d3590d11fbd20111,65d2b6c8f2eece985d8e374c,65d2b98b424f1685f09383f8,0.045,0.045,0,49,49,139,1,sixeight,,,,,,,,,,,,,,,,,,,,,,,,,,,,,,,,,,,,,,,,,,,,,,,,,,,,,,,,,,,,,,,,,,,,,,,,,,,,,,,,,,,,,,,,,,,,,,,,,,,,,,,,,,,,,,,,,,,,,,,,,,,,,,,,,,,,,,,,,
,,606798d5d3590d11fbd20111,2024-02-19_03h15.09.249,kallum_motion_pilot,2023.2.2,Win32,74.62686567,606798d5d3590d11fbd20111,65d2b6c8f2eece985d8e374c,65d2b98b424f1685f09383f8,0.0452,0.0452,0,50,50,20,1,threeone,,,,,,,,,,,,,,,,,,,,,,,,,,,,,,,,,,,,,,,,,,,,,,,,,,,,,,,,,,,,,,,,,,,,,,,,,,,,,,,,,,,,,,,,,,,,,,,,,,,,,,,,,,,,,,,,,,,,,,,,,,,,,,,,,,,,,,,,,
,,606798d5d3590d11fbd20111,2024-02-19_03h15.09.249,kallum_motion_pilot,2023.2.2,Win32,74.62686567,606798d5d3590d11fbd20111,65d2b6c8f2eece985d8e374c,65d2b98b424f1685f09383f8,0.0453,0.0454,0,51,51,161,1,fiveseven,,,,,,,,,,,,,,,,,,,,,,,,,,,,,,,,,,,,,,,,,,,,,,,,,,,,,,,,,,,,,,,,,,,,,,,,,,,,,,,,,,,,,,,,,,,,,,,,,,,,,,,,,,,,,,,,,,,,,,,,,,,,,,,,,,,,,,,,,
,,606798d5d3590d11fbd20111,2024-02-19_03h15.09.249,kallum_motion_pilot,2023.2.2,Win32,74.62686567,606798d5d3590d11fbd20111,65d2b6c8f2eece985d8e374c,65d2b98b424f1685f09383f8,0.0455,0.0455,0,52,52,98,1,sixfive,,,,,,,,,,,,,,,,,,,,,,,,,,,,,,,,,,,,,,,,,,,,,,,,,,,,,,,,,,,,,,,,,,,,,,,,,,,,,,,,,,,,,,,,,,,,,,,,,,,,,,,,,,,,,,,,,,,,,,,,,,,,,,,,,,,,,,,,,
,,606798d5d3590d11fbd20111,2024-02-19_03h15.09.249,kallum_motion_pilot,2023.2.2,Win32,74.62686567,606798d5d3590d11fbd20111,65d2b6c8f2eece985d8e374c,65d2b98b424f1685f09383f8,0.0469,0.0471,0,53,53,97,1,fiveseven,,,,,,,,,,,,,,,,,,,,,,,,,,,,,,,,,,,,,,,,,,,,,,,,,,,,,,,,,,,,,,,,,,,,,,,,,,,,,,,,,,,,,,,,,,,,,,,,,,,,,,,,,,,,,,,,,,,,,,,,,,,,,,,,,,,,,,,,,
,,606798d5d3590d11fbd20111,2024-02-19_03h15.09.249,kallum_motion_pilot,2023.2.2,Win32,74.62686567,606798d5d3590d11fbd20111,65d2b6c8f2eece985d8e374c,65d2b98b424f1685f09383f8,0.0473,0.0473,0,54,54,40,1,onetwo,,,,,,,,,,,,,,,,,,,,,,,,,,,,,,,,,,,,,,,,,,,,,,,,,,,,,,,,,,,,,,,,,,,,,,,,,,,,,,,,,,,,,,,,,,,,,,,,,,,,,,,,,,,,,,,,,,,,,,,,,,,,,,,,,,,,,,,,,
,,606798d5d3590d11fbd20111,2024-02-19_03h15.09.249,kallum_motion_pilot,2023.2.2,Win32,74.62686567,606798d5d3590d11fbd20111,65d2b6c8f2eece985d8e374c,65d2b98b424f1685f09383f8,0.0475,0.0476,0,55,55,21,1,threefour,,,,,,,,,,,,,,,,,,,,,,,,,,,,,,,,,,,,,,,,,,,,,,,,,,,,,,,,,,,,,,,,,,,,,,,,,,,,,,,,,,,,,,,,,,,,,,,,,,,,,,,,,,,,,,,,,,,,,,,,,,,,,,,,,,,,,,,,,
,,606798d5d3590d11fbd20111,2024-02-19_03h15.09.249,kallum_motion_pilot,2023.2.2,Win32,74.62686567,606798d5d3590d11fbd20111,65d2b6c8f2eece985d8e374c,65d2b98b424f1685f09383f8,0.0478,0.0478,0,56,56,30,1,fourtwo,,,,,,,,,,,,,,,,,,,,,,,,,,,,,,,,,,,,,,,,,,,,,,,,,,,,,,,,,,,,,,,,,,,,,,,,,,,,,,,,,,,,,,,,,,,,,,,,,,,,,,,,,,,,,,,,,,,,,,,,,,,,,,,,,,,,,,,,,
,,606798d5d3590d11fbd20111,2024-02-19_03h15.09.249,kallum_motion_pilot,2023.2.2,Win32,74.62686567,606798d5d3590d11fbd20111,65d2b6c8f2eece985d8e374c,65d2b98b424f1685f09383f8,0.0481,0.0482,0,57,57,100,1,sevenfive,,,,,,,,,,,,,,,,,,,,,,,,,,,,,,,,,,,,,,,,,,,,,,,,,,,,,,,,,,,,,,,,,,,,,,,,,,,,,,,,,,,,,,,,,,,,,,,,,,,,,,,,,,,,,,,,,,,,,,,,,,,,,,,,,,,,,,,,,
,,606798d5d3590d11fbd20111,2024-02-19_03h15.09.249,kallum_motion_pilot,2023.2.2,Win32,74.62686567,606798d5d3590d11fbd20111,65d2b6c8f2eece985d8e374c,65d2b98b424f1685f09383f8,0.0483,0.0484,0,58,58,37,1,threefour,,,,,,,,,,,,,,,,,,,,,,,,,,,,,,,,,,,,,,,,,,,,,,,,,,,,,,,,,,,,,,,,,,,,,,,,,,,,,,,,,,,,,,,,,,,,,,,,,,,,,,,,,,,,,,,,,,,,,,,,,,,,,,,,,,,,,,,,,
,,606798d5d3590d11fbd20111,2024-02-19_03h15.09.249,kallum_motion_pilot,2023.2.2,Win32,74.62686567,606798d5d3590d11fbd20111,65d2b6c8f2eece985d8e374c,65d2b98b424f1685f09383f8,0.0485,0.0486,0,59,59,32,1,onetwo,,,,,,,,,,,,,,,,,,,,,,,,,,,,,,,,,,,,,,,,,,,,,,,,,,,,,,,,,,,,,,,,,,,,,,,,,,,,,,,,,,,,,,,,,,,,,,,,,,,,,,,,,,,,,,,,,,,,,,,,,,,,,,,,,,,,,,,,,
,,606798d5d3590d11fbd20111,2024-02-19_03h15.09.249,kallum_motion_pilot,2023.2.2,Win32,74.62686567,606798d5d3590d11fbd20111,65d2b6c8f2eece985d8e374c,65d2b98b424f1685f09383f8,0.0487,0.0487,0,60,60,143,1,eightseven,,,,,,,,,,,,,,,,,,,,,,,,,,,,,,,,,,,,,,,,,,,,,,,,,,,,,,,,,,,,,,,,,,,,,,,,,,,,,,,,,,,,,,,,,,,,,,,,,,,,,,,,,,,,,,,,,,,,,,,,,,,,,,,,,,,,,,,,,
,,606798d5d3590d11fbd20111,2024-02-19_03h15.09.249,kallum_motion_pilot,2023.2.2,Win32,74.62686567,606798d5d3590d11fbd20111,65d2b6c8f2eece985d8e374c,65d2b98b424f1685f09383f8,0.0488,0.0488,0,61,61,15,1,fourthree,,,,,,,,,,,,,,,,,,,,,,,,,,,,,,,,,,,,,,,,,,,,,,,,,,,,,,,,,,,,,,,,,,,,,,,,,,,,,,,,,,,,,,,,,,,,,,,,,,,,,,,,,,,,,,,,,,,,,,,,,,,,,,,,,,,,,,,,,
,,606798d5d3590d11fbd20111,2024-02-19_03h15.09.249,kallum_motion_pilot,2023.2.2,Win32,74.62686567,606798d5d3590d11fbd20111,65d2b6c8f2eece985d8e374c,65d2b98b424f1685f09383f8,0.049,0.0491,0,62,62,85,1,seveneight,,,,,,,,,,,,,,,,,,,,,,,,,,,,,,,,,,,,,,,,,,,,,,,,,,,,,,,,,,,,,,,,,,,,,,,,,,,,,,,,,,,,,,,,,,,,,,,,,,,,,,,,,,,,,,,,,,,,,,,,,,,,,,,,,,,,,,,,,
,,606798d5d3590d11fbd20111,2024-02-19_03h15.09.249,kallum_motion_pilot,2023.2.2,Win32,74.62686567,606798d5d3590d11fbd20111,65d2b6c8f2eece985d8e374c,65d2b98b424f1685f09383f8,0.0492,0.0492,0,63,63,68,1,threeone,,,,,,,,,,,,,,,,,,,,,,,,,,,,,,,,,,,,,,,,,,,,,,,,,,,,,,,,,,,,,,,,,,,,,,,,,,,,,,,,,,,,,,,,,,,,,,,,,,,,,,,,,,,,,,,,,,,,,,,,,,,,,,,,,,,,,,,,,
,,606798d5d3590d11fbd20111,2024-02-19_03h15.09.249,kallum_motion_pilot,2023.2.2,Win32,74.62686567,606798d5d3590d11fbd20111,65d2b6c8f2eece985d8e374c,65d2b98b424f1685f09383f8,0.0493,0.0494,0,64,64,36,1,threeone,,,,,,,,,,,,,,,,,,,,,,,,,,,,,,,,,,,,,,,,,,,,,,,,,,,,,,,,,,,,,,,,,,,,,,,,,,,,,,,,,,,,,,,,,,,,,,,,,,,,,,,,,,,,,,,,,,,,,,,,,,,,,,,,,,,,,,,,,
,,606798d5d3590d11fbd20111,2024-02-19_03h15.09.249,kallum_motion_pilot,2023.2.2,Win32,74.62686567,606798d5d3590d11fbd20111,65d2b6c8f2eece985d8e374c,65d2b98b424f1685f09383f8,0.0496,0.0496,0,65,65,112,1,fivesix,,,,,,,,,,,,,,,,,,,,,,,,,,,,,,,,,,,,,,,,,,,,,,,,,,,,,,,,,,,,,,,,,,,,,,,,,,,,,,,,,,,,,,,,,,,,,,,,,,,,,,,,,,,,,,,,,,,,,,,,,,,,,,,,,,,,,,,,,
,,606798d5d3590d11fbd20111,2024-02-19_03h15.09.249,kallum_motion_pilot,2023.2.2,Win32,74.62686567,606798d5d3590d11fbd20111,65d2b6c8f2eece985d8e374c,65d2b98b424f1685f09383f8,0.0497,0.0498,0,66,66,31,1,fourthree,,,,,,,,,,,,,,,,,,,,,,,,,,,,,,,,,,,,,,,,,,,,,,,,,,,,,,,,,,,,,,,,,,,,,,,,,,,,,,,,,,,,,,,,,,,,,,,,,,,,,,,,,,,,,,,,,,,,,,,,,,,,,,,,,,,,,,,,,
,,606798d5d3590d11fbd20111,2024-02-19_03h15.09.249,kallum_motion_pilot,2023.2.2,Win32,74.62686567,606798d5d3590d11fbd20111,65d2b6c8f2eece985d8e374c,65d2b98b424f1685f09383f8,0.0499,0.0499,0,67,67,59,1,twofour,,,,,,,,,,,,,,,,,,,,,,,,,,,,,,,,,,,,,,,,,,,,,,,,,,,,,,,,,,,,,,,,,,,,,,,,,,,,,,,,,,,,,,,,,,,,,,,,,,,,,,,,,,,,,,,,,,,,,,,,,,,,,,,,,,,,,,,,,
,,606798d5d3590d11fbd20111,2024-02-19_03h15.09.249,kallum_motion_pilot,2023.2.2,Win32,74.62686567,606798d5d3590d11fbd20111,65d2b6c8f2eece985d8e374c,65d2b98b424f1685f09383f8,0.0501,0.0501,0,68,68,74,1,twoone,,,,,,,,,,,,,,,,,,,,,,,,,,,,,,,,,,,,,,,,,,,,,,,,,,,,,,,,,,,,,,,,,,,,,,,,,,,,,,,,,,,,,,,,,,,,,,,,,,,,,,,,,,,,,,,,,,,,,,,,,,,,,,,,,,,,,,,,,
,,606798d5d3590d11fbd20111,2024-02-19_03h15.09.249,kallum_motion_pilot,2023.2.2,Win32,74.62686567,606798d5d3590d11fbd20111,65d2b6c8f2eece985d8e374c,65d2b98b424f1685f09383f8,0.0502,0.0502,0,69,69,132,1,sevenfive,,,,,,,,,,,,,,,,,,,,,,,,,,,,,,,,,,,,,,,,,,,,,,,,,,,,,,,,,,,,,,,,,,,,,,,,,,,,,,,,,,,,,,,,,,,,,,,,,,,,,,,,,,,,,,,,,,,,,,,,,,,,,,,,,,,,,,,,,
,,606798d5d3590d11fbd20111,2024-02-19_03h15.09.249,kallum_motion_pilot,2023.2.2,Win32,74.62686567,606798d5d3590d11fbd20111,65d2b6c8f2eece985d8e374c,65d2b98b424f1685f09383f8,0.0503,0.0504,0,70,70,153,1,fiveseven,,,,,,,,,,,,,,,,,,,,,,,,,,,,,,,,,,,,,,,,,,,,,,,,,,,,,,,,,,,,,,,,,,,,,,,,,,,,,,,,,,,,,,,,,,,,,,,,,,,,,,,,,,,,,,,,,,,,,,,,,,,,,,,,,,,,,,,,,
,,606798d5d3590d11fbd20111,2024-02-19_03h15.09.249,kallum_motion_pilot,2023.2.2,Win32,74.62686567,606798d5d3590d11fbd20111,65d2b6c8f2eece985d8e374c,65d2b98b424f1685f09383f8,0.0504,0.0504,0,71,71,57,1,onethree,,,,,,,,,,,,,,,,,,,,,,,,,,,,,,,,,,,,,,,,,,,,,,,,,,,,,,,,,,,,,,,,,,,,,,,,,,,,,,,,,,,,,,,,,,,,,,,,,,,,,,,,,,,,,,,,,,,,,,,,,,,,,,,,,,,,,,,,,
,,606798d5d3590d11fbd20111,2024-02-19_03h15.09.249,kallum_motion_pilot,2023.2.2,Win32,74.62686567,606798d5d3590d11fbd20111,65d2b6c8f2eece985d8e374c,65d2b98b424f1685f09383f8,0.0505,0.0505,0,72,72,91,1,sixeight,,,,,,,,,,,,,,,,,,,,,,,,,,,,,,,,,,,,,,,,,,,,,,,,,,,,,,,,,,,,,,,,,,,,,,,,,,,,,,,,,,,,,,,,,,,,,,,,,,,,,,,,,,,,,,,,,,,,,,,,,,,,,,,,,,,,,,,,,
,,606798d5d3590d11fbd20111,2024-02-19_03h15.09.249,kallum_motion_pilot,2023.2.2,Win32,74.62686567,606798d5d3590d11fbd20111,65d2b6c8f2eece985d8e374c,65d2b98b424f1685f09383f8,0.0506,0.0506,0,73,73,69,1,threefour,,,,,,,,,,,,,,,,,,,,,,,,,,,,,,,,,,,,,,,,,,,,,,,,,,,,,,,,,,,,,,,,,,,,,,,,,,,,,,,,,,,,,,,,,,,,,,,,,,,,,,,,,,,,,,,,,,,,,,,,,,,,,,,,,,,,,,,,,
,,606798d5d3590d11fbd20111,2024-02-19_03h15.09.249,kallum_motion_pilot,2023.2.2,Win32,74.62686567,606798d5d3590d11fbd20111,65d2b6c8f2eece985d8e374c,65d2b98b424f1685f09383f8,0.0506,0.0508,0,74,74,138,1,sixfive,,,,,,,,,,,,,,,,,,,,,,,,,,,,,,,,,,,,,,,,,,,,,,,,,,,,,,,,,,,,,,,,,,,,,,,,,,,,,,,,,,,,,,,,,,,,,,,,,,,,,,,,,,,,,,,,,,,,,,,,,,,,,,,,,,,,,,,,,
,,606798d5d3590d11fbd20111,2024-02-19_03h15.09.249,kallum_motion_pilot,2023.2.2,Win32,74.62686567,606798d5d3590d11fbd20111,65d2b6c8f2eece985d8e374c,65d2b98b424f1685f09383f8,0.0508,0.0509,0,75,75,78,1,fourtwo,,,,,,,,,,,,,,,,,,,,,,,,,,,,,,,,,,,,,,,,,,,,,,,,,,,,,,,,,,,,,,,,,,,,,,,,,,,,,,,,,,,,,,,,,,,,,,,,,,,,,,,,,,,,,,,,,,,,,,,,,,,,,,,,,,,,,,,,,
,,606798d5d3590d11fbd20111,2024-02-19_03h15.09.249,kallum_motion_pilot,2023.2.2,Win32,74.62686567,606798d5d3590d11fbd20111,65d2b6c8f2eece985d8e374c,65d2b98b424f1685f09383f8,0.0509,0.0509,0,76,76,35,1,twofour,,,,,,,,,,,,,,,,,,,,,,,,,,,,,,,,,,,,,,,,,,,,,,,,,,,,,,,,,,,,,,,,,,,,,,,,,,,,,,,,,,,,,,,,,,,,,,,,,,,,,,,,,,,,,,,,,,,,,,,,,,,,,,,,,,,,,,,,,
,,606798d5d3590d11fbd20111,2024-02-19_03h15.09.249,kallum_motion_pilot,2023.2.2,Win32,74.62686567,606798d5d3590d11fbd20111,65d2b6c8f2eece985d8e374c,65d2b98b424f1685f09383f8,0.051,0.051,0,77,77,13,1,threefour,,,,,,,,,,,,,,,,,,,,,,,,,,,,,,,,,,,,,,,,,,,,,,,,,,,,,,,,,,,,,,,,,,,,,,,,,,,,,,,,,,,,,,,,,,,,,,,,,,,,,,,,,,,,,,,,,,,,,,,,,,,,,,,,,,,,,,,,,
,,606798d5d3590d11fbd20111,2024-02-19_03h15.09.249,kallum_motion_pilot,2023.2.2,Win32,74.62686567,606798d5d3590d11fbd20111,65d2b6c8f2eece985d8e374c,65d2b98b424f1685f09383f8,0.0511,0.0511,0,78,78,67,1,twofour,,,,,,,,,,,,,,,,,,,,,,,,,,,,,,,,,,,,,,,,,,,,,,,,,,,,,,,,,,,,,,,,,,,,,,,,,,,,,,,,,,,,,,,,,,,,,,,,,,,,,,,,,,,,,,,,,,,,,,,,,,,,,,,,,,,,,,,,,
,,606798d5d3590d11fbd20111,2024-02-19_03h15.09.249,kallum_motion_pilot,2023.2.2,Win32,74.62686567,606798d5d3590d11fbd20111,65d2b6c8f2eece985d8e374c,65d2b98b424f1685f09383f8,0.0512,0.0512,0,79,79,66,1,twoone,,,,,,,,,,,,,,,,,,,,,,,,,,,,,,,,,,,,,,,,,,,,,,,,,,,,,,,,,,,,,,,,,,,,,,,,,,,,,,,,,,,,,,,,,,,,,,,,,,,,,,,,,,,,,,,,,,,,,,,,,,,,,,,,,,,,,,,,,
,,606798d5d3590d11fbd20111,2024-02-19_03h15.09.249,kallum_motion_pilot,2023.2.2,Win32,74.62686567,606798d5d3590d11fbd20111,65d2b6c8f2eece985d8e374c,65d2b98b424f1685f09383f8,0.0513,0.0513,0,80,80,95,1,eightseven,,,,,,,,,,,,,,,,,,,,,,,,,,,,,,,,,,,,,,,,,,,,,,,,,,,,,,,,,,,,,,,,,,,,,,,,,,,,,,,,,,,,,,,,,,,,,,,,,,,,,,,,,,,,,,,,,,,,,,,,,,,,,,,,,,,,,,,,,
,,606798d5d3590d11fbd20111,2024-02-19_03h15.09.249,kallum_motion_pilot,2023.2.2,Win32,74.62686567,606798d5d3590d11fbd20111,65d2b6c8f2eece985d8e374c,65d2b98b424f1685f09383f8,0.0514,0.0514,0,81,81,142,1,eightsix,,,,,,,,,,,,,,,,,,,,,,,,,,,,,,,,,,,,,,,,,,,,,,,,,,,,,,,,,,,,,,,,,,,,,,,,,,,,,,,,,,,,,,,,,,,,,,,,,,,,,,,,,,,,,,,,,,,,,,,,,,,,,,,,,,,,,,,,,
,,606798d5d3590d11fbd20111,2024-02-19_03h15.09.249,kallum_motion_pilot,2023.2.2,Win32,74.62686567,606798d5d3590d11fbd20111,65d2b6c8f2eece985d8e374c,65d2b98b424f1685f09383f8,0.0515,0.0515,0,82,82,104,1,fivesix,,,,,,,,,,,,,,,,,,,,,,,,,,,,,,,,,,,,,,,,,,,,,,,,,,,,,,,,,,,,,,,,,,,,,,,,,,,,,,,,,,,,,,,,,,,,,,,,,,,,,,,,,,,,,,,,,,,,,,,,,,,,,,,,,,,,,,,,,
,,606798d5d3590d11fbd20111,2024-02-19_03h15.09.249,kallum_motion_pilot,2023.2.2,Win32,74.62686567,606798d5d3590d11fbd20111,65d2b6c8f2eece985d8e374c,65d2b98b424f1685f09383f8,0.0516,0.0516,0,83,83,72,1,onetwo,,,,,,,,,,,,,,,,,,,,,,,,,,,,,,,,,,,,,,,,,,,,,,,,,,,,,,,,,,,,,,,,,,,,,,,,,,,,,,,,,,,,,,,,,,,,,,,,,,,,,,,,,,,,,,,,,,,,,,,,,,,,,,,,,,,,,,,,,
,,606798d5d3590d11fbd20111,2024-02-19_03h15.09.249,kallum_motion_pilot,2023.2.2,Win32,74.62686567,606798d5d3590d11fbd20111,65d2b6c8f2eece985d8e374c,65d2b98b424f1685f09383f8,0.0517,0.0517,0,84,84,43,1,twofour,,,,,,,,,,,,,,,,,,,,,,,,,,,,,,,,,,,,,,,,,,,,,,,,,,,,,,,,,,,,,,,,,,,,,,,,,,,,,,,,,,,,,,,,,,,,,,,,,,,,,,,,,,,,,,,,,,,,,,,,,,,,,,,,,,,,,,,,,
,,606798d5d3590d11fbd20111,2024-02-19_03h15.09.249,kallum_motion_pilot,2023.2.2,Win32,74.62686567,606798d5d3590d11fbd20111,65d2b6c8f2eece985d8e374c,65d2b98b424f1685f09383f8,0.0518,0.0519,0,85,85,61,1,threefour,,,,,,,,,,,,,,,,,,,,,,,,,,,,,,,,,,,,,,,,,,,,,,,,,,,,,,,,,,,,,,,,,,,,,,,,,,,,,,,,,,,,,,,,,,,,,,,,,,,,,,,,,,,,,,,,,,,,,,,,,,,,,,,,,,,,,,,,,
,,606798d5d3590d11fbd20111,2024-02-19_03h15.09.249,kallum_motion_pilot,2023.2.2,Win32,74.62686567,606798d5d3590d11fbd20111,65d2b6c8f2eece985d8e374c,65d2b98b424f1685f09383f8,0.0519,0.052,0,86,86,38,1,fourtwo,,,,,,,,,,,,,,,,,,,,,,,,,,,,,,,,,,,,,,,,,,,,,,,,,,,,,,,,,,,,,,,,,,,,,,,,,,,,,,,,,,,,,,,,,,,,,,,,,,,,,,,,,,,,,,,,,,,,,,,,,,,,,,,,,,,,,,,,,
,,606798d5d3590d11fbd20111,2024-02-19_03h15.09.249,kallum_motion_pilot,2023.2.2,Win32,74.62686567,606798d5d3590d11fbd20111,65d2b6c8f2eece985d8e374c,65d2b98b424f1685f09383f8,0.052,0.052,0,87,87,47,1,fourthree,,,,,,,,,,,,,,,,,,,,,,,,,,,,,,,,,,,,,,,,,,,,,,,,,,,,,,,,,,,,,,,,,,,,,,,,,,,,,,,,,,,,,,,,,,,,,,,,,,,,,,,,,,,,,,,,,,,,,,,,,,,,,,,,,,,,,,,,,
,,606798d5d3590d11fbd20111,2024-02-19_03h15.09.249,kallum_motion_pilot,2023.2.2,Win32,74.62686567,606798d5d3590d11fbd20111,65d2b6c8f2eece985d8e374c,65d2b98b424f1685f09383f8,0.0522,0.0523,0,88,88,111,1,eightseven,,,,,,,,,,,,,,,,,,,,,,,,,,,,,,,,,,,,,,,,,,,,,,,,,,,,,,,,,,,,,,,,,,,,,,,,,,,,,,,,,,,,,,,,,,,,,,,,,,,,,,,,,,,,,,,,,,,,,,,,,,,,,,,,,,,,,,,,,
,,606798d5d3590d11fbd20111,2024-02-19_03h15.09.249,kallum_motion_pilot,2023.2.2,Win32,74.62686567,606798d5d3590d11fbd20111,65d2b6c8f2eece985d8e374c,65d2b98b424f1685f09383f8,0.0524,0.0525,0,89,89,130,1,sixfive,,,,,,,,,,,,,,,,,,,,,,,,,,,,,,,,,,,,,,,,,,,,,,,,,,,,,,,,,,,,,,,,,,,,,,,,,,,,,,,,,,,,,,,,,,,,,,,,,,,,,,,,,,,,,,,,,,,,,,,,,,,,,,,,,,,,,,,,,
,,606798d5d3590d11fbd20111,2024-02-19_03h15.09.249,kallum_motion_pilot,2023.2.2,Win32,74.62686567,606798d5d3590d11fbd20111,65d2b6c8f2eece985d8e374c,65d2b98b424f1685f09383f8,0.0526,0.0527,0,90,90,9,1,onethree,,,,,,,,,,,,,,,,,,,,,,,,,,,,,,,,,,,,,,,,,,,,,,,,,,,,,,,,,,,,,,,,,,,,,,,,,,,,,,,,,,,,,,,,,,,,,,,,,,,,,,,,,,,,,,,,,,,,,,,,,,,,,,,,,,,,,,,,,
,,606798d5d3590d11fbd20111,2024-02-19_03h15.09.249,kallum_motion_pilot,2023.2.2,Win32,74.62686567,606798d5d3590d11fbd20111,65d2b6c8f2eece985d8e374c,65d2b98b424f1685f09383f8,0.0528,0.0528,0,91,91,106,1,sixfive,,,,,,,,,,,,,,,,,,,,,,,,,,,,,,,,,,,,,,,,,,,,,,,,,,,,,,,,,,,,,,,,,,,,,,,,,,,,,,,,,,,,,,,,,,,,,,,,,,,,,,,,,,,,,,,,,,,,,,,,,,,,,,,,,,,,,,,,,
,,606798d5d3590d11fbd20111,2024-02-19_03h15.09.249,kallum_motion_pilot,2023.2.2,Win32,74.62686567,606798d5d3590d11fbd20111,65d2b6c8f2eece985d8e374c,65d2b98b424f1685f09383f8,0.0529,0.053,0,92,92,19,1,twofour,,,,,,,,,,,,,,,,,,,,,,,,,,,,,,,,,,,,,,,,,,,,,,,,,,,,,,,,,,,,,,,,,,,,,,,,,,,,,,,,,,,,,,,,,,,,,,,,,,,,,,,,,,,,,,,,,,,,,,,,,,,,,,,,,,,,,,,,,
,,606798d5d3590d11fbd20111,2024-02-19_03h15.09.249,kallum_motion_pilot,2023.2.2,Win32,74.62686567,606798d5d3590d11fbd20111,65d2b6c8f2eece985d8e374c,65d2b98b424f1685f09383f8,0.053,0.0532,0,93,93,49,1,onethree,,,,,,,,,,,,,,,,,,,,,,,,,,,,,,,,,,,,,,,,,,,,,,,,,,,,,,,,,,,,,,,,,,,,,,,,,,,,,,,,,,,,,,,,,,,,,,,,,,,,,,,,,,,,,,,,,,,,,,,,,,,,,,,,,,,,,,,,,
,,606798d5d3590d11fbd20111,2024-02-19_03h15.09.249,kallum_motion_pilot,2023.2.2,Win32,74.62686567,606798d5d3590d11fbd20111,65d2b6c8f2eece985d8e374c,65d2b98b424f1685f09383f8,0.0532,0.0533,0,94,94,4,1,threeone,,,,,,,,,,,,,,,,,,,,,,,,,,,,,,,,,,,,,,,,,,,,,,,,,,,,,,,,,,,,,,,,,,,,,,,,,,,,,,,,,,,,,,,,,,,,,,,,,,,,,,,,,,,,,,,,,,,,,,,,,,,,,,,,,,,,,,,,,
,,606798d5d3590d11fbd20111,2024-02-19_03h15.09.249,kallum_motion_pilot,2023.2.2,Win32,74.62686567,606798d5d3590d11fbd20111,65d2b6c8f2eece985d8e374c,65d2b98b424f1685f09383f8,0.0534,0.0535,0,95,95,101,1,seveneight,,,,,,,,,,,,,,,,,,,,,,,,,,,,,,,,,,,,,,,,,,,,,,,,,,,,,,,,,,,,,,,,,,,,,,,,,,,,,,,,,,,,,,,,,,,,,,,,,,,,,,,,,,,,,,,,,,,,,,,,,,,,,,,,,,,,,,,,,
,,606798d5d3590d11fbd20111,2024-02-19_03h15.09.249,kallum_motion_pilot,2023.2.2,Win32,74.62686567,606798d5d3590d11fbd20111,65d2b6c8f2eece985d8e374c,65d2b98b424f1685f09383f8,0.0536,0.0537,0,96,96,99,1,sixeight,,,,,,,,,,,,,,,,,,,,,,,,,,,,,,,,,,,,,,,,,,,,,,,,,,,,,,,,,,,,,,,,,,,,,,,,,,,,,,,,,,,,,,,,,,,,,,,,,,,,,,,,,,,,,,,,,,,,,,,,,,,,,,,,,,,,,,,,,
,,606798d5d3590d11fbd20111,2024-02-19_03h15.09.249,kallum_motion_pilot,2023.2.2,Win32,74.62686567,606798d5d3590d11fbd20111,65d2b6c8f2eece985d8e374c,65d2b98b424f1685f09383f8,0.0538,0.0538,0,97,97,160,1,fivesix,,,,,,,,,,,,,,,,,,,,,,,,,,,,,,,,,,,,,,,,,,,,,,,,,,,,,,,,,,,,,,,,,,,,,,,,,,,,,,,,,,,,,,,,,,,,,,,,,,,,,,,,,,,,,,,,,,,,,,,,,,,,,,,,,,,,,,,,,
,,606798d5d3590d11fbd20111,2024-02-19_03h15.09.249,kallum_motion_pilot,2023.2.2,Win32,74.62686567,606798d5d3590d11fbd20111,65d2b6c8f2eece985d8e374c,65d2b98b424f1685f09383f8,0.0539,0.054,0,98,98,156,1,sevenfive,,,,,,,,,,,,,,,,,,,,,,,,,,,,,,,,,,,,,,,,,,,,,,,,,,,,,,,,,,,,,,,,,,,,,,,,,,,,,,,,,,,,,,,,,,,,,,,,,,,,,,,,,,,,,,,,,,,,,,,,,,,,,,,,,,,,,,,,,
,,606798d5d3590d11fbd20111,2024-02-19_03h15.09.249,kallum_motion_pilot,2023.2.2,Win32,74.62686567,606798d5d3590d11fbd20111,65d2b6c8f2eece985d8e374c,65d2b98b424f1685f09383f8,0.054,0.0541,0,99,99,7,1,fourthree,,,,,,,,,,,,,,,,,,,,,,,,,,,,,,,,,,,,,,,,,,,,,,,,,,,,,,,,,,,,,,,,,,,,,,,,,,,,,,,,,,,,,,,,,,,,,,,,,,,,,,,,,,,,,,,,,,,,,,,,,,,,,,,,,,,,,,,,,
,,606798d5d3590d11fbd20111,2024-02-19_03h15.09.249,kallum_motion_pilot,2023.2.2,Win32,74.62686567,606798d5d3590d11fbd20111,65d2b6c8f2eece985d8e374c,65d2b98b424f1685f09383f8,0.0542,0.0543,0,100,100,96,1,fivesix,,,,,,,,,,,,,,,,,,,,,,,,,,,,,,,,,,,,,,,,,,,,,,,,,,,,,,,,,,,,,,,,,,,,,,,,,,,,,,,,,,,,,,,,,,,,,,,,,,,,,,,,,,,,,,,,,,,,,,,,,,,,,,,,,,,,,,,,,
,,606798d5d3590d11fbd20111,2024-02-19_03h15.09.249,kallum_motion_pilot,2023.2.2,Win32,74.62686567,606798d5d3590d11fbd20111,65d2b6c8f2eece985d8e374c,65d2b98b424f1685f09383f8,0.0544,0.0544,0,101,101,17,1,onethree,,,,,,,,,,,,,,,,,,,,,,,,,,,,,,,,,,,,,,,,,,,,,,,,,,,,,,,,,,,,,,,,,,,,,,,,,,,,,,,,,,,,,,,,,,,,,,,,,,,,,,,,,,,,,,,,,,,,,,,,,,,,,,,,,,,,,,,,,
,,606798d5d3590d11fbd20111,2024-02-19_03h15.09.249,kallum_motion_pilot,2023.2.2,Win32,74.62686567,606798d5d3590d11fbd20111,65d2b6c8f2eece985d8e374c,65d2b98b424f1685f09383f8,0.0545,0.0547,0,102,102,150,1,eightsix,,,,,,,,,,,,,,,,,,,,,,,,,,,,,,,,,,,,,,,,,,,,,,,,,,,,,,,,,,,,,,,,,,,,,,,,,,,,,,,,,,,,,,,,,,,,,,,,,,,,,,,,,,,,,,,,,,,,,,,,,,,,,,,,,,,,,,,,,
,,606798d5d3590d11fbd20111,2024-02-19_03h15.09.249,kallum_motion_pilot,2023.2.2,Win32,74.62686567,606798d5d3590d11fbd20111,65d2b6c8f2eece985d8e374c,65d2b98b424f1685f09383f8,0.0548,0.0548,0,103,103,129,1,fiveseven,,,,,,,,,,,,,,,,,,,,,,,,,,,,,,,,,,,,,,,,,,,,,,,,,,,,,,,,,,,,,,,,,,,,,,,,,,,,,,,,,,,,,,,,,,,,,,,,,,,,,,,,,,,,,,,,,,,,,,,,,,,,,,,,,,,,,,,,,
,,606798d5d3590d11fbd20111,2024-02-19_03h15.09.249,kallum_motion_pilot,2023.2.2,Win32,74.62686567,606798d5d3590d11fbd20111,65d2b6c8f2eece985d8e374c,65d2b98b424f1685f09383f8,0.055,0.0551,0,104,104,89,1,fiveseven,,,,,,,,,,,,,,,,,,,,,,,,,,,,,,,,,,,,,,,,,,,,,,,,,,,,,,,,,,,,,,,,,,,,,,,,,,,,,,,,,,,,,,,,,,,,,,,,,,,,,,,,,,,,,,,,,,,,,,,,,,,,,,,,,,,,,,,,,
,,606798d5d3590d11fbd20111,2024-02-19_03h15.09.249,kallum_motion_pilot,2023.2.2,Win32,74.62686567,606798d5d3590d11fbd20111,65d2b6c8f2eece985d8e374c,65d2b98b424f1685f09383f8,0.0551,0.0551,0,105,105,46,1,fourtwo,,,,,,,,,,,,,,,,,,,,,,,,,,,,,,,,,,,,,,,,,,,,,,,,,,,,,,,,,,,,,,,,,,,,,,,,,,,,,,,,,,,,,,,,,,,,,,,,,,,,,,,,,,,,,,,,,,,,,,,,,,,,,,,,,,,,,,,,,
,,606798d5d3590d11fbd20111,2024-02-19_03h15.09.249,kallum_motion_pilot,2023.2.2,Win32,74.62686567,606798d5d3590d11fbd20111,65d2b6c8f2eece985d8e374c,65d2b98b424f1685f09383f8,0.0552,0.0552,0,106,106,60,1,threeone,,,,,,,,,,,,,,,,,,,,,,,,,,,,,,,,,,,,,,,,,,,,,,,,,,,,,,,,,,,,,,,,,,,,,,,,,,,,,,,,,,,,,,,,,,,,,,,,,,,,,,,,,,,,,,,,,,,,,,,,,,,,,,,,,,,,,,,,,
,,606798d5d3590d11fbd20111,2024-02-19_03h15.09.249,kallum_motion_pilot,2023.2.2,Win32,74.62686567,606798d5d3590d11fbd20111,65d2b6c8f2eece985d8e374c,65d2b98b424f1685f09383f8,0.0554,0.0554,0,107,107,23,1,fourthree,,,,,,,,,,,,,,,,,,,,,,,,,,,,,,,,,,,,,,,,,,,,,,,,,,,,,,,,,,,,,,,,,,,,,,,,,,,,,,,,,,,,,,,,,,,,,,,,,,,,,,,,,,,,,,,,,,,,,,,,,,,,,,,,,,,,,,,,,
,,606798d5d3590d11fbd20111,2024-02-19_03h15.09.249,kallum_motion_pilot,2023.2.2,Win32,74.62686567,606798d5d3590d11fbd20111,65d2b6c8f2eece985d8e374c,65d2b98b424f1685f09383f8,0.0555,0.0556,0,108,108,152,1,fivesix,,,,,,,,,,,,,,,,,,,,,,,,,,,,,,,,,,,,,,,,,,,,,,,,,,,,,,,,,,,,,,,,,,,,,,,,,,,,,,,,,,,,,,,,,,,,,,,,,,,,,,,,,,,,,,,,,,,,,,,,,,,,,,,,,,,,,,,,,
,,606798d5d3590d11fbd20111,2024-02-19_03h15.09.249,kallum_motion_pilot,2023.2.2,Win32,74.62686567,606798d5d3590d11fbd20111,65d2b6c8f2eece985d8e374c,65d2b98b424f1685f09383f8,0.0557,0.0558,0,109,109,41,1,onethree,,,,,,,,,,,,,,,,,,,,,,,,,,,,,,,,,,,,,,,,,,,,,,,,,,,,,,,,,,,,,,,,,,,,,,,,,,,,,,,,,,,,,,,,,,,,,,,,,,,,,,,,,,,,,,,,,,,,,,,,,,,,,,,,,,,,,,,,,
,,606798d5d3590d11fbd20111,2024-02-19_03h15.09.249,kallum_motion_pilot,2023.2.2,Win32,74.62686567,606798d5d3590d11fbd20111,65d2b6c8f2eece985d8e374c,65d2b98b424f1685f09383f8,0.0559,0.0559,0,110,110,118,1,eightsix,,,,,,,,,,,,,,,,,,,,,,,,,,,,,,,,,,,,,,,,,,,,,,,,,,,,,,,,,,,,,,,,,,,,,,,,,,,,,,,,,,,,,,,,,,,,,,,,,,,,,,,,,,,,,,,,,,,,,,,,,,,,,,,,,,,,,,,,,
,,606798d5d3590d11fbd20111,2024-02-19_03h15.09.249,kallum_motion_pilot,2023.2.2,Win32,74.62686567,606798d5d3590d11fbd20111,65d2b6c8f2eece985d8e374c,65d2b98b424f1685f09383f8,0.0561,0.0561,0,111,111,70,1,fourtwo,,,,,,,,,,,,,,,,,,,,,,,,,,,,,,,,,,,,,,,,,,,,,,,,,,,,,,,,,,,,,,,,,,,,,,,,,,,,,,,,,,,,,,,,,,,,,,,,,,,,,,,,,,,,,,,,,,,,,,,,,,,,,,,,,,,,,,,,,
,,606798d5d3590d11fbd20111,2024-02-19_03h15.09.249,kallum_motion_pilot,2023.2.2,Win32,74.62686567,606798d5d3590d11fbd20111,65d2b6c8f2eece985d8e374c,65d2b98b424f1685f09383f8,0.0562,0.0563,0,112,112,141,1,seveneight,,,,,,,,,,,,,,,,,,,,,,,,,,,,,,,,,,,,,,,,,,,,,,,,,,,,,,,,,,,,,,,,,,,,,,,,,,,,,,,,,,,,,,,,,,,,,,,,,,,,,,,,,,,,,,,,,,,,,,,,,,,,,,,,,,,,,,,,,
,,606798d5d3590d11fbd20111,2024-02-19_03h15.09.249,kallum_motion_pilot,2023.2.2,Win32,74.62686567,606798d5d3590d11fbd20111,65d2b6c8f2eece985d8e374c,65d2b98b424f1685f09383f8,0.0564,0.0564,0,113,113,92,1,sevenfive,,,,,,,,,,,,,,,,,,,,,,,,,,,,,,,,,,,,,,,,,,,,,,,,,,,,,,,,,,,,,,,,,,,,,,,,,,,,,,,,,,,,,,,,,,,,,,,,,,,,,,,,,,,,,,,,,,,,,,,,,,,,,,,,,,,,,,,,,
,,606798d5d3590d11fbd20111,2024-02-19_03h15.09.249,kallum_motion_pilot,2023.2.2,Win32,74.62686567,606798d5d3590d11fbd20111,65d2b6c8f2eece985d8e374c,65d2b98b424f1685f09383f8,0.0565,0.0566,0,114,114,102,1,eightsix,,,,,,,,,,,,,,,,,,,,,,,,,,,,,,,,,,,,,,,,,,,,,,,,,,,,,,,,,,,,,,,,,,,,,,,,,,,,,,,,,,,,,,,,,,,,,,,,,,,,,,,,,,,,,,,,,,,,,,,,,,,,,,,,,,,,,,,,,
,,606798d5d3590d11fbd20111,2024-02-19_03h15.09.249,kallum_motion_pilot,2023.2.2,Win32,74.62686567,606798d5d3590d11fbd20111,65d2b6c8f2eece985d8e374c,65d2b98b424f1685f09383f8,0.0567,0.0568,0,115,115,119,1,eightseven,,,,,,,,,,,,,,,,,,,,,,,,,,,,,,,,,,,,,,,,,,,,,,,,,,,,,,,,,,,,,,,,,,,,,,,,,,,,,,,,,,,,,,,,,,,,,,,,,,,,,,,,,,,,,,,,,,,,,,,,,,,,,,,,,,,,,,,,,
,,606798d5d3590d11fbd20111,2024-02-19_03h15.09.249,kallum_motion_pilot,2023.2.2,Win32,74.62686567,606798d5d3590d11fbd20111,65d2b6c8f2eece985d8e374c,65d2b98b424f1685f09383f8,0.0569,0.057,0,116,116,94,1,eightsix,,,,,,,,,,,,,,,,,,,,,,,,,,,,,,,,,,,,,,,,,,,,,,,,,,,,,,,,,,,,,,,,,,,,,,,,,,,,,,,,,,,,,,,,,,,,,,,,,,,,,,,,,,,,,,,,,,,,,,,,,,,,,,,,,,,,,,,,,
,,606798d5d3590d11fbd20111,2024-02-19_03h15.09.249,kallum_motion_pilot,2023.2.2,Win32,74.62686567,606798d5d3590d11fbd20111,65d2b6c8f2eece985d8e374c,65d2b98b424f1685f09383f8,0.0571,0.0572,0,117,117,80,1,fivesix,,,,,,,,,,,,,,,,,,,,,,,,,,,,,,,,,,,,,,,,,,,,,,,,,,,,,,,,,,,,,,,,,,,,,,,,,,,,,,,,,,,,,,,,,,,,,,,,,,,,,,,,,,,,,,,,,,,,,,,,,,,,,,,,,,,,,,,,,
,,606798d5d3590d11fbd20111,2024-02-19_03h15.09.249,kallum_motion_pilot,2023.2.2,Win32,74.62686567,606798d5d3590d11fbd20111,65d2b6c8f2eece985d8e374c,65d2b98b424f1685f09383f8,0.0572,0.0573,0,118,118,2,1,twoone,,,,,,,,,,,,,,,,,,,,,,,,,,,,,,,,,,,,,,,,,,,,,,,,,,,,,,,,,,,,,,,,,,,,,,,,,,,,,,,,,,,,,,,,,,,,,,,,,,,,,,,,,,,,,,,,,,,,,,,,,,,,,,,,,,,,,,,,,
,,606798d5d3590d11fbd20111,2024-02-19_03h15.09.249,kallum_motion_pilot,2023.2.2,Win32,74.62686567,606798d5d3590d11fbd20111,65d2b6c8f2eece985d8e374c,65d2b98b424f1685f09383f8,0.0574,0.0575,0,119,119,128,1,fivesix,,,,,,,,,,,,,,,,,,,,,,,,,,,,,,,,,,,,,,,,,,,,,,,,,,,,,,,,,,,,,,,,,,,,,,,,,,,,,,,,,,,,,,,,,,,,,,,,,,,,,,,,,,,,,,,,,,,,,,,,,,,,,,,,,,,,,,,,,
,,606798d5d3590d11fbd20111,2024-02-19_03h15.09.249,kallum_motion_pilot,2023.2.2,Win32,74.62686567,606798d5d3590d11fbd20111,65d2b6c8f2eece985d8e374c,65d2b98b424f1685f09383f8,0.0576,0.0576,0,120,120,28,1,threeone,,,,,,,,,,,,,,,,,,,,,,,,,,,,,,,,,,,,,,,,,,,,,,,,,,,,,,,,,,,,,,,,,,,,,,,,,,,,,,,,,,,,,,,,,,,,,,,,,,,,,,,,,,,,,,,,,,,,,,,,,,,,,,,,,,,,,,,,,
,,606798d5d3590d11fbd20111,2024-02-19_03h15.09.249,kallum_motion_pilot,2023.2.2,Win32,74.62686567,606798d5d3590d11fbd20111,65d2b6c8f2eece985d8e374c,65d2b98b424f1685f09383f8,0.0577,0.0578,0,121,121,133,1,seveneight,,,,,,,,,,,,,,,,,,,,,,,,,,,,,,,,,,,,,,,,,,,,,,,,,,,,,,,,,,,,,,,,,,,,,,,,,,,,,,,,,,,,,,,,,,,,,,,,,,,,,,,,,,,,,,,,,,,,,,,,,,,,,,,,,,,,,,,,,
,,606798d5d3590d11fbd20111,2024-02-19_03h15.09.249,kallum_motion_pilot,2023.2.2,Win32,74.62686567,606798d5d3590d11fbd20111,65d2b6c8f2eece985d8e374c,65d2b98b424f1685f09383f8,0.0579,0.058,0,122,122,81,1,fiveseven,,,,,,,,,,,,,,,,,,,,,,,,,,,,,,,,,,,,,,,,,,,,,,,,,,,,,,,,,,,,,,,,,,,,,,,,,,,,,,,,,,,,,,,,,,,,,,,,,,,,,,,,,,,,,,,,,,,,,,,,,,,,,,,,,,,,,,,,,
,,606798d5d3590d11fbd20111,2024-02-19_03h15.09.249,kallum_motion_pilot,2023.2.2,Win32,74.62686567,606798d5d3590d11fbd20111,65d2b6c8f2eece985d8e374c,65d2b98b424f1685f09383f8,0.058,0.0581,0,123,123,16,1,onetwo,,,,,,,,,,,,,,,,,,,,,,,,,,,,,,,,,,,,,,,,,,,,,,,,,,,,,,,,,,,,,,,,,,,,,,,,,,,,,,,,,,,,,,,,,,,,,,,,,,,,,,,,,,,,,,,,,,,,,,,,,,,,,,,,,,,,,,,,,
,,606798d5d3590d11fbd20111,2024-02-19_03h15.09.249,kallum_motion_pilot,2023.2.2,Win32,74.62686567,606798d5d3590d11fbd20111,65d2b6c8f2eece985d8e374c,65d2b98b424f1685f09383f8,0.0582,0.0583,0,124,124,86,1,eightsix,,,,,,,,,,,,,,,,,,,,,,,,,,,,,,,,,,,,,,,,,,,,,,,,,,,,,,,,,,,,,,,,,,,,,,,,,,,,,,,,,,,,,,,,,,,,,,,,,,,,,,,,,,,,,,,,,,,,,,,,,,,,,,,,,,,,,,,,,
,,606798d5d3590d11fbd20111,2024-02-19_03h15.09.249,kallum_motion_pilot,2023.2.2,Win32,74.62686567,606798d5d3590d11fbd20111,65d2b6c8f2eece985d8e374c,65d2b98b424f1685f09383f8,0.0584,0.0585,0,125,125,87,1,eightseven,,,,,,,,,,,,,,,,,,,,,,,,,,,,,,,,,,,,,,,,,,,,,,,,,,,,,,,,,,,,,,,,,,,,,,,,,,,,,,,,,,,,,,,,,,,,,,,,,,,,,,,,,,,,,,,,,,,,,,,,,,,,,,,,,,,,,,,,,
,,606798d5d3590d11fbd20111,2024-02-19_03h15.09.249,kallum_motion_pilot,2023.2.2,Win32,74.62686567,606798d5d3590d11fbd20111,65d2b6c8f2eece985d8e374c,65d2b98b424f1685f09383f8,0.0586,0.0586,0,126,126,151,1,eightseven,,,,,,,,,,,,,,,,,,,,,,,,,,,,,,,,,,,,,,,,,,,,,,,,,,,,,,,,,,,,,,,,,,,,,,,,,,,,,,,,,,,,,,,,,,,,,,,,,,,,,,,,,,,,,,,,,,,,,,,,,,,,,,,,,,,,,,,,,
,,606798d5d3590d11fbd20111,2024-02-19_03h15.09.249,kallum_motion_pilot,2023.2.2,Win32,74.62686567,606798d5d3590d11fbd20111,65d2b6c8f2eece985d8e374c,65d2b98b424f1685f09383f8,0.06,0.0601,0,127,127,64,1,onetwo,,,,,,,,,,,,,,,,,,,,,,,,,,,,,,,,,,,,,,,,,,,,,,,,,,,,,,,,,,,,,,,,,,,,,,,,,,,,,,,,,,,,,,,,,,,,,,,,,,,,,,,,,,,,,,,,,,,,,,,,,,,,,,,,,,,,,,,,,
,,606798d5d3590d11fbd20111,2024-02-19_03h15.09.249,kallum_motion_pilot,2023.2.2,Win32,74.62686567,606798d5d3590d11fbd20111,65d2b6c8f2eece985d8e374c,65d2b98b424f1685f09383f8,0.0603,0.0604,0,128,128,5,1,threefour,,,,,,,,,,,,,,,,,,,,,,,,,,,,,,,,,,,,,,,,,,,,,,,,,,,,,,,,,,,,,,,,,,,,,,,,,,,,,,,,,,,,,,,,,,,,,,,,,,,,,,,,,,,,,,,,,,,,,,,,,,,,,,,,,,,,,,,,,
,,606798d5d3590d11fbd20111,2024-02-19_03h15.09.249,kallum_motion_pilot,2023.2.2,Win32,74.62686567,606798d5d3590d11fbd20111,65d2b6c8f2eece985d8e374c,65d2b98b424f1685f09383f8,0.0606,0.0607,0,129,129,144,1,fivesix,,,,,,,,,,,,,,,,,,,,,,,,,,,,,,,,,,,,,,,,,,,,,,,,,,,,,,,,,,,,,,,,,,,,,,,,,,,,,,,,,,,,,,,,,,,,,,,,,,,,,,,,,,,,,,,,,,,,,,,,,,,,,,,,,,,,,,,,,
,,606798d5d3590d11fbd20111,2024-02-19_03h15.09.249,kallum_motion_pilot,2023.2.2,Win32,74.62686567,606798d5d3590d11fbd20111,65d2b6c8f2eece985d8e374c,65d2b98b424f1685f09383f8,0.0608,0.0609,0,130,130,53,1,threefour,,,,,,,,,,,,,,,,,,,,,,,,,,,,,,,,,,,,,,,,,,,,,,,,,,,,,,,,,,,,,,,,,,,,,,,,,,,,,,,,,,,,,,,,,,,,,,,,,,,,,,,,,,,,,,,,,,,,,,,,,,,,,,,,,,,,,,,,,
,,606798d5d3590d11fbd20111,2024-02-19_03h15.09.249,kallum_motion_pilot,2023.2.2,Win32,74.62686567,606798d5d3590d11fbd20111,65d2b6c8f2eece985d8e374c,65d2b98b424f1685f09383f8,0.061,0.0612,0,131,131,62,1,fourtwo,,,,,,,,,,,,,,,,,,,,,,,,,,,,,,,,,,,,,,,,,,,,,,,,,,,,,,,,,,,,,,,,,,,,,,,,,,,,,,,,,,,,,,,,,,,,,,,,,,,,,,,,,,,,,,,,,,,,,,,,,,,,,,,,,,,,,,,,,
,,606798d5d3590d11fbd20111,2024-02-19_03h15.09.249,kallum_motion_pilot,2023.2.2,Win32,74.62686567,606798d5d3590d11fbd20111,65d2b6c8f2eece985d8e374c,65d2b98b424f1685f09383f8,0.0612,0.0613,0,132,132,146,1,sixfive,,,,,,,,,,,,,,,,,,,,,,,,,,,,,,,,,,,,,,,,,,,,,,,,,,,,,,,,,,,,,,,,,,,,,,,,,,,,,,,,,,,,,,,,,,,,,,,,,,,,,,,,,,,,,,,,,,,,,,,,,,,,,,,,,,,,,,,,,
,,606798d5d3590d11fbd20111,2024-02-19_03h15.09.249,kallum_motion_pilot,2023.2.2,Win32,74.62686567,606798d5d3590d11fbd20111,65d2b6c8f2eece985d8e374c,65d2b98b424f1685f09383f8,0.0614,0.0616,0,133,133,0,1,onetwo,,,,,,,,,,,,,,,,,,,,,,,,,,,,,,,,,,,,,,,,,,,,,,,,,,,,,,,,,,,,,,,,,,,,,,,,,,,,,,,,,,,,,,,,,,,,,,,,,,,,,,,,,,,,,,,,,,,,,,,,,,,,,,,,,,,,,,,,,
,,606798d5d3590d11fbd20111,2024-02-19_03h15.09.249,kallum_motion_pilot,2023.2.2,Win32,74.62686567,606798d5d3590d11fbd20111,65d2b6c8f2eece985d8e374c,65d2b98b424f1685f09383f8,0.0616,0.0617,0,134,134,137,1,fiveseven,,,,,,,,,,,,,,,,,,,,,,,,,,,,,,,,,,,,,,,,,,,,,,,,,,,,,,,,,,,,,,,,,,,,,,,,,,,,,,,,,,,,,,,,,,,,,,,,,,,,,,,,,,,,,,,,,,,,,,,,,,,,,,,,,,,,,,,,,
,,606798d5d3590d11fbd20111,2024-02-19_03h15.09.249,kallum_motion_pilot,2023.2.2,Win32,74.62686567,606798d5d3590d11fbd20111,65d2b6c8f2eece985d8e374c,65d2b98b424f1685f09383f8,0.0618,0.0618,0,135,135,73,1,onethree,,,,,,,,,,,,,,,,,,,,,,,,,,,,,,,,,,,,,,,,,,,,,,,,,,,,,,,,,,,,,,,,,,,,,,,,,,,,,,,,,,,,,,,,,,,,,,,,,,,,,,,,,,,,,,,,,,,,,,,,,,,,,,,,,,,,,,,,,
,,606798d5d3590d11fbd20111,2024-02-19_03h15.09.249,kallum_motion_pilot,2023.2.2,Win32,74.62686567,606798d5d3590d11fbd20111,65d2b6c8f2eece985d8e374c,65d2b98b424f1685f09383f8,0.0619,0.0621,0,136,136,27,1,twofour,,,,,,,,,,,,,,,,,,,,,,,,,,,,,,,,,,,,,,,,,,,,,,,,,,,,,,,,,,,,,,,,,,,,,,,,,,,,,,,,,,,,,,,,,,,,,,,,,,,,,,,,,,,,,,,,,,,,,,,,,,,,,,,,,,,,,,,,,
,,606798d5d3590d11fbd20111,2024-02-19_03h15.09.249,kallum_motion_pilot,2023.2.2,Win32,74.62686567,606798d5d3590d11fbd20111,65d2b6c8f2eece985d8e374c,65d2b98b424f1685f09383f8,0.0622,0.0623,0,137,137,108,1,sevenfive,,,,,,,,,,,,,,,,,,,,,,,,,,,,,,,,,,,,,,,,,,,,,,,,,,,,,,,,,,,,,,,,,,,,,,,,,,,,,,,,,,,,,,,,,,,,,,,,,,,,,,,,,,,,,,,,,,,,,,,,,,,,,,,,,,,,,,,,,
,,606798d5d3590d11fbd20111,2024-02-19_03h15.09.249,kallum_motion_pilot,2023.2.2,Win32,74.62686567,606798d5d3590d11fbd20111,65d2b6c8f2eece985d8e374c,65d2b98b424f1685f09383f8,0.0624,0.0625,0,138,138,14,1,fourtwo,,,,,,,,,,,,,,,,,,,,,,,,,,,,,,,,,,,,,,,,,,,,,,,,,,,,,,,,,,,,,,,,,,,,,,,,,,,,,,,,,,,,,,,,,,,,,,,,,,,,,,,,,,,,,,,,,,,,,,,,,,,,,,,,,,,,,,,,,
,,606798d5d3590d11fbd20111,2024-02-19_03h15.09.249,kallum_motion_pilot,2023.2.2,Win32,74.62686567,606798d5d3590d11fbd20111,65d2b6c8f2eece985d8e374c,65d2b98b424f1685f09383f8,0.0627,0.0627,0,139,139,149,1,seveneight,,,,,,,,,,,,,,,,,,,,,,,,,,,,,,,,,,,,,,,,,,,,,,,,,,,,,,,,,,,,,,,,,,,,,,,,,,,,,,,,,,,,,,,,,,,,,,,,,,,,,,,,,,,,,,,,,,,,,,,,,,,,,,,,,,,,,,,,,
,,606798d5d3590d11fbd20111,2024-02-19_03h15.09.249,kallum_motion_pilot,2023.2.2,Win32,74.62686567,606798d5d3590d11fbd20111,65d2b6c8f2eece985d8e374c,65d2b98b424f1685f09383f8,0.0628,0.0628,0,140,140,113,1,fiveseven,,,,,,,,,,,,,,,,,,,,,,,,,,,,,,,,,,,,,,,,,,,,,,,,,,,,,,,,,,,,,,,,,,,,,,,,,,,,,,,,,,,,,,,,,,,,,,,,,,,,,,,,,,,,,,,,,,,,,,,,,,,,,,,,,,,,,,,,,
,,606798d5d3590d11fbd20111,2024-02-19_03h15.09.249,kallum_motion_pilot,2023.2.2,Win32,74.62686567,606798d5d3590d11fbd20111,65d2b6c8f2eece985d8e374c,65d2b98b424f1685f09383f8,0.0629,0.063,0,141,141,44,1,threeone,,,,,,,,,,,,,,,,,,,,,,,,,,,,,,,,,,,,,,,,,,,,,,,,,,,,,,,,,,,,,,,,,,,,,,,,,,,,,,,,,,,,,,,,,,,,,,,,,,,,,,,,,,,,,,,,,,,,,,,,,,,,,,,,,,,,,,,,,
,,606798d5d3590d11fbd20111,2024-02-19_03h15.09.249,kallum_motion_pilot,2023.2.2,Win32,74.62686567,606798d5d3590d11fbd20111,65d2b6c8f2eece985d8e374c,65d2b98b424f1685f09383f8,0.0631,0.0632,0,142,142,93,1,seveneight,,,,,,,,,,,,,,,,,,,,,,,,,,,,,,,,,,,,,,,,,,,,,,,,,,,,,,,,,,,,,,,,,,,,,,,,,,,,,,,,,,,,,,,,,,,,,,,,,,,,,,,,,,,,,,,,,,,,,,,,,,,,,,,,,,,,,,,,,
,,606798d5d3590d11fbd20111,2024-02-19_03h15.09.249,kallum_motion_pilot,2023.2.2,Win32,74.62686567,606798d5d3590d11fbd20111,65d2b6c8f2eece985d8e374c,65d2b98b424f1685f09383f8,0.0632,0.0633,0,143,143,110,1,eightsix,,,,,,,,,,,,,,,,,,,,,,,,,,,,,,,,,,,,,,,,,,,,,,,,,,,,,,,,,,,,,,,,,,,,,,,,,,,,,,,,,,,,,,,,,,,,,,,,,,,,,,,,,,,,,,,,,,,,,,,,,,,,,,,,,,,,,,,,,
,,606798d5d3590d11fbd20111,2024-02-19_03h15.09.249,kallum_motion_pilot,2023.2.2,Win32,74.62686567,606798d5d3590d11fbd20111,65d2b6c8f2eece985d8e374c,65d2b98b424f1685f09383f8,0.0634,0.0635,0,144,144,65,1,onethree,,,,,,,,,,,,,,,,,,,,,,,,,,,,,,,,,,,,,,,,,,,,,,,,,,,,,,,,,,,,,,,,,,,,,,,,,,,,,,,,,,,,,,,,,,,,,,,,,,,,,,,,,,,,,,,,,,,,,,,,,,,,,,,,,,,,,,,,,
,,606798d5d3590d11fbd20111,2024-02-19_03h15.09.249,kallum_motion_pilot,2023.2.2,Win32,74.62686567,606798d5d3590d11fbd20111,65d2b6c8f2eece985d8e374c,65d2b98b424f1685f09383f8,0.0636,0.0637,0,145,145,109,1,seveneight,,,,,,,,,,,,,,,,,,,,,,,,,,,,,,,,,,,,,,,,,,,,,,,,,,,,,,,,,,,,,,,,,,,,,,,,,,,,,,,,,,,,,,,,,,,,,,,,,,,,,,,,,,,,,,,,,,,,,,,,,,,,,,,,,,,,,,,,,
,,606798d5d3590d11fbd20111,2024-02-19_03h15.09.249,kallum_motion_pilot,2023.2.2,Win32,74.62686567,606798d5d3590d11fbd20111,65d2b6c8f2eece985d8e374c,65d2b98b424f1685f09383f8,0.0638,0.0639,0,146,146,18,1,twoone,,,,,,,,,,,,,,,,,,,,,,,,,,,,,,,,,,,,,,,,,,,,,,,,,,,,,,,,,,,,,,,,,,,,,,,,,,,,,,,,,,,,,,,,,,,,,,,,,,,,,,,,,,,,,,,,,,,,,,,,,,,,,,,,,,,,,,,,,
,,606798d5d3590d11fbd20111,2024-02-19_03h15.09.249,kallum_motion_pilot,2023.2.2,Win32,74.62686567,606798d5d3590d11fbd20111,65d2b6c8f2eece985d8e374c,65d2b98b424f1685f09383f8,0.0639,0.064,0,147,147,39,1,fourthree,,,,,,,,,,,,,,,,,,,,,,,,,,,,,,,,,,,,,,,,,,,,,,,,,,,,,,,,,,,,,,,,,,,,,,,,,,,,,,,,,,,,,,,,,,,,,,,,,,,,,,,,,,,,,,,,,,,,,,,,,,,,,,,,,,,,,,,,,
,,606798d5d3590d11fbd20111,2024-02-19_03h15.09.249,kallum_motion_pilot,2023.2.2,Win32,74.62686567,606798d5d3590d11fbd20111,65d2b6c8f2eece985d8e374c,65d2b98b424f1685f09383f8,0.0641,0.0642,0,148,148,131,1,sixeight,,,,,,,,,,,,,,,,,,,,,,,,,,,,,,,,,,,,,,,,,,,,,,,,,,,,,,,,,,,,,,,,,,,,,,,,,,,,,,,,,,,,,,,,,,,,,,,,,,,,,,,,,,,,,,,,,,,,,,,,,,,,,,,,,,,,,,,,,
,,606798d5d3590d11fbd20111,2024-02-19_03h15.09.249,kallum_motion_pilot,2023.2.2,Win32,74.62686567,606798d5d3590d11fbd20111,65d2b6c8f2eece985d8e374c,65d2b98b424f1685f09383f8,0.0643,0.0644,0,149,149,83,1,sixeight,,,,,,,,,,,,,,,,,,,,,,,,,,,,,,,,,,,,,,,,,,,,,,,,,,,,,,,,,,,,,,,,,,,,,,,,,,,,,,,,,,,,,,,,,,,,,,,,,,,,,,,,,,,,,,,,,,,,,,,,,,,,,,,,,,,,,,,,,
,,606798d5d3590d11fbd20111,2024-02-19_03h15.09.249,kallum_motion_pilot,2023.2.2,Win32,74.62686567,606798d5d3590d11fbd20111,65d2b6c8f2eece985d8e374c,65d2b98b424f1685f09383f8,0.0645,0.0645,0,150,150,125,1,seveneight,,,,,,,,,,,,,,,,,,,,,,,,,,,,,,,,,,,,,,,,,,,,,,,,,,,,,,,,,,,,,,,,,,,,,,,,,,,,,,,,,,,,,,,,,,,,,,,,,,,,,,,,,,,,,,,,,,,,,,,,,,,,,,,,,,,,,,,,,
,,606798d5d3590d11fbd20111,2024-02-19_03h15.09.249,kallum_motion_pilot,2023.2.2,Win32,74.62686567,606798d5d3590d11fbd20111,65d2b6c8f2eece985d8e374c,65d2b98b424f1685f09383f8,0.0646,0.0647,0,151,151,76,1,threeone,,,,,,,,,,,,,,,,,,,,,,,,,,,,,,,,,,,,,,,,,,,,,,,,,,,,,,,,,,,,,,,,,,,,,,,,,,,,,,,,,,,,,,,,,,,,,,,,,,,,,,,,,,,,,,,,,,,,,,,,,,,,,,,,,,,,,,,,,
,,606798d5d3590d11fbd20111,2024-02-19_03h15.09.249,kallum_motion_pilot,2023.2.2,Win32,74.62686567,606798d5d3590d11fbd20111,65d2b6c8f2eece985d8e374c,65d2b98b424f1685f09383f8,0.0649,0.0649,0,152,152,22,1,fourtwo,,,,,,,,,,,,,,,,,,,,,,,,,,,,,,,,,,,,,,,,,,,,,,,,,,,,,,,,,,,,,,,,,,,,,,,,,,,,,,,,,,,,,,,,,,,,,,,,,,,,,,,,,,,,,,,,,,,,,,,,,,,,,,,,,,,,,,,,,
,,606798d5d3590d11fbd20111,2024-02-19_03h15.09.249,kallum_motion_pilot,2023.2.2,Win32,74.62686567,606798d5d3590d11fbd20111,65d2b6c8f2eece985d8e374c,65d2b98b424f1685f09383f8,0.065,0.0651,0,153,153,124,1,sevenfive,,,,,,,,,,,,,,,,,,,,,,,,,,,,,,,,,,,,,,,,,,,,,,,,,,,,,,,,,,,,,,,,,,,,,,,,,,,,,,,,,,,,,,,,,,,,,,,,,,,,,,,,,,,,,,,,,,,,,,,,,,,,,,,,,,,,,,,,,
,,606798d5d3590d11fbd20111,2024-02-19_03h15.09.249,kallum_motion_pilot,2023.2.2,Win32,74.62686567,606798d5d3590d11fbd20111,65d2b6c8f2eece985d8e374c,65d2b98b424f1685f09383f8,0.0652,0.0653,0,154,154,1,1,onethree,,,,,,,,,,,,,,,,,,,,,,,,,,,,,,,,,,,,,,,,,,,,,,,,,,,,,,,,,,,,,,,,,,,,,,,,,,,,,,,,,,,,,,,,,,,,,,,,,,,,,,,,,,,,,,,,,,,,,,,,,,,,,,,,,,,,,,,,,
,,606798d5d3590d11fbd20111,2024-02-19_03h15.09.249,kallum_motion_pilot,2023.2.2,Win32,74.62686567,606798d5d3590d11fbd20111,65d2b6c8f2eece985d8e374c,65d2b98b424f1685f09383f8,0.0654,0.0655,0,155,155,6,1,fourtwo,,,,,,,,,,,,,,,,,,,,,,,,,,,,,,,,,,,,,,,,,,,,,,,,,,,,,,,,,,,,,,,,,,,,,,,,,,,,,,,,,,,,,,,,,,,,,,,,,,,,,,,,,,,,,,,,,,,,,,,,,,,,,,,,,,,,,,,,,
,,606798d5d3590d11fbd20111,2024-02-19_03h15.09.249,kallum_motion_pilot,2023.2.2,Win32,74.62686567,606798d5d3590d11fbd20111,65d2b6c8f2eece985d8e374c,65d2b98b424f1685f09383f8,0.0655,0.0656,0,156,156,115,1,sixeight,,,,,,,,,,,,,,,,,,,,,,,,,,,,,,,,,,,,,,,,,,,,,,,,,,,,,,,,,,,,,,,,,,,,,,,,,,,,,,,,,,,,,,,,,,,,,,,,,,,,,,,,,,,,,,,,,,,,,,,,,,,,,,,,,,,,,,,,,
,,606798d5d3590d11fbd20111,2024-02-19_03h15.09.249,kallum_motion_pilot,2023.2.2,Win32,74.62686567,606798d5d3590d11fbd20111,65d2b6c8f2eece985d8e374c,65d2b98b424f1685f09383f8,0.0658,0.0658,0,157,157,158,1,eightsix,,,,,,,,,,,,,,,,,,,,,,,,,,,,,,,,,,,,,,,,,,,,,,,,,,,,,,,,,,,,,,,,,,,,,,,,,,,,,,,,,,,,,,,,,,,,,,,,,,,,,,,,,,,,,,,,,,,,,,,,,,,,,,,,,,,,,,,,,
,,606798d5d3590d11fbd20111,2024-02-19_03h15.09.249,kallum_motion_pilot,2023.2.2,Win32,74.62686567,606798d5d3590d11fbd20111,65d2b6c8f2eece985d8e374c,65d2b98b424f1685f09383f8,0.0659,0.0659,0,158,158,116,1,sevenfive,,,,,,,,,,,,,,,,,,,,,,,,,,,,,,,,,,,,,,,,,,,,,,,,,,,,,,,,,,,,,,,,,,,,,,,,,,,,,,,,,,,,,,,,,,,,,,,,,,,,,,,,,,,,,,,,,,,,,,,,,,,,,,,,,,,,,,,,,
,,606798d5d3590d11fbd20111,2024-02-19_03h15.09.249,kallum_motion_pilot,2023.2.2,Win32,74.62686567,606798d5d3590d11fbd20111,65d2b6c8f2eece985d8e374c,65d2b98b424f1685f09383f8,0.066,0.0662,0,159,159,55,1,fourthree,,,,,,,,,,,,,,,,,,,,,,,,,,,,,,,,,,,,,,,,,,,,,,,,,,,,,,,,,,,,,,,,,,,,,,,,,,,,,,,,,,,,,,,,,,,,,,,,,,,,,,,,,,,,,,,,,,,,,,,,,,,,,,,,,,,,,,,,,
,,606798d5d3590d11fbd20111,2024-02-19_03h15.09.249,kallum_motion_pilot,2023.2.2,Win32,74.62686567,606798d5d3590d11fbd20111,65d2b6c8f2eece985d8e374c,65d2b98b424f1685f09383f8,0.0663,0.0663,0,160,160,12,1,threeone,,,,,,,,,,,,,,,,,,,,,,,,,,,,,,,,,,,,,,,,,,,,,,,,,,,,,,,,,,,,,,,,,,,,,,,,,,,,,,,,,,,,,,,,,,,,,,,,,,,,,,,,,,,,,,,,,,,,,,,,,,,,,,,,,,,,,,,,,
,,606798d5d3590d11fbd20111,2024-02-19_03h15.09.249,kallum_motion_pilot,2023.2.2,Win32,74.62686567,606798d5d3590d11fbd20111,65d2b6c8f2eece985d8e374c,65d2b98b424f1685f09383f8,0.0664,0.0666,0,161,161,122,1,sixfive,,,,,,,,,,,,,,,,,,,,,,,,,,,,,,,,,,,,,,,,,,,,,,,,,,,,,,,,,,,,,,,,,,,,,,,,,,,,,,,,,,,,,,,,,,,,,,,,,,,,,,,,,,,,,,,,,,,,,,,,,,,,,,,,,,,,,,,,,
,,606798d5d3590d11fbd20111,2024-02-19_03h15.09.249,kallum_motion_pilot,2023.2.2,Win32,74.62686567,606798d5d3590d11fbd20111,65d2b6c8f2eece985d8e374c,65d2b98b424f1685f09383f8,0.0666,0.0668,1,0,162,5,1,threefour,,,,,,,,,,,,,,,,,,,,,,,,,,,,,,,,,,,,,,,,,,,,,,,,,,,,,,,,,,,,,,,,,,,,,,,,,,,,,,,,,,,,,,,,,,,,,,,,,,,,,,,,,,,,,,,,,,,,,,,,,,,,,,,,,,,,,,,,,
,,606798d5d3590d11fbd20111,2024-02-19_03h15.09.249,kallum_motion_pilot,2023.2.2,Win32,74.62686567,606798d5d3590d11fbd20111,65d2b6c8f2eece985d8e374c,65d2b98b424f1685f09383f8,0.0669,0.067,1,1,163,152,1,fivesix,,,,,,,,,,,,,,,,,,,,,,,,,,,,,,,,,,,,,,,,,,,,,,,,,,,,,,,,,,,,,,,,,,,,,,,,,,,,,,,,,,,,,,,,,,,,,,,,,,,,,,,,,,,,,,,,,,,,,,,,,,,,,,,,,,,,,,,,,
,,606798d5d3590d11fbd20111,2024-02-19_03h15.09.249,kallum_motion_pilot,2023.2.2,Win32,74.62686567,606798d5d3590d11fbd20111,65d2b6c8f2eece985d8e374c,65d2b98b424f1685f09383f8,0.067,0.0671,1,2,164,14,1,fourtwo,,,,,,,,,,,,,,,,,,,,,,,,,,,,,,,,,,,,,,,,,,,,,,,,,,,,,,,,,,,,,,,,,,,,,,,,,,,,,,,,,,,,,,,,,,,,,,,,,,,,,,,,,,,,,,,,,,,,,,,,,,,,,,,,,,,,,,,,,
,,606798d5d3590d11fbd20111,2024-02-19_03h15.09.249,kallum_motion_pilot,2023.2.2,Win32,74.62686567,606798d5d3590d11fbd20111,65d2b6c8f2eece985d8e374c,65d2b98b424f1685f09383f8,0.0671,0.0672,1,3,165,78,1,fourtwo,,,,,,,,,,,,,,,,,,,,,,,,,,,,,,,,,,,,,,,,,,,,,,,,,,,,,,,,,,,,,,,,,,,,,,,,,,,,,,,,,,,,,,,,,,,,,,,,,,,,,,,,,,,,,,,,,,,,,,,,,,,,,,,,,,,,,,,,,
,,606798d5d3590d11fbd20111,2024-02-19_03h15.09.249,kallum_motion_pilot,2023.2.2,Win32,74.62686567,606798d5d3590d11fbd20111,65d2b6c8f2eece985d8e374c,65d2b98b424f1685f09383f8,0.0672,0.0674,1,4,166,88,1,fivesix,,,,,,,,,,,,,,,,,,,,,,,,,,,,,,,,,,,,,,,,,,,,,,,,,,,,,,,,,,,,,,,,,,,,,,,,,,,,,,,,,,,,,,,,,,,,,,,,,,,,,,,,,,,,,,,,,,,,,,,,,,,,,,,,,,,,,,,,,
,,606798d5d3590d11fbd20111,2024-02-19_03h15.09.249,kallum_motion_pilot,2023.2.2,Win32,74.62686567,606798d5d3590d11fbd20111,65d2b6c8f2eece985d8e374c,65d2b98b424f1685f09383f8,0.0676,0.0677,1,5,167,101,1,seveneight,,,,,,,,,,,,,,,,,,,,,,,,,,,,,,,,,,,,,,,,,,,,,,,,,,,,,,,,,,,,,,,,,,,,,,,,,,,,,,,,,,,,,,,,,,,,,,,,,,,,,,,,,,,,,,,,,,,,,,,,,,,,,,,,,,,,,,,,,
,,606798d5d3590d11fbd20111,2024-02-19_03h15.09.249,kallum_motion_pilot,2023.2.2,Win32,74.62686567,606798d5d3590d11fbd20111,65d2b6c8f2eece985d8e374c,65d2b98b424f1685f09383f8,0.0678,0.0679,1,6,168,49,1,onethree,,,,,,,,,,,,,,,,,,,,,,,,,,,,,,,,,,,,,,,,,,,,,,,,,,,,,,,,,,,,,,,,,,,,,,,,,,,,,,,,,,,,,,,,,,,,,,,,,,,,,,,,,,,,,,,,,,,,,,,,,,,,,,,,,,,,,,,,,
,,606798d5d3590d11fbd20111,2024-02-19_03h15.09.249,kallum_motion_pilot,2023.2.2,Win32,74.62686567,606798d5d3590d11fbd20111,65d2b6c8f2eece985d8e374c,65d2b98b424f1685f09383f8,0.068,0.068,1,7,169,69,1,threefour,,,,,,,,,,,,,,,,,,,,,,,,,,,,,,,,,,,,,,,,,,,,,,,,,,,,,,,,,,,,,,,,,,,,,,,,,,,,,,,,,,,,,,,,,,,,,,,,,,,,,,,,,,,,,,,,,,,,,,,,,,,,,,,,,,,,,,,,,
,,606798d5d3590d11fbd20111,2024-02-19_03h15.09.249,kallum_motion_pilot,2023.2.2,Win32,74.62686567,606798d5d3590d11fbd20111,65d2b6c8f2eece985d8e374c,65d2b98b424f1685f09383f8,0.0681,0.0683,1,8,170,2,1,twoone,,,,,,,,,,,,,,,,,,,,,,,,,,,,,,,,,,,,,,,,,,,,,,,,,,,,,,,,,,,,,,,,,,,,,,,,,,,,,,,,,,,,,,,,,,,,,,,,,,,,,,,,,,,,,,,,,,,,,,,,,,,,,,,,,,,,,,,,,
,,606798d5d3590d11fbd20111,2024-02-19_03h15.09.249,kallum_motion_pilot,2023.2.2,Win32,74.62686567,606798d5d3590d11fbd20111,65d2b6c8f2eece985d8e374c,65d2b98b424f1685f09383f8,0.0684,0.0684,1,9,171,42,1,twoone,,,,,,,,,,,,,,,,,,,,,,,,,,,,,,,,,,,,,,,,,,,,,,,,,,,,,,,,,,,,,,,,,,,,,,,,,,,,,,,,,,,,,,,,,,,,,,,,,,,,,,,,,,,,,,,,,,,,,,,,,,,,,,,,,,,,,,,,,
,,606798d5d3590d11fbd20111,2024-02-19_03h15.09.249,kallum_motion_pilot,2023.2.2,Win32,74.62686567,606798d5d3590d11fbd20111,65d2b6c8f2eece985d8e374c,65d2b98b424f1685f09383f8,0.0685,0.0686,1,10,172,100,1,sevenfive,,,,,,,,,,,,,,,,,,,,,,,,,,,,,,,,,,,,,,,,,,,,,,,,,,,,,,,,,,,,,,,,,,,,,,,,,,,,,,,,,,,,,,,,,,,,,,,,,,,,,,,,,,,,,,,,,,,,,,,,,,,,,,,,,,,,,,,,,
,,606798d5d3590d11fbd20111,2024-02-19_03h15.09.249,kallum_motion_pilot,2023.2.2,Win32,74.62686567,606798d5d3590d11fbd20111,65d2b6c8f2eece985d8e374c,65d2b98b424f1685f09383f8,0.0686,0.0687,1,11,173,93,1,seveneight,,,,,,,,,,,,,,,,,,,,,,,,,,,,,,,,,,,,,,,,,,,,,,,,,,,,,,,,,,,,,,,,,,,,,,,,,,,,,,,,,,,,,,,,,,,,,,,,,,,,,,,,,,,,,,,,,,,,,,,,,,,,,,,,,,,,,,,,,
,,606798d5d3590d11fbd20111,2024-02-19_03h15.09.249,kallum_motion_pilot,2023.2.2,Win32,74.62686567,606798d5d3590d11fbd20111,65d2b6c8f2eece985d8e374c,65d2b98b424f1685f09383f8,0.0688,0.0689,1,12,174,140,1,sevenfive,,,,,,,,,,,,,,,,,,,,,,,,,,,,,,,,,,,,,,,,,,,,,,,,,,,,,,,,,,,,,,,,,,,,,,,,,,,,,,,,,,,,,,,,,,,,,,,,,,,,,,,,,,,,,,,,,,,,,,,,,,,,,,,,,,,,,,,,,
,,606798d5d3590d11fbd20111,2024-02-19_03h15.09.249,kallum_motion_pilot,2023.2.2,Win32,74.62686567,606798d5d3590d11fbd20111,65d2b6c8f2eece985d8e374c,65d2b98b424f1685f09383f8,0.0689,0.069,1,13,175,72,1,onetwo,,,,,,,,,,,,,,,,,,,,,,,,,,,,,,,,,,,,,,,,,,,,,,,,,,,,,,,,,,,,,,,,,,,,,,,,,,,,,,,,,,,,,,,,,,,,,,,,,,,,,,,,,,,,,,,,,,,,,,,,,,,,,,,,,,,,,,,,,
,,606798d5d3590d11fbd20111,2024-02-19_03h15.09.249,kallum_motion_pilot,2023.2.2,Win32,74.62686567,606798d5d3590d11fbd20111,65d2b6c8f2eece985d8e374c,65d2b98b424f1685f09383f8,0.069,0.0691,1,14,176,66,1,twoone,,,,,,,,,,,,,,,,,,,,,,,,,,,,,,,,,,,,,,,,,,,,,,,,,,,,,,,,,,,,,,,,,,,,,,,,,,,,,,,,,,,,,,,,,,,,,,,,,,,,,,,,,,,,,,,,,,,,,,,,,,,,,,,,,,,,,,,,,
,,606798d5d3590d11fbd20111,2024-02-19_03h15.09.249,kallum_motion_pilot,2023.2.2,Win32,74.62686567,606798d5d3590d11fbd20111,65d2b6c8f2eece985d8e374c,65d2b98b424f1685f09383f8,0.0693,0.0693,1,15,177,136,1,fivesix,,,,,,,,,,,,,,,,,,,,,,,,,,,,,,,,,,,,,,,,,,,,,,,,,,,,,,,,,,,,,,,,,,,,,,,,,,,,,,,,,,,,,,,,,,,,,,,,,,,,,,,,,,,,,,,,,,,,,,,,,,,,,,,,,,,,,,,,,
,,606798d5d3590d11fbd20111,2024-02-19_03h15.09.249,kallum_motion_pilot,2023.2.2,Win32,74.62686567,606798d5d3590d11fbd20111,65d2b6c8f2eece985d8e374c,65d2b98b424f1685f09383f8,0.0694,0.0695,1,16,178,126,1,eightsix,,,,,,,,,,,,,,,,,,,,,,,,,,,,,,,,,,,,,,,,,,,,,,,,,,,,,,,,,,,,,,,,,,,,,,,,,,,,,,,,,,,,,,,,,,,,,,,,,,,,,,,,,,,,,,,,,,,,,,,,,,,,,,,,,,,,,,,,,
,,606798d5d3590d11fbd20111,2024-02-19_03h15.09.249,kallum_motion_pilot,2023.2.2,Win32,74.62686567,606798d5d3590d11fbd20111,65d2b6c8f2eece985d8e374c,65d2b98b424f1685f09383f8,0.0695,0.0696,1,17,179,18,1,twoone,,,,,,,,,,,,,,,,,,,,,,,,,,,,,,,,,,,,,,,,,,,,,,,,,,,,,,,,,,,,,,,,,,,,,,,,,,,,,,,,,,,,,,,,,,,,,,,,,,,,,,,,,,,,,,,,,,,,,,,,,,,,,,,,,,,,,,,,,
,,606798d5d3590d11fbd20111,2024-02-19_03h15.09.249,kallum_motion_pilot,2023.2.2,Win32,74.62686567,606798d5d3590d11fbd20111,65d2b6c8f2eece985d8e374c,65d2b98b424f1685f09383f8,0.0697,0.0698,1,18,180,82,1,sixfive,,,,,,,,,,,,,,,,,,,,,,,,,,,,,,,,,,,,,,,,,,,,,,,,,,,,,,,,,,,,,,,,,,,,,,,,,,,,,,,,,,,,,,,,,,,,,,,,,,,,,,,,,,,,,,,,,,,,,,,,,,,,,,,,,,,,,,,,,
,,606798d5d3590d11fbd20111,2024-02-19_03h15.09.249,kallum_motion_pilot,2023.2.2,Win32,74.62686567,606798d5d3590d11fbd20111,65d2b6c8f2eece985d8e374c,65d2b98b424f1685f09383f8,0.0698,0.07,1,19,181,137,1,fiveseven,,,,,,,,,,,,,,,,,,,,,,,,,,,,,,,,,,,,,,,,,,,,,,,,,,,,,,,,,,,,,,,,,,,,,,,,,,,,,,,,,,,,,,,,,,,,,,,,,,,,,,,,,,,,,,,,,,,,,,,,,,,,,,,,,,,,,,,,,
,,606798d5d3590d11fbd20111,2024-02-19_03h15.09.249,kallum_motion_pilot,2023.2.2,Win32,74.62686567,606798d5d3590d11fbd20111,65d2b6c8f2eece985d8e374c,65d2b98b424f1685f09383f8,0.07,0.07,1,20,182,6,1,fourtwo,,,,,,,,,,,,,,,,,,,,,,,,,,,,,,,,,,,,,,,,,,,,,,,,,,,,,,,,,,,,,,,,,,,,,,,,,,,,,,,,,,,,,,,,,,,,,,,,,,,,,,,,,,,,,,,,,,,,,,,,,,,,,,,,,,,,,,,,,
,,606798d5d3590d11fbd20111,2024-02-19_03h15.09.249,kallum_motion_pilot,2023.2.2,Win32,74.62686567,606798d5d3590d11fbd20111,65d2b6c8f2eece985d8e374c,65d2b98b424f1685f09383f8,0.0701,0.0703,1,21,183,45,1,threefour,,,,,,,,,,,,,,,,,,,,,,,,,,,,,,,,,,,,,,,,,,,,,,,,,,,,,,,,,,,,,,,,,,,,,,,,,,,,,,,,,,,,,,,,,,,,,,,,,,,,,,,,,,,,,,,,,,,,,,,,,,,,,,,,,,,,,,,,,
,,606798d5d3590d11fbd20111,2024-02-19_03h15.09.249,kallum_motion_pilot,2023.2.2,Win32,74.62686567,606798d5d3590d11fbd20111,65d2b6c8f2eece985d8e374c,65d2b98b424f1685f09383f8,0.0703,0.0704,1,22,184,27,1,twofour,,,,,,,,,,,,,,,,,,,,,,,,,,,,,,,,,,,,,,,,,,,,,,,,,,,,,,,,,,,,,,,,,,,,,,,,,,,,,,,,,,,,,,,,,,,,,,,,,,,,,,,,,,,,,,,,,,,,,,,,,,,,,,,,,,,,,,,,,
,,606798d5d3590d11fbd20111,2024-02-19_03h15.09.249,kallum_motion_pilot,2023.2.2,Win32,74.62686567,606798d5d3590d11fbd20111,65d2b6c8f2eece985d8e374c,65d2b98b424f1685f09383f8,0.0705,0.0706,1,23,185,59,1,twofour,,,,,,,,,,,,,,,,,,,,,,,,,,,,,,,,,,,,,,,,,,,,,,,,,,,,,,,,,,,,,,,,,,,,,,,,,,,,,,,,,,,,,,,,,,,,,,,,,,,,,,,,,,,,,,,,,,,,,,,,,,,,,,,,,,,,,,,,,
,,606798d5d3590d11fbd20111,2024-02-19_03h15.09.249,kallum_motion_pilot,2023.2.2,Win32,74.62686567,606798d5d3590d11fbd20111,65d2b6c8f2eece985d8e374c,65d2b98b424f1685f09383f8,0.0707,0.0708,1,24,186,31,1,fourthree,,,,,,,,,,,,,,,,,,,,,,,,,,,,,,,,,,,,,,,,,,,,,,,,,,,,,,,,,,,,,,,,,,,,,,,,,,,,,,,,,,,,,,,,,,,,,,,,,,,,,,,,,,,,,,,,,,,,,,,,,,,,,,,,,,,,,,,,,
,,606798d5d3590d11fbd20111,2024-02-19_03h15.09.249,kallum_motion_pilot,2023.2.2,Win32,74.62686567,606798d5d3590d11fbd20111,65d2b6c8f2eece985d8e374c,65d2b98b424f1685f09383f8,0.071,0.0712,1,25,187,10,1,twoone,,,,,,,,,,,,,,,,,,,,,,,,,,,,,,,,,,,,,,,,,,,,,,,,,,,,,,,,,,,,,,,,,,,,,,,,,,,,,,,,,,,,,,,,,,,,,,,,,,,,,,,,,,,,,,,,,,,,,,,,,,,,,,,,,,,,,,,,,
,,606798d5d3590d11fbd20111,2024-02-19_03h15.09.249,kallum_motion_pilot,2023.2.2,Win32,74.62686567,606798d5d3590d11fbd20111,65d2b6c8f2eece985d8e374c,65d2b98b424f1685f09383f8,0.0713,0.0713,1,26,188,124,1,sevenfive,,,,,,,,,,,,,,,,,,,,,,,,,,,,,,,,,,,,,,,,,,,,,,,,,,,,,,,,,,,,,,,,,,,,,,,,,,,,,,,,,,,,,,,,,,,,,,,,,,,,,,,,,,,,,,,,,,,,,,,,,,,,,,,,,,,,,,,,,
,,606798d5d3590d11fbd20111,2024-02-19_03h15.09.249,kallum_motion_pilot,2023.2.2,Win32,74.62686567,606798d5d3590d11fbd20111,65d2b6c8f2eece985d8e374c,65d2b98b424f1685f09383f8,0.0714,0.0714,1,27,189,95,1,eightseven,,,,,,,,,,,,,,,,,,,,,,,,,,,,,,,,,,,,,,,,,,,,,,,,,,,,,,,,,,,,,,,,,,,,,,,,,,,,,,,,,,,,,,,,,,,,,,,,,,,,,,,,,,,,,,,,,,,,,,,,,,,,,,,,,,,,,,,,,
,,606798d5d3590d11fbd20111,2024-02-19_03h15.09.249,kallum_motion_pilot,2023.2.2,Win32,74.62686567,606798d5d3590d11fbd20111,65d2b6c8f2eece985d8e374c,65d2b98b424f1685f09383f8,0.0716,0.0717,1,28,190,64,1,onetwo,,,,,,,,,,,,,,,,,,,,,,,,,,,,,,,,,,,,,,,,,,,,,,,,,,,,,,,,,,,,,,,,,,,,,,,,,,,,,,,,,,,,,,,,,,,,,,,,,,,,,,,,,,,,,,,,,,,,,,,,,,,,,,,,,,,,,,,,,
,,606798d5d3590d11fbd20111,2024-02-19_03h15.09.249,kallum_motion_pilot,2023.2.2,Win32,74.62686567,606798d5d3590d11fbd20111,65d2b6c8f2eece985d8e374c,65d2b98b424f1685f09383f8,0.0717,0.0718,1,29,191,74,1,twoone,,,,,,,,,,,,,,,,,,,,,,,,,,,,,,,,,,,,,,,,,,,,,,,,,,,,,,,,,,,,,,,,,,,,,,,,,,,,,,,,,,,,,,,,,,,,,,,,,,,,,,,,,,,,,,,,,,,,,,,,,,,,,,,,,,,,,,,,,
,,606798d5d3590d11fbd20111,2024-02-19_03h15.09.249,kallum_motion_pilot,2023.2.2,Win32,74.62686567,606798d5d3590d11fbd20111,65d2b6c8f2eece985d8e374c,65d2b98b424f1685f09383f8,0.0719,0.0719,1,30,192,139,1,sixeight,,,,,,,,,,,,,,,,,,,,,,,,,,,,,,,,,,,,,,,,,,,,,,,,,,,,,,,,,,,,,,,,,,,,,,,,,,,,,,,,,,,,,,,,,,,,,,,,,,,,,,,,,,,,,,,,,,,,,,,,,,,,,,,,,,,,,,,,,
,,606798d5d3590d11fbd20111,2024-02-19_03h15.09.249,kallum_motion_pilot,2023.2.2,Win32,74.62686567,606798d5d3590d11fbd20111,65d2b6c8f2eece985d8e374c,65d2b98b424f1685f09383f8,0.0721,0.0721,1,31,193,44,1,threeone,,,,,,,,,,,,,,,,,,,,,,,,,,,,,,,,,,,,,,,,,,,,,,,,,,,,,,,,,,,,,,,,,,,,,,,,,,,,,,,,,,,,,,,,,,,,,,,,,,,,,,,,,,,,,,,,,,,,,,,,,,,,,,,,,,,,,,,,,
,,606798d5d3590d11fbd20111,2024-02-19_03h15.09.249,kallum_motion_pilot,2023.2.2,Win32,74.62686567,606798d5d3590d11fbd20111,65d2b6c8f2eece985d8e374c,65d2b98b424f1685f09383f8,0.0722,0.0723,1,32,194,151,1,eightseven,,,,,,,,,,,,,,,,,,,,,,,,,,,,,,,,,,,,,,,,,,,,,,,,,,,,,,,,,,,,,,,,,,,,,,,,,,,,,,,,,,,,,,,,,,,,,,,,,,,,,,,,,,,,,,,,,,,,,,,,,,,,,,,,,,,,,,,,,
,,606798d5d3590d11fbd20111,2024-02-19_03h15.09.249,kallum_motion_pilot,2023.2.2,Win32,74.62686567,606798d5d3590d11fbd20111,65d2b6c8f2eece985d8e374c,65d2b98b424f1685f09383f8,0.0725,0.0725,1,33,195,85,1,seveneight,,,,,,,,,,,,,,,,,,,,,,,,,,,,,,,,,,,,,,,,,,,,,,,,,,,,,,,,,,,,,,,,,,,,,,,,,,,,,,,,,,,,,,,,,,,,,,,,,,,,,,,,,,,,,,,,,,,,,,,,,,,,,,,,,,,,,,,,,
,,606798d5d3590d11fbd20111,2024-02-19_03h15.09.249,kallum_motion_pilot,2023.2.2,Win32,74.62686567,606798d5d3590d11fbd20111,65d2b6c8f2eece985d8e374c,65d2b98b424f1685f09383f8,0.0725,0.0726,1,34,196,57,1,onethree,,,,,,,,,,,,,,,,,,,,,,,,,,,,,,,,,,,,,,,,,,,,,,,,,,,,,,,,,,,,,,,,,,,,,,,,,,,,,,,,,,,,,,,,,,,,,,,,,,,,,,,,,,,,,,,,,,,,,,,,,,,,,,,,,,,,,,,,,
,,606798d5d3590d11fbd20111,2024-02-19_03h15.09.249,kallum_motion_pilot,2023.2.2,Win32,74.62686567,606798d5d3590d11fbd20111,65d2b6c8f2eece985d8e374c,65d2b98b424f1685f09383f8,0.0727,0.0729,1,35,197,61,1,threefour,,,,,,,,,,,,,,,,,,,,,,,,,,,,,,,,,,,,,,,,,,,,,,,,,,,,,,,,,,,,,,,,,,,,,,,,,,,,,,,,,,,,,,,,,,,,,,,,,,,,,,,,,,,,,,,,,,,,,,,,,,,,,,,,,,,,,,,,,
,,606798d5d3590d11fbd20111,2024-02-19_03h15.09.249,kallum_motion_pilot,2023.2.2,Win32,74.62686567,606798d5d3590d11fbd20111,65d2b6c8f2eece985d8e374c,65d2b98b424f1685f09383f8,0.0732,0.0734,1,36,198,76,1,threeone,,,,,,,,,,,,,,,,,,,,,,,,,,,,,,,,,,,,,,,,,,,,,,,,,,,,,,,,,,,,,,,,,,,,,,,,,,,,,,,,,,,,,,,,,,,,,,,,,,,,,,,,,,,,,,,,,,,,,,,,,,,,,,,,,,,,,,,,,
,,606798d5d3590d11fbd20111,2024-02-19_03h15.09.249,kallum_motion_pilot,2023.2.2,Win32,74.62686567,606798d5d3590d11fbd20111,65d2b6c8f2eece985d8e374c,65d2b98b424f1685f09383f8,0.0736,0.0737,1,37,199,38,1,fourtwo,,,,,,,,,,,,,,,,,,,,,,,,,,,,,,,,,,,,,,,,,,,,,,,,,,,,,,,,,,,,,,,,,,,,,,,,,,,,,,,,,,,,,,,,,,,,,,,,,,,,,,,,,,,,,,,,,,,,,,,,,,,,,,,,,,,,,,,,,
,,606798d5d3590d11fbd20111,2024-02-19_03h15.09.249,kallum_motion_pilot,2023.2.2,Win32,74.62686567,606798d5d3590d11fbd20111,65d2b6c8f2eece985d8e374c,65d2b98b424f1685f09383f8,0.074,0.0741,1,38,200,132,1,sevenfive,,,,,,,,,,,,,,,,,,,,,,,,,,,,,,,,,,,,,,,,,,,,,,,,,,,,,,,,,,,,,,,,,,,,,,,,,,,,,,,,,,,,,,,,,,,,,,,,,,,,,,,,,,,,,,,,,,,,,,,,,,,,,,,,,,,,,,,,,
,,606798d5d3590d11fbd20111,2024-02-19_03h15.09.249,kallum_motion_pilot,2023.2.2,Win32,74.62686567,606798d5d3590d11fbd20111,65d2b6c8f2eece985d8e374c,65d2b98b424f1685f09383f8,0.0742,0.0744,1,39,201,145,1,fiveseven,,,,,,,,,,,,,,,,,,,,,,,,,,,,,,,,,,,,,,,,,,,,,,,,,,,,,,,,,,,,,,,,,,,,,,,,,,,,,,,,,,,,,,,,,,,,,,,,,,,,,,,,,,,,,,,,,,,,,,,,,,,,,,,,,,,,,,,,,
,,606798d5d3590d11fbd20111,2024-02-19_03h15.09.249,kallum_motion_pilot,2023.2.2,Win32,74.62686567,606798d5d3590d11fbd20111,65d2b6c8f2eece985d8e374c,65d2b98b424f1685f09383f8,0.0746,0.0747,1,40,202,99,1,sixeight,,,,,,,,,,,,,,,,,,,,,,,,,,,,,,,,,,,,,,,,,,,,,,,,,,,,,,,,,,,,,,,,,,,,,,,,,,,,,,,,,,,,,,,,,,,,,,,,,,,,,,,,,,,,,,,,,,,,,,,,,,,,,,,,,,,,,,,,,
,,606798d5d3590d11fbd20111,2024-02-19_03h15.09.249,kallum_motion_pilot,2023.2.2,Win32,74.62686567,606798d5d3590d11fbd20111,65d2b6c8f2eece985d8e374c,65d2b98b424f1685f09383f8,0.075,0.0752,1,41,203,67,1,twofour,,,,,,,,,,,,,,,,,,,,,,,,,,,,,,,,,,,,,,,,,,,,,,,,,,,,,,,,,,,,,,,,,,,,,,,,,,,,,,,,,,,,,,,,,,,,,,,,,,,,,,,,,,,,,,,,,,,,,,,,,,,,,,,,,,,,,,,,,
,,606798d5d3590d11fbd20111,2024-02-19_03h15.09.249,kallum_motion_pilot,2023.2.2,Win32,74.62686567,606798d5d3590d11fbd20111,65d2b6c8f2eece985d8e374c,65d2b98b424f1685f09383f8,0.0754,0.0755,1,42,204,120,1,fivesix,,,,,,,,,,,,,,,,,,,,,,,,,,,,,,,,,,,,,,,,,,,,,,,,,,,,,,,,,,,,,,,,,,,,,,,,,,,,,,,,,,,,,,,,,,,,,,,,,,,,,,,,,,,,,,,,,,,,,,,,,,,,,,,,,,,,,,,,,
,,606798d5d3590d11fbd20111,2024-02-19_03h15.09.249,kallum_motion_pilot,2023.2.2,Win32,74.62686567,606798d5d3590d11fbd20111,65d2b6c8f2eece985d8e374c,65d2b98b424f1685f09383f8,0.0757,0.0759,1,43,205,60,1,threeone,,,,,,,,,,,,,,,,,,,,,,,,,,,,,,,,,,,,,,,,,,,,,,,,,,,,,,,,,,,,,,,,,,,,,,,,,,,,,,,,,,,,,,,,,,,,,,,,,,,,,,,,,,,,,,,,,,,,,,,,,,,,,,,,,,,,,,,,,
,,606798d5d3590d11fbd20111,2024-02-19_03h15.09.249,kallum_motion_pilot,2023.2.2,Win32,74.62686567,606798d5d3590d11fbd20111,65d2b6c8f2eece985d8e374c,65d2b98b424f1685f09383f8,0.0761,0.0762,1,44,206,148,1,sevenfive,,,,,,,,,,,,,,,,,,,,,,,,,,,,,,,,,,,,,,,,,,,,,,,,,,,,,,,,,,,,,,,,,,,,,,,,,,,,,,,,,,,,,,,,,,,,,,,,,,,,,,,,,,,,,,,,,,,,,,,,,,,,,,,,,,,,,,,,,
,,606798d5d3590d11fbd20111,2024-02-19_03h15.09.249,kallum_motion_pilot,2023.2.2,Win32,74.62686567,606798d5d3590d11fbd20111,65d2b6c8f2eece985d8e374c,65d2b98b424f1685f09383f8,0.0764,0.0765,1,45,207,92,1,sevenfive,,,,,,,,,,,,,,,,,,,,,,,,,,,,,,,,,,,,,,,,,,,,,,,,,,,,,,,,,,,,,,,,,,,,,,,,,,,,,,,,,,,,,,,,,,,,,,,,,,,,,,,,,,,,,,,,,,,,,,,,,,,,,,,,,,,,,,,,,
,,606798d5d3590d11fbd20111,2024-02-19_03h15.09.249,kallum_motion_pilot,2023.2.2,Win32,74.62686567,606798d5d3590d11fbd20111,65d2b6c8f2eece985d8e374c,65d2b98b424f1685f09383f8,0.0768,0.0769,1,46,208,40,1,onetwo,,,,,,,,,,,,,,,,,,,,,,,,,,,,,,,,,,,,,,,,,,,,,,,,,,,,,,,,,,,,,,,,,,,,,,,,,,,,,,,,,,,,,,,,,,,,,,,,,,,,,,,,,,,,,,,,,,,,,,,,,,,,,,,,,,,,,,,,,
,,606798d5d3590d11fbd20111,2024-02-19_03h15.09.249,kallum_motion_pilot,2023.2.2,Win32,74.62686567,606798d5d3590d11fbd20111,65d2b6c8f2eece985d8e374c,65d2b98b424f1685f09383f8,0.0771,0.0773,1,47,209,9,1,onethree,,,,,,,,,,,,,,,,,,,,,,,,,,,,,,,,,,,,,,,,,,,,,,,,,,,,,,,,,,,,,,,,,,,,,,,,,,,,,,,,,,,,,,,,,,,,,,,,,,,,,,,,,,,,,,,,,,,,,,,,,,,,,,,,,,,,,,,,,
,,606798d5d3590d11fbd20111,2024-02-19_03h15.09.249,kallum_motion_pilot,2023.2.2,Win32,74.62686567,606798d5d3590d11fbd20111,65d2b6c8f2eece985d8e374c,65d2b98b424f1685f09383f8,0.0774,0.0776,1,48,210,79,1,eightseven,,,,,,,,,,,,,,,,,,,,,,,,,,,,,,,,,,,,,,,,,,,,,,,,,,,,,,,,,,,,,,,,,,,,,,,,,,,,,,,,,,,,,,,,,,,,,,,,,,,,,,,,,,,,,,,,,,,,,,,,,,,,,,,,,,,,,,,,,
,,606798d5d3590d11fbd20111,2024-02-19_03h15.09.249,kallum_motion_pilot,2023.2.2,Win32,74.62686567,606798d5d3590d11fbd20111,65d2b6c8f2eece985d8e374c,65d2b98b424f1685f09383f8,0.0778,0.0781,1,49,211,71,1,fourthree,,,,,,,,,,,,,,,,,,,,,,,,,,,,,,,,,,,,,,,,,,,,,,,,,,,,,,,,,,,,,,,,,,,,,,,,,,,,,,,,,,,,,,,,,,,,,,,,,,,,,,,,,,,,,,,,,,,,,,,,,,,,,,,,,,,,,,,,,
,,606798d5d3590d11fbd20111,2024-02-19_03h15.09.249,kallum_motion_pilot,2023.2.2,Win32,74.62686567,606798d5d3590d11fbd20111,65d2b6c8f2eece985d8e374c,65d2b98b424f1685f09383f8,0.0782,0.0784,1,50,212,141,1,seveneight,,,,,,,,,,,,,,,,,,,,,,,,,,,,,,,,,,,,,,,,,,,,,,,,,,,,,,,,,,,,,,,,,,,,,,,,,,,,,,,,,,,,,,,,,,,,,,,,,,,,,,,,,,,,,,,,,,,,,,,,,,,,,,,,,,,,,,,,,
,,606798d5d3590d11fbd20111,2024-02-19_03h15.09.249,kallum_motion_pilot,2023.2.2,Win32,74.62686567,606798d5d3590d11fbd20111,65d2b6c8f2eece985d8e374c,65d2b98b424f1685f09383f8,0.0786,0.0788,1,51,213,135,1,eightseven,,,,,,,,,,,,,,,,,,,,,,,,,,,,,,,,,,,,,,,,,,,,,,,,,,,,,,,,,,,,,,,,,,,,,,,,,,,,,,,,,,,,,,,,,,,,,,,,,,,,,,,,,,,,,,,,,,,,,,,,,,,,,,,,,,,,,,,,,
,,606798d5d3590d11fbd20111,2024-02-19_03h15.09.249,kallum_motion_pilot,2023.2.2,Win32,74.62686567,606798d5d3590d11fbd20111,65d2b6c8f2eece985d8e374c,65d2b98b424f1685f09383f8,0.079,0.0792,1,52,214,149,1,seveneight,,,,,,,,,,,,,,,,,,,,,,,,,,,,,,,,,,,,,,,,,,,,,,,,,,,,,,,,,,,,,,,,,,,,,,,,,,,,,,,,,,,,,,,,,,,,,,,,,,,,,,,,,,,,,,,,,,,,,,,,,,,,,,,,,,,,,,,,,
,,606798d5d3590d11fbd20111,2024-02-19_03h15.09.249,kallum_motion_pilot,2023.2.2,Win32,74.62686567,606798d5d3590d11fbd20111,65d2b6c8f2eece985d8e374c,65d2b98b424f1685f09383f8,0.0794,0.0796,1,53,215,134,1,eightsix,,,,,,,,,,,,,,,,,,,,,,,,,,,,,,,,,,,,,,,,,,,,,,,,,,,,,,,,,,,,,,,,,,,,,,,,,,,,,,,,,,,,,,,,,,,,,,,,,,,,,,,,,,,,,,,,,,,,,,,,,,,,,,,,,,,,,,,,,
,,606798d5d3590d11fbd20111,2024-02-19_03h15.09.249,kallum_motion_pilot,2023.2.2,Win32,74.62686567,606798d5d3590d11fbd20111,65d2b6c8f2eece985d8e374c,65d2b98b424f1685f09383f8,0.0798,0.08,1,54,216,30,1,fourtwo,,,,,,,,,,,,,,,,,,,,,,,,,,,,,,,,,,,,,,,,,,,,,,,,,,,,,,,,,,,,,,,,,,,,,,,,,,,,,,,,,,,,,,,,,,,,,,,,,,,,,,,,,,,,,,,,,,,,,,,,,,,,,,,,,,,,,,,,,
,,606798d5d3590d11fbd20111,2024-02-19_03h15.09.249,kallum_motion_pilot,2023.2.2,Win32,74.62686567,606798d5d3590d11fbd20111,65d2b6c8f2eece985d8e374c,65d2b98b424f1685f09383f8,0.0802,0.0805,1,55,217,73,1,onethree,,,,,,,,,,,,,,,,,,,,,,,,,,,,,,,,,,,,,,,,,,,,,,,,,,,,,,,,,,,,,,,,,,,,,,,,,,,,,,,,,,,,,,,,,,,,,,,,,,,,,,,,,,,,,,,,,,,,,,,,,,,,,,,,,,,,,,,,,
,,606798d5d3590d11fbd20111,2024-02-19_03h15.09.249,kallum_motion_pilot,2023.2.2,Win32,74.62686567,606798d5d3590d11fbd20111,65d2b6c8f2eece985d8e374c,65d2b98b424f1685f09383f8,0.0807,0.081,1,56,218,103,1,eightseven,,,,,,,,,,,,,,,,,,,,,,,,,,,,,,,,,,,,,,,,,,,,,,,,,,,,,,,,,,,,,,,,,,,,,,,,,,,,,,,,,,,,,,,,,,,,,,,,,,,,,,,,,,,,,,,,,,,,,,,,,,,,,,,,,,,,,,,,,
,,606798d5d3590d11fbd20111,2024-02-19_03h15.09.249,kallum_motion_pilot,2023.2.2,Win32,74.62686567,606798d5d3590d11fbd20111,65d2b6c8f2eece985d8e374c,65d2b98b424f1685f09383f8,0.0812,0.0814,1,57,219,98,1,sixfive,,,,,,,,,,,,,,,,,,,,,,,,,,,,,,,,,,,,,,,,,,,,,,,,,,,,,,,,,,,,,,,,,,,,,,,,,,,,,,,,,,,,,,,,,,,,,,,,,,,,,,,,,,,,,,,,,,,,,,,,,,,,,,,,,,,,,,,,,
,,606798d5d3590d11fbd20111,2024-02-19_03h15.09.249,kallum_motion_pilot,2023.2.2,Win32,74.62686567,606798d5d3590d11fbd20111,65d2b6c8f2eece985d8e374c,65d2b98b424f1685f09383f8,0.0815,0.0818,1,58,220,51,1,twofour,,,,,,,,,,,,,,,,,,,,,,,,,,,,,,,,,,,,,,,,,,,,,,,,,,,,,,,,,,,,,,,,,,,,,,,,,,,,,,,,,,,,,,,,,,,,,,,,,,,,,,,,,,,,,,,,,,,,,,,,,,,,,,,,,,,,,,,,,
,,606798d5d3590d11fbd20111,2024-02-19_03h15.09.249,kallum_motion_pilot,2023.2.2,Win32,74.62686567,606798d5d3590d11fbd20111,65d2b6c8f2eece985d8e374c,65d2b98b424f1685f09383f8,0.082,0.0822,1,59,221,117,1,seveneight,,,,,,,,,,,,,,,,,,,,,,,,,,,,,,,,,,,,,,,,,,,,,,,,,,,,,,,,,,,,,,,,,,,,,,,,,,,,,,,,,,,,,,,,,,,,,,,,,,,,,,,,,,,,,,,,,,,,,,,,,,,,,,,,,,,,,,,,,
,,606798d5d3590d11fbd20111,2024-02-19_03h15.09.249,kallum_motion_pilot,2023.2.2,Win32,74.62686567,606798d5d3590d11fbd20111,65d2b6c8f2eece985d8e374c,65d2b98b424f1685f09383f8,0.0823,0.0825,1,60,222,158,1,eightsix,,,,,,,,,,,,,,,,,,,,,,,,,,,,,,,,,,,,,,,,,,,,,,,,,,,,,,,,,,,,,,,,,,,,,,,,,,,,,,,,,,,,,,,,,,,,,,,,,,,,,,,,,,,,,,,,,,,,,,,,,,,,,,,,,,,,,,,,,
,,606798d5d3590d11fbd20111,2024-02-19_03h15.09.249,kallum_motion_pilot,2023.2.2,Win32,74.62686567,606798d5d3590d11fbd20111,65d2b6c8f2eece985d8e374c,65d2b98b424f1685f09383f8,0.0827,0.0829,1,61,223,122,1,sixfive,,,,,,,,,,,,,,,,,,,,,,,,,,,,,,,,,,,,,,,,,,,,,,,,,,,,,,,,,,,,,,,,,,,,,,,,,,,,,,,,,,,,,,,,,,,,,,,,,,,,,,,,,,,,,,,,,,,,,,,,,,,,,,,,,,,,,,,,,
,,606798d5d3590d11fbd20111,2024-02-19_03h15.09.249,kallum_motion_pilot,2023.2.2,Win32,74.62686567,606798d5d3590d11fbd20111,65d2b6c8f2eece985d8e374c,65d2b98b424f1685f09383f8,0.083,0.0832,1,62,224,142,1,eightsix,,,,,,,,,,,,,,,,,,,,,,,,,,,,,,,,,,,,,,,,,,,,,,,,,,,,,,,,,,,,,,,,,,,,,,,,,,,,,,,,,,,,,,,,,,,,,,,,,,,,,,,,,,,,,,,,,,,,,,,,,,,,,,,,,,,,,,,,,
,,606798d5d3590d11fbd20111,2024-02-19_03h15.09.249,kallum_motion_pilot,2023.2.2,Win32,74.62686567,606798d5d3590d11fbd20111,65d2b6c8f2eece985d8e374c,65d2b98b424f1685f09383f8,0.0833,0.0835,1,63,225,36,1,threeone,,,,,,,,,,,,,,,,,,,,,,,,,,,,,,,,,,,,,,,,,,,,,,,,,,,,,,,,,,,,,,,,,,,,,,,,,,,,,,,,,,,,,,,,,,,,,,,,,,,,,,,,,,,,,,,,,,,,,,,,,,,,,,,,,,,,,,,,,
,,606798d5d3590d11fbd20111,2024-02-19_03h15.09.249,kallum_motion_pilot,2023.2.2,Win32,74.62686567,606798d5d3590d11fbd20111,65d2b6c8f2eece985d8e374c,65d2b98b424f1685f09383f8,0.0837,0.0838,1,64,226,70,1,fourtwo,,,,,,,,,,,,,,,,,,,,,,,,,,,,,,,,,,,,,,,,,,,,,,,,,,,,,,,,,,,,,,,,,,,,,,,,,,,,,,,,,,,,,,,,,,,,,,,,,,,,,,,,,,,,,,,,,,,,,,,,,,,,,,,,,,,,,,,,,
,,606798d5d3590d11fbd20111,2024-02-19_03h15.09.249,kallum_motion_pilot,2023.2.2,Win32,74.62686567,606798d5d3590d11fbd20111,65d2b6c8f2eece985d8e374c,65d2b98b424f1685f09383f8,0.0839,0.084,1,65,227,159,1,eightseven,,,,,,,,,,,,,,,,,,,,,,,,,,,,,,,,,,,,,,,,,,,,,,,,,,,,,,,,,,,,,,,,,,,,,,,,,,,,,,,,,,,,,,,,,,,,,,,,,,,,,,,,,,,,,,,,,,,,,,,,,,,,,,,,,,,,,,,,,
,,606798d5d3590d11fbd20111,2024-02-19_03h15.09.249,kallum_motion_pilot,2023.2.2,Win32,74.62686567,606798d5d3590d11fbd20111,65d2b6c8f2eece985d8e374c,65d2b98b424f1685f09383f8,0.0841,0.0842,1,66,228,47,1,fourthree,,,,,,,,,,,,,,,,,,,,,,,,,,,,,,,,,,,,,,,,,,,,,,,,,,,,,,,,,,,,,,,,,,,,,,,,,,,,,,,,,,,,,,,,,,,,,,,,,,,,,,,,,,,,,,,,,,,,,,,,,,,,,,,,,,,,,,,,,
,,606798d5d3590d11fbd20111,2024-02-19_03h15.09.249,kallum_motion_pilot,2023.2.2,Win32,74.62686567,606798d5d3590d11fbd20111,65d2b6c8f2eece985d8e374c,65d2b98b424f1685f09383f8,0.0843,0.0844,1,67,229,107,1,sixeight,,,,,,,,,,,,,,,,,,,,,,,,,,,,,,,,,,,,,,,,,,,,,,,,,,,,,,,,,,,,,,,,,,,,,,,,,,,,,,,,,,,,,,,,,,,,,,,,,,,,,,,,,,,,,,,,,,,,,,,,,,,,,,,,,,,,,,,,,
,,606798d5d3590d11fbd20111,2024-02-19_03h15.09.249,kallum_motion_pilot,2023.2.2,Win32,74.62686567,606798d5d3590d11fbd20111,65d2b6c8f2eece985d8e374c,65d2b98b424f1685f09383f8,0.0848,0.0849,1,68,230,112,1,fivesix,,,,,,,,,,,,,,,,,,,,,,,,,,,,,,,,,,,,,,,,,,,,,,,,,,,,,,,,,,,,,,,,,,,,,,,,,,,,,,,,,,,,,,,,,,,,,,,,,,,,,,,,,,,,,,,,,,,,,,,,,,,,,,,,,,,,,,,,,
,,606798d5d3590d11fbd20111,2024-02-19_03h15.09.249,kallum_motion_pilot,2023.2.2,Win32,74.62686567,606798d5d3590d11fbd20111,65d2b6c8f2eece985d8e374c,65d2b98b424f1685f09383f8,0.085,0.0851,1,69,231,16,1,onetwo,,,,,,,,,,,,,,,,,,,,,,,,,,,,,,,,,,,,,,,,,,,,,,,,,,,,,,,,,,,,,,,,,,,,,,,,,,,,,,,,,,,,,,,,,,,,,,,,,,,,,,,,,,,,,,,,,,,,,,,,,,,,,,,,,,,,,,,,,
,,606798d5d3590d11fbd20111,2024-02-19_03h15.09.249,kallum_motion_pilot,2023.2.2,Win32,74.62686567,606798d5d3590d11fbd20111,65d2b6c8f2eece985d8e374c,65d2b98b424f1685f09383f8,0.0851,0.0852,1,70,232,55,1,fourthree,,,,,,,,,,,,,,,,,,,,,,,,,,,,,,,,,,,,,,,,,,,,,,,,,,,,,,,,,,,,,,,,,,,,,,,,,,,,,,,,,,,,,,,,,,,,,,,,,,,,,,,,,,,,,,,,,,,,,,,,,,,,,,,,,,,,,,,,,
,,606798d5d3590d11fbd20111,2024-02-19_03h15.09.249,kallum_motion_pilot,2023.2.2,Win32,74.62686567,606798d5d3590d11fbd20111,65d2b6c8f2eece985d8e374c,65d2b98b424f1685f09383f8,0.0853,0.0853,1,71,233,115,1,sixeight,,,,,,,,,,,,,,,,,,,,,,,,,,,,,,,,,,,,,,,,,,,,,,,,,,,,,,,,,,,,,,,,,,,,,,,,,,,,,,,,,,,,,,,,,,,,,,,,,,,,,,,,,,,,,,,,,,,,,,,,,,,,,,,,,,,,,,,,,
,,606798d5d3590d11fbd20111,2024-02-19_03h15.09.249,kallum_motion_pilot,2023.2.2,Win32,74.62686567,606798d5d3590d11fbd20111,65d2b6c8f2eece985d8e374c,65d2b98b424f1685f09383f8,0.0854,0.0855,1,72,234,0,1,onetwo,,,,,,,,,,,,,,,,,,,,,,,,,,,,,,,,,,,,,,,,,,,,,,,,,,,,,,,,,,,,,,,,,,,,,,,,,,,,,,,,,,,,,,,,,,,,,,,,,,,,,,,,,,,,,,,,,,,,,,,,,,,,,,,,,,,,,,,,,
,,606798d5d3590d11fbd20111,2024-02-19_03h15.09.249,kallum_motion_pilot,2023.2.2,Win32,74.62686567,606798d5d3590d11fbd20111,65d2b6c8f2eece985d8e374c,65d2b98b424f1685f09383f8,0.0857,0.0857,1,73,235,130,1,sixfive,,,,,,,,,,,,,,,,,,,,,,,,,,,,,,,,,,,,,,,,,,,,,,,,,,,,,,,,,,,,,,,,,,,,,,,,,,,,,,,,,,,,,,,,,,,,,,,,,,,,,,,,,,,,,,,,,,,,,,,,,,,,,,,,,,,,,,,,,
,,606798d5d3590d11fbd20111,2024-02-19_03h15.09.249,kallum_motion_pilot,2023.2.2,Win32,74.62686567,606798d5d3590d11fbd20111,65d2b6c8f2eece985d8e374c,65d2b98b424f1685f09383f8,0.0858,0.086,1,74,236,22,1,fourtwo,,,,,,,,,,,,,,,,,,,,,,,,,,,,,,,,,,,,,,,,,,,,,,,,,,,,,,,,,,,,,,,,,,,,,,,,,,,,,,,,,,,,,,,,,,,,,,,,,,,,,,,,,,,,,,,,,,,,,,,,,,,,,,,,,,,,,,,,,
,,606798d5d3590d11fbd20111,2024-02-19_03h15.09.249,kallum_motion_pilot,2023.2.2,Win32,74.62686567,606798d5d3590d11fbd20111,65d2b6c8f2eece985d8e374c,65d2b98b424f1685f09383f8,0.0861,0.0863,1,75,237,48,1,onetwo,,,,,,,,,,,,,,,,,,,,,,,,,,,,,,,,,,,,,,,,,,,,,,,,,,,,,,,,,,,,,,,,,,,,,,,,,,,,,,,,,,,,,,,,,,,,,,,,,,,,,,,,,,,,,,,,,,,,,,,,,,,,,,,,,,,,,,,,,
,,606798d5d3590d11fbd20111,2024-02-19_03h15.09.249,kallum_motion_pilot,2023.2.2,Win32,74.62686567,606798d5d3590d11fbd20111,65d2b6c8f2eece985d8e374c,65d2b98b424f1685f09383f8,0.0865,0.0867,1,76,238,21,1,threefour,,,,,,,,,,,,,,,,,,,,,,,,,,,,,,,,,,,,,,,,,,,,,,,,,,,,,,,,,,,,,,,,,,,,,,,,,,,,,,,,,,,,,,,,,,,,,,,,,,,,,,,,,,,,,,,,,,,,,,,,,,,,,,,,,,,,,,,,,
,,606798d5d3590d11fbd20111,2024-02-19_03h15.09.249,kallum_motion_pilot,2023.2.2,Win32,74.62686567,606798d5d3590d11fbd20111,65d2b6c8f2eece985d8e374c,65d2b98b424f1685f09383f8,0.0868,0.087,1,77,239,154,1,sixfive,,,,,,,,,,,,,,,,,,,,,,,,,,,,,,,,,,,,,,,,,,,,,,,,,,,,,,,,,,,,,,,,,,,,,,,,,,,,,,,,,,,,,,,,,,,,,,,,,,,,,,,,,,,,,,,,,,,,,,,,,,,,,,,,,,,,,,,,,
,,606798d5d3590d11fbd20111,2024-02-19_03h15.09.249,kallum_motion_pilot,2023.2.2,Win32,74.62686567,606798d5d3590d11fbd20111,65d2b6c8f2eece985d8e374c,65d2b98b424f1685f09383f8,0.0872,0.0874,1,78,240,109,1,seveneight,,,,,,,,,,,,,,,,,,,,,,,,,,,,,,,,,,,,,,,,,,,,,,,,,,,,,,,,,,,,,,,,,,,,,,,,,,,,,,,,,,,,,,,,,,,,,,,,,,,,,,,,,,,,,,,,,,,,,,,,,,,,,,,,,,,,,,,,,
,,606798d5d3590d11fbd20111,2024-02-19_03h15.09.249,kallum_motion_pilot,2023.2.2,Win32,74.62686567,606798d5d3590d11fbd20111,65d2b6c8f2eece985d8e374c,65d2b98b424f1685f09383f8,0.0877,0.0878,1,79,241,53,1,threefour,,,,,,,,,,,,,,,,,,,,,,,,,,,,,,,,,,,,,,,,,,,,,,,,,,,,,,,,,,,,,,,,,,,,,,,,,,,,,,,,,,,,,,,,,,,,,,,,,,,,,,,,,,,,,,,,,,,,,,,,,,,,,,,,,,,,,,,,,
,,606798d5d3590d11fbd20111,2024-02-19_03h15.09.249,kallum_motion_pilot,2023.2.2,Win32,74.62686567,606798d5d3590d11fbd20111,65d2b6c8f2eece985d8e374c,65d2b98b424f1685f09383f8,0.088,0.0882,1,80,242,91,1,sixeight,,,,,,,,,,,,,,,,,,,,,,,,,,,,,,,,,,,,,,,,,,,,,,,,,,,,,,,,,,,,,,,,,,,,,,,,,,,,,,,,,,,,,,,,,,,,,,,,,,,,,,,,,,,,,,,,,,,,,,,,,,,,,,,,,,,,,,,,,
,,606798d5d3590d11fbd20111,2024-02-19_03h15.09.249,kallum_motion_pilot,2023.2.2,Win32,74.62686567,606798d5d3590d11fbd20111,65d2b6c8f2eece985d8e374c,65d2b98b424f1685f09383f8,0.0883,0.0884,1,81,243,121,1,fiveseven,,,,,,,,,,,,,,,,,,,,,,,,,,,,,,,,,,,,,,,,,,,,,,,,,,,,,,,,,,,,,,,,,,,,,,,,,,,,,,,,,,,,,,,,,,,,,,,,,,,,,,,,,,,,,,,,,,,,,,,,,,,,,,,,,,,,,,,,,
,,606798d5d3590d11fbd20111,2024-02-19_03h15.09.249,kallum_motion_pilot,2023.2.2,Win32,74.62686567,606798d5d3590d11fbd20111,65d2b6c8f2eece985d8e374c,65d2b98b424f1685f09383f8,0.0885,0.0886,1,82,244,113,1,fiveseven,,,,,,,,,,,,,,,,,,,,,,,,,,,,,,,,,,,,,,,,,,,,,,,,,,,,,,,,,,,,,,,,,,,,,,,,,,,,,,,,,,,,,,,,,,,,,,,,,,,,,,,,,,,,,,,,,,,,,,,,,,,,,,,,,,,,,,,,,
,,606798d5d3590d11fbd20111,2024-02-19_03h15.09.249,kallum_motion_pilot,2023.2.2,Win32,74.62686567,606798d5d3590d11fbd20111,65d2b6c8f2eece985d8e374c,65d2b98b424f1685f09383f8,0.0887,0.0888,1,83,245,96,1,fivesix,,,,,,,,,,,,,,,,,,,,,,,,,,,,,,,,,,,,,,,,,,,,,,,,,,,,,,,,,,,,,,,,,,,,,,,,,,,,,,,,,,,,,,,,,,,,,,,,,,,,,,,,,,,,,,,,,,,,,,,,,,,,,,,,,,,,,,,,,
,,606798d5d3590d11fbd20111,2024-02-19_03h15.09.249,kallum_motion_pilot,2023.2.2,Win32,74.62686567,606798d5d3590d11fbd20111,65d2b6c8f2eece985d8e374c,65d2b98b424f1685f09383f8,0.0889,0.0891,1,84,246,56,1,onetwo,,,,,,,,,,,,,,,,,,,,,,,,,,,,,,,,,,,,,,,,,,,,,,,,,,,,,,,,,,,,,,,,,,,,,,,,,,,,,,,,,,,,,,,,,,,,,,,,,,,,,,,,,,,,,,,,,,,,,,,,,,,,,,,,,,,,,,,,,
,,606798d5d3590d11fbd20111,2024-02-19_03h15.09.249,kallum_motion_pilot,2023.2.2,Win32,74.62686567,606798d5d3590d11fbd20111,65d2b6c8f2eece985d8e374c,65d2b98b424f1685f09383f8,0.0891,0.0893,1,85,247,50,1,twoone,,,,,,,,,,,,,,,,,,,,,,,,,,,,,,,,,,,,,,,,,,,,,,,,,,,,,,,,,,,,,,,,,,,,,,,,,,,,,,,,,,,,,,,,,,,,,,,,,,,,,,,,,,,,,,,,,,,,,,,,,,,,,,,,,,,,,,,,,
,,606798d5d3590d11fbd20111,2024-02-19_03h15.09.249,kallum_motion_pilot,2023.2.2,Win32,74.62686567,606798d5d3590d11fbd20111,65d2b6c8f2eece985d8e374c,65d2b98b424f1685f09383f8,0.0895,0.0896,1,86,248,26,1,twoone,,,,,,,,,,,,,,,,,,,,,,,,,,,,,,,,,,,,,,,,,,,,,,,,,,,,,,,,,,,,,,,,,,,,,,,,,,,,,,,,,,,,,,,,,,,,,,,,,,,,,,,,,,,,,,,,,,,,,,,,,,,,,,,,,,,,,,,,,
,,606798d5d3590d11fbd20111,2024-02-19_03h15.09.249,kallum_motion_pilot,2023.2.2,Win32,74.62686567,606798d5d3590d11fbd20111,65d2b6c8f2eece985d8e374c,65d2b98b424f1685f09383f8,0.0897,0.0897,1,87,249,17,1,onethree,,,,,,,,,,,,,,,,,,,,,,,,,,,,,,,,,,,,,,,,,,,,,,,,,,,,,,,,,,,,,,,,,,,,,,,,,,,,,,,,,,,,,,,,,,,,,,,,,,,,,,,,,,,,,,,,,,,,,,,,,,,,,,,,,,,,,,,,,
,,606798d5d3590d11fbd20111,2024-02-19_03h15.09.249,kallum_motion_pilot,2023.2.2,Win32,74.62686567,606798d5d3590d11fbd20111,65d2b6c8f2eece985d8e374c,65d2b98b424f1685f09383f8,0.0899,0.09,1,88,250,29,1,threefour,,,,,,,,,,,,,,,,,,,,,,,,,,,,,,,,,,,,,,,,,,,,,,,,,,,,,,,,,,,,,,,,,,,,,,,,,,,,,,,,,,,,,,,,,,,,,,,,,,,,,,,,,,,,,,,,,,,,,,,,,,,,,,,,,,,,,,,,,
,,606798d5d3590d11fbd20111,2024-02-19_03h15.09.249,kallum_motion_pilot,2023.2.2,Win32,74.62686567,606798d5d3590d11fbd20111,65d2b6c8f2eece985d8e374c,65d2b98b424f1685f09383f8,0.0902,0.0903,1,89,251,80,1,fivesix,,,,,,,,,,,,,,,,,,,,,,,,,,,,,,,,,,,,,,,,,,,,,,,,,,,,,,,,,,,,,,,,,,,,,,,,,,,,,,,,,,,,,,,,,,,,,,,,,,,,,,,,,,,,,,,,,,,,,,,,,,,,,,,,,,,,,,,,,
,,606798d5d3590d11fbd20111,2024-02-19_03h15.09.249,kallum_motion_pilot,2023.2.2,Win32,74.62686567,606798d5d3590d11fbd20111,65d2b6c8f2eece985d8e374c,65d2b98b424f1685f09383f8,0.0904,0.0905,1,90,252,32,1,onetwo,,,,,,,,,,,,,,,,,,,,,,,,,,,,,,,,,,,,,,,,,,,,,,,,,,,,,,,,,,,,,,,,,,,,,,,,,,,,,,,,,,,,,,,,,,,,,,,,,,,,,,,,,,,,,,,,,,,,,,,,,,,,,,,,,,,,,,,,,
,,606798d5d3590d11fbd20111,2024-02-19_03h15.09.249,kallum_motion_pilot,2023.2.2,Win32,74.62686567,606798d5d3590d11fbd20111,65d2b6c8f2eece985d8e374c,65d2b98b424f1685f09383f8,0.0906,0.0906,1,91,253,89,1,fiveseven,,,,,,,,,,,,,,,,,,,,,,,,,,,,,,,,,,,,,,,,,,,,,,,,,,,,,,,,,,,,,,,,,,,,,,,,,,,,,,,,,,,,,,,,,,,,,,,,,,,,,,,,,,,,,,,,,,,,,,,,,,,,,,,,,,,,,,,,,
,,606798d5d3590d11fbd20111,2024-02-19_03h15.09.249,kallum_motion_pilot,2023.2.2,Win32,74.62686567,606798d5d3590d11fbd20111,65d2b6c8f2eece985d8e374c,65d2b98b424f1685f09383f8,0.0908,0.0909,1,92,254,46,1,fourtwo,,,,,,,,,,,,,,,,,,,,,,,,,,,,,,,,,,,,,,,,,,,,,,,,,,,,,,,,,,,,,,,,,,,,,,,,,,,,,,,,,,,,,,,,,,,,,,,,,,,,,,,,,,,,,,,,,,,,,,,,,,,,,,,,,,,,,,,,,
,,606798d5d3590d11fbd20111,2024-02-19_03h15.09.249,kallum_motion_pilot,2023.2.2,Win32,74.62686567,606798d5d3590d11fbd20111,65d2b6c8f2eece985d8e374c,65d2b98b424f1685f09383f8,0.0912,0.0913,1,93,255,37,1,threefour,,,,,,,,,,,,,,,,,,,,,,,,,,,,,,,,,,,,,,,,,,,,,,,,,,,,,,,,,,,,,,,,,,,,,,,,,,,,,,,,,,,,,,,,,,,,,,,,,,,,,,,,,,,,,,,,,,,,,,,,,,,,,,,,,,,,,,,,,
,,606798d5d3590d11fbd20111,2024-02-19_03h15.09.249,kallum_motion_pilot,2023.2.2,Win32,74.62686567,606798d5d3590d11fbd20111,65d2b6c8f2eece985d8e374c,65d2b98b424f1685f09383f8,0.0915,0.0916,1,94,256,39,1,fourthree,,,,,,,,,,,,,,,,,,,,,,,,,,,,,,,,,,,,,,,,,,,,,,,,,,,,,,,,,,,,,,,,,,,,,,,,,,,,,,,,,,,,,,,,,,,,,,,,,,,,,,,,,,,,,,,,,,,,,,,,,,,,,,,,,,,,,,,,,
,,606798d5d3590d11fbd20111,2024-02-19_03h15.09.249,kallum_motion_pilot,2023.2.2,Win32,74.62686567,606798d5d3590d11fbd20111,65d2b6c8f2eece985d8e374c,65d2b98b424f1685f09383f8,0.0917,0.0918,1,95,257,65,1,onethree,,,,,,,,,,,,,,,,,,,,,,,,,,,,,,,,,,,,,,,,,,,,,,,,,,,,,,,,,,,,,,,,,,,,,,,,,,,,,,,,,,,,,,,,,,,,,,,,,,,,,,,,,,,,,,,,,,,,,,,,,,,,,,,,,,,,,,,,,
,,606798d5d3590d11fbd20111,2024-02-19_03h15.09.249,kallum_motion_pilot,2023.2.2,Win32,74.62686567,606798d5d3590d11fbd20111,65d2b6c8f2eece985d8e374c,65d2b98b424f1685f09383f8,0.0919,0.092,1,96,258,24,1,onetwo,,,,,,,,,,,,,,,,,,,,,,,,,,,,,,,,,,,,,,,,,,,,,,,,,,,,,,,,,,,,,,,,,,,,,,,,,,,,,,,,,,,,,,,,,,,,,,,,,,,,,,,,,,,,,,,,,,,,,,,,,,,,,,,,,,,,,,,,,
,,606798d5d3590d11fbd20111,2024-02-19_03h15.09.249,kallum_motion_pilot,2023.2.2,Win32,74.62686567,606798d5d3590d11fbd20111,65d2b6c8f2eece985d8e374c,65d2b98b424f1685f09383f8,0.0921,0.0923,1,97,259,34,1,twoone,,,,,,,,,,,,,,,,,,,,,,,,,,,,,,,,,,,,,,,,,,,,,,,,,,,,,,,,,,,,,,,,,,,,,,,,,,,,,,,,,,,,,,,,,,,,,,,,,,,,,,,,,,,,,,,,,,,,,,,,,,,,,,,,,,,,,,,,,
,,606798d5d3590d11fbd20111,2024-02-19_03h15.09.249,kallum_motion_pilot,2023.2.2,Win32,74.62686567,606798d5d3590d11fbd20111,65d2b6c8f2eece985d8e374c,65d2b98b424f1685f09383f8,0.0924,0.0925,1,98,260,25,1,onethree,,,,,,,,,,,,,,,,,,,,,,,,,,,,,,,,,,,,,,,,,,,,,,,,,,,,,,,,,,,,,,,,,,,,,,,,,,,,,,,,,,,,,,,,,,,,,,,,,,,,,,,,,,,,,,,,,,,,,,,,,,,,,,,,,,,,,,,,,
,,606798d5d3590d11fbd20111,2024-02-19_03h15.09.249,kallum_motion_pilot,2023.2.2,Win32,74.62686567,606798d5d3590d11fbd20111,65d2b6c8f2eece985d8e374c,65d2b98b424f1685f09383f8,0.0925,0.0926,1,99,261,156,1,sevenfive,,,,,,,,,,,,,,,,,,,,,,,,,,,,,,,,,,,,,,,,,,,,,,,,,,,,,,,,,,,,,,,,,,,,,,,,,,,,,,,,,,,,,,,,,,,,,,,,,,,,,,,,,,,,,,,,,,,,,,,,,,,,,,,,,,,,,,,,,
,,606798d5d3590d11fbd20111,2024-02-19_03h15.09.249,kallum_motion_pilot,2023.2.2,Win32,74.62686567,606798d5d3590d11fbd20111,65d2b6c8f2eece985d8e374c,65d2b98b424f1685f09383f8,0.0927,0.0928,1,100,262,161,1,fiveseven,,,,,,,,,,,,,,,,,,,,,,,,,,,,,,,,,,,,,,,,,,,,,,,,,,,,,,,,,,,,,,,,,,,,,,,,,,,,,,,,,,,,,,,,,,,,,,,,,,,,,,,,,,,,,,,,,,,,,,,,,,,,,,,,,,,,,,,,,
,,606798d5d3590d11fbd20111,2024-02-19_03h15.09.249,kallum_motion_pilot,2023.2.2,Win32,74.62686567,606798d5d3590d11fbd20111,65d2b6c8f2eece985d8e374c,65d2b98b424f1685f09383f8,0.0928,0.0929,1,101,263,1,1,onethree,,,,,,,,,,,,,,,,,,,,,,,,,,,,,,,,,,,,,,,,,,,,,,,,,,,,,,,,,,,,,,,,,,,,,,,,,,,,,,,,,,,,,,,,,,,,,,,,,,,,,,,,,,,,,,,,,,,,,,,,,,,,,,,,,,,,,,,,,
,,606798d5d3590d11fbd20111,2024-02-19_03h15.09.249,kallum_motion_pilot,2023.2.2,Win32,74.62686567,606798d5d3590d11fbd20111,65d2b6c8f2eece985d8e374c,65d2b98b424f1685f09383f8,0.093,0.0932,1,102,264,62,1,fourtwo,,,,,,,,,,,,,,,,,,,,,,,,,,,,,,,,,,,,,,,,,,,,,,,,,,,,,,,,,,,,,,,,,,,,,,,,,,,,,,,,,,,,,,,,,,,,,,,,,,,,,,,,,,,,,,,,,,,,,,,,,,,,,,,,,,,,,,,,,
,,606798d5d3590d11fbd20111,2024-02-19_03h15.09.249,kallum_motion_pilot,2023.2.2,Win32,74.62686567,606798d5d3590d11fbd20111,65d2b6c8f2eece985d8e374c,65d2b98b424f1685f09383f8,0.0934,0.0935,1,103,265,77,1,threefour,,,,,,,,,,,,,,,,,,,,,,,,,,,,,,,,,,,,,,,,,,,,,,,,,,,,,,,,,,,,,,,,,,,,,,,,,,,,,,,,,,,,,,,,,,,,,,,,,,,,,,,,,,,,,,,,,,,,,,,,,,,,,,,,,,,,,,,,,
,,606798d5d3590d11fbd20111,2024-02-19_03h15.09.249,kallum_motion_pilot,2023.2.2,Win32,74.62686567,606798d5d3590d11fbd20111,65d2b6c8f2eece985d8e374c,65d2b98b424f1685f09383f8,0.0936,0.0936,1,104,266,111,1,eightseven,,,,,,,,,,,,,,,,,,,,,,,,,,,,,,,,,,,,,,,,,,,,,,,,,,,,,,,,,,,,,,,,,,,,,,,,,,,,,,,,,,,,,,,,,,,,,,,,,,,,,,,,,,,,,,,,,,,,,,,,,,,,,,,,,,,,,,,,,
,,606798d5d3590d11fbd20111,2024-02-19_03h15.09.249,kallum_motion_pilot,2023.2.2,Win32,74.62686567,606798d5d3590d11fbd20111,65d2b6c8f2eece985d8e374c,65d2b98b424f1685f09383f8,0.0937,0.0938,1,105,267,94,1,eightsix,,,,,,,,,,,,,,,,,,,,,,,,,,,,,,,,,,,,,,,,,,,,,,,,,,,,,,,,,,,,,,,,,,,,,,,,,,,,,,,,,,,,,,,,,,,,,,,,,,,,,,,,,,,,,,,,,,,,,,,,,,,,,,,,,,,,,,,,,
,,606798d5d3590d11fbd20111,2024-02-19_03h15.09.249,kallum_motion_pilot,2023.2.2,Win32,74.62686567,606798d5d3590d11fbd20111,65d2b6c8f2eece985d8e374c,65d2b98b424f1685f09383f8,0.0939,0.094,1,106,268,97,1,fiveseven,,,,,,,,,,,,,,,,,,,,,,,,,,,,,,,,,,,,,,,,,,,,,,,,,,,,,,,,,,,,,,,,,,,,,,,,,,,,,,,,,,,,,,,,,,,,,,,,,,,,,,,,,,,,,,,,,,,,,,,,,,,,,,,,,,,,,,,,,
,,606798d5d3590d11fbd20111,2024-02-19_03h15.09.249,kallum_motion_pilot,2023.2.2,Win32,74.62686567,606798d5d3590d11fbd20111,65d2b6c8f2eece985d8e374c,65d2b98b424f1685f09383f8,0.0941,0.0942,1,107,269,7,1,fourthree,,,,,,,,,,,,,,,,,,,,,,,,,,,,,,,,,,,,,,,,,,,,,,,,,,,,,,,,,,,,,,,,,,,,,,,,,,,,,,,,,,,,,,,,,,,,,,,,,,,,,,,,,,,,,,,,,,,,,,,,,,,,,,,,,,,,,,,,,
,,606798d5d3590d11fbd20111,2024-02-19_03h15.09.249,kallum_motion_pilot,2023.2.2,Win32,74.62686567,606798d5d3590d11fbd20111,65d2b6c8f2eece985d8e374c,65d2b98b424f1685f09383f8,0.0943,0.0944,1,108,270,90,1,sixfive,,,,,,,,,,,,,,,,,,,,,,,,,,,,,,,,,,,,,,,,,,,,,,,,,,,,,,,,,,,,,,,,,,,,,,,,,,,,,,,,,,,,,,,,,,,,,,,,,,,,,,,,,,,,,,,,,,,,,,,,,,,,,,,,,,,,,,,,,
,,606798d5d3590d11fbd20111,2024-02-19_03h15.09.249,kallum_motion_pilot,2023.2.2,Win32,74.62686567,606798d5d3590d11fbd20111,65d2b6c8f2eece985d8e374c,65d2b98b424f1685f09383f8,0.0944,0.0946,1,109,271,138,1,sixfive,,,,,,,,,,,,,,,,,,,,,,,,,,,,,,,,,,,,,,,,,,,,,,,,,,,,,,,,,,,,,,,,,,,,,,,,,,,,,,,,,,,,,,,,,,,,,,,,,,,,,,,,,,,,,,,,,,,,,,,,,,,,,,,,,,,,,,,,,
,,606798d5d3590d11fbd20111,2024-02-19_03h15.09.249,kallum_motion_pilot,2023.2.2,Win32,74.62686567,606798d5d3590d11fbd20111,65d2b6c8f2eece985d8e374c,65d2b98b424f1685f09383f8,0.0947,0.0948,1,110,272,33,1,onethree,,,,,,,,,,,,,,,,,,,,,,,,,,,,,,,,,,,,,,,,,,,,,,,,,,,,,,,,,,,,,,,,,,,,,,,,,,,,,,,,,,,,,,,,,,,,,,,,,,,,,,,,,,,,,,,,,,,,,,,,,,,,,,,,,,,,,,,,,
,,606798d5d3590d11fbd20111,2024-02-19_03h15.09.249,kallum_motion_pilot,2023.2.2,Win32,74.62686567,606798d5d3590d11fbd20111,65d2b6c8f2eece985d8e374c,65d2b98b424f1685f09383f8,0.0949,0.095,1,111,273,127,1,eightseven,,,,,,,,,,,,,,,,,,,,,,,,,,,,,,,,,,,,,,,,,,,,,,,,,,,,,,,,,,,,,,,,,,,,,,,,,,,,,,,,,,,,,,,,,,,,,,,,,,,,,,,,,,,,,,,,,,,,,,,,,,,,,,,,,,,,,,,,,
,,606798d5d3590d11fbd20111,2024-02-19_03h15.09.249,kallum_motion_pilot,2023.2.2,Win32,74.62686567,606798d5d3590d11fbd20111,65d2b6c8f2eece985d8e374c,65d2b98b424f1685f09383f8,0.0951,0.0952,1,112,274,105,1,fiveseven,,,,,,,,,,,,,,,,,,,,,,,,,,,,,,,,,,,,,,,,,,,,,,,,,,,,,,,,,,,,,,,,,,,,,,,,,,,,,,,,,,,,,,,,,,,,,,,,,,,,,,,,,,,,,,,,,,,,,,,,,,,,,,,,,,,,,,,,,
,,606798d5d3590d11fbd20111,2024-02-19_03h15.09.249,kallum_motion_pilot,2023.2.2,Win32,74.62686567,606798d5d3590d11fbd20111,65d2b6c8f2eece985d8e374c,65d2b98b424f1685f09383f8,0.0953,0.0954,1,113,275,63,1,fourthree,,,,,,,,,,,,,,,,,,,,,,,,,,,,,,,,,,,,,,,,,,,,,,,,,,,,,,,,,,,,,,,,,,,,,,,,,,,,,,,,,,,,,,,,,,,,,,,,,,,,,,,,,,,,,,,,,,,,,,,,,,,,,,,,,,,,,,,,,
,,606798d5d3590d11fbd20111,2024-02-19_03h15.09.249,kallum_motion_pilot,2023.2.2,Win32,74.62686567,606798d5d3590d11fbd20111,65d2b6c8f2eece985d8e374c,65d2b98b424f1685f09383f8,0.0955,0.0956,1,114,276,114,1,sixfive,,,,,,,,,,,,,,,,,,,,,,,,,,,,,,,,,,,,,,,,,,,,,,,,,,,,,,,,,,,,,,,,,,,,,,,,,,,,,,,,,,,,,,,,,,,,,,,,,,,,,,,,,,,,,,,,,,,,,,,,,,,,,,,,,,,,,,,,,
,,606798d5d3590d11fbd20111,2024-02-19_03h15.09.249,kallum_motion_pilot,2023.2.2,Win32,74.62686567,606798d5d3590d11fbd20111,65d2b6c8f2eece985d8e374c,65d2b98b424f1685f09383f8,0.0957,0.0958,1,115,277,129,1,fiveseven,,,,,,,,,,,,,,,,,,,,,,,,,,,,,,,,,,,,,,,,,,,,,,,,,,,,,,,,,,,,,,,,,,,,,,,,,,,,,,,,,,,,,,,,,,,,,,,,,,,,,,,,,,,,,,,,,,,,,,,,,,,,,,,,,,,,,,,,,
