startup.started,startup.stopped,Prolific ID*,date,expName,psychopyVersion,OS,frameRate,participant,study_id,session,stimpositions.started,stimpositions.stopped,hardcoded_stimulus_positions.thisRepN,hardcoded_stimulus_positions.thisTrialN,hardcoded_stimulus_positions.thisN,hardcoded_stimulus_positions.thisIndex,hardcoded_stimulus_positions.ran,StimulusPos,stimorientation.started,stimorientation.stopped,prac_stimorientation_import_loop.thisRepN,prac_stimorientation_import_loop.thisTrialN,prac_stimorientation_import_loop.thisN,prac_stimorientation_import_loop.thisIndex,prac_stimorientation_import_loop.ran,Stimorientation,welcome_instr.started,welcome_instr.stopped,key_resp.keys,key_resp.rt,key_resp.duration,response_steppedout_1.started,response_steppedout_1.stopped,key_resp_20.keys,key_resp_20.rt,key_resp_20.duration,response_steppedout_2.started,response_steppedout_2.stopped,key_resp_19.keys,key_resp_19.rt,key_resp_19.duration,stim_response_instr.started,stim_response_instr.stopped,key_resp_15.keys,key_resp_15.rt,key_resp_15.duration,direction_instr_2.started,direction_instr_2.stopped,key_resp_9.keys,key_resp_9.rt,key_resp_9.duration,instr_prac.started,instr_prac.stopped,key_resp_10.keys,key_resp_10.rt,key_resp_10.duration,Stim1_display_prac.started,Stim1_display_prac.stopped,Ecc,Circle1_ori,Circle2_ori,response_prac.started,similarity,response_time,response_prac.stopped,mouse_5.x,mouse_5.y,mouse_5.leftButton,mouse_5.midButton,mouse_5.rightButton,mouse_5.clicked_name,responseprac_feedback.started,responseprac_feedback.stopped,summary2_prac.started,summary2_prac.stopped,mouse_6.x,mouse_6.y,mouse_6.leftButton,mouse_6.midButton,mouse_6.rightButton,mouse_6.clicked_name,duringprac.thisRepN,duringprac.thisTrialN,duringprac.thisN,duringprac.thisIndex,duringprac.ran,begin.started,begin.stopped,key_resp_22.keys,key_resp_22.rt,key_resp_22.duration,Stim1_display.started,Stim1_display.stopped,circle1_ori,circle2_ori,circle1_SF,circle2_SF,response.started,response.stopped,mouse.x,mouse.y,mouse.leftButton,mouse.midButton,mouse.rightButton,mouse.clicked_name,trialnumber,double_pass.thisRepN,double_pass.thisTrialN,double_pass.thisN,double_pass.thisIndex,double_pass.ran,double_pass.order,main_trial.thisRepN,main_trial.thisTrialN,main_trial.thisN,main_trial.thisIndex,main_trial.ran,main_trial.order,Trial_Counter,Catch,Frequencies,response_2.started,response_2.stopped,mouse_2.x,mouse_2.y,mouse_2.leftButton,mouse_2.midButton,mouse_2.rightButton,mouse_2.clicked_name,special_trial.started,special_trial.stopped,catch_1.started,catch_1.stopped,mouse_3.x,mouse_3.y,mouse_3.leftButton,mouse_3.midButton,mouse_3.rightButton,catchresponse,catchnumber,response_time_catch,response_sum.started,response_sum.stopped,mouse_11.x,mouse_11.y,mouse_11.leftButton,mouse_11.midButton,mouse_11.rightButton,flip_presentation_sequence_for_double_pass.started,flip_presentation_sequence_for_double_pass.stopped,goodbye.started,goodbye.stopped,key_resp_3.keys,key_resp_3.rt,key_resp_3.duration
0.001,0.001,607893faf75b80c8b2a14613,2024-02-21_19h27.33.389,kallum_motion_pilot,2023.2.2,Win32,55.55555556,607893faf75b80c8b2a14613,65d6bb0e977760de756971f7,65d6bef63f7d9a4dcc97f335,,,,,,,,,,,,,,,,,,,,,,,,,,,,,,,,,,,,,,,,,,,,,,,,,,,,,,,,,,,,,,,,,,,,,,,,,,,,,,,,,,,,,,,,,,,,,,,,,,,,,,,,,,,,,,,,,,,,,,,,,,,,,,,,,,,,,,,,,,,,,,,,,
,,607893faf75b80c8b2a14613,2024-02-21_19h27.33.389,kallum_motion_pilot,2023.2.2,Win32,55.55555556,607893faf75b80c8b2a14613,65d6bb0e977760de756971f7,65d6bef63f7d9a4dcc97f335,0.012,0.012,0,0,0,83,1,sixeight,,,,,,,,,,,,,,,,,,,,,,,,,,,,,,,,,,,,,,,,,,,,,,,,,,,,,,,,,,,,,,,,,,,,,,,,,,,,,,,,,,,,,,,,,,,,,,,,,,,,,,,,,,,,,,,,,,,,,,,,,,,,,,,,,,,,,,,,,
,,607893faf75b80c8b2a14613,2024-02-21_19h27.33.389,kallum_motion_pilot,2023.2.2,Win32,55.55555556,607893faf75b80c8b2a14613,65d6bb0e977760de756971f7,65d6bef63f7d9a4dcc97f335,0.012,0.012,0,1,1,139,1,sixeight,,,,,,,,,,,,,,,,,,,,,,,,,,,,,,,,,,,,,,,,,,,,,,,,,,,,,,,,,,,,,,,,,,,,,,,,,,,,,,,,,,,,,,,,,,,,,,,,,,,,,,,,,,,,,,,,,,,,,,,,,,,,,,,,,,,,,,,,,
,,607893faf75b80c8b2a14613,2024-02-21_19h27.33.389,kallum_motion_pilot,2023.2.2,Win32,55.55555556,607893faf75b80c8b2a14613,65d6bb0e977760de756971f7,65d6bef63f7d9a4dcc97f335,0.012,0.012,0,2,2,53,1,threefour,,,,,,,,,,,,,,,,,,,,,,,,,,,,,,,,,,,,,,,,,,,,,,,,,,,,,,,,,,,,,,,,,,,,,,,,,,,,,,,,,,,,,,,,,,,,,,,,,,,,,,,,,,,,,,,,,,,,,,,,,,,,,,,,,,,,,,,,,
,,607893faf75b80c8b2a14613,2024-02-21_19h27.33.389,kallum_motion_pilot,2023.2.2,Win32,55.55555556,607893faf75b80c8b2a14613,65d6bb0e977760de756971f7,65d6bef63f7d9a4dcc97f335,0.012,0.012,0,3,3,33,1,onethree,,,,,,,,,,,,,,,,,,,,,,,,,,,,,,,,,,,,,,,,,,,,,,,,,,,,,,,,,,,,,,,,,,,,,,,,,,,,,,,,,,,,,,,,,,,,,,,,,,,,,,,,,,,,,,,,,,,,,,,,,,,,,,,,,,,,,,,,,
,,607893faf75b80c8b2a14613,2024-02-21_19h27.33.389,kallum_motion_pilot,2023.2.2,Win32,55.55555556,607893faf75b80c8b2a14613,65d6bb0e977760de756971f7,65d6bef63f7d9a4dcc97f335,0.012,0.012,0,4,4,153,1,fiveseven,,,,,,,,,,,,,,,,,,,,,,,,,,,,,,,,,,,,,,,,,,,,,,,,,,,,,,,,,,,,,,,,,,,,,,,,,,,,,,,,,,,,,,,,,,,,,,,,,,,,,,,,,,,,,,,,,,,,,,,,,,,,,,,,,,,,,,,,,
,,607893faf75b80c8b2a14613,2024-02-21_19h27.33.389,kallum_motion_pilot,2023.2.2,Win32,55.55555556,607893faf75b80c8b2a14613,65d6bb0e977760de756971f7,65d6bef63f7d9a4dcc97f335,0.013,0.013,0,5,5,103,1,eightseven,,,,,,,,,,,,,,,,,,,,,,,,,,,,,,,,,,,,,,,,,,,,,,,,,,,,,,,,,,,,,,,,,,,,,,,,,,,,,,,,,,,,,,,,,,,,,,,,,,,,,,,,,,,,,,,,,,,,,,,,,,,,,,,,,,,,,,,,,
,,607893faf75b80c8b2a14613,2024-02-21_19h27.33.389,kallum_motion_pilot,2023.2.2,Win32,55.55555556,607893faf75b80c8b2a14613,65d6bb0e977760de756971f7,65d6bef63f7d9a4dcc97f335,0.013,0.013,0,6,6,157,1,seveneight,,,,,,,,,,,,,,,,,,,,,,,,,,,,,,,,,,,,,,,,,,,,,,,,,,,,,,,,,,,,,,,,,,,,,,,,,,,,,,,,,,,,,,,,,,,,,,,,,,,,,,,,,,,,,,,,,,,,,,,,,,,,,,,,,,,,,,,,,
,,607893faf75b80c8b2a14613,2024-02-21_19h27.33.389,kallum_motion_pilot,2023.2.2,Win32,55.55555556,607893faf75b80c8b2a14613,65d6bb0e977760de756971f7,65d6bef63f7d9a4dcc97f335,0.013,0.013,0,7,7,55,1,fourthree,,,,,,,,,,,,,,,,,,,,,,,,,,,,,,,,,,,,,,,,,,,,,,,,,,,,,,,,,,,,,,,,,,,,,,,,,,,,,,,,,,,,,,,,,,,,,,,,,,,,,,,,,,,,,,,,,,,,,,,,,,,,,,,,,,,,,,,,,
,,607893faf75b80c8b2a14613,2024-02-21_19h27.33.389,kallum_motion_pilot,2023.2.2,Win32,55.55555556,607893faf75b80c8b2a14613,65d6bb0e977760de756971f7,65d6bef63f7d9a4dcc97f335,0.013,0.013,0,8,8,4,1,threeone,,,,,,,,,,,,,,,,,,,,,,,,,,,,,,,,,,,,,,,,,,,,,,,,,,,,,,,,,,,,,,,,,,,,,,,,,,,,,,,,,,,,,,,,,,,,,,,,,,,,,,,,,,,,,,,,,,,,,,,,,,,,,,,,,,,,,,,,,
,,607893faf75b80c8b2a14613,2024-02-21_19h27.33.389,kallum_motion_pilot,2023.2.2,Win32,55.55555556,607893faf75b80c8b2a14613,65d6bb0e977760de756971f7,65d6bef63f7d9a4dcc97f335,0.013,0.013,0,9,9,136,1,fivesix,,,,,,,,,,,,,,,,,,,,,,,,,,,,,,,,,,,,,,,,,,,,,,,,,,,,,,,,,,,,,,,,,,,,,,,,,,,,,,,,,,,,,,,,,,,,,,,,,,,,,,,,,,,,,,,,,,,,,,,,,,,,,,,,,,,,,,,,,
,,607893faf75b80c8b2a14613,2024-02-21_19h27.33.389,kallum_motion_pilot,2023.2.2,Win32,55.55555556,607893faf75b80c8b2a14613,65d6bb0e977760de756971f7,65d6bef63f7d9a4dcc97f335,0.013,0.013,0,10,10,63,1,fourthree,,,,,,,,,,,,,,,,,,,,,,,,,,,,,,,,,,,,,,,,,,,,,,,,,,,,,,,,,,,,,,,,,,,,,,,,,,,,,,,,,,,,,,,,,,,,,,,,,,,,,,,,,,,,,,,,,,,,,,,,,,,,,,,,,,,,,,,,,
,,607893faf75b80c8b2a14613,2024-02-21_19h27.33.389,kallum_motion_pilot,2023.2.2,Win32,55.55555556,607893faf75b80c8b2a14613,65d6bb0e977760de756971f7,65d6bef63f7d9a4dcc97f335,0.013,0.013,0,11,11,96,1,fivesix,,,,,,,,,,,,,,,,,,,,,,,,,,,,,,,,,,,,,,,,,,,,,,,,,,,,,,,,,,,,,,,,,,,,,,,,,,,,,,,,,,,,,,,,,,,,,,,,,,,,,,,,,,,,,,,,,,,,,,,,,,,,,,,,,,,,,,,,,
,,607893faf75b80c8b2a14613,2024-02-21_19h27.33.389,kallum_motion_pilot,2023.2.2,Win32,55.55555556,607893faf75b80c8b2a14613,65d6bb0e977760de756971f7,65d6bef63f7d9a4dcc97f335,0.013,0.013,0,12,12,137,1,fiveseven,,,,,,,,,,,,,,,,,,,,,,,,,,,,,,,,,,,,,,,,,,,,,,,,,,,,,,,,,,,,,,,,,,,,,,,,,,,,,,,,,,,,,,,,,,,,,,,,,,,,,,,,,,,,,,,,,,,,,,,,,,,,,,,,,,,,,,,,,
,,607893faf75b80c8b2a14613,2024-02-21_19h27.33.389,kallum_motion_pilot,2023.2.2,Win32,55.55555556,607893faf75b80c8b2a14613,65d6bb0e977760de756971f7,65d6bef63f7d9a4dcc97f335,0.013,0.013,0,13,13,100,1,sevenfive,,,,,,,,,,,,,,,,,,,,,,,,,,,,,,,,,,,,,,,,,,,,,,,,,,,,,,,,,,,,,,,,,,,,,,,,,,,,,,,,,,,,,,,,,,,,,,,,,,,,,,,,,,,,,,,,,,,,,,,,,,,,,,,,,,,,,,,,,
,,607893faf75b80c8b2a14613,2024-02-21_19h27.33.389,kallum_motion_pilot,2023.2.2,Win32,55.55555556,607893faf75b80c8b2a14613,65d6bb0e977760de756971f7,65d6bef63f7d9a4dcc97f335,0.013,0.013,0,14,14,9,1,onethree,,,,,,,,,,,,,,,,,,,,,,,,,,,,,,,,,,,,,,,,,,,,,,,,,,,,,,,,,,,,,,,,,,,,,,,,,,,,,,,,,,,,,,,,,,,,,,,,,,,,,,,,,,,,,,,,,,,,,,,,,,,,,,,,,,,,,,,,,
,,607893faf75b80c8b2a14613,2024-02-21_19h27.33.389,kallum_motion_pilot,2023.2.2,Win32,55.55555556,607893faf75b80c8b2a14613,65d6bb0e977760de756971f7,65d6bef63f7d9a4dcc97f335,0.014,0.014,0,15,15,151,1,eightseven,,,,,,,,,,,,,,,,,,,,,,,,,,,,,,,,,,,,,,,,,,,,,,,,,,,,,,,,,,,,,,,,,,,,,,,,,,,,,,,,,,,,,,,,,,,,,,,,,,,,,,,,,,,,,,,,,,,,,,,,,,,,,,,,,,,,,,,,,
,,607893faf75b80c8b2a14613,2024-02-21_19h27.33.389,kallum_motion_pilot,2023.2.2,Win32,55.55555556,607893faf75b80c8b2a14613,65d6bb0e977760de756971f7,65d6bef63f7d9a4dcc97f335,0.014,0.014,0,16,16,122,1,sixfive,,,,,,,,,,,,,,,,,,,,,,,,,,,,,,,,,,,,,,,,,,,,,,,,,,,,,,,,,,,,,,,,,,,,,,,,,,,,,,,,,,,,,,,,,,,,,,,,,,,,,,,,,,,,,,,,,,,,,,,,,,,,,,,,,,,,,,,,,
,,607893faf75b80c8b2a14613,2024-02-21_19h27.33.389,kallum_motion_pilot,2023.2.2,Win32,55.55555556,607893faf75b80c8b2a14613,65d6bb0e977760de756971f7,65d6bef63f7d9a4dcc97f335,0.014,0.014,0,17,17,30,1,fourtwo,,,,,,,,,,,,,,,,,,,,,,,,,,,,,,,,,,,,,,,,,,,,,,,,,,,,,,,,,,,,,,,,,,,,,,,,,,,,,,,,,,,,,,,,,,,,,,,,,,,,,,,,,,,,,,,,,,,,,,,,,,,,,,,,,,,,,,,,,
,,607893faf75b80c8b2a14613,2024-02-21_19h27.33.389,kallum_motion_pilot,2023.2.2,Win32,55.55555556,607893faf75b80c8b2a14613,65d6bb0e977760de756971f7,65d6bef63f7d9a4dcc97f335,0.014,0.014,0,18,18,8,1,onetwo,,,,,,,,,,,,,,,,,,,,,,,,,,,,,,,,,,,,,,,,,,,,,,,,,,,,,,,,,,,,,,,,,,,,,,,,,,,,,,,,,,,,,,,,,,,,,,,,,,,,,,,,,,,,,,,,,,,,,,,,,,,,,,,,,,,,,,,,,
,,607893faf75b80c8b2a14613,2024-02-21_19h27.33.389,kallum_motion_pilot,2023.2.2,Win32,55.55555556,607893faf75b80c8b2a14613,65d6bb0e977760de756971f7,65d6bef63f7d9a4dcc97f335,0.014,0.014,0,19,19,127,1,eightseven,,,,,,,,,,,,,,,,,,,,,,,,,,,,,,,,,,,,,,,,,,,,,,,,,,,,,,,,,,,,,,,,,,,,,,,,,,,,,,,,,,,,,,,,,,,,,,,,,,,,,,,,,,,,,,,,,,,,,,,,,,,,,,,,,,,,,,,,,
,,607893faf75b80c8b2a14613,2024-02-21_19h27.33.389,kallum_motion_pilot,2023.2.2,Win32,55.55555556,607893faf75b80c8b2a14613,65d6bb0e977760de756971f7,65d6bef63f7d9a4dcc97f335,0.014,0.014,0,20,20,0,1,onetwo,,,,,,,,,,,,,,,,,,,,,,,,,,,,,,,,,,,,,,,,,,,,,,,,,,,,,,,,,,,,,,,,,,,,,,,,,,,,,,,,,,,,,,,,,,,,,,,,,,,,,,,,,,,,,,,,,,,,,,,,,,,,,,,,,,,,,,,,,
,,607893faf75b80c8b2a14613,2024-02-21_19h27.33.389,kallum_motion_pilot,2023.2.2,Win32,55.55555556,607893faf75b80c8b2a14613,65d6bb0e977760de756971f7,65d6bef63f7d9a4dcc97f335,0.014,0.014,0,21,21,97,1,fiveseven,,,,,,,,,,,,,,,,,,,,,,,,,,,,,,,,,,,,,,,,,,,,,,,,,,,,,,,,,,,,,,,,,,,,,,,,,,,,,,,,,,,,,,,,,,,,,,,,,,,,,,,,,,,,,,,,,,,,,,,,,,,,,,,,,,,,,,,,,
,,607893faf75b80c8b2a14613,2024-02-21_19h27.33.389,kallum_motion_pilot,2023.2.2,Win32,55.55555556,607893faf75b80c8b2a14613,65d6bb0e977760de756971f7,65d6bef63f7d9a4dcc97f335,0.014,0.014,0,22,22,36,1,threeone,,,,,,,,,,,,,,,,,,,,,,,,,,,,,,,,,,,,,,,,,,,,,,,,,,,,,,,,,,,,,,,,,,,,,,,,,,,,,,,,,,,,,,,,,,,,,,,,,,,,,,,,,,,,,,,,,,,,,,,,,,,,,,,,,,,,,,,,,
,,607893faf75b80c8b2a14613,2024-02-21_19h27.33.389,kallum_motion_pilot,2023.2.2,Win32,55.55555556,607893faf75b80c8b2a14613,65d6bb0e977760de756971f7,65d6bef63f7d9a4dcc97f335,0.014,0.014,0,23,23,124,1,sevenfive,,,,,,,,,,,,,,,,,,,,,,,,,,,,,,,,,,,,,,,,,,,,,,,,,,,,,,,,,,,,,,,,,,,,,,,,,,,,,,,,,,,,,,,,,,,,,,,,,,,,,,,,,,,,,,,,,,,,,,,,,,,,,,,,,,,,,,,,,
,,607893faf75b80c8b2a14613,2024-02-21_19h27.33.389,kallum_motion_pilot,2023.2.2,Win32,55.55555556,607893faf75b80c8b2a14613,65d6bb0e977760de756971f7,65d6bef63f7d9a4dcc97f335,0.014,0.014,0,24,24,90,1,sixfive,,,,,,,,,,,,,,,,,,,,,,,,,,,,,,,,,,,,,,,,,,,,,,,,,,,,,,,,,,,,,,,,,,,,,,,,,,,,,,,,,,,,,,,,,,,,,,,,,,,,,,,,,,,,,,,,,,,,,,,,,,,,,,,,,,,,,,,,,
,,607893faf75b80c8b2a14613,2024-02-21_19h27.33.389,kallum_motion_pilot,2023.2.2,Win32,55.55555556,607893faf75b80c8b2a14613,65d6bb0e977760de756971f7,65d6bef63f7d9a4dcc97f335,0.014,0.014,0,25,25,156,1,sevenfive,,,,,,,,,,,,,,,,,,,,,,,,,,,,,,,,,,,,,,,,,,,,,,,,,,,,,,,,,,,,,,,,,,,,,,,,,,,,,,,,,,,,,,,,,,,,,,,,,,,,,,,,,,,,,,,,,,,,,,,,,,,,,,,,,,,,,,,,,
,,607893faf75b80c8b2a14613,2024-02-21_19h27.33.389,kallum_motion_pilot,2023.2.2,Win32,55.55555556,607893faf75b80c8b2a14613,65d6bb0e977760de756971f7,65d6bef63f7d9a4dcc97f335,0.014,0.014,0,26,26,89,1,fiveseven,,,,,,,,,,,,,,,,,,,,,,,,,,,,,,,,,,,,,,,,,,,,,,,,,,,,,,,,,,,,,,,,,,,,,,,,,,,,,,,,,,,,,,,,,,,,,,,,,,,,,,,,,,,,,,,,,,,,,,,,,,,,,,,,,,,,,,,,,
,,607893faf75b80c8b2a14613,2024-02-21_19h27.33.389,kallum_motion_pilot,2023.2.2,Win32,55.55555556,607893faf75b80c8b2a14613,65d6bb0e977760de756971f7,65d6bef63f7d9a4dcc97f335,0.014,0.014,0,27,27,87,1,eightseven,,,,,,,,,,,,,,,,,,,,,,,,,,,,,,,,,,,,,,,,,,,,,,,,,,,,,,,,,,,,,,,,,,,,,,,,,,,,,,,,,,,,,,,,,,,,,,,,,,,,,,,,,,,,,,,,,,,,,,,,,,,,,,,,,,,,,,,,,
,,607893faf75b80c8b2a14613,2024-02-21_19h27.33.389,kallum_motion_pilot,2023.2.2,Win32,55.55555556,607893faf75b80c8b2a14613,65d6bb0e977760de756971f7,65d6bef63f7d9a4dcc97f335,0.014,0.014,0,28,28,60,1,threeone,,,,,,,,,,,,,,,,,,,,,,,,,,,,,,,,,,,,,,,,,,,,,,,,,,,,,,,,,,,,,,,,,,,,,,,,,,,,,,,,,,,,,,,,,,,,,,,,,,,,,,,,,,,,,,,,,,,,,,,,,,,,,,,,,,,,,,,,,
,,607893faf75b80c8b2a14613,2024-02-21_19h27.33.389,kallum_motion_pilot,2023.2.2,Win32,55.55555556,607893faf75b80c8b2a14613,65d6bb0e977760de756971f7,65d6bef63f7d9a4dcc97f335,0.014,0.014,0,29,29,144,1,fivesix,,,,,,,,,,,,,,,,,,,,,,,,,,,,,,,,,,,,,,,,,,,,,,,,,,,,,,,,,,,,,,,,,,,,,,,,,,,,,,,,,,,,,,,,,,,,,,,,,,,,,,,,,,,,,,,,,,,,,,,,,,,,,,,,,,,,,,,,,
,,607893faf75b80c8b2a14613,2024-02-21_19h27.33.389,kallum_motion_pilot,2023.2.2,Win32,55.55555556,607893faf75b80c8b2a14613,65d6bb0e977760de756971f7,65d6bef63f7d9a4dcc97f335,0.014,0.014,0,30,30,99,1,sixeight,,,,,,,,,,,,,,,,,,,,,,,,,,,,,,,,,,,,,,,,,,,,,,,,,,,,,,,,,,,,,,,,,,,,,,,,,,,,,,,,,,,,,,,,,,,,,,,,,,,,,,,,,,,,,,,,,,,,,,,,,,,,,,,,,,,,,,,,,
,,607893faf75b80c8b2a14613,2024-02-21_19h27.33.389,kallum_motion_pilot,2023.2.2,Win32,55.55555556,607893faf75b80c8b2a14613,65d6bb0e977760de756971f7,65d6bef63f7d9a4dcc97f335,0.014,0.014,0,31,31,88,1,fivesix,,,,,,,,,,,,,,,,,,,,,,,,,,,,,,,,,,,,,,,,,,,,,,,,,,,,,,,,,,,,,,,,,,,,,,,,,,,,,,,,,,,,,,,,,,,,,,,,,,,,,,,,,,,,,,,,,,,,,,,,,,,,,,,,,,,,,,,,,
,,607893faf75b80c8b2a14613,2024-02-21_19h27.33.389,kallum_motion_pilot,2023.2.2,Win32,55.55555556,607893faf75b80c8b2a14613,65d6bb0e977760de756971f7,65d6bef63f7d9a4dcc97f335,0.014,0.014,0,32,32,43,1,twofour,,,,,,,,,,,,,,,,,,,,,,,,,,,,,,,,,,,,,,,,,,,,,,,,,,,,,,,,,,,,,,,,,,,,,,,,,,,,,,,,,,,,,,,,,,,,,,,,,,,,,,,,,,,,,,,,,,,,,,,,,,,,,,,,,,,,,,,,,
,,607893faf75b80c8b2a14613,2024-02-21_19h27.33.389,kallum_motion_pilot,2023.2.2,Win32,55.55555556,607893faf75b80c8b2a14613,65d6bb0e977760de756971f7,65d6bef63f7d9a4dcc97f335,0.014,0.014,0,33,33,11,1,twofour,,,,,,,,,,,,,,,,,,,,,,,,,,,,,,,,,,,,,,,,,,,,,,,,,,,,,,,,,,,,,,,,,,,,,,,,,,,,,,,,,,,,,,,,,,,,,,,,,,,,,,,,,,,,,,,,,,,,,,,,,,,,,,,,,,,,,,,,,
,,607893faf75b80c8b2a14613,2024-02-21_19h27.33.389,kallum_motion_pilot,2023.2.2,Win32,55.55555556,607893faf75b80c8b2a14613,65d6bb0e977760de756971f7,65d6bef63f7d9a4dcc97f335,0.014,0.014,0,34,34,12,1,threeone,,,,,,,,,,,,,,,,,,,,,,,,,,,,,,,,,,,,,,,,,,,,,,,,,,,,,,,,,,,,,,,,,,,,,,,,,,,,,,,,,,,,,,,,,,,,,,,,,,,,,,,,,,,,,,,,,,,,,,,,,,,,,,,,,,,,,,,,,
,,607893faf75b80c8b2a14613,2024-02-21_19h27.33.389,kallum_motion_pilot,2023.2.2,Win32,55.55555556,607893faf75b80c8b2a14613,65d6bb0e977760de756971f7,65d6bef63f7d9a4dcc97f335,0.015,0.015,0,35,35,78,1,fourtwo,,,,,,,,,,,,,,,,,,,,,,,,,,,,,,,,,,,,,,,,,,,,,,,,,,,,,,,,,,,,,,,,,,,,,,,,,,,,,,,,,,,,,,,,,,,,,,,,,,,,,,,,,,,,,,,,,,,,,,,,,,,,,,,,,,,,,,,,,
,,607893faf75b80c8b2a14613,2024-02-21_19h27.33.389,kallum_motion_pilot,2023.2.2,Win32,55.55555556,607893faf75b80c8b2a14613,65d6bb0e977760de756971f7,65d6bef63f7d9a4dcc97f335,0.015,0.015,0,36,36,35,1,twofour,,,,,,,,,,,,,,,,,,,,,,,,,,,,,,,,,,,,,,,,,,,,,,,,,,,,,,,,,,,,,,,,,,,,,,,,,,,,,,,,,,,,,,,,,,,,,,,,,,,,,,,,,,,,,,,,,,,,,,,,,,,,,,,,,,,,,,,,,
,,607893faf75b80c8b2a14613,2024-02-21_19h27.33.389,kallum_motion_pilot,2023.2.2,Win32,55.55555556,607893faf75b80c8b2a14613,65d6bb0e977760de756971f7,65d6bef63f7d9a4dcc97f335,0.015,0.015,0,37,37,132,1,sevenfive,,,,,,,,,,,,,,,,,,,,,,,,,,,,,,,,,,,,,,,,,,,,,,,,,,,,,,,,,,,,,,,,,,,,,,,,,,,,,,,,,,,,,,,,,,,,,,,,,,,,,,,,,,,,,,,,,,,,,,,,,,,,,,,,,,,,,,,,,
,,607893faf75b80c8b2a14613,2024-02-21_19h27.33.389,kallum_motion_pilot,2023.2.2,Win32,55.55555556,607893faf75b80c8b2a14613,65d6bb0e977760de756971f7,65d6bef63f7d9a4dcc97f335,0.015,0.015,0,38,38,102,1,eightsix,,,,,,,,,,,,,,,,,,,,,,,,,,,,,,,,,,,,,,,,,,,,,,,,,,,,,,,,,,,,,,,,,,,,,,,,,,,,,,,,,,,,,,,,,,,,,,,,,,,,,,,,,,,,,,,,,,,,,,,,,,,,,,,,,,,,,,,,,
,,607893faf75b80c8b2a14613,2024-02-21_19h27.33.389,kallum_motion_pilot,2023.2.2,Win32,55.55555556,607893faf75b80c8b2a14613,65d6bb0e977760de756971f7,65d6bef63f7d9a4dcc97f335,0.015,0.015,0,39,39,161,1,fiveseven,,,,,,,,,,,,,,,,,,,,,,,,,,,,,,,,,,,,,,,,,,,,,,,,,,,,,,,,,,,,,,,,,,,,,,,,,,,,,,,,,,,,,,,,,,,,,,,,,,,,,,,,,,,,,,,,,,,,,,,,,,,,,,,,,,,,,,,,,
,,607893faf75b80c8b2a14613,2024-02-21_19h27.33.389,kallum_motion_pilot,2023.2.2,Win32,55.55555556,607893faf75b80c8b2a14613,65d6bb0e977760de756971f7,65d6bef63f7d9a4dcc97f335,0.015,0.015,0,40,40,19,1,twofour,,,,,,,,,,,,,,,,,,,,,,,,,,,,,,,,,,,,,,,,,,,,,,,,,,,,,,,,,,,,,,,,,,,,,,,,,,,,,,,,,,,,,,,,,,,,,,,,,,,,,,,,,,,,,,,,,,,,,,,,,,,,,,,,,,,,,,,,,
,,607893faf75b80c8b2a14613,2024-02-21_19h27.33.389,kallum_motion_pilot,2023.2.2,Win32,55.55555556,607893faf75b80c8b2a14613,65d6bb0e977760de756971f7,65d6bef63f7d9a4dcc97f335,0.015,0.015,0,41,41,27,1,twofour,,,,,,,,,,,,,,,,,,,,,,,,,,,,,,,,,,,,,,,,,,,,,,,,,,,,,,,,,,,,,,,,,,,,,,,,,,,,,,,,,,,,,,,,,,,,,,,,,,,,,,,,,,,,,,,,,,,,,,,,,,,,,,,,,,,,,,,,,
,,607893faf75b80c8b2a14613,2024-02-21_19h27.33.389,kallum_motion_pilot,2023.2.2,Win32,55.55555556,607893faf75b80c8b2a14613,65d6bb0e977760de756971f7,65d6bef63f7d9a4dcc97f335,0.015,0.015,0,42,42,32,1,onetwo,,,,,,,,,,,,,,,,,,,,,,,,,,,,,,,,,,,,,,,,,,,,,,,,,,,,,,,,,,,,,,,,,,,,,,,,,,,,,,,,,,,,,,,,,,,,,,,,,,,,,,,,,,,,,,,,,,,,,,,,,,,,,,,,,,,,,,,,,
,,607893faf75b80c8b2a14613,2024-02-21_19h27.33.389,kallum_motion_pilot,2023.2.2,Win32,55.55555556,607893faf75b80c8b2a14613,65d6bb0e977760de756971f7,65d6bef63f7d9a4dcc97f335,0.016,0.016,0,43,43,148,1,sevenfive,,,,,,,,,,,,,,,,,,,,,,,,,,,,,,,,,,,,,,,,,,,,,,,,,,,,,,,,,,,,,,,,,,,,,,,,,,,,,,,,,,,,,,,,,,,,,,,,,,,,,,,,,,,,,,,,,,,,,,,,,,,,,,,,,,,,,,,,,
,,607893faf75b80c8b2a14613,2024-02-21_19h27.33.389,kallum_motion_pilot,2023.2.2,Win32,55.55555556,607893faf75b80c8b2a14613,65d6bb0e977760de756971f7,65d6bef63f7d9a4dcc97f335,0.016,0.016,0,44,44,66,1,twoone,,,,,,,,,,,,,,,,,,,,,,,,,,,,,,,,,,,,,,,,,,,,,,,,,,,,,,,,,,,,,,,,,,,,,,,,,,,,,,,,,,,,,,,,,,,,,,,,,,,,,,,,,,,,,,,,,,,,,,,,,,,,,,,,,,,,,,,,,
,,607893faf75b80c8b2a14613,2024-02-21_19h27.33.389,kallum_motion_pilot,2023.2.2,Win32,55.55555556,607893faf75b80c8b2a14613,65d6bb0e977760de756971f7,65d6bef63f7d9a4dcc97f335,0.016,0.016,0,45,45,2,1,twoone,,,,,,,,,,,,,,,,,,,,,,,,,,,,,,,,,,,,,,,,,,,,,,,,,,,,,,,,,,,,,,,,,,,,,,,,,,,,,,,,,,,,,,,,,,,,,,,,,,,,,,,,,,,,,,,,,,,,,,,,,,,,,,,,,,,,,,,,,
,,607893faf75b80c8b2a14613,2024-02-21_19h27.33.389,kallum_motion_pilot,2023.2.2,Win32,55.55555556,607893faf75b80c8b2a14613,65d6bb0e977760de756971f7,65d6bef63f7d9a4dcc97f335,0.016,0.016,0,46,46,154,1,sixfive,,,,,,,,,,,,,,,,,,,,,,,,,,,,,,,,,,,,,,,,,,,,,,,,,,,,,,,,,,,,,,,,,,,,,,,,,,,,,,,,,,,,,,,,,,,,,,,,,,,,,,,,,,,,,,,,,,,,,,,,,,,,,,,,,,,,,,,,,
,,607893faf75b80c8b2a14613,2024-02-21_19h27.33.389,kallum_motion_pilot,2023.2.2,Win32,55.55555556,607893faf75b80c8b2a14613,65d6bb0e977760de756971f7,65d6bef63f7d9a4dcc97f335,0.016,0.016,0,47,47,141,1,seveneight,,,,,,,,,,,,,,,,,,,,,,,,,,,,,,,,,,,,,,,,,,,,,,,,,,,,,,,,,,,,,,,,,,,,,,,,,,,,,,,,,,,,,,,,,,,,,,,,,,,,,,,,,,,,,,,,,,,,,,,,,,,,,,,,,,,,,,,,,
,,607893faf75b80c8b2a14613,2024-02-21_19h27.33.389,kallum_motion_pilot,2023.2.2,Win32,55.55555556,607893faf75b80c8b2a14613,65d6bb0e977760de756971f7,65d6bef63f7d9a4dcc97f335,0.016,0.016,0,48,48,101,1,seveneight,,,,,,,,,,,,,,,,,,,,,,,,,,,,,,,,,,,,,,,,,,,,,,,,,,,,,,,,,,,,,,,,,,,,,,,,,,,,,,,,,,,,,,,,,,,,,,,,,,,,,,,,,,,,,,,,,,,,,,,,,,,,,,,,,,,,,,,,,
,,607893faf75b80c8b2a14613,2024-02-21_19h27.33.389,kallum_motion_pilot,2023.2.2,Win32,55.55555556,607893faf75b80c8b2a14613,65d6bb0e977760de756971f7,65d6bef63f7d9a4dcc97f335,0.016,0.016,0,49,49,74,1,twoone,,,,,,,,,,,,,,,,,,,,,,,,,,,,,,,,,,,,,,,,,,,,,,,,,,,,,,,,,,,,,,,,,,,,,,,,,,,,,,,,,,,,,,,,,,,,,,,,,,,,,,,,,,,,,,,,,,,,,,,,,,,,,,,,,,,,,,,,,
,,607893faf75b80c8b2a14613,2024-02-21_19h27.33.389,kallum_motion_pilot,2023.2.2,Win32,55.55555556,607893faf75b80c8b2a14613,65d6bb0e977760de756971f7,65d6bef63f7d9a4dcc97f335,0.016,0.016,0,50,50,75,1,twofour,,,,,,,,,,,,,,,,,,,,,,,,,,,,,,,,,,,,,,,,,,,,,,,,,,,,,,,,,,,,,,,,,,,,,,,,,,,,,,,,,,,,,,,,,,,,,,,,,,,,,,,,,,,,,,,,,,,,,,,,,,,,,,,,,,,,,,,,,
,,607893faf75b80c8b2a14613,2024-02-21_19h27.33.389,kallum_motion_pilot,2023.2.2,Win32,55.55555556,607893faf75b80c8b2a14613,65d6bb0e977760de756971f7,65d6bef63f7d9a4dcc97f335,0.016,0.016,0,51,51,6,1,fourtwo,,,,,,,,,,,,,,,,,,,,,,,,,,,,,,,,,,,,,,,,,,,,,,,,,,,,,,,,,,,,,,,,,,,,,,,,,,,,,,,,,,,,,,,,,,,,,,,,,,,,,,,,,,,,,,,,,,,,,,,,,,,,,,,,,,,,,,,,,
,,607893faf75b80c8b2a14613,2024-02-21_19h27.33.389,kallum_motion_pilot,2023.2.2,Win32,55.55555556,607893faf75b80c8b2a14613,65d6bb0e977760de756971f7,65d6bef63f7d9a4dcc97f335,0.016,0.016,0,52,52,158,1,eightsix,,,,,,,,,,,,,,,,,,,,,,,,,,,,,,,,,,,,,,,,,,,,,,,,,,,,,,,,,,,,,,,,,,,,,,,,,,,,,,,,,,,,,,,,,,,,,,,,,,,,,,,,,,,,,,,,,,,,,,,,,,,,,,,,,,,,,,,,,
,,607893faf75b80c8b2a14613,2024-02-21_19h27.33.389,kallum_motion_pilot,2023.2.2,Win32,55.55555556,607893faf75b80c8b2a14613,65d6bb0e977760de756971f7,65d6bef63f7d9a4dcc97f335,0.016,0.016,0,53,53,121,1,fiveseven,,,,,,,,,,,,,,,,,,,,,,,,,,,,,,,,,,,,,,,,,,,,,,,,,,,,,,,,,,,,,,,,,,,,,,,,,,,,,,,,,,,,,,,,,,,,,,,,,,,,,,,,,,,,,,,,,,,,,,,,,,,,,,,,,,,,,,,,,
,,607893faf75b80c8b2a14613,2024-02-21_19h27.33.389,kallum_motion_pilot,2023.2.2,Win32,55.55555556,607893faf75b80c8b2a14613,65d6bb0e977760de756971f7,65d6bef63f7d9a4dcc97f335,0.016,0.016,0,54,54,7,1,fourthree,,,,,,,,,,,,,,,,,,,,,,,,,,,,,,,,,,,,,,,,,,,,,,,,,,,,,,,,,,,,,,,,,,,,,,,,,,,,,,,,,,,,,,,,,,,,,,,,,,,,,,,,,,,,,,,,,,,,,,,,,,,,,,,,,,,,,,,,,
,,607893faf75b80c8b2a14613,2024-02-21_19h27.33.389,kallum_motion_pilot,2023.2.2,Win32,55.55555556,607893faf75b80c8b2a14613,65d6bb0e977760de756971f7,65d6bef63f7d9a4dcc97f335,0.016,0.016,0,55,55,26,1,twoone,,,,,,,,,,,,,,,,,,,,,,,,,,,,,,,,,,,,,,,,,,,,,,,,,,,,,,,,,,,,,,,,,,,,,,,,,,,,,,,,,,,,,,,,,,,,,,,,,,,,,,,,,,,,,,,,,,,,,,,,,,,,,,,,,,,,,,,,,
,,607893faf75b80c8b2a14613,2024-02-21_19h27.33.389,kallum_motion_pilot,2023.2.2,Win32,55.55555556,607893faf75b80c8b2a14613,65d6bb0e977760de756971f7,65d6bef63f7d9a4dcc97f335,0.016,0.016,0,56,56,14,1,fourtwo,,,,,,,,,,,,,,,,,,,,,,,,,,,,,,,,,,,,,,,,,,,,,,,,,,,,,,,,,,,,,,,,,,,,,,,,,,,,,,,,,,,,,,,,,,,,,,,,,,,,,,,,,,,,,,,,,,,,,,,,,,,,,,,,,,,,,,,,,
,,607893faf75b80c8b2a14613,2024-02-21_19h27.33.389,kallum_motion_pilot,2023.2.2,Win32,55.55555556,607893faf75b80c8b2a14613,65d6bb0e977760de756971f7,65d6bef63f7d9a4dcc97f335,0.016,0.016,0,57,57,49,1,onethree,,,,,,,,,,,,,,,,,,,,,,,,,,,,,,,,,,,,,,,,,,,,,,,,,,,,,,,,,,,,,,,,,,,,,,,,,,,,,,,,,,,,,,,,,,,,,,,,,,,,,,,,,,,,,,,,,,,,,,,,,,,,,,,,,,,,,,,,,
,,607893faf75b80c8b2a14613,2024-02-21_19h27.33.389,kallum_motion_pilot,2023.2.2,Win32,55.55555556,607893faf75b80c8b2a14613,65d6bb0e977760de756971f7,65d6bef63f7d9a4dcc97f335,0.016,0.016,0,58,58,40,1,onetwo,,,,,,,,,,,,,,,,,,,,,,,,,,,,,,,,,,,,,,,,,,,,,,,,,,,,,,,,,,,,,,,,,,,,,,,,,,,,,,,,,,,,,,,,,,,,,,,,,,,,,,,,,,,,,,,,,,,,,,,,,,,,,,,,,,,,,,,,,
,,607893faf75b80c8b2a14613,2024-02-21_19h27.33.389,kallum_motion_pilot,2023.2.2,Win32,55.55555556,607893faf75b80c8b2a14613,65d6bb0e977760de756971f7,65d6bef63f7d9a4dcc97f335,0.016,0.016,0,59,59,159,1,eightseven,,,,,,,,,,,,,,,,,,,,,,,,,,,,,,,,,,,,,,,,,,,,,,,,,,,,,,,,,,,,,,,,,,,,,,,,,,,,,,,,,,,,,,,,,,,,,,,,,,,,,,,,,,,,,,,,,,,,,,,,,,,,,,,,,,,,,,,,,
,,607893faf75b80c8b2a14613,2024-02-21_19h27.33.389,kallum_motion_pilot,2023.2.2,Win32,55.55555556,607893faf75b80c8b2a14613,65d6bb0e977760de756971f7,65d6bef63f7d9a4dcc97f335,0.016,0.016,0,60,60,131,1,sixeight,,,,,,,,,,,,,,,,,,,,,,,,,,,,,,,,,,,,,,,,,,,,,,,,,,,,,,,,,,,,,,,,,,,,,,,,,,,,,,,,,,,,,,,,,,,,,,,,,,,,,,,,,,,,,,,,,,,,,,,,,,,,,,,,,,,,,,,,,
,,607893faf75b80c8b2a14613,2024-02-21_19h27.33.389,kallum_motion_pilot,2023.2.2,Win32,55.55555556,607893faf75b80c8b2a14613,65d6bb0e977760de756971f7,65d6bef63f7d9a4dcc97f335,0.016,0.016,0,61,61,68,1,threeone,,,,,,,,,,,,,,,,,,,,,,,,,,,,,,,,,,,,,,,,,,,,,,,,,,,,,,,,,,,,,,,,,,,,,,,,,,,,,,,,,,,,,,,,,,,,,,,,,,,,,,,,,,,,,,,,,,,,,,,,,,,,,,,,,,,,,,,,,
,,607893faf75b80c8b2a14613,2024-02-21_19h27.33.389,kallum_motion_pilot,2023.2.2,Win32,55.55555556,607893faf75b80c8b2a14613,65d6bb0e977760de756971f7,65d6bef63f7d9a4dcc97f335,0.016,0.016,0,62,62,41,1,onethree,,,,,,,,,,,,,,,,,,,,,,,,,,,,,,,,,,,,,,,,,,,,,,,,,,,,,,,,,,,,,,,,,,,,,,,,,,,,,,,,,,,,,,,,,,,,,,,,,,,,,,,,,,,,,,,,,,,,,,,,,,,,,,,,,,,,,,,,,
,,607893faf75b80c8b2a14613,2024-02-21_19h27.33.389,kallum_motion_pilot,2023.2.2,Win32,55.55555556,607893faf75b80c8b2a14613,65d6bb0e977760de756971f7,65d6bef63f7d9a4dcc97f335,0.016,0.016,0,63,63,1,1,onethree,,,,,,,,,,,,,,,,,,,,,,,,,,,,,,,,,,,,,,,,,,,,,,,,,,,,,,,,,,,,,,,,,,,,,,,,,,,,,,,,,,,,,,,,,,,,,,,,,,,,,,,,,,,,,,,,,,,,,,,,,,,,,,,,,,,,,,,,,
,,607893faf75b80c8b2a14613,2024-02-21_19h27.33.389,kallum_motion_pilot,2023.2.2,Win32,55.55555556,607893faf75b80c8b2a14613,65d6bb0e977760de756971f7,65d6bef63f7d9a4dcc97f335,0.016,0.016,0,64,64,119,1,eightseven,,,,,,,,,,,,,,,,,,,,,,,,,,,,,,,,,,,,,,,,,,,,,,,,,,,,,,,,,,,,,,,,,,,,,,,,,,,,,,,,,,,,,,,,,,,,,,,,,,,,,,,,,,,,,,,,,,,,,,,,,,,,,,,,,,,,,,,,,
,,607893faf75b80c8b2a14613,2024-02-21_19h27.33.389,kallum_motion_pilot,2023.2.2,Win32,55.55555556,607893faf75b80c8b2a14613,65d6bb0e977760de756971f7,65d6bef63f7d9a4dcc97f335,0.016,0.016,0,65,65,20,1,threeone,,,,,,,,,,,,,,,,,,,,,,,,,,,,,,,,,,,,,,,,,,,,,,,,,,,,,,,,,,,,,,,,,,,,,,,,,,,,,,,,,,,,,,,,,,,,,,,,,,,,,,,,,,,,,,,,,,,,,,,,,,,,,,,,,,,,,,,,,
,,607893faf75b80c8b2a14613,2024-02-21_19h27.33.389,kallum_motion_pilot,2023.2.2,Win32,55.55555556,607893faf75b80c8b2a14613,65d6bb0e977760de756971f7,65d6bef63f7d9a4dcc97f335,0.016,0.016,0,66,66,51,1,twofour,,,,,,,,,,,,,,,,,,,,,,,,,,,,,,,,,,,,,,,,,,,,,,,,,,,,,,,,,,,,,,,,,,,,,,,,,,,,,,,,,,,,,,,,,,,,,,,,,,,,,,,,,,,,,,,,,,,,,,,,,,,,,,,,,,,,,,,,,
,,607893faf75b80c8b2a14613,2024-02-21_19h27.33.389,kallum_motion_pilot,2023.2.2,Win32,55.55555556,607893faf75b80c8b2a14613,65d6bb0e977760de756971f7,65d6bef63f7d9a4dcc97f335,0.016,0.016,0,67,67,84,1,sevenfive,,,,,,,,,,,,,,,,,,,,,,,,,,,,,,,,,,,,,,,,,,,,,,,,,,,,,,,,,,,,,,,,,,,,,,,,,,,,,,,,,,,,,,,,,,,,,,,,,,,,,,,,,,,,,,,,,,,,,,,,,,,,,,,,,,,,,,,,,
,,607893faf75b80c8b2a14613,2024-02-21_19h27.33.389,kallum_motion_pilot,2023.2.2,Win32,55.55555556,607893faf75b80c8b2a14613,65d6bb0e977760de756971f7,65d6bef63f7d9a4dcc97f335,0.016,0.016,0,68,68,80,1,fivesix,,,,,,,,,,,,,,,,,,,,,,,,,,,,,,,,,,,,,,,,,,,,,,,,,,,,,,,,,,,,,,,,,,,,,,,,,,,,,,,,,,,,,,,,,,,,,,,,,,,,,,,,,,,,,,,,,,,,,,,,,,,,,,,,,,,,,,,,,
,,607893faf75b80c8b2a14613,2024-02-21_19h27.33.389,kallum_motion_pilot,2023.2.2,Win32,55.55555556,607893faf75b80c8b2a14613,65d6bb0e977760de756971f7,65d6bef63f7d9a4dcc97f335,0.017,0.017,0,69,69,160,1,fivesix,,,,,,,,,,,,,,,,,,,,,,,,,,,,,,,,,,,,,,,,,,,,,,,,,,,,,,,,,,,,,,,,,,,,,,,,,,,,,,,,,,,,,,,,,,,,,,,,,,,,,,,,,,,,,,,,,,,,,,,,,,,,,,,,,,,,,,,,,
,,607893faf75b80c8b2a14613,2024-02-21_19h27.33.389,kallum_motion_pilot,2023.2.2,Win32,55.55555556,607893faf75b80c8b2a14613,65d6bb0e977760de756971f7,65d6bef63f7d9a4dcc97f335,0.017,0.017,0,70,70,54,1,fourtwo,,,,,,,,,,,,,,,,,,,,,,,,,,,,,,,,,,,,,,,,,,,,,,,,,,,,,,,,,,,,,,,,,,,,,,,,,,,,,,,,,,,,,,,,,,,,,,,,,,,,,,,,,,,,,,,,,,,,,,,,,,,,,,,,,,,,,,,,,
,,607893faf75b80c8b2a14613,2024-02-21_19h27.33.389,kallum_motion_pilot,2023.2.2,Win32,55.55555556,607893faf75b80c8b2a14613,65d6bb0e977760de756971f7,65d6bef63f7d9a4dcc97f335,0.017,0.017,0,71,71,105,1,fiveseven,,,,,,,,,,,,,,,,,,,,,,,,,,,,,,,,,,,,,,,,,,,,,,,,,,,,,,,,,,,,,,,,,,,,,,,,,,,,,,,,,,,,,,,,,,,,,,,,,,,,,,,,,,,,,,,,,,,,,,,,,,,,,,,,,,,,,,,,,
,,607893faf75b80c8b2a14613,2024-02-21_19h27.33.389,kallum_motion_pilot,2023.2.2,Win32,55.55555556,607893faf75b80c8b2a14613,65d6bb0e977760de756971f7,65d6bef63f7d9a4dcc97f335,0.017,0.017,0,72,72,120,1,fivesix,,,,,,,,,,,,,,,,,,,,,,,,,,,,,,,,,,,,,,,,,,,,,,,,,,,,,,,,,,,,,,,,,,,,,,,,,,,,,,,,,,,,,,,,,,,,,,,,,,,,,,,,,,,,,,,,,,,,,,,,,,,,,,,,,,,,,,,,,
,,607893faf75b80c8b2a14613,2024-02-21_19h27.33.389,kallum_motion_pilot,2023.2.2,Win32,55.55555556,607893faf75b80c8b2a14613,65d6bb0e977760de756971f7,65d6bef63f7d9a4dcc97f335,0.017,0.017,0,73,73,126,1,eightsix,,,,,,,,,,,,,,,,,,,,,,,,,,,,,,,,,,,,,,,,,,,,,,,,,,,,,,,,,,,,,,,,,,,,,,,,,,,,,,,,,,,,,,,,,,,,,,,,,,,,,,,,,,,,,,,,,,,,,,,,,,,,,,,,,,,,,,,,,
,,607893faf75b80c8b2a14613,2024-02-21_19h27.33.389,kallum_motion_pilot,2023.2.2,Win32,55.55555556,607893faf75b80c8b2a14613,65d6bb0e977760de756971f7,65d6bef63f7d9a4dcc97f335,0.017,0.017,0,74,74,62,1,fourtwo,,,,,,,,,,,,,,,,,,,,,,,,,,,,,,,,,,,,,,,,,,,,,,,,,,,,,,,,,,,,,,,,,,,,,,,,,,,,,,,,,,,,,,,,,,,,,,,,,,,,,,,,,,,,,,,,,,,,,,,,,,,,,,,,,,,,,,,,,
,,607893faf75b80c8b2a14613,2024-02-21_19h27.33.389,kallum_motion_pilot,2023.2.2,Win32,55.55555556,607893faf75b80c8b2a14613,65d6bb0e977760de756971f7,65d6bef63f7d9a4dcc97f335,0.017,0.017,0,75,75,29,1,threefour,,,,,,,,,,,,,,,,,,,,,,,,,,,,,,,,,,,,,,,,,,,,,,,,,,,,,,,,,,,,,,,,,,,,,,,,,,,,,,,,,,,,,,,,,,,,,,,,,,,,,,,,,,,,,,,,,,,,,,,,,,,,,,,,,,,,,,,,,
,,607893faf75b80c8b2a14613,2024-02-21_19h27.33.389,kallum_motion_pilot,2023.2.2,Win32,55.55555556,607893faf75b80c8b2a14613,65d6bb0e977760de756971f7,65d6bef63f7d9a4dcc97f335,0.017,0.017,0,76,76,52,1,threeone,,,,,,,,,,,,,,,,,,,,,,,,,,,,,,,,,,,,,,,,,,,,,,,,,,,,,,,,,,,,,,,,,,,,,,,,,,,,,,,,,,,,,,,,,,,,,,,,,,,,,,,,,,,,,,,,,,,,,,,,,,,,,,,,,,,,,,,,,
,,607893faf75b80c8b2a14613,2024-02-21_19h27.33.389,kallum_motion_pilot,2023.2.2,Win32,55.55555556,607893faf75b80c8b2a14613,65d6bb0e977760de756971f7,65d6bef63f7d9a4dcc97f335,0.017,0.018,0,77,77,57,1,onethree,,,,,,,,,,,,,,,,,,,,,,,,,,,,,,,,,,,,,,,,,,,,,,,,,,,,,,,,,,,,,,,,,,,,,,,,,,,,,,,,,,,,,,,,,,,,,,,,,,,,,,,,,,,,,,,,,,,,,,,,,,,,,,,,,,,,,,,,,
,,607893faf75b80c8b2a14613,2024-02-21_19h27.33.389,kallum_motion_pilot,2023.2.2,Win32,55.55555556,607893faf75b80c8b2a14613,65d6bb0e977760de756971f7,65d6bef63f7d9a4dcc97f335,0.018,0.018,0,78,78,37,1,threefour,,,,,,,,,,,,,,,,,,,,,,,,,,,,,,,,,,,,,,,,,,,,,,,,,,,,,,,,,,,,,,,,,,,,,,,,,,,,,,,,,,,,,,,,,,,,,,,,,,,,,,,,,,,,,,,,,,,,,,,,,,,,,,,,,,,,,,,,,
,,607893faf75b80c8b2a14613,2024-02-21_19h27.33.389,kallum_motion_pilot,2023.2.2,Win32,55.55555556,607893faf75b80c8b2a14613,65d6bb0e977760de756971f7,65d6bef63f7d9a4dcc97f335,0.018,0.018,0,79,79,93,1,seveneight,,,,,,,,,,,,,,,,,,,,,,,,,,,,,,,,,,,,,,,,,,,,,,,,,,,,,,,,,,,,,,,,,,,,,,,,,,,,,,,,,,,,,,,,,,,,,,,,,,,,,,,,,,,,,,,,,,,,,,,,,,,,,,,,,,,,,,,,,
,,607893faf75b80c8b2a14613,2024-02-21_19h27.33.389,kallum_motion_pilot,2023.2.2,Win32,55.55555556,607893faf75b80c8b2a14613,65d6bb0e977760de756971f7,65d6bef63f7d9a4dcc97f335,0.018,0.018,0,80,80,113,1,fiveseven,,,,,,,,,,,,,,,,,,,,,,,,,,,,,,,,,,,,,,,,,,,,,,,,,,,,,,,,,,,,,,,,,,,,,,,,,,,,,,,,,,,,,,,,,,,,,,,,,,,,,,,,,,,,,,,,,,,,,,,,,,,,,,,,,,,,,,,,,
,,607893faf75b80c8b2a14613,2024-02-21_19h27.33.389,kallum_motion_pilot,2023.2.2,Win32,55.55555556,607893faf75b80c8b2a14613,65d6bb0e977760de756971f7,65d6bef63f7d9a4dcc97f335,0.018,0.018,0,81,81,118,1,eightsix,,,,,,,,,,,,,,,,,,,,,,,,,,,,,,,,,,,,,,,,,,,,,,,,,,,,,,,,,,,,,,,,,,,,,,,,,,,,,,,,,,,,,,,,,,,,,,,,,,,,,,,,,,,,,,,,,,,,,,,,,,,,,,,,,,,,,,,,,
,,607893faf75b80c8b2a14613,2024-02-21_19h27.33.389,kallum_motion_pilot,2023.2.2,Win32,55.55555556,607893faf75b80c8b2a14613,65d6bb0e977760de756971f7,65d6bef63f7d9a4dcc97f335,0.018,0.018,0,82,82,116,1,sevenfive,,,,,,,,,,,,,,,,,,,,,,,,,,,,,,,,,,,,,,,,,,,,,,,,,,,,,,,,,,,,,,,,,,,,,,,,,,,,,,,,,,,,,,,,,,,,,,,,,,,,,,,,,,,,,,,,,,,,,,,,,,,,,,,,,,,,,,,,,
,,607893faf75b80c8b2a14613,2024-02-21_19h27.33.389,kallum_motion_pilot,2023.2.2,Win32,55.55555556,607893faf75b80c8b2a14613,65d6bb0e977760de756971f7,65d6bef63f7d9a4dcc97f335,0.018,0.018,0,83,83,31,1,fourthree,,,,,,,,,,,,,,,,,,,,,,,,,,,,,,,,,,,,,,,,,,,,,,,,,,,,,,,,,,,,,,,,,,,,,,,,,,,,,,,,,,,,,,,,,,,,,,,,,,,,,,,,,,,,,,,,,,,,,,,,,,,,,,,,,,,,,,,,,
,,607893faf75b80c8b2a14613,2024-02-21_19h27.33.389,kallum_motion_pilot,2023.2.2,Win32,55.55555556,607893faf75b80c8b2a14613,65d6bb0e977760de756971f7,65d6bef63f7d9a4dcc97f335,0.018,0.018,0,84,84,143,1,eightseven,,,,,,,,,,,,,,,,,,,,,,,,,,,,,,,,,,,,,,,,,,,,,,,,,,,,,,,,,,,,,,,,,,,,,,,,,,,,,,,,,,,,,,,,,,,,,,,,,,,,,,,,,,,,,,,,,,,,,,,,,,,,,,,,,,,,,,,,,
,,607893faf75b80c8b2a14613,2024-02-21_19h27.33.389,kallum_motion_pilot,2023.2.2,Win32,55.55555556,607893faf75b80c8b2a14613,65d6bb0e977760de756971f7,65d6bef63f7d9a4dcc97f335,0.019,0.019,0,85,85,23,1,fourthree,,,,,,,,,,,,,,,,,,,,,,,,,,,,,,,,,,,,,,,,,,,,,,,,,,,,,,,,,,,,,,,,,,,,,,,,,,,,,,,,,,,,,,,,,,,,,,,,,,,,,,,,,,,,,,,,,,,,,,,,,,,,,,,,,,,,,,,,,
,,607893faf75b80c8b2a14613,2024-02-21_19h27.33.389,kallum_motion_pilot,2023.2.2,Win32,55.55555556,607893faf75b80c8b2a14613,65d6bb0e977760de756971f7,65d6bef63f7d9a4dcc97f335,0.019,0.019,0,86,86,112,1,fivesix,,,,,,,,,,,,,,,,,,,,,,,,,,,,,,,,,,,,,,,,,,,,,,,,,,,,,,,,,,,,,,,,,,,,,,,,,,,,,,,,,,,,,,,,,,,,,,,,,,,,,,,,,,,,,,,,,,,,,,,,,,,,,,,,,,,,,,,,,
,,607893faf75b80c8b2a14613,2024-02-21_19h27.33.389,kallum_motion_pilot,2023.2.2,Win32,55.55555556,607893faf75b80c8b2a14613,65d6bb0e977760de756971f7,65d6bef63f7d9a4dcc97f335,0.019,0.019,0,87,87,109,1,seveneight,,,,,,,,,,,,,,,,,,,,,,,,,,,,,,,,,,,,,,,,,,,,,,,,,,,,,,,,,,,,,,,,,,,,,,,,,,,,,,,,,,,,,,,,,,,,,,,,,,,,,,,,,,,,,,,,,,,,,,,,,,,,,,,,,,,,,,,,,
,,607893faf75b80c8b2a14613,2024-02-21_19h27.33.389,kallum_motion_pilot,2023.2.2,Win32,55.55555556,607893faf75b80c8b2a14613,65d6bb0e977760de756971f7,65d6bef63f7d9a4dcc97f335,0.019,0.019,0,88,88,25,1,onethree,,,,,,,,,,,,,,,,,,,,,,,,,,,,,,,,,,,,,,,,,,,,,,,,,,,,,,,,,,,,,,,,,,,,,,,,,,,,,,,,,,,,,,,,,,,,,,,,,,,,,,,,,,,,,,,,,,,,,,,,,,,,,,,,,,,,,,,,,
,,607893faf75b80c8b2a14613,2024-02-21_19h27.33.389,kallum_motion_pilot,2023.2.2,Win32,55.55555556,607893faf75b80c8b2a14613,65d6bb0e977760de756971f7,65d6bef63f7d9a4dcc97f335,0.019,0.019,0,89,89,149,1,seveneight,,,,,,,,,,,,,,,,,,,,,,,,,,,,,,,,,,,,,,,,,,,,,,,,,,,,,,,,,,,,,,,,,,,,,,,,,,,,,,,,,,,,,,,,,,,,,,,,,,,,,,,,,,,,,,,,,,,,,,,,,,,,,,,,,,,,,,,,,
,,607893faf75b80c8b2a14613,2024-02-21_19h27.33.389,kallum_motion_pilot,2023.2.2,Win32,55.55555556,607893faf75b80c8b2a14613,65d6bb0e977760de756971f7,65d6bef63f7d9a4dcc97f335,0.019,0.019,0,90,90,145,1,fiveseven,,,,,,,,,,,,,,,,,,,,,,,,,,,,,,,,,,,,,,,,,,,,,,,,,,,,,,,,,,,,,,,,,,,,,,,,,,,,,,,,,,,,,,,,,,,,,,,,,,,,,,,,,,,,,,,,,,,,,,,,,,,,,,,,,,,,,,,,,
,,607893faf75b80c8b2a14613,2024-02-21_19h27.33.389,kallum_motion_pilot,2023.2.2,Win32,55.55555556,607893faf75b80c8b2a14613,65d6bb0e977760de756971f7,65d6bef63f7d9a4dcc97f335,0.019,0.019,0,91,91,45,1,threefour,,,,,,,,,,,,,,,,,,,,,,,,,,,,,,,,,,,,,,,,,,,,,,,,,,,,,,,,,,,,,,,,,,,,,,,,,,,,,,,,,,,,,,,,,,,,,,,,,,,,,,,,,,,,,,,,,,,,,,,,,,,,,,,,,,,,,,,,,
,,607893faf75b80c8b2a14613,2024-02-21_19h27.33.389,kallum_motion_pilot,2023.2.2,Win32,55.55555556,607893faf75b80c8b2a14613,65d6bb0e977760de756971f7,65d6bef63f7d9a4dcc97f335,0.019,0.019,0,92,92,48,1,onetwo,,,,,,,,,,,,,,,,,,,,,,,,,,,,,,,,,,,,,,,,,,,,,,,,,,,,,,,,,,,,,,,,,,,,,,,,,,,,,,,,,,,,,,,,,,,,,,,,,,,,,,,,,,,,,,,,,,,,,,,,,,,,,,,,,,,,,,,,,
,,607893faf75b80c8b2a14613,2024-02-21_19h27.33.389,kallum_motion_pilot,2023.2.2,Win32,55.55555556,607893faf75b80c8b2a14613,65d6bb0e977760de756971f7,65d6bef63f7d9a4dcc97f335,0.019,0.019,0,93,93,135,1,eightseven,,,,,,,,,,,,,,,,,,,,,,,,,,,,,,,,,,,,,,,,,,,,,,,,,,,,,,,,,,,,,,,,,,,,,,,,,,,,,,,,,,,,,,,,,,,,,,,,,,,,,,,,,,,,,,,,,,,,,,,,,,,,,,,,,,,,,,,,,
,,607893faf75b80c8b2a14613,2024-02-21_19h27.33.389,kallum_motion_pilot,2023.2.2,Win32,55.55555556,607893faf75b80c8b2a14613,65d6bb0e977760de756971f7,65d6bef63f7d9a4dcc97f335,0.019,0.019,0,94,94,39,1,fourthree,,,,,,,,,,,,,,,,,,,,,,,,,,,,,,,,,,,,,,,,,,,,,,,,,,,,,,,,,,,,,,,,,,,,,,,,,,,,,,,,,,,,,,,,,,,,,,,,,,,,,,,,,,,,,,,,,,,,,,,,,,,,,,,,,,,,,,,,,
,,607893faf75b80c8b2a14613,2024-02-21_19h27.33.389,kallum_motion_pilot,2023.2.2,Win32,55.55555556,607893faf75b80c8b2a14613,65d6bb0e977760de756971f7,65d6bef63f7d9a4dcc97f335,0.019,0.019,0,95,95,77,1,threefour,,,,,,,,,,,,,,,,,,,,,,,,,,,,,,,,,,,,,,,,,,,,,,,,,,,,,,,,,,,,,,,,,,,,,,,,,,,,,,,,,,,,,,,,,,,,,,,,,,,,,,,,,,,,,,,,,,,,,,,,,,,,,,,,,,,,,,,,,
,,607893faf75b80c8b2a14613,2024-02-21_19h27.33.389,kallum_motion_pilot,2023.2.2,Win32,55.55555556,607893faf75b80c8b2a14613,65d6bb0e977760de756971f7,65d6bef63f7d9a4dcc97f335,0.019,0.019,0,96,96,106,1,sixfive,,,,,,,,,,,,,,,,,,,,,,,,,,,,,,,,,,,,,,,,,,,,,,,,,,,,,,,,,,,,,,,,,,,,,,,,,,,,,,,,,,,,,,,,,,,,,,,,,,,,,,,,,,,,,,,,,,,,,,,,,,,,,,,,,,,,,,,,,
,,607893faf75b80c8b2a14613,2024-02-21_19h27.33.389,kallum_motion_pilot,2023.2.2,Win32,55.55555556,607893faf75b80c8b2a14613,65d6bb0e977760de756971f7,65d6bef63f7d9a4dcc97f335,0.019,0.019,0,97,97,70,1,fourtwo,,,,,,,,,,,,,,,,,,,,,,,,,,,,,,,,,,,,,,,,,,,,,,,,,,,,,,,,,,,,,,,,,,,,,,,,,,,,,,,,,,,,,,,,,,,,,,,,,,,,,,,,,,,,,,,,,,,,,,,,,,,,,,,,,,,,,,,,,
,,607893faf75b80c8b2a14613,2024-02-21_19h27.33.389,kallum_motion_pilot,2023.2.2,Win32,55.55555556,607893faf75b80c8b2a14613,65d6bb0e977760de756971f7,65d6bef63f7d9a4dcc97f335,0.02,0.02,0,98,98,91,1,sixeight,,,,,,,,,,,,,,,,,,,,,,,,,,,,,,,,,,,,,,,,,,,,,,,,,,,,,,,,,,,,,,,,,,,,,,,,,,,,,,,,,,,,,,,,,,,,,,,,,,,,,,,,,,,,,,,,,,,,,,,,,,,,,,,,,,,,,,,,,
,,607893faf75b80c8b2a14613,2024-02-21_19h27.33.389,kallum_motion_pilot,2023.2.2,Win32,55.55555556,607893faf75b80c8b2a14613,65d6bb0e977760de756971f7,65d6bef63f7d9a4dcc97f335,0.02,0.02,0,99,99,142,1,eightsix,,,,,,,,,,,,,,,,,,,,,,,,,,,,,,,,,,,,,,,,,,,,,,,,,,,,,,,,,,,,,,,,,,,,,,,,,,,,,,,,,,,,,,,,,,,,,,,,,,,,,,,,,,,,,,,,,,,,,,,,,,,,,,,,,,,,,,,,,
,,607893faf75b80c8b2a14613,2024-02-21_19h27.33.389,kallum_motion_pilot,2023.2.2,Win32,55.55555556,607893faf75b80c8b2a14613,65d6bb0e977760de756971f7,65d6bef63f7d9a4dcc97f335,0.02,0.02,0,100,100,73,1,onethree,,,,,,,,,,,,,,,,,,,,,,,,,,,,,,,,,,,,,,,,,,,,,,,,,,,,,,,,,,,,,,,,,,,,,,,,,,,,,,,,,,,,,,,,,,,,,,,,,,,,,,,,,,,,,,,,,,,,,,,,,,,,,,,,,,,,,,,,,
,,607893faf75b80c8b2a14613,2024-02-21_19h27.33.389,kallum_motion_pilot,2023.2.2,Win32,55.55555556,607893faf75b80c8b2a14613,65d6bb0e977760de756971f7,65d6bef63f7d9a4dcc97f335,0.02,0.02,0,101,101,17,1,onethree,,,,,,,,,,,,,,,,,,,,,,,,,,,,,,,,,,,,,,,,,,,,,,,,,,,,,,,,,,,,,,,,,,,,,,,,,,,,,,,,,,,,,,,,,,,,,,,,,,,,,,,,,,,,,,,,,,,,,,,,,,,,,,,,,,,,,,,,,
,,607893faf75b80c8b2a14613,2024-02-21_19h27.33.389,kallum_motion_pilot,2023.2.2,Win32,55.55555556,607893faf75b80c8b2a14613,65d6bb0e977760de756971f7,65d6bef63f7d9a4dcc97f335,0.02,0.02,0,102,102,58,1,twoone,,,,,,,,,,,,,,,,,,,,,,,,,,,,,,,,,,,,,,,,,,,,,,,,,,,,,,,,,,,,,,,,,,,,,,,,,,,,,,,,,,,,,,,,,,,,,,,,,,,,,,,,,,,,,,,,,,,,,,,,,,,,,,,,,,,,,,,,,
,,607893faf75b80c8b2a14613,2024-02-21_19h27.33.389,kallum_motion_pilot,2023.2.2,Win32,55.55555556,607893faf75b80c8b2a14613,65d6bb0e977760de756971f7,65d6bef63f7d9a4dcc97f335,0.02,0.02,0,103,103,86,1,eightsix,,,,,,,,,,,,,,,,,,,,,,,,,,,,,,,,,,,,,,,,,,,,,,,,,,,,,,,,,,,,,,,,,,,,,,,,,,,,,,,,,,,,,,,,,,,,,,,,,,,,,,,,,,,,,,,,,,,,,,,,,,,,,,,,,,,,,,,,,
,,607893faf75b80c8b2a14613,2024-02-21_19h27.33.389,kallum_motion_pilot,2023.2.2,Win32,55.55555556,607893faf75b80c8b2a14613,65d6bb0e977760de756971f7,65d6bef63f7d9a4dcc97f335,0.02,0.02,0,104,104,22,1,fourtwo,,,,,,,,,,,,,,,,,,,,,,,,,,,,,,,,,,,,,,,,,,,,,,,,,,,,,,,,,,,,,,,,,,,,,,,,,,,,,,,,,,,,,,,,,,,,,,,,,,,,,,,,,,,,,,,,,,,,,,,,,,,,,,,,,,,,,,,,,
,,607893faf75b80c8b2a14613,2024-02-21_19h27.33.389,kallum_motion_pilot,2023.2.2,Win32,55.55555556,607893faf75b80c8b2a14613,65d6bb0e977760de756971f7,65d6bef63f7d9a4dcc97f335,0.02,0.02,0,105,105,34,1,twoone,,,,,,,,,,,,,,,,,,,,,,,,,,,,,,,,,,,,,,,,,,,,,,,,,,,,,,,,,,,,,,,,,,,,,,,,,,,,,,,,,,,,,,,,,,,,,,,,,,,,,,,,,,,,,,,,,,,,,,,,,,,,,,,,,,,,,,,,,
,,607893faf75b80c8b2a14613,2024-02-21_19h27.33.389,kallum_motion_pilot,2023.2.2,Win32,55.55555556,607893faf75b80c8b2a14613,65d6bb0e977760de756971f7,65d6bef63f7d9a4dcc97f335,0.02,0.02,0,106,106,18,1,twoone,,,,,,,,,,,,,,,,,,,,,,,,,,,,,,,,,,,,,,,,,,,,,,,,,,,,,,,,,,,,,,,,,,,,,,,,,,,,,,,,,,,,,,,,,,,,,,,,,,,,,,,,,,,,,,,,,,,,,,,,,,,,,,,,,,,,,,,,,
,,607893faf75b80c8b2a14613,2024-02-21_19h27.33.389,kallum_motion_pilot,2023.2.2,Win32,55.55555556,607893faf75b80c8b2a14613,65d6bb0e977760de756971f7,65d6bef63f7d9a4dcc97f335,0.02,0.02,0,107,107,152,1,fivesix,,,,,,,,,,,,,,,,,,,,,,,,,,,,,,,,,,,,,,,,,,,,,,,,,,,,,,,,,,,,,,,,,,,,,,,,,,,,,,,,,,,,,,,,,,,,,,,,,,,,,,,,,,,,,,,,,,,,,,,,,,,,,,,,,,,,,,,,,
,,607893faf75b80c8b2a14613,2024-02-21_19h27.33.389,kallum_motion_pilot,2023.2.2,Win32,55.55555556,607893faf75b80c8b2a14613,65d6bb0e977760de756971f7,65d6bef63f7d9a4dcc97f335,0.02,0.02,0,108,108,56,1,onetwo,,,,,,,,,,,,,,,,,,,,,,,,,,,,,,,,,,,,,,,,,,,,,,,,,,,,,,,,,,,,,,,,,,,,,,,,,,,,,,,,,,,,,,,,,,,,,,,,,,,,,,,,,,,,,,,,,,,,,,,,,,,,,,,,,,,,,,,,,
,,607893faf75b80c8b2a14613,2024-02-21_19h27.33.389,kallum_motion_pilot,2023.2.2,Win32,55.55555556,607893faf75b80c8b2a14613,65d6bb0e977760de756971f7,65d6bef63f7d9a4dcc97f335,0.02,0.02,0,109,109,107,1,sixeight,,,,,,,,,,,,,,,,,,,,,,,,,,,,,,,,,,,,,,,,,,,,,,,,,,,,,,,,,,,,,,,,,,,,,,,,,,,,,,,,,,,,,,,,,,,,,,,,,,,,,,,,,,,,,,,,,,,,,,,,,,,,,,,,,,,,,,,,,
,,607893faf75b80c8b2a14613,2024-02-21_19h27.33.389,kallum_motion_pilot,2023.2.2,Win32,55.55555556,607893faf75b80c8b2a14613,65d6bb0e977760de756971f7,65d6bef63f7d9a4dcc97f335,0.02,0.02,0,110,110,67,1,twofour,,,,,,,,,,,,,,,,,,,,,,,,,,,,,,,,,,,,,,,,,,,,,,,,,,,,,,,,,,,,,,,,,,,,,,,,,,,,,,,,,,,,,,,,,,,,,,,,,,,,,,,,,,,,,,,,,,,,,,,,,,,,,,,,,,,,,,,,,
,,607893faf75b80c8b2a14613,2024-02-21_19h27.33.389,kallum_motion_pilot,2023.2.2,Win32,55.55555556,607893faf75b80c8b2a14613,65d6bb0e977760de756971f7,65d6bef63f7d9a4dcc97f335,0.02,0.02,0,111,111,85,1,seveneight,,,,,,,,,,,,,,,,,,,,,,,,,,,,,,,,,,,,,,,,,,,,,,,,,,,,,,,,,,,,,,,,,,,,,,,,,,,,,,,,,,,,,,,,,,,,,,,,,,,,,,,,,,,,,,,,,,,,,,,,,,,,,,,,,,,,,,,,,
,,607893faf75b80c8b2a14613,2024-02-21_19h27.33.389,kallum_motion_pilot,2023.2.2,Win32,55.55555556,607893faf75b80c8b2a14613,65d6bb0e977760de756971f7,65d6bef63f7d9a4dcc97f335,0.02,0.02,0,112,112,134,1,eightsix,,,,,,,,,,,,,,,,,,,,,,,,,,,,,,,,,,,,,,,,,,,,,,,,,,,,,,,,,,,,,,,,,,,,,,,,,,,,,,,,,,,,,,,,,,,,,,,,,,,,,,,,,,,,,,,,,,,,,,,,,,,,,,,,,,,,,,,,,
,,607893faf75b80c8b2a14613,2024-02-21_19h27.33.389,kallum_motion_pilot,2023.2.2,Win32,55.55555556,607893faf75b80c8b2a14613,65d6bb0e977760de756971f7,65d6bef63f7d9a4dcc97f335,0.02,0.02,0,113,113,115,1,sixeight,,,,,,,,,,,,,,,,,,,,,,,,,,,,,,,,,,,,,,,,,,,,,,,,,,,,,,,,,,,,,,,,,,,,,,,,,,,,,,,,,,,,,,,,,,,,,,,,,,,,,,,,,,,,,,,,,,,,,,,,,,,,,,,,,,,,,,,,,
,,607893faf75b80c8b2a14613,2024-02-21_19h27.33.389,kallum_motion_pilot,2023.2.2,Win32,55.55555556,607893faf75b80c8b2a14613,65d6bb0e977760de756971f7,65d6bef63f7d9a4dcc97f335,0.02,0.02,0,114,114,128,1,fivesix,,,,,,,,,,,,,,,,,,,,,,,,,,,,,,,,,,,,,,,,,,,,,,,,,,,,,,,,,,,,,,,,,,,,,,,,,,,,,,,,,,,,,,,,,,,,,,,,,,,,,,,,,,,,,,,,,,,,,,,,,,,,,,,,,,,,,,,,,
,,607893faf75b80c8b2a14613,2024-02-21_19h27.33.389,kallum_motion_pilot,2023.2.2,Win32,55.55555556,607893faf75b80c8b2a14613,65d6bb0e977760de756971f7,65d6bef63f7d9a4dcc97f335,0.021,0.021,0,115,115,114,1,sixfive,,,,,,,,,,,,,,,,,,,,,,,,,,,,,,,,,,,,,,,,,,,,,,,,,,,,,,,,,,,,,,,,,,,,,,,,,,,,,,,,,,,,,,,,,,,,,,,,,,,,,,,,,,,,,,,,,,,,,,,,,,,,,,,,,,,,,,,,,
,,607893faf75b80c8b2a14613,2024-02-21_19h27.33.389,kallum_motion_pilot,2023.2.2,Win32,55.55555556,607893faf75b80c8b2a14613,65d6bb0e977760de756971f7,65d6bef63f7d9a4dcc97f335,0.021,0.021,0,116,116,13,1,threefour,,,,,,,,,,,,,,,,,,,,,,,,,,,,,,,,,,,,,,,,,,,,,,,,,,,,,,,,,,,,,,,,,,,,,,,,,,,,,,,,,,,,,,,,,,,,,,,,,,,,,,,,,,,,,,,,,,,,,,,,,,,,,,,,,,,,,,,,,
,,607893faf75b80c8b2a14613,2024-02-21_19h27.33.389,kallum_motion_pilot,2023.2.2,Win32,55.55555556,607893faf75b80c8b2a14613,65d6bb0e977760de756971f7,65d6bef63f7d9a4dcc97f335,0.021,0.021,0,117,117,15,1,fourthree,,,,,,,,,,,,,,,,,,,,,,,,,,,,,,,,,,,,,,,,,,,,,,,,,,,,,,,,,,,,,,,,,,,,,,,,,,,,,,,,,,,,,,,,,,,,,,,,,,,,,,,,,,,,,,,,,,,,,,,,,,,,,,,,,,,,,,,,,
,,607893faf75b80c8b2a14613,2024-02-21_19h27.33.389,kallum_motion_pilot,2023.2.2,Win32,55.55555556,607893faf75b80c8b2a14613,65d6bb0e977760de756971f7,65d6bef63f7d9a4dcc97f335,0.021,0.021,0,118,118,42,1,twoone,,,,,,,,,,,,,,,,,,,,,,,,,,,,,,,,,,,,,,,,,,,,,,,,,,,,,,,,,,,,,,,,,,,,,,,,,,,,,,,,,,,,,,,,,,,,,,,,,,,,,,,,,,,,,,,,,,,,,,,,,,,,,,,,,,,,,,,,,
,,607893faf75b80c8b2a14613,2024-02-21_19h27.33.389,kallum_motion_pilot,2023.2.2,Win32,55.55555556,607893faf75b80c8b2a14613,65d6bb0e977760de756971f7,65d6bef63f7d9a4dcc97f335,0.021,0.021,0,119,119,104,1,fivesix,,,,,,,,,,,,,,,,,,,,,,,,,,,,,,,,,,,,,,,,,,,,,,,,,,,,,,,,,,,,,,,,,,,,,,,,,,,,,,,,,,,,,,,,,,,,,,,,,,,,,,,,,,,,,,,,,,,,,,,,,,,,,,,,,,,,,,,,,
,,607893faf75b80c8b2a14613,2024-02-21_19h27.33.389,kallum_motion_pilot,2023.2.2,Win32,55.55555556,607893faf75b80c8b2a14613,65d6bb0e977760de756971f7,65d6bef63f7d9a4dcc97f335,0.021,0.021,0,120,120,64,1,onetwo,,,,,,,,,,,,,,,,,,,,,,,,,,,,,,,,,,,,,,,,,,,,,,,,,,,,,,,,,,,,,,,,,,,,,,,,,,,,,,,,,,,,,,,,,,,,,,,,,,,,,,,,,,,,,,,,,,,,,,,,,,,,,,,,,,,,,,,,,
,,607893faf75b80c8b2a14613,2024-02-21_19h27.33.389,kallum_motion_pilot,2023.2.2,Win32,55.55555556,607893faf75b80c8b2a14613,65d6bb0e977760de756971f7,65d6bef63f7d9a4dcc97f335,0.021,0.021,0,121,121,3,1,twofour,,,,,,,,,,,,,,,,,,,,,,,,,,,,,,,,,,,,,,,,,,,,,,,,,,,,,,,,,,,,,,,,,,,,,,,,,,,,,,,,,,,,,,,,,,,,,,,,,,,,,,,,,,,,,,,,,,,,,,,,,,,,,,,,,,,,,,,,,
,,607893faf75b80c8b2a14613,2024-02-21_19h27.33.389,kallum_motion_pilot,2023.2.2,Win32,55.55555556,607893faf75b80c8b2a14613,65d6bb0e977760de756971f7,65d6bef63f7d9a4dcc97f335,0.021,0.021,0,122,122,123,1,sixeight,,,,,,,,,,,,,,,,,,,,,,,,,,,,,,,,,,,,,,,,,,,,,,,,,,,,,,,,,,,,,,,,,,,,,,,,,,,,,,,,,,,,,,,,,,,,,,,,,,,,,,,,,,,,,,,,,,,,,,,,,,,,,,,,,,,,,,,,,
,,607893faf75b80c8b2a14613,2024-02-21_19h27.33.389,kallum_motion_pilot,2023.2.2,Win32,55.55555556,607893faf75b80c8b2a14613,65d6bb0e977760de756971f7,65d6bef63f7d9a4dcc97f335,0.021,0.021,0,123,123,44,1,threeone,,,,,,,,,,,,,,,,,,,,,,,,,,,,,,,,,,,,,,,,,,,,,,,,,,,,,,,,,,,,,,,,,,,,,,,,,,,,,,,,,,,,,,,,,,,,,,,,,,,,,,,,,,,,,,,,,,,,,,,,,,,,,,,,,,,,,,,,,
,,607893faf75b80c8b2a14613,2024-02-21_19h27.33.389,kallum_motion_pilot,2023.2.2,Win32,55.55555556,607893faf75b80c8b2a14613,65d6bb0e977760de756971f7,65d6bef63f7d9a4dcc97f335,0.021,0.021,0,124,124,111,1,eightseven,,,,,,,,,,,,,,,,,,,,,,,,,,,,,,,,,,,,,,,,,,,,,,,,,,,,,,,,,,,,,,,,,,,,,,,,,,,,,,,,,,,,,,,,,,,,,,,,,,,,,,,,,,,,,,,,,,,,,,,,,,,,,,,,,,,,,,,,,
,,607893faf75b80c8b2a14613,2024-02-21_19h27.33.389,kallum_motion_pilot,2023.2.2,Win32,55.55555556,607893faf75b80c8b2a14613,65d6bb0e977760de756971f7,65d6bef63f7d9a4dcc97f335,0.021,0.021,0,125,125,155,1,sixeight,,,,,,,,,,,,,,,,,,,,,,,,,,,,,,,,,,,,,,,,,,,,,,,,,,,,,,,,,,,,,,,,,,,,,,,,,,,,,,,,,,,,,,,,,,,,,,,,,,,,,,,,,,,,,,,,,,,,,,,,,,,,,,,,,,,,,,,,,
,,607893faf75b80c8b2a14613,2024-02-21_19h27.33.389,kallum_motion_pilot,2023.2.2,Win32,55.55555556,607893faf75b80c8b2a14613,65d6bb0e977760de756971f7,65d6bef63f7d9a4dcc97f335,0.022,0.022,0,126,126,61,1,threefour,,,,,,,,,,,,,,,,,,,,,,,,,,,,,,,,,,,,,,,,,,,,,,,,,,,,,,,,,,,,,,,,,,,,,,,,,,,,,,,,,,,,,,,,,,,,,,,,,,,,,,,,,,,,,,,,,,,,,,,,,,,,,,,,,,,,,,,,,
,,607893faf75b80c8b2a14613,2024-02-21_19h27.33.389,kallum_motion_pilot,2023.2.2,Win32,55.55555556,607893faf75b80c8b2a14613,65d6bb0e977760de756971f7,65d6bef63f7d9a4dcc97f335,0.022,0.022,0,127,127,79,1,eightseven,,,,,,,,,,,,,,,,,,,,,,,,,,,,,,,,,,,,,,,,,,,,,,,,,,,,,,,,,,,,,,,,,,,,,,,,,,,,,,,,,,,,,,,,,,,,,,,,,,,,,,,,,,,,,,,,,,,,,,,,,,,,,,,,,,,,,,,,,
,,607893faf75b80c8b2a14613,2024-02-21_19h27.33.389,kallum_motion_pilot,2023.2.2,Win32,55.55555556,607893faf75b80c8b2a14613,65d6bb0e977760de756971f7,65d6bef63f7d9a4dcc97f335,0.022,0.022,0,128,128,59,1,twofour,,,,,,,,,,,,,,,,,,,,,,,,,,,,,,,,,,,,,,,,,,,,,,,,,,,,,,,,,,,,,,,,,,,,,,,,,,,,,,,,,,,,,,,,,,,,,,,,,,,,,,,,,,,,,,,,,,,,,,,,,,,,,,,,,,,,,,,,,
,,607893faf75b80c8b2a14613,2024-02-21_19h27.33.389,kallum_motion_pilot,2023.2.2,Win32,55.55555556,607893faf75b80c8b2a14613,65d6bb0e977760de756971f7,65d6bef63f7d9a4dcc97f335,0.022,0.022,0,129,129,46,1,fourtwo,,,,,,,,,,,,,,,,,,,,,,,,,,,,,,,,,,,,,,,,,,,,,,,,,,,,,,,,,,,,,,,,,,,,,,,,,,,,,,,,,,,,,,,,,,,,,,,,,,,,,,,,,,,,,,,,,,,,,,,,,,,,,,,,,,,,,,,,,
,,607893faf75b80c8b2a14613,2024-02-21_19h27.33.389,kallum_motion_pilot,2023.2.2,Win32,55.55555556,607893faf75b80c8b2a14613,65d6bb0e977760de756971f7,65d6bef63f7d9a4dcc97f335,0.022,0.022,0,130,130,108,1,sevenfive,,,,,,,,,,,,,,,,,,,,,,,,,,,,,,,,,,,,,,,,,,,,,,,,,,,,,,,,,,,,,,,,,,,,,,,,,,,,,,,,,,,,,,,,,,,,,,,,,,,,,,,,,,,,,,,,,,,,,,,,,,,,,,,,,,,,,,,,,
,,607893faf75b80c8b2a14613,2024-02-21_19h27.33.389,kallum_motion_pilot,2023.2.2,Win32,55.55555556,607893faf75b80c8b2a14613,65d6bb0e977760de756971f7,65d6bef63f7d9a4dcc97f335,0.022,0.022,0,131,131,24,1,onetwo,,,,,,,,,,,,,,,,,,,,,,,,,,,,,,,,,,,,,,,,,,,,,,,,,,,,,,,,,,,,,,,,,,,,,,,,,,,,,,,,,,,,,,,,,,,,,,,,,,,,,,,,,,,,,,,,,,,,,,,,,,,,,,,,,,,,,,,,,
,,607893faf75b80c8b2a14613,2024-02-21_19h27.33.389,kallum_motion_pilot,2023.2.2,Win32,55.55555556,607893faf75b80c8b2a14613,65d6bb0e977760de756971f7,65d6bef63f7d9a4dcc97f335,0.022,0.022,0,132,132,76,1,threeone,,,,,,,,,,,,,,,,,,,,,,,,,,,,,,,,,,,,,,,,,,,,,,,,,,,,,,,,,,,,,,,,,,,,,,,,,,,,,,,,,,,,,,,,,,,,,,,,,,,,,,,,,,,,,,,,,,,,,,,,,,,,,,,,,,,,,,,,,
,,607893faf75b80c8b2a14613,2024-02-21_19h27.33.389,kallum_motion_pilot,2023.2.2,Win32,55.55555556,607893faf75b80c8b2a14613,65d6bb0e977760de756971f7,65d6bef63f7d9a4dcc97f335,0.022,0.022,0,133,133,71,1,fourthree,,,,,,,,,,,,,,,,,,,,,,,,,,,,,,,,,,,,,,,,,,,,,,,,,,,,,,,,,,,,,,,,,,,,,,,,,,,,,,,,,,,,,,,,,,,,,,,,,,,,,,,,,,,,,,,,,,,,,,,,,,,,,,,,,,,,,,,,,
,,607893faf75b80c8b2a14613,2024-02-21_19h27.33.389,kallum_motion_pilot,2023.2.2,Win32,55.55555556,607893faf75b80c8b2a14613,65d6bb0e977760de756971f7,65d6bef63f7d9a4dcc97f335,0.022,0.022,0,134,134,150,1,eightsix,,,,,,,,,,,,,,,,,,,,,,,,,,,,,,,,,,,,,,,,,,,,,,,,,,,,,,,,,,,,,,,,,,,,,,,,,,,,,,,,,,,,,,,,,,,,,,,,,,,,,,,,,,,,,,,,,,,,,,,,,,,,,,,,,,,,,,,,,
,,607893faf75b80c8b2a14613,2024-02-21_19h27.33.389,kallum_motion_pilot,2023.2.2,Win32,55.55555556,607893faf75b80c8b2a14613,65d6bb0e977760de756971f7,65d6bef63f7d9a4dcc97f335,0.022,0.022,0,135,135,130,1,sixfive,,,,,,,,,,,,,,,,,,,,,,,,,,,,,,,,,,,,,,,,,,,,,,,,,,,,,,,,,,,,,,,,,,,,,,,,,,,,,,,,,,,,,,,,,,,,,,,,,,,,,,,,,,,,,,,,,,,,,,,,,,,,,,,,,,,,,,,,,
,,607893faf75b80c8b2a14613,2024-02-21_19h27.33.389,kallum_motion_pilot,2023.2.2,Win32,55.55555556,607893faf75b80c8b2a14613,65d6bb0e977760de756971f7,65d6bef63f7d9a4dcc97f335,0.022,0.022,0,136,136,140,1,sevenfive,,,,,,,,,,,,,,,,,,,,,,,,,,,,,,,,,,,,,,,,,,,,,,,,,,,,,,,,,,,,,,,,,,,,,,,,,,,,,,,,,,,,,,,,,,,,,,,,,,,,,,,,,,,,,,,,,,,,,,,,,,,,,,,,,,,,,,,,,
,,607893faf75b80c8b2a14613,2024-02-21_19h27.33.389,kallum_motion_pilot,2023.2.2,Win32,55.55555556,607893faf75b80c8b2a14613,65d6bb0e977760de756971f7,65d6bef63f7d9a4dcc97f335,0.022,0.022,0,137,137,138,1,sixfive,,,,,,,,,,,,,,,,,,,,,,,,,,,,,,,,,,,,,,,,,,,,,,,,,,,,,,,,,,,,,,,,,,,,,,,,,,,,,,,,,,,,,,,,,,,,,,,,,,,,,,,,,,,,,,,,,,,,,,,,,,,,,,,,,,,,,,,,,
,,607893faf75b80c8b2a14613,2024-02-21_19h27.33.389,kallum_motion_pilot,2023.2.2,Win32,55.55555556,607893faf75b80c8b2a14613,65d6bb0e977760de756971f7,65d6bef63f7d9a4dcc97f335,0.022,0.022,0,138,138,95,1,eightseven,,,,,,,,,,,,,,,,,,,,,,,,,,,,,,,,,,,,,,,,,,,,,,,,,,,,,,,,,,,,,,,,,,,,,,,,,,,,,,,,,,,,,,,,,,,,,,,,,,,,,,,,,,,,,,,,,,,,,,,,,,,,,,,,,,,,,,,,,
,,607893faf75b80c8b2a14613,2024-02-21_19h27.33.389,kallum_motion_pilot,2023.2.2,Win32,55.55555556,607893faf75b80c8b2a14613,65d6bb0e977760de756971f7,65d6bef63f7d9a4dcc97f335,0.022,0.022,0,139,139,47,1,fourthree,,,,,,,,,,,,,,,,,,,,,,,,,,,,,,,,,,,,,,,,,,,,,,,,,,,,,,,,,,,,,,,,,,,,,,,,,,,,,,,,,,,,,,,,,,,,,,,,,,,,,,,,,,,,,,,,,,,,,,,,,,,,,,,,,,,,,,,,,
,,607893faf75b80c8b2a14613,2024-02-21_19h27.33.389,kallum_motion_pilot,2023.2.2,Win32,55.55555556,607893faf75b80c8b2a14613,65d6bb0e977760de756971f7,65d6bef63f7d9a4dcc97f335,0.022,0.022,0,140,140,38,1,fourtwo,,,,,,,,,,,,,,,,,,,,,,,,,,,,,,,,,,,,,,,,,,,,,,,,,,,,,,,,,,,,,,,,,,,,,,,,,,,,,,,,,,,,,,,,,,,,,,,,,,,,,,,,,,,,,,,,,,,,,,,,,,,,,,,,,,,,,,,,,
,,607893faf75b80c8b2a14613,2024-02-21_19h27.33.389,kallum_motion_pilot,2023.2.2,Win32,55.55555556,607893faf75b80c8b2a14613,65d6bb0e977760de756971f7,65d6bef63f7d9a4dcc97f335,0.022,0.023,0,141,141,81,1,fiveseven,,,,,,,,,,,,,,,,,,,,,,,,,,,,,,,,,,,,,,,,,,,,,,,,,,,,,,,,,,,,,,,,,,,,,,,,,,,,,,,,,,,,,,,,,,,,,,,,,,,,,,,,,,,,,,,,,,,,,,,,,,,,,,,,,,,,,,,,,
,,607893faf75b80c8b2a14613,2024-02-21_19h27.33.389,kallum_motion_pilot,2023.2.2,Win32,55.55555556,607893faf75b80c8b2a14613,65d6bb0e977760de756971f7,65d6bef63f7d9a4dcc97f335,0.023,0.023,0,142,142,110,1,eightsix,,,,,,,,,,,,,,,,,,,,,,,,,,,,,,,,,,,,,,,,,,,,,,,,,,,,,,,,,,,,,,,,,,,,,,,,,,,,,,,,,,,,,,,,,,,,,,,,,,,,,,,,,,,,,,,,,,,,,,,,,,,,,,,,,,,,,,,,,
,,607893faf75b80c8b2a14613,2024-02-21_19h27.33.389,kallum_motion_pilot,2023.2.2,Win32,55.55555556,607893faf75b80c8b2a14613,65d6bb0e977760de756971f7,65d6bef63f7d9a4dcc97f335,0.023,0.023,0,143,143,146,1,sixfive,,,,,,,,,,,,,,,,,,,,,,,,,,,,,,,,,,,,,,,,,,,,,,,,,,,,,,,,,,,,,,,,,,,,,,,,,,,,,,,,,,,,,,,,,,,,,,,,,,,,,,,,,,,,,,,,,,,,,,,,,,,,,,,,,,,,,,,,,
,,607893faf75b80c8b2a14613,2024-02-21_19h27.33.389,kallum_motion_pilot,2023.2.2,Win32,55.55555556,607893faf75b80c8b2a14613,65d6bb0e977760de756971f7,65d6bef63f7d9a4dcc97f335,0.023,0.023,0,144,144,117,1,seveneight,,,,,,,,,,,,,,,,,,,,,,,,,,,,,,,,,,,,,,,,,,,,,,,,,,,,,,,,,,,,,,,,,,,,,,,,,,,,,,,,,,,,,,,,,,,,,,,,,,,,,,,,,,,,,,,,,,,,,,,,,,,,,,,,,,,,,,,,,
,,607893faf75b80c8b2a14613,2024-02-21_19h27.33.389,kallum_motion_pilot,2023.2.2,Win32,55.55555556,607893faf75b80c8b2a14613,65d6bb0e977760de756971f7,65d6bef63f7d9a4dcc97f335,0.023,0.023,0,145,145,21,1,threefour,,,,,,,,,,,,,,,,,,,,,,,,,,,,,,,,,,,,,,,,,,,,,,,,,,,,,,,,,,,,,,,,,,,,,,,,,,,,,,,,,,,,,,,,,,,,,,,,,,,,,,,,,,,,,,,,,,,,,,,,,,,,,,,,,,,,,,,,,
,,607893faf75b80c8b2a14613,2024-02-21_19h27.33.389,kallum_motion_pilot,2023.2.2,Win32,55.55555556,607893faf75b80c8b2a14613,65d6bb0e977760de756971f7,65d6bef63f7d9a4dcc97f335,0.023,0.023,0,146,146,65,1,onethree,,,,,,,,,,,,,,,,,,,,,,,,,,,,,,,,,,,,,,,,,,,,,,,,,,,,,,,,,,,,,,,,,,,,,,,,,,,,,,,,,,,,,,,,,,,,,,,,,,,,,,,,,,,,,,,,,,,,,,,,,,,,,,,,,,,,,,,,,
,,607893faf75b80c8b2a14613,2024-02-21_19h27.33.389,kallum_motion_pilot,2023.2.2,Win32,55.55555556,607893faf75b80c8b2a14613,65d6bb0e977760de756971f7,65d6bef63f7d9a4dcc97f335,0.023,0.023,0,147,147,5,1,threefour,,,,,,,,,,,,,,,,,,,,,,,,,,,,,,,,,,,,,,,,,,,,,,,,,,,,,,,,,,,,,,,,,,,,,,,,,,,,,,,,,,,,,,,,,,,,,,,,,,,,,,,,,,,,,,,,,,,,,,,,,,,,,,,,,,,,,,,,,
,,607893faf75b80c8b2a14613,2024-02-21_19h27.33.389,kallum_motion_pilot,2023.2.2,Win32,55.55555556,607893faf75b80c8b2a14613,65d6bb0e977760de756971f7,65d6bef63f7d9a4dcc97f335,0.023,0.023,0,148,148,50,1,twoone,,,,,,,,,,,,,,,,,,,,,,,,,,,,,,,,,,,,,,,,,,,,,,,,,,,,,,,,,,,,,,,,,,,,,,,,,,,,,,,,,,,,,,,,,,,,,,,,,,,,,,,,,,,,,,,,,,,,,,,,,,,,,,,,,,,,,,,,,
,,607893faf75b80c8b2a14613,2024-02-21_19h27.33.389,kallum_motion_pilot,2023.2.2,Win32,55.55555556,607893faf75b80c8b2a14613,65d6bb0e977760de756971f7,65d6bef63f7d9a4dcc97f335,0.023,0.023,0,149,149,147,1,sixeight,,,,,,,,,,,,,,,,,,,,,,,,,,,,,,,,,,,,,,,,,,,,,,,,,,,,,,,,,,,,,,,,,,,,,,,,,,,,,,,,,,,,,,,,,,,,,,,,,,,,,,,,,,,,,,,,,,,,,,,,,,,,,,,,,,,,,,,,,
,,607893faf75b80c8b2a14613,2024-02-21_19h27.33.389,kallum_motion_pilot,2023.2.2,Win32,55.55555556,607893faf75b80c8b2a14613,65d6bb0e977760de756971f7,65d6bef63f7d9a4dcc97f335,0.023,0.023,0,150,150,98,1,sixfive,,,,,,,,,,,,,,,,,,,,,,,,,,,,,,,,,,,,,,,,,,,,,,,,,,,,,,,,,,,,,,,,,,,,,,,,,,,,,,,,,,,,,,,,,,,,,,,,,,,,,,,,,,,,,,,,,,,,,,,,,,,,,,,,,,,,,,,,,
,,607893faf75b80c8b2a14613,2024-02-21_19h27.33.389,kallum_motion_pilot,2023.2.2,Win32,55.55555556,607893faf75b80c8b2a14613,65d6bb0e977760de756971f7,65d6bef63f7d9a4dcc97f335,0.023,0.023,0,151,151,10,1,twoone,,,,,,,,,,,,,,,,,,,,,,,,,,,,,,,,,,,,,,,,,,,,,,,,,,,,,,,,,,,,,,,,,,,,,,,,,,,,,,,,,,,,,,,,,,,,,,,,,,,,,,,,,,,,,,,,,,,,,,,,,,,,,,,,,,,,,,,,,
,,607893faf75b80c8b2a14613,2024-02-21_19h27.33.389,kallum_motion_pilot,2023.2.2,Win32,55.55555556,607893faf75b80c8b2a14613,65d6bb0e977760de756971f7,65d6bef63f7d9a4dcc97f335,0.023,0.023,0,152,152,133,1,seveneight,,,,,,,,,,,,,,,,,,,,,,,,,,,,,,,,,,,,,,,,,,,,,,,,,,,,,,,,,,,,,,,,,,,,,,,,,,,,,,,,,,,,,,,,,,,,,,,,,,,,,,,,,,,,,,,,,,,,,,,,,,,,,,,,,,,,,,,,,
,,607893faf75b80c8b2a14613,2024-02-21_19h27.33.389,kallum_motion_pilot,2023.2.2,Win32,55.55555556,607893faf75b80c8b2a14613,65d6bb0e977760de756971f7,65d6bef63f7d9a4dcc97f335,0.023,0.023,0,153,153,69,1,threefour,,,,,,,,,,,,,,,,,,,,,,,,,,,,,,,,,,,,,,,,,,,,,,,,,,,,,,,,,,,,,,,,,,,,,,,,,,,,,,,,,,,,,,,,,,,,,,,,,,,,,,,,,,,,,,,,,,,,,,,,,,,,,,,,,,,,,,,,,
,,607893faf75b80c8b2a14613,2024-02-21_19h27.33.389,kallum_motion_pilot,2023.2.2,Win32,55.55555556,607893faf75b80c8b2a14613,65d6bb0e977760de756971f7,65d6bef63f7d9a4dcc97f335,0.023,0.023,0,154,154,28,1,threeone,,,,,,,,,,,,,,,,,,,,,,,,,,,,,,,,,,,,,,,,,,,,,,,,,,,,,,,,,,,,,,,,,,,,,,,,,,,,,,,,,,,,,,,,,,,,,,,,,,,,,,,,,,,,,,,,,,,,,,,,,,,,,,,,,,,,,,,,,
,,607893faf75b80c8b2a14613,2024-02-21_19h27.33.389,kallum_motion_pilot,2023.2.2,Win32,55.55555556,607893faf75b80c8b2a14613,65d6bb0e977760de756971f7,65d6bef63f7d9a4dcc97f335,0.023,0.023,0,155,155,16,1,onetwo,,,,,,,,,,,,,,,,,,,,,,,,,,,,,,,,,,,,,,,,,,,,,,,,,,,,,,,,,,,,,,,,,,,,,,,,,,,,,,,,,,,,,,,,,,,,,,,,,,,,,,,,,,,,,,,,,,,,,,,,,,,,,,,,,,,,,,,,,
,,607893faf75b80c8b2a14613,2024-02-21_19h27.33.389,kallum_motion_pilot,2023.2.2,Win32,55.55555556,607893faf75b80c8b2a14613,65d6bb0e977760de756971f7,65d6bef63f7d9a4dcc97f335,0.023,0.024,0,156,156,82,1,sixfive,,,,,,,,,,,,,,,,,,,,,,,,,,,,,,,,,,,,,,,,,,,,,,,,,,,,,,,,,,,,,,,,,,,,,,,,,,,,,,,,,,,,,,,,,,,,,,,,,,,,,,,,,,,,,,,,,,,,,,,,,,,,,,,,,,,,,,,,,
,,607893faf75b80c8b2a14613,2024-02-21_19h27.33.389,kallum_motion_pilot,2023.2.2,Win32,55.55555556,607893faf75b80c8b2a14613,65d6bb0e977760de756971f7,65d6bef63f7d9a4dcc97f335,0.024,0.024,0,157,157,92,1,sevenfive,,,,,,,,,,,,,,,,,,,,,,,,,,,,,,,,,,,,,,,,,,,,,,,,,,,,,,,,,,,,,,,,,,,,,,,,,,,,,,,,,,,,,,,,,,,,,,,,,,,,,,,,,,,,,,,,,,,,,,,,,,,,,,,,,,,,,,,,,
,,607893faf75b80c8b2a14613,2024-02-21_19h27.33.389,kallum_motion_pilot,2023.2.2,Win32,55.55555556,607893faf75b80c8b2a14613,65d6bb0e977760de756971f7,65d6bef63f7d9a4dcc97f335,0.024,0.024,0,158,158,72,1,onetwo,,,,,,,,,,,,,,,,,,,,,,,,,,,,,,,,,,,,,,,,,,,,,,,,,,,,,,,,,,,,,,,,,,,,,,,,,,,,,,,,,,,,,,,,,,,,,,,,,,,,,,,,,,,,,,,,,,,,,,,,,,,,,,,,,,,,,,,,,
,,607893faf75b80c8b2a14613,2024-02-21_19h27.33.389,kallum_motion_pilot,2023.2.2,Win32,55.55555556,607893faf75b80c8b2a14613,65d6bb0e977760de756971f7,65d6bef63f7d9a4dcc97f335,0.024,0.024,0,159,159,129,1,fiveseven,,,,,,,,,,,,,,,,,,,,,,,,,,,,,,,,,,,,,,,,,,,,,,,,,,,,,,,,,,,,,,,,,,,,,,,,,,,,,,,,,,,,,,,,,,,,,,,,,,,,,,,,,,,,,,,,,,,,,,,,,,,,,,,,,,,,,,,,,
,,607893faf75b80c8b2a14613,2024-02-21_19h27.33.389,kallum_motion_pilot,2023.2.2,Win32,55.55555556,607893faf75b80c8b2a14613,65d6bb0e977760de756971f7,65d6bef63f7d9a4dcc97f335,0.024,0.024,0,160,160,94,1,eightsix,,,,,,,,,,,,,,,,,,,,,,,,,,,,,,,,,,,,,,,,,,,,,,,,,,,,,,,,,,,,,,,,,,,,,,,,,,,,,,,,,,,,,,,,,,,,,,,,,,,,,,,,,,,,,,,,,,,,,,,,,,,,,,,,,,,,,,,,,
,,607893faf75b80c8b2a14613,2024-02-21_19h27.33.389,kallum_motion_pilot,2023.2.2,Win32,55.55555556,607893faf75b80c8b2a14613,65d6bb0e977760de756971f7,65d6bef63f7d9a4dcc97f335,0.024,0.024,0,161,161,125,1,seveneight,,,,,,,,,,,,,,,,,,,,,,,,,,,,,,,,,,,,,,,,,,,,,,,,,,,,,,,,,,,,,,,,,,,,,,,,,,,,,,,,,,,,,,,,,,,,,,,,,,,,,,,,,,,,,,,,,,,,,,,,,,,,,,,,,,,,,,,,,
,,607893faf75b80c8b2a14613,2024-02-21_19h27.33.389,kallum_motion_pilot,2023.2.2,Win32,55.55555556,607893faf75b80c8b2a14613,65d6bb0e977760de756971f7,65d6bef63f7d9a4dcc97f335,0.024,0.024,1,0,162,108,1,sevenfive,,,,,,,,,,,,,,,,,,,,,,,,,,,,,,,,,,,,,,,,,,,,,,,,,,,,,,,,,,,,,,,,,,,,,,,,,,,,,,,,,,,,,,,,,,,,,,,,,,,,,,,,,,,,,,,,,,,,,,,,,,,,,,,,,,,,,,,,,
,,607893faf75b80c8b2a14613,2024-02-21_19h27.33.389,kallum_motion_pilot,2023.2.2,Win32,55.55555556,607893faf75b80c8b2a14613,65d6bb0e977760de756971f7,65d6bef63f7d9a4dcc97f335,0.024,0.024,1,1,163,65,1,onethree,,,,,,,,,,,,,,,,,,,,,,,,,,,,,,,,,,,,,,,,,,,,,,,,,,,,,,,,,,,,,,,,,,,,,,,,,,,,,,,,,,,,,,,,,,,,,,,,,,,,,,,,,,,,,,,,,,,,,,,,,,,,,,,,,,,,,,,,,
,,607893faf75b80c8b2a14613,2024-02-21_19h27.33.389,kallum_motion_pilot,2023.2.2,Win32,55.55555556,607893faf75b80c8b2a14613,65d6bb0e977760de756971f7,65d6bef63f7d9a4dcc97f335,0.024,0.024,1,2,164,124,1,sevenfive,,,,,,,,,,,,,,,,,,,,,,,,,,,,,,,,,,,,,,,,,,,,,,,,,,,,,,,,,,,,,,,,,,,,,,,,,,,,,,,,,,,,,,,,,,,,,,,,,,,,,,,,,,,,,,,,,,,,,,,,,,,,,,,,,,,,,,,,,
,,607893faf75b80c8b2a14613,2024-02-21_19h27.33.389,kallum_motion_pilot,2023.2.2,Win32,55.55555556,607893faf75b80c8b2a14613,65d6bb0e977760de756971f7,65d6bef63f7d9a4dcc97f335,0.024,0.024,1,3,165,135,1,eightseven,,,,,,,,,,,,,,,,,,,,,,,,,,,,,,,,,,,,,,,,,,,,,,,,,,,,,,,,,,,,,,,,,,,,,,,,,,,,,,,,,,,,,,,,,,,,,,,,,,,,,,,,,,,,,,,,,,,,,,,,,,,,,,,,,,,,,,,,,
,,607893faf75b80c8b2a14613,2024-02-21_19h27.33.389,kallum_motion_pilot,2023.2.2,Win32,55.55555556,607893faf75b80c8b2a14613,65d6bb0e977760de756971f7,65d6bef63f7d9a4dcc97f335,0.024,0.024,1,4,166,140,1,sevenfive,,,,,,,,,,,,,,,,,,,,,,,,,,,,,,,,,,,,,,,,,,,,,,,,,,,,,,,,,,,,,,,,,,,,,,,,,,,,,,,,,,,,,,,,,,,,,,,,,,,,,,,,,,,,,,,,,,,,,,,,,,,,,,,,,,,,,,,,,
,,607893faf75b80c8b2a14613,2024-02-21_19h27.33.389,kallum_motion_pilot,2023.2.2,Win32,55.55555556,607893faf75b80c8b2a14613,65d6bb0e977760de756971f7,65d6bef63f7d9a4dcc97f335,0.024,0.024,1,5,167,133,1,seveneight,,,,,,,,,,,,,,,,,,,,,,,,,,,,,,,,,,,,,,,,,,,,,,,,,,,,,,,,,,,,,,,,,,,,,,,,,,,,,,,,,,,,,,,,,,,,,,,,,,,,,,,,,,,,,,,,,,,,,,,,,,,,,,,,,,,,,,,,,
,,607893faf75b80c8b2a14613,2024-02-21_19h27.33.389,kallum_motion_pilot,2023.2.2,Win32,55.55555556,607893faf75b80c8b2a14613,65d6bb0e977760de756971f7,65d6bef63f7d9a4dcc97f335,0.024,0.024,1,6,168,115,1,sixeight,,,,,,,,,,,,,,,,,,,,,,,,,,,,,,,,,,,,,,,,,,,,,,,,,,,,,,,,,,,,,,,,,,,,,,,,,,,,,,,,,,,,,,,,,,,,,,,,,,,,,,,,,,,,,,,,,,,,,,,,,,,,,,,,,,,,,,,,,
,,607893faf75b80c8b2a14613,2024-02-21_19h27.33.389,kallum_motion_pilot,2023.2.2,Win32,55.55555556,607893faf75b80c8b2a14613,65d6bb0e977760de756971f7,65d6bef63f7d9a4dcc97f335,0.024,0.024,1,7,169,128,1,fivesix,,,,,,,,,,,,,,,,,,,,,,,,,,,,,,,,,,,,,,,,,,,,,,,,,,,,,,,,,,,,,,,,,,,,,,,,,,,,,,,,,,,,,,,,,,,,,,,,,,,,,,,,,,,,,,,,,,,,,,,,,,,,,,,,,,,,,,,,,
,,607893faf75b80c8b2a14613,2024-02-21_19h27.33.389,kallum_motion_pilot,2023.2.2,Win32,55.55555556,607893faf75b80c8b2a14613,65d6bb0e977760de756971f7,65d6bef63f7d9a4dcc97f335,0.024,0.024,1,8,170,5,1,threefour,,,,,,,,,,,,,,,,,,,,,,,,,,,,,,,,,,,,,,,,,,,,,,,,,,,,,,,,,,,,,,,,,,,,,,,,,,,,,,,,,,,,,,,,,,,,,,,,,,,,,,,,,,,,,,,,,,,,,,,,,,,,,,,,,,,,,,,,,
,,607893faf75b80c8b2a14613,2024-02-21_19h27.33.389,kallum_motion_pilot,2023.2.2,Win32,55.55555556,607893faf75b80c8b2a14613,65d6bb0e977760de756971f7,65d6bef63f7d9a4dcc97f335,0.024,0.024,1,9,171,112,1,fivesix,,,,,,,,,,,,,,,,,,,,,,,,,,,,,,,,,,,,,,,,,,,,,,,,,,,,,,,,,,,,,,,,,,,,,,,,,,,,,,,,,,,,,,,,,,,,,,,,,,,,,,,,,,,,,,,,,,,,,,,,,,,,,,,,,,,,,,,,,
,,607893faf75b80c8b2a14613,2024-02-21_19h27.33.389,kallum_motion_pilot,2023.2.2,Win32,55.55555556,607893faf75b80c8b2a14613,65d6bb0e977760de756971f7,65d6bef63f7d9a4dcc97f335,0.024,0.024,1,10,172,83,1,sixeight,,,,,,,,,,,,,,,,,,,,,,,,,,,,,,,,,,,,,,,,,,,,,,,,,,,,,,,,,,,,,,,,,,,,,,,,,,,,,,,,,,,,,,,,,,,,,,,,,,,,,,,,,,,,,,,,,,,,,,,,,,,,,,,,,,,,,,,,,
,,607893faf75b80c8b2a14613,2024-02-21_19h27.33.389,kallum_motion_pilot,2023.2.2,Win32,55.55555556,607893faf75b80c8b2a14613,65d6bb0e977760de756971f7,65d6bef63f7d9a4dcc97f335,0.024,0.024,1,11,173,17,1,onethree,,,,,,,,,,,,,,,,,,,,,,,,,,,,,,,,,,,,,,,,,,,,,,,,,,,,,,,,,,,,,,,,,,,,,,,,,,,,,,,,,,,,,,,,,,,,,,,,,,,,,,,,,,,,,,,,,,,,,,,,,,,,,,,,,,,,,,,,,
,,607893faf75b80c8b2a14613,2024-02-21_19h27.33.389,kallum_motion_pilot,2023.2.2,Win32,55.55555556,607893faf75b80c8b2a14613,65d6bb0e977760de756971f7,65d6bef63f7d9a4dcc97f335,0.024,0.024,1,12,174,4,1,threeone,,,,,,,,,,,,,,,,,,,,,,,,,,,,,,,,,,,,,,,,,,,,,,,,,,,,,,,,,,,,,,,,,,,,,,,,,,,,,,,,,,,,,,,,,,,,,,,,,,,,,,,,,,,,,,,,,,,,,,,,,,,,,,,,,,,,,,,,,
,,607893faf75b80c8b2a14613,2024-02-21_19h27.33.389,kallum_motion_pilot,2023.2.2,Win32,55.55555556,607893faf75b80c8b2a14613,65d6bb0e977760de756971f7,65d6bef63f7d9a4dcc97f335,0.024,0.025,1,13,175,89,1,fiveseven,,,,,,,,,,,,,,,,,,,,,,,,,,,,,,,,,,,,,,,,,,,,,,,,,,,,,,,,,,,,,,,,,,,,,,,,,,,,,,,,,,,,,,,,,,,,,,,,,,,,,,,,,,,,,,,,,,,,,,,,,,,,,,,,,,,,,,,,,
,,607893faf75b80c8b2a14613,2024-02-21_19h27.33.389,kallum_motion_pilot,2023.2.2,Win32,55.55555556,607893faf75b80c8b2a14613,65d6bb0e977760de756971f7,65d6bef63f7d9a4dcc97f335,0.025,0.025,1,14,176,134,1,eightsix,,,,,,,,,,,,,,,,,,,,,,,,,,,,,,,,,,,,,,,,,,,,,,,,,,,,,,,,,,,,,,,,,,,,,,,,,,,,,,,,,,,,,,,,,,,,,,,,,,,,,,,,,,,,,,,,,,,,,,,,,,,,,,,,,,,,,,,,,
,,607893faf75b80c8b2a14613,2024-02-21_19h27.33.389,kallum_motion_pilot,2023.2.2,Win32,55.55555556,607893faf75b80c8b2a14613,65d6bb0e977760de756971f7,65d6bef63f7d9a4dcc97f335,0.025,0.025,1,15,177,127,1,eightseven,,,,,,,,,,,,,,,,,,,,,,,,,,,,,,,,,,,,,,,,,,,,,,,,,,,,,,,,,,,,,,,,,,,,,,,,,,,,,,,,,,,,,,,,,,,,,,,,,,,,,,,,,,,,,,,,,,,,,,,,,,,,,,,,,,,,,,,,,
,,607893faf75b80c8b2a14613,2024-02-21_19h27.33.389,kallum_motion_pilot,2023.2.2,Win32,55.55555556,607893faf75b80c8b2a14613,65d6bb0e977760de756971f7,65d6bef63f7d9a4dcc97f335,0.025,0.025,1,16,178,120,1,fivesix,,,,,,,,,,,,,,,,,,,,,,,,,,,,,,,,,,,,,,,,,,,,,,,,,,,,,,,,,,,,,,,,,,,,,,,,,,,,,,,,,,,,,,,,,,,,,,,,,,,,,,,,,,,,,,,,,,,,,,,,,,,,,,,,,,,,,,,,,
,,607893faf75b80c8b2a14613,2024-02-21_19h27.33.389,kallum_motion_pilot,2023.2.2,Win32,55.55555556,607893faf75b80c8b2a14613,65d6bb0e977760de756971f7,65d6bef63f7d9a4dcc97f335,0.025,0.025,1,17,179,34,1,twoone,,,,,,,,,,,,,,,,,,,,,,,,,,,,,,,,,,,,,,,,,,,,,,,,,,,,,,,,,,,,,,,,,,,,,,,,,,,,,,,,,,,,,,,,,,,,,,,,,,,,,,,,,,,,,,,,,,,,,,,,,,,,,,,,,,,,,,,,,
,,607893faf75b80c8b2a14613,2024-02-21_19h27.33.389,kallum_motion_pilot,2023.2.2,Win32,55.55555556,607893faf75b80c8b2a14613,65d6bb0e977760de756971f7,65d6bef63f7d9a4dcc97f335,0.025,0.025,1,18,180,26,1,twoone,,,,,,,,,,,,,,,,,,,,,,,,,,,,,,,,,,,,,,,,,,,,,,,,,,,,,,,,,,,,,,,,,,,,,,,,,,,,,,,,,,,,,,,,,,,,,,,,,,,,,,,,,,,,,,,,,,,,,,,,,,,,,,,,,,,,,,,,,
,,607893faf75b80c8b2a14613,2024-02-21_19h27.33.389,kallum_motion_pilot,2023.2.2,Win32,55.55555556,607893faf75b80c8b2a14613,65d6bb0e977760de756971f7,65d6bef63f7d9a4dcc97f335,0.025,0.025,1,19,181,158,1,eightsix,,,,,,,,,,,,,,,,,,,,,,,,,,,,,,,,,,,,,,,,,,,,,,,,,,,,,,,,,,,,,,,,,,,,,,,,,,,,,,,,,,,,,,,,,,,,,,,,,,,,,,,,,,,,,,,,,,,,,,,,,,,,,,,,,,,,,,,,,
,,607893faf75b80c8b2a14613,2024-02-21_19h27.33.389,kallum_motion_pilot,2023.2.2,Win32,55.55555556,607893faf75b80c8b2a14613,65d6bb0e977760de756971f7,65d6bef63f7d9a4dcc97f335,0.025,0.025,1,20,182,63,1,fourthree,,,,,,,,,,,,,,,,,,,,,,,,,,,,,,,,,,,,,,,,,,,,,,,,,,,,,,,,,,,,,,,,,,,,,,,,,,,,,,,,,,,,,,,,,,,,,,,,,,,,,,,,,,,,,,,,,,,,,,,,,,,,,,,,,,,,,,,,,
,,607893faf75b80c8b2a14613,2024-02-21_19h27.33.389,kallum_motion_pilot,2023.2.2,Win32,55.55555556,607893faf75b80c8b2a14613,65d6bb0e977760de756971f7,65d6bef63f7d9a4dcc97f335,0.025,0.025,1,21,183,52,1,threeone,,,,,,,,,,,,,,,,,,,,,,,,,,,,,,,,,,,,,,,,,,,,,,,,,,,,,,,,,,,,,,,,,,,,,,,,,,,,,,,,,,,,,,,,,,,,,,,,,,,,,,,,,,,,,,,,,,,,,,,,,,,,,,,,,,,,,,,,,
,,607893faf75b80c8b2a14613,2024-02-21_19h27.33.389,kallum_motion_pilot,2023.2.2,Win32,55.55555556,607893faf75b80c8b2a14613,65d6bb0e977760de756971f7,65d6bef63f7d9a4dcc97f335,0.025,0.025,1,22,184,55,1,fourthree,,,,,,,,,,,,,,,,,,,,,,,,,,,,,,,,,,,,,,,,,,,,,,,,,,,,,,,,,,,,,,,,,,,,,,,,,,,,,,,,,,,,,,,,,,,,,,,,,,,,,,,,,,,,,,,,,,,,,,,,,,,,,,,,,,,,,,,,,
,,607893faf75b80c8b2a14613,2024-02-21_19h27.33.389,kallum_motion_pilot,2023.2.2,Win32,55.55555556,607893faf75b80c8b2a14613,65d6bb0e977760de756971f7,65d6bef63f7d9a4dcc97f335,0.025,0.025,1,23,185,15,1,fourthree,,,,,,,,,,,,,,,,,,,,,,,,,,,,,,,,,,,,,,,,,,,,,,,,,,,,,,,,,,,,,,,,,,,,,,,,,,,,,,,,,,,,,,,,,,,,,,,,,,,,,,,,,,,,,,,,,,,,,,,,,,,,,,,,,,,,,,,,,
,,607893faf75b80c8b2a14613,2024-02-21_19h27.33.389,kallum_motion_pilot,2023.2.2,Win32,55.55555556,607893faf75b80c8b2a14613,65d6bb0e977760de756971f7,65d6bef63f7d9a4dcc97f335,0.025,0.025,1,24,186,101,1,seveneight,,,,,,,,,,,,,,,,,,,,,,,,,,,,,,,,,,,,,,,,,,,,,,,,,,,,,,,,,,,,,,,,,,,,,,,,,,,,,,,,,,,,,,,,,,,,,,,,,,,,,,,,,,,,,,,,,,,,,,,,,,,,,,,,,,,,,,,,,
,,607893faf75b80c8b2a14613,2024-02-21_19h27.33.389,kallum_motion_pilot,2023.2.2,Win32,55.55555556,607893faf75b80c8b2a14613,65d6bb0e977760de756971f7,65d6bef63f7d9a4dcc97f335,0.025,0.025,1,25,187,129,1,fiveseven,,,,,,,,,,,,,,,,,,,,,,,,,,,,,,,,,,,,,,,,,,,,,,,,,,,,,,,,,,,,,,,,,,,,,,,,,,,,,,,,,,,,,,,,,,,,,,,,,,,,,,,,,,,,,,,,,,,,,,,,,,,,,,,,,,,,,,,,,
,,607893faf75b80c8b2a14613,2024-02-21_19h27.33.389,kallum_motion_pilot,2023.2.2,Win32,55.55555556,607893faf75b80c8b2a14613,65d6bb0e977760de756971f7,65d6bef63f7d9a4dcc97f335,0.025,0.025,1,26,188,145,1,fiveseven,,,,,,,,,,,,,,,,,,,,,,,,,,,,,,,,,,,,,,,,,,,,,,,,,,,,,,,,,,,,,,,,,,,,,,,,,,,,,,,,,,,,,,,,,,,,,,,,,,,,,,,,,,,,,,,,,,,,,,,,,,,,,,,,,,,,,,,,,
,,607893faf75b80c8b2a14613,2024-02-21_19h27.33.389,kallum_motion_pilot,2023.2.2,Win32,55.55555556,607893faf75b80c8b2a14613,65d6bb0e977760de756971f7,65d6bef63f7d9a4dcc97f335,0.026,0.026,1,27,189,19,1,twofour,,,,,,,,,,,,,,,,,,,,,,,,,,,,,,,,,,,,,,,,,,,,,,,,,,,,,,,,,,,,,,,,,,,,,,,,,,,,,,,,,,,,,,,,,,,,,,,,,,,,,,,,,,,,,,,,,,,,,,,,,,,,,,,,,,,,,,,,,
,,607893faf75b80c8b2a14613,2024-02-21_19h27.33.389,kallum_motion_pilot,2023.2.2,Win32,55.55555556,607893faf75b80c8b2a14613,65d6bb0e977760de756971f7,65d6bef63f7d9a4dcc97f335,0.026,0.026,1,28,190,3,1,twofour,,,,,,,,,,,,,,,,,,,,,,,,,,,,,,,,,,,,,,,,,,,,,,,,,,,,,,,,,,,,,,,,,,,,,,,,,,,,,,,,,,,,,,,,,,,,,,,,,,,,,,,,,,,,,,,,,,,,,,,,,,,,,,,,,,,,,,,,,
,,607893faf75b80c8b2a14613,2024-02-21_19h27.33.389,kallum_motion_pilot,2023.2.2,Win32,55.55555556,607893faf75b80c8b2a14613,65d6bb0e977760de756971f7,65d6bef63f7d9a4dcc97f335,0.026,0.026,1,29,191,30,1,fourtwo,,,,,,,,,,,,,,,,,,,,,,,,,,,,,,,,,,,,,,,,,,,,,,,,,,,,,,,,,,,,,,,,,,,,,,,,,,,,,,,,,,,,,,,,,,,,,,,,,,,,,,,,,,,,,,,,,,,,,,,,,,,,,,,,,,,,,,,,,
,,607893faf75b80c8b2a14613,2024-02-21_19h27.33.389,kallum_motion_pilot,2023.2.2,Win32,55.55555556,607893faf75b80c8b2a14613,65d6bb0e977760de756971f7,65d6bef63f7d9a4dcc97f335,0.026,0.026,1,30,192,93,1,seveneight,,,,,,,,,,,,,,,,,,,,,,,,,,,,,,,,,,,,,,,,,,,,,,,,,,,,,,,,,,,,,,,,,,,,,,,,,,,,,,,,,,,,,,,,,,,,,,,,,,,,,,,,,,,,,,,,,,,,,,,,,,,,,,,,,,,,,,,,,
,,607893faf75b80c8b2a14613,2024-02-21_19h27.33.389,kallum_motion_pilot,2023.2.2,Win32,55.55555556,607893faf75b80c8b2a14613,65d6bb0e977760de756971f7,65d6bef63f7d9a4dcc97f335,0.027,0.027,1,31,193,132,1,sevenfive,,,,,,,,,,,,,,,,,,,,,,,,,,,,,,,,,,,,,,,,,,,,,,,,,,,,,,,,,,,,,,,,,,,,,,,,,,,,,,,,,,,,,,,,,,,,,,,,,,,,,,,,,,,,,,,,,,,,,,,,,,,,,,,,,,,,,,,,,
,,607893faf75b80c8b2a14613,2024-02-21_19h27.33.389,kallum_motion_pilot,2023.2.2,Win32,55.55555556,607893faf75b80c8b2a14613,65d6bb0e977760de756971f7,65d6bef63f7d9a4dcc97f335,0.027,0.027,1,32,194,40,1,onetwo,,,,,,,,,,,,,,,,,,,,,,,,,,,,,,,,,,,,,,,,,,,,,,,,,,,,,,,,,,,,,,,,,,,,,,,,,,,,,,,,,,,,,,,,,,,,,,,,,,,,,,,,,,,,,,,,,,,,,,,,,,,,,,,,,,,,,,,,,
,,607893faf75b80c8b2a14613,2024-02-21_19h27.33.389,kallum_motion_pilot,2023.2.2,Win32,55.55555556,607893faf75b80c8b2a14613,65d6bb0e977760de756971f7,65d6bef63f7d9a4dcc97f335,0.027,0.027,1,33,195,78,1,fourtwo,,,,,,,,,,,,,,,,,,,,,,,,,,,,,,,,,,,,,,,,,,,,,,,,,,,,,,,,,,,,,,,,,,,,,,,,,,,,,,,,,,,,,,,,,,,,,,,,,,,,,,,,,,,,,,,,,,,,,,,,,,,,,,,,,,,,,,,,,
,,607893faf75b80c8b2a14613,2024-02-21_19h27.33.389,kallum_motion_pilot,2023.2.2,Win32,55.55555556,607893faf75b80c8b2a14613,65d6bb0e977760de756971f7,65d6bef63f7d9a4dcc97f335,0.027,0.027,1,34,196,66,1,twoone,,,,,,,,,,,,,,,,,,,,,,,,,,,,,,,,,,,,,,,,,,,,,,,,,,,,,,,,,,,,,,,,,,,,,,,,,,,,,,,,,,,,,,,,,,,,,,,,,,,,,,,,,,,,,,,,,,,,,,,,,,,,,,,,,,,,,,,,,
,,607893faf75b80c8b2a14613,2024-02-21_19h27.33.389,kallum_motion_pilot,2023.2.2,Win32,55.55555556,607893faf75b80c8b2a14613,65d6bb0e977760de756971f7,65d6bef63f7d9a4dcc97f335,0.027,0.027,1,35,197,12,1,threeone,,,,,,,,,,,,,,,,,,,,,,,,,,,,,,,,,,,,,,,,,,,,,,,,,,,,,,,,,,,,,,,,,,,,,,,,,,,,,,,,,,,,,,,,,,,,,,,,,,,,,,,,,,,,,,,,,,,,,,,,,,,,,,,,,,,,,,,,,
,,607893faf75b80c8b2a14613,2024-02-21_19h27.33.389,kallum_motion_pilot,2023.2.2,Win32,55.55555556,607893faf75b80c8b2a14613,65d6bb0e977760de756971f7,65d6bef63f7d9a4dcc97f335,0.027,0.027,1,36,198,14,1,fourtwo,,,,,,,,,,,,,,,,,,,,,,,,,,,,,,,,,,,,,,,,,,,,,,,,,,,,,,,,,,,,,,,,,,,,,,,,,,,,,,,,,,,,,,,,,,,,,,,,,,,,,,,,,,,,,,,,,,,,,,,,,,,,,,,,,,,,,,,,,
,,607893faf75b80c8b2a14613,2024-02-21_19h27.33.389,kallum_motion_pilot,2023.2.2,Win32,55.55555556,607893faf75b80c8b2a14613,65d6bb0e977760de756971f7,65d6bef63f7d9a4dcc97f335,0.027,0.027,1,37,199,77,1,threefour,,,,,,,,,,,,,,,,,,,,,,,,,,,,,,,,,,,,,,,,,,,,,,,,,,,,,,,,,,,,,,,,,,,,,,,,,,,,,,,,,,,,,,,,,,,,,,,,,,,,,,,,,,,,,,,,,,,,,,,,,,,,,,,,,,,,,,,,,
,,607893faf75b80c8b2a14613,2024-02-21_19h27.33.389,kallum_motion_pilot,2023.2.2,Win32,55.55555556,607893faf75b80c8b2a14613,65d6bb0e977760de756971f7,65d6bef63f7d9a4dcc97f335,0.027,0.027,1,38,200,160,1,fivesix,,,,,,,,,,,,,,,,,,,,,,,,,,,,,,,,,,,,,,,,,,,,,,,,,,,,,,,,,,,,,,,,,,,,,,,,,,,,,,,,,,,,,,,,,,,,,,,,,,,,,,,,,,,,,,,,,,,,,,,,,,,,,,,,,,,,,,,,,
,,607893faf75b80c8b2a14613,2024-02-21_19h27.33.389,kallum_motion_pilot,2023.2.2,Win32,55.55555556,607893faf75b80c8b2a14613,65d6bb0e977760de756971f7,65d6bef63f7d9a4dcc97f335,0.027,0.027,1,39,201,121,1,fiveseven,,,,,,,,,,,,,,,,,,,,,,,,,,,,,,,,,,,,,,,,,,,,,,,,,,,,,,,,,,,,,,,,,,,,,,,,,,,,,,,,,,,,,,,,,,,,,,,,,,,,,,,,,,,,,,,,,,,,,,,,,,,,,,,,,,,,,,,,,
,,607893faf75b80c8b2a14613,2024-02-21_19h27.33.389,kallum_motion_pilot,2023.2.2,Win32,55.55555556,607893faf75b80c8b2a14613,65d6bb0e977760de756971f7,65d6bef63f7d9a4dcc97f335,0.027,0.027,1,40,202,155,1,sixeight,,,,,,,,,,,,,,,,,,,,,,,,,,,,,,,,,,,,,,,,,,,,,,,,,,,,,,,,,,,,,,,,,,,,,,,,,,,,,,,,,,,,,,,,,,,,,,,,,,,,,,,,,,,,,,,,,,,,,,,,,,,,,,,,,,,,,,,,,
,,607893faf75b80c8b2a14613,2024-02-21_19h27.33.389,kallum_motion_pilot,2023.2.2,Win32,55.55555556,607893faf75b80c8b2a14613,65d6bb0e977760de756971f7,65d6bef63f7d9a4dcc97f335,0.027,0.027,1,41,203,109,1,seveneight,,,,,,,,,,,,,,,,,,,,,,,,,,,,,,,,,,,,,,,,,,,,,,,,,,,,,,,,,,,,,,,,,,,,,,,,,,,,,,,,,,,,,,,,,,,,,,,,,,,,,,,,,,,,,,,,,,,,,,,,,,,,,,,,,,,,,,,,,
,,607893faf75b80c8b2a14613,2024-02-21_19h27.33.389,kallum_motion_pilot,2023.2.2,Win32,55.55555556,607893faf75b80c8b2a14613,65d6bb0e977760de756971f7,65d6bef63f7d9a4dcc97f335,0.027,0.027,1,42,204,74,1,twoone,,,,,,,,,,,,,,,,,,,,,,,,,,,,,,,,,,,,,,,,,,,,,,,,,,,,,,,,,,,,,,,,,,,,,,,,,,,,,,,,,,,,,,,,,,,,,,,,,,,,,,,,,,,,,,,,,,,,,,,,,,,,,,,,,,,,,,,,,
,,607893faf75b80c8b2a14613,2024-02-21_19h27.33.389,kallum_motion_pilot,2023.2.2,Win32,55.55555556,607893faf75b80c8b2a14613,65d6bb0e977760de756971f7,65d6bef63f7d9a4dcc97f335,0.027,0.027,1,43,205,144,1,fivesix,,,,,,,,,,,,,,,,,,,,,,,,,,,,,,,,,,,,,,,,,,,,,,,,,,,,,,,,,,,,,,,,,,,,,,,,,,,,,,,,,,,,,,,,,,,,,,,,,,,,,,,,,,,,,,,,,,,,,,,,,,,,,,,,,,,,,,,,,
,,607893faf75b80c8b2a14613,2024-02-21_19h27.33.389,kallum_motion_pilot,2023.2.2,Win32,55.55555556,607893faf75b80c8b2a14613,65d6bb0e977760de756971f7,65d6bef63f7d9a4dcc97f335,0.027,0.027,1,44,206,46,1,fourtwo,,,,,,,,,,,,,,,,,,,,,,,,,,,,,,,,,,,,,,,,,,,,,,,,,,,,,,,,,,,,,,,,,,,,,,,,,,,,,,,,,,,,,,,,,,,,,,,,,,,,,,,,,,,,,,,,,,,,,,,,,,,,,,,,,,,,,,,,,
,,607893faf75b80c8b2a14613,2024-02-21_19h27.33.389,kallum_motion_pilot,2023.2.2,Win32,55.55555556,607893faf75b80c8b2a14613,65d6bb0e977760de756971f7,65d6bef63f7d9a4dcc97f335,0.027,0.027,1,45,207,136,1,fivesix,,,,,,,,,,,,,,,,,,,,,,,,,,,,,,,,,,,,,,,,,,,,,,,,,,,,,,,,,,,,,,,,,,,,,,,,,,,,,,,,,,,,,,,,,,,,,,,,,,,,,,,,,,,,,,,,,,,,,,,,,,,,,,,,,,,,,,,,,
,,607893faf75b80c8b2a14613,2024-02-21_19h27.33.389,kallum_motion_pilot,2023.2.2,Win32,55.55555556,607893faf75b80c8b2a14613,65d6bb0e977760de756971f7,65d6bef63f7d9a4dcc97f335,0.027,0.027,1,46,208,102,1,eightsix,,,,,,,,,,,,,,,,,,,,,,,,,,,,,,,,,,,,,,,,,,,,,,,,,,,,,,,,,,,,,,,,,,,,,,,,,,,,,,,,,,,,,,,,,,,,,,,,,,,,,,,,,,,,,,,,,,,,,,,,,,,,,,,,,,,,,,,,,
,,607893faf75b80c8b2a14613,2024-02-21_19h27.33.389,kallum_motion_pilot,2023.2.2,Win32,55.55555556,607893faf75b80c8b2a14613,65d6bb0e977760de756971f7,65d6bef63f7d9a4dcc97f335,0.027,0.027,1,47,209,7,1,fourthree,,,,,,,,,,,,,,,,,,,,,,,,,,,,,,,,,,,,,,,,,,,,,,,,,,,,,,,,,,,,,,,,,,,,,,,,,,,,,,,,,,,,,,,,,,,,,,,,,,,,,,,,,,,,,,,,,,,,,,,,,,,,,,,,,,,,,,,,,
,,607893faf75b80c8b2a14613,2024-02-21_19h27.33.389,kallum_motion_pilot,2023.2.2,Win32,55.55555556,607893faf75b80c8b2a14613,65d6bb0e977760de756971f7,65d6bef63f7d9a4dcc97f335,0.027,0.027,1,48,210,2,1,twoone,,,,,,,,,,,,,,,,,,,,,,,,,,,,,,,,,,,,,,,,,,,,,,,,,,,,,,,,,,,,,,,,,,,,,,,,,,,,,,,,,,,,,,,,,,,,,,,,,,,,,,,,,,,,,,,,,,,,,,,,,,,,,,,,,,,,,,,,,
,,607893faf75b80c8b2a14613,2024-02-21_19h27.33.389,kallum_motion_pilot,2023.2.2,Win32,55.55555556,607893faf75b80c8b2a14613,65d6bb0e977760de756971f7,65d6bef63f7d9a4dcc97f335,0.027,0.027,1,49,211,57,1,onethree,,,,,,,,,,,,,,,,,,,,,,,,,,,,,,,,,,,,,,,,,,,,,,,,,,,,,,,,,,,,,,,,,,,,,,,,,,,,,,,,,,,,,,,,,,,,,,,,,,,,,,,,,,,,,,,,,,,,,,,,,,,,,,,,,,,,,,,,,
,,607893faf75b80c8b2a14613,2024-02-21_19h27.33.389,kallum_motion_pilot,2023.2.2,Win32,55.55555556,607893faf75b80c8b2a14613,65d6bb0e977760de756971f7,65d6bef63f7d9a4dcc97f335,0.027,0.027,1,50,212,73,1,onethree,,,,,,,,,,,,,,,,,,,,,,,,,,,,,,,,,,,,,,,,,,,,,,,,,,,,,,,,,,,,,,,,,,,,,,,,,,,,,,,,,,,,,,,,,,,,,,,,,,,,,,,,,,,,,,,,,,,,,,,,,,,,,,,,,,,,,,,,,
,,607893faf75b80c8b2a14613,2024-02-21_19h27.33.389,kallum_motion_pilot,2023.2.2,Win32,55.55555556,607893faf75b80c8b2a14613,65d6bb0e977760de756971f7,65d6bef63f7d9a4dcc97f335,0.027,0.027,1,51,213,38,1,fourtwo,,,,,,,,,,,,,,,,,,,,,,,,,,,,,,,,,,,,,,,,,,,,,,,,,,,,,,,,,,,,,,,,,,,,,,,,,,,,,,,,,,,,,,,,,,,,,,,,,,,,,,,,,,,,,,,,,,,,,,,,,,,,,,,,,,,,,,,,,
,,607893faf75b80c8b2a14613,2024-02-21_19h27.33.389,kallum_motion_pilot,2023.2.2,Win32,55.55555556,607893faf75b80c8b2a14613,65d6bb0e977760de756971f7,65d6bef63f7d9a4dcc97f335,0.027,0.027,1,52,214,1,1,onethree,,,,,,,,,,,,,,,,,,,,,,,,,,,,,,,,,,,,,,,,,,,,,,,,,,,,,,,,,,,,,,,,,,,,,,,,,,,,,,,,,,,,,,,,,,,,,,,,,,,,,,,,,,,,,,,,,,,,,,,,,,,,,,,,,,,,,,,,,
,,607893faf75b80c8b2a14613,2024-02-21_19h27.33.389,kallum_motion_pilot,2023.2.2,Win32,55.55555556,607893faf75b80c8b2a14613,65d6bb0e977760de756971f7,65d6bef63f7d9a4dcc97f335,0.027,0.027,1,53,215,25,1,onethree,,,,,,,,,,,,,,,,,,,,,,,,,,,,,,,,,,,,,,,,,,,,,,,,,,,,,,,,,,,,,,,,,,,,,,,,,,,,,,,,,,,,,,,,,,,,,,,,,,,,,,,,,,,,,,,,,,,,,,,,,,,,,,,,,,,,,,,,,
,,607893faf75b80c8b2a14613,2024-02-21_19h27.33.389,kallum_motion_pilot,2023.2.2,Win32,55.55555556,607893faf75b80c8b2a14613,65d6bb0e977760de756971f7,65d6bef63f7d9a4dcc97f335,0.027,0.028,1,54,216,97,1,fiveseven,,,,,,,,,,,,,,,,,,,,,,,,,,,,,,,,,,,,,,,,,,,,,,,,,,,,,,,,,,,,,,,,,,,,,,,,,,,,,,,,,,,,,,,,,,,,,,,,,,,,,,,,,,,,,,,,,,,,,,,,,,,,,,,,,,,,,,,,,
,,607893faf75b80c8b2a14613,2024-02-21_19h27.33.389,kallum_motion_pilot,2023.2.2,Win32,55.55555556,607893faf75b80c8b2a14613,65d6bb0e977760de756971f7,65d6bef63f7d9a4dcc97f335,0.028,0.028,1,55,217,79,1,eightseven,,,,,,,,,,,,,,,,,,,,,,,,,,,,,,,,,,,,,,,,,,,,,,,,,,,,,,,,,,,,,,,,,,,,,,,,,,,,,,,,,,,,,,,,,,,,,,,,,,,,,,,,,,,,,,,,,,,,,,,,,,,,,,,,,,,,,,,,,
,,607893faf75b80c8b2a14613,2024-02-21_19h27.33.389,kallum_motion_pilot,2023.2.2,Win32,55.55555556,607893faf75b80c8b2a14613,65d6bb0e977760de756971f7,65d6bef63f7d9a4dcc97f335,0.028,0.028,1,56,218,110,1,eightsix,,,,,,,,,,,,,,,,,,,,,,,,,,,,,,,,,,,,,,,,,,,,,,,,,,,,,,,,,,,,,,,,,,,,,,,,,,,,,,,,,,,,,,,,,,,,,,,,,,,,,,,,,,,,,,,,,,,,,,,,,,,,,,,,,,,,,,,,,
,,607893faf75b80c8b2a14613,2024-02-21_19h27.33.389,kallum_motion_pilot,2023.2.2,Win32,55.55555556,607893faf75b80c8b2a14613,65d6bb0e977760de756971f7,65d6bef63f7d9a4dcc97f335,0.028,0.028,1,57,219,33,1,onethree,,,,,,,,,,,,,,,,,,,,,,,,,,,,,,,,,,,,,,,,,,,,,,,,,,,,,,,,,,,,,,,,,,,,,,,,,,,,,,,,,,,,,,,,,,,,,,,,,,,,,,,,,,,,,,,,,,,,,,,,,,,,,,,,,,,,,,,,,
,,607893faf75b80c8b2a14613,2024-02-21_19h27.33.389,kallum_motion_pilot,2023.2.2,Win32,55.55555556,607893faf75b80c8b2a14613,65d6bb0e977760de756971f7,65d6bef63f7d9a4dcc97f335,0.028,0.028,1,58,220,87,1,eightseven,,,,,,,,,,,,,,,,,,,,,,,,,,,,,,,,,,,,,,,,,,,,,,,,,,,,,,,,,,,,,,,,,,,,,,,,,,,,,,,,,,,,,,,,,,,,,,,,,,,,,,,,,,,,,,,,,,,,,,,,,,,,,,,,,,,,,,,,,
,,607893faf75b80c8b2a14613,2024-02-21_19h27.33.389,kallum_motion_pilot,2023.2.2,Win32,55.55555556,607893faf75b80c8b2a14613,65d6bb0e977760de756971f7,65d6bef63f7d9a4dcc97f335,0.028,0.028,1,59,221,67,1,twofour,,,,,,,,,,,,,,,,,,,,,,,,,,,,,,,,,,,,,,,,,,,,,,,,,,,,,,,,,,,,,,,,,,,,,,,,,,,,,,,,,,,,,,,,,,,,,,,,,,,,,,,,,,,,,,,,,,,,,,,,,,,,,,,,,,,,,,,,,
,,607893faf75b80c8b2a14613,2024-02-21_19h27.33.389,kallum_motion_pilot,2023.2.2,Win32,55.55555556,607893faf75b80c8b2a14613,65d6bb0e977760de756971f7,65d6bef63f7d9a4dcc97f335,0.029,0.029,1,60,222,82,1,sixfive,,,,,,,,,,,,,,,,,,,,,,,,,,,,,,,,,,,,,,,,,,,,,,,,,,,,,,,,,,,,,,,,,,,,,,,,,,,,,,,,,,,,,,,,,,,,,,,,,,,,,,,,,,,,,,,,,,,,,,,,,,,,,,,,,,,,,,,,,
,,607893faf75b80c8b2a14613,2024-02-21_19h27.33.389,kallum_motion_pilot,2023.2.2,Win32,55.55555556,607893faf75b80c8b2a14613,65d6bb0e977760de756971f7,65d6bef63f7d9a4dcc97f335,0.029,0.029,1,61,223,91,1,sixeight,,,,,,,,,,,,,,,,,,,,,,,,,,,,,,,,,,,,,,,,,,,,,,,,,,,,,,,,,,,,,,,,,,,,,,,,,,,,,,,,,,,,,,,,,,,,,,,,,,,,,,,,,,,,,,,,,,,,,,,,,,,,,,,,,,,,,,,,,
,,607893faf75b80c8b2a14613,2024-02-21_19h27.33.389,kallum_motion_pilot,2023.2.2,Win32,55.55555556,607893faf75b80c8b2a14613,65d6bb0e977760de756971f7,65d6bef63f7d9a4dcc97f335,0.029,0.029,1,62,224,8,1,onetwo,,,,,,,,,,,,,,,,,,,,,,,,,,,,,,,,,,,,,,,,,,,,,,,,,,,,,,,,,,,,,,,,,,,,,,,,,,,,,,,,,,,,,,,,,,,,,,,,,,,,,,,,,,,,,,,,,,,,,,,,,,,,,,,,,,,,,,,,,
,,607893faf75b80c8b2a14613,2024-02-21_19h27.33.389,kallum_motion_pilot,2023.2.2,Win32,55.55555556,607893faf75b80c8b2a14613,65d6bb0e977760de756971f7,65d6bef63f7d9a4dcc97f335,0.029,0.029,1,63,225,51,1,twofour,,,,,,,,,,,,,,,,,,,,,,,,,,,,,,,,,,,,,,,,,,,,,,,,,,,,,,,,,,,,,,,,,,,,,,,,,,,,,,,,,,,,,,,,,,,,,,,,,,,,,,,,,,,,,,,,,,,,,,,,,,,,,,,,,,,,,,,,,
,,607893faf75b80c8b2a14613,2024-02-21_19h27.33.389,kallum_motion_pilot,2023.2.2,Win32,55.55555556,607893faf75b80c8b2a14613,65d6bb0e977760de756971f7,65d6bef63f7d9a4dcc97f335,0.029,0.029,1,64,226,70,1,fourtwo,,,,,,,,,,,,,,,,,,,,,,,,,,,,,,,,,,,,,,,,,,,,,,,,,,,,,,,,,,,,,,,,,,,,,,,,,,,,,,,,,,,,,,,,,,,,,,,,,,,,,,,,,,,,,,,,,,,,,,,,,,,,,,,,,,,,,,,,,
,,607893faf75b80c8b2a14613,2024-02-21_19h27.33.389,kallum_motion_pilot,2023.2.2,Win32,55.55555556,607893faf75b80c8b2a14613,65d6bb0e977760de756971f7,65d6bef63f7d9a4dcc97f335,0.029,0.029,1,65,227,139,1,sixeight,,,,,,,,,,,,,,,,,,,,,,,,,,,,,,,,,,,,,,,,,,,,,,,,,,,,,,,,,,,,,,,,,,,,,,,,,,,,,,,,,,,,,,,,,,,,,,,,,,,,,,,,,,,,,,,,,,,,,,,,,,,,,,,,,,,,,,,,,
,,607893faf75b80c8b2a14613,2024-02-21_19h27.33.389,kallum_motion_pilot,2023.2.2,Win32,55.55555556,607893faf75b80c8b2a14613,65d6bb0e977760de756971f7,65d6bef63f7d9a4dcc97f335,0.029,0.029,1,66,228,18,1,twoone,,,,,,,,,,,,,,,,,,,,,,,,,,,,,,,,,,,,,,,,,,,,,,,,,,,,,,,,,,,,,,,,,,,,,,,,,,,,,,,,,,,,,,,,,,,,,,,,,,,,,,,,,,,,,,,,,,,,,,,,,,,,,,,,,,,,,,,,,
,,607893faf75b80c8b2a14613,2024-02-21_19h27.33.389,kallum_motion_pilot,2023.2.2,Win32,55.55555556,607893faf75b80c8b2a14613,65d6bb0e977760de756971f7,65d6bef63f7d9a4dcc97f335,0.029,0.029,1,67,229,31,1,fourthree,,,,,,,,,,,,,,,,,,,,,,,,,,,,,,,,,,,,,,,,,,,,,,,,,,,,,,,,,,,,,,,,,,,,,,,,,,,,,,,,,,,,,,,,,,,,,,,,,,,,,,,,,,,,,,,,,,,,,,,,,,,,,,,,,,,,,,,,,
,,607893faf75b80c8b2a14613,2024-02-21_19h27.33.389,kallum_motion_pilot,2023.2.2,Win32,55.55555556,607893faf75b80c8b2a14613,65d6bb0e977760de756971f7,65d6bef63f7d9a4dcc97f335,0.029,0.029,1,68,230,37,1,threefour,,,,,,,,,,,,,,,,,,,,,,,,,,,,,,,,,,,,,,,,,,,,,,,,,,,,,,,,,,,,,,,,,,,,,,,,,,,,,,,,,,,,,,,,,,,,,,,,,,,,,,,,,,,,,,,,,,,,,,,,,,,,,,,,,,,,,,,,,
,,607893faf75b80c8b2a14613,2024-02-21_19h27.33.389,kallum_motion_pilot,2023.2.2,Win32,55.55555556,607893faf75b80c8b2a14613,65d6bb0e977760de756971f7,65d6bef63f7d9a4dcc97f335,0.029,0.029,1,69,231,71,1,fourthree,,,,,,,,,,,,,,,,,,,,,,,,,,,,,,,,,,,,,,,,,,,,,,,,,,,,,,,,,,,,,,,,,,,,,,,,,,,,,,,,,,,,,,,,,,,,,,,,,,,,,,,,,,,,,,,,,,,,,,,,,,,,,,,,,,,,,,,,,
,,607893faf75b80c8b2a14613,2024-02-21_19h27.33.389,kallum_motion_pilot,2023.2.2,Win32,55.55555556,607893faf75b80c8b2a14613,65d6bb0e977760de756971f7,65d6bef63f7d9a4dcc97f335,0.029,0.029,1,70,232,96,1,fivesix,,,,,,,,,,,,,,,,,,,,,,,,,,,,,,,,,,,,,,,,,,,,,,,,,,,,,,,,,,,,,,,,,,,,,,,,,,,,,,,,,,,,,,,,,,,,,,,,,,,,,,,,,,,,,,,,,,,,,,,,,,,,,,,,,,,,,,,,,
,,607893faf75b80c8b2a14613,2024-02-21_19h27.33.389,kallum_motion_pilot,2023.2.2,Win32,55.55555556,607893faf75b80c8b2a14613,65d6bb0e977760de756971f7,65d6bef63f7d9a4dcc97f335,0.029,0.029,1,71,233,131,1,sixeight,,,,,,,,,,,,,,,,,,,,,,,,,,,,,,,,,,,,,,,,,,,,,,,,,,,,,,,,,,,,,,,,,,,,,,,,,,,,,,,,,,,,,,,,,,,,,,,,,,,,,,,,,,,,,,,,,,,,,,,,,,,,,,,,,,,,,,,,,
,,607893faf75b80c8b2a14613,2024-02-21_19h27.33.389,kallum_motion_pilot,2023.2.2,Win32,55.55555556,607893faf75b80c8b2a14613,65d6bb0e977760de756971f7,65d6bef63f7d9a4dcc97f335,0.029,0.029,1,72,234,103,1,eightseven,,,,,,,,,,,,,,,,,,,,,,,,,,,,,,,,,,,,,,,,,,,,,,,,,,,,,,,,,,,,,,,,,,,,,,,,,,,,,,,,,,,,,,,,,,,,,,,,,,,,,,,,,,,,,,,,,,,,,,,,,,,,,,,,,,,,,,,,,
,,607893faf75b80c8b2a14613,2024-02-21_19h27.33.389,kallum_motion_pilot,2023.2.2,Win32,55.55555556,607893faf75b80c8b2a14613,65d6bb0e977760de756971f7,65d6bef63f7d9a4dcc97f335,0.029,0.029,1,73,235,75,1,twofour,,,,,,,,,,,,,,,,,,,,,,,,,,,,,,,,,,,,,,,,,,,,,,,,,,,,,,,,,,,,,,,,,,,,,,,,,,,,,,,,,,,,,,,,,,,,,,,,,,,,,,,,,,,,,,,,,,,,,,,,,,,,,,,,,,,,,,,,,
,,607893faf75b80c8b2a14613,2024-02-21_19h27.33.389,kallum_motion_pilot,2023.2.2,Win32,55.55555556,607893faf75b80c8b2a14613,65d6bb0e977760de756971f7,65d6bef63f7d9a4dcc97f335,0.029,0.029,1,74,236,59,1,twofour,,,,,,,,,,,,,,,,,,,,,,,,,,,,,,,,,,,,,,,,,,,,,,,,,,,,,,,,,,,,,,,,,,,,,,,,,,,,,,,,,,,,,,,,,,,,,,,,,,,,,,,,,,,,,,,,,,,,,,,,,,,,,,,,,,,,,,,,,
,,607893faf75b80c8b2a14613,2024-02-21_19h27.33.389,kallum_motion_pilot,2023.2.2,Win32,55.55555556,607893faf75b80c8b2a14613,65d6bb0e977760de756971f7,65d6bef63f7d9a4dcc97f335,0.029,0.03,1,75,237,81,1,fiveseven,,,,,,,,,,,,,,,,,,,,,,,,,,,,,,,,,,,,,,,,,,,,,,,,,,,,,,,,,,,,,,,,,,,,,,,,,,,,,,,,,,,,,,,,,,,,,,,,,,,,,,,,,,,,,,,,,,,,,,,,,,,,,,,,,,,,,,,,,
,,607893faf75b80c8b2a14613,2024-02-21_19h27.33.389,kallum_motion_pilot,2023.2.2,Win32,55.55555556,607893faf75b80c8b2a14613,65d6bb0e977760de756971f7,65d6bef63f7d9a4dcc97f335,0.03,0.03,1,76,238,153,1,fiveseven,,,,,,,,,,,,,,,,,,,,,,,,,,,,,,,,,,,,,,,,,,,,,,,,,,,,,,,,,,,,,,,,,,,,,,,,,,,,,,,,,,,,,,,,,,,,,,,,,,,,,,,,,,,,,,,,,,,,,,,,,,,,,,,,,,,,,,,,,
,,607893faf75b80c8b2a14613,2024-02-21_19h27.33.389,kallum_motion_pilot,2023.2.2,Win32,55.55555556,607893faf75b80c8b2a14613,65d6bb0e977760de756971f7,65d6bef63f7d9a4dcc97f335,0.03,0.03,1,77,239,68,1,threeone,,,,,,,,,,,,,,,,,,,,,,,,,,,,,,,,,,,,,,,,,,,,,,,,,,,,,,,,,,,,,,,,,,,,,,,,,,,,,,,,,,,,,,,,,,,,,,,,,,,,,,,,,,,,,,,,,,,,,,,,,,,,,,,,,,,,,,,,,
,,607893faf75b80c8b2a14613,2024-02-21_19h27.33.389,kallum_motion_pilot,2023.2.2,Win32,55.55555556,607893faf75b80c8b2a14613,65d6bb0e977760de756971f7,65d6bef63f7d9a4dcc97f335,0.03,0.03,1,78,240,47,1,fourthree,,,,,,,,,,,,,,,,,,,,,,,,,,,,,,,,,,,,,,,,,,,,,,,,,,,,,,,,,,,,,,,,,,,,,,,,,,,,,,,,,,,,,,,,,,,,,,,,,,,,,,,,,,,,,,,,,,,,,,,,,,,,,,,,,,,,,,,,,
,,607893faf75b80c8b2a14613,2024-02-21_19h27.33.389,kallum_motion_pilot,2023.2.2,Win32,55.55555556,607893faf75b80c8b2a14613,65d6bb0e977760de756971f7,65d6bef63f7d9a4dcc97f335,0.03,0.03,1,79,241,41,1,onethree,,,,,,,,,,,,,,,,,,,,,,,,,,,,,,,,,,,,,,,,,,,,,,,,,,,,,,,,,,,,,,,,,,,,,,,,,,,,,,,,,,,,,,,,,,,,,,,,,,,,,,,,,,,,,,,,,,,,,,,,,,,,,,,,,,,,,,,,,
,,607893faf75b80c8b2a14613,2024-02-21_19h27.33.389,kallum_motion_pilot,2023.2.2,Win32,55.55555556,607893faf75b80c8b2a14613,65d6bb0e977760de756971f7,65d6bef63f7d9a4dcc97f335,0.03,0.03,1,80,242,122,1,sixfive,,,,,,,,,,,,,,,,,,,,,,,,,,,,,,,,,,,,,,,,,,,,,,,,,,,,,,,,,,,,,,,,,,,,,,,,,,,,,,,,,,,,,,,,,,,,,,,,,,,,,,,,,,,,,,,,,,,,,,,,,,,,,,,,,,,,,,,,,
,,607893faf75b80c8b2a14613,2024-02-21_19h27.33.389,kallum_motion_pilot,2023.2.2,Win32,55.55555556,607893faf75b80c8b2a14613,65d6bb0e977760de756971f7,65d6bef63f7d9a4dcc97f335,0.03,0.03,1,81,243,116,1,sevenfive,,,,,,,,,,,,,,,,,,,,,,,,,,,,,,,,,,,,,,,,,,,,,,,,,,,,,,,,,,,,,,,,,,,,,,,,,,,,,,,,,,,,,,,,,,,,,,,,,,,,,,,,,,,,,,,,,,,,,,,,,,,,,,,,,,,,,,,,,
,,607893faf75b80c8b2a14613,2024-02-21_19h27.33.389,kallum_motion_pilot,2023.2.2,Win32,55.55555556,607893faf75b80c8b2a14613,65d6bb0e977760de756971f7,65d6bef63f7d9a4dcc97f335,0.03,0.03,1,82,244,13,1,threefour,,,,,,,,,,,,,,,,,,,,,,,,,,,,,,,,,,,,,,,,,,,,,,,,,,,,,,,,,,,,,,,,,,,,,,,,,,,,,,,,,,,,,,,,,,,,,,,,,,,,,,,,,,,,,,,,,,,,,,,,,,,,,,,,,,,,,,,,,
,,607893faf75b80c8b2a14613,2024-02-21_19h27.33.389,kallum_motion_pilot,2023.2.2,Win32,55.55555556,607893faf75b80c8b2a14613,65d6bb0e977760de756971f7,65d6bef63f7d9a4dcc97f335,0.03,0.03,1,83,245,119,1,eightseven,,,,,,,,,,,,,,,,,,,,,,,,,,,,,,,,,,,,,,,,,,,,,,,,,,,,,,,,,,,,,,,,,,,,,,,,,,,,,,,,,,,,,,,,,,,,,,,,,,,,,,,,,,,,,,,,,,,,,,,,,,,,,,,,,,,,,,,,,
,,607893faf75b80c8b2a14613,2024-02-21_19h27.33.389,kallum_motion_pilot,2023.2.2,Win32,55.55555556,607893faf75b80c8b2a14613,65d6bb0e977760de756971f7,65d6bef63f7d9a4dcc97f335,0.03,0.03,1,84,246,99,1,sixeight,,,,,,,,,,,,,,,,,,,,,,,,,,,,,,,,,,,,,,,,,,,,,,,,,,,,,,,,,,,,,,,,,,,,,,,,,,,,,,,,,,,,,,,,,,,,,,,,,,,,,,,,,,,,,,,,,,,,,,,,,,,,,,,,,,,,,,,,,
,,607893faf75b80c8b2a14613,2024-02-21_19h27.33.389,kallum_motion_pilot,2023.2.2,Win32,55.55555556,607893faf75b80c8b2a14613,65d6bb0e977760de756971f7,65d6bef63f7d9a4dcc97f335,0.03,0.03,1,85,247,58,1,twoone,,,,,,,,,,,,,,,,,,,,,,,,,,,,,,,,,,,,,,,,,,,,,,,,,,,,,,,,,,,,,,,,,,,,,,,,,,,,,,,,,,,,,,,,,,,,,,,,,,,,,,,,,,,,,,,,,,,,,,,,,,,,,,,,,,,,,,,,,
,,607893faf75b80c8b2a14613,2024-02-21_19h27.33.389,kallum_motion_pilot,2023.2.2,Win32,55.55555556,607893faf75b80c8b2a14613,65d6bb0e977760de756971f7,65d6bef63f7d9a4dcc97f335,0.03,0.03,1,86,248,142,1,eightsix,,,,,,,,,,,,,,,,,,,,,,,,,,,,,,,,,,,,,,,,,,,,,,,,,,,,,,,,,,,,,,,,,,,,,,,,,,,,,,,,,,,,,,,,,,,,,,,,,,,,,,,,,,,,,,,,,,,,,,,,,,,,,,,,,,,,,,,,,
,,607893faf75b80c8b2a14613,2024-02-21_19h27.33.389,kallum_motion_pilot,2023.2.2,Win32,55.55555556,607893faf75b80c8b2a14613,65d6bb0e977760de756971f7,65d6bef63f7d9a4dcc97f335,0.03,0.03,1,87,249,10,1,twoone,,,,,,,,,,,,,,,,,,,,,,,,,,,,,,,,,,,,,,,,,,,,,,,,,,,,,,,,,,,,,,,,,,,,,,,,,,,,,,,,,,,,,,,,,,,,,,,,,,,,,,,,,,,,,,,,,,,,,,,,,,,,,,,,,,,,,,,,,
,,607893faf75b80c8b2a14613,2024-02-21_19h27.33.389,kallum_motion_pilot,2023.2.2,Win32,55.55555556,607893faf75b80c8b2a14613,65d6bb0e977760de756971f7,65d6bef63f7d9a4dcc97f335,0.03,0.031,1,88,250,148,1,sevenfive,,,,,,,,,,,,,,,,,,,,,,,,,,,,,,,,,,,,,,,,,,,,,,,,,,,,,,,,,,,,,,,,,,,,,,,,,,,,,,,,,,,,,,,,,,,,,,,,,,,,,,,,,,,,,,,,,,,,,,,,,,,,,,,,,,,,,,,,,
,,607893faf75b80c8b2a14613,2024-02-21_19h27.33.389,kallum_motion_pilot,2023.2.2,Win32,55.55555556,607893faf75b80c8b2a14613,65d6bb0e977760de756971f7,65d6bef63f7d9a4dcc97f335,0.031,0.031,1,89,251,6,1,fourtwo,,,,,,,,,,,,,,,,,,,,,,,,,,,,,,,,,,,,,,,,,,,,,,,,,,,,,,,,,,,,,,,,,,,,,,,,,,,,,,,,,,,,,,,,,,,,,,,,,,,,,,,,,,,,,,,,,,,,,,,,,,,,,,,,,,,,,,,,,
,,607893faf75b80c8b2a14613,2024-02-21_19h27.33.389,kallum_motion_pilot,2023.2.2,Win32,55.55555556,607893faf75b80c8b2a14613,65d6bb0e977760de756971f7,65d6bef63f7d9a4dcc97f335,0.031,0.031,1,90,252,117,1,seveneight,,,,,,,,,,,,,,,,,,,,,,,,,,,,,,,,,,,,,,,,,,,,,,,,,,,,,,,,,,,,,,,,,,,,,,,,,,,,,,,,,,,,,,,,,,,,,,,,,,,,,,,,,,,,,,,,,,,,,,,,,,,,,,,,,,,,,,,,,
,,607893faf75b80c8b2a14613,2024-02-21_19h27.33.389,kallum_motion_pilot,2023.2.2,Win32,55.55555556,607893faf75b80c8b2a14613,65d6bb0e977760de756971f7,65d6bef63f7d9a4dcc97f335,0.031,0.031,1,91,253,130,1,sixfive,,,,,,,,,,,,,,,,,,,,,,,,,,,,,,,,,,,,,,,,,,,,,,,,,,,,,,,,,,,,,,,,,,,,,,,,,,,,,,,,,,,,,,,,,,,,,,,,,,,,,,,,,,,,,,,,,,,,,,,,,,,,,,,,,,,,,,,,,
,,607893faf75b80c8b2a14613,2024-02-21_19h27.33.389,kallum_motion_pilot,2023.2.2,Win32,55.55555556,607893faf75b80c8b2a14613,65d6bb0e977760de756971f7,65d6bef63f7d9a4dcc97f335,0.031,0.031,1,92,254,150,1,eightsix,,,,,,,,,,,,,,,,,,,,,,,,,,,,,,,,,,,,,,,,,,,,,,,,,,,,,,,,,,,,,,,,,,,,,,,,,,,,,,,,,,,,,,,,,,,,,,,,,,,,,,,,,,,,,,,,,,,,,,,,,,,,,,,,,,,,,,,,,
,,607893faf75b80c8b2a14613,2024-02-21_19h27.33.389,kallum_motion_pilot,2023.2.2,Win32,55.55555556,607893faf75b80c8b2a14613,65d6bb0e977760de756971f7,65d6bef63f7d9a4dcc97f335,0.031,0.031,1,93,255,76,1,threeone,,,,,,,,,,,,,,,,,,,,,,,,,,,,,,,,,,,,,,,,,,,,,,,,,,,,,,,,,,,,,,,,,,,,,,,,,,,,,,,,,,,,,,,,,,,,,,,,,,,,,,,,,,,,,,,,,,,,,,,,,,,,,,,,,,,,,,,,,
,,607893faf75b80c8b2a14613,2024-02-21_19h27.33.389,kallum_motion_pilot,2023.2.2,Win32,55.55555556,607893faf75b80c8b2a14613,65d6bb0e977760de756971f7,65d6bef63f7d9a4dcc97f335,0.031,0.031,1,94,256,126,1,eightsix,,,,,,,,,,,,,,,,,,,,,,,,,,,,,,,,,,,,,,,,,,,,,,,,,,,,,,,,,,,,,,,,,,,,,,,,,,,,,,,,,,,,,,,,,,,,,,,,,,,,,,,,,,,,,,,,,,,,,,,,,,,,,,,,,,,,,,,,,
,,607893faf75b80c8b2a14613,2024-02-21_19h27.33.389,kallum_motion_pilot,2023.2.2,Win32,55.55555556,607893faf75b80c8b2a14613,65d6bb0e977760de756971f7,65d6bef63f7d9a4dcc97f335,0.031,0.031,1,95,257,149,1,seveneight,,,,,,,,,,,,,,,,,,,,,,,,,,,,,,,,,,,,,,,,,,,,,,,,,,,,,,,,,,,,,,,,,,,,,,,,,,,,,,,,,,,,,,,,,,,,,,,,,,,,,,,,,,,,,,,,,,,,,,,,,,,,,,,,,,,,,,,,,
,,607893faf75b80c8b2a14613,2024-02-21_19h27.33.389,kallum_motion_pilot,2023.2.2,Win32,55.55555556,607893faf75b80c8b2a14613,65d6bb0e977760de756971f7,65d6bef63f7d9a4dcc97f335,0.031,0.031,1,96,258,61,1,threefour,,,,,,,,,,,,,,,,,,,,,,,,,,,,,,,,,,,,,,,,,,,,,,,,,,,,,,,,,,,,,,,,,,,,,,,,,,,,,,,,,,,,,,,,,,,,,,,,,,,,,,,,,,,,,,,,,,,,,,,,,,,,,,,,,,,,,,,,,
,,607893faf75b80c8b2a14613,2024-02-21_19h27.33.389,kallum_motion_pilot,2023.2.2,Win32,55.55555556,607893faf75b80c8b2a14613,65d6bb0e977760de756971f7,65d6bef63f7d9a4dcc97f335,0.031,0.031,1,97,259,86,1,eightsix,,,,,,,,,,,,,,,,,,,,,,,,,,,,,,,,,,,,,,,,,,,,,,,,,,,,,,,,,,,,,,,,,,,,,,,,,,,,,,,,,,,,,,,,,,,,,,,,,,,,,,,,,,,,,,,,,,,,,,,,,,,,,,,,,,,,,,,,,
,,607893faf75b80c8b2a14613,2024-02-21_19h27.33.389,kallum_motion_pilot,2023.2.2,Win32,55.55555556,607893faf75b80c8b2a14613,65d6bb0e977760de756971f7,65d6bef63f7d9a4dcc97f335,0.031,0.031,1,98,260,90,1,sixfive,,,,,,,,,,,,,,,,,,,,,,,,,,,,,,,,,,,,,,,,,,,,,,,,,,,,,,,,,,,,,,,,,,,,,,,,,,,,,,,,,,,,,,,,,,,,,,,,,,,,,,,,,,,,,,,,,,,,,,,,,,,,,,,,,,,,,,,,,
,,607893faf75b80c8b2a14613,2024-02-21_19h27.33.389,kallum_motion_pilot,2023.2.2,Win32,55.55555556,607893faf75b80c8b2a14613,65d6bb0e977760de756971f7,65d6bef63f7d9a4dcc97f335,0.031,0.031,1,99,261,62,1,fourtwo,,,,,,,,,,,,,,,,,,,,,,,,,,,,,,,,,,,,,,,,,,,,,,,,,,,,,,,,,,,,,,,,,,,,,,,,,,,,,,,,,,,,,,,,,,,,,,,,,,,,,,,,,,,,,,,,,,,,,,,,,,,,,,,,,,,,,,,,,
,,607893faf75b80c8b2a14613,2024-02-21_19h27.33.389,kallum_motion_pilot,2023.2.2,Win32,55.55555556,607893faf75b80c8b2a14613,65d6bb0e977760de756971f7,65d6bef63f7d9a4dcc97f335,0.031,0.031,1,100,262,156,1,sevenfive,,,,,,,,,,,,,,,,,,,,,,,,,,,,,,,,,,,,,,,,,,,,,,,,,,,,,,,,,,,,,,,,,,,,,,,,,,,,,,,,,,,,,,,,,,,,,,,,,,,,,,,,,,,,,,,,,,,,,,,,,,,,,,,,,,,,,,,,,
,,607893faf75b80c8b2a14613,2024-02-21_19h27.33.389,kallum_motion_pilot,2023.2.2,Win32,55.55555556,607893faf75b80c8b2a14613,65d6bb0e977760de756971f7,65d6bef63f7d9a4dcc97f335,0.031,0.031,1,101,263,80,1,fivesix,,,,,,,,,,,,,,,,,,,,,,,,,,,,,,,,,,,,,,,,,,,,,,,,,,,,,,,,,,,,,,,,,,,,,,,,,,,,,,,,,,,,,,,,,,,,,,,,,,,,,,,,,,,,,,,,,,,,,,,,,,,,,,,,,,,,,,,,,
,,607893faf75b80c8b2a14613,2024-02-21_19h27.33.389,kallum_motion_pilot,2023.2.2,Win32,55.55555556,607893faf75b80c8b2a14613,65d6bb0e977760de756971f7,65d6bef63f7d9a4dcc97f335,0.032,0.032,1,102,264,111,1,eightseven,,,,,,,,,,,,,,,,,,,,,,,,,,,,,,,,,,,,,,,,,,,,,,,,,,,,,,,,,,,,,,,,,,,,,,,,,,,,,,,,,,,,,,,,,,,,,,,,,,,,,,,,,,,,,,,,,,,,,,,,,,,,,,,,,,,,,,,,,
,,607893faf75b80c8b2a14613,2024-02-21_19h27.33.389,kallum_motion_pilot,2023.2.2,Win32,55.55555556,607893faf75b80c8b2a14613,65d6bb0e977760de756971f7,65d6bef63f7d9a4dcc97f335,0.032,0.032,1,103,265,84,1,sevenfive,,,,,,,,,,,,,,,,,,,,,,,,,,,,,,,,,,,,,,,,,,,,,,,,,,,,,,,,,,,,,,,,,,,,,,,,,,,,,,,,,,,,,,,,,,,,,,,,,,,,,,,,,,,,,,,,,,,,,,,,,,,,,,,,,,,,,,,,,
,,607893faf75b80c8b2a14613,2024-02-21_19h27.33.389,kallum_motion_pilot,2023.2.2,Win32,55.55555556,607893faf75b80c8b2a14613,65d6bb0e977760de756971f7,65d6bef63f7d9a4dcc97f335,0.032,0.032,1,104,266,53,1,threefour,,,,,,,,,,,,,,,,,,,,,,,,,,,,,,,,,,,,,,,,,,,,,,,,,,,,,,,,,,,,,,,,,,,,,,,,,,,,,,,,,,,,,,,,,,,,,,,,,,,,,,,,,,,,,,,,,,,,,,,,,,,,,,,,,,,,,,,,,
,,607893faf75b80c8b2a14613,2024-02-21_19h27.33.389,kallum_motion_pilot,2023.2.2,Win32,55.55555556,607893faf75b80c8b2a14613,65d6bb0e977760de756971f7,65d6bef63f7d9a4dcc97f335,0.032,0.032,1,105,267,138,1,sixfive,,,,,,,,,,,,,,,,,,,,,,,,,,,,,,,,,,,,,,,,,,,,,,,,,,,,,,,,,,,,,,,,,,,,,,,,,,,,,,,,,,,,,,,,,,,,,,,,,,,,,,,,,,,,,,,,,,,,,,,,,,,,,,,,,,,,,,,,,
,,607893faf75b80c8b2a14613,2024-02-21_19h27.33.389,kallum_motion_pilot,2023.2.2,Win32,55.55555556,607893faf75b80c8b2a14613,65d6bb0e977760de756971f7,65d6bef63f7d9a4dcc97f335,0.032,0.032,1,106,268,72,1,onetwo,,,,,,,,,,,,,,,,,,,,,,,,,,,,,,,,,,,,,,,,,,,,,,,,,,,,,,,,,,,,,,,,,,,,,,,,,,,,,,,,,,,,,,,,,,,,,,,,,,,,,,,,,,,,,,,,,,,,,,,,,,,,,,,,,,,,,,,,,
,,607893faf75b80c8b2a14613,2024-02-21_19h27.33.389,kallum_motion_pilot,2023.2.2,Win32,55.55555556,607893faf75b80c8b2a14613,65d6bb0e977760de756971f7,65d6bef63f7d9a4dcc97f335,0.032,0.032,1,107,269,23,1,fourthree,,,,,,,,,,,,,,,,,,,,,,,,,,,,,,,,,,,,,,,,,,,,,,,,,,,,,,,,,,,,,,,,,,,,,,,,,,,,,,,,,,,,,,,,,,,,,,,,,,,,,,,,,,,,,,,,,,,,,,,,,,,,,,,,,,,,,,,,,
,,607893faf75b80c8b2a14613,2024-02-21_19h27.33.389,kallum_motion_pilot,2023.2.2,Win32,55.55555556,607893faf75b80c8b2a14613,65d6bb0e977760de756971f7,65d6bef63f7d9a4dcc97f335,0.032,0.032,1,108,270,137,1,fiveseven,,,,,,,,,,,,,,,,,,,,,,,,,,,,,,,,,,,,,,,,,,,,,,,,,,,,,,,,,,,,,,,,,,,,,,,,,,,,,,,,,,,,,,,,,,,,,,,,,,,,,,,,,,,,,,,,,,,,,,,,,,,,,,,,,,,,,,,,,
,,607893faf75b80c8b2a14613,2024-02-21_19h27.33.389,kallum_motion_pilot,2023.2.2,Win32,55.55555556,607893faf75b80c8b2a14613,65d6bb0e977760de756971f7,65d6bef63f7d9a4dcc97f335,0.032,0.032,1,109,271,157,1,seveneight,,,,,,,,,,,,,,,,,,,,,,,,,,,,,,,,,,,,,,,,,,,,,,,,,,,,,,,,,,,,,,,,,,,,,,,,,,,,,,,,,,,,,,,,,,,,,,,,,,,,,,,,,,,,,,,,,,,,,,,,,,,,,,,,,,,,,,,,,
,,607893faf75b80c8b2a14613,2024-02-21_19h27.33.389,kallum_motion_pilot,2023.2.2,Win32,55.55555556,607893faf75b80c8b2a14613,65d6bb0e977760de756971f7,65d6bef63f7d9a4dcc97f335,0.032,0.032,1,110,272,141,1,seveneight,,,,,,,,,,,,,,,,,,,,,,,,,,,,,,,,,,,,,,,,,,,,,,,,,,,,,,,,,,,,,,,,,,,,,,,,,,,,,,,,,,,,,,,,,,,,,,,,,,,,,,,,,,,,,,,,,,,,,,,,,,,,,,,,,,,,,,,,,
,,607893faf75b80c8b2a14613,2024-02-21_19h27.33.389,kallum_motion_pilot,2023.2.2,Win32,55.55555556,607893faf75b80c8b2a14613,65d6bb0e977760de756971f7,65d6bef63f7d9a4dcc97f335,0.032,0.033,1,111,273,0,1,onetwo,,,,,,,,,,,,,,,,,,,,,,,,,,,,,,,,,,,,,,,,,,,,,,,,,,,,,,,,,,,,,,,,,,,,,,,,,,,,,,,,,,,,,,,,,,,,,,,,,,,,,,,,,,,,,,,,,,,,,,,,,,,,,,,,,,,,,,,,,
,,607893faf75b80c8b2a14613,2024-02-21_19h27.33.389,kallum_motion_pilot,2023.2.2,Win32,55.55555556,607893faf75b80c8b2a14613,65d6bb0e977760de756971f7,65d6bef63f7d9a4dcc97f335,0.033,0.033,1,112,274,152,1,fivesix,,,,,,,,,,,,,,,,,,,,,,,,,,,,,,,,,,,,,,,,,,,,,,,,,,,,,,,,,,,,,,,,,,,,,,,,,,,,,,,,,,,,,,,,,,,,,,,,,,,,,,,,,,,,,,,,,,,,,,,,,,,,,,,,,,,,,,,,,
,,607893faf75b80c8b2a14613,2024-02-21_19h27.33.389,kallum_motion_pilot,2023.2.2,Win32,55.55555556,607893faf75b80c8b2a14613,65d6bb0e977760de756971f7,65d6bef63f7d9a4dcc97f335,0.033,0.033,1,113,275,42,1,twoone,,,,,,,,,,,,,,,,,,,,,,,,,,,,,,,,,,,,,,,,,,,,,,,,,,,,,,,,,,,,,,,,,,,,,,,,,,,,,,,,,,,,,,,,,,,,,,,,,,,,,,,,,,,,,,,,,,,,,,,,,,,,,,,,,,,,,,,,,
,,607893faf75b80c8b2a14613,2024-02-21_19h27.33.389,kallum_motion_pilot,2023.2.2,Win32,55.55555556,607893faf75b80c8b2a14613,65d6bb0e977760de756971f7,65d6bef63f7d9a4dcc97f335,0.033,0.033,1,114,276,54,1,fourtwo,,,,,,,,,,,,,,,,,,,,,,,,,,,,,,,,,,,,,,,,,,,,,,,,,,,,,,,,,,,,,,,,,,,,,,,,,,,,,,,,,,,,,,,,,,,,,,,,,,,,,,,,,,,,,,,,,,,,,,,,,,,,,,,,,,,,,,,,,
,,607893faf75b80c8b2a14613,2024-02-21_19h27.33.389,kallum_motion_pilot,2023.2.2,Win32,55.55555556,607893faf75b80c8b2a14613,65d6bb0e977760de756971f7,65d6bef63f7d9a4dcc97f335,0.033,0.033,1,115,277,27,1,twofour,,,,,,,,,,,,,,,,,,,,,,,,,,,,,,,,,,,,,,,,,,,,,,,,,,,,,,,,,,,,,,,,,,,,,,,,,,,,,,,,,,,,,,,,,,,,,,,,,,,,,,,,,,,,,,,,,,,,,,,,,,,,,,,,,,,,,,,,,
,,607893faf75b80c8b2a14613,2024-02-21_19h27.33.389,kallum_motion_pilot,2023.2.2,Win32,55.55555556,607893faf75b80c8b2a14613,65d6bb0e977760de756971f7,65d6bef63f7d9a4dcc97f335,0.033,0.033,1,116,278,107,1,sixeight,,,,,,,,,,,,,,,,,,,,,,,,,,,,,,,,,,,,,,,,,,,,,,,,,,,,,,,,,,,,,,,,,,,,,,,,,,,,,,,,,,,,,,,,,,,,,,,,,,,,,,,,,,,,,,,,,,,,,,,,,,,,,,,,,,,,,,,,,
,,607893faf75b80c8b2a14613,2024-02-21_19h27.33.389,kallum_motion_pilot,2023.2.2,Win32,55.55555556,607893faf75b80c8b2a14613,65d6bb0e977760de756971f7,65d6bef63f7d9a4dcc97f335,0.033,0.033,1,117,279,105,1,fiveseven,,,,,,,,,,,,,,,,,,,,,,,,,,,,,,,,,,,,,,,,,,,,,,,,,,,,,,,,,,,,,,,,,,,,,,,,,,,,,,,,,,,,,,,,,,,,,,,,,,,,,,,,,,,,,,,,,,,,,,,,,,,,,,,,,,,,,,,,,
