startup.started,startup.stopped,Prolific ID*,date,expName,psychopyVersion,OS,frameRate,participant,study_id,session,stimpositions.started,stimpositions.stopped,hardcoded_stimulus_positions.thisRepN,hardcoded_stimulus_positions.thisTrialN,hardcoded_stimulus_positions.thisN,hardcoded_stimulus_positions.thisIndex,hardcoded_stimulus_positions.ran,StimulusPos,stimorientation.started,stimorientation.stopped,prac_stimorientation_import_loop.thisRepN,prac_stimorientation_import_loop.thisTrialN,prac_stimorientation_import_loop.thisN,prac_stimorientation_import_loop.thisIndex,prac_stimorientation_import_loop.ran,Stimorientation,welcome_instr.started,welcome_instr.stopped,key_resp.keys,key_resp.rt,key_resp.duration,response_steppedout_1.started,response_steppedout_1.stopped,key_resp_20.keys,key_resp_20.rt,key_resp_20.duration,response_steppedout_2.started,response_steppedout_2.stopped,key_resp_19.keys,key_resp_19.rt,key_resp_19.duration,stim_response_instr.started,stim_response_instr.stopped,key_resp_15.keys,key_resp_15.rt,key_resp_15.duration,direction_instr_2.started,direction_instr_2.stopped,key_resp_9.keys,key_resp_9.rt,key_resp_9.duration,instr_prac.started,instr_prac.stopped,key_resp_10.keys,key_resp_10.rt,key_resp_10.duration,Stim1_display_prac.started,Stim1_display_prac.stopped,Ecc,Circle1_ori,Circle2_ori,response_prac.started,similarity,response_time,response_prac.stopped,mouse_5.x,mouse_5.y,mouse_5.leftButton,mouse_5.midButton,mouse_5.rightButton,mouse_5.clicked_name,responseprac_feedback.started,responseprac_feedback.stopped,summary2_prac.started,summary2_prac.stopped,mouse_6.x,mouse_6.y,mouse_6.leftButton,mouse_6.midButton,mouse_6.rightButton,mouse_6.clicked_name,duringprac.thisRepN,duringprac.thisTrialN,duringprac.thisN,duringprac.thisIndex,duringprac.ran,begin.started,begin.stopped,key_resp_22.keys,key_resp_22.rt,key_resp_22.duration,Stim1_display.started,Stim1_display.stopped,circle1_ori,circle2_ori,circle1_SF,circle2_SF,response.started,response.stopped,mouse.x,mouse.y,mouse.leftButton,mouse.midButton,mouse.rightButton,mouse.clicked_name,trialnumber,double_pass.thisRepN,double_pass.thisTrialN,double_pass.thisN,double_pass.thisIndex,double_pass.ran,double_pass.order,main_trial.thisRepN,main_trial.thisTrialN,main_trial.thisN,main_trial.thisIndex,main_trial.ran,main_trial.order,Trial_Counter,Catch,Frequencies,response_2.started,response_2.stopped,mouse_2.x,mouse_2.y,mouse_2.leftButton,mouse_2.midButton,mouse_2.rightButton,mouse_2.clicked_name,special_trial.started,special_trial.stopped,catch_1.started,catch_1.stopped,mouse_3.x,mouse_3.y,mouse_3.leftButton,mouse_3.midButton,mouse_3.rightButton,catchresponse,catchnumber,response_time_catch,response_sum.started,response_sum.stopped,mouse_11.x,mouse_11.y,mouse_11.leftButton,mouse_11.midButton,mouse_11.rightButton,flip_presentation_sequence_for_double_pass.started,flip_presentation_sequence_for_double_pass.stopped,goodbye.started,goodbye.stopped,key_resp_3.keys,key_resp_3.rt,key_resp_3.duration
0.0002,0.0004,6096ace01e65b3225e84d29f,2024-02-22_16h19.05.011,kallum_motion_pilot,2023.2.2,Win32,59.88023952,6096ace01e65b3225e84d29f,65d6bb0e977760de756971f7,65d6bd02210973f7d2836cfa,,,,,,,,,,,,,,,,,,,,,,,,,,,,,,,,,,,,,,,,,,,,,,,,,,,,,,,,,,,,,,,,,,,,,,,,,,,,,,,,,,,,,,,,,,,,,,,,,,,,,,,,,,,,,,,,,,,,,,,,,,,,,,,,,,,,,,,,,,,,,,,,,
,,6096ace01e65b3225e84d29f,2024-02-22_16h19.05.011,kallum_motion_pilot,2023.2.2,Win32,59.88023952,6096ace01e65b3225e84d29f,65d6bb0e977760de756971f7,65d6bd02210973f7d2836cfa,0.0338,0.034,0,0,0,129,1,fiveseven,,,,,,,,,,,,,,,,,,,,,,,,,,,,,,,,,,,,,,,,,,,,,,,,,,,,,,,,,,,,,,,,,,,,,,,,,,,,,,,,,,,,,,,,,,,,,,,,,,,,,,,,,,,,,,,,,,,,,,,,,,,,,,,,,,,,,,,,,
,,6096ace01e65b3225e84d29f,2024-02-22_16h19.05.011,kallum_motion_pilot,2023.2.2,Win32,59.88023952,6096ace01e65b3225e84d29f,65d6bb0e977760de756971f7,65d6bd02210973f7d2836cfa,0.0343,0.0343,0,1,1,85,1,seveneight,,,,,,,,,,,,,,,,,,,,,,,,,,,,,,,,,,,,,,,,,,,,,,,,,,,,,,,,,,,,,,,,,,,,,,,,,,,,,,,,,,,,,,,,,,,,,,,,,,,,,,,,,,,,,,,,,,,,,,,,,,,,,,,,,,,,,,,,,
,,6096ace01e65b3225e84d29f,2024-02-22_16h19.05.011,kallum_motion_pilot,2023.2.2,Win32,59.88023952,6096ace01e65b3225e84d29f,65d6bb0e977760de756971f7,65d6bd02210973f7d2836cfa,0.0345,0.0345,0,2,2,140,1,sevenfive,,,,,,,,,,,,,,,,,,,,,,,,,,,,,,,,,,,,,,,,,,,,,,,,,,,,,,,,,,,,,,,,,,,,,,,,,,,,,,,,,,,,,,,,,,,,,,,,,,,,,,,,,,,,,,,,,,,,,,,,,,,,,,,,,,,,,,,,,
,,6096ace01e65b3225e84d29f,2024-02-22_16h19.05.011,kallum_motion_pilot,2023.2.2,Win32,59.88023952,6096ace01e65b3225e84d29f,65d6bb0e977760de756971f7,65d6bd02210973f7d2836cfa,0.0347,0.0348,0,3,3,17,1,onethree,,,,,,,,,,,,,,,,,,,,,,,,,,,,,,,,,,,,,,,,,,,,,,,,,,,,,,,,,,,,,,,,,,,,,,,,,,,,,,,,,,,,,,,,,,,,,,,,,,,,,,,,,,,,,,,,,,,,,,,,,,,,,,,,,,,,,,,,,
,,6096ace01e65b3225e84d29f,2024-02-22_16h19.05.011,kallum_motion_pilot,2023.2.2,Win32,59.88023952,6096ace01e65b3225e84d29f,65d6bb0e977760de756971f7,65d6bd02210973f7d2836cfa,0.0349,0.035,0,4,4,39,1,fourthree,,,,,,,,,,,,,,,,,,,,,,,,,,,,,,,,,,,,,,,,,,,,,,,,,,,,,,,,,,,,,,,,,,,,,,,,,,,,,,,,,,,,,,,,,,,,,,,,,,,,,,,,,,,,,,,,,,,,,,,,,,,,,,,,,,,,,,,,,
,,6096ace01e65b3225e84d29f,2024-02-22_16h19.05.011,kallum_motion_pilot,2023.2.2,Win32,59.88023952,6096ace01e65b3225e84d29f,65d6bb0e977760de756971f7,65d6bd02210973f7d2836cfa,0.0352,0.0352,0,5,5,93,1,seveneight,,,,,,,,,,,,,,,,,,,,,,,,,,,,,,,,,,,,,,,,,,,,,,,,,,,,,,,,,,,,,,,,,,,,,,,,,,,,,,,,,,,,,,,,,,,,,,,,,,,,,,,,,,,,,,,,,,,,,,,,,,,,,,,,,,,,,,,,,
,,6096ace01e65b3225e84d29f,2024-02-22_16h19.05.011,kallum_motion_pilot,2023.2.2,Win32,59.88023952,6096ace01e65b3225e84d29f,65d6bb0e977760de756971f7,65d6bd02210973f7d2836cfa,0.0353,0.0353,0,6,6,61,1,threefour,,,,,,,,,,,,,,,,,,,,,,,,,,,,,,,,,,,,,,,,,,,,,,,,,,,,,,,,,,,,,,,,,,,,,,,,,,,,,,,,,,,,,,,,,,,,,,,,,,,,,,,,,,,,,,,,,,,,,,,,,,,,,,,,,,,,,,,,,
,,6096ace01e65b3225e84d29f,2024-02-22_16h19.05.011,kallum_motion_pilot,2023.2.2,Win32,59.88023952,6096ace01e65b3225e84d29f,65d6bb0e977760de756971f7,65d6bd02210973f7d2836cfa,0.0355,0.0355,0,7,7,90,1,sixfive,,,,,,,,,,,,,,,,,,,,,,,,,,,,,,,,,,,,,,,,,,,,,,,,,,,,,,,,,,,,,,,,,,,,,,,,,,,,,,,,,,,,,,,,,,,,,,,,,,,,,,,,,,,,,,,,,,,,,,,,,,,,,,,,,,,,,,,,,
,,6096ace01e65b3225e84d29f,2024-02-22_16h19.05.011,kallum_motion_pilot,2023.2.2,Win32,59.88023952,6096ace01e65b3225e84d29f,65d6bb0e977760de756971f7,65d6bd02210973f7d2836cfa,0.0357,0.0357,0,8,8,133,1,seveneight,,,,,,,,,,,,,,,,,,,,,,,,,,,,,,,,,,,,,,,,,,,,,,,,,,,,,,,,,,,,,,,,,,,,,,,,,,,,,,,,,,,,,,,,,,,,,,,,,,,,,,,,,,,,,,,,,,,,,,,,,,,,,,,,,,,,,,,,,
,,6096ace01e65b3225e84d29f,2024-02-22_16h19.05.011,kallum_motion_pilot,2023.2.2,Win32,59.88023952,6096ace01e65b3225e84d29f,65d6bb0e977760de756971f7,65d6bd02210973f7d2836cfa,0.0359,0.0359,0,9,9,44,1,threeone,,,,,,,,,,,,,,,,,,,,,,,,,,,,,,,,,,,,,,,,,,,,,,,,,,,,,,,,,,,,,,,,,,,,,,,,,,,,,,,,,,,,,,,,,,,,,,,,,,,,,,,,,,,,,,,,,,,,,,,,,,,,,,,,,,,,,,,,,
,,6096ace01e65b3225e84d29f,2024-02-22_16h19.05.011,kallum_motion_pilot,2023.2.2,Win32,59.88023952,6096ace01e65b3225e84d29f,65d6bb0e977760de756971f7,65d6bd02210973f7d2836cfa,0.0361,0.0361,0,10,10,102,1,eightsix,,,,,,,,,,,,,,,,,,,,,,,,,,,,,,,,,,,,,,,,,,,,,,,,,,,,,,,,,,,,,,,,,,,,,,,,,,,,,,,,,,,,,,,,,,,,,,,,,,,,,,,,,,,,,,,,,,,,,,,,,,,,,,,,,,,,,,,,,
,,6096ace01e65b3225e84d29f,2024-02-22_16h19.05.011,kallum_motion_pilot,2023.2.2,Win32,59.88023952,6096ace01e65b3225e84d29f,65d6bb0e977760de756971f7,65d6bd02210973f7d2836cfa,0.0362,0.0362,0,11,11,26,1,twoone,,,,,,,,,,,,,,,,,,,,,,,,,,,,,,,,,,,,,,,,,,,,,,,,,,,,,,,,,,,,,,,,,,,,,,,,,,,,,,,,,,,,,,,,,,,,,,,,,,,,,,,,,,,,,,,,,,,,,,,,,,,,,,,,,,,,,,,,,
,,6096ace01e65b3225e84d29f,2024-02-22_16h19.05.011,kallum_motion_pilot,2023.2.2,Win32,59.88023952,6096ace01e65b3225e84d29f,65d6bb0e977760de756971f7,65d6bd02210973f7d2836cfa,0.0363,0.0363,0,12,12,131,1,sixeight,,,,,,,,,,,,,,,,,,,,,,,,,,,,,,,,,,,,,,,,,,,,,,,,,,,,,,,,,,,,,,,,,,,,,,,,,,,,,,,,,,,,,,,,,,,,,,,,,,,,,,,,,,,,,,,,,,,,,,,,,,,,,,,,,,,,,,,,,
,,6096ace01e65b3225e84d29f,2024-02-22_16h19.05.011,kallum_motion_pilot,2023.2.2,Win32,59.88023952,6096ace01e65b3225e84d29f,65d6bb0e977760de756971f7,65d6bd02210973f7d2836cfa,0.0365,0.0365,0,13,13,42,1,twoone,,,,,,,,,,,,,,,,,,,,,,,,,,,,,,,,,,,,,,,,,,,,,,,,,,,,,,,,,,,,,,,,,,,,,,,,,,,,,,,,,,,,,,,,,,,,,,,,,,,,,,,,,,,,,,,,,,,,,,,,,,,,,,,,,,,,,,,,,
,,6096ace01e65b3225e84d29f,2024-02-22_16h19.05.011,kallum_motion_pilot,2023.2.2,Win32,59.88023952,6096ace01e65b3225e84d29f,65d6bb0e977760de756971f7,65d6bd02210973f7d2836cfa,0.0367,0.0367,0,14,14,72,1,onetwo,,,,,,,,,,,,,,,,,,,,,,,,,,,,,,,,,,,,,,,,,,,,,,,,,,,,,,,,,,,,,,,,,,,,,,,,,,,,,,,,,,,,,,,,,,,,,,,,,,,,,,,,,,,,,,,,,,,,,,,,,,,,,,,,,,,,,,,,,
,,6096ace01e65b3225e84d29f,2024-02-22_16h19.05.011,kallum_motion_pilot,2023.2.2,Win32,59.88023952,6096ace01e65b3225e84d29f,65d6bb0e977760de756971f7,65d6bd02210973f7d2836cfa,0.0368,0.0368,0,15,15,1,1,onethree,,,,,,,,,,,,,,,,,,,,,,,,,,,,,,,,,,,,,,,,,,,,,,,,,,,,,,,,,,,,,,,,,,,,,,,,,,,,,,,,,,,,,,,,,,,,,,,,,,,,,,,,,,,,,,,,,,,,,,,,,,,,,,,,,,,,,,,,,
,,6096ace01e65b3225e84d29f,2024-02-22_16h19.05.011,kallum_motion_pilot,2023.2.2,Win32,59.88023952,6096ace01e65b3225e84d29f,65d6bb0e977760de756971f7,65d6bd02210973f7d2836cfa,0.0369,0.0369,0,16,16,83,1,sixeight,,,,,,,,,,,,,,,,,,,,,,,,,,,,,,,,,,,,,,,,,,,,,,,,,,,,,,,,,,,,,,,,,,,,,,,,,,,,,,,,,,,,,,,,,,,,,,,,,,,,,,,,,,,,,,,,,,,,,,,,,,,,,,,,,,,,,,,,,
,,6096ace01e65b3225e84d29f,2024-02-22_16h19.05.011,kallum_motion_pilot,2023.2.2,Win32,59.88023952,6096ace01e65b3225e84d29f,65d6bb0e977760de756971f7,65d6bd02210973f7d2836cfa,0.0371,0.0371,0,17,17,160,1,fivesix,,,,,,,,,,,,,,,,,,,,,,,,,,,,,,,,,,,,,,,,,,,,,,,,,,,,,,,,,,,,,,,,,,,,,,,,,,,,,,,,,,,,,,,,,,,,,,,,,,,,,,,,,,,,,,,,,,,,,,,,,,,,,,,,,,,,,,,,,
,,6096ace01e65b3225e84d29f,2024-02-22_16h19.05.011,kallum_motion_pilot,2023.2.2,Win32,59.88023952,6096ace01e65b3225e84d29f,65d6bb0e977760de756971f7,65d6bd02210973f7d2836cfa,0.0373,0.0373,0,18,18,8,1,onetwo,,,,,,,,,,,,,,,,,,,,,,,,,,,,,,,,,,,,,,,,,,,,,,,,,,,,,,,,,,,,,,,,,,,,,,,,,,,,,,,,,,,,,,,,,,,,,,,,,,,,,,,,,,,,,,,,,,,,,,,,,,,,,,,,,,,,,,,,,
,,6096ace01e65b3225e84d29f,2024-02-22_16h19.05.011,kallum_motion_pilot,2023.2.2,Win32,59.88023952,6096ace01e65b3225e84d29f,65d6bb0e977760de756971f7,65d6bd02210973f7d2836cfa,0.0374,0.0375,0,19,19,76,1,threeone,,,,,,,,,,,,,,,,,,,,,,,,,,,,,,,,,,,,,,,,,,,,,,,,,,,,,,,,,,,,,,,,,,,,,,,,,,,,,,,,,,,,,,,,,,,,,,,,,,,,,,,,,,,,,,,,,,,,,,,,,,,,,,,,,,,,,,,,,
,,6096ace01e65b3225e84d29f,2024-02-22_16h19.05.011,kallum_motion_pilot,2023.2.2,Win32,59.88023952,6096ace01e65b3225e84d29f,65d6bb0e977760de756971f7,65d6bd02210973f7d2836cfa,0.0376,0.0376,0,20,20,126,1,eightsix,,,,,,,,,,,,,,,,,,,,,,,,,,,,,,,,,,,,,,,,,,,,,,,,,,,,,,,,,,,,,,,,,,,,,,,,,,,,,,,,,,,,,,,,,,,,,,,,,,,,,,,,,,,,,,,,,,,,,,,,,,,,,,,,,,,,,,,,,
,,6096ace01e65b3225e84d29f,2024-02-22_16h19.05.011,kallum_motion_pilot,2023.2.2,Win32,59.88023952,6096ace01e65b3225e84d29f,65d6bb0e977760de756971f7,65d6bd02210973f7d2836cfa,0.0377,0.0378,0,21,21,19,1,twofour,,,,,,,,,,,,,,,,,,,,,,,,,,,,,,,,,,,,,,,,,,,,,,,,,,,,,,,,,,,,,,,,,,,,,,,,,,,,,,,,,,,,,,,,,,,,,,,,,,,,,,,,,,,,,,,,,,,,,,,,,,,,,,,,,,,,,,,,,
,,6096ace01e65b3225e84d29f,2024-02-22_16h19.05.011,kallum_motion_pilot,2023.2.2,Win32,59.88023952,6096ace01e65b3225e84d29f,65d6bb0e977760de756971f7,65d6bd02210973f7d2836cfa,0.0379,0.0379,0,22,22,86,1,eightsix,,,,,,,,,,,,,,,,,,,,,,,,,,,,,,,,,,,,,,,,,,,,,,,,,,,,,,,,,,,,,,,,,,,,,,,,,,,,,,,,,,,,,,,,,,,,,,,,,,,,,,,,,,,,,,,,,,,,,,,,,,,,,,,,,,,,,,,,,
,,6096ace01e65b3225e84d29f,2024-02-22_16h19.05.011,kallum_motion_pilot,2023.2.2,Win32,59.88023952,6096ace01e65b3225e84d29f,65d6bb0e977760de756971f7,65d6bd02210973f7d2836cfa,0.038,0.0381,0,23,23,114,1,sixfive,,,,,,,,,,,,,,,,,,,,,,,,,,,,,,,,,,,,,,,,,,,,,,,,,,,,,,,,,,,,,,,,,,,,,,,,,,,,,,,,,,,,,,,,,,,,,,,,,,,,,,,,,,,,,,,,,,,,,,,,,,,,,,,,,,,,,,,,,
,,6096ace01e65b3225e84d29f,2024-02-22_16h19.05.011,kallum_motion_pilot,2023.2.2,Win32,59.88023952,6096ace01e65b3225e84d29f,65d6bb0e977760de756971f7,65d6bd02210973f7d2836cfa,0.0382,0.0382,0,24,24,37,1,threefour,,,,,,,,,,,,,,,,,,,,,,,,,,,,,,,,,,,,,,,,,,,,,,,,,,,,,,,,,,,,,,,,,,,,,,,,,,,,,,,,,,,,,,,,,,,,,,,,,,,,,,,,,,,,,,,,,,,,,,,,,,,,,,,,,,,,,,,,,
,,6096ace01e65b3225e84d29f,2024-02-22_16h19.05.011,kallum_motion_pilot,2023.2.2,Win32,59.88023952,6096ace01e65b3225e84d29f,65d6bb0e977760de756971f7,65d6bd02210973f7d2836cfa,0.0383,0.0384,0,25,25,43,1,twofour,,,,,,,,,,,,,,,,,,,,,,,,,,,,,,,,,,,,,,,,,,,,,,,,,,,,,,,,,,,,,,,,,,,,,,,,,,,,,,,,,,,,,,,,,,,,,,,,,,,,,,,,,,,,,,,,,,,,,,,,,,,,,,,,,,,,,,,,,
,,6096ace01e65b3225e84d29f,2024-02-22_16h19.05.011,kallum_motion_pilot,2023.2.2,Win32,59.88023952,6096ace01e65b3225e84d29f,65d6bb0e977760de756971f7,65d6bd02210973f7d2836cfa,0.0385,0.0385,0,26,26,30,1,fourtwo,,,,,,,,,,,,,,,,,,,,,,,,,,,,,,,,,,,,,,,,,,,,,,,,,,,,,,,,,,,,,,,,,,,,,,,,,,,,,,,,,,,,,,,,,,,,,,,,,,,,,,,,,,,,,,,,,,,,,,,,,,,,,,,,,,,,,,,,,
,,6096ace01e65b3225e84d29f,2024-02-22_16h19.05.011,kallum_motion_pilot,2023.2.2,Win32,59.88023952,6096ace01e65b3225e84d29f,65d6bb0e977760de756971f7,65d6bd02210973f7d2836cfa,0.0387,0.0387,0,27,27,109,1,seveneight,,,,,,,,,,,,,,,,,,,,,,,,,,,,,,,,,,,,,,,,,,,,,,,,,,,,,,,,,,,,,,,,,,,,,,,,,,,,,,,,,,,,,,,,,,,,,,,,,,,,,,,,,,,,,,,,,,,,,,,,,,,,,,,,,,,,,,,,,
,,6096ace01e65b3225e84d29f,2024-02-22_16h19.05.011,kallum_motion_pilot,2023.2.2,Win32,59.88023952,6096ace01e65b3225e84d29f,65d6bb0e977760de756971f7,65d6bd02210973f7d2836cfa,0.0388,0.0388,0,28,28,82,1,sixfive,,,,,,,,,,,,,,,,,,,,,,,,,,,,,,,,,,,,,,,,,,,,,,,,,,,,,,,,,,,,,,,,,,,,,,,,,,,,,,,,,,,,,,,,,,,,,,,,,,,,,,,,,,,,,,,,,,,,,,,,,,,,,,,,,,,,,,,,,
,,6096ace01e65b3225e84d29f,2024-02-22_16h19.05.011,kallum_motion_pilot,2023.2.2,Win32,59.88023952,6096ace01e65b3225e84d29f,65d6bb0e977760de756971f7,65d6bd02210973f7d2836cfa,0.0389,0.0389,0,29,29,79,1,eightseven,,,,,,,,,,,,,,,,,,,,,,,,,,,,,,,,,,,,,,,,,,,,,,,,,,,,,,,,,,,,,,,,,,,,,,,,,,,,,,,,,,,,,,,,,,,,,,,,,,,,,,,,,,,,,,,,,,,,,,,,,,,,,,,,,,,,,,,,,
,,6096ace01e65b3225e84d29f,2024-02-22_16h19.05.011,kallum_motion_pilot,2023.2.2,Win32,59.88023952,6096ace01e65b3225e84d29f,65d6bb0e977760de756971f7,65d6bd02210973f7d2836cfa,0.0391,0.0391,0,30,30,120,1,fivesix,,,,,,,,,,,,,,,,,,,,,,,,,,,,,,,,,,,,,,,,,,,,,,,,,,,,,,,,,,,,,,,,,,,,,,,,,,,,,,,,,,,,,,,,,,,,,,,,,,,,,,,,,,,,,,,,,,,,,,,,,,,,,,,,,,,,,,,,,
,,6096ace01e65b3225e84d29f,2024-02-22_16h19.05.011,kallum_motion_pilot,2023.2.2,Win32,59.88023952,6096ace01e65b3225e84d29f,65d6bb0e977760de756971f7,65d6bd02210973f7d2836cfa,0.0392,0.0392,0,31,31,77,1,threefour,,,,,,,,,,,,,,,,,,,,,,,,,,,,,,,,,,,,,,,,,,,,,,,,,,,,,,,,,,,,,,,,,,,,,,,,,,,,,,,,,,,,,,,,,,,,,,,,,,,,,,,,,,,,,,,,,,,,,,,,,,,,,,,,,,,,,,,,,
,,6096ace01e65b3225e84d29f,2024-02-22_16h19.05.011,kallum_motion_pilot,2023.2.2,Win32,59.88023952,6096ace01e65b3225e84d29f,65d6bb0e977760de756971f7,65d6bd02210973f7d2836cfa,0.0393,0.0394,0,32,32,20,1,threeone,,,,,,,,,,,,,,,,,,,,,,,,,,,,,,,,,,,,,,,,,,,,,,,,,,,,,,,,,,,,,,,,,,,,,,,,,,,,,,,,,,,,,,,,,,,,,,,,,,,,,,,,,,,,,,,,,,,,,,,,,,,,,,,,,,,,,,,,,
,,6096ace01e65b3225e84d29f,2024-02-22_16h19.05.011,kallum_motion_pilot,2023.2.2,Win32,59.88023952,6096ace01e65b3225e84d29f,65d6bb0e977760de756971f7,65d6bd02210973f7d2836cfa,0.0394,0.0396,0,33,33,49,1,onethree,,,,,,,,,,,,,,,,,,,,,,,,,,,,,,,,,,,,,,,,,,,,,,,,,,,,,,,,,,,,,,,,,,,,,,,,,,,,,,,,,,,,,,,,,,,,,,,,,,,,,,,,,,,,,,,,,,,,,,,,,,,,,,,,,,,,,,,,,
,,6096ace01e65b3225e84d29f,2024-02-22_16h19.05.011,kallum_motion_pilot,2023.2.2,Win32,59.88023952,6096ace01e65b3225e84d29f,65d6bb0e977760de756971f7,65d6bd02210973f7d2836cfa,0.0396,0.0397,0,34,34,0,1,onetwo,,,,,,,,,,,,,,,,,,,,,,,,,,,,,,,,,,,,,,,,,,,,,,,,,,,,,,,,,,,,,,,,,,,,,,,,,,,,,,,,,,,,,,,,,,,,,,,,,,,,,,,,,,,,,,,,,,,,,,,,,,,,,,,,,,,,,,,,,
,,6096ace01e65b3225e84d29f,2024-02-22_16h19.05.011,kallum_motion_pilot,2023.2.2,Win32,59.88023952,6096ace01e65b3225e84d29f,65d6bb0e977760de756971f7,65d6bd02210973f7d2836cfa,0.0398,0.0399,0,35,35,21,1,threefour,,,,,,,,,,,,,,,,,,,,,,,,,,,,,,,,,,,,,,,,,,,,,,,,,,,,,,,,,,,,,,,,,,,,,,,,,,,,,,,,,,,,,,,,,,,,,,,,,,,,,,,,,,,,,,,,,,,,,,,,,,,,,,,,,,,,,,,,,
,,6096ace01e65b3225e84d29f,2024-02-22_16h19.05.011,kallum_motion_pilot,2023.2.2,Win32,59.88023952,6096ace01e65b3225e84d29f,65d6bb0e977760de756971f7,65d6bd02210973f7d2836cfa,0.0399,0.04,0,36,36,145,1,fiveseven,,,,,,,,,,,,,,,,,,,,,,,,,,,,,,,,,,,,,,,,,,,,,,,,,,,,,,,,,,,,,,,,,,,,,,,,,,,,,,,,,,,,,,,,,,,,,,,,,,,,,,,,,,,,,,,,,,,,,,,,,,,,,,,,,,,,,,,,,
,,6096ace01e65b3225e84d29f,2024-02-22_16h19.05.011,kallum_motion_pilot,2023.2.2,Win32,59.88023952,6096ace01e65b3225e84d29f,65d6bb0e977760de756971f7,65d6bd02210973f7d2836cfa,0.0401,0.0401,0,37,37,122,1,sixfive,,,,,,,,,,,,,,,,,,,,,,,,,,,,,,,,,,,,,,,,,,,,,,,,,,,,,,,,,,,,,,,,,,,,,,,,,,,,,,,,,,,,,,,,,,,,,,,,,,,,,,,,,,,,,,,,,,,,,,,,,,,,,,,,,,,,,,,,,
,,6096ace01e65b3225e84d29f,2024-02-22_16h19.05.011,kallum_motion_pilot,2023.2.2,Win32,59.88023952,6096ace01e65b3225e84d29f,65d6bb0e977760de756971f7,65d6bd02210973f7d2836cfa,0.0402,0.0403,0,38,38,13,1,threefour,,,,,,,,,,,,,,,,,,,,,,,,,,,,,,,,,,,,,,,,,,,,,,,,,,,,,,,,,,,,,,,,,,,,,,,,,,,,,,,,,,,,,,,,,,,,,,,,,,,,,,,,,,,,,,,,,,,,,,,,,,,,,,,,,,,,,,,,,
,,6096ace01e65b3225e84d29f,2024-02-22_16h19.05.011,kallum_motion_pilot,2023.2.2,Win32,59.88023952,6096ace01e65b3225e84d29f,65d6bb0e977760de756971f7,65d6bd02210973f7d2836cfa,0.0404,0.0405,0,39,39,74,1,twoone,,,,,,,,,,,,,,,,,,,,,,,,,,,,,,,,,,,,,,,,,,,,,,,,,,,,,,,,,,,,,,,,,,,,,,,,,,,,,,,,,,,,,,,,,,,,,,,,,,,,,,,,,,,,,,,,,,,,,,,,,,,,,,,,,,,,,,,,,
,,6096ace01e65b3225e84d29f,2024-02-22_16h19.05.011,kallum_motion_pilot,2023.2.2,Win32,59.88023952,6096ace01e65b3225e84d29f,65d6bb0e977760de756971f7,65d6bd02210973f7d2836cfa,0.0405,0.0406,0,40,40,155,1,sixeight,,,,,,,,,,,,,,,,,,,,,,,,,,,,,,,,,,,,,,,,,,,,,,,,,,,,,,,,,,,,,,,,,,,,,,,,,,,,,,,,,,,,,,,,,,,,,,,,,,,,,,,,,,,,,,,,,,,,,,,,,,,,,,,,,,,,,,,,,
,,6096ace01e65b3225e84d29f,2024-02-22_16h19.05.011,kallum_motion_pilot,2023.2.2,Win32,59.88023952,6096ace01e65b3225e84d29f,65d6bb0e977760de756971f7,65d6bd02210973f7d2836cfa,0.0408,0.0409,0,41,41,45,1,threefour,,,,,,,,,,,,,,,,,,,,,,,,,,,,,,,,,,,,,,,,,,,,,,,,,,,,,,,,,,,,,,,,,,,,,,,,,,,,,,,,,,,,,,,,,,,,,,,,,,,,,,,,,,,,,,,,,,,,,,,,,,,,,,,,,,,,,,,,,
,,6096ace01e65b3225e84d29f,2024-02-22_16h19.05.011,kallum_motion_pilot,2023.2.2,Win32,59.88023952,6096ace01e65b3225e84d29f,65d6bb0e977760de756971f7,65d6bd02210973f7d2836cfa,0.041,0.0411,0,42,42,75,1,twofour,,,,,,,,,,,,,,,,,,,,,,,,,,,,,,,,,,,,,,,,,,,,,,,,,,,,,,,,,,,,,,,,,,,,,,,,,,,,,,,,,,,,,,,,,,,,,,,,,,,,,,,,,,,,,,,,,,,,,,,,,,,,,,,,,,,,,,,,,
,,6096ace01e65b3225e84d29f,2024-02-22_16h19.05.011,kallum_motion_pilot,2023.2.2,Win32,59.88023952,6096ace01e65b3225e84d29f,65d6bb0e977760de756971f7,65d6bd02210973f7d2836cfa,0.0413,0.0413,0,43,43,104,1,fivesix,,,,,,,,,,,,,,,,,,,,,,,,,,,,,,,,,,,,,,,,,,,,,,,,,,,,,,,,,,,,,,,,,,,,,,,,,,,,,,,,,,,,,,,,,,,,,,,,,,,,,,,,,,,,,,,,,,,,,,,,,,,,,,,,,,,,,,,,,
,,6096ace01e65b3225e84d29f,2024-02-22_16h19.05.011,kallum_motion_pilot,2023.2.2,Win32,59.88023952,6096ace01e65b3225e84d29f,65d6bb0e977760de756971f7,65d6bd02210973f7d2836cfa,0.0416,0.0416,0,44,44,88,1,fivesix,,,,,,,,,,,,,,,,,,,,,,,,,,,,,,,,,,,,,,,,,,,,,,,,,,,,,,,,,,,,,,,,,,,,,,,,,,,,,,,,,,,,,,,,,,,,,,,,,,,,,,,,,,,,,,,,,,,,,,,,,,,,,,,,,,,,,,,,,
,,6096ace01e65b3225e84d29f,2024-02-22_16h19.05.011,kallum_motion_pilot,2023.2.2,Win32,59.88023952,6096ace01e65b3225e84d29f,65d6bb0e977760de756971f7,65d6bd02210973f7d2836cfa,0.0418,0.0418,0,45,45,64,1,onetwo,,,,,,,,,,,,,,,,,,,,,,,,,,,,,,,,,,,,,,,,,,,,,,,,,,,,,,,,,,,,,,,,,,,,,,,,,,,,,,,,,,,,,,,,,,,,,,,,,,,,,,,,,,,,,,,,,,,,,,,,,,,,,,,,,,,,,,,,,
,,6096ace01e65b3225e84d29f,2024-02-22_16h19.05.011,kallum_motion_pilot,2023.2.2,Win32,59.88023952,6096ace01e65b3225e84d29f,65d6bb0e977760de756971f7,65d6bd02210973f7d2836cfa,0.042,0.0421,0,46,46,105,1,fiveseven,,,,,,,,,,,,,,,,,,,,,,,,,,,,,,,,,,,,,,,,,,,,,,,,,,,,,,,,,,,,,,,,,,,,,,,,,,,,,,,,,,,,,,,,,,,,,,,,,,,,,,,,,,,,,,,,,,,,,,,,,,,,,,,,,,,,,,,,,
,,6096ace01e65b3225e84d29f,2024-02-22_16h19.05.011,kallum_motion_pilot,2023.2.2,Win32,59.88023952,6096ace01e65b3225e84d29f,65d6bb0e977760de756971f7,65d6bd02210973f7d2836cfa,0.0422,0.0423,0,47,47,66,1,twoone,,,,,,,,,,,,,,,,,,,,,,,,,,,,,,,,,,,,,,,,,,,,,,,,,,,,,,,,,,,,,,,,,,,,,,,,,,,,,,,,,,,,,,,,,,,,,,,,,,,,,,,,,,,,,,,,,,,,,,,,,,,,,,,,,,,,,,,,,
,,6096ace01e65b3225e84d29f,2024-02-22_16h19.05.011,kallum_motion_pilot,2023.2.2,Win32,59.88023952,6096ace01e65b3225e84d29f,65d6bb0e977760de756971f7,65d6bd02210973f7d2836cfa,0.0425,0.0426,0,48,48,34,1,twoone,,,,,,,,,,,,,,,,,,,,,,,,,,,,,,,,,,,,,,,,,,,,,,,,,,,,,,,,,,,,,,,,,,,,,,,,,,,,,,,,,,,,,,,,,,,,,,,,,,,,,,,,,,,,,,,,,,,,,,,,,,,,,,,,,,,,,,,,,
,,6096ace01e65b3225e84d29f,2024-02-22_16h19.05.011,kallum_motion_pilot,2023.2.2,Win32,59.88023952,6096ace01e65b3225e84d29f,65d6bb0e977760de756971f7,65d6bd02210973f7d2836cfa,0.0428,0.0429,0,49,49,150,1,eightsix,,,,,,,,,,,,,,,,,,,,,,,,,,,,,,,,,,,,,,,,,,,,,,,,,,,,,,,,,,,,,,,,,,,,,,,,,,,,,,,,,,,,,,,,,,,,,,,,,,,,,,,,,,,,,,,,,,,,,,,,,,,,,,,,,,,,,,,,,
,,6096ace01e65b3225e84d29f,2024-02-22_16h19.05.011,kallum_motion_pilot,2023.2.2,Win32,59.88023952,6096ace01e65b3225e84d29f,65d6bb0e977760de756971f7,65d6bd02210973f7d2836cfa,0.0431,0.0431,0,50,50,159,1,eightseven,,,,,,,,,,,,,,,,,,,,,,,,,,,,,,,,,,,,,,,,,,,,,,,,,,,,,,,,,,,,,,,,,,,,,,,,,,,,,,,,,,,,,,,,,,,,,,,,,,,,,,,,,,,,,,,,,,,,,,,,,,,,,,,,,,,,,,,,,
,,6096ace01e65b3225e84d29f,2024-02-22_16h19.05.011,kallum_motion_pilot,2023.2.2,Win32,59.88023952,6096ace01e65b3225e84d29f,65d6bb0e977760de756971f7,65d6bd02210973f7d2836cfa,0.0433,0.0433,0,51,51,148,1,sevenfive,,,,,,,,,,,,,,,,,,,,,,,,,,,,,,,,,,,,,,,,,,,,,,,,,,,,,,,,,,,,,,,,,,,,,,,,,,,,,,,,,,,,,,,,,,,,,,,,,,,,,,,,,,,,,,,,,,,,,,,,,,,,,,,,,,,,,,,,,
,,6096ace01e65b3225e84d29f,2024-02-22_16h19.05.011,kallum_motion_pilot,2023.2.2,Win32,59.88023952,6096ace01e65b3225e84d29f,65d6bb0e977760de756971f7,65d6bd02210973f7d2836cfa,0.0435,0.0436,0,52,52,125,1,seveneight,,,,,,,,,,,,,,,,,,,,,,,,,,,,,,,,,,,,,,,,,,,,,,,,,,,,,,,,,,,,,,,,,,,,,,,,,,,,,,,,,,,,,,,,,,,,,,,,,,,,,,,,,,,,,,,,,,,,,,,,,,,,,,,,,,,,,,,,,
,,6096ace01e65b3225e84d29f,2024-02-22_16h19.05.011,kallum_motion_pilot,2023.2.2,Win32,59.88023952,6096ace01e65b3225e84d29f,65d6bb0e977760de756971f7,65d6bd02210973f7d2836cfa,0.0438,0.0439,0,53,53,110,1,eightsix,,,,,,,,,,,,,,,,,,,,,,,,,,,,,,,,,,,,,,,,,,,,,,,,,,,,,,,,,,,,,,,,,,,,,,,,,,,,,,,,,,,,,,,,,,,,,,,,,,,,,,,,,,,,,,,,,,,,,,,,,,,,,,,,,,,,,,,,,
,,6096ace01e65b3225e84d29f,2024-02-22_16h19.05.011,kallum_motion_pilot,2023.2.2,Win32,59.88023952,6096ace01e65b3225e84d29f,65d6bb0e977760de756971f7,65d6bd02210973f7d2836cfa,0.044,0.0441,0,54,54,113,1,fiveseven,,,,,,,,,,,,,,,,,,,,,,,,,,,,,,,,,,,,,,,,,,,,,,,,,,,,,,,,,,,,,,,,,,,,,,,,,,,,,,,,,,,,,,,,,,,,,,,,,,,,,,,,,,,,,,,,,,,,,,,,,,,,,,,,,,,,,,,,,
,,6096ace01e65b3225e84d29f,2024-02-22_16h19.05.011,kallum_motion_pilot,2023.2.2,Win32,59.88023952,6096ace01e65b3225e84d29f,65d6bb0e977760de756971f7,65d6bd02210973f7d2836cfa,0.0443,0.0444,0,55,55,9,1,onethree,,,,,,,,,,,,,,,,,,,,,,,,,,,,,,,,,,,,,,,,,,,,,,,,,,,,,,,,,,,,,,,,,,,,,,,,,,,,,,,,,,,,,,,,,,,,,,,,,,,,,,,,,,,,,,,,,,,,,,,,,,,,,,,,,,,,,,,,,
,,6096ace01e65b3225e84d29f,2024-02-22_16h19.05.011,kallum_motion_pilot,2023.2.2,Win32,59.88023952,6096ace01e65b3225e84d29f,65d6bb0e977760de756971f7,65d6bd02210973f7d2836cfa,0.0444,0.0445,0,56,56,127,1,eightseven,,,,,,,,,,,,,,,,,,,,,,,,,,,,,,,,,,,,,,,,,,,,,,,,,,,,,,,,,,,,,,,,,,,,,,,,,,,,,,,,,,,,,,,,,,,,,,,,,,,,,,,,,,,,,,,,,,,,,,,,,,,,,,,,,,,,,,,,,
,,6096ace01e65b3225e84d29f,2024-02-22_16h19.05.011,kallum_motion_pilot,2023.2.2,Win32,59.88023952,6096ace01e65b3225e84d29f,65d6bb0e977760de756971f7,65d6bd02210973f7d2836cfa,0.0446,0.0447,0,57,57,31,1,fourthree,,,,,,,,,,,,,,,,,,,,,,,,,,,,,,,,,,,,,,,,,,,,,,,,,,,,,,,,,,,,,,,,,,,,,,,,,,,,,,,,,,,,,,,,,,,,,,,,,,,,,,,,,,,,,,,,,,,,,,,,,,,,,,,,,,,,,,,,,
,,6096ace01e65b3225e84d29f,2024-02-22_16h19.05.011,kallum_motion_pilot,2023.2.2,Win32,59.88023952,6096ace01e65b3225e84d29f,65d6bb0e977760de756971f7,65d6bd02210973f7d2836cfa,0.0447,0.0448,0,58,58,89,1,fiveseven,,,,,,,,,,,,,,,,,,,,,,,,,,,,,,,,,,,,,,,,,,,,,,,,,,,,,,,,,,,,,,,,,,,,,,,,,,,,,,,,,,,,,,,,,,,,,,,,,,,,,,,,,,,,,,,,,,,,,,,,,,,,,,,,,,,,,,,,,
,,6096ace01e65b3225e84d29f,2024-02-22_16h19.05.011,kallum_motion_pilot,2023.2.2,Win32,59.88023952,6096ace01e65b3225e84d29f,65d6bb0e977760de756971f7,65d6bd02210973f7d2836cfa,0.045,0.045,0,59,59,67,1,twofour,,,,,,,,,,,,,,,,,,,,,,,,,,,,,,,,,,,,,,,,,,,,,,,,,,,,,,,,,,,,,,,,,,,,,,,,,,,,,,,,,,,,,,,,,,,,,,,,,,,,,,,,,,,,,,,,,,,,,,,,,,,,,,,,,,,,,,,,,
,,6096ace01e65b3225e84d29f,2024-02-22_16h19.05.011,kallum_motion_pilot,2023.2.2,Win32,59.88023952,6096ace01e65b3225e84d29f,65d6bb0e977760de756971f7,65d6bd02210973f7d2836cfa,0.0452,0.0453,0,60,60,55,1,fourthree,,,,,,,,,,,,,,,,,,,,,,,,,,,,,,,,,,,,,,,,,,,,,,,,,,,,,,,,,,,,,,,,,,,,,,,,,,,,,,,,,,,,,,,,,,,,,,,,,,,,,,,,,,,,,,,,,,,,,,,,,,,,,,,,,,,,,,,,,
,,6096ace01e65b3225e84d29f,2024-02-22_16h19.05.011,kallum_motion_pilot,2023.2.2,Win32,59.88023952,6096ace01e65b3225e84d29f,65d6bb0e977760de756971f7,65d6bd02210973f7d2836cfa,0.0454,0.0455,0,61,61,65,1,onethree,,,,,,,,,,,,,,,,,,,,,,,,,,,,,,,,,,,,,,,,,,,,,,,,,,,,,,,,,,,,,,,,,,,,,,,,,,,,,,,,,,,,,,,,,,,,,,,,,,,,,,,,,,,,,,,,,,,,,,,,,,,,,,,,,,,,,,,,,
,,6096ace01e65b3225e84d29f,2024-02-22_16h19.05.011,kallum_motion_pilot,2023.2.2,Win32,59.88023952,6096ace01e65b3225e84d29f,65d6bb0e977760de756971f7,65d6bd02210973f7d2836cfa,0.0457,0.0459,0,62,62,54,1,fourtwo,,,,,,,,,,,,,,,,,,,,,,,,,,,,,,,,,,,,,,,,,,,,,,,,,,,,,,,,,,,,,,,,,,,,,,,,,,,,,,,,,,,,,,,,,,,,,,,,,,,,,,,,,,,,,,,,,,,,,,,,,,,,,,,,,,,,,,,,,
,,6096ace01e65b3225e84d29f,2024-02-22_16h19.05.011,kallum_motion_pilot,2023.2.2,Win32,59.88023952,6096ace01e65b3225e84d29f,65d6bb0e977760de756971f7,65d6bd02210973f7d2836cfa,0.046,0.0461,0,63,63,154,1,sixfive,,,,,,,,,,,,,,,,,,,,,,,,,,,,,,,,,,,,,,,,,,,,,,,,,,,,,,,,,,,,,,,,,,,,,,,,,,,,,,,,,,,,,,,,,,,,,,,,,,,,,,,,,,,,,,,,,,,,,,,,,,,,,,,,,,,,,,,,,
,,6096ace01e65b3225e84d29f,2024-02-22_16h19.05.011,kallum_motion_pilot,2023.2.2,Win32,59.88023952,6096ace01e65b3225e84d29f,65d6bb0e977760de756971f7,65d6bd02210973f7d2836cfa,0.0461,0.0462,0,64,64,73,1,onethree,,,,,,,,,,,,,,,,,,,,,,,,,,,,,,,,,,,,,,,,,,,,,,,,,,,,,,,,,,,,,,,,,,,,,,,,,,,,,,,,,,,,,,,,,,,,,,,,,,,,,,,,,,,,,,,,,,,,,,,,,,,,,,,,,,,,,,,,,
,,6096ace01e65b3225e84d29f,2024-02-22_16h19.05.011,kallum_motion_pilot,2023.2.2,Win32,59.88023952,6096ace01e65b3225e84d29f,65d6bb0e977760de756971f7,65d6bd02210973f7d2836cfa,0.0464,0.0465,0,65,65,99,1,sixeight,,,,,,,,,,,,,,,,,,,,,,,,,,,,,,,,,,,,,,,,,,,,,,,,,,,,,,,,,,,,,,,,,,,,,,,,,,,,,,,,,,,,,,,,,,,,,,,,,,,,,,,,,,,,,,,,,,,,,,,,,,,,,,,,,,,,,,,,,
,,6096ace01e65b3225e84d29f,2024-02-22_16h19.05.011,kallum_motion_pilot,2023.2.2,Win32,59.88023952,6096ace01e65b3225e84d29f,65d6bb0e977760de756971f7,65d6bd02210973f7d2836cfa,0.0466,0.0467,0,66,66,123,1,sixeight,,,,,,,,,,,,,,,,,,,,,,,,,,,,,,,,,,,,,,,,,,,,,,,,,,,,,,,,,,,,,,,,,,,,,,,,,,,,,,,,,,,,,,,,,,,,,,,,,,,,,,,,,,,,,,,,,,,,,,,,,,,,,,,,,,,,,,,,,
,,6096ace01e65b3225e84d29f,2024-02-22_16h19.05.011,kallum_motion_pilot,2023.2.2,Win32,59.88023952,6096ace01e65b3225e84d29f,65d6bb0e977760de756971f7,65d6bd02210973f7d2836cfa,0.0468,0.0468,0,67,67,58,1,twoone,,,,,,,,,,,,,,,,,,,,,,,,,,,,,,,,,,,,,,,,,,,,,,,,,,,,,,,,,,,,,,,,,,,,,,,,,,,,,,,,,,,,,,,,,,,,,,,,,,,,,,,,,,,,,,,,,,,,,,,,,,,,,,,,,,,,,,,,,
,,6096ace01e65b3225e84d29f,2024-02-22_16h19.05.011,kallum_motion_pilot,2023.2.2,Win32,59.88023952,6096ace01e65b3225e84d29f,65d6bb0e977760de756971f7,65d6bd02210973f7d2836cfa,0.047,0.047,0,68,68,4,1,threeone,,,,,,,,,,,,,,,,,,,,,,,,,,,,,,,,,,,,,,,,,,,,,,,,,,,,,,,,,,,,,,,,,,,,,,,,,,,,,,,,,,,,,,,,,,,,,,,,,,,,,,,,,,,,,,,,,,,,,,,,,,,,,,,,,,,,,,,,,
,,6096ace01e65b3225e84d29f,2024-02-22_16h19.05.011,kallum_motion_pilot,2023.2.2,Win32,59.88023952,6096ace01e65b3225e84d29f,65d6bb0e977760de756971f7,65d6bd02210973f7d2836cfa,0.0471,0.0473,0,69,69,27,1,twofour,,,,,,,,,,,,,,,,,,,,,,,,,,,,,,,,,,,,,,,,,,,,,,,,,,,,,,,,,,,,,,,,,,,,,,,,,,,,,,,,,,,,,,,,,,,,,,,,,,,,,,,,,,,,,,,,,,,,,,,,,,,,,,,,,,,,,,,,,
,,6096ace01e65b3225e84d29f,2024-02-22_16h19.05.011,kallum_motion_pilot,2023.2.2,Win32,59.88023952,6096ace01e65b3225e84d29f,65d6bb0e977760de756971f7,65d6bd02210973f7d2836cfa,0.0474,0.0476,0,70,70,107,1,sixeight,,,,,,,,,,,,,,,,,,,,,,,,,,,,,,,,,,,,,,,,,,,,,,,,,,,,,,,,,,,,,,,,,,,,,,,,,,,,,,,,,,,,,,,,,,,,,,,,,,,,,,,,,,,,,,,,,,,,,,,,,,,,,,,,,,,,,,,,,
,,6096ace01e65b3225e84d29f,2024-02-22_16h19.05.011,kallum_motion_pilot,2023.2.2,Win32,59.88023952,6096ace01e65b3225e84d29f,65d6bb0e977760de756971f7,65d6bd02210973f7d2836cfa,0.0478,0.0479,0,71,71,12,1,threeone,,,,,,,,,,,,,,,,,,,,,,,,,,,,,,,,,,,,,,,,,,,,,,,,,,,,,,,,,,,,,,,,,,,,,,,,,,,,,,,,,,,,,,,,,,,,,,,,,,,,,,,,,,,,,,,,,,,,,,,,,,,,,,,,,,,,,,,,,
,,6096ace01e65b3225e84d29f,2024-02-22_16h19.05.011,kallum_motion_pilot,2023.2.2,Win32,59.88023952,6096ace01e65b3225e84d29f,65d6bb0e977760de756971f7,65d6bd02210973f7d2836cfa,0.048,0.0481,0,72,72,142,1,eightsix,,,,,,,,,,,,,,,,,,,,,,,,,,,,,,,,,,,,,,,,,,,,,,,,,,,,,,,,,,,,,,,,,,,,,,,,,,,,,,,,,,,,,,,,,,,,,,,,,,,,,,,,,,,,,,,,,,,,,,,,,,,,,,,,,,,,,,,,,
,,6096ace01e65b3225e84d29f,2024-02-22_16h19.05.011,kallum_motion_pilot,2023.2.2,Win32,59.88023952,6096ace01e65b3225e84d29f,65d6bb0e977760de756971f7,65d6bd02210973f7d2836cfa,0.0484,0.0485,0,73,73,121,1,fiveseven,,,,,,,,,,,,,,,,,,,,,,,,,,,,,,,,,,,,,,,,,,,,,,,,,,,,,,,,,,,,,,,,,,,,,,,,,,,,,,,,,,,,,,,,,,,,,,,,,,,,,,,,,,,,,,,,,,,,,,,,,,,,,,,,,,,,,,,,,
,,6096ace01e65b3225e84d29f,2024-02-22_16h19.05.011,kallum_motion_pilot,2023.2.2,Win32,59.88023952,6096ace01e65b3225e84d29f,65d6bb0e977760de756971f7,65d6bd02210973f7d2836cfa,0.0488,0.0489,0,74,74,115,1,sixeight,,,,,,,,,,,,,,,,,,,,,,,,,,,,,,,,,,,,,,,,,,,,,,,,,,,,,,,,,,,,,,,,,,,,,,,,,,,,,,,,,,,,,,,,,,,,,,,,,,,,,,,,,,,,,,,,,,,,,,,,,,,,,,,,,,,,,,,,,
,,6096ace01e65b3225e84d29f,2024-02-22_16h19.05.011,kallum_motion_pilot,2023.2.2,Win32,59.88023952,6096ace01e65b3225e84d29f,65d6bb0e977760de756971f7,65d6bd02210973f7d2836cfa,0.049,0.0491,0,75,75,23,1,fourthree,,,,,,,,,,,,,,,,,,,,,,,,,,,,,,,,,,,,,,,,,,,,,,,,,,,,,,,,,,,,,,,,,,,,,,,,,,,,,,,,,,,,,,,,,,,,,,,,,,,,,,,,,,,,,,,,,,,,,,,,,,,,,,,,,,,,,,,,,
,,6096ace01e65b3225e84d29f,2024-02-22_16h19.05.011,kallum_motion_pilot,2023.2.2,Win32,59.88023952,6096ace01e65b3225e84d29f,65d6bb0e977760de756971f7,65d6bd02210973f7d2836cfa,0.0492,0.0493,0,76,76,95,1,eightseven,,,,,,,,,,,,,,,,,,,,,,,,,,,,,,,,,,,,,,,,,,,,,,,,,,,,,,,,,,,,,,,,,,,,,,,,,,,,,,,,,,,,,,,,,,,,,,,,,,,,,,,,,,,,,,,,,,,,,,,,,,,,,,,,,,,,,,,,,
,,6096ace01e65b3225e84d29f,2024-02-22_16h19.05.011,kallum_motion_pilot,2023.2.2,Win32,59.88023952,6096ace01e65b3225e84d29f,65d6bb0e977760de756971f7,65d6bd02210973f7d2836cfa,0.0495,0.0496,0,77,77,87,1,eightseven,,,,,,,,,,,,,,,,,,,,,,,,,,,,,,,,,,,,,,,,,,,,,,,,,,,,,,,,,,,,,,,,,,,,,,,,,,,,,,,,,,,,,,,,,,,,,,,,,,,,,,,,,,,,,,,,,,,,,,,,,,,,,,,,,,,,,,,,,
,,6096ace01e65b3225e84d29f,2024-02-22_16h19.05.011,kallum_motion_pilot,2023.2.2,Win32,59.88023952,6096ace01e65b3225e84d29f,65d6bb0e977760de756971f7,65d6bd02210973f7d2836cfa,0.0497,0.0498,0,78,78,52,1,threeone,,,,,,,,,,,,,,,,,,,,,,,,,,,,,,,,,,,,,,,,,,,,,,,,,,,,,,,,,,,,,,,,,,,,,,,,,,,,,,,,,,,,,,,,,,,,,,,,,,,,,,,,,,,,,,,,,,,,,,,,,,,,,,,,,,,,,,,,,
,,6096ace01e65b3225e84d29f,2024-02-22_16h19.05.011,kallum_motion_pilot,2023.2.2,Win32,59.88023952,6096ace01e65b3225e84d29f,65d6bb0e977760de756971f7,65d6bd02210973f7d2836cfa,0.0499,0.0499,0,79,79,56,1,onetwo,,,,,,,,,,,,,,,,,,,,,,,,,,,,,,,,,,,,,,,,,,,,,,,,,,,,,,,,,,,,,,,,,,,,,,,,,,,,,,,,,,,,,,,,,,,,,,,,,,,,,,,,,,,,,,,,,,,,,,,,,,,,,,,,,,,,,,,,,
,,6096ace01e65b3225e84d29f,2024-02-22_16h19.05.011,kallum_motion_pilot,2023.2.2,Win32,59.88023952,6096ace01e65b3225e84d29f,65d6bb0e977760de756971f7,65d6bd02210973f7d2836cfa,0.0501,0.0502,0,80,80,40,1,onetwo,,,,,,,,,,,,,,,,,,,,,,,,,,,,,,,,,,,,,,,,,,,,,,,,,,,,,,,,,,,,,,,,,,,,,,,,,,,,,,,,,,,,,,,,,,,,,,,,,,,,,,,,,,,,,,,,,,,,,,,,,,,,,,,,,,,,,,,,,
,,6096ace01e65b3225e84d29f,2024-02-22_16h19.05.011,kallum_motion_pilot,2023.2.2,Win32,59.88023952,6096ace01e65b3225e84d29f,65d6bb0e977760de756971f7,65d6bd02210973f7d2836cfa,0.0503,0.0503,0,81,81,68,1,threeone,,,,,,,,,,,,,,,,,,,,,,,,,,,,,,,,,,,,,,,,,,,,,,,,,,,,,,,,,,,,,,,,,,,,,,,,,,,,,,,,,,,,,,,,,,,,,,,,,,,,,,,,,,,,,,,,,,,,,,,,,,,,,,,,,,,,,,,,,
,,6096ace01e65b3225e84d29f,2024-02-22_16h19.05.011,kallum_motion_pilot,2023.2.2,Win32,59.88023952,6096ace01e65b3225e84d29f,65d6bb0e977760de756971f7,65d6bd02210973f7d2836cfa,0.0504,0.0504,0,82,82,157,1,seveneight,,,,,,,,,,,,,,,,,,,,,,,,,,,,,,,,,,,,,,,,,,,,,,,,,,,,,,,,,,,,,,,,,,,,,,,,,,,,,,,,,,,,,,,,,,,,,,,,,,,,,,,,,,,,,,,,,,,,,,,,,,,,,,,,,,,,,,,,,
,,6096ace01e65b3225e84d29f,2024-02-22_16h19.05.011,kallum_motion_pilot,2023.2.2,Win32,59.88023952,6096ace01e65b3225e84d29f,65d6bb0e977760de756971f7,65d6bd02210973f7d2836cfa,0.0507,0.0507,0,83,83,80,1,fivesix,,,,,,,,,,,,,,,,,,,,,,,,,,,,,,,,,,,,,,,,,,,,,,,,,,,,,,,,,,,,,,,,,,,,,,,,,,,,,,,,,,,,,,,,,,,,,,,,,,,,,,,,,,,,,,,,,,,,,,,,,,,,,,,,,,,,,,,,,
,,6096ace01e65b3225e84d29f,2024-02-22_16h19.05.011,kallum_motion_pilot,2023.2.2,Win32,59.88023952,6096ace01e65b3225e84d29f,65d6bb0e977760de756971f7,65d6bd02210973f7d2836cfa,0.0509,0.051,0,84,84,14,1,fourtwo,,,,,,,,,,,,,,,,,,,,,,,,,,,,,,,,,,,,,,,,,,,,,,,,,,,,,,,,,,,,,,,,,,,,,,,,,,,,,,,,,,,,,,,,,,,,,,,,,,,,,,,,,,,,,,,,,,,,,,,,,,,,,,,,,,,,,,,,,
,,6096ace01e65b3225e84d29f,2024-02-22_16h19.05.011,kallum_motion_pilot,2023.2.2,Win32,59.88023952,6096ace01e65b3225e84d29f,65d6bb0e977760de756971f7,65d6bd02210973f7d2836cfa,0.0511,0.0512,0,85,85,63,1,fourthree,,,,,,,,,,,,,,,,,,,,,,,,,,,,,,,,,,,,,,,,,,,,,,,,,,,,,,,,,,,,,,,,,,,,,,,,,,,,,,,,,,,,,,,,,,,,,,,,,,,,,,,,,,,,,,,,,,,,,,,,,,,,,,,,,,,,,,,,,
,,6096ace01e65b3225e84d29f,2024-02-22_16h19.05.011,kallum_motion_pilot,2023.2.2,Win32,59.88023952,6096ace01e65b3225e84d29f,65d6bb0e977760de756971f7,65d6bd02210973f7d2836cfa,0.0514,0.0514,0,86,86,84,1,sevenfive,,,,,,,,,,,,,,,,,,,,,,,,,,,,,,,,,,,,,,,,,,,,,,,,,,,,,,,,,,,,,,,,,,,,,,,,,,,,,,,,,,,,,,,,,,,,,,,,,,,,,,,,,,,,,,,,,,,,,,,,,,,,,,,,,,,,,,,,,
,,6096ace01e65b3225e84d29f,2024-02-22_16h19.05.011,kallum_motion_pilot,2023.2.2,Win32,59.88023952,6096ace01e65b3225e84d29f,65d6bb0e977760de756971f7,65d6bd02210973f7d2836cfa,0.0516,0.0517,0,87,87,60,1,threeone,,,,,,,,,,,,,,,,,,,,,,,,,,,,,,,,,,,,,,,,,,,,,,,,,,,,,,,,,,,,,,,,,,,,,,,,,,,,,,,,,,,,,,,,,,,,,,,,,,,,,,,,,,,,,,,,,,,,,,,,,,,,,,,,,,,,,,,,,
,,6096ace01e65b3225e84d29f,2024-02-22_16h19.05.011,kallum_motion_pilot,2023.2.2,Win32,59.88023952,6096ace01e65b3225e84d29f,65d6bb0e977760de756971f7,65d6bd02210973f7d2836cfa,0.0518,0.0518,0,88,88,108,1,sevenfive,,,,,,,,,,,,,,,,,,,,,,,,,,,,,,,,,,,,,,,,,,,,,,,,,,,,,,,,,,,,,,,,,,,,,,,,,,,,,,,,,,,,,,,,,,,,,,,,,,,,,,,,,,,,,,,,,,,,,,,,,,,,,,,,,,,,,,,,,
,,6096ace01e65b3225e84d29f,2024-02-22_16h19.05.011,kallum_motion_pilot,2023.2.2,Win32,59.88023952,6096ace01e65b3225e84d29f,65d6bb0e977760de756971f7,65d6bd02210973f7d2836cfa,0.052,0.0521,0,89,89,161,1,fiveseven,,,,,,,,,,,,,,,,,,,,,,,,,,,,,,,,,,,,,,,,,,,,,,,,,,,,,,,,,,,,,,,,,,,,,,,,,,,,,,,,,,,,,,,,,,,,,,,,,,,,,,,,,,,,,,,,,,,,,,,,,,,,,,,,,,,,,,,,,
,,6096ace01e65b3225e84d29f,2024-02-22_16h19.05.011,kallum_motion_pilot,2023.2.2,Win32,59.88023952,6096ace01e65b3225e84d29f,65d6bb0e977760de756971f7,65d6bd02210973f7d2836cfa,0.0522,0.0523,0,90,90,57,1,onethree,,,,,,,,,,,,,,,,,,,,,,,,,,,,,,,,,,,,,,,,,,,,,,,,,,,,,,,,,,,,,,,,,,,,,,,,,,,,,,,,,,,,,,,,,,,,,,,,,,,,,,,,,,,,,,,,,,,,,,,,,,,,,,,,,,,,,,,,,
,,6096ace01e65b3225e84d29f,2024-02-22_16h19.05.011,kallum_motion_pilot,2023.2.2,Win32,59.88023952,6096ace01e65b3225e84d29f,65d6bb0e977760de756971f7,65d6bd02210973f7d2836cfa,0.0524,0.0524,0,91,91,6,1,fourtwo,,,,,,,,,,,,,,,,,,,,,,,,,,,,,,,,,,,,,,,,,,,,,,,,,,,,,,,,,,,,,,,,,,,,,,,,,,,,,,,,,,,,,,,,,,,,,,,,,,,,,,,,,,,,,,,,,,,,,,,,,,,,,,,,,,,,,,,,,
,,6096ace01e65b3225e84d29f,2024-02-22_16h19.05.011,kallum_motion_pilot,2023.2.2,Win32,59.88023952,6096ace01e65b3225e84d29f,65d6bb0e977760de756971f7,65d6bd02210973f7d2836cfa,0.0526,0.0527,0,92,92,15,1,fourthree,,,,,,,,,,,,,,,,,,,,,,,,,,,,,,,,,,,,,,,,,,,,,,,,,,,,,,,,,,,,,,,,,,,,,,,,,,,,,,,,,,,,,,,,,,,,,,,,,,,,,,,,,,,,,,,,,,,,,,,,,,,,,,,,,,,,,,,,,
,,6096ace01e65b3225e84d29f,2024-02-22_16h19.05.011,kallum_motion_pilot,2023.2.2,Win32,59.88023952,6096ace01e65b3225e84d29f,65d6bb0e977760de756971f7,65d6bd02210973f7d2836cfa,0.0527,0.0528,0,93,93,100,1,sevenfive,,,,,,,,,,,,,,,,,,,,,,,,,,,,,,,,,,,,,,,,,,,,,,,,,,,,,,,,,,,,,,,,,,,,,,,,,,,,,,,,,,,,,,,,,,,,,,,,,,,,,,,,,,,,,,,,,,,,,,,,,,,,,,,,,,,,,,,,,
,,6096ace01e65b3225e84d29f,2024-02-22_16h19.05.011,kallum_motion_pilot,2023.2.2,Win32,59.88023952,6096ace01e65b3225e84d29f,65d6bb0e977760de756971f7,65d6bd02210973f7d2836cfa,0.053,0.0531,0,94,94,48,1,onetwo,,,,,,,,,,,,,,,,,,,,,,,,,,,,,,,,,,,,,,,,,,,,,,,,,,,,,,,,,,,,,,,,,,,,,,,,,,,,,,,,,,,,,,,,,,,,,,,,,,,,,,,,,,,,,,,,,,,,,,,,,,,,,,,,,,,,,,,,,
,,6096ace01e65b3225e84d29f,2024-02-22_16h19.05.011,kallum_motion_pilot,2023.2.2,Win32,59.88023952,6096ace01e65b3225e84d29f,65d6bb0e977760de756971f7,65d6bd02210973f7d2836cfa,0.0532,0.0534,0,95,95,141,1,seveneight,,,,,,,,,,,,,,,,,,,,,,,,,,,,,,,,,,,,,,,,,,,,,,,,,,,,,,,,,,,,,,,,,,,,,,,,,,,,,,,,,,,,,,,,,,,,,,,,,,,,,,,,,,,,,,,,,,,,,,,,,,,,,,,,,,,,,,,,,
,,6096ace01e65b3225e84d29f,2024-02-22_16h19.05.011,kallum_motion_pilot,2023.2.2,Win32,59.88023952,6096ace01e65b3225e84d29f,65d6bb0e977760de756971f7,65d6bd02210973f7d2836cfa,0.0535,0.0536,0,96,96,103,1,eightseven,,,,,,,,,,,,,,,,,,,,,,,,,,,,,,,,,,,,,,,,,,,,,,,,,,,,,,,,,,,,,,,,,,,,,,,,,,,,,,,,,,,,,,,,,,,,,,,,,,,,,,,,,,,,,,,,,,,,,,,,,,,,,,,,,,,,,,,,,
,,6096ace01e65b3225e84d29f,2024-02-22_16h19.05.011,kallum_motion_pilot,2023.2.2,Win32,59.88023952,6096ace01e65b3225e84d29f,65d6bb0e977760de756971f7,65d6bd02210973f7d2836cfa,0.0537,0.0537,0,97,97,112,1,fivesix,,,,,,,,,,,,,,,,,,,,,,,,,,,,,,,,,,,,,,,,,,,,,,,,,,,,,,,,,,,,,,,,,,,,,,,,,,,,,,,,,,,,,,,,,,,,,,,,,,,,,,,,,,,,,,,,,,,,,,,,,,,,,,,,,,,,,,,,,
,,6096ace01e65b3225e84d29f,2024-02-22_16h19.05.011,kallum_motion_pilot,2023.2.2,Win32,59.88023952,6096ace01e65b3225e84d29f,65d6bb0e977760de756971f7,65d6bd02210973f7d2836cfa,0.0539,0.0539,0,98,98,130,1,sixfive,,,,,,,,,,,,,,,,,,,,,,,,,,,,,,,,,,,,,,,,,,,,,,,,,,,,,,,,,,,,,,,,,,,,,,,,,,,,,,,,,,,,,,,,,,,,,,,,,,,,,,,,,,,,,,,,,,,,,,,,,,,,,,,,,,,,,,,,,
,,6096ace01e65b3225e84d29f,2024-02-22_16h19.05.011,kallum_motion_pilot,2023.2.2,Win32,59.88023952,6096ace01e65b3225e84d29f,65d6bb0e977760de756971f7,65d6bd02210973f7d2836cfa,0.0541,0.0542,0,99,99,118,1,eightsix,,,,,,,,,,,,,,,,,,,,,,,,,,,,,,,,,,,,,,,,,,,,,,,,,,,,,,,,,,,,,,,,,,,,,,,,,,,,,,,,,,,,,,,,,,,,,,,,,,,,,,,,,,,,,,,,,,,,,,,,,,,,,,,,,,,,,,,,,
,,6096ace01e65b3225e84d29f,2024-02-22_16h19.05.011,kallum_motion_pilot,2023.2.2,Win32,59.88023952,6096ace01e65b3225e84d29f,65d6bb0e977760de756971f7,65d6bd02210973f7d2836cfa,0.0543,0.0544,0,100,100,147,1,sixeight,,,,,,,,,,,,,,,,,,,,,,,,,,,,,,,,,,,,,,,,,,,,,,,,,,,,,,,,,,,,,,,,,,,,,,,,,,,,,,,,,,,,,,,,,,,,,,,,,,,,,,,,,,,,,,,,,,,,,,,,,,,,,,,,,,,,,,,,,
,,6096ace01e65b3225e84d29f,2024-02-22_16h19.05.011,kallum_motion_pilot,2023.2.2,Win32,59.88023952,6096ace01e65b3225e84d29f,65d6bb0e977760de756971f7,65d6bd02210973f7d2836cfa,0.0545,0.0546,0,101,101,81,1,fiveseven,,,,,,,,,,,,,,,,,,,,,,,,,,,,,,,,,,,,,,,,,,,,,,,,,,,,,,,,,,,,,,,,,,,,,,,,,,,,,,,,,,,,,,,,,,,,,,,,,,,,,,,,,,,,,,,,,,,,,,,,,,,,,,,,,,,,,,,,,
,,6096ace01e65b3225e84d29f,2024-02-22_16h19.05.011,kallum_motion_pilot,2023.2.2,Win32,59.88023952,6096ace01e65b3225e84d29f,65d6bb0e977760de756971f7,65d6bd02210973f7d2836cfa,0.0547,0.0591,0,102,102,149,1,seveneight,,,,,,,,,,,,,,,,,,,,,,,,,,,,,,,,,,,,,,,,,,,,,,,,,,,,,,,,,,,,,,,,,,,,,,,,,,,,,,,,,,,,,,,,,,,,,,,,,,,,,,,,,,,,,,,,,,,,,,,,,,,,,,,,,,,,,,,,,
,,6096ace01e65b3225e84d29f,2024-02-22_16h19.05.011,kallum_motion_pilot,2023.2.2,Win32,59.88023952,6096ace01e65b3225e84d29f,65d6bb0e977760de756971f7,65d6bd02210973f7d2836cfa,0.0593,0.0594,0,103,103,47,1,fourthree,,,,,,,,,,,,,,,,,,,,,,,,,,,,,,,,,,,,,,,,,,,,,,,,,,,,,,,,,,,,,,,,,,,,,,,,,,,,,,,,,,,,,,,,,,,,,,,,,,,,,,,,,,,,,,,,,,,,,,,,,,,,,,,,,,,,,,,,,
,,6096ace01e65b3225e84d29f,2024-02-22_16h19.05.011,kallum_motion_pilot,2023.2.2,Win32,59.88023952,6096ace01e65b3225e84d29f,65d6bb0e977760de756971f7,65d6bd02210973f7d2836cfa,0.0596,0.0596,0,104,104,152,1,fivesix,,,,,,,,,,,,,,,,,,,,,,,,,,,,,,,,,,,,,,,,,,,,,,,,,,,,,,,,,,,,,,,,,,,,,,,,,,,,,,,,,,,,,,,,,,,,,,,,,,,,,,,,,,,,,,,,,,,,,,,,,,,,,,,,,,,,,,,,,
,,6096ace01e65b3225e84d29f,2024-02-22_16h19.05.011,kallum_motion_pilot,2023.2.2,Win32,59.88023952,6096ace01e65b3225e84d29f,65d6bb0e977760de756971f7,65d6bd02210973f7d2836cfa,0.0598,0.0598,0,105,105,128,1,fivesix,,,,,,,,,,,,,,,,,,,,,,,,,,,,,,,,,,,,,,,,,,,,,,,,,,,,,,,,,,,,,,,,,,,,,,,,,,,,,,,,,,,,,,,,,,,,,,,,,,,,,,,,,,,,,,,,,,,,,,,,,,,,,,,,,,,,,,,,,
,,6096ace01e65b3225e84d29f,2024-02-22_16h19.05.011,kallum_motion_pilot,2023.2.2,Win32,59.88023952,6096ace01e65b3225e84d29f,65d6bb0e977760de756971f7,65d6bd02210973f7d2836cfa,0.06,0.06,0,106,106,41,1,onethree,,,,,,,,,,,,,,,,,,,,,,,,,,,,,,,,,,,,,,,,,,,,,,,,,,,,,,,,,,,,,,,,,,,,,,,,,,,,,,,,,,,,,,,,,,,,,,,,,,,,,,,,,,,,,,,,,,,,,,,,,,,,,,,,,,,,,,,,,
,,6096ace01e65b3225e84d29f,2024-02-22_16h19.05.011,kallum_motion_pilot,2023.2.2,Win32,59.88023952,6096ace01e65b3225e84d29f,65d6bb0e977760de756971f7,65d6bd02210973f7d2836cfa,0.0601,0.0602,0,107,107,16,1,onetwo,,,,,,,,,,,,,,,,,,,,,,,,,,,,,,,,,,,,,,,,,,,,,,,,,,,,,,,,,,,,,,,,,,,,,,,,,,,,,,,,,,,,,,,,,,,,,,,,,,,,,,,,,,,,,,,,,,,,,,,,,,,,,,,,,,,,,,,,,
,,6096ace01e65b3225e84d29f,2024-02-22_16h19.05.011,kallum_motion_pilot,2023.2.2,Win32,59.88023952,6096ace01e65b3225e84d29f,65d6bb0e977760de756971f7,65d6bd02210973f7d2836cfa,0.0603,0.0604,0,108,108,29,1,threefour,,,,,,,,,,,,,,,,,,,,,,,,,,,,,,,,,,,,,,,,,,,,,,,,,,,,,,,,,,,,,,,,,,,,,,,,,,,,,,,,,,,,,,,,,,,,,,,,,,,,,,,,,,,,,,,,,,,,,,,,,,,,,,,,,,,,,,,,,
,,6096ace01e65b3225e84d29f,2024-02-22_16h19.05.011,kallum_motion_pilot,2023.2.2,Win32,59.88023952,6096ace01e65b3225e84d29f,65d6bb0e977760de756971f7,65d6bd02210973f7d2836cfa,0.0605,0.0606,0,109,109,124,1,sevenfive,,,,,,,,,,,,,,,,,,,,,,,,,,,,,,,,,,,,,,,,,,,,,,,,,,,,,,,,,,,,,,,,,,,,,,,,,,,,,,,,,,,,,,,,,,,,,,,,,,,,,,,,,,,,,,,,,,,,,,,,,,,,,,,,,,,,,,,,,
,,6096ace01e65b3225e84d29f,2024-02-22_16h19.05.011,kallum_motion_pilot,2023.2.2,Win32,59.88023952,6096ace01e65b3225e84d29f,65d6bb0e977760de756971f7,65d6bd02210973f7d2836cfa,0.0607,0.0607,0,110,110,144,1,fivesix,,,,,,,,,,,,,,,,,,,,,,,,,,,,,,,,,,,,,,,,,,,,,,,,,,,,,,,,,,,,,,,,,,,,,,,,,,,,,,,,,,,,,,,,,,,,,,,,,,,,,,,,,,,,,,,,,,,,,,,,,,,,,,,,,,,,,,,,,
,,6096ace01e65b3225e84d29f,2024-02-22_16h19.05.011,kallum_motion_pilot,2023.2.2,Win32,59.88023952,6096ace01e65b3225e84d29f,65d6bb0e977760de756971f7,65d6bd02210973f7d2836cfa,0.0609,0.061,0,111,111,59,1,twofour,,,,,,,,,,,,,,,,,,,,,,,,,,,,,,,,,,,,,,,,,,,,,,,,,,,,,,,,,,,,,,,,,,,,,,,,,,,,,,,,,,,,,,,,,,,,,,,,,,,,,,,,,,,,,,,,,,,,,,,,,,,,,,,,,,,,,,,,,
,,6096ace01e65b3225e84d29f,2024-02-22_16h19.05.011,kallum_motion_pilot,2023.2.2,Win32,59.88023952,6096ace01e65b3225e84d29f,65d6bb0e977760de756971f7,65d6bd02210973f7d2836cfa,0.0611,0.0612,0,112,112,50,1,twoone,,,,,,,,,,,,,,,,,,,,,,,,,,,,,,,,,,,,,,,,,,,,,,,,,,,,,,,,,,,,,,,,,,,,,,,,,,,,,,,,,,,,,,,,,,,,,,,,,,,,,,,,,,,,,,,,,,,,,,,,,,,,,,,,,,,,,,,,,
,,6096ace01e65b3225e84d29f,2024-02-22_16h19.05.011,kallum_motion_pilot,2023.2.2,Win32,59.88023952,6096ace01e65b3225e84d29f,65d6bb0e977760de756971f7,65d6bd02210973f7d2836cfa,0.0613,0.0614,0,113,113,153,1,fiveseven,,,,,,,,,,,,,,,,,,,,,,,,,,,,,,,,,,,,,,,,,,,,,,,,,,,,,,,,,,,,,,,,,,,,,,,,,,,,,,,,,,,,,,,,,,,,,,,,,,,,,,,,,,,,,,,,,,,,,,,,,,,,,,,,,,,,,,,,,
,,6096ace01e65b3225e84d29f,2024-02-22_16h19.05.011,kallum_motion_pilot,2023.2.2,Win32,59.88023952,6096ace01e65b3225e84d29f,65d6bb0e977760de756971f7,65d6bd02210973f7d2836cfa,0.0615,0.0615,0,114,114,143,1,eightseven,,,,,,,,,,,,,,,,,,,,,,,,,,,,,,,,,,,,,,,,,,,,,,,,,,,,,,,,,,,,,,,,,,,,,,,,,,,,,,,,,,,,,,,,,,,,,,,,,,,,,,,,,,,,,,,,,,,,,,,,,,,,,,,,,,,,,,,,,
,,6096ace01e65b3225e84d29f,2024-02-22_16h19.05.011,kallum_motion_pilot,2023.2.2,Win32,59.88023952,6096ace01e65b3225e84d29f,65d6bb0e977760de756971f7,65d6bd02210973f7d2836cfa,0.0617,0.0618,0,115,115,158,1,eightsix,,,,,,,,,,,,,,,,,,,,,,,,,,,,,,,,,,,,,,,,,,,,,,,,,,,,,,,,,,,,,,,,,,,,,,,,,,,,,,,,,,,,,,,,,,,,,,,,,,,,,,,,,,,,,,,,,,,,,,,,,,,,,,,,,,,,,,,,,
,,6096ace01e65b3225e84d29f,2024-02-22_16h19.05.011,kallum_motion_pilot,2023.2.2,Win32,59.88023952,6096ace01e65b3225e84d29f,65d6bb0e977760de756971f7,65d6bd02210973f7d2836cfa,0.062,0.0621,0,116,116,116,1,sevenfive,,,,,,,,,,,,,,,,,,,,,,,,,,,,,,,,,,,,,,,,,,,,,,,,,,,,,,,,,,,,,,,,,,,,,,,,,,,,,,,,,,,,,,,,,,,,,,,,,,,,,,,,,,,,,,,,,,,,,,,,,,,,,,,,,,,,,,,,,
,,6096ace01e65b3225e84d29f,2024-02-22_16h19.05.011,kallum_motion_pilot,2023.2.2,Win32,59.88023952,6096ace01e65b3225e84d29f,65d6bb0e977760de756971f7,65d6bd02210973f7d2836cfa,0.0622,0.0623,0,117,117,28,1,threeone,,,,,,,,,,,,,,,,,,,,,,,,,,,,,,,,,,,,,,,,,,,,,,,,,,,,,,,,,,,,,,,,,,,,,,,,,,,,,,,,,,,,,,,,,,,,,,,,,,,,,,,,,,,,,,,,,,,,,,,,,,,,,,,,,,,,,,,,,
,,6096ace01e65b3225e84d29f,2024-02-22_16h19.05.011,kallum_motion_pilot,2023.2.2,Win32,59.88023952,6096ace01e65b3225e84d29f,65d6bb0e977760de756971f7,65d6bd02210973f7d2836cfa,0.0625,0.0626,0,118,118,111,1,eightseven,,,,,,,,,,,,,,,,,,,,,,,,,,,,,,,,,,,,,,,,,,,,,,,,,,,,,,,,,,,,,,,,,,,,,,,,,,,,,,,,,,,,,,,,,,,,,,,,,,,,,,,,,,,,,,,,,,,,,,,,,,,,,,,,,,,,,,,,,
,,6096ace01e65b3225e84d29f,2024-02-22_16h19.05.011,kallum_motion_pilot,2023.2.2,Win32,59.88023952,6096ace01e65b3225e84d29f,65d6bb0e977760de756971f7,65d6bd02210973f7d2836cfa,0.0628,0.0628,0,119,119,101,1,seveneight,,,,,,,,,,,,,,,,,,,,,,,,,,,,,,,,,,,,,,,,,,,,,,,,,,,,,,,,,,,,,,,,,,,,,,,,,,,,,,,,,,,,,,,,,,,,,,,,,,,,,,,,,,,,,,,,,,,,,,,,,,,,,,,,,,,,,,,,,
,,6096ace01e65b3225e84d29f,2024-02-22_16h19.05.011,kallum_motion_pilot,2023.2.2,Win32,59.88023952,6096ace01e65b3225e84d29f,65d6bb0e977760de756971f7,65d6bd02210973f7d2836cfa,0.063,0.0631,0,120,120,18,1,twoone,,,,,,,,,,,,,,,,,,,,,,,,,,,,,,,,,,,,,,,,,,,,,,,,,,,,,,,,,,,,,,,,,,,,,,,,,,,,,,,,,,,,,,,,,,,,,,,,,,,,,,,,,,,,,,,,,,,,,,,,,,,,,,,,,,,,,,,,,
,,6096ace01e65b3225e84d29f,2024-02-22_16h19.05.011,kallum_motion_pilot,2023.2.2,Win32,59.88023952,6096ace01e65b3225e84d29f,65d6bb0e977760de756971f7,65d6bd02210973f7d2836cfa,0.0633,0.0634,0,121,121,156,1,sevenfive,,,,,,,,,,,,,,,,,,,,,,,,,,,,,,,,,,,,,,,,,,,,,,,,,,,,,,,,,,,,,,,,,,,,,,,,,,,,,,,,,,,,,,,,,,,,,,,,,,,,,,,,,,,,,,,,,,,,,,,,,,,,,,,,,,,,,,,,,
,,6096ace01e65b3225e84d29f,2024-02-22_16h19.05.011,kallum_motion_pilot,2023.2.2,Win32,59.88023952,6096ace01e65b3225e84d29f,65d6bb0e977760de756971f7,65d6bd02210973f7d2836cfa,0.0635,0.0636,0,122,122,7,1,fourthree,,,,,,,,,,,,,,,,,,,,,,,,,,,,,,,,,,,,,,,,,,,,,,,,,,,,,,,,,,,,,,,,,,,,,,,,,,,,,,,,,,,,,,,,,,,,,,,,,,,,,,,,,,,,,,,,,,,,,,,,,,,,,,,,,,,,,,,,,
,,6096ace01e65b3225e84d29f,2024-02-22_16h19.05.011,kallum_motion_pilot,2023.2.2,Win32,59.88023952,6096ace01e65b3225e84d29f,65d6bb0e977760de756971f7,65d6bd02210973f7d2836cfa,0.0638,0.0638,0,123,123,10,1,twoone,,,,,,,,,,,,,,,,,,,,,,,,,,,,,,,,,,,,,,,,,,,,,,,,,,,,,,,,,,,,,,,,,,,,,,,,,,,,,,,,,,,,,,,,,,,,,,,,,,,,,,,,,,,,,,,,,,,,,,,,,,,,,,,,,,,,,,,,,
,,6096ace01e65b3225e84d29f,2024-02-22_16h19.05.011,kallum_motion_pilot,2023.2.2,Win32,59.88023952,6096ace01e65b3225e84d29f,65d6bb0e977760de756971f7,65d6bd02210973f7d2836cfa,0.064,0.064,0,124,124,69,1,threefour,,,,,,,,,,,,,,,,,,,,,,,,,,,,,,,,,,,,,,,,,,,,,,,,,,,,,,,,,,,,,,,,,,,,,,,,,,,,,,,,,,,,,,,,,,,,,,,,,,,,,,,,,,,,,,,,,,,,,,,,,,,,,,,,,,,,,,,,,
,,6096ace01e65b3225e84d29f,2024-02-22_16h19.05.011,kallum_motion_pilot,2023.2.2,Win32,59.88023952,6096ace01e65b3225e84d29f,65d6bb0e977760de756971f7,65d6bd02210973f7d2836cfa,0.0643,0.0643,0,125,125,119,1,eightseven,,,,,,,,,,,,,,,,,,,,,,,,,,,,,,,,,,,,,,,,,,,,,,,,,,,,,,,,,,,,,,,,,,,,,,,,,,,,,,,,,,,,,,,,,,,,,,,,,,,,,,,,,,,,,,,,,,,,,,,,,,,,,,,,,,,,,,,,,
,,6096ace01e65b3225e84d29f,2024-02-22_16h19.05.011,kallum_motion_pilot,2023.2.2,Win32,59.88023952,6096ace01e65b3225e84d29f,65d6bb0e977760de756971f7,65d6bd02210973f7d2836cfa,0.0645,0.0647,0,126,126,146,1,sixfive,,,,,,,,,,,,,,,,,,,,,,,,,,,,,,,,,,,,,,,,,,,,,,,,,,,,,,,,,,,,,,,,,,,,,,,,,,,,,,,,,,,,,,,,,,,,,,,,,,,,,,,,,,,,,,,,,,,,,,,,,,,,,,,,,,,,,,,,,
,,6096ace01e65b3225e84d29f,2024-02-22_16h19.05.011,kallum_motion_pilot,2023.2.2,Win32,59.88023952,6096ace01e65b3225e84d29f,65d6bb0e977760de756971f7,65d6bd02210973f7d2836cfa,0.0648,0.0649,0,127,127,2,1,twoone,,,,,,,,,,,,,,,,,,,,,,,,,,,,,,,,,,,,,,,,,,,,,,,,,,,,,,,,,,,,,,,,,,,,,,,,,,,,,,,,,,,,,,,,,,,,,,,,,,,,,,,,,,,,,,,,,,,,,,,,,,,,,,,,,,,,,,,,,
,,6096ace01e65b3225e84d29f,2024-02-22_16h19.05.011,kallum_motion_pilot,2023.2.2,Win32,59.88023952,6096ace01e65b3225e84d29f,65d6bb0e977760de756971f7,65d6bd02210973f7d2836cfa,0.0651,0.0652,0,128,128,135,1,eightseven,,,,,,,,,,,,,,,,,,,,,,,,,,,,,,,,,,,,,,,,,,,,,,,,,,,,,,,,,,,,,,,,,,,,,,,,,,,,,,,,,,,,,,,,,,,,,,,,,,,,,,,,,,,,,,,,,,,,,,,,,,,,,,,,,,,,,,,,,
,,6096ace01e65b3225e84d29f,2024-02-22_16h19.05.011,kallum_motion_pilot,2023.2.2,Win32,59.88023952,6096ace01e65b3225e84d29f,65d6bb0e977760de756971f7,65d6bd02210973f7d2836cfa,0.0654,0.0655,0,129,129,106,1,sixfive,,,,,,,,,,,,,,,,,,,,,,,,,,,,,,,,,,,,,,,,,,,,,,,,,,,,,,,,,,,,,,,,,,,,,,,,,,,,,,,,,,,,,,,,,,,,,,,,,,,,,,,,,,,,,,,,,,,,,,,,,,,,,,,,,,,,,,,,,
,,6096ace01e65b3225e84d29f,2024-02-22_16h19.05.011,kallum_motion_pilot,2023.2.2,Win32,59.88023952,6096ace01e65b3225e84d29f,65d6bb0e977760de756971f7,65d6bd02210973f7d2836cfa,0.0658,0.066,0,130,130,33,1,onethree,,,,,,,,,,,,,,,,,,,,,,,,,,,,,,,,,,,,,,,,,,,,,,,,,,,,,,,,,,,,,,,,,,,,,,,,,,,,,,,,,,,,,,,,,,,,,,,,,,,,,,,,,,,,,,,,,,,,,,,,,,,,,,,,,,,,,,,,,
,,6096ace01e65b3225e84d29f,2024-02-22_16h19.05.011,kallum_motion_pilot,2023.2.2,Win32,59.88023952,6096ace01e65b3225e84d29f,65d6bb0e977760de756971f7,65d6bd02210973f7d2836cfa,0.0661,0.0662,0,131,131,5,1,threefour,,,,,,,,,,,,,,,,,,,,,,,,,,,,,,,,,,,,,,,,,,,,,,,,,,,,,,,,,,,,,,,,,,,,,,,,,,,,,,,,,,,,,,,,,,,,,,,,,,,,,,,,,,,,,,,,,,,,,,,,,,,,,,,,,,,,,,,,,
,,6096ace01e65b3225e84d29f,2024-02-22_16h19.05.011,kallum_motion_pilot,2023.2.2,Win32,59.88023952,6096ace01e65b3225e84d29f,65d6bb0e977760de756971f7,65d6bd02210973f7d2836cfa,0.0664,0.0665,0,132,132,25,1,onethree,,,,,,,,,,,,,,,,,,,,,,,,,,,,,,,,,,,,,,,,,,,,,,,,,,,,,,,,,,,,,,,,,,,,,,,,,,,,,,,,,,,,,,,,,,,,,,,,,,,,,,,,,,,,,,,,,,,,,,,,,,,,,,,,,,,,,,,,,
,,6096ace01e65b3225e84d29f,2024-02-22_16h19.05.011,kallum_motion_pilot,2023.2.2,Win32,59.88023952,6096ace01e65b3225e84d29f,65d6bb0e977760de756971f7,65d6bd02210973f7d2836cfa,0.0665,0.0667,0,133,133,96,1,fivesix,,,,,,,,,,,,,,,,,,,,,,,,,,,,,,,,,,,,,,,,,,,,,,,,,,,,,,,,,,,,,,,,,,,,,,,,,,,,,,,,,,,,,,,,,,,,,,,,,,,,,,,,,,,,,,,,,,,,,,,,,,,,,,,,,,,,,,,,,
,,6096ace01e65b3225e84d29f,2024-02-22_16h19.05.011,kallum_motion_pilot,2023.2.2,Win32,59.88023952,6096ace01e65b3225e84d29f,65d6bb0e977760de756971f7,65d6bd02210973f7d2836cfa,0.0669,0.067,0,134,134,22,1,fourtwo,,,,,,,,,,,,,,,,,,,,,,,,,,,,,,,,,,,,,,,,,,,,,,,,,,,,,,,,,,,,,,,,,,,,,,,,,,,,,,,,,,,,,,,,,,,,,,,,,,,,,,,,,,,,,,,,,,,,,,,,,,,,,,,,,,,,,,,,,
,,6096ace01e65b3225e84d29f,2024-02-22_16h19.05.011,kallum_motion_pilot,2023.2.2,Win32,59.88023952,6096ace01e65b3225e84d29f,65d6bb0e977760de756971f7,65d6bd02210973f7d2836cfa,0.0672,0.0672,0,135,135,137,1,fiveseven,,,,,,,,,,,,,,,,,,,,,,,,,,,,,,,,,,,,,,,,,,,,,,,,,,,,,,,,,,,,,,,,,,,,,,,,,,,,,,,,,,,,,,,,,,,,,,,,,,,,,,,,,,,,,,,,,,,,,,,,,,,,,,,,,,,,,,,,,
,,6096ace01e65b3225e84d29f,2024-02-22_16h19.05.011,kallum_motion_pilot,2023.2.2,Win32,59.88023952,6096ace01e65b3225e84d29f,65d6bb0e977760de756971f7,65d6bd02210973f7d2836cfa,0.0674,0.0674,0,136,136,24,1,onetwo,,,,,,,,,,,,,,,,,,,,,,,,,,,,,,,,,,,,,,,,,,,,,,,,,,,,,,,,,,,,,,,,,,,,,,,,,,,,,,,,,,,,,,,,,,,,,,,,,,,,,,,,,,,,,,,,,,,,,,,,,,,,,,,,,,,,,,,,,
,,6096ace01e65b3225e84d29f,2024-02-22_16h19.05.011,kallum_motion_pilot,2023.2.2,Win32,59.88023952,6096ace01e65b3225e84d29f,65d6bb0e977760de756971f7,65d6bd02210973f7d2836cfa,0.0676,0.0677,0,137,137,98,1,sixfive,,,,,,,,,,,,,,,,,,,,,,,,,,,,,,,,,,,,,,,,,,,,,,,,,,,,,,,,,,,,,,,,,,,,,,,,,,,,,,,,,,,,,,,,,,,,,,,,,,,,,,,,,,,,,,,,,,,,,,,,,,,,,,,,,,,,,,,,,
,,6096ace01e65b3225e84d29f,2024-02-22_16h19.05.011,kallum_motion_pilot,2023.2.2,Win32,59.88023952,6096ace01e65b3225e84d29f,65d6bb0e977760de756971f7,65d6bd02210973f7d2836cfa,0.0679,0.068,0,138,138,51,1,twofour,,,,,,,,,,,,,,,,,,,,,,,,,,,,,,,,,,,,,,,,,,,,,,,,,,,,,,,,,,,,,,,,,,,,,,,,,,,,,,,,,,,,,,,,,,,,,,,,,,,,,,,,,,,,,,,,,,,,,,,,,,,,,,,,,,,,,,,,,
,,6096ace01e65b3225e84d29f,2024-02-22_16h19.05.011,kallum_motion_pilot,2023.2.2,Win32,59.88023952,6096ace01e65b3225e84d29f,65d6bb0e977760de756971f7,65d6bd02210973f7d2836cfa,0.0681,0.0683,0,139,139,53,1,threefour,,,,,,,,,,,,,,,,,,,,,,,,,,,,,,,,,,,,,,,,,,,,,,,,,,,,,,,,,,,,,,,,,,,,,,,,,,,,,,,,,,,,,,,,,,,,,,,,,,,,,,,,,,,,,,,,,,,,,,,,,,,,,,,,,,,,,,,,,
,,6096ace01e65b3225e84d29f,2024-02-22_16h19.05.011,kallum_motion_pilot,2023.2.2,Win32,59.88023952,6096ace01e65b3225e84d29f,65d6bb0e977760de756971f7,65d6bd02210973f7d2836cfa,0.0684,0.0686,0,140,140,134,1,eightsix,,,,,,,,,,,,,,,,,,,,,,,,,,,,,,,,,,,,,,,,,,,,,,,,,,,,,,,,,,,,,,,,,,,,,,,,,,,,,,,,,,,,,,,,,,,,,,,,,,,,,,,,,,,,,,,,,,,,,,,,,,,,,,,,,,,,,,,,,
,,6096ace01e65b3225e84d29f,2024-02-22_16h19.05.011,kallum_motion_pilot,2023.2.2,Win32,59.88023952,6096ace01e65b3225e84d29f,65d6bb0e977760de756971f7,65d6bd02210973f7d2836cfa,0.0687,0.0687,0,141,141,94,1,eightsix,,,,,,,,,,,,,,,,,,,,,,,,,,,,,,,,,,,,,,,,,,,,,,,,,,,,,,,,,,,,,,,,,,,,,,,,,,,,,,,,,,,,,,,,,,,,,,,,,,,,,,,,,,,,,,,,,,,,,,,,,,,,,,,,,,,,,,,,,
,,6096ace01e65b3225e84d29f,2024-02-22_16h19.05.011,kallum_motion_pilot,2023.2.2,Win32,59.88023952,6096ace01e65b3225e84d29f,65d6bb0e977760de756971f7,65d6bd02210973f7d2836cfa,0.0689,0.069,0,142,142,91,1,sixeight,,,,,,,,,,,,,,,,,,,,,,,,,,,,,,,,,,,,,,,,,,,,,,,,,,,,,,,,,,,,,,,,,,,,,,,,,,,,,,,,,,,,,,,,,,,,,,,,,,,,,,,,,,,,,,,,,,,,,,,,,,,,,,,,,,,,,,,,,
,,6096ace01e65b3225e84d29f,2024-02-22_16h19.05.011,kallum_motion_pilot,2023.2.2,Win32,59.88023952,6096ace01e65b3225e84d29f,65d6bb0e977760de756971f7,65d6bd02210973f7d2836cfa,0.0692,0.0692,0,143,143,35,1,twofour,,,,,,,,,,,,,,,,,,,,,,,,,,,,,,,,,,,,,,,,,,,,,,,,,,,,,,,,,,,,,,,,,,,,,,,,,,,,,,,,,,,,,,,,,,,,,,,,,,,,,,,,,,,,,,,,,,,,,,,,,,,,,,,,,,,,,,,,,
,,6096ace01e65b3225e84d29f,2024-02-22_16h19.05.011,kallum_motion_pilot,2023.2.2,Win32,59.88023952,6096ace01e65b3225e84d29f,65d6bb0e977760de756971f7,65d6bd02210973f7d2836cfa,0.0694,0.0696,0,144,144,46,1,fourtwo,,,,,,,,,,,,,,,,,,,,,,,,,,,,,,,,,,,,,,,,,,,,,,,,,,,,,,,,,,,,,,,,,,,,,,,,,,,,,,,,,,,,,,,,,,,,,,,,,,,,,,,,,,,,,,,,,,,,,,,,,,,,,,,,,,,,,,,,,
,,6096ace01e65b3225e84d29f,2024-02-22_16h19.05.011,kallum_motion_pilot,2023.2.2,Win32,59.88023952,6096ace01e65b3225e84d29f,65d6bb0e977760de756971f7,65d6bd02210973f7d2836cfa,0.0697,0.0698,0,145,145,36,1,threeone,,,,,,,,,,,,,,,,,,,,,,,,,,,,,,,,,,,,,,,,,,,,,,,,,,,,,,,,,,,,,,,,,,,,,,,,,,,,,,,,,,,,,,,,,,,,,,,,,,,,,,,,,,,,,,,,,,,,,,,,,,,,,,,,,,,,,,,,,
,,6096ace01e65b3225e84d29f,2024-02-22_16h19.05.011,kallum_motion_pilot,2023.2.2,Win32,59.88023952,6096ace01e65b3225e84d29f,65d6bb0e977760de756971f7,65d6bd02210973f7d2836cfa,0.0699,0.07,0,146,146,117,1,seveneight,,,,,,,,,,,,,,,,,,,,,,,,,,,,,,,,,,,,,,,,,,,,,,,,,,,,,,,,,,,,,,,,,,,,,,,,,,,,,,,,,,,,,,,,,,,,,,,,,,,,,,,,,,,,,,,,,,,,,,,,,,,,,,,,,,,,,,,,,
,,6096ace01e65b3225e84d29f,2024-02-22_16h19.05.011,kallum_motion_pilot,2023.2.2,Win32,59.88023952,6096ace01e65b3225e84d29f,65d6bb0e977760de756971f7,65d6bd02210973f7d2836cfa,0.0701,0.0702,0,147,147,151,1,eightseven,,,,,,,,,,,,,,,,,,,,,,,,,,,,,,,,,,,,,,,,,,,,,,,,,,,,,,,,,,,,,,,,,,,,,,,,,,,,,,,,,,,,,,,,,,,,,,,,,,,,,,,,,,,,,,,,,,,,,,,,,,,,,,,,,,,,,,,,,
,,6096ace01e65b3225e84d29f,2024-02-22_16h19.05.011,kallum_motion_pilot,2023.2.2,Win32,59.88023952,6096ace01e65b3225e84d29f,65d6bb0e977760de756971f7,65d6bd02210973f7d2836cfa,0.0704,0.0705,0,148,148,139,1,sixeight,,,,,,,,,,,,,,,,,,,,,,,,,,,,,,,,,,,,,,,,,,,,,,,,,,,,,,,,,,,,,,,,,,,,,,,,,,,,,,,,,,,,,,,,,,,,,,,,,,,,,,,,,,,,,,,,,,,,,,,,,,,,,,,,,,,,,,,,,
,,6096ace01e65b3225e84d29f,2024-02-22_16h19.05.011,kallum_motion_pilot,2023.2.2,Win32,59.88023952,6096ace01e65b3225e84d29f,65d6bb0e977760de756971f7,65d6bd02210973f7d2836cfa,0.0706,0.0707,0,149,149,32,1,onetwo,,,,,,,,,,,,,,,,,,,,,,,,,,,,,,,,,,,,,,,,,,,,,,,,,,,,,,,,,,,,,,,,,,,,,,,,,,,,,,,,,,,,,,,,,,,,,,,,,,,,,,,,,,,,,,,,,,,,,,,,,,,,,,,,,,,,,,,,,
,,6096ace01e65b3225e84d29f,2024-02-22_16h19.05.011,kallum_motion_pilot,2023.2.2,Win32,59.88023952,6096ace01e65b3225e84d29f,65d6bb0e977760de756971f7,65d6bd02210973f7d2836cfa,0.0708,0.0709,0,150,150,3,1,twofour,,,,,,,,,,,,,,,,,,,,,,,,,,,,,,,,,,,,,,,,,,,,,,,,,,,,,,,,,,,,,,,,,,,,,,,,,,,,,,,,,,,,,,,,,,,,,,,,,,,,,,,,,,,,,,,,,,,,,,,,,,,,,,,,,,,,,,,,,
,,6096ace01e65b3225e84d29f,2024-02-22_16h19.05.011,kallum_motion_pilot,2023.2.2,Win32,59.88023952,6096ace01e65b3225e84d29f,65d6bb0e977760de756971f7,65d6bd02210973f7d2836cfa,0.071,0.0711,0,151,151,78,1,fourtwo,,,,,,,,,,,,,,,,,,,,,,,,,,,,,,,,,,,,,,,,,,,,,,,,,,,,,,,,,,,,,,,,,,,,,,,,,,,,,,,,,,,,,,,,,,,,,,,,,,,,,,,,,,,,,,,,,,,,,,,,,,,,,,,,,,,,,,,,,
,,6096ace01e65b3225e84d29f,2024-02-22_16h19.05.011,kallum_motion_pilot,2023.2.2,Win32,59.88023952,6096ace01e65b3225e84d29f,65d6bb0e977760de756971f7,65d6bd02210973f7d2836cfa,0.0712,0.0713,0,152,152,97,1,fiveseven,,,,,,,,,,,,,,,,,,,,,,,,,,,,,,,,,,,,,,,,,,,,,,,,,,,,,,,,,,,,,,,,,,,,,,,,,,,,,,,,,,,,,,,,,,,,,,,,,,,,,,,,,,,,,,,,,,,,,,,,,,,,,,,,,,,,,,,,,
,,6096ace01e65b3225e84d29f,2024-02-22_16h19.05.011,kallum_motion_pilot,2023.2.2,Win32,59.88023952,6096ace01e65b3225e84d29f,65d6bb0e977760de756971f7,65d6bd02210973f7d2836cfa,0.0714,0.0715,0,153,153,71,1,fourthree,,,,,,,,,,,,,,,,,,,,,,,,,,,,,,,,,,,,,,,,,,,,,,,,,,,,,,,,,,,,,,,,,,,,,,,,,,,,,,,,,,,,,,,,,,,,,,,,,,,,,,,,,,,,,,,,,,,,,,,,,,,,,,,,,,,,,,,,,
,,6096ace01e65b3225e84d29f,2024-02-22_16h19.05.011,kallum_motion_pilot,2023.2.2,Win32,59.88023952,6096ace01e65b3225e84d29f,65d6bb0e977760de756971f7,65d6bd02210973f7d2836cfa,0.0716,0.0717,0,154,154,132,1,sevenfive,,,,,,,,,,,,,,,,,,,,,,,,,,,,,,,,,,,,,,,,,,,,,,,,,,,,,,,,,,,,,,,,,,,,,,,,,,,,,,,,,,,,,,,,,,,,,,,,,,,,,,,,,,,,,,,,,,,,,,,,,,,,,,,,,,,,,,,,,
,,6096ace01e65b3225e84d29f,2024-02-22_16h19.05.011,kallum_motion_pilot,2023.2.2,Win32,59.88023952,6096ace01e65b3225e84d29f,65d6bb0e977760de756971f7,65d6bd02210973f7d2836cfa,0.0718,0.0719,0,155,155,11,1,twofour,,,,,,,,,,,,,,,,,,,,,,,,,,,,,,,,,,,,,,,,,,,,,,,,,,,,,,,,,,,,,,,,,,,,,,,,,,,,,,,,,,,,,,,,,,,,,,,,,,,,,,,,,,,,,,,,,,,,,,,,,,,,,,,,,,,,,,,,,
,,6096ace01e65b3225e84d29f,2024-02-22_16h19.05.011,kallum_motion_pilot,2023.2.2,Win32,59.88023952,6096ace01e65b3225e84d29f,65d6bb0e977760de756971f7,65d6bd02210973f7d2836cfa,0.0721,0.0721,0,156,156,136,1,fivesix,,,,,,,,,,,,,,,,,,,,,,,,,,,,,,,,,,,,,,,,,,,,,,,,,,,,,,,,,,,,,,,,,,,,,,,,,,,,,,,,,,,,,,,,,,,,,,,,,,,,,,,,,,,,,,,,,,,,,,,,,,,,,,,,,,,,,,,,,
,,6096ace01e65b3225e84d29f,2024-02-22_16h19.05.011,kallum_motion_pilot,2023.2.2,Win32,59.88023952,6096ace01e65b3225e84d29f,65d6bb0e977760de756971f7,65d6bd02210973f7d2836cfa,0.0723,0.0723,0,157,157,62,1,fourtwo,,,,,,,,,,,,,,,,,,,,,,,,,,,,,,,,,,,,,,,,,,,,,,,,,,,,,,,,,,,,,,,,,,,,,,,,,,,,,,,,,,,,,,,,,,,,,,,,,,,,,,,,,,,,,,,,,,,,,,,,,,,,,,,,,,,,,,,,,
,,6096ace01e65b3225e84d29f,2024-02-22_16h19.05.011,kallum_motion_pilot,2023.2.2,Win32,59.88023952,6096ace01e65b3225e84d29f,65d6bb0e977760de756971f7,65d6bd02210973f7d2836cfa,0.0724,0.0725,0,158,158,38,1,fourtwo,,,,,,,,,,,,,,,,,,,,,,,,,,,,,,,,,,,,,,,,,,,,,,,,,,,,,,,,,,,,,,,,,,,,,,,,,,,,,,,,,,,,,,,,,,,,,,,,,,,,,,,,,,,,,,,,,,,,,,,,,,,,,,,,,,,,,,,,,
,,6096ace01e65b3225e84d29f,2024-02-22_16h19.05.011,kallum_motion_pilot,2023.2.2,Win32,59.88023952,6096ace01e65b3225e84d29f,65d6bb0e977760de756971f7,65d6bd02210973f7d2836cfa,0.0727,0.0728,0,159,159,138,1,sixfive,,,,,,,,,,,,,,,,,,,,,,,,,,,,,,,,,,,,,,,,,,,,,,,,,,,,,,,,,,,,,,,,,,,,,,,,,,,,,,,,,,,,,,,,,,,,,,,,,,,,,,,,,,,,,,,,,,,,,,,,,,,,,,,,,,,,,,,,,
,,6096ace01e65b3225e84d29f,2024-02-22_16h19.05.011,kallum_motion_pilot,2023.2.2,Win32,59.88023952,6096ace01e65b3225e84d29f,65d6bb0e977760de756971f7,65d6bd02210973f7d2836cfa,0.0728,0.073,0,160,160,92,1,sevenfive,,,,,,,,,,,,,,,,,,,,,,,,,,,,,,,,,,,,,,,,,,,,,,,,,,,,,,,,,,,,,,,,,,,,,,,,,,,,,,,,,,,,,,,,,,,,,,,,,,,,,,,,,,,,,,,,,,,,,,,,,,,,,,,,,,,,,,,,,
,,6096ace01e65b3225e84d29f,2024-02-22_16h19.05.011,kallum_motion_pilot,2023.2.2,Win32,59.88023952,6096ace01e65b3225e84d29f,65d6bb0e977760de756971f7,65d6bd02210973f7d2836cfa,0.073,0.0732,0,161,161,70,1,fourtwo,,,,,,,,,,,,,,,,,,,,,,,,,,,,,,,,,,,,,,,,,,,,,,,,,,,,,,,,,,,,,,,,,,,,,,,,,,,,,,,,,,,,,,,,,,,,,,,,,,,,,,,,,,,,,,,,,,,,,,,,,,,,,,,,,,,,,,,,,
,,6096ace01e65b3225e84d29f,2024-02-22_16h19.05.011,kallum_motion_pilot,2023.2.2,Win32,59.88023952,6096ace01e65b3225e84d29f,65d6bb0e977760de756971f7,65d6bd02210973f7d2836cfa,0.0732,0.0734,1,0,162,38,1,fourtwo,,,,,,,,,,,,,,,,,,,,,,,,,,,,,,,,,,,,,,,,,,,,,,,,,,,,,,,,,,,,,,,,,,,,,,,,,,,,,,,,,,,,,,,,,,,,,,,,,,,,,,,,,,,,,,,,,,,,,,,,,,,,,,,,,,,,,,,,,
,,6096ace01e65b3225e84d29f,2024-02-22_16h19.05.011,kallum_motion_pilot,2023.2.2,Win32,59.88023952,6096ace01e65b3225e84d29f,65d6bb0e977760de756971f7,65d6bd02210973f7d2836cfa,0.0735,0.0736,1,1,163,139,1,sixeight,,,,,,,,,,,,,,,,,,,,,,,,,,,,,,,,,,,,,,,,,,,,,,,,,,,,,,,,,,,,,,,,,,,,,,,,,,,,,,,,,,,,,,,,,,,,,,,,,,,,,,,,,,,,,,,,,,,,,,,,,,,,,,,,,,,,,,,,,
,,6096ace01e65b3225e84d29f,2024-02-22_16h19.05.011,kallum_motion_pilot,2023.2.2,Win32,59.88023952,6096ace01e65b3225e84d29f,65d6bb0e977760de756971f7,65d6bd02210973f7d2836cfa,0.0737,0.0738,1,2,164,125,1,seveneight,,,,,,,,,,,,,,,,,,,,,,,,,,,,,,,,,,,,,,,,,,,,,,,,,,,,,,,,,,,,,,,,,,,,,,,,,,,,,,,,,,,,,,,,,,,,,,,,,,,,,,,,,,,,,,,,,,,,,,,,,,,,,,,,,,,,,,,,,
,,6096ace01e65b3225e84d29f,2024-02-22_16h19.05.011,kallum_motion_pilot,2023.2.2,Win32,59.88023952,6096ace01e65b3225e84d29f,65d6bb0e977760de756971f7,65d6bd02210973f7d2836cfa,0.0739,0.074,1,3,165,109,1,seveneight,,,,,,,,,,,,,,,,,,,,,,,,,,,,,,,,,,,,,,,,,,,,,,,,,,,,,,,,,,,,,,,,,,,,,,,,,,,,,,,,,,,,,,,,,,,,,,,,,,,,,,,,,,,,,,,,,,,,,,,,,,,,,,,,,,,,,,,,,
,,6096ace01e65b3225e84d29f,2024-02-22_16h19.05.011,kallum_motion_pilot,2023.2.2,Win32,59.88023952,6096ace01e65b3225e84d29f,65d6bb0e977760de756971f7,65d6bd02210973f7d2836cfa,0.0741,0.0742,1,4,166,76,1,threeone,,,,,,,,,,,,,,,,,,,,,,,,,,,,,,,,,,,,,,,,,,,,,,,,,,,,,,,,,,,,,,,,,,,,,,,,,,,,,,,,,,,,,,,,,,,,,,,,,,,,,,,,,,,,,,,,,,,,,,,,,,,,,,,,,,,,,,,,,
,,6096ace01e65b3225e84d29f,2024-02-22_16h19.05.011,kallum_motion_pilot,2023.2.2,Win32,59.88023952,6096ace01e65b3225e84d29f,65d6bb0e977760de756971f7,65d6bd02210973f7d2836cfa,0.0743,0.0744,1,5,167,155,1,sixeight,,,,,,,,,,,,,,,,,,,,,,,,,,,,,,,,,,,,,,,,,,,,,,,,,,,,,,,,,,,,,,,,,,,,,,,,,,,,,,,,,,,,,,,,,,,,,,,,,,,,,,,,,,,,,,,,,,,,,,,,,,,,,,,,,,,,,,,,,
,,6096ace01e65b3225e84d29f,2024-02-22_16h19.05.011,kallum_motion_pilot,2023.2.2,Win32,59.88023952,6096ace01e65b3225e84d29f,65d6bb0e977760de756971f7,65d6bd02210973f7d2836cfa,0.0745,0.0746,1,6,168,110,1,eightsix,,,,,,,,,,,,,,,,,,,,,,,,,,,,,,,,,,,,,,,,,,,,,,,,,,,,,,,,,,,,,,,,,,,,,,,,,,,,,,,,,,,,,,,,,,,,,,,,,,,,,,,,,,,,,,,,,,,,,,,,,,,,,,,,,,,,,,,,,
,,6096ace01e65b3225e84d29f,2024-02-22_16h19.05.011,kallum_motion_pilot,2023.2.2,Win32,59.88023952,6096ace01e65b3225e84d29f,65d6bb0e977760de756971f7,65d6bd02210973f7d2836cfa,0.0747,0.0749,1,7,169,0,1,onetwo,,,,,,,,,,,,,,,,,,,,,,,,,,,,,,,,,,,,,,,,,,,,,,,,,,,,,,,,,,,,,,,,,,,,,,,,,,,,,,,,,,,,,,,,,,,,,,,,,,,,,,,,,,,,,,,,,,,,,,,,,,,,,,,,,,,,,,,,,
,,6096ace01e65b3225e84d29f,2024-02-22_16h19.05.011,kallum_motion_pilot,2023.2.2,Win32,59.88023952,6096ace01e65b3225e84d29f,65d6bb0e977760de756971f7,65d6bd02210973f7d2836cfa,0.075,0.0751,1,8,170,84,1,sevenfive,,,,,,,,,,,,,,,,,,,,,,,,,,,,,,,,,,,,,,,,,,,,,,,,,,,,,,,,,,,,,,,,,,,,,,,,,,,,,,,,,,,,,,,,,,,,,,,,,,,,,,,,,,,,,,,,,,,,,,,,,,,,,,,,,,,,,,,,,
,,6096ace01e65b3225e84d29f,2024-02-22_16h19.05.011,kallum_motion_pilot,2023.2.2,Win32,59.88023952,6096ace01e65b3225e84d29f,65d6bb0e977760de756971f7,65d6bd02210973f7d2836cfa,0.0753,0.0753,1,9,171,142,1,eightsix,,,,,,,,,,,,,,,,,,,,,,,,,,,,,,,,,,,,,,,,,,,,,,,,,,,,,,,,,,,,,,,,,,,,,,,,,,,,,,,,,,,,,,,,,,,,,,,,,,,,,,,,,,,,,,,,,,,,,,,,,,,,,,,,,,,,,,,,,
,,6096ace01e65b3225e84d29f,2024-02-22_16h19.05.011,kallum_motion_pilot,2023.2.2,Win32,59.88023952,6096ace01e65b3225e84d29f,65d6bb0e977760de756971f7,65d6bd02210973f7d2836cfa,0.0754,0.0755,1,10,172,97,1,fiveseven,,,,,,,,,,,,,,,,,,,,,,,,,,,,,,,,,,,,,,,,,,,,,,,,,,,,,,,,,,,,,,,,,,,,,,,,,,,,,,,,,,,,,,,,,,,,,,,,,,,,,,,,,,,,,,,,,,,,,,,,,,,,,,,,,,,,,,,,,
,,6096ace01e65b3225e84d29f,2024-02-22_16h19.05.011,kallum_motion_pilot,2023.2.2,Win32,59.88023952,6096ace01e65b3225e84d29f,65d6bb0e977760de756971f7,65d6bd02210973f7d2836cfa,0.0757,0.0758,1,11,173,63,1,fourthree,,,,,,,,,,,,,,,,,,,,,,,,,,,,,,,,,,,,,,,,,,,,,,,,,,,,,,,,,,,,,,,,,,,,,,,,,,,,,,,,,,,,,,,,,,,,,,,,,,,,,,,,,,,,,,,,,,,,,,,,,,,,,,,,,,,,,,,,,
,,6096ace01e65b3225e84d29f,2024-02-22_16h19.05.011,kallum_motion_pilot,2023.2.2,Win32,59.88023952,6096ace01e65b3225e84d29f,65d6bb0e977760de756971f7,65d6bd02210973f7d2836cfa,0.0759,0.076,1,12,174,61,1,threefour,,,,,,,,,,,,,,,,,,,,,,,,,,,,,,,,,,,,,,,,,,,,,,,,,,,,,,,,,,,,,,,,,,,,,,,,,,,,,,,,,,,,,,,,,,,,,,,,,,,,,,,,,,,,,,,,,,,,,,,,,,,,,,,,,,,,,,,,,
,,6096ace01e65b3225e84d29f,2024-02-22_16h19.05.011,kallum_motion_pilot,2023.2.2,Win32,59.88023952,6096ace01e65b3225e84d29f,65d6bb0e977760de756971f7,65d6bd02210973f7d2836cfa,0.0761,0.0762,1,13,175,127,1,eightseven,,,,,,,,,,,,,,,,,,,,,,,,,,,,,,,,,,,,,,,,,,,,,,,,,,,,,,,,,,,,,,,,,,,,,,,,,,,,,,,,,,,,,,,,,,,,,,,,,,,,,,,,,,,,,,,,,,,,,,,,,,,,,,,,,,,,,,,,,
,,6096ace01e65b3225e84d29f,2024-02-22_16h19.05.011,kallum_motion_pilot,2023.2.2,Win32,59.88023952,6096ace01e65b3225e84d29f,65d6bb0e977760de756971f7,65d6bd02210973f7d2836cfa,0.0763,0.0764,1,14,176,37,1,threefour,,,,,,,,,,,,,,,,,,,,,,,,,,,,,,,,,,,,,,,,,,,,,,,,,,,,,,,,,,,,,,,,,,,,,,,,,,,,,,,,,,,,,,,,,,,,,,,,,,,,,,,,,,,,,,,,,,,,,,,,,,,,,,,,,,,,,,,,,
,,6096ace01e65b3225e84d29f,2024-02-22_16h19.05.011,kallum_motion_pilot,2023.2.2,Win32,59.88023952,6096ace01e65b3225e84d29f,65d6bb0e977760de756971f7,65d6bd02210973f7d2836cfa,0.0765,0.0766,1,15,177,45,1,threefour,,,,,,,,,,,,,,,,,,,,,,,,,,,,,,,,,,,,,,,,,,,,,,,,,,,,,,,,,,,,,,,,,,,,,,,,,,,,,,,,,,,,,,,,,,,,,,,,,,,,,,,,,,,,,,,,,,,,,,,,,,,,,,,,,,,,,,,,,
,,6096ace01e65b3225e84d29f,2024-02-22_16h19.05.011,kallum_motion_pilot,2023.2.2,Win32,59.88023952,6096ace01e65b3225e84d29f,65d6bb0e977760de756971f7,65d6bd02210973f7d2836cfa,0.0767,0.0769,1,16,178,136,1,fivesix,,,,,,,,,,,,,,,,,,,,,,,,,,,,,,,,,,,,,,,,,,,,,,,,,,,,,,,,,,,,,,,,,,,,,,,,,,,,,,,,,,,,,,,,,,,,,,,,,,,,,,,,,,,,,,,,,,,,,,,,,,,,,,,,,,,,,,,,,
,,6096ace01e65b3225e84d29f,2024-02-22_16h19.05.011,kallum_motion_pilot,2023.2.2,Win32,59.88023952,6096ace01e65b3225e84d29f,65d6bb0e977760de756971f7,65d6bd02210973f7d2836cfa,0.0769,0.077,1,17,179,67,1,twofour,,,,,,,,,,,,,,,,,,,,,,,,,,,,,,,,,,,,,,,,,,,,,,,,,,,,,,,,,,,,,,,,,,,,,,,,,,,,,,,,,,,,,,,,,,,,,,,,,,,,,,,,,,,,,,,,,,,,,,,,,,,,,,,,,,,,,,,,,
,,6096ace01e65b3225e84d29f,2024-02-22_16h19.05.011,kallum_motion_pilot,2023.2.2,Win32,59.88023952,6096ace01e65b3225e84d29f,65d6bb0e977760de756971f7,65d6bd02210973f7d2836cfa,0.0772,0.0772,1,18,180,117,1,seveneight,,,,,,,,,,,,,,,,,,,,,,,,,,,,,,,,,,,,,,,,,,,,,,,,,,,,,,,,,,,,,,,,,,,,,,,,,,,,,,,,,,,,,,,,,,,,,,,,,,,,,,,,,,,,,,,,,,,,,,,,,,,,,,,,,,,,,,,,,
,,6096ace01e65b3225e84d29f,2024-02-22_16h19.05.011,kallum_motion_pilot,2023.2.2,Win32,59.88023952,6096ace01e65b3225e84d29f,65d6bb0e977760de756971f7,65d6bd02210973f7d2836cfa,0.0773,0.0775,1,19,181,23,1,fourthree,,,,,,,,,,,,,,,,,,,,,,,,,,,,,,,,,,,,,,,,,,,,,,,,,,,,,,,,,,,,,,,,,,,,,,,,,,,,,,,,,,,,,,,,,,,,,,,,,,,,,,,,,,,,,,,,,,,,,,,,,,,,,,,,,,,,,,,,,
,,6096ace01e65b3225e84d29f,2024-02-22_16h19.05.011,kallum_motion_pilot,2023.2.2,Win32,59.88023952,6096ace01e65b3225e84d29f,65d6bb0e977760de756971f7,65d6bd02210973f7d2836cfa,0.0776,0.0776,1,20,182,32,1,onetwo,,,,,,,,,,,,,,,,,,,,,,,,,,,,,,,,,,,,,,,,,,,,,,,,,,,,,,,,,,,,,,,,,,,,,,,,,,,,,,,,,,,,,,,,,,,,,,,,,,,,,,,,,,,,,,,,,,,,,,,,,,,,,,,,,,,,,,,,,
,,6096ace01e65b3225e84d29f,2024-02-22_16h19.05.011,kallum_motion_pilot,2023.2.2,Win32,59.88023952,6096ace01e65b3225e84d29f,65d6bb0e977760de756971f7,65d6bd02210973f7d2836cfa,0.0778,0.0779,1,21,183,36,1,threeone,,,,,,,,,,,,,,,,,,,,,,,,,,,,,,,,,,,,,,,,,,,,,,,,,,,,,,,,,,,,,,,,,,,,,,,,,,,,,,,,,,,,,,,,,,,,,,,,,,,,,,,,,,,,,,,,,,,,,,,,,,,,,,,,,,,,,,,,,
,,6096ace01e65b3225e84d29f,2024-02-22_16h19.05.011,kallum_motion_pilot,2023.2.2,Win32,59.88023952,6096ace01e65b3225e84d29f,65d6bb0e977760de756971f7,65d6bd02210973f7d2836cfa,0.078,0.0781,1,22,184,121,1,fiveseven,,,,,,,,,,,,,,,,,,,,,,,,,,,,,,,,,,,,,,,,,,,,,,,,,,,,,,,,,,,,,,,,,,,,,,,,,,,,,,,,,,,,,,,,,,,,,,,,,,,,,,,,,,,,,,,,,,,,,,,,,,,,,,,,,,,,,,,,,
,,6096ace01e65b3225e84d29f,2024-02-22_16h19.05.011,kallum_motion_pilot,2023.2.2,Win32,59.88023952,6096ace01e65b3225e84d29f,65d6bb0e977760de756971f7,65d6bd02210973f7d2836cfa,0.0782,0.0783,1,23,185,12,1,threeone,,,,,,,,,,,,,,,,,,,,,,,,,,,,,,,,,,,,,,,,,,,,,,,,,,,,,,,,,,,,,,,,,,,,,,,,,,,,,,,,,,,,,,,,,,,,,,,,,,,,,,,,,,,,,,,,,,,,,,,,,,,,,,,,,,,,,,,,,
,,6096ace01e65b3225e84d29f,2024-02-22_16h19.05.011,kallum_motion_pilot,2023.2.2,Win32,59.88023952,6096ace01e65b3225e84d29f,65d6bb0e977760de756971f7,65d6bd02210973f7d2836cfa,0.0784,0.0786,1,24,186,78,1,fourtwo,,,,,,,,,,,,,,,,,,,,,,,,,,,,,,,,,,,,,,,,,,,,,,,,,,,,,,,,,,,,,,,,,,,,,,,,,,,,,,,,,,,,,,,,,,,,,,,,,,,,,,,,,,,,,,,,,,,,,,,,,,,,,,,,,,,,,,,,,
,,6096ace01e65b3225e84d29f,2024-02-22_16h19.05.011,kallum_motion_pilot,2023.2.2,Win32,59.88023952,6096ace01e65b3225e84d29f,65d6bb0e977760de756971f7,65d6bd02210973f7d2836cfa,0.0786,0.0787,1,25,187,111,1,eightseven,,,,,,,,,,,,,,,,,,,,,,,,,,,,,,,,,,,,,,,,,,,,,,,,,,,,,,,,,,,,,,,,,,,,,,,,,,,,,,,,,,,,,,,,,,,,,,,,,,,,,,,,,,,,,,,,,,,,,,,,,,,,,,,,,,,,,,,,,
,,6096ace01e65b3225e84d29f,2024-02-22_16h19.05.011,kallum_motion_pilot,2023.2.2,Win32,59.88023952,6096ace01e65b3225e84d29f,65d6bb0e977760de756971f7,65d6bd02210973f7d2836cfa,0.0788,0.0789,1,26,188,148,1,sevenfive,,,,,,,,,,,,,,,,,,,,,,,,,,,,,,,,,,,,,,,,,,,,,,,,,,,,,,,,,,,,,,,,,,,,,,,,,,,,,,,,,,,,,,,,,,,,,,,,,,,,,,,,,,,,,,,,,,,,,,,,,,,,,,,,,,,,,,,,,
,,6096ace01e65b3225e84d29f,2024-02-22_16h19.05.011,kallum_motion_pilot,2023.2.2,Win32,59.88023952,6096ace01e65b3225e84d29f,65d6bb0e977760de756971f7,65d6bd02210973f7d2836cfa,0.0791,0.0792,1,27,189,79,1,eightseven,,,,,,,,,,,,,,,,,,,,,,,,,,,,,,,,,,,,,,,,,,,,,,,,,,,,,,,,,,,,,,,,,,,,,,,,,,,,,,,,,,,,,,,,,,,,,,,,,,,,,,,,,,,,,,,,,,,,,,,,,,,,,,,,,,,,,,,,,
,,6096ace01e65b3225e84d29f,2024-02-22_16h19.05.011,kallum_motion_pilot,2023.2.2,Win32,59.88023952,6096ace01e65b3225e84d29f,65d6bb0e977760de756971f7,65d6bd02210973f7d2836cfa,0.0793,0.0794,1,28,190,103,1,eightseven,,,,,,,,,,,,,,,,,,,,,,,,,,,,,,,,,,,,,,,,,,,,,,,,,,,,,,,,,,,,,,,,,,,,,,,,,,,,,,,,,,,,,,,,,,,,,,,,,,,,,,,,,,,,,,,,,,,,,,,,,,,,,,,,,,,,,,,,,
,,6096ace01e65b3225e84d29f,2024-02-22_16h19.05.011,kallum_motion_pilot,2023.2.2,Win32,59.88023952,6096ace01e65b3225e84d29f,65d6bb0e977760de756971f7,65d6bd02210973f7d2836cfa,0.0796,0.0797,1,29,191,64,1,onetwo,,,,,,,,,,,,,,,,,,,,,,,,,,,,,,,,,,,,,,,,,,,,,,,,,,,,,,,,,,,,,,,,,,,,,,,,,,,,,,,,,,,,,,,,,,,,,,,,,,,,,,,,,,,,,,,,,,,,,,,,,,,,,,,,,,,,,,,,,
,,6096ace01e65b3225e84d29f,2024-02-22_16h19.05.011,kallum_motion_pilot,2023.2.2,Win32,59.88023952,6096ace01e65b3225e84d29f,65d6bb0e977760de756971f7,65d6bd02210973f7d2836cfa,0.0799,0.08,1,30,192,22,1,fourtwo,,,,,,,,,,,,,,,,,,,,,,,,,,,,,,,,,,,,,,,,,,,,,,,,,,,,,,,,,,,,,,,,,,,,,,,,,,,,,,,,,,,,,,,,,,,,,,,,,,,,,,,,,,,,,,,,,,,,,,,,,,,,,,,,,,,,,,,,,
,,6096ace01e65b3225e84d29f,2024-02-22_16h19.05.011,kallum_motion_pilot,2023.2.2,Win32,59.88023952,6096ace01e65b3225e84d29f,65d6bb0e977760de756971f7,65d6bd02210973f7d2836cfa,0.0801,0.0802,1,31,193,9,1,onethree,,,,,,,,,,,,,,,,,,,,,,,,,,,,,,,,,,,,,,,,,,,,,,,,,,,,,,,,,,,,,,,,,,,,,,,,,,,,,,,,,,,,,,,,,,,,,,,,,,,,,,,,,,,,,,,,,,,,,,,,,,,,,,,,,,,,,,,,,
,,6096ace01e65b3225e84d29f,2024-02-22_16h19.05.011,kallum_motion_pilot,2023.2.2,Win32,59.88023952,6096ace01e65b3225e84d29f,65d6bb0e977760de756971f7,65d6bd02210973f7d2836cfa,0.0803,0.0805,1,32,194,120,1,fivesix,,,,,,,,,,,,,,,,,,,,,,,,,,,,,,,,,,,,,,,,,,,,,,,,,,,,,,,,,,,,,,,,,,,,,,,,,,,,,,,,,,,,,,,,,,,,,,,,,,,,,,,,,,,,,,,,,,,,,,,,,,,,,,,,,,,,,,,,,
,,6096ace01e65b3225e84d29f,2024-02-22_16h19.05.011,kallum_motion_pilot,2023.2.2,Win32,59.88023952,6096ace01e65b3225e84d29f,65d6bb0e977760de756971f7,65d6bd02210973f7d2836cfa,0.0806,0.0807,1,33,195,50,1,twoone,,,,,,,,,,,,,,,,,,,,,,,,,,,,,,,,,,,,,,,,,,,,,,,,,,,,,,,,,,,,,,,,,,,,,,,,,,,,,,,,,,,,,,,,,,,,,,,,,,,,,,,,,,,,,,,,,,,,,,,,,,,,,,,,,,,,,,,,,
,,6096ace01e65b3225e84d29f,2024-02-22_16h19.05.011,kallum_motion_pilot,2023.2.2,Win32,59.88023952,6096ace01e65b3225e84d29f,65d6bb0e977760de756971f7,65d6bd02210973f7d2836cfa,0.0809,0.081,1,34,196,51,1,twofour,,,,,,,,,,,,,,,,,,,,,,,,,,,,,,,,,,,,,,,,,,,,,,,,,,,,,,,,,,,,,,,,,,,,,,,,,,,,,,,,,,,,,,,,,,,,,,,,,,,,,,,,,,,,,,,,,,,,,,,,,,,,,,,,,,,,,,,,,
,,6096ace01e65b3225e84d29f,2024-02-22_16h19.05.011,kallum_motion_pilot,2023.2.2,Win32,59.88023952,6096ace01e65b3225e84d29f,65d6bb0e977760de756971f7,65d6bd02210973f7d2836cfa,0.0812,0.0813,1,35,197,72,1,onetwo,,,,,,,,,,,,,,,,,,,,,,,,,,,,,,,,,,,,,,,,,,,,,,,,,,,,,,,,,,,,,,,,,,,,,,,,,,,,,,,,,,,,,,,,,,,,,,,,,,,,,,,,,,,,,,,,,,,,,,,,,,,,,,,,,,,,,,,,,
,,6096ace01e65b3225e84d29f,2024-02-22_16h19.05.011,kallum_motion_pilot,2023.2.2,Win32,59.88023952,6096ace01e65b3225e84d29f,65d6bb0e977760de756971f7,65d6bd02210973f7d2836cfa,0.0815,0.0817,1,36,198,73,1,onethree,,,,,,,,,,,,,,,,,,,,,,,,,,,,,,,,,,,,,,,,,,,,,,,,,,,,,,,,,,,,,,,,,,,,,,,,,,,,,,,,,,,,,,,,,,,,,,,,,,,,,,,,,,,,,,,,,,,,,,,,,,,,,,,,,,,,,,,,,
,,6096ace01e65b3225e84d29f,2024-02-22_16h19.05.011,kallum_motion_pilot,2023.2.2,Win32,59.88023952,6096ace01e65b3225e84d29f,65d6bb0e977760de756971f7,65d6bd02210973f7d2836cfa,0.0819,0.0819,1,37,199,83,1,sixeight,,,,,,,,,,,,,,,,,,,,,,,,,,,,,,,,,,,,,,,,,,,,,,,,,,,,,,,,,,,,,,,,,,,,,,,,,,,,,,,,,,,,,,,,,,,,,,,,,,,,,,,,,,,,,,,,,,,,,,,,,,,,,,,,,,,,,,,,,
,,6096ace01e65b3225e84d29f,2024-02-22_16h19.05.011,kallum_motion_pilot,2023.2.2,Win32,59.88023952,6096ace01e65b3225e84d29f,65d6bb0e977760de756971f7,65d6bd02210973f7d2836cfa,0.0821,0.0822,1,38,200,11,1,twofour,,,,,,,,,,,,,,,,,,,,,,,,,,,,,,,,,,,,,,,,,,,,,,,,,,,,,,,,,,,,,,,,,,,,,,,,,,,,,,,,,,,,,,,,,,,,,,,,,,,,,,,,,,,,,,,,,,,,,,,,,,,,,,,,,,,,,,,,,
,,6096ace01e65b3225e84d29f,2024-02-22_16h19.05.011,kallum_motion_pilot,2023.2.2,Win32,59.88023952,6096ace01e65b3225e84d29f,65d6bb0e977760de756971f7,65d6bd02210973f7d2836cfa,0.0823,0.0825,1,39,201,20,1,threeone,,,,,,,,,,,,,,,,,,,,,,,,,,,,,,,,,,,,,,,,,,,,,,,,,,,,,,,,,,,,,,,,,,,,,,,,,,,,,,,,,,,,,,,,,,,,,,,,,,,,,,,,,,,,,,,,,,,,,,,,,,,,,,,,,,,,,,,,,
,,6096ace01e65b3225e84d29f,2024-02-22_16h19.05.011,kallum_motion_pilot,2023.2.2,Win32,59.88023952,6096ace01e65b3225e84d29f,65d6bb0e977760de756971f7,65d6bd02210973f7d2836cfa,0.0827,0.0829,1,40,202,138,1,sixfive,,,,,,,,,,,,,,,,,,,,,,,,,,,,,,,,,,,,,,,,,,,,,,,,,,,,,,,,,,,,,,,,,,,,,,,,,,,,,,,,,,,,,,,,,,,,,,,,,,,,,,,,,,,,,,,,,,,,,,,,,,,,,,,,,,,,,,,,,
,,6096ace01e65b3225e84d29f,2024-02-22_16h19.05.011,kallum_motion_pilot,2023.2.2,Win32,59.88023952,6096ace01e65b3225e84d29f,65d6bb0e977760de756971f7,65d6bd02210973f7d2836cfa,0.083,0.0831,1,41,203,91,1,sixeight,,,,,,,,,,,,,,,,,,,,,,,,,,,,,,,,,,,,,,,,,,,,,,,,,,,,,,,,,,,,,,,,,,,,,,,,,,,,,,,,,,,,,,,,,,,,,,,,,,,,,,,,,,,,,,,,,,,,,,,,,,,,,,,,,,,,,,,,,
,,6096ace01e65b3225e84d29f,2024-02-22_16h19.05.011,kallum_motion_pilot,2023.2.2,Win32,59.88023952,6096ace01e65b3225e84d29f,65d6bb0e977760de756971f7,65d6bd02210973f7d2836cfa,0.0833,0.0835,1,42,204,69,1,threefour,,,,,,,,,,,,,,,,,,,,,,,,,,,,,,,,,,,,,,,,,,,,,,,,,,,,,,,,,,,,,,,,,,,,,,,,,,,,,,,,,,,,,,,,,,,,,,,,,,,,,,,,,,,,,,,,,,,,,,,,,,,,,,,,,,,,,,,,,
,,6096ace01e65b3225e84d29f,2024-02-22_16h19.05.011,kallum_motion_pilot,2023.2.2,Win32,59.88023952,6096ace01e65b3225e84d29f,65d6bb0e977760de756971f7,65d6bd02210973f7d2836cfa,0.0836,0.0838,1,43,205,114,1,sixfive,,,,,,,,,,,,,,,,,,,,,,,,,,,,,,,,,,,,,,,,,,,,,,,,,,,,,,,,,,,,,,,,,,,,,,,,,,,,,,,,,,,,,,,,,,,,,,,,,,,,,,,,,,,,,,,,,,,,,,,,,,,,,,,,,,,,,,,,,
,,6096ace01e65b3225e84d29f,2024-02-22_16h19.05.011,kallum_motion_pilot,2023.2.2,Win32,59.88023952,6096ace01e65b3225e84d29f,65d6bb0e977760de756971f7,65d6bd02210973f7d2836cfa,0.0839,0.084,1,44,206,100,1,sevenfive,,,,,,,,,,,,,,,,,,,,,,,,,,,,,,,,,,,,,,,,,,,,,,,,,,,,,,,,,,,,,,,,,,,,,,,,,,,,,,,,,,,,,,,,,,,,,,,,,,,,,,,,,,,,,,,,,,,,,,,,,,,,,,,,,,,,,,,,,
,,6096ace01e65b3225e84d29f,2024-02-22_16h19.05.011,kallum_motion_pilot,2023.2.2,Win32,59.88023952,6096ace01e65b3225e84d29f,65d6bb0e977760de756971f7,65d6bd02210973f7d2836cfa,0.0841,0.0843,1,45,207,16,1,onetwo,,,,,,,,,,,,,,,,,,,,,,,,,,,,,,,,,,,,,,,,,,,,,,,,,,,,,,,,,,,,,,,,,,,,,,,,,,,,,,,,,,,,,,,,,,,,,,,,,,,,,,,,,,,,,,,,,,,,,,,,,,,,,,,,,,,,,,,,,
,,6096ace01e65b3225e84d29f,2024-02-22_16h19.05.011,kallum_motion_pilot,2023.2.2,Win32,59.88023952,6096ace01e65b3225e84d29f,65d6bb0e977760de756971f7,65d6bd02210973f7d2836cfa,0.0844,0.0846,1,46,208,86,1,eightsix,,,,,,,,,,,,,,,,,,,,,,,,,,,,,,,,,,,,,,,,,,,,,,,,,,,,,,,,,,,,,,,,,,,,,,,,,,,,,,,,,,,,,,,,,,,,,,,,,,,,,,,,,,,,,,,,,,,,,,,,,,,,,,,,,,,,,,,,,
,,6096ace01e65b3225e84d29f,2024-02-22_16h19.05.011,kallum_motion_pilot,2023.2.2,Win32,59.88023952,6096ace01e65b3225e84d29f,65d6bb0e977760de756971f7,65d6bd02210973f7d2836cfa,0.0846,0.0848,1,47,209,21,1,threefour,,,,,,,,,,,,,,,,,,,,,,,,,,,,,,,,,,,,,,,,,,,,,,,,,,,,,,,,,,,,,,,,,,,,,,,,,,,,,,,,,,,,,,,,,,,,,,,,,,,,,,,,,,,,,,,,,,,,,,,,,,,,,,,,,,,,,,,,,
,,6096ace01e65b3225e84d29f,2024-02-22_16h19.05.011,kallum_motion_pilot,2023.2.2,Win32,59.88023952,6096ace01e65b3225e84d29f,65d6bb0e977760de756971f7,65d6bd02210973f7d2836cfa,0.0849,0.085,1,48,210,93,1,seveneight,,,,,,,,,,,,,,,,,,,,,,,,,,,,,,,,,,,,,,,,,,,,,,,,,,,,,,,,,,,,,,,,,,,,,,,,,,,,,,,,,,,,,,,,,,,,,,,,,,,,,,,,,,,,,,,,,,,,,,,,,,,,,,,,,,,,,,,,,
,,6096ace01e65b3225e84d29f,2024-02-22_16h19.05.011,kallum_motion_pilot,2023.2.2,Win32,59.88023952,6096ace01e65b3225e84d29f,65d6bb0e977760de756971f7,65d6bd02210973f7d2836cfa,0.0851,0.0852,1,49,211,98,1,sixfive,,,,,,,,,,,,,,,,,,,,,,,,,,,,,,,,,,,,,,,,,,,,,,,,,,,,,,,,,,,,,,,,,,,,,,,,,,,,,,,,,,,,,,,,,,,,,,,,,,,,,,,,,,,,,,,,,,,,,,,,,,,,,,,,,,,,,,,,,
,,6096ace01e65b3225e84d29f,2024-02-22_16h19.05.011,kallum_motion_pilot,2023.2.2,Win32,59.88023952,6096ace01e65b3225e84d29f,65d6bb0e977760de756971f7,65d6bd02210973f7d2836cfa,0.0854,0.0854,1,50,212,27,1,twofour,,,,,,,,,,,,,,,,,,,,,,,,,,,,,,,,,,,,,,,,,,,,,,,,,,,,,,,,,,,,,,,,,,,,,,,,,,,,,,,,,,,,,,,,,,,,,,,,,,,,,,,,,,,,,,,,,,,,,,,,,,,,,,,,,,,,,,,,,
,,6096ace01e65b3225e84d29f,2024-02-22_16h19.05.011,kallum_motion_pilot,2023.2.2,Win32,59.88023952,6096ace01e65b3225e84d29f,65d6bb0e977760de756971f7,65d6bd02210973f7d2836cfa,0.0856,0.0857,1,51,213,146,1,sixfive,,,,,,,,,,,,,,,,,,,,,,,,,,,,,,,,,,,,,,,,,,,,,,,,,,,,,,,,,,,,,,,,,,,,,,,,,,,,,,,,,,,,,,,,,,,,,,,,,,,,,,,,,,,,,,,,,,,,,,,,,,,,,,,,,,,,,,,,,
,,6096ace01e65b3225e84d29f,2024-02-22_16h19.05.011,kallum_motion_pilot,2023.2.2,Win32,59.88023952,6096ace01e65b3225e84d29f,65d6bb0e977760de756971f7,65d6bd02210973f7d2836cfa,0.0858,0.0859,1,52,214,134,1,eightsix,,,,,,,,,,,,,,,,,,,,,,,,,,,,,,,,,,,,,,,,,,,,,,,,,,,,,,,,,,,,,,,,,,,,,,,,,,,,,,,,,,,,,,,,,,,,,,,,,,,,,,,,,,,,,,,,,,,,,,,,,,,,,,,,,,,,,,,,,
,,6096ace01e65b3225e84d29f,2024-02-22_16h19.05.011,kallum_motion_pilot,2023.2.2,Win32,59.88023952,6096ace01e65b3225e84d29f,65d6bb0e977760de756971f7,65d6bd02210973f7d2836cfa,0.086,0.0862,1,53,215,34,1,twoone,,,,,,,,,,,,,,,,,,,,,,,,,,,,,,,,,,,,,,,,,,,,,,,,,,,,,,,,,,,,,,,,,,,,,,,,,,,,,,,,,,,,,,,,,,,,,,,,,,,,,,,,,,,,,,,,,,,,,,,,,,,,,,,,,,,,,,,,,
,,6096ace01e65b3225e84d29f,2024-02-22_16h19.05.011,kallum_motion_pilot,2023.2.2,Win32,59.88023952,6096ace01e65b3225e84d29f,65d6bb0e977760de756971f7,65d6bd02210973f7d2836cfa,0.0862,0.0863,1,54,216,10,1,twoone,,,,,,,,,,,,,,,,,,,,,,,,,,,,,,,,,,,,,,,,,,,,,,,,,,,,,,,,,,,,,,,,,,,,,,,,,,,,,,,,,,,,,,,,,,,,,,,,,,,,,,,,,,,,,,,,,,,,,,,,,,,,,,,,,,,,,,,,,
,,6096ace01e65b3225e84d29f,2024-02-22_16h19.05.011,kallum_motion_pilot,2023.2.2,Win32,59.88023952,6096ace01e65b3225e84d29f,65d6bb0e977760de756971f7,65d6bd02210973f7d2836cfa,0.0864,0.0865,1,55,217,152,1,fivesix,,,,,,,,,,,,,,,,,,,,,,,,,,,,,,,,,,,,,,,,,,,,,,,,,,,,,,,,,,,,,,,,,,,,,,,,,,,,,,,,,,,,,,,,,,,,,,,,,,,,,,,,,,,,,,,,,,,,,,,,,,,,,,,,,,,,,,,,,
,,6096ace01e65b3225e84d29f,2024-02-22_16h19.05.011,kallum_motion_pilot,2023.2.2,Win32,59.88023952,6096ace01e65b3225e84d29f,65d6bb0e977760de756971f7,65d6bd02210973f7d2836cfa,0.0867,0.0867,1,56,218,60,1,threeone,,,,,,,,,,,,,,,,,,,,,,,,,,,,,,,,,,,,,,,,,,,,,,,,,,,,,,,,,,,,,,,,,,,,,,,,,,,,,,,,,,,,,,,,,,,,,,,,,,,,,,,,,,,,,,,,,,,,,,,,,,,,,,,,,,,,,,,,,
,,6096ace01e65b3225e84d29f,2024-02-22_16h19.05.011,kallum_motion_pilot,2023.2.2,Win32,59.88023952,6096ace01e65b3225e84d29f,65d6bb0e977760de756971f7,65d6bd02210973f7d2836cfa,0.0869,0.087,1,57,219,130,1,sixfive,,,,,,,,,,,,,,,,,,,,,,,,,,,,,,,,,,,,,,,,,,,,,,,,,,,,,,,,,,,,,,,,,,,,,,,,,,,,,,,,,,,,,,,,,,,,,,,,,,,,,,,,,,,,,,,,,,,,,,,,,,,,,,,,,,,,,,,,,
,,6096ace01e65b3225e84d29f,2024-02-22_16h19.05.011,kallum_motion_pilot,2023.2.2,Win32,59.88023952,6096ace01e65b3225e84d29f,65d6bb0e977760de756971f7,65d6bd02210973f7d2836cfa,0.0871,0.0872,1,58,220,44,1,threeone,,,,,,,,,,,,,,,,,,,,,,,,,,,,,,,,,,,,,,,,,,,,,,,,,,,,,,,,,,,,,,,,,,,,,,,,,,,,,,,,,,,,,,,,,,,,,,,,,,,,,,,,,,,,,,,,,,,,,,,,,,,,,,,,,,,,,,,,,
,,6096ace01e65b3225e84d29f,2024-02-22_16h19.05.011,kallum_motion_pilot,2023.2.2,Win32,59.88023952,6096ace01e65b3225e84d29f,65d6bb0e977760de756971f7,65d6bd02210973f7d2836cfa,0.0873,0.0874,1,59,221,59,1,twofour,,,,,,,,,,,,,,,,,,,,,,,,,,,,,,,,,,,,,,,,,,,,,,,,,,,,,,,,,,,,,,,,,,,,,,,,,,,,,,,,,,,,,,,,,,,,,,,,,,,,,,,,,,,,,,,,,,,,,,,,,,,,,,,,,,,,,,,,,
,,6096ace01e65b3225e84d29f,2024-02-22_16h19.05.011,kallum_motion_pilot,2023.2.2,Win32,59.88023952,6096ace01e65b3225e84d29f,65d6bb0e977760de756971f7,65d6bd02210973f7d2836cfa,0.0876,0.0876,1,60,222,42,1,twoone,,,,,,,,,,,,,,,,,,,,,,,,,,,,,,,,,,,,,,,,,,,,,,,,,,,,,,,,,,,,,,,,,,,,,,,,,,,,,,,,,,,,,,,,,,,,,,,,,,,,,,,,,,,,,,,,,,,,,,,,,,,,,,,,,,,,,,,,,
,,6096ace01e65b3225e84d29f,2024-02-22_16h19.05.011,kallum_motion_pilot,2023.2.2,Win32,59.88023952,6096ace01e65b3225e84d29f,65d6bb0e977760de756971f7,65d6bd02210973f7d2836cfa,0.0877,0.0878,1,61,223,116,1,sevenfive,,,,,,,,,,,,,,,,,,,,,,,,,,,,,,,,,,,,,,,,,,,,,,,,,,,,,,,,,,,,,,,,,,,,,,,,,,,,,,,,,,,,,,,,,,,,,,,,,,,,,,,,,,,,,,,,,,,,,,,,,,,,,,,,,,,,,,,,,
,,6096ace01e65b3225e84d29f,2024-02-22_16h19.05.011,kallum_motion_pilot,2023.2.2,Win32,59.88023952,6096ace01e65b3225e84d29f,65d6bb0e977760de756971f7,65d6bd02210973f7d2836cfa,0.088,0.0881,1,62,224,159,1,eightseven,,,,,,,,,,,,,,,,,,,,,,,,,,,,,,,,,,,,,,,,,,,,,,,,,,,,,,,,,,,,,,,,,,,,,,,,,,,,,,,,,,,,,,,,,,,,,,,,,,,,,,,,,,,,,,,,,,,,,,,,,,,,,,,,,,,,,,,,,
,,6096ace01e65b3225e84d29f,2024-02-22_16h19.05.011,kallum_motion_pilot,2023.2.2,Win32,59.88023952,6096ace01e65b3225e84d29f,65d6bb0e977760de756971f7,65d6bd02210973f7d2836cfa,0.0882,0.0884,1,63,225,95,1,eightseven,,,,,,,,,,,,,,,,,,,,,,,,,,,,,,,,,,,,,,,,,,,,,,,,,,,,,,,,,,,,,,,,,,,,,,,,,,,,,,,,,,,,,,,,,,,,,,,,,,,,,,,,,,,,,,,,,,,,,,,,,,,,,,,,,,,,,,,,,
,,6096ace01e65b3225e84d29f,2024-02-22_16h19.05.011,kallum_motion_pilot,2023.2.2,Win32,59.88023952,6096ace01e65b3225e84d29f,65d6bb0e977760de756971f7,65d6bd02210973f7d2836cfa,0.0884,0.0886,1,64,226,74,1,twoone,,,,,,,,,,,,,,,,,,,,,,,,,,,,,,,,,,,,,,,,,,,,,,,,,,,,,,,,,,,,,,,,,,,,,,,,,,,,,,,,,,,,,,,,,,,,,,,,,,,,,,,,,,,,,,,,,,,,,,,,,,,,,,,,,,,,,,,,,
,,6096ace01e65b3225e84d29f,2024-02-22_16h19.05.011,kallum_motion_pilot,2023.2.2,Win32,59.88023952,6096ace01e65b3225e84d29f,65d6bb0e977760de756971f7,65d6bd02210973f7d2836cfa,0.0887,0.0888,1,65,227,119,1,eightseven,,,,,,,,,,,,,,,,,,,,,,,,,,,,,,,,,,,,,,,,,,,,,,,,,,,,,,,,,,,,,,,,,,,,,,,,,,,,,,,,,,,,,,,,,,,,,,,,,,,,,,,,,,,,,,,,,,,,,,,,,,,,,,,,,,,,,,,,,
,,6096ace01e65b3225e84d29f,2024-02-22_16h19.05.011,kallum_motion_pilot,2023.2.2,Win32,59.88023952,6096ace01e65b3225e84d29f,65d6bb0e977760de756971f7,65d6bd02210973f7d2836cfa,0.0889,0.089,1,66,228,62,1,fourtwo,,,,,,,,,,,,,,,,,,,,,,,,,,,,,,,,,,,,,,,,,,,,,,,,,,,,,,,,,,,,,,,,,,,,,,,,,,,,,,,,,,,,,,,,,,,,,,,,,,,,,,,,,,,,,,,,,,,,,,,,,,,,,,,,,,,,,,,,,
,,6096ace01e65b3225e84d29f,2024-02-22_16h19.05.011,kallum_motion_pilot,2023.2.2,Win32,59.88023952,6096ace01e65b3225e84d29f,65d6bb0e977760de756971f7,65d6bd02210973f7d2836cfa,0.0891,0.0892,1,67,229,5,1,threefour,,,,,,,,,,,,,,,,,,,,,,,,,,,,,,,,,,,,,,,,,,,,,,,,,,,,,,,,,,,,,,,,,,,,,,,,,,,,,,,,,,,,,,,,,,,,,,,,,,,,,,,,,,,,,,,,,,,,,,,,,,,,,,,,,,,,,,,,,
,,6096ace01e65b3225e84d29f,2024-02-22_16h19.05.011,kallum_motion_pilot,2023.2.2,Win32,59.88023952,6096ace01e65b3225e84d29f,65d6bb0e977760de756971f7,65d6bd02210973f7d2836cfa,0.0894,0.0895,1,68,230,17,1,onethree,,,,,,,,,,,,,,,,,,,,,,,,,,,,,,,,,,,,,,,,,,,,,,,,,,,,,,,,,,,,,,,,,,,,,,,,,,,,,,,,,,,,,,,,,,,,,,,,,,,,,,,,,,,,,,,,,,,,,,,,,,,,,,,,,,,,,,,,,
,,6096ace01e65b3225e84d29f,2024-02-22_16h19.05.011,kallum_motion_pilot,2023.2.2,Win32,59.88023952,6096ace01e65b3225e84d29f,65d6bb0e977760de756971f7,65d6bd02210973f7d2836cfa,0.0896,0.0897,1,69,231,102,1,eightsix,,,,,,,,,,,,,,,,,,,,,,,,,,,,,,,,,,,,,,,,,,,,,,,,,,,,,,,,,,,,,,,,,,,,,,,,,,,,,,,,,,,,,,,,,,,,,,,,,,,,,,,,,,,,,,,,,,,,,,,,,,,,,,,,,,,,,,,,,
,,6096ace01e65b3225e84d29f,2024-02-22_16h19.05.011,kallum_motion_pilot,2023.2.2,Win32,59.88023952,6096ace01e65b3225e84d29f,65d6bb0e977760de756971f7,65d6bd02210973f7d2836cfa,0.0899,0.09,1,70,232,52,1,threeone,,,,,,,,,,,,,,,,,,,,,,,,,,,,,,,,,,,,,,,,,,,,,,,,,,,,,,,,,,,,,,,,,,,,,,,,,,,,,,,,,,,,,,,,,,,,,,,,,,,,,,,,,,,,,,,,,,,,,,,,,,,,,,,,,,,,,,,,,
,,6096ace01e65b3225e84d29f,2024-02-22_16h19.05.011,kallum_motion_pilot,2023.2.2,Win32,59.88023952,6096ace01e65b3225e84d29f,65d6bb0e977760de756971f7,65d6bd02210973f7d2836cfa,0.0901,0.0903,1,71,233,124,1,sevenfive,,,,,,,,,,,,,,,,,,,,,,,,,,,,,,,,,,,,,,,,,,,,,,,,,,,,,,,,,,,,,,,,,,,,,,,,,,,,,,,,,,,,,,,,,,,,,,,,,,,,,,,,,,,,,,,,,,,,,,,,,,,,,,,,,,,,,,,,,
,,6096ace01e65b3225e84d29f,2024-02-22_16h19.05.011,kallum_motion_pilot,2023.2.2,Win32,59.88023952,6096ace01e65b3225e84d29f,65d6bb0e977760de756971f7,65d6bd02210973f7d2836cfa,0.0903,0.0904,1,72,234,113,1,fiveseven,,,,,,,,,,,,,,,,,,,,,,,,,,,,,,,,,,,,,,,,,,,,,,,,,,,,,,,,,,,,,,,,,,,,,,,,,,,,,,,,,,,,,,,,,,,,,,,,,,,,,,,,,,,,,,,,,,,,,,,,,,,,,,,,,,,,,,,,,
,,6096ace01e65b3225e84d29f,2024-02-22_16h19.05.011,kallum_motion_pilot,2023.2.2,Win32,59.88023952,6096ace01e65b3225e84d29f,65d6bb0e977760de756971f7,65d6bd02210973f7d2836cfa,0.0907,0.0908,1,73,235,39,1,fourthree,,,,,,,,,,,,,,,,,,,,,,,,,,,,,,,,,,,,,,,,,,,,,,,,,,,,,,,,,,,,,,,,,,,,,,,,,,,,,,,,,,,,,,,,,,,,,,,,,,,,,,,,,,,,,,,,,,,,,,,,,,,,,,,,,,,,,,,,,
,,6096ace01e65b3225e84d29f,2024-02-22_16h19.05.011,kallum_motion_pilot,2023.2.2,Win32,59.88023952,6096ace01e65b3225e84d29f,65d6bb0e977760de756971f7,65d6bd02210973f7d2836cfa,0.0909,0.091,1,74,236,49,1,onethree,,,,,,,,,,,,,,,,,,,,,,,,,,,,,,,,,,,,,,,,,,,,,,,,,,,,,,,,,,,,,,,,,,,,,,,,,,,,,,,,,,,,,,,,,,,,,,,,,,,,,,,,,,,,,,,,,,,,,,,,,,,,,,,,,,,,,,,,,
,,6096ace01e65b3225e84d29f,2024-02-22_16h19.05.011,kallum_motion_pilot,2023.2.2,Win32,59.88023952,6096ace01e65b3225e84d29f,65d6bb0e977760de756971f7,65d6bd02210973f7d2836cfa,0.0912,0.0912,1,75,237,18,1,twoone,,,,,,,,,,,,,,,,,,,,,,,,,,,,,,,,,,,,,,,,,,,,,,,,,,,,,,,,,,,,,,,,,,,,,,,,,,,,,,,,,,,,,,,,,,,,,,,,,,,,,,,,,,,,,,,,,,,,,,,,,,,,,,,,,,,,,,,,,
,,6096ace01e65b3225e84d29f,2024-02-22_16h19.05.011,kallum_motion_pilot,2023.2.2,Win32,59.88023952,6096ace01e65b3225e84d29f,65d6bb0e977760de756971f7,65d6bd02210973f7d2836cfa,0.0915,0.0915,1,76,238,43,1,twofour,,,,,,,,,,,,,,,,,,,,,,,,,,,,,,,,,,,,,,,,,,,,,,,,,,,,,,,,,,,,,,,,,,,,,,,,,,,,,,,,,,,,,,,,,,,,,,,,,,,,,,,,,,,,,,,,,,,,,,,,,,,,,,,,,,,,,,,,,
,,6096ace01e65b3225e84d29f,2024-02-22_16h19.05.011,kallum_motion_pilot,2023.2.2,Win32,59.88023952,6096ace01e65b3225e84d29f,65d6bb0e977760de756971f7,65d6bd02210973f7d2836cfa,0.0916,0.0918,1,77,239,104,1,fivesix,,,,,,,,,,,,,,,,,,,,,,,,,,,,,,,,,,,,,,,,,,,,,,,,,,,,,,,,,,,,,,,,,,,,,,,,,,,,,,,,,,,,,,,,,,,,,,,,,,,,,,,,,,,,,,,,,,,,,,,,,,,,,,,,,,,,,,,,,
,,6096ace01e65b3225e84d29f,2024-02-22_16h19.05.011,kallum_motion_pilot,2023.2.2,Win32,59.88023952,6096ace01e65b3225e84d29f,65d6bb0e977760de756971f7,65d6bd02210973f7d2836cfa,0.0918,0.0919,1,78,240,6,1,fourtwo,,,,,,,,,,,,,,,,,,,,,,,,,,,,,,,,,,,,,,,,,,,,,,,,,,,,,,,,,,,,,,,,,,,,,,,,,,,,,,,,,,,,,,,,,,,,,,,,,,,,,,,,,,,,,,,,,,,,,,,,,,,,,,,,,,,,,,,,,
,,6096ace01e65b3225e84d29f,2024-02-22_16h19.05.011,kallum_motion_pilot,2023.2.2,Win32,59.88023952,6096ace01e65b3225e84d29f,65d6bb0e977760de756971f7,65d6bd02210973f7d2836cfa,0.0921,0.0921,1,79,241,26,1,twoone,,,,,,,,,,,,,,,,,,,,,,,,,,,,,,,,,,,,,,,,,,,,,,,,,,,,,,,,,,,,,,,,,,,,,,,,,,,,,,,,,,,,,,,,,,,,,,,,,,,,,,,,,,,,,,,,,,,,,,,,,,,,,,,,,,,,,,,,,
,,6096ace01e65b3225e84d29f,2024-02-22_16h19.05.011,kallum_motion_pilot,2023.2.2,Win32,59.88023952,6096ace01e65b3225e84d29f,65d6bb0e977760de756971f7,65d6bd02210973f7d2836cfa,0.0923,0.0924,1,80,242,65,1,onethree,,,,,,,,,,,,,,,,,,,,,,,,,,,,,,,,,,,,,,,,,,,,,,,,,,,,,,,,,,,,,,,,,,,,,,,,,,,,,,,,,,,,,,,,,,,,,,,,,,,,,,,,,,,,,,,,,,,,,,,,,,,,,,,,,,,,,,,,,
,,6096ace01e65b3225e84d29f,2024-02-22_16h19.05.011,kallum_motion_pilot,2023.2.2,Win32,59.88023952,6096ace01e65b3225e84d29f,65d6bb0e977760de756971f7,65d6bd02210973f7d2836cfa,0.0926,0.0926,1,81,243,4,1,threeone,,,,,,,,,,,,,,,,,,,,,,,,,,,,,,,,,,,,,,,,,,,,,,,,,,,,,,,,,,,,,,,,,,,,,,,,,,,,,,,,,,,,,,,,,,,,,,,,,,,,,,,,,,,,,,,,,,,,,,,,,,,,,,,,,,,,,,,,,
,,6096ace01e65b3225e84d29f,2024-02-22_16h19.05.011,kallum_motion_pilot,2023.2.2,Win32,59.88023952,6096ace01e65b3225e84d29f,65d6bb0e977760de756971f7,65d6bd02210973f7d2836cfa,0.0927,0.0929,1,82,244,25,1,onethree,,,,,,,,,,,,,,,,,,,,,,,,,,,,,,,,,,,,,,,,,,,,,,,,,,,,,,,,,,,,,,,,,,,,,,,,,,,,,,,,,,,,,,,,,,,,,,,,,,,,,,,,,,,,,,,,,,,,,,,,,,,,,,,,,,,,,,,,,
,,6096ace01e65b3225e84d29f,2024-02-22_16h19.05.011,kallum_motion_pilot,2023.2.2,Win32,59.88023952,6096ace01e65b3225e84d29f,65d6bb0e977760de756971f7,65d6bd02210973f7d2836cfa,0.093,0.0931,1,83,245,28,1,threeone,,,,,,,,,,,,,,,,,,,,,,,,,,,,,,,,,,,,,,,,,,,,,,,,,,,,,,,,,,,,,,,,,,,,,,,,,,,,,,,,,,,,,,,,,,,,,,,,,,,,,,,,,,,,,,,,,,,,,,,,,,,,,,,,,,,,,,,,,
,,6096ace01e65b3225e84d29f,2024-02-22_16h19.05.011,kallum_motion_pilot,2023.2.2,Win32,59.88023952,6096ace01e65b3225e84d29f,65d6bb0e977760de756971f7,65d6bd02210973f7d2836cfa,0.0932,0.0933,1,84,246,161,1,fiveseven,,,,,,,,,,,,,,,,,,,,,,,,,,,,,,,,,,,,,,,,,,,,,,,,,,,,,,,,,,,,,,,,,,,,,,,,,,,,,,,,,,,,,,,,,,,,,,,,,,,,,,,,,,,,,,,,,,,,,,,,,,,,,,,,,,,,,,,,,
,,6096ace01e65b3225e84d29f,2024-02-22_16h19.05.011,kallum_motion_pilot,2023.2.2,Win32,59.88023952,6096ace01e65b3225e84d29f,65d6bb0e977760de756971f7,65d6bd02210973f7d2836cfa,0.0934,0.0935,1,85,247,66,1,twoone,,,,,,,,,,,,,,,,,,,,,,,,,,,,,,,,,,,,,,,,,,,,,,,,,,,,,,,,,,,,,,,,,,,,,,,,,,,,,,,,,,,,,,,,,,,,,,,,,,,,,,,,,,,,,,,,,,,,,,,,,,,,,,,,,,,,,,,,,
,,6096ace01e65b3225e84d29f,2024-02-22_16h19.05.011,kallum_motion_pilot,2023.2.2,Win32,59.88023952,6096ace01e65b3225e84d29f,65d6bb0e977760de756971f7,65d6bd02210973f7d2836cfa,0.0937,0.0937,1,86,248,115,1,sixeight,,,,,,,,,,,,,,,,,,,,,,,,,,,,,,,,,,,,,,,,,,,,,,,,,,,,,,,,,,,,,,,,,,,,,,,,,,,,,,,,,,,,,,,,,,,,,,,,,,,,,,,,,,,,,,,,,,,,,,,,,,,,,,,,,,,,,,,,,
,,6096ace01e65b3225e84d29f,2024-02-22_16h19.05.011,kallum_motion_pilot,2023.2.2,Win32,59.88023952,6096ace01e65b3225e84d29f,65d6bb0e977760de756971f7,65d6bd02210973f7d2836cfa,0.0939,0.0939,1,87,249,158,1,eightsix,,,,,,,,,,,,,,,,,,,,,,,,,,,,,,,,,,,,,,,,,,,,,,,,,,,,,,,,,,,,,,,,,,,,,,,,,,,,,,,,,,,,,,,,,,,,,,,,,,,,,,,,,,,,,,,,,,,,,,,,,,,,,,,,,,,,,,,,,
,,6096ace01e65b3225e84d29f,2024-02-22_16h19.05.011,kallum_motion_pilot,2023.2.2,Win32,59.88023952,6096ace01e65b3225e84d29f,65d6bb0e977760de756971f7,65d6bd02210973f7d2836cfa,0.0941,0.0942,1,88,250,123,1,sixeight,,,,,,,,,,,,,,,,,,,,,,,,,,,,,,,,,,,,,,,,,,,,,,,,,,,,,,,,,,,,,,,,,,,,,,,,,,,,,,,,,,,,,,,,,,,,,,,,,,,,,,,,,,,,,,,,,,,,,,,,,,,,,,,,,,,,,,,,,
,,6096ace01e65b3225e84d29f,2024-02-22_16h19.05.011,kallum_motion_pilot,2023.2.2,Win32,59.88023952,6096ace01e65b3225e84d29f,65d6bb0e977760de756971f7,65d6bd02210973f7d2836cfa,0.0943,0.0944,1,89,251,151,1,eightseven,,,,,,,,,,,,,,,,,,,,,,,,,,,,,,,,,,,,,,,,,,,,,,,,,,,,,,,,,,,,,,,,,,,,,,,,,,,,,,,,,,,,,,,,,,,,,,,,,,,,,,,,,,,,,,,,,,,,,,,,,,,,,,,,,,,,,,,,,
,,6096ace01e65b3225e84d29f,2024-02-22_16h19.05.011,kallum_motion_pilot,2023.2.2,Win32,59.88023952,6096ace01e65b3225e84d29f,65d6bb0e977760de756971f7,65d6bd02210973f7d2836cfa,0.0945,0.0947,1,90,252,55,1,fourthree,,,,,,,,,,,,,,,,,,,,,,,,,,,,,,,,,,,,,,,,,,,,,,,,,,,,,,,,,,,,,,,,,,,,,,,,,,,,,,,,,,,,,,,,,,,,,,,,,,,,,,,,,,,,,,,,,,,,,,,,,,,,,,,,,,,,,,,,,
,,6096ace01e65b3225e84d29f,2024-02-22_16h19.05.011,kallum_motion_pilot,2023.2.2,Win32,59.88023952,6096ace01e65b3225e84d29f,65d6bb0e977760de756971f7,65d6bd02210973f7d2836cfa,0.0947,0.0949,1,91,253,143,1,eightseven,,,,,,,,,,,,,,,,,,,,,,,,,,,,,,,,,,,,,,,,,,,,,,,,,,,,,,,,,,,,,,,,,,,,,,,,,,,,,,,,,,,,,,,,,,,,,,,,,,,,,,,,,,,,,,,,,,,,,,,,,,,,,,,,,,,,,,,,,
,,6096ace01e65b3225e84d29f,2024-02-22_16h19.05.011,kallum_motion_pilot,2023.2.2,Win32,59.88023952,6096ace01e65b3225e84d29f,65d6bb0e977760de756971f7,65d6bd02210973f7d2836cfa,0.095,0.0951,1,92,254,41,1,onethree,,,,,,,,,,,,,,,,,,,,,,,,,,,,,,,,,,,,,,,,,,,,,,,,,,,,,,,,,,,,,,,,,,,,,,,,,,,,,,,,,,,,,,,,,,,,,,,,,,,,,,,,,,,,,,,,,,,,,,,,,,,,,,,,,,,,,,,,,
,,6096ace01e65b3225e84d29f,2024-02-22_16h19.05.011,kallum_motion_pilot,2023.2.2,Win32,59.88023952,6096ace01e65b3225e84d29f,65d6bb0e977760de756971f7,65d6bd02210973f7d2836cfa,0.0952,0.0953,1,93,255,112,1,fivesix,,,,,,,,,,,,,,,,,,,,,,,,,,,,,,,,,,,,,,,,,,,,,,,,,,,,,,,,,,,,,,,,,,,,,,,,,,,,,,,,,,,,,,,,,,,,,,,,,,,,,,,,,,,,,,,,,,,,,,,,,,,,,,,,,,,,,,,,,
,,6096ace01e65b3225e84d29f,2024-02-22_16h19.05.011,kallum_motion_pilot,2023.2.2,Win32,59.88023952,6096ace01e65b3225e84d29f,65d6bb0e977760de756971f7,65d6bd02210973f7d2836cfa,0.0954,0.0956,1,94,256,31,1,fourthree,,,,,,,,,,,,,,,,,,,,,,,,,,,,,,,,,,,,,,,,,,,,,,,,,,,,,,,,,,,,,,,,,,,,,,,,,,,,,,,,,,,,,,,,,,,,,,,,,,,,,,,,,,,,,,,,,,,,,,,,,,,,,,,,,,,,,,,,,
,,6096ace01e65b3225e84d29f,2024-02-22_16h19.05.011,kallum_motion_pilot,2023.2.2,Win32,59.88023952,6096ace01e65b3225e84d29f,65d6bb0e977760de756971f7,65d6bd02210973f7d2836cfa,0.0957,0.096,1,95,257,85,1,seveneight,,,,,,,,,,,,,,,,,,,,,,,,,,,,,,,,,,,,,,,,,,,,,,,,,,,,,,,,,,,,,,,,,,,,,,,,,,,,,,,,,,,,,,,,,,,,,,,,,,,,,,,,,,,,,,,,,,,,,,,,,,,,,,,,,,,,,,,,,
,,6096ace01e65b3225e84d29f,2024-02-22_16h19.05.011,kallum_motion_pilot,2023.2.2,Win32,59.88023952,6096ace01e65b3225e84d29f,65d6bb0e977760de756971f7,65d6bd02210973f7d2836cfa,0.096,0.0962,1,96,258,101,1,seveneight,,,,,,,,,,,,,,,,,,,,,,,,,,,,,,,,,,,,,,,,,,,,,,,,,,,,,,,,,,,,,,,,,,,,,,,,,,,,,,,,,,,,,,,,,,,,,,,,,,,,,,,,,,,,,,,,,,,,,,,,,,,,,,,,,,,,,,,,,
,,6096ace01e65b3225e84d29f,2024-02-22_16h19.05.011,kallum_motion_pilot,2023.2.2,Win32,59.88023952,6096ace01e65b3225e84d29f,65d6bb0e977760de756971f7,65d6bd02210973f7d2836cfa,0.0963,0.0963,1,97,259,94,1,eightsix,,,,,,,,,,,,,,,,,,,,,,,,,,,,,,,,,,,,,,,,,,,,,,,,,,,,,,,,,,,,,,,,,,,,,,,,,,,,,,,,,,,,,,,,,,,,,,,,,,,,,,,,,,,,,,,,,,,,,,,,,,,,,,,,,,,,,,,,,
,,6096ace01e65b3225e84d29f,2024-02-22_16h19.05.011,kallum_motion_pilot,2023.2.2,Win32,59.88023952,6096ace01e65b3225e84d29f,65d6bb0e977760de756971f7,65d6bd02210973f7d2836cfa,0.0965,0.0966,1,98,260,71,1,fourthree,,,,,,,,,,,,,,,,,,,,,,,,,,,,,,,,,,,,,,,,,,,,,,,,,,,,,,,,,,,,,,,,,,,,,,,,,,,,,,,,,,,,,,,,,,,,,,,,,,,,,,,,,,,,,,,,,,,,,,,,,,,,,,,,,,,,,,,,,
,,6096ace01e65b3225e84d29f,2024-02-22_16h19.05.011,kallum_motion_pilot,2023.2.2,Win32,59.88023952,6096ace01e65b3225e84d29f,65d6bb0e977760de756971f7,65d6bd02210973f7d2836cfa,0.0967,0.0968,1,99,261,40,1,onetwo,,,,,,,,,,,,,,,,,,,,,,,,,,,,,,,,,,,,,,,,,,,,,,,,,,,,,,,,,,,,,,,,,,,,,,,,,,,,,,,,,,,,,,,,,,,,,,,,,,,,,,,,,,,,,,,,,,,,,,,,,,,,,,,,,,,,,,,,,
,,6096ace01e65b3225e84d29f,2024-02-22_16h19.05.011,kallum_motion_pilot,2023.2.2,Win32,59.88023952,6096ace01e65b3225e84d29f,65d6bb0e977760de756971f7,65d6bd02210973f7d2836cfa,0.097,0.0972,1,100,262,157,1,seveneight,,,,,,,,,,,,,,,,,,,,,,,,,,,,,,,,,,,,,,,,,,,,,,,,,,,,,,,,,,,,,,,,,,,,,,,,,,,,,,,,,,,,,,,,,,,,,,,,,,,,,,,,,,,,,,,,,,,,,,,,,,,,,,,,,,,,,,,,,
,,6096ace01e65b3225e84d29f,2024-02-22_16h19.05.011,kallum_motion_pilot,2023.2.2,Win32,59.88023952,6096ace01e65b3225e84d29f,65d6bb0e977760de756971f7,65d6bd02210973f7d2836cfa,0.0974,0.0975,1,101,263,141,1,seveneight,,,,,,,,,,,,,,,,,,,,,,,,,,,,,,,,,,,,,,,,,,,,,,,,,,,,,,,,,,,,,,,,,,,,,,,,,,,,,,,,,,,,,,,,,,,,,,,,,,,,,,,,,,,,,,,,,,,,,,,,,,,,,,,,,,,,,,,,,
,,6096ace01e65b3225e84d29f,2024-02-22_16h19.05.011,kallum_motion_pilot,2023.2.2,Win32,59.88023952,6096ace01e65b3225e84d29f,65d6bb0e977760de756971f7,65d6bd02210973f7d2836cfa,0.0976,0.0978,1,102,264,1,1,onethree,,,,,,,,,,,,,,,,,,,,,,,,,,,,,,,,,,,,,,,,,,,,,,,,,,,,,,,,,,,,,,,,,,,,,,,,,,,,,,,,,,,,,,,,,,,,,,,,,,,,,,,,,,,,,,,,,,,,,,,,,,,,,,,,,,,,,,,,,
,,6096ace01e65b3225e84d29f,2024-02-22_16h19.05.011,kallum_motion_pilot,2023.2.2,Win32,59.88023952,6096ace01e65b3225e84d29f,65d6bb0e977760de756971f7,65d6bd02210973f7d2836cfa,0.0992,0.0993,1,103,265,46,1,fourtwo,,,,,,,,,,,,,,,,,,,,,,,,,,,,,,,,,,,,,,,,,,,,,,,,,,,,,,,,,,,,,,,,,,,,,,,,,,,,,,,,,,,,,,,,,,,,,,,,,,,,,,,,,,,,,,,,,,,,,,,,,,,,,,,,,,,,,,,,,
,,6096ace01e65b3225e84d29f,2024-02-22_16h19.05.011,kallum_motion_pilot,2023.2.2,Win32,59.88023952,6096ace01e65b3225e84d29f,65d6bb0e977760de756971f7,65d6bd02210973f7d2836cfa,0.0995,0.0996,1,104,266,3,1,twofour,,,,,,,,,,,,,,,,,,,,,,,,,,,,,,,,,,,,,,,,,,,,,,,,,,,,,,,,,,,,,,,,,,,,,,,,,,,,,,,,,,,,,,,,,,,,,,,,,,,,,,,,,,,,,,,,,,,,,,,,,,,,,,,,,,,,,,,,,
,,6096ace01e65b3225e84d29f,2024-02-22_16h19.05.011,kallum_motion_pilot,2023.2.2,Win32,59.88023952,6096ace01e65b3225e84d29f,65d6bb0e977760de756971f7,65d6bd02210973f7d2836cfa,0.0997,0.0999,1,105,267,92,1,sevenfive,,,,,,,,,,,,,,,,,,,,,,,,,,,,,,,,,,,,,,,,,,,,,,,,,,,,,,,,,,,,,,,,,,,,,,,,,,,,,,,,,,,,,,,,,,,,,,,,,,,,,,,,,,,,,,,,,,,,,,,,,,,,,,,,,,,,,,,,,
,,6096ace01e65b3225e84d29f,2024-02-22_16h19.05.011,kallum_motion_pilot,2023.2.2,Win32,59.88023952,6096ace01e65b3225e84d29f,65d6bb0e977760de756971f7,65d6bd02210973f7d2836cfa,0.0999,0.1,1,106,268,7,1,fourthree,,,,,,,,,,,,,,,,,,,,,,,,,,,,,,,,,,,,,,,,,,,,,,,,,,,,,,,,,,,,,,,,,,,,,,,,,,,,,,,,,,,,,,,,,,,,,,,,,,,,,,,,,,,,,,,,,,,,,,,,,,,,,,,,,,,,,,,,,
,,6096ace01e65b3225e84d29f,2024-02-22_16h19.05.011,kallum_motion_pilot,2023.2.2,Win32,59.88023952,6096ace01e65b3225e84d29f,65d6bb0e977760de756971f7,65d6bd02210973f7d2836cfa,0.1001,0.1002,1,107,269,105,1,fiveseven,,,,,,,,,,,,,,,,,,,,,,,,,,,,,,,,,,,,,,,,,,,,,,,,,,,,,,,,,,,,,,,,,,,,,,,,,,,,,,,,,,,,,,,,,,,,,,,,,,,,,,,,,,,,,,,,,,,,,,,,,,,,,,,,,,,,,,,,,
,,6096ace01e65b3225e84d29f,2024-02-22_16h19.05.011,kallum_motion_pilot,2023.2.2,Win32,59.88023952,6096ace01e65b3225e84d29f,65d6bb0e977760de756971f7,65d6bd02210973f7d2836cfa,0.1003,0.1005,1,108,270,53,1,threefour,,,,,,,,,,,,,,,,,,,,,,,,,,,,,,,,,,,,,,,,,,,,,,,,,,,,,,,,,,,,,,,,,,,,,,,,,,,,,,,,,,,,,,,,,,,,,,,,,,,,,,,,,,,,,,,,,,,,,,,,,,,,,,,,,,,,,,,,,
,,6096ace01e65b3225e84d29f,2024-02-22_16h19.05.011,kallum_motion_pilot,2023.2.2,Win32,59.88023952,6096ace01e65b3225e84d29f,65d6bb0e977760de756971f7,65d6bd02210973f7d2836cfa,0.1006,0.1007,1,109,271,35,1,twofour,,,,,,,,,,,,,,,,,,,,,,,,,,,,,,,,,,,,,,,,,,,,,,,,,,,,,,,,,,,,,,,,,,,,,,,,,,,,,,,,,,,,,,,,,,,,,,,,,,,,,,,,,,,,,,,,,,,,,,,,,,,,,,,,,,,,,,,,,
,,6096ace01e65b3225e84d29f,2024-02-22_16h19.05.011,kallum_motion_pilot,2023.2.2,Win32,59.88023952,6096ace01e65b3225e84d29f,65d6bb0e977760de756971f7,65d6bd02210973f7d2836cfa,0.1008,0.1009,1,110,272,68,1,threeone,,,,,,,,,,,,,,,,,,,,,,,,,,,,,,,,,,,,,,,,,,,,,,,,,,,,,,,,,,,,,,,,,,,,,,,,,,,,,,,,,,,,,,,,,,,,,,,,,,,,,,,,,,,,,,,,,,,,,,,,,,,,,,,,,,,,,,,,,
,,6096ace01e65b3225e84d29f,2024-02-22_16h19.05.011,kallum_motion_pilot,2023.2.2,Win32,59.88023952,6096ace01e65b3225e84d29f,65d6bb0e977760de756971f7,65d6bd02210973f7d2836cfa,0.101,0.1011,1,111,273,106,1,sixfive,,,,,,,,,,,,,,,,,,,,,,,,,,,,,,,,,,,,,,,,,,,,,,,,,,,,,,,,,,,,,,,,,,,,,,,,,,,,,,,,,,,,,,,,,,,,,,,,,,,,,,,,,,,,,,,,,,,,,,,,,,,,,,,,,,,,,,,,,
,,6096ace01e65b3225e84d29f,2024-02-22_16h19.05.011,kallum_motion_pilot,2023.2.2,Win32,59.88023952,6096ace01e65b3225e84d29f,65d6bb0e977760de756971f7,65d6bd02210973f7d2836cfa,0.1013,0.1013,1,112,274,48,1,onetwo,,,,,,,,,,,,,,,,,,,,,,,,,,,,,,,,,,,,,,,,,,,,,,,,,,,,,,,,,,,,,,,,,,,,,,,,,,,,,,,,,,,,,,,,,,,,,,,,,,,,,,,,,,,,,,,,,,,,,,,,,,,,,,,,,,,,,,,,,
,,6096ace01e65b3225e84d29f,2024-02-22_16h19.05.011,kallum_motion_pilot,2023.2.2,Win32,59.88023952,6096ace01e65b3225e84d29f,65d6bb0e977760de756971f7,65d6bd02210973f7d2836cfa,0.1014,0.1015,1,113,275,81,1,fiveseven,,,,,,,,,,,,,,,,,,,,,,,,,,,,,,,,,,,,,,,,,,,,,,,,,,,,,,,,,,,,,,,,,,,,,,,,,,,,,,,,,,,,,,,,,,,,,,,,,,,,,,,,,,,,,,,,,,,,,,,,,,,,,,,,,,,,,,,,,
,,6096ace01e65b3225e84d29f,2024-02-22_16h19.05.011,kallum_motion_pilot,2023.2.2,Win32,59.88023952,6096ace01e65b3225e84d29f,65d6bb0e977760de756971f7,65d6bd02210973f7d2836cfa,0.1017,0.1017,1,114,276,13,1,threefour,,,,,,,,,,,,,,,,,,,,,,,,,,,,,,,,,,,,,,,,,,,,,,,,,,,,,,,,,,,,,,,,,,,,,,,,,,,,,,,,,,,,,,,,,,,,,,,,,,,,,,,,,,,,,,,,,,,,,,,,,,,,,,,,,,,,,,,,,
,,6096ace01e65b3225e84d29f,2024-02-22_16h19.05.011,kallum_motion_pilot,2023.2.2,Win32,59.88023952,6096ace01e65b3225e84d29f,65d6bb0e977760de756971f7,65d6bd02210973f7d2836cfa,0.1018,0.1019,1,115,277,149,1,seveneight,,,,,,,,,,,,,,,,,,,,,,,,,,,,,,,,,,,,,,,,,,,,,,,,,,,,,,,,,,,,,,,,,,,,,,,,,,,,,,,,,,,,,,,,,,,,,,,,,,,,,,,,,,,,,,,,,,,,,,,,,,,,,,,,,,,,,,,,,
