startup.started,startup.stopped,Prolific ID*,date,expName,psychopyVersion,OS,frameRate,participant,study_id,session,stimpositions.started,stimpositions.stopped,hardcoded_stimulus_positions.thisRepN,hardcoded_stimulus_positions.thisTrialN,hardcoded_stimulus_positions.thisN,hardcoded_stimulus_positions.thisIndex,hardcoded_stimulus_positions.ran,StimulusPos,stimorientation.started,stimorientation.stopped,prac_stimorientation_import_loop.thisRepN,prac_stimorientation_import_loop.thisTrialN,prac_stimorientation_import_loop.thisN,prac_stimorientation_import_loop.thisIndex,prac_stimorientation_import_loop.ran,Stimorientation,welcome_instr.started,welcome_instr.stopped,key_resp.keys,key_resp.rt,key_resp.duration,response_steppedout_1.started,response_steppedout_1.stopped,key_resp_20.keys,key_resp_20.rt,key_resp_20.duration,response_steppedout_2.started,response_steppedout_2.stopped,key_resp_19.keys,key_resp_19.rt,key_resp_19.duration,stim_response_instr.started,stim_response_instr.stopped,key_resp_15.keys,key_resp_15.rt,key_resp_15.duration,direction_instr_2.started,direction_instr_2.stopped,key_resp_9.keys,key_resp_9.rt,key_resp_9.duration,instr_prac.started,instr_prac.stopped,key_resp_10.keys,key_resp_10.rt,key_resp_10.duration,Stim1_display_prac.started,Stim1_display_prac.stopped,Ecc,Circle1_ori,Circle2_ori,response_prac.started,similarity,response_time,response_prac.stopped,mouse_5.x,mouse_5.y,mouse_5.leftButton,mouse_5.midButton,mouse_5.rightButton,mouse_5.clicked_name,responseprac_feedback.started,responseprac_feedback.stopped,summary2_prac.started,summary2_prac.stopped,mouse_6.x,mouse_6.y,mouse_6.leftButton,mouse_6.midButton,mouse_6.rightButton,mouse_6.clicked_name,duringprac.thisRepN,duringprac.thisTrialN,duringprac.thisN,duringprac.thisIndex,duringprac.ran,begin.started,begin.stopped,key_resp_22.keys,key_resp_22.rt,key_resp_22.duration,Stim1_display.started,Stim1_display.stopped,circle1_ori,circle2_ori,circle1_SF,circle2_SF,response.started,response.stopped,mouse.x,mouse.y,mouse.leftButton,mouse.midButton,mouse.rightButton,mouse.clicked_name,trialnumber,double_pass.thisRepN,double_pass.thisTrialN,double_pass.thisN,double_pass.thisIndex,double_pass.ran,double_pass.order,main_trial.thisRepN,main_trial.thisTrialN,main_trial.thisN,main_trial.thisIndex,main_trial.ran,main_trial.order,Trial_Counter,Catch,Frequencies,response_2.started,response_2.stopped,mouse_2.x,mouse_2.y,mouse_2.leftButton,mouse_2.midButton,mouse_2.rightButton,mouse_2.clicked_name,special_trial.started,special_trial.stopped,catch_1.started,catch_1.stopped,mouse_3.x,mouse_3.y,mouse_3.leftButton,mouse_3.midButton,mouse_3.rightButton,catchresponse,catchnumber,response_time_catch,response_sum.started,response_sum.stopped,mouse_11.x,mouse_11.y,mouse_11.leftButton,mouse_11.midButton,mouse_11.rightButton,flip_presentation_sequence_for_double_pass.started,flip_presentation_sequence_for_double_pass.stopped,goodbye.started,goodbye.stopped,key_resp_3.keys,key_resp_3.rt,key_resp_3.duration
0.0005,0.0006,609fa72a56beea595c2b60b,2024-02-19_03h14.49.231,kallum_motion_pilot,2023.2.2,Win32,60.24096386,609fa72a56beea5595c2b60b,65d2b6c8f2eece985d8e374c,65d2b93f80b5775321cab95c,,,,,,,,,,,,,,,,,,,,,,,,,,,,,,,,,,,,,,,,,,,,,,,,,,,,,,,,,,,,,,,,,,,,,,,,,,,,,,,,,,,,,,,,,,,,,,,,,,,,,,,,,,,,,,,,,,,,,,,,,,,,,,,,,,,,,,,,,,,,,,,,,
,,609fa72a56beea595c2b60b,2024-02-19_03h14.49.231,kallum_motion_pilot,2023.2.2,Win32,60.24096386,609fa72a56beea5595c2b60b,65d2b6c8f2eece985d8e374c,65d2b93f80b5775321cab95c,0.0273,0.0276,0,0,0,103,1,eightseven,,,,,,,,,,,,,,,,,,,,,,,,,,,,,,,,,,,,,,,,,,,,,,,,,,,,,,,,,,,,,,,,,,,,,,,,,,,,,,,,,,,,,,,,,,,,,,,,,,,,,,,,,,,,,,,,,,,,,,,,,,,,,,,,,,,,,,,,,
,,609fa72a56beea595c2b60b,2024-02-19_03h14.49.231,kallum_motion_pilot,2023.2.2,Win32,60.24096386,609fa72a56beea5595c2b60b,65d2b6c8f2eece985d8e374c,65d2b93f80b5775321cab95c,0.028,0.028,0,1,1,15,1,fourthree,,,,,,,,,,,,,,,,,,,,,,,,,,,,,,,,,,,,,,,,,,,,,,,,,,,,,,,,,,,,,,,,,,,,,,,,,,,,,,,,,,,,,,,,,,,,,,,,,,,,,,,,,,,,,,,,,,,,,,,,,,,,,,,,,,,,,,,,,
,,609fa72a56beea595c2b60b,2024-02-19_03h14.49.231,kallum_motion_pilot,2023.2.2,Win32,60.24096386,609fa72a56beea5595c2b60b,65d2b6c8f2eece985d8e374c,65d2b93f80b5775321cab95c,0.0282,0.0282,0,2,2,70,1,fourtwo,,,,,,,,,,,,,,,,,,,,,,,,,,,,,,,,,,,,,,,,,,,,,,,,,,,,,,,,,,,,,,,,,,,,,,,,,,,,,,,,,,,,,,,,,,,,,,,,,,,,,,,,,,,,,,,,,,,,,,,,,,,,,,,,,,,,,,,,,
,,609fa72a56beea595c2b60b,2024-02-19_03h14.49.231,kallum_motion_pilot,2023.2.2,Win32,60.24096386,609fa72a56beea5595c2b60b,65d2b6c8f2eece985d8e374c,65d2b93f80b5775321cab95c,0.0284,0.0285,0,3,3,78,1,fourtwo,,,,,,,,,,,,,,,,,,,,,,,,,,,,,,,,,,,,,,,,,,,,,,,,,,,,,,,,,,,,,,,,,,,,,,,,,,,,,,,,,,,,,,,,,,,,,,,,,,,,,,,,,,,,,,,,,,,,,,,,,,,,,,,,,,,,,,,,,
,,609fa72a56beea595c2b60b,2024-02-19_03h14.49.231,kallum_motion_pilot,2023.2.2,Win32,60.24096386,609fa72a56beea5595c2b60b,65d2b6c8f2eece985d8e374c,65d2b93f80b5775321cab95c,0.0286,0.0286,0,4,4,150,1,eightsix,,,,,,,,,,,,,,,,,,,,,,,,,,,,,,,,,,,,,,,,,,,,,,,,,,,,,,,,,,,,,,,,,,,,,,,,,,,,,,,,,,,,,,,,,,,,,,,,,,,,,,,,,,,,,,,,,,,,,,,,,,,,,,,,,,,,,,,,,
,,609fa72a56beea595c2b60b,2024-02-19_03h14.49.231,kallum_motion_pilot,2023.2.2,Win32,60.24096386,609fa72a56beea5595c2b60b,65d2b6c8f2eece985d8e374c,65d2b93f80b5775321cab95c,0.0288,0.0289,0,5,5,153,1,fiveseven,,,,,,,,,,,,,,,,,,,,,,,,,,,,,,,,,,,,,,,,,,,,,,,,,,,,,,,,,,,,,,,,,,,,,,,,,,,,,,,,,,,,,,,,,,,,,,,,,,,,,,,,,,,,,,,,,,,,,,,,,,,,,,,,,,,,,,,,,
,,609fa72a56beea595c2b60b,2024-02-19_03h14.49.231,kallum_motion_pilot,2023.2.2,Win32,60.24096386,609fa72a56beea5595c2b60b,65d2b6c8f2eece985d8e374c,65d2b93f80b5775321cab95c,0.0291,0.0292,0,6,6,117,1,seveneight,,,,,,,,,,,,,,,,,,,,,,,,,,,,,,,,,,,,,,,,,,,,,,,,,,,,,,,,,,,,,,,,,,,,,,,,,,,,,,,,,,,,,,,,,,,,,,,,,,,,,,,,,,,,,,,,,,,,,,,,,,,,,,,,,,,,,,,,,
,,609fa72a56beea595c2b60b,2024-02-19_03h14.49.231,kallum_motion_pilot,2023.2.2,Win32,60.24096386,609fa72a56beea5595c2b60b,65d2b6c8f2eece985d8e374c,65d2b93f80b5775321cab95c,0.0295,0.0296,0,7,7,52,1,threeone,,,,,,,,,,,,,,,,,,,,,,,,,,,,,,,,,,,,,,,,,,,,,,,,,,,,,,,,,,,,,,,,,,,,,,,,,,,,,,,,,,,,,,,,,,,,,,,,,,,,,,,,,,,,,,,,,,,,,,,,,,,,,,,,,,,,,,,,,
,,609fa72a56beea595c2b60b,2024-02-19_03h14.49.231,kallum_motion_pilot,2023.2.2,Win32,60.24096386,609fa72a56beea5595c2b60b,65d2b6c8f2eece985d8e374c,65d2b93f80b5775321cab95c,0.0298,0.0299,0,8,8,146,1,sixfive,,,,,,,,,,,,,,,,,,,,,,,,,,,,,,,,,,,,,,,,,,,,,,,,,,,,,,,,,,,,,,,,,,,,,,,,,,,,,,,,,,,,,,,,,,,,,,,,,,,,,,,,,,,,,,,,,,,,,,,,,,,,,,,,,,,,,,,,,
,,609fa72a56beea595c2b60b,2024-02-19_03h14.49.231,kallum_motion_pilot,2023.2.2,Win32,60.24096386,609fa72a56beea5595c2b60b,65d2b6c8f2eece985d8e374c,65d2b93f80b5775321cab95c,0.0302,0.0303,0,9,9,140,1,sevenfive,,,,,,,,,,,,,,,,,,,,,,,,,,,,,,,,,,,,,,,,,,,,,,,,,,,,,,,,,,,,,,,,,,,,,,,,,,,,,,,,,,,,,,,,,,,,,,,,,,,,,,,,,,,,,,,,,,,,,,,,,,,,,,,,,,,,,,,,,
,,609fa72a56beea595c2b60b,2024-02-19_03h14.49.231,kallum_motion_pilot,2023.2.2,Win32,60.24096386,609fa72a56beea5595c2b60b,65d2b6c8f2eece985d8e374c,65d2b93f80b5775321cab95c,0.0304,0.0304,0,10,10,134,1,eightsix,,,,,,,,,,,,,,,,,,,,,,,,,,,,,,,,,,,,,,,,,,,,,,,,,,,,,,,,,,,,,,,,,,,,,,,,,,,,,,,,,,,,,,,,,,,,,,,,,,,,,,,,,,,,,,,,,,,,,,,,,,,,,,,,,,,,,,,,,
,,609fa72a56beea595c2b60b,2024-02-19_03h14.49.231,kallum_motion_pilot,2023.2.2,Win32,60.24096386,609fa72a56beea5595c2b60b,65d2b6c8f2eece985d8e374c,65d2b93f80b5775321cab95c,0.0306,0.0306,0,11,11,109,1,seveneight,,,,,,,,,,,,,,,,,,,,,,,,,,,,,,,,,,,,,,,,,,,,,,,,,,,,,,,,,,,,,,,,,,,,,,,,,,,,,,,,,,,,,,,,,,,,,,,,,,,,,,,,,,,,,,,,,,,,,,,,,,,,,,,,,,,,,,,,,
,,609fa72a56beea595c2b60b,2024-02-19_03h14.49.231,kallum_motion_pilot,2023.2.2,Win32,60.24096386,609fa72a56beea5595c2b60b,65d2b6c8f2eece985d8e374c,65d2b93f80b5775321cab95c,0.0307,0.0307,0,12,12,132,1,sevenfive,,,,,,,,,,,,,,,,,,,,,,,,,,,,,,,,,,,,,,,,,,,,,,,,,,,,,,,,,,,,,,,,,,,,,,,,,,,,,,,,,,,,,,,,,,,,,,,,,,,,,,,,,,,,,,,,,,,,,,,,,,,,,,,,,,,,,,,,,
,,609fa72a56beea595c2b60b,2024-02-19_03h14.49.231,kallum_motion_pilot,2023.2.2,Win32,60.24096386,609fa72a56beea5595c2b60b,65d2b6c8f2eece985d8e374c,65d2b93f80b5775321cab95c,0.0309,0.0309,0,13,13,101,1,seveneight,,,,,,,,,,,,,,,,,,,,,,,,,,,,,,,,,,,,,,,,,,,,,,,,,,,,,,,,,,,,,,,,,,,,,,,,,,,,,,,,,,,,,,,,,,,,,,,,,,,,,,,,,,,,,,,,,,,,,,,,,,,,,,,,,,,,,,,,,
,,609fa72a56beea595c2b60b,2024-02-19_03h14.49.231,kallum_motion_pilot,2023.2.2,Win32,60.24096386,609fa72a56beea5595c2b60b,65d2b6c8f2eece985d8e374c,65d2b93f80b5775321cab95c,0.031,0.0311,0,14,14,116,1,sevenfive,,,,,,,,,,,,,,,,,,,,,,,,,,,,,,,,,,,,,,,,,,,,,,,,,,,,,,,,,,,,,,,,,,,,,,,,,,,,,,,,,,,,,,,,,,,,,,,,,,,,,,,,,,,,,,,,,,,,,,,,,,,,,,,,,,,,,,,,,
,,609fa72a56beea595c2b60b,2024-02-19_03h14.49.231,kallum_motion_pilot,2023.2.2,Win32,60.24096386,609fa72a56beea5595c2b60b,65d2b6c8f2eece985d8e374c,65d2b93f80b5775321cab95c,0.0311,0.0312,0,15,15,32,1,onetwo,,,,,,,,,,,,,,,,,,,,,,,,,,,,,,,,,,,,,,,,,,,,,,,,,,,,,,,,,,,,,,,,,,,,,,,,,,,,,,,,,,,,,,,,,,,,,,,,,,,,,,,,,,,,,,,,,,,,,,,,,,,,,,,,,,,,,,,,,
,,609fa72a56beea595c2b60b,2024-02-19_03h14.49.231,kallum_motion_pilot,2023.2.2,Win32,60.24096386,609fa72a56beea5595c2b60b,65d2b6c8f2eece985d8e374c,65d2b93f80b5775321cab95c,0.0313,0.0313,0,16,16,107,1,sixeight,,,,,,,,,,,,,,,,,,,,,,,,,,,,,,,,,,,,,,,,,,,,,,,,,,,,,,,,,,,,,,,,,,,,,,,,,,,,,,,,,,,,,,,,,,,,,,,,,,,,,,,,,,,,,,,,,,,,,,,,,,,,,,,,,,,,,,,,,
,,609fa72a56beea595c2b60b,2024-02-19_03h14.49.231,kallum_motion_pilot,2023.2.2,Win32,60.24096386,609fa72a56beea5595c2b60b,65d2b6c8f2eece985d8e374c,65d2b93f80b5775321cab95c,0.0315,0.0315,0,17,17,102,1,eightsix,,,,,,,,,,,,,,,,,,,,,,,,,,,,,,,,,,,,,,,,,,,,,,,,,,,,,,,,,,,,,,,,,,,,,,,,,,,,,,,,,,,,,,,,,,,,,,,,,,,,,,,,,,,,,,,,,,,,,,,,,,,,,,,,,,,,,,,,,
,,609fa72a56beea595c2b60b,2024-02-19_03h14.49.231,kallum_motion_pilot,2023.2.2,Win32,60.24096386,609fa72a56beea5595c2b60b,65d2b6c8f2eece985d8e374c,65d2b93f80b5775321cab95c,0.0316,0.0317,0,18,18,36,1,threeone,,,,,,,,,,,,,,,,,,,,,,,,,,,,,,,,,,,,,,,,,,,,,,,,,,,,,,,,,,,,,,,,,,,,,,,,,,,,,,,,,,,,,,,,,,,,,,,,,,,,,,,,,,,,,,,,,,,,,,,,,,,,,,,,,,,,,,,,,
,,609fa72a56beea595c2b60b,2024-02-19_03h14.49.231,kallum_motion_pilot,2023.2.2,Win32,60.24096386,609fa72a56beea5595c2b60b,65d2b6c8f2eece985d8e374c,65d2b93f80b5775321cab95c,0.0317,0.0317,0,19,19,8,1,onetwo,,,,,,,,,,,,,,,,,,,,,,,,,,,,,,,,,,,,,,,,,,,,,,,,,,,,,,,,,,,,,,,,,,,,,,,,,,,,,,,,,,,,,,,,,,,,,,,,,,,,,,,,,,,,,,,,,,,,,,,,,,,,,,,,,,,,,,,,,
,,609fa72a56beea595c2b60b,2024-02-19_03h14.49.231,kallum_motion_pilot,2023.2.2,Win32,60.24096386,609fa72a56beea5595c2b60b,65d2b6c8f2eece985d8e374c,65d2b93f80b5775321cab95c,0.0319,0.0319,0,20,20,155,1,sixeight,,,,,,,,,,,,,,,,,,,,,,,,,,,,,,,,,,,,,,,,,,,,,,,,,,,,,,,,,,,,,,,,,,,,,,,,,,,,,,,,,,,,,,,,,,,,,,,,,,,,,,,,,,,,,,,,,,,,,,,,,,,,,,,,,,,,,,,,,
,,609fa72a56beea595c2b60b,2024-02-19_03h14.49.231,kallum_motion_pilot,2023.2.2,Win32,60.24096386,609fa72a56beea5595c2b60b,65d2b6c8f2eece985d8e374c,65d2b93f80b5775321cab95c,0.032,0.032,0,21,21,51,1,twofour,,,,,,,,,,,,,,,,,,,,,,,,,,,,,,,,,,,,,,,,,,,,,,,,,,,,,,,,,,,,,,,,,,,,,,,,,,,,,,,,,,,,,,,,,,,,,,,,,,,,,,,,,,,,,,,,,,,,,,,,,,,,,,,,,,,,,,,,,
,,609fa72a56beea595c2b60b,2024-02-19_03h14.49.231,kallum_motion_pilot,2023.2.2,Win32,60.24096386,609fa72a56beea5595c2b60b,65d2b6c8f2eece985d8e374c,65d2b93f80b5775321cab95c,0.0321,0.0321,0,22,22,13,1,threefour,,,,,,,,,,,,,,,,,,,,,,,,,,,,,,,,,,,,,,,,,,,,,,,,,,,,,,,,,,,,,,,,,,,,,,,,,,,,,,,,,,,,,,,,,,,,,,,,,,,,,,,,,,,,,,,,,,,,,,,,,,,,,,,,,,,,,,,,,
,,609fa72a56beea595c2b60b,2024-02-19_03h14.49.231,kallum_motion_pilot,2023.2.2,Win32,60.24096386,609fa72a56beea5595c2b60b,65d2b6c8f2eece985d8e374c,65d2b93f80b5775321cab95c,0.0322,0.0323,0,23,23,69,1,threefour,,,,,,,,,,,,,,,,,,,,,,,,,,,,,,,,,,,,,,,,,,,,,,,,,,,,,,,,,,,,,,,,,,,,,,,,,,,,,,,,,,,,,,,,,,,,,,,,,,,,,,,,,,,,,,,,,,,,,,,,,,,,,,,,,,,,,,,,,
,,609fa72a56beea595c2b60b,2024-02-19_03h14.49.231,kallum_motion_pilot,2023.2.2,Win32,60.24096386,609fa72a56beea5595c2b60b,65d2b6c8f2eece985d8e374c,65d2b93f80b5775321cab95c,0.0324,0.0324,0,24,24,124,1,sevenfive,,,,,,,,,,,,,,,,,,,,,,,,,,,,,,,,,,,,,,,,,,,,,,,,,,,,,,,,,,,,,,,,,,,,,,,,,,,,,,,,,,,,,,,,,,,,,,,,,,,,,,,,,,,,,,,,,,,,,,,,,,,,,,,,,,,,,,,,,
,,609fa72a56beea595c2b60b,2024-02-19_03h14.49.231,kallum_motion_pilot,2023.2.2,Win32,60.24096386,609fa72a56beea5595c2b60b,65d2b6c8f2eece985d8e374c,65d2b93f80b5775321cab95c,0.0325,0.0326,0,25,25,61,1,threefour,,,,,,,,,,,,,,,,,,,,,,,,,,,,,,,,,,,,,,,,,,,,,,,,,,,,,,,,,,,,,,,,,,,,,,,,,,,,,,,,,,,,,,,,,,,,,,,,,,,,,,,,,,,,,,,,,,,,,,,,,,,,,,,,,,,,,,,,,
,,609fa72a56beea595c2b60b,2024-02-19_03h14.49.231,kallum_motion_pilot,2023.2.2,Win32,60.24096386,609fa72a56beea5595c2b60b,65d2b6c8f2eece985d8e374c,65d2b93f80b5775321cab95c,0.0327,0.0327,0,26,26,31,1,fourthree,,,,,,,,,,,,,,,,,,,,,,,,,,,,,,,,,,,,,,,,,,,,,,,,,,,,,,,,,,,,,,,,,,,,,,,,,,,,,,,,,,,,,,,,,,,,,,,,,,,,,,,,,,,,,,,,,,,,,,,,,,,,,,,,,,,,,,,,,
,,609fa72a56beea595c2b60b,2024-02-19_03h14.49.231,kallum_motion_pilot,2023.2.2,Win32,60.24096386,609fa72a56beea5595c2b60b,65d2b6c8f2eece985d8e374c,65d2b93f80b5775321cab95c,0.0329,0.0329,0,27,27,151,1,eightseven,,,,,,,,,,,,,,,,,,,,,,,,,,,,,,,,,,,,,,,,,,,,,,,,,,,,,,,,,,,,,,,,,,,,,,,,,,,,,,,,,,,,,,,,,,,,,,,,,,,,,,,,,,,,,,,,,,,,,,,,,,,,,,,,,,,,,,,,,
,,609fa72a56beea595c2b60b,2024-02-19_03h14.49.231,kallum_motion_pilot,2023.2.2,Win32,60.24096386,609fa72a56beea5595c2b60b,65d2b6c8f2eece985d8e374c,65d2b93f80b5775321cab95c,0.0329,0.0329,0,28,28,145,1,fiveseven,,,,,,,,,,,,,,,,,,,,,,,,,,,,,,,,,,,,,,,,,,,,,,,,,,,,,,,,,,,,,,,,,,,,,,,,,,,,,,,,,,,,,,,,,,,,,,,,,,,,,,,,,,,,,,,,,,,,,,,,,,,,,,,,,,,,,,,,,
,,609fa72a56beea595c2b60b,2024-02-19_03h14.49.231,kallum_motion_pilot,2023.2.2,Win32,60.24096386,609fa72a56beea5595c2b60b,65d2b6c8f2eece985d8e374c,65d2b93f80b5775321cab95c,0.0331,0.0331,0,29,29,87,1,eightseven,,,,,,,,,,,,,,,,,,,,,,,,,,,,,,,,,,,,,,,,,,,,,,,,,,,,,,,,,,,,,,,,,,,,,,,,,,,,,,,,,,,,,,,,,,,,,,,,,,,,,,,,,,,,,,,,,,,,,,,,,,,,,,,,,,,,,,,,,
,,609fa72a56beea595c2b60b,2024-02-19_03h14.49.231,kallum_motion_pilot,2023.2.2,Win32,60.24096386,609fa72a56beea5595c2b60b,65d2b6c8f2eece985d8e374c,65d2b93f80b5775321cab95c,0.0332,0.0332,0,30,30,63,1,fourthree,,,,,,,,,,,,,,,,,,,,,,,,,,,,,,,,,,,,,,,,,,,,,,,,,,,,,,,,,,,,,,,,,,,,,,,,,,,,,,,,,,,,,,,,,,,,,,,,,,,,,,,,,,,,,,,,,,,,,,,,,,,,,,,,,,,,,,,,,
,,609fa72a56beea595c2b60b,2024-02-19_03h14.49.231,kallum_motion_pilot,2023.2.2,Win32,60.24096386,609fa72a56beea5595c2b60b,65d2b6c8f2eece985d8e374c,65d2b93f80b5775321cab95c,0.0334,0.0334,0,31,31,45,1,threefour,,,,,,,,,,,,,,,,,,,,,,,,,,,,,,,,,,,,,,,,,,,,,,,,,,,,,,,,,,,,,,,,,,,,,,,,,,,,,,,,,,,,,,,,,,,,,,,,,,,,,,,,,,,,,,,,,,,,,,,,,,,,,,,,,,,,,,,,,
,,609fa72a56beea595c2b60b,2024-02-19_03h14.49.231,kallum_motion_pilot,2023.2.2,Win32,60.24096386,609fa72a56beea5595c2b60b,65d2b6c8f2eece985d8e374c,65d2b93f80b5775321cab95c,0.0335,0.0335,0,32,32,158,1,eightsix,,,,,,,,,,,,,,,,,,,,,,,,,,,,,,,,,,,,,,,,,,,,,,,,,,,,,,,,,,,,,,,,,,,,,,,,,,,,,,,,,,,,,,,,,,,,,,,,,,,,,,,,,,,,,,,,,,,,,,,,,,,,,,,,,,,,,,,,,
,,609fa72a56beea595c2b60b,2024-02-19_03h14.49.231,kallum_motion_pilot,2023.2.2,Win32,60.24096386,609fa72a56beea5595c2b60b,65d2b6c8f2eece985d8e374c,65d2b93f80b5775321cab95c,0.0336,0.0336,0,33,33,43,1,twofour,,,,,,,,,,,,,,,,,,,,,,,,,,,,,,,,,,,,,,,,,,,,,,,,,,,,,,,,,,,,,,,,,,,,,,,,,,,,,,,,,,,,,,,,,,,,,,,,,,,,,,,,,,,,,,,,,,,,,,,,,,,,,,,,,,,,,,,,,
,,609fa72a56beea595c2b60b,2024-02-19_03h14.49.231,kallum_motion_pilot,2023.2.2,Win32,60.24096386,609fa72a56beea5595c2b60b,65d2b6c8f2eece985d8e374c,65d2b93f80b5775321cab95c,0.0337,0.0337,0,34,34,60,1,threeone,,,,,,,,,,,,,,,,,,,,,,,,,,,,,,,,,,,,,,,,,,,,,,,,,,,,,,,,,,,,,,,,,,,,,,,,,,,,,,,,,,,,,,,,,,,,,,,,,,,,,,,,,,,,,,,,,,,,,,,,,,,,,,,,,,,,,,,,,
,,609fa72a56beea595c2b60b,2024-02-19_03h14.49.231,kallum_motion_pilot,2023.2.2,Win32,60.24096386,609fa72a56beea5595c2b60b,65d2b6c8f2eece985d8e374c,65d2b93f80b5775321cab95c,0.0337,0.0338,0,35,35,54,1,fourtwo,,,,,,,,,,,,,,,,,,,,,,,,,,,,,,,,,,,,,,,,,,,,,,,,,,,,,,,,,,,,,,,,,,,,,,,,,,,,,,,,,,,,,,,,,,,,,,,,,,,,,,,,,,,,,,,,,,,,,,,,,,,,,,,,,,,,,,,,,
,,609fa72a56beea595c2b60b,2024-02-19_03h14.49.231,kallum_motion_pilot,2023.2.2,Win32,60.24096386,609fa72a56beea5595c2b60b,65d2b6c8f2eece985d8e374c,65d2b93f80b5775321cab95c,0.0339,0.0339,0,36,36,72,1,onetwo,,,,,,,,,,,,,,,,,,,,,,,,,,,,,,,,,,,,,,,,,,,,,,,,,,,,,,,,,,,,,,,,,,,,,,,,,,,,,,,,,,,,,,,,,,,,,,,,,,,,,,,,,,,,,,,,,,,,,,,,,,,,,,,,,,,,,,,,,
,,609fa72a56beea595c2b60b,2024-02-19_03h14.49.231,kallum_motion_pilot,2023.2.2,Win32,60.24096386,609fa72a56beea5595c2b60b,65d2b6c8f2eece985d8e374c,65d2b93f80b5775321cab95c,0.034,0.0341,0,37,37,127,1,eightseven,,,,,,,,,,,,,,,,,,,,,,,,,,,,,,,,,,,,,,,,,,,,,,,,,,,,,,,,,,,,,,,,,,,,,,,,,,,,,,,,,,,,,,,,,,,,,,,,,,,,,,,,,,,,,,,,,,,,,,,,,,,,,,,,,,,,,,,,,
,,609fa72a56beea595c2b60b,2024-02-19_03h14.49.231,kallum_motion_pilot,2023.2.2,Win32,60.24096386,609fa72a56beea5595c2b60b,65d2b6c8f2eece985d8e374c,65d2b93f80b5775321cab95c,0.0341,0.0342,0,38,38,16,1,onetwo,,,,,,,,,,,,,,,,,,,,,,,,,,,,,,,,,,,,,,,,,,,,,,,,,,,,,,,,,,,,,,,,,,,,,,,,,,,,,,,,,,,,,,,,,,,,,,,,,,,,,,,,,,,,,,,,,,,,,,,,,,,,,,,,,,,,,,,,,
,,609fa72a56beea595c2b60b,2024-02-19_03h14.49.231,kallum_motion_pilot,2023.2.2,Win32,60.24096386,609fa72a56beea5595c2b60b,65d2b6c8f2eece985d8e374c,65d2b93f80b5775321cab95c,0.0343,0.0343,0,39,39,3,1,twofour,,,,,,,,,,,,,,,,,,,,,,,,,,,,,,,,,,,,,,,,,,,,,,,,,,,,,,,,,,,,,,,,,,,,,,,,,,,,,,,,,,,,,,,,,,,,,,,,,,,,,,,,,,,,,,,,,,,,,,,,,,,,,,,,,,,,,,,,,
,,609fa72a56beea595c2b60b,2024-02-19_03h14.49.231,kallum_motion_pilot,2023.2.2,Win32,60.24096386,609fa72a56beea5595c2b60b,65d2b6c8f2eece985d8e374c,65d2b93f80b5775321cab95c,0.0344,0.0344,0,40,40,55,1,fourthree,,,,,,,,,,,,,,,,,,,,,,,,,,,,,,,,,,,,,,,,,,,,,,,,,,,,,,,,,,,,,,,,,,,,,,,,,,,,,,,,,,,,,,,,,,,,,,,,,,,,,,,,,,,,,,,,,,,,,,,,,,,,,,,,,,,,,,,,,
,,609fa72a56beea595c2b60b,2024-02-19_03h14.49.231,kallum_motion_pilot,2023.2.2,Win32,60.24096386,609fa72a56beea5595c2b60b,65d2b6c8f2eece985d8e374c,65d2b93f80b5775321cab95c,0.0345,0.0346,0,41,41,122,1,sixfive,,,,,,,,,,,,,,,,,,,,,,,,,,,,,,,,,,,,,,,,,,,,,,,,,,,,,,,,,,,,,,,,,,,,,,,,,,,,,,,,,,,,,,,,,,,,,,,,,,,,,,,,,,,,,,,,,,,,,,,,,,,,,,,,,,,,,,,,,
,,609fa72a56beea595c2b60b,2024-02-19_03h14.49.231,kallum_motion_pilot,2023.2.2,Win32,60.24096386,609fa72a56beea5595c2b60b,65d2b6c8f2eece985d8e374c,65d2b93f80b5775321cab95c,0.0346,0.0347,0,42,42,20,1,threeone,,,,,,,,,,,,,,,,,,,,,,,,,,,,,,,,,,,,,,,,,,,,,,,,,,,,,,,,,,,,,,,,,,,,,,,,,,,,,,,,,,,,,,,,,,,,,,,,,,,,,,,,,,,,,,,,,,,,,,,,,,,,,,,,,,,,,,,,,
,,609fa72a56beea595c2b60b,2024-02-19_03h14.49.231,kallum_motion_pilot,2023.2.2,Win32,60.24096386,609fa72a56beea5595c2b60b,65d2b6c8f2eece985d8e374c,65d2b93f80b5775321cab95c,0.0348,0.0348,0,43,43,7,1,fourthree,,,,,,,,,,,,,,,,,,,,,,,,,,,,,,,,,,,,,,,,,,,,,,,,,,,,,,,,,,,,,,,,,,,,,,,,,,,,,,,,,,,,,,,,,,,,,,,,,,,,,,,,,,,,,,,,,,,,,,,,,,,,,,,,,,,,,,,,,
,,609fa72a56beea595c2b60b,2024-02-19_03h14.49.231,kallum_motion_pilot,2023.2.2,Win32,60.24096386,609fa72a56beea5595c2b60b,65d2b6c8f2eece985d8e374c,65d2b93f80b5775321cab95c,0.035,0.035,0,44,44,143,1,eightseven,,,,,,,,,,,,,,,,,,,,,,,,,,,,,,,,,,,,,,,,,,,,,,,,,,,,,,,,,,,,,,,,,,,,,,,,,,,,,,,,,,,,,,,,,,,,,,,,,,,,,,,,,,,,,,,,,,,,,,,,,,,,,,,,,,,,,,,,,
,,609fa72a56beea595c2b60b,2024-02-19_03h14.49.231,kallum_motion_pilot,2023.2.2,Win32,60.24096386,609fa72a56beea5595c2b60b,65d2b6c8f2eece985d8e374c,65d2b93f80b5775321cab95c,0.0351,0.0352,0,45,45,23,1,fourthree,,,,,,,,,,,,,,,,,,,,,,,,,,,,,,,,,,,,,,,,,,,,,,,,,,,,,,,,,,,,,,,,,,,,,,,,,,,,,,,,,,,,,,,,,,,,,,,,,,,,,,,,,,,,,,,,,,,,,,,,,,,,,,,,,,,,,,,,,
,,609fa72a56beea595c2b60b,2024-02-19_03h14.49.231,kallum_motion_pilot,2023.2.2,Win32,60.24096386,609fa72a56beea5595c2b60b,65d2b6c8f2eece985d8e374c,65d2b93f80b5775321cab95c,0.0353,0.0353,0,46,46,46,1,fourtwo,,,,,,,,,,,,,,,,,,,,,,,,,,,,,,,,,,,,,,,,,,,,,,,,,,,,,,,,,,,,,,,,,,,,,,,,,,,,,,,,,,,,,,,,,,,,,,,,,,,,,,,,,,,,,,,,,,,,,,,,,,,,,,,,,,,,,,,,,
,,609fa72a56beea595c2b60b,2024-02-19_03h14.49.231,kallum_motion_pilot,2023.2.2,Win32,60.24096386,609fa72a56beea5595c2b60b,65d2b6c8f2eece985d8e374c,65d2b93f80b5775321cab95c,0.0355,0.0355,0,47,47,135,1,eightseven,,,,,,,,,,,,,,,,,,,,,,,,,,,,,,,,,,,,,,,,,,,,,,,,,,,,,,,,,,,,,,,,,,,,,,,,,,,,,,,,,,,,,,,,,,,,,,,,,,,,,,,,,,,,,,,,,,,,,,,,,,,,,,,,,,,,,,,,,
,,609fa72a56beea595c2b60b,2024-02-19_03h14.49.231,kallum_motion_pilot,2023.2.2,Win32,60.24096386,609fa72a56beea5595c2b60b,65d2b6c8f2eece985d8e374c,65d2b93f80b5775321cab95c,0.0356,0.0356,0,48,48,30,1,fourtwo,,,,,,,,,,,,,,,,,,,,,,,,,,,,,,,,,,,,,,,,,,,,,,,,,,,,,,,,,,,,,,,,,,,,,,,,,,,,,,,,,,,,,,,,,,,,,,,,,,,,,,,,,,,,,,,,,,,,,,,,,,,,,,,,,,,,,,,,,
,,609fa72a56beea595c2b60b,2024-02-19_03h14.49.231,kallum_motion_pilot,2023.2.2,Win32,60.24096386,609fa72a56beea5595c2b60b,65d2b6c8f2eece985d8e374c,65d2b93f80b5775321cab95c,0.0357,0.0358,0,49,49,139,1,sixeight,,,,,,,,,,,,,,,,,,,,,,,,,,,,,,,,,,,,,,,,,,,,,,,,,,,,,,,,,,,,,,,,,,,,,,,,,,,,,,,,,,,,,,,,,,,,,,,,,,,,,,,,,,,,,,,,,,,,,,,,,,,,,,,,,,,,,,,,,
,,609fa72a56beea595c2b60b,2024-02-19_03h14.49.231,kallum_motion_pilot,2023.2.2,Win32,60.24096386,609fa72a56beea5595c2b60b,65d2b6c8f2eece985d8e374c,65d2b93f80b5775321cab95c,0.0358,0.0359,0,50,50,67,1,twofour,,,,,,,,,,,,,,,,,,,,,,,,,,,,,,,,,,,,,,,,,,,,,,,,,,,,,,,,,,,,,,,,,,,,,,,,,,,,,,,,,,,,,,,,,,,,,,,,,,,,,,,,,,,,,,,,,,,,,,,,,,,,,,,,,,,,,,,,,
,,609fa72a56beea595c2b60b,2024-02-19_03h14.49.231,kallum_motion_pilot,2023.2.2,Win32,60.24096386,609fa72a56beea5595c2b60b,65d2b6c8f2eece985d8e374c,65d2b93f80b5775321cab95c,0.036,0.036,0,51,51,119,1,eightseven,,,,,,,,,,,,,,,,,,,,,,,,,,,,,,,,,,,,,,,,,,,,,,,,,,,,,,,,,,,,,,,,,,,,,,,,,,,,,,,,,,,,,,,,,,,,,,,,,,,,,,,,,,,,,,,,,,,,,,,,,,,,,,,,,,,,,,,,,
,,609fa72a56beea595c2b60b,2024-02-19_03h14.49.231,kallum_motion_pilot,2023.2.2,Win32,60.24096386,609fa72a56beea5595c2b60b,65d2b6c8f2eece985d8e374c,65d2b93f80b5775321cab95c,0.0362,0.0363,0,52,52,106,1,sixfive,,,,,,,,,,,,,,,,,,,,,,,,,,,,,,,,,,,,,,,,,,,,,,,,,,,,,,,,,,,,,,,,,,,,,,,,,,,,,,,,,,,,,,,,,,,,,,,,,,,,,,,,,,,,,,,,,,,,,,,,,,,,,,,,,,,,,,,,,
,,609fa72a56beea595c2b60b,2024-02-19_03h14.49.231,kallum_motion_pilot,2023.2.2,Win32,60.24096386,609fa72a56beea5595c2b60b,65d2b6c8f2eece985d8e374c,65d2b93f80b5775321cab95c,0.0363,0.0364,0,53,53,75,1,twofour,,,,,,,,,,,,,,,,,,,,,,,,,,,,,,,,,,,,,,,,,,,,,,,,,,,,,,,,,,,,,,,,,,,,,,,,,,,,,,,,,,,,,,,,,,,,,,,,,,,,,,,,,,,,,,,,,,,,,,,,,,,,,,,,,,,,,,,,,
,,609fa72a56beea595c2b60b,2024-02-19_03h14.49.231,kallum_motion_pilot,2023.2.2,Win32,60.24096386,609fa72a56beea5595c2b60b,65d2b6c8f2eece985d8e374c,65d2b93f80b5775321cab95c,0.0366,0.0366,0,54,54,41,1,onethree,,,,,,,,,,,,,,,,,,,,,,,,,,,,,,,,,,,,,,,,,,,,,,,,,,,,,,,,,,,,,,,,,,,,,,,,,,,,,,,,,,,,,,,,,,,,,,,,,,,,,,,,,,,,,,,,,,,,,,,,,,,,,,,,,,,,,,,,,
,,609fa72a56beea595c2b60b,2024-02-19_03h14.49.231,kallum_motion_pilot,2023.2.2,Win32,60.24096386,609fa72a56beea5595c2b60b,65d2b6c8f2eece985d8e374c,65d2b93f80b5775321cab95c,0.0368,0.0369,0,55,55,58,1,twoone,,,,,,,,,,,,,,,,,,,,,,,,,,,,,,,,,,,,,,,,,,,,,,,,,,,,,,,,,,,,,,,,,,,,,,,,,,,,,,,,,,,,,,,,,,,,,,,,,,,,,,,,,,,,,,,,,,,,,,,,,,,,,,,,,,,,,,,,,
,,609fa72a56beea595c2b60b,2024-02-19_03h14.49.231,kallum_motion_pilot,2023.2.2,Win32,60.24096386,609fa72a56beea5595c2b60b,65d2b6c8f2eece985d8e374c,65d2b93f80b5775321cab95c,0.037,0.037,0,56,56,83,1,sixeight,,,,,,,,,,,,,,,,,,,,,,,,,,,,,,,,,,,,,,,,,,,,,,,,,,,,,,,,,,,,,,,,,,,,,,,,,,,,,,,,,,,,,,,,,,,,,,,,,,,,,,,,,,,,,,,,,,,,,,,,,,,,,,,,,,,,,,,,,
,,609fa72a56beea595c2b60b,2024-02-19_03h14.49.231,kallum_motion_pilot,2023.2.2,Win32,60.24096386,609fa72a56beea5595c2b60b,65d2b6c8f2eece985d8e374c,65d2b93f80b5775321cab95c,0.0372,0.0373,0,57,57,115,1,sixeight,,,,,,,,,,,,,,,,,,,,,,,,,,,,,,,,,,,,,,,,,,,,,,,,,,,,,,,,,,,,,,,,,,,,,,,,,,,,,,,,,,,,,,,,,,,,,,,,,,,,,,,,,,,,,,,,,,,,,,,,,,,,,,,,,,,,,,,,,
,,609fa72a56beea595c2b60b,2024-02-19_03h14.49.231,kallum_motion_pilot,2023.2.2,Win32,60.24096386,609fa72a56beea5595c2b60b,65d2b6c8f2eece985d8e374c,65d2b93f80b5775321cab95c,0.0374,0.0374,0,58,58,129,1,fiveseven,,,,,,,,,,,,,,,,,,,,,,,,,,,,,,,,,,,,,,,,,,,,,,,,,,,,,,,,,,,,,,,,,,,,,,,,,,,,,,,,,,,,,,,,,,,,,,,,,,,,,,,,,,,,,,,,,,,,,,,,,,,,,,,,,,,,,,,,,
,,609fa72a56beea595c2b60b,2024-02-19_03h14.49.231,kallum_motion_pilot,2023.2.2,Win32,60.24096386,609fa72a56beea5595c2b60b,65d2b6c8f2eece985d8e374c,65d2b93f80b5775321cab95c,0.0376,0.0376,0,59,59,161,1,fiveseven,,,,,,,,,,,,,,,,,,,,,,,,,,,,,,,,,,,,,,,,,,,,,,,,,,,,,,,,,,,,,,,,,,,,,,,,,,,,,,,,,,,,,,,,,,,,,,,,,,,,,,,,,,,,,,,,,,,,,,,,,,,,,,,,,,,,,,,,,
,,609fa72a56beea595c2b60b,2024-02-19_03h14.49.231,kallum_motion_pilot,2023.2.2,Win32,60.24096386,609fa72a56beea5595c2b60b,65d2b6c8f2eece985d8e374c,65d2b93f80b5775321cab95c,0.0377,0.0378,0,60,60,104,1,fivesix,,,,,,,,,,,,,,,,,,,,,,,,,,,,,,,,,,,,,,,,,,,,,,,,,,,,,,,,,,,,,,,,,,,,,,,,,,,,,,,,,,,,,,,,,,,,,,,,,,,,,,,,,,,,,,,,,,,,,,,,,,,,,,,,,,,,,,,,,
,,609fa72a56beea595c2b60b,2024-02-19_03h14.49.231,kallum_motion_pilot,2023.2.2,Win32,60.24096386,609fa72a56beea5595c2b60b,65d2b6c8f2eece985d8e374c,65d2b93f80b5775321cab95c,0.0379,0.0379,0,61,61,26,1,twoone,,,,,,,,,,,,,,,,,,,,,,,,,,,,,,,,,,,,,,,,,,,,,,,,,,,,,,,,,,,,,,,,,,,,,,,,,,,,,,,,,,,,,,,,,,,,,,,,,,,,,,,,,,,,,,,,,,,,,,,,,,,,,,,,,,,,,,,,,
,,609fa72a56beea595c2b60b,2024-02-19_03h14.49.231,kallum_motion_pilot,2023.2.2,Win32,60.24096386,609fa72a56beea5595c2b60b,65d2b6c8f2eece985d8e374c,65d2b93f80b5775321cab95c,0.0381,0.0381,0,62,62,53,1,threefour,,,,,,,,,,,,,,,,,,,,,,,,,,,,,,,,,,,,,,,,,,,,,,,,,,,,,,,,,,,,,,,,,,,,,,,,,,,,,,,,,,,,,,,,,,,,,,,,,,,,,,,,,,,,,,,,,,,,,,,,,,,,,,,,,,,,,,,,,
,,609fa72a56beea595c2b60b,2024-02-19_03h14.49.231,kallum_motion_pilot,2023.2.2,Win32,60.24096386,609fa72a56beea5595c2b60b,65d2b6c8f2eece985d8e374c,65d2b93f80b5775321cab95c,0.0382,0.0383,0,63,63,91,1,sixeight,,,,,,,,,,,,,,,,,,,,,,,,,,,,,,,,,,,,,,,,,,,,,,,,,,,,,,,,,,,,,,,,,,,,,,,,,,,,,,,,,,,,,,,,,,,,,,,,,,,,,,,,,,,,,,,,,,,,,,,,,,,,,,,,,,,,,,,,,
,,609fa72a56beea595c2b60b,2024-02-19_03h14.49.231,kallum_motion_pilot,2023.2.2,Win32,60.24096386,609fa72a56beea5595c2b60b,65d2b6c8f2eece985d8e374c,65d2b93f80b5775321cab95c,0.0383,0.0384,0,64,64,65,1,onethree,,,,,,,,,,,,,,,,,,,,,,,,,,,,,,,,,,,,,,,,,,,,,,,,,,,,,,,,,,,,,,,,,,,,,,,,,,,,,,,,,,,,,,,,,,,,,,,,,,,,,,,,,,,,,,,,,,,,,,,,,,,,,,,,,,,,,,,,,
,,609fa72a56beea595c2b60b,2024-02-19_03h14.49.231,kallum_motion_pilot,2023.2.2,Win32,60.24096386,609fa72a56beea5595c2b60b,65d2b6c8f2eece985d8e374c,65d2b93f80b5775321cab95c,0.0385,0.0385,0,65,65,25,1,onethree,,,,,,,,,,,,,,,,,,,,,,,,,,,,,,,,,,,,,,,,,,,,,,,,,,,,,,,,,,,,,,,,,,,,,,,,,,,,,,,,,,,,,,,,,,,,,,,,,,,,,,,,,,,,,,,,,,,,,,,,,,,,,,,,,,,,,,,,,
,,609fa72a56beea595c2b60b,2024-02-19_03h14.49.231,kallum_motion_pilot,2023.2.2,Win32,60.24096386,609fa72a56beea5595c2b60b,65d2b6c8f2eece985d8e374c,65d2b93f80b5775321cab95c,0.0387,0.0388,0,66,66,160,1,fivesix,,,,,,,,,,,,,,,,,,,,,,,,,,,,,,,,,,,,,,,,,,,,,,,,,,,,,,,,,,,,,,,,,,,,,,,,,,,,,,,,,,,,,,,,,,,,,,,,,,,,,,,,,,,,,,,,,,,,,,,,,,,,,,,,,,,,,,,,,
,,609fa72a56beea595c2b60b,2024-02-19_03h14.49.231,kallum_motion_pilot,2023.2.2,Win32,60.24096386,609fa72a56beea5595c2b60b,65d2b6c8f2eece985d8e374c,65d2b93f80b5775321cab95c,0.0389,0.0389,0,67,67,37,1,threefour,,,,,,,,,,,,,,,,,,,,,,,,,,,,,,,,,,,,,,,,,,,,,,,,,,,,,,,,,,,,,,,,,,,,,,,,,,,,,,,,,,,,,,,,,,,,,,,,,,,,,,,,,,,,,,,,,,,,,,,,,,,,,,,,,,,,,,,,,
,,609fa72a56beea595c2b60b,2024-02-19_03h14.49.231,kallum_motion_pilot,2023.2.2,Win32,60.24096386,609fa72a56beea5595c2b60b,65d2b6c8f2eece985d8e374c,65d2b93f80b5775321cab95c,0.039,0.039,0,68,68,79,1,eightseven,,,,,,,,,,,,,,,,,,,,,,,,,,,,,,,,,,,,,,,,,,,,,,,,,,,,,,,,,,,,,,,,,,,,,,,,,,,,,,,,,,,,,,,,,,,,,,,,,,,,,,,,,,,,,,,,,,,,,,,,,,,,,,,,,,,,,,,,,
,,609fa72a56beea595c2b60b,2024-02-19_03h14.49.231,kallum_motion_pilot,2023.2.2,Win32,60.24096386,609fa72a56beea5595c2b60b,65d2b6c8f2eece985d8e374c,65d2b93f80b5775321cab95c,0.0392,0.0392,0,69,69,157,1,seveneight,,,,,,,,,,,,,,,,,,,,,,,,,,,,,,,,,,,,,,,,,,,,,,,,,,,,,,,,,,,,,,,,,,,,,,,,,,,,,,,,,,,,,,,,,,,,,,,,,,,,,,,,,,,,,,,,,,,,,,,,,,,,,,,,,,,,,,,,,
,,609fa72a56beea595c2b60b,2024-02-19_03h14.49.231,kallum_motion_pilot,2023.2.2,Win32,60.24096386,609fa72a56beea5595c2b60b,65d2b6c8f2eece985d8e374c,65d2b93f80b5775321cab95c,0.0394,0.0395,0,70,70,27,1,twofour,,,,,,,,,,,,,,,,,,,,,,,,,,,,,,,,,,,,,,,,,,,,,,,,,,,,,,,,,,,,,,,,,,,,,,,,,,,,,,,,,,,,,,,,,,,,,,,,,,,,,,,,,,,,,,,,,,,,,,,,,,,,,,,,,,,,,,,,,
,,609fa72a56beea595c2b60b,2024-02-19_03h14.49.231,kallum_motion_pilot,2023.2.2,Win32,60.24096386,609fa72a56beea5595c2b60b,65d2b6c8f2eece985d8e374c,65d2b93f80b5775321cab95c,0.04,0.0402,0,71,71,5,1,threefour,,,,,,,,,,,,,,,,,,,,,,,,,,,,,,,,,,,,,,,,,,,,,,,,,,,,,,,,,,,,,,,,,,,,,,,,,,,,,,,,,,,,,,,,,,,,,,,,,,,,,,,,,,,,,,,,,,,,,,,,,,,,,,,,,,,,,,,,,
,,609fa72a56beea595c2b60b,2024-02-19_03h14.49.231,kallum_motion_pilot,2023.2.2,Win32,60.24096386,609fa72a56beea5595c2b60b,65d2b6c8f2eece985d8e374c,65d2b93f80b5775321cab95c,0.0404,0.0405,0,72,72,152,1,fivesix,,,,,,,,,,,,,,,,,,,,,,,,,,,,,,,,,,,,,,,,,,,,,,,,,,,,,,,,,,,,,,,,,,,,,,,,,,,,,,,,,,,,,,,,,,,,,,,,,,,,,,,,,,,,,,,,,,,,,,,,,,,,,,,,,,,,,,,,,
,,609fa72a56beea595c2b60b,2024-02-19_03h14.49.231,kallum_motion_pilot,2023.2.2,Win32,60.24096386,609fa72a56beea5595c2b60b,65d2b6c8f2eece985d8e374c,65d2b93f80b5775321cab95c,0.0407,0.0408,0,73,73,133,1,seveneight,,,,,,,,,,,,,,,,,,,,,,,,,,,,,,,,,,,,,,,,,,,,,,,,,,,,,,,,,,,,,,,,,,,,,,,,,,,,,,,,,,,,,,,,,,,,,,,,,,,,,,,,,,,,,,,,,,,,,,,,,,,,,,,,,,,,,,,,,
,,609fa72a56beea595c2b60b,2024-02-19_03h14.49.231,kallum_motion_pilot,2023.2.2,Win32,60.24096386,609fa72a56beea5595c2b60b,65d2b6c8f2eece985d8e374c,65d2b93f80b5775321cab95c,0.041,0.0412,0,74,74,138,1,sixfive,,,,,,,,,,,,,,,,,,,,,,,,,,,,,,,,,,,,,,,,,,,,,,,,,,,,,,,,,,,,,,,,,,,,,,,,,,,,,,,,,,,,,,,,,,,,,,,,,,,,,,,,,,,,,,,,,,,,,,,,,,,,,,,,,,,,,,,,,
,,609fa72a56beea595c2b60b,2024-02-19_03h14.49.231,kallum_motion_pilot,2023.2.2,Win32,60.24096386,609fa72a56beea5595c2b60b,65d2b6c8f2eece985d8e374c,65d2b93f80b5775321cab95c,0.0415,0.0416,0,75,75,57,1,onethree,,,,,,,,,,,,,,,,,,,,,,,,,,,,,,,,,,,,,,,,,,,,,,,,,,,,,,,,,,,,,,,,,,,,,,,,,,,,,,,,,,,,,,,,,,,,,,,,,,,,,,,,,,,,,,,,,,,,,,,,,,,,,,,,,,,,,,,,,
,,609fa72a56beea595c2b60b,2024-02-19_03h14.49.231,kallum_motion_pilot,2023.2.2,Win32,60.24096386,609fa72a56beea5595c2b60b,65d2b6c8f2eece985d8e374c,65d2b93f80b5775321cab95c,0.042,0.042,0,76,76,108,1,sevenfive,,,,,,,,,,,,,,,,,,,,,,,,,,,,,,,,,,,,,,,,,,,,,,,,,,,,,,,,,,,,,,,,,,,,,,,,,,,,,,,,,,,,,,,,,,,,,,,,,,,,,,,,,,,,,,,,,,,,,,,,,,,,,,,,,,,,,,,,,
,,609fa72a56beea595c2b60b,2024-02-19_03h14.49.231,kallum_motion_pilot,2023.2.2,Win32,60.24096386,609fa72a56beea5595c2b60b,65d2b6c8f2eece985d8e374c,65d2b93f80b5775321cab95c,0.0421,0.0421,0,77,77,112,1,fivesix,,,,,,,,,,,,,,,,,,,,,,,,,,,,,,,,,,,,,,,,,,,,,,,,,,,,,,,,,,,,,,,,,,,,,,,,,,,,,,,,,,,,,,,,,,,,,,,,,,,,,,,,,,,,,,,,,,,,,,,,,,,,,,,,,,,,,,,,,
,,609fa72a56beea595c2b60b,2024-02-19_03h14.49.231,kallum_motion_pilot,2023.2.2,Win32,60.24096386,609fa72a56beea5595c2b60b,65d2b6c8f2eece985d8e374c,65d2b93f80b5775321cab95c,0.0422,0.0422,0,78,78,66,1,twoone,,,,,,,,,,,,,,,,,,,,,,,,,,,,,,,,,,,,,,,,,,,,,,,,,,,,,,,,,,,,,,,,,,,,,,,,,,,,,,,,,,,,,,,,,,,,,,,,,,,,,,,,,,,,,,,,,,,,,,,,,,,,,,,,,,,,,,,,,
,,609fa72a56beea595c2b60b,2024-02-19_03h14.49.231,kallum_motion_pilot,2023.2.2,Win32,60.24096386,609fa72a56beea5595c2b60b,65d2b6c8f2eece985d8e374c,65d2b93f80b5775321cab95c,0.0424,0.0424,0,79,79,121,1,fiveseven,,,,,,,,,,,,,,,,,,,,,,,,,,,,,,,,,,,,,,,,,,,,,,,,,,,,,,,,,,,,,,,,,,,,,,,,,,,,,,,,,,,,,,,,,,,,,,,,,,,,,,,,,,,,,,,,,,,,,,,,,,,,,,,,,,,,,,,,,
,,609fa72a56beea595c2b60b,2024-02-19_03h14.49.231,kallum_motion_pilot,2023.2.2,Win32,60.24096386,609fa72a56beea5595c2b60b,65d2b6c8f2eece985d8e374c,65d2b93f80b5775321cab95c,0.0426,0.0426,0,80,80,73,1,onethree,,,,,,,,,,,,,,,,,,,,,,,,,,,,,,,,,,,,,,,,,,,,,,,,,,,,,,,,,,,,,,,,,,,,,,,,,,,,,,,,,,,,,,,,,,,,,,,,,,,,,,,,,,,,,,,,,,,,,,,,,,,,,,,,,,,,,,,,,
,,609fa72a56beea595c2b60b,2024-02-19_03h14.49.231,kallum_motion_pilot,2023.2.2,Win32,60.24096386,609fa72a56beea5595c2b60b,65d2b6c8f2eece985d8e374c,65d2b93f80b5775321cab95c,0.0427,0.0427,0,81,81,34,1,twoone,,,,,,,,,,,,,,,,,,,,,,,,,,,,,,,,,,,,,,,,,,,,,,,,,,,,,,,,,,,,,,,,,,,,,,,,,,,,,,,,,,,,,,,,,,,,,,,,,,,,,,,,,,,,,,,,,,,,,,,,,,,,,,,,,,,,,,,,,
,,609fa72a56beea595c2b60b,2024-02-19_03h14.49.231,kallum_motion_pilot,2023.2.2,Win32,60.24096386,609fa72a56beea5595c2b60b,65d2b6c8f2eece985d8e374c,65d2b93f80b5775321cab95c,0.0428,0.0428,0,82,82,88,1,fivesix,,,,,,,,,,,,,,,,,,,,,,,,,,,,,,,,,,,,,,,,,,,,,,,,,,,,,,,,,,,,,,,,,,,,,,,,,,,,,,,,,,,,,,,,,,,,,,,,,,,,,,,,,,,,,,,,,,,,,,,,,,,,,,,,,,,,,,,,,
,,609fa72a56beea595c2b60b,2024-02-19_03h14.49.231,kallum_motion_pilot,2023.2.2,Win32,60.24096386,609fa72a56beea5595c2b60b,65d2b6c8f2eece985d8e374c,65d2b93f80b5775321cab95c,0.0429,0.0429,0,83,83,96,1,fivesix,,,,,,,,,,,,,,,,,,,,,,,,,,,,,,,,,,,,,,,,,,,,,,,,,,,,,,,,,,,,,,,,,,,,,,,,,,,,,,,,,,,,,,,,,,,,,,,,,,,,,,,,,,,,,,,,,,,,,,,,,,,,,,,,,,,,,,,,,
,,609fa72a56beea595c2b60b,2024-02-19_03h14.49.231,kallum_motion_pilot,2023.2.2,Win32,60.24096386,609fa72a56beea5595c2b60b,65d2b6c8f2eece985d8e374c,65d2b93f80b5775321cab95c,0.043,0.043,0,84,84,84,1,sevenfive,,,,,,,,,,,,,,,,,,,,,,,,,,,,,,,,,,,,,,,,,,,,,,,,,,,,,,,,,,,,,,,,,,,,,,,,,,,,,,,,,,,,,,,,,,,,,,,,,,,,,,,,,,,,,,,,,,,,,,,,,,,,,,,,,,,,,,,,,
,,609fa72a56beea595c2b60b,2024-02-19_03h14.49.231,kallum_motion_pilot,2023.2.2,Win32,60.24096386,609fa72a56beea5595c2b60b,65d2b6c8f2eece985d8e374c,65d2b93f80b5775321cab95c,0.0431,0.0432,0,85,85,0,1,onetwo,,,,,,,,,,,,,,,,,,,,,,,,,,,,,,,,,,,,,,,,,,,,,,,,,,,,,,,,,,,,,,,,,,,,,,,,,,,,,,,,,,,,,,,,,,,,,,,,,,,,,,,,,,,,,,,,,,,,,,,,,,,,,,,,,,,,,,,,,
,,609fa72a56beea595c2b60b,2024-02-19_03h14.49.231,kallum_motion_pilot,2023.2.2,Win32,60.24096386,609fa72a56beea5595c2b60b,65d2b6c8f2eece985d8e374c,65d2b93f80b5775321cab95c,0.0434,0.0434,0,86,86,137,1,fiveseven,,,,,,,,,,,,,,,,,,,,,,,,,,,,,,,,,,,,,,,,,,,,,,,,,,,,,,,,,,,,,,,,,,,,,,,,,,,,,,,,,,,,,,,,,,,,,,,,,,,,,,,,,,,,,,,,,,,,,,,,,,,,,,,,,,,,,,,,,
,,609fa72a56beea595c2b60b,2024-02-19_03h14.49.231,kallum_motion_pilot,2023.2.2,Win32,60.24096386,609fa72a56beea5595c2b60b,65d2b6c8f2eece985d8e374c,65d2b93f80b5775321cab95c,0.0437,0.0437,0,87,87,56,1,onetwo,,,,,,,,,,,,,,,,,,,,,,,,,,,,,,,,,,,,,,,,,,,,,,,,,,,,,,,,,,,,,,,,,,,,,,,,,,,,,,,,,,,,,,,,,,,,,,,,,,,,,,,,,,,,,,,,,,,,,,,,,,,,,,,,,,,,,,,,,
,,609fa72a56beea595c2b60b,2024-02-19_03h14.49.231,kallum_motion_pilot,2023.2.2,Win32,60.24096386,609fa72a56beea5595c2b60b,65d2b6c8f2eece985d8e374c,65d2b93f80b5775321cab95c,0.0439,0.044,0,88,88,9,1,onethree,,,,,,,,,,,,,,,,,,,,,,,,,,,,,,,,,,,,,,,,,,,,,,,,,,,,,,,,,,,,,,,,,,,,,,,,,,,,,,,,,,,,,,,,,,,,,,,,,,,,,,,,,,,,,,,,,,,,,,,,,,,,,,,,,,,,,,,,,
,,609fa72a56beea595c2b60b,2024-02-19_03h14.49.231,kallum_motion_pilot,2023.2.2,Win32,60.24096386,609fa72a56beea5595c2b60b,65d2b6c8f2eece985d8e374c,65d2b93f80b5775321cab95c,0.0442,0.0443,0,89,89,59,1,twofour,,,,,,,,,,,,,,,,,,,,,,,,,,,,,,,,,,,,,,,,,,,,,,,,,,,,,,,,,,,,,,,,,,,,,,,,,,,,,,,,,,,,,,,,,,,,,,,,,,,,,,,,,,,,,,,,,,,,,,,,,,,,,,,,,,,,,,,,,
,,609fa72a56beea595c2b60b,2024-02-19_03h14.49.231,kallum_motion_pilot,2023.2.2,Win32,60.24096386,609fa72a56beea5595c2b60b,65d2b6c8f2eece985d8e374c,65d2b93f80b5775321cab95c,0.0443,0.0444,0,90,90,125,1,seveneight,,,,,,,,,,,,,,,,,,,,,,,,,,,,,,,,,,,,,,,,,,,,,,,,,,,,,,,,,,,,,,,,,,,,,,,,,,,,,,,,,,,,,,,,,,,,,,,,,,,,,,,,,,,,,,,,,,,,,,,,,,,,,,,,,,,,,,,,,
,,609fa72a56beea595c2b60b,2024-02-19_03h14.49.231,kallum_motion_pilot,2023.2.2,Win32,60.24096386,609fa72a56beea5595c2b60b,65d2b6c8f2eece985d8e374c,65d2b93f80b5775321cab95c,0.0445,0.0445,0,91,91,28,1,threeone,,,,,,,,,,,,,,,,,,,,,,,,,,,,,,,,,,,,,,,,,,,,,,,,,,,,,,,,,,,,,,,,,,,,,,,,,,,,,,,,,,,,,,,,,,,,,,,,,,,,,,,,,,,,,,,,,,,,,,,,,,,,,,,,,,,,,,,,,
,,609fa72a56beea595c2b60b,2024-02-19_03h14.49.231,kallum_motion_pilot,2023.2.2,Win32,60.24096386,609fa72a56beea5595c2b60b,65d2b6c8f2eece985d8e374c,65d2b93f80b5775321cab95c,0.0447,0.0448,0,92,92,123,1,sixeight,,,,,,,,,,,,,,,,,,,,,,,,,,,,,,,,,,,,,,,,,,,,,,,,,,,,,,,,,,,,,,,,,,,,,,,,,,,,,,,,,,,,,,,,,,,,,,,,,,,,,,,,,,,,,,,,,,,,,,,,,,,,,,,,,,,,,,,,,
,,609fa72a56beea595c2b60b,2024-02-19_03h14.49.231,kallum_motion_pilot,2023.2.2,Win32,60.24096386,609fa72a56beea5595c2b60b,65d2b6c8f2eece985d8e374c,65d2b93f80b5775321cab95c,0.0448,0.0448,0,93,93,64,1,onetwo,,,,,,,,,,,,,,,,,,,,,,,,,,,,,,,,,,,,,,,,,,,,,,,,,,,,,,,,,,,,,,,,,,,,,,,,,,,,,,,,,,,,,,,,,,,,,,,,,,,,,,,,,,,,,,,,,,,,,,,,,,,,,,,,,,,,,,,,,
,,609fa72a56beea595c2b60b,2024-02-19_03h14.49.231,kallum_motion_pilot,2023.2.2,Win32,60.24096386,609fa72a56beea5595c2b60b,65d2b6c8f2eece985d8e374c,65d2b93f80b5775321cab95c,0.045,0.045,0,94,94,126,1,eightsix,,,,,,,,,,,,,,,,,,,,,,,,,,,,,,,,,,,,,,,,,,,,,,,,,,,,,,,,,,,,,,,,,,,,,,,,,,,,,,,,,,,,,,,,,,,,,,,,,,,,,,,,,,,,,,,,,,,,,,,,,,,,,,,,,,,,,,,,,
,,609fa72a56beea595c2b60b,2024-02-19_03h14.49.231,kallum_motion_pilot,2023.2.2,Win32,60.24096386,609fa72a56beea5595c2b60b,65d2b6c8f2eece985d8e374c,65d2b93f80b5775321cab95c,0.0451,0.0452,0,95,95,100,1,sevenfive,,,,,,,,,,,,,,,,,,,,,,,,,,,,,,,,,,,,,,,,,,,,,,,,,,,,,,,,,,,,,,,,,,,,,,,,,,,,,,,,,,,,,,,,,,,,,,,,,,,,,,,,,,,,,,,,,,,,,,,,,,,,,,,,,,,,,,,,,
,,609fa72a56beea595c2b60b,2024-02-19_03h14.49.231,kallum_motion_pilot,2023.2.2,Win32,60.24096386,609fa72a56beea5595c2b60b,65d2b6c8f2eece985d8e374c,65d2b93f80b5775321cab95c,0.0453,0.0453,0,96,96,105,1,fiveseven,,,,,,,,,,,,,,,,,,,,,,,,,,,,,,,,,,,,,,,,,,,,,,,,,,,,,,,,,,,,,,,,,,,,,,,,,,,,,,,,,,,,,,,,,,,,,,,,,,,,,,,,,,,,,,,,,,,,,,,,,,,,,,,,,,,,,,,,,
,,609fa72a56beea595c2b60b,2024-02-19_03h14.49.231,kallum_motion_pilot,2023.2.2,Win32,60.24096386,609fa72a56beea5595c2b60b,65d2b6c8f2eece985d8e374c,65d2b93f80b5775321cab95c,0.0454,0.0455,0,97,97,76,1,threeone,,,,,,,,,,,,,,,,,,,,,,,,,,,,,,,,,,,,,,,,,,,,,,,,,,,,,,,,,,,,,,,,,,,,,,,,,,,,,,,,,,,,,,,,,,,,,,,,,,,,,,,,,,,,,,,,,,,,,,,,,,,,,,,,,,,,,,,,,
,,609fa72a56beea595c2b60b,2024-02-19_03h14.49.231,kallum_motion_pilot,2023.2.2,Win32,60.24096386,609fa72a56beea5595c2b60b,65d2b6c8f2eece985d8e374c,65d2b93f80b5775321cab95c,0.0457,0.0457,0,98,98,148,1,sevenfive,,,,,,,,,,,,,,,,,,,,,,,,,,,,,,,,,,,,,,,,,,,,,,,,,,,,,,,,,,,,,,,,,,,,,,,,,,,,,,,,,,,,,,,,,,,,,,,,,,,,,,,,,,,,,,,,,,,,,,,,,,,,,,,,,,,,,,,,,
,,609fa72a56beea595c2b60b,2024-02-19_03h14.49.231,kallum_motion_pilot,2023.2.2,Win32,60.24096386,609fa72a56beea5595c2b60b,65d2b6c8f2eece985d8e374c,65d2b93f80b5775321cab95c,0.0465,0.0465,0,99,99,74,1,twoone,,,,,,,,,,,,,,,,,,,,,,,,,,,,,,,,,,,,,,,,,,,,,,,,,,,,,,,,,,,,,,,,,,,,,,,,,,,,,,,,,,,,,,,,,,,,,,,,,,,,,,,,,,,,,,,,,,,,,,,,,,,,,,,,,,,,,,,,,
,,609fa72a56beea595c2b60b,2024-02-19_03h14.49.231,kallum_motion_pilot,2023.2.2,Win32,60.24096386,609fa72a56beea5595c2b60b,65d2b6c8f2eece985d8e374c,65d2b93f80b5775321cab95c,0.0469,0.047,0,100,100,11,1,twofour,,,,,,,,,,,,,,,,,,,,,,,,,,,,,,,,,,,,,,,,,,,,,,,,,,,,,,,,,,,,,,,,,,,,,,,,,,,,,,,,,,,,,,,,,,,,,,,,,,,,,,,,,,,,,,,,,,,,,,,,,,,,,,,,,,,,,,,,,
,,609fa72a56beea595c2b60b,2024-02-19_03h14.49.231,kallum_motion_pilot,2023.2.2,Win32,60.24096386,609fa72a56beea5595c2b60b,65d2b6c8f2eece985d8e374c,65d2b93f80b5775321cab95c,0.047,0.0471,0,101,101,97,1,fiveseven,,,,,,,,,,,,,,,,,,,,,,,,,,,,,,,,,,,,,,,,,,,,,,,,,,,,,,,,,,,,,,,,,,,,,,,,,,,,,,,,,,,,,,,,,,,,,,,,,,,,,,,,,,,,,,,,,,,,,,,,,,,,,,,,,,,,,,,,,
,,609fa72a56beea595c2b60b,2024-02-19_03h14.49.231,kallum_motion_pilot,2023.2.2,Win32,60.24096386,609fa72a56beea5595c2b60b,65d2b6c8f2eece985d8e374c,65d2b93f80b5775321cab95c,0.0472,0.0473,0,102,102,19,1,twofour,,,,,,,,,,,,,,,,,,,,,,,,,,,,,,,,,,,,,,,,,,,,,,,,,,,,,,,,,,,,,,,,,,,,,,,,,,,,,,,,,,,,,,,,,,,,,,,,,,,,,,,,,,,,,,,,,,,,,,,,,,,,,,,,,,,,,,,,,
,,609fa72a56beea595c2b60b,2024-02-19_03h14.49.231,kallum_motion_pilot,2023.2.2,Win32,60.24096386,609fa72a56beea5595c2b60b,65d2b6c8f2eece985d8e374c,65d2b93f80b5775321cab95c,0.0473,0.0474,0,103,103,1,1,onethree,,,,,,,,,,,,,,,,,,,,,,,,,,,,,,,,,,,,,,,,,,,,,,,,,,,,,,,,,,,,,,,,,,,,,,,,,,,,,,,,,,,,,,,,,,,,,,,,,,,,,,,,,,,,,,,,,,,,,,,,,,,,,,,,,,,,,,,,,
,,609fa72a56beea595c2b60b,2024-02-19_03h14.49.231,kallum_motion_pilot,2023.2.2,Win32,60.24096386,609fa72a56beea5595c2b60b,65d2b6c8f2eece985d8e374c,65d2b93f80b5775321cab95c,0.0474,0.0475,0,104,104,4,1,threeone,,,,,,,,,,,,,,,,,,,,,,,,,,,,,,,,,,,,,,,,,,,,,,,,,,,,,,,,,,,,,,,,,,,,,,,,,,,,,,,,,,,,,,,,,,,,,,,,,,,,,,,,,,,,,,,,,,,,,,,,,,,,,,,,,,,,,,,,,
,,609fa72a56beea595c2b60b,2024-02-19_03h14.49.231,kallum_motion_pilot,2023.2.2,Win32,60.24096386,609fa72a56beea5595c2b60b,65d2b6c8f2eece985d8e374c,65d2b93f80b5775321cab95c,0.0476,0.0477,0,105,105,80,1,fivesix,,,,,,,,,,,,,,,,,,,,,,,,,,,,,,,,,,,,,,,,,,,,,,,,,,,,,,,,,,,,,,,,,,,,,,,,,,,,,,,,,,,,,,,,,,,,,,,,,,,,,,,,,,,,,,,,,,,,,,,,,,,,,,,,,,,,,,,,,
,,609fa72a56beea595c2b60b,2024-02-19_03h14.49.231,kallum_motion_pilot,2023.2.2,Win32,60.24096386,609fa72a56beea5595c2b60b,65d2b6c8f2eece985d8e374c,65d2b93f80b5775321cab95c,0.0477,0.0478,0,106,106,156,1,sevenfive,,,,,,,,,,,,,,,,,,,,,,,,,,,,,,,,,,,,,,,,,,,,,,,,,,,,,,,,,,,,,,,,,,,,,,,,,,,,,,,,,,,,,,,,,,,,,,,,,,,,,,,,,,,,,,,,,,,,,,,,,,,,,,,,,,,,,,,,,
,,609fa72a56beea595c2b60b,2024-02-19_03h14.49.231,kallum_motion_pilot,2023.2.2,Win32,60.24096386,609fa72a56beea5595c2b60b,65d2b6c8f2eece985d8e374c,65d2b93f80b5775321cab95c,0.0479,0.048,0,107,107,149,1,seveneight,,,,,,,,,,,,,,,,,,,,,,,,,,,,,,,,,,,,,,,,,,,,,,,,,,,,,,,,,,,,,,,,,,,,,,,,,,,,,,,,,,,,,,,,,,,,,,,,,,,,,,,,,,,,,,,,,,,,,,,,,,,,,,,,,,,,,,,,,
,,609fa72a56beea595c2b60b,2024-02-19_03h14.49.231,kallum_motion_pilot,2023.2.2,Win32,60.24096386,609fa72a56beea5595c2b60b,65d2b6c8f2eece985d8e374c,65d2b93f80b5775321cab95c,0.0481,0.0481,0,108,108,40,1,onetwo,,,,,,,,,,,,,,,,,,,,,,,,,,,,,,,,,,,,,,,,,,,,,,,,,,,,,,,,,,,,,,,,,,,,,,,,,,,,,,,,,,,,,,,,,,,,,,,,,,,,,,,,,,,,,,,,,,,,,,,,,,,,,,,,,,,,,,,,,
,,609fa72a56beea595c2b60b,2024-02-19_03h14.49.231,kallum_motion_pilot,2023.2.2,Win32,60.24096386,609fa72a56beea5595c2b60b,65d2b6c8f2eece985d8e374c,65d2b93f80b5775321cab95c,0.0482,0.0483,0,109,109,21,1,threefour,,,,,,,,,,,,,,,,,,,,,,,,,,,,,,,,,,,,,,,,,,,,,,,,,,,,,,,,,,,,,,,,,,,,,,,,,,,,,,,,,,,,,,,,,,,,,,,,,,,,,,,,,,,,,,,,,,,,,,,,,,,,,,,,,,,,,,,,,
,,609fa72a56beea595c2b60b,2024-02-19_03h14.49.231,kallum_motion_pilot,2023.2.2,Win32,60.24096386,609fa72a56beea5595c2b60b,65d2b6c8f2eece985d8e374c,65d2b93f80b5775321cab95c,0.0484,0.0485,0,110,110,113,1,fiveseven,,,,,,,,,,,,,,,,,,,,,,,,,,,,,,,,,,,,,,,,,,,,,,,,,,,,,,,,,,,,,,,,,,,,,,,,,,,,,,,,,,,,,,,,,,,,,,,,,,,,,,,,,,,,,,,,,,,,,,,,,,,,,,,,,,,,,,,,,
,,609fa72a56beea595c2b60b,2024-02-19_03h14.49.231,kallum_motion_pilot,2023.2.2,Win32,60.24096386,609fa72a56beea5595c2b60b,65d2b6c8f2eece985d8e374c,65d2b93f80b5775321cab95c,0.0485,0.0486,0,111,111,82,1,sixfive,,,,,,,,,,,,,,,,,,,,,,,,,,,,,,,,,,,,,,,,,,,,,,,,,,,,,,,,,,,,,,,,,,,,,,,,,,,,,,,,,,,,,,,,,,,,,,,,,,,,,,,,,,,,,,,,,,,,,,,,,,,,,,,,,,,,,,,,,
,,609fa72a56beea595c2b60b,2024-02-19_03h14.49.231,kallum_motion_pilot,2023.2.2,Win32,60.24096386,609fa72a56beea5595c2b60b,65d2b6c8f2eece985d8e374c,65d2b93f80b5775321cab95c,0.0487,0.0487,0,112,112,68,1,threeone,,,,,,,,,,,,,,,,,,,,,,,,,,,,,,,,,,,,,,,,,,,,,,,,,,,,,,,,,,,,,,,,,,,,,,,,,,,,,,,,,,,,,,,,,,,,,,,,,,,,,,,,,,,,,,,,,,,,,,,,,,,,,,,,,,,,,,,,,
,,609fa72a56beea595c2b60b,2024-02-19_03h14.49.231,kallum_motion_pilot,2023.2.2,Win32,60.24096386,609fa72a56beea5595c2b60b,65d2b6c8f2eece985d8e374c,65d2b93f80b5775321cab95c,0.0488,0.0488,0,113,113,17,1,onethree,,,,,,,,,,,,,,,,,,,,,,,,,,,,,,,,,,,,,,,,,,,,,,,,,,,,,,,,,,,,,,,,,,,,,,,,,,,,,,,,,,,,,,,,,,,,,,,,,,,,,,,,,,,,,,,,,,,,,,,,,,,,,,,,,,,,,,,,,
,,609fa72a56beea595c2b60b,2024-02-19_03h14.49.231,kallum_motion_pilot,2023.2.2,Win32,60.24096386,609fa72a56beea5595c2b60b,65d2b6c8f2eece985d8e374c,65d2b93f80b5775321cab95c,0.0489,0.049,0,114,114,118,1,eightsix,,,,,,,,,,,,,,,,,,,,,,,,,,,,,,,,,,,,,,,,,,,,,,,,,,,,,,,,,,,,,,,,,,,,,,,,,,,,,,,,,,,,,,,,,,,,,,,,,,,,,,,,,,,,,,,,,,,,,,,,,,,,,,,,,,,,,,,,,
,,609fa72a56beea595c2b60b,2024-02-19_03h14.49.231,kallum_motion_pilot,2023.2.2,Win32,60.24096386,609fa72a56beea5595c2b60b,65d2b6c8f2eece985d8e374c,65d2b93f80b5775321cab95c,0.0491,0.0491,0,115,115,130,1,sixfive,,,,,,,,,,,,,,,,,,,,,,,,,,,,,,,,,,,,,,,,,,,,,,,,,,,,,,,,,,,,,,,,,,,,,,,,,,,,,,,,,,,,,,,,,,,,,,,,,,,,,,,,,,,,,,,,,,,,,,,,,,,,,,,,,,,,,,,,,
,,609fa72a56beea595c2b60b,2024-02-19_03h14.49.231,kallum_motion_pilot,2023.2.2,Win32,60.24096386,609fa72a56beea5595c2b60b,65d2b6c8f2eece985d8e374c,65d2b93f80b5775321cab95c,0.0492,0.0493,0,116,116,136,1,fivesix,,,,,,,,,,,,,,,,,,,,,,,,,,,,,,,,,,,,,,,,,,,,,,,,,,,,,,,,,,,,,,,,,,,,,,,,,,,,,,,,,,,,,,,,,,,,,,,,,,,,,,,,,,,,,,,,,,,,,,,,,,,,,,,,,,,,,,,,,
,,609fa72a56beea595c2b60b,2024-02-19_03h14.49.231,kallum_motion_pilot,2023.2.2,Win32,60.24096386,609fa72a56beea5595c2b60b,65d2b6c8f2eece985d8e374c,65d2b93f80b5775321cab95c,0.0493,0.0494,0,117,117,159,1,eightseven,,,,,,,,,,,,,,,,,,,,,,,,,,,,,,,,,,,,,,,,,,,,,,,,,,,,,,,,,,,,,,,,,,,,,,,,,,,,,,,,,,,,,,,,,,,,,,,,,,,,,,,,,,,,,,,,,,,,,,,,,,,,,,,,,,,,,,,,,
,,609fa72a56beea595c2b60b,2024-02-19_03h14.49.231,kallum_motion_pilot,2023.2.2,Win32,60.24096386,609fa72a56beea5595c2b60b,65d2b6c8f2eece985d8e374c,65d2b93f80b5775321cab95c,0.0496,0.0496,0,118,118,24,1,onetwo,,,,,,,,,,,,,,,,,,,,,,,,,,,,,,,,,,,,,,,,,,,,,,,,,,,,,,,,,,,,,,,,,,,,,,,,,,,,,,,,,,,,,,,,,,,,,,,,,,,,,,,,,,,,,,,,,,,,,,,,,,,,,,,,,,,,,,,,,
,,609fa72a56beea595c2b60b,2024-02-19_03h14.49.231,kallum_motion_pilot,2023.2.2,Win32,60.24096386,609fa72a56beea5595c2b60b,65d2b6c8f2eece985d8e374c,65d2b93f80b5775321cab95c,0.0496,0.0497,0,119,119,98,1,sixfive,,,,,,,,,,,,,,,,,,,,,,,,,,,,,,,,,,,,,,,,,,,,,,,,,,,,,,,,,,,,,,,,,,,,,,,,,,,,,,,,,,,,,,,,,,,,,,,,,,,,,,,,,,,,,,,,,,,,,,,,,,,,,,,,,,,,,,,,,
,,609fa72a56beea595c2b60b,2024-02-19_03h14.49.231,kallum_motion_pilot,2023.2.2,Win32,60.24096386,609fa72a56beea5595c2b60b,65d2b6c8f2eece985d8e374c,65d2b93f80b5775321cab95c,0.0498,0.0498,0,120,120,110,1,eightsix,,,,,,,,,,,,,,,,,,,,,,,,,,,,,,,,,,,,,,,,,,,,,,,,,,,,,,,,,,,,,,,,,,,,,,,,,,,,,,,,,,,,,,,,,,,,,,,,,,,,,,,,,,,,,,,,,,,,,,,,,,,,,,,,,,,,,,,,,
,,609fa72a56beea595c2b60b,2024-02-19_03h14.49.231,kallum_motion_pilot,2023.2.2,Win32,60.24096386,609fa72a56beea5595c2b60b,65d2b6c8f2eece985d8e374c,65d2b93f80b5775321cab95c,0.0499,0.05,0,121,121,90,1,sixfive,,,,,,,,,,,,,,,,,,,,,,,,,,,,,,,,,,,,,,,,,,,,,,,,,,,,,,,,,,,,,,,,,,,,,,,,,,,,,,,,,,,,,,,,,,,,,,,,,,,,,,,,,,,,,,,,,,,,,,,,,,,,,,,,,,,,,,,,,
,,609fa72a56beea595c2b60b,2024-02-19_03h14.49.231,kallum_motion_pilot,2023.2.2,Win32,60.24096386,609fa72a56beea5595c2b60b,65d2b6c8f2eece985d8e374c,65d2b93f80b5775321cab95c,0.05,0.0501,0,122,122,120,1,fivesix,,,,,,,,,,,,,,,,,,,,,,,,,,,,,,,,,,,,,,,,,,,,,,,,,,,,,,,,,,,,,,,,,,,,,,,,,,,,,,,,,,,,,,,,,,,,,,,,,,,,,,,,,,,,,,,,,,,,,,,,,,,,,,,,,,,,,,,,,
,,609fa72a56beea595c2b60b,2024-02-19_03h14.49.231,kallum_motion_pilot,2023.2.2,Win32,60.24096386,609fa72a56beea5595c2b60b,65d2b6c8f2eece985d8e374c,65d2b93f80b5775321cab95c,0.0503,0.0503,0,123,123,48,1,onetwo,,,,,,,,,,,,,,,,,,,,,,,,,,,,,,,,,,,,,,,,,,,,,,,,,,,,,,,,,,,,,,,,,,,,,,,,,,,,,,,,,,,,,,,,,,,,,,,,,,,,,,,,,,,,,,,,,,,,,,,,,,,,,,,,,,,,,,,,,
,,609fa72a56beea595c2b60b,2024-02-19_03h14.49.231,kallum_motion_pilot,2023.2.2,Win32,60.24096386,609fa72a56beea5595c2b60b,65d2b6c8f2eece985d8e374c,65d2b93f80b5775321cab95c,0.0504,0.0505,0,124,124,131,1,sixeight,,,,,,,,,,,,,,,,,,,,,,,,,,,,,,,,,,,,,,,,,,,,,,,,,,,,,,,,,,,,,,,,,,,,,,,,,,,,,,,,,,,,,,,,,,,,,,,,,,,,,,,,,,,,,,,,,,,,,,,,,,,,,,,,,,,,,,,,,
,,609fa72a56beea595c2b60b,2024-02-19_03h14.49.231,kallum_motion_pilot,2023.2.2,Win32,60.24096386,609fa72a56beea5595c2b60b,65d2b6c8f2eece985d8e374c,65d2b93f80b5775321cab95c,0.0506,0.0507,0,125,125,12,1,threeone,,,,,,,,,,,,,,,,,,,,,,,,,,,,,,,,,,,,,,,,,,,,,,,,,,,,,,,,,,,,,,,,,,,,,,,,,,,,,,,,,,,,,,,,,,,,,,,,,,,,,,,,,,,,,,,,,,,,,,,,,,,,,,,,,,,,,,,,,
,,609fa72a56beea595c2b60b,2024-02-19_03h14.49.231,kallum_motion_pilot,2023.2.2,Win32,60.24096386,609fa72a56beea5595c2b60b,65d2b6c8f2eece985d8e374c,65d2b93f80b5775321cab95c,0.0508,0.0508,0,126,126,142,1,eightsix,,,,,,,,,,,,,,,,,,,,,,,,,,,,,,,,,,,,,,,,,,,,,,,,,,,,,,,,,,,,,,,,,,,,,,,,,,,,,,,,,,,,,,,,,,,,,,,,,,,,,,,,,,,,,,,,,,,,,,,,,,,,,,,,,,,,,,,,,
,,609fa72a56beea595c2b60b,2024-02-19_03h14.49.231,kallum_motion_pilot,2023.2.2,Win32,60.24096386,609fa72a56beea5595c2b60b,65d2b6c8f2eece985d8e374c,65d2b93f80b5775321cab95c,0.051,0.0511,0,127,127,42,1,twoone,,,,,,,,,,,,,,,,,,,,,,,,,,,,,,,,,,,,,,,,,,,,,,,,,,,,,,,,,,,,,,,,,,,,,,,,,,,,,,,,,,,,,,,,,,,,,,,,,,,,,,,,,,,,,,,,,,,,,,,,,,,,,,,,,,,,,,,,,
,,609fa72a56beea595c2b60b,2024-02-19_03h14.49.231,kallum_motion_pilot,2023.2.2,Win32,60.24096386,609fa72a56beea5595c2b60b,65d2b6c8f2eece985d8e374c,65d2b93f80b5775321cab95c,0.0512,0.0512,0,128,128,62,1,fourtwo,,,,,,,,,,,,,,,,,,,,,,,,,,,,,,,,,,,,,,,,,,,,,,,,,,,,,,,,,,,,,,,,,,,,,,,,,,,,,,,,,,,,,,,,,,,,,,,,,,,,,,,,,,,,,,,,,,,,,,,,,,,,,,,,,,,,,,,,,
,,609fa72a56beea595c2b60b,2024-02-19_03h14.49.231,kallum_motion_pilot,2023.2.2,Win32,60.24096386,609fa72a56beea5595c2b60b,65d2b6c8f2eece985d8e374c,65d2b93f80b5775321cab95c,0.0513,0.0514,0,129,129,29,1,threefour,,,,,,,,,,,,,,,,,,,,,,,,,,,,,,,,,,,,,,,,,,,,,,,,,,,,,,,,,,,,,,,,,,,,,,,,,,,,,,,,,,,,,,,,,,,,,,,,,,,,,,,,,,,,,,,,,,,,,,,,,,,,,,,,,,,,,,,,,
,,609fa72a56beea595c2b60b,2024-02-19_03h14.49.231,kallum_motion_pilot,2023.2.2,Win32,60.24096386,609fa72a56beea5595c2b60b,65d2b6c8f2eece985d8e374c,65d2b93f80b5775321cab95c,0.0514,0.0515,0,130,130,71,1,fourthree,,,,,,,,,,,,,,,,,,,,,,,,,,,,,,,,,,,,,,,,,,,,,,,,,,,,,,,,,,,,,,,,,,,,,,,,,,,,,,,,,,,,,,,,,,,,,,,,,,,,,,,,,,,,,,,,,,,,,,,,,,,,,,,,,,,,,,,,,
,,609fa72a56beea595c2b60b,2024-02-19_03h14.49.231,kallum_motion_pilot,2023.2.2,Win32,60.24096386,609fa72a56beea5595c2b60b,65d2b6c8f2eece985d8e374c,65d2b93f80b5775321cab95c,0.0516,0.0516,0,131,131,6,1,fourtwo,,,,,,,,,,,,,,,,,,,,,,,,,,,,,,,,,,,,,,,,,,,,,,,,,,,,,,,,,,,,,,,,,,,,,,,,,,,,,,,,,,,,,,,,,,,,,,,,,,,,,,,,,,,,,,,,,,,,,,,,,,,,,,,,,,,,,,,,,
,,609fa72a56beea595c2b60b,2024-02-19_03h14.49.231,kallum_motion_pilot,2023.2.2,Win32,60.24096386,609fa72a56beea5595c2b60b,65d2b6c8f2eece985d8e374c,65d2b93f80b5775321cab95c,0.0517,0.0518,0,132,132,92,1,sevenfive,,,,,,,,,,,,,,,,,,,,,,,,,,,,,,,,,,,,,,,,,,,,,,,,,,,,,,,,,,,,,,,,,,,,,,,,,,,,,,,,,,,,,,,,,,,,,,,,,,,,,,,,,,,,,,,,,,,,,,,,,,,,,,,,,,,,,,,,,
,,609fa72a56beea595c2b60b,2024-02-19_03h14.49.231,kallum_motion_pilot,2023.2.2,Win32,60.24096386,609fa72a56beea5595c2b60b,65d2b6c8f2eece985d8e374c,65d2b93f80b5775321cab95c,0.0519,0.0519,0,133,133,50,1,twoone,,,,,,,,,,,,,,,,,,,,,,,,,,,,,,,,,,,,,,,,,,,,,,,,,,,,,,,,,,,,,,,,,,,,,,,,,,,,,,,,,,,,,,,,,,,,,,,,,,,,,,,,,,,,,,,,,,,,,,,,,,,,,,,,,,,,,,,,,
,,609fa72a56beea595c2b60b,2024-02-19_03h14.49.231,kallum_motion_pilot,2023.2.2,Win32,60.24096386,609fa72a56beea5595c2b60b,65d2b6c8f2eece985d8e374c,65d2b93f80b5775321cab95c,0.0521,0.0521,0,134,134,154,1,sixfive,,,,,,,,,,,,,,,,,,,,,,,,,,,,,,,,,,,,,,,,,,,,,,,,,,,,,,,,,,,,,,,,,,,,,,,,,,,,,,,,,,,,,,,,,,,,,,,,,,,,,,,,,,,,,,,,,,,,,,,,,,,,,,,,,,,,,,,,,
,,609fa72a56beea595c2b60b,2024-02-19_03h14.49.231,kallum_motion_pilot,2023.2.2,Win32,60.24096386,609fa72a56beea5595c2b60b,65d2b6c8f2eece985d8e374c,65d2b93f80b5775321cab95c,0.0522,0.0523,0,135,135,35,1,twofour,,,,,,,,,,,,,,,,,,,,,,,,,,,,,,,,,,,,,,,,,,,,,,,,,,,,,,,,,,,,,,,,,,,,,,,,,,,,,,,,,,,,,,,,,,,,,,,,,,,,,,,,,,,,,,,,,,,,,,,,,,,,,,,,,,,,,,,,,
,,609fa72a56beea595c2b60b,2024-02-19_03h14.49.231,kallum_motion_pilot,2023.2.2,Win32,60.24096386,609fa72a56beea5595c2b60b,65d2b6c8f2eece985d8e374c,65d2b93f80b5775321cab95c,0.0523,0.0524,0,136,136,47,1,fourthree,,,,,,,,,,,,,,,,,,,,,,,,,,,,,,,,,,,,,,,,,,,,,,,,,,,,,,,,,,,,,,,,,,,,,,,,,,,,,,,,,,,,,,,,,,,,,,,,,,,,,,,,,,,,,,,,,,,,,,,,,,,,,,,,,,,,,,,,,
,,609fa72a56beea595c2b60b,2024-02-19_03h14.49.231,kallum_motion_pilot,2023.2.2,Win32,60.24096386,609fa72a56beea5595c2b60b,65d2b6c8f2eece985d8e374c,65d2b93f80b5775321cab95c,0.0525,0.0526,0,137,137,49,1,onethree,,,,,,,,,,,,,,,,,,,,,,,,,,,,,,,,,,,,,,,,,,,,,,,,,,,,,,,,,,,,,,,,,,,,,,,,,,,,,,,,,,,,,,,,,,,,,,,,,,,,,,,,,,,,,,,,,,,,,,,,,,,,,,,,,,,,,,,,,
,,609fa72a56beea595c2b60b,2024-02-19_03h14.49.231,kallum_motion_pilot,2023.2.2,Win32,60.24096386,609fa72a56beea5595c2b60b,65d2b6c8f2eece985d8e374c,65d2b93f80b5775321cab95c,0.0526,0.0528,0,138,138,77,1,threefour,,,,,,,,,,,,,,,,,,,,,,,,,,,,,,,,,,,,,,,,,,,,,,,,,,,,,,,,,,,,,,,,,,,,,,,,,,,,,,,,,,,,,,,,,,,,,,,,,,,,,,,,,,,,,,,,,,,,,,,,,,,,,,,,,,,,,,,,,
,,609fa72a56beea595c2b60b,2024-02-19_03h14.49.231,kallum_motion_pilot,2023.2.2,Win32,60.24096386,609fa72a56beea5595c2b60b,65d2b6c8f2eece985d8e374c,65d2b93f80b5775321cab95c,0.053,0.053,0,139,139,44,1,threeone,,,,,,,,,,,,,,,,,,,,,,,,,,,,,,,,,,,,,,,,,,,,,,,,,,,,,,,,,,,,,,,,,,,,,,,,,,,,,,,,,,,,,,,,,,,,,,,,,,,,,,,,,,,,,,,,,,,,,,,,,,,,,,,,,,,,,,,,,
,,609fa72a56beea595c2b60b,2024-02-19_03h14.49.231,kallum_motion_pilot,2023.2.2,Win32,60.24096386,609fa72a56beea5595c2b60b,65d2b6c8f2eece985d8e374c,65d2b93f80b5775321cab95c,0.0531,0.0532,0,140,140,141,1,seveneight,,,,,,,,,,,,,,,,,,,,,,,,,,,,,,,,,,,,,,,,,,,,,,,,,,,,,,,,,,,,,,,,,,,,,,,,,,,,,,,,,,,,,,,,,,,,,,,,,,,,,,,,,,,,,,,,,,,,,,,,,,,,,,,,,,,,,,,,,
,,609fa72a56beea595c2b60b,2024-02-19_03h14.49.231,kallum_motion_pilot,2023.2.2,Win32,60.24096386,609fa72a56beea5595c2b60b,65d2b6c8f2eece985d8e374c,65d2b93f80b5775321cab95c,0.0534,0.0534,0,141,141,144,1,fivesix,,,,,,,,,,,,,,,,,,,,,,,,,,,,,,,,,,,,,,,,,,,,,,,,,,,,,,,,,,,,,,,,,,,,,,,,,,,,,,,,,,,,,,,,,,,,,,,,,,,,,,,,,,,,,,,,,,,,,,,,,,,,,,,,,,,,,,,,,
,,609fa72a56beea595c2b60b,2024-02-19_03h14.49.231,kallum_motion_pilot,2023.2.2,Win32,60.24096386,609fa72a56beea5595c2b60b,65d2b6c8f2eece985d8e374c,65d2b93f80b5775321cab95c,0.0535,0.0536,0,142,142,94,1,eightsix,,,,,,,,,,,,,,,,,,,,,,,,,,,,,,,,,,,,,,,,,,,,,,,,,,,,,,,,,,,,,,,,,,,,,,,,,,,,,,,,,,,,,,,,,,,,,,,,,,,,,,,,,,,,,,,,,,,,,,,,,,,,,,,,,,,,,,,,,
,,609fa72a56beea595c2b60b,2024-02-19_03h14.49.231,kallum_motion_pilot,2023.2.2,Win32,60.24096386,609fa72a56beea5595c2b60b,65d2b6c8f2eece985d8e374c,65d2b93f80b5775321cab95c,0.0536,0.0537,0,143,143,95,1,eightseven,,,,,,,,,,,,,,,,,,,,,,,,,,,,,,,,,,,,,,,,,,,,,,,,,,,,,,,,,,,,,,,,,,,,,,,,,,,,,,,,,,,,,,,,,,,,,,,,,,,,,,,,,,,,,,,,,,,,,,,,,,,,,,,,,,,,,,,,,
,,609fa72a56beea595c2b60b,2024-02-19_03h14.49.231,kallum_motion_pilot,2023.2.2,Win32,60.24096386,609fa72a56beea5595c2b60b,65d2b6c8f2eece985d8e374c,65d2b93f80b5775321cab95c,0.0538,0.0539,0,144,144,111,1,eightseven,,,,,,,,,,,,,,,,,,,,,,,,,,,,,,,,,,,,,,,,,,,,,,,,,,,,,,,,,,,,,,,,,,,,,,,,,,,,,,,,,,,,,,,,,,,,,,,,,,,,,,,,,,,,,,,,,,,,,,,,,,,,,,,,,,,,,,,,,
,,609fa72a56beea595c2b60b,2024-02-19_03h14.49.231,kallum_motion_pilot,2023.2.2,Win32,60.24096386,609fa72a56beea5595c2b60b,65d2b6c8f2eece985d8e374c,65d2b93f80b5775321cab95c,0.054,0.054,0,145,145,18,1,twoone,,,,,,,,,,,,,,,,,,,,,,,,,,,,,,,,,,,,,,,,,,,,,,,,,,,,,,,,,,,,,,,,,,,,,,,,,,,,,,,,,,,,,,,,,,,,,,,,,,,,,,,,,,,,,,,,,,,,,,,,,,,,,,,,,,,,,,,,,
,,609fa72a56beea595c2b60b,2024-02-19_03h14.49.231,kallum_motion_pilot,2023.2.2,Win32,60.24096386,609fa72a56beea5595c2b60b,65d2b6c8f2eece985d8e374c,65d2b93f80b5775321cab95c,0.0542,0.0542,0,146,146,99,1,sixeight,,,,,,,,,,,,,,,,,,,,,,,,,,,,,,,,,,,,,,,,,,,,,,,,,,,,,,,,,,,,,,,,,,,,,,,,,,,,,,,,,,,,,,,,,,,,,,,,,,,,,,,,,,,,,,,,,,,,,,,,,,,,,,,,,,,,,,,,,
,,609fa72a56beea595c2b60b,2024-02-19_03h14.49.231,kallum_motion_pilot,2023.2.2,Win32,60.24096386,609fa72a56beea5595c2b60b,65d2b6c8f2eece985d8e374c,65d2b93f80b5775321cab95c,0.0543,0.0543,0,147,147,33,1,onethree,,,,,,,,,,,,,,,,,,,,,,,,,,,,,,,,,,,,,,,,,,,,,,,,,,,,,,,,,,,,,,,,,,,,,,,,,,,,,,,,,,,,,,,,,,,,,,,,,,,,,,,,,,,,,,,,,,,,,,,,,,,,,,,,,,,,,,,,,
,,609fa72a56beea595c2b60b,2024-02-19_03h14.49.231,kallum_motion_pilot,2023.2.2,Win32,60.24096386,609fa72a56beea5595c2b60b,65d2b6c8f2eece985d8e374c,65d2b93f80b5775321cab95c,0.0545,0.0545,0,148,148,93,1,seveneight,,,,,,,,,,,,,,,,,,,,,,,,,,,,,,,,,,,,,,,,,,,,,,,,,,,,,,,,,,,,,,,,,,,,,,,,,,,,,,,,,,,,,,,,,,,,,,,,,,,,,,,,,,,,,,,,,,,,,,,,,,,,,,,,,,,,,,,,,
,,609fa72a56beea595c2b60b,2024-02-19_03h14.49.231,kallum_motion_pilot,2023.2.2,Win32,60.24096386,609fa72a56beea5595c2b60b,65d2b6c8f2eece985d8e374c,65d2b93f80b5775321cab95c,0.0546,0.0546,0,149,149,128,1,fivesix,,,,,,,,,,,,,,,,,,,,,,,,,,,,,,,,,,,,,,,,,,,,,,,,,,,,,,,,,,,,,,,,,,,,,,,,,,,,,,,,,,,,,,,,,,,,,,,,,,,,,,,,,,,,,,,,,,,,,,,,,,,,,,,,,,,,,,,,,
,,609fa72a56beea595c2b60b,2024-02-19_03h14.49.231,kallum_motion_pilot,2023.2.2,Win32,60.24096386,609fa72a56beea5595c2b60b,65d2b6c8f2eece985d8e374c,65d2b93f80b5775321cab95c,0.0548,0.0548,0,150,150,2,1,twoone,,,,,,,,,,,,,,,,,,,,,,,,,,,,,,,,,,,,,,,,,,,,,,,,,,,,,,,,,,,,,,,,,,,,,,,,,,,,,,,,,,,,,,,,,,,,,,,,,,,,,,,,,,,,,,,,,,,,,,,,,,,,,,,,,,,,,,,,,
,,609fa72a56beea595c2b60b,2024-02-19_03h14.49.231,kallum_motion_pilot,2023.2.2,Win32,60.24096386,609fa72a56beea5595c2b60b,65d2b6c8f2eece985d8e374c,65d2b93f80b5775321cab95c,0.0549,0.055,0,151,151,39,1,fourthree,,,,,,,,,,,,,,,,,,,,,,,,,,,,,,,,,,,,,,,,,,,,,,,,,,,,,,,,,,,,,,,,,,,,,,,,,,,,,,,,,,,,,,,,,,,,,,,,,,,,,,,,,,,,,,,,,,,,,,,,,,,,,,,,,,,,,,,,,
,,609fa72a56beea595c2b60b,2024-02-19_03h14.49.231,kallum_motion_pilot,2023.2.2,Win32,60.24096386,609fa72a56beea5595c2b60b,65d2b6c8f2eece985d8e374c,65d2b93f80b5775321cab95c,0.0551,0.0551,0,152,152,114,1,sixfive,,,,,,,,,,,,,,,,,,,,,,,,,,,,,,,,,,,,,,,,,,,,,,,,,,,,,,,,,,,,,,,,,,,,,,,,,,,,,,,,,,,,,,,,,,,,,,,,,,,,,,,,,,,,,,,,,,,,,,,,,,,,,,,,,,,,,,,,,
,,609fa72a56beea595c2b60b,2024-02-19_03h14.49.231,kallum_motion_pilot,2023.2.2,Win32,60.24096386,609fa72a56beea5595c2b60b,65d2b6c8f2eece985d8e374c,65d2b93f80b5775321cab95c,0.0552,0.0553,0,153,153,85,1,seveneight,,,,,,,,,,,,,,,,,,,,,,,,,,,,,,,,,,,,,,,,,,,,,,,,,,,,,,,,,,,,,,,,,,,,,,,,,,,,,,,,,,,,,,,,,,,,,,,,,,,,,,,,,,,,,,,,,,,,,,,,,,,,,,,,,,,,,,,,,
,,609fa72a56beea595c2b60b,2024-02-19_03h14.49.231,kallum_motion_pilot,2023.2.2,Win32,60.24096386,609fa72a56beea5595c2b60b,65d2b6c8f2eece985d8e374c,65d2b93f80b5775321cab95c,0.0555,0.0555,0,154,154,38,1,fourtwo,,,,,,,,,,,,,,,,,,,,,,,,,,,,,,,,,,,,,,,,,,,,,,,,,,,,,,,,,,,,,,,,,,,,,,,,,,,,,,,,,,,,,,,,,,,,,,,,,,,,,,,,,,,,,,,,,,,,,,,,,,,,,,,,,,,,,,,,,
,,609fa72a56beea595c2b60b,2024-02-19_03h14.49.231,kallum_motion_pilot,2023.2.2,Win32,60.24096386,609fa72a56beea5595c2b60b,65d2b6c8f2eece985d8e374c,65d2b93f80b5775321cab95c,0.0556,0.0556,0,155,155,81,1,fiveseven,,,,,,,,,,,,,,,,,,,,,,,,,,,,,,,,,,,,,,,,,,,,,,,,,,,,,,,,,,,,,,,,,,,,,,,,,,,,,,,,,,,,,,,,,,,,,,,,,,,,,,,,,,,,,,,,,,,,,,,,,,,,,,,,,,,,,,,,,
,,609fa72a56beea595c2b60b,2024-02-19_03h14.49.231,kallum_motion_pilot,2023.2.2,Win32,60.24096386,609fa72a56beea5595c2b60b,65d2b6c8f2eece985d8e374c,65d2b93f80b5775321cab95c,0.0558,0.0558,0,156,156,22,1,fourtwo,,,,,,,,,,,,,,,,,,,,,,,,,,,,,,,,,,,,,,,,,,,,,,,,,,,,,,,,,,,,,,,,,,,,,,,,,,,,,,,,,,,,,,,,,,,,,,,,,,,,,,,,,,,,,,,,,,,,,,,,,,,,,,,,,,,,,,,,,
,,609fa72a56beea595c2b60b,2024-02-19_03h14.49.231,kallum_motion_pilot,2023.2.2,Win32,60.24096386,609fa72a56beea5595c2b60b,65d2b6c8f2eece985d8e374c,65d2b93f80b5775321cab95c,0.056,0.0561,0,157,157,14,1,fourtwo,,,,,,,,,,,,,,,,,,,,,,,,,,,,,,,,,,,,,,,,,,,,,,,,,,,,,,,,,,,,,,,,,,,,,,,,,,,,,,,,,,,,,,,,,,,,,,,,,,,,,,,,,,,,,,,,,,,,,,,,,,,,,,,,,,,,,,,,,
,,609fa72a56beea595c2b60b,2024-02-19_03h14.49.231,kallum_motion_pilot,2023.2.2,Win32,60.24096386,609fa72a56beea5595c2b60b,65d2b6c8f2eece985d8e374c,65d2b93f80b5775321cab95c,0.0564,0.0565,0,158,158,89,1,fiveseven,,,,,,,,,,,,,,,,,,,,,,,,,,,,,,,,,,,,,,,,,,,,,,,,,,,,,,,,,,,,,,,,,,,,,,,,,,,,,,,,,,,,,,,,,,,,,,,,,,,,,,,,,,,,,,,,,,,,,,,,,,,,,,,,,,,,,,,,,
,,609fa72a56beea595c2b60b,2024-02-19_03h14.49.231,kallum_motion_pilot,2023.2.2,Win32,60.24096386,609fa72a56beea5595c2b60b,65d2b6c8f2eece985d8e374c,65d2b93f80b5775321cab95c,0.0567,0.0567,0,159,159,10,1,twoone,,,,,,,,,,,,,,,,,,,,,,,,,,,,,,,,,,,,,,,,,,,,,,,,,,,,,,,,,,,,,,,,,,,,,,,,,,,,,,,,,,,,,,,,,,,,,,,,,,,,,,,,,,,,,,,,,,,,,,,,,,,,,,,,,,,,,,,,,
,,609fa72a56beea595c2b60b,2024-02-19_03h14.49.231,kallum_motion_pilot,2023.2.2,Win32,60.24096386,609fa72a56beea5595c2b60b,65d2b6c8f2eece985d8e374c,65d2b93f80b5775321cab95c,0.0569,0.0572,0,160,160,147,1,sixeight,,,,,,,,,,,,,,,,,,,,,,,,,,,,,,,,,,,,,,,,,,,,,,,,,,,,,,,,,,,,,,,,,,,,,,,,,,,,,,,,,,,,,,,,,,,,,,,,,,,,,,,,,,,,,,,,,,,,,,,,,,,,,,,,,,,,,,,,,
,,609fa72a56beea595c2b60b,2024-02-19_03h14.49.231,kallum_motion_pilot,2023.2.2,Win32,60.24096386,609fa72a56beea5595c2b60b,65d2b6c8f2eece985d8e374c,65d2b93f80b5775321cab95c,0.0575,0.0577,0,161,161,86,1,eightsix,,,,,,,,,,,,,,,,,,,,,,,,,,,,,,,,,,,,,,,,,,,,,,,,,,,,,,,,,,,,,,,,,,,,,,,,,,,,,,,,,,,,,,,,,,,,,,,,,,,,,,,,,,,,,,,,,,,,,,,,,,,,,,,,,,,,,,,,,
,,609fa72a56beea595c2b60b,2024-02-19_03h14.49.231,kallum_motion_pilot,2023.2.2,Win32,60.24096386,609fa72a56beea5595c2b60b,65d2b6c8f2eece985d8e374c,65d2b93f80b5775321cab95c,0.0579,0.0581,1,0,162,7,1,fourthree,,,,,,,,,,,,,,,,,,,,,,,,,,,,,,,,,,,,,,,,,,,,,,,,,,,,,,,,,,,,,,,,,,,,,,,,,,,,,,,,,,,,,,,,,,,,,,,,,,,,,,,,,,,,,,,,,,,,,,,,,,,,,,,,,,,,,,,,,
,,609fa72a56beea595c2b60b,2024-02-19_03h14.49.231,kallum_motion_pilot,2023.2.2,Win32,60.24096386,609fa72a56beea5595c2b60b,65d2b6c8f2eece985d8e374c,65d2b93f80b5775321cab95c,0.0584,0.0585,1,1,163,14,1,fourtwo,,,,,,,,,,,,,,,,,,,,,,,,,,,,,,,,,,,,,,,,,,,,,,,,,,,,,,,,,,,,,,,,,,,,,,,,,,,,,,,,,,,,,,,,,,,,,,,,,,,,,,,,,,,,,,,,,,,,,,,,,,,,,,,,,,,,,,,,,
,,609fa72a56beea595c2b60b,2024-02-19_03h14.49.231,kallum_motion_pilot,2023.2.2,Win32,60.24096386,609fa72a56beea5595c2b60b,65d2b6c8f2eece985d8e374c,65d2b93f80b5775321cab95c,0.059,0.059,1,2,164,155,1,sixeight,,,,,,,,,,,,,,,,,,,,,,,,,,,,,,,,,,,,,,,,,,,,,,,,,,,,,,,,,,,,,,,,,,,,,,,,,,,,,,,,,,,,,,,,,,,,,,,,,,,,,,,,,,,,,,,,,,,,,,,,,,,,,,,,,,,,,,,,,
,,609fa72a56beea595c2b60b,2024-02-19_03h14.49.231,kallum_motion_pilot,2023.2.2,Win32,60.24096386,609fa72a56beea5595c2b60b,65d2b6c8f2eece985d8e374c,65d2b93f80b5775321cab95c,0.0592,0.0593,1,3,165,9,1,onethree,,,,,,,,,,,,,,,,,,,,,,,,,,,,,,,,,,,,,,,,,,,,,,,,,,,,,,,,,,,,,,,,,,,,,,,,,,,,,,,,,,,,,,,,,,,,,,,,,,,,,,,,,,,,,,,,,,,,,,,,,,,,,,,,,,,,,,,,,
,,609fa72a56beea595c2b60b,2024-02-19_03h14.49.231,kallum_motion_pilot,2023.2.2,Win32,60.24096386,609fa72a56beea5595c2b60b,65d2b6c8f2eece985d8e374c,65d2b93f80b5775321cab95c,0.0594,0.0595,1,4,166,158,1,eightsix,,,,,,,,,,,,,,,,,,,,,,,,,,,,,,,,,,,,,,,,,,,,,,,,,,,,,,,,,,,,,,,,,,,,,,,,,,,,,,,,,,,,,,,,,,,,,,,,,,,,,,,,,,,,,,,,,,,,,,,,,,,,,,,,,,,,,,,,,
,,609fa72a56beea595c2b60b,2024-02-19_03h14.49.231,kallum_motion_pilot,2023.2.2,Win32,60.24096386,609fa72a56beea5595c2b60b,65d2b6c8f2eece985d8e374c,65d2b93f80b5775321cab95c,0.0597,0.0597,1,5,167,123,1,sixeight,,,,,,,,,,,,,,,,,,,,,,,,,,,,,,,,,,,,,,,,,,,,,,,,,,,,,,,,,,,,,,,,,,,,,,,,,,,,,,,,,,,,,,,,,,,,,,,,,,,,,,,,,,,,,,,,,,,,,,,,,,,,,,,,,,,,,,,,,
,,609fa72a56beea595c2b60b,2024-02-19_03h14.49.231,kallum_motion_pilot,2023.2.2,Win32,60.24096386,609fa72a56beea5595c2b60b,65d2b6c8f2eece985d8e374c,65d2b93f80b5775321cab95c,0.0597,0.0598,1,6,168,139,1,sixeight,,,,,,,,,,,,,,,,,,,,,,,,,,,,,,,,,,,,,,,,,,,,,,,,,,,,,,,,,,,,,,,,,,,,,,,,,,,,,,,,,,,,,,,,,,,,,,,,,,,,,,,,,,,,,,,,,,,,,,,,,,,,,,,,,,,,,,,,,
,,609fa72a56beea595c2b60b,2024-02-19_03h14.49.231,kallum_motion_pilot,2023.2.2,Win32,60.24096386,609fa72a56beea5595c2b60b,65d2b6c8f2eece985d8e374c,65d2b93f80b5775321cab95c,0.06,0.06,1,7,169,111,1,eightseven,,,,,,,,,,,,,,,,,,,,,,,,,,,,,,,,,,,,,,,,,,,,,,,,,,,,,,,,,,,,,,,,,,,,,,,,,,,,,,,,,,,,,,,,,,,,,,,,,,,,,,,,,,,,,,,,,,,,,,,,,,,,,,,,,,,,,,,,,
,,609fa72a56beea595c2b60b,2024-02-19_03h14.49.231,kallum_motion_pilot,2023.2.2,Win32,60.24096386,609fa72a56beea5595c2b60b,65d2b6c8f2eece985d8e374c,65d2b93f80b5775321cab95c,0.0601,0.0602,1,8,170,130,1,sixfive,,,,,,,,,,,,,,,,,,,,,,,,,,,,,,,,,,,,,,,,,,,,,,,,,,,,,,,,,,,,,,,,,,,,,,,,,,,,,,,,,,,,,,,,,,,,,,,,,,,,,,,,,,,,,,,,,,,,,,,,,,,,,,,,,,,,,,,,,
,,609fa72a56beea595c2b60b,2024-02-19_03h14.49.231,kallum_motion_pilot,2023.2.2,Win32,60.24096386,609fa72a56beea5595c2b60b,65d2b6c8f2eece985d8e374c,65d2b93f80b5775321cab95c,0.0603,0.0603,1,9,171,146,1,sixfive,,,,,,,,,,,,,,,,,,,,,,,,,,,,,,,,,,,,,,,,,,,,,,,,,,,,,,,,,,,,,,,,,,,,,,,,,,,,,,,,,,,,,,,,,,,,,,,,,,,,,,,,,,,,,,,,,,,,,,,,,,,,,,,,,,,,,,,,,
,,609fa72a56beea595c2b60b,2024-02-19_03h14.49.231,kallum_motion_pilot,2023.2.2,Win32,60.24096386,609fa72a56beea5595c2b60b,65d2b6c8f2eece985d8e374c,65d2b93f80b5775321cab95c,0.0604,0.0605,1,10,172,109,1,seveneight,,,,,,,,,,,,,,,,,,,,,,,,,,,,,,,,,,,,,,,,,,,,,,,,,,,,,,,,,,,,,,,,,,,,,,,,,,,,,,,,,,,,,,,,,,,,,,,,,,,,,,,,,,,,,,,,,,,,,,,,,,,,,,,,,,,,,,,,,
,,609fa72a56beea595c2b60b,2024-02-19_03h14.49.231,kallum_motion_pilot,2023.2.2,Win32,60.24096386,609fa72a56beea5595c2b60b,65d2b6c8f2eece985d8e374c,65d2b93f80b5775321cab95c,0.0606,0.0607,1,11,173,87,1,eightseven,,,,,,,,,,,,,,,,,,,,,,,,,,,,,,,,,,,,,,,,,,,,,,,,,,,,,,,,,,,,,,,,,,,,,,,,,,,,,,,,,,,,,,,,,,,,,,,,,,,,,,,,,,,,,,,,,,,,,,,,,,,,,,,,,,,,,,,,,
,,609fa72a56beea595c2b60b,2024-02-19_03h14.49.231,kallum_motion_pilot,2023.2.2,Win32,60.24096386,609fa72a56beea5595c2b60b,65d2b6c8f2eece985d8e374c,65d2b93f80b5775321cab95c,0.0608,0.0609,1,12,174,10,1,twoone,,,,,,,,,,,,,,,,,,,,,,,,,,,,,,,,,,,,,,,,,,,,,,,,,,,,,,,,,,,,,,,,,,,,,,,,,,,,,,,,,,,,,,,,,,,,,,,,,,,,,,,,,,,,,,,,,,,,,,,,,,,,,,,,,,,,,,,,,
,,609fa72a56beea595c2b60b,2024-02-19_03h14.49.231,kallum_motion_pilot,2023.2.2,Win32,60.24096386,609fa72a56beea5595c2b60b,65d2b6c8f2eece985d8e374c,65d2b93f80b5775321cab95c,0.0609,0.061,1,13,175,36,1,threeone,,,,,,,,,,,,,,,,,,,,,,,,,,,,,,,,,,,,,,,,,,,,,,,,,,,,,,,,,,,,,,,,,,,,,,,,,,,,,,,,,,,,,,,,,,,,,,,,,,,,,,,,,,,,,,,,,,,,,,,,,,,,,,,,,,,,,,,,,
,,609fa72a56beea595c2b60b,2024-02-19_03h14.49.231,kallum_motion_pilot,2023.2.2,Win32,60.24096386,609fa72a56beea5595c2b60b,65d2b6c8f2eece985d8e374c,65d2b93f80b5775321cab95c,0.0611,0.0611,1,14,176,18,1,twoone,,,,,,,,,,,,,,,,,,,,,,,,,,,,,,,,,,,,,,,,,,,,,,,,,,,,,,,,,,,,,,,,,,,,,,,,,,,,,,,,,,,,,,,,,,,,,,,,,,,,,,,,,,,,,,,,,,,,,,,,,,,,,,,,,,,,,,,,,
,,609fa72a56beea595c2b60b,2024-02-19_03h14.49.231,kallum_motion_pilot,2023.2.2,Win32,60.24096386,609fa72a56beea5595c2b60b,65d2b6c8f2eece985d8e374c,65d2b93f80b5775321cab95c,0.0613,0.0614,1,15,177,103,1,eightseven,,,,,,,,,,,,,,,,,,,,,,,,,,,,,,,,,,,,,,,,,,,,,,,,,,,,,,,,,,,,,,,,,,,,,,,,,,,,,,,,,,,,,,,,,,,,,,,,,,,,,,,,,,,,,,,,,,,,,,,,,,,,,,,,,,,,,,,,,
,,609fa72a56beea595c2b60b,2024-02-19_03h14.49.231,kallum_motion_pilot,2023.2.2,Win32,60.24096386,609fa72a56beea5595c2b60b,65d2b6c8f2eece985d8e374c,65d2b93f80b5775321cab95c,0.0614,0.0615,1,16,178,32,1,onetwo,,,,,,,,,,,,,,,,,,,,,,,,,,,,,,,,,,,,,,,,,,,,,,,,,,,,,,,,,,,,,,,,,,,,,,,,,,,,,,,,,,,,,,,,,,,,,,,,,,,,,,,,,,,,,,,,,,,,,,,,,,,,,,,,,,,,,,,,,
,,609fa72a56beea595c2b60b,2024-02-19_03h14.49.231,kallum_motion_pilot,2023.2.2,Win32,60.24096386,609fa72a56beea5595c2b60b,65d2b6c8f2eece985d8e374c,65d2b93f80b5775321cab95c,0.0616,0.0617,1,17,179,156,1,sevenfive,,,,,,,,,,,,,,,,,,,,,,,,,,,,,,,,,,,,,,,,,,,,,,,,,,,,,,,,,,,,,,,,,,,,,,,,,,,,,,,,,,,,,,,,,,,,,,,,,,,,,,,,,,,,,,,,,,,,,,,,,,,,,,,,,,,,,,,,,
,,609fa72a56beea595c2b60b,2024-02-19_03h14.49.231,kallum_motion_pilot,2023.2.2,Win32,60.24096386,609fa72a56beea5595c2b60b,65d2b6c8f2eece985d8e374c,65d2b93f80b5775321cab95c,0.0618,0.0619,1,18,180,90,1,sixfive,,,,,,,,,,,,,,,,,,,,,,,,,,,,,,,,,,,,,,,,,,,,,,,,,,,,,,,,,,,,,,,,,,,,,,,,,,,,,,,,,,,,,,,,,,,,,,,,,,,,,,,,,,,,,,,,,,,,,,,,,,,,,,,,,,,,,,,,,
,,609fa72a56beea595c2b60b,2024-02-19_03h14.49.231,kallum_motion_pilot,2023.2.2,Win32,60.24096386,609fa72a56beea5595c2b60b,65d2b6c8f2eece985d8e374c,65d2b93f80b5775321cab95c,0.062,0.062,1,19,181,98,1,sixfive,,,,,,,,,,,,,,,,,,,,,,,,,,,,,,,,,,,,,,,,,,,,,,,,,,,,,,,,,,,,,,,,,,,,,,,,,,,,,,,,,,,,,,,,,,,,,,,,,,,,,,,,,,,,,,,,,,,,,,,,,,,,,,,,,,,,,,,,,
,,609fa72a56beea595c2b60b,2024-02-19_03h14.49.231,kallum_motion_pilot,2023.2.2,Win32,60.24096386,609fa72a56beea5595c2b60b,65d2b6c8f2eece985d8e374c,65d2b93f80b5775321cab95c,0.0621,0.0622,1,20,182,102,1,eightsix,,,,,,,,,,,,,,,,,,,,,,,,,,,,,,,,,,,,,,,,,,,,,,,,,,,,,,,,,,,,,,,,,,,,,,,,,,,,,,,,,,,,,,,,,,,,,,,,,,,,,,,,,,,,,,,,,,,,,,,,,,,,,,,,,,,,,,,,,
,,609fa72a56beea595c2b60b,2024-02-19_03h14.49.231,kallum_motion_pilot,2023.2.2,Win32,60.24096386,609fa72a56beea5595c2b60b,65d2b6c8f2eece985d8e374c,65d2b93f80b5775321cab95c,0.0624,0.0624,1,21,183,92,1,sevenfive,,,,,,,,,,,,,,,,,,,,,,,,,,,,,,,,,,,,,,,,,,,,,,,,,,,,,,,,,,,,,,,,,,,,,,,,,,,,,,,,,,,,,,,,,,,,,,,,,,,,,,,,,,,,,,,,,,,,,,,,,,,,,,,,,,,,,,,,,
,,609fa72a56beea595c2b60b,2024-02-19_03h14.49.231,kallum_motion_pilot,2023.2.2,Win32,60.24096386,609fa72a56beea5595c2b60b,65d2b6c8f2eece985d8e374c,65d2b93f80b5775321cab95c,0.0626,0.0627,1,22,184,93,1,seveneight,,,,,,,,,,,,,,,,,,,,,,,,,,,,,,,,,,,,,,,,,,,,,,,,,,,,,,,,,,,,,,,,,,,,,,,,,,,,,,,,,,,,,,,,,,,,,,,,,,,,,,,,,,,,,,,,,,,,,,,,,,,,,,,,,,,,,,,,,
,,609fa72a56beea595c2b60b,2024-02-19_03h14.49.231,kallum_motion_pilot,2023.2.2,Win32,60.24096386,609fa72a56beea5595c2b60b,65d2b6c8f2eece985d8e374c,65d2b93f80b5775321cab95c,0.0628,0.0629,1,23,185,34,1,twoone,,,,,,,,,,,,,,,,,,,,,,,,,,,,,,,,,,,,,,,,,,,,,,,,,,,,,,,,,,,,,,,,,,,,,,,,,,,,,,,,,,,,,,,,,,,,,,,,,,,,,,,,,,,,,,,,,,,,,,,,,,,,,,,,,,,,,,,,,
,,609fa72a56beea595c2b60b,2024-02-19_03h14.49.231,kallum_motion_pilot,2023.2.2,Win32,60.24096386,609fa72a56beea5595c2b60b,65d2b6c8f2eece985d8e374c,65d2b93f80b5775321cab95c,0.0631,0.0631,1,24,186,3,1,twofour,,,,,,,,,,,,,,,,,,,,,,,,,,,,,,,,,,,,,,,,,,,,,,,,,,,,,,,,,,,,,,,,,,,,,,,,,,,,,,,,,,,,,,,,,,,,,,,,,,,,,,,,,,,,,,,,,,,,,,,,,,,,,,,,,,,,,,,,,
,,609fa72a56beea595c2b60b,2024-02-19_03h14.49.231,kallum_motion_pilot,2023.2.2,Win32,60.24096386,609fa72a56beea5595c2b60b,65d2b6c8f2eece985d8e374c,65d2b93f80b5775321cab95c,0.0633,0.0634,1,25,187,117,1,seveneight,,,,,,,,,,,,,,,,,,,,,,,,,,,,,,,,,,,,,,,,,,,,,,,,,,,,,,,,,,,,,,,,,,,,,,,,,,,,,,,,,,,,,,,,,,,,,,,,,,,,,,,,,,,,,,,,,,,,,,,,,,,,,,,,,,,,,,,,,
,,609fa72a56beea595c2b60b,2024-02-19_03h14.49.231,kallum_motion_pilot,2023.2.2,Win32,60.24096386,609fa72a56beea5595c2b60b,65d2b6c8f2eece985d8e374c,65d2b93f80b5775321cab95c,0.0634,0.0635,1,26,188,105,1,fiveseven,,,,,,,,,,,,,,,,,,,,,,,,,,,,,,,,,,,,,,,,,,,,,,,,,,,,,,,,,,,,,,,,,,,,,,,,,,,,,,,,,,,,,,,,,,,,,,,,,,,,,,,,,,,,,,,,,,,,,,,,,,,,,,,,,,,,,,,,,
,,609fa72a56beea595c2b60b,2024-02-19_03h14.49.231,kallum_motion_pilot,2023.2.2,Win32,60.24096386,609fa72a56beea5595c2b60b,65d2b6c8f2eece985d8e374c,65d2b93f80b5775321cab95c,0.0636,0.0637,1,27,189,99,1,sixeight,,,,,,,,,,,,,,,,,,,,,,,,,,,,,,,,,,,,,,,,,,,,,,,,,,,,,,,,,,,,,,,,,,,,,,,,,,,,,,,,,,,,,,,,,,,,,,,,,,,,,,,,,,,,,,,,,,,,,,,,,,,,,,,,,,,,,,,,,
,,609fa72a56beea595c2b60b,2024-02-19_03h14.49.231,kallum_motion_pilot,2023.2.2,Win32,60.24096386,609fa72a56beea5595c2b60b,65d2b6c8f2eece985d8e374c,65d2b93f80b5775321cab95c,0.0637,0.0638,1,28,190,79,1,eightseven,,,,,,,,,,,,,,,,,,,,,,,,,,,,,,,,,,,,,,,,,,,,,,,,,,,,,,,,,,,,,,,,,,,,,,,,,,,,,,,,,,,,,,,,,,,,,,,,,,,,,,,,,,,,,,,,,,,,,,,,,,,,,,,,,,,,,,,,,
,,609fa72a56beea595c2b60b,2024-02-19_03h14.49.231,kallum_motion_pilot,2023.2.2,Win32,60.24096386,609fa72a56beea5595c2b60b,65d2b6c8f2eece985d8e374c,65d2b93f80b5775321cab95c,0.064,0.0641,1,29,191,37,1,threefour,,,,,,,,,,,,,,,,,,,,,,,,,,,,,,,,,,,,,,,,,,,,,,,,,,,,,,,,,,,,,,,,,,,,,,,,,,,,,,,,,,,,,,,,,,,,,,,,,,,,,,,,,,,,,,,,,,,,,,,,,,,,,,,,,,,,,,,,,
,,609fa72a56beea595c2b60b,2024-02-19_03h14.49.231,kallum_motion_pilot,2023.2.2,Win32,60.24096386,609fa72a56beea5595c2b60b,65d2b6c8f2eece985d8e374c,65d2b93f80b5775321cab95c,0.0642,0.0643,1,30,192,144,1,fivesix,,,,,,,,,,,,,,,,,,,,,,,,,,,,,,,,,,,,,,,,,,,,,,,,,,,,,,,,,,,,,,,,,,,,,,,,,,,,,,,,,,,,,,,,,,,,,,,,,,,,,,,,,,,,,,,,,,,,,,,,,,,,,,,,,,,,,,,,,
,,609fa72a56beea595c2b60b,2024-02-19_03h14.49.231,kallum_motion_pilot,2023.2.2,Win32,60.24096386,609fa72a56beea5595c2b60b,65d2b6c8f2eece985d8e374c,65d2b93f80b5775321cab95c,0.0645,0.0646,1,31,193,70,1,fourtwo,,,,,,,,,,,,,,,,,,,,,,,,,,,,,,,,,,,,,,,,,,,,,,,,,,,,,,,,,,,,,,,,,,,,,,,,,,,,,,,,,,,,,,,,,,,,,,,,,,,,,,,,,,,,,,,,,,,,,,,,,,,,,,,,,,,,,,,,,
,,609fa72a56beea595c2b60b,2024-02-19_03h14.49.231,kallum_motion_pilot,2023.2.2,Win32,60.24096386,609fa72a56beea5595c2b60b,65d2b6c8f2eece985d8e374c,65d2b93f80b5775321cab95c,0.0648,0.065,1,32,194,95,1,eightseven,,,,,,,,,,,,,,,,,,,,,,,,,,,,,,,,,,,,,,,,,,,,,,,,,,,,,,,,,,,,,,,,,,,,,,,,,,,,,,,,,,,,,,,,,,,,,,,,,,,,,,,,,,,,,,,,,,,,,,,,,,,,,,,,,,,,,,,,,
,,609fa72a56beea595c2b60b,2024-02-19_03h14.49.231,kallum_motion_pilot,2023.2.2,Win32,60.24096386,609fa72a56beea5595c2b60b,65d2b6c8f2eece985d8e374c,65d2b93f80b5775321cab95c,0.0651,0.0653,1,33,195,55,1,fourthree,,,,,,,,,,,,,,,,,,,,,,,,,,,,,,,,,,,,,,,,,,,,,,,,,,,,,,,,,,,,,,,,,,,,,,,,,,,,,,,,,,,,,,,,,,,,,,,,,,,,,,,,,,,,,,,,,,,,,,,,,,,,,,,,,,,,,,,,,
,,609fa72a56beea595c2b60b,2024-02-19_03h14.49.231,kallum_motion_pilot,2023.2.2,Win32,60.24096386,609fa72a56beea5595c2b60b,65d2b6c8f2eece985d8e374c,65d2b93f80b5775321cab95c,0.0655,0.0656,1,34,196,62,1,fourtwo,,,,,,,,,,,,,,,,,,,,,,,,,,,,,,,,,,,,,,,,,,,,,,,,,,,,,,,,,,,,,,,,,,,,,,,,,,,,,,,,,,,,,,,,,,,,,,,,,,,,,,,,,,,,,,,,,,,,,,,,,,,,,,,,,,,,,,,,,
,,609fa72a56beea595c2b60b,2024-02-19_03h14.49.231,kallum_motion_pilot,2023.2.2,Win32,60.24096386,609fa72a56beea5595c2b60b,65d2b6c8f2eece985d8e374c,65d2b93f80b5775321cab95c,0.0658,0.0659,1,35,197,118,1,eightsix,,,,,,,,,,,,,,,,,,,,,,,,,,,,,,,,,,,,,,,,,,,,,,,,,,,,,,,,,,,,,,,,,,,,,,,,,,,,,,,,,,,,,,,,,,,,,,,,,,,,,,,,,,,,,,,,,,,,,,,,,,,,,,,,,,,,,,,,,
,,609fa72a56beea595c2b60b,2024-02-19_03h14.49.231,kallum_motion_pilot,2023.2.2,Win32,60.24096386,609fa72a56beea5595c2b60b,65d2b6c8f2eece985d8e374c,65d2b93f80b5775321cab95c,0.0663,0.0664,1,36,198,151,1,eightseven,,,,,,,,,,,,,,,,,,,,,,,,,,,,,,,,,,,,,,,,,,,,,,,,,,,,,,,,,,,,,,,,,,,,,,,,,,,,,,,,,,,,,,,,,,,,,,,,,,,,,,,,,,,,,,,,,,,,,,,,,,,,,,,,,,,,,,,,,
,,609fa72a56beea595c2b60b,2024-02-19_03h14.49.231,kallum_motion_pilot,2023.2.2,Win32,60.24096386,609fa72a56beea5595c2b60b,65d2b6c8f2eece985d8e374c,65d2b93f80b5775321cab95c,0.0666,0.0667,1,37,199,81,1,fiveseven,,,,,,,,,,,,,,,,,,,,,,,,,,,,,,,,,,,,,,,,,,,,,,,,,,,,,,,,,,,,,,,,,,,,,,,,,,,,,,,,,,,,,,,,,,,,,,,,,,,,,,,,,,,,,,,,,,,,,,,,,,,,,,,,,,,,,,,,,
,,609fa72a56beea595c2b60b,2024-02-19_03h14.49.231,kallum_motion_pilot,2023.2.2,Win32,60.24096386,609fa72a56beea5595c2b60b,65d2b6c8f2eece985d8e374c,65d2b93f80b5775321cab95c,0.0669,0.067,1,38,200,74,1,twoone,,,,,,,,,,,,,,,,,,,,,,,,,,,,,,,,,,,,,,,,,,,,,,,,,,,,,,,,,,,,,,,,,,,,,,,,,,,,,,,,,,,,,,,,,,,,,,,,,,,,,,,,,,,,,,,,,,,,,,,,,,,,,,,,,,,,,,,,,
,,609fa72a56beea595c2b60b,2024-02-19_03h14.49.231,kallum_motion_pilot,2023.2.2,Win32,60.24096386,609fa72a56beea5595c2b60b,65d2b6c8f2eece985d8e374c,65d2b93f80b5775321cab95c,0.0672,0.0672,1,39,201,52,1,threeone,,,,,,,,,,,,,,,,,,,,,,,,,,,,,,,,,,,,,,,,,,,,,,,,,,,,,,,,,,,,,,,,,,,,,,,,,,,,,,,,,,,,,,,,,,,,,,,,,,,,,,,,,,,,,,,,,,,,,,,,,,,,,,,,,,,,,,,,,
,,609fa72a56beea595c2b60b,2024-02-19_03h14.49.231,kallum_motion_pilot,2023.2.2,Win32,60.24096386,609fa72a56beea5595c2b60b,65d2b6c8f2eece985d8e374c,65d2b93f80b5775321cab95c,0.0674,0.0675,1,40,202,107,1,sixeight,,,,,,,,,,,,,,,,,,,,,,,,,,,,,,,,,,,,,,,,,,,,,,,,,,,,,,,,,,,,,,,,,,,,,,,,,,,,,,,,,,,,,,,,,,,,,,,,,,,,,,,,,,,,,,,,,,,,,,,,,,,,,,,,,,,,,,,,,
,,609fa72a56beea595c2b60b,2024-02-19_03h14.49.231,kallum_motion_pilot,2023.2.2,Win32,60.24096386,609fa72a56beea5595c2b60b,65d2b6c8f2eece985d8e374c,65d2b93f80b5775321cab95c,0.0676,0.0677,1,41,203,147,1,sixeight,,,,,,,,,,,,,,,,,,,,,,,,,,,,,,,,,,,,,,,,,,,,,,,,,,,,,,,,,,,,,,,,,,,,,,,,,,,,,,,,,,,,,,,,,,,,,,,,,,,,,,,,,,,,,,,,,,,,,,,,,,,,,,,,,,,,,,,,,
,,609fa72a56beea595c2b60b,2024-02-19_03h14.49.231,kallum_motion_pilot,2023.2.2,Win32,60.24096386,609fa72a56beea5595c2b60b,65d2b6c8f2eece985d8e374c,65d2b93f80b5775321cab95c,0.0679,0.0679,1,42,204,56,1,onetwo,,,,,,,,,,,,,,,,,,,,,,,,,,,,,,,,,,,,,,,,,,,,,,,,,,,,,,,,,,,,,,,,,,,,,,,,,,,,,,,,,,,,,,,,,,,,,,,,,,,,,,,,,,,,,,,,,,,,,,,,,,,,,,,,,,,,,,,,,
,,609fa72a56beea595c2b60b,2024-02-19_03h14.49.231,kallum_motion_pilot,2023.2.2,Win32,60.24096386,609fa72a56beea5595c2b60b,65d2b6c8f2eece985d8e374c,65d2b93f80b5775321cab95c,0.0681,0.0681,1,43,205,24,1,onetwo,,,,,,,,,,,,,,,,,,,,,,,,,,,,,,,,,,,,,,,,,,,,,,,,,,,,,,,,,,,,,,,,,,,,,,,,,,,,,,,,,,,,,,,,,,,,,,,,,,,,,,,,,,,,,,,,,,,,,,,,,,,,,,,,,,,,,,,,,
,,609fa72a56beea595c2b60b,2024-02-19_03h14.49.231,kallum_motion_pilot,2023.2.2,Win32,60.24096386,609fa72a56beea5595c2b60b,65d2b6c8f2eece985d8e374c,65d2b93f80b5775321cab95c,0.0682,0.0683,1,44,206,13,1,threefour,,,,,,,,,,,,,,,,,,,,,,,,,,,,,,,,,,,,,,,,,,,,,,,,,,,,,,,,,,,,,,,,,,,,,,,,,,,,,,,,,,,,,,,,,,,,,,,,,,,,,,,,,,,,,,,,,,,,,,,,,,,,,,,,,,,,,,,,,
,,609fa72a56beea595c2b60b,2024-02-19_03h14.49.231,kallum_motion_pilot,2023.2.2,Win32,60.24096386,609fa72a56beea5595c2b60b,65d2b6c8f2eece985d8e374c,65d2b93f80b5775321cab95c,0.0683,0.0684,1,45,207,11,1,twofour,,,,,,,,,,,,,,,,,,,,,,,,,,,,,,,,,,,,,,,,,,,,,,,,,,,,,,,,,,,,,,,,,,,,,,,,,,,,,,,,,,,,,,,,,,,,,,,,,,,,,,,,,,,,,,,,,,,,,,,,,,,,,,,,,,,,,,,,,
,,609fa72a56beea595c2b60b,2024-02-19_03h14.49.231,kallum_motion_pilot,2023.2.2,Win32,60.24096386,609fa72a56beea5595c2b60b,65d2b6c8f2eece985d8e374c,65d2b93f80b5775321cab95c,0.0685,0.0686,1,46,208,66,1,twoone,,,,,,,,,,,,,,,,,,,,,,,,,,,,,,,,,,,,,,,,,,,,,,,,,,,,,,,,,,,,,,,,,,,,,,,,,,,,,,,,,,,,,,,,,,,,,,,,,,,,,,,,,,,,,,,,,,,,,,,,,,,,,,,,,,,,,,,,,
,,609fa72a56beea595c2b60b,2024-02-19_03h14.49.231,kallum_motion_pilot,2023.2.2,Win32,60.24096386,609fa72a56beea5595c2b60b,65d2b6c8f2eece985d8e374c,65d2b93f80b5775321cab95c,0.0687,0.0687,1,47,209,25,1,onethree,,,,,,,,,,,,,,,,,,,,,,,,,,,,,,,,,,,,,,,,,,,,,,,,,,,,,,,,,,,,,,,,,,,,,,,,,,,,,,,,,,,,,,,,,,,,,,,,,,,,,,,,,,,,,,,,,,,,,,,,,,,,,,,,,,,,,,,,,
,,609fa72a56beea595c2b60b,2024-02-19_03h14.49.231,kallum_motion_pilot,2023.2.2,Win32,60.24096386,609fa72a56beea5595c2b60b,65d2b6c8f2eece985d8e374c,65d2b93f80b5775321cab95c,0.0688,0.0688,1,48,210,85,1,seveneight,,,,,,,,,,,,,,,,,,,,,,,,,,,,,,,,,,,,,,,,,,,,,,,,,,,,,,,,,,,,,,,,,,,,,,,,,,,,,,,,,,,,,,,,,,,,,,,,,,,,,,,,,,,,,,,,,,,,,,,,,,,,,,,,,,,,,,,,,
,,609fa72a56beea595c2b60b,2024-02-19_03h14.49.231,kallum_motion_pilot,2023.2.2,Win32,60.24096386,609fa72a56beea5595c2b60b,65d2b6c8f2eece985d8e374c,65d2b93f80b5775321cab95c,0.069,0.069,1,49,211,110,1,eightsix,,,,,,,,,,,,,,,,,,,,,,,,,,,,,,,,,,,,,,,,,,,,,,,,,,,,,,,,,,,,,,,,,,,,,,,,,,,,,,,,,,,,,,,,,,,,,,,,,,,,,,,,,,,,,,,,,,,,,,,,,,,,,,,,,,,,,,,,,
,,609fa72a56beea595c2b60b,2024-02-19_03h14.49.231,kallum_motion_pilot,2023.2.2,Win32,60.24096386,609fa72a56beea5595c2b60b,65d2b6c8f2eece985d8e374c,65d2b93f80b5775321cab95c,0.0691,0.0691,1,50,212,21,1,threefour,,,,,,,,,,,,,,,,,,,,,,,,,,,,,,,,,,,,,,,,,,,,,,,,,,,,,,,,,,,,,,,,,,,,,,,,,,,,,,,,,,,,,,,,,,,,,,,,,,,,,,,,,,,,,,,,,,,,,,,,,,,,,,,,,,,,,,,,,
,,609fa72a56beea595c2b60b,2024-02-19_03h14.49.231,kallum_motion_pilot,2023.2.2,Win32,60.24096386,609fa72a56beea5595c2b60b,65d2b6c8f2eece985d8e374c,65d2b93f80b5775321cab95c,0.0692,0.0693,1,51,213,30,1,fourtwo,,,,,,,,,,,,,,,,,,,,,,,,,,,,,,,,,,,,,,,,,,,,,,,,,,,,,,,,,,,,,,,,,,,,,,,,,,,,,,,,,,,,,,,,,,,,,,,,,,,,,,,,,,,,,,,,,,,,,,,,,,,,,,,,,,,,,,,,,
,,609fa72a56beea595c2b60b,2024-02-19_03h14.49.231,kallum_motion_pilot,2023.2.2,Win32,60.24096386,609fa72a56beea5595c2b60b,65d2b6c8f2eece985d8e374c,65d2b93f80b5775321cab95c,0.0693,0.0694,1,52,214,58,1,twoone,,,,,,,,,,,,,,,,,,,,,,,,,,,,,,,,,,,,,,,,,,,,,,,,,,,,,,,,,,,,,,,,,,,,,,,,,,,,,,,,,,,,,,,,,,,,,,,,,,,,,,,,,,,,,,,,,,,,,,,,,,,,,,,,,,,,,,,,,
,,609fa72a56beea595c2b60b,2024-02-19_03h14.49.231,kallum_motion_pilot,2023.2.2,Win32,60.24096386,609fa72a56beea5595c2b60b,65d2b6c8f2eece985d8e374c,65d2b93f80b5775321cab95c,0.0695,0.0696,1,53,215,114,1,sixfive,,,,,,,,,,,,,,,,,,,,,,,,,,,,,,,,,,,,,,,,,,,,,,,,,,,,,,,,,,,,,,,,,,,,,,,,,,,,,,,,,,,,,,,,,,,,,,,,,,,,,,,,,,,,,,,,,,,,,,,,,,,,,,,,,,,,,,,,,
,,609fa72a56beea595c2b60b,2024-02-19_03h14.49.231,kallum_motion_pilot,2023.2.2,Win32,60.24096386,609fa72a56beea5595c2b60b,65d2b6c8f2eece985d8e374c,65d2b93f80b5775321cab95c,0.0697,0.0698,1,54,216,20,1,threeone,,,,,,,,,,,,,,,,,,,,,,,,,,,,,,,,,,,,,,,,,,,,,,,,,,,,,,,,,,,,,,,,,,,,,,,,,,,,,,,,,,,,,,,,,,,,,,,,,,,,,,,,,,,,,,,,,,,,,,,,,,,,,,,,,,,,,,,,,
,,609fa72a56beea595c2b60b,2024-02-19_03h14.49.231,kallum_motion_pilot,2023.2.2,Win32,60.24096386,609fa72a56beea5595c2b60b,65d2b6c8f2eece985d8e374c,65d2b93f80b5775321cab95c,0.0698,0.0699,1,55,217,49,1,onethree,,,,,,,,,,,,,,,,,,,,,,,,,,,,,,,,,,,,,,,,,,,,,,,,,,,,,,,,,,,,,,,,,,,,,,,,,,,,,,,,,,,,,,,,,,,,,,,,,,,,,,,,,,,,,,,,,,,,,,,,,,,,,,,,,,,,,,,,,
,,609fa72a56beea595c2b60b,2024-02-19_03h14.49.231,kallum_motion_pilot,2023.2.2,Win32,60.24096386,609fa72a56beea5595c2b60b,65d2b6c8f2eece985d8e374c,65d2b93f80b5775321cab95c,0.07,0.07,1,56,218,51,1,twofour,,,,,,,,,,,,,,,,,,,,,,,,,,,,,,,,,,,,,,,,,,,,,,,,,,,,,,,,,,,,,,,,,,,,,,,,,,,,,,,,,,,,,,,,,,,,,,,,,,,,,,,,,,,,,,,,,,,,,,,,,,,,,,,,,,,,,,,,,
,,609fa72a56beea595c2b60b,2024-02-19_03h14.49.231,kallum_motion_pilot,2023.2.2,Win32,60.24096386,609fa72a56beea5595c2b60b,65d2b6c8f2eece985d8e374c,65d2b93f80b5775321cab95c,0.0701,0.0701,1,57,219,124,1,sevenfive,,,,,,,,,,,,,,,,,,,,,,,,,,,,,,,,,,,,,,,,,,,,,,,,,,,,,,,,,,,,,,,,,,,,,,,,,,,,,,,,,,,,,,,,,,,,,,,,,,,,,,,,,,,,,,,,,,,,,,,,,,,,,,,,,,,,,,,,,
,,609fa72a56beea595c2b60b,2024-02-19_03h14.49.231,kallum_motion_pilot,2023.2.2,Win32,60.24096386,609fa72a56beea5595c2b60b,65d2b6c8f2eece985d8e374c,65d2b93f80b5775321cab95c,0.0703,0.0703,1,58,220,97,1,fiveseven,,,,,,,,,,,,,,,,,,,,,,,,,,,,,,,,,,,,,,,,,,,,,,,,,,,,,,,,,,,,,,,,,,,,,,,,,,,,,,,,,,,,,,,,,,,,,,,,,,,,,,,,,,,,,,,,,,,,,,,,,,,,,,,,,,,,,,,,,
,,609fa72a56beea595c2b60b,2024-02-19_03h14.49.231,kallum_motion_pilot,2023.2.2,Win32,60.24096386,609fa72a56beea5595c2b60b,65d2b6c8f2eece985d8e374c,65d2b93f80b5775321cab95c,0.0704,0.0704,1,59,221,33,1,onethree,,,,,,,,,,,,,,,,,,,,,,,,,,,,,,,,,,,,,,,,,,,,,,,,,,,,,,,,,,,,,,,,,,,,,,,,,,,,,,,,,,,,,,,,,,,,,,,,,,,,,,,,,,,,,,,,,,,,,,,,,,,,,,,,,,,,,,,,,
,,609fa72a56beea595c2b60b,2024-02-19_03h14.49.231,kallum_motion_pilot,2023.2.2,Win32,60.24096386,609fa72a56beea5595c2b60b,65d2b6c8f2eece985d8e374c,65d2b93f80b5775321cab95c,0.0705,0.0706,1,60,222,2,1,twoone,,,,,,,,,,,,,,,,,,,,,,,,,,,,,,,,,,,,,,,,,,,,,,,,,,,,,,,,,,,,,,,,,,,,,,,,,,,,,,,,,,,,,,,,,,,,,,,,,,,,,,,,,,,,,,,,,,,,,,,,,,,,,,,,,,,,,,,,,
,,609fa72a56beea595c2b60b,2024-02-19_03h14.49.231,kallum_motion_pilot,2023.2.2,Win32,60.24096386,609fa72a56beea5595c2b60b,65d2b6c8f2eece985d8e374c,65d2b93f80b5775321cab95c,0.0706,0.0707,1,61,223,135,1,eightseven,,,,,,,,,,,,,,,,,,,,,,,,,,,,,,,,,,,,,,,,,,,,,,,,,,,,,,,,,,,,,,,,,,,,,,,,,,,,,,,,,,,,,,,,,,,,,,,,,,,,,,,,,,,,,,,,,,,,,,,,,,,,,,,,,,,,,,,,,
,,609fa72a56beea595c2b60b,2024-02-19_03h14.49.231,kallum_motion_pilot,2023.2.2,Win32,60.24096386,609fa72a56beea5595c2b60b,65d2b6c8f2eece985d8e374c,65d2b93f80b5775321cab95c,0.0708,0.0709,1,62,224,133,1,seveneight,,,,,,,,,,,,,,,,,,,,,,,,,,,,,,,,,,,,,,,,,,,,,,,,,,,,,,,,,,,,,,,,,,,,,,,,,,,,,,,,,,,,,,,,,,,,,,,,,,,,,,,,,,,,,,,,,,,,,,,,,,,,,,,,,,,,,,,,,
,,609fa72a56beea595c2b60b,2024-02-19_03h14.49.231,kallum_motion_pilot,2023.2.2,Win32,60.24096386,609fa72a56beea5595c2b60b,65d2b6c8f2eece985d8e374c,65d2b93f80b5775321cab95c,0.071,0.071,1,63,225,16,1,onetwo,,,,,,,,,,,,,,,,,,,,,,,,,,,,,,,,,,,,,,,,,,,,,,,,,,,,,,,,,,,,,,,,,,,,,,,,,,,,,,,,,,,,,,,,,,,,,,,,,,,,,,,,,,,,,,,,,,,,,,,,,,,,,,,,,,,,,,,,,
,,609fa72a56beea595c2b60b,2024-02-19_03h14.49.231,kallum_motion_pilot,2023.2.2,Win32,60.24096386,609fa72a56beea5595c2b60b,65d2b6c8f2eece985d8e374c,65d2b93f80b5775321cab95c,0.0712,0.0712,1,64,226,40,1,onetwo,,,,,,,,,,,,,,,,,,,,,,,,,,,,,,,,,,,,,,,,,,,,,,,,,,,,,,,,,,,,,,,,,,,,,,,,,,,,,,,,,,,,,,,,,,,,,,,,,,,,,,,,,,,,,,,,,,,,,,,,,,,,,,,,,,,,,,,,,
,,609fa72a56beea595c2b60b,2024-02-19_03h14.49.231,kallum_motion_pilot,2023.2.2,Win32,60.24096386,609fa72a56beea5595c2b60b,65d2b6c8f2eece985d8e374c,65d2b93f80b5775321cab95c,0.0713,0.0714,1,65,227,157,1,seveneight,,,,,,,,,,,,,,,,,,,,,,,,,,,,,,,,,,,,,,,,,,,,,,,,,,,,,,,,,,,,,,,,,,,,,,,,,,,,,,,,,,,,,,,,,,,,,,,,,,,,,,,,,,,,,,,,,,,,,,,,,,,,,,,,,,,,,,,,,
,,609fa72a56beea595c2b60b,2024-02-19_03h14.49.231,kallum_motion_pilot,2023.2.2,Win32,60.24096386,609fa72a56beea5595c2b60b,65d2b6c8f2eece985d8e374c,65d2b93f80b5775321cab95c,0.0714,0.0714,1,66,228,48,1,onetwo,,,,,,,,,,,,,,,,,,,,,,,,,,,,,,,,,,,,,,,,,,,,,,,,,,,,,,,,,,,,,,,,,,,,,,,,,,,,,,,,,,,,,,,,,,,,,,,,,,,,,,,,,,,,,,,,,,,,,,,,,,,,,,,,,,,,,,,,,
,,609fa72a56beea595c2b60b,2024-02-19_03h14.49.231,kallum_motion_pilot,2023.2.2,Win32,60.24096386,609fa72a56beea5595c2b60b,65d2b6c8f2eece985d8e374c,65d2b93f80b5775321cab95c,0.0715,0.0716,1,67,229,23,1,fourthree,,,,,,,,,,,,,,,,,,,,,,,,,,,,,,,,,,,,,,,,,,,,,,,,,,,,,,,,,,,,,,,,,,,,,,,,,,,,,,,,,,,,,,,,,,,,,,,,,,,,,,,,,,,,,,,,,,,,,,,,,,,,,,,,,,,,,,,,,
,,609fa72a56beea595c2b60b,2024-02-19_03h14.49.231,kallum_motion_pilot,2023.2.2,Win32,60.24096386,609fa72a56beea5595c2b60b,65d2b6c8f2eece985d8e374c,65d2b93f80b5775321cab95c,0.0717,0.0717,1,68,230,127,1,eightseven,,,,,,,,,,,,,,,,,,,,,,,,,,,,,,,,,,,,,,,,,,,,,,,,,,,,,,,,,,,,,,,,,,,,,,,,,,,,,,,,,,,,,,,,,,,,,,,,,,,,,,,,,,,,,,,,,,,,,,,,,,,,,,,,,,,,,,,,,
,,609fa72a56beea595c2b60b,2024-02-19_03h14.49.231,kallum_motion_pilot,2023.2.2,Win32,60.24096386,609fa72a56beea5595c2b60b,65d2b6c8f2eece985d8e374c,65d2b93f80b5775321cab95c,0.0719,0.0719,1,69,231,116,1,sevenfive,,,,,,,,,,,,,,,,,,,,,,,,,,,,,,,,,,,,,,,,,,,,,,,,,,,,,,,,,,,,,,,,,,,,,,,,,,,,,,,,,,,,,,,,,,,,,,,,,,,,,,,,,,,,,,,,,,,,,,,,,,,,,,,,,,,,,,,,,
,,609fa72a56beea595c2b60b,2024-02-19_03h14.49.231,kallum_motion_pilot,2023.2.2,Win32,60.24096386,609fa72a56beea5595c2b60b,65d2b6c8f2eece985d8e374c,65d2b93f80b5775321cab95c,0.0721,0.0721,1,70,232,47,1,fourthree,,,,,,,,,,,,,,,,,,,,,,,,,,,,,,,,,,,,,,,,,,,,,,,,,,,,,,,,,,,,,,,,,,,,,,,,,,,,,,,,,,,,,,,,,,,,,,,,,,,,,,,,,,,,,,,,,,,,,,,,,,,,,,,,,,,,,,,,,
,,609fa72a56beea595c2b60b,2024-02-19_03h14.49.231,kallum_motion_pilot,2023.2.2,Win32,60.24096386,609fa72a56beea5595c2b60b,65d2b6c8f2eece985d8e374c,65d2b93f80b5775321cab95c,0.0722,0.0723,1,71,233,94,1,eightsix,,,,,,,,,,,,,,,,,,,,,,,,,,,,,,,,,,,,,,,,,,,,,,,,,,,,,,,,,,,,,,,,,,,,,,,,,,,,,,,,,,,,,,,,,,,,,,,,,,,,,,,,,,,,,,,,,,,,,,,,,,,,,,,,,,,,,,,,,
,,609fa72a56beea595c2b60b,2024-02-19_03h14.49.231,kallum_motion_pilot,2023.2.2,Win32,60.24096386,609fa72a56beea5595c2b60b,65d2b6c8f2eece985d8e374c,65d2b93f80b5775321cab95c,0.0723,0.0724,1,72,234,73,1,onethree,,,,,,,,,,,,,,,,,,,,,,,,,,,,,,,,,,,,,,,,,,,,,,,,,,,,,,,,,,,,,,,,,,,,,,,,,,,,,,,,,,,,,,,,,,,,,,,,,,,,,,,,,,,,,,,,,,,,,,,,,,,,,,,,,,,,,,,,,
,,609fa72a56beea595c2b60b,2024-02-19_03h14.49.231,kallum_motion_pilot,2023.2.2,Win32,60.24096386,609fa72a56beea5595c2b60b,65d2b6c8f2eece985d8e374c,65d2b93f80b5775321cab95c,0.0725,0.0726,1,73,235,72,1,onetwo,,,,,,,,,,,,,,,,,,,,,,,,,,,,,,,,,,,,,,,,,,,,,,,,,,,,,,,,,,,,,,,,,,,,,,,,,,,,,,,,,,,,,,,,,,,,,,,,,,,,,,,,,,,,,,,,,,,,,,,,,,,,,,,,,,,,,,,,,
,,609fa72a56beea595c2b60b,2024-02-19_03h14.49.231,kallum_motion_pilot,2023.2.2,Win32,60.24096386,609fa72a56beea5595c2b60b,65d2b6c8f2eece985d8e374c,65d2b93f80b5775321cab95c,0.0728,0.073,1,74,236,113,1,fiveseven,,,,,,,,,,,,,,,,,,,,,,,,,,,,,,,,,,,,,,,,,,,,,,,,,,,,,,,,,,,,,,,,,,,,,,,,,,,,,,,,,,,,,,,,,,,,,,,,,,,,,,,,,,,,,,,,,,,,,,,,,,,,,,,,,,,,,,,,,
,,609fa72a56beea595c2b60b,2024-02-19_03h14.49.231,kallum_motion_pilot,2023.2.2,Win32,60.24096386,609fa72a56beea5595c2b60b,65d2b6c8f2eece985d8e374c,65d2b93f80b5775321cab95c,0.0731,0.0732,1,75,237,131,1,sixeight,,,,,,,,,,,,,,,,,,,,,,,,,,,,,,,,,,,,,,,,,,,,,,,,,,,,,,,,,,,,,,,,,,,,,,,,,,,,,,,,,,,,,,,,,,,,,,,,,,,,,,,,,,,,,,,,,,,,,,,,,,,,,,,,,,,,,,,,,
,,609fa72a56beea595c2b60b,2024-02-19_03h14.49.231,kallum_motion_pilot,2023.2.2,Win32,60.24096386,609fa72a56beea5595c2b60b,65d2b6c8f2eece985d8e374c,65d2b93f80b5775321cab95c,0.0734,0.0734,1,76,238,69,1,threefour,,,,,,,,,,,,,,,,,,,,,,,,,,,,,,,,,,,,,,,,,,,,,,,,,,,,,,,,,,,,,,,,,,,,,,,,,,,,,,,,,,,,,,,,,,,,,,,,,,,,,,,,,,,,,,,,,,,,,,,,,,,,,,,,,,,,,,,,,
,,609fa72a56beea595c2b60b,2024-02-19_03h14.49.231,kallum_motion_pilot,2023.2.2,Win32,60.24096386,609fa72a56beea5595c2b60b,65d2b6c8f2eece985d8e374c,65d2b93f80b5775321cab95c,0.0735,0.0737,1,77,239,140,1,sevenfive,,,,,,,,,,,,,,,,,,,,,,,,,,,,,,,,,,,,,,,,,,,,,,,,,,,,,,,,,,,,,,,,,,,,,,,,,,,,,,,,,,,,,,,,,,,,,,,,,,,,,,,,,,,,,,,,,,,,,,,,,,,,,,,,,,,,,,,,,
,,609fa72a56beea595c2b60b,2024-02-19_03h14.49.231,kallum_motion_pilot,2023.2.2,Win32,60.24096386,609fa72a56beea5595c2b60b,65d2b6c8f2eece985d8e374c,65d2b93f80b5775321cab95c,0.074,0.0741,1,78,240,5,1,threefour,,,,,,,,,,,,,,,,,,,,,,,,,,,,,,,,,,,,,,,,,,,,,,,,,,,,,,,,,,,,,,,,,,,,,,,,,,,,,,,,,,,,,,,,,,,,,,,,,,,,,,,,,,,,,,,,,,,,,,,,,,,,,,,,,,,,,,,,,
,,609fa72a56beea595c2b60b,2024-02-19_03h14.49.231,kallum_motion_pilot,2023.2.2,Win32,60.24096386,609fa72a56beea5595c2b60b,65d2b6c8f2eece985d8e374c,65d2b93f80b5775321cab95c,0.0743,0.0746,1,79,241,45,1,threefour,,,,,,,,,,,,,,,,,,,,,,,,,,,,,,,,,,,,,,,,,,,,,,,,,,,,,,,,,,,,,,,,,,,,,,,,,,,,,,,,,,,,,,,,,,,,,,,,,,,,,,,,,,,,,,,,,,,,,,,,,,,,,,,,,,,,,,,,,
,,609fa72a56beea595c2b60b,2024-02-19_03h14.49.231,kallum_motion_pilot,2023.2.2,Win32,60.24096386,609fa72a56beea5595c2b60b,65d2b6c8f2eece985d8e374c,65d2b93f80b5775321cab95c,0.075,0.0752,1,80,242,96,1,fivesix,,,,,,,,,,,,,,,,,,,,,,,,,,,,,,,,,,,,,,,,,,,,,,,,,,,,,,,,,,,,,,,,,,,,,,,,,,,,,,,,,,,,,,,,,,,,,,,,,,,,,,,,,,,,,,,,,,,,,,,,,,,,,,,,,,,,,,,,,
,,609fa72a56beea595c2b60b,2024-02-19_03h14.49.231,kallum_motion_pilot,2023.2.2,Win32,60.24096386,609fa72a56beea5595c2b60b,65d2b6c8f2eece985d8e374c,65d2b93f80b5775321cab95c,0.0754,0.0756,1,81,243,53,1,threefour,,,,,,,,,,,,,,,,,,,,,,,,,,,,,,,,,,,,,,,,,,,,,,,,,,,,,,,,,,,,,,,,,,,,,,,,,,,,,,,,,,,,,,,,,,,,,,,,,,,,,,,,,,,,,,,,,,,,,,,,,,,,,,,,,,,,,,,,,
,,609fa72a56beea595c2b60b,2024-02-19_03h14.49.231,kallum_motion_pilot,2023.2.2,Win32,60.24096386,609fa72a56beea5595c2b60b,65d2b6c8f2eece985d8e374c,65d2b93f80b5775321cab95c,0.0756,0.0757,1,82,244,22,1,fourtwo,,,,,,,,,,,,,,,,,,,,,,,,,,,,,,,,,,,,,,,,,,,,,,,,,,,,,,,,,,,,,,,,,,,,,,,,,,,,,,,,,,,,,,,,,,,,,,,,,,,,,,,,,,,,,,,,,,,,,,,,,,,,,,,,,,,,,,,,,
,,609fa72a56beea595c2b60b,2024-02-19_03h14.49.231,kallum_motion_pilot,2023.2.2,Win32,60.24096386,609fa72a56beea5595c2b60b,65d2b6c8f2eece985d8e374c,65d2b93f80b5775321cab95c,0.0758,0.0759,1,83,245,41,1,onethree,,,,,,,,,,,,,,,,,,,,,,,,,,,,,,,,,,,,,,,,,,,,,,,,,,,,,,,,,,,,,,,,,,,,,,,,,,,,,,,,,,,,,,,,,,,,,,,,,,,,,,,,,,,,,,,,,,,,,,,,,,,,,,,,,,,,,,,,,
,,609fa72a56beea595c2b60b,2024-02-19_03h14.49.231,kallum_motion_pilot,2023.2.2,Win32,60.24096386,609fa72a56beea5595c2b60b,65d2b6c8f2eece985d8e374c,65d2b93f80b5775321cab95c,0.076,0.0761,1,84,246,60,1,threeone,,,,,,,,,,,,,,,,,,,,,,,,,,,,,,,,,,,,,,,,,,,,,,,,,,,,,,,,,,,,,,,,,,,,,,,,,,,,,,,,,,,,,,,,,,,,,,,,,,,,,,,,,,,,,,,,,,,,,,,,,,,,,,,,,,,,,,,,,
,,609fa72a56beea595c2b60b,2024-02-19_03h14.49.231,kallum_motion_pilot,2023.2.2,Win32,60.24096386,609fa72a56beea5595c2b60b,65d2b6c8f2eece985d8e374c,65d2b93f80b5775321cab95c,0.0762,0.0762,1,85,247,77,1,threefour,,,,,,,,,,,,,,,,,,,,,,,,,,,,,,,,,,,,,,,,,,,,,,,,,,,,,,,,,,,,,,,,,,,,,,,,,,,,,,,,,,,,,,,,,,,,,,,,,,,,,,,,,,,,,,,,,,,,,,,,,,,,,,,,,,,,,,,,,
,,609fa72a56beea595c2b60b,2024-02-19_03h14.49.231,kallum_motion_pilot,2023.2.2,Win32,60.24096386,609fa72a56beea5595c2b60b,65d2b6c8f2eece985d8e374c,65d2b93f80b5775321cab95c,0.0763,0.0765,1,86,248,76,1,threeone,,,,,,,,,,,,,,,,,,,,,,,,,,,,,,,,,,,,,,,,,,,,,,,,,,,,,,,,,,,,,,,,,,,,,,,,,,,,,,,,,,,,,,,,,,,,,,,,,,,,,,,,,,,,,,,,,,,,,,,,,,,,,,,,,,,,,,,,,
,,609fa72a56beea595c2b60b,2024-02-19_03h14.49.231,kallum_motion_pilot,2023.2.2,Win32,60.24096386,609fa72a56beea5595c2b60b,65d2b6c8f2eece985d8e374c,65d2b93f80b5775321cab95c,0.0765,0.0767,1,87,249,143,1,eightseven,,,,,,,,,,,,,,,,,,,,,,,,,,,,,,,,,,,,,,,,,,,,,,,,,,,,,,,,,,,,,,,,,,,,,,,,,,,,,,,,,,,,,,,,,,,,,,,,,,,,,,,,,,,,,,,,,,,,,,,,,,,,,,,,,,,,,,,,,
,,609fa72a56beea595c2b60b,2024-02-19_03h14.49.231,kallum_motion_pilot,2023.2.2,Win32,60.24096386,609fa72a56beea5595c2b60b,65d2b6c8f2eece985d8e374c,65d2b93f80b5775321cab95c,0.0767,0.0768,1,88,250,134,1,eightsix,,,,,,,,,,,,,,,,,,,,,,,,,,,,,,,,,,,,,,,,,,,,,,,,,,,,,,,,,,,,,,,,,,,,,,,,,,,,,,,,,,,,,,,,,,,,,,,,,,,,,,,,,,,,,,,,,,,,,,,,,,,,,,,,,,,,,,,,,
,,609fa72a56beea595c2b60b,2024-02-19_03h14.49.231,kallum_motion_pilot,2023.2.2,Win32,60.24096386,609fa72a56beea5595c2b60b,65d2b6c8f2eece985d8e374c,65d2b93f80b5775321cab95c,0.0768,0.0769,1,89,251,67,1,twofour,,,,,,,,,,,,,,,,,,,,,,,,,,,,,,,,,,,,,,,,,,,,,,,,,,,,,,,,,,,,,,,,,,,,,,,,,,,,,,,,,,,,,,,,,,,,,,,,,,,,,,,,,,,,,,,,,,,,,,,,,,,,,,,,,,,,,,,,,
,,609fa72a56beea595c2b60b,2024-02-19_03h14.49.231,kallum_motion_pilot,2023.2.2,Win32,60.24096386,609fa72a56beea5595c2b60b,65d2b6c8f2eece985d8e374c,65d2b93f80b5775321cab95c,0.0771,0.0771,1,90,252,153,1,fiveseven,,,,,,,,,,,,,,,,,,,,,,,,,,,,,,,,,,,,,,,,,,,,,,,,,,,,,,,,,,,,,,,,,,,,,,,,,,,,,,,,,,,,,,,,,,,,,,,,,,,,,,,,,,,,,,,,,,,,,,,,,,,,,,,,,,,,,,,,,
,,609fa72a56beea595c2b60b,2024-02-19_03h14.49.231,kallum_motion_pilot,2023.2.2,Win32,60.24096386,609fa72a56beea5595c2b60b,65d2b6c8f2eece985d8e374c,65d2b93f80b5775321cab95c,0.0772,0.0773,1,91,253,61,1,threefour,,,,,,,,,,,,,,,,,,,,,,,,,,,,,,,,,,,,,,,,,,,,,,,,,,,,,,,,,,,,,,,,,,,,,,,,,,,,,,,,,,,,,,,,,,,,,,,,,,,,,,,,,,,,,,,,,,,,,,,,,,,,,,,,,,,,,,,,,
,,609fa72a56beea595c2b60b,2024-02-19_03h14.49.231,kallum_motion_pilot,2023.2.2,Win32,60.24096386,609fa72a56beea5595c2b60b,65d2b6c8f2eece985d8e374c,65d2b93f80b5775321cab95c,0.0773,0.0775,1,92,254,54,1,fourtwo,,,,,,,,,,,,,,,,,,,,,,,,,,,,,,,,,,,,,,,,,,,,,,,,,,,,,,,,,,,,,,,,,,,,,,,,,,,,,,,,,,,,,,,,,,,,,,,,,,,,,,,,,,,,,,,,,,,,,,,,,,,,,,,,,,,,,,,,,
,,609fa72a56beea595c2b60b,2024-02-19_03h14.49.231,kallum_motion_pilot,2023.2.2,Win32,60.24096386,609fa72a56beea5595c2b60b,65d2b6c8f2eece985d8e374c,65d2b93f80b5775321cab95c,0.0775,0.0777,1,93,255,108,1,sevenfive,,,,,,,,,,,,,,,,,,,,,,,,,,,,,,,,,,,,,,,,,,,,,,,,,,,,,,,,,,,,,,,,,,,,,,,,,,,,,,,,,,,,,,,,,,,,,,,,,,,,,,,,,,,,,,,,,,,,,,,,,,,,,,,,,,,,,,,,,
,,609fa72a56beea595c2b60b,2024-02-19_03h14.49.231,kallum_motion_pilot,2023.2.2,Win32,60.24096386,609fa72a56beea5595c2b60b,65d2b6c8f2eece985d8e374c,65d2b93f80b5775321cab95c,0.0778,0.0778,1,94,256,104,1,fivesix,,,,,,,,,,,,,,,,,,,,,,,,,,,,,,,,,,,,,,,,,,,,,,,,,,,,,,,,,,,,,,,,,,,,,,,,,,,,,,,,,,,,,,,,,,,,,,,,,,,,,,,,,,,,,,,,,,,,,,,,,,,,,,,,,,,,,,,,,
,,609fa72a56beea595c2b60b,2024-02-19_03h14.49.231,kallum_motion_pilot,2023.2.2,Win32,60.24096386,609fa72a56beea5595c2b60b,65d2b6c8f2eece985d8e374c,65d2b93f80b5775321cab95c,0.078,0.078,1,95,257,138,1,sixfive,,,,,,,,,,,,,,,,,,,,,,,,,,,,,,,,,,,,,,,,,,,,,,,,,,,,,,,,,,,,,,,,,,,,,,,,,,,,,,,,,,,,,,,,,,,,,,,,,,,,,,,,,,,,,,,,,,,,,,,,,,,,,,,,,,,,,,,,,
,,609fa72a56beea595c2b60b,2024-02-19_03h14.49.231,kallum_motion_pilot,2023.2.2,Win32,60.24096386,609fa72a56beea5595c2b60b,65d2b6c8f2eece985d8e374c,65d2b93f80b5775321cab95c,0.0781,0.0781,1,96,258,122,1,sixfive,,,,,,,,,,,,,,,,,,,,,,,,,,,,,,,,,,,,,,,,,,,,,,,,,,,,,,,,,,,,,,,,,,,,,,,,,,,,,,,,,,,,,,,,,,,,,,,,,,,,,,,,,,,,,,,,,,,,,,,,,,,,,,,,,,,,,,,,,
,,609fa72a56beea595c2b60b,2024-02-19_03h14.49.231,kallum_motion_pilot,2023.2.2,Win32,60.24096386,609fa72a56beea5595c2b60b,65d2b6c8f2eece985d8e374c,65d2b93f80b5775321cab95c,0.0782,0.0783,1,97,259,71,1,fourthree,,,,,,,,,,,,,,,,,,,,,,,,,,,,,,,,,,,,,,,,,,,,,,,,,,,,,,,,,,,,,,,,,,,,,,,,,,,,,,,,,,,,,,,,,,,,,,,,,,,,,,,,,,,,,,,,,,,,,,,,,,,,,,,,,,,,,,,,,
,,609fa72a56beea595c2b60b,2024-02-19_03h14.49.231,kallum_motion_pilot,2023.2.2,Win32,60.24096386,609fa72a56beea5595c2b60b,65d2b6c8f2eece985d8e374c,65d2b93f80b5775321cab95c,0.0783,0.0784,1,98,260,0,1,onetwo,,,,,,,,,,,,,,,,,,,,,,,,,,,,,,,,,,,,,,,,,,,,,,,,,,,,,,,,,,,,,,,,,,,,,,,,,,,,,,,,,,,,,,,,,,,,,,,,,,,,,,,,,,,,,,,,,,,,,,,,,,,,,,,,,,,,,,,,,
,,609fa72a56beea595c2b60b,2024-02-19_03h14.49.231,kallum_motion_pilot,2023.2.2,Win32,60.24096386,609fa72a56beea5595c2b60b,65d2b6c8f2eece985d8e374c,65d2b93f80b5775321cab95c,0.0785,0.0786,1,99,261,80,1,fivesix,,,,,,,,,,,,,,,,,,,,,,,,,,,,,,,,,,,,,,,,,,,,,,,,,,,,,,,,,,,,,,,,,,,,,,,,,,,,,,,,,,,,,,,,,,,,,,,,,,,,,,,,,,,,,,,,,,,,,,,,,,,,,,,,,,,,,,,,,
,,609fa72a56beea595c2b60b,2024-02-19_03h14.49.231,kallum_motion_pilot,2023.2.2,Win32,60.24096386,609fa72a56beea5595c2b60b,65d2b6c8f2eece985d8e374c,65d2b93f80b5775321cab95c,0.0787,0.0787,1,100,262,26,1,twoone,,,,,,,,,,,,,,,,,,,,,,,,,,,,,,,,,,,,,,,,,,,,,,,,,,,,,,,,,,,,,,,,,,,,,,,,,,,,,,,,,,,,,,,,,,,,,,,,,,,,,,,,,,,,,,,,,,,,,,,,,,,,,,,,,,,,,,,,,
,,609fa72a56beea595c2b60b,2024-02-19_03h14.49.231,kallum_motion_pilot,2023.2.2,Win32,60.24096386,609fa72a56beea5595c2b60b,65d2b6c8f2eece985d8e374c,65d2b93f80b5775321cab95c,0.0788,0.079,1,101,263,119,1,eightseven,,,,,,,,,,,,,,,,,,,,,,,,,,,,,,,,,,,,,,,,,,,,,,,,,,,,,,,,,,,,,,,,,,,,,,,,,,,,,,,,,,,,,,,,,,,,,,,,,,,,,,,,,,,,,,,,,,,,,,,,,,,,,,,,,,,,,,,,,
,,609fa72a56beea595c2b60b,2024-02-19_03h14.49.231,kallum_motion_pilot,2023.2.2,Win32,60.24096386,609fa72a56beea5595c2b60b,65d2b6c8f2eece985d8e374c,65d2b93f80b5775321cab95c,0.0791,0.0792,1,102,264,88,1,fivesix,,,,,,,,,,,,,,,,,,,,,,,,,,,,,,,,,,,,,,,,,,,,,,,,,,,,,,,,,,,,,,,,,,,,,,,,,,,,,,,,,,,,,,,,,,,,,,,,,,,,,,,,,,,,,,,,,,,,,,,,,,,,,,,,,,,,,,,,,
,,609fa72a56beea595c2b60b,2024-02-19_03h14.49.231,kallum_motion_pilot,2023.2.2,Win32,60.24096386,609fa72a56beea5595c2b60b,65d2b6c8f2eece985d8e374c,65d2b93f80b5775321cab95c,0.0793,0.0793,1,103,265,161,1,fiveseven,,,,,,,,,,,,,,,,,,,,,,,,,,,,,,,,,,,,,,,,,,,,,,,,,,,,,,,,,,,,,,,,,,,,,,,,,,,,,,,,,,,,,,,,,,,,,,,,,,,,,,,,,,,,,,,,,,,,,,,,,,,,,,,,,,,,,,,,,
,,609fa72a56beea595c2b60b,2024-02-19_03h14.49.231,kallum_motion_pilot,2023.2.2,Win32,60.24096386,609fa72a56beea5595c2b60b,65d2b6c8f2eece985d8e374c,65d2b93f80b5775321cab95c,0.0795,0.0795,1,104,266,137,1,fiveseven,,,,,,,,,,,,,,,,,,,,,,,,,,,,,,,,,,,,,,,,,,,,,,,,,,,,,,,,,,,,,,,,,,,,,,,,,,,,,,,,,,,,,,,,,,,,,,,,,,,,,,,,,,,,,,,,,,,,,,,,,,,,,,,,,,,,,,,,,
,,609fa72a56beea595c2b60b,2024-02-19_03h14.49.231,kallum_motion_pilot,2023.2.2,Win32,60.24096386,609fa72a56beea5595c2b60b,65d2b6c8f2eece985d8e374c,65d2b93f80b5775321cab95c,0.0795,0.0796,1,105,267,91,1,sixeight,,,,,,,,,,,,,,,,,,,,,,,,,,,,,,,,,,,,,,,,,,,,,,,,,,,,,,,,,,,,,,,,,,,,,,,,,,,,,,,,,,,,,,,,,,,,,,,,,,,,,,,,,,,,,,,,,,,,,,,,,,,,,,,,,,,,,,,,,
,,609fa72a56beea595c2b60b,2024-02-19_03h14.49.231,kallum_motion_pilot,2023.2.2,Win32,60.24096386,609fa72a56beea5595c2b60b,65d2b6c8f2eece985d8e374c,65d2b93f80b5775321cab95c,0.0797,0.0798,1,106,268,160,1,fivesix,,,,,,,,,,,,,,,,,,,,,,,,,,,,,,,,,,,,,,,,,,,,,,,,,,,,,,,,,,,,,,,,,,,,,,,,,,,,,,,,,,,,,,,,,,,,,,,,,,,,,,,,,,,,,,,,,,,,,,,,,,,,,,,,,,,,,,,,,
,,609fa72a56beea595c2b60b,2024-02-19_03h14.49.231,kallum_motion_pilot,2023.2.2,Win32,60.24096386,609fa72a56beea5595c2b60b,65d2b6c8f2eece985d8e374c,65d2b93f80b5775321cab95c,0.0798,0.0799,1,107,269,78,1,fourtwo,,,,,,,,,,,,,,,,,,,,,,,,,,,,,,,,,,,,,,,,,,,,,,,,,,,,,,,,,,,,,,,,,,,,,,,,,,,,,,,,,,,,,,,,,,,,,,,,,,,,,,,,,,,,,,,,,,,,,,,,,,,,,,,,,,,,,,,,,
,,609fa72a56beea595c2b60b,2024-02-19_03h14.49.231,kallum_motion_pilot,2023.2.2,Win32,60.24096386,609fa72a56beea5595c2b60b,65d2b6c8f2eece985d8e374c,65d2b93f80b5775321cab95c,0.08,0.08,1,108,270,15,1,fourthree,,,,,,,,,,,,,,,,,,,,,,,,,,,,,,,,,,,,,,,,,,,,,,,,,,,,,,,,,,,,,,,,,,,,,,,,,,,,,,,,,,,,,,,,,,,,,,,,,,,,,,,,,,,,,,,,,,,,,,,,,,,,,,,,,,,,,,,,,
,,609fa72a56beea595c2b60b,2024-02-19_03h14.49.231,kallum_motion_pilot,2023.2.2,Win32,60.24096386,609fa72a56beea5595c2b60b,65d2b6c8f2eece985d8e374c,65d2b93f80b5775321cab95c,0.0801,0.0802,1,109,271,142,1,eightsix,,,,,,,,,,,,,,,,,,,,,,,,,,,,,,,,,,,,,,,,,,,,,,,,,,,,,,,,,,,,,,,,,,,,,,,,,,,,,,,,,,,,,,,,,,,,,,,,,,,,,,,,,,,,,,,,,,,,,,,,,,,,,,,,,,,,,,,,,
,,609fa72a56beea595c2b60b,2024-02-19_03h14.49.231,kallum_motion_pilot,2023.2.2,Win32,60.24096386,609fa72a56beea5595c2b60b,65d2b6c8f2eece985d8e374c,65d2b93f80b5775321cab95c,0.0803,0.0803,1,110,272,44,1,threeone,,,,,,,,,,,,,,,,,,,,,,,,,,,,,,,,,,,,,,,,,,,,,,,,,,,,,,,,,,,,,,,,,,,,,,,,,,,,,,,,,,,,,,,,,,,,,,,,,,,,,,,,,,,,,,,,,,,,,,,,,,,,,,,,,,,,,,,,,
,,609fa72a56beea595c2b60b,2024-02-19_03h14.49.231,kallum_motion_pilot,2023.2.2,Win32,60.24096386,609fa72a56beea5595c2b60b,65d2b6c8f2eece985d8e374c,65d2b93f80b5775321cab95c,0.0805,0.0805,1,111,273,57,1,onethree,,,,,,,,,,,,,,,,,,,,,,,,,,,,,,,,,,,,,,,,,,,,,,,,,,,,,,,,,,,,,,,,,,,,,,,,,,,,,,,,,,,,,,,,,,,,,,,,,,,,,,,,,,,,,,,,,,,,,,,,,,,,,,,,,,,,,,,,,
,,609fa72a56beea595c2b60b,2024-02-19_03h14.49.231,kallum_motion_pilot,2023.2.2,Win32,60.24096386,609fa72a56beea5595c2b60b,65d2b6c8f2eece985d8e374c,65d2b93f80b5775321cab95c,0.0812,0.0813,1,112,274,132,1,sevenfive,,,,,,,,,,,,,,,,,,,,,,,,,,,,,,,,,,,,,,,,,,,,,,,,,,,,,,,,,,,,,,,,,,,,,,,,,,,,,,,,,,,,,,,,,,,,,,,,,,,,,,,,,,,,,,,,,,,,,,,,,,,,,,,,,,,,,,,,,
,,609fa72a56beea595c2b60b,2024-02-19_03h14.49.231,kallum_motion_pilot,2023.2.2,Win32,60.24096386,609fa72a56beea5595c2b60b,65d2b6c8f2eece985d8e374c,65d2b93f80b5775321cab95c,0.0813,0.0815,1,113,275,136,1,fivesix,,,,,,,,,,,,,,,,,,,,,,,,,,,,,,,,,,,,,,,,,,,,,,,,,,,,,,,,,,,,,,,,,,,,,,,,,,,,,,,,,,,,,,,,,,,,,,,,,,,,,,,,,,,,,,,,,,,,,,,,,,,,,,,,,,,,,,,,,
,,609fa72a56beea595c2b60b,2024-02-19_03h14.49.231,kallum_motion_pilot,2023.2.2,Win32,60.24096386,609fa72a56beea5595c2b60b,65d2b6c8f2eece985d8e374c,65d2b93f80b5775321cab95c,0.0815,0.0817,1,114,276,19,1,twofour,,,,,,,,,,,,,,,,,,,,,,,,,,,,,,,,,,,,,,,,,,,,,,,,,,,,,,,,,,,,,,,,,,,,,,,,,,,,,,,,,,,,,,,,,,,,,,,,,,,,,,,,,,,,,,,,,,,,,,,,,,,,,,,,,,,,,,,,,
,,609fa72a56beea595c2b60b,2024-02-19_03h14.49.231,kallum_motion_pilot,2023.2.2,Win32,60.24096386,609fa72a56beea5595c2b60b,65d2b6c8f2eece985d8e374c,65d2b93f80b5775321cab95c,0.0817,0.0818,1,115,277,83,1,sixeight,,,,,,,,,,,,,,,,,,,,,,,,,,,,,,,,,,,,,,,,,,,,,,,,,,,,,,,,,,,,,,,,,,,,,,,,,,,,,,,,,,,,,,,,,,,,,,,,,,,,,,,,,,,,,,,,,,,,,,,,,,,,,,,,,,,,,,,,,
,,609fa72a56beea595c2b60b,2024-02-19_03h14.49.231,kallum_motion_pilot,2023.2.2,Win32,60.24096386,609fa72a56beea5595c2b60b,65d2b6c8f2eece985d8e374c,65d2b93f80b5775321cab95c,0.0819,0.082,1,116,278,89,1,fiveseven,,,,,,,,,,,,,,,,,,,,,,,,,,,,,,,,,,,,,,,,,,,,,,,,,,,,,,,,,,,,,,,,,,,,,,,,,,,,,,,,,,,,,,,,,,,,,,,,,,,,,,,,,,,,,,,,,,,,,,,,,,,,,,,,,,,,,,,,,
