startup.started,startup.stopped,Prolific ID*,date,expName,psychopyVersion,OS,frameRate,participant,study_id,session,stimpositions.started,stimpositions.stopped,hardcoded_stimulus_positions.thisRepN,hardcoded_stimulus_positions.thisTrialN,hardcoded_stimulus_positions.thisN,hardcoded_stimulus_positions.thisIndex,hardcoded_stimulus_positions.ran,StimulusPos,stimorientation.started,stimorientation.stopped,prac_stimorientation_import_loop.thisRepN,prac_stimorientation_import_loop.thisTrialN,prac_stimorientation_import_loop.thisN,prac_stimorientation_import_loop.thisIndex,prac_stimorientation_import_loop.ran,Stimorientation,welcome_instr.started,welcome_instr.stopped,key_resp.keys,key_resp.rt,key_resp.duration,response_steppedout_1.started,response_steppedout_1.stopped,key_resp_20.keys,key_resp_20.rt,key_resp_20.duration,response_steppedout_2.started,response_steppedout_2.stopped,key_resp_19.keys,key_resp_19.rt,key_resp_19.duration,stim_response_instr.started,stim_response_instr.stopped,key_resp_15.keys,key_resp_15.rt,key_resp_15.duration,direction_instr_2.started,direction_instr_2.stopped,key_resp_9.keys,key_resp_9.rt,key_resp_9.duration,instr_prac.started,instr_prac.stopped,key_resp_10.keys,key_resp_10.rt,key_resp_10.duration,Stim1_display_prac.started,Stim1_display_prac.stopped,Ecc,Circle1_ori,Circle2_ori,response_prac.started,similarity,response_time,response_prac.stopped,mouse_5.x,mouse_5.y,mouse_5.leftButton,mouse_5.midButton,mouse_5.rightButton,mouse_5.clicked_name,responseprac_feedback.started,responseprac_feedback.stopped,summary2_prac.started,summary2_prac.stopped,mouse_6.x,mouse_6.y,mouse_6.leftButton,mouse_6.midButton,mouse_6.rightButton,mouse_6.clicked_name,duringprac.thisRepN,duringprac.thisTrialN,duringprac.thisN,duringprac.thisIndex,duringprac.ran,begin.started,begin.stopped,key_resp_22.keys,key_resp_22.rt,key_resp_22.duration,Stim1_display.started,Stim1_display.stopped,circle1_ori,circle2_ori,circle1_SF,circle2_SF,response.started,response.stopped,mouse.x,mouse.y,mouse.leftButton,mouse.midButton,mouse.rightButton,mouse.clicked_name,trialnumber,double_pass.thisRepN,double_pass.thisTrialN,double_pass.thisN,double_pass.thisIndex,double_pass.ran,double_pass.order,main_trial.thisRepN,main_trial.thisTrialN,main_trial.thisN,main_trial.thisIndex,main_trial.ran,main_trial.order,Trial_Counter,Catch,Frequencies,response_2.started,response_2.stopped,mouse_2.x,mouse_2.y,mouse_2.leftButton,mouse_2.midButton,mouse_2.rightButton,mouse_2.clicked_name,special_trial.started,special_trial.stopped,catch_1.started,catch_1.stopped,mouse_3.x,mouse_3.y,mouse_3.leftButton,mouse_3.midButton,mouse_3.rightButton,catchresponse,catchnumber,response_time_catch,response_sum.started,response_sum.stopped,mouse_11.x,mouse_11.y,mouse_11.leftButton,mouse_11.midButton,mouse_11.rightButton,flip_presentation_sequence_for_double_pass.started,flip_presentation_sequence_for_double_pass.stopped,goodbye.started,goodbye.stopped,key_resp_3.keys,key_resp_3.rt,key_resp_3.duration
0.0004,0.0005,60adbd85d31d5039d3638816,2024-02-19_15h17.31.020,kallum_motion_pilot,2023.2.2,Win32,60.24096386,60adbd85d31d5039d3638816,65d2b6c8f2eece985d8e374c,65d2ba24740075f26ae75ff9,,,,,,,,,,,,,,,,,,,,,,,,,,,,,,,,,,,,,,,,,,,,,,,,,,,,,,,,,,,,,,,,,,,,,,,,,,,,,,,,,,,,,,,,,,,,,,,,,,,,,,,,,,,,,,,,,,,,,,,,,,,,,,,,,,,,,,,,,,,,,,,,,
,,60adbd85d31d5039d3638816,2024-02-19_15h17.31.020,kallum_motion_pilot,2023.2.2,Win32,60.24096386,60adbd85d31d5039d3638816,65d2b6c8f2eece985d8e374c,65d2ba24740075f26ae75ff9,0.033,0.0333,0,0,0,60,1,threeone,,,,,,,,,,,,,,,,,,,,,,,,,,,,,,,,,,,,,,,,,,,,,,,,,,,,,,,,,,,,,,,,,,,,,,,,,,,,,,,,,,,,,,,,,,,,,,,,,,,,,,,,,,,,,,,,,,,,,,,,,,,,,,,,,,,,,,,,,
,,60adbd85d31d5039d3638816,2024-02-19_15h17.31.020,kallum_motion_pilot,2023.2.2,Win32,60.24096386,60adbd85d31d5039d3638816,65d2b6c8f2eece985d8e374c,65d2ba24740075f26ae75ff9,0.0337,0.0338,0,1,1,59,1,twofour,,,,,,,,,,,,,,,,,,,,,,,,,,,,,,,,,,,,,,,,,,,,,,,,,,,,,,,,,,,,,,,,,,,,,,,,,,,,,,,,,,,,,,,,,,,,,,,,,,,,,,,,,,,,,,,,,,,,,,,,,,,,,,,,,,,,,,,,,
,,60adbd85d31d5039d3638816,2024-02-19_15h17.31.020,kallum_motion_pilot,2023.2.2,Win32,60.24096386,60adbd85d31d5039d3638816,65d2b6c8f2eece985d8e374c,65d2ba24740075f26ae75ff9,0.0339,0.0339,0,2,2,58,1,twoone,,,,,,,,,,,,,,,,,,,,,,,,,,,,,,,,,,,,,,,,,,,,,,,,,,,,,,,,,,,,,,,,,,,,,,,,,,,,,,,,,,,,,,,,,,,,,,,,,,,,,,,,,,,,,,,,,,,,,,,,,,,,,,,,,,,,,,,,,
,,60adbd85d31d5039d3638816,2024-02-19_15h17.31.020,kallum_motion_pilot,2023.2.2,Win32,60.24096386,60adbd85d31d5039d3638816,65d2b6c8f2eece985d8e374c,65d2ba24740075f26ae75ff9,0.0341,0.0341,0,3,3,48,1,onetwo,,,,,,,,,,,,,,,,,,,,,,,,,,,,,,,,,,,,,,,,,,,,,,,,,,,,,,,,,,,,,,,,,,,,,,,,,,,,,,,,,,,,,,,,,,,,,,,,,,,,,,,,,,,,,,,,,,,,,,,,,,,,,,,,,,,,,,,,,
,,60adbd85d31d5039d3638816,2024-02-19_15h17.31.020,kallum_motion_pilot,2023.2.2,Win32,60.24096386,60adbd85d31d5039d3638816,65d2b6c8f2eece985d8e374c,65d2ba24740075f26ae75ff9,0.0343,0.0343,0,4,4,65,1,onethree,,,,,,,,,,,,,,,,,,,,,,,,,,,,,,,,,,,,,,,,,,,,,,,,,,,,,,,,,,,,,,,,,,,,,,,,,,,,,,,,,,,,,,,,,,,,,,,,,,,,,,,,,,,,,,,,,,,,,,,,,,,,,,,,,,,,,,,,,
,,60adbd85d31d5039d3638816,2024-02-19_15h17.31.020,kallum_motion_pilot,2023.2.2,Win32,60.24096386,60adbd85d31d5039d3638816,65d2b6c8f2eece985d8e374c,65d2ba24740075f26ae75ff9,0.0344,0.0345,0,5,5,54,1,fourtwo,,,,,,,,,,,,,,,,,,,,,,,,,,,,,,,,,,,,,,,,,,,,,,,,,,,,,,,,,,,,,,,,,,,,,,,,,,,,,,,,,,,,,,,,,,,,,,,,,,,,,,,,,,,,,,,,,,,,,,,,,,,,,,,,,,,,,,,,,
,,60adbd85d31d5039d3638816,2024-02-19_15h17.31.020,kallum_motion_pilot,2023.2.2,Win32,60.24096386,60adbd85d31d5039d3638816,65d2b6c8f2eece985d8e374c,65d2ba24740075f26ae75ff9,0.0346,0.0347,0,6,6,105,1,fiveseven,,,,,,,,,,,,,,,,,,,,,,,,,,,,,,,,,,,,,,,,,,,,,,,,,,,,,,,,,,,,,,,,,,,,,,,,,,,,,,,,,,,,,,,,,,,,,,,,,,,,,,,,,,,,,,,,,,,,,,,,,,,,,,,,,,,,,,,,,
,,60adbd85d31d5039d3638816,2024-02-19_15h17.31.020,kallum_motion_pilot,2023.2.2,Win32,60.24096386,60adbd85d31d5039d3638816,65d2b6c8f2eece985d8e374c,65d2ba24740075f26ae75ff9,0.0349,0.035,0,7,7,120,1,fivesix,,,,,,,,,,,,,,,,,,,,,,,,,,,,,,,,,,,,,,,,,,,,,,,,,,,,,,,,,,,,,,,,,,,,,,,,,,,,,,,,,,,,,,,,,,,,,,,,,,,,,,,,,,,,,,,,,,,,,,,,,,,,,,,,,,,,,,,,,
,,60adbd85d31d5039d3638816,2024-02-19_15h17.31.020,kallum_motion_pilot,2023.2.2,Win32,60.24096386,60adbd85d31d5039d3638816,65d2b6c8f2eece985d8e374c,65d2ba24740075f26ae75ff9,0.0351,0.0351,0,8,8,118,1,eightsix,,,,,,,,,,,,,,,,,,,,,,,,,,,,,,,,,,,,,,,,,,,,,,,,,,,,,,,,,,,,,,,,,,,,,,,,,,,,,,,,,,,,,,,,,,,,,,,,,,,,,,,,,,,,,,,,,,,,,,,,,,,,,,,,,,,,,,,,,
,,60adbd85d31d5039d3638816,2024-02-19_15h17.31.020,kallum_motion_pilot,2023.2.2,Win32,60.24096386,60adbd85d31d5039d3638816,65d2b6c8f2eece985d8e374c,65d2ba24740075f26ae75ff9,0.0353,0.0353,0,9,9,122,1,sixfive,,,,,,,,,,,,,,,,,,,,,,,,,,,,,,,,,,,,,,,,,,,,,,,,,,,,,,,,,,,,,,,,,,,,,,,,,,,,,,,,,,,,,,,,,,,,,,,,,,,,,,,,,,,,,,,,,,,,,,,,,,,,,,,,,,,,,,,,,
,,60adbd85d31d5039d3638816,2024-02-19_15h17.31.020,kallum_motion_pilot,2023.2.2,Win32,60.24096386,60adbd85d31d5039d3638816,65d2b6c8f2eece985d8e374c,65d2ba24740075f26ae75ff9,0.0355,0.0355,0,10,10,53,1,threefour,,,,,,,,,,,,,,,,,,,,,,,,,,,,,,,,,,,,,,,,,,,,,,,,,,,,,,,,,,,,,,,,,,,,,,,,,,,,,,,,,,,,,,,,,,,,,,,,,,,,,,,,,,,,,,,,,,,,,,,,,,,,,,,,,,,,,,,,,
,,60adbd85d31d5039d3638816,2024-02-19_15h17.31.020,kallum_motion_pilot,2023.2.2,Win32,60.24096386,60adbd85d31d5039d3638816,65d2b6c8f2eece985d8e374c,65d2ba24740075f26ae75ff9,0.0357,0.0357,0,11,11,134,1,eightsix,,,,,,,,,,,,,,,,,,,,,,,,,,,,,,,,,,,,,,,,,,,,,,,,,,,,,,,,,,,,,,,,,,,,,,,,,,,,,,,,,,,,,,,,,,,,,,,,,,,,,,,,,,,,,,,,,,,,,,,,,,,,,,,,,,,,,,,,,
,,60adbd85d31d5039d3638816,2024-02-19_15h17.31.020,kallum_motion_pilot,2023.2.2,Win32,60.24096386,60adbd85d31d5039d3638816,65d2b6c8f2eece985d8e374c,65d2ba24740075f26ae75ff9,0.0358,0.0359,0,12,12,140,1,sevenfive,,,,,,,,,,,,,,,,,,,,,,,,,,,,,,,,,,,,,,,,,,,,,,,,,,,,,,,,,,,,,,,,,,,,,,,,,,,,,,,,,,,,,,,,,,,,,,,,,,,,,,,,,,,,,,,,,,,,,,,,,,,,,,,,,,,,,,,,,
,,60adbd85d31d5039d3638816,2024-02-19_15h17.31.020,kallum_motion_pilot,2023.2.2,Win32,60.24096386,60adbd85d31d5039d3638816,65d2b6c8f2eece985d8e374c,65d2ba24740075f26ae75ff9,0.0359,0.036,0,13,13,35,1,twofour,,,,,,,,,,,,,,,,,,,,,,,,,,,,,,,,,,,,,,,,,,,,,,,,,,,,,,,,,,,,,,,,,,,,,,,,,,,,,,,,,,,,,,,,,,,,,,,,,,,,,,,,,,,,,,,,,,,,,,,,,,,,,,,,,,,,,,,,,
,,60adbd85d31d5039d3638816,2024-02-19_15h17.31.020,kallum_motion_pilot,2023.2.2,Win32,60.24096386,60adbd85d31d5039d3638816,65d2b6c8f2eece985d8e374c,65d2ba24740075f26ae75ff9,0.0362,0.0363,0,14,14,160,1,fivesix,,,,,,,,,,,,,,,,,,,,,,,,,,,,,,,,,,,,,,,,,,,,,,,,,,,,,,,,,,,,,,,,,,,,,,,,,,,,,,,,,,,,,,,,,,,,,,,,,,,,,,,,,,,,,,,,,,,,,,,,,,,,,,,,,,,,,,,,,
,,60adbd85d31d5039d3638816,2024-02-19_15h17.31.020,kallum_motion_pilot,2023.2.2,Win32,60.24096386,60adbd85d31d5039d3638816,65d2b6c8f2eece985d8e374c,65d2ba24740075f26ae75ff9,0.0364,0.0365,0,15,15,62,1,fourtwo,,,,,,,,,,,,,,,,,,,,,,,,,,,,,,,,,,,,,,,,,,,,,,,,,,,,,,,,,,,,,,,,,,,,,,,,,,,,,,,,,,,,,,,,,,,,,,,,,,,,,,,,,,,,,,,,,,,,,,,,,,,,,,,,,,,,,,,,,
,,60adbd85d31d5039d3638816,2024-02-19_15h17.31.020,kallum_motion_pilot,2023.2.2,Win32,60.24096386,60adbd85d31d5039d3638816,65d2b6c8f2eece985d8e374c,65d2ba24740075f26ae75ff9,0.0366,0.0366,0,16,16,64,1,onetwo,,,,,,,,,,,,,,,,,,,,,,,,,,,,,,,,,,,,,,,,,,,,,,,,,,,,,,,,,,,,,,,,,,,,,,,,,,,,,,,,,,,,,,,,,,,,,,,,,,,,,,,,,,,,,,,,,,,,,,,,,,,,,,,,,,,,,,,,,
,,60adbd85d31d5039d3638816,2024-02-19_15h17.31.020,kallum_motion_pilot,2023.2.2,Win32,60.24096386,60adbd85d31d5039d3638816,65d2b6c8f2eece985d8e374c,65d2ba24740075f26ae75ff9,0.0367,0.0368,0,17,17,142,1,eightsix,,,,,,,,,,,,,,,,,,,,,,,,,,,,,,,,,,,,,,,,,,,,,,,,,,,,,,,,,,,,,,,,,,,,,,,,,,,,,,,,,,,,,,,,,,,,,,,,,,,,,,,,,,,,,,,,,,,,,,,,,,,,,,,,,,,,,,,,,
,,60adbd85d31d5039d3638816,2024-02-19_15h17.31.020,kallum_motion_pilot,2023.2.2,Win32,60.24096386,60adbd85d31d5039d3638816,65d2b6c8f2eece985d8e374c,65d2ba24740075f26ae75ff9,0.0369,0.0369,0,18,18,157,1,seveneight,,,,,,,,,,,,,,,,,,,,,,,,,,,,,,,,,,,,,,,,,,,,,,,,,,,,,,,,,,,,,,,,,,,,,,,,,,,,,,,,,,,,,,,,,,,,,,,,,,,,,,,,,,,,,,,,,,,,,,,,,,,,,,,,,,,,,,,,,
,,60adbd85d31d5039d3638816,2024-02-19_15h17.31.020,kallum_motion_pilot,2023.2.2,Win32,60.24096386,60adbd85d31d5039d3638816,65d2b6c8f2eece985d8e374c,65d2ba24740075f26ae75ff9,0.0371,0.0371,0,19,19,8,1,onetwo,,,,,,,,,,,,,,,,,,,,,,,,,,,,,,,,,,,,,,,,,,,,,,,,,,,,,,,,,,,,,,,,,,,,,,,,,,,,,,,,,,,,,,,,,,,,,,,,,,,,,,,,,,,,,,,,,,,,,,,,,,,,,,,,,,,,,,,,,
,,60adbd85d31d5039d3638816,2024-02-19_15h17.31.020,kallum_motion_pilot,2023.2.2,Win32,60.24096386,60adbd85d31d5039d3638816,65d2b6c8f2eece985d8e374c,65d2ba24740075f26ae75ff9,0.0372,0.0372,0,20,20,14,1,fourtwo,,,,,,,,,,,,,,,,,,,,,,,,,,,,,,,,,,,,,,,,,,,,,,,,,,,,,,,,,,,,,,,,,,,,,,,,,,,,,,,,,,,,,,,,,,,,,,,,,,,,,,,,,,,,,,,,,,,,,,,,,,,,,,,,,,,,,,,,,
,,60adbd85d31d5039d3638816,2024-02-19_15h17.31.020,kallum_motion_pilot,2023.2.2,Win32,60.24096386,60adbd85d31d5039d3638816,65d2b6c8f2eece985d8e374c,65d2ba24740075f26ae75ff9,0.0373,0.0373,0,21,21,17,1,onethree,,,,,,,,,,,,,,,,,,,,,,,,,,,,,,,,,,,,,,,,,,,,,,,,,,,,,,,,,,,,,,,,,,,,,,,,,,,,,,,,,,,,,,,,,,,,,,,,,,,,,,,,,,,,,,,,,,,,,,,,,,,,,,,,,,,,,,,,,
,,60adbd85d31d5039d3638816,2024-02-19_15h17.31.020,kallum_motion_pilot,2023.2.2,Win32,60.24096386,60adbd85d31d5039d3638816,65d2b6c8f2eece985d8e374c,65d2ba24740075f26ae75ff9,0.0374,0.0375,0,22,22,92,1,sevenfive,,,,,,,,,,,,,,,,,,,,,,,,,,,,,,,,,,,,,,,,,,,,,,,,,,,,,,,,,,,,,,,,,,,,,,,,,,,,,,,,,,,,,,,,,,,,,,,,,,,,,,,,,,,,,,,,,,,,,,,,,,,,,,,,,,,,,,,,,
,,60adbd85d31d5039d3638816,2024-02-19_15h17.31.020,kallum_motion_pilot,2023.2.2,Win32,60.24096386,60adbd85d31d5039d3638816,65d2b6c8f2eece985d8e374c,65d2ba24740075f26ae75ff9,0.0376,0.0376,0,23,23,69,1,threefour,,,,,,,,,,,,,,,,,,,,,,,,,,,,,,,,,,,,,,,,,,,,,,,,,,,,,,,,,,,,,,,,,,,,,,,,,,,,,,,,,,,,,,,,,,,,,,,,,,,,,,,,,,,,,,,,,,,,,,,,,,,,,,,,,,,,,,,,,
,,60adbd85d31d5039d3638816,2024-02-19_15h17.31.020,kallum_motion_pilot,2023.2.2,Win32,60.24096386,60adbd85d31d5039d3638816,65d2b6c8f2eece985d8e374c,65d2ba24740075f26ae75ff9,0.0378,0.0379,0,24,24,101,1,seveneight,,,,,,,,,,,,,,,,,,,,,,,,,,,,,,,,,,,,,,,,,,,,,,,,,,,,,,,,,,,,,,,,,,,,,,,,,,,,,,,,,,,,,,,,,,,,,,,,,,,,,,,,,,,,,,,,,,,,,,,,,,,,,,,,,,,,,,,,,
,,60adbd85d31d5039d3638816,2024-02-19_15h17.31.020,kallum_motion_pilot,2023.2.2,Win32,60.24096386,60adbd85d31d5039d3638816,65d2b6c8f2eece985d8e374c,65d2ba24740075f26ae75ff9,0.0381,0.0381,0,25,25,98,1,sixfive,,,,,,,,,,,,,,,,,,,,,,,,,,,,,,,,,,,,,,,,,,,,,,,,,,,,,,,,,,,,,,,,,,,,,,,,,,,,,,,,,,,,,,,,,,,,,,,,,,,,,,,,,,,,,,,,,,,,,,,,,,,,,,,,,,,,,,,,,
,,60adbd85d31d5039d3638816,2024-02-19_15h17.31.020,kallum_motion_pilot,2023.2.2,Win32,60.24096386,60adbd85d31d5039d3638816,65d2b6c8f2eece985d8e374c,65d2ba24740075f26ae75ff9,0.0381,0.0382,0,26,26,37,1,threefour,,,,,,,,,,,,,,,,,,,,,,,,,,,,,,,,,,,,,,,,,,,,,,,,,,,,,,,,,,,,,,,,,,,,,,,,,,,,,,,,,,,,,,,,,,,,,,,,,,,,,,,,,,,,,,,,,,,,,,,,,,,,,,,,,,,,,,,,,
,,60adbd85d31d5039d3638816,2024-02-19_15h17.31.020,kallum_motion_pilot,2023.2.2,Win32,60.24096386,60adbd85d31d5039d3638816,65d2b6c8f2eece985d8e374c,65d2ba24740075f26ae75ff9,0.0383,0.0383,0,27,27,73,1,onethree,,,,,,,,,,,,,,,,,,,,,,,,,,,,,,,,,,,,,,,,,,,,,,,,,,,,,,,,,,,,,,,,,,,,,,,,,,,,,,,,,,,,,,,,,,,,,,,,,,,,,,,,,,,,,,,,,,,,,,,,,,,,,,,,,,,,,,,,,
,,60adbd85d31d5039d3638816,2024-02-19_15h17.31.020,kallum_motion_pilot,2023.2.2,Win32,60.24096386,60adbd85d31d5039d3638816,65d2b6c8f2eece985d8e374c,65d2ba24740075f26ae75ff9,0.0384,0.0384,0,28,28,107,1,sixeight,,,,,,,,,,,,,,,,,,,,,,,,,,,,,,,,,,,,,,,,,,,,,,,,,,,,,,,,,,,,,,,,,,,,,,,,,,,,,,,,,,,,,,,,,,,,,,,,,,,,,,,,,,,,,,,,,,,,,,,,,,,,,,,,,,,,,,,,,
,,60adbd85d31d5039d3638816,2024-02-19_15h17.31.020,kallum_motion_pilot,2023.2.2,Win32,60.24096386,60adbd85d31d5039d3638816,65d2b6c8f2eece985d8e374c,65d2ba24740075f26ae75ff9,0.0386,0.0386,0,29,29,102,1,eightsix,,,,,,,,,,,,,,,,,,,,,,,,,,,,,,,,,,,,,,,,,,,,,,,,,,,,,,,,,,,,,,,,,,,,,,,,,,,,,,,,,,,,,,,,,,,,,,,,,,,,,,,,,,,,,,,,,,,,,,,,,,,,,,,,,,,,,,,,,
,,60adbd85d31d5039d3638816,2024-02-19_15h17.31.020,kallum_motion_pilot,2023.2.2,Win32,60.24096386,60adbd85d31d5039d3638816,65d2b6c8f2eece985d8e374c,65d2ba24740075f26ae75ff9,0.0387,0.0387,0,30,30,5,1,threefour,,,,,,,,,,,,,,,,,,,,,,,,,,,,,,,,,,,,,,,,,,,,,,,,,,,,,,,,,,,,,,,,,,,,,,,,,,,,,,,,,,,,,,,,,,,,,,,,,,,,,,,,,,,,,,,,,,,,,,,,,,,,,,,,,,,,,,,,,
,,60adbd85d31d5039d3638816,2024-02-19_15h17.31.020,kallum_motion_pilot,2023.2.2,Win32,60.24096386,60adbd85d31d5039d3638816,65d2b6c8f2eece985d8e374c,65d2ba24740075f26ae75ff9,0.0388,0.0388,0,31,31,116,1,sevenfive,,,,,,,,,,,,,,,,,,,,,,,,,,,,,,,,,,,,,,,,,,,,,,,,,,,,,,,,,,,,,,,,,,,,,,,,,,,,,,,,,,,,,,,,,,,,,,,,,,,,,,,,,,,,,,,,,,,,,,,,,,,,,,,,,,,,,,,,,
,,60adbd85d31d5039d3638816,2024-02-19_15h17.31.020,kallum_motion_pilot,2023.2.2,Win32,60.24096386,60adbd85d31d5039d3638816,65d2b6c8f2eece985d8e374c,65d2ba24740075f26ae75ff9,0.0389,0.039,0,32,32,99,1,sixeight,,,,,,,,,,,,,,,,,,,,,,,,,,,,,,,,,,,,,,,,,,,,,,,,,,,,,,,,,,,,,,,,,,,,,,,,,,,,,,,,,,,,,,,,,,,,,,,,,,,,,,,,,,,,,,,,,,,,,,,,,,,,,,,,,,,,,,,,,
,,60adbd85d31d5039d3638816,2024-02-19_15h17.31.020,kallum_motion_pilot,2023.2.2,Win32,60.24096386,60adbd85d31d5039d3638816,65d2b6c8f2eece985d8e374c,65d2ba24740075f26ae75ff9,0.039,0.0391,0,33,33,141,1,seveneight,,,,,,,,,,,,,,,,,,,,,,,,,,,,,,,,,,,,,,,,,,,,,,,,,,,,,,,,,,,,,,,,,,,,,,,,,,,,,,,,,,,,,,,,,,,,,,,,,,,,,,,,,,,,,,,,,,,,,,,,,,,,,,,,,,,,,,,,,
,,60adbd85d31d5039d3638816,2024-02-19_15h17.31.020,kallum_motion_pilot,2023.2.2,Win32,60.24096386,60adbd85d31d5039d3638816,65d2b6c8f2eece985d8e374c,65d2ba24740075f26ae75ff9,0.0392,0.0392,0,34,34,1,1,onethree,,,,,,,,,,,,,,,,,,,,,,,,,,,,,,,,,,,,,,,,,,,,,,,,,,,,,,,,,,,,,,,,,,,,,,,,,,,,,,,,,,,,,,,,,,,,,,,,,,,,,,,,,,,,,,,,,,,,,,,,,,,,,,,,,,,,,,,,,
,,60adbd85d31d5039d3638816,2024-02-19_15h17.31.020,kallum_motion_pilot,2023.2.2,Win32,60.24096386,60adbd85d31d5039d3638816,65d2b6c8f2eece985d8e374c,65d2ba24740075f26ae75ff9,0.0393,0.0393,0,35,35,67,1,twofour,,,,,,,,,,,,,,,,,,,,,,,,,,,,,,,,,,,,,,,,,,,,,,,,,,,,,,,,,,,,,,,,,,,,,,,,,,,,,,,,,,,,,,,,,,,,,,,,,,,,,,,,,,,,,,,,,,,,,,,,,,,,,,,,,,,,,,,,,
,,60adbd85d31d5039d3638816,2024-02-19_15h17.31.020,kallum_motion_pilot,2023.2.2,Win32,60.24096386,60adbd85d31d5039d3638816,65d2b6c8f2eece985d8e374c,65d2ba24740075f26ae75ff9,0.0394,0.0394,0,36,36,68,1,threeone,,,,,,,,,,,,,,,,,,,,,,,,,,,,,,,,,,,,,,,,,,,,,,,,,,,,,,,,,,,,,,,,,,,,,,,,,,,,,,,,,,,,,,,,,,,,,,,,,,,,,,,,,,,,,,,,,,,,,,,,,,,,,,,,,,,,,,,,,
,,60adbd85d31d5039d3638816,2024-02-19_15h17.31.020,kallum_motion_pilot,2023.2.2,Win32,60.24096386,60adbd85d31d5039d3638816,65d2b6c8f2eece985d8e374c,65d2ba24740075f26ae75ff9,0.0395,0.0395,0,37,37,61,1,threefour,,,,,,,,,,,,,,,,,,,,,,,,,,,,,,,,,,,,,,,,,,,,,,,,,,,,,,,,,,,,,,,,,,,,,,,,,,,,,,,,,,,,,,,,,,,,,,,,,,,,,,,,,,,,,,,,,,,,,,,,,,,,,,,,,,,,,,,,,
,,60adbd85d31d5039d3638816,2024-02-19_15h17.31.020,kallum_motion_pilot,2023.2.2,Win32,60.24096386,60adbd85d31d5039d3638816,65d2b6c8f2eece985d8e374c,65d2ba24740075f26ae75ff9,0.0397,0.0397,0,38,38,128,1,fivesix,,,,,,,,,,,,,,,,,,,,,,,,,,,,,,,,,,,,,,,,,,,,,,,,,,,,,,,,,,,,,,,,,,,,,,,,,,,,,,,,,,,,,,,,,,,,,,,,,,,,,,,,,,,,,,,,,,,,,,,,,,,,,,,,,,,,,,,,,
,,60adbd85d31d5039d3638816,2024-02-19_15h17.31.020,kallum_motion_pilot,2023.2.2,Win32,60.24096386,60adbd85d31d5039d3638816,65d2b6c8f2eece985d8e374c,65d2ba24740075f26ae75ff9,0.0398,0.0398,0,39,39,19,1,twofour,,,,,,,,,,,,,,,,,,,,,,,,,,,,,,,,,,,,,,,,,,,,,,,,,,,,,,,,,,,,,,,,,,,,,,,,,,,,,,,,,,,,,,,,,,,,,,,,,,,,,,,,,,,,,,,,,,,,,,,,,,,,,,,,,,,,,,,,,
,,60adbd85d31d5039d3638816,2024-02-19_15h17.31.020,kallum_motion_pilot,2023.2.2,Win32,60.24096386,60adbd85d31d5039d3638816,65d2b6c8f2eece985d8e374c,65d2ba24740075f26ae75ff9,0.0399,0.0399,0,40,40,28,1,threeone,,,,,,,,,,,,,,,,,,,,,,,,,,,,,,,,,,,,,,,,,,,,,,,,,,,,,,,,,,,,,,,,,,,,,,,,,,,,,,,,,,,,,,,,,,,,,,,,,,,,,,,,,,,,,,,,,,,,,,,,,,,,,,,,,,,,,,,,,
,,60adbd85d31d5039d3638816,2024-02-19_15h17.31.020,kallum_motion_pilot,2023.2.2,Win32,60.24096386,60adbd85d31d5039d3638816,65d2b6c8f2eece985d8e374c,65d2ba24740075f26ae75ff9,0.04,0.04,0,41,41,148,1,sevenfive,,,,,,,,,,,,,,,,,,,,,,,,,,,,,,,,,,,,,,,,,,,,,,,,,,,,,,,,,,,,,,,,,,,,,,,,,,,,,,,,,,,,,,,,,,,,,,,,,,,,,,,,,,,,,,,,,,,,,,,,,,,,,,,,,,,,,,,,,
,,60adbd85d31d5039d3638816,2024-02-19_15h17.31.020,kallum_motion_pilot,2023.2.2,Win32,60.24096386,60adbd85d31d5039d3638816,65d2b6c8f2eece985d8e374c,65d2ba24740075f26ae75ff9,0.0401,0.0402,0,42,42,161,1,fiveseven,,,,,,,,,,,,,,,,,,,,,,,,,,,,,,,,,,,,,,,,,,,,,,,,,,,,,,,,,,,,,,,,,,,,,,,,,,,,,,,,,,,,,,,,,,,,,,,,,,,,,,,,,,,,,,,,,,,,,,,,,,,,,,,,,,,,,,,,,
,,60adbd85d31d5039d3638816,2024-02-19_15h17.31.020,kallum_motion_pilot,2023.2.2,Win32,60.24096386,60adbd85d31d5039d3638816,65d2b6c8f2eece985d8e374c,65d2ba24740075f26ae75ff9,0.0403,0.0403,0,43,43,81,1,fiveseven,,,,,,,,,,,,,,,,,,,,,,,,,,,,,,,,,,,,,,,,,,,,,,,,,,,,,,,,,,,,,,,,,,,,,,,,,,,,,,,,,,,,,,,,,,,,,,,,,,,,,,,,,,,,,,,,,,,,,,,,,,,,,,,,,,,,,,,,,
,,60adbd85d31d5039d3638816,2024-02-19_15h17.31.020,kallum_motion_pilot,2023.2.2,Win32,60.24096386,60adbd85d31d5039d3638816,65d2b6c8f2eece985d8e374c,65d2ba24740075f26ae75ff9,0.0405,0.0405,0,44,44,3,1,twofour,,,,,,,,,,,,,,,,,,,,,,,,,,,,,,,,,,,,,,,,,,,,,,,,,,,,,,,,,,,,,,,,,,,,,,,,,,,,,,,,,,,,,,,,,,,,,,,,,,,,,,,,,,,,,,,,,,,,,,,,,,,,,,,,,,,,,,,,,
,,60adbd85d31d5039d3638816,2024-02-19_15h17.31.020,kallum_motion_pilot,2023.2.2,Win32,60.24096386,60adbd85d31d5039d3638816,65d2b6c8f2eece985d8e374c,65d2ba24740075f26ae75ff9,0.0405,0.0405,0,45,45,138,1,sixfive,,,,,,,,,,,,,,,,,,,,,,,,,,,,,,,,,,,,,,,,,,,,,,,,,,,,,,,,,,,,,,,,,,,,,,,,,,,,,,,,,,,,,,,,,,,,,,,,,,,,,,,,,,,,,,,,,,,,,,,,,,,,,,,,,,,,,,,,,
,,60adbd85d31d5039d3638816,2024-02-19_15h17.31.020,kallum_motion_pilot,2023.2.2,Win32,60.24096386,60adbd85d31d5039d3638816,65d2b6c8f2eece985d8e374c,65d2ba24740075f26ae75ff9,0.0407,0.0407,0,46,46,139,1,sixeight,,,,,,,,,,,,,,,,,,,,,,,,,,,,,,,,,,,,,,,,,,,,,,,,,,,,,,,,,,,,,,,,,,,,,,,,,,,,,,,,,,,,,,,,,,,,,,,,,,,,,,,,,,,,,,,,,,,,,,,,,,,,,,,,,,,,,,,,,
,,60adbd85d31d5039d3638816,2024-02-19_15h17.31.020,kallum_motion_pilot,2023.2.2,Win32,60.24096386,60adbd85d31d5039d3638816,65d2b6c8f2eece985d8e374c,65d2ba24740075f26ae75ff9,0.0408,0.0408,0,47,47,70,1,fourtwo,,,,,,,,,,,,,,,,,,,,,,,,,,,,,,,,,,,,,,,,,,,,,,,,,,,,,,,,,,,,,,,,,,,,,,,,,,,,,,,,,,,,,,,,,,,,,,,,,,,,,,,,,,,,,,,,,,,,,,,,,,,,,,,,,,,,,,,,,
,,60adbd85d31d5039d3638816,2024-02-19_15h17.31.020,kallum_motion_pilot,2023.2.2,Win32,60.24096386,60adbd85d31d5039d3638816,65d2b6c8f2eece985d8e374c,65d2ba24740075f26ae75ff9,0.0409,0.0409,0,48,48,38,1,fourtwo,,,,,,,,,,,,,,,,,,,,,,,,,,,,,,,,,,,,,,,,,,,,,,,,,,,,,,,,,,,,,,,,,,,,,,,,,,,,,,,,,,,,,,,,,,,,,,,,,,,,,,,,,,,,,,,,,,,,,,,,,,,,,,,,,,,,,,,,,
,,60adbd85d31d5039d3638816,2024-02-19_15h17.31.020,kallum_motion_pilot,2023.2.2,Win32,60.24096386,60adbd85d31d5039d3638816,65d2b6c8f2eece985d8e374c,65d2ba24740075f26ae75ff9,0.041,0.041,0,49,49,129,1,fiveseven,,,,,,,,,,,,,,,,,,,,,,,,,,,,,,,,,,,,,,,,,,,,,,,,,,,,,,,,,,,,,,,,,,,,,,,,,,,,,,,,,,,,,,,,,,,,,,,,,,,,,,,,,,,,,,,,,,,,,,,,,,,,,,,,,,,,,,,,,
,,60adbd85d31d5039d3638816,2024-02-19_15h17.31.020,kallum_motion_pilot,2023.2.2,Win32,60.24096386,60adbd85d31d5039d3638816,65d2b6c8f2eece985d8e374c,65d2ba24740075f26ae75ff9,0.0411,0.0412,0,50,50,57,1,onethree,,,,,,,,,,,,,,,,,,,,,,,,,,,,,,,,,,,,,,,,,,,,,,,,,,,,,,,,,,,,,,,,,,,,,,,,,,,,,,,,,,,,,,,,,,,,,,,,,,,,,,,,,,,,,,,,,,,,,,,,,,,,,,,,,,,,,,,,,
,,60adbd85d31d5039d3638816,2024-02-19_15h17.31.020,kallum_motion_pilot,2023.2.2,Win32,60.24096386,60adbd85d31d5039d3638816,65d2b6c8f2eece985d8e374c,65d2ba24740075f26ae75ff9,0.0412,0.0413,0,51,51,80,1,fivesix,,,,,,,,,,,,,,,,,,,,,,,,,,,,,,,,,,,,,,,,,,,,,,,,,,,,,,,,,,,,,,,,,,,,,,,,,,,,,,,,,,,,,,,,,,,,,,,,,,,,,,,,,,,,,,,,,,,,,,,,,,,,,,,,,,,,,,,,,
,,60adbd85d31d5039d3638816,2024-02-19_15h17.31.020,kallum_motion_pilot,2023.2.2,Win32,60.24096386,60adbd85d31d5039d3638816,65d2b6c8f2eece985d8e374c,65d2ba24740075f26ae75ff9,0.0413,0.0414,0,52,52,95,1,eightseven,,,,,,,,,,,,,,,,,,,,,,,,,,,,,,,,,,,,,,,,,,,,,,,,,,,,,,,,,,,,,,,,,,,,,,,,,,,,,,,,,,,,,,,,,,,,,,,,,,,,,,,,,,,,,,,,,,,,,,,,,,,,,,,,,,,,,,,,,
,,60adbd85d31d5039d3638816,2024-02-19_15h17.31.020,kallum_motion_pilot,2023.2.2,Win32,60.24096386,60adbd85d31d5039d3638816,65d2b6c8f2eece985d8e374c,65d2ba24740075f26ae75ff9,0.0415,0.0415,0,53,53,15,1,fourthree,,,,,,,,,,,,,,,,,,,,,,,,,,,,,,,,,,,,,,,,,,,,,,,,,,,,,,,,,,,,,,,,,,,,,,,,,,,,,,,,,,,,,,,,,,,,,,,,,,,,,,,,,,,,,,,,,,,,,,,,,,,,,,,,,,,,,,,,,
,,60adbd85d31d5039d3638816,2024-02-19_15h17.31.020,kallum_motion_pilot,2023.2.2,Win32,60.24096386,60adbd85d31d5039d3638816,65d2b6c8f2eece985d8e374c,65d2ba24740075f26ae75ff9,0.0415,0.0416,0,54,54,4,1,threeone,,,,,,,,,,,,,,,,,,,,,,,,,,,,,,,,,,,,,,,,,,,,,,,,,,,,,,,,,,,,,,,,,,,,,,,,,,,,,,,,,,,,,,,,,,,,,,,,,,,,,,,,,,,,,,,,,,,,,,,,,,,,,,,,,,,,,,,,,
,,60adbd85d31d5039d3638816,2024-02-19_15h17.31.020,kallum_motion_pilot,2023.2.2,Win32,60.24096386,60adbd85d31d5039d3638816,65d2b6c8f2eece985d8e374c,65d2ba24740075f26ae75ff9,0.0417,0.0418,0,55,55,83,1,sixeight,,,,,,,,,,,,,,,,,,,,,,,,,,,,,,,,,,,,,,,,,,,,,,,,,,,,,,,,,,,,,,,,,,,,,,,,,,,,,,,,,,,,,,,,,,,,,,,,,,,,,,,,,,,,,,,,,,,,,,,,,,,,,,,,,,,,,,,,,
,,60adbd85d31d5039d3638816,2024-02-19_15h17.31.020,kallum_motion_pilot,2023.2.2,Win32,60.24096386,60adbd85d31d5039d3638816,65d2b6c8f2eece985d8e374c,65d2ba24740075f26ae75ff9,0.0418,0.0418,0,56,56,94,1,eightsix,,,,,,,,,,,,,,,,,,,,,,,,,,,,,,,,,,,,,,,,,,,,,,,,,,,,,,,,,,,,,,,,,,,,,,,,,,,,,,,,,,,,,,,,,,,,,,,,,,,,,,,,,,,,,,,,,,,,,,,,,,,,,,,,,,,,,,,,,
,,60adbd85d31d5039d3638816,2024-02-19_15h17.31.020,kallum_motion_pilot,2023.2.2,Win32,60.24096386,60adbd85d31d5039d3638816,65d2b6c8f2eece985d8e374c,65d2ba24740075f26ae75ff9,0.042,0.042,0,57,57,71,1,fourthree,,,,,,,,,,,,,,,,,,,,,,,,,,,,,,,,,,,,,,,,,,,,,,,,,,,,,,,,,,,,,,,,,,,,,,,,,,,,,,,,,,,,,,,,,,,,,,,,,,,,,,,,,,,,,,,,,,,,,,,,,,,,,,,,,,,,,,,,,
,,60adbd85d31d5039d3638816,2024-02-19_15h17.31.020,kallum_motion_pilot,2023.2.2,Win32,60.24096386,60adbd85d31d5039d3638816,65d2b6c8f2eece985d8e374c,65d2ba24740075f26ae75ff9,0.042,0.0421,0,58,58,26,1,twoone,,,,,,,,,,,,,,,,,,,,,,,,,,,,,,,,,,,,,,,,,,,,,,,,,,,,,,,,,,,,,,,,,,,,,,,,,,,,,,,,,,,,,,,,,,,,,,,,,,,,,,,,,,,,,,,,,,,,,,,,,,,,,,,,,,,,,,,,,
,,60adbd85d31d5039d3638816,2024-02-19_15h17.31.020,kallum_motion_pilot,2023.2.2,Win32,60.24096386,60adbd85d31d5039d3638816,65d2b6c8f2eece985d8e374c,65d2ba24740075f26ae75ff9,0.0422,0.0422,0,59,59,43,1,twofour,,,,,,,,,,,,,,,,,,,,,,,,,,,,,,,,,,,,,,,,,,,,,,,,,,,,,,,,,,,,,,,,,,,,,,,,,,,,,,,,,,,,,,,,,,,,,,,,,,,,,,,,,,,,,,,,,,,,,,,,,,,,,,,,,,,,,,,,,
,,60adbd85d31d5039d3638816,2024-02-19_15h17.31.020,kallum_motion_pilot,2023.2.2,Win32,60.24096386,60adbd85d31d5039d3638816,65d2b6c8f2eece985d8e374c,65d2ba24740075f26ae75ff9,0.0423,0.0423,0,60,60,155,1,sixeight,,,,,,,,,,,,,,,,,,,,,,,,,,,,,,,,,,,,,,,,,,,,,,,,,,,,,,,,,,,,,,,,,,,,,,,,,,,,,,,,,,,,,,,,,,,,,,,,,,,,,,,,,,,,,,,,,,,,,,,,,,,,,,,,,,,,,,,,,
,,60adbd85d31d5039d3638816,2024-02-19_15h17.31.020,kallum_motion_pilot,2023.2.2,Win32,60.24096386,60adbd85d31d5039d3638816,65d2b6c8f2eece985d8e374c,65d2ba24740075f26ae75ff9,0.0425,0.0425,0,61,61,85,1,seveneight,,,,,,,,,,,,,,,,,,,,,,,,,,,,,,,,,,,,,,,,,,,,,,,,,,,,,,,,,,,,,,,,,,,,,,,,,,,,,,,,,,,,,,,,,,,,,,,,,,,,,,,,,,,,,,,,,,,,,,,,,,,,,,,,,,,,,,,,,
,,60adbd85d31d5039d3638816,2024-02-19_15h17.31.020,kallum_motion_pilot,2023.2.2,Win32,60.24096386,60adbd85d31d5039d3638816,65d2b6c8f2eece985d8e374c,65d2ba24740075f26ae75ff9,0.0426,0.0426,0,62,62,156,1,sevenfive,,,,,,,,,,,,,,,,,,,,,,,,,,,,,,,,,,,,,,,,,,,,,,,,,,,,,,,,,,,,,,,,,,,,,,,,,,,,,,,,,,,,,,,,,,,,,,,,,,,,,,,,,,,,,,,,,,,,,,,,,,,,,,,,,,,,,,,,,
,,60adbd85d31d5039d3638816,2024-02-19_15h17.31.020,kallum_motion_pilot,2023.2.2,Win32,60.24096386,60adbd85d31d5039d3638816,65d2b6c8f2eece985d8e374c,65d2ba24740075f26ae75ff9,0.0427,0.0427,0,63,63,109,1,seveneight,,,,,,,,,,,,,,,,,,,,,,,,,,,,,,,,,,,,,,,,,,,,,,,,,,,,,,,,,,,,,,,,,,,,,,,,,,,,,,,,,,,,,,,,,,,,,,,,,,,,,,,,,,,,,,,,,,,,,,,,,,,,,,,,,,,,,,,,,
,,60adbd85d31d5039d3638816,2024-02-19_15h17.31.020,kallum_motion_pilot,2023.2.2,Win32,60.24096386,60adbd85d31d5039d3638816,65d2b6c8f2eece985d8e374c,65d2ba24740075f26ae75ff9,0.0429,0.0429,0,64,64,97,1,fiveseven,,,,,,,,,,,,,,,,,,,,,,,,,,,,,,,,,,,,,,,,,,,,,,,,,,,,,,,,,,,,,,,,,,,,,,,,,,,,,,,,,,,,,,,,,,,,,,,,,,,,,,,,,,,,,,,,,,,,,,,,,,,,,,,,,,,,,,,,,
,,60adbd85d31d5039d3638816,2024-02-19_15h17.31.020,kallum_motion_pilot,2023.2.2,Win32,60.24096386,60adbd85d31d5039d3638816,65d2b6c8f2eece985d8e374c,65d2ba24740075f26ae75ff9,0.043,0.043,0,65,65,21,1,threefour,,,,,,,,,,,,,,,,,,,,,,,,,,,,,,,,,,,,,,,,,,,,,,,,,,,,,,,,,,,,,,,,,,,,,,,,,,,,,,,,,,,,,,,,,,,,,,,,,,,,,,,,,,,,,,,,,,,,,,,,,,,,,,,,,,,,,,,,,
,,60adbd85d31d5039d3638816,2024-02-19_15h17.31.020,kallum_motion_pilot,2023.2.2,Win32,60.24096386,60adbd85d31d5039d3638816,65d2b6c8f2eece985d8e374c,65d2ba24740075f26ae75ff9,0.0431,0.0435,0,66,66,9,1,onethree,,,,,,,,,,,,,,,,,,,,,,,,,,,,,,,,,,,,,,,,,,,,,,,,,,,,,,,,,,,,,,,,,,,,,,,,,,,,,,,,,,,,,,,,,,,,,,,,,,,,,,,,,,,,,,,,,,,,,,,,,,,,,,,,,,,,,,,,,
,,60adbd85d31d5039d3638816,2024-02-19_15h17.31.020,kallum_motion_pilot,2023.2.2,Win32,60.24096386,60adbd85d31d5039d3638816,65d2b6c8f2eece985d8e374c,65d2ba24740075f26ae75ff9,0.0437,0.0438,0,67,67,133,1,seveneight,,,,,,,,,,,,,,,,,,,,,,,,,,,,,,,,,,,,,,,,,,,,,,,,,,,,,,,,,,,,,,,,,,,,,,,,,,,,,,,,,,,,,,,,,,,,,,,,,,,,,,,,,,,,,,,,,,,,,,,,,,,,,,,,,,,,,,,,,
,,60adbd85d31d5039d3638816,2024-02-19_15h17.31.020,kallum_motion_pilot,2023.2.2,Win32,60.24096386,60adbd85d31d5039d3638816,65d2b6c8f2eece985d8e374c,65d2ba24740075f26ae75ff9,0.0447,0.045,0,68,68,75,1,twofour,,,,,,,,,,,,,,,,,,,,,,,,,,,,,,,,,,,,,,,,,,,,,,,,,,,,,,,,,,,,,,,,,,,,,,,,,,,,,,,,,,,,,,,,,,,,,,,,,,,,,,,,,,,,,,,,,,,,,,,,,,,,,,,,,,,,,,,,,
,,60adbd85d31d5039d3638816,2024-02-19_15h17.31.020,kallum_motion_pilot,2023.2.2,Win32,60.24096386,60adbd85d31d5039d3638816,65d2b6c8f2eece985d8e374c,65d2ba24740075f26ae75ff9,0.0452,0.0453,0,69,69,154,1,sixfive,,,,,,,,,,,,,,,,,,,,,,,,,,,,,,,,,,,,,,,,,,,,,,,,,,,,,,,,,,,,,,,,,,,,,,,,,,,,,,,,,,,,,,,,,,,,,,,,,,,,,,,,,,,,,,,,,,,,,,,,,,,,,,,,,,,,,,,,,
,,60adbd85d31d5039d3638816,2024-02-19_15h17.31.020,kallum_motion_pilot,2023.2.2,Win32,60.24096386,60adbd85d31d5039d3638816,65d2b6c8f2eece985d8e374c,65d2ba24740075f26ae75ff9,0.0456,0.0457,0,70,70,89,1,fiveseven,,,,,,,,,,,,,,,,,,,,,,,,,,,,,,,,,,,,,,,,,,,,,,,,,,,,,,,,,,,,,,,,,,,,,,,,,,,,,,,,,,,,,,,,,,,,,,,,,,,,,,,,,,,,,,,,,,,,,,,,,,,,,,,,,,,,,,,,,
,,60adbd85d31d5039d3638816,2024-02-19_15h17.31.020,kallum_motion_pilot,2023.2.2,Win32,60.24096386,60adbd85d31d5039d3638816,65d2b6c8f2eece985d8e374c,65d2ba24740075f26ae75ff9,0.0459,0.046,0,71,71,39,1,fourthree,,,,,,,,,,,,,,,,,,,,,,,,,,,,,,,,,,,,,,,,,,,,,,,,,,,,,,,,,,,,,,,,,,,,,,,,,,,,,,,,,,,,,,,,,,,,,,,,,,,,,,,,,,,,,,,,,,,,,,,,,,,,,,,,,,,,,,,,,
,,60adbd85d31d5039d3638816,2024-02-19_15h17.31.020,kallum_motion_pilot,2023.2.2,Win32,60.24096386,60adbd85d31d5039d3638816,65d2b6c8f2eece985d8e374c,65d2ba24740075f26ae75ff9,0.0462,0.0463,0,72,72,36,1,threeone,,,,,,,,,,,,,,,,,,,,,,,,,,,,,,,,,,,,,,,,,,,,,,,,,,,,,,,,,,,,,,,,,,,,,,,,,,,,,,,,,,,,,,,,,,,,,,,,,,,,,,,,,,,,,,,,,,,,,,,,,,,,,,,,,,,,,,,,,
,,60adbd85d31d5039d3638816,2024-02-19_15h17.31.020,kallum_motion_pilot,2023.2.2,Win32,60.24096386,60adbd85d31d5039d3638816,65d2b6c8f2eece985d8e374c,65d2ba24740075f26ae75ff9,0.0465,0.0465,0,73,73,110,1,eightsix,,,,,,,,,,,,,,,,,,,,,,,,,,,,,,,,,,,,,,,,,,,,,,,,,,,,,,,,,,,,,,,,,,,,,,,,,,,,,,,,,,,,,,,,,,,,,,,,,,,,,,,,,,,,,,,,,,,,,,,,,,,,,,,,,,,,,,,,,
,,60adbd85d31d5039d3638816,2024-02-19_15h17.31.020,kallum_motion_pilot,2023.2.2,Win32,60.24096386,60adbd85d31d5039d3638816,65d2b6c8f2eece985d8e374c,65d2ba24740075f26ae75ff9,0.0466,0.0467,0,74,74,146,1,sixfive,,,,,,,,,,,,,,,,,,,,,,,,,,,,,,,,,,,,,,,,,,,,,,,,,,,,,,,,,,,,,,,,,,,,,,,,,,,,,,,,,,,,,,,,,,,,,,,,,,,,,,,,,,,,,,,,,,,,,,,,,,,,,,,,,,,,,,,,,
,,60adbd85d31d5039d3638816,2024-02-19_15h17.31.020,kallum_motion_pilot,2023.2.2,Win32,60.24096386,60adbd85d31d5039d3638816,65d2b6c8f2eece985d8e374c,65d2ba24740075f26ae75ff9,0.0469,0.0471,0,75,75,125,1,seveneight,,,,,,,,,,,,,,,,,,,,,,,,,,,,,,,,,,,,,,,,,,,,,,,,,,,,,,,,,,,,,,,,,,,,,,,,,,,,,,,,,,,,,,,,,,,,,,,,,,,,,,,,,,,,,,,,,,,,,,,,,,,,,,,,,,,,,,,,,
,,60adbd85d31d5039d3638816,2024-02-19_15h17.31.020,kallum_motion_pilot,2023.2.2,Win32,60.24096386,60adbd85d31d5039d3638816,65d2b6c8f2eece985d8e374c,65d2ba24740075f26ae75ff9,0.0472,0.0473,0,76,76,123,1,sixeight,,,,,,,,,,,,,,,,,,,,,,,,,,,,,,,,,,,,,,,,,,,,,,,,,,,,,,,,,,,,,,,,,,,,,,,,,,,,,,,,,,,,,,,,,,,,,,,,,,,,,,,,,,,,,,,,,,,,,,,,,,,,,,,,,,,,,,,,,
,,60adbd85d31d5039d3638816,2024-02-19_15h17.31.020,kallum_motion_pilot,2023.2.2,Win32,60.24096386,60adbd85d31d5039d3638816,65d2b6c8f2eece985d8e374c,65d2ba24740075f26ae75ff9,0.0473,0.0475,0,77,77,82,1,sixfive,,,,,,,,,,,,,,,,,,,,,,,,,,,,,,,,,,,,,,,,,,,,,,,,,,,,,,,,,,,,,,,,,,,,,,,,,,,,,,,,,,,,,,,,,,,,,,,,,,,,,,,,,,,,,,,,,,,,,,,,,,,,,,,,,,,,,,,,,
,,60adbd85d31d5039d3638816,2024-02-19_15h17.31.020,kallum_motion_pilot,2023.2.2,Win32,60.24096386,60adbd85d31d5039d3638816,65d2b6c8f2eece985d8e374c,65d2ba24740075f26ae75ff9,0.0475,0.0476,0,78,78,50,1,twoone,,,,,,,,,,,,,,,,,,,,,,,,,,,,,,,,,,,,,,,,,,,,,,,,,,,,,,,,,,,,,,,,,,,,,,,,,,,,,,,,,,,,,,,,,,,,,,,,,,,,,,,,,,,,,,,,,,,,,,,,,,,,,,,,,,,,,,,,,
,,60adbd85d31d5039d3638816,2024-02-19_15h17.31.020,kallum_motion_pilot,2023.2.2,Win32,60.24096386,60adbd85d31d5039d3638816,65d2b6c8f2eece985d8e374c,65d2ba24740075f26ae75ff9,0.0476,0.0477,0,79,79,126,1,eightsix,,,,,,,,,,,,,,,,,,,,,,,,,,,,,,,,,,,,,,,,,,,,,,,,,,,,,,,,,,,,,,,,,,,,,,,,,,,,,,,,,,,,,,,,,,,,,,,,,,,,,,,,,,,,,,,,,,,,,,,,,,,,,,,,,,,,,,,,,
,,60adbd85d31d5039d3638816,2024-02-19_15h17.31.020,kallum_motion_pilot,2023.2.2,Win32,60.24096386,60adbd85d31d5039d3638816,65d2b6c8f2eece985d8e374c,65d2ba24740075f26ae75ff9,0.0478,0.0479,0,80,80,150,1,eightsix,,,,,,,,,,,,,,,,,,,,,,,,,,,,,,,,,,,,,,,,,,,,,,,,,,,,,,,,,,,,,,,,,,,,,,,,,,,,,,,,,,,,,,,,,,,,,,,,,,,,,,,,,,,,,,,,,,,,,,,,,,,,,,,,,,,,,,,,,
,,60adbd85d31d5039d3638816,2024-02-19_15h17.31.020,kallum_motion_pilot,2023.2.2,Win32,60.24096386,60adbd85d31d5039d3638816,65d2b6c8f2eece985d8e374c,65d2ba24740075f26ae75ff9,0.0479,0.048,0,81,81,152,1,fivesix,,,,,,,,,,,,,,,,,,,,,,,,,,,,,,,,,,,,,,,,,,,,,,,,,,,,,,,,,,,,,,,,,,,,,,,,,,,,,,,,,,,,,,,,,,,,,,,,,,,,,,,,,,,,,,,,,,,,,,,,,,,,,,,,,,,,,,,,,
,,60adbd85d31d5039d3638816,2024-02-19_15h17.31.020,kallum_motion_pilot,2023.2.2,Win32,60.24096386,60adbd85d31d5039d3638816,65d2b6c8f2eece985d8e374c,65d2ba24740075f26ae75ff9,0.048,0.0482,0,82,82,124,1,sevenfive,,,,,,,,,,,,,,,,,,,,,,,,,,,,,,,,,,,,,,,,,,,,,,,,,,,,,,,,,,,,,,,,,,,,,,,,,,,,,,,,,,,,,,,,,,,,,,,,,,,,,,,,,,,,,,,,,,,,,,,,,,,,,,,,,,,,,,,,,
,,60adbd85d31d5039d3638816,2024-02-19_15h17.31.020,kallum_motion_pilot,2023.2.2,Win32,60.24096386,60adbd85d31d5039d3638816,65d2b6c8f2eece985d8e374c,65d2ba24740075f26ae75ff9,0.0482,0.0483,0,83,83,66,1,twoone,,,,,,,,,,,,,,,,,,,,,,,,,,,,,,,,,,,,,,,,,,,,,,,,,,,,,,,,,,,,,,,,,,,,,,,,,,,,,,,,,,,,,,,,,,,,,,,,,,,,,,,,,,,,,,,,,,,,,,,,,,,,,,,,,,,,,,,,,
,,60adbd85d31d5039d3638816,2024-02-19_15h17.31.020,kallum_motion_pilot,2023.2.2,Win32,60.24096386,60adbd85d31d5039d3638816,65d2b6c8f2eece985d8e374c,65d2ba24740075f26ae75ff9,0.0483,0.0484,0,84,84,16,1,onetwo,,,,,,,,,,,,,,,,,,,,,,,,,,,,,,,,,,,,,,,,,,,,,,,,,,,,,,,,,,,,,,,,,,,,,,,,,,,,,,,,,,,,,,,,,,,,,,,,,,,,,,,,,,,,,,,,,,,,,,,,,,,,,,,,,,,,,,,,,
,,60adbd85d31d5039d3638816,2024-02-19_15h17.31.020,kallum_motion_pilot,2023.2.2,Win32,60.24096386,60adbd85d31d5039d3638816,65d2b6c8f2eece985d8e374c,65d2ba24740075f26ae75ff9,0.0485,0.0486,0,85,85,100,1,sevenfive,,,,,,,,,,,,,,,,,,,,,,,,,,,,,,,,,,,,,,,,,,,,,,,,,,,,,,,,,,,,,,,,,,,,,,,,,,,,,,,,,,,,,,,,,,,,,,,,,,,,,,,,,,,,,,,,,,,,,,,,,,,,,,,,,,,,,,,,,
,,60adbd85d31d5039d3638816,2024-02-19_15h17.31.020,kallum_motion_pilot,2023.2.2,Win32,60.24096386,60adbd85d31d5039d3638816,65d2b6c8f2eece985d8e374c,65d2ba24740075f26ae75ff9,0.0486,0.0487,0,86,86,40,1,onetwo,,,,,,,,,,,,,,,,,,,,,,,,,,,,,,,,,,,,,,,,,,,,,,,,,,,,,,,,,,,,,,,,,,,,,,,,,,,,,,,,,,,,,,,,,,,,,,,,,,,,,,,,,,,,,,,,,,,,,,,,,,,,,,,,,,,,,,,,,
,,60adbd85d31d5039d3638816,2024-02-19_15h17.31.020,kallum_motion_pilot,2023.2.2,Win32,60.24096386,60adbd85d31d5039d3638816,65d2b6c8f2eece985d8e374c,65d2ba24740075f26ae75ff9,0.0487,0.0488,0,87,87,112,1,fivesix,,,,,,,,,,,,,,,,,,,,,,,,,,,,,,,,,,,,,,,,,,,,,,,,,,,,,,,,,,,,,,,,,,,,,,,,,,,,,,,,,,,,,,,,,,,,,,,,,,,,,,,,,,,,,,,,,,,,,,,,,,,,,,,,,,,,,,,,,
,,60adbd85d31d5039d3638816,2024-02-19_15h17.31.020,kallum_motion_pilot,2023.2.2,Win32,60.24096386,60adbd85d31d5039d3638816,65d2b6c8f2eece985d8e374c,65d2ba24740075f26ae75ff9,0.0489,0.0489,0,88,88,144,1,fivesix,,,,,,,,,,,,,,,,,,,,,,,,,,,,,,,,,,,,,,,,,,,,,,,,,,,,,,,,,,,,,,,,,,,,,,,,,,,,,,,,,,,,,,,,,,,,,,,,,,,,,,,,,,,,,,,,,,,,,,,,,,,,,,,,,,,,,,,,,
,,60adbd85d31d5039d3638816,2024-02-19_15h17.31.020,kallum_motion_pilot,2023.2.2,Win32,60.24096386,60adbd85d31d5039d3638816,65d2b6c8f2eece985d8e374c,65d2ba24740075f26ae75ff9,0.049,0.049,0,89,89,158,1,eightsix,,,,,,,,,,,,,,,,,,,,,,,,,,,,,,,,,,,,,,,,,,,,,,,,,,,,,,,,,,,,,,,,,,,,,,,,,,,,,,,,,,,,,,,,,,,,,,,,,,,,,,,,,,,,,,,,,,,,,,,,,,,,,,,,,,,,,,,,,
,,60adbd85d31d5039d3638816,2024-02-19_15h17.31.020,kallum_motion_pilot,2023.2.2,Win32,60.24096386,60adbd85d31d5039d3638816,65d2b6c8f2eece985d8e374c,65d2ba24740075f26ae75ff9,0.0492,0.0492,0,90,90,11,1,twofour,,,,,,,,,,,,,,,,,,,,,,,,,,,,,,,,,,,,,,,,,,,,,,,,,,,,,,,,,,,,,,,,,,,,,,,,,,,,,,,,,,,,,,,,,,,,,,,,,,,,,,,,,,,,,,,,,,,,,,,,,,,,,,,,,,,,,,,,,
,,60adbd85d31d5039d3638816,2024-02-19_15h17.31.020,kallum_motion_pilot,2023.2.2,Win32,60.24096386,60adbd85d31d5039d3638816,65d2b6c8f2eece985d8e374c,65d2ba24740075f26ae75ff9,0.0493,0.0493,0,91,91,127,1,eightseven,,,,,,,,,,,,,,,,,,,,,,,,,,,,,,,,,,,,,,,,,,,,,,,,,,,,,,,,,,,,,,,,,,,,,,,,,,,,,,,,,,,,,,,,,,,,,,,,,,,,,,,,,,,,,,,,,,,,,,,,,,,,,,,,,,,,,,,,,
,,60adbd85d31d5039d3638816,2024-02-19_15h17.31.020,kallum_motion_pilot,2023.2.2,Win32,60.24096386,60adbd85d31d5039d3638816,65d2b6c8f2eece985d8e374c,65d2ba24740075f26ae75ff9,0.0494,0.0495,0,92,92,111,1,eightseven,,,,,,,,,,,,,,,,,,,,,,,,,,,,,,,,,,,,,,,,,,,,,,,,,,,,,,,,,,,,,,,,,,,,,,,,,,,,,,,,,,,,,,,,,,,,,,,,,,,,,,,,,,,,,,,,,,,,,,,,,,,,,,,,,,,,,,,,,
,,60adbd85d31d5039d3638816,2024-02-19_15h17.31.020,kallum_motion_pilot,2023.2.2,Win32,60.24096386,60adbd85d31d5039d3638816,65d2b6c8f2eece985d8e374c,65d2ba24740075f26ae75ff9,0.0496,0.0496,0,93,93,2,1,twoone,,,,,,,,,,,,,,,,,,,,,,,,,,,,,,,,,,,,,,,,,,,,,,,,,,,,,,,,,,,,,,,,,,,,,,,,,,,,,,,,,,,,,,,,,,,,,,,,,,,,,,,,,,,,,,,,,,,,,,,,,,,,,,,,,,,,,,,,,
,,60adbd85d31d5039d3638816,2024-02-19_15h17.31.020,kallum_motion_pilot,2023.2.2,Win32,60.24096386,60adbd85d31d5039d3638816,65d2b6c8f2eece985d8e374c,65d2ba24740075f26ae75ff9,0.0497,0.0498,0,94,94,84,1,sevenfive,,,,,,,,,,,,,,,,,,,,,,,,,,,,,,,,,,,,,,,,,,,,,,,,,,,,,,,,,,,,,,,,,,,,,,,,,,,,,,,,,,,,,,,,,,,,,,,,,,,,,,,,,,,,,,,,,,,,,,,,,,,,,,,,,,,,,,,,,
,,60adbd85d31d5039d3638816,2024-02-19_15h17.31.020,kallum_motion_pilot,2023.2.2,Win32,60.24096386,60adbd85d31d5039d3638816,65d2b6c8f2eece985d8e374c,65d2ba24740075f26ae75ff9,0.0499,0.0499,0,95,95,56,1,onetwo,,,,,,,,,,,,,,,,,,,,,,,,,,,,,,,,,,,,,,,,,,,,,,,,,,,,,,,,,,,,,,,,,,,,,,,,,,,,,,,,,,,,,,,,,,,,,,,,,,,,,,,,,,,,,,,,,,,,,,,,,,,,,,,,,,,,,,,,,
,,60adbd85d31d5039d3638816,2024-02-19_15h17.31.020,kallum_motion_pilot,2023.2.2,Win32,60.24096386,60adbd85d31d5039d3638816,65d2b6c8f2eece985d8e374c,65d2ba24740075f26ae75ff9,0.0501,0.0501,0,96,96,131,1,sixeight,,,,,,,,,,,,,,,,,,,,,,,,,,,,,,,,,,,,,,,,,,,,,,,,,,,,,,,,,,,,,,,,,,,,,,,,,,,,,,,,,,,,,,,,,,,,,,,,,,,,,,,,,,,,,,,,,,,,,,,,,,,,,,,,,,,,,,,,,
,,60adbd85d31d5039d3638816,2024-02-19_15h17.31.020,kallum_motion_pilot,2023.2.2,Win32,60.24096386,60adbd85d31d5039d3638816,65d2b6c8f2eece985d8e374c,65d2ba24740075f26ae75ff9,0.0501,0.0502,0,97,97,29,1,threefour,,,,,,,,,,,,,,,,,,,,,,,,,,,,,,,,,,,,,,,,,,,,,,,,,,,,,,,,,,,,,,,,,,,,,,,,,,,,,,,,,,,,,,,,,,,,,,,,,,,,,,,,,,,,,,,,,,,,,,,,,,,,,,,,,,,,,,,,,
,,60adbd85d31d5039d3638816,2024-02-19_15h17.31.020,kallum_motion_pilot,2023.2.2,Win32,60.24096386,60adbd85d31d5039d3638816,65d2b6c8f2eece985d8e374c,65d2ba24740075f26ae75ff9,0.0503,0.0504,0,98,98,30,1,fourtwo,,,,,,,,,,,,,,,,,,,,,,,,,,,,,,,,,,,,,,,,,,,,,,,,,,,,,,,,,,,,,,,,,,,,,,,,,,,,,,,,,,,,,,,,,,,,,,,,,,,,,,,,,,,,,,,,,,,,,,,,,,,,,,,,,,,,,,,,,
,,60adbd85d31d5039d3638816,2024-02-19_15h17.31.020,kallum_motion_pilot,2023.2.2,Win32,60.24096386,60adbd85d31d5039d3638816,65d2b6c8f2eece985d8e374c,65d2ba24740075f26ae75ff9,0.0505,0.0505,0,99,99,27,1,twofour,,,,,,,,,,,,,,,,,,,,,,,,,,,,,,,,,,,,,,,,,,,,,,,,,,,,,,,,,,,,,,,,,,,,,,,,,,,,,,,,,,,,,,,,,,,,,,,,,,,,,,,,,,,,,,,,,,,,,,,,,,,,,,,,,,,,,,,,,
,,60adbd85d31d5039d3638816,2024-02-19_15h17.31.020,kallum_motion_pilot,2023.2.2,Win32,60.24096386,60adbd85d31d5039d3638816,65d2b6c8f2eece985d8e374c,65d2ba24740075f26ae75ff9,0.0506,0.0507,0,100,100,113,1,fiveseven,,,,,,,,,,,,,,,,,,,,,,,,,,,,,,,,,,,,,,,,,,,,,,,,,,,,,,,,,,,,,,,,,,,,,,,,,,,,,,,,,,,,,,,,,,,,,,,,,,,,,,,,,,,,,,,,,,,,,,,,,,,,,,,,,,,,,,,,,
,,60adbd85d31d5039d3638816,2024-02-19_15h17.31.020,kallum_motion_pilot,2023.2.2,Win32,60.24096386,60adbd85d31d5039d3638816,65d2b6c8f2eece985d8e374c,65d2ba24740075f26ae75ff9,0.0507,0.0508,0,101,101,45,1,threefour,,,,,,,,,,,,,,,,,,,,,,,,,,,,,,,,,,,,,,,,,,,,,,,,,,,,,,,,,,,,,,,,,,,,,,,,,,,,,,,,,,,,,,,,,,,,,,,,,,,,,,,,,,,,,,,,,,,,,,,,,,,,,,,,,,,,,,,,,
,,60adbd85d31d5039d3638816,2024-02-19_15h17.31.020,kallum_motion_pilot,2023.2.2,Win32,60.24096386,60adbd85d31d5039d3638816,65d2b6c8f2eece985d8e374c,65d2ba24740075f26ae75ff9,0.0509,0.051,0,102,102,159,1,eightseven,,,,,,,,,,,,,,,,,,,,,,,,,,,,,,,,,,,,,,,,,,,,,,,,,,,,,,,,,,,,,,,,,,,,,,,,,,,,,,,,,,,,,,,,,,,,,,,,,,,,,,,,,,,,,,,,,,,,,,,,,,,,,,,,,,,,,,,,,
,,60adbd85d31d5039d3638816,2024-02-19_15h17.31.020,kallum_motion_pilot,2023.2.2,Win32,60.24096386,60adbd85d31d5039d3638816,65d2b6c8f2eece985d8e374c,65d2ba24740075f26ae75ff9,0.0511,0.0512,0,103,103,31,1,fourthree,,,,,,,,,,,,,,,,,,,,,,,,,,,,,,,,,,,,,,,,,,,,,,,,,,,,,,,,,,,,,,,,,,,,,,,,,,,,,,,,,,,,,,,,,,,,,,,,,,,,,,,,,,,,,,,,,,,,,,,,,,,,,,,,,,,,,,,,,
,,60adbd85d31d5039d3638816,2024-02-19_15h17.31.020,kallum_motion_pilot,2023.2.2,Win32,60.24096386,60adbd85d31d5039d3638816,65d2b6c8f2eece985d8e374c,65d2ba24740075f26ae75ff9,0.0512,0.0512,0,104,104,76,1,threeone,,,,,,,,,,,,,,,,,,,,,,,,,,,,,,,,,,,,,,,,,,,,,,,,,,,,,,,,,,,,,,,,,,,,,,,,,,,,,,,,,,,,,,,,,,,,,,,,,,,,,,,,,,,,,,,,,,,,,,,,,,,,,,,,,,,,,,,,,
,,60adbd85d31d5039d3638816,2024-02-19_15h17.31.020,kallum_motion_pilot,2023.2.2,Win32,60.24096386,60adbd85d31d5039d3638816,65d2b6c8f2eece985d8e374c,65d2ba24740075f26ae75ff9,0.0513,0.0514,0,105,105,104,1,fivesix,,,,,,,,,,,,,,,,,,,,,,,,,,,,,,,,,,,,,,,,,,,,,,,,,,,,,,,,,,,,,,,,,,,,,,,,,,,,,,,,,,,,,,,,,,,,,,,,,,,,,,,,,,,,,,,,,,,,,,,,,,,,,,,,,,,,,,,,,
,,60adbd85d31d5039d3638816,2024-02-19_15h17.31.020,kallum_motion_pilot,2023.2.2,Win32,60.24096386,60adbd85d31d5039d3638816,65d2b6c8f2eece985d8e374c,65d2ba24740075f26ae75ff9,0.0515,0.0516,0,106,106,32,1,onetwo,,,,,,,,,,,,,,,,,,,,,,,,,,,,,,,,,,,,,,,,,,,,,,,,,,,,,,,,,,,,,,,,,,,,,,,,,,,,,,,,,,,,,,,,,,,,,,,,,,,,,,,,,,,,,,,,,,,,,,,,,,,,,,,,,,,,,,,,,
,,60adbd85d31d5039d3638816,2024-02-19_15h17.31.020,kallum_motion_pilot,2023.2.2,Win32,60.24096386,60adbd85d31d5039d3638816,65d2b6c8f2eece985d8e374c,65d2ba24740075f26ae75ff9,0.0517,0.0517,0,107,107,51,1,twofour,,,,,,,,,,,,,,,,,,,,,,,,,,,,,,,,,,,,,,,,,,,,,,,,,,,,,,,,,,,,,,,,,,,,,,,,,,,,,,,,,,,,,,,,,,,,,,,,,,,,,,,,,,,,,,,,,,,,,,,,,,,,,,,,,,,,,,,,,
,,60adbd85d31d5039d3638816,2024-02-19_15h17.31.020,kallum_motion_pilot,2023.2.2,Win32,60.24096386,60adbd85d31d5039d3638816,65d2b6c8f2eece985d8e374c,65d2ba24740075f26ae75ff9,0.0519,0.052,0,108,108,115,1,sixeight,,,,,,,,,,,,,,,,,,,,,,,,,,,,,,,,,,,,,,,,,,,,,,,,,,,,,,,,,,,,,,,,,,,,,,,,,,,,,,,,,,,,,,,,,,,,,,,,,,,,,,,,,,,,,,,,,,,,,,,,,,,,,,,,,,,,,,,,,
,,60adbd85d31d5039d3638816,2024-02-19_15h17.31.020,kallum_motion_pilot,2023.2.2,Win32,60.24096386,60adbd85d31d5039d3638816,65d2b6c8f2eece985d8e374c,65d2ba24740075f26ae75ff9,0.0533,0.0534,0,109,109,86,1,eightsix,,,,,,,,,,,,,,,,,,,,,,,,,,,,,,,,,,,,,,,,,,,,,,,,,,,,,,,,,,,,,,,,,,,,,,,,,,,,,,,,,,,,,,,,,,,,,,,,,,,,,,,,,,,,,,,,,,,,,,,,,,,,,,,,,,,,,,,,,
,,60adbd85d31d5039d3638816,2024-02-19_15h17.31.020,kallum_motion_pilot,2023.2.2,Win32,60.24096386,60adbd85d31d5039d3638816,65d2b6c8f2eece985d8e374c,65d2ba24740075f26ae75ff9,0.0536,0.0536,0,110,110,77,1,threefour,,,,,,,,,,,,,,,,,,,,,,,,,,,,,,,,,,,,,,,,,,,,,,,,,,,,,,,,,,,,,,,,,,,,,,,,,,,,,,,,,,,,,,,,,,,,,,,,,,,,,,,,,,,,,,,,,,,,,,,,,,,,,,,,,,,,,,,,,
,,60adbd85d31d5039d3638816,2024-02-19_15h17.31.020,kallum_motion_pilot,2023.2.2,Win32,60.24096386,60adbd85d31d5039d3638816,65d2b6c8f2eece985d8e374c,65d2ba24740075f26ae75ff9,0.0538,0.0538,0,111,111,22,1,fourtwo,,,,,,,,,,,,,,,,,,,,,,,,,,,,,,,,,,,,,,,,,,,,,,,,,,,,,,,,,,,,,,,,,,,,,,,,,,,,,,,,,,,,,,,,,,,,,,,,,,,,,,,,,,,,,,,,,,,,,,,,,,,,,,,,,,,,,,,,,
,,60adbd85d31d5039d3638816,2024-02-19_15h17.31.020,kallum_motion_pilot,2023.2.2,Win32,60.24096386,60adbd85d31d5039d3638816,65d2b6c8f2eece985d8e374c,65d2ba24740075f26ae75ff9,0.0539,0.054,0,112,112,106,1,sixfive,,,,,,,,,,,,,,,,,,,,,,,,,,,,,,,,,,,,,,,,,,,,,,,,,,,,,,,,,,,,,,,,,,,,,,,,,,,,,,,,,,,,,,,,,,,,,,,,,,,,,,,,,,,,,,,,,,,,,,,,,,,,,,,,,,,,,,,,,
,,60adbd85d31d5039d3638816,2024-02-19_15h17.31.020,kallum_motion_pilot,2023.2.2,Win32,60.24096386,60adbd85d31d5039d3638816,65d2b6c8f2eece985d8e374c,65d2ba24740075f26ae75ff9,0.054,0.0541,0,113,113,63,1,fourthree,,,,,,,,,,,,,,,,,,,,,,,,,,,,,,,,,,,,,,,,,,,,,,,,,,,,,,,,,,,,,,,,,,,,,,,,,,,,,,,,,,,,,,,,,,,,,,,,,,,,,,,,,,,,,,,,,,,,,,,,,,,,,,,,,,,,,,,,,
,,60adbd85d31d5039d3638816,2024-02-19_15h17.31.020,kallum_motion_pilot,2023.2.2,Win32,60.24096386,60adbd85d31d5039d3638816,65d2b6c8f2eece985d8e374c,65d2ba24740075f26ae75ff9,0.0542,0.0542,0,114,114,151,1,eightseven,,,,,,,,,,,,,,,,,,,,,,,,,,,,,,,,,,,,,,,,,,,,,,,,,,,,,,,,,,,,,,,,,,,,,,,,,,,,,,,,,,,,,,,,,,,,,,,,,,,,,,,,,,,,,,,,,,,,,,,,,,,,,,,,,,,,,,,,,
,,60adbd85d31d5039d3638816,2024-02-19_15h17.31.020,kallum_motion_pilot,2023.2.2,Win32,60.24096386,60adbd85d31d5039d3638816,65d2b6c8f2eece985d8e374c,65d2ba24740075f26ae75ff9,0.0543,0.0544,0,115,115,10,1,twoone,,,,,,,,,,,,,,,,,,,,,,,,,,,,,,,,,,,,,,,,,,,,,,,,,,,,,,,,,,,,,,,,,,,,,,,,,,,,,,,,,,,,,,,,,,,,,,,,,,,,,,,,,,,,,,,,,,,,,,,,,,,,,,,,,,,,,,,,,
,,60adbd85d31d5039d3638816,2024-02-19_15h17.31.020,kallum_motion_pilot,2023.2.2,Win32,60.24096386,60adbd85d31d5039d3638816,65d2b6c8f2eece985d8e374c,65d2ba24740075f26ae75ff9,0.0544,0.0546,0,116,116,143,1,eightseven,,,,,,,,,,,,,,,,,,,,,,,,,,,,,,,,,,,,,,,,,,,,,,,,,,,,,,,,,,,,,,,,,,,,,,,,,,,,,,,,,,,,,,,,,,,,,,,,,,,,,,,,,,,,,,,,,,,,,,,,,,,,,,,,,,,,,,,,,
,,60adbd85d31d5039d3638816,2024-02-19_15h17.31.020,kallum_motion_pilot,2023.2.2,Win32,60.24096386,60adbd85d31d5039d3638816,65d2b6c8f2eece985d8e374c,65d2ba24740075f26ae75ff9,0.0547,0.0547,0,117,117,114,1,sixfive,,,,,,,,,,,,,,,,,,,,,,,,,,,,,,,,,,,,,,,,,,,,,,,,,,,,,,,,,,,,,,,,,,,,,,,,,,,,,,,,,,,,,,,,,,,,,,,,,,,,,,,,,,,,,,,,,,,,,,,,,,,,,,,,,,,,,,,,,
,,60adbd85d31d5039d3638816,2024-02-19_15h17.31.020,kallum_motion_pilot,2023.2.2,Win32,60.24096386,60adbd85d31d5039d3638816,65d2b6c8f2eece985d8e374c,65d2ba24740075f26ae75ff9,0.055,0.055,0,118,118,46,1,fourtwo,,,,,,,,,,,,,,,,,,,,,,,,,,,,,,,,,,,,,,,,,,,,,,,,,,,,,,,,,,,,,,,,,,,,,,,,,,,,,,,,,,,,,,,,,,,,,,,,,,,,,,,,,,,,,,,,,,,,,,,,,,,,,,,,,,,,,,,,,
,,60adbd85d31d5039d3638816,2024-02-19_15h17.31.020,kallum_motion_pilot,2023.2.2,Win32,60.24096386,60adbd85d31d5039d3638816,65d2b6c8f2eece985d8e374c,65d2ba24740075f26ae75ff9,0.0551,0.0552,0,119,119,41,1,onethree,,,,,,,,,,,,,,,,,,,,,,,,,,,,,,,,,,,,,,,,,,,,,,,,,,,,,,,,,,,,,,,,,,,,,,,,,,,,,,,,,,,,,,,,,,,,,,,,,,,,,,,,,,,,,,,,,,,,,,,,,,,,,,,,,,,,,,,,,
,,60adbd85d31d5039d3638816,2024-02-19_15h17.31.020,kallum_motion_pilot,2023.2.2,Win32,60.24096386,60adbd85d31d5039d3638816,65d2b6c8f2eece985d8e374c,65d2ba24740075f26ae75ff9,0.0553,0.0553,0,120,120,93,1,seveneight,,,,,,,,,,,,,,,,,,,,,,,,,,,,,,,,,,,,,,,,,,,,,,,,,,,,,,,,,,,,,,,,,,,,,,,,,,,,,,,,,,,,,,,,,,,,,,,,,,,,,,,,,,,,,,,,,,,,,,,,,,,,,,,,,,,,,,,,,
,,60adbd85d31d5039d3638816,2024-02-19_15h17.31.020,kallum_motion_pilot,2023.2.2,Win32,60.24096386,60adbd85d31d5039d3638816,65d2b6c8f2eece985d8e374c,65d2ba24740075f26ae75ff9,0.0556,0.0557,0,121,121,33,1,onethree,,,,,,,,,,,,,,,,,,,,,,,,,,,,,,,,,,,,,,,,,,,,,,,,,,,,,,,,,,,,,,,,,,,,,,,,,,,,,,,,,,,,,,,,,,,,,,,,,,,,,,,,,,,,,,,,,,,,,,,,,,,,,,,,,,,,,,,,,
,,60adbd85d31d5039d3638816,2024-02-19_15h17.31.020,kallum_motion_pilot,2023.2.2,Win32,60.24096386,60adbd85d31d5039d3638816,65d2b6c8f2eece985d8e374c,65d2ba24740075f26ae75ff9,0.0558,0.056,0,122,122,147,1,sixeight,,,,,,,,,,,,,,,,,,,,,,,,,,,,,,,,,,,,,,,,,,,,,,,,,,,,,,,,,,,,,,,,,,,,,,,,,,,,,,,,,,,,,,,,,,,,,,,,,,,,,,,,,,,,,,,,,,,,,,,,,,,,,,,,,,,,,,,,,
,,60adbd85d31d5039d3638816,2024-02-19_15h17.31.020,kallum_motion_pilot,2023.2.2,Win32,60.24096386,60adbd85d31d5039d3638816,65d2b6c8f2eece985d8e374c,65d2ba24740075f26ae75ff9,0.056,0.0561,0,123,123,108,1,sevenfive,,,,,,,,,,,,,,,,,,,,,,,,,,,,,,,,,,,,,,,,,,,,,,,,,,,,,,,,,,,,,,,,,,,,,,,,,,,,,,,,,,,,,,,,,,,,,,,,,,,,,,,,,,,,,,,,,,,,,,,,,,,,,,,,,,,,,,,,,
,,60adbd85d31d5039d3638816,2024-02-19_15h17.31.020,kallum_motion_pilot,2023.2.2,Win32,60.24096386,60adbd85d31d5039d3638816,65d2b6c8f2eece985d8e374c,65d2ba24740075f26ae75ff9,0.0562,0.0562,0,124,124,34,1,twoone,,,,,,,,,,,,,,,,,,,,,,,,,,,,,,,,,,,,,,,,,,,,,,,,,,,,,,,,,,,,,,,,,,,,,,,,,,,,,,,,,,,,,,,,,,,,,,,,,,,,,,,,,,,,,,,,,,,,,,,,,,,,,,,,,,,,,,,,,
,,60adbd85d31d5039d3638816,2024-02-19_15h17.31.020,kallum_motion_pilot,2023.2.2,Win32,60.24096386,60adbd85d31d5039d3638816,65d2b6c8f2eece985d8e374c,65d2ba24740075f26ae75ff9,0.0564,0.0565,0,125,125,49,1,onethree,,,,,,,,,,,,,,,,,,,,,,,,,,,,,,,,,,,,,,,,,,,,,,,,,,,,,,,,,,,,,,,,,,,,,,,,,,,,,,,,,,,,,,,,,,,,,,,,,,,,,,,,,,,,,,,,,,,,,,,,,,,,,,,,,,,,,,,,,
,,60adbd85d31d5039d3638816,2024-02-19_15h17.31.020,kallum_motion_pilot,2023.2.2,Win32,60.24096386,60adbd85d31d5039d3638816,65d2b6c8f2eece985d8e374c,65d2ba24740075f26ae75ff9,0.0565,0.0566,0,126,126,78,1,fourtwo,,,,,,,,,,,,,,,,,,,,,,,,,,,,,,,,,,,,,,,,,,,,,,,,,,,,,,,,,,,,,,,,,,,,,,,,,,,,,,,,,,,,,,,,,,,,,,,,,,,,,,,,,,,,,,,,,,,,,,,,,,,,,,,,,,,,,,,,,
,,60adbd85d31d5039d3638816,2024-02-19_15h17.31.020,kallum_motion_pilot,2023.2.2,Win32,60.24096386,60adbd85d31d5039d3638816,65d2b6c8f2eece985d8e374c,65d2ba24740075f26ae75ff9,0.0568,0.0569,0,127,127,87,1,eightseven,,,,,,,,,,,,,,,,,,,,,,,,,,,,,,,,,,,,,,,,,,,,,,,,,,,,,,,,,,,,,,,,,,,,,,,,,,,,,,,,,,,,,,,,,,,,,,,,,,,,,,,,,,,,,,,,,,,,,,,,,,,,,,,,,,,,,,,,,
,,60adbd85d31d5039d3638816,2024-02-19_15h17.31.020,kallum_motion_pilot,2023.2.2,Win32,60.24096386,60adbd85d31d5039d3638816,65d2b6c8f2eece985d8e374c,65d2ba24740075f26ae75ff9,0.057,0.0571,0,128,128,0,1,onetwo,,,,,,,,,,,,,,,,,,,,,,,,,,,,,,,,,,,,,,,,,,,,,,,,,,,,,,,,,,,,,,,,,,,,,,,,,,,,,,,,,,,,,,,,,,,,,,,,,,,,,,,,,,,,,,,,,,,,,,,,,,,,,,,,,,,,,,,,,
,,60adbd85d31d5039d3638816,2024-02-19_15h17.31.020,kallum_motion_pilot,2023.2.2,Win32,60.24096386,60adbd85d31d5039d3638816,65d2b6c8f2eece985d8e374c,65d2ba24740075f26ae75ff9,0.0573,0.0575,0,129,129,130,1,sixfive,,,,,,,,,,,,,,,,,,,,,,,,,,,,,,,,,,,,,,,,,,,,,,,,,,,,,,,,,,,,,,,,,,,,,,,,,,,,,,,,,,,,,,,,,,,,,,,,,,,,,,,,,,,,,,,,,,,,,,,,,,,,,,,,,,,,,,,,,
,,60adbd85d31d5039d3638816,2024-02-19_15h17.31.020,kallum_motion_pilot,2023.2.2,Win32,60.24096386,60adbd85d31d5039d3638816,65d2b6c8f2eece985d8e374c,65d2ba24740075f26ae75ff9,0.0575,0.0575,0,130,130,44,1,threeone,,,,,,,,,,,,,,,,,,,,,,,,,,,,,,,,,,,,,,,,,,,,,,,,,,,,,,,,,,,,,,,,,,,,,,,,,,,,,,,,,,,,,,,,,,,,,,,,,,,,,,,,,,,,,,,,,,,,,,,,,,,,,,,,,,,,,,,,,
,,60adbd85d31d5039d3638816,2024-02-19_15h17.31.020,kallum_motion_pilot,2023.2.2,Win32,60.24096386,60adbd85d31d5039d3638816,65d2b6c8f2eece985d8e374c,65d2ba24740075f26ae75ff9,0.0578,0.0578,0,131,131,149,1,seveneight,,,,,,,,,,,,,,,,,,,,,,,,,,,,,,,,,,,,,,,,,,,,,,,,,,,,,,,,,,,,,,,,,,,,,,,,,,,,,,,,,,,,,,,,,,,,,,,,,,,,,,,,,,,,,,,,,,,,,,,,,,,,,,,,,,,,,,,,,
,,60adbd85d31d5039d3638816,2024-02-19_15h17.31.020,kallum_motion_pilot,2023.2.2,Win32,60.24096386,60adbd85d31d5039d3638816,65d2b6c8f2eece985d8e374c,65d2ba24740075f26ae75ff9,0.0579,0.058,0,132,132,24,1,onetwo,,,,,,,,,,,,,,,,,,,,,,,,,,,,,,,,,,,,,,,,,,,,,,,,,,,,,,,,,,,,,,,,,,,,,,,,,,,,,,,,,,,,,,,,,,,,,,,,,,,,,,,,,,,,,,,,,,,,,,,,,,,,,,,,,,,,,,,,,
,,60adbd85d31d5039d3638816,2024-02-19_15h17.31.020,kallum_motion_pilot,2023.2.2,Win32,60.24096386,60adbd85d31d5039d3638816,65d2b6c8f2eece985d8e374c,65d2ba24740075f26ae75ff9,0.0581,0.0582,0,133,133,72,1,onetwo,,,,,,,,,,,,,,,,,,,,,,,,,,,,,,,,,,,,,,,,,,,,,,,,,,,,,,,,,,,,,,,,,,,,,,,,,,,,,,,,,,,,,,,,,,,,,,,,,,,,,,,,,,,,,,,,,,,,,,,,,,,,,,,,,,,,,,,,,
,,60adbd85d31d5039d3638816,2024-02-19_15h17.31.020,kallum_motion_pilot,2023.2.2,Win32,60.24096386,60adbd85d31d5039d3638816,65d2b6c8f2eece985d8e374c,65d2ba24740075f26ae75ff9,0.0582,0.0583,0,134,134,55,1,fourthree,,,,,,,,,,,,,,,,,,,,,,,,,,,,,,,,,,,,,,,,,,,,,,,,,,,,,,,,,,,,,,,,,,,,,,,,,,,,,,,,,,,,,,,,,,,,,,,,,,,,,,,,,,,,,,,,,,,,,,,,,,,,,,,,,,,,,,,,,
,,60adbd85d31d5039d3638816,2024-02-19_15h17.31.020,kallum_motion_pilot,2023.2.2,Win32,60.24096386,60adbd85d31d5039d3638816,65d2b6c8f2eece985d8e374c,65d2ba24740075f26ae75ff9,0.0583,0.0584,0,135,135,42,1,twoone,,,,,,,,,,,,,,,,,,,,,,,,,,,,,,,,,,,,,,,,,,,,,,,,,,,,,,,,,,,,,,,,,,,,,,,,,,,,,,,,,,,,,,,,,,,,,,,,,,,,,,,,,,,,,,,,,,,,,,,,,,,,,,,,,,,,,,,,,
,,60adbd85d31d5039d3638816,2024-02-19_15h17.31.020,kallum_motion_pilot,2023.2.2,Win32,60.24096386,60adbd85d31d5039d3638816,65d2b6c8f2eece985d8e374c,65d2ba24740075f26ae75ff9,0.0585,0.0586,0,136,136,132,1,sevenfive,,,,,,,,,,,,,,,,,,,,,,,,,,,,,,,,,,,,,,,,,,,,,,,,,,,,,,,,,,,,,,,,,,,,,,,,,,,,,,,,,,,,,,,,,,,,,,,,,,,,,,,,,,,,,,,,,,,,,,,,,,,,,,,,,,,,,,,,,
,,60adbd85d31d5039d3638816,2024-02-19_15h17.31.020,kallum_motion_pilot,2023.2.2,Win32,60.24096386,60adbd85d31d5039d3638816,65d2b6c8f2eece985d8e374c,65d2ba24740075f26ae75ff9,0.0587,0.0588,0,137,137,153,1,fiveseven,,,,,,,,,,,,,,,,,,,,,,,,,,,,,,,,,,,,,,,,,,,,,,,,,,,,,,,,,,,,,,,,,,,,,,,,,,,,,,,,,,,,,,,,,,,,,,,,,,,,,,,,,,,,,,,,,,,,,,,,,,,,,,,,,,,,,,,,,
,,60adbd85d31d5039d3638816,2024-02-19_15h17.31.020,kallum_motion_pilot,2023.2.2,Win32,60.24096386,60adbd85d31d5039d3638816,65d2b6c8f2eece985d8e374c,65d2ba24740075f26ae75ff9,0.0589,0.059,0,138,138,117,1,seveneight,,,,,,,,,,,,,,,,,,,,,,,,,,,,,,,,,,,,,,,,,,,,,,,,,,,,,,,,,,,,,,,,,,,,,,,,,,,,,,,,,,,,,,,,,,,,,,,,,,,,,,,,,,,,,,,,,,,,,,,,,,,,,,,,,,,,,,,,,
,,60adbd85d31d5039d3638816,2024-02-19_15h17.31.020,kallum_motion_pilot,2023.2.2,Win32,60.24096386,60adbd85d31d5039d3638816,65d2b6c8f2eece985d8e374c,65d2ba24740075f26ae75ff9,0.0591,0.0593,0,139,139,12,1,threeone,,,,,,,,,,,,,,,,,,,,,,,,,,,,,,,,,,,,,,,,,,,,,,,,,,,,,,,,,,,,,,,,,,,,,,,,,,,,,,,,,,,,,,,,,,,,,,,,,,,,,,,,,,,,,,,,,,,,,,,,,,,,,,,,,,,,,,,,,
,,60adbd85d31d5039d3638816,2024-02-19_15h17.31.020,kallum_motion_pilot,2023.2.2,Win32,60.24096386,60adbd85d31d5039d3638816,65d2b6c8f2eece985d8e374c,65d2ba24740075f26ae75ff9,0.0594,0.0595,0,140,140,23,1,fourthree,,,,,,,,,,,,,,,,,,,,,,,,,,,,,,,,,,,,,,,,,,,,,,,,,,,,,,,,,,,,,,,,,,,,,,,,,,,,,,,,,,,,,,,,,,,,,,,,,,,,,,,,,,,,,,,,,,,,,,,,,,,,,,,,,,,,,,,,,
,,60adbd85d31d5039d3638816,2024-02-19_15h17.31.020,kallum_motion_pilot,2023.2.2,Win32,60.24096386,60adbd85d31d5039d3638816,65d2b6c8f2eece985d8e374c,65d2ba24740075f26ae75ff9,0.0599,0.06,0,141,141,20,1,threeone,,,,,,,,,,,,,,,,,,,,,,,,,,,,,,,,,,,,,,,,,,,,,,,,,,,,,,,,,,,,,,,,,,,,,,,,,,,,,,,,,,,,,,,,,,,,,,,,,,,,,,,,,,,,,,,,,,,,,,,,,,,,,,,,,,,,,,,,,
,,60adbd85d31d5039d3638816,2024-02-19_15h17.31.020,kallum_motion_pilot,2023.2.2,Win32,60.24096386,60adbd85d31d5039d3638816,65d2b6c8f2eece985d8e374c,65d2ba24740075f26ae75ff9,0.0601,0.0603,0,142,142,137,1,fiveseven,,,,,,,,,,,,,,,,,,,,,,,,,,,,,,,,,,,,,,,,,,,,,,,,,,,,,,,,,,,,,,,,,,,,,,,,,,,,,,,,,,,,,,,,,,,,,,,,,,,,,,,,,,,,,,,,,,,,,,,,,,,,,,,,,,,,,,,,,
,,60adbd85d31d5039d3638816,2024-02-19_15h17.31.020,kallum_motion_pilot,2023.2.2,Win32,60.24096386,60adbd85d31d5039d3638816,65d2b6c8f2eece985d8e374c,65d2ba24740075f26ae75ff9,0.0615,0.062,0,143,143,136,1,fivesix,,,,,,,,,,,,,,,,,,,,,,,,,,,,,,,,,,,,,,,,,,,,,,,,,,,,,,,,,,,,,,,,,,,,,,,,,,,,,,,,,,,,,,,,,,,,,,,,,,,,,,,,,,,,,,,,,,,,,,,,,,,,,,,,,,,,,,,,,
,,60adbd85d31d5039d3638816,2024-02-19_15h17.31.020,kallum_motion_pilot,2023.2.2,Win32,60.24096386,60adbd85d31d5039d3638816,65d2b6c8f2eece985d8e374c,65d2ba24740075f26ae75ff9,0.0626,0.0628,0,144,144,121,1,fiveseven,,,,,,,,,,,,,,,,,,,,,,,,,,,,,,,,,,,,,,,,,,,,,,,,,,,,,,,,,,,,,,,,,,,,,,,,,,,,,,,,,,,,,,,,,,,,,,,,,,,,,,,,,,,,,,,,,,,,,,,,,,,,,,,,,,,,,,,,,
,,60adbd85d31d5039d3638816,2024-02-19_15h17.31.020,kallum_motion_pilot,2023.2.2,Win32,60.24096386,60adbd85d31d5039d3638816,65d2b6c8f2eece985d8e374c,65d2ba24740075f26ae75ff9,0.063,0.0631,0,145,145,88,1,fivesix,,,,,,,,,,,,,,,,,,,,,,,,,,,,,,,,,,,,,,,,,,,,,,,,,,,,,,,,,,,,,,,,,,,,,,,,,,,,,,,,,,,,,,,,,,,,,,,,,,,,,,,,,,,,,,,,,,,,,,,,,,,,,,,,,,,,,,,,,
,,60adbd85d31d5039d3638816,2024-02-19_15h17.31.020,kallum_motion_pilot,2023.2.2,Win32,60.24096386,60adbd85d31d5039d3638816,65d2b6c8f2eece985d8e374c,65d2ba24740075f26ae75ff9,0.0632,0.0634,0,146,146,25,1,onethree,,,,,,,,,,,,,,,,,,,,,,,,,,,,,,,,,,,,,,,,,,,,,,,,,,,,,,,,,,,,,,,,,,,,,,,,,,,,,,,,,,,,,,,,,,,,,,,,,,,,,,,,,,,,,,,,,,,,,,,,,,,,,,,,,,,,,,,,,
,,60adbd85d31d5039d3638816,2024-02-19_15h17.31.020,kallum_motion_pilot,2023.2.2,Win32,60.24096386,60adbd85d31d5039d3638816,65d2b6c8f2eece985d8e374c,65d2ba24740075f26ae75ff9,0.0635,0.0636,0,147,147,18,1,twoone,,,,,,,,,,,,,,,,,,,,,,,,,,,,,,,,,,,,,,,,,,,,,,,,,,,,,,,,,,,,,,,,,,,,,,,,,,,,,,,,,,,,,,,,,,,,,,,,,,,,,,,,,,,,,,,,,,,,,,,,,,,,,,,,,,,,,,,,,
,,60adbd85d31d5039d3638816,2024-02-19_15h17.31.020,kallum_motion_pilot,2023.2.2,Win32,60.24096386,60adbd85d31d5039d3638816,65d2b6c8f2eece985d8e374c,65d2ba24740075f26ae75ff9,0.0637,0.0638,0,148,148,79,1,eightseven,,,,,,,,,,,,,,,,,,,,,,,,,,,,,,,,,,,,,,,,,,,,,,,,,,,,,,,,,,,,,,,,,,,,,,,,,,,,,,,,,,,,,,,,,,,,,,,,,,,,,,,,,,,,,,,,,,,,,,,,,,,,,,,,,,,,,,,,,
,,60adbd85d31d5039d3638816,2024-02-19_15h17.31.020,kallum_motion_pilot,2023.2.2,Win32,60.24096386,60adbd85d31d5039d3638816,65d2b6c8f2eece985d8e374c,65d2ba24740075f26ae75ff9,0.064,0.064,0,149,149,96,1,fivesix,,,,,,,,,,,,,,,,,,,,,,,,,,,,,,,,,,,,,,,,,,,,,,,,,,,,,,,,,,,,,,,,,,,,,,,,,,,,,,,,,,,,,,,,,,,,,,,,,,,,,,,,,,,,,,,,,,,,,,,,,,,,,,,,,,,,,,,,,
,,60adbd85d31d5039d3638816,2024-02-19_15h17.31.020,kallum_motion_pilot,2023.2.2,Win32,60.24096386,60adbd85d31d5039d3638816,65d2b6c8f2eece985d8e374c,65d2ba24740075f26ae75ff9,0.0641,0.0643,0,150,150,91,1,sixeight,,,,,,,,,,,,,,,,,,,,,,,,,,,,,,,,,,,,,,,,,,,,,,,,,,,,,,,,,,,,,,,,,,,,,,,,,,,,,,,,,,,,,,,,,,,,,,,,,,,,,,,,,,,,,,,,,,,,,,,,,,,,,,,,,,,,,,,,,
,,60adbd85d31d5039d3638816,2024-02-19_15h17.31.020,kallum_motion_pilot,2023.2.2,Win32,60.24096386,60adbd85d31d5039d3638816,65d2b6c8f2eece985d8e374c,65d2ba24740075f26ae75ff9,0.0643,0.0644,0,151,151,74,1,twoone,,,,,,,,,,,,,,,,,,,,,,,,,,,,,,,,,,,,,,,,,,,,,,,,,,,,,,,,,,,,,,,,,,,,,,,,,,,,,,,,,,,,,,,,,,,,,,,,,,,,,,,,,,,,,,,,,,,,,,,,,,,,,,,,,,,,,,,,,
,,60adbd85d31d5039d3638816,2024-02-19_15h17.31.020,kallum_motion_pilot,2023.2.2,Win32,60.24096386,60adbd85d31d5039d3638816,65d2b6c8f2eece985d8e374c,65d2ba24740075f26ae75ff9,0.0646,0.0646,0,152,152,47,1,fourthree,,,,,,,,,,,,,,,,,,,,,,,,,,,,,,,,,,,,,,,,,,,,,,,,,,,,,,,,,,,,,,,,,,,,,,,,,,,,,,,,,,,,,,,,,,,,,,,,,,,,,,,,,,,,,,,,,,,,,,,,,,,,,,,,,,,,,,,,,
,,60adbd85d31d5039d3638816,2024-02-19_15h17.31.020,kallum_motion_pilot,2023.2.2,Win32,60.24096386,60adbd85d31d5039d3638816,65d2b6c8f2eece985d8e374c,65d2ba24740075f26ae75ff9,0.0647,0.0648,0,153,153,145,1,fiveseven,,,,,,,,,,,,,,,,,,,,,,,,,,,,,,,,,,,,,,,,,,,,,,,,,,,,,,,,,,,,,,,,,,,,,,,,,,,,,,,,,,,,,,,,,,,,,,,,,,,,,,,,,,,,,,,,,,,,,,,,,,,,,,,,,,,,,,,,,
,,60adbd85d31d5039d3638816,2024-02-19_15h17.31.020,kallum_motion_pilot,2023.2.2,Win32,60.24096386,60adbd85d31d5039d3638816,65d2b6c8f2eece985d8e374c,65d2ba24740075f26ae75ff9,0.0649,0.065,0,154,154,135,1,eightseven,,,,,,,,,,,,,,,,,,,,,,,,,,,,,,,,,,,,,,,,,,,,,,,,,,,,,,,,,,,,,,,,,,,,,,,,,,,,,,,,,,,,,,,,,,,,,,,,,,,,,,,,,,,,,,,,,,,,,,,,,,,,,,,,,,,,,,,,,
,,60adbd85d31d5039d3638816,2024-02-19_15h17.31.020,kallum_motion_pilot,2023.2.2,Win32,60.24096386,60adbd85d31d5039d3638816,65d2b6c8f2eece985d8e374c,65d2ba24740075f26ae75ff9,0.0651,0.0651,0,155,155,119,1,eightseven,,,,,,,,,,,,,,,,,,,,,,,,,,,,,,,,,,,,,,,,,,,,,,,,,,,,,,,,,,,,,,,,,,,,,,,,,,,,,,,,,,,,,,,,,,,,,,,,,,,,,,,,,,,,,,,,,,,,,,,,,,,,,,,,,,,,,,,,,
,,60adbd85d31d5039d3638816,2024-02-19_15h17.31.020,kallum_motion_pilot,2023.2.2,Win32,60.24096386,60adbd85d31d5039d3638816,65d2b6c8f2eece985d8e374c,65d2ba24740075f26ae75ff9,0.0652,0.0653,0,156,156,103,1,eightseven,,,,,,,,,,,,,,,,,,,,,,,,,,,,,,,,,,,,,,,,,,,,,,,,,,,,,,,,,,,,,,,,,,,,,,,,,,,,,,,,,,,,,,,,,,,,,,,,,,,,,,,,,,,,,,,,,,,,,,,,,,,,,,,,,,,,,,,,,
,,60adbd85d31d5039d3638816,2024-02-19_15h17.31.020,kallum_motion_pilot,2023.2.2,Win32,60.24096386,60adbd85d31d5039d3638816,65d2b6c8f2eece985d8e374c,65d2ba24740075f26ae75ff9,0.0654,0.0655,0,157,157,6,1,fourtwo,,,,,,,,,,,,,,,,,,,,,,,,,,,,,,,,,,,,,,,,,,,,,,,,,,,,,,,,,,,,,,,,,,,,,,,,,,,,,,,,,,,,,,,,,,,,,,,,,,,,,,,,,,,,,,,,,,,,,,,,,,,,,,,,,,,,,,,,,
,,60adbd85d31d5039d3638816,2024-02-19_15h17.31.020,kallum_motion_pilot,2023.2.2,Win32,60.24096386,60adbd85d31d5039d3638816,65d2b6c8f2eece985d8e374c,65d2ba24740075f26ae75ff9,0.0656,0.0657,0,158,158,52,1,threeone,,,,,,,,,,,,,,,,,,,,,,,,,,,,,,,,,,,,,,,,,,,,,,,,,,,,,,,,,,,,,,,,,,,,,,,,,,,,,,,,,,,,,,,,,,,,,,,,,,,,,,,,,,,,,,,,,,,,,,,,,,,,,,,,,,,,,,,,,
,,60adbd85d31d5039d3638816,2024-02-19_15h17.31.020,kallum_motion_pilot,2023.2.2,Win32,60.24096386,60adbd85d31d5039d3638816,65d2b6c8f2eece985d8e374c,65d2ba24740075f26ae75ff9,0.0658,0.0658,0,159,159,90,1,sixfive,,,,,,,,,,,,,,,,,,,,,,,,,,,,,,,,,,,,,,,,,,,,,,,,,,,,,,,,,,,,,,,,,,,,,,,,,,,,,,,,,,,,,,,,,,,,,,,,,,,,,,,,,,,,,,,,,,,,,,,,,,,,,,,,,,,,,,,,,
,,60adbd85d31d5039d3638816,2024-02-19_15h17.31.020,kallum_motion_pilot,2023.2.2,Win32,60.24096386,60adbd85d31d5039d3638816,65d2b6c8f2eece985d8e374c,65d2ba24740075f26ae75ff9,0.066,0.0661,0,160,160,7,1,fourthree,,,,,,,,,,,,,,,,,,,,,,,,,,,,,,,,,,,,,,,,,,,,,,,,,,,,,,,,,,,,,,,,,,,,,,,,,,,,,,,,,,,,,,,,,,,,,,,,,,,,,,,,,,,,,,,,,,,,,,,,,,,,,,,,,,,,,,,,,
,,60adbd85d31d5039d3638816,2024-02-19_15h17.31.020,kallum_motion_pilot,2023.2.2,Win32,60.24096386,60adbd85d31d5039d3638816,65d2b6c8f2eece985d8e374c,65d2ba24740075f26ae75ff9,0.0662,0.0663,0,161,161,13,1,threefour,,,,,,,,,,,,,,,,,,,,,,,,,,,,,,,,,,,,,,,,,,,,,,,,,,,,,,,,,,,,,,,,,,,,,,,,,,,,,,,,,,,,,,,,,,,,,,,,,,,,,,,,,,,,,,,,,,,,,,,,,,,,,,,,,,,,,,,,,
,,60adbd85d31d5039d3638816,2024-02-19_15h17.31.020,kallum_motion_pilot,2023.2.2,Win32,60.24096386,60adbd85d31d5039d3638816,65d2b6c8f2eece985d8e374c,65d2ba24740075f26ae75ff9,0.0664,0.0666,1,0,162,117,1,seveneight,,,,,,,,,,,,,,,,,,,,,,,,,,,,,,,,,,,,,,,,,,,,,,,,,,,,,,,,,,,,,,,,,,,,,,,,,,,,,,,,,,,,,,,,,,,,,,,,,,,,,,,,,,,,,,,,,,,,,,,,,,,,,,,,,,,,,,,,,
,,60adbd85d31d5039d3638816,2024-02-19_15h17.31.020,kallum_motion_pilot,2023.2.2,Win32,60.24096386,60adbd85d31d5039d3638816,65d2b6c8f2eece985d8e374c,65d2ba24740075f26ae75ff9,0.0667,0.0668,1,1,163,153,1,fiveseven,,,,,,,,,,,,,,,,,,,,,,,,,,,,,,,,,,,,,,,,,,,,,,,,,,,,,,,,,,,,,,,,,,,,,,,,,,,,,,,,,,,,,,,,,,,,,,,,,,,,,,,,,,,,,,,,,,,,,,,,,,,,,,,,,,,,,,,,,
,,60adbd85d31d5039d3638816,2024-02-19_15h17.31.020,kallum_motion_pilot,2023.2.2,Win32,60.24096386,60adbd85d31d5039d3638816,65d2b6c8f2eece985d8e374c,65d2ba24740075f26ae75ff9,0.0668,0.0669,1,2,164,97,1,fiveseven,,,,,,,,,,,,,,,,,,,,,,,,,,,,,,,,,,,,,,,,,,,,,,,,,,,,,,,,,,,,,,,,,,,,,,,,,,,,,,,,,,,,,,,,,,,,,,,,,,,,,,,,,,,,,,,,,,,,,,,,,,,,,,,,,,,,,,,,,
,,60adbd85d31d5039d3638816,2024-02-19_15h17.31.020,kallum_motion_pilot,2023.2.2,Win32,60.24096386,60adbd85d31d5039d3638816,65d2b6c8f2eece985d8e374c,65d2ba24740075f26ae75ff9,0.0671,0.0671,1,3,165,47,1,fourthree,,,,,,,,,,,,,,,,,,,,,,,,,,,,,,,,,,,,,,,,,,,,,,,,,,,,,,,,,,,,,,,,,,,,,,,,,,,,,,,,,,,,,,,,,,,,,,,,,,,,,,,,,,,,,,,,,,,,,,,,,,,,,,,,,,,,,,,,,
,,60adbd85d31d5039d3638816,2024-02-19_15h17.31.020,kallum_motion_pilot,2023.2.2,Win32,60.24096386,60adbd85d31d5039d3638816,65d2b6c8f2eece985d8e374c,65d2ba24740075f26ae75ff9,0.0672,0.0672,1,4,166,127,1,eightseven,,,,,,,,,,,,,,,,,,,,,,,,,,,,,,,,,,,,,,,,,,,,,,,,,,,,,,,,,,,,,,,,,,,,,,,,,,,,,,,,,,,,,,,,,,,,,,,,,,,,,,,,,,,,,,,,,,,,,,,,,,,,,,,,,,,,,,,,,
,,60adbd85d31d5039d3638816,2024-02-19_15h17.31.020,kallum_motion_pilot,2023.2.2,Win32,60.24096386,60adbd85d31d5039d3638816,65d2b6c8f2eece985d8e374c,65d2ba24740075f26ae75ff9,0.0674,0.0675,1,5,167,149,1,seveneight,,,,,,,,,,,,,,,,,,,,,,,,,,,,,,,,,,,,,,,,,,,,,,,,,,,,,,,,,,,,,,,,,,,,,,,,,,,,,,,,,,,,,,,,,,,,,,,,,,,,,,,,,,,,,,,,,,,,,,,,,,,,,,,,,,,,,,,,,
,,60adbd85d31d5039d3638816,2024-02-19_15h17.31.020,kallum_motion_pilot,2023.2.2,Win32,60.24096386,60adbd85d31d5039d3638816,65d2b6c8f2eece985d8e374c,65d2ba24740075f26ae75ff9,0.0675,0.0677,1,6,168,15,1,fourthree,,,,,,,,,,,,,,,,,,,,,,,,,,,,,,,,,,,,,,,,,,,,,,,,,,,,,,,,,,,,,,,,,,,,,,,,,,,,,,,,,,,,,,,,,,,,,,,,,,,,,,,,,,,,,,,,,,,,,,,,,,,,,,,,,,,,,,,,,
,,60adbd85d31d5039d3638816,2024-02-19_15h17.31.020,kallum_motion_pilot,2023.2.2,Win32,60.24096386,60adbd85d31d5039d3638816,65d2b6c8f2eece985d8e374c,65d2ba24740075f26ae75ff9,0.0678,0.0678,1,7,169,37,1,threefour,,,,,,,,,,,,,,,,,,,,,,,,,,,,,,,,,,,,,,,,,,,,,,,,,,,,,,,,,,,,,,,,,,,,,,,,,,,,,,,,,,,,,,,,,,,,,,,,,,,,,,,,,,,,,,,,,,,,,,,,,,,,,,,,,,,,,,,,,
,,60adbd85d31d5039d3638816,2024-02-19_15h17.31.020,kallum_motion_pilot,2023.2.2,Win32,60.24096386,60adbd85d31d5039d3638816,65d2b6c8f2eece985d8e374c,65d2ba24740075f26ae75ff9,0.0679,0.068,1,8,170,80,1,fivesix,,,,,,,,,,,,,,,,,,,,,,,,,,,,,,,,,,,,,,,,,,,,,,,,,,,,,,,,,,,,,,,,,,,,,,,,,,,,,,,,,,,,,,,,,,,,,,,,,,,,,,,,,,,,,,,,,,,,,,,,,,,,,,,,,,,,,,,,,
,,60adbd85d31d5039d3638816,2024-02-19_15h17.31.020,kallum_motion_pilot,2023.2.2,Win32,60.24096386,60adbd85d31d5039d3638816,65d2b6c8f2eece985d8e374c,65d2ba24740075f26ae75ff9,0.0681,0.0682,1,9,171,128,1,fivesix,,,,,,,,,,,,,,,,,,,,,,,,,,,,,,,,,,,,,,,,,,,,,,,,,,,,,,,,,,,,,,,,,,,,,,,,,,,,,,,,,,,,,,,,,,,,,,,,,,,,,,,,,,,,,,,,,,,,,,,,,,,,,,,,,,,,,,,,,
,,60adbd85d31d5039d3638816,2024-02-19_15h17.31.020,kallum_motion_pilot,2023.2.2,Win32,60.24096386,60adbd85d31d5039d3638816,65d2b6c8f2eece985d8e374c,65d2ba24740075f26ae75ff9,0.0684,0.0685,1,10,172,96,1,fivesix,,,,,,,,,,,,,,,,,,,,,,,,,,,,,,,,,,,,,,,,,,,,,,,,,,,,,,,,,,,,,,,,,,,,,,,,,,,,,,,,,,,,,,,,,,,,,,,,,,,,,,,,,,,,,,,,,,,,,,,,,,,,,,,,,,,,,,,,,
,,60adbd85d31d5039d3638816,2024-02-19_15h17.31.020,kallum_motion_pilot,2023.2.2,Win32,60.24096386,60adbd85d31d5039d3638816,65d2b6c8f2eece985d8e374c,65d2ba24740075f26ae75ff9,0.0685,0.0687,1,11,173,118,1,eightsix,,,,,,,,,,,,,,,,,,,,,,,,,,,,,,,,,,,,,,,,,,,,,,,,,,,,,,,,,,,,,,,,,,,,,,,,,,,,,,,,,,,,,,,,,,,,,,,,,,,,,,,,,,,,,,,,,,,,,,,,,,,,,,,,,,,,,,,,,
,,60adbd85d31d5039d3638816,2024-02-19_15h17.31.020,kallum_motion_pilot,2023.2.2,Win32,60.24096386,60adbd85d31d5039d3638816,65d2b6c8f2eece985d8e374c,65d2ba24740075f26ae75ff9,0.0687,0.0687,1,12,174,21,1,threefour,,,,,,,,,,,,,,,,,,,,,,,,,,,,,,,,,,,,,,,,,,,,,,,,,,,,,,,,,,,,,,,,,,,,,,,,,,,,,,,,,,,,,,,,,,,,,,,,,,,,,,,,,,,,,,,,,,,,,,,,,,,,,,,,,,,,,,,,,
,,60adbd85d31d5039d3638816,2024-02-19_15h17.31.020,kallum_motion_pilot,2023.2.2,Win32,60.24096386,60adbd85d31d5039d3638816,65d2b6c8f2eece985d8e374c,65d2ba24740075f26ae75ff9,0.0689,0.069,1,13,175,98,1,sixfive,,,,,,,,,,,,,,,,,,,,,,,,,,,,,,,,,,,,,,,,,,,,,,,,,,,,,,,,,,,,,,,,,,,,,,,,,,,,,,,,,,,,,,,,,,,,,,,,,,,,,,,,,,,,,,,,,,,,,,,,,,,,,,,,,,,,,,,,,
,,60adbd85d31d5039d3638816,2024-02-19_15h17.31.020,kallum_motion_pilot,2023.2.2,Win32,60.24096386,60adbd85d31d5039d3638816,65d2b6c8f2eece985d8e374c,65d2ba24740075f26ae75ff9,0.0691,0.0692,1,14,176,18,1,twoone,,,,,,,,,,,,,,,,,,,,,,,,,,,,,,,,,,,,,,,,,,,,,,,,,,,,,,,,,,,,,,,,,,,,,,,,,,,,,,,,,,,,,,,,,,,,,,,,,,,,,,,,,,,,,,,,,,,,,,,,,,,,,,,,,,,,,,,,,
,,60adbd85d31d5039d3638816,2024-02-19_15h17.31.020,kallum_motion_pilot,2023.2.2,Win32,60.24096386,60adbd85d31d5039d3638816,65d2b6c8f2eece985d8e374c,65d2ba24740075f26ae75ff9,0.0693,0.0694,1,15,177,9,1,onethree,,,,,,,,,,,,,,,,,,,,,,,,,,,,,,,,,,,,,,,,,,,,,,,,,,,,,,,,,,,,,,,,,,,,,,,,,,,,,,,,,,,,,,,,,,,,,,,,,,,,,,,,,,,,,,,,,,,,,,,,,,,,,,,,,,,,,,,,,
,,60adbd85d31d5039d3638816,2024-02-19_15h17.31.020,kallum_motion_pilot,2023.2.2,Win32,60.24096386,60adbd85d31d5039d3638816,65d2b6c8f2eece985d8e374c,65d2ba24740075f26ae75ff9,0.0695,0.0697,1,16,178,75,1,twofour,,,,,,,,,,,,,,,,,,,,,,,,,,,,,,,,,,,,,,,,,,,,,,,,,,,,,,,,,,,,,,,,,,,,,,,,,,,,,,,,,,,,,,,,,,,,,,,,,,,,,,,,,,,,,,,,,,,,,,,,,,,,,,,,,,,,,,,,,
,,60adbd85d31d5039d3638816,2024-02-19_15h17.31.020,kallum_motion_pilot,2023.2.2,Win32,60.24096386,60adbd85d31d5039d3638816,65d2b6c8f2eece985d8e374c,65d2ba24740075f26ae75ff9,0.0698,0.0699,1,17,179,36,1,threeone,,,,,,,,,,,,,,,,,,,,,,,,,,,,,,,,,,,,,,,,,,,,,,,,,,,,,,,,,,,,,,,,,,,,,,,,,,,,,,,,,,,,,,,,,,,,,,,,,,,,,,,,,,,,,,,,,,,,,,,,,,,,,,,,,,,,,,,,,
,,60adbd85d31d5039d3638816,2024-02-19_15h17.31.020,kallum_motion_pilot,2023.2.2,Win32,60.24096386,60adbd85d31d5039d3638816,65d2b6c8f2eece985d8e374c,65d2ba24740075f26ae75ff9,0.07,0.07,1,18,180,133,1,seveneight,,,,,,,,,,,,,,,,,,,,,,,,,,,,,,,,,,,,,,,,,,,,,,,,,,,,,,,,,,,,,,,,,,,,,,,,,,,,,,,,,,,,,,,,,,,,,,,,,,,,,,,,,,,,,,,,,,,,,,,,,,,,,,,,,,,,,,,,,
,,60adbd85d31d5039d3638816,2024-02-19_15h17.31.020,kallum_motion_pilot,2023.2.2,Win32,60.24096386,60adbd85d31d5039d3638816,65d2b6c8f2eece985d8e374c,65d2ba24740075f26ae75ff9,0.0702,0.0703,1,19,181,19,1,twofour,,,,,,,,,,,,,,,,,,,,,,,,,,,,,,,,,,,,,,,,,,,,,,,,,,,,,,,,,,,,,,,,,,,,,,,,,,,,,,,,,,,,,,,,,,,,,,,,,,,,,,,,,,,,,,,,,,,,,,,,,,,,,,,,,,,,,,,,,
,,60adbd85d31d5039d3638816,2024-02-19_15h17.31.020,kallum_motion_pilot,2023.2.2,Win32,60.24096386,60adbd85d31d5039d3638816,65d2b6c8f2eece985d8e374c,65d2ba24740075f26ae75ff9,0.0704,0.0705,1,20,182,120,1,fivesix,,,,,,,,,,,,,,,,,,,,,,,,,,,,,,,,,,,,,,,,,,,,,,,,,,,,,,,,,,,,,,,,,,,,,,,,,,,,,,,,,,,,,,,,,,,,,,,,,,,,,,,,,,,,,,,,,,,,,,,,,,,,,,,,,,,,,,,,,
,,60adbd85d31d5039d3638816,2024-02-19_15h17.31.020,kallum_motion_pilot,2023.2.2,Win32,60.24096386,60adbd85d31d5039d3638816,65d2b6c8f2eece985d8e374c,65d2ba24740075f26ae75ff9,0.0706,0.0707,1,21,183,91,1,sixeight,,,,,,,,,,,,,,,,,,,,,,,,,,,,,,,,,,,,,,,,,,,,,,,,,,,,,,,,,,,,,,,,,,,,,,,,,,,,,,,,,,,,,,,,,,,,,,,,,,,,,,,,,,,,,,,,,,,,,,,,,,,,,,,,,,,,,,,,,
,,60adbd85d31d5039d3638816,2024-02-19_15h17.31.020,kallum_motion_pilot,2023.2.2,Win32,60.24096386,60adbd85d31d5039d3638816,65d2b6c8f2eece985d8e374c,65d2ba24740075f26ae75ff9,0.0709,0.0711,1,22,184,52,1,threeone,,,,,,,,,,,,,,,,,,,,,,,,,,,,,,,,,,,,,,,,,,,,,,,,,,,,,,,,,,,,,,,,,,,,,,,,,,,,,,,,,,,,,,,,,,,,,,,,,,,,,,,,,,,,,,,,,,,,,,,,,,,,,,,,,,,,,,,,,
,,60adbd85d31d5039d3638816,2024-02-19_15h17.31.020,kallum_motion_pilot,2023.2.2,Win32,60.24096386,60adbd85d31d5039d3638816,65d2b6c8f2eece985d8e374c,65d2ba24740075f26ae75ff9,0.0712,0.0712,1,23,185,82,1,sixfive,,,,,,,,,,,,,,,,,,,,,,,,,,,,,,,,,,,,,,,,,,,,,,,,,,,,,,,,,,,,,,,,,,,,,,,,,,,,,,,,,,,,,,,,,,,,,,,,,,,,,,,,,,,,,,,,,,,,,,,,,,,,,,,,,,,,,,,,,
,,60adbd85d31d5039d3638816,2024-02-19_15h17.31.020,kallum_motion_pilot,2023.2.2,Win32,60.24096386,60adbd85d31d5039d3638816,65d2b6c8f2eece985d8e374c,65d2ba24740075f26ae75ff9,0.0714,0.0716,1,24,186,95,1,eightseven,,,,,,,,,,,,,,,,,,,,,,,,,,,,,,,,,,,,,,,,,,,,,,,,,,,,,,,,,,,,,,,,,,,,,,,,,,,,,,,,,,,,,,,,,,,,,,,,,,,,,,,,,,,,,,,,,,,,,,,,,,,,,,,,,,,,,,,,,
,,60adbd85d31d5039d3638816,2024-02-19_15h17.31.020,kallum_motion_pilot,2023.2.2,Win32,60.24096386,60adbd85d31d5039d3638816,65d2b6c8f2eece985d8e374c,65d2ba24740075f26ae75ff9,0.0716,0.0718,1,25,187,113,1,fiveseven,,,,,,,,,,,,,,,,,,,,,,,,,,,,,,,,,,,,,,,,,,,,,,,,,,,,,,,,,,,,,,,,,,,,,,,,,,,,,,,,,,,,,,,,,,,,,,,,,,,,,,,,,,,,,,,,,,,,,,,,,,,,,,,,,,,,,,,,,
,,60adbd85d31d5039d3638816,2024-02-19_15h17.31.020,kallum_motion_pilot,2023.2.2,Win32,60.24096386,60adbd85d31d5039d3638816,65d2b6c8f2eece985d8e374c,65d2ba24740075f26ae75ff9,0.0718,0.072,1,26,188,157,1,seveneight,,,,,,,,,,,,,,,,,,,,,,,,,,,,,,,,,,,,,,,,,,,,,,,,,,,,,,,,,,,,,,,,,,,,,,,,,,,,,,,,,,,,,,,,,,,,,,,,,,,,,,,,,,,,,,,,,,,,,,,,,,,,,,,,,,,,,,,,,
,,60adbd85d31d5039d3638816,2024-02-19_15h17.31.020,kallum_motion_pilot,2023.2.2,Win32,60.24096386,60adbd85d31d5039d3638816,65d2b6c8f2eece985d8e374c,65d2ba24740075f26ae75ff9,0.0721,0.0722,1,27,189,60,1,threeone,,,,,,,,,,,,,,,,,,,,,,,,,,,,,,,,,,,,,,,,,,,,,,,,,,,,,,,,,,,,,,,,,,,,,,,,,,,,,,,,,,,,,,,,,,,,,,,,,,,,,,,,,,,,,,,,,,,,,,,,,,,,,,,,,,,,,,,,,
,,60adbd85d31d5039d3638816,2024-02-19_15h17.31.020,kallum_motion_pilot,2023.2.2,Win32,60.24096386,60adbd85d31d5039d3638816,65d2b6c8f2eece985d8e374c,65d2ba24740075f26ae75ff9,0.0724,0.0724,1,28,190,40,1,onetwo,,,,,,,,,,,,,,,,,,,,,,,,,,,,,,,,,,,,,,,,,,,,,,,,,,,,,,,,,,,,,,,,,,,,,,,,,,,,,,,,,,,,,,,,,,,,,,,,,,,,,,,,,,,,,,,,,,,,,,,,,,,,,,,,,,,,,,,,,
,,60adbd85d31d5039d3638816,2024-02-19_15h17.31.020,kallum_motion_pilot,2023.2.2,Win32,60.24096386,60adbd85d31d5039d3638816,65d2b6c8f2eece985d8e374c,65d2ba24740075f26ae75ff9,0.0725,0.0726,1,29,191,104,1,fivesix,,,,,,,,,,,,,,,,,,,,,,,,,,,,,,,,,,,,,,,,,,,,,,,,,,,,,,,,,,,,,,,,,,,,,,,,,,,,,,,,,,,,,,,,,,,,,,,,,,,,,,,,,,,,,,,,,,,,,,,,,,,,,,,,,,,,,,,,,
,,60adbd85d31d5039d3638816,2024-02-19_15h17.31.020,kallum_motion_pilot,2023.2.2,Win32,60.24096386,60adbd85d31d5039d3638816,65d2b6c8f2eece985d8e374c,65d2ba24740075f26ae75ff9,0.0727,0.0728,1,30,192,92,1,sevenfive,,,,,,,,,,,,,,,,,,,,,,,,,,,,,,,,,,,,,,,,,,,,,,,,,,,,,,,,,,,,,,,,,,,,,,,,,,,,,,,,,,,,,,,,,,,,,,,,,,,,,,,,,,,,,,,,,,,,,,,,,,,,,,,,,,,,,,,,,
,,60adbd85d31d5039d3638816,2024-02-19_15h17.31.020,kallum_motion_pilot,2023.2.2,Win32,60.24096386,60adbd85d31d5039d3638816,65d2b6c8f2eece985d8e374c,65d2ba24740075f26ae75ff9,0.0728,0.0729,1,31,193,142,1,eightsix,,,,,,,,,,,,,,,,,,,,,,,,,,,,,,,,,,,,,,,,,,,,,,,,,,,,,,,,,,,,,,,,,,,,,,,,,,,,,,,,,,,,,,,,,,,,,,,,,,,,,,,,,,,,,,,,,,,,,,,,,,,,,,,,,,,,,,,,,
,,60adbd85d31d5039d3638816,2024-02-19_15h17.31.020,kallum_motion_pilot,2023.2.2,Win32,60.24096386,60adbd85d31d5039d3638816,65d2b6c8f2eece985d8e374c,65d2ba24740075f26ae75ff9,0.073,0.0732,1,32,194,46,1,fourtwo,,,,,,,,,,,,,,,,,,,,,,,,,,,,,,,,,,,,,,,,,,,,,,,,,,,,,,,,,,,,,,,,,,,,,,,,,,,,,,,,,,,,,,,,,,,,,,,,,,,,,,,,,,,,,,,,,,,,,,,,,,,,,,,,,,,,,,,,,
,,60adbd85d31d5039d3638816,2024-02-19_15h17.31.020,kallum_motion_pilot,2023.2.2,Win32,60.24096386,60adbd85d31d5039d3638816,65d2b6c8f2eece985d8e374c,65d2ba24740075f26ae75ff9,0.0732,0.0734,1,33,195,147,1,sixeight,,,,,,,,,,,,,,,,,,,,,,,,,,,,,,,,,,,,,,,,,,,,,,,,,,,,,,,,,,,,,,,,,,,,,,,,,,,,,,,,,,,,,,,,,,,,,,,,,,,,,,,,,,,,,,,,,,,,,,,,,,,,,,,,,,,,,,,,,
,,60adbd85d31d5039d3638816,2024-02-19_15h17.31.020,kallum_motion_pilot,2023.2.2,Win32,60.24096386,60adbd85d31d5039d3638816,65d2b6c8f2eece985d8e374c,65d2ba24740075f26ae75ff9,0.0735,0.0736,1,34,196,61,1,threefour,,,,,,,,,,,,,,,,,,,,,,,,,,,,,,,,,,,,,,,,,,,,,,,,,,,,,,,,,,,,,,,,,,,,,,,,,,,,,,,,,,,,,,,,,,,,,,,,,,,,,,,,,,,,,,,,,,,,,,,,,,,,,,,,,,,,,,,,,
,,60adbd85d31d5039d3638816,2024-02-19_15h17.31.020,kallum_motion_pilot,2023.2.2,Win32,60.24096386,60adbd85d31d5039d3638816,65d2b6c8f2eece985d8e374c,65d2ba24740075f26ae75ff9,0.0738,0.0739,1,35,197,17,1,onethree,,,,,,,,,,,,,,,,,,,,,,,,,,,,,,,,,,,,,,,,,,,,,,,,,,,,,,,,,,,,,,,,,,,,,,,,,,,,,,,,,,,,,,,,,,,,,,,,,,,,,,,,,,,,,,,,,,,,,,,,,,,,,,,,,,,,,,,,,
,,60adbd85d31d5039d3638816,2024-02-19_15h17.31.020,kallum_motion_pilot,2023.2.2,Win32,60.24096386,60adbd85d31d5039d3638816,65d2b6c8f2eece985d8e374c,65d2ba24740075f26ae75ff9,0.074,0.0741,1,36,198,158,1,eightsix,,,,,,,,,,,,,,,,,,,,,,,,,,,,,,,,,,,,,,,,,,,,,,,,,,,,,,,,,,,,,,,,,,,,,,,,,,,,,,,,,,,,,,,,,,,,,,,,,,,,,,,,,,,,,,,,,,,,,,,,,,,,,,,,,,,,,,,,,
,,60adbd85d31d5039d3638816,2024-02-19_15h17.31.020,kallum_motion_pilot,2023.2.2,Win32,60.24096386,60adbd85d31d5039d3638816,65d2b6c8f2eece985d8e374c,65d2ba24740075f26ae75ff9,0.0741,0.0743,1,37,199,38,1,fourtwo,,,,,,,,,,,,,,,,,,,,,,,,,,,,,,,,,,,,,,,,,,,,,,,,,,,,,,,,,,,,,,,,,,,,,,,,,,,,,,,,,,,,,,,,,,,,,,,,,,,,,,,,,,,,,,,,,,,,,,,,,,,,,,,,,,,,,,,,,
,,60adbd85d31d5039d3638816,2024-02-19_15h17.31.020,kallum_motion_pilot,2023.2.2,Win32,60.24096386,60adbd85d31d5039d3638816,65d2b6c8f2eece985d8e374c,65d2ba24740075f26ae75ff9,0.0743,0.0745,1,38,200,10,1,twoone,,,,,,,,,,,,,,,,,,,,,,,,,,,,,,,,,,,,,,,,,,,,,,,,,,,,,,,,,,,,,,,,,,,,,,,,,,,,,,,,,,,,,,,,,,,,,,,,,,,,,,,,,,,,,,,,,,,,,,,,,,,,,,,,,,,,,,,,,
,,60adbd85d31d5039d3638816,2024-02-19_15h17.31.020,kallum_motion_pilot,2023.2.2,Win32,60.24096386,60adbd85d31d5039d3638816,65d2b6c8f2eece985d8e374c,65d2ba24740075f26ae75ff9,0.0746,0.0746,1,39,201,76,1,threeone,,,,,,,,,,,,,,,,,,,,,,,,,,,,,,,,,,,,,,,,,,,,,,,,,,,,,,,,,,,,,,,,,,,,,,,,,,,,,,,,,,,,,,,,,,,,,,,,,,,,,,,,,,,,,,,,,,,,,,,,,,,,,,,,,,,,,,,,,
,,60adbd85d31d5039d3638816,2024-02-19_15h17.31.020,kallum_motion_pilot,2023.2.2,Win32,60.24096386,60adbd85d31d5039d3638816,65d2b6c8f2eece985d8e374c,65d2ba24740075f26ae75ff9,0.0747,0.0749,1,40,202,31,1,fourthree,,,,,,,,,,,,,,,,,,,,,,,,,,,,,,,,,,,,,,,,,,,,,,,,,,,,,,,,,,,,,,,,,,,,,,,,,,,,,,,,,,,,,,,,,,,,,,,,,,,,,,,,,,,,,,,,,,,,,,,,,,,,,,,,,,,,,,,,,
,,60adbd85d31d5039d3638816,2024-02-19_15h17.31.020,kallum_motion_pilot,2023.2.2,Win32,60.24096386,60adbd85d31d5039d3638816,65d2b6c8f2eece985d8e374c,65d2ba24740075f26ae75ff9,0.0749,0.0751,1,41,203,86,1,eightsix,,,,,,,,,,,,,,,,,,,,,,,,,,,,,,,,,,,,,,,,,,,,,,,,,,,,,,,,,,,,,,,,,,,,,,,,,,,,,,,,,,,,,,,,,,,,,,,,,,,,,,,,,,,,,,,,,,,,,,,,,,,,,,,,,,,,,,,,,
,,60adbd85d31d5039d3638816,2024-02-19_15h17.31.020,kallum_motion_pilot,2023.2.2,Win32,60.24096386,60adbd85d31d5039d3638816,65d2b6c8f2eece985d8e374c,65d2ba24740075f26ae75ff9,0.0751,0.0753,1,42,204,119,1,eightseven,,,,,,,,,,,,,,,,,,,,,,,,,,,,,,,,,,,,,,,,,,,,,,,,,,,,,,,,,,,,,,,,,,,,,,,,,,,,,,,,,,,,,,,,,,,,,,,,,,,,,,,,,,,,,,,,,,,,,,,,,,,,,,,,,,,,,,,,,
,,60adbd85d31d5039d3638816,2024-02-19_15h17.31.020,kallum_motion_pilot,2023.2.2,Win32,60.24096386,60adbd85d31d5039d3638816,65d2b6c8f2eece985d8e374c,65d2ba24740075f26ae75ff9,0.0754,0.0755,1,43,205,112,1,fivesix,,,,,,,,,,,,,,,,,,,,,,,,,,,,,,,,,,,,,,,,,,,,,,,,,,,,,,,,,,,,,,,,,,,,,,,,,,,,,,,,,,,,,,,,,,,,,,,,,,,,,,,,,,,,,,,,,,,,,,,,,,,,,,,,,,,,,,,,,
,,60adbd85d31d5039d3638816,2024-02-19_15h17.31.020,kallum_motion_pilot,2023.2.2,Win32,60.24096386,60adbd85d31d5039d3638816,65d2b6c8f2eece985d8e374c,65d2ba24740075f26ae75ff9,0.0756,0.0758,1,44,206,148,1,sevenfive,,,,,,,,,,,,,,,,,,,,,,,,,,,,,,,,,,,,,,,,,,,,,,,,,,,,,,,,,,,,,,,,,,,,,,,,,,,,,,,,,,,,,,,,,,,,,,,,,,,,,,,,,,,,,,,,,,,,,,,,,,,,,,,,,,,,,,,,,
,,60adbd85d31d5039d3638816,2024-02-19_15h17.31.020,kallum_motion_pilot,2023.2.2,Win32,60.24096386,60adbd85d31d5039d3638816,65d2b6c8f2eece985d8e374c,65d2ba24740075f26ae75ff9,0.0759,0.076,1,45,207,5,1,threefour,,,,,,,,,,,,,,,,,,,,,,,,,,,,,,,,,,,,,,,,,,,,,,,,,,,,,,,,,,,,,,,,,,,,,,,,,,,,,,,,,,,,,,,,,,,,,,,,,,,,,,,,,,,,,,,,,,,,,,,,,,,,,,,,,,,,,,,,,
,,60adbd85d31d5039d3638816,2024-02-19_15h17.31.020,kallum_motion_pilot,2023.2.2,Win32,60.24096386,60adbd85d31d5039d3638816,65d2b6c8f2eece985d8e374c,65d2ba24740075f26ae75ff9,0.0762,0.0763,1,46,208,138,1,sixfive,,,,,,,,,,,,,,,,,,,,,,,,,,,,,,,,,,,,,,,,,,,,,,,,,,,,,,,,,,,,,,,,,,,,,,,,,,,,,,,,,,,,,,,,,,,,,,,,,,,,,,,,,,,,,,,,,,,,,,,,,,,,,,,,,,,,,,,,,
,,60adbd85d31d5039d3638816,2024-02-19_15h17.31.020,kallum_motion_pilot,2023.2.2,Win32,60.24096386,60adbd85d31d5039d3638816,65d2b6c8f2eece985d8e374c,65d2ba24740075f26ae75ff9,0.0764,0.0766,1,47,209,27,1,twofour,,,,,,,,,,,,,,,,,,,,,,,,,,,,,,,,,,,,,,,,,,,,,,,,,,,,,,,,,,,,,,,,,,,,,,,,,,,,,,,,,,,,,,,,,,,,,,,,,,,,,,,,,,,,,,,,,,,,,,,,,,,,,,,,,,,,,,,,,
,,60adbd85d31d5039d3638816,2024-02-19_15h17.31.020,kallum_motion_pilot,2023.2.2,Win32,60.24096386,60adbd85d31d5039d3638816,65d2b6c8f2eece985d8e374c,65d2ba24740075f26ae75ff9,0.0766,0.0769,1,48,210,131,1,sixeight,,,,,,,,,,,,,,,,,,,,,,,,,,,,,,,,,,,,,,,,,,,,,,,,,,,,,,,,,,,,,,,,,,,,,,,,,,,,,,,,,,,,,,,,,,,,,,,,,,,,,,,,,,,,,,,,,,,,,,,,,,,,,,,,,,,,,,,,,
,,60adbd85d31d5039d3638816,2024-02-19_15h17.31.020,kallum_motion_pilot,2023.2.2,Win32,60.24096386,60adbd85d31d5039d3638816,65d2b6c8f2eece985d8e374c,65d2ba24740075f26ae75ff9,0.0772,0.0773,1,49,211,50,1,twoone,,,,,,,,,,,,,,,,,,,,,,,,,,,,,,,,,,,,,,,,,,,,,,,,,,,,,,,,,,,,,,,,,,,,,,,,,,,,,,,,,,,,,,,,,,,,,,,,,,,,,,,,,,,,,,,,,,,,,,,,,,,,,,,,,,,,,,,,,
,,60adbd85d31d5039d3638816,2024-02-19_15h17.31.020,kallum_motion_pilot,2023.2.2,Win32,60.24096386,60adbd85d31d5039d3638816,65d2b6c8f2eece985d8e374c,65d2ba24740075f26ae75ff9,0.0776,0.0778,1,50,212,125,1,seveneight,,,,,,,,,,,,,,,,,,,,,,,,,,,,,,,,,,,,,,,,,,,,,,,,,,,,,,,,,,,,,,,,,,,,,,,,,,,,,,,,,,,,,,,,,,,,,,,,,,,,,,,,,,,,,,,,,,,,,,,,,,,,,,,,,,,,,,,,,
,,60adbd85d31d5039d3638816,2024-02-19_15h17.31.020,kallum_motion_pilot,2023.2.2,Win32,60.24096386,60adbd85d31d5039d3638816,65d2b6c8f2eece985d8e374c,65d2ba24740075f26ae75ff9,0.0779,0.0781,1,51,213,123,1,sixeight,,,,,,,,,,,,,,,,,,,,,,,,,,,,,,,,,,,,,,,,,,,,,,,,,,,,,,,,,,,,,,,,,,,,,,,,,,,,,,,,,,,,,,,,,,,,,,,,,,,,,,,,,,,,,,,,,,,,,,,,,,,,,,,,,,,,,,,,,
,,60adbd85d31d5039d3638816,2024-02-19_15h17.31.020,kallum_motion_pilot,2023.2.2,Win32,60.24096386,60adbd85d31d5039d3638816,65d2b6c8f2eece985d8e374c,65d2ba24740075f26ae75ff9,0.0783,0.0785,1,52,214,65,1,onethree,,,,,,,,,,,,,,,,,,,,,,,,,,,,,,,,,,,,,,,,,,,,,,,,,,,,,,,,,,,,,,,,,,,,,,,,,,,,,,,,,,,,,,,,,,,,,,,,,,,,,,,,,,,,,,,,,,,,,,,,,,,,,,,,,,,,,,,,,
,,60adbd85d31d5039d3638816,2024-02-19_15h17.31.020,kallum_motion_pilot,2023.2.2,Win32,60.24096386,60adbd85d31d5039d3638816,65d2b6c8f2eece985d8e374c,65d2ba24740075f26ae75ff9,0.0786,0.0787,1,53,215,56,1,onetwo,,,,,,,,,,,,,,,,,,,,,,,,,,,,,,,,,,,,,,,,,,,,,,,,,,,,,,,,,,,,,,,,,,,,,,,,,,,,,,,,,,,,,,,,,,,,,,,,,,,,,,,,,,,,,,,,,,,,,,,,,,,,,,,,,,,,,,,,,
,,60adbd85d31d5039d3638816,2024-02-19_15h17.31.020,kallum_motion_pilot,2023.2.2,Win32,60.24096386,60adbd85d31d5039d3638816,65d2b6c8f2eece985d8e374c,65d2ba24740075f26ae75ff9,0.0788,0.0789,1,54,216,33,1,onethree,,,,,,,,,,,,,,,,,,,,,,,,,,,,,,,,,,,,,,,,,,,,,,,,,,,,,,,,,,,,,,,,,,,,,,,,,,,,,,,,,,,,,,,,,,,,,,,,,,,,,,,,,,,,,,,,,,,,,,,,,,,,,,,,,,,,,,,,,
,,60adbd85d31d5039d3638816,2024-02-19_15h17.31.020,kallum_motion_pilot,2023.2.2,Win32,60.24096386,60adbd85d31d5039d3638816,65d2b6c8f2eece985d8e374c,65d2ba24740075f26ae75ff9,0.079,0.0791,1,55,217,143,1,eightseven,,,,,,,,,,,,,,,,,,,,,,,,,,,,,,,,,,,,,,,,,,,,,,,,,,,,,,,,,,,,,,,,,,,,,,,,,,,,,,,,,,,,,,,,,,,,,,,,,,,,,,,,,,,,,,,,,,,,,,,,,,,,,,,,,,,,,,,,,
,,60adbd85d31d5039d3638816,2024-02-19_15h17.31.020,kallum_motion_pilot,2023.2.2,Win32,60.24096386,60adbd85d31d5039d3638816,65d2b6c8f2eece985d8e374c,65d2ba24740075f26ae75ff9,0.0793,0.0793,1,56,218,77,1,threefour,,,,,,,,,,,,,,,,,,,,,,,,,,,,,,,,,,,,,,,,,,,,,,,,,,,,,,,,,,,,,,,,,,,,,,,,,,,,,,,,,,,,,,,,,,,,,,,,,,,,,,,,,,,,,,,,,,,,,,,,,,,,,,,,,,,,,,,,,
,,60adbd85d31d5039d3638816,2024-02-19_15h17.31.020,kallum_motion_pilot,2023.2.2,Win32,60.24096386,60adbd85d31d5039d3638816,65d2b6c8f2eece985d8e374c,65d2ba24740075f26ae75ff9,0.0794,0.0795,1,57,219,23,1,fourthree,,,,,,,,,,,,,,,,,,,,,,,,,,,,,,,,,,,,,,,,,,,,,,,,,,,,,,,,,,,,,,,,,,,,,,,,,,,,,,,,,,,,,,,,,,,,,,,,,,,,,,,,,,,,,,,,,,,,,,,,,,,,,,,,,,,,,,,,,
,,60adbd85d31d5039d3638816,2024-02-19_15h17.31.020,kallum_motion_pilot,2023.2.2,Win32,60.24096386,60adbd85d31d5039d3638816,65d2b6c8f2eece985d8e374c,65d2ba24740075f26ae75ff9,0.0796,0.0797,1,58,220,30,1,fourtwo,,,,,,,,,,,,,,,,,,,,,,,,,,,,,,,,,,,,,,,,,,,,,,,,,,,,,,,,,,,,,,,,,,,,,,,,,,,,,,,,,,,,,,,,,,,,,,,,,,,,,,,,,,,,,,,,,,,,,,,,,,,,,,,,,,,,,,,,,
,,60adbd85d31d5039d3638816,2024-02-19_15h17.31.020,kallum_motion_pilot,2023.2.2,Win32,60.24096386,60adbd85d31d5039d3638816,65d2b6c8f2eece985d8e374c,65d2ba24740075f26ae75ff9,0.0797,0.0798,1,59,221,67,1,twofour,,,,,,,,,,,,,,,,,,,,,,,,,,,,,,,,,,,,,,,,,,,,,,,,,,,,,,,,,,,,,,,,,,,,,,,,,,,,,,,,,,,,,,,,,,,,,,,,,,,,,,,,,,,,,,,,,,,,,,,,,,,,,,,,,,,,,,,,,
,,60adbd85d31d5039d3638816,2024-02-19_15h17.31.020,kallum_motion_pilot,2023.2.2,Win32,60.24096386,60adbd85d31d5039d3638816,65d2b6c8f2eece985d8e374c,65d2ba24740075f26ae75ff9,0.0801,0.0801,1,60,222,124,1,sevenfive,,,,,,,,,,,,,,,,,,,,,,,,,,,,,,,,,,,,,,,,,,,,,,,,,,,,,,,,,,,,,,,,,,,,,,,,,,,,,,,,,,,,,,,,,,,,,,,,,,,,,,,,,,,,,,,,,,,,,,,,,,,,,,,,,,,,,,,,,
,,60adbd85d31d5039d3638816,2024-02-19_15h17.31.020,kallum_motion_pilot,2023.2.2,Win32,60.24096386,60adbd85d31d5039d3638816,65d2b6c8f2eece985d8e374c,65d2ba24740075f26ae75ff9,0.0802,0.0803,1,61,223,24,1,onetwo,,,,,,,,,,,,,,,,,,,,,,,,,,,,,,,,,,,,,,,,,,,,,,,,,,,,,,,,,,,,,,,,,,,,,,,,,,,,,,,,,,,,,,,,,,,,,,,,,,,,,,,,,,,,,,,,,,,,,,,,,,,,,,,,,,,,,,,,,
,,60adbd85d31d5039d3638816,2024-02-19_15h17.31.020,kallum_motion_pilot,2023.2.2,Win32,60.24096386,60adbd85d31d5039d3638816,65d2b6c8f2eece985d8e374c,65d2ba24740075f26ae75ff9,0.0803,0.0805,1,62,224,141,1,seveneight,,,,,,,,,,,,,,,,,,,,,,,,,,,,,,,,,,,,,,,,,,,,,,,,,,,,,,,,,,,,,,,,,,,,,,,,,,,,,,,,,,,,,,,,,,,,,,,,,,,,,,,,,,,,,,,,,,,,,,,,,,,,,,,,,,,,,,,,,
,,60adbd85d31d5039d3638816,2024-02-19_15h17.31.020,kallum_motion_pilot,2023.2.2,Win32,60.24096386,60adbd85d31d5039d3638816,65d2b6c8f2eece985d8e374c,65d2ba24740075f26ae75ff9,0.0806,0.0807,1,63,225,34,1,twoone,,,,,,,,,,,,,,,,,,,,,,,,,,,,,,,,,,,,,,,,,,,,,,,,,,,,,,,,,,,,,,,,,,,,,,,,,,,,,,,,,,,,,,,,,,,,,,,,,,,,,,,,,,,,,,,,,,,,,,,,,,,,,,,,,,,,,,,,,
,,60adbd85d31d5039d3638816,2024-02-19_15h17.31.020,kallum_motion_pilot,2023.2.2,Win32,60.24096386,60adbd85d31d5039d3638816,65d2b6c8f2eece985d8e374c,65d2ba24740075f26ae75ff9,0.0808,0.0809,1,64,226,22,1,fourtwo,,,,,,,,,,,,,,,,,,,,,,,,,,,,,,,,,,,,,,,,,,,,,,,,,,,,,,,,,,,,,,,,,,,,,,,,,,,,,,,,,,,,,,,,,,,,,,,,,,,,,,,,,,,,,,,,,,,,,,,,,,,,,,,,,,,,,,,,,
,,60adbd85d31d5039d3638816,2024-02-19_15h17.31.020,kallum_motion_pilot,2023.2.2,Win32,60.24096386,60adbd85d31d5039d3638816,65d2b6c8f2eece985d8e374c,65d2ba24740075f26ae75ff9,0.081,0.0813,1,65,227,55,1,fourthree,,,,,,,,,,,,,,,,,,,,,,,,,,,,,,,,,,,,,,,,,,,,,,,,,,,,,,,,,,,,,,,,,,,,,,,,,,,,,,,,,,,,,,,,,,,,,,,,,,,,,,,,,,,,,,,,,,,,,,,,,,,,,,,,,,,,,,,,,
,,60adbd85d31d5039d3638816,2024-02-19_15h17.31.020,kallum_motion_pilot,2023.2.2,Win32,60.24096386,60adbd85d31d5039d3638816,65d2b6c8f2eece985d8e374c,65d2ba24740075f26ae75ff9,0.0814,0.0815,1,66,228,114,1,sixfive,,,,,,,,,,,,,,,,,,,,,,,,,,,,,,,,,,,,,,,,,,,,,,,,,,,,,,,,,,,,,,,,,,,,,,,,,,,,,,,,,,,,,,,,,,,,,,,,,,,,,,,,,,,,,,,,,,,,,,,,,,,,,,,,,,,,,,,,,
,,60adbd85d31d5039d3638816,2024-02-19_15h17.31.020,kallum_motion_pilot,2023.2.2,Win32,60.24096386,60adbd85d31d5039d3638816,65d2b6c8f2eece985d8e374c,65d2ba24740075f26ae75ff9,0.0816,0.0816,1,67,229,45,1,threefour,,,,,,,,,,,,,,,,,,,,,,,,,,,,,,,,,,,,,,,,,,,,,,,,,,,,,,,,,,,,,,,,,,,,,,,,,,,,,,,,,,,,,,,,,,,,,,,,,,,,,,,,,,,,,,,,,,,,,,,,,,,,,,,,,,,,,,,,,
,,60adbd85d31d5039d3638816,2024-02-19_15h17.31.020,kallum_motion_pilot,2023.2.2,Win32,60.24096386,60adbd85d31d5039d3638816,65d2b6c8f2eece985d8e374c,65d2ba24740075f26ae75ff9,0.0818,0.0819,1,68,230,6,1,fourtwo,,,,,,,,,,,,,,,,,,,,,,,,,,,,,,,,,,,,,,,,,,,,,,,,,,,,,,,,,,,,,,,,,,,,,,,,,,,,,,,,,,,,,,,,,,,,,,,,,,,,,,,,,,,,,,,,,,,,,,,,,,,,,,,,,,,,,,,,,
,,60adbd85d31d5039d3638816,2024-02-19_15h17.31.020,kallum_motion_pilot,2023.2.2,Win32,60.24096386,60adbd85d31d5039d3638816,65d2b6c8f2eece985d8e374c,65d2ba24740075f26ae75ff9,0.082,0.0821,1,69,231,108,1,sevenfive,,,,,,,,,,,,,,,,,,,,,,,,,,,,,,,,,,,,,,,,,,,,,,,,,,,,,,,,,,,,,,,,,,,,,,,,,,,,,,,,,,,,,,,,,,,,,,,,,,,,,,,,,,,,,,,,,,,,,,,,,,,,,,,,,,,,,,,,,
,,60adbd85d31d5039d3638816,2024-02-19_15h17.31.020,kallum_motion_pilot,2023.2.2,Win32,60.24096386,60adbd85d31d5039d3638816,65d2b6c8f2eece985d8e374c,65d2ba24740075f26ae75ff9,0.0823,0.0823,1,70,232,159,1,eightseven,,,,,,,,,,,,,,,,,,,,,,,,,,,,,,,,,,,,,,,,,,,,,,,,,,,,,,,,,,,,,,,,,,,,,,,,,,,,,,,,,,,,,,,,,,,,,,,,,,,,,,,,,,,,,,,,,,,,,,,,,,,,,,,,,,,,,,,,,
,,60adbd85d31d5039d3638816,2024-02-19_15h17.31.020,kallum_motion_pilot,2023.2.2,Win32,60.24096386,60adbd85d31d5039d3638816,65d2b6c8f2eece985d8e374c,65d2ba24740075f26ae75ff9,0.0824,0.0826,1,71,233,25,1,onethree,,,,,,,,,,,,,,,,,,,,,,,,,,,,,,,,,,,,,,,,,,,,,,,,,,,,,,,,,,,,,,,,,,,,,,,,,,,,,,,,,,,,,,,,,,,,,,,,,,,,,,,,,,,,,,,,,,,,,,,,,,,,,,,,,,,,,,,,,
,,60adbd85d31d5039d3638816,2024-02-19_15h17.31.020,kallum_motion_pilot,2023.2.2,Win32,60.24096386,60adbd85d31d5039d3638816,65d2b6c8f2eece985d8e374c,65d2ba24740075f26ae75ff9,0.0827,0.0828,1,72,234,79,1,eightseven,,,,,,,,,,,,,,,,,,,,,,,,,,,,,,,,,,,,,,,,,,,,,,,,,,,,,,,,,,,,,,,,,,,,,,,,,,,,,,,,,,,,,,,,,,,,,,,,,,,,,,,,,,,,,,,,,,,,,,,,,,,,,,,,,,,,,,,,,
,,60adbd85d31d5039d3638816,2024-02-19_15h17.31.020,kallum_motion_pilot,2023.2.2,Win32,60.24096386,60adbd85d31d5039d3638816,65d2b6c8f2eece985d8e374c,65d2ba24740075f26ae75ff9,0.0829,0.083,1,73,235,130,1,sixfive,,,,,,,,,,,,,,,,,,,,,,,,,,,,,,,,,,,,,,,,,,,,,,,,,,,,,,,,,,,,,,,,,,,,,,,,,,,,,,,,,,,,,,,,,,,,,,,,,,,,,,,,,,,,,,,,,,,,,,,,,,,,,,,,,,,,,,,,,
,,60adbd85d31d5039d3638816,2024-02-19_15h17.31.020,kallum_motion_pilot,2023.2.2,Win32,60.24096386,60adbd85d31d5039d3638816,65d2b6c8f2eece985d8e374c,65d2ba24740075f26ae75ff9,0.0831,0.0833,1,74,236,161,1,fiveseven,,,,,,,,,,,,,,,,,,,,,,,,,,,,,,,,,,,,,,,,,,,,,,,,,,,,,,,,,,,,,,,,,,,,,,,,,,,,,,,,,,,,,,,,,,,,,,,,,,,,,,,,,,,,,,,,,,,,,,,,,,,,,,,,,,,,,,,,,
,,60adbd85d31d5039d3638816,2024-02-19_15h17.31.020,kallum_motion_pilot,2023.2.2,Win32,60.24096386,60adbd85d31d5039d3638816,65d2b6c8f2eece985d8e374c,65d2ba24740075f26ae75ff9,0.0834,0.0835,1,75,237,145,1,fiveseven,,,,,,,,,,,,,,,,,,,,,,,,,,,,,,,,,,,,,,,,,,,,,,,,,,,,,,,,,,,,,,,,,,,,,,,,,,,,,,,,,,,,,,,,,,,,,,,,,,,,,,,,,,,,,,,,,,,,,,,,,,,,,,,,,,,,,,,,,
,,60adbd85d31d5039d3638816,2024-02-19_15h17.31.020,kallum_motion_pilot,2023.2.2,Win32,60.24096386,60adbd85d31d5039d3638816,65d2b6c8f2eece985d8e374c,65d2ba24740075f26ae75ff9,0.0837,0.0838,1,76,238,115,1,sixeight,,,,,,,,,,,,,,,,,,,,,,,,,,,,,,,,,,,,,,,,,,,,,,,,,,,,,,,,,,,,,,,,,,,,,,,,,,,,,,,,,,,,,,,,,,,,,,,,,,,,,,,,,,,,,,,,,,,,,,,,,,,,,,,,,,,,,,,,,
,,60adbd85d31d5039d3638816,2024-02-19_15h17.31.020,kallum_motion_pilot,2023.2.2,Win32,60.24096386,60adbd85d31d5039d3638816,65d2b6c8f2eece985d8e374c,65d2ba24740075f26ae75ff9,0.084,0.0841,1,77,239,72,1,onetwo,,,,,,,,,,,,,,,,,,,,,,,,,,,,,,,,,,,,,,,,,,,,,,,,,,,,,,,,,,,,,,,,,,,,,,,,,,,,,,,,,,,,,,,,,,,,,,,,,,,,,,,,,,,,,,,,,,,,,,,,,,,,,,,,,,,,,,,,,
,,60adbd85d31d5039d3638816,2024-02-19_15h17.31.020,kallum_motion_pilot,2023.2.2,Win32,60.24096386,60adbd85d31d5039d3638816,65d2b6c8f2eece985d8e374c,65d2ba24740075f26ae75ff9,0.0844,0.0845,1,78,240,136,1,fivesix,,,,,,,,,,,,,,,,,,,,,,,,,,,,,,,,,,,,,,,,,,,,,,,,,,,,,,,,,,,,,,,,,,,,,,,,,,,,,,,,,,,,,,,,,,,,,,,,,,,,,,,,,,,,,,,,,,,,,,,,,,,,,,,,,,,,,,,,,
,,60adbd85d31d5039d3638816,2024-02-19_15h17.31.020,kallum_motion_pilot,2023.2.2,Win32,60.24096386,60adbd85d31d5039d3638816,65d2b6c8f2eece985d8e374c,65d2ba24740075f26ae75ff9,0.0847,0.0848,1,79,241,139,1,sixeight,,,,,,,,,,,,,,,,,,,,,,,,,,,,,,,,,,,,,,,,,,,,,,,,,,,,,,,,,,,,,,,,,,,,,,,,,,,,,,,,,,,,,,,,,,,,,,,,,,,,,,,,,,,,,,,,,,,,,,,,,,,,,,,,,,,,,,,,,
,,60adbd85d31d5039d3638816,2024-02-19_15h17.31.020,kallum_motion_pilot,2023.2.2,Win32,60.24096386,60adbd85d31d5039d3638816,65d2b6c8f2eece985d8e374c,65d2ba24740075f26ae75ff9,0.0849,0.085,1,80,242,107,1,sixeight,,,,,,,,,,,,,,,,,,,,,,,,,,,,,,,,,,,,,,,,,,,,,,,,,,,,,,,,,,,,,,,,,,,,,,,,,,,,,,,,,,,,,,,,,,,,,,,,,,,,,,,,,,,,,,,,,,,,,,,,,,,,,,,,,,,,,,,,,
,,60adbd85d31d5039d3638816,2024-02-19_15h17.31.020,kallum_motion_pilot,2023.2.2,Win32,60.24096386,60adbd85d31d5039d3638816,65d2b6c8f2eece985d8e374c,65d2ba24740075f26ae75ff9,0.0851,0.0852,1,81,243,109,1,seveneight,,,,,,,,,,,,,,,,,,,,,,,,,,,,,,,,,,,,,,,,,,,,,,,,,,,,,,,,,,,,,,,,,,,,,,,,,,,,,,,,,,,,,,,,,,,,,,,,,,,,,,,,,,,,,,,,,,,,,,,,,,,,,,,,,,,,,,,,,
,,60adbd85d31d5039d3638816,2024-02-19_15h17.31.020,kallum_motion_pilot,2023.2.2,Win32,60.24096386,60adbd85d31d5039d3638816,65d2b6c8f2eece985d8e374c,65d2ba24740075f26ae75ff9,0.0854,0.0855,1,82,244,69,1,threefour,,,,,,,,,,,,,,,,,,,,,,,,,,,,,,,,,,,,,,,,,,,,,,,,,,,,,,,,,,,,,,,,,,,,,,,,,,,,,,,,,,,,,,,,,,,,,,,,,,,,,,,,,,,,,,,,,,,,,,,,,,,,,,,,,,,,,,,,,
,,60adbd85d31d5039d3638816,2024-02-19_15h17.31.020,kallum_motion_pilot,2023.2.2,Win32,60.24096386,60adbd85d31d5039d3638816,65d2b6c8f2eece985d8e374c,65d2ba24740075f26ae75ff9,0.0856,0.0857,1,83,245,39,1,fourthree,,,,,,,,,,,,,,,,,,,,,,,,,,,,,,,,,,,,,,,,,,,,,,,,,,,,,,,,,,,,,,,,,,,,,,,,,,,,,,,,,,,,,,,,,,,,,,,,,,,,,,,,,,,,,,,,,,,,,,,,,,,,,,,,,,,,,,,,,
,,60adbd85d31d5039d3638816,2024-02-19_15h17.31.020,kallum_motion_pilot,2023.2.2,Win32,60.24096386,60adbd85d31d5039d3638816,65d2b6c8f2eece985d8e374c,65d2ba24740075f26ae75ff9,0.0858,0.0859,1,84,246,70,1,fourtwo,,,,,,,,,,,,,,,,,,,,,,,,,,,,,,,,,,,,,,,,,,,,,,,,,,,,,,,,,,,,,,,,,,,,,,,,,,,,,,,,,,,,,,,,,,,,,,,,,,,,,,,,,,,,,,,,,,,,,,,,,,,,,,,,,,,,,,,,,
,,60adbd85d31d5039d3638816,2024-02-19_15h17.31.020,kallum_motion_pilot,2023.2.2,Win32,60.24096386,60adbd85d31d5039d3638816,65d2b6c8f2eece985d8e374c,65d2ba24740075f26ae75ff9,0.086,0.0862,1,85,247,44,1,threeone,,,,,,,,,,,,,,,,,,,,,,,,,,,,,,,,,,,,,,,,,,,,,,,,,,,,,,,,,,,,,,,,,,,,,,,,,,,,,,,,,,,,,,,,,,,,,,,,,,,,,,,,,,,,,,,,,,,,,,,,,,,,,,,,,,,,,,,,,
,,60adbd85d31d5039d3638816,2024-02-19_15h17.31.020,kallum_motion_pilot,2023.2.2,Win32,60.24096386,60adbd85d31d5039d3638816,65d2b6c8f2eece985d8e374c,65d2ba24740075f26ae75ff9,0.0863,0.0864,1,86,248,51,1,twofour,,,,,,,,,,,,,,,,,,,,,,,,,,,,,,,,,,,,,,,,,,,,,,,,,,,,,,,,,,,,,,,,,,,,,,,,,,,,,,,,,,,,,,,,,,,,,,,,,,,,,,,,,,,,,,,,,,,,,,,,,,,,,,,,,,,,,,,,,
,,60adbd85d31d5039d3638816,2024-02-19_15h17.31.020,kallum_motion_pilot,2023.2.2,Win32,60.24096386,60adbd85d31d5039d3638816,65d2b6c8f2eece985d8e374c,65d2ba24740075f26ae75ff9,0.0865,0.0866,1,87,249,152,1,fivesix,,,,,,,,,,,,,,,,,,,,,,,,,,,,,,,,,,,,,,,,,,,,,,,,,,,,,,,,,,,,,,,,,,,,,,,,,,,,,,,,,,,,,,,,,,,,,,,,,,,,,,,,,,,,,,,,,,,,,,,,,,,,,,,,,,,,,,,,,
,,60adbd85d31d5039d3638816,2024-02-19_15h17.31.020,kallum_motion_pilot,2023.2.2,Win32,60.24096386,60adbd85d31d5039d3638816,65d2b6c8f2eece985d8e374c,65d2ba24740075f26ae75ff9,0.0867,0.0868,1,88,250,134,1,eightsix,,,,,,,,,,,,,,,,,,,,,,,,,,,,,,,,,,,,,,,,,,,,,,,,,,,,,,,,,,,,,,,,,,,,,,,,,,,,,,,,,,,,,,,,,,,,,,,,,,,,,,,,,,,,,,,,,,,,,,,,,,,,,,,,,,,,,,,,,
,,60adbd85d31d5039d3638816,2024-02-19_15h17.31.020,kallum_motion_pilot,2023.2.2,Win32,60.24096386,60adbd85d31d5039d3638816,65d2b6c8f2eece985d8e374c,65d2ba24740075f26ae75ff9,0.0869,0.087,1,89,251,48,1,onetwo,,,,,,,,,,,,,,,,,,,,,,,,,,,,,,,,,,,,,,,,,,,,,,,,,,,,,,,,,,,,,,,,,,,,,,,,,,,,,,,,,,,,,,,,,,,,,,,,,,,,,,,,,,,,,,,,,,,,,,,,,,,,,,,,,,,,,,,,,
,,60adbd85d31d5039d3638816,2024-02-19_15h17.31.020,kallum_motion_pilot,2023.2.2,Win32,60.24096386,60adbd85d31d5039d3638816,65d2b6c8f2eece985d8e374c,65d2ba24740075f26ae75ff9,0.0871,0.0872,1,90,252,41,1,onethree,,,,,,,,,,,,,,,,,,,,,,,,,,,,,,,,,,,,,,,,,,,,,,,,,,,,,,,,,,,,,,,,,,,,,,,,,,,,,,,,,,,,,,,,,,,,,,,,,,,,,,,,,,,,,,,,,,,,,,,,,,,,,,,,,,,,,,,,,
,,60adbd85d31d5039d3638816,2024-02-19_15h17.31.020,kallum_motion_pilot,2023.2.2,Win32,60.24096386,60adbd85d31d5039d3638816,65d2b6c8f2eece985d8e374c,65d2ba24740075f26ae75ff9,0.0874,0.0876,1,91,253,106,1,sixfive,,,,,,,,,,,,,,,,,,,,,,,,,,,,,,,,,,,,,,,,,,,,,,,,,,,,,,,,,,,,,,,,,,,,,,,,,,,,,,,,,,,,,,,,,,,,,,,,,,,,,,,,,,,,,,,,,,,,,,,,,,,,,,,,,,,,,,,,,
,,60adbd85d31d5039d3638816,2024-02-19_15h17.31.020,kallum_motion_pilot,2023.2.2,Win32,60.24096386,60adbd85d31d5039d3638816,65d2b6c8f2eece985d8e374c,65d2ba24740075f26ae75ff9,0.0877,0.0877,1,92,254,90,1,sixfive,,,,,,,,,,,,,,,,,,,,,,,,,,,,,,,,,,,,,,,,,,,,,,,,,,,,,,,,,,,,,,,,,,,,,,,,,,,,,,,,,,,,,,,,,,,,,,,,,,,,,,,,,,,,,,,,,,,,,,,,,,,,,,,,,,,,,,,,,
,,60adbd85d31d5039d3638816,2024-02-19_15h17.31.020,kallum_motion_pilot,2023.2.2,Win32,60.24096386,60adbd85d31d5039d3638816,65d2b6c8f2eece985d8e374c,65d2ba24740075f26ae75ff9,0.088,0.088,1,93,255,71,1,fourthree,,,,,,,,,,,,,,,,,,,,,,,,,,,,,,,,,,,,,,,,,,,,,,,,,,,,,,,,,,,,,,,,,,,,,,,,,,,,,,,,,,,,,,,,,,,,,,,,,,,,,,,,,,,,,,,,,,,,,,,,,,,,,,,,,,,,,,,,,
,,60adbd85d31d5039d3638816,2024-02-19_15h17.31.020,kallum_motion_pilot,2023.2.2,Win32,60.24096386,60adbd85d31d5039d3638816,65d2b6c8f2eece985d8e374c,65d2ba24740075f26ae75ff9,0.0882,0.0884,1,94,256,126,1,eightsix,,,,,,,,,,,,,,,,,,,,,,,,,,,,,,,,,,,,,,,,,,,,,,,,,,,,,,,,,,,,,,,,,,,,,,,,,,,,,,,,,,,,,,,,,,,,,,,,,,,,,,,,,,,,,,,,,,,,,,,,,,,,,,,,,,,,,,,,,
,,60adbd85d31d5039d3638816,2024-02-19_15h17.31.020,kallum_motion_pilot,2023.2.2,Win32,60.24096386,60adbd85d31d5039d3638816,65d2b6c8f2eece985d8e374c,65d2ba24740075f26ae75ff9,0.0885,0.0886,1,95,257,160,1,fivesix,,,,,,,,,,,,,,,,,,,,,,,,,,,,,,,,,,,,,,,,,,,,,,,,,,,,,,,,,,,,,,,,,,,,,,,,,,,,,,,,,,,,,,,,,,,,,,,,,,,,,,,,,,,,,,,,,,,,,,,,,,,,,,,,,,,,,,,,,
,,60adbd85d31d5039d3638816,2024-02-19_15h17.31.020,kallum_motion_pilot,2023.2.2,Win32,60.24096386,60adbd85d31d5039d3638816,65d2b6c8f2eece985d8e374c,65d2ba24740075f26ae75ff9,0.0888,0.0889,1,96,258,26,1,twoone,,,,,,,,,,,,,,,,,,,,,,,,,,,,,,,,,,,,,,,,,,,,,,,,,,,,,,,,,,,,,,,,,,,,,,,,,,,,,,,,,,,,,,,,,,,,,,,,,,,,,,,,,,,,,,,,,,,,,,,,,,,,,,,,,,,,,,,,,
,,60adbd85d31d5039d3638816,2024-02-19_15h17.31.020,kallum_motion_pilot,2023.2.2,Win32,60.24096386,60adbd85d31d5039d3638816,65d2b6c8f2eece985d8e374c,65d2ba24740075f26ae75ff9,0.089,0.0891,1,97,259,146,1,sixfive,,,,,,,,,,,,,,,,,,,,,,,,,,,,,,,,,,,,,,,,,,,,,,,,,,,,,,,,,,,,,,,,,,,,,,,,,,,,,,,,,,,,,,,,,,,,,,,,,,,,,,,,,,,,,,,,,,,,,,,,,,,,,,,,,,,,,,,,,
,,60adbd85d31d5039d3638816,2024-02-19_15h17.31.020,kallum_motion_pilot,2023.2.2,Win32,60.24096386,60adbd85d31d5039d3638816,65d2b6c8f2eece985d8e374c,65d2ba24740075f26ae75ff9,0.0892,0.0894,1,98,260,155,1,sixeight,,,,,,,,,,,,,,,,,,,,,,,,,,,,,,,,,,,,,,,,,,,,,,,,,,,,,,,,,,,,,,,,,,,,,,,,,,,,,,,,,,,,,,,,,,,,,,,,,,,,,,,,,,,,,,,,,,,,,,,,,,,,,,,,,,,,,,,,,
,,60adbd85d31d5039d3638816,2024-02-19_15h17.31.020,kallum_motion_pilot,2023.2.2,Win32,60.24096386,60adbd85d31d5039d3638816,65d2b6c8f2eece985d8e374c,65d2ba24740075f26ae75ff9,0.0894,0.0895,1,99,261,63,1,fourthree,,,,,,,,,,,,,,,,,,,,,,,,,,,,,,,,,,,,,,,,,,,,,,,,,,,,,,,,,,,,,,,,,,,,,,,,,,,,,,,,,,,,,,,,,,,,,,,,,,,,,,,,,,,,,,,,,,,,,,,,,,,,,,,,,,,,,,,,,
,,60adbd85d31d5039d3638816,2024-02-19_15h17.31.020,kallum_motion_pilot,2023.2.2,Win32,60.24096386,60adbd85d31d5039d3638816,65d2b6c8f2eece985d8e374c,65d2ba24740075f26ae75ff9,0.0897,0.0898,1,100,262,68,1,threeone,,,,,,,,,,,,,,,,,,,,,,,,,,,,,,,,,,,,,,,,,,,,,,,,,,,,,,,,,,,,,,,,,,,,,,,,,,,,,,,,,,,,,,,,,,,,,,,,,,,,,,,,,,,,,,,,,,,,,,,,,,,,,,,,,,,,,,,,,
,,60adbd85d31d5039d3638816,2024-02-19_15h17.31.020,kallum_motion_pilot,2023.2.2,Win32,60.24096386,60adbd85d31d5039d3638816,65d2b6c8f2eece985d8e374c,65d2ba24740075f26ae75ff9,0.0898,0.09,1,101,263,83,1,sixeight,,,,,,,,,,,,,,,,,,,,,,,,,,,,,,,,,,,,,,,,,,,,,,,,,,,,,,,,,,,,,,,,,,,,,,,,,,,,,,,,,,,,,,,,,,,,,,,,,,,,,,,,,,,,,,,,,,,,,,,,,,,,,,,,,,,,,,,,,
,,60adbd85d31d5039d3638816,2024-02-19_15h17.31.020,kallum_motion_pilot,2023.2.2,Win32,60.24096386,60adbd85d31d5039d3638816,65d2b6c8f2eece985d8e374c,65d2ba24740075f26ae75ff9,0.0902,0.0905,1,102,264,129,1,fiveseven,,,,,,,,,,,,,,,,,,,,,,,,,,,,,,,,,,,,,,,,,,,,,,,,,,,,,,,,,,,,,,,,,,,,,,,,,,,,,,,,,,,,,,,,,,,,,,,,,,,,,,,,,,,,,,,,,,,,,,,,,,,,,,,,,,,,,,,,,
,,60adbd85d31d5039d3638816,2024-02-19_15h17.31.020,kallum_motion_pilot,2023.2.2,Win32,60.24096386,60adbd85d31d5039d3638816,65d2b6c8f2eece985d8e374c,65d2ba24740075f26ae75ff9,0.0907,0.0909,1,103,265,14,1,fourtwo,,,,,,,,,,,,,,,,,,,,,,,,,,,,,,,,,,,,,,,,,,,,,,,,,,,,,,,,,,,,,,,,,,,,,,,,,,,,,,,,,,,,,,,,,,,,,,,,,,,,,,,,,,,,,,,,,,,,,,,,,,,,,,,,,,,,,,,,,
,,60adbd85d31d5039d3638816,2024-02-19_15h17.31.020,kallum_motion_pilot,2023.2.2,Win32,60.24096386,60adbd85d31d5039d3638816,65d2b6c8f2eece985d8e374c,65d2ba24740075f26ae75ff9,0.0912,0.0913,1,104,266,42,1,twoone,,,,,,,,,,,,,,,,,,,,,,,,,,,,,,,,,,,,,,,,,,,,,,,,,,,,,,,,,,,,,,,,,,,,,,,,,,,,,,,,,,,,,,,,,,,,,,,,,,,,,,,,,,,,,,,,,,,,,,,,,,,,,,,,,,,,,,,,,
,,60adbd85d31d5039d3638816,2024-02-19_15h17.31.020,kallum_motion_pilot,2023.2.2,Win32,60.24096386,60adbd85d31d5039d3638816,65d2b6c8f2eece985d8e374c,65d2ba24740075f26ae75ff9,0.0915,0.0915,1,105,267,8,1,onetwo,,,,,,,,,,,,,,,,,,,,,,,,,,,,,,,,,,,,,,,,,,,,,,,,,,,,,,,,,,,,,,,,,,,,,,,,,,,,,,,,,,,,,,,,,,,,,,,,,,,,,,,,,,,,,,,,,,,,,,,,,,,,,,,,,,,,,,,,,
,,60adbd85d31d5039d3638816,2024-02-19_15h17.31.020,kallum_motion_pilot,2023.2.2,Win32,60.24096386,60adbd85d31d5039d3638816,65d2b6c8f2eece985d8e374c,65d2ba24740075f26ae75ff9,0.0916,0.0918,1,106,268,100,1,sevenfive,,,,,,,,,,,,,,,,,,,,,,,,,,,,,,,,,,,,,,,,,,,,,,,,,,,,,,,,,,,,,,,,,,,,,,,,,,,,,,,,,,,,,,,,,,,,,,,,,,,,,,,,,,,,,,,,,,,,,,,,,,,,,,,,,,,,,,,,,
,,60adbd85d31d5039d3638816,2024-02-19_15h17.31.020,kallum_motion_pilot,2023.2.2,Win32,60.24096386,60adbd85d31d5039d3638816,65d2b6c8f2eece985d8e374c,65d2ba24740075f26ae75ff9,0.0919,0.0921,1,107,269,156,1,sevenfive,,,,,,,,,,,,,,,,,,,,,,,,,,,,,,,,,,,,,,,,,,,,,,,,,,,,,,,,,,,,,,,,,,,,,,,,,,,,,,,,,,,,,,,,,,,,,,,,,,,,,,,,,,,,,,,,,,,,,,,,,,,,,,,,,,,,,,,,,
,,60adbd85d31d5039d3638816,2024-02-19_15h17.31.020,kallum_motion_pilot,2023.2.2,Win32,60.24096386,60adbd85d31d5039d3638816,65d2b6c8f2eece985d8e374c,65d2ba24740075f26ae75ff9,0.0923,0.0924,1,108,270,84,1,sevenfive,,,,,,,,,,,,,,,,,,,,,,,,,,,,,,,,,,,,,,,,,,,,,,,,,,,,,,,,,,,,,,,,,,,,,,,,,,,,,,,,,,,,,,,,,,,,,,,,,,,,,,,,,,,,,,,,,,,,,,,,,,,,,,,,,,,,,,,,,
,,60adbd85d31d5039d3638816,2024-02-19_15h17.31.020,kallum_motion_pilot,2023.2.2,Win32,60.24096386,60adbd85d31d5039d3638816,65d2b6c8f2eece985d8e374c,65d2ba24740075f26ae75ff9,0.0925,0.0926,1,109,271,43,1,twofour,,,,,,,,,,,,,,,,,,,,,,,,,,,,,,,,,,,,,,,,,,,,,,,,,,,,,,,,,,,,,,,,,,,,,,,,,,,,,,,,,,,,,,,,,,,,,,,,,,,,,,,,,,,,,,,,,,,,,,,,,,,,,,,,,,,,,,,,,
,,60adbd85d31d5039d3638816,2024-02-19_15h17.31.020,kallum_motion_pilot,2023.2.2,Win32,60.24096386,60adbd85d31d5039d3638816,65d2b6c8f2eece985d8e374c,65d2ba24740075f26ae75ff9,0.0927,0.0928,1,110,272,93,1,seveneight,,,,,,,,,,,,,,,,,,,,,,,,,,,,,,,,,,,,,,,,,,,,,,,,,,,,,,,,,,,,,,,,,,,,,,,,,,,,,,,,,,,,,,,,,,,,,,,,,,,,,,,,,,,,,,,,,,,,,,,,,,,,,,,,,,,,,,,,,
,,60adbd85d31d5039d3638816,2024-02-19_15h17.31.020,kallum_motion_pilot,2023.2.2,Win32,60.24096386,60adbd85d31d5039d3638816,65d2b6c8f2eece985d8e374c,65d2ba24740075f26ae75ff9,0.0929,0.0931,1,111,273,16,1,onetwo,,,,,,,,,,,,,,,,,,,,,,,,,,,,,,,,,,,,,,,,,,,,,,,,,,,,,,,,,,,,,,,,,,,,,,,,,,,,,,,,,,,,,,,,,,,,,,,,,,,,,,,,,,,,,,,,,,,,,,,,,,,,,,,,,,,,,,,,,
,,60adbd85d31d5039d3638816,2024-02-19_15h17.31.020,kallum_motion_pilot,2023.2.2,Win32,60.24096386,60adbd85d31d5039d3638816,65d2b6c8f2eece985d8e374c,65d2ba24740075f26ae75ff9,0.0932,0.0934,1,112,274,135,1,eightseven,,,,,,,,,,,,,,,,,,,,,,,,,,,,,,,,,,,,,,,,,,,,,,,,,,,,,,,,,,,,,,,,,,,,,,,,,,,,,,,,,,,,,,,,,,,,,,,,,,,,,,,,,,,,,,,,,,,,,,,,,,,,,,,,,,,,,,,,,
,,60adbd85d31d5039d3638816,2024-02-19_15h17.31.020,kallum_motion_pilot,2023.2.2,Win32,60.24096386,60adbd85d31d5039d3638816,65d2b6c8f2eece985d8e374c,65d2ba24740075f26ae75ff9,0.0935,0.0937,1,113,275,105,1,fiveseven,,,,,,,,,,,,,,,,,,,,,,,,,,,,,,,,,,,,,,,,,,,,,,,,,,,,,,,,,,,,,,,,,,,,,,,,,,,,,,,,,,,,,,,,,,,,,,,,,,,,,,,,,,,,,,,,,,,,,,,,,,,,,,,,,,,,,,,,,
,,60adbd85d31d5039d3638816,2024-02-19_15h17.31.020,kallum_motion_pilot,2023.2.2,Win32,60.24096386,60adbd85d31d5039d3638816,65d2b6c8f2eece985d8e374c,65d2ba24740075f26ae75ff9,0.0939,0.0942,1,114,276,94,1,eightsix,,,,,,,,,,,,,,,,,,,,,,,,,,,,,,,,,,,,,,,,,,,,,,,,,,,,,,,,,,,,,,,,,,,,,,,,,,,,,,,,,,,,,,,,,,,,,,,,,,,,,,,,,,,,,,,,,,,,,,,,,,,,,,,,,,,,,,,,,
,,60adbd85d31d5039d3638816,2024-02-19_15h17.31.020,kallum_motion_pilot,2023.2.2,Win32,60.24096386,60adbd85d31d5039d3638816,65d2b6c8f2eece985d8e374c,65d2ba24740075f26ae75ff9,0.0944,0.0946,1,115,277,99,1,sixeight,,,,,,,,,,,,,,,,,,,,,,,,,,,,,,,,,,,,,,,,,,,,,,,,,,,,,,,,,,,,,,,,,,,,,,,,,,,,,,,,,,,,,,,,,,,,,,,,,,,,,,,,,,,,,,,,,,,,,,,,,,,,,,,,,,,,,,,,,
