startup.started,startup.stopped,Prolific ID*,date,expName,psychopyVersion,OS,frameRate,participant,study_id,session,stimpositions.started,stimpositions.stopped,hardcoded_stimulus_positions.thisRepN,hardcoded_stimulus_positions.thisTrialN,hardcoded_stimulus_positions.thisN,hardcoded_stimulus_positions.thisIndex,hardcoded_stimulus_positions.ran,StimulusPos,stimorientation.started,stimorientation.stopped,prac_stimorientation_import_loop.thisRepN,prac_stimorientation_import_loop.thisTrialN,prac_stimorientation_import_loop.thisN,prac_stimorientation_import_loop.thisIndex,prac_stimorientation_import_loop.ran,Stimorientation,welcome_instr.started,welcome_instr.stopped,key_resp.keys,key_resp.rt,key_resp.duration,response_steppedout_1.started,response_steppedout_1.stopped,key_resp_20.keys,key_resp_20.rt,key_resp_20.duration,response_steppedout_2.started,response_steppedout_2.stopped,key_resp_19.keys,key_resp_19.rt,key_resp_19.duration,stim_response_instr.started,stim_response_instr.stopped,key_resp_15.keys,key_resp_15.rt,key_resp_15.duration,direction_instr_2.started,direction_instr_2.stopped,key_resp_9.keys,key_resp_9.rt,key_resp_9.duration,instr_prac.started,instr_prac.stopped,key_resp_10.keys,key_resp_10.rt,key_resp_10.duration,Stim1_display_prac.started,Stim1_display_prac.stopped,Ecc,Circle1_ori,Circle2_ori,response_prac.started,similarity,response_time,response_prac.stopped,mouse_5.x,mouse_5.y,mouse_5.leftButton,mouse_5.midButton,mouse_5.rightButton,mouse_5.clicked_name,responseprac_feedback.started,responseprac_feedback.stopped,summary2_prac.started,summary2_prac.stopped,mouse_6.x,mouse_6.y,mouse_6.leftButton,mouse_6.midButton,mouse_6.rightButton,mouse_6.clicked_name,duringprac.thisRepN,duringprac.thisTrialN,duringprac.thisN,duringprac.thisIndex,duringprac.ran,begin.started,begin.stopped,key_resp_22.keys,key_resp_22.rt,key_resp_22.duration,Stim1_display.started,Stim1_display.stopped,circle1_ori,circle2_ori,circle1_SF,circle2_SF,response.started,response.stopped,mouse.x,mouse.y,mouse.leftButton,mouse.midButton,mouse.rightButton,mouse.clicked_name,trialnumber,double_pass.thisRepN,double_pass.thisTrialN,double_pass.thisN,double_pass.thisIndex,double_pass.ran,double_pass.order,main_trial.thisRepN,main_trial.thisTrialN,main_trial.thisN,main_trial.thisIndex,main_trial.ran,main_trial.order,Trial_Counter,Catch,Frequencies,response_2.started,response_2.stopped,mouse_2.x,mouse_2.y,mouse_2.leftButton,mouse_2.midButton,mouse_2.rightButton,mouse_2.clicked_name,special_trial.started,special_trial.stopped,catch_1.started,catch_1.stopped,mouse_3.x,mouse_3.y,mouse_3.leftButton,mouse_3.midButton,mouse_3.rightButton,catchresponse,catchnumber,response_time_catch,response_sum.started,response_sum.stopped,mouse_11.x,mouse_11.y,mouse_11.leftButton,mouse_11.midButton,mouse_11.rightButton,flip_presentation_sequence_for_double_pass.started,flip_presentation_sequence_for_double_pass.stopped,goodbye.started,goodbye.stopped,key_resp_3.keys,key_resp_3.rt,key_resp_3.duration
0.0004,0.0005,60be9461f162e71cab759c78,2024-02-22_04h58.22.263,kallum_motion_pilot,2023.2.2,MacIntel,59.52380952,60be9461f162e71cab759c78,65d6bb0e977760de756971f7,65d6c64d19a6512e9d38113b,,,,,,,,,,,,,,,,,,,,,,,,,,,,,,,,,,,,,,,,,,,,,,,,,,,,,,,,,,,,,,,,,,,,,,,,,,,,,,,,,,,,,,,,,,,,,,,,,,,,,,,,,,,,,,,,,,,,,,,,,,,,,,,,,,,,,,,,,,,,,,,,,
,,60be9461f162e71cab759c78,2024-02-22_04h58.22.263,kallum_motion_pilot,2023.2.2,MacIntel,59.52380952,60be9461f162e71cab759c78,65d6bb0e977760de756971f7,65d6c64d19a6512e9d38113b,0.024,0.0242,0,0,0,130,1,sixfive,,,,,,,,,,,,,,,,,,,,,,,,,,,,,,,,,,,,,,,,,,,,,,,,,,,,,,,,,,,,,,,,,,,,,,,,,,,,,,,,,,,,,,,,,,,,,,,,,,,,,,,,,,,,,,,,,,,,,,,,,,,,,,,,,,,,,,,,,
,,60be9461f162e71cab759c78,2024-02-22_04h58.22.263,kallum_motion_pilot,2023.2.2,MacIntel,59.52380952,60be9461f162e71cab759c78,65d6bb0e977760de756971f7,65d6c64d19a6512e9d38113b,0.0244,0.0244,0,1,1,71,1,fourthree,,,,,,,,,,,,,,,,,,,,,,,,,,,,,,,,,,,,,,,,,,,,,,,,,,,,,,,,,,,,,,,,,,,,,,,,,,,,,,,,,,,,,,,,,,,,,,,,,,,,,,,,,,,,,,,,,,,,,,,,,,,,,,,,,,,,,,,,,
,,60be9461f162e71cab759c78,2024-02-22_04h58.22.263,kallum_motion_pilot,2023.2.2,MacIntel,59.52380952,60be9461f162e71cab759c78,65d6bb0e977760de756971f7,65d6c64d19a6512e9d38113b,0.0245,0.0245,0,2,2,44,1,threeone,,,,,,,,,,,,,,,,,,,,,,,,,,,,,,,,,,,,,,,,,,,,,,,,,,,,,,,,,,,,,,,,,,,,,,,,,,,,,,,,,,,,,,,,,,,,,,,,,,,,,,,,,,,,,,,,,,,,,,,,,,,,,,,,,,,,,,,,,
,,60be9461f162e71cab759c78,2024-02-22_04h58.22.263,kallum_motion_pilot,2023.2.2,MacIntel,59.52380952,60be9461f162e71cab759c78,65d6bb0e977760de756971f7,65d6c64d19a6512e9d38113b,0.0247,0.0247,0,3,3,40,1,onetwo,,,,,,,,,,,,,,,,,,,,,,,,,,,,,,,,,,,,,,,,,,,,,,,,,,,,,,,,,,,,,,,,,,,,,,,,,,,,,,,,,,,,,,,,,,,,,,,,,,,,,,,,,,,,,,,,,,,,,,,,,,,,,,,,,,,,,,,,,
,,60be9461f162e71cab759c78,2024-02-22_04h58.22.263,kallum_motion_pilot,2023.2.2,MacIntel,59.52380952,60be9461f162e71cab759c78,65d6bb0e977760de756971f7,65d6c64d19a6512e9d38113b,0.0249,0.0249,0,4,4,57,1,onethree,,,,,,,,,,,,,,,,,,,,,,,,,,,,,,,,,,,,,,,,,,,,,,,,,,,,,,,,,,,,,,,,,,,,,,,,,,,,,,,,,,,,,,,,,,,,,,,,,,,,,,,,,,,,,,,,,,,,,,,,,,,,,,,,,,,,,,,,,
,,60be9461f162e71cab759c78,2024-02-22_04h58.22.263,kallum_motion_pilot,2023.2.2,MacIntel,59.52380952,60be9461f162e71cab759c78,65d6bb0e977760de756971f7,65d6c64d19a6512e9d38113b,0.025,0.0251,0,5,5,103,1,eightseven,,,,,,,,,,,,,,,,,,,,,,,,,,,,,,,,,,,,,,,,,,,,,,,,,,,,,,,,,,,,,,,,,,,,,,,,,,,,,,,,,,,,,,,,,,,,,,,,,,,,,,,,,,,,,,,,,,,,,,,,,,,,,,,,,,,,,,,,,
,,60be9461f162e71cab759c78,2024-02-22_04h58.22.263,kallum_motion_pilot,2023.2.2,MacIntel,59.52380952,60be9461f162e71cab759c78,65d6bb0e977760de756971f7,65d6c64d19a6512e9d38113b,0.0251,0.0252,0,6,6,75,1,twofour,,,,,,,,,,,,,,,,,,,,,,,,,,,,,,,,,,,,,,,,,,,,,,,,,,,,,,,,,,,,,,,,,,,,,,,,,,,,,,,,,,,,,,,,,,,,,,,,,,,,,,,,,,,,,,,,,,,,,,,,,,,,,,,,,,,,,,,,,
,,60be9461f162e71cab759c78,2024-02-22_04h58.22.263,kallum_motion_pilot,2023.2.2,MacIntel,59.52380952,60be9461f162e71cab759c78,65d6bb0e977760de756971f7,65d6c64d19a6512e9d38113b,0.0253,0.0253,0,7,7,158,1,eightsix,,,,,,,,,,,,,,,,,,,,,,,,,,,,,,,,,,,,,,,,,,,,,,,,,,,,,,,,,,,,,,,,,,,,,,,,,,,,,,,,,,,,,,,,,,,,,,,,,,,,,,,,,,,,,,,,,,,,,,,,,,,,,,,,,,,,,,,,,
,,60be9461f162e71cab759c78,2024-02-22_04h58.22.263,kallum_motion_pilot,2023.2.2,MacIntel,59.52380952,60be9461f162e71cab759c78,65d6bb0e977760de756971f7,65d6c64d19a6512e9d38113b,0.0254,0.0254,0,8,8,2,1,twoone,,,,,,,,,,,,,,,,,,,,,,,,,,,,,,,,,,,,,,,,,,,,,,,,,,,,,,,,,,,,,,,,,,,,,,,,,,,,,,,,,,,,,,,,,,,,,,,,,,,,,,,,,,,,,,,,,,,,,,,,,,,,,,,,,,,,,,,,,
,,60be9461f162e71cab759c78,2024-02-22_04h58.22.263,kallum_motion_pilot,2023.2.2,MacIntel,59.52380952,60be9461f162e71cab759c78,65d6bb0e977760de756971f7,65d6c64d19a6512e9d38113b,0.0254,0.0255,0,9,9,11,1,twofour,,,,,,,,,,,,,,,,,,,,,,,,,,,,,,,,,,,,,,,,,,,,,,,,,,,,,,,,,,,,,,,,,,,,,,,,,,,,,,,,,,,,,,,,,,,,,,,,,,,,,,,,,,,,,,,,,,,,,,,,,,,,,,,,,,,,,,,,,
,,60be9461f162e71cab759c78,2024-02-22_04h58.22.263,kallum_motion_pilot,2023.2.2,MacIntel,59.52380952,60be9461f162e71cab759c78,65d6bb0e977760de756971f7,65d6c64d19a6512e9d38113b,0.0256,0.0256,0,10,10,127,1,eightseven,,,,,,,,,,,,,,,,,,,,,,,,,,,,,,,,,,,,,,,,,,,,,,,,,,,,,,,,,,,,,,,,,,,,,,,,,,,,,,,,,,,,,,,,,,,,,,,,,,,,,,,,,,,,,,,,,,,,,,,,,,,,,,,,,,,,,,,,,
,,60be9461f162e71cab759c78,2024-02-22_04h58.22.263,kallum_motion_pilot,2023.2.2,MacIntel,59.52380952,60be9461f162e71cab759c78,65d6bb0e977760de756971f7,65d6c64d19a6512e9d38113b,0.0257,0.0257,0,11,11,94,1,eightsix,,,,,,,,,,,,,,,,,,,,,,,,,,,,,,,,,,,,,,,,,,,,,,,,,,,,,,,,,,,,,,,,,,,,,,,,,,,,,,,,,,,,,,,,,,,,,,,,,,,,,,,,,,,,,,,,,,,,,,,,,,,,,,,,,,,,,,,,,
,,60be9461f162e71cab759c78,2024-02-22_04h58.22.263,kallum_motion_pilot,2023.2.2,MacIntel,59.52380952,60be9461f162e71cab759c78,65d6bb0e977760de756971f7,65d6c64d19a6512e9d38113b,0.0257,0.0257,0,12,12,128,1,fivesix,,,,,,,,,,,,,,,,,,,,,,,,,,,,,,,,,,,,,,,,,,,,,,,,,,,,,,,,,,,,,,,,,,,,,,,,,,,,,,,,,,,,,,,,,,,,,,,,,,,,,,,,,,,,,,,,,,,,,,,,,,,,,,,,,,,,,,,,,
,,60be9461f162e71cab759c78,2024-02-22_04h58.22.263,kallum_motion_pilot,2023.2.2,MacIntel,59.52380952,60be9461f162e71cab759c78,65d6bb0e977760de756971f7,65d6c64d19a6512e9d38113b,0.0257,0.0258,0,13,13,97,1,fiveseven,,,,,,,,,,,,,,,,,,,,,,,,,,,,,,,,,,,,,,,,,,,,,,,,,,,,,,,,,,,,,,,,,,,,,,,,,,,,,,,,,,,,,,,,,,,,,,,,,,,,,,,,,,,,,,,,,,,,,,,,,,,,,,,,,,,,,,,,,
,,60be9461f162e71cab759c78,2024-02-22_04h58.22.263,kallum_motion_pilot,2023.2.2,MacIntel,59.52380952,60be9461f162e71cab759c78,65d6bb0e977760de756971f7,65d6c64d19a6512e9d38113b,0.0259,0.0259,0,14,14,93,1,seveneight,,,,,,,,,,,,,,,,,,,,,,,,,,,,,,,,,,,,,,,,,,,,,,,,,,,,,,,,,,,,,,,,,,,,,,,,,,,,,,,,,,,,,,,,,,,,,,,,,,,,,,,,,,,,,,,,,,,,,,,,,,,,,,,,,,,,,,,,,
,,60be9461f162e71cab759c78,2024-02-22_04h58.22.263,kallum_motion_pilot,2023.2.2,MacIntel,59.52380952,60be9461f162e71cab759c78,65d6bb0e977760de756971f7,65d6c64d19a6512e9d38113b,0.026,0.026,0,15,15,78,1,fourtwo,,,,,,,,,,,,,,,,,,,,,,,,,,,,,,,,,,,,,,,,,,,,,,,,,,,,,,,,,,,,,,,,,,,,,,,,,,,,,,,,,,,,,,,,,,,,,,,,,,,,,,,,,,,,,,,,,,,,,,,,,,,,,,,,,,,,,,,,,
,,60be9461f162e71cab759c78,2024-02-22_04h58.22.263,kallum_motion_pilot,2023.2.2,MacIntel,59.52380952,60be9461f162e71cab759c78,65d6bb0e977760de756971f7,65d6c64d19a6512e9d38113b,0.0261,0.0261,0,16,16,49,1,onethree,,,,,,,,,,,,,,,,,,,,,,,,,,,,,,,,,,,,,,,,,,,,,,,,,,,,,,,,,,,,,,,,,,,,,,,,,,,,,,,,,,,,,,,,,,,,,,,,,,,,,,,,,,,,,,,,,,,,,,,,,,,,,,,,,,,,,,,,,
,,60be9461f162e71cab759c78,2024-02-22_04h58.22.263,kallum_motion_pilot,2023.2.2,MacIntel,59.52380952,60be9461f162e71cab759c78,65d6bb0e977760de756971f7,65d6c64d19a6512e9d38113b,0.0299,0.03,0,17,17,77,1,threefour,,,,,,,,,,,,,,,,,,,,,,,,,,,,,,,,,,,,,,,,,,,,,,,,,,,,,,,,,,,,,,,,,,,,,,,,,,,,,,,,,,,,,,,,,,,,,,,,,,,,,,,,,,,,,,,,,,,,,,,,,,,,,,,,,,,,,,,,,
,,60be9461f162e71cab759c78,2024-02-22_04h58.22.263,kallum_motion_pilot,2023.2.2,MacIntel,59.52380952,60be9461f162e71cab759c78,65d6bb0e977760de756971f7,65d6c64d19a6512e9d38113b,0.03,0.0301,0,18,18,121,1,fiveseven,,,,,,,,,,,,,,,,,,,,,,,,,,,,,,,,,,,,,,,,,,,,,,,,,,,,,,,,,,,,,,,,,,,,,,,,,,,,,,,,,,,,,,,,,,,,,,,,,,,,,,,,,,,,,,,,,,,,,,,,,,,,,,,,,,,,,,,,,
,,60be9461f162e71cab759c78,2024-02-22_04h58.22.263,kallum_motion_pilot,2023.2.2,MacIntel,59.52380952,60be9461f162e71cab759c78,65d6bb0e977760de756971f7,65d6c64d19a6512e9d38113b,0.0302,0.0302,0,19,19,81,1,fiveseven,,,,,,,,,,,,,,,,,,,,,,,,,,,,,,,,,,,,,,,,,,,,,,,,,,,,,,,,,,,,,,,,,,,,,,,,,,,,,,,,,,,,,,,,,,,,,,,,,,,,,,,,,,,,,,,,,,,,,,,,,,,,,,,,,,,,,,,,,
,,60be9461f162e71cab759c78,2024-02-22_04h58.22.263,kallum_motion_pilot,2023.2.2,MacIntel,59.52380952,60be9461f162e71cab759c78,65d6bb0e977760de756971f7,65d6c64d19a6512e9d38113b,0.0302,0.0302,0,20,20,35,1,twofour,,,,,,,,,,,,,,,,,,,,,,,,,,,,,,,,,,,,,,,,,,,,,,,,,,,,,,,,,,,,,,,,,,,,,,,,,,,,,,,,,,,,,,,,,,,,,,,,,,,,,,,,,,,,,,,,,,,,,,,,,,,,,,,,,,,,,,,,,
,,60be9461f162e71cab759c78,2024-02-22_04h58.22.263,kallum_motion_pilot,2023.2.2,MacIntel,59.52380952,60be9461f162e71cab759c78,65d6bb0e977760de756971f7,65d6c64d19a6512e9d38113b,0.0303,0.0304,0,21,21,110,1,eightsix,,,,,,,,,,,,,,,,,,,,,,,,,,,,,,,,,,,,,,,,,,,,,,,,,,,,,,,,,,,,,,,,,,,,,,,,,,,,,,,,,,,,,,,,,,,,,,,,,,,,,,,,,,,,,,,,,,,,,,,,,,,,,,,,,,,,,,,,,
,,60be9461f162e71cab759c78,2024-02-22_04h58.22.263,kallum_motion_pilot,2023.2.2,MacIntel,59.52380952,60be9461f162e71cab759c78,65d6bb0e977760de756971f7,65d6c64d19a6512e9d38113b,0.0304,0.0304,0,22,22,66,1,twoone,,,,,,,,,,,,,,,,,,,,,,,,,,,,,,,,,,,,,,,,,,,,,,,,,,,,,,,,,,,,,,,,,,,,,,,,,,,,,,,,,,,,,,,,,,,,,,,,,,,,,,,,,,,,,,,,,,,,,,,,,,,,,,,,,,,,,,,,,
,,60be9461f162e71cab759c78,2024-02-22_04h58.22.263,kallum_motion_pilot,2023.2.2,MacIntel,59.52380952,60be9461f162e71cab759c78,65d6bb0e977760de756971f7,65d6c64d19a6512e9d38113b,0.0304,0.0305,0,23,23,16,1,onetwo,,,,,,,,,,,,,,,,,,,,,,,,,,,,,,,,,,,,,,,,,,,,,,,,,,,,,,,,,,,,,,,,,,,,,,,,,,,,,,,,,,,,,,,,,,,,,,,,,,,,,,,,,,,,,,,,,,,,,,,,,,,,,,,,,,,,,,,,,
,,60be9461f162e71cab759c78,2024-02-22_04h58.22.263,kallum_motion_pilot,2023.2.2,MacIntel,59.52380952,60be9461f162e71cab759c78,65d6bb0e977760de756971f7,65d6c64d19a6512e9d38113b,0.0305,0.0306,0,24,24,113,1,fiveseven,,,,,,,,,,,,,,,,,,,,,,,,,,,,,,,,,,,,,,,,,,,,,,,,,,,,,,,,,,,,,,,,,,,,,,,,,,,,,,,,,,,,,,,,,,,,,,,,,,,,,,,,,,,,,,,,,,,,,,,,,,,,,,,,,,,,,,,,,
,,60be9461f162e71cab759c78,2024-02-22_04h58.22.263,kallum_motion_pilot,2023.2.2,MacIntel,59.52380952,60be9461f162e71cab759c78,65d6bb0e977760de756971f7,65d6c64d19a6512e9d38113b,0.0307,0.0307,0,25,25,50,1,twoone,,,,,,,,,,,,,,,,,,,,,,,,,,,,,,,,,,,,,,,,,,,,,,,,,,,,,,,,,,,,,,,,,,,,,,,,,,,,,,,,,,,,,,,,,,,,,,,,,,,,,,,,,,,,,,,,,,,,,,,,,,,,,,,,,,,,,,,,,
,,60be9461f162e71cab759c78,2024-02-22_04h58.22.263,kallum_motion_pilot,2023.2.2,MacIntel,59.52380952,60be9461f162e71cab759c78,65d6bb0e977760de756971f7,65d6c64d19a6512e9d38113b,0.0308,0.0308,0,26,26,115,1,sixeight,,,,,,,,,,,,,,,,,,,,,,,,,,,,,,,,,,,,,,,,,,,,,,,,,,,,,,,,,,,,,,,,,,,,,,,,,,,,,,,,,,,,,,,,,,,,,,,,,,,,,,,,,,,,,,,,,,,,,,,,,,,,,,,,,,,,,,,,,
,,60be9461f162e71cab759c78,2024-02-22_04h58.22.263,kallum_motion_pilot,2023.2.2,MacIntel,59.52380952,60be9461f162e71cab759c78,65d6bb0e977760de756971f7,65d6c64d19a6512e9d38113b,0.0308,0.0309,0,27,27,125,1,seveneight,,,,,,,,,,,,,,,,,,,,,,,,,,,,,,,,,,,,,,,,,,,,,,,,,,,,,,,,,,,,,,,,,,,,,,,,,,,,,,,,,,,,,,,,,,,,,,,,,,,,,,,,,,,,,,,,,,,,,,,,,,,,,,,,,,,,,,,,,
,,60be9461f162e71cab759c78,2024-02-22_04h58.22.263,kallum_motion_pilot,2023.2.2,MacIntel,59.52380952,60be9461f162e71cab759c78,65d6bb0e977760de756971f7,65d6c64d19a6512e9d38113b,0.0309,0.0309,0,28,28,83,1,sixeight,,,,,,,,,,,,,,,,,,,,,,,,,,,,,,,,,,,,,,,,,,,,,,,,,,,,,,,,,,,,,,,,,,,,,,,,,,,,,,,,,,,,,,,,,,,,,,,,,,,,,,,,,,,,,,,,,,,,,,,,,,,,,,,,,,,,,,,,,
,,60be9461f162e71cab759c78,2024-02-22_04h58.22.263,kallum_motion_pilot,2023.2.2,MacIntel,59.52380952,60be9461f162e71cab759c78,65d6bb0e977760de756971f7,65d6c64d19a6512e9d38113b,0.0309,0.031,0,29,29,64,1,onetwo,,,,,,,,,,,,,,,,,,,,,,,,,,,,,,,,,,,,,,,,,,,,,,,,,,,,,,,,,,,,,,,,,,,,,,,,,,,,,,,,,,,,,,,,,,,,,,,,,,,,,,,,,,,,,,,,,,,,,,,,,,,,,,,,,,,,,,,,,
,,60be9461f162e71cab759c78,2024-02-22_04h58.22.263,kallum_motion_pilot,2023.2.2,MacIntel,59.52380952,60be9461f162e71cab759c78,65d6bb0e977760de756971f7,65d6c64d19a6512e9d38113b,0.031,0.0311,0,30,30,118,1,eightsix,,,,,,,,,,,,,,,,,,,,,,,,,,,,,,,,,,,,,,,,,,,,,,,,,,,,,,,,,,,,,,,,,,,,,,,,,,,,,,,,,,,,,,,,,,,,,,,,,,,,,,,,,,,,,,,,,,,,,,,,,,,,,,,,,,,,,,,,,
,,60be9461f162e71cab759c78,2024-02-22_04h58.22.263,kallum_motion_pilot,2023.2.2,MacIntel,59.52380952,60be9461f162e71cab759c78,65d6bb0e977760de756971f7,65d6c64d19a6512e9d38113b,0.0311,0.0311,0,31,31,67,1,twofour,,,,,,,,,,,,,,,,,,,,,,,,,,,,,,,,,,,,,,,,,,,,,,,,,,,,,,,,,,,,,,,,,,,,,,,,,,,,,,,,,,,,,,,,,,,,,,,,,,,,,,,,,,,,,,,,,,,,,,,,,,,,,,,,,,,,,,,,,
,,60be9461f162e71cab759c78,2024-02-22_04h58.22.263,kallum_motion_pilot,2023.2.2,MacIntel,59.52380952,60be9461f162e71cab759c78,65d6bb0e977760de756971f7,65d6c64d19a6512e9d38113b,0.0311,0.0311,0,32,32,146,1,sixfive,,,,,,,,,,,,,,,,,,,,,,,,,,,,,,,,,,,,,,,,,,,,,,,,,,,,,,,,,,,,,,,,,,,,,,,,,,,,,,,,,,,,,,,,,,,,,,,,,,,,,,,,,,,,,,,,,,,,,,,,,,,,,,,,,,,,,,,,,
,,60be9461f162e71cab759c78,2024-02-22_04h58.22.263,kallum_motion_pilot,2023.2.2,MacIntel,59.52380952,60be9461f162e71cab759c78,65d6bb0e977760de756971f7,65d6c64d19a6512e9d38113b,0.0313,0.0313,0,33,33,41,1,onethree,,,,,,,,,,,,,,,,,,,,,,,,,,,,,,,,,,,,,,,,,,,,,,,,,,,,,,,,,,,,,,,,,,,,,,,,,,,,,,,,,,,,,,,,,,,,,,,,,,,,,,,,,,,,,,,,,,,,,,,,,,,,,,,,,,,,,,,,,
,,60be9461f162e71cab759c78,2024-02-22_04h58.22.263,kallum_motion_pilot,2023.2.2,MacIntel,59.52380952,60be9461f162e71cab759c78,65d6bb0e977760de756971f7,65d6c64d19a6512e9d38113b,0.0313,0.0313,0,34,34,154,1,sixfive,,,,,,,,,,,,,,,,,,,,,,,,,,,,,,,,,,,,,,,,,,,,,,,,,,,,,,,,,,,,,,,,,,,,,,,,,,,,,,,,,,,,,,,,,,,,,,,,,,,,,,,,,,,,,,,,,,,,,,,,,,,,,,,,,,,,,,,,,
,,60be9461f162e71cab759c78,2024-02-22_04h58.22.263,kallum_motion_pilot,2023.2.2,MacIntel,59.52380952,60be9461f162e71cab759c78,65d6bb0e977760de756971f7,65d6c64d19a6512e9d38113b,0.0314,0.0315,0,35,35,17,1,onethree,,,,,,,,,,,,,,,,,,,,,,,,,,,,,,,,,,,,,,,,,,,,,,,,,,,,,,,,,,,,,,,,,,,,,,,,,,,,,,,,,,,,,,,,,,,,,,,,,,,,,,,,,,,,,,,,,,,,,,,,,,,,,,,,,,,,,,,,,
,,60be9461f162e71cab759c78,2024-02-22_04h58.22.263,kallum_motion_pilot,2023.2.2,MacIntel,59.52380952,60be9461f162e71cab759c78,65d6bb0e977760de756971f7,65d6c64d19a6512e9d38113b,0.0315,0.0315,0,36,36,101,1,seveneight,,,,,,,,,,,,,,,,,,,,,,,,,,,,,,,,,,,,,,,,,,,,,,,,,,,,,,,,,,,,,,,,,,,,,,,,,,,,,,,,,,,,,,,,,,,,,,,,,,,,,,,,,,,,,,,,,,,,,,,,,,,,,,,,,,,,,,,,,
,,60be9461f162e71cab759c78,2024-02-22_04h58.22.263,kallum_motion_pilot,2023.2.2,MacIntel,59.52380952,60be9461f162e71cab759c78,65d6bb0e977760de756971f7,65d6c64d19a6512e9d38113b,0.0316,0.0316,0,37,37,22,1,fourtwo,,,,,,,,,,,,,,,,,,,,,,,,,,,,,,,,,,,,,,,,,,,,,,,,,,,,,,,,,,,,,,,,,,,,,,,,,,,,,,,,,,,,,,,,,,,,,,,,,,,,,,,,,,,,,,,,,,,,,,,,,,,,,,,,,,,,,,,,,
,,60be9461f162e71cab759c78,2024-02-22_04h58.22.263,kallum_motion_pilot,2023.2.2,MacIntel,59.52380952,60be9461f162e71cab759c78,65d6bb0e977760de756971f7,65d6c64d19a6512e9d38113b,0.0316,0.0316,0,38,38,1,1,onethree,,,,,,,,,,,,,,,,,,,,,,,,,,,,,,,,,,,,,,,,,,,,,,,,,,,,,,,,,,,,,,,,,,,,,,,,,,,,,,,,,,,,,,,,,,,,,,,,,,,,,,,,,,,,,,,,,,,,,,,,,,,,,,,,,,,,,,,,,
,,60be9461f162e71cab759c78,2024-02-22_04h58.22.263,kallum_motion_pilot,2023.2.2,MacIntel,59.52380952,60be9461f162e71cab759c78,65d6bb0e977760de756971f7,65d6c64d19a6512e9d38113b,0.0317,0.0317,0,39,39,89,1,fiveseven,,,,,,,,,,,,,,,,,,,,,,,,,,,,,,,,,,,,,,,,,,,,,,,,,,,,,,,,,,,,,,,,,,,,,,,,,,,,,,,,,,,,,,,,,,,,,,,,,,,,,,,,,,,,,,,,,,,,,,,,,,,,,,,,,,,,,,,,,
,,60be9461f162e71cab759c78,2024-02-22_04h58.22.263,kallum_motion_pilot,2023.2.2,MacIntel,59.52380952,60be9461f162e71cab759c78,65d6bb0e977760de756971f7,65d6c64d19a6512e9d38113b,0.0318,0.0318,0,40,40,24,1,onetwo,,,,,,,,,,,,,,,,,,,,,,,,,,,,,,,,,,,,,,,,,,,,,,,,,,,,,,,,,,,,,,,,,,,,,,,,,,,,,,,,,,,,,,,,,,,,,,,,,,,,,,,,,,,,,,,,,,,,,,,,,,,,,,,,,,,,,,,,,
,,60be9461f162e71cab759c78,2024-02-22_04h58.22.263,kallum_motion_pilot,2023.2.2,MacIntel,59.52380952,60be9461f162e71cab759c78,65d6bb0e977760de756971f7,65d6c64d19a6512e9d38113b,0.0318,0.0319,0,41,41,99,1,sixeight,,,,,,,,,,,,,,,,,,,,,,,,,,,,,,,,,,,,,,,,,,,,,,,,,,,,,,,,,,,,,,,,,,,,,,,,,,,,,,,,,,,,,,,,,,,,,,,,,,,,,,,,,,,,,,,,,,,,,,,,,,,,,,,,,,,,,,,,,
,,60be9461f162e71cab759c78,2024-02-22_04h58.22.263,kallum_motion_pilot,2023.2.2,MacIntel,59.52380952,60be9461f162e71cab759c78,65d6bb0e977760de756971f7,65d6c64d19a6512e9d38113b,0.0319,0.0319,0,42,42,62,1,fourtwo,,,,,,,,,,,,,,,,,,,,,,,,,,,,,,,,,,,,,,,,,,,,,,,,,,,,,,,,,,,,,,,,,,,,,,,,,,,,,,,,,,,,,,,,,,,,,,,,,,,,,,,,,,,,,,,,,,,,,,,,,,,,,,,,,,,,,,,,,
,,60be9461f162e71cab759c78,2024-02-22_04h58.22.263,kallum_motion_pilot,2023.2.2,MacIntel,59.52380952,60be9461f162e71cab759c78,65d6bb0e977760de756971f7,65d6c64d19a6512e9d38113b,0.032,0.032,0,43,43,108,1,sevenfive,,,,,,,,,,,,,,,,,,,,,,,,,,,,,,,,,,,,,,,,,,,,,,,,,,,,,,,,,,,,,,,,,,,,,,,,,,,,,,,,,,,,,,,,,,,,,,,,,,,,,,,,,,,,,,,,,,,,,,,,,,,,,,,,,,,,,,,,,
,,60be9461f162e71cab759c78,2024-02-22_04h58.22.263,kallum_motion_pilot,2023.2.2,MacIntel,59.52380952,60be9461f162e71cab759c78,65d6bb0e977760de756971f7,65d6c64d19a6512e9d38113b,0.0321,0.0321,0,44,44,18,1,twoone,,,,,,,,,,,,,,,,,,,,,,,,,,,,,,,,,,,,,,,,,,,,,,,,,,,,,,,,,,,,,,,,,,,,,,,,,,,,,,,,,,,,,,,,,,,,,,,,,,,,,,,,,,,,,,,,,,,,,,,,,,,,,,,,,,,,,,,,,
,,60be9461f162e71cab759c78,2024-02-22_04h58.22.263,kallum_motion_pilot,2023.2.2,MacIntel,59.52380952,60be9461f162e71cab759c78,65d6bb0e977760de756971f7,65d6c64d19a6512e9d38113b,0.0322,0.0322,0,45,45,112,1,fivesix,,,,,,,,,,,,,,,,,,,,,,,,,,,,,,,,,,,,,,,,,,,,,,,,,,,,,,,,,,,,,,,,,,,,,,,,,,,,,,,,,,,,,,,,,,,,,,,,,,,,,,,,,,,,,,,,,,,,,,,,,,,,,,,,,,,,,,,,,
,,60be9461f162e71cab759c78,2024-02-22_04h58.22.263,kallum_motion_pilot,2023.2.2,MacIntel,59.52380952,60be9461f162e71cab759c78,65d6bb0e977760de756971f7,65d6c64d19a6512e9d38113b,0.0323,0.0323,0,46,46,6,1,fourtwo,,,,,,,,,,,,,,,,,,,,,,,,,,,,,,,,,,,,,,,,,,,,,,,,,,,,,,,,,,,,,,,,,,,,,,,,,,,,,,,,,,,,,,,,,,,,,,,,,,,,,,,,,,,,,,,,,,,,,,,,,,,,,,,,,,,,,,,,,
,,60be9461f162e71cab759c78,2024-02-22_04h58.22.263,kallum_motion_pilot,2023.2.2,MacIntel,59.52380952,60be9461f162e71cab759c78,65d6bb0e977760de756971f7,65d6c64d19a6512e9d38113b,0.0323,0.0323,0,47,47,58,1,twoone,,,,,,,,,,,,,,,,,,,,,,,,,,,,,,,,,,,,,,,,,,,,,,,,,,,,,,,,,,,,,,,,,,,,,,,,,,,,,,,,,,,,,,,,,,,,,,,,,,,,,,,,,,,,,,,,,,,,,,,,,,,,,,,,,,,,,,,,,
,,60be9461f162e71cab759c78,2024-02-22_04h58.22.263,kallum_motion_pilot,2023.2.2,MacIntel,59.52380952,60be9461f162e71cab759c78,65d6bb0e977760de756971f7,65d6c64d19a6512e9d38113b,0.0324,0.0324,0,48,48,32,1,onetwo,,,,,,,,,,,,,,,,,,,,,,,,,,,,,,,,,,,,,,,,,,,,,,,,,,,,,,,,,,,,,,,,,,,,,,,,,,,,,,,,,,,,,,,,,,,,,,,,,,,,,,,,,,,,,,,,,,,,,,,,,,,,,,,,,,,,,,,,,
,,60be9461f162e71cab759c78,2024-02-22_04h58.22.263,kallum_motion_pilot,2023.2.2,MacIntel,59.52380952,60be9461f162e71cab759c78,65d6bb0e977760de756971f7,65d6c64d19a6512e9d38113b,0.0325,0.0325,0,49,49,72,1,onetwo,,,,,,,,,,,,,,,,,,,,,,,,,,,,,,,,,,,,,,,,,,,,,,,,,,,,,,,,,,,,,,,,,,,,,,,,,,,,,,,,,,,,,,,,,,,,,,,,,,,,,,,,,,,,,,,,,,,,,,,,,,,,,,,,,,,,,,,,,
,,60be9461f162e71cab759c78,2024-02-22_04h58.22.263,kallum_motion_pilot,2023.2.2,MacIntel,59.52380952,60be9461f162e71cab759c78,65d6bb0e977760de756971f7,65d6c64d19a6512e9d38113b,0.0325,0.0325,0,50,50,107,1,sixeight,,,,,,,,,,,,,,,,,,,,,,,,,,,,,,,,,,,,,,,,,,,,,,,,,,,,,,,,,,,,,,,,,,,,,,,,,,,,,,,,,,,,,,,,,,,,,,,,,,,,,,,,,,,,,,,,,,,,,,,,,,,,,,,,,,,,,,,,,
,,60be9461f162e71cab759c78,2024-02-22_04h58.22.263,kallum_motion_pilot,2023.2.2,MacIntel,59.52380952,60be9461f162e71cab759c78,65d6bb0e977760de756971f7,65d6c64d19a6512e9d38113b,0.0326,0.0327,0,51,51,43,1,twofour,,,,,,,,,,,,,,,,,,,,,,,,,,,,,,,,,,,,,,,,,,,,,,,,,,,,,,,,,,,,,,,,,,,,,,,,,,,,,,,,,,,,,,,,,,,,,,,,,,,,,,,,,,,,,,,,,,,,,,,,,,,,,,,,,,,,,,,,,
,,60be9461f162e71cab759c78,2024-02-22_04h58.22.263,kallum_motion_pilot,2023.2.2,MacIntel,59.52380952,60be9461f162e71cab759c78,65d6bb0e977760de756971f7,65d6c64d19a6512e9d38113b,0.0327,0.0327,0,52,52,91,1,sixeight,,,,,,,,,,,,,,,,,,,,,,,,,,,,,,,,,,,,,,,,,,,,,,,,,,,,,,,,,,,,,,,,,,,,,,,,,,,,,,,,,,,,,,,,,,,,,,,,,,,,,,,,,,,,,,,,,,,,,,,,,,,,,,,,,,,,,,,,,
,,60be9461f162e71cab759c78,2024-02-22_04h58.22.263,kallum_motion_pilot,2023.2.2,MacIntel,59.52380952,60be9461f162e71cab759c78,65d6bb0e977760de756971f7,65d6c64d19a6512e9d38113b,0.0328,0.0329,0,53,53,74,1,twoone,,,,,,,,,,,,,,,,,,,,,,,,,,,,,,,,,,,,,,,,,,,,,,,,,,,,,,,,,,,,,,,,,,,,,,,,,,,,,,,,,,,,,,,,,,,,,,,,,,,,,,,,,,,,,,,,,,,,,,,,,,,,,,,,,,,,,,,,,
,,60be9461f162e71cab759c78,2024-02-22_04h58.22.263,kallum_motion_pilot,2023.2.2,MacIntel,59.52380952,60be9461f162e71cab759c78,65d6bb0e977760de756971f7,65d6c64d19a6512e9d38113b,0.0329,0.0329,0,54,54,48,1,onetwo,,,,,,,,,,,,,,,,,,,,,,,,,,,,,,,,,,,,,,,,,,,,,,,,,,,,,,,,,,,,,,,,,,,,,,,,,,,,,,,,,,,,,,,,,,,,,,,,,,,,,,,,,,,,,,,,,,,,,,,,,,,,,,,,,,,,,,,,,
,,60be9461f162e71cab759c78,2024-02-22_04h58.22.263,kallum_motion_pilot,2023.2.2,MacIntel,59.52380952,60be9461f162e71cab759c78,65d6bb0e977760de756971f7,65d6c64d19a6512e9d38113b,0.033,0.033,0,55,55,45,1,threefour,,,,,,,,,,,,,,,,,,,,,,,,,,,,,,,,,,,,,,,,,,,,,,,,,,,,,,,,,,,,,,,,,,,,,,,,,,,,,,,,,,,,,,,,,,,,,,,,,,,,,,,,,,,,,,,,,,,,,,,,,,,,,,,,,,,,,,,,,
,,60be9461f162e71cab759c78,2024-02-22_04h58.22.263,kallum_motion_pilot,2023.2.2,MacIntel,59.52380952,60be9461f162e71cab759c78,65d6bb0e977760de756971f7,65d6c64d19a6512e9d38113b,0.0331,0.0331,0,56,56,149,1,seveneight,,,,,,,,,,,,,,,,,,,,,,,,,,,,,,,,,,,,,,,,,,,,,,,,,,,,,,,,,,,,,,,,,,,,,,,,,,,,,,,,,,,,,,,,,,,,,,,,,,,,,,,,,,,,,,,,,,,,,,,,,,,,,,,,,,,,,,,,,
,,60be9461f162e71cab759c78,2024-02-22_04h58.22.263,kallum_motion_pilot,2023.2.2,MacIntel,59.52380952,60be9461f162e71cab759c78,65d6bb0e977760de756971f7,65d6c64d19a6512e9d38113b,0.0332,0.0333,0,57,57,20,1,threeone,,,,,,,,,,,,,,,,,,,,,,,,,,,,,,,,,,,,,,,,,,,,,,,,,,,,,,,,,,,,,,,,,,,,,,,,,,,,,,,,,,,,,,,,,,,,,,,,,,,,,,,,,,,,,,,,,,,,,,,,,,,,,,,,,,,,,,,,,
,,60be9461f162e71cab759c78,2024-02-22_04h58.22.263,kallum_motion_pilot,2023.2.2,MacIntel,59.52380952,60be9461f162e71cab759c78,65d6bb0e977760de756971f7,65d6c64d19a6512e9d38113b,0.0334,0.0334,0,58,58,36,1,threeone,,,,,,,,,,,,,,,,,,,,,,,,,,,,,,,,,,,,,,,,,,,,,,,,,,,,,,,,,,,,,,,,,,,,,,,,,,,,,,,,,,,,,,,,,,,,,,,,,,,,,,,,,,,,,,,,,,,,,,,,,,,,,,,,,,,,,,,,,
,,60be9461f162e71cab759c78,2024-02-22_04h58.22.263,kallum_motion_pilot,2023.2.2,MacIntel,59.52380952,60be9461f162e71cab759c78,65d6bb0e977760de756971f7,65d6c64d19a6512e9d38113b,0.0336,0.0336,0,59,59,143,1,eightseven,,,,,,,,,,,,,,,,,,,,,,,,,,,,,,,,,,,,,,,,,,,,,,,,,,,,,,,,,,,,,,,,,,,,,,,,,,,,,,,,,,,,,,,,,,,,,,,,,,,,,,,,,,,,,,,,,,,,,,,,,,,,,,,,,,,,,,,,,
,,60be9461f162e71cab759c78,2024-02-22_04h58.22.263,kallum_motion_pilot,2023.2.2,MacIntel,59.52380952,60be9461f162e71cab759c78,65d6bb0e977760de756971f7,65d6c64d19a6512e9d38113b,0.0336,0.0336,0,60,60,46,1,fourtwo,,,,,,,,,,,,,,,,,,,,,,,,,,,,,,,,,,,,,,,,,,,,,,,,,,,,,,,,,,,,,,,,,,,,,,,,,,,,,,,,,,,,,,,,,,,,,,,,,,,,,,,,,,,,,,,,,,,,,,,,,,,,,,,,,,,,,,,,,
,,60be9461f162e71cab759c78,2024-02-22_04h58.22.263,kallum_motion_pilot,2023.2.2,MacIntel,59.52380952,60be9461f162e71cab759c78,65d6bb0e977760de756971f7,65d6c64d19a6512e9d38113b,0.0337,0.0337,0,61,61,160,1,fivesix,,,,,,,,,,,,,,,,,,,,,,,,,,,,,,,,,,,,,,,,,,,,,,,,,,,,,,,,,,,,,,,,,,,,,,,,,,,,,,,,,,,,,,,,,,,,,,,,,,,,,,,,,,,,,,,,,,,,,,,,,,,,,,,,,,,,,,,,,
,,60be9461f162e71cab759c78,2024-02-22_04h58.22.263,kallum_motion_pilot,2023.2.2,MacIntel,59.52380952,60be9461f162e71cab759c78,65d6bb0e977760de756971f7,65d6c64d19a6512e9d38113b,0.0338,0.0338,0,62,62,10,1,twoone,,,,,,,,,,,,,,,,,,,,,,,,,,,,,,,,,,,,,,,,,,,,,,,,,,,,,,,,,,,,,,,,,,,,,,,,,,,,,,,,,,,,,,,,,,,,,,,,,,,,,,,,,,,,,,,,,,,,,,,,,,,,,,,,,,,,,,,,,
,,60be9461f162e71cab759c78,2024-02-22_04h58.22.263,kallum_motion_pilot,2023.2.2,MacIntel,59.52380952,60be9461f162e71cab759c78,65d6bb0e977760de756971f7,65d6c64d19a6512e9d38113b,0.0339,0.0339,0,63,63,114,1,sixfive,,,,,,,,,,,,,,,,,,,,,,,,,,,,,,,,,,,,,,,,,,,,,,,,,,,,,,,,,,,,,,,,,,,,,,,,,,,,,,,,,,,,,,,,,,,,,,,,,,,,,,,,,,,,,,,,,,,,,,,,,,,,,,,,,,,,,,,,,
,,60be9461f162e71cab759c78,2024-02-22_04h58.22.263,kallum_motion_pilot,2023.2.2,MacIntel,59.52380952,60be9461f162e71cab759c78,65d6bb0e977760de756971f7,65d6c64d19a6512e9d38113b,0.034,0.034,0,64,64,156,1,sevenfive,,,,,,,,,,,,,,,,,,,,,,,,,,,,,,,,,,,,,,,,,,,,,,,,,,,,,,,,,,,,,,,,,,,,,,,,,,,,,,,,,,,,,,,,,,,,,,,,,,,,,,,,,,,,,,,,,,,,,,,,,,,,,,,,,,,,,,,,,
,,60be9461f162e71cab759c78,2024-02-22_04h58.22.263,kallum_motion_pilot,2023.2.2,MacIntel,59.52380952,60be9461f162e71cab759c78,65d6bb0e977760de756971f7,65d6c64d19a6512e9d38113b,0.034,0.034,0,65,65,13,1,threefour,,,,,,,,,,,,,,,,,,,,,,,,,,,,,,,,,,,,,,,,,,,,,,,,,,,,,,,,,,,,,,,,,,,,,,,,,,,,,,,,,,,,,,,,,,,,,,,,,,,,,,,,,,,,,,,,,,,,,,,,,,,,,,,,,,,,,,,,,
,,60be9461f162e71cab759c78,2024-02-22_04h58.22.263,kallum_motion_pilot,2023.2.2,MacIntel,59.52380952,60be9461f162e71cab759c78,65d6bb0e977760de756971f7,65d6c64d19a6512e9d38113b,0.0341,0.0341,0,66,66,25,1,onethree,,,,,,,,,,,,,,,,,,,,,,,,,,,,,,,,,,,,,,,,,,,,,,,,,,,,,,,,,,,,,,,,,,,,,,,,,,,,,,,,,,,,,,,,,,,,,,,,,,,,,,,,,,,,,,,,,,,,,,,,,,,,,,,,,,,,,,,,,
,,60be9461f162e71cab759c78,2024-02-22_04h58.22.263,kallum_motion_pilot,2023.2.2,MacIntel,59.52380952,60be9461f162e71cab759c78,65d6bb0e977760de756971f7,65d6c64d19a6512e9d38113b,0.0343,0.0343,0,67,67,153,1,fiveseven,,,,,,,,,,,,,,,,,,,,,,,,,,,,,,,,,,,,,,,,,,,,,,,,,,,,,,,,,,,,,,,,,,,,,,,,,,,,,,,,,,,,,,,,,,,,,,,,,,,,,,,,,,,,,,,,,,,,,,,,,,,,,,,,,,,,,,,,,
,,60be9461f162e71cab759c78,2024-02-22_04h58.22.263,kallum_motion_pilot,2023.2.2,MacIntel,59.52380952,60be9461f162e71cab759c78,65d6bb0e977760de756971f7,65d6c64d19a6512e9d38113b,0.0343,0.0343,0,68,68,150,1,eightsix,,,,,,,,,,,,,,,,,,,,,,,,,,,,,,,,,,,,,,,,,,,,,,,,,,,,,,,,,,,,,,,,,,,,,,,,,,,,,,,,,,,,,,,,,,,,,,,,,,,,,,,,,,,,,,,,,,,,,,,,,,,,,,,,,,,,,,,,,
,,60be9461f162e71cab759c78,2024-02-22_04h58.22.263,kallum_motion_pilot,2023.2.2,MacIntel,59.52380952,60be9461f162e71cab759c78,65d6bb0e977760de756971f7,65d6c64d19a6512e9d38113b,0.0344,0.0345,0,69,69,60,1,threeone,,,,,,,,,,,,,,,,,,,,,,,,,,,,,,,,,,,,,,,,,,,,,,,,,,,,,,,,,,,,,,,,,,,,,,,,,,,,,,,,,,,,,,,,,,,,,,,,,,,,,,,,,,,,,,,,,,,,,,,,,,,,,,,,,,,,,,,,,
,,60be9461f162e71cab759c78,2024-02-22_04h58.22.263,kallum_motion_pilot,2023.2.2,MacIntel,59.52380952,60be9461f162e71cab759c78,65d6bb0e977760de756971f7,65d6c64d19a6512e9d38113b,0.0345,0.0345,0,70,70,116,1,sevenfive,,,,,,,,,,,,,,,,,,,,,,,,,,,,,,,,,,,,,,,,,,,,,,,,,,,,,,,,,,,,,,,,,,,,,,,,,,,,,,,,,,,,,,,,,,,,,,,,,,,,,,,,,,,,,,,,,,,,,,,,,,,,,,,,,,,,,,,,,
,,60be9461f162e71cab759c78,2024-02-22_04h58.22.263,kallum_motion_pilot,2023.2.2,MacIntel,59.52380952,60be9461f162e71cab759c78,65d6bb0e977760de756971f7,65d6c64d19a6512e9d38113b,0.0346,0.0346,0,71,71,9,1,onethree,,,,,,,,,,,,,,,,,,,,,,,,,,,,,,,,,,,,,,,,,,,,,,,,,,,,,,,,,,,,,,,,,,,,,,,,,,,,,,,,,,,,,,,,,,,,,,,,,,,,,,,,,,,,,,,,,,,,,,,,,,,,,,,,,,,,,,,,,
,,60be9461f162e71cab759c78,2024-02-22_04h58.22.263,kallum_motion_pilot,2023.2.2,MacIntel,59.52380952,60be9461f162e71cab759c78,65d6bb0e977760de756971f7,65d6c64d19a6512e9d38113b,0.0347,0.0347,0,72,72,96,1,fivesix,,,,,,,,,,,,,,,,,,,,,,,,,,,,,,,,,,,,,,,,,,,,,,,,,,,,,,,,,,,,,,,,,,,,,,,,,,,,,,,,,,,,,,,,,,,,,,,,,,,,,,,,,,,,,,,,,,,,,,,,,,,,,,,,,,,,,,,,,
,,60be9461f162e71cab759c78,2024-02-22_04h58.22.263,kallum_motion_pilot,2023.2.2,MacIntel,59.52380952,60be9461f162e71cab759c78,65d6bb0e977760de756971f7,65d6c64d19a6512e9d38113b,0.0347,0.0348,0,73,73,56,1,onetwo,,,,,,,,,,,,,,,,,,,,,,,,,,,,,,,,,,,,,,,,,,,,,,,,,,,,,,,,,,,,,,,,,,,,,,,,,,,,,,,,,,,,,,,,,,,,,,,,,,,,,,,,,,,,,,,,,,,,,,,,,,,,,,,,,,,,,,,,,
,,60be9461f162e71cab759c78,2024-02-22_04h58.22.263,kallum_motion_pilot,2023.2.2,MacIntel,59.52380952,60be9461f162e71cab759c78,65d6bb0e977760de756971f7,65d6c64d19a6512e9d38113b,0.0348,0.0348,0,74,74,4,1,threeone,,,,,,,,,,,,,,,,,,,,,,,,,,,,,,,,,,,,,,,,,,,,,,,,,,,,,,,,,,,,,,,,,,,,,,,,,,,,,,,,,,,,,,,,,,,,,,,,,,,,,,,,,,,,,,,,,,,,,,,,,,,,,,,,,,,,,,,,,
,,60be9461f162e71cab759c78,2024-02-22_04h58.22.263,kallum_motion_pilot,2023.2.2,MacIntel,59.52380952,60be9461f162e71cab759c78,65d6bb0e977760de756971f7,65d6c64d19a6512e9d38113b,0.0349,0.0349,0,75,75,12,1,threeone,,,,,,,,,,,,,,,,,,,,,,,,,,,,,,,,,,,,,,,,,,,,,,,,,,,,,,,,,,,,,,,,,,,,,,,,,,,,,,,,,,,,,,,,,,,,,,,,,,,,,,,,,,,,,,,,,,,,,,,,,,,,,,,,,,,,,,,,,
,,60be9461f162e71cab759c78,2024-02-22_04h58.22.263,kallum_motion_pilot,2023.2.2,MacIntel,59.52380952,60be9461f162e71cab759c78,65d6bb0e977760de756971f7,65d6c64d19a6512e9d38113b,0.035,0.035,0,76,76,100,1,sevenfive,,,,,,,,,,,,,,,,,,,,,,,,,,,,,,,,,,,,,,,,,,,,,,,,,,,,,,,,,,,,,,,,,,,,,,,,,,,,,,,,,,,,,,,,,,,,,,,,,,,,,,,,,,,,,,,,,,,,,,,,,,,,,,,,,,,,,,,,,
,,60be9461f162e71cab759c78,2024-02-22_04h58.22.263,kallum_motion_pilot,2023.2.2,MacIntel,59.52380952,60be9461f162e71cab759c78,65d6bb0e977760de756971f7,65d6c64d19a6512e9d38113b,0.0351,0.0352,0,77,77,0,1,onetwo,,,,,,,,,,,,,,,,,,,,,,,,,,,,,,,,,,,,,,,,,,,,,,,,,,,,,,,,,,,,,,,,,,,,,,,,,,,,,,,,,,,,,,,,,,,,,,,,,,,,,,,,,,,,,,,,,,,,,,,,,,,,,,,,,,,,,,,,,
,,60be9461f162e71cab759c78,2024-02-22_04h58.22.263,kallum_motion_pilot,2023.2.2,MacIntel,59.52380952,60be9461f162e71cab759c78,65d6bb0e977760de756971f7,65d6c64d19a6512e9d38113b,0.0352,0.0353,0,78,78,38,1,fourtwo,,,,,,,,,,,,,,,,,,,,,,,,,,,,,,,,,,,,,,,,,,,,,,,,,,,,,,,,,,,,,,,,,,,,,,,,,,,,,,,,,,,,,,,,,,,,,,,,,,,,,,,,,,,,,,,,,,,,,,,,,,,,,,,,,,,,,,,,,
,,60be9461f162e71cab759c78,2024-02-22_04h58.22.263,kallum_motion_pilot,2023.2.2,MacIntel,59.52380952,60be9461f162e71cab759c78,65d6bb0e977760de756971f7,65d6c64d19a6512e9d38113b,0.0353,0.0354,0,79,79,132,1,sevenfive,,,,,,,,,,,,,,,,,,,,,,,,,,,,,,,,,,,,,,,,,,,,,,,,,,,,,,,,,,,,,,,,,,,,,,,,,,,,,,,,,,,,,,,,,,,,,,,,,,,,,,,,,,,,,,,,,,,,,,,,,,,,,,,,,,,,,,,,,
,,60be9461f162e71cab759c78,2024-02-22_04h58.22.263,kallum_motion_pilot,2023.2.2,MacIntel,59.52380952,60be9461f162e71cab759c78,65d6bb0e977760de756971f7,65d6c64d19a6512e9d38113b,0.0354,0.0354,0,80,80,104,1,fivesix,,,,,,,,,,,,,,,,,,,,,,,,,,,,,,,,,,,,,,,,,,,,,,,,,,,,,,,,,,,,,,,,,,,,,,,,,,,,,,,,,,,,,,,,,,,,,,,,,,,,,,,,,,,,,,,,,,,,,,,,,,,,,,,,,,,,,,,,,
,,60be9461f162e71cab759c78,2024-02-22_04h58.22.263,kallum_motion_pilot,2023.2.2,MacIntel,59.52380952,60be9461f162e71cab759c78,65d6bb0e977760de756971f7,65d6c64d19a6512e9d38113b,0.0355,0.0355,0,81,81,7,1,fourthree,,,,,,,,,,,,,,,,,,,,,,,,,,,,,,,,,,,,,,,,,,,,,,,,,,,,,,,,,,,,,,,,,,,,,,,,,,,,,,,,,,,,,,,,,,,,,,,,,,,,,,,,,,,,,,,,,,,,,,,,,,,,,,,,,,,,,,,,,
,,60be9461f162e71cab759c78,2024-02-22_04h58.22.263,kallum_motion_pilot,2023.2.2,MacIntel,59.52380952,60be9461f162e71cab759c78,65d6bb0e977760de756971f7,65d6c64d19a6512e9d38113b,0.0355,0.0356,0,82,82,53,1,threefour,,,,,,,,,,,,,,,,,,,,,,,,,,,,,,,,,,,,,,,,,,,,,,,,,,,,,,,,,,,,,,,,,,,,,,,,,,,,,,,,,,,,,,,,,,,,,,,,,,,,,,,,,,,,,,,,,,,,,,,,,,,,,,,,,,,,,,,,,
,,60be9461f162e71cab759c78,2024-02-22_04h58.22.263,kallum_motion_pilot,2023.2.2,MacIntel,59.52380952,60be9461f162e71cab759c78,65d6bb0e977760de756971f7,65d6c64d19a6512e9d38113b,0.0356,0.0356,0,83,83,124,1,sevenfive,,,,,,,,,,,,,,,,,,,,,,,,,,,,,,,,,,,,,,,,,,,,,,,,,,,,,,,,,,,,,,,,,,,,,,,,,,,,,,,,,,,,,,,,,,,,,,,,,,,,,,,,,,,,,,,,,,,,,,,,,,,,,,,,,,,,,,,,,
,,60be9461f162e71cab759c78,2024-02-22_04h58.22.263,kallum_motion_pilot,2023.2.2,MacIntel,59.52380952,60be9461f162e71cab759c78,65d6bb0e977760de756971f7,65d6c64d19a6512e9d38113b,0.0358,0.0358,0,84,84,8,1,onetwo,,,,,,,,,,,,,,,,,,,,,,,,,,,,,,,,,,,,,,,,,,,,,,,,,,,,,,,,,,,,,,,,,,,,,,,,,,,,,,,,,,,,,,,,,,,,,,,,,,,,,,,,,,,,,,,,,,,,,,,,,,,,,,,,,,,,,,,,,
,,60be9461f162e71cab759c78,2024-02-22_04h58.22.263,kallum_motion_pilot,2023.2.2,MacIntel,59.52380952,60be9461f162e71cab759c78,65d6bb0e977760de756971f7,65d6c64d19a6512e9d38113b,0.0358,0.0358,0,85,85,152,1,fivesix,,,,,,,,,,,,,,,,,,,,,,,,,,,,,,,,,,,,,,,,,,,,,,,,,,,,,,,,,,,,,,,,,,,,,,,,,,,,,,,,,,,,,,,,,,,,,,,,,,,,,,,,,,,,,,,,,,,,,,,,,,,,,,,,,,,,,,,,,
,,60be9461f162e71cab759c78,2024-02-22_04h58.22.263,kallum_motion_pilot,2023.2.2,MacIntel,59.52380952,60be9461f162e71cab759c78,65d6bb0e977760de756971f7,65d6c64d19a6512e9d38113b,0.0359,0.036,0,86,86,136,1,fivesix,,,,,,,,,,,,,,,,,,,,,,,,,,,,,,,,,,,,,,,,,,,,,,,,,,,,,,,,,,,,,,,,,,,,,,,,,,,,,,,,,,,,,,,,,,,,,,,,,,,,,,,,,,,,,,,,,,,,,,,,,,,,,,,,,,,,,,,,,
,,60be9461f162e71cab759c78,2024-02-22_04h58.22.263,kallum_motion_pilot,2023.2.2,MacIntel,59.52380952,60be9461f162e71cab759c78,65d6bb0e977760de756971f7,65d6c64d19a6512e9d38113b,0.036,0.0361,0,87,87,42,1,twoone,,,,,,,,,,,,,,,,,,,,,,,,,,,,,,,,,,,,,,,,,,,,,,,,,,,,,,,,,,,,,,,,,,,,,,,,,,,,,,,,,,,,,,,,,,,,,,,,,,,,,,,,,,,,,,,,,,,,,,,,,,,,,,,,,,,,,,,,,
,,60be9461f162e71cab759c78,2024-02-22_04h58.22.263,kallum_motion_pilot,2023.2.2,MacIntel,59.52380952,60be9461f162e71cab759c78,65d6bb0e977760de756971f7,65d6c64d19a6512e9d38113b,0.0362,0.0362,0,88,88,15,1,fourthree,,,,,,,,,,,,,,,,,,,,,,,,,,,,,,,,,,,,,,,,,,,,,,,,,,,,,,,,,,,,,,,,,,,,,,,,,,,,,,,,,,,,,,,,,,,,,,,,,,,,,,,,,,,,,,,,,,,,,,,,,,,,,,,,,,,,,,,,,
,,60be9461f162e71cab759c78,2024-02-22_04h58.22.263,kallum_motion_pilot,2023.2.2,MacIntel,59.52380952,60be9461f162e71cab759c78,65d6bb0e977760de756971f7,65d6c64d19a6512e9d38113b,0.0363,0.0363,0,89,89,68,1,threeone,,,,,,,,,,,,,,,,,,,,,,,,,,,,,,,,,,,,,,,,,,,,,,,,,,,,,,,,,,,,,,,,,,,,,,,,,,,,,,,,,,,,,,,,,,,,,,,,,,,,,,,,,,,,,,,,,,,,,,,,,,,,,,,,,,,,,,,,,
,,60be9461f162e71cab759c78,2024-02-22_04h58.22.263,kallum_motion_pilot,2023.2.2,MacIntel,59.52380952,60be9461f162e71cab759c78,65d6bb0e977760de756971f7,65d6c64d19a6512e9d38113b,0.0363,0.0364,0,90,90,23,1,fourthree,,,,,,,,,,,,,,,,,,,,,,,,,,,,,,,,,,,,,,,,,,,,,,,,,,,,,,,,,,,,,,,,,,,,,,,,,,,,,,,,,,,,,,,,,,,,,,,,,,,,,,,,,,,,,,,,,,,,,,,,,,,,,,,,,,,,,,,,,
,,60be9461f162e71cab759c78,2024-02-22_04h58.22.263,kallum_motion_pilot,2023.2.2,MacIntel,59.52380952,60be9461f162e71cab759c78,65d6bb0e977760de756971f7,65d6c64d19a6512e9d38113b,0.0365,0.0365,0,91,91,39,1,fourthree,,,,,,,,,,,,,,,,,,,,,,,,,,,,,,,,,,,,,,,,,,,,,,,,,,,,,,,,,,,,,,,,,,,,,,,,,,,,,,,,,,,,,,,,,,,,,,,,,,,,,,,,,,,,,,,,,,,,,,,,,,,,,,,,,,,,,,,,,
,,60be9461f162e71cab759c78,2024-02-22_04h58.22.263,kallum_motion_pilot,2023.2.2,MacIntel,59.52380952,60be9461f162e71cab759c78,65d6bb0e977760de756971f7,65d6c64d19a6512e9d38113b,0.0365,0.0366,0,92,92,119,1,eightseven,,,,,,,,,,,,,,,,,,,,,,,,,,,,,,,,,,,,,,,,,,,,,,,,,,,,,,,,,,,,,,,,,,,,,,,,,,,,,,,,,,,,,,,,,,,,,,,,,,,,,,,,,,,,,,,,,,,,,,,,,,,,,,,,,,,,,,,,,
,,60be9461f162e71cab759c78,2024-02-22_04h58.22.263,kallum_motion_pilot,2023.2.2,MacIntel,59.52380952,60be9461f162e71cab759c78,65d6bb0e977760de756971f7,65d6c64d19a6512e9d38113b,0.0366,0.0367,0,93,93,76,1,threeone,,,,,,,,,,,,,,,,,,,,,,,,,,,,,,,,,,,,,,,,,,,,,,,,,,,,,,,,,,,,,,,,,,,,,,,,,,,,,,,,,,,,,,,,,,,,,,,,,,,,,,,,,,,,,,,,,,,,,,,,,,,,,,,,,,,,,,,,,
,,60be9461f162e71cab759c78,2024-02-22_04h58.22.263,kallum_motion_pilot,2023.2.2,MacIntel,59.52380952,60be9461f162e71cab759c78,65d6bb0e977760de756971f7,65d6c64d19a6512e9d38113b,0.0367,0.0367,0,94,94,30,1,fourtwo,,,,,,,,,,,,,,,,,,,,,,,,,,,,,,,,,,,,,,,,,,,,,,,,,,,,,,,,,,,,,,,,,,,,,,,,,,,,,,,,,,,,,,,,,,,,,,,,,,,,,,,,,,,,,,,,,,,,,,,,,,,,,,,,,,,,,,,,,
,,60be9461f162e71cab759c78,2024-02-22_04h58.22.263,kallum_motion_pilot,2023.2.2,MacIntel,59.52380952,60be9461f162e71cab759c78,65d6bb0e977760de756971f7,65d6c64d19a6512e9d38113b,0.0368,0.0368,0,95,95,126,1,eightsix,,,,,,,,,,,,,,,,,,,,,,,,,,,,,,,,,,,,,,,,,,,,,,,,,,,,,,,,,,,,,,,,,,,,,,,,,,,,,,,,,,,,,,,,,,,,,,,,,,,,,,,,,,,,,,,,,,,,,,,,,,,,,,,,,,,,,,,,,
,,60be9461f162e71cab759c78,2024-02-22_04h58.22.263,kallum_motion_pilot,2023.2.2,MacIntel,59.52380952,60be9461f162e71cab759c78,65d6bb0e977760de756971f7,65d6c64d19a6512e9d38113b,0.0368,0.0369,0,96,96,142,1,eightsix,,,,,,,,,,,,,,,,,,,,,,,,,,,,,,,,,,,,,,,,,,,,,,,,,,,,,,,,,,,,,,,,,,,,,,,,,,,,,,,,,,,,,,,,,,,,,,,,,,,,,,,,,,,,,,,,,,,,,,,,,,,,,,,,,,,,,,,,,
,,60be9461f162e71cab759c78,2024-02-22_04h58.22.263,kallum_motion_pilot,2023.2.2,MacIntel,59.52380952,60be9461f162e71cab759c78,65d6bb0e977760de756971f7,65d6c64d19a6512e9d38113b,0.037,0.037,0,97,97,5,1,threefour,,,,,,,,,,,,,,,,,,,,,,,,,,,,,,,,,,,,,,,,,,,,,,,,,,,,,,,,,,,,,,,,,,,,,,,,,,,,,,,,,,,,,,,,,,,,,,,,,,,,,,,,,,,,,,,,,,,,,,,,,,,,,,,,,,,,,,,,,
,,60be9461f162e71cab759c78,2024-02-22_04h58.22.263,kallum_motion_pilot,2023.2.2,MacIntel,59.52380952,60be9461f162e71cab759c78,65d6bb0e977760de756971f7,65d6c64d19a6512e9d38113b,0.0371,0.0371,0,98,98,26,1,twoone,,,,,,,,,,,,,,,,,,,,,,,,,,,,,,,,,,,,,,,,,,,,,,,,,,,,,,,,,,,,,,,,,,,,,,,,,,,,,,,,,,,,,,,,,,,,,,,,,,,,,,,,,,,,,,,,,,,,,,,,,,,,,,,,,,,,,,,,,
,,60be9461f162e71cab759c78,2024-02-22_04h58.22.263,kallum_motion_pilot,2023.2.2,MacIntel,59.52380952,60be9461f162e71cab759c78,65d6bb0e977760de756971f7,65d6c64d19a6512e9d38113b,0.0371,0.0371,0,99,99,88,1,fivesix,,,,,,,,,,,,,,,,,,,,,,,,,,,,,,,,,,,,,,,,,,,,,,,,,,,,,,,,,,,,,,,,,,,,,,,,,,,,,,,,,,,,,,,,,,,,,,,,,,,,,,,,,,,,,,,,,,,,,,,,,,,,,,,,,,,,,,,,,
,,60be9461f162e71cab759c78,2024-02-22_04h58.22.263,kallum_motion_pilot,2023.2.2,MacIntel,59.52380952,60be9461f162e71cab759c78,65d6bb0e977760de756971f7,65d6c64d19a6512e9d38113b,0.0372,0.0372,0,100,100,106,1,sixfive,,,,,,,,,,,,,,,,,,,,,,,,,,,,,,,,,,,,,,,,,,,,,,,,,,,,,,,,,,,,,,,,,,,,,,,,,,,,,,,,,,,,,,,,,,,,,,,,,,,,,,,,,,,,,,,,,,,,,,,,,,,,,,,,,,,,,,,,,
,,60be9461f162e71cab759c78,2024-02-22_04h58.22.263,kallum_motion_pilot,2023.2.2,MacIntel,59.52380952,60be9461f162e71cab759c78,65d6bb0e977760de756971f7,65d6c64d19a6512e9d38113b,0.0373,0.0374,0,101,101,159,1,eightseven,,,,,,,,,,,,,,,,,,,,,,,,,,,,,,,,,,,,,,,,,,,,,,,,,,,,,,,,,,,,,,,,,,,,,,,,,,,,,,,,,,,,,,,,,,,,,,,,,,,,,,,,,,,,,,,,,,,,,,,,,,,,,,,,,,,,,,,,,
,,60be9461f162e71cab759c78,2024-02-22_04h58.22.263,kallum_motion_pilot,2023.2.2,MacIntel,59.52380952,60be9461f162e71cab759c78,65d6bb0e977760de756971f7,65d6c64d19a6512e9d38113b,0.0374,0.0374,0,102,102,133,1,seveneight,,,,,,,,,,,,,,,,,,,,,,,,,,,,,,,,,,,,,,,,,,,,,,,,,,,,,,,,,,,,,,,,,,,,,,,,,,,,,,,,,,,,,,,,,,,,,,,,,,,,,,,,,,,,,,,,,,,,,,,,,,,,,,,,,,,,,,,,,
,,60be9461f162e71cab759c78,2024-02-22_04h58.22.263,kallum_motion_pilot,2023.2.2,MacIntel,59.52380952,60be9461f162e71cab759c78,65d6bb0e977760de756971f7,65d6c64d19a6512e9d38113b,0.0375,0.0376,0,103,103,141,1,seveneight,,,,,,,,,,,,,,,,,,,,,,,,,,,,,,,,,,,,,,,,,,,,,,,,,,,,,,,,,,,,,,,,,,,,,,,,,,,,,,,,,,,,,,,,,,,,,,,,,,,,,,,,,,,,,,,,,,,,,,,,,,,,,,,,,,,,,,,,,
,,60be9461f162e71cab759c78,2024-02-22_04h58.22.263,kallum_motion_pilot,2023.2.2,MacIntel,59.52380952,60be9461f162e71cab759c78,65d6bb0e977760de756971f7,65d6c64d19a6512e9d38113b,0.0377,0.0377,0,104,104,79,1,eightseven,,,,,,,,,,,,,,,,,,,,,,,,,,,,,,,,,,,,,,,,,,,,,,,,,,,,,,,,,,,,,,,,,,,,,,,,,,,,,,,,,,,,,,,,,,,,,,,,,,,,,,,,,,,,,,,,,,,,,,,,,,,,,,,,,,,,,,,,,
,,60be9461f162e71cab759c78,2024-02-22_04h58.22.263,kallum_motion_pilot,2023.2.2,MacIntel,59.52380952,60be9461f162e71cab759c78,65d6bb0e977760de756971f7,65d6c64d19a6512e9d38113b,0.0378,0.0378,0,105,105,3,1,twofour,,,,,,,,,,,,,,,,,,,,,,,,,,,,,,,,,,,,,,,,,,,,,,,,,,,,,,,,,,,,,,,,,,,,,,,,,,,,,,,,,,,,,,,,,,,,,,,,,,,,,,,,,,,,,,,,,,,,,,,,,,,,,,,,,,,,,,,,,
,,60be9461f162e71cab759c78,2024-02-22_04h58.22.263,kallum_motion_pilot,2023.2.2,MacIntel,59.52380952,60be9461f162e71cab759c78,65d6bb0e977760de756971f7,65d6c64d19a6512e9d38113b,0.0378,0.0378,0,106,106,145,1,fiveseven,,,,,,,,,,,,,,,,,,,,,,,,,,,,,,,,,,,,,,,,,,,,,,,,,,,,,,,,,,,,,,,,,,,,,,,,,,,,,,,,,,,,,,,,,,,,,,,,,,,,,,,,,,,,,,,,,,,,,,,,,,,,,,,,,,,,,,,,,
,,60be9461f162e71cab759c78,2024-02-22_04h58.22.263,kallum_motion_pilot,2023.2.2,MacIntel,59.52380952,60be9461f162e71cab759c78,65d6bb0e977760de756971f7,65d6c64d19a6512e9d38113b,0.0379,0.0379,0,107,107,55,1,fourthree,,,,,,,,,,,,,,,,,,,,,,,,,,,,,,,,,,,,,,,,,,,,,,,,,,,,,,,,,,,,,,,,,,,,,,,,,,,,,,,,,,,,,,,,,,,,,,,,,,,,,,,,,,,,,,,,,,,,,,,,,,,,,,,,,,,,,,,,,
,,60be9461f162e71cab759c78,2024-02-22_04h58.22.263,kallum_motion_pilot,2023.2.2,MacIntel,59.52380952,60be9461f162e71cab759c78,65d6bb0e977760de756971f7,65d6c64d19a6512e9d38113b,0.038,0.038,0,108,108,95,1,eightseven,,,,,,,,,,,,,,,,,,,,,,,,,,,,,,,,,,,,,,,,,,,,,,,,,,,,,,,,,,,,,,,,,,,,,,,,,,,,,,,,,,,,,,,,,,,,,,,,,,,,,,,,,,,,,,,,,,,,,,,,,,,,,,,,,,,,,,,,,
,,60be9461f162e71cab759c78,2024-02-22_04h58.22.263,kallum_motion_pilot,2023.2.2,MacIntel,59.52380952,60be9461f162e71cab759c78,65d6bb0e977760de756971f7,65d6c64d19a6512e9d38113b,0.0381,0.0381,0,109,109,61,1,threefour,,,,,,,,,,,,,,,,,,,,,,,,,,,,,,,,,,,,,,,,,,,,,,,,,,,,,,,,,,,,,,,,,,,,,,,,,,,,,,,,,,,,,,,,,,,,,,,,,,,,,,,,,,,,,,,,,,,,,,,,,,,,,,,,,,,,,,,,,
,,60be9461f162e71cab759c78,2024-02-22_04h58.22.263,kallum_motion_pilot,2023.2.2,MacIntel,59.52380952,60be9461f162e71cab759c78,65d6bb0e977760de756971f7,65d6c64d19a6512e9d38113b,0.0382,0.0383,0,110,110,85,1,seveneight,,,,,,,,,,,,,,,,,,,,,,,,,,,,,,,,,,,,,,,,,,,,,,,,,,,,,,,,,,,,,,,,,,,,,,,,,,,,,,,,,,,,,,,,,,,,,,,,,,,,,,,,,,,,,,,,,,,,,,,,,,,,,,,,,,,,,,,,,
,,60be9461f162e71cab759c78,2024-02-22_04h58.22.263,kallum_motion_pilot,2023.2.2,MacIntel,59.52380952,60be9461f162e71cab759c78,65d6bb0e977760de756971f7,65d6c64d19a6512e9d38113b,0.0383,0.0383,0,111,111,70,1,fourtwo,,,,,,,,,,,,,,,,,,,,,,,,,,,,,,,,,,,,,,,,,,,,,,,,,,,,,,,,,,,,,,,,,,,,,,,,,,,,,,,,,,,,,,,,,,,,,,,,,,,,,,,,,,,,,,,,,,,,,,,,,,,,,,,,,,,,,,,,,
,,60be9461f162e71cab759c78,2024-02-22_04h58.22.263,kallum_motion_pilot,2023.2.2,MacIntel,59.52380952,60be9461f162e71cab759c78,65d6bb0e977760de756971f7,65d6c64d19a6512e9d38113b,0.0384,0.0384,0,112,112,131,1,sixeight,,,,,,,,,,,,,,,,,,,,,,,,,,,,,,,,,,,,,,,,,,,,,,,,,,,,,,,,,,,,,,,,,,,,,,,,,,,,,,,,,,,,,,,,,,,,,,,,,,,,,,,,,,,,,,,,,,,,,,,,,,,,,,,,,,,,,,,,,
,,60be9461f162e71cab759c78,2024-02-22_04h58.22.263,kallum_motion_pilot,2023.2.2,MacIntel,59.52380952,60be9461f162e71cab759c78,65d6bb0e977760de756971f7,65d6c64d19a6512e9d38113b,0.0385,0.0385,0,113,113,27,1,twofour,,,,,,,,,,,,,,,,,,,,,,,,,,,,,,,,,,,,,,,,,,,,,,,,,,,,,,,,,,,,,,,,,,,,,,,,,,,,,,,,,,,,,,,,,,,,,,,,,,,,,,,,,,,,,,,,,,,,,,,,,,,,,,,,,,,,,,,,,
,,60be9461f162e71cab759c78,2024-02-22_04h58.22.263,kallum_motion_pilot,2023.2.2,MacIntel,59.52380952,60be9461f162e71cab759c78,65d6bb0e977760de756971f7,65d6c64d19a6512e9d38113b,0.0386,0.0386,0,114,114,90,1,sixfive,,,,,,,,,,,,,,,,,,,,,,,,,,,,,,,,,,,,,,,,,,,,,,,,,,,,,,,,,,,,,,,,,,,,,,,,,,,,,,,,,,,,,,,,,,,,,,,,,,,,,,,,,,,,,,,,,,,,,,,,,,,,,,,,,,,,,,,,,
,,60be9461f162e71cab759c78,2024-02-22_04h58.22.263,kallum_motion_pilot,2023.2.2,MacIntel,59.52380952,60be9461f162e71cab759c78,65d6bb0e977760de756971f7,65d6c64d19a6512e9d38113b,0.0387,0.0387,0,115,115,144,1,fivesix,,,,,,,,,,,,,,,,,,,,,,,,,,,,,,,,,,,,,,,,,,,,,,,,,,,,,,,,,,,,,,,,,,,,,,,,,,,,,,,,,,,,,,,,,,,,,,,,,,,,,,,,,,,,,,,,,,,,,,,,,,,,,,,,,,,,,,,,,
,,60be9461f162e71cab759c78,2024-02-22_04h58.22.263,kallum_motion_pilot,2023.2.2,MacIntel,59.52380952,60be9461f162e71cab759c78,65d6bb0e977760de756971f7,65d6c64d19a6512e9d38113b,0.0388,0.0388,0,116,116,69,1,threefour,,,,,,,,,,,,,,,,,,,,,,,,,,,,,,,,,,,,,,,,,,,,,,,,,,,,,,,,,,,,,,,,,,,,,,,,,,,,,,,,,,,,,,,,,,,,,,,,,,,,,,,,,,,,,,,,,,,,,,,,,,,,,,,,,,,,,,,,,
,,60be9461f162e71cab759c78,2024-02-22_04h58.22.263,kallum_motion_pilot,2023.2.2,MacIntel,59.52380952,60be9461f162e71cab759c78,65d6bb0e977760de756971f7,65d6c64d19a6512e9d38113b,0.0389,0.039,0,117,117,59,1,twofour,,,,,,,,,,,,,,,,,,,,,,,,,,,,,,,,,,,,,,,,,,,,,,,,,,,,,,,,,,,,,,,,,,,,,,,,,,,,,,,,,,,,,,,,,,,,,,,,,,,,,,,,,,,,,,,,,,,,,,,,,,,,,,,,,,,,,,,,,
,,60be9461f162e71cab759c78,2024-02-22_04h58.22.263,kallum_motion_pilot,2023.2.2,MacIntel,59.52380952,60be9461f162e71cab759c78,65d6bb0e977760de756971f7,65d6c64d19a6512e9d38113b,0.039,0.039,0,118,118,109,1,seveneight,,,,,,,,,,,,,,,,,,,,,,,,,,,,,,,,,,,,,,,,,,,,,,,,,,,,,,,,,,,,,,,,,,,,,,,,,,,,,,,,,,,,,,,,,,,,,,,,,,,,,,,,,,,,,,,,,,,,,,,,,,,,,,,,,,,,,,,,,
,,60be9461f162e71cab759c78,2024-02-22_04h58.22.263,kallum_motion_pilot,2023.2.2,MacIntel,59.52380952,60be9461f162e71cab759c78,65d6bb0e977760de756971f7,65d6c64d19a6512e9d38113b,0.0391,0.0391,0,119,119,33,1,onethree,,,,,,,,,,,,,,,,,,,,,,,,,,,,,,,,,,,,,,,,,,,,,,,,,,,,,,,,,,,,,,,,,,,,,,,,,,,,,,,,,,,,,,,,,,,,,,,,,,,,,,,,,,,,,,,,,,,,,,,,,,,,,,,,,,,,,,,,,
,,60be9461f162e71cab759c78,2024-02-22_04h58.22.263,kallum_motion_pilot,2023.2.2,MacIntel,59.52380952,60be9461f162e71cab759c78,65d6bb0e977760de756971f7,65d6c64d19a6512e9d38113b,0.0394,0.0394,0,120,120,140,1,sevenfive,,,,,,,,,,,,,,,,,,,,,,,,,,,,,,,,,,,,,,,,,,,,,,,,,,,,,,,,,,,,,,,,,,,,,,,,,,,,,,,,,,,,,,,,,,,,,,,,,,,,,,,,,,,,,,,,,,,,,,,,,,,,,,,,,,,,,,,,,
,,60be9461f162e71cab759c78,2024-02-22_04h58.22.263,kallum_motion_pilot,2023.2.2,MacIntel,59.52380952,60be9461f162e71cab759c78,65d6bb0e977760de756971f7,65d6c64d19a6512e9d38113b,0.0395,0.0395,0,121,121,29,1,threefour,,,,,,,,,,,,,,,,,,,,,,,,,,,,,,,,,,,,,,,,,,,,,,,,,,,,,,,,,,,,,,,,,,,,,,,,,,,,,,,,,,,,,,,,,,,,,,,,,,,,,,,,,,,,,,,,,,,,,,,,,,,,,,,,,,,,,,,,,
,,60be9461f162e71cab759c78,2024-02-22_04h58.22.263,kallum_motion_pilot,2023.2.2,MacIntel,59.52380952,60be9461f162e71cab759c78,65d6bb0e977760de756971f7,65d6c64d19a6512e9d38113b,0.0396,0.0397,0,122,122,151,1,eightseven,,,,,,,,,,,,,,,,,,,,,,,,,,,,,,,,,,,,,,,,,,,,,,,,,,,,,,,,,,,,,,,,,,,,,,,,,,,,,,,,,,,,,,,,,,,,,,,,,,,,,,,,,,,,,,,,,,,,,,,,,,,,,,,,,,,,,,,,,
,,60be9461f162e71cab759c78,2024-02-22_04h58.22.263,kallum_motion_pilot,2023.2.2,MacIntel,59.52380952,60be9461f162e71cab759c78,65d6bb0e977760de756971f7,65d6c64d19a6512e9d38113b,0.0398,0.0398,0,123,123,80,1,fivesix,,,,,,,,,,,,,,,,,,,,,,,,,,,,,,,,,,,,,,,,,,,,,,,,,,,,,,,,,,,,,,,,,,,,,,,,,,,,,,,,,,,,,,,,,,,,,,,,,,,,,,,,,,,,,,,,,,,,,,,,,,,,,,,,,,,,,,,,,
,,60be9461f162e71cab759c78,2024-02-22_04h58.22.263,kallum_motion_pilot,2023.2.2,MacIntel,59.52380952,60be9461f162e71cab759c78,65d6bb0e977760de756971f7,65d6c64d19a6512e9d38113b,0.0398,0.0399,0,124,124,102,1,eightsix,,,,,,,,,,,,,,,,,,,,,,,,,,,,,,,,,,,,,,,,,,,,,,,,,,,,,,,,,,,,,,,,,,,,,,,,,,,,,,,,,,,,,,,,,,,,,,,,,,,,,,,,,,,,,,,,,,,,,,,,,,,,,,,,,,,,,,,,,
,,60be9461f162e71cab759c78,2024-02-22_04h58.22.263,kallum_motion_pilot,2023.2.2,MacIntel,59.52380952,60be9461f162e71cab759c78,65d6bb0e977760de756971f7,65d6c64d19a6512e9d38113b,0.04,0.04,0,125,125,87,1,eightseven,,,,,,,,,,,,,,,,,,,,,,,,,,,,,,,,,,,,,,,,,,,,,,,,,,,,,,,,,,,,,,,,,,,,,,,,,,,,,,,,,,,,,,,,,,,,,,,,,,,,,,,,,,,,,,,,,,,,,,,,,,,,,,,,,,,,,,,,,
,,60be9461f162e71cab759c78,2024-02-22_04h58.22.263,kallum_motion_pilot,2023.2.2,MacIntel,59.52380952,60be9461f162e71cab759c78,65d6bb0e977760de756971f7,65d6c64d19a6512e9d38113b,0.0401,0.0401,0,126,126,122,1,sixfive,,,,,,,,,,,,,,,,,,,,,,,,,,,,,,,,,,,,,,,,,,,,,,,,,,,,,,,,,,,,,,,,,,,,,,,,,,,,,,,,,,,,,,,,,,,,,,,,,,,,,,,,,,,,,,,,,,,,,,,,,,,,,,,,,,,,,,,,,
,,60be9461f162e71cab759c78,2024-02-22_04h58.22.263,kallum_motion_pilot,2023.2.2,MacIntel,59.52380952,60be9461f162e71cab759c78,65d6bb0e977760de756971f7,65d6c64d19a6512e9d38113b,0.0402,0.0402,0,127,127,37,1,threefour,,,,,,,,,,,,,,,,,,,,,,,,,,,,,,,,,,,,,,,,,,,,,,,,,,,,,,,,,,,,,,,,,,,,,,,,,,,,,,,,,,,,,,,,,,,,,,,,,,,,,,,,,,,,,,,,,,,,,,,,,,,,,,,,,,,,,,,,,
,,60be9461f162e71cab759c78,2024-02-22_04h58.22.263,kallum_motion_pilot,2023.2.2,MacIntel,59.52380952,60be9461f162e71cab759c78,65d6bb0e977760de756971f7,65d6c64d19a6512e9d38113b,0.0403,0.0404,0,128,128,129,1,fiveseven,,,,,,,,,,,,,,,,,,,,,,,,,,,,,,,,,,,,,,,,,,,,,,,,,,,,,,,,,,,,,,,,,,,,,,,,,,,,,,,,,,,,,,,,,,,,,,,,,,,,,,,,,,,,,,,,,,,,,,,,,,,,,,,,,,,,,,,,,
,,60be9461f162e71cab759c78,2024-02-22_04h58.22.263,kallum_motion_pilot,2023.2.2,MacIntel,59.52380952,60be9461f162e71cab759c78,65d6bb0e977760de756971f7,65d6c64d19a6512e9d38113b,0.0404,0.0404,0,129,129,137,1,fiveseven,,,,,,,,,,,,,,,,,,,,,,,,,,,,,,,,,,,,,,,,,,,,,,,,,,,,,,,,,,,,,,,,,,,,,,,,,,,,,,,,,,,,,,,,,,,,,,,,,,,,,,,,,,,,,,,,,,,,,,,,,,,,,,,,,,,,,,,,,
,,60be9461f162e71cab759c78,2024-02-22_04h58.22.263,kallum_motion_pilot,2023.2.2,MacIntel,59.52380952,60be9461f162e71cab759c78,65d6bb0e977760de756971f7,65d6c64d19a6512e9d38113b,0.0405,0.0406,0,130,130,157,1,seveneight,,,,,,,,,,,,,,,,,,,,,,,,,,,,,,,,,,,,,,,,,,,,,,,,,,,,,,,,,,,,,,,,,,,,,,,,,,,,,,,,,,,,,,,,,,,,,,,,,,,,,,,,,,,,,,,,,,,,,,,,,,,,,,,,,,,,,,,,,
,,60be9461f162e71cab759c78,2024-02-22_04h58.22.263,kallum_motion_pilot,2023.2.2,MacIntel,59.52380952,60be9461f162e71cab759c78,65d6bb0e977760de756971f7,65d6c64d19a6512e9d38113b,0.0407,0.0408,0,131,131,19,1,twofour,,,,,,,,,,,,,,,,,,,,,,,,,,,,,,,,,,,,,,,,,,,,,,,,,,,,,,,,,,,,,,,,,,,,,,,,,,,,,,,,,,,,,,,,,,,,,,,,,,,,,,,,,,,,,,,,,,,,,,,,,,,,,,,,,,,,,,,,,
,,60be9461f162e71cab759c78,2024-02-22_04h58.22.263,kallum_motion_pilot,2023.2.2,MacIntel,59.52380952,60be9461f162e71cab759c78,65d6bb0e977760de756971f7,65d6c64d19a6512e9d38113b,0.0408,0.0409,0,132,132,117,1,seveneight,,,,,,,,,,,,,,,,,,,,,,,,,,,,,,,,,,,,,,,,,,,,,,,,,,,,,,,,,,,,,,,,,,,,,,,,,,,,,,,,,,,,,,,,,,,,,,,,,,,,,,,,,,,,,,,,,,,,,,,,,,,,,,,,,,,,,,,,,
,,60be9461f162e71cab759c78,2024-02-22_04h58.22.263,kallum_motion_pilot,2023.2.2,MacIntel,59.52380952,60be9461f162e71cab759c78,65d6bb0e977760de756971f7,65d6c64d19a6512e9d38113b,0.0409,0.041,0,133,133,105,1,fiveseven,,,,,,,,,,,,,,,,,,,,,,,,,,,,,,,,,,,,,,,,,,,,,,,,,,,,,,,,,,,,,,,,,,,,,,,,,,,,,,,,,,,,,,,,,,,,,,,,,,,,,,,,,,,,,,,,,,,,,,,,,,,,,,,,,,,,,,,,,
,,60be9461f162e71cab759c78,2024-02-22_04h58.22.263,kallum_motion_pilot,2023.2.2,MacIntel,59.52380952,60be9461f162e71cab759c78,65d6bb0e977760de756971f7,65d6c64d19a6512e9d38113b,0.041,0.0411,0,134,134,82,1,sixfive,,,,,,,,,,,,,,,,,,,,,,,,,,,,,,,,,,,,,,,,,,,,,,,,,,,,,,,,,,,,,,,,,,,,,,,,,,,,,,,,,,,,,,,,,,,,,,,,,,,,,,,,,,,,,,,,,,,,,,,,,,,,,,,,,,,,,,,,,
,,60be9461f162e71cab759c78,2024-02-22_04h58.22.263,kallum_motion_pilot,2023.2.2,MacIntel,59.52380952,60be9461f162e71cab759c78,65d6bb0e977760de756971f7,65d6c64d19a6512e9d38113b,0.0411,0.0412,0,135,135,21,1,threefour,,,,,,,,,,,,,,,,,,,,,,,,,,,,,,,,,,,,,,,,,,,,,,,,,,,,,,,,,,,,,,,,,,,,,,,,,,,,,,,,,,,,,,,,,,,,,,,,,,,,,,,,,,,,,,,,,,,,,,,,,,,,,,,,,,,,,,,,,
,,60be9461f162e71cab759c78,2024-02-22_04h58.22.263,kallum_motion_pilot,2023.2.2,MacIntel,59.52380952,60be9461f162e71cab759c78,65d6bb0e977760de756971f7,65d6c64d19a6512e9d38113b,0.0412,0.0412,0,136,136,155,1,sixeight,,,,,,,,,,,,,,,,,,,,,,,,,,,,,,,,,,,,,,,,,,,,,,,,,,,,,,,,,,,,,,,,,,,,,,,,,,,,,,,,,,,,,,,,,,,,,,,,,,,,,,,,,,,,,,,,,,,,,,,,,,,,,,,,,,,,,,,,,
,,60be9461f162e71cab759c78,2024-02-22_04h58.22.263,kallum_motion_pilot,2023.2.2,MacIntel,59.52380952,60be9461f162e71cab759c78,65d6bb0e977760de756971f7,65d6c64d19a6512e9d38113b,0.0413,0.0414,0,137,137,139,1,sixeight,,,,,,,,,,,,,,,,,,,,,,,,,,,,,,,,,,,,,,,,,,,,,,,,,,,,,,,,,,,,,,,,,,,,,,,,,,,,,,,,,,,,,,,,,,,,,,,,,,,,,,,,,,,,,,,,,,,,,,,,,,,,,,,,,,,,,,,,,
,,60be9461f162e71cab759c78,2024-02-22_04h58.22.263,kallum_motion_pilot,2023.2.2,MacIntel,59.52380952,60be9461f162e71cab759c78,65d6bb0e977760de756971f7,65d6c64d19a6512e9d38113b,0.0415,0.0415,0,138,138,65,1,onethree,,,,,,,,,,,,,,,,,,,,,,,,,,,,,,,,,,,,,,,,,,,,,,,,,,,,,,,,,,,,,,,,,,,,,,,,,,,,,,,,,,,,,,,,,,,,,,,,,,,,,,,,,,,,,,,,,,,,,,,,,,,,,,,,,,,,,,,,,
,,60be9461f162e71cab759c78,2024-02-22_04h58.22.263,kallum_motion_pilot,2023.2.2,MacIntel,59.52380952,60be9461f162e71cab759c78,65d6bb0e977760de756971f7,65d6c64d19a6512e9d38113b,0.0416,0.0417,0,139,139,34,1,twoone,,,,,,,,,,,,,,,,,,,,,,,,,,,,,,,,,,,,,,,,,,,,,,,,,,,,,,,,,,,,,,,,,,,,,,,,,,,,,,,,,,,,,,,,,,,,,,,,,,,,,,,,,,,,,,,,,,,,,,,,,,,,,,,,,,,,,,,,,
,,60be9461f162e71cab759c78,2024-02-22_04h58.22.263,kallum_motion_pilot,2023.2.2,MacIntel,59.52380952,60be9461f162e71cab759c78,65d6bb0e977760de756971f7,65d6c64d19a6512e9d38113b,0.0417,0.0418,0,140,140,138,1,sixfive,,,,,,,,,,,,,,,,,,,,,,,,,,,,,,,,,,,,,,,,,,,,,,,,,,,,,,,,,,,,,,,,,,,,,,,,,,,,,,,,,,,,,,,,,,,,,,,,,,,,,,,,,,,,,,,,,,,,,,,,,,,,,,,,,,,,,,,,,
,,60be9461f162e71cab759c78,2024-02-22_04h58.22.263,kallum_motion_pilot,2023.2.2,MacIntel,59.52380952,60be9461f162e71cab759c78,65d6bb0e977760de756971f7,65d6c64d19a6512e9d38113b,0.0419,0.0421,0,141,141,52,1,threeone,,,,,,,,,,,,,,,,,,,,,,,,,,,,,,,,,,,,,,,,,,,,,,,,,,,,,,,,,,,,,,,,,,,,,,,,,,,,,,,,,,,,,,,,,,,,,,,,,,,,,,,,,,,,,,,,,,,,,,,,,,,,,,,,,,,,,,,,,
,,60be9461f162e71cab759c78,2024-02-22_04h58.22.263,kallum_motion_pilot,2023.2.2,MacIntel,59.52380952,60be9461f162e71cab759c78,65d6bb0e977760de756971f7,65d6c64d19a6512e9d38113b,0.0421,0.0421,0,142,142,135,1,eightseven,,,,,,,,,,,,,,,,,,,,,,,,,,,,,,,,,,,,,,,,,,,,,,,,,,,,,,,,,,,,,,,,,,,,,,,,,,,,,,,,,,,,,,,,,,,,,,,,,,,,,,,,,,,,,,,,,,,,,,,,,,,,,,,,,,,,,,,,,
,,60be9461f162e71cab759c78,2024-02-22_04h58.22.263,kallum_motion_pilot,2023.2.2,MacIntel,59.52380952,60be9461f162e71cab759c78,65d6bb0e977760de756971f7,65d6c64d19a6512e9d38113b,0.0422,0.0423,0,143,143,31,1,fourthree,,,,,,,,,,,,,,,,,,,,,,,,,,,,,,,,,,,,,,,,,,,,,,,,,,,,,,,,,,,,,,,,,,,,,,,,,,,,,,,,,,,,,,,,,,,,,,,,,,,,,,,,,,,,,,,,,,,,,,,,,,,,,,,,,,,,,,,,,
,,60be9461f162e71cab759c78,2024-02-22_04h58.22.263,kallum_motion_pilot,2023.2.2,MacIntel,59.52380952,60be9461f162e71cab759c78,65d6bb0e977760de756971f7,65d6c64d19a6512e9d38113b,0.0424,0.0425,0,144,144,73,1,onethree,,,,,,,,,,,,,,,,,,,,,,,,,,,,,,,,,,,,,,,,,,,,,,,,,,,,,,,,,,,,,,,,,,,,,,,,,,,,,,,,,,,,,,,,,,,,,,,,,,,,,,,,,,,,,,,,,,,,,,,,,,,,,,,,,,,,,,,,,
,,60be9461f162e71cab759c78,2024-02-22_04h58.22.263,kallum_motion_pilot,2023.2.2,MacIntel,59.52380952,60be9461f162e71cab759c78,65d6bb0e977760de756971f7,65d6c64d19a6512e9d38113b,0.0427,0.0427,0,145,145,98,1,sixfive,,,,,,,,,,,,,,,,,,,,,,,,,,,,,,,,,,,,,,,,,,,,,,,,,,,,,,,,,,,,,,,,,,,,,,,,,,,,,,,,,,,,,,,,,,,,,,,,,,,,,,,,,,,,,,,,,,,,,,,,,,,,,,,,,,,,,,,,,
,,60be9461f162e71cab759c78,2024-02-22_04h58.22.263,kallum_motion_pilot,2023.2.2,MacIntel,59.52380952,60be9461f162e71cab759c78,65d6bb0e977760de756971f7,65d6c64d19a6512e9d38113b,0.0428,0.0428,0,146,146,111,1,eightseven,,,,,,,,,,,,,,,,,,,,,,,,,,,,,,,,,,,,,,,,,,,,,,,,,,,,,,,,,,,,,,,,,,,,,,,,,,,,,,,,,,,,,,,,,,,,,,,,,,,,,,,,,,,,,,,,,,,,,,,,,,,,,,,,,,,,,,,,,
,,60be9461f162e71cab759c78,2024-02-22_04h58.22.263,kallum_motion_pilot,2023.2.2,MacIntel,59.52380952,60be9461f162e71cab759c78,65d6bb0e977760de756971f7,65d6c64d19a6512e9d38113b,0.0429,0.043,0,147,147,147,1,sixeight,,,,,,,,,,,,,,,,,,,,,,,,,,,,,,,,,,,,,,,,,,,,,,,,,,,,,,,,,,,,,,,,,,,,,,,,,,,,,,,,,,,,,,,,,,,,,,,,,,,,,,,,,,,,,,,,,,,,,,,,,,,,,,,,,,,,,,,,,
,,60be9461f162e71cab759c78,2024-02-22_04h58.22.263,kallum_motion_pilot,2023.2.2,MacIntel,59.52380952,60be9461f162e71cab759c78,65d6bb0e977760de756971f7,65d6c64d19a6512e9d38113b,0.043,0.0431,0,148,148,148,1,sevenfive,,,,,,,,,,,,,,,,,,,,,,,,,,,,,,,,,,,,,,,,,,,,,,,,,,,,,,,,,,,,,,,,,,,,,,,,,,,,,,,,,,,,,,,,,,,,,,,,,,,,,,,,,,,,,,,,,,,,,,,,,,,,,,,,,,,,,,,,,
,,60be9461f162e71cab759c78,2024-02-22_04h58.22.263,kallum_motion_pilot,2023.2.2,MacIntel,59.52380952,60be9461f162e71cab759c78,65d6bb0e977760de756971f7,65d6c64d19a6512e9d38113b,0.0432,0.0432,0,149,149,63,1,fourthree,,,,,,,,,,,,,,,,,,,,,,,,,,,,,,,,,,,,,,,,,,,,,,,,,,,,,,,,,,,,,,,,,,,,,,,,,,,,,,,,,,,,,,,,,,,,,,,,,,,,,,,,,,,,,,,,,,,,,,,,,,,,,,,,,,,,,,,,,
,,60be9461f162e71cab759c78,2024-02-22_04h58.22.263,kallum_motion_pilot,2023.2.2,MacIntel,59.52380952,60be9461f162e71cab759c78,65d6bb0e977760de756971f7,65d6c64d19a6512e9d38113b,0.0432,0.0433,0,150,150,161,1,fiveseven,,,,,,,,,,,,,,,,,,,,,,,,,,,,,,,,,,,,,,,,,,,,,,,,,,,,,,,,,,,,,,,,,,,,,,,,,,,,,,,,,,,,,,,,,,,,,,,,,,,,,,,,,,,,,,,,,,,,,,,,,,,,,,,,,,,,,,,,,
,,60be9461f162e71cab759c78,2024-02-22_04h58.22.263,kallum_motion_pilot,2023.2.2,MacIntel,59.52380952,60be9461f162e71cab759c78,65d6bb0e977760de756971f7,65d6c64d19a6512e9d38113b,0.0434,0.0434,0,151,151,120,1,fivesix,,,,,,,,,,,,,,,,,,,,,,,,,,,,,,,,,,,,,,,,,,,,,,,,,,,,,,,,,,,,,,,,,,,,,,,,,,,,,,,,,,,,,,,,,,,,,,,,,,,,,,,,,,,,,,,,,,,,,,,,,,,,,,,,,,,,,,,,,
,,60be9461f162e71cab759c78,2024-02-22_04h58.22.263,kallum_motion_pilot,2023.2.2,MacIntel,59.52380952,60be9461f162e71cab759c78,65d6bb0e977760de756971f7,65d6c64d19a6512e9d38113b,0.0435,0.0435,0,152,152,123,1,sixeight,,,,,,,,,,,,,,,,,,,,,,,,,,,,,,,,,,,,,,,,,,,,,,,,,,,,,,,,,,,,,,,,,,,,,,,,,,,,,,,,,,,,,,,,,,,,,,,,,,,,,,,,,,,,,,,,,,,,,,,,,,,,,,,,,,,,,,,,,
,,60be9461f162e71cab759c78,2024-02-22_04h58.22.263,kallum_motion_pilot,2023.2.2,MacIntel,59.52380952,60be9461f162e71cab759c78,65d6bb0e977760de756971f7,65d6c64d19a6512e9d38113b,0.0436,0.0436,0,153,153,92,1,sevenfive,,,,,,,,,,,,,,,,,,,,,,,,,,,,,,,,,,,,,,,,,,,,,,,,,,,,,,,,,,,,,,,,,,,,,,,,,,,,,,,,,,,,,,,,,,,,,,,,,,,,,,,,,,,,,,,,,,,,,,,,,,,,,,,,,,,,,,,,,
,,60be9461f162e71cab759c78,2024-02-22_04h58.22.263,kallum_motion_pilot,2023.2.2,MacIntel,59.52380952,60be9461f162e71cab759c78,65d6bb0e977760de756971f7,65d6c64d19a6512e9d38113b,0.0437,0.0437,0,154,154,86,1,eightsix,,,,,,,,,,,,,,,,,,,,,,,,,,,,,,,,,,,,,,,,,,,,,,,,,,,,,,,,,,,,,,,,,,,,,,,,,,,,,,,,,,,,,,,,,,,,,,,,,,,,,,,,,,,,,,,,,,,,,,,,,,,,,,,,,,,,,,,,,
,,60be9461f162e71cab759c78,2024-02-22_04h58.22.263,kallum_motion_pilot,2023.2.2,MacIntel,59.52380952,60be9461f162e71cab759c78,65d6bb0e977760de756971f7,65d6c64d19a6512e9d38113b,0.0438,0.0438,0,155,155,51,1,twofour,,,,,,,,,,,,,,,,,,,,,,,,,,,,,,,,,,,,,,,,,,,,,,,,,,,,,,,,,,,,,,,,,,,,,,,,,,,,,,,,,,,,,,,,,,,,,,,,,,,,,,,,,,,,,,,,,,,,,,,,,,,,,,,,,,,,,,,,,
,,60be9461f162e71cab759c78,2024-02-22_04h58.22.263,kallum_motion_pilot,2023.2.2,MacIntel,59.52380952,60be9461f162e71cab759c78,65d6bb0e977760de756971f7,65d6c64d19a6512e9d38113b,0.044,0.044,0,156,156,54,1,fourtwo,,,,,,,,,,,,,,,,,,,,,,,,,,,,,,,,,,,,,,,,,,,,,,,,,,,,,,,,,,,,,,,,,,,,,,,,,,,,,,,,,,,,,,,,,,,,,,,,,,,,,,,,,,,,,,,,,,,,,,,,,,,,,,,,,,,,,,,,,
,,60be9461f162e71cab759c78,2024-02-22_04h58.22.263,kallum_motion_pilot,2023.2.2,MacIntel,59.52380952,60be9461f162e71cab759c78,65d6bb0e977760de756971f7,65d6c64d19a6512e9d38113b,0.0441,0.0442,0,157,157,28,1,threeone,,,,,,,,,,,,,,,,,,,,,,,,,,,,,,,,,,,,,,,,,,,,,,,,,,,,,,,,,,,,,,,,,,,,,,,,,,,,,,,,,,,,,,,,,,,,,,,,,,,,,,,,,,,,,,,,,,,,,,,,,,,,,,,,,,,,,,,,,
,,60be9461f162e71cab759c78,2024-02-22_04h58.22.263,kallum_motion_pilot,2023.2.2,MacIntel,59.52380952,60be9461f162e71cab759c78,65d6bb0e977760de756971f7,65d6c64d19a6512e9d38113b,0.0443,0.0444,0,158,158,134,1,eightsix,,,,,,,,,,,,,,,,,,,,,,,,,,,,,,,,,,,,,,,,,,,,,,,,,,,,,,,,,,,,,,,,,,,,,,,,,,,,,,,,,,,,,,,,,,,,,,,,,,,,,,,,,,,,,,,,,,,,,,,,,,,,,,,,,,,,,,,,,
,,60be9461f162e71cab759c78,2024-02-22_04h58.22.263,kallum_motion_pilot,2023.2.2,MacIntel,59.52380952,60be9461f162e71cab759c78,65d6bb0e977760de756971f7,65d6c64d19a6512e9d38113b,0.0444,0.0444,0,159,159,14,1,fourtwo,,,,,,,,,,,,,,,,,,,,,,,,,,,,,,,,,,,,,,,,,,,,,,,,,,,,,,,,,,,,,,,,,,,,,,,,,,,,,,,,,,,,,,,,,,,,,,,,,,,,,,,,,,,,,,,,,,,,,,,,,,,,,,,,,,,,,,,,,
,,60be9461f162e71cab759c78,2024-02-22_04h58.22.263,kallum_motion_pilot,2023.2.2,MacIntel,59.52380952,60be9461f162e71cab759c78,65d6bb0e977760de756971f7,65d6c64d19a6512e9d38113b,0.0445,0.0446,0,160,160,47,1,fourthree,,,,,,,,,,,,,,,,,,,,,,,,,,,,,,,,,,,,,,,,,,,,,,,,,,,,,,,,,,,,,,,,,,,,,,,,,,,,,,,,,,,,,,,,,,,,,,,,,,,,,,,,,,,,,,,,,,,,,,,,,,,,,,,,,,,,,,,,,
,,60be9461f162e71cab759c78,2024-02-22_04h58.22.263,kallum_motion_pilot,2023.2.2,MacIntel,59.52380952,60be9461f162e71cab759c78,65d6bb0e977760de756971f7,65d6c64d19a6512e9d38113b,0.0446,0.0447,0,161,161,84,1,sevenfive,,,,,,,,,,,,,,,,,,,,,,,,,,,,,,,,,,,,,,,,,,,,,,,,,,,,,,,,,,,,,,,,,,,,,,,,,,,,,,,,,,,,,,,,,,,,,,,,,,,,,,,,,,,,,,,,,,,,,,,,,,,,,,,,,,,,,,,,,
,,60be9461f162e71cab759c78,2024-02-22_04h58.22.263,kallum_motion_pilot,2023.2.2,MacIntel,59.52380952,60be9461f162e71cab759c78,65d6bb0e977760de756971f7,65d6c64d19a6512e9d38113b,0.0448,0.0449,1,0,162,161,1,fiveseven,,,,,,,,,,,,,,,,,,,,,,,,,,,,,,,,,,,,,,,,,,,,,,,,,,,,,,,,,,,,,,,,,,,,,,,,,,,,,,,,,,,,,,,,,,,,,,,,,,,,,,,,,,,,,,,,,,,,,,,,,,,,,,,,,,,,,,,,,
,,60be9461f162e71cab759c78,2024-02-22_04h58.22.263,kallum_motion_pilot,2023.2.2,MacIntel,59.52380952,60be9461f162e71cab759c78,65d6bb0e977760de756971f7,65d6c64d19a6512e9d38113b,0.0451,0.0452,1,1,163,26,1,twoone,,,,,,,,,,,,,,,,,,,,,,,,,,,,,,,,,,,,,,,,,,,,,,,,,,,,,,,,,,,,,,,,,,,,,,,,,,,,,,,,,,,,,,,,,,,,,,,,,,,,,,,,,,,,,,,,,,,,,,,,,,,,,,,,,,,,,,,,,
,,60be9461f162e71cab759c78,2024-02-22_04h58.22.263,kallum_motion_pilot,2023.2.2,MacIntel,59.52380952,60be9461f162e71cab759c78,65d6bb0e977760de756971f7,65d6c64d19a6512e9d38113b,0.0452,0.0453,1,2,164,91,1,sixeight,,,,,,,,,,,,,,,,,,,,,,,,,,,,,,,,,,,,,,,,,,,,,,,,,,,,,,,,,,,,,,,,,,,,,,,,,,,,,,,,,,,,,,,,,,,,,,,,,,,,,,,,,,,,,,,,,,,,,,,,,,,,,,,,,,,,,,,,,
,,60be9461f162e71cab759c78,2024-02-22_04h58.22.263,kallum_motion_pilot,2023.2.2,MacIntel,59.52380952,60be9461f162e71cab759c78,65d6bb0e977760de756971f7,65d6c64d19a6512e9d38113b,0.0453,0.0453,1,3,165,66,1,twoone,,,,,,,,,,,,,,,,,,,,,,,,,,,,,,,,,,,,,,,,,,,,,,,,,,,,,,,,,,,,,,,,,,,,,,,,,,,,,,,,,,,,,,,,,,,,,,,,,,,,,,,,,,,,,,,,,,,,,,,,,,,,,,,,,,,,,,,,,
,,60be9461f162e71cab759c78,2024-02-22_04h58.22.263,kallum_motion_pilot,2023.2.2,MacIntel,59.52380952,60be9461f162e71cab759c78,65d6bb0e977760de756971f7,65d6c64d19a6512e9d38113b,0.0454,0.0454,1,4,166,82,1,sixfive,,,,,,,,,,,,,,,,,,,,,,,,,,,,,,,,,,,,,,,,,,,,,,,,,,,,,,,,,,,,,,,,,,,,,,,,,,,,,,,,,,,,,,,,,,,,,,,,,,,,,,,,,,,,,,,,,,,,,,,,,,,,,,,,,,,,,,,,,
,,60be9461f162e71cab759c78,2024-02-22_04h58.22.263,kallum_motion_pilot,2023.2.2,MacIntel,59.52380952,60be9461f162e71cab759c78,65d6bb0e977760de756971f7,65d6c64d19a6512e9d38113b,0.0455,0.0456,1,5,167,115,1,sixeight,,,,,,,,,,,,,,,,,,,,,,,,,,,,,,,,,,,,,,,,,,,,,,,,,,,,,,,,,,,,,,,,,,,,,,,,,,,,,,,,,,,,,,,,,,,,,,,,,,,,,,,,,,,,,,,,,,,,,,,,,,,,,,,,,,,,,,,,,
,,60be9461f162e71cab759c78,2024-02-22_04h58.22.263,kallum_motion_pilot,2023.2.2,MacIntel,59.52380952,60be9461f162e71cab759c78,65d6bb0e977760de756971f7,65d6c64d19a6512e9d38113b,0.0457,0.0457,1,6,168,31,1,fourthree,,,,,,,,,,,,,,,,,,,,,,,,,,,,,,,,,,,,,,,,,,,,,,,,,,,,,,,,,,,,,,,,,,,,,,,,,,,,,,,,,,,,,,,,,,,,,,,,,,,,,,,,,,,,,,,,,,,,,,,,,,,,,,,,,,,,,,,,,
,,60be9461f162e71cab759c78,2024-02-22_04h58.22.263,kallum_motion_pilot,2023.2.2,MacIntel,59.52380952,60be9461f162e71cab759c78,65d6bb0e977760de756971f7,65d6c64d19a6512e9d38113b,0.0457,0.0458,1,7,169,88,1,fivesix,,,,,,,,,,,,,,,,,,,,,,,,,,,,,,,,,,,,,,,,,,,,,,,,,,,,,,,,,,,,,,,,,,,,,,,,,,,,,,,,,,,,,,,,,,,,,,,,,,,,,,,,,,,,,,,,,,,,,,,,,,,,,,,,,,,,,,,,,
,,60be9461f162e71cab759c78,2024-02-22_04h58.22.263,kallum_motion_pilot,2023.2.2,MacIntel,59.52380952,60be9461f162e71cab759c78,65d6bb0e977760de756971f7,65d6c64d19a6512e9d38113b,0.0459,0.0459,1,8,170,122,1,sixfive,,,,,,,,,,,,,,,,,,,,,,,,,,,,,,,,,,,,,,,,,,,,,,,,,,,,,,,,,,,,,,,,,,,,,,,,,,,,,,,,,,,,,,,,,,,,,,,,,,,,,,,,,,,,,,,,,,,,,,,,,,,,,,,,,,,,,,,,,
,,60be9461f162e71cab759c78,2024-02-22_04h58.22.263,kallum_motion_pilot,2023.2.2,MacIntel,59.52380952,60be9461f162e71cab759c78,65d6bb0e977760de756971f7,65d6c64d19a6512e9d38113b,0.046,0.046,1,9,171,89,1,fiveseven,,,,,,,,,,,,,,,,,,,,,,,,,,,,,,,,,,,,,,,,,,,,,,,,,,,,,,,,,,,,,,,,,,,,,,,,,,,,,,,,,,,,,,,,,,,,,,,,,,,,,,,,,,,,,,,,,,,,,,,,,,,,,,,,,,,,,,,,,
,,60be9461f162e71cab759c78,2024-02-22_04h58.22.263,kallum_motion_pilot,2023.2.2,MacIntel,59.52380952,60be9461f162e71cab759c78,65d6bb0e977760de756971f7,65d6c64d19a6512e9d38113b,0.0461,0.0461,1,10,172,93,1,seveneight,,,,,,,,,,,,,,,,,,,,,,,,,,,,,,,,,,,,,,,,,,,,,,,,,,,,,,,,,,,,,,,,,,,,,,,,,,,,,,,,,,,,,,,,,,,,,,,,,,,,,,,,,,,,,,,,,,,,,,,,,,,,,,,,,,,,,,,,,
,,60be9461f162e71cab759c78,2024-02-22_04h58.22.263,kallum_motion_pilot,2023.2.2,MacIntel,59.52380952,60be9461f162e71cab759c78,65d6bb0e977760de756971f7,65d6c64d19a6512e9d38113b,0.0462,0.0462,1,11,173,68,1,threeone,,,,,,,,,,,,,,,,,,,,,,,,,,,,,,,,,,,,,,,,,,,,,,,,,,,,,,,,,,,,,,,,,,,,,,,,,,,,,,,,,,,,,,,,,,,,,,,,,,,,,,,,,,,,,,,,,,,,,,,,,,,,,,,,,,,,,,,,,
,,60be9461f162e71cab759c78,2024-02-22_04h58.22.263,kallum_motion_pilot,2023.2.2,MacIntel,59.52380952,60be9461f162e71cab759c78,65d6bb0e977760de756971f7,65d6c64d19a6512e9d38113b,0.0463,0.0463,1,12,174,154,1,sixfive,,,,,,,,,,,,,,,,,,,,,,,,,,,,,,,,,,,,,,,,,,,,,,,,,,,,,,,,,,,,,,,,,,,,,,,,,,,,,,,,,,,,,,,,,,,,,,,,,,,,,,,,,,,,,,,,,,,,,,,,,,,,,,,,,,,,,,,,,
,,60be9461f162e71cab759c78,2024-02-22_04h58.22.263,kallum_motion_pilot,2023.2.2,MacIntel,59.52380952,60be9461f162e71cab759c78,65d6bb0e977760de756971f7,65d6c64d19a6512e9d38113b,0.0463,0.0465,1,13,175,74,1,twoone,,,,,,,,,,,,,,,,,,,,,,,,,,,,,,,,,,,,,,,,,,,,,,,,,,,,,,,,,,,,,,,,,,,,,,,,,,,,,,,,,,,,,,,,,,,,,,,,,,,,,,,,,,,,,,,,,,,,,,,,,,,,,,,,,,,,,,,,,
,,60be9461f162e71cab759c78,2024-02-22_04h58.22.263,kallum_motion_pilot,2023.2.2,MacIntel,59.52380952,60be9461f162e71cab759c78,65d6bb0e977760de756971f7,65d6c64d19a6512e9d38113b,0.0465,0.0466,1,14,176,48,1,onetwo,,,,,,,,,,,,,,,,,,,,,,,,,,,,,,,,,,,,,,,,,,,,,,,,,,,,,,,,,,,,,,,,,,,,,,,,,,,,,,,,,,,,,,,,,,,,,,,,,,,,,,,,,,,,,,,,,,,,,,,,,,,,,,,,,,,,,,,,,
,,60be9461f162e71cab759c78,2024-02-22_04h58.22.263,kallum_motion_pilot,2023.2.2,MacIntel,59.52380952,60be9461f162e71cab759c78,65d6bb0e977760de756971f7,65d6c64d19a6512e9d38113b,0.0466,0.0466,1,15,177,49,1,onethree,,,,,,,,,,,,,,,,,,,,,,,,,,,,,,,,,,,,,,,,,,,,,,,,,,,,,,,,,,,,,,,,,,,,,,,,,,,,,,,,,,,,,,,,,,,,,,,,,,,,,,,,,,,,,,,,,,,,,,,,,,,,,,,,,,,,,,,,,
,,60be9461f162e71cab759c78,2024-02-22_04h58.22.263,kallum_motion_pilot,2023.2.2,MacIntel,59.52380952,60be9461f162e71cab759c78,65d6bb0e977760de756971f7,65d6c64d19a6512e9d38113b,0.0467,0.0468,1,16,178,136,1,fivesix,,,,,,,,,,,,,,,,,,,,,,,,,,,,,,,,,,,,,,,,,,,,,,,,,,,,,,,,,,,,,,,,,,,,,,,,,,,,,,,,,,,,,,,,,,,,,,,,,,,,,,,,,,,,,,,,,,,,,,,,,,,,,,,,,,,,,,,,,
,,60be9461f162e71cab759c78,2024-02-22_04h58.22.263,kallum_motion_pilot,2023.2.2,MacIntel,59.52380952,60be9461f162e71cab759c78,65d6bb0e977760de756971f7,65d6c64d19a6512e9d38113b,0.0469,0.0469,1,17,179,114,1,sixfive,,,,,,,,,,,,,,,,,,,,,,,,,,,,,,,,,,,,,,,,,,,,,,,,,,,,,,,,,,,,,,,,,,,,,,,,,,,,,,,,,,,,,,,,,,,,,,,,,,,,,,,,,,,,,,,,,,,,,,,,,,,,,,,,,,,,,,,,,
,,60be9461f162e71cab759c78,2024-02-22_04h58.22.263,kallum_motion_pilot,2023.2.2,MacIntel,59.52380952,60be9461f162e71cab759c78,65d6bb0e977760de756971f7,65d6c64d19a6512e9d38113b,0.0469,0.047,1,18,180,32,1,onetwo,,,,,,,,,,,,,,,,,,,,,,,,,,,,,,,,,,,,,,,,,,,,,,,,,,,,,,,,,,,,,,,,,,,,,,,,,,,,,,,,,,,,,,,,,,,,,,,,,,,,,,,,,,,,,,,,,,,,,,,,,,,,,,,,,,,,,,,,,
,,60be9461f162e71cab759c78,2024-02-22_04h58.22.263,kallum_motion_pilot,2023.2.2,MacIntel,59.52380952,60be9461f162e71cab759c78,65d6bb0e977760de756971f7,65d6c64d19a6512e9d38113b,0.0471,0.0471,1,19,181,112,1,fivesix,,,,,,,,,,,,,,,,,,,,,,,,,,,,,,,,,,,,,,,,,,,,,,,,,,,,,,,,,,,,,,,,,,,,,,,,,,,,,,,,,,,,,,,,,,,,,,,,,,,,,,,,,,,,,,,,,,,,,,,,,,,,,,,,,,,,,,,,,
,,60be9461f162e71cab759c78,2024-02-22_04h58.22.263,kallum_motion_pilot,2023.2.2,MacIntel,59.52380952,60be9461f162e71cab759c78,65d6bb0e977760de756971f7,65d6c64d19a6512e9d38113b,0.0472,0.0472,1,20,182,38,1,fourtwo,,,,,,,,,,,,,,,,,,,,,,,,,,,,,,,,,,,,,,,,,,,,,,,,,,,,,,,,,,,,,,,,,,,,,,,,,,,,,,,,,,,,,,,,,,,,,,,,,,,,,,,,,,,,,,,,,,,,,,,,,,,,,,,,,,,,,,,,,
,,60be9461f162e71cab759c78,2024-02-22_04h58.22.263,kallum_motion_pilot,2023.2.2,MacIntel,59.52380952,60be9461f162e71cab759c78,65d6bb0e977760de756971f7,65d6c64d19a6512e9d38113b,0.0473,0.0473,1,21,183,45,1,threefour,,,,,,,,,,,,,,,,,,,,,,,,,,,,,,,,,,,,,,,,,,,,,,,,,,,,,,,,,,,,,,,,,,,,,,,,,,,,,,,,,,,,,,,,,,,,,,,,,,,,,,,,,,,,,,,,,,,,,,,,,,,,,,,,,,,,,,,,,
,,60be9461f162e71cab759c78,2024-02-22_04h58.22.263,kallum_motion_pilot,2023.2.2,MacIntel,59.52380952,60be9461f162e71cab759c78,65d6bb0e977760de756971f7,65d6c64d19a6512e9d38113b,0.0474,0.0474,1,22,184,46,1,fourtwo,,,,,,,,,,,,,,,,,,,,,,,,,,,,,,,,,,,,,,,,,,,,,,,,,,,,,,,,,,,,,,,,,,,,,,,,,,,,,,,,,,,,,,,,,,,,,,,,,,,,,,,,,,,,,,,,,,,,,,,,,,,,,,,,,,,,,,,,,
,,60be9461f162e71cab759c78,2024-02-22_04h58.22.263,kallum_motion_pilot,2023.2.2,MacIntel,59.52380952,60be9461f162e71cab759c78,65d6bb0e977760de756971f7,65d6c64d19a6512e9d38113b,0.0475,0.0475,1,23,185,109,1,seveneight,,,,,,,,,,,,,,,,,,,,,,,,,,,,,,,,,,,,,,,,,,,,,,,,,,,,,,,,,,,,,,,,,,,,,,,,,,,,,,,,,,,,,,,,,,,,,,,,,,,,,,,,,,,,,,,,,,,,,,,,,,,,,,,,,,,,,,,,,
,,60be9461f162e71cab759c78,2024-02-22_04h58.22.263,kallum_motion_pilot,2023.2.2,MacIntel,59.52380952,60be9461f162e71cab759c78,65d6bb0e977760de756971f7,65d6c64d19a6512e9d38113b,0.0476,0.0476,1,24,186,79,1,eightseven,,,,,,,,,,,,,,,,,,,,,,,,,,,,,,,,,,,,,,,,,,,,,,,,,,,,,,,,,,,,,,,,,,,,,,,,,,,,,,,,,,,,,,,,,,,,,,,,,,,,,,,,,,,,,,,,,,,,,,,,,,,,,,,,,,,,,,,,,
,,60be9461f162e71cab759c78,2024-02-22_04h58.22.263,kallum_motion_pilot,2023.2.2,MacIntel,59.52380952,60be9461f162e71cab759c78,65d6bb0e977760de756971f7,65d6c64d19a6512e9d38113b,0.0478,0.0478,1,25,187,116,1,sevenfive,,,,,,,,,,,,,,,,,,,,,,,,,,,,,,,,,,,,,,,,,,,,,,,,,,,,,,,,,,,,,,,,,,,,,,,,,,,,,,,,,,,,,,,,,,,,,,,,,,,,,,,,,,,,,,,,,,,,,,,,,,,,,,,,,,,,,,,,,
,,60be9461f162e71cab759c78,2024-02-22_04h58.22.263,kallum_motion_pilot,2023.2.2,MacIntel,59.52380952,60be9461f162e71cab759c78,65d6bb0e977760de756971f7,65d6c64d19a6512e9d38113b,0.0478,0.0479,1,26,188,113,1,fiveseven,,,,,,,,,,,,,,,,,,,,,,,,,,,,,,,,,,,,,,,,,,,,,,,,,,,,,,,,,,,,,,,,,,,,,,,,,,,,,,,,,,,,,,,,,,,,,,,,,,,,,,,,,,,,,,,,,,,,,,,,,,,,,,,,,,,,,,,,,
,,60be9461f162e71cab759c78,2024-02-22_04h58.22.263,kallum_motion_pilot,2023.2.2,MacIntel,59.52380952,60be9461f162e71cab759c78,65d6bb0e977760de756971f7,65d6c64d19a6512e9d38113b,0.048,0.0481,1,27,189,119,1,eightseven,,,,,,,,,,,,,,,,,,,,,,,,,,,,,,,,,,,,,,,,,,,,,,,,,,,,,,,,,,,,,,,,,,,,,,,,,,,,,,,,,,,,,,,,,,,,,,,,,,,,,,,,,,,,,,,,,,,,,,,,,,,,,,,,,,,,,,,,,
,,60be9461f162e71cab759c78,2024-02-22_04h58.22.263,kallum_motion_pilot,2023.2.2,MacIntel,59.52380952,60be9461f162e71cab759c78,65d6bb0e977760de756971f7,65d6c64d19a6512e9d38113b,0.0481,0.0481,1,28,190,87,1,eightseven,,,,,,,,,,,,,,,,,,,,,,,,,,,,,,,,,,,,,,,,,,,,,,,,,,,,,,,,,,,,,,,,,,,,,,,,,,,,,,,,,,,,,,,,,,,,,,,,,,,,,,,,,,,,,,,,,,,,,,,,,,,,,,,,,,,,,,,,,
,,60be9461f162e71cab759c78,2024-02-22_04h58.22.263,kallum_motion_pilot,2023.2.2,MacIntel,59.52380952,60be9461f162e71cab759c78,65d6bb0e977760de756971f7,65d6c64d19a6512e9d38113b,0.0482,0.0483,1,29,191,7,1,fourthree,,,,,,,,,,,,,,,,,,,,,,,,,,,,,,,,,,,,,,,,,,,,,,,,,,,,,,,,,,,,,,,,,,,,,,,,,,,,,,,,,,,,,,,,,,,,,,,,,,,,,,,,,,,,,,,,,,,,,,,,,,,,,,,,,,,,,,,,,
,,60be9461f162e71cab759c78,2024-02-22_04h58.22.263,kallum_motion_pilot,2023.2.2,MacIntel,59.52380952,60be9461f162e71cab759c78,65d6bb0e977760de756971f7,65d6c64d19a6512e9d38113b,0.0484,0.0484,1,30,192,9,1,onethree,,,,,,,,,,,,,,,,,,,,,,,,,,,,,,,,,,,,,,,,,,,,,,,,,,,,,,,,,,,,,,,,,,,,,,,,,,,,,,,,,,,,,,,,,,,,,,,,,,,,,,,,,,,,,,,,,,,,,,,,,,,,,,,,,,,,,,,,,
,,60be9461f162e71cab759c78,2024-02-22_04h58.22.263,kallum_motion_pilot,2023.2.2,MacIntel,59.52380952,60be9461f162e71cab759c78,65d6bb0e977760de756971f7,65d6c64d19a6512e9d38113b,0.0484,0.0485,1,31,193,36,1,threeone,,,,,,,,,,,,,,,,,,,,,,,,,,,,,,,,,,,,,,,,,,,,,,,,,,,,,,,,,,,,,,,,,,,,,,,,,,,,,,,,,,,,,,,,,,,,,,,,,,,,,,,,,,,,,,,,,,,,,,,,,,,,,,,,,,,,,,,,,
,,60be9461f162e71cab759c78,2024-02-22_04h58.22.263,kallum_motion_pilot,2023.2.2,MacIntel,59.52380952,60be9461f162e71cab759c78,65d6bb0e977760de756971f7,65d6c64d19a6512e9d38113b,0.0486,0.0486,1,32,194,22,1,fourtwo,,,,,,,,,,,,,,,,,,,,,,,,,,,,,,,,,,,,,,,,,,,,,,,,,,,,,,,,,,,,,,,,,,,,,,,,,,,,,,,,,,,,,,,,,,,,,,,,,,,,,,,,,,,,,,,,,,,,,,,,,,,,,,,,,,,,,,,,,
,,60be9461f162e71cab759c78,2024-02-22_04h58.22.263,kallum_motion_pilot,2023.2.2,MacIntel,59.52380952,60be9461f162e71cab759c78,65d6bb0e977760de756971f7,65d6c64d19a6512e9d38113b,0.0487,0.0487,1,33,195,71,1,fourthree,,,,,,,,,,,,,,,,,,,,,,,,,,,,,,,,,,,,,,,,,,,,,,,,,,,,,,,,,,,,,,,,,,,,,,,,,,,,,,,,,,,,,,,,,,,,,,,,,,,,,,,,,,,,,,,,,,,,,,,,,,,,,,,,,,,,,,,,,
,,60be9461f162e71cab759c78,2024-02-22_04h58.22.263,kallum_motion_pilot,2023.2.2,MacIntel,59.52380952,60be9461f162e71cab759c78,65d6bb0e977760de756971f7,65d6c64d19a6512e9d38113b,0.0488,0.0489,1,34,196,156,1,sevenfive,,,,,,,,,,,,,,,,,,,,,,,,,,,,,,,,,,,,,,,,,,,,,,,,,,,,,,,,,,,,,,,,,,,,,,,,,,,,,,,,,,,,,,,,,,,,,,,,,,,,,,,,,,,,,,,,,,,,,,,,,,,,,,,,,,,,,,,,,
,,60be9461f162e71cab759c78,2024-02-22_04h58.22.263,kallum_motion_pilot,2023.2.2,MacIntel,59.52380952,60be9461f162e71cab759c78,65d6bb0e977760de756971f7,65d6c64d19a6512e9d38113b,0.0489,0.049,1,35,197,75,1,twofour,,,,,,,,,,,,,,,,,,,,,,,,,,,,,,,,,,,,,,,,,,,,,,,,,,,,,,,,,,,,,,,,,,,,,,,,,,,,,,,,,,,,,,,,,,,,,,,,,,,,,,,,,,,,,,,,,,,,,,,,,,,,,,,,,,,,,,,,,
,,60be9461f162e71cab759c78,2024-02-22_04h58.22.263,kallum_motion_pilot,2023.2.2,MacIntel,59.52380952,60be9461f162e71cab759c78,65d6bb0e977760de756971f7,65d6c64d19a6512e9d38113b,0.049,0.049,1,36,198,153,1,fiveseven,,,,,,,,,,,,,,,,,,,,,,,,,,,,,,,,,,,,,,,,,,,,,,,,,,,,,,,,,,,,,,,,,,,,,,,,,,,,,,,,,,,,,,,,,,,,,,,,,,,,,,,,,,,,,,,,,,,,,,,,,,,,,,,,,,,,,,,,,
,,60be9461f162e71cab759c78,2024-02-22_04h58.22.263,kallum_motion_pilot,2023.2.2,MacIntel,59.52380952,60be9461f162e71cab759c78,65d6bb0e977760de756971f7,65d6c64d19a6512e9d38113b,0.0492,0.0492,1,37,199,2,1,twoone,,,,,,,,,,,,,,,,,,,,,,,,,,,,,,,,,,,,,,,,,,,,,,,,,,,,,,,,,,,,,,,,,,,,,,,,,,,,,,,,,,,,,,,,,,,,,,,,,,,,,,,,,,,,,,,,,,,,,,,,,,,,,,,,,,,,,,,,,
,,60be9461f162e71cab759c78,2024-02-22_04h58.22.263,kallum_motion_pilot,2023.2.2,MacIntel,59.52380952,60be9461f162e71cab759c78,65d6bb0e977760de756971f7,65d6c64d19a6512e9d38113b,0.0492,0.0493,1,38,200,103,1,eightseven,,,,,,,,,,,,,,,,,,,,,,,,,,,,,,,,,,,,,,,,,,,,,,,,,,,,,,,,,,,,,,,,,,,,,,,,,,,,,,,,,,,,,,,,,,,,,,,,,,,,,,,,,,,,,,,,,,,,,,,,,,,,,,,,,,,,,,,,,
,,60be9461f162e71cab759c78,2024-02-22_04h58.22.263,kallum_motion_pilot,2023.2.2,MacIntel,59.52380952,60be9461f162e71cab759c78,65d6bb0e977760de756971f7,65d6c64d19a6512e9d38113b,0.0493,0.0494,1,39,201,39,1,fourthree,,,,,,,,,,,,,,,,,,,,,,,,,,,,,,,,,,,,,,,,,,,,,,,,,,,,,,,,,,,,,,,,,,,,,,,,,,,,,,,,,,,,,,,,,,,,,,,,,,,,,,,,,,,,,,,,,,,,,,,,,,,,,,,,,,,,,,,,,
,,60be9461f162e71cab759c78,2024-02-22_04h58.22.263,kallum_motion_pilot,2023.2.2,MacIntel,59.52380952,60be9461f162e71cab759c78,65d6bb0e977760de756971f7,65d6c64d19a6512e9d38113b,0.0494,0.0495,1,40,202,97,1,fiveseven,,,,,,,,,,,,,,,,,,,,,,,,,,,,,,,,,,,,,,,,,,,,,,,,,,,,,,,,,,,,,,,,,,,,,,,,,,,,,,,,,,,,,,,,,,,,,,,,,,,,,,,,,,,,,,,,,,,,,,,,,,,,,,,,,,,,,,,,,
,,60be9461f162e71cab759c78,2024-02-22_04h58.22.263,kallum_motion_pilot,2023.2.2,MacIntel,59.52380952,60be9461f162e71cab759c78,65d6bb0e977760de756971f7,65d6c64d19a6512e9d38113b,0.0495,0.0496,1,41,203,80,1,fivesix,,,,,,,,,,,,,,,,,,,,,,,,,,,,,,,,,,,,,,,,,,,,,,,,,,,,,,,,,,,,,,,,,,,,,,,,,,,,,,,,,,,,,,,,,,,,,,,,,,,,,,,,,,,,,,,,,,,,,,,,,,,,,,,,,,,,,,,,,
,,60be9461f162e71cab759c78,2024-02-22_04h58.22.263,kallum_motion_pilot,2023.2.2,MacIntel,59.52380952,60be9461f162e71cab759c78,65d6bb0e977760de756971f7,65d6c64d19a6512e9d38113b,0.0496,0.0497,1,42,204,142,1,eightsix,,,,,,,,,,,,,,,,,,,,,,,,,,,,,,,,,,,,,,,,,,,,,,,,,,,,,,,,,,,,,,,,,,,,,,,,,,,,,,,,,,,,,,,,,,,,,,,,,,,,,,,,,,,,,,,,,,,,,,,,,,,,,,,,,,,,,,,,,
,,60be9461f162e71cab759c78,2024-02-22_04h58.22.263,kallum_motion_pilot,2023.2.2,MacIntel,59.52380952,60be9461f162e71cab759c78,65d6bb0e977760de756971f7,65d6c64d19a6512e9d38113b,0.0497,0.0498,1,43,205,117,1,seveneight,,,,,,,,,,,,,,,,,,,,,,,,,,,,,,,,,,,,,,,,,,,,,,,,,,,,,,,,,,,,,,,,,,,,,,,,,,,,,,,,,,,,,,,,,,,,,,,,,,,,,,,,,,,,,,,,,,,,,,,,,,,,,,,,,,,,,,,,,
,,60be9461f162e71cab759c78,2024-02-22_04h58.22.263,kallum_motion_pilot,2023.2.2,MacIntel,59.52380952,60be9461f162e71cab759c78,65d6bb0e977760de756971f7,65d6c64d19a6512e9d38113b,0.05,0.05,1,44,206,159,1,eightseven,,,,,,,,,,,,,,,,,,,,,,,,,,,,,,,,,,,,,,,,,,,,,,,,,,,,,,,,,,,,,,,,,,,,,,,,,,,,,,,,,,,,,,,,,,,,,,,,,,,,,,,,,,,,,,,,,,,,,,,,,,,,,,,,,,,,,,,,,
,,60be9461f162e71cab759c78,2024-02-22_04h58.22.263,kallum_motion_pilot,2023.2.2,MacIntel,59.52380952,60be9461f162e71cab759c78,65d6bb0e977760de756971f7,65d6c64d19a6512e9d38113b,0.0501,0.0502,1,45,207,64,1,onetwo,,,,,,,,,,,,,,,,,,,,,,,,,,,,,,,,,,,,,,,,,,,,,,,,,,,,,,,,,,,,,,,,,,,,,,,,,,,,,,,,,,,,,,,,,,,,,,,,,,,,,,,,,,,,,,,,,,,,,,,,,,,,,,,,,,,,,,,,,
,,60be9461f162e71cab759c78,2024-02-22_04h58.22.263,kallum_motion_pilot,2023.2.2,MacIntel,59.52380952,60be9461f162e71cab759c78,65d6bb0e977760de756971f7,65d6c64d19a6512e9d38113b,0.0503,0.0503,1,46,208,151,1,eightseven,,,,,,,,,,,,,,,,,,,,,,,,,,,,,,,,,,,,,,,,,,,,,,,,,,,,,,,,,,,,,,,,,,,,,,,,,,,,,,,,,,,,,,,,,,,,,,,,,,,,,,,,,,,,,,,,,,,,,,,,,,,,,,,,,,,,,,,,,
,,60be9461f162e71cab759c78,2024-02-22_04h58.22.263,kallum_motion_pilot,2023.2.2,MacIntel,59.52380952,60be9461f162e71cab759c78,65d6bb0e977760de756971f7,65d6c64d19a6512e9d38113b,0.0504,0.0504,1,47,209,99,1,sixeight,,,,,,,,,,,,,,,,,,,,,,,,,,,,,,,,,,,,,,,,,,,,,,,,,,,,,,,,,,,,,,,,,,,,,,,,,,,,,,,,,,,,,,,,,,,,,,,,,,,,,,,,,,,,,,,,,,,,,,,,,,,,,,,,,,,,,,,,,
,,60be9461f162e71cab759c78,2024-02-22_04h58.22.263,kallum_motion_pilot,2023.2.2,MacIntel,59.52380952,60be9461f162e71cab759c78,65d6bb0e977760de756971f7,65d6c64d19a6512e9d38113b,0.0505,0.0506,1,48,210,10,1,twoone,,,,,,,,,,,,,,,,,,,,,,,,,,,,,,,,,,,,,,,,,,,,,,,,,,,,,,,,,,,,,,,,,,,,,,,,,,,,,,,,,,,,,,,,,,,,,,,,,,,,,,,,,,,,,,,,,,,,,,,,,,,,,,,,,,,,,,,,,
,,60be9461f162e71cab759c78,2024-02-22_04h58.22.263,kallum_motion_pilot,2023.2.2,MacIntel,59.52380952,60be9461f162e71cab759c78,65d6bb0e977760de756971f7,65d6c64d19a6512e9d38113b,0.0507,0.0507,1,49,211,141,1,seveneight,,,,,,,,,,,,,,,,,,,,,,,,,,,,,,,,,,,,,,,,,,,,,,,,,,,,,,,,,,,,,,,,,,,,,,,,,,,,,,,,,,,,,,,,,,,,,,,,,,,,,,,,,,,,,,,,,,,,,,,,,,,,,,,,,,,,,,,,,
,,60be9461f162e71cab759c78,2024-02-22_04h58.22.263,kallum_motion_pilot,2023.2.2,MacIntel,59.52380952,60be9461f162e71cab759c78,65d6bb0e977760de756971f7,65d6c64d19a6512e9d38113b,0.0508,0.0508,1,50,212,152,1,fivesix,,,,,,,,,,,,,,,,,,,,,,,,,,,,,,,,,,,,,,,,,,,,,,,,,,,,,,,,,,,,,,,,,,,,,,,,,,,,,,,,,,,,,,,,,,,,,,,,,,,,,,,,,,,,,,,,,,,,,,,,,,,,,,,,,,,,,,,,,
,,60be9461f162e71cab759c78,2024-02-22_04h58.22.263,kallum_motion_pilot,2023.2.2,MacIntel,59.52380952,60be9461f162e71cab759c78,65d6bb0e977760de756971f7,65d6c64d19a6512e9d38113b,0.0509,0.0509,1,51,213,160,1,fivesix,,,,,,,,,,,,,,,,,,,,,,,,,,,,,,,,,,,,,,,,,,,,,,,,,,,,,,,,,,,,,,,,,,,,,,,,,,,,,,,,,,,,,,,,,,,,,,,,,,,,,,,,,,,,,,,,,,,,,,,,,,,,,,,,,,,,,,,,,
,,60be9461f162e71cab759c78,2024-02-22_04h58.22.263,kallum_motion_pilot,2023.2.2,MacIntel,59.52380952,60be9461f162e71cab759c78,65d6bb0e977760de756971f7,65d6c64d19a6512e9d38113b,0.0509,0.051,1,52,214,50,1,twoone,,,,,,,,,,,,,,,,,,,,,,,,,,,,,,,,,,,,,,,,,,,,,,,,,,,,,,,,,,,,,,,,,,,,,,,,,,,,,,,,,,,,,,,,,,,,,,,,,,,,,,,,,,,,,,,,,,,,,,,,,,,,,,,,,,,,,,,,,
,,60be9461f162e71cab759c78,2024-02-22_04h58.22.263,kallum_motion_pilot,2023.2.2,MacIntel,59.52380952,60be9461f162e71cab759c78,65d6bb0e977760de756971f7,65d6c64d19a6512e9d38113b,0.0511,0.0511,1,53,215,148,1,sevenfive,,,,,,,,,,,,,,,,,,,,,,,,,,,,,,,,,,,,,,,,,,,,,,,,,,,,,,,,,,,,,,,,,,,,,,,,,,,,,,,,,,,,,,,,,,,,,,,,,,,,,,,,,,,,,,,,,,,,,,,,,,,,,,,,,,,,,,,,,
,,60be9461f162e71cab759c78,2024-02-22_04h58.22.263,kallum_motion_pilot,2023.2.2,MacIntel,59.52380952,60be9461f162e71cab759c78,65d6bb0e977760de756971f7,65d6c64d19a6512e9d38113b,0.0511,0.0512,1,54,216,118,1,eightsix,,,,,,,,,,,,,,,,,,,,,,,,,,,,,,,,,,,,,,,,,,,,,,,,,,,,,,,,,,,,,,,,,,,,,,,,,,,,,,,,,,,,,,,,,,,,,,,,,,,,,,,,,,,,,,,,,,,,,,,,,,,,,,,,,,,,,,,,,
,,60be9461f162e71cab759c78,2024-02-22_04h58.22.263,kallum_motion_pilot,2023.2.2,MacIntel,59.52380952,60be9461f162e71cab759c78,65d6bb0e977760de756971f7,65d6c64d19a6512e9d38113b,0.0514,0.0514,1,55,217,94,1,eightsix,,,,,,,,,,,,,,,,,,,,,,,,,,,,,,,,,,,,,,,,,,,,,,,,,,,,,,,,,,,,,,,,,,,,,,,,,,,,,,,,,,,,,,,,,,,,,,,,,,,,,,,,,,,,,,,,,,,,,,,,,,,,,,,,,,,,,,,,,
,,60be9461f162e71cab759c78,2024-02-22_04h58.22.263,kallum_motion_pilot,2023.2.2,MacIntel,59.52380952,60be9461f162e71cab759c78,65d6bb0e977760de756971f7,65d6c64d19a6512e9d38113b,0.0514,0.0515,1,56,218,127,1,eightseven,,,,,,,,,,,,,,,,,,,,,,,,,,,,,,,,,,,,,,,,,,,,,,,,,,,,,,,,,,,,,,,,,,,,,,,,,,,,,,,,,,,,,,,,,,,,,,,,,,,,,,,,,,,,,,,,,,,,,,,,,,,,,,,,,,,,,,,,,
,,60be9461f162e71cab759c78,2024-02-22_04h58.22.263,kallum_motion_pilot,2023.2.2,MacIntel,59.52380952,60be9461f162e71cab759c78,65d6bb0e977760de756971f7,65d6c64d19a6512e9d38113b,0.0515,0.0515,1,57,219,101,1,seveneight,,,,,,,,,,,,,,,,,,,,,,,,,,,,,,,,,,,,,,,,,,,,,,,,,,,,,,,,,,,,,,,,,,,,,,,,,,,,,,,,,,,,,,,,,,,,,,,,,,,,,,,,,,,,,,,,,,,,,,,,,,,,,,,,,,,,,,,,,
,,60be9461f162e71cab759c78,2024-02-22_04h58.22.263,kallum_motion_pilot,2023.2.2,MacIntel,59.52380952,60be9461f162e71cab759c78,65d6bb0e977760de756971f7,65d6c64d19a6512e9d38113b,0.0516,0.0518,1,58,220,40,1,onetwo,,,,,,,,,,,,,,,,,,,,,,,,,,,,,,,,,,,,,,,,,,,,,,,,,,,,,,,,,,,,,,,,,,,,,,,,,,,,,,,,,,,,,,,,,,,,,,,,,,,,,,,,,,,,,,,,,,,,,,,,,,,,,,,,,,,,,,,,,
,,60be9461f162e71cab759c78,2024-02-22_04h58.22.263,kallum_motion_pilot,2023.2.2,MacIntel,59.52380952,60be9461f162e71cab759c78,65d6bb0e977760de756971f7,65d6c64d19a6512e9d38113b,0.0519,0.0521,1,59,221,145,1,fiveseven,,,,,,,,,,,,,,,,,,,,,,,,,,,,,,,,,,,,,,,,,,,,,,,,,,,,,,,,,,,,,,,,,,,,,,,,,,,,,,,,,,,,,,,,,,,,,,,,,,,,,,,,,,,,,,,,,,,,,,,,,,,,,,,,,,,,,,,,,
,,60be9461f162e71cab759c78,2024-02-22_04h58.22.263,kallum_motion_pilot,2023.2.2,MacIntel,59.52380952,60be9461f162e71cab759c78,65d6bb0e977760de756971f7,65d6c64d19a6512e9d38113b,0.0522,0.0523,1,60,222,138,1,sixfive,,,,,,,,,,,,,,,,,,,,,,,,,,,,,,,,,,,,,,,,,,,,,,,,,,,,,,,,,,,,,,,,,,,,,,,,,,,,,,,,,,,,,,,,,,,,,,,,,,,,,,,,,,,,,,,,,,,,,,,,,,,,,,,,,,,,,,,,,
,,60be9461f162e71cab759c78,2024-02-22_04h58.22.263,kallum_motion_pilot,2023.2.2,MacIntel,59.52380952,60be9461f162e71cab759c78,65d6bb0e977760de756971f7,65d6c64d19a6512e9d38113b,0.0524,0.0525,1,61,223,13,1,threefour,,,,,,,,,,,,,,,,,,,,,,,,,,,,,,,,,,,,,,,,,,,,,,,,,,,,,,,,,,,,,,,,,,,,,,,,,,,,,,,,,,,,,,,,,,,,,,,,,,,,,,,,,,,,,,,,,,,,,,,,,,,,,,,,,,,,,,,,,
,,60be9461f162e71cab759c78,2024-02-22_04h58.22.263,kallum_motion_pilot,2023.2.2,MacIntel,59.52380952,60be9461f162e71cab759c78,65d6bb0e977760de756971f7,65d6c64d19a6512e9d38113b,0.0526,0.0527,1,62,224,57,1,onethree,,,,,,,,,,,,,,,,,,,,,,,,,,,,,,,,,,,,,,,,,,,,,,,,,,,,,,,,,,,,,,,,,,,,,,,,,,,,,,,,,,,,,,,,,,,,,,,,,,,,,,,,,,,,,,,,,,,,,,,,,,,,,,,,,,,,,,,,,
,,60be9461f162e71cab759c78,2024-02-22_04h58.22.263,kallum_motion_pilot,2023.2.2,MacIntel,59.52380952,60be9461f162e71cab759c78,65d6bb0e977760de756971f7,65d6c64d19a6512e9d38113b,0.0528,0.0529,1,63,225,150,1,eightsix,,,,,,,,,,,,,,,,,,,,,,,,,,,,,,,,,,,,,,,,,,,,,,,,,,,,,,,,,,,,,,,,,,,,,,,,,,,,,,,,,,,,,,,,,,,,,,,,,,,,,,,,,,,,,,,,,,,,,,,,,,,,,,,,,,,,,,,,,
,,60be9461f162e71cab759c78,2024-02-22_04h58.22.263,kallum_motion_pilot,2023.2.2,MacIntel,59.52380952,60be9461f162e71cab759c78,65d6bb0e977760de756971f7,65d6c64d19a6512e9d38113b,0.053,0.0531,1,64,226,41,1,onethree,,,,,,,,,,,,,,,,,,,,,,,,,,,,,,,,,,,,,,,,,,,,,,,,,,,,,,,,,,,,,,,,,,,,,,,,,,,,,,,,,,,,,,,,,,,,,,,,,,,,,,,,,,,,,,,,,,,,,,,,,,,,,,,,,,,,,,,,,
,,60be9461f162e71cab759c78,2024-02-22_04h58.22.263,kallum_motion_pilot,2023.2.2,MacIntel,59.52380952,60be9461f162e71cab759c78,65d6bb0e977760de756971f7,65d6c64d19a6512e9d38113b,0.0532,0.0533,1,65,227,16,1,onetwo,,,,,,,,,,,,,,,,,,,,,,,,,,,,,,,,,,,,,,,,,,,,,,,,,,,,,,,,,,,,,,,,,,,,,,,,,,,,,,,,,,,,,,,,,,,,,,,,,,,,,,,,,,,,,,,,,,,,,,,,,,,,,,,,,,,,,,,,,
,,60be9461f162e71cab759c78,2024-02-22_04h58.22.263,kallum_motion_pilot,2023.2.2,MacIntel,59.52380952,60be9461f162e71cab759c78,65d6bb0e977760de756971f7,65d6c64d19a6512e9d38113b,0.0533,0.0534,1,66,228,59,1,twofour,,,,,,,,,,,,,,,,,,,,,,,,,,,,,,,,,,,,,,,,,,,,,,,,,,,,,,,,,,,,,,,,,,,,,,,,,,,,,,,,,,,,,,,,,,,,,,,,,,,,,,,,,,,,,,,,,,,,,,,,,,,,,,,,,,,,,,,,,
,,60be9461f162e71cab759c78,2024-02-22_04h58.22.263,kallum_motion_pilot,2023.2.2,MacIntel,59.52380952,60be9461f162e71cab759c78,65d6bb0e977760de756971f7,65d6c64d19a6512e9d38113b,0.0535,0.0535,1,67,229,25,1,onethree,,,,,,,,,,,,,,,,,,,,,,,,,,,,,,,,,,,,,,,,,,,,,,,,,,,,,,,,,,,,,,,,,,,,,,,,,,,,,,,,,,,,,,,,,,,,,,,,,,,,,,,,,,,,,,,,,,,,,,,,,,,,,,,,,,,,,,,,,
,,60be9461f162e71cab759c78,2024-02-22_04h58.22.263,kallum_motion_pilot,2023.2.2,MacIntel,59.52380952,60be9461f162e71cab759c78,65d6bb0e977760de756971f7,65d6c64d19a6512e9d38113b,0.0536,0.0536,1,68,230,144,1,fivesix,,,,,,,,,,,,,,,,,,,,,,,,,,,,,,,,,,,,,,,,,,,,,,,,,,,,,,,,,,,,,,,,,,,,,,,,,,,,,,,,,,,,,,,,,,,,,,,,,,,,,,,,,,,,,,,,,,,,,,,,,,,,,,,,,,,,,,,,,
,,60be9461f162e71cab759c78,2024-02-22_04h58.22.263,kallum_motion_pilot,2023.2.2,MacIntel,59.52380952,60be9461f162e71cab759c78,65d6bb0e977760de756971f7,65d6c64d19a6512e9d38113b,0.0538,0.0538,1,69,231,37,1,threefour,,,,,,,,,,,,,,,,,,,,,,,,,,,,,,,,,,,,,,,,,,,,,,,,,,,,,,,,,,,,,,,,,,,,,,,,,,,,,,,,,,,,,,,,,,,,,,,,,,,,,,,,,,,,,,,,,,,,,,,,,,,,,,,,,,,,,,,,,
,,60be9461f162e71cab759c78,2024-02-22_04h58.22.263,kallum_motion_pilot,2023.2.2,MacIntel,59.52380952,60be9461f162e71cab759c78,65d6bb0e977760de756971f7,65d6c64d19a6512e9d38113b,0.054,0.054,1,70,232,53,1,threefour,,,,,,,,,,,,,,,,,,,,,,,,,,,,,,,,,,,,,,,,,,,,,,,,,,,,,,,,,,,,,,,,,,,,,,,,,,,,,,,,,,,,,,,,,,,,,,,,,,,,,,,,,,,,,,,,,,,,,,,,,,,,,,,,,,,,,,,,,
,,60be9461f162e71cab759c78,2024-02-22_04h58.22.263,kallum_motion_pilot,2023.2.2,MacIntel,59.52380952,60be9461f162e71cab759c78,65d6bb0e977760de756971f7,65d6c64d19a6512e9d38113b,0.0541,0.0542,1,71,233,5,1,threefour,,,,,,,,,,,,,,,,,,,,,,,,,,,,,,,,,,,,,,,,,,,,,,,,,,,,,,,,,,,,,,,,,,,,,,,,,,,,,,,,,,,,,,,,,,,,,,,,,,,,,,,,,,,,,,,,,,,,,,,,,,,,,,,,,,,,,,,,,
,,60be9461f162e71cab759c78,2024-02-22_04h58.22.263,kallum_motion_pilot,2023.2.2,MacIntel,59.52380952,60be9461f162e71cab759c78,65d6bb0e977760de756971f7,65d6c64d19a6512e9d38113b,0.0543,0.0543,1,72,234,104,1,fivesix,,,,,,,,,,,,,,,,,,,,,,,,,,,,,,,,,,,,,,,,,,,,,,,,,,,,,,,,,,,,,,,,,,,,,,,,,,,,,,,,,,,,,,,,,,,,,,,,,,,,,,,,,,,,,,,,,,,,,,,,,,,,,,,,,,,,,,,,,
,,60be9461f162e71cab759c78,2024-02-22_04h58.22.263,kallum_motion_pilot,2023.2.2,MacIntel,59.52380952,60be9461f162e71cab759c78,65d6bb0e977760de756971f7,65d6c64d19a6512e9d38113b,0.0543,0.0544,1,73,235,35,1,twofour,,,,,,,,,,,,,,,,,,,,,,,,,,,,,,,,,,,,,,,,,,,,,,,,,,,,,,,,,,,,,,,,,,,,,,,,,,,,,,,,,,,,,,,,,,,,,,,,,,,,,,,,,,,,,,,,,,,,,,,,,,,,,,,,,,,,,,,,,
,,60be9461f162e71cab759c78,2024-02-22_04h58.22.263,kallum_motion_pilot,2023.2.2,MacIntel,59.52380952,60be9461f162e71cab759c78,65d6bb0e977760de756971f7,65d6c64d19a6512e9d38113b,0.0544,0.0545,1,74,236,108,1,sevenfive,,,,,,,,,,,,,,,,,,,,,,,,,,,,,,,,,,,,,,,,,,,,,,,,,,,,,,,,,,,,,,,,,,,,,,,,,,,,,,,,,,,,,,,,,,,,,,,,,,,,,,,,,,,,,,,,,,,,,,,,,,,,,,,,,,,,,,,,,
,,60be9461f162e71cab759c78,2024-02-22_04h58.22.263,kallum_motion_pilot,2023.2.2,MacIntel,59.52380952,60be9461f162e71cab759c78,65d6bb0e977760de756971f7,65d6c64d19a6512e9d38113b,0.0545,0.0547,1,75,237,131,1,sixeight,,,,,,,,,,,,,,,,,,,,,,,,,,,,,,,,,,,,,,,,,,,,,,,,,,,,,,,,,,,,,,,,,,,,,,,,,,,,,,,,,,,,,,,,,,,,,,,,,,,,,,,,,,,,,,,,,,,,,,,,,,,,,,,,,,,,,,,,,
,,60be9461f162e71cab759c78,2024-02-22_04h58.22.263,kallum_motion_pilot,2023.2.2,MacIntel,59.52380952,60be9461f162e71cab759c78,65d6bb0e977760de756971f7,65d6c64d19a6512e9d38113b,0.0547,0.0548,1,76,238,1,1,onethree,,,,,,,,,,,,,,,,,,,,,,,,,,,,,,,,,,,,,,,,,,,,,,,,,,,,,,,,,,,,,,,,,,,,,,,,,,,,,,,,,,,,,,,,,,,,,,,,,,,,,,,,,,,,,,,,,,,,,,,,,,,,,,,,,,,,,,,,,
,,60be9461f162e71cab759c78,2024-02-22_04h58.22.263,kallum_motion_pilot,2023.2.2,MacIntel,59.52380952,60be9461f162e71cab759c78,65d6bb0e977760de756971f7,65d6c64d19a6512e9d38113b,0.0548,0.0549,1,77,239,8,1,onetwo,,,,,,,,,,,,,,,,,,,,,,,,,,,,,,,,,,,,,,,,,,,,,,,,,,,,,,,,,,,,,,,,,,,,,,,,,,,,,,,,,,,,,,,,,,,,,,,,,,,,,,,,,,,,,,,,,,,,,,,,,,,,,,,,,,,,,,,,,
,,60be9461f162e71cab759c78,2024-02-22_04h58.22.263,kallum_motion_pilot,2023.2.2,MacIntel,59.52380952,60be9461f162e71cab759c78,65d6bb0e977760de756971f7,65d6c64d19a6512e9d38113b,0.055,0.0551,1,78,240,70,1,fourtwo,,,,,,,,,,,,,,,,,,,,,,,,,,,,,,,,,,,,,,,,,,,,,,,,,,,,,,,,,,,,,,,,,,,,,,,,,,,,,,,,,,,,,,,,,,,,,,,,,,,,,,,,,,,,,,,,,,,,,,,,,,,,,,,,,,,,,,,,,
,,60be9461f162e71cab759c78,2024-02-22_04h58.22.263,kallum_motion_pilot,2023.2.2,MacIntel,59.52380952,60be9461f162e71cab759c78,65d6bb0e977760de756971f7,65d6c64d19a6512e9d38113b,0.0551,0.0552,1,79,241,147,1,sixeight,,,,,,,,,,,,,,,,,,,,,,,,,,,,,,,,,,,,,,,,,,,,,,,,,,,,,,,,,,,,,,,,,,,,,,,,,,,,,,,,,,,,,,,,,,,,,,,,,,,,,,,,,,,,,,,,,,,,,,,,,,,,,,,,,,,,,,,,,
,,60be9461f162e71cab759c78,2024-02-22_04h58.22.263,kallum_motion_pilot,2023.2.2,MacIntel,59.52380952,60be9461f162e71cab759c78,65d6bb0e977760de756971f7,65d6c64d19a6512e9d38113b,0.0553,0.0553,1,80,242,43,1,twofour,,,,,,,,,,,,,,,,,,,,,,,,,,,,,,,,,,,,,,,,,,,,,,,,,,,,,,,,,,,,,,,,,,,,,,,,,,,,,,,,,,,,,,,,,,,,,,,,,,,,,,,,,,,,,,,,,,,,,,,,,,,,,,,,,,,,,,,,,
,,60be9461f162e71cab759c78,2024-02-22_04h58.22.263,kallum_motion_pilot,2023.2.2,MacIntel,59.52380952,60be9461f162e71cab759c78,65d6bb0e977760de756971f7,65d6c64d19a6512e9d38113b,0.0554,0.0554,1,81,243,120,1,fivesix,,,,,,,,,,,,,,,,,,,,,,,,,,,,,,,,,,,,,,,,,,,,,,,,,,,,,,,,,,,,,,,,,,,,,,,,,,,,,,,,,,,,,,,,,,,,,,,,,,,,,,,,,,,,,,,,,,,,,,,,,,,,,,,,,,,,,,,,,
,,60be9461f162e71cab759c78,2024-02-22_04h58.22.263,kallum_motion_pilot,2023.2.2,MacIntel,59.52380952,60be9461f162e71cab759c78,65d6bb0e977760de756971f7,65d6c64d19a6512e9d38113b,0.0555,0.0555,1,82,244,73,1,onethree,,,,,,,,,,,,,,,,,,,,,,,,,,,,,,,,,,,,,,,,,,,,,,,,,,,,,,,,,,,,,,,,,,,,,,,,,,,,,,,,,,,,,,,,,,,,,,,,,,,,,,,,,,,,,,,,,,,,,,,,,,,,,,,,,,,,,,,,,
,,60be9461f162e71cab759c78,2024-02-22_04h58.22.263,kallum_motion_pilot,2023.2.2,MacIntel,59.52380952,60be9461f162e71cab759c78,65d6bb0e977760de756971f7,65d6c64d19a6512e9d38113b,0.0556,0.0557,1,83,245,54,1,fourtwo,,,,,,,,,,,,,,,,,,,,,,,,,,,,,,,,,,,,,,,,,,,,,,,,,,,,,,,,,,,,,,,,,,,,,,,,,,,,,,,,,,,,,,,,,,,,,,,,,,,,,,,,,,,,,,,,,,,,,,,,,,,,,,,,,,,,,,,,,
,,60be9461f162e71cab759c78,2024-02-22_04h58.22.263,kallum_motion_pilot,2023.2.2,MacIntel,59.52380952,60be9461f162e71cab759c78,65d6bb0e977760de756971f7,65d6c64d19a6512e9d38113b,0.0558,0.0559,1,84,246,6,1,fourtwo,,,,,,,,,,,,,,,,,,,,,,,,,,,,,,,,,,,,,,,,,,,,,,,,,,,,,,,,,,,,,,,,,,,,,,,,,,,,,,,,,,,,,,,,,,,,,,,,,,,,,,,,,,,,,,,,,,,,,,,,,,,,,,,,,,,,,,,,,
,,60be9461f162e71cab759c78,2024-02-22_04h58.22.263,kallum_motion_pilot,2023.2.2,MacIntel,59.52380952,60be9461f162e71cab759c78,65d6bb0e977760de756971f7,65d6c64d19a6512e9d38113b,0.056,0.0562,1,85,247,111,1,eightseven,,,,,,,,,,,,,,,,,,,,,,,,,,,,,,,,,,,,,,,,,,,,,,,,,,,,,,,,,,,,,,,,,,,,,,,,,,,,,,,,,,,,,,,,,,,,,,,,,,,,,,,,,,,,,,,,,,,,,,,,,,,,,,,,,,,,,,,,,
,,60be9461f162e71cab759c78,2024-02-22_04h58.22.263,kallum_motion_pilot,2023.2.2,MacIntel,59.52380952,60be9461f162e71cab759c78,65d6bb0e977760de756971f7,65d6c64d19a6512e9d38113b,0.0562,0.0563,1,86,248,85,1,seveneight,,,,,,,,,,,,,,,,,,,,,,,,,,,,,,,,,,,,,,,,,,,,,,,,,,,,,,,,,,,,,,,,,,,,,,,,,,,,,,,,,,,,,,,,,,,,,,,,,,,,,,,,,,,,,,,,,,,,,,,,,,,,,,,,,,,,,,,,,
,,60be9461f162e71cab759c78,2024-02-22_04h58.22.263,kallum_motion_pilot,2023.2.2,MacIntel,59.52380952,60be9461f162e71cab759c78,65d6bb0e977760de756971f7,65d6c64d19a6512e9d38113b,0.0563,0.0564,1,87,249,51,1,twofour,,,,,,,,,,,,,,,,,,,,,,,,,,,,,,,,,,,,,,,,,,,,,,,,,,,,,,,,,,,,,,,,,,,,,,,,,,,,,,,,,,,,,,,,,,,,,,,,,,,,,,,,,,,,,,,,,,,,,,,,,,,,,,,,,,,,,,,,,
,,60be9461f162e71cab759c78,2024-02-22_04h58.22.263,kallum_motion_pilot,2023.2.2,MacIntel,59.52380952,60be9461f162e71cab759c78,65d6bb0e977760de756971f7,65d6c64d19a6512e9d38113b,0.0564,0.0567,1,88,250,125,1,seveneight,,,,,,,,,,,,,,,,,,,,,,,,,,,,,,,,,,,,,,,,,,,,,,,,,,,,,,,,,,,,,,,,,,,,,,,,,,,,,,,,,,,,,,,,,,,,,,,,,,,,,,,,,,,,,,,,,,,,,,,,,,,,,,,,,,,,,,,,,
,,60be9461f162e71cab759c78,2024-02-22_04h58.22.263,kallum_motion_pilot,2023.2.2,MacIntel,59.52380952,60be9461f162e71cab759c78,65d6bb0e977760de756971f7,65d6c64d19a6512e9d38113b,0.0568,0.0569,1,89,251,133,1,seveneight,,,,,,,,,,,,,,,,,,,,,,,,,,,,,,,,,,,,,,,,,,,,,,,,,,,,,,,,,,,,,,,,,,,,,,,,,,,,,,,,,,,,,,,,,,,,,,,,,,,,,,,,,,,,,,,,,,,,,,,,,,,,,,,,,,,,,,,,,
,,60be9461f162e71cab759c78,2024-02-22_04h58.22.263,kallum_motion_pilot,2023.2.2,MacIntel,59.52380952,60be9461f162e71cab759c78,65d6bb0e977760de756971f7,65d6c64d19a6512e9d38113b,0.0569,0.057,1,90,252,4,1,threeone,,,,,,,,,,,,,,,,,,,,,,,,,,,,,,,,,,,,,,,,,,,,,,,,,,,,,,,,,,,,,,,,,,,,,,,,,,,,,,,,,,,,,,,,,,,,,,,,,,,,,,,,,,,,,,,,,,,,,,,,,,,,,,,,,,,,,,,,,
,,60be9461f162e71cab759c78,2024-02-22_04h58.22.263,kallum_motion_pilot,2023.2.2,MacIntel,59.52380952,60be9461f162e71cab759c78,65d6bb0e977760de756971f7,65d6c64d19a6512e9d38113b,0.0571,0.0572,1,91,253,129,1,fiveseven,,,,,,,,,,,,,,,,,,,,,,,,,,,,,,,,,,,,,,,,,,,,,,,,,,,,,,,,,,,,,,,,,,,,,,,,,,,,,,,,,,,,,,,,,,,,,,,,,,,,,,,,,,,,,,,,,,,,,,,,,,,,,,,,,,,,,,,,,
,,60be9461f162e71cab759c78,2024-02-22_04h58.22.263,kallum_motion_pilot,2023.2.2,MacIntel,59.52380952,60be9461f162e71cab759c78,65d6bb0e977760de756971f7,65d6c64d19a6512e9d38113b,0.0573,0.0573,1,92,254,157,1,seveneight,,,,,,,,,,,,,,,,,,,,,,,,,,,,,,,,,,,,,,,,,,,,,,,,,,,,,,,,,,,,,,,,,,,,,,,,,,,,,,,,,,,,,,,,,,,,,,,,,,,,,,,,,,,,,,,,,,,,,,,,,,,,,,,,,,,,,,,,,
,,60be9461f162e71cab759c78,2024-02-22_04h58.22.263,kallum_motion_pilot,2023.2.2,MacIntel,59.52380952,60be9461f162e71cab759c78,65d6bb0e977760de756971f7,65d6c64d19a6512e9d38113b,0.0575,0.0576,1,93,255,17,1,onethree,,,,,,,,,,,,,,,,,,,,,,,,,,,,,,,,,,,,,,,,,,,,,,,,,,,,,,,,,,,,,,,,,,,,,,,,,,,,,,,,,,,,,,,,,,,,,,,,,,,,,,,,,,,,,,,,,,,,,,,,,,,,,,,,,,,,,,,,,
,,60be9461f162e71cab759c78,2024-02-22_04h58.22.263,kallum_motion_pilot,2023.2.2,MacIntel,59.52380952,60be9461f162e71cab759c78,65d6bb0e977760de756971f7,65d6c64d19a6512e9d38113b,0.0578,0.0578,1,94,256,0,1,onetwo,,,,,,,,,,,,,,,,,,,,,,,,,,,,,,,,,,,,,,,,,,,,,,,,,,,,,,,,,,,,,,,,,,,,,,,,,,,,,,,,,,,,,,,,,,,,,,,,,,,,,,,,,,,,,,,,,,,,,,,,,,,,,,,,,,,,,,,,,
,,60be9461f162e71cab759c78,2024-02-22_04h58.22.263,kallum_motion_pilot,2023.2.2,MacIntel,59.52380952,60be9461f162e71cab759c78,65d6bb0e977760de756971f7,65d6c64d19a6512e9d38113b,0.0579,0.058,1,95,257,63,1,fourthree,,,,,,,,,,,,,,,,,,,,,,,,,,,,,,,,,,,,,,,,,,,,,,,,,,,,,,,,,,,,,,,,,,,,,,,,,,,,,,,,,,,,,,,,,,,,,,,,,,,,,,,,,,,,,,,,,,,,,,,,,,,,,,,,,,,,,,,,,
,,60be9461f162e71cab759c78,2024-02-22_04h58.22.263,kallum_motion_pilot,2023.2.2,MacIntel,59.52380952,60be9461f162e71cab759c78,65d6bb0e977760de756971f7,65d6c64d19a6512e9d38113b,0.0581,0.0582,1,96,258,126,1,eightsix,,,,,,,,,,,,,,,,,,,,,,,,,,,,,,,,,,,,,,,,,,,,,,,,,,,,,,,,,,,,,,,,,,,,,,,,,,,,,,,,,,,,,,,,,,,,,,,,,,,,,,,,,,,,,,,,,,,,,,,,,,,,,,,,,,,,,,,,,
,,60be9461f162e71cab759c78,2024-02-22_04h58.22.263,kallum_motion_pilot,2023.2.2,MacIntel,59.52380952,60be9461f162e71cab759c78,65d6bb0e977760de756971f7,65d6c64d19a6512e9d38113b,0.0583,0.0583,1,97,259,42,1,twoone,,,,,,,,,,,,,,,,,,,,,,,,,,,,,,,,,,,,,,,,,,,,,,,,,,,,,,,,,,,,,,,,,,,,,,,,,,,,,,,,,,,,,,,,,,,,,,,,,,,,,,,,,,,,,,,,,,,,,,,,,,,,,,,,,,,,,,,,,
,,60be9461f162e71cab759c78,2024-02-22_04h58.22.263,kallum_motion_pilot,2023.2.2,MacIntel,59.52380952,60be9461f162e71cab759c78,65d6bb0e977760de756971f7,65d6c64d19a6512e9d38113b,0.0584,0.0584,1,98,260,33,1,onethree,,,,,,,,,,,,,,,,,,,,,,,,,,,,,,,,,,,,,,,,,,,,,,,,,,,,,,,,,,,,,,,,,,,,,,,,,,,,,,,,,,,,,,,,,,,,,,,,,,,,,,,,,,,,,,,,,,,,,,,,,,,,,,,,,,,,,,,,,
,,60be9461f162e71cab759c78,2024-02-22_04h58.22.263,kallum_motion_pilot,2023.2.2,MacIntel,59.52380952,60be9461f162e71cab759c78,65d6bb0e977760de756971f7,65d6c64d19a6512e9d38113b,0.0585,0.0585,1,99,261,86,1,eightsix,,,,,,,,,,,,,,,,,,,,,,,,,,,,,,,,,,,,,,,,,,,,,,,,,,,,,,,,,,,,,,,,,,,,,,,,,,,,,,,,,,,,,,,,,,,,,,,,,,,,,,,,,,,,,,,,,,,,,,,,,,,,,,,,,,,,,,,,,
,,60be9461f162e71cab759c78,2024-02-22_04h58.22.263,kallum_motion_pilot,2023.2.2,MacIntel,59.52380952,60be9461f162e71cab759c78,65d6bb0e977760de756971f7,65d6c64d19a6512e9d38113b,0.0586,0.0587,1,100,262,76,1,threeone,,,,,,,,,,,,,,,,,,,,,,,,,,,,,,,,,,,,,,,,,,,,,,,,,,,,,,,,,,,,,,,,,,,,,,,,,,,,,,,,,,,,,,,,,,,,,,,,,,,,,,,,,,,,,,,,,,,,,,,,,,,,,,,,,,,,,,,,,
,,60be9461f162e71cab759c78,2024-02-22_04h58.22.263,kallum_motion_pilot,2023.2.2,MacIntel,59.52380952,60be9461f162e71cab759c78,65d6bb0e977760de756971f7,65d6c64d19a6512e9d38113b,0.0588,0.0589,1,101,263,29,1,threefour,,,,,,,,,,,,,,,,,,,,,,,,,,,,,,,,,,,,,,,,,,,,,,,,,,,,,,,,,,,,,,,,,,,,,,,,,,,,,,,,,,,,,,,,,,,,,,,,,,,,,,,,,,,,,,,,,,,,,,,,,,,,,,,,,,,,,,,,,
,,60be9461f162e71cab759c78,2024-02-22_04h58.22.263,kallum_motion_pilot,2023.2.2,MacIntel,59.52380952,60be9461f162e71cab759c78,65d6bb0e977760de756971f7,65d6c64d19a6512e9d38113b,0.0592,0.0595,1,102,264,21,1,threefour,,,,,,,,,,,,,,,,,,,,,,,,,,,,,,,,,,,,,,,,,,,,,,,,,,,,,,,,,,,,,,,,,,,,,,,,,,,,,,,,,,,,,,,,,,,,,,,,,,,,,,,,,,,,,,,,,,,,,,,,,,,,,,,,,,,,,,,,,
,,60be9461f162e71cab759c78,2024-02-22_04h58.22.263,kallum_motion_pilot,2023.2.2,MacIntel,59.52380952,60be9461f162e71cab759c78,65d6bb0e977760de756971f7,65d6c64d19a6512e9d38113b,0.0596,0.0597,1,103,265,140,1,sevenfive,,,,,,,,,,,,,,,,,,,,,,,,,,,,,,,,,,,,,,,,,,,,,,,,,,,,,,,,,,,,,,,,,,,,,,,,,,,,,,,,,,,,,,,,,,,,,,,,,,,,,,,,,,,,,,,,,,,,,,,,,,,,,,,,,,,,,,,,,
,,60be9461f162e71cab759c78,2024-02-22_04h58.22.263,kallum_motion_pilot,2023.2.2,MacIntel,59.52380952,60be9461f162e71cab759c78,65d6bb0e977760de756971f7,65d6c64d19a6512e9d38113b,0.0598,0.0599,1,104,266,90,1,sixfive,,,,,,,,,,,,,,,,,,,,,,,,,,,,,,,,,,,,,,,,,,,,,,,,,,,,,,,,,,,,,,,,,,,,,,,,,,,,,,,,,,,,,,,,,,,,,,,,,,,,,,,,,,,,,,,,,,,,,,,,,,,,,,,,,,,,,,,,,
,,60be9461f162e71cab759c78,2024-02-22_04h58.22.263,kallum_motion_pilot,2023.2.2,MacIntel,59.52380952,60be9461f162e71cab759c78,65d6bb0e977760de756971f7,65d6c64d19a6512e9d38113b,0.0599,0.0601,1,105,267,102,1,eightsix,,,,,,,,,,,,,,,,,,,,,,,,,,,,,,,,,,,,,,,,,,,,,,,,,,,,,,,,,,,,,,,,,,,,,,,,,,,,,,,,,,,,,,,,,,,,,,,,,,,,,,,,,,,,,,,,,,,,,,,,,,,,,,,,,,,,,,,,,
,,60be9461f162e71cab759c78,2024-02-22_04h58.22.263,kallum_motion_pilot,2023.2.2,MacIntel,59.52380952,60be9461f162e71cab759c78,65d6bb0e977760de756971f7,65d6c64d19a6512e9d38113b,0.0601,0.0602,1,106,268,23,1,fourthree,,,,,,,,,,,,,,,,,,,,,,,,,,,,,,,,,,,,,,,,,,,,,,,,,,,,,,,,,,,,,,,,,,,,,,,,,,,,,,,,,,,,,,,,,,,,,,,,,,,,,,,,,,,,,,,,,,,,,,,,,,,,,,,,,,,,,,,,,
,,60be9461f162e71cab759c78,2024-02-22_04h58.22.263,kallum_motion_pilot,2023.2.2,MacIntel,59.52380952,60be9461f162e71cab759c78,65d6bb0e977760de756971f7,65d6c64d19a6512e9d38113b,0.0603,0.0604,1,107,269,78,1,fourtwo,,,,,,,,,,,,,,,,,,,,,,,,,,,,,,,,,,,,,,,,,,,,,,,,,,,,,,,,,,,,,,,,,,,,,,,,,,,,,,,,,,,,,,,,,,,,,,,,,,,,,,,,,,,,,,,,,,,,,,,,,,,,,,,,,,,,,,,,,
,,60be9461f162e71cab759c78,2024-02-22_04h58.22.263,kallum_motion_pilot,2023.2.2,MacIntel,59.52380952,60be9461f162e71cab759c78,65d6bb0e977760de756971f7,65d6c64d19a6512e9d38113b,0.0604,0.0604,1,108,270,84,1,sevenfive,,,,,,,,,,,,,,,,,,,,,,,,,,,,,,,,,,,,,,,,,,,,,,,,,,,,,,,,,,,,,,,,,,,,,,,,,,,,,,,,,,,,,,,,,,,,,,,,,,,,,,,,,,,,,,,,,,,,,,,,,,,,,,,,,,,,,,,,,
,,60be9461f162e71cab759c78,2024-02-22_04h58.22.263,kallum_motion_pilot,2023.2.2,MacIntel,59.52380952,60be9461f162e71cab759c78,65d6bb0e977760de756971f7,65d6c64d19a6512e9d38113b,0.0606,0.0606,1,109,271,96,1,fivesix,,,,,,,,,,,,,,,,,,,,,,,,,,,,,,,,,,,,,,,,,,,,,,,,,,,,,,,,,,,,,,,,,,,,,,,,,,,,,,,,,,,,,,,,,,,,,,,,,,,,,,,,,,,,,,,,,,,,,,,,,,,,,,,,,,,,,,,,,
,,60be9461f162e71cab759c78,2024-02-22_04h58.22.263,kallum_motion_pilot,2023.2.2,MacIntel,59.52380952,60be9461f162e71cab759c78,65d6bb0e977760de756971f7,65d6c64d19a6512e9d38113b,0.0606,0.0608,1,110,272,11,1,twofour,,,,,,,,,,,,,,,,,,,,,,,,,,,,,,,,,,,,,,,,,,,,,,,,,,,,,,,,,,,,,,,,,,,,,,,,,,,,,,,,,,,,,,,,,,,,,,,,,,,,,,,,,,,,,,,,,,,,,,,,,,,,,,,,,,,,,,,,,
,,60be9461f162e71cab759c78,2024-02-22_04h58.22.263,kallum_motion_pilot,2023.2.2,MacIntel,59.52380952,60be9461f162e71cab759c78,65d6bb0e977760de756971f7,65d6c64d19a6512e9d38113b,0.0608,0.0609,1,111,273,130,1,sixfive,,,,,,,,,,,,,,,,,,,,,,,,,,,,,,,,,,,,,,,,,,,,,,,,,,,,,,,,,,,,,,,,,,,,,,,,,,,,,,,,,,,,,,,,,,,,,,,,,,,,,,,,,,,,,,,,,,,,,,,,,,,,,,,,,,,,,,,,,
,,60be9461f162e71cab759c78,2024-02-22_04h58.22.263,kallum_motion_pilot,2023.2.2,MacIntel,59.52380952,60be9461f162e71cab759c78,65d6bb0e977760de756971f7,65d6c64d19a6512e9d38113b,0.0609,0.0611,1,112,274,34,1,twoone,,,,,,,,,,,,,,,,,,,,,,,,,,,,,,,,,,,,,,,,,,,,,,,,,,,,,,,,,,,,,,,,,,,,,,,,,,,,,,,,,,,,,,,,,,,,,,,,,,,,,,,,,,,,,,,,,,,,,,,,,,,,,,,,,,,,,,,,,
,,60be9461f162e71cab759c78,2024-02-22_04h58.22.263,kallum_motion_pilot,2023.2.2,MacIntel,59.52380952,60be9461f162e71cab759c78,65d6bb0e977760de756971f7,65d6c64d19a6512e9d38113b,0.0611,0.0612,1,113,275,77,1,threefour,,,,,,,,,,,,,,,,,,,,,,,,,,,,,,,,,,,,,,,,,,,,,,,,,,,,,,,,,,,,,,,,,,,,,,,,,,,,,,,,,,,,,,,,,,,,,,,,,,,,,,,,,,,,,,,,,,,,,,,,,,,,,,,,,,,,,,,,,
