startup.started,startup.stopped,Prolific ID*,date,expName,psychopyVersion,OS,frameRate,participant,study_id,session,stimpositions.started,stimpositions.stopped,hardcoded_stimulus_positions.thisRepN,hardcoded_stimulus_positions.thisTrialN,hardcoded_stimulus_positions.thisN,hardcoded_stimulus_positions.thisIndex,hardcoded_stimulus_positions.ran,StimulusPos,stimorientation.started,stimorientation.stopped,prac_stimorientation_import_loop.thisRepN,prac_stimorientation_import_loop.thisTrialN,prac_stimorientation_import_loop.thisN,prac_stimorientation_import_loop.thisIndex,prac_stimorientation_import_loop.ran,Stimorientation,welcome_instr.started,welcome_instr.stopped,key_resp.keys,key_resp.rt,key_resp.duration,response_steppedout_1.started,response_steppedout_1.stopped,key_resp_20.keys,key_resp_20.rt,key_resp_20.duration,response_steppedout_2.started,response_steppedout_2.stopped,key_resp_19.keys,key_resp_19.rt,key_resp_19.duration,stim_response_instr.started,stim_response_instr.stopped,key_resp_15.keys,key_resp_15.rt,key_resp_15.duration,direction_instr_2.started,direction_instr_2.stopped,key_resp_9.keys,key_resp_9.rt,key_resp_9.duration,instr_prac.started,instr_prac.stopped,key_resp_10.keys,key_resp_10.rt,key_resp_10.duration,Stim1_display_prac.started,Stim1_display_prac.stopped,Ecc,Circle1_ori,Circle2_ori,response_prac.started,similarity,response_time,response_prac.stopped,mouse_5.x,mouse_5.y,mouse_5.leftButton,mouse_5.midButton,mouse_5.rightButton,mouse_5.clicked_name,responseprac_feedback.started,responseprac_feedback.stopped,summary2_prac.started,summary2_prac.stopped,mouse_6.x,mouse_6.y,mouse_6.leftButton,mouse_6.midButton,mouse_6.rightButton,mouse_6.clicked_name,duringprac.thisRepN,duringprac.thisTrialN,duringprac.thisN,duringprac.thisIndex,duringprac.ran,begin.started,begin.stopped,key_resp_22.keys,key_resp_22.rt,key_resp_22.duration,Stim1_display.started,Stim1_display.stopped,circle1_ori,circle2_ori,circle1_SF,circle2_SF,response.started,response.stopped,mouse.x,mouse.y,mouse.leftButton,mouse.midButton,mouse.rightButton,mouse.clicked_name,trialnumber,double_pass.thisRepN,double_pass.thisTrialN,double_pass.thisN,double_pass.thisIndex,double_pass.ran,double_pass.order,main_trial.thisRepN,main_trial.thisTrialN,main_trial.thisN,main_trial.thisIndex,main_trial.ran,main_trial.order,Trial_Counter,Catch,Frequencies,response_2.started,response_2.stopped,mouse_2.x,mouse_2.y,mouse_2.leftButton,mouse_2.midButton,mouse_2.rightButton,mouse_2.clicked_name,special_trial.started,special_trial.stopped,catch_1.started,catch_1.stopped,mouse_3.x,mouse_3.y,mouse_3.leftButton,mouse_3.midButton,mouse_3.rightButton,catchresponse,catchnumber,response_time_catch,response_sum.started,response_sum.stopped,mouse_11.x,mouse_11.y,mouse_11.leftButton,mouse_11.midButton,mouse_11.rightButton,flip_presentation_sequence_for_double_pass.started,flip_presentation_sequence_for_double_pass.stopped,goodbye.started,goodbye.stopped,key_resp_3.keys,key_resp_3.rt,key_resp_3.duration
0.0002,0.0003,60c0d16d73ec63ed0d8ffb2e,2024-02-19_04h07.55.347,kallum_motion_pilot,2023.2.2,Win32,59.88023952,60c0d16d73ec63ed0d8ffb2e,65d2b6c8f2eece985d8e374c,65d2b7e4021102d09219331a,,,,,,,,,,,,,,,,,,,,,,,,,,,,,,,,,,,,,,,,,,,,,,,,,,,,,,,,,,,,,,,,,,,,,,,,,,,,,,,,,,,,,,,,,,,,,,,,,,,,,,,,,,,,,,,,,,,,,,,,,,,,,,,,,,,,,,,,,,,,,,,,,
,,60c0d16d73ec63ed0d8ffb2e,2024-02-19_04h07.55.347,kallum_motion_pilot,2023.2.2,Win32,59.88023952,60c0d16d73ec63ed0d8ffb2e,65d2b6c8f2eece985d8e374c,65d2b7e4021102d09219331a,0.0189,0.019,0,0,0,116,1,sevenfive,,,,,,,,,,,,,,,,,,,,,,,,,,,,,,,,,,,,,,,,,,,,,,,,,,,,,,,,,,,,,,,,,,,,,,,,,,,,,,,,,,,,,,,,,,,,,,,,,,,,,,,,,,,,,,,,,,,,,,,,,,,,,,,,,,,,,,,,,
,,60c0d16d73ec63ed0d8ffb2e,2024-02-19_04h07.55.347,kallum_motion_pilot,2023.2.2,Win32,59.88023952,60c0d16d73ec63ed0d8ffb2e,65d2b6c8f2eece985d8e374c,65d2b7e4021102d09219331a,0.0193,0.0193,0,1,1,45,1,threefour,,,,,,,,,,,,,,,,,,,,,,,,,,,,,,,,,,,,,,,,,,,,,,,,,,,,,,,,,,,,,,,,,,,,,,,,,,,,,,,,,,,,,,,,,,,,,,,,,,,,,,,,,,,,,,,,,,,,,,,,,,,,,,,,,,,,,,,,,
,,60c0d16d73ec63ed0d8ffb2e,2024-02-19_04h07.55.347,kallum_motion_pilot,2023.2.2,Win32,59.88023952,60c0d16d73ec63ed0d8ffb2e,65d2b6c8f2eece985d8e374c,65d2b7e4021102d09219331a,0.0194,0.0195,0,2,2,126,1,eightsix,,,,,,,,,,,,,,,,,,,,,,,,,,,,,,,,,,,,,,,,,,,,,,,,,,,,,,,,,,,,,,,,,,,,,,,,,,,,,,,,,,,,,,,,,,,,,,,,,,,,,,,,,,,,,,,,,,,,,,,,,,,,,,,,,,,,,,,,,
,,60c0d16d73ec63ed0d8ffb2e,2024-02-19_04h07.55.347,kallum_motion_pilot,2023.2.2,Win32,59.88023952,60c0d16d73ec63ed0d8ffb2e,65d2b6c8f2eece985d8e374c,65d2b7e4021102d09219331a,0.0196,0.0197,0,3,3,53,1,threefour,,,,,,,,,,,,,,,,,,,,,,,,,,,,,,,,,,,,,,,,,,,,,,,,,,,,,,,,,,,,,,,,,,,,,,,,,,,,,,,,,,,,,,,,,,,,,,,,,,,,,,,,,,,,,,,,,,,,,,,,,,,,,,,,,,,,,,,,,
,,60c0d16d73ec63ed0d8ffb2e,2024-02-19_04h07.55.347,kallum_motion_pilot,2023.2.2,Win32,59.88023952,60c0d16d73ec63ed0d8ffb2e,65d2b6c8f2eece985d8e374c,65d2b7e4021102d09219331a,0.0198,0.0199,0,4,4,71,1,fourthree,,,,,,,,,,,,,,,,,,,,,,,,,,,,,,,,,,,,,,,,,,,,,,,,,,,,,,,,,,,,,,,,,,,,,,,,,,,,,,,,,,,,,,,,,,,,,,,,,,,,,,,,,,,,,,,,,,,,,,,,,,,,,,,,,,,,,,,,,
,,60c0d16d73ec63ed0d8ffb2e,2024-02-19_04h07.55.347,kallum_motion_pilot,2023.2.2,Win32,59.88023952,60c0d16d73ec63ed0d8ffb2e,65d2b6c8f2eece985d8e374c,65d2b7e4021102d09219331a,0.0202,0.0202,0,5,5,138,1,sixfive,,,,,,,,,,,,,,,,,,,,,,,,,,,,,,,,,,,,,,,,,,,,,,,,,,,,,,,,,,,,,,,,,,,,,,,,,,,,,,,,,,,,,,,,,,,,,,,,,,,,,,,,,,,,,,,,,,,,,,,,,,,,,,,,,,,,,,,,,
,,60c0d16d73ec63ed0d8ffb2e,2024-02-19_04h07.55.347,kallum_motion_pilot,2023.2.2,Win32,59.88023952,60c0d16d73ec63ed0d8ffb2e,65d2b6c8f2eece985d8e374c,65d2b7e4021102d09219331a,0.0202,0.0202,0,6,6,22,1,fourtwo,,,,,,,,,,,,,,,,,,,,,,,,,,,,,,,,,,,,,,,,,,,,,,,,,,,,,,,,,,,,,,,,,,,,,,,,,,,,,,,,,,,,,,,,,,,,,,,,,,,,,,,,,,,,,,,,,,,,,,,,,,,,,,,,,,,,,,,,,
,,60c0d16d73ec63ed0d8ffb2e,2024-02-19_04h07.55.347,kallum_motion_pilot,2023.2.2,Win32,59.88023952,60c0d16d73ec63ed0d8ffb2e,65d2b6c8f2eece985d8e374c,65d2b7e4021102d09219331a,0.0203,0.0204,0,7,7,154,1,sixfive,,,,,,,,,,,,,,,,,,,,,,,,,,,,,,,,,,,,,,,,,,,,,,,,,,,,,,,,,,,,,,,,,,,,,,,,,,,,,,,,,,,,,,,,,,,,,,,,,,,,,,,,,,,,,,,,,,,,,,,,,,,,,,,,,,,,,,,,,
,,60c0d16d73ec63ed0d8ffb2e,2024-02-19_04h07.55.347,kallum_motion_pilot,2023.2.2,Win32,59.88023952,60c0d16d73ec63ed0d8ffb2e,65d2b6c8f2eece985d8e374c,65d2b7e4021102d09219331a,0.0205,0.0205,0,8,8,140,1,sevenfive,,,,,,,,,,,,,,,,,,,,,,,,,,,,,,,,,,,,,,,,,,,,,,,,,,,,,,,,,,,,,,,,,,,,,,,,,,,,,,,,,,,,,,,,,,,,,,,,,,,,,,,,,,,,,,,,,,,,,,,,,,,,,,,,,,,,,,,,,
,,60c0d16d73ec63ed0d8ffb2e,2024-02-19_04h07.55.347,kallum_motion_pilot,2023.2.2,Win32,59.88023952,60c0d16d73ec63ed0d8ffb2e,65d2b6c8f2eece985d8e374c,65d2b7e4021102d09219331a,0.0206,0.0207,0,9,9,89,1,fiveseven,,,,,,,,,,,,,,,,,,,,,,,,,,,,,,,,,,,,,,,,,,,,,,,,,,,,,,,,,,,,,,,,,,,,,,,,,,,,,,,,,,,,,,,,,,,,,,,,,,,,,,,,,,,,,,,,,,,,,,,,,,,,,,,,,,,,,,,,,
,,60c0d16d73ec63ed0d8ffb2e,2024-02-19_04h07.55.347,kallum_motion_pilot,2023.2.2,Win32,59.88023952,60c0d16d73ec63ed0d8ffb2e,65d2b6c8f2eece985d8e374c,65d2b7e4021102d09219331a,0.0207,0.0207,0,10,10,77,1,threefour,,,,,,,,,,,,,,,,,,,,,,,,,,,,,,,,,,,,,,,,,,,,,,,,,,,,,,,,,,,,,,,,,,,,,,,,,,,,,,,,,,,,,,,,,,,,,,,,,,,,,,,,,,,,,,,,,,,,,,,,,,,,,,,,,,,,,,,,,
,,60c0d16d73ec63ed0d8ffb2e,2024-02-19_04h07.55.347,kallum_motion_pilot,2023.2.2,Win32,59.88023952,60c0d16d73ec63ed0d8ffb2e,65d2b6c8f2eece985d8e374c,65d2b7e4021102d09219331a,0.0207,0.0207,0,11,11,18,1,twoone,,,,,,,,,,,,,,,,,,,,,,,,,,,,,,,,,,,,,,,,,,,,,,,,,,,,,,,,,,,,,,,,,,,,,,,,,,,,,,,,,,,,,,,,,,,,,,,,,,,,,,,,,,,,,,,,,,,,,,,,,,,,,,,,,,,,,,,,,
,,60c0d16d73ec63ed0d8ffb2e,2024-02-19_04h07.55.347,kallum_motion_pilot,2023.2.2,Win32,59.88023952,60c0d16d73ec63ed0d8ffb2e,65d2b6c8f2eece985d8e374c,65d2b7e4021102d09219331a,0.0208,0.0209,0,12,12,125,1,seveneight,,,,,,,,,,,,,,,,,,,,,,,,,,,,,,,,,,,,,,,,,,,,,,,,,,,,,,,,,,,,,,,,,,,,,,,,,,,,,,,,,,,,,,,,,,,,,,,,,,,,,,,,,,,,,,,,,,,,,,,,,,,,,,,,,,,,,,,,,
,,60c0d16d73ec63ed0d8ffb2e,2024-02-19_04h07.55.347,kallum_motion_pilot,2023.2.2,Win32,59.88023952,60c0d16d73ec63ed0d8ffb2e,65d2b6c8f2eece985d8e374c,65d2b7e4021102d09219331a,0.0209,0.0209,0,13,13,21,1,threefour,,,,,,,,,,,,,,,,,,,,,,,,,,,,,,,,,,,,,,,,,,,,,,,,,,,,,,,,,,,,,,,,,,,,,,,,,,,,,,,,,,,,,,,,,,,,,,,,,,,,,,,,,,,,,,,,,,,,,,,,,,,,,,,,,,,,,,,,,
,,60c0d16d73ec63ed0d8ffb2e,2024-02-19_04h07.55.347,kallum_motion_pilot,2023.2.2,Win32,59.88023952,60c0d16d73ec63ed0d8ffb2e,65d2b6c8f2eece985d8e374c,65d2b7e4021102d09219331a,0.0209,0.0209,0,14,14,94,1,eightsix,,,,,,,,,,,,,,,,,,,,,,,,,,,,,,,,,,,,,,,,,,,,,,,,,,,,,,,,,,,,,,,,,,,,,,,,,,,,,,,,,,,,,,,,,,,,,,,,,,,,,,,,,,,,,,,,,,,,,,,,,,,,,,,,,,,,,,,,,
,,60c0d16d73ec63ed0d8ffb2e,2024-02-19_04h07.55.347,kallum_motion_pilot,2023.2.2,Win32,59.88023952,60c0d16d73ec63ed0d8ffb2e,65d2b6c8f2eece985d8e374c,65d2b7e4021102d09219331a,0.0209,0.021,0,15,15,34,1,twoone,,,,,,,,,,,,,,,,,,,,,,,,,,,,,,,,,,,,,,,,,,,,,,,,,,,,,,,,,,,,,,,,,,,,,,,,,,,,,,,,,,,,,,,,,,,,,,,,,,,,,,,,,,,,,,,,,,,,,,,,,,,,,,,,,,,,,,,,,
,,60c0d16d73ec63ed0d8ffb2e,2024-02-19_04h07.55.347,kallum_motion_pilot,2023.2.2,Win32,59.88023952,60c0d16d73ec63ed0d8ffb2e,65d2b6c8f2eece985d8e374c,65d2b7e4021102d09219331a,0.0211,0.0211,0,16,16,137,1,fiveseven,,,,,,,,,,,,,,,,,,,,,,,,,,,,,,,,,,,,,,,,,,,,,,,,,,,,,,,,,,,,,,,,,,,,,,,,,,,,,,,,,,,,,,,,,,,,,,,,,,,,,,,,,,,,,,,,,,,,,,,,,,,,,,,,,,,,,,,,,
,,60c0d16d73ec63ed0d8ffb2e,2024-02-19_04h07.55.347,kallum_motion_pilot,2023.2.2,Win32,59.88023952,60c0d16d73ec63ed0d8ffb2e,65d2b6c8f2eece985d8e374c,65d2b7e4021102d09219331a,0.0212,0.0212,0,17,17,130,1,sixfive,,,,,,,,,,,,,,,,,,,,,,,,,,,,,,,,,,,,,,,,,,,,,,,,,,,,,,,,,,,,,,,,,,,,,,,,,,,,,,,,,,,,,,,,,,,,,,,,,,,,,,,,,,,,,,,,,,,,,,,,,,,,,,,,,,,,,,,,,
,,60c0d16d73ec63ed0d8ffb2e,2024-02-19_04h07.55.347,kallum_motion_pilot,2023.2.2,Win32,59.88023952,60c0d16d73ec63ed0d8ffb2e,65d2b6c8f2eece985d8e374c,65d2b7e4021102d09219331a,0.0212,0.0213,0,18,18,117,1,seveneight,,,,,,,,,,,,,,,,,,,,,,,,,,,,,,,,,,,,,,,,,,,,,,,,,,,,,,,,,,,,,,,,,,,,,,,,,,,,,,,,,,,,,,,,,,,,,,,,,,,,,,,,,,,,,,,,,,,,,,,,,,,,,,,,,,,,,,,,,
,,60c0d16d73ec63ed0d8ffb2e,2024-02-19_04h07.55.347,kallum_motion_pilot,2023.2.2,Win32,59.88023952,60c0d16d73ec63ed0d8ffb2e,65d2b6c8f2eece985d8e374c,65d2b7e4021102d09219331a,0.0213,0.0213,0,19,19,156,1,sevenfive,,,,,,,,,,,,,,,,,,,,,,,,,,,,,,,,,,,,,,,,,,,,,,,,,,,,,,,,,,,,,,,,,,,,,,,,,,,,,,,,,,,,,,,,,,,,,,,,,,,,,,,,,,,,,,,,,,,,,,,,,,,,,,,,,,,,,,,,,
,,60c0d16d73ec63ed0d8ffb2e,2024-02-19_04h07.55.347,kallum_motion_pilot,2023.2.2,Win32,59.88023952,60c0d16d73ec63ed0d8ffb2e,65d2b6c8f2eece985d8e374c,65d2b7e4021102d09219331a,0.0214,0.0215,0,20,20,80,1,fivesix,,,,,,,,,,,,,,,,,,,,,,,,,,,,,,,,,,,,,,,,,,,,,,,,,,,,,,,,,,,,,,,,,,,,,,,,,,,,,,,,,,,,,,,,,,,,,,,,,,,,,,,,,,,,,,,,,,,,,,,,,,,,,,,,,,,,,,,,,
,,60c0d16d73ec63ed0d8ffb2e,2024-02-19_04h07.55.347,kallum_motion_pilot,2023.2.2,Win32,59.88023952,60c0d16d73ec63ed0d8ffb2e,65d2b6c8f2eece985d8e374c,65d2b7e4021102d09219331a,0.0215,0.0215,0,21,21,68,1,threeone,,,,,,,,,,,,,,,,,,,,,,,,,,,,,,,,,,,,,,,,,,,,,,,,,,,,,,,,,,,,,,,,,,,,,,,,,,,,,,,,,,,,,,,,,,,,,,,,,,,,,,,,,,,,,,,,,,,,,,,,,,,,,,,,,,,,,,,,,
,,60c0d16d73ec63ed0d8ffb2e,2024-02-19_04h07.55.347,kallum_motion_pilot,2023.2.2,Win32,59.88023952,60c0d16d73ec63ed0d8ffb2e,65d2b6c8f2eece985d8e374c,65d2b7e4021102d09219331a,0.0216,0.0216,0,22,22,52,1,threeone,,,,,,,,,,,,,,,,,,,,,,,,,,,,,,,,,,,,,,,,,,,,,,,,,,,,,,,,,,,,,,,,,,,,,,,,,,,,,,,,,,,,,,,,,,,,,,,,,,,,,,,,,,,,,,,,,,,,,,,,,,,,,,,,,,,,,,,,,
,,60c0d16d73ec63ed0d8ffb2e,2024-02-19_04h07.55.347,kallum_motion_pilot,2023.2.2,Win32,59.88023952,60c0d16d73ec63ed0d8ffb2e,65d2b6c8f2eece985d8e374c,65d2b7e4021102d09219331a,0.0217,0.0217,0,23,23,95,1,eightseven,,,,,,,,,,,,,,,,,,,,,,,,,,,,,,,,,,,,,,,,,,,,,,,,,,,,,,,,,,,,,,,,,,,,,,,,,,,,,,,,,,,,,,,,,,,,,,,,,,,,,,,,,,,,,,,,,,,,,,,,,,,,,,,,,,,,,,,,,
,,60c0d16d73ec63ed0d8ffb2e,2024-02-19_04h07.55.347,kallum_motion_pilot,2023.2.2,Win32,59.88023952,60c0d16d73ec63ed0d8ffb2e,65d2b6c8f2eece985d8e374c,65d2b7e4021102d09219331a,0.0218,0.0218,0,24,24,86,1,eightsix,,,,,,,,,,,,,,,,,,,,,,,,,,,,,,,,,,,,,,,,,,,,,,,,,,,,,,,,,,,,,,,,,,,,,,,,,,,,,,,,,,,,,,,,,,,,,,,,,,,,,,,,,,,,,,,,,,,,,,,,,,,,,,,,,,,,,,,,,
,,60c0d16d73ec63ed0d8ffb2e,2024-02-19_04h07.55.347,kallum_motion_pilot,2023.2.2,Win32,59.88023952,60c0d16d73ec63ed0d8ffb2e,65d2b6c8f2eece985d8e374c,65d2b7e4021102d09219331a,0.0218,0.0219,0,25,25,132,1,sevenfive,,,,,,,,,,,,,,,,,,,,,,,,,,,,,,,,,,,,,,,,,,,,,,,,,,,,,,,,,,,,,,,,,,,,,,,,,,,,,,,,,,,,,,,,,,,,,,,,,,,,,,,,,,,,,,,,,,,,,,,,,,,,,,,,,,,,,,,,,
,,60c0d16d73ec63ed0d8ffb2e,2024-02-19_04h07.55.347,kallum_motion_pilot,2023.2.2,Win32,59.88023952,60c0d16d73ec63ed0d8ffb2e,65d2b6c8f2eece985d8e374c,65d2b7e4021102d09219331a,0.0219,0.0219,0,26,26,111,1,eightseven,,,,,,,,,,,,,,,,,,,,,,,,,,,,,,,,,,,,,,,,,,,,,,,,,,,,,,,,,,,,,,,,,,,,,,,,,,,,,,,,,,,,,,,,,,,,,,,,,,,,,,,,,,,,,,,,,,,,,,,,,,,,,,,,,,,,,,,,,
,,60c0d16d73ec63ed0d8ffb2e,2024-02-19_04h07.55.347,kallum_motion_pilot,2023.2.2,Win32,59.88023952,60c0d16d73ec63ed0d8ffb2e,65d2b6c8f2eece985d8e374c,65d2b7e4021102d09219331a,0.022,0.022,0,27,27,63,1,fourthree,,,,,,,,,,,,,,,,,,,,,,,,,,,,,,,,,,,,,,,,,,,,,,,,,,,,,,,,,,,,,,,,,,,,,,,,,,,,,,,,,,,,,,,,,,,,,,,,,,,,,,,,,,,,,,,,,,,,,,,,,,,,,,,,,,,,,,,,,
,,60c0d16d73ec63ed0d8ffb2e,2024-02-19_04h07.55.347,kallum_motion_pilot,2023.2.2,Win32,59.88023952,60c0d16d73ec63ed0d8ffb2e,65d2b6c8f2eece985d8e374c,65d2b7e4021102d09219331a,0.022,0.022,0,28,28,27,1,twofour,,,,,,,,,,,,,,,,,,,,,,,,,,,,,,,,,,,,,,,,,,,,,,,,,,,,,,,,,,,,,,,,,,,,,,,,,,,,,,,,,,,,,,,,,,,,,,,,,,,,,,,,,,,,,,,,,,,,,,,,,,,,,,,,,,,,,,,,,
,,60c0d16d73ec63ed0d8ffb2e,2024-02-19_04h07.55.347,kallum_motion_pilot,2023.2.2,Win32,59.88023952,60c0d16d73ec63ed0d8ffb2e,65d2b6c8f2eece985d8e374c,65d2b7e4021102d09219331a,0.0221,0.0221,0,29,29,19,1,twofour,,,,,,,,,,,,,,,,,,,,,,,,,,,,,,,,,,,,,,,,,,,,,,,,,,,,,,,,,,,,,,,,,,,,,,,,,,,,,,,,,,,,,,,,,,,,,,,,,,,,,,,,,,,,,,,,,,,,,,,,,,,,,,,,,,,,,,,,,
,,60c0d16d73ec63ed0d8ffb2e,2024-02-19_04h07.55.347,kallum_motion_pilot,2023.2.2,Win32,59.88023952,60c0d16d73ec63ed0d8ffb2e,65d2b6c8f2eece985d8e374c,65d2b7e4021102d09219331a,0.0222,0.0222,0,30,30,91,1,sixeight,,,,,,,,,,,,,,,,,,,,,,,,,,,,,,,,,,,,,,,,,,,,,,,,,,,,,,,,,,,,,,,,,,,,,,,,,,,,,,,,,,,,,,,,,,,,,,,,,,,,,,,,,,,,,,,,,,,,,,,,,,,,,,,,,,,,,,,,,
,,60c0d16d73ec63ed0d8ffb2e,2024-02-19_04h07.55.347,kallum_motion_pilot,2023.2.2,Win32,59.88023952,60c0d16d73ec63ed0d8ffb2e,65d2b6c8f2eece985d8e374c,65d2b7e4021102d09219331a,0.0222,0.0222,0,31,31,40,1,onetwo,,,,,,,,,,,,,,,,,,,,,,,,,,,,,,,,,,,,,,,,,,,,,,,,,,,,,,,,,,,,,,,,,,,,,,,,,,,,,,,,,,,,,,,,,,,,,,,,,,,,,,,,,,,,,,,,,,,,,,,,,,,,,,,,,,,,,,,,,
,,60c0d16d73ec63ed0d8ffb2e,2024-02-19_04h07.55.347,kallum_motion_pilot,2023.2.2,Win32,59.88023952,60c0d16d73ec63ed0d8ffb2e,65d2b6c8f2eece985d8e374c,65d2b7e4021102d09219331a,0.0223,0.0223,0,32,32,155,1,sixeight,,,,,,,,,,,,,,,,,,,,,,,,,,,,,,,,,,,,,,,,,,,,,,,,,,,,,,,,,,,,,,,,,,,,,,,,,,,,,,,,,,,,,,,,,,,,,,,,,,,,,,,,,,,,,,,,,,,,,,,,,,,,,,,,,,,,,,,,,
,,60c0d16d73ec63ed0d8ffb2e,2024-02-19_04h07.55.347,kallum_motion_pilot,2023.2.2,Win32,59.88023952,60c0d16d73ec63ed0d8ffb2e,65d2b6c8f2eece985d8e374c,65d2b7e4021102d09219331a,0.0224,0.0224,0,33,33,62,1,fourtwo,,,,,,,,,,,,,,,,,,,,,,,,,,,,,,,,,,,,,,,,,,,,,,,,,,,,,,,,,,,,,,,,,,,,,,,,,,,,,,,,,,,,,,,,,,,,,,,,,,,,,,,,,,,,,,,,,,,,,,,,,,,,,,,,,,,,,,,,,
,,60c0d16d73ec63ed0d8ffb2e,2024-02-19_04h07.55.347,kallum_motion_pilot,2023.2.2,Win32,59.88023952,60c0d16d73ec63ed0d8ffb2e,65d2b6c8f2eece985d8e374c,65d2b7e4021102d09219331a,0.0225,0.0225,0,34,34,82,1,sixfive,,,,,,,,,,,,,,,,,,,,,,,,,,,,,,,,,,,,,,,,,,,,,,,,,,,,,,,,,,,,,,,,,,,,,,,,,,,,,,,,,,,,,,,,,,,,,,,,,,,,,,,,,,,,,,,,,,,,,,,,,,,,,,,,,,,,,,,,,
,,60c0d16d73ec63ed0d8ffb2e,2024-02-19_04h07.55.347,kallum_motion_pilot,2023.2.2,Win32,59.88023952,60c0d16d73ec63ed0d8ffb2e,65d2b6c8f2eece985d8e374c,65d2b7e4021102d09219331a,0.0225,0.0226,0,35,35,67,1,twofour,,,,,,,,,,,,,,,,,,,,,,,,,,,,,,,,,,,,,,,,,,,,,,,,,,,,,,,,,,,,,,,,,,,,,,,,,,,,,,,,,,,,,,,,,,,,,,,,,,,,,,,,,,,,,,,,,,,,,,,,,,,,,,,,,,,,,,,,,
,,60c0d16d73ec63ed0d8ffb2e,2024-02-19_04h07.55.347,kallum_motion_pilot,2023.2.2,Win32,59.88023952,60c0d16d73ec63ed0d8ffb2e,65d2b6c8f2eece985d8e374c,65d2b7e4021102d09219331a,0.0226,0.0226,0,36,36,44,1,threeone,,,,,,,,,,,,,,,,,,,,,,,,,,,,,,,,,,,,,,,,,,,,,,,,,,,,,,,,,,,,,,,,,,,,,,,,,,,,,,,,,,,,,,,,,,,,,,,,,,,,,,,,,,,,,,,,,,,,,,,,,,,,,,,,,,,,,,,,,
,,60c0d16d73ec63ed0d8ffb2e,2024-02-19_04h07.55.347,kallum_motion_pilot,2023.2.2,Win32,59.88023952,60c0d16d73ec63ed0d8ffb2e,65d2b6c8f2eece985d8e374c,65d2b7e4021102d09219331a,0.0226,0.0226,0,37,37,76,1,threeone,,,,,,,,,,,,,,,,,,,,,,,,,,,,,,,,,,,,,,,,,,,,,,,,,,,,,,,,,,,,,,,,,,,,,,,,,,,,,,,,,,,,,,,,,,,,,,,,,,,,,,,,,,,,,,,,,,,,,,,,,,,,,,,,,,,,,,,,,
,,60c0d16d73ec63ed0d8ffb2e,2024-02-19_04h07.55.347,kallum_motion_pilot,2023.2.2,Win32,59.88023952,60c0d16d73ec63ed0d8ffb2e,65d2b6c8f2eece985d8e374c,65d2b7e4021102d09219331a,0.0227,0.0228,0,38,38,96,1,fivesix,,,,,,,,,,,,,,,,,,,,,,,,,,,,,,,,,,,,,,,,,,,,,,,,,,,,,,,,,,,,,,,,,,,,,,,,,,,,,,,,,,,,,,,,,,,,,,,,,,,,,,,,,,,,,,,,,,,,,,,,,,,,,,,,,,,,,,,,,
,,60c0d16d73ec63ed0d8ffb2e,2024-02-19_04h07.55.347,kallum_motion_pilot,2023.2.2,Win32,59.88023952,60c0d16d73ec63ed0d8ffb2e,65d2b6c8f2eece985d8e374c,65d2b7e4021102d09219331a,0.0229,0.0229,0,39,39,105,1,fiveseven,,,,,,,,,,,,,,,,,,,,,,,,,,,,,,,,,,,,,,,,,,,,,,,,,,,,,,,,,,,,,,,,,,,,,,,,,,,,,,,,,,,,,,,,,,,,,,,,,,,,,,,,,,,,,,,,,,,,,,,,,,,,,,,,,,,,,,,,,
,,60c0d16d73ec63ed0d8ffb2e,2024-02-19_04h07.55.347,kallum_motion_pilot,2023.2.2,Win32,59.88023952,60c0d16d73ec63ed0d8ffb2e,65d2b6c8f2eece985d8e374c,65d2b7e4021102d09219331a,0.023,0.0231,0,40,40,65,1,onethree,,,,,,,,,,,,,,,,,,,,,,,,,,,,,,,,,,,,,,,,,,,,,,,,,,,,,,,,,,,,,,,,,,,,,,,,,,,,,,,,,,,,,,,,,,,,,,,,,,,,,,,,,,,,,,,,,,,,,,,,,,,,,,,,,,,,,,,,,
,,60c0d16d73ec63ed0d8ffb2e,2024-02-19_04h07.55.347,kallum_motion_pilot,2023.2.2,Win32,59.88023952,60c0d16d73ec63ed0d8ffb2e,65d2b6c8f2eece985d8e374c,65d2b7e4021102d09219331a,0.0232,0.0232,0,41,41,46,1,fourtwo,,,,,,,,,,,,,,,,,,,,,,,,,,,,,,,,,,,,,,,,,,,,,,,,,,,,,,,,,,,,,,,,,,,,,,,,,,,,,,,,,,,,,,,,,,,,,,,,,,,,,,,,,,,,,,,,,,,,,,,,,,,,,,,,,,,,,,,,,
,,60c0d16d73ec63ed0d8ffb2e,2024-02-19_04h07.55.347,kallum_motion_pilot,2023.2.2,Win32,59.88023952,60c0d16d73ec63ed0d8ffb2e,65d2b6c8f2eece985d8e374c,65d2b7e4021102d09219331a,0.0233,0.0234,0,42,42,12,1,threeone,,,,,,,,,,,,,,,,,,,,,,,,,,,,,,,,,,,,,,,,,,,,,,,,,,,,,,,,,,,,,,,,,,,,,,,,,,,,,,,,,,,,,,,,,,,,,,,,,,,,,,,,,,,,,,,,,,,,,,,,,,,,,,,,,,,,,,,,,
,,60c0d16d73ec63ed0d8ffb2e,2024-02-19_04h07.55.347,kallum_motion_pilot,2023.2.2,Win32,59.88023952,60c0d16d73ec63ed0d8ffb2e,65d2b6c8f2eece985d8e374c,65d2b7e4021102d09219331a,0.0235,0.0235,0,43,43,48,1,onetwo,,,,,,,,,,,,,,,,,,,,,,,,,,,,,,,,,,,,,,,,,,,,,,,,,,,,,,,,,,,,,,,,,,,,,,,,,,,,,,,,,,,,,,,,,,,,,,,,,,,,,,,,,,,,,,,,,,,,,,,,,,,,,,,,,,,,,,,,,
,,60c0d16d73ec63ed0d8ffb2e,2024-02-19_04h07.55.347,kallum_motion_pilot,2023.2.2,Win32,59.88023952,60c0d16d73ec63ed0d8ffb2e,65d2b6c8f2eece985d8e374c,65d2b7e4021102d09219331a,0.0236,0.0236,0,44,44,150,1,eightsix,,,,,,,,,,,,,,,,,,,,,,,,,,,,,,,,,,,,,,,,,,,,,,,,,,,,,,,,,,,,,,,,,,,,,,,,,,,,,,,,,,,,,,,,,,,,,,,,,,,,,,,,,,,,,,,,,,,,,,,,,,,,,,,,,,,,,,,,,
,,60c0d16d73ec63ed0d8ffb2e,2024-02-19_04h07.55.347,kallum_motion_pilot,2023.2.2,Win32,59.88023952,60c0d16d73ec63ed0d8ffb2e,65d2b6c8f2eece985d8e374c,65d2b7e4021102d09219331a,0.0238,0.0238,0,45,45,10,1,twoone,,,,,,,,,,,,,,,,,,,,,,,,,,,,,,,,,,,,,,,,,,,,,,,,,,,,,,,,,,,,,,,,,,,,,,,,,,,,,,,,,,,,,,,,,,,,,,,,,,,,,,,,,,,,,,,,,,,,,,,,,,,,,,,,,,,,,,,,,
,,60c0d16d73ec63ed0d8ffb2e,2024-02-19_04h07.55.347,kallum_motion_pilot,2023.2.2,Win32,59.88023952,60c0d16d73ec63ed0d8ffb2e,65d2b6c8f2eece985d8e374c,65d2b7e4021102d09219331a,0.0238,0.0239,0,46,46,134,1,eightsix,,,,,,,,,,,,,,,,,,,,,,,,,,,,,,,,,,,,,,,,,,,,,,,,,,,,,,,,,,,,,,,,,,,,,,,,,,,,,,,,,,,,,,,,,,,,,,,,,,,,,,,,,,,,,,,,,,,,,,,,,,,,,,,,,,,,,,,,,
,,60c0d16d73ec63ed0d8ffb2e,2024-02-19_04h07.55.347,kallum_motion_pilot,2023.2.2,Win32,59.88023952,60c0d16d73ec63ed0d8ffb2e,65d2b6c8f2eece985d8e374c,65d2b7e4021102d09219331a,0.024,0.024,0,47,47,108,1,sevenfive,,,,,,,,,,,,,,,,,,,,,,,,,,,,,,,,,,,,,,,,,,,,,,,,,,,,,,,,,,,,,,,,,,,,,,,,,,,,,,,,,,,,,,,,,,,,,,,,,,,,,,,,,,,,,,,,,,,,,,,,,,,,,,,,,,,,,,,,,
,,60c0d16d73ec63ed0d8ffb2e,2024-02-19_04h07.55.347,kallum_motion_pilot,2023.2.2,Win32,59.88023952,60c0d16d73ec63ed0d8ffb2e,65d2b6c8f2eece985d8e374c,65d2b7e4021102d09219331a,0.024,0.024,0,48,48,124,1,sevenfive,,,,,,,,,,,,,,,,,,,,,,,,,,,,,,,,,,,,,,,,,,,,,,,,,,,,,,,,,,,,,,,,,,,,,,,,,,,,,,,,,,,,,,,,,,,,,,,,,,,,,,,,,,,,,,,,,,,,,,,,,,,,,,,,,,,,,,,,,
,,60c0d16d73ec63ed0d8ffb2e,2024-02-19_04h07.55.347,kallum_motion_pilot,2023.2.2,Win32,59.88023952,60c0d16d73ec63ed0d8ffb2e,65d2b6c8f2eece985d8e374c,65d2b7e4021102d09219331a,0.0241,0.0242,0,49,49,90,1,sixfive,,,,,,,,,,,,,,,,,,,,,,,,,,,,,,,,,,,,,,,,,,,,,,,,,,,,,,,,,,,,,,,,,,,,,,,,,,,,,,,,,,,,,,,,,,,,,,,,,,,,,,,,,,,,,,,,,,,,,,,,,,,,,,,,,,,,,,,,,
,,60c0d16d73ec63ed0d8ffb2e,2024-02-19_04h07.55.347,kallum_motion_pilot,2023.2.2,Win32,59.88023952,60c0d16d73ec63ed0d8ffb2e,65d2b6c8f2eece985d8e374c,65d2b7e4021102d09219331a,0.0243,0.0243,0,50,50,128,1,fivesix,,,,,,,,,,,,,,,,,,,,,,,,,,,,,,,,,,,,,,,,,,,,,,,,,,,,,,,,,,,,,,,,,,,,,,,,,,,,,,,,,,,,,,,,,,,,,,,,,,,,,,,,,,,,,,,,,,,,,,,,,,,,,,,,,,,,,,,,,
,,60c0d16d73ec63ed0d8ffb2e,2024-02-19_04h07.55.347,kallum_motion_pilot,2023.2.2,Win32,59.88023952,60c0d16d73ec63ed0d8ffb2e,65d2b6c8f2eece985d8e374c,65d2b7e4021102d09219331a,0.0244,0.0244,0,51,51,98,1,sixfive,,,,,,,,,,,,,,,,,,,,,,,,,,,,,,,,,,,,,,,,,,,,,,,,,,,,,,,,,,,,,,,,,,,,,,,,,,,,,,,,,,,,,,,,,,,,,,,,,,,,,,,,,,,,,,,,,,,,,,,,,,,,,,,,,,,,,,,,,
,,60c0d16d73ec63ed0d8ffb2e,2024-02-19_04h07.55.347,kallum_motion_pilot,2023.2.2,Win32,59.88023952,60c0d16d73ec63ed0d8ffb2e,65d2b6c8f2eece985d8e374c,65d2b7e4021102d09219331a,0.0245,0.0246,0,52,52,101,1,seveneight,,,,,,,,,,,,,,,,,,,,,,,,,,,,,,,,,,,,,,,,,,,,,,,,,,,,,,,,,,,,,,,,,,,,,,,,,,,,,,,,,,,,,,,,,,,,,,,,,,,,,,,,,,,,,,,,,,,,,,,,,,,,,,,,,,,,,,,,,
,,60c0d16d73ec63ed0d8ffb2e,2024-02-19_04h07.55.347,kallum_motion_pilot,2023.2.2,Win32,59.88023952,60c0d16d73ec63ed0d8ffb2e,65d2b6c8f2eece985d8e374c,65d2b7e4021102d09219331a,0.0247,0.0247,0,53,53,81,1,fiveseven,,,,,,,,,,,,,,,,,,,,,,,,,,,,,,,,,,,,,,,,,,,,,,,,,,,,,,,,,,,,,,,,,,,,,,,,,,,,,,,,,,,,,,,,,,,,,,,,,,,,,,,,,,,,,,,,,,,,,,,,,,,,,,,,,,,,,,,,,
,,60c0d16d73ec63ed0d8ffb2e,2024-02-19_04h07.55.347,kallum_motion_pilot,2023.2.2,Win32,59.88023952,60c0d16d73ec63ed0d8ffb2e,65d2b6c8f2eece985d8e374c,65d2b7e4021102d09219331a,0.0248,0.0249,0,54,54,159,1,eightseven,,,,,,,,,,,,,,,,,,,,,,,,,,,,,,,,,,,,,,,,,,,,,,,,,,,,,,,,,,,,,,,,,,,,,,,,,,,,,,,,,,,,,,,,,,,,,,,,,,,,,,,,,,,,,,,,,,,,,,,,,,,,,,,,,,,,,,,,,
,,60c0d16d73ec63ed0d8ffb2e,2024-02-19_04h07.55.347,kallum_motion_pilot,2023.2.2,Win32,59.88023952,60c0d16d73ec63ed0d8ffb2e,65d2b6c8f2eece985d8e374c,65d2b7e4021102d09219331a,0.0249,0.0259,0,55,55,123,1,sixeight,,,,,,,,,,,,,,,,,,,,,,,,,,,,,,,,,,,,,,,,,,,,,,,,,,,,,,,,,,,,,,,,,,,,,,,,,,,,,,,,,,,,,,,,,,,,,,,,,,,,,,,,,,,,,,,,,,,,,,,,,,,,,,,,,,,,,,,,,
,,60c0d16d73ec63ed0d8ffb2e,2024-02-19_04h07.55.347,kallum_motion_pilot,2023.2.2,Win32,59.88023952,60c0d16d73ec63ed0d8ffb2e,65d2b6c8f2eece985d8e374c,65d2b7e4021102d09219331a,0.026,0.0261,0,56,56,39,1,fourthree,,,,,,,,,,,,,,,,,,,,,,,,,,,,,,,,,,,,,,,,,,,,,,,,,,,,,,,,,,,,,,,,,,,,,,,,,,,,,,,,,,,,,,,,,,,,,,,,,,,,,,,,,,,,,,,,,,,,,,,,,,,,,,,,,,,,,,,,,
,,60c0d16d73ec63ed0d8ffb2e,2024-02-19_04h07.55.347,kallum_motion_pilot,2023.2.2,Win32,59.88023952,60c0d16d73ec63ed0d8ffb2e,65d2b6c8f2eece985d8e374c,65d2b7e4021102d09219331a,0.0261,0.0261,0,57,57,29,1,threefour,,,,,,,,,,,,,,,,,,,,,,,,,,,,,,,,,,,,,,,,,,,,,,,,,,,,,,,,,,,,,,,,,,,,,,,,,,,,,,,,,,,,,,,,,,,,,,,,,,,,,,,,,,,,,,,,,,,,,,,,,,,,,,,,,,,,,,,,,
,,60c0d16d73ec63ed0d8ffb2e,2024-02-19_04h07.55.347,kallum_motion_pilot,2023.2.2,Win32,59.88023952,60c0d16d73ec63ed0d8ffb2e,65d2b6c8f2eece985d8e374c,65d2b7e4021102d09219331a,0.0262,0.0262,0,58,58,109,1,seveneight,,,,,,,,,,,,,,,,,,,,,,,,,,,,,,,,,,,,,,,,,,,,,,,,,,,,,,,,,,,,,,,,,,,,,,,,,,,,,,,,,,,,,,,,,,,,,,,,,,,,,,,,,,,,,,,,,,,,,,,,,,,,,,,,,,,,,,,,,
,,60c0d16d73ec63ed0d8ffb2e,2024-02-19_04h07.55.347,kallum_motion_pilot,2023.2.2,Win32,59.88023952,60c0d16d73ec63ed0d8ffb2e,65d2b6c8f2eece985d8e374c,65d2b7e4021102d09219331a,0.0263,0.0263,0,59,59,74,1,twoone,,,,,,,,,,,,,,,,,,,,,,,,,,,,,,,,,,,,,,,,,,,,,,,,,,,,,,,,,,,,,,,,,,,,,,,,,,,,,,,,,,,,,,,,,,,,,,,,,,,,,,,,,,,,,,,,,,,,,,,,,,,,,,,,,,,,,,,,,
,,60c0d16d73ec63ed0d8ffb2e,2024-02-19_04h07.55.347,kallum_motion_pilot,2023.2.2,Win32,59.88023952,60c0d16d73ec63ed0d8ffb2e,65d2b6c8f2eece985d8e374c,65d2b7e4021102d09219331a,0.0265,0.0265,0,60,60,92,1,sevenfive,,,,,,,,,,,,,,,,,,,,,,,,,,,,,,,,,,,,,,,,,,,,,,,,,,,,,,,,,,,,,,,,,,,,,,,,,,,,,,,,,,,,,,,,,,,,,,,,,,,,,,,,,,,,,,,,,,,,,,,,,,,,,,,,,,,,,,,,,
,,60c0d16d73ec63ed0d8ffb2e,2024-02-19_04h07.55.347,kallum_motion_pilot,2023.2.2,Win32,59.88023952,60c0d16d73ec63ed0d8ffb2e,65d2b6c8f2eece985d8e374c,65d2b7e4021102d09219331a,0.0266,0.0266,0,61,61,103,1,eightseven,,,,,,,,,,,,,,,,,,,,,,,,,,,,,,,,,,,,,,,,,,,,,,,,,,,,,,,,,,,,,,,,,,,,,,,,,,,,,,,,,,,,,,,,,,,,,,,,,,,,,,,,,,,,,,,,,,,,,,,,,,,,,,,,,,,,,,,,,
,,60c0d16d73ec63ed0d8ffb2e,2024-02-19_04h07.55.347,kallum_motion_pilot,2023.2.2,Win32,59.88023952,60c0d16d73ec63ed0d8ffb2e,65d2b6c8f2eece985d8e374c,65d2b7e4021102d09219331a,0.0267,0.0268,0,62,62,66,1,twoone,,,,,,,,,,,,,,,,,,,,,,,,,,,,,,,,,,,,,,,,,,,,,,,,,,,,,,,,,,,,,,,,,,,,,,,,,,,,,,,,,,,,,,,,,,,,,,,,,,,,,,,,,,,,,,,,,,,,,,,,,,,,,,,,,,,,,,,,,
,,60c0d16d73ec63ed0d8ffb2e,2024-02-19_04h07.55.347,kallum_motion_pilot,2023.2.2,Win32,59.88023952,60c0d16d73ec63ed0d8ffb2e,65d2b6c8f2eece985d8e374c,65d2b7e4021102d09219331a,0.0268,0.0269,0,63,63,2,1,twoone,,,,,,,,,,,,,,,,,,,,,,,,,,,,,,,,,,,,,,,,,,,,,,,,,,,,,,,,,,,,,,,,,,,,,,,,,,,,,,,,,,,,,,,,,,,,,,,,,,,,,,,,,,,,,,,,,,,,,,,,,,,,,,,,,,,,,,,,,
,,60c0d16d73ec63ed0d8ffb2e,2024-02-19_04h07.55.347,kallum_motion_pilot,2023.2.2,Win32,59.88023952,60c0d16d73ec63ed0d8ffb2e,65d2b6c8f2eece985d8e374c,65d2b7e4021102d09219331a,0.027,0.0271,0,64,64,102,1,eightsix,,,,,,,,,,,,,,,,,,,,,,,,,,,,,,,,,,,,,,,,,,,,,,,,,,,,,,,,,,,,,,,,,,,,,,,,,,,,,,,,,,,,,,,,,,,,,,,,,,,,,,,,,,,,,,,,,,,,,,,,,,,,,,,,,,,,,,,,,
,,60c0d16d73ec63ed0d8ffb2e,2024-02-19_04h07.55.347,kallum_motion_pilot,2023.2.2,Win32,59.88023952,60c0d16d73ec63ed0d8ffb2e,65d2b6c8f2eece985d8e374c,65d2b7e4021102d09219331a,0.0272,0.0272,0,65,65,17,1,onethree,,,,,,,,,,,,,,,,,,,,,,,,,,,,,,,,,,,,,,,,,,,,,,,,,,,,,,,,,,,,,,,,,,,,,,,,,,,,,,,,,,,,,,,,,,,,,,,,,,,,,,,,,,,,,,,,,,,,,,,,,,,,,,,,,,,,,,,,,
,,60c0d16d73ec63ed0d8ffb2e,2024-02-19_04h07.55.347,kallum_motion_pilot,2023.2.2,Win32,59.88023952,60c0d16d73ec63ed0d8ffb2e,65d2b6c8f2eece985d8e374c,65d2b7e4021102d09219331a,0.0273,0.0274,0,66,66,38,1,fourtwo,,,,,,,,,,,,,,,,,,,,,,,,,,,,,,,,,,,,,,,,,,,,,,,,,,,,,,,,,,,,,,,,,,,,,,,,,,,,,,,,,,,,,,,,,,,,,,,,,,,,,,,,,,,,,,,,,,,,,,,,,,,,,,,,,,,,,,,,,
,,60c0d16d73ec63ed0d8ffb2e,2024-02-19_04h07.55.347,kallum_motion_pilot,2023.2.2,Win32,59.88023952,60c0d16d73ec63ed0d8ffb2e,65d2b6c8f2eece985d8e374c,65d2b7e4021102d09219331a,0.0274,0.0275,0,67,67,85,1,seveneight,,,,,,,,,,,,,,,,,,,,,,,,,,,,,,,,,,,,,,,,,,,,,,,,,,,,,,,,,,,,,,,,,,,,,,,,,,,,,,,,,,,,,,,,,,,,,,,,,,,,,,,,,,,,,,,,,,,,,,,,,,,,,,,,,,,,,,,,,
,,60c0d16d73ec63ed0d8ffb2e,2024-02-19_04h07.55.347,kallum_motion_pilot,2023.2.2,Win32,59.88023952,60c0d16d73ec63ed0d8ffb2e,65d2b6c8f2eece985d8e374c,65d2b7e4021102d09219331a,0.0275,0.0277,0,68,68,32,1,onetwo,,,,,,,,,,,,,,,,,,,,,,,,,,,,,,,,,,,,,,,,,,,,,,,,,,,,,,,,,,,,,,,,,,,,,,,,,,,,,,,,,,,,,,,,,,,,,,,,,,,,,,,,,,,,,,,,,,,,,,,,,,,,,,,,,,,,,,,,,
,,60c0d16d73ec63ed0d8ffb2e,2024-02-19_04h07.55.347,kallum_motion_pilot,2023.2.2,Win32,59.88023952,60c0d16d73ec63ed0d8ffb2e,65d2b6c8f2eece985d8e374c,65d2b7e4021102d09219331a,0.0279,0.028,0,69,69,141,1,seveneight,,,,,,,,,,,,,,,,,,,,,,,,,,,,,,,,,,,,,,,,,,,,,,,,,,,,,,,,,,,,,,,,,,,,,,,,,,,,,,,,,,,,,,,,,,,,,,,,,,,,,,,,,,,,,,,,,,,,,,,,,,,,,,,,,,,,,,,,,
,,60c0d16d73ec63ed0d8ffb2e,2024-02-19_04h07.55.347,kallum_motion_pilot,2023.2.2,Win32,59.88023952,60c0d16d73ec63ed0d8ffb2e,65d2b6c8f2eece985d8e374c,65d2b7e4021102d09219331a,0.0281,0.0281,0,70,70,51,1,twofour,,,,,,,,,,,,,,,,,,,,,,,,,,,,,,,,,,,,,,,,,,,,,,,,,,,,,,,,,,,,,,,,,,,,,,,,,,,,,,,,,,,,,,,,,,,,,,,,,,,,,,,,,,,,,,,,,,,,,,,,,,,,,,,,,,,,,,,,,
,,60c0d16d73ec63ed0d8ffb2e,2024-02-19_04h07.55.347,kallum_motion_pilot,2023.2.2,Win32,59.88023952,60c0d16d73ec63ed0d8ffb2e,65d2b6c8f2eece985d8e374c,65d2b7e4021102d09219331a,0.0283,0.0284,0,71,71,158,1,eightsix,,,,,,,,,,,,,,,,,,,,,,,,,,,,,,,,,,,,,,,,,,,,,,,,,,,,,,,,,,,,,,,,,,,,,,,,,,,,,,,,,,,,,,,,,,,,,,,,,,,,,,,,,,,,,,,,,,,,,,,,,,,,,,,,,,,,,,,,,
,,60c0d16d73ec63ed0d8ffb2e,2024-02-19_04h07.55.347,kallum_motion_pilot,2023.2.2,Win32,59.88023952,60c0d16d73ec63ed0d8ffb2e,65d2b6c8f2eece985d8e374c,65d2b7e4021102d09219331a,0.0286,0.0286,0,72,72,36,1,threeone,,,,,,,,,,,,,,,,,,,,,,,,,,,,,,,,,,,,,,,,,,,,,,,,,,,,,,,,,,,,,,,,,,,,,,,,,,,,,,,,,,,,,,,,,,,,,,,,,,,,,,,,,,,,,,,,,,,,,,,,,,,,,,,,,,,,,,,,,
,,60c0d16d73ec63ed0d8ffb2e,2024-02-19_04h07.55.347,kallum_motion_pilot,2023.2.2,Win32,59.88023952,60c0d16d73ec63ed0d8ffb2e,65d2b6c8f2eece985d8e374c,65d2b7e4021102d09219331a,0.0288,0.0289,0,73,73,37,1,threefour,,,,,,,,,,,,,,,,,,,,,,,,,,,,,,,,,,,,,,,,,,,,,,,,,,,,,,,,,,,,,,,,,,,,,,,,,,,,,,,,,,,,,,,,,,,,,,,,,,,,,,,,,,,,,,,,,,,,,,,,,,,,,,,,,,,,,,,,,
,,60c0d16d73ec63ed0d8ffb2e,2024-02-19_04h07.55.347,kallum_motion_pilot,2023.2.2,Win32,59.88023952,60c0d16d73ec63ed0d8ffb2e,65d2b6c8f2eece985d8e374c,65d2b7e4021102d09219331a,0.029,0.029,0,74,74,49,1,onethree,,,,,,,,,,,,,,,,,,,,,,,,,,,,,,,,,,,,,,,,,,,,,,,,,,,,,,,,,,,,,,,,,,,,,,,,,,,,,,,,,,,,,,,,,,,,,,,,,,,,,,,,,,,,,,,,,,,,,,,,,,,,,,,,,,,,,,,,,
,,60c0d16d73ec63ed0d8ffb2e,2024-02-19_04h07.55.347,kallum_motion_pilot,2023.2.2,Win32,59.88023952,60c0d16d73ec63ed0d8ffb2e,65d2b6c8f2eece985d8e374c,65d2b7e4021102d09219331a,0.0292,0.0293,0,75,75,33,1,onethree,,,,,,,,,,,,,,,,,,,,,,,,,,,,,,,,,,,,,,,,,,,,,,,,,,,,,,,,,,,,,,,,,,,,,,,,,,,,,,,,,,,,,,,,,,,,,,,,,,,,,,,,,,,,,,,,,,,,,,,,,,,,,,,,,,,,,,,,,
,,60c0d16d73ec63ed0d8ffb2e,2024-02-19_04h07.55.347,kallum_motion_pilot,2023.2.2,Win32,59.88023952,60c0d16d73ec63ed0d8ffb2e,65d2b6c8f2eece985d8e374c,65d2b7e4021102d09219331a,0.0294,0.0294,0,76,76,42,1,twoone,,,,,,,,,,,,,,,,,,,,,,,,,,,,,,,,,,,,,,,,,,,,,,,,,,,,,,,,,,,,,,,,,,,,,,,,,,,,,,,,,,,,,,,,,,,,,,,,,,,,,,,,,,,,,,,,,,,,,,,,,,,,,,,,,,,,,,,,,
,,60c0d16d73ec63ed0d8ffb2e,2024-02-19_04h07.55.347,kallum_motion_pilot,2023.2.2,Win32,59.88023952,60c0d16d73ec63ed0d8ffb2e,65d2b6c8f2eece985d8e374c,65d2b7e4021102d09219331a,0.0296,0.0297,0,77,77,148,1,sevenfive,,,,,,,,,,,,,,,,,,,,,,,,,,,,,,,,,,,,,,,,,,,,,,,,,,,,,,,,,,,,,,,,,,,,,,,,,,,,,,,,,,,,,,,,,,,,,,,,,,,,,,,,,,,,,,,,,,,,,,,,,,,,,,,,,,,,,,,,,
,,60c0d16d73ec63ed0d8ffb2e,2024-02-19_04h07.55.347,kallum_motion_pilot,2023.2.2,Win32,59.88023952,60c0d16d73ec63ed0d8ffb2e,65d2b6c8f2eece985d8e374c,65d2b7e4021102d09219331a,0.03,0.0301,0,78,78,54,1,fourtwo,,,,,,,,,,,,,,,,,,,,,,,,,,,,,,,,,,,,,,,,,,,,,,,,,,,,,,,,,,,,,,,,,,,,,,,,,,,,,,,,,,,,,,,,,,,,,,,,,,,,,,,,,,,,,,,,,,,,,,,,,,,,,,,,,,,,,,,,,
,,60c0d16d73ec63ed0d8ffb2e,2024-02-19_04h07.55.347,kallum_motion_pilot,2023.2.2,Win32,59.88023952,60c0d16d73ec63ed0d8ffb2e,65d2b6c8f2eece985d8e374c,65d2b7e4021102d09219331a,0.0305,0.0307,0,79,79,79,1,eightseven,,,,,,,,,,,,,,,,,,,,,,,,,,,,,,,,,,,,,,,,,,,,,,,,,,,,,,,,,,,,,,,,,,,,,,,,,,,,,,,,,,,,,,,,,,,,,,,,,,,,,,,,,,,,,,,,,,,,,,,,,,,,,,,,,,,,,,,,,
,,60c0d16d73ec63ed0d8ffb2e,2024-02-19_04h07.55.347,kallum_motion_pilot,2023.2.2,Win32,59.88023952,60c0d16d73ec63ed0d8ffb2e,65d2b6c8f2eece985d8e374c,65d2b7e4021102d09219331a,0.0308,0.0309,0,80,80,43,1,twofour,,,,,,,,,,,,,,,,,,,,,,,,,,,,,,,,,,,,,,,,,,,,,,,,,,,,,,,,,,,,,,,,,,,,,,,,,,,,,,,,,,,,,,,,,,,,,,,,,,,,,,,,,,,,,,,,,,,,,,,,,,,,,,,,,,,,,,,,,
,,60c0d16d73ec63ed0d8ffb2e,2024-02-19_04h07.55.347,kallum_motion_pilot,2023.2.2,Win32,59.88023952,60c0d16d73ec63ed0d8ffb2e,65d2b6c8f2eece985d8e374c,65d2b7e4021102d09219331a,0.0309,0.031,0,81,81,15,1,fourthree,,,,,,,,,,,,,,,,,,,,,,,,,,,,,,,,,,,,,,,,,,,,,,,,,,,,,,,,,,,,,,,,,,,,,,,,,,,,,,,,,,,,,,,,,,,,,,,,,,,,,,,,,,,,,,,,,,,,,,,,,,,,,,,,,,,,,,,,,
,,60c0d16d73ec63ed0d8ffb2e,2024-02-19_04h07.55.347,kallum_motion_pilot,2023.2.2,Win32,59.88023952,60c0d16d73ec63ed0d8ffb2e,65d2b6c8f2eece985d8e374c,65d2b7e4021102d09219331a,0.0311,0.0311,0,82,82,136,1,fivesix,,,,,,,,,,,,,,,,,,,,,,,,,,,,,,,,,,,,,,,,,,,,,,,,,,,,,,,,,,,,,,,,,,,,,,,,,,,,,,,,,,,,,,,,,,,,,,,,,,,,,,,,,,,,,,,,,,,,,,,,,,,,,,,,,,,,,,,,,
,,60c0d16d73ec63ed0d8ffb2e,2024-02-19_04h07.55.347,kallum_motion_pilot,2023.2.2,Win32,59.88023952,60c0d16d73ec63ed0d8ffb2e,65d2b6c8f2eece985d8e374c,65d2b7e4021102d09219331a,0.0313,0.0313,0,83,83,161,1,fiveseven,,,,,,,,,,,,,,,,,,,,,,,,,,,,,,,,,,,,,,,,,,,,,,,,,,,,,,,,,,,,,,,,,,,,,,,,,,,,,,,,,,,,,,,,,,,,,,,,,,,,,,,,,,,,,,,,,,,,,,,,,,,,,,,,,,,,,,,,,
,,60c0d16d73ec63ed0d8ffb2e,2024-02-19_04h07.55.347,kallum_motion_pilot,2023.2.2,Win32,59.88023952,60c0d16d73ec63ed0d8ffb2e,65d2b6c8f2eece985d8e374c,65d2b7e4021102d09219331a,0.0313,0.0314,0,84,84,31,1,fourthree,,,,,,,,,,,,,,,,,,,,,,,,,,,,,,,,,,,,,,,,,,,,,,,,,,,,,,,,,,,,,,,,,,,,,,,,,,,,,,,,,,,,,,,,,,,,,,,,,,,,,,,,,,,,,,,,,,,,,,,,,,,,,,,,,,,,,,,,,
,,60c0d16d73ec63ed0d8ffb2e,2024-02-19_04h07.55.347,kallum_motion_pilot,2023.2.2,Win32,59.88023952,60c0d16d73ec63ed0d8ffb2e,65d2b6c8f2eece985d8e374c,65d2b7e4021102d09219331a,0.0314,0.0315,0,85,85,100,1,sevenfive,,,,,,,,,,,,,,,,,,,,,,,,,,,,,,,,,,,,,,,,,,,,,,,,,,,,,,,,,,,,,,,,,,,,,,,,,,,,,,,,,,,,,,,,,,,,,,,,,,,,,,,,,,,,,,,,,,,,,,,,,,,,,,,,,,,,,,,,,
,,60c0d16d73ec63ed0d8ffb2e,2024-02-19_04h07.55.347,kallum_motion_pilot,2023.2.2,Win32,59.88023952,60c0d16d73ec63ed0d8ffb2e,65d2b6c8f2eece985d8e374c,65d2b7e4021102d09219331a,0.0316,0.0316,0,86,86,107,1,sixeight,,,,,,,,,,,,,,,,,,,,,,,,,,,,,,,,,,,,,,,,,,,,,,,,,,,,,,,,,,,,,,,,,,,,,,,,,,,,,,,,,,,,,,,,,,,,,,,,,,,,,,,,,,,,,,,,,,,,,,,,,,,,,,,,,,,,,,,,,
,,60c0d16d73ec63ed0d8ffb2e,2024-02-19_04h07.55.347,kallum_motion_pilot,2023.2.2,Win32,59.88023952,60c0d16d73ec63ed0d8ffb2e,65d2b6c8f2eece985d8e374c,65d2b7e4021102d09219331a,0.0317,0.0317,0,87,87,147,1,sixeight,,,,,,,,,,,,,,,,,,,,,,,,,,,,,,,,,,,,,,,,,,,,,,,,,,,,,,,,,,,,,,,,,,,,,,,,,,,,,,,,,,,,,,,,,,,,,,,,,,,,,,,,,,,,,,,,,,,,,,,,,,,,,,,,,,,,,,,,,
,,60c0d16d73ec63ed0d8ffb2e,2024-02-19_04h07.55.347,kallum_motion_pilot,2023.2.2,Win32,59.88023952,60c0d16d73ec63ed0d8ffb2e,65d2b6c8f2eece985d8e374c,65d2b7e4021102d09219331a,0.0318,0.0318,0,88,88,47,1,fourthree,,,,,,,,,,,,,,,,,,,,,,,,,,,,,,,,,,,,,,,,,,,,,,,,,,,,,,,,,,,,,,,,,,,,,,,,,,,,,,,,,,,,,,,,,,,,,,,,,,,,,,,,,,,,,,,,,,,,,,,,,,,,,,,,,,,,,,,,,
,,60c0d16d73ec63ed0d8ffb2e,2024-02-19_04h07.55.347,kallum_motion_pilot,2023.2.2,Win32,59.88023952,60c0d16d73ec63ed0d8ffb2e,65d2b6c8f2eece985d8e374c,65d2b7e4021102d09219331a,0.032,0.032,0,89,89,121,1,fiveseven,,,,,,,,,,,,,,,,,,,,,,,,,,,,,,,,,,,,,,,,,,,,,,,,,,,,,,,,,,,,,,,,,,,,,,,,,,,,,,,,,,,,,,,,,,,,,,,,,,,,,,,,,,,,,,,,,,,,,,,,,,,,,,,,,,,,,,,,,
,,60c0d16d73ec63ed0d8ffb2e,2024-02-19_04h07.55.347,kallum_motion_pilot,2023.2.2,Win32,59.88023952,60c0d16d73ec63ed0d8ffb2e,65d2b6c8f2eece985d8e374c,65d2b7e4021102d09219331a,0.0322,0.0322,0,90,90,122,1,sixfive,,,,,,,,,,,,,,,,,,,,,,,,,,,,,,,,,,,,,,,,,,,,,,,,,,,,,,,,,,,,,,,,,,,,,,,,,,,,,,,,,,,,,,,,,,,,,,,,,,,,,,,,,,,,,,,,,,,,,,,,,,,,,,,,,,,,,,,,,
,,60c0d16d73ec63ed0d8ffb2e,2024-02-19_04h07.55.347,kallum_motion_pilot,2023.2.2,Win32,59.88023952,60c0d16d73ec63ed0d8ffb2e,65d2b6c8f2eece985d8e374c,65d2b7e4021102d09219331a,0.0322,0.0323,0,91,91,129,1,fiveseven,,,,,,,,,,,,,,,,,,,,,,,,,,,,,,,,,,,,,,,,,,,,,,,,,,,,,,,,,,,,,,,,,,,,,,,,,,,,,,,,,,,,,,,,,,,,,,,,,,,,,,,,,,,,,,,,,,,,,,,,,,,,,,,,,,,,,,,,,
,,60c0d16d73ec63ed0d8ffb2e,2024-02-19_04h07.55.347,kallum_motion_pilot,2023.2.2,Win32,59.88023952,60c0d16d73ec63ed0d8ffb2e,65d2b6c8f2eece985d8e374c,65d2b7e4021102d09219331a,0.0324,0.0324,0,92,92,72,1,onetwo,,,,,,,,,,,,,,,,,,,,,,,,,,,,,,,,,,,,,,,,,,,,,,,,,,,,,,,,,,,,,,,,,,,,,,,,,,,,,,,,,,,,,,,,,,,,,,,,,,,,,,,,,,,,,,,,,,,,,,,,,,,,,,,,,,,,,,,,,
,,60c0d16d73ec63ed0d8ffb2e,2024-02-19_04h07.55.347,kallum_motion_pilot,2023.2.2,Win32,59.88023952,60c0d16d73ec63ed0d8ffb2e,65d2b6c8f2eece985d8e374c,65d2b7e4021102d09219331a,0.0326,0.0326,0,93,93,160,1,fivesix,,,,,,,,,,,,,,,,,,,,,,,,,,,,,,,,,,,,,,,,,,,,,,,,,,,,,,,,,,,,,,,,,,,,,,,,,,,,,,,,,,,,,,,,,,,,,,,,,,,,,,,,,,,,,,,,,,,,,,,,,,,,,,,,,,,,,,,,,
,,60c0d16d73ec63ed0d8ffb2e,2024-02-19_04h07.55.347,kallum_motion_pilot,2023.2.2,Win32,59.88023952,60c0d16d73ec63ed0d8ffb2e,65d2b6c8f2eece985d8e374c,65d2b7e4021102d09219331a,0.0326,0.0326,0,94,94,88,1,fivesix,,,,,,,,,,,,,,,,,,,,,,,,,,,,,,,,,,,,,,,,,,,,,,,,,,,,,,,,,,,,,,,,,,,,,,,,,,,,,,,,,,,,,,,,,,,,,,,,,,,,,,,,,,,,,,,,,,,,,,,,,,,,,,,,,,,,,,,,,
,,60c0d16d73ec63ed0d8ffb2e,2024-02-19_04h07.55.347,kallum_motion_pilot,2023.2.2,Win32,59.88023952,60c0d16d73ec63ed0d8ffb2e,65d2b6c8f2eece985d8e374c,65d2b7e4021102d09219331a,0.0327,0.0328,0,95,95,113,1,fiveseven,,,,,,,,,,,,,,,,,,,,,,,,,,,,,,,,,,,,,,,,,,,,,,,,,,,,,,,,,,,,,,,,,,,,,,,,,,,,,,,,,,,,,,,,,,,,,,,,,,,,,,,,,,,,,,,,,,,,,,,,,,,,,,,,,,,,,,,,,
,,60c0d16d73ec63ed0d8ffb2e,2024-02-19_04h07.55.347,kallum_motion_pilot,2023.2.2,Win32,59.88023952,60c0d16d73ec63ed0d8ffb2e,65d2b6c8f2eece985d8e374c,65d2b7e4021102d09219331a,0.0328,0.0329,0,96,96,35,1,twofour,,,,,,,,,,,,,,,,,,,,,,,,,,,,,,,,,,,,,,,,,,,,,,,,,,,,,,,,,,,,,,,,,,,,,,,,,,,,,,,,,,,,,,,,,,,,,,,,,,,,,,,,,,,,,,,,,,,,,,,,,,,,,,,,,,,,,,,,,
,,60c0d16d73ec63ed0d8ffb2e,2024-02-19_04h07.55.347,kallum_motion_pilot,2023.2.2,Win32,59.88023952,60c0d16d73ec63ed0d8ffb2e,65d2b6c8f2eece985d8e374c,65d2b7e4021102d09219331a,0.033,0.033,0,97,97,93,1,seveneight,,,,,,,,,,,,,,,,,,,,,,,,,,,,,,,,,,,,,,,,,,,,,,,,,,,,,,,,,,,,,,,,,,,,,,,,,,,,,,,,,,,,,,,,,,,,,,,,,,,,,,,,,,,,,,,,,,,,,,,,,,,,,,,,,,,,,,,,,
,,60c0d16d73ec63ed0d8ffb2e,2024-02-19_04h07.55.347,kallum_motion_pilot,2023.2.2,Win32,59.88023952,60c0d16d73ec63ed0d8ffb2e,65d2b6c8f2eece985d8e374c,65d2b7e4021102d09219331a,0.033,0.0331,0,98,98,8,1,onetwo,,,,,,,,,,,,,,,,,,,,,,,,,,,,,,,,,,,,,,,,,,,,,,,,,,,,,,,,,,,,,,,,,,,,,,,,,,,,,,,,,,,,,,,,,,,,,,,,,,,,,,,,,,,,,,,,,,,,,,,,,,,,,,,,,,,,,,,,,
,,60c0d16d73ec63ed0d8ffb2e,2024-02-19_04h07.55.347,kallum_motion_pilot,2023.2.2,Win32,59.88023952,60c0d16d73ec63ed0d8ffb2e,65d2b6c8f2eece985d8e374c,65d2b7e4021102d09219331a,0.0332,0.0332,0,99,99,152,1,fivesix,,,,,,,,,,,,,,,,,,,,,,,,,,,,,,,,,,,,,,,,,,,,,,,,,,,,,,,,,,,,,,,,,,,,,,,,,,,,,,,,,,,,,,,,,,,,,,,,,,,,,,,,,,,,,,,,,,,,,,,,,,,,,,,,,,,,,,,,,
,,60c0d16d73ec63ed0d8ffb2e,2024-02-19_04h07.55.347,kallum_motion_pilot,2023.2.2,Win32,59.88023952,60c0d16d73ec63ed0d8ffb2e,65d2b6c8f2eece985d8e374c,65d2b7e4021102d09219331a,0.0333,0.0333,0,100,100,16,1,onetwo,,,,,,,,,,,,,,,,,,,,,,,,,,,,,,,,,,,,,,,,,,,,,,,,,,,,,,,,,,,,,,,,,,,,,,,,,,,,,,,,,,,,,,,,,,,,,,,,,,,,,,,,,,,,,,,,,,,,,,,,,,,,,,,,,,,,,,,,,
,,60c0d16d73ec63ed0d8ffb2e,2024-02-19_04h07.55.347,kallum_motion_pilot,2023.2.2,Win32,59.88023952,60c0d16d73ec63ed0d8ffb2e,65d2b6c8f2eece985d8e374c,65d2b7e4021102d09219331a,0.0334,0.0334,0,101,101,50,1,twoone,,,,,,,,,,,,,,,,,,,,,,,,,,,,,,,,,,,,,,,,,,,,,,,,,,,,,,,,,,,,,,,,,,,,,,,,,,,,,,,,,,,,,,,,,,,,,,,,,,,,,,,,,,,,,,,,,,,,,,,,,,,,,,,,,,,,,,,,,
,,60c0d16d73ec63ed0d8ffb2e,2024-02-19_04h07.55.347,kallum_motion_pilot,2023.2.2,Win32,59.88023952,60c0d16d73ec63ed0d8ffb2e,65d2b6c8f2eece985d8e374c,65d2b7e4021102d09219331a,0.0336,0.0336,0,102,102,5,1,threefour,,,,,,,,,,,,,,,,,,,,,,,,,,,,,,,,,,,,,,,,,,,,,,,,,,,,,,,,,,,,,,,,,,,,,,,,,,,,,,,,,,,,,,,,,,,,,,,,,,,,,,,,,,,,,,,,,,,,,,,,,,,,,,,,,,,,,,,,,
,,60c0d16d73ec63ed0d8ffb2e,2024-02-19_04h07.55.347,kallum_motion_pilot,2023.2.2,Win32,59.88023952,60c0d16d73ec63ed0d8ffb2e,65d2b6c8f2eece985d8e374c,65d2b7e4021102d09219331a,0.0336,0.0337,0,103,103,57,1,onethree,,,,,,,,,,,,,,,,,,,,,,,,,,,,,,,,,,,,,,,,,,,,,,,,,,,,,,,,,,,,,,,,,,,,,,,,,,,,,,,,,,,,,,,,,,,,,,,,,,,,,,,,,,,,,,,,,,,,,,,,,,,,,,,,,,,,,,,,,
,,60c0d16d73ec63ed0d8ffb2e,2024-02-19_04h07.55.347,kallum_motion_pilot,2023.2.2,Win32,59.88023952,60c0d16d73ec63ed0d8ffb2e,65d2b6c8f2eece985d8e374c,65d2b7e4021102d09219331a,0.0338,0.0338,0,104,104,24,1,onetwo,,,,,,,,,,,,,,,,,,,,,,,,,,,,,,,,,,,,,,,,,,,,,,,,,,,,,,,,,,,,,,,,,,,,,,,,,,,,,,,,,,,,,,,,,,,,,,,,,,,,,,,,,,,,,,,,,,,,,,,,,,,,,,,,,,,,,,,,,
,,60c0d16d73ec63ed0d8ffb2e,2024-02-19_04h07.55.347,kallum_motion_pilot,2023.2.2,Win32,59.88023952,60c0d16d73ec63ed0d8ffb2e,65d2b6c8f2eece985d8e374c,65d2b7e4021102d09219331a,0.0339,0.034,0,105,105,104,1,fivesix,,,,,,,,,,,,,,,,,,,,,,,,,,,,,,,,,,,,,,,,,,,,,,,,,,,,,,,,,,,,,,,,,,,,,,,,,,,,,,,,,,,,,,,,,,,,,,,,,,,,,,,,,,,,,,,,,,,,,,,,,,,,,,,,,,,,,,,,,
,,60c0d16d73ec63ed0d8ffb2e,2024-02-19_04h07.55.347,kallum_motion_pilot,2023.2.2,Win32,59.88023952,60c0d16d73ec63ed0d8ffb2e,65d2b6c8f2eece985d8e374c,65d2b7e4021102d09219331a,0.034,0.0341,0,106,106,56,1,onetwo,,,,,,,,,,,,,,,,,,,,,,,,,,,,,,,,,,,,,,,,,,,,,,,,,,,,,,,,,,,,,,,,,,,,,,,,,,,,,,,,,,,,,,,,,,,,,,,,,,,,,,,,,,,,,,,,,,,,,,,,,,,,,,,,,,,,,,,,,
,,60c0d16d73ec63ed0d8ffb2e,2024-02-19_04h07.55.347,kallum_motion_pilot,2023.2.2,Win32,59.88023952,60c0d16d73ec63ed0d8ffb2e,65d2b6c8f2eece985d8e374c,65d2b7e4021102d09219331a,0.0342,0.0342,0,107,107,70,1,fourtwo,,,,,,,,,,,,,,,,,,,,,,,,,,,,,,,,,,,,,,,,,,,,,,,,,,,,,,,,,,,,,,,,,,,,,,,,,,,,,,,,,,,,,,,,,,,,,,,,,,,,,,,,,,,,,,,,,,,,,,,,,,,,,,,,,,,,,,,,,
,,60c0d16d73ec63ed0d8ffb2e,2024-02-19_04h07.55.347,kallum_motion_pilot,2023.2.2,Win32,59.88023952,60c0d16d73ec63ed0d8ffb2e,65d2b6c8f2eece985d8e374c,65d2b7e4021102d09219331a,0.0343,0.0343,0,108,108,99,1,sixeight,,,,,,,,,,,,,,,,,,,,,,,,,,,,,,,,,,,,,,,,,,,,,,,,,,,,,,,,,,,,,,,,,,,,,,,,,,,,,,,,,,,,,,,,,,,,,,,,,,,,,,,,,,,,,,,,,,,,,,,,,,,,,,,,,,,,,,,,,
,,60c0d16d73ec63ed0d8ffb2e,2024-02-19_04h07.55.347,kallum_motion_pilot,2023.2.2,Win32,59.88023952,60c0d16d73ec63ed0d8ffb2e,65d2b6c8f2eece985d8e374c,65d2b7e4021102d09219331a,0.0344,0.0344,0,109,109,6,1,fourtwo,,,,,,,,,,,,,,,,,,,,,,,,,,,,,,,,,,,,,,,,,,,,,,,,,,,,,,,,,,,,,,,,,,,,,,,,,,,,,,,,,,,,,,,,,,,,,,,,,,,,,,,,,,,,,,,,,,,,,,,,,,,,,,,,,,,,,,,,,
,,60c0d16d73ec63ed0d8ffb2e,2024-02-19_04h07.55.347,kallum_motion_pilot,2023.2.2,Win32,59.88023952,60c0d16d73ec63ed0d8ffb2e,65d2b6c8f2eece985d8e374c,65d2b7e4021102d09219331a,0.0345,0.0347,0,110,110,73,1,onethree,,,,,,,,,,,,,,,,,,,,,,,,,,,,,,,,,,,,,,,,,,,,,,,,,,,,,,,,,,,,,,,,,,,,,,,,,,,,,,,,,,,,,,,,,,,,,,,,,,,,,,,,,,,,,,,,,,,,,,,,,,,,,,,,,,,,,,,,,
,,60c0d16d73ec63ed0d8ffb2e,2024-02-19_04h07.55.347,kallum_motion_pilot,2023.2.2,Win32,59.88023952,60c0d16d73ec63ed0d8ffb2e,65d2b6c8f2eece985d8e374c,65d2b7e4021102d09219331a,0.0347,0.0348,0,111,111,13,1,threefour,,,,,,,,,,,,,,,,,,,,,,,,,,,,,,,,,,,,,,,,,,,,,,,,,,,,,,,,,,,,,,,,,,,,,,,,,,,,,,,,,,,,,,,,,,,,,,,,,,,,,,,,,,,,,,,,,,,,,,,,,,,,,,,,,,,,,,,,,
,,60c0d16d73ec63ed0d8ffb2e,2024-02-19_04h07.55.347,kallum_motion_pilot,2023.2.2,Win32,59.88023952,60c0d16d73ec63ed0d8ffb2e,65d2b6c8f2eece985d8e374c,65d2b7e4021102d09219331a,0.0348,0.0348,0,112,112,133,1,seveneight,,,,,,,,,,,,,,,,,,,,,,,,,,,,,,,,,,,,,,,,,,,,,,,,,,,,,,,,,,,,,,,,,,,,,,,,,,,,,,,,,,,,,,,,,,,,,,,,,,,,,,,,,,,,,,,,,,,,,,,,,,,,,,,,,,,,,,,,,
,,60c0d16d73ec63ed0d8ffb2e,2024-02-19_04h07.55.347,kallum_motion_pilot,2023.2.2,Win32,59.88023952,60c0d16d73ec63ed0d8ffb2e,65d2b6c8f2eece985d8e374c,65d2b7e4021102d09219331a,0.0349,0.035,0,113,113,118,1,eightsix,,,,,,,,,,,,,,,,,,,,,,,,,,,,,,,,,,,,,,,,,,,,,,,,,,,,,,,,,,,,,,,,,,,,,,,,,,,,,,,,,,,,,,,,,,,,,,,,,,,,,,,,,,,,,,,,,,,,,,,,,,,,,,,,,,,,,,,,,
,,60c0d16d73ec63ed0d8ffb2e,2024-02-19_04h07.55.347,kallum_motion_pilot,2023.2.2,Win32,59.88023952,60c0d16d73ec63ed0d8ffb2e,65d2b6c8f2eece985d8e374c,65d2b7e4021102d09219331a,0.035,0.0351,0,114,114,151,1,eightseven,,,,,,,,,,,,,,,,,,,,,,,,,,,,,,,,,,,,,,,,,,,,,,,,,,,,,,,,,,,,,,,,,,,,,,,,,,,,,,,,,,,,,,,,,,,,,,,,,,,,,,,,,,,,,,,,,,,,,,,,,,,,,,,,,,,,,,,,,
,,60c0d16d73ec63ed0d8ffb2e,2024-02-19_04h07.55.347,kallum_motion_pilot,2023.2.2,Win32,59.88023952,60c0d16d73ec63ed0d8ffb2e,65d2b6c8f2eece985d8e374c,65d2b7e4021102d09219331a,0.0352,0.0352,0,115,115,78,1,fourtwo,,,,,,,,,,,,,,,,,,,,,,,,,,,,,,,,,,,,,,,,,,,,,,,,,,,,,,,,,,,,,,,,,,,,,,,,,,,,,,,,,,,,,,,,,,,,,,,,,,,,,,,,,,,,,,,,,,,,,,,,,,,,,,,,,,,,,,,,,
,,60c0d16d73ec63ed0d8ffb2e,2024-02-19_04h07.55.347,kallum_motion_pilot,2023.2.2,Win32,59.88023952,60c0d16d73ec63ed0d8ffb2e,65d2b6c8f2eece985d8e374c,65d2b7e4021102d09219331a,0.0353,0.0353,0,116,116,112,1,fivesix,,,,,,,,,,,,,,,,,,,,,,,,,,,,,,,,,,,,,,,,,,,,,,,,,,,,,,,,,,,,,,,,,,,,,,,,,,,,,,,,,,,,,,,,,,,,,,,,,,,,,,,,,,,,,,,,,,,,,,,,,,,,,,,,,,,,,,,,,
,,60c0d16d73ec63ed0d8ffb2e,2024-02-19_04h07.55.347,kallum_motion_pilot,2023.2.2,Win32,59.88023952,60c0d16d73ec63ed0d8ffb2e,65d2b6c8f2eece985d8e374c,65d2b7e4021102d09219331a,0.0354,0.0354,0,117,117,61,1,threefour,,,,,,,,,,,,,,,,,,,,,,,,,,,,,,,,,,,,,,,,,,,,,,,,,,,,,,,,,,,,,,,,,,,,,,,,,,,,,,,,,,,,,,,,,,,,,,,,,,,,,,,,,,,,,,,,,,,,,,,,,,,,,,,,,,,,,,,,,
,,60c0d16d73ec63ed0d8ffb2e,2024-02-19_04h07.55.347,kallum_motion_pilot,2023.2.2,Win32,59.88023952,60c0d16d73ec63ed0d8ffb2e,65d2b6c8f2eece985d8e374c,65d2b7e4021102d09219331a,0.0355,0.0355,0,118,118,142,1,eightsix,,,,,,,,,,,,,,,,,,,,,,,,,,,,,,,,,,,,,,,,,,,,,,,,,,,,,,,,,,,,,,,,,,,,,,,,,,,,,,,,,,,,,,,,,,,,,,,,,,,,,,,,,,,,,,,,,,,,,,,,,,,,,,,,,,,,,,,,,
,,60c0d16d73ec63ed0d8ffb2e,2024-02-19_04h07.55.347,kallum_motion_pilot,2023.2.2,Win32,59.88023952,60c0d16d73ec63ed0d8ffb2e,65d2b6c8f2eece985d8e374c,65d2b7e4021102d09219331a,0.0356,0.0356,0,119,119,139,1,sixeight,,,,,,,,,,,,,,,,,,,,,,,,,,,,,,,,,,,,,,,,,,,,,,,,,,,,,,,,,,,,,,,,,,,,,,,,,,,,,,,,,,,,,,,,,,,,,,,,,,,,,,,,,,,,,,,,,,,,,,,,,,,,,,,,,,,,,,,,,
,,60c0d16d73ec63ed0d8ffb2e,2024-02-19_04h07.55.347,kallum_motion_pilot,2023.2.2,Win32,59.88023952,60c0d16d73ec63ed0d8ffb2e,65d2b6c8f2eece985d8e374c,65d2b7e4021102d09219331a,0.0357,0.0357,0,120,120,7,1,fourthree,,,,,,,,,,,,,,,,,,,,,,,,,,,,,,,,,,,,,,,,,,,,,,,,,,,,,,,,,,,,,,,,,,,,,,,,,,,,,,,,,,,,,,,,,,,,,,,,,,,,,,,,,,,,,,,,,,,,,,,,,,,,,,,,,,,,,,,,,
,,60c0d16d73ec63ed0d8ffb2e,2024-02-19_04h07.55.347,kallum_motion_pilot,2023.2.2,Win32,59.88023952,60c0d16d73ec63ed0d8ffb2e,65d2b6c8f2eece985d8e374c,65d2b7e4021102d09219331a,0.0359,0.036,0,121,121,75,1,twofour,,,,,,,,,,,,,,,,,,,,,,,,,,,,,,,,,,,,,,,,,,,,,,,,,,,,,,,,,,,,,,,,,,,,,,,,,,,,,,,,,,,,,,,,,,,,,,,,,,,,,,,,,,,,,,,,,,,,,,,,,,,,,,,,,,,,,,,,,
,,60c0d16d73ec63ed0d8ffb2e,2024-02-19_04h07.55.347,kallum_motion_pilot,2023.2.2,Win32,59.88023952,60c0d16d73ec63ed0d8ffb2e,65d2b6c8f2eece985d8e374c,65d2b7e4021102d09219331a,0.036,0.0362,0,122,122,127,1,eightseven,,,,,,,,,,,,,,,,,,,,,,,,,,,,,,,,,,,,,,,,,,,,,,,,,,,,,,,,,,,,,,,,,,,,,,,,,,,,,,,,,,,,,,,,,,,,,,,,,,,,,,,,,,,,,,,,,,,,,,,,,,,,,,,,,,,,,,,,,
,,60c0d16d73ec63ed0d8ffb2e,2024-02-19_04h07.55.347,kallum_motion_pilot,2023.2.2,Win32,59.88023952,60c0d16d73ec63ed0d8ffb2e,65d2b6c8f2eece985d8e374c,65d2b7e4021102d09219331a,0.0363,0.0364,0,123,123,25,1,onethree,,,,,,,,,,,,,,,,,,,,,,,,,,,,,,,,,,,,,,,,,,,,,,,,,,,,,,,,,,,,,,,,,,,,,,,,,,,,,,,,,,,,,,,,,,,,,,,,,,,,,,,,,,,,,,,,,,,,,,,,,,,,,,,,,,,,,,,,,
,,60c0d16d73ec63ed0d8ffb2e,2024-02-19_04h07.55.347,kallum_motion_pilot,2023.2.2,Win32,59.88023952,60c0d16d73ec63ed0d8ffb2e,65d2b6c8f2eece985d8e374c,65d2b7e4021102d09219331a,0.0366,0.0367,0,124,124,20,1,threeone,,,,,,,,,,,,,,,,,,,,,,,,,,,,,,,,,,,,,,,,,,,,,,,,,,,,,,,,,,,,,,,,,,,,,,,,,,,,,,,,,,,,,,,,,,,,,,,,,,,,,,,,,,,,,,,,,,,,,,,,,,,,,,,,,,,,,,,,,
,,60c0d16d73ec63ed0d8ffb2e,2024-02-19_04h07.55.347,kallum_motion_pilot,2023.2.2,Win32,59.88023952,60c0d16d73ec63ed0d8ffb2e,65d2b6c8f2eece985d8e374c,65d2b7e4021102d09219331a,0.037,0.037,0,125,125,55,1,fourthree,,,,,,,,,,,,,,,,,,,,,,,,,,,,,,,,,,,,,,,,,,,,,,,,,,,,,,,,,,,,,,,,,,,,,,,,,,,,,,,,,,,,,,,,,,,,,,,,,,,,,,,,,,,,,,,,,,,,,,,,,,,,,,,,,,,,,,,,,
,,60c0d16d73ec63ed0d8ffb2e,2024-02-19_04h07.55.347,kallum_motion_pilot,2023.2.2,Win32,59.88023952,60c0d16d73ec63ed0d8ffb2e,65d2b6c8f2eece985d8e374c,65d2b7e4021102d09219331a,0.0372,0.0372,0,126,126,97,1,fiveseven,,,,,,,,,,,,,,,,,,,,,,,,,,,,,,,,,,,,,,,,,,,,,,,,,,,,,,,,,,,,,,,,,,,,,,,,,,,,,,,,,,,,,,,,,,,,,,,,,,,,,,,,,,,,,,,,,,,,,,,,,,,,,,,,,,,,,,,,,
,,60c0d16d73ec63ed0d8ffb2e,2024-02-19_04h07.55.347,kallum_motion_pilot,2023.2.2,Win32,59.88023952,60c0d16d73ec63ed0d8ffb2e,65d2b6c8f2eece985d8e374c,65d2b7e4021102d09219331a,0.0374,0.0375,0,127,127,26,1,twoone,,,,,,,,,,,,,,,,,,,,,,,,,,,,,,,,,,,,,,,,,,,,,,,,,,,,,,,,,,,,,,,,,,,,,,,,,,,,,,,,,,,,,,,,,,,,,,,,,,,,,,,,,,,,,,,,,,,,,,,,,,,,,,,,,,,,,,,,,
,,60c0d16d73ec63ed0d8ffb2e,2024-02-19_04h07.55.347,kallum_motion_pilot,2023.2.2,Win32,59.88023952,60c0d16d73ec63ed0d8ffb2e,65d2b6c8f2eece985d8e374c,65d2b7e4021102d09219331a,0.0377,0.0377,0,128,128,58,1,twoone,,,,,,,,,,,,,,,,,,,,,,,,,,,,,,,,,,,,,,,,,,,,,,,,,,,,,,,,,,,,,,,,,,,,,,,,,,,,,,,,,,,,,,,,,,,,,,,,,,,,,,,,,,,,,,,,,,,,,,,,,,,,,,,,,,,,,,,,,
,,60c0d16d73ec63ed0d8ffb2e,2024-02-19_04h07.55.347,kallum_motion_pilot,2023.2.2,Win32,59.88023952,60c0d16d73ec63ed0d8ffb2e,65d2b6c8f2eece985d8e374c,65d2b7e4021102d09219331a,0.0379,0.0379,0,129,129,131,1,sixeight,,,,,,,,,,,,,,,,,,,,,,,,,,,,,,,,,,,,,,,,,,,,,,,,,,,,,,,,,,,,,,,,,,,,,,,,,,,,,,,,,,,,,,,,,,,,,,,,,,,,,,,,,,,,,,,,,,,,,,,,,,,,,,,,,,,,,,,,,
,,60c0d16d73ec63ed0d8ffb2e,2024-02-19_04h07.55.347,kallum_motion_pilot,2023.2.2,Win32,59.88023952,60c0d16d73ec63ed0d8ffb2e,65d2b6c8f2eece985d8e374c,65d2b7e4021102d09219331a,0.038,0.0381,0,130,130,41,1,onethree,,,,,,,,,,,,,,,,,,,,,,,,,,,,,,,,,,,,,,,,,,,,,,,,,,,,,,,,,,,,,,,,,,,,,,,,,,,,,,,,,,,,,,,,,,,,,,,,,,,,,,,,,,,,,,,,,,,,,,,,,,,,,,,,,,,,,,,,,
,,60c0d16d73ec63ed0d8ffb2e,2024-02-19_04h07.55.347,kallum_motion_pilot,2023.2.2,Win32,59.88023952,60c0d16d73ec63ed0d8ffb2e,65d2b6c8f2eece985d8e374c,65d2b7e4021102d09219331a,0.0382,0.0382,0,131,131,84,1,sevenfive,,,,,,,,,,,,,,,,,,,,,,,,,,,,,,,,,,,,,,,,,,,,,,,,,,,,,,,,,,,,,,,,,,,,,,,,,,,,,,,,,,,,,,,,,,,,,,,,,,,,,,,,,,,,,,,,,,,,,,,,,,,,,,,,,,,,,,,,,
,,60c0d16d73ec63ed0d8ffb2e,2024-02-19_04h07.55.347,kallum_motion_pilot,2023.2.2,Win32,59.88023952,60c0d16d73ec63ed0d8ffb2e,65d2b6c8f2eece985d8e374c,65d2b7e4021102d09219331a,0.0382,0.0383,0,132,132,144,1,fivesix,,,,,,,,,,,,,,,,,,,,,,,,,,,,,,,,,,,,,,,,,,,,,,,,,,,,,,,,,,,,,,,,,,,,,,,,,,,,,,,,,,,,,,,,,,,,,,,,,,,,,,,,,,,,,,,,,,,,,,,,,,,,,,,,,,,,,,,,,
,,60c0d16d73ec63ed0d8ffb2e,2024-02-19_04h07.55.347,kallum_motion_pilot,2023.2.2,Win32,59.88023952,60c0d16d73ec63ed0d8ffb2e,65d2b6c8f2eece985d8e374c,65d2b7e4021102d09219331a,0.0384,0.0384,0,133,133,59,1,twofour,,,,,,,,,,,,,,,,,,,,,,,,,,,,,,,,,,,,,,,,,,,,,,,,,,,,,,,,,,,,,,,,,,,,,,,,,,,,,,,,,,,,,,,,,,,,,,,,,,,,,,,,,,,,,,,,,,,,,,,,,,,,,,,,,,,,,,,,,
,,60c0d16d73ec63ed0d8ffb2e,2024-02-19_04h07.55.347,kallum_motion_pilot,2023.2.2,Win32,59.88023952,60c0d16d73ec63ed0d8ffb2e,65d2b6c8f2eece985d8e374c,65d2b7e4021102d09219331a,0.0385,0.0386,0,134,134,119,1,eightseven,,,,,,,,,,,,,,,,,,,,,,,,,,,,,,,,,,,,,,,,,,,,,,,,,,,,,,,,,,,,,,,,,,,,,,,,,,,,,,,,,,,,,,,,,,,,,,,,,,,,,,,,,,,,,,,,,,,,,,,,,,,,,,,,,,,,,,,,,
,,60c0d16d73ec63ed0d8ffb2e,2024-02-19_04h07.55.347,kallum_motion_pilot,2023.2.2,Win32,59.88023952,60c0d16d73ec63ed0d8ffb2e,65d2b6c8f2eece985d8e374c,65d2b7e4021102d09219331a,0.0386,0.0387,0,135,135,87,1,eightseven,,,,,,,,,,,,,,,,,,,,,,,,,,,,,,,,,,,,,,,,,,,,,,,,,,,,,,,,,,,,,,,,,,,,,,,,,,,,,,,,,,,,,,,,,,,,,,,,,,,,,,,,,,,,,,,,,,,,,,,,,,,,,,,,,,,,,,,,,
,,60c0d16d73ec63ed0d8ffb2e,2024-02-19_04h07.55.347,kallum_motion_pilot,2023.2.2,Win32,59.88023952,60c0d16d73ec63ed0d8ffb2e,65d2b6c8f2eece985d8e374c,65d2b7e4021102d09219331a,0.0387,0.0388,0,136,136,110,1,eightsix,,,,,,,,,,,,,,,,,,,,,,,,,,,,,,,,,,,,,,,,,,,,,,,,,,,,,,,,,,,,,,,,,,,,,,,,,,,,,,,,,,,,,,,,,,,,,,,,,,,,,,,,,,,,,,,,,,,,,,,,,,,,,,,,,,,,,,,,,
,,60c0d16d73ec63ed0d8ffb2e,2024-02-19_04h07.55.347,kallum_motion_pilot,2023.2.2,Win32,59.88023952,60c0d16d73ec63ed0d8ffb2e,65d2b6c8f2eece985d8e374c,65d2b7e4021102d09219331a,0.0398,0.0398,0,137,137,114,1,sixfive,,,,,,,,,,,,,,,,,,,,,,,,,,,,,,,,,,,,,,,,,,,,,,,,,,,,,,,,,,,,,,,,,,,,,,,,,,,,,,,,,,,,,,,,,,,,,,,,,,,,,,,,,,,,,,,,,,,,,,,,,,,,,,,,,,,,,,,,,
,,60c0d16d73ec63ed0d8ffb2e,2024-02-19_04h07.55.347,kallum_motion_pilot,2023.2.2,Win32,59.88023952,60c0d16d73ec63ed0d8ffb2e,65d2b6c8f2eece985d8e374c,65d2b7e4021102d09219331a,0.0399,0.0399,0,138,138,69,1,threefour,,,,,,,,,,,,,,,,,,,,,,,,,,,,,,,,,,,,,,,,,,,,,,,,,,,,,,,,,,,,,,,,,,,,,,,,,,,,,,,,,,,,,,,,,,,,,,,,,,,,,,,,,,,,,,,,,,,,,,,,,,,,,,,,,,,,,,,,,
,,60c0d16d73ec63ed0d8ffb2e,2024-02-19_04h07.55.347,kallum_motion_pilot,2023.2.2,Win32,59.88023952,60c0d16d73ec63ed0d8ffb2e,65d2b6c8f2eece985d8e374c,65d2b7e4021102d09219331a,0.04,0.04,0,139,139,60,1,threeone,,,,,,,,,,,,,,,,,,,,,,,,,,,,,,,,,,,,,,,,,,,,,,,,,,,,,,,,,,,,,,,,,,,,,,,,,,,,,,,,,,,,,,,,,,,,,,,,,,,,,,,,,,,,,,,,,,,,,,,,,,,,,,,,,,,,,,,,,
,,60c0d16d73ec63ed0d8ffb2e,2024-02-19_04h07.55.347,kallum_motion_pilot,2023.2.2,Win32,59.88023952,60c0d16d73ec63ed0d8ffb2e,65d2b6c8f2eece985d8e374c,65d2b7e4021102d09219331a,0.04,0.0401,0,140,140,157,1,seveneight,,,,,,,,,,,,,,,,,,,,,,,,,,,,,,,,,,,,,,,,,,,,,,,,,,,,,,,,,,,,,,,,,,,,,,,,,,,,,,,,,,,,,,,,,,,,,,,,,,,,,,,,,,,,,,,,,,,,,,,,,,,,,,,,,,,,,,,,,
,,60c0d16d73ec63ed0d8ffb2e,2024-02-19_04h07.55.347,kallum_motion_pilot,2023.2.2,Win32,59.88023952,60c0d16d73ec63ed0d8ffb2e,65d2b6c8f2eece985d8e374c,65d2b7e4021102d09219331a,0.0401,0.0402,0,141,141,83,1,sixeight,,,,,,,,,,,,,,,,,,,,,,,,,,,,,,,,,,,,,,,,,,,,,,,,,,,,,,,,,,,,,,,,,,,,,,,,,,,,,,,,,,,,,,,,,,,,,,,,,,,,,,,,,,,,,,,,,,,,,,,,,,,,,,,,,,,,,,,,,
,,60c0d16d73ec63ed0d8ffb2e,2024-02-19_04h07.55.347,kallum_motion_pilot,2023.2.2,Win32,59.88023952,60c0d16d73ec63ed0d8ffb2e,65d2b6c8f2eece985d8e374c,65d2b7e4021102d09219331a,0.0403,0.0403,0,142,142,3,1,twofour,,,,,,,,,,,,,,,,,,,,,,,,,,,,,,,,,,,,,,,,,,,,,,,,,,,,,,,,,,,,,,,,,,,,,,,,,,,,,,,,,,,,,,,,,,,,,,,,,,,,,,,,,,,,,,,,,,,,,,,,,,,,,,,,,,,,,,,,,
,,60c0d16d73ec63ed0d8ffb2e,2024-02-19_04h07.55.347,kallum_motion_pilot,2023.2.2,Win32,59.88023952,60c0d16d73ec63ed0d8ffb2e,65d2b6c8f2eece985d8e374c,65d2b7e4021102d09219331a,0.0404,0.0404,0,143,143,149,1,seveneight,,,,,,,,,,,,,,,,,,,,,,,,,,,,,,,,,,,,,,,,,,,,,,,,,,,,,,,,,,,,,,,,,,,,,,,,,,,,,,,,,,,,,,,,,,,,,,,,,,,,,,,,,,,,,,,,,,,,,,,,,,,,,,,,,,,,,,,,,
,,60c0d16d73ec63ed0d8ffb2e,2024-02-19_04h07.55.347,kallum_motion_pilot,2023.2.2,Win32,59.88023952,60c0d16d73ec63ed0d8ffb2e,65d2b6c8f2eece985d8e374c,65d2b7e4021102d09219331a,0.0405,0.0406,0,144,144,1,1,onethree,,,,,,,,,,,,,,,,,,,,,,,,,,,,,,,,,,,,,,,,,,,,,,,,,,,,,,,,,,,,,,,,,,,,,,,,,,,,,,,,,,,,,,,,,,,,,,,,,,,,,,,,,,,,,,,,,,,,,,,,,,,,,,,,,,,,,,,,,
,,60c0d16d73ec63ed0d8ffb2e,2024-02-19_04h07.55.347,kallum_motion_pilot,2023.2.2,Win32,59.88023952,60c0d16d73ec63ed0d8ffb2e,65d2b6c8f2eece985d8e374c,65d2b7e4021102d09219331a,0.0406,0.0407,0,145,145,28,1,threeone,,,,,,,,,,,,,,,,,,,,,,,,,,,,,,,,,,,,,,,,,,,,,,,,,,,,,,,,,,,,,,,,,,,,,,,,,,,,,,,,,,,,,,,,,,,,,,,,,,,,,,,,,,,,,,,,,,,,,,,,,,,,,,,,,,,,,,,,,
,,60c0d16d73ec63ed0d8ffb2e,2024-02-19_04h07.55.347,kallum_motion_pilot,2023.2.2,Win32,59.88023952,60c0d16d73ec63ed0d8ffb2e,65d2b6c8f2eece985d8e374c,65d2b7e4021102d09219331a,0.0407,0.0407,0,146,146,135,1,eightseven,,,,,,,,,,,,,,,,,,,,,,,,,,,,,,,,,,,,,,,,,,,,,,,,,,,,,,,,,,,,,,,,,,,,,,,,,,,,,,,,,,,,,,,,,,,,,,,,,,,,,,,,,,,,,,,,,,,,,,,,,,,,,,,,,,,,,,,,,
,,60c0d16d73ec63ed0d8ffb2e,2024-02-19_04h07.55.347,kallum_motion_pilot,2023.2.2,Win32,59.88023952,60c0d16d73ec63ed0d8ffb2e,65d2b6c8f2eece985d8e374c,65d2b7e4021102d09219331a,0.0408,0.0409,0,147,147,120,1,fivesix,,,,,,,,,,,,,,,,,,,,,,,,,,,,,,,,,,,,,,,,,,,,,,,,,,,,,,,,,,,,,,,,,,,,,,,,,,,,,,,,,,,,,,,,,,,,,,,,,,,,,,,,,,,,,,,,,,,,,,,,,,,,,,,,,,,,,,,,,
,,60c0d16d73ec63ed0d8ffb2e,2024-02-19_04h07.55.347,kallum_motion_pilot,2023.2.2,Win32,59.88023952,60c0d16d73ec63ed0d8ffb2e,65d2b6c8f2eece985d8e374c,65d2b7e4021102d09219331a,0.0409,0.0409,0,148,148,14,1,fourtwo,,,,,,,,,,,,,,,,,,,,,,,,,,,,,,,,,,,,,,,,,,,,,,,,,,,,,,,,,,,,,,,,,,,,,,,,,,,,,,,,,,,,,,,,,,,,,,,,,,,,,,,,,,,,,,,,,,,,,,,,,,,,,,,,,,,,,,,,,
,,60c0d16d73ec63ed0d8ffb2e,2024-02-19_04h07.55.347,kallum_motion_pilot,2023.2.2,Win32,59.88023952,60c0d16d73ec63ed0d8ffb2e,65d2b6c8f2eece985d8e374c,65d2b7e4021102d09219331a,0.041,0.041,0,149,149,106,1,sixfive,,,,,,,,,,,,,,,,,,,,,,,,,,,,,,,,,,,,,,,,,,,,,,,,,,,,,,,,,,,,,,,,,,,,,,,,,,,,,,,,,,,,,,,,,,,,,,,,,,,,,,,,,,,,,,,,,,,,,,,,,,,,,,,,,,,,,,,,,
,,60c0d16d73ec63ed0d8ffb2e,2024-02-19_04h07.55.347,kallum_motion_pilot,2023.2.2,Win32,59.88023952,60c0d16d73ec63ed0d8ffb2e,65d2b6c8f2eece985d8e374c,65d2b7e4021102d09219331a,0.0411,0.0411,0,150,150,23,1,fourthree,,,,,,,,,,,,,,,,,,,,,,,,,,,,,,,,,,,,,,,,,,,,,,,,,,,,,,,,,,,,,,,,,,,,,,,,,,,,,,,,,,,,,,,,,,,,,,,,,,,,,,,,,,,,,,,,,,,,,,,,,,,,,,,,,,,,,,,,,
,,60c0d16d73ec63ed0d8ffb2e,2024-02-19_04h07.55.347,kallum_motion_pilot,2023.2.2,Win32,59.88023952,60c0d16d73ec63ed0d8ffb2e,65d2b6c8f2eece985d8e374c,65d2b7e4021102d09219331a,0.0412,0.0412,0,151,151,4,1,threeone,,,,,,,,,,,,,,,,,,,,,,,,,,,,,,,,,,,,,,,,,,,,,,,,,,,,,,,,,,,,,,,,,,,,,,,,,,,,,,,,,,,,,,,,,,,,,,,,,,,,,,,,,,,,,,,,,,,,,,,,,,,,,,,,,,,,,,,,,
,,60c0d16d73ec63ed0d8ffb2e,2024-02-19_04h07.55.347,kallum_motion_pilot,2023.2.2,Win32,59.88023952,60c0d16d73ec63ed0d8ffb2e,65d2b6c8f2eece985d8e374c,65d2b7e4021102d09219331a,0.0412,0.0413,0,152,152,11,1,twofour,,,,,,,,,,,,,,,,,,,,,,,,,,,,,,,,,,,,,,,,,,,,,,,,,,,,,,,,,,,,,,,,,,,,,,,,,,,,,,,,,,,,,,,,,,,,,,,,,,,,,,,,,,,,,,,,,,,,,,,,,,,,,,,,,,,,,,,,,
,,60c0d16d73ec63ed0d8ffb2e,2024-02-19_04h07.55.347,kallum_motion_pilot,2023.2.2,Win32,59.88023952,60c0d16d73ec63ed0d8ffb2e,65d2b6c8f2eece985d8e374c,65d2b7e4021102d09219331a,0.0413,0.0414,0,153,153,153,1,fiveseven,,,,,,,,,,,,,,,,,,,,,,,,,,,,,,,,,,,,,,,,,,,,,,,,,,,,,,,,,,,,,,,,,,,,,,,,,,,,,,,,,,,,,,,,,,,,,,,,,,,,,,,,,,,,,,,,,,,,,,,,,,,,,,,,,,,,,,,,,
,,60c0d16d73ec63ed0d8ffb2e,2024-02-19_04h07.55.347,kallum_motion_pilot,2023.2.2,Win32,59.88023952,60c0d16d73ec63ed0d8ffb2e,65d2b6c8f2eece985d8e374c,65d2b7e4021102d09219331a,0.0415,0.0415,0,154,154,143,1,eightseven,,,,,,,,,,,,,,,,,,,,,,,,,,,,,,,,,,,,,,,,,,,,,,,,,,,,,,,,,,,,,,,,,,,,,,,,,,,,,,,,,,,,,,,,,,,,,,,,,,,,,,,,,,,,,,,,,,,,,,,,,,,,,,,,,,,,,,,,,
,,60c0d16d73ec63ed0d8ffb2e,2024-02-19_04h07.55.347,kallum_motion_pilot,2023.2.2,Win32,59.88023952,60c0d16d73ec63ed0d8ffb2e,65d2b6c8f2eece985d8e374c,65d2b7e4021102d09219331a,0.0416,0.0416,0,155,155,115,1,sixeight,,,,,,,,,,,,,,,,,,,,,,,,,,,,,,,,,,,,,,,,,,,,,,,,,,,,,,,,,,,,,,,,,,,,,,,,,,,,,,,,,,,,,,,,,,,,,,,,,,,,,,,,,,,,,,,,,,,,,,,,,,,,,,,,,,,,,,,,,
,,60c0d16d73ec63ed0d8ffb2e,2024-02-19_04h07.55.347,kallum_motion_pilot,2023.2.2,Win32,59.88023952,60c0d16d73ec63ed0d8ffb2e,65d2b6c8f2eece985d8e374c,65d2b7e4021102d09219331a,0.0417,0.0417,0,156,156,9,1,onethree,,,,,,,,,,,,,,,,,,,,,,,,,,,,,,,,,,,,,,,,,,,,,,,,,,,,,,,,,,,,,,,,,,,,,,,,,,,,,,,,,,,,,,,,,,,,,,,,,,,,,,,,,,,,,,,,,,,,,,,,,,,,,,,,,,,,,,,,,
,,60c0d16d73ec63ed0d8ffb2e,2024-02-19_04h07.55.347,kallum_motion_pilot,2023.2.2,Win32,59.88023952,60c0d16d73ec63ed0d8ffb2e,65d2b6c8f2eece985d8e374c,65d2b7e4021102d09219331a,0.0418,0.0418,0,157,157,64,1,onetwo,,,,,,,,,,,,,,,,,,,,,,,,,,,,,,,,,,,,,,,,,,,,,,,,,,,,,,,,,,,,,,,,,,,,,,,,,,,,,,,,,,,,,,,,,,,,,,,,,,,,,,,,,,,,,,,,,,,,,,,,,,,,,,,,,,,,,,,,,
,,60c0d16d73ec63ed0d8ffb2e,2024-02-19_04h07.55.347,kallum_motion_pilot,2023.2.2,Win32,59.88023952,60c0d16d73ec63ed0d8ffb2e,65d2b6c8f2eece985d8e374c,65d2b7e4021102d09219331a,0.0418,0.0419,0,158,158,0,1,onetwo,,,,,,,,,,,,,,,,,,,,,,,,,,,,,,,,,,,,,,,,,,,,,,,,,,,,,,,,,,,,,,,,,,,,,,,,,,,,,,,,,,,,,,,,,,,,,,,,,,,,,,,,,,,,,,,,,,,,,,,,,,,,,,,,,,,,,,,,,
,,60c0d16d73ec63ed0d8ffb2e,2024-02-19_04h07.55.347,kallum_motion_pilot,2023.2.2,Win32,59.88023952,60c0d16d73ec63ed0d8ffb2e,65d2b6c8f2eece985d8e374c,65d2b7e4021102d09219331a,0.0419,0.042,0,159,159,30,1,fourtwo,,,,,,,,,,,,,,,,,,,,,,,,,,,,,,,,,,,,,,,,,,,,,,,,,,,,,,,,,,,,,,,,,,,,,,,,,,,,,,,,,,,,,,,,,,,,,,,,,,,,,,,,,,,,,,,,,,,,,,,,,,,,,,,,,,,,,,,,,
,,60c0d16d73ec63ed0d8ffb2e,2024-02-19_04h07.55.347,kallum_motion_pilot,2023.2.2,Win32,59.88023952,60c0d16d73ec63ed0d8ffb2e,65d2b6c8f2eece985d8e374c,65d2b7e4021102d09219331a,0.0421,0.0421,0,160,160,145,1,fiveseven,,,,,,,,,,,,,,,,,,,,,,,,,,,,,,,,,,,,,,,,,,,,,,,,,,,,,,,,,,,,,,,,,,,,,,,,,,,,,,,,,,,,,,,,,,,,,,,,,,,,,,,,,,,,,,,,,,,,,,,,,,,,,,,,,,,,,,,,,
,,60c0d16d73ec63ed0d8ffb2e,2024-02-19_04h07.55.347,kallum_motion_pilot,2023.2.2,Win32,59.88023952,60c0d16d73ec63ed0d8ffb2e,65d2b6c8f2eece985d8e374c,65d2b7e4021102d09219331a,0.0421,0.0422,0,161,161,146,1,sixfive,,,,,,,,,,,,,,,,,,,,,,,,,,,,,,,,,,,,,,,,,,,,,,,,,,,,,,,,,,,,,,,,,,,,,,,,,,,,,,,,,,,,,,,,,,,,,,,,,,,,,,,,,,,,,,,,,,,,,,,,,,,,,,,,,,,,,,,,,
,,60c0d16d73ec63ed0d8ffb2e,2024-02-19_04h07.55.347,kallum_motion_pilot,2023.2.2,Win32,59.88023952,60c0d16d73ec63ed0d8ffb2e,65d2b6c8f2eece985d8e374c,65d2b7e4021102d09219331a,0.0422,0.0422,1,0,162,26,1,twoone,,,,,,,,,,,,,,,,,,,,,,,,,,,,,,,,,,,,,,,,,,,,,,,,,,,,,,,,,,,,,,,,,,,,,,,,,,,,,,,,,,,,,,,,,,,,,,,,,,,,,,,,,,,,,,,,,,,,,,,,,,,,,,,,,,,,,,,,,
,,60c0d16d73ec63ed0d8ffb2e,2024-02-19_04h07.55.347,kallum_motion_pilot,2023.2.2,Win32,59.88023952,60c0d16d73ec63ed0d8ffb2e,65d2b6c8f2eece985d8e374c,65d2b7e4021102d09219331a,0.0424,0.0424,1,1,163,36,1,threeone,,,,,,,,,,,,,,,,,,,,,,,,,,,,,,,,,,,,,,,,,,,,,,,,,,,,,,,,,,,,,,,,,,,,,,,,,,,,,,,,,,,,,,,,,,,,,,,,,,,,,,,,,,,,,,,,,,,,,,,,,,,,,,,,,,,,,,,,,
,,60c0d16d73ec63ed0d8ffb2e,2024-02-19_04h07.55.347,kallum_motion_pilot,2023.2.2,Win32,59.88023952,60c0d16d73ec63ed0d8ffb2e,65d2b6c8f2eece985d8e374c,65d2b7e4021102d09219331a,0.0424,0.0424,1,2,164,91,1,sixeight,,,,,,,,,,,,,,,,,,,,,,,,,,,,,,,,,,,,,,,,,,,,,,,,,,,,,,,,,,,,,,,,,,,,,,,,,,,,,,,,,,,,,,,,,,,,,,,,,,,,,,,,,,,,,,,,,,,,,,,,,,,,,,,,,,,,,,,,,
,,60c0d16d73ec63ed0d8ffb2e,2024-02-19_04h07.55.347,kallum_motion_pilot,2023.2.2,Win32,59.88023952,60c0d16d73ec63ed0d8ffb2e,65d2b6c8f2eece985d8e374c,65d2b7e4021102d09219331a,0.0425,0.0425,1,3,165,84,1,sevenfive,,,,,,,,,,,,,,,,,,,,,,,,,,,,,,,,,,,,,,,,,,,,,,,,,,,,,,,,,,,,,,,,,,,,,,,,,,,,,,,,,,,,,,,,,,,,,,,,,,,,,,,,,,,,,,,,,,,,,,,,,,,,,,,,,,,,,,,,,
,,60c0d16d73ec63ed0d8ffb2e,2024-02-19_04h07.55.347,kallum_motion_pilot,2023.2.2,Win32,59.88023952,60c0d16d73ec63ed0d8ffb2e,65d2b6c8f2eece985d8e374c,65d2b7e4021102d09219331a,0.0426,0.0426,1,4,166,141,1,seveneight,,,,,,,,,,,,,,,,,,,,,,,,,,,,,,,,,,,,,,,,,,,,,,,,,,,,,,,,,,,,,,,,,,,,,,,,,,,,,,,,,,,,,,,,,,,,,,,,,,,,,,,,,,,,,,,,,,,,,,,,,,,,,,,,,,,,,,,,,
,,60c0d16d73ec63ed0d8ffb2e,2024-02-19_04h07.55.347,kallum_motion_pilot,2023.2.2,Win32,59.88023952,60c0d16d73ec63ed0d8ffb2e,65d2b6c8f2eece985d8e374c,65d2b7e4021102d09219331a,0.0426,0.0427,1,5,167,101,1,seveneight,,,,,,,,,,,,,,,,,,,,,,,,,,,,,,,,,,,,,,,,,,,,,,,,,,,,,,,,,,,,,,,,,,,,,,,,,,,,,,,,,,,,,,,,,,,,,,,,,,,,,,,,,,,,,,,,,,,,,,,,,,,,,,,,,,,,,,,,,
,,60c0d16d73ec63ed0d8ffb2e,2024-02-19_04h07.55.347,kallum_motion_pilot,2023.2.2,Win32,59.88023952,60c0d16d73ec63ed0d8ffb2e,65d2b6c8f2eece985d8e374c,65d2b7e4021102d09219331a,0.0428,0.0428,1,6,168,25,1,onethree,,,,,,,,,,,,,,,,,,,,,,,,,,,,,,,,,,,,,,,,,,,,,,,,,,,,,,,,,,,,,,,,,,,,,,,,,,,,,,,,,,,,,,,,,,,,,,,,,,,,,,,,,,,,,,,,,,,,,,,,,,,,,,,,,,,,,,,,,
,,60c0d16d73ec63ed0d8ffb2e,2024-02-19_04h07.55.347,kallum_motion_pilot,2023.2.2,Win32,59.88023952,60c0d16d73ec63ed0d8ffb2e,65d2b6c8f2eece985d8e374c,65d2b7e4021102d09219331a,0.0428,0.0428,1,7,169,161,1,fiveseven,,,,,,,,,,,,,,,,,,,,,,,,,,,,,,,,,,,,,,,,,,,,,,,,,,,,,,,,,,,,,,,,,,,,,,,,,,,,,,,,,,,,,,,,,,,,,,,,,,,,,,,,,,,,,,,,,,,,,,,,,,,,,,,,,,,,,,,,,
,,60c0d16d73ec63ed0d8ffb2e,2024-02-19_04h07.55.347,kallum_motion_pilot,2023.2.2,Win32,59.88023952,60c0d16d73ec63ed0d8ffb2e,65d2b6c8f2eece985d8e374c,65d2b7e4021102d09219331a,0.0429,0.0429,1,8,170,144,1,fivesix,,,,,,,,,,,,,,,,,,,,,,,,,,,,,,,,,,,,,,,,,,,,,,,,,,,,,,,,,,,,,,,,,,,,,,,,,,,,,,,,,,,,,,,,,,,,,,,,,,,,,,,,,,,,,,,,,,,,,,,,,,,,,,,,,,,,,,,,,
,,60c0d16d73ec63ed0d8ffb2e,2024-02-19_04h07.55.347,kallum_motion_pilot,2023.2.2,Win32,59.88023952,60c0d16d73ec63ed0d8ffb2e,65d2b6c8f2eece985d8e374c,65d2b7e4021102d09219331a,0.043,0.043,1,9,171,147,1,sixeight,,,,,,,,,,,,,,,,,,,,,,,,,,,,,,,,,,,,,,,,,,,,,,,,,,,,,,,,,,,,,,,,,,,,,,,,,,,,,,,,,,,,,,,,,,,,,,,,,,,,,,,,,,,,,,,,,,,,,,,,,,,,,,,,,,,,,,,,,
,,60c0d16d73ec63ed0d8ffb2e,2024-02-19_04h07.55.347,kallum_motion_pilot,2023.2.2,Win32,59.88023952,60c0d16d73ec63ed0d8ffb2e,65d2b6c8f2eece985d8e374c,65d2b7e4021102d09219331a,0.043,0.0431,1,10,172,135,1,eightseven,,,,,,,,,,,,,,,,,,,,,,,,,,,,,,,,,,,,,,,,,,,,,,,,,,,,,,,,,,,,,,,,,,,,,,,,,,,,,,,,,,,,,,,,,,,,,,,,,,,,,,,,,,,,,,,,,,,,,,,,,,,,,,,,,,,,,,,,,
,,60c0d16d73ec63ed0d8ffb2e,2024-02-19_04h07.55.347,kallum_motion_pilot,2023.2.2,Win32,59.88023952,60c0d16d73ec63ed0d8ffb2e,65d2b6c8f2eece985d8e374c,65d2b7e4021102d09219331a,0.0432,0.0432,1,11,173,90,1,sixfive,,,,,,,,,,,,,,,,,,,,,,,,,,,,,,,,,,,,,,,,,,,,,,,,,,,,,,,,,,,,,,,,,,,,,,,,,,,,,,,,,,,,,,,,,,,,,,,,,,,,,,,,,,,,,,,,,,,,,,,,,,,,,,,,,,,,,,,,,
,,60c0d16d73ec63ed0d8ffb2e,2024-02-19_04h07.55.347,kallum_motion_pilot,2023.2.2,Win32,59.88023952,60c0d16d73ec63ed0d8ffb2e,65d2b6c8f2eece985d8e374c,65d2b7e4021102d09219331a,0.0433,0.0433,1,12,174,43,1,twofour,,,,,,,,,,,,,,,,,,,,,,,,,,,,,,,,,,,,,,,,,,,,,,,,,,,,,,,,,,,,,,,,,,,,,,,,,,,,,,,,,,,,,,,,,,,,,,,,,,,,,,,,,,,,,,,,,,,,,,,,,,,,,,,,,,,,,,,,,
,,60c0d16d73ec63ed0d8ffb2e,2024-02-19_04h07.55.347,kallum_motion_pilot,2023.2.2,Win32,59.88023952,60c0d16d73ec63ed0d8ffb2e,65d2b6c8f2eece985d8e374c,65d2b7e4021102d09219331a,0.0433,0.0434,1,13,175,30,1,fourtwo,,,,,,,,,,,,,,,,,,,,,,,,,,,,,,,,,,,,,,,,,,,,,,,,,,,,,,,,,,,,,,,,,,,,,,,,,,,,,,,,,,,,,,,,,,,,,,,,,,,,,,,,,,,,,,,,,,,,,,,,,,,,,,,,,,,,,,,,,
,,60c0d16d73ec63ed0d8ffb2e,2024-02-19_04h07.55.347,kallum_motion_pilot,2023.2.2,Win32,59.88023952,60c0d16d73ec63ed0d8ffb2e,65d2b6c8f2eece985d8e374c,65d2b7e4021102d09219331a,0.0435,0.0435,1,14,176,0,1,onetwo,,,,,,,,,,,,,,,,,,,,,,,,,,,,,,,,,,,,,,,,,,,,,,,,,,,,,,,,,,,,,,,,,,,,,,,,,,,,,,,,,,,,,,,,,,,,,,,,,,,,,,,,,,,,,,,,,,,,,,,,,,,,,,,,,,,,,,,,,
,,60c0d16d73ec63ed0d8ffb2e,2024-02-19_04h07.55.347,kallum_motion_pilot,2023.2.2,Win32,59.88023952,60c0d16d73ec63ed0d8ffb2e,65d2b6c8f2eece985d8e374c,65d2b7e4021102d09219331a,0.0436,0.0436,1,15,177,110,1,eightsix,,,,,,,,,,,,,,,,,,,,,,,,,,,,,,,,,,,,,,,,,,,,,,,,,,,,,,,,,,,,,,,,,,,,,,,,,,,,,,,,,,,,,,,,,,,,,,,,,,,,,,,,,,,,,,,,,,,,,,,,,,,,,,,,,,,,,,,,,
,,60c0d16d73ec63ed0d8ffb2e,2024-02-19_04h07.55.347,kallum_motion_pilot,2023.2.2,Win32,59.88023952,60c0d16d73ec63ed0d8ffb2e,65d2b6c8f2eece985d8e374c,65d2b7e4021102d09219331a,0.0436,0.0436,1,16,178,21,1,threefour,,,,,,,,,,,,,,,,,,,,,,,,,,,,,,,,,,,,,,,,,,,,,,,,,,,,,,,,,,,,,,,,,,,,,,,,,,,,,,,,,,,,,,,,,,,,,,,,,,,,,,,,,,,,,,,,,,,,,,,,,,,,,,,,,,,,,,,,,
,,60c0d16d73ec63ed0d8ffb2e,2024-02-19_04h07.55.347,kallum_motion_pilot,2023.2.2,Win32,59.88023952,60c0d16d73ec63ed0d8ffb2e,65d2b6c8f2eece985d8e374c,65d2b7e4021102d09219331a,0.0437,0.0438,1,17,179,57,1,onethree,,,,,,,,,,,,,,,,,,,,,,,,,,,,,,,,,,,,,,,,,,,,,,,,,,,,,,,,,,,,,,,,,,,,,,,,,,,,,,,,,,,,,,,,,,,,,,,,,,,,,,,,,,,,,,,,,,,,,,,,,,,,,,,,,,,,,,,,,
,,60c0d16d73ec63ed0d8ffb2e,2024-02-19_04h07.55.347,kallum_motion_pilot,2023.2.2,Win32,59.88023952,60c0d16d73ec63ed0d8ffb2e,65d2b6c8f2eece985d8e374c,65d2b7e4021102d09219331a,0.0438,0.0438,1,18,180,34,1,twoone,,,,,,,,,,,,,,,,,,,,,,,,,,,,,,,,,,,,,,,,,,,,,,,,,,,,,,,,,,,,,,,,,,,,,,,,,,,,,,,,,,,,,,,,,,,,,,,,,,,,,,,,,,,,,,,,,,,,,,,,,,,,,,,,,,,,,,,,,
,,60c0d16d73ec63ed0d8ffb2e,2024-02-19_04h07.55.347,kallum_motion_pilot,2023.2.2,Win32,59.88023952,60c0d16d73ec63ed0d8ffb2e,65d2b6c8f2eece985d8e374c,65d2b7e4021102d09219331a,0.0438,0.0439,1,19,181,7,1,fourthree,,,,,,,,,,,,,,,,,,,,,,,,,,,,,,,,,,,,,,,,,,,,,,,,,,,,,,,,,,,,,,,,,,,,,,,,,,,,,,,,,,,,,,,,,,,,,,,,,,,,,,,,,,,,,,,,,,,,,,,,,,,,,,,,,,,,,,,,,
,,60c0d16d73ec63ed0d8ffb2e,2024-02-19_04h07.55.347,kallum_motion_pilot,2023.2.2,Win32,59.88023952,60c0d16d73ec63ed0d8ffb2e,65d2b6c8f2eece985d8e374c,65d2b7e4021102d09219331a,0.0439,0.0439,1,20,182,126,1,eightsix,,,,,,,,,,,,,,,,,,,,,,,,,,,,,,,,,,,,,,,,,,,,,,,,,,,,,,,,,,,,,,,,,,,,,,,,,,,,,,,,,,,,,,,,,,,,,,,,,,,,,,,,,,,,,,,,,,,,,,,,,,,,,,,,,,,,,,,,,
,,60c0d16d73ec63ed0d8ffb2e,2024-02-19_04h07.55.347,kallum_motion_pilot,2023.2.2,Win32,59.88023952,60c0d16d73ec63ed0d8ffb2e,65d2b6c8f2eece985d8e374c,65d2b7e4021102d09219331a,0.0439,0.0441,1,21,183,116,1,sevenfive,,,,,,,,,,,,,,,,,,,,,,,,,,,,,,,,,,,,,,,,,,,,,,,,,,,,,,,,,,,,,,,,,,,,,,,,,,,,,,,,,,,,,,,,,,,,,,,,,,,,,,,,,,,,,,,,,,,,,,,,,,,,,,,,,,,,,,,,,
,,60c0d16d73ec63ed0d8ffb2e,2024-02-19_04h07.55.347,kallum_motion_pilot,2023.2.2,Win32,59.88023952,60c0d16d73ec63ed0d8ffb2e,65d2b6c8f2eece985d8e374c,65d2b7e4021102d09219331a,0.0441,0.0441,1,22,184,160,1,fivesix,,,,,,,,,,,,,,,,,,,,,,,,,,,,,,,,,,,,,,,,,,,,,,,,,,,,,,,,,,,,,,,,,,,,,,,,,,,,,,,,,,,,,,,,,,,,,,,,,,,,,,,,,,,,,,,,,,,,,,,,,,,,,,,,,,,,,,,,,
,,60c0d16d73ec63ed0d8ffb2e,2024-02-19_04h07.55.347,kallum_motion_pilot,2023.2.2,Win32,59.88023952,60c0d16d73ec63ed0d8ffb2e,65d2b6c8f2eece985d8e374c,65d2b7e4021102d09219331a,0.0441,0.0442,1,23,185,9,1,onethree,,,,,,,,,,,,,,,,,,,,,,,,,,,,,,,,,,,,,,,,,,,,,,,,,,,,,,,,,,,,,,,,,,,,,,,,,,,,,,,,,,,,,,,,,,,,,,,,,,,,,,,,,,,,,,,,,,,,,,,,,,,,,,,,,,,,,,,,,
,,60c0d16d73ec63ed0d8ffb2e,2024-02-19_04h07.55.347,kallum_motion_pilot,2023.2.2,Win32,59.88023952,60c0d16d73ec63ed0d8ffb2e,65d2b6c8f2eece985d8e374c,65d2b7e4021102d09219331a,0.0443,0.0443,1,24,186,55,1,fourthree,,,,,,,,,,,,,,,,,,,,,,,,,,,,,,,,,,,,,,,,,,,,,,,,,,,,,,,,,,,,,,,,,,,,,,,,,,,,,,,,,,,,,,,,,,,,,,,,,,,,,,,,,,,,,,,,,,,,,,,,,,,,,,,,,,,,,,,,,
,,60c0d16d73ec63ed0d8ffb2e,2024-02-19_04h07.55.347,kallum_motion_pilot,2023.2.2,Win32,59.88023952,60c0d16d73ec63ed0d8ffb2e,65d2b6c8f2eece985d8e374c,65d2b7e4021102d09219331a,0.0444,0.0445,1,25,187,40,1,onetwo,,,,,,,,,,,,,,,,,,,,,,,,,,,,,,,,,,,,,,,,,,,,,,,,,,,,,,,,,,,,,,,,,,,,,,,,,,,,,,,,,,,,,,,,,,,,,,,,,,,,,,,,,,,,,,,,,,,,,,,,,,,,,,,,,,,,,,,,,
,,60c0d16d73ec63ed0d8ffb2e,2024-02-19_04h07.55.347,kallum_motion_pilot,2023.2.2,Win32,59.88023952,60c0d16d73ec63ed0d8ffb2e,65d2b6c8f2eece985d8e374c,65d2b7e4021102d09219331a,0.0445,0.0445,1,26,188,115,1,sixeight,,,,,,,,,,,,,,,,,,,,,,,,,,,,,,,,,,,,,,,,,,,,,,,,,,,,,,,,,,,,,,,,,,,,,,,,,,,,,,,,,,,,,,,,,,,,,,,,,,,,,,,,,,,,,,,,,,,,,,,,,,,,,,,,,,,,,,,,,
,,60c0d16d73ec63ed0d8ffb2e,2024-02-19_04h07.55.347,kallum_motion_pilot,2023.2.2,Win32,59.88023952,60c0d16d73ec63ed0d8ffb2e,65d2b6c8f2eece985d8e374c,65d2b7e4021102d09219331a,0.0445,0.0447,1,27,189,28,1,threeone,,,,,,,,,,,,,,,,,,,,,,,,,,,,,,,,,,,,,,,,,,,,,,,,,,,,,,,,,,,,,,,,,,,,,,,,,,,,,,,,,,,,,,,,,,,,,,,,,,,,,,,,,,,,,,,,,,,,,,,,,,,,,,,,,,,,,,,,,
,,60c0d16d73ec63ed0d8ffb2e,2024-02-19_04h07.55.347,kallum_motion_pilot,2023.2.2,Win32,59.88023952,60c0d16d73ec63ed0d8ffb2e,65d2b6c8f2eece985d8e374c,65d2b7e4021102d09219331a,0.0447,0.0447,1,28,190,68,1,threeone,,,,,,,,,,,,,,,,,,,,,,,,,,,,,,,,,,,,,,,,,,,,,,,,,,,,,,,,,,,,,,,,,,,,,,,,,,,,,,,,,,,,,,,,,,,,,,,,,,,,,,,,,,,,,,,,,,,,,,,,,,,,,,,,,,,,,,,,,
,,60c0d16d73ec63ed0d8ffb2e,2024-02-19_04h07.55.347,kallum_motion_pilot,2023.2.2,Win32,59.88023952,60c0d16d73ec63ed0d8ffb2e,65d2b6c8f2eece985d8e374c,65d2b7e4021102d09219331a,0.0447,0.0448,1,29,191,20,1,threeone,,,,,,,,,,,,,,,,,,,,,,,,,,,,,,,,,,,,,,,,,,,,,,,,,,,,,,,,,,,,,,,,,,,,,,,,,,,,,,,,,,,,,,,,,,,,,,,,,,,,,,,,,,,,,,,,,,,,,,,,,,,,,,,,,,,,,,,,,
,,60c0d16d73ec63ed0d8ffb2e,2024-02-19_04h07.55.347,kallum_motion_pilot,2023.2.2,Win32,59.88023952,60c0d16d73ec63ed0d8ffb2e,65d2b6c8f2eece985d8e374c,65d2b7e4021102d09219331a,0.0449,0.0449,1,30,192,29,1,threefour,,,,,,,,,,,,,,,,,,,,,,,,,,,,,,,,,,,,,,,,,,,,,,,,,,,,,,,,,,,,,,,,,,,,,,,,,,,,,,,,,,,,,,,,,,,,,,,,,,,,,,,,,,,,,,,,,,,,,,,,,,,,,,,,,,,,,,,,,
,,60c0d16d73ec63ed0d8ffb2e,2024-02-19_04h07.55.347,kallum_motion_pilot,2023.2.2,Win32,59.88023952,60c0d16d73ec63ed0d8ffb2e,65d2b6c8f2eece985d8e374c,65d2b7e4021102d09219331a,0.0449,0.045,1,31,193,104,1,fivesix,,,,,,,,,,,,,,,,,,,,,,,,,,,,,,,,,,,,,,,,,,,,,,,,,,,,,,,,,,,,,,,,,,,,,,,,,,,,,,,,,,,,,,,,,,,,,,,,,,,,,,,,,,,,,,,,,,,,,,,,,,,,,,,,,,,,,,,,,
,,60c0d16d73ec63ed0d8ffb2e,2024-02-19_04h07.55.347,kallum_motion_pilot,2023.2.2,Win32,59.88023952,60c0d16d73ec63ed0d8ffb2e,65d2b6c8f2eece985d8e374c,65d2b7e4021102d09219331a,0.045,0.045,1,32,194,119,1,eightseven,,,,,,,,,,,,,,,,,,,,,,,,,,,,,,,,,,,,,,,,,,,,,,,,,,,,,,,,,,,,,,,,,,,,,,,,,,,,,,,,,,,,,,,,,,,,,,,,,,,,,,,,,,,,,,,,,,,,,,,,,,,,,,,,,,,,,,,,,
,,60c0d16d73ec63ed0d8ffb2e,2024-02-19_04h07.55.347,kallum_motion_pilot,2023.2.2,Win32,59.88023952,60c0d16d73ec63ed0d8ffb2e,65d2b6c8f2eece985d8e374c,65d2b7e4021102d09219331a,0.0451,0.0451,1,33,195,63,1,fourthree,,,,,,,,,,,,,,,,,,,,,,,,,,,,,,,,,,,,,,,,,,,,,,,,,,,,,,,,,,,,,,,,,,,,,,,,,,,,,,,,,,,,,,,,,,,,,,,,,,,,,,,,,,,,,,,,,,,,,,,,,,,,,,,,,,,,,,,,,
,,60c0d16d73ec63ed0d8ffb2e,2024-02-19_04h07.55.347,kallum_motion_pilot,2023.2.2,Win32,59.88023952,60c0d16d73ec63ed0d8ffb2e,65d2b6c8f2eece985d8e374c,65d2b7e4021102d09219331a,0.0452,0.0454,1,34,196,93,1,seveneight,,,,,,,,,,,,,,,,,,,,,,,,,,,,,,,,,,,,,,,,,,,,,,,,,,,,,,,,,,,,,,,,,,,,,,,,,,,,,,,,,,,,,,,,,,,,,,,,,,,,,,,,,,,,,,,,,,,,,,,,,,,,,,,,,,,,,,,,,
,,60c0d16d73ec63ed0d8ffb2e,2024-02-19_04h07.55.347,kallum_motion_pilot,2023.2.2,Win32,59.88023952,60c0d16d73ec63ed0d8ffb2e,65d2b6c8f2eece985d8e374c,65d2b7e4021102d09219331a,0.0455,0.0456,1,35,197,24,1,onetwo,,,,,,,,,,,,,,,,,,,,,,,,,,,,,,,,,,,,,,,,,,,,,,,,,,,,,,,,,,,,,,,,,,,,,,,,,,,,,,,,,,,,,,,,,,,,,,,,,,,,,,,,,,,,,,,,,,,,,,,,,,,,,,,,,,,,,,,,,
,,60c0d16d73ec63ed0d8ffb2e,2024-02-19_04h07.55.347,kallum_motion_pilot,2023.2.2,Win32,59.88023952,60c0d16d73ec63ed0d8ffb2e,65d2b6c8f2eece985d8e374c,65d2b7e4021102d09219331a,0.0456,0.0456,1,36,198,87,1,eightseven,,,,,,,,,,,,,,,,,,,,,,,,,,,,,,,,,,,,,,,,,,,,,,,,,,,,,,,,,,,,,,,,,,,,,,,,,,,,,,,,,,,,,,,,,,,,,,,,,,,,,,,,,,,,,,,,,,,,,,,,,,,,,,,,,,,,,,,,,
,,60c0d16d73ec63ed0d8ffb2e,2024-02-19_04h07.55.347,kallum_motion_pilot,2023.2.2,Win32,59.88023952,60c0d16d73ec63ed0d8ffb2e,65d2b6c8f2eece985d8e374c,65d2b7e4021102d09219331a,0.0457,0.0457,1,37,199,95,1,eightseven,,,,,,,,,,,,,,,,,,,,,,,,,,,,,,,,,,,,,,,,,,,,,,,,,,,,,,,,,,,,,,,,,,,,,,,,,,,,,,,,,,,,,,,,,,,,,,,,,,,,,,,,,,,,,,,,,,,,,,,,,,,,,,,,,,,,,,,,,
,,60c0d16d73ec63ed0d8ffb2e,2024-02-19_04h07.55.347,kallum_motion_pilot,2023.2.2,Win32,59.88023952,60c0d16d73ec63ed0d8ffb2e,65d2b6c8f2eece985d8e374c,65d2b7e4021102d09219331a,0.0457,0.0458,1,38,200,136,1,fivesix,,,,,,,,,,,,,,,,,,,,,,,,,,,,,,,,,,,,,,,,,,,,,,,,,,,,,,,,,,,,,,,,,,,,,,,,,,,,,,,,,,,,,,,,,,,,,,,,,,,,,,,,,,,,,,,,,,,,,,,,,,,,,,,,,,,,,,,,,
,,60c0d16d73ec63ed0d8ffb2e,2024-02-19_04h07.55.347,kallum_motion_pilot,2023.2.2,Win32,59.88023952,60c0d16d73ec63ed0d8ffb2e,65d2b6c8f2eece985d8e374c,65d2b7e4021102d09219331a,0.0459,0.0459,1,39,201,92,1,sevenfive,,,,,,,,,,,,,,,,,,,,,,,,,,,,,,,,,,,,,,,,,,,,,,,,,,,,,,,,,,,,,,,,,,,,,,,,,,,,,,,,,,,,,,,,,,,,,,,,,,,,,,,,,,,,,,,,,,,,,,,,,,,,,,,,,,,,,,,,,
,,60c0d16d73ec63ed0d8ffb2e,2024-02-19_04h07.55.347,kallum_motion_pilot,2023.2.2,Win32,59.88023952,60c0d16d73ec63ed0d8ffb2e,65d2b6c8f2eece985d8e374c,65d2b7e4021102d09219331a,0.0459,0.046,1,40,202,39,1,fourthree,,,,,,,,,,,,,,,,,,,,,,,,,,,,,,,,,,,,,,,,,,,,,,,,,,,,,,,,,,,,,,,,,,,,,,,,,,,,,,,,,,,,,,,,,,,,,,,,,,,,,,,,,,,,,,,,,,,,,,,,,,,,,,,,,,,,,,,,,
,,60c0d16d73ec63ed0d8ffb2e,2024-02-19_04h07.55.347,kallum_motion_pilot,2023.2.2,Win32,59.88023952,60c0d16d73ec63ed0d8ffb2e,65d2b6c8f2eece985d8e374c,65d2b7e4021102d09219331a,0.046,0.0461,1,41,203,159,1,eightseven,,,,,,,,,,,,,,,,,,,,,,,,,,,,,,,,,,,,,,,,,,,,,,,,,,,,,,,,,,,,,,,,,,,,,,,,,,,,,,,,,,,,,,,,,,,,,,,,,,,,,,,,,,,,,,,,,,,,,,,,,,,,,,,,,,,,,,,,,
,,60c0d16d73ec63ed0d8ffb2e,2024-02-19_04h07.55.347,kallum_motion_pilot,2023.2.2,Win32,59.88023952,60c0d16d73ec63ed0d8ffb2e,65d2b6c8f2eece985d8e374c,65d2b7e4021102d09219331a,0.0461,0.0461,1,42,204,79,1,eightseven,,,,,,,,,,,,,,,,,,,,,,,,,,,,,,,,,,,,,,,,,,,,,,,,,,,,,,,,,,,,,,,,,,,,,,,,,,,,,,,,,,,,,,,,,,,,,,,,,,,,,,,,,,,,,,,,,,,,,,,,,,,,,,,,,,,,,,,,,
,,60c0d16d73ec63ed0d8ffb2e,2024-02-19_04h07.55.347,kallum_motion_pilot,2023.2.2,Win32,59.88023952,60c0d16d73ec63ed0d8ffb2e,65d2b6c8f2eece985d8e374c,65d2b7e4021102d09219331a,0.0462,0.0462,1,43,205,138,1,sixfive,,,,,,,,,,,,,,,,,,,,,,,,,,,,,,,,,,,,,,,,,,,,,,,,,,,,,,,,,,,,,,,,,,,,,,,,,,,,,,,,,,,,,,,,,,,,,,,,,,,,,,,,,,,,,,,,,,,,,,,,,,,,,,,,,,,,,,,,,
,,60c0d16d73ec63ed0d8ffb2e,2024-02-19_04h07.55.347,kallum_motion_pilot,2023.2.2,Win32,59.88023952,60c0d16d73ec63ed0d8ffb2e,65d2b6c8f2eece985d8e374c,65d2b7e4021102d09219331a,0.0462,0.0463,1,44,206,38,1,fourtwo,,,,,,,,,,,,,,,,,,,,,,,,,,,,,,,,,,,,,,,,,,,,,,,,,,,,,,,,,,,,,,,,,,,,,,,,,,,,,,,,,,,,,,,,,,,,,,,,,,,,,,,,,,,,,,,,,,,,,,,,,,,,,,,,,,,,,,,,,
,,60c0d16d73ec63ed0d8ffb2e,2024-02-19_04h07.55.347,kallum_motion_pilot,2023.2.2,Win32,59.88023952,60c0d16d73ec63ed0d8ffb2e,65d2b6c8f2eece985d8e374c,65d2b7e4021102d09219331a,0.0463,0.0464,1,45,207,13,1,threefour,,,,,,,,,,,,,,,,,,,,,,,,,,,,,,,,,,,,,,,,,,,,,,,,,,,,,,,,,,,,,,,,,,,,,,,,,,,,,,,,,,,,,,,,,,,,,,,,,,,,,,,,,,,,,,,,,,,,,,,,,,,,,,,,,,,,,,,,,
,,60c0d16d73ec63ed0d8ffb2e,2024-02-19_04h07.55.347,kallum_motion_pilot,2023.2.2,Win32,59.88023952,60c0d16d73ec63ed0d8ffb2e,65d2b6c8f2eece985d8e374c,65d2b7e4021102d09219331a,0.0466,0.0466,1,46,208,77,1,threefour,,,,,,,,,,,,,,,,,,,,,,,,,,,,,,,,,,,,,,,,,,,,,,,,,,,,,,,,,,,,,,,,,,,,,,,,,,,,,,,,,,,,,,,,,,,,,,,,,,,,,,,,,,,,,,,,,,,,,,,,,,,,,,,,,,,,,,,,,
,,60c0d16d73ec63ed0d8ffb2e,2024-02-19_04h07.55.347,kallum_motion_pilot,2023.2.2,Win32,59.88023952,60c0d16d73ec63ed0d8ffb2e,65d2b6c8f2eece985d8e374c,65d2b7e4021102d09219331a,0.0466,0.0466,1,47,209,70,1,fourtwo,,,,,,,,,,,,,,,,,,,,,,,,,,,,,,,,,,,,,,,,,,,,,,,,,,,,,,,,,,,,,,,,,,,,,,,,,,,,,,,,,,,,,,,,,,,,,,,,,,,,,,,,,,,,,,,,,,,,,,,,,,,,,,,,,,,,,,,,,
,,60c0d16d73ec63ed0d8ffb2e,2024-02-19_04h07.55.347,kallum_motion_pilot,2023.2.2,Win32,59.88023952,60c0d16d73ec63ed0d8ffb2e,65d2b6c8f2eece985d8e374c,65d2b7e4021102d09219331a,0.0467,0.0468,1,48,210,128,1,fivesix,,,,,,,,,,,,,,,,,,,,,,,,,,,,,,,,,,,,,,,,,,,,,,,,,,,,,,,,,,,,,,,,,,,,,,,,,,,,,,,,,,,,,,,,,,,,,,,,,,,,,,,,,,,,,,,,,,,,,,,,,,,,,,,,,,,,,,,,,
,,60c0d16d73ec63ed0d8ffb2e,2024-02-19_04h07.55.347,kallum_motion_pilot,2023.2.2,Win32,59.88023952,60c0d16d73ec63ed0d8ffb2e,65d2b6c8f2eece985d8e374c,65d2b7e4021102d09219331a,0.0468,0.0468,1,49,211,49,1,onethree,,,,,,,,,,,,,,,,,,,,,,,,,,,,,,,,,,,,,,,,,,,,,,,,,,,,,,,,,,,,,,,,,,,,,,,,,,,,,,,,,,,,,,,,,,,,,,,,,,,,,,,,,,,,,,,,,,,,,,,,,,,,,,,,,,,,,,,,,
,,60c0d16d73ec63ed0d8ffb2e,2024-02-19_04h07.55.347,kallum_motion_pilot,2023.2.2,Win32,59.88023952,60c0d16d73ec63ed0d8ffb2e,65d2b6c8f2eece985d8e374c,65d2b7e4021102d09219331a,0.047,0.0471,1,50,212,140,1,sevenfive,,,,,,,,,,,,,,,,,,,,,,,,,,,,,,,,,,,,,,,,,,,,,,,,,,,,,,,,,,,,,,,,,,,,,,,,,,,,,,,,,,,,,,,,,,,,,,,,,,,,,,,,,,,,,,,,,,,,,,,,,,,,,,,,,,,,,,,,,
,,60c0d16d73ec63ed0d8ffb2e,2024-02-19_04h07.55.347,kallum_motion_pilot,2023.2.2,Win32,59.88023952,60c0d16d73ec63ed0d8ffb2e,65d2b6c8f2eece985d8e374c,65d2b7e4021102d09219331a,0.0472,0.0472,1,51,213,158,1,eightsix,,,,,,,,,,,,,,,,,,,,,,,,,,,,,,,,,,,,,,,,,,,,,,,,,,,,,,,,,,,,,,,,,,,,,,,,,,,,,,,,,,,,,,,,,,,,,,,,,,,,,,,,,,,,,,,,,,,,,,,,,,,,,,,,,,,,,,,,,
,,60c0d16d73ec63ed0d8ffb2e,2024-02-19_04h07.55.347,kallum_motion_pilot,2023.2.2,Win32,59.88023952,60c0d16d73ec63ed0d8ffb2e,65d2b6c8f2eece985d8e374c,65d2b7e4021102d09219331a,0.0472,0.0472,1,52,214,117,1,seveneight,,,,,,,,,,,,,,,,,,,,,,,,,,,,,,,,,,,,,,,,,,,,,,,,,,,,,,,,,,,,,,,,,,,,,,,,,,,,,,,,,,,,,,,,,,,,,,,,,,,,,,,,,,,,,,,,,,,,,,,,,,,,,,,,,,,,,,,,,
,,60c0d16d73ec63ed0d8ffb2e,2024-02-19_04h07.55.347,kallum_motion_pilot,2023.2.2,Win32,59.88023952,60c0d16d73ec63ed0d8ffb2e,65d2b6c8f2eece985d8e374c,65d2b7e4021102d09219331a,0.0473,0.0473,1,53,215,48,1,onetwo,,,,,,,,,,,,,,,,,,,,,,,,,,,,,,,,,,,,,,,,,,,,,,,,,,,,,,,,,,,,,,,,,,,,,,,,,,,,,,,,,,,,,,,,,,,,,,,,,,,,,,,,,,,,,,,,,,,,,,,,,,,,,,,,,,,,,,,,,
,,60c0d16d73ec63ed0d8ffb2e,2024-02-19_04h07.55.347,kallum_motion_pilot,2023.2.2,Win32,59.88023952,60c0d16d73ec63ed0d8ffb2e,65d2b6c8f2eece985d8e374c,65d2b7e4021102d09219331a,0.0474,0.0475,1,54,216,145,1,fiveseven,,,,,,,,,,,,,,,,,,,,,,,,,,,,,,,,,,,,,,,,,,,,,,,,,,,,,,,,,,,,,,,,,,,,,,,,,,,,,,,,,,,,,,,,,,,,,,,,,,,,,,,,,,,,,,,,,,,,,,,,,,,,,,,,,,,,,,,,,
,,60c0d16d73ec63ed0d8ffb2e,2024-02-19_04h07.55.347,kallum_motion_pilot,2023.2.2,Win32,59.88023952,60c0d16d73ec63ed0d8ffb2e,65d2b6c8f2eece985d8e374c,65d2b7e4021102d09219331a,0.0475,0.0475,1,55,217,108,1,sevenfive,,,,,,,,,,,,,,,,,,,,,,,,,,,,,,,,,,,,,,,,,,,,,,,,,,,,,,,,,,,,,,,,,,,,,,,,,,,,,,,,,,,,,,,,,,,,,,,,,,,,,,,,,,,,,,,,,,,,,,,,,,,,,,,,,,,,,,,,,
,,60c0d16d73ec63ed0d8ffb2e,2024-02-19_04h07.55.347,kallum_motion_pilot,2023.2.2,Win32,59.88023952,60c0d16d73ec63ed0d8ffb2e,65d2b6c8f2eece985d8e374c,65d2b7e4021102d09219331a,0.0476,0.0476,1,56,218,103,1,eightseven,,,,,,,,,,,,,,,,,,,,,,,,,,,,,,,,,,,,,,,,,,,,,,,,,,,,,,,,,,,,,,,,,,,,,,,,,,,,,,,,,,,,,,,,,,,,,,,,,,,,,,,,,,,,,,,,,,,,,,,,,,,,,,,,,,,,,,,,,
,,60c0d16d73ec63ed0d8ffb2e,2024-02-19_04h07.55.347,kallum_motion_pilot,2023.2.2,Win32,59.88023952,60c0d16d73ec63ed0d8ffb2e,65d2b6c8f2eece985d8e374c,65d2b7e4021102d09219331a,0.0477,0.0477,1,57,219,122,1,sixfive,,,,,,,,,,,,,,,,,,,,,,,,,,,,,,,,,,,,,,,,,,,,,,,,,,,,,,,,,,,,,,,,,,,,,,,,,,,,,,,,,,,,,,,,,,,,,,,,,,,,,,,,,,,,,,,,,,,,,,,,,,,,,,,,,,,,,,,,,
,,60c0d16d73ec63ed0d8ffb2e,2024-02-19_04h07.55.347,kallum_motion_pilot,2023.2.2,Win32,59.88023952,60c0d16d73ec63ed0d8ffb2e,65d2b6c8f2eece985d8e374c,65d2b7e4021102d09219331a,0.0478,0.0478,1,58,220,42,1,twoone,,,,,,,,,,,,,,,,,,,,,,,,,,,,,,,,,,,,,,,,,,,,,,,,,,,,,,,,,,,,,,,,,,,,,,,,,,,,,,,,,,,,,,,,,,,,,,,,,,,,,,,,,,,,,,,,,,,,,,,,,,,,,,,,,,,,,,,,,
,,60c0d16d73ec63ed0d8ffb2e,2024-02-19_04h07.55.347,kallum_motion_pilot,2023.2.2,Win32,59.88023952,60c0d16d73ec63ed0d8ffb2e,65d2b6c8f2eece985d8e374c,65d2b7e4021102d09219331a,0.0478,0.0479,1,59,221,102,1,eightsix,,,,,,,,,,,,,,,,,,,,,,,,,,,,,,,,,,,,,,,,,,,,,,,,,,,,,,,,,,,,,,,,,,,,,,,,,,,,,,,,,,,,,,,,,,,,,,,,,,,,,,,,,,,,,,,,,,,,,,,,,,,,,,,,,,,,,,,,,
,,60c0d16d73ec63ed0d8ffb2e,2024-02-19_04h07.55.347,kallum_motion_pilot,2023.2.2,Win32,59.88023952,60c0d16d73ec63ed0d8ffb2e,65d2b6c8f2eece985d8e374c,65d2b7e4021102d09219331a,0.0479,0.048,1,60,222,19,1,twofour,,,,,,,,,,,,,,,,,,,,,,,,,,,,,,,,,,,,,,,,,,,,,,,,,,,,,,,,,,,,,,,,,,,,,,,,,,,,,,,,,,,,,,,,,,,,,,,,,,,,,,,,,,,,,,,,,,,,,,,,,,,,,,,,,,,,,,,,,
,,60c0d16d73ec63ed0d8ffb2e,2024-02-19_04h07.55.347,kallum_motion_pilot,2023.2.2,Win32,59.88023952,60c0d16d73ec63ed0d8ffb2e,65d2b6c8f2eece985d8e374c,65d2b7e4021102d09219331a,0.0481,0.0481,1,61,223,41,1,onethree,,,,,,,,,,,,,,,,,,,,,,,,,,,,,,,,,,,,,,,,,,,,,,,,,,,,,,,,,,,,,,,,,,,,,,,,,,,,,,,,,,,,,,,,,,,,,,,,,,,,,,,,,,,,,,,,,,,,,,,,,,,,,,,,,,,,,,,,,
,,60c0d16d73ec63ed0d8ffb2e,2024-02-19_04h07.55.347,kallum_motion_pilot,2023.2.2,Win32,59.88023952,60c0d16d73ec63ed0d8ffb2e,65d2b6c8f2eece985d8e374c,65d2b7e4021102d09219331a,0.0482,0.0482,1,62,224,66,1,twoone,,,,,,,,,,,,,,,,,,,,,,,,,,,,,,,,,,,,,,,,,,,,,,,,,,,,,,,,,,,,,,,,,,,,,,,,,,,,,,,,,,,,,,,,,,,,,,,,,,,,,,,,,,,,,,,,,,,,,,,,,,,,,,,,,,,,,,,,,
,,60c0d16d73ec63ed0d8ffb2e,2024-02-19_04h07.55.347,kallum_motion_pilot,2023.2.2,Win32,59.88023952,60c0d16d73ec63ed0d8ffb2e,65d2b6c8f2eece985d8e374c,65d2b7e4021102d09219331a,0.0482,0.0483,1,63,225,99,1,sixeight,,,,,,,,,,,,,,,,,,,,,,,,,,,,,,,,,,,,,,,,,,,,,,,,,,,,,,,,,,,,,,,,,,,,,,,,,,,,,,,,,,,,,,,,,,,,,,,,,,,,,,,,,,,,,,,,,,,,,,,,,,,,,,,,,,,,,,,,,
,,60c0d16d73ec63ed0d8ffb2e,2024-02-19_04h07.55.347,kallum_motion_pilot,2023.2.2,Win32,59.88023952,60c0d16d73ec63ed0d8ffb2e,65d2b6c8f2eece985d8e374c,65d2b7e4021102d09219331a,0.0484,0.0485,1,64,226,127,1,eightseven,,,,,,,,,,,,,,,,,,,,,,,,,,,,,,,,,,,,,,,,,,,,,,,,,,,,,,,,,,,,,,,,,,,,,,,,,,,,,,,,,,,,,,,,,,,,,,,,,,,,,,,,,,,,,,,,,,,,,,,,,,,,,,,,,,,,,,,,,
,,60c0d16d73ec63ed0d8ffb2e,2024-02-19_04h07.55.347,kallum_motion_pilot,2023.2.2,Win32,59.88023952,60c0d16d73ec63ed0d8ffb2e,65d2b6c8f2eece985d8e374c,65d2b7e4021102d09219331a,0.0485,0.0485,1,65,227,143,1,eightseven,,,,,,,,,,,,,,,,,,,,,,,,,,,,,,,,,,,,,,,,,,,,,,,,,,,,,,,,,,,,,,,,,,,,,,,,,,,,,,,,,,,,,,,,,,,,,,,,,,,,,,,,,,,,,,,,,,,,,,,,,,,,,,,,,,,,,,,,,
,,60c0d16d73ec63ed0d8ffb2e,2024-02-19_04h07.55.347,kallum_motion_pilot,2023.2.2,Win32,59.88023952,60c0d16d73ec63ed0d8ffb2e,65d2b6c8f2eece985d8e374c,65d2b7e4021102d09219331a,0.0485,0.0486,1,66,228,52,1,threeone,,,,,,,,,,,,,,,,,,,,,,,,,,,,,,,,,,,,,,,,,,,,,,,,,,,,,,,,,,,,,,,,,,,,,,,,,,,,,,,,,,,,,,,,,,,,,,,,,,,,,,,,,,,,,,,,,,,,,,,,,,,,,,,,,,,,,,,,,
,,60c0d16d73ec63ed0d8ffb2e,2024-02-19_04h07.55.347,kallum_motion_pilot,2023.2.2,Win32,59.88023952,60c0d16d73ec63ed0d8ffb2e,65d2b6c8f2eece985d8e374c,65d2b7e4021102d09219331a,0.0487,0.0487,1,67,229,157,1,seveneight,,,,,,,,,,,,,,,,,,,,,,,,,,,,,,,,,,,,,,,,,,,,,,,,,,,,,,,,,,,,,,,,,,,,,,,,,,,,,,,,,,,,,,,,,,,,,,,,,,,,,,,,,,,,,,,,,,,,,,,,,,,,,,,,,,,,,,,,,
,,60c0d16d73ec63ed0d8ffb2e,2024-02-19_04h07.55.347,kallum_motion_pilot,2023.2.2,Win32,59.88023952,60c0d16d73ec63ed0d8ffb2e,65d2b6c8f2eece985d8e374c,65d2b7e4021102d09219331a,0.0487,0.0488,1,68,230,97,1,fiveseven,,,,,,,,,,,,,,,,,,,,,,,,,,,,,,,,,,,,,,,,,,,,,,,,,,,,,,,,,,,,,,,,,,,,,,,,,,,,,,,,,,,,,,,,,,,,,,,,,,,,,,,,,,,,,,,,,,,,,,,,,,,,,,,,,,,,,,,,,
,,60c0d16d73ec63ed0d8ffb2e,2024-02-19_04h07.55.347,kallum_motion_pilot,2023.2.2,Win32,59.88023952,60c0d16d73ec63ed0d8ffb2e,65d2b6c8f2eece985d8e374c,65d2b7e4021102d09219331a,0.0489,0.0489,1,69,231,106,1,sixfive,,,,,,,,,,,,,,,,,,,,,,,,,,,,,,,,,,,,,,,,,,,,,,,,,,,,,,,,,,,,,,,,,,,,,,,,,,,,,,,,,,,,,,,,,,,,,,,,,,,,,,,,,,,,,,,,,,,,,,,,,,,,,,,,,,,,,,,,,
,,60c0d16d73ec63ed0d8ffb2e,2024-02-19_04h07.55.347,kallum_motion_pilot,2023.2.2,Win32,59.88023952,60c0d16d73ec63ed0d8ffb2e,65d2b6c8f2eece985d8e374c,65d2b7e4021102d09219331a,0.049,0.049,1,70,232,1,1,onethree,,,,,,,,,,,,,,,,,,,,,,,,,,,,,,,,,,,,,,,,,,,,,,,,,,,,,,,,,,,,,,,,,,,,,,,,,,,,,,,,,,,,,,,,,,,,,,,,,,,,,,,,,,,,,,,,,,,,,,,,,,,,,,,,,,,,,,,,,
,,60c0d16d73ec63ed0d8ffb2e,2024-02-19_04h07.55.347,kallum_motion_pilot,2023.2.2,Win32,59.88023952,60c0d16d73ec63ed0d8ffb2e,65d2b6c8f2eece985d8e374c,65d2b7e4021102d09219331a,0.049,0.0491,1,71,233,60,1,threeone,,,,,,,,,,,,,,,,,,,,,,,,,,,,,,,,,,,,,,,,,,,,,,,,,,,,,,,,,,,,,,,,,,,,,,,,,,,,,,,,,,,,,,,,,,,,,,,,,,,,,,,,,,,,,,,,,,,,,,,,,,,,,,,,,,,,,,,,,
,,60c0d16d73ec63ed0d8ffb2e,2024-02-19_04h07.55.347,kallum_motion_pilot,2023.2.2,Win32,59.88023952,60c0d16d73ec63ed0d8ffb2e,65d2b6c8f2eece985d8e374c,65d2b7e4021102d09219331a,0.0491,0.0492,1,72,234,155,1,sixeight,,,,,,,,,,,,,,,,,,,,,,,,,,,,,,,,,,,,,,,,,,,,,,,,,,,,,,,,,,,,,,,,,,,,,,,,,,,,,,,,,,,,,,,,,,,,,,,,,,,,,,,,,,,,,,,,,,,,,,,,,,,,,,,,,,,,,,,,,
,,60c0d16d73ec63ed0d8ffb2e,2024-02-19_04h07.55.347,kallum_motion_pilot,2023.2.2,Win32,59.88023952,60c0d16d73ec63ed0d8ffb2e,65d2b6c8f2eece985d8e374c,65d2b7e4021102d09219331a,0.0493,0.0494,1,73,235,153,1,fiveseven,,,,,,,,,,,,,,,,,,,,,,,,,,,,,,,,,,,,,,,,,,,,,,,,,,,,,,,,,,,,,,,,,,,,,,,,,,,,,,,,,,,,,,,,,,,,,,,,,,,,,,,,,,,,,,,,,,,,,,,,,,,,,,,,,,,,,,,,,
,,60c0d16d73ec63ed0d8ffb2e,2024-02-19_04h07.55.347,kallum_motion_pilot,2023.2.2,Win32,59.88023952,60c0d16d73ec63ed0d8ffb2e,65d2b6c8f2eece985d8e374c,65d2b7e4021102d09219331a,0.0495,0.0495,1,74,236,133,1,seveneight,,,,,,,,,,,,,,,,,,,,,,,,,,,,,,,,,,,,,,,,,,,,,,,,,,,,,,,,,,,,,,,,,,,,,,,,,,,,,,,,,,,,,,,,,,,,,,,,,,,,,,,,,,,,,,,,,,,,,,,,,,,,,,,,,,,,,,,,,
,,60c0d16d73ec63ed0d8ffb2e,2024-02-19_04h07.55.347,kallum_motion_pilot,2023.2.2,Win32,59.88023952,60c0d16d73ec63ed0d8ffb2e,65d2b6c8f2eece985d8e374c,65d2b7e4021102d09219331a,0.0495,0.0496,1,75,237,14,1,fourtwo,,,,,,,,,,,,,,,,,,,,,,,,,,,,,,,,,,,,,,,,,,,,,,,,,,,,,,,,,,,,,,,,,,,,,,,,,,,,,,,,,,,,,,,,,,,,,,,,,,,,,,,,,,,,,,,,,,,,,,,,,,,,,,,,,,,,,,,,,
,,60c0d16d73ec63ed0d8ffb2e,2024-02-19_04h07.55.347,kallum_motion_pilot,2023.2.2,Win32,59.88023952,60c0d16d73ec63ed0d8ffb2e,65d2b6c8f2eece985d8e374c,65d2b7e4021102d09219331a,0.0497,0.0497,1,76,238,56,1,onetwo,,,,,,,,,,,,,,,,,,,,,,,,,,,,,,,,,,,,,,,,,,,,,,,,,,,,,,,,,,,,,,,,,,,,,,,,,,,,,,,,,,,,,,,,,,,,,,,,,,,,,,,,,,,,,,,,,,,,,,,,,,,,,,,,,,,,,,,,,
,,60c0d16d73ec63ed0d8ffb2e,2024-02-19_04h07.55.347,kallum_motion_pilot,2023.2.2,Win32,59.88023952,60c0d16d73ec63ed0d8ffb2e,65d2b6c8f2eece985d8e374c,65d2b7e4021102d09219331a,0.0498,0.0499,1,77,239,83,1,sixeight,,,,,,,,,,,,,,,,,,,,,,,,,,,,,,,,,,,,,,,,,,,,,,,,,,,,,,,,,,,,,,,,,,,,,,,,,,,,,,,,,,,,,,,,,,,,,,,,,,,,,,,,,,,,,,,,,,,,,,,,,,,,,,,,,,,,,,,,,
,,60c0d16d73ec63ed0d8ffb2e,2024-02-19_04h07.55.347,kallum_motion_pilot,2023.2.2,Win32,59.88023952,60c0d16d73ec63ed0d8ffb2e,65d2b6c8f2eece985d8e374c,65d2b7e4021102d09219331a,0.0499,0.0499,1,78,240,80,1,fivesix,,,,,,,,,,,,,,,,,,,,,,,,,,,,,,,,,,,,,,,,,,,,,,,,,,,,,,,,,,,,,,,,,,,,,,,,,,,,,,,,,,,,,,,,,,,,,,,,,,,,,,,,,,,,,,,,,,,,,,,,,,,,,,,,,,,,,,,,,
,,60c0d16d73ec63ed0d8ffb2e,2024-02-19_04h07.55.347,kallum_motion_pilot,2023.2.2,Win32,59.88023952,60c0d16d73ec63ed0d8ffb2e,65d2b6c8f2eece985d8e374c,65d2b7e4021102d09219331a,0.05,0.0501,1,79,241,69,1,threefour,,,,,,,,,,,,,,,,,,,,,,,,,,,,,,,,,,,,,,,,,,,,,,,,,,,,,,,,,,,,,,,,,,,,,,,,,,,,,,,,,,,,,,,,,,,,,,,,,,,,,,,,,,,,,,,,,,,,,,,,,,,,,,,,,,,,,,,,,
,,60c0d16d73ec63ed0d8ffb2e,2024-02-19_04h07.55.347,kallum_motion_pilot,2023.2.2,Win32,59.88023952,60c0d16d73ec63ed0d8ffb2e,65d2b6c8f2eece985d8e374c,65d2b7e4021102d09219331a,0.0501,0.0501,1,80,242,88,1,fivesix,,,,,,,,,,,,,,,,,,,,,,,,,,,,,,,,,,,,,,,,,,,,,,,,,,,,,,,,,,,,,,,,,,,,,,,,,,,,,,,,,,,,,,,,,,,,,,,,,,,,,,,,,,,,,,,,,,,,,,,,,,,,,,,,,,,,,,,,,
,,60c0d16d73ec63ed0d8ffb2e,2024-02-19_04h07.55.347,kallum_motion_pilot,2023.2.2,Win32,59.88023952,60c0d16d73ec63ed0d8ffb2e,65d2b6c8f2eece985d8e374c,65d2b7e4021102d09219331a,0.0502,0.0502,1,81,243,6,1,fourtwo,,,,,,,,,,,,,,,,,,,,,,,,,,,,,,,,,,,,,,,,,,,,,,,,,,,,,,,,,,,,,,,,,,,,,,,,,,,,,,,,,,,,,,,,,,,,,,,,,,,,,,,,,,,,,,,,,,,,,,,,,,,,,,,,,,,,,,,,,
,,60c0d16d73ec63ed0d8ffb2e,2024-02-19_04h07.55.347,kallum_motion_pilot,2023.2.2,Win32,59.88023952,60c0d16d73ec63ed0d8ffb2e,65d2b6c8f2eece985d8e374c,65d2b7e4021102d09219331a,0.0503,0.0503,1,82,244,118,1,eightsix,,,,,,,,,,,,,,,,,,,,,,,,,,,,,,,,,,,,,,,,,,,,,,,,,,,,,,,,,,,,,,,,,,,,,,,,,,,,,,,,,,,,,,,,,,,,,,,,,,,,,,,,,,,,,,,,,,,,,,,,,,,,,,,,,,,,,,,,,
,,60c0d16d73ec63ed0d8ffb2e,2024-02-19_04h07.55.347,kallum_motion_pilot,2023.2.2,Win32,59.88023952,60c0d16d73ec63ed0d8ffb2e,65d2b6c8f2eece985d8e374c,65d2b7e4021102d09219331a,0.0504,0.0504,1,83,245,150,1,eightsix,,,,,,,,,,,,,,,,,,,,,,,,,,,,,,,,,,,,,,,,,,,,,,,,,,,,,,,,,,,,,,,,,,,,,,,,,,,,,,,,,,,,,,,,,,,,,,,,,,,,,,,,,,,,,,,,,,,,,,,,,,,,,,,,,,,,,,,,,
,,60c0d16d73ec63ed0d8ffb2e,2024-02-19_04h07.55.347,kallum_motion_pilot,2023.2.2,Win32,59.88023952,60c0d16d73ec63ed0d8ffb2e,65d2b6c8f2eece985d8e374c,65d2b7e4021102d09219331a,0.0505,0.0506,1,84,246,109,1,seveneight,,,,,,,,,,,,,,,,,,,,,,,,,,,,,,,,,,,,,,,,,,,,,,,,,,,,,,,,,,,,,,,,,,,,,,,,,,,,,,,,,,,,,,,,,,,,,,,,,,,,,,,,,,,,,,,,,,,,,,,,,,,,,,,,,,,,,,,,,
,,60c0d16d73ec63ed0d8ffb2e,2024-02-19_04h07.55.347,kallum_motion_pilot,2023.2.2,Win32,59.88023952,60c0d16d73ec63ed0d8ffb2e,65d2b6c8f2eece985d8e374c,65d2b7e4021102d09219331a,0.0506,0.0506,1,85,247,154,1,sixfive,,,,,,,,,,,,,,,,,,,,,,,,,,,,,,,,,,,,,,,,,,,,,,,,,,,,,,,,,,,,,,,,,,,,,,,,,,,,,,,,,,,,,,,,,,,,,,,,,,,,,,,,,,,,,,,,,,,,,,,,,,,,,,,,,,,,,,,,,
,,60c0d16d73ec63ed0d8ffb2e,2024-02-19_04h07.55.347,kallum_motion_pilot,2023.2.2,Win32,59.88023952,60c0d16d73ec63ed0d8ffb2e,65d2b6c8f2eece985d8e374c,65d2b7e4021102d09219331a,0.0506,0.0508,1,86,248,105,1,fiveseven,,,,,,,,,,,,,,,,,,,,,,,,,,,,,,,,,,,,,,,,,,,,,,,,,,,,,,,,,,,,,,,,,,,,,,,,,,,,,,,,,,,,,,,,,,,,,,,,,,,,,,,,,,,,,,,,,,,,,,,,,,,,,,,,,,,,,,,,,
,,60c0d16d73ec63ed0d8ffb2e,2024-02-19_04h07.55.347,kallum_motion_pilot,2023.2.2,Win32,59.88023952,60c0d16d73ec63ed0d8ffb2e,65d2b6c8f2eece985d8e374c,65d2b7e4021102d09219331a,0.0508,0.0508,1,87,249,114,1,sixfive,,,,,,,,,,,,,,,,,,,,,,,,,,,,,,,,,,,,,,,,,,,,,,,,,,,,,,,,,,,,,,,,,,,,,,,,,,,,,,,,,,,,,,,,,,,,,,,,,,,,,,,,,,,,,,,,,,,,,,,,,,,,,,,,,,,,,,,,,
,,60c0d16d73ec63ed0d8ffb2e,2024-02-19_04h07.55.347,kallum_motion_pilot,2023.2.2,Win32,59.88023952,60c0d16d73ec63ed0d8ffb2e,65d2b6c8f2eece985d8e374c,65d2b7e4021102d09219331a,0.0509,0.0509,1,88,250,86,1,eightsix,,,,,,,,,,,,,,,,,,,,,,,,,,,,,,,,,,,,,,,,,,,,,,,,,,,,,,,,,,,,,,,,,,,,,,,,,,,,,,,,,,,,,,,,,,,,,,,,,,,,,,,,,,,,,,,,,,,,,,,,,,,,,,,,,,,,,,,,,
,,60c0d16d73ec63ed0d8ffb2e,2024-02-19_04h07.55.347,kallum_motion_pilot,2023.2.2,Win32,59.88023952,60c0d16d73ec63ed0d8ffb2e,65d2b6c8f2eece985d8e374c,65d2b7e4021102d09219331a,0.051,0.0511,1,89,251,47,1,fourthree,,,,,,,,,,,,,,,,,,,,,,,,,,,,,,,,,,,,,,,,,,,,,,,,,,,,,,,,,,,,,,,,,,,,,,,,,,,,,,,,,,,,,,,,,,,,,,,,,,,,,,,,,,,,,,,,,,,,,,,,,,,,,,,,,,,,,,,,,
,,60c0d16d73ec63ed0d8ffb2e,2024-02-19_04h07.55.347,kallum_motion_pilot,2023.2.2,Win32,59.88023952,60c0d16d73ec63ed0d8ffb2e,65d2b6c8f2eece985d8e374c,65d2b7e4021102d09219331a,0.0511,0.0511,1,90,252,37,1,threefour,,,,,,,,,,,,,,,,,,,,,,,,,,,,,,,,,,,,,,,,,,,,,,,,,,,,,,,,,,,,,,,,,,,,,,,,,,,,,,,,,,,,,,,,,,,,,,,,,,,,,,,,,,,,,,,,,,,,,,,,,,,,,,,,,,,,,,,,,
,,60c0d16d73ec63ed0d8ffb2e,2024-02-19_04h07.55.347,kallum_motion_pilot,2023.2.2,Win32,59.88023952,60c0d16d73ec63ed0d8ffb2e,65d2b6c8f2eece985d8e374c,65d2b7e4021102d09219331a,0.0512,0.0512,1,91,253,65,1,onethree,,,,,,,,,,,,,,,,,,,,,,,,,,,,,,,,,,,,,,,,,,,,,,,,,,,,,,,,,,,,,,,,,,,,,,,,,,,,,,,,,,,,,,,,,,,,,,,,,,,,,,,,,,,,,,,,,,,,,,,,,,,,,,,,,,,,,,,,,
,,60c0d16d73ec63ed0d8ffb2e,2024-02-19_04h07.55.347,kallum_motion_pilot,2023.2.2,Win32,59.88023952,60c0d16d73ec63ed0d8ffb2e,65d2b6c8f2eece985d8e374c,65d2b7e4021102d09219331a,0.0514,0.0514,1,92,254,62,1,fourtwo,,,,,,,,,,,,,,,,,,,,,,,,,,,,,,,,,,,,,,,,,,,,,,,,,,,,,,,,,,,,,,,,,,,,,,,,,,,,,,,,,,,,,,,,,,,,,,,,,,,,,,,,,,,,,,,,,,,,,,,,,,,,,,,,,,,,,,,,,
,,60c0d16d73ec63ed0d8ffb2e,2024-02-19_04h07.55.347,kallum_motion_pilot,2023.2.2,Win32,59.88023952,60c0d16d73ec63ed0d8ffb2e,65d2b6c8f2eece985d8e374c,65d2b7e4021102d09219331a,0.0515,0.0515,1,93,255,111,1,eightseven,,,,,,,,,,,,,,,,,,,,,,,,,,,,,,,,,,,,,,,,,,,,,,,,,,,,,,,,,,,,,,,,,,,,,,,,,,,,,,,,,,,,,,,,,,,,,,,,,,,,,,,,,,,,,,,,,,,,,,,,,,,,,,,,,,,,,,,,,
,,60c0d16d73ec63ed0d8ffb2e,2024-02-19_04h07.55.347,kallum_motion_pilot,2023.2.2,Win32,59.88023952,60c0d16d73ec63ed0d8ffb2e,65d2b6c8f2eece985d8e374c,65d2b7e4021102d09219331a,0.0516,0.0517,1,94,256,2,1,twoone,,,,,,,,,,,,,,,,,,,,,,,,,,,,,,,,,,,,,,,,,,,,,,,,,,,,,,,,,,,,,,,,,,,,,,,,,,,,,,,,,,,,,,,,,,,,,,,,,,,,,,,,,,,,,,,,,,,,,,,,,,,,,,,,,,,,,,,,,
,,60c0d16d73ec63ed0d8ffb2e,2024-02-19_04h07.55.347,kallum_motion_pilot,2023.2.2,Win32,59.88023952,60c0d16d73ec63ed0d8ffb2e,65d2b6c8f2eece985d8e374c,65d2b7e4021102d09219331a,0.0517,0.0517,1,95,257,142,1,eightsix,,,,,,,,,,,,,,,,,,,,,,,,,,,,,,,,,,,,,,,,,,,,,,,,,,,,,,,,,,,,,,,,,,,,,,,,,,,,,,,,,,,,,,,,,,,,,,,,,,,,,,,,,,,,,,,,,,,,,,,,,,,,,,,,,,,,,,,,,
,,60c0d16d73ec63ed0d8ffb2e,2024-02-19_04h07.55.347,kallum_motion_pilot,2023.2.2,Win32,59.88023952,60c0d16d73ec63ed0d8ffb2e,65d2b6c8f2eece985d8e374c,65d2b7e4021102d09219331a,0.0518,0.0519,1,96,258,131,1,sixeight,,,,,,,,,,,,,,,,,,,,,,,,,,,,,,,,,,,,,,,,,,,,,,,,,,,,,,,,,,,,,,,,,,,,,,,,,,,,,,,,,,,,,,,,,,,,,,,,,,,,,,,,,,,,,,,,,,,,,,,,,,,,,,,,,,,,,,,,,
,,60c0d16d73ec63ed0d8ffb2e,2024-02-19_04h07.55.347,kallum_motion_pilot,2023.2.2,Win32,59.88023952,60c0d16d73ec63ed0d8ffb2e,65d2b6c8f2eece985d8e374c,65d2b7e4021102d09219331a,0.0519,0.0519,1,97,259,16,1,onetwo,,,,,,,,,,,,,,,,,,,,,,,,,,,,,,,,,,,,,,,,,,,,,,,,,,,,,,,,,,,,,,,,,,,,,,,,,,,,,,,,,,,,,,,,,,,,,,,,,,,,,,,,,,,,,,,,,,,,,,,,,,,,,,,,,,,,,,,,,
,,60c0d16d73ec63ed0d8ffb2e,2024-02-19_04h07.55.347,kallum_motion_pilot,2023.2.2,Win32,59.88023952,60c0d16d73ec63ed0d8ffb2e,65d2b6c8f2eece985d8e374c,65d2b7e4021102d09219331a,0.052,0.052,1,98,260,44,1,threeone,,,,,,,,,,,,,,,,,,,,,,,,,,,,,,,,,,,,,,,,,,,,,,,,,,,,,,,,,,,,,,,,,,,,,,,,,,,,,,,,,,,,,,,,,,,,,,,,,,,,,,,,,,,,,,,,,,,,,,,,,,,,,,,,,,,,,,,,,
,,60c0d16d73ec63ed0d8ffb2e,2024-02-19_04h07.55.347,kallum_motion_pilot,2023.2.2,Win32,59.88023952,60c0d16d73ec63ed0d8ffb2e,65d2b6c8f2eece985d8e374c,65d2b7e4021102d09219331a,0.0521,0.0522,1,99,261,18,1,twoone,,,,,,,,,,,,,,,,,,,,,,,,,,,,,,,,,,,,,,,,,,,,,,,,,,,,,,,,,,,,,,,,,,,,,,,,,,,,,,,,,,,,,,,,,,,,,,,,,,,,,,,,,,,,,,,,,,,,,,,,,,,,,,,,,,,,,,,,,
,,60c0d16d73ec63ed0d8ffb2e,2024-02-19_04h07.55.347,kallum_motion_pilot,2023.2.2,Win32,59.88023952,60c0d16d73ec63ed0d8ffb2e,65d2b6c8f2eece985d8e374c,65d2b7e4021102d09219331a,0.0523,0.0523,1,100,262,130,1,sixfive,,,,,,,,,,,,,,,,,,,,,,,,,,,,,,,,,,,,,,,,,,,,,,,,,,,,,,,,,,,,,,,,,,,,,,,,,,,,,,,,,,,,,,,,,,,,,,,,,,,,,,,,,,,,,,,,,,,,,,,,,,,,,,,,,,,,,,,,,
,,60c0d16d73ec63ed0d8ffb2e,2024-02-19_04h07.55.347,kallum_motion_pilot,2023.2.2,Win32,59.88023952,60c0d16d73ec63ed0d8ffb2e,65d2b6c8f2eece985d8e374c,65d2b7e4021102d09219331a,0.0523,0.0523,1,101,263,112,1,fivesix,,,,,,,,,,,,,,,,,,,,,,,,,,,,,,,,,,,,,,,,,,,,,,,,,,,,,,,,,,,,,,,,,,,,,,,,,,,,,,,,,,,,,,,,,,,,,,,,,,,,,,,,,,,,,,,,,,,,,,,,,,,,,,,,,,,,,,,,,
,,60c0d16d73ec63ed0d8ffb2e,2024-02-19_04h07.55.347,kallum_motion_pilot,2023.2.2,Win32,59.88023952,60c0d16d73ec63ed0d8ffb2e,65d2b6c8f2eece985d8e374c,65d2b7e4021102d09219331a,0.0529,0.0529,1,102,264,67,1,twofour,,,,,,,,,,,,,,,,,,,,,,,,,,,,,,,,,,,,,,,,,,,,,,,,,,,,,,,,,,,,,,,,,,,,,,,,,,,,,,,,,,,,,,,,,,,,,,,,,,,,,,,,,,,,,,,,,,,,,,,,,,,,,,,,,,,,,,,,,
,,60c0d16d73ec63ed0d8ffb2e,2024-02-19_04h07.55.347,kallum_motion_pilot,2023.2.2,Win32,59.88023952,60c0d16d73ec63ed0d8ffb2e,65d2b6c8f2eece985d8e374c,65d2b7e4021102d09219331a,0.053,0.0531,1,103,265,120,1,fivesix,,,,,,,,,,,,,,,,,,,,,,,,,,,,,,,,,,,,,,,,,,,,,,,,,,,,,,,,,,,,,,,,,,,,,,,,,,,,,,,,,,,,,,,,,,,,,,,,,,,,,,,,,,,,,,,,,,,,,,,,,,,,,,,,,,,,,,,,,
,,60c0d16d73ec63ed0d8ffb2e,2024-02-19_04h07.55.347,kallum_motion_pilot,2023.2.2,Win32,59.88023952,60c0d16d73ec63ed0d8ffb2e,65d2b6c8f2eece985d8e374c,65d2b7e4021102d09219331a,0.0531,0.0531,1,104,266,17,1,onethree,,,,,,,,,,,,,,,,,,,,,,,,,,,,,,,,,,,,,,,,,,,,,,,,,,,,,,,,,,,,,,,,,,,,,,,,,,,,,,,,,,,,,,,,,,,,,,,,,,,,,,,,,,,,,,,,,,,,,,,,,,,,,,,,,,,,,,,,,
,,60c0d16d73ec63ed0d8ffb2e,2024-02-19_04h07.55.347,kallum_motion_pilot,2023.2.2,Win32,59.88023952,60c0d16d73ec63ed0d8ffb2e,65d2b6c8f2eece985d8e374c,65d2b7e4021102d09219331a,0.0532,0.0533,1,105,267,78,1,fourtwo,,,,,,,,,,,,,,,,,,,,,,,,,,,,,,,,,,,,,,,,,,,,,,,,,,,,,,,,,,,,,,,,,,,,,,,,,,,,,,,,,,,,,,,,,,,,,,,,,,,,,,,,,,,,,,,,,,,,,,,,,,,,,,,,,,,,,,,,,
,,60c0d16d73ec63ed0d8ffb2e,2024-02-19_04h07.55.347,kallum_motion_pilot,2023.2.2,Win32,59.88023952,60c0d16d73ec63ed0d8ffb2e,65d2b6c8f2eece985d8e374c,65d2b7e4021102d09219331a,0.0535,0.0536,1,106,268,125,1,seveneight,,,,,,,,,,,,,,,,,,,,,,,,,,,,,,,,,,,,,,,,,,,,,,,,,,,,,,,,,,,,,,,,,,,,,,,,,,,,,,,,,,,,,,,,,,,,,,,,,,,,,,,,,,,,,,,,,,,,,,,,,,,,,,,,,,,,,,,,,
,,60c0d16d73ec63ed0d8ffb2e,2024-02-19_04h07.55.347,kallum_motion_pilot,2023.2.2,Win32,59.88023952,60c0d16d73ec63ed0d8ffb2e,65d2b6c8f2eece985d8e374c,65d2b7e4021102d09219331a,0.0537,0.0538,1,107,269,64,1,onetwo,,,,,,,,,,,,,,,,,,,,,,,,,,,,,,,,,,,,,,,,,,,,,,,,,,,,,,,,,,,,,,,,,,,,,,,,,,,,,,,,,,,,,,,,,,,,,,,,,,,,,,,,,,,,,,,,,,,,,,,,,,,,,,,,,,,,,,,,,
,,60c0d16d73ec63ed0d8ffb2e,2024-02-19_04h07.55.347,kallum_motion_pilot,2023.2.2,Win32,59.88023952,60c0d16d73ec63ed0d8ffb2e,65d2b6c8f2eece985d8e374c,65d2b7e4021102d09219331a,0.0539,0.054,1,108,270,137,1,fiveseven,,,,,,,,,,,,,,,,,,,,,,,,,,,,,,,,,,,,,,,,,,,,,,,,,,,,,,,,,,,,,,,,,,,,,,,,,,,,,,,,,,,,,,,,,,,,,,,,,,,,,,,,,,,,,,,,,,,,,,,,,,,,,,,,,,,,,,,,,
,,60c0d16d73ec63ed0d8ffb2e,2024-02-19_04h07.55.347,kallum_motion_pilot,2023.2.2,Win32,59.88023952,60c0d16d73ec63ed0d8ffb2e,65d2b6c8f2eece985d8e374c,65d2b7e4021102d09219331a,0.0542,0.0543,1,109,271,134,1,eightsix,,,,,,,,,,,,,,,,,,,,,,,,,,,,,,,,,,,,,,,,,,,,,,,,,,,,,,,,,,,,,,,,,,,,,,,,,,,,,,,,,,,,,,,,,,,,,,,,,,,,,,,,,,,,,,,,,,,,,,,,,,,,,,,,,,,,,,,,,
,,60c0d16d73ec63ed0d8ffb2e,2024-02-19_04h07.55.347,kallum_motion_pilot,2023.2.2,Win32,59.88023952,60c0d16d73ec63ed0d8ffb2e,65d2b6c8f2eece985d8e374c,65d2b7e4021102d09219331a,0.0545,0.0547,1,110,272,45,1,threefour,,,,,,,,,,,,,,,,,,,,,,,,,,,,,,,,,,,,,,,,,,,,,,,,,,,,,,,,,,,,,,,,,,,,,,,,,,,,,,,,,,,,,,,,,,,,,,,,,,,,,,,,,,,,,,,,,,,,,,,,,,,,,,,,,,,,,,,,,
,,60c0d16d73ec63ed0d8ffb2e,2024-02-19_04h07.55.347,kallum_motion_pilot,2023.2.2,Win32,59.88023952,60c0d16d73ec63ed0d8ffb2e,65d2b6c8f2eece985d8e374c,65d2b7e4021102d09219331a,0.0548,0.055,1,111,273,71,1,fourthree,,,,,,,,,,,,,,,,,,,,,,,,,,,,,,,,,,,,,,,,,,,,,,,,,,,,,,,,,,,,,,,,,,,,,,,,,,,,,,,,,,,,,,,,,,,,,,,,,,,,,,,,,,,,,,,,,,,,,,,,,,,,,,,,,,,,,,,,,
,,60c0d16d73ec63ed0d8ffb2e,2024-02-19_04h07.55.347,kallum_motion_pilot,2023.2.2,Win32,59.88023952,60c0d16d73ec63ed0d8ffb2e,65d2b6c8f2eece985d8e374c,65d2b7e4021102d09219331a,0.0552,0.0554,1,112,274,151,1,eightseven,,,,,,,,,,,,,,,,,,,,,,,,,,,,,,,,,,,,,,,,,,,,,,,,,,,,,,,,,,,,,,,,,,,,,,,,,,,,,,,,,,,,,,,,,,,,,,,,,,,,,,,,,,,,,,,,,,,,,,,,,,,,,,,,,,,,,,,,,
,,60c0d16d73ec63ed0d8ffb2e,2024-02-19_04h07.55.347,kallum_motion_pilot,2023.2.2,Win32,59.88023952,60c0d16d73ec63ed0d8ffb2e,65d2b6c8f2eece985d8e374c,65d2b7e4021102d09219331a,0.0555,0.0555,1,113,275,98,1,sixfive,,,,,,,,,,,,,,,,,,,,,,,,,,,,,,,,,,,,,,,,,,,,,,,,,,,,,,,,,,,,,,,,,,,,,,,,,,,,,,,,,,,,,,,,,,,,,,,,,,,,,,,,,,,,,,,,,,,,,,,,,,,,,,,,,,,,,,,,,
,,60c0d16d73ec63ed0d8ffb2e,2024-02-19_04h07.55.347,kallum_motion_pilot,2023.2.2,Win32,59.88023952,60c0d16d73ec63ed0d8ffb2e,65d2b6c8f2eece985d8e374c,65d2b7e4021102d09219331a,0.0556,0.0557,1,114,276,76,1,threeone,,,,,,,,,,,,,,,,,,,,,,,,,,,,,,,,,,,,,,,,,,,,,,,,,,,,,,,,,,,,,,,,,,,,,,,,,,,,,,,,,,,,,,,,,,,,,,,,,,,,,,,,,,,,,,,,,,,,,,,,,,,,,,,,,,,,,,,,,
,,60c0d16d73ec63ed0d8ffb2e,2024-02-19_04h07.55.347,kallum_motion_pilot,2023.2.2,Win32,59.88023952,60c0d16d73ec63ed0d8ffb2e,65d2b6c8f2eece985d8e374c,65d2b7e4021102d09219331a,0.0557,0.0558,1,115,277,82,1,sixfive,,,,,,,,,,,,,,,,,,,,,,,,,,,,,,,,,,,,,,,,,,,,,,,,,,,,,,,,,,,,,,,,,,,,,,,,,,,,,,,,,,,,,,,,,,,,,,,,,,,,,,,,,,,,,,,,,,,,,,,,,,,,,,,,,,,,,,,,,
